
time,gFx,gFy,gFz,ax,ay,az,wx,wy,wz,
0.022552,0.0278,0.3500,0.9359,0.0000,0.0000,0.0000,0.0000,0.0000,0.0000,
0.022801,0.0324,0.3544,0.9210,0.0000,0.0000,0.0000,0.0000,0.0000,0.0000,
0.039324,0.0349,0.3512,0.9171,0.0000,0.0000,0.0000,0.0000,0.0000,0.0000,
0.040073,0.0361,0.3539,0.9022,0.0000,0.0000,0.0000,0.0000,0.0000,0.0000,
0.040456,0.0371,0.3488,0.9095,0.0000,0.0000,0.0000,0.0000,0.0000,0.0000,
0.040795,0.0412,0.3373,0.9262,0.0000,0.0000,0.0000,0.0000,0.0000,0.0000,
0.046326,0.0490,0.3224,0.9477,0.0000,0.0000,0.0000,0.0000,0.0000,0.0000,
0.048442,0.0566,0.3114,0.9579,0.0000,0.0000,0.0000,0.0000,0.0000,0.0000,
0.053288,0.0639,0.2980,0.9572,0.0000,0.0000,0.0000,0.0000,0.0000,0.0000,
0.061031,0.0647,0.2901,0.9530,0.0000,0.0000,0.0000,0.0000,0.0000,0.0000,
0.064564,0.0617,0.2870,0.9347,0.0000,0.0000,0.0000,0.0000,0.0000,0.0000,
0.070258,0.0598,0.2826,0.9120,0.0000,0.0000,0.0000,0.0000,0.0000,0.0000,
0.078796,0.0520,0.2828,0.8976,0.0000,0.0000,0.0000,0.0000,0.0000,0.0000,
0.080576,0.0520,0.2828,0.8976,0.0000,0.0000,0.0000,-0.2001,-0.0021,-0.0648,
0.081488,0.0407,0.2884,0.8900,0.0000,0.0000,0.0000,-0.2001,-0.0021,-0.0648,
0.085468,0.0363,0.2894,0.8773,0.0000,0.0000,0.0000,-0.2001,-0.0021,-0.0648,
0.090137,0.0412,0.2967,0.8614,0.0000,0.0000,0.0000,-0.2001,-0.0021,-0.0648,
0.095567,0.0512,0.3036,0.8360,0.0000,0.0000,0.0000,-0.2001,-0.0021,-0.0648,
0.100126,0.0759,0.3114,0.7898,0.0000,0.0000,0.0000,-0.2001,-0.0021,-0.0648,
0.104143,0.0955,0.3221,0.7937,0.0000,0.0000,0.0000,-0.2001,-0.0021,-0.0648,
0.109400,0.1069,0.3329,0.8130,0.0000,0.0000,0.0000,-0.2001,-0.0021,-0.0648,
0.115442,0.1184,0.3375,0.8155,0.0000,0.0000,0.0000,-0.2001,-0.0021,-0.0648,
0.118581,0.1184,0.3375,0.8155,0.0000,0.0000,0.0000,-0.1447,-0.0617,-0.0403,
0.120645,0.1184,0.3375,0.8155,0.0000,0.0000,-0.0000,-0.1447,-0.0617,-0.0403,
0.121809,0.1343,0.3322,0.8108,0.0000,0.0000,-0.0000,-0.1447,-0.0617,-0.0403,
0.123916,0.1538,0.3263,0.8323,0.0000,0.0000,-0.0000,-0.1447,-0.0617,-0.0403,
0.130371,0.1531,0.3173,0.8529,0.0000,0.0000,-0.0000,-0.1447,-0.0617,-0.0403,
0.133300,0.1438,0.3021,0.8651,0.0000,0.0000,-0.0000,-0.1447,-0.0617,-0.0403,
0.139907,0.1377,0.2860,0.8822,0.0000,0.0000,-0.0000,-0.1447,-0.0617,-0.0403,
0.146288,0.1426,0.2835,0.9042,0.0000,0.0000,-0.0000,-0.1447,-0.0617,-0.0403,
0.149349,0.1365,0.2850,0.9191,0.0000,0.0000,-0.0000,-0.1447,-0.0617,-0.0403,
0.154353,0.1365,0.2850,0.9191,0.2910,0.0557,-0.3967,-0.1447,-0.0617,-0.0403,
0.155854,0.1194,0.2857,0.9386,0.2910,0.0557,-0.3967,-0.1447,-0.0617,-0.0403,
0.156397,0.1194,0.2857,0.9386,0.2910,0.0557,-0.3967,-0.3216,-0.1629,0.0470,
0.159051,0.1062,0.2855,0.9469,0.2910,0.0557,-0.3967,-0.3216,-0.1629,0.0470,
0.164065,0.1094,0.2892,0.9508,0.2910,0.0557,-0.3967,-0.3216,-0.1629,0.0470,
0.170853,0.1116,0.2936,0.9538,0.2910,0.0557,-0.3967,-0.3216,-0.1629,0.0470,
0.173759,0.1143,0.2960,0.9584,0.2910,0.0557,-0.3967,-0.3216,-0.1629,0.0470,
0.179239,0.1218,0.2923,0.9589,0.2910,0.0557,-0.3967,-0.3216,-0.1629,0.0470,
0.184531,0.1072,0.2650,0.9435,0.2910,0.0557,-0.3967,-0.3216,-0.1629,0.0470,
0.189500,0.0454,0.1565,0.8985,0.2910,0.0557,-0.3967,-0.3216,-0.1629,0.0470,
0.194561,0.1033,0.2054,0.8905,0.2910,0.0557,-0.3967,-0.3216,-0.1629,0.0470,
0.195679,0.1033,0.2054,0.8905,0.2910,0.0557,-0.3967,-0.2438,0.1524,0.0001,
0.196940,0.1033,0.2054,0.8905,0.1717,0.0698,-0.2150,-0.2438,0.1524,0.0001,
0.197705,0.1763,0.2716,0.8705,0.1717,0.0698,-0.2150,-0.2438,0.1524,0.0001,
0.205190,0.2005,0.3009,0.8748,0.1717,0.0698,-0.2150,-0.2438,0.1524,0.0001,
0.209211,0.2076,0.3092,0.8800,0.1717,0.0698,-0.2150,-0.2438,0.1524,0.0001,
0.214818,0.2042,0.3099,0.8599,0.1717,0.0698,-0.2150,-0.2438,0.1524,0.0001,
0.217500,0.2027,0.2977,0.8304,0.1717,0.0698,-0.2150,-0.2438,0.1524,0.0001,
0.223719,0.2012,0.2889,0.8206,0.1717,0.0698,-0.2150,-0.2438,0.1524,0.0001,
0.230510,0.1861,0.2875,0.8057,0.1717,0.0698,-0.2150,-0.2438,0.1524,0.0001,
0.233489,0.1683,0.2853,0.7735,0.1717,0.0698,-0.2150,-0.2438,0.1524,0.0001,
0.234782,0.1683,0.2853,0.7735,0.1717,0.0698,-0.2150,0.3762,0.0384,-0.0936,
0.236312,0.1683,0.2853,0.7735,0.2492,-0.2791,0.3629,0.3762,0.0384,-0.0936,
0.237634,0.1656,0.2831,0.7459,0.2492,-0.2791,0.3629,0.3762,0.0384,-0.0936,
0.242891,0.1844,0.2704,0.7209,0.2492,-0.2791,0.3629,0.3762,0.0384,-0.0936,
0.248052,0.2191,0.2574,0.6889,0.2492,-0.2791,0.3629,0.3762,0.0384,-0.0936,
0.252339,0.2288,0.2664,0.6865,0.2492,-0.2791,0.3629,0.3762,0.0384,-0.0936,
0.257742,0.1846,0.2887,0.7529,0.2492,-0.2791,0.3629,0.3762,0.0384,-0.0936,
0.263310,0.1570,0.3058,0.8453,0.2492,-0.2791,0.3629,0.3762,0.0384,-0.0936,
0.269926,0.1563,0.3107,0.8812,0.2492,-0.2791,0.3629,0.3762,0.0384,-0.0936,
0.272354,0.1543,0.3080,0.8890,0.2492,-0.2791,0.3629,0.3762,0.0384,-0.0936,
0.273389,0.1543,0.3080,0.8890,0.2492,-0.2791,0.3629,0.5093,-0.4676,-0.2214,
0.274578,0.1543,0.3080,0.8890,0.0780,-0.3082,0.2969,0.5093,-0.4676,-0.2214,
0.279736,0.1424,0.3090,0.9100,0.0780,-0.3082,0.2969,0.5093,-0.4676,-0.2214,
0.282944,0.1397,0.3199,0.9357,0.0780,-0.3082,0.2969,0.5093,-0.4676,-0.2214,
0.288487,0.1450,0.3417,0.9411,0.0780,-0.3082,0.2969,0.5093,-0.4676,-0.2214,
0.292828,0.1529,0.3615,0.9345,0.0780,-0.3082,0.2969,0.5093,-0.4676,-0.2214,
0.298628,0.1653,0.3725,0.9235,0.0780,-0.3082,0.2969,0.5093,-0.4676,-0.2214,
0.303154,0.2164,0.4204,0.9347,0.0780,-0.3082,0.2969,0.5093,-0.4676,-0.2214,
0.307238,0.1866,0.4426,0.8514,0.0780,-0.3082,0.2969,0.5093,-0.4676,-0.2214,
0.313685,0.0735,0.3490,0.7698,0.0780,-0.3082,0.2969,0.5093,-0.4676,-0.2214,
0.315086,0.0735,0.3490,0.7698,0.0780,-0.3082,0.2969,0.4284,-0.3493,-0.2992,
0.315934,0.0735,0.3490,0.7698,0.3486,-0.2407,-0.6152,0.4284,-0.3493,-0.2992,
0.317497,0.0434,0.2748,0.7674,0.3486,-0.2407,-0.6152,0.4284,-0.3493,-0.2992,
0.322222,0.0879,0.2562,0.7082,0.3486,-0.2407,-0.6152,0.4284,-0.3493,-0.2992,
0.326195,0.1854,0.3014,0.6826,0.3486,-0.2407,-0.6152,0.4284,-0.3493,-0.2992,
0.331743,0.2572,0.3405,0.7175,0.3486,-0.2407,-0.6152,0.4284,-0.3493,-0.2992,
0.336542,0.2464,0.2889,0.7341,0.3486,-0.2407,-0.6152,0.4284,-0.3493,-0.2992,
0.341434,0.2501,0.2640,0.8157,0.3486,-0.2407,-0.6152,0.4284,-0.3493,-0.2992,
0.347587,0.2736,0.3283,0.9418,0.3486,-0.2407,-0.6152,0.4284,-0.3493,-0.2992,
0.352731,0.2692,0.3971,0.9765,0.3486,-0.2407,-0.6152,0.4284,-0.3493,-0.2992,
0.354002,0.2692,0.3971,0.9765,0.3486,-0.2407,-0.6152,0.1961,-0.0596,-0.4696,
0.354845,0.2692,0.3971,0.9765,0.1883,0.0807,-0.2498,0.1961,-0.0596,-0.4696,
0.356897,0.2455,0.3832,0.9120,0.1883,0.0807,-0.2498,0.1961,-0.0596,-0.4696,
0.362776,0.2252,0.3173,0.8685,0.1883,0.0807,-0.2498,0.1961,-0.0596,-0.4696,
0.367650,0.2161,0.2735,0.8922,0.1883,0.0807,-0.2498,0.1961,-0.0596,-0.4696,
0.372274,0.2174,0.2586,0.9264,0.1883,0.0807,-0.2498,0.1961,-0.0596,-0.4696,
0.376913,0.2259,0.2559,0.9218,0.1883,0.0807,-0.2498,0.1961,-0.0596,-0.4696,
0.382402,0.2499,0.2515,0.8919,0.1883,0.0807,-0.2498,0.1961,-0.0596,-0.4696,
0.387709,0.2745,0.2339,0.8614,0.1883,0.0807,-0.2498,0.1961,-0.0596,-0.4696,
0.392439,0.3063,0.2254,0.8079,0.1883,0.0807,-0.2498,0.1961,-0.0596,-0.4696,
0.393534,0.3063,0.2254,0.8079,0.1883,0.0807,-0.2498,-0.5442,0.1162,-0.4803,
0.394196,0.3063,0.2254,0.8079,0.2291,0.1878,-0.2586,-0.5442,0.1162,-0.4803,
0.397498,0.3256,0.2161,0.7356,0.2291,0.1878,-0.2586,-0.5442,0.1162,-0.4803,
0.401968,0.3241,0.1941,0.6672,0.2291,0.1878,-0.2586,-0.5442,0.1162,-0.4803,
0.406847,0.3595,0.2012,0.6173,0.2291,0.1878,-0.2586,-0.5442,0.1162,-0.4803,
0.413457,0.4050,0.2198,0.6022,0.2291,0.1878,-0.2586,-0.5442,0.1162,-0.4803,
0.416090,0.4433,0.2337,0.5946,0.2291,0.1878,-0.2586,-0.5442,0.1162,-0.4803,
0.421094,0.4736,0.2459,0.5915,0.2291,0.1878,-0.2586,-0.5442,0.1162,-0.4803,
0.426138,0.4744,0.1914,0.5885,0.2291,0.1878,-0.2586,-0.5442,0.1162,-0.4803,
0.431230,0.4849,0.1484,0.5954,0.2291,0.1878,-0.2586,-0.5442,0.1162,-0.4803,
0.432794,0.4849,0.1484,0.5954,0.2291,0.1878,-0.2586,-0.4185,-0.6860,-0.2555,
0.433600,0.4849,0.1484,0.5954,0.8835,-0.2410,-0.0324,-0.4185,-0.6860,-0.2555,
0.436017,0.5323,0.2115,0.5897,0.8835,-0.2410,-0.0324,-0.4185,-0.6860,-0.2555,
0.440469,0.5816,0.2606,0.6259,0.8835,-0.2410,-0.0324,-0.4185,-0.6860,-0.2555,
0.446623,0.6337,0.2809,0.6728,0.8835,-0.2410,-0.0324,-0.4185,-0.6860,-0.2555,
0.450892,0.6872,0.2801,0.7121,0.8835,-0.2410,-0.0324,-0.4185,-0.6860,-0.2555,
0.455514,0.7211,0.2506,0.7302,0.8835,-0.2410,-0.0324,-0.4185,-0.6860,-0.2555,
0.460743,0.7238,0.2100,0.7361,0.8835,-0.2410,-0.0324,-0.4185,-0.6860,-0.2555,
0.465131,0.7077,0.1704,0.7434,0.8835,-0.2410,-0.0324,-0.4185,-0.6860,-0.2555,
0.473038,0.6920,0.1470,0.7715,0.8835,-0.2410,-0.0324,-0.4185,-0.6860,-0.2555,
0.474408,0.6920,0.1470,0.7715,0.8835,-0.2410,-0.0324,-0.0979,-3.0242,0.0470,
0.475608,0.6920,0.1470,0.7715,2.5238,-0.6179,-1.3991,-0.0979,-3.0242,0.0470,
0.476697,0.6740,0.1238,0.8072,2.5238,-0.6179,-1.3991,-0.0979,-3.0242,0.0470,
0.481641,0.6439,0.0996,0.8275,2.5238,-0.6179,-1.3991,-0.0979,-3.0242,0.0470,
0.486539,0.6068,0.0830,0.8121,2.5238,-0.6179,-1.3991,-0.0979,-3.0242,0.0470,
0.491255,0.5667,0.0659,0.7783,2.5238,-0.6179,-1.3991,-0.0979,-3.0242,0.0470,
0.496468,0.5323,0.0515,0.7336,2.5238,-0.6179,-1.3991,-0.0979,-3.0242,0.0470,
0.501376,0.5037,0.0392,0.6850,2.5238,-0.6179,-1.3991,-0.0979,-3.0242,0.0470,
0.505627,0.4707,0.0385,0.6283,2.5238,-0.6179,-1.3991,-0.0979,-3.0242,0.0470,
0.511105,0.4385,0.0427,0.5746,2.5238,-0.6179,-1.3991,-0.0979,-3.0242,0.0470,
0.512443,0.4385,0.0427,0.5746,2.5238,-0.6179,-1.3991,0.1471,-4.1374,-0.3248,
0.513637,0.4385,0.0427,0.5746,1.1333,-0.6097,-0.6526,0.1471,-4.1374,-0.3248,
0.515306,0.4353,0.0522,0.5257,1.1333,-0.6097,-0.6526,0.1471,-4.1374,-0.3248,
0.522123,0.4468,0.0649,0.4825,1.1333,-0.6097,-0.6526,0.1471,-4.1374,-0.3248,
0.523887,0.4646,0.0830,0.4461,1.1333,-0.6097,-0.6526,0.1471,-4.1374,-0.3248,
0.530142,0.4807,0.0942,0.4141,1.1333,-0.6097,-0.6526,0.1471,-4.1374,-0.3248,
0.536906,0.4849,0.1020,0.3887,1.1333,-0.6097,-0.6526,0.1471,-4.1374,-0.3248,
0.539597,0.4849,0.0974,0.3645,1.1333,-0.6097,-0.6526,0.1471,-4.1374,-0.3248,
0.547151,0.4907,0.0898,0.3413,1.1333,-0.6097,-0.6526,0.1471,-4.1374,-0.3248,
0.550925,0.4939,0.0832,0.3181,1.1333,-0.6097,-0.6526,0.1471,-4.1374,-0.3248,
0.553272,0.4939,0.0832,0.3181,1.1333,-0.6097,-0.6526,0.8278,-4.7340,0.0800,
0.554261,0.4939,0.0832,0.3181,-0.6336,-1.9649,0.0677,0.8278,-4.7340,0.0800,
0.557606,0.5020,0.0717,0.2944,-0.6336,-1.9649,0.0677,0.8278,-4.7340,0.0800,
0.564458,0.5010,0.0517,0.2836,-0.6336,-1.9649,0.0677,0.8278,-4.7340,0.0800,
0.566653,0.4939,0.0368,0.2831,-0.6336,-1.9649,0.0677,0.8278,-4.7340,0.0800,
0.572927,0.4912,0.0175,0.3046,-0.6336,-1.9649,0.0677,0.8278,-4.7340,0.0800,
0.573768,0.4873,-0.0082,0.3384,-0.6336,-1.9649,0.0677,0.8278,-4.7340,0.0800,
0.580303,0.4920,-0.0314,0.3762,-0.6336,-1.9649,0.0677,0.8278,-4.7340,0.0800,
0.586229,0.5061,-0.0578,0.4221,-0.6336,-1.9649,0.0677,0.8278,-4.7340,0.0800,
0.590005,0.5386,-0.0768,0.4673,-0.6336,-1.9649,0.0677,0.8278,-4.7340,0.0800,
0.591046,0.5386,-0.0768,0.4673,-0.6336,-1.9649,0.0677,0.9621,-5.6022,1.0686,
0.592075,0.5386,-0.0768,0.4673,-1.6838,-1.6565,1.3894,0.9621,-5.6022,1.0686,
0.597095,0.5670,-0.0871,0.5074,-1.6838,-1.6565,1.3894,0.9621,-5.6022,1.0686,
0.600908,0.5965,-0.0824,0.5348,-1.6838,-1.6565,1.3894,0.9621,-5.6022,1.0686,
0.607609,0.6334,-0.0736,0.5441,-1.6838,-1.6565,1.3894,0.9621,-5.6022,1.0686,
0.610053,0.6696,-0.0665,0.5489,-1.6838,-1.6565,1.3894,0.9621,-5.6022,1.0686,
0.614792,0.6942,-0.0619,0.5350,-1.6838,-1.6565,1.3894,0.9621,-5.6022,1.0686,
0.620070,0.7172,-0.0592,0.5169,-1.6838,-1.6565,1.3894,0.9621,-5.6022,1.0686,
0.624818,0.7670,-0.0602,0.5008,-1.6838,-1.6565,1.3894,0.9621,-5.6022,1.0686,
0.629720,0.8289,-0.0568,0.4612,-1.6838,-1.6565,1.3894,0.9621,-5.6022,1.0686,
0.630854,0.8289,-0.0568,0.4612,-1.6838,-1.6565,1.3894,1.0473,-6.1774,2.1871,
0.631396,0.8289,-0.0568,0.4612,-2.5571,-1.6020,0.7281,1.0473,-6.1774,2.1871,
0.634488,0.8772,-0.0441,0.3818,-2.5571,-1.6020,0.7281,1.0473,-6.1774,2.1871,
0.638714,0.9046,-0.0270,0.2976,-2.5571,-1.6020,0.7281,1.0473,-6.1774,2.1871,
0.643369,0.9097,-0.0045,0.2233,-2.5571,-1.6020,0.7281,1.0473,-6.1774,2.1871,
0.648736,0.8763,0.0094,0.1712,-2.5571,-1.6020,0.7281,1.0473,-6.1774,2.1871,
0.657457,0.8333,-0.0003,0.1441,-2.5571,-1.6020,0.7281,1.0473,-6.1774,2.1871,
0.658913,0.7885,-0.0365,0.1114,-2.5571,-1.6020,0.7281,1.0473,-6.1774,2.1871,
0.664017,0.7460,-0.0893,0.0894,-2.5571,-1.6020,0.7281,1.0473,-6.1774,2.1871,
0.669226,0.7258,-0.1398,0.0821,-2.5571,-1.6020,0.7281,1.0473,-6.1774,2.1871,
0.670699,0.7258,-0.1398,0.0821,-2.5571,-1.6020,0.7281,1.4478,-4.8149,3.1459,
0.671774,0.7258,-0.1398,0.0821,-0.3671,-1.1194,1.8631,1.4478,-4.8149,3.1459,
0.674356,0.7287,-0.1704,0.0899,-0.3671,-1.1194,1.8631,1.4478,-4.8149,3.1459,
0.681631,0.7504,-0.1872,0.1009,-0.3671,-1.1194,1.8631,1.4478,-4.8149,3.1459,
0.683234,0.7969,-0.1902,0.1204,-0.3671,-1.1194,1.8631,1.4478,-4.8149,3.1459,
0.689452,0.8631,-0.2038,0.1483,-0.3671,-1.1194,1.8631,1.4478,-4.8149,3.1459,
0.695381,0.9447,-0.2334,0.1634,-0.3671,-1.1194,1.8631,1.4478,-4.8149,3.1459,
0.700241,1.0392,-0.2622,0.1698,-0.3671,-1.1194,1.8631,1.4478,-4.8149,3.1459,
0.704824,1.1164,-0.2708,0.1722,-0.3671,-1.1194,1.8631,1.4478,-4.8149,3.1459,
0.709772,1.1714,-0.2637,0.1742,-0.3671,-1.1194,1.8631,1.4478,-4.8149,3.1459,
0.711394,1.1714,-0.2637,0.1742,-0.3671,-1.1194,1.8631,1.6076,-3.9084,3.4346,
0.712748,1.1714,-0.2637,0.1742,-0.4771,-0.0519,2.8298,1.6076,-3.9084,3.4346,
0.713793,1.2171,-0.2466,0.1769,-0.4771,-0.0519,2.8298,1.6076,-3.9084,3.4346,
0.718733,1.2784,-0.2129,0.1786,-0.4771,-0.0519,2.8298,1.6076,-3.9084,3.4346,
0.723759,1.3497,-0.1682,0.1759,-0.4771,-0.0519,2.8298,1.6076,-3.9084,3.4346,
0.728676,1.4022,-0.1247,0.1708,-0.4771,-0.0519,2.8298,1.6076,-3.9084,3.4346,
0.733056,1.4157,-0.0959,0.1664,-0.4771,-0.0519,2.8298,1.6076,-3.9084,3.4346,
0.737751,1.3993,-0.0800,0.1500,-0.4771,-0.0519,2.8298,1.6076,-3.9084,3.4346,
0.743004,1.3627,-0.0800,0.1192,-0.4771,-0.0519,2.8298,1.6076,-3.9084,3.4346,
0.749590,1.3133,-0.1022,0.0779,-0.4771,-0.0519,2.8298,1.6076,-3.9084,3.4346,
0.751107,1.3133,-0.1022,0.0779,-0.4771,-0.0519,2.8298,1.0025,-1.9536,4.0599,
0.752481,1.3133,-0.1022,0.0779,1.8474,-0.3062,1.3293,1.0025,-1.9536,4.0599,
0.754015,1.2483,-0.1323,0.0386,1.8474,-0.3062,1.3293,1.0025,-1.9536,4.0599,
0.759426,1.1887,-0.1696,0.0098,1.8474,-0.3062,1.3293,1.0025,-1.9536,4.0599,
0.764567,1.1396,-0.2124,-0.0183,1.8474,-0.3062,1.3293,1.0025,-1.9536,4.0599,
0.768971,1.1210,-0.2488,-0.0401,1.8474,-0.3062,1.3293,1.0025,-1.9536,4.0599,
0.773795,1.1350,-0.2803,-0.0562,1.8474,-0.3062,1.3293,1.0025,-1.9536,4.0599,
0.781249,1.1714,-0.3123,-0.0682,1.8474,-0.3062,1.3293,1.0025,-1.9536,4.0599,
0.783595,1.2146,-0.3424,-0.0770,1.8474,-0.3062,1.3293,1.0025,-1.9536,4.0599,
0.789213,1.2520,-0.3541,-0.0836,1.8474,-0.3062,1.3293,1.0025,-1.9536,4.0599,
0.790594,1.2520,-0.3541,-0.0836,1.8474,-0.3062,1.3293,1.4052,-1.4263,3.2993,
0.791434,1.2520,-0.3541,-0.0836,1.9492,0.6894,1.5094,1.4052,-1.4263,3.2993,
0.792959,1.2757,-0.3556,-0.0792,1.9492,0.6894,1.5094,1.4052,-1.4263,3.2993,
0.798456,1.2940,-0.3592,-0.0753,1.9492,0.6894,1.5094,1.4052,-1.4263,3.2993,
0.803715,1.3177,-0.3668,-0.0616,1.9492,0.6894,1.5094,1.4052,-1.4263,3.2993,
0.808822,1.3439,-0.3712,-0.0371,1.9492,0.6894,1.5094,1.4052,-1.4263,3.2993,
0.814463,1.3717,-0.3658,-0.0117,1.9492,0.6894,1.5094,1.4052,-1.4263,3.2993,
0.817922,1.4086,-0.3517,-0.0056,1.9492,0.6894,1.5094,1.4052,-1.4263,3.2993,
0.823408,1.4482,-0.3265,-0.0198,1.9492,0.6894,1.5094,1.4052,-1.4263,3.2993,
0.831045,1.4482,-0.3265,-0.0198,4.0861,1.3886,0.3042,1.4052,-1.4263,3.2993,
0.832505,1.4770,-0.3055,-0.0428,4.0861,1.3886,0.3042,1.4052,-1.4263,3.2993,
0.833389,1.4770,-0.3055,-0.0428,4.0861,1.3886,0.3042,1.4542,-1.1078,2.8050,
0.834226,1.4936,-0.2916,-0.0728,4.0861,1.3886,0.3042,1.4542,-1.1078,2.8050,
0.838153,1.4983,-0.2916,-0.1117,4.0861,1.3886,0.3042,1.4542,-1.1078,2.8050,
0.841937,1.4794,-0.2972,-0.1380,4.0861,1.3886,0.3042,1.4542,-1.1078,2.8050,
0.847322,1.4533,-0.3140,-0.1549,4.0861,1.3886,0.3042,1.4542,-1.1078,2.8050,
0.851497,1.4318,-0.3370,-0.1578,4.0861,1.3886,0.3042,1.4542,-1.1078,2.8050,
0.856946,1.4145,-0.3651,-0.1449,4.0861,1.3886,0.3042,1.4542,-1.1078,2.8050,
0.861213,1.4054,-0.3932,-0.1246,4.0861,1.3886,0.3042,1.4542,-1.1078,2.8050,
0.866517,1.4118,-0.4232,-0.1100,4.0861,1.3886,0.3042,1.4542,-1.1078,2.8050,
0.867875,1.4118,-0.4232,-0.1100,4.0861,1.3886,0.3042,1.2294,-0.5294,2.3863,
0.868719,1.4118,-0.4232,-0.1100,5.6399,0.8899,-0.5542,1.2294,-0.5294,2.3863,
0.871185,1.4235,-0.4433,-0.0946,5.6399,0.8899,-0.5542,1.2294,-0.5294,2.3863,
0.877565,1.4233,-0.4640,-0.0792,5.6399,0.8899,-0.5542,1.2294,-0.5294,2.3863,
0.882296,1.4118,-0.4743,-0.0621,5.6399,0.8899,-0.5542,1.2294,-0.5294,2.3863,
0.887461,1.3966,-0.4772,-0.0447,5.6399,0.8899,-0.5542,1.2294,-0.5294,2.3863,
0.892413,1.3949,-0.4748,-0.0183,5.6399,0.8899,-0.5542,1.2294,-0.5294,2.3863,
0.898045,1.4025,-0.4868,0.0122,5.6399,0.8899,-0.5542,1.2294,-0.5294,2.3863,
0.902468,1.4052,-0.4946,0.0252,5.6399,0.8899,-0.5542,1.2294,-0.5294,2.3863,
0.907864,1.4052,-0.4777,0.0300,5.6399,0.8899,-0.5542,1.2294,-0.5294,2.3863,
0.909624,1.4052,-0.4777,0.0300,5.6399,0.8899,-0.5542,1.5554,-1.0982,1.6140,
0.910737,1.4052,-0.4777,0.0300,5.4780,1.3149,-0.4406,1.5554,-1.0982,1.6140,
0.914666,1.4047,-0.4567,0.0271,5.4780,1.3149,-0.4406,1.5554,-1.0982,1.6140,
0.916409,1.4147,-0.4325,0.0154,5.4780,1.3149,-0.4406,1.5554,-1.0982,1.6140,
0.921956,1.4213,-0.4169,-0.0034,5.4780,1.3149,-0.4406,1.5554,-1.0982,1.6140,
0.927379,1.4201,-0.4066,-0.0230,5.4780,1.3149,-0.4406,1.5554,-1.0982,1.6140,
0.932133,1.4198,-0.4059,-0.0574,5.4780,1.3149,-0.4406,1.5554,-1.0982,1.6140,
0.937191,1.4003,-0.4064,-0.0831,5.4780,1.3149,-0.4406,1.5554,-1.0982,1.6140,
0.940746,1.3698,-0.4078,-0.1073,5.4780,1.3149,-0.4406,1.5554,-1.0982,1.6140,
0.948476,1.3397,-0.4100,-0.1217,5.4780,1.3149,-0.4406,1.5554,-1.0982,1.6140,
0.950007,1.3397,-0.4100,-0.1217,5.2270,0.5075,-0.1870,1.5554,-1.0982,1.6140,
0.950893,1.3397,-0.4100,-0.1217,5.2270,0.5075,-0.1870,1.5181,-0.2141,1.2199,
0.951861,1.3114,-0.4186,-0.1312,5.2270,0.5075,-0.1870,1.5181,-0.2141,1.2199,
0.957922,1.3663,-0.3592,-0.4811,5.2270,0.5075,-0.1870,1.5181,-0.2141,1.2199,
0.964450,1.3299,-0.1882,-1.9342,5.2270,0.5075,-0.1870,1.5181,-0.2141,1.2199,
0.967291,1.3404,-0.2148,-1.4776,5.2270,0.5075,-0.1870,1.5181,-0.2141,1.2199,
0.971909,1.3097,-0.3172,-0.8641,5.2270,0.5075,-0.1870,1.5181,-0.2141,1.2199,
0.977006,1.1741,-0.3971,-0.4666,5.2270,0.5075,-0.1870,1.5181,-0.2141,1.2199,
0.982105,1.0595,-0.4215,-0.2067,5.2270,0.5075,-0.1870,1.5181,-0.2141,1.2199,
0.995792,0.9833,-0.4335,-0.0418,5.2270,0.5075,-0.1870,1.5181,-0.2141,1.2199,
0.997256,0.9833,-0.4335,-0.0418,3.9417,1.4611,-4.3906,1.5181,-0.2141,1.2199,
0.998174,0.9833,-0.4335,-0.0418,3.9417,1.4611,-4.3906,1.4745,0.0650,0.6169,
0.999000,0.9095,-0.4565,0.0596,3.9417,1.4611,-4.3906,1.4745,0.0650,0.6169,
0.999841,0.8574,-0.4709,0.1898,3.9417,1.4611,-4.3906,1.4745,0.0650,0.6169,
1.001857,0.8511,-0.4709,0.0210,3.9417,1.4611,-4.3906,1.4745,0.0650,0.6169,
1.006293,0.9080,-0.5117,-0.1742,3.9417,1.4611,-4.3906,1.4745,0.0650,0.6169,
1.011863,0.9307,-0.5222,-0.1556,3.9417,1.4611,-4.3906,1.4745,0.0650,0.6169,
1.016687,0.8753,-0.4826,-0.0616,3.9417,1.4611,-4.3906,1.4745,0.0650,0.6169,
1.021722,0.8049,-0.4347,-0.0672,3.9417,1.4611,-4.3906,1.4745,0.0650,0.6169,
1.027429,0.7790,-0.4357,-0.1534,3.9417,1.4611,-4.3906,1.4745,0.0650,0.6169,
1.028826,0.7790,-0.4357,-0.1534,3.9417,1.4611,-4.3906,0.2952,-0.1001,0.1674,
1.029464,0.7790,-0.4357,-0.1534,3.7108,1.4189,-4.1212,0.2952,-0.1001,0.1674,
1.030456,0.7915,-0.4565,-0.2245,3.7108,1.4189,-4.1212,0.2952,-0.1001,0.1674,
1.036213,0.8184,-0.4711,-0.2944,3.7108,1.4189,-4.1212,0.2952,-0.1001,0.1674,
1.041311,0.8254,-0.4912,-0.3318,3.7108,1.4189,-4.1212,0.2952,-0.1001,0.1674,
1.044643,0.7988,-0.5105,-0.2883,3.7108,1.4189,-4.1212,0.2952,-0.1001,0.1674,
1.050241,0.7807,-0.5332,-0.1679,3.7108,1.4189,-4.1212,0.2952,-0.1001,0.1674,
1.057353,0.7998,-0.5544,-0.0530,3.7108,1.4189,-4.1212,0.2952,-0.1001,0.1674,
1.059273,0.8416,-0.5749,0.0379,3.7108,1.4189,-4.1212,0.2952,-0.1001,0.1674,
1.064645,0.8992,-0.5706,0.0774,3.7108,1.4189,-4.1212,0.2952,-0.1001,0.1674,
1.066395,0.8992,-0.5706,0.0774,3.7108,1.4189,-4.1212,0.6968,-0.1203,0.3794,
1.067292,0.8992,-0.5706,0.0774,-0.6127,0.4331,-0.8835,0.6968,-0.1203,0.3794,
1.070282,0.9620,-0.5520,0.0787,-0.6127,0.4331,-0.8835,0.6968,-0.1203,0.3794,
1.074715,1.0092,-0.5249,0.0701,-0.6127,0.4331,-0.8835,0.6968,-0.1203,0.3794,
1.083061,1.0258,-0.5031,0.0630,-0.6127,0.4331,-0.8835,0.6968,-0.1203,0.3794,
1.085088,1.0272,-0.4806,0.0425,-0.6127,0.4331,-0.8835,0.6968,-0.1203,0.3794,
1.090979,1.0368,-0.4613,0.0076,-0.6127,0.4331,-0.8835,0.6968,-0.1203,0.3794,
1.096176,1.0390,-0.4462,-0.0345,-0.6127,0.4331,-0.8835,0.6968,-0.1203,0.3794,
1.100591,1.0365,-0.4284,-0.0799,-0.6127,0.4331,-0.8835,0.6968,-0.1203,0.3794,
1.104724,1.0556,-0.4100,-0.0987,-0.6127,0.4331,-0.8835,0.6968,-0.1203,0.3794,
1.106275,1.0556,-0.4100,-0.0987,-0.6127,0.4331,-0.8835,1.1496,-0.8500,0.6382,
1.107308,1.0556,-0.4100,-0.0987,-0.4377,0.6302,-0.7759,1.1496,-0.8500,0.6382,
1.111637,1.0700,-0.4059,-0.0814,-0.4377,0.6302,-0.7759,1.1496,-0.8500,0.6382,
1.116276,1.0834,-0.4118,-0.0374,-0.4377,0.6302,-0.7759,1.1496,-0.8500,0.6382,
1.119474,1.0810,-0.4159,0.0085,-0.4377,0.6302,-0.7759,1.1496,-0.8500,0.6382,
1.124574,1.0561,-0.4235,0.0435,-0.4377,0.6302,-0.7759,1.1496,-0.8500,0.6382,
1.132316,1.0272,-0.4384,0.0723,-0.4377,0.6302,-0.7759,1.1496,-0.8500,0.6382,
1.134665,0.9769,-0.4675,0.0994,-0.4377,0.6302,-0.7759,1.1496,-0.8500,0.6382,
1.138735,0.9495,-0.4887,0.1006,-0.4377,0.6302,-0.7759,1.1496,-0.8500,0.6382,
1.144082,0.9234,-0.5004,0.0774,-0.4377,0.6302,-0.7759,1.1496,-0.8500,0.6382,
1.145180,0.9234,-0.5004,0.0774,-0.4377,0.6302,-0.7759,1.0398,-0.7563,0.5733,
1.145955,0.9234,-0.5004,0.0774,1.1055,0.7417,0.4654,1.0398,-0.7563,0.5733,
1.149390,0.8980,-0.4987,0.0401,1.1055,0.7417,0.4654,1.0398,-0.7563,0.5733,
1.154035,0.8716,-0.4992,0.0054,1.1055,0.7417,0.4654,1.0398,-0.7563,0.5733,
1.159076,0.8445,-0.5039,-0.0349,1.1055,0.7417,0.4654,1.0398,-0.7563,0.5733,
1.165398,0.8328,-0.5029,-0.1009,1.1055,0.7417,0.4654,1.0398,-0.7563,0.5733,
1.170712,0.8057,-0.4941,-0.1505,1.1055,0.7417,0.4654,1.0398,-0.7563,0.5733,
1.175438,0.8071,-0.4682,-0.1356,1.1055,0.7417,0.4654,1.0398,-0.7563,0.5733,
1.182197,0.8215,-0.4555,-0.0946,1.1055,0.7417,0.4654,1.0398,-0.7563,0.5733,
1.184575,0.8469,-0.4565,-0.0496,1.1055,0.7417,0.4654,1.0398,-0.7563,0.5733,
1.185763,0.8469,-0.4565,-0.0496,1.1055,0.7417,0.4654,0.5573,0.2419,0.3772,
1.186544,0.8469,-0.4565,-0.0496,0.4146,0.9490,0.2021,0.5573,0.2419,0.3772,
1.190511,0.8745,-0.4596,-0.0000,0.4146,0.9490,0.2021,0.5573,0.2419,0.3772,
1.195115,0.9222,-0.4689,0.0552,0.4146,0.9490,0.2021,0.5573,0.2419,0.3772,
1.200133,0.9217,-0.4738,0.0965,0.4146,0.9490,0.2021,0.5573,0.2419,0.3772,
1.205588,0.8963,-0.4770,0.1480,0.4146,0.9490,0.2021,0.5573,0.2419,0.3772,
1.209820,0.8755,-0.4885,0.1534,0.4146,0.9490,0.2021,0.5573,0.2419,0.3772,
1.215701,0.8777,-0.5185,0.1207,0.4146,0.9490,0.2021,0.5573,0.2419,0.3772,
1.219941,0.8198,-0.5368,0.0408,0.4146,0.9490,0.2021,0.5573,0.2419,0.3772,
1.224948,0.7893,-0.5449,0.0085,0.4146,0.9490,0.2021,0.5573,0.2419,0.3772,
1.226208,0.7893,-0.5449,0.0085,0.4146,0.9490,0.2021,0.4166,0.2334,0.5136,
1.226884,0.7893,-0.5449,0.0085,0.4993,1.0622,0.0283,0.4166,0.2334,0.5136,
1.229265,0.8394,-0.6001,-0.0376,0.4993,1.0622,0.0283,0.4166,0.2334,0.5136,
1.234607,0.8203,-0.5867,0.0122,0.4993,1.0622,0.0283,0.4166,0.2334,0.5136,
1.240195,0.7519,-0.5569,0.0625,0.4993,1.0622,0.0283,0.4166,0.2334,0.5136,
1.244353,0.7399,-0.5862,0.0430,0.4993,1.0622,0.0283,0.4166,0.2334,0.5136,
1.248725,0.7028,-0.7008,-0.0472,0.4993,1.0622,0.0283,0.4166,0.2334,0.5136,
1.253333,0.6058,-0.7643,-0.1117,0.4993,1.0622,0.0283,0.4166,0.2334,0.5136,
1.258913,0.5525,-0.6934,-0.0542,0.4993,1.0622,0.0283,0.4166,0.2334,0.5136,
1.263777,0.5863,-0.6778,0.0369,0.4993,1.0622,0.0283,0.4166,0.2334,0.5136,
1.265258,0.5863,-0.6778,0.0369,0.4993,1.0622,0.0283,0.4092,-0.0447,0.5850,
1.266074,0.5863,-0.6778,0.0369,-0.0565,0.7646,0.4680,0.4092,-0.0447,0.5850,
1.269743,0.6285,-0.6927,0.1053,-0.0565,0.7646,0.4680,0.4092,-0.0447,0.5850,
1.273294,0.5968,-0.6839,0.0921,-0.0565,0.7646,0.4680,0.4092,-0.0447,0.5850,
1.278024,0.5179,-0.6736,0.0843,-0.0565,0.7646,0.4680,0.4092,-0.0447,0.5850,
1.284290,0.4258,-0.6712,0.0777,-0.0565,0.7646,0.4680,0.4092,-0.0447,0.5850,
1.289483,0.3981,-0.6375,0.0823,-0.0565,0.7646,0.4680,0.4092,-0.0447,0.5850,
1.294225,0.4170,-0.5862,0.0860,-0.0565,0.7646,0.4680,0.4092,-0.0447,0.5850,
1.299397,0.4785,-0.5432,0.1388,-0.0565,0.7646,0.4680,0.4092,-0.0447,0.5850,
1.304235,0.4954,-0.4697,0.2257,-0.0565,0.7646,0.4680,0.4092,-0.0447,0.5850,
1.306093,0.4954,-0.4697,0.2257,-0.0565,0.7646,0.4680,0.2696,0.6435,0.7416,
1.307248,0.4954,-0.4697,0.2257,0.1169,0.9524,0.1843,0.2696,0.6435,0.7416,
1.310980,0.6307,-0.4709,0.2081,0.1169,0.9524,0.1843,0.2696,0.6435,0.7416,
1.312969,0.7091,-0.5581,0.1136,0.1169,0.9524,0.1843,0.2696,0.6435,0.7416,
1.317616,0.6713,-0.5725,0.0540,0.1169,0.9524,0.1843,0.2696,0.6435,0.7416,
1.323185,0.6779,-0.5383,0.0310,0.1169,0.9524,0.1843,0.2696,0.6435,0.7416,
1.327505,0.6911,-0.5293,0.0894,0.1169,0.9524,0.1843,0.2696,0.6435,0.7416,
1.333191,0.7243,-0.5068,0.0789,0.1169,0.9524,0.1843,0.2696,0.6435,0.7416,
1.337600,0.8035,-0.5107,0.0559,0.1169,0.9524,0.1843,0.2696,0.6435,0.7416,
1.342288,0.8313,-0.4408,0.0828,0.1169,0.9524,0.1843,0.2696,0.6435,0.7416,
1.343847,0.8313,-0.4408,0.0828,0.1169,0.9524,0.1843,1.3519,-0.7094,0.8129,
1.345135,0.8313,-0.4408,0.0828,-2.5318,0.0503,0.2687,1.3519,-0.7094,0.8129,
1.349514,0.9302,-0.4885,0.2768,-2.5318,0.0503,0.2687,1.3519,-0.7094,0.8129,
1.351786,0.8567,-0.5835,0.0674,-2.5318,0.0503,0.2687,1.3519,-0.7094,0.8129,
1.358714,0.7587,-0.5117,0.0681,-2.5318,0.0503,0.2687,1.3519,-0.7094,0.8129,
1.366252,0.7052,-0.4460,0.1302,-2.5318,0.0503,0.2687,1.3519,-0.7094,0.8129,
1.368612,0.6715,-0.4081,0.0877,-2.5318,0.0503,0.2687,1.3519,-0.7094,0.8129,
1.373596,0.6351,-0.4455,0.0393,-2.5318,0.0503,0.2687,1.3519,-0.7094,0.8129,
1.378130,0.5929,-0.4755,-0.0232,-2.5318,0.0503,0.2687,1.3519,-0.7094,0.8129,
1.383988,0.5494,-0.4611,-0.0562,-2.5318,0.0503,0.2687,1.3519,-0.7094,0.8129,
1.385687,0.5494,-0.4611,-0.0562,-2.5318,0.0503,0.2687,1.0558,-0.7499,0.6936,
1.386842,0.5494,-0.4611,-0.0562,-0.3688,1.4718,0.4015,1.0558,-0.7499,0.6936,
1.387973,0.5594,-0.4538,-0.0208,-0.3688,1.4718,0.4015,1.0558,-0.7499,0.6936,
1.393127,0.5880,-0.3741,-0.0000,-0.3688,1.4718,0.4015,1.0558,-0.7499,0.6936,
1.400134,0.6073,-0.3189,-0.0391,-0.3688,1.4718,0.4015,1.0558,-0.7499,0.6936,
1.403615,0.6363,-0.2952,0.0359,-0.3688,1.4718,0.4015,1.0558,-0.7499,0.6936,
1.408090,0.6608,-0.3023,0.0672,-0.3688,1.4718,0.4015,1.0558,-0.7499,0.6936,
1.416482,0.6652,-0.3101,0.0723,-0.3688,1.4718,0.4015,1.0558,-0.7499,0.6936,
1.419157,0.6312,-0.3028,0.0787,-0.3688,1.4718,0.4015,1.0558,-0.7499,0.6936,
1.423841,0.6312,-0.3028,0.0787,-0.1927,1.5794,0.2950,1.0558,-0.7499,0.6936,
1.425441,0.6100,-0.4188,0.0933,-0.1927,1.5794,0.2950,1.0558,-0.7499,0.6936,
1.426273,0.6100,-0.4188,0.0933,-0.1927,1.5794,0.2950,0.0225,0.2909,0.6223,
1.427240,0.5230,-0.5341,0.0640,-0.1927,1.5794,0.2950,0.0225,0.2909,0.6223,
1.433586,0.4118,-0.5556,0.0921,-0.1927,1.5794,0.2950,0.0225,0.2909,0.6223,
1.437712,0.3981,-0.6336,0.0926,-0.1927,1.5794,0.2950,0.0225,0.2909,0.6223,
1.443837,0.4250,-0.7482,-0.0533,-0.1927,1.5794,0.2950,0.0225,0.2909,0.6223,
1.448733,0.4394,-0.7570,-0.0757,-0.1927,1.5794,0.2950,0.0225,0.2909,0.6223,
1.451296,0.4375,-0.7352,-0.0696,-0.1927,1.5794,0.2950,0.0225,0.2909,0.6223,
1.457036,0.4424,-0.7144,-0.0914,-0.1927,1.5794,0.2950,0.0225,0.2909,0.6223,
1.461766,0.4492,-0.7069,-0.0218,-0.1927,1.5794,0.2950,0.0225,0.2909,0.6223,
1.463243,0.4492,-0.7069,-0.0218,-0.1927,1.5794,0.2950,-0.1171,-0.3430,0.4603,
1.464116,0.4492,-0.7069,-0.0218,-1.6828,2.4333,-0.1102,-0.1171,-0.3430,0.4603,
1.468350,0.5408,-0.7059,0.0843,-1.6828,2.4333,-0.1102,-0.1171,-0.3430,0.4603,
1.471655,0.6136,-0.7303,0.0327,-1.6828,2.4333,-0.1102,-0.1171,-0.3430,0.4603,
1.475874,0.6412,-0.8036,0.0247,-1.6828,2.4333,-0.1102,-0.1171,-0.3430,0.4603,
1.483619,0.5723,-1.0022,0.1605,-1.6828,2.4333,-0.1102,-0.1171,-0.3430,0.4603,
1.489358,0.6256,-1.1173,0.1969,-1.6828,2.4333,-0.1102,-0.1171,-0.3430,0.4603,
1.493692,0.7910,-1.0628,0.0149,-1.6828,2.4333,-0.1102,-0.1171,-0.3430,0.4603,
1.495583,0.8421,-1.0919,-0.0555,-1.6828,2.4333,-0.1102,-0.1171,-0.3430,0.4603,
1.502561,0.8342,-1.2810,0.0120,-1.6828,2.4333,-0.1102,-0.1171,-0.3430,0.4603,
1.504491,0.8342,-1.2810,0.0120,-1.6828,2.4333,-0.1102,-0.6145,-0.7829,0.7863,
1.505922,0.8342,-1.2810,0.0120,-1.2599,-1.7935,0.0481,-0.6145,-0.7829,0.7863,
1.507076,0.8262,-1.4970,0.0234,-1.2599,-1.7935,0.0481,-0.6145,-0.7829,0.7863,
1.512214,0.8320,-1.6289,0.0391,-1.2599,-1.7935,0.0481,-0.6145,-0.7829,0.7863,
1.517222,0.8897,-1.7024,0.1334,-1.2599,-1.7935,0.0481,-0.6145,-0.7829,0.7863,
1.525650,0.9432,-1.7447,0.2216,-1.2599,-1.7935,0.0481,-0.6145,-0.7829,0.7863,
1.527176,0.9945,-1.6880,0.1869,-1.2599,-1.7935,0.0481,-0.6145,-0.7829,0.7863,
1.533049,0.9935,-1.5199,0.1263,-1.2599,-1.7935,0.0481,-0.6145,-0.7829,0.7863,
1.535928,0.9400,-1.4466,0.2116,-1.2599,-1.7935,0.0481,-0.6145,-0.7829,0.7863,
1.541407,0.8584,-1.4877,0.2331,-1.2599,-1.7935,0.0481,-0.6145,-0.7829,0.7863,
1.543033,0.8584,-1.4877,0.2331,-1.2599,-1.7935,0.0481,-0.2236,-0.8500,1.0026,
1.543729,0.8584,-1.4877,0.2331,-0.9370,-1.4539,0.3270,-0.2236,-0.8500,1.0026,
1.544665,0.9068,-1.3548,0.1541,-0.9370,-1.4539,0.3270,-0.2236,-0.8500,1.0026,
1.550723,0.8843,-1.2287,-0.0618,-0.9370,-1.4539,0.3270,-0.2236,-0.8500,1.0026,
1.555467,0.7328,-1.0091,-0.2155,-0.9370,-1.4539,0.3270,-0.2236,-0.8500,1.0026,
1.561452,0.4013,-0.7164,-0.1813,-0.9370,-1.4539,0.3270,-0.2236,-0.8500,1.0026,
1.566952,0.2696,-0.5224,-0.1952,-0.9370,-1.4539,0.3270,-0.2236,-0.8500,1.0026,
1.571831,0.4854,-0.5618,-0.1529,-0.9370,-1.4539,0.3270,-0.2236,-0.8500,1.0026,
1.576430,0.4868,-0.5789,-0.1573,-0.9370,-1.4539,0.3270,-0.2236,-0.8500,1.0026,
1.584013,0.3530,-0.5354,-0.1146,-0.9370,-1.4539,0.3270,-0.2236,-0.8500,1.0026,
1.585838,0.3530,-0.5354,-0.1146,-0.9370,-1.4539,0.3270,0.7746,-0.8522,0.2175,
1.587065,0.3530,-0.5354,-0.1146,1.2051,-5.7308,0.6893,0.7746,-0.8522,0.2175,
1.588452,0.2227,-0.5469,0.0044,1.2051,-5.7308,0.6893,0.7746,-0.8522,0.2175,
1.591373,0.1836,-0.5586,0.0259,1.2051,-5.7308,0.6893,0.7746,-0.8522,0.2175,
1.596310,0.1724,-0.5727,0.0322,1.2051,-5.7308,0.6893,0.7746,-0.8522,0.2175,
1.601095,0.1538,-0.5994,0.0381,1.2051,-5.7308,0.6893,0.7746,-0.8522,0.2175,
1.606326,0.1524,-0.6358,0.0630,1.2051,-5.7308,0.6893,0.7746,-0.8522,0.2175,
1.610964,0.1556,-0.6822,0.1046,1.2051,-5.7308,0.6893,0.7746,-0.8522,0.2175,
1.617551,0.1988,-0.7245,0.0740,1.2051,-5.7308,0.6893,0.7746,-0.8522,0.2175,
1.621828,0.2196,-0.7719,0.0024,1.2051,-5.7308,0.6893,0.7746,-0.8522,0.2175,
1.623262,0.2196,-0.7719,0.0024,1.2051,-5.7308,0.6893,0.1280,-1.1025,1.1410,
1.624967,0.2196,-0.7719,0.0024,1.4981,-5.2091,0.8974,0.1280,-1.1025,1.1410,
1.626557,0.2247,-0.8268,-0.0623,1.4981,-5.2091,0.8974,0.1280,-1.1025,1.1410,
1.633314,0.2100,-0.8884,-0.1178,1.4981,-5.2091,0.8974,0.1280,-1.1025,1.1410,
1.635749,0.1959,-0.9258,-0.0902,1.4981,-5.2091,0.8974,0.1280,-1.1025,1.1410,
1.640820,0.2012,-0.9451,-0.0784,1.4981,-5.2091,0.8974,0.1280,-1.1025,1.1410,
1.645676,0.3275,-0.9771,-0.0828,1.4981,-5.2091,0.8974,0.1280,-1.1025,1.1410,
1.651270,0.5303,-0.9785,-0.0992,1.4981,-5.2091,0.8974,0.1280,-1.1025,1.1410,
1.655288,0.6964,-0.9331,-0.2116,1.4981,-5.2091,0.8974,0.1280,-1.1025,1.1410,
1.659942,0.7690,-0.9612,-0.1989,1.4981,-5.2091,0.8974,0.1280,-1.1025,1.1410,
1.661458,0.7690,-0.9612,-0.1989,1.4981,-5.2091,0.8974,-0.6220,-0.9928,3.4569,
1.662461,0.7690,-0.9612,-0.1989,-2.6808,2.3087,0.6070,-0.6220,-0.9928,3.4569,
1.667125,0.7673,-1.0316,-0.1679,-2.6808,2.3087,0.6070,-0.6220,-0.9928,3.4569,
1.669498,0.7829,-1.0726,-0.1532,-2.6808,2.3087,0.6070,-0.6220,-0.9928,3.4569,
1.674171,0.8315,-1.0873,-0.1175,-2.6808,2.3087,0.6070,-0.6220,-0.9928,3.4569,
1.678853,0.7761,-1.0101,-0.0645,-2.6808,2.3087,0.6070,-0.6220,-0.9928,3.4569,
1.684394,0.6539,-0.9299,-0.0777,-2.6808,2.3087,0.6070,-0.6220,-0.9928,3.4569,
1.690850,0.5416,-0.8962,-0.1564,-2.6808,2.3087,0.6070,-0.6220,-0.9928,3.4569,
1.695265,0.4697,-0.8515,-0.1813,-2.6808,2.3087,0.6070,-0.6220,-0.9928,3.4569,
1.700952,0.4236,-0.8026,-0.1600,-2.6808,2.3087,0.6070,-0.6220,-0.9928,3.4569,
1.702847,0.4236,-0.8026,-0.1600,-2.6808,2.3087,0.6070,-0.5495,-0.5709,1.6396,
1.703821,0.4236,-0.8026,-0.1600,1.1306,-0.4838,-0.1550,-0.5495,-0.5709,1.6396,
1.704704,0.3859,-0.7704,-0.1510,1.1306,-0.4838,-0.1550,-0.5495,-0.5709,1.6396,
1.710290,0.3639,-0.7538,-0.1661,1.1306,-0.4838,-0.1550,-0.5495,-0.5709,1.6396,
1.717029,0.3456,-0.7386,-0.1906,1.1306,-0.4838,-0.1550,-0.5495,-0.5709,1.6396,
1.720041,0.3398,-0.7115,-0.1903,1.1306,-0.4838,-0.1550,-0.5495,-0.5709,1.6396,
1.725882,0.3415,-0.6636,-0.1451,1.1306,-0.4838,-0.1550,-0.5495,-0.5709,1.6396,
1.728825,0.3456,-0.6133,-0.1884,1.1306,-0.4838,-0.1550,-0.5495,-0.5709,1.6396,
1.734705,0.3473,-0.5896,-0.2407,1.1306,-0.4838,-0.1550,-0.5495,-0.5709,1.6396,
1.740018,0.3473,-0.5896,-0.2407,0.8801,-0.6312,0.2437,-0.5495,-0.5709,1.6396,
1.741655,0.3170,-0.6282,-0.2372,0.8801,-0.6312,0.2437,-0.5495,-0.5709,1.6396,
1.743086,0.3170,-0.6282,-0.2372,0.8801,-0.6312,0.2437,-1.0012,-0.2908,-0.6507,
1.744155,0.3102,-0.6756,-0.2424,0.8801,-0.6312,0.2437,-1.0012,-0.2908,-0.6507,
1.750929,0.3351,-0.7162,-0.3135,0.8801,-0.6312,0.2437,-1.0012,-0.2908,-0.6507,
1.753257,0.3483,-0.7807,-0.4117,0.8801,-0.6312,0.2437,-1.0012,-0.2908,-0.6507,
1.759671,0.3981,-0.8237,-0.4456,0.8801,-0.6312,0.2437,-1.0012,-0.2908,-0.6507,
1.764342,0.3547,-0.5202,-0.4835,0.8801,-0.6312,0.2437,-1.0012,-0.2908,-0.6507,
1.769704,-0.0223,-0.3321,-0.7921,0.8801,-0.6312,0.2437,-1.0012,-0.2908,-0.6507,
1.774398,0.0994,-0.5825,-0.3733,0.8801,-0.6312,0.2437,-1.0012,-0.2908,-0.6507,
1.779563,0.4538,-0.7435,0.1089,0.8801,-0.6312,0.2437,-1.0012,-0.2908,-0.6507,
1.780866,0.4538,-0.7435,0.1089,0.8801,-0.6312,0.2437,-1.3006,-0.0106,-0.4217,
1.781819,0.4538,-0.7435,0.1089,-1.4289,1.6461,-0.3465,-1.3006,-0.0106,-0.4217,
1.786473,0.5657,-0.7980,0.0098,-1.4289,1.6461,-0.3465,-1.3006,-0.0106,-0.4217,
1.789534,0.5401,-0.8019,-0.1918,-1.4289,1.6461,-0.3465,-1.3006,-0.0106,-0.4217,
1.794645,0.5650,-0.7853,-0.1862,-1.4289,1.6461,-0.3465,-1.3006,-0.0106,-0.4217,
1.801385,0.5587,-0.7760,-0.1517,-1.4289,1.6461,-0.3465,-1.3006,-0.0106,-0.4217,
1.804350,0.5369,-0.7491,-0.1209,-1.4289,1.6461,-0.3465,-1.3006,-0.0106,-0.4217,
1.809566,0.5721,-0.7022,-0.0987,-1.4289,1.6461,-0.3465,-1.3006,-0.0106,-0.4217,
1.814376,0.5899,-0.6942,-0.1358,-1.4289,1.6461,-0.3465,-1.3006,-0.0106,-0.4217,
1.819365,0.5799,-0.7103,-0.2416,-1.4289,1.6461,-0.3465,-1.3006,-0.0106,-0.4217,
1.821053,0.5799,-0.7103,-0.2416,-1.4289,1.6461,-0.3465,-0.8510,-0.5890,0.4220,
1.822287,0.5799,-0.7103,-0.2416,-1.1873,1.5921,0.0546,-0.8510,-0.5890,0.4220,
1.824291,0.5489,-0.7230,-0.3831,-1.1873,1.5921,0.0546,-0.8510,-0.5890,0.4220,
1.829649,0.4905,-0.7274,-0.4581,-1.1873,1.5921,0.0546,-0.8510,-0.5890,0.4220,
1.834549,0.4375,-0.7443,-0.4461,-1.1873,1.5921,0.0546,-0.8510,-0.5890,0.4220,
1.838722,0.4089,-0.7560,-0.3951,-1.1873,1.5921,0.0546,-0.8510,-0.5890,0.4220,
1.845366,0.3886,-0.7765,-0.3362,-1.1873,1.5921,0.0546,-0.8510,-0.5890,0.4220,
1.847301,0.3569,-0.7882,-0.2961,-1.1873,1.5921,0.0546,-0.8510,-0.5890,0.4220,
1.853760,0.3305,-0.7755,-0.2670,-1.1873,1.5921,0.0546,-0.8510,-0.5890,0.4220,
1.858363,0.3136,-0.7159,-0.2297,-1.1873,1.5921,0.0546,-0.8510,-0.5890,0.4220,
1.859887,0.3136,-0.7159,-0.2297,-1.1873,1.5921,0.0546,-0.0798,-0.6902,1.1741,
1.860655,0.3136,-0.7159,-0.2297,0.2843,1.9803,0.2266,-0.0798,-0.6902,1.1741,
1.862712,0.3349,-0.7115,-0.0467,0.2843,1.9803,0.2266,-0.0798,-0.6902,1.1741,
1.867646,0.3930,-0.7667,0.0195,0.2843,1.9803,0.2266,-0.0798,-0.6902,1.1741,
1.872261,0.3862,-0.7626,-0.1446,0.2843,1.9803,0.2266,-0.0798,-0.6902,1.1741,
1.877360,0.3708,-0.7213,-0.2233,0.2843,1.9803,0.2266,-0.0798,-0.6902,1.1741,
1.884041,0.4282,-0.7384,-0.1503,0.2843,1.9803,0.2266,-0.0798,-0.6902,1.1741,
1.886966,0.4477,-0.8063,-0.1395,0.2843,1.9803,0.2266,-0.0798,-0.6902,1.1741,
1.894183,0.4509,-0.8706,-0.1720,0.2843,1.9803,0.2266,-0.0798,-0.6902,1.1741,
1.898923,0.4656,-0.9180,-0.1549,0.2843,1.9803,0.2266,-0.0798,-0.6902,1.1741,
1.900206,0.4656,-0.9180,-0.1549,0.2843,1.9803,0.2266,0.1386,-0.7233,1.1368,
1.901003,0.4656,-0.9180,-0.1549,0.1055,1.4632,0.2284,0.1386,-0.7233,1.1368,
1.904631,0.4832,-0.9759,-0.1009,0.1055,1.4632,0.2284,0.1386,-0.7233,1.1368,
1.908847,0.4531,-1.0076,-0.1263,0.1055,1.4632,0.2284,0.1386,-0.7233,1.1368,
1.913369,0.4065,-1.0320,-0.1639,0.1055,1.4632,0.2284,0.1386,-0.7233,1.1368,
1.917815,0.3918,-1.0662,-0.1351,0.1055,1.4632,0.2284,0.1386,-0.7233,1.1368,
1.924576,0.4030,-1.1325,-0.0401,0.1055,1.4632,0.2284,0.1386,-0.7233,1.1368,
1.927364,0.2970,-1.2898,0.0308,0.1055,1.4632,0.2284,0.1386,-0.7233,1.1368,
1.936063,0.2882,-1.1606,-0.0723,0.1055,1.4632,0.2284,0.1386,-0.7233,1.1368,
1.937865,0.3424,-1.1163,-0.0855,0.1055,1.4632,0.2284,0.1386,-0.7233,1.1368,
1.939218,0.3424,-1.1163,-0.0855,0.1055,1.4632,0.2284,0.5637,-0.5155,1.0303,
1.940103,0.3424,-1.1163,-0.0855,0.5044,1.6059,0.0970,0.5637,-0.5155,1.0303,
1.944843,0.3327,-1.1305,-0.0020,0.5044,1.6059,0.0970,0.5637,-0.5155,1.0303,
1.946539,0.3004,-1.0474,-0.0606,0.5044,1.6059,0.0970,0.5637,-0.5155,1.0303,
1.953184,0.2362,-1.1285,0.0498,0.5044,1.6059,0.0970,0.5637,-0.5155,1.0303,
1.957495,0.0703,-1.1085,0.1620,0.5044,1.6059,0.0970,0.5637,-0.5155,1.0303,
1.962867,-0.0025,-0.9463,-0.1283,0.5044,1.6059,0.0970,0.5637,-0.5155,1.0303,
1.968100,0.0173,-1.1212,0.2499,0.5044,1.6059,0.0970,0.5637,-0.5155,1.0303,
1.972737,-0.0054,-1.0865,0.3227,0.5044,1.6059,0.0970,0.5637,-0.5155,1.0303,
1.977925,0.0029,-1.0018,0.2089,0.5044,1.6059,0.0970,0.5637,-0.5155,1.0303,
1.979256,0.0029,-1.0018,0.2089,0.5044,1.6059,0.0970,0.9365,-0.4058,1.0281,
1.980129,0.0029,-1.0018,0.2089,0.7095,-1.2189,1.3319,0.9365,-0.4058,1.0281,
1.984201,-0.0081,-1.0677,0.1370,0.7095,-1.2189,1.3319,0.9365,-0.4058,1.0281,
1.985880,-0.0436,-1.0897,0.1541,0.7095,-1.2189,1.3319,0.9365,-0.4058,1.0281,
1.993101,-0.0844,-1.1386,-0.0716,0.7095,-1.2189,1.3319,0.9365,-0.4058,1.0281,
1.997273,-0.1176,-1.2228,-0.3394,0.7095,-1.2189,1.3319,0.9365,-0.4058,1.0281,
2.002653,-0.0585,-1.6631,-0.2749,0.7095,-1.2189,1.3319,0.9365,-0.4058,1.0281,
2.007299,0.1025,-2.4512,-0.3086,0.7095,-1.2189,1.3319,0.9365,-0.4058,1.0281,
2.012363,0.2684,-2.9638,-0.2216,0.7095,-1.2189,1.3319,0.9365,-0.4058,1.0281,
2.018599,0.2684,-2.9638,-0.2216,-1.8538,-5.3578,1.4718,0.9365,-0.4058,1.0281,
2.020166,0.4033,-3.1064,-0.0027,-1.8538,-5.3578,1.4718,0.9365,-0.4058,1.0281,
2.021267,0.4033,-3.1064,-0.0027,-1.8538,-5.3578,1.4718,1.2966,0.2344,1.7152,
2.022257,0.4316,-2.9237,-0.0799,-1.8538,-5.3578,1.4718,1.2966,0.2344,1.7152,
2.027272,0.4277,-2.3459,-0.2695,-1.8538,-5.3578,1.4718,1.2966,0.2344,1.7152,
2.031852,0.3935,-1.7225,-0.2108,-1.8538,-5.3578,1.4718,1.2966,0.2344,1.7152,
2.037318,0.3422,-1.3773,0.0559,-1.8538,-5.3578,1.4718,1.2966,0.2344,1.7152,
2.044271,0.3512,-1.2018,0.2487,-1.8538,-5.3578,1.4718,1.2966,0.2344,1.7152,
2.048460,0.3647,-1.0516,0.2780,-1.8538,-5.3578,1.4718,1.2966,0.2344,1.7152,
2.052476,0.3583,-0.9409,0.2384,-1.8538,-5.3578,1.4718,1.2966,0.2344,1.7152,
2.057196,0.3180,-0.8691,0.2096,-1.8538,-5.3578,1.4718,1.2966,0.2344,1.7152,
2.059065,0.3180,-0.8691,0.2096,-1.8538,-5.3578,1.4718,0.7384,-0.3280,1.8963,
2.060131,0.3180,-0.8691,0.2096,-1.0642,-5.0072,1.1697,0.7384,-0.3280,1.8963,
2.061051,0.2489,-0.8305,0.1839,-1.0642,-5.0072,1.1697,0.7384,-0.3280,1.8963,
2.067703,0.1902,-0.8190,0.1427,-1.0642,-5.0072,1.1697,0.7384,-0.3280,1.8963,
2.070640,0.1482,-0.8224,0.0892,-1.0642,-5.0072,1.1697,0.7384,-0.3280,1.8963,
2.076734,0.1096,-0.8234,0.0410,-1.0642,-5.0072,1.1697,0.7384,-0.3280,1.8963,
2.080338,0.0661,-0.8185,-0.0117,-1.0642,-5.0072,1.1697,0.7384,-0.3280,1.8963,
2.085599,0.0283,-0.8053,-0.0652,-1.0642,-5.0072,1.1697,0.7384,-0.3280,1.8963,
2.092890,0.0043,-0.7741,-0.0960,-1.0642,-5.0072,1.1697,0.7384,-0.3280,1.8963,
2.096346,-0.0360,-0.7523,-0.1256,-1.0642,-5.0072,1.1697,0.7384,-0.3280,1.8963,
2.097549,-0.0360,-0.7523,-0.1256,-1.0642,-5.0072,1.1697,0.9599,-0.6743,0.4827,
2.098628,-0.0360,-0.7523,-0.1256,1.5246,-2.2871,1.5458,0.9599,-0.6743,0.4827,
2.100713,-0.0717,-0.7218,-0.1578,1.5246,-2.2871,1.5458,0.9599,-0.6743,0.4827,
2.106353,-0.0590,-0.7188,-0.1737,1.5246,-2.2871,1.5458,0.9599,-0.6743,0.4827,
2.111724,-0.0607,-0.7206,-0.1894,1.5246,-2.2871,1.5458,0.9599,-0.6743,0.4827,
2.118626,-0.0648,-0.7337,-0.1928,1.5246,-2.2871,1.5458,0.9599,-0.6743,0.4827,
2.120882,-0.0631,-0.7530,-0.2060,1.5246,-2.2871,1.5458,0.9599,-0.6743,0.4827,
2.127525,-0.0477,-0.7699,-0.2226,1.5246,-2.2871,1.5458,0.9599,-0.6743,0.4827,
2.135607,-0.0228,-0.8014,-0.2294,1.5246,-2.2871,1.5458,0.9599,-0.6743,0.4827,
2.138180,0.0075,-0.8361,-0.2258,1.5246,-2.2871,1.5458,0.9599,-0.6743,0.4827,
2.139572,0.0075,-0.8361,-0.2258,1.5246,-2.2871,1.5458,1.2742,0.7479,0.0449,
2.140644,0.0075,-0.8361,-0.2258,1.4799,-2.1849,0.9615,1.2742,0.7479,0.0449,
2.143028,0.0419,-0.8588,-0.1999,1.4799,-2.1849,0.9615,1.2742,0.7479,0.0449,
2.145195,0.0832,-0.8874,-0.1639,1.4799,-2.1849,0.9615,1.2742,0.7479,0.0449,
2.152583,0.1279,-0.9277,-0.1224,1.4799,-2.1849,0.9615,1.2742,0.7479,0.0449,
2.156363,0.1724,-0.9658,-0.0968,1.4799,-2.1849,0.9615,1.2742,0.7479,0.0449,
2.160924,0.2193,-0.9842,-0.1048,1.4799,-2.1849,0.9615,1.2742,0.7479,0.0449,
2.165868,0.2638,-0.9810,-0.1547,1.4799,-2.1849,0.9615,1.2742,0.7479,0.0449,
2.170791,0.2843,-0.9976,-0.1635,1.4799,-2.1849,0.9615,1.2742,0.7479,0.0449,
2.175605,0.2848,-1.0079,-0.1432,1.4799,-2.1849,0.9615,1.2742,0.7479,0.0449,
2.176819,0.2848,-1.0079,-0.1432,1.4799,-2.1849,0.9615,0.6137,0.3388,0.4806,
2.177519,0.2848,-1.0079,-0.1432,-1.3083,2.5958,-1.6399,0.6137,0.3388,0.4806,
2.179137,0.2972,-0.9961,-0.1476,-1.3083,2.5958,-1.6399,0.6137,0.3388,0.4806,
2.185396,0.2877,-0.9939,-0.1622,-1.3083,2.5958,-1.6399,0.6137,0.3388,0.4806,
2.190231,0.2674,-1.0093,-0.1424,-1.3083,2.5958,-1.6399,0.6137,0.3388,0.4806,
2.195304,0.2630,-1.0091,-0.1170,-1.3083,2.5958,-1.6399,0.6137,0.3388,0.4806,
2.200564,0.2286,-1.0215,-0.1038,-1.3083,2.5958,-1.6399,0.6137,0.3388,0.4806,
2.205490,0.1942,-1.0301,-0.0762,-1.3083,2.5958,-1.6399,0.6137,0.3388,0.4806,
2.210850,0.1607,-1.0455,-0.0323,-1.3083,2.5958,-1.6399,0.6137,0.3388,0.4806,
2.215594,0.1143,-1.0535,-0.0511,-1.3083,2.5958,-1.6399,0.6137,0.3388,0.4806,
2.216949,0.1143,-1.0535,-0.0511,-1.3083,2.5958,-1.6399,0.1450,-0.0681,0.4539,
2.217750,0.1143,-1.0535,-0.0511,1.3323,0.4621,-1.1480,0.1450,-0.0681,0.4539,
2.221826,0.0696,-1.0296,-0.1178,1.3323,0.4621,-1.1480,0.1450,-0.0681,0.4539,
2.225489,0.0996,-0.9864,-0.1268,1.3323,0.4621,-1.1480,0.1450,-0.0681,0.4539,
2.230204,0.1355,-0.9619,-0.1100,1.3323,0.4621,-1.1480,0.1450,-0.0681,0.4539,
2.235402,0.1443,-0.9514,-0.0867,1.3323,0.4621,-1.1480,0.1450,-0.0681,0.4539,
2.240415,0.1367,-0.9500,-0.0577,1.3323,0.4621,-1.1480,0.1450,-0.0681,0.4539,
2.245424,0.1297,-0.9568,-0.0240,1.3323,0.4621,-1.1480,0.1450,-0.0681,0.4539,
2.251475,0.1128,-0.9649,0.0005,1.3323,0.4621,-1.1480,0.1450,-0.0681,0.4539,
2.255064,0.0945,-0.9695,0.0161,1.3323,0.4621,-1.1480,0.1450,-0.0681,0.4539,
2.256429,0.0945,-0.9695,0.0161,1.3323,0.4621,-1.1480,-0.1447,-0.2876,0.1003,
2.257413,0.0945,-0.9695,0.0161,1.3332,0.4518,-1.0469,-0.1447,-0.2876,0.1003,
2.259471,0.0647,-0.9815,0.0176,1.3332,0.4518,-1.0469,-0.1447,-0.2876,0.1003,
2.264290,0.0297,-0.9942,0.0161,1.3332,0.4518,-1.0469,-0.1447,-0.2876,0.1003,
2.268896,-0.0125,-1.0030,0.0178,1.3332,0.4518,-1.0469,-0.1447,-0.2876,0.1003,
2.277922,-0.0585,-1.0047,0.0066,1.3332,0.4518,-1.0469,-0.1447,-0.2876,0.1003,
2.279250,-0.1012,-1.0040,-0.0105,1.3332,0.4518,-1.0469,-0.1447,-0.2876,0.1003,
2.284201,-0.1449,-0.9981,-0.0401,1.3332,0.4518,-1.0469,-0.1447,-0.2876,0.1003,
2.288342,-0.1848,-0.9888,-0.0684,1.3332,0.4518,-1.0469,-0.1447,-0.2876,0.1003,
2.293408,-0.2163,-0.9771,-0.0946,1.3332,0.4518,-1.0469,-0.1447,-0.2876,0.1003,
2.294325,-0.2163,-0.9771,-0.0946,1.3332,0.4518,-1.0469,-0.5293,-0.1683,-0.0872,
2.295417,-0.2163,-0.9771,-0.0946,-0.1959,0.5495,-0.0204,-0.5293,-0.1683,-0.0872,
2.297884,-0.2287,-0.9705,-0.1168,-0.1959,0.5495,-0.0204,-0.5293,-0.1683,-0.0872,
2.303100,-0.2622,-0.9624,-0.1319,-0.1959,0.5495,-0.0204,-0.5293,-0.1683,-0.0872,
2.311500,-0.2947,-0.9514,-0.1512,-0.1959,0.5495,-0.0204,-0.5293,-0.1683,-0.0872,
2.313602,-0.3006,-0.9431,-0.1583,-0.1959,0.5495,-0.0204,-0.5293,-0.1683,-0.0872,
2.318840,-0.3121,-0.9392,-0.1588,-0.1959,0.5495,-0.0204,-0.5293,-0.1683,-0.0872,
2.323578,-0.3123,-0.9321,-0.1652,-0.1959,0.5495,-0.0204,-0.5293,-0.1683,-0.0872,
2.328554,-0.3096,-0.9260,-0.1735,-0.1959,0.5495,-0.0204,-0.5293,-0.1683,-0.0872,
2.333481,-0.3018,-0.9177,-0.1923,-0.1959,0.5495,-0.0204,-0.5293,-0.1683,-0.0872,
2.335103,-0.3018,-0.9177,-0.1923,-0.1959,0.5495,-0.0204,-0.6710,0.4635,-0.2353,
2.336120,-0.3018,-0.9177,-0.1923,-0.2917,0.5118,0.2248,-0.6710,0.4635,-0.2353,
2.340510,-0.2849,-0.9170,-0.2077,-0.2917,0.5118,0.2248,-0.6710,0.4635,-0.2353,
2.343213,-0.2661,-0.9150,-0.2258,-0.2917,0.5118,0.2248,-0.6710,0.4635,-0.2353,
2.349542,-0.2319,-0.9145,-0.2448,-0.2917,0.5118,0.2248,-0.6710,0.4635,-0.2353,
2.354078,-0.1967,-0.9236,-0.2619,-0.2917,0.5118,0.2248,-0.6710,0.4635,-0.2353,
2.359188,-0.1664,-0.9375,-0.2702,-0.2917,0.5118,0.2248,-0.6710,0.4635,-0.2353,
2.363628,-0.1315,-0.9475,-0.2761,-0.2917,0.5118,0.2248,-0.6710,0.4635,-0.2353,
2.369576,-0.1010,-0.9600,-0.2697,-0.2917,0.5118,0.2248,-0.6710,0.4635,-0.2353,
2.375350,-0.0717,-0.9707,-0.2597,-0.2917,0.5118,0.2248,-0.6710,0.4635,-0.2353,
2.376948,-0.0717,-0.9707,-0.2597,-0.2917,0.5118,0.2248,-0.9607,0.1524,0.0321,
2.378362,-0.0717,-0.9707,-0.2597,-3.4373,0.7481,-0.2695,-0.9607,0.1524,0.0321,
2.379241,-0.0489,-0.9800,-0.2389,-3.4373,0.7481,-0.2695,-0.9607,0.1524,0.0321,
2.385027,-0.0282,-0.9898,-0.2096,-3.4373,0.7481,-0.2695,-0.9607,0.1524,0.0321,
2.388991,-0.0147,-0.9947,-0.1788,-3.4373,0.7481,-0.2695,-0.9607,0.1524,0.0321,
2.396259,0.0038,-0.9974,-0.1461,-3.4373,0.7481,-0.2695,-0.9607,0.1524,0.0321,
2.398448,0.0070,-1.0035,-0.1131,-3.4373,0.7481,-0.2695,-0.9607,0.1524,0.0321,
2.404100,0.0082,-1.0091,-0.0902,-3.4373,0.7481,-0.2695,-0.9607,0.1524,0.0321,
2.412949,-0.0006,-1.0103,-0.0789,-3.4373,0.7481,-0.2695,-0.9607,0.1524,0.0321,
2.414570,-0.0255,-1.0242,-0.0745,-3.4373,0.7481,-0.2695,-0.9607,0.1524,0.0321,
2.415820,-0.0255,-1.0242,-0.0745,-3.4373,0.7481,-0.2695,-1.3634,-0.1256,0.2537,
2.416494,-0.0255,-1.0242,-0.0745,-1.7605,0.5856,-0.5455,-1.3634,-0.1256,0.2537,
2.420701,-0.0516,-1.0394,-0.0814,-1.7605,0.5856,-0.5455,-1.3634,-0.1256,0.2537,
2.424316,-0.0780,-1.0479,-0.1082,-1.7605,0.5856,-0.5455,-1.3634,-0.1256,0.2537,
2.428907,-0.0888,-1.0499,-0.1439,-1.7605,0.5856,-0.5455,-1.3634,-0.1256,0.2537,
2.435145,-0.1022,-1.0433,-0.1840,-1.7605,0.5856,-0.5455,-1.3634,-0.1256,0.2537,
2.438410,-0.1088,-1.0298,-0.2184,-1.7605,0.5856,-0.5455,-1.3634,-0.1256,0.2537,
2.443349,-0.1046,-1.0130,-0.2375,-1.7605,0.5856,-0.5455,-1.3634,-0.1256,0.2537,
2.448542,-0.0919,-0.9959,-0.2487,-1.7605,0.5856,-0.5455,-1.3634,-0.1256,0.2537,
2.453275,-0.0775,-0.9817,-0.2617,-1.7605,0.5856,-0.5455,-1.3634,-0.1256,0.2537,
2.454976,-0.0775,-0.9817,-0.2617,-1.7605,0.5856,-0.5455,-1.3389,0.4507,0.0172,
2.455992,-0.0775,-0.9817,-0.2617,-1.7387,0.4767,-0.0294,-1.3389,0.4507,0.0172,
2.457094,-0.0726,-0.9678,-0.2668,-1.7387,0.4767,-0.0294,-1.3389,0.4507,0.0172,
2.463576,-0.0570,-0.9610,-0.2773,-1.7387,0.4767,-0.0294,-1.3389,0.4507,0.0172,
2.468910,-0.0411,-0.9512,-0.2868,-1.7387,0.4767,-0.0294,-1.3389,0.4507,0.0172,
2.471809,-0.0321,-0.9468,-0.2905,-1.7387,0.4767,-0.0294,-1.3389,0.4507,0.0172,
2.477343,-0.0223,-0.9451,-0.2959,-1.7387,0.4767,-0.0294,-1.3389,0.4507,0.0172,
2.482111,-0.0118,-0.9497,-0.2902,-1.7387,0.4767,-0.0294,-1.3389,0.4507,0.0172,
2.486689,-0.0076,-0.9524,-0.2837,-1.7387,0.4767,-0.0294,-1.3389,0.4507,0.0172,
2.493423,-0.0084,-0.9644,-0.2739,-1.7387,0.4767,-0.0294,-1.3389,0.4507,0.0172,
2.494819,-0.0084,-0.9644,-0.2739,-1.7387,0.4767,-0.0294,-0.9842,0.6904,-0.1639,
2.495512,-0.0084,-0.9644,-0.2739,-1.5680,-0.0469,0.5566,-0.9842,0.6904,-0.1639,
2.496861,-0.0042,-0.9834,-0.2644,-1.5680,-0.0469,0.5566,-0.9842,0.6904,-0.1639,
2.503346,0.0070,-1.0137,-0.2578,-1.5680,-0.0469,0.5566,-0.9842,0.6904,-0.1639,
2.512269,0.0024,-1.0369,-0.2485,-1.5680,-0.0469,0.5566,-0.9842,0.6904,-0.1639,
2.513856,-0.0238,-1.0604,-0.2614,-1.5680,-0.0469,0.5566,-0.9842,0.6904,-0.1639,
2.519064,-0.0360,-1.0897,-0.2692,-1.5680,-0.0469,0.5566,-0.9842,0.6904,-0.1639,
2.522838,-0.0548,-1.0995,-0.2827,-1.5680,-0.0469,0.5566,-0.9842,0.6904,-0.1639,
2.527816,-0.0477,-1.1100,-0.3115,-1.5680,-0.0469,0.5566,-0.9842,0.6904,-0.1639,
2.533026,-0.0269,-1.1080,-0.3362,-1.5680,-0.0469,0.5566,-0.9842,0.6904,-0.1639,
2.534185,-0.0269,-1.1080,-0.3362,-1.5680,-0.0469,0.5566,-0.8649,0.4975,-0.1053,
2.535225,-0.0269,-1.1080,-0.3362,-1.1513,-0.2417,-0.0283,-0.8649,0.4975,-0.1053,
2.539269,-0.0174,-1.0873,-0.3565,-1.1513,-0.2417,-0.0283,-0.8649,0.4975,-0.1053,
2.546302,0.0046,-1.0592,-0.3726,-1.1513,-0.2417,-0.0283,-0.8649,0.4975,-0.1053,
2.547805,0.0341,-1.0303,-0.3706,-1.1513,-0.2417,-0.0283,-0.8649,0.4975,-0.1053,
2.552647,0.0495,-1.0052,-0.3670,-1.1513,-0.2417,-0.0283,-0.8649,0.4975,-0.1053,
2.557300,0.0544,-0.9837,-0.3567,-1.1513,-0.2417,-0.0283,-0.8649,0.4975,-0.1053,
2.562204,0.0600,-0.9702,-0.3460,-1.1513,-0.2417,-0.0283,-0.8649,0.4975,-0.1053,
2.569149,0.0522,-0.9685,-0.3340,-1.1513,-0.2417,-0.0283,-0.8649,0.4975,-0.1053,
2.572012,0.0415,-0.9737,-0.3225,-1.1513,-0.2417,-0.0283,-0.8649,0.4975,-0.1053,
2.573312,0.0415,-0.9737,-0.3225,-1.1513,-0.2417,-0.0283,-0.5741,0.3740,-0.0180,
2.574345,0.0415,-0.9737,-0.3225,-1.1696,-0.2991,0.1738,-0.5741,0.3740,-0.0180,
2.577425,0.0307,-0.9903,-0.3125,-1.1696,-0.2991,0.1738,-0.5741,0.3740,-0.0180,
2.582101,0.0129,-1.0071,-0.3113,-1.1696,-0.2991,0.1738,-0.5741,0.3740,-0.0180,
2.587515,-0.0015,-1.0320,-0.3044,-1.1696,-0.2991,0.1738,-0.5741,0.3740,-0.0180,
2.591791,-0.0128,-1.0577,-0.3027,-1.1696,-0.2991,0.1738,-0.5741,0.3740,-0.0180,
2.597120,-0.0252,-1.0848,-0.3015,-1.1696,-0.2991,0.1738,-0.5741,0.3740,-0.0180,
2.602627,-0.0353,-1.1127,-0.3003,-1.1696,-0.2991,0.1738,-0.5741,0.3740,-0.0180,
2.607031,-0.0367,-1.1329,-0.3000,-1.1696,-0.2991,0.1738,-0.5741,0.3740,-0.0180,
2.612836,-0.0367,-1.1329,-0.3000,-0.8086,-0.3328,-0.2072,-0.5741,0.3740,-0.0180,
2.614558,-0.0477,-1.1500,-0.2988,-0.8086,-0.3328,-0.2072,-0.5741,0.3740,-0.0180,
2.615726,-0.0477,-1.1500,-0.2988,-0.8086,-0.3328,-0.2072,-0.4185,0.6211,0.0012,
2.616786,-0.0458,-1.1593,-0.3000,-0.8086,-0.3328,-0.2072,-0.4185,0.6211,0.0012,
2.622278,-0.0375,-1.1544,-0.3078,-0.8086,-0.3328,-0.2072,-0.4185,0.6211,0.0012,
2.630518,-0.0440,-1.1442,-0.3254,-0.8086,-0.3328,-0.2072,-0.4185,0.6211,0.0012,
2.632427,-0.0448,-1.1329,-0.3252,-0.8086,-0.3328,-0.2072,-0.4185,0.6211,0.0012,
2.637520,-0.0409,-1.1168,-0.3271,-0.8086,-0.3328,-0.2072,-0.4185,0.6211,0.0012,
2.641613,-0.0377,-1.0973,-0.3315,-0.8086,-0.3328,-0.2072,-0.4185,0.6211,0.0012,
2.647092,-0.0370,-1.0753,-0.3267,-0.8086,-0.3328,-0.2072,-0.4185,0.6211,0.0012,
2.652526,-0.0433,-1.0565,-0.3227,-0.8086,-0.3328,-0.2072,-0.4185,0.6211,0.0012,
2.654004,-0.0433,-1.0565,-0.3227,-0.8086,-0.3328,-0.2072,-0.2182,0.9780,-0.0563,
2.655123,-0.0433,-1.0565,-0.3227,-0.9269,-0.3531,-0.1620,-0.2182,0.9780,-0.0563,
2.655995,-0.0443,-1.0320,-0.3183,-0.9269,-0.3531,-0.1620,-0.2182,0.9780,-0.0563,
2.660845,-0.0465,-1.0108,-0.3010,-0.9269,-0.3531,-0.1620,-0.2182,0.9780,-0.0563,
2.666425,-0.0543,-0.9881,-0.2859,-0.9269,-0.3531,-0.1620,-0.2182,0.9780,-0.0563,
2.670382,-0.0592,-0.9781,-0.2707,-0.9269,-0.3531,-0.1620,-0.2182,0.9780,-0.0563,
2.674923,-0.0629,-0.9693,-0.2578,-0.9269,-0.3531,-0.1620,-0.2182,0.9780,-0.0563,
2.680553,-0.0528,-0.9600,-0.2504,-0.9269,-0.3531,-0.1620,-0.2182,0.9780,-0.0563,
2.685647,-0.0467,-0.9561,-0.2465,-0.9269,-0.3531,-0.1620,-0.2182,0.9780,-0.0563,
2.690593,-0.0467,-0.9561,-0.2465,-1.6486,-1.1681,-0.0235,-0.2182,0.9780,-0.0563,
2.692209,-0.0409,-0.9546,-0.2341,-1.6486,-1.1681,-0.0235,-0.2182,0.9780,-0.0563,
2.693137,-0.0409,-0.9546,-0.2341,-1.6486,-1.1681,-0.0235,0.0321,1.1601,0.0023,
2.694738,-0.0304,-0.9585,-0.2236,-1.6486,-1.1681,-0.0235,0.0321,1.1601,0.0023,
2.699744,-0.0221,-0.9590,-0.2172,-1.6486,-1.1681,-0.0235,0.0321,1.1601,0.0023,
2.707266,-0.0157,-0.9671,-0.2182,-1.6486,-1.1681,-0.0235,0.0321,1.1601,0.0023,
2.710487,0.0055,-0.9705,-0.2187,-1.6486,-1.1681,-0.0235,0.0321,1.1601,0.0023,
2.715255,0.0234,-0.9759,-0.2216,-1.6486,-1.1681,-0.0235,0.0321,1.1601,0.0023,
2.720986,0.0358,-0.9827,-0.2218,-1.6486,-1.1681,-0.0235,0.0321,1.1601,0.0023,
2.725952,0.0525,-0.9886,-0.2299,-1.6486,-1.1681,-0.0235,0.0321,1.1601,0.0023,
2.730437,0.0693,-0.9944,-0.2463,-1.6486,-1.1681,-0.0235,0.0321,1.1601,0.0023,
2.731630,0.0693,-0.9944,-0.2463,-1.6486,-1.1681,-0.0235,0.2388,0.9950,0.1514,
2.732228,0.0693,-0.9944,-0.2463,-1.4665,0.1951,0.5660,0.2388,0.9950,0.1514,
2.736740,0.0827,-0.9978,-0.2546,-1.4665,0.1951,0.5660,0.2388,0.9950,0.1514,
2.742034,0.0854,-0.9998,-0.2651,-1.4665,0.1951,0.5660,0.2388,0.9950,0.1514,
2.745554,0.0852,-0.9971,-0.2778,-1.4665,0.1951,0.5660,0.2388,0.9950,0.1514,
2.752444,0.0896,-0.9961,-0.2873,-1.4665,0.1951,0.5660,0.2388,0.9950,0.1514,
2.756212,0.0940,-0.9974,-0.3003,-1.4665,0.1951,0.5660,0.2388,0.9950,0.1514,
2.760147,0.0915,-0.9934,-0.3110,-1.4665,0.1951,0.5660,0.2388,0.9950,0.1514,
2.766103,0.0889,-0.9856,-0.3232,-1.4665,0.1951,0.5660,0.2388,0.9950,0.1514,
2.771911,0.0977,-0.9744,-0.3308,-1.4665,0.1951,0.5660,0.2388,0.9950,0.1514,
2.774112,0.0977,-0.9744,-0.3308,-1.4665,0.1951,0.5660,0.5296,0.7990,0.3027,
2.775962,0.0977,-0.9744,-0.3308,-1.4039,0.2620,0.3142,0.5296,0.7990,0.3027,
2.777487,0.0994,-0.9612,-0.3350,-1.4039,0.2620,0.3142,0.5296,0.7990,0.3027,
2.780084,0.1003,-0.9485,-0.3398,-1.4039,0.2620,0.3142,0.5296,0.7990,0.3027,
2.785806,0.1077,-0.9353,-0.3416,-1.4039,0.2620,0.3142,0.5296,0.7990,0.3027,
2.793339,0.1062,-0.9209,-0.3381,-1.4039,0.2620,0.3142,0.5296,0.7990,0.3027,
2.795139,0.1106,-0.9133,-0.3315,-1.4039,0.2620,0.3142,0.5296,0.7990,0.3027,
2.798971,0.1086,-0.9074,-0.3249,-1.4039,0.2620,0.3142,0.5296,0.7990,0.3027,
2.803942,0.0999,-0.9004,-0.3154,-1.4039,0.2620,0.3142,0.5296,0.7990,0.3027,
2.808116,0.0847,-0.8930,-0.3076,-1.4039,0.2620,0.3142,0.5296,0.7990,0.3027,
2.809357,0.0847,-0.8930,-0.3076,-1.4039,0.2620,0.3142,0.7021,0.8214,0.3325,
2.810161,0.0847,-0.8930,-0.3076,-0.2452,0.2698,-0.6265,0.7021,0.8214,0.3325,
2.812882,0.0698,-0.8911,-0.2946,-0.2452,0.2698,-0.6265,0.7021,0.8214,0.3325,
2.818624,0.0608,-0.8845,-0.2890,-0.2452,0.2698,-0.6265,0.7021,0.8214,0.3325,
2.824433,0.0488,-0.8816,-0.2714,-0.2452,0.2698,-0.6265,0.7021,0.8214,0.3325,
2.829226,0.0358,-0.8808,-0.2560,-0.2452,0.2698,-0.6265,0.7021,0.8214,0.3325,
2.834675,0.0280,-0.8757,-0.2397,-0.2452,0.2698,-0.6265,0.7021,0.8214,0.3325,
2.839335,0.0187,-0.8679,-0.2218,-0.2452,0.2698,-0.6265,0.7021,0.8214,0.3325,
2.843984,0.0117,-0.8645,-0.2106,-0.2452,0.2698,-0.6265,0.7021,0.8214,0.3325,
2.849154,0.0068,-0.8613,-0.1974,-0.2452,0.2698,-0.6265,0.7021,0.8214,0.3325,
2.850166,0.0068,-0.8613,-0.1974,-0.2452,0.2698,-0.6265,0.6627,0.7894,0.2899,
2.850787,0.0068,-0.8613,-0.1974,-0.1960,0.3327,-0.8999,0.6627,0.7894,0.2899,
2.853326,0.0112,-0.8581,-0.1891,-0.1960,0.3327,-0.8999,0.6627,0.7894,0.2899,
2.857953,0.0180,-0.8608,-0.1867,-0.1960,0.3327,-0.8999,0.6627,0.7894,0.2899,
2.862992,0.0300,-0.8630,-0.1854,-0.1960,0.3327,-0.8999,0.6627,0.7894,0.2899,
2.868596,0.0390,-0.8686,-0.1857,-0.1960,0.3327,-0.8999,0.6627,0.7894,0.2899,
2.872261,0.0476,-0.8728,-0.1840,-0.1960,0.3327,-0.8999,0.6627,0.7894,0.2899,
2.877388,0.0537,-0.8762,-0.1852,-0.1960,0.3327,-0.8999,0.6627,0.7894,0.2899,
2.882124,0.0566,-0.8767,-0.1923,-0.1960,0.3327,-0.8999,0.6627,0.7894,0.2899,
2.887134,0.0578,-0.8764,-0.2040,-0.1960,0.3327,-0.8999,0.6627,0.7894,0.2899,
2.888050,0.0578,-0.8764,-0.2040,-0.5280,1.2798,-0.7666,0.6627,0.7894,0.2899,
2.889931,0.0578,-0.8764,-0.2040,-0.5280,1.2798,-0.7666,0.5786,0.8097,0.2462,
2.891777,0.0590,-0.8779,-0.2138,-0.5280,1.2798,-0.7666,0.5786,0.8097,0.2462,
2.896682,0.0593,-0.8794,-0.2250,-0.5280,1.2798,-0.7666,0.5786,0.8097,0.2462,
2.901810,0.0561,-0.8811,-0.2365,-0.5280,1.2798,-0.7666,0.5786,0.8097,0.2462,
2.908487,0.0473,-0.8823,-0.2504,-0.5280,1.2798,-0.7666,0.5786,0.8097,0.2462,
2.912682,0.0373,-0.8903,-0.2629,-0.5280,1.2798,-0.7666,0.5786,0.8097,0.2462,
2.918383,0.0336,-0.8960,-0.2761,-0.5280,1.2798,-0.7666,0.5786,0.8097,0.2462,
2.923157,0.0253,-0.9045,-0.2878,-0.5280,1.2798,-0.7666,0.5786,0.8097,0.2462,
2.928678,0.0241,-0.9148,-0.3034,-0.5280,1.2798,-0.7666,0.5786,0.8097,0.2462,
2.930086,0.0241,-0.9148,-0.3034,-0.5280,1.2798,-0.7666,0.5125,0.8405,0.1823,
2.930962,0.0241,-0.9148,-0.3034,-0.5753,1.3504,-0.4937,0.5125,0.8405,0.1823,
2.932691,0.0312,-0.9231,-0.3154,-0.5753,1.3504,-0.4937,0.5125,0.8405,0.1823,
2.939321,0.0395,-0.9307,-0.3274,-0.5753,1.3504,-0.4937,0.5125,0.8405,0.1823,
2.944278,0.0522,-0.9385,-0.3332,-0.5753,1.3504,-0.4937,0.5125,0.8405,0.1823,
2.948881,0.0627,-0.9570,-0.3298,-0.5753,1.3504,-0.4937,0.5125,0.8405,0.1823,
2.954262,0.0742,-0.9719,-0.3169,-0.5753,1.3504,-0.4937,0.5125,0.8405,0.1823,
2.962193,0.0808,-0.9942,-0.3025,-0.5753,1.3504,-0.4937,0.5125,0.8405,0.1823,
2.964613,0.0842,-1.0206,-0.2844,-0.5753,1.3504,-0.4937,0.5125,0.8405,0.1823,
2.970172,0.0867,-1.0352,-0.2675,-0.5753,1.3504,-0.4937,0.5125,0.8405,0.1823,
2.971778,0.0867,-1.0352,-0.2675,-0.5753,1.3504,-0.4937,0.2473,0.7180,0.1418,
2.973340,0.0867,-1.0352,-0.2675,-0.5506,1.3408,-0.6065,0.2473,0.7180,0.1418,
2.974543,0.0845,-1.0465,-0.2560,-0.5506,1.3408,-0.6065,0.2473,0.7180,0.1418,
2.977943,0.0818,-1.0570,-0.2497,-0.5506,1.3408,-0.6065,0.2473,0.7180,0.1418,
2.983471,0.0774,-1.0611,-0.2485,-0.5506,1.3408,-0.6065,0.2473,0.7180,0.1418,
2.988443,0.0698,-1.0579,-0.2551,-0.5506,1.3408,-0.6065,0.2473,0.7180,0.1418,
2.993826,0.0593,-1.0487,-0.2653,-0.5506,1.3408,-0.6065,0.2473,0.7180,0.1418,
2.997129,0.0490,-1.0384,-0.2827,-0.5506,1.3408,-0.6065,0.2473,0.7180,0.1418,
3.003950,0.0395,-1.0281,-0.2988,-0.5506,1.3408,-0.6065,0.2473,0.7180,0.1418,
3.010040,0.0349,-1.0110,-0.3042,-0.5506,1.3408,-0.6065,0.2473,0.7180,0.1418,
3.011882,0.0349,-1.0110,-0.3042,-0.5506,1.3408,-0.6065,-0.2651,0.5966,0.0683,
3.012946,0.0349,-1.0110,-0.3042,-0.3932,0.3003,-1.2774,-0.2651,0.5966,0.0683,
3.013832,0.0295,-0.9930,-0.3139,-0.3932,0.3003,-1.2774,-0.2651,0.5966,0.0683,
3.019722,0.0258,-0.9722,-0.3164,-0.3932,0.3003,-1.2774,-0.2651,0.5966,0.0683,
3.022927,0.0280,-0.9514,-0.3159,-0.3932,0.3003,-1.2774,-0.2651,0.5966,0.0683,
3.028045,0.0327,-0.9333,-0.3000,-0.3932,0.3003,-1.2774,-0.2651,0.5966,0.0683,
3.033110,0.0363,-0.9138,-0.2846,-0.3932,0.3003,-1.2774,-0.2651,0.5966,0.0683,
3.037972,0.0419,-0.9009,-0.2692,-0.3932,0.3003,-1.2774,-0.2651,0.5966,0.0683,
3.043035,0.0498,-0.8855,-0.2538,-0.3932,0.3003,-1.2774,-0.2651,0.5966,0.0683,
3.047782,0.0525,-0.8754,-0.2380,-0.3932,0.3003,-1.2774,-0.2651,0.5966,0.0683,
3.049365,0.0525,-0.8754,-0.2380,-0.3932,0.3003,-1.2774,-0.6838,0.6318,-0.1224,
3.050268,0.0525,-0.8754,-0.2380,-0.6623,0.3504,-0.9213,-0.6838,0.6318,-0.1224,
3.051333,0.0566,-0.8684,-0.2199,-0.6623,0.3504,-0.9213,-0.6838,0.6318,-0.1224,
3.057283,0.0632,-0.8596,-0.2067,-0.6623,0.3504,-0.9213,-0.6838,0.6318,-0.1224,
3.062740,0.0644,-0.8561,-0.1977,-0.6623,0.3504,-0.9213,-0.6838,0.6318,-0.1224,
3.067431,0.0661,-0.8586,-0.1933,-0.6623,0.3504,-0.9213,-0.6838,0.6318,-0.1224,
3.073237,0.0710,-0.8569,-0.1891,-0.6623,0.3504,-0.9213,-0.6838,0.6318,-0.1224,
3.077546,0.0698,-0.8583,-0.1854,-0.6623,0.3504,-0.9213,-0.6838,0.6318,-0.1224,
3.081975,0.0703,-0.8552,-0.1791,-0.6623,0.3504,-0.9213,-0.6838,0.6318,-0.1224,
3.088068,0.0830,-0.8544,-0.1759,-0.6623,0.3504,-0.9213,-0.6838,0.6318,-0.1224,
3.090723,0.0830,-0.8544,-0.1759,-0.6623,0.3504,-0.9213,-1.0705,0.7095,-0.1724,
3.091788,0.0830,-0.8544,-0.1759,-0.7702,0.2499,-0.5259,-1.0705,0.7095,-0.1724,
3.092694,0.0952,-0.8542,-0.1830,-0.7702,0.2499,-0.5259,-1.0705,0.7095,-0.1724,
3.095457,0.1030,-0.8549,-0.1886,-0.7702,0.2499,-0.5259,-1.0705,0.7095,-0.1724,
3.104223,0.1111,-0.8554,-0.1952,-0.7702,0.2499,-0.5259,-1.0705,0.7095,-0.1724,
3.105742,0.1177,-0.8564,-0.2011,-0.7702,0.2499,-0.5259,-1.0705,0.7095,-0.1724,
3.112067,0.1201,-0.8603,-0.2065,-0.7702,0.2499,-0.5259,-1.0705,0.7095,-0.1724,
3.117570,0.1253,-0.8635,-0.2111,-0.7702,0.2499,-0.5259,-1.0705,0.7095,-0.1724,
3.121937,0.1199,-0.8715,-0.2223,-0.7702,0.2499,-0.5259,-1.0705,0.7095,-0.1724,
3.127015,0.1240,-0.8840,-0.2372,-0.7702,0.2499,-0.5259,-1.0705,0.7095,-0.1724,
3.128601,0.1240,-0.8840,-0.2372,-0.7702,0.2499,-0.5259,-1.1269,0.6030,-0.1075,
3.129780,0.1240,-0.8840,-0.2372,-0.4515,1.2103,0.7486,-1.1269,0.6030,-0.1075,
3.131307,0.1265,-0.8940,-0.2573,-0.4515,1.2103,0.7486,-1.1269,0.6030,-0.1075,
3.137318,0.1348,-0.9060,-0.2800,-0.4515,1.2103,0.7486,-1.1269,0.6030,-0.1075,
3.140760,0.1441,-0.9224,-0.3034,-0.4515,1.2103,0.7486,-1.1269,0.6030,-0.1075,
3.146201,0.1463,-0.9443,-0.3303,-0.4515,1.2103,0.7486,-1.1269,0.6030,-0.1075,
3.150338,0.1553,-0.9548,-0.3638,-0.4515,1.2103,0.7486,-1.1269,0.6030,-0.1075,
3.155130,0.1631,-0.9639,-0.3894,-0.4515,1.2103,0.7486,-1.1269,0.6030,-0.1075,
3.160425,0.1734,-0.9729,-0.4175,-0.4515,1.2103,0.7486,-1.1269,0.6030,-0.1075,
3.165190,0.1832,-0.9732,-0.4354,-0.4515,1.2103,0.7486,-1.1269,0.6030,-0.1075,
3.166542,0.1832,-0.9732,-0.4354,-0.4515,1.2103,0.7486,-0.9245,0.2152,-0.1000,
3.167339,0.1832,-0.9732,-0.4354,-0.5024,1.0788,1.0653,-0.9245,0.2152,-0.1000,
3.171860,0.1922,-0.9712,-0.4388,-0.5024,1.0788,1.0653,-0.9245,0.2152,-0.1000,
3.176734,0.2071,-0.9634,-0.4420,-0.5024,1.0788,1.0653,-0.9245,0.2152,-0.1000,
3.181502,0.2200,-0.9514,-0.4317,-0.5024,1.0788,1.0653,-0.9245,0.2152,-0.1000,
3.187165,0.2257,-0.9544,-0.4112,-0.5024,1.0788,1.0653,-0.9245,0.2152,-0.1000,
3.191429,0.2222,-0.9566,-0.3853,-0.5024,1.0788,1.0653,-0.9245,0.2152,-0.1000,
3.197026,0.2222,-0.9661,-0.3772,-0.5024,1.0788,1.0653,-0.9245,0.2152,-0.1000,
3.201257,0.1939,-0.9927,-0.3740,-0.5024,1.0788,1.0653,-0.9245,0.2152,-0.1000,
3.206809,0.1939,-0.9927,-0.3740,0.1448,0.2545,0.0299,-0.9245,0.2152,-0.1000,
3.207827,0.1653,-1.0206,-0.3792,0.1448,0.2545,0.0299,-0.9245,0.2152,-0.1000,
3.208917,0.1653,-1.0206,-0.3792,0.1448,0.2545,0.0299,-0.8563,-0.1395,-0.1298,
3.211818,0.1470,-1.0428,-0.4041,0.1448,0.2545,0.0299,-0.8563,-0.1395,-0.1298,
3.216371,0.1480,-1.0511,-0.4395,0.1448,0.2545,0.0299,-0.8563,-0.1395,-0.1298,
3.220876,0.1321,-1.0770,-0.4510,0.1448,0.2545,0.0299,-0.8563,-0.1395,-0.1298,
3.226085,0.1020,-1.1161,-0.4481,0.1448,0.2545,0.0299,-0.8563,-0.1395,-0.1298,
3.231066,0.1047,-1.1300,-0.4996,0.1448,0.2545,0.0299,-0.8563,-0.1395,-0.1298,
3.237115,0.1121,-1.1298,-0.5358,0.1448,0.2545,0.0299,-0.8563,-0.1395,-0.1298,
3.240659,0.1206,-1.1261,-0.5565,0.1448,0.2545,0.0299,-0.8563,-0.1395,-0.1298,
3.248666,0.1206,-1.1261,-0.5565,0.2145,-0.9385,-0.6320,-0.8563,-0.1395,-0.1298,
3.250224,0.1267,-1.1224,-0.5766,0.2145,-0.9385,-0.6320,-0.8563,-0.1395,-0.1298,
3.251094,0.1267,-1.1224,-0.5766,0.2145,-0.9385,-0.6320,-0.9256,-0.2343,-0.1341,
3.251996,0.1333,-1.1144,-0.5766,0.2145,-0.9385,-0.6320,-0.9256,-0.2343,-0.1341,
3.256178,0.1394,-1.0941,-0.5617,0.2145,-0.9385,-0.6320,-0.9256,-0.2343,-0.1341,
3.260925,0.1480,-1.0724,-0.5460,0.2145,-0.9385,-0.6320,-0.9256,-0.2343,-0.1341,
3.265481,0.1521,-1.0457,-0.5309,0.2145,-0.9385,-0.6320,-0.9256,-0.2343,-0.1341,
3.270770,0.1519,-1.0220,-0.5192,0.2145,-0.9385,-0.6320,-0.9256,-0.2343,-0.1341,
3.275872,0.1499,-1.0032,-0.5065,0.2145,-0.9385,-0.6320,-0.9256,-0.2343,-0.1341,
3.279531,0.1319,-0.9822,-0.4823,0.2145,-0.9385,-0.6320,-0.9256,-0.2343,-0.1341,
3.286993,0.1082,-0.9617,-0.4534,0.2145,-0.9385,-0.6320,-0.9256,-0.2343,-0.1341,
3.288381,0.1082,-0.9617,-0.4534,0.2145,-0.9385,-0.6320,-0.8840,0.0107,-0.1288,
3.289007,0.1082,-0.9617,-0.4534,0.1625,-1.0580,-0.3048,-0.8840,0.0107,-0.1288,
3.289990,0.0918,-0.9460,-0.4339,0.1625,-1.0580,-0.3048,-0.8840,0.0107,-0.1288,
3.294441,0.0744,-0.9329,-0.4173,0.1625,-1.0580,-0.3048,-0.8840,0.0107,-0.1288,
3.298386,0.0652,-0.9260,-0.4048,0.1625,-1.0580,-0.3048,-0.8840,0.0107,-0.1288,
3.303911,0.0525,-0.9187,-0.3911,0.1625,-1.0580,-0.3048,-0.8840,0.0107,-0.1288,
3.309213,0.0476,-0.9136,-0.3782,0.1625,-1.0580,-0.3048,-0.8840,0.0107,-0.1288,
3.315380,0.0459,-0.9131,-0.3687,0.1625,-1.0580,-0.3048,-0.8840,0.0107,-0.1288,
3.320740,0.0427,-0.9167,-0.3618,0.1625,-1.0580,-0.3048,-0.8840,0.0107,-0.1288,
3.324972,0.0400,-0.9206,-0.3611,0.1625,-1.0580,-0.3048,-0.8840,0.0107,-0.1288,
3.326426,0.0400,-0.9206,-0.3611,0.1625,-1.0580,-0.3048,-0.6071,0.1950,-0.0638,
3.327415,0.0400,-0.9206,-0.3611,-0.3310,-0.8619,-0.6182,-0.6071,0.1950,-0.0638,
3.328576,0.0434,-0.9265,-0.3621,-0.3310,-0.8619,-0.6182,-0.6071,0.1950,-0.0638,
3.334648,0.0459,-0.9329,-0.3638,-0.3310,-0.8619,-0.6182,-0.6071,0.1950,-0.0638,
3.338725,0.0507,-0.9434,-0.3750,-0.3310,-0.8619,-0.6182,-0.6071,0.1950,-0.0638,
3.343574,0.0539,-0.9561,-0.3860,-0.3310,-0.8619,-0.6182,-0.6071,0.1950,-0.0638,
3.349861,0.0542,-0.9641,-0.4026,-0.3310,-0.8619,-0.6182,-0.6071,0.1950,-0.0638,
3.356124,0.0661,-0.9788,-0.4129,-0.3310,-0.8619,-0.6182,-0.6071,0.1950,-0.0638,
3.359809,0.0740,-0.9922,-0.4283,-0.3310,-0.8619,-0.6182,-0.6071,0.1950,-0.0638,
3.365097,0.0854,-1.0049,-0.4434,-0.3310,-0.8619,-0.6182,-0.6071,0.1950,-0.0638,
3.366524,0.0854,-1.0049,-0.4434,-0.3310,-0.8619,-0.6182,-0.0904,0.0874,0.1631,
3.367149,0.0854,-1.0049,-0.4434,-0.2817,-0.8506,-0.5793,-0.0904,0.0874,0.1631,
3.370770,0.0974,-1.0169,-0.4586,-0.2817,-0.8506,-0.5793,-0.0904,0.0874,0.1631,
3.374284,0.1047,-1.0296,-0.4742,-0.2817,-0.8506,-0.5793,-0.0904,0.0874,0.1631,
3.379912,0.1140,-1.0286,-0.4859,-0.2817,-0.8506,-0.5793,-0.0904,0.0874,0.1631,
3.384170,0.1218,-1.0298,-0.4994,-0.2817,-0.8506,-0.5793,-0.0904,0.0874,0.1631,
3.389508,0.1323,-1.0208,-0.5067,-0.2817,-0.8506,-0.5793,-0.0904,0.0874,0.1631,
3.394538,0.1348,-1.0059,-0.5038,-0.2817,-0.8506,-0.5793,-0.0904,0.0874,0.1631,
3.399276,0.1328,-0.9954,-0.4972,-0.2817,-0.8506,-0.5793,-0.0904,0.0874,0.1631,
3.404339,0.1306,-0.9812,-0.4884,-0.2817,-0.8506,-0.5793,-0.0904,0.0874,0.1631,
3.406248,0.1306,-0.9812,-0.4884,-0.2817,-0.8506,-0.5793,0.4103,-0.2002,0.2856,
3.407235,0.1306,-0.9812,-0.4884,-0.7182,-0.1891,0.2568,0.4103,-0.2002,0.2856,
3.408745,0.1279,-0.9629,-0.4703,-0.7182,-0.1891,0.2568,0.4103,-0.2002,0.2856,
3.414421,0.1191,-0.9512,-0.4525,-0.7182,-0.1891,0.2568,0.4103,-0.2002,0.2856,
3.420423,0.1079,-0.9387,-0.4373,-0.7182,-0.1891,0.2568,0.4103,-0.2002,0.2856,
3.424270,0.0981,-0.9282,-0.4173,-0.7182,-0.1891,0.2568,0.4103,-0.2002,0.2856,
3.429235,0.0864,-0.9180,-0.3970,-0.7182,-0.1891,0.2568,0.4103,-0.2002,0.2856,
3.434050,0.0793,-0.9052,-0.3858,-0.7182,-0.1891,0.2568,0.4103,-0.2002,0.2856,
3.439081,0.0769,-0.8945,-0.3750,-0.7182,-0.1891,0.2568,0.4103,-0.2002,0.2856,
3.444039,0.0744,-0.8864,-0.3662,-0.7182,-0.1891,0.2568,0.4103,-0.2002,0.2856,
3.445533,0.0744,-0.8864,-0.3662,-0.7182,-0.1891,0.2568,0.7064,-0.2428,0.2792,
3.446323,0.0744,-0.8864,-0.3662,-0.0177,-0.2967,-0.6648,0.7064,-0.2428,0.2792,
3.447515,0.0622,-0.8791,-0.3648,-0.0177,-0.2967,-0.6648,0.7064,-0.2428,0.2792,
3.453707,0.0708,-0.8637,-0.3616,-0.0177,-0.2967,-0.6648,0.7064,-0.2428,0.2792,
3.458711,0.0749,-0.8488,-0.3577,-0.0177,-0.2967,-0.6648,0.7064,-0.2428,0.2792,
3.463795,0.0720,-0.8371,-0.3533,-0.0177,-0.2967,-0.6648,0.7064,-0.2428,0.2792,
3.471990,0.0759,-0.8241,-0.3518,-0.0177,-0.2967,-0.6648,0.7064,-0.2428,0.2792,
3.474846,0.0727,-0.8117,-0.3543,-0.0177,-0.2967,-0.6648,0.7064,-0.2428,0.2792,
3.479004,0.0722,-0.8017,-0.3596,-0.0177,-0.2967,-0.6648,0.7064,-0.2428,0.2792,
3.482932,0.0722,-0.7841,-0.3499,-0.0177,-0.2967,-0.6648,0.7064,-0.2428,0.2792,
3.484505,0.0722,-0.7841,-0.3499,-0.0177,-0.2967,-0.6648,0.9780,-0.2833,0.2366,
3.485849,0.0722,-0.7841,-0.3499,0.1095,-0.1406,-0.9962,0.9780,-0.2833,0.2366,
3.489534,0.0764,-0.7684,-0.3452,0.1095,-0.1406,-0.9962,0.9780,-0.2833,0.2366,
3.492818,0.0749,-0.7562,-0.3357,0.1095,-0.1406,-0.9962,0.9780,-0.2833,0.2366,
3.496956,0.0654,-0.7447,-0.3237,0.1095,-0.1406,-0.9962,0.9780,-0.2833,0.2366,
3.504166,0.0515,-0.7381,-0.3183,0.1095,-0.1406,-0.9962,0.9780,-0.2833,0.2366,
3.507118,0.0466,-0.7364,-0.3169,0.1095,-0.1406,-0.9962,0.9780,-0.2833,0.2366,
3.512318,0.0317,-0.7293,-0.3210,0.1095,-0.1406,-0.9962,0.9780,-0.2833,0.2366,
3.518674,0.0229,-0.7225,-0.3230,0.1095,-0.1406,-0.9962,0.9780,-0.2833,0.2366,
3.523304,0.0178,-0.7162,-0.3303,0.1095,-0.1406,-0.9962,0.9780,-0.2833,0.2366,
3.524628,0.0178,-0.7162,-0.3303,0.1095,-0.1406,-0.9962,1.2582,-0.3238,0.1685,
3.525730,0.0178,-0.7162,-0.3303,-0.1947,1.5063,-0.3833,1.2582,-0.3238,0.1685,
3.528727,0.0085,-0.7223,-0.3601,-0.1947,1.5063,-0.3833,1.2582,-0.3238,0.1685,
3.532675,0.0065,-0.7035,-0.3591,-0.1947,1.5063,-0.3833,1.2582,-0.3238,0.1685,
3.538364,0.0002,-0.6873,-0.3572,-0.1947,1.5063,-0.3833,1.2582,-0.3238,0.1685,
3.543180,-0.0155,-0.6922,-0.3503,-0.1947,1.5063,-0.3833,1.2582,-0.3238,0.1685,
3.548431,-0.0174,-0.7076,-0.3523,-0.1947,1.5063,-0.3833,1.2582,-0.3238,0.1685,
3.554118,-0.0108,-0.7105,-0.3430,-0.1947,1.5063,-0.3833,1.2582,-0.3238,0.1685,
3.558021,-0.0018,-0.7174,-0.3218,-0.1947,1.5063,-0.3833,1.2582,-0.3238,0.1685,
3.564059,0.0048,-0.7196,-0.2995,-0.1947,1.5063,-0.3833,1.2582,-0.3238,0.1685,
3.565562,0.0048,-0.7196,-0.2995,-0.1947,1.5063,-0.3833,1.3477,-0.3195,0.0609,
3.566546,0.0048,-0.7196,-0.2995,-0.7224,2.6640,-0.6899,1.3477,-0.3195,0.0609,
3.567624,0.0222,-0.7313,-0.2959,-0.7224,2.6640,-0.6899,1.3477,-0.3195,0.0609,
3.572859,0.0493,-0.7508,-0.2954,-0.7224,2.6640,-0.6899,1.3477,-0.3195,0.0609,
3.578722,0.0507,-0.7694,-0.2929,-0.7224,2.6640,-0.6899,1.3477,-0.3195,0.0609,
3.582698,0.0752,-0.7956,-0.3025,-0.7224,2.6640,-0.6899,1.3477,-0.3195,0.0609,
3.588656,0.0969,-0.8149,-0.3113,-0.7224,2.6640,-0.6899,1.3477,-0.3195,0.0609,
3.590741,0.0918,-0.8410,-0.3271,-0.7224,2.6640,-0.6899,1.3477,-0.3195,0.0609,
3.597163,0.0801,-0.9057,-0.3501,-0.7224,2.6640,-0.6899,1.3477,-0.3195,0.0609,
3.603690,0.0955,-0.9558,-0.3662,-0.7224,2.6640,-0.6899,1.3477,-0.3195,0.0609,
3.606050,0.0955,-0.9558,-0.3662,-0.7224,2.6640,-0.6899,1.2220,-0.6167,0.0076,
3.607499,0.0955,-0.9558,-0.3662,-0.6501,2.7283,-1.1212,1.2220,-0.6167,0.0076,
3.608990,0.1150,-0.9817,-0.3711,-0.6501,2.7283,-1.1212,1.2220,-0.6167,0.0076,
3.611927,0.1191,-1.0157,-0.3794,-0.6501,2.7283,-1.1212,1.2220,-0.6167,0.0076,
3.617076,0.1152,-1.0672,-0.3828,-0.6501,2.7283,-1.1212,1.2220,-0.6167,0.0076,
3.622246,0.1233,-1.1222,-0.4090,-0.6501,2.7283,-1.1212,1.2220,-0.6167,0.0076,
3.627076,0.1020,-1.1862,-0.4168,-0.6501,2.7283,-1.1212,1.2220,-0.6167,0.0076,
3.632159,0.0994,-1.2341,-0.4019,-0.6501,2.7283,-1.1212,1.2220,-0.6167,0.0076,
3.637422,0.1160,-1.2563,-0.3672,-0.6501,2.7283,-1.1212,1.2220,-0.6167,0.0076,
3.641815,0.0981,-1.2768,-0.3235,-0.6501,2.7283,-1.1212,1.2220,-0.6167,0.0076,
3.643128,0.0981,-1.2768,-0.3235,-0.6501,2.7283,-1.1212,1.0270,-0.8649,-0.1032,
3.644114,0.0981,-1.2768,-0.3235,0.1221,0.8049,-1.5766,1.0270,-0.8649,-0.1032,
3.646687,0.0561,-1.3069,-0.3188,0.1221,0.8049,-1.5766,1.0270,-0.8649,-0.1032,
3.654374,0.0456,-1.3196,-0.3552,0.1221,0.8049,-1.5766,1.0270,-0.8649,-0.1032,
3.656955,0.0148,-1.3172,-0.3657,0.1221,0.8049,-1.5766,1.0270,-0.8649,-0.1032,
3.662151,-0.0221,-1.3120,-0.3784,0.1221,0.8049,-1.5766,1.0270,-0.8649,-0.1032,
3.666669,-0.0387,-1.2842,-0.3750,0.1221,0.8049,-1.5766,1.0270,-0.8649,-0.1032,
3.671686,-0.0455,-1.2294,-0.3569,0.1221,0.8049,-1.5766,1.0270,-0.8649,-0.1032,
3.680537,-0.0418,-1.1657,-0.3401,0.1221,0.8049,-1.5766,1.0270,-0.8649,-0.1032,
3.682209,-0.0294,-1.0909,-0.3144,0.1221,0.8049,-1.5766,1.0270,-0.8649,-0.1032,
3.682985,-0.0294,-1.0909,-0.3144,0.1221,0.8049,-1.5766,0.6233,-0.7552,-0.3759,
3.683877,-0.0294,-1.0909,-0.3144,0.0261,0.8205,-1.7639,0.6233,-0.7552,-0.3759,
3.685436,-0.0108,-1.0250,-0.2675,0.0261,0.8205,-1.7639,0.6233,-0.7552,-0.3759,
3.690621,0.0051,-0.9612,-0.2057,0.0261,0.8205,-1.7639,0.6233,-0.7552,-0.3759,
3.697121,0.0241,-0.9109,-0.1136,0.0261,0.8205,-1.7639,0.6233,-0.7552,-0.3759,
3.700100,0.0595,-0.8715,-0.0117,0.0261,0.8205,-1.7639,0.6233,-0.7552,-0.3759,
3.705073,0.0889,-0.8390,0.0848,0.0261,0.8205,-1.7639,0.6233,-0.7552,-0.3759,
3.710216,0.1089,-0.8168,0.1634,0.0261,0.8205,-1.7639,0.6233,-0.7552,-0.3759,
3.715011,0.1389,-0.8048,0.2084,0.0261,0.8205,-1.7639,0.6233,-0.7552,-0.3759,
3.721491,0.1592,-0.8097,0.2269,0.0261,0.8205,-1.7639,0.6233,-0.7552,-0.3759,
3.723216,0.1592,-0.8097,0.2269,0.0261,0.8205,-1.7639,0.0097,-0.6050,-0.4622,
3.724159,0.1592,-0.8097,0.2269,-0.7717,-2.0547,-1.6194,0.0097,-0.6050,-0.4622,
3.725410,0.1771,-0.8261,0.2025,-0.7717,-2.0547,-1.6194,0.0097,-0.6050,-0.4622,
3.730589,0.1785,-0.8405,0.1163,-0.7717,-2.0547,-1.6194,0.0097,-0.6050,-0.4622,
3.736218,0.1631,-0.8542,0.0093,-0.7717,-2.0547,-1.6194,0.0097,-0.6050,-0.4622,
3.741172,0.1331,-0.8659,-0.0936,-0.7717,-2.0547,-1.6194,0.0097,-0.6050,-0.4622,
3.747615,0.0933,-0.8674,-0.1664,-0.7717,-2.0547,-1.6194,0.0097,-0.6050,-0.4622,
3.750080,0.0527,-0.8569,-0.2084,-0.7717,-2.0547,-1.6194,0.0097,-0.6050,-0.4622,
3.756592,0.0253,-0.8452,-0.2209,-0.7717,-2.0547,-1.6194,0.0097,-0.6050,-0.4622,
3.761112,0.0109,-0.8356,-0.1947,-0.7717,-2.0547,-1.6194,0.0097,-0.6050,-0.4622,
3.762846,0.0109,-0.8356,-0.1947,-0.7717,-2.0547,-1.6194,-0.2619,-0.4165,-0.4153,
3.763976,0.0109,-0.8356,-0.1947,-0.0331,1.4805,1.9091,-0.2619,-0.4165,-0.4153,
3.765178,0.0048,-0.8322,-0.1415,-0.0331,1.4805,1.9091,-0.2619,-0.4165,-0.4153,
3.772133,0.0168,-0.8315,-0.0841,-0.0331,1.4805,1.9091,-0.2619,-0.4165,-0.4153,
3.774146,0.0422,-0.8408,-0.0328,-0.0331,1.4805,1.9091,-0.2619,-0.4165,-0.4153,
3.783549,0.0779,-0.8618,0.0032,-0.0331,1.4805,1.9091,-0.2619,-0.4165,-0.4153,
3.785008,0.1191,-0.8881,0.0256,-0.0331,1.4805,1.9091,-0.2619,-0.4165,-0.4153,
3.791159,0.1634,-0.9250,0.0261,-0.0331,1.4805,1.9091,-0.2619,-0.4165,-0.4153,
3.795661,0.1973,-0.9702,0.0112,-0.0331,1.4805,1.9091,-0.2619,-0.4165,-0.4153,
3.800532,0.2376,-1.0093,-0.0215,-0.0331,1.4805,1.9091,-0.2619,-0.4165,-0.4153,
3.802150,0.2376,-1.0093,-0.0215,-0.0331,1.4805,1.9091,-0.0936,-0.4921,-0.4441,
3.802964,0.2376,-1.0093,-0.0215,-0.1670,1.4284,1.9340,-0.0936,-0.4921,-0.4441,
3.806723,0.2753,-1.0401,-0.0611,-0.1670,1.4284,1.9340,-0.0936,-0.4921,-0.4441,
3.813174,0.3126,-1.0687,-0.1043,-0.1670,1.4284,1.9340,-0.0936,-0.4921,-0.4441,
3.815165,0.3500,-1.0926,-0.1522,-0.1670,1.4284,1.9340,-0.0936,-0.4921,-0.4441,
3.819562,0.3850,-1.0965,-0.2011,-0.1670,1.4284,1.9340,-0.0936,-0.4921,-0.4441,
3.824938,0.4109,-1.0865,-0.2343,-0.1670,1.4284,1.9340,-0.0936,-0.4921,-0.4441,
3.830299,0.4089,-1.0682,-0.2360,-0.1670,1.4284,1.9340,-0.0936,-0.4921,-0.4441,
3.837503,0.3928,-1.0367,-0.2023,-0.1670,1.4284,1.9340,-0.0936,-0.4921,-0.4441,
3.839971,0.3759,-0.9954,-0.1427,-0.1670,1.4284,1.9340,-0.0936,-0.4921,-0.4441,
3.840733,0.3759,-0.9954,-0.1427,-0.1670,1.4284,1.9340,-0.2172,-0.4069,-0.4057,
3.841278,0.3759,-0.9954,-0.1427,0.2970,0.4171,1.1708,-0.2172,-0.4069,-0.4057,
3.845465,0.3285,-0.9561,-0.0750,0.2970,0.4171,1.1708,-0.2172,-0.4069,-0.4057,
3.849997,0.2753,-0.9233,-0.0205,0.2970,0.4171,1.1708,-0.2172,-0.4069,-0.4057,
3.855117,0.2220,-0.8923,0.0098,0.2970,0.4171,1.1708,-0.2172,-0.4069,-0.4057,
3.863103,0.1697,-0.8569,0.0085,0.2970,0.4171,1.1708,-0.2172,-0.4069,-0.4057,
3.864477,0.1140,-0.8356,-0.0154,0.2970,0.4171,1.1708,-0.2172,-0.4069,-0.4057,
3.871646,0.0620,-0.8302,-0.0701,0.2970,0.4171,1.1708,-0.2172,-0.4069,-0.4057,
3.874393,0.0156,-0.8339,-0.1481,0.2970,0.4171,1.1708,-0.2172,-0.4069,-0.4057,
3.879983,-0.0177,-0.8488,-0.2316,0.2970,0.4171,1.1708,-0.2172,-0.4069,-0.4057,
3.881019,-0.0177,-0.8488,-0.2316,0.2970,0.4171,1.1708,-0.3535,0.3399,-0.6720,
3.881701,-0.0177,-0.8488,-0.2316,0.0136,0.3443,1.2635,-0.3535,0.3399,-0.6720,
3.884168,-0.0184,-0.8676,-0.2839,0.0136,0.3443,1.2635,-0.3535,0.3399,-0.6720,
3.888700,-0.0023,-0.8989,-0.3000,0.0136,0.3443,1.2635,-0.3535,0.3399,-0.6720,
3.897392,0.0187,-0.9324,-0.2800,0.0136,0.3443,1.2635,-0.3535,0.3399,-0.6720,
3.898957,0.0417,-0.9675,-0.2397,0.0136,0.3443,1.2635,-0.3535,0.3399,-0.6720,
3.905028,0.0698,-0.9988,-0.2057,0.0136,0.3443,1.2635,-0.3535,0.3399,-0.6720,
3.908513,0.1033,-1.0296,-0.1715,0.0136,0.3443,1.2635,-0.3535,0.3399,-0.6720,
3.913330,0.1441,-1.0555,-0.1400,0.0136,0.3443,1.2635,-0.3535,0.3399,-0.6720,
3.918485,0.1788,-1.0838,-0.1097,0.0136,0.3443,1.2635,-0.3535,0.3399,-0.6720,
3.919848,0.1788,-1.0838,-0.1097,0.0136,0.3443,1.2635,-0.4420,0.0096,-0.7040,
3.920661,0.1788,-1.0838,-0.1097,0.1553,0.4480,0.8772,-0.4420,0.0096,-0.7040,
3.925207,0.2164,-1.1134,-0.0977,0.1553,0.4480,0.8772,-0.4420,0.0096,-0.7040,
3.931610,0.2455,-1.1496,-0.1271,0.1553,0.4480,0.8772,-0.4420,0.0096,-0.7040,
3.934413,0.2616,-1.1777,-0.1854,0.1553,0.4480,0.8772,-0.4420,0.0096,-0.7040,
3.940203,0.2655,-1.1979,-0.2377,0.1553,0.4480,0.8772,-0.4420,0.0096,-0.7040,
3.944175,0.2616,-1.2082,-0.2560,0.1553,0.4480,0.8772,-0.4420,0.0096,-0.7040,
3.949604,0.2540,-1.2055,-0.2419,0.1553,0.4480,0.8772,-0.4420,0.0096,-0.7040,
3.955513,0.2491,-1.1950,-0.2001,0.1553,0.4480,0.8772,-0.4420,0.0096,-0.7040,
3.959723,0.2574,-1.1698,-0.1498,0.1553,0.4480,0.8772,-0.4420,0.0096,-0.7040,
3.961214,0.2574,-1.1698,-0.1498,0.1553,0.4480,0.8772,-0.3674,-0.1065,-0.3450,
3.962593,0.2574,-1.1698,-0.1498,-0.4704,-1.0903,0.3018,-0.3674,-0.1065,-0.3450,
3.964273,0.2753,-1.1430,-0.1078,-0.4704,-1.0903,0.3018,-0.3674,-0.1065,-0.3450,
3.969280,0.2997,-1.1200,-0.0872,-0.4704,-1.0903,0.3018,-0.3674,-0.1065,-0.3450,
3.974018,0.3207,-1.1046,-0.0867,-0.4704,-1.0903,0.3018,-0.3674,-0.1065,-0.3450,
3.979272,0.3385,-1.0973,-0.0855,-0.4704,-1.0903,0.3018,-0.3674,-0.1065,-0.3450,
3.983873,0.3517,-1.1005,-0.0926,-0.4704,-1.0903,0.3018,-0.3674,-0.1065,-0.3450,
3.989539,0.3698,-1.1112,-0.1185,-0.4704,-1.0903,0.3018,-0.3674,-0.1065,-0.3450,
3.997629,0.3762,-1.1212,-0.1466,-0.4704,-1.0903,0.3018,-0.3674,-0.1065,-0.3450,
3.999195,0.3759,-1.1278,-0.1713,-0.4704,-1.0903,0.3018,-0.3674,-0.1065,-0.3450,
4.000191,0.3759,-1.1278,-0.1713,-0.4704,-1.0903,0.3018,-0.0894,-0.0500,-0.2012,
4.001079,0.3759,-1.1278,-0.1713,-0.5323,-1.0962,0.3337,-0.0894,-0.0500,-0.2012,
4.003122,0.3652,-1.1261,-0.1925,-0.5323,-1.0962,0.3337,-0.0894,-0.0500,-0.2012,
4.009134,0.3534,-1.1271,-0.1974,-0.5323,-1.0962,0.3337,-0.0894,-0.0500,-0.2012,
4.014168,0.3402,-1.1185,-0.1986,-0.5323,-1.0962,0.3337,-0.0894,-0.0500,-0.2012,
4.018670,0.3339,-1.1149,-0.1920,-0.5323,-1.0962,0.3337,-0.0894,-0.0500,-0.2012,
4.023811,0.3315,-1.1112,-0.1744,-0.5323,-1.0962,0.3337,-0.0894,-0.0500,-0.2012,
4.032153,0.3393,-1.1061,-0.1537,-0.5323,-1.0962,0.3337,-0.0894,-0.0500,-0.2012,
4.033677,0.3486,-1.0980,-0.1405,-0.5323,-1.0962,0.3337,-0.0894,-0.0500,-0.2012,
4.040150,0.3571,-1.0939,-0.1222,-0.5323,-1.0962,0.3337,-0.0894,-0.0500,-0.2012,
4.042148,0.3571,-1.0939,-0.1222,-0.5323,-1.0962,0.3337,0.2398,-0.2045,-0.1202,
4.043263,0.3571,-1.0939,-0.1222,1.0918,-1.5435,0.8181,0.2398,-0.2045,-0.1202,
4.044435,0.3635,-1.0870,-0.1100,1.0918,-1.5435,0.8181,0.2398,-0.2045,-0.1202,
4.048714,0.3581,-1.0846,-0.1146,1.0918,-1.5435,0.8181,0.2398,-0.2045,-0.1202,
4.052712,0.3456,-1.0870,-0.1229,1.0918,-1.5435,0.8181,0.2398,-0.2045,-0.1202,
4.058454,0.3239,-1.0899,-0.1288,1.0918,-1.5435,0.8181,0.2398,-0.2045,-0.1202,
4.064532,0.3051,-1.0875,-0.1241,1.0918,-1.5435,0.8181,0.2398,-0.2045,-0.1202,
4.066789,0.2919,-1.0836,-0.1104,1.0918,-1.5435,0.8181,0.2398,-0.2045,-0.1202,
4.073816,0.2801,-1.0826,-0.0997,1.0918,-1.5435,0.8181,0.2398,-0.2045,-0.1202,
4.081321,0.2679,-1.0750,-0.0902,1.0918,-1.5435,0.8181,0.2398,-0.2045,-0.1202,
4.082745,0.2679,-1.0750,-0.0902,1.0918,-1.5435,0.8181,0.5274,-0.5528,-0.0233,
4.083614,0.2679,-1.0750,-0.0902,1.0908,-1.1345,0.7663,0.5274,-0.5528,-0.0233,
4.084435,0.2518,-1.0650,-0.0914,1.0908,-1.1345,0.7663,0.5274,-0.5528,-0.0233,
4.088837,0.2369,-1.0618,-0.0977,1.0908,-1.1345,0.7663,0.5274,-0.5528,-0.0233,
4.092248,0.2110,-1.0560,-0.1073,1.0908,-1.1345,0.7663,0.5274,-0.5528,-0.0233,
4.098380,0.1868,-1.0445,-0.1153,1.0908,-1.1345,0.7663,0.5274,-0.5528,-0.0233,
4.101621,0.1685,-1.0352,-0.1246,1.0908,-1.1345,0.7663,0.5274,-0.5528,-0.0233,
4.107326,0.1499,-1.0247,-0.1253,1.0908,-1.1345,0.7663,0.5274,-0.5528,-0.0233,
4.111900,0.1365,-1.0105,-0.1339,1.0908,-1.1345,0.7663,0.5274,-0.5528,-0.0233,
4.116737,0.1226,-0.9981,-0.1393,1.0908,-1.1345,0.7663,0.5274,-0.5528,-0.0233,
4.117851,0.1226,-0.9981,-0.1393,1.0908,-1.1345,0.7663,0.7970,-0.8277,0.0683,
4.118822,0.1226,-0.9981,-0.1393,1.1601,-1.0505,0.5219,0.7970,-0.8277,0.0683,
4.123608,0.1135,-0.9912,-0.1459,1.1601,-1.0505,0.5219,0.7970,-0.8277,0.0683,
4.127283,0.1011,-0.9859,-0.1515,1.1601,-1.0505,0.5219,0.7970,-0.8277,0.0683,
4.132595,0.0962,-0.9825,-0.1429,1.1601,-1.0505,0.5219,0.7970,-0.8277,0.0683,
4.139500,0.0972,-0.9734,-0.1310,1.1601,-1.0505,0.5219,0.7970,-0.8277,0.0683,
4.142692,0.0972,-0.9651,-0.1143,1.1601,-1.0505,0.5219,0.7970,-0.8277,0.0683,
4.148736,0.1069,-0.9607,-0.0992,1.1601,-1.0505,0.5219,0.7970,-0.8277,0.0683,
4.152144,0.1177,-0.9597,-0.0853,1.1601,-1.0505,0.5219,0.7970,-0.8277,0.0683,
4.157387,0.1270,-0.9534,-0.0806,1.1601,-1.0505,0.5219,0.7970,-0.8277,0.0683,
4.159167,0.1270,-0.9534,-0.0806,1.1601,-1.0505,0.5219,0.9386,-0.8458,0.1738,
4.159938,0.1270,-0.9534,-0.0806,-0.4273,-0.2128,0.2706,0.9386,-0.8458,0.1738,
4.162231,0.1404,-0.9470,-0.0767,-0.4273,-0.2128,0.2706,0.9386,-0.8458,0.1738,
4.167385,0.1499,-0.9387,-0.0762,-0.4273,-0.2128,0.2706,0.9386,-0.8458,0.1738,
4.172525,0.1648,-0.9282,-0.0735,-0.4273,-0.2128,0.2706,0.9386,-0.8458,0.1738,
4.177446,0.1795,-0.9197,-0.0753,-0.4273,-0.2128,0.2706,0.9386,-0.8458,0.1738,
4.182240,0.1981,-0.9121,-0.0823,-0.4273,-0.2128,0.2706,0.9386,-0.8458,0.1738,
4.189230,0.2144,-0.9004,-0.0928,-0.4273,-0.2128,0.2706,0.9386,-0.8458,0.1738,
4.192385,0.2276,-0.8896,-0.0948,-0.4273,-0.2128,0.2706,0.9386,-0.8458,0.1738,
4.197065,0.2286,-0.8759,-0.0985,-0.4273,-0.2128,0.2706,0.9386,-0.8458,0.1738,
4.198632,0.2286,-0.8759,-0.0985,-0.4273,-0.2128,0.2706,0.9791,-0.7488,0.2973,
4.199483,0.2286,-0.8759,-0.0985,-0.2679,-0.1372,-0.0532,0.9791,-0.7488,0.2973,
4.201178,0.2276,-0.8615,-0.0985,-0.2679,-0.1372,-0.0532,0.9791,-0.7488,0.2973,
4.207241,0.2222,-0.8510,-0.0980,-0.2679,-0.1372,-0.0532,0.9791,-0.7488,0.2973,
4.213896,0.2178,-0.8378,-0.0946,-0.2679,-0.1372,-0.0532,0.9791,-0.7488,0.2973,
4.216035,0.2188,-0.8307,-0.0990,-0.2679,-0.1372,-0.0532,0.9791,-0.7488,0.2973,
4.223246,0.2147,-0.8295,-0.1060,-0.2679,-0.1372,-0.0532,0.9791,-0.7488,0.2973,
4.225759,0.2095,-0.8327,-0.1036,-0.2679,-0.1372,-0.0532,0.9791,-0.7488,0.2973,
4.232122,0.1995,-0.8368,-0.0994,-0.2679,-0.1372,-0.0532,0.9791,-0.7488,0.2973,
4.239223,0.1929,-0.8439,-0.0982,-0.2679,-0.1372,-0.0532,0.9791,-0.7488,0.2973,
4.241176,0.1929,-0.8439,-0.0982,-0.2679,-0.1372,-0.0532,1.0047,-0.5901,0.2803,
4.242433,0.1929,-0.8439,-0.0982,0.1159,0.8831,-0.0364,1.0047,-0.5901,0.2803,
4.243322,0.1832,-0.8544,-0.0992,0.1159,0.8831,-0.0364,1.0047,-0.5901,0.2803,
4.249623,0.1727,-0.8625,-0.0994,0.1159,0.8831,-0.0364,1.0047,-0.5901,0.2803,
4.251788,0.1590,-0.8796,-0.1041,0.1159,0.8831,-0.0364,1.0047,-0.5901,0.2803,
4.258035,0.1455,-0.8984,-0.1200,0.1159,0.8831,-0.0364,1.0047,-0.5901,0.2803,
4.260457,0.1272,-0.9052,-0.1366,0.1159,0.8831,-0.0364,1.0047,-0.5901,0.2803,
4.266814,0.1123,-0.9170,-0.1522,0.1159,0.8831,-0.0364,1.0047,-0.5901,0.2803,
4.273865,0.0994,-0.9302,-0.1595,0.1159,0.8831,-0.0364,1.0047,-0.5901,0.2803,
4.277158,0.1001,-0.9448,-0.1578,0.1159,0.8831,-0.0364,1.0047,-0.5901,0.2803,
4.279439,0.1001,-0.9448,-0.1578,0.1159,0.8831,-0.0364,0.8758,-0.4793,0.1429,
4.282408,0.1001,-0.9448,-0.1578,0.1425,1.3736,-0.5952,0.8758,-0.4793,0.1429,
4.283774,0.1001,-0.9595,-0.1642,0.1425,1.3736,-0.5952,0.8758,-0.4793,0.1429,
4.286160,0.1050,-0.9717,-0.1744,0.1425,1.3736,-0.5952,0.8758,-0.4793,0.1429,
4.292084,0.1150,-0.9783,-0.1859,0.1425,1.3736,-0.5952,0.8758,-0.4793,0.1429,
4.296731,0.1179,-0.9895,-0.1999,0.1425,1.3736,-0.5952,0.8758,-0.4793,0.1429,
4.300549,0.1196,-0.9961,-0.2006,0.1425,1.3736,-0.5952,0.8758,-0.4793,0.1429,
4.308930,0.1211,-1.0015,-0.1879,0.1425,1.3736,-0.5952,0.8758,-0.4793,0.1429,
4.312602,0.1297,-1.0088,-0.1803,0.1425,1.3736,-0.5952,0.8758,-0.4793,0.1429,
4.317075,0.1394,-1.0125,-0.1674,0.1425,1.3736,-0.5952,0.8758,-0.4793,0.1429,
4.320160,0.1394,-1.0125,-0.1674,0.1425,1.3736,-0.5952,0.6457,-0.4761,0.1067,
4.321834,0.1394,-1.0125,-0.1674,0.1885,1.3671,-0.8053,0.6457,-0.4761,0.1067,
4.323395,0.1426,-1.0167,-0.1639,0.1885,1.3671,-0.8053,0.6457,-0.4761,0.1067,
4.324517,0.1428,-1.0198,-0.1595,0.1885,1.3671,-0.8053,0.6457,-0.4761,0.1067,
4.330395,0.1485,-1.0191,-0.1495,0.1885,1.3671,-0.8053,0.6457,-0.4761,0.1067,
4.334086,0.1538,-1.0171,-0.1400,0.1885,1.3671,-0.8053,0.6457,-0.4761,0.1067,
4.340118,0.1621,-1.0105,-0.1261,0.1885,1.3671,-0.8053,0.6457,-0.4761,0.1067,
4.347771,0.1719,-1.0047,-0.1092,0.1885,1.3671,-0.8053,0.6457,-0.4761,0.1067,
4.350265,0.1839,-1.0047,-0.0943,0.1885,1.3671,-0.8053,0.6457,-0.4761,0.1067,
4.356310,0.1893,-1.0047,-0.0841,0.1885,1.3671,-0.8053,0.6457,-0.4761,0.1067,
4.357841,0.1893,-1.0047,-0.0841,0.1885,1.3671,-0.8053,0.2590,-0.5635,0.1312,
4.359145,0.1893,-1.0047,-0.0841,-0.2158,0.1117,-1.4219,0.2590,-0.5635,0.1312,
4.360660,0.1946,-1.0025,-0.0853,-0.2158,0.1117,-1.4219,0.2590,-0.5635,0.1312,
4.365400,0.1907,-0.9974,-0.0909,-0.2158,0.1117,-1.4219,0.2590,-0.5635,0.1312,
4.370526,0.1934,-0.9952,-0.0841,-0.2158,0.1117,-1.4219,0.2590,-0.5635,0.1312,
4.375284,0.1956,-0.9959,-0.0770,-0.2158,0.1117,-1.4219,0.2590,-0.5635,0.1312,
4.381062,0.1942,-0.9954,-0.0613,-0.2158,0.1117,-1.4219,0.2590,-0.5635,0.1312,
4.384729,0.1942,-0.9964,-0.0418,-0.2158,0.1117,-1.4219,0.2590,-0.5635,0.1312,
4.390508,0.1934,-0.9974,-0.0176,-0.2158,0.1117,-1.4219,0.2590,-0.5635,0.1312,
4.395644,0.1976,-1.0010,0.0012,-0.2158,0.1117,-1.4219,0.2590,-0.5635,0.1312,
4.397074,0.1976,-1.0010,0.0012,-0.2158,0.1117,-1.4219,-0.0830,-0.6476,0.0736,
4.398041,0.1976,-1.0010,0.0012,-0.1768,0.1130,-1.3303,-0.0830,-0.6476,0.0736,
4.399762,0.2044,-1.0018,0.0168,-0.1768,0.1130,-1.3303,-0.0830,-0.6476,0.0736,
4.406266,0.2117,-1.0000,0.0330,-0.1768,0.1130,-1.3303,-0.0830,-0.6476,0.0736,
4.409663,0.2142,-0.9961,0.0459,-0.1768,0.1130,-1.3303,-0.0830,-0.6476,0.0736,
4.414804,0.2132,-0.9876,0.0471,-0.1768,0.1130,-1.3303,-0.0830,-0.6476,0.0736,
4.420549,0.2056,-0.9785,0.0427,-0.1768,0.1130,-1.3303,-0.0830,-0.6476,0.0736,
4.425835,0.1907,-0.9732,0.0227,-0.1768,0.1130,-1.3303,-0.0830,-0.6476,0.0736,
4.427767,0.1719,-0.9673,0.0010,-0.1768,0.1130,-1.3303,-0.0830,-0.6476,0.0736,
4.435243,0.1487,-0.9663,-0.0198,-0.1768,0.1130,-1.3303,-0.0830,-0.6476,0.0736,
4.436645,0.1487,-0.9663,-0.0198,-0.1768,0.1130,-1.3303,-0.2832,-0.7360,-0.0829,
4.437493,0.1487,-0.9663,-0.0198,0.4214,0.0485,-0.1373,-0.2832,-0.7360,-0.0829,
4.440925,0.1143,-0.9719,-0.0306,0.4214,0.0485,-0.1373,-0.2832,-0.7360,-0.0829,
4.447128,0.0923,-0.9834,-0.0425,0.4214,0.0485,-0.1373,-0.2832,-0.7360,-0.0829,
4.448559,0.0747,-0.9949,-0.0418,0.4214,0.0485,-0.1373,-0.2832,-0.7360,-0.0829,
4.457252,0.0659,-1.0074,-0.0391,0.4214,0.0485,-0.1373,-0.2832,-0.7360,-0.0829,
4.458977,0.0649,-1.0137,-0.0286,0.4214,0.0485,-0.1373,-0.2832,-0.7360,-0.0829,
4.464558,0.0793,-1.0196,-0.0225,0.4214,0.0485,-0.1373,-0.2832,-0.7360,-0.0829,
4.469875,0.0937,-1.0181,-0.0266,0.4214,0.0485,-0.1373,-0.2832,-0.7360,-0.0829,
4.475837,0.1020,-1.0120,-0.0386,0.4214,0.0485,-0.1373,-0.2832,-0.7360,-0.0829,
4.478086,0.1020,-1.0120,-0.0386,0.4214,0.0485,-0.1373,-0.3163,-0.6519,-0.2949,
4.480691,0.1020,-1.0120,-0.0386,-0.1418,0.1326,0.6325,-0.3163,-0.6519,-0.2949,
4.482703,0.1050,-1.0096,-0.0604,-0.1418,0.1326,0.6325,-0.3163,-0.6519,-0.2949,
4.484769,0.0991,-1.0061,-0.0865,-0.1418,0.1326,0.6325,-0.3163,-0.6519,-0.2949,
4.489823,0.0937,-1.0010,-0.1104,-0.1418,0.1326,0.6325,-0.3163,-0.6519,-0.2949,
4.493594,0.0942,-0.9930,-0.1339,-0.1418,0.1326,0.6325,-0.3163,-0.6519,-0.2949,
4.498465,0.0903,-0.9803,-0.1400,-0.1418,0.1326,0.6325,-0.3163,-0.6519,-0.2949,
4.502945,0.0840,-0.9658,-0.1297,-0.1418,0.1326,0.6325,-0.3163,-0.6519,-0.2949,
4.508005,0.0879,-0.9468,-0.1158,-0.1418,0.1326,0.6325,-0.3163,-0.6519,-0.2949,
4.515064,0.0879,-0.9468,-0.1158,-0.2259,0.1024,0.8062,-0.3163,-0.6519,-0.2949,
4.516509,0.0977,-0.9302,-0.0968,-0.2259,0.1024,0.8062,-0.3163,-0.6519,-0.2949,
4.517109,0.0977,-0.9302,-0.0968,-0.2259,0.1024,0.8062,-0.3844,-0.6018,-0.2715,
4.517937,0.1060,-0.9167,-0.0831,-0.2259,0.1024,0.8062,-0.3844,-0.6018,-0.2715,
4.523171,0.1167,-0.9087,-0.0882,-0.2259,0.1024,0.8062,-0.3844,-0.6018,-0.2715,
4.527841,0.1301,-0.9028,-0.1036,-0.2259,0.1024,0.8062,-0.3844,-0.6018,-0.2715,
4.534030,0.1333,-0.8989,-0.1429,-0.2259,0.1024,0.8062,-0.3844,-0.6018,-0.2715,
4.540726,0.1297,-0.9009,-0.1903,-0.2259,0.1024,0.8062,-0.3844,-0.6018,-0.2715,
4.543754,0.1165,-0.9026,-0.2275,-0.2259,0.1024,0.8062,-0.3844,-0.6018,-0.2715,
4.550169,0.1064,-0.9050,-0.2575,-0.2259,0.1024,0.8062,-0.3844,-0.6018,-0.2715,
4.553303,0.0984,-0.9067,-0.2622,-0.2259,0.1024,0.8062,-0.3844,-0.6018,-0.2715,
4.554342,0.0984,-0.9067,-0.2622,-0.2259,0.1024,0.8062,-0.6230,-0.6476,-0.1799,
4.555186,0.0984,-0.9067,-0.2622,-0.6718,0.2649,0.1962,-0.6230,-0.6476,-0.1799,
4.558572,0.0945,-0.9082,-0.2587,-0.6718,0.2649,0.1962,-0.6230,-0.6476,-0.1799,
4.563935,0.0955,-0.9114,-0.2460,-0.6718,0.2649,0.1962,-0.6230,-0.6476,-0.1799,
4.568154,0.1050,-0.9116,-0.2250,-0.6718,0.2649,0.1962,-0.6230,-0.6476,-0.1799,
4.574180,0.1250,-0.9062,-0.2072,-0.6718,0.2649,0.1962,-0.6230,-0.6476,-0.1799,
4.578854,0.1397,-0.9021,-0.1977,-0.6718,0.2649,0.1962,-0.6230,-0.6476,-0.1799,
4.583948,0.1438,-0.8962,-0.1989,-0.6718,0.2649,0.1962,-0.6230,-0.6476,-0.1799,
4.590230,0.1477,-0.8911,-0.2052,-0.6718,0.2649,0.1962,-0.6230,-0.6476,-0.1799,
4.594097,0.1477,-0.8911,-0.2052,-0.4874,0.8453,-0.6430,-0.6230,-0.6476,-0.1799,
4.595653,0.1475,-0.8901,-0.1964,-0.4874,0.8453,-0.6430,-0.6230,-0.6476,-0.1799,
4.596808,0.1475,-0.8901,-0.1964,-0.4874,0.8453,-0.6430,-0.8393,-0.5134,-0.1628,
4.599381,0.1458,-0.8852,-0.1718,-0.4874,0.8453,-0.6430,-0.8393,-0.5134,-0.1628,
4.601985,0.1463,-0.8918,-0.1571,-0.4874,0.8453,-0.6430,-0.8393,-0.5134,-0.1628,
4.608426,0.1438,-0.8989,-0.1613,-0.4874,0.8453,-0.6430,-0.8393,-0.5134,-0.1628,
4.615802,0.1448,-0.9104,-0.1793,-0.4874,0.8453,-0.6430,-0.8393,-0.5134,-0.1628,
4.617646,0.1426,-0.9314,-0.2008,-0.4874,0.8453,-0.6430,-0.8393,-0.5134,-0.1628,
4.624723,0.1458,-0.9566,-0.2079,-0.4874,0.8453,-0.6430,-0.8393,-0.5134,-0.1628,
4.627775,0.1631,-0.9839,-0.2084,-0.4874,0.8453,-0.6430,-0.8393,-0.5134,-0.1628,
4.633276,0.1846,-1.0088,-0.1979,-0.4874,0.8453,-0.6430,-0.8393,-0.5134,-0.1628,
4.634389,0.1846,-1.0088,-0.1979,-0.4874,0.8453,-0.6430,-0.9810,-0.3813,-0.1192,
4.635140,0.1846,-1.0088,-0.1979,-0.4994,0.7592,-0.2384,-0.9810,-0.3813,-0.1192,
4.637880,0.2137,-1.0313,-0.1793,-0.4994,0.7592,-0.2384,-0.9810,-0.3813,-0.1192,
4.643049,0.2425,-1.0513,-0.1422,-0.4994,0.7592,-0.2384,-0.9810,-0.3813,-0.1192,
4.647568,0.2630,-1.0618,-0.1041,-0.4994,0.7592,-0.2384,-0.9810,-0.3813,-0.1192,
4.652787,0.2704,-1.0662,-0.0833,-0.4994,0.7592,-0.2384,-0.9810,-0.3813,-0.1192,
4.657721,0.2677,-1.0684,-0.0875,-0.4994,0.7592,-0.2384,-0.9810,-0.3813,-0.1192,
4.662790,0.2606,-1.0570,-0.1117,-0.4994,0.7592,-0.2384,-0.9810,-0.3813,-0.1192,
4.667720,0.2530,-1.0440,-0.1405,-0.4994,0.7592,-0.2384,-0.9810,-0.3813,-0.1192,
4.673712,0.2430,-1.0294,-0.1713,-0.4994,0.7592,-0.2384,-0.9810,-0.3813,-0.1192,
4.676170,0.2430,-1.0294,-0.1713,-0.4994,0.7592,-0.2384,-0.7903,-0.4026,0.0001,
4.677200,0.2430,-1.0294,-0.1713,0.2018,-0.0692,0.6314,-0.7903,-0.4026,0.0001,
4.678343,0.2303,-1.0176,-0.2025,0.2018,-0.0692,0.6314,-0.7903,-0.4026,0.0001,
4.682607,0.2073,-1.0176,-0.2221,0.2018,-0.0692,0.6314,-0.7903,-0.4026,0.0001,
4.690598,0.1846,-1.0281,-0.2301,0.2018,-0.0692,0.6314,-0.7903,-0.4026,0.0001,
4.692465,0.1680,-1.0447,-0.2363,0.2018,-0.0692,0.6314,-0.7903,-0.4026,0.0001,
4.700280,0.1621,-1.0706,-0.2243,0.2018,-0.0692,0.6314,-0.7903,-0.4026,0.0001,
4.701905,0.1492,-1.0983,-0.1986,0.2018,-0.0692,0.6314,-0.7903,-0.4026,0.0001,
4.707068,0.1492,-1.1256,-0.1657,0.2018,-0.0692,0.6314,-0.7903,-0.4026,0.0001,
4.711935,0.1556,-1.1530,-0.1290,0.2018,-0.0692,0.6314,-0.7903,-0.4026,0.0001,
4.713471,0.1556,-1.1530,-0.1290,0.2018,-0.0692,0.6314,-0.4750,-0.6306,0.0950,
4.714531,0.1556,-1.1530,-0.1290,0.2908,-0.1047,0.8368,-0.4750,-0.6306,0.0950,
4.717526,0.1634,-1.1742,-0.1004,0.2908,-0.1047,0.8368,-0.4750,-0.6306,0.0950,
4.720976,0.1749,-1.1852,-0.0865,0.2908,-0.1047,0.8368,-0.4750,-0.6306,0.0950,
4.726892,0.1832,-1.1796,-0.0850,0.2908,-0.1047,0.8368,-0.4750,-0.6306,0.0950,
4.734369,0.1949,-1.1623,-0.0894,0.2908,-0.1047,0.8368,-0.4750,-0.6306,0.0950,
4.736708,0.2025,-1.1410,-0.0955,0.2908,-0.1047,0.8368,-0.4750,-0.6306,0.0950,
4.742272,0.2122,-1.1193,-0.1038,0.2908,-0.1047,0.8368,-0.4750,-0.6306,0.0950,
4.747364,0.2198,-1.0987,-0.1197,0.2908,-0.1047,0.8368,-0.4750,-0.6306,0.0950,
4.752383,0.2225,-1.0809,-0.1329,0.2908,-0.1047,0.8368,-0.4750,-0.6306,0.0950,
4.753803,0.2225,-1.0809,-0.1329,0.2908,-0.1047,0.8368,-0.2278,-0.5912,0.1472,
4.754592,0.2225,-1.0809,-0.1329,0.4175,-1.0793,0.8399,-0.2278,-0.5912,0.1472,
4.758414,0.2193,-1.0680,-0.1476,0.4175,-1.0793,0.8399,-0.2278,-0.5912,0.1472,
4.762061,0.2164,-1.0645,-0.1615,0.4175,-1.0793,0.8399,-0.2278,-0.5912,0.1472,
4.767068,0.2100,-1.0548,-0.1522,0.4175,-1.0793,0.8399,-0.2278,-0.5912,0.1472,
4.771319,0.2056,-1.0457,-0.1358,0.4175,-1.0793,0.8399,-0.2278,-0.5912,0.1472,
4.776934,0.2029,-1.0440,-0.1183,0.4175,-1.0793,0.8399,-0.2278,-0.5912,0.1472,
4.784254,0.1956,-1.0484,-0.1100,0.4175,-1.0793,0.8399,-0.2278,-0.5912,0.1472,
4.786782,0.1822,-1.0553,-0.1034,0.4175,-1.0793,0.8399,-0.2278,-0.5912,0.1472,
4.791750,0.1724,-1.0597,-0.0953,0.4175,-1.0793,0.8399,-0.2278,-0.5912,0.1472,
4.793496,0.1724,-1.0597,-0.0953,0.4175,-1.0793,0.8399,0.1301,-0.5006,0.2217,
4.794237,0.1724,-1.0597,-0.0953,0.6648,-1.1232,1.2970,0.1301,-0.5006,0.2217,
4.795637,0.1629,-1.0660,-0.0841,0.6648,-1.1232,1.2970,0.1301,-0.5006,0.2217,
4.801392,0.1570,-1.0724,-0.0757,0.6648,-1.1232,1.2970,0.1301,-0.5006,0.2217,
4.806860,0.1516,-1.0736,-0.0579,0.6648,-1.1232,1.2970,0.1301,-0.5006,0.2217,
4.811754,0.1494,-1.0728,-0.0574,0.6648,-1.1232,1.2970,0.1301,-0.5006,0.2217,
4.816565,0.1458,-1.0599,-0.0613,0.6648,-1.1232,1.2970,0.1301,-0.5006,0.2217,
4.821238,0.1521,-1.0462,-0.0709,0.6648,-1.1232,1.2970,0.1301,-0.5006,0.2217,
4.825817,0.1590,-1.0284,-0.0821,0.6648,-1.1232,1.2970,0.1301,-0.5006,0.2217,
4.833387,0.1629,-1.0076,-0.1012,0.6648,-1.1232,1.2970,0.1301,-0.5006,0.2217,
4.834317,0.1629,-1.0076,-0.1012,0.6648,-1.1232,1.2970,0.3900,-0.3717,0.1908,
4.835614,0.1629,-1.0076,-0.1012,0.7599,-1.0583,1.1486,0.3900,-0.3717,0.1908,
4.836608,0.1643,-0.9937,-0.1236,0.7599,-1.0583,1.1486,0.3900,-0.3717,0.1908,
4.841569,0.1585,-0.9878,-0.1429,0.7599,-1.0583,1.1486,0.3900,-0.3717,0.1908,
4.847574,0.1568,-0.9834,-0.1581,0.7599,-1.0583,1.1486,0.3900,-0.3717,0.1908,
4.849690,0.1531,-0.9790,-0.1610,0.7599,-1.0583,1.1486,0.3900,-0.3717,0.1908,
4.857547,0.1463,-0.9756,-0.1583,0.7599,-1.0583,1.1486,0.3900,-0.3717,0.1908,
4.860711,0.1450,-0.9707,-0.1547,0.7599,-1.0583,1.1486,0.3900,-0.3717,0.1908,
4.867466,0.1426,-0.9673,-0.1439,0.7599,-1.0583,1.1486,0.3900,-0.3717,0.1908,
4.871953,0.1426,-0.9673,-0.1439,0.3936,-0.4310,1.1034,0.3900,-0.3717,0.1908,
4.874133,0.1448,-0.9607,-0.1329,0.3936,-0.4310,1.1034,0.3900,-0.3717,0.1908,
4.875004,0.1448,-0.9607,-0.1329,0.3936,-0.4310,1.1034,0.6521,-0.1917,0.2398,
4.876185,0.1426,-0.9504,-0.1224,0.3936,-0.4310,1.1034,0.6521,-0.1917,0.2398,
4.880650,0.1431,-0.9385,-0.1124,0.3936,-0.4310,1.1034,0.6521,-0.1917,0.2398,
4.885310,0.1416,-0.9311,-0.1019,0.3936,-0.4310,1.1034,0.6521,-0.1917,0.2398,
4.891686,0.1399,-0.9241,-0.0955,0.3936,-0.4310,1.1034,0.6521,-0.1917,0.2398,
4.895273,0.1301,-0.9175,-0.0921,0.3936,-0.4310,1.1034,0.6521,-0.1917,0.2398,
4.900643,0.1218,-0.9123,-0.0928,0.3936,-0.4310,1.1034,0.6521,-0.1917,0.2398,
4.904643,0.1199,-0.9106,-0.0960,0.3936,-0.4310,1.1034,0.6521,-0.1917,0.2398,
4.909441,0.1170,-0.9050,-0.1053,0.3936,-0.4310,1.1034,0.6521,-0.1917,0.2398,
4.910962,0.1170,-0.9050,-0.1053,0.3936,-0.4310,1.1034,0.7171,-0.2002,0.2803,
4.911880,0.1170,-0.9050,-0.1053,0.5084,-0.3580,0.8216,0.7171,-0.2002,0.2803,
4.914474,0.1196,-0.8928,-0.1134,0.5084,-0.3580,0.8216,0.7171,-0.2002,0.2803,
4.919370,0.1279,-0.8894,-0.1295,0.5084,-0.3580,0.8216,0.7171,-0.2002,0.2803,
4.924148,0.1355,-0.8838,-0.1468,0.5084,-0.3580,0.8216,0.7171,-0.2002,0.2803,
4.928971,0.1389,-0.8835,-0.1666,0.5084,-0.3580,0.8216,0.7171,-0.2002,0.2803,
4.933631,0.1431,-0.8833,-0.1884,0.5084,-0.3580,0.8216,0.7171,-0.2002,0.2803,
4.940516,0.1468,-0.8884,-0.2143,0.5084,-0.3580,0.8216,0.7171,-0.2002,0.2803,
4.945484,0.1441,-0.8945,-0.2377,0.5084,-0.3580,0.8216,0.7171,-0.2002,0.2803,
4.950090,0.1409,-0.9067,-0.2626,0.5084,-0.3580,0.8216,0.7171,-0.2002,0.2803,
4.951626,0.1409,-0.9067,-0.2626,0.5084,-0.3580,0.8216,0.7746,-0.2449,0.2760,
4.952390,0.1409,-0.9067,-0.2626,0.4049,0.6520,0.3359,0.7746,-0.2449,0.2760,
4.954083,0.1272,-0.9231,-0.2793,0.4049,0.6520,0.3359,0.7746,-0.2449,0.2760,
4.960206,0.1113,-0.9419,-0.2946,0.4049,0.6520,0.3359,0.7746,-0.2449,0.2760,
4.966919,0.1020,-0.9592,-0.2929,0.4049,0.6520,0.3359,0.7746,-0.2449,0.2760,
4.970253,0.0977,-0.9737,-0.2807,0.4049,0.6520,0.3359,0.7746,-0.2449,0.2760,
4.975197,0.1028,-0.9825,-0.2673,0.4049,0.6520,0.3359,0.7746,-0.2449,0.2760,
4.979497,0.1055,-0.9881,-0.2380,0.4049,0.6520,0.3359,0.7746,-0.2449,0.2760,
4.984607,0.1062,-0.9910,-0.2091,0.4049,0.6520,0.3359,0.7746,-0.2449,0.2760,
4.991440,0.1074,-0.9942,-0.1766,0.4049,0.6520,0.3359,0.7746,-0.2449,0.2760,
4.993235,0.1074,-0.9942,-0.1766,0.4049,0.6520,0.3359,0.5349,-0.2758,0.2782,
4.994042,0.1074,-0.9942,-0.1766,0.4227,0.7970,-0.9606,0.5349,-0.2758,0.2782,
4.995002,0.1067,-0.9939,-0.1510,0.4227,0.7970,-0.9606,0.5349,-0.2758,0.2782,
5.000496,0.1040,-0.9925,-0.1310,0.4227,0.7970,-0.9606,0.5349,-0.2758,0.2782,
5.003249,0.0989,-0.9893,-0.1092,0.4227,0.7970,-0.9606,0.5349,-0.2758,0.2782,
5.009324,0.0925,-0.9893,-0.0872,0.4227,0.7970,-0.9606,0.5349,-0.2758,0.2782,
5.017450,0.0867,-0.9917,-0.0684,0.4227,0.7970,-0.9606,0.5349,-0.2758,0.2782,
5.018835,0.0796,-0.9895,-0.0591,0.4227,0.7970,-0.9606,0.5349,-0.2758,0.2782,
5.024677,0.0700,-0.9900,-0.0665,0.4227,0.7970,-0.9606,0.5349,-0.2758,0.2782,
5.028967,0.0581,-0.9912,-0.0806,0.4227,0.7970,-0.9606,0.5349,-0.2758,0.2782,
5.030380,0.0581,-0.9912,-0.0806,0.4227,0.7970,-0.9606,-0.0105,-0.4271,0.2398,
5.031321,0.0581,-0.9912,-0.0806,0.5291,0.7901,-0.9282,-0.0105,-0.4271,0.2398,
5.034653,0.0373,-0.9873,-0.0994,0.5291,0.7901,-0.9282,-0.0105,-0.4271,0.2398,
5.039488,0.0085,-0.9895,-0.1168,0.5291,0.7901,-0.9282,-0.0105,-0.4271,0.2398,
5.044358,-0.0189,-0.9917,-0.1473,0.5291,0.7901,-0.9282,-0.0105,-0.4271,0.2398,
5.049316,-0.0506,-0.9910,-0.1752,0.5291,0.7901,-0.9282,-0.0105,-0.4271,0.2398,
5.054211,-0.0905,-0.9878,-0.1989,0.5291,0.7901,-0.9282,-0.0105,-0.4271,0.2398,
5.059005,-0.1266,-0.9851,-0.2204,0.5291,0.7901,-0.9282,-0.0105,-0.4271,0.2398,
5.064076,-0.1557,-0.9776,-0.2407,0.5291,0.7901,-0.9282,-0.0105,-0.4271,0.2398,
5.069254,-0.1838,-0.9737,-0.2492,0.5291,0.7901,-0.9282,-0.0105,-0.4271,0.2398,
5.071098,-0.1838,-0.9737,-0.2492,0.5291,0.7901,-0.9282,-0.2758,-0.1714,0.0321,
5.071866,-0.1838,-0.9737,-0.2492,0.0327,0.1080,0.3066,-0.2758,-0.1714,0.0321,
5.075625,-0.2077,-0.9715,-0.2453,0.0327,0.1080,0.3066,-0.2758,-0.1714,0.0321,
5.078343,-0.2243,-0.9639,-0.2407,0.0327,0.1080,0.3066,-0.2758,-0.1714,0.0321,
5.083802,-0.2358,-0.9622,-0.2309,0.0327,0.1080,0.3066,-0.2758,-0.1714,0.0321,
5.089318,-0.2417,-0.9634,-0.2143,0.0327,0.1080,0.3066,-0.2758,-0.1714,0.0321,
5.094049,-0.2351,-0.9617,-0.2074,0.0327,0.1080,0.3066,-0.2758,-0.1714,0.0321,
5.099207,-0.2270,-0.9614,-0.2011,0.0327,0.1080,0.3066,-0.2758,-0.1714,0.0321,
5.103167,-0.2112,-0.9639,-0.1989,0.0327,0.1080,0.3066,-0.2758,-0.1714,0.0321,
5.108540,-0.1850,-0.9695,-0.1969,0.0327,0.1080,0.3066,-0.2758,-0.1714,0.0321,
5.110102,-0.1850,-0.9695,-0.1969,0.0327,0.1080,0.3066,-0.4888,0.4294,-0.0968,
5.110769,-0.1850,-0.9695,-0.1969,-2.4859,0.2588,-0.5000,-0.4888,0.4294,-0.0968,
5.112243,-0.1550,-0.9722,-0.1996,-2.4859,0.2588,-0.5000,-0.4888,0.4294,-0.0968,
5.117360,-0.1286,-0.9749,-0.2052,-2.4859,0.2588,-0.5000,-0.4888,0.4294,-0.0968,
5.122161,-0.0944,-0.9719,-0.2062,-2.4859,0.2588,-0.5000,-0.4888,0.4294,-0.0968,
5.126582,-0.0633,-0.9639,-0.2050,-2.4859,0.2588,-0.5000,-0.4888,0.4294,-0.0968,
5.133614,-0.0409,-0.9592,-0.2035,-2.4859,0.2588,-0.5000,-0.4888,0.4294,-0.0968,
5.136765,-0.0189,-0.9465,-0.2091,-2.4859,0.2588,-0.5000,-0.4888,0.4294,-0.0968,
5.142386,0.0043,-0.9382,-0.2184,-2.4859,0.2588,-0.5000,-0.4888,0.4294,-0.0968,
5.149967,0.0241,-0.9294,-0.2304,-2.4859,0.2588,-0.5000,-0.4888,0.4294,-0.0968,
5.151300,0.0241,-0.9294,-0.2304,-2.4859,0.2588,-0.5000,-0.7317,0.7979,0.1322,
5.152206,0.0241,-0.9294,-0.2304,-2.4489,0.2080,-0.2352,-0.7317,0.7979,0.1322,
5.152987,0.0446,-0.9199,-0.2502,-2.4489,0.2080,-0.2352,-0.7317,0.7979,0.1322,
5.156367,0.0520,-0.9089,-0.2712,-2.4489,0.2080,-0.2352,-0.7317,0.7979,0.1322,
5.161928,0.0532,-0.8930,-0.2951,-2.4489,0.2080,-0.2352,-0.7317,0.7979,0.1322,
5.166913,0.0459,-0.8835,-0.3157,-2.4489,0.2080,-0.2352,-0.7317,0.7979,0.1322,
5.174720,0.0363,-0.8757,-0.3430,-2.4489,0.2080,-0.2352,-0.7317,0.7979,0.1322,
5.178053,0.0224,-0.8659,-0.3750,-2.4489,0.2080,-0.2352,-0.7317,0.7979,0.1322,
5.183291,0.0099,-0.8615,-0.4080,-2.4489,0.2080,-0.2352,-0.7317,0.7979,0.1322,
5.188033,-0.0081,-0.8596,-0.4268,-2.4489,0.2080,-0.2352,-0.7317,0.7979,0.1322,
5.189248,-0.0081,-0.8596,-0.4268,-2.4489,0.2080,-0.2352,-0.8542,0.6882,0.1929,
5.190145,-0.0081,-0.8596,-0.4268,-0.8075,0.5084,-0.1726,-0.8542,0.6882,0.1929,
5.193475,-0.0208,-0.8601,-0.4461,-0.8075,0.5084,-0.1726,-0.8542,0.6882,0.1929,
5.197516,-0.0265,-0.8676,-0.4537,-0.8075,0.5084,-0.1726,-0.8542,0.6882,0.1929,
5.202620,-0.0284,-0.8825,-0.4488,-0.8075,0.5084,-0.1726,-0.8542,0.6882,0.1929,
5.209859,-0.0184,-0.9057,-0.4398,-0.8075,0.5084,-0.1726,-0.8542,0.6882,0.1929,
5.212801,-0.0123,-0.9333,-0.4310,-0.8075,0.5084,-0.1726,-0.8542,0.6882,0.1929,
5.217548,-0.0047,-0.9685,-0.4366,-0.8075,0.5084,-0.1726,-0.8542,0.6882,0.1929,
5.222471,0.0075,-1.0091,-0.4581,-0.8075,0.5084,-0.1726,-0.8542,0.6882,0.1929,
5.227615,0.0055,-1.0526,-0.4818,-0.8075,0.5084,-0.1726,-0.8542,0.6882,0.1929,
5.229758,0.0055,-1.0526,-0.4818,-0.8075,0.5084,-0.1726,-1.0928,0.5923,-0.0435,
5.230936,0.0055,-1.0526,-0.4818,-0.8655,0.3964,0.2242,-1.0928,0.5923,-0.0435,
5.233763,0.0026,-1.0870,-0.5145,-0.8655,0.3964,0.2242,-1.0928,0.5923,-0.0435,
5.236600,0.0092,-1.1110,-0.5375,-0.8655,0.3964,0.2242,-1.0928,0.5923,-0.0435,
5.242557,0.0187,-1.1190,-0.5414,-0.8655,0.3964,0.2242,-1.0928,0.5923,-0.0435,
5.251451,0.0178,-1.1122,-0.5216,-0.8655,0.3964,0.2242,-1.0928,0.5923,-0.0435,
5.252995,0.0097,-1.0904,-0.4967,-0.8655,0.3964,0.2242,-1.0928,0.5923,-0.0435,
5.259369,0.0036,-1.0523,-0.4671,-0.8655,0.3964,0.2242,-1.0928,0.5923,-0.0435,
5.262984,-0.0001,-1.0098,-0.4390,-0.8655,0.3964,0.2242,-1.0928,0.5923,-0.0435,
5.269002,0.0046,-0.9663,-0.4141,-0.8655,0.3964,0.2242,-1.0928,0.5923,-0.0435,
5.270339,0.0046,-0.9663,-0.4141,-0.8655,0.3964,0.2242,-1.0992,0.6094,-0.1469,
5.271469,0.0046,-0.9663,-0.4141,-0.8393,0.1715,-1.3962,-1.0992,0.6094,-0.1469,
5.272486,0.0033,-0.9265,-0.3872,-0.8393,0.1715,-1.3962,-1.0992,0.6094,-0.1469,
5.277082,0.0092,-0.8950,-0.3616,-0.8393,0.1715,-1.3962,-1.0992,0.6094,-0.1469,
5.281997,0.0251,-0.8742,-0.3379,-0.8393,0.1715,-1.3962,-1.0992,0.6094,-0.1469,
5.286903,0.0432,-0.8549,-0.3098,-0.8393,0.1715,-1.3962,-1.0992,0.6094,-0.1469,
5.291902,0.0512,-0.8471,-0.2793,-0.8393,0.1715,-1.3962,-1.0992,0.6094,-0.1469,
5.297101,0.0505,-0.8449,-0.2463,-0.8393,0.1715,-1.3962,-1.0992,0.6094,-0.1469,
5.301910,0.0405,-0.8476,-0.2306,-0.8393,0.1715,-1.3962,-1.0992,0.6094,-0.1469,
5.309425,0.0405,-0.8476,-0.2306,-0.6853,-0.0844,-0.4312,-1.0992,0.6094,-0.1469,
5.311250,0.0278,-0.8618,-0.2304,-0.6853,-0.0844,-0.4312,-1.0992,0.6094,-0.1469,
5.312220,0.0278,-0.8618,-0.2304,-0.6853,-0.0844,-0.4312,-0.9597,0.5998,-0.1011,
5.313133,0.0107,-0.8828,-0.2407,-0.6853,-0.0844,-0.4312,-0.9597,0.5998,-0.1011,
5.316874,-0.0045,-0.9045,-0.2641,-0.6853,-0.0844,-0.4312,-0.9597,0.5998,-0.1011,
5.322009,-0.0150,-0.9263,-0.2912,-0.6853,-0.0844,-0.4312,-0.9597,0.5998,-0.1011,
5.326506,-0.0252,-0.9480,-0.3240,-0.6853,-0.0844,-0.4312,-0.9597,0.5998,-0.1011,
5.330383,-0.0326,-0.9710,-0.3587,-0.6853,-0.0844,-0.4312,-0.9597,0.5998,-0.1011,
5.335725,-0.0436,-0.9883,-0.3938,-0.6853,-0.0844,-0.4312,-0.9597,0.5998,-0.1011,
5.339958,-0.0436,-1.0013,-0.4285,-0.6853,-0.0844,-0.4312,-0.9597,0.5998,-0.1011,
5.345122,-0.0404,-1.0105,-0.4561,-0.6853,-0.0844,-0.4312,-0.9597,0.5998,-0.1011,
5.347001,-0.0404,-1.0105,-0.4561,-0.6853,-0.0844,-0.4312,-0.6667,0.5061,-0.0265,
5.347869,-0.0404,-1.0105,-0.4561,-0.7521,-0.1743,-0.2022,-0.6667,0.5061,-0.0265,
5.350988,-0.0338,-1.0137,-0.4779,-0.7521,-0.1743,-0.2022,-0.6667,0.5061,-0.0265,
5.357151,-0.0201,-1.0115,-0.4908,-0.7521,-0.1743,-0.2022,-0.6667,0.5061,-0.0265,
5.362094,-0.0030,-1.0064,-0.4908,-0.7521,-0.1743,-0.2022,-0.6667,0.5061,-0.0265,
5.367683,0.0158,-0.9986,-0.4847,-0.7521,-0.1743,-0.2022,-0.6667,0.5061,-0.0265,
5.370285,0.0327,-0.9895,-0.4757,-0.7521,-0.1743,-0.2022,-0.6667,0.5061,-0.0265,
5.376137,0.0456,-0.9844,-0.4654,-0.7521,-0.1743,-0.2022,-0.6667,0.5061,-0.0265,
5.384997,0.0608,-0.9741,-0.4459,-0.7521,-0.1743,-0.2022,-0.6667,0.5061,-0.0265,
5.386491,0.0732,-0.9671,-0.4290,-0.7521,-0.1743,-0.2022,-0.6667,0.5061,-0.0265,
5.387370,0.0732,-0.9671,-0.4290,-0.7521,-0.1743,-0.2022,-0.3205,0.4794,0.0758,
5.388494,0.0732,-0.9671,-0.4290,-1.1400,-0.2764,-0.0277,-0.3205,0.4794,0.0758,
5.393216,0.0823,-0.9644,-0.4156,-1.1400,-0.2764,-0.0277,-0.3205,0.4794,0.0758,
5.396330,0.0854,-0.9597,-0.4041,-1.1400,-0.2764,-0.0277,-0.3205,0.4794,0.0758,
5.401186,0.0898,-0.9558,-0.3909,-1.1400,-0.2764,-0.0277,-0.3205,0.4794,0.0758,
5.405689,0.0979,-0.9563,-0.3799,-1.1400,-0.2764,-0.0277,-0.3205,0.4794,0.0758,
5.411000,0.1013,-0.9561,-0.3645,-1.1400,-0.2764,-0.0277,-0.3205,0.4794,0.0758,
5.418764,0.0984,-0.9551,-0.3543,-1.1400,-0.2764,-0.0277,-0.3205,0.4794,0.0758,
5.420117,0.0886,-0.9600,-0.3496,-1.1400,-0.2764,-0.0277,-0.3205,0.4794,0.0758,
5.425985,0.0886,-0.9600,-0.3496,-1.0980,-0.3047,0.0592,-0.3205,0.4794,0.0758,
5.427889,0.0788,-0.9619,-0.3455,-1.0980,-0.3047,0.0592,-0.3205,0.4794,0.0758,
5.428848,0.0788,-0.9619,-0.3455,-1.0980,-0.3047,0.0592,-0.2843,0.3899,0.2238,
5.430608,0.0674,-0.9617,-0.3547,-1.0980,-0.3047,0.0592,-0.2843,0.3899,0.2238,
5.435961,0.0522,-0.9656,-0.3672,-1.0980,-0.3047,0.0592,-0.2843,0.3899,0.2238,
5.442943,0.0429,-0.9646,-0.3838,-1.0980,-0.3047,0.0592,-0.2843,0.3899,0.2238,
5.445581,0.0422,-0.9707,-0.3977,-1.0980,-0.3047,0.0592,-0.2843,0.3899,0.2238,
5.452318,0.0417,-0.9737,-0.4041,-1.0980,-0.3047,0.0592,-0.2843,0.3899,0.2238,
5.454563,0.0419,-0.9778,-0.4085,-1.0980,-0.3047,0.0592,-0.2843,0.3899,0.2238,
5.460179,0.0529,-0.9783,-0.4075,-1.0980,-0.3047,0.0592,-0.2843,0.3899,0.2238,
5.466023,0.0529,-0.9783,-0.4075,-0.1517,-0.3100,-0.1279,-0.2843,0.3899,0.2238,
5.467585,0.0647,-0.9754,-0.4039,-0.1517,-0.3100,-0.1279,-0.2843,0.3899,0.2238,
5.468799,0.0647,-0.9754,-0.4039,-0.1517,-0.3100,-0.1279,-0.0159,0.3154,0.2185,
5.470123,0.0735,-0.9741,-0.3995,-0.1517,-0.3100,-0.1279,-0.0159,0.3154,0.2185,
5.476020,0.0840,-0.9690,-0.3936,-0.1517,-0.3100,-0.1279,-0.0159,0.3154,0.2185,
5.479854,0.0925,-0.9653,-0.3875,-0.1517,-0.3100,-0.1279,-0.0159,0.3154,0.2185,
5.485137,0.0974,-0.9678,-0.3804,-0.1517,-0.3100,-0.1279,-0.0159,0.3154,0.2185,
5.490239,0.0981,-0.9678,-0.3682,-0.1517,-0.3100,-0.1279,-0.0159,0.3154,0.2185,
5.494760,0.0999,-0.9639,-0.3584,-0.1517,-0.3100,-0.1279,-0.0159,0.3154,0.2185,
5.500005,0.0923,-0.9644,-0.3467,-0.1517,-0.3100,-0.1279,-0.0159,0.3154,0.2185,
5.505233,0.0977,-0.9656,-0.3350,-0.1517,-0.3100,-0.1279,-0.0159,0.3154,0.2185,
5.506217,0.0977,-0.9656,-0.3350,-0.1517,-0.3100,-0.1279,0.2419,0.3132,0.2451,
5.508028,0.0977,-0.9656,-0.3350,-0.1948,-0.3116,-0.1380,0.2419,0.3132,0.2451,
5.509605,0.0962,-0.9597,-0.3232,-0.1948,-0.3116,-0.1380,0.2419,0.3132,0.2451,
5.513957,0.0735,-0.9658,-0.3225,-0.1948,-0.3116,-0.1380,0.2419,0.3132,0.2451,
5.518949,0.0583,-0.9675,-0.3230,-0.1948,-0.3116,-0.1380,0.2419,0.3132,0.2451,
5.523082,0.0639,-0.9619,-0.3203,-0.1948,-0.3116,-0.1380,0.2419,0.3132,0.2451,
5.528660,0.0754,-0.9548,-0.3174,-0.1948,-0.3116,-0.1380,0.2419,0.3132,0.2451,
5.533628,0.0835,-0.9529,-0.3276,-0.1948,-0.3116,-0.1380,0.2419,0.3132,0.2451,
5.537758,0.0930,-0.9443,-0.3337,-0.1948,-0.3116,-0.1380,0.2419,0.3132,0.2451,
5.543785,0.1003,-0.9365,-0.3354,-0.1948,-0.3116,-0.1380,0.2419,0.3132,0.2451,
5.545496,0.1003,-0.9365,-0.3354,-0.1948,-0.3116,-0.1380,0.4774,0.4198,0.1951,
5.546247,0.1003,-0.9365,-0.3354,-0.1800,-0.2332,-0.3215,0.4774,0.4198,0.1951,
5.549737,0.1008,-0.9314,-0.3406,-0.1800,-0.2332,-0.3215,0.4774,0.4198,0.1951,
5.554227,0.0950,-0.9231,-0.3467,-0.1800,-0.2332,-0.3215,0.4774,0.4198,0.1951,
5.560130,0.0842,-0.9177,-0.3423,-0.1800,-0.2332,-0.3215,0.4774,0.4198,0.1951,
5.564123,0.0766,-0.9138,-0.3347,-0.1800,-0.2332,-0.3215,0.4774,0.4198,0.1951,
5.569177,0.0678,-0.9060,-0.3310,-0.1800,-0.2332,-0.3215,0.4774,0.4198,0.1951,
5.576075,0.0539,-0.8984,-0.3264,-0.1800,-0.2332,-0.3215,0.4774,0.4198,0.1951,
5.579285,0.0395,-0.8894,-0.3174,-0.1800,-0.2332,-0.3215,0.4774,0.4198,0.1951,
5.584402,0.0239,-0.8806,-0.3130,-0.1800,-0.2332,-0.3215,0.4774,0.4198,0.1951,
5.586062,0.0239,-0.8806,-0.3130,-0.1800,-0.2332,-0.3215,0.8033,0.7383,0.0950,
5.586887,0.0239,-0.8806,-0.3130,-0.0678,0.0770,-0.0804,0.8033,0.7383,0.0950,
5.588180,0.0075,-0.8745,-0.3083,-0.0678,0.0770,-0.0804,0.8033,0.7383,0.0950,
5.594071,-0.0030,-0.8706,-0.3078,-0.0678,0.0770,-0.0804,0.8033,0.7383,0.0950,
5.602345,-0.0145,-0.8647,-0.3086,-0.0678,0.0770,-0.0804,0.8033,0.7383,0.0950,
5.603972,-0.0265,-0.8598,-0.3127,-0.0678,0.0770,-0.0804,0.8033,0.7383,0.0950,
5.609469,-0.0362,-0.8517,-0.3176,-0.0678,0.0770,-0.0804,0.8033,0.7383,0.0950,
5.613521,-0.0399,-0.8442,-0.3149,-0.0678,0.0770,-0.0804,0.8033,0.7383,0.0950,
5.619273,-0.0392,-0.8346,-0.3122,-0.0678,0.0770,-0.0804,0.8033,0.7383,0.0950,
5.624394,-0.0370,-0.8241,-0.3127,-0.0678,0.0770,-0.0804,0.8033,0.7383,0.0950,
5.625428,-0.0370,-0.8241,-0.3127,-0.0678,0.0770,-0.0804,0.9258,0.9066,0.0523,
5.626534,-0.0370,-0.8241,-0.3127,-0.9244,0.9513,-0.3074,0.9258,0.9066,0.0523,
5.629821,-0.0274,-0.8153,-0.3201,-0.9244,0.9513,-0.3074,0.9258,0.9066,0.0523,
5.634227,-0.0150,-0.8031,-0.3230,-0.9244,0.9513,-0.3074,0.9258,0.9066,0.0523,
5.638777,-0.0120,-0.7978,-0.3201,-0.9244,0.9513,-0.3074,0.9258,0.9066,0.0523,
5.644476,-0.0013,-0.7946,-0.3164,-0.9244,0.9513,-0.3074,0.9258,0.9066,0.0523,
5.652599,0.0109,-0.7938,-0.3157,-0.9244,0.9513,-0.3074,0.9258,0.9066,0.0523,
5.653990,0.0222,-0.7975,-0.3171,-0.9244,0.9513,-0.3074,0.9258,0.9066,0.0523,
5.660347,0.0317,-0.8080,-0.3227,-0.9244,0.9513,-0.3074,0.9258,0.9066,0.0523,
5.663636,0.0520,-0.8205,-0.3372,-0.9244,0.9513,-0.3074,0.9258,0.9066,0.0523,
5.665379,0.0520,-0.8205,-0.3372,-0.9244,0.9513,-0.3074,0.8960,0.7117,0.1493,
5.666757,0.0520,-0.8205,-0.3372,-0.9262,1.0325,-0.6624,0.8960,0.7117,0.1493,
5.670028,0.0737,-0.8400,-0.3533,-0.9262,1.0325,-0.6624,0.8960,0.7117,0.1493,
5.671626,0.0940,-0.8659,-0.3770,-0.9262,1.0325,-0.6624,0.8960,0.7117,0.1493,
5.678115,0.1174,-0.9033,-0.4061,-0.9262,1.0325,-0.6624,0.8960,0.7117,0.1493,
5.683187,0.1419,-0.9436,-0.4410,-0.9262,1.0325,-0.6624,0.8960,0.7117,0.1493,
5.688123,0.1705,-0.9920,-0.4781,-0.9262,1.0325,-0.6624,0.8960,0.7117,0.1493,
5.694076,0.1988,-1.0511,-0.5238,-0.9262,1.0325,-0.6624,0.8960,0.7117,0.1493,
5.697843,0.2386,-1.1085,-0.5690,-0.9262,1.0325,-0.6624,0.8960,0.7117,0.1493,
5.703429,0.2736,-1.1620,-0.6059,-0.9262,1.0325,-0.6624,0.8960,0.7117,0.1493,
5.704717,0.2736,-1.1620,-0.6059,-0.9262,1.0325,-0.6624,0.7714,0.5540,0.2025,
5.705613,0.2736,-1.1620,-0.6059,-0.4504,1.3413,-1.3391,0.7714,0.5540,0.2025,
5.709588,0.2975,-1.1984,-0.6259,-0.4504,1.3413,-1.3391,0.7714,0.5540,0.2025,
5.712624,0.3100,-1.2221,-0.6218,-0.4504,1.3413,-1.3391,0.7714,0.5540,0.2025,
5.717581,0.3012,-1.2290,-0.5881,-0.4504,1.3413,-1.3391,0.7714,0.5540,0.2025,
5.722134,0.2757,-1.2153,-0.5451,-0.4504,1.3413,-1.3391,0.7714,0.5540,0.2025,
5.727357,0.2357,-1.1860,-0.4950,-0.4504,1.3413,-1.3391,0.7714,0.5540,0.2025,
5.732287,0.1934,-1.1417,-0.4478,-0.4504,1.3413,-1.3391,0.7714,0.5540,0.2025,
5.736633,0.1441,-1.0941,-0.3943,-0.4504,1.3413,-1.3391,0.7714,0.5540,0.2025,
5.741356,0.0952,-1.0433,-0.3469,-0.4504,1.3413,-1.3391,0.7714,0.5540,0.2025,
5.742754,0.0952,-1.0433,-0.3469,-0.4504,1.3413,-1.3391,0.3666,0.4911,0.0651,
5.743718,0.0952,-1.0433,-0.3469,-0.4579,1.3510,-1.4726,0.3666,0.4911,0.0651,
5.747317,0.0466,-0.9952,-0.3088,-0.4579,1.3510,-1.4726,0.3666,0.4911,0.0651,
5.752626,0.0053,-0.9551,-0.2905,-0.4579,1.3510,-1.4726,0.3666,0.4911,0.0651,
5.756260,-0.0345,-0.9206,-0.2680,-0.4579,1.3510,-1.4726,0.3666,0.4911,0.0651,
5.762359,-0.0751,-0.8903,-0.2451,-0.4579,1.3510,-1.4726,0.3666,0.4911,0.0651,
5.767710,-0.1112,-0.8613,-0.2226,-0.4579,1.3510,-1.4726,0.3666,0.4911,0.0651,
5.771994,-0.1337,-0.8405,-0.1981,-0.4579,1.3510,-1.4726,0.3666,0.4911,0.0651,
5.777492,-0.1454,-0.8190,-0.1828,-0.4579,1.3510,-1.4726,0.3666,0.4911,0.0651,
5.785549,-0.1454,-0.8190,-0.1828,0.9029,-1.3930,-2.6270,0.3666,0.4911,0.0651,
5.787133,-0.1435,-0.8100,-0.1759,0.9029,-1.3930,-2.6270,0.3666,0.4911,0.0651,
5.787988,-0.1435,-0.8100,-0.1759,0.9029,-1.3930,-2.6270,-0.3408,0.5188,-0.1501,
5.789132,-0.1318,-0.8056,-0.1722,0.9029,-1.3930,-2.6270,-0.3408,0.5188,-0.1501,
5.793470,-0.1139,-0.8007,-0.1683,0.9029,-1.3930,-2.6270,-0.3408,0.5188,-0.1501,
5.797117,-0.0863,-0.8144,-0.1722,0.9029,-1.3930,-2.6270,-0.3408,0.5188,-0.1501,
5.801670,-0.0511,-0.8317,-0.1762,0.9029,-1.3930,-2.6270,-0.3408,0.5188,-0.1501,
5.805833,-0.0113,-0.8557,-0.1847,0.9029,-1.3930,-2.6270,-0.3408,0.5188,-0.1501,
5.810509,0.0209,-0.8811,-0.1872,0.9029,-1.3930,-2.6270,-0.3408,0.5188,-0.1501,
5.817548,0.0561,-0.9084,-0.1898,0.9029,-1.3930,-2.6270,-0.3408,0.5188,-0.1501,
5.821153,0.0920,-0.9267,-0.2008,0.9029,-1.3930,-2.6270,-0.3408,0.5188,-0.1501,
5.822844,0.0920,-0.9267,-0.2008,0.9029,-1.3930,-2.6270,-0.4973,0.3250,-0.1554,
5.823880,0.0920,-0.9267,-0.2008,-1.8498,1.2206,0.4201,-0.4973,0.3250,-0.1554,
5.828097,0.1245,-0.9443,-0.2065,-1.8498,1.2206,0.4201,-0.4973,0.3250,-0.1554,
5.837010,0.1477,-0.9519,-0.2108,-1.8498,1.2206,0.4201,-0.4973,0.3250,-0.1554,
5.838452,0.1597,-0.9558,-0.2221,-1.8498,1.2206,0.4201,-0.4973,0.3250,-0.1554,
5.843466,0.1631,-0.9485,-0.2311,-1.8498,1.2206,0.4201,-0.4973,0.3250,-0.1554,
5.846791,0.1597,-0.9346,-0.2363,-1.8498,1.2206,0.4201,-0.4973,0.3250,-0.1554,
5.853520,0.1553,-0.9172,-0.2355,-1.8498,1.2206,0.4201,-0.4973,0.3250,-0.1554,
5.855327,0.1436,-0.8994,-0.2411,-1.8498,1.2206,0.4201,-0.4973,0.3250,-0.1554,
5.862250,0.1355,-0.8840,-0.2524,-1.8498,1.2206,0.4201,-0.4973,0.3250,-0.1554,
5.863877,0.1355,-0.8840,-0.2524,-1.8498,1.2206,0.4201,-0.3216,0.3196,-0.0829,
5.864980,0.1355,-0.8840,-0.2524,-1.8796,1.1665,0.5180,-0.3216,0.3196,-0.0829,
5.868506,0.1314,-0.8723,-0.2729,-1.8796,1.1665,0.5180,-0.3216,0.3196,-0.0829,
5.869834,0.1331,-0.8669,-0.2890,-1.8796,1.1665,0.5180,-0.3216,0.3196,-0.0829,
5.876340,0.1389,-0.8627,-0.3008,-1.8796,1.1665,0.5180,-0.3216,0.3196,-0.0829,
5.881371,0.1526,-0.8630,-0.3044,-1.8796,1.1665,0.5180,-0.3216,0.3196,-0.0829,
5.886823,0.1680,-0.8632,-0.2968,-1.8796,1.1665,0.5180,-0.3216,0.3196,-0.0829,
5.893209,0.1851,-0.8664,-0.2986,-1.8796,1.1665,0.5180,-0.3216,0.3196,-0.0829,
5.896190,0.2020,-0.8669,-0.3157,-1.8796,1.1665,0.5180,-0.3216,0.3196,-0.0829,
5.901791,0.2054,-0.8801,-0.3574,-1.8796,1.1665,0.5180,-0.3216,0.3196,-0.0829,
5.903140,0.2054,-0.8801,-0.3574,-1.8796,1.1665,0.5180,-0.3450,0.5551,-0.2161,
5.903850,0.2054,-0.8801,-0.3574,0.0924,0.5191,0.1205,-0.3450,0.5551,-0.2161,
5.905807,0.2037,-0.8989,-0.4014,0.0924,0.5191,0.1205,-0.3450,0.5551,-0.2161,
5.911408,0.1956,-0.9216,-0.4268,0.0924,0.5191,0.1205,-0.3450,0.5551,-0.2161,
5.916199,0.1700,-0.9487,-0.4312,0.0924,0.5191,0.1205,-0.3450,0.5551,-0.2161,
5.920385,0.1399,-0.9634,-0.4227,0.0924,0.5191,0.1205,-0.3450,0.5551,-0.2161,
5.926380,0.1018,-0.9653,-0.4139,0.0924,0.5191,0.1205,-0.3450,0.5551,-0.2161,
5.930441,0.0654,-0.9614,-0.4029,0.0924,0.5191,0.1205,-0.3450,0.5551,-0.2161,
5.935215,0.0329,-0.9514,-0.3919,0.0924,0.5191,0.1205,-0.3450,0.5551,-0.2161,
5.939831,0.0007,-0.9307,-0.3587,0.0924,0.5191,0.1205,-0.3450,0.5551,-0.2161,
5.941010,0.0007,-0.9307,-0.3587,0.0924,0.5191,0.1205,-0.4601,0.6360,-0.3770,
5.941945,0.0007,-0.9307,-0.3587,-0.1118,0.4433,0.2526,-0.4601,0.6360,-0.3770,
5.946285,-0.0032,-0.9013,-0.3098,-0.1118,0.4433,0.2526,-0.4601,0.6360,-0.3770,
5.949579,0.0146,-0.8806,-0.2805,-0.1118,0.4433,0.2526,-0.4601,0.6360,-0.3770,
5.955958,0.0539,-0.8764,-0.2986,-0.1118,0.4433,0.2526,-0.4601,0.6360,-0.3770,
5.960546,0.0744,-0.8759,-0.3296,-0.1118,0.4433,0.2526,-0.4601,0.6360,-0.3770,
5.965899,0.1038,-0.8855,-0.3831,-0.1118,0.4433,0.2526,-0.4601,0.6360,-0.3770,
5.971479,0.1172,-0.9055,-0.4373,-0.1118,0.4433,0.2526,-0.4601,0.6360,-0.3770,
5.976884,0.1343,-0.9353,-0.4490,-0.1118,0.4433,0.2526,-0.4601,0.6360,-0.3770,
5.980798,0.1365,-0.9480,-0.4085,-0.1118,0.4433,0.2526,-0.4601,0.6360,-0.3770,
5.981937,0.1365,-0.9480,-0.4085,-0.1118,0.4433,0.2526,-0.3961,0.5338,-0.3844,
5.983432,0.1365,-0.9480,-0.4085,-0.4324,0.3016,-0.8445,-0.3961,0.5338,-0.3844,
5.984839,0.1421,-0.9495,-0.3352,-0.4324,0.3016,-0.8445,-0.3961,0.5338,-0.3844,
5.990246,0.1372,-0.9517,-0.2260,-0.4324,0.3016,-0.8445,-0.3961,0.5338,-0.3844,
5.995373,0.1502,-0.9519,-0.1065,-0.4324,0.3016,-0.8445,-0.3961,0.5338,-0.3844,
6.000551,0.1744,-0.9514,-0.0266,-0.4324,0.3016,-0.8445,-0.3961,0.5338,-0.3844,
6.005456,0.2232,-0.9624,-0.0083,-0.4324,0.3016,-0.8445,-0.3961,0.5338,-0.3844,
6.012368,0.2828,-0.9800,-0.0503,-0.4324,0.3016,-0.8445,-0.3961,0.5338,-0.3844,
6.015452,0.3490,-1.0035,-0.1385,-0.4324,0.3016,-0.8445,-0.3961,0.5338,-0.3844,
6.020969,0.3490,-1.0035,-0.1385,-0.4403,0.1570,0.3585,-0.3961,0.5338,-0.3844,
6.022465,0.3962,-1.0357,-0.2387,-0.4403,0.1570,0.3585,-0.3961,0.5338,-0.3844,
6.023611,0.3962,-1.0357,-0.2387,-0.4403,0.1570,0.3585,-0.2950,0.3047,-0.1075,
6.024420,0.4067,-1.0677,-0.3169,-0.4403,0.1570,0.3585,-0.2950,0.3047,-0.1075,
6.030236,0.3708,-1.0958,-0.3469,-0.4403,0.1570,0.3585,-0.2950,0.3047,-0.1075,
6.035327,0.2853,-1.1215,-0.3394,-0.4403,0.1570,0.3585,-0.2950,0.3047,-0.1075,
6.040152,0.1968,-1.1347,-0.3003,-0.4403,0.1570,0.3585,-0.2950,0.3047,-0.1075,
6.046008,0.1358,-1.1366,-0.2367,-0.4403,0.1570,0.3585,-0.2950,0.3047,-0.1075,
6.049422,0.1057,-1.1369,-0.1649,-0.4403,0.1570,0.3585,-0.2950,0.3047,-0.1075,
6.054721,0.1069,-1.1281,-0.1014,-0.4403,0.1570,0.3585,-0.2950,0.3047,-0.1075,
6.060632,0.1240,-1.1193,-0.0701,-0.4403,0.1570,0.3585,-0.2950,0.3047,-0.1075,
6.061861,0.1240,-1.1193,-0.0701,-0.4403,0.1570,0.3585,-0.2800,0.3047,0.0651,
6.062583,0.1240,-1.1193,-0.0701,-0.4442,0.1270,0.4323,-0.2800,0.3047,0.0651,
6.064633,0.1465,-1.1129,-0.0577,-0.4442,0.1270,0.4323,-0.2800,0.3047,0.0651,
6.069315,0.1751,-1.1146,-0.0608,-0.4442,0.1270,0.4323,-0.2800,0.3047,0.0651,
6.073958,0.1900,-1.1139,-0.0657,-0.4442,0.1270,0.4323,-0.2800,0.3047,0.0651,
6.079604,0.2012,-1.1129,-0.0672,-0.4442,0.1270,0.4323,-0.2800,0.3047,0.0651,
6.084173,0.2110,-1.1227,-0.0674,-0.4442,0.1270,0.4323,-0.2800,0.3047,0.0651,
6.089189,0.2098,-1.1263,-0.0640,-0.4442,0.1270,0.4323,-0.2800,0.3047,0.0651,
6.094451,0.2025,-1.1271,-0.0608,-0.4442,0.1270,0.4323,-0.2800,0.3047,0.0651,
6.100272,0.2025,-1.1271,-0.0608,0.4900,-1.5491,1.0759,-0.2800,0.3047,0.0651,
6.101906,0.2049,-1.1354,-0.0735,0.4900,-1.5491,1.0759,-0.2800,0.3047,0.0651,
6.103125,0.2049,-1.1354,-0.0735,0.4900,-1.5491,1.0759,0.0001,0.2547,0.0939,
6.104230,0.2083,-1.1281,-0.0723,0.4900,-1.5491,1.0759,0.0001,0.2547,0.0939,
6.110550,0.2276,-1.1244,-0.0777,0.4900,-1.5491,1.0759,0.0001,0.2547,0.0939,
6.113571,0.2452,-1.1202,-0.0826,0.4900,-1.5491,1.0759,0.0001,0.2547,0.0939,
6.118817,0.2596,-1.1127,-0.0889,0.4900,-1.5491,1.0759,0.0001,0.2547,0.0939,
6.122481,0.2784,-1.1095,-0.1026,0.4900,-1.5491,1.0759,0.0001,0.2547,0.0939,
6.127703,0.2897,-1.1083,-0.1183,0.4900,-1.5491,1.0759,0.0001,0.2547,0.0939,
6.133092,0.2887,-1.1097,-0.1236,0.4900,-1.5491,1.0759,0.0001,0.2547,0.0939,
6.137243,0.2936,-1.1041,-0.1170,0.4900,-1.5491,1.0759,0.0001,0.2547,0.0939,
6.138082,0.2936,-1.1041,-0.1170,0.4900,-1.5491,1.0759,0.4933,0.4240,0.0950,
6.138862,0.2936,-1.1041,-0.1170,0.5672,-1.6261,1.8302,0.4933,0.4240,0.0950,
