time,gFx,gFy,gFz,ax,ay,az,wx,wy,wz
2022-02-06 21:39:58.7690,0.082,-0.59,-0.757,-0.14,-0.24,-0.23,-0.3,-0.31,-0.16
2022-02-06 21:40:01.8660,0.074,-0.595,-0.75,-0.06,-0.18,-0.39,-0.19,-0.24,-0.2
2022-02-06 21:40:01.8700,0.072,-0.607,-0.751,-0.06,-0.05,-0.37,-0.06,-0.15,-0.22
2022-02-06 21:40:01.8810,0.069,-0.615,-0.738,-0.02,0.04,-0.49,-0.06,-0.15,-0.23600906133651733
2022-02-06 21:40:01.8910,0.068,-0.614,-0.713,0.0,0.04,-0.72,0.19,0.09,-0.24
2022-02-06 21:40:01.9000,0.06,-0.621,-0.696,0.08,0.08,-0.91,0.29,0.2,-0.23
2022-02-06 21:40:01.9110,0.049,-0.632,-0.707,0.31,0.14,-0.58,0.33,0.24,-0.22
2022-02-06 21:40:01.9210,0.045,-0.629,-0.729,0.31,0.14,-0.58,0.31,0.22,-0.22
2022-02-06 21:40:01.9310,0.044,-0.623,-0.747,0.34,0.05,-0.37,0.27,0.14,-0.24
2022-02-06 21:40:01.9410,0.037,-0.613,-0.763,0.49,-0.22,-0.1,0.23,0.02,-0.28
2022-02-06 21:40:01.9510,0.033,-0.597,-0.768,0.65,-0.27,-0.23,0.19,-0.05,-0.33
2022-02-06 21:40:01.9610,0.017,-0.594,-0.756,0.72,-0.37,-0.14,0.19,-0.1,-0.39
2022-02-06 21:40:01.9710,0.013,-0.585,-0.763,0.72,-0.37,-0.14,0.19,-0.1,-0.39
2022-02-06 21:40:01.9810,0.003,-0.601,-0.754,0.83,-0.26,-0.2,0.2,-0.1,-0.46
2022-02-06 21:40:01.9910,-0.001,-0.631,-0.739,0.92,0.02,-0.35,0.21,0.05,-0.49
2022-02-06 21:40:02.0010,0.009,-0.645,-0.745,0.86,0.17,-0.31,0.16,0.14,-0.49
2022-02-06 21:40:02.0110,0.022,-0.641,-0.769,0.65,0.06,0.3,0.12,0.19,-0.49
2022-02-06 21:40:02.0210,0.04,-0.632,-0.809,0.65,0.06,0.3,0.1,0.16,-0.5
2022-02-06 21:40:02.0310,0.051,-0.629,-0.849,0.55,0.0,0.91,0.11,0.09,-0.52
2022-02-06 21:40:02.0410,0.057,-0.628,-0.865,0.55,0.0,0.91,0.12,-0.01,-0.54
2022-02-06 21:40:02.0510,0.061,-0.634,-0.853,0.53,0.09,0.65,0.16,-0.12,-0.57
2022-02-06 21:40:02.0620,0.065,-0.637,-0.833,0.53,0.09,0.65,0.2,-0.23,-0.61
2022-02-06 21:40:02.0710,0.057,-0.643,-0.806,0.6,0.13,0.4,0.25,-0.36,-0.65
2022-02-06 21:40:02.0810,0.035,-0.648,-0.797,1.25,0.04,0.3,0.3,-0.52,-0.72
2022-02-06 21:40:02.0910,-0.012,-0.633,-0.796,1.25,0.04,0.3,0.26,-0.62,-0.78
2022-02-06 21:40:02.1010,0.008,-0.661,-0.729,1.18,0.19,-0.25,0.23,-0.53,-0.78
2022-02-06 21:40:02.1110,0.032,-0.773,-0.605,0.92,1.95,-2.05,0.29,-0.29,-0.69
2022-02-06 21:40:02.1220,0.033,-0.832,-0.557,1.03,1.7,-1.35,0.35,-0.11,-0.59
2022-02-06 21:40:02.1310,0.019,-0.804,-0.637,1.03,1.7,-1.35,0.31,-0.09,-0.54
2022-02-06 21:40:02.1420,-0.006,-0.751,-0.704,1.34,1.18,-0.61,0.21,-0.11,-0.5
2022-02-06 21:40:02.1510,0.021,-0.731,-0.738,1.15,0.9476863074302674,0.07815914690494538,0.13,-0.17,-0.48
2022-02-06 21:40:02.1620,0.049,-0.733,-0.771,0.87,0.94,0.07,0.13,-0.28,-0.47
2022-02-06 21:40:02.1720,0.069,-0.719,-0.815,0.66,0.81,0.69,0.1,-0.44,-0.47
2022-02-06 21:40:02.1820,0.068,-0.723,-0.828,0.66,0.81,0.69,0.08,-0.59,-0.45
2022-02-06 21:40:02.1920,0.068,-0.731,-0.818,0.53,0.85,0.22,0.05,-0.69,-0.42
2022-02-06 21:40:02.2020,0.078,-0.722,-0.777,0.48,0.72,-0.11,0.02,-0.72,-0.39
2022-02-06 21:40:02.2120,0.079,-0.712,-0.748,0.48,0.72,-0.11,-0.03,-0.76,-0.37
2022-02-06 21:40:02.2210,0.066,-0.725,-0.731,0.56,0.85,-0.26,-0.05,-0.73,-0.35
2022-02-06 21:40:02.2320,0.062,-0.739,-0.691,0.59,0.98,-0.66,-0.07,-0.64,-0.33
2022-02-06 21:40:02.2420,0.065,-0.759,-0.653,0.54,1.19,-1.05,-0.11,-0.52,-0.3
2022-02-06 21:40:02.2520,0.078,-0.771,-0.647,0.17,1.27,-0.99,-0.14,-0.43,-0.26
2022-02-06 21:40:02.2620,0.1,-0.76,-0.669,0.17,1.27,-0.99,-0.13,-0.36,-0.22
2022-02-06 21:40:02.2720,0.105,-0.758,-0.699,0.08,1.23,-0.72,-0.11,-0.35,-0.19
2022-02-06 21:40:02.2820,0.092,-0.773,-0.717,0.21,1.4,-0.45,-0.08,-0.34,-0.15
2022-02-06 21:40:02.2920,0.088,-0.77,-0.726,0.21,1.4,-0.45,-0.03,-0.37,-0.1
2022-02-06 21:40:02.3020,0.087,-0.755,-0.736,0.26,1.2,-0.36,-0.03,-0.37,-0.1
2022-02-06 21:40:02.3120,0.077,-0.751,-0.735,0.26,1.2,-0.36,0.06,-0.42,-0.07
2022-02-06 21:40:02.3220,0.058,-0.745,-0.726,0.41,1.15,-0.43,0.09,-0.45,-0.04
2022-02-06 21:40:02.3320,0.047,-0.745,-0.704,0.5,1.13,-0.64,0.09,-0.46,-0.01
2022-02-06 21:40:02.3420,0.043,-0.747,-0.673,0.51,1.15,-0.93,0.1,-0.42,0.04
2022-02-06 21:40:02.3510,0.033,-0.745,-0.653,0.56,1.12,-1.15,0.11,-0.36,0.09
2022-02-06 21:40:02.3620,0.021,-0.747,-0.647,0.64,1.13,-1.22,0.12,-0.31,0.13
2022-02-06 21:40:02.3720,0.012,-0.747,-0.643,0.78,1.03,-1.32,0.14,-0.22,0.19
2022-02-06 21:40:02.3820,0.001,-0.737,-0.636,0.78,1.03,-1.32,0.19,-0.12,0.23
2022-02-06 21:40:02.3920,-0.011,-0.709,-0.64,0.89,0.76,-1.28,0.19,-0.12,0.23
2022-02-06 21:40:02.4020,-0.02,-0.674,-0.648,1.03,0.11,-1.04,0.36,0.06,0.23
2022-02-06 21:40:02.4120,-0.029,-0.648,-0.66,1.03,0.11,-1.04,0.42,0.11,0.23
2022-02-06 21:40:02.4220,-0.04,-0.635,-0.661,1.13,-0.07,-0.99,0.49,0.16,0.23
2022-02-06 21:40:02.4320,-0.058,-0.628,-0.647,1.29,-0.17,-1.08,0.57,0.23,0.22
2022-02-06 21:40:02.4420,-0.086,-0.616,-0.62,1.8,-0.53,-1.62,0.68,0.32,0.19
2022-02-06 21:40:02.4520,-0.107,-0.601,-0.581,1.8,-0.53,-1.62,0.77,0.46,0.14
2022-02-06 21:40:02.4630,-0.119,-0.587,-0.562,1.73,-0.3,-0.69,0.85,0.47,0.11
2022-02-06 21:40:02.4730,-0.082,-0.656,-0.699,1.73,-0.3,-0.69,0.85,0.15,0.26
2022-02-06 21:40:02.4820,0.075,-0.867,-0.867,0.24,1.62,1.29,0.74,-0.08,0.55
2022-02-06 21:40:02.4930,0.121,-0.973,-0.81,-0.34,2.1,1.32,0.58,-0.34,0.84
2022-02-06 21:40:02.5030,0.099,-0.878,-0.865,-0.34,2.1,1.32,0.44,-0.47,0.93
2022-02-06 21:40:02.5120,0.035,-0.682,-0.854,0.51,-1.28,1.15,0.4,-0.47,0.86
2022-02-06 21:40:02.5230,0.001,-0.55,-0.835,-0.46,-1.83,0.77,0.34,-0.13,0.56
2022-02-06 21:40:02.5330,0.105,-0.511,-0.796,-0.46,-1.83,0.77,0.26,0.11,0.32
2022-02-06 21:40:02.5420,0.059,-0.613,-0.78,-0.3,-0.49,0.28,0.49,0.26,0.49
2022-02-06 21:40:02.5530,0.085,-0.646,-0.759,-0.74,-1.2,2.65,0.44,0.31,0.54
2022-02-06 21:40:02.5630,0.111,-0.572,-1.005,-0.19,-1.74,2.81,0.39,0.2,0.55
2022-02-06 21:40:02.5730,0.054,-0.524,-0.974,-0.19,-1.74,2.81,0.43,0.17,0.41
2022-02-06 21:40:02.5830,0.039,-0.501,-0.873,-0.04,-2.02,1.68,0.44,0.06,0.27
2022-02-06 21:40:02.5930,0.037,-0.476,-0.882,0.0,-2.31,1.78,0.44,-0.02,0.23
2022-02-06 21:40:02.6030,0.057,-0.487,-0.868,-0.21,-2.26,1.66,0.4,-0.11,0.29
2022-02-06 21:40:02.6130,0.084,-0.504,-0.887,-0.49,-2.13,1.86,0.35,-0.19,0.35
2022-02-06 21:40:02.6230,0.092,-0.528,-0.905,-0.67,-1.93,2.05,0.35,-0.3,0.31
2022-02-06 21:40:02.6330,0.056,-0.563,-0.918,-0.36,-1.62,2.24,0.39,-0.36,0.28
2022-02-06 21:40:02.6440,0.063,-0.586,-0.922,-0.44,-1.39,2.27,0.44,-0.41,0.3
2022-02-06 21:40:02.6530,0.061,-0.584,-0.936,-0.5,-1.41,2.46,0.48,-0.41,0.34
2022-02-06 21:40:02.6630,0.043,-0.569,-0.912,-0.21,-1.76,2.09,0.49,-0.32,0.39
2022-02-06 21:40:02.6740,0.021,-0.555,-0.889,-0.04,-1.86,1.97,0.44,-0.19,0.43
2022-02-06 21:40:02.6830,-0.001,-0.549,-0.875,-0.04,-1.86,1.97,0.32,-0.1,0.44
2022-02-06 21:40:02.6930,-0.024,-0.538,-0.872,0.15,-1.96,1.94,0.15,-0.09,0.41
2022-02-06 21:40:02.7030,-0.036,-0.523,-0.878,0.23,-2.14,2.09,-0.02,-0.13,0.35
2022-02-06 21:40:02.7130,-0.038,-0.524,-0.887,0.17,-2.1,2.2,-0.13,-0.21,0.26
2022-02-06 21:40:02.7230,-0.035,-0.526,-0.899,0.14,-2.15,2.16,-0.16,-0.28,0.15
2022-02-06 21:40:02.7330,-0.034,-0.519,-0.893,0.13,-2.25,2.07,-0.13,-0.3,0.02
2022-02-06 21:40:02.7440,-0.036,-0.507,-0.888,0.13,-2.25,2.07,-0.09,-0.31,-0.1
2022-02-06 21:40:02.7540,-0.038,-0.499,-0.893,0.14,-2.33,2.13,-0.05,-0.29,-0.2
2022-02-06 21:40:02.7630,-0.045,-0.489,-0.887,0.31,-2.6,1.91,0.01,-0.23,-0.26
2022-02-06 21:40:02.7730,-0.056,-0.469,-0.867,0.31,-2.6,1.91,0.09,-0.1,-0.3
2022-02-06 21:40:02.7840,-0.048,-0.455,-0.832,0.27,-2.76,1.57,0.15,0.05,-0.33
2022-02-06 21:40:02.7930,-0.032,-0.451,-0.821,0.14,-2.82,1.43,0.17,0.14,-0.34
2022-02-06 21:40:02.8030,-0.008,-0.46,-0.81,-0.23,-2.67,1.14,0.14,0.19,-0.35
2022-02-06 21:40:02.8140,0.013,-0.469,-0.787,-0.38,-2.6,1.01,0.08,0.2,-0.36
2022-02-06 21:40:02.8240,0.032,-0.477,-0.774,-0.5,-2.42,0.84,0.0,0.21,-0.37
2022-02-06 21:40:02.8340,0.047,-0.496,-0.756,-0.5,-2.42,0.84,-0.07,0.2,-0.36
2022-02-06 21:40:02.8440,0.056,-0.518,-0.748,-0.55,-2.2,0.73,-0.14,0.18,-0.34
2022-02-06 21:40:02.8540,0.062,-0.542,-0.757,-0.56,-1.67,0.9,-0.19,0.14,-0.3
2022-02-06 21:40:02.8640,0.063,-0.571,-0.769,-0.55,-1.4,0.9,-0.2,0.11,-0.25
2022-02-06 21:40:02.8740,0.065,-0.595,-0.769,-0.55,-1.4,0.9,-0.19,0.1,-0.2
2022-02-06 21:40:02.8840,0.062,-0.615,-0.781,-0.51,-1.2,0.97,-0.19,0.1,-0.2
2022-02-06 21:40:02.8940,0.053,-0.637,-0.816,-0.29,-0.72,1.46,-0.21,0.03,-0.09
2022-02-06 21:40:02.9040,0.042,-0.661,-0.831,-0.23,-0.54,1.54,-0.2,0.07,-0.05
2022-02-06 21:40:02.9140,0.037,-0.677,-0.844,-0.23,-0.54,1.54,-0.17,0.1,-0.05
2022-02-06 21:40:02.9240,0.031,-0.689,-0.881,-0.08,-0.28,2.08,-0.17,0.08,-0.08
2022-02-06 21:40:02.9340,0.023,-0.7,-0.9,0.04,-0.22,2.14,-0.19,0.06,-0.13
2022-02-06 21:40:02.9440,0.012,-0.704,-0.909,0.04,-0.22,2.14,-0.28,0.03,-0.2
2022-02-06 21:40:02.9540,0.011,-0.713,-0.924,0.01,0.01,2.46,-0.28,0.03,-0.2
2022-02-06 21:40:02.9720,0.02,-0.724,-0.947,-0.06,0.07,2.71,-0.39,-0.03,-0.26
2022-02-06 21:40:02.9750,0.029,-0.724,-0.978,-0.06,0.07,2.71,-0.56,-0.17,-0.3
2022-02-06 21:40:02.9830,0.023,-0.716,-1.017,0.12,-0.08,3.26,-0.55,-0.16,-0.3
2022-02-06 21:40:03.0020,0.009,-0.698,-1.039,0.27,-0.29,3.29,-0.46,-0.07,-0.3
2022-02-06 21:40:03.0030,-0.003,-0.674,-1.044,0.32,-0.41,3.2,-0.32,0.07,-0.3
Time,-0.005,-0.661,-1.036,0.3,-0.42,3.12,-0.18,0.2,-0.29
2022-02-06 21:40:03.0320,0.002,-0.66,-1.029,0.21,-0.35,2.96,-0.18,0.2,-0.29
2022-02-06 21:40:03.0420,0.015,-0.667,-1.012,0.13,-0.27,2.73,-0.01,0.28,-0.24
2022-02-06 21:40:03.0430,0.027,-0.675,-0.989,0.07,-0.21,2.56,0.04,0.21,-0.2
2022-02-06 21:40:03.0520,0.035,-0.681,-0.973,0.07,-0.21,2.56,0.1,0.05,-0.16
2022-02-06 21:40:03.0630,0.037,-0.684,-0.968,0.05,-0.18,2.53,0.1,0.05,-0.16
2022-02-06 21:40:03.0740,0.032,-0.678,-0.939,0.22,-0.4,1.95,0.3,-0.29,-0.1
2022-02-06 21:40:03.0840,0.016,-0.662,-0.903,0.22,-0.4,1.95,0.4,-0.4,-0.07
2022-02-06 21:40:03.0940,-0.004,-0.65,-0.852,0.4,-0.57,1.51,0.5,-0.38,-0.03
2022-02-06 21:40:03.1040,-0.008,-0.66,-0.779,0.45,-0.52,0.82,0.56,-0.32,-0.02
2022-02-06 21:40:03.1150,0.004,-0.676,-0.741,0.32,-0.39,0.43,0.55,-0.32,-0.03
2022-02-06 21:40:03.1250,0.015,-0.688,-0.735,0.18,-0.31,0.39,0.46,-0.37,-0.04
2022-02-06 21:40:03.1340,0.005,-0.694,-0.721,0.22,-0.28,0.31,0.36,-0.35,-0.04
2022-02-06 21:40:03.1450,-0.013,-0.695,-0.689,0.38,-0.28,0.03,0.31,-0.25,-0.02
2022-02-06 21:40:03.1550,-0.023,-0.69,-0.656,0.45,-0.39,-0.45,0.32,-0.12,-0.03
2022-02-06 21:40:03.1650,-0.02,-0.69,-0.639,0.45,-0.39,-0.5288660377264023,0.35,-0.03,-0.04
2022-02-06 21:40:03.1750,-0.015,-0.706,-0.627,0.4,-0.05,-0.67,0.34,-0.0,-0.05
2022-02-06 21:40:03.1850,-0.015,-0.73,-0.611,0.41,0.14,-0.85,0.27,-0.02,-0.05
2022-02-06 21:40:03.1950,-0.016,-0.751,-0.59,0.41,0.14,-0.85,0.27,-0.02,-0.05
2022-02-06 21:40:03.2050,-0.024,-0.766,-0.583,0.62,0.24,-0.9,0.03,-0.13,-0.06
2022-02-06 21:40:03.2150,-0.041,-0.757,-0.587,0.8576891800761224,0.0,-0.87,-0.06,-0.2,-0.09
2022-02-06 21:40:03.2250,-0.065,-0.732,-0.59,1.07,-0.29,-0.97,-0.09,-0.19,-0.13
2022-02-06 21:40:03.2350,-0.087,-0.701,-0.579,1.2135472163558008,-0.553636012673378,-1.11,-0.03,-0.11,-0.17
2022-02-06 21:40:03.2460,-0.099,-0.674,-0.564,1.21,-0.56,-1.11,0.07,0.02,-0.2
2022-02-06 21:40:03.2550,-0.095,-0.66,-0.537,1.21,-0.72,-1.36,0.19,0.17,-0.21
2022-02-06 21:40:03.2650,-0.076,-0.663,-0.51,0.81,-0.64,-1.79,0.26,0.27,-0.2
2022-02-06 21:40:03.2760,-0.047,-0.673,-0.492,0.58,-0.52,-1.92,0.27,0.34,-0.18
2022-02-06 21:40:03.2860,-0.021,-0.687,-0.477,0.58,-0.52,-1.92,0.25,0.35,-0.12
2022-02-06 21:40:03.2950,0.003,-0.7,-0.469,0.38,-0.41,-1.99,0.22,0.3,-0.03
2022-02-06 21:40:03.3050,0.024,-0.711,-0.474,0.19,-0.31,-1.95,0.23,0.18,0.07
2022-02-06 21:40:03.3150,0.037,-0.718,-0.492,0.0,-0.19,-1.66,0.26,0.02,0.17
2022-02-06 21:40:03.3260,0.04,-0.726,-0.499,-0.01,-0.17,-1.59,0.31,-0.14,0.24
2022-02-06 21:40:03.3350,0.038,-0.73,-0.504,-0.01,-0.17,-1.59,0.35,-0.3,0.28
2022-02-06 21:40:03.3450,0.03,-0.732,-0.508,0.1,-0.14,-1.57,0.38,-0.39,0.29
2022-02-06 21:40:03.3560,0.017,-0.737,-0.499,0.14,-0.16,-1.56,0.4,-0.42,0.3
2022-02-06 21:40:03.3650,0.009,-0.738,-0.499,0.13,-0.19,-1.57,0.41,-0.42,0.3
2022-02-06 21:40:03.3750,0.006,-0.737,-0.493,0.13,-0.19,-1.57,0.41,-0.36,0.28
2022-02-06 21:40:03.3850,0.012,-0.734,-0.485,0.03,-0.24,-1.64,0.37,-0.3,0.26
2022-02-06 21:40:03.3960,0.016,-0.733,-0.497,-0.05,-0.28,-1.51,0.29,-0.24,0.26
2022-02-06 21:40:03.4060,0.016,-0.729,-0.5,-0.1,-0.33,-1.45,0.18,-0.19,0.27
2022-02-06 21:40:03.4150,0.005,-0.722,-0.509,0.05,-0.47,-1.26,0.06,-0.15,0.27
2022-02-06 21:40:03.4260,-0.007,-0.716,-0.516,0.05,-0.47,-1.26,-0.05,-0.08,0.26
2022-02-06 21:40:03.4350,-0.019,-0.712,-0.513,0.22,-0.56,-1.21,-0.14,0.02,0.22
2022-02-06 21:40:03.4460,-0.027,-0.705,-0.525,0.21,-0.63,-1.07,-0.19,0.1,0.16
2022-02-06 21:40:03.4560,-0.026,-0.697,-0.541,0.21,-0.63,-1.07,-0.21,0.18,0.1
2022-02-06 21:40:03.4650,-0.02,-0.69,-0.556,0.16,-0.68,-0.95,-0.21,0.23,0.06
2022-02-06 21:40:03.4760,-0.013,-0.69,-0.57,0.1,-0.68,-0.83,-0.19,0.27,0.09
2022-02-06 21:40:03.4850,-0.007,-0.702,-0.591,0.03,-0.49,-0.55,-0.15,0.28,0.17
2022-02-06 21:40:03.4960,-0.006,-0.707,-0.599,0.03,-0.49,-0.55,-0.09,0.29,0.27
2022-02-06 21:40:03.5060,-0.016,-0.69,-0.605,0.12,-0.62,-0.5,-0.01,0.28,0.34
2022-02-06 21:40:03.5160,-0.027,-0.666,-0.601,0.23,-0.85,-0.52,0.05,0.24,0.36
2022-02-06 21:40:03.5260,-0.036,-0.655,-0.595,0.29,-0.99,-0.59,0.07,0.17,0.33
2022-02-06 21:40:03.5360,-0.04,-0.652,-0.592,0.34,-1.02,-0.61,0.07,0.12,0.28
2022-02-06 21:40:03.5460,-0.04,-0.65,-0.577,0.28,-1.06,-0.86,0.06,0.09,0.23
2022-02-06 21:40:03.5560,-0.036,-0.65,-0.565,0.28,-1.06,-0.86,0.06,0.11,0.2
2022-02-06 21:40:03.5660,-0.02,-0.666,-0.553,-0.06,-0.57,-1.04,0.06,0.16,0.21
2022-02-06 21:40:03.5770,-0.002,-0.705,-0.548,-0.11,-0.23,-0.99,0.05,0.21,0.27
2022-02-06 21:40:03.5860,-0.0,-0.736,-0.555,0.06,-0.23,-0.83,0.0,0.25,0.33
2022-02-06 21:40:03.5960,-0.021,-0.733,-0.57,0.06,-0.23,-0.83,-0.06,0.32,0.37
2022-02-06 21:40:03.6070,-0.063,-0.716,-0.569,0.82,-0.6,-0.89,-0.08,0.39,0.36
2022-02-06 21:40:03.6160,-0.099,-0.694,-0.563,0.96,-0.6,-1.06,-0.05,0.46,0.3
2022-02-06 21:40:03.6270,-0.109,-0.698,-0.545,0.96,-0.6,-1.06,0.03,0.5,0.2
2022-02-06 21:40:03.6360,-0.081,-0.75,-0.53,0.35,0.62,-1.18,0.09,0.44,0.1
2022-02-06 21:40:03.6460,-0.038,-0.829,-0.537,0.35,0.62,-1.18,0.05,0.28,0.03
2022-02-06 21:40:03.6560,-0.012,-0.883,-0.555,0.08,1.2,-0.99,-0.08,0.07,-0.03
2022-02-06 21:40:03.6660,-0.011,-0.897,-0.572,0.04,1.38,-0.83,-0.08,0.07,-0.03
2022-02-06 21:40:03.6760,-0.024,-0.907,-0.585,0.15,1.48,-0.72,-0.22,-0.09,-0.06
2022-02-06 21:40:03.6860,-0.033,-0.91,-0.596,0.24,1.47,-0.5,-0.26,-0.09,-0.07
2022-02-06 21:40:03.6970,-0.031,-0.899,-0.613,0.2,1.44,-0.41,-0.14,0.02,-0.1
2022-02-06 21:40:03.7070,-0.025,-0.898,-0.62,0.2,1.44,-0.41,0.02,0.14,-0.15
2022-02-06 21:40:03.7160,-0.018,-0.909,-0.612,0.03,1.74,-0.54,0.15,0.24,-0.19
2022-02-06 21:40:03.7270,-0.001,-0.932,-0.607,0.03,1.74,-0.54,0.19,0.24,-0.25
2022-02-06 21:40:03.7370,0.016,-0.964,-0.609,-0.12,2.03,-0.5,0.19,0.24,-0.25
2022-02-06 21:40:03.7470,0.035,-0.996,-0.619,-0.26,2.34,-0.41,0.13,-0.05,-0.32
2022-02-06 21:40:03.7570,0.047,-1.017,-0.63,-0.35,2.59,-0.26,0.11,-0.24,-0.31
2022-02-06 21:40:03.7670,0.043,-1.016,-0.631,-0.35,2.59,-0.26,0.15,-0.39,-0.28
2022-02-06 21:40:03.7770,0.027,-0.998,-0.622,-0.21,2.41,-0.32,0.24,-0.46,-0.25
2022-02-06 21:40:03.7870,0.011,-0.971,-0.6,-0.05,2.13,-0.5,0.37,-0.47,-0.24
2022-02-06 21:40:03.7970,0.006,-0.953,-0.564,-0.03,1.83,-1.18,0.48,-0.4,-0.25
2022-02-06 21:40:03.8070,0.008,-0.948,-0.523,-0.11,1.77,-1.56,0.53,-0.3,-0.26
2022-02-06 21:40:03.8170,0.018,-0.947,-0.481,-0.11,1.77,-1.56,0.51,-0.18,-0.26
2022-02-06 21:40:03.8270,0.037,-0.956,-0.441,-0.28,1.83,-1.91,0.43,-0.07,-0.28
2022-02-06 21:40:03.8370,0.055,-0.965,-0.408,-0.51,1.91,-2.38,0.3,0.03,-0.33
2022-02-06 21:40:03.8470,0.063,-0.968,-0.391,-0.51,1.91,-2.38,0.18,0.12,-0.4
2022-02-06 21:40:03.8570,0.071,-0.97,-0.371,-0.55,1.91,-2.57,0.06,0.2,-0.47
2022-02-06 21:40:03.8670,0.081,-0.978,-0.375,-0.6,1.99,-2.56,-0.03,0.22,-0.5
2022-02-06 21:40:03.8770,0.09,-0.991,-0.389,-0.64,2.12,-2.42,-0.08,0.2,-0.47
2022-02-06 21:40:03.8870,0.102,-0.999,-0.406,-0.74,2.23,-2.12,-0.07,0.16,-0.42
2022-02-06 21:40:03.8980,0.109,-1.0,-0.42,-0.74,2.23,-2.12,-0.02,0.11,-0.35
2022-02-06 21:40:03.9070,0.111,-0.993,-0.429,-0.73,2.19,-2.03,0.04,0.05,-0.29
2022-02-06 21:40:03.9170,0.108,-0.982,-0.437,-0.69,2.07,-1.95,0.09,-0.01,-0.26
2022-02-06 21:40:03.9270,0.098,-0.973,-0.438,-0.43,1.92,-1.97,0.1,-0.05,-0.25
2022-02-06 21:40:03.9380,0.085,-0.968,-0.432,-0.43,1.92,-1.97,0.08,-0.04,-0.27
2022-02-06 21:40:03.9470,0.073,-0.968,-0.427,-0.18,1.93,-1.89,0.01,-0.03,-0.28
2022-02-06 21:40:03.9570,0.063,-0.97,-0.444,-0.18,1.93,-1.89,-0.07,-0.02,-0.28
2022-02-06 21:40:03.9670,0.055,-0.975,-0.468,-0.08,1.98,-1.66,-0.14,-0.01,-0.28
2022-02-06 21:40:03.9780,0.05,-0.975,-0.501,0.07,1.98,-1.05,-0.18,-0.02,-0.28
2022-02-06 21:40:03.9880,0.045,-0.971,-0.534,0.17,1.92,-0.77,-0.18,-0.02,-0.25
2022-02-06 21:40:03.9980,0.036,-0.963,-0.564,0.31,1.86,-0.44,-0.15,-0.05,-0.21
2022-02-06 21:40:04.0070,0.022,-0.956,-0.599,0.31,1.86,-0.44,-0.09,-0.1,-0.14
2022-02-06 21:40:04.0180,0.004,-0.948,-0.635,0.48,1.79,-0.09,-0.01,-0.15,-0.07
2022-02-06 21:40:04.0280,-0.022,-0.943,-0.654,0.72,1.74,0.11,0.09,-0.15,0.0
2022-02-06 21:40:04.0380,-0.042,-0.941,-0.655,0.92,1.71,0.14,0.18,-0.14,0.05
2022-02-06 21:40:04.0480,-0.047,-0.942,-0.661,0.98,1.7,0.2,0.23,-0.14,0.06
2022-02-06 21:40:04.0580,-0.047,-0.946,-0.661,0.96,1.62,0.08,0.23,-0.16,0.07
2022-02-06 21:40:04.0680,-0.048,-0.934,-0.641,0.96,1.62,0.08,0.17,-0.17,0.05
2022-02-06 21:40:04.0780,-0.044,-0.912,-0.617,0.92,1.4,-0.16,0.17,-0.17,0.05
2022-02-06 21:40:04.0880,-0.039,-0.9,-0.601,0.84,1.27,-0.32,-0.14,-0.25,0.01
2022-02-06 21:40:04.0980,-0.044,-0.891,-0.608,1.08,0.95,-0.16,-0.34,-0.34,0.01
2022-02-06 21:40:04.1080,-0.073,-0.861,-0.626,1.08,0.95,-0.16,-0.54,-0.41,0.02
2022-02-06 21:40:04.1180,-0.126,-0.812,-0.651,1.55,0.52,0.03,-0.68,-0.45,0.04
2022-02-06 21:40:04.1280,-0.184,-0.758,-0.686,2.1,0.04,0.31,-0.67,-0.43,0.04
2022-02-06 21:40:04.1380,-0.229,-0.709,-0.718,2.53,-0.4,0.59,-0.51,-0.37,-0.03
2022-02-06 21:40:04.1480,-0.241,-0.673,-0.737,2.54,-0.94,0.89,-0.22,-0.34,-0.14
2022-02-06 21:40:04.1580,-0.227,-0.654,-0.753,2.54,-0.94,0.89,0.1,-0.41,-0.28
2022-02-06 21:40:04.1680,-0.198,-0.648,-0.765,1.97,-0.94,1.01,0.34,-0.58,-0.4
2022-02-06 21:40:04.1790,-0.169,-0.661,-0.757,1.65,-0.74,0.63,0.5,-0.77,-0.46
2022-02-06 21:40:04.1880,-0.137,-0.683,-0.711,1.65,-0.74,0.63,0.57,-0.94,-0.48
2022-02-06 21:40:04.1980,-0.097,-0.693,-0.667,1.23,-0.67,0.21,0.56,-1.11,-0.49
2022-02-06 21:40:04.2080,-0.059,-0.698,-0.629,0.51,-0.58,-0.48,0.45,-1.25,-0.48
2022-02-06 21:40:04.2180,-0.034,-0.709,-0.589,0.51,-0.58,-0.48,0.24,-1.3,-0.46
2022-02-06 21:40:04.2280,-0.028,-0.717,-0.542,0.39,-0.5,-0.92,-0.03,-1.21,-0.43
2022-02-06 21:40:04.2380,-0.035,-0.716,-0.504,0.4,-0.5,-1.32,-0.32,-1.03,-0.4
2022-02-06 21:40:04.2480,-0.046,-0.715,-0.491,0.53,-0.41,-1.52,-0.57,-0.8,-0.37
2022-02-06 21:40:04.2580,-0.054,-0.722,-0.496,0.55,-0.2,-1.31,-0.77,-0.59,-0.36
2022-02-06 21:40:04.2690,-0.057,-0.739,-0.526,0.55,-0.2,-1.31,-0.87,-0.47,-0.35
2022-02-06 21:40:04.2790,-0.058,-0.749,-0.571,0.54,0.09,-0.57,-0.88,-0.47,-0.37
2022-02-06 21:40:04.2890,-0.056,-0.755,-0.616,0.54,0.09,-0.57,-0.7925463318824768,-0.58,-0.41
2022-02-06 21:40:04.2990,-0.051,-0.756,-0.661,0.48,0.17,-0.18,-0.64,-0.77,-0.46
2022-02-06 21:40:04.3090,-0.044,-0.754,-0.686,0.4,0.19,0.06,-0.45,-0.97,-0.52
2022-02-06 21:40:04.3190,-0.033,-0.75,-0.682,0.27,0.18,0.0,-0.29,-1.14,-0.57
2022-02-06 21:40:04.3290,-0.016,-0.746,-0.672,-0.15,0.18,-0.27,-0.19,-1.29,-0.58
2022-02-06 21:40:04.3390,0.002,-0.747,-0.656,-0.15,0.18,-0.27,-0.14,-1.41,-0.54
2022-02-06 21:40:04.3480,0.014,-0.75,-0.644,-0.34,0.22,-0.41,-0.11,-1.5,-0.46
2022-02-06 21:40:04.3590,0.026,-0.746,-0.63,-0.67,0.22,-0.65,-0.1,-1.56,-0.36
2022-02-06 21:40:04.3690,0.031,-0.749,-0.622,-0.67,0.22,-0.65,-0.09,-1.58,-0.25
2022-02-06 21:40:04.3790,0.022,-0.756,-0.617,-0.67,0.26,-0.8,-0.07,-1.55,-0.15
2022-02-06 21:40:04.3890,0.012,-0.75,-0.606,-0.67,0.26,-0.8,-0.06,-1.49,-0.11
2022-02-06 21:40:04.3990,-0.001,-0.737,-0.603,-0.64,0.14,-0.85,-0.05,-1.44,-0.13
2022-02-06 21:40:04.4090,-0.012,-0.726,-0.601,-0.63,-0.15,-0.8,-0.03,-1.41,-0.2
2022-02-06 21:40:04.4190,-0.019,-0.705,-0.606,-0.63,-0.15,-0.8,-0.01,-1.44,-0.31
2022-02-06 21:40:04.4300,-0.014,-0.686,-0.612,-0.97,-0.45,-0.67,0.02,-1.52,-0.43
2022-02-06 21:40:04.4400,0.004,-0.678,-0.616,-0.97,-0.45,-0.67,0.07,-1.65,-0.52
2022-02-06 21:40:04.4490,0.022,-0.681,-0.626,-1.23,-0.44,-0.56,0.09,-1.77,-0.56
2022-02-06 21:40:04.4590,0.034,-0.689,-0.632,-1.56,-0.29,-0.47,0.11,-1.85,-0.55
2022-02-06 21:40:04.4690,0.038,-0.699,-0.628,-1.56,-0.29,-0.47,0.13,-1.85,-0.5
2022-02-06 21:40:04.4800,0.031,-0.702,-0.627,-1.49,-0.31,-0.4,0.14,-1.78,-0.43
2022-02-06 21:40:04.4900,0.009,-0.698,-0.631,-1.49,-0.31,-0.4,0.13,-1.68,-0.33
2022-02-06 21:40:04.4990,-0.026,-0.702,-0.664,-1.25,-0.3,-0.06,0.11,-1.57,-0.21
2022-02-06 21:40:04.5090,-0.082,-0.699,-0.68,-0.81,-0.31,0.16,0.16,-1.37,-0.1
2022-02-06 21:40:04.5190,-0.147,-0.673,-0.669,-0.26,-0.55,0.12,0.29,-1.07,-0.03
2022-02-06 21:40:04.5300,-0.2,-0.634,-0.645,0.44,-1.23,-0.29,0.48,-0.73,-0.05
2022-02-06 21:40:04.5400,-0.223,-0.612,-0.62,0.44,-1.23,-0.29,0.66,-0.49,-0.12
2022-02-06 21:40:04.5490,-0.218,-0.61,-0.627,0.4,-1.32,-0.21,0.71,-0.45,-0.19
2022-02-06 21:40:04.5600,-0.2,-0.633,-0.658,0.09,-0.72,0.42,0.59,-0.55,-0.2
2022-02-06 21:40:04.5700,-0.193,-0.685,-0.681,0.09,-0.72,0.42,0.34,-0.69,-0.13
2022-02-06 21:40:04.5800,-0.206,-0.734,-0.713,0.33659306868910793,-0.11,0.91,0.11,-0.78,-0.05
2022-02-06 21:40:04.5900,-0.227,-0.741,-0.721,0.33,-0.11,0.91,-0.09,-0.75,-0.05
2022-02-06 21:40:04.6000,-0.244,-0.706,-0.725,0.45,-0.43,0.93,-0.24,-0.63,-0.13
2022-02-06 21:40:04.6100,-0.272,-0.69,-0.729,0.69,-0.61,0.99,-0.36,-0.41,-0.22
2022-02-06 21:40:04.6200,-0.301,-0.672,-0.725,1.18,-1.08,0.99,-0.47,-0.15,-0.31
2022-02-06 21:40:04.6300,-0.32,-0.634,-0.738,1.18,-1.08,0.99,-0.57,0.05,-0.4
2022-02-06 21:40:04.6400,-0.324,-0.609,-0.766,1.27,-1.32,1.21,-0.65,0.17,-0.5
2022-02-06 21:40:04.6490,-0.312,-0.603,-0.791,1.23,-1.37,1.42,-0.7,0.25,-0.61
2022-02-06 21:40:04.6600,-0.282,-0.609,-0.809,1.0,-1.29,1.54,-0.75,0.28,-0.67
2022-02-06 21:40:04.6700,-0.255,-0.632,-0.839,0.67,-0.75,2.04,-0.78,0.25,-0.66
2022-02-06 21:40:04.6800,-0.239,-0.656,-0.874,0.69,-0.68,2.17,-0.8,0.2,-0.59
2022-02-06 21:40:04.6900,-0.236,-0.656,-0.892,0.74,-0.73,2.28,-0.77,0.16,-0.48
2022-02-06 21:40:04.7000,-0.237,-0.647,-0.909,0.82,-0.74,2.44,-0.72,0.09,-0.36
2022-02-06 21:40:04.7100,-0.241,-0.642,-0.931,0.88,-0.67,2.54,-0.68,-0.01,-0.25
2022-02-06 21:40:04.7200,-0.246,-0.645,-0.946,0.88,-0.67,2.54,-0.68,-0.1,-0.17
2022-02-06 21:40:04.7300,-0.252,-0.652,-0.961,0.94,-0.57,2.64,-0.68,-0.18,-0.12
2022-02-06 21:40:04.7400,-0.26,-0.655,-0.977,1.01,-0.48,2.75,-0.65,-0.22,-0.11
2022-02-06 21:40:04.7500,-0.272,-0.65,-0.995,1.11,-0.48,2.89,-0.59,-0.23,-0.14
2022-02-06 21:40:04.7600,-0.28,-0.641,-1.007,1.24,-0.64,3.03,-0.48,-0.21,-0.17
2022-02-06 21:40:04.7700,-0.284,-0.625,-1.015,1.23,-0.75,3.02,-0.36,-0.16,-0.2
2022-02-06 21:40:04.7800,-0.283,-0.612,-1.016,1.23,-0.75,3.02,-0.26,-0.12,-0.19
2022-02-06 21:40:04.7900,-0.278,-0.603,-1.013,1.19,-0.82,2.98,-0.18,-0.07,-0.16
2022-02-06 21:40:04.8000,-0.27,-0.6,-1.007,1.13,-0.85,2.91,-0.12,-0.0,-0.09
2022-02-06 21:40:04.8110,-0.259,-0.607,-1.003,1.03,-0.79,2.86,-0.05,0.05,0.01
2022-02-06 21:40:04.8200,-0.247,-0.609,-1.001,0.91,-0.75,2.83,0.07,0.06,0.1
2022-02-06 21:40:04.8310,-0.241,-0.605,-0.994,0.83,-0.89,2.68,0.23,0.05,0.2
2022-02-06 21:40:04.8410,-0.242,-0.595,-0.982,0.83,-0.89,2.68,0.42,0.0,0.27
2022-02-06 21:40:04.8500,-0.247,-0.592,-0.961,0.86,-0.95,2.51,0.61,-0.03,0.31
2022-02-06 21:40:04.8600,-0.25,-0.6,-0.924,0.85,-0.85,1.9,0.61,-0.03,0.31
2022-02-06 21:40:04.8710,-0.251,-0.613,-0.888,0.84,-0.76,1.62,0.82,-0.1,0.29
2022-02-06 21:40:04.8800,-0.253,-0.627,-0.854,0.84,-0.76,1.62,0.83,-0.13,0.23
2022-02-06 21:40:04.8900,-0.25,-0.644,-0.826,0.79,-0.65,1.39,0.79,-0.18,0.14
2022-02-06 21:40:04.9000,-0.245,-0.662,-0.805,0.68,-0.42,1.14,0.7,-0.24,0.04
2022-02-06 21:40:04.9110,-0.243,-0.676,-0.791,0.66,-0.43,1.08,0.58,-0.29,-0.06
2022-02-06 21:40:04.9210,-0.243,-0.677,-0.78,0.66,-0.43,1.08,0.45,-0.31,-0.17
2022-02-06 21:40:04.9310,-0.243,-0.674,-0.772,0.66,-0.5,1.03,0.45,-0.31,-0.17
2022-02-06 21:40:04.9410,-0.241,-0.677,-0.774,0.63,-0.49,1.07,0.1,-0.14,-0.37
2022-02-06 21:40:04.9500,-0.245,-0.671,-0.777,0.69,-0.55,1.1,-0.09,0.05,-0.47
2022-02-06 21:40:04.9610,-0.253,-0.656,-0.786,0.9,-0.83,1.25,-0.25,0.32,-0.57
2022-02-06 21:40:04.9710,-0.256,-0.641,-0.796,0.9,-0.83,1.25,-0.36,0.61,-0.68
2022-02-06 21:40:04.9810,-0.25,-0.629,-0.809,0.95,-0.94,1.33,-0.41,0.89,-0.79
2022-02-06 21:40:04.9910,-0.236,-0.62,-0.833,0.87,-1.01,1.73,-0.4,1.09,-0.89
2022-02-06 21:40:05.0010,-0.216,-0.62,-0.861,0.87,-1.01,1.73,-0.32,1.17,-0.94
2022-02-06 21:40:05.0110,-0.19,-0.626,-0.892,0.61,-0.88,2.17,-0.18,1.12,-0.95
2022-02-06 21:40:05.0210,-0.159,-0.632,-0.91,0.44,-0.87,2.3,-0.01,0.96,-0.94
2022-02-06 21:40:05.0320,-0.129,-0.633,-0.923,0.44,-0.87,2.3,0.16,0.73,-0.88
2022-02-06 21:40:05.0410,-0.115,-0.629,-0.914,0.39,-0.91,2.24,0.32,0.48,-0.8
2022-02-06 21:40:05.0510,-0.116,-0.614,-0.891,0.47,-1.08,2.07,0.49,0.34,-0.69
2022-02-06 21:40:05.0610,-0.131,-0.599,-0.83,0.67,-1.27,1.54,0.65,0.35,-0.56
2022-02-06 21:40:05.0720,-0.151,-0.587,-0.762,1.2,-1.52,0.33,0.8,0.48,-0.44
2022-02-06 21:40:05.0820,-0.172,-0.585,-0.698,1.42,-1.56,-0.07,0.94,0.64,-0.33
2022-02-06 21:40:05.0920,-0.185,-0.587,-0.654,1.46,-1.64,-0.4,1.06,0.74,-0.29
2022-02-06 21:40:05.1020,-0.18,-0.587,-0.613,1.46,-1.64,-0.4,1.12,0.75,-0.3
2022-02-06 21:40:05.1120,-0.167,-0.599,-0.59,1.4,-1.61,-0.56,1.13,0.66,-0.36
2022-02-06 21:40:05.1210,-0.152,-0.625,-0.561,1.33,-1.43,-0.74,1.11,0.54,-0.42
2022-02-06 21:40:05.1320,-0.125,-0.648,-0.524,0.88,-1.21,-1.14,1.07,0.39,-0.49
2022-02-06 21:40:05.1420,-0.092,-0.659,-0.506,0.88,-1.21,-1.14,1.03,0.23,-0.54
2022-02-06 21:40:05.1510,-0.058,-0.664,-0.486,0.6,-1.22,-1.26,1.03,0.23,-0.54
2022-02-06 21:40:05.1620,-0.032,-0.673,-0.473,0.24,-1.24,-1.49,0.95,-0.06,-0.48
2022-02-06 21:40:05.1720,-0.016,-0.672,-0.445,0.24,-1.24,-1.49,0.91,-0.12,-0.39
2022-02-06 21:40:05.1900,-0.005,-0.665,-0.423,0.11,-1.4,-1.63,0.84,-0.16,-0.27
2022-02-06 21:40:05.1930,-0.0,-0.668,-0.422,0.11,-1.4,-1.63,0.84,-0.16,-0.27
2022-02-06 21:40:05.2020,-0.006,-0.671,-0.427,0.16,-1.4,-1.52,0.53,-0.16,-0.09
2022-02-06 21:40:05.2120,-0.018,-0.673,-0.422,0.27,-1.41,-1.52,0.53,-0.16,-0.09
2022-02-06 21:40:05.2230,-0.027,-0.667,-0.427,0.36,-1.47,-1.47,0.12,0.14,-0.01
2022-02-06 21:40:05.2320,-0.038,-0.658,-0.447,0.61,-1.63,-1.06,-0.07,0.36,0.01
2022-02-06 21:40:05.2430,-0.049,-0.652,-0.471,0.64,-1.66,-0.69,-0.21,0.56,0.03
2022-02-06 21:40:05.2520,-0.048,-0.648,-0.512,0.63,-1.63,-0.3,-0.3,0.69,0.07
2022-02-06 21:40:05.2620,-0.043,-0.65,-0.554,0.58,-1.55,0.1,-0.32,0.75,0.13
2022-02-06 21:40:05.2800,-0.034,-0.657,-0.598,0.5,-1.49,0.45,-0.26,0.71,0.21
2022-02-06 21:40:05.2840,-0.024,-0.661,-0.634,0.43,-1.44,0.7,-0.15,0.59,0.3
2022-02-06 21:40:05.2910,-0.016,-0.666,-0.659,0.43,-1.44,0.7,-0.15,0.59,0.3
2022-02-06 21:40:05.3010,-0.011,-0.679,-0.676,0.32,-1.18,0.96,0.06,0.21,0.47
2022-02-06 21:40:05.3110,-0.009,-0.693,-0.682,0.35,-1.19,0.83,0.15,0.05,0.55
2022-02-06 21:40:05.3210,-0.019,-0.689,-0.666,0.41,-1.35,0.64,0.21,-0.04,0.59
2022-02-06 21:40:05.3320,-0.029,-0.675,-0.646,0.46,-1.39,0.47,0.21,-0.04,0.59
2022-02-06 21:40:05.3430,-0.04,-0.674,-0.626,0.46,-1.39,0.47,0.25,-0.0,0.64
2022-02-06 21:40:05.3530,-0.052,-0.671,-0.602,0.53,-1.42,0.26,0.24,0.09,0.65
2022-02-06 21:40:05.3620,-0.065,-0.666,-0.586,0.6,-1.49,0.1,0.19,0.16,0.65
2022-02-06 21:40:05.3720,-0.076,-0.669,-0.589,0.67,-1.48,0.13,0.12,0.19,0.64
2022-02-06 21:40:05.3820,-0.081,-0.682,-0.589,0.74,-1.25,0.2,0.05,0.19,0.61
2022-02-06 21:40:05.3930,-0.092,-0.693,-0.596,0.74,-1.25,0.2,-0.02,0.19,0.58
2022-02-06 21:40:05.4030,-0.107,-0.695,-0.597,0.85,-1.21,0.23,-0.02,0.19,0.58
2022-02-06 21:40:05.4120,-0.115,-0.689,-0.582,0.92,-1.26,0.08,-0.14,0.31,0.45
2022-02-06 21:40:05.4220,-0.119,-0.685,-0.579,0.94,-1.3,0.02,-0.23,0.39,0.38
2022-02-06 21:40:05.4330,-0.118,-0.688,-0.57,0.93,-1.26,-0.07,-0.36,0.48,0.33
2022-02-06 21:40:05.4430,-0.12,-0.692,-0.564,1.05,-1.17,-0.18,-0.51,0.55,0.32
2022-02-06 21:40:05.4530,-0.132,-0.691,-0.569,1.05,-1.17,-0.18,-0.64,0.61,0.33
2022-02-06 21:40:05.4630,-0.139,-0.68,-0.568,1.14,-1.25,-0.29,-0.71,0.67,0.33
2022-02-06 21:40:05.4730,-0.137,-0.675,-0.57,1.14,-1.25,-0.29,-0.73,0.68,0.31
2022-02-06 21:40:05.4830,-0.138,-0.692,-0.592,1.24,-0.7,0.16,-0.73,0.68,0.31
2022-02-06 21:40:05.4930,-0.147,-0.727,-0.631,1.24,-0.7,0.16,-0.75,0.6,0.32
2022-02-06 21:40:05.5030,-0.165,-0.761,-0.657,1.6874029415845873,-0.14421280324459076,0.5447312879562378,-0.75,0.3,0.41
2022-02-06 21:40:05.5130,-0.196,-0.767,-0.681,1.68,-0.15,0.54,-0.7,0.13,0.42
2022-02-06 21:40:05.5230,-0.224,-0.754,-0.707,1.95,-0.23,0.75,-0.58,-0.06,0.37
2022-02-06 21:40:05.5330,-0.233,-0.747,-0.719,2.03,-0.27,0.85,-0.45,-0.24,0.29
2022-02-06 21:40:05.5430,-0.222,-0.752,-0.72,1.9,-0.21,0.82,-0.35,-0.42,0.2
2022-02-06 21:40:05.5530,-0.208,-0.777,-0.718,1.71,0.03,0.79,-0.33,-0.55,0.14
2022-02-06 21:40:05.5630,-0.207,-0.814,-0.711,1.64,0.41,0.69,-0.41,-0.62,0.15
2022-02-06 21:40:05.5730,-0.218,-0.851,-0.708,1.92,1.08,0.68,-0.53,-0.61,0.2
2022-02-06 21:40:05.5830,-0.251,-0.872,-0.719,1.92,1.08,0.68,-0.53,-0.61,0.2
2022-02-06 21:40:05.5930,-0.291,-0.866,-0.731,2.65,0.91,0.88,-0.72,-0.47,0.32
2022-02-06 21:40:05.6040,-0.337,-0.841,-0.75,2.65,0.91,0.88,-0.67,-0.39,0.29
2022-02-06 21:40:05.6130,-0.377,-0.816,-0.771,3.02,0.71,1.04,-0.56,-0.33,0.16
2022-02-06 21:40:05.6230,-0.407,-0.798,-0.785,3.29,0.56,1.15,-0.4,-0.31,-0.06
2022-02-06 21:40:05.6330,-0.42,-0.791,-0.777,3.36,0.6,0.9,-0.29,-0.33,-0.3
2022-02-06 21:40:05.6430,-0.412,-0.801,-0.762,3.36,0.6,0.9,-0.29,-0.33,-0.3
2022-02-06 21:40:05.6530,-0.387,-0.825,-0.74,3.14,0.84,0.68,-0.26,-0.44,-0.67
2022-02-06 21:40:05.6640,-0.359,-0.841,-0.716,2.67,1.01,0.18,-0.32,-0.51,-0.76
2022-02-06 21:40:05.6740,-0.335,-0.834,-0.694,2.51,0.81,-0.01,-0.37,-0.55,-0.8
2022-02-06 21:40:05.6830,-0.317,-0.811,-0.678,2.43,0.57,-0.11,-0.4,-0.58,-0.83
2022-02-06 21:40:05.6940,-0.308,-0.783,-0.671,2.43,0.57,-0.11,-0.39,-0.57,-0.85
2022-02-06 21:40:05.7030,-0.305,-0.75,-0.668,2.416630547940731,0.006868139505386353,-0.15,-0.34,-0.56,-0.88
2022-02-06 21:40:05.7140,-0.302,-0.721,-0.673,2.41,0.0,-0.15,-0.27,-0.56,-0.93
2022-02-06 21:40:05.7230,-0.296,-0.696,-0.687,2.39,-0.23,-0.04,-0.19,-0.62,-1.0
2022-02-06 21:40:05.7340,-0.281,-0.678,-0.697,2.28,-0.41,0.05,-0.19,-0.72,-1.07
2022-02-06 21:40:05.7440,-0.261,-0.666,-0.705,2.12,-0.54,0.13,-0.0,-0.88,-1.13
2022-02-06 21:40:05.7530,-0.241,-0.659,-0.718,1.93,-0.61,0.25,0.09,-1.08,-1.16
2022-02-06 21:40:05.7640,-0.223,-0.648,-0.728,1.76,-0.72,0.37,0.17,-1.28,-1.18
2022-02-06 21:40:05.7730,-0.204,-0.624,-0.727,1.57,-0.96,0.39,0.22,-1.44,-1.19
2022-02-06 21:40:05.7840,-0.187,-0.601,-0.719,1.39,-1.21,0.33,0.26,-1.54,-1.2
2022-02-06 21:40:05.7940,-0.172,-0.586,-0.701,1.05,-1.48,0.02,0.28,-1.55,-1.2
2022-02-06 21:40:05.8040,-0.155,-0.58,-0.68,1.05,-1.48,0.02,0.27,-1.48,-1.2
2022-02-06 21:40:05.8140,-0.136,-0.584,-0.653,0.62,-1.3,-0.45,0.25,-1.31,-1.18
2022-02-06 21:40:05.8240,-0.113,-0.608,-0.627,0.42,-1.0,-0.6,0.25,-1.31,-1.18
2022-02-06 21:40:05.8340,-0.091,-0.641,-0.612,0.42,-1.0,-0.6,0.19,-0.92,-1.06
2022-02-06 21:40:05.8340,-0.07,-0.683,-0.61,0.42,-1.0,-0.6,0.17,-0.79,-0.95
2022-02-06 21:40:05.8490,-0.05,-0.735,-0.61,0.24,-0.63,-0.59,0.2,-0.75,-0.82
2022-02-06 21:40:05.8590,-0.031,-0.777,-0.611,0.05,-0.14,-0.57,0.27,-0.81,-0.72
2022-02-06 21:40:05.8680,-0.018,-0.804,-0.616,-0.14,0.27,-0.54,0.37,-0.99,-0.66
2022-02-06 21:40:05.8790,-0.008,-0.831,-0.633,-0.29,0.52,-0.47,0.38,-1.3,-0.62
2022-02-06 21:40:05.8890,-0.002,-0.875,-0.66,-0.43,0.75,-0.3,0.28,-1.66,-0.56
2022-02-06 21:40:05.8990,-0.008,-0.946,-0.661,-0.57,1.13,0.01,0.07,-1.94,-0.46
2022-02-06 21:40:05.9090,-0.026,-1.017,-0.649,-0.61,1.8,0.07,-0.17,-2.07,-0.37
2022-02-06 21:40:05.9190,-0.052,-1.049,-0.642,-0.55,2.53,-0.05,-0.37,-2.06,-0.32
2022-02-06 21:40:05.9290,-0.082,-1.055,-0.631,-0.42,2.91,-0.13,-0.48,-1.88,-0.32
2022-02-06 21:40:05.9390,-0.108,-1.049,-0.626,-0.22,3.02,-0.25,-0.48,-1.6,-0.36
2022-02-06 21:40:05.9490,-0.122,-1.031,-0.632,-0.04,3.0,-0.34,-0.41,-1.32,-0.44
2022-02-06 21:40:05.9590,-0.113,-1.018,-0.64,0.07,2.86,-0.31,-0.3,-1.11,-0.54
2022-02-06 21:40:05.9690,-0.086,-1.022,-0.66,-0.03,2.73,-0.24,-0.19,-1.06,-0.61
2022-02-06 21:40:05.9790,-0.043,-1.039,-0.679,-0.3,2.76,-0.06,-0.1,-1.13,-0.65
2022-02-06 21:40:05.9890,-0.003,-1.057,-0.697,-0.73,2.91,0.15,-0.01,-1.33,-0.64
2022-02-06 21:40:05.9990,0.036,-1.071,-0.721,-1.17,3.09,0.32,0.08,-1.61,-0.59
2022-02-06 21:40:06.0090,0.066,-1.076,-0.728,-1.62,3.22,0.59,0.2,-1.88,-0.54
2022-02-06 21:40:06.0190,0.086,-1.067,-0.729,-2.01,3.26,0.71,0.32,-2.08,-0.48
2022-02-06 21:40:06.0290,0.089,-1.059,-0.718,-2.32,3.16,0.79,0.43,-2.17,-0.41
2022-02-06 21:40:06.0390,0.073,-1.041,-0.707,-2.48,3.05,0.76,0.54,-2.17,-0.33
2022-02-06 21:40:06.0490,0.055,-1.007,-0.688,-2.46,2.86,0.73,0.63,-2.11,-0.25
2022-02-06 21:40:06.0590,0.031,-0.966,-0.682,-2.39,2.49,0.62,0.72,-2.05,-0.2
2022-02-06 21:40:06.0690,0.013,-0.936,-0.674,-2.28,2.05,0.63,0.79,-1.96,-0.18
2022-02-06 21:40:06.0790,0.006,-0.92,-0.652,-2.18,1.68,0.67,0.83,-1.88,-0.23
2022-02-06 21:40:06.0900,0.009,-0.906,-0.636,-2.21,1.47,0.56,0.83,-1.81,-0.32
2022-02-06 21:40:06.0990,0.03,-0.92,-0.609,-2.3,1.26,0.5,0.78,-1.72,-0.43
2022-02-06 21:40:06.1090,0.054,-0.952,-0.578,-2.55,1.31,0.36,0.69,-1.61,-0.5
2022-02-06 21:40:06.1190,0.079,-0.977,-0.551,-2.84,1.56,0.14,0.58,-1.47,-0.55
2022-02-06 21:40:06.1290,0.103,-1.002,-0.528,-3.12,1.77,-0.05,0.47,-1.33,-0.54
2022-02-06 21:40:06.1400,0.12,-1.023,-0.512,-3.39,1.97,-0.22,0.39,-1.17,-0.51
2022-02-06 21:40:06.1500,0.133,-1.031,-0.498,-3.59,2.16,-0.33,0.31,-1.01,-0.47
2022-02-06 21:40:06.1600,0.145,-1.046,-0.497,-3.74,2.22,-0.42,0.25,-0.88,-0.45
2022-02-06 21:40:06.1700,0.14,-1.055,-0.516,-3.87,2.33,-0.42,0.22,-0.77,-0.48
2022-02-06 21:40:06.1790,0.121,-1.048,-0.531,-3.86,2.42,-0.21,0.24,-0.67,-0.56
2022-02-06 21:40:06.1900,0.119,-1.046,-0.548,-3.65,2.34,-0.02,0.29,-0.63,-0.66
2022-02-06 21:40:06.1990,0.136,-1.056,-0.573,-3.6,2.27,0.17,0.36,-0.66,-0.74
2022-02-06 21:40:06.2090,0.16,-1.069,-0.584,-3.72,2.32,0.46,0.45,-0.69,-0.78
2022-02-06 21:40:06.2190,0.183,-1.066,-0.575,-3.93,2.42,0.65,0.53,-0.69,-0.77
2022-02-06 21:40:06.2290,0.204,-1.055,-0.556,-4.12,2.37,0.64,0.6,-0.62,-0.75
2022-02-06 21:40:06.2400,0.223,-1.044,-0.532,-4.3,2.22,0.52,0.62,-0.51,-0.71
2022-02-06 21:40:06.2500,0.242,-1.041,-0.514,-4.46,2.06,0.35,0.62,-0.37,-0.66
2022-02-06 21:40:06.2600,0.268,-1.04,-0.494,-4.61,1.97,0.23,0.6,-0.23,-0.61
2022-02-06 21:40:06.2700,0.299,-1.033,-0.494,-4.81,1.92,0.08,0.6,-0.15,-0.56
2022-02-06 21:40:06.2800,0.324,-1.02,-0.495,-5.08,1.82,0.1,0.63,-0.1,-0.52
2022-02-06 21:40:06.2900,0.34,-0.993,-0.483,-5.3,1.67,0.19,0.63,-0.06,-0.48
2022-02-06 21:40:06.3000,0.347,-0.974,-0.478,-5.42,1.38,0.13,0.6,-0.03,-0.44
2022-02-06 21:40:06.3100,0.341,-0.967,-0.478,-5.48,1.13,0.11,0.53,0.05,-0.41
2022-02-06 21:40:06.3200,0.334,-0.954,-0.47,-5.4,1.03,0.16,0.43,0.19,-0.4
2022-02-06 21:40:06.3300,0.329,-0.937,-0.468,-5.28,0.89,0.12,0.31,0.38,-0.41
2022-02-06 21:40:06.3410,0.328,-0.92,-0.469,-5.18,0.7,0.1,0.19,0.58,-0.41
2022-02-06 21:40:06.3500,0.324,-0.887,-0.481,-5.1,0.52,0.11,0.14,0.75,-0.4
2022-02-06 21:40:06.3600,0.321,-0.826,-0.498,-5.0,0.21,0.22,0.17,0.85,-0.4
2022-02-06 21:40:06.3700,0.318,-0.76,-0.506,-4.89,-0.37,0.39,0.29,0.88,-0.39
2022-02-06 21:40:06.3800,0.324,-0.704,-0.505,-4.79,-1.04,0.48,0.43,0.85,-0.36
2022-02-06 21:40:06.3910,0.334,-0.658,-0.494,-4.77,-1.63,0.5,0.51,0.82,-0.32
2022-02-06 21:40:06.4000,0.336,-0.619,-0.465,-4.81,-2.12,0.45,0.51,0.84,-0.25
2022-02-06 21:40:06.4110,0.327,-0.58,-0.435,-4.78,-2.53,0.2,0.42,0.91,-0.17
2022-02-06 21:40:06.4150,0.309,-0.541,-0.41,-4.48,-3.32,-0.32,0.26,1.02,-0.08
2022-02-06 21:40:06.4320,0.292,-0.507,-0.398,-4.48,-3.32,-0.32,0.08,1.13,0.0
2022-02-06 21:40:06.4420,0.28,-0.481,-0.393,-4.09,-3.95,-0.52,-0.06,1.25,0.09
2022-02-06 21:40:06.4510,0.272,-0.467,-0.388,-3.96,-4.09,-0.59,-0.16,1.36,0.18
2022-02-06 21:40:06.4610,0.261,-0.453,-0.391,-3.82,-4.21,-0.61,-0.21,1.45,0.25
2022-02-06 21:40:06.4710,0.247,-0.436,-0.392,-3.63,-4.36,-0.62,-0.22,1.52,0.32
2022-02-06 21:40:06.4810,0.232,-0.415,-0.386,-3.63,-4.36,-0.62,-0.22,1.59,0.37
2022-02-06 21:40:06.4920,0.217,-0.397,-0.374,-3.45,-4.54,-0.71,-0.21,1.67,0.41
2022-02-06 21:40:06.5010,0.206,-0.387,-0.354,-3.26,-4.72,-0.86,-0.24,1.73,0.46
2022-02-06 21:40:06.5110,0.196,-0.379,-0.341,-3.11,-4.81,-1.09,-0.24,1.73,0.46
2022-02-06 21:40:06.5220,0.183,-0.384,-0.334,-2.98,-4.87,-1.27,-0.41,1.84,0.58
2022-02-06 21:40:06.5310,0.169,-0.394,-0.345,-2.64,-4.69,-1.36,-0.52,1.85,0.65
2022-02-06 21:40:06.5430,0.156,-0.396,-0.361,-2.64,-4.69,-1.36,-0.62,1.81,0.7
2022-02-06 21:40:06.5520,0.133,-0.389,-0.385,-2.25,-4.65,-1.12,-0.7,1.73,0.75
2022-02-06 21:40:06.5620,0.1,-0.372,-0.416,-1.91,-4.77,-0.89,-0.74,1.62,0.79
2022-02-06 21:40:06.5720,0.064,-0.347,-0.436,-1.91,-4.77,-0.89,-0.75,1.54,0.8
2022-02-06 21:40:06.5820,0.035,-0.322,-0.438,-1.24,-5.17,-0.8,-0.76,1.51,0.82
2022-02-06 21:40:06.5930,0.01,-0.322,-0.433,-0.98,-5.16,-0.91,-0.79,1.55,0.87
2022-02-06 21:40:06.6020,-0.013,-0.344,-0.431,-0.98,-5.16,-0.91,-0.79,1.55,0.87
2022-02-06 21:40:06.6120,-0.042,-0.367,-0.44,-0.46,-4.63,-1.04,-0.98,1.74,1.1
2022-02-06 21:40:06.6220,-0.084,-0.389,-0.456,-0.46,-4.63,-1.04,-1.11,1.84,1.24
2022-02-06 21:40:06.6320,-0.136,-0.4,-0.485,0.43,-4.14,-0.83,-1.23,1.89,1.35
2022-02-06 21:40:06.6430,-0.197,-0.388,-0.526,1.02,-4.15,-0.55,-1.33,1.89,1.35
2022-02-06 21:40:06.6520,-0.264,-0.343,-0.564,1.67,-4.46,-0.28,-1.39,1.86,1.25
2022-02-06 21:40:06.6620,-0.33,-0.297,-0.584,1.67,-4.46,-0.28,-1.41,1.83,1.11
2022-02-06 21:40:06.6720,-0.383,-0.272,-0.605,2.33,-4.84,-0.19,-1.41,1.77,0.96
2022-02-06 21:40:06.6820,-0.417,-0.261,-0.633,2.9,-5.02,-0.12,-1.41,1.65,0.83
2022-02-06 21:40:06.6930,-0.417,-0.25,-0.664,3.3,-5.04,0.02,-1.41,1.65,0.83
2022-02-06 21:40:06.7020,-0.402,-0.259,-0.696,3.27,-4.9,0.39,-1.51,1.35,0.63
2022-02-06 21:40:06.7120,-0.393,-0.283,-0.739,3.27,-4.9,0.39,-1.7,1.2,0.59
2022-02-06 21:40:06.7220,-0.413,-0.301,-0.781,3.39,-4.27,0.96,-1.95,1.1,0.62
2022-02-06 21:40:06.7320,-0.471,-0.322,-0.821,3.95,-3.91,1.22,-2.23,1.11,0.67
2022-02-06 21:40:06.7430,-0.538,-0.326,-0.85,3.95,-3.91,1.22,-2.44,1.18,0.7
2022-02-06 21:40:06.7520,-0.585,-0.332,-0.894,4.65,-3.7,1.35,-2.44,1.18,0.7
2022-02-06 21:40:06.7620,-0.607,-0.392,-0.96,5.47,-2.8,2.02,-2.45,1.24,0.68
2022-02-06 21:40:06.7730,-0.592,-0.472,-1.044,5.47,-2.8,2.02,-2.24,1.11,0.62
2022-02-06 21:40:06.7820,-0.572,-0.495,-1.103,5.41,-1.8,2.67,-1.98,0.95,0.52
2022-02-06 21:40:06.7930,-0.583,-0.478,-1.126,5.24,-1.32,3.16,-1.77,0.83,0.43
2022-02-06 21:40:06.8020,-0.624,-0.445,-1.121,5.34,-1.3,3.28,-1.64,0.86,0.43
2022-02-06 21:40:06.8130,-0.666,-0.445,-1.1,5.76,-1.49,3.17,-1.62,0.89,0.49
2022-02-06 21:40:06.8220,-0.7,-0.46,-1.135,6.22,-1.4,2.83,-1.62,0.76,0.57
2022-02-06 21:40:06.8330,-0.701,-0.5,-1.198,6.62,-1.13,3.02,-1.62,0.76,0.57
2022-02-06 21:40:06.8430,-0.686,-0.568,-1.281,6.7,-0.65,3.52,-1.57,0.43,0.6
2022-02-06 21:40:06.8530,-0.675,-0.618,-1.344,6.4,0.79,4.82,-1.3,-0.62,0.54
2022-02-06 21:40:06.8630,-0.682,-0.629,-1.36,6.4,0.79,4.82,-1.12,-1.01,0.46
2022-02-06 21:40:06.8730,-0.708,-0.617,-1.335,6.37,1.05,4.98,-0.99,-1.16,0.36
2022-02-06 21:40:06.8820,-0.744,-0.578,-1.283,6.49,1.06,4.71,-0.94,-1.05,0.23
2022-02-06 21:40:06.8930,-0.772,-0.537,-1.227,6.73,0.79,4.19,-0.97,-0.8,0.07
2022-02-06 21:40:06.9030,-0.763,-0.527,-1.192,6.93,0.46,3.58,-1.04,-0.54,-0.05
2022-02-06 21:40:06.9130,-0.707,-0.585,-1.194,6.27,0.96,3.07,-1.1,-0.43,-0.07
2022-02-06 21:40:06.9230,-0.631,-0.65,-1.243,6.27,0.96,3.07,-1.09,-0.57,-0.05
2022-02-06 21:40:06.9330,-0.567,-0.657,-1.295,5.49,1.75,3.48,-1.01,-0.91,-0.03
2022-02-06 21:40:06.9430,-0.53,-0.65,-1.323,4.8,1.97,3.95,-1.01,-0.91,-0.03
2022-02-06 21:40:06.9530,-0.51,-0.651,-1.319,4.32,1.99,4.1960566771030425,-0.85,-1.62,-0.09
2022-02-06 21:40:06.9630,-0.503,-0.662,-1.295,4.0,2.07,4.19,-0.82,-1.79,-0.19
2022-02-06 21:40:06.9730,-0.504,-0.67,-1.272,3.63,2.41,3.7,-0.8,-1.84,-0.32
2022-02-06 21:40:06.9830,-0.501,-0.661,-1.259,3.63,2.41,3.7,-0.78,-1.8,-0.45
2022-02-06 21:40:06.9930,-0.481,-0.657,-1.245,3.16,2.41,3.41,-0.75,-1.73,-0.55
2022-02-06 21:40:07.0040,-0.449,-0.661,-1.242,3.16,2.41,3.41,-0.7,-1.65,-0.6
2022-02-06 21:40:07.0130,-0.42,-0.654,-1.249,2.72,2.51,3.38,-0.7,-1.65,-0.6
2022-02-06 21:40:07.0230,-0.387,-0.658,-1.257,1.87,2.56,3.53,-0.58,-1.53,-0.71
2022-02-06 21:40:07.0330,-0.352,-0.668,-1.26,1.87,2.56,3.53,-0.51,-1.45,-0.83
2022-02-06 21:40:07.0440,-0.33,-0.663,-1.261,1.09,2.71,3.6,-0.46,-1.37,-0.99
2022-02-06 21:40:07.0540,-0.307,-0.652,-1.252,0.79,2.62,3.52,-0.46,-1.37,-0.99
2022-02-06 21:40:07.0640,-0.271,-0.648,-1.247,0.39,2.58,3.47,-0.35,-1.32,-1.32
2022-02-06 21:40:07.0740,-0.229,-0.646,-1.253,-0.1,2.56,3.54,-0.26,-1.41,-1.41
2022-02-06 21:40:07.0840,-0.193,-0.634,-1.253,-0.53,2.45,3.59,-0.13,-1.53,-1.43
2022-02-06 21:40:07.0940,-0.159,-0.619,-1.243,-0.94,2.28,3.52,0.04,-1.66,-1.42
2022-02-06 21:40:07.1030,-0.13,-0.602,-1.235,-1.33,2.08,3.49,0.24,-1.77,-1.41
2022-02-06 21:40:07.1130,-0.111,-0.575,-1.216,-1.33,2.08,3.49,0.41,-1.76,-1.42
2022-02-06 21:40:07.1230,-0.099,-0.544,-1.18,-1.63,1.77,3.38,0.41,-1.63,-1.45
2022-02-06 21:40:07.1340,-0.088,-0.54,-1.14,-2.03,1.21,2.78,0.66,-1.4,-1.45
2022-02-06 21:40:07.1440,-0.084,-0.57,-1.118,-2.13,1.39,2.6,0.75,-1.16,-1.43
2022-02-06 21:40:07.1540,-0.082,-0.586,-1.114,-2.13,1.39,2.6,0.85,-0.97,-1.42
2022-02-06 21:40:07.1640,-0.086,-0.577,-1.113,-2.2,1.48,2.62,0.95,-0.86,-1.44
2022-02-06 21:40:07.1740,-0.091,-0.567,-1.114,-2.14,1.07,2.75,1.04,-0.8,-1.48
2022-02-06 21:40:07.1840,-0.091,-0.572,-1.099,-2.14,1.07,2.75,1.04,-0.8,-1.53
2022-02-06 21:40:07.1940,-0.09,-0.594,-1.078,-2.12,1.04,2.56,1.12,-0.58,-1.57
2022-02-06 21:40:07.2040,-0.085,-0.61,-1.056,-2.14,1.07,2.42,1.14,-0.39,-1.61
2022-02-06 21:40:07.2140,-0.074,-0.626,-1.035,-2.14,1.07,2.42,1.17,-0.19,-1.62
2022-02-06 21:40:07.2240,-0.062,-0.642,-1.019,-2.19,1.09,2.27,1.2,-0.01,-1.58
2022-02-06 21:40:07.2330,-0.052,-0.649,-1.01,-2.24,1.12,2.18,1.28,0.12,-1.49
2022-02-06 21:40:07.2440,-0.055,-0.649,-1.005,-2.17,0.93,2.16,1.41,0.23,-1.39
2022-02-06 21:40:07.2540,-0.07,-0.625,-0.992,-2.17,0.93,2.16,1.41,0.23,-1.39
2022-02-06 21:40:07.2640,-0.067,-0.589,-0.968,-1.93,0.58,2.11,1.8,0.42,-1.43
2022-02-06 21:40:07.2740,-0.062,-0.576,-0.934,-1.77,-0.26,1.74,1.88,0.5,-1.51
2022-02-06 21:40:07.2840,-0.057,-0.581,-0.907,-1.77,-0.26,1.74,1.86,0.55,-1.56
2022-02-06 21:40:07.2950,-0.046,-0.591,-0.872,-1.65,-0.47,1.33,1.76,0.54,-1.55
2022-02-06 21:40:07.3050,-0.037,-0.597,-0.86,-1.65,-0.47,1.33,1.63,0.4,-1.48
2022-02-06 21:40:07.3140,-0.029,-0.613,-0.866,-1.61,-0.58,1.28,1.52,0.19,-1.35
Time,-0.031,-0.625,-0.874,-1.47,-0.56,1.59,1.43,-0.07,-1.21
2022-02-06 21:40:07.3350,-0.047,-0.614,-0.886,-1.47,-0.56,1.59,1.36,-0.26,-1.07
2022-02-06 21:40:07.3450,-0.085,-0.586,-0.882,-1.25,-0.77,1.81,1.34,-0.3,-0.96
2022-02-06 21:40:07.3540,-0.142,-0.537,-0.859,-0.85,-1.13,1.89,1.36,-0.17,-0.9
2022-02-06 21:40:07.3640,-0.201,-0.48,-0.828,0.38,-2.36,1.59,1.39,0.14,-0.88
2022-02-06 21:40:07.3750,-0.247,-0.445,-0.785,0.38,-2.36,1.59,1.41,0.57,-0.86
2022-02-06 21:40:07.3840,-0.262,-0.444,-0.744,0.93,-2.84,1.28,1.38,1.01,-0.79
2022-02-06 21:40:07.3950,-0.254,-0.483,-0.713,1.21,-3.0,0.95,1.3,1.38,-0.64
2022-02-06 21:40:07.4050,-0.23,-0.543,-0.691,1.28,-2.75,0.74,1.15,1.65,-0.45
2022-02-06 21:40:07.4140,-0.199,-0.595,-0.678,1.2,-2.26,0.58,0.98,1.83,-0.27
2022-02-06 21:40:07.4240,-0.179,-0.63,-0.665,0.95,-1.5,0.44,0.81,1.95,-0.13
2022-02-06 21:40:07.4350,-0.176,-0.639,-0.652,0.95,-1.5,0.44,0.65,2.01,-0.04
2022-02-06 21:40:07.4450,-0.191,-0.641,-0.652,1.02,-1.44,0.36,0.65,2.01,-0.04
2022-02-06 21:40:07.4550,-0.212,-0.652,-0.661,1.27,-1.46,0.38,0.45,1.99,0.12
2022-02-06 21:40:07.4640,-0.228,-0.653,-0.693,1.59,-1.38,0.49,0.49,1.84,0.19
2022-02-06 21:40:07.4750,-0.234,-0.652,-0.718,2.04,-1.44,1.12,0.67,1.66,0.29
2022-02-06 21:40:07.4850,-0.224,-0.656,-0.704,2.03,-1.43,1.04,0.87,1.47,0.39
2022-02-06 21:40:07.4950,-0.208,-0.662,-0.705,2.03,-1.43,1.04,1.02,1.27,0.49
2022-02-06 21:40:07.5050,-0.201,-0.666,-0.69,1.93,-1.43,1.1,1.02,1.27,0.49
2022-02-06 21:40:07.5150,-0.206,-0.647,-0.665,1.88,-1.44,1.07,1.12,0.86,0.54
2022-02-06 21:40:07.5250,-0.218,-0.615,-0.64,1.93,-1.65,0.91,1.06,0.63,0.47
2022-02-06 21:40:07.5350,-0.22,-0.597,-0.615,2.05,-2.02,0.75,0.95,0.4,0.41
2022-02-06 21:40:07.5450,-0.208,-0.6,-0.595,1.97,-2.33,0.46,0.83,0.21,0.38
2022-02-06 21:40:07.5560,-0.187,-0.609,-0.575,1.97,-2.33,0.46,0.71,0.1,0.38
2022-02-06 21:40:07.5660,-0.167,-0.61,-0.551,1.75,-2.28,0.34,0.58,0.1,0.39
2022-02-06 21:40:07.5750,-0.15,-0.604,-0.528,1.32,-2.37,-0.02,0.47,0.21,0.43
2022-02-06 21:40:07.5850,-0.138,-0.596,-0.511,1.17,-2.48,-0.16,0.39,0.39,0.48
2022-02-06 21:40:07.5960,-0.134,-0.58,-0.503,1.17,-2.48,-0.16,0.36,0.62,0.54
2022-02-06 21:40:07.6060,-0.137,-0.557,-0.492,1.1,-2.64,-0.21,0.37,0.86,0.61
2022-02-06 21:40:07.6150,-0.13,-0.542,-0.487,1.06,-3.06,-0.33,0.41,1.03,0.68
2022-02-06 21:40:07.6260,-0.111,-0.541,-0.498,0.88,-3.1,-0.2,0.45,1.11,0.75
2022-02-06 21:40:07.6350,-0.09,-0.556,-0.512,0.88,-3.1,-0.2,0.47,1.1,0.82
2022-02-06 21:40:07.6460,-0.073,-0.59,-0.521,0.47,-2.71,0.11,0.49,1.07,0.92
2022-02-06 21:40:07.6560,-0.063,-0.637,-0.512,0.47,-2.71,0.11,0.56,1.06,1.0
2022-02-06 21:40:07.6660,-0.062,-0.652,-0.496,0.34,-2.27,0.08,0.67,1.04,1.03
2022-02-06 21:40:07.6760,-0.073,-0.629,-0.482,0.28,-2.09,-0.04,0.79,0.98,1.03
2022-02-06 21:40:07.6850,-0.091,-0.606,-0.461,0.34,-2.31,-0.12,0.85,0.93,1.04
2022-02-06 21:40:07.6960,-0.11,-0.618,-0.431,0.6127963864803314,-2.55,-0.47,0.82,0.93,1.07
2022-02-06 21:40:07.7060,-0.136,-0.637,-0.409,0.61,-2.55,-0.47,0.74,0.95,1.07
2022-02-06 21:40:07.7160,-0.155,-0.635,-0.39,0.81,-2.39,-0.64,0.67,1.02,1.01
2022-02-06 21:40:07.7250,-0.163,-0.631,-0.371,1.01,-2.48,-0.9,0.62,1.09,0.87
2022-02-06 21:40:07.7360,-0.159,-0.639,-0.363,0.96,-2.44,-0.95,0.54,1.13,0.71
2022-02-06 21:40:07.7460,-0.151,-0.653,-0.365,0.87,-2.33,-0.89,0.43,1.16,0.54
2022-02-06 21:40:07.7560,-0.14,-0.681,-0.345,0.87,-2.33,-0.89,0.29,1.24,0.4
2022-02-06 21:40:07.7650,-0.129,-0.719,-0.315,0.77,-2.09,-1.02,0.13,1.38,0.3
2022-02-06 21:40:07.7760,-0.12,-0.754,-0.291,0.68,-1.74,-1.31,-0.06,1.55,0.23
2022-02-06 21:40:07.7860,-0.116,-0.774,-0.28,0.62,-1.16,-1.69,-0.27,1.75,0.18
2022-02-06 21:40:07.7970,-0.114,-0.786,-0.277,0.62,-1.16,-1.69,-0.46,1.95,0.13
2022-02-06 21:40:07.8060,-0.112,-0.792,-0.29,0.73,-0.94,-1.71,-0.64,2.08,0.09
2022-02-06 21:40:07.8160,-0.108,-0.787,-0.328,0.73,-0.94,-1.71,-0.78,2.1,0.05
2022-02-06 21:40:07.8260,-0.102,-0.767,-0.377,0.77,-0.94,-1.42,-0.88,2.02,-0.01
2022-02-06 21:40:07.8360,-0.095,-0.757,-0.432,0.81,-1.08,-1.03,-0.94,1.87,-0.06
2022-02-06 21:40:07.8460,-0.084,-0.759,-0.486,0.83,-1.1,-0.11,-0.94,1.73,-0.09
2022-02-06 21:40:07.8560,-0.063,-0.753,-0.498,0.83,-1.1,-0.11,-0.94,1.73,-0.09
2022-02-06 21:40:07.8660,-0.045,-0.741,-0.503,0.73,-1.1,-0.02,-0.9,1.66,-0.07
2022-02-06 21:40:07.8760,-0.038,-0.744,-0.516,0.64,-1.12,-0.01,-0.91,1.71,0.05
2022-02-06 21:40:07.8860,-0.041,-0.749,-0.524,0.73,-1.01,-0.01,-0.91,1.77,0.26
2022-02-06 21:40:07.8970,-0.056,-0.745,-0.549,0.94,-1.0,0.15,-0.88,1.79,0.49
2022-02-06 21:40:07.9060,-0.083,-0.731,-0.585,1.24,-1.07,0.42,-0.77,1.74,0.71
2022-02-06 21:40:07.9150,-0.113,-0.707,-0.619,1.57,-1.26,0.71,-0.59,1.61,0.85
2022-02-06 21:40:07.9270,-0.132,-0.692,-0.639,1.57,-1.26,0.71,-0.38,1.41,0.9
2022-02-06 21:40:07.9370,-0.143,-0.691,-0.657,1.9,-1.41,1.02,-0.18,1.11,0.89
2022-02-06 21:40:07.9470,-0.151,-0.697,-0.668,1.9,-1.41,1.02,-0.03,0.8,0.85
2022-02-06 21:40:07.9560,-0.164,-0.708,-0.65,2.06,-1.24,1.01,0.04,0.56,0.83
2022-02-06 21:40:07.9660,-0.181,-0.715,-0.621,2.19,-1.18,0.73,0.0,0.42,0.82
2022-02-06 21:40:07.9760,-0.21,-0.711,-0.591,2.19,-1.18,0.73,-0.09,0.42,0.82
2022-02-06 21:40:07.9870,-0.24,-0.684,-0.548,2.41,-1.2,0.44,-0.22,0.53,0.78
2022-02-06 21:40:07.9970,-0.254,-0.656,-0.52,2.68,-1.44,0.02,-0.38,0.66,0.68
2022-02-06 21:40:08.0070,-0.253,-0.641,-0.519,2.8,-1.72,-0.3,-0.38,0.66,0.68
2022-02-06 21:40:08.0170,-0.244,-0.632,-0.527,2.78,-1.85,-0.38,-0.79,0.83,0.4
2022-02-06 21:40:08.0260,-0.24,-0.641,-0.525,2.69,-1.92,-0.33,-1.01,0.9,0.31
2022-02-06 21:40:08.0370,-0.243,-0.653,-0.525,2.66,-1.81,-0.41,-1.21,0.98,0.28
2022-02-06 21:40:08.0480,-0.257,-0.634,-0.539,2.7,-1.62,-0.5,-1.38,1.03,0.25
2022-02-06 21:40:08.0570,-0.268,-0.598,-0.555,2.86,-1.7,-0.47,-1.5,1.05,0.24
2022-02-06 21:40:08.0670,-0.277,-0.571,-0.58,3.152901417911053,-2.1609174817800523,-0.31,-1.58,0.99,0.22
2022-02-06 21:40:08.0770,-0.273,-0.563,-0.605,3.15,-2.17,-0.31,-1.61,0.89,0.22
2022-02-06 21:40:08.0870,-0.262,-0.57,-0.629,3.17,-2.17,-0.17,-1.59,0.77,0.23
2022-02-06 21:40:08.0970,-0.256,-0.581,-0.652,3.1,-2.02,-0.06,-1.52,0.62,0.24
2022-02-06 21:40:08.1070,-0.233,-0.609,-0.679,2.89,-1.48,0.18,-1.44,0.4,0.28
2022-02-06 21:40:08.1170,-0.212,-0.668,-0.734,2.89,-1.48,0.18,-1.37,0.16,0.41
2022-02-06 21:40:08.1270,-0.215,-0.718,-0.781,2.67,-0.84,0.6,-1.29,-0.09,0.58
2022-02-06 21:40:08.1380,-0.234,-0.717,-0.821,2.77,-0.08,1.29,-1.14,-0.31,0.77
2022-02-06 21:40:08.1470,-0.267,-0.699,-0.837,2.77,-0.08,1.29,-1.14,-0.31,0.77
2022-02-06 21:40:08.1570,-0.3,-0.677,-0.862,3.0,-0.17,1.39,-0.71,-0.8,1.07
2022-02-06 21:40:08.1670,-0.319,-0.671,-0.895,3.31,-0.38,1.82,-0.53,-1.13,1.17
2022-02-06 21:40:08.1780,-0.329,-0.695,-0.916,3.26,-0.13,1.99,-0.4,-1.51,1.24
2022-02-06 21:40:08.1880,-0.342,-0.723,-0.943,3.18,0.18,2.22,-0.35,-1.9,1.26
2022-02-06 21:40:08.1980,-0.367,-0.743,-0.96,3.19,0.41,2.39,-0.34,-2.21,1.24
2022-02-06 21:40:08.2080,-0.411,-0.75,-0.97,3.19,0.41,2.39,-0.34,-2.36,1.18
2022-02-06 21:40:08.2170,-0.475,-0.733,-0.953,3.72,0.43,2.35,-0.31,-2.26,1.08
2022-02-06 21:40:08.2280,-0.536,-0.7,-0.908,3.72,0.43,2.35,-0.24,-1.99,0.92
2022-02-06 21:40:08.2380,-0.574,-0.662,-0.871,4.09,0.15,1.92,-0.14,-1.67,0.74
2022-02-06 21:40:08.2480,-0.581,-0.647,-0.841,4.3,-0.2,1.56,-0.08,-1.4,0.54
2022-02-06 21:40:08.2580,-0.546,-0.667,-0.823,3.81,-0.19,1.08,-0.1,-1.29,0.35
2022-02-06 21:40:08.2670,-0.497,-0.718,-0.819,3.22,0.3,1.05,-0.22,-1.31,0.17
2022-02-06 21:40:08.2780,-0.458,-0.773,-0.807,3.22,0.3,1.05,-0.39,-1.38,0.01
2022-02-06 21:40:08.2880,-0.43,-0.801,-0.792,2.71,0.87,0.96,-0.57,-1.46,-0.15
2022-02-06 21:40:08.2980,-0.417,-0.811,-0.781,2.09,1.36,0.68,-0.73,-1.51,-0.33
2022-02-06 21:40:08.3080,-0.418,-0.802,-0.773,2.0,1.35,0.57,-0.82,-1.55,-0.5
2022-02-06 21:40:08.3180,-0.419,-0.765,-0.78,2.0,1.35,0.57,-0.82,-1.55,-0.5
2022-02-06 21:40:08.3280,-0.408,-0.727,-0.777,1.79,0.71,0.58,-0.8,-1.59,-0.83
2022-02-06 21:40:08.3380,-0.383,-0.707,-0.774,1.79,0.71,0.58,-0.73,-1.65,-0.98
2022-02-06 21:40:08.3490,-0.352,-0.697,-0.79,1.49,0.54,0.51,-0.7,-1.76,-1.11
2022-02-06 21:40:08.3580,-0.31,-0.71,-0.802,1.14,0.46,0.65,-0.7,-1.89,-1.21
2022-02-06 21:40:08.3680,-0.274,-0.729,-0.811,0.25,0.8,0.86,-0.72,-2.0,-1.29
2022-02-06 21:40:08.3780,-0.246,-0.737,-0.818,0.25,0.8,0.86,-0.7,-2.04,-1.35
2022-02-06 21:40:08.3880,-0.222,-0.726,-0.811,-0.08,0.91,0.94,-0.65,-2.01,-1.4
2022-02-06 21:40:08.3980,-0.206,-0.703,-0.813,-0.39,0.85,0.89,-0.57,-1.96,-1.45
2022-02-06 21:40:08.4080,-0.189,-0.675,-0.814,-0.82,0.37,0.93,-0.5,-1.91,-1.48
2022-02-06 21:40:08.4180,-0.164,-0.649,-0.818,-0.82,0.37,0.93,-0.46,-1.88,-1.52
2022-02-06 21:40:08.4280,-0.132,-0.63,-0.823,-1.09,0.11,0.99,-0.47,-1.88,-1.55
2022-02-06 21:40:08.4390,-0.094,-0.628,-0.835,-1.43,-0.1,1.06,-0.48,-1.87,-1.59
2022-02-06 21:40:08.4490,-0.061,-0.628,-0.833,-1.84,-0.15,1.19,-0.49,-1.82,-1.62
2022-02-06 21:40:08.4580,-0.033,-0.626,-0.835,-2.2,-0.15,1.21,-0.46,-1.74,-1.64
2022-02-06 21:40:08.4680,-0.013,-0.624,-0.844,-2.51,-0.17,1.24,-0.39,-1.67,-1.63
2022-02-06 21:40:08.4780,0.008,-0.617,-0.856,-2.73,-0.21,1.34,-0.28,-1.58,-1.61
2022-02-06 21:40:08.4890,0.032,-0.613,-0.847,-2.94,-0.29,1.48,-0.1,-1.47,-1.54
2022-02-06 21:40:08.4990,0.06,-0.612,-0.826,-3.46,-0.42,1.28,0.12,-1.38,-1.45
2022-02-06 21:40:08.5090,0.094,-0.619,-0.817,-3.46,-0.42,1.28,0.33,-1.33,-1.34
2022-02-06 21:40:08.5190,0.131,-0.652,-0.799,-4.14,-0.18,1.15,0.52,-1.3,-1.18
2022-02-06 21:40:08.5290,0.161,-0.709,-0.766,-4.14,-0.18,1.15,0.62,-1.28,-0.98
2022-02-06 21:40:08.5390,0.176,-0.781,-0.74,-4.65,0.91,0.71,0.62,-1.25,-0.76
2022-02-06 21:40:08.5490,0.173,-0.844,-0.704,-4.65,0.91,0.71,0.51,-1.18,-0.56
2022-02-06 21:40:08.5580,0.158,-0.877,-0.661,-4.59,1.8,0.1,0.33,-1.07,-0.4
2022-02-06 21:40:08.5690,0.135,-0.893,-0.624,-4.4,1.94,-0.22,0.12,-0.9,-0.31
2022-02-06 21:40:08.5790,0.111,-0.904,-0.595,-4.4,1.94,-0.22,-0.08,-0.7,-0.27
2022-02-06 21:40:08.5900,0.084,-0.909,-0.584,-3.97,2.09,-0.61,-0.23,-0.54,-0.28
2022-02-06 21:40:08.5990,0.054,-0.913,-0.592,-3.97,2.09,-0.61,-0.23,-0.54,-0.28
2022-02-06 21:40:08.6090,0.036,-0.923,-0.607,-3.5,2.23,-0.41,-0.33,-0.36,-0.44
2022-02-06 21:40:08.6190,0.041,-0.941,-0.621,-3.5,2.23,-0.41,-0.33,-0.36,-0.44
2022-02-06 21:40:08.6290,0.055,-0.975,-0.625,-3.51,2.4,-0.28,-0.29,-0.3,-0.62
2022-02-06 21:40:08.6400,0.071,-1.0,-0.617,-3.76,3.0,-0.32,-0.26,-0.26,-0.65
2022-02-06 21:40:08.6490,0.091,-1.009,-0.6,-3.76,3.0,-0.32,-0.26,-0.26,-0.65
2022-02-06 21:40:08.6590,0.103,-1.015,-0.574,-4.03,3.15,-0.74,-0.21,-0.1,-0.58
2022-02-06 21:40:08.6690,0.107,-1.022,-0.566,-4.05,3.21,-0.87,-0.22,-0.07,-0.47
2022-02-06 21:40:08.6790,0.098,-1.024,-0.578,-3.96,3.25,-0.79,-0.27,-0.13,-0.33
2022-02-06 21:40:08.6900,0.072,-1.014,-0.607,-3.96,3.25,-0.79,-0.32,-0.28,-0.21
2022-02-06 21:40:08.6990,0.028,-0.997,-0.642,-3.7,3.18,-0.53,-0.36,-0.46,-0.12
2022-02-06 21:40:08.7100,-0.027,-0.978,-0.685,-2.79,2.86,0.2,-0.35,-0.64,-0.1
2022-02-06 21:40:08.7190,-0.075,-0.957,-0.719,-2.34,2.68,0.54,-0.3,-0.75,-0.17
2022-02-06 21:40:08.7290,-0.123,-0.936,-0.736,-2.34,2.68,0.54,-0.21,-0.75,-0.31
2022-02-06 21:40:08.7400,-0.159,-0.918,-0.729,-1.91,2.49,0.73,-0.09,-0.59,-0.47
2022-02-06 21:40:08.7490,-0.17,-0.915,-0.701,-1.55,2.3,0.71,0.0,-0.33,-0.63
2022-02-06 21:40:08.7600,-0.155,-0.932,-0.675,-1.42,2.25,0.45,0.0,-0.33,-0.63
2022-02-06 21:40:08.7690,-0.121,-0.953,-0.643,-1.78,2.56,-0.1,0.1,0.27,-0.84
2022-02-06 21:40:08.7790,-0.075,-0.966,-0.623,-1.78,2.56,-0.1,0.1,0.49,-0.88
2022-02-06 21:40:08.7890,-0.036,-0.982,-0.597,-2.15,2.67,-0.31,0.05,0.64,-0.86
2022-02-06 21:40:08.8000,-0.006,-1.01,-0.582,-2.46,2.79,-0.56,-0.04,0.69,-0.79
2022-02-06 21:40:08.8100,0.015,-1.038,-0.596,-2.78,3.28,-0.68,-0.15,0.63,-0.72
2022-02-06 21:40:08.8200,0.025,-1.062,-0.622,-2.78,3.28,-0.68,-0.23,0.5,-0.67
2022-02-06 21:40:08.8300,0.026,-1.082,-0.65,-2.81,3.51,-0.46,-0.26,0.37,-0.66
2022-02-06 21:40:08.8400,0.016,-1.094,-0.682,-2.74,3.71,-0.21,-0.23,0.27,-0.67
2022-02-06 21:40:08.8500,0.005,-1.102,-0.722,-2.59,3.85,0.07,-0.12,0.22,-0.69
2022-02-06 21:40:08.8600,0.005,-1.112,-0.758,-2.34,4.03,0.77,0.08,0.2,-0.72
2022-02-06 21:40:08.8700,0.002,-1.084,-0.784,-2.34,4.03,0.77,0.33,0.25,-0.78
2022-02-06 21:40:08.8800,0.006,-1.038,-0.788,-2.26,3.79,1.06,0.61,0.36,-0.85
2022-02-06 21:40:08.8900,0.023,-1.007,-0.778,-2.2,3.3,1.14,0.85,0.54,-0.9
2022-02-06 21:40:08.9000,0.058,-0.988,-0.742,-2.49,2.64,0.81,1.04,0.77,-0.94
2022-02-06 21:40:08.9100,0.11,-0.982,-0.701,-2.87,2.48,0.46,1.15,0.99,-0.93
2022-02-06 21:40:08.9210,0.163,-0.985,-0.66,-2.87,2.48,0.46,1.15,0.99,-0.93
2022-02-06 21:40:08.9300,0.204,-0.978,-0.646,-3.55,2.27,0.0,1.11,1.19,-0.73
2022-02-06 21:40:08.9400,0.235,-0.981,-0.642,-3.55,2.27,0.0,1.11,1.19,-0.73
2022-02-06 21:40:08.9500,0.254,-0.985,-0.642,-3.74,2.2,0.04,0.85,1.14,-0.35
2022-02-06 21:40:08.9600,0.246,-0.961,-0.662,-3.84,2.19,0.06,0.85,1.14,-0.35
2022-02-06 21:40:08.9700,0.208,-0.912,-0.677,-3.27,1.43,0.5,0.74,1.1,-0.07
2022-02-06 21:40:08.9800,0.171,-0.862,-0.694,-2.82,0.89,0.7,0.8,1.09,0.0
2022-02-06 21:40:08.9910,0.147,-0.829,-0.723,-2.508530943989754,0.49,1.03,0.91,1.02,0.04
2022-02-06 21:40:09.0010,0.123,-0.804,-0.737,-2.51,0.49,1.03,1.05,1.01,0.06
2022-02-06 21:40:09.0110,0.109,-0.785,-0.722,-2.0,-0.07,1.21,1.2,1.06,0.07
2022-02-06 21:40:09.0210,0.101,-0.774,-0.696,-1.87,-0.25,1.05,1.33,1.17,0.09
2022-02-06 21:40:09.0300,0.104,-0.768,-0.656,-1.82,-0.4,0.77,1.42,1.34,0.13
2022-02-06 21:40:09.0410,0.114,-0.764,-0.609,-1.82,-0.4,0.77,1.45,1.52,0.19
2022-02-06 21:40:09.0500,0.121,-0.764,-0.559,-1.85,-0.6,0.02,1.41,1.72,0.27
2022-02-06 21:40:09.0610,0.12,-0.77,-0.51,-1.85,-0.6,0.02,1.3,1.9,0.37
2022-02-06 21:40:09.0710,0.108,-0.769,-0.477,-1.61,-0.68,-0.62,1.15,2.01,0.46
2022-02-06 21:40:09.0810,0.096,-0.768,-0.467,-1.42,-0.76,-0.65,0.98,2.05,0.54
2022-02-06 21:40:09.0910,0.078,-0.772,-0.467,-1.42,-0.76,-0.65,0.83,2.02,0.61
2022-02-06 21:40:09.1010,0.058,-0.764,-0.474,-1.19,-0.77,-0.59,0.72,1.96,0.65
2022-02-06 21:40:09.1110,0.034,-0.746,-0.481,-0.68,-1.07,-0.34,0.67,1.89,0.66
2022-02-06 21:40:09.1210,0.0,-0.717,-0.483,-0.68,-1.07,-0.34,0.68,1.85,0.65
2022-02-06 21:40:09.1300,-0.033,-0.686,-0.476,-0.31,-1.37,-0.26,0.72,1.85,0.62
2022-02-06 21:40:09.1410,-0.054,-0.671,-0.462,0.06,-1.71,-0.26,0.76,1.87,0.59
2022-02-06 21:40:09.1510,-0.061,-0.667,-0.446,0.44,-2.01,-0.44,0.76,1.9,0.56
2022-02-06 21:40:09.1610,-0.061,-0.669,-0.426,0.49,-2.02,-0.57,0.7,1.94,0.54
2022-02-06 21:40:09.1710,-0.061,-0.661,-0.41,0.54,-2.12,-0.68,0.58,1.98,0.52
2022-02-06 21:40:09.1810,-0.057,-0.648,-0.398,0.55,-2.27,-0.75,0.41,2.03,0.51
2022-02-06 21:40:09.1920,-0.049,-0.639,-0.395,0.55,-2.27,-0.75,0.21,2.06,0.51
2022-02-06 21:40:09.2010,-0.044,-0.628,-0.403,0.52,-2.49,-0.68,0.04,2.08,0.54
2022-02-06 21:40:09.2110,-0.04,-0.616,-0.418,0.52,-2.49,-0.68,-0.09,2.09,0.58
2022-02-06 21:40:09.2210,-0.043,-0.602,-0.435,0.59,-2.73,-0.37,-0.16,2.09,0.63
2022-02-06 21:40:09.2310,-0.048,-0.586,-0.45,0.68,-2.89,-0.23,-0.17,2.07,0.69
2022-02-06 21:40:09.2420,-0.056,-0.574,-0.459,0.68,-2.89,-0.23,-0.15,2.04,0.76
2022-02-06 21:40:09.2510,-0.067,-0.559,-0.464,0.93,-3.14,-0.1,-0.14,1.97,0.81
2022-02-06 21:40:09.2610,-0.077,-0.542,-0.476,1.04,-3.3,0.0,-0.18,1.86,0.86
2022-02-06 21:40:09.2710,-0.09,-0.542,-0.495,1.04,-3.3,0.0,-0.28,1.72,0.9
2022-02-06 21:40:09.2810,-0.108,-0.555,-0.518,1.35,-3.19,0.37,-0.41,1.61,0.93
2022-02-06 21:40:09.2920,-0.129,-0.562,-0.531,1.55,-3.1,0.48,-0.54,1.55,0.96
2022-02-06 21:40:09.3010,-0.155,-0.566,-0.541,1.78,-3.03,0.54,-0.59,1.51,1.0
2022-02-06 21:40:09.3120,-0.183,-0.56,-0.556,1.78,-3.03,0.54,-0.61,1.44,1.04
2022-02-06 21:40:09.3210,-0.213,-0.533,-0.583,2.32,-3.26,0.83,-0.6,1.35,1.09
2022-02-06 21:40:09.3320,-0.243,-0.52,-0.593,2.59,-3.41,0.92,-0.58,1.31,1.15
2022-02-06 21:40:09.3420,-0.274,-0.537,-0.575,2.59,-3.41,0.92,-0.56,1.33,1.21
2022-02-06 21:40:09.3510,-0.305,-0.548,-0.565,2.86,-3.23,0.71,-0.61,1.39,1.22
2022-02-06 21:40:09.3620,-0.324,-0.562,-0.567,3.3,-2.93,0.51,-0.73,1.44,1.18
2022-02-06 21:40:09.3720,-0.336,-0.596,-0.573,3.39,-2.58,0.5,-0.91,1.52,1.12
2022-02-06 21:40:09.3810,-0.346,-0.639,-0.593,3.48,-2.12,0.59,-1.09,1.57,1.05
2022-02-06 21:40:09.3920,-0.36,-0.666,-0.627,3.48,-2.12,0.59,-1.2,1.59,0.97
2022-02-06 21:40:09.4020,-0.365,-0.681,-0.662,3.6,-1.76,0.83,-1.25,1.6,0.88
2022-02-06 21:40:09.4120,-0.357,-0.705,-0.692,3.63,-1.27,1.28,-1.24,1.62,0.8
2022-02-06 21:40:09.4220,-0.34,-0.738,-0.707,3.63,-1.27,1.28,-1.23,1.65,0.74
2022-02-06 21:40:09.4320,-0.319,-0.771,-0.719,3.49,-0.88,1.35,-1.23,1.69,0.69
2022-02-06 21:40:09.4420,-0.298,-0.803,-0.729,3.32,-0.49,1.36,-1.23,1.69,0.69
2022-02-06 21:40:09.4520,-0.281,-0.834,-0.745,3.03,0.28,1.41,-1.27,1.68,0.71
2022-02-06 21:40:09.4630,-0.265,-0.853,-0.784,2.91,0.56,1.68,-1.26,1.55,0.78
2022-02-06 21:40:09.4720,-0.255,-0.871,-0.82,2.91,0.56,1.68,-1.26,1.55,0.78
2022-02-06 21:40:09.4820,-0.249,-0.887,-0.851,2.84,0.8,1.95,-1.03,1.18,0.98
2022-02-06 21:40:09.4930,-0.248,-0.894,-0.876,2.79,1.04,2.17,-0.77,0.98,1.08
2022-02-06 21:40:09.5020,-0.255,-0.891,-0.88,2.81,1.21,2.36,-0.47,0.82,1.16
2022-02-06 21:40:09.5120,-0.266,-0.879,-0.865,2.88,1.12,2.2,-0.18,0.69,1.23
2022-02-06 21:40:09.5220,-0.273,-0.87,-0.841,2.91,1.03,1.96,0.05,0.58,1.28
2022-02-06 21:40:09.5320,-0.275,-0.872,-0.819,2.88,1.04,1.74,0.18,0.46,1.31
2022-02-06 21:40:09.5430,-0.268,-0.884,-0.797,2.88,1.04,1.74,0.26,0.35,1.33
2022-02-06 21:40:09.5530,-0.256,-0.894,-0.774,2.55,1.21,1.34,0.33,0.26,1.35
2022-02-06 21:40:09.5630,-0.251,-0.908,-0.747,2.55,1.21,1.34,0.39,0.2,1.4
2022-02-06 21:40:09.5720,-0.259,-0.912,-0.716,2.4,1.33,1.1,0.46,0.21,1.46
2022-02-06 21:40:09.5820,-0.267,-0.9,-0.675,2.36,1.24,0.46,0.51,0.25,1.52
2022-02-06 21:40:09.5930,-0.266,-0.89,-0.638,2.267964797616005,1.1114919608831406,0.14,0.53,0.29,1.55
2022-02-06 21:40:09.6030,-0.258,-0.887,-0.608,2.26,1.11,0.14,0.48,0.31,1.55
2022-02-06 21:40:09.6130,-0.243,-0.881,-0.584,2.09,1.05,-0.13,0.37,0.28,1.51
2022-02-06 21:40:09.6220,-0.232,-0.86,-0.574,1.85,0.98,-0.34,0.21,0.2,1.42
2022-02-06 21:40:09.6330,-0.222,-0.834,-0.575,1.44,0.52,-0.42,0.21,0.2,1.42
2022-02-06 21:40:09.6430,-0.207,-0.82,-0.582,1.44,0.52,-0.42,-0.15,-0.05,1.27
2022-02-06 21:40:09.6530,-0.191,-0.803,-0.599,1.21,0.38,-0.36,-0.15,-0.05,1.27
2022-02-06 21:40:09.6630,-0.189,-0.76,-0.631,0.78,-0.1,0.06,-0.46,-0.28,1.28
2022-02-06 21:40:09.6730,-0.196,-0.708,-0.655,0.74,-0.58,0.28,-0.57,-0.25,1.33
2022-02-06 21:40:09.6830,-0.203,-0.676,-0.659,0.69,-0.87,0.31,-0.64,-0.04,1.41
2022-02-06 21:40:09.6930,-0.22,-0.649,-0.653,0.73,-1.07,0.2,-0.64,-0.04,1.41
2022-02-06 21:40:09.7020,-0.235,-0.611,-0.647,0.73,-1.07,0.2,-0.62,0.77,1.59
2022-02-06 21:40:09.7120,-0.244,-0.573,-0.65,0.82,-1.68,0.04,-0.52,1.18,1.69
2022-02-06 21:40:09.7230,-0.245,-0.551,-0.676,0.82,-1.68,0.04,-0.39,1.42,1.81
2022-02-06 21:40:09.7330,-0.237,-0.561,-0.726,0.68,-1.76,0.61,-0.24,1.41,1.96
2022-02-06 21:40:09.7440,-0.222,-0.596,-0.784,0.68,-1.76,0.61,-0.06,1.16,2.12
2022-02-06 21:40:09.7530,-0.207,-0.629,-0.829,0.5,-1.37,1.15,0.15,0.76,2.24
2022-02-06 21:40:09.7630,-0.193,-0.648,-0.86,0.26,-1.0,1.59,0.38,0.21,2.28
2022-02-06 21:40:09.7720,-0.191,-0.646,-0.901,-0.17,-0.73,2.3,0.6,-0.43,2.23
2022-02-06 21:40:09.7830,-0.202,-0.635,-0.92,-0.26,-0.83,2.59,0.77,-1.0,2.1
2022-02-06 21:40:09.7940,-0.227,-0.617,-0.907,-0.26,-0.83,2.59,0.85,-1.39,1.92
2022-02-06 21:40:09.8030,-0.27,-0.592,-0.883,-0.26,-0.99,2.56,0.88,-1.52,1.72
2022-02-06 21:40:09.8130,-0.321,-0.57,-0.836,0.21,-1.46,2.11,0.88,-1.33,1.52
2022-02-06 21:40:09.8320,-0.366,-0.547,-0.77,0.47,-1.68,1.58,0.88,-1.33,1.52
2022-02-06 21:40:09.8330,-0.386,-0.525,-0.72,0.56,-1.93,1.14,0.86,-0.44,1.11
2022-02-06 21:40:09.8440,-0.378,-0.529,-0.691,0.46,-1.95,1.21,0.78,-0.02,0.93
2022-02-06 21:40:09.8520,-0.346,-0.571,-0.679,0.34,-1.97,0.97,0.64,0.26,0.81
2022-02-06 21:40:09.8630,-0.31,-0.623,-0.677,0.0,-1.6,0.87,0.5,0.38,0.72
2022-02-06 21:40:09.8730,-0.285,-0.66,-0.682,-0.39,-1.09,0.86,0.37,0.38,0.65
2022-02-06 21:40:09.8830,-0.272,-0.672,-0.69,-0.67,-0.7,0.91,0.28,0.29,0.55
2022-02-06 21:40:09.8930,-0.268,-0.668,-0.689,-0.84,-0.54,1.0,0.25,0.21,0.42
2022-02-06 21:40:09.9030,-0.269,-0.659,-0.674,-0.9,-0.57,1.02,0.26,0.15,0.29
2022-02-06 21:40:09.9130,-0.277,-0.648,-0.668,-0.91,-0.65,0.89,0.28,0.11,0.16
2022-02-06 21:40:09.9230,-0.284,-0.643,-0.661,-0.84,-0.78,0.83,0.29,0.11,0.05
2022-02-06 21:40:09.9330,-0.285,-0.649,-0.649,-0.77,-0.85,0.78,0.29,0.13,-0.04
2022-02-06 21:40:09.9430,-0.28,-0.657,-0.643,-0.74,-0.81,0.68,0.31,0.16,-0.13
2022-02-06 21:40:09.9530,-0.277,-0.656,-0.632,-0.77,-0.75,0.64,0.34,0.2,-0.22
2022-02-06 21:40:09.9630,-0.272,-0.646,-0.619,-0.77,-0.77,0.56,0.34,0.25,-0.3
2022-02-06 21:40:09.9730,-0.259,-0.646,-0.604,-0.78,-0.9,0.43,0.29,0.32,-0.37
2022-02-06 21:40:09.9830,-0.251,-0.659,-0.583,-0.86,-0.95,0.31,0.23,0.41,-0.4
2022-02-06 21:40:09.9930,-0.244,-0.668,-0.574,-0.89,-0.85,0.1,0.17,0.49,-0.4
2022-02-06 21:40:10.0030,-0.237,-0.672,-0.575,-0.91,-0.77,0.0,0.17,0.54,-0.37
2022-02-06 21:40:10.0130,-0.225,-0.682,-0.579,-0.92,-0.76,-0.01,0.23,0.56,-0.32
2022-02-06 21:40:10.0230,-0.211,-0.692,-0.587,-0.97,-0.69,0.02,0.34,0.53,-0.29
2022-02-06 21:40:10.0330,-0.2,-0.695,-0.597,-1.05,-0.61,0.1,0.46,0.48,-0.29
2022-02-06 21:40:10.0430,-0.19,-0.705,-0.597,-1.12,-0.61,0.22,0.58,0.45,-0.32
2022-02-06 21:40:10.0530,-0.179,-0.728,-0.574,-1.17,-0.57,0.28,0.67,0.42,-0.33
2022-02-06 21:40:10.0630,-0.168,-0.748,-0.559,-1.23,-0.4,0.1,0.72,0.38,-0.34
2022-02-06 21:40:10.0730,-0.155,-0.763,-0.539,-1.29,-0.25,-0.02,0.76,0.34,-0.32
2022-02-06 21:40:10.0830,-0.141,-0.791,-0.516,-1.38,-0.15,-0.15,0.81,0.27,-0.25
2022-02-06 21:40:10.0940,-0.126,-0.838,-0.506,-1.48,0.05,-0.33,0.84,0.16,-0.17
2022-02-06 21:40:10.1030,-0.108,-0.886,-0.499,-1.6,0.45,-0.4,0.8,0.02,-0.1
2022-02-06 21:40:10.1130,-0.097,-0.929,-0.49,-1.77,0.87,-0.39,0.67,-0.12,-0.07
2022-02-06 21:40:10.1240,-0.101,-0.967,-0.486,-1.89,1.28,-0.44,0.45,-0.22,-0.07
2022-02-06 21:40:10.1340,-0.11,-1.003,-0.47,-1.88,1.61,-0.43,0.2,-0.25,-0.11
2022-02-06 21:40:10.1440,-0.118,-1.023,-0.464,-1.79,1.97,-0.56,-0.06,-0.19,-0.19
2022-02-06 21:40:10.1530,-0.129,-1.025,-0.467,-1.71,2.19,-0.63,-0.27,-0.04,-0.3
2022-02-06 21:40:10.1630,-0.15,-1.004,-0.472,-1.58,2.24,-0.64,-0.39,0.18,-0.42
2022-02-06 21:40:10.1730,-0.163,-0.972,-0.491,-1.35,2.07,-0.62,-0.44,0.41,-0.52
2022-02-06 21:40:10.1830,-0.164,-0.946,-0.51,-1.14,1.77,-0.5,-0.4,0.64,-0.61
2022-02-06 21:40:10.1940,-0.152,-0.925,-0.517,-1.04,1.51,-0.35,-0.29,0.83,-0.69
2022-02-06 21:40:10.2040,-0.118,-0.905,-0.525,-1.03,1.3,-0.33,-0.13,0.93,-0.79
2022-02-06 21:40:10.2140,-0.064,-0.912,-0.527,-1.23,1.08,-0.28,0.01,0.93,-0.89
2022-02-06 21:40:10.2240,-0.005,-0.955,-0.521,-1.62,1.08,-0.27,0.09,0.85,-0.92
2022-02-06 21:40:10.2340,0.044,-0.998,-0.521,-2.08,1.45,-0.34,0.1,0.69,-0.89
2022-02-06 21:40:10.2440,0.078,-1.017,-0.523,-2.48,1.87,-0.36,0.1,0.53,-0.83
2022-02-06 21:40:10.2540,0.09,-1.013,-0.517,-2.74,2.06,-0.33,0.11,0.37,-0.74
2022-02-06 21:40:10.2640,0.074,-0.984,-0.528,-2.8,2.03,-0.39,0.17,0.21,-0.63
2022-02-06 21:40:10.2740,0.051,-0.945,-0.544,-2.62,1.76,-0.3,0.28,0.03,-0.52
2022-02-06 21:40:10.2840,0.031,-0.915,-0.556,-2.34,1.35,-0.12,0.4,-0.16,-0.44
2022-02-06 21:40:10.2940,0.014,-0.895,-0.569,-2.12,1.01,0.03,0.53,-0.35,-0.39
2022-02-06 21:40:10.3040,0.007,-0.895,-0.567,-1.94,0.76,0.21,0.66,-0.5,-0.38
2022-02-06 21:40:10.3140,0.004,-0.898,-0.558,-1.85,0.7,0.28,0.77,-0.59,-0.42
2022-02-06 21:40:10.3240,0.001,-0.897,-0.532,-1.82,0.69,0.26,0.85,-0.59,-0.51
2022-02-06 21:40:10.3340,0.008,-0.905,-0.494,-1.77,0.62,0.12,0.85,-0.55,-0.62
2022-02-06 21:40:10.3440,0.018,-0.916,-0.47,-1.8,0.64,-0.19,0.77,-0.5,-0.69
2022-02-06 21:40:10.3540,0.022,-0.934,-0.451,-1.88,0.69,-0.37,0.6,-0.42,-0.72
2022-02-06 21:40:10.3640,0.023,-0.949,-0.435,-1.88,0.82,-0.5,0.4,-0.3,-0.7
2022-02-06 21:40:10.3740,0.017,-0.961,-0.428,-1.86,0.95,-0.62,0.21,-0.17,-0.63
2022-02-06 21:40:10.3840,0.007,-0.966,-0.45,-1.77,1.05,-0.69,0.09,-0.08,-0.56
2022-02-06 21:40:10.3900,-0.006,-0.957,-0.484,-1.5,1.03,-0.17,0.09,-0.04,-0.5
2022-02-06 21:40:10.4020,-0.02,-0.94,-0.52,-1.5,1.03,-0.17,0.2,-0.07,-0.48
2022-02-06 21:40:10.4120,-0.037,-0.926,-0.549,-1.33,0.85,0.18,0.39,-0.14,-0.51
2022-02-06 21:40:10.4220,-0.044,-0.909,-0.554,-1.13,0.69,0.51,0.58,-0.24,-0.59
2022-02-06 21:40:10.4320,-0.037,-0.899,-0.539,-1.02,0.35,0.54,0.7,-0.37,-0.67
2022-02-06 21:40:10.4430,-0.022,-0.913,-0.518,-1.12,0.43,0.4,0.71,-0.49,-0.73
2022-02-06 21:40:10.4520,-0.006,-0.916,-0.491,-1.12,0.43,0.4,0.63,-0.58,-0.77
2022-02-06 21:40:10.4620,0.005,-0.912,-0.468,-1.24,0.45,0.21,0.63,-0.62,-0.78
2022-02-06 21:40:10.4720,-0.003,-0.911,-0.456,-1.23,0.32,-0.06,0.36,-0.63,-0.76
2022-02-06 21:40:10.4820,-0.03,-0.9,-0.475,-0.95,0.2,0.13,0.26,-0.61,-0.77
2022-02-06 21:40:10.4920,-0.069,-0.88,-0.503,-0.95,0.2,0.13,0.21,-0.57,-0.83
2022-02-06 21:40:10.5020,-0.097,-0.871,-0.527,-0.19,-0.14,0.69,0.22,-0.55,-0.91
2022-02-06 21:40:10.5120,-0.113,-0.876,-0.561,0.03,-0.12,1.04,0.28,-0.56,-1.0
2022-02-06 21:40:10.5220,-0.112,-0.891,-0.572,0.03,-0.12,1.04,0.38,-0.6,-1.09
2022-02-06 21:40:10.5320,-0.097,-0.9,-0.577,0.04,0.06,1.3,0.48,-0.71,-1.16
2022-02-06 21:40:10.5410,-0.079,-0.913,-0.585,-0.07,0.16,1.43,0.56,-0.91,-1.18
2022-02-06 21:40:10.5510,-0.061,-0.925,-0.58,-0.07,0.16,1.43,0.56,-0.91,-1.18
2022-02-06 21:40:10.5610,-0.05,-0.911,-0.561,-0.18,0.25,1.45,0.61,-1.35,-1.14
2022-02-06 21:40:10.5710,-0.044,-0.883,-0.526,-0.26,-0.18,1.07,0.53,-1.53,-1.13
2022-02-06 21:40:10.5810,-0.033,-0.855,-0.5,-0.26,-0.18,1.07,0.35,-1.69,-1.13
2022-02-06 21:40:10.5930,-0.019,-0.841,-0.473,-0.32,-0.5,0.87,0.06,-1.75,-1.11
2022-02-06 21:40:10.6100,-0.008,-0.841,-0.443,-0.52,-0.7,0.37,0.06,-1.75,-1.11
2022-02-06 21:40:10.6110,-0.0,-0.851,-0.409,-0.57,-0.6,0.03,-0.6,-1.45,-0.98
2022-02-06 21:40:10.6230,0.004,-0.857,-0.378,-0.58,-0.51,-0.34,-0.86,-1.05,-0.91
2022-02-06 21:40:10.6320,0.007,-0.853,-0.368,-0.58,-0.51,-0.55,-1.03,-0.59,-0.84
2022-02-06 21:40:10.6430,0.007,-0.856,-0.392,-0.58,-0.51,-0.55,-1.08,-0.19,-0.75
2022-02-06 21:40:10.6520,0.007,-0.867,-0.436,-0.47,-0.31,-0.11,-1.01,0.1,-0.66
2022-02-06 21:40:10.6630,0.012,-0.888,-0.472,-0.47,-0.31,-0.11,-1.01,0.1,-0.66
2022-02-06 21:40:10.6730,0.016,-0.922,-0.505,-0.45,-0.07,0.17,-0.62,0.22,-0.52
2022-02-06 21:40:10.6820,0.022,-0.957,-0.529,-0.44,0.66,0.61,-0.43,0.04,-0.49
2022-02-06 21:40:10.6930,0.023,-0.976,-0.54,-0.44,0.66,0.61,-0.43,0.04,-0.49
2022-02-06 21:40:10.7030,0.028,-0.99,-0.533,-0.41,0.89,0.7,-0.28,-0.48,-0.55
2022-02-06 21:40:10.7120,0.04,-1.009,-0.513,-0.51,1.23,0.41,-0.3,-0.69,-0.58
2022-02-06 21:40:10.7220,0.054,-1.028,-0.487,-0.51,1.23,0.41,-0.32,-0.83,-0.58
2022-02-06 21:40:10.7320,0.066,-1.032,-0.476,-0.73,1.51,-0.03,-0.32,-0.83,-0.58
2022-02-06 21:40:10.7430,0.075,-1.014,-0.474,-0.73,1.51,-0.03,-0.22,-1.07,-0.42
2022-02-06 21:40:10.7530,0.082,-0.991,-0.462,-0.83,1.38,-0.08,-0.12,-1.17,-0.29
2022-02-06 21:40:10.7630,0.086,-0.975,-0.441,-0.91,1.15,-0.19,-0.12,-1.17,-0.29
2022-02-06 21:40:10.7730,0.088,-0.957,-0.424,-1.06,0.83,-0.58,-0.0,-1.4,-0.11
2022-02-06 21:40:10.7830,0.078,-0.931,-0.41,-1.06,0.83,-0.58,-0.03,-1.54,-0.1
2022-02-06 21:40:10.7930,0.066,-0.905,-0.408,-1.03,0.59,-0.72,-0.03,-1.54,-0.1
2022-02-06 21:40:10.8030,0.056,-0.893,-0.412,-0.95,0.2,-0.73,-0.23,-1.75,-0.21
2022-02-06 21:40:10.8130,0.047,-0.882,-0.42,-0.92,0.1,-0.68,-0.31,-1.75,-0.29
2022-02-06 21:40:10.8230,0.043,-0.87,-0.43,-0.92,0.1,-0.68,-0.33,-1.72,-0.38
2022-02-06 21:40:10.8330,0.039,-0.861,-0.449,-0.94,0.0,-0.6,-0.31,-1.66,-0.44
2022-02-06 21:40:10.8430,0.031,-0.853,-0.458,-0.95,-0.08,-0.44,-0.25,-1.57,-0.47
2022-02-06 21:40:10.8530,0.018,-0.838,-0.463,-0.832141233086586,-0.2627855658531189,-0.3088037377595902,-0.16,-1.49,-0.49
2022-02-06 21:40:10.8630,0.003,-0.819,-0.466,-0.84,-0.27,-0.31,-0.1,-1.4,-0.52
2022-02-06 21:40:10.8730,-0.018,-0.798,-0.461,-0.54,-0.65,-0.32,-0.07,-1.3,-0.58
2022-02-06 21:40:10.8830,-0.033,-0.773,-0.443,-0.4,-0.88,-0.49,-0.08,-1.23,-0.7
2022-02-06 21:40:10.8940,-0.046,-0.739,-0.45,-0.4,-0.88,-0.49,-0.12,-1.25,-0.85
2022-02-06 21:40:10.9030,-0.054,-0.703,-0.464,-0.18,-1.57,-0.31,-0.17,-1.32,-1.01
2022-02-06 21:40:10.9140,-0.056,-0.676,-0.466,-0.12530122675001623,-1.84,-0.3,-0.2,-1.43,-1.15
2022-02-06 21:40:10.9240,-0.055,-0.662,-0.483,-0.13,-1.84,-0.3,-0.2,-1.43,-1.15
2022-02-06 21:40:10.9330,-0.057,-0.657,-0.519,-0.11,-1.99,-0.17,-0.38,-1.69,-1.3
2022-02-06 21:40:10.9440,-0.065,-0.668,-0.553,0.03,-1.95,0.48,-0.53,-1.72,-1.32
2022-02-06 21:40:10.9540,-0.076,-0.694,-0.581,0.03,-1.95,0.48,-0.64,-1.6,-1.33
2022-02-06 21:40:10.9630,-0.098,-0.705,-0.608,0.16,-1.69,0.71,-0.67,-1.34,-1.37
2022-02-06 21:40:10.9730,-0.114,-0.693,-0.634,0.39,-1.51,0.94,-0.59,-1.02,-1.46
2022-02-06 21:40:10.9840,-0.109,-0.701,-0.658,0.62,-1.6,1.14,-0.4,-0.7,-1.55
2022-02-06 21:40:10.9940,-0.083,-0.72,-0.686,0.53,-1.32,1.55,-0.22,-0.59,-1.64
2022-02-06 21:40:11.0040,-0.045,-0.73,-0.742,0.27,-1.23,2.08,-0.16,-0.63,-1.69
2022-02-06 21:40:11.0140,-0.02,-0.772,-0.76,0.27,-1.23,2.08,-0.21,-0.7,-1.64
2022-02-06 21:40:11.0240,-0.011,-0.814,-0.747,0.11,-0.39,2.18,-0.26,-0.74,-1.54
2022-02-06 21:40:11.0340,-0.004,-0.805,-0.733,0.11,-0.39,2.18,-0.27,-0.77,-1.47
2022-02-06 21:40:11.0440,-0.009,-0.774,-0.727,0.12,-0.4,2.01,-0.24,-0.79,-1.45
2022-02-06 21:40:11.0540,-0.019,-0.749,-0.711,0.25,-0.68,1.92,-0.24,-0.79,-1.45
2022-02-06 21:40:11.0640,-0.028,-0.738,-0.681,0.42,-0.92,1.77,-0.27,-0.62,-1.44
2022-02-06 21:40:11.0740,-0.04,-0.738,-0.657,0.58,-1.03,1.45,-0.31,-0.41,-1.41
2022-02-06 21:40:11.0840,-0.044,-0.747,-0.607,0.78,-1.02,1.19,-0.3,-0.14,-1.35
2022-02-06 21:40:11.0940,-0.025,-0.762,-0.567,0.88,-0.75,0.25,-0.26,0.1,-1.27
2022-02-06 21:40:11.1040,0.001,-0.785,-0.555,0.88,-0.75,0.25,-0.26,0.1,-1.27
2022-02-06 21:40:11.1140,0.022,-0.805,-0.548,0.62,-0.29,0.01,-0.1,0.2,-1.01
2022-02-06 21:40:11.1240,0.032,-0.816,-0.534,0.62,-0.29,0.01,-0.03,0.07,-0.87
2022-02-06 21:40:11.1340,0.031,-0.807,-0.529,0.68,-0.21,-0.21,-0.0,-0.16,-0.77
2022-02-06 21:40:11.1440,0.025,-0.797,-0.531,0.79,-0.31,-0.19,-0.02,-0.45,-0.69
2022-02-06 21:40:11.1540,0.023,-0.792,-0.527,0.79,-0.31,-0.19,-0.07185927778482437,-0.75,-0.68
2022-02-06 21:40:11.1640,0.022,-0.779,-0.524,0.87,-0.45,-0.28,-0.14,-1.0,-0.72
2022-02-06 21:40:11.1740,0.022,-0.751,-0.525,0.87,-0.69,-0.29,-0.21,-1.17,-0.81
2022-02-06 21:40:11.1840,0.022,-0.712,-0.524,0.87,-0.69,-0.29,-0.3,-1.23,-0.9
2022-02-06 21:40:11.1950,0.026,-0.677,-0.517,0.85,-1.37,-0.43,-0.4,-1.17,-0.97
2022-02-06 21:40:11.2050,0.03,-0.656,-0.501,0.82,-1.56,-0.63,-0.5,-0.97,-0.97
2022-02-06 21:40:11.2140,0.035,-0.634,-0.486,0.82,-1.56,-0.63,-0.58,-0.67,-0.91
2022-02-06 21:40:11.2240,0.042,-0.609,-0.481,0.76,-1.93,-0.96,-0.63,-0.34,-0.77
2022-02-06 21:40:11.2340,0.041,-0.598,-0.496,0.76,-1.93,-0.96,-0.6,-0.09,-0.54
2022-02-06 21:40:11.2450,0.031,-0.604,-0.525,0.8,-2.01,-0.89,-0.5,0.03,-0.23
2022-02-06 21:40:11.2550,0.006,-0.603,-0.55,1.17,-1.89,-0.45,-0.33,-0.02,0.09
2022-02-06 21:40:11.2640,-0.023,-0.588,-0.582,1.17,-1.89,-0.45,-0.12,-0.25,0.32
2022-02-06 21:40:11.2740,-0.049,-0.575,-0.596,1.44,-2.0,-0.17,0.08,-0.57,0.43
2022-02-06 21:40:11.2840,-0.071,-0.571,-0.59,1.82,-2.2,-0.06,0.21,-0.9,0.39
2022-02-06 21:40:11.2950,-0.085,-0.574,-0.589,1.88,-2.19,-0.08,0.23,-1.23,0.25
2022-02-06 21:40:11.3050,-0.107,-0.572,-0.577,1.88,-2.19,-0.08,0.15,-1.44,0.03
2022-02-06 21:40:11.3150,-0.131,-0.57,-0.537,1.98,-2.21,-0.16,0.01,-1.46,-0.2
2022-02-06 21:40:11.3240,-0.14,-0.576,-0.49,2.14,-2.24,-0.52,-0.16,-1.29,-0.42
2022-02-06 21:40:11.3350,-0.132,-0.587,-0.465,2.19,-2.19,-1.01,-0.36,-1.01,-0.6
2022-02-06 21:40:11.3450,-0.105,-0.607,-0.451,2.09,-2.08,-1.3,-0.56,-0.67,-0.73
2022-02-06 21:40:11.3550,-0.073,-0.64,-0.457,1.83,-1.87,-1.49,-0.76,-0.35,-0.8
2022-02-06 21:40:11.3650,-0.041,-0.677,-0.481,1.25,-1.1,-1.35,-0.93,-0.11,-0.82
2022-02-06 21:40:11.3750,-0.02,-0.709,-0.507,1.09,-0.71,-1.18,-1.06,0.02,-0.79
2022-02-06 21:40:11.3850,0.001,-0.755,-0.561,1.09,-0.71,-0.7608987575769425,-1.12,0.02,-0.69
2022-02-06 21:40:11.3950,0.032,-0.836,-0.612,0.71,0.61,-0.33,-1.08,-0.08,-0.54
2022-02-06 21:40:11.4050,0.066,-0.916,-0.663,0.71,0.61,-0.33,-1.08,-0.08,-0.54
2022-02-06 21:40:11.4150,0.085,-0.964,-0.708,0.2,2.07,0.47,-0.59,-0.55,-0.19
2022-02-06 21:40:11.4250,0.082,-0.991,-0.727,0.2,2.07,0.47,-0.22,-0.82,-0.0
2022-02-06 21:40:11.4350,0.054,-1.001,-0.719,0.37,2.53,0.57,0.11,-1.03,0.18
2022-02-06 21:40:11.4460,0.012,-1.011,-0.682,0.7,2.6,0.23,0.34,-1.15,0.33
2022-02-06 21:40:11.4560,-0.018,-1.045,-0.633,0.7,2.6,0.23,0.43,-1.19,0.4
2022-02-06 21:40:11.4650,-0.034,-1.078,-0.586,0.92,2.88,-0.22,0.43,-1.17,0.37
2022-02-06 21:40:11.4750,-0.044,-1.108,-0.539,0.98,3.45,-1.11,0.32,-1.1,0.26
2022-02-06 21:40:11.4850,-0.043,-1.152,-0.501,0.98,3.45,-1.11,0.14,-0.98,0.11
2022-02-06 21:40:11.4950,-0.04,-1.195,-0.475,0.9,3.84,-1.48,-0.08,-0.82,-0.05
2022-02-06 21:40:11.5060,-0.038,-1.218,-0.457,0.72,4.53,-1.94,-0.3,-0.61,-0.21
2022-02-06 21:40:11.5160,-0.038,-1.229,-0.453,0.72,4.53,-1.94,-0.49,-0.4,-0.32
2022-02-06 21:40:11.5250,-0.044,-1.225,-0.474,0.69,4.67,-2.03,-0.64,-0.24,-0.37
2022-02-06 21:40:11.5350,-0.047,-1.205,-0.515,0.74,4.69,-1.9,-0.71,-0.16,-0.38
2022-02-06 21:40:11.5460,-0.044,-1.188,-0.553,0.78,4.42,-1.22,-0.72,-0.13,-0.36
2022-02-06 21:40:11.5560,-0.037,-1.171,-0.591,0.73,4.31,-0.91,-0.68,-0.15,-0.35
2022-02-06 21:40:11.5650,-0.036,-1.149,-0.627,0.73,4.31,-0.91,-0.59,-0.19,-0.33
2022-02-06 21:40:11.5760,-0.033,-1.132,-0.643,0.73,4.15,-0.59,-0.45,-0.22,-0.32
2022-02-06 21:40:11.5850,-0.026,-1.127,-0.653,0.72,4.01,-0.46,-0.29,-0.25,-0.28
2022-02-06 21:40:11.5960,-0.016,-1.116,-0.656,0.66,3.98,-0.4,-0.1,-0.27,-0.23
2022-02-06 21:40:11.6060,-0.009,-1.099,-0.649,0.49,3.75,-0.44,0.07,-0.31,-0.14
2022-02-06 21:40:11.6150,-0.01,-1.087,-0.639,0.49,3.75,-0.44,0.19,-0.37,-0.0
2022-02-06 21:40:11.6260,-0.018,-1.084,-0.627,0.48,3.62,-0.54,0.26,-0.45,0.14
2022-02-06 21:40:11.6360,-0.036,-1.072,-0.621,0.64,3.46,-0.7,0.26,-0.45,0.14
2022-02-06 21:40:11.6460,-0.063,-1.047,-0.62,0.64,3.46,-0.7,0.29,-0.54,0.26
2022-02-06 21:40:11.6560,-0.106,-1.011,-0.632,0.84,3.21,-0.7,0.31,-0.7,0.38
2022-02-06 21:40:11.6650,-0.155,-0.969,-0.643,1.17,2.85,-0.57,0.31,-0.7,0.38
2022-02-06 21:40:11.6760,-0.186,-0.939,-0.638,1.58,2.42,-0.44,0.38,-0.73,0.28
2022-02-06 21:40:11.6860,-0.21,-0.92,-0.635,1.83,2.07,-0.45,0.44,-0.68,0.19
2022-02-06 21:40:11.6960,-0.224,-0.904,-0.631,2.0,1.86,-0.46,0.44,-0.68,0.19
2022-02-06 21:40:11.7060,-0.226,-0.909,-0.611,2.1,1.66,-0.45,0.47,-0.59,0.1
2022-02-06 21:40:11.7160,-0.221,-0.926,-0.59,2.01,1.79,-0.78,0.46,-0.28,-0.03
2022-02-06 21:40:11.7260,-0.206,-0.951,-0.584,2.01,1.79,-0.78,0.39,-0.16,-0.07
2022-02-06 21:40:11.7360,-0.187,-0.968,-0.589,1.86,1.99,-0.83,0.31,-0.12,-0.13
2022-02-06 21:40:11.7460,-0.174,-0.961,-0.607,1.52,2.1,-0.58,0.21,-0.16,-0.2
2022-02-06 21:40:11.7560,-0.17,-0.939,-0.631,1.52,2.1,-0.58,0.12,-0.25,-0.26
2022-02-06 21:40:11.7660,-0.171,-0.905,-0.662,1.48,1.88,-0.34,0.07,-0.32,-0.31
2022-02-06 21:40:11.7760,-0.17,-0.867,-0.68,1.49,1.55,-0.03,0.08,-0.34,-0.36
2022-02-06 21:40:11.7860,-0.158,-0.834,-0.688,1.49,1.18,0.18,0.16,-0.31,-0.41
2022-02-06 21:40:11.7970,-0.141,-0.81,-0.691,1.24,0.59,0.32,0.32,-0.25,-0.44
2022-02-06 21:40:11.8070,-0.12,-0.784,-0.689,1.24,0.59,0.32,0.5,-0.18,-0.44
2022-02-06 21:40:11.8160,-0.099,-0.756,-0.676,1.05,0.01566352128982544,0.26,0.67,-0.11,-0.4
2022-02-06 21:40:11.8260,-0.08,-0.732,-0.65,0.86,0.01,0.26,0.77,-0.04,-0.32
2022-02-06 21:40:11.8370,-0.065,-0.726,-0.619,0.56,-0.41,-0.19,0.77,0.02,-0.19
2022-02-06 21:40:11.8470,-0.039,-0.738,-0.595,0.34,-0.36,-0.38,0.71,0.06,-0.05
2022-02-06 21:40:11.8570,-0.008,-0.757,-0.578,0.05,-0.22,-0.5,0.59,0.09,0.05
2022-02-06 21:40:11.8670,0.018,-0.765,-0.562,0.05,-0.22,-0.5,0.45,0.12,0.11
2022-02-06 21:40:11.8770,0.035,-0.767,-0.551,-0.21,-0.16,-0.61,0.28,0.18,0.15
2022-02-06 21:40:11.8860,0.04,-0.771,-0.54,-0.4,-0.16,-0.69,0.11,0.33,0.17
2022-02-06 21:40:11.8970,0.038,-0.763,-0.53,-0.46,-0.14,-0.78,-0.04,0.54,0.19
2022-02-06 21:40:11.9070,0.036,-0.745,-0.527,-0.44,-0.2,-0.87,-0.16,0.76,0.22
2022-02-06 21:40:11.9170,0.039,-0.736,-0.539,-0.4,-0.38,-0.92,-0.23,0.93,0.28
2022-02-06 21:40:11.9270,0.047,-0.736,-0.562,-0.44,-0.46,-0.63,-0.26,1.04,0.39
2022-02-06 21:40:11.9370,0.057,-0.743,-0.576,-0.44,-0.46,-0.63,-0.24,1.07,0.54
2022-02-06 21:40:11.9470,0.064,-0.748,-0.589,-0.49,-0.38,-0.5,-0.19,1.02,0.71
2022-02-06 21:40:11.9570,0.07,-0.758,-0.598,-0.55,-0.31,-0.4,-0.12,0.94,0.93
2022-02-06 21:40:11.9660,0.07,-0.777,-0.599,-0.6,-0.22,-0.31,-0.03,0.82,1.16
2022-02-06 21:40:11.9770,0.064,-0.786,-0.605,-0.62,-0.02,-0.31,0.05,0.66,1.36
2022-02-06 21:40:11.9870,0.051,-0.791,-0.609,-0.61,0.08,-0.26,0.1,0.5,1.51
2022-02-06 21:40:11.9970,0.027,-0.799,-0.614,-0.42,0.2,-0.16,0.13,0.38,1.61
2022-02-06 21:40:12.0080,-0.003,-0.8,-0.614,-0.42,0.2,-0.16,0.15,0.31,1.65
2022-02-06 21:40:12.0170,-0.041,-0.782,-0.622,-0.23,0.22,-0.14,0.15,0.26,1.62
2022-02-06 21:40:12.0270,-0.083,-0.753,-0.636,0.33,-0.22,0.08,0.13,0.25,1.53
2022-02-06 21:40:12.0370,-0.123,-0.72,-0.643,0.62,-0.54,0.16,0.09,0.27,1.43
2022-02-06 21:40:12.0470,-0.161,-0.682,-0.652,0.91,-0.9,0.25,-0.0,0.33,1.33
2022-02-06 21:40:12.0570,-0.19,-0.645,-0.659,0.91,-0.9,0.25,-0.13,0.42,1.24
2022-02-06 21:40:12.0680,-0.214,-0.614,-0.663,1.12,-1.26,0.32,-0.28,0.59,1.17
2022-02-06 21:40:12.0770,-0.225,-0.587,-0.66,1.3,-1.55,0.34,-0.41,0.85,1.11
2022-02-06 21:40:12.0880,-0.226,-0.56,-0.648,1.36,-2.03,0.15,-0.49,1.16,1.07
2022-02-06 21:40:12.0980,-0.226,-0.534,-0.652,1.34,-2.23,0.11,-0.52,1.42,1.06
2022-02-06 21:40:12.1080,-0.227,-0.509,-0.677,1.34,-2.23,0.11,-0.5,1.61,1.08
2022-02-06 21:40:12.1170,-0.23,-0.496,-0.707,1.4,-2.54,0.52,-0.42,1.7,1.17
2022-02-06 21:40:12.1280,-0.241,-0.488,-0.742,1.4,-2.54,0.52,-0.25,1.69,1.28
2022-02-06 21:40:12.1380,-0.253,-0.47,-0.768,1.52,-2.58,0.82,0.03,1.55,1.39
2022-02-06 21:40:12.1480,-0.251,-0.441,-0.795,1.67,-2.71,1.05,0.36,1.27,1.44
2022-02-06 21:40:12.1580,-0.234,-0.419,-0.818,1.48,-3.23,1.55,0.69,0.85,1.45
2022-02-06 21:40:12.1680,-0.208,-0.417,-0.824,1.18,-3.3,1.68,0.97,0.38,1.41
2022-02-06 21:40:12.1780,-0.187,-0.431,-0.817,1.18,-3.3,1.68,1.14,-0.09,1.36
2022-02-06 21:40:12.1880,-0.167,-0.459,-0.806,0.89,-3.23,1.68,1.2,-0.47,1.29
2022-02-06 21:40:12.1980,-0.154,-0.504,-0.792,0.31,-2.66,1.62,1.15,-0.74,1.22
2022-02-06 21:40:12.2080,-0.159,-0.547,-0.784,0.19,-2.27,1.64,1.01,-0.84,1.15
2022-02-06 21:40:12.2180,-0.197,-0.551,-0.77,0.19,-2.27,1.64,0.85,-0.72,1.05
2022-02-06 21:40:12.2270,-0.258,-0.514,-0.734,0.38,-2.22,1.6,0.75,-0.43,0.94
2022-02-06 21:40:12.2380,-0.312,-0.466,-0.707,1.3,-3.08,1.11,0.7,-0.11,0.8
2022-02-06 21:40:12.2480,-0.357,-0.425,-0.712,1.3,-3.08,1.11,0.7,0.14,0.65
2022-02-06 21:40:12.2580,-0.385,-0.405,-0.716,1.68,-3.52,1.18,0.69,0.28,0.46
2022-02-06 21:40:12.2670,-0.383,-0.41,-0.703,1.93,-3.79,1.22,0.64,0.32,0.24
2022-02-06 21:40:12.2780,-0.36,-0.45,-0.697,1.93,-3.79,1.22,0.53,0.27,0.01
2022-02-06 21:40:12.2880,-0.329,-0.503,-0.687,1.71,-3.47,1.2,0.39,0.18,-0.22
2022-02-06 21:40:12.2990,-0.294,-0.541,-0.654,1.12,-2.59,0.88,0.21,0.13,-0.45
2022-02-06 21:40:12.3080,-0.272,-0.553,-0.613,0.93,-2.48,0.49,0.02,0.13,-0.66
2022-02-06 21:40:12.3180,-0.257,-0.562,-0.577,0.93,-2.48,0.49,0.02,0.13,-0.66
2022-02-06 21:40:12.3280,-0.249,-0.562,-0.559,0.83,-2.41,0.13,-0.16,0.18,-0.81
2022-02-06 21:40:12.3390,-0.244,-0.552,-0.555,0.82,-2.38,-0.1,-0.54,0.26,-0.95
2022-02-06 21:40:12.3490,-0.238,-0.551,-0.561,0.86,-2.47,-0.18,-0.68,0.28,-0.95
2022-02-06 21:40:12.3580,-0.236,-0.553,-0.578,0.94,-2.42,-0.08,-0.73,0.27,-0.95
2022-02-06 21:40:12.3680,-0.232,-0.537,-0.606,0.94,-2.42,-0.08,-0.73,0.23,-0.98
2022-02-06 21:40:12.3780,-0.219,-0.521,-0.619,1.01,-2.53,0.12,-0.67,0.15,-1.02
2022-02-06 21:40:12.3890,-0.201,-0.524,-0.627,0.98,-2.67,0.21,-0.6,0.07,-1.05
2022-02-06 21:40:12.3990,-0.183,-0.538,-0.631,0.89,-2.64,0.23,-0.53,-0.02,-1.05
2022-02-06 21:40:12.4090,-0.162,-0.552,-0.623,0.8,-2.48,0.23,-0.5,-0.1,-1.02
2022-02-06 21:40:12.4180,-0.139,-0.562,-0.619,0.53,-2.19,0.03,-0.49,-0.2,-0.96
2022-02-06 21:40:12.4290,-0.117,-0.58,-0.619,0.37,-2.01,0.0,-0.49,-0.3,-0.86
2022-02-06 21:40:12.4390,-0.097,-0.604,-0.616,0.22,-1.74,-0.07,-0.49,-0.4,-0.73
2022-02-06 21:40:12.4490,-0.081,-0.617,-0.615,0.22,-1.74,-0.07,-0.47,-0.48,-0.6
2022-02-06 21:40:12.4590,-0.071,-0.63,-0.612,0.0,-1.43,-0.17,-0.43,-0.55,-0.45
2022-02-06 21:40:12.4690,-0.067,-0.643,-0.608,0.0,-1.43,-0.17,-0.43,-0.55,-0.45
2022-02-06 21:40:12.4790,-0.061,-0.652,-0.61,-0.05,-1.28,-0.25,-0.3,-0.67,-0.26
2022-02-06 21:40:12.4890,-0.046,-0.671,-0.615,-0.11,-1.16,-0.26,-0.23,-0.76,-0.23
2022-02-06 21:40:12.4990,-0.023,-0.706,-0.627,-0.52,-0.64,-0.13,-0.14,-0.85,-0.24
2022-02-06 21:40:12.5090,0.006,-0.745,-0.628,-0.83,-0.24,-0.11,-0.0,-0.9,-0.28
2022-02-06 21:40:12.5190,0.046,-0.788,-0.62,-1.24,0.17,-0.16,0.18,-0.89,-0.35
2022-02-06 21:40:12.5290,0.104,-0.833,-0.605,-1.82,0.59,-0.29,0.34,-0.84,-0.44
2022-02-06 21:40:12.5390,0.172,-0.883,-0.598,-1.82,0.59,-0.29,0.46,-0.78,-0.5
2022-02-06 21:40:12.5490,0.243,-0.947,-0.581,-2.5,1.04,-0.34,0.56,-0.7,-0.51
2022-02-06 21:40:12.5590,0.308,-1.011,-0.547,-3.2,1.63,-0.44,0.64,-0.62,-0.46
2022-02-06 21:40:12.5690,0.369,-1.082,-0.508,-3.85,2.22,-0.72,0.67,-0.57,-0.31
2022-02-06 21:40:12.5790,0.421,-1.169,-0.48,-5.01,3.67,-1.29,0.62,-0.61,-0.09
2022-02-06 21:40:12.5900,0.452,-1.231,-0.478,-5.37,4.28,-1.27,0.62,-0.61,-0.09
2022-02-06 21:40:12.6000,0.453,-1.267,-0.459,-5.37,4.28,-1.27,0.26,-0.75,0.38
2022-02-06 21:40:12.6100,0.426,-1.286,-0.436,-5.31,4.83,-1.6,0.01,-0.7,0.54
2022-02-06 21:40:12.6190,0.375,-1.277,-0.427,-5.31,4.83,-1.6,-0.18,-0.54,0.6
2022-02-06 21:40:12.6290,0.318,-1.244,-0.426,-4.44,4.49,-1.73,-0.29,-0.32,0.59
2022-02-06 21:40:12.6400,0.273,-1.223,-0.45,-4.44,4.49,-1.73,-0.28,-0.08,0.5
2022-02-06 21:40:12.6490,0.243,-1.218,-0.471,-3.77,4.26,-1.34,-0.2,0.15,0.35
2022-02-06 21:40:12.6600,0.23,-1.211,-0.492,-3.77,4.26,-1.34,-0.09,0.31,0.15
2022-02-06 21:40:12.6690,0.231,-1.206,-0.513,-3.63,4.17,-0.96,-0.0,0.4,-0.05
2022-02-06 21:40:12.6800,0.25,-1.204,-0.516,-3.77,4.14,-0.91,0.01,0.43,-0.22
2022-02-06 21:40:12.6900,0.276,-1.202,-0.513,-3.77,4.14,-0.91,-0.07,0.46,-0.32
2022-02-06 21:40:12.7000,0.286,-1.185,-0.507,-3.99,4.13,-0.94,-0.2,0.53,-0.34
2022-02-06 21:40:12.7100,0.288,-1.155,-0.5,-4.02,3.71,-1.12,-0.3,0.61,-0.29
2022-02-06 21:40:12.7210,0.28,-1.117,-0.51,-3.9,3.36,-1.07,-0.33,0.7,-0.17
2022-02-06 21:40:12.7300,0.271,-1.086,-0.525,-3.74,3.06,-0.95,-0.28,0.74,-0.03
2022-02-06 21:40:12.7400,0.265,-1.055,-0.537,-3.74,3.06,-0.95,-0.17,0.75,0.12
2022-02-06 21:40:12.7500,0.25,-1.025,-0.537,-3.47,2.49,-0.86,-0.03,0.75,0.25
2022-02-06 21:40:12.7600,0.237,-1.002,-0.539,-3.47,2.49,-0.86,-0.03,0.75,0.25
2022-02-06 21:40:12.7700,0.225,-0.992,-0.547,-3.17,2.13,-0.78,0.15,0.65,0.37
2022-02-06 21:40:12.7800,0.216,-1.0,-0.527,-3.068001308441162,2.208447743654251,-0.94,0.2,0.62,0.34
2022-02-06 21:40:12.7900,0.214,-0.989,-0.52,-3.07,2.2,-0.94,0.21,0.58,0.26
2022-02-06 21:40:12.8000,0.222,-0.983,-0.514,-3.08,2.02,-1.06,0.2,0.55,0.18
2022-02-06 21:40:12.8100,0.239,-0.991,-0.498,-3.08,2.02,-1.06,0.15,0.55,0.12
2022-02-06 21:40:12.8210,0.254,-0.995,-0.484,-3.22,2.09,-1.21,0.07,0.61,0.1
2022-02-06 21:40:12.8290,0.264,-1.002,-0.473,-3.35,2.13,-1.35,-0.04,0.73,0.13
2022-02-06 21:40:12.8400,0.266,-1.005,-0.478,-3.42,2.23,-1.45,-0.14,0.87,0.22
2022-02-06 21:40:12.8510,0.262,-1.004,-0.497,-3.42,2.23,-1.45,-0.19,0.99,0.34
2022-02-06 21:40:12.8600,0.254,-0.992,-0.526,-3.24,2.15,-1.05,-0.17,1.04,0.45
2022-02-06 21:40:12.8690,0.237,-0.963,-0.572,-3.06,1.89,-0.63,-0.17,1.04,0.45
2022-02-06 21:40:12.8790,0.228,-0.946,-0.607,-2.93,1.71,-0.28,0.05,0.88,0.55
2022-02-06 21:40:12.8890,0.229,-0.945,-0.627,-2.93,1.71,-0.28,0.18,0.73,0.52
2022-02-06 21:40:12.9010,0.241,-0.952,-0.633,-2.91,1.69,-0.08,0.25,0.6,0.45
2022-02-06 21:40:12.9100,0.26,-0.978,-0.616,-3.2,1.97,-0.12,0.18,0.51,0.37
2022-02-06 21:40:12.9200,0.276,-0.996,-0.615,-3.36,2.16,-0.15,-0.0,0.49,0.31
2022-02-06 21:40:12.9310,0.277,-0.998,-0.61,-3.39,2.2,-0.18,-0.23,0.56,0.28
2022-02-06 21:40:12.9410,0.267,-0.981,-0.615,-3.28,2.07,-0.19,-0.46,0.71,0.27
2022-02-06 21:40:12.9510,0.256,-0.949,-0.638,-3.28,2.07,-0.19,-0.62,0.92,0.26
2022-02-06 21:40:12.9600,0.237,-0.913,-0.661,-3.15,1.8,-0.01,-0.69,1.16,0.25
2022-02-06 21:40:12.9700,0.217,-0.868,-0.696,-2.69,1.1,0.42,-0.69,1.16,0.25
2022-02-06 21:40:12.9800,0.2,-0.831,-0.738,-2.44,0.77,0.78,-0.68,1.39,0.25
2022-02-06 21:40:12.9890,0.187,-0.804,-0.776,-2.44,0.77,0.78,-0.4,1.71,0.31
2022-02-06 21:40:13.0000,0.184,-0.784,-0.814,-2.1,0.36,1.44,-0.4,1.71,0.31
2022-02-06 21:40:13.0100,0.19,-0.77,-0.847,-2.1,0.36,1.44,0.11,1.66,0.37
2022-02-06 21:40:13.0210,0.2,-0.762,-0.855,-2.06,0.22,1.77,0.4,1.57,0.5
2022-02-06 21:40:13.0300,0.209,-0.765,-0.836,-2.1,0.12,1.75,0.65,1.47,0.57
2022-02-06 21:40:13.0400,0.218,-0.783,-0.809,-2.1,0.12,1.75,0.81,1.36,0.65
2022-02-06 21:40:13.0510,0.222,-0.803,-0.792,-2.14,0.24,1.52,0.86,1.28,0.69
2022-02-06 21:40:13.0610,0.221,-0.822,-0.76,-2.11,0.52,1.19,0.83,1.28,0.7
2022-02-06 21:40:13.0710,0.215,-0.84,-0.728,-2.11,0.52,1.19,0.75,1.35,0.69
2022-02-06 21:40:13.0810,0.193,-0.838,-0.709,-2.04,0.65,0.92,0.65,1.43,0.65
2022-02-06 21:40:13.0920,0.166,-0.819,-0.694,-1.81,0.62,0.78,0.59,1.53,0.59
2022-02-06 21:40:13.1000,0.146,-0.811,-0.687,-1.5,0.4,0.68,0.57,1.58,0.55
2022-02-06 21:40:13.1110,0.134,-0.81,-0.697,-1.24,0.27,0.64,0.59,1.58,0.5
2022-02-06 21:40:13.1210,0.128,-0.802,-0.702,-1.07,0.23,0.77,0.63,1.53,0.45
2022-02-06 21:40:13.1310,0.124,-0.797,-0.693,-0.85,0.02,0.86,0.66,1.47,0.39
2022-02-06 21:40:13.1420,0.117,-0.797,-0.68,-0.73,-0.01,0.79,0.66,1.42,0.35
2022-02-06 21:40:13.1510,0.114,-0.79,-0.655,-0.73,-0.01,0.79,0.65,1.41,0.3
2022-02-06 21:40:13.1610,0.114,-0.786,-0.622,-0.64,-0.12,0.62,0.61,1.43,0.27
2022-02-06 21:40:13.1720,0.12,-0.781,-0.59,-0.58,-0.2,0.36,0.58,1.46,0.26
2022-02-06 21:40:13.1810,0.133,-0.77,-0.561,-0.57,-0.28,0.1,0.55,1.48,0.26
2022-02-06 21:40:13.1920,0.149,-0.754,-0.539,-0.63,-0.42,-0.13,0.55,1.45,0.28
2022-02-06 21:40:13.2010,0.164,-0.73,-0.523,-0.72,-0.59,-0.31,0.57,1.35,0.32
2022-02-06 21:40:13.2110,0.181,-0.706,-0.515,-0.92,-1.13,-0.45,0.57,1.15,0.36
2022-02-06 21:40:13.2210,0.202,-0.679,-0.52,-0.92,-1.13,-0.45,0.5,0.86,0.4
2022-02-06 21:40:13.2320,0.216,-0.648,-0.537,-1.23,-1.76,-0.17,0.29,0.57,0.43
2022-02-06 21:40:13.2420,0.217,-0.624,-0.549,-1.23,-1.76,-0.17,-0.06,0.44,0.47
2022-02-06 21:40:13.2510,0.196,-0.623,-0.548,-1.1,-2.07,0.0,-0.46,0.57,0.53
2022-02-06 21:40:13.2620,0.159,-0.647,-0.543,-0.76,-1.83,-0.09,-0.8,0.96,0.64
2022-02-06 21:40:13.2720,0.133,-0.674,-0.559,-0.76,-1.83,-0.09,-0.8,0.96,0.64
2022-02-06 21:40:13.2810,0.126,-0.681,-0.642,-0.48,-1.52,-0.04,-0.93,1.85,0.92
2022-02-06 21:40:13.2920,0.125,-0.669,-0.739,-0.38,-1.38,0.63,-0.64,2.21,1.05
2022-02-06 21:40:13.3010,0.14,-0.657,-0.807,-0.43,-1.53,2.22,-0.2,2.51,1.18
2022-02-06 21:40:13.3120,0.155,-0.666,-0.847,-0.53,-1.49,2.66,0.33,2.75,1.36
2022-02-06 21:40:13.3220,0.18,-0.708,-0.844,-0.71,-1.13,2.73,0.87,2.89,1.55
2022-02-06 21:40:13.3320,0.212,-0.726,-0.837,-0.99,-0.96,2.75,1.33,2.83,1.71
2022-02-06 21:40:13.3420,0.24,-0.723,-0.813,-0.99,-0.96,2.75,1.33,2.83,1.71
2022-02-06 21:40:13.3520,0.281,-0.741,-0.778,-1.25,-1.08,2.69,1.77,2.23,1.89
2022-02-06 21:40:13.3620,0.319,-0.766,-0.748,-1.65,-1.04,2.5,1.73,1.86,1.87
2022-02-06 21:40:13.3720,0.337,-0.769,-0.703,-2.09,-0.89,2.37,1.55,1.6,1.78
2022-02-06 21:40:13.3820,0.329,-0.75,-0.638,-2.38,-1.19,1.65,1.25,1.55,1.64
2022-02-06 21:40:13.3920,0.314,-0.716,-0.575,-2.38,-1.19,1.65,0.9,1.77,1.47
2022-02-06 21:40:13.4020,0.299,-0.679,-0.519,-2.2,-1.98,0.66,0.54,2.18,1.34
2022-02-06 21:40:13.4120,0.289,-0.633,-0.504,-2.2,-1.98,0.66,0.18,2.65,1.25
2022-02-06 21:40:13.4220,0.296,-0.586,-0.531,-2.11,-2.47,0.51,-0.16,3.07,1.19
2022-02-06 21:40:13.4310,0.325,-0.56,-0.581,-2.38,-3.23,1.26,-0.47,3.43,1.19
2022-02-06 21:40:13.4430,0.36,-0.552,-0.634,-2.68,-3.32,1.75,-0.74,3.71,1.25
2022-02-06 21:40:13.4520,0.4,-0.554,-0.711,-3.01,-3.28,2.44,-0.95,3.89,1.35
2022-02-06 21:40:13.4620,0.436,-0.551,-0.786,-3.33,-3.26,3.14,-1.08,3.99,1.44
2022-02-06 21:40:13.4720,0.46,-0.528,-0.856,-3.33,-3.26,3.14,-1.13,4.02,1.51
2022-02-06 21:40:13.4820,0.482,-0.496,-0.899,-3.68,-3.71,4.18,-1.12,4.06,1.58
2022-02-06 21:40:13.4930,0.504,-0.466,-0.924,-3.84,-3.97,4.38,-1.06,4.11,1.66
2022-02-06 21:40:13.5030,0.526,-0.435,-0.938,-4.01,-4.24,4.5,-0.97,4.19,1.78
2022-02-06 21:40:13.5130,0.555,-0.412,-0.934,-4.24,-4.46,4.44,-0.87,4.32,1.98
2022-02-06 21:40:13.5220,0.594,-0.416,-0.913,-4.57,-4.44,4.23,-0.76,4.46,2.24
2022-02-06 21:40:13.5320,0.641,-0.439,-0.897,-4.57,-4.44,4.23,-0.76,4.46,2.24
2022-02-06 21:40:13.5430,0.68,-0.485,-0.89,-5.01,-4.22,4.05,-0.72,4.55,2.76
2022-02-06 21:40:13.5520,0.692,-0.532,-0.878,-5.4,-3.8,3.96,-0.76,4.51,2.97
2022-02-06 21:40:13.5630,0.672,-0.553,-0.872,-5.46,-3.07,3.77,-0.78,4.47,3.13
2022-02-06 21:40:13.5730,0.625,-0.553,-0.867,-5.46,-3.07,3.77,-0.78,4.47,3.13
2022-02-06 21:40:13.5830,0.56,-0.529,-0.873,-5.08,-3.05,3.69,-0.64,4.34,3.24
2022-02-06 21:40:13.5930,0.486,-0.498,-0.866,-4.52,-3.26,3.74,-0.51,4.27,3.24
2022-02-06 21:40:13.6030,0.408,-0.464,-0.857,-3.17,-3.9,3.58,-0.42,4.2,3.23
2022-02-06 21:40:13.6130,0.346,-0.45,-0.842,-2.6,-4.08,3.44,-0.41,4.15,3.2
2022-02-06 21:40:13.6230,0.305,-0.453,-0.822,-2.6,-4.08,3.44,-0.45,4.12,3.13
2022-02-06 21:40:13.6320,0.281,-0.458,-0.81,-2.25,-4.06,3.25,-0.58,4.09,3.01
2022-02-06 21:40:13.6430,0.276,-0.477,-0.803,-2.05,-3.84,3.01,-0.78,4.06,2.86
2022-02-06 21:40:13.6530,0.278,-0.499,-0.811,-2.05,-3.84,3.01,-1.04,4.01,2.69
2022-02-06 21:40:13.6630,0.265,-0.522,-0.831,-2.12,-3.6,3.03,-1.31,3.96,2.55
2022-02-06 21:40:13.6730,0.23,-0.543,-0.866,-1.75,-3.07,3.36,-1.56,3.87,2.46
2022-02-06 21:40:13.6830,0.18,-0.534,-0.923,-1.75,-3.07,3.36,-1.76,3.77,2.39
2022-02-06 21:40:13.6930,0.14,-0.526,-0.969,-1.27,-3.06,3.81,-1.88,3.68,2.34
2022-02-06 21:40:13.7030,0.113,-0.534,-1.017,-0.57,-2.92,4.47,-1.92,3.55,2.3
2022-02-06 21:40:13.7140,0.086,-0.529,-1.077,-0.31,-2.84,4.93,-1.85,3.36,2.26
2022-02-06 21:40:13.7240,0.063,-0.508,-1.118,-0.31,-2.84,4.93,-1.71,3.13,2.23
2022-02-06 21:40:13.7330,0.041,-0.511,-1.151,-0.06,-2.97,5.22,-1.51,2.87,2.26
2022-02-06 21:40:13.7430,0.026,-0.515,-1.177,0.15,-2.89,5.42,-1.51,2.87,2.26
2022-02-06 21:40:13.7530,0.02,-0.498,-1.193,0.34,-2.83,5.67,-1.07,2.13,2.37
2022-02-06 21:40:13.7640,0.014,-0.495,-1.201,0.34,-2.84,5.69,-0.89,1.69,2.45
2022-02-06 21:40:13.7730,0.002,-0.51,-1.194,0.34,-2.84,5.69,-0.78,1.29,2.56
2022-02-06 21:40:13.7830,-0.024,-0.525,-1.171,0.36,-2.66,5.58,-0.73,1.04,2.66
2022-02-06 21:40:13.7940,-0.062,-0.515,-1.134,0.48,-2.46,5.32,-0.73,1.04,2.66
2022-02-06 21:40:13.8040,-0.106,-0.483,-1.087,0.71,-2.47,4.91,-0.66,1.1,2.71
2022-02-06 21:40:13.8130,-0.146,-0.451,-1.035,0.99,-2.74,4.41,-0.6,1.36,2.62
2022-02-06 21:40:13.8320,-0.177,-0.417,-0.975,1.47,-3.3,3.23,-0.51,1.69,2.48
2022-02-06 21:40:13.8360,-0.189,-0.385,-0.93,1.47,-3.3,3.23,-0.41,1.93,2.29
2022-02-06 21:40:13.8470,-0.178,-0.364,-0.912,1.5,-3.54,2.67,-0.35,1.95,2.1
2022-02-06 21:40:13.8570,-0.153,-0.37,-0.919,1.38,-3.74,2.43,-0.33,1.74,1.92
2022-02-06 21:40:13.8670,-0.119,-0.398,-0.944,1.12,-3.69,2.44,-0.35,1.31,1.77
2022-02-06 21:40:13.8770,-0.084,-0.425,-0.971,0.75,-3.39,2.63,-0.36,0.8,1.67
2022-02-06 21:40:13.8870,-0.067,-0.452,-0.979,0.33,-3.09,2.87,-0.35,0.36,1.59
2022-02-06 21:40:13.8970,-0.076,-0.465,-0.971,0.04,-2.79,2.95,-0.32,0.08,1.53
2022-02-06 21:40:13.9070,-0.103,-0.459,-0.955,0.01,-2.61,2.86,-0.24,-0.02,1.46
2022-02-06 21:40:13.9170,-0.144,-0.433,-0.929,0.14,-2.61,2.69,-0.12,0.07,1.38
2022-02-06 21:40:13.9270,-0.194,-0.4,-0.904,0.44,-2.82,2.44,0.04,0.26,1.3
2022-02-06 21:40:13.9370,-0.246,-0.372,-0.887,0.84,-3.14,2.18,0.22,0.48,1.2
2022-02-06 21:40:13.9470,-0.27,-0.354,-0.875,1.31,-3.42,2.02,0.41,0.6,1.08
2022-02-06 21:40:13.9570,-0.266,-0.357,-0.868,1.55,-3.63,1.92,0.57,0.6,0.92
2022-02-06 21:40:13.9670,-0.237,-0.391,-0.852,1.52,-3.66,1.89,0.63,0.5,0.78
2022-02-06 21:40:13.9770,-0.208,-0.447,-0.819,1.23,-3.4,1.78,0.59,0.39,0.65
2022-02-06 21:40:13.9870,-0.194,-0.483,-0.773,0.91,-2.88,1.52,0.47,0.31,0.54
2022-02-06 21:40:13.9970,-0.186,-0.502,-0.729,0.74,-2.52,1.1,0.32,0.3,0.44
2022-02-06 21:40:14.0070,-0.189,-0.506,-0.693,0.64,-2.33,0.68,0.15,0.37,0.35
2022-02-06 21:40:14.0170,-0.202,-0.491,-0.668,0.66,-2.27,0.31,0.0,0.48,0.24
2022-02-06 21:40:14.0270,-0.22,-0.47,-0.653,0.79,-2.4,0.05,-0.1,0.62,0.11
2022-02-06 21:40:14.0370,-0.236,-0.46,-0.644,0.99,-2.6,-0.13,-0.18,0.77,-0.03
2022-02-06 21:40:14.0470,-0.245,-0.465,-0.641,1.21,-2.69,-0.23,-0.24,0.86,-0.15
2022-02-06 21:40:14.0570,-0.237,-0.486,-0.651,1.38,-2.65,-0.31,-0.33,0.88,-0.25
2022-02-06 21:40:14.0670,-0.215,-0.523,-0.657,1.39,-2.45,-0.26,-0.4,0.86,-0.34
2022-02-06 21:40:14.0770,-0.189,-0.558,-0.659,1.28,-2.08,-0.22,-0.45,0.79,-0.42
2022-02-06 21:40:14.0880,-0.163,-0.585,-0.668,1.1,-1.69,-0.24,-0.47,0.69,-0.48
2022-02-06 21:40:14.0980,-0.138,-0.604,-0.67,0.93,-1.39,-0.2,-0.47,0.61,-0.52
2022-02-06 21:40:14.1080,-0.111,-0.617,-0.671,0.76,-1.16,-0.21,-0.44,0.54,-0.57
2022-02-06 21:40:14.1170,-0.082,-0.634,-0.683,0.57,-1.0,-0.24,-0.4,0.48,-0.6
2022-02-06 21:40:14.1280,-0.058,-0.66,-0.691,0.36,-0.82,-0.17,-0.34,0.48,-0.6
2022-02-06 21:40:14.1380,-0.039,-0.676,-0.7,0.19,-0.55,-0.11,-0.24,0.51,-0.62
2022-02-06 21:40:14.1480,-0.019,-0.675,-0.709,0.09,-0.35,-0.04,-0.09,0.6,-0.61
2022-02-06 21:40:14.1580,-0.003,-0.678,-0.707,-0.02,-0.34,0.04,0.11,0.72,-0.56
2022-02-06 21:40:14.1680,0.011,-0.682,-0.696,-0.1,-0.33,0.04,0.35,0.82,-0.48
2022-02-06 21:40:14.1780,0.033,-0.675,-0.686,-0.15,-0.31,-0.04,0.57,0.84,-0.37
2022-02-06 21:40:14.1880,0.053,-0.69,-0.661,-0.28,-0.4,-0.1,0.71,0.74,-0.18
2022-02-06 21:40:14.1980,0.075,-0.761,-0.653,-0.41,-0.36,-0.28,0.76,0.48,0.07
2022-02-06 21:40:14.2080,0.097,-0.841,-0.659,-0.59,0.22,-0.34,0.75,0.1,0.28
2022-02-06 21:40:14.2180,0.116,-0.885,-0.664,-0.83,0.98,-0.23,0.7,-0.34,0.36
2022-02-06 21:40:14.2280,0.129,-0.93,-0.657,-1.07,1.41,-0.13,0.61,-0.71,0.36
2022-02-06 21:40:14.2380,0.128,-1.007,-0.643,-1.28,1.78,-0.14,0.46,-0.93,0.29
2022-02-06 21:40:14.2480,0.114,-1.069,-0.629,-1.37,2.48,-0.24,0.3,-0.93,0.18
2022-02-06 21:40:14.2580,0.084,-1.078,-0.602,-1.32,3.12,-0.35,0.18,-0.73,0.03
2022-02-06 21:40:14.2680,0.048,-1.052,-0.591,-1.1,3.27,-0.59,0.09,-0.42,-0.15
2022-02-06 21:40:14.2780,0.022,-1.017,-0.594,-0.75,3.03,-0.73,0.06,-0.07,-0.32
2022-02-06 21:40:14.2880,0.014,-0.987,-0.594,-0.47,2.69,-0.69,0.05,0.22,-0.42
2022-02-06 21:40:14.2980,0.029,-0.973,-0.606,-0.31,2.37,-0.69,0.05,0.37,-0.46
2022-02-06 21:40:14.3080,0.059,-0.97,-0.624,-0.38,2.21,-0.6,0.08,0.36,-0.45
2022-02-06 21:40:14.3180,0.095,-0.971,-0.629,-0.6,2.17,-0.41,0.12,0.24,-0.42
2022-02-06 21:40:14.3280,0.121,-0.965,-0.626,-0.91,2.17,-0.34,0.18,0.02,-0.39
2022-02-06 21:40:14.3390,0.141,-0.946,-0.619,-1.16,2.12,-0.35,0.23,-0.24,-0.37
2022-02-06 21:40:14.3480,0.15,-0.93,-0.598,-1.35,1.92,-0.39,0.24,-0.49,-0.35
2022-02-06 21:40:14.3580,0.152,-0.911,-0.571,-1.46,1.75,-0.56,0.24,-0.7,-0.32
2022-02-06 21:40:14.3690,0.159,-0.907,-0.541,-1.5,1.55,-0.81,0.2,-0.85,-0.28
2022-02-06 21:40:14.3780,0.171,-0.926,-0.514,-1.59,1.47,-1.09,0.15,-0.95,-0.2
2022-02-06 21:40:14.3890,0.181,-0.949,-0.498,-1.76,1.63,-1.36,0.11,-1.0,-0.1
2022-02-06 21:40:14.3980,0.183,-0.968,-0.488,-1.91,1.85,-1.52,0.07,-1.01,0.01
2022-02-06 21:40:14.4090,0.176,-0.982,-0.477,-2.01,2.04,-1.61,0.02,-0.95,0.1
2022-02-06 21:40:14.4190,0.167,-1.002,-0.453,-2.02,2.18,-1.71,-0.03,-0.84,0.17
2022-02-06 21:40:14.4290,0.159,-1.028,-0.441,-1.92,2.62,-2.08,-0.03,-0.84,0.17
2022-02-06 21:40:14.4350,0.146,-1.065,-0.45,-1.92,2.62,-2.08,-0.18,-0.6,0.27
2022-02-06 21:40:14.4460,0.126,-1.108,-0.47,-1.73,3.42,-1.85,-0.23,-0.54,0.32
2022-02-06 21:40:14.4560,0.097,-1.13,-0.509,-1.52,3.68,-1.5,-0.22,-0.55,0.33
2022-02-06 21:40:14.4660,0.06,-1.129,-0.555,-1.23,3.71,-1.06,-0.14,-0.62,0.33
2022-02-06 21:40:14.4760,0.02,-1.117,-0.602,-1.23,3.71,-1.06,-0.04,-0.75,0.31
2022-02-06 21:40:14.4860,-0.031,-1.085,-0.65,-0.49,3.34,-0.13,0.07,-0.88,0.25
2022-02-06 21:40:14.4960,-0.084,-1.034,-0.672,-0.04,2.86,0.13,0.18,-0.94,0.11
2022-02-06 21:40:14.5070,-0.13,-0.969,-0.674,0.35,2.22,0.18,0.23,-0.92,-0.09
2022-02-06 21:40:14.5160,-0.166,-0.918,-0.669,0.67,1.68,0.16,0.2,-0.82,-0.31
2022-02-06 21:40:14.5260,-0.183,-0.884,-0.669,0.67,1.68,0.16,0.11,-0.68,-0.54
2022-02-06 21:40:14.5350,-0.185,-0.867,-0.686,0.85,1.12,0.32,0.03,-0.5,-0.74
2022-02-06 21:40:14.5460,-0.185,-0.862,-0.716,0.88,1.05,0.61,-0.04,-0.32,-0.9
2022-02-06 21:40:14.5560,-0.188,-0.851,-0.749,0.88,1.05,0.61,-0.07,-0.08,-1.01
2022-02-06 21:40:14.5660,-0.206,-0.83,-0.766,1.17,0.76,1.11,-0.09,0.13,-1.03
2022-02-06 21:40:14.5760,-0.224,-0.82,-0.801,1.17,0.76,1.11,-0.14,0.26,-0.97
2022-02-06 21:40:14.5870,-0.248,-0.83,-0.848,1.44,0.63,1.42,-0.18,0.24,-0.86
2022-02-06 21:40:14.5960,-0.29,-0.825,-0.917,2.22,0.7,2.49,-0.17,0.06,-0.75
2022-02-06 21:40:14.6070,-0.34,-0.81,-0.989,2.22,0.7,2.49,-0.09,-0.24,-0.71
2022-02-06 21:40:14.6160,-0.401,-0.765,-1.049,2.75,0.58,3.19,0.01,-0.59,-0.78
2022-02-06 21:40:14.6270,-0.457,-0.706,-1.074,3.97,-0.4,4.09,0.11,-0.89,-0.91
2022-02-06 21:40:14.6370,-0.493,-0.658,-1.072,3.97,-0.4,4.09,0.17,-1.1,-1.11
2022-02-06 21:40:14.6470,-0.495,-0.615,-1.056,4.36,-0.9,4.1,0.18,-1.19,-1.34
2022-02-06 21:40:14.6570,-0.472,-0.571,-1.018,4.44,-1.34,3.98,0.14,-1.16,-1.6
2022-02-06 21:40:14.6670,-0.422,-0.542,-0.966,4.26,-1.79,3.65,0.08,-0.98,-1.83
2022-02-06 21:40:14.6770,-0.347,-0.53,-0.899,3.85,-2.11,3.17,0.0,-0.7,-2.02
2022-02-06 21:40:14.6860,-0.267,-0.521,-0.842,3.22,-2.26,2.53,-0.08,-0.4,-2.14
2022-02-06 21:40:14.6970,-0.192,-0.521,-0.806,2.52,-2.34,1.95,-0.08,-0.4,-2.14
2022-02-06 21:40:14.7060,-0.12,-0.58,-0.785,1.36,-1.87,1.32,-0.13,0.05,-2.01
2022-02-06 21:40:14.7160,-0.06,-0.667,-0.812,1.36,-1.87,1.32,-0.07,-0.02,-1.8
2022-02-06 21:40:14.7270,-0.022,-0.705,-0.862,0.91,-0.99,1.51,0.08,-0.28,-1.61
2022-02-06 21:40:14.7360,-0.008,-0.683,-0.879,0.63,-0.53,2.0,0.3,-0.65,-1.51
2022-02-06 21:40:14.7470,-0.011,-0.631,-0.87,0.57,-0.68,2.22,0.54,-1.09,-1.52
2022-02-06 21:40:14.7570,-0.019,-0.576,-0.846,0.66,-1.18,2.17,0.73,-1.55,-1.6
2022-02-06 21:40:14.7670,-0.01,-0.553,-0.819,0.78,-1.76,1.99,0.73,-1.55,-1.6
2022-02-06 21:40:14.7770,0.009,-0.564,-0.801,0.74,-2.06,1.76,0.88,-2.57,-1.71
2022-02-06 21:40:14.7870,0.038,-0.587,-0.793,0.56,-2.04,1.61,0.88,-3.11,-1.69
2022-02-06 21:40:14.7970,0.066,-0.561,-0.805,0.25,-1.83,1.57,0.87,-3.62,-1.66
2022-02-06 21:40:14.8070,0.082,-0.525,-0.807,-0.36,-2.48,1.82,0.83,-3.98,-1.64
2022-02-06 21:40:14.8170,0.092,-0.498,-0.786,-0.36,-2.48,1.82,0.73,-4.11,-1.66
2022-02-06 21:40:14.8270,0.093,-0.471,-0.753,-0.58,-2.79,1.67,0.55,-4.0,-1.75
2022-02-06 21:40:14.8370,0.085,-0.453,-0.712,-0.72,-3.1,1.42,0.32,-3.63,-1.83
2022-02-06 21:40:14.8470,0.073,-0.449,-0.678,-0.76,-3.32,1.05,0.07,-3.13,-1.9
2022-02-06 21:40:14.8570,0.06,-0.453,-0.679,-0.72,-3.39,0.72,0.07,-3.13,-1.9
2022-02-06 21:40:14.8670,0.037,-0.459,-0.727,-0.43,-3.29,1.07,-0.28,-2.32,-1.87
2022-02-06 21:40:14.8770,0.017,-0.44,-0.808,-0.21,-3.42,1.83,-0.25,-2.26,-1.87
2022-02-06 21:40:14.8870,0.018,-0.398,-0.882,-0.21,-3.42,1.83,-0.1,-2.45,-1.93
2022-02-06 21:40:14.8980,0.034,-0.364,-0.933,-0.33,-4.15,3.09,0.11,-2.78,-2.07
2022-02-06 21:40:14.9070,0.053,-0.339,-0.956,-0.33,-4.15,3.09,0.27,-3.17,-2.24
2022-02-06 21:40:14.9170,0.082,-0.325,-0.976,-0.82,-4.58,3.56,0.31,-3.54,-2.4
2022-02-06 21:40:14.9270,0.108,-0.327,-0.983,-0.82,-4.58,3.56,0.28,-3.73,-2.5
2022-02-06 21:40:14.9370,0.119,-0.342,-0.966,-1.26,-4.48,3.54,0.2,-3.71,-2.48
2022-02-06 21:40:14.9480,0.112,-0.376,-0.986,-1.26,-4.48,3.54,0.14,-3.57,-2.35
2022-02-06 21:40:14.9570,0.086,-0.396,-1.021,-1.03,-3.95,4.07,0.13,-3.34,-2.18
2022-02-06 21:40:14.9680,0.05,-0.364,-1.038,-1.03,-3.95,4.07,0.13,-3.34,-2.18
2022-02-06 21:40:14.9770,0.019,-0.309,-1.056,-0.71,-4.22,4.27,0.3,-3.03,-2.12
2022-02-06 21:40:14.9880,0.008,-0.259,-1.102,-0.42,-4.76,4.45,0.37,-3.2,-2.26
2022-02-06 21:40:14.9980,0.024,-0.243,-1.144,-0.29,-5.29,4.9,0.39,-3.56,-2.47
2022-02-06 21:40:15.0080,0.07,-0.249,-1.156,-0.85,-5.5,5.57,0.36,-3.96,-2.7
2022-02-06 21:40:15.0180,0.123,-0.263,-1.134,-0.85,-5.5,5.57,0.36,-3.96,-2.7
2022-02-06 21:40:15.0270,0.167,-0.281,-1.111,-1.86,-5.24,5.22,0.09,-4.42,-2.97
2022-02-06 21:40:15.0380,0.184,-0.278,-1.067,-2.06,-5.24,4.83,-0.08,-4.26,-2.95
2022-02-06 21:40:15.0480,0.21,-0.263,-1.019,-2.06,-5.24,4.83,-0.23,-3.84,-2.83
2022-02-06 21:40:15.0580,0.23,-0.263,-1.0,-2.31,-5.4,4.36,-0.36,-3.31,-2.62
2022-02-06 21:40:15.0680,0.246,-0.268,-1.004,-2.65,-5.35,4.11,-0.51,-2.84,-2.37
2022-02-06 21:40:15.0780,0.26,-0.286,-1.04,-2.78,-5.18,4.38,-0.65,-2.57,-2.11
2022-02-06 21:40:15.0890,0.251,-0.324,-1.109,-2.78,-5.18,4.38,-0.7,-2.54,-1.87
2022-02-06 21:40:15.0980,0.246,-0.385,-1.154,-2.7,-4.8,4.99,-0.55,-2.65,-1.7
2022-02-06 21:40:15.1080,0.244,-0.429,-1.164,-2.64,-3.68,5.53,-0.25,-2.84,-1.66
2022-02-06 21:40:15.1180,0.252,-0.454,-1.152,-2.74,-3.42,5.42,0.1,-3.08,-1.73
2022-02-06 21:40:15.1280,0.265,-0.486,-1.114,-2.91,-3.12,5.11,0.35,-3.3,-1.85
2022-02-06 21:40:15.1390,0.275,-0.512,-1.041,-2.91,-3.12,5.11,0.4,-3.45,-1.98
2022-02-06 21:40:15.1480,0.289,-0.528,-0.965,-3.23,-2.74,3.74,0.24,-3.5,-2.09
2022-02-06 21:40:15.1580,0.308,-0.547,-0.903,-3.23,-2.74,3.74,-0.03,-3.41,-2.16
2022-02-06 21:40:15.1680,0.331,-0.563,-0.843,-3.45,-2.58,3.15,-0.29,-3.13,-2.2
2022-02-06 21:40:15.1780,0.354,-0.568,-0.802,-3.7,-2.42,2.57,-0.48,-2.72,-2.21
2022-02-06 21:40:15.1890,0.372,-0.567,-0.789,-4.1,-2.34,1.94,-0.57,-2.3,-2.18
2022-02-06 21:40:15.1990,0.39,-0.567,-0.794,-4.23,-2.32,1.95,-0.54,-1.96,-2.11
2022-02-06 21:40:15.2080,0.406,-0.58,-0.798,-4.36,-2.19,1.95,-0.43,-1.74,-1.99
2022-02-06 21:40:15.2190,0.417,-0.598,-0.797,-4.36,-2.19,1.95,-0.3,-1.67,-1.84
2022-02-06 21:40:15.2290,0.427,-0.621,-0.798,-4.47,-1.76,1.9,-0.17,-1.77,-1.69
2022-02-06 21:40:15.2390,0.429,-0.647,-0.802,-4.47,-1.76,1.9,-0.07,-2.02,-1.53
2022-02-06 21:40:15.2490,0.416,-0.659,-0.804,-4.47,-1.5,1.93,-0.0,-2.31,-1.41
2022-02-06 21:40:15.2590,0.393,-0.67,-0.788,-4.37,-1.36,1.96,0.03,-2.53,-1.3
2022-02-06 21:40:15.2680,0.368,-0.686,-0.759,-3.97,-1.11,1.57,0.04,-2.62,-1.22
2022-02-06 21:40:15.2790,0.344,-0.698,-0.718,-3.8,-0.99,1.19,0.05,-2.57,-1.17
2022-02-06 21:40:15.2890,0.324,-0.705,-0.674,-3.8,-0.9245173001289368,0.77,0.08,-2.4,-1.15
2022-02-06 21:40:15.2990,0.299,-0.705,-0.63,-3.66,-0.93,0.77,0.12,-2.14,-1.13
2022-02-06 21:40:15.3090,0.28,-0.701,-0.588,-3.31,-0.98,-0.04,0.14,-1.85,-1.09
2022-02-06 21:40:15.3190,0.267,-0.714,-0.548,-3.31,-0.98,-0.04,0.15,-1.54,-1.02
2022-02-06 21:40:15.3280,0.263,-0.742,-0.519,-3.2,-0.9,-0.42,0.12,-1.3,-0.92
2022-02-06 21:40:15.3390,0.267,-0.765,-0.511,-3.16,-0.64,-0.71,0.06,-1.16,-0.82
2022-02-06 21:40:15.3490,0.266,-0.785,-0.511,-3.2,-0.42,-0.79,0.06,-1.16,-0.82
2022-02-06 21:40:15.3590,0.255,-0.795,-0.515,-3.2,-0.23,-0.78,-0.07,-1.1,-0.62
2022-02-06 21:40:15.3680,0.246,-0.792,-0.526,-3.03,-0.13,-0.65,-0.11,-1.16,-0.57
2022-02-06 21:40:15.3790,0.231,-0.793,-0.541,-2.92,-0.12,-0.51,-0.14,-1.24,-0.55
2022-02-06 21:40:15.3890,0.213,-0.792,-0.551,-2.92,-0.12,-0.51,-0.16,-1.29,-0.57
2022-02-06 21:40:15.3990,0.191,-0.786,-0.555,-2.59,-0.17,-0.36,-0.18,-1.27,-0.6
2022-02-06 21:40:15.4090,0.171,-0.78,-0.555,-2.59,-0.17,-0.36,-0.18,-1.27,-0.6
2022-02-06 21:40:15.4190,0.158,-0.777,-0.551,-2.29,-0.23,-0.41,-0.2,-1.02,-0.64
2022-02-06 21:40:15.4290,0.146,-0.771,-0.542,-2.19,-0.29,-0.51,-0.2,-0.81,-0.6
2022-02-06 21:40:15.4400,0.137,-0.77,-0.537,-2.19,-0.29,-0.51,-0.19,-0.58,-0.52
2022-02-06 21:40:15.4490,0.137,-0.766,-0.536,-2.09,-0.3,-0.58,-0.19,-0.39,-0.41
2022-02-06 21:40:15.4590,0.139,-0.754,-0.547,-2.08,-0.33,-0.6,-0.16,-0.39,-0.41
2022-02-06 21:40:15.4690,0.137,-0.738,-0.57,-2.1,-0.42,-0.53,-0.06,-0.25,-0.24
2022-02-06 21:40:15.4790,0.137,-0.735,-0.592,-2.07,-0.6241119182109833,-0.1,-0.01,-0.29,-0.17
2022-02-06 21:40:15.4890,0.146,-0.775,-0.583,-2.130720705986023,-0.2918017888069153,-0.14,0.03,-0.33,-0.06
2022-02-06 21:40:15.5000,0.163,-0.829,-0.573,-2.32,0.26,-0.26,0.02,-0.44,0.04
2022-02-06 21:40:15.5100,0.18,-0.851,-0.576,-2.32,0.26,-0.26,-0.07,-0.56,0.13
2022-02-06 21:40:15.5190,0.181,-0.877,-0.565,-2.6,0.75,-0.33,-0.22,-0.66,0.24
2022-02-06 21:40:15.5290,0.16,-0.909,-0.575,-2.6,0.75,-0.33,-0.39,-0.7,0.34
2022-02-06 21:40:15.5400,0.13,-0.934,-0.583,-2.47,1.08,-0.27,-0.5,-0.67,0.4
2022-02-06 21:40:15.5500,0.116,-0.964,-0.597,-2.16,1.68,-0.13,-0.51,-0.61,0.41
2022-02-06 21:40:15.5590,0.094,-0.978,-0.632,-2.04,1.89,0.17,-0.4,-0.55,0.37
2022-02-06 21:40:15.5690,0.065,-0.961,-0.655,-1.81,1.79,0.39,-0.21,-0.49,0.29
2022-02-06 21:40:15.5790,0.046,-0.937,-0.658,-1.81,1.79,0.39,0.0,-0.41,0.2
2022-02-06 21:40:15.5900,0.037,-0.942,-0.635,-1.66,1.55,0.44,0.18,-0.3,0.15
2022-02-06 21:40:15.6000,0.047,-0.971,-0.599,-1.7,1.82,-0.09,0.29,-0.24,0.11
2022-02-06 21:40:15.6100,0.067,-0.998,-0.574,-1.92,2.08,-0.32,0.31,-0.25,0.1
2022-02-06 21:40:15.6200,0.078,-1.02,-0.551,-2.07,2.29,-0.52,0.26,-0.31,0.11
2022-02-06 21:40:15.6300,0.072,-1.035,-0.53,-2.05,2.42,-0.71,0.18,-0.37,0.12
2022-02-06 21:40:15.6400,0.059,-1.055,-0.503,-2.05,2.42,-0.71,0.09,-0.34,0.13
2022-02-06 21:40:15.6500,0.046,-1.077,-0.469,-1.95,2.61,-0.94,0.02,-0.25,0.11
2022-02-06 21:40:15.6600,0.034,-1.078,-0.452,-1.86,2.82,-1.26,-0.03,-0.15,0.05
2022-02-06 21:40:15.6700,0.012,-1.057,-0.443,-1.58,2.68,-1.55,-0.08,-0.06,-0.04
2022-02-06 21:40:15.6810,-0.012,-1.046,-0.445,-1.35,2.56,-1.56,-0.12,-0.02,-0.09
2022-02-06 21:40:15.6910,-0.036,-1.036,-0.45,-1.35,2.56,-1.56,-0.14,-0.03,-0.14
2022-02-06 21:40:15.7010,-0.05,-1.015,-0.452,-1.1,2.48,-1.52,-0.16,-0.11,-0.18
2022-02-06 21:40:15.7100,-0.06,-1.006,-0.459,-0.94,2.29,-1.5,-0.18,-0.22,-0.2
2022-02-06 21:40:15.7210,-0.074,-1.008,-0.469,-0.84,2.18,-1.46,-0.19,-0.32,-0.21
2022-02-06 21:40:15.7310,-0.088,-1.004,-0.465,-0.56,2.2,-1.4,-0.21,-0.34,-0.22
2022-02-06 21:40:15.7410,-0.104,-0.982,-0.458,-0.56,2.2,-1.4,-0.2,-0.32,-0.26
2022-02-06 21:40:15.7500,-0.123,-0.953,-0.458,-0.42,2.01,-1.49,-0.2,-0.27,-0.29
2022-02-06 21:40:15.7600,-0.148,-0.921,-0.469,-0.24,1.73,-1.51,-0.21,-0.2,-0.32
2022-02-06 21:40:15.7710,-0.178,-0.896,-0.479,0.31,1.19,-1.34,-0.22,-0.14,-0.32
2022-02-06 21:40:15.7810,-0.21,-0.875,-0.492,0.64,0.99,-1.23,-0.2,-0.1,-0.34
2022-02-06 21:40:15.7910,-0.237,-0.841,-0.505,0.64,0.99,-1.23,-0.17,-0.06,-0.37
2022-02-06 21:40:15.8010,-0.257,-0.812,-0.51,0.94,0.69,-1.11,-0.13,-0.02,-0.39
2022-02-06 21:40:15.8110,-0.27,-0.792,-0.499,1.16,0.39,-1.07,-0.1,0.06,-0.41
2022-02-06 21:40:15.8200,-0.282,-0.774,-0.484,1.48,0.02,-1.32,-0.07,0.14,-0.43
2022-02-06 21:40:15.8310,-0.295,-0.761,-0.471,1.48,0.02,-1.32,-0.07,0.14,-0.43
2022-02-06 21:40:15.8410,-0.305,-0.755,-0.468,1.65,-0.12,-1.46,-0.04,0.15,-0.47
2022-02-06 21:40:15.8510,-0.306,-0.761,-0.477,1.79,-0.18,-1.52,-0.07,0.04,-0.52
2022-02-06 21:40:15.8610,-0.306,-0.776,-0.493,1.86,-0.15,-1.44,-0.14,-0.14,-0.58
2022-02-06 21:40:15.8710,-0.299,-0.786,-0.507,1.89,0.0,-1.31,-0.24,-0.34,-0.67
2022-02-06 21:40:15.8810,-0.296,-0.798,-0.51,1.88,0.1,-1.16,-0.24,-0.34,-0.67
2022-02-06 21:40:15.8910,-0.304,-0.81,-0.519,1.86,0.23,-1.15,-0.48,-0.64,-0.86
2022-02-06 21:40:15.9010,-0.318,-0.805,-0.545,2.115115072131157,0.3686382955312729,-0.8887925666570664,-0.48,-0.64,-0.86
2022-02-06 21:40:15.9110,-0.341,-0.788,-0.58,2.11,0.36,-0.89,-0.63,-0.89,-1.08
2022-02-06 21:40:15.9210,-0.354,-0.774,-0.625,2.35,0.24,-0.59,-0.61,-1.05,-1.22
2022-02-06 21:40:15.9310,-0.341,-0.775,-0.679,2.54,0.11,-0.21,-0.57,-1.27,-1.34
2022-02-06 21:40:15.9420,-0.314,-0.799,-0.71,2.23,0.37,0.61,-0.54,-1.43,-1.41
2022-02-06 21:40:15.9510,-0.279,-0.83,-0.7,1.9,0.7,0.51,-0.51,-1.51,-1.44
2022-02-06 21:40:15.9610,-0.249,-0.833,-0.688,1.9,0.7,0.51,-0.47,-1.51,-1.42
2022-02-06 21:40:15.9710,-0.226,-0.81,-0.683,1.61,0.79,0.35,-0.41,-1.48,-1.39
2022-02-06 21:40:15.9810,-0.199,-0.787,-0.664,1.13,0.39,0.1,-0.31,-1.38,-1.36
2022-02-06 21:40:15.9920,-0.16,-0.78,-0.638,0.79,0.3,-0.17,-0.19,-1.3,-1.35
2022-02-06 21:40:16.0010,-0.108,-0.791,-0.631,0.79,0.3,-0.17,-0.09,-1.28,-1.34
2022-02-06 21:40:16.0110,-0.059,-0.821,-0.628,-0.18,0.66,-0.3,-0.06,-1.32,-1.32
2022-02-06 21:40:16.0220,-0.013,-0.858,-0.629,-0.62,1.02,-0.29,-0.09,-1.41,-1.28
2022-02-06 21:40:16.0320,0.021,-0.896,-0.62,-0.97,1.4,-0.36,-0.15,-1.51,-1.22
2022-02-06 21:40:16.0420,0.049,-0.917,-0.612,-0.97,1.4,-0.36,-0.24,-1.65,-1.16
2022-02-06 21:40:16.0510,0.077,-0.928,-0.616,-1.55,1.75,-0.43,-0.32,-1.81,-1.1
2022-02-06 21:40:16.0620,0.097,-0.93,-0.622,-1.8,1.79,-0.38,-0.41,-1.97,-1.05
2022-02-06 21:40:16.0720,0.101,-0.911,-0.624,-1.8,1.79,-0.38,-0.49,-2.05,-1.0
2022-02-06 21:40:16.0820,0.095,-0.879,-0.618,-1.91,1.37,-0.43,-0.56,-2.01,-0.97
2022-02-06 21:40:16.0920,0.089,-0.847,-0.608,-1.91,1.37,-0.43,-0.63,-1.91,-0.95
2022-02-06 21:40:16.1020,0.09,-0.822,-0.613,-1.91,1.08,-0.55,-0.68,-1.77,-0.93
2022-02-06 21:40:16.1120,0.093,-0.805,-0.624,-2.0415737637877465,0.72,-0.47,-0.71,-1.64,-0.91
2022-02-06 21:40:16.1220,0.108,-0.8,-0.642,-2.05,0.72,-0.47,-0.68,-1.54,-0.9
2022-02-06 21:40:16.1320,0.135,-0.799,-0.663,-2.51,0.71,-0.16,-0.6,-1.48,-0.9
2022-02-06 21:40:16.1420,0.158,-0.796,-0.677,-2.51,0.71,-0.16,-0.6,-1.48,-0.9
2022-02-06 21:40:16.1520,0.179,-0.792,-0.682,-2.78,0.72,-0.04,-0.33,-1.48,-0.87
2022-02-06 21:40:16.1620,0.194,-0.79,-0.678,-3.22,0.7,-0.04,-0.22,-1.51,-0.82
2022-02-06 21:40:16.1720,0.204,-0.786,-0.669,-3.22,0.7,-0.04,-0.15,-1.51,-0.82
2022-02-06 21:40:16.1820,0.208,-0.779,-0.654,-3.37,0.66,-0.11,-0.13,-1.55,-0.71
2022-02-06 21:40:16.1920,0.205,-0.768,-0.644,-3.46,0.59,-0.24,-0.15,-1.57,-0.67
2022-02-06 21:40:16.2020,0.203,-0.755,-0.641,-3.53,0.37,-0.36,-0.17,-1.56,-0.66
2022-02-06 21:40:16.2130,0.199,-0.749,-0.636,-3.53,0.37,-0.36,-0.18,-1.52,-0.68
2022-02-06 21:40:16.2220,0.193,-0.739,-0.634,-3.55,0.22,-0.42,-0.2,-1.45,-0.72
2022-02-06 21:40:16.2320,0.186,-0.727,-0.634,-3.52,0.1,-0.4,-0.2,-1.32,-0.77
2022-02-06 21:40:16.2430,0.182,-0.724,-0.623,-3.51,0.06,-0.49,-0.18,-1.15,-0.82
2022-02-06 21:40:16.2520,0.178,-0.721,-0.62,-3.51,0.06,-0.49,-0.16,-0.97,-0.86
2022-02-06 21:40:16.2620,0.179,-0.723,-0.623,-3.49,0.03,-0.53,-0.12,-0.78,-0.87
2022-02-06 21:40:16.2720,0.182,-0.734,-0.627,-3.49,0.04,-0.5,-0.09,-0.62,-0.86
2022-02-06 21:40:16.2820,0.182,-0.75,-0.64,-3.5,0.27,-0.34,-0.04,-0.49,-0.83
2022-02-06 21:40:16.2930,0.18,-0.759,-0.654,-3.46,0.36,-0.19,-0.0,-0.39,-0.77
2022-02-06 21:40:16.3020,0.173,-0.777,-0.66,-3.37,0.51,-0.12,0.06,-0.3,-0.69
Time,0.156,-0.794,-0.671,-3.19,0.68,-0.01,0.12,-0.2,-0.61
2022-02-06 21:40:16.3220,0.131,-0.787,-0.684,-3.19,0.68,-0.01,0.14,-0.11,-0.58
2022-02-06 21:40:16.3320,0.094,-0.779,-0.695,-2.54,0.51,0.24,0.1,0.02,-0.57
2022-02-06 21:40:16.3420,0.042,-0.792,-0.724,-2.54,0.51,0.24,-0.04,0.13,-0.59
2022-02-06 21:40:16.3520,-0.024,-0.809,-0.783,-2.01,0.61,0.49,-0.04,0.13,-0.59
2022-02-06 21:40:16.3620,-0.087,-0.833,-0.823,-1.32,0.76,1.05,-0.22,0.25,-0.62
2022-02-06 21:40:16.3720,-0.13,-0.847,-0.856,-0.63,0.99,1.44,-0.44,0.71,-0.75
2022-02-06 21:40:16.3820,-0.164,-0.817,-0.898,0.34,0.97,2.09,-0.36,0.97,-0.86
2022-02-06 21:40:16.3930,-0.189,-0.762,-0.93,0.73,0.45,2.4,-0.16,1.23,-0.96
2022-02-06 21:40:16.4030,-0.197,-0.719,-0.93,0.73,0.45,2.4,0.09,1.49,-1.01
2022-02-06 21:40:16.4130,-0.185,-0.706,-0.9,1.05,-0.18,2.15,0.33,1.74,-1.01
2022-02-06 21:40:16.4220,-0.158,-0.717,-0.86,0.98,-0.11,1.76,0.52,1.9,-0.95
2022-02-06 21:40:16.4320,-0.13,-0.724,-0.841,0.9,-0.07,1.57,0.52,1.9,-0.95
2022-02-06 21:40:16.4430,-0.108,-0.731,-0.841,0.87,-0.06,1.6,0.7,1.72,-0.67
2022-02-06 21:40:16.4520,-0.088,-0.748,-0.836,0.87,-0.06,1.6,0.72,1.45,-0.5
2022-02-06 21:40:16.4630,-0.082,-0.749,-0.837,0.83,0.06,1.6,0.7,1.11,-0.32
2022-02-06 21:40:16.4730,-0.092,-0.739,-0.836,0.88,0.05,1.65,0.7,1.11,-0.32
2022-02-06 21:40:16.4830,-0.117,-0.727,-0.812,1.05,-0.09,1.71,0.61,0.62,0.06
2022-02-06 21:40:16.4940,-0.147,-0.71,-0.784,1.35,-0.24,1.55,0.53,0.54,0.25
2022-02-06 21:40:16.5020,-0.17,-0.7,-0.763,1.93,-0.59,1.14,0.43,0.56,0.44
2022-02-06 21:40:16.5130,-0.187,-0.709,-0.751,2.1,-0.55,1.04,0.33,0.63,0.6
2022-02-06 21:40:16.5230,-0.207,-0.713,-0.749,2.1,-0.55,1.04,0.26,0.76,0.72
2022-02-06 21:40:16.5320,-0.233,-0.706,-0.754,2.29,-0.51,1.03,0.18,0.92,0.79
2022-02-06 21:40:16.5430,-0.264,-0.697,-0.766,2.53,-0.59,1.09,0.1,1.07,0.84
2022-02-06 21:40:16.5530,-0.296,-0.689,-0.794,3.14,-0.78,1.49,0.0,1.2,0.87
2022-02-06 21:40:16.5630,-0.328,-0.67,-0.813,3.47,-0.95,1.7,-0.08,1.31,0.87
2022-02-06 21:40:16.5730,-0.356,-0.642,-0.826,3.77,-1.21,1.81,-0.11,1.36,0.85
2022-02-06 21:40:16.5830,-0.371,-0.618,-0.853,3.77,-1.21,1.81,-0.08,1.28,0.84
2022-02-06 21:40:16.5930,-0.362,-0.611,-0.882,3.95,-1.46,2.05,0.01,1.09,0.85
2022-02-06 21:40:16.6040,-0.334,-0.62,-0.9,3.66,-1.47,2.54,0.15,0.8,0.89
2022-02-06 21:40:16.6140,-0.311,-0.623,-0.907,3.4,-1.44,2.64,0.31,0.46,0.94
2022-02-06 21:40:16.6230,-0.295,-0.623,-0.894,3.4,-1.44,2.64,0.46,0.15,1.0
2022-02-06 21:40:16.6330,-0.291,-0.619,-0.865,3.19,-1.46,2.56,0.55,-0.07,1.05
2022-02-06 21:40:16.6430,-0.297,-0.615,-0.831,3.07,-1.53,2.32,0.59,-0.17,1.09
2022-02-06 21:40:16.6530,-0.302,-0.62,-0.797,3.0,-1.6,1.74,0.56,-0.16,1.1
2022-02-06 21:40:16.6630,-0.311,-0.631,-0.769,3.0,-1.6,1.74,0.51,-0.06,1.09
2022-02-06 21:40:16.6730,-0.323,-0.638,-0.747,3.01,-1.49,1.32,0.44,0.11,1.04
2022-02-06 21:40:16.6840,-0.331,-0.639,-0.723,3.0256335532665255,-1.5,1.12,0.41,0.33,0.97
2022-02-06 21:40:16.6940,-0.332,-0.638,-0.7,3.02,-1.5,1.12,0.4,0.54,0.89
2022-02-06 21:40:16.7040,-0.32,-0.638,-0.682,2.98,-1.52,0.92,0.4,0.54,0.89
2022-02-06 21:40:16.7130,-0.297,-0.642,-0.677,2.85,-1.54,0.76,0.4,0.63,0.74
2022-02-06 21:40:16.7240,-0.266,-0.656,-0.692,2.61,-1.54,0.71,0.39,0.5,0.67
2022-02-06 21:40:16.7330,-0.231,-0.675,-0.688,1.93,-1.26,0.9,0.38,0.34,0.6
2022-02-06 21:40:16.7440,-0.197,-0.681,-0.675,1.93,-1.26,0.9,0.37,0.19,0.52
2022-02-06 21:40:16.7540,-0.171,-0.677,-0.656,1.26,-1.26,0.66,0.36,0.11,0.44
2022-02-06 21:40:16.7640,-0.155,-0.677,-0.631,1.26,-1.26,0.66,0.34,0.1,0.42
2022-02-06 21:40:16.7730,-0.147,-0.668,-0.606,0.95,-1.36,0.21,0.28,0.18,0.43
2022-02-06 21:40:16.7840,-0.148,-0.652,-0.583,0.95,-1.36,0.21,0.21,0.36,0.49
2022-02-06 21:40:16.7940,-0.153,-0.654,-0.548,0.96,-1.56,-0.31,0.19,0.65,0.59
2022-02-06 21:40:16.8050,-0.156,-0.672,-0.518,0.98,-1.39,-0.61,0.25,0.94,0.72
2022-02-06 21:40:16.8140,-0.155,-0.683,-0.517,0.98,-1.39,-0.61,0.37,1.08,0.82
2022-02-06 21:40:16.8240,-0.148,-0.686,-0.529,0.9,-1.27,-0.5,0.5,1.07,0.88
2022-02-06 21:40:16.8340,-0.143,-0.697,-0.53,0.84,-1.19,-0.45,0.62,0.92,0.9
2022-02-06 21:40:16.8440,-0.145,-0.709,-0.536,0.83,-1.1,-0.36,0.67,0.67,0.86
2022-02-06 21:40:16.8540,-0.138,-0.727,-0.542,0.74,-0.97,-0.24,0.66,0.39,0.76
2022-02-06 21:40:16.8640,-0.127,-0.75,-0.542,0.6,-0.77,-0.18,0.59,0.15,0.61
2022-02-06 21:40:16.8740,-0.116,-0.761,-0.526,0.6,-0.77,-0.18,0.59,0.15,0.61
2022-02-06 21:40:16.8840,-0.113,-0.773,-0.496,0.37,-0.58,-0.52,0.33,0.08,0.33
2022-02-06 21:40:16.8950,-0.122,-0.777,-0.473,0.37,-0.58,-0.52,0.33,0.08,0.33
2022-02-06 21:40:16.9040,-0.131,-0.767,-0.454,0.51,-0.63,-0.91,0.05,0.63,0.34
2022-02-06 21:40:16.9140,-0.138,-0.763,-0.441,0.57,-0.68,-1.05,-0.05,1.02,0.42
2022-02-06 21:40:16.9240,-0.146,-0.761,-0.445,0.57,-0.68,-1.05,-0.12,1.38,0.51
2022-02-06 21:40:16.9350,-0.154,-0.757,-0.464,0.79,-0.71,-0.91,-0.18,1.64,0.57
2022-02-06 21:40:16.9450,-0.165,-0.746,-0.509,0.79,-0.71,-0.91,-0.22,1.72,0.56
2022-02-06 21:40:16.9540,-0.175,-0.749,-0.566,1.08,-0.78,0.0,-0.18,1.66,0.48
2022-02-06 21:40:16.9640,-0.178,-0.753,-0.616,1.08,-0.78,0.0,-0.06596037745475769,1.66,0.48
2022-02-06 21:40:16.9750,-0.172,-0.75,-0.652,1.18,-0.72,0.48,0.11,1.28,0.26
2022-02-06 21:40:16.9840,-0.162,-0.752,-0.658,1.18,-0.74,0.85,0.3,1.08,0.18
2022-02-06 21:40:16.9950,-0.146,-0.749,-0.649,1.03,-0.77,0.88,0.44,0.94,0.15
2022-02-06 21:40:17.0050,-0.134,-0.746,-0.619,1.03,-0.77,0.88,0.51,0.9,0.18
2022-02-06 21:40:17.0150,-0.129,-0.743,-0.574,0.94,-0.82,0.24815583229064941,0.51,0.95,0.26
2022-02-06 21:40:17.0250,-0.121,-0.738,-0.535,0.92,-0.87,0.24,0.45,1.07,0.33
2022-02-06 21:40:17.0350,-0.114,-0.725,-0.512,0.84,-1.08,-0.32,0.38,1.21,0.38
2022-02-06 21:40:17.0450,-0.106,-0.703,-0.501,0.84,-1.08,-0.32,0.38,1.21,0.38
2022-02-06 21:40:17.0550,-0.097,-0.688,-0.495,0.79,-1.3,-0.42,0.26,1.4,0.38
2022-02-06 21:40:17.0650,-0.087,-0.69,-0.494,0.74,-1.49,-0.46,0.2,1.4,0.39
2022-02-06 21:40:17.0750,-0.08,-0.701,-0.501,0.66,-1.4,-0.38,0.14,1.36,0.42
2022-02-06 21:40:17.0850,-0.072,-0.712,-0.501,0.61,-1.3,-0.37,0.06,1.29,0.46
2022-02-06 21:40:17.0960,-0.068,-0.713,-0.498,0.6,-1.27,-0.39,0.06,1.29,0.46
2022-02-06 21:40:17.1050,-0.063,-0.707,-0.487,0.6,-1.27,-0.39,-0.05,1.23,0.48
2022-02-06 21:40:17.1150,-0.061,-0.706,-0.476,0.57,-1.34,-0.62,-0.37,1.22,0.53
2022-02-06 21:40:17.1250,-0.07,-0.705,-0.461,0.57,-1.34,-0.62,-0.57,1.31,0.61
2022-02-06 21:40:17.1350,-0.098,-0.695,-0.459,0.66,-1.32,-0.8,-0.78,1.39,0.74
2022-02-06 21:40:17.1450,-0.139,-0.662,-0.478,1.34,-1.62,-0.79,-0.96,1.48,0.88
2022-02-06 21:40:17.1560,-0.178,-0.628,-0.486,1.34,-1.62,-0.79,-1.1,1.58,0.99
2022-02-06 21:40:17.1650,-0.202,-0.606,-0.484,1.74,-2.0799265283346178,-0.87,-1.19,1.68,1.08
2022-02-06 21:40:17.1760,-0.216,-0.6,-0.495,2.01,-2.08,-0.87,-1.23,1.69,1.15
2022-02-06 21:40:17.1850,-0.235,-0.605,-0.539,2.16,-2.1,-0.89,-1.28,1.55,1.22
2022-02-06 21:40:17.1950,-0.269,-0.619,-0.589,2.33,-1.98,-0.59,-1.35,1.33,1.29
2022-02-06 21:40:17.2060,-0.315,-0.639,-0.628,2.65,-1.79,-0.2,-1.42,1.11,1.38
2022-02-06 21:40:17.2150,-0.364,-0.641,-0.667,3.06,-1.5,0.09,-1.42,1.11,1.38
2022-02-06 21:40:17.2250,-0.402,-0.608,-0.702,3.84,-1.55,0.6,-1.3,0.64,1.41
2022-02-06 21:40:17.2350,-0.424,-0.558,-0.733,3.84,-1.55,0.6,-1.11,0.33,1.36
2022-02-06 21:40:17.2460,-0.427,-0.522,-0.763,4.01,-1.96,0.81,-1.11,0.33,1.36
2022-02-06 21:40:17.2560,-0.418,-0.527,-0.777,3.98,-2.27,1.03,-0.71,-0.41,1.31
