time,gFx,gFy,gFz,ax,ay,az,wx,wy,wz
2022-01-30 18:52:19.8020,0.245,-0.479,-0.904,-0.96,0.58,-0.41,-0.12,-0.23,0.81
2022-01-30 18:52:29.3560,0.245,-0.506,-0.914,-1.18,1.1,-0.05,-0.06,-0.43,0.88
2022-01-30 18:52:29.3660,0.237,-0.515,-0.882,-1.18,1.1,-0.05,0.03,-0.52,0.93
2022-01-30 18:52:29.3750,0.218,-0.513,-0.854,-1.01,1.06,-0.61,0.11,-0.55,0.96
2022-01-30 18:52:29.3860,0.191,-0.505,-0.844,-1.01,1.06,-0.61,0.2,-0.54,0.95
2022-01-30 18:52:29.3960,0.164,-0.486,-0.85,-0.82,0.92,-0.63,0.28,-0.49,0.94
2022-01-30 18:52:29.4050,0.147,-0.468,-0.857,-0.61,0.52,-0.52,0.36,-0.35,0.95
2022-01-30 18:52:29.4160,0.142,-0.466,-0.846,-0.61,0.52,-0.52,0.45,-0.13,1.01
2022-01-30 18:52:29.4260,0.148,-0.471,-0.825,-0.67,0.49,-0.66,0.56,0.16,1.09
2022-01-30 18:52:29.4360,0.152,-0.477,-0.788,-0.76,0.49,-0.88,0.69,0.49,1.2
2022-01-30 18:52:29.4460,0.156,-0.485,-0.734,-0.8,0.49,-1.3,0.81,0.81,1.3
2022-01-30 18:52:29.4550,0.161,-0.501,-0.697,-0.83,0.51,-1.76,0.89,1.06,1.37
2022-01-30 18:52:29.4660,0.165,-0.525,-0.683,-0.84,0.61,-1.98,0.91,1.22,1.39
2022-01-30 18:52:29.4750,0.167,-0.556,-0.695,-0.83,0.79,-2.0,0.86,1.26,1.33
2022-01-30 18:52:29.4860,0.175,-0.587,-0.749,-0.88,1.23,-1.0,0.78,1.15,1.2
2022-01-30 18:52:29.4960,0.19,-0.61,-0.813,-0.88,1.23,-1.0,0.68,0.95,1.03
2022-01-30 18:52:29.5060,0.196,-0.616,-0.854,-0.98,1.28,-0.03,0.68,0.95,1.03
2022-01-30 18:52:29.5170,0.195,-0.61,-0.883,-0.98,1.28,-0.03,0.55,0.5,0.67
2022-01-30 18:52:29.5260,0.185,-0.593,-0.888,-0.94,1.12,0.21,0.56,0.36,0.56
2022-01-30 18:52:29.5360,0.163,-0.568,-0.874,-0.54,0.56,0.06,0.6,0.28,0.51
2022-01-30 18:52:29.5470,0.136,-0.544,-0.85,-0.54,0.56,0.06,0.67,0.28,0.52
2022-01-30 18:52:29.5560,0.11,-0.521,-0.823,-0.28,0.27,-0.19,0.72,0.29,0.58
2022-01-30 18:52:29.5660,0.095,-0.516,-0.804,-0.05,0.01,-0.32,0.79,0.4,0.64
2022-01-30 18:52:29.5760,0.092,-0.531,-0.741,0.02,0.01,-0.66,0.88,0.6,0.65
2022-01-30 18:52:29.5860,0.073,-0.539,-0.702,0.12,0.05,-1.18,0.95,0.88,0.6
2022-01-30 18:52:29.5960,0.052,-0.554,-0.667,0.38,0.06,-1.47,0.98,1.18,0.49
2022-01-30 18:52:29.6060,0.033,-0.569,-0.658,0.93,0.19,-1.6,0.98,1.18,0.49
2022-01-30 18:52:29.6170,0.015,-0.579,-0.676,0.93,0.19,-1.6,0.94,1.45,0.32
2022-01-30 18:52:29.6260,0.023,-0.577,-0.732,1.17,0.19,-1.24,0.57,1.45,-0.18
2022-01-30 18:52:29.6360,0.064,-0.569,-0.8,1.08,0.08,-0.53,0.28,1.14,-0.45
2022-01-30 18:52:29.6460,0.108,-0.583,-0.823,0.73,0.05,0.07,0.02,0.82,-0.65
2022-01-30 18:52:29.6560,0.129,-0.608,-0.804,0.49,0.26,0.08,-0.16,0.53,-0.73
2022-01-30 18:52:29.6670,0.137,-0.635,-0.804,0.41,0.54,-0.07,-0.16,0.53,-0.73
2022-01-30 18:52:29.6760,0.126,-0.656,-0.826,0.45,0.83,0.02,-0.28,-0.01,-0.62
2022-01-30 18:52:29.6860,0.107,-0.654,-0.843,0.85,0.92,0.34,-0.28,-0.01,-0.62
2022-01-30 18:52:29.6970,0.092,-0.626,-0.858,0.85,0.92,0.34,-0.18,-0.41,-0.58
2022-01-30 18:52:29.7070,0.093,-0.575,-0.902,0.94,0.58,0.56,-0.18,-0.41,-0.58
2022-01-30 18:52:29.7160,0.099,-0.52,-0.934,0.89,0.05,1.02,-0.02,-0.55,-0.88
2022-01-30 18:52:29.7260,0.096,-0.49,-0.914,0.85,-0.39,1.12,0.11,-0.37,-0.99
2022-01-30 18:52:29.7370,0.083,-0.472,-0.872,0.94,-0.6,0.79,0.27,-0.14,-0.99
2022-01-30 18:52:29.7460,0.071,-0.452,-0.856,1.13,-0.8,0.43,0.27,-0.14,-0.99
2022-01-30 18:52:29.7570,0.073,-0.445,-0.854,1.25,-0.98,0.42,0.44,-0.01,-0.85
2022-01-30 18:52:29.7670,0.087,-0.457,-0.842,1.2,-1.02,0.38,0.8,-0.05,-0.37
2022-01-30 18:52:29.7770,0.097,-0.483,-0.824,1.09,-0.88,0.29,0.8,-0.05,-0.37
2022-01-30 18:52:29.7870,0.098,-0.507,-0.798,1.02,-0.69,0.13,1.05,-0.2,0.06
2022-01-30 18:52:29.7970,0.1,-0.517,-0.789,1.0,-0.59,-0.04,1.06,-0.33,0.13
2022-01-30 18:52:29.8070,0.11,-0.523,-0.8,0.92,-0.6,0.01,0.98,-0.51,0.1
2022-01-30 18:52:29.8170,0.123,-0.529,-0.809,0.76,-0.62,0.18,0.98,-0.51,0.1
2022-01-30 18:52:29.8270,0.134,-0.536,-0.804,0.57,-0.63,0.26,0.62,-0.86,-0.09
2022-01-30 18:52:29.8370,0.14,-0.55,-0.776,0.42,-0.58,0.15,0.39,-0.9,-0.17
2022-01-30 18:52:29.8470,0.147,-0.575,-0.743,0.16,-0.17,-0.46,0.17,-0.87,-0.19
2022-01-30 18:52:29.8570,0.161,-0.606,-0.721,-0.04,0.16,-0.65,-0.03,-0.79,-0.14
2022-01-30 18:52:29.8670,0.177,-0.636,-0.707,-0.04,0.16,-0.65,-0.21,-0.68,-0.04
2022-01-30 18:52:29.8770,0.196,-0.66,-0.707,-0.26,0.43,-0.78,-0.21,-0.68,-0.04
2022-01-30 18:52:29.8870,0.212,-0.687,-0.726,-0.5,0.7,-0.73,-0.38,-0.59,0.08
2022-01-30 18:52:29.8980,0.217,-0.718,-0.75,-0.74,1.36,-0.33,-0.63,-0.6,0.39
2022-01-30 18:52:29.9070,0.209,-0.739,-0.789,-0.74,1.36,-0.33,-0.66,-0.74,0.53
2022-01-30 18:52:29.9170,0.193,-0.748,-0.828,-0.72,1.56,0.04,-0.66,-0.74,0.53
2022-01-30 18:52:29.9270,0.179,-0.75,-0.842,-0.66,1.65,0.3,-0.45,-1.03,0.62
2022-01-30 18:52:29.9370,0.177,-0.748,-0.827,-0.69,1.69,0.28,-0.45,-1.03,0.62
2022-01-30 18:52:29.9470,0.179,-0.745,-0.812,-0.81,1.67,0.08,-0.03,-1.08,0.55
2022-01-30 18:52:29.9570,0.182,-0.745,-0.793,-1.08,1.63,-0.25,-0.03,-1.08,0.55
2022-01-30 18:52:29.9680,0.18,-0.74,-0.792,-1.08,1.63,-0.25,0.32,-1.15,0.53
2022-01-30 18:52:29.9850,0.172,-0.739,-0.804,-1.18,1.53,-0.1,0.32,-1.15,0.53
2022-01-30 18:52:29.9910,0.155,-0.739,-0.794,-1.18,1.53,-0.1,0.46,-1.19,0.61
2022-01-30 18:52:29.9960,0.134,-0.735,-0.791,-1.06,1.4,-0.14,0.47,-1.15,0.65
2022-01-30 18:52:30.0060,0.116,-0.733,-0.795,-1.06,1.4,-0.14,0.48,-1.08,0.68
2022-01-30 18:52:30.0160,0.101,-0.73,-0.788,-1.02,1.34,-0.09,0.48,-0.96,0.68
2022-01-30 18:52:30.0260,0.088,-0.72,-0.779,-0.99,1.25,-0.18,0.47,-0.84,0.66
2022-01-30 18:52:30.0360,0.075,-0.709,-0.784,-0.97,1.1,-0.19,0.47,-0.74,0.66
2022-01-30 18:52:30.0460,0.065,-0.7,-0.789,-0.94,0.84,-0.04,0.47,-0.63,0.66
2022-01-30 18:52:30.0560,0.052,-0.684,-0.787,-0.94,0.84,-0.04,0.47,-0.63,0.66
2022-01-30 18:52:30.0670,0.038,-0.664,-0.779,-0.88,0.62,-0.05,0.48,-0.29,0.69
2022-01-30 18:52:30.0760,0.026,-0.651,-0.765,-0.81,0.41,-0.12,0.47,-0.08,0.72
2022-01-30 18:52:30.0860,0.017,-0.648,-0.758,-0.76,0.29,-0.22,0.41,0.09,0.75
2022-01-30 18:52:30.0970,0.004,-0.65,-0.776,-0.71,0.26,-0.19,0.41,0.09,0.75
2022-01-30 18:52:30.1060,-0.012,-0.651,-0.807,-0.6,0.26,0.07,0.31,0.18,0.77
2022-01-30 18:52:30.1170,-0.023,-0.644,-0.85,-0.47,0.24,0.41,0.16,0.16,0.75
2022-01-30 18:52:30.1270,-0.026,-0.632,-0.91,-0.45,0.15,0.9,-0.13,-0.15,0.58
2022-01-30 18:52:30.1360,-0.028,-0.627,-0.969,-0.46,0.06,1.51,-0.2,-0.32,0.44
2022-01-30 18:52:30.1480,-0.019,-0.615,-1.001,-0.54,0.04,2.0,-0.17,-0.39,0.31
2022-01-30 18:52:30.1580,-0.023,-0.58,-1.004,-0.65,-0.15,2.2,-0.08,-0.3,0.22
2022-01-30 18:52:30.1680,-0.033,-0.534,-0.974,-0.61,-0.54,2.1,0.04,-0.01,0.17
2022-01-30 18:52:30.1780,-0.051,-0.48,-0.934,-0.51,-1.01,1.73,0.04,-0.01,0.17
2022-01-30 18:52:30.1880,-0.076,-0.437,-0.898,-0.27,-1.55,1.35,0.22,0.83,0.3
2022-01-30 18:52:30.1980,-0.089,-0.414,-0.905,-0.02,-1.9,1.1,0.22,0.83,0.3
2022-01-30 18:52:30.2080,-0.087,-0.411,-0.953,0.11,-2.08,1.4,0.26,1.13,0.6
2022-01-30 18:52:30.2170,-0.083,-0.435,-0.974,0.12,-2.02,1.81,0.36,1.04,0.75
2022-01-30 18:52:30.2290,-0.08,-0.458,-0.998,0.11,-1.77,1.99,0.36,1.04,0.75
2022-01-30 18:52:30.2380,-0.09,-0.461,-1.015,0.13,-1.64,2.29,0.72,0.59,0.82
2022-01-30 18:52:30.2480,-0.112,-0.447,-0.993,0.27,-1.74,2.34,0.72,0.39,0.718636155128479
2022-01-30 18:52:30.2580,-0.137,-0.43,-0.957,0.7,-2.2,1.82,1.11,0.22,0.53
2022-01-30 18:52:30.2680,-0.152,-0.414,-0.925,0.7,-2.2,1.82,1.11,0.22,0.53
2022-01-30 18:52:30.2790,-0.156,-0.411,-0.891,0.78,-2.46,1.31,1.15,-0.02,0.03
2022-01-30 18:52:30.2890,-0.145,-0.421,-0.855,0.78,-2.46,1.31,1.03,-0.08,-0.22
2022-01-30 18:52:30.3070,-0.126,-0.427,-0.819,0.47,-2.48,0.73,1.03,-0.08,-0.22
2022-01-30 18:52:30.3080,-0.11,-0.425,-0.785,0.47,-2.48,0.73,0.62,-0.03,-0.64
2022-01-30 18:52:30.3180,-0.101,-0.424,-0.756,0.36,-2.58,0.23,0.41,0.08,-0.75
2022-01-30 18:52:30.3290,-0.094,-0.427,-0.737,0.38,-2.57,0.09,0.24,0.23,-0.79
2022-01-30 18:52:30.3390,-0.095,-0.427,-0.725,0.5,-2.6,0.01,0.14,0.37,-0.78
2022-01-30 18:52:30.3490,-0.103,-0.426,-0.731,0.5,-2.6,0.01,0.07,0.46,-0.75
2022-01-30 18:52:30.3580,-0.109,-0.43,-0.757,0.66,-2.6,0.18,0.07,0.46,-0.75
2022-01-30 18:52:30.3690,-0.108,-0.444,-0.769,0.79,-2.52,0.41,0.08,0.46,-0.71
2022-01-30 18:52:30.3790,-0.101,-0.454,-0.775,0.83,-2.4,0.48,0.12,0.39,-0.72
2022-01-30 18:52:30.3890,-0.096,-0.467,-0.788,0.84,-2.31,0.58,0.14,0.27,-0.74
2022-01-30 18:52:30.3990,-0.092,-0.488,-0.796,0.86,-2.16,0.7,0.16,0.15,-0.77
2022-01-30 18:52:30.4080,-0.085,-0.511,-0.799,0.88,-1.95,0.75,0.14,0.0,-0.81
2022-01-30 18:52:30.4190,-0.075,-0.541,-0.821,0.85,-1.72,0.86,0.15,-0.12,-0.84
2022-01-30 18:52:30.4290,-0.069,-0.577,-0.822,0.79,-1.07,1.05,0.19,-0.21,-0.84
2022-01-30 18:52:30.4390,-0.061,-0.608,-0.839,0.78,-0.8,1.36,0.29,-0.3,-0.8
2022-01-30 18:52:30.4490,-0.068,-0.635,-0.866,0.78,-0.8,1.36,0.46,-0.27,-0.73
2022-01-30 18:52:30.4590,-0.09,-0.653,-0.85,0.96,-0.6,1.49,0.68,-0.09,-0.65
2022-01-30 18:52:30.4690,-0.109,-0.678,-0.826,1.37,-0.22,1.16,0.89,0.16,-0.58
2022-01-30 18:52:30.4800,-0.101,-0.717,-0.814,1.37,-0.22,1.16,0.99,0.37,-0.54
2022-01-30 18:52:30.4890,-0.075,-0.755,-0.831,1.05,0.4,1.52,0.99,0.37,-0.54
2022-01-30 18:52:30.5000,-0.043,-0.784,-0.853,1.05,0.4,1.52,0.83,0.47,-0.62
2022-01-30 18:52:30.5090,-0.011,-0.808,-0.861,0.81,0.6,1.72,0.68,0.34,-0.69
2022-01-30 18:52:30.5190,0.024,-0.839,-0.871,0.57,0.82,1.87,0.55,0.14,-0.76
2022-01-30 18:52:30.5300,0.055,-0.848,-0.869,0.29,1.06,1.98,0.55,0.14,-0.76
2022-01-30 18:52:30.5400,0.074,-0.831,-0.854,0.08,0.99,1.92,0.48,-0.05,-0.82
2022-01-30 18:52:30.5490,0.083,-0.82,-0.839,-0.02,0.79,1.81,0.46,-0.23,-0.84
2022-01-30 18:52:30.5600,0.096,-0.816,-0.801,-0.07,0.71,1.63,0.47,-0.3,-0.73
2022-01-30 18:52:30.5700,0.103,-0.803,-0.761,-0.15,0.45,0.91,0.47,-0.23,-0.62
2022-01-30 18:52:30.5800,0.097,-0.785,-0.728,-0.15,0.45,0.91,0.47,-0.13,-0.48
2022-01-30 18:52:30.5900,0.093,-0.769,-0.707,-0.05,0.22,0.65,0.47,-0.01,-0.35
2022-01-30 18:52:30.6000,0.094,-0.78,-0.709,0.0,0.14,0.56,0.47,-0.01,-0.35
2022-01-30 18:52:30.6100,0.104,-0.792,-0.731,-0.02,0.26,0.7,0.62,0.23,-0.22
2022-01-30 18:52:30.6200,0.107,-0.778,-0.747,-0.09,0.26,0.99,0.62,0.23,-0.22
2022-01-30 18:52:30.6300,0.1,-0.742,-0.734,-0.03,-0.02,1.1,0.74,0.35,-0.23
2022-01-30 18:52:30.6390,0.09,-0.708,-0.705,0.1,-0.44,0.96,0.88,0.56,-0.25
2022-01-30 18:52:30.6490,0.095,-0.685,-0.677,0.22,-0.77,0.72,0.82,0.58,-0.23
2022-01-30 18:52:30.6590,0.112,-0.662,-0.654,0.17,-1.04,0.54,0.66,0.52,-0.2
2022-01-30 18:52:30.6700,0.138,-0.644,-0.641,0.02,-1.29,0.39,0.66,0.52,-0.2
2022-01-30 18:52:30.6790,0.173,-0.626,-0.637,-0.24,-1.48,0.36,0.09,0.21,-0.26
2022-01-30 18:52:30.6900,0.197,-0.614,-0.633,-0.54,-1.65,0.32,-0.29,0.07,-0.32
2022-01-30 18:52:30.7000,0.202,-0.61,-0.622,-0.67,-1.72,0.25,-0.29,0.07,-0.32
2022-01-30 18:52:30.7100,0.186,-0.622,-0.617,-0.63,-1.66,0.07,-0.91,0.08,-0.22
2022-01-30 18:52:30.7200,0.147,-0.625,-0.624,-0.36,-1.46,0.03,-0.99,0.2,-0.03
2022-01-30 18:52:30.7300,0.098,-0.601,-0.632,0.1,-1.49,0.02,-0.92,0.33,0.2
2022-01-30 18:52:30.7400,0.067,-0.588,-0.646,0.54,-1.69,0.05,-0.92,0.33,0.2
2022-01-30 18:52:30.7500,0.056,-0.603,-0.674,0.75,-1.66,0.18,-0.47,0.33,0.7
2022-01-30 18:52:30.7600,0.061,-0.634,-0.701,0.77,-1.42,0.46,-0.17,0.18,0.89
2022-01-30 18:52:30.7700,0.069,-0.661,-0.717,0.62,-1.1,0.67,0.13,-0.04,1.04
2022-01-30 18:52:30.7800,0.068,-0.675,-0.719,0.5,-0.92,0.79,0.13,-0.04,1.04
2022-01-30 18:52:30.7900,0.06,-0.69,-0.704,0.43,-0.81,0.77,0.41,-0.27,1.15
2022-01-30 18:52:30.8000,0.041,-0.692,-0.68,0.42,-0.76,0.62,0.81,-0.65,1.24
2022-01-30 18:52:30.8100,0.02,-0.689,-0.659,0.5,-0.83,0.44,0.87,-0.78,1.2
2022-01-30 18:52:30.8200,-0.002,-0.679,-0.644,0.67,-1.13,0.23,0.83,-0.87,1.07
2022-01-30 18:52:30.8300,-0.03,-0.658,-0.626,0.67,-1.13,0.23,0.83,-0.87,1.07
2022-01-30 18:52:30.8400,-0.061,-0.638,-0.605,0.83,-1.39,0.07,0.5,-0.82,0.62
2022-01-30 18:52:30.8510,-0.088,-0.623,-0.582,1.18,-1.73,-0.32,0.25,-0.67,0.35
2022-01-30 18:52:30.8590,-0.098,-0.619,-0.558,1.18,-1.73,-0.32,-0.04,-0.44,0.08
2022-01-30 18:52:30.8710,-0.096,-0.62,-0.54,1.19,-1.74,-0.54,-0.34,-0.18,-0.13
2022-01-30 18:52:30.8810,-0.091,-0.627,-0.528,1.15,-1.69,-0.72,-0.34,0.08,-0.25
2022-01-30 18:52:30.8900,-0.084,-0.632,-0.526,1.12,-1.57,-0.86,-0.62,0.08,-0.25
2022-01-30 18:52:30.9010,-0.076,-0.624,-0.538,1.08,-1.51,-0.89,-0.83,0.31,-0.28
2022-01-30 18:52:30.9110,-0.072,-0.607,-0.541,1.06,-1.58,-0.85,-0.97,0.64,-0.17
2022-01-30 18:52:30.9210,-0.07,-0.596,-0.542,1.09,-1.68,-0.92,-0.93,0.76,-0.09
2022-01-30 18:52:30.9310,-0.063,-0.596,-0.55,1.11,-1.69,-0.96,-0.93,0.82,-0.01
2022-01-30 18:52:30.9400,-0.054,-0.608,-0.568,1.06,-1.58,-0.89,-0.79,0.83,0.09
2022-01-30 18:52:30.9510,-0.059,-0.615,-0.58,1.07,-1.41,-0.8,-0.7,0.75,0.22
2022-01-30 18:52:30.9610,-0.069,-0.612,-0.593,1.18,-1.34,-0.72,-0.6,0.6,0.39
2022-01-30 18:52:30.9710,-0.087,-0.606,-0.603,1.31,-1.34,-0.66,-0.6,0.6,0.39
2022-01-30 18:52:30.9810,-0.108,-0.595,-0.62,1.51,-1.4,-0.54,-0.48,0.4,0.57
2022-01-30 18:52:30.9900,-0.127,-0.598,-0.619,1.65,-1.45,-0.48,-0.19605925679206848,0.16,0.8817526698112488
2022-01-30 18:52:31.0010,-0.156,-0.595,-0.626,1.81,-1.39,-0.48,-0.03,0.12,0.99
2022-01-30 18:52:31.0110,-0.181,-0.581,-0.622,2.05,-1.5,-0.45,0.09,0.13,1.1
2022-01-30 18:52:31.0210,-0.192,-0.596,-0.628,2.16,-1.57,-0.49,0.14,0.11,1.21
2022-01-30 18:52:31.0310,-0.197,-0.628,-0.66,2.16,-1.33,-0.31,0.15,0.02,1.32
2022-01-30 18:52:31.0410,-0.2,-0.652,-0.682,2.09,-1.04,0.03,0.15,0.02,1.32
2022-01-30 18:52:31.0510,-0.206,-0.654,-0.698,2.03,-0.88,0.19,0.19,-0.1,1.4
2022-01-30 18:52:31.0610,-0.222,-0.635,-0.719,1.99,-0.97,0.41,0.46,-0.52,1.41
2022-01-30 18:52:31.0710,-0.231,-0.616,-0.724,2.01,-1.22,0.61,0.65,-0.75,1.38
2022-01-30 18:52:31.0810,-0.226,-0.62,-0.715,1.89,-1.37,0.62,0.8,-0.99,1.34
2022-01-30 18:52:31.0910,-0.21,-0.642,-0.71,1.64,-1.3,0.63,0.8,-0.99,1.34
2022-01-30 18:52:31.1010,-0.19,-0.677,-0.692,1.28,-1.08,0.6,0.86,-1.34,1.33
2022-01-30 18:52:31.1110,-0.17,-0.716,-0.679,0.89,-0.74,0.5,0.75,-1.46,1.31
2022-01-30 18:52:31.1220,-0.166,-0.742,-0.66,0.54,-0.43,0.45,0.57,-1.52,1.26
2022-01-30 18:52:31.1310,-0.186,-0.749,-0.637,0.4,-0.26,0.28,0.57,-1.52,1.26
2022-01-30 18:52:31.1410,-0.228,-0.742,-0.63,0.5,-0.25,0.14,0.38,-1.54,1.19
2022-01-30 18:52:31.1510,-0.282,-0.727,-0.641,0.81,-0.36,0.19,0.21,-1.57,1.08
2022-01-30 18:52:31.1620,-0.313,-0.726,-0.659,1.11,-0.47,0.36,0.08,-1.64,0.93
2022-01-30 18:52:31.1710,-0.318,-0.745,-0.687,0.97,-0.1,0.9,-0.19,-1.95,0.53
2022-01-30 18:52:31.1820,-0.312,-0.787,-0.699,0.97,-0.1,0.9,-0.36,-2.04,0.31
2022-01-30 18:52:31.1920,-0.315,-0.83,-0.681,0.8,0.4,0.9,-0.56,-1.98,0.12
2022-01-30 18:52:31.2020,-0.324,-0.845,-0.66,0.72,0.75,0.69,-0.74,-1.78,-0.06
2022-01-30 18:52:31.2110,-0.338,-0.849,-0.639,0.74,0.89,0.48,-0.9,-1.49,-0.21
2022-01-30 18:52:31.2210,-0.349,-0.838,-0.63,0.79,0.93,0.26,-1.01,-1.18,-0.33
2022-01-30 18:52:31.2320,-0.352,-0.826,-0.643,0.83,0.85,0.21,-1.01,-1.18,-0.33
2022-01-30 18:52:31.2420,-0.35,-0.828,-0.673,0.76,0.96,0.6,-1.09,-0.84,-0.5
2022-01-30 18:52:31.2520,-0.343,-0.84,-0.703,0.76,0.96,0.6,-1.09,-0.84,-0.5
2022-01-30 18:52:31.2620,-0.327,-0.845,-0.736,0.63,1.1,0.87,-0.93,-0.98,-0.67
2022-01-30 18:52:31.2720,-0.31,-0.844,-0.74,0.46,1.17,1.08,-0.93,-0.98,-0.67
2022-01-30 18:52:31.2820,-0.288,-0.843,-0.722,0.26,1.19,0.99,-0.82,-1.12,-0.74
2022-01-30 18:52:31.2920,-0.265,-0.835,-0.694,0.01,1.19,0.73,-0.65,-1.34,-0.79
2022-01-30 18:52:31.3020,-0.246,-0.822,-0.664,-0.24,1.1,0.45,-0.62,-1.38,-0.76
2022-01-30 18:52:31.3130,-0.233,-0.808,-0.622,-0.43,0.99,0.1,-0.61,-1.38,-0.71
2022-01-30 18:52:31.3220,-0.223,-0.798,-0.591,-0.58,0.88,-0.31,-0.64,-1.33,-0.63
2022-01-30 18:52:31.3320,-0.212,-0.802,-0.568,-0.71,0.85,-0.57,-0.68,-1.31,-0.55
2022-01-30 18:52:31.3420,-0.198,-0.807,-0.564,-0.88,0.94,-0.76,-0.75,-1.35,-0.5
2022-01-30 18:52:31.3520,-0.188,-0.817,-0.581,-1.06,1.02,-0.72,-0.8,-1.46,-0.51
2022-01-30 18:52:31.3630,-0.176,-0.839,-0.6,-1.21,1.21,-0.55,-0.84,-1.65,-0.55
2022-01-30 18:52:31.3720,-0.151,-0.864,-0.631,-1.44,1.47,-0.34,-0.84,-1.65,-0.55
2022-01-30 18:52:31.3830,-0.124,-0.881,-0.653,-1.79,1.75,-0.03,-0.87,-1.92,-0.6
2022-01-30 18:52:31.3930,-0.106,-0.882,-0.654,-2.12,1.89,0.12,-0.94,-2.36,-0.7
2022-01-30 18:52:31.4020,-0.098,-0.883,-0.652,-2.37,1.92,0.1,-0.94,-2.38,-0.78
2022-01-30 18:52:31.4130,-0.098,-0.89,-0.639,-2.5,1.98,0.07,-1.11,-2.28,-0.88
2022-01-30 18:52:31.4220,-0.1,-0.902,-0.639,-2.59,2.11,-0.05,-1.26,-2.06,-0.98
2022-01-30 18:52:31.4330,-0.11,-0.914,-0.643,-2.545174859762192,2.4561825764179233,0.0,-1.39,-1.74,-1.07
2022-01-30 18:52:31.4430,-0.113,-0.924,-0.656,-2.55,2.45,0.0,-1.46,-1.44,-1.14
2022-01-30 18:52:31.4520,-0.104,-0.928,-0.697,-2.69,2.63,0.6,-1.44,-1.2,-1.21
2022-01-30 18:52:31.4630,-0.095,-0.921,-0.743,-2.76,2.58,0.93,-1.31,-1.02,-1.26
2022-01-30 18:52:31.4730,-0.086,-0.91,-0.767,-2.76,2.58,0.93,-1.11,-0.86,-1.31
2022-01-30 18:52:31.4830,-0.074,-0.892,-0.773,-2.82,2.48,1.07,-1.11,-0.86,-1.31
2022-01-30 18:52:31.4930,-0.06,-0.875,-0.749,-2.92,2.3,0.98,-0.91,-0.68,-1.36
2022-01-30 18:52:31.5030,-0.051,-0.871,-0.719,-2.98,2.18,0.65,-0.67,-0.27,-1.32
2022-01-30 18:52:31.5130,-0.045,-0.868,-0.7,-2.99,2.16,0.37,-0.64,-0.13,-1.24
2022-01-30 18:52:31.5230,-0.039,-0.869,-0.687,-2.98,2.12,0.16,-0.66,-0.08,-1.14
2022-01-30 18:52:31.5330,-0.037,-0.887,-0.694,-2.96,2.2,0.05,-0.69,-0.14,-1.02
2022-01-30 18:52:31.5430,-0.044,-0.918,-0.715,-2.89,2.45,0.15,-0.68,-0.26,-0.91
2022-01-30 18:52:31.5530,-0.058,-0.945,-0.731,-2.75,2.79,0.32,-0.63,-0.37,-0.82
2022-01-30 18:52:31.5630,-0.068,-0.962,-0.727,-2.6,3.01,0.39,-0.51,-0.41,-0.75
2022-01-30 18:52:31.5730,-0.078,-0.981,-0.698,-2.49,3.21,0.24,-0.32,-0.33,-0.68
2022-01-30 18:52:31.5830,-0.084,-0.984,-0.649,-2.37,3.35,-0.14,-0.11,-0.13,-0.61
2022-01-30 18:52:31.5930,-0.081,-0.983,-0.592,-2.32,3.32,-0.67,-0.11,-0.13,-0.61
2022-01-30 18:52:31.6030,-0.073,-0.998,-0.542,-2.33,3.35,-1.22,0.23,0.45,-0.43
2022-01-30 18:52:31.6130,-0.059,-1.024,-0.509,-2.36,3.51,-1.66,0.33,0.68,-0.33
2022-01-30 18:52:31.6230,-0.039,-1.065,-0.498,-2.46,3.78,-1.89,0.42,0.81,-0.22
2022-01-30 18:52:31.6330,-0.016,-1.121,-0.502,-2.6,4.21,-1.94,0.42,0.78,-0.12
2022-01-30 18:52:31.6430,0.015,-1.162,-0.528,-2.79,4.71,-1.83,0.77,0.57,-0.07
2022-01-30 18:52:31.6530,0.054,-1.174,-0.57,-3.44,4.92,-1.01,1.02,0.21,-0.1
2022-01-30 18:52:31.6630,0.086,-1.17,-0.592,-3.44,4.92,-1.01,1.02,0.21,-0.1
2022-01-30 18:52:31.6730,0.105,-1.153,-0.567,-3.71,4.75,-0.86,1.29,-0.15,-0.2233039289712906
2022-01-30 18:52:31.6830,0.103,-1.113,-0.499,-3.83,4.41,-1.17,1.56,-0.36,-0.22
2022-01-30 18:52:31.6930,0.096,-1.05,-0.423,-3.77,3.79,-1.78,1.8,-0.21,-0.36
2022-01-30 18:52:31.7030,0.1,-1.003,-0.355,-3.72,2.6,-2.85,1.71,0.02,-0.43
2022-01-30 18:52:31.7140,0.122,-0.989,-0.318,-3.78,2.6,-2.85,1.49,0.19,-0.5035097599029541
2022-01-30 18:52:31.7230,0.158,-1.002,-0.323,-4.02,2.46,-2.94,1.49,0.19,-0.5
2022-01-30 18:52:31.7330,0.199,-1.038,-0.339,-4.34,2.61,-2.73,1.14,0.27,-0.56
2022-01-30 18:52:31.7430,0.235,-1.081,-0.361,-4.68,2.95,-2.54,0.36,0.36,-0.64
2022-01-30 18:52:31.7530,0.255,-1.097,-0.406,-4.92,3.29,-2.21,0.07,0.4,-0.66
2022-01-30 18:52:31.7640,0.251,-1.067,-0.455,-4.96,3.24,-1.74,-0.08,0.51,-0.68
2022-01-30 18:52:31.7730,0.236,-1.016,-0.494,-4.77,2.83,-1.31,-0.11,0.66,-0.68
2022-01-30 18:52:31.7840,0.217,-0.971,-0.523,-4.52,2.31,-0.98,-0.11,0.66,-0.68
2022-01-30 18:52:31.7930,0.206,-0.951,-0.544,-4.25,1.95,-0.78,0.06,1.08,-0.51
2022-01-30 18:52:31.8040,0.205,-0.937,-0.576,-3.98,1.62,-0.23,0.18,1.24,-0.37
2022-01-30 18:52:31.8140,0.205,-0.921,-0.611,-3.98,1.62,-0.23,0.28,1.34,-0.23
2022-01-30 18:52:31.8230,0.204,-0.906,-0.645,-3.87,1.44,0.12,0.39,1.38,-0.13
2022-01-30 18:52:31.8340,0.2,-0.885,-0.678,-3.78,1.27,0.44,0.54,1.38,-0.11
2022-01-30 18:52:31.8430,0.195,-0.846,-0.702,-3.62,0.97,0.77,0.54,1.38,-0.11
2022-01-30 18:52:31.8540,0.194,-0.804,-0.7,-3.5,0.5,0.96,0.92,1.35,-0.17
2022-01-30 18:52:31.8640,0.194,-0.777,-0.677,-3.4,0.08,0.88,1.05,1.35,-0.15
2022-01-30 18:52:31.8740,0.193,-0.756,-0.645,-3.32,-0.21,0.69,1.11,1.4,-0.08
2022-01-30 18:52:31.8840,0.18,-0.733,-0.607,-2.94,-0.79,0.13,1.08,1.44,0.02
2022-01-30 18:52:31.8940,0.161,-0.709,-0.587,-2.94,-0.79,0.13,0.94,1.45,0.13
2022-01-30 18:52:31.9040,0.135,-0.705,-0.593,-2.67,-1.01,0.08,0.74,1.42,0.23
2022-01-30 18:52:31.9150,0.105,-0.713,-0.615,-2.32,-1.03,0.27,0.53,1.44,0.25
2022-01-30 18:52:31.9240,0.086,-0.72,-0.619,-1.99,-0.97,0.47,0.53,1.44,0.25
2022-01-30 18:52:31.9340,0.07,-0.721,-0.627,-1.77,-0.93,0.51,0.38,1.52,0.17
2022-01-30 18:52:31.9440,0.048,-0.7,-0.636,-1.5,-1.02,0.61,0.22,1.81,-0.14
2022-01-30 18:52:31.9540,0.026,-0.671,-0.645,-1.16,-1.29,0.68,0.16,1.92,-0.27
2022-01-30 18:52:31.9650,0.009,-0.649,-0.659,-0.84,-1.56,0.79,0.08,1.96,-0.33
2022-01-30 18:52:31.9740,-0.008,-0.633,-0.679,-0.54,-1.76,0.94,-0.02,1.91,-0.3
2022-01-30 18:52:31.9850,-0.028,-0.636,-0.699,0.08,-1.76,1.28,-0.12,1.82,-0.22
2022-01-30 18:52:31.9950,-0.046,-0.65,-0.709,0.08,-1.76,1.28,-0.17,1.73,-0.13
2022-01-30 18:52:32.0040,-0.067,-0.655,-0.72,0.37,-1.63,1.37,-0.18,1.68,-0.07
2022-01-30 18:52:32.0140,-0.089,-0.658,-0.72,0.68,-1.59,1.42,-0.16,1.69,-0.03
2022-01-30 18:52:32.0240,-0.111,-0.661,-0.704,1.0,-1.55,1.36,-0.12,1.78,0.0
2022-01-30 18:52:32.0340,-0.136,-0.66,-0.676,1.32,-1.52,1.14,-0.12,1.78,0.0
2022-01-30 18:52:32.0450,-0.167,-0.655,-0.643,1.69,-1.54,0.84,-0.07,2.05,0.12
2022-01-30 18:52:32.0540,-0.193,-0.655,-0.61,2.1,-1.58,0.5,-0.04,2.17,0.17
2022-01-30 18:52:32.0650,-0.205,-0.66,-0.587,2.41,-1.55,0.21,-0.0,2.21,0.17
2022-01-30 18:52:32.0750,-0.209,-0.659,-0.573,2.6,-1.52,0.03,-0.0,2.15,0.13
2022-01-30 18:52:32.0930,-0.208,-0.661,-0.571,2.82,-1.47,-0.05,-0.0,2.15,0.13
2022-01-30 18:52:32.0970,-0.199,-0.673,-0.564,2.79,-1.34,-0.16,-0.15,1.81,-0.06
2022-01-30 18:52:32.1050,-0.18,-0.683,-0.552,2.79,-1.34,-0.16,-0.15,1.56,-0.18
2022-01-30 18:52:32.1130,-0.159,-0.697,-0.553,2.69,-1.23,-0.24,-0.39,1.26,-0.24
2022-01-30 18:52:32.1230,-0.147,-0.716,-0.557,2.58,-1.02,-0.23,-0.39,1.26,-0.24
2022-01-30 18:52:32.1340,-0.146,-0.705,-0.568,2.59,-0.89,-0.19,-0.46,0.67,-0.21
2022-01-30 18:52:32.1440,-0.148,-0.679,-0.572,2.65,-1.07,-0.13,-0.41,0.45,-0.16
2022-01-30 18:52:32.1540,-0.154,-0.67,-0.568,2.72,-1.24,-0.14,-0.33,0.31,-0.08
2022-01-30 18:52:32.1640,-0.166,-0.651,-0.568,2.82,-1.3,-0.22,-0.27,0.2,-0.01
2022-01-30 18:52:32.1740,-0.179,-0.615,-0.572,2.97,-1.56,-0.2,-0.27,0.2,-0.01
2022-01-30 18:52:32.1850,-0.188,-0.586,-0.575,3.09,-1.89,-0.2,-0.25,0.09,0.0
2022-01-30 18:52:32.1950,-0.184,-0.567,-0.59,3.15,-2.13,-0.15,-0.31,0.06,-0.06
2022-01-30 18:52:32.2050,-0.167,-0.572,-0.604,3.07,-2.22,0.0,-0.31,0.06,-0.06
2022-01-30 18:52:32.2150,-0.151,-0.607,-0.611,2.78,-1.62,0.1,-0.47,0.08,-0.14
2022-01-30 18:52:32.2260,-0.145,-0.636,-0.622,2.77,-1.39,0.17,-0.54,0.13,-0.15
2022-01-30 18:52:32.2350,-0.146,-0.645,-0.629,2.77,-1.39,0.17,-0.54,0.13,-0.15
2022-01-30 18:52:32.2460,-0.152,-0.648,-0.634,2.83,-1.31,0.18,-0.56,0.21,-0.12
2022-01-30 18:52:32.2550,-0.157,-0.651,-0.644,2.91,-1.24,0.21,-0.54,0.3,-0.1
2022-01-30 18:52:32.2650,-0.16,-0.653,-0.653,2.98,-1.18,0.27,-0.36,0.4,-0.03
2022-01-30 18:52:32.2750,-0.153,-0.652,-0.674,3.01,-1.16,0.38,-0.27,0.34,-0.04
2022-01-30 18:52:32.2850,-0.127,-0.671,-0.697,2.9,-1.1,0.59,-0.2,0.22,-0.07
2022-01-30 18:52:32.2960,-0.093,-0.71,-0.708,2.62,-0.81,0.76,-0.18,0.06,-0.11
2022-01-30 18:52:32.3060,-0.059,-0.749,-0.722,1.97,-0.05,1.01,-0.22,-0.17,-0.16
2022-01-30 18:52:32.3240,-0.032,-0.771,-0.743,1.77,0.12,1.11,-0.27,-0.37,-0.22
2022-01-30 18:52:32.3230,-0.024,-0.776,-0.736,1.77,0.12,1.11,-0.27,-0.48,-0.25
2022-01-30 18:52:32.3340,-0.029,-0.767,-0.717,1.74,0.15,0.7482067912817002,-0.21,-0.51,-0.25
2022-01-30 18:52:32.3450,-0.034,-0.748,-0.711,1.79,0.03,0.74,-0.12,-0.54,-0.21
2022-01-30 18:52:32.3550,-0.036,-0.743,-0.726,1.8,-0.13,0.76,-0.12,-0.54,-0.21
2022-01-30 18:52:32.3660,-0.032,-0.761,-0.743,1.77,-0.08,0.92,-0.0,-0.71,-0.01
2022-01-30 18:52:32.3760,-0.026,-0.777,-0.766,1.68,0.12,1.08,-0.03,-0.87,0.08
2022-01-30 18:52:32.3850,-0.022,-0.796,-0.79,1.56,0.26,1.32,-0.03,-0.87,0.08
2022-01-30 18:52:32.3960,-0.023,-0.816,-0.815,1.46,0.47,1.51,-0.09,-1.26,0.09
2022-01-30 18:52:32.4060,-0.021,-0.82,-0.858,1.37,0.64,1.8,-0.05,-1.51,0.02
2022-01-30 18:52:32.4150,-0.025,-0.803,-0.891,1.27,0.59,2.21,0.01,-1.72,-0.09
2022-01-30 18:52:32.4260,-0.029,-0.784,-0.899,1.22,0.4,2.4,0.04,-1.85,-0.17
2022-01-30 18:52:32.4360,-0.035,-0.776,-0.906,1.15,0.25,2.46,0.01,-1.86,-0.23
2022-01-30 18:52:32.4460,-0.043,-0.778,-0.889,1.12,0.25,2.22,-0.06,-1.72,-0.26
2022-01-30 18:52:32.4560,-0.059,-0.778,-0.872,1.12,0.25,2.22,-0.15,-1.44,-0.27
2022-01-30 18:52:32.4660,-0.077,-0.766,-0.858,1.24,0.22,2.06,-0.2,-1.07,-0.28
2022-01-30 18:52:32.4760,-0.084,-0.753,-0.839,1.33,0.1,1.88,-0.2,-1.07,-0.28
2022-01-30 18:52:32.4860,-0.077,-0.748,-0.828,1.33,0.01,1.69,-0.2,-0.34,-0.27
2022-01-30 18:52:32.4970,-0.05,-0.748,-0.817,1.19,0.0,1.58,-0.2,-0.34,-0.27
2022-01-30 18:52:32.5060,-0.012,-0.752,-0.801,0.88,0.03,1.43,-0.08,-0.04,-0.22
2022-01-30 18:52:32.5170,0.026,-0.759,-0.783,0.15,0.17,1.05,-0.03,-0.07,-0.17
2022-01-30 18:52:32.5240,0.059,-0.768,-0.757,0.15,0.17,1.05,-0.01,-0.2,-0.11
2022-01-30 18:52:32.5360,0.079,-0.773,-0.745,-0.14,0.25,0.83,-0.04,-0.41,-0.04
2022-01-30 18:52:32.5470,0.092,-0.781,-0.742,-0.47,0.41,0.71,-0.1,-0.66,0.01
2022-01-30 18:52:32.5560,0.094,-0.79,-0.738,-0.47,0.41,0.71,-0.17,-0.88,0.03
2022-01-30 18:52:32.5670,0.084,-0.786,-0.729,-0.5,0.47,0.64,-0.21,-1.03,0.03
2022-01-30 18:52:32.5760,0.063,-0.759,-0.714,-0.42,0.37,0.30682153165340426,-0.21,-1.03,0.03
2022-01-30 18:52:32.5870,0.047,-0.728,-0.688,-0.25,-0.19,0.02,-0.21,-1.08,-0.01
2022-01-30 18:52:32.5970,0.042,-0.705,-0.66,-0.25,-0.19,0.02,-0.19,-0.91,-0.09
2022-01-30 18:52:32.6070,0.043,-0.691,-0.639,-0.35,-0.46,-0.45,-0.21,-0.76,-0.1
2022-01-30 18:52:32.6170,0.049,-0.687,-0.624,-0.35,-0.46,-0.45,-0.27,-0.6,-0.08
2022-01-30 18:52:32.6260,0.058,-0.7,-0.614,-0.46,-0.42,-0.61,-0.35,-0.45,-0.02
2022-01-30 18:52:32.6370,0.068,-0.715,-0.624,-0.6935552054643631,-0.06,-0.55,-0.42,-0.35,0.04
2022-01-30 18:52:32.6470,0.075,-0.73,-0.641,-0.7,-0.06,-0.55,-0.42,-0.26,0.1
2022-01-30 18:52:32.6570,0.069,-0.735,-0.656,-0.75,0.1,-0.44,-0.47,-0.26,0.1
2022-01-30 18:52:32.6670,0.054,-0.725,-0.673,-0.54,0.01,-0.18,-0.37,-0.13,0.17
2022-01-30 18:52:32.6770,0.037,-0.711,-0.682,-0.4,-0.09,-0.19,-0.26,-0.06,0.17
2022-01-30 18:52:32.6870,0.03,-0.704,-0.671,-0.42,-0.1,-0.33,-0.15,-0.01,0.16
2022-01-30 18:52:32.6970,0.039,-0.712,-0.663,-0.42,-0.1,-0.33,-0.15,-0.01,0.16
2022-01-30 18:52:32.7070,0.055,-0.732,-0.673,-0.55,0.04,-0.36,-0.17,-0.12,0.17
2022-01-30 18:52:32.7170,0.066,-0.756,-0.691,-0.73,0.28,-0.21,-0.17,-0.12,0.17
2022-01-30 18:52:32.7270,0.064,-0.766,-0.709,-0.8,0.5,-0.07,-0.49,-0.31,0.17
2022-01-30 18:52:32.7370,0.06,-0.769,-0.745,-0.82,0.59,0.11,-0.7,-0.4,0.13
2022-01-30 18:52:32.7470,0.046,-0.754,-0.804,-0.79,0.64,0.51,-0.89,-0.45,0.07
2022-01-30 18:52:32.7570,0.021,-0.724,-0.85,-0.64,0.47,1.03,-0.89,-0.45,0.07
2022-01-30 18:52:32.7670,-0.01,-0.697,-0.876,-0.39,0.25,1.32,-0.96,-0.27,-0.01
2022-01-30 18:52:32.7770,-0.032,-0.666,-0.899,-0.13,0.05,1.49,-0.8,-0.08,-0.02
2022-01-30 18:52:32.7870,-0.043,-0.633,-0.919,0.04,-0.21,1.66,-0.54,0.1,0.01
2022-01-30 18:52:32.7970,-0.049,-0.605,-0.943,0.13,-0.49,1.82,-0.21,0.2,0.07
2022-01-30 18:52:32.8070,-0.05,-0.585,-0.973,0.18,-0.71,2.06,0.12,0.19,0.17
2022-01-30 18:52:32.8170,-0.051,-0.58,-0.996,0.2,-0.87,2.36,0.43,0.06,0.31
2022-01-30 18:52:32.8270,-0.051,-0.581,-1.004,0.17,-0.9,2.54,0.71,-0.14,0.43
2022-01-30 18:52:32.8380,-0.065,-0.561,-1.003,0.17,-0.99,2.66,0.93,-0.35,0.52
2022-01-30 18:52:32.8470,-0.092,-0.533,-0.973,0.5,-1.64,2.36,1.08,-0.54,0.55
2022-01-30 18:52:32.8570,-0.117,-0.514,-0.947,0.5,-1.64,2.36,1.15,-0.7,0.53
2022-01-30 18:52:32.8660,-0.136,-0.494,-0.929,0.64,-1.89,2.23,1.15,-0.7,0.53
2022-01-30 18:52:32.8780,-0.16,-0.472,-0.911,0.74,-2.17,2.13,0.98,-0.89,0.26
2022-01-30 18:52:32.8880,-0.187,-0.452,-0.896,0.92,-2.44,2.04,0.79,-0.84,0.03
2022-01-30 18:52:32.8980,-0.208,-0.442,-0.877,1.12,-2.67,1.94,0.56,-0.67,-0.24
2022-01-30 18:52:32.9070,-0.214,-0.439,-0.852,1.25,-2.77,1.78,0.33,-0.39,-0.52
2022-01-30 18:52:32.9180,-0.204,-0.441,-0.829,1.25,-2.8,1.56,0.33,-0.39,-0.52
2022-01-30 18:52:32.9280,-0.186,-0.443,-0.807,1.17,-2.8,1.34,-0.01,0.3,-0.91
2022-01-30 18:52:32.9380,-0.163,-0.446,-0.789,0.92,-2.75,0.98,-0.1,0.59,-0.97
2022-01-30 18:52:32.9480,-0.134,-0.45,-0.779,0.92,-2.75,0.98,-0.13,0.81,-0.94
2022-01-30 18:52:32.9580,-0.103,-0.465,-0.776,0.74,-2.67,0.9,-0.1,0.91,-0.84
2022-01-30 18:52:32.9680,-0.076,-0.482,-0.773,0.56,-2.5,0.86,-0.03,0.91,-0.69
2022-01-30 18:52:32.9780,-0.05,-0.502,-0.769,0.42,-2.32,0.82,0.07,0.81,-0.54
2022-01-30 18:52:32.9880,-0.029,-0.525,-0.767,0.26,-2.12,0.78,0.18,0.64,-0.39
2022-01-30 18:52:32.9980,-0.02,-0.546,-0.765,0.17,-1.91,0.79,0.18,0.64,-0.39
2022-01-30 18:52:33.0080,-0.022,-0.566,-0.758,0.23,-1.56,0.72,0.38,0.16,-0.14
2022-01-30 18:52:33.0180,-0.028,-0.583,-0.751,0.23,-1.56,0.72,0.38,0.16,-0.14
2022-01-30 18:52:33.0280,-0.035,-0.598,-0.746,0.29,-1.43,0.69,0.44,-0.1,-0.04
2022-01-30 18:52:33.0380,-0.047,-0.614,-0.741,0.35,-1.32,0.68,0.49,-0.47,0.01
2022-01-30 18:52:33.0490,-0.063,-0.636,-0.73,0.46,-1.17,0.65,0.49,-0.51,-0.03
2022-01-30 18:52:33.0580,-0.074,-0.662,-0.714,0.58,-0.97,0.54,0.43702447414398193,-0.47,-0.12
2022-01-30 18:52:33.0680,-0.078,-0.686,-0.713,0.63,-0.74,0.46,0.44,-0.47,-0.12
2022-01-30 18:52:33.0780,-0.076,-0.711,-0.712,0.64,-0.53,0.49,0.28,-0.22,-0.36
2022-01-30 18:52:33.0880,-0.068,-0.731,-0.708,0.55,-0.16,0.45,0.21,-0.08,-0.46
2022-01-30 18:52:33.0990,-0.06,-0.744,-0.7,0.55,-0.16,0.45,0.21,-0.08,-0.46
2022-01-30 18:52:33.1080,-0.054,-0.745,-0.697,0.53,-0.07,0.39,0.16,0.05,-0.54
2022-01-30 18:52:33.1180,-0.049,-0.739,-0.714,0.53,-0.12,0.66,-0.1,0.11,-0.69
2022-01-30 18:52:33.1290,-0.042,-0.754,-0.748,0.53,-0.12,0.66,-0.1,0.11,-0.69
2022-01-30 18:52:33.1380,-0.032,-0.794,-0.768,0.47,0.59,0.98,-0.45,0.14,-0.77
2022-01-30 18:52:33.1490,-0.022,-0.826,-0.749,0.47,0.59,0.98,-0.47,0.38,-0.78
2022-01-30 18:52:33.1590,-0.007,-0.844,-0.714,0.44,0.88,0.67,-0.47,0.38,-0.78
2022-01-30 18:52:33.1680,0.007,-0.846,-0.678,0.39,1.04,0.29,-0.32,0.73,-0.75
2022-01-30 18:52:33.1790,0.015,-0.825,-0.656,0.39,0.97,-0.02,0.25,1.3,-0.5
2022-01-30 18:52:33.1890,0.021,-0.804,-0.646,0.48,0.55,-0.18,0.48,1.32,-0.3
2022-01-30 18:52:33.1990,0.032,-0.804,-0.646,0.48,0.55,-0.18,0.48,1.32,-0.3
2022-01-30 18:52:33.2090,0.049,-0.812,-0.654,0.43,0.55,-0.09,0.63,1.15,-0.1
2022-01-30 18:52:33.2180,0.077,-0.832,-0.661,0.28,0.62,0.05,0.7,0.83,0.07
2022-01-30 18:52:33.2290,0.118,-0.866,-0.67,-0.03,0.83,0.17,0.76,-0.03,0.27
2022-01-30 18:52:33.2390,0.164,-0.904,-0.687,-0.96,1.42,0.56,0.76,-0.03,0.27
2022-01-30 18:52:33.2490,0.192,-0.918,-0.693,-1.22,1.39,0.58,0.77,-0.51,0.29
2022-01-30 18:52:33.2570,0.195,-0.905,-0.679,-1.22,1.39,0.58,0.63,-1.09,0.21
2022-01-30 18:52:33.2680,0.169,-0.875,-0.657,-1.22,1.16,0.43,0.63,-1.09,0.21
2022-01-30 18:52:33.2790,0.132,-0.831,-0.639,-0.97,0.77,0.26,0.27,-0.95,0.12
2022-01-30 18:52:33.2890,0.1,-0.786,-0.633,-0.45,-0.1,0.12,0.08,-0.68,0.09
2022-01-30 18:52:33.2990,0.072,-0.752,-0.638,-0.45,-0.1,0.12,-0.09,-0.34,0.07
2022-01-30 18:52:33.3090,0.053,-0.722,-0.648,-0.22,-0.41,0.18,-0.21,0.03,0.06
2022-01-30 18:52:33.3170,0.042,-0.7,-0.658,-0.07,-0.67,0.27,-0.27,0.41,0.08
2022-01-30 18:52:33.3300,0.041,-0.688,-0.667,0.02,-0.83,0.35,-0.27,0.41,0.08
2022-01-30 18:52:33.3370,0.048,-0.683,-0.676,0.04,-0.9,0.4,-0.26,0.73,0.12
2022-01-30 18:52:33.3480,0.066,-0.686,-0.686,-0.02,-0.92,0.5,-0.2,0.94,0.17
2022-01-30 18:52:33.3570,0.09,-0.695,-0.679,-0.19,-0.85,0.54,-0.12,1.03,0.21
2022-01-30 18:52:33.3670,0.111,-0.707,-0.663,-0.38,-0.75,0.43,-0.04,1.03,0.25
2022-01-30 18:52:33.3770,0.124,-0.715,-0.641,-0.53,-0.63,0.26,0.01,0.94,0.29
2022-01-30 18:52:33.3870,0.132,-0.717,-0.621,-0.6,-0.59,0.05,0.06,0.81,0.34
2022-01-30 18:52:33.3980,0.136,-0.721,-0.601,-0.66,-0.57,-0.14,0.08,0.63,0.38
2022-01-30 18:52:33.4080,0.132,-0.721,-0.593,-0.69,-0.54,-0.29,0.08,0.43,0.43
2022-01-30 18:52:33.4180,0.115,-0.716,-0.584,-0.62,-0.57,-0.35,0.06,0.22,0.44
2022-01-30 18:52:33.4280,0.089,-0.708,-0.577,-0.44,-0.62,-0.44,0.01,0.05,0.43
2022-01-30 18:52:33.4370,0.06,-0.695,-0.568,-0.2,-0.73,-0.51,-0.05,-0.06,0.4
2022-01-30 18:52:33.4480,0.037,-0.682,-0.554,0.03,-0.85,-0.65,-0.12,-0.08,0.36
2022-01-30 18:52:33.4580,0.017,-0.662,-0.544,0.22,-0.99,-0.78,-0.21,-0.04,0.31
2022-01-30 18:52:33.4680,-0.0,-0.645,-0.535,0.39,-1.17,-0.9,-0.29,0.07,0.26
2022-01-30 18:52:33.4780,-0.012,-0.635,-0.535,0.53,-1.28,-1.01,-0.41,0.21,0.21
2022-01-30 18:52:33.4880,-0.026,-0.63,-0.541,0.66,-1.33,-1.0,-0.56,0.34,0.18
2022-01-30 18:52:33.4980,-0.047,-0.624,-0.558,0.84,-1.32,-0.97,-0.72,0.48,0.15
2022-01-30 18:52:33.5080,-0.068,-0.609,-0.584,1.08,-1.35,-0.83,-0.88,0.59,0.11
2022-01-30 18:52:33.5180,-0.084,-0.595,-0.615,1.31,-1.45,-0.63,-1.06,0.66,0.06
2022-01-30 18:52:33.5280,-0.1,-0.585,-0.652,1.49,-1.48,-0.4,-1.25,0.71,0.01
2022-01-30 18:52:33.5380,-0.13,-0.571,-0.691,1.74,-1.49,-0.11,-1.43,0.73,-0.03
2022-01-30 18:52:33.5480,-0.162,-0.552,-0.717,2.13,-1.54,0.11,-1.56,0.77,-0.06
2022-01-30 18:52:33.5580,-0.186,-0.529,-0.75,2.48,-1.63,0.27,-1.62,0.82,-0.1
2022-01-30 18:52:33.5680,-0.199,-0.507,-0.786,2.74,-1.75,0.51,-1.62,0.84,-0.12
2022-01-30 18:52:33.5780,-0.2,-0.498,-0.827,2.88,-1.82,0.77,-1.58,0.79,-0.12
2022-01-30 18:52:33.5880,-0.195,-0.508,-0.869,2.92,-1.73,1.11,-1.53,0.65,-0.08
2022-01-30 18:52:33.5980,-0.19,-0.522,-0.896,2.89,-1.47,1.37,-1.43,0.46,0.03
2022-01-30 18:52:33.6080,-0.194,-0.51,-0.916,2.87,-1.32,1.52,-1.24,0.26,0.16
2022-01-30 18:52:33.6180,-0.206,-0.476,-0.936,2.93,-1.47,1.66,-0.98,0.03,0.27
2022-01-30 18:52:33.6280,-0.217,-0.447,-0.949,3.02,-1.77,1.78,-0.69,-0.24,0.37
2022-01-30 18:52:33.6380,-0.222,-0.437,-0.952,3.04,-1.96,1.85,-0.42,-0.51,0.46
2022-01-30 18:52:33.6490,-0.219,-0.44,-0.942,2.97,-1.99,1.8,-0.19,-0.75,0.55
2022-01-30 18:52:33.6580,-0.208,-0.447,-0.939,2.8,-1.94,1.7,0.02,-0.95,0.61
2022-01-30 18:52:33.6680,-0.196,-0.455,-0.93,2.55,-1.88,1.7,0.2,-1.13,0.62
2022-01-30 18:52:33.6780,-0.186,-0.464,-0.905,2.3,-1.83,1.53,0.34,-1.26,0.61
2022-01-30 18:52:33.6880,-0.193,-0.466,-0.88,2.11,-1.78,1.31,0.39,-1.33,0.56
2022-01-30 18:52:33.6980,-0.211,-0.454,-0.846,2.11,-1.85,1.06,0.36,-1.34,0.51
2022-01-30 18:52:33.7080,-0.222,-0.451,-0.816,2.15,-1.97,0.74,0.25,-1.29,0.45
2022-01-30 18:52:33.7180,-0.229,-0.458,-0.793,2.12,-1.97,0.47,0.12,-1.21,0.36
2022-01-30 18:52:33.7280,-0.224,-0.475,-0.785,2.06,-1.87,0.29,-0.04,-1.13,0.26
2022-01-30 18:52:33.7380,-0.211,-0.508,-0.787,1.87,-1.62,0.25,-0.2,-1.12,0.14
2022-01-30 18:52:33.7490,-0.202,-0.539,-0.797,1.66,-1.25,0.27,-0.35,-1.16,0.04
2022-01-30 18:52:33.7580,-0.201,-0.56,-0.817,1.51,-0.94,0.4,-0.48,-1.26,-0.06
2022-01-30 18:52:33.7690,-0.208,-0.57,-0.831,1.43,-0.73,0.56,-0.55,-1.39,-0.16
2022-01-30 18:52:33.7790,-0.215,-0.571,-0.826,1.42,-0.63,0.59,-0.58,-1.46,-0.26
2022-01-30 18:52:33.7890,-0.22,-0.565,-0.824,1.38,-0.61,0.52,-0.59,-1.47,-0.36
2022-01-30 18:52:33.7990,-0.225,-0.565,-0.806,1.36,-0.62,0.43,-0.62,-1.41,-0.47
2022-01-30 18:52:33.8090,-0.224,-0.57,-0.794,1.33,-0.53,0.2,-0.69,-1.29,-0.56
2022-01-30 18:52:33.8190,-0.218,-0.577,-0.798,1.24,-0.43,0.12,-0.78,-1.19,-0.63
2022-01-30 18:52:33.8290,-0.206,-0.589,-0.812,1.12,-0.29,0.14,-0.86,-1.13,-0.69
2022-01-30 18:52:33.8390,-0.189,-0.604,-0.833,0.93,-0.09,0.29,-0.88,-1.15,-0.74
2022-01-30 18:52:33.8490,-0.174,-0.617,-0.855,0.71,0.11,0.42,-0.83,-1.23,-0.77
2022-01-30 18:52:33.8590,-0.166,-0.626,-0.887,0.53,0.28,0.68,-0.75,-1.37,-0.8
2022-01-30 18:52:33.8690,-0.164,-0.632,-0.901,0.4,0.4,0.92,-0.66,-1.52,-0.84
2022-01-30 18:52:33.8790,-0.166,-0.633,-0.91,0.33,0.48,1.01,-0.59,-1.63,-0.9
2022-01-30 18:52:33.8890,-0.167,-0.63,-0.918,0.27,0.51,1.09,-0.54,-1.68,-0.99
2022-01-30 18:52:33.8990,-0.164,-0.624,-0.926,0.2,0.49,1.15,-0.47,-1.67,-1.12
2022-01-30 18:52:33.9090,-0.158,-0.605,-0.935,0.1,0.4,1.25,-0.4,-1.65,-1.26
2022-01-30 18:52:33.9130,-0.145,-0.585,-0.928,-0.03,0.2,1.29,-0.32,-1.62,-1.4
2022-01-30 18:52:33.9250,-0.126,-0.574,-0.91,-0.03,0.2,1.29,-0.26,-1.58,-1.5
2022-01-30 18:52:33.9350,-0.103,-0.57,-0.891,-0.22,0.03,1.18,-0.21,-1.54,-1.56
2022-01-30 18:52:33.9450,-0.08,-0.563,-0.874,-0.46,-0.05,1.0,-0.17,-1.51,-1.57
2022-01-30 18:52:33.9550,-0.054,-0.552,-0.84,-0.72,-0.1,0.85,-0.15,-1.46,-1.59
2022-01-30 18:52:33.9650,-0.018,-0.544,-0.801,-0.97,-0.2,0.63,-0.15,-1.37,-1.62
2022-01-30 18:52:33.9750,0.023,-0.544,-0.761,-1.27,-0.33,0.28,-0.16,-1.24,-1.67
2022-01-30 18:52:33.9850,0.071,-0.558,-0.725,-1.66,-0.39,-0.09,-0.19,-1.09,-1.72
2022-01-30 18:52:33.9950,0.127,-0.59,-0.705,-2.56,-0.17,-0.78,-0.23,-0.96,-1.75
2022-01-30 18:52:34.0050,0.179,-0.632,-0.701,-2.56,-0.17,-0.78,-0.28,-0.89,-1.73
2022-01-30 18:52:34.0150,0.221,-0.667,-0.708,-3.07,0.2,-0.91,-0.32,-0.91,-1.65
2022-01-30 18:52:34.0250,0.25,-0.7,-0.721,-3.52,0.6,-0.91,-0.35,-1.02,-1.5
2022-01-30 18:52:34.0350,0.267,-0.733,-0.716,-4.13,1.26,-0.71,-0.35,-1.14,-1.32
2022-01-30 18:52:34.0460,0.282,-0.746,-0.696,-4.13,1.26,-0.71,-0.29,-1.21,-1.14
2022-01-30 18:52:34.0550,0.301,-0.756,-0.669,-4.3,1.55,-0.85,-0.23,-1.2,-1.02
2022-01-30 18:52:34.0650,0.334,-0.794,-0.661,-4.49,1.6,-1.06,-0.23,-1.16,-0.91
2022-01-30 18:52:34.0750,0.374,-0.847,-0.679,-4.77,1.81,-1.31,-0.33,-1.16,-0.79
2022-01-30 18:52:34.0850,0.404,-0.905,-0.694,-5.18,2.27,-1.25,-0.53,-1.18,-0.62
2022-01-30 18:52:34.0960,0.399,-0.948,-0.742,-5.62,2.85,-1.1,-0.77,-1.22,-0.4
2022-01-30 18:52:34.1060,0.358,-0.96,-0.79,-5.88,3.45,-0.88,-1.01,-1.25,-0.16
2022-01-30 18:52:34.1150,0.293,-0.955,-0.843,-5.77,3.84,-0.38,-1.17,-1.18,0.04
2022-01-30 18:52:34.1250,0.224,-0.945,-0.887,-5.36,3.96,0.02,-1.18,-0.98,0.14
2022-01-30 18:52:34.1350,0.172,-0.925,-0.904,-4.19,3.94,0.8,-1.02,-0.63,0.15
2022-01-30 18:52:34.1460,0.154,-0.907,-0.917,-4.19,3.94,0.8,-0.7,-0.2,0.1
2022-01-30 18:52:34.1560,0.178,-0.913,-0.927,-3.8,3.78,0.9,-0.32,0.18,0.06
2022-01-30 18:52:34.1660,0.222,-0.938,-0.92,-3.78,3.71,1.0,0.02,0.42,0.08
2022-01-30 18:52:34.1760,0.268,-0.959,-0.894,-4.51,4.1,0.9,0.3,0.56,0.17
2022-01-30 18:52:34.1860,0.3,-0.972,-0.857,-4.89,4.24,0.6,0.49,0.64,0.29
2022-01-30 18:52:34.1960,0.309,-0.969,-0.833,-4.89,4.24,0.6,0.62,0.69,0.42
2022-01-30 18:52:34.2060,0.298,-0.943,-0.827,-5.07,4.12,0.14,0.69,0.68,0.52
2022-01-30 18:52:34.2160,0.274,-0.912,-0.836,-5.07,4.12,0.14,0.7,0.61,0.55
2022-01-30 18:52:34.2260,0.242,-0.888,-0.856,-4.9,3.78,0.15,0.68,0.49,0.52
2022-01-30 18:52:34.2360,0.207,-0.87,-0.88,-4.61,3.46,0.33,0.64,0.35,0.45
2022-01-30 18:52:34.2460,0.179,-0.854,-0.901,-4.27,3.21,0.56,0.6,0.22,0.33
2022-01-30 18:52:34.2560,0.156,-0.837,-0.909,-3.95,3.0,0.82,0.57,0.17,0.2
2022-01-30 18:52:34.2660,0.135,-0.821,-0.906,-3.7,2.8,1.02,0.54,0.22,0.1
2022-01-30 18:52:34.2760,0.122,-0.801,-0.891,-3.46,2.61,1.08,0.5,0.37,0.02
2022-01-30 18:52:34.2860,0.121,-0.793,-0.87,-3.11,2.19,0.85,0.45,0.64,-0.02
2022-01-30 18:52:34.2960,0.127,-0.794,-0.868,-3.06,2.13,0.7,0.39,0.96,-0.01
2022-01-30 18:52:34.3060,0.141,-0.806,-0.872,-3.06,2.13,0.7,0.33,1.26,0.06
2022-01-30 18:52:34.3160,0.159,-0.82,-0.871,-3.06,2.14,0.73,0.32,1.53,0.17
2022-01-30 18:52:34.3260,0.175,-0.821,-0.887,-3.11,2.28,0.72,0.38,1.68,0.28
2022-01-30 18:52:34.3360,0.186,-0.826,-0.908,-3.19,2.31,0.96,0.51,1.69,0.38
2022-01-30 18:52:34.3470,0.198,-0.832,-0.912,-3.19,2.31,0.96,0.71,1.57,0.48
2022-01-30 18:52:34.3560,0.218,-0.83,-0.908,-3.2,2.34,1.14,0.92,1.36,0.54
2022-01-30 18:52:34.3660,0.234,-0.837,-0.893,-3.28,2.29,1.17,1.09,1.1,0.58
2022-01-30 18:52:34.3760,0.245,-0.855,-0.862,-3.41,2.21,1.16,1.19,0.9,0.61
2022-01-30 18:52:34.3860,0.24,-0.87,-0.823,-3.56,2.34,0.72,1.22,0.81,0.62
2022-01-30 18:52:34.3970,0.225,-0.878,-0.787,-3.56,2.34,0.72,1.21,0.86,0.64
2022-01-30 18:52:34.4070,0.21,-0.875,-0.77,-3.43,2.38,0.39,1.19,1.02,0.64
2022-01-30 18:52:34.4170,0.193,-0.859,-0.757,-3.25,2.35,0.17,1.19,1.23,0.61
2022-01-30 18:52:34.4270,0.179,-0.836,-0.753,-3.04,2.18,0.1,1.22,1.46,0.56
2022-01-30 18:52:34.4360,0.177,-0.825,-0.766,-2.8,1.9,0.04,1.28,1.62,0.5
2022-01-30 18:52:34.4470,0.186,-0.829,-0.803,-2.61,1.61,0.13,1.34,1.64,0.43
2022-01-30 18:52:34.4570,0.193,-0.844,-0.838,-2.56,1.48,0.43,1.37,1.53,0.37
2022-01-30 18:52:34.4670,0.192,-0.855,-0.871,-2.56,1.47,0.89,1.37,1.35,0.32
2022-01-30 18:52:34.4770,0.181,-0.839,-0.882,-2.54,1.53,1.29,1.39,1.19,0.27
2022-01-30 18:52:34.4870,0.162,-0.811,-0.869,-2.21,1.13,1.75,1.44,1.13,0.23
2022-01-30 18:52:34.4970,0.149,-0.778,-0.851,-2.21,1.13,1.75,1.44,1.13,0.23
2022-01-30 18:52:34.5070,0.139,-0.745,-0.82,-1.97,0.73,1.71,1.55,1.36,0.14
2022-01-30 18:52:34.5170,0.136,-0.712,-0.791,-1.6,-0.12,1.37,1.59,1.6,0.11
2022-01-30 18:52:34.5270,0.135,-0.696,-0.772,-1.6,-0.12,1.37,1.61,1.83,0.12
2022-01-30 18:52:34.5370,0.132,-0.695,-0.763,-1.35,-0.69,1.21,1.62,2.01,0.17
2022-01-30 18:52:34.5470,0.13,-0.687,-0.765,-1.35,-0.69,1.21,1.64,2.1,0.24
2022-01-30 18:52:34.5570,0.13,-0.67,-0.776,-1.21,-0.81,1.28,1.68,2.06,0.28
2022-01-30 18:52:34.5670,0.127,-0.663,-0.772,-1.1,-1.04,1.49,1.75,1.94,0.3
2022-01-30 18:52:34.5770,0.122,-0.648,-0.747,-0.99,-1.28,1.7,1.85,1.78,0.32
2022-01-30 18:52:34.5870,0.119,-0.624,-0.705,-0.87,-1.46,1.72,1.97,1.63,0.31
2022-01-30 18:52:34.5980,0.12,-0.61,-0.645,-0.68,-2.11,1.28,2.07,1.54,0.3
2022-01-30 18:52:34.6070,0.123,-0.607,-0.576,-0.68,-2.11,1.28,2.11,1.54,0.3
2022-01-30 18:52:34.6170,0.135,-0.612,-0.511,-0.64,-2.3,0.82,2.08,1.6,0.29
2022-01-30 18:52:34.6270,0.151,-0.617,-0.455,-0.63,-2.42,0.32,1.98,1.7,0.26
2022-01-30 18:52:34.6370,0.158,-0.613,-0.413,-0.78,-2.53,-0.44,1.84,1.82,0.21297486126422882
2022-01-30 18:52:34.6480,0.161,-0.614,-0.378,-0.78,-2.53,-0.44,1.66,1.93,0.16
2022-01-30 18:52:34.6570,0.167,-0.625,-0.35,-0.75,-2.65,-0.65,1.47,2.04,0.1
2022-01-30 18:52:34.6670,0.17,-0.633,-0.33,-0.71,-2.65,-0.84,1.28,2.14,0.06
2022-01-30 18:52:34.6770,0.169,-0.641,-0.307,-0.68,-2.6,-0.94,1.11,2.24,0.03
2022-01-30 18:52:34.6870,0.163,-0.653,-0.293,-0.6,-2.59,-1.03,0.96,2.33,0.05
2022-01-30 18:52:34.6980,0.15,-0.652,-0.306,-0.49,-2.52,-1.13,0.81,2.37,0.1
2022-01-30 18:52:34.7070,0.132,-0.636,-0.316,-0.31,-2.46,-1.08,0.66,2.36,0.13
2022-01-30 18:52:34.7180,0.12,-0.618,-0.312,0.17,-2.76,-0.72,0.56,2.33,0.12
2022-01-30 18:52:34.7280,0.12,-0.595,-0.32,0.17,-2.76,-0.72,0.51,2.28,0.07
2022-01-30 18:52:34.7380,0.135,-0.582,-0.322,0.35,-3.21,-0.48,0.47,2.2,-0.02
2022-01-30 18:52:34.7490,0.162,-0.58,-0.308,0.35,-3.21,-0.48,0.42,2.11,-0.12
2022-01-30 18:52:34.7580,0.183,-0.569,-0.288,0.24,-3.29,-0.46,0.33,2.04,-0.2
2022-01-30 18:52:34.7680,0.193,-0.541,-0.266,0.07,-3.33,-0.57,0.18,1.98,-0.23
2022-01-30 18:52:34.7780,0.2,-0.509,-0.246,0.01,-3.8,-0.9,-0.04,1.96,-0.22
2022-01-30 18:52:34.7880,0.208,-0.486,-0.233,0.02,-4.08,-1.07,-0.04,1.96,-0.22
2022-01-30 18:52:34.7990,0.218,-0.469,-0.227,0.02,-4.08,-1.07,-0.66,2.1,-0.12
2022-01-30 18:52:34.8080,0.225,-0.465,-0.24,0.02,-4.25,-1.18,-1.02,2.25,-0.03
2022-01-30 18:52:34.8180,0.223,-0.485,-0.276,0.0,-4.35,-1.25,-1.39,2.39,0.09
2022-01-30 18:52:34.8280,0.218,-0.517,-0.317,0.14,-3.93,-0.81,-1.73,2.51,0.26
2022-01-30 18:52:34.8390,0.217,-0.537,-0.365,0.24,-3.58,-0.5,-1.99,2.59,0.45
2022-01-30 18:52:34.8500,0.226,-0.549,-0.418,0.24,-3.58,-0.5,-2.13,2.62,0.6
2022-01-30 18:52:34.8580,0.241,-0.554,-0.462,0.18,-3.19,0.24,-2.16,2.59,0.69
2022-01-30 18:52:34.8680,0.255,-0.554,-0.499,0.18,-3.19,0.24,-2.11,2.53,0.73
2022-01-30 18:52:34.8780,0.276,-0.574,-0.523,-0.03,-3.0,0.75,-2.02,2.45,0.77
2022-01-30 18:52:34.8880,0.309,-0.626,-0.545,-0.26,-2.62,0.86,-1.93,2.38,0.88
2022-01-30 18:52:34.9000,0.344,-0.691,-0.555,-0.58,-1.97,0.95,-1.83,2.32,1.09
2022-01-30 18:52:34.9080,0.386,-0.747,-0.567,-0.9672092834115029,-1.32,0.92,-1.74,2.27,1.38
2022-01-30 18:52:34.9190,0.425,-0.796,-0.595,-1.42,-0.77,1.04,-1.66,2.2,1.67
2022-01-30 18:52:34.9280,0.459,-0.844,-0.642,-1.42,-0.77,1.04,-1.62,2.08,1.92
2022-01-30 18:52:34.9390,0.477,-0.882,-0.715,-2.22,0.22,1.75,-1.62,1.88,2.1
2022-01-30 18:52:34.9490,0.474,-0.888,-0.795,-2.41,0.5,2.42,-1.63,1.58,2.17
2022-01-30 18:52:34.9590,0.462,-0.879,-0.857,-2.41,0.5,2.42,-1.63,1.29,2.13
2022-01-30 18:52:34.9690,0.453,-0.859,-0.9,-2.45,0.43,3.48,-1.62,1.09,2.02
2022-01-30 18:52:34.9790,0.452,-0.837,-0.921,-2.45,0.43,3.48,-1.6,1.09,1.89
2022-01-30 18:52:34.9890,0.464,-0.811,-0.935,-2.59,0.09,3.76,-1.57,1.3,1.81
2022-01-30 18:52:34.9990,0.498,-0.785,-0.942,-2.59,0.09,3.76,-1.52,1.67,1.82
2022-01-30 18:52:35.0080,0.549,-0.763,-0.95,-2.83,-0.12,3.81,-1.46,2.14,1.91
2022-01-30 18:52:35.0180,0.613,-0.764,-0.965,-3.28,-0.34,3.76,-1.41,2.61,2.11
2022-01-30 18:52:35.0290,0.676,-0.776,-0.979,-4.52,-0.32,3.9,-1.35,3.02,2.41
2022-01-30 18:52:35.0390,0.718,-0.781,-1.0,-5.11,-0.2,4.02,-1.27,3.29,2.78
2022-01-30 18:52:35.0490,0.734,-0.777,-1.027,-5.11,-0.2,4.02,-1.16,3.35,3.16
2022-01-30 18:52:35.0590,0.721,-0.764,-1.052,-5.5,-0.17,4.21,-1.02,3.22,3.52
2022-01-30 18:52:35.0690,0.689,-0.732,-1.07,-5.63,-0.23,4.46,-0.83,2.97,3.81
2022-01-30 18:52:35.0790,0.636,-0.69,-1.083,-5.56,-0.43,4.63,-0.62,2.67,4.02
2022-01-30 18:52:35.0890,0.581,-0.65,-1.078,-5.32,-0.83,4.79,-0.38,2.42,4.14
2022-01-30 18:52:35.1000,0.543,-0.62,-1.058,-4.95,-1.26,4.87,-0.15,2.3,4.19
2022-01-30 18:52:35.1090,0.514,-0.585,-1.029,-4.55,-1.96,4.55,0.05,2.33,4.17
2022-01-30 18:52:35.1200,0.486,-0.534,-1.007,-4.55,-1.96,4.55,0.18,2.54,4.15
2022-01-30 18:52:35.1290,0.463,-0.493,-0.999,-4.35,-2.94,4.16,0.19,2.92,4.16
2022-01-30 18:52:35.1400,0.443,-0.459,-1.007,-4.29,-3.3,4.14,0.09,3.38,4.22
2022-01-30 18:52:35.1500,0.43,-0.415,-1.03,-4.29,-3.3,4.14,-0.06,3.81,4.29
2022-01-30 18:52:35.1590,0.423,-0.378,-1.051,-4.25,-4.08,4.49,-0.21,4.17,4.31
2022-01-30 18:52:35.1700,0.416,-0.345,-1.084,-4.25,-4.08,4.49,-0.32,4.41,4.28
2022-01-30 18:52:35.1790,0.407,-0.308,-1.12,-4.29,-4.39,4.69,-0.38,4.51,4.22
2022-01-30 18:52:35.1900,0.408,-0.274,-1.131,-4.28,-4.69,5.03,-0.33,4.52,4.14
2022-01-30 18:52:35.2000,0.427,-0.237,-1.116,-4.42,-5.32,5.24,-0.2,4.52,4.09
2022-01-30 18:52:35.2100,0.451,-0.193,-1.089,-4.71,-5.71,4.99,-0.05,4.56,4.09
2022-01-30 18:52:35.2200,0.467,-0.156,-1.062,-4.96,-6.1,4.73,0.06,4.71,4.17
2022-01-30 18:52:35.2310,0.473,-0.118,-1.049,-4.96,-6.1,4.73,0.08,5.0,4.32
2022-01-30 18:52:35.2400,0.472,-0.076,-1.077,-5.194233691692353,-6.81,4.43,-0.02,5.3,4.46
2022-01-30 18:52:35.2500,0.458,-0.05,-1.121,-5.18,-7.14,4.75,-0.2,5.5,4.53
2022-01-30 18:52:35.2610,0.421,-0.024,-1.178,-5.18,-7.14,4.75,-0.42,5.58,4.49
2022-01-30 18:52:35.2700,0.353,0.014,-1.249,-4.98,-7.31,5.15,-0.61,5.52,4.39
2022-01-30 18:52:35.2790,0.262,0.056,-1.318,-4.52,-7.55,5.69,-0.73,5.36,4.25
2022-01-30 18:52:35.2900,0.173,0.104,-1.352,-3.74,-7.88,6.32,-0.74,5.2,4.14
2022-01-30 18:52:35.3000,0.107,0.16,-1.377,-2.81,-8.23,6.82,-0.66,5.11,4.1
2022-01-30 18:52:35.3090,0.067,0.179,-1.407,-1.99,-8.68,6.96,-0.59,5.06,4.19
2022-01-30 18:52:35.3200,0.048,0.143,-1.438,-1.42,-9.1,7.18,-0.58,5.01,4.41
2022-01-30 18:52:35.3300,0.032,0.088,-1.461,-1.13,-8.99,7.41,-0.65,4.94,4.69
2022-01-30 18:52:35.3400,-0.001,0.05,-1.486,-0.83,-7.87,7.77,-0.65,4.94,4.69
2022-01-30 18:52:35.3480,-0.047,0.024,-1.481,-0.48,-7.49,7.82,-0.78,4.67,5.02
2022-01-30 18:52:35.3590,-0.092,-0.024,-1.467,-0.48,-7.49,7.82,-0.69,4.54,4.98
2022-01-30 18:52:35.3690,-0.136,-0.091,-1.438,0.33,-6.45,7.4,-0.47,4.42,4.86
2022-01-30 18:52:35.3790,-0.176,-0.133,-1.384,0.73,-5.8,6.98,-0.16,4.29,4.71
2022-01-30 18:52:35.3890,-0.195,-0.145,-1.305,0.73,-5.8,6.98,0.16,4.15,4.5
2022-01-30 18:52:35.3990,-0.189,-0.191,-1.189,1.14,-5.34,5.44,0.41,4.06,4.25
2022-01-30 18:52:35.4090,-0.144,-0.286,-1.077,1.14,-5.34,5.44,0.51,4.03,4.0
2022-01-30 18:52:35.4190,-0.082,-0.395,-1.007,0.42,-3.65,3.29,0.41,3.98,3.72
2022-01-30 18:52:35.4290,-0.032,-0.502,-0.952,0.42,-3.65,3.29,0.17,3.9,3.43
2022-01-30 18:52:35.4390,-0.01,-0.591,-0.924,-0.48,-1.53,2.15,-0.14,3.81,3.15
2022-01-30 18:52:35.4490,-0.023,-0.65,-0.934,-0.48,-1.53,2.15,-0.4403637945652008,3.67,2.89
2022-01-30 18:52:35.4590,-0.048,-0.675,-0.958,-0.22,-0.19,2.1,-0.63,3.46,2.66
2022-01-30 18:52:35.4690,-0.068,-0.67,-0.98,-0.22,-0.19,2.1,-0.66,3.18,2.46
2022-01-30 18:52:35.4790,-0.08,-0.658,-0.987,0.07,-0.01,2.26,-0.53,2.83,2.29
2022-01-30 18:52:35.4890,-0.069,-0.658,-0.97,0.3,-0.07,2.41,-0.32,2.46,2.14
2022-01-30 18:52:35.5010,-0.045,-0.668,-0.946,0.39,-0.11,2.34,-0.12,2.08,2.04
2022-01-30 18:52:35.5120,-0.02,-0.685,-0.904,-0.02,0.09,1.82,0.01,1.77,1.97
2022-01-30 18:52:35.5210,0.0,-0.69,-0.868,-0.27,0.23,1.4,0.04,1.54,1.92
2022-01-30 18:52:35.5310,0.017,-0.682,-0.825,-0.46,0.23,1.04,-0.0,1.44,1.86
2022-01-30 18:52:35.5410,0.03,-0.673,-0.784,-0.46,0.23,1.04,-0.09,1.47,1.78
2022-01-30 18:52:35.5510,0.034,-0.658,-0.757,-0.72,0.07,0.21,-0.2,1.6,1.69
2022-01-30 18:52:35.5610,0.023,-0.643,-0.746,-0.72,0.07,0.21,-0.31,1.79,1.63
2022-01-30 18:52:35.5700,0.004,-0.634,-0.784,-0.68,-0.05,-0.04,-0.42,1.92,1.59
2022-01-30 18:52:35.5810,-0.024,-0.625,-0.868,-0.23,-0.17,0.51,-0.52,1.88,1.57
2022-01-30 18:52:35.5910,-0.05,-0.622,-0.937,0.08,-0.22,1.3,-0.57,1.69,1.53
2022-01-30 18:52:35.6020,-0.067,-0.638,-0.979,0.08,-0.22,1.3,-0.52,1.45,1.48
2022-01-30 18:52:35.6110,-0.076,-0.64,-1.008,0.32,-0.13,1.82,-0.37,1.22,1.42
2022-01-30 18:52:35.6210,-0.09,-0.615,-1.001,0.45,0.06,2.16,-0.14,1.08,1.35
2022-01-30 18:52:35.6300,-0.11,-0.586,-0.969,0.55,-0.02,2.32,0.1,1.07,1.28
2022-01-30 18:52:35.6410,-0.134,-0.55,-0.923,0.94,-0.61,1.79,0.33,1.18,1.26
2022-01-30 18:52:35.6510,-0.15,-0.501,-0.86,0.94,-0.61,1.79,0.52,1.39,1.26
2022-01-30 18:52:35.6610,-0.149,-0.459,-0.817,1.18,-1.06,1.3,0.61,1.62,1.23
2022-01-30 18:52:35.6710,-0.147,-0.455,-0.806,1.32,-1.61,0.74,0.58,1.74,1.19
2022-01-30 18:52:35.6800,-0.144,-0.471,-0.823,1.34,-1.92,0.48,0.43,1.72,1.13
2022-01-30 18:52:35.6910,-0.147,-0.495,-0.852,1.41,-1.72,0.76,0.21,1.55,1.0
2022-01-30 18:52:35.7010,-0.162,-0.52,-0.873,1.41,-1.72,0.76,-0.0,1.35,0.8
2022-01-30 18:52:35.7110,-0.18,-0.531,-0.888,1.53,-1.45,1.01,-0.14,1.21,0.55
2022-01-30 18:52:35.7210,-0.204,-0.526,-0.895,1.75,-1.24,1.18,-0.2,1.16,0.26
2022-01-30 18:52:35.7310,-0.213,-0.518,-0.889,2.02,-1.18,1.29,-0.2,1.25,0.01
2022-01-30 18:52:35.7420,-0.204,-0.511,-0.884,2.33,-1.24,1.32,-0.16,1.44,-0.17
2022-01-30 18:52:35.7520,-0.187,-0.494,-0.877,2.46,-1.29,1.21,-0.12,1.67,-0.27
2022-01-30 18:52:35.7620,-0.179,-0.483,-0.885,2.47,-1.38,1.19,-0.07,1.87,-0.28
2022-01-30 18:52:35.7710,-0.188,-0.455,-0.931,2.46,-1.54,1.11,-0.02,1.96,-0.21
2022-01-30 18:52:35.7810,-0.209,-0.402,-1.0,2.61,-1.64,1.35,0.06,1.81,-0.15
2022-01-30 18:52:35.7920,-0.24,-0.375,-1.046,2.89,-2.06,1.94,0.21,1.46,-0.1
2022-01-30 18:52:35.8010,-0.258,-0.397,-1.047,3.26,-2.56,2.62,0.42,1.01,-0.03
2022-01-30 18:52:35.8110,-0.227,-0.455,-1.019,3.63,-2.66,2.94,0.64,0.58,0.02
2022-01-30 18:52:35.8220,-0.175,-0.549,-0.979,3.69,-2.36,2.87,0.75,0.25,-0.03
2022-01-30 18:52:35.8320,-0.137,-0.649,-0.942,3.27,-1.7,2.57,0.66,0.06,-0.13
2022-01-30 18:52:35.8410,-0.125,-0.729,-0.908,2.81,-0.75,2.23,0.38,0.1,-0.3
2022-01-30 18:52:35.8520,-0.152,-0.771,-0.9,2.54,0.15,1.91,0.02,0.35,-0.48
2022-01-30 18:52:35.8620,-0.212,-0.738,-0.934,3.12,1.02,1.73,-0.31,0.71,-0.64
2022-01-30 18:52:35.8720,-0.268,-0.683,-0.963,3.12,1.02,1.73,-0.5,1.1,-0.72
2022-01-30 18:52:35.8810,-0.301,-0.665,-0.981,3.86,0.56,2.05,-0.46,1.44,-0.67
2022-01-30 18:52:35.8920,-0.3,-0.69,-0.974,4.48,0.17,2.3,-0.21,1.68,-0.46
2022-01-30 18:52:35.9020,-0.27,-0.734,-0.968,4.83,0.18,2.4,0.18,1.75,-0.14
2022-01-30 18:52:35.9120,-0.226,-0.778,-0.955,4.85,0.53,2.35,0.58,1.63,0.15
2022-01-30 18:52:35.9220,-0.2,-0.797,-0.935,4.57,0.93,2.37,0.87,1.35,0.33
2022-01-30 18:52:35.9320,-0.184,-0.802,-0.905,4.26,1.25,2.26,0.96,0.97,0.35
2022-01-30 18:52:35.9420,-0.169,-0.832,-0.834,4.1,1.23,2.17,0.88,0.64,0.27
2022-01-30 18:52:35.9520,-0.157,-0.85,-0.766,3.86,1.56,1.1,0.69,0.41,0.18
2022-01-30 18:52:35.9620,-0.153,-0.835,-0.714,3.86,1.56,1.1,0.46,0.3,0.1
2022-01-30 18:52:35.9710,-0.167,-0.799,-0.699,3.78,1.59,0.51,0.22,0.24,0.05
2022-01-30 18:52:35.9820,-0.179,-0.771,-0.682,3.81,1.33,0.17,0.02,0.24,0.05
2022-01-30 18:52:35.9920,-0.187,-0.743,-0.677,3.98,0.96,0.05,-0.09,0.28,0.07
2022-01-30 18:52:36.0020,-0.2,-0.684,-0.678,4.2,0.35,-0.1,-0.13,0.29,0.07
2022-01-30 18:52:36.0120,-0.202,-0.654,-0.658,4.2,0.35,-0.1,-0.14,0.33,0.07
2022-01-30 18:52:36.0220,-0.191,-0.658,-0.638,4.32,-0.19,-0.15,-0.13,0.41,0.08
2022-01-30 18:52:36.0320,-0.177,-0.665,-0.639,4.31,-0.31,-0.39,-0.14,0.51,0.1
2022-01-30 18:52:36.0430,-0.166,-0.673,-0.652,4.09,-0.14,-0.47,-0.19,0.58,0.12
2022-01-30 18:52:36.0530,-0.174,-0.679,-0.688,4.09,-0.14,-0.47,-0.28,0.57,0.14
2022-01-30 18:52:36.0630,-0.195,-0.682,-0.729,4.08,-0.05,-0.25,-0.36,0.47,0.2
2022-01-30 18:52:36.0720,-0.227,-0.678,-0.784,4.47,0.05,0.54,-0.38,0.24,0.32
2022-01-30 18:52:36.0840,-0.266,-0.657,-0.839,4.78,-0.04,1.09,-0.33,-0.1,0.45
2022-01-30 18:52:36.0930,-0.304,-0.617,-0.878,4.78,-0.04,1.09,-0.2,-0.46,0.54
2022-01-30 18:52:36.1030,-0.337,-0.567,-0.887,5.37,-0.77,1.83,-0.03,-0.76,0.56
2022-01-30 18:52:36.1130,-0.358,-0.536,-0.863,5.57,-1.26,1.75,0.11,-0.9,0.51
2022-01-30 18:52:36.1220,-0.36,-0.55,-0.853,5.57,-1.26,1.75,0.16,-0.9,0.44
2022-01-30 18:52:36.1320,-0.354,-0.572,-0.855,5.61,-1.4,1.49,0.11,-0.86,0.38
2022-01-30 18:52:36.1420,-0.345,-0.567,-0.85,5.35,-1.07,1.45,0.03,-0.78,0.35
2022-01-30 18:52:36.1530,-0.336,-0.54,-0.843,5.19,-1.23,1.39,-0.0,-0.7,0.31
2022-01-30 18:52:36.1630,-0.337,-0.518,-0.829,5.19,-1.23,1.39,0.01,-0.64,0.3
2022-01-30 18:52:36.1730,-0.352,-0.498,-0.851,5.05,-1.5,1.26,0.03,-0.65,0.32
2022-01-30 18:52:36.1820,-0.359,-0.515,-0.871,5.05,-1.71,1.22,0.03,-0.8,0.34
2022-01-30 18:52:36.1930,-0.343,-0.56,-0.894,5.01,-1.51,1.62,0.04,-1.06,0.34
2022-01-30 18:52:36.2030,-0.306,-0.574,-0.928,4.66,-1.13,1.89,0.02,-1.45,0.26
2022-01-30 18:52:36.2130,-0.261,-0.57,-0.966,4.66,-1.13,1.89,-0.05,-1.9,0.02
2022-01-30 18:52:36.2220,-0.227,-0.563,-1.003,4.11,-1.11,2.579112684130669,-0.12,-2.34,-0.39
2022-01-30 18:52:36.2330,-0.214,-0.543,-0.976,3.55,-1.13,2.57,-0.2,-2.6,-0.9
2022-01-30 18:52:36.2430,-0.214,-0.52,-0.966,3.16,-1.22,2.7,-0.36,-2.63,-1.39
2022-01-30 18:52:36.2530,-0.209,-0.508,-0.99,3.01,-1.4,2.31,-0.6,-2.51,-1.72
2022-01-30 18:52:36.2630,-0.194,-0.504,-1.025,2.95,-1.55,2.32,-0.82,-2.27,-1.88
2022-01-30 18:52:36.2730,-0.177,-0.506,-1.084,2.63,-1.48,2.86,-0.87,-1.96,-1.86
2022-01-30 18:52:36.2830,-0.143,-0.505,-1.151,2.63,-1.48,2.86,-0.65,-1.71,-1.76
2022-01-30 18:52:36.2930,-0.091,-0.51,-1.199,1.98,-1.38,4.04,-0.2,-1.62,-1.7
2022-01-30 18:52:36.3030,-0.036,-0.528,-1.221,1.43,-1.31,4.43,0.35,-1.71,-1.71
2022-01-30 18:52:36.3130,0.028,-0.558,-1.218,1.43,-1.31,4.43,0.84,-1.98,-1.8
2022-01-30 18:52:36.3230,0.101,-0.574,-1.191,0.83,-1.12,4.57,1.25,-2.42,-1.94
2022-01-30 18:52:36.3330,0.188,-0.586,-1.167,0.11,-0.92,4.55,1.57,-3.03,-2.08
2022-01-30 18:52:36.3430,0.268,-0.64,-1.176,-1.76,-0.81,4.34,1.78,-3.84,-2.12
2022-01-30 18:52:36.3540,0.303,-0.708,-1.152,-1.76,-0.81,4.34,1.87,-4.66,-1.97
2022-01-30 18:52:36.3630,0.282,-0.694,-1.17,-2.6,-0.25,4.41,1.82,-5.39,-1.72
2022-01-30 18:52:36.3730,0.23,-0.623,-1.209,-2.94,-0.5,4.81,1.63,-5.98,-1.55
2022-01-30 18:52:36.3830,0.169,-0.566,-1.235,-2.94,-0.5,4.81,1.37,-6.34,-1.55
2022-01-30 18:52:36.3930,0.097,-0.512,-1.243,-2.7,-1.28,5.29,1.09,-6.41,-1.72
2022-01-30 18:52:36.4030,0.03,-0.449,-1.245,-2.35,-1.89,5.6,0.81,-6.24,-2.04
2022-01-30 18:52:36.4140,-0.024,-0.381,-1.247,-1.91,-2.52,5.79,0.55,-5.91,-2.46
2022-01-30 18:52:36.4240,-0.045,-0.324,-1.218,-1.18,-3.95,6.0,0.36,-5.47,-2.93
2022-01-30 18:52:36.4340,-0.018,-0.289,-1.134,-1.18,-3.95,6.0,0.27,-4.88,-3.38
2022-01-30 18:52:36.4430,0.046,-0.29,-1.123,-1.19,-4.49,5.52,0.2,-4.31,-3.77
2022-01-30 18:52:36.4540,0.125,-0.33,-1.119,-1.59,-4.81,4.97,0.1,-3.91,-4.03
2022-01-30 18:52:36.4640,0.198,-0.362,-1.127,-2.23,-4.68,5.08,0.01,-3.68,-4.16
2022-01-30 18:52:36.4740,0.258,-0.385,-1.184,-2.9,-4.34,5.04,-0.03,-3.79,-4.17
2022-01-30 18:52:36.4840,0.308,-0.402,-1.237,-3.95,-3.97,6.03,0.02,-4.2,-4.11
2022-01-30 18:52:36.4940,0.338,-0.395,-1.288,-3.95,-3.97,6.03,0.15,-4.81,-4.0
2022-01-30 18:52:36.5040,0.347,-0.376,-1.327,-4.57,-4.14,7.16,0.28,-5.5,-3.88
2022-01-30 18:52:36.5140,0.332,-0.363,-1.342,-4.57,-4.14,7.16,0.37,-6.14,-3.78
2022-01-30 18:52:36.5240,0.308,-0.343,-1.333,-4.61,-4.36,7.56,0.39,-6.56,-3.69
2022-01-30 18:52:36.5340,0.291,-0.324,-1.344,-4.46,-4.58,7.71,0.38,-6.79,-3.62
2022-01-30 18:52:36.5440,0.273,-0.287,-1.329,-4.32,-4.85,7.77,0.38,-6.82,-3.56
2022-01-30 18:52:36.5540,0.253,-0.244,-1.31,-4.1,-5.63,7.86,0.39,-6.63,-3.49
2022-01-30 18:52:36.5640,0.235,-0.225,-1.306,-3.92,-6.06,7.92,0.4,-6.33,-3.42
2022-01-30 18:52:36.5740,0.246,-0.222,-1.282,-3.92,-6.06,7.92,0.39,-6.0,-3.41
2022-01-30 18:52:36.5840,0.27,-0.231,-1.269,-3.84,-6.24,7.92,0.34,-5.75,-3.48
2022-01-30 18:52:36.5940,0.29,-0.254,-1.255,-4.02,-6.3,7.82,0.21,-5.62,-3.6
2022-01-30 18:52:36.6040,0.311,-0.265,-1.27,-4.19,-6.2,7.81,0.04,-5.6,-3.74
2022-01-30 18:52:36.6140,0.335,-0.262,-1.313,-4.31,-6.05,8.171541761755943,-0.11,-5.78,-3.9
2022-01-30 18:52:36.6240,0.355,-0.243,-1.345,-4.46,-6.05,8.17,-0.19,-6.08,-4.03
2022-01-30 18:52:36.6340,0.376,-0.205,-1.362,-4.61,-6.18,8.63,-0.19,-6.41,-4.09
2022-01-30 18:52:36.6440,0.409,-0.168,-1.357,-4.89,-6.91,9.1,-0.13,-6.69,-4.09
2022-01-30 18:52:36.6550,0.445,-0.145,-1.339,-4.89,-6.91,9.1,-0.04,-6.84,-4.04
2022-01-30 18:52:36.6640,0.457,-0.138,-1.325,-5.18,-7.28,9.06,-0.01,-6.84,-3.97
2022-01-30 18:52:36.6740,0.45,-0.134,-1.303,-5.41,-7.46,8.94,-0.06,-6.66,-3.89
2022-01-30 18:52:36.6840,0.453,-0.142,-1.27,-5.35,-7.55,8.87,-0.18,-6.31,-3.83
2022-01-30 18:52:36.6940,0.46,-0.166,-1.265,-5.18,-7.46,8.37,-0.28,-5.91,-3.82
2022-01-30 18:52:36.7050,0.469,-0.193,-1.309,-5.18,-7.46,8.37,-0.33,-5.71,-3.8
2022-01-30 18:52:36.7150,0.497,-0.231,-1.353,-5.14,-7.21,8.51,-0.29,-5.77,-3.75
2022-01-30 18:52:36.7240,0.531,-0.272,-1.372,-5.17,-6.93,9.02,-0.16,-6.03,-3.64
2022-01-30 18:52:36.7340,0.555,-0.291,-1.353,-5.42,-6.53,9.39,-0.02,-6.33,-3.49
2022-01-30 18:52:36.7440,0.559,-0.281,-1.313,-5.81,-6.14,9.19,0.04,-6.56,-3.35
2022-01-30 18:52:36.7550,0.537,-0.276,-1.243,-5.69,-6.28,8.72,-0.04,-6.57,-3.24
2022-01-30 18:52:36.7650,0.513,-0.306,-1.145,-5.43,-6.2,7.9,-0.18,-6.22,-3.14
2022-01-30 18:52:36.7750,0.494,-0.348,-1.063,-5.43,-6.2,7.9,-0.32,-5.56,-3.0
2022-01-30 18:52:36.7850,0.482,-0.379,-1.013,-5.13,-5.81,6.93,-0.32,-5.56,-3.0
2022-01-30 18:52:36.7950,0.471,-0.401,-0.988,-4.93,-5.42,6.22,-0.47,-4.09,-2.71
2022-01-30 18:52:36.8050,0.452,-0.432,-1.033,-4.74,-5.14,5.77,-0.57,-3.66,-2.63
2022-01-30 18:52:36.8150,0.435,-0.514,-1.082,-4.52,-4.91,5.67,-0.72,-3.57,-2.58
2022-01-30 18:52:36.8250,0.436,-0.583,-1.057,-4.24,-4.4,6.23,-0.79,-3.59,-2.54
2022-01-30 18:52:36.8350,0.46,-0.604,-1.005,-4.05,-3.49,6.36,-0.75,-3.62,-2.54
2022-01-30 18:52:36.8460,0.51,-0.634,-0.94,-4.07,-2.99,5.87,-0.62,-3.63,-2.55
2022-01-30 18:52:36.8550,0.549,-0.657,-0.86,-4.36,-2.77,5.28,-0.48,-3.59,-2.53
2022-01-30 18:52:36.8650,0.572,-0.665,-0.782,-4.78,-2.41,4.49,-0.44,-3.47,-2.47
2022-01-30 18:52:36.8750,0.582,-0.675,-0.703,-5.03,-2.25,3.67,-0.48,-3.28,-2.37
2022-01-30 18:52:36.8850,0.589,-0.682,-0.658,-5.15,-2.12,2.82,-0.58,-3.07,-2.22
2022-01-30 18:52:36.8950,0.591,-0.7,-0.646,-5.17,-1.99,2.06,-0.73,-2.91,-2.06
2022-01-30 18:52:36.9050,0.588,-0.73,-0.66,-5.19,-1.85,1.69,-0.88,-2.85,-1.89
2022-01-30 18:52:36.9150,0.573,-0.762,-0.688,-5.16,-1.58,1.57,-1.01,-2.86,-1.7
2022-01-30 18:52:36.9250,0.539,-0.78,-0.719,-4.9,-0.85,1.87,-1.05,-2.92,-1.51
2022-01-30 18:52:36.9350,0.494,-0.775,-0.733,-4.9,-0.85,1.87,-0.99,-2.94,-1.32
2022-01-30 18:52:36.9460,0.444,-0.766,-0.718,-4.13,-0.74,1.97,-0.87,-2.87,-1.16
2022-01-30 18:52:36.9560,0.398,-0.759,-0.688,-4.13,-0.74,1.97,-0.73,-2.68,-1.02
2022-01-30 18:52:36.9650,0.359,-0.749,-0.656,-3.71,-0.78,1.67,-0.61,-2.41,-0.92
2022-01-30 18:52:36.9750,0.333,-0.741,-0.622,-3.34,-0.81,1.29,-0.55,-2.12,-0.87
2022-01-30 18:52:36.9860,0.317,-0.743,-0.596,-2.86,-0.89,0.54,-0.56,-1.85,-0.86
2022-01-30 18:52:36.9960,0.304,-0.751,-0.587,-2.86,-0.89,0.54,-0.64,-1.67,-0.87
2022-01-30 18:52:37.0050,0.293,-0.763,-0.58,-2.74,-0.81,0.29,-0.77,-1.57,-0.89
2022-01-30 18:52:37.0160,0.276,-0.771,-0.586,-2.64,-0.66,0.16,-0.92,-1.53,-0.92
2022-01-30 18:52:37.0260,0.255,-0.772,-0.595,-2.52,-0.49,0.04,-1.06,-1.53,-0.97
2022-01-30 18:52:37.0350,0.23,-0.771,-0.595,-2.35,-0.39,0.05,-1.16,-1.49,-1.01
2022-01-30 18:52:37.0460,0.211,-0.769,-0.589,-2.14,-0.31,0.0,-1.21,-1.42,-1.05
2022-01-30 18:52:37.0560,0.209,-0.768,-0.586,-1.89,-0.25,-0.13,-1.2,-1.31,-1.08
2022-01-30 18:52:37.0660,0.213,-0.765,-0.592,-1.77,-0.2,-0.28,-1.18,-1.22,-1.1
2022-01-30 18:52:37.0760,0.211,-0.749,-0.6,-1.78,-0.12,-0.38,-1.16,-1.17,-1.11
2022-01-30 18:52:37.0850,0.204,-0.735,-0.602,-1.73,-0.21,-0.42,-1.16,-1.13,-1.11
2022-01-30 18:52:37.0960,0.203,-0.741,-0.59,-1.73,-0.21,-0.42,-1.17,-1.07,-1.09
2022-01-30 18:52:37.1060,0.213,-0.76,-0.574,-1.66,-0.23,-0.53,-1.18,-0.96,-1.04
2022-01-30 18:52:37.1160,0.232,-0.769,-0.583,-1.69,0.01,-0.81,-1.18,-0.86,-0.98
2022-01-30 18:52:37.1260,0.264,-0.785,-0.598,-2.02,0.41,-0.91,-1.18,-0.82,-0.92
2022-01-30 18:52:37.1360,0.285,-0.804,-0.611,-2.33,0.68,-0.86,-1.16,-0.84,-0.83
2022-01-30 18:52:37.1470,0.284,-0.811,-0.616,-2.33,0.68,-0.86,-1.12,-0.88,-0.67
2022-01-30 18:52:37.1560,0.266,-0.81,-0.611,-2.46,0.92,-0.83,-1.06,-0.9,-0.47
2022-01-30 18:52:37.1660,0.237,-0.819,-0.614,-2.41,1.02,-0.91,-1.0,-0.91,-0.22
2022-01-30 18:52:37.1760,0.208,-0.836,-0.651,-2.23,1.1,-1.04,-0.99,-0.95,0.05
2022-01-30 18:52:37.1860,0.188,-0.851,-0.692,-1.85,1.53,-0.61,-0.99,-1.06,0.28
2022-01-30 18:52:37.1970,0.172,-0.876,-0.735,-1.85,1.53,-0.61,-1.02,-1.21,0.44
2022-01-30 18:52:37.2060,0.16,-0.911,-0.775,-1.79,1.78,-0.28,-1.04,-1.36,0.53
2022-01-30 18:52:37.2160,0.138,-0.931,-0.79,-1.79,2.14,0.08,-0.97,-1.45,0.6
2022-01-30 18:52:37.2260,0.105,-0.932,-0.791,-1.79,2.54,0.34,-0.81,-1.45,0.66
2022-01-30 18:52:37.2360,0.065,-0.922,-0.771,-1.47,2.72,0.29,-0.57,-1.35,0.74
2022-01-30 18:52:37.2470,0.038,-0.924,-0.717,-1.47,2.72,0.29,-0.32,-1.12,0.81
2022-01-30 18:52:37.2570,0.035,-0.955,-0.67,-1.24,2.67,-0.05,-0.11,-0.81,0.9
2022-01-30 18:52:37.2660,0.047,-0.999,-0.655,-1.17,2.81,-0.63,-0.03,-0.55,0.93
2022-01-30 18:52:37.2760,0.054,-1.031,-0.658,-1.33,3.21,-0.96,-0.03,-0.55,0.93
2022-01-30 18:52:37.2860,0.059,-1.056,-0.68,-1.65,3.93,-0.96,-0.27,-0.35,0.73
2022-01-30 18:52:37.2970,0.057,-1.079,-0.716,-1.65,3.93,-0.6820993405580521,-0.49,-0.45,0.47
2022-01-30 18:52:37.3070,0.043,-1.074,-0.744,-1.74,4.22,-0.69,-0.7,-0.63,0.14
2022-01-30 18:52:37.3160,0.013,-1.027,-0.755,-1.74,4.44,-0.4,-0.84,-0.8,-0.2
2022-01-30 18:52:37.3270,-0.023,-0.966,-0.732,-1.6,4.28,-0.2,-0.89,-0.85,-0.47
2022-01-30 18:52:37.3370,-0.04,-0.918,-0.699,-1.02,3.28,-0.59,-0.85,-0.77,-0.67
2022-01-30 18:52:37.3470,-0.043,-0.897,-0.649,-1.02,3.28,-0.59,-0.74,-0.56,-0.76
2022-01-30 18:52:37.3570,-0.029,-0.904,-0.598,-0.9,2.95,-0.99,-0.74,-0.56,-0.76
2022-01-30 18:52:37.3670,0.001,-0.932,-0.579,-0.9,2.88,-1.58,-0.55,0.09,-0.73
2022-01-30 18:52:37.3770,0.045,-0.966,-0.593,-1.05,3.08,-2.01,-0.56,0.33,-0.77
2022-01-30 18:52:37.3870,0.076,-0.989,-0.633,-1.67,3.78,-1.89,-0.62,0.38,-0.9
2022-01-30 18:52:37.3980,0.099,-0.998,-0.669,-1.67,3.78,-1.89,-0.62,0.38,-0.9
2022-01-30 18:52:37.4070,0.118,-1.001,-0.705,-1.84,4.0,-1.2310885709524155,-0.72,0.1,-1.34
2022-01-30 18:52:37.4170,0.126,-0.995,-0.735,-1.97,4.09,-1.24,-0.67,-0.11,-1.56
2022-01-30 18:52:37.4270,0.122,-0.968,-0.751,-2.05,4.15,-0.94,-0.57,-0.29,-1.72
2022-01-30 18:52:37.4460,0.117,-0.933,-0.76,-1.87,3.75,-0.63,-0.43,-0.39,-1.82
2022-01-30 18:52:37.4470,0.102,-0.903,-0.766,-1.87,3.75,-0.63,-0.29,-0.44,-1.86
2022-01-30 18:52:37.4570,0.086,-0.866,-0.78,-1.73,3.44,-0.56,-0.13,-0.44,-1.85
2022-01-30 18:52:37.4660,0.069,-0.83,-0.789,-1.5,3.14,-0.5,0.03,-0.39,-1.8
2022-01-30 18:52:37.4760,0.057,-0.812,-0.795,-1.27,2.74,-0.34,0.19,-0.31,-1.75
2022-01-30 18:52:37.4860,0.045,-0.81,-0.811,-1.05,2.43,-0.27,0.35,-0.22,-1.68
2022-01-30 18:52:37.4960,0.04,-0.817,-0.834,-0.85,2.28,-0.17,0.5,-0.16,-1.6
2022-01-30 18:52:37.5060,0.04,-0.817,-0.858,-0.68,2.26,0.05,0.63,-0.16,-1.53
2022-01-30 18:52:37.5170,0.04,-0.815,-0.87,-0.58,2.27,0.32,0.77,-0.19,-1.48
2022-01-30 18:52:37.5270,0.042,-0.818,-0.866,-0.51,2.18,0.58,0.88,-0.23,-1.46
2022-01-30 18:52:37.5360,0.045,-0.832,-0.855,-0.45,2.1,0.68,0.95,-0.22,-1.44
2022-01-30 18:52:37.5470,0.052,-0.839,-0.847,-0.4,2.11,0.66,0.96,-0.19,-1.45
2022-01-30 18:52:37.5580,0.058,-0.833,-0.83,-0.38,2.17,0.61,0.92,-0.12,-1.49
2022-01-30 18:52:37.5680,0.077,-0.832,-0.81,-0.36,2.11,0.57,0.86,-0.01,-1.53
2022-01-30 18:52:37.5780,0.104,-0.841,-0.794,-0.35,2.0,0.43,0.81,0.08,-1.56
2022-01-30 18:52:37.5870,0.134,-0.849,-0.782,-0.65,2.01,0.21,0.75,0.16,-1.53
2022-01-30 18:52:37.5980,0.178,-0.865,-0.78,-0.65,2.01,0.21,0.68,0.2,-1.47
2022-01-30 18:52:37.6080,0.22,-0.885,-0.782,-0.89,2.06,0.15,0.59,0.2,-1.39
2022-01-30 18:52:37.6170,0.255,-0.897,-0.785,-1.22,2.21,0.21,0.48,0.2,-1.32
2022-01-30 18:52:37.6280,0.283,-0.9,-0.788,-1.52,2.37,0.25,0.39,0.21,-1.26
2022-01-30 18:52:37.6380,0.311,-0.882,-0.787,-1.91,2.38,0.36,0.39,0.26,-1.22
2022-01-30 18:52:37.6490,0.336,-0.847,-0.777,-1.91,2.38,0.36,0.51,0.32,-1.19
2022-01-30 18:52:37.6580,0.358,-0.813,-0.748,-2.2,1.71,0.25,0.75,0.43,-1.12
2022-01-30 18:52:37.6680,0.38,-0.785,-0.723,-2.2,1.71,0.25,1.01,0.53,-0.96
2022-01-30 18:52:37.6780,0.406,-0.767,-0.699,-2.31,1.33,0.01,1.23,0.62,-0.72
2022-01-30 18:52:37.6880,0.439,-0.765,-0.672,-2.66,0.81,-0.29,1.36,0.69,-0.39
2022-01-30 18:52:37.6990,0.466,-0.763,-0.664,-2.66,0.81,-0.29,1.43,0.73,-0.03
2022-01-30 18:52:37.7080,0.492,-0.758,-0.651,-2.92,0.7,-0.36,1.45,0.78,0.33
2022-01-30 18:52:37.7180,0.516,-0.751,-0.659,-3.14,0.56,-0.35,1.47,0.82,0.65
2022-01-30 18:52:37.7290,0.533,-0.737,-0.677,-3.61,0.21,-0.04,1.47,0.82,0.91
2022-01-30 18:52:37.7380,0.533,-0.712,-0.676,-3.7483850759267807,-0.08469282567501069,0.19,1.44,0.82,1.09
2022-01-30 18:52:37.7490,0.516,-0.687,-0.68,-3.75,-0.09,0.19,1.4,0.85,1.2
2022-01-30 18:52:37.7580,0.485,-0.657,-0.685,-3.72,-0.44,0.28,1.33,0.91,1.26
2022-01-30 18:52:37.7680,0.45,-0.624,-0.681,-3.53,-0.81,0.46,1.24,1.05,1.27
2022-01-30 18:52:37.7780,0.418,-0.596,-0.681,-3.23,-1.2,0.58,1.14,1.22,1.26
2022-01-30 18:52:37.7880,0.386,-0.579,-0.684,-2.92,-1.62,0.64,1.02,1.41,1.28
2022-01-30 18:52:37.7990,0.357,-0.559,-0.682,-2.61,-1.92,0.76,0.87,1.62,1.31
2022-01-30 18:52:37.8080,0.327,-0.54,-0.677,-2.32,-2.15,0.86,0.73,1.87,1.36
2022-01-30 18:52:37.8180,0.301,-0.524,-0.679,-1.74,-2.65,0.95,0.6,2.12,1.43
2022-01-30 18:52:37.8280,0.28,-0.512,-0.674,-1.48,-2.83,1.03,0.47,2.37,1.49
2022-01-30 18:52:37.8390,0.265,-0.5,-0.662,-1.28,-2.99,1.01,0.36,2.61,1.55
2022-01-30 18:52:37.8490,0.25,-0.485,-0.652,-1.28,-2.99,1.01,0.36,2.61,1.55
2022-01-30 18:52:37.8580,0.234,-0.476,-0.637,-1.11,-3.16,0.96,0.18,2.98,1.61
2022-01-30 18:52:37.8680,0.208,-0.468,-0.621,-0.71,-3.42,0.8,0.1,3.1,1.67
2022-01-30 18:52:37.8790,0.18,-0.452,-0.604,-0.71,-3.42,0.8,0.03,3.17,1.77
2022-01-30 18:52:37.8890,0.161,-0.439,-0.58,-0.4,-3.56,0.69,-0.04,3.2,1.88
2022-01-30 18:52:37.8990,0.148,-0.438,-0.558,-0.14,-3.75,0.55,-0.09,3.21,2.0
2022-01-30 18:52:37.9090,0.136,-0.451,-0.542,0.03,-3.87,0.35,-0.16,3.2,2.13
2022-01-30 18:52:37.9190,0.122,-0.465,-0.54,0.14,-3.84,0.19,-0.23,3.17,2.25
2022-01-30 18:52:37.9290,0.101,-0.46,-0.559,0.36,-3.64,0.18,-0.33,3.08,2.33
2022-01-30 18:52:37.9380,0.063,-0.448,-0.579,0.59,-3.75,0.41,-0.44,2.93,2.36
2022-01-30 18:52:37.9490,0.02,-0.443,-0.581,0.59,-3.75,0.41,-0.54,2.8,2.36
2022-01-30 18:52:37.9590,-0.024,-0.441,-0.582,0.93,-3.87,0.54,-0.62,2.69,2.35
2022-01-30 18:52:37.9690,-0.064,-0.431,-0.589,1.32,-3.89,0.51,-0.68,2.61,2.35
2022-01-30 18:52:37.9790,-0.092,-0.426,-0.575,1.68,-3.92,0.53,-0.73,2.57,2.34
2022-01-30 18:52:37.9890,-0.102,-0.444,-0.554,1.98,-4.03,0.52,-0.79,2.59,2.33
2022-01-30 18:52:37.9990,-0.09,-0.466,-0.554,2.13,-3.97,0.29,-0.87,2.61,2.31
2022-01-30 18:52:38.0090,-0.079,-0.494,-0.576,1.9,-3.48,0.14,-1.01,2.58,2.27
2022-01-30 18:52:38.0190,-0.083,-0.522,-0.601,1.9,-3.48,0.14,-1.22,2.5,2.23
2022-01-30 18:52:38.0290,-0.099,-0.543,-0.636,1.8,-3.15,0.29,-1.49,2.37,2.18
2022-01-30 18:52:38.0390,-0.126,-0.566,-0.677,1.83,-2.84,0.48,-1.78,2.24,2.12
2022-01-30 18:52:38.0490,-0.159,-0.573,-0.734,1.99,-2.56,0.71,-2.03,2.09,2.03
2022-01-30 18:52:38.0590,-0.187,-0.563,-0.797,2.24,-2.25,1.03,-2.18,1.93,1.9
2022-01-30 18:52:38.0690,-0.194,-0.559,-0.875,2.53,-2.16,1.46,-2.19,1.72,1.72
2022-01-30 18:52:38.0790,-0.18,-0.572,-0.967,2.72,-2.14,2.6789918982982637,-2.08,1.43,1.54
2022-01-30 18:52:38.0890,-0.161,-0.592,-1.044,2.66,-2.0,2.67,-1.86,1.05,1.41
2022-01-30 18:52:38.1000,-0.147,-0.602,-1.109,2.45,-1.73,3.39,-1.53,0.63,1.36
2022-01-30 18:52:38.1090,-0.138,-0.602,-1.147,2.21,-1.46,4.0,-1.13,0.18,1.38
2022-01-30 18:52:38.1190,-0.141,-0.599,-1.156,2.01,-1.35,4.47,-0.67,-0.24,1.47
2022-01-30 18:52:38.1290,-0.163,-0.575,-1.14,1.83,-1.31,4.69,-0.19,-0.59,1.6
2022-01-30 18:52:38.1390,-0.199,-0.535,-1.109,1.87,-1.73,4.45,0.24,-0.88,1.71
2022-01-30 18:52:38.1500,-0.236,-0.512,-1.075,1.87,-1.73,4.45,0.55,-1.07,1.74
2022-01-30 18:52:38.1590,-0.271,-0.516,-1.044,2.03,-2.14,4.15,0.71,-1.19,1.67
2022-01-30 18:52:38.1690,-0.298,-0.519,-1.01,2.33,-2.27,3.61,0.77,-1.22,1.49
2022-01-30 18:52:38.1790,-0.314,-0.523,-0.978,2.33,-2.27,3.61,0.74,-1.19,1.21
2022-01-30 18:52:38.1900,-0.321,-0.537,-0.936,2.38,-2.3,3.37,0.63,-1.08,0.86
2022-01-30 18:52:38.2000,-0.32,-0.55,-0.903,2.38,-2.25,3.06,0.46,-0.88,0.47
2022-01-30 18:52:38.2090,-0.317,-0.556,-0.869,2.32,-2.13,2.7,0.25,-0.62,0.1
2022-01-30 18:52:38.2200,-0.315,-0.543,-0.829,2.24,-2.04,2.43,0.04,-0.3,-0.23
2022-01-30 18:52:38.2300,-0.308,-0.517,-0.795,2.22,-2.04,2.07,-0.14,0.05,-0.47
2022-01-30 18:52:38.2400,-0.287,-0.501,-0.771,2.23,-2.23,1.67,-0.25,0.39,-0.64
2022-01-30 18:52:38.2490,-0.256,-0.496,-0.764,2.18,-2.45,1.35,-0.3,0.64,-0.73
2022-01-30 18:52:38.2590,-0.223,-0.498,-0.755,1.82,-2.55,1.07,-0.31,0.78,-0.76
2022-01-30 18:52:38.2700,-0.187,-0.505,-0.746,1.5876702001690866,-2.5,0.93,-0.3,0.82,-0.76
2022-01-30 18:52:38.2800,-0.155,-0.521,-0.748,1.34,-2.39,0.86,-0.28,0.76,-0.74
2022-01-30 18:52:38.2900,-0.13,-0.538,-0.752,1.34,-2.39,0.86,-0.25,0.59,-0.71
2022-01-30 18:52:38.3000,-0.105,-0.549,-0.761,1.14,-2.2,0.87,-0.22,0.3,-0.69
2022-01-30 18:52:38.3110,-0.079,-0.557,-0.774,0.77,-1.93,1.0,-0.18,-0.07,-0.68
2022-01-30 18:52:38.3200,-0.055,-0.568,-0.783,0.54,-1.84,1.12,-0.15,-0.49,-0.69
2022-01-30 18:52:38.3300,-0.038,-0.576,-0.782,0.54,-1.84,1.12,-0.16,-0.88,-0.73
2022-01-30 18:52:38.3400,-0.032,-0.576,-0.773,0.31,-1.72,1.15,-0.22,-1.18,-0.78
2022-01-30 18:52:38.3500,-0.025,-0.58,-0.766,0.1,-1.63,0.97,-0.33,-1.36,-0.85
2022-01-30 18:52:38.3610,-0.017,-0.589,-0.762,0.1,-1.63,0.97,-0.47,-1.39,-0.92
2022-01-30 18:52:38.3710,-0.007,-0.599,-0.762,0.0,-1.53,0.8222606080770493,-0.6,-1.29,-0.98
2022-01-30 18:52:38.3800,0.007,-0.613,-0.776,-0.11,-1.41,0.82,-0.72,-1.09,-1.02
2022-01-30 18:52:38.3900,0.02,-0.628,-0.807,-0.21,-1.24,0.8,-0.77,-0.85,-1.0
2022-01-30 18:52:38.4000,0.04,-0.656,-0.824,-0.34,-1.06,0.98,-0.73,-0.58,-0.94
2022-01-30 18:52:38.4110,0.062,-0.705,-0.845,-0.45,-0.83,1.18,-0.61,-0.33,-0.81
2022-01-30 18:52:38.4200,0.08,-0.769,-0.868,-0.81,0.13,1.5,-0.42,-0.14,-0.63
2022-01-30 18:52:38.4310,0.09,-0.835,-0.897,-0.81,0.13,1.5,-0.42,-0.14,-0.63
2022-01-30 18:52:38.4410,0.091,-0.885,-0.948,-0.94,0.81,1.71,0.04,-0.08,-0.28
2022-01-30 18:52:38.4510,0.098,-0.925,-0.987,-1.0,1.83,2.61,0.3,-0.32,-0.16
2022-01-30 18:52:38.4610,0.112,-0.959,-0.994,-1.0,1.83,2.61,0.59,-0.66,-0.1
2022-01-30 18:52:38.4710,0.131,-0.996,-0.984,-1.15,2.15,2.9,0.86,-1.04,-0.09
2022-01-30 18:52:38.4810,0.156,-1.026,-0.968,-1.36,2.43,2.96,1.05,-1.45,-0.11
2022-01-30 18:52:38.4910,0.169,-1.044,-0.912,-2.0,2.9,2.75,1.12,-1.78,-0.15
2022-01-30 18:52:38.5010,0.168,-1.052,-0.811,-2.0,2.9,2.75,1.12,-1.78,-0.15
2022-01-30 18:52:38.5110,0.159,-1.071,-0.705,-2.21,2.99,1.11,0.94,-1.59,-0.24
2022-01-30 18:52:38.5210,0.149,-1.086,-0.613,-2.21,2.99,1.11,0.76,-1.04,-0.26
2022-01-30 18:52:38.5310,0.149,-1.076,-0.545,-2.15,3.15,0.18,0.61,-0.34,-0.28
2022-01-30 18:52:38.5410,0.154,-1.049,-0.504,-2.07,2.97,-1.13,0.47,0.36,-0.3
2022-01-30 18:52:38.5510,0.161,-1.013,-0.492,-2.07,2.97,-1.13,0.35,0.92,-0.31
2022-01-30 18:52:38.5610,0.164,-0.999,-0.509,-2.06,2.64,-1.43,0.17,1.24,-0.27
2022-01-30 18:52:38.5710,0.176,-1.021,-0.537,-2.0,2.3,-1.4,-0.01,1.32,-0.18
2022-01-30 18:52:38.5810,0.193,-1.037,-0.591,-2.04,2.57,-0.85,-0.16,1.17,-0.05
2022-01-30 18:52:38.5910,0.199,-1.033,-0.637,-2.04,2.57,-0.85,-0.19,0.82,0.06
2022-01-30 18:52:38.6020,0.186,-1.01,-0.662,-2.12,2.57,0.02,-0.08,0.42,0.14
2022-01-30 18:52:38.6120,0.145,-0.957,-0.669,-2.12,2.57,0.02,0.13,0.05,0.21
2022-01-30 18:52:38.6210,0.095,-0.881,-0.646,-1.9,2.24,0.23,0.4,-0.23,0.29
2022-01-30 18:52:38.6310,0.05,-0.811,-0.605,-1.47,1.58,0.23,0.68,-0.39,0.37
2022-01-30 18:52:38.6410,0.012,-0.76,-0.56,-1.04,0.78,-0.04,0.91,-0.42,0.46
2022-01-30 18:52:38.6510,-0.013,-0.714,-0.521,-0.42,-0.42,-0.73,1.07,-0.35,0.54
2022-01-30 18:52:38.6620,-0.024,-0.681,-0.486,-0.42,-0.42,-0.73,1.14,-0.22,0.56
2022-01-30 18:52:38.6720,-0.017,-0.664,-0.469,-0.28,-0.89,-1.03,1.11,-0.08,0.51
2022-01-30 18:52:38.6810,0.003,-0.678,-0.454,-0.29,-1.23,-1.23,0.97,0.04,0.4
2022-01-30 18:52:38.6910,0.024,-0.691,-0.444,-0.43,-1.34,-1.29,0.77,0.15,0.25
2022-01-30 18:52:38.7020,0.034,-0.694,-0.435,-0.83,-1.15,-1.41,0.52,0.25,0.08
2022-01-30 18:52:38.7120,0.029,-0.702,-0.417,-0.83,-1.15,-1.41,0.27,0.38,-0.05
2022-01-30 18:52:38.7220,0.007,-0.693,-0.409,-0.7,-1.07,-1.67,0.06,0.57,-0.11
2022-01-30 18:52:38.7320,-0.017,-0.663,-0.406,-0.4,-1.27,-1.73,-0.07,0.77,-0.11
2022-01-30 18:52:38.7420,-0.04,-0.644,-0.406,-0.4,-1.27,-1.73,-0.09,0.98,-0.09
2022-01-30 18:52:38.7520,-0.058,-0.641,-0.42,0.18,-1.66,-1.73,-0.04,1.15,-0.08
2022-01-30 18:52:38.7620,-0.062,-0.649,-0.431,0.18,-1.66,-1.73,0.04,1.23,-0.1
2022-01-30 18:52:38.7710,-0.056,-0.672,-0.445,0.39,-1.65,-1.58,0.12,1.22,-0.13
2022-01-30 18:52:38.7820,-0.041,-0.697,-0.463,0.47,-1.53,-1.48,0.17,1.1,-0.2
2022-01-30 18:52:38.7920,-0.017,-0.711,-0.477,0.45,-1.27,-1.3,0.19,0.88,-0.3
2022-01-30 18:52:38.8020,0.008,-0.72,-0.48,0.16,-0.97,-1.01,0.18,0.61,-0.43
2022-01-30 18:52:38.8120,0.027,-0.724,-0.474,0.16,-0.97,-1.01,0.14,0.35,-0.57
2022-01-30 18:52:38.8220,0.031,-0.713,-0.457,-0.01,-0.91,-1.0,0.07,0.15,-0.71
2022-01-30 18:52:38.8320,0.028,-0.695,-0.437,-0.08,-0.91,-1.09,-0.01,0.05,-0.82
2022-01-30 18:52:38.8420,0.026,-0.681,-0.429,-0.01,-1.06,-1.29,-0.13,0.04,-0.88
2022-01-30 18:52:38.8520,0.022,-0.672,-0.442,0.1,-1.22,-1.47,-0.27,0.08,-0.9
2022-01-30 18:52:38.8620,0.018,-0.667,-0.458,0.19,-1.31,-1.48,-0.42,0.14,-0.9
2022-01-30 18:52:38.8720,0.021,-0.674,-0.479,0.32,-1.36,-1.37,-0.56,0.21,-0.89
2022-01-30 18:52:38.8820,0.027,-0.684,-0.497,0.42,-1.33,-1.24,-0.66,0.29,-0.86
2022-01-30 18:52:38.8920,0.028,-0.68,-0.516,0.46,-1.19,-1.09,-0.71,0.35,-0.84
2022-01-30 18:52:38.9020,0.027,-0.664,-0.535,0.58,-1.14,-0.83,-0.71,0.39,-0.84
2022-01-30 18:52:38.9120,0.027,-0.654,-0.547,0.58,-1.14,-0.83,-0.68,0.41,-0.85
2022-01-30 18:52:38.9220,0.03,-0.652,-0.553,0.77,-1.25,-0.66,-0.63,0.39,-0.84
2022-01-30 18:52:38.9330,0.039,-0.661,-0.555,0.77,-1.25,-0.66,-0.56,0.35,-0.81
2022-01-30 18:52:38.9420,0.048,-0.674,-0.56,0.78,-1.03,-0.67,-0.5,0.28,-0.75
2022-01-30 18:52:38.9530,0.063,-0.674,-0.562,0.74,-0.91,-0.67,-0.45,0.18,-0.69
2022-01-30 18:52:38.9630,0.082,-0.676,-0.558,0.74,-0.91,-0.67,-0.42,0.06,-0.66
2022-01-30 18:52:38.9730,0.093,-0.68,-0.54,0.62,-0.88,-0.7,-0.4,-0.03,-0.62
2022-01-30 18:52:38.9820,0.095,-0.679,-0.515,0.49,-0.81,-0.81,-0.36,-0.07,-0.58
2022-01-30 18:52:38.9920,0.107,-0.69,-0.483,0.47,-0.72,-1.35,-0.32,-0.05,-0.52
2022-01-30 18:52:39.0030,0.127,-0.719,-0.461,0.47,-0.72,-1.35,-0.29,0.01,-0.45
2022-01-30 18:52:39.0130,0.143,-0.745,-0.458,0.34,-0.51,-1.68,-0.31,0.06,-0.37
2022-01-30 18:52:39.0220,0.156,-0.767,-0.472,0.18,-0.18,-1.84,-0.38,0.05,-0.33
2022-01-30 18:52:39.0330,0.164,-0.793,-0.498,0.05,0.07,-1.85,-0.51,-0.05,-0.31
2022-01-30 18:52:39.0430,0.175,-0.825,-0.536,-0.03,0.33,-1.69,-0.67,-0.23,-0.34
2022-01-30 18:52:39.0530,0.193,-0.868,-0.585,-0.1,0.66,-1.45,-0.85,-0.48,-0.4
2022-01-30 18:52:39.0630,0.208,-0.908,-0.627,-0.23,1.08,-1.1,-1.01,-0.72,-0.48
2022-01-30 18:52:39.0730,0.208,-0.928,-0.655,-0.56,2.0,-0.44,-1.12,-0.89,-0.53
2022-01-30 18:52:39.0830,0.193,-0.939,-0.675,-0.56,2.0,-0.44,-1.16,-0.96,-0.54
2022-01-30 18:52:39.0930,0.174,-0.946,-0.686,-0.52,2.23,-0.3,-1.12,-0.89,-0.49
2022-01-30 18:52:39.1030,0.16,-0.949,-0.71,-0.37,2.5445784437656402,-0.18279507100582124,-1.02,-0.74,-0.43
2022-01-30 18:52:39.1130,0.144,-0.944,-0.747,-0.23,2.54,-0.19,-0.87,-0.57,-0.36
2022-01-30 18:52:39.1230,0.13,-0.932,-0.771,-0.1,2.62,0.06,-0.68,-0.42,-0.33
2022-01-30 18:52:39.1330,0.129,-0.934,-0.782,0.15,2.53,0.49,-0.42,-0.29,-0.34
2022-01-30 18:52:39.1430,0.143,-0.947,-0.778,0.12,2.63,0.54,-0.14,-0.2,-0.38
2022-01-30 18:52:39.1540,0.172,-0.962,-0.75,0.12,2.63,0.54,0.11,-0.16,-0.46
2022-01-30 18:52:39.1640,0.2,-0.978,-0.715,-0.07,2.76,0.41,0.28,-0.15,-0.53
2022-01-30 18:52:39.1730,0.22,-0.989,-0.679,-0.56,3.04,-0.22,0.34,-0.16,-0.57
2022-01-30 18:52:39.1840,0.236,-0.992,-0.649,-0.71,3.1,-0.55,0.32,-0.16,-0.6
2022-01-30 18:52:39.1940,0.246,-0.991,-0.639,-0.71,3.1,-0.55,0.27,-0.17,-0.63
2022-01-30 18:52:39.2030,0.247,-0.982,-0.641,-0.82,3.11,-0.76,0.21,-0.21,-0.68
2022-01-30 18:52:39.2130,0.241,-0.964,-0.651,-0.85,3.07,-0.8,0.17,-0.25,-0.73
2022-01-30 18:52:39.2230,0.232,-0.939,-0.658,-0.8,2.95,-0.74,0.18,-0.3,-0.79
2022-01-30 18:52:39.2330,0.223,-0.917,-0.652,-0.71,2.74,-0.63,0.24,-0.31,-0.83
2022-01-30 18:52:39.2440,0.225,-0.902,-0.648,-0.57,2.49,-0.6,0.33,-0.29,-0.86
2022-01-30 18:52:39.2540,0.232,-0.885,-0.645,-0.49,2.13,-0.65,0.4,-0.28,-0.86
2022-01-30 18:52:39.2640,0.241,-0.872,-0.636,-0.49,2.13,-0.65,0.44,-0.28,-0.86
2022-01-30 18:52:39.2730,0.249,-0.864,-0.635,-0.54,1.96,-0.69,0.43,-0.29,-0.84
2022-01-30 18:52:39.2830,0.256,-0.856,-0.638,-0.58,1.84,-0.74,0.39,-0.31,-0.83
2022-01-30 18:52:39.2920,0.26,-0.85,-0.638,-0.66,1.67,-0.67,0.39,-0.31,-0.83
2022-01-30 18:52:39.3030,0.258,-0.847,-0.641,-0.66,1.67,-0.67,0.28,-0.35,-0.75
2022-01-30 18:52:39.3140,0.254,-0.838,-0.645,-0.6,1.58,-0.61,0.25,-0.35,-0.69
2022-01-30 18:52:39.3240,0.244,-0.826,-0.648,-0.6,1.58,-0.61,0.25,-0.36,-0.61
2022-01-30 18:52:39.3340,0.232,-0.813,-0.651,-0.41,1.35,-0.52,0.29,-0.36,-0.52
2022-01-30 18:52:39.3440,0.218,-0.795,-0.649,-0.2724068668484688,1.1752956086397173,-0.48,0.34,-0.39,-0.43
2022-01-30 18:52:39.3540,0.207,-0.788,-0.643,-0.28,1.17,-0.48,0.4,-0.4,-0.34
2022-01-30 18:52:39.3640,0.206,-0.79,-0.646,-0.15,1.01,-0.52,0.44,-0.42,-0.28
2022-01-30 18:52:39.3740,0.214,-0.808,-0.659,-0.08,0.94,-0.53,0.42,-0.47,-0.26
2022-01-30 18:52:39.3840,0.219,-0.824,-0.688,-0.12,1.0,-0.44,0.35,-0.57,-0.27
2022-01-30 18:52:39.3940,0.209,-0.828,-0.72,-0.26,1.29,0.09,0.24,-0.7,-0.31
2022-01-30 18:52:39.4040,0.177,-0.812,-0.739,-0.11,1.28,0.34,0.15,-0.79,-0.34
2022-01-30 18:52:39.4150,0.142,-0.765,-0.74,0.22,0.99,0.48,0.16,-0.81,-0.37
2022-01-30 18:52:39.4240,0.119,-0.713,-0.738,0.22,0.99,0.48,0.28,-0.8,-0.41
2022-01-30 18:52:39.4330,0.111,-0.677,-0.707,0.48,0.46,0.44,0.51,-0.75,-0.43
2022-01-30 18:52:39.4440,0.134,-0.669,-0.652,0.66,-0.03,0.4,0.79,-0.63,-0.4
2022-01-30 18:52:39.4540,0.176,-0.681,-0.609,0.61,-0.33,-0.01,1.04,-0.5,-0.3
2022-01-30 18:52:39.4640,0.231,-0.698,-0.58,0.28,-0.38,-0.46,1.18,-0.44,-0.18
2022-01-30 18:52:39.4740,0.283,-0.721,-0.552,-0.21,-0.32,-0.75,1.16,-0.43,-0.06
2022-01-30 18:52:39.4850,0.329,-0.756,-0.533,-0.78,-0.21,-0.95,1.02,-0.44,0.04
2022-01-30 18:52:39.4940,0.357,-0.785,-0.537,-1.74,0.29,-1.21,0.81,-0.47,0.14
2022-01-30 18:52:39.5050,0.371,-0.797,-0.554,-1.74,0.29,-1.21,0.56,-0.55,0.22
2022-01-30 18:52:39.5140,0.367,-0.803,-0.568,-2.14,0.54,-0.89,0.34,-0.61,0.27
2022-01-30 18:52:39.5250,0.348,-0.794,-0.587,-2.14,0.54,-0.89,0.16,-0.65,0.32
2022-01-30 18:52:39.5350,0.326,-0.782,-0.592,-2.09,0.54,-0.73,0.03,-0.63,0.33
2022-01-30 18:52:39.5450,0.312,-0.783,-0.59,-1.96,0.4,-0.58,-0.06,-0.54,0.32
2022-01-30 18:52:39.5550,0.294,-0.799,-0.592,-1.81,0.33,-0.6,-0.11,-0.43,0.31
2022-01-30 18:52:39.5650,0.274,-0.813,-0.595,-1.74,0.4,-0.62,-0.15,-0.35,0.29
2022-01-30 18:52:39.5740,0.258,-0.821,-0.603,-1.59,0.58,-0.61,-0.19,-0.31,0.29
2022-01-30 18:52:39.5840,0.244,-0.83,-0.616,-1.44,0.69,-0.59,-0.23,-0.34,0.31
2022-01-30 18:52:39.5950,0.219,-0.819,-0.627,-1.35,0.8,-0.5,-0.23,-0.4,0.31
2022-01-30 18:52:39.6050,0.188,-0.796,-0.624,-1.23,0.85,-0.4,-0.2,-0.46,0.3
2022-01-30 18:52:39.6150,0.16,-0.77,-0.611,-0.99,0.68,-0.35,-0.13,-0.47,0.29
2022-01-30 18:52:39.6250,0.139,-0.744,-0.597,-0.75,0.45,-0.45,-0.06,-0.44,0.26
2022-01-30 18:52:39.6340,0.122,-0.727,-0.576,-0.55,0.19,-0.7541627651453019,-0.02,-0.36,0.25
2022-01-30 18:52:39.6450,0.105,-0.718,-0.568,-0.41,-0.05,-0.76,-0.03,-0.27,0.25
2022-01-30 18:52:39.6550,0.084,-0.723,-0.571,-0.28,-0.17,-0.95,-0.08,-0.18,0.27
2022-01-30 18:52:39.6650,0.058,-0.741,-0.56,-0.14,-0.22,-0.96,-0.14,-0.07,0.3
2022-01-30 18:52:39.6740,0.036,-0.747,-0.568,0.07,-0.09,-1.01,-0.19,0.06,0.33
2022-01-30 18:52:39.6850,0.03,-0.758,-0.566,0.3,0.06,-1.08,-0.2,0.19,0.33
2022-01-30 18:52:39.6960,0.037,-0.772,-0.561,0.46,0.12,-1.0,-0.16,0.35,0.31
2022-01-30 18:52:39.7050,0.053,-0.779,-0.568,0.36,0.38,-1.07,-0.08,0.49,0.29
2022-01-30 18:52:39.7150,0.068,-0.788,-0.571,0.22,0.46,-1.03,-0.0,0.58,0.27
2022-01-30 18:52:39.7380,0.07,-0.798,-0.588,0.12,0.54,-0.95,0.05,0.62,0.29
2022-01-30 18:52:39.7460,0.058,-0.803,-0.607,0.18,0.62,-0.75,0.08,0.62,0.34
2022-01-30 18:52:39.7460,0.042,-0.806,-0.629,0.33,0.64,-0.52,0.11,0.58,0.39
2022-01-30 18:52:39.7540,0.034,-0.81,-0.634,0.33,0.64,-0.52,0.14,0.57,0.42
2022-01-30 18:52:39.7640,0.031,-0.815,-0.639,0.48,0.67,-0.36,0.22,0.57,0.42
2022-01-30 18:52:39.7740,0.032,-0.811,-0.635,0.54,0.7,-0.3,0.32,0.6,0.39
2022-01-30 18:52:39.7840,0.039,-0.797,-0.635,0.56,0.7,-0.25,0.43,0.62,0.36
2022-01-30 18:52:39.7960,0.051,-0.793,-0.644,0.55,0.58,-0.27,0.51,0.62,0.31
2022-01-30 18:52:39.8050,0.064,-0.807,-0.624,0.48,0.42,-0.17,0.55,0.65,0.29
2022-01-30 18:52:39.8150,0.08,-0.82,-0.596,0.36,0.43,-0.11,0.6,0.78,0.27
2022-01-30 18:52:39.8250,0.106,-0.841,-0.592,0.26,0.53,-0.33,0.61,0.91,0.29
2022-01-30 18:52:39.8360,0.14,-0.871,-0.613,-0.15,0.85,-0.37,0.61,0.91,0.29
2022-01-30 18:52:39.8460,0.173,-0.9,-0.647,-0.46,1.12,-0.08,0.39,0.93,0.38
2022-01-30 18:52:39.8560,0.183,-0.902,-0.697,-0.46,1.12,-0.08,0.18,0.76,0.46
2022-01-30 18:52:39.8660,0.161,-0.87,-0.753,-0.71,1.33,0.32,-0.03,0.48,0.51
2022-01-30 18:52:39.8760,0.121,-0.827,-0.794,-0.7,1.2,0.88,-0.18,0.22,0.52
2022-01-30 18:52:39.8860,0.074,-0.785,-0.832,-0.43,0.83,1.35,-0.25,0.03,0.49
2022-01-30 18:52:39.8960,0.03,-0.744,-0.852,-0.03,0.41,1.74,-0.25,-0.05,0.44
2022-01-30 18:52:39.9060,-0.0,-0.7,-0.863,0.39,0.03,2.02,-0.18,-0.02,0.38
2022-01-30 18:52:39.9160,-0.001,-0.666,-0.873,0.76,-0.39,2.16,-0.06,0.05,0.34
2022-01-30 18:52:39.9250,0.019,-0.643,-0.878,0.83,-1.08,2.35,0.11,0.12,0.33
2022-01-30 18:52:39.9360,0.047,-0.623,-0.879,0.57,-1.31,2.4,0.28,0.14,0.36
2022-01-30 18:52:39.9460,0.069,-0.608,-0.873,0.57,-1.31,2.4,0.43,0.11,0.43
2022-01-30 18:52:39.9560,0.079,-0.6,-0.853,0.27,-1.52,2.43,0.54,0.07,0.54
2022-01-30 18:52:39.9660,0.072,-0.592,-0.846,0.07,-1.69,2.35,0.6,0.04,0.67
2022-01-30 18:52:39.9760,0.056,-0.583,-0.832,0.04,-1.92,2.21,0.6,0.04,0.67
2022-01-30 18:52:39.9940,0.04,-0.568,-0.823,0.13,-2.07,2.1,0.63,0.04,0.82
2022-01-30 18:52:39.9970,0.015,-0.552,-0.834,0.13,-2.07,2.1,0.64,0.01,0.83
2022-01-30 18:52:40.0050,-0.01,-0.541,-0.841,0.45,-2.46,2.32,0.69,-0.07,0.8
2022-01-30 18:52:40.0160,-0.026,-0.539,-0.84,0.45,-2.46,2.32,0.78,-0.16,0.73
2022-01-30 18:52:40.0260,-0.036,-0.539,-0.836,0.59,-2.58,2.4,0.9,-0.26,0.65
2022-01-30 18:52:40.0440,-0.041,-0.541,-0.817,0.67,-2.7,2.45,0.98,-0.33,0.54
2022-01-30 18:52:40.0450,-0.04,-0.554,-0.796,0.67,-2.7,2.45,0.97,-0.37,0.42
2022-01-30 18:52:40.0550,-0.045,-0.565,-0.781,0.64,-2.7,2.3,0.88,-0.4,0.31
2022-01-30 18:52:40.0660,-0.055,-0.564,-0.763,0.59,-2.6,2.19,0.73,-0.4,0.19
2022-01-30 18:52:40.0760,-0.072,-0.565,-0.741,0.62,-2.58,2.1,0.55,-0.32,0.09
2022-01-30 18:52:40.0860,-0.091,-0.563,-0.727,0.9,-2.63,1.78,0.39,-0.16,0.0
2022-01-30 18:52:40.1010,-0.108,-0.56,-0.718,1.09,-2.68,1.69,0.27,0.06,-0.06
2022-01-30 18:52:40.1110,-0.124,-0.557,-0.714,1.27,-2.73,1.63,0.22,0.28,-0.12
2022-01-30 18:52:40.1210,-0.132,-0.559,-0.709,1.47,-2.75,1.62,0.24,0.48,-0.17
2022-01-30 18:52:40.1310,-0.119,-0.574,-0.702,1.51,-2.72,1.58,0.31,0.63,-0.22
2022-01-30 18:52:40.1410,-0.089,-0.607,-0.696,1.37,-2.51,1.55,0.4,0.67,-0.26
2022-01-30 18:52:40.1510,-0.059,-0.633,-0.69,1.11,-2.21,1.53,0.47,0.6,-0.3
2022-01-30 18:52:40.1610,-0.033,-0.648,-0.681,0.87,-2.03,1.52,0.5,0.45,-0.35
2022-01-30 18:52:40.1710,-0.02,-0.662,-0.661,0.72,-1.91,1.43,0.49,0.28,-0.38
2022-01-30 18:52:40.1810,-0.012,-0.676,-0.639,0.66,-1.8,1.25,0.47,0.12,-0.4
2022-01-30 18:52:40.1910,-0.005,-0.691,-0.613,0.62,-1.68,1.07,0.44,0.02,-0.4
2022-01-30 18:52:40.2010,0.001,-0.705,-0.591,0.58,-1.55,0.84,0.39,-0.02,-0.35
2022-01-30 18:52:40.2110,0.006,-0.732,-0.591,0.54,-1.39,0.71,0.36,-0.03,-0.27
2022-01-30 18:52:40.2220,0.003,-0.759,-0.59,0.53,-1.12,0.79,0.38,-0.01,-0.17
2022-01-30 18:52:40.2310,0.005,-0.774,-0.578,0.58,-0.93,0.75,0.46,0.06,-0.13
2022-01-30 18:52:40.2410,0.02,-0.8,-0.56,0.52,-0.81,0.69,0.58,0.13,-0.14
2022-01-30 18:52:40.2510,0.038,-0.847,-0.527,0.38,-0.48,0.5,0.68,0.22,-0.16
2022-01-30 18:52:40.2610,0.056,-0.882,-0.505,0.24,-0.07,0.24,0.72,0.26,-0.18
2022-01-30 18:52:40.2710,0.074,-0.903,-0.488,0.07,0.19,0.14,0.7,0.19,-0.22
2022-01-30 18:52:40.2820,0.079,-0.906,-0.472,-0.04,0.32,0.01,0.59,0.02,-0.26
2022-01-30 18:52:40.2920,0.079,-0.893,-0.467,-0.04,0.25,-0.08,0.42,-0.25,-0.31
2022-01-30 18:52:40.3010,0.079,-0.886,-0.464,-0.04,0.11,-0.1,0.19,-0.55,-0.35
2022-01-30 18:52:40.3120,0.072,-0.88,-0.473,-0.04,0.09,-0.12,-0.09,-0.81,-0.35
2022-01-30 18:52:40.3220,0.051,-0.857,-0.493,0.08,-0.01,0.01,-0.34,-0.96,-0.34
2022-01-30 18:52:40.3320,0.026,-0.825,-0.514,0.28,-0.26,0.14,-0.48,-0.96,-0.33
2022-01-30 18:52:40.3420,-0.013,-0.797,-0.528,0.57,-0.54,0.3,-0.5,-0.8,-0.33
2022-01-30 18:52:40.3480,-0.042,-0.783,-0.533,0.94,-0.77,0.34,-0.41,-0.5,-0.29
2022-01-30 18:52:40.3620,-0.053,-0.799,-0.544,1.17,-0.77,0.38,-0.28,-0.1,-0.21
2022-01-30 18:52:40.3720,-0.04,-0.808,-0.565,1.23,-0.58,0.5,-0.15,0.32,-0.11
2022-01-30 18:52:40.3820,-0.004,-0.792,-0.613,1.04,-0.59,0.8,-0.06,0.61,-0.08
2022-01-30 18:52:40.3920,0.032,-0.773,-0.657,0.7,-0.78,1.31,-0.03,0.71,-0.13
2022-01-30 18:52:40.4020,0.074,-0.759,-0.673,0.4,-0.95,1.64,-0.03,0.69,-0.22
2022-01-30 18:52:40.4120,0.127,-0.755,-0.664,0.0,-1.05,1.7,-0.05,0.61,-0.32
2022-01-30 18:52:40.4220,0.178,-0.762,-0.654,-0.47,-1.03,1.58,-0.08,0.53,-0.4
2022-01-30 18:52:40.4320,0.215,-0.773,-0.643,-0.89,-0.93,1.48,-0.14,0.43,-0.4
2022-01-30 18:52:40.4420,0.228,-0.787,-0.621,-1.12,-0.79,1.32,-0.22,0.39,-0.29
2022-01-30 18:52:40.4520,0.22,-0.795,-0.604,-1.13,-0.65,1.07,-0.29,0.42,-0.07
2022-01-30 18:52:40.4620,0.197,-0.792,-0.608,-0.99,-0.6,0.94,-0.33,0.48,0.2
2022-01-30 18:52:40.4720,0.164,-0.788,-0.629,-0.73,-0.64,1.05,-0.33,0.51,0.49
2022-01-30 18:52:40.4820,0.136,-0.791,-0.643,-0.45,-0.64,1.23,-0.27,0.53,0.71
2022-01-30 18:52:40.4920,0.106,-0.788,-0.668,-0.23,-0.62,1.37,-0.15,0.5,0.84
2022-01-30 18:52:40.5020,0.072,-0.783,-0.685,0.04,-0.69,1.64,-0.01,0.42,0.88
2022-01-30 18:52:40.5120,0.044,-0.784,-0.667,0.31,-0.72,1.69,0.15,0.35,0.84
2022-01-30 18:52:40.5220,0.025,-0.774,-0.636,0.5,-0.75,1.47,0.32,0.33,0.75
2022-01-30 18:52:40.5320,0.018,-0.763,-0.601,0.61,-0.91,1.19,0.48,0.32,0.63
2022-01-30 18:52:40.5420,0.022,-0.766,-0.567,0.59,-1.01,0.88,0.57,0.31,0.54
2022-01-30 18:52:40.5530,0.024,-0.781,-0.538,0.52,-0.95,0.62,0.56,0.29,0.49
2022-01-30 18:52:40.5630,0.019,-0.793,-0.503,0.5,-0.83,0.38,0.48,0.29,0.47
2022-01-30 18:52:40.5720,0.016,-0.802,-0.467,0.53,-0.75,0.03,0.34,0.33,0.46
2022-01-30 18:52:40.5830,0.016,-0.818,-0.451,0.53,-0.65,-0.25,0.16,0.41,0.41
2022-01-30 18:52:40.5930,0.015,-0.834,-0.451,0.52,-0.48,-0.34,-0.05,0.51,0.3
2022-01-30 18:52:40.6030,0.01,-0.845,-0.46,0.57,-0.33,-0.31,-0.26,0.59,0.15
2022-01-30 18:52:40.6130,0.001,-0.853,-0.47,0.67,-0.21,-0.25,-0.44,0.68,-0.04
2022-01-30 18:52:40.6230,-0.002,-0.854,-0.476,0.8,-0.12,-0.2,-0.57,0.78,-0.22
2022-01-30 18:52:40.6330,0.001,-0.849,-0.476,0.89,-0.1,-0.22,-0.63,0.86,-0.39
2022-01-30 18:52:40.6430,0.019,-0.842,-0.474,0.89,-0.13,-0.28,-0.61,0.91,-0.55
2022-01-30 18:52:40.6570,0.041,-0.834,-0.475,0.77,-0.16,-0.33,-0.57,0.82,-0.52
2022-01-30 18:52:40.6670,0.059,-0.819,-0.476,0.65,-0.23,-0.36,-0.54,0.67,-0.43
2022-01-30 18:52:40.6770,0.067,-0.804,-0.478,0.58,-0.35,-0.38,-0.54,0.67,-0.43
2022-01-30 18:52:40.6870,0.067,-0.798,-0.487,0.62,-0.44,-0.29,-0.6,0.25,-0.15
2022-01-30 18:52:40.6980,0.059,-0.794,-0.508,0.62,-0.44,-0.29,-0.6,0.25,-0.15
2022-01-30 18:52:40.7080,0.038,-0.778,-0.509,0.77,-0.48,-0.19,-0.68,-0.0,0.09
2022-01-30 18:52:40.7170,0.008,-0.752,-0.504,1.0,-0.64,-0.29,-0.71,0.03,0.15
2022-01-30 18:52:40.7270,-0.028,-0.726,-0.494,1.31,-0.87,-0.41,-0.73,0.14,0.2
2022-01-30 18:52:40.7370,-0.063,-0.702,-0.482,1.65,-1.09,-0.58,-0.73,0.14,0.2
2022-01-30 18:52:40.7480,-0.095,-0.68,-0.471,1.98,-1.28,-0.75,-0.76,0.29,0.24
2022-01-30 18:52:40.7580,-0.122,-0.658,-0.479,2.27,-1.44,-0.89,-0.79,0.41,0.29
2022-01-30 18:52:40.7670,-0.141,-0.638,-0.489,2.53,-1.62,-0.8,-0.93,0.52,0.38
2022-01-30 18:52:40.7780,-0.151,-0.625,-0.488,2.66,-1.74,-0.85,-0.99,0.56,0.41
2022-01-30 18:52:40.7870,-0.155,-0.607,-0.484,2.75,-1.82,-0.92,-0.99,0.56,0.41
2022-01-30 18:52:40.7980,-0.154,-0.595,-0.477,2.75,-1.95,-1.07,-1.03,0.65,0.42
2022-01-30 18:52:40.8080,-0.155,-0.604,-0.489,2.76,-1.93,-1.15,-1.05,0.65,0.43
2022-01-30 18:52:40.8180,-0.156,-0.622,-0.518,2.76,-1.74,-1.05,-1.0862741470336914,0.57,0.47
2022-01-30 18:52:40.8270,-0.168,-0.643,-0.562,2.8,-1.48,-0.77,-1.09,0.57,0.47
2022-01-30 18:52:40.8370,-0.185,-0.652,-0.599,2.94,-1.25,-0.43,-1.12,0.45,0.53
2022-01-30 18:52:40.8480,-0.2,-0.647,-0.642,3.06,-1.14,-0.16,-1.05,-0.01,0.59
2022-01-30 18:52:40.8580,-0.214,-0.628,-0.704,3.17,-1.2,0.26,-0.94,-0.38,0.53
2022-01-30 18:52:40.8680,-0.218,-0.611,-0.766,3.12,-1.41,1.3,-0.82,-0.81,0.41
2022-01-30 18:52:40.8780,-0.207,-0.608,-0.812,3.12,-1.41,1.3,-0.73,-1.27,0.27
2022-01-30 18:52:40.8870,-0.182,-0.615,-0.838,2.49,-1.2,1.73,-0.71,-1.69,0.12
2022-01-30 18:52:40.8990,-0.164,-0.626,-0.848,2.22,-1.08,1.73,-0.77,-1.99,0.0
2022-01-30 18:52:40.9080,-0.156,-0.625,-0.848,2.22,-1.08,1.73,-0.9,-2.11,-0.08
2022-01-30 18:52:40.9180,-0.17,-0.61,-0.839,2.07,-1.08,1.6,-1.06,-2.04,-0.12
2022-01-30 18:52:40.9280,-0.205,-0.587,-0.839,2.17,-1.2,1.45,-1.06,-1.83,-0.14
2022-01-30 18:52:40.9380,-0.234,-0.568,-0.851,2.52,-1.41,1.5,-1.16,-1.83,-0.14
2022-01-30 18:52:40.9490,-0.24,-0.561,-0.888,2.52,-1.41,1.5,-1.07,-1.49,-0.21
2022-01-30 18:52:40.9580,-0.229,-0.574,-0.948,2.4,-1.33,1.91,-1.07,-1.49,-0.21
2022-01-30 18:52:40.9680,-0.221,-0.611,-0.989,2.2,-1.05,2.41,-0.91,-1.51,-0.29
2022-01-30 18:52:40.9790,-0.211,-0.649,-1.004,2.05,-0.6,2.63,-0.63,-1.69,-0.52
2022-01-30 18:52:40.9970,-0.198,-0.688,-1.016,1.62,0.22,2.75,-0.63,-1.69,-0.52
2022-01-30 18:52:40.9990,-0.183,-0.716,-1.004,1.62,0.22,2.75,-0.54,-1.8,-0.83
2022-01-30 18:52:41.0080,-0.169,-0.727,-0.97,1.41,0.46,2.49,-0.54,-1.8,-0.83
2022-01-30 18:52:41.0190,-0.154,-0.724,-0.931,1.21,0.56,2.09,-0.52,-1.59,-1.09
2022-01-30 18:52:41.0290,-0.134,-0.715,-0.904,0.75,0.48,1.44,-0.52,-1.47,-1.17
2022-01-30 18:52:41.0380,-0.106,-0.712,-0.881,0.75,0.48,1.44,-0.54,-1.38,-1.21
2022-01-30 18:52:41.0480,-0.07,-0.716,-0.865,0.41,0.52,1.21,-0.55,-1.36,-1.21
2022-01-30 18:52:41.0580,-0.033,-0.728,-0.856,0.02,0.62,1.06,-0.57,-1.37,-1.19
2022-01-30 18:52:41.0690,0.005,-0.752,-0.847,-0.37,1.1121322309970856,0.8631659746170044,-0.58,-1.43,-1.15
2022-01-30 18:52:41.0790,0.041,-0.776,-0.854,-0.77,1.11,0.86,-0.58,-1.43,-1.15
2022-01-30 18:52:41.0890,0.064,-0.794,-0.863,-1.13,1.36,0.94,-0.55,-1.68,-1.09
2022-01-30 18:52:41.0990,0.078,-0.803,-0.872,-1.37,1.55,0.99,-0.51,-1.83,-1.07
2022-01-30 18:52:41.1090,0.093,-0.802,-0.883,-1.58,1.61,1.06,-0.46,-1.98,-1.05
2022-01-30 18:52:41.1180,0.103,-0.806,-0.895,-1.79,1.65,1.18,-0.4,-2.1,-1.02
2022-01-30 18:52:41.1290,0.112,-0.801,-0.892,-1.98,1.69,1.23,-0.4,-2.1,-1.02
2022-01-30 18:52:41.1390,0.122,-0.786,-0.883,-2.17,1.61,1.17,-0.32,-2.15,-1.01
2022-01-30 18:52:41.1500,0.136,-0.771,-0.876,-2.38,1.47,1.09,-0.22,-2.08,-1.05
2022-01-30 18:52:41.1590,0.146,-0.76,-0.858,-2.61,1.34,1.01,-0.2,-1.95,-1.07
2022-01-30 18:52:41.1690,0.153,-0.747,-0.843,-2.77,1.24,0.83,-0.2,-1.95,-1.07
2022-01-30 18:52:41.1790,0.162,-0.732,-0.831,-2.9,1.1,0.71,-0.22,-1.76,-1.08
2022-01-30 18:52:41.1890,0.169,-0.72,-0.824,-3.13,0.85,0.57,-0.26,-1.32,-1.1
2022-01-30 18:52:41.1990,0.175,-0.703,-0.824,-3.13,0.85,0.57,-0.28,-1.13,-1.1
2022-01-30 18:52:41.2090,0.184,-0.682,-0.826,-3.23,0.66,0.58,-0.27,-0.98,-1.11
2022-01-30 18:52:41.2190,0.196,-0.664,-0.826,-3.32,0.46,0.6,-0.22,-0.87,-1.12
2022-01-30 18:52:41.2290,0.213,-0.645,-0.826,-3.46,0.3,0.59,-0.15,-0.79,-1.13
2022-01-30 18:52:41.2390,0.232,-0.631,-0.822,-3.62,0.11,0.59,-0.07,-0.76,-1.11
2022-01-30 18:52:41.2490,0.252,-0.633,-0.813,-3.81,0.02,0.53,-0.07,-0.76,-1.11
2022-01-30 18:52:41.2590,0.265,-0.636,-0.802,-3.97,0.05,0.46,0.08,-0.7,-0.95
2022-01-30 18:52:41.2700,0.271,-0.637,-0.775,-4.07,0.04,0.31,0.19,-0.61,-0.81
2022-01-30 18:52:41.2790,0.272,-0.646,-0.748,-4.1,0.06,0.03,0.31,-0.51,-0.64
2022-01-30 18:52:41.2890,0.269,-0.652,-0.738,-4.05,0.15,-0.23,0.4,-0.39,-0.46
2022-01-30 18:52:41.2990,0.263,-0.67,-0.715,-4.05,0.15,-0.23,0.45,-0.22,-0.27
2022-01-30 18:52:41.3090,0.255,-0.7,-0.684,-3.99,0.36,-0.48,0.45,-0.04,-0.09
2022-01-30 18:52:41.3200,0.241,-0.718,-0.678,-3.71,0.71,-0.62,0.37,0.06,0.05
2022-01-30 18:52:41.3300,0.214,-0.733,-0.691,-3.71,0.71,-0.62,0.27,0.16,0.16
2022-01-30 18:52:41.3400,0.182,-0.757,-0.68,-3.41,0.88,-0.56,0.15,0.26,0.22
2022-01-30 18:52:41.3500,0.15,-0.767,-0.673,-3.09,1.08,-0.67,0.04,0.39,0.22
2022-01-30 18:52:41.3590,0.124,-0.771,-0.655,-2.77,1.13,-0.75,0.04,0.39,0.22
2022-01-30 18:52:41.3690,0.107,-0.779,-0.621,-2.52,1.19,-1.01,-0.02,0.77,0.18
2022-01-30 18:52:41.3800,0.106,-0.799,-0.589,-2.37,1.31,-1.37,-0.02,0.77,0.20256775617599487
2022-01-30 18:52:41.3890,0.117,-0.831,-0.574,-2.35,1.55,-1.64,0.03,1.05,0.29
2022-01-30 18:52:41.4000,0.138,-0.879,-0.554,-2.44,1.93,-1.78,0.1,1.1,0.44
2022-01-30 18:52:41.4100,0.158,-0.925,-0.532,-2.6,2.42,-2.02,0.18,1.11,0.61
2022-01-30 18:52:41.4200,0.175,-0.958,-0.515,-2.75,2.81,-2.21,0.26,1.07,0.77
2022-01-30 18:52:41.4300,0.185,-0.984,-0.502,-2.86,3.11,-2.36,0.26,1.07,0.77
2022-01-30 18:52:41.4400,0.195,-1.008,-0.501,-2.94,3.32,-2.45,0.32,0.82,0.99
2022-01-30 18:52:41.4500,0.201,-1.036,-0.512,-3.04,3.57,-2.4,0.32,0.82,0.99
2022-01-30 18:52:41.4600,0.197,-1.05,-0.536,-3.08,3.8,-2.24,0.28,0.58,1.02
2022-01-30 18:52:41.4700,0.182,-1.043,-0.567,-3.05,3.86,-1.94,0.16,0.01,0.96
2022-01-30 18:52:41.4800,0.155,-1.024,-0.587,-2.92,3.75,-1.67,0.16,0.01,0.96
2022-01-30 18:52:41.4900,0.108,-0.994,-0.616,-2.66,3.51,-1.45,0.23,-0.3,0.86
2022-01-30 18:52:41.5000,0.059,-0.952,-0.641,-2.24,3.17,-1.14,0.23,-0.3,0.86
2022-01-30 18:52:41.5100,0.021,-0.91,-0.663,-1.86,2.71,-0.88,0.34,-0.31,0.75
2022-01-30 18:52:41.5200,-0.004,-0.895,-0.684,-1.59,2.36,-0.65,0.4,-0.24,0.63
2022-01-30 18:52:41.5300,-0.017,-0.9,-0.7,-1.44,2.3,-0.42,0.39,-0.09,0.5
2022-01-30 18:52:41.5400,-0.024,-0.904,-0.708,-1.3,2.36,-0.2,0.26,0.43,0.34
2022-01-30 18:52:41.5510,-0.027,-0.908,-0.715,-1.3,2.36,-0.2,0.22,0.73,0.32
2022-01-30 18:52:41.5600,-0.028,-0.916,-0.717,-1.25,2.42,-0.15,0.22,0.98,0.31
2022-01-30 18:52:41.5700,-0.04,-0.912,-0.729,-1.17,2.45,-0.11,0.22,0.98,0.31
2022-01-30 18:52:41.5800,-0.062,-0.91,-0.746,-0.93,2.37,0.05,0.26,1.08,0.21
2022-01-30 18:52:41.5910,-0.08,-0.919,-0.76,-0.66,2.39,0.18,0.31,0.95,0.12
2022-01-30 18:52:41.6010,-0.096,-0.918,-0.786,-0.44,2.45,0.38,0.36,0.78,0.0
2022-01-30 18:52:41.6100,-0.108,-0.913,-0.782,-0.23,2.37,0.59,0.42,0.66,-0.12
2022-01-30 18:52:41.6210,-0.111,-0.915,-0.762,-0.09,2.32,0.46,0.47,0.62,-0.23
2022-01-30 18:52:41.6310,-0.102,-0.909,-0.742,-0.04,2.3,0.3,0.47,0.62,-0.23
2022-01-30 18:52:41.6410,-0.086,-0.894,-0.723,-0.11,2.16,0.12,0.53,0.66,-0.38
2022-01-30 18:52:41.6510,-0.07,-0.884,-0.709,-0.2,1.98,-0.03,0.5187366604804993,0.66,-0.4
2022-01-30 18:52:41.6610,-0.063,-0.877,-0.701,-0.26,1.85,-0.11,0.52,0.66,-0.4
2022-01-30 18:52:41.6700,-0.071,-0.866,-0.692,-0.21,1.75,-0.17,0.48,0.65,-0.36
2022-01-30 18:52:41.6810,-0.097,-0.844,-0.694,0.0,1.57,-0.2,0.36,0.58,-0.23
2022-01-30 18:52:41.6900,-0.128,-0.818,-0.69,0.36,1.3,-0.15,0.310447096824646,0.55,-0.21
2022-01-30 18:52:41.7010,-0.147,-0.8,-0.68,0.68,1.05,-0.22,0.26,0.53,-0.25
2022-01-30 18:52:41.7110,-0.15,-0.794,-0.68,0.86,0.88,-0.27,0.26,0.53,-0.25
2022-01-30 18:52:41.7200,-0.138,-0.793,-0.685,0.89,0.85,-0.23,0.06,0.46,-0.46
2022-01-30 18:52:41.7310,-0.128,-0.784,-0.689,0.82,0.81,-0.18,0.06,0.46,-0.46
2022-01-30 18:52:41.7410,-0.114,-0.77,-0.684,0.8,0.69,-0.19,-0.19,0.51,-0.62
2022-01-30 18:52:41.7510,-0.088,-0.761,-0.68,0.68,0.59,-0.25,-0.19,0.51,-0.62
2022-01-30 18:52:41.7610,-0.064,-0.744,-0.672,0.52,0.51,-0.32,-0.21,0.64,-0.62
2022-01-30 18:52:41.7710,-0.044,-0.713,-0.673,0.38,0.3,-0.41,-0.13,0.64,-0.55
2022-01-30 18:52:41.7810,-0.028,-0.685,-0.678,0.29,-0.02,-0.36,-0.13,0.64,-0.55
2022-01-30 18:52:41.7910,-0.008,-0.679,-0.662,0.2,-0.22,-0.38,0.14,0.57,-0.26
2022-01-30 18:52:41.8010,0.012,-0.692,-0.648,0.04,-0.2,-0.56,0.14,0.57,-0.26
2022-01-30 18:52:41.8110,0.023,-0.702,-0.649,-0.08,-0.07,-0.62,0.39,0.45,0.12
2022-01-30 18:52:41.8210,0.023,-0.7,-0.649,-0.13,-0.05,-0.57,0.49,0.37,0.26
2022-01-30 18:52:41.8310,0.015,-0.695,-0.649,-0.08,-0.12,-0.55,0.56,0.27,0.34
2022-01-30 18:52:41.8410,0.002,-0.691,-0.645,0.01,-0.21,-0.51,0.56,0.20463889837265015,0.39
2022-01-30 18:52:41.8520,-0.01,-0.695,-0.623,0.12,-0.27,-0.56,0.63,0.2,0.39
2022-01-30 18:52:41.8610,-0.018,-0.696,-0.592,0.21,-0.27,-0.77,0.74,0.17,0.37
2022-01-30 18:52:41.8710,-0.016,-0.692,-0.56,0.25,-0.34,-1.04,0.74,0.17,0.37
2022-01-30 18:52:41.8810,-0.005,-0.689,-0.532,0.18,-0.42,-1.28,0.7,0.15,0.22
2022-01-30 18:52:41.8910,0.008,-0.687,-0.503,0.05,-0.49,-1.51,0.63,0.14,0.13
2022-01-30 18:52:41.9020,0.021,-0.679,-0.475,-0.08,-0.57,-1.76,0.53,0.13,0.08
2022-01-30 18:52:41.9120,0.032,-0.673,-0.448,-0.2,-0.69,-1.98,0.44,0.14,0.07
2022-01-30 18:52:41.9210,0.043,-0.675,-0.425,-0.3,-0.74,-2.2,0.35,0.17,0.1
2022-01-30 18:52:41.9320,0.057,-0.684,-0.414,-0.41,-0.72,-2.38,0.26,0.2,0.16
2022-01-30 18:52:41.9410,0.071,-0.695,-0.422,-0.56,-0.63,-2.39,0.26,0.2,0.16
2022-01-30 18:52:41.9510,0.075,-0.694,-0.438,-0.69,-0.63,-2.05,0.18,0.21,0.25
2022-01-30 18:52:41.9610,0.071,-0.685,-0.465,-0.69,-0.63,-2.05,0.19,0.18,0.25
2022-01-30 18:52:41.9710,0.06,-0.679,-0.483,-0.62,-0.73,-1.78,0.25,0.16,0.23
2022-01-30 18:52:41.9810,0.049,-0.682,-0.488,-0.51,-0.77,-1.65,0.25,0.16,0.23
2022-01-30 18:52:41.9910,0.044,-0.692,-0.492,-0.43,-0.73,-1.58,0.4,0.18,0.18
2022-01-30 18:52:42.0010,0.048,-0.711,-0.496,-0.48,-0.44,-1.45,0.4,0.18,0.18
2022-01-30 18:52:42.0110,0.057,-0.738,-0.5,-0.48,-0.44,-1.45,0.49,0.17,0.14
2022-01-30 18:52:42.0210,0.064,-0.761,-0.51,-0.65,-0.02,-1.19,0.49,0.11,0.12
2022-01-30 18:52:42.0310,0.076,-0.782,-0.525,-0.65,-0.02,-1.19,0.47,0.03,0.1
2022-01-30 18:52:42.0410,0.085,-0.8,-0.541,-0.77,0.15,-1.01,0.43,-0.03,0.06
2022-01-30 18:52:42.0510,0.088,-0.81,-0.558,-0.86,0.33,-0.62,0.35,-0.05,0.0
2022-01-30 18:52:42.0610,0.092,-0.819,-0.575,-0.86,0.33,-0.62,0.24,-0.02,-0.07
2022-01-30 18:52:42.0720,0.098,-0.83,-0.592,-0.92,0.42,-0.45,0.12,0.06,-0.15
2022-01-30 18:52:42.0820,0.099,-0.834,-0.614,-0.94,0.51,-0.26,0.12,0.06,-0.15
2022-01-30 18:52:42.0930,0.099,-0.831,-0.638,-0.92,0.51,-0.03,-0.15,0.3,-0.32
2022-01-30 18:52:42.1020,0.096,-0.826,-0.661,-0.78,0.45,0.38,-0.27,0.49,-0.37
2022-01-30 18:52:42.1120,0.095,-0.82,-0.679,-0.78,0.45,0.38,-0.27,0.49,-0.37
2022-01-30 18:52:42.1220,0.104,-0.821,-0.694,-0.72,0.42,0.52,-0.36,0.91,-0.36
2022-01-30 18:52:42.1320,0.13,-0.841,-0.699,-0.78,0.52,0.61,-0.31,1.13,-0.28
2022-01-30 18:52:42.1420,0.179,-0.876,-0.699,-1.5,1.16,0.64,-0.23,1.3,-0.19
2022-01-30 18:52:42.1520,0.246,-0.9,-0.716,-1.5,1.16,0.64,-0.23,1.3,-0.19
2022-01-30 18:52:42.1620,0.306,-0.906,-0.745,-2.06,1.33,0.87,-0.19,1.36,-0.13
2022-01-30 18:52:42.1720,0.348,-0.908,-0.753,-2.48,1.37,1.1,-0.19,1.36,-0.13
2022-01-30 18:52:42.1820,0.377,-0.91,-0.735,-2.75,1.42,1.07,-0.19,1.39,-0.11
2022-01-30 18:52:42.1920,0.403,-0.892,-0.714,-2.91,1.39,0.85,-0.15,1.48,-0.11
2022-01-30 18:52:42.2030,0.429,-0.857,-0.704,-3.06,1.15,0.68,-0.09,1.6,-0.1
2022-01-30 18:52:42.2130,0.444,-0.813,-0.708,-3.17,0.76,0.66,-0.08,1.73,-0.03
2022-01-30 18:52:42.2220,0.454,-0.772,-0.711,-3.17,-0.04,0.76,-0.12,1.77,0.09
2022-01-30 18:52:42.2310,0.46,-0.735,-0.719,-3.17,-0.04,0.76,-0.12,1.77,0.09
2022-01-30 18:52:42.2420,0.463,-0.693,-0.731,-3.12,-0.4,0.87,-0.21,1.83,0.45
2022-01-30 18:52:42.2520,0.47,-0.649,-0.749,-3.08,-0.83,1.02,-0.24,1.88,0.65
2022-01-30 18:52:42.2620,0.484,-0.613,-0.763,-3.1,-1.23,1.21,-0.26,1.98,0.87
2022-01-30 18:52:42.2720,0.5,-0.581,-0.769,-3.19,-1.55,1.33,-0.28,2.14,1.09
2022-01-30 18:52:42.2820,0.52,-0.549,-0.773,-3.31,-1.87,1.39,-0.28,2.3,1.32
2022-01-30 18:52:42.2920,0.551,-0.526,-0.788,-3.5,-2.16,1.45,-0.27,2.39,1.55
2022-01-30 18:52:42.3020,0.586,-0.506,-0.819,-3.8,-2.37,1.71,-0.25,2.41,1.77
2022-01-30 18:52:42.3120,0.617,-0.49,-0.838,-4.12,-2.58,2.01,-0.23,2.4,2.01
2022-01-30 18:52:42.3220,0.639,-0.479,-0.85,-4.6,-2.85,2.31,-0.22,2.39,2.27
2022-01-30 18:52:42.3320,0.652,-0.472,-0.854,-4.6,-2.85,2.31,-0.2,2.4,2.53
2022-01-30 18:52:42.3420,0.654,-0.461,-0.853,-4.73,-2.95,2.31,-0.2,2.39,2.76
2022-01-30 18:52:42.3520,0.649,-0.444,-0.872,-4.8,-3.13,2.41,-0.2,2.38,2.96
2022-01-30 18:52:42.3630,0.64,-0.431,-0.894,-4.8,-3.32,2.64,-0.2,2.38,2.96
2022-01-30 18:52:42.3740,0.638,-0.419,-0.932,-4.83,-3.46,2.9,-0.17,2.34,3.11
2022-01-30 18:52:42.3830,0.636,-0.403,-0.979,-4.93,-3.64,3.36,-0.03,2.22,3.28
2022-01-30 18:52:42.3930,0.632,-0.382,-1.024,-5.03,-3.84,3.84,-0.03,2.22,3.29583740234375
2022-01-30 18:52:42.4030,0.621,-0.361,-1.056,-5.09,-4.11,4.29,0.07,2.25,3.3
2022-01-30 18:52:42.4130,0.615,-0.35,-1.066,-5.1,-4.31,4.54,0.22,2.78,3.25
2022-01-30 18:52:42.4240,0.606,-0.327,-1.074,-5.13,-4.48,4.67,0.22,3.24,3.2
2022-01-30 18:52:42.4330,0.598,-0.295,-1.072,-5.1,-4.8,4.75,0.14,3.75,3.17
2022-01-30 18:52:42.4430,0.598,-0.263,-1.074,-5.09,-5.15,4.77,-0.01,4.25,3.2
2022-01-30 18:52:42.4540,0.599,-0.226,-1.081,-5.12,-5.49,4.85,-0.01,4.25,3.2
2022-01-30 18:52:42.4640,0.596,-0.181,-1.092,-5.11,-5.91,4.95,-0.39,5.12,3.45
2022-01-30 18:52:42.4730,0.588,-0.138,-1.122,-5.05,-6.35,5.1,-0.54,5.42,3.62
2022-01-30 18:52:42.4840,0.574,-0.095,-1.16,-4.93,-6.77,5.47,-0.64,5.65,3.79
2022-01-30 18:52:42.4940,0.55,-0.061,-1.191,-4.74,-7.17,5.8,-0.69,5.8,3.96
2022-01-30 18:52:42.5040,0.52,-0.04,-1.217,-4.45,-7.44,6.1,-0.69,5.87,4.08
2022-01-30 18:52:42.5130,0.493,-0.02,-1.235,-3.89,-7.83,6.5,-0.67,5.82,4.15
2022-01-30 18:52:42.5240,0.461,0.002,-1.266,-3.55,-8.02,6.83,-0.67,5.64,4.19
2022-01-30 18:52:42.5340,0.418,0.014,-1.294,-3.55,-8.02,6.83,-0.67,5.64,4.19
2022-01-30 18:52:42.5450,0.372,0.014,-1.294,-2.72,-8.04,6.89,-0.79,5.22,4.27
2022-01-30 18:52:42.5550,0.326,0.012,-1.279,-2.28,-8.04,6.7,-0.87,5.05,4.32
2022-01-30 18:52:42.5640,0.27,0.023,-1.262,-2.28,-8.04,6.7,-0.95,4.97,4.37
2022-01-30 18:52:42.5740,0.213,0.036,-1.244,-1.78,-8.15,6.48,-1.03,4.96,4.42
2022-01-30 18:52:42.5840,0.156,0.052,-1.236,-1.28,-8.24,6.29,-1.11,5.01,4.44
2022-01-30 18:52:42.5940,0.101,0.066,-1.23,-0.77,-8.37,6.16,-1.16,5.1,4.42
2022-01-30 18:52:42.6040,0.06,0.068,-1.219,-0.31,-8.42,6.04,-1.2,5.2,4.36
2022-01-30 18:52:42.6140,0.042,0.067,-1.186,0.09,-8.26,5.37,-1.28,5.25,4.28
2022-01-30 18:52:42.6250,0.038,0.051,-1.157,0.09,-8.26,5.37,-1.44,5.18,4.2
2022-01-30 18:52:42.6340,0.033,0.029,-1.148,0.12,-7.99,5.05,-1.44,5.18,4.2
2022-01-30 18:52:42.6440,0.027,0.009,-1.17,0.16,-7.7,4.98,-1.93,4.51,4.02
2022-01-30 18:52:42.6540,-0.001,-0.045,-1.2,0.27,-7.32,5.12,-2.14,4.02,3.98
2022-01-30 18:52:42.6640,-0.06,-0.139,-1.243,0.63,-6.5,5.32,-2.18,3.57,4.0
2022-01-30 18:52:42.6740,-0.131,-0.223,-1.274,1.24,-5.41,5.59,-1.99,3.22,4.0
2022-01-30 18:52:42.6840,-0.198,-0.247,-1.298,2.4,-4.53,5.79,-1.57,2.96,3.91
2022-01-30 18:52:42.6950,-0.246,-0.232,-1.287,2.4,-4.53,5.79,-0.99,2.84,3.72
2022-01-30 18:52:42.7040,-0.26,-0.233,-1.225,2.7,-4.61,5.4,-0.38,2.78,3.48
2022-01-30 18:52:42.7140,-0.241,-0.288,-1.159,2.68,-4.41,4.71,0.09,2.69,3.28
2022-01-30 18:52:42.7250,-0.2,-0.404,-1.098,2.35,-3.63,4.08,0.32,2.46,3.15
2022-01-30 18:52:42.7350,-0.167,-0.517,-1.081,1.6,-1.53,3.64,0.26,2.06,3.03
2022-01-30 18:52:42.7460,-0.159,-0.578,-1.09,1.6,-1.53,3.64,-0.01,1.65,2.83
2022-01-30 18:52:42.7550,-0.172,-0.615,-1.062,1.66,-0.74,3.19,-0.41,1.42,2.53
2022-01-30 18:52:42.7650,-0.208,-0.617,-1.008,2.03,-0.84,2.59,-0.83,1.42,2.09
2022-01-30 18:52:42.7760,-0.254,-0.578,-0.964,2.03,-0.84,2.59,-0.83,1.42,2.09
2022-01-30 18:52:42.7850,-0.301,-0.535,-0.948,2.98,-1.46,1.97,-1.5,1.89,0.92
2022-01-30 18:52:42.7960,-0.318,-0.499,-0.935,2.98,-1.46,1.97,-1.67,2.24,0.33
2022-01-30 18:52:42.8050,-0.282,-0.473,-0.921,3.1,-1.68,1.73,-1.74,2.61,-0.16
2022-01-30 18:52:42.8150,-0.205,-0.484,-0.899,2.76,-1.68,1.46,-1.77,2.93,-0.5
2022-01-30 18:52:42.8250,-0.122,-0.501,-0.879,1.69,-1.11,0.89,-1.83,3.16,-0.69
2022-01-30 18:52:42.8360,-0.05,-0.503,-0.885,1.69,-1.11,0.89,-1.92,3.18,-0.73
2022-01-30 18:52:42.8450,0.008,-0.521,-0.916,1.35,-0.91,1.0,-1.95,2.97,-0.66
2022-01-30 18:52:42.8550,0.067,-0.547,-0.972,1.05,-0.5,1.26,-1.87,2.44,-0.53
2022-01-30 18:52:42.8650,0.115,-0.558,-1.075,0.47,0.07,2.9,-1.62,1.67,-0.37
2022-01-30 18:52:42.8750,0.142,-0.559,-1.161,0.47,0.07,2.9,-1.2,0.76,-0.18
2022-01-30 18:52:42.8850,0.151,-0.541,-1.216,0.32,-0.04,3.91,-0.68,-0.11,0.05
2022-01-30 18:52:42.8960,0.139,-0.518,-1.223,0.32,-0.04,3.91,-0.11,-0.83,0.33
2022-01-30 18:52:42.9060,0.106,-0.476,-1.196,0.43,-0.3,3.82,-0.11,-0.83,0.33
2022-01-30 18:52:42.9160,0.058,-0.421,-1.163,0.68,-0.84,3.49,0.84,-1.61,0.9
2022-01-30 18:52:42.9250,0.012,-0.373,-1.118,1.23,-1.97,2.71,1.12,-1.59,1.11
2022-01-30 18:52:42.9360,-0.029,-0.341,-1.061,1.23,-1.97,2.71,1.22,-1.31,1.25
2022-01-30 18:52:42.9470,-0.067,-0.331,-1.008,1.44,-2.31,2.2,1.19,-0.86,1.28
2022-01-30 18:52:42.9550,-0.105,-0.321,-0.977,1.67,-2.49,1.81,1.05,-0.33,1.19
2022-01-30 18:52:42.9660,-0.146,-0.305,-0.955,1.97,-2.69,1.62,0.86,0.18,1.0
2022-01-30 18:52:42.9760,-0.18,-0.284,-0.951,2.31,-2.95,1.49,0.67,0.54,0.76
2022-01-30 18:52:42.9860,-0.201,-0.269,-0.965,2.76,-3.37,1.8,0.67,0.54,0.76
2022-01-30 18:52:42.9960,-0.202,-0.263,-0.988,2.76,-3.37,1.8,0.51,0.7,0.5
2022-01-30 18:52:43.0050,-0.186,-0.269,-0.994,2.73,-3.4,2.01,0.39,0.69,0.28
2022-01-30 18:52:43.0150,-0.161,-0.282,-0.974,2.57,-3.35,2.02,0.32,0.42,0.04
2022-01-30 18:52:43.0260,-0.13,-0.303,-0.93,2.33,-3.21,1.72,0.3,0.3,0.02
2022-01-30 18:52:43.0360,-0.102,-0.32,-0.89,2.05,-3.03,1.3,0.24,0.19,0.04
2022-01-30 18:52:43.0460,-0.078,-0.346,-0.847,1.8,-2.88,0.94,0.24,0.19,0.04
2022-01-30 18:52:43.0560,-0.063,-0.39,-0.807,1.6,-2.56,0.5,0.13,0.14,0.1
2022-01-30 18:52:43.0660,-0.055,-0.435,-0.79,1.47,-2.11,0.19,-0.09,0.18,0.27
2022-01-30 18:52:43.0750,-0.054,-0.489,-0.78,1.42,-1.65,0.06,-0.09,0.18,0.34
2022-01-30 18:52:43.0860,-0.06,-0.546,-0.779,1.43,-1.07,-0.02,-0.05,0.43,0.37
2022-01-30 18:52:43.0960,-0.074,-0.578,-0.789,1.54,-0.58,0.01,0.1,0.56,0.35
2022-01-30 18:52:43.1060,-0.079,-0.592,-0.81,1.68,-0.36,0.17,0.1,0.56,0.35
2022-01-30 18:52:43.1160,-0.079,-0.591,-0.83,1.72,-0.29,0.41,0.29,0.69,0.15
2022-01-30 18:52:43.1260,-0.075,-0.563,-0.811,1.77,-0.44,0.57,0.52,0.69,0.15
2022-01-30 18:52:43.1360,-0.053,-0.542,-0.745,1.74,-0.81,0.22,0.97,0.93,-0.02
2022-01-30 18:52:43.1460,-0.016,-0.557,-0.684,1.21,-0.8,-0.83,1.1,0.98,0.05
2022-01-30 18:52:43.1560,0.022,-0.586,-0.64,1.21,-0.8,-0.83,1.1,0.98,0.05
2022-01-30 18:52:43.1660,0.063,-0.625,-0.593,0.89,-0.57,-1.19,1.15,0.95,0.2
2022-01-30 18:52:43.1760,0.11,-0.668,-0.559,0.5,-0.26,-1.54,1.14,0.82,0.38
2022-01-30 18:52:43.1860,0.168,-0.733,-0.545,-0.64,0.84,-1.73,0.87,0.29,0.6
2022-01-30 18:52:43.1970,0.234,-0.835,-0.548,-0.64,0.84,-1.73,0.62,-0.04,0.63
2022-01-30 18:52:43.2060,0.266,-0.937,-0.55,-1.24,1.86,-1.63,0.62,-0.04,0.63
2022-01-30 18:52:43.2160,0.255,-0.998,-0.541,-1.44,2.69,-1.65,0.13,-0.35,0.57
2022-01-30 18:52:43.2260,0.215,-1.038,-0.531,-1.28,3.5,-1.83,-0.07,-0.27,0.52
2022-01-30 18:52:43.2360,0.17,-1.06,-0.532,-0.47,3.64,-1.75,-0.22,-0.09,0.47
2022-01-30 18:52:43.2460,0.117,-1.057,-0.551,-0.47,3.64,-1.75,-0.22,-0.09,0.47
2022-01-30 18:52:43.2540,0.081,-1.039,-0.557,0.01,3.55,-1.6,-0.31,0.47,0.22
2022-01-30 18:52:43.2660,0.067,-1.019,-0.569,0.3,3.39,-1.58,-0.32,0.74,0.01
2022-01-30 18:52:43.2760,0.079,-1.015,-0.575,0.4,3.23,-1.45,-0.38,1.01,-0.17
2022-01-30 18:52:43.2860,0.119,-1.06,-0.554,0.24,3.39,-1.52,-0.38,1.01,-0.17
2022-01-30 18:52:43.2970,0.163,-1.11,-0.546,-0.09,3.97,-1.75,-0.63,1.37,-0.28
2022-01-30 18:52:43.3060,0.191,-1.145,-0.555,-0.36,4.43,-1.76,-0.63,1.37,-0.28
2022-01-30 18:52:43.3160,0.196,-1.179,-0.567,-0.44,4.83,-1.71,-0.78,1.38,-0.22
2022-01-30 18:52:43.3270,0.169,-1.197,-0.604,-0.28,5.19,-1.54,-1.0,1.09,0.1
2022-01-30 18:52:43.3360,0.116,-1.201,-0.646,0.78,5.47,-0.84,-0.99,0.85,0.26
2022-01-30 18:52:43.3470,0.053,-1.201,-0.684,0.78,5.47,-0.84,-0.88,0.58,0.37
2022-01-30 18:52:43.3570,-0.006,-1.191,-0.729,1.96,5.41,-0.11,-0.65,0.29,0.41
2022-01-30 18:52:43.3670,-0.056,-1.174,-0.762,1.96,5.41,-0.11,-0.34,0.01,0.38
2022-01-30 18:52:43.3760,-0.088,-1.153,-0.787,2.37,5.25,0.16,0.03,-0.24,0.28
2022-01-30 18:52:43.3870,-0.106,-1.126,-0.783,2.68,4.74,0.18,0.38,-0.4,0.16
2022-01-30 18:52:43.3970,-0.111,-1.116,-0.756,2.68,4.74,-0.04256422162055969,0.64,-0.49,0.1
2022-01-30 18:52:43.4070,-0.108,-1.12,-0.731,2.65,4.67,-0.05,0.79,-0.51,0.11
2022-01-30 18:52:43.4170,-0.106,-1.118,-0.698,2.56,4.65,-0.28,0.79,-0.51,0.11
2022-01-30 18:52:43.4270,-0.117,-1.108,-0.666,2.54,4.53,-0.57,0.84,-0.35,0.24
2022-01-30 18:52:43.4370,-0.141,-1.083,-0.657,2.66,4.33,-0.77,0.82,-0.28,0.27
2022-01-30 18:52:43.4480,-0.171,-1.04,-0.666,2.89,3.94,-0.72,0.82,-0.28,0.25
2022-01-30 18:52:43.4570,-0.199,-0.995,-0.678,3.15,3.44,-0.57,0.85,-0.33,0.19
2022-01-30 18:52:43.4670,-0.226,-0.947,-0.689,3.38,2.94,-0.39,0.9,-0.41,0.07
2022-01-30 18:52:43.4770,-0.24,-0.904,-0.689,3.59,2.38,-0.27,0.9,-0.41,0.07
2022-01-30 18:52:43.4870,-0.241,-0.891,-0.684,3.589366830289364,1.88,-0.23,0.97,-0.56,-0.16
2022-01-30 18:52:43.4980,-0.235,-0.886,-0.679,3.58,1.88,-0.23,0.94,-0.64,-0.23
2022-01-30 18:52:43.5070,-0.228,-0.87,-0.679,3.48,1.74,-0.2,0.91,-0.72,-0.25
2022-01-30 18:52:43.5170,-0.226,-0.839,-0.671,3.39,1.48,-0.16,0.88,-0.78,-0.25
2022-01-30 18:52:43.5270,-0.231,-0.789,-0.657,3.37,1.04,-0.23,0.88,-0.78,-0.25
2022-01-30 18:52:43.5370,-0.226,-0.734,-0.638,3.36,0.46,-0.33,0.79,-0.8,-0.3
2022-01-30 18:52:43.5480,-0.207,-0.693,-0.621,3.23,-0.1,-0.48,0.79,-0.8,-0.3
2022-01-30 18:52:43.5580,-0.173,-0.673,-0.611,2.96,-0.47,-0.58,0.7,-0.77,-0.38
2022-01-30 18:52:43.5670,-0.138,-0.683,-0.632,2.58,-0.6,-0.58,0.54,-0.79,-0.48
2022-01-30 18:52:43.5770,-0.109,-0.725,-0.684,2.24,-0.39,-0.21,0.04556615278124809,-1.01,-0.65
2022-01-30 18:52:43.5880,-0.095,-0.762,-0.741,1.98,0.07,0.32,-0.23,-1.17,-0.74
2022-01-30 18:52:43.5980,-0.104,-0.756,-0.81,1.89,0.32,0.89,-0.44,-1.36,-0.88
2022-01-30 18:52:43.6070,-0.127,-0.7,-0.889,2.02,0.12,1.57,-0.57,-1.53,-1.07
2022-01-30 18:52:43.6170,-0.15,-0.614,-0.945,2.24,-0.53,2.24,-0.57,-1.53,-1.07
2022-01-30 18:52:43.6280,-0.167,-0.512,-0.987,2.42,-1.37,2.65,-0.6,-1.61,-1.33
2022-01-30 18:52:43.6370,-0.168,-0.398,-1.032,2.47,-3.43,3.42,-0.46,-1.46,-1.9
2022-01-30 18:52:43.6480,-0.132,-0.3,-1.08,2.47,-3.43,3.42,-0.31,-1.29,-2.07
2022-01-30 18:52:43.6570,-0.067,-0.28,-1.123,2.08,-4.15,3.85,-0.14,-1.17,-2.02
2022-01-30 18:52:43.6680,0.027,-0.33,-1.163,1.36,-3.95,4.23,0.06,-1.2,-1.8
2022-01-30 18:52:43.6780,0.11,-0.337,-1.182,0.46,-3.52,4.57,0.26,-1.35,-1.53
2022-01-30 18:52:43.6880,0.153,-0.32,-1.152,-0.52,-3.75,4.19,0.45,-1.56,-1.24
2022-01-30 18:52:43.6990,0.167,-0.317,-1.106,-0.52,-3.75,4.19,0.45,-1.56,-1.24
2022-01-30 18:52:43.7080,0.164,-0.315,-1.061,-0.64,-3.8,3.77,0.58,-1.81,-1.01
2022-01-30 18:52:43.7180,0.144,-0.335,-1.022,-0.64,-3.8,3.35,0.61,-2.34,-0.77
2022-01-30 18:52:43.7280,0.113,-0.365,-1.005,-0.49,-3.56,3.06,0.56,-2.69,-0.75
2022-01-30 18:52:43.7380,0.083,-0.392,-1.003,-0.19,-3.06,2.98,0.56,-2.69,-0.75
2022-01-30 18:52:43.7480,0.056,-0.423,-0.997,-0.19,-3.06,2.98,0.56,-3.42,-0.83
2022-01-30 18:52:43.7580,0.026,-0.437,-0.99,-0.09,-2.83,2.95,0.65,-3.76,-0.93
2022-01-30 18:52:43.7680,-0.001,-0.426,-0.971,0.01,-2.83,2.88,0.76,-4.03,-1.08
2022-01-30 18:52:43.7780,-0.025,-0.405,-0.939,0.07,-3.05,2.7,0.85,-4.18,-1.23
2022-01-30 18:52:43.7880,-0.04,-0.393,-0.891,0.08,-3.28,2.37,0.88,-4.23,-1.37
2022-01-30 18:52:43.7990,-0.046,-0.385,-0.867,0.02,-3.45,2.03,0.84,-4.18,-1.48
2022-01-30 18:52:43.8080,-0.036,-0.399,-0.851,-0.14,-3.53,1.94,0.75,-4.11,-1.56
2022-01-30 18:52:43.8180,-0.02,-0.417,-0.845,-0.43,-3.38,1.88,0.75,-4.11,-1.68
2022-01-30 18:52:43.8280,-0.009,-0.412,-0.863,-0.72,-3.34,1.99,0.46,-4.14,-1.86
2022-01-30 18:52:43.8380,-0.002,-0.405,-0.89,-1.08,-3.55,2.55,0.29,-4.21,-2.06
2022-01-30 18:52:43.8490,-0.002,-0.403,-0.892,-1.08,-3.55,2.55,0.29,-4.21,-2.06
2022-01-30 18:52:43.8580,-0.006,-0.39,-0.909,-1.16,-3.63,2.61,0.11,-4.27,-2.28
2022-01-30 18:52:43.8690,-0.01,-0.362,-0.941,-1.18,-3.84,2.93,-0.2,-4.41,-2.73
2022-01-30 18:52:43.8780,-0.003,-0.333,-0.975,-1.24,-4.17,3.28,-0.2,-4.41,-2.73
2022-01-30 18:52:43.8880,0.014,-0.318,-1.013,-1.6082772499322893,-4.55,4.13,-0.39,-4.47,-3.05
2022-01-30 18:52:43.8990,0.027,-0.306,-1.076,-1.61,-4.55,4.13,-0.39,-4.47,-3.05
2022-01-30 18:52:43.9080,0.036,-0.281,-1.133,-1.74,-4.75,4.84,-0.44,-4.5,-3.15
2022-01-30 18:52:43.9180,0.045,-0.262,-1.161,-1.94,-5.18,5.58,-0.45,-4.25,-3.23
2022-01-30 18:52:43.9280,0.054,-0.251,-1.19,-1.94,-5.18,5.58,-0.45,-4.25,-3.23
2022-01-30 18:52:43.9390,0.07,-0.254,-1.215,-2.03,-5.26,5.89,-0.32,-3.71,-3.24
2022-01-30 18:52:43.9490,0.102,-0.266,-1.247,-2.2,-5.22,6.15,-0.32,-3.71,-3.24
2022-01-30 18:52:43.9590,0.144,-0.271,-1.29,-2.52,-5.14,6.57,-0.06,-3.53,-3.34
2022-01-30 18:52:43.9690,0.189,-0.279,-1.327,-2.9,-5.14,7.0,-0.06,-3.53,-3.34
2022-01-30 18:52:43.9790,0.227,-0.29,-1.358,-3.27,-5.08,7.42,0.19,-3.93,-3.38
2022-01-30 18:52:43.9890,0.254,-0.289,-1.362,-3.56,-5.06,7.69,0.25,-4.18,-3.36
2022-01-30 18:52:43.9990,0.272,-0.282,-1.367,-3.76,-5.17,7.77,0.28,-4.4,-3.34
2022-01-30 18:52:44.0090,0.283,-0.277,-1.362,-3.89,-5.28,7.89,0.3,-4.52,-3.35
2022-01-30 18:52:44.0190,0.296,-0.268,-1.342,-3.97,-5.39,7.84,0.33,-4.54,-3.41
2022-01-30 18:52:44.0290,0.315,-0.26,-1.316,-4.08,-5.54,7.7,0.33,-4.54,-3.41
2022-01-30 18:52:44.0390,0.336,-0.251,-1.285,-4.24,-5.67,7.5,0.32,-4.25,-3.57
2022-01-30 18:52:44.0490,0.357,-0.246,-1.242,-4.39,-5.81,7.22,0.29,-3.95,-3.61
2022-01-30 18:52:44.0590,0.377,-0.257,-1.19,-4.48,-5.86,6.83,0.29,-3.95,-3.61
2022-01-30 18:52:44.0690,0.413,-0.289,-1.153,-4.61,-5.73,6.38,0.17,-3.44,-3.57
2022-01-30 18:52:44.0790,0.457,-0.341,-1.134,-4.88,-5.36,6.15,0.1,-3.37,-3.49
2022-01-30 18:52:44.0980,0.504,-0.394,-1.104,-5.53,-4.41,5.67,0.1,-3.37,-3.49
2022-01-30 18:52:44.0980,0.542,-0.423,-1.074,-5.53,-4.41,5.67,0.06,-3.4,-3.4
2022-01-30 18:52:44.1050,0.569,-0.436,-1.053,-5.78,-4.23,5.43,0.02,-3.54,-3.3
2022-01-30 18:52:44.1150,0.581,-0.462,-1.023,-5.9,-4.09,5.22,-0.03,-3.74,-3.19
2022-01-30 18:52:44.1250,0.583,-0.499,-0.989,-5.92,-3.77,4.88,-0.07,-3.92,-3.03
2022-01-30 18:52:44.1350,0.571,-0.532,-0.967,-5.86,-3.42,4.6,-0.1,-4.06,-2.85
2022-01-30 18:52:44.1450,0.55,-0.564,-0.937,-5.67,-3.1,4.37,-0.1,-4.14,-2.68
2022-01-30 18:52:44.1550,0.529,-0.595,-0.894,-5.47,-2.78,4.02,-0.09,-4.11,-2.54
2022-01-30 18:52:44.1650,0.504,-0.621,-0.848,-5.23,-2.5,3.57,-0.1,-3.98,-2.46
2022-01-30 18:52:44.1750,0.478,-0.647,-0.787,-4.97,-2.23,3.09,-0.13,-3.72,-2.42
2022-01-30 18:52:44.1850,0.456,-0.655,-0.714,-4.68,-2.02,2.39,-0.17,-3.32,-2.44
2022-01-30 18:52:44.1960,0.442,-0.65,-0.667,-4.43,-2.0,1.72,-0.27,-2.86,-2.49
2022-01-30 18:52:44.2050,0.439,-0.661,-0.637,-4.24,-1.98,1.32,-0.44,-2.42,-2.54
2022-01-30 18:52:44.2160,0.439,-0.682,-0.611,-4.12,-1.77,0.97,-0.64,-2.03,-2.55
2022-01-30 18:52:44.2260,0.442,-0.688,-0.611,-4.01,-1.56,0.71,-0.85,-1.72,-2.54
2022-01-30 18:52:44.2350,0.445,-0.681,-0.625,-3.91,-1.5,0.71,-1.01,-1.56,-2.53
2022-01-30 18:52:44.2460,0.454,-0.668,-0.634,-3.83,-1.52,0.73,-1.09,-1.51,-2.55
2022-01-30 18:52:44.2550,0.479,-0.664,-0.643,-3.84,-1.55,0.72,-1.11,-1.55,-2.6
2022-01-30 18:52:44.2650,0.512,-0.669,-0.657,-4.01,-1.47,0.71,-1.07,-1.62,-2.66
2022-01-30 18:52:44.2750,0.536,-0.671,-0.673,-4.2,-1.34,0.79,-0.96,-1.73,-2.69
2022-01-30 18:52:44.2860,0.543,-0.657,-0.655,-4.27,-1.3,0.76,-0.79,-1.79,-2.68
2022-01-30 18:52:44.2960,0.539,-0.651,-0.624,-4.19,-1.38,0.44,-0.59,-1.77,-2.59
2022-01-30 18:52:44.3050,0.532,-0.662,-0.589,-4.04,-1.31,0.05,-0.41,-1.66,-2.39
2022-01-30 18:52:44.3160,0.527,-0.676,-0.568,-3.91,-1.13,-0.29,-0.27,-1.52,-2.08
2022-01-30 18:52:44.3260,0.522,-0.689,-0.558,-3.82,-0.98,-0.49,-0.19,-1.38,-1.7
2022-01-30 18:52:44.3360,0.513,-0.709,-0.568,-3.74,-0.8,-0.56,-0.2,-1.29,-1.3
2022-01-30 18:52:44.3460,0.5,-0.732,-0.592,-3.64,-0.55,-0.4,-0.24,-1.27,-0.95
2022-01-30 18:52:44.3560,0.482,-0.75,-0.602,-3.52,-0.31,-0.25,-0.28,-1.28,-0.66
2022-01-30 18:52:44.3660,0.469,-0.765,-0.61,-3.39,-0.13,-0.21,-0.27,-1.31,-0.46
2022-01-30 18:52:44.3760,0.46,-0.786,-0.611,-3.36,0.05,-0.19,-0.22,-1.33,-0.31
2022-01-30 18:52:44.3860,0.444,-0.788,-0.611,-3.32,0.24,-0.22,-0.14,-1.35,-0.19
2022-01-30 18:52:44.3960,0.418,-0.773,-0.61,-3.2,0.18,-0.25,-0.06,-1.36,-0.11
2022-01-30 18:52:44.4060,0.388,-0.769,-0.612,-3.0,0.05,-0.26,-0.02,-1.34,-0.06
2022-01-30 18:52:44.4160,0.357,-0.778,-0.603,-2.78,0.07,-0.29,-0.03,-1.28,-0.03
2022-01-30 18:52:44.4270,0.327,-0.78,-0.597,-2.55,0.17,-0.41,-0.08,-1.16,-0.01
2022-01-30 18:52:44.4360,0.297,-0.773,-0.596,-2.32,0.15,-0.45,-0.13,-1.01,-0.03
2022-01-30 18:52:44.4460,0.273,-0.76,-0.583,-2.08,0.07,-0.52,-0.15,-0.83,-0.09
2022-01-30 18:52:44.4560,0.258,-0.746,-0.576,-1.91,-0.05,-0.66,-0.12,-0.61,-0.16
2022-01-30 18:52:44.4660,0.245,-0.735,-0.573,-1.78,-0.18,-0.7,-0.04,-0.39,-0.21
2022-01-30 18:52:44.4760,0.226,-0.722,-0.56,-1.64,-0.29,-0.76,0.08,-0.18,-0.24
2022-01-30 18:52:44.4860,0.198,-0.712,-0.551,-1.41,-0.44,-0.87,0.19,-0.01,-0.24
2022-01-30 18:52:44.4960,0.152,-0.699,-0.538,-1.05,-0.53,-0.94,0.27,0.07,-0.24
2022-01-30 18:52:44.5060,0.113,-0.685,-0.532,-0.57,-0.7,-1.06,0.33,-0.01,-0.28
2022-01-30 18:52:44.5160,0.093,-0.68,-0.537,-0.24,-0.82,-1.01,0.39,-0.23,-0.37
2022-01-30 18:52:44.5260,0.087,-0.671,-0.503,-0.09,-0.89,-1.06,0.44,-0.43,-0.49
2022-01-30 18:52:44.5360,0.071,-0.621,-0.495,0.0,-1.13,-1.37,0.44,-0.53,-0.55
2022-01-30 18:52:44.5470,0.117,-0.666,-0.473,-0.01,-1.51,-1.31,0.33,-0.46,-0.56
2022-01-30 18:52:44.5560,0.108,-0.734,-0.378,-0.37,-0.69,-1.86,0.3,-0.08,-0.46
2022-01-30 18:52:44.5670,0.107,-0.708,-0.404,-0.11,-0.45,-2.54,0.28,0.38,-0.3
2022-01-30 18:52:44.5770,0.121,-0.716,-0.453,-0.17,-0.71,-1.87,0.14,0.69,-0.22
2022-01-30 18:52:44.5870,0.141,-0.76,-0.454,-0.22,-0.43,-1.7,-0.06,0.93,-0.2
2022-01-30 18:52:44.5970,0.167,-0.812,-0.503,-0.4,0.06,-1.53,-0.26,1.02,-0.2
2022-01-30 18:52:44.6070,0.181,-0.843,-0.519,-0.53,0.58,-1.09,-0.38,0.94,-0.22
2022-01-30 18:52:44.6170,0.194,-0.851,-0.501,-0.58,0.76,-1.15,-0.39,0.82,-0.29
2022-01-30 18:52:44.6270,0.206,-0.873,-0.512,-0.65,0.92,-1.28,-0.33,0.61,-0.38
2022-01-30 18:52:44.6370,0.216,-0.902,-0.538,-0.7,1.17,-1.08,-0.3,0.28,-0.48
2022-01-30 18:52:44.6470,0.227,-0.97,-0.535,-0.77,1.62,-0.94,-0.36,-0.07,-0.55
2022-01-30 18:52:44.6570,0.233,-1.024,-0.518,-0.84,2.37,-1.09,-0.47,-0.32,-0.56
2022-01-30 18:52:44.6670,0.228,-1.036,-0.512,-0.86,2.76,-1.29,-0.57,-0.42,-0.54
2022-01-30 18:52:44.6770,0.217,-1.044,-0.516,-0.75,2.87,-1.37,-0.61,-0.4,-0.5
2022-01-30 18:52:44.6870,0.212,-1.06,-0.557,-0.61,3.25,-0.88,-0.59,-0.23,-0.33
2022-01-30 18:52:44.6990,0.207,-1.08,-0.582,-0.61,3.25,-0.88,-0.53,-0.06,-0.25
2022-01-30 18:52:44.7090,0.198,-1.094,-0.591,-0.53,3.48,-0.79,-0.46,0.1,-0.23
2022-01-30 18:52:44.7190,0.187,-1.091,-0.603,-0.41,3.59,-0.71,-0.37,0.22,-0.26
2022-01-30 18:52:44.7290,0.179,-1.083,-0.611,-0.27,3.54,-0.63,-0.37,0.22,-0.26
2022-01-30 18:52:44.7390,0.185,-1.08,-0.61,-0.2,3.51,-0.6,-0.09,0.19,-0.33
2022-01-30 18:52:44.7490,0.194,-1.071,-0.584,-0.26,3.47,-0.67,0.06,0.13,-0.29
2022-01-30 18:52:44.7590,0.212,-1.071,-0.546,-0.32,3.4,-1.02,0.19,0.01,-0.18
2022-01-30 18:52:44.7700,0.25,-1.098,-0.517,-0.57,3.48,-1.33,0.19,0.01,-0.18
2022-01-30 18:52:44.7790,0.285,-1.133,-0.489,-0.97,3.81,-1.61,0.29,-0.16,-0.02
2022-01-30 18:52:44.7890,0.304,-1.147,-0.469,-1.42,4.14,-2.02,0.28,-0.49,0.24
