
time,gFx,gFy,gFz,ax,ay,az,wx,wy,wz,
0.020699,0.1350,0.3708,0.9706,0.0000,0.0000,0.0000,0.0000,0.0000,0.0000,
0.043048,0.1548,0.3524,0.9298,0.0000,0.0000,0.0000,0.0000,0.0000,0.0000,
0.044311,0.1788,0.3175,0.8846,0.0000,0.0000,0.0000,0.0000,0.0000,0.0000,
0.045031,0.1849,0.2076,0.8033,0.0000,0.0000,0.0000,0.0000,0.0000,0.0000,
0.045648,0.3200,0.1250,0.7322,0.0000,0.0000,0.0000,0.0000,0.0000,0.0000,
0.046336,0.4236,0.1739,0.7407,0.0000,0.0000,0.0000,0.0000,0.0000,0.0000,
0.046991,0.4282,0.2364,0.7757,0.0000,0.0000,0.0000,0.0000,0.0000,0.0000,
0.048930,0.4028,0.2760,0.7749,0.0000,0.0000,0.0000,0.0000,0.0000,0.0000,
0.050316,0.4028,0.2760,0.7749,0.0000,0.0000,0.0000,1.2333,-1.9344,0.0675,
0.056802,0.3373,0.2598,0.8177,0.0000,0.0000,0.0000,1.2333,-1.9344,0.0675,
0.057752,0.3122,0.2633,0.8099,0.0000,0.0000,0.0000,1.2333,-1.9344,0.0675,
0.061877,0.3146,0.2884,0.6743,0.0000,0.0000,0.0000,1.2333,-1.9344,0.0675,
0.066938,0.3444,0.3312,0.3120,0.0000,0.0000,0.0000,1.2333,-1.9344,0.0675,
0.072008,0.4094,0.3588,0.1786,0.0000,0.0000,0.0000,1.2333,-1.9344,0.0675,
0.076778,0.3517,0.4162,0.4803,0.0000,0.0000,0.0000,1.2333,-1.9344,0.0675,
0.084120,0.2626,0.4807,0.6002,0.0000,0.0000,0.0000,1.2333,-1.9344,0.0675,
0.087386,0.2525,0.4282,0.3620,0.0000,0.0000,0.0000,1.2333,-1.9344,0.0675,
0.087903,0.2525,0.4282,0.3620,0.0000,0.0000,0.0000,2.3497,-1.9045,0.2689,
0.088687,0.2525,0.4282,0.3620,0.0000,0.0000,-0.0000,2.3497,-1.9045,0.2689,
0.093309,0.2914,0.4228,0.2939,0.0000,0.0000,-0.0000,2.3497,-1.9045,0.2689,
0.098102,0.2689,0.4607,0.3926,0.0000,0.0000,-0.0000,2.3497,-1.9045,0.2689,
0.103801,0.2237,0.4990,0.3501,0.0000,0.0000,-0.0000,2.3497,-1.9045,0.2689,
0.108399,0.2340,0.5068,0.2462,0.0000,0.0000,-0.0000,2.3497,-1.9045,0.2689,
0.112844,0.3009,0.4844,0.3498,0.0000,0.0000,-0.0000,2.3497,-1.9045,0.2689,
0.117169,0.3815,0.4746,0.2433,0.0000,0.0000,-0.0000,2.3497,-1.9045,0.2689,
0.123202,0.4526,0.4521,0.1490,0.0000,0.0000,-0.0000,2.3497,-1.9045,0.2689,
0.127467,0.4785,0.4152,0.1517,0.0000,0.0000,-0.0000,2.3497,-1.9045,0.2689,
0.128821,0.4785,0.4152,0.1517,0.0000,0.0000,-0.0000,1.4996,-2.7589,-0.6089,
0.130136,0.4785,0.4152,0.1517,0.0000,0.0000,-0.0000,1.4996,-2.7589,-0.6089,
0.133215,0.4468,0.3935,0.1969,0.0000,0.0000,-0.0000,1.4996,-2.7589,-0.6089,
0.136656,0.4033,0.3749,0.2756,0.0000,0.0000,-0.0000,1.4996,-2.7589,-0.6089,
0.142122,0.3285,0.3563,0.3542,0.0000,0.0000,-0.0000,1.4996,-2.7589,-0.6089,
0.150352,0.2100,0.3563,0.4737,0.0000,0.0000,-0.0000,1.4996,-2.7589,-0.6089,
0.154367,0.1074,0.3822,0.6183,0.0000,0.0000,-0.0000,1.4996,-2.7589,-0.6089,
0.157463,0.0358,0.4250,0.7590,0.0000,0.0000,-0.0000,1.4996,-2.7589,-0.6089,
0.163513,-0.0223,0.3993,0.8570,0.0000,0.0000,-0.0000,1.4996,-2.7589,-0.6089,
0.168409,-0.0191,0.3368,0.9149,0.0000,0.0000,-0.0000,1.4996,-2.7589,-0.6089,
0.169539,-0.0191,0.3368,0.9149,0.0000,0.0000,-0.0000,-1.9838,0.7182,-0.5269,
0.170839,-0.0191,0.3368,0.9149,0.1237,0.9386,-1.9345,-1.9838,0.7182,-0.5269,
0.172204,0.0725,0.2926,0.9105,0.1237,0.9386,-1.9345,-1.9838,0.7182,-0.5269,
0.177086,0.2012,0.2398,0.8499,0.1237,0.9386,-1.9345,-1.9838,0.7182,-0.5269,
0.183101,0.2948,0.2168,0.7632,0.1237,0.9386,-1.9345,-1.9838,0.7182,-0.5269,
0.187360,0.3605,0.2212,0.7361,0.1237,0.9386,-1.9345,-1.9838,0.7182,-0.5269,
0.191381,0.4018,0.2371,0.8177,0.1237,0.9386,-1.9345,-1.9838,0.7182,-0.5269,
0.196540,0.4355,0.2645,0.9701,0.1237,0.9386,-1.9345,-1.9838,0.7182,-0.5269,
0.201401,0.4700,0.2750,1.1367,0.1237,0.9386,-1.9345,-1.9838,0.7182,-0.5269,
0.209031,0.4873,0.2484,1.2718,0.1237,0.9386,-1.9345,-1.9838,0.7182,-0.5269,
0.210182,0.4873,0.2484,1.2718,0.1237,0.9386,-1.9345,-3.4198,2.9403,0.8675,
0.210940,0.4873,0.2484,1.2718,0.3171,0.8698,-1.3308,-3.4198,2.9403,0.8675,
0.212669,0.4868,0.2147,1.3410,0.3171,0.8698,-1.3308,-3.4198,2.9403,0.8675,
0.218908,0.4497,0.1885,1.3100,0.3171,0.8698,-1.3308,-3.4198,2.9403,0.8675,
0.222117,0.3979,0.1609,1.2240,0.3171,0.8698,-1.3308,-3.4198,2.9403,0.8675,
0.228341,0.3427,0.1423,1.1348,0.3171,0.8698,-1.3308,-3.4198,2.9403,0.8675,
0.233178,0.2816,0.1382,1.0371,0.3171,0.8698,-1.3308,-3.4198,2.9403,0.8675,
0.237761,0.2169,0.1494,0.9371,0.3171,0.8698,-1.3308,-3.4198,2.9403,0.8675,
0.242427,0.1653,0.1611,0.8260,0.3171,0.8698,-1.3308,-3.4198,2.9403,0.8675,
0.250133,0.1299,0.1633,0.7163,0.3171,0.8698,-1.3308,-3.4198,2.9403,0.8675,
0.251870,0.1299,0.1633,0.7163,0.3171,0.8698,-1.3308,-1.2210,-0.1586,0.2209,
0.252831,0.1299,0.1633,0.7163,-0.3095,-0.2041,3.0948,-1.2210,-0.1586,0.2209,
0.256410,0.1226,0.1624,0.6066,-0.3095,-0.2041,3.0948,-1.2210,-0.1586,0.2209,
0.257603,0.1255,0.1602,0.5108,-0.3095,-0.2041,3.0948,-1.2210,-0.1586,0.2209,
0.261052,0.1546,0.1663,0.4554,-0.3095,-0.2041,3.0948,-1.2210,-0.1586,0.2209,
0.266727,0.2213,0.1868,0.4456,-0.3095,-0.2041,3.0948,-1.2210,-0.1586,0.2209,
0.272415,0.2972,0.2049,0.4490,-0.3095,-0.2041,3.0948,-1.2210,-0.1586,0.2209,
0.276040,0.3747,0.2142,0.4752,-0.3095,-0.2041,3.0948,-1.2210,-0.1586,0.2209,
0.280707,0.4463,0.2151,0.5174,-0.3095,-0.2041,3.0948,-1.2210,-0.1586,0.2209,
0.292643,0.5039,0.2041,0.5651,-0.3095,-0.2041,3.0948,-1.2210,-0.1586,0.2209,
0.294412,0.5039,0.2041,0.5651,-0.3095,-0.2041,3.0948,0.4781,-2.2816,-0.3085,
0.295405,0.5039,0.2041,0.5651,-0.6126,-1.1413,1.5441,0.4781,-2.2816,-0.3085,
0.296391,0.5332,0.1873,0.6447,-0.6126,-1.1413,1.5441,0.4781,-2.2816,-0.3085,
0.297424,0.5535,0.1653,0.7358,-0.6126,-1.1413,1.5441,0.4781,-2.2816,-0.3085,
0.303108,0.5718,0.1499,0.8143,-0.6126,-1.1413,1.5441,0.4781,-2.2816,-0.3085,
0.306435,0.5787,0.1477,0.8665,-0.6126,-1.1413,1.5441,0.4781,-2.2816,-0.3085,
0.313845,0.5740,0.1428,0.8983,-0.6126,-1.1413,1.5441,0.4781,-2.2816,-0.3085,
0.318867,0.5929,0.1120,0.9171,-0.6126,-1.1413,1.5441,0.4781,-2.2816,-0.3085,
0.321397,0.5740,0.0905,0.9288,-0.6126,-1.1413,1.5441,0.4781,-2.2816,-0.3085,
0.326932,0.5320,0.0664,0.9178,-0.6126,-1.1413,1.5441,0.4781,-2.2816,-0.3085,
0.328296,0.5320,0.0664,0.9178,-0.6126,-1.1413,1.5441,-0.3273,-2.5064,0.2976,
0.329268,0.5320,0.0664,0.9178,-0.9263,-0.7678,1.3843,-0.3273,-2.5064,0.2976,
0.333098,0.4626,0.0361,0.8895,-0.9263,-0.7678,1.3843,-0.3273,-2.5064,0.2976,
0.339370,0.3796,0.0136,0.8472,-0.9263,-0.7678,1.3843,-0.3273,-2.5064,0.2976,
0.342112,0.3148,0.0050,0.8084,-0.9263,-0.7678,1.3843,-0.3273,-2.5064,0.2976,
0.347421,0.2762,-0.0089,0.7578,-0.9263,-0.7678,1.3843,-0.3273,-2.5064,0.2976,
0.351299,0.2562,-0.0240,0.6950,-0.9263,-0.7678,1.3843,-0.3273,-2.5064,0.2976,
0.357743,0.2711,-0.0304,0.6442,-0.9263,-0.7678,1.3843,-0.3273,-2.5064,0.2976,
0.361429,0.3266,-0.0204,0.6012,-0.9263,-0.7678,1.3843,-0.3273,-2.5064,0.2976,
0.366913,0.4101,-0.0001,0.5531,-0.9263,-0.7678,1.3843,-0.3273,-2.5064,0.2976,
0.368552,0.4101,-0.0001,0.5531,-0.9263,-0.7678,1.3843,-0.2485,-3.0124,0.3179,
0.369571,0.4101,-0.0001,0.5531,0.6705,-0.9281,1.5845,-0.2485,-3.0124,0.3179,
0.370938,0.4912,0.0300,0.4996,0.6705,-0.9281,1.5845,-0.2485,-3.0124,0.3179,
0.376332,0.5657,0.0610,0.4568,0.6705,-0.9281,1.5845,-0.2485,-3.0124,0.3179,
0.380266,0.6327,0.0888,0.4199,0.6705,-0.9281,1.5845,-0.2485,-3.0124,0.3179,
0.385346,0.6872,0.1020,0.3965,0.6705,-0.9281,1.5845,-0.2485,-3.0124,0.3179,
0.390449,0.7140,0.1013,0.3967,0.6705,-0.9281,1.5845,-0.2485,-3.0124,0.3179,
0.394439,0.7072,0.0788,0.4148,0.6705,-0.9281,1.5845,-0.2485,-3.0124,0.3179,
0.400196,0.6701,0.0446,0.4424,0.6705,-0.9281,1.5845,-0.2485,-3.0124,0.3179,
0.405055,0.6202,-0.0001,0.4720,0.6705,-0.9281,1.5845,-0.2485,-3.0124,0.3179,
0.406656,0.6202,-0.0001,0.4720,0.6705,-0.9281,1.5845,0.6346,-3.8923,0.9687,
0.407789,0.6202,-0.0001,0.4720,-0.2505,-1.4383,-0.2799,0.6346,-3.8923,0.9687,
0.411937,0.5662,-0.0553,0.5201,-0.2505,-1.4383,-0.2799,0.6346,-3.8923,0.9687,
0.417337,0.5179,-0.1008,0.5726,-0.2505,-1.4383,-0.2799,0.6346,-3.8923,0.9687,
0.421915,0.4866,-0.1445,0.6364,-0.2505,-1.4383,-0.2799,0.6346,-3.8923,0.9687,
0.425496,0.4837,-0.1750,0.6994,-0.2505,-1.4383,-0.2799,0.6346,-3.8923,0.9687,
0.434218,0.5030,-0.1872,0.7410,-0.2505,-1.4383,-0.2799,0.6346,-3.8923,0.9687,
0.435849,0.5340,-0.1838,0.7559,-0.2505,-1.4383,-0.2799,0.6346,-3.8923,0.9687,
0.442012,0.5743,-0.1738,0.7395,-0.2505,-1.4383,-0.2799,0.6346,-3.8923,0.9687,
0.443822,0.6197,-0.1618,0.7077,-0.2505,-1.4383,-0.2799,0.6346,-3.8923,0.9687,
0.445279,0.6197,-0.1618,0.7077,-0.2505,-1.4383,-0.2799,0.4653,-4.6678,1.3714,
0.446274,0.6197,-0.1618,0.7077,-1.0292,-1.0124,0.6801,0.4653,-4.6678,1.3714,
0.450873,0.6749,-0.1503,0.6687,-1.0292,-1.0124,0.6801,0.4653,-4.6678,1.3714,
0.457580,0.7326,-0.1376,0.6015,-1.0292,-1.0124,0.6801,0.4653,-4.6678,1.3714,
0.460062,0.7834,-0.1240,0.5196,-1.0292,-1.0124,0.6801,0.4653,-4.6678,1.3714,
0.464513,0.8357,-0.1103,0.4412,-1.0292,-1.0124,0.6801,0.4653,-4.6678,1.3714,
0.468862,0.8785,-0.0883,0.3684,-1.0292,-1.0124,0.6801,0.4653,-4.6678,1.3714,
0.474128,0.9222,-0.0812,0.3103,-1.0292,-1.0124,0.6801,0.4653,-4.6678,1.3714,
0.478912,0.9197,-0.1095,0.2590,-1.0292,-1.0124,0.6801,0.4653,-4.6678,1.3714,
0.486148,0.8782,-0.1565,0.2145,-1.0292,-1.0124,0.6801,0.4653,-4.6678,1.3714,
0.488084,0.8782,-0.1565,0.2145,-1.0292,-1.0124,0.6801,1.5146,-5.2740,2.1427,
0.489270,0.8782,-0.1565,0.2145,-0.6230,-2.0132,2.5941,1.5146,-5.2740,2.1427,
0.490257,0.8289,-0.1933,0.1796,-0.6230,-2.0132,2.5941,1.5146,-5.2740,2.1427,
0.493880,0.7849,-0.2119,0.1505,-0.6230,-2.0132,2.5941,1.5146,-5.2740,2.1427,
0.501016,0.7541,-0.2295,0.1102,-0.6230,-2.0132,2.5941,1.5146,-5.2740,2.1427,
0.505014,0.7343,-0.2456,0.0877,-0.6230,-2.0132,2.5941,1.5146,-5.2740,2.1427,
0.511293,0.7260,-0.2595,0.0857,-0.6230,-2.0132,2.5941,1.5146,-5.2740,2.1427,
0.515537,0.7314,-0.2769,0.1168,-0.6230,-2.0132,2.5941,1.5146,-5.2740,2.1427,
0.522094,0.7614,-0.2981,0.1710,-0.6230,-2.0132,2.5941,1.5146,-5.2740,2.1427,
0.525416,0.8164,-0.3262,0.2230,-0.6230,-2.0132,2.5941,1.5146,-5.2740,2.1427,
0.526962,0.8164,-0.3262,0.2230,-0.6230,-2.0132,2.5941,2.1889,-4.6870,2.7136,
0.528078,0.8164,-0.3262,0.2230,-1.0088,-1.2702,3.3841,2.1889,-4.6870,2.7136,
0.531071,0.8948,-0.3575,0.2699,-1.0088,-1.2702,3.3841,2.1889,-4.6870,2.7136,
0.535554,0.9921,-0.3841,0.3078,-1.0088,-1.2702,3.3841,2.1889,-4.6870,2.7136,
0.541222,1.0834,-0.4039,0.3391,-1.0088,-1.2702,3.3841,2.1889,-4.6870,2.7136,
0.544167,1.1868,-0.4210,0.3569,-1.0088,-1.2702,3.3841,2.1889,-4.6870,2.7136,
0.550810,1.2860,-0.4232,0.3613,-1.0088,-1.2702,3.3841,2.1889,-4.6870,2.7136,
0.554973,1.3732,-0.4037,0.3596,-1.0088,-1.2702,3.3841,2.1889,-4.6870,2.7136,
0.561023,1.4438,-0.3766,0.3384,-1.0088,-1.2702,3.3841,2.1889,-4.6870,2.7136,
0.562835,1.4970,-0.3536,0.3015,-1.0088,-1.2702,3.3841,2.1889,-4.6870,2.7136,
0.564206,1.4970,-0.3536,0.3015,-1.0088,-1.2702,3.3841,2.3945,-4.7744,3.3049,
0.565157,1.4970,-0.3536,0.3015,0.5317,-1.3096,0.5251,2.3945,-4.7744,3.3049,
0.569443,1.5405,-0.3324,0.2736,0.5317,-1.3096,0.5251,2.3945,-4.7744,3.3049,
0.574744,1.5818,-0.3106,0.2506,0.5317,-1.3096,0.5251,2.3945,-4.7744,3.3049,
0.578018,1.6507,-0.2828,0.2157,0.5317,-1.3096,0.5251,2.3945,-4.7744,3.3049,
0.583804,1.7181,-0.2378,0.1654,0.5317,-1.3096,0.5251,2.3945,-4.7744,3.3049,
0.589077,1.7318,-0.1897,0.0887,0.5317,-1.3096,0.5251,2.3945,-4.7744,3.3049,
0.593122,1.6864,-0.1630,0.0066,0.5317,-1.3096,0.5251,2.3945,-4.7744,3.3049,
0.597478,1.6163,-0.1621,-0.0643,0.5317,-1.3096,0.5251,2.3945,-4.7744,3.3049,
0.603076,1.5369,-0.1867,-0.1295,0.5317,-1.3096,0.5251,2.3945,-4.7744,3.3049,
0.604562,1.5369,-0.1867,-0.1295,0.5317,-1.3096,0.5251,2.7567,-2.3242,3.9057,
0.605785,1.5369,-0.1867,-0.1295,6.3996,-0.8501,1.2712,2.7567,-2.3242,3.9057,
0.607613,1.4601,-0.2315,-0.1869,6.3996,-0.8501,1.2712,2.7567,-2.3242,3.9057,
0.615045,1.3776,-0.2845,-0.2306,6.3996,-0.8501,1.2712,2.7567,-2.3242,3.9057,
0.618806,1.3009,-0.3370,-0.2653,6.3996,-0.8501,1.2712,2.7567,-2.3242,3.9057,
0.624499,1.2434,-0.3714,-0.2863,6.3996,-0.8501,1.2712,2.7567,-2.3242,3.9057,
0.629659,1.2144,-0.3961,-0.3037,6.3996,-0.8501,1.2712,2.7567,-2.3242,3.9057,
0.633663,1.2158,-0.4132,-0.3061,6.3996,-0.8501,1.2712,2.7567,-2.3242,3.9057,
0.639749,1.2439,-0.4193,-0.2876,6.3996,-0.8501,1.2712,2.7567,-2.3242,3.9057,
0.642369,1.2686,-0.4296,-0.2582,6.3996,-0.8501,1.2712,2.7567,-2.3242,3.9057,
0.643629,1.2686,-0.4296,-0.2582,6.3996,-0.8501,1.2712,3.1689,-0.9586,2.7957,
0.644579,1.2686,-0.4296,-0.2582,5.9134,-0.0635,1.1095,3.1689,-0.9586,2.7957,
0.650717,1.2930,-0.4367,-0.2145,5.9134,-0.0635,1.1095,3.1689,-0.9586,2.7957,
0.658075,1.3241,-0.4369,-0.1559,5.9134,-0.0635,1.1095,3.1689,-0.9586,2.7957,
0.659914,1.3724,-0.4369,-0.1224,5.9134,-0.0635,1.1095,3.1689,-0.9586,2.7957,
0.662508,1.4474,-0.4428,-0.1263,5.9134,-0.0635,1.1095,3.1689,-0.9586,2.7957,
0.667717,1.5049,-0.4374,-0.1471,5.9134,-0.0635,1.1095,3.1689,-0.9586,2.7957,
0.674567,1.5317,-0.4110,-0.1564,5.9134,-0.0635,1.1095,3.1689,-0.9586,2.7957,
0.676651,1.5398,-0.3827,-0.1937,5.9134,-0.0635,1.1095,3.1689,-0.9586,2.7957,
0.685016,1.5417,-0.3859,-0.2204,5.9134,-0.0635,1.1095,3.1689,-0.9586,2.7957,
0.686672,1.5417,-0.3859,-0.2204,5.9134,-0.0635,1.1095,2.7588,-1.0321,2.3887,
0.687799,1.5417,-0.3859,-0.2204,4.1416,0.0432,-2.9952,2.7588,-1.0321,2.3887,
0.688977,1.5122,-0.4183,-0.2350,4.1416,0.0432,-2.9952,2.7588,-1.0321,2.3887,
0.692681,1.4614,-0.4650,-0.2438,4.1416,0.0432,-2.9952,2.7588,-1.0321,2.3887,
0.700750,1.4084,-0.5122,-0.2514,4.1416,0.0432,-2.9952,2.7588,-1.0321,2.3887,
0.707090,1.3632,-0.5447,-0.2617,4.1416,0.0432,-2.9952,2.7588,-1.0321,2.3887,
0.708823,1.3353,-0.5627,-0.2712,4.1416,0.0432,-2.9952,2.7588,-1.0321,2.3887,
0.712448,1.3211,-0.5759,-0.2783,4.1416,0.0432,-2.9952,2.7588,-1.0321,2.3887,
0.718772,1.3194,-0.5710,-0.2785,4.1416,0.0432,-2.9952,2.7588,-1.0321,2.3887,
0.722962,1.3114,-0.5539,-0.2436,4.1416,0.0432,-2.9952,2.7588,-1.0321,2.3887,
0.724381,1.3114,-0.5539,-0.2436,4.1416,0.0432,-2.9952,3.1881,-1.3495,2.1895,
0.725499,1.3114,-0.5539,-0.2436,3.9998,0.6259,-2.7321,3.1881,-1.3495,2.1895,
0.726871,1.3292,-0.5603,-0.2389,3.9998,0.6259,-2.7321,3.1881,-1.3495,2.1895,
0.736036,1.3710,-0.5798,-0.2309,3.9998,0.6259,-2.7321,3.1881,-1.3495,2.1895,
0.737756,1.3876,-0.5764,-0.2243,3.9998,0.6259,-2.7321,3.1881,-1.3495,2.1895,
0.743607,1.3724,-0.5410,-0.2306,3.9998,0.6259,-2.7321,3.1881,-1.3495,2.1895,
0.746755,1.3446,-0.4897,-0.2495,3.9998,0.6259,-2.7321,3.1881,-1.3495,2.1895,
0.753291,1.3641,-0.4166,-0.4823,3.9998,0.6259,-2.7321,3.1881,-1.3495,2.1895,
0.757014,1.4418,-0.2698,-1.3373,3.9998,0.6259,-2.7321,3.1881,-1.3495,2.1895,
0.763878,1.4255,-0.1411,-2.1741,3.9998,0.6259,-2.7321,3.1881,-1.3495,2.1895,
0.765254,1.4255,-0.1411,-2.1741,3.9998,0.6259,-2.7321,3.6238,-1.0608,1.5749,
0.766343,1.4255,-0.1411,-2.1741,4.6750,-0.0824,-2.8336,3.6238,-1.0608,1.5749,
0.767342,1.2781,-0.0602,-2.5884,4.6750,-0.0824,-2.8336,3.6238,-1.0608,1.5749,
0.773459,1.0192,-0.1181,-2.1228,4.6750,-0.0824,-2.8336,3.6238,-1.0608,1.5749,
0.777824,0.8574,-0.1946,-1.3388,4.6750,-0.0824,-2.8336,3.6238,-1.0608,1.5749,
0.781294,0.8223,-0.2933,-0.7195,4.6750,-0.0824,-2.8336,3.6238,-1.0608,1.5749,
0.787173,0.8210,-0.3575,-0.3853,4.6750,-0.0824,-2.8336,3.6238,-1.0608,1.5749,
0.791654,0.8408,-0.3807,-0.2497,4.6750,-0.0824,-2.8336,3.6238,-1.0608,1.5749,
0.796769,0.8477,-0.3822,-0.1923,4.6750,-0.0824,-2.8336,3.6238,-1.0608,1.5749,
0.801631,0.8474,-0.3751,-0.0904,4.6750,-0.0824,-2.8336,3.6238,-1.0608,1.5749,
0.803427,0.8474,-0.3751,-0.0904,4.6750,-0.0824,-2.8336,1.4538,0.4231,0.8931,
0.804823,0.8474,-0.3751,-0.0904,2.2915,1.5404,-9.4293,1.4538,0.4231,0.8931,
0.806170,0.8108,-0.3868,0.0708,2.2915,1.5404,-9.4293,1.4538,0.4231,0.8931,
0.810639,0.7272,-0.4052,0.2484,2.2915,1.5404,-9.4293,1.4538,0.4231,0.8931,
0.819133,0.5946,-0.4005,0.3660,2.2915,1.5404,-9.4293,1.4538,0.4231,0.8931,
0.821358,0.4666,-0.3829,0.3767,2.2915,1.5404,-9.4293,1.4538,0.4231,0.8931,
0.827954,0.4021,-0.3636,0.2846,2.2915,1.5404,-9.4293,1.4538,0.4231,0.8931,
0.830826,0.5044,-0.3480,0.1583,2.2915,1.5404,-9.4293,1.4538,0.4231,0.8931,
0.837976,0.5860,-0.3265,0.0322,2.2915,1.5404,-9.4293,1.4538,0.4231,0.8931,
0.842037,0.5745,-0.3021,-0.0462,2.2915,1.5404,-9.4293,1.4538,0.4231,0.8931,
0.843212,0.5745,-0.3021,-0.0462,2.2915,1.5404,-9.4293,-1.0708,2.2042,0.7674,
0.844275,0.5745,-0.3021,-0.0462,2.2769,1.6889,-9.1806,-1.0708,2.2042,0.7674,
0.845396,0.5198,-0.2999,-0.0777,2.2769,1.6889,-9.1806,-1.0708,2.2042,0.7674,
0.851495,0.4421,-0.3035,-0.1021,2.2769,1.6889,-9.1806,-1.0708,2.2042,0.7674,
0.856407,0.4109,-0.3165,-0.1048,2.2769,1.6889,-9.1806,-1.0708,2.2042,0.7674,
0.860481,0.4148,-0.3534,-0.1195,2.2769,1.6889,-9.1806,-1.0708,2.2042,0.7674,
0.865563,0.4573,-0.3783,-0.1439,2.2769,1.6889,-9.1806,-1.0708,2.2042,0.7674,
0.870259,0.4675,-0.3639,-0.1310,2.2769,1.6889,-9.1806,-1.0708,2.2042,0.7674,
0.875457,0.4795,-0.3302,-0.0894,2.2769,1.6889,-9.1806,-1.0708,2.2042,0.7674,
0.881290,0.6676,-0.3768,0.0427,2.2769,1.6889,-9.1806,-1.0708,2.2042,0.7674,
0.884038,0.6676,-0.3768,0.0427,2.2769,1.6889,-9.1806,0.6304,0.7405,0.8015,
0.885484,0.6676,-0.3768,0.0427,-3.0426,1.7037,0.3796,0.6304,0.7405,0.8015,
0.889039,1.0785,-0.4613,0.1830,-3.0426,1.7037,0.3796,0.6304,0.7405,0.8015,
0.890434,1.1836,-0.5329,0.4844,-3.0426,1.7037,0.3796,0.6304,0.7405,0.8015,
0.897205,1.0365,-0.5537,0.5590,-3.0426,1.7037,0.3796,0.6304,0.7405,0.8015,
0.900939,0.9999,-0.6116,0.5497,-3.0426,1.7037,0.3796,0.6304,0.7405,0.8015,
0.907838,0.9574,-0.7601,0.4901,-3.0426,1.7037,0.3796,0.6304,0.7405,0.8015,
0.911215,0.7844,-0.8039,0.3608,-3.0426,1.7037,0.3796,0.6304,0.7405,0.8015,
0.918453,0.6100,-0.7890,0.1043,-3.0426,1.7037,0.3796,0.6304,0.7405,0.8015,
0.925579,0.5464,-0.8061,-0.1090,-3.0426,1.7037,0.3796,0.6304,0.7405,0.8015,
0.927138,0.5464,-0.8061,-0.1090,-3.0426,1.7037,0.3796,0.9340,-0.0520,1.0359,
0.927811,0.5464,-0.8061,-0.1090,-1.2586,0.1314,1.0656,0.9340,-0.0520,1.0359,
0.928800,0.4753,-0.8442,-0.3010,-1.2586,0.1314,1.0656,0.9340,-0.0520,1.0359,
0.930980,0.3681,-0.5747,-0.5236,-1.2586,0.1314,1.0656,0.9340,-0.0520,1.0359,
0.936846,0.2291,-0.1367,0.0266,-1.2586,0.1314,1.0656,0.9340,-0.0520,1.0359,
0.940738,0.4910,-0.5820,0.0317,-1.2586,0.1314,1.0656,0.9340,-0.0520,1.0359,
0.945756,0.5904,-0.9825,-0.2841,-1.2586,0.1314,1.0656,0.9340,-0.0520,1.0359,
0.952122,0.5638,-0.9715,-0.2846,-1.2586,0.1314,1.0656,0.9340,-0.0520,1.0359,
0.956385,0.7653,-0.7188,-0.2111,-1.2586,0.1314,1.0656,0.9340,-0.0520,1.0359,
0.961642,0.9205,-0.4611,-0.0049,-1.2586,0.1314,1.0656,0.9340,-0.0520,1.0359,
0.962850,0.9205,-0.4611,-0.0049,-1.2586,0.1314,1.0656,0.4536,1.0558,1.1200,
0.963856,0.9205,-0.4611,-0.0049,-0.9025,0.4568,0.5688,0.4536,1.0558,1.1200,
0.967115,0.8882,-0.3016,0.2856,-0.9025,0.4568,0.5688,0.4536,1.0558,1.1200,
0.971402,0.8770,-0.2058,0.3584,-0.9025,0.4568,0.5688,0.4536,1.0558,1.1200,
0.979182,0.7710,-0.1147,0.4473,-0.9025,0.4568,0.5688,0.4536,1.0558,1.1200,
0.981021,0.6197,-0.1677,0.3435,-0.9025,0.4568,0.5688,0.4536,1.0558,1.1200,
0.985169,0.6004,-0.4100,0.3132,-0.9025,0.4568,0.5688,0.4536,1.0558,1.1200,
0.992444,0.6649,-0.7010,0.4500,-0.9025,0.4568,0.5688,0.4536,1.0558,1.1200,
0.994165,0.6188,-1.0228,0.4947,-0.9025,0.4568,0.5688,0.4536,1.0558,1.1200,
1.000977,0.5340,-1.1508,0.3007,-0.9025,0.4568,0.5688,0.4536,1.0558,1.1200,
1.002230,0.5340,-1.1508,0.3007,-0.9025,0.4568,0.5688,0.1606,0.6851,1.4055,
1.003194,0.5340,-1.1508,0.3007,-1.5695,1.2932,-1.1043,0.1606,0.6851,1.4055,
1.004086,0.5359,-1.0230,0.1656,-1.5695,1.2932,-1.1043,0.1606,0.6851,1.4055,
1.008693,0.5743,-0.8439,0.1524,-1.5695,1.2932,-1.1043,0.1606,0.6851,1.4055,
1.014079,0.6083,-0.6585,0.2800,-1.5695,1.2932,-1.1043,0.1606,0.6851,1.4055,
1.021747,0.5718,-0.5920,0.3063,-1.5695,1.2932,-1.1043,0.1606,0.6851,1.4055,
1.023586,0.6210,-0.5319,0.2531,-1.5695,1.2932,-1.1043,0.1606,0.6851,1.4055,
1.031358,0.7451,-0.5556,0.0376,-1.5695,1.2932,-1.1043,0.1606,0.6851,1.4055,
1.035338,0.6556,-0.5613,-0.0396,-1.5695,1.2932,-1.1043,0.1606,0.6851,1.4055,
1.041893,0.5753,-0.5701,-0.0244,-1.5695,1.2932,-1.1043,0.1606,0.6851,1.4055,
1.043233,0.5753,-0.5701,-0.0244,-1.5695,1.2932,-1.1043,0.3108,-0.5357,1.0614,
1.044046,0.5753,-0.5701,-0.0244,-1.2409,1.4909,-0.9542,0.3108,-0.5357,1.0614,
1.044849,0.6974,-0.6419,-0.0511,-1.2409,1.4909,-0.9542,0.3108,-0.5357,1.0614,
1.051660,0.7026,-0.6507,-0.1442,-1.2409,1.4909,-0.9542,0.3108,-0.5357,1.0614,
1.056439,0.6671,-0.6170,-0.1021,-1.2409,1.4909,-0.9542,0.3108,-0.5357,1.0614,
1.058971,0.7284,-0.6934,-0.0503,-1.2409,1.4909,-0.9542,0.3108,-0.5357,1.0614,
1.063438,0.7426,-0.8175,0.0530,-1.2409,1.4909,-0.9542,0.3108,-0.5357,1.0614,
1.069025,0.7937,-0.9634,0.0635,-1.2409,1.4909,-0.9542,0.3108,-0.5357,1.0614,
1.073591,0.7685,-1.0687,-0.0308,-1.2409,1.4909,-0.9542,0.3108,-0.5357,1.0614,
1.078819,0.7597,-1.0706,-0.0249,-1.2409,1.4909,-0.9542,0.3108,-0.5357,1.0614,
1.079921,0.7597,-1.0706,-0.0249,-1.2409,1.4909,-0.9542,-0.2463,-0.0318,1.0369,
1.080690,0.7597,-1.0706,-0.0249,-0.9522,-0.4559,0.5770,-0.2463,-0.0318,1.0369,
1.083983,0.7890,-0.9534,0.1798,-0.9522,-0.4559,0.5770,-0.2463,-0.0318,1.0369,
1.089073,0.8125,-1.1290,0.2565,-0.9522,-0.4559,0.5770,-0.2463,-0.0318,1.0369,
1.093919,0.7595,-1.4501,0.1883,-0.9522,-0.4559,0.5770,-0.2463,-0.0318,1.0369,
1.097806,0.7177,-1.5903,0.2130,-0.9522,-0.4559,0.5770,-0.2463,-0.0318,1.0369,
1.102598,0.5784,-1.5512,0.1974,-0.9522,-0.4559,0.5770,-0.2463,-0.0318,1.0369,
1.108254,0.5682,-1.5453,0.2306,-0.9522,-0.4559,0.5770,-0.2463,-0.0318,1.0369,
1.113657,0.6986,-1.5395,0.2194,-0.9522,-0.4559,0.5770,-0.2463,-0.0318,1.0369,
1.119997,0.7421,-1.4955,0.0735,-0.9522,-0.4559,0.5770,-0.2463,-0.0318,1.0369,
1.121434,0.7421,-1.4955,0.0735,-0.9522,-0.4559,0.5770,-0.3582,0.1046,0.6524,
1.122516,0.7421,-1.4955,0.0735,0.1811,-4.1378,0.0481,-0.3582,0.1046,0.6524,
1.127351,0.6009,-1.3614,-0.0726,0.1811,-4.1378,0.0481,-0.3582,0.1046,0.6524,
1.129832,0.4961,-1.1459,-0.1420,0.1811,-4.1378,0.0481,-0.3582,0.1046,0.6524,
1.132208,0.6090,-1.0123,-0.0357,0.1811,-4.1378,0.0481,-0.3582,0.1046,0.6524,
1.137787,0.6754,-0.9653,-0.1034,0.1811,-4.1378,0.0481,-0.3582,0.1046,0.6524,
1.142487,0.6578,-0.9456,-0.1803,0.1811,-4.1378,0.0481,-0.3582,0.1046,0.6524,
1.152165,0.5955,-0.9829,-0.2345,0.1811,-4.1378,0.0481,-0.3582,0.1046,0.6524,
1.153571,0.4634,-1.0601,-0.2678,0.1811,-4.1378,0.0481,-0.3582,0.1046,0.6524,
1.160446,0.3390,-1.1158,-0.2526,0.1811,-4.1378,0.0481,-0.3582,0.1046,0.6524,
1.161956,0.3390,-1.1158,-0.2526,0.1811,-4.1378,0.0481,-0.3859,-0.4600,0.4883,
1.162714,0.3390,-1.1158,-0.2526,0.2871,-3.7572,0.2663,-0.3859,-0.4600,0.4883,
1.164103,0.3273,-1.1283,-0.1798,0.2871,-3.7572,0.2663,-0.3859,-0.4600,0.4883,
1.168844,0.3837,-1.0743,-0.0809,0.2871,-3.7572,0.2663,-0.3859,-0.4600,0.4883,
1.174616,0.4768,-0.9930,0.0286,0.2871,-3.7572,0.2663,-0.3859,-0.4600,0.4883,
1.177649,0.6078,-0.9140,0.1253,0.2871,-3.7572,0.2663,-0.3859,-0.4600,0.4883,
1.185421,0.7434,-0.8434,0.2445,0.2871,-3.7572,0.2663,-0.3859,-0.4600,0.4883,
1.188823,0.7824,-0.8754,0.2284,0.2871,-3.7572,0.2663,-0.3859,-0.4600,0.4883,
1.194698,0.7341,-0.9243,0.0554,0.2871,-3.7572,0.2663,-0.3859,-0.4600,0.4883,
1.198169,0.7969,-0.9556,0.0813,0.2871,-3.7572,0.2663,-0.3859,-0.4600,0.4883,
1.199397,0.7969,-0.9556,0.0813,0.2871,-3.7572,0.2663,-1.3084,-1.2494,1.5525,
1.200417,0.7969,-0.9556,0.0813,-1.0127,-2.5804,-0.9945,-1.3084,-1.2494,1.5525,
1.204138,0.7756,-0.9338,0.0806,-1.0127,-2.5804,-0.9945,-1.3084,-1.2494,1.5525,
1.209599,0.7424,-0.9031,-0.0320,-1.0127,-2.5804,-0.9945,-1.3084,-1.2494,1.5525,
1.212377,0.6869,-0.8838,-0.1283,-1.0127,-2.5804,-0.9945,-1.3084,-1.2494,1.5525,
1.219688,0.5633,-0.8530,-0.1879,-1.0127,-2.5804,-0.9945,-1.3084,-1.2494,1.5525,
1.223200,0.4302,-0.8129,-0.4820,-1.0127,-2.5804,-0.9945,-1.3084,-1.2494,1.5525,
1.229380,0.2628,-0.7948,-0.2492,-1.0127,-2.5804,-0.9945,-1.3084,-1.2494,1.5525,
1.232504,0.3815,-0.7758,0.1063,-1.0127,-2.5804,-0.9945,-1.3084,-1.2494,1.5525,
1.239523,0.5386,-0.8263,0.0405,-1.0127,-2.5804,-0.9945,-1.3084,-1.2494,1.5525,
1.241109,0.5386,-0.8263,0.0405,-1.0127,-2.5804,-0.9945,-0.5361,-1.4220,1.1680,
1.242452,0.5386,-0.8263,0.0405,-0.5800,-2.1757,-0.4513,-0.5361,-1.4220,1.1680,
1.243700,0.5653,-0.8747,0.0503,-0.5800,-2.1757,-0.4513,-0.5361,-1.4220,1.1680,
1.247531,0.5943,-0.9250,-0.0178,-0.5800,-2.1757,-0.4513,-0.5361,-1.4220,1.1680,
1.252696,0.6363,-0.9324,-0.0975,-0.5800,-2.1757,-0.4513,-0.5361,-1.4220,1.1680,
1.257146,0.6383,-0.8972,-0.1669,-0.5800,-2.1757,-0.4513,-0.5361,-1.4220,1.1680,
1.263814,0.6073,-0.8696,-0.2216,-0.5800,-2.1757,-0.4513,-0.5361,-1.4220,1.1680,
1.265608,0.5907,-0.8522,-0.2358,-0.5800,-2.1757,-0.4513,-0.5361,-1.4220,1.1680,
1.271732,0.6180,-0.8251,-0.2082,-0.5800,-2.1757,-0.4513,-0.5361,-1.4220,1.1680,
1.275457,0.6852,-0.7855,-0.1527,-0.5800,-2.1757,-0.4513,-0.5361,-1.4220,1.1680,
1.276390,0.6852,-0.7855,-0.1527,-0.5800,-2.1757,-0.4513,0.8775,-1.7075,0.8910,
1.276872,0.6852,-0.7855,-0.1527,0.5135,0.2471,0.4564,0.8775,-1.7075,0.8910,
1.280000,0.6815,-0.7184,-0.0706,0.5135,0.2471,0.4564,0.8775,-1.7075,0.8910,
1.285796,0.5579,-0.7157,0.0068,0.5135,0.2471,0.4564,0.8775,-1.7075,0.8910,
1.290693,0.4311,-0.7765,0.0273,0.5135,0.2471,0.4564,0.8775,-1.7075,0.8910,
1.297623,0.3835,-0.8039,0.0012,0.5135,0.2471,0.4564,0.8775,-1.7075,0.8910,
1.303881,0.3857,-0.8014,-0.0328,0.5135,0.2471,0.4564,0.8775,-1.7075,0.8910,
1.307124,0.4067,-0.7948,-0.0640,0.5135,0.2471,0.4564,0.8775,-1.7075,0.8910,
1.313504,0.4297,-0.7978,-0.0806,0.5135,0.2471,0.4564,0.8775,-1.7075,0.8910,
1.318695,0.4619,-0.7753,-0.0770,0.5135,0.2471,0.4564,0.8775,-1.7075,0.8910,
1.320106,0.4619,-0.7753,-0.0770,0.5135,0.2471,0.4564,0.3811,0.0630,0.4127,
1.321241,0.4619,-0.7753,-0.0770,0.0605,0.7279,-0.4497,0.3811,0.0630,0.4127,
1.323125,0.5374,-0.6878,-0.0652,0.0605,0.7279,-0.4497,0.3811,0.0630,0.4127,
1.328476,0.5836,-0.6172,-0.0428,0.0605,0.7279,-0.4497,0.3811,0.0630,0.4127,
1.331952,0.5933,-0.5671,-0.0459,0.0605,0.7279,-0.4497,0.3811,0.0630,0.4127,
1.338739,0.4915,-0.2671,-0.1691,0.0605,0.7279,-0.4497,0.3811,0.0630,0.4127,
1.341909,0.1499,-0.1230,-0.4102,0.0605,0.7279,-0.4497,0.3811,0.0630,0.4127,
1.348467,0.1619,-0.2356,-0.1996,0.0605,0.7279,-0.4497,0.3811,0.0630,0.4127,
1.353080,0.3532,-0.3487,0.1461,0.0605,0.7279,-0.4497,0.3811,0.0630,0.4127,
1.358010,0.4209,-0.4269,0.2133,0.0605,0.7279,-0.4497,0.3811,0.0630,0.4127,
1.359745,0.4209,-0.4269,0.2133,0.0605,0.7279,-0.4497,0.0360,0.5658,-0.4076,
1.360771,0.4209,-0.4269,0.2133,-0.0853,0.6085,-0.5551,0.0360,0.5658,-0.4076,
1.362422,0.4304,-0.3854,0.0933,-0.0853,0.6085,-0.5551,0.0360,0.5658,-0.4076,
1.365929,0.3366,-0.3883,-0.0232,-0.0853,0.6085,-0.5551,0.0360,0.5658,-0.4076,
1.373242,0.2987,-0.4015,-0.0955,-0.0853,0.6085,-0.5551,0.0360,0.5658,-0.4076,
1.376872,0.2823,-0.3607,-0.1297,-0.0853,0.6085,-0.5551,0.0360,0.5658,-0.4076,
1.382581,0.2342,-0.3109,-0.1356,-0.0853,0.6085,-0.5551,0.0360,0.5658,-0.4076,
1.386219,0.1778,-0.2911,-0.0921,-0.0853,0.6085,-0.5551,0.0360,0.5658,-0.4076,
1.392651,0.1204,-0.2940,-0.0257,-0.0853,0.6085,-0.5551,0.0360,0.5658,-0.4076,
1.397608,0.1253,-0.2595,0.0080,-0.0853,0.6085,-0.5551,0.0360,0.5658,-0.4076,
1.398753,0.1253,-0.2595,0.0080,-0.0853,0.6085,-0.5551,-0.0003,0.3560,0.3147,
1.400101,0.1253,-0.2595,0.0080,-1.3949,4.0017,-0.2608,-0.0003,0.3560,0.3147,
1.401389,0.1140,-0.2293,0.0874,-1.3949,4.0017,-0.2608,-0.0003,0.3560,0.3147,
1.406971,0.1279,-0.2356,0.1996,-1.3949,4.0017,-0.2608,-0.0003,0.3560,0.3147,
1.412350,0.1629,-0.2688,0.2726,-1.3949,4.0017,-0.2608,-0.0003,0.3560,0.3147,
1.419735,0.1978,-0.2950,0.2489,-1.3949,4.0017,-0.2608,-0.0003,0.3560,0.3147,
1.425138,0.2459,-0.3311,0.0677,-1.3949,4.0017,-0.2608,-0.0003,0.3560,0.3147,
1.428153,0.2545,-0.3539,-0.1703,-1.3949,4.0017,-0.2608,-0.0003,0.3560,0.3147,
1.432107,0.2232,-0.3008,-0.2624,-1.3949,4.0017,-0.2608,-0.0003,0.3560,0.3147,
1.436108,0.1973,-0.2779,-0.1918,-1.3949,4.0017,-0.2608,-0.0003,0.3560,0.3147,
1.437827,0.1973,-0.2779,-0.1918,-1.3949,4.0017,-0.2608,0.6815,0.4785,2.2929,
1.439059,0.1973,-0.2779,-0.1918,-2.5773,5.8461,-0.1102,0.6815,0.4785,2.2929,
1.441027,0.1971,-0.3277,-0.1332,-2.5773,5.8461,-0.1102,0.6815,0.4785,2.2929,
1.446473,0.2066,-0.4078,-0.1146,-2.5773,5.8461,-0.1102,0.6815,0.4785,2.2929,
1.452968,0.1670,-0.4672,-0.1722,-2.5773,5.8461,-0.1102,0.6815,0.4785,2.2929,
1.455366,0.2569,-0.5813,-0.0963,-2.5773,5.8461,-0.1102,0.6815,0.4785,2.2929,
1.460316,0.2577,-0.7218,-0.0926,-2.5773,5.8461,-0.1102,0.6815,0.4785,2.2929,
1.465009,0.1228,-0.9123,-0.1603,-2.5773,5.8461,-0.1102,0.6815,0.4785,2.2929,
1.469480,0.0710,-1.1703,-0.0374,-2.5773,5.8461,-0.1102,0.6815,0.4785,2.2929,
1.474580,0.0688,-1.3269,-0.1473,-2.5773,5.8461,-0.1102,0.6815,0.4785,2.2929,
1.476199,0.0688,-1.3269,-0.1473,-2.5773,5.8461,-0.1102,0.9894,0.1035,2.8628,
1.477013,0.0688,-1.3269,-0.1473,-1.4906,5.9985,-0.4570,0.9894,0.1035,2.8628,
1.479751,0.0823,-1.4058,-0.0907,-1.4906,5.9985,-0.4570,0.9894,0.1035,2.8628,
1.485889,-0.0382,-1.4183,-0.0262,-1.4906,5.9985,-0.4570,0.9894,0.1035,2.8628,
1.490267,-0.1452,-1.3543,0.0078,-1.4906,5.9985,-0.4570,0.9894,0.1035,2.8628,
1.494426,-0.0531,-1.3641,-0.1481,-1.4906,5.9985,-0.4570,0.9894,0.1035,2.8628,
1.502577,0.0598,-1.5993,0.2123,-1.4906,5.9985,-0.4570,0.9894,0.1035,2.8628,
1.507615,0.0845,-1.6448,0.0432,-1.4906,5.9985,-0.4570,0.9894,0.1035,2.8628,
1.510693,0.0854,-1.6470,-0.0139,-1.4906,5.9985,-0.4570,0.9894,0.1035,2.8628,
1.516090,0.1367,-1.5573,-0.1356,-1.4906,5.9985,-0.4570,0.9894,0.1035,2.8628,
1.517347,0.1367,-1.5573,-0.1356,-1.4906,5.9985,-0.4570,0.4482,-0.2736,2.7903,
1.518090,0.1367,-1.5573,-0.1356,-1.3482,-0.6370,-1.1928,0.4482,-0.2736,2.7903,
1.521750,0.1419,-1.6577,-0.2360,-1.3482,-0.6370,-1.1928,0.4482,-0.2736,2.7903,
1.529561,0.1785,-2.3882,-0.2287,-1.3482,-0.6370,-1.1928,0.4482,-0.2736,2.7903,
1.531267,0.4983,-3.4399,-0.2419,-1.3482,-0.6370,-1.1928,0.4482,-0.2736,2.7903,
1.537478,0.8978,-3.8863,-0.1906,-1.3482,-0.6370,-1.1928,0.4482,-0.2736,2.7903,
1.540540,1.2952,-3.7226,-0.1996,-1.3482,-0.6370,-1.1928,0.4482,-0.2736,2.7903,
1.546824,1.6075,-2.9323,-0.2793,-1.3482,-0.6370,-1.1928,0.4482,-0.2736,2.7903,
1.549258,1.2009,-2.0425,-0.1823,-1.3482,-0.6370,-1.1928,0.4482,-0.2736,2.7903,
1.556692,0.7619,-1.5940,-0.0039,-1.3482,-0.6370,-1.1928,0.4482,-0.2736,2.7903,
1.558525,0.7619,-1.5940,-0.0039,-1.3482,-0.6370,-1.1928,0.4099,0.9376,3.1142,
1.559490,0.7619,-1.5940,-0.0039,-0.1690,-0.4155,-1.3425,0.4099,0.9376,3.1142,
1.560480,0.7038,-1.4093,0.1019,-0.1690,-0.4155,-1.3425,0.4099,0.9376,3.1142,
1.565765,0.6879,-1.2983,0.0928,-0.1690,-0.4155,-1.3425,0.4099,0.9376,3.1142,
1.570826,0.5591,-1.1278,-0.0296,-0.1690,-0.4155,-1.3425,0.4099,0.9376,3.1142,
1.576172,0.5017,-0.9192,-0.0931,-0.1690,-0.4155,-1.3425,0.4099,0.9376,3.1142,
1.582263,0.4424,-0.6986,-0.1522,-0.1690,-0.4155,-1.3425,0.4099,0.9376,3.1142,
1.586384,0.3603,-0.5747,-0.1986,-0.1690,-0.4155,-1.3425,0.4099,0.9376,3.1142,
1.592844,0.2672,-0.5227,-0.2011,-0.1690,-0.4155,-1.3425,0.4099,0.9376,3.1142,
1.596258,0.1924,-0.5234,-0.1769,-0.1690,-0.4155,-1.3425,0.4099,0.9376,3.1142,
1.598122,0.1924,-0.5234,-0.1769,-0.1690,-0.4155,-1.3425,-0.1292,-0.0297,0.6907,
1.599816,0.1924,-0.5234,-0.1769,5.1615,-12.0462,-1.5832,-0.1292,-0.0297,0.6907,
1.602567,0.1355,-0.5767,-0.1407,5.1615,-12.0462,-1.5832,-0.1292,-0.0297,0.6907,
1.605356,0.0427,-0.6712,-0.0621,5.1615,-12.0462,-1.5832,-0.1292,-0.0297,0.6907,
1.634046,-0.0128,-0.7377,0.0186,5.1615,-12.0462,-1.5832,-0.1292,-0.0297,0.6907,
1.636282,0.0444,-0.7210,0.0772,5.1615,-12.0462,-1.5832,-0.1292,-0.0297,0.6907,
1.637989,-0.0360,-0.8051,0.1402,5.1615,-12.0462,-1.5832,-0.1292,-0.0297,0.6907,
1.639588,-0.1445,-1.0105,0.2721,5.1615,-12.0462,-1.5832,-0.1292,-0.0297,0.6907,
1.640696,-0.3636,-1.1557,0.3132,5.1615,-12.0462,-1.5832,-0.1292,-0.0297,0.6907,
1.641681,-0.3636,-1.1557,0.3132,0.2142,2.2990,-0.3925,-0.1292,-0.0297,0.6907,
1.642401,-0.3934,-1.1464,0.2470,0.2142,2.2990,-0.3925,-0.1292,-0.0297,0.6907,
1.643086,-0.3934,-1.1464,0.2470,0.2142,2.2990,-0.3925,-0.6181,0.1163,-0.4992,
1.643830,-0.2989,-1.1339,0.1190,0.2142,2.2990,-0.3925,-0.6181,0.1163,-0.4992,
1.644468,-0.2156,-1.1085,0.0095,0.2142,2.2990,-0.3925,-0.6181,0.1163,-0.4992,
1.654681,-0.1867,-1.0904,-0.0606,0.2142,2.2990,-0.3925,-0.6181,0.1163,-0.4992,
1.655503,-0.1909,-1.0956,-0.0985,0.2142,2.2990,-0.3925,-0.6181,0.1163,-0.4992,
1.657583,-0.1904,-1.1151,-0.0975,0.2142,2.2990,-0.3925,-0.6181,0.1163,-0.4992,
1.663127,-0.1916,-1.1400,-0.0584,0.2142,2.2990,-0.3925,-0.6181,0.1163,-0.4992,
1.669022,-0.1901,-1.1642,-0.0003,0.2142,2.2990,-0.3925,-0.6181,0.1163,-0.4992,
1.673217,-0.1901,-1.1642,-0.0003,0.0489,2.1868,-0.0448,-0.6181,0.1163,-0.4992,
1.674349,-0.1818,-1.1938,0.0466,0.0489,2.1868,-0.0448,-0.6181,0.1163,-0.4992,
1.675060,-0.1818,-1.1938,0.0466,0.0489,2.1868,-0.0448,-0.9015,0.1205,-0.4182,
1.677310,-0.1723,-1.2175,0.1028,0.0489,2.1868,-0.0448,-0.9015,0.1205,-0.4182,
1.682006,-0.1586,-1.2233,0.1742,0.0489,2.1868,-0.0448,-0.9015,0.1205,-0.4182,
1.686943,-0.1408,-1.2141,0.2394,0.0489,2.1868,-0.0448,-0.9015,0.1205,-0.4182,
1.692021,-0.1310,-1.2023,0.3105,0.0489,2.1868,-0.0448,-0.9015,0.1205,-0.4182,
1.696731,-0.1212,-1.1794,0.3620,0.0489,2.1868,-0.0448,-0.9015,0.1205,-0.4182,
1.703589,-0.1159,-1.1471,0.3931,0.0489,2.1868,-0.0448,-0.9015,0.1205,-0.4182,
1.709076,-0.1212,-1.1154,0.4050,0.0489,2.1868,-0.0448,-0.9015,0.1205,-0.4182,
1.711982,-0.1335,-1.0843,0.3972,0.0489,2.1868,-0.0448,-0.9015,0.1205,-0.4182,
1.712800,-0.1335,-1.0843,0.3972,0.0489,2.1868,-0.0448,-1.0559,0.1152,0.0718,
1.713306,-0.1335,-1.0843,0.3972,-3.2846,-1.5317,1.1888,-1.0559,0.1152,0.0718,
1.718732,-0.1462,-1.0489,0.3799,-3.2846,-1.5317,1.1888,-1.0559,0.1152,0.0718,
1.724722,-0.1672,-1.0191,0.3584,-3.2846,-1.5317,1.1888,-1.0559,0.1152,0.0718,
1.728175,-0.1987,-0.9949,0.3393,-3.2846,-1.5317,1.1888,-1.0559,0.1152,0.0718,
1.736987,-0.2234,-0.9763,0.3139,-3.2846,-1.5317,1.1888,-1.0559,0.1152,0.0718,
1.738710,-0.2339,-0.9610,0.2841,-3.2846,-1.5317,1.1888,-1.0559,0.1152,0.0718,
1.744517,-0.2231,-0.9504,0.2563,-3.2846,-1.5317,1.1888,-1.0559,0.1152,0.0718,
1.747750,-0.2068,-0.9446,0.2301,-3.2846,-1.5317,1.1888,-1.0559,0.1152,0.0718,
1.754389,-0.1894,-0.9424,0.2076,-3.2846,-1.5317,1.1888,-1.0559,0.1152,0.0718,
1.756213,-0.1894,-0.9424,0.2076,-3.1276,-1.4969,1.5409,-1.0559,0.1152,0.0718,
1.757916,-0.1894,-0.9424,0.2076,-3.1276,-1.4969,1.5409,-1.0762,0.0801,0.0878,
1.759287,-0.1694,-0.9380,0.1908,-3.1276,-1.4969,1.5409,-1.0762,0.0801,0.0878,
1.764577,-0.1613,-0.9365,0.1717,-3.1276,-1.4969,1.5409,-1.0762,0.0801,0.0878,
1.770020,-0.1528,-0.9409,0.1551,-3.1276,-1.4969,1.5409,-1.0762,0.0801,0.0878,
1.774224,-0.1427,-0.9417,0.1312,-3.1276,-1.4969,1.5409,-1.0762,0.0801,0.0878,
1.777209,-0.1344,-0.9368,0.1080,-3.1276,-1.4969,1.5409,-1.0762,0.0801,0.0878,
1.788800,-0.1271,-0.9302,0.1019,-3.1276,-1.4969,1.5409,-1.0762,0.0801,0.0878,
1.790300,-0.1171,-0.9265,0.0999,-3.1276,-1.4969,1.5409,-1.0762,0.0801,0.0878,
1.794087,-0.1051,-0.9246,0.0918,-3.1276,-1.4969,1.5409,-1.0762,0.0801,0.0878,
1.795612,-0.1051,-0.9246,0.0918,-3.1276,-1.4969,1.5409,-0.6373,-0.1799,-0.0166,
1.796491,-0.1051,-0.9246,0.0918,-2.7262,-0.2000,4.0422,-0.6373,-0.1799,-0.0166,
1.797664,-0.0888,-0.9221,0.0882,-2.7262,-0.2000,4.0422,-0.6373,-0.1799,-0.0166,
1.804256,-0.0809,-0.9187,0.0931,-2.7262,-0.2000,4.0422,-0.6373,-0.1799,-0.0166,
1.807185,-0.0785,-0.9241,0.1080,-2.7262,-0.2000,4.0422,-0.6373,-0.1799,-0.0166,
1.813670,-0.0880,-0.9348,0.1275,-2.7262,-0.2000,4.0422,-0.6373,-0.1799,-0.0166,
1.816992,-0.1156,-0.9407,0.1436,-2.7262,-0.2000,4.0422,-0.6373,-0.1799,-0.0166,
1.824446,-0.1513,-0.9517,0.1524,-2.7262,-0.2000,4.0422,-0.6373,-0.1799,-0.0166,
1.827454,-0.1865,-0.9566,0.1446,-2.7262,-0.2000,4.0422,-0.6373,-0.1799,-0.0166,
1.833573,-0.2212,-0.9636,0.1268,-2.7262,-0.2000,4.0422,-0.6373,-0.1799,-0.0166,
1.834933,-0.2212,-0.9636,0.1268,-2.7262,-0.2000,4.0422,-0.3475,-0.3620,0.0313,
1.835987,-0.2212,-0.9636,0.1268,-2.0896,0.6473,2.1920,-0.3475,-0.3620,0.0313,
1.840109,-0.2529,-0.9551,0.0997,-2.0896,0.6473,2.1920,-0.3475,-0.3620,0.0313,
1.842465,-0.2700,-0.9492,0.0701,-2.0896,0.6473,2.1920,-0.3475,-0.3620,0.0313,
1.847118,-0.2774,-0.9409,0.0369,-2.0896,0.6473,2.1920,-0.3475,-0.3620,0.0313,
1.854390,-0.3001,-0.9309,-0.0081,-2.0896,0.6473,2.1920,-0.3475,-0.3620,0.0313,
1.857191,-0.3103,-0.9175,-0.0667,-2.0896,0.6473,2.1920,-0.3475,-0.3620,0.0313,
1.861036,-0.3167,-0.9026,-0.1129,-2.0896,0.6473,2.1920,-0.3475,-0.3620,0.0313,
1.865541,-0.3084,-0.8903,-0.1517,-2.0896,0.6473,2.1920,-0.3475,-0.3620,0.0313,
1.871241,-0.2962,-0.8813,-0.1735,-2.0896,0.6473,2.1920,-0.3475,-0.3620,0.0313,
1.872342,-0.2962,-0.8813,-0.1735,-2.0896,0.6473,2.1920,-0.2229,-0.4739,-0.0262,
1.873479,-0.2962,-0.8813,-0.1735,-2.0055,0.6143,2.2138,-0.2229,-0.4739,-0.0262,
1.875712,-0.2757,-0.8725,-0.1622,-2.0055,0.6143,2.2138,-0.2229,-0.4739,-0.0262,
1.880875,-0.2512,-0.8747,-0.0533,-2.0055,0.6143,2.2138,-0.2229,-0.4739,-0.0262,
1.886928,-0.2097,-0.8610,0.0237,-2.0055,0.6143,2.2138,-0.2229,-0.4739,-0.0262,
1.891094,-0.1611,-0.8591,0.1033,-2.0055,0.6143,2.2138,-0.2229,-0.4739,-0.0262,
1.895660,-0.1151,-0.8649,0.1861,-2.0055,0.6143,2.2138,-0.2229,-0.4739,-0.0262,
1.900651,-0.0761,-0.8720,0.2587,-2.0055,0.6143,2.2138,-0.2229,-0.4739,-0.0262,
1.908738,-0.0509,-0.8808,0.3215,-2.0055,0.6143,2.2138,-0.2229,-0.4739,-0.0262,
1.912436,-0.0372,-0.8928,0.3569,-2.0055,0.6143,2.2138,-0.2229,-0.4739,-0.0262,
1.913825,-0.0372,-0.8928,0.3569,-2.0055,0.6143,2.2138,-0.2048,-0.7551,0.0846,
1.914851,-0.0372,-0.8928,0.3569,-3.2801,0.7567,0.9278,-0.2048,-0.7551,0.0846,
1.916198,-0.0372,-0.9057,0.3594,-3.2801,0.7567,0.9278,-0.2048,-0.7551,0.0846,
1.922883,-0.0475,-0.9224,0.3315,-3.2801,0.7567,0.9278,-0.2048,-0.7551,0.0846,
1.927538,-0.0511,-0.9365,0.2907,-3.2801,0.7567,0.9278,-0.2048,-0.7551,0.0846,
1.932817,-0.0704,-0.9534,0.2521,-3.2801,0.7567,0.9278,-0.2048,-0.7551,0.0846,
1.938019,-0.0917,-0.9639,0.2167,-3.2801,0.7567,0.9278,-0.2048,-0.7551,0.0846,
1.944052,-0.1100,-0.9766,0.1844,-3.2801,0.7567,0.9278,-0.2048,-0.7551,0.0846,
1.947444,-0.1283,-0.9922,0.1539,-3.2801,0.7567,0.9278,-0.2048,-0.7551,0.0846,
1.950823,-0.1506,-1.0035,0.1243,-3.2801,0.7567,0.9278,-0.2048,-0.7551,0.0846,
1.951928,-0.1506,-1.0035,0.1243,-3.2801,0.7567,0.9278,-0.0802,-0.2427,0.0771,
1.952828,-0.1506,-1.0035,0.1243,-1.4199,0.6370,3.3859,-0.0802,-0.2427,0.0771,
1.956566,-0.1750,-1.0091,0.0997,-1.4199,0.6370,3.3859,-0.0802,-0.2427,0.0771,
1.963652,-0.1872,-1.0059,0.0879,-1.4199,0.6370,3.3859,-0.0802,-0.2427,0.0771,
1.966946,-0.1926,-0.9991,0.0936,-1.4199,0.6370,3.3859,-0.0802,-0.2427,0.0771,
1.970999,-0.1955,-0.9915,0.1067,-1.4199,0.6370,3.3859,-0.0802,-0.2427,0.0771,
1.977649,-0.1987,-0.9856,0.1182,-1.4199,0.6370,3.3859,-0.0802,-0.2427,0.0771,
1.982761,-0.2016,-0.9783,0.1309,-1.4199,0.6370,3.3859,-0.0802,-0.2427,0.0771,
1.987308,-0.2114,-0.9815,0.1302,-1.4199,0.6370,3.3859,-0.0802,-0.2427,0.0771,
1.991333,-0.2248,-0.9881,0.1246,-1.4199,0.6370,3.3859,-0.0802,-0.2427,0.0771,
1.992938,-0.2248,-0.9881,0.1246,-1.4199,0.6370,3.3859,0.5015,-0.1703,-0.0635,
1.993980,-0.2248,-0.9881,0.1246,-1.3900,0.6321,3.0901,0.5015,-0.1703,-0.0635,
1.995941,-0.2441,-1.0035,0.1185,-1.3900,0.6321,3.0901,0.5015,-0.1703,-0.0635,
2.003694,-0.2681,-1.0269,0.1138,-1.3900,0.6321,3.0901,0.5015,-0.1703,-0.0635,
2.005140,-0.2949,-1.0386,0.1116,-1.3900,0.6321,3.0901,0.5015,-0.1703,-0.0635,
2.012111,-0.3162,-1.0496,0.1124,-1.3900,0.6321,3.0901,0.5015,-0.1703,-0.0635,
2.015686,-0.3301,-1.0496,0.1241,-1.3900,0.6321,3.0901,0.5015,-0.1703,-0.0635,
2.022437,-0.3384,-1.0472,0.1370,-1.3900,0.6321,3.0901,0.5015,-0.1703,-0.0635,
2.026529,-0.3428,-1.0455,0.1510,-1.3900,0.6321,3.0901,0.5015,-0.1703,-0.0635,
2.031821,-0.3472,-1.0467,0.1661,-1.3900,0.6321,3.0901,0.5015,-0.1703,-0.0635,
2.033025,-0.3472,-1.0467,0.1661,-1.3900,0.6321,3.0901,0.7103,-0.2491,-0.0326,
2.033820,-0.3472,-1.0467,0.1661,-2.7473,-0.1633,1.5150,0.7103,-0.2491,-0.0326,
2.034740,-0.3494,-1.0364,0.1803,-2.7473,-0.1633,1.5150,0.7103,-0.2491,-0.0326,
2.040957,-0.3421,-1.0274,0.1991,-2.7473,-0.1633,1.5150,0.7103,-0.2491,-0.0326,
2.046108,-0.3299,-1.0125,0.2086,-2.7473,-0.1633,1.5150,0.7103,-0.2491,-0.0326,
2.049440,-0.3204,-1.0020,0.2072,-2.7473,-0.1633,1.5150,0.7103,-0.2491,-0.0326,
2.054719,-0.2998,-1.0149,0.2003,-2.7473,-0.1633,1.5150,0.7103,-0.2491,-0.0326,
2.060287,-0.2788,-1.0616,0.1774,-2.7473,-0.1633,1.5150,0.7103,-0.2491,-0.0326,
2.064719,-0.2539,-1.1300,0.1246,-2.7473,-0.1633,1.5150,0.7103,-0.2491,-0.0326,
2.071175,-0.2248,-1.2141,0.0276,-2.7473,-0.1633,1.5150,0.7103,-0.2491,-0.0326,
2.072388,-0.2248,-1.2141,0.0276,-2.7473,-0.1633,1.5150,0.8307,-0.0691,0.0675,
2.074558,-0.2248,-1.2141,0.0276,-2.6327,-0.1491,1.1577,0.8307,-0.0691,0.0675,
2.076560,-0.2009,-1.3000,-0.0770,-2.6327,-0.1491,1.1577,0.8307,-0.0691,0.0675,
2.079108,-0.1750,-1.3650,-0.1676,-2.6327,-0.1491,1.1577,0.8307,-0.0691,0.0675,
2.083695,-0.1486,-1.4115,-0.2331,-2.6327,-0.1491,1.1577,0.8307,-0.0691,0.0675,
2.089238,-0.1107,-1.4359,-0.2819,-2.6327,-0.1491,1.1577,0.8307,-0.0691,0.0675,
2.094293,-0.0741,-1.4515,-0.3164,-2.6327,-0.1491,1.1577,0.8307,-0.0691,0.0675,
2.098954,-0.0223,-1.4601,-0.3499,-2.6327,-0.1491,1.1577,0.8307,-0.0691,0.0675,
2.104565,0.0434,-1.4483,-0.3933,-2.6327,-0.1491,1.1577,0.8307,-0.0691,0.0675,
2.111422,0.1345,-1.4102,-0.4425,-2.6327,-0.1491,1.1577,0.8307,-0.0691,0.0675,
2.113049,0.1345,-1.4102,-0.4425,-2.6327,-0.1491,1.1577,0.8775,0.1834,0.1389,
2.113850,0.1345,-1.4102,-0.4425,-3.0548,-1.0204,0.8369,0.8775,0.1834,0.1389,
2.115213,0.2445,-1.3423,-0.4696,-3.0548,-1.0204,0.8369,0.8775,0.1834,0.1389,
2.121163,0.3505,-1.2724,-0.4818,-3.0548,-1.0204,0.8369,0.8775,0.1834,0.1389,
2.123780,0.4536,-1.2021,-0.4640,-3.0548,-1.0204,0.8369,0.8775,0.1834,0.1389,
2.129014,0.5376,-1.1359,-0.4065,-3.0548,-1.0204,0.8369,0.8775,0.1834,0.1389,
2.133174,0.5743,-1.0680,-0.3066,-3.0548,-1.0204,0.8369,0.8775,0.1834,0.1389,
2.138176,0.5709,-1.0105,-0.1515,-3.0548,-1.0204,0.8369,0.8775,0.1834,0.1389,
2.143539,0.5269,-0.9773,0.0281,-3.0548,-1.0204,0.8369,0.8775,0.1834,0.1389,
2.150314,0.4739,-0.9663,0.1752,-3.0548,-1.0204,0.8369,0.8775,0.1834,0.1389,
2.151684,0.4739,-0.9663,0.1752,-3.0548,-1.0204,0.8369,0.4749,0.0534,0.2529,
2.152505,0.4739,-0.9663,0.1752,2.1657,-2.6935,-3.6093,0.4749,0.0534,0.2529,
2.156497,0.4350,-0.9546,0.2340,2.1657,-2.6935,-3.6093,0.4749,0.0534,0.2529,
2.160355,0.3906,-0.9490,0.2404,2.1657,-2.6935,-3.6093,0.4749,0.0534,0.2529,
2.163497,0.3366,-0.9578,0.2089,2.1657,-2.6935,-3.6093,0.4749,0.0534,0.2529,
2.171413,0.2794,-0.9627,0.1397,2.1657,-2.6935,-3.6093,0.4749,0.0534,0.2529,
2.173147,0.2147,-0.9722,0.0445,2.1657,-2.6935,-3.6093,0.4749,0.0534,0.2529,
2.179885,0.1541,-0.9854,-0.0555,2.1657,-2.6935,-3.6093,0.4749,0.0534,0.2529,
2.187614,0.0959,-1.0049,-0.1461,2.1657,-2.6935,-3.6093,0.4749,0.0534,0.2529,
2.189984,0.0439,-1.0272,-0.2184,2.1657,-2.6935,-3.6093,0.4749,0.0534,0.2529,
2.191044,0.0439,-1.0272,-0.2184,2.1657,-2.6935,-3.6093,-0.3124,0.1056,-0.0347,
2.192303,0.0439,-1.0272,-0.2184,2.0884,-2.6081,-3.3824,-0.3124,0.1056,-0.0347,
2.194052,0.0077,-1.0460,-0.2673,2.0884,-2.6081,-3.3824,-0.3124,0.1056,-0.0347,
2.200145,-0.0208,-1.0755,-0.2932,2.0884,-2.6081,-3.3824,-0.3124,0.1056,-0.0347,
2.204294,-0.0328,-1.1083,-0.2995,2.0884,-2.6081,-3.3824,-0.3124,0.1056,-0.0347,
2.210174,-0.0299,-1.1503,-0.2976,2.0884,-2.6081,-3.3824,-0.3124,0.1056,-0.0347,
2.213614,-0.0013,-1.1940,-0.2846,2.0884,-2.6081,-3.3824,-0.3124,0.1056,-0.0347,
2.221115,0.0473,-1.2277,-0.2624,2.0884,-2.6081,-3.3824,-0.3124,0.1056,-0.0347,
2.223324,0.1062,-1.2453,-0.2262,2.0884,-2.6081,-3.3824,-0.3124,0.1056,-0.0347,
2.230274,0.1646,-1.2370,-0.1803,2.0884,-2.6081,-3.3824,-0.3124,0.1056,-0.0347,
2.231807,0.1646,-1.2370,-0.1803,2.0884,-2.6081,-3.3824,0.0104,-0.2491,-0.2872,
2.232735,0.1646,-1.2370,-0.1803,1.3802,0.0013,-0.5519,0.0104,-0.2491,-0.2872,
2.234489,0.2230,-1.2101,-0.1202,1.3802,0.0013,-0.5519,0.0104,-0.2491,-0.2872,
2.239203,0.2855,-1.1757,-0.0667,1.3802,0.0013,-0.5519,0.0104,-0.2491,-0.2872,
2.244583,0.3476,-1.1366,-0.0186,1.3802,0.0013,-0.5519,0.0104,-0.2491,-0.2872,
2.247961,0.4148,-1.1000,0.0232,1.3802,0.0013,-0.5519,0.0104,-0.2491,-0.2872,
2.253780,0.4685,-1.0736,0.0554,1.3802,0.0013,-0.5519,0.0104,-0.2491,-0.2872,
2.257798,0.5027,-1.0413,0.0703,1.3802,0.0013,-0.5519,0.0104,-0.2491,-0.2872,
2.263479,0.5198,-1.0110,0.0760,1.3802,0.0013,-0.5519,0.0104,-0.2491,-0.2872,
2.268438,0.5203,-0.9798,0.0733,1.3802,0.0013,-0.5519,0.0104,-0.2491,-0.2872,
2.269543,0.5203,-0.9798,0.0733,1.3802,0.0013,-0.5519,-0.0770,-0.2235,0.1155,
2.270062,0.5203,-0.9798,0.0733,1.3825,0.0033,-0.5031,-0.0770,-0.2235,0.1155,
2.273400,0.4907,-0.9534,0.0833,1.3825,0.0033,-0.5031,-0.0770,-0.2235,0.1155,
2.277964,0.4492,-0.9404,0.0823,1.3825,0.0033,-0.5031,-0.0770,-0.2235,0.1155,
2.282075,0.4038,-0.9363,0.0774,1.3825,0.0033,-0.5031,-0.0770,-0.2235,0.1155,
2.287879,0.3481,-0.9307,0.0640,1.3825,0.0033,-0.5031,-0.0770,-0.2235,0.1155,
2.292488,0.2951,-0.9258,0.0425,1.3825,0.0033,-0.5031,-0.0770,-0.2235,0.1155,
2.296878,0.2406,-0.9248,0.0291,1.3825,0.0033,-0.5031,-0.0770,-0.2235,0.1155,
2.301598,0.1895,-0.9238,0.0159,1.3825,0.0033,-0.5031,-0.0770,-0.2235,0.1155,
2.306751,0.1477,-0.9192,-0.0022,1.3825,0.0033,-0.5031,-0.0770,-0.2235,0.1155,
2.307962,0.1477,-0.9192,-0.0022,1.3825,0.0033,-0.5031,0.0818,-0.1799,0.0228,
2.308995,0.1477,-0.9192,-0.0022,2.6262,-1.0408,-0.6950,0.0818,-0.1799,0.0228,
2.314000,0.1055,-0.9079,-0.0134,2.6262,-1.0408,-0.6950,0.0818,-0.1799,0.0228,
2.317191,0.0688,-0.8965,-0.0178,2.6262,-1.0408,-0.6950,0.0818,-0.1799,0.0228,
2.325782,0.0390,-0.8889,-0.0198,2.6262,-1.0408,-0.6950,0.0818,-0.1799,0.0228,
2.328698,0.0251,-0.8852,-0.0200,2.6262,-1.0408,-0.6950,0.0818,-0.1799,0.0228,
2.331865,0.0187,-0.8891,-0.0323,2.6262,-1.0408,-0.6950,0.0818,-0.1799,0.0228,
2.338797,0.0029,-0.9048,-0.0516,2.6262,-1.0408,-0.6950,0.0818,-0.1799,0.0228,
2.344204,-0.0211,-0.9180,-0.0775,2.6262,-1.0408,-0.6950,0.0818,-0.1799,0.0228,
2.347800,-0.0401,-0.9197,-0.0948,2.6262,-1.0408,-0.6950,0.0818,-0.1799,0.0228,
2.348883,-0.0401,-0.9197,-0.0948,2.6262,-1.0408,-0.6950,0.6155,-0.1735,-0.2510,
2.349747,-0.0401,-0.9197,-0.0948,1.1687,0.9657,-0.2256,0.6155,-0.1735,-0.2510,
2.352266,-0.0467,-0.9126,-0.1053,1.1687,0.9657,-0.2256,0.6155,-0.1735,-0.2510,
2.359034,-0.0450,-0.8996,-0.1068,1.1687,0.9657,-0.2256,0.6155,-0.1735,-0.2510,
2.362744,-0.0394,-0.8772,-0.0965,1.1687,0.9657,-0.2256,0.6155,-0.1735,-0.2510,
2.368808,-0.0265,-0.8603,-0.0899,1.1687,0.9657,-0.2256,0.6155,-0.1735,-0.2510,
2.372884,-0.0084,-0.8532,-0.0811,1.1687,0.9657,-0.2256,0.6155,-0.1735,-0.2510,
2.380635,0.0141,-0.8491,-0.0826,1.1687,0.9657,-0.2256,0.6155,-0.1735,-0.2510,
2.383106,0.0393,-0.8500,-0.0838,1.1687,0.9657,-0.2256,0.6155,-0.1735,-0.2510,
2.389412,0.0666,-0.8635,-0.0867,1.1687,0.9657,-0.2256,0.6155,-0.1735,-0.2510,
2.391440,0.0666,-0.8635,-0.0867,1.1687,0.9657,-0.2256,0.7252,0.0087,0.0654,
2.393237,0.0666,-0.8635,-0.0867,1.1615,0.9268,-0.4963,0.7252,0.0087,0.0654,
2.394413,0.0969,-0.8693,-0.0921,1.1615,0.9268,-0.4963,0.7252,0.0087,0.0654,
2.398355,0.1301,-0.8774,-0.1048,1.1615,0.9268,-0.4963,0.7252,0.0087,0.0654,
2.401325,0.1665,-0.8820,-0.1187,1.1615,0.9268,-0.4963,0.7252,0.0087,0.0654,
2.408336,0.1973,-0.8906,-0.1417,1.1615,0.9268,-0.4963,0.7252,0.0087,0.0654,
2.412038,0.2257,-0.8972,-0.1666,1.1615,0.9268,-0.4963,0.7252,0.0087,0.0654,
2.418030,0.2511,-0.9033,-0.1850,1.1615,0.9268,-0.4963,0.7252,0.0087,0.0654,
2.422390,0.2672,-0.9155,-0.2023,1.1615,0.9268,-0.4963,0.7252,0.0087,0.0654,
2.429228,0.2787,-0.9250,-0.2113,1.1615,0.9268,-0.4963,0.7252,0.0087,0.0654,
2.430682,0.2787,-0.9250,-0.2113,1.1615,0.9268,-0.4963,0.6091,0.0705,0.4617,
2.431832,0.2787,-0.9250,-0.2113,-0.1938,1.2174,-1.7245,0.6091,0.0705,0.4617,
2.432916,0.2858,-0.9443,-0.2143,-0.1938,1.2174,-1.7245,0.6091,0.0705,0.4617,
2.438125,0.2902,-0.9619,-0.2118,-0.1938,1.2174,-1.7245,0.6091,0.0705,0.4617,
2.442465,0.2963,-0.9773,-0.1964,-0.1938,1.2174,-1.7245,0.6091,0.0705,0.4617,
2.447886,0.3051,-0.9983,-0.1894,-0.1938,1.2174,-1.7245,0.6091,0.0705,0.4617,
2.451941,0.3175,-1.0130,-0.1757,-0.1938,1.2174,-1.7245,0.6091,0.0705,0.4617,
2.457134,0.3344,-1.0262,-0.1681,-0.1938,1.2174,-1.7245,0.6091,0.0705,0.4617,
2.461053,0.3515,-1.0382,-0.1635,-0.1938,1.2174,-1.7245,0.6091,0.0705,0.4617,
2.467855,0.3617,-1.0455,-0.1573,-0.1938,1.2174,-1.7245,0.6091,0.0705,0.4617,
2.469241,0.3617,-1.0455,-0.1573,-0.1938,1.2174,-1.7245,0.4610,0.0843,0.4691,
2.470659,0.3617,-1.0455,-0.1573,2.5435,0.3644,-2.7084,0.4610,0.0843,0.4691,
2.472163,0.3625,-1.0496,-0.1549,2.5435,0.3644,-2.7084,0.4610,0.0843,0.4691,
2.478785,0.3644,-1.0531,-0.1522,2.5435,0.3644,-2.7084,0.4610,0.0843,0.4691,
2.480449,0.3661,-1.0540,-0.1603,2.5435,0.3644,-2.7084,0.4610,0.0843,0.4691,
2.485431,0.3644,-1.0474,-0.1642,2.5435,0.3644,-2.7084,0.4610,0.0843,0.4691,
2.492286,0.3547,-1.0418,-0.1617,2.5435,0.3644,-2.7084,0.4610,0.0843,0.4691,
2.495082,0.3407,-1.0328,-0.1586,2.5435,0.3644,-2.7084,0.4610,0.0843,0.4691,
2.500109,0.3219,-1.0289,-0.1483,2.5435,0.3644,-2.7084,0.4610,0.0843,0.4691,
2.505818,0.3014,-1.0218,-0.1346,2.5435,0.3644,-2.7084,0.4610,0.0843,0.4691,
2.507269,0.3014,-1.0218,-0.1346,2.5435,0.3644,-2.7084,0.1595,-0.2693,0.3573,
2.508065,0.3014,-1.0218,-0.1346,2.6019,0.3522,-2.6953,0.1595,-0.2693,0.3573,
2.510404,0.2860,-1.0149,-0.1141,2.6019,0.3522,-2.6953,0.1595,-0.2693,0.3573,
2.517085,0.2799,-1.0167,-0.1043,2.6019,0.3522,-2.6953,0.1595,-0.2693,0.3573,
2.522857,0.2560,-1.0123,-0.0833,2.6019,0.3522,-2.6953,0.1595,-0.2693,0.3573,
2.527653,0.2381,-1.0108,-0.0542,2.6019,0.3522,-2.6953,0.1595,-0.2693,0.3573,
2.530657,0.2335,-1.0201,-0.0371,2.6019,0.3522,-2.6953,0.1595,-0.2693,0.3573,
2.536675,0.2281,-1.0384,-0.0274,2.6019,0.3522,-2.6953,0.1595,-0.2693,0.3573,
2.542292,0.2254,-1.0577,-0.0320,2.6019,0.3522,-2.6953,0.1595,-0.2693,0.3573,
2.545590,0.2157,-1.0831,-0.0335,2.6019,0.3522,-2.6953,0.1595,-0.2693,0.3573,
2.546986,0.2157,-1.0831,-0.0335,2.6019,0.3522,-2.6953,-0.1387,-0.6688,0.2401,
2.547999,0.2157,-1.0831,-0.0335,2.8293,-0.2878,-2.0139,-0.1387,-0.6688,0.2401,
2.550345,0.2017,-1.1092,-0.0376,2.8293,-0.2878,-2.0139,-0.1387,-0.6688,0.2401,
2.556494,0.1893,-1.1366,-0.0430,2.8293,-0.2878,-2.0139,-0.1387,-0.6688,0.2401,
2.561480,0.1734,-1.1576,-0.0491,2.8293,-0.2878,-2.0139,-0.1387,-0.6688,0.2401,
2.565237,0.1570,-1.1713,-0.0542,2.8293,-0.2878,-2.0139,-0.1387,-0.6688,0.2401,
2.573375,0.1507,-1.1674,-0.0384,2.8293,-0.2878,-2.0139,-0.1387,-0.6688,0.2401,
2.574953,0.1507,-1.1522,-0.0303,2.8293,-0.2878,-2.0139,-0.1387,-0.6688,0.2401,
2.581409,0.1355,-1.1344,-0.0401,2.8293,-0.2878,-2.0139,-0.1387,-0.6688,0.2401,
2.585807,0.1126,-1.1110,-0.0459,2.8293,-0.2878,-2.0139,-0.1387,-0.6688,0.2401,
2.586940,0.1126,-1.1110,-0.0459,2.8293,-0.2878,-2.0139,-0.5073,-1.0651,-0.0038,
2.587793,0.1126,-1.1110,-0.0459,2.7269,-0.2671,-1.7598,-0.5073,-1.0651,-0.0038,
2.591231,0.0891,-1.0885,-0.0618,2.7269,-0.2671,-1.7598,-0.5073,-1.0651,-0.0038,
2.594551,0.0786,-1.0684,-0.0770,2.7269,-0.2671,-1.7598,-0.5073,-1.0651,-0.0038,
2.600896,0.0776,-1.0521,-0.0806,2.7269,-0.2671,-1.7598,-0.5073,-1.0651,-0.0038,
2.606386,0.0713,-1.0394,-0.0753,2.7269,-0.2671,-1.7598,-0.5073,-1.0651,-0.0038,
2.612020,0.0551,-1.0416,-0.0779,2.7269,-0.2671,-1.7598,-0.5073,-1.0651,-0.0038,
2.614489,0.0339,-1.0509,-0.0938,2.7269,-0.2671,-1.7598,-0.5073,-1.0651,-0.0038,
2.623210,0.0139,-1.0575,-0.1051,2.7269,-0.2671,-1.7598,-0.5073,-1.0651,-0.0038,
2.624775,-0.0089,-1.0601,-0.1163,2.7269,-0.2671,-1.7598,-0.5073,-1.0651,-0.0038,
2.626175,-0.0089,-1.0601,-0.1163,2.7269,-0.2671,-1.7598,-1.0357,-1.3293,-0.3106,
2.627048,-0.0089,-1.0601,-0.1163,1.0815,-1.0403,-0.5236,-1.0357,-1.3293,-0.3106,
2.629724,-0.0375,-1.0662,-0.1346,1.0815,-1.0403,-0.5236,-1.0357,-1.3293,-0.3106,
2.635562,-0.0804,-1.0838,-0.1610,1.0815,-1.0403,-0.5236,-1.0357,-1.3293,-0.3106,
2.639607,-0.1159,-1.1124,-0.2148,1.0815,-1.0403,-0.5236,-1.0357,-1.3293,-0.3106,
2.646330,-0.1511,-1.1405,-0.3095,1.0815,-1.0403,-0.5236,-1.0357,-1.3293,-0.3106,
2.649417,-0.1906,-1.1591,-0.4180,1.0815,-1.0403,-0.5236,-1.0357,-1.3293,-0.3106,
2.657211,-0.2366,-1.1713,-0.5578,1.0815,-1.0403,-0.5236,-1.0357,-1.3293,-0.3106,
2.663705,-0.2959,-1.1886,-0.7232,1.0815,-1.0403,-0.5236,-1.0357,-1.3293,-0.3106,
2.665448,-0.3533,-1.2194,-0.8795,1.0815,-1.0403,-0.5236,-1.0357,-1.3293,-0.3106,
2.666275,-0.3533,-1.2194,-0.8795,1.0815,-1.0403,-0.5236,-1.8421,-1.1663,-0.4811,
2.666987,-0.3533,-1.2194,-0.8795,-1.3037,-0.8605,-1.6185,-1.8421,-1.1663,-0.4811,
2.669096,-0.4051,-1.2470,-0.8930,-1.3037,-0.8605,-1.6185,-1.8421,-1.1663,-0.4811,
2.675413,-0.4242,-1.2573,-0.7254,-1.3037,-0.8605,-1.6185,-1.8421,-1.1663,-0.4811,
2.680406,-0.3748,-1.2512,-0.4725,-1.3037,-0.8605,-1.6185,-1.8421,-1.1663,-0.4811,
2.683719,-0.3194,-1.2456,-0.2099,-1.3037,-0.8605,-1.6185,-1.8421,-1.1663,-0.4811,
2.690127,-0.2664,-1.2461,0.0303,-1.3037,-0.8605,-1.6185,-1.8421,-1.1663,-0.4811,
2.696290,-0.2275,-1.2544,0.2206,-1.3037,-0.8605,-1.6185,-1.8421,-1.1663,-0.4811,
2.697750,-0.1699,-1.2698,0.3650,-1.3037,-0.8605,-1.6185,-1.8421,-1.1663,-0.4811,
2.702930,-0.1066,-1.2888,0.4661,-1.3037,-0.8605,-1.6185,-1.8421,-1.1663,-0.4811,
2.704480,-0.1066,-1.2888,0.4661,-1.3037,-0.8605,-1.6185,-2.8743,-1.2750,-0.4193,
2.705375,-0.1066,-1.2888,0.4661,-1.3693,-0.9922,-0.4561,-2.8743,-1.2750,-0.4193,
2.708706,-0.0668,-1.2886,0.5135,-1.3693,-0.9922,-0.4561,-2.8743,-1.2750,-0.4193,
2.713487,-0.0274,-1.2820,0.5262,-1.3693,-0.9922,-0.4561,-2.8743,-1.2750,-0.4193,
2.720559,0.0036,-1.2597,0.5025,-1.3693,-0.9922,-0.4561,-2.8743,-1.2750,-0.4193,
2.724790,0.0068,-1.2429,0.4844,-1.3693,-0.9922,-0.4561,-2.8743,-1.2750,-0.4193,
2.729228,0.0226,-1.2141,0.4097,-1.3693,-0.9922,-0.4561,-2.8743,-1.2750,-0.4193,
2.735185,0.0544,-1.1576,0.3191,-1.3693,-0.9922,-0.4561,-2.8743,-1.2750,-0.4193,
2.740207,0.0925,-1.1078,0.1891,-1.3693,-0.9922,-0.4561,-2.8743,-1.2750,-0.4193,
2.745345,0.1243,-1.0675,0.0210,-1.3693,-0.9922,-0.4561,-2.8743,-1.2750,-0.4193,
2.746813,0.1243,-1.0675,0.0210,-1.3693,-0.9922,-0.4561,-3.0267,-1.0022,-0.3138,
2.747632,0.1243,-1.0675,0.0210,-2.7327,-2.8313,2.9115,-3.0267,-1.0022,-0.3138,
2.749432,0.1460,-1.0394,-0.1578,-2.7327,-2.8313,2.9115,-3.0267,-1.0022,-0.3138,
2.753178,0.1599,-1.0228,-0.2907,-2.7327,-2.8313,2.9115,-3.0267,-1.0022,-0.3138,
2.759684,0.2066,-1.0157,-0.3753,-2.7327,-2.8313,2.9115,-3.0267,-1.0022,-0.3138,
2.764765,0.2540,-1.0132,-0.4410,-2.7327,-2.8313,2.9115,-3.0267,-1.0022,-0.3138,
2.768017,0.2784,-1.0069,-0.4747,-2.7327,-2.8313,2.9115,-3.0267,-1.0022,-0.3138,
2.774735,0.3073,-0.9922,-0.4510,-2.7327,-2.8313,2.9115,-3.0267,-1.0022,-0.3138,
2.778950,0.3048,-0.9671,-0.4019,-2.7327,-2.8313,2.9115,-3.0267,-1.0022,-0.3138,
2.783452,0.2442,-0.9399,-0.3618,-2.7327,-2.8313,2.9115,-3.0267,-1.0022,-0.3138,
2.784587,0.2442,-0.9399,-0.3618,-2.7327,-2.8313,2.9115,-1.2413,0.1237,-0.4821,
2.785417,0.2442,-0.9399,-0.3618,-2.8599,-2.9316,3.2898,-1.2413,0.1237,-0.4821,
2.788575,0.1675,-0.9033,-0.3081,-2.8599,-2.9316,3.2898,-1.2413,0.1237,-0.4821,
2.793608,0.1074,-0.8623,-0.2631,-2.8599,-2.9316,3.2898,-1.2413,0.1237,-0.4821,
2.798616,0.0483,-0.8190,-0.2526,-2.8599,-2.9316,3.2898,-1.2413,0.1237,-0.4821,
2.803713,-0.0179,-0.7780,-0.2189,-2.8599,-2.9316,3.2898,-1.2413,0.1237,-0.4821,
2.808700,-0.0734,-0.7484,-0.1759,-2.8599,-2.9316,3.2898,-1.2413,0.1237,-0.4821,
2.813656,-0.1073,-0.7196,-0.1525,-2.8599,-2.9316,3.2898,-1.2413,0.1237,-0.4821,
2.816790,-0.1293,-0.6807,-0.1314,-2.8599,-2.9316,3.2898,-1.2413,0.1237,-0.4821,
2.824404,-0.1557,-0.6558,-0.1036,-2.8599,-2.9316,3.2898,-1.2413,0.1237,-0.4821,
2.825958,-0.1557,-0.6558,-0.1036,-2.8599,-2.9316,3.2898,-0.8546,0.1908,-0.6686,
2.827026,-0.1557,-0.6558,-0.1036,0.6900,-0.8643,1.8568,-0.8546,0.1908,-0.6686,
2.828337,-0.1845,-0.6219,-0.0950,0.6900,-0.8643,1.8568,-0.8546,0.1908,-0.6686,
2.833756,-0.2236,-0.5996,-0.0865,0.6900,-0.8643,1.8568,-0.8546,0.1908,-0.6686,
2.838919,-0.2309,-0.5759,-0.1261,0.6900,-0.8643,1.8568,-0.8546,0.1908,-0.6686,
2.843883,-0.2275,-0.5517,-0.1764,0.6900,-0.8643,1.8568,-0.8546,0.1908,-0.6686,
2.847506,-0.2138,-0.5400,-0.2104,0.6900,-0.8643,1.8568,-0.8546,0.1908,-0.6686,
2.855979,-0.2006,-0.5385,-0.2421,0.6900,-0.8643,1.8568,-0.8546,0.1908,-0.6686,
2.859804,-0.1835,-0.5378,-0.2714,0.6900,-0.8643,1.8568,-0.8546,0.1908,-0.6686,
2.863186,-0.1655,-0.5368,-0.2939,0.6900,-0.8643,1.8568,-0.8546,0.1908,-0.6686,
2.865242,-0.1655,-0.5368,-0.2939,0.6900,-0.8643,1.8568,-0.9185,-0.3588,-0.4779,
2.866642,-0.1655,-0.5368,-0.2939,-2.3688,2.5030,2.2236,-0.9185,-0.3588,-0.4779,
2.868054,-0.1410,-0.5403,-0.3083,-2.3688,2.5030,2.2236,-0.9185,-0.3588,-0.4779,
2.873400,-0.1164,-0.5495,-0.3137,-2.3688,2.5030,2.2236,-0.9185,-0.3588,-0.4779,
2.881385,-0.0941,-0.5569,-0.3159,-2.3688,2.5030,2.2236,-0.9185,-0.3588,-0.4779,
2.883445,-0.0761,-0.5691,-0.3142,-2.3688,2.5030,2.2236,-0.9185,-0.3588,-0.4779,
2.886439,-0.0653,-0.5789,-0.3232,-2.3688,2.5030,2.2236,-0.9185,-0.3588,-0.4779,
2.892847,-0.0829,-0.5820,-0.3376,-2.3688,2.5030,2.2236,-0.9185,-0.3588,-0.4779,
2.897512,-0.0741,-0.5938,-0.3440,-2.3688,2.5030,2.2236,-0.9185,-0.3588,-0.4779,
2.902377,-0.0802,-0.6070,-0.3525,-2.3688,2.5030,2.2236,-0.9185,-0.3588,-0.4779,
2.904510,-0.0802,-0.6070,-0.3525,-2.3688,2.5030,2.2236,-0.3859,0.1578,-0.0369,
2.905922,-0.0802,-0.6070,-0.3525,-2.3525,2.3851,2.3006,-0.3859,0.1578,-0.0369,
2.907323,-0.0809,-0.6211,-0.3589,-2.3525,2.3851,2.3006,-0.3859,0.1578,-0.0369,
2.911847,-0.0731,-0.6438,-0.3684,-2.3525,2.3851,2.3006,-0.3859,0.1578,-0.0369,
2.918338,-0.0514,-0.6683,-0.3955,-2.3525,2.3851,2.3006,-0.3859,0.1578,-0.0369,
2.923444,0.0041,-0.6988,-0.4395,-2.3525,2.3851,2.3006,-0.3859,0.1578,-0.0369,
2.926845,0.0368,-0.7013,-0.4940,-2.3525,2.3851,2.3006,-0.3859,0.1578,-0.0369,
2.933297,0.0346,-0.7504,-0.4896,-2.3525,2.3851,2.3006,-0.3859,0.1578,-0.0369,
2.936070,0.0551,-0.7951,-0.5429,-2.3525,2.3851,2.3006,-0.3859,0.1578,-0.0369,
2.943110,0.0840,-0.8388,-0.6071,-2.3525,2.3851,2.3006,-0.3859,0.1578,-0.0369,
2.944656,0.0840,-0.8388,-0.6071,-2.3525,2.3851,2.3006,0.0551,0.4050,0.0377,
2.945581,0.0840,-0.8388,-0.6071,-2.1105,3.1576,0.6913,0.0551,0.4050,0.0377,
2.948059,0.1126,-0.8940,-0.6736,-2.1105,3.1576,0.6913,0.0551,0.4050,0.0377,
2.952625,0.1196,-0.9649,-0.7188,-2.1105,3.1576,0.6913,0.0551,0.4050,0.0377,
2.956585,0.1316,-1.0284,-0.7696,-2.1105,3.1576,0.6913,0.0551,0.4050,0.0377,
2.963479,0.1299,-1.0728,-0.7706,-2.1105,3.1576,0.6913,0.0551,0.4050,0.0377,
2.966352,0.0793,-1.0902,-0.7175,-2.1105,3.1576,0.6913,0.0551,0.4050,0.0377,
2.973481,-0.0113,-1.0987,-0.6440,-2.1105,3.1576,0.6913,0.0551,0.4050,0.0377,
2.975688,-0.1010,-1.1048,-0.5426,-2.1105,3.1576,0.6913,0.0551,0.4050,0.0377,
2.983135,-0.1784,-1.1012,-0.4388,-2.1105,3.1576,0.6913,0.0551,0.4050,0.0377,
2.985284,-0.1784,-1.1012,-0.4388,-2.1105,3.1576,0.6913,0.2703,1.0271,-0.0720,
2.986411,-0.1784,-1.1012,-0.4388,-0.9293,-0.2325,-2.0845,0.2703,1.0271,-0.0720,
2.990003,-0.2549,-1.0990,-0.3799,-0.9293,-0.2325,-2.0845,0.2703,1.0271,-0.0720,
2.992755,-0.3250,-1.1034,-0.3811,-0.9293,-0.2325,-2.0845,0.2703,1.0271,-0.0720,
2.997796,-0.3802,-1.1161,-0.4117,-0.9293,-0.2325,-2.0845,0.2703,1.0271,-0.0720,
3.000865,-0.4020,-1.1364,-0.4119,-0.9293,-0.2325,-2.0845,0.2703,1.0271,-0.0720,
3.007269,-0.3836,-1.1544,-0.3235,-0.9293,-0.2325,-2.0845,0.2703,1.0271,-0.0720,
3.010360,-0.3321,-1.1586,-0.1554,-0.9293,-0.2325,-2.0845,0.2703,1.0271,-0.0720,
3.017431,-0.2539,-1.1176,-0.0560,-0.9293,-0.2325,-2.0845,0.2703,1.0271,-0.0720,
3.022837,-0.2173,-1.1285,0.0469,-0.9293,-0.2325,-2.0845,0.2703,1.0271,-0.0720,
3.024272,-0.2173,-1.1285,0.0469,-0.9293,-0.2325,-2.0845,0.3193,2.3970,0.1591,
3.025379,-0.2173,-1.1285,0.0469,-1.1983,-0.1724,-2.2855,0.3193,2.3970,0.1591,
3.027202,-0.1748,-1.1478,0.0445,-1.1983,-0.1724,-2.2855,0.3193,2.3970,0.1591,
3.029940,-0.1391,-1.1767,-0.0525,-1.1983,-0.1724,-2.2855,0.3193,2.3970,0.1591,
3.036621,-0.1142,-1.2187,-0.1886,-1.1983,-0.1724,-2.2855,0.3193,2.3970,0.1591,
3.041632,-0.0748,-1.2544,-0.2846,-1.1983,-0.1724,-2.2855,0.3193,2.3970,0.1591,
3.045713,-0.0223,-1.2793,-0.2817,-1.1983,-0.1724,-2.2855,0.3193,2.3970,0.1591,
3.050313,0.0031,-1.3504,-0.2091,-1.1983,-0.1724,-2.2855,0.3193,2.3970,0.1591,
3.056250,0.0361,-1.4080,-0.1725,-1.1983,-0.1724,-2.2855,0.3193,2.3970,0.1591,
3.060480,0.0466,-1.4523,-0.1317,-1.1983,-0.1724,-2.2855,0.3193,2.3970,0.1591,
3.062008,0.0466,-1.4523,-0.1317,-1.1983,-0.1724,-2.2855,0.8200,1.9411,0.8292,
3.062990,0.0466,-1.4523,-0.1317,-3.7753,-2.1868,1.0541,0.8200,1.9411,0.8292,
3.064642,0.0608,-1.4808,-0.1048,-3.7753,-2.1868,1.0541,0.8200,1.9411,0.8292,
3.069545,0.0979,-1.4774,-0.1041,-3.7753,-2.1868,1.0541,0.8200,1.9411,0.8292,
3.074183,0.1411,-1.4542,-0.0699,-3.7753,-2.1868,1.0541,0.8200,1.9411,0.8292,
3.080602,0.1800,-1.4259,-0.0313,-3.7753,-2.1868,1.0541,0.8200,1.9411,0.8292,
3.085053,0.2054,-1.3873,0.0142,-3.7753,-2.1868,1.0541,0.8200,1.9411,0.8292,
3.090690,0.2208,-1.3367,0.0650,-3.7753,-2.1868,1.0541,0.8200,1.9411,0.8292,
3.094556,0.2330,-1.2712,0.0718,-3.7753,-2.1868,1.0541,0.8200,1.9411,0.8292,
3.099474,0.2350,-1.1928,0.0437,-3.7753,-2.1868,1.0541,0.8200,1.9411,0.8292,
3.100547,0.2350,-1.1928,0.0437,-3.7753,-2.1868,1.0541,0.9414,2.3821,0.9655,
3.101273,0.2350,-1.1928,0.0437,-3.6202,-1.9792,0.5618,0.9414,2.3821,0.9655,
3.106551,0.2115,-1.1026,0.0437,-3.6202,-1.9792,0.5618,0.9414,2.3821,0.9655,
3.109251,0.1641,-1.0042,0.0503,-3.6202,-1.9792,0.5618,0.9414,2.3821,0.9655,
3.114163,0.1245,-0.9160,0.0452,-3.6202,-1.9792,0.5618,0.9414,2.3821,0.9655,
3.119050,0.1184,-0.8539,0.0269,-3.6202,-1.9792,0.5618,0.9414,2.3821,0.9655,
3.124770,0.1170,-0.8031,-0.0125,-3.6202,-1.9792,0.5618,0.9414,2.3821,0.9655,
3.129510,0.1226,-0.7606,-0.0779,-3.6202,-1.9792,0.5618,0.9414,2.3821,0.9655,
3.133990,0.1086,-0.7418,-0.1500,-3.6202,-1.9792,0.5618,0.9414,2.3821,0.9655,
3.140211,0.0681,-0.7535,-0.2165,-3.6202,-1.9792,0.5618,0.9414,2.3821,0.9655,
3.141756,0.0681,-0.7535,-0.2165,-3.6202,-1.9792,0.5618,0.7284,3.2098,0.5810,
3.142673,0.0681,-0.7535,-0.2165,-0.0153,-3.5007,1.8144,0.7284,3.2098,0.5810,
3.143722,0.0219,-0.7941,-0.2602,-0.0153,-3.5007,1.8144,0.7284,3.2098,0.5810,
3.151512,0.0207,-0.8244,-0.2907,-0.0153,-3.5007,1.8144,0.7284,3.2098,0.5810,
3.156445,0.0703,-0.8454,-0.2702,-0.0153,-3.5007,1.8144,0.7284,3.2098,0.5810,
3.161326,0.1221,-0.8708,-0.2057,-0.0153,-3.5007,1.8144,0.7284,3.2098,0.5810,
3.164623,0.1983,-0.9026,-0.1500,-0.0153,-3.5007,1.8144,0.7284,3.2098,0.5810,
3.173472,0.2875,-0.9458,-0.1131,-0.0153,-3.5007,1.8144,0.7284,3.2098,0.5810,
3.175193,0.3564,-1.0035,-0.0604,-0.0153,-3.5007,1.8144,0.7284,3.2098,0.5810,
3.180864,0.4302,-1.0711,-0.0142,-0.0153,-3.5007,1.8144,0.7284,3.2098,0.5810,
3.182139,0.4302,-1.0711,-0.0142,-0.0153,-3.5007,1.8144,0.6528,2.5706,0.6428,
3.183076,0.4302,-1.0711,-0.0142,-0.0501,1.3298,0.5086,0.6528,2.5706,0.6428,
3.185190,0.5100,-1.1278,0.0354,-0.0501,1.3298,0.5086,0.6528,2.5706,0.6428,
3.190752,0.5638,-1.1860,0.0958,-0.0501,1.3298,0.5086,0.6528,2.5706,0.6428,
3.194320,0.6034,-1.2343,0.1671,-0.0501,1.3298,0.5086,0.6528,2.5706,0.6428,
3.200533,0.6373,-1.2671,0.2050,-0.0501,1.3298,0.5086,0.6528,2.5706,0.6428,
3.204234,0.6429,-1.2854,0.2174,-0.0501,1.3298,0.5086,0.6528,2.5706,0.6428,
3.211115,0.6371,-1.2766,0.2045,-0.0501,1.3298,0.5086,0.6528,2.5706,0.6428,
3.214441,0.6373,-1.2373,0.1727,-0.0501,1.3298,0.5086,0.6528,2.5706,0.6428,
3.221153,0.6107,-1.1806,0.1048,-0.0501,1.3298,0.5086,0.6528,2.5706,0.6428,
3.222529,0.6107,-1.1806,0.1048,-0.0501,1.3298,0.5086,0.1169,1.3371,1.3181,
3.223420,0.6107,-1.1806,0.1048,0.3554,1.3703,0.3914,0.1169,1.3371,1.3181,
3.227315,0.5584,-1.1107,0.0242,0.3554,1.3703,0.3914,0.1169,1.3371,1.3181,
3.229770,0.4570,-1.0433,-0.0296,0.3554,1.3703,0.3914,0.1169,1.3371,1.3181,
3.235586,0.3337,-0.9971,-0.0650,0.3554,1.3703,0.3914,0.1169,1.3371,1.3181,
3.240999,0.2242,-0.9597,-0.1012,0.3554,1.3703,0.3914,0.1169,1.3371,1.3181,
3.245364,0.1275,-0.9246,-0.1420,0.3554,1.3703,0.3914,0.1169,1.3371,1.3181,
3.248919,0.0449,-0.8991,-0.1722,0.3554,1.3703,0.3914,0.1169,1.3371,1.3181,
3.257558,-0.0277,-0.8757,-0.1754,0.3554,1.3703,0.3914,0.1169,1.3371,1.3181,
3.259497,-0.0912,-0.8693,-0.1424,0.3554,1.3703,0.3914,0.1169,1.3371,1.3181,
3.260253,-0.0912,-0.8693,-0.1424,0.3554,1.3703,0.3914,0.3449,0.8886,0.6705,
3.261185,-0.0912,-0.8693,-0.1424,4.3192,-1.5399,2.2577,0.3449,0.8886,0.6705,
3.263203,-0.1469,-0.8676,-0.1053,4.3192,-1.5399,2.2577,0.3449,0.8886,0.6705,
3.270052,-0.1877,-0.8818,-0.0633,4.3192,-1.5399,2.2577,0.3449,0.8886,0.6705,
3.273912,-0.2168,-0.8996,-0.0242,4.3192,-1.5399,2.2577,0.3449,0.8886,0.6705,
3.280710,-0.2346,-0.9194,0.0078,4.3192,-1.5399,2.2577,0.3449,0.8886,0.6705,
3.284336,-0.2307,-0.9478,0.0200,4.3192,-1.5399,2.2577,0.3449,0.8886,0.6705,
3.291165,-0.2063,-0.9763,0.0022,4.3192,-1.5399,2.2577,0.3449,0.8886,0.6705,
3.293652,-0.1723,-1.0027,-0.0313,4.3192,-1.5399,2.2577,0.3449,0.8886,0.6705,
3.297827,-0.1293,-1.0335,-0.0684,4.3192,-1.5399,2.2577,0.3449,0.8886,0.6705,
3.299310,-0.1293,-1.0335,-0.0684,4.3192,-1.5399,2.2577,0.3492,1.2476,0.2071,
3.300243,-0.1293,-1.0335,-0.0684,4.2435,-1.4834,2.0404,0.3492,1.2476,0.2071,
3.302716,-0.0856,-1.0531,-0.1126,4.2435,-1.4834,2.0404,0.3492,1.2476,0.2071,
3.307567,-0.0340,-1.0650,-0.1471,4.2435,-1.4834,2.0404,0.3492,1.2476,0.2071,
3.313505,0.0290,-1.0665,-0.1573,4.2435,-1.4834,2.0404,0.3492,1.2476,0.2071,
3.317854,0.0923,-1.0518,-0.1473,4.2435,-1.4834,2.0404,0.3492,1.2476,0.2071,
3.324263,0.1824,-1.0482,-0.1852,4.2435,-1.4834,2.0404,0.3492,1.2476,0.2071,
3.330894,0.2726,-1.0189,-0.1928,4.2435,-1.4834,2.0404,0.3492,1.2476,0.2071,
3.333859,0.3473,-0.9798,-0.1679,4.2435,-1.4834,2.0404,0.3492,1.2476,0.2071,
3.340702,0.4106,-0.9404,-0.1305,4.2435,-1.4834,2.0404,0.3492,1.2476,0.2071,
3.342099,0.4106,-0.9404,-0.1305,-1.8057,0.6689,0.3856,0.3492,1.2476,0.2071,
3.343769,0.4106,-0.9404,-0.1305,-1.8057,0.6689,0.3856,0.2171,1.1379,0.7791,
3.345639,0.4761,-0.8957,-0.0941,-1.8057,0.6689,0.3856,0.2171,1.1379,0.7791,
3.347660,0.5506,-0.8552,-0.0511,-1.8057,0.6689,0.3856,0.2171,1.1379,0.7791,
3.354084,0.6056,-0.8158,0.0134,-1.8057,0.6689,0.3856,0.2171,1.1379,0.7791,
3.360133,0.6469,-0.7841,0.1016,-1.8057,0.6689,0.3856,0.2171,1.1379,0.7791,
3.364329,0.6984,-0.7816,0.1473,-1.8057,0.6689,0.3856,0.2171,1.1379,0.7791,
3.367505,0.7265,-0.7894,0.1331,-1.8057,0.6689,0.3856,0.2171,1.1379,0.7791,
3.374395,0.7121,-0.7995,0.1041,-1.8057,0.6689,0.3856,0.2171,1.1379,0.7791,
3.379129,0.6808,-0.8127,0.0550,-1.8057,0.6689,0.3856,0.2171,1.1379,0.7791,
3.380579,0.6808,-0.8127,0.0550,-1.8057,0.6689,0.3856,0.0637,0.9813,1.1211,
3.381413,0.6808,-0.8127,0.0550,3.4661,0.7209,0.4323,0.0637,0.9813,1.1211,
3.382461,0.6420,-0.8158,0.0054,3.4661,0.7209,0.4323,0.0637,0.9813,1.1211,
3.389503,0.5977,-0.7995,-0.0240,3.4661,0.7209,0.4323,0.0637,0.9813,1.1211,
3.392472,0.5462,-0.7846,-0.0496,3.4661,0.7209,0.4323,0.0637,0.9813,1.1211,
3.400602,0.4854,-0.7682,-0.0613,3.4661,0.7209,0.4323,0.0637,0.9813,1.1211,
3.402819,0.4389,-0.7560,-0.0858,3.4661,0.7209,0.4323,0.0637,0.9813,1.1211,
3.408562,0.4043,-0.7447,-0.1161,3.4661,0.7209,0.4323,0.0637,0.9813,1.1211,
3.413029,0.3847,-0.7293,-0.1351,3.4661,0.7209,0.4323,0.0637,0.9813,1.1211,
3.416895,0.3908,-0.7208,-0.1420,3.4661,0.7209,0.4323,0.0637,0.9813,1.1211,
3.417902,0.3908,-0.7208,-0.1420,3.4661,0.7209,0.4323,-0.0844,0.2952,0.5959,
3.418775,0.3908,-0.7208,-0.1420,3.6146,0.7080,0.4536,-0.0844,0.2952,0.5959,
3.423581,0.4148,-0.7198,-0.1417,3.6146,0.7080,0.4536,-0.0844,0.2952,0.5959,
3.430065,0.4744,-0.7230,-0.1278,3.6146,0.7080,0.4536,-0.0844,0.2952,0.5959,
3.434324,0.5157,-0.7455,-0.0972,3.6146,0.7080,0.4536,-0.0844,0.2952,0.5959,
3.438748,0.5726,-0.7770,-0.0762,3.6146,0.7080,0.4536,-0.0844,0.2952,0.5959,
3.442265,0.6403,-0.8183,-0.0662,3.6146,0.7080,0.4536,-0.0844,0.2952,0.5959,
3.448622,0.7248,-0.8542,-0.0535,3.6146,0.7080,0.4536,-0.0844,0.2952,0.5959,
3.452123,0.7866,-0.8840,-0.0169,3.6146,0.7080,0.4536,-0.0844,0.2952,0.5959,
3.458459,0.8315,-0.9140,-0.0120,3.6146,0.7080,0.4536,-0.0844,0.2952,0.5959,
3.460478,0.8315,-0.9140,-0.0120,3.6146,0.7080,0.4536,-0.2634,-0.0669,0.2657,
3.462353,0.8315,-0.9140,-0.0120,4.8962,2.2910,0.5913,-0.2634,-0.0669,0.2657,
3.463654,0.8438,-0.9311,-0.0181,4.8962,2.2910,0.5913,-0.2634,-0.0669,0.2657,
3.465905,0.7800,-0.9602,-0.0371,4.8962,2.2910,0.5913,-0.2634,-0.0669,0.2657,
3.474485,0.6554,-1.0018,-0.0943,4.8962,2.2910,0.5913,-0.2634,-0.0669,0.2657,
3.478485,0.4959,-1.0452,-0.1911,4.8962,2.2910,0.5913,-0.2634,-0.0669,0.2657,
3.481598,0.2972,-1.0860,-0.2924,4.8962,2.2910,0.5913,-0.2634,-0.0669,0.2657,
3.486680,0.0845,-1.1210,-0.3699,4.8962,2.2910,0.5913,-0.2634,-0.0669,0.2657,
3.492281,-0.1203,-1.1579,-0.4258,4.8962,2.2910,0.5913,-0.2634,-0.0669,0.2657,
3.496104,-0.3081,-1.1891,-0.4468,4.8962,2.2910,0.5913,-0.2634,-0.0669,0.2657,
3.497245,-0.3081,-1.1891,-0.4468,4.8962,2.2910,0.5913,-0.5776,-0.5666,-0.0475,
3.498032,-0.3081,-1.1891,-0.4468,4.5181,0.1319,-0.1479,-0.5776,-0.5666,-0.0475,
3.500910,-0.4577,-1.2138,-0.4351,4.5181,0.1319,-0.1479,-0.5776,-0.5666,-0.0475,
3.507484,-0.5752,-1.2419,-0.4048,4.5181,0.1319,-0.1479,-0.5776,-0.5666,-0.0475,
3.511288,-0.6587,-1.2680,-0.3819,4.5181,0.1319,-0.1479,-0.5776,-0.5666,-0.0475,
3.515570,-0.7012,-1.2778,-0.3613,4.5181,0.1319,-0.1479,-0.5776,-0.5666,-0.0475,
3.520295,-0.7088,-1.2800,-0.3635,4.5181,0.1319,-0.1479,-0.5776,-0.5666,-0.0475,
3.525331,-0.6839,-1.2636,-0.3618,4.5181,0.1319,-0.1479,-0.5776,-0.5666,-0.0475,
3.530238,-0.6595,-1.2473,-0.3379,4.5181,0.1319,-0.1479,-0.5776,-0.5666,-0.0475,
3.537041,-0.6348,-1.2236,-0.3105,4.5181,0.1319,-0.1479,-0.5776,-0.5666,-0.0475,
3.538400,-0.6348,-1.2236,-0.3105,4.5181,0.1319,-0.1479,-1.0623,-0.5708,-0.9232,
3.539313,-0.6348,-1.2236,-0.3105,4.1224,0.0480,0.2634,-1.0623,-0.5708,-0.9232,
3.542750,-0.6067,-1.1918,-0.2912,4.1224,0.0480,0.2634,-1.0623,-0.5708,-0.9232,
3.547588,-0.5769,-1.1557,-0.2778,4.1224,0.0480,0.2634,-1.0623,-0.5708,-0.9232,
3.551002,-0.5537,-1.1183,-0.2558,4.1224,0.0480,0.2634,-1.0623,-0.5708,-0.9232,
3.558020,-0.5329,-1.0926,-0.2477,4.1224,0.0480,0.2634,-1.0623,-0.5708,-0.9232,
3.562090,-0.5168,-1.0758,-0.2438,4.1224,0.0480,0.2634,-1.0623,-0.5708,-0.9232,
3.566918,-0.5002,-1.0584,-0.2448,4.1224,0.0480,0.2634,-1.0623,-0.5708,-0.9232,
3.574153,-0.4726,-1.0298,-0.2516,4.1224,0.0480,0.2634,-1.0623,-0.5708,-0.9232,
3.577627,-0.4330,-0.9996,-0.2690,4.1224,0.0480,0.2634,-1.0623,-0.5708,-0.9232,
3.579386,-0.4330,-0.9996,-0.2690,4.1224,0.0480,0.2634,-2.0338,-0.3684,-0.6931,
3.580187,-0.4330,-0.9996,-0.2690,-6.6529,-2.3038,-0.5833,-2.0338,-0.3684,-0.6931,
3.582198,-0.3907,-0.9744,-0.2731,-6.6529,-2.3038,-0.5833,-2.0338,-0.3684,-0.6931,
3.585432,-0.3423,-0.9475,-0.2741,-6.6529,-2.3038,-0.5833,-2.0338,-0.3684,-0.6931,
3.592733,-0.2849,-0.9175,-0.2731,-6.6529,-2.3038,-0.5833,-2.0338,-0.3684,-0.6931,
3.595785,-0.2197,-0.8901,-0.2595,-6.6529,-2.3038,-0.5833,-2.0338,-0.3684,-0.6931,
3.601651,-0.1955,-0.8642,-0.2385,-6.6529,-2.3038,-0.5833,-2.0338,-0.3684,-0.6931,
3.604845,-0.1515,-0.8530,-0.2187,-6.6529,-2.3038,-0.5833,-2.0338,-0.3684,-0.6931,
3.611987,-0.1110,-0.8332,-0.1725,-6.6529,-2.3038,-0.5833,-2.0338,-0.3684,-0.6931,
3.615160,-0.1203,-0.8112,-0.0938,-6.6529,-2.3038,-0.5833,-2.0338,-0.3684,-0.6931,
3.616263,-0.1203,-0.8112,-0.0938,-6.6529,-2.3038,-0.5833,-1.8240,0.1227,-0.3873,
3.617134,-0.1203,-0.8112,-0.0938,-6.6889,-2.4853,0.0894,-1.8240,0.1227,-0.3873,
3.621333,-0.1242,-0.8092,-0.0423,-6.6889,-2.4853,0.0894,-1.8240,0.1227,-0.3873,
3.625184,-0.1149,-0.8156,-0.0371,-6.6889,-2.4853,0.0894,-1.8240,0.1227,-0.3873,
3.631798,-0.1071,-0.8280,-0.0264,-6.6889,-2.4853,0.0894,-1.8240,0.1227,-0.3873,
3.634549,-0.0724,-0.8434,-0.0349,-6.6889,-2.4853,0.0894,-1.8240,0.1227,-0.3873,
3.641266,-0.0736,-0.8371,-0.0315,-6.6889,-2.4853,0.0894,-1.8240,0.1227,-0.3873,
3.645013,-0.0682,-0.8156,-0.0242,-6.6889,-2.4853,0.0894,-1.8240,0.1227,-0.3873,
3.651114,0.0441,-0.8256,-0.0442,-6.6889,-2.4853,0.0894,-1.8240,0.1227,-0.3873,
3.654280,0.1292,-0.8161,-0.0164,-6.6889,-2.4853,0.0894,-1.8240,0.1227,-0.3873,
3.655454,0.1292,-0.8161,-0.0164,-6.6889,-2.4853,0.0894,-1.0506,0.6532,-0.4257,
3.656331,0.1292,-0.8161,-0.0164,-3.5504,0.2495,1.6461,-1.0506,0.6532,-0.4257,
3.661226,0.1814,-0.8087,-0.0010,-3.5504,0.2495,1.6461,-1.0506,0.6532,-0.4257,
3.665190,0.2252,-0.8070,0.0122,-3.5504,0.2495,1.6461,-1.0506,0.6532,-0.4257,
3.671083,0.2518,-0.8146,0.0203,-3.5504,0.2495,1.6461,-1.0506,0.6532,-0.4257,
3.674981,0.2200,-0.8087,0.0159,-3.5504,0.2495,1.6461,-1.0506,0.6532,-0.4257,
3.681520,0.1382,-0.7816,0.0278,-3.5504,0.2495,1.6461,-1.0506,0.6532,-0.4257,
3.684792,0.0422,-0.7484,0.0195,-3.5504,0.2495,1.6461,-1.0506,0.6532,-0.4257,
3.691097,-0.0721,-0.7286,0.0183,-3.5504,0.2495,1.6461,-1.0506,0.6532,-0.4257,
3.695456,-0.1806,-0.7127,0.0540,-3.5504,0.2495,1.6461,-1.0506,0.6532,-0.4257,
3.696976,-0.1806,-0.7127,0.0540,-3.5504,0.2495,1.6461,-0.1078,1.0122,-0.6877,
3.697935,-0.1806,-0.7127,0.0540,-0.6923,1.1916,3.5242,-0.1078,1.0122,-0.6877,
3.699288,-0.2590,-0.7086,0.1021,-0.6923,1.1916,3.5242,-0.1078,1.0122,-0.6877,
3.704377,-0.3081,-0.7218,0.1490,-0.6923,1.1916,3.5242,-0.1078,1.0122,-0.6877,
3.708829,-0.3463,-0.7467,0.1251,-0.6923,1.1916,3.5242,-0.1078,1.0122,-0.6877,
3.714097,-0.3719,-0.7853,0.0474,-0.6923,1.1916,3.5242,-0.1078,1.0122,-0.6877,
3.718663,-0.3844,-0.8295,-0.0738,-0.6923,1.1916,3.5242,-0.1078,1.0122,-0.6877,
3.724358,-0.4472,-0.8454,-0.2262,-0.6923,1.1916,3.5242,-0.1078,1.0122,-0.6877,
3.729502,-0.4494,-0.9228,-0.4170,-0.6923,1.1916,3.5242,-0.1078,1.0122,-0.6877,
3.735611,-0.3719,-1.0105,-0.6787,-0.6923,1.1916,3.5242,-0.1078,1.0122,-0.6877,
3.738713,-0.3719,-1.0105,-0.6787,-0.6923,1.1916,3.5242,0.9628,0.4944,-1.1096,
3.740161,-0.3719,-1.0105,-0.6787,-1.1400,1.2297,3.0917,0.9628,0.4944,-1.1096,
3.743784,-0.3387,-1.0917,-0.9081,-1.1400,1.2297,3.0917,0.9628,0.4944,-1.1096,
3.746003,-0.3081,-1.1784,-1.0764,-1.1400,1.2297,3.0917,0.9628,0.4944,-1.1096,
3.750788,-0.2554,-1.2546,-1.1368,-1.1400,1.2297,3.0917,0.9628,0.4944,-1.1096,
3.754177,-0.1689,-1.3242,-1.0361,-1.1400,1.2297,3.0917,0.9628,0.4944,-1.1096,
3.760630,-0.1242,-1.3773,-0.8566,-1.1400,1.2297,3.0917,0.9628,0.4944,-1.1096,
3.763965,-0.1327,-1.4159,-0.7236,-1.1400,1.2297,3.0917,0.9628,0.4944,-1.1096,
3.769941,-0.1691,-1.4596,-0.6271,-1.1400,1.2297,3.0917,0.9628,0.4944,-1.1096,
3.775795,-0.2190,-1.5119,-0.5722,-1.1400,1.2297,3.0917,0.9628,0.4944,-1.1096,
3.778002,-0.2190,-1.5119,-0.5722,-1.1400,1.2297,3.0917,1.8256,-0.0925,-0.7772,
3.779534,-0.2190,-1.5119,-0.5722,-5.1147,0.1142,-1.3201,1.8256,-0.0925,-0.7772,
3.781813,-0.3059,-1.5641,-0.5512,-5.1147,0.1142,-1.3201,1.8256,-0.0925,-0.7772,
3.784818,-0.3939,-1.6238,-0.5294,-5.1147,0.1142,-1.3201,1.8256,-0.0925,-0.7772,
3.788086,-0.4572,-1.6685,-0.4960,-5.1147,0.1142,-1.3201,1.8256,-0.0925,-0.7772,
3.797394,-0.4701,-1.7071,-0.4974,-5.1147,0.1142,-1.3201,1.8256,-0.0925,-0.7772,
3.800105,-0.4252,-1.7193,-0.5316,-5.1147,0.1142,-1.3201,1.8256,-0.0925,-0.7772,
3.802999,-0.3443,-1.7044,-0.5898,-5.1147,0.1142,-1.3201,1.8256,-0.0925,-0.7772,
3.809794,-0.2520,-1.6704,-0.6469,-5.1147,0.1142,-1.3201,1.8256,-0.0925,-0.7772,
3.814991,-0.1623,-1.6123,-0.6675,-5.1147,0.1142,-1.3201,1.8256,-0.0925,-0.7772,
3.816104,-0.1623,-1.6123,-0.6675,-5.1147,0.1142,-1.3201,1.4144,-0.1074,-0.4736,
3.816868,-0.1623,-1.6123,-0.6675,-5.1887,0.1985,-1.8012,1.4144,-0.1074,-0.4736,
3.818807,-0.0917,-1.5400,-0.6570,-5.1887,0.1985,-1.8012,1.4144,-0.1074,-0.4736,
3.824053,-0.0636,-1.4684,-0.6347,-5.1887,0.1985,-1.8012,1.4144,-0.1074,-0.4736,
3.830024,-0.0868,-1.4002,-0.6208,-5.1887,0.1985,-1.8012,1.4144,-0.1074,-0.4736,
3.832968,-0.1481,-1.3404,-0.6083,-5.1887,0.1985,-1.8012,1.4144,-0.1074,-0.4736,
3.840904,-0.2292,-1.2739,-0.5724,-5.1887,0.1985,-1.8012,1.4144,-0.1074,-0.4736,
3.843307,-0.2774,-1.1972,-0.5033,-5.1887,0.1985,-1.8012,1.4144,-0.1074,-0.4736,
3.849945,-0.2986,-1.1195,-0.3982,-5.1887,0.1985,-1.8012,1.4144,-0.1074,-0.4736,
3.853010,-0.2925,-1.0428,-0.2822,-5.1887,0.1985,-1.8012,1.4144,-0.1074,-0.4736,
3.854457,-0.2925,-1.0428,-0.2822,-5.1887,0.1985,-1.8012,0.6283,-0.8041,-0.0646,
3.855554,-0.2925,-1.0428,-0.2822,-4.5888,-6.0189,-4.0637,0.6283,-0.8041,-0.0646,
3.859953,-0.2759,-0.9749,-0.1620,-4.5888,-6.0189,-4.0637,0.6283,-0.8041,-0.0646,
3.863111,-0.2429,-0.9299,-0.0640,-4.5888,-6.0189,-4.0637,0.6283,-0.8041,-0.0646,
3.869337,-0.1919,-0.8916,0.0122,-4.5888,-6.0189,-4.0637,0.6283,-0.8041,-0.0646,
3.874591,-0.1342,-0.8569,0.0699,-4.5888,-6.0189,-4.0637,0.6283,-0.8041,-0.0646,
3.879665,-0.0758,-0.8278,0.1016,-4.5888,-6.0189,-4.0637,0.6283,-0.8041,-0.0646,
3.882844,-0.0348,-0.8080,0.1119,-4.5888,-6.0189,-4.0637,0.6283,-0.8041,-0.0646,
3.888316,-0.0098,-0.8004,0.1019,-4.5888,-6.0189,-4.0637,0.6283,-0.8041,-0.0646,
3.894697,0.0207,-0.8029,0.0843,-4.5888,-6.0189,-4.0637,0.6283,-0.8041,-0.0646,
3.896271,0.0207,-0.8029,0.0843,-4.5888,-6.0189,-4.0637,0.0104,-1.3666,0.4446,
3.897242,0.0207,-0.8029,0.0843,-3.3570,-1.1113,-0.6461,0.0104,-1.3666,0.4446,
3.898297,0.0395,-0.8271,0.0457,-3.3570,-1.1113,-0.6461,0.0104,-1.3666,0.4446,
3.902056,0.0547,-0.8710,-0.0364,-3.3570,-1.1113,-0.6461,0.0104,-1.3666,0.4446,
3.909276,0.0674,-0.9004,-0.1068,-3.3570,-1.1113,-0.6461,0.0104,-1.3666,0.4446,
3.913503,0.0869,-0.9060,-0.1205,-3.3570,-1.1113,-0.6461,0.0104,-1.3666,0.4446,
3.916285,0.1040,-0.8955,-0.0916,-3.3570,-1.1113,-0.6461,0.0104,-1.3666,0.4446,
3.921352,0.1233,-0.8786,-0.0288,-3.3570,-1.1113,-0.6461,0.0104,-1.3666,0.4446,
3.928091,0.1455,-0.8620,0.0459,-3.3570,-1.1113,-0.6461,0.0104,-1.3666,0.4446,
3.931359,0.1712,-0.8488,0.0980,-3.3570,-1.1113,-0.6461,0.0104,-1.3666,0.4446,
3.933597,0.1712,-0.8488,0.0980,-3.3570,-1.1113,-0.6461,0.3832,-1.5977,0.8367,
3.934540,0.1712,-0.8488,0.0980,-2.8633,-1.0185,-0.6931,0.3832,-1.5977,0.8367,
3.938831,0.1937,-0.8566,0.1326,-2.8633,-1.0185,-0.6931,0.3832,-1.5977,0.8367,
3.941443,0.2083,-0.8830,0.1497,-2.8633,-1.0185,-0.6931,0.3832,-1.5977,0.8367,
3.946705,0.2213,-0.9463,0.1058,-2.8633,-1.0185,-0.6931,0.3832,-1.5977,0.8367,
3.951196,0.2110,-1.0504,-0.0088,-2.8633,-1.0185,-0.6931,0.3832,-1.5977,0.8367,
3.958560,0.1895,-1.1713,-0.1845,-2.8633,-1.0185,-0.6931,0.3832,-1.5977,0.8367,
3.960972,0.1729,-1.2764,-0.3733,-2.8633,-1.0185,-0.6931,0.3832,-1.5977,0.8367,
3.965788,0.1599,-1.3460,-0.5370,-2.8633,-1.0185,-0.6931,0.3832,-1.5977,0.8367,
3.970849,0.1602,-1.3692,-0.6423,-2.8633,-1.0185,-0.6931,0.3832,-1.5977,0.8367,
3.972022,0.1602,-1.3692,-0.6423,-2.8633,-1.0185,-0.6931,0.9340,-1.0108,0.6268,
3.972718,0.1602,-1.3692,-0.6423,0.2946,1.2024,1.9164,0.9340,-1.0108,0.6268,
3.979060,0.1744,-1.3462,-0.6946,0.2946,1.2024,1.9164,0.9340,-1.0108,0.6268,
3.982410,0.1985,-1.2920,-0.6924,0.2946,1.2024,1.9164,0.9340,-1.0108,0.6268,
3.987674,0.2276,-1.2275,-0.6433,0.2946,1.2024,1.9164,0.9340,-1.0108,0.6268,
3.991138,0.2782,-1.1608,-0.5663,0.2946,1.2024,1.9164,0.9340,-1.0108,0.6268,
3.997986,0.3407,-1.0965,-0.4789,0.2946,1.2024,1.9164,0.9340,-1.0108,0.6268,
4.001276,0.4165,-1.0443,-0.3892,0.2946,1.2024,1.9164,0.9340,-1.0108,0.6268,
4.007646,0.4944,-1.0049,-0.3137,0.2946,1.2024,1.9164,0.9340,-1.0108,0.6268,
4.012437,0.5765,-0.9600,-0.2399,0.2946,1.2024,1.9164,0.9340,-1.0108,0.6268,
4.013517,0.5765,-0.9600,-0.2399,0.2946,1.2024,1.9164,1.2845,0.6351,0.3211,
4.014089,0.5765,-0.9600,-0.2399,1.9913,-1.7542,-3.1748,1.2845,0.6351,0.3211,
4.016686,0.6410,-0.9050,-0.1424,1.9913,-1.7542,-3.1748,1.2845,0.6351,0.3211,
4.024498,0.6662,-0.8425,-0.0535,1.9913,-1.7542,-3.1748,1.2845,0.6351,0.3211,
4.028885,0.6762,-0.7833,0.0071,1.9913,-1.7542,-3.1748,1.2845,0.6351,0.3211,
4.030973,0.6920,-0.7289,0.0537,1.9913,-1.7542,-3.1748,1.2845,0.6351,0.3211,
4.037123,0.7033,-0.6837,0.0987,1.9913,-1.7542,-3.1748,1.2845,0.6351,0.3211,
4.041202,0.6991,-0.6609,0.1278,1.9913,-1.7542,-3.1748,1.2845,0.6351,0.3211,
4.047145,0.6718,-0.6607,0.1458,1.9913,-1.7542,-3.1748,1.2845,0.6351,0.3211,
4.051868,0.6222,-0.6839,0.1422,1.9913,-1.7542,-3.1748,1.2845,0.6351,0.3211,
4.052835,0.6222,-0.6839,0.1422,1.9913,-1.7542,-3.1748,0.4205,-0.2054,0.7099,
4.053651,0.6222,-0.6839,0.1422,2.2384,-1.6910,-3.2790,0.4205,-0.2054,0.7099,
4.056112,0.5577,-0.7374,0.1104,2.2384,-1.6910,-3.2790,0.4205,-0.2054,0.7099,
4.062505,0.4893,-0.7997,0.0525,2.2384,-1.6910,-3.2790,0.4205,-0.2054,0.7099,
4.065440,0.4245,-0.8596,-0.0213,2.2384,-1.6910,-3.2790,0.4205,-0.2054,0.7099,
4.071854,0.3561,-0.9092,-0.1097,2.2384,-1.6910,-3.2790,0.4205,-0.2054,0.7099,
4.079865,0.2990,-0.9475,-0.2067,2.2384,-1.6910,-3.2790,0.4205,-0.2054,0.7099,
4.081983,0.2650,-0.9673,-0.3003,2.2384,-1.6910,-3.2790,0.4205,-0.2054,0.7099,
4.085221,0.2411,-0.9693,-0.3716,2.2384,-1.6910,-3.2790,0.4205,-0.2054,0.7099,
4.092101,0.2227,-0.9475,-0.4039,2.2384,-1.6910,-3.2790,0.4205,-0.2054,0.7099,
4.093704,0.2227,-0.9475,-0.4039,2.2384,-1.6910,-3.2790,0.7081,-1.1471,0.2603,
4.094805,0.2227,-0.9475,-0.4039,5.2323,2.1797,0.9440,0.7081,-1.1471,0.2603,
4.096496,0.2071,-0.9160,-0.4087,5.2323,2.1797,0.9440,0.7081,-1.1471,0.2603,
4.100325,0.1920,-0.8808,-0.4065,5.2323,2.1797,0.9440,0.7081,-1.1471,0.2603,
4.104798,0.1739,-0.8495,-0.4031,5.2323,2.1797,0.9440,0.7081,-1.1471,0.2603,
4.110133,0.1526,-0.8266,-0.3919,5.2323,2.1797,0.9440,0.7081,-1.1471,0.2603,
4.122490,0.1260,-0.8134,-0.3792,5.2323,2.1797,0.9440,0.7081,-1.1471,0.2603,
4.123987,0.0911,-0.8105,-0.3501,5.2323,2.1797,0.9440,0.7081,-1.1471,0.2603,
4.125287,0.0625,-0.8215,-0.3205,5.2323,2.1797,0.9440,0.7081,-1.1471,0.2603,
4.129584,0.0429,-0.8339,-0.2871,5.2323,2.1797,0.9440,0.7081,-1.1471,0.2603,
4.131354,0.0429,-0.8339,-0.2871,5.2323,2.1797,0.9440,0.8956,-0.3908,-0.1754,
4.132402,0.0429,-0.8339,-0.2871,5.0879,2.1619,0.5897,0.8956,-0.3908,-0.1754,
4.134170,0.0466,-0.8412,-0.2485,5.0879,2.1619,0.5897,0.8956,-0.3908,-0.1754,
4.139854,0.0615,-0.8510,-0.2062,5.0879,2.1619,0.5897,0.8956,-0.3908,-0.1754,
4.144558,0.0820,-0.8696,-0.1747,5.0879,2.1619,0.5897,0.8956,-0.3908,-0.1754,
4.152189,0.1072,-0.8818,-0.1566,5.0879,2.1619,0.5897,0.8956,-0.3908,-0.1754,
4.155027,0.1086,-0.8947,-0.1439,5.0879,2.1619,0.5897,0.8956,-0.3908,-0.1754,
4.161633,0.0989,-0.9031,-0.1363,5.0879,2.1619,0.5897,0.8956,-0.3908,-0.1754,
4.165096,0.0854,-0.9148,-0.1302,5.0879,2.1619,0.5897,0.8956,-0.3908,-0.1754,
4.171420,0.0603,-0.9248,-0.1253,5.0879,2.1619,0.5897,0.8956,-0.3908,-0.1754,
4.172935,0.0603,-0.9248,-0.1253,5.0879,2.1619,0.5897,-0.3230,-0.6773,-0.0560,
4.174330,0.0603,-0.9248,-0.1253,0.8329,1.2833,-2.7518,-0.3230,-0.6773,-0.0560,
4.175781,0.0246,-0.9299,-0.1141,0.8329,1.2833,-2.7518,-0.3230,-0.6773,-0.0560,
4.181442,-0.0079,-0.9302,-0.1241,0.8329,1.2833,-2.7518,-0.3230,-0.6773,-0.0560,
4.187465,-0.0455,-0.9355,-0.1285,0.8329,1.2833,-2.7518,-0.3230,-0.6773,-0.0560,
4.196230,-0.0878,-0.9409,-0.1390,0.8329,1.2833,-2.7518,-0.3230,-0.6773,-0.0560,
4.200047,-0.1371,-0.9463,-0.1459,0.8329,1.2833,-2.7518,-0.3230,-0.6773,-0.0560,
4.201296,-0.1909,-0.9512,-0.1522,0.8329,1.2833,-2.7518,-0.3230,-0.6773,-0.0560,
4.205677,-0.2485,-0.9590,-0.1564,0.8329,1.2833,-2.7518,-0.3230,-0.6773,-0.0560,
4.213167,-0.3030,-0.9619,-0.1730,0.8329,1.2833,-2.7518,-0.3230,-0.6773,-0.0560,
4.214955,-0.3030,-0.9619,-0.1730,0.8329,1.2833,-2.7518,-1.1848,-1.4529,-0.3490,
4.216001,-0.3030,-0.9619,-0.1730,-0.7742,0.7289,-0.2535,-1.1848,-1.4529,-0.3490,
4.217036,-0.3328,-0.9634,-0.2050,-0.7742,0.7289,-0.2535,-1.1848,-1.4529,-0.3490,
4.220626,-0.3443,-0.9632,-0.2507,-0.7742,0.7289,-0.2535,-1.1848,-1.4529,-0.3490,
4.227060,-0.3296,-0.9629,-0.2863,-0.7742,0.7289,-0.2535,-1.1848,-1.4529,-0.3490,
4.230674,-0.2832,-0.9512,-0.3003,-0.7742,0.7289,-0.2535,-1.1848,-1.4529,-0.3490,
4.235621,-0.2129,-0.9453,-0.2922,-0.7742,0.7289,-0.2535,-1.1848,-1.4529,-0.3490,
4.239217,-0.1369,-0.9397,-0.2700,-0.7742,0.7289,-0.2535,-1.1848,-1.4529,-0.3490,
4.246492,-0.0592,-0.9365,-0.2358,-0.7742,0.7289,-0.2535,-1.1848,-1.4529,-0.3490,
4.249303,0.0336,-0.9338,-0.1847,-0.7742,0.7289,-0.2535,-1.1848,-1.4529,-0.3490,
4.250500,0.0336,-0.9338,-0.1847,-0.7742,0.7289,-0.2535,-1.5204,-1.1716,-0.4960,
4.251165,0.0336,-0.9338,-0.1847,-0.8847,0.6177,0.3593,-1.5204,-1.1716,-0.4960,
4.253876,0.1326,-0.9248,-0.1156,-0.8847,0.6177,0.3593,-1.5204,-1.1716,-0.4960,
4.261507,0.2232,-0.9187,-0.0486,-0.8847,0.6177,0.3593,-1.5204,-1.1716,-0.4960,
4.265652,0.3351,-0.9062,0.0010,-0.8847,0.6177,0.3593,-1.5204,-1.1716,-0.4960,
4.269650,0.4314,-0.8972,0.0398,-0.8847,0.6177,0.3593,-1.5204,-1.1716,-0.4960,
4.275889,0.4890,-0.8918,0.0579,-0.8847,0.6177,0.3593,-1.5204,-1.1716,-0.4960,
4.280129,0.5213,-0.8923,0.0662,-0.8847,0.6177,0.3593,-1.5204,-1.1716,-0.4960,
4.283422,0.5191,-0.8903,0.0694,-0.8847,0.6177,0.3593,-1.5204,-1.1716,-0.4960,
4.290069,0.4976,-0.9004,0.0598,-0.8847,0.6177,0.3593,-1.5204,-1.1716,-0.4960,
4.290914,0.4976,-0.9004,0.0598,-0.8847,0.6177,0.3593,-1.6578,-1.0182,-0.0198,
4.291641,0.4976,-0.9004,0.0598,-1.3114,0.3077,0.6363,-1.6578,-1.0182,-0.0198,
4.294066,0.4553,-0.9177,0.0374,-1.3114,0.3077,0.6363,-1.6578,-1.0182,-0.0198,
4.300033,0.3874,-0.9324,0.0242,-1.3114,0.3077,0.6363,-1.6578,-1.0182,-0.0198,
4.304075,0.3390,-0.9544,0.0176,-1.3114,0.3077,0.6363,-1.6578,-1.0182,-0.0198,
4.309718,0.2924,-0.9697,0.0305,-1.3114,0.3077,0.6363,-1.6578,-1.0182,-0.0198,
4.313454,0.2379,-0.9864,0.0425,-1.3114,0.3077,0.6363,-1.6578,-1.0182,-0.0198,
4.318670,0.1876,-0.9996,0.0418,-1.3114,0.3077,0.6363,-1.6578,-1.0182,-0.0198,
4.323124,0.1404,-0.9996,0.0408,-1.3114,0.3077,0.6363,-1.6578,-1.0182,-0.0198,
4.327803,0.1001,-0.9912,0.0396,-1.3114,0.3077,0.6363,-1.6578,-1.0182,-0.0198,
4.329804,0.1001,-0.9912,0.0396,-1.3114,0.3077,0.6363,-0.8429,-1.3016,-0.2766,
4.330783,0.1001,-0.9912,0.0396,-1.2598,0.2115,0.9698,-0.8429,-1.3016,-0.2766,
4.333079,0.0742,-0.9624,0.0401,-1.2598,0.2115,0.9698,-0.8429,-1.3016,-0.2766,
4.337845,0.0493,-0.9241,0.0388,-1.2598,0.2115,0.9698,-0.8429,-1.3016,-0.2766,
4.345918,0.0329,-0.8881,0.0474,-1.2598,0.2115,0.9698,-0.8429,-1.3016,-0.2766,
4.348623,0.0268,-0.8557,0.0694,-1.2598,0.2115,0.9698,-0.8429,-1.3016,-0.2766,
4.354782,0.0195,-0.8300,0.1043,-1.2598,0.2115,0.9698,-0.8429,-1.3016,-0.2766,
4.360268,0.0124,-0.7995,0.1385,-1.2598,0.2115,0.9698,-0.8429,-1.3016,-0.2766,
4.365082,0.0014,-0.7829,0.1810,-1.2598,0.2115,0.9698,-0.8429,-1.3016,-0.2766,
4.370697,-0.0186,-0.7846,0.2191,-1.2598,0.2115,0.9698,-0.8429,-1.3016,-0.2766,
4.372017,-0.0186,-0.7846,0.2191,-1.2598,0.2115,0.9698,0.0722,-1.9802,-0.6441,
4.373114,-0.0186,-0.7846,0.2191,2.5091,0.1382,3.1173,0.0722,-1.9802,-0.6441,
4.374156,-0.0382,-0.7941,0.2568,2.5091,0.1382,3.1173,0.0722,-1.9802,-0.6441,
4.378751,-0.0663,-0.8168,0.2875,2.5091,0.1382,3.1173,0.0722,-1.9802,-0.6441,
4.384469,-0.1022,-0.8500,0.3093,2.5091,0.1382,3.1173,0.0722,-1.9802,-0.6441,
4.387793,-0.1278,-0.8823,0.3171,2.5091,0.1382,3.1173,0.0722,-1.9802,-0.6441,
4.397397,-0.1547,-0.9123,0.3303,2.5091,0.1382,3.1173,0.0722,-1.9802,-0.6441,
4.399455,-0.1772,-0.9426,0.3274,2.5091,0.1382,3.1173,0.0722,-1.9802,-0.6441,
4.404066,-0.2014,-0.9641,0.3352,2.5091,0.1382,3.1173,0.0722,-1.9802,-0.6441,
4.409277,-0.2295,-0.9790,0.3418,2.5091,0.1382,3.1173,0.0722,-1.9802,-0.6441,
4.410940,-0.2295,-0.9790,0.3418,2.5091,0.1382,3.1173,0.6528,-1.9482,-0.8252,
4.412097,-0.2295,-0.9790,0.3418,-1.1835,1.0866,4.4078,0.6528,-1.9482,-0.8252,
4.413330,-0.2473,-1.0013,0.3415,-1.1835,1.0866,4.4078,0.6528,-1.9482,-0.8252,
4.419222,-0.2622,-1.0303,0.3371,-1.1835,1.0866,4.4078,0.6528,-1.9482,-0.8252,
4.422918,-0.3089,-1.0462,0.3325,-1.1835,1.0866,4.4078,0.6528,-1.9482,-0.8252,
4.432993,-0.3438,-1.0638,0.3024,-1.1835,1.0866,4.4078,0.6528,-1.9482,-0.8252,
4.434759,-0.3726,-1.0863,0.2419,-1.1835,1.0866,4.4078,0.6528,-1.9482,-0.8252,
4.439001,-0.4051,-1.1058,0.1778,-1.1835,1.0866,4.4078,0.6528,-1.9482,-0.8252,
4.443802,-0.4430,-1.1381,0.1290,-1.1835,1.0866,4.4078,0.6528,-1.9482,-0.8252,
4.449750,-0.4672,-1.1635,0.0816,-1.1835,1.0866,4.4078,0.6528,-1.9482,-0.8252,
4.451156,-0.4672,-1.1635,0.0816,-1.1835,1.0866,4.4078,1.5795,-1.3804,-1.0585,
4.452270,-0.4672,-1.1635,0.0816,-1.4359,1.1641,3.7990,1.5795,-1.3804,-1.0585,
4.453733,-0.4755,-1.1850,0.0420,-1.4359,1.1641,3.7990,1.5795,-1.3804,-1.0585,
4.460043,-0.4533,-1.2011,0.0032,-1.4359,1.1641,3.7990,1.5795,-1.3804,-1.0585,
4.463518,-0.4213,-1.2087,-0.0506,-1.4359,1.1641,3.7990,1.5795,-1.3804,-1.0585,
4.468993,-0.3868,-1.2043,-0.0916,-1.4359,1.1641,3.7990,1.5795,-1.3804,-1.0585,
4.472123,-0.3563,-1.1904,-0.0992,-1.4359,1.1641,3.7990,1.5795,-1.3804,-1.0585,
4.479223,-0.3257,-1.1642,-0.0804,-1.4359,1.1641,3.7990,1.5795,-1.3804,-1.0585,
4.482671,-0.2840,-1.1493,-0.0679,-1.4359,1.1641,3.7990,1.5795,-1.3804,-1.0585,
4.488585,-0.2827,-1.1408,-0.0281,-1.4359,1.1641,3.7990,1.5795,-1.3804,-1.0585,
4.490564,-0.2827,-1.1408,-0.0281,-1.4359,1.1641,3.7990,2.0227,-1.2867,-0.8848,
4.492179,-0.2827,-1.1408,-0.0281,-4.6972,-1.0851,3.0325,2.0227,-1.2867,-0.8848,
4.493581,-0.2898,-1.1378,0.0193,-4.6972,-1.0851,3.0325,2.0227,-1.2867,-0.8848,
4.498436,-0.3128,-1.1364,0.0738,-4.6972,-1.0851,3.0325,2.0227,-1.2867,-0.8848,
4.502429,-0.3338,-1.1422,0.1370,-4.6972,-1.0851,3.0325,2.0227,-1.2867,-0.8848,
4.506818,-0.3670,-1.1476,0.1959,-4.6972,-1.0851,3.0325,2.0227,-1.2867,-0.8848,
4.512048,-0.3988,-1.1378,0.2570,-4.6972,-1.0851,3.0325,2.0227,-1.2867,-0.8848,
4.516522,-0.4191,-1.1420,0.2861,-4.6972,-1.0851,3.0325,2.0227,-1.2867,-0.8848,
4.520391,-0.4537,-1.1542,0.2717,-4.6972,-1.0851,3.0325,2.0227,-1.2867,-0.8848,
4.527749,-0.4850,-1.1938,0.2360,-4.6972,-1.0851,3.0325,2.0227,-1.2867,-0.8848,
4.529547,-0.4850,-1.1938,0.2360,-4.6972,-1.0851,3.0325,1.6243,-0.9948,-0.5162,
4.530746,-0.4850,-1.1938,0.2360,-4.8300,-1.6869,1.3071,1.6243,-0.9948,-0.5162,
4.531918,-0.4669,-1.2883,0.1187,-4.8300,-1.6869,1.3071,1.6243,-0.9948,-0.5162,
4.536169,-0.4347,-1.4078,-0.0440,-4.8300,-1.6869,1.3071,1.6243,-0.9948,-0.5162,
4.540722,-0.4015,-1.5167,-0.1901,-4.8300,-1.6869,1.3071,1.6243,-0.9948,-0.5162,
4.547842,-0.3541,-1.6230,-0.3227,-4.8300,-1.6869,1.3071,1.6243,-0.9948,-0.5162,
4.551375,-0.2869,-1.7242,-0.4307,-4.8300,-1.6869,1.3071,1.6243,-0.9948,-0.5162,
4.557848,-0.2043,-1.8033,-0.5446,-4.8300,-1.6869,1.3071,1.6243,-0.9948,-0.5162,
4.561600,-0.1129,-1.8397,-0.6660,-4.8300,-1.6869,1.3071,1.6243,-0.9948,-0.5162,
4.568303,-0.0138,-1.8395,-0.7794,-4.8300,-1.6869,1.3071,1.6243,-0.9948,-0.5162,
4.569780,-0.0138,-1.8395,-0.7794,-4.8300,-1.6869,1.3071,1.6232,-0.5836,-0.2297,
4.570812,-0.0138,-1.8395,-0.7794,-4.8310,-1.6594,0.7053,1.6232,-0.5836,-0.2297,
4.572013,0.0915,-1.8177,-0.8209,-4.8310,-1.6594,0.7053,1.6232,-0.5836,-0.2297,
4.577788,0.1797,-1.7640,-0.8231,-4.8310,-1.6594,0.7053,1.6232,-0.5836,-0.2297,
4.581335,0.2152,-1.6616,-0.7947,-4.8310,-1.6594,0.7053,1.6232,-0.5836,-0.2297,
4.587115,0.2310,-1.5326,-0.7425,-4.8310,-1.6594,0.7053,1.6232,-0.5836,-0.2297,
4.593474,0.2538,-1.3907,-0.6645,-4.8310,-1.6594,0.7053,1.6232,-0.5836,-0.2297,
4.597492,0.2530,-1.2641,-0.5702,-4.8310,-1.6594,0.7053,1.6232,-0.5836,-0.2297,
4.602877,0.2240,-1.1681,-0.4530,-4.8310,-1.6594,0.7053,1.6232,-0.5836,-0.2297,
4.606618,0.1739,-1.0887,-0.3188,-4.8310,-1.6594,0.7053,1.6232,-0.5836,-0.2297,
4.608346,0.1739,-1.0887,-0.3188,-4.8310,-1.6594,0.7053,1.0086,-1.0044,0.0207,
4.609322,0.1739,-1.0887,-0.3188,-2.2415,-6.2152,-5.4281,1.0086,-1.0044,0.0207,
4.610347,0.1135,-1.0298,-0.1691,-2.2415,-6.2152,-5.4281,1.0086,-1.0044,0.0207,
4.619654,0.0713,-0.9842,-0.0205,-2.2415,-6.2152,-5.4281,1.0086,-1.0044,0.0207,
4.622473,0.0625,-0.9563,0.1006,-2.2415,-6.2152,-5.4281,1.0086,-1.0044,0.0207,
4.627192,0.0740,-0.9436,0.1769,-2.2415,-6.2152,-5.4281,1.0086,-1.0044,0.0207,
4.631845,0.0886,-0.9522,0.1903,-2.2415,-6.2152,-5.4281,1.0086,-1.0044,0.0207,
4.636808,0.0950,-0.9817,0.1549,-2.2415,-6.2152,-5.4281,1.0086,-1.0044,0.0207,
4.643877,0.1040,-1.0250,0.0745,-2.2415,-6.2152,-5.4281,1.0086,-1.0044,0.0207,
4.647275,0.1055,-1.0790,-0.0437,-2.2415,-6.2152,-5.4281,1.0086,-1.0044,0.0207,
4.648810,0.1055,-1.0790,-0.0437,-2.2415,-6.2152,-5.4281,-0.4381,-0.4121,0.1006,
4.650016,0.1055,-1.0790,-0.0437,-2.1714,-6.1021,-5.1507,-0.4381,-0.4121,0.1006,
4.652014,0.0862,-1.1344,-0.1830,-2.1714,-6.1021,-5.1507,-0.4381,-0.4121,0.1006,
4.655338,0.0510,-1.1808,-0.3249,-2.1714,-6.1021,-5.1507,-0.4381,-0.4121,0.1006,
4.662253,0.0068,-1.2202,-0.4434,-2.1714,-6.1021,-5.1507,-0.4381,-0.4121,0.1006,
4.665818,-0.0348,-1.2439,-0.5397,-2.1714,-6.1021,-5.1507,-0.4381,-0.4121,0.1006,
4.672228,-0.0531,-1.2426,-0.5839,-2.1714,-6.1021,-5.1507,-0.4381,-0.4121,0.1006,
4.676922,-0.0206,-1.2028,-0.5629,-2.1714,-6.1021,-5.1507,-0.4381,-0.4121,0.1006,
4.681781,0.0617,-1.1356,-0.4884,-2.1714,-6.1021,-5.1507,-0.4381,-0.4121,0.1006,
4.685289,0.1783,-1.0643,-0.3775,-2.1714,-6.1021,-5.1507,-0.4381,-0.4121,0.1006,
4.686541,0.1783,-1.0643,-0.3775,-2.1714,-6.1021,-5.1507,-0.2431,-1.2995,0.2753,
4.687488,0.1783,-1.0643,-0.3775,0.0507,-0.4867,-0.9713,-0.2431,-1.2995,0.2753,
4.691685,0.2977,-1.0103,-0.2477,0.0507,-0.4867,-0.9713,-0.2431,-1.2995,0.2753,
4.695531,0.3991,-0.9719,-0.1336,0.0507,-0.4867,-0.9713,-0.2431,-1.2995,0.2753,
4.700901,0.4756,-0.9470,-0.0503,0.0507,-0.4867,-0.9713,-0.2431,-1.2995,0.2753,
4.706694,0.5276,-0.9331,0.0083,0.0507,-0.4867,-0.9713,-0.2431,-1.2995,0.2753,
4.711374,0.5496,-0.9294,0.0442,0.0507,-0.4867,-0.9713,-0.2431,-1.2995,0.2753,
4.714997,0.5513,-0.9399,0.0601,0.0507,-0.4867,-0.9713,-0.2431,-1.2995,0.2753,
4.719803,0.5213,-0.9653,0.0501,0.0507,-0.4867,-0.9713,-0.2431,-1.2995,0.2753,
4.724843,0.4663,-0.9942,0.0310,0.0507,-0.4867,-0.9713,-0.2431,-1.2995,0.2753,
4.726391,0.4663,-0.9942,0.0310,0.0507,-0.4867,-0.9713,-0.3624,-1.4507,0.5863,
4.727624,0.4663,-0.9942,0.0310,1.7379,-0.4729,-2.1527,-0.3624,-1.4507,0.5863,
4.731797,0.4074,-1.0203,0.0122,1.7379,-0.4729,-2.1527,-0.3624,-1.4507,0.5863,
4.735457,0.3412,-1.0489,-0.0073,1.7379,-0.4729,-2.1527,-0.3624,-1.4507,0.5863,
4.739068,0.2775,-1.0704,-0.0379,1.7379,-0.4729,-2.1527,-0.3624,-1.4507,0.5863,
4.744709,0.2218,-1.0912,-0.0679,1.7379,-0.4729,-2.1527,-0.3624,-1.4507,0.5863,
4.750739,0.1746,-1.0968,-0.1009,1.7379,-0.4729,-2.1527,-0.3624,-1.4507,0.5863,
4.756102,0.1360,-1.0951,-0.1305,1.7379,-0.4729,-2.1527,-0.3624,-1.4507,0.5863,
4.762026,0.1135,-1.0809,-0.1432,1.7379,-0.4729,-2.1527,-0.3624,-1.4507,0.5863,
4.767445,0.1135,-1.0809,-0.1432,1.8963,-0.4571,-1.9476,-0.3624,-1.4507,0.5863,
4.769075,0.1050,-1.0513,-0.1534,1.8963,-0.4571,-1.9476,-0.3624,-1.4507,0.5863,
4.770045,0.1050,-1.0513,-0.1534,1.8963,-0.4571,-1.9476,-0.3507,-1.1066,0.4404,
4.770962,0.1033,-1.0086,-0.1478,1.8963,-0.4571,-1.9476,-0.3507,-1.1066,0.4404,
4.777649,0.1074,-0.9624,-0.1344,1.8963,-0.4571,-1.9476,-0.3507,-1.1066,0.4404,
4.780322,0.1194,-0.9140,-0.1329,1.8963,-0.4571,-1.9476,-0.3507,-1.1066,0.4404,
4.785931,0.1421,-0.8583,-0.1361,1.8963,-0.4571,-1.9476,-0.3507,-1.1066,0.4404,
4.789509,0.1763,-0.8066,-0.1483,1.8963,-0.4571,-1.9476,-0.3507,-1.1066,0.4404,
4.795791,0.2056,-0.7530,-0.1561,1.8963,-0.4571,-1.9476,-0.3507,-1.1066,0.4404,
4.799560,0.2406,-0.7098,-0.1642,1.8963,-0.4571,-1.9476,-0.3507,-1.1066,0.4404,
4.805826,0.2801,-0.6700,-0.1725,1.8963,-0.4571,-1.9476,-0.3507,-1.1066,0.4404,
4.807333,0.2801,-0.6700,-0.1725,1.8963,-0.4571,-1.9476,0.3183,-0.8318,0.3999,
4.808286,0.2801,-0.6700,-0.1725,1.4832,-0.0529,-0.4499,0.3183,-0.8318,0.3999,
4.812203,0.3134,-0.6453,-0.1713,1.4832,-0.0529,-0.4499,0.3183,-0.8318,0.3999,
4.814385,0.3385,-0.6390,-0.1635,1.4832,-0.0529,-0.4499,0.3183,-0.8318,0.3999,
4.820747,0.3530,-0.6478,-0.1527,1.4832,-0.0529,-0.4499,0.3183,-0.8318,0.3999,
4.825447,0.3544,-0.6734,-0.1402,1.4832,-0.0529,-0.4499,0.3183,-0.8318,0.3999,
4.830625,0.3503,-0.7196,-0.1300,1.4832,-0.0529,-0.4499,0.3183,-0.8318,0.3999,
4.834489,0.3405,-0.7758,-0.1178,1.4832,-0.0529,-0.4499,0.3183,-0.8318,0.3999,
4.840313,0.3310,-0.8280,-0.1151,1.4832,-0.0529,-0.4499,0.3183,-0.8318,0.3999,
4.845466,0.3156,-0.8757,-0.1165,1.4832,-0.0529,-0.4499,0.3183,-0.8318,0.3999,
4.847562,0.3156,-0.8757,-0.1165,1.4832,-0.0529,-0.4499,0.3822,-1.0289,0.6747,
4.848689,0.3156,-0.8757,-0.1165,1.7350,-0.0357,-0.5739,0.3822,-1.0289,0.6747,
4.851447,0.3034,-0.9153,-0.1231,1.7350,-0.0357,-0.5739,0.3822,-1.0289,0.6747,
4.854846,0.2914,-0.9514,-0.1354,1.7350,-0.0357,-0.5739,0.3822,-1.0289,0.6747,
4.860565,0.2782,-0.9805,-0.1490,1.7350,-0.0357,-0.5739,0.3822,-1.0289,0.6747,
4.863524,0.2760,-0.9939,-0.1610,1.7350,-0.0357,-0.5739,0.3822,-1.0289,0.6747,
4.869772,0.2843,-0.9949,-0.1776,1.7350,-0.0357,-0.5739,0.3822,-1.0289,0.6747,
4.872748,0.3016,-0.9744,-0.1886,1.7350,-0.0357,-0.5739,0.3822,-1.0289,0.6747,
4.879818,0.3190,-0.9448,-0.1918,1.7350,-0.0357,-0.5739,0.3822,-1.0289,0.6747,
4.885210,0.3454,-0.9084,-0.1913,1.7350,-0.0357,-0.5739,0.3822,-1.0289,0.6747,
4.886312,0.3454,-0.9084,-0.1913,1.7350,-0.0357,-0.5739,0.3385,-1.2888,0.5980,
4.886966,0.3454,-0.9084,-0.1913,2.8303,2.6656,-1.2224,0.3385,-1.2888,0.5980,
4.888829,0.3762,-0.8762,-0.1776,2.8303,2.6656,-1.2224,0.3385,-1.2888,0.5980,
4.895327,0.4160,-0.8537,-0.1503,2.8303,2.6656,-1.2224,0.3385,-1.2888,0.5980,
4.898006,0.4531,-0.8403,-0.1185,2.8303,2.6656,-1.2224,0.3385,-1.2888,0.5980,
4.903640,0.4964,-0.8295,-0.0858,2.8303,2.6656,-1.2224,0.3385,-1.2888,0.5980,
4.910411,0.5342,-0.8278,-0.0481,2.8303,2.6656,-1.2224,0.3385,-1.2888,0.5980,
4.913730,0.5645,-0.8437,-0.0007,2.8303,2.6656,-1.2224,0.3385,-1.2888,0.5980,
4.918001,0.5936,-0.8527,0.0403,2.8303,2.6656,-1.2224,0.3385,-1.2888,0.5980,
4.922781,0.6090,-0.8772,0.0616,2.8303,2.6656,-1.2224,0.3385,-1.2888,0.5980,
4.923778,0.6090,-0.8772,0.0616,2.8303,2.6656,-1.2224,0.3119,-1.3634,0.5341,
4.924646,0.6090,-0.8772,0.0616,3.7632,1.0213,-1.2522,0.3119,-1.3634,0.5341,
4.927957,0.6085,-0.9084,0.0716,3.7632,1.0213,-1.2522,0.3119,-1.3634,0.5341,
4.933524,0.5943,-0.9470,0.0647,3.7632,1.0213,-1.2522,0.3119,-1.3634,0.5341,
4.936727,0.5616,-0.9893,0.0398,3.7632,1.0213,-1.2522,0.3119,-1.3634,0.5341,
4.943053,0.5289,-1.0240,0.0085,3.7632,1.0213,-1.2522,0.3119,-1.3634,0.5341,
4.947185,0.4981,-1.0535,-0.0196,3.7632,1.0213,-1.2522,0.3119,-1.3634,0.5341,
4.953924,0.4670,-1.0797,-0.0406,3.7632,1.0213,-1.2522,0.3119,-1.3634,0.5341,
4.956836,0.4270,-1.0992,-0.0552,3.7632,1.0213,-1.2522,0.3119,-1.3634,0.5341,
4.964456,0.3923,-1.1022,-0.0784,3.7632,1.0213,-1.2522,0.3119,-1.3634,0.5341,
4.965944,0.3923,-1.1022,-0.0784,3.7632,1.0213,-1.2522,0.2053,-1.6819,0.3338,
4.966659,0.3923,-1.1022,-0.0784,3.8321,1.0033,-1.3185,0.2053,-1.6819,0.3338,
4.967864,0.3576,-1.0934,-0.1038,3.8321,1.0033,-1.3185,0.2053,-1.6819,0.3338,
4.973494,0.3058,-1.0858,-0.1153,3.8321,1.0033,-1.3185,0.2053,-1.6819,0.3338,
4.977805,0.2376,-1.0807,-0.1170,3.8321,1.0033,-1.3185,0.2053,-1.6819,0.3338,
4.983718,0.1709,-1.0741,-0.1065,3.8321,1.0033,-1.3185,0.2053,-1.6819,0.3338,
4.986735,0.1028,-1.0689,-0.0909,3.8321,1.0033,-1.3185,0.2053,-1.6819,0.3338,
4.993603,0.0468,-1.0689,-0.0762,3.8321,1.0033,-1.3185,0.2053,-1.6819,0.3338,
4.998663,0.0036,-1.0763,-0.0772,3.8321,1.0033,-1.3185,0.2053,-1.6819,0.3338,
5.003999,-0.0267,-1.0797,-0.0775,3.8321,1.0033,-1.3185,0.2053,-1.6819,0.3338,
5.005280,-0.0267,-1.0797,-0.0775,3.8321,1.0033,-1.3185,0.2565,-1.7479,-0.2339,
5.006061,-0.0267,-1.0797,-0.0775,4.5985,-0.0314,-0.2654,0.2565,-1.7479,-0.2339,
5.009153,-0.0418,-1.0841,-0.0826,4.5985,-0.0314,-0.2654,0.2565,-1.7479,-0.2339,
5.013329,-0.0375,-1.0880,-0.0826,4.5985,-0.0314,-0.2654,0.2565,-1.7479,-0.2339,
5.019061,-0.0108,-1.0758,-0.0870,4.5985,-0.0314,-0.2654,0.2565,-1.7479,-0.2339,
5.021926,0.0314,-1.0655,-0.0892,4.5985,-0.0314,-0.2654,0.2565,-1.7479,-0.2339,
5.029967,0.0693,-1.0667,-0.0784,4.5985,-0.0314,-0.2654,0.2565,-1.7479,-0.2339,
5.032558,0.1018,-1.0721,-0.0596,4.5985,-0.0314,-0.2654,0.2565,-1.7479,-0.2339,
5.038529,0.1277,-1.0812,-0.0347,4.5985,-0.0314,-0.2654,0.2565,-1.7479,-0.2339,
5.044403,0.1289,-1.0921,-0.0191,4.5985,-0.0314,-0.2654,0.2565,-1.7479,-0.2339,
5.046415,0.1289,-1.0921,-0.0191,4.5985,-0.0314,-0.2654,-0.4658,-1.9216,-0.3628,
5.047847,0.1289,-1.0921,-0.0191,0.2932,-0.6263,-0.6036,-0.4658,-1.9216,-0.3628,
5.049189,0.1162,-1.1075,-0.0152,0.2932,-0.6263,-0.6036,-0.4658,-1.9216,-0.3628,
5.051405,0.0913,-1.1285,-0.0215,0.2932,-0.6263,-0.6036,-0.4658,-1.9216,-0.3628,
5.058012,0.0588,-1.1476,-0.0364,0.2932,-0.6263,-0.6036,-0.4658,-1.9216,-0.3628,
5.062032,0.0212,-1.1740,-0.0564,0.2932,-0.6263,-0.6036,-0.4658,-1.9216,-0.3628,
5.067919,-0.0196,-1.1999,-0.0635,0.2932,-0.6263,-0.6036,-0.4658,-1.9216,-0.3628,
5.072722,-0.0531,-1.2155,-0.0748,0.2932,-0.6263,-0.6036,-0.4658,-1.9216,-0.3628,
5.077845,-0.0892,-1.2165,-0.0816,0.2932,-0.6263,-0.6036,-0.4658,-1.9216,-0.3628,
5.081634,-0.1318,-1.2038,-0.0965,0.2932,-0.6263,-0.6036,-0.4658,-1.9216,-0.3628,
5.083051,-0.1318,-1.2038,-0.0965,0.2932,-0.6263,-0.6036,-1.3862,-2.4191,-0.2361,
5.083880,-0.1318,-1.2038,-0.0965,0.2333,-0.6400,-0.0346,-1.3862,-2.4191,-0.2361,
5.085924,-0.1704,-1.1742,-0.1139,0.2333,-0.6400,-0.0346,-1.3862,-2.4191,-0.2361,
5.090908,-0.2263,-1.1376,-0.1461,0.2333,-0.6400,-0.0346,-1.3862,-2.4191,-0.2361,
5.096120,-0.2947,-1.1022,-0.1886,0.2333,-0.6400,-0.0346,-1.3862,-2.4191,-0.2361,
5.100508,-0.3670,-1.0567,-0.2258,0.2333,-0.6400,-0.0346,-1.3862,-2.4191,-0.2361,
5.105652,-0.4215,-1.0066,-0.2619,0.2333,-0.6400,-0.0346,-1.3862,-2.4191,-0.2361,
5.111708,-0.4506,-0.9561,-0.2888,0.2333,-0.6400,-0.0346,-1.3862,-2.4191,-0.2361,
5.117148,-0.4379,-0.9038,-0.2934,0.2333,-0.6400,-0.0346,-1.3862,-2.4191,-0.2361,
5.121102,-0.3934,-0.8703,-0.2819,0.2333,-0.6400,-0.0346,-1.3862,-2.4191,-0.2361,
5.122298,-0.3934,-0.8703,-0.2819,0.2333,-0.6400,-0.0346,-1.5566,-2.0260,-0.5248,
5.123290,-0.3934,-0.8703,-0.2819,-1.4899,-1.3477,0.2791,-1.5566,-2.0260,-0.5248,
5.125672,-0.3428,-0.8403,-0.2514,-1.4899,-1.3477,0.2791,-1.5566,-2.0260,-0.5248,
5.131323,-0.2742,-0.8161,-0.2133,-1.4899,-1.3477,0.2791,-1.5566,-2.0260,-0.5248,
5.135442,-0.1919,-0.8002,-0.1586,-1.4899,-1.3477,0.2791,-1.5566,-2.0260,-0.5248,
5.140524,-0.0914,-0.7870,-0.0928,-1.4899,-1.3477,0.2791,-1.5566,-2.0260,-0.5248,
5.145746,-0.0047,-0.7851,-0.0335,-1.4899,-1.3477,0.2791,-1.5566,-2.0260,-0.5248,
5.150852,0.0547,-0.7948,0.0093,-1.4899,-1.3477,0.2791,-1.5566,-2.0260,-0.5248,
5.158582,0.1355,-0.8222,0.0374,-1.4899,-1.3477,0.2791,-1.5566,-2.0260,-0.5248,
5.162265,0.2274,-0.8488,0.0821,-1.4899,-1.3477,0.2791,-1.5566,-2.0260,-0.5248,
5.164069,0.2274,-0.8488,0.0821,-1.4899,-1.3477,0.2791,-1.6770,-1.1343,-0.4108,
5.167311,0.2274,-0.8488,0.0821,-1.5510,-1.4401,0.9332,-1.6770,-1.1343,-0.4108,
5.169002,0.2921,-0.8894,0.1353,-1.5510,-1.4401,0.9332,-1.6770,-1.1343,-0.4108,
5.172173,0.2919,-0.9382,0.1634,-1.5510,-1.4401,0.9332,-1.6770,-1.1343,-0.4108,
5.179157,0.2418,-0.9837,0.1698,-1.5510,-1.4401,0.9332,-1.6770,-1.1343,-0.4108,
5.183192,0.2069,-1.0184,0.1429,-1.5510,-1.4401,0.9332,-1.6770,-1.1343,-0.4108,
5.185978,0.1707,-1.0484,0.0845,-1.5510,-1.4401,0.9332,-1.6770,-1.1343,-0.4108,
5.191797,0.1223,-1.0782,0.0278,-1.5510,-1.4401,0.9332,-1.6770,-1.1343,-0.4108,
5.195681,0.0466,-1.0987,-0.0464,-1.5510,-1.4401,0.9332,-1.6770,-1.1343,-0.4108,
5.202595,-0.0243,-1.0941,-0.1241,-1.5510,-1.4401,0.9332,-1.6770,-1.1343,-0.4108,
5.203837,-0.0243,-1.0941,-0.1241,-1.5510,-1.4401,0.9332,-1.2189,-0.9202,-0.1381,
5.204808,-0.0243,-1.0941,-0.1241,-1.2748,1.3068,1.5399,-1.2189,-0.9202,-0.1381,
5.206083,-0.0770,-1.0714,-0.1840,-1.2748,1.3068,1.5399,-1.2189,-0.9202,-0.1381,
5.210883,-0.1225,-1.0345,-0.2226,-1.2748,1.3068,1.5399,-1.2189,-0.9202,-0.1381,
5.216719,-0.1555,-0.9883,-0.2299,-1.2748,1.3068,1.5399,-1.2189,-0.9202,-0.1381,
5.219801,-0.1809,-0.9373,-0.2165,-1.2748,1.3068,1.5399,-1.2189,-0.9202,-0.1381,
5.227756,-0.1994,-0.8860,-0.1991,-1.2748,1.3068,1.5399,-1.2189,-0.9202,-0.1381,
5.232048,-0.2019,-0.8376,-0.1869,-1.2748,1.3068,1.5399,-1.2189,-0.9202,-0.1381,
5.235360,-0.1992,-0.7951,-0.1828,-1.2748,1.3068,1.5399,-1.2189,-0.9202,-0.1381,
5.241872,-0.1919,-0.7567,-0.1784,-1.2748,1.3068,1.5399,-1.2189,-0.9202,-0.1381,
5.243490,-0.1919,-0.7567,-0.1784,-1.2748,1.3068,1.5399,-0.0514,-1.1205,-0.5493,
5.244757,-0.1919,-0.7567,-0.1784,-0.7480,-0.0776,1.5660,-0.0514,-1.1205,-0.5493,
5.245942,-0.1765,-0.7245,-0.1825,-0.7480,-0.0776,1.5660,-0.0514,-1.1205,-0.5493,
5.251287,-0.1645,-0.7032,-0.1891,-0.7480,-0.0776,1.5660,-0.0514,-1.1205,-0.5493,
5.254626,-0.1540,-0.6859,-0.2033,-0.7480,-0.0776,1.5660,-0.0514,-1.1205,-0.5493,
5.262247,-0.1386,-0.6807,-0.2145,-0.7480,-0.0776,1.5660,-0.0514,-1.1205,-0.5493,
5.266478,-0.1200,-0.6817,-0.2218,-0.7480,-0.0776,1.5660,-0.0514,-1.1205,-0.5493,
5.269854,-0.0971,-0.6844,-0.2231,-0.7480,-0.0776,1.5660,-0.0514,-1.1205,-0.5493,
5.275623,-0.0797,-0.6912,-0.2226,-0.7480,-0.0776,1.5660,-0.0514,-1.1205,-0.5493,
5.283684,-0.0797,-0.6912,-0.2226,-0.8641,-0.0664,1.4721,-0.0514,-1.1205,-0.5493,
5.285567,-0.0629,-0.7008,-0.2277,-0.8641,-0.0664,1.4721,-0.0514,-1.1205,-0.5493,
5.286387,-0.0629,-0.7008,-0.2277,-0.8641,-0.0664,1.4721,0.2181,-0.6901,-0.5162,
5.287106,-0.0590,-0.7115,-0.2363,-0.8641,-0.0664,1.4721,0.2181,-0.6901,-0.5162,
5.291071,-0.0653,-0.7264,-0.2448,-0.8641,-0.0664,1.4721,0.2181,-0.6901,-0.5162,
5.296172,-0.0736,-0.7357,-0.2639,-0.8641,-0.0664,1.4721,0.2181,-0.6901,-0.5162,
5.299823,-0.0834,-0.7460,-0.2839,-0.8641,-0.0664,1.4721,0.2181,-0.6901,-0.5162,
5.305449,-0.0939,-0.7535,-0.3010,-0.8641,-0.0664,1.4721,0.2181,-0.6901,-0.5162,
5.311361,-0.0988,-0.7435,-0.3166,-0.8641,-0.0664,1.4721,0.2181,-0.6901,-0.5162,
5.312970,-0.1159,-0.7399,-0.3254,-0.8641,-0.0664,1.4721,0.2181,-0.6901,-0.5162,
5.319434,-0.1393,-0.7452,-0.3308,-0.8641,-0.0664,1.4721,0.2181,-0.6901,-0.5162,
5.320424,-0.1393,-0.7452,-0.3308,-0.8641,-0.0664,1.4721,0.0306,-0.4675,-0.3288,
5.321028,-0.1393,-0.7452,-0.3308,-1.7413,2.6299,0.1691,0.0306,-0.4675,-0.3288,
5.323315,-0.1655,-0.7572,-0.3416,-1.7413,2.6299,0.1691,0.0306,-0.4675,-0.3288,
5.328719,-0.1813,-0.7719,-0.3555,-1.7413,2.6299,0.1691,0.0306,-0.4675,-0.3288,
5.333331,-0.2016,-0.7968,-0.3892,-1.7413,2.6299,0.1691,0.0306,-0.4675,-0.3288,
5.338012,-0.2292,-0.8373,-0.4317,-1.7413,2.6299,0.1691,0.0306,-0.4675,-0.3288,
5.342755,-0.2375,-0.8747,-0.5096,-1.7413,2.6299,0.1691,0.0306,-0.4675,-0.3288,
5.347676,-0.2390,-0.9092,-0.5907,-1.7413,2.6299,0.1691,0.0306,-0.4675,-0.3288,
5.352464,-0.2241,-0.9480,-0.6662,-1.7413,2.6299,0.1691,0.0306,-0.4675,-0.3288,
5.358146,-0.1809,-0.9866,-0.7129,-1.7413,2.6299,0.1691,0.0306,-0.4675,-0.3288,
5.359050,-0.1809,-0.9866,-0.7129,-1.7413,2.6299,0.1691,0.0626,-0.2715,-0.3724,
5.359582,-0.1809,-0.9866,-0.7129,-1.8266,2.5817,0.1501,0.0626,-0.2715,-0.3724,
5.362806,-0.1217,-1.0235,-0.7212,-1.8266,2.5817,0.1501,0.0626,-0.2715,-0.3724,
5.367427,-0.0514,-1.0601,-0.7024,-1.8266,2.5817,0.1501,0.0626,-0.2715,-0.3724,
5.372506,-0.0186,-1.1088,-0.6315,-1.8266,2.5817,0.1501,0.0626,-0.2715,-0.3724,
5.378174,0.0143,-1.1481,-0.5881,-1.8266,2.5817,0.1501,0.0626,-0.2715,-0.3724,
5.384503,0.0097,-1.1796,-0.4791,-1.8266,2.5817,0.1501,0.0626,-0.2715,-0.3724,
5.389399,-0.0138,-1.2006,-0.3433,-1.8266,2.5817,0.1501,0.0626,-0.2715,-0.3724,
5.392863,-0.0440,-1.1940,-0.2196,-1.8266,2.5817,0.1501,0.0626,-0.2715,-0.3724,
5.399469,-0.0929,-1.1708,-0.1244,-1.8266,2.5817,0.1501,0.0626,-0.2715,-0.3724,
5.400499,-0.0929,-1.1708,-0.1244,-1.8266,2.5817,0.1501,0.1191,-0.2310,-0.2829,
5.400970,-0.0929,-1.1708,-0.1244,-2.4458,1.3115,-2.1883,0.1191,-0.2310,-0.2829,
5.403445,-0.1276,-1.1393,-0.0731,-2.4458,1.3115,-2.1883,0.1191,-0.2310,-0.2829,
5.408775,-0.1706,-1.1080,-0.0696,-2.4458,1.3115,-2.1883,0.1191,-0.2310,-0.2829,
5.414489,-0.2285,-1.0746,-0.1134,-2.4458,1.3115,-2.1883,0.1191,-0.2310,-0.2829,
5.417067,-0.2759,-1.0467,-0.1762,-2.4458,1.3115,-2.1883,0.1191,-0.2310,-0.2829,
5.424611,-0.3331,-1.0333,-0.2199,-2.4458,1.3115,-2.1883,0.1191,-0.2310,-0.2829,
5.429050,-0.3993,-1.0267,-0.2568,-2.4458,1.3115,-2.1883,0.1191,-0.2310,-0.2829,
5.434372,-0.4611,-1.0308,-0.2959,-2.4458,1.3115,-2.1883,0.1191,-0.2310,-0.2829,
5.437930,-0.5026,-1.0364,-0.3171,-2.4458,1.3115,-2.1883,0.1191,-0.2310,-0.2829,
5.439272,-0.5026,-1.0364,-0.3171,-2.4458,1.3115,-2.1883,0.1084,0.3251,-0.1967,
5.440175,-0.5026,-1.0364,-0.3171,-2.1386,-1.3779,-0.7235,0.1084,0.3251,-0.1967,
5.445803,-0.5344,-1.0433,-0.3205,-2.1386,-1.3779,-0.7235,0.1084,0.3251,-0.1967,
5.447659,-0.5158,-1.0570,-0.3088,-2.1386,-1.3779,-0.7235,0.1084,0.3251,-0.1967,
5.454929,-0.4691,-1.0616,-0.2986,-2.1386,-1.3779,-0.7235,0.1084,0.3251,-0.1967,
5.457637,-0.4054,-1.0672,-0.3037,-2.1386,-1.3779,-0.7235,0.1084,0.3251,-0.1967,
5.466404,-0.3362,-1.0714,-0.3083,-2.1386,-1.3779,-0.7235,0.1084,0.3251,-0.1967,
5.469050,-0.2766,-1.0829,-0.2986,-2.1386,-1.3779,-0.7235,0.1084,0.3251,-0.1967,
5.474682,-0.2468,-1.1000,-0.2705,-2.1386,-1.3779,-0.7235,0.1084,0.3251,-0.1967,
5.479048,-0.2324,-1.1251,-0.2419,-2.1386,-1.3779,-0.7235,0.1084,0.3251,-0.1967,
5.480754,-0.2324,-1.1251,-0.2419,-2.1386,-1.3779,-0.7235,0.5121,0.4050,0.0207,
5.481931,-0.2324,-1.1251,-0.2419,-2.1298,-1.3106,-0.9158,0.5121,0.4050,0.0207,
5.483842,-0.2241,-1.1520,-0.2130,-2.1298,-1.3106,-0.9158,0.5121,0.4050,0.0207,
5.489150,-0.2175,-1.1752,-0.1964,-2.1298,-1.3106,-0.9158,0.5121,0.4050,0.0207,
5.492384,-0.2158,-1.1970,-0.1742,-2.1298,-1.3106,-0.9158,0.5121,0.4050,0.0207,
5.499359,-0.2082,-1.2180,-0.1478,-2.1298,-1.3106,-0.9158,0.5121,0.4050,0.0207,
5.502796,-0.1850,-1.2334,-0.1268,-2.1298,-1.3106,-0.9158,0.5121,0.4050,0.0207,
5.509259,-0.1467,-1.2395,-0.1068,-2.1298,-1.3106,-0.9158,0.5121,0.4050,0.0207,
5.513515,-0.1117,-1.2575,-0.0899,-2.1298,-1.3106,-0.9158,0.5121,0.4050,0.0207,
5.518350,-0.0878,-1.2832,-0.0892,-2.1298,-1.3106,-0.9158,0.5121,0.4050,0.0207,
5.519510,-0.0878,-1.2832,-0.0892,-2.1298,-1.3106,-0.9158,0.5089,0.9909,0.1709,
5.520241,-0.0878,-1.2832,-0.0892,-4.2608,-1.0284,-0.7903,0.5089,0.9909,0.1709,
5.522609,-0.0770,-1.3027,-0.1014,-4.2608,-1.0284,-0.7903,0.5089,0.9909,0.1709,
5.526664,-0.0519,-1.3064,-0.1266,-4.2608,-1.0284,-0.7903,0.5089,0.9909,0.1709,
5.533926,-0.0182,-1.2930,-0.1400,-4.2608,-1.0284,-0.7903,0.5089,0.9909,0.1709,
5.537077,0.0041,-1.2756,-0.1280,-4.2608,-1.0284,-0.7903,0.5089,0.9909,0.1709,
5.541373,0.0026,-1.2610,-0.0841,-4.2608,-1.0284,-0.7903,0.5089,0.9909,0.1709,
5.546529,-0.0111,-1.2522,-0.0240,-4.2608,-1.0284,-0.7903,0.5089,0.9909,0.1709,
5.551295,-0.0186,-1.2524,0.0454,-4.2608,-1.0284,-0.7903,0.5089,0.9909,0.1709,
5.556258,-0.0194,-1.2529,0.1048,-4.2608,-1.0284,-0.7903,0.5089,0.9909,0.1709,
5.557252,-0.0194,-1.2529,0.1048,-4.2608,-1.0284,-0.7903,0.5132,1.7206,0.2870,
5.557944,-0.0194,-1.2529,0.1048,-1.4493,-2.6188,0.8550,0.5132,1.7206,0.2870,
5.563463,-0.0116,-1.2373,0.1686,-1.4493,-2.6188,0.8550,0.5132,1.7206,0.2870,
5.567017,0.0097,-1.2160,0.2157,-1.4493,-2.6188,0.8550,0.5132,1.7206,0.2870,
5.573406,0.0314,-1.1828,0.2360,-1.4493,-2.6188,0.8550,0.5132,1.7206,0.2870,
5.578949,0.0586,-1.1361,0.2455,-1.4493,-2.6188,0.8550,0.5132,1.7206,0.2870,
5.583817,0.0769,-1.0965,0.2367,-1.4493,-2.6188,0.8550,0.5132,1.7206,0.2870,
5.588706,0.0862,-1.0655,0.2123,-1.4493,-2.6188,0.8550,0.5132,1.7206,0.2870,
5.593128,0.0896,-1.0399,0.1866,-1.4493,-2.6188,0.8550,0.5132,1.7206,0.2870,
5.597196,0.0918,-1.0076,0.1603,-1.4493,-2.6188,0.8550,0.5132,1.7206,0.2870,
5.599471,0.0918,-1.0076,0.1603,-1.4493,-2.6188,0.8550,0.4972,1.5363,0.4127,
5.600715,0.0918,-1.0076,0.1603,-1.3577,-2.5345,0.6078,0.4972,1.5363,0.4127,
5.602960,0.0881,-0.9837,0.1395,-1.3577,-2.5345,0.6078,0.4972,1.5363,0.4127,
5.606580,0.0920,-0.9600,0.1016,-1.3577,-2.5345,0.6078,0.4972,1.5363,0.4127,
5.613571,0.1003,-0.9390,0.0616,-1.3577,-2.5345,0.6078,0.4972,1.5363,0.4127,
5.616956,0.1079,-0.9167,0.0510,-1.3577,-2.5345,0.6078,0.4972,1.5363,0.4127,
5.622719,0.1267,-0.9033,0.0342,-1.3577,-2.5345,0.6078,0.4972,1.5363,0.4127,
5.630285,0.1543,-0.8967,0.0183,-1.3577,-2.5345,0.6078,0.4972,1.5363,0.4127,
5.632892,0.1861,-0.8877,0.0054,-1.3577,-2.5345,0.6078,0.4972,1.5363,0.4127,
5.637148,0.2230,-0.8903,-0.0232,-1.3577,-2.5345,0.6078,0.4972,1.5363,0.4127,
5.638023,0.2230,-0.8903,-0.0232,-1.3577,-2.5345,0.6078,0.7305,1.3957,0.6353,
5.639275,0.2230,-0.8903,-0.0232,0.2339,-0.4101,2.5565,0.7305,1.3957,0.6353,
5.640941,0.2767,-0.8886,-0.0362,0.2339,-0.4101,2.5565,0.7305,1.3957,0.6353,
5.647962,0.3380,-0.8808,-0.0352,0.2339,-0.4101,2.5565,0.7305,1.3957,0.6353,
5.651167,0.3977,-0.8828,-0.0218,0.2339,-0.4101,2.5565,0.7305,1.3957,0.6353,
5.657377,0.4433,-0.8857,0.0002,0.2339,-0.4101,2.5565,0.7305,1.3957,0.6353,
5.662248,0.4758,-0.8945,0.0381,0.2339,-0.4101,2.5565,0.7305,1.3957,0.6353,
5.668169,0.5049,-0.9111,0.0826,0.2339,-0.4101,2.5565,0.7305,1.3957,0.6353,
5.671206,0.5081,-0.9358,0.1268,0.2339,-0.4101,2.5565,0.7305,1.3957,0.6353,
5.679456,0.4678,-0.9717,0.1390,0.2339,-0.4101,2.5565,0.7305,1.3957,0.6353,
5.681424,0.4678,-0.9717,0.1390,0.2339,-0.4101,2.5565,0.7785,1.1443,0.7514,
5.682785,0.4678,-0.9717,0.1390,0.4825,-0.3671,2.1965,0.7785,1.1443,0.7514,
5.685321,0.4255,-1.0098,0.1278,0.4825,-0.3671,2.1965,0.7785,1.1443,0.7514,
5.686865,0.3796,-1.0369,0.1038,0.4825,-0.3671,2.1965,0.7785,1.1443,0.7514,
5.692206,0.3317,-1.0706,0.0591,0.4825,-0.3671,2.1965,0.7785,1.1443,0.7514,
5.696403,0.2960,-1.1088,0.0134,0.4825,-0.3671,2.1965,0.7785,1.1443,0.7514,
5.702665,0.2601,-1.1347,-0.0411,0.4825,-0.3671,2.1965,0.7785,1.1443,0.7514,
5.705618,0.2169,-1.1569,-0.1048,0.4825,-0.3671,2.1965,0.7785,1.1443,0.7514,
5.712490,0.1790,-1.1681,-0.1705,0.4825,-0.3671,2.1965,0.7785,1.1443,0.7514,
5.716757,0.1595,-1.1598,-0.2355,0.4825,-0.3671,2.1965,0.7785,1.1443,0.7514,
5.718172,0.1595,-1.1598,-0.2355,0.4825,-0.3671,2.1965,0.4738,1.8505,0.2369,
5.719401,0.1595,-1.1598,-0.2355,3.3693,0.9200,0.8329,0.4738,1.8505,0.2369,
5.720292,0.1531,-1.1310,-0.2780,3.3693,0.9200,0.8329,0.4738,1.8505,0.2369,
5.726073,0.1553,-1.0797,-0.2766,3.3693,0.9200,0.8329,0.4738,1.8505,0.2369,
5.731078,0.1538,-1.0162,-0.2431,3.3693,0.9200,0.8329,0.4738,1.8505,0.2369,
5.735635,0.1485,-0.9553,-0.1837,3.3693,0.9200,0.8329,0.4738,1.8505,0.2369,
5.740122,0.1436,-0.8977,-0.1231,3.3693,0.9200,0.8329,0.4738,1.8505,0.2369,
5.746186,0.1380,-0.8520,-0.0562,3.3693,0.9200,0.8329,0.4738,1.8505,0.2369,
5.750456,0.1250,-0.8109,0.0239,3.3693,0.9200,0.8329,0.4738,1.8505,0.2369,
5.754441,0.1033,-0.7938,0.1129,3.3693,0.9200,0.8329,0.4738,1.8505,0.2369,
5.755794,0.1033,-0.7938,0.1129,3.3693,0.9200,0.8329,0.3417,2.4386,-0.0209,
5.756674,0.1033,-0.7938,0.1129,1.5517,-0.2540,-0.9247,0.3417,2.4386,-0.0209,
5.759133,0.0967,-0.7995,0.1810,1.5517,-0.2540,-0.9247,0.3417,2.4386,-0.0209,
5.767190,0.1050,-0.8105,0.2247,1.5517,-0.2540,-0.9247,0.3417,2.4386,-0.0209,
5.771445,0.1350,-0.8312,0.2458,1.5517,-0.2540,-0.9247,0.3417,2.4386,-0.0209,
5.776493,0.1878,-0.8559,0.2260,1.5517,-0.2540,-0.9247,0.3417,2.4386,-0.0209,
5.780341,0.2486,-0.8715,0.1837,1.5517,-0.2540,-0.9247,0.3417,2.4386,-0.0209,
5.786841,0.3073,-0.8845,0.1309,1.5517,-0.2540,-0.9247,0.3417,2.4386,-0.0209,
5.791335,0.3569,-0.9099,0.0747,1.5517,-0.2540,-0.9247,0.3417,2.4386,-0.0209,
5.796202,0.3962,-0.9402,0.0225,1.5517,-0.2540,-0.9247,0.3417,2.4386,-0.0209,
5.798168,0.3962,-0.9402,0.0225,1.5517,-0.2540,-0.9247,0.0647,1.6748,0.2721,
5.799504,0.3962,-0.9402,0.0225,1.6142,-0.2463,-0.9522,0.0647,1.6748,0.2721,
5.800849,0.4302,-0.9715,-0.0359,1.6142,-0.2463,-0.9522,0.0647,1.6748,0.2721,
5.806789,0.4560,-0.9971,-0.0933,1.6142,-0.2463,-0.9522,0.0647,1.6748,0.2721,
5.809793,0.4653,-1.0230,-0.1744,1.6142,-0.2463,-0.9522,0.0647,1.6748,0.2721,
5.816623,0.4641,-1.0377,-0.2536,1.6142,-0.2463,-0.9522,0.0647,1.6748,0.2721,
5.821374,0.4517,-1.0408,-0.3135,1.6142,-0.2463,-0.9522,0.0647,1.6748,0.2721,
5.824690,0.4355,-1.0269,-0.3628,1.6142,-0.2463,-0.9522,0.0647,1.6748,0.2721,
5.830842,0.4270,-1.0025,-0.4048,1.6142,-0.2463,-0.9522,0.0647,1.6748,0.2721,
5.834428,0.4116,-0.9690,-0.4398,1.6142,-0.2463,-0.9522,0.0647,1.6748,0.2721,
5.836069,0.4116,-0.9690,-0.4398,1.6142,-0.2463,-0.9522,0.5068,1.3339,0.3839,
5.836914,0.4116,-0.9690,-0.4398,2.6846,1.1093,0.6821,0.5068,1.3339,0.3839,
5.839218,0.3740,-0.9358,-0.4542,2.6846,1.1093,0.6821,0.5068,1.3339,0.3839,
5.846605,0.3180,-0.9121,-0.4476,2.6846,1.1093,0.6821,0.5068,1.3339,0.3839,
5.850184,0.2525,-0.8911,-0.4356,2.6846,1.1093,0.6821,0.5068,1.3339,0.3839,
5.854092,0.1849,-0.8872,-0.4185,2.6846,1.1093,0.6821,0.5068,1.3339,0.3839,
5.860542,0.1341,-0.8921,-0.4053,2.6846,1.1093,0.6821,0.5068,1.3339,0.3839,
5.864500,0.1013,-0.9021,-0.4009,2.6846,1.1093,0.6821,0.5068,1.3339,0.3839,
5.871458,0.0918,-0.9197,-0.4026,2.6846,1.1093,0.6821,0.5068,1.3339,0.3839,
5.874712,0.0969,-0.9417,-0.3965,2.6846,1.1093,0.6821,0.5068,1.3339,0.3839,
5.876243,0.0969,-0.9417,-0.3965,2.6846,1.1093,0.6821,0.4685,1.1613,0.2614,
5.877108,0.0969,-0.9417,-0.3965,2.7434,1.0908,0.4851,0.4685,1.1613,0.2614,
5.882034,0.1155,-0.9690,-0.3814,2.7434,1.0908,0.4851,0.4685,1.1613,0.2614,
5.886952,0.1482,-0.9966,-0.3616,2.7434,1.0908,0.4851,0.4685,1.1613,0.2614,
5.889165,0.1863,-1.0154,-0.3381,2.7434,1.0908,0.4851,0.4685,1.1613,0.2614,
5.896895,0.2293,-1.0294,-0.2990,2.7434,1.0908,0.4851,0.4685,1.1613,0.2614,
5.901152,0.2792,-1.0421,-0.2609,2.7434,1.0908,0.4851,0.4685,1.1613,0.2614,
5.904634,0.3219,-1.0347,-0.2240,2.7434,1.0908,0.4851,0.4685,1.1613,0.2614,
5.909977,0.3525,-1.0294,-0.2086,2.7434,1.0908,0.4851,0.4685,1.1613,0.2614,
5.914642,0.3625,-1.0189,-0.1984,2.7434,1.0908,0.4851,0.4685,1.1613,0.2614,
5.916323,0.3625,-1.0189,-0.1984,2.7434,1.0908,0.4851,-0.6341,0.3954,0.2891,
5.917352,0.3625,-1.0189,-0.1984,2.5461,0.6558,-3.8062,-0.6341,0.3954,0.2891,
5.918896,0.3573,-1.0101,-0.2050,2.5461,0.6558,-3.8062,-0.6341,0.3954,0.2891,
5.924134,0.3278,-1.0044,-0.2170,2.5461,0.6558,-3.8062,-0.6341,0.3954,0.2891,
5.929963,0.2814,-1.0042,-0.2358,2.5461,0.6558,-3.8062,-0.6341,0.3954,0.2891,
5.933434,0.2110,-1.0044,-0.2453,2.5461,0.6558,-3.8062,-0.6341,0.3954,0.2891,
5.938096,0.1421,-0.9996,-0.2438,2.5461,0.6558,-3.8062,-0.6341,0.3954,0.2891,
5.942964,0.0681,-0.9971,-0.2470,2.5461,0.6558,-3.8062,-0.6341,0.3954,0.2891,
5.948913,-0.0108,-1.0081,-0.2509,2.5461,0.6558,-3.8062,-0.6341,0.3954,0.2891,
5.953128,-0.0824,-1.0232,-0.2536,2.5461,0.6558,-3.8062,-0.6341,0.3954,0.2891,
5.954331,-0.0824,-1.0232,-0.2536,2.5461,0.6558,-3.8062,-1.5630,-0.4877,0.2049,
5.955415,-0.0824,-1.0232,-0.2536,2.4988,-0.0484,-1.6730,-1.5630,-0.4877,0.2049,
5.957845,-0.1386,-1.0487,-0.2451,2.4988,-0.0484,-1.6730,-1.5630,-0.4877,0.2049,
5.963428,-0.1838,-1.0887,-0.2262,2.4988,-0.0484,-1.6730,-1.5630,-0.4877,0.2049,
5.970424,-0.2146,-1.1288,-0.1937,2.4988,-0.0484,-1.6730,-1.5630,-0.4877,0.2049,
5.973097,-0.2348,-1.1640,-0.1344,2.4988,-0.0484,-1.6730,-1.5630,-0.4877,0.2049,
5.980550,-0.2165,-1.1957,-0.0726,2.4988,-0.0484,-1.6730,-1.5630,-0.4877,0.2049,
5.983772,-0.1652,-1.2043,-0.0078,2.4988,-0.0484,-1.6730,-1.5630,-0.4877,0.2049,
5.989957,-0.0946,-1.1987,0.0540,2.4988,-0.0484,-1.6730,-1.5630,-0.4877,0.2049,
5.993383,-0.0206,-1.1701,0.1109,2.4988,-0.0484,-1.6730,-1.5630,-0.4877,0.2049,
5.994547,-0.0206,-1.1701,0.1109,2.4988,-0.0484,-1.6730,-2.2362,-0.6390,-0.0560,
5.995622,-0.0206,-1.1701,0.1109,2.4664,-0.1555,-0.7882,-2.2362,-0.6390,-0.0560,
6.000211,0.0598,-1.1322,0.1698,2.4664,-0.1555,-0.7882,-2.2362,-0.6390,-0.0560,
6.005899,0.1328,-1.0892,0.2240,2.4664,-0.1555,-0.7882,-2.2362,-0.6390,-0.0560,
6.008556,0.1924,-1.0496,0.2741,2.4664,-0.1555,-0.7882,-2.2362,-0.6390,-0.0560,
6.014175,0.2364,-1.0313,0.3076,2.4664,-0.1555,-0.7882,-2.2362,-0.6390,-0.0560,
6.019376,0.2787,-1.0186,0.3276,2.4664,-0.1555,-0.7882,-2.2362,-0.6390,-0.0560,
6.022799,0.3082,-1.0044,0.3467,2.4664,-0.1555,-0.7882,-2.2362,-0.6390,-0.0560,
6.030536,0.3388,-1.0008,0.3835,2.4664,-0.1555,-0.7882,-2.2362,-0.6390,-0.0560,
6.034123,0.3691,-1.0035,0.4187,2.4664,-0.1555,-0.7882,-2.2362,-0.6390,-0.0560,
6.035817,0.3691,-1.0035,0.4187,2.4664,-0.1555,-0.7882,-2.5345,-0.9767,0.1027,
6.036611,0.3691,-1.0035,0.4187,-0.5990,-1.3428,2.2047,-2.5345,-0.9767,0.1027,
6.038413,0.3820,-1.0147,0.4510,-0.5990,-1.3428,2.2047,-2.5345,-0.9767,0.1027,
6.043154,0.3666,-1.0333,0.4476,-0.5990,-1.3428,2.2047,-2.5345,-0.9767,0.1027,
6.047144,0.3141,-1.0687,0.3965,-0.5990,-1.3428,2.2047,-2.5345,-0.9767,0.1027,
6.052794,0.2535,-1.0846,0.3110,-0.5990,-1.3428,2.2047,-2.5345,-0.9767,0.1027,
6.057144,0.1964,-1.0843,0.1927,-0.5990,-1.3428,2.2047,-2.5345,-0.9767,0.1027,
6.064096,0.1377,-1.0807,0.0740,-0.5990,-1.3428,2.2047,-2.5345,-0.9767,0.1027,
6.066651,0.0837,-1.0807,-0.0235,-0.5990,-1.3428,2.2047,-2.5345,-0.9767,0.1027,
6.071944,0.0327,-1.0704,-0.0946,-0.5990,-1.3428,2.2047,-2.5345,-0.9767,0.1027,
6.073232,0.0327,-1.0704,-0.0946,-0.5990,-1.3428,2.2047,-1.6195,-1.3485,-0.1775,
6.074282,0.0327,-1.0704,-0.0946,2.6702,-0.8175,5.7899,-1.6195,-1.3485,-0.1775,
6.076731,-0.0172,-1.0565,-0.1503,2.6702,-0.8175,5.7899,-1.6195,-1.3485,-0.1775,
6.084249,-0.0509,-1.0494,-0.1840,2.6702,-0.8175,5.7899,-1.6195,-1.3485,-0.1775,
6.087235,-0.0736,-1.0345,-0.1835,2.6702,-0.8175,5.7899,-1.6195,-1.3485,-0.1775,
6.093001,-0.0751,-1.0154,-0.1693,2.6702,-0.8175,5.7899,-1.6195,-1.3485,-0.1775,
6.098875,-0.0643,-0.9888,-0.1551,2.6702,-0.8175,5.7899,-1.6195,-1.3485,-0.1775,
6.102176,-0.0318,-0.9529,-0.1197,2.6702,-0.8175,5.7899,-1.6195,-1.3485,-0.1775,
6.107490,0.0090,-0.9258,-0.0799,2.6702,-0.8175,5.7899,-1.6195,-1.3485,-0.1775,
6.112276,0.0507,-0.8957,-0.0474,2.6702,-0.8175,5.7899,-1.6195,-1.3485,-0.1775,
6.113446,0.0507,-0.8957,-0.0474,2.6702,-0.8175,5.7899,-0.4999,-0.3173,-0.7154,
6.114466,0.0507,-0.8957,-0.0474,2.4041,-0.8641,5.8742,-0.4999,-0.3173,-0.7154,
6.117925,0.0896,-0.8564,-0.0103,2.4041,-0.8641,5.8742,-0.4999,-0.3173,-0.7154,
