
time,gFx,gFy,gFz,ax,ay,az,wx,wy,wz,
0.074671,0.0000,0.0000,0.0000,0.6289,-3.5235,1.9415,0.0000,0.0000,0.0000,
0.134293,0.0000,0.0000,0.0000,0.6933,-3.4019,1.8421,0.0000,0.0000,0.0000,
0.196262,0.0000,0.0000,0.0000,0.7381,-3.2796,1.7451,0.0000,0.0000,0.0000,
0.254663,0.0000,0.0000,0.0000,0.7797,-3.1459,1.6424,0.0000,0.0000,0.0000,
0.314856,0.0000,0.0000,0.0000,0.7797,-3.1459,1.6424,-0.1968,-0.0832,-0.0336,
0.315964,0.0000,0.0000,0.0000,2.9304,-0.7948,0.6624,-0.1968,-0.0832,-0.0336,
0.375379,0.0000,0.0000,0.0000,2.9304,-0.7948,0.6624,-0.1632,-0.0483,-0.0342,
0.376513,0.0000,0.0000,0.0000,6.4370,5.3040,2.1116,-0.1632,-0.0483,-0.0342,
0.434918,-0.6052,-0.8099,-0.0127,6.4370,5.3040,2.1116,-0.1632,-0.0483,-0.0342,
0.435758,-0.6052,-0.8099,-0.0127,6.4370,5.3040,2.1116,-0.2285,-0.1064,-0.0171,
0.436258,-0.6052,-0.8099,-0.0127,0.7481,-2.3259,-4.6053,-0.2285,-0.1064,-0.0171,
0.494829,-0.5925,-0.8018,-0.0181,0.7481,-2.3259,-4.6053,-0.2285,-0.1064,-0.0171,
0.495745,-0.5925,-0.8018,-0.0181,0.7481,-2.3259,-4.6053,-0.2133,-0.0850,-0.0275,
0.496277,-0.5925,-0.8018,-0.0181,0.6763,-0.9278,-2.6508,-0.2133,-0.0850,-0.0275,
0.554414,-0.5869,-0.8106,-0.0120,0.6763,-0.9278,-2.6508,-0.2133,-0.0850,-0.0275,
0.555328,-0.5869,-0.8106,-0.0120,0.6763,-0.9278,-2.6508,-0.1809,-0.0514,0.0049,
0.555926,-0.5869,-0.8106,-0.0120,0.4756,-0.4724,-1.3697,-0.1809,-0.0514,0.0049,
0.614591,-0.5776,-0.8109,-0.0340,0.4756,-0.4724,-1.3697,-0.1809,-0.0514,0.0049,
0.615899,-0.5776,-0.8109,-0.0340,0.4756,-0.4724,-1.3697,-0.1503,-0.0037,0.0031,
0.616462,-0.5776,-0.8109,-0.0340,0.4024,-0.2641,-0.9602,-0.1503,-0.0037,0.0031,
0.675424,-0.5847,-0.8089,-0.0457,0.4024,-0.2641,-0.9602,-0.1503,-0.0037,0.0031,
0.677924,-0.5847,-0.8089,-0.0457,0.4024,-0.2641,-0.9602,-0.1039,0.0543,-0.0208,
0.678640,-0.5847,-0.8089,-0.0457,0.3301,-0.2368,-0.9988,-0.1039,0.0543,-0.0208,
0.735227,-0.5881,-0.8021,-0.0581,0.3301,-0.2368,-0.9988,-0.1039,0.0543,-0.0208,
0.737397,-0.5881,-0.8021,-0.0581,0.3301,-0.2368,-0.9988,-0.0722,0.0775,-0.0269,
0.738942,-0.5881,-0.8021,-0.0581,0.2870,-0.1574,-1.0486,-0.0722,0.0775,-0.0269,
0.795245,-0.6237,-0.7811,-0.0540,0.2870,-0.1574,-1.0486,-0.0722,0.0775,-0.0269,
0.797327,-0.6237,-0.7811,-0.0540,0.2870,-0.1574,-1.0486,-0.1149,0.0537,-0.0367,
0.798326,-0.6237,-0.7811,-0.0540,-0.0929,0.0806,-0.8437,-0.1149,0.0537,-0.0367,
0.854993,-0.6145,-0.7908,-0.0454,-0.0929,0.0806,-0.8437,-0.1149,0.0537,-0.0367,
0.856492,-0.6145,-0.7908,-0.0454,-0.0929,0.0806,-0.8437,-0.1797,-0.0117,0.0061,
0.857342,-0.6145,-0.7908,-0.0454,-0.0243,0.0074,-0.3107,-0.1797,-0.0117,0.0061,
0.914812,-0.5925,-0.7891,-0.0633,-0.0243,0.0074,-0.3107,-0.1797,-0.0117,0.0061,
0.916340,-0.5925,-0.7891,-0.0633,-0.0243,0.0074,-0.3107,-0.1681,-0.0166,0.0049,
0.917221,-0.5925,-0.7891,-0.0633,0.1968,0.0170,-0.3731,-0.1681,-0.0166,0.0049,
0.974519,-0.6076,-0.7764,-0.0694,0.1968,0.0170,-0.3731,-0.1681,-0.0166,0.0049,
0.975869,-0.6076,-0.7764,-0.0694,0.1968,0.0170,-0.3731,-0.1937,0.0109,-0.0666,
0.976598,-0.6076,-0.7764,-0.0694,0.0383,0.1463,-0.3514,-0.1937,0.0109,-0.0666,
1.034929,-0.6345,-0.7613,-0.0743,0.0383,0.1463,-0.3514,-0.1937,0.0109,-0.0666,
1.036330,-0.6345,-0.7613,-0.0743,-0.2705,0.3222,-0.2533,-0.1937,0.0109,-0.0666,
1.037312,-0.6345,-0.7613,-0.0743,-0.2705,0.3222,-0.2533,-0.2499,-0.0263,-0.1148,
1.096162,-0.6311,-0.7698,-0.0958,-0.2705,0.3222,-0.2533,-0.2499,-0.0263,-0.1148,
1.098714,-0.6311,-0.7698,-0.0958,-0.2899,0.2703,-0.3445,-0.2499,-0.0263,-0.1148,
1.100060,-0.6311,-0.7698,-0.0958,-0.2899,0.2703,-0.3445,-0.4387,-0.1876,-0.1252,
1.154699,-0.5722,-0.7992,-0.0955,-0.2899,0.2703,-0.3445,-0.4387,-0.1876,-0.1252,
1.157171,-0.5722,-0.7992,-0.0955,0.2440,0.0027,-0.1934,-0.4387,-0.1876,-0.1252,
1.159011,-0.5722,-0.7992,-0.0955,0.2440,0.0027,-0.1934,-0.5682,-0.3751,-0.0996,
1.215600,-0.5451,-0.8138,-0.1163,0.2440,0.0027,-0.1934,-0.5682,-0.3751,-0.0996,
1.217039,-0.5451,-0.8138,-0.1163,0.4930,-0.1433,-0.2538,-0.5682,-0.3751,-0.0996,
1.218117,-0.5451,-0.8138,-0.1163,0.4930,-0.1433,-0.2538,-0.5639,-0.3489,-0.0544,
1.274646,-0.5365,-0.8360,-0.1500,0.4930,-0.1433,-0.2538,-0.5639,-0.3489,-0.0544,
1.276006,-0.5365,-0.8360,-0.1500,0.5681,-0.3690,-0.4658,-0.5639,-0.3489,-0.0544,
1.276725,-0.5365,-0.8360,-0.1500,0.5681,-0.3690,-0.4658,-0.3965,-0.2939,-0.0556,
1.335794,-0.5338,-0.8211,-0.1774,0.5681,-0.3690,-0.4658,-0.3965,-0.2939,-0.0556,
1.338420,-0.5338,-0.8211,-0.1774,0.5773,-0.2174,-0.6802,-0.3965,-0.2939,-0.0556,
1.340190,-0.5338,-0.8211,-0.1774,0.5773,-0.2174,-0.6802,-0.2414,-0.3116,-0.1093,
1.395239,-0.5558,-0.8023,-0.2463,0.5773,-0.2174,-0.6802,-0.2414,-0.3116,-0.1093,
1.397863,-0.5558,-0.8023,-0.2463,0.5773,-0.2174,-0.6802,-0.1815,-0.3947,-0.1765,
1.399443,-0.5558,-0.8023,-0.2463,0.3175,0.0026,-1.3772,-0.1815,-0.3947,-0.1765,
1.457581,-0.6215,-0.7552,-0.2069,0.3175,0.0026,-1.3772,-0.1815,-0.3947,-0.1765,
1.459832,-0.6215,-0.7552,-0.2069,0.3175,0.0026,-1.3772,-0.3006,-0.1791,-0.2321,
1.461333,-0.6215,-0.7552,-0.2069,-0.4067,0.5230,-0.9932,-0.3006,-0.1791,-0.2321,
1.514870,-0.6291,-0.7632,-0.1434,-0.4067,0.5230,-0.9932,-0.3006,-0.1791,-0.2321,
1.517077,-0.6291,-0.7632,-0.1434,-0.4067,0.5230,-0.9932,-0.1265,0.2968,-0.0886,
1.518470,-0.6291,-0.7632,-0.1434,-0.5738,0.4923,-0.2434,-0.1265,0.2968,-0.0886,
1.574381,-0.5839,-0.8141,-0.1285,-0.5738,0.4923,-0.2434,-0.1265,0.2968,-0.0886,
1.576554,-0.5839,-0.8141,-0.1285,-0.5738,0.4923,-0.2434,0.0433,0.5106,0.0568,
1.578048,-0.5839,-0.8141,-0.1285,-0.1660,-0.0088,0.0789,0.0433,0.5106,0.0568,
1.636218,-0.5639,-0.7879,-0.1808,-0.1660,-0.0088,0.0789,0.0433,0.5106,0.0568,
1.638592,-0.5639,-0.7879,-0.1808,-0.1660,-0.0088,0.0789,0.1001,0.2944,-0.0739,
1.640834,-0.5639,-0.7879,-0.1808,0.0086,0.2441,-0.3276,0.1001,0.2944,-0.0739,
1.695463,-0.5822,-0.8053,-0.1984,0.0086,0.2441,-0.3276,0.1001,0.2944,-0.0739,
1.697843,-0.5822,-0.8053,-0.1984,0.0086,0.2441,-0.3276,-0.2713,-0.0893,-0.1258,
1.699062,-0.5822,-0.8053,-0.1984,-0.2382,0.1128,-0.4585,-0.2713,-0.0893,-0.1258,
1.755846,-0.5158,-0.7904,-0.1710,-0.2382,0.1128,-0.4585,-0.2713,-0.0893,-0.1258,
1.758501,-0.5158,-0.7904,-0.1710,-0.2382,0.1128,-0.4585,-0.2408,0.1129,-0.1649,
1.760334,-0.5158,-0.7904,-0.1710,0.3606,0.2647,-0.0381,-0.2408,0.1129,-0.1649,
1.817812,-0.5861,-0.7767,-0.2003,0.3606,0.2647,-0.0381,-0.2408,0.1129,-0.1649,
1.819945,-0.5861,-0.7767,-0.2003,0.3606,0.2647,-0.0381,0.2009,0.2950,-0.3903,
1.821112,-0.5861,-0.7767,-0.2003,-0.4841,0.4828,-0.2351,0.2009,0.2950,-0.3903,
1.876577,-0.6423,-0.7327,-0.2428,-0.4841,0.4828,-0.2351,0.2009,0.2950,-0.3903,
1.879041,-0.6423,-0.7327,-0.2428,-0.4841,0.4828,-0.2351,0.1826,0.0885,-0.4661,
1.880837,-0.6423,-0.7327,-0.2428,-1.2590,1.0621,-0.6854,0.1826,0.0885,-0.4661,
1.938020,-0.6643,-0.7393,-0.2360,-1.2590,1.0621,-0.6854,0.1826,0.0885,-0.4661,
1.940600,-0.6643,-0.7393,-0.2360,-1.2590,1.0621,-0.6854,-0.1784,-0.2163,-0.4184,
1.942839,-0.6643,-0.7393,-0.2360,-1.7035,1.1419,-0.6624,-0.1784,-0.2163,-0.4184,
1.995292,-0.6318,-0.9027,-0.2397,-1.7035,1.1419,-0.6624,-0.1784,-0.2163,-0.4184,
1.997388,-0.6318,-0.9027,-0.2397,-1.7035,1.1419,-0.6624,-0.3086,-0.2762,-0.1949,
1.999155,-0.6318,-0.9027,-0.2397,-1.5296,-0.3977,-0.6031,-0.3086,-0.2762,-0.1949,
2.057170,-0.5392,-0.9689,-0.2465,-1.5296,-0.3977,-0.6031,-0.3086,-0.2762,-0.1949,
2.060866,-0.5392,-0.9689,-0.2465,-1.5296,-0.3977,-0.6031,-0.0147,0.1569,-0.0513,
2.063386,-0.5392,-0.9689,-0.2465,-0.6573,-1.0435,-0.5933,-0.0147,0.1569,-0.0513,
2.114914,-0.4222,-0.9142,-0.2551,-0.6573,-1.0435,-0.5933,-0.0147,0.1569,-0.0513,
2.117678,-0.4222,-0.9142,-0.2551,-0.6573,-1.0435,-0.5933,0.3102,0.2357,0.1979,
2.120067,-0.4222,-0.9142,-0.2551,0.4952,-0.5107,-0.6746,0.3102,0.2357,0.1979,
2.175882,-0.4205,-0.8957,-0.1700,0.4952,-0.5107,-0.6746,0.3102,0.2357,0.1979,
2.178223,-0.4205,-0.8957,-0.1700,0.4952,-0.5107,-0.6746,0.4226,0.2052,0.2437,
2.179625,-0.4205,-0.8957,-0.1700,0.5978,-0.3503,0.0339,0.4226,0.2052,0.2437,
2.237203,-0.4053,-0.8739,-0.0594,0.5978,-0.3503,0.0339,0.4226,0.2052,0.2437,
2.240038,-0.4053,-0.8739,-0.0594,0.5978,-0.3503,0.0339,0.6975,0.5870,0.2749,
2.242338,-0.4053,-0.8739,-0.0594,0.8353,-0.1573,0.9616,0.6975,0.5870,0.2749,
2.295110,-0.3897,-0.9279,-0.2196,0.8353,-0.1573,0.9616,0.6975,0.5870,0.2749,
2.297439,-0.3897,-0.9279,-0.2196,0.8353,-0.1573,0.9616,1.2888,0.1496,0.2004,
2.298825,-0.3897,-0.9279,-0.2196,1.0493,-0.6654,-0.9522,1.2888,0.1496,0.2004,
2.355098,-0.3738,-0.9084,-0.1625,1.0493,-0.6654,-0.9522,1.2888,0.1496,0.2004,
2.357445,-0.3738,-0.9084,-0.1625,1.0493,-0.6654,-0.9522,0.3066,-0.2334,0.0696,
2.358849,-0.3738,-0.9084,-0.1625,1.2837,-0.4641,-0.8840,0.3066,-0.2334,0.0696,
2.416366,-0.3779,-0.8795,-0.1461,1.2837,-0.4641,-0.8840,0.3066,-0.2334,0.0696,
2.418803,-0.3779,-0.8795,-0.1461,1.2837,-0.4641,-0.8840,-0.1027,-0.4869,-0.0226,
2.420406,-0.3779,-0.8795,-0.1461,1.2615,-0.1820,-0.8604,-0.1027,-0.4869,-0.0226,
2.474734,-0.3801,-0.8983,-0.0955,1.2615,-0.1820,-0.8604,-0.1027,-0.4869,-0.0226,
2.477707,-0.3801,-0.8983,-0.0955,1.2615,-0.1820,-0.8604,-0.1216,-0.2218,-0.0666,
2.479699,-0.3801,-0.8983,-0.0955,1.2170,-0.3503,-0.4044,-0.1216,-0.2218,-0.0666,
2.539197,-0.3594,-0.9262,-0.0906,1.2170,-0.3503,-0.4044,-0.1216,-0.2218,-0.0666,
2.542000,-0.3594,-0.9262,-0.0906,1.2170,-0.3503,-0.4044,0.1520,0.0366,0.0012,
2.544015,-0.3594,-0.9262,-0.0906,1.4023,-0.6114,-0.3771,0.1520,0.0366,0.0012,
2.595304,-0.3630,-0.9347,-0.0814,1.4023,-0.6114,-0.3771,0.1520,0.0366,0.0012,
2.598002,-0.3630,-0.9347,-0.0814,1.4023,-0.6114,-0.3771,0.2095,0.1759,0.0000,
2.599446,-0.3630,-0.9347,-0.0814,1.3580,-0.6872,-0.3402,0.2095,0.1759,0.0000,
2.657207,-0.4077,-0.8690,-0.1129,1.3580,-0.6872,-0.3402,0.2095,0.1759,0.0000,
2.660386,-0.4077,-0.8690,-0.1129,1.3580,-0.6872,-0.3402,0.1697,0.1166,-0.0183,
2.662274,-0.4077,-0.8690,-0.1129,0.9048,-0.0314,-0.7121,0.1697,0.1166,-0.0183,
2.715667,-0.4231,-0.8832,-0.1060,0.9048,-0.0314,-0.7121,0.1697,0.1166,-0.0183,
2.717801,-0.4231,-0.8832,-0.1060,0.9048,-0.0314,-0.7121,-0.0111,0.0610,0.0195,
2.719831,-0.4231,-0.8832,-0.1060,0.7425,-0.1633,-0.6522,-0.0111,0.0610,0.0195,
2.776368,-0.3853,-0.9032,-0.1107,0.7425,-0.1633,-0.6522,-0.0111,0.0610,0.0195,
2.778455,-0.3853,-0.9032,-0.1107,0.7425,-0.1633,-0.6522,-0.1070,0.0567,0.0812,
2.779658,-0.3853,-0.9032,-0.1107,1.1308,-0.3717,-0.6513,-0.1070,0.0567,0.0812,
2.837162,-0.3579,-0.8861,-0.1094,1.1308,-0.3717,-0.6513,-0.1070,0.0567,0.0812,
2.840270,-0.3579,-0.8861,-0.1094,1.1308,-0.3717,-0.6513,-0.1876,0.0170,0.1228,
2.842162,-0.3579,-0.8861,-0.1094,1.4447,-0.2358,-0.5500,-0.1876,0.0170,0.1228,
2.895980,-0.4112,-0.9316,-0.1180,1.4447,-0.2358,-0.5500,-0.1876,0.0170,0.1228,
2.898337,-0.4112,-0.9316,-0.1180,1.4447,-0.2358,-0.5500,-0.1943,0.0769,0.1411,
2.900235,-0.4112,-0.9316,-0.1180,0.9838,-0.7248,-0.5231,-0.1943,0.0769,0.1411,
2.957299,-0.3687,-0.8314,-0.1300,0.9838,-0.7248,-0.5231,-0.1943,0.0769,0.1411,
2.960208,-0.3687,-0.8314,-0.1300,0.9838,-0.7248,-0.5231,-0.0221,0.1435,0.1668,
2.962394,-0.3687,-0.8314,-0.1300,1.4617,0.2120,-0.5429,-0.0221,0.1435,0.1668,
3.015436,-0.4876,-0.9059,-0.1554,1.4617,0.2120,-0.5429,-0.0221,0.1435,0.1668,
3.017742,-0.4876,-0.9059,-0.1554,1.4617,0.2120,-0.5429,-0.4057,-0.2353,0.1710,
3.019845,-0.4876,-0.9059,-0.1554,0.3857,-0.5810,-0.7120,-0.4057,-0.2353,0.1710,
3.075413,-0.4158,-0.8109,-0.1937,0.3857,-0.5810,-0.7120,-0.4057,-0.2353,0.1710,
3.079420,-0.4158,-0.8109,-0.1937,0.3857,-0.5810,-0.7120,-0.6574,-0.3861,0.1894,
3.082551,-0.4158,-0.8109,-0.1937,1.1835,0.2725,-0.9164,-0.6574,-0.3861,0.1894,
3.135375,-0.4830,-0.8255,-0.2138,1.1835,0.2725,-0.9164,-0.6574,-0.3861,0.1894,
3.137525,-0.4830,-0.8255,-0.2138,1.1835,0.2725,-0.9164,-0.8754,-0.7276,0.0348,
3.139388,-0.4830,-0.8255,-0.2138,0.6301,0.0364,-0.9280,-0.8754,-0.7276,0.0348,
3.196615,-0.5917,-0.9755,-0.1129,0.6301,0.0364,-0.9280,-0.8754,-0.7276,0.0348,
3.199075,-0.5917,-0.9755,-0.1129,0.6301,0.0364,-0.9280,-0.7630,-0.2744,0.0764,
3.201275,-0.5917,-0.9755,-0.1129,-0.3614,-1.5279,0.3368,-0.7630,-0.2744,0.0764,
3.256544,-0.5509,-0.8082,-0.1471,-0.3614,-1.5279,0.3368,-0.7630,-0.2744,0.0764,
3.259952,-0.5509,-0.8082,-0.1471,-0.3614,-1.5279,0.3368,0.1068,0.1233,0.1179,
3.261936,-0.5509,-0.8082,-0.1471,0.0919,0.0462,0.1561,0.1068,0.1233,0.1179,
3.315857,-0.6919,-0.8197,-0.2612,0.0919,0.0462,0.1561,0.1068,0.1233,0.1179,
3.318267,-0.6919,-0.8197,-0.2612,0.0919,0.0462,0.1561,0.1484,-0.4356,-0.0580,
3.319193,-0.6919,-0.8197,-0.2612,-1.2467,-0.0728,-1.0820,0.1484,-0.4356,-0.0580,
3.376877,-0.7921,-0.7796,-0.1554,-1.2467,-0.0728,-1.0820,0.1484,-0.4356,-0.0580,
3.380387,-0.7921,-0.7796,-0.1554,-1.2467,-0.0728,-1.0820,-0.3135,-0.4930,-0.1552,
3.382095,-0.7921,-0.7796,-0.1554,-2.2442,0.3549,-0.1812,-0.3135,-0.4930,-0.1552,
3.437008,-0.7093,-0.7036,-0.1244,-2.2442,0.3549,-0.1812,-0.3135,-0.4930,-0.1552,
3.440967,-0.7093,-0.7036,-0.1244,-2.2442,0.3549,-0.1812,0.1337,0.0677,0.2077,
3.442995,-0.7093,-0.7036,-0.1244,-1.4298,1.0941,0.1431,0.1337,0.0677,0.2077,
3.497330,-0.5219,-0.7669,-0.1573,-1.4298,1.0941,0.1431,0.1337,0.0677,0.2077,
3.500526,-0.5219,-0.7669,-0.1573,-1.4298,1.0941,0.1431,0.1801,0.0463,0.3855,
3.502139,-0.5219,-0.7669,-0.1573,0.5638,0.3810,-0.2880,0.1801,0.0463,0.3855,
3.555814,-0.4639,-0.8299,-0.1764,0.5638,0.3810,-0.2880,0.1801,0.0463,0.3855,
3.558686,-0.4639,-0.8299,-0.1764,0.5638,0.3810,-0.2880,0.2418,0.3701,0.2321,
3.560736,-0.4639,-0.8299,-0.1764,1.2845,-0.3479,-0.4820,0.2418,0.3701,0.2321,
3.615863,-0.5698,-0.8131,-0.1678,1.2845,-0.3479,-0.4820,0.2418,0.3701,0.2321,
3.618496,-0.5698,-0.8131,-0.1678,1.2845,-0.3479,-0.4820,0.4697,0.5167,-0.2156,
3.620567,-0.5698,-0.8131,-0.1678,0.2294,-0.1652,-0.4233,0.4697,0.5167,-0.2156,
3.677441,-0.7264,-0.7034,-0.0655,0.2294,-0.1652,-0.4233,0.4697,0.5167,-0.2156,
3.681708,-0.7264,-0.7034,-0.0655,0.2294,-0.1652,-0.4233,0.3768,0.3866,-0.4679,
3.683683,-0.7264,-0.7034,-0.0655,-1.5145,1.0689,0.5304,0.3768,0.3866,-0.4679,
3.735210,-0.7100,-0.7286,-0.1576,-1.5145,1.0689,0.5304,0.3768,0.3866,-0.4679,
3.738284,-0.7100,-0.7286,-0.1576,-1.5145,1.0689,0.5304,0.2675,-0.0966,-0.1717,
3.739937,-0.7100,-0.7286,-0.1576,-1.5443,0.9616,-0.4351,0.2675,-0.0966,-0.1717,
3.796744,-0.6154,-0.8150,-0.1551,-1.5443,0.9616,-0.4351,0.2675,-0.0966,-0.1717,
3.800130,-0.6154,-0.8150,-0.1551,-1.5443,0.9616,-0.4351,0.0616,-0.2249,-0.0086,
3.801738,-0.6154,-0.8150,-0.1551,-0.6314,0.1425,-0.5626,0.0616,-0.2249,-0.0086,
3.857023,-0.5888,-0.7972,-0.1659,-0.6314,0.1425,-0.5626,0.0616,-0.2249,-0.0086,
3.861003,-0.5888,-0.7972,-0.1659,-0.6314,0.1425,-0.5626,0.2015,-0.1442,0.0049,
3.862485,-0.5888,-0.7972,-0.1659,-0.3573,0.3203,-0.7734,0.2015,-0.1442,0.0049,
3.916849,-0.6081,-0.8143,-0.1156,-0.3573,0.3203,-0.7734,0.2015,-0.1442,0.0049,
3.921235,-0.6081,-0.8143,-0.1156,-0.3573,0.3203,-0.7734,0.1074,-0.0679,-0.0061,
3.923277,-0.6081,-0.8143,-0.1156,-0.5376,0.1587,-0.4027,0.1074,-0.0679,-0.0061,
3.976942,-0.6027,-0.8126,-0.1412,-0.5376,0.1587,-0.4027,0.1074,-0.0679,-0.0061,
3.980374,-0.6027,-0.8126,-0.1412,-0.5376,0.1587,-0.4027,0.1667,-0.3617,0.1148,
3.982145,-0.6027,-0.8126,-0.1412,-0.4635,0.1689,-0.7469,0.1667,-0.3617,0.1148,
4.034939,-0.5412,-0.8739,-0.0865,-0.4635,0.1689,-0.7469,0.1667,-0.3617,0.1148,
4.038396,-0.5412,-0.8739,-0.0865,-0.4635,0.1689,-0.7469,0.0696,-0.1595,0.3427,
4.040326,-0.5412,-0.8739,-0.0865,0.2613,-0.5029,-0.3828,0.0696,-0.1595,0.3427,
4.096838,-0.4964,-0.8370,0.0972,0.2613,-0.5029,-0.3828,0.0696,-0.1595,0.3427,
4.100483,-0.4964,-0.8370,0.0972,0.2613,-0.5029,-0.3828,0.7861,0.7195,0.4753,
4.102441,-0.4964,-0.8370,0.0972,0.8850,-0.2687,1.3476,0.7861,0.7195,0.4753,
4.154885,-0.5026,-0.9159,0.1085,0.8850,-0.2687,1.3476,0.7861,0.7195,0.4753,
4.157912,-0.5026,-0.9159,0.1085,0.8850,-0.2687,1.3476,1.6566,1.3017,0.7068,
4.160017,-0.5026,-0.9159,0.1085,1.0780,-1.2230,1.2099,1.6566,1.3017,0.7068,
4.216042,-0.6325,-0.9206,-0.1383,1.0780,-1.2230,1.2099,1.6566,1.3017,0.7068,
4.220034,-0.6325,-0.9206,-0.1383,1.0780,-1.2230,1.2099,0.5925,0.4532,0.3317,
4.222058,-0.6325,-0.9206,-0.1383,0.0768,-1.4861,-1.3618,0.5925,0.4532,0.3317,
4.274923,-0.5568,-0.7173,-0.0569,0.0768,-1.4861,-1.3618,0.5925,0.4532,0.3317,
4.277404,-0.5568,-0.7173,-0.0569,0.0768,-1.4861,-1.3618,-0.2084,-0.6232,-0.1613,
4.278934,-0.5568,-0.7173,-0.0569,0.8638,0.4673,-0.6859,-0.2084,-0.6232,-0.1613,
4.334936,-0.5622,-0.6692,-0.0811,0.8638,0.4673,-0.6859,-0.2084,-0.6232,-0.1613,
4.338312,-0.5622,-0.6692,-0.0811,0.8638,0.4673,-0.6859,-0.8162,-0.9231,-0.5089,
4.340186,-0.5622,-0.6692,-0.0811,0.6458,1.0732,-1.0146,-0.8162,-0.9231,-0.5089,
4.395569,-0.4266,-0.8292,0.0921,0.6458,1.0732,-1.0146,-0.8162,-0.9231,-0.5089,
4.398823,-0.4266,-0.8292,0.0921,0.6458,1.0732,-1.0146,-0.1394,-0.2188,-0.3201,
4.400887,-0.4266,-0.8292,0.0921,1.7464,-0.3148,0.7401,-0.1394,-0.2188,-0.3201,
4.454731,-0.3000,-0.9531,-0.0489,1.7464,-0.3148,0.7401,-0.1394,-0.2188,-0.3201,
4.457566,-0.3000,-0.9531,-0.0489,1.7464,-0.3148,0.7401,0.3365,1.1031,-0.4099,
4.459729,-0.3000,-0.9531,-0.0489,2.8472,-1.4241,-0.6000,0.3365,1.1031,-0.4099,
4.514449,-0.3804,-0.9448,-0.0359,2.8472,-1.4241,-0.6000,0.3365,1.1031,-0.4099,
4.518155,-0.3804,-0.9448,-0.0359,2.8472,-1.4241,-0.6000,0.1123,0.5332,-0.8534,
4.520395,-0.3804,-0.9448,-0.0359,1.7553,-1.1290,-0.2359,0.1123,0.5332,-0.8534,
4.576422,-0.5236,-0.8979,-0.0332,1.7553,-1.1290,-0.2359,0.1123,0.5332,-0.8534,
4.579130,-0.5236,-0.8979,-0.0332,1.7553,-1.1290,-0.2359,-0.1491,0.1478,-1.0214,
4.581459,-0.5236,-0.8979,-0.0332,-0.1484,-0.3552,-0.1150,-0.1491,0.1478,-1.0214,
4.635712,-0.4669,-0.8243,-0.0325,-0.1484,-0.3552,-0.1150,-0.1491,0.1478,-1.0214,
4.638780,-0.4669,-0.8243,-0.0325,-0.1484,-0.3552,-0.1150,-0.3208,-0.4558,-0.5559,
4.640598,-0.4669,-0.8243,-0.0325,-0.0043,0.5926,-0.0167,-0.3208,-0.4558,-0.5559,
4.696054,-0.4681,-0.8270,-0.0728,-0.0043,0.5926,-0.0167,-0.3208,-0.4558,-0.5559,
4.699292,-0.4681,-0.8270,-0.0728,-0.0043,0.5926,-0.0167,-0.4161,-0.2615,-0.2755,
4.701246,-0.4681,-0.8270,-0.0728,-0.2441,0.6800,-0.3444,-0.4161,-0.2615,-0.2755,
4.756142,-0.4336,-0.8263,-0.1178,-0.2441,0.6800,-0.3444,-0.4161,-0.2615,-0.2755,
4.759478,-0.4336,-0.8263,-0.1178,-0.2441,0.6800,-0.3444,-0.3788,0.0922,0.0922,
4.761696,-0.4336,-0.8263,-0.1178,0.0389,0.7015,-0.5580,-0.3788,0.0922,0.0922,
4.814407,-0.4207,-0.8859,-0.1393,0.0389,0.7015,-0.5580,-0.3788,0.0922,0.0922,
4.817493,-0.4207,-0.8859,-0.1393,0.0389,0.7015,-0.5580,-0.3886,0.3799,0.2529,
4.818990,-0.4207,-0.8859,-0.1393,0.2328,0.0671,-0.5540,-0.3886,0.3799,0.2529,
4.874253,-0.4068,-0.9861,-0.1429,0.2328,0.0671,-0.5540,-0.3886,0.3799,0.2529,
4.878088,-0.4068,-0.9861,-0.1429,0.2328,0.0671,-0.5540,-0.3379,0.8478,0.4789,
4.880087,-0.4068,-0.9861,-0.1429,0.5224,-1.0369,-0.2066,-0.3379,0.8478,0.4789,
4.938560,-0.4295,-1.0256,-0.0374,0.5224,-1.0369,-0.2066,-0.3379,0.8478,0.4789,
4.941602,-0.4295,-1.0256,-0.0374,0.5224,-1.0369,-0.2066,0.3365,1.1227,0.1533,
4.943363,-0.4295,-1.0256,-0.0374,0.4131,-1.5431,1.1890,0.3365,1.1227,0.1533,
4.994962,-0.5651,-0.8729,-0.2157,0.4131,-1.5431,1.1890,0.3365,1.1227,0.1533,
4.997616,-0.5651,-0.8729,-0.2157,0.4131,-1.5431,1.1890,-0.0893,0.1398,0.0226,
4.998862,-0.5651,-0.8729,-0.2157,-0.9321,-0.0450,-0.5208,-0.0893,0.1398,0.0226,
5.054514,-0.5250,-0.7908,-0.1388,-0.9321,-0.0450,-0.5208,-0.0893,0.1398,0.0226,
5.057505,-0.5250,-0.7908,-0.1388,-0.9321,-0.0450,-0.5208,-0.4020,-0.5584,0.1008,
5.059319,-0.5250,-0.7908,-0.1388,-0.5005,0.7208,0.3235,-0.4020,-0.5584,0.1008,
5.116836,-0.7623,-1.1356,-0.1681,-0.5005,0.7208,0.3235,-0.4020,-0.5584,0.1008,
5.120036,-0.7623,-1.1356,-0.1681,-0.5005,0.7208,0.3235,0.0793,-0.5364,0.0690,
5.121765,-0.7623,-1.1356,-0.1681,-2.6959,-2.7231,0.0035,0.0793,-0.5364,0.0690,
5.175690,-0.4424,-0.5749,-0.2072,-2.6959,-2.7231,0.0035,0.0793,-0.5364,0.0690,
5.180833,-0.4424,-0.5749,-0.2072,-2.6959,-2.7231,0.0035,0.4623,0.1270,0.2963,
5.183909,-0.4424,-0.5749,-0.2072,0.5102,2.7779,-0.6423,0.4623,0.1270,0.2963,
5.235924,-0.6968,-0.7930,-0.2169,0.5102,2.7779,-0.6423,0.4623,0.1270,0.2963,
5.237563,-0.6968,-0.7930,-0.2169,0.5102,2.7779,-0.6423,0.2009,-0.5468,0.1100,
5.238631,-0.6968,-0.7930,-0.2169,-1.8907,0.6229,-0.9796,0.2009,-0.5468,0.1100,
5.295563,-0.5773,-0.8038,-0.1495,-1.8907,0.6229,-0.9796,0.2009,-0.5468,0.1100,
5.298403,-0.5773,-0.8038,-0.1495,-1.8907,0.6229,-0.9796,-0.0496,0.2430,0.4233,
5.300062,-0.5773,-0.8038,-0.1495,-0.5658,0.4359,-0.4012,-0.0496,0.2430,0.4233,
5.355357,-0.5683,-0.8123,-0.0992,-0.5658,0.4359,-0.4012,-0.0496,0.2430,0.4233,
5.359371,-0.5683,-0.8123,-0.0992,-0.5658,0.4359,-0.4012,0.1606,0.1514,0.1570,
5.361314,-0.5683,-0.8123,-0.0992,-0.3005,0.2330,0.1544,0.1606,0.1514,0.1570,
5.415931,-0.5707,-0.7491,-0.1605,-0.3005,0.2330,0.1544,0.1606,0.1514,0.1570,
5.418747,-0.5707,-0.7491,-0.1605,-0.3005,0.2330,0.1544,0.1001,0.1215,-0.0006,
5.420433,-0.5707,-0.7491,-0.1605,-0.2987,0.8406,-0.4768,0.1001,0.1215,-0.0006,
5.476254,-0.6096,-0.7950,-0.0853,-0.2987,0.8406,-0.4768,0.1001,0.1215,-0.0006,
5.479456,-0.6096,-0.7950,-0.0853,-0.2987,0.8406,-0.4768,-0.1320,-0.1229,-0.0061,
5.481589,-0.6096,-0.7950,-0.0853,-0.6808,0.3912,0.2626,-0.1320,-0.1229,-0.0061,
5.535168,-0.5451,-0.7960,-0.1507,-0.6808,0.3912,0.2626,-0.1320,-0.1229,-0.0061,
5.538564,-0.5451,-0.7960,-0.1507,-0.6808,0.3912,0.2626,0.3310,0.2608,-0.0434,
5.540189,-0.5451,-0.7960,-0.1507,-0.0481,0.3820,-0.3852,0.3310,0.2608,-0.0434,
5.596350,-0.6064,-0.7742,-0.1918,-0.0481,0.3820,-0.3852,0.3310,0.2608,-0.0434,
5.599710,-0.6064,-0.7742,-0.1918,-0.0481,0.3820,-0.3852,0.0463,0.0683,-0.2065,
5.601607,-0.6064,-0.7742,-0.1918,-0.7239,0.6494,-0.8371,0.0463,0.0683,-0.2065,
5.656835,-0.6255,-0.7691,-0.1156,-0.7239,0.6494,-0.8371,0.0463,0.0683,-0.2065,
5.660426,-0.6255,-0.7691,-0.1156,-0.7239,0.6494,-0.8371,-0.1797,-0.0068,-0.1772,
5.662196,-0.6255,-0.7691,-0.1156,-1.0054,0.7527,-0.0413,-0.1797,-0.0068,-0.1772,
5.715431,-0.5915,-0.7698,-0.1043,-1.0054,0.7527,-0.0413,-0.1797,-0.0068,-0.1772,
5.719619,-0.5915,-0.7698,-0.1043,-1.0054,0.7527,-0.0413,-0.0508,-0.0489,-0.1283,
5.721748,-0.5915,-0.7698,-0.1043,-0.7393,0.7800,0.1165,-0.0508,-0.0489,-0.1283,
5.774983,-0.6140,-0.7720,-0.1371,-0.7393,0.7800,0.1165,-0.0508,-0.0489,-0.1283,
5.777888,-0.6140,-0.7720,-0.1371,-0.7393,0.7800,0.1165,-0.0954,-0.2499,-0.2211,
5.779631,-0.6140,-0.7720,-0.1371,-1.0241,0.7977,-0.2073,-0.0954,-0.2499,-0.2211,
5.834952,-0.5905,-0.7220,-0.1104,-1.0241,0.7977,-0.2073,-0.0954,-0.2499,-0.2211,
5.838066,-0.5905,-0.7220,-0.1104,-1.0241,0.7977,-0.2073,-0.2463,-0.3880,-0.1655,
5.839813,-0.5905,-0.7220,-0.1104,-0.8704,1.3359,0.0355,-0.2463,-0.3880,-0.1655,
5.894852,-0.6128,-0.7979,-0.1385,-0.8704,1.3359,0.0355,-0.2463,-0.3880,-0.1655,
5.898160,-0.6128,-0.7979,-0.1385,-0.8704,1.3359,0.0355,-0.2139,-0.6629,-0.1539,
5.899898,-0.6128,-0.7979,-0.1385,-1.1410,0.6246,-0.2598,-0.2139,-0.6629,-0.1539,
5.954798,-0.6128,-0.8610,-0.1192,-1.1410,0.6246,-0.2598,-0.2139,-0.6629,-0.1539,
5.958075,-0.6128,-0.8610,-0.1192,-1.1410,0.6246,-0.2598,-0.1833,-0.4717,0.0519,
5.960592,-0.6128,-0.8610,-0.1192,-1.1377,0.0156,-0.1555,-0.1833,-0.4717,0.0519,
6.014564,-0.6428,-0.9455,-0.1241,-1.1377,0.0156,-0.1555,-0.1833,-0.4717,0.0519,
6.017259,-0.6428,-0.9455,-0.1241,-1.1377,0.0156,-0.1555,0.2082,-0.1180,0.0684,
6.018944,-0.6428,-0.9455,-0.1241,-1.3780,-0.8376,-0.2602,0.2082,-0.1180,0.0684,
6.074322,-0.7205,-1.0061,0.1378,-1.3780,-0.8376,-0.2602,0.2082,-0.1180,0.0684,
6.077319,-0.7205,-1.0061,0.1378,-1.3780,-0.8376,-0.2602,0.5112,0.0928,0.3598,
6.078874,-0.7205,-1.0061,0.1378,-2.0597,-1.4582,2.1081,0.5112,0.0928,0.3598,
6.136358,-0.5644,-0.9516,0.0711,-2.0597,-1.4582,2.1081,0.5112,0.0928,0.3598,
6.140125,-0.5644,-0.9516,0.0711,-2.0597,-1.4582,2.1081,2.7568,1.4074,1.2755,
6.141851,-0.5644,-0.9516,0.0711,-0.2107,-1.1001,1.1489,2.7568,1.4074,1.2755,
6.193757,-0.4722,-0.9787,-0.2851,-0.2107,-1.1001,1.1489,2.7568,1.4074,1.2755,
6.196194,-0.4722,-0.9787,-0.2851,-0.2107,-1.1001,1.1489,0.7605,-0.7466,1.4581,
6.198426,-0.4722,-0.9787,-0.2851,1.3761,-1.8384,-2.8997,0.7605,-0.7466,1.4581,
6.255814,-0.4195,-0.9506,-0.0188,1.3761,-1.8384,-2.8997,0.7605,-0.7466,1.4581,
6.258884,-0.4195,-0.9506,-0.0188,1.3761,-1.8384,-2.8997,-0.1357,-0.8144,0.7758,
6.260995,-0.4195,-0.9506,-0.0188,2.3730,-1.9895,-0.8553,-0.1357,-0.8144,0.7758,
6.315318,-0.4693,-0.7415,0.0049,2.3730,-1.9895,-0.8553,-0.1357,-0.8144,0.7758,
6.318668,-0.4693,-0.7415,0.0049,2.3730,-1.9895,-0.8553,0.1893,0.0543,0.3183,
6.320583,-0.4693,-0.7415,0.0049,2.0884,-0.1412,-0.7724,0.1893,0.0543,0.3183,
6.376574,-0.6022,-0.6401,-0.0164,2.0884,-0.1412,-0.7724,0.1893,0.0543,0.3183,
6.380657,-0.6022,-0.6401,-0.0164,2.0884,-0.1412,-0.7724,-0.2029,0.0671,0.1271,
6.382605,-0.6022,-0.6401,-0.0164,0.8844,0.7693,-0.8810,-0.2029,0.0671,0.1271,
6.435126,-0.5893,-0.6782,0.0354,0.8844,0.7693,-0.8810,-0.2029,0.0671,0.1271,
6.438763,-0.5893,-0.6782,0.0354,0.8844,0.7693,-0.8810,-0.6623,-0.5761,0.0281,
6.440436,-0.5893,-0.6782,0.0354,1.0287,0.3825,-0.3381,-0.6623,-0.5761,0.0281,
6.496090,-0.5446,-0.7268,-0.0037,1.0287,0.3825,-0.3381,-0.6623,-0.5761,0.0281,
6.498994,-0.5446,-0.7268,-0.0037,1.0287,0.3825,-0.3381,-0.5389,-0.5022,-0.1729,
6.500826,-0.5446,-0.7268,-0.0037,1.4320,-0.0540,-0.6520,-0.5389,-0.5022,-0.1729,
6.556293,-0.6914,-0.6968,0.1246,1.4320,-0.0540,-0.6520,-0.5389,-0.5022,-0.1729,
6.559337,-0.6914,-0.6968,0.1246,1.4320,-0.0540,-0.6520,-0.4594,-0.1131,-0.2004,
6.561292,-0.6914,-0.6968,0.1246,-0.1157,0.3482,0.6679,-0.4594,-0.1131,-0.2004,
6.614461,-0.6147,-0.7576,0.0623,-0.1157,0.3482,0.6679,-0.4594,-0.1131,-0.2004,
6.617788,-0.6147,-0.7576,0.0623,-0.1157,0.3482,0.6679,-0.1748,0.0409,0.0067,
6.619567,-0.6147,-0.7576,0.0623,0.6019,-0.2065,0.2068,-0.1748,0.0409,0.0067,
6.674494,-0.5040,-0.7657,0.0303,0.6019,-0.2065,0.2068,-0.1748,0.0409,0.0067,
6.677862,-0.5040,-0.7657,0.0303,0.6019,-0.2065,0.2068,-0.1369,0.0354,-0.1949,
6.679114,-0.5040,-0.7657,0.0303,1.6671,-0.2639,-0.0314,-0.1369,0.0354,-0.1949,
6.735458,-0.6030,-0.7386,-0.0112,1.6671,-0.2639,-0.0314,-0.1369,0.0354,-0.1949,
6.739411,-0.6030,-0.7386,-0.0112,1.6671,-0.2639,-0.0314,-0.2334,0.3005,-0.5473,
6.741574,-0.6030,-0.7386,-0.0112,0.5413,0.1457,-0.3161,-0.2334,0.3005,-0.5473,
6.794519,-0.7549,-0.8700,0.0555,0.5413,0.1457,-0.3161,-0.2334,0.3005,-0.5473,
6.797123,-0.7549,-0.8700,0.0555,0.5413,0.1457,-0.3161,-0.3580,0.7067,-0.4801,
6.798951,-0.7549,-0.8700,0.0555,-1.1967,-0.9300,0.6324,-0.3580,0.7067,-0.4801,
6.856213,-0.7009,-0.7242,-0.0415,-1.1967,-0.9300,0.6324,-0.3580,0.7067,-0.4801,
6.860024,-0.7009,-0.7242,-0.0415,-1.1967,-0.9300,0.6324,-0.0068,0.6462,-0.1564,
6.861651,-0.7009,-0.7242,-0.0415,-0.8463,0.6250,0.1122,-0.0068,0.6462,-0.1564,
6.914918,-0.4593,-0.8832,-0.0840,-0.8463,0.6250,0.1122,-0.0068,0.6462,-0.1564,
6.918023,-0.4593,-0.8832,-0.0840,-0.8463,0.6250,0.1122,-0.5993,-0.9549,0.1319,
6.920340,-0.4593,-0.8832,-0.0840,1.5296,-0.9479,-0.1943,-0.5993,-0.9549,0.1319,
6.975559,-0.3943,-0.8649,-0.1573,1.5296,-0.9479,-0.1943,-0.5993,-0.9549,0.1319,
6.978424,-0.3943,-0.8649,-0.1573,1.5296,-0.9479,-0.1943,-0.4167,-0.8223,-0.2169,
6.979707,-0.3943,-0.8649,-0.1573,2.2028,-0.7866,-1.0538,-0.4167,-0.8223,-0.2169,
7.034618,-0.5551,-0.8214,-0.2345,2.2028,-0.7866,-1.0538,-0.4167,-0.8223,-0.2169,
7.037765,-0.5551,-0.8214,-0.2345,2.2028,-0.7866,-1.0538,-0.5780,-1.0111,-0.5467,
7.039716,-0.5551,-0.8214,-0.2345,0.4804,-0.2423,-1.8923,-0.5780,-1.0111,-0.5467,
7.095739,-0.7334,-0.7312,-0.1910,0.4804,-0.2423,-1.8923,-0.5780,-1.0111,-0.5467,
7.099019,-0.7334,-0.7312,-0.1910,0.4804,-0.2423,-1.8923,-0.6555,-0.7863,-0.7929,
7.101821,-0.7334,-0.7312,-0.1910,-1.5873,0.8755,-1.5011,-0.6555,-0.7863,-0.7929,
7.156145,-0.6824,-0.7559,-0.0699,-1.5873,0.8755,-1.5011,-0.6555,-0.7863,-0.7929,
7.159224,-0.6824,-0.7559,-0.0699,-1.5873,0.8755,-1.5011,-0.6769,0.4336,-0.2046,
7.161300,-0.6824,-0.7559,-0.0699,-1.3661,0.8074,-0.0825,-0.6769,0.4336,-0.2046,
7.215935,-0.5358,-0.8314,-0.0555,-1.3661,0.8074,-0.0825,-0.6769,0.4336,-0.2046,
7.219341,-0.5358,-0.8314,-0.0555,-1.3661,0.8074,-0.0825,-0.1778,0.5827,0.0593,
7.221555,-0.5358,-0.8314,-0.0555,0.0416,0.0433,0.4900,-0.1778,0.5827,0.0593,
7.275606,-0.5094,-0.8575,-0.0728,0.0416,0.0433,0.4900,-0.1778,0.5827,0.0593,
7.277782,-0.5094,-0.8575,-0.0728,0.0416,0.0433,0.4900,0.2632,0.8832,-0.1906,
7.278948,-0.5094,-0.8575,-0.0728,0.2510,-0.2094,0.5225,0.2632,0.8832,-0.1906,
7.335461,-0.5842,-0.7618,-0.2067,0.2510,-0.2094,0.5225,0.2632,0.8832,-0.1906,
7.338571,-0.5842,-0.7618,-0.2067,0.2510,-0.2094,0.5225,0.0751,0.0299,-0.6616,
7.340322,-0.5842,-0.7618,-0.2067,-0.7279,0.8697,-0.7118,0.0751,0.0299,-0.6616,
7.395016,-0.6663,-0.8018,-0.1959,-0.7279,0.8697,-0.7118,0.0751,0.0299,-0.6616,
7.398076,-0.6663,-0.8018,-0.1959,-0.7279,0.8697,-0.7118,-0.5138,-0.9756,-0.4997,
7.399825,-0.6663,-0.8018,-0.1959,-1.8278,0.6576,-0.6755,-0.5138,-0.9756,-0.4997,
7.455765,-0.5316,-0.8448,-0.1559,-1.8278,0.6576,-0.6755,-0.5138,-0.9756,-0.4997,
7.459426,-0.5316,-0.8448,-0.1559,-1.8278,0.6576,-0.6755,-0.4888,-0.2475,-0.1295,
7.461523,-0.5316,-0.8448,-0.1559,-0.5882,0.2639,-0.1791,-0.4888,-0.2475,-0.1295,
7.515447,-0.5517,-1.0061,-0.1981,-0.5882,0.2639,-0.1791,-0.4888,-0.2475,-0.1295,
7.519217,-0.5517,-1.0061,-0.1981,-0.5882,0.2639,-0.1791,0.3591,0.0189,0.0660,
7.521465,-0.5517,-1.0061,-0.1981,-0.7995,-1.3139,-0.5570,0.3591,0.0189,0.0660,
7.575137,-0.4708,-0.8575,-0.2463,-0.7995,-1.3139,-0.5570,0.3591,0.0189,0.0660,
7.578173,-0.4708,-0.8575,-0.2463,-0.7995,-1.3139,-0.5570,0.3499,0.3842,-0.0929,
7.580167,-0.4708,-0.8575,-0.2463,-0.0349,0.1767,-1.1573,0.3499,0.3842,-0.0929,
7.635857,-0.5439,-0.9020,-0.1266,-0.0349,0.1767,-1.1573,0.3499,0.3842,-0.0929,
7.639009,-0.5439,-0.9020,-0.1266,-0.0349,0.1767,-1.1573,0.1050,-0.1088,-0.0305,
7.641368,-0.5439,-0.9020,-0.1266,-0.8154,-0.2115,-0.0807,0.1050,-0.1088,-0.0305,
7.696457,-0.5055,-0.9277,-0.0511,-0.8154,-0.2115,-0.0807,0.1050,-0.1088,-0.0305,
7.699627,-0.5055,-0.9277,-0.0511,-0.8154,-0.2115,-0.0807,0.2895,0.2632,0.3977,
7.701392,-0.5055,-0.9277,-0.0511,-0.3647,-0.4948,0.6008,0.2895,0.2632,0.3977,
7.756290,-0.3183,-0.9438,0.1991,-0.3647,-0.4948,0.6008,0.2895,0.2632,0.3977,
7.759417,-0.3183,-0.9438,0.1991,-0.3647,-0.4948,0.6008,0.9242,1.0146,0.7703,
7.761269,-0.3183,-0.9438,0.1991,1.7345,-0.7844,2.9292,0.9242,1.0146,0.7703,
7.813898,-0.2673,-0.9777,-0.2617,1.7345,-0.7844,2.9292,0.9242,1.0146,0.7703,
7.816717,-0.2673,-0.9777,-0.2617,1.7345,-0.7844,2.9292,1.8545,0.3420,0.4184,
7.818504,-0.2673,-0.9777,-0.2617,2.4793,-1.2239,-2.0002,1.8545,0.3420,0.4184,
7.875655,-0.4087,-0.8497,-0.1783,2.4793,-1.2239,-2.0002,1.8545,0.3420,0.4184,
7.878657,-0.4087,-0.8497,-0.1783,2.4793,-1.2239,-2.0002,0.1490,-0.1198,-0.0580,
7.880675,-0.4087,-0.8497,-0.1783,1.1799,-0.0038,-1.7674,0.1490,-0.1198,-0.0580,
7.935229,-0.4573,-0.8297,-0.0613,1.1799,-0.0038,-1.7674,0.1490,-0.1198,-0.0580,
7.938028,-0.4573,-0.8297,-0.0613,1.1799,-0.0038,-1.7674,-0.5657,-0.7166,-0.1509,
7.939782,-0.4573,-0.8297,-0.0613,0.6389,0.2324,-0.5958,-0.5657,-0.7166,-0.1509,
7.995337,-0.3826,-0.9064,0.0129,0.6389,0.2324,-0.5958,-0.5657,-0.7166,-0.1509,
7.999092,-0.3826,-0.9064,0.0129,0.6389,0.2324,-0.5958,-0.3696,-0.1730,0.0244,
8.000981,-0.3826,-0.9064,0.0129,1.3294,-0.4944,0.2285,-0.3696,-0.1730,0.0244,
8.054732,-0.3015,-0.9729,0.0283,1.3294,-0.4944,0.2285,-0.3696,-0.1730,0.0244,
8.057570,-0.3015,-0.9729,0.0283,1.3294,-0.4944,0.2285,0.3029,0.3579,0.0073,
8.059006,-0.3015,-0.9729,0.0283,2.1336,-1.1528,0.4720,0.3029,0.3579,0.0073,
8.116512,-0.4214,-0.8812,-0.0347,2.1336,-1.1528,0.4720,0.3029,0.3579,0.0073,
8.120382,-0.4214,-0.8812,-0.0347,2.1336,-1.1528,0.4720,0.3341,0.3658,-0.0971,
8.122297,-0.4214,-0.8812,-0.0347,0.9168,-0.2287,-0.2179,0.3341,0.3658,-0.0971,
8.174331,-0.4564,-0.8502,-0.0462,0.9168,-0.2287,-0.2179,0.3341,0.3658,-0.0971,
8.177051,-0.4564,-0.8502,-0.0462,0.9168,-0.2287,-0.2179,0.0995,0.1404,-0.0489,
8.178647,-0.4564,-0.8502,-0.0462,0.5261,0.1048,-0.3889,0.0995,0.1404,-0.0489,
8.234312,-0.4412,-0.8695,-0.0147,0.5261,0.1048,-0.3889,0.0995,0.1404,-0.0489,
8.237244,-0.4412,-0.8695,-0.0147,0.5261,0.1048,-0.3889,-0.0502,0.1355,0.0281,
8.239080,-0.4412,-0.8695,-0.0147,0.6637,-0.0784,-0.0364,-0.0502,0.1355,0.0281,
8.295737,-0.4143,-0.8837,-0.0191,0.6637,-0.0784,-0.0364,-0.0502,0.1355,0.0281,
8.299392,-0.4143,-0.8837,-0.0191,0.6637,-0.0784,-0.0364,-0.0795,0.1630,0.0782,
8.301180,-0.4143,-0.8837,-0.0191,0.9487,-0.2312,-0.0127,-0.0795,0.1630,0.0782,
8.354419,-0.4312,-0.9218,0.0002,0.9487,-0.2312,-0.0127,-0.0795,0.1630,0.0782,
8.358576,-0.4312,-0.9218,0.0002,0.9487,-0.2312,-0.0127,-0.1540,0.0121,0.0739,
8.361369,-0.4312,-0.9218,0.0002,0.8158,-0.6262,0.2632,-0.1540,0.0121,0.0739,
8.413755,-0.3848,-0.8678,-0.0418,0.8158,-0.6262,0.2632,-0.1540,0.0121,0.0739,
8.416944,-0.3848,-0.8678,-0.0418,0.8158,-0.6262,0.2632,-0.0856,-0.0563,0.1063,
8.418776,-0.3848,-0.8678,-0.0418,1.3077,-0.1211,-0.0988,-0.0856,-0.0563,0.1063,
8.474763,-0.4471,-0.9074,-0.0327,1.3077,-0.1211,-0.0988,-0.0856,-0.0563,0.1063,
8.477571,-0.4471,-0.9074,-0.0327,1.3077,-0.1211,-0.0988,-0.2304,-0.0636,0.1374,
8.478777,-0.4471,-0.9074,-0.0327,0.7508,-0.5442,0.0519,-0.2304,-0.0636,0.1374,
8.534563,-0.4200,-0.8874,-0.1444,0.7508,-0.5442,0.0519,-0.2304,-0.0636,0.1374,
8.537625,-0.4200,-0.8874,-0.1444,0.7508,-0.5442,0.0519,-0.2603,-0.1430,0.2321,
8.539265,-0.4200,-0.8874,-0.1444,1.0987,-0.4032,-0.9564,-0.2603,-0.1430,0.2321,
8.596083,-0.4178,-0.8360,-0.1126,1.0987,-0.4032,-0.9564,-0.2603,-0.1430,0.2321,
8.600504,-0.4178,-0.8360,-0.1126,1.0987,-0.4032,-0.9564,-0.6916,-0.3770,0.1576,
8.602393,-0.4178,-0.8360,-0.1126,1.2226,0.0252,-0.5041,-0.6916,-0.3770,0.1576,
8.655846,-0.5243,-0.9435,-0.1312,1.2226,0.0252,-0.5041,-0.6916,-0.3770,0.1576,
8.658825,-0.5243,-0.9435,-0.1312,1.2226,0.0252,-0.5041,-0.5987,-0.4069,0.0391,
8.660630,-0.5243,-0.9435,-0.1312,0.2544,-1.0970,-0.4664,-0.5987,-0.4069,0.0391,
8.714691,-0.4784,-0.7757,-0.1720,0.2544,-1.0970,-0.4664,-0.5987,-0.4069,0.0391,
8.718124,-0.4784,-0.7757,-0.1720,0.2544,-1.0970,-0.4664,-0.7026,-0.5236,-0.1582,
8.720361,-0.4784,-0.7757,-0.1720,0.7166,0.5213,-0.6979,-0.7026,-0.5236,-0.1582,
8.776033,-0.6809,-0.8517,-0.0767,0.7166,0.5213,-0.6979,-0.7026,-0.5236,-0.1582,
8.779093,-0.6809,-0.8517,-0.0767,0.7166,0.5213,-0.6979,-0.4362,-0.5120,-0.3439,
8.780738,-0.6809,-0.8517,-0.0767,-1.3707,-0.1705,0.3482,-0.4362,-0.5120,-0.3439,
8.834500,-0.7425,-0.7552,-0.2216,-1.3707,-0.1705,0.3482,-0.4362,-0.5120,-0.3439,
8.837695,-0.7425,-0.7552,-0.2216,-1.3707,-0.1705,0.3482,-0.2664,-0.9573,-0.2425,
8.839467,-0.7425,-0.7552,-0.2216,-2.0967,0.8580,-1.1061,-0.2664,-0.9573,-0.2425,
8.896001,-0.7501,-0.7657,-0.1156,-2.0967,0.8580,-1.1061,-0.2664,-0.9573,-0.2425,
8.898826,-0.7501,-0.7657,-0.1156,-2.0967,0.8580,-1.1061,-0.6433,-0.6122,0.2107,
8.900745,-0.7501,-0.7657,-0.1156,-2.1493,0.7497,-0.1335,-0.6433,-0.6122,0.2107,
8.955296,-0.5341,-0.8397,-0.1266,-2.1493,0.7497,-0.1335,-0.6433,-0.6122,0.2107,
8.958890,-0.5341,-0.8397,-0.1266,-2.1493,0.7497,-0.1335,-0.0270,0.2687,0.4496,
8.960884,-0.5341,-0.8397,-0.1266,0.1595,-0.1220,-0.0767,-0.0270,0.2687,0.4496,
9.015594,-0.4129,-0.8018,-0.1937,0.1595,-0.1220,-0.0767,-0.0270,0.2687,0.4496,
9.018579,-0.4129,-0.8018,-0.1937,0.1595,-0.1220,-0.0767,0.2760,0.8502,0.2700,
9.020746,-0.4129,-0.8018,-0.1937,1.5218,0.1165,-0.6443,0.2760,0.8502,0.2700,
9.074383,-0.4556,-0.7728,-0.1559,1.5218,0.1165,-0.6443,0.2760,0.8502,0.2700,
9.076833,-0.4556,-0.7728,-0.1559,1.5218,0.1165,-0.6443,0.1856,0.4721,-0.1130,
9.078535,-0.4556,-0.7728,-0.1559,1.0867,0.3899,-0.1361,0.1856,0.4721,-0.1130,
9.134457,-0.7376,-1.0545,-0.1124,1.0867,0.3899,-0.1361,0.1856,0.4721,-0.1130,
9.137221,-0.7376,-1.0545,-0.1124,1.0867,0.3899,-0.1361,0.1618,0.1630,-0.3836,
9.138482,-0.7376,-1.0545,-0.1124,-1.8038,-2.2902,0.3293,0.1618,0.1630,-0.3836,
9.194278,-0.6264,-0.6467,-0.0024,-1.8038,-2.2902,0.3293,0.1618,0.1630,-0.3836,
9.197073,-0.6264,-0.6467,-0.0024,-1.8038,-2.2902,0.3293,0.3994,0.6047,-0.3115,
9.198528,-0.6264,-0.6467,-0.0024,-0.9381,1.8604,1.3582,0.3994,0.6047,-0.3115,
9.254493,-0.7366,-0.7471,-0.1779,-0.9381,1.8604,1.3582,0.3994,0.6047,-0.3115,
9.257619,-0.7366,-0.7471,-0.1779,-0.9381,1.8604,1.3582,0.5240,-0.5871,-0.1203,
9.258622,-0.7366,-0.7471,-0.1779,-2.1938,1.0103,-0.5197,0.5240,-0.5871,-0.1203,
9.314010,-0.5795,-0.8167,-0.1148,-2.1938,1.0103,-0.5197,0.5240,-0.5871,-0.1203,
9.316191,-0.5795,-0.8167,-0.1148,-2.1938,1.0103,-0.5197,0.0708,-0.4521,0.2975,
9.317898,-0.5795,-0.8167,-0.1148,-0.5591,0.3177,-0.2879,0.0708,-0.4521,0.2975,
9.375810,-0.5116,-0.9045,-0.1703,-0.5591,0.3177,-0.2879,0.0708,-0.4521,0.2975,
9.380334,-0.5116,-0.9045,-0.1703,-0.5591,0.3177,-0.2879,0.4013,0.1282,0.2297,
9.382170,-0.5116,-0.9045,-0.1703,0.2653,-0.6293,-0.9628,0.4013,0.1282,0.2297,
9.434858,-0.5197,-0.8316,-0.1617,0.2653,-0.6293,-0.9628,0.4013,0.1282,0.2297,
9.437248,-0.5197,-0.8316,-0.1617,0.2653,-0.6293,-0.9628,0.3689,0.1508,-0.0153,
9.438904,-0.5197,-0.8316,-0.1617,0.2465,0.0577,-1.0422,0.3689,0.1508,-0.0153,
9.494940,-0.5871,-0.8348,-0.0757,0.2465,0.0577,-1.0422,0.3689,0.1508,-0.0153,
9.498007,-0.5871,-0.8348,-0.0757,0.2465,0.0577,-1.0422,0.1746,0.2443,0.0428,
9.499420,-0.5871,-0.8348,-0.0757,-0.4260,0.0378,-0.2578,0.1746,0.2443,0.0428,
9.555067,-0.5829,-0.8519,0.0347,-0.4260,0.0378,-0.2578,0.1746,0.2443,0.0428,
9.558438,-0.5829,-0.8519,0.0347,-0.4260,0.0378,-0.2578,0.2449,0.2937,0.3372,
9.560427,-0.5829,-0.8519,0.0347,-0.3104,-0.1778,0.8053,0.2449,0.2937,0.3372,
9.614191,-0.5534,-0.8429,0.0247,-0.3104,-0.1778,0.8053,0.2449,0.2937,0.3372,
9.616751,-0.5534,-0.8429,0.0247,-0.3104,-0.1778,0.8053,0.8075,0.8203,0.5993,
9.618726,-0.5534,-0.8429,0.0247,0.1771,-0.2230,0.7001,0.8075,0.8203,0.5993,
9.674612,-0.5404,-0.9198,0.0503,0.1771,-0.2230,0.7001,0.8075,0.8203,0.5993,
9.677496,-0.5404,-0.9198,0.0503,0.1771,-0.2230,0.7001,1.4654,1.3786,0.8961,
9.679656,-0.5404,-0.9198,0.0503,0.6498,-1.2186,0.6899,1.4654,1.3786,0.8961,
9.736029,-0.5412,-0.8402,-0.1537,0.6498,-1.2186,0.6899,1.4654,1.3786,0.8961,
9.739406,-0.5412,-0.8402,-0.1537,0.6498,-1.2186,0.6899,0.7452,0.5228,0.1735,
9.741471,-0.5412,-0.8402,-0.1537,0.9484,-0.6789,-1.4281,0.7452,0.5228,0.1735,
9.795992,-0.6047,-0.7019,-0.0298,0.9484,-0.6789,-1.4281,0.7452,0.5228,0.1735,
9.799329,-0.6047,-0.7019,-0.0298,0.9484,-0.6789,-1.4281,-0.0709,-0.5547,-0.2889,
9.801472,-0.6047,-0.7019,-0.0298,0.2734,0.7192,-0.3802,-0.0709,-0.5547,-0.2889,
9.855128,-0.5661,-0.6965,-0.0073,0.2734,0.7192,-0.3802,-0.0709,-0.5547,-0.2889,
9.858196,-0.5661,-0.6965,-0.0073,0.2734,0.7192,-0.3802,-0.5150,-0.8718,-0.4417,
9.860010,-0.5661,-0.6965,-0.0073,0.4694,0.9143,-0.2974,-0.5150,-0.8718,-0.4417,
9.914361,-0.4200,-0.8617,0.0618,0.4694,0.9143,-0.2974,-0.5150,-0.8718,-0.4417,
9.917177,-0.4200,-0.8617,0.0618,0.4694,0.9143,-0.2974,0.1600,-0.1009,-0.2028,
9.919198,-0.4200,-0.8617,0.0618,1.7255,-0.5738,0.2882,0.1600,-0.1009,-0.2028,
9.975451,-0.3125,-0.9125,-0.0779,1.7255,-0.5738,0.2882,0.1600,-0.1009,-0.2028,
9.978453,-0.3125,-0.9125,-0.0779,1.7255,-0.5738,0.2882,0.1282,1.0549,-0.4337,
9.980254,-0.3125,-0.9125,-0.0779,2.6716,-0.9909,-1.0163,0.1282,1.0549,-0.4337,
10.034485,-0.4007,-0.9460,-0.0337,2.6716,-0.9909,-1.0163,0.1282,1.0549,-0.4337,
10.037131,-0.4007,-0.9460,-0.0337,2.6716,-0.9909,-1.0163,-0.2059,0.2797,-0.8094,
10.039094,-0.4007,-0.9460,-0.0337,1.5115,-1.1100,-0.2824,-0.2059,0.2797,-0.8094,
10.094672,-0.4647,-0.8678,-0.0112,1.5115,-1.1100,-0.2824,-0.2059,0.2797,-0.8094,
10.097937,-0.4647,-0.8678,-0.0112,1.5115,-1.1100,-0.2824,-0.4845,0.0476,-0.8057,
10.100593,-0.4647,-0.8678,-0.0112,0.4428,-0.0699,0.1379,-0.4845,0.0476,-0.8057,
10.156017,-0.4603,-0.8964,-0.0208,0.4428,-0.0699,0.1379,-0.4845,0.0476,-0.8057,
10.159764,-0.4603,-0.8964,-0.0208,0.4428,-0.0699,0.1379,-0.3721,0.0494,-0.5211,
10.161548,-0.4603,-0.8964,-0.0208,0.1487,-0.1693,0.2823,-0.3721,0.0494,-0.5211,
10.216086,-0.3994,-0.7987,-0.0462,0.1487,-0.1693,0.2823,-0.3721,0.0494,-0.5211,
10.219737,-0.3994,-0.7987,-0.0462,0.1487,-0.1693,0.2823,-0.3690,0.1520,-0.2804,
10.221545,-0.3994,-0.7987,-0.0462,0.5302,0.8874,0.2362,-0.3690,0.1520,-0.2804,
10.274425,-0.4652,-0.8595,-0.0799,0.5302,0.8874,0.2362,-0.3690,0.1520,-0.2804,
10.277456,-0.4652,-0.8595,-0.0799,0.5302,0.8874,0.2362,-0.0477,0.5265,-0.1124,
10.278740,-0.4652,-0.8595,-0.0799,-0.2557,0.3396,0.1501,-0.0477,0.5265,-0.1124,
10.338947,-0.5026,-0.8964,-0.1273,-0.2557,0.3396,0.1501,-0.0477,0.5265,-0.1124,
10.342371,-0.5026,-0.8964,-0.1273,-0.2557,0.3396,0.1501,-0.4674,0.0769,-0.0715,
10.344286,-0.5026,-0.8964,-0.1273,-0.7089,0.0018,-0.1557,-0.4674,0.0769,-0.0715,
10.395962,-0.5006,-1.0293,-0.1244,-0.7089,0.0018,-0.1557,-0.4674,0.0769,-0.0715,
10.399954,-0.5006,-1.0293,-0.1244,-0.7089,0.0018,-0.1557,-0.5303,0.1148,0.1631,
10.401862,-0.5006,-1.0293,-0.1244,-0.6663,-1.3608,0.2122,-0.5303,0.1148,0.1631,
10.454838,-0.4324,-0.8698,-0.1529,-0.6663,-1.3608,0.2122,-0.5303,0.1148,0.1631,
10.458410,-0.4324,-0.8698,-0.1529,-0.6663,-1.3608,0.2122,-0.3690,0.0237,0.0318,
10.460220,-0.4324,-0.8698,-0.1529,0.0706,0.1253,0.1756,-0.3690,0.0237,0.0318,
10.514785,-0.5197,-0.8571,-0.1593,0.0706,0.1253,0.1756,-0.3690,0.0237,0.0318,
10.517991,-0.5197,-0.8571,-0.1593,0.0706,0.1253,0.1756,-0.1595,-0.3135,0.0354,
10.519464,-0.5197,-0.8571,-0.1593,-0.7585,0.2133,0.2306,-0.1595,-0.3135,0.0354,
10.574321,-0.5766,-0.9108,-0.2016,-0.7585,0.2133,0.2306,-0.1595,-0.3135,0.0354,
10.577458,-0.5766,-0.9108,-0.2016,-0.7585,0.2133,0.2306,0.1673,-0.0056,0.1717,
10.578759,-0.5766,-0.9108,-0.2016,-1.2443,-0.3431,-0.2175,0.1673,-0.0056,0.1717,
10.636236,-0.6208,-0.8497,-0.2140,-1.2443,-0.3431,-0.2175,0.1673,-0.0056,0.1717,
10.639420,-0.6208,-0.8497,-0.2140,-1.2443,-0.3431,-0.2175,0.2999,-0.0221,0.1106,
10.641161,-0.6208,-0.8497,-0.2140,-1.6049,0.2453,-0.4796,0.2999,-0.0221,0.1106,
10.694578,-0.6027,-0.7505,-0.1603,-1.6049,0.2453,-0.4796,0.2999,-0.0221,0.1106,
10.697365,-0.6027,-0.7505,-0.1603,-1.6049,0.2453,-0.4796,0.0299,-0.2621,0.2779,
10.699150,-0.6027,-0.7505,-0.1603,-1.3259,1.1863,-0.0783,0.0299,-0.2621,0.2779,
10.755913,-0.5617,-0.8089,-0.1498,-1.3259,1.1863,-0.0783,0.0299,-0.2621,0.2779,
10.759355,-0.5617,-0.8089,-0.1498,-1.3259,1.1863,-0.0783,-0.0300,-0.2017,0.4563,
10.761613,-0.5617,-0.8089,-0.1498,-0.7137,0.5080,-0.0326,-0.0300,-0.2017,0.4563,
10.816863,-0.4439,-0.8561,-0.1627,-0.7137,0.5080,-0.0326,-0.0300,-0.2017,0.4563,
10.820399,-0.4439,-0.8561,-0.1627,-0.7137,0.5080,-0.0326,0.0103,0.0482,0.3989,
10.822629,-0.4439,-0.8561,-0.1627,0.6954,-0.0992,-0.1874,0.0103,0.0482,0.3989,
10.875893,-0.5390,-0.8163,-0.1593,0.6954,-0.0992,-0.1874,0.0103,0.0482,0.3989,
10.878599,-0.5390,-0.8163,-0.1593,0.6954,-0.0992,-0.1874,0.1868,-0.1143,-0.0073,
10.880418,-0.5390,-0.8163,-0.1593,-0.1350,0.2325,-0.1768,0.1868,-0.1143,-0.0073,
10.934191,-0.6093,-0.7813,-0.1512,-0.1350,0.2325,-0.1768,0.1868,-0.1143,-0.0073,
10.938431,-0.6093,-0.7813,-0.1512,-0.1350,0.2325,-0.1768,-0.0496,-0.0685,-0.0788,
10.939923,-0.6093,-0.7813,-0.1512,-0.8484,0.5999,-0.1595,-0.0496,-0.0685,-0.0788,
10.996073,-0.5800,-0.7865,-0.1136,-0.8484,0.5999,-0.1595,-0.0496,-0.0685,-0.0788,
11.000079,-0.5800,-0.7865,-0.1136,-0.8484,0.5999,-0.1595,0.0555,0.0586,0.0556,
11.002196,-0.5800,-0.7865,-0.1136,-0.5565,0.5488,0.1958,0.0555,0.0586,0.0556,
11.054836,-0.5651,-0.7955,-0.1710,-0.5565,0.5488,0.1958,0.0555,0.0586,0.0556,
11.057698,-0.5651,-0.7955,-0.1710,-0.5565,0.5488,0.1958,0.1245,0.0653,-0.0428,
11.059181,-0.5651,-0.7955,-0.1710,-0.4017,0.4613,-0.4082,0.1245,0.0653,-0.0428,
11.115199,-0.6013,-0.7777,-0.1356,-0.4017,0.4613,-0.4082,0.1245,0.0653,-0.0428,
11.118173,-0.6013,-0.7777,-0.1356,-0.4017,0.4613,-0.4082,-0.0544,-0.0257,-0.1087,
11.119826,-0.6013,-0.7777,-0.1356,-0.7942,0.6605,-0.0665,-0.0544,-0.0257,-0.1087,
11.176392,-0.5930,-0.7813,-0.1175,-0.7942,0.6605,-0.0665,-0.0544,-0.0257,-0.1087,
11.179623,-0.5930,-0.7813,-0.1175,-0.7942,0.6605,-0.0665,-0.0141,-0.0294,-0.0568,
11.181742,-0.5930,-0.7813,-0.1175,-0.7482,0.6446,0.1220,-0.0141,-0.0294,-0.0568,
11.234463,-0.5873,-0.7784,-0.1173,-0.7482,0.6446,0.1220,-0.0141,-0.0294,-0.0568,
11.237648,-0.5873,-0.7784,-0.1173,-0.7482,0.6446,0.1220,0.0378,-0.0795,-0.0965,
11.240250,-0.5873,-0.7784,-0.1173,-0.7200,0.6928,0.1037,0.0378,-0.0795,-0.0965,
11.295666,-0.5900,-0.7447,-0.1151,-0.7200,0.6928,0.1037,0.0378,-0.0795,-0.0965,
11.300241,-0.5900,-0.7447,-0.1151,-0.7200,0.6928,0.1037,-0.0526,-0.0306,-0.2138,
11.301855,-0.5900,-0.7447,-0.1151,-0.8044,1.0610,0.1058,-0.0526,-0.0306,-0.2138,
11.355452,-0.6074,-0.7698,-0.1441,-0.8044,1.0610,0.1058,-0.0526,-0.0306,-0.2138,
11.360270,-0.6074,-0.7698,-0.1441,-0.8044,1.0610,0.1058,-0.2292,-0.4197,-0.2395,
11.361840,-0.6074,-0.7698,-0.1441,-1.0846,0.8785,-0.1756,-0.2292,-0.4197,-0.2395,
11.414717,-0.5500,-0.8407,-0.1752,-1.0846,0.8785,-0.1756,-0.2292,-0.4197,-0.2395,
11.419388,-0.5500,-0.8407,-0.1752,-1.0846,0.8785,-0.1756,-0.4820,-0.3409,-0.1478,
11.421965,-0.5500,-0.8407,-0.1752,-0.5804,0.2086,-0.4193,-0.4820,-0.3409,-0.1478,
11.478086,-0.5209,-0.9262,-0.2018,-0.5804,0.2086,-0.4193,-0.4820,-0.3409,-0.1478,
11.481287,-0.5209,-0.9262,-0.2018,-0.5804,0.2086,-0.4193,-0.3562,-0.2518,-0.1539,
11.483348,-0.5209,-0.9262,-0.2018,-0.3428,-0.6275,-0.5266,-0.3562,-0.2518,-0.1539,
11.534684,-0.5570,-0.9526,-0.1512,-0.3428,-0.6275,-0.5266,-0.3562,-0.2518,-0.1539,
11.538091,-0.5570,-0.9526,-0.1512,-0.3428,-0.6275,-0.5266,0.0946,-0.0166,-0.1625,
11.540424,-0.5570,-0.9526,-0.1512,-0.7546,-0.8604,0.0060,0.0946,-0.0166,-0.1625,
11.595793,-0.6572,-0.9372,-0.0855,-0.7546,-0.8604,0.0060,0.0946,-0.0166,-0.1625,
11.599179,-0.6572,-0.9372,-0.0855,-0.7546,-0.8604,0.0060,0.4697,0.1129,-0.1014,
11.602996,-0.6572,-0.9372,-0.0855,-1.8218,-0.6412,0.5219,0.4697,0.1129,-0.1014,
11.654996,-0.6335,-0.8744,0.2492,-1.8218,-0.6412,0.5219,0.4697,0.1129,-0.1014,
11.659633,-0.6335,-0.8744,0.2492,-1.8218,-0.6412,0.5219,1.1459,1.4159,0.4881,
11.663092,-0.6335,-0.8744,0.2492,-1.5440,-0.0200,3.5936,1.1459,1.4159,0.4881,
11.717172,-0.5089,-0.8961,0.1041,-1.5440,-0.0200,3.5936,1.1459,1.4159,0.4881,
11.720659,-0.5089,-0.8961,0.1041,-1.5440,-0.0200,3.5936,2.2540,0.4764,1.0531,
11.722520,-0.5089,-0.8961,0.1041,0.0084,-0.3581,1.5159,2.2540,0.4764,1.0531,
11.774920,-0.5023,-0.9431,-0.0860,0.0084,-0.3581,1.5159,2.2540,0.4764,1.0531,
11.779193,-0.5023,-0.9431,-0.0860,0.0084,-0.3581,1.5159,0.7183,-0.6061,1.3250,
11.780869,-0.5023,-0.9431,-0.0860,0.6643,-1.1826,-0.8935,0.7183,-0.6061,1.3250,
11.834261,-0.4950,-0.9374,-0.0335,0.6643,-1.1826,-0.8935,0.7183,-0.6061,1.3250,
11.837623,-0.4950,-0.9374,-0.0335,0.6643,-1.1826,-0.8935,-0.2169,-0.6262,0.7764,
11.839459,-0.4950,-0.9374,-0.0335,1.2461,-1.5171,-0.7471,-0.2169,-0.6262,0.7764,
11.895859,-0.4705,-0.7962,-0.0257,1.2461,-1.5171,-0.7471,-0.2169,-0.6262,0.7764,
11.899112,-0.4705,-0.7962,-0.0257,1.2461,-1.5171,-0.7471,-0.0123,-0.2695,0.5394,
11.901214,-0.4705,-0.7962,-0.0257,1.7647,-0.3711,-0.7855,-0.0123,-0.2695,0.5394,
11.956141,-0.5360,-0.7549,-0.0274,1.7647,-0.3711,-0.7855,-0.0123,-0.2695,0.5394,
11.960557,-0.5360,-0.7549,-0.0274,1.7647,-0.3711,-0.7855,-0.3739,0.2308,0.3470,
11.962802,-0.5360,-0.7549,-0.0274,1.3132,-0.1284,-0.7143,-0.3739,0.2308,0.3470,
12.015176,-0.4981,-0.6663,0.0086,1.3132,-0.1284,-0.7143,-0.3739,0.2308,0.3470,
12.018488,-0.4981,-0.6663,0.0086,1.3132,-0.1284,-0.7143,-0.3947,-0.0777,0.1411,
12.020817,-0.4981,-0.6663,0.0086,1.7994,0.6450,-0.1634,-0.3947,-0.0777,0.1411,
12.075646,-0.4762,-0.7640,0.0467,1.7994,0.6450,-0.1634,-0.3947,-0.0777,0.1411,
12.078647,-0.4762,-0.7640,0.0467,1.7994,0.6450,-0.1634,-0.4576,-0.3990,-0.2101,
12.080306,-0.4762,-0.7640,0.0467,2.0038,-0.2993,0.3282,-0.4576,-0.3990,-0.2101,
12.134490,-0.6760,-0.7249,0.0926,2.0038,-0.2993,0.3282,-0.4576,-0.3990,-0.2101,
12.137744,-0.6760,-0.7249,0.0926,2.0038,-0.2993,0.3282,-0.3678,-0.2249,-0.4239,
12.139573,-0.6760,-0.7249,0.0926,-0.1034,0.2195,0.8315,-0.3678,-0.2249,-0.4239,
12.194302,-0.6511,-0.7009,0.0169,-0.1034,0.2195,0.8315,-0.3678,-0.2249,-0.4239,
12.197576,-0.6511,-0.7009,0.0169,-0.1034,0.2195,0.8315,-0.1723,-0.1766,-0.2248,
12.199192,-0.6511,-0.7009,0.0169,-0.0161,0.5913,0.1462,-0.1723,-0.1766,-0.2248,
12.254626,-0.5035,-0.7273,0.0105,-0.0161,0.5913,0.1462,-0.1723,-0.1766,-0.2248,
12.258511,-0.5035,-0.7273,0.0105,-0.0161,0.5913,0.1462,-0.1546,0.2357,-0.2633,
12.260926,-0.5035,-0.7273,0.0105,1.3417,0.4071,0.1455,-0.1546,0.2357,-0.2633,
12.314035,-0.6284,-0.8517,-0.0318,1.3417,0.4071,0.1455,-0.1546,0.2357,-0.2633,
12.316777,-0.6284,-0.8517,-0.0318,1.3417,0.4071,0.1455,-0.1394,0.4025,-0.4001,
12.318474,-0.6284,-0.8517,-0.0318,-0.0492,-0.6785,-0.0832,-0.1394,0.4025,-0.4001,
12.375355,-0.8683,-1.1038,0.1610,-0.0492,-0.6785,-0.0832,-0.1394,0.4025,-0.4001,
12.378612,-0.8683,-1.1038,0.1610,-0.0492,-0.6785,-0.0832,-0.3806,1.1031,-0.3231,
12.380694,-0.8683,-1.1038,0.1610,-2.5876,-3.0215,2.1519,-0.3806,1.1031,-0.3231,
12.436511,-0.5297,-0.7261,-0.1439,-2.5876,-3.0215,2.1519,-0.3806,1.1031,-0.3231,
12.440291,-0.5297,-0.7261,-0.1439,-2.5876,-3.0215,2.1519,-0.2035,-0.1913,-0.0312,
12.442916,-0.5297,-0.7261,-0.1439,0.6188,0.7367,-0.5419,-0.2035,-0.1913,-0.0312,
12.495730,-0.4412,-0.8490,-0.1244,0.6188,0.7367,-0.5419,-0.2035,-0.1913,-0.0312,
12.498528,-0.4412,-0.8490,-0.1244,0.6188,0.7367,-0.5419,-0.5841,-1.4710,-0.1417,
12.500396,-0.4412,-0.8490,-0.1244,1.5349,-0.4956,-0.4303,-0.5841,-1.4710,-0.1417,
12.555110,-0.5566,-0.8448,-0.2475,1.5349,-0.4956,-0.4303,-0.5841,-1.4710,-0.1417,
12.558003,-0.5566,-0.8448,-0.2475,1.5349,-0.4956,-0.4303,-0.7838,-1.2560,-0.4661,
12.559791,-0.5566,-0.8448,-0.2475,0.3207,-0.3784,-1.7991,-0.7838,-1.2560,-0.4661,
12.616643,-0.6367,-0.7527,-0.1632,0.3207,-0.3784,-1.7991,-0.7838,-1.2560,-0.4661,
12.619798,-0.6367,-0.7527,-0.1632,0.3207,-0.3784,-1.7991,-0.6500,-0.5725,-0.6011,
12.622074,-0.6367,-0.7527,-0.1632,-0.7053,0.6931,-0.9532,-0.6500,-0.5725,-0.6011,
12.676075,-0.6374,-0.7965,-0.1280,-0.7053,0.6931,-0.9532,-0.6500,-0.5725,-0.6011,
12.679887,-0.6374,-0.7965,-0.1280,-0.7053,0.6931,-0.9532,-0.2340,0.4477,-0.1112,
12.682175,-0.6374,-0.7965,-0.1280,-0.9173,0.3835,-0.4126,-0.2340,0.4477,-0.1112,
12.736766,-0.5456,-0.8148,-0.1094,-0.9173,0.3835,-0.4126,-0.2340,0.4477,-0.1112,
12.739837,-0.5456,-0.8148,-0.1094,-0.9173,0.3835,-0.4126,-0.0972,0.7305,-0.0385,
12.741673,-0.5456,-0.8148,-0.1094,-0.0633,0.1984,0.0630,-0.0972,0.7305,-0.0385,
12.796786,-0.5763,-0.8358,-0.1151,-0.0633,0.1984,0.0630,-0.0972,0.7305,-0.0385,
12.800050,-0.5763,-0.8358,-0.1151,-0.0633,0.1984,0.0630,-0.0569,0.2699,-0.3421,
12.802145,-0.5763,-0.8358,-0.1151,-0.4851,0.0375,0.2165,-0.0569,0.2699,-0.3421,
12.856127,-0.5922,-0.7698,-0.1554,-0.4851,0.0375,0.2165,-0.0569,0.2699,-0.3421,
12.859703,-0.5922,-0.7698,-0.1554,-0.4851,0.0375,0.2165,-0.2835,-0.1956,-0.4472,
12.862128,-0.5922,-0.7698,-0.1554,-0.8441,0.7920,-0.0826,-0.2835,-0.1956,-0.4472,
12.915291,-0.6066,-0.8277,-0.1764,-0.8441,0.7920,-0.0826,-0.2835,-0.1956,-0.4472,
12.918524,-0.6066,-0.8277,-0.1764,-0.8441,0.7920,-0.0826,-0.3165,-0.4875,-0.2107,
12.920133,-0.6066,-0.8277,-0.1764,-1.1382,0.3055,-0.2411,-0.3165,-0.4875,-0.2107,
12.975147,-0.4806,-0.8656,-0.1700,-1.1382,0.3055,-0.2411,-0.3165,-0.4875,-0.2107,
12.978528,-0.4806,-0.8656,-0.1700,-1.1382,0.3055,-0.2411,0.0115,0.2595,0.0269,
12.980983,-0.4806,-0.8656,-0.1700,0.0801,-0.0647,-0.1289,0.0115,0.2595,0.0269,
13.034897,-0.5228,-0.9440,-0.2973,0.0801,-0.0647,-0.1289,0.0115,0.2595,0.0269,
13.038121,-0.5228,-0.9440,-0.2973,0.0801,-0.0647,-0.1289,0.3945,0.0757,-0.1271,
13.039676,-0.5228,-0.9440,-0.2973,-0.4033,-0.7875,-1.4147,0.3945,0.0757,-0.1271,
13.095966,-0.5312,-0.8656,-0.2138,-0.4033,-0.7875,-1.4147,0.3945,0.0757,-0.1271,
13.099055,-0.5312,-0.8656,-0.2138,-0.4033,-0.7875,-1.4147,-0.0862,0.0677,-0.2425,
13.100973,-0.5312,-0.8656,-0.2138,-0.5932,0.0538,-0.6728,-0.0862,0.0677,-0.2425,
13.155048,-0.5842,-0.8920,-0.1219,-0.5932,0.0538,-0.6728,-0.0862,0.0677,-0.2425,
13.157710,-0.5842,-0.8920,-0.1219,-0.5932,0.0538,-0.6728,-0.0318,-0.1320,-0.1710,
13.159092,-0.5842,-0.8920,-0.1219,-1.2397,-0.1463,0.2801,-0.0318,-0.1320,-0.1710,
13.215766,-0.5255,-0.9093,-0.0760,-1.2397,-0.1463,0.2801,-0.0318,-0.1320,-0.1710,
13.218702,-0.5255,-0.9093,-0.0760,-1.2397,-0.1463,0.2801,0.2504,0.1514,0.1930,
13.220439,-0.5255,-0.9093,-0.0760,-0.6694,-0.3055,0.6798,0.2504,0.1514,0.1930,
13.275849,-0.4341,-0.9035,-0.0652,-0.6694,-0.3055,0.6798,0.2504,0.1514,0.1930,
13.279440,-0.4341,-0.9035,-0.0652,-0.6694,-0.3055,0.6798,0.6731,0.4837,0.5699,
13.281883,-0.4341,-0.9035,-0.0652,0.3846,-0.3092,0.6389,0.6731,0.4837,0.5699,
13.334685,-0.2753,-0.9277,-0.1336,0.3846,-0.3092,0.6389,0.6731,0.4837,0.5699,
13.337116,-0.2753,-0.9277,-0.1336,0.3846,-0.3092,0.6389,0.7928,0.7378,0.4869,
13.338928,-0.2753,-0.9277,-0.1336,2.1983,-0.6611,-0.2472,0.7928,0.7378,0.4869,
13.395658,-0.2902,-0.9804,-0.0985,2.1983,-0.6611,-0.2472,0.7928,0.7378,0.4869,
13.398784,-0.2902,-0.9804,-0.0985,2.1983,-0.6611,-0.2472,0.6218,0.2821,0.0599,
13.400693,-0.2902,-0.9804,-0.0985,2.1782,-1.2332,-0.0691,0.6218,0.2821,0.0599,
13.456368,-0.2902,-0.9804,-0.0985,2.1782,-1.2332,-0.0691,0.1557,-0.2518,-0.1753,
13.459988,-0.4420,-0.8590,-0.1305,2.1782,-1.2332,-0.0691,0.1557,-0.2518,-0.1753,
13.462161,-0.4420,-0.8590,-0.1305,2.1339,-1.1834,-0.3256,0.1557,-0.2518,-0.1753,
13.515456,-0.4361,-0.8448,-0.0166,2.1339,-1.1834,-0.3256,0.1557,-0.2518,-0.1753,
13.518395,-0.4361,-0.8448,-0.0166,2.1339,-1.1834,-0.3256,-0.1937,-0.2395,-0.0935,
13.520551,-0.4361,-0.8448,-0.0166,0.6289,0.1930,0.4314,-0.1937,-0.2395,-0.0935,
13.575886,-0.3880,-0.9399,-0.0836,0.6289,0.1930,0.4314,-0.1937,-0.2395,-0.0935,
13.578436,-0.3880,-0.9399,-0.0836,0.6289,0.1930,0.4314,0.1771,0.0158,-0.0226,
13.579653,-0.3880,-0.9399,-0.0836,1.0769,-0.7232,-0.2467,0.1771,0.0158,-0.0226,
13.636387,-0.4085,-0.8710,-0.0484,1.0769,-0.7232,-0.2467,0.1771,0.0158,-0.0226,
13.639838,-0.4085,-0.8710,-0.0484,1.0769,-0.7232,-0.2467,0.1276,0.2088,-0.0147,
13.641479,-0.4085,-0.8710,-0.0484,0.8518,-0.0306,0.0398,0.1276,0.2088,-0.0147,
13.696071,-0.4390,-0.8937,-0.0530,0.8518,-0.0306,0.0398,0.1276,0.2088,-0.0147,
13.699125,-0.4390,-0.8937,-0.0530,0.8518,-0.0306,0.0398,0.1019,0.0812,0.0110,
13.701017,-0.4390,-0.8937,-0.0530,0.5410,-0.2451,-0.0321,0.1019,0.0812,0.0110,
13.754575,-0.3845,-0.8693,-0.0533,0.5410,-0.2451,-0.0321,0.1019,0.0812,0.0110,
13.757842,-0.3845,-0.8693,-0.0533,0.5410,-0.2451,-0.0321,0.0518,-0.0147,0.0263,
13.759433,-0.3845,-0.8693,-0.0533,1.0832,-0.0102,-0.0386,0.0518,-0.0147,0.0263,
13.815087,-0.4261,-0.9079,-0.0366,1.0832,-0.0102,-0.0386,0.0518,-0.0147,0.0263,
13.817946,-0.4261,-0.9079,-0.0366,1.0832,-0.0102,-0.0386,-0.0941,0.0225,0.0544,
13.819404,-0.4261,-0.9079,-0.0366,0.6917,-0.3976,0.1279,-0.0941,0.0225,0.0544,
13.874780,-0.3694,-0.8649,-0.0865,0.6917,-0.3976,0.1279,-0.0941,0.0225,0.0544,
13.878106,-0.3694,-0.8649,-0.0865,0.6917,-0.3976,0.1279,0.0195,0.0714,0.0977,
13.879756,-0.3694,-0.8649,-0.0865,1.2794,0.0033,-0.3271,0.0195,0.0714,0.0977,
13.934620,-0.4600,-0.9443,-0.0706,1.2794,0.0033,-0.3271,0.0195,0.0714,0.0977,
13.939631,-0.4600,-0.9443,-0.0706,1.2794,0.0033,-0.3271,-0.2884,-0.0386,0.0971,
13.941059,-0.4600,-0.9443,-0.0706,0.4388,-0.8068,-0.1065,-0.2884,-0.0386,0.0971,
13.995643,-0.3117,-0.8231,-0.0640,0.4388,-0.8068,-0.1065,-0.2884,-0.0386,0.0971,
13.999122,-0.3117,-0.8231,-0.0640,0.4388,-0.8068,-0.1065,-0.1345,0.0457,0.2279,
14.001033,-0.3117,-0.8231,-0.0640,1.9591,0.3312,0.0863,-0.1345,0.0457,0.2279,
14.054541,-0.4329,-0.9308,-0.1236,1.9591,0.3312,0.0863,-0.1345,0.0457,0.2279,
14.057629,-0.4329,-0.9308,-0.1236,1.9591,0.3312,0.0863,-0.2976,-0.2004,0.1332,
14.059173,-0.4329,-0.9308,-0.1236,0.8722,-0.7917,-0.4288,-0.2976,-0.2004,0.1332,
14.115859,-0.4075,-0.8131,-0.1622,0.8722,-0.7917,-0.4288,-0.2976,-0.2004,0.1332,
14.118802,-0.4075,-0.8131,-0.1622,0.8722,-0.7917,-0.4288,-0.4747,-0.3244,0.1747,
14.120653,-0.4075,-0.8131,-0.1622,1.1889,0.3078,-0.6844,-0.4747,-0.3244,0.1747,
14.174939,-0.4156,-0.7552,-0.2001,1.1889,0.3078,-0.6844,-0.4747,-0.3244,0.1747,
14.177715,-0.4156,-0.7552,-0.2001,1.1889,0.3078,-0.6844,-0.7685,-0.7368,0.1759,
14.179333,-0.4156,-0.7552,-0.2001,1.2197,0.7952,-0.9668,-0.7685,-0.7368,0.1759,
14.234185,-0.6003,-0.9663,-0.1612,1.2197,0.7952,-0.9668,-0.7685,-0.7368,0.1759,
14.237577,-0.6003,-0.9663,-0.1612,1.2197,0.7952,-0.9668,-0.9384,-0.6342,-0.0672,
14.240158,-0.6003,-0.9663,-0.1612,-0.4917,-1.3747,-0.3223,-0.9384,-0.6342,-0.0672,
14.301344,-0.6003,-0.9663,-0.1612,-0.4917,-1.3747,-0.3223,-0.4485,-0.1021,-0.0544,
14.303887,-0.6003,-0.9663,-0.1612,-0.4702,-1.4209,-0.1329,-0.4485,-0.1021,-0.0544,
14.333197,-0.6655,-0.8869,-0.1258,-0.4702,-1.4209,-0.1329,-0.4485,-0.1021,-0.0544,
14.353938,-0.6611,-0.8397,-0.1710,-0.4702,-1.4209,-0.1329,-0.4485,-0.1021,-0.0544,
14.356573,-0.6611,-0.8397,-0.1710,-0.4702,-1.4209,-0.1329,0.0971,-0.2047,-0.0874,
14.358029,-0.6611,-0.8397,-0.1710,-1.0996,-0.1712,-0.1587,0.0971,-0.2047,-0.0874,
14.372958,-0.6904,-0.8263,-0.2072,-1.0996,-0.1712,-0.1587,0.0971,-0.2047,-0.0874,
14.393237,-0.7366,-0.8297,-0.2028,-1.0996,-0.1712,-0.1587,0.0971,-0.2047,-0.0874,
14.414360,-0.7703,-0.8092,-0.1566,-1.0996,-0.1712,-0.1587,0.0971,-0.2047,-0.0874,
14.416212,-0.7703,-0.8092,-0.1566,-1.0996,-0.1712,-0.1587,-0.1601,-0.7514,-0.1765,
14.417373,-0.7703,-0.8092,-0.1566,-2.1889,0.1694,-0.1790,-0.1601,-0.7514,-0.1765,
14.437049,-0.7723,-0.7650,-0.1224,-2.1889,0.1694,-0.1790,-0.1601,-0.7514,-0.1765,
14.453244,-0.7447,-0.7019,-0.1104,-2.1889,0.1694,-0.1790,-0.1601,-0.7514,-0.1765,
14.474223,-0.6885,-0.6462,-0.1109,-2.1889,0.1694,-0.1790,-0.1601,-0.7514,-0.1765,
14.476631,-0.6885,-0.6462,-0.1109,-2.1889,0.1694,-0.1790,-0.1626,-0.2518,0.0983,
14.477541,-0.6885,-0.6462,-0.1109,-1.3783,1.7735,0.1899,-0.1626,-0.2518,0.0983,
14.493883,-0.6413,-0.6753,-0.1273,-1.3783,1.7735,0.1899,-0.1626,-0.2518,0.0983,
14.513540,-0.6013,-0.7474,-0.1222,-1.3783,1.7735,0.1899,-0.1626,-0.2518,0.0983,
14.535720,-0.6013,-0.7474,-0.1222,-1.3783,1.7735,0.1899,0.0977,0.0213,0.4019,
14.537973,-0.6013,-0.7474,-0.1222,0.0251,0.1013,0.1255,0.0977,0.0213,0.4019,
14.539107,-0.5597,-0.8077,-0.1136,0.0251,0.1013,0.1255,0.0977,0.0213,0.4019,
14.562382,-0.5387,-0.8578,-0.1180,0.0251,0.1013,0.1255,0.0977,0.0213,0.4019,
14.573326,-0.5126,-0.8859,-0.1290,0.0251,0.1013,0.1255,0.0977,0.0213,0.4019,
14.596111,-0.5126,-0.8859,-0.1290,0.0251,0.1013,0.1255,0.2504,0.6212,0.2993,
14.597983,-0.5126,-0.8859,-0.1290,0.9852,-0.6143,0.0005,0.2504,0.6212,0.2993,
14.599238,-0.4786,-0.8683,-0.1302,0.9852,-0.6143,0.0005,0.2504,0.6212,0.2993,
14.613282,-0.4510,-0.8307,-0.1231,0.9852,-0.6143,0.0005,0.2504,0.6212,0.2993,
14.633609,-0.4837,-0.8033,-0.1131,0.9852,-0.6143,0.0005,0.2504,0.6212,0.2993,
14.654952,-0.5602,-0.7996,-0.1146,0.9852,-0.6143,0.0005,0.2504,0.6212,0.2993,
14.657998,-0.5602,-0.7996,-0.1146,0.9852,-0.6143,0.0005,0.4599,0.4691,-0.2498,
14.660021,-0.5602,-0.7996,-0.1146,0.1781,0.0547,0.2073,0.4599,0.4691,-0.2498,
14.673476,-0.6074,-0.7786,-0.1087,0.1781,0.0547,0.2073,0.4599,0.4691,-0.2498,
14.693705,-0.6426,-0.7579,-0.0941,0.1781,0.0547,0.2073,0.4599,0.4691,-0.2498,
14.714114,-0.6643,-0.7493,-0.0914,0.1781,0.0547,0.2073,0.4599,0.4691,-0.2498,
14.716823,-0.6643,-0.7493,-0.0914,0.1781,0.0547,0.2073,0.3060,0.2980,-0.2883,
14.718446,-0.6643,-0.7493,-0.0914,-1.0135,0.6814,0.3536,0.3060,0.2980,-0.2883,
14.733674,-0.6641,-0.7501,-0.0965,-1.0135,0.6814,0.3536,0.3060,0.2980,-0.2883,
14.753906,-0.6325,-0.7613,-0.0926,-1.0135,0.6814,0.3536,0.3060,0.2980,-0.2883,
14.774271,-0.6157,-0.7823,-0.0923,-1.0135,0.6814,0.3536,0.3060,0.2980,-0.2883,
14.776348,-0.6157,-0.7823,-0.0923,-1.0135,0.6814,0.3536,0.2357,0.0182,-0.0507,
14.777397,-0.6157,-0.7823,-0.0923,-0.6355,0.4309,0.3036,0.2357,0.0182,-0.0507,
14.793477,-0.6052,-0.7891,-0.0955,-0.6355,0.4309,0.3036,0.2357,0.0182,-0.0507,
14.813479,-0.6118,-0.8006,-0.1165,-0.6355,0.4309,0.3036,0.2357,0.0182,-0.0507,
14.834988,-0.6259,-0.8102,-0.1412,-0.6355,0.4309,0.3036,0.2357,0.0182,-0.0507,
14.837794,-0.6259,-0.8102,-0.1412,-0.6355,0.4309,0.3036,0.4410,-0.0996,-0.0373,
14.839063,-0.6259,-0.8102,-0.1412,-0.7404,0.1865,-0.3613,0.4410,-0.0996,-0.0373,
14.860171,-0.6296,-0.8014,-0.1691,-0.7404,0.1865,-0.3613,0.4410,-0.0996,-0.0373,
14.873940,-0.6284,-0.7762,-0.1801,-0.7404,0.1865,-0.3613,0.4410,-0.0996,-0.0373,
14.893908,-0.6281,-0.7537,-0.1693,-0.7404,0.1865,-0.3613,0.4410,-0.0996,-0.0373,
14.897187,-0.6281,-0.7537,-0.1693,-0.7404,0.1865,-0.3613,0.1581,-0.1711,-0.0556,
14.898922,-0.6281,-0.7537,-0.1693,-0.7761,0.7727,-0.8484,0.1581,-0.1711,-0.0556,
14.913946,-0.6438,-0.7642,-0.1532,-0.7761,0.7727,-0.8484,0.1581,-0.1711,-0.0556,
14.934863,-0.6699,-0.7894,-0.1283,-0.7761,0.7727,-0.8484,0.1581,-0.1711,-0.0556,
14.954853,-0.6584,-0.7882,-0.0889,-0.7761,0.7727,-0.8484,0.1581,-0.1711,-0.0556,
14.957976,-0.6584,-0.7882,-0.0889,-0.7761,0.7727,-0.8484,-0.1161,-0.1607,0.0128,
14.960032,-0.6584,-0.7882,-0.0889,-1.0822,0.4475,-0.1269,-0.1161,-0.1607,0.0128,
14.974121,-0.6206,-0.7779,-0.0645,-1.0822,0.4475,-0.1269,-0.1161,-0.1607,0.0128,
14.994226,-0.6059,-0.8075,-0.0577,-1.0822,0.4475,-0.1269,-0.1161,-0.1607,0.0128,
15.014464,-0.6059,-0.8075,-0.0577,-1.0822,0.4475,-0.1269,0.0848,0.0744,0.2120,
15.017257,-0.6059,-0.8075,-0.0577,-0.3995,-0.0916,0.2310,0.0848,0.0744,0.2120,
15.019267,-0.5954,-0.8385,-0.0555,-0.3995,-0.0916,0.2310,0.0848,0.0744,0.2120,
15.034025,-0.5781,-0.8390,-0.0552,-0.3995,-0.0916,0.2310,0.0848,0.0744,0.2120,
15.054210,-0.5492,-0.8092,-0.0706,-0.3995,-0.0916,0.2310,0.0848,0.0744,0.2120,
15.075041,-0.5583,-0.7982,-0.1085,-0.3995,-0.0916,0.2310,0.0848,0.0744,0.2120,
15.078107,-0.5583,-0.7982,-0.1085,-0.3995,-0.0916,0.2310,0.2821,0.1319,0.1643,
15.079979,-0.5583,-0.7982,-0.1085,0.0623,0.2425,-0.3465,0.2821,0.1319,0.1643,
15.093740,-0.5795,-0.8038,-0.1163,0.0623,0.2425,-0.3465,0.2821,0.1319,0.1643,
15.113589,-0.5861,-0.8131,-0.0926,0.0623,0.2425,-0.3465,0.2821,0.1319,0.1643,
15.135833,-0.5886,-0.8353,-0.0721,0.0623,0.2425,-0.3465,0.2821,0.1319,0.1643,
15.138909,-0.5886,-0.8353,-0.0721,0.0623,0.2425,-0.3465,0.0060,-0.1552,0.1698,
15.140571,-0.5886,-0.8353,-0.0721,-0.1514,-0.1711,-0.0859,0.0060,-0.1552,0.1698,
15.160588,-0.5614,-0.8307,-0.0584,-0.1514,-0.1711,-0.0859,0.0060,-0.1552,0.1698,
15.173790,-0.5253,-0.8009,-0.0408,-0.1514,-0.1711,-0.0859,0.0060,-0.1552,0.1698,
15.194956,-0.5153,-0.7891,-0.0315,-0.1514,-0.1711,-0.0859,0.0060,-0.1552,0.1698,
15.196776,-0.5153,-0.7891,-0.0315,-0.1514,-0.1711,-0.0859,0.1361,0.0128,0.1203,
15.197913,-0.5153,-0.7891,-0.0315,0.6468,0.2288,0.2579,0.1361,0.0128,0.1203,
15.213109,-0.5451,-0.8141,-0.0398,0.6468,0.2288,0.2579,0.1361,0.0128,0.1203,
15.233515,-0.5754,-0.8268,-0.0491,0.6468,0.2288,0.2579,0.1361,0.0128,0.1203,
15.255072,-0.5966,-0.8238,-0.0508,0.6468,0.2288,0.2579,0.1361,0.0128,0.1203,
15.257222,-0.5966,-0.8238,-0.0508,0.6468,0.2288,0.2579,0.3212,0.1276,-0.0110,
15.258227,-0.5966,-0.8238,-0.0508,-0.1253,-0.1239,-0.0123,0.3212,0.1276,-0.0110,
15.275999,-0.6179,-0.8067,-0.0489,-0.1253,-0.1239,-0.0123,0.3212,0.1276,-0.0110,
15.294121,-0.6247,-0.7811,-0.0476,-0.1253,-0.1239,-0.0123,0.3212,0.1276,-0.0110,
15.314485,-0.6247,-0.7811,-0.0476,-0.1253,-0.1239,-0.0123,0.1533,0.1337,-0.0061,
15.316389,-0.6247,-0.7811,-0.0476,-0.4796,0.4643,0.1155,0.1533,0.1337,-0.0061,
15.317311,-0.6311,-0.7654,-0.0305,-0.4796,0.4643,0.1155,0.1533,0.1337,-0.0061,
15.334188,-0.6191,-0.7703,-0.0112,-0.4796,0.4643,0.1155,0.1533,0.1337,-0.0061,
15.353668,-0.6088,-0.7874,-0.0103,-0.4796,0.4643,0.1155,0.1533,0.1337,-0.0061,
15.374551,-0.5983,-0.8080,-0.0083,-0.4796,0.4643,0.1155,0.1533,0.1337,-0.0061,
15.376853,-0.5983,-0.8080,-0.0083,-0.4796,0.4643,0.1155,0.1276,0.0476,0.0764,
15.378055,-0.5983,-0.8080,-0.0083,-0.1445,0.0379,0.3249,0.1276,0.0476,0.0764,
15.393433,-0.5895,-0.8155,-0.0132,-0.1445,0.0379,0.3249,0.1276,0.0476,0.0764,
15.413295,-0.5778,-0.8158,-0.0254,-0.1445,0.0379,0.3249,0.1276,0.0476,0.0764,
15.433863,-0.5749,-0.8163,-0.0308,-0.1445,0.0379,0.3249,0.1276,0.0476,0.0764,
15.436406,-0.5749,-0.8163,-0.0308,-0.1445,0.0379,0.3249,0.2143,-0.2127,0.1057,
15.438566,-0.5749,-0.8163,-0.0308,0.1321,-0.0720,-0.0149,0.2143,-0.2127,0.1057,
15.452852,-0.5700,-0.8199,-0.0359,0.1321,-0.0720,-0.0149,0.2143,-0.2127,0.1057,
15.477206,-0.5695,-0.8258,-0.0376,0.1321,-0.0720,-0.0149,0.2143,-0.2127,0.1057,
15.495339,-0.5727,-0.8363,-0.0305,0.1321,-0.0720,-0.0149,0.2143,-0.2127,0.1057,
15.497302,-0.5727,-0.8363,-0.0305,0.1321,-0.0720,-0.0149,0.2229,-0.0917,0.1173,
15.498439,-0.5727,-0.8363,-0.0305,0.2098,-0.3054,-0.1697,0.2229,-0.0917,0.1173,
15.513647,-0.5580,-0.8263,-0.0227,0.2098,-0.3054,-0.1697,0.2229,-0.0917,0.1173,
15.533447,-0.5453,-0.8114,-0.0203,0.2098,-0.3054,-0.1697,0.2229,-0.0917,0.1173,
15.555327,-0.5495,-0.8080,-0.0310,0.2098,-0.3054,-0.1697,0.2229,-0.0917,0.1173,
15.557852,-0.5495,-0.8080,-0.0310,0.2098,-0.3054,-0.1697,0.3359,0.0696,0.0489,
15.559352,-0.5495,-0.8080,-0.0310,0.4793,-0.0578,-0.3068,0.3359,0.0696,0.0489,
15.573162,-0.5676,-0.8087,-0.0447,0.4793,-0.0578,-0.3068,0.3359,0.0696,0.0489,
15.593779,-0.5873,-0.8048,-0.0415,0.4793,-0.0578,-0.3068,0.3359,0.0696,0.0489,
15.614125,-0.5949,-0.7952,-0.0244,0.4793,-0.0578,-0.3068,0.3359,0.0696,0.0489,
15.616644,-0.5949,-0.7952,-0.0244,0.4793,-0.0578,-0.3068,0.2602,0.0989,-0.0128,
15.618023,-0.5949,-0.7952,-0.0244,0.0403,0.0609,-0.3722,0.2602,0.0989,-0.0128,
15.634170,-0.6062,-0.7945,-0.0181,0.0403,0.0609,-0.3722,0.2602,0.0989,-0.0128,
15.653802,-0.5925,-0.7855,0.0090,0.0403,0.0609,-0.3722,0.2602,0.0989,-0.0128,
15.675594,-0.5925,-0.7855,0.0090,0.0403,0.0609,-0.3722,0.2241,0.2614,0.0348,
15.677420,-0.5925,-0.7855,0.0090,0.2144,0.2000,0.2831,0.2241,0.2614,0.0348,
15.678561,-0.5773,-0.7808,0.0469,0.2144,0.2000,0.2831,0.2241,0.2614,0.0348,
15.693393,-0.5964,-0.7945,0.0511,0.2144,0.2000,0.2831,0.2241,0.2614,0.0348,
15.713976,-0.6255,-0.8172,0.0469,0.2144,0.2000,0.2831,0.2241,0.2614,0.0348,
15.733719,-0.6308,-0.8243,0.0457,0.2144,0.2000,0.2831,0.2241,0.2614,0.0348,
15.736163,-0.6308,-0.8243,0.0457,0.2144,0.2000,0.2831,0.3915,0.3988,0.0849,
15.737646,-0.6308,-0.8243,0.0457,-0.2837,-0.2460,0.2648,0.3915,0.3988,0.0849,
15.753444,-0.6032,-0.8016,0.0442,-0.2837,-0.2460,0.2648,0.3915,0.3988,0.0849,
15.774637,-0.5720,-0.7823,0.0327,-0.2837,-0.2460,0.2648,0.3915,0.3988,0.0849,
15.794205,-0.5658,-0.7855,0.0386,-0.2837,-0.2460,0.2648,0.3915,0.3988,0.0849,
15.796181,-0.5658,-0.7855,0.0386,-0.2837,-0.2460,0.2648,0.3060,0.1227,0.1069,
15.797535,-0.5658,-0.7855,0.0386,0.4074,0.0919,0.1345,0.3060,0.1227,0.1069,
15.813731,-0.5834,-0.8043,0.0318,0.4074,0.0919,0.1345,0.3060,0.1227,0.1069,
15.833455,-0.6020,-0.8194,0.0276,0.4074,0.0919,0.1345,0.3060,0.1227,0.1069,
15.855119,-0.6020,-0.8194,0.0276,0.4074,0.0919,0.1345,0.1728,-0.0911,0.0593,
15.857840,-0.6020,-0.8194,0.0276,0.1485,-0.1978,0.1554,0.1728,-0.0911,0.0593,
15.859981,-0.5961,-0.8116,0.0520,0.1485,-0.1978,0.1554,0.1728,-0.0911,0.0593,
15.879545,-0.5580,-0.7813,0.0804,0.1485,-0.1978,0.1554,0.1728,-0.0911,0.0593,
15.893831,-0.5734,-0.7972,0.0894,0.1485,-0.1978,0.1554,0.1728,-0.0911,0.0593,
15.914205,-0.5734,-0.7972,0.0894,0.1485,-0.1978,0.1554,0.2736,0.2259,0.0391,
15.916099,-0.5734,-0.7972,0.0894,0.3972,-0.0806,0.4452,0.2736,0.2259,0.0391,
15.917203,-0.6096,-0.8143,0.0838,0.3972,-0.0806,0.4452,0.2736,0.2259,0.0391,
15.934036,-0.6416,-0.8292,0.0875,0.3972,-0.0806,0.4452,0.2736,0.2259,0.0391,
15.953459,-0.6423,-0.8119,0.0855,0.3972,-0.0806,0.4452,0.2736,0.2259,0.0391,
15.977833,-0.6142,-0.8004,0.0787,0.3972,-0.0806,0.4452,0.2736,0.2259,0.0391,
15.980213,-0.6142,-0.8004,0.0787,0.3972,-0.0806,0.4452,0.3506,0.2443,0.1264,
15.981440,-0.6142,-0.8004,0.0787,0.0272,-0.1384,0.2832,0.3506,0.2443,0.1264,
15.993893,-0.5759,-0.8089,0.0772,0.0272,-0.1384,0.2832,0.3506,0.2443,0.1264,
16.014472,-0.5382,-0.8270,0.0911,0.0272,-0.1384,0.2832,0.3506,0.2443,0.1264,
16.034697,-0.5382,-0.8270,0.0911,0.0272,-0.1384,0.2832,0.3640,0.1771,0.2578,
16.037374,-0.5382,-0.8270,0.0911,1.1331,-0.5863,0.4158,0.3640,0.1771,0.2578,
16.039319,-0.5114,-0.8375,0.1011,1.1331,-0.5863,0.4158,0.3640,0.1771,0.2578,
16.053622,-0.4964,-0.8236,0.1029,1.1331,-0.5863,0.4158,0.3640,0.1771,0.2578,
16.073508,-0.5209,-0.8006,0.0779,1.1331,-0.5863,0.4158,0.3640,0.1771,0.2578,
16.093888,-0.6113,-0.8016,0.0611,1.1331,-0.5863,0.4158,0.3640,0.1771,0.2578,
16.097495,-0.6113,-0.8016,0.0611,1.1331,-0.5863,0.4158,0.5845,0.4972,0.0324,
16.099154,-0.6113,-0.8016,0.0611,0.2442,-0.3172,-0.0853,0.5845,0.4972,0.0324,
16.114858,-0.6792,-0.7818,0.0420,0.2442,-0.3172,-0.0853,0.5845,0.4972,0.0324,
16.133604,-0.7144,-0.7359,0.0379,0.2442,-0.3172,-0.0853,0.5845,0.4972,0.0324,
16.154582,-0.7154,-0.6863,0.0459,0.2442,-0.3172,-0.0853,0.5845,0.4972,0.0324,
16.156785,-0.7154,-0.6863,0.0459,0.2442,-0.3172,-0.0853,0.4562,0.4923,-0.0134,
16.158053,-0.7154,-0.6863,0.0459,-0.7623,0.7981,-0.2741,0.4562,0.4923,-0.0134,
16.177979,-0.7149,-0.6736,0.0484,-0.7623,0.7981,-0.2741,0.4562,0.4923,-0.0134,
16.196730,-0.6983,-0.6941,0.0669,-0.7623,0.7981,-0.2741,0.4562,0.4923,-0.0134,
16.214748,-0.6951,-0.7254,0.0665,-0.7623,0.7981,-0.2741,0.4562,0.4923,-0.0134,
16.217153,-0.6951,-0.7254,0.0665,-0.7623,0.7981,-0.2741,0.1783,0.1734,0.0715,
16.218407,-0.6951,-0.7254,0.0665,-0.5312,0.3870,-0.0827,0.1783,0.1734,0.0715,
16.233657,-0.7046,-0.7342,0.0726,-0.5312,0.3870,-0.0827,0.1783,0.1734,0.0715,
16.253778,-0.6963,-0.7327,0.0738,-0.5312,0.3870,-0.0827,0.1783,0.1734,0.0715,
16.276005,-0.6865,-0.7464,0.0860,-0.5312,0.3870,-0.0827,0.1783,0.1734,0.0715,
16.278083,-0.6865,-0.7464,0.0860,-0.5312,0.3870,-0.0827,0.0219,-0.0233,0.0941,
16.279173,-0.6865,-0.7464,0.0860,-0.4068,0.1448,0.0878,0.0219,-0.0233,0.0941,
16.294975,-0.6470,-0.7371,0.1036,-0.4068,0.1448,0.0878,0.0219,-0.0233,0.0941,
16.313751,-0.6181,-0.7522,0.1033,-0.4068,0.1448,0.0878,0.0219,-0.0233,0.0941,
16.334341,-0.6179,-0.7779,0.0875,-0.4068,0.1448,0.0878,0.0219,-0.0233,0.0941,
16.336852,-0.6179,-0.7779,0.0875,-0.4068,0.1448,0.0878,0.0891,0.0066,0.0874,
16.338036,-0.6179,-0.7779,0.0875,0.3103,-0.2052,0.0694,0.0891,0.0066,0.0874,
16.353964,-0.6242,-0.7955,0.0862,0.3103,-0.2052,0.0694,0.0891,0.0066,0.0874,
16.378235,-0.6176,-0.7764,0.0838,0.3103,-0.2052,0.0694,0.0891,0.0066,0.0874,
16.393918,-0.6313,-0.7447,0.0862,0.3103,-0.2052,0.0694,0.0891,0.0066,0.0874,
16.396524,-0.6313,-0.7447,0.0862,0.3103,-0.2052,0.0694,0.0995,0.0482,0.0110,
16.398293,-0.6313,-0.7447,0.0862,0.2040,0.0951,0.0261,0.0995,0.0482,0.0110,
16.414849,-0.6658,-0.7427,0.0855,0.2040,0.0951,0.0261,0.0995,0.0482,0.0110,
16.435107,-0.6797,-0.7508,0.0923,0.2040,0.0951,0.0261,0.0995,0.0482,0.0110,
16.454277,-0.6797,-0.7508,0.0923,0.2040,0.0951,0.0261,0.0463,0.0573,0.0220,
16.456243,-0.6797,-0.7508,0.0923,-0.0898,-0.0091,0.1988,0.0463,0.0573,0.0220,
16.457700,-0.6619,-0.7547,0.1051,-0.0898,-0.0091,0.1988,0.0463,0.0573,0.0220,
16.473893,-0.6448,-0.7520,0.0914,-0.0898,-0.0091,0.1988,0.0463,0.0573,0.0220,
16.495390,-0.6516,-0.7579,0.0772,-0.0898,-0.0091,0.1988,0.0463,0.0573,0.0220,
16.514996,-0.6516,-0.7579,0.0772,-0.0898,-0.0091,0.1988,-0.0123,-0.0349,-0.0159,
16.517883,-0.6516,-0.7579,0.0772,0.0269,-0.0909,0.0105,-0.0123,-0.0349,-0.0159,
16.519616,-0.6504,-0.7625,0.0872,0.0269,-0.0909,0.0105,-0.0123,-0.0349,-0.0159,
16.533906,-0.6404,-0.7510,0.1036,0.0269,-0.0909,0.0105,-0.0123,-0.0349,-0.0159,
16.555121,-0.6535,-0.7581,0.0948,0.0269,-0.0909,0.0105,-0.0123,-0.0349,-0.0159,
16.577145,-0.6594,-0.7586,0.0848,0.0269,-0.0909,0.0105,-0.0123,-0.0349,-0.0159,
16.580183,-0.6594,-0.7586,0.0848,0.0269,-0.0909,0.0105,0.0274,-0.0361,-0.0147,
16.582111,-0.6594,-0.7586,0.0848,-0.0700,-0.0463,-0.0216,0.0274,-0.0361,-0.0147,
16.600836,-0.6477,-0.7598,0.0894,-0.0700,-0.0463,-0.0216,0.0274,-0.0361,-0.0147,
16.613447,-0.6277,-0.7623,0.0938,-0.0700,-0.0463,-0.0216,0.0274,-0.0361,-0.0147,
16.634201,-0.6269,-0.7652,0.0928,-0.0700,-0.0463,-0.0216,0.0274,-0.0361,-0.0147,
16.636529,-0.6269,-0.7652,0.0928,-0.0700,-0.0463,-0.0216,0.0628,0.0812,0.0043,
16.637685,-0.6269,-0.7652,0.0928,0.2477,-0.1112,0.0501,0.0628,0.0812,0.0043,
16.655371,-0.6433,-0.7549,0.0811,0.2477,-0.1112,0.0501,0.0628,0.0812,0.0043,
16.673749,-0.6570,-0.7444,0.0921,0.2477,-0.1112,0.0501,0.0628,0.0812,0.0043,
16.694443,-0.6570,-0.7444,0.0921,0.2477,-0.1112,0.0501,0.0402,0.0024,-0.0165,
16.696922,-0.6570,-0.7444,0.0921,-0.1540,0.0445,0.0438,0.0402,0.0024,-0.0165,
16.698062,-0.6675,-0.7496,0.0933,-0.1540,0.0445,0.0438,0.0402,0.0024,-0.0165,
16.713980,-0.6641,-0.7498,0.0909,-0.1540,0.0445,0.0438,0.0402,0.0024,-0.0165,
16.733380,-0.6540,-0.7603,0.0911,-0.1540,0.0445,0.0438,0.0402,0.0024,-0.0165,
16.754271,-0.6360,-0.7559,0.0855,-0.1540,0.0445,0.0438,0.0402,0.0024,-0.0165,
16.756039,-0.6360,-0.7559,0.0855,-0.1540,0.0445,0.0438,0.0323,0.0439,0.0208,
16.757016,-0.6360,-0.7559,0.0855,0.1575,-0.0213,-0.0438,0.0323,0.0439,0.0208,
16.773323,-0.6428,-0.7554,0.0987,0.1575,-0.0213,-0.0438,0.0323,0.0439,0.0208,
16.794786,-0.6509,-0.7564,0.0865,0.1575,-0.0213,-0.0438,0.0323,0.0439,0.0208,
16.814322,-0.6548,-0.7515,0.0733,0.1575,-0.0213,-0.0438,0.0323,0.0439,0.0208,
16.817386,-0.6548,-0.7515,0.0733,0.1575,-0.0213,-0.0438,0.0366,0.0054,-0.0110,
16.819176,-0.6548,-0.7515,0.0733,-0.0344,0.0273,-0.1719,0.0366,0.0054,-0.0110,
16.834280,-0.6499,-0.7527,0.0814,-0.0344,0.0273,-0.1719,0.0366,0.0054,-0.0110,
16.853584,-0.6479,-0.7559,0.0784,-0.0344,0.0273,-0.1719,0.0366,0.0054,-0.0110,
16.874827,-0.6518,-0.7501,0.0955,-0.0344,0.0273,-0.1719,0.0366,0.0054,-0.0110,
16.876996,-0.6518,-0.7501,0.0955,-0.0344,0.0273,-0.1719,0.0494,0.0189,-0.0263,
16.878008,-0.6518,-0.7501,0.0955,-0.0122,0.0502,0.0709,0.0494,0.0189,-0.0263,
16.897849,-0.6584,-0.7474,0.0901,-0.0122,0.0502,0.0709,0.0494,0.0189,-0.0263,
16.913785,-0.6614,-0.7425,0.0875,-0.0122,0.0502,0.0709,0.0494,0.0189,-0.0263,
16.935244,-0.6614,-0.7425,0.0875,-0.0122,0.0502,0.0709,0.0305,0.0158,-0.0104,
16.937230,-0.6614,-0.7425,0.0875,-0.1605,0.0728,0.0358,0.0305,0.0158,-0.0104,
16.938397,-0.6680,-0.7469,0.0921,-0.1605,0.0728,0.0358,0.0305,0.0158,-0.0104,
16.953509,-0.6643,-0.7427,0.0963,-0.1605,0.0728,0.0358,0.0305,0.0158,-0.0104,
16.973706,-0.6611,-0.7461,0.0870,-0.1605,0.0728,0.0358,0.0305,0.0158,-0.0104,
16.995313,-0.6616,-0.7410,0.1217,-0.1605,0.0728,0.0358,0.0305,0.0158,-0.0104,
16.998021,-0.6616,-0.7410,0.1217,-0.1605,0.0728,0.0358,0.0555,0.0256,0.0244,
16.999291,-0.6616,-0.7410,0.1217,-0.0588,0.0939,0.3084,0.0555,0.0256,0.0244,
17.014155,-0.6560,-0.7391,0.0826,-0.0588,0.0939,0.3084,0.0555,0.0256,0.0244,
17.032555,-0.6523,-0.7564,0.0730,-0.0588,0.0939,0.3084,0.0555,0.0256,0.0244,
17.053725,-0.6540,-0.7461,0.0662,-0.0588,0.0939,0.3084,0.0555,0.0256,0.0244,
17.054583,-0.6540,-0.7461,0.0662,-0.0588,0.0939,0.3084,0.1050,0.2730,0.0421,
17.055093,-0.6540,-0.7461,0.0662,0.0540,0.0150,-0.1904,0.1050,0.2730,0.0421,
17.074077,-0.6743,-0.7364,0.0967,0.0540,0.0150,-0.1904,0.1050,0.2730,0.0421,
17.093465,-0.6616,-0.7537,0.1073,0.0540,0.0150,-0.1904,0.1050,0.2730,0.0421,
