
time,gFx,gFy,gFz,ax,ay,az,wx,wy,wz,
0.105207,0.0000,0.0000,0.0000,0.1083,-0.0957,-0.3435,0.0000,0.0000,0.0000,
0.164694,0.0000,0.0000,0.0000,0.1892,-0.0562,-0.3613,0.0000,0.0000,0.0000,
0.225509,0.0000,0.0000,0.0000,0.2577,0.0045,-0.3882,0.0000,0.0000,0.0000,
0.284868,0.0000,0.0000,0.0000,0.3061,0.0831,-0.4229,0.0000,0.0000,0.0000,
0.345321,0.0000,0.0000,0.0000,0.3061,0.0831,-0.4229,-0.0208,0.0176,-0.0122,
0.346325,0.0000,0.0000,0.0000,0.3331,0.1656,-0.4590,-0.0208,0.0176,-0.0122,
0.405064,0.0000,0.0000,0.0000,0.3331,0.1656,-0.4590,-0.0215,0.0005,-0.0483,
0.406325,0.0000,0.0000,0.0000,0.4080,0.2375,-0.4877,-0.0215,0.0005,-0.0483,
0.432115,-0.6455,-0.7520,0.0469,0.4080,0.2375,-0.4877,-0.0215,0.0005,-0.0483,
0.464368,-0.6455,-0.7520,0.0469,0.4080,0.2375,-0.4877,-0.0367,-0.0202,-0.0104,
0.465209,-0.6455,-0.7520,0.0469,-5.8930,-11.1835,-8.5646,-0.0367,-0.0202,-0.0104,
0.493088,-0.6470,-0.7613,0.0523,-5.8930,-11.1835,-8.5646,-0.0367,-0.0202,-0.0104,
0.496113,-0.6384,-0.7635,0.0537,-5.8930,-11.1835,-8.5646,-0.0367,-0.0202,-0.0104,
0.497546,-0.6408,-0.7618,0.0559,-5.8930,-11.1835,-8.5646,-0.0367,-0.0202,-0.0104,
0.524729,-0.6408,-0.7618,0.0559,-5.8930,-11.1835,-8.5646,-0.0141,0.0213,-0.0116,
0.526223,-0.6408,-0.7618,0.0559,-3.0752,-7.9965,-8.7046,-0.0141,0.0213,-0.0116,
0.553275,-0.6492,-0.7608,0.0533,-3.0752,-7.9965,-8.7046,-0.0141,0.0213,-0.0116,
0.554959,-0.6548,-0.7662,0.0577,-3.0752,-7.9965,-8.7046,-0.0141,0.0213,-0.0116,
0.556033,-0.6474,-0.7659,0.0618,-3.0752,-7.9965,-8.7046,-0.0141,0.0213,-0.0116,
0.584987,-0.6474,-0.7659,0.0618,-3.0752,-7.9965,-8.7046,-0.0373,0.0134,-0.0110,
0.586793,-0.6474,-0.7659,0.0618,-0.4162,-3.4916,-6.0954,-0.0373,0.0134,-0.0110,
0.612880,-0.6374,-0.7669,0.0660,-0.4162,-3.4916,-6.0954,-0.0373,0.0134,-0.0110,
0.614762,-0.6294,-0.7715,0.0555,-0.4162,-3.4916,-6.0954,-0.0373,0.0134,-0.0110,
0.616140,-0.6264,-0.7718,0.0511,-0.4162,-3.4916,-6.0954,-0.0373,0.0134,-0.0110,
0.644988,-0.6264,-0.7718,0.0511,-0.4162,-3.4916,-6.0954,-0.0355,-0.0141,-0.0324,
0.645939,-0.6264,-0.7718,0.0511,0.3674,-1.4868,-3.6117,-0.0355,-0.0141,-0.0324,
0.673815,-0.6340,-0.7806,0.0581,0.3674,-1.4868,-3.6117,-0.0355,-0.0141,-0.0324,
0.676573,-0.6379,-0.7869,0.0596,0.3674,-1.4868,-3.6117,-0.0355,-0.0141,-0.0324,
0.678831,-0.6301,-0.7786,0.0530,0.3674,-1.4868,-3.6117,-0.0355,-0.0141,-0.0324,
0.704351,-0.6301,-0.7786,0.0530,0.3674,-1.4868,-3.6117,0.0592,0.1508,-0.0623,
0.705232,-0.6301,-0.7786,0.0530,0.3257,-0.7982,-2.1693,0.0592,0.1508,-0.0623,
0.732891,-0.6303,-0.7694,0.0428,0.3257,-0.7982,-2.1693,0.0592,0.1508,-0.0623,
0.734461,-0.6518,-0.7654,0.0354,0.3257,-0.7982,-2.1693,0.0592,0.1508,-0.0623,
0.735318,-0.6609,-0.7637,0.0298,0.3257,-0.7982,-2.1693,0.0592,0.1508,-0.0623,
0.765467,-0.6609,-0.7637,0.0298,0.3257,-0.7982,-2.1693,0.0103,0.1166,-0.0147,
0.766661,-0.6609,-0.7637,0.0298,0.0278,-0.6364,-2.3471,0.0103,0.1166,-0.0147,
0.792264,-0.6575,-0.7588,0.0315,0.0278,-0.6364,-2.3471,0.0103,0.1166,-0.0147,
0.793917,-0.6565,-0.7586,0.0340,0.0278,-0.6364,-2.3471,0.0103,0.1166,-0.0147,
0.795230,-0.6619,-0.7642,0.0330,0.0278,-0.6364,-2.3471,0.0103,0.1166,-0.0147,
0.826397,-0.6619,-0.7642,0.0330,0.0278,-0.6364,-2.3471,-0.0447,0.0647,0.0250,
0.827994,-0.6619,-0.7642,0.0330,0.0327,-0.6343,-2.2618,-0.0447,0.0647,0.0250,
0.853064,-0.6526,-0.7645,0.0347,0.0327,-0.6343,-2.2618,-0.0447,0.0647,0.0250,
0.855702,-0.6438,-0.7664,0.0281,0.0327,-0.6343,-2.2618,-0.0447,0.0647,0.0250,
0.857610,-0.6377,-0.7684,0.0300,0.0327,-0.6343,-2.2618,-0.0447,0.0647,0.0250,
0.884940,-0.6377,-0.7684,0.0300,0.2937,-0.6794,-2.2410,-0.0447,0.0647,0.0250,
0.886934,-0.6377,-0.7684,0.0300,0.2937,-0.6794,-2.2410,0.0060,0.0812,0.0287,
0.912585,-0.6272,-0.7647,0.0315,0.2937,-0.6794,-2.2410,0.0060,0.0812,0.0287,
0.914404,-0.6340,-0.7667,0.0274,0.2937,-0.6794,-2.2410,0.0060,0.0812,0.0287,
0.915730,-0.6416,-0.7650,0.0193,0.2937,-0.6794,-2.2410,0.0060,0.0812,0.0287,
0.945693,-0.6416,-0.7650,0.0193,0.2739,-0.6488,-2.3062,0.0060,0.0812,0.0287,
0.947614,-0.6416,-0.7650,0.0193,0.2739,-0.6488,-2.3062,0.0561,0.1300,-0.0171,
0.972707,-0.6462,-0.7542,0.0154,0.2739,-0.6488,-2.3062,0.0561,0.1300,-0.0171,
0.974430,-0.6601,-0.7574,0.0147,0.2739,-0.6488,-2.3062,0.0561,0.1300,-0.0171,
0.975636,-0.6565,-0.7586,0.0129,0.2739,-0.6488,-2.3062,0.0561,0.1300,-0.0171,
1.004651,-0.6565,-0.7586,0.0129,0.2739,-0.6488,-2.3062,-0.0251,0.0494,-0.0055,
1.007160,-0.6565,-0.7586,0.0129,0.1414,-0.5836,-2.3244,-0.0251,0.0494,-0.0055,
1.032602,-0.6406,-0.7537,0.0122,0.1414,-0.5836,-2.3244,-0.0251,0.0494,-0.0055,
1.035350,-0.6379,-0.7547,0.0122,0.1414,-0.5836,-2.3244,-0.0251,0.0494,-0.0055,
1.037339,-0.6531,-0.7684,0.0169,0.1414,-0.5836,-2.3244,-0.0251,0.0494,-0.0055,
1.064945,-0.6531,-0.7684,0.0169,0.1726,-0.6618,-2.2425,-0.0251,0.0494,-0.0055,
1.066873,-0.6531,-0.7684,0.0169,0.1726,-0.6618,-2.2425,-0.0532,-0.0044,-0.0116,
1.093340,-0.6501,-0.7718,0.0161,0.1726,-0.6618,-2.2425,-0.0532,-0.0044,-0.0116,
1.095164,-0.6404,-0.7645,0.0169,0.1726,-0.6618,-2.2425,-0.0532,-0.0044,-0.0116,
1.096436,-0.6362,-0.7681,0.0117,0.1726,-0.6618,-2.2425,-0.0532,-0.0044,-0.0116,
1.125609,-0.6362,-0.7681,0.0117,0.1726,-0.6618,-2.2425,-0.0557,-0.0147,0.0049,
1.127167,-0.6362,-0.7681,0.0117,0.3322,-0.6432,-2.2618,-0.0557,-0.0147,0.0049,
1.153129,-0.6416,-0.7759,0.0056,0.3322,-0.6432,-2.2618,-0.0557,-0.0147,0.0049,
1.155899,-0.6396,-0.7730,0.0042,0.3322,-0.6432,-2.2618,-0.0557,-0.0147,0.0049,
1.157624,-0.6328,-0.7691,0.0078,0.3322,-0.6432,-2.2618,-0.0557,-0.0147,0.0049,
1.185202,-0.6328,-0.7691,0.0078,0.3553,-0.5635,-2.0560,-0.0557,-0.0147,0.0049,
1.186906,-0.6328,-0.7691,0.0078,0.3553,-0.5635,-2.0560,0.0244,0.0635,0.0092,
1.213273,-0.6321,-0.7615,0.0132,0.3553,-0.5635,-2.0560,0.0244,0.0635,0.0092,
1.214943,-0.6399,-0.7603,0.0154,0.3553,-0.5635,-2.0560,0.0244,0.0635,0.0092,
1.216050,-0.6494,-0.7591,0.0120,0.3553,-0.5635,-2.0560,0.0244,0.0635,0.0092,
1.246259,-0.6494,-0.7591,0.0120,0.1664,-0.3336,-1.6250,0.0244,0.0635,0.0092,
1.248004,-0.6494,-0.7591,0.0120,0.1664,-0.3336,-1.6250,0.0195,0.0512,-0.0318,
1.272573,-0.6535,-0.7542,0.0076,0.1664,-0.3336,-1.6250,0.0195,0.0512,-0.0318,
1.273893,-0.6567,-0.7403,0.0042,0.1664,-0.3336,-1.6250,0.0195,0.0512,-0.0318,
1.275008,-0.6675,-0.7329,0.0037,0.1664,-0.3336,-1.6250,0.0195,0.0512,-0.0318,
1.305571,-0.6675,-0.7329,0.0037,-0.0277,-0.0544,-1.6754,0.0195,0.0512,-0.0318,
1.308080,-0.6675,-0.7329,0.0037,-0.0277,-0.0544,-1.6754,-0.1351,-0.1125,-0.0507,
1.332411,-0.6750,-0.7339,0.0046,-0.0277,-0.0544,-1.6754,-0.1351,-0.1125,-0.0507,
1.334226,-0.6724,-0.7381,0.0105,-0.0277,-0.0544,-1.6754,-0.1351,-0.1125,-0.0507,
1.335408,-0.6653,-0.7415,0.0208,-0.0277,-0.0544,-1.6754,-0.1351,-0.1125,-0.0507,
1.365976,-0.6653,-0.7415,0.0208,-0.0473,-0.0939,-1.4784,-0.1351,-0.1125,-0.0507,
1.367782,-0.6653,-0.7415,0.0208,-0.0473,-0.0939,-1.4784,-0.2597,-0.2261,-0.0580,
1.393187,-0.6567,-0.7461,0.0188,-0.0473,-0.0939,-1.4784,-0.2597,-0.2261,-0.0580,
1.395050,-0.6511,-0.7513,0.0151,-0.0473,-0.0939,-1.4784,-0.2597,-0.2261,-0.0580,
1.396399,-0.6487,-0.7625,0.0188,-0.0473,-0.0939,-1.4784,-0.2597,-0.2261,-0.0580,
1.425231,-0.6487,-0.7625,0.0188,0.0683,-0.2512,-1.4704,-0.2597,-0.2261,-0.0580,
1.427309,-0.6487,-0.7625,0.0188,0.0683,-0.2512,-1.4704,-0.2737,-0.2463,-0.0299,
1.452975,-0.6428,-0.7706,0.0254,0.0683,-0.2512,-1.4704,-0.2737,-0.2463,-0.0299,
1.455793,-0.6274,-0.7725,0.0274,0.0683,-0.2512,-1.4704,-0.2737,-0.2463,-0.0299,
1.457924,-0.6220,-0.7818,0.0198,0.0683,-0.2512,-1.4704,-0.2737,-0.2463,-0.0299,
1.486805,-0.6220,-0.7818,0.0198,0.0683,-0.2512,-1.4704,-0.2206,-0.1723,-0.0324,
1.489343,-0.6220,-0.7818,0.0198,0.2950,-0.4031,-1.4302,-0.2206,-0.1723,-0.0324,
1.515587,-0.6179,-0.7913,0.0142,0.2950,-0.4031,-1.4302,-0.2206,-0.1723,-0.0324,
1.519043,-0.6079,-0.7926,0.0171,0.2950,-0.4031,-1.4302,-0.2206,-0.1723,-0.0324,
1.521473,-0.6042,-0.7923,0.0137,0.2950,-0.4031,-1.4302,-0.2206,-0.1723,-0.0324,
1.547560,-0.6042,-0.7923,0.0137,0.2950,-0.4031,-1.4302,-0.1846,-0.1015,-0.0690,
1.550245,-0.6042,-0.7923,0.0137,0.4342,-0.4636,-1.4388,-0.1846,-0.1015,-0.0690,
1.572750,-0.6096,-0.7957,0.0213,0.4342,-0.4636,-1.4388,-0.1846,-0.1015,-0.0690,
1.575576,-0.6130,-0.7952,0.0198,0.4342,-0.4636,-1.4388,-0.1846,-0.1015,-0.0690,
1.577063,-0.6093,-0.7950,0.0103,0.4342,-0.4636,-1.4388,-0.1846,-0.1015,-0.0690,
1.605353,-0.6093,-0.7950,0.0103,0.3402,-0.4400,-1.4147,-0.1846,-0.1015,-0.0690,
1.608112,-0.6093,-0.7950,0.0103,0.3402,-0.4400,-1.4147,-0.1723,-0.0581,-0.0983,
1.633119,-0.6103,-0.7865,-0.0034,0.3402,-0.4400,-1.4147,-0.1723,-0.0581,-0.0983,
1.636060,-0.6213,-0.7845,0.0005,0.3402,-0.4400,-1.4147,-0.1723,-0.0581,-0.0983,
1.637611,-0.6279,-0.7786,0.0061,0.3402,-0.4400,-1.4147,-0.1723,-0.0581,-0.0983,
1.666744,-0.6279,-0.7786,0.0061,0.3402,-0.4400,-1.4147,-0.0996,0.0378,-0.0812,
1.669424,-0.6279,-0.7786,0.0061,0.1134,-0.2286,-1.3923,-0.0996,0.0378,-0.0812,
1.692650,-0.6267,-0.7750,0.0024,0.1134,-0.2286,-1.3923,-0.0996,0.0378,-0.0812,
1.695226,-0.6255,-0.7742,-0.0078,0.1134,-0.2286,-1.3923,-0.0996,0.0378,-0.0812,
1.697343,-0.6352,-0.7762,-0.0151,0.1134,-0.2286,-1.3923,-0.0996,0.0378,-0.0812,
1.724814,-0.6352,-0.7762,-0.0151,0.1134,-0.2286,-1.3923,-0.1522,-0.0325,-0.0733,
1.727109,-0.6352,-0.7762,-0.0151,0.0063,-0.1625,-1.5350,-0.1522,-0.0325,-0.0733,
1.753200,-0.6413,-0.7730,-0.0203,0.0063,-0.1625,-1.5350,-0.1522,-0.0325,-0.0733,
1.755868,-0.6450,-0.7718,-0.0149,0.0063,-0.1625,-1.5350,-0.1522,-0.0325,-0.0733,
1.757953,-0.6382,-0.7774,-0.0137,0.0063,-0.1625,-1.5350,-0.1522,-0.0325,-0.0733,
1.785739,-0.6382,-0.7774,-0.0137,-0.0535,-0.1378,-1.4613,-0.1522,-0.0325,-0.0733,
1.788131,-0.6382,-0.7774,-0.0137,-0.0535,-0.1378,-1.4613,-0.1381,-0.0447,-0.0452,
1.815530,-0.6372,-0.7835,-0.0134,-0.0535,-0.1378,-1.4613,-0.1381,-0.0447,-0.0452,
1.817348,-0.6333,-0.7852,-0.0137,-0.0535,-0.1378,-1.4613,-0.1381,-0.0447,-0.0452,
1.818790,-0.6328,-0.7852,-0.0164,-0.0535,-0.1378,-1.4613,-0.1381,-0.0447,-0.0452,
1.846744,-0.6328,-0.7852,-0.0164,-0.0192,-0.1900,-1.4344,-0.1381,-0.0447,-0.0452,
1.848619,-0.6328,-0.7852,-0.0164,-0.0192,-0.1900,-1.4344,-0.1015,-0.0123,-0.0128,
1.872756,-0.6157,-0.7740,-0.0076,-0.0192,-0.1900,-1.4344,-0.1015,-0.0123,-0.0128,
1.874811,-0.6108,-0.7781,0.0093,-0.0192,-0.1900,-1.4344,-0.1015,-0.0123,-0.0128,
1.876182,-0.6181,-0.7874,0.0178,-0.0192,-0.1900,-1.4344,-0.1015,-0.0123,-0.0128,
1.904690,-0.6181,-0.7874,0.0178,-0.0192,-0.1900,-1.4344,-0.0654,-0.0013,0.0214,
1.907334,-0.6181,-0.7874,0.0178,0.1061,-0.1182,-0.4878,-0.0654,-0.0013,0.0214,
1.933896,-0.6228,-0.7879,0.0230,0.1061,-0.1182,-0.4878,-0.0654,-0.0013,0.0214,
1.936170,-0.6230,-0.7786,0.0176,0.1061,-0.1182,-0.4878,-0.0654,-0.0013,0.0214,
1.937528,-0.6225,-0.7737,0.0107,0.1061,-0.1182,-0.4878,-0.0654,-0.0013,0.0214,
1.965823,-0.6225,-0.7737,0.0107,0.1061,-0.1182,-0.4878,-0.1497,-0.0215,0.0654,
1.968081,-0.6225,-0.7737,0.0107,0.0783,0.0071,-0.5143,-0.1497,-0.0215,0.0654,
1.993290,-0.6247,-0.7767,0.0103,0.0783,0.0071,-0.5143,-0.1497,-0.0215,0.0654,
1.995907,-0.6174,-0.7772,0.0173,0.0783,0.0071,-0.5143,-0.1497,-0.0215,0.0654,
1.997538,-0.6020,-0.7713,0.0217,0.0783,0.0071,-0.5143,-0.1497,-0.0215,0.0654,
2.025473,-0.6020,-0.7713,0.0217,0.0783,0.0071,-0.5143,-0.2059,0.0427,0.0043,
2.026817,-0.6020,-0.7713,0.0217,0.3017,0.0190,-0.3268,-0.2059,0.0427,0.0043,
2.053021,-0.6008,-0.7750,0.0166,0.3017,0.0190,-0.3268,-0.2059,0.0427,0.0043,
2.055527,-0.6125,-0.7806,0.0125,0.3017,0.0190,-0.3268,-0.2059,0.0427,0.0043,
2.057415,-0.6169,-0.7767,0.0173,0.3017,0.0190,-0.3268,-0.2059,0.0427,0.0043,
2.084692,-0.6169,-0.7767,0.0173,0.3017,0.0190,-0.3268,-0.2304,0.0940,-0.0226,
2.087352,-0.6169,-0.7767,0.0173,0.1532,-0.0238,-0.2438,-0.2304,0.0940,-0.0226,
2.113179,-0.6159,-0.7715,0.0230,0.1532,-0.0238,-0.2438,-0.2304,0.0940,-0.0226,
2.115685,-0.6174,-0.7711,0.0081,0.1532,-0.0238,-0.2438,-0.2304,0.0940,-0.0226,
2.117401,-0.6213,-0.7718,-0.0093,0.1532,-0.0238,-0.2438,-0.2304,0.0940,-0.0226,
2.145314,-0.6213,-0.7718,-0.0093,0.1006,0.0388,-0.3497,-0.2304,0.0940,-0.0226,
2.147255,-0.6213,-0.7718,-0.0093,0.1006,0.0388,-0.3497,-0.3263,0.0225,-0.0153,
2.172998,-0.6211,-0.7718,-0.0186,0.1006,0.0388,-0.3497,-0.3263,0.0225,-0.0153,
2.174532,-0.6176,-0.7735,-0.0271,0.1006,0.0388,-0.3497,-0.3263,0.0225,-0.0153,
2.175787,-0.6233,-0.7882,-0.0425,0.1006,0.0388,-0.3497,-0.3263,0.0225,-0.0153,
2.206044,-0.6233,-0.7882,-0.0425,0.0846,-0.1204,-0.5050,-0.3263,0.0225,-0.0153,
2.208771,-0.6233,-0.7882,-0.0425,0.0846,-0.1204,-0.5050,-0.4711,-0.0630,0.0446,
2.234399,-0.6335,-0.8109,-0.0665,0.0846,-0.1204,-0.5050,-0.4711,-0.0630,0.0446,
2.236444,-0.6184,-0.8199,-0.0843,0.0846,-0.1204,-0.5050,-0.4711,-0.0630,0.0446,
2.238005,-0.5935,-0.8167,-0.1009,0.0846,-0.1204,-0.5050,-0.4711,-0.0630,0.0446,
2.265082,-0.5935,-0.8167,-0.1009,0.0846,-0.1204,-0.5050,-0.5908,-0.4210,0.1637,
2.266766,-0.5935,-0.8167,-0.1009,0.4125,-0.4297,-0.9123,-0.5908,-0.4210,0.1637,
2.292440,-0.5563,-0.8043,-0.1009,0.4125,-0.4297,-0.9123,-0.5908,-0.4210,0.1637,
2.295024,-0.5580,-0.8270,-0.1099,0.4125,-0.4297,-0.9123,-0.5908,-0.4210,0.1637,
2.296907,-0.5519,-0.8334,-0.1331,0.4125,-0.4297,-0.9123,-0.5908,-0.4210,0.1637,
2.324389,-0.5519,-0.8334,-0.1331,0.9135,-0.6728,-1.1125,-0.5908,-0.4210,0.1637,
2.326266,-0.5519,-0.8334,-0.1331,0.9135,-0.6728,-1.1125,-0.5187,-0.3923,0.1338,
2.354333,-0.5292,-0.8084,-0.1761,0.9135,-0.6728,-1.1125,-0.5187,-0.3923,0.1338,
2.356502,-0.5314,-0.7720,-0.2118,0.9135,-0.6728,-1.1125,-0.5187,-0.3923,0.1338,
2.358110,-0.5776,-0.7581,-0.2199,0.9135,-0.6728,-1.1125,-0.5187,-0.3923,0.1338,
2.386099,-0.5776,-0.7581,-0.2199,0.6424,0.0804,-1.9336,-0.5187,-0.3923,0.1338,
2.388543,-0.5776,-0.7581,-0.2199,0.6424,0.0804,-1.9336,-0.1546,-0.2951,-0.2053,
2.412554,-0.6323,-0.7520,-0.2028,0.6424,0.0804,-1.9336,-0.1546,-0.2951,-0.2053,
2.415474,-0.6741,-0.7281,-0.1830,0.6424,0.0804,-1.9336,-0.1546,-0.2951,-0.2053,
2.417272,-0.7007,-0.6987,-0.1730,0.6424,0.0804,-1.9336,-0.1546,-0.2951,-0.2053,
2.444841,-0.7007,-0.6987,-0.1730,0.6424,0.0804,-1.9336,0.2156,0.4214,-0.1387,
2.446718,-0.7007,-0.6987,-0.1730,-0.6528,0.7355,-1.4732,0.2156,0.4214,-0.1387,
2.472969,-0.7239,-0.6851,-0.1654,-0.6528,0.7355,-1.4732,0.2156,0.4214,-0.1387,
2.475341,-0.7381,-0.6750,-0.1583,-0.6528,0.7355,-1.4732,0.2156,0.4214,-0.1387,
2.476450,-0.7359,-0.6699,-0.1527,-0.6528,0.7355,-1.4732,0.2156,0.4214,-0.1387,
2.505418,-0.7359,-0.6699,-0.1527,-1.0438,1.0525,-1.1809,0.2156,0.4214,-0.1387,
2.508295,-0.7359,-0.6699,-0.1527,-1.0438,1.0525,-1.1809,0.1361,0.4947,-0.0104,
2.534845,-0.7327,-0.6777,-0.1422,-1.0438,1.0525,-1.1809,0.1361,0.4947,-0.0104,
2.537764,-0.7156,-0.7124,-0.1112,-1.0438,1.0525,-1.1809,0.1361,0.4947,-0.0104,
2.539992,-0.6973,-0.7505,-0.0958,-1.0438,1.0525,-1.1809,0.1361,0.4947,-0.0104,
2.566996,-0.6973,-0.7505,-0.0958,-0.6428,0.2328,-0.4209,0.1361,0.4947,-0.0104,
2.569199,-0.6973,-0.7505,-0.0958,-0.6428,0.2328,-0.4209,-0.0557,0.6120,0.1271,
2.594008,-0.6545,-0.7610,-0.1009,-0.6428,0.2328,-0.4209,-0.0557,0.6120,0.1271,
2.596267,-0.6191,-0.7598,-0.1094,-0.6428,0.2328,-0.4209,-0.0557,0.6120,0.1271,
2.597955,-0.6025,-0.7562,-0.1182,-0.6428,0.2328,-0.4209,-0.0557,0.6120,0.1271,
2.625527,-0.6025,-0.7562,-0.1182,0.2738,0.1753,-0.4820,-0.0557,0.6120,0.1271,
2.627696,-0.6025,-0.7562,-0.1182,0.2738,0.1753,-0.4820,-0.0111,-0.0294,-0.2046,
2.654174,-0.6086,-0.7498,-0.1236,0.2738,0.1753,-0.4820,-0.0111,-0.0294,-0.2046,
2.656126,-0.6438,-0.7430,-0.1375,0.2738,0.1753,-0.4820,-0.0111,-0.0294,-0.2046,
2.657578,-0.6623,-0.7276,-0.1463,0.2738,0.1753,-0.4820,-0.0111,-0.0294,-0.2046,
2.687008,-0.6623,-0.7276,-0.1463,-0.4292,0.5519,-0.7950,-0.0111,-0.0294,-0.2046,
2.689163,-0.6623,-0.7276,-0.1463,-0.4292,0.5519,-0.7950,-0.0428,-0.1357,-0.3146,
2.712760,-0.6694,-0.7058,-0.1578,-0.4292,0.5519,-0.7950,-0.0428,-0.1357,-0.3146,
2.714405,-0.6765,-0.7117,-0.1691,-0.4292,0.5519,-0.7950,-0.0428,-0.1357,-0.3146,
2.715310,-0.6804,-0.7256,-0.1869,-0.4292,0.5519,-0.7950,-0.0428,-0.1357,-0.3146,
2.745136,-0.6804,-0.7256,-0.1869,-0.4292,0.5519,-0.7950,0.0335,-0.0178,-0.3256,
2.746803,-0.6804,-0.7256,-0.1869,-0.7422,0.6772,-1.2015,0.0335,-0.0178,-0.3256,
2.773373,-0.6694,-0.7220,-0.2147,-0.7422,0.6772,-1.2015,0.0335,-0.0178,-0.3256,
2.776044,-0.6555,-0.6990,-0.2455,-0.7422,0.6772,-1.2015,0.0335,-0.0178,-0.3256,
2.778087,-0.6472,-0.6743,-0.2631,-0.7422,0.6772,-1.2015,0.0335,-0.0178,-0.3256,
2.804905,-0.6472,-0.6743,-0.2631,-0.5681,1.2923,-1.9412,0.0335,-0.0178,-0.3256,
2.808294,-0.6472,-0.6743,-0.2631,-0.5681,1.2923,-1.9412,-0.2493,-0.1137,-0.3506,
2.835292,-0.6641,-0.6873,-0.2753,-0.5681,1.2923,-1.9412,-0.2493,-0.1137,-0.3506,
2.837828,-0.6816,-0.7273,-0.2619,-0.5681,1.2923,-1.9412,-0.2493,-0.1137,-0.3506,
2.839784,-0.6599,-0.7520,-0.2299,-0.5681,1.2923,-1.9412,-0.2493,-0.1137,-0.3506,
2.864758,-0.6599,-0.7520,-0.2299,-0.5681,1.2923,-1.9412,-0.4393,0.1233,-0.1912,
2.867832,-0.6599,-0.7520,-0.2299,-0.8259,0.6096,-1.4294,-0.4393,0.1233,-0.1912,
2.892606,-0.6362,-0.7867,-0.2038,-0.8259,0.6096,-1.4294,-0.4393,0.1233,-0.1912,
2.895154,-0.6247,-0.8229,-0.1849,-0.8259,0.6096,-1.4294,-0.4393,0.1233,-0.1912,
2.897003,-0.6098,-0.8380,-0.1695,-0.8259,0.6096,-1.4294,-0.4393,0.1233,-0.1912,
2.924796,-0.6098,-0.8380,-0.1695,-0.8259,0.6096,-1.4294,-0.0013,0.1264,-0.1197,
2.928010,-0.6098,-0.8380,-0.1695,-0.4201,-0.1952,-0.6498,-0.0013,0.1264,-0.1197,
2.952827,-0.6149,-0.8634,-0.1686,-0.4201,-0.1952,-0.6498,-0.0013,0.1264,-0.1197,
2.954557,-0.6462,-0.9093,-0.1803,-0.4201,-0.1952,-0.6498,-0.0013,0.1264,-0.1197,
2.955643,-0.6619,-0.9450,-0.1832,-0.4201,-0.1952,-0.6498,-0.0013,0.1264,-0.1197,
2.985508,-0.6619,-0.9450,-0.1832,-0.4201,-0.1952,-0.6498,0.3933,0.3225,0.0574,
2.987433,-0.6619,-0.9450,-0.1832,-0.9645,-1.2153,-0.8229,0.3933,0.3225,0.0574,
3.012766,-0.6567,-0.9733,-0.1779,-0.9645,-1.2153,-0.8229,0.3933,0.3225,0.0574,
3.015564,-0.5881,-0.9355,-0.1644,-0.9645,-1.2153,-0.8229,0.3933,0.3225,0.0574,
3.018003,-0.5312,-0.8881,-0.1776,-0.9645,-1.2153,-0.8229,0.3933,0.3225,0.0574,
3.046417,-0.5312,-0.8881,-0.1776,-0.9645,-1.2153,-0.8229,0.5882,0.6499,0.1411,
3.048829,-0.5312,-0.8881,-0.1776,0.3578,-0.6824,-0.7975,0.5882,0.6499,0.1411,
3.072270,-0.4940,-0.8610,-0.1830,0.3578,-0.6824,-0.7975,0.5882,0.6499,0.1411,
3.073977,-0.4747,-0.8375,-0.1769,0.3578,-0.6824,-0.7975,0.5882,0.6499,0.1411,
3.075049,-0.5013,-0.8402,-0.1622,0.3578,-0.6824,-0.7975,0.5882,0.6499,0.1411,
3.105832,-0.5013,-0.8402,-0.1622,0.6127,-0.1701,-0.8094,0.5882,0.6499,0.1411,
3.107785,-0.5013,-0.8402,-0.1622,0.6127,-0.1701,-0.8094,0.7776,0.3506,-0.1570,
3.132596,-0.5319,-0.8277,-0.1373,0.6127,-0.1701,-0.8094,0.7776,0.3506,-0.1570,
3.135423,-0.5431,-0.7835,-0.1214,0.6127,-0.1701,-0.8094,0.7776,0.3506,-0.1570,
3.137340,-0.5607,-0.7608,-0.1192,0.6127,-0.1701,-0.8094,0.7776,0.3506,-0.1570,
3.165028,-0.5607,-0.7608,-0.1192,0.6127,-0.1701,-0.8094,0.6487,0.1288,-0.1900,
3.167615,-0.5607,-0.7608,-0.1192,-0.0717,0.6984,-0.6525,0.6487,0.1288,-0.1900,
3.192772,-0.5851,-0.7601,-0.1273,-0.0717,0.6984,-0.6525,0.6487,0.1288,-0.1900,
3.194441,-0.5991,-0.7725,-0.1312,-0.0717,0.6984,-0.6525,0.6487,0.1288,-0.1900,
3.195427,-0.5849,-0.7877,-0.1368,-0.0717,0.6984,-0.6525,0.6487,0.1288,-0.1900,
3.224993,-0.5849,-0.7877,-0.1368,-0.0717,0.6984,-0.6525,0.1484,-0.1424,0.0990,
3.226695,-0.5849,-0.7877,-0.1368,-0.3426,0.4688,-1.0566,0.1484,-0.1424,0.0990,
3.254335,-0.5514,-0.8192,-0.1341,-0.3426,0.4688,-1.0566,0.1484,-0.1424,0.0990,
3.256204,-0.5243,-0.8519,-0.1283,-0.3426,0.4688,-1.0566,0.1484,-0.1424,0.0990,
3.257771,-0.4815,-0.8600,-0.1356,-0.3426,0.4688,-1.0566,0.1484,-0.1424,0.0990,
3.289251,-0.4815,-0.8600,-0.1356,0.7589,-0.2991,-1.0377,0.1484,-0.1424,0.0990,
3.291977,-0.4815,-0.8600,-0.1356,0.7589,-0.2991,-1.0377,-0.1766,0.0329,0.2334,
3.313924,-0.4356,-0.8541,-0.1444,0.7589,-0.2991,-1.0377,-0.1766,0.0329,0.2334,
3.315503,-0.4148,-0.8619,-0.1551,0.7589,-0.2991,-1.0377,-0.1766,0.0329,0.2334,
3.316581,-0.3990,-0.8695,-0.1488,0.7589,-0.2991,-1.0377,-0.1766,0.0329,0.2334,
3.345739,-0.3990,-0.8695,-0.1488,1.6559,-0.4537,-1.1276,-0.1766,0.0329,0.2334,
3.347948,-0.3990,-0.8695,-0.1488,1.6559,-0.4537,-1.1276,0.1429,-0.2579,0.0739,
3.373058,-0.3843,-0.8930,-0.1283,1.6559,-0.4537,-1.1276,0.1429,-0.2579,0.0739,
3.375204,-0.3757,-0.9030,-0.0877,1.6559,-0.4537,-1.1276,0.1429,-0.2579,0.0739,
3.376785,-0.3884,-0.9076,-0.0804,1.6559,-0.4537,-1.1276,0.1429,-0.2579,0.0739,
3.406668,-0.3884,-0.9076,-0.0804,1.7567,-0.8200,-0.6605,0.1429,-0.2579,0.0739,
3.411050,-0.3884,-0.9076,-0.0804,1.7567,-0.8200,-0.6605,0.4068,0.0659,-0.0702,
3.433868,-0.4324,-0.8949,-0.1087,1.7567,-0.8200,-0.6605,0.4068,0.0659,-0.0702,
3.436811,-0.4835,-0.8712,-0.1305,1.7567,-0.8200,-0.6605,0.4068,0.0659,-0.0702,
3.439231,-0.5123,-0.8561,-0.1351,1.7567,-0.8200,-0.6605,0.4068,0.0659,-0.0702,
3.465134,-0.5123,-0.8561,-0.1351,1.7567,-0.8200,-0.6605,0.1142,-0.0502,-0.0782,
3.468043,-0.5123,-0.8561,-0.1351,0.4903,-0.2781,-1.3227,0.1142,-0.0502,-0.0782,
3.492979,-0.5180,-0.8473,-0.1207,0.4903,-0.2781,-1.3227,0.1142,-0.0502,-0.0782,
3.496375,-0.4923,-0.8485,-0.0931,0.4903,-0.2781,-1.3227,0.1142,-0.0502,-0.0782,
3.498337,-0.4622,-0.8615,-0.0691,0.4903,-0.2781,-1.3227,0.1142,-0.0502,-0.0782,
3.526291,-0.4622,-0.8615,-0.0691,0.4903,-0.2781,-1.3227,-0.0160,-0.0819,-0.0318,
3.529187,-0.4622,-0.8615,-0.0691,0.9507,-0.3101,-0.7165,-0.0160,-0.0819,-0.0318,
3.552864,-0.4476,-0.8864,-0.0484,0.9507,-0.3101,-0.7165,-0.0160,-0.0819,-0.0318,
3.556006,-0.4378,-0.8961,-0.0432,0.9507,-0.3101,-0.7165,-0.0160,-0.0819,-0.0318,
3.558479,-0.4275,-0.8861,-0.0547,0.9507,-0.3101,-0.7165,-0.0160,-0.0819,-0.0318,
3.585291,-0.4275,-0.8861,-0.0547,0.9507,-0.3101,-0.7165,-0.0031,-0.0031,-0.0006,
3.588371,-0.4275,-0.8861,-0.0547,1.2751,-0.5414,-0.5738,-0.0031,-0.0031,-0.0006,
3.614262,-0.4314,-0.8727,-0.0704,1.2751,-0.5414,-0.5738,-0.0031,-0.0031,-0.0006,
3.618413,-0.4617,-0.8676,-0.0787,1.2751,-0.5414,-0.5738,-0.0031,-0.0031,-0.0006,
3.620600,-0.4857,-0.8749,-0.0845,1.2751,-0.5414,-0.5738,-0.0031,-0.0031,-0.0006,
3.646749,-0.4857,-0.8749,-0.0845,1.2751,-0.5414,-0.5738,0.0372,-0.0312,0.0562,
3.649478,-0.4857,-0.8749,-0.0845,0.7109,-0.4351,-0.8738,0.0372,-0.0312,0.0562,
3.674856,-0.4852,-0.8724,-0.0838,0.7109,-0.4351,-0.8738,0.0372,-0.0312,0.0562,
3.678091,-0.4556,-0.8602,-0.0806,0.7109,-0.4351,-0.8738,0.0372,-0.0312,0.0562,
3.679974,-0.4407,-0.8571,-0.0821,0.7109,-0.4351,-0.8738,0.0372,-0.0312,0.0562,
3.706006,-0.4407,-0.8571,-0.0821,1.1893,-0.2860,-0.8686,0.0372,-0.0312,0.0562,
3.709144,-0.4407,-0.8571,-0.0821,1.1893,-0.2860,-0.8686,-0.0318,-0.0355,0.1246,
3.733223,-0.4119,-0.8378,-0.0884,1.1893,-0.2860,-0.8686,-0.0318,-0.0355,0.1246,
3.736216,-0.4395,-0.8624,-0.1021,1.1893,-0.2860,-0.8686,-0.0318,-0.0355,0.1246,
3.737964,-0.4925,-0.9130,-0.1114,1.1893,-0.2860,-0.8686,-0.0318,-0.0355,0.1246,
3.766019,-0.4925,-0.9130,-0.1114,0.7460,-0.8781,-1.1107,-0.0318,-0.0355,0.1246,
3.769203,-0.4925,-0.9130,-0.1114,0.7460,-0.8781,-1.1107,-0.1589,-0.0850,0.1405,
3.793375,-0.5057,-0.9274,-0.1073,0.7460,-0.8781,-1.1107,-0.1589,-0.0850,0.1405,
3.796003,-0.4683,-0.9172,-0.0901,0.7460,-0.8781,-1.1107,-0.1589,-0.0850,0.1405,
3.797438,-0.4024,-0.8764,-0.0696,0.7460,-0.8781,-1.1107,-0.1589,-0.0850,0.1405,
3.825830,-0.4024,-0.8764,-0.0696,0.7460,-0.8781,-1.1107,-0.1894,-0.0783,0.1991,
3.828709,-0.4024,-0.8764,-0.0696,1.7041,-0.5710,-0.6555,-0.1894,-0.0783,0.1991,
3.855376,-0.3552,-0.8331,-0.0740,1.7041,-0.5710,-0.6555,-0.1894,-0.0783,0.1991,
3.858970,-0.3467,-0.8121,-0.1094,1.7041,-0.5710,-0.6555,-0.1894,-0.0783,0.1991,
3.860984,-0.3694,-0.8248,-0.1507,1.7041,-0.5710,-0.6555,-0.1894,-0.0783,0.1991,
3.886332,-0.3694,-0.8248,-0.1507,2.1306,-0.1411,-1.3189,-0.1894,-0.0783,0.1991,
3.889560,-0.3694,-0.8248,-0.1507,2.1306,-0.1411,-1.3189,-0.4772,-0.1339,0.2456,
3.913109,-0.4222,-0.8678,-0.1744,2.1306,-0.1411,-1.3189,-0.4772,-0.1339,0.2456,
3.917103,-0.4165,-0.8524,-0.1823,2.1306,-0.1411,-1.3189,-0.4772,-0.1339,0.2456,
3.919105,-0.4070,-0.8277,-0.1781,2.1306,-0.1411,-1.3189,-0.4772,-0.1339,0.2456,
3.946106,-0.4070,-0.8277,-0.1781,1.8733,-0.2573,-1.4086,-0.4772,-0.1339,0.2456,
3.949690,-0.4070,-0.8277,-0.1781,1.8733,-0.2573,-1.4086,-0.5407,-0.1870,0.2584,
3.974285,-0.3875,-0.8148,-0.1666,1.8733,-0.2573,-1.4086,-0.5407,-0.1870,0.2584,
3.978334,-0.4713,-0.8976,-0.1752,1.8733,-0.2573,-1.4086,-0.5407,-0.1870,0.2584,
3.980613,-0.5211,-0.9308,-0.1918,1.8733,-0.2573,-1.4086,-0.5407,-0.1870,0.2584,
4.008048,-0.5211,-0.9308,-0.1918,1.8733,-0.2573,-1.4086,-0.4381,-0.1009,0.2175,
4.011017,-0.5211,-0.9308,-0.1918,0.8663,-1.3635,-1.3404,-0.4381,-0.1009,0.2175,
4.033275,-0.5346,-0.9118,-0.2025,0.8663,-1.3635,-1.3404,-0.4381,-0.1009,0.2175,
4.037040,-0.5380,-0.8803,-0.1818,0.8663,-1.3635,-1.3404,-0.4381,-0.1009,0.2175,
4.039727,-0.5788,-0.8932,-0.1590,0.8663,-1.3635,-1.3404,-0.4381,-0.1009,0.2175,
4.065463,-0.5788,-0.8932,-0.1590,0.3752,-1.0669,-0.8408,-0.4381,-0.1009,0.2175,
4.067866,-0.5788,-0.8932,-0.1590,0.3752,-1.0669,-0.8408,-0.3006,0.0433,0.0067,
4.093231,-0.6347,-0.9184,-0.1451,0.3752,-1.0669,-0.8408,-0.3006,0.0433,0.0067,
4.096039,-0.6658,-0.9018,-0.1253,0.3752,-1.0669,-0.8408,-0.3006,0.0433,0.0067,
4.097311,-0.6633,-0.8480,-0.0919,0.3752,-1.0669,-0.8408,-0.3006,0.0433,0.0067,
4.124874,-0.6633,-0.8480,-0.0919,0.3752,-1.0669,-0.8408,-0.0196,0.0671,-0.0788,
4.127647,-0.6633,-0.8480,-0.0919,-0.4908,-0.6052,-0.0758,-0.0196,0.0671,-0.0788,
4.154070,-0.6575,-0.7960,-0.0640,-0.4908,-0.6052,-0.0758,-0.0196,0.0671,-0.0788,
4.155883,-0.6736,-0.7576,-0.0523,-0.4908,-0.6052,-0.0758,-0.0196,0.0671,-0.0788,
4.157236,-0.6797,-0.7136,-0.1053,-0.4908,-0.6052,-0.0758,-0.0196,0.0671,-0.0788,
4.186568,-0.6797,-0.7136,-0.1053,-0.6940,0.7527,-0.2844,-0.0196,0.0671,-0.0788,
4.189107,-0.6797,-0.7136,-0.1053,-0.6940,0.7527,-0.2844,0.0885,-0.6531,-0.2248,
4.216908,-0.7053,-0.6953,-0.1888,-0.6940,0.7527,-0.2844,0.0885,-0.6531,-0.2248,
4.219307,-0.7549,-0.7097,-0.2336,-0.6940,0.7527,-0.2844,0.0885,-0.6531,-0.2248,
4.222857,-0.8062,-0.7327,-0.2184,-0.6940,0.7527,-0.2844,0.0885,-0.6531,-0.2248,
4.246141,-0.8062,-0.7327,-0.2184,-2.0273,0.6586,-1.6753,0.0885,-0.6531,-0.2248,
4.248053,-0.8062,-0.7327,-0.2184,-2.0273,0.6586,-1.6753,-0.4460,-0.8504,-0.2486,
4.273403,-0.8517,-0.7620,-0.1703,-2.0273,0.6586,-1.6753,-0.4460,-0.8504,-0.2486,
4.275680,-0.8778,-0.7742,-0.1397,-2.0273,0.6586,-1.6753,-0.4460,-0.8504,-0.2486,
4.276745,-0.8373,-0.7305,-0.1305,-2.0273,0.6586,-1.6753,-0.4460,-0.8504,-0.2486,
4.305009,-0.8373,-0.7305,-0.1305,-2.0273,0.6586,-1.6753,-0.3617,-0.2731,0.3109,
4.308704,-0.8373,-0.7305,-0.1305,-2.3138,0.6649,-0.7794,-0.3617,-0.2731,0.3109,
4.333054,-0.7134,-0.6550,-0.1029,-2.3138,0.6649,-0.7794,-0.3617,-0.2731,0.3109,
4.337277,-0.6252,-0.6709,-0.0801,-2.3138,0.6649,-0.7794,-0.3617,-0.2731,0.3109,
4.340144,-0.5935,-0.7244,-0.0865,-2.3138,0.6649,-0.7794,-0.3617,-0.2731,0.3109,
4.365159,-0.5935,-0.7244,-0.0865,0.2694,0.5719,-0.3040,-0.3617,-0.2731,0.3109,
4.367916,-0.5935,-0.7244,-0.0865,0.2694,0.5719,-0.3040,0.2614,0.3390,0.4765,
4.393233,-0.5778,-0.7823,-0.1080,0.2694,0.5719,-0.3040,0.2614,0.3390,0.4765,
4.394961,-0.5534,-0.8102,-0.1236,0.2694,0.5719,-0.3040,0.2614,0.3390,0.4765,
4.396332,-0.5302,-0.8131,-0.1307,0.2694,0.5719,-0.3040,0.2614,0.3390,0.4765,
4.424895,-0.5302,-0.8131,-0.1307,0.2694,0.5719,-0.3040,0.7220,0.8759,0.1368,
4.426800,-0.5302,-0.8131,-0.1307,1.0605,-0.4372,-0.7208,0.7220,0.8759,0.1368,
4.453435,-0.5216,-0.8126,-0.1380,1.0605,-0.4372,-0.7208,0.7220,0.8759,0.1368,
4.456434,-0.5461,-0.8009,-0.1334,1.0605,-0.4372,-0.7208,0.7220,0.8759,0.1368,
4.458480,-0.6113,-0.7650,-0.1180,1.0605,-0.4372,-0.7208,0.7220,0.8759,0.1368,
4.485153,-0.6113,-0.7650,-0.1180,1.0605,-0.4372,-0.7208,0.8570,0.5686,-0.5101,
4.487840,-0.6113,-0.7650,-0.1180,0.1586,0.1259,-0.6505,0.8570,0.5686,-0.5101,
4.513260,-0.6702,-0.7234,-0.1129,0.1586,0.1259,-0.6505,0.8570,0.5686,-0.5101,
4.515751,-0.7183,-0.6892,-0.1063,0.1586,0.1259,-0.6505,0.8570,0.5686,-0.5101,
4.517197,-0.7586,-0.6768,-0.0801,0.1586,0.1259,-0.6505,0.8570,0.5686,-0.5101,
4.545472,-0.7586,-0.6768,-0.0801,-1.5510,1.2081,-0.4910,0.8570,0.5686,-0.5101,
4.549119,-0.7586,-0.6768,-0.0801,-1.5510,1.2081,-0.4910,0.3273,0.5931,-0.3317,
4.574493,-0.8026,-0.6729,0.0205,-1.5510,1.2081,-0.4910,0.3273,0.5931,-0.3317,
4.577429,-0.7884,-0.6870,-0.0330,-1.5510,1.2081,-0.4910,0.3273,0.5931,-0.3317,
4.579377,-0.6990,-0.6926,-0.0982,-1.5510,1.2081,-0.4910,0.3273,0.5931,-0.3317,
4.605340,-0.6990,-0.6926,-0.0982,-1.5510,1.2081,-0.4910,-0.0832,-0.2218,0.0910,
4.607335,-0.6990,-0.6926,-0.0982,-0.9915,1.0675,-0.5884,-0.0832,-0.2218,0.0910,
4.632706,-0.6543,-0.7310,-0.0855,-0.9915,1.0675,-0.5884,-0.0832,-0.2218,0.0910,
4.635555,-0.6443,-0.7808,-0.0777,-0.9915,1.0675,-0.5884,-0.0832,-0.2218,0.0910,
4.637103,-0.6313,-0.8065,-0.0833,-0.9915,1.0675,-0.5884,-0.0832,-0.2218,0.0910,
4.665388,-0.6313,-0.8065,-0.0833,-0.3001,-0.0659,-0.5234,-0.0832,-0.2218,0.0910,
4.668798,-0.6313,-0.8065,-0.0833,-0.3001,-0.0659,-0.5234,-0.0160,-0.3251,-0.0837,
4.695692,-0.6179,-0.8067,-0.1090,-0.3001,-0.0659,-0.5234,-0.0160,-0.3251,-0.0837,
4.698730,-0.6118,-0.7894,-0.1434,-0.3001,-0.0659,-0.5234,-0.0160,-0.3251,-0.0837,
4.700576,-0.6154,-0.7672,-0.1656,-0.3001,-0.0659,-0.5234,-0.0160,-0.3251,-0.0837,
4.726200,-0.6154,-0.7672,-0.1656,-0.3001,-0.0659,-0.5234,-0.0557,-0.3385,-0.2663,
4.728832,-0.6154,-0.7672,-0.1656,-0.2249,0.3827,-1.4432,-0.0557,-0.3385,-0.2663,
4.752983,-0.6311,-0.7479,-0.1671,-0.2249,0.3827,-1.4432,-0.0557,-0.3385,-0.2663,
4.756240,-0.6655,-0.7425,-0.1586,-0.2249,0.3827,-1.4432,-0.0557,-0.3385,-0.2663,
4.758977,-0.7046,-0.7501,-0.1410,-0.2249,0.3827,-1.4432,-0.0557,-0.3385,-0.2663,
4.785109,-0.7046,-0.7501,-0.1410,-1.1997,0.6241,-1.2271,-0.0557,-0.3385,-0.2663,
4.787751,-0.7046,-0.7501,-0.1410,-1.1997,0.6241,-1.2271,-0.1503,-0.1247,-0.1081,
4.813166,-0.7188,-0.7454,-0.1131,-1.1997,0.6241,-1.2271,-0.1503,-0.1247,-0.1081,
4.815463,-0.7009,-0.7207,-0.1043,-1.1997,0.6241,-1.2271,-0.1503,-0.1247,-0.1081,
4.816612,-0.6880,-0.7129,-0.1158,-1.1997,0.6241,-1.2271,-0.1503,-0.1247,-0.1081,
4.846101,-0.6880,-0.7129,-0.1158,-1.1997,0.6241,-1.2271,-0.1143,-0.4436,0.2773,
4.848868,-0.6880,-0.7129,-0.1158,-1.0123,0.9704,-0.9843,-0.1143,-0.4436,0.2773,
4.874552,-0.6829,-0.7544,-0.1209,-1.0123,0.9704,-0.9843,-0.1143,-0.4436,0.2773,
4.879153,-0.6303,-0.7887,-0.0992,-1.0123,0.9704,-0.9843,-0.1143,-0.4436,0.2773,
4.880757,-0.5803,-0.8180,-0.0821,-1.0123,0.9704,-0.9843,-0.1143,-0.4436,0.2773,
4.906950,-0.5803,-0.8180,-0.0821,0.2498,-0.2112,-0.6840,-0.1143,-0.4436,0.2773,
4.910514,-0.5803,-0.8180,-0.0821,0.2498,-0.2112,-0.6840,0.0372,0.2211,0.4801,
4.936502,-0.5461,-0.8407,-0.0748,0.2498,-0.2112,-0.6840,0.0372,0.2211,0.4801,
4.939170,-0.5297,-0.8673,-0.0823,0.2498,-0.2112,-0.6840,0.0372,0.2211,0.4801,
4.941265,-0.5094,-0.8715,-0.0933,0.2498,-0.2112,-0.6840,0.0372,0.2211,0.4801,
4.965920,-0.5094,-0.8715,-0.0933,1.1453,-0.8932,-0.7685,0.0372,0.2211,0.4801,
4.968642,-0.5094,-0.8715,-0.0933,1.1453,-0.8932,-0.7685,0.5143,0.2876,0.2932,
4.995356,-0.4830,-0.8624,-0.0887,1.1453,-0.8932,-0.7685,0.5143,0.2876,0.2932,
4.998305,-0.4793,-0.8470,-0.0596,1.1453,-0.8932,-0.7685,0.5143,0.2876,0.2932,
5.000049,-0.5771,-0.8485,0.0078,1.1453,-0.8932,-0.7685,0.5143,0.2876,0.2932,
5.026787,-0.5771,-0.8485,0.0078,0.5433,-0.7170,-0.0315,0.5143,0.2876,0.2932,
5.029172,-0.5771,-0.8485,0.0078,0.5433,-0.7170,-0.0315,0.8588,0.2705,0.0874,
5.052185,-0.6201,-0.8246,-0.0173,0.5433,-0.7170,-0.0315,0.8588,0.2705,0.0874,
5.054588,-0.6428,-0.8136,-0.0933,0.5433,-0.7170,-0.0315,0.8588,0.2705,0.0874,
5.055790,-0.6470,-0.8045,-0.1002,0.5433,-0.7170,-0.0315,0.8588,0.2705,0.0874,
5.084745,-0.6470,-0.8045,-0.1002,0.5433,-0.7170,-0.0315,0.1997,-0.0208,0.3409,
5.087272,-0.6470,-0.8045,-0.1002,-0.0615,-0.3567,-1.2689,0.1997,-0.0208,0.3409,
5.114537,-0.6377,-0.8087,-0.0733,-0.0615,-0.3567,-1.2689,0.1997,-0.0208,0.3409,
5.116564,-0.6171,-0.8141,0.0002,-0.0615,-0.3567,-1.2689,0.1997,-0.0208,0.3409,
5.118085,-0.5859,-0.8226,0.0574,-0.0615,-0.3567,-1.2689,0.1997,-0.0208,0.3409,
5.145418,-0.5859,-0.8226,0.0574,-0.0615,-0.3567,-1.2689,0.6829,-0.2799,0.4575,
5.147676,-0.5859,-0.8226,0.0574,0.7165,-0.6995,0.0502,0.6829,-0.2799,0.4575,
5.172823,-0.5575,-0.8414,0.0638,0.7165,-0.6995,0.0502,0.6829,-0.2799,0.4575,
5.175052,-0.5676,-0.8910,0.0244,0.7165,-0.6995,0.0502,0.6829,-0.2799,0.4575,
5.176090,-0.5869,-0.9311,-0.0159,0.7165,-0.6995,0.0502,0.6829,-0.2799,0.4575,
5.204782,-0.5869,-0.9311,-0.0159,0.7165,-0.6995,0.0502,0.4281,0.3243,0.3024,
5.207197,-0.5869,-0.9311,-0.0159,0.8926,-1.9518,-0.9175,0.4281,0.3243,0.3024,
5.232581,-0.5680,-0.9198,-0.0291,0.8926,-1.9518,-0.9175,0.4281,0.3243,0.3024,
5.235242,-0.5480,-0.8509,-0.0117,0.8926,-1.9518,-0.9175,0.4281,0.3243,0.3024,
5.237255,-0.5407,-0.7723,-0.0066,0.8926,-1.9518,-0.9175,0.4281,0.3243,0.3024,
5.266800,-0.5407,-0.7723,-0.0066,0.8926,-1.9518,-0.9175,0.1649,0.0690,-0.1839,
5.269820,-0.5407,-0.7723,-0.0066,1.3892,-0.4412,-0.8676,0.1649,0.0690,-0.1839,
5.294326,-0.5891,-0.7371,-0.0056,1.3892,-0.4412,-0.8676,0.1649,0.0690,-0.1839,
5.298070,-0.6396,-0.7124,0.0164,1.3892,-0.4412,-0.8676,0.1649,0.0690,-0.1839,
5.299286,-0.6494,-0.6816,0.0083,1.3892,-0.4412,-0.8676,0.1649,0.0690,-0.1839,
5.324922,-0.6494,-0.6816,0.0083,0.2287,0.5348,-0.7255,0.1649,0.0690,-0.1839,
5.327916,-0.6494,-0.6816,0.0083,0.2287,0.5348,-0.7255,-0.2047,-0.0190,-0.2431,
5.352893,-0.6225,-0.6553,-0.0134,0.2287,0.5348,-0.7255,-0.2047,-0.0190,-0.2431,
5.355105,-0.6074,-0.6347,0.0674,0.2287,0.5348,-0.7255,-0.2047,-0.0190,-0.2431,
5.356833,-0.6196,-0.6636,0.1336,0.2287,0.5348,-0.7255,-0.2047,-0.0190,-0.2431,
5.387162,-0.6196,-0.6636,0.1336,0.2287,0.5348,-0.7255,0.4850,0.1105,-0.3152,
5.389807,-0.6196,-0.6636,0.1336,0.4220,0.8020,0.5127,0.4850,0.1105,-0.3152,
5.412911,-0.5287,-0.7388,0.0975,0.4220,0.8020,0.5127,0.4850,0.1105,-0.3152,
5.414789,-0.4522,-0.8290,0.0643,0.4220,0.8020,0.5127,0.4850,0.1105,-0.3152,
5.415903,-0.4300,-0.8778,0.0017,0.4220,0.8020,0.5127,0.4850,0.1105,-0.3152,
5.446320,-0.4300,-0.8778,0.0017,0.4220,0.8020,0.5127,0.0799,0.2864,-0.6610,
5.448561,-0.4300,-0.8778,0.0017,2.0932,-1.1449,-0.8626,0.0799,0.2864,-0.6610,
5.473831,-0.4253,-0.9079,-0.0486,2.0932,-1.1449,-0.8626,0.0799,0.2864,-0.6610,
5.476633,-0.4512,-0.9333,-0.0694,2.0932,-1.1449,-0.8626,0.0799,0.2864,-0.6610,
5.478937,-0.4544,-0.9325,-0.0606,2.0932,-1.1449,-0.8626,0.0799,0.2864,-0.6610,
5.505792,-0.4544,-0.9325,-0.0606,1.4993,-1.3850,-1.3771,0.0799,0.2864,-0.6610,
5.508756,-0.4544,-0.9325,-0.0606,1.4993,-1.3850,-1.3771,-0.3825,-0.2695,-0.8607,
5.532832,-0.4622,-0.9216,-0.0176,1.4993,-1.3850,-1.3771,-0.3825,-0.2695,-0.8607,
5.535809,-0.4835,-0.9169,0.0222,1.4993,-1.3850,-1.3771,-0.3825,-0.2695,-0.8607,
5.537100,-0.5001,-0.9013,0.0415,1.4993,-1.3850,-1.3771,-0.3825,-0.2695,-0.8607,
5.566103,-0.5001,-0.9013,0.0415,0.6132,-0.7511,-0.2657,-0.3825,-0.2695,-0.8607,
5.568657,-0.5001,-0.9013,0.0415,0.6132,-0.7511,-0.2657,-0.2389,0.0726,-0.8754,
5.594701,-0.5001,-0.8820,0.0601,0.6132,-0.7511,-0.2657,-0.2389,0.0726,-0.8754,
5.597927,-0.4964,-0.8624,0.0613,0.6132,-0.7511,-0.2657,-0.2389,0.0726,-0.8754,
5.599995,-0.5031,-0.8639,0.0464,0.6132,-0.7511,-0.2657,-0.2389,0.0726,-0.8754,
5.626604,-0.5031,-0.8639,0.0464,0.6132,-0.7511,-0.2657,-0.1045,0.3622,-0.6176,
5.629403,-0.5031,-0.8639,0.0464,0.1987,-0.1244,-0.0755,-0.1045,0.3622,-0.6176,
5.652501,-0.5170,-0.8681,0.0115,0.1987,-0.1244,-0.0755,-0.1045,0.3622,-0.6176,
5.655160,-0.5101,-0.8568,-0.0254,0.1987,-0.1244,-0.0755,-0.1045,0.3622,-0.6176,
5.656664,-0.5175,-0.8563,-0.0413,0.1987,-0.1244,-0.0755,-0.1045,0.3622,-0.6176,
5.685742,-0.5175,-0.8563,-0.0413,-0.1831,0.1019,-0.7649,-0.1045,0.3622,-0.6176,
5.689286,-0.5175,-0.8563,-0.0413,-0.1831,0.1019,-0.7649,-0.1681,0.2266,-0.2767,
5.712487,-0.5399,-0.8881,-0.0533,-0.1831,0.1019,-0.7649,-0.1681,0.2266,-0.2767,
5.715127,-0.5094,-0.8852,-0.0352,-0.1831,0.1019,-0.7649,-0.1681,0.2266,-0.2767,
5.716883,-0.4488,-0.8746,-0.0056,-0.1831,0.1019,-0.7649,-0.1681,0.2266,-0.2767,
5.747742,-0.4488,-0.8746,-0.0056,0.4050,-0.0244,-0.2683,-0.1681,0.2266,-0.2767,
5.751379,-0.4488,-0.8746,-0.0056,0.4050,-0.0244,-0.2683,-0.0172,0.4623,-0.1032,
5.772569,-0.4505,-0.8514,-0.0046,0.4050,-0.0244,-0.2683,-0.0172,0.4623,-0.1032,
5.775339,-0.4297,-0.7989,-0.0481,0.4050,-0.0244,-0.2683,-0.0172,0.4623,-0.1032,
5.776502,-0.4573,-0.7794,-0.1004,0.4050,-0.0244,-0.2683,-0.0172,0.4623,-0.1032,
5.805812,-0.4573,-0.7794,-0.1004,0.4050,-0.0244,-0.2683,-0.3916,0.5503,-0.0855,
5.808487,-0.4573,-0.7794,-0.1004,0.2604,0.9457,-0.9339,-0.3916,0.5503,-0.0855,
5.832902,-0.5309,-0.7908,-0.1307,0.2604,0.9457,-0.9339,-0.3916,0.5503,-0.0855,
5.834847,-0.5580,-0.7694,-0.1094,0.2604,0.9457,-0.9339,-0.3916,0.5503,-0.0855,
5.835765,-0.5448,-0.7334,-0.0777,0.2604,0.9457,-0.9339,-0.3916,0.5503,-0.0855,
5.866236,-0.5448,-0.7334,-0.0777,-0.6006,1.3871,-0.3286,-0.3916,0.5503,-0.0855,
5.869599,-0.5448,-0.7334,-0.0777,-0.6006,1.3871,-0.3286,-0.5358,0.3640,0.1032,
5.893476,-0.5583,-0.7547,-0.0501,-0.6006,1.3871,-0.3286,-0.5358,0.3640,0.1032,
5.896606,-0.5878,-0.8529,0.0061,-0.6006,1.3871,-0.3286,-0.5358,0.3640,0.1032,
5.898629,-0.5588,-0.9369,0.0701,-0.6006,1.3871,-0.3286,-0.5358,0.3640,0.1032,
5.925036,-0.5588,-0.9369,0.0701,-0.6006,1.3871,-0.3286,-0.2438,-0.0092,0.2156,
5.927587,-0.5588,-0.9369,0.0701,-0.6578,-0.6726,1.4259,-0.2438,-0.0092,0.2156,
5.952913,-0.4527,-0.9316,0.0291,-0.6578,-0.6726,1.4259,-0.2438,-0.0092,0.2156,
5.954956,-0.4380,-0.9174,-0.0489,-0.6578,-0.6726,1.4259,-0.2438,-0.0092,0.2156,
5.956197,-0.4986,-0.9284,-0.1026,-0.6578,-0.6726,1.4259,-0.2438,-0.0092,0.2156,
5.985546,-0.4986,-0.9284,-0.1026,-0.6578,-0.6726,1.4259,-0.3092,0.1074,0.1778,
5.989318,-0.4986,-0.9284,-0.1026,0.0436,-0.6637,-0.1561,-0.3092,0.1074,0.1778,
6.014601,-0.5483,-0.9277,-0.1361,0.0436,-0.6637,-0.1561,-0.3092,0.1074,0.1778,
6.017368,-0.5461,-0.8849,-0.1568,0.0436,-0.6637,-0.1561,-0.3092,0.1074,0.1778,
6.019416,-0.5260,-0.8143,-0.1590,0.0436,-0.6637,-0.1561,-0.3092,0.1074,0.1778,
6.045734,-0.5260,-0.8143,-0.1590,-0.1461,0.3962,-0.6007,-0.3092,0.1074,0.1778,
6.047659,-0.5260,-0.8143,-0.1590,-0.1461,0.3962,-0.6007,-0.1210,-0.2432,0.0941,
6.072988,-0.5165,-0.7603,-0.1510,-0.1461,0.3962,-0.6007,-0.1210,-0.2432,0.0941,
6.075406,-0.5678,-0.7901,-0.1590,-0.1461,0.3962,-0.6007,-0.1210,-0.2432,0.0941,
6.077546,-0.5900,-0.7979,-0.1735,-0.1461,0.3962,-0.6007,-0.1210,-0.2432,0.0941,
6.106180,-0.5900,-0.7979,-0.1735,-0.1461,0.3962,-0.6007,-0.1980,-0.0270,0.1857,
6.109009,-0.5900,-0.7979,-0.1735,-0.7065,0.5145,-0.7271,-0.1980,-0.0270,0.1857,
6.136221,-0.5570,-0.7764,-0.2030,-0.7065,0.5145,-0.7271,-0.1980,-0.0270,0.1857,
6.139215,-0.5456,-0.7943,-0.2248,-0.7065,0.5145,-0.7271,-0.1980,-0.0270,0.1857,
6.140759,-0.5480,-0.8346,-0.2162,-0.7065,0.5145,-0.7271,-0.1980,-0.0270,0.1857,
6.166577,-0.5480,-0.8346,-0.2162,-0.7065,0.5145,-0.7271,-0.2011,0.0665,0.2254,
6.169298,-0.5480,-0.8346,-0.2162,-0.1821,0.0714,-1.0308,-0.2011,0.0665,0.2254,
6.193915,-0.5483,-0.8808,-0.2140,-0.1821,0.0714,-1.0308,-0.2011,0.0665,0.2254,
6.196652,-0.5480,-0.9101,-0.2174,-0.1821,0.0714,-1.0308,-0.2011,0.0665,0.2254,
6.198690,-0.5302,-0.8954,-0.2155,-0.1821,0.0714,-1.0308,-0.2011,0.0665,0.2254,
6.226870,-0.5302,-0.8954,-0.2155,-0.1821,0.0714,-1.0308,-0.0196,0.0262,0.0788,
6.232875,-0.5302,-0.8954,-0.2155,0.0820,-0.5955,-0.9241,-0.0196,0.0262,0.0788,
6.259662,-0.5734,-0.9145,-0.2106,0.0820,-0.5955,-0.9241,-0.0196,0.0262,0.0788,
6.263106,-0.6553,-0.9628,-0.1964,0.0820,-0.5955,-0.9241,-0.0196,0.0262,0.0788,
6.266513,-0.6804,-0.9372,-0.1681,0.0820,-0.5955,-0.9241,-0.0196,0.0262,0.0788,
6.284975,-0.6804,-0.9372,-0.1681,0.0820,-0.5955,-0.9241,-0.0202,0.1007,0.0281,
6.286622,-0.6804,-0.9372,-0.1681,-1.3788,-1.0137,-0.4505,-0.0202,0.1007,0.0281,
6.313179,-0.6360,-0.8356,-0.1454,-1.3788,-1.0137,-0.4505,-0.0202,0.1007,0.0281,
6.314859,-0.6005,-0.7547,-0.1390,-1.3788,-1.0137,-0.4505,-0.0202,0.1007,0.0281,
6.316000,-0.6037,-0.7283,-0.1410,-1.3788,-1.0137,-0.4505,-0.0202,0.1007,0.0281,
6.346724,-0.6037,-0.7283,-0.1410,-0.5907,1.0089,-0.1794,-0.0202,0.1007,0.0281,
6.350211,-0.6037,-0.7283,-0.1410,-0.5907,1.0089,-0.1794,-0.0746,-0.3495,0.1637,
6.374091,-0.6162,-0.7158,-0.1393,-0.5907,1.0089,-0.1794,-0.0746,-0.3495,0.1637,
6.376795,-0.6189,-0.7185,-0.1341,-0.5907,1.0089,-0.1794,-0.0746,-0.3495,0.1637,
6.379338,-0.6291,-0.7508,-0.1424,-0.5907,1.0089,-0.1794,-0.0746,-0.3495,0.1637,
6.404743,-0.6291,-0.7508,-0.1424,-0.5907,1.0089,-0.1794,-0.0398,-0.2994,0.2932,
6.407603,-0.6291,-0.7508,-0.1424,-0.6959,0.7043,-0.2737,-0.0398,-0.2994,0.2932,
6.434924,-0.6306,-0.7970,-0.1632,-0.6959,0.7043,-0.2737,-0.0398,-0.2994,0.2932,
6.438123,-0.5959,-0.8175,-0.1798,-0.6959,0.7043,-0.2737,-0.0398,-0.2994,0.2932,
6.440090,-0.5524,-0.8189,-0.1893,-0.6959,0.7043,-0.2737,-0.0398,-0.2994,0.2932,
6.467925,-0.5524,-0.8189,-0.1893,-0.6959,0.7043,-0.2737,-0.0270,-0.0031,0.1570,
6.470758,-0.5524,-0.8189,-0.1893,0.1909,-0.0528,-0.7631,-0.0270,-0.0031,0.1570,
6.494434,-0.5204,-0.8160,-0.2052,0.1909,-0.0528,-0.7631,-0.0270,-0.0031,0.1570,
6.497247,-0.5180,-0.8148,-0.2206,0.1909,-0.0528,-0.7631,-0.0270,-0.0031,0.1570,
6.499079,-0.5299,-0.8102,-0.2235,0.1909,-0.0528,-0.7631,-0.0270,-0.0031,0.1570,
6.525371,-0.5299,-0.8102,-0.2235,0.4507,0.0068,-1.1077,-0.0270,-0.0031,0.1570,
6.527999,-0.5299,-0.8102,-0.2235,0.4507,0.0068,-1.1077,-0.0031,-0.0508,-0.0281,
6.553496,-0.5529,-0.7891,-0.2013,0.4507,0.0068,-1.1077,-0.0031,-0.0508,-0.0281,
6.556521,-0.5920,-0.7808,-0.1764,0.4507,0.0068,-1.1077,-0.0031,-0.0508,-0.0281,
6.558252,-0.6081,-0.7681,-0.1532,0.4507,0.0068,-1.1077,-0.0031,-0.0508,-0.0281,
6.585823,-0.6081,-0.7681,-0.1532,0.4507,0.0068,-1.1077,-0.0086,0.0763,0.0049,
6.588211,-0.6081,-0.7681,-0.1532,-0.3293,0.4257,-0.3991,-0.0086,0.0763,0.0049,
6.613853,-0.6125,-0.7608,-0.1417,-0.3293,0.4257,-0.3991,-0.0086,0.0763,0.0049,
6.616224,-0.6084,-0.7650,-0.1329,-0.3293,0.4257,-0.3991,-0.0086,0.0763,0.0049,
6.618518,-0.5969,-0.7769,-0.1278,-0.3293,0.4257,-0.3991,-0.0086,0.0763,0.0049,
6.646221,-0.5969,-0.7769,-0.1278,-0.3293,0.4257,-0.3991,0.1416,0.1276,-0.0055,
6.649083,-0.5969,-0.7769,-0.1278,-0.2143,0.3348,-0.1410,0.1416,0.1276,-0.0055,
6.673013,-0.5825,-0.7786,-0.1363,-0.2143,0.3348,-0.1410,0.1416,0.1276,-0.0055,
6.675839,-0.5788,-0.7757,-0.1576,-0.2143,0.3348,-0.1410,0.1416,0.1276,-0.0055,
6.677618,-0.5944,-0.7689,-0.1788,-0.2143,0.3348,-0.1410,0.1416,0.1276,-0.0055,
6.705516,-0.5944,-0.7689,-0.1788,-0.2143,0.3348,-0.1410,0.1478,-0.0373,-0.1381,
6.708271,-0.5944,-0.7689,-0.1788,-0.2221,0.4453,-0.7084,0.1478,-0.0373,-0.1381,
6.735353,-0.6130,-0.7535,-0.1771,-0.2221,0.4453,-0.7084,0.1478,-0.0373,-0.1381,
6.738616,-0.6342,-0.7410,-0.1757,-0.2221,0.4453,-0.7084,0.1478,-0.0373,-0.1381,
6.740534,-0.6494,-0.7317,-0.1759,-0.2221,0.4453,-0.7084,0.1478,-0.0373,-0.1381,
6.765971,-0.6494,-0.7317,-0.1759,-0.2221,0.4453,-0.7084,-0.0141,-0.1155,-0.1319,
6.769397,-0.6494,-0.7317,-0.1759,-0.8215,0.8584,-0.7342,-0.0141,-0.1155,-0.1319,
6.793860,-0.6550,-0.7227,-0.1722,-0.8215,0.8584,-0.7342,-0.0141,-0.1155,-0.1319,
6.797287,-0.6589,-0.7334,-0.1654,-0.8215,0.8584,-0.7342,-0.0141,-0.1155,-0.1319,
6.799340,-0.6645,-0.7437,-0.1600,-0.8215,0.8584,-0.7342,-0.0141,-0.1155,-0.1319,
6.824309,-0.6645,-0.7437,-0.1600,-0.8215,0.8584,-0.7342,-0.1003,-0.1791,-0.0910,
6.827071,-0.6645,-0.7437,-0.1600,-1.0081,0.7694,-0.5959,-0.1003,-0.1791,-0.0910,
6.854117,-0.6492,-0.7437,-0.1524,-1.0081,0.7694,-0.5959,-0.1003,-0.1791,-0.0910,
6.856629,-0.6501,-0.7584,-0.1471,-1.0081,0.7694,-0.5959,-0.1003,-0.1791,-0.0910,
6.858232,-0.6450,-0.7579,-0.1341,-1.0081,0.7694,-0.5959,-0.1003,-0.1791,-0.0910,
6.886143,-0.6450,-0.7579,-0.1341,-0.8466,0.6497,-0.3316,-0.1003,-0.1791,-0.0910,
6.888718,-0.6450,-0.7579,-0.1341,-0.8466,0.6497,-0.3316,-0.1302,-0.1015,-0.1130,
6.912671,-0.6289,-0.7410,-0.1241,-0.8466,0.6497,-0.3316,-0.1302,-0.1015,-0.1130,
6.915580,-0.6294,-0.7315,-0.1248,-0.8466,0.6497,-0.3316,-0.1302,-0.1015,-0.1130,
6.917948,-0.6306,-0.7322,-0.1256,-0.8466,0.6497,-0.3316,-0.1302,-0.1015,-0.1130,
6.945094,-0.6306,-0.7322,-0.1256,-0.7430,0.9286,-0.2653,-0.1302,-0.1015,-0.1130,
6.948813,-0.6306,-0.7322,-0.1256,-0.7430,0.9286,-0.2653,-0.0630,-0.3733,-0.1307,
6.972795,-0.6362,-0.7476,-0.1222,-0.7430,0.9286,-0.2653,-0.0630,-0.3733,-0.1307,
6.975588,-0.6477,-0.7715,-0.1231,-0.7430,0.9286,-0.2653,-0.0630,-0.3733,-0.1307,
6.977183,-0.6797,-0.8133,-0.1295,-0.7430,0.9286,-0.2653,-0.0630,-0.3733,-0.1307,
7.005069,-0.6797,-0.8133,-0.1295,-0.7430,0.9286,-0.2653,0.0121,-0.3690,-0.0935,
7.007847,-0.6797,-0.8133,-0.1295,-1.2615,0.1700,-0.4051,0.0121,-0.3690,-0.0935,
7.036784,-0.6968,-0.8517,-0.1424,-1.2615,0.1700,-0.4051,0.0121,-0.3690,-0.0935,
7.039706,-0.6912,-0.8764,-0.1515,-1.2615,0.1700,-0.4051,0.0121,-0.3690,-0.0935,
7.041236,-0.6765,-0.8847,-0.1598,-1.2615,0.1700,-0.4051,0.0121,-0.3690,-0.0935,
7.066741,-0.6765,-0.8847,-0.1598,-1.2615,0.1700,-0.4051,0.1178,-0.3263,-0.1246,
7.070133,-0.6765,-0.8847,-0.1598,-1.2540,-0.4998,-0.8427,0.1178,-0.3263,-0.1246,
7.093191,-0.6677,-0.8888,-0.1583,-1.2540,-0.4998,-0.8427,0.1178,-0.3263,-0.1246,
7.096658,-0.6540,-0.8651,-0.1439,-1.2540,-0.4998,-0.8427,0.1178,-0.3263,-0.1246,
7.099658,-0.6357,-0.8182,-0.1241,-1.2540,-0.4998,-0.8427,0.1178,-0.3263,-0.1246,
7.125802,-0.6357,-0.8182,-0.1241,-0.9135,0.2035,-0.6663,0.1178,-0.3263,-0.1246,
7.127527,-0.6357,-0.8182,-0.1241,-0.9135,0.2035,-0.6663,0.2449,-0.3116,-0.1906,
7.153110,-0.6306,-0.7816,-0.1070,-0.9135,0.2035,-0.6663,0.2449,-0.3116,-0.1906,
7.154931,-0.6423,-0.7730,-0.0965,-0.9135,0.2035,-0.6663,0.2449,-0.3116,-0.1906,
7.155984,-0.6594,-0.7720,-0.0801,-0.9135,0.2035,-0.6663,0.2449,-0.3116,-0.1906,
7.185420,-0.6594,-0.7720,-0.0801,-0.9135,0.2035,-0.6663,0.2657,-0.4527,0.0312,
7.188904,-0.6594,-0.7720,-0.0801,-1.1970,0.7022,-0.4941,0.2657,-0.4527,0.0312,
7.212904,-0.6758,-0.7728,-0.0603,-1.1970,0.7022,-0.4941,0.2657,-0.4527,0.0312,
7.216157,-0.6821,-0.7777,-0.0369,-1.1970,0.7022,-0.4941,0.2657,-0.4527,0.0312,
7.218173,-0.6853,-0.7945,-0.0149,-1.1970,0.7022,-0.4941,0.2657,-0.4527,0.0312,
7.245018,-0.6853,-0.7945,-0.0149,-1.1970,0.7022,-0.4941,0.3787,-0.1277,0.5455,
7.248205,-0.6853,-0.7945,-0.0149,-1.3207,0.4027,-0.1005,0.3787,-0.1277,0.5455,
7.272955,-0.6753,-0.8209,0.0125,-1.3207,0.4027,-0.1005,0.3787,-0.1277,0.5455,
7.276159,-0.6445,-0.8402,0.0723,-1.3207,0.4027,-0.1005,0.3787,-0.1277,0.5455,
7.277930,-0.5883,-0.8637,0.4703,-1.3207,0.4027,-0.1005,0.3787,-0.1277,0.5455,
7.306645,-0.5883,-0.8637,0.4703,-1.3207,0.4027,-0.1005,2.7048,0.5845,1.2462,
7.309749,-0.5883,-0.8637,0.4703,0.0247,-0.5630,4.1401,2.7048,0.5845,1.2462,
7.333996,-0.5448,-0.9074,0.3261,0.0247,-0.5630,4.1401,2.7048,0.5845,1.2462,
7.336533,-0.5314,-0.9501,0.1366,0.0247,-0.5630,4.1401,2.7048,0.5845,1.2462,
7.338812,-0.4913,-0.9428,0.0100,0.0247,-0.5630,4.1401,2.7048,0.5845,1.2462,
7.365341,-0.4913,-0.9428,0.0100,0.0247,-0.5630,4.1401,1.1917,0.0732,1.4239,
7.368424,-0.4913,-0.9428,0.0100,1.6784,-1.9562,-0.8828,1.1917,0.0732,1.4239,
7.398537,-0.5219,-0.9299,-0.0432,1.6784,-1.9562,-0.8828,1.1917,0.0732,1.4239,
7.401985,-0.5255,-0.9198,-0.1226,1.6784,-1.9562,-0.8828,1.1917,0.0732,1.4239,
7.404303,-0.4986,-0.8895,-0.1082,1.6784,-1.9562,-0.8828,1.1917,0.0732,1.4239,
7.426044,-0.4986,-0.8895,-0.1082,1.6784,-1.9562,-0.8828,0.0787,-0.6904,0.8607,
7.428737,-0.4986,-0.8895,-0.1082,2.0650,-1.9535,-2.5074,0.0787,-0.6904,0.8607,
7.454987,-0.4581,-0.8478,-0.0359,2.0650,-1.9535,-2.5074,0.0787,-0.6904,0.8607,
7.457771,-0.4810,-0.8385,0.0450,2.0650,-1.9535,-2.5074,0.0787,-0.6904,0.8607,
7.459865,-0.5219,-0.8451,0.0711,2.0650,-1.9535,-2.5074,0.0787,-0.6904,0.8607,
7.485203,-0.5219,-0.8451,0.0711,2.0650,-1.9535,-2.5074,0.1612,0.3225,0.4349,
7.488267,-0.5219,-0.8451,0.0711,2.0517,-1.7833,-0.9120,0.1612,0.3225,0.4349,
7.513344,-0.5756,-0.8297,0.0706,2.0517,-1.7833,-0.9120,0.1612,0.3225,0.4349,
7.517017,-0.5805,-0.7723,0.0572,2.0517,-1.7833,-0.9120,0.1612,0.3225,0.4349,
7.518671,-0.5925,-0.6997,0.0809,2.0517,-1.7833,-0.9120,0.1612,0.3225,0.4349,
7.544560,-0.5925,-0.6997,0.0809,2.0517,-1.7833,-0.9120,-0.1015,0.4514,0.2395,
7.547589,-0.5925,-0.6997,0.0809,1.5314,-0.5075,-0.6248,-0.1015,0.4514,0.2395,
7.573004,-0.6208,-0.6755,0.0945,1.5314,-0.5075,-0.6248,-0.1015,0.4514,0.2395,
7.575888,-0.6416,-0.6589,0.0716,1.5314,-0.5075,-0.6248,-0.1015,0.4514,0.2395,
7.577261,-0.6308,-0.6589,0.0650,1.5314,-0.5075,-0.6248,-0.1015,0.4514,0.2395,
7.606764,-0.6308,-0.6589,0.0650,1.2114,-0.1392,-0.6219,-0.1015,0.4514,0.2395,
7.610172,-0.6308,-0.6589,0.0650,1.2114,-0.1392,-0.6219,-0.5413,-0.4918,-0.0531,
7.634002,-0.5776,-0.6763,0.0542,1.2114,-0.1392,-0.6219,-0.5413,-0.4918,-0.0531,
7.637202,-0.4832,-0.7457,0.0435,1.2114,-0.1392,-0.6219,-0.5413,-0.4918,-0.0531,
7.639344,-0.4547,-0.7628,0.0406,1.2114,-0.1392,-0.6219,-0.5413,-0.4918,-0.0531,
7.665978,-0.4547,-0.7628,0.0406,1.2114,-0.1392,-0.6219,-0.7191,-0.2591,-0.4698,
7.669177,-0.4547,-0.7628,0.0406,2.8087,-1.0001,-0.8175,-0.7191,-0.2591,-0.4698,
7.694761,-0.4798,-0.7369,0.0401,2.8087,-1.0001,-0.8175,-0.7191,-0.2591,-0.4698,
7.698047,-0.5690,-0.7129,0.0640,2.8087,-1.0001,-0.8175,-0.7191,-0.2591,-0.4698,
7.699960,-0.6699,-0.7071,0.0691,2.8087,-1.0001,-0.8175,-0.7191,-0.2591,-0.4698,
7.724811,-0.6699,-0.7071,0.0691,0.4970,-0.2010,-0.3359,-0.7191,-0.2591,-0.4698,
7.727727,-0.6699,-0.7071,0.0691,0.4970,-0.2010,-0.3359,-0.3593,0.1948,-0.4527,
7.756880,-0.7317,-0.6799,0.0919,0.4970,-0.2010,-0.3359,-0.3593,0.1948,-0.4527,
7.759905,-0.7904,-0.6584,0.1485,0.4970,-0.2010,-0.3359,-0.3593,0.1948,-0.4527,
7.761742,-0.8241,-0.6592,0.1309,0.4970,-0.2010,-0.3359,-0.3593,0.1948,-0.4527,
7.786218,-0.8241,-0.6592,0.1309,0.4970,-0.2010,-0.3359,-0.3067,-0.0978,-0.2169,
7.789550,-0.8241,-0.6592,0.1309,-1.1588,0.4444,0.4750,-0.3067,-0.0978,-0.2169,
7.816373,-0.8045,-0.6648,0.0919,-1.1588,0.4444,0.4750,-0.3067,-0.0978,-0.2169,
7.818978,-0.6557,-0.6951,0.0740,-1.1588,0.4444,0.4750,-0.3067,-0.0978,-0.2169,
7.821234,-0.5644,-0.7566,0.0909,-1.1588,0.4444,0.4750,-0.3067,-0.0978,-0.2169,
7.844983,-0.5644,-0.7566,0.0909,1.2903,-0.4100,0.1369,-0.3067,-0.0978,-0.2169,
7.847662,-0.5644,-0.7566,0.0909,1.2903,-0.4100,0.1369,-0.4759,-0.4234,-0.2841,
7.872689,-0.5297,-0.8050,0.0750,1.2903,-0.4100,0.1369,-0.4759,-0.4234,-0.2841,
7.874359,-0.5483,-0.8507,0.0682,1.2903,-0.4100,0.1369,-0.4759,-0.4234,-0.2841,
7.875237,-0.5881,-0.8910,0.0787,1.2903,-0.4100,0.1369,-0.4759,-0.4234,-0.2841,
7.905192,-0.5881,-0.8910,0.0787,1.2903,-0.4100,0.1369,-0.0612,0.4678,-0.5217,
7.908080,-0.5881,-0.8910,0.0787,0.8734,-1.5424,0.1096,-0.0612,0.4678,-0.5217,
7.934408,-0.6113,-0.9040,0.0889,0.8734,-1.5424,0.1096,-0.0612,0.4678,-0.5217,
7.937143,-0.6118,-0.8825,0.0833,0.8734,-1.5424,0.1096,-0.0612,0.4678,-0.5217,
7.938987,-0.6040,-0.8255,0.0733,0.8734,-1.5424,0.1096,-0.0612,0.4678,-0.5217,
7.965471,-0.6040,-0.8255,0.0733,0.4889,-0.6816,0.2460,-0.0612,0.4678,-0.5217,
7.968295,-0.6040,-0.8255,0.0733,0.4889,-0.6816,0.2460,0.2003,0.6432,-0.6066,
7.993309,-0.6758,-0.7667,0.0713,0.4889,-0.6816,0.2460,0.2003,0.6432,-0.6066,
7.995919,-0.7359,-0.6948,0.0606,0.4889,-0.6816,0.2460,0.2003,0.6432,-0.6066,
7.997104,-0.7811,-0.6601,0.0093,0.4889,-0.6816,0.2460,0.2003,0.6432,-0.6066,
8.024629,-0.7811,-0.6601,0.0093,0.4889,-0.6816,0.2460,-0.4985,-0.0331,-0.2761,
8.026945,-0.7811,-0.6601,0.0093,-1.4643,1.1318,-0.1772,-0.4985,-0.0331,-0.2761,
8.052931,-0.7955,-0.6355,-0.0630,-1.4643,1.1318,-0.1772,-0.4985,-0.0331,-0.2761,
8.054673,-0.7801,-0.6372,-0.0491,-1.4643,1.1318,-0.1772,-0.4985,-0.0331,-0.2761,
8.056155,-0.7229,-0.7044,-0.0088,-1.4643,1.1318,-0.1772,-0.4985,-0.0331,-0.2761,
8.086241,-0.7229,-0.7044,-0.0088,-1.4643,1.1318,-0.1772,-0.8101,-0.8192,0.1051,
8.089086,-0.7229,-0.7044,-0.0088,-0.9286,0.7301,-0.1894,-0.8101,-0.8192,0.1051,
8.113221,-0.6614,-0.7747,0.0088,-0.9286,0.7301,-0.1894,-0.8101,-0.8192,0.1051,
8.116147,-0.6242,-0.8016,0.0200,-0.9286,0.7301,-0.1894,-0.8101,-0.8192,0.1051,
8.118058,-0.6052,-0.8165,0.0374,-0.9286,0.7301,-0.1894,-0.8101,-0.8192,0.1051,
8.145854,-0.6052,-0.8165,0.0374,-0.9286,0.7301,-0.1894,-0.3751,-0.0123,0.1411,
8.151458,-0.6052,-0.8165,0.0374,0.2821,-0.4142,0.3560,-0.3751,-0.0123,0.1411,
8.172737,-0.5825,-0.8236,0.0557,0.2821,-0.4142,0.3560,-0.3751,-0.0123,0.1411,
8.174879,-0.5619,-0.8270,0.0708,0.2821,-0.4142,0.3560,-0.3751,-0.0123,0.1411,
8.175830,-0.5461,-0.8299,0.0501,0.2821,-0.4142,0.3560,-0.3751,-0.0123,0.1411,
8.205034,-0.5461,-0.8299,0.0501,0.9047,-0.5827,0.6288,-0.3751,-0.0123,0.1411,
8.208193,-0.5461,-0.8299,0.0501,0.9047,-0.5827,0.6288,0.1117,0.3567,-0.0147,
8.232866,-0.5505,-0.8251,0.0017,0.9047,-0.5827,0.6288,0.1117,0.3567,-0.0147,
8.235911,-0.5793,-0.8226,-0.0469,0.9047,-0.5827,0.6288,0.1117,0.3567,-0.0147,
8.237859,-0.5842,-0.8160,-0.0858,0.9047,-0.5827,0.6288,0.1117,0.3567,-0.0147,
8.267586,-0.5842,-0.8160,-0.0858,0.9047,-0.5827,0.6288,-0.1956,-0.3367,-0.0641,
8.270614,-0.5842,-0.8160,-0.0858,0.5112,-0.4308,-0.6485,-0.1956,-0.3367,-0.0641,
8.293198,-0.5688,-0.8001,-0.1141,0.5112,-0.4308,-0.6485,-0.1956,-0.3367,-0.0641,
8.296993,-0.5832,-0.7974,-0.1324,0.5112,-0.4308,-0.6485,-0.1956,-0.3367,-0.0641,
8.298970,-0.6054,-0.7867,-0.1456,0.5112,-0.4308,-0.6485,-0.1956,-0.3367,-0.0641,
8.325089,-0.6054,-0.7867,-0.1456,0.5112,-0.4308,-0.6485,-0.5291,-0.8651,-0.1558,
8.327725,-0.6054,-0.7867,-0.1456,0.2548,-0.1025,-1.3206,-0.5291,-0.8651,-0.1558,
8.353489,-0.6074,-0.7554,-0.1502,0.2548,-0.1025,-1.3206,-0.5291,-0.8651,-0.1558,
8.356248,-0.6152,-0.7386,-0.1371,0.2548,-0.1025,-1.3206,-0.5291,-0.8651,-0.1558,
8.358098,-0.6379,-0.7430,-0.1246,0.2548,-0.1025,-1.3206,-0.5291,-0.8651,-0.1558,
8.384925,-0.6379,-0.7430,-0.1246,-0.1380,0.3856,-1.0892,-0.5291,-0.8651,-0.1558,
8.387655,-0.6379,-0.7430,-0.1246,-0.1380,0.3856,-1.0892,-0.5309,-0.3251,-0.2199,
8.413134,-0.6631,-0.7584,-0.1055,-0.1380,0.3856,-1.0892,-0.5309,-0.3251,-0.2199,
8.415941,-0.6792,-0.7518,-0.0941,-0.1380,0.3856,-1.0892,-0.5309,-0.3251,-0.2199,
8.417488,-0.6868,-0.7344,-0.1041,-0.1380,0.3856,-1.0892,-0.5309,-0.3251,-0.2199,
8.444863,-0.6868,-0.7344,-0.1041,-0.7010,0.5335,-0.7928,-0.5309,-0.3251,-0.2199,
8.447565,-0.6868,-0.7344,-0.1041,-0.7010,0.5335,-0.7928,-0.1027,-0.0386,-0.0935,
8.472625,-0.6951,-0.7256,-0.1134,-0.7010,0.5335,-0.7928,-0.1027,-0.0386,-0.0935,
8.475390,-0.6936,-0.7244,-0.1151,-0.7010,0.5335,-0.7928,-0.1027,-0.0386,-0.0935,
8.476896,-0.6875,-0.7513,-0.1239,-0.7010,0.5335,-0.7928,-0.1027,-0.0386,-0.0935,
8.507471,-0.6875,-0.7513,-0.1239,-0.7010,0.5335,-0.7928,-0.1540,0.3383,0.1698,
8.510743,-0.6875,-0.7513,-0.1239,-0.6867,0.3481,-0.8916,-0.1540,0.3383,0.1698,
8.532678,-0.6555,-0.7759,-0.1214,-0.6867,0.3481,-0.8916,-0.1540,0.3383,0.1698,
8.535376,-0.6157,-0.7835,-0.0960,-0.6867,0.3481,-0.8916,-0.1540,0.3383,0.1698,
8.537578,-0.5871,-0.7928,-0.0787,-0.6867,0.3481,-0.8916,-0.1540,0.3383,0.1698,
8.566473,-0.5871,-0.7928,-0.0787,0.3547,-0.1187,-0.2010,-0.1540,0.3383,0.1698,
8.569496,-0.5871,-0.7928,-0.0787,0.3547,-0.1187,-0.2010,-0.1174,0.4416,0.0110,
8.594004,-0.5698,-0.7962,-0.0784,0.3547,-0.1187,-0.2010,-0.1174,0.4416,0.0110,
8.597037,-0.5678,-0.7948,-0.0782,0.3547,-0.1187,-0.2010,-0.1174,0.4416,0.0110,
8.599041,-0.5978,-0.7974,-0.0809,0.3547,-0.1187,-0.2010,-0.1174,0.4416,0.0110,
8.625561,-0.5978,-0.7974,-0.0809,0.3547,-0.1187,-0.2010,-0.1125,0.1807,-0.2834,
8.628837,-0.5978,-0.7974,-0.0809,0.1698,-0.1142,-0.0695,-0.1125,0.1807,-0.2834,
8.652756,-0.6223,-0.7772,-0.0821,0.1698,-0.1142,-0.0695,-0.1125,0.1807,-0.2834,
8.654696,-0.6416,-0.7630,-0.0928,0.1698,-0.1142,-0.0695,-0.1125,0.1807,-0.2834,
8.655866,-0.6504,-0.7518,-0.1036,0.1698,-0.1142,-0.0695,-0.1125,0.1807,-0.2834,
8.685387,-0.6504,-0.7518,-0.1036,-0.4811,0.4251,-0.1626,-0.1125,0.1807,-0.2834,
8.687979,-0.6504,-0.7518,-0.1036,-0.4811,0.4251,-0.1626,-0.2432,-0.0153,-0.2786,
8.712390,-0.6487,-0.7386,-0.1055,-0.4811,0.4251,-0.1626,-0.2432,-0.0153,-0.2786,
8.714691,-0.6509,-0.7420,-0.1011,-0.4811,0.4251,-0.1626,-0.2432,-0.0153,-0.2786,
8.716243,-0.6252,-0.7300,-0.0999,-0.4811,0.4251,-0.1626,-0.2432,-0.0153,-0.2786,
8.745134,-0.6252,-0.7300,-0.0999,-0.4811,0.4251,-0.1626,-0.0807,-0.0441,-0.2107,
8.747318,-0.6252,-0.7300,-0.0999,-0.3492,0.7157,-0.0568,-0.0807,-0.0441,-0.2107,
8.775675,-0.6047,-0.7342,-0.1197,-0.3492,0.7157,-0.0568,-0.0807,-0.0441,-0.2107,
8.778675,-0.6240,-0.7772,-0.1437,-0.3492,0.7157,-0.0568,-0.0807,-0.0441,-0.2107,
8.780415,-0.6245,-0.8053,-0.1705,-0.3492,0.7157,-0.0568,-0.0807,-0.0441,-0.2107,
8.804953,-0.6245,-0.8053,-0.1705,-0.4245,0.0371,-0.7389,-0.0807,-0.0441,-0.2107,
8.808323,-0.6245,-0.8053,-0.1705,-0.4245,0.0371,-0.7389,-0.0789,-0.0526,-0.1826,
8.832919,-0.6042,-0.8045,-0.1842,-0.4245,0.0371,-0.7389,-0.0789,-0.0526,-0.1826,
8.836052,-0.5754,-0.7921,-0.1964,-0.4245,0.0371,-0.7389,-0.0789,-0.0526,-0.1826,
8.838081,-0.5800,-0.8053,-0.2062,-0.4245,0.0371,-0.7389,-0.0789,-0.0526,-0.1826,
8.865746,-0.5800,-0.8053,-0.2062,-0.0876,0.1012,-1.0383,-0.0789,-0.0526,-0.1826,
8.868994,-0.5800,-0.8053,-0.2062,-0.0876,0.1012,-1.0383,-0.1039,0.0836,-0.2022,
8.893596,-0.5678,-0.8087,-0.2011,-0.0876,0.1012,-1.0383,-0.1039,0.0836,-0.2022,
8.896312,-0.5544,-0.8131,-0.1998,-0.0876,0.1012,-1.0383,-0.1039,0.0836,-0.2022,
8.898523,-0.5754,-0.8419,-0.2040,-0.0876,0.1012,-1.0383,-0.1039,0.0836,-0.2022,
8.927092,-0.5754,-0.8419,-0.2040,-0.1597,-0.1854,-0.9497,-0.1039,0.0836,-0.2022,
8.930790,-0.5754,-0.8419,-0.2040,-0.1597,-0.1854,-0.9497,0.0586,0.1160,-0.2480,
8.953824,-0.5825,-0.8468,-0.2011,-0.1597,-0.1854,-0.9497,0.0586,0.1160,-0.2480,
8.957023,-0.5837,-0.8402,-0.1923,-0.1597,-0.1854,-0.9497,0.0586,0.1160,-0.2480,
8.959090,-0.5991,-0.8505,-0.1820,-0.1597,-0.1854,-0.9497,0.0586,0.1160,-0.2480,
8.985878,-0.5991,-0.8505,-0.1820,-0.1597,-0.1854,-0.9497,0.2284,0.3115,-0.2755,
8.989194,-0.5991,-0.8505,-0.1820,-0.5276,-0.1771,-0.7465,0.2284,0.3115,-0.2755,
9.012458,-0.6003,-0.8568,-0.1766,-0.5276,-0.1771,-0.7465,0.2284,0.3115,-0.2755,
9.015380,-0.5971,-0.8595,-0.1818,-0.5276,-0.1771,-0.7465,0.2284,0.3115,-0.2755,
9.017243,-0.5908,-0.8580,-0.1835,-0.5276,-0.1771,-0.7465,0.2284,0.3115,-0.2755,
9.046167,-0.5908,-0.8580,-0.1835,-0.5276,-0.1771,-0.7465,0.1899,0.2608,-0.1662,
9.048539,-0.5908,-0.8580,-0.1835,-0.5869,-0.1617,-0.7538,0.1899,0.2608,-0.1662,
9.072788,-0.5959,-0.8717,-0.1928,-0.5869,-0.1617,-0.7538,0.1899,0.2608,-0.1662,
9.075693,-0.6406,-0.9233,-0.1893,-0.5869,-0.1617,-0.7538,0.1899,0.2608,-0.1662,
9.077936,-0.6215,-0.9247,-0.1581,-0.5869,-0.1617,-0.7538,0.1899,0.2608,-0.1662,
9.104989,-0.6215,-0.9247,-0.1581,-0.9259,-0.7882,-0.5346,0.1899,0.2608,-0.1662,
9.107996,-0.6215,-0.9247,-0.1581,-0.9259,-0.7882,-0.5346,0.1514,0.3121,0.0183,
9.133507,-0.5568,-0.8842,-0.1322,-0.9259,-0.7882,-0.5346,0.1514,0.3121,0.0183,
9.136619,-0.5167,-0.8593,-0.1175,-0.9259,-0.7882,-0.5346,0.1514,0.3121,0.0183,
9.138449,-0.4969,-0.8434,-0.1200,-0.9259,-0.7882,-0.5346,0.1514,0.3121,0.0183,
9.165614,-0.4969,-0.8434,-0.1200,-0.9259,-0.7882,-0.5346,0.3664,0.2186,-0.0501,
9.168534,-0.4969,-0.8434,-0.1200,0.2706,0.0239,-0.1566,0.3664,0.2186,-0.0501,
9.193013,-0.4852,-0.8297,-0.1224,0.2706,0.0239,-0.1566,0.3664,0.2186,-0.0501,
9.195811,-0.4974,-0.8397,-0.1190,0.2706,0.0239,-0.1566,0.3664,0.2186,-0.0501,
9.197790,-0.5111,-0.8529,-0.1099,0.2706,0.0239,-0.1566,0.3664,0.2186,-0.0501,
9.227559,-0.5111,-0.8529,-0.1099,0.1039,-0.0335,-0.2268,0.3664,0.2186,-0.0501,
9.231173,-0.5111,-0.8529,-0.1099,0.1039,-0.0335,-0.2268,0.4733,0.1807,-0.0031,
9.252934,-0.5072,-0.8461,-0.1021,0.1039,-0.0335,-0.2268,0.4733,0.1807,-0.0031,
9.255318,-0.4996,-0.8334,-0.0987,0.1039,-0.0335,-0.2268,0.4733,0.1807,-0.0031,
9.256831,-0.5011,-0.8343,-0.1004,0.1039,-0.0335,-0.2268,0.4733,0.1807,-0.0031,
9.285413,-0.5011,-0.8343,-0.1004,0.1936,0.1700,-0.3128,0.4733,0.1807,-0.0031,
9.288402,-0.5011,-0.8343,-0.1004,0.1936,0.1700,-0.3128,0.4544,0.0738,-0.0073,
9.313017,-0.5104,-0.8400,-0.1026,0.1936,0.1700,-0.3128,0.4544,0.0738,-0.0073,
9.315019,-0.5097,-0.8448,-0.0972,0.1936,0.1700,-0.3128,0.4544,0.0738,-0.0073,
9.316202,-0.4908,-0.8407,-0.0992,0.1936,0.1700,-0.3128,0.4544,0.0738,-0.0073,
9.345033,-0.4908,-0.8407,-0.0992,0.1936,0.1700,-0.3128,0.3267,0.0476,0.0660,
9.348201,-0.4908,-0.8407,-0.0992,0.3028,0.1156,-0.4880,0.3267,0.0476,0.0660,
9.373318,-0.4696,-0.8448,-0.1024,0.3028,0.1156,-0.4880,0.3267,0.0476,0.0660,
9.376507,-0.4569,-0.8578,-0.1129,0.3028,0.1156,-0.4880,0.3267,0.0476,0.0660,
9.378434,-0.4520,-0.8720,-0.1192,0.3028,0.1156,-0.4880,0.3267,0.0476,0.0660,
9.405365,-0.4520,-0.8720,-0.1192,0.7034,-0.1963,-0.8195,0.3267,0.0476,0.0660,
9.408385,-0.4520,-0.8720,-0.1192,0.7034,-0.1963,-0.8195,0.1697,-0.1418,-0.0153,
9.433609,-0.4495,-0.8771,-0.1158,0.7034,-0.1963,-0.8195,0.1697,-0.1418,-0.0153,
9.435754,-0.4515,-0.8817,-0.1024,0.7034,-0.1963,-0.8195,0.1697,-0.1418,-0.0153,
9.436929,-0.4549,-0.8920,-0.0845,0.7034,-0.1963,-0.8195,0.1697,-0.1418,-0.0153,
9.464875,-0.4549,-0.8920,-0.0845,0.7034,-0.1963,-0.8195,0.0903,0.0415,0.0385,
9.467581,-0.4549,-0.8920,-0.0845,0.6694,-0.3863,-0.5622,0.0903,0.0415,0.0385,
9.493527,-0.4549,-0.8983,-0.0672,0.6694,-0.3863,-0.5622,0.0903,0.0415,0.0385,
9.496415,-0.4466,-0.8949,-0.0584,0.6694,-0.3863,-0.5622,0.0903,0.0415,0.0385,
9.498350,-0.4302,-0.8837,-0.0501,0.6694,-0.3863,-0.5622,0.0903,0.0415,0.0385,
9.525427,-0.4302,-0.8837,-0.0501,0.6694,-0.3863,-0.5622,0.2687,0.2430,0.0788,
9.528325,-0.4302,-0.8837,-0.0501,0.9420,-0.3231,-0.2524,0.2687,0.2430,0.0788,
9.553117,-0.4202,-0.8881,-0.0403,0.9420,-0.3231,-0.2524,0.2687,0.2430,0.0788,
9.556033,-0.4288,-0.9030,-0.0266,0.9420,-0.3231,-0.2524,0.2687,0.2430,0.0788,
9.557389,-0.4358,-0.9091,-0.0125,0.9420,-0.3231,-0.2524,0.2687,0.2430,0.0788,
9.586374,-0.4358,-0.9091,-0.0125,0.9009,-0.5782,0.0023,0.2687,0.2430,0.0788,
9.589764,-0.4358,-0.9091,-0.0125,0.9009,-0.5782,0.0023,0.7043,0.2785,-0.0318,
9.613346,-0.4312,-0.8988,0.0127,0.9009,-0.5782,0.0023,0.7043,0.2785,-0.0318,
9.615454,-0.4463,-0.8744,0.0169,0.9009,-0.5782,0.0023,0.7043,0.2785,-0.0318,
9.616700,-0.4576,-0.8446,-0.0112,0.9009,-0.5782,0.0023,0.7043,0.2785,-0.0318,
9.646879,-0.4576,-0.8446,-0.0112,0.9009,-0.5782,0.0023,0.4153,0.4257,-0.0959,
9.648693,-0.4576,-0.8446,-0.0112,0.6510,0.0762,-0.2552,0.4153,0.4257,-0.0959,
9.673019,-0.4849,-0.8385,-0.0364,0.6510,0.0762,-0.2552,0.4153,0.4257,-0.0959,
9.674541,-0.5221,-0.8463,-0.0821,0.6510,0.0762,-0.2552,0.4153,0.4257,-0.0959,
9.675340,-0.5233,-0.8365,-0.1141,0.6510,0.0762,-0.2552,0.4153,0.4257,-0.0959,
9.705813,-0.5233,-0.8365,-0.1141,0.6510,0.0762,-0.2552,-0.2133,-0.4558,-0.0079,
9.708218,-0.5233,-0.8365,-0.1141,-0.0268,0.1752,-1.2898,-0.2133,-0.4558,-0.0079,
9.733174,-0.5109,-0.8326,-0.0953,-0.0268,0.1752,-1.2898,-0.2133,-0.4558,-0.0079,
9.735300,-0.4791,-0.8546,-0.0496,-0.0268,0.1752,-1.2898,-0.2133,-0.4558,-0.0079,
9.736674,-0.4520,-0.8788,-0.0210,-0.0268,0.1752,-1.2898,-0.2133,-0.4558,-0.0079,
9.765283,-0.4520,-0.8788,-0.0210,0.6810,-0.2437,-0.3559,-0.2133,-0.4558,-0.0079,
9.768103,-0.4520,-0.8788,-0.0210,0.6810,-0.2437,-0.3559,-0.3061,-0.4417,0.0538,
9.792571,-0.4344,-0.8993,-0.0022,0.6810,-0.2437,-0.3559,-0.3061,-0.4417,0.0538,
9.795009,-0.4129,-0.9108,0.0088,0.6810,-0.2437,-0.3559,-0.3061,-0.4417,0.0538,
9.796761,-0.4092,-0.9162,0.0088,0.6810,-0.2437,-0.3559,-0.3061,-0.4417,0.0538,
9.826338,-0.4092,-0.9162,0.0088,1.1201,-0.6225,-0.0767,-0.3061,-0.4417,0.0538,
9.829110,-0.4092,-0.9162,0.0088,1.1201,-0.6225,-0.0767,0.0030,-0.1094,0.0574,
9.854198,-0.4004,-0.9027,0.0029,1.1201,-0.6225,-0.0767,0.0030,-0.1094,0.0574,
9.857194,-0.4156,-0.9008,-0.0029,1.1201,-0.6225,-0.0767,0.0030,-0.1094,0.0574,
9.859287,-0.4310,-0.9013,-0.0061,1.1201,-0.6225,-0.0767,0.0030,-0.1094,0.0574,
9.884996,-0.4310,-0.9013,-0.0061,1.1201,-0.6225,-0.0767,0.2351,0.0842,0.1185,
9.887848,-0.4310,-0.9013,-0.0061,0.9394,-0.4978,-0.2795,0.2351,0.0842,0.1185,
9.916853,-0.4310,-0.8915,0.0022,0.9394,-0.4978,-0.2795,0.2351,0.0842,0.1185,
9.919807,-0.4285,-0.8864,0.0115,0.9394,-0.4978,-0.2795,0.2351,0.0842,0.1185,
9.921565,-0.4095,-0.8798,0.0056,0.9394,-0.4978,-0.2795,0.2351,0.0842,0.1185,
9.945042,-0.4095,-0.8798,0.0056,0.9394,-0.4978,-0.2795,0.1258,0.0091,0.1613,
9.948323,-0.4095,-0.8798,0.0056,1.2163,-0.3305,-0.2306,0.1258,0.0091,0.1613,
9.974054,-0.3968,-0.8705,-0.0164,1.2163,-0.3305,-0.2306,0.1258,0.0091,0.1613,
9.977311,-0.4170,-0.8986,-0.0354,1.2163,-0.3305,-0.2306,0.1258,0.0091,0.1613,
9.979296,-0.4786,-0.9450,-0.0291,1.2163,-0.3305,-0.2306,0.1258,0.0091,0.1613,
10.005489,-0.4786,-0.9450,-0.0291,0.6047,-1.0128,-0.6019,0.1258,0.0091,0.1613,
10.008794,-0.4786,-0.9450,-0.0291,0.6047,-1.0128,-0.6019,-0.0471,-0.1088,0.1283,
10.032936,-0.4786,-0.9303,0.0010,0.6047,-1.0128,-0.6019,-0.0471,-0.1088,0.1283,
10.035609,-0.4598,-0.8996,0.0410,0.6047,-1.0128,-0.6019,-0.0471,-0.1088,0.1283,
10.037319,-0.4205,-0.8659,0.0489,0.6047,-1.0128,-0.6019,-0.0471,-0.1088,0.1283,
10.065590,-0.4205,-0.8659,0.0489,0.6047,-1.0128,-0.6019,0.0347,-0.1607,0.1588,
10.068329,-0.4205,-0.8659,0.0489,1.2338,-0.2775,0.1132,0.0347,-0.1607,0.1588,
10.093262,-0.4019,-0.8490,0.0213,1.2338,-0.2775,0.1132,0.0347,-0.1607,0.1588,
10.096657,-0.3909,-0.8231,-0.0217,1.2338,-0.2775,0.1132,0.0347,-0.1607,0.1588,
10.098600,-0.3931,-0.8050,-0.0528,1.2338,-0.2775,0.1132,0.0347,-0.1607,0.1588,
10.125449,-0.3931,-0.8050,-0.0528,1.2338,-0.2775,0.1132,-0.2750,-0.1876,0.2285,
10.128887,-0.3931,-0.8050,-0.0528,1.5860,0.2629,-0.8900,-0.2750,-0.1876,0.2285,
10.152904,-0.4016,-0.8062,-0.0716,1.5860,0.2629,-0.8900,-0.2750,-0.1876,0.2285,
10.155934,-0.4136,-0.8150,-0.0784,1.5860,0.2629,-0.8900,-0.2750,-0.1876,0.2285,
10.157267,-0.4390,-0.8419,-0.0738,1.5860,0.2629,-0.8900,-0.2750,-0.1876,0.2285,
10.186318,-0.4390,-0.8419,-0.0738,1.5860,0.2629,-0.8900,-0.4497,-0.0532,0.2596,
10.188666,-0.4390,-0.8419,-0.0738,1.2452,-0.1678,-0.9686,-0.4497,-0.0532,0.2596,
10.216614,-0.4901,-0.8935,-0.0694,1.2452,-0.1678,-0.9686,-0.4497,-0.0532,0.2596,
10.219606,-0.5013,-0.9030,-0.0696,1.2452,-0.1678,-0.9686,-0.4497,-0.0532,0.2596,
10.220967,-0.4603,-0.8539,-0.0662,1.2452,-0.1678,-0.9686,-0.4497,-0.0532,0.2596,
10.245865,-0.4603,-0.8539,-0.0662,1.2452,-0.1678,-0.9686,-0.4937,0.2015,0.2663,
10.249108,-0.4603,-0.8539,-0.0662,1.1582,-0.3659,-0.6402,-0.4937,0.2015,0.2663,
10.274134,-0.4437,-0.8414,-0.0511,1.1582,-0.3659,-0.6402,-0.4937,0.2015,0.2663,
10.276643,-0.5468,-0.9589,-0.0337,1.1582,-0.3659,-0.6402,-0.4937,0.2015,0.2663,
10.278369,-0.6030,-1.0146,-0.0322,1.1582,-0.3659,-0.6402,-0.4937,0.2015,0.2663,
10.306049,-0.6030,-1.0146,-0.0322,1.1582,-0.3659,-0.6402,-0.2872,0.4807,0.2034,
10.308858,-0.6030,-1.0146,-0.0322,-0.1359,-2.0235,0.0211,-0.2872,0.4807,0.2034,
10.333161,-0.5556,-0.9318,-0.0354,-0.1359,-2.0235,0.0211,-0.2872,0.4807,0.2034,
10.335814,-0.5148,-0.8507,-0.0235,-0.1359,-2.0235,0.0211,-0.2872,0.4807,0.2034,
10.337270,-0.5722,-0.8634,-0.0254,-0.1359,-2.0235,0.0211,-0.2872,0.4807,0.2034,
10.365194,-0.5722,-0.8634,-0.0254,-0.1359,-2.0235,0.0211,-0.3196,0.2669,0.0257,
10.368358,-0.5722,-0.8634,-0.0254,0.2259,-0.6011,0.3485,-0.3196,0.2669,0.0257,
10.393422,-0.6181,-0.8541,-0.0525,0.2259,-0.6011,0.3485,-0.3196,0.2669,0.0257,
10.395546,-0.6655,-0.8444,-0.0875,0.2259,-0.6011,0.3485,-0.3196,0.2669,0.0257,
10.397365,-0.6924,-0.8280,-0.0997,0.2259,-0.6011,0.3485,-0.3196,0.2669,0.0257,
10.426145,-0.6924,-0.8280,-0.0997,-0.9452,-0.2766,-0.1818,-0.3196,0.2669,0.0257,
10.428040,-0.6924,-0.8280,-0.0997,-0.9452,-0.2766,-0.1818,-0.6855,-0.9054,0.1124,
10.454249,-0.6917,-0.8097,-0.0948,-0.9452,-0.2766,-0.1818,-0.6855,-0.9054,0.1124,
10.456296,-0.6550,-0.7774,-0.0623,-0.9452,-0.2766,-0.1818,-0.6855,-0.9054,0.1124,
10.457299,-0.6145,-0.7562,-0.0476,-0.9452,-0.2766,-0.1818,-0.6855,-0.9054,0.1124,
10.485899,-0.6145,-0.7562,-0.0476,-0.9452,-0.2766,-0.1818,-0.3788,-1.2963,0.0843,
10.488976,-0.6145,-0.7562,-0.0476,-0.0562,0.3477,0.1613,-0.3788,-1.2963,0.0843,
10.513411,-0.6032,-0.7510,-0.0757,-0.0562,0.3477,0.1613,-0.3788,-1.2963,0.0843,
10.516103,-0.6130,-0.7522,-0.1119,-0.0562,0.3477,0.1613,-0.3788,-1.2963,0.0843,
10.518309,-0.6374,-0.7571,-0.1466,-0.0562,0.3477,0.1613,-0.3788,-1.2963,0.0843,
10.545192,-0.6374,-0.7571,-0.1466,-0.0562,0.3477,0.1613,-0.3629,-1.1070,-0.1594,
10.549121,-0.6374,-0.7571,-0.1466,-0.2644,0.3423,-1.0768,-0.3629,-1.1070,-0.1594,
10.576116,-0.6750,-0.7691,-0.1867,-0.2644,0.3423,-1.0768,-0.3629,-1.1070,-0.1594,
10.579111,-0.7337,-0.8048,-0.2064,-0.2644,0.3423,-1.0768,-0.3629,-1.1070,-0.1594,
10.581825,-0.7818,-0.8392,-0.2006,-0.2644,0.3423,-1.0768,-0.3629,-1.1070,-0.1594,
10.605080,-0.7818,-0.8392,-0.2006,-0.2644,0.3423,-1.0768,-0.2774,-0.3580,-0.0635,
10.610020,-0.7818,-0.8392,-0.2006,-1.7428,-0.4084,-1.7506,-0.2774,-0.3580,-0.0635,
10.634379,-0.8028,-0.8314,-0.1744,-1.7428,-0.4084,-1.7506,-0.2774,-0.3580,-0.0635,
10.636423,-0.7598,-0.7525,-0.1334,-1.7428,-0.4084,-1.7506,-0.2774,-0.3580,-0.0635,
10.637589,-0.6733,-0.6853,-0.1043,-1.7428,-0.4084,-1.7506,-0.2774,-0.3580,-0.0635,
10.665089,-0.6733,-0.6853,-0.1043,-0.6424,1.0673,-0.6874,-0.2774,-0.3580,-0.0635,
10.668081,-0.6733,-0.6853,-0.1043,-0.6424,1.0673,-0.6874,0.0103,0.5076,0.2376,
10.692963,-0.6296,-0.6790,-0.0748,-0.6424,1.0673,-0.6874,0.0103,0.5076,0.2376,
10.695201,-0.6071,-0.7144,-0.0547,-0.6424,1.0673,-0.6874,0.0103,0.5076,0.2376,
10.696745,-0.5959,-0.7522,-0.0432,-0.6424,1.0673,-0.6874,0.0103,0.5076,0.2376,
10.727155,-0.5959,-0.7522,-0.0432,-0.6424,1.0673,-0.6874,0.2748,0.8246,0.2688,
10.730149,-0.5959,-0.7522,-0.0432,0.2390,0.3063,0.0874,0.2748,0.8246,0.2688,
10.752683,-0.5942,-0.7845,-0.0364,0.2390,0.3063,0.0874,0.2748,0.8246,0.2688,
10.754474,-0.5964,-0.7896,-0.0269,0.2390,0.3063,0.0874,0.2748,0.8246,0.2688,
10.755599,-0.5903,-0.7635,-0.0112,0.2390,0.3063,0.0874,0.2748,0.8246,0.2688,
10.786013,-0.5903,-0.7635,-0.0112,0.2390,0.3063,0.0874,0.4636,1.0408,-0.0525,
10.789587,-0.5903,-0.7635,-0.0112,0.3327,0.1510,0.5838,0.4636,1.0408,-0.0525,
10.812915,-0.6120,-0.7398,0.0083,0.3327,0.1510,0.5838,0.4636,1.0408,-0.0525,
10.816252,-0.6770,-0.7327,0.0616,0.3327,0.1510,0.5838,0.4636,1.0408,-0.0525,
10.817714,-0.7435,-0.7144,0.1542,0.3327,0.1510,0.5838,0.4636,1.0408,-0.0525,
10.845363,-0.7435,-0.7144,0.1542,-1.2664,0.6992,2.3132,0.4636,1.0408,-0.0525,
10.848365,-0.7435,-0.7144,0.1542,-1.2664,0.6992,2.3132,0.9425,0.6169,-0.0324,
10.877418,-0.7432,-0.6970,-0.0364,-1.2664,0.6992,2.3132,0.9425,0.6169,-0.0324,
10.880099,-0.7278,-0.6904,-0.1309,-1.2664,0.6992,2.3132,0.9425,0.6169,-0.0324,
10.882612,-0.7095,-0.6951,-0.1287,-1.2664,0.6992,2.3132,0.9425,0.6169,-0.0324,
10.906101,-0.7095,-0.6951,-0.1287,-0.9110,0.8951,-0.7442,0.9425,0.6169,-0.0324,
10.909036,-0.7095,-0.6951,-0.1287,-0.9110,0.8951,-0.7442,0.1025,-0.4692,0.0971,
10.934635,-0.6943,-0.7090,-0.1407,-0.9110,0.8951,-0.7442,0.1025,-0.4692,0.0971,
10.937301,-0.6846,-0.7322,-0.1424,-0.9110,0.8951,-0.7442,0.1025,-0.4692,0.0971,
10.939448,-0.6760,-0.7525,-0.1129,-0.9110,0.8951,-0.7442,0.1025,-0.4692,0.0971,
10.965719,-0.6760,-0.7525,-0.1129,-0.5202,0.2919,-0.7485,0.1025,-0.4692,0.0971,
10.968536,-0.6760,-0.7525,-0.1129,-0.5202,0.2919,-0.7485,-0.2573,-0.6232,0.0415,
10.993026,-0.6609,-0.7708,-0.0945,-0.5202,0.2919,-0.7485,-0.2573,-0.6232,0.0415,
10.996260,-0.6440,-0.7877,-0.0843,-0.5202,0.2919,-0.7485,-0.2573,-0.6232,0.0415,
10.998181,-0.6264,-0.7943,-0.0887,-0.5202,0.2919,-0.7485,-0.2573,-0.6232,0.0415,
11.024779,-0.6264,-0.7943,-0.0887,-0.5202,0.2919,-0.7485,0.0628,-0.3098,-0.1387,
11.027329,-0.6264,-0.7943,-0.0887,-0.0357,-0.1117,-0.6283,0.0628,-0.3098,-0.1387,
11.053584,-0.6106,-0.7772,-0.0904,-0.0357,-0.1117,-0.6283,0.0628,-0.3098,-0.1387,
11.056233,-0.6289,-0.7598,-0.1002,-0.0357,-0.1117,-0.6283,0.0628,-0.3098,-0.1387,
11.057914,-0.6584,-0.7432,-0.1170,-0.0357,-0.1117,-0.6283,0.0628,-0.3098,-0.1387,
11.088161,-0.6584,-0.7432,-0.1170,-0.0357,-0.1117,-0.6283,0.1887,-0.1833,-0.2107,
11.091064,-0.6584,-0.7432,-0.1170,-0.4292,0.4547,-1.0532,0.1887,-0.1833,-0.2107,
11.112418,-0.6912,-0.7266,-0.1178,-0.4292,0.4547,-1.0532,0.1887,-0.1833,-0.2107,
11.115063,-0.7220,-0.7163,-0.0967,-0.4292,0.4547,-1.0532,0.1887,-0.1833,-0.2107,
11.116842,-0.7454,-0.7190,-0.0892,-0.4292,0.4547,-1.0532,0.1887,-0.1833,-0.2107,
11.145485,-0.7454,-0.7190,-0.0892,-0.4292,0.4547,-1.0532,-0.0544,-0.2157,0.1246,
11.149319,-0.7454,-0.7190,-0.0892,-1.3305,0.7301,-0.8837,-0.0544,-0.2157,0.1246,
11.173029,-0.7479,-0.7244,-0.0816,-1.3305,0.7301,-0.8837,-0.0544,-0.2157,0.1246,
11.175880,-0.7151,-0.7474,-0.0640,-1.3305,0.7301,-0.8837,-0.0544,-0.2157,0.1246,
11.177241,-0.6482,-0.7882,-0.0420,-1.3305,0.7301,-0.8837,-0.0544,-0.2157,0.1246,
11.205518,-0.6482,-0.7882,-0.0420,-1.3305,0.7301,-0.8837,-0.0135,0.0952,0.4655,
11.208367,-0.6482,-0.7882,-0.0420,-0.2309,-0.0624,-0.4327,-0.0135,0.0952,0.4655,
11.232336,-0.6062,-0.8277,-0.0230,-0.2309,-0.0624,-0.4327,-0.0135,0.0952,0.4655,
11.235453,-0.5627,-0.8483,-0.0081,-0.2309,-0.0624,-0.4327,-0.0135,0.0952,0.4655,
11.237241,-0.5243,-0.8470,-0.0122,-0.2309,-0.0624,-0.4327,-0.0135,0.0952,0.4655,
11.267085,-0.5243,-0.8470,-0.0122,-0.2309,-0.0624,-0.4327,0.4715,0.4312,0.3030,
11.272213,-0.5243,-0.8470,-0.0122,1.1843,-0.8047,-0.0906,0.4715,0.4312,0.3030,
11.293219,-0.4886,-0.8338,-0.0235,1.1843,-0.8047,-0.0906,0.4715,0.4312,0.3030,
11.295735,-0.4847,-0.8302,-0.0210,1.1843,-0.8047,-0.0906,0.4715,0.4312,0.3030,
11.297443,-0.5270,-0.8382,0.0122,1.1843,-0.8047,-0.0906,0.4715,0.4312,0.3030,
11.325863,-0.5270,-0.8382,0.0122,1.1843,-0.8047,-0.0906,0.8435,0.9022,0.1387,
11.328981,-0.5270,-0.8382,0.0122,1.2462,-0.7940,0.0550,0.8435,0.9022,0.1387,
11.356601,-0.5698,-0.8341,0.1197,1.2462,-0.7940,0.0550,0.8435,0.9022,0.1387,
11.359429,-0.5944,-0.8338,0.1312,1.2462,-0.7940,0.0550,0.8435,0.9022,0.1387,
11.361018,-0.6025,-0.8404,0.0867,1.2462,-0.7940,0.0550,0.8435,0.9022,0.1387,
11.387122,-0.6025,-0.8404,0.0867,0.5878,-0.8907,0.5994,0.8435,0.9022,0.1387,
11.390543,-0.6025,-0.8404,0.0867,0.5878,-0.8907,0.5994,0.8582,0.0018,0.2407,
11.413526,-0.5956,-0.8446,0.0125,0.5878,-0.8907,0.5994,0.8582,0.0018,0.2407,
11.416473,-0.5790,-0.8446,-0.0310,0.5878,-0.8907,0.5994,0.8582,0.0018,0.2407,
11.419088,-0.5773,-0.8588,0.0107,0.5878,-0.8907,0.5994,0.8582,0.0018,0.2407,
11.445431,-0.5773,-0.8588,0.0107,0.9235,-1.1645,-0.4179,0.8582,0.0018,0.2407,
11.449008,-0.5773,-0.8588,0.0107,0.9235,-1.1645,-0.4179,0.6218,0.3218,0.1454,
11.473830,-0.5737,-0.8705,0.0730,0.9235,-1.1645,-0.4179,0.6218,0.3218,0.1454,
11.476661,-0.5702,-0.8690,0.0889,0.9235,-1.1645,-0.4179,0.6218,0.3218,0.1454,
11.478065,-0.5805,-0.8514,0.0200,0.9235,-1.1645,-0.4179,0.6218,0.3218,0.1454,
11.505437,-0.5805,-0.8514,0.0200,0.8885,-1.0947,-0.3992,0.6218,0.3218,0.1454,
11.507420,-0.5805,-0.8514,0.0200,0.8885,-1.0947,-0.3992,0.5350,0.6829,-0.3109,
11.535268,-0.6362,-0.8263,-0.0555,0.8885,-1.0947,-0.3992,0.5350,0.6829,-0.3109,
11.538815,-0.7075,-0.7803,-0.0530,0.8885,-1.0947,-0.3992,0.5350,0.6829,-0.3109,
11.540660,-0.7518,-0.7205,0.0120,0.8885,-1.0947,-0.3992,0.5350,0.6829,-0.3109,
11.565788,-0.7518,-0.7205,0.0120,-0.9173,0.3069,-0.4158,0.5350,0.6829,-0.3109,
11.568934,-0.7518,-0.7205,0.0120,-0.9173,0.3069,-0.4158,0.0311,0.2321,-0.2651,
11.593578,-0.7601,-0.6579,0.0362,-0.9173,0.3069,-0.4158,0.0311,0.2321,-0.2651,
11.595939,-0.7293,-0.6140,-0.0843,-0.9173,0.3069,-0.4158,0.0311,0.2321,-0.2651,
11.598079,-0.6765,-0.5570,-0.1217,-0.9173,0.3069,-0.4158,0.0311,0.2321,-0.2651,
11.625924,-0.6765,-0.5570,-0.1217,-0.9173,0.3069,-0.4158,-0.5773,-0.2945,-0.3537,
11.628865,-0.6765,-0.5570,-0.1217,-0.2970,2.0188,-1.5753,-0.5773,-0.2945,-0.3537,
11.654693,-0.6211,-0.5382,-0.0398,-0.2970,2.0188,-1.5753,-0.5773,-0.2945,-0.3537,
11.656467,-0.6008,-0.6247,0.0669,-0.2970,2.0188,-1.5753,-0.5773,-0.2945,-0.3537,
11.657497,-0.5128,-0.7698,0.0779,-0.2970,2.0188,-1.5753,-0.5773,-0.2945,-0.3537,
11.686497,-0.5128,-0.7698,0.0779,1.1630,0.0496,0.3164,-0.5773,-0.2945,-0.3537,
11.689938,-0.5128,-0.7698,0.0779,1.1630,0.0496,0.3164,0.3310,0.0079,-0.2211,
11.713589,-0.4371,-0.8844,0.1055,1.1630,0.0496,0.3164,0.3310,0.0079,-0.2211,
11.717857,-0.3699,-0.9367,0.1180,1.1630,0.0496,0.3164,0.3310,0.0079,-0.2211,
11.720034,-0.3191,-0.9589,0.0667,1.1630,0.0496,0.3164,0.3310,0.0079,-0.2211,
11.745580,-0.3191,-0.9589,0.0667,2.8881,-1.6597,0.3123,0.3310,0.0079,-0.2211,
11.749749,-0.3191,-0.9589,0.0667,2.8881,-1.6597,0.3123,0.1893,0.4587,-0.7556,
11.773831,-0.2714,-0.9775,-0.0042,2.8881,-1.6597,0.3123,0.1893,0.4587,-0.7556,
11.777377,-0.3225,-1.0102,-0.0220,2.8881,-1.6597,0.3123,0.1893,0.4587,-0.7556,
11.779295,-0.3816,-1.0259,-0.0391,2.8881,-1.6597,0.3123,0.1893,0.4587,-0.7556,
11.804777,-0.3816,-1.0259,-0.0391,1.8647,-2.0154,-0.7685,0.1893,0.4587,-0.7556,
11.807736,-0.3816,-1.0259,-0.0391,1.8647,-2.0154,-0.7685,-0.1473,-0.2621,-0.9572,
11.832584,-0.4241,-0.9895,-0.0298,1.8647,-2.0154,-0.7685,-0.1473,-0.2621,-0.9572,
11.836312,-0.4532,-0.9426,-0.0159,1.8647,-2.0154,-0.7685,-0.1473,-0.2621,-0.9572,
11.838702,-0.4559,-0.9118,0.0039,1.8647,-2.0154,-0.7685,-0.1473,-0.2621,-0.9572,
11.865102,-0.4559,-0.9118,0.0039,1.8647,-2.0154,-0.7685,-0.1473,0.1484,-0.9713,
11.868077,-0.4559,-0.9118,0.0039,0.6405,-0.5707,-0.2916,-0.1473,0.1484,-0.9713,
11.892493,-0.4554,-0.8759,0.0254,0.6405,-0.5707,-0.2916,-0.1473,0.1484,-0.9713,
11.895667,-0.4613,-0.8590,0.0386,0.6405,-0.5707,-0.2916,-0.1473,0.1484,-0.9713,
11.897495,-0.4837,-0.8702,0.0247,0.6405,-0.5707,-0.2916,-0.1473,0.1484,-0.9713,
11.924801,-0.4837,-0.8702,0.0247,0.6405,-0.5707,-0.2916,0.0830,0.4202,-0.7874,
11.927779,-0.4837,-0.8702,0.0247,-0.0967,0.1059,0.0116,0.0830,0.4202,-0.7874,
11.955959,-0.5131,-0.8690,-0.0059,-0.0967,0.1059,0.0116,0.0830,0.4202,-0.7874,
11.957786,-0.5358,-0.8488,-0.0286,-0.0967,0.1059,0.0116,0.0830,0.4202,-0.7874,
11.958940,-0.5221,-0.8104,-0.0388,-0.0967,0.1059,0.0116,0.0830,0.4202,-0.7874,
11.985530,-0.5221,-0.8104,-0.0388,-0.0967,0.1059,0.0116,-0.2689,0.5943,-0.3348,
11.988672,-0.5221,-0.8104,-0.0388,-0.7724,0.8497,-0.4547,-0.2689,0.5943,-0.3348,
12.013444,-0.4864,-0.7752,-0.0371,-0.7724,0.8497,-0.4547,-0.2689,0.5943,-0.3348,
12.016091,-0.4598,-0.7720,-0.0051,-0.7724,0.8497,-0.4547,-0.2689,0.5943,-0.3348,
12.018628,-0.4964,-0.8358,0.0520,-0.7724,0.8497,-0.4547,-0.2689,0.5943,-0.3348,
12.045224,-0.4964,-0.8358,0.0520,-0.6343,0.6547,0.6738,-0.2689,0.5943,-0.3348,
12.047216,-0.4964,-0.8358,0.0520,-0.6343,0.6547,0.6738,-0.3361,0.3157,-0.0140,
12.074153,-0.5636,-0.8903,0.0169,-0.6343,0.6547,0.6738,-0.3361,0.3157,-0.0140,
12.076546,-0.5387,-0.8243,-0.0926,-0.6343,0.6547,0.6738,-0.3361,0.3157,-0.0140,
12.078172,-0.5485,-0.8185,-0.1165,-0.6343,0.6547,0.6738,-0.3361,0.3157,-0.0140,
12.107313,-0.5485,-0.8185,-0.1165,-0.6343,0.6547,0.6738,-0.7808,0.2021,0.1539,
12.110043,-0.5485,-0.8185,-0.1165,-1.1314,0.8028,-0.5927,-0.7808,0.2021,0.1539,
12.133032,-0.5341,-0.8309,-0.0865,-1.1314,0.8028,-0.5927,-0.7808,0.2021,0.1539,
12.135098,-0.4920,-0.8475,-0.0506,-1.1314,0.8028,-0.5927,-0.7808,0.2021,0.1539,
12.136557,-0.4796,-0.8817,-0.0428,-1.1314,0.8028,-0.5927,-0.7808,0.2021,0.1539,
12.165129,-0.4796,-0.8817,-0.0428,-1.1314,0.8028,-0.5927,-0.5358,-0.0019,0.1826,
12.167889,-0.4796,-0.8817,-0.0428,-0.3671,0.1050,0.5328,-0.5358,-0.0019,0.1826,
12.193564,-0.4652,-0.9071,-0.0437,-0.3671,0.1050,0.5328,-0.5358,-0.0019,0.1826,
12.195864,-0.4547,-0.9079,-0.0591,-0.3671,0.1050,0.5328,-0.5358,-0.0019,0.1826,
12.196772,-0.4544,-0.9052,-0.0919,-0.3671,0.1050,0.5328,-0.5358,-0.0019,0.1826,
12.224983,-0.4544,-0.9052,-0.0919,-0.3671,0.1050,0.5328,-0.6537,-0.0471,0.1277,
12.227819,-0.4544,-0.9052,-0.0919,-0.0275,-0.2110,0.3608,-0.6537,-0.0471,0.1277,
12.256399,-0.4390,-0.8698,-0.1437,-0.0275,-0.2110,0.3608,-0.6537,-0.0471,0.1277,
12.259074,-0.4710,-0.8575,-0.1673,-0.0275,-0.2110,0.3608,-0.6537,-0.0471,0.1277,
12.260935,-0.5060,-0.8637,-0.1537,-0.0275,-0.2110,0.3608,-0.6537,-0.0471,0.1277,
12.287031,-0.5060,-0.8637,-0.1537,-0.0275,-0.2110,0.3608,-0.5975,-0.3599,0.1686,
12.290754,-0.5060,-0.8637,-0.1537,-0.4375,0.1023,0.0273,-0.5975,-0.3599,0.1686,
12.315507,-0.5209,-0.8722,-0.1314,-0.4375,0.1023,0.0273,-0.5975,-0.3599,0.1686,
12.318263,-0.5126,-0.8891,-0.1302,-0.4375,0.1023,0.0273,-0.5975,-0.3599,0.1686,
12.320469,-0.4957,-0.9081,-0.1358,-0.4375,0.1023,0.0273,-0.5975,-0.3599,0.1686,
12.345789,-0.4957,-0.9081,-0.1358,-0.4375,0.1023,0.0273,-0.2792,-0.0667,0.2676,
12.347855,-0.4957,-0.9081,-0.1358,-0.1999,-0.4402,0.3758,-0.2792,-0.0667,0.2676,
12.374365,-0.4825,-0.9167,-0.1441,-0.1999,-0.4402,0.3758,-0.2792,-0.0667,0.2676,
12.376412,-0.4510,-0.8935,-0.1551,-0.1999,-0.4402,0.3758,-0.2792,-0.0667,0.2676,
12.377480,-0.4324,-0.8649,-0.1769,-0.1999,-0.4402,0.3758,-0.2792,-0.0667,0.2676,
12.405788,-0.4324,-0.8649,-0.1769,-0.1999,-0.4402,0.3758,0.3096,0.1453,0.1136,
12.408624,-0.4324,-0.8649,-0.1769,0.5228,-0.0837,0.0218,0.3096,0.1453,0.1136,
12.434624,-0.4671,-0.8790,-0.2060,0.5228,-0.0837,0.0218,0.3096,0.1453,0.1136,
12.436098,-0.4994,-0.8742,-0.2199,0.5228,-0.0837,0.0218,0.3096,0.1453,0.1136,
12.437127,-0.5148,-0.8358,-0.2157,0.5228,-0.0837,0.0218,0.3096,0.1453,0.1136,
12.466123,-0.5148,-0.8358,-0.2157,-0.2631,0.2203,-0.5148,0.3096,0.1453,0.1136,
12.468612,-0.5148,-0.8358,-0.2157,-0.2631,0.2203,-0.5148,0.4025,0.2803,0.0812,
12.492628,-0.5314,-0.7979,-0.2106,-0.2631,0.2203,-0.5148,0.4025,0.2803,0.0812,
12.494669,-0.5580,-0.7908,-0.2223,-0.2631,0.2203,-0.5148,0.4025,0.2803,0.0812,
12.496098,-0.6015,-0.8324,-0.2358,-0.2631,0.2203,-0.5148,0.4025,0.2803,0.0812,
12.525953,-0.6015,-0.8324,-0.2358,-1.0662,0.2441,-0.8039,0.4025,0.2803,0.0812,
12.528692,-0.6015,-0.8324,-0.2358,-1.0662,0.2441,-0.8039,0.0250,-0.0111,0.2156,
12.553432,-0.6289,-0.8751,-0.2309,-1.0662,0.2441,-0.8039,0.0250,-0.0111,0.2156,
12.556797,-0.5832,-0.8617,-0.2081,-1.0662,0.2441,-0.8039,0.0250,-0.0111,0.2156,
12.558925,-0.5844,-0.8871,-0.2111,-1.0662,0.2441,-0.8039,0.0250,-0.0111,0.2156,
12.585197,-0.5844,-0.8871,-0.2111,-1.0662,0.2441,-0.8039,-0.0367,-0.0551,0.1790,
12.587967,-0.5844,-0.8871,-0.2111,-0.7940,-0.3605,-0.5221,-0.0367,-0.0551,0.1790,
12.613050,-0.6027,-0.9152,-0.2064,-0.7940,-0.3605,-0.5221,-0.0367,-0.0551,0.1790,
12.615950,-0.5798,-0.8668,-0.1857,-0.7940,-0.3605,-0.5221,-0.0367,-0.0551,0.1790,
12.617941,-0.5778,-0.8295,-0.1730,-0.7940,-0.3605,-0.5221,-0.0367,-0.0551,0.1790,
12.645576,-0.5778,-0.8295,-0.1730,-0.7940,-0.3605,-0.5221,0.0500,0.0506,0.1173,
12.648676,-0.5778,-0.8295,-0.1730,-0.6568,0.1638,-0.1629,0.0500,0.0506,0.1173,
12.673127,-0.5837,-0.8082,-0.1652,-0.6568,0.1638,-0.1629,0.0500,0.0506,0.1173,
12.676072,-0.5720,-0.7755,-0.1673,-0.6568,0.1638,-0.1629,0.0500,0.0506,0.1173,
12.677850,-0.5578,-0.7542,-0.1717,-0.6568,0.1638,-0.1629,0.0500,0.0506,0.1173,
12.704868,-0.5578,-0.7542,-0.1717,-0.6568,0.1638,-0.1629,-0.0355,-0.1259,0.1662,
12.707780,-0.5578,-0.7542,-0.1717,-0.3860,0.8577,-0.1610,-0.0355,-0.1259,0.1662,
12.732828,-0.5570,-0.7584,-0.1776,-0.3860,0.8577,-0.1610,-0.0355,-0.1259,0.1662,
12.735505,-0.5654,-0.7877,-0.1783,-0.3860,0.8577,-0.1610,-0.0355,-0.1259,0.1662,
12.737622,-0.5500,-0.8023,-0.1757,-0.3860,0.8577,-0.1610,-0.0355,-0.1259,0.1662,
12.765169,-0.5500,-0.8023,-0.1757,-0.3860,0.8577,-0.1610,-0.0856,0.0500,0.1729,
12.768168,-0.5500,-0.8023,-0.1757,-0.2117,0.3221,-0.1833,-0.0856,0.0500,0.1729,
12.794217,-0.5297,-0.8023,-0.1813,-0.2117,0.3221,-0.1833,-0.0856,0.0500,0.1729,
12.797298,-0.5202,-0.8116,-0.1967,-0.2117,0.3221,-0.1833,-0.0856,0.0500,0.1729,
12.799491,-0.5341,-0.8233,-0.1906,-0.2117,0.3221,-0.1833,-0.0856,0.0500,0.1729,
12.826019,-0.5341,-0.8233,-0.1906,-0.2117,0.3221,-0.1833,-0.0331,-0.0948,0.0098,
12.828512,-0.5341,-0.8233,-0.1906,-0.0007,0.0796,-0.3226,-0.0331,-0.0948,0.0098,
12.852737,-0.5614,-0.8275,-0.1717,-0.0007,0.0796,-0.3226,-0.0331,-0.0948,0.0098,
12.855742,-0.5854,-0.8136,-0.1595,-0.0007,0.0796,-0.3226,-0.0331,-0.0948,0.0098,
12.857892,-0.5712,-0.7767,-0.1559,-0.0007,0.0796,-0.3226,-0.0331,-0.0948,0.0098,
12.884863,-0.5712,-0.7767,-0.1559,-0.3664,0.5377,0.0192,-0.0331,-0.0948,0.0098,
12.887431,-0.5712,-0.7767,-0.1559,-0.3664,0.5377,0.0192,0.0622,0.0085,-0.0238,
12.913764,-0.5749,-0.7667,-0.1659,-0.3664,0.5377,0.0192,0.0622,0.0085,-0.0238,
12.916713,-0.6013,-0.7933,-0.1691,-0.3664,0.5377,0.0192,0.0622,0.0085,-0.0238,
12.918223,-0.5991,-0.7984,-0.1688,-0.3664,0.5377,0.0192,0.0622,0.0085,-0.0238,
12.945902,-0.5991,-0.7984,-0.1688,-0.3664,0.5377,0.0192,0.1887,0.0836,0.0012,
12.949923,-0.5991,-0.7984,-0.1688,-0.6433,0.3370,-0.1605,0.1887,0.0836,0.0012,
12.973266,-0.6098,-0.8180,-0.1842,-0.6433,0.3370,-0.1605,0.1887,0.0836,0.0012,
12.976116,-0.6213,-0.8316,-0.1859,-0.6433,0.3370,-0.1605,0.1887,0.0836,0.0012,
12.978175,-0.5974,-0.8089,-0.1774,-0.6433,0.3370,-0.1605,0.1887,0.0836,0.0012,
13.006444,-0.5974,-0.8089,-0.1774,-0.6433,0.3370,-0.1605,0.1282,-0.0025,-0.0244,
13.009451,-0.5974,-0.8089,-0.1774,-0.6243,0.2413,-0.2926,0.1282,-0.0025,-0.0244,
13.032778,-0.6037,-0.8145,-0.1837,-0.6243,0.2413,-0.2926,0.1282,-0.0025,-0.0244,
13.035667,-0.6279,-0.8402,-0.1840,-0.6243,0.2413,-0.2926,0.1282,-0.0025,-0.0244,
13.037265,-0.6386,-0.8397,-0.1700,-0.6243,0.2413,-0.2926,0.1282,-0.0025,-0.0244,
13.067428,-0.6386,-0.8397,-0.1700,-0.6243,0.2413,-0.2926,0.1038,-0.1522,-0.1161,
13.069996,-0.6386,-0.8397,-0.1700,-1.0397,-0.0372,-0.3158,0.1038,-0.1522,-0.1161,
13.092354,-0.6399,-0.8170,-0.1583,-1.0397,-0.0372,-0.3158,0.1038,-0.1522,-0.1161,
13.095183,-0.6543,-0.8189,-0.1627,-1.0397,-0.0372,-0.3158,0.1038,-0.1522,-0.1161,
13.096697,-0.6719,-0.8221,-0.1605,-1.0397,-0.0372,-0.3158,0.1038,-0.1522,-0.1161,
13.124868,-0.6719,-0.8221,-0.1605,-1.0397,-0.0372,-0.3158,0.0201,-0.1632,-0.1093,
13.128219,-0.6719,-0.8221,-0.1605,-1.4197,0.1850,-0.3201,0.0201,-0.1632,-0.1093,
13.154176,-0.6753,-0.8177,-0.1520,-1.4197,0.1850,-0.3201,0.0201,-0.1632,-0.1093,
13.156037,-0.6167,-0.7764,-0.1422,-1.4197,0.1850,-0.3201,0.0201,-0.1632,-0.1093,
13.157314,-0.5881,-0.7779,-0.1593,-1.4197,0.1850,-0.3201,0.0201,-0.1632,-0.1093,
13.186231,-0.5881,-0.7779,-0.1593,-1.4197,0.1850,-0.3201,0.0286,-0.1730,-0.1393,
13.188394,-0.5881,-0.7779,-0.1593,-0.6426,0.6509,-0.3425,0.0286,-0.1730,-0.1393,
13.212966,-0.5680,-0.7877,-0.1632,-0.6426,0.6509,-0.3425,0.0286,-0.1730,-0.1393,
13.215729,-0.5297,-0.7676,-0.1581,-0.6426,0.6509,-0.3425,0.0286,-0.1730,-0.1393,
13.217314,-0.5182,-0.7654,-0.1637,-0.6426,0.6509,-0.3425,0.0286,-0.1730,-0.1393,
13.245440,-0.5182,-0.7654,-0.1637,-0.6426,0.6509,-0.3425,0.1478,-0.1290,-0.2095,
13.249133,-0.5182,-0.7654,-0.1637,-0.0338,0.8296,-0.4566,0.1478,-0.1290,-0.2095,
13.272983,-0.5270,-0.7750,-0.1720,-0.0338,0.8296,-0.4566,0.1478,-0.1290,-0.2095,
13.276586,-0.5492,-0.7835,-0.1715,-0.0338,0.8296,-0.4566,0.1478,-0.1290,-0.2095,
13.278599,-0.5722,-0.7811,-0.1615,-0.0338,0.8296,-0.4566,0.1478,-0.1290,-0.2095,
13.305505,-0.5722,-0.7811,-0.1615,-0.0338,0.8296,-0.4566,0.0848,-0.2371,-0.2633,
13.311821,-0.5722,-0.7811,-0.1615,-0.6630,0.7516,-0.5537,0.0848,-0.2371,-0.2633,
13.332485,-0.5952,-0.7830,-0.1546,-0.6630,0.7516,-0.5537,0.0848,-0.2371,-0.2633,
13.335598,-0.6167,-0.7955,-0.1488,-0.6630,0.7516,-0.5537,0.0848,-0.2371,-0.2633,
13.337399,-0.6399,-0.8119,-0.1375,-0.6630,0.7516,-0.5537,0.0848,-0.2371,-0.2633,
13.366196,-0.6399,-0.8119,-0.1375,-1.4213,0.5167,-0.4186,0.0848,-0.2371,-0.2633,
13.369192,-0.6399,-0.8119,-0.1375,-1.4213,0.5167,-0.4186,-0.1174,-0.4173,-0.1619,
13.393108,-0.6335,-0.8106,-0.1185,-1.4213,0.5167,-0.4186,-0.1174,-0.4173,-0.1619,
13.396427,-0.6069,-0.7857,-0.1014,-1.4213,0.5167,-0.4186,-0.1174,-0.4173,-0.1619,
13.398366,-0.5959,-0.7799,-0.0953,-1.4213,0.5167,-0.4186,-0.1174,-0.4173,-0.1619,
13.424916,-0.5959,-0.7799,-0.0953,-1.4213,0.5167,-0.4186,-0.0685,-0.5187,-0.1148,
13.427872,-0.5959,-0.7799,-0.0953,-1.0415,0.8652,-0.0600,-0.0685,-0.5187,-0.1148,
13.452588,-0.5981,-0.7879,-0.0909,-1.0415,0.8652,-0.0600,-0.0685,-0.5187,-0.1148,
13.455848,-0.6018,-0.8004,-0.0831,-1.0415,0.8652,-0.0600,-0.0685,-0.5187,-0.1148,
13.458011,-0.5947,-0.8043,-0.0708,-1.0415,0.8652,-0.0600,-0.0685,-0.5187,-0.1148,
13.485391,-0.5947,-0.8043,-0.0708,-1.0415,0.8652,-0.0600,0.2241,-0.3464,0.1344,
13.489180,-0.5947,-0.8043,-0.0708,-1.0048,0.6275,0.0112,0.2241,-0.3464,0.1344,
13.512368,-0.5622,-0.7874,-0.0562,-1.0048,0.6275,0.0112,0.2241,-0.3464,0.1344,
13.514741,-0.5417,-0.7916,-0.0528,-1.0048,0.6275,0.0112,0.2241,-0.3464,0.1344,
13.516337,-0.5382,-0.8060,-0.0528,-1.0048,0.6275,0.0112,0.2241,-0.3464,0.1344,
13.545598,-0.5382,-0.8060,-0.0528,-1.0048,0.6275,0.0112,0.5454,-0.1473,0.3384,
13.549262,-0.5382,-0.8060,-0.0528,-0.3371,0.5619,-0.0621,0.5454,-0.1473,0.3384,
13.572732,-0.5507,-0.8099,-0.0450,-0.3371,0.5619,-0.0621,0.5454,-0.1473,0.3384,
13.575484,-0.5734,-0.8275,-0.0100,-0.3371,0.5619,-0.0621,0.5454,-0.1473,0.3384,
13.576989,-0.5768,-0.8568,0.2201,-0.3371,0.5619,-0.0621,0.5454,-0.1473,0.3384,
13.606313,-0.5768,-0.8568,0.2201,-0.4310,-0.0983,1.9673,0.5454,-0.1473,0.3384,
13.609513,-0.5768,-0.8568,0.2201,-0.4310,-0.0983,1.9673,2.7250,0.1667,0.8619,
13.639095,-0.6069,-0.9235,0.6079,-0.4310,-0.0983,1.9673,2.7250,0.1667,0.8619,
13.641818,-0.5820,-0.9560,0.2541,-0.4310,-0.0983,1.9673,2.7250,0.1667,0.8619,
13.644220,-0.5597,-0.9428,-0.1466,-0.4310,-0.0983,1.9673,2.7250,0.1667,0.8619,
13.665082,-0.5597,-0.9428,-0.1466,-0.4310,-0.0983,1.9673,0.7116,-0.7282,1.1997,
13.667960,-0.5597,-0.9428,-0.1466,0.2513,-1.3358,-2.3264,0.7116,-0.7282,1.1997,
13.696356,-0.5861,-0.9142,-0.1165,0.2513,-1.3358,-2.3264,0.7116,-0.7282,1.1997,
13.699426,-0.6030,-0.9067,0.0503,0.2513,-1.3358,-2.3264,0.7116,-0.7282,1.1997,
13.700448,-0.5680,-0.9052,0.0591,0.2513,-1.3358,-2.3264,0.7116,-0.7282,1.1997,
13.726637,-0.5680,-0.9052,0.0591,0.6737,-1.4391,-0.8334,0.7116,-0.7282,1.1997,
13.728692,-0.5680,-0.9052,0.0591,0.6737,-1.4391,-0.8334,0.1160,-0.6971,1.2193,
13.752859,-0.5732,-0.9252,0.0369,0.6737,-1.4391,-0.8334,0.1160,-0.6971,1.2193,
13.755053,-0.5720,-0.9274,0.0821,0.6737,-1.4391,-0.8334,0.1160,-0.6971,1.2193,
13.756094,-0.5710,-0.9091,0.1378,0.6737,-1.4391,-0.8334,0.1160,-0.6971,1.2193,
13.784645,-0.5710,-0.9091,0.1378,0.6737,-1.4391,-0.8334,0.3445,0.1606,0.9639,
13.787380,-0.5710,-0.9091,0.1378,1.1034,-1.9275,-0.2468,0.3445,0.1606,0.9639,
13.813219,-0.5837,-0.8988,0.1129,1.1034,-1.9275,-0.2468,0.3445,0.1606,0.9639,
13.816032,-0.5492,-0.8852,0.0599,1.1034,-1.9275,-0.2468,0.3445,0.1606,0.9639,
13.817746,-0.5099,-0.8761,0.0811,1.1034,-1.9275,-0.2468,0.3445,0.1606,0.9639,
13.847754,-0.5099,-0.8761,0.0811,1.1034,-1.9275,-0.2468,-0.0373,-0.0270,0.6677,
13.850514,-0.5099,-0.8761,0.0811,2.0451,-1.9598,-0.8401,-0.0373,-0.0270,0.6677,
13.873289,-0.4935,-0.8563,0.1422,2.0451,-1.9598,-0.8401,-0.0373,-0.0270,0.6677,
13.876255,-0.4947,-0.8295,0.1397,2.0451,-1.9598,-0.8401,-0.0373,-0.0270,0.6677,
13.878015,-0.5246,-0.8297,0.0967,2.0451,-1.9598,-0.8401,-0.0373,-0.0270,0.6677,
13.905848,-0.5246,-0.8297,0.0967,2.0451,-1.9598,-0.8401,-0.5877,-0.2884,0.1998,
13.909350,-0.5246,-0.8297,0.0967,2.0577,-1.6606,-0.6293,-0.5877,-0.2884,0.1998,
13.934884,-0.5334,-0.8026,0.0630,2.0577,-1.6606,-0.6293,-0.5877,-0.2884,0.1998,
13.937917,-0.5167,-0.7452,0.0406,2.0577,-1.6606,-0.6293,-0.5877,-0.2884,0.1998,
13.939744,-0.5128,-0.6983,0.0564,2.0577,-1.6606,-0.6293,-0.5877,-0.2884,0.1998,
13.966362,-0.5128,-0.6983,0.0564,2.0577,-1.6606,-0.6293,-0.6739,-0.2908,-0.1869,
13.969269,-0.5128,-0.6983,0.0564,2.1418,-0.3182,-0.9384,-0.6739,-0.2908,-0.1869,
13.994281,-0.5123,-0.6494,0.0750,2.1418,-0.3182,-0.9384,-0.6739,-0.2908,-0.1869,
13.997374,-0.5424,-0.6360,0.0909,2.1418,-0.3182,-0.9384,-0.6739,-0.2908,-0.1869,
13.999581,-0.5668,-0.6333,0.0811,2.1418,-0.3182,-0.9384,-0.6739,-0.2908,-0.1869,
14.025335,-0.5668,-0.6333,0.0811,2.1418,-0.3182,-0.9384,-0.5309,0.0347,-0.4447,
14.030810,-0.5668,-0.6333,0.0811,1.4609,0.5278,-0.4716,-0.5309,0.0347,-0.4447,
14.053621,-0.6218,-0.6423,0.1053,1.4609,0.5278,-0.4716,-0.5309,0.0347,-0.4447,
14.055921,-0.6917,-0.6465,0.1371,1.4609,0.5278,-0.4716,-0.5309,0.0347,-0.4447,
14.058253,-0.7217,-0.6457,0.1380,1.4609,0.5278,-0.4716,-0.5309,0.0347,-0.4447,
14.085853,-0.7217,-0.6457,0.1380,1.4609,0.5278,-0.4716,-0.3654,0.0482,-0.2718,
14.089267,-0.7217,-0.6457,0.1380,-0.2020,0.5868,0.2824,-0.3654,0.0482,-0.2718,
14.113240,-0.7679,-0.6267,0.1688,-0.2020,0.5868,0.2824,-0.3654,0.0482,-0.2718,
14.115196,-0.7867,-0.6531,0.1620,-0.2020,0.5868,0.2824,-0.3654,0.0482,-0.2718,
14.116252,-0.7928,-0.6731,0.0674,-0.2020,0.5868,0.2824,-0.3654,0.0482,-0.2718,
14.145339,-0.7928,-0.6731,0.0674,-0.2020,0.5868,0.2824,-0.9371,-0.9927,0.0996,
14.148283,-0.7928,-0.6731,0.0674,-0.9625,0.3964,-0.3072,-0.9371,-0.9927,0.0996,
14.172925,-0.7171,-0.6597,-0.0161,-0.9625,0.3964,-0.3072,-0.9371,-0.9927,0.0996,
14.175703,-0.5869,-0.6680,0.0010,-0.9625,0.3964,-0.3072,-0.9371,-0.9927,0.0996,
14.176726,-0.4835,-0.7300,0.0518,-0.9625,0.3964,-0.3072,-0.9371,-0.9927,0.0996,
14.205229,-0.4835,-0.7300,0.0518,-0.9625,0.3964,-0.3072,-0.8296,-0.4882,-0.0531,
14.207774,-0.4835,-0.7300,0.0518,2.0356,-0.1279,-0.4507,-0.8296,-0.4882,-0.0531,
14.232925,-0.4710,-0.8255,0.0899,2.0356,-0.1279,-0.4507,-0.8296,-0.4882,-0.0531,
14.234883,-0.4906,-0.8983,0.1011,2.0356,-0.1279,-0.4507,-0.8296,-0.4882,-0.0531,
14.236106,-0.4930,-0.9301,0.0992,2.0356,-0.1279,-0.4507,-0.8296,-0.4882,-0.0531,
14.265942,-0.4930,-0.9301,0.0992,1.8712,-2.0015,0.1709,-0.8296,-0.4882,-0.0531,
14.268682,-0.4930,-0.9301,0.0992,1.8712,-2.0015,0.1709,-0.0086,0.4019,-0.2083,
14.294223,-0.4869,-0.9572,0.1175,1.8712,-2.0015,0.1709,-0.0086,0.4019,-0.2083,
14.296467,-0.4586,-0.9142,0.0945,1.8712,-2.0015,0.1709,-0.0086,0.4019,-0.2083,
14.298513,-0.4402,-0.8605,0.0073,1.8712,-2.0015,0.1709,-0.0086,0.4019,-0.2083,
14.324712,-0.4402,-0.8605,0.0073,2.2357,-1.1549,-0.4767,-0.0086,0.4019,-0.2083,
14.326708,-0.4402,-0.8605,0.0073,2.2357,-1.1549,-0.4767,0.0470,0.8515,-0.7104,
14.353771,-0.5160,-0.8194,-0.0559,2.2357,-1.1549,-0.4767,0.0470,0.8515,-0.7104,
14.356786,-0.5966,-0.7867,-0.0733,2.2357,-1.1549,-0.4767,0.0470,0.8515,-0.7104,
14.358808,-0.6973,-0.8285,-0.0635,2.2357,-1.1549,-0.4767,0.0470,0.8515,-0.7104,
14.386084,-0.6973,-0.8285,-0.0635,-0.5914,-0.5574,-0.7964,0.0470,0.8515,-0.7104,
14.388905,-0.6973,-0.8285,-0.0635,-0.5914,-0.5574,-0.7964,-0.3025,0.7244,-0.5870,
14.415127,-0.7872,-0.9093,-0.0464,-0.5914,-0.5574,-0.7964,-0.3025,0.7244,-0.5870,
14.418254,-0.8593,-0.9628,0.0420,-0.5914,-0.5574,-0.7964,-0.3025,0.7244,-0.5870,
14.420404,-0.8583,-0.8588,0.2433,-0.5914,-0.5574,-0.7964,-0.3025,0.7244,-0.5870,
14.445468,-0.8583,-0.8588,0.2433,-2.3408,-0.7139,2.3990,-0.3025,0.7244,-0.5870,
14.448717,-0.8583,-0.8588,0.2433,-2.3408,-0.7139,2.3990,0.3109,0.0292,-0.2205,
14.472555,-0.7176,-0.6582,0.1654,-2.3408,-0.7139,2.3990,0.3109,0.0292,-0.2205,
14.475451,-0.6616,-0.6330,-0.1138,-2.3408,-0.7139,2.3990,0.3109,0.0292,-0.2205,
14.478310,-0.6667,-0.6841,-0.2277,-2.3408,-0.7139,2.3990,0.3109,0.0292,-0.2205,
14.506527,-0.6667,-0.6841,-0.2277,-0.5096,1.0299,-2.4795,0.3109,0.0292,-0.2205,
14.509699,-0.6667,-0.6841,-0.2277,-0.5096,1.0299,-2.4795,-0.5169,-1.5321,0.0489,
14.533625,-0.6638,-0.7320,-0.1678,-0.5096,1.0299,-2.4795,-0.5169,-1.5321,0.0489,
14.535619,-0.6535,-0.7647,-0.0931,-0.5096,1.0299,-2.4795,-0.5169,-1.5321,0.0489,
14.536544,-0.6450,-0.7952,-0.0547,-0.5096,1.0299,-2.4795,-0.5169,-1.5321,0.0489,
14.566098,-0.6450,-0.7952,-0.0547,-0.2711,-0.0837,-0.8963,-0.5169,-1.5321,0.0489,
14.568332,-0.6450,-0.7952,-0.0547,-0.2711,-0.0837,-0.8963,-0.5089,-0.3800,0.1326,
14.593413,-0.6308,-0.8170,-0.0540,-0.2711,-0.0837,-0.8963,-0.5089,-0.3800,0.1326,
14.596061,-0.5939,-0.8114,-0.0623,-0.2711,-0.0837,-0.8963,-0.5089,-0.3800,0.1326,
14.597284,-0.5700,-0.8036,-0.0611,-0.2711,-0.0837,-0.8963,-0.5089,-0.3800,0.1326,
14.625413,-0.5700,-0.8036,-0.0611,-0.2711,-0.0837,-0.8963,0.0683,0.1752,0.0953,
14.627287,-0.5700,-0.8036,-0.0611,0.5210,-0.2067,-0.8743,0.0683,0.1752,0.0953,
14.654001,-0.5781,-0.8126,-0.0450,0.5210,-0.2067,-0.8743,0.0683,0.1752,0.0953,
14.656792,-0.6062,-0.8248,-0.0305,0.5210,-0.2067,-0.8743,0.0683,0.1752,0.0953,
14.659025,-0.6130,-0.8199,-0.0205,0.5210,-0.2067,-0.8743,0.0683,0.1752,0.0953,
14.684833,-0.6130,-0.8199,-0.0205,0.5210,-0.2067,-0.8743,0.1270,0.7378,0.0458,
14.688354,-0.6130,-0.8199,-0.0205,0.1368,-0.3944,-0.3942,0.1270,0.7378,0.0458,
14.712890,-0.6032,-0.7957,-0.0115,0.1368,-0.3944,-0.3942,0.1270,0.7378,0.0458,
14.716057,-0.6054,-0.7928,-0.0125,0.1368,-0.3944,-0.3942,0.1270,0.7378,0.0458,
14.718174,-0.6198,-0.7940,-0.0237,0.1368,-0.3944,-0.3942,0.1270,0.7378,0.0458,
14.746230,-0.6198,-0.7940,-0.0237,0.1368,-0.3944,-0.3942,0.1465,-0.0520,0.0538,
14.748289,-0.6198,-0.7940,-0.0237,0.0867,-0.1519,-0.2590,0.1465,-0.0520,0.0538,
14.774103,-0.6523,-0.7904,0.0215,0.0867,-0.1519,-0.2590,0.1465,-0.0520,0.0538,
14.777067,-0.6575,-0.7723,0.0086,0.0867,-0.1519,-0.2590,0.1465,-0.0520,0.0538,
14.778346,-0.6386,-0.7667,-0.0503,0.0867,-0.1519,-0.2590,0.1465,-0.0520,0.0538,
14.804900,-0.6386,-0.7667,-0.0503,0.0867,-0.1519,-0.2590,-0.0923,-0.5321,0.0348,
14.808078,-0.6386,-0.7667,-0.0503,-0.0726,0.0944,-0.6520,-0.0923,-0.5321,0.0348,
14.833320,-0.6223,-0.7667,-0.0679,-0.0726,0.0944,-0.6520,-0.0923,-0.5321,0.0348,
14.835053,-0.6233,-0.7706,-0.0586,-0.0726,0.0944,-0.6520,-0.0923,-0.5321,0.0348,
14.836212,-0.6294,-0.7789,-0.0476,-0.0726,0.0944,-0.6520,-0.0923,-0.5321,0.0348,
14.867045,-0.6294,-0.7789,-0.0476,0.0144,-0.0259,-0.7549,-0.0923,-0.5321,0.0348,
14.869908,-0.6294,-0.7789,-0.0476,0.0144,-0.0259,-0.7549,-0.0880,-0.3293,-0.0195,
14.892524,-0.6313,-0.7769,-0.0401,0.0144,-0.0259,-0.7549,-0.0880,-0.3293,-0.0195,
14.894741,-0.6338,-0.7591,-0.0347,0.0144,-0.0259,-0.7549,-0.0880,-0.3293,-0.0195,
14.896406,-0.6599,-0.7637,-0.0291,0.0144,-0.0259,-0.7549,-0.0880,-0.3293,-0.0195,
14.924875,-0.6599,-0.7637,-0.0291,-0.2957,0.1299,-0.6089,-0.0880,-0.3293,-0.0195,
14.926980,-0.6599,-0.7637,-0.0291,-0.2957,0.1299,-0.6089,0.0299,0.1135,0.0501,
14.952948,-0.6765,-0.7625,-0.0166,-0.2957,0.1299,-0.6089,0.0299,0.1135,0.0501,
14.954635,-0.6604,-0.7501,0.0090,-0.2957,0.1299,-0.6089,0.0299,0.1135,0.0501,
14.955640,-0.6470,-0.7637,0.0425,-0.2957,0.1299,-0.6089,0.0299,0.1135,0.0501,
14.985219,-0.6470,-0.7637,0.0425,-0.2957,0.1299,-0.6089,0.2864,0.1013,0.0776,
14.986881,-0.6470,-0.7637,0.0425,-0.1336,0.1019,0.1110,0.2864,0.1013,0.0776,
15.012814,-0.6181,-0.7654,0.0772,-0.1336,0.1019,0.1110,0.2864,0.1013,0.0776,
15.014175,-0.6149,-0.7701,0.0635,-0.1336,0.1019,0.1110,0.2864,0.1013,0.0776,
15.015036,-0.6360,-0.7659,0.0188,-0.1336,0.1019,0.1110,0.2864,0.1013,0.0776,
15.051507,-0.6360,-0.7659,0.0188,-0.0056,0.0587,-0.2280,0.2864,0.1013,0.0776,
15.054736,-0.6360,-0.7659,0.0188,-0.0056,0.0587,-0.2280,0.0940,-0.1534,0.0342,
15.073510,-0.6670,-0.7588,-0.0103,-0.0056,0.0587,-0.2280,0.0940,-0.1534,0.0342,
15.076126,-0.6834,-0.7498,0.0071,-0.0056,0.0587,-0.2280,0.0940,-0.1534,0.0342,
15.078588,-0.6628,-0.7354,0.0320,-0.0056,0.0587,-0.2280,0.0940,-0.1534,0.0342,
15.106750,-0.6628,-0.7354,0.0320,-0.2414,0.3309,-0.1725,0.0940,-0.1534,0.0342,
15.108606,-0.6628,-0.7354,0.0320,-0.2414,0.3309,-0.1725,-0.0056,-0.1626,0.0886,
15.133961,-0.6609,-0.7547,0.0410,-0.2414,0.3309,-0.1725,-0.0056,-0.1626,0.0886,
15.137149,-0.6506,-0.7801,0.0513,-0.2414,0.3309,-0.1725,-0.0056,-0.1626,0.0886,
15.139394,-0.6228,-0.7933,0.0625,-0.2414,0.3309,-0.1725,-0.0056,-0.1626,0.0886,
15.164831,-0.6228,-0.7933,0.0625,-0.2414,0.3309,-0.1725,0.1142,-0.0630,0.0959,
15.167969,-0.6228,-0.7933,0.0625,0.1944,-0.2774,0.0579,0.1142,-0.0630,0.0959,
15.193548,-0.5922,-0.7994,0.0674,0.1944,-0.2774,0.0579,0.1142,-0.0630,0.0959,
15.196880,-0.5781,-0.8067,0.0645,0.1944,-0.2774,0.0579,0.1142,-0.0630,0.0959,
15.198871,-0.5805,-0.8160,0.0574,0.1944,-0.2774,0.0579,0.1142,-0.0630,0.0959,
15.225001,-0.5805,-0.8160,0.0574,0.1944,-0.2774,0.0579,0.2339,0.1252,0.0257,
15.227518,-0.5805,-0.8160,0.0574,0.6375,-0.5296,-0.0581,0.2339,0.1252,0.0257,
15.253360,-0.5891,-0.8158,0.0606,0.6375,-0.5296,-0.0581,0.2339,0.1252,0.0257,
15.255577,-0.6108,-0.8006,0.0738,0.6375,-0.5296,-0.0581,0.2339,0.1252,0.0257,
15.256904,-0.6215,-0.7879,0.0806,0.6375,-0.5296,-0.0581,0.2339,0.1252,0.0257,
15.285582,-0.6215,-0.7879,0.0806,0.2620,-0.2822,0.1094,0.2339,0.1252,0.0257,
15.288715,-0.6215,-0.7879,0.0806,0.2620,-0.2822,0.1094,0.3903,0.2864,0.0654,
15.313076,-0.6252,-0.7825,0.0757,0.2620,-0.2822,0.1094,0.3903,0.2864,0.0654,
15.315576,-0.6152,-0.7701,0.0657,0.2620,-0.2822,0.1094,0.3903,0.2864,0.0654,
15.316926,-0.6189,-0.7628,0.0533,0.2620,-0.2822,0.1094,0.3903,0.2864,0.0654,
15.346310,-0.6189,-0.7628,0.0533,0.3116,-0.0619,-0.2240,0.3903,0.2864,0.0654,
15.350144,-0.6189,-0.7628,0.0533,0.3116,-0.0619,-0.2240,0.3622,0.3102,-0.0147,
15.376315,-0.6418,-0.7579,0.0533,0.3116,-0.0619,-0.2240,0.3622,0.3102,-0.0147,
15.379209,-0.6575,-0.7476,0.0667,0.3116,-0.0619,-0.2240,0.3622,0.3102,-0.0147,
15.381351,-0.6785,-0.7432,0.0730,0.3116,-0.0619,-0.2240,0.3622,0.3102,-0.0147,
15.406621,-0.6785,-0.7432,0.0730,-0.2682,0.1225,-0.0637,0.3622,0.3102,-0.0147,
15.408359,-0.6785,-0.7432,0.0730,-0.2682,0.1225,-0.0637,0.2687,0.1832,-0.0195,
15.434096,-0.6750,-0.7271,0.0718,-0.2682,0.1225,-0.0637,0.2687,0.1832,-0.0195,
15.435742,-0.6777,-0.7171,0.0586,-0.2682,0.1225,-0.0637,0.2687,0.1832,-0.0195,
15.436607,-0.6892,-0.7242,0.0476,-0.2682,0.1225,-0.0637,0.2687,0.1832,-0.0195,
15.465177,-0.6892,-0.7242,0.0476,-0.3667,0.2980,-0.3614,0.2687,0.1832,-0.0195,
15.467229,-0.6892,-0.7242,0.0476,-0.3667,0.2980,-0.3614,0.1080,-0.0062,0.0452,
15.492782,-0.6914,-0.7288,0.0496,-0.3667,0.2980,-0.3614,0.1080,-0.0062,0.0452,
15.495697,-0.6790,-0.7325,0.0594,-0.3667,0.2980,-0.3614,0.1080,-0.0062,0.0452,
15.497420,-0.6567,-0.7427,0.0728,-0.3667,0.2980,-0.3614,0.1080,-0.0062,0.0452,
15.525173,-0.6567,-0.7427,0.0728,-0.3667,0.2980,-0.3614,0.1343,0.0787,0.0629,
15.528301,-0.6567,-0.7427,0.0728,-0.0209,0.0873,-0.1587,0.1343,0.0787,0.0629,
15.558017,-0.6418,-0.7522,0.0816,-0.0209,0.0873,-0.1587,0.1343,0.0787,0.0629,
15.560658,-0.6406,-0.7606,0.0784,-0.0209,0.0873,-0.1587,0.1343,0.0787,0.0629,
15.562648,-0.6462,-0.7652,0.0845,-0.0209,0.0873,-0.1587,0.1343,0.0787,0.0629,
15.584766,-0.6462,-0.7652,0.0845,0.1032,-0.1551,-0.0736,0.1343,0.0787,0.0629,
15.588825,-0.6462,-0.7652,0.0845,0.1032,-0.1551,-0.0736,0.1135,0.0598,0.0165,
15.612867,-0.6389,-0.7610,0.0850,0.1032,-0.1551,-0.0736,0.1135,0.0598,0.0165,
15.614561,-0.6299,-0.7679,0.0809,0.1032,-0.1551,-0.0736,0.1135,0.0598,0.0165,
15.616042,-0.6367,-0.7777,0.0840,0.1032,-0.1551,-0.0736,0.1135,0.0598,0.0165,
15.645538,-0.6367,-0.7777,0.0840,0.1032,-0.1551,-0.0736,0.0952,0.0189,-0.0055,
15.647269,-0.6367,-0.7777,0.0840,0.2003,-0.2842,-0.1084,0.0952,0.0189,-0.0055,
15.672642,-0.6274,-0.7757,0.0950,0.2003,-0.2842,-0.1084,0.0952,0.0189,-0.0055,
15.675213,-0.6250,-0.7588,0.0994,0.2003,-0.2842,-0.1084,0.0952,0.0189,-0.0055,
15.676836,-0.6350,-0.7520,0.0970,0.2003,-0.2842,-0.1084,0.0952,0.0189,-0.0055,
15.705714,-0.6350,-0.7520,0.0970,0.1842,-0.0070,-0.0039,0.0952,0.0189,-0.0055,
15.708493,-0.6350,-0.7520,0.0970,0.1842,-0.0070,-0.0039,0.1398,0.1215,-0.0171,
15.734406,-0.6492,-0.7552,0.0938,0.1842,-0.0070,-0.0039,0.1398,0.1215,-0.0171,
15.738049,-0.6643,-0.7566,0.0970,0.1842,-0.0070,-0.0039,0.1398,0.1215,-0.0171,
15.740323,-0.6685,-0.7422,0.0970,0.1842,-0.0070,-0.0039,0.1398,0.1215,-0.0171,
15.766357,-0.6685,-0.7422,0.0970,0.1842,-0.0070,-0.0039,0.1282,0.0812,0.0110,
15.769800,-0.6685,-0.7422,0.0970,-0.1398,0.0825,-0.0254,0.1282,0.0812,0.0110,
15.796244,-0.6707,-0.7371,0.0919,-0.1398,0.0825,-0.0254,0.1282,0.0812,0.0110,
15.798955,-0.6724,-0.7413,0.0860,-0.1398,0.0825,-0.0254,0.1282,0.0812,0.0110,
15.801318,-0.6616,-0.7430,0.0840,-0.1398,0.0825,-0.0254,0.1282,0.0812,0.0110,
15.825417,-0.6616,-0.7430,0.0840,-0.1398,0.0825,-0.0254,0.0470,0.0134,0.0104,
15.828333,-0.6616,-0.7430,0.0840,-0.0628,0.0641,-0.1709,0.0470,0.0134,0.0104,
15.856253,-0.6518,-0.7513,0.1038,-0.0628,0.0641,-0.1709,0.0470,0.0134,0.0104,
15.858860,-0.6487,-0.7547,0.1055,-0.0628,0.0641,-0.1709,0.0470,0.0134,0.0104,
15.860459,-0.6465,-0.7522,0.0953,-0.0628,0.0641,-0.1709,0.0470,0.0134,0.0104,
15.885188,-0.6465,-0.7522,0.0953,-0.0628,0.0641,-0.1709,0.0128,0.0115,-0.0018,
15.887651,-0.6465,-0.7522,0.0953,0.0857,-0.0298,-0.0816,0.0128,0.0115,-0.0018,
15.913924,-0.6501,-0.7437,0.0867,0.0857,-0.0298,-0.0816,0.0128,0.0115,-0.0018,
15.916120,-0.6553,-0.7483,0.0916,0.0857,-0.0298,-0.0816,0.0128,0.0115,-0.0018,
15.918295,-0.6584,-0.7542,0.1004,0.0857,-0.0298,-0.0816,0.0128,0.0115,-0.0018,
15.944830,-0.6584,-0.7542,0.1004,0.0857,-0.0298,-0.0816,0.3634,0.5308,0.0715,
15.945976,-0.6584,-0.7542,0.1004,-0.0238,-0.0552,-0.0270,0.3634,0.5308,0.0715,
15.971977,-0.6721,-0.7300,0.1852,-0.0238,-0.0552,-0.0270,0.3634,0.5308,0.0715,
15.973195,-0.6452,-0.7505,0.1011,-0.0238,-0.0552,-0.0270,0.3634,0.5308,0.0715,
15.974024,-0.6223,-0.7794,0.0572,-0.0238,-0.0552,-0.0270,0.3634,0.5308,0.0715,
16.005936,-0.6223,-0.7794,0.0572,-0.0238,-0.0552,-0.0270,-0.1687,-0.2603,-0.0580,
16.007341,-0.6223,-0.7794,0.0572,0.3765,-0.3343,-0.3911,-0.1687,-0.2603,-0.0580,
