
time,gFx,gFy,gFz,ax,ay,az,wx,wy,wz,
0.067936,0.0000,0.0000,0.0000,0.0000,0.0000,0.0000,0.3526,-2.7047,0.7766,
0.090888,0.5500,0.1774,0.3411,0.0000,0.0000,0.0000,0.3526,-2.7047,0.7766,
0.092340,0.5286,0.1453,0.1570,0.0000,0.0000,0.0000,0.3526,-2.7047,0.7766,
0.093047,0.3648,-0.0866,0.2475,0.0000,0.0000,0.0000,0.3526,-2.7047,0.7766,
0.093936,0.4651,0.0383,0.5478,0.0000,0.0000,0.0000,0.3526,-2.7047,0.7766,
0.094604,0.7084,0.0987,0.6577,0.0000,0.0000,0.0000,0.3526,-2.7047,0.7766,
0.108128,0.7084,0.0987,0.6577,0.0000,0.0000,0.0000,0.3249,-2.8964,1.9186,
0.110042,0.7084,0.0987,0.6577,0.0000,0.0000,-0.0000,0.3249,-2.8964,1.9186,
0.147918,0.7084,0.0987,0.6577,0.0000,0.0000,-0.0000,1.1633,-2.8815,2.0081,
0.150271,0.7084,0.0987,0.6577,0.7110,0.2752,0.0345,1.1633,-2.8815,2.0081,
0.170003,0.7044,0.0384,0.4264,0.7110,0.2752,0.0345,1.1633,-2.8815,2.0081,
0.172400,0.5974,0.0855,0.2187,0.7110,0.2752,0.0345,1.1633,-2.8815,2.0081,
0.173923,0.6368,0.0386,0.2577,0.7110,0.2752,0.0345,1.1633,-2.8815,2.0081,
0.175231,0.7514,-0.0177,0.5017,0.7110,0.2752,0.0345,1.1633,-2.8815,2.0081,
0.188312,0.7514,-0.0177,0.5017,0.2153,0.3723,0.2714,1.1633,-2.8815,2.0081,
0.190596,0.7514,-0.0177,0.5017,0.2153,0.3723,0.2714,0.6349,-2.1497,2.3372,
0.227814,0.7514,-0.0177,0.5017,1.1845,0.4086,1.1562,0.6349,-2.1497,2.3372,
0.229938,0.7514,-0.0177,0.5017,1.1845,0.4086,1.1562,-0.7254,1.0259,3.0531,
0.267566,0.8311,-0.0338,0.6191,1.1845,0.4086,1.1562,-0.7254,1.0259,3.0531,
0.270036,1.0531,0.1101,0.6014,1.1845,0.4086,1.1562,-0.7254,1.0259,3.0531,
0.271491,1.1587,0.1622,0.6216,1.1845,0.4086,1.1562,-0.7254,1.0259,3.0531,
0.272765,1.1587,0.1622,0.6216,1.1845,0.4086,1.1562,-1.0013,1.7204,2.6068,
0.274427,1.1587,0.1622,0.6216,1.0390,0.8349,0.4969,-1.0013,1.7204,2.6068,
0.306522,1.1587,0.1622,0.6216,2.9831,2.0042,1.0050,-1.0013,1.7204,2.6068,
0.308740,1.1587,0.1622,0.6216,2.9831,2.0042,1.0050,-0.6615,0.3889,2.2914,
0.345557,1.0827,0.1180,0.6267,2.9831,2.0042,1.0050,-0.6615,0.3889,2.2914,
0.347248,0.8897,-0.0681,0.6912,2.9831,2.0042,1.0050,-0.6615,0.3889,2.2914,
0.348480,0.8899,-0.1243,0.7609,2.9831,2.0042,1.0050,-0.6615,0.3889,2.2914,
0.349605,1.0460,-0.0648,0.7219,2.9831,2.0042,1.0050,-0.6615,0.3889,2.2914,
0.350442,1.1206,-0.1157,0.7277,2.9831,2.0042,1.0050,-0.6615,0.3889,2.2914,
0.351202,1.1206,-0.1157,0.7277,2.9831,2.0042,1.0050,0.4251,-1.7885,2.2723,
0.351878,1.1206,-0.1157,0.7277,1.3339,0.4853,2.1249,0.4251,-1.7885,2.2723,
0.385566,1.1206,-0.1157,0.7277,1.3339,0.4853,2.1249,1.1665,-2.6216,2.2499,
0.387640,1.1206,-0.1157,0.7277,0.7968,0.8149,2.3360,1.1665,-2.6216,2.2499,
0.422565,1.0474,-0.2631,0.7214,0.7968,0.8149,2.3360,1.1665,-2.6216,2.2499,
0.424968,1.1335,-0.3343,0.7668,0.7968,0.8149,2.3360,1.1665,-2.6216,2.2499,
0.426486,1.2765,-0.2978,0.7217,0.7968,0.8149,2.3360,1.1665,-2.6216,2.2499,
0.427828,1.3181,-0.2179,0.5455,0.7968,0.8149,2.3360,1.1665,-2.6216,2.2499,
0.429168,1.3181,-0.2179,0.5455,0.7968,0.8149,2.3360,1.5755,-1.7576,2.2371,
0.430846,1.3181,-0.2179,0.5455,1.7087,-0.4182,2.4146,1.5755,-1.7576,2.2371,
0.463943,1.3181,-0.2179,0.5455,1.7087,-0.4182,2.4146,2.0400,-2.5640,1.7705,
0.465317,1.3181,-0.2179,0.5455,1.1880,-0.1030,2.6405,2.0400,-2.5640,1.7705,
0.500043,1.2160,-0.2264,0.3713,1.1880,-0.1030,2.6405,2.0400,-2.5640,1.7705,
0.501531,1.0984,-0.3699,0.4176,1.1880,-0.1030,2.6405,2.0400,-2.5640,1.7705,
0.502344,0.9888,-0.4871,0.4815,1.1880,-0.1030,2.6405,2.0400,-2.5640,1.7705,
0.503299,1.0489,-0.4607,0.4022,1.1880,-0.1030,2.6405,2.0400,-2.5640,1.7705,
0.504376,1.0489,-0.4607,0.4022,1.1880,-0.1030,2.6405,2.5865,-3.0839,1.8983,
0.505280,1.0489,-0.4607,0.4022,0.1438,-1.2820,0.3388,2.5865,-3.0839,1.8983,
0.544669,1.0489,-0.4607,0.4022,0.1438,-1.2820,0.3388,2.8070,-1.8173,1.8067,
0.546532,1.0489,-0.4607,0.4022,0.1086,-0.8312,0.6128,2.8070,-1.8173,1.8067,
0.582754,1.1344,-0.3844,0.2640,0.1086,-0.8312,0.6128,2.8070,-1.8173,1.8067,
0.584543,1.0767,-0.3898,0.1844,0.1086,-0.8312,0.6128,2.8070,-1.8173,1.8067,
0.585715,1.0552,-0.3432,0.0124,0.1086,-0.8312,0.6128,2.8070,-1.8173,1.8067,
0.586888,1.0552,-0.3432,0.0124,0.1086,-0.8312,0.6128,1.9708,-0.5134,1.2336,
0.588578,1.0552,-0.3432,0.0124,0.4784,0.3541,-2.6782,1.9708,-0.5134,1.2336,
0.622578,1.0552,-0.3432,0.0124,0.4784,0.3541,-2.6782,0.6956,-0.1597,0.8246,
0.624663,1.0552,-0.3432,0.0124,-2.1500,1.2739,-4.5994,0.6956,-0.1597,0.8246,
0.662266,1.0412,-0.2514,-0.1186,-2.1500,1.2739,-4.5994,0.6956,-0.1597,0.8246,
0.664261,0.9056,-0.2140,-0.3546,-2.1500,1.2739,-4.5994,0.6956,-0.1597,0.8246,
0.665807,0.6603,-0.2753,-0.2418,-2.1500,1.2739,-4.5994,0.6956,-0.1597,0.8246,
0.667261,0.4498,-0.3755,0.0106,-2.1500,1.2739,-4.5994,0.6956,-0.1597,0.8246,
0.668542,0.5359,-0.4863,0.1439,-2.1500,1.2739,-4.5994,0.6956,-0.1597,0.8246,
0.669685,0.5359,-0.4863,0.1439,-2.1500,1.2739,-4.5994,0.1790,-0.5582,1.3966,
0.670811,0.5359,-0.4863,0.1439,-1.7837,1.6096,-3.9728,0.1790,-0.5582,1.3966,
0.702187,0.5359,-0.4863,0.1439,-1.7837,1.6096,-3.9728,0.5209,-1.2005,1.8749,
0.703783,0.5359,-0.4863,0.1439,-1.3872,2.0310,-3.2639,0.5209,-1.2005,1.8749,
0.738902,0.8888,-0.5203,0.4744,-1.3872,2.0310,-3.2639,0.5209,-1.2005,1.8749,
0.741265,0.9756,-0.5919,0.2791,-1.3872,2.0310,-3.2639,0.5209,-1.2005,1.8749,
0.742754,0.8204,-0.6540,-0.1905,-1.3872,2.0310,-3.2639,0.5209,-1.2005,1.8749,
0.744463,0.5031,-0.7786,-0.2881,-1.3872,2.0310,-3.2639,0.5209,-1.2005,1.8749,
0.745960,0.5031,-0.7786,-0.2881,-1.3872,2.0310,-3.2639,0.2056,-0.4282,1.7833,
0.747362,0.5031,-0.7786,-0.2881,-1.9584,-1.3395,-2.3254,0.2056,-0.4282,1.7833,
0.781334,0.5031,-0.7786,-0.2881,-1.9584,-1.3395,-2.3254,0.2504,-0.7723,1.9676,
0.783079,0.5031,-0.7786,-0.2881,-1.4186,-0.6464,-1.9517,0.2504,-0.7723,1.9676,
0.821581,0.5088,-0.5717,0.0815,-1.4186,-0.6464,-1.9517,0.2504,-0.7723,1.9676,
0.823344,0.9327,-0.5118,0.2797,-1.4186,-0.6464,-1.9517,0.2504,-0.7723,1.9676,
0.824688,0.9315,-0.5641,0.2466,-1.4186,-0.6464,-1.9517,0.2504,-0.7723,1.9676,
0.826034,0.9315,-0.5641,0.2466,-1.4186,-0.6464,-1.9517,0.0618,-0.3994,1.6714,
0.827320,0.9315,-0.5641,0.2466,0.8139,1.1420,1.5967,0.0618,-0.3994,1.6714,
0.861245,0.9315,-0.5641,0.2466,0.8139,1.1420,1.5967,-0.1395,-0.7499,1.3923,
0.862908,0.9315,-0.5641,0.2466,-0.5738,3.1127,0.4134,-0.1395,-0.7499,1.3923,
0.896218,0.7449,-0.5847,0.2893,-0.5738,3.1127,0.4134,-0.1395,-0.7499,1.3923,
0.897667,0.5739,-0.5449,0.1007,-0.5738,3.1127,0.4134,-0.1395,-0.7499,1.3923,
0.898563,0.6887,-0.1739,-0.0188,-0.5738,3.1127,0.4134,-0.1395,-0.7499,1.3923,
0.900786,0.7650,-0.2477,0.0191,-0.5738,3.1127,0.4134,-0.1395,-0.7499,1.3923,
0.901874,0.6738,-0.4738,-0.0158,-0.5738,3.1127,0.4134,-0.1395,-0.7499,1.3923,
0.902833,0.6738,-0.4738,-0.0158,-0.5738,3.1127,0.4134,-0.1001,-0.9086,0.8491,
0.905349,0.6738,-0.4738,-0.0158,-0.3351,3.1133,0.6453,-0.1001,-0.9086,0.8491,
0.906612,0.3973,-0.7705,0.1724,-0.3351,3.1133,0.6453,-0.1001,-0.9086,0.8491,
0.940069,0.3973,-0.7705,0.1724,-0.3351,3.1133,0.6453,-1.0674,-0.1832,0.3516,
0.941732,0.3973,-0.7705,0.1724,-0.2260,2.9855,0.9107,-1.0674,-0.1832,0.3516,
0.980290,0.3973,-0.7705,0.1724,-0.2260,2.9855,0.9107,-1.5031,-0.3749,0.2728,
0.982097,0.3973,-0.7705,0.1724,-0.1412,2.8294,1.3022,-1.5031,-0.3749,0.2728,
1.019628,0.3973,-0.7705,0.1724,-0.1412,2.8294,1.3022,-0.5454,-0.5891,-0.2865,
1.022033,0.3973,-0.7705,0.1724,-1.0694,0.2822,0.7962,-0.5454,-0.5891,-0.2865,
1.059713,0.2536,-0.6426,-0.6088,-1.0694,0.2822,0.7962,-0.5454,-0.5891,-0.2865,
1.061905,0.1273,-0.7169,-0.5118,-1.0694,0.2822,0.7962,-0.5454,-0.5891,-0.2865,
1.062966,0.0963,-0.7149,0.1513,-1.0694,0.2822,0.7962,-0.5454,-0.5891,-0.2865,
1.064231,0.0963,-0.7149,0.1513,-1.0694,0.2822,0.7962,-1.5361,-2.1134,1.1133,
1.065663,0.0963,-0.7149,0.1513,-4.5195,-0.2921,-1.5374,-1.5361,-2.1134,1.1133,
1.099452,0.0963,-0.7149,0.1513,-3.1908,0.3261,-0.6216,-1.5361,-2.1134,1.1133,
1.101848,0.0963,-0.7149,0.1513,-3.1908,0.3261,-0.6216,-0.3409,-3.5739,3.0350,
1.138461,0.1977,-0.5903,0.2996,-3.1908,0.3261,-0.6216,-0.3409,-3.5739,3.0350,
1.140295,0.4488,-0.7755,-0.6158,-3.1908,0.3261,-0.6216,-0.3409,-3.5739,3.0350,
1.141092,0.5849,-1.0604,-0.9156,-3.1908,0.3261,-0.6216,-0.3409,-3.5739,3.0350,
1.141962,0.5849,-1.0604,-0.9156,-3.1908,0.3261,-0.6216,0.4293,-1.7033,2.1466,
1.143077,0.5849,-1.0604,-0.9156,0.0690,-0.3841,-1.2321,0.4293,-1.7033,2.1466,
1.177335,0.5849,-1.0604,-0.9156,0.0690,-0.3841,-1.2321,-0.7382,-0.2162,0.5369,
1.178862,0.5849,-1.0604,-0.9156,0.6376,-2.0942,0.8258,-0.7382,-0.2162,0.5369,
1.217752,0.5849,-1.0604,-0.9156,0.6376,-2.0942,0.8258,-0.2588,0.9598,0.5092,
1.220880,0.5849,-1.0604,-0.9156,0.6413,-1.9350,0.7189,-0.2588,0.9598,0.5092,
1.222267,0.5617,-1.2263,-0.2242,0.6413,-1.9350,0.7189,-0.2588,0.9598,0.5092,
1.223338,0.5971,-1.1100,-0.0842,0.6413,-1.9350,0.7189,-0.2588,0.9598,0.5092,
1.226348,0.2016,-0.6499,-0.3566,0.6413,-1.9350,0.7189,-0.2588,0.9598,0.5092,
1.227712,-0.3759,-0.1347,-0.1771,0.6413,-1.9350,0.7189,-0.2588,0.9598,0.5092,
1.228755,0.0465,-0.2730,-0.2003,0.6413,-1.9350,0.7189,-0.2588,0.9598,0.5092,
1.256582,0.0465,-0.2730,-0.2003,0.6413,-1.9350,0.7189,0.7915,0.3633,1.9218,
1.257996,0.0465,-0.2730,-0.2003,1.1430,-1.4928,0.3919,0.7915,0.3633,1.9218,
1.297922,0.0465,-0.2730,-0.2003,1.1430,-1.4928,0.3919,0.8054,-0.3515,1.4158,
1.299617,0.2150,-0.1262,-0.3615,1.1430,-1.4928,0.3919,0.8054,-0.3515,1.4158,
1.300813,0.3313,-0.1264,-0.2201,1.1430,-1.4928,0.3919,0.8054,-0.3515,1.4158,
1.302240,0.2409,-0.4521,-0.3965,1.1430,-1.4928,0.3919,0.8054,-0.3515,1.4158,
1.303287,-0.0058,-0.6807,-0.4172,1.1430,-1.4928,0.3919,0.8054,-0.3515,1.4158,
1.304505,-0.0058,-0.6807,-0.4172,-3.0042,6.4114,-0.0718,0.8054,-0.3515,1.4158,
1.336612,-0.0058,-0.6807,-0.4172,-3.0042,6.4114,-0.0718,0.4272,0.3004,1.3881,
1.338610,-0.0058,-0.6807,-0.4172,-0.3357,4.0022,-1.1420,0.4272,0.3004,1.3881,
1.376957,-0.0058,-0.6807,-0.4172,-0.3357,4.0022,-1.1420,-0.3451,-0.5528,2.3394,
1.379031,-0.0058,-0.6807,-0.4172,0.4500,-14.9620,-3.1864,-0.3451,-0.5528,2.3394,
1.381348,0.0333,-1.4786,-0.4385,0.4500,-14.9620,-3.1864,-0.3451,-0.5528,2.3394,
1.384066,0.0364,-3.5330,-0.6957,0.4500,-14.9620,-3.1864,-0.3451,-0.5528,2.3394,
1.385851,0.4962,-2.3230,-0.6200,0.4500,-14.9620,-3.1864,-0.3451,-0.5528,2.3394,
1.387464,0.7547,-0.7499,-0.6107,0.4500,-14.9620,-3.1864,-0.3451,-0.5528,2.3394,
1.415600,0.7547,-0.7499,-0.6107,0.4500,-14.9620,-3.1864,-0.6029,-2.3734,0.9396,
1.418295,0.7547,-0.7499,-0.6107,0.9908,-14.2701,-2.7364,-0.6029,-2.3734,0.9396,
1.455272,0.7547,-0.7499,-0.6107,0.9908,-14.2701,-2.7364,-0.1417,-0.5443,-1.0684,
1.457946,0.7547,-0.7499,-0.6107,0.8715,3.0141,0.1252,-0.1417,-0.5443,-1.0684,
1.459185,0.2087,-0.4982,-0.3173,0.8715,3.0141,0.1252,-0.1417,-0.5443,-1.0684,
1.460265,-0.3161,-0.7333,0.0294,0.8715,3.0141,0.1252,-0.1417,-0.5443,-1.0684,
1.461460,-0.5137,-1.0499,-0.1253,0.8715,3.0141,0.1252,-0.1417,-0.5443,-1.0684,
1.462512,-0.5318,-1.2866,-0.5750,0.8715,3.0141,0.1252,-0.1417,-0.5443,-1.0684,
1.494417,-0.5318,-1.2866,-0.5750,0.8715,3.0141,0.1252,-0.1246,-0.2311,-0.1906,
1.495548,-0.5318,-1.2866,-0.5750,0.7905,2.8534,0.1754,-0.1246,-0.2311,-0.1906,
1.534534,-0.5318,-1.2866,-0.5750,0.7905,2.8534,0.1754,-0.2152,0.1268,0.0427,
1.535380,-0.5318,-1.2866,-0.5750,-4.9441,-2.0042,-0.4719,-0.2152,0.1268,0.0427,
1.536132,-0.1314,-1.1522,-0.4253,-4.9441,-2.0042,-0.4719,-0.2152,0.1268,0.0427,
1.536706,0.3511,-0.8217,0.0948,-4.9441,-2.0042,-0.4719,-0.2152,0.1268,0.0427,
1.537234,0.1518,-0.8095,0.2346,-4.9441,-2.0042,-0.4719,-0.2152,0.1268,0.0427,
1.537752,-0.0784,-1.0758,-0.0381,-4.9441,-2.0042,-0.4719,-0.2152,0.1268,0.0427,
1.573934,-0.0784,-1.0758,-0.0381,-4.9441,-2.0042,-0.4719,0.3761,-0.4250,-0.2290,
1.574808,-0.0784,-1.0758,-0.0381,0.2442,0.5620,3.8673,0.3761,-0.4250,-0.2290,
1.616959,-0.1458,-1.2602,0.0626,0.2442,0.5620,3.8673,0.3761,-0.4250,-0.2290,
1.618643,-0.0312,-1.1317,0.2896,0.2442,0.5620,3.8673,0.3761,-0.4250,-0.2290,
1.619720,0.0589,-0.9561,0.1796,0.2442,0.5620,3.8673,0.3761,-0.4250,-0.2290,
1.620843,0.0589,-0.9561,0.1796,0.2442,0.5620,3.8673,0.5390,0.1375,-0.1949,
1.625083,0.0589,-0.9561,0.1796,-1.5515,-1.4219,4.2667,0.5390,0.1375,-0.1949,
1.653691,0.0589,-0.9561,0.1796,-1.5515,-1.4219,4.2667,0.9950,0.5998,-0.2269,
1.654806,0.0589,-0.9561,0.1796,-1.5582,-0.1079,1.8527,0.9950,0.5998,-0.2269,
1.694442,0.0589,-0.9561,0.1796,-1.5582,-0.1079,1.8527,1.1825,0.6903,-0.0916,
1.696383,0.0589,-0.9561,0.1796,-1.5795,-0.0269,1.3129,1.1825,0.6903,-0.0916,
1.698037,-0.0168,-0.9715,0.0496,-1.5795,-0.0269,1.3129,1.1825,0.6903,-0.0916,
1.699026,-0.0278,-0.9827,-0.0073,-1.5795,-0.0269,1.3129,1.1825,0.6903,-0.0916,
1.699999,-0.0515,-1.0176,-0.1026,-1.5795,-0.0269,1.3129,1.1825,0.6903,-0.0916,
1.701131,-0.0131,-1.0575,-0.2614,-1.5795,-0.0269,1.3129,1.1825,0.6903,-0.0916,
1.702373,0.1315,-1.0582,-0.2750,-1.5795,-0.0269,1.3129,1.1825,0.6903,-0.0916,
1.732740,0.1315,-1.0582,-0.2750,-1.5795,-0.0269,1.3129,0.7297,0.6424,0.1023,
1.734956,0.1315,-1.0582,-0.2750,-1.5137,0.0168,0.9614,0.7297,0.6424,0.1023,
1.774411,0.1315,-1.0582,-0.2750,-1.5137,0.0168,0.9614,0.2354,0.4517,0.0139,
1.775894,0.1315,-1.0582,-0.2750,-0.1471,-0.4321,-1.4494,0.2354,0.4517,0.0139,
1.777774,0.2065,-1.0020,-0.2445,-0.1471,-0.4321,-1.4494,0.2354,0.4517,0.0139,
1.779121,0.1525,-0.9302,-0.2191,-0.1471,-0.4321,-1.4494,0.2354,0.4517,0.0139,
1.780516,0.0220,-0.9248,-0.2103,-0.1471,-0.4321,-1.4494,0.2354,0.4517,0.0139,
1.781929,-0.0974,-0.9954,-0.1441,-0.1471,-0.4321,-1.4494,0.2354,0.4517,0.0139,
1.812339,-0.0974,-0.9954,-0.1441,-0.1471,-0.4321,-1.4494,-0.3110,0.1907,0.1652,
1.814195,-0.0974,-0.9954,-0.1441,-0.8688,0.4190,-0.6371,-0.3110,0.1907,0.1652,
1.852722,-0.0974,-0.9954,-0.1441,-0.8688,0.4190,-0.6371,-0.4378,0.1907,0.3559,
1.855516,-0.0974,-0.9954,-0.1441,-0.4809,0.1804,1.2192,-0.4378,0.1907,0.3559,
1.857358,-0.1287,-1.0384,-0.0488,-0.4809,0.1804,1.2192,-0.4378,0.1907,0.3559,
1.858425,0.0115,-0.9727,0.0084,-0.4809,0.1804,1.2192,-0.4378,0.1907,0.3559,
1.859791,0.2688,-0.9079,-0.0007,-0.4809,0.1804,1.2192,-0.4378,0.1907,0.3559,
1.861058,0.4063,-0.9329,0.0059,-0.4809,0.1804,1.2192,-0.4378,0.1907,0.3559,
1.890974,0.4063,-0.9329,0.0059,-0.4809,0.1804,1.2192,-0.1619,0.0576,-0.0372,
1.892047,0.4063,-0.9329,0.0059,-0.4812,0.1642,1.2352,-0.1619,0.0576,-0.0372,
1.922869,0.3230,-0.9526,-0.0371,-0.4812,0.1642,1.2352,-0.1619,0.0576,-0.0372,
1.924718,0.0587,-1.0101,-0.0610,-0.4812,0.1642,1.2352,-0.1619,0.0576,-0.0372,
1.926070,-0.1930,-1.1295,-0.1978,-0.4812,0.1642,1.2352,-0.1619,0.0576,-0.0372,
1.930964,-0.1930,-1.1295,-0.1978,-0.4812,0.1642,1.2352,0.0171,-0.1384,-0.3057,
1.933110,-0.1930,-1.1295,-0.1978,1.4383,0.2216,1.0319,0.0171,-0.1384,-0.3057,
1.972490,-0.1930,-1.1295,-0.1978,1.4383,0.2216,1.0319,-0.1044,-0.2982,0.0970,
1.973779,-0.1930,-1.1295,-0.1978,-2.2598,-0.7515,0.1443,-0.1044,-0.2982,0.0970,
2.008875,-0.2404,-1.0919,-0.1976,-2.2598,-0.7515,0.1443,-0.1044,-0.2982,0.0970,
2.010428,0.0499,-0.9793,0.0167,-2.2598,-0.7515,0.1443,-0.1044,-0.2982,0.0970,
2.011396,0.2790,-0.9820,0.1249,-2.2598,-0.7515,0.1443,-0.1044,-0.2982,0.0970,
2.012163,0.2986,-1.0118,0.0619,-2.2598,-0.7515,0.1443,-0.1044,-0.2982,0.0970,
2.012992,0.2986,-1.0118,0.0619,-2.2598,-0.7515,0.1443,0.3292,-0.5912,0.1311,
2.014017,0.2986,-1.0118,0.0619,-2.1078,-0.7056,0.0389,0.3292,-0.5912,0.1311,
2.052767,0.2986,-1.0118,0.0619,-2.1078,-0.7056,0.0389,0.7851,-0.3323,-0.1736,
2.054645,0.2986,-1.0118,0.0619,1.2555,-0.0546,1.2209,0.7851,-0.3323,-0.1736,
2.089387,0.2986,-1.0118,0.0619,1.2555,-0.0546,1.2209,0.6594,-0.1012,0.1513,
2.090987,0.2986,-1.0118,0.0619,1.2765,-0.0268,0.9384,0.6594,-0.1012,0.1513,
2.091858,0.0968,-1.0171,-0.1021,1.2765,-0.0268,0.9384,0.6594,-0.1012,0.1513,
2.093053,-0.1934,-1.0252,-0.1646,1.2765,-0.0268,0.9384,0.6594,-0.1012,0.1513,
2.093969,-0.2904,-1.0235,-0.1807,1.2765,-0.0268,0.9384,0.6594,-0.1012,0.1513,
2.094582,-0.2772,-1.0211,-0.1712,1.2765,-0.0268,0.9384,0.6594,-0.1012,0.1513,
2.095450,-0.1864,-0.9991,-0.1390,1.2765,-0.0268,0.9384,0.6594,-0.1012,0.1513,
2.128802,-0.1864,-0.9991,-0.1390,1.2765,-0.0268,0.9384,0.6349,0.2408,0.5593,
2.129948,-0.1864,-0.9991,-0.1390,-3.1029,-0.1818,-1.2419,0.6349,0.2408,0.5593,
2.168314,-0.1864,-0.9991,-0.1390,-3.1029,-0.1818,-1.2419,0.5401,0.5465,0.4869,
2.170181,-0.1864,-0.9991,-0.1390,-0.3118,0.4979,-1.0792,0.5401,0.5465,0.4869,
2.171387,0.0184,-0.9373,-0.1206,-0.3118,0.4979,-1.0792,0.5401,0.5465,0.4869,
2.172009,0.2023,-0.9260,-0.1492,-0.3118,0.4979,-1.0792,0.5401,0.5465,0.4869,
2.173959,-0.0491,-1.1171,0.0289,-0.3118,0.4979,-1.0792,0.5401,0.5465,0.4869,
2.174535,0.0868,-0.9695,-0.1732,-0.3118,0.4979,-1.0792,0.5401,0.5465,0.4869,
2.210713,0.0868,-0.9695,-0.1732,-0.3118,0.4979,-1.0792,0.3121,0.8991,0.7234,
2.212298,0.0868,-0.9695,-0.1732,-0.0345,0.4935,-1.1756,0.3121,0.8991,0.7234,
2.248115,0.0868,-0.9695,-0.1732,-0.0345,0.4935,-1.1756,0.0618,0.7564,0.4826,
2.249870,0.0868,-0.9695,-0.1732,1.1236,0.0575,-1.3538,0.0618,0.7564,0.4826,
2.250804,0.3049,-0.9092,-0.3234,1.1236,0.0575,-1.3538,0.0618,0.7564,0.4826,
2.251475,0.4361,-0.9829,0.0365,1.1236,0.0575,-1.3538,0.0618,0.7564,0.4826,
2.252142,0.5124,-1.0350,0.2365,1.1236,0.0575,-1.3538,0.0618,0.7564,0.4826,
2.252855,0.3741,-0.9781,0.2050,1.1236,0.0575,-1.3538,0.0618,0.7564,0.4826,
2.287513,0.3741,-0.9781,0.2050,1.1236,0.0575,-1.3538,0.3217,0.9311,-0.2332,
2.289213,0.3741,-0.9781,0.2050,4.1118,0.0561,1.5645,0.3217,0.9311,-0.2332,
2.327326,0.3741,-0.9781,0.2050,4.1118,0.0561,1.5645,-0.0905,0.5838,-0.5358,
2.329480,0.3741,-0.9781,0.2050,-1.9969,-0.4411,-0.6607,-0.0905,0.5838,-0.5358,
2.331176,0.0521,-0.9570,0.0211,-1.9969,-0.4411,-0.6607,-0.0905,0.5838,-0.5358,
2.332486,-0.2296,-1.0531,-0.1030,-1.9969,-0.4411,-0.6607,-0.0905,0.5838,-0.5358,
2.333781,-0.3229,-1.1398,-0.1355,-1.9969,-0.4411,-0.6607,-0.0905,0.5838,-0.5358,
2.335243,-0.3063,-1.0658,-0.1597,-1.9969,-0.4411,-0.6607,-0.0905,0.5838,-0.5358,
2.366546,-0.3063,-1.0658,-0.1597,-1.9969,-0.4411,-0.6607,-0.8245,0.3505,-0.3430,
2.367926,-0.3063,-1.0658,-0.1597,-2.0753,-0.4415,-0.3359,-0.8245,0.3505,-0.3430,
2.408390,-0.2721,-1.0088,-0.1959,-2.0753,-0.4415,-0.3359,-0.8245,0.3505,-0.3430,
2.410706,-0.1910,-0.9209,-0.2201,-2.0753,-0.4415,-0.3359,-0.8245,0.3505,-0.3430,
2.411725,-0.1302,-0.9529,-0.1776,-2.0753,-0.4415,-0.3359,-0.8245,0.3505,-0.3430,
2.413064,-0.1302,-0.9529,-0.1776,-2.0753,-0.4415,-0.3359,-1.4637,0.4496,-0.1310,
2.414358,-0.1302,-0.9529,-0.1776,-2.9371,0.0219,-0.9196,-1.4637,0.4496,-0.1310,
2.446725,-0.1302,-0.9529,-0.1776,-2.9371,0.0219,-0.9196,-1.7385,0.6275,-0.1459,
2.449141,-0.1302,-0.9529,-0.1776,-2.0005,-0.8862,0.1392,-1.7385,0.6275,-0.1459,
2.486733,-0.1302,-0.9529,-0.1776,-2.0005,-0.8862,0.1392,-1.6682,0.5316,-0.2908,
2.489379,-0.1302,-0.9529,-0.1776,-2.0973,-0.9941,0.7478,-1.6682,0.5316,-0.2908,
2.491207,-0.1570,-1.1496,-0.1160,-2.0973,-0.9941,0.7478,-1.6682,0.5316,-0.2908,
2.492585,-0.1844,-1.1500,-0.1595,-2.0973,-0.9941,0.7478,-1.6682,0.5316,-0.2908,
2.493670,-0.1949,-0.9749,-0.1270,-2.0973,-0.9941,0.7478,-1.6682,0.5316,-0.2908,
2.494678,-0.2135,-0.8535,-0.1155,-2.0973,-0.9941,0.7478,-1.6682,0.5316,-0.2908,
2.495876,-0.2245,-0.9087,-0.2350,-2.0973,-0.9941,0.7478,-1.6682,0.5316,-0.2908,
2.525212,-0.2245,-0.9087,-0.2350,-2.0973,-0.9941,0.7478,-1.4157,-0.0649,-0.2780,
2.526405,-0.2245,-0.9087,-0.2350,-2.6538,0.5295,1.1761,-1.4157,-0.0649,-0.2780,
2.564894,-0.2245,-0.9087,-0.2350,-2.6538,0.5295,1.1761,-1.1015,-0.6295,-0.0532,
2.566985,-0.2245,-0.9087,-0.2350,-1.5142,-0.4675,1.6375,-1.1015,-0.6295,-0.0532,
2.568439,-0.1861,-1.0103,-0.2904,-1.5142,-0.4675,1.6375,-1.1015,-0.6295,-0.0532,
2.569403,-0.0974,-1.0025,-0.1238,-1.5142,-0.4675,1.6375,-1.1015,-0.6295,-0.0532,
2.571819,-0.0288,-0.9932,-0.0395,-1.5142,-0.4675,1.6375,-1.1015,-0.6295,-0.0532,
2.573070,-0.0503,-0.9996,-0.1859,-1.5142,-0.4675,1.6375,-1.1015,-0.6295,-0.0532,
2.605663,-0.0503,-0.9996,-0.1859,-1.5142,-0.4675,1.6375,-0.4602,-0.3078,-0.2215,
2.607487,-0.0503,-0.9996,-0.1859,-1.5188,-0.5175,1.7695,-0.4602,-0.3078,-0.2215,
2.644808,-0.2054,-1.0384,-0.2846,-1.5188,-0.5175,1.7695,-0.4602,-0.3078,-0.2215,
2.646500,-0.2474,-1.0721,-0.2650,-1.5188,-0.5175,1.7695,-0.4602,-0.3078,-0.2215,
2.647909,-0.1465,-1.0347,-0.2184,-1.5188,-0.5175,1.7695,-0.4602,-0.3078,-0.2215,
2.648875,-0.1465,-1.0347,-0.2184,-1.5188,-0.5175,1.7695,-0.0053,-0.0032,-0.1139,
2.649760,-0.1465,-1.0347,-0.2184,-2.1316,-0.8400,0.8310,-0.0053,-0.0032,-0.1139,
2.684967,-0.1465,-1.0347,-0.2184,-2.1316,-0.8400,0.8310,0.5582,-0.3515,-0.0607,
2.687576,-0.1465,-1.0347,-0.2184,-1.0051,-0.3431,1.4891,0.5582,-0.3515,-0.0607,
2.725077,-0.1465,-1.0347,-0.2184,-1.0051,-0.3431,1.4891,1.0440,-0.4825,-0.3515,
2.727124,-0.1465,-1.0347,-0.2184,-1.0578,-0.2282,1.0815,1.0440,-0.4825,-0.3515,
2.728659,-0.0444,-0.9952,-0.1570,-1.0578,-0.2282,1.0815,1.0440,-0.4825,-0.3515,
2.730044,0.0189,-0.9514,-0.0864,-1.0578,-0.2282,1.0815,1.0440,-0.4825,-0.3515,
2.731589,0.0362,-0.8857,-0.0371,-1.0578,-0.2282,1.0815,1.0440,-0.4825,-0.3515,
2.732830,-0.0410,-0.8452,-0.1399,-1.0578,-0.2282,1.0815,1.0440,-0.4825,-0.3515,
2.734095,-0.2855,-0.8530,-0.3698,-1.0578,-0.2282,1.0815,1.0440,-0.4825,-0.3515,
2.763968,-0.2855,-0.8530,-0.3698,-1.0578,-0.2282,1.0815,0.9257,-0.4879,-0.5390,
2.765333,-0.2855,-0.8530,-0.3698,-1.5651,1.1207,0.4537,0.9257,-0.4879,-0.5390,
2.802751,-0.2855,-0.8530,-0.3698,-1.5651,1.1207,0.4537,0.5572,-0.4633,-0.2833,
2.804601,-0.2855,-0.8530,-0.3698,-3.2165,0.7548,0.5490,0.5572,-0.4633,-0.2833,
2.806030,-0.3996,-0.8969,-0.4204,-3.2165,0.7548,0.5490,0.5572,-0.4633,-0.2833,
2.807779,-0.2487,-0.9101,-0.0918,-3.2165,0.7548,0.5490,0.5572,-0.4633,-0.2833,
2.809164,-0.1490,-0.8957,0.0594,-3.2165,0.7548,0.5490,0.5572,-0.4633,-0.2833,
2.810521,-0.1441,-0.9908,-0.1060,-3.2165,0.7548,0.5490,0.5572,-0.4633,-0.2833,
2.842773,-0.1441,-0.9908,-0.1060,-3.1273,0.7738,0.3656,0.5572,-0.4633,-0.2833,
2.844913,-0.1441,-0.9908,-0.1060,-3.1273,0.7738,0.3656,0.5188,-0.9299,-0.1395,
2.884094,-0.1441,-0.9908,-0.1060,-3.1273,0.7738,0.3656,-0.0959,-0.6402,0.0171,
2.885878,-0.1441,-0.9908,-0.1060,-1.3941,-2.7505,-2.8935,-0.0959,-0.6402,0.0171,
2.887353,-0.1480,-1.2483,-0.5142,-1.3941,-2.7505,-2.8935,-0.0959,-0.6402,0.0171,
2.888603,-0.0004,-1.5593,-0.8650,-1.3941,-2.7505,-2.8935,-0.0959,-0.6402,0.0171,
2.890005,0.4071,-1.3951,-0.5687,-1.3941,-2.7505,-2.8935,-0.0959,-0.6402,0.0171,
2.891889,0.2676,-0.9289,0.0641,-1.3941,-2.7505,-2.8935,-0.0959,-0.6402,0.0171,
2.925923,0.2676,-0.9289,0.0641,-1.3941,-2.7505,-2.8935,-0.4676,-0.9555,-0.0756,
2.927316,0.2676,-0.9289,0.0641,-1.3161,-2.7291,-2.6407,-0.4676,-0.9555,-0.0756,
2.961593,0.2676,-0.9289,0.0641,-1.3161,-2.7291,-2.6407,0.5177,-1.2548,-0.0330,
2.963005,0.2676,-0.9289,0.0641,1.9448,-0.4754,0.8977,0.5177,-1.2548,-0.0330,
2.965180,0.0152,-0.8007,0.1647,1.9448,-0.4754,0.8977,0.5177,-1.2548,-0.0330,
2.966005,-0.0056,-0.9544,0.0025,1.9448,-0.4754,0.8977,0.5177,-1.2548,-0.0330,
2.966953,-0.1238,-1.1618,-0.2130,1.9448,-0.4754,0.8977,0.5177,-1.2548,-0.0330,
2.967678,-0.1219,-1.2089,-0.2792,1.9448,-0.4754,0.8977,0.5177,-1.2548,-0.0330,
3.001856,-0.1219,-1.2089,-0.2792,-1.0844,-1.0513,0.1156,0.5177,-1.2548,-0.0330,
3.004159,-0.1219,-1.2089,-0.2792,-1.0844,-1.0513,0.1156,0.7564,-0.1874,0.0182,
3.041632,-0.1219,-1.2089,-0.2792,-1.0844,-1.0513,0.1156,0.8032,0.0714,0.0640,
3.043813,-0.1219,-1.2089,-0.2792,1.2042,0.9191,-0.3066,0.8032,0.0714,0.0640,
3.045396,0.0516,-1.0433,-0.2220,1.2042,0.9191,-0.3066,0.8032,0.0714,0.0640,
3.046493,0.1718,-0.8774,-0.1653,1.2042,0.9191,-0.3066,0.8032,0.0714,0.0640,
3.048030,0.2272,-0.8107,-0.1375,1.2042,0.9191,-0.3066,0.8032,0.0714,0.0640,
3.049299,0.2353,-0.8452,-0.1495,1.2042,0.9191,-0.3066,0.8032,0.0714,0.0640,
3.080258,0.2353,-0.8452,-0.1495,1.2042,0.9191,-0.3066,1.0003,-0.4974,-0.0031,
3.081677,0.2353,-0.8452,-0.1495,1.2013,0.9475,-0.6787,1.0003,-0.4974,-0.0031,
3.120398,0.2353,-0.8452,-0.1495,1.2013,0.9475,-0.6787,0.6924,-0.5645,0.0150,
3.122085,0.2353,-0.8452,-0.1495,1.4778,0.9647,-1.5970,0.6924,-0.5645,0.0150,
3.127967,0.1684,-0.9417,-0.2648,1.4778,0.9647,-1.5970,0.6924,-0.5645,0.0150,
3.128928,0.1329,-0.9409,-0.3205,1.4778,0.9647,-1.5970,0.6924,-0.5645,0.0150,
3.130186,0.1068,-0.8864,-0.2328,1.4778,0.9647,-1.5970,0.6924,-0.5645,0.0150,
3.131413,0.0418,-0.9067,-0.1436,1.4778,0.9647,-1.5970,0.6924,-0.5645,0.0150,
3.159628,0.0418,-0.9067,-0.1436,1.4778,0.9647,-1.5970,0.2504,-0.6338,0.0970,
3.161215,0.0418,-0.9067,-0.1436,1.5038,0.9536,-1.6550,0.2504,-0.6338,0.0970,
3.199565,0.0418,-0.9067,-0.1436,1.5038,0.9536,-1.6550,0.0224,-0.5752,0.1290,
3.201732,0.0418,-0.9067,-0.1436,0.3697,0.7857,-0.8869,0.0224,-0.5752,0.1290,
3.203027,0.0225,-0.9817,-0.1275,0.3697,0.7857,-0.8869,0.0224,-0.5752,0.1290,
3.204509,0.0000,-1.0450,-0.0943,0.3697,0.7857,-0.8869,0.0224,-0.5752,0.1290,
3.205673,-0.0300,-1.0562,-0.0019,0.3697,0.7857,-0.8869,0.0224,-0.5752,0.1290,
3.206913,-0.0197,-1.0198,0.0511,0.3697,0.7857,-0.8869,0.0224,-0.5752,0.1290,
3.240023,-0.0197,-1.0198,0.0511,0.3697,0.7857,-0.8869,-0.0117,-0.4080,0.2557,
3.241564,-0.0197,-1.0198,0.0511,-0.2351,-0.3376,0.6068,-0.0117,-0.4080,0.2557,
3.278964,-0.0197,-1.0198,0.0511,-0.2351,-0.3376,0.6068,-0.1193,-0.3270,0.3377,
3.280962,-0.0197,-1.0198,0.0511,-0.0138,-0.0647,1.0272,-0.1193,-0.3270,0.3377,
3.282052,-0.0053,-1.0120,0.0132,-0.0138,-0.0647,1.0272,-0.1193,-0.3270,0.3377,
3.283204,-0.0171,-1.0206,0.0106,-0.0138,-0.0647,1.0272,-0.1193,-0.3270,0.3377,
3.284538,-0.0031,-1.0042,0.0516,-0.0138,-0.0647,1.0272,-0.1193,-0.3270,0.3377,
3.285338,0.0389,-0.9966,0.0843,-0.0138,-0.0647,1.0272,-0.1193,-0.3270,0.3377,
3.319667,0.0389,-0.9966,0.0843,-0.0138,-0.0647,1.0272,-0.1033,-0.2365,0.2525,
3.321606,0.0389,-0.9966,0.0843,0.0906,-0.0679,1.0463,-0.1033,-0.2365,0.2525,
3.357957,0.0389,-0.9966,0.0843,0.0906,-0.0679,1.0463,-0.0277,0.0544,0.0022,
3.359943,0.0389,-0.9966,0.0843,0.6629,0.2106,1.4954,-0.0277,0.0544,0.0022,
3.361601,0.0790,-0.9842,0.0868,0.6629,0.2106,1.4954,-0.0277,0.0544,0.0022,
3.362509,0.0360,-0.9693,0.0470,0.6629,0.2106,1.4954,-0.0277,0.0544,0.0022,
3.363354,-0.0141,-1.0027,0.0052,0.6629,0.2106,1.4954,-0.0277,0.0544,0.0022,
3.364752,-0.0476,-1.0416,-0.0170,0.6629,0.2106,1.4954,-0.0277,0.0544,0.0022,
3.397518,-0.0476,-1.0416,-0.0170,0.6629,0.2106,1.4954,-0.1896,0.4634,-0.1949,
3.399329,-0.0476,-1.0416,-0.0170,0.5613,0.2015,1.5423,-0.1896,0.4634,-0.1949,
3.444208,-0.0476,-1.0416,-0.0170,0.5613,0.2015,1.5423,-0.4346,0.9077,-0.2034,
3.447074,-0.0476,-1.0416,-0.0170,-0.5354,-0.2219,0.7959,-0.4346,0.9077,-0.2034,
3.448879,-0.0889,-1.0318,-0.0459,-0.5354,-0.2219,0.7959,-0.4346,0.9077,-0.2034,
3.450021,-0.1436,-1.0088,-0.1126,-0.5354,-0.2219,0.7959,-0.4346,0.9077,-0.2034,
3.450922,-0.1856,-0.9905,-0.1854,-0.5354,-0.2219,0.7959,-0.4346,0.9077,-0.2034,
3.451794,-0.1800,-0.9614,-0.1961,-0.5354,-0.2219,0.7959,-0.4346,0.9077,-0.2034,
3.476679,-0.1800,-0.9614,-0.1961,-0.5354,-0.2219,0.7959,-0.8586,1.0962,-0.0181,
3.479300,-0.1800,-0.9614,-0.1961,-1.7320,0.1136,-0.2938,-0.8586,1.0962,-0.0181,
3.516601,-0.1800,-0.9614,-0.1961,-1.7320,0.1136,-0.2938,-1.1174,1.1804,-0.0031,
3.518997,-0.1800,-0.9614,-0.1961,0.0428,0.6627,0.3009,-1.1174,1.1804,-0.0031,
3.520395,-0.0894,-0.9338,-0.1627,0.0428,0.6627,0.3009,-1.1174,1.1804,-0.0031,
3.521249,0.0318,-0.9199,-0.1348,0.0428,0.6627,0.3009,-1.1174,1.1804,-0.0031,
3.522341,0.1141,-0.9145,-0.1436,0.0428,0.6627,0.3009,-1.1174,1.1804,-0.0031,
3.523855,0.1239,-0.9050,-0.2096,0.0428,0.6627,0.3009,-1.1174,1.1804,-0.0031,
3.556246,0.1239,-0.9050,-0.2096,0.0428,0.6627,0.3009,-1.2719,1.3828,-0.3110,
3.559292,0.1239,-0.9050,-0.2096,-0.1815,0.5498,0.7607,-1.2719,1.3828,-0.3110,
3.596371,0.1239,-0.9050,-0.2096,-0.1815,0.5498,0.7607,-1.5425,0.7361,-0.4218,
3.599200,0.1239,-0.9050,-0.2096,0.1766,0.9108,-0.0382,-1.5425,0.7361,-0.4218,
3.600542,0.0824,-0.8806,-0.3012,0.1766,0.9108,-0.0382,-1.5425,0.7361,-0.4218,
3.601830,0.0313,-0.8183,-0.3491,0.1766,0.9108,-0.0382,-1.5425,0.7361,-0.4218,
3.602936,0.0115,-0.7938,-0.4580,0.1766,0.9108,-0.0382,-1.5425,0.7361,-0.4218,
3.604295,0.0579,-0.8351,-0.3469,0.1766,0.9108,-0.0382,-1.5425,0.7361,-0.4218,
3.635461,0.0579,-0.8351,-0.3469,0.1766,0.9108,-0.0382,-1.3763,-0.3462,-0.1118,
3.639001,0.0579,-0.8351,-0.3469,0.1755,0.7300,0.4713,-1.3763,-0.3462,-0.1118,
3.675620,0.1068,-0.9060,-0.2386,0.1755,0.7300,0.4713,-1.3763,-0.3462,-0.1118,
3.678346,0.0907,-0.9873,-0.3642,0.1755,0.7300,0.4713,-1.3763,-0.3462,-0.1118,
3.679440,0.0389,-1.0665,-0.6581,0.1755,0.7300,0.4713,-1.3763,-0.3462,-0.1118,
3.680631,0.0389,-1.0665,-0.6581,0.1755,0.7300,0.4713,-0.7521,-0.8106,0.0043,
3.681787,0.0389,-1.0665,-0.6581,0.0863,0.8386,0.1599,-0.7521,-0.8106,0.0043,
3.715219,0.0389,-1.0665,-0.6581,0.0863,0.8386,0.1599,-0.6572,-0.5954,-0.2087,
3.717643,0.0389,-1.0665,-0.6581,-0.1112,-1.3723,-1.5471,-0.6572,-0.5954,-0.2087,
3.754749,0.0389,-1.0665,-0.6581,-0.1112,-1.3723,-1.5471,-0.2642,-0.4101,-0.0532,
3.757248,0.0389,-1.0665,-0.6581,-0.0657,-1.3905,-1.4211,-0.2642,-0.4101,-0.0532,
3.758765,-0.0180,-1.1344,-0.6276,-0.0657,-1.3905,-1.4211,-0.2642,-0.4101,-0.0532,
3.759895,-0.1688,-1.1022,-0.3813,-0.0657,-1.3905,-1.4211,-0.2642,-0.4101,-0.0532,
3.761203,-0.1216,-0.9531,-0.3300,-0.0657,-1.3905,-1.4211,-0.2642,-0.4101,-0.0532,
3.762339,0.0328,-0.8886,-0.4473,-0.0657,-1.3905,-1.4211,-0.2642,-0.4101,-0.0532,
3.764037,0.0748,-0.9785,-0.5281,-0.0657,-1.3905,-1.4211,-0.2642,-0.4101,-0.0532,
3.794129,0.0748,-0.9785,-0.5281,-0.0657,-1.3905,-1.4211,0.0607,-0.0596,-0.0948,
3.796612,0.0748,-0.9785,-0.5281,-1.2744,-0.5748,0.1603,0.0607,-0.0596,-0.0948,
3.833283,0.0748,-0.9785,-0.5281,-1.2744,-0.5748,0.1603,0.4538,0.1630,-0.3611,
3.835757,0.0748,-0.9785,-0.5281,0.4601,-0.9844,0.0340,0.4538,0.1630,-0.3611,
3.837202,0.1391,-1.0672,-0.3864,0.4601,-0.9844,0.0340,0.4538,0.1630,-0.3611,
3.838489,0.1092,-1.0477,-0.2316,0.4601,-0.9844,0.0340,0.4538,0.1630,-0.3611,
3.839440,-0.0471,-0.9321,-0.2176,0.4601,-0.9844,0.0340,0.4538,0.1630,-0.3611,
3.840635,-0.1663,-0.8195,-0.1969,0.4601,-0.9844,0.0340,0.4538,0.1630,-0.3611,
3.873142,-0.1663,-0.8195,-0.1969,0.4601,-0.9844,0.0340,0.8522,0.0224,-0.3153,
3.875713,-0.1663,-0.8195,-0.1969,0.3364,-0.8557,-0.2720,0.8522,0.0224,-0.3153,
3.913915,-0.2560,-0.7701,-0.1539,0.3364,-0.8557,-0.2720,0.8522,0.0224,-0.3153,
3.922785,-0.2575,-0.7819,-0.1631,0.3364,-0.8557,-0.2720,0.8522,0.0224,-0.3153,
3.924991,-0.1996,-0.7904,-0.1993,0.3364,-0.8557,-0.2720,0.8522,0.0224,-0.3153,
3.926119,-0.1996,-0.7904,-0.1993,0.3364,-0.8557,-0.2720,1.0887,-0.2599,-0.0788,
3.927333,-0.1996,-0.7904,-0.1993,-2.2106,1.1317,1.2003,1.0887,-0.2599,-0.0788,
3.953016,-0.1996,-0.7904,-0.1993,-2.2106,1.1317,1.2003,1.1889,-0.4484,0.0416,
3.955565,-0.1996,-0.7904,-0.1993,-2.2973,1.7634,0.6820,1.1889,-0.4484,0.0416,
3.992291,-0.1996,-0.7904,-0.1993,-2.2973,1.7634,0.6820,1.2016,-0.5209,-0.0905,
3.994464,-0.1996,-0.7904,-0.1993,-2.2442,1.8441,0.2355,1.2016,-0.5209,-0.0905,
3.995689,-0.0710,-0.7882,-0.2284,-2.2442,1.8441,0.2355,1.2016,-0.5209,-0.0905,
3.996969,0.0477,-0.8222,-0.2623,-2.2442,1.8441,0.2355,1.2016,-0.5209,-0.0905,
3.998195,0.1794,-0.8229,-0.2826,-2.2442,1.8441,0.2355,1.2016,-0.5209,-0.0905,
3.999318,0.2075,-0.8332,-0.3356,-2.2442,1.8441,0.2355,1.2016,-0.5209,-0.0905,
4.000508,0.0433,-1.0281,-0.3588,-2.2442,1.8441,0.2355,1.2016,-0.5209,-0.0905,
4.033027,0.0433,-1.0281,-0.3588,-2.2442,1.8441,0.2355,0.9396,-0.6455,-0.4623,
4.035392,0.0433,-1.0281,-0.3588,0.7622,1.4976,-1.0357,0.9396,-0.6455,-0.4623,
4.071403,0.0433,-1.0281,-0.3588,0.7622,1.4976,-1.0357,0.5273,-0.1470,-0.2577,
4.073973,0.0433,-1.0281,-0.3588,-2.4312,-3.1341,-1.7779,0.5273,-0.1470,-0.2577,
4.076128,-0.1458,-1.2954,-0.2628,-2.4312,-3.1341,-1.7779,0.5273,-0.1470,-0.2577,
4.077207,-0.4263,-1.5979,-0.4351,-2.4312,-3.1341,-1.7779,0.5273,-0.1470,-0.2577,
4.078505,-0.4351,-1.5341,-0.5208,-2.4312,-3.1341,-1.7779,0.5273,-0.1470,-0.2577,
4.079470,-0.0801,-1.1061,-0.2460,-2.4312,-3.1341,-1.7779,0.5273,-0.1470,-0.2577,
4.111111,-0.0801,-1.1061,-0.2460,-2.4312,-3.1341,-1.7779,0.2195,0.2728,0.1492,
4.113353,-0.0801,-1.1061,-0.2460,-2.3514,-3.0640,-1.8384,0.2195,0.2728,0.1492,
4.151175,0.1085,-1.0167,-0.2061,-2.3514,-3.0640,-1.8384,0.2195,0.2728,0.1492,
4.153602,0.2326,-1.0785,-0.3586,-2.3514,-3.0640,-1.8384,0.2195,0.2728,0.1492,
4.154842,0.3240,-0.8923,-0.2408,-2.3514,-3.0640,-1.8384,0.2195,0.2728,0.1492,
4.155817,0.3240,-0.8923,-0.2408,-2.3514,-3.0640,-1.8384,0.2781,-0.1299,0.0640,
4.156990,0.3240,-0.8923,-0.2408,-1.8878,-2.1446,-1.6413,0.2781,-0.1299,0.0640,
4.191383,0.3240,-0.8923,-0.2408,1.5625,0.7717,-0.3973,0.2781,-0.1299,0.0640,
4.193997,0.3240,-0.8923,-0.2408,1.5625,0.7717,-0.3973,0.3313,-0.6380,-0.0990,
4.230438,0.3240,-0.8923,-0.2408,1.5625,0.7717,-0.3973,0.4762,-0.3014,0.0949,
4.232968,0.3240,-0.8923,-0.2408,1.5888,0.7858,-0.5663,0.4762,-0.3014,0.0949,
4.234503,0.1014,-0.7946,0.0404,1.5888,0.7858,-0.5663,0.4762,-0.3014,0.0949,
4.235666,-0.0725,-0.8862,0.0667,1.5888,0.7858,-0.5663,0.4762,-0.3014,0.0949,
4.236654,-0.0547,-1.0105,-0.2005,1.5888,0.7858,-0.5663,0.4762,-0.3014,0.0949,
4.238209,-0.0359,-1.0323,-0.3615,1.5888,0.7858,-0.5663,0.4762,-0.3014,0.0949,
4.239052,-0.0400,-0.9226,-0.2115,1.5888,0.7858,-0.5663,0.4762,-0.3014,0.0949,
4.269649,-0.0400,-0.9226,-0.2115,1.5888,0.7858,-0.5663,-0.0319,0.2962,0.0959,
4.272071,-0.0400,-0.9226,-0.2115,-1.0530,0.2474,-0.3461,-0.0319,0.2962,0.0959,
4.310461,-0.0400,-0.9226,-0.2115,-0.6575,1.1895,-0.5287,-0.0319,0.2962,0.0959,
4.313301,-0.0400,-0.9226,-0.2115,-0.6575,1.1895,-0.5287,-0.2865,0.6680,0.1833,
4.314961,-0.0281,-0.8461,-0.1453,-0.6575,1.1895,-0.5287,-0.2865,0.6680,0.1833,
4.316230,0.0115,-0.8623,-0.2272,-0.6575,1.1895,-0.5287,-0.2865,0.6680,0.1833,
4.317541,0.0706,-0.8762,-0.2609,-0.6575,1.1895,-0.5287,-0.2865,0.6680,0.1833,
4.318900,0.0768,-0.9070,-0.2457,-0.6575,1.1895,-0.5287,-0.2865,0.6680,0.1833,
4.349437,0.0768,-0.9070,-0.2457,-0.6575,1.1895,-0.5287,-0.5869,0.6786,0.3580,
4.352100,0.0768,-0.9070,-0.2457,-0.5493,1.1416,-0.3076,-0.5869,0.6786,0.3580,
4.381810,0.1090,-0.9866,-0.2091,-0.5493,1.1416,-0.3076,-0.5869,0.6786,0.3580,
4.384695,0.2055,-1.0865,-0.1316,-0.5493,1.1416,-0.3076,-0.5869,0.6786,0.3580,
4.386248,0.3005,-1.1254,-0.0718,-0.5493,1.1416,-0.3076,-0.5869,0.6786,0.3580,
4.387958,0.3005,-1.1254,-0.0718,-0.5493,1.1416,-0.3076,-0.4538,0.5455,0.4070,
4.388881,0.3005,-1.1254,-0.0718,0.5835,0.6519,-0.5602,-0.4538,0.5455,0.4070,
4.428318,0.3005,-1.1254,-0.0718,0.5835,0.6519,-0.5602,0.0874,0.4720,0.1524,
4.431169,0.3005,-1.1254,-0.0718,2.4641,-1.0765,0.7726,0.0874,0.4720,0.1524,
4.463008,0.3311,-1.0948,-0.0886,2.4641,-1.0765,0.7726,0.0874,0.4720,0.1524,
4.466264,0.3108,-1.0809,-0.0789,2.4641,-1.0765,0.7726,0.0874,0.4720,0.1524,
4.468195,0.2431,-1.0555,-0.0686,2.4641,-1.0765,0.7726,0.0874,0.4720,0.1524,
4.469382,0.1058,-1.0533,-0.1302,2.4641,-1.0765,0.7726,0.0874,0.4720,0.1524,
4.470321,0.1058,-1.0533,-0.1302,2.4641,-1.0765,0.7726,0.4954,0.2312,-0.0127,
4.471316,0.1058,-1.0533,-0.1302,1.8335,-0.6514,0.6157,0.4954,0.2312,-0.0127,
4.507449,0.1058,-1.0533,-0.1302,1.8335,-0.6514,0.6157,0.7478,0.0054,0.1162,
4.509388,0.1058,-1.0533,-0.1302,0.4255,-0.1015,-0.0542,0.7478,0.0054,0.1162,
4.546973,0.1058,-1.0533,-0.1302,0.4255,-0.1015,-0.0542,0.9651,-0.1342,0.2142,
4.549711,0.1058,-1.0533,-0.1302,0.5059,-0.0584,-0.4220,0.9651,-0.1342,0.2142,
4.551153,0.0203,-1.0662,-0.1592,0.5059,-0.0584,-0.4220,0.9651,-0.1342,0.2142,
4.552139,0.0716,-1.0167,-0.1179,0.5059,-0.0584,-0.4220,0.9651,-0.1342,0.2142,
4.553117,0.1254,-0.9519,-0.1170,0.5059,-0.0584,-0.4220,0.9651,-0.1342,0.2142,
4.555271,0.0970,-0.9079,-0.1636,0.5059,-0.0584,-0.4220,0.9651,-0.1342,0.2142,
4.556224,0.0465,-0.9087,-0.1890,0.5059,-0.0584,-0.4220,0.9651,-0.1342,0.2142,
4.586112,0.0465,-0.9087,-0.1890,0.5059,-0.0584,-0.4220,0.9758,-0.1193,0.2696,
4.588024,0.0465,-0.9087,-0.1890,0.6042,-0.0302,-0.7895,0.9758,-0.1193,0.2696,
4.625993,0.0215,-0.9255,-0.1763,0.6042,-0.0302,-0.7895,0.9758,-0.1193,0.2696,
4.628808,0.0123,-0.9158,-0.2054,0.6042,-0.0302,-0.7895,0.9758,-0.1193,0.2696,
4.630012,0.0294,-0.8974,-0.2066,0.6042,-0.0302,-0.7895,0.9758,-0.1193,0.2696,
4.631348,0.0294,-0.8974,-0.2066,0.6042,-0.0302,-0.7895,0.7361,0.1439,0.3697,
4.632307,0.0294,-0.8974,-0.2066,0.5671,0.9211,-1.4934,0.7361,0.1439,0.3697,
4.666147,0.0294,-0.8974,-0.2066,0.5671,0.9211,-1.4934,0.3824,0.0981,0.4805,
4.668177,0.0294,-0.8974,-0.2066,0.6738,0.8713,-1.7605,0.3824,0.0981,0.4805,
4.706071,0.0294,-0.8974,-0.2066,0.6738,0.8713,-1.7605,0.1129,0.1023,0.3132,
4.709520,0.0294,-0.8974,-0.2066,0.7827,0.8539,-1.7735,0.1129,0.1023,0.3132,
4.711293,0.1022,-0.9397,-0.1622,0.7827,0.8539,-1.7735,0.1129,0.1023,0.3132,
4.712456,0.1640,-1.0149,-0.1035,0.7827,0.8539,-1.7735,0.1129,0.1023,0.3132,
4.713775,0.1777,-1.0364,-0.0640,0.7827,0.8539,-1.7735,0.1129,0.1023,0.3132,
4.714787,0.1948,-1.0418,-0.0210,0.7827,0.8539,-1.7735,0.1129,0.1023,0.3132,
4.715900,0.2062,-1.0230,0.0110,0.7827,0.8539,-1.7735,0.1129,0.1023,0.3132,
4.744973,0.2062,-1.0230,0.0110,0.7827,0.8539,-1.7735,-0.0191,0.0885,0.0171,
4.747008,0.2062,-1.0230,0.0110,2.0369,-0.2538,-0.4964,-0.0191,0.0885,0.0171,
4.785381,0.2062,-1.0230,0.0110,2.0369,-0.2538,-0.4964,-0.1427,-0.1480,-0.1075,
4.787662,0.2062,-1.0230,0.0110,1.6345,0.2726,0.2621,-0.1427,-0.1480,-0.1075,
4.788867,0.1461,-0.9546,0.0311,1.6345,0.2726,0.2621,-0.1427,-0.1480,-0.1075,
4.789889,0.0819,-0.9531,-0.0136,1.6345,0.2726,0.2621,-0.1427,-0.1480,-0.1075,
4.791065,0.0885,-1.0167,-0.0444,1.6345,0.2726,0.2621,-0.1427,-0.1480,-0.1075,
4.791894,0.0921,-1.0301,-0.0102,1.6345,0.2726,0.2621,-0.1427,-0.1480,-0.1075,
4.824310,0.0921,-1.0301,-0.0102,1.6345,0.2726,0.2621,-0.3622,-0.3163,-0.2631,
4.826655,0.0921,-1.0301,-0.0102,1.5092,0.2664,0.3946,-0.3622,-0.3163,-0.2631,
4.865254,0.0921,-1.0301,-0.0102,1.5092,0.2664,0.3946,-0.7020,-0.1779,-0.3238,
4.867201,0.0921,-1.0301,-0.0102,0.5937,-0.0133,0.2787,-0.7020,-0.1779,-0.3238,
4.868825,0.0142,-0.9661,-0.0346,0.5937,-0.0133,0.2787,-0.7020,-0.1779,-0.3238,
4.869806,-0.0899,-0.8828,-0.1275,0.5937,-0.0133,0.2787,-0.7020,-0.1779,-0.3238,
4.871035,-0.1558,-0.8249,-0.2096,0.5937,-0.0133,0.2787,-0.7020,-0.1779,-0.3238,
4.872015,-0.1952,-0.8742,-0.2281,0.5937,-0.0133,0.2787,-0.7020,-0.1779,-0.3238,
4.903029,-0.1952,-0.8742,-0.2281,0.5937,-0.0133,0.2787,-1.2975,-0.0948,-0.0830,
4.905000,-0.1952,-0.8742,-0.2281,-1.4871,1.3295,-0.7587,-1.2975,-0.0948,-0.0830,
4.945019,-0.1952,-0.8742,-0.2281,-1.4871,1.3295,-0.7587,-1.6149,-0.0990,0.0597,
4.947288,-0.1952,-0.8742,-0.2281,-0.9305,-1.4120,-0.8480,-1.6149,-0.0990,0.0597,
4.948726,-0.1661,-1.0399,-0.2166,-0.9305,-1.4120,-0.8480,-1.6149,-0.0990,0.0597,
4.949865,-0.0940,-1.1774,-0.2435,-0.9305,-1.4120,-0.8480,-1.6149,-0.0990,0.0597,
4.951264,-0.0239,-1.1838,-0.3273,-0.9305,-1.4120,-0.8480,-1.6149,-0.0990,0.0597,
4.952433,-0.0117,-1.1398,-0.4211,-0.9305,-1.4120,-0.8480,-1.6149,-0.0990,0.0597,
4.982409,-0.0117,-1.1398,-0.4211,-0.9305,-1.4120,-0.8480,-1.9356,0.3484,-0.1693,
4.984149,-0.0117,-1.1398,-0.4211,-1.0077,-1.5467,-0.1091,-1.9356,0.3484,-0.1693,
5.022933,-0.0117,-1.1398,-0.4211,-1.0077,-1.5467,-0.1091,-1.9451,0.5721,-0.3185,
5.025584,-0.0117,-1.1398,-0.4211,-0.6240,-1.8921,-0.8104,-1.9451,0.5721,-0.3185,
5.027131,-0.0373,-1.1500,-0.4404,-0.6240,-1.8921,-0.8104,-1.9451,0.5721,-0.3185,
5.028377,-0.0645,-1.1593,-0.3669,-0.6240,-1.8921,-0.8104,-1.9451,0.5721,-0.3185,
5.029724,-0.0586,-1.1557,-0.2848,-0.6240,-1.8921,-0.8104,-1.9451,0.5721,-0.3185,
5.030970,-0.0024,-1.1627,-0.1903,-0.6240,-1.8921,-0.8104,-1.9451,0.5721,-0.3185,
5.063633,-0.0024,-1.1627,-0.1903,-0.6240,-1.8921,-0.8104,-1.0461,0.1002,-0.3472,
5.065977,-0.0024,-1.1627,-0.1903,-0.7522,-2.0035,-0.4186,-1.0461,0.1002,-0.3472,
5.106696,-0.0024,-1.1627,-0.1903,-0.7522,-2.0035,-0.4186,-0.2599,-0.4783,-0.3504,
5.108398,0.0130,-1.1518,-0.1710,-0.7522,-2.0035,-0.4186,-0.2599,-0.4783,-0.3504,
5.109195,0.0489,-1.0792,-0.1756,-0.7522,-2.0035,-0.4186,-0.2599,-0.4783,-0.3504,
5.109907,0.0846,-0.9478,-0.1548,-0.7522,-2.0035,-0.4186,-0.2599,-0.4783,-0.3504,
5.110767,0.0347,-0.8620,-0.1805,-0.7522,-2.0035,-0.4186,-0.2599,-0.4783,-0.3504,
5.111505,0.0347,-0.8620,-0.1805,-0.5869,-2.0802,1.5609,-0.2599,-0.4783,-0.3504,
5.141458,0.0347,-0.8620,-0.1805,-0.5869,-2.0802,1.5609,0.0852,-0.7563,-0.4740,
5.143196,0.0347,-0.8620,-0.1805,0.0547,-0.1749,1.9518,0.0852,-0.7563,-0.4740,
5.163089,-0.0305,-0.8339,-0.2328,0.0547,-0.1749,1.9518,0.0852,-0.7563,-0.4740,
5.165538,-0.0772,-0.7894,-0.2267,0.0547,-0.1749,1.9518,0.0852,-0.7563,-0.4740,
5.166978,-0.1509,-0.7271,-0.2191,0.0547,-0.1749,1.9518,0.0852,-0.7563,-0.4740,
5.181211,-0.1509,-0.7271,-0.2191,-1.5036,1.5856,1.2772,0.0852,-0.7563,-0.4740,
5.183924,-0.1509,-0.7271,-0.2191,-1.5036,1.5856,1.2772,0.2908,-0.0862,-0.5496,
5.220800,-0.1509,-0.7271,-0.2191,-2.4679,3.6109,1.1684,0.2908,-0.0862,-0.5496,
5.223215,-0.1509,-0.7271,-0.2191,-2.4679,3.6109,1.1684,0.4538,0.3644,-0.4825,
5.251709,-0.2032,-0.6372,-0.2074,-2.4679,3.6109,1.1684,0.4538,0.3644,-0.4825,
5.254427,-0.1732,-0.5403,-0.2210,-2.4679,3.6109,1.1684,0.4538,0.3644,-0.4825,
5.255738,-0.1209,-0.5486,-0.2228,-2.4679,3.6109,1.1684,0.4538,0.3644,-0.4825,
5.257006,-0.0368,-0.6788,-0.3237,-2.4679,3.6109,1.1684,0.4538,0.3644,-0.4825,
5.260365,-0.0368,-0.6788,-0.3237,-2.5765,3.6143,0.9200,0.4538,0.3644,-0.4825,
5.261885,-0.0368,-0.6788,-0.3237,-2.5765,3.6143,0.9200,0.6264,0.0640,-0.3909,
5.300446,-0.0368,-0.6788,-0.3237,-2.5765,3.6143,0.9200,0.3942,0.1034,-0.2716,
5.302665,-0.0368,-0.6788,-0.3237,-1.6031,-0.5176,-2.1912,0.3942,0.1034,-0.2716,
5.339300,-0.0368,-0.6788,-0.3237,-1.6031,-0.5176,-2.1912,0.5870,0.7234,0.0885,
5.341517,-0.0368,-0.6788,-0.3237,-3.8189,-3.9253,0.0676,0.5870,0.7234,0.0885,
5.342842,-0.0342,-0.9680,-0.6344,-3.8189,-3.9253,0.0676,0.5870,0.7234,0.0885,
5.344734,-0.1023,-1.3577,-0.6112,-3.8189,-3.9253,0.0676,0.5870,0.7234,0.0885,
5.346105,-0.1851,-1.5585,-0.3009,-3.8189,-3.9253,0.0676,0.5870,0.7234,0.0885,
5.347572,-0.2870,-1.3487,-0.1986,-3.8189,-3.9253,0.0676,0.5870,0.7234,0.0885,
5.348682,-0.3847,-1.1820,-0.3022,-3.8189,-3.9253,0.0676,0.5870,0.7234,0.0885,
5.379298,-0.3847,-1.1820,-0.3022,-3.8189,-3.9253,0.0676,0.7841,0.7180,0.5657,
5.381622,-0.3847,-1.1820,-0.3022,-3.6169,-3.7616,-0.2504,0.7841,0.7180,0.5657,
5.421835,-0.3847,-1.1820,-0.3022,-3.6169,-3.7616,-0.2504,0.6520,0.7841,0.7543,
5.425125,-0.3847,-1.1820,-0.3022,-1.0850,-0.4359,0.6540,0.6520,0.7841,0.7543,
5.426012,-0.2819,-1.1833,-0.2110,-1.0850,-0.4359,0.6540,0.6520,0.7841,0.7543,
5.426718,0.0203,-1.0372,-0.0886,-1.0850,-0.4359,0.6540,0.6520,0.7841,0.7543,
5.427682,0.1070,-0.8772,-0.1387,-1.0850,-0.4359,0.6540,0.6520,0.7841,0.7543,
5.428494,0.0289,-0.7980,-0.2076,-1.0850,-0.4359,0.6540,0.6520,0.7841,0.7543,
5.458417,0.0289,-0.7980,-0.2076,-1.0850,-0.4359,0.6540,0.7649,0.5593,0.6190,
5.460259,0.0289,-0.7980,-0.2076,-0.8749,-0.3594,0.3427,0.7649,0.5593,0.6190,
5.498859,0.0289,-0.7980,-0.2076,-0.8749,-0.3594,0.3427,0.7137,0.3441,0.2866,
5.500900,0.0289,-0.7980,-0.2076,0.5005,1.1459,0.2144,0.7137,0.3441,0.2866,
5.502491,0.0548,-0.8652,-0.1248,0.5005,1.1459,0.2144,0.7137,0.3441,0.2866,
5.504422,0.1584,-0.9829,-0.0581,0.5005,1.1459,0.2144,0.7137,0.3441,0.2866,
5.505551,0.2768,-0.9688,-0.0278,0.5005,1.1459,0.2144,0.7137,0.3441,0.2866,
5.506676,0.3482,-0.8916,-0.0786,0.5005,1.1459,0.2144,0.7137,0.3441,0.2866,
5.538192,0.3482,-0.8916,-0.0786,0.5005,1.1459,0.2144,0.4815,1.0291,-0.2428,
5.540950,0.3482,-0.8916,-0.0786,0.3442,1.1494,0.0127,0.4815,1.0291,-0.2428,
5.577649,0.3482,-0.8916,-0.0786,0.3442,1.1494,0.0127,-0.1555,1.2379,-0.4090,
5.580248,0.3482,-0.8916,-0.0786,2.2204,0.9063,0.4570,-0.1555,1.2379,-0.4090,
5.581302,0.2707,-0.8503,-0.1558,2.2204,0.9063,0.4570,-0.1555,1.2379,-0.4090,
5.582455,0.1034,-0.8244,-0.2826,2.2204,0.9063,0.4570,-0.1555,1.2379,-0.4090,
5.583865,0.0066,-0.8679,-0.3957,2.2204,0.9063,0.4570,-0.1555,1.2379,-0.4090,
5.585069,0.0057,-0.9228,-0.1177,2.2204,0.9063,0.4570,-0.1555,1.2379,-0.4090,
5.617738,0.0057,-0.9228,-0.1177,2.2204,0.9063,0.4570,-0.5060,0.7052,-0.1470,
5.620232,0.0057,-0.9228,-0.1177,-0.4161,1.1662,-1.0939,-0.5060,0.7052,-0.1470,
5.657404,0.0057,-0.9228,-0.1177,-0.4161,1.1662,-1.0939,-0.0745,0.5827,0.0618,
5.659895,0.0057,-0.9228,-0.1177,1.1390,-1.2022,2.1078,-0.0745,0.5827,0.0618,
5.661675,0.1053,-0.9776,0.1273,1.1390,-1.2022,2.1078,-0.0745,0.5827,0.0618,
5.662769,0.1965,-1.1134,0.0812,1.1390,-1.2022,2.1078,-0.0745,0.5827,0.0618,
5.664343,0.2993,-1.2546,-0.0166,1.1390,-1.2022,2.1078,-0.0745,0.5827,0.0618,
5.666001,0.2996,-1.2409,-0.1522,1.1390,-1.2022,2.1078,-0.0745,0.5827,0.0618,
5.696115,0.2996,-1.2409,-0.1522,1.1390,-1.2022,2.1078,0.2237,0.5114,0.0981,
5.698661,0.2996,-1.2409,-0.1522,1.1285,-1.1666,1.9713,0.2237,0.5114,0.0981,
5.735854,0.1474,-1.1713,-0.0928,1.1285,-1.1666,1.9713,0.2237,0.5114,0.0981,
5.738853,0.1278,-1.1200,0.0817,1.1285,-1.1666,1.9713,0.2237,0.5114,0.0981,
5.740236,0.0904,-1.1708,0.0435,1.1285,-1.1666,1.9713,0.2237,0.5114,0.0981,
5.741541,0.0904,-1.1708,0.0435,1.1285,-1.1666,1.9713,0.5081,-0.0149,0.2951,
5.742508,0.0904,-1.1708,0.0435,1.1378,-1.7131,0.6040,0.5081,-0.0149,0.2951,
5.775908,0.0904,-1.1708,0.0435,1.1378,-1.7131,0.6040,0.8501,-0.0415,0.5029,
5.778330,0.0904,-1.1708,0.0435,0.5247,-0.9311,0.4210,0.8501,-0.0415,0.5029,
5.815420,0.0904,-1.1708,0.0435,0.5247,-0.9311,0.4210,0.6477,-0.1033,0.6680,
5.817286,0.0904,-1.1708,0.0435,0.7764,-0.8877,0.1657,0.6477,-0.1033,0.6680,
5.818874,0.1024,-1.1452,-0.0552,0.7764,-0.8877,0.1657,0.6477,-0.1033,0.6680,
5.820245,0.1364,-0.9956,-0.1043,0.7764,-0.8877,0.1657,0.6477,-0.1033,0.6680,
5.821424,0.0865,-0.8798,-0.1666,0.7764,-0.8877,0.1657,0.6477,-0.1033,0.6680,
5.822657,0.0865,-0.8136,-0.1519,0.7764,-0.8877,0.1657,0.6477,-0.1033,0.6680,
5.823673,0.1058,-0.8056,-0.0378,0.7764,-0.8877,0.1657,0.6477,-0.1033,0.6680,
5.855316,0.1058,-0.8056,-0.0378,0.7764,-0.8877,0.1657,0.4805,-0.6018,0.8373,
5.857495,0.1058,-0.8056,-0.0378,0.9361,1.7499,-0.7927,0.4805,-0.6018,0.8373,
5.895920,0.1058,-0.8056,-0.0378,0.9361,1.7499,-0.7927,0.5103,-0.4261,0.7298,
5.898376,0.1058,-0.8056,-0.0378,0.4012,1.4724,0.3343,0.5103,-0.4261,0.7298,
5.899559,0.0614,-0.7978,0.0140,0.4012,1.4724,0.3343,0.5103,-0.4261,0.7298,
5.900867,0.0035,-0.8339,0.0411,0.4012,1.4724,0.3343,0.5103,-0.4261,0.7298,
5.901907,-0.0368,-0.9448,-0.0024,0.4012,1.4724,0.3343,0.5103,-0.4261,0.7298,
5.902894,0.0130,-1.0115,-0.0471,0.4012,1.4724,0.3343,0.5103,-0.4261,0.7298,
5.934131,0.0130,-1.0115,-0.0471,0.4012,1.4724,0.3343,0.4336,-0.1448,0.6254,
5.936529,0.0130,-1.0115,-0.0471,0.6361,1.4386,0.1594,0.4336,-0.1448,0.6254,
5.964554,0.0868,-1.0469,-0.0422,0.6361,1.4386,0.1594,0.4336,-0.1448,0.6254,
5.966225,0.1239,-1.0924,-0.0376,0.6361,1.4386,0.1594,0.4336,-0.1448,0.6254,
5.967630,0.1569,-1.0941,-0.0456,0.6361,1.4386,0.1594,0.4336,-0.1448,0.6254,
5.975037,0.1569,-1.0941,-0.0456,0.6361,1.4386,0.1594,0.1768,0.1449,0.3452,
5.977057,0.1569,-1.0941,-0.0456,1.3870,-0.4389,-0.4843,0.1768,0.1449,0.3452,
6.013317,0.1569,-1.0941,-0.0456,1.3870,-0.4389,-0.4843,-0.1193,0.2877,-0.0617,
6.015178,0.1569,-1.0941,-0.0456,2.1624,-0.2705,0.2424,-0.1193,0.2877,-0.0617,
6.053286,0.1750,-1.0257,0.0360,2.1624,-0.2705,0.2424,-0.1193,0.2877,-0.0617,
6.055558,0.1476,-0.9815,0.0900,2.1624,-0.2705,0.2424,-0.1193,0.2877,-0.0617,
6.057077,0.0763,-1.0039,0.0518,2.1624,-0.2705,0.2424,-0.1193,0.2877,-0.0617,
6.058758,0.0763,-1.0039,0.0518,2.1624,-0.2705,0.2424,-0.3046,0.0118,-0.3057,
6.059586,0.0763,-1.0039,0.0518,2.0089,-0.2601,0.3558,-0.3046,0.0118,-0.3057,
6.093339,0.0763,-1.0039,0.0518,0.5670,0.0589,0.0641,-0.3046,0.0118,-0.3057,
6.095453,0.0763,-1.0039,0.0518,0.5670,0.0589,0.0641,-0.5337,-0.3835,-0.3888,
6.134634,0.0162,-1.0145,-0.0354,0.5670,0.0589,0.0641,-0.5337,-0.3835,-0.3888,
6.137092,-0.0058,-0.9854,-0.0874,0.5670,0.0589,0.0641,-0.5337,-0.3835,-0.3888,
6.138242,-0.0454,-0.9319,-0.0649,0.5670,0.0589,0.0641,-0.5337,-0.3835,-0.3888,
6.139409,-0.1702,-0.8918,-0.0141,0.5670,0.0589,0.0641,-0.5337,-0.3835,-0.3888,
6.140468,-0.3051,-0.9031,-0.0556,0.5670,0.0589,0.0641,-0.5337,-0.3835,-0.3888,
6.141623,-0.3425,-0.9299,-0.1446,0.5670,0.0589,0.0641,-0.5337,-0.3835,-0.3888,
6.142597,-0.3425,-0.9299,-0.1446,0.5670,0.0589,0.0641,-0.6434,0.0661,-0.5773,
6.144055,-0.3425,-0.9299,-0.1446,-1.6168,0.9411,0.1057,-0.6434,0.0661,-0.5773,
6.171440,-0.3425,-0.9299,-0.1446,-1.6168,0.9411,0.1057,-0.8639,0.7532,-0.4548,
6.174323,-0.3425,-0.9299,-0.1446,-1.7858,0.9011,0.4343,-0.8639,0.7532,-0.4548,
6.212126,-0.3425,-0.9299,-0.1446,-1.7858,0.9011,0.4343,-1.2442,0.7319,-0.3696,
6.214586,-0.3425,-0.9299,-0.1446,-2.5050,0.4977,-0.4340,-1.2442,0.7319,-0.3696,
6.215978,-0.2501,-0.9385,-0.2035,-2.5050,0.4977,-0.4340,-1.2442,0.7319,-0.3696,
6.217348,-0.1077,-0.9617,-0.2008,-2.5050,0.4977,-0.4340,-1.2442,0.7319,-0.3696,
6.218603,-0.0266,-0.9993,-0.1915,-2.5050,0.4977,-0.4340,-1.2442,0.7319,-0.3696,
6.219544,-0.0481,-1.0680,-0.2895,-2.5050,0.4977,-0.4340,-1.2442,0.7319,-0.3696,
6.251191,-0.0481,-1.0680,-0.2895,-2.5050,0.4977,-0.4340,-1.4296,0.5007,-0.5187,
6.253939,-0.0481,-1.0680,-0.2895,-2.6906,0.3918,0.1073,-1.4296,0.5007,-0.5187,
6.290987,-0.0481,-1.0680,-0.2895,-2.6906,0.3918,0.1073,-1.5787,0.4389,-0.4921,
6.293400,-0.0481,-1.0680,-0.2895,-1.2972,-1.0169,-0.5694,-1.5787,0.4389,-0.4921,
6.294867,-0.1370,-1.1542,-0.4585,-1.2972,-1.0169,-0.5694,-1.5787,0.4389,-0.4921,
6.296137,-0.1346,-1.1334,-0.3789,-1.2972,-1.0169,-0.5694,-1.5787,0.4389,-0.4921,
6.297385,-0.1781,-1.0941,-0.2877,-1.2972,-1.0169,-0.5694,-1.5787,0.4389,-0.4921,
6.299217,-0.2413,-1.1469,-0.4326,-1.2972,-1.0169,-0.5694,-1.5787,0.4389,-0.4921,
6.330468,-0.2413,-1.1469,-0.4326,-1.2972,-1.0169,-0.5694,-1.3017,-0.0703,-0.2663,
6.333083,-0.2413,-1.1469,-0.4326,-2.4647,-1.6373,-0.5924,-1.3017,-0.0703,-0.2663,
6.370417,-0.2413,-1.1469,-0.4326,-2.4647,-1.6373,-0.5924,-1.3124,-0.4378,0.0320,
6.372587,-0.2413,-1.1469,-0.4326,-1.2002,-2.6117,0.7788,-1.3124,-0.4378,0.0320,
6.374037,-0.2020,-1.1930,-0.4869,-1.2002,-2.6117,0.7788,-1.3124,-0.4378,0.0320,
6.375151,-0.0371,-1.2431,-0.2907,-1.2002,-2.6117,0.7788,-1.3124,-0.4378,0.0320,
6.376094,0.0450,-1.1987,-0.0493,-1.2002,-2.6117,0.7788,-1.3124,-0.4378,0.0320,
6.377294,-0.1084,-1.0333,0.0135,-1.2002,-2.6117,0.7788,-1.3124,-0.4378,0.0320,
6.410247,-0.1084,-1.0333,0.0135,-1.2002,-2.6117,0.7788,-0.5358,-0.0436,-0.0021,
6.412462,-0.1084,-1.0333,0.0135,-1.1751,-2.6430,0.9594,-0.5358,-0.0436,-0.0021,
6.449104,-0.1084,-1.0333,0.0135,-1.1751,-2.6430,0.9594,0.0789,-0.0873,0.1918,
6.451561,-0.1084,-1.0333,0.0135,-2.4991,-0.1787,2.5498,0.0789,-0.0873,0.1918,
6.452917,-0.2621,-0.9358,-0.1150,-2.4991,-0.1787,2.5498,0.0789,-0.0873,0.1918,
6.454123,-0.2672,-0.9170,-0.2169,-2.4991,-0.1787,2.5498,0.0789,-0.0873,0.1918,
6.455209,-0.1910,-0.9180,-0.2162,-2.4991,-0.1787,2.5498,0.0789,-0.0873,0.1918,
6.456050,-0.0715,-0.8654,-0.1666,-2.4991,-0.1787,2.5498,0.0789,-0.0873,0.1918,
6.489034,-0.0715,-0.8654,-0.1666,-2.4991,-0.1787,2.5498,0.3803,-0.5645,0.2855,
6.490750,-0.0715,-0.8654,-0.1666,-2.2767,-0.1198,2.3768,0.3803,-0.5645,0.2855,
6.529218,-0.0715,-0.8654,-0.1666,-2.2767,-0.1198,2.3768,0.9012,-0.7137,0.0863,
6.531590,-0.0715,-0.8654,-0.1666,-0.9034,1.0327,1.5111,0.9012,-0.7137,0.0863,
6.532970,0.0025,-0.7802,-0.0916,-0.9034,1.0327,1.5111,0.9012,-0.7137,0.0863,
6.533900,0.0022,-0.6944,-0.0674,-0.9034,1.0327,1.5111,0.9012,-0.7137,0.0863,
6.535961,-0.0532,-0.6539,-0.1925,-0.9034,1.0327,1.5111,0.9012,-0.7137,0.0863,
6.537261,-0.1241,-0.6839,-0.4204,-0.9034,1.0327,1.5111,0.9012,-0.7137,0.0863,
6.568741,-0.1241,-0.6839,-0.4204,-0.9034,1.0327,1.5111,1.0482,-0.0159,-0.0213,
6.571216,-0.1241,-0.6839,-0.4204,-0.6205,2.8393,0.4378,1.0482,-0.0159,-0.0213,
6.607914,-0.1241,-0.6839,-0.4204,-0.6205,2.8393,0.4378,0.9769,0.0277,-0.1012,
6.610453,-0.1241,-0.6839,-0.4204,-1.5764,-0.2696,0.0276,0.9769,0.0277,-0.1012,
6.611898,-0.1167,-0.8202,-0.4214,-1.5764,-0.2696,0.0276,0.9769,0.0277,-0.1012,
6.613171,-0.1421,-1.0338,-0.1817,-1.5764,-0.2696,0.0276,0.9769,0.0277,-0.1012,
6.614393,-0.2044,-1.1605,-0.0896,-1.5764,-0.2696,0.0276,0.9769,0.0277,-0.1012,
6.615524,-0.3049,-1.1740,-0.2914,-1.5764,-0.2696,0.0276,0.9769,0.0277,-0.1012,
6.647936,-0.3049,-1.1740,-0.2914,-1.5764,-0.2696,0.0276,1.0546,-0.7467,-0.0703,
6.650505,-0.3049,-1.1740,-0.2914,-1.5165,-0.1793,-0.3670,1.0546,-0.7467,-0.0703,
6.687286,-0.3049,-1.1740,-0.2914,-1.5165,-0.1793,-0.3670,0.4006,-0.9054,0.0512,
6.689757,-0.3049,-1.1740,-0.2914,-2.5685,-1.9828,-2.6321,0.4006,-0.9054,0.0512,
6.693052,-0.2648,-1.1532,-0.4277,-2.5685,-1.9828,-2.6321,0.4006,-0.9054,0.0512,
6.695045,-0.2548,-1.2585,-0.6332,-2.5685,-1.9828,-2.6321,0.4006,-0.9054,0.0512,
6.696471,-0.0295,-1.6325,-0.8355,-2.5685,-1.9828,-2.6321,0.4006,-0.9054,0.0512,
6.697798,0.6049,-1.2878,-0.4233,-2.5685,-1.9828,-2.6321,0.4006,-0.9054,0.0512,
6.726524,0.6049,-1.2878,-0.4233,-2.5685,-1.9828,-2.6321,-0.2780,0.0672,0.0288,
6.728045,0.6049,-1.2878,-0.4233,-2.5199,-1.9698,-2.4825,-0.2780,0.0672,0.0288,
6.767368,0.6049,-1.2878,-0.4233,-2.5199,-1.9698,-2.4825,0.0714,-1.7928,-0.1778,
6.769830,0.6049,-1.2878,-0.4233,3.7816,-2.0629,-1.7820,0.0714,-1.7928,-0.1778,
6.771856,0.5280,-0.7066,0.1246,3.7816,-2.0629,-1.7820,0.0714,-1.7928,-0.1778,
6.773128,0.0294,-0.5256,0.1007,3.7816,-2.0629,-1.7820,0.0714,-1.7928,-0.1778,
6.774694,-0.1536,-0.6568,-0.0830,3.7816,-2.0629,-1.7820,0.0714,-1.7928,-0.1778,
6.775832,-0.0036,-0.8327,-0.3434,3.7816,-2.0629,-1.7820,0.0714,-1.7928,-0.1778,
6.806024,-0.0036,-0.8327,-0.3434,3.7816,-2.0629,-1.7820,0.0117,-1.9441,0.3846,
6.808550,-0.0036,-0.8327,-0.3434,0.0546,3.1452,0.8166,0.0117,-1.9441,0.3846,
6.845729,0.1999,-0.9583,-0.5919,0.0546,3.1452,0.8166,0.0117,-1.9441,0.3846,
6.848201,0.1774,-0.9939,-0.4563,0.0546,3.1452,0.8166,0.0117,-1.9441,0.3846,
6.849264,0.1742,-0.9553,-0.1267,0.0546,3.1452,0.8166,0.0117,-1.9441,0.3846,
6.850547,0.1742,-0.9553,-0.1267,0.0546,3.1452,0.8166,-0.6274,-0.6657,-0.0127,
6.851679,0.1742,-0.9553,-0.1267,2.2817,0.1776,-1.7007,-0.6274,-0.6657,-0.0127,
6.886327,0.1742,-0.9553,-0.1267,2.2817,0.1776,-1.7007,-0.3345,0.1066,-0.4388,
6.890978,0.1742,-0.9553,-0.1267,2.5469,-0.0301,-0.2441,-0.3345,0.1066,-0.4388,
6.924782,0.1742,-0.9553,-0.1267,2.5469,-0.0301,-0.2441,-0.3494,-0.2279,-0.4261,
6.929021,0.1742,-0.9553,-0.1267,2.3654,-0.0583,-0.1103,-0.3494,-0.2279,-0.4261,
6.931233,0.2998,-0.9172,-0.0212,2.3654,-0.0583,-0.1103,-0.3494,-0.2279,-0.4261,
6.932761,0.2707,-0.9790,-0.3175,2.3654,-0.0583,-0.1103,-0.3494,-0.2279,-0.4261,
6.933800,0.1298,-1.0682,-0.4311,2.3654,-0.0583,-0.1103,-0.3494,-0.2279,-0.4261,
6.935080,0.1107,-1.0753,-0.1526,2.3654,-0.0583,-0.1103,-0.3494,-0.2279,-0.4261,
6.936077,0.1921,-1.0528,-0.0437,2.3654,-0.0583,-0.1103,-0.3494,-0.2279,-0.4261,
6.964450,0.1921,-1.0528,-0.0437,2.3654,-0.0583,-0.1103,-0.0969,-0.6935,-0.2077,
6.967045,0.1921,-1.0528,-0.0437,2.3138,-0.0660,-0.0738,-0.0969,-0.6935,-0.2077,
7.004315,0.1921,-1.0528,-0.0437,2.3138,-0.0660,-0.0738,0.4272,-0.4974,-0.2119,
7.006580,0.1921,-1.0528,-0.0437,1.4610,-0.8511,1.2452,0.4272,-0.4974,-0.2119,
7.008913,0.1544,-1.0934,-0.1133,1.4610,-0.8511,1.2452,0.4272,-0.4974,-0.2119,
7.010692,0.0895,-1.1288,-0.1695,1.4610,-0.8511,1.2452,0.4272,-0.4974,-0.2119,
7.012252,0.0491,-1.1305,-0.1702,1.4610,-0.8511,1.2452,0.4272,-0.4974,-0.2119,
7.013281,0.0225,-1.0816,-0.1211,1.4610,-0.8511,1.2452,0.4272,-0.4974,-0.2119,
7.044000,0.0225,-1.0816,-0.1211,1.4610,-0.8511,1.2452,0.8032,-0.5475,-0.1171,
7.045817,0.0225,-1.0816,-0.1211,0.4863,-1.1551,0.4358,0.8032,-0.5475,-0.1171,
7.084077,0.0245,-1.0113,-0.1372,0.4863,-1.1551,0.4358,0.8032,-0.5475,-0.1171,
7.086602,0.0298,-0.9734,-0.1807,0.4863,-1.1551,0.4358,0.8032,-0.5475,-0.1171,
7.087853,0.0157,-0.9424,-0.2088,0.4863,-1.1551,0.4358,0.8032,-0.5475,-0.1171,
7.089068,0.0157,-0.9424,-0.2088,0.4863,-1.1551,0.4358,1.1122,-0.6572,0.0096,
7.090330,0.0157,-0.9424,-0.2088,0.2335,0.2684,-0.2077,1.1122,-0.6572,0.0096,
7.123379,0.0157,-0.9424,-0.2088,0.2335,0.2684,-0.2077,1.0440,-0.7627,0.1023,
7.125741,0.0157,-0.9424,-0.2088,-0.1169,1.4643,-0.8296,1.0440,-0.7627,0.1023,
7.164854,0.0157,-0.9424,-0.2088,-0.1169,1.4643,-0.8296,0.7830,-0.8170,0.2813,
7.167115,0.0157,-0.9424,-0.2088,0.0237,1.4676,-1.1220,0.7830,-0.8170,0.2813,
7.168516,-0.0048,-0.8845,-0.2079,0.0237,1.4676,-1.1220,0.7830,-0.8170,0.2813,
7.169551,-0.0205,-0.8356,-0.1842,0.0237,1.4676,-1.1220,0.7830,-0.8170,0.2813,
7.170958,-0.0368,-0.8498,-0.2042,0.0237,1.4676,-1.1220,0.7830,-0.8170,0.2813,
7.172104,-0.0564,-0.9380,-0.2384,0.0237,1.4676,-1.1220,0.7830,-0.8170,0.2813,
7.172911,-0.0422,-1.0132,-0.2403,0.0237,1.4676,-1.1220,0.7830,-0.8170,0.2813,
7.202515,-0.0422,-1.0132,-0.2403,0.0237,1.4676,-1.1220,0.3207,-0.5166,0.4059,
7.205204,-0.0422,-1.0132,-0.2403,0.1944,1.4476,-1.2326,0.3207,-0.5166,0.4059,
7.242181,-0.0422,-1.0132,-0.2403,0.1944,1.4476,-1.2326,-0.1374,-0.2546,0.3250,
7.244774,-0.0422,-1.0132,-0.2403,0.1574,0.0411,-1.4135,-0.1374,-0.2546,0.3250,
7.246129,-0.0151,-1.0460,-0.1951,0.1574,0.0411,-1.4135,-0.1374,-0.2546,0.3250,
7.247509,-0.0197,-1.0460,-0.1128,0.1574,0.0411,-1.4135,-0.1374,-0.2546,0.3250,
7.248494,-0.0183,-1.0208,-0.0429,0.1574,0.0411,-1.4135,-0.1374,-0.2546,0.3250,
7.249633,0.0113,-0.9971,0.0191,0.1574,0.0411,-1.4135,-0.1374,-0.2546,0.3250,
7.281527,0.0113,-0.9971,0.0191,0.1574,0.0411,-1.4135,-0.4698,0.0160,0.1268,
7.284153,0.0113,-0.9971,0.0191,0.4820,-0.1927,0.5159,-0.4698,0.0160,0.1268,
7.321980,-0.0161,-1.0328,0.0873,0.4820,-0.1927,0.5159,-0.4698,0.0160,0.1268,
7.324647,-0.0591,-1.0340,0.0870,0.4820,-0.1927,0.5159,-0.4698,0.0160,0.1268,
7.325782,-0.1143,-1.0079,0.0389,0.4820,-0.1927,0.5159,-0.4698,0.0160,0.1268,
7.326977,-0.1143,-1.0079,0.0389,0.4820,-0.1927,0.5159,-0.6338,0.3857,-0.0500,
7.327943,-0.1143,-1.0079,0.0389,-0.0844,-0.2498,1.8816,-0.6338,0.3857,-0.0500,
7.360651,-0.1143,-1.0079,0.0389,-0.0844,-0.2498,1.8816,-0.7084,0.4890,-0.0308,
7.363179,-0.1143,-1.0079,0.0389,-1.1144,0.1931,0.9843,-0.7084,0.4890,-0.0308,
7.401696,-0.1143,-1.0079,0.0389,-1.1144,0.1931,0.9843,-0.8852,0.5614,0.0299,
7.404114,-0.1143,-1.0079,0.0389,-1.1201,0.1331,1.3143,-0.8852,0.5614,0.0299,
7.405501,-0.1734,-0.9996,-0.0124,-1.1201,0.1331,1.3143,-0.8852,0.5614,0.0299,
7.406650,-0.1864,-0.9832,-0.0532,-1.1201,0.1331,1.3143,-0.8852,0.5614,0.0299,
7.407697,-0.1392,-0.9441,-0.0779,-1.1201,0.1331,1.3143,-0.8852,0.5614,0.0299,
7.408857,-0.0979,-0.8991,-0.0535,-1.1201,0.1331,1.3143,-0.8852,0.5614,0.0299,
7.409677,-0.1231,-0.8691,-0.0439,-1.1201,0.1331,1.3143,-0.8852,0.5614,0.0299,
7.441122,-0.1231,-0.8691,-0.0439,-1.1201,0.1331,1.3143,-0.8533,0.9449,-0.0660,
7.443711,-0.1231,-0.8691,-0.0439,-1.1988,0.0670,1.6308,-0.8533,0.9449,-0.0660,
7.479924,-0.1231,-0.8691,-0.0439,-1.1988,0.0670,1.6308,-0.8905,0.7787,0.0693,
7.483112,-0.1231,-0.8691,-0.0439,-0.8929,1.0006,1.6927,-0.8905,0.7787,0.0693,
7.484667,-0.1756,-0.8427,-0.1258,-0.8929,1.0006,1.6927,-0.8905,0.7787,0.0693,
7.485830,-0.1522,-0.8427,-0.3620,-0.8929,1.0006,1.6927,-0.8905,0.7787,0.0693,
7.487069,-0.0383,-0.8583,-0.5269,-0.8929,1.0006,1.6927,-0.8905,0.7787,0.0693,
7.488208,0.0323,-0.9040,-0.4307,-0.8929,1.0006,1.6927,-0.8905,0.7787,0.0693,
7.519576,0.0323,-0.9040,-0.4307,-0.8929,1.0006,1.6927,-1.2549,0.2973,0.2685,
7.522749,0.0323,-0.9040,-0.4307,-0.0431,0.8681,-1.3898,-1.2549,0.2973,0.2685,
7.559251,0.0323,-0.9040,-0.4307,-0.0431,0.8681,-1.3898,-0.7435,-0.1597,0.1108,
7.561801,0.0323,-0.9040,-0.4307,0.8910,-0.9166,-0.3538,-0.7435,-0.1597,0.1108,
7.563009,0.0760,-0.9333,-0.3513,0.8910,-0.9166,-0.3538,-0.7435,-0.1597,0.1108,
7.564429,0.0860,-1.0230,-0.3117,0.8910,-0.9166,-0.3538,-0.7435,-0.1597,0.1108,
7.565614,-0.0483,-1.1715,-0.4246,0.8910,-0.9166,-0.3538,-0.7435,-0.1597,0.1108,
7.567021,-0.0698,-1.1070,-0.6737,0.8910,-0.9166,-0.3538,-0.7435,-0.1597,0.1108,
7.598136,-0.0698,-1.1070,-0.6737,0.8910,-0.9166,-0.3538,-0.4762,-0.3089,0.0395,
7.600675,-0.0698,-1.1070,-0.6737,0.9301,-0.9631,-0.1825,-0.4762,-0.3089,0.0395,
7.638772,-0.0698,-1.1070,-0.6737,0.9301,-0.9631,-0.1825,-0.5305,0.0459,-0.0660,
7.641939,-0.0698,-1.1070,-0.6737,0.6098,-0.2521,-1.7449,-0.5305,0.0459,-0.0660,
7.643291,0.0118,-0.9402,-0.6068,0.6098,-0.2521,-1.7449,-0.5305,0.0459,-0.0660,
7.644741,0.0863,-0.8425,-0.3539,0.6098,-0.2521,-1.7449,-0.5305,0.0459,-0.0660,
7.645840,0.0604,-0.8544,-0.1966,0.6098,-0.2521,-1.7449,-0.5305,0.0459,-0.0660,
7.647530,-0.0811,-0.9460,-0.1529,0.6098,-0.2521,-1.7449,-0.5305,0.0459,-0.0660,
7.677825,-0.0811,-0.9460,-0.1529,0.6098,-0.2521,-1.7449,0.2323,0.0107,-0.2886,
7.679922,-0.0811,-0.9460,-0.1529,0.4947,-0.2106,-1.7989,0.2323,0.0107,-0.2886,
7.718377,-0.0811,-0.9460,-0.1529,0.4947,-0.2106,-1.7989,0.8075,-0.3813,-0.2183,
7.720614,-0.0811,-0.9460,-0.1529,-0.2658,0.2945,1.6011,0.8075,-0.3813,-0.2183,
7.721965,-0.1763,-0.9673,-0.1431,-0.2658,0.2945,1.6011,0.8075,-0.3813,-0.2183,
7.722943,-0.1673,-0.9246,-0.1920,-0.2658,0.2945,1.6011,0.8075,-0.3813,-0.2183,
7.724206,-0.1605,-0.9123,-0.2494,-0.2658,0.2945,1.6011,0.8075,-0.3813,-0.2183,
7.725490,-0.1890,-0.9468,-0.2831,-0.2658,0.2945,1.6011,0.8075,-0.3813,-0.2183,
7.757295,-0.1890,-0.9468,-0.2831,-0.2658,0.2945,1.6011,1.0759,-0.3504,-0.1501,
7.759044,-0.1890,-0.9468,-0.2831,-1.3023,0.3668,0.4306,1.0759,-0.3504,-0.1501,
7.796470,-0.1890,-0.9468,-0.2831,-1.3023,0.3668,0.4306,1.2762,-0.1523,-0.1363,
7.799559,-0.1890,-0.9468,-0.2831,-1.0379,0.3940,0.1732,1.2762,-0.1523,-0.1363,
7.801250,-0.1827,-0.9722,-0.2662,-1.0379,0.3940,0.1732,1.2762,-0.1523,-0.1363,
7.802281,-0.1443,-0.9470,-0.2042,-1.0379,0.3940,0.1732,1.2762,-0.1523,-0.1363,
7.803596,-0.1033,-0.8943,-0.1837,-1.0379,0.3940,0.1732,1.2762,-0.1523,-0.1363,
7.804723,-0.0393,-0.8652,-0.2313,-1.0379,0.3940,0.1732,1.2762,-0.1523,-0.1363,
7.836956,-0.0393,-0.8652,-0.2313,-1.0379,0.3940,0.1732,1.4211,-0.1267,-0.1938,
7.839091,-0.0393,-0.8652,-0.2313,-1.0834,0.5029,-0.3657,1.4211,-0.1267,-0.1938,
7.876537,-0.0393,-0.8652,-0.2313,-1.0834,0.5029,-0.3657,1.5542,-0.0096,-0.3824,
7.878995,-0.0393,-0.8652,-0.2313,0.5364,1.5102,-0.2661,1.5542,-0.0096,-0.3824,
7.880434,0.0455,-0.8354,-0.1729,0.5364,1.5102,-0.2661,1.5542,-0.0096,-0.3824,
7.881592,0.1070,-0.8256,-0.0371,0.5364,1.5102,-0.2661,1.5542,-0.0096,-0.3824,
7.882705,0.0206,-0.8838,-0.0295,0.5364,1.5102,-0.2661,1.5542,-0.0096,-0.3824,
7.883988,-0.1851,-1.0733,-0.1798,0.5364,1.5102,-0.2661,1.5542,-0.0096,-0.3824,
7.915535,-0.1851,-1.0733,-0.1798,0.3552,1.5386,-0.8425,1.5542,-0.0096,-0.3824,
7.918228,-0.1851,-1.0733,-0.1798,0.3552,1.5386,-0.8425,1.5180,-0.4942,-0.4932,
7.956022,-0.1851,-1.0733,-0.1798,0.3552,1.5386,-0.8425,0.8320,-0.2791,-0.0223,
7.958311,-0.1851,-1.0733,-0.1798,-1.7718,-1.0414,-1.7078,0.8320,-0.2791,-0.0223,
7.959770,-0.3813,-1.3687,-0.4070,-1.7718,-1.0414,-1.7078,0.8320,-0.2791,-0.0223,
7.961209,-0.3334,-1.4879,-0.4890,-1.7718,-1.0414,-1.7078,0.8320,-0.2791,-0.0223,
7.962365,-0.0735,-1.2668,-0.4636,-1.7718,-1.0414,-1.7078,0.8320,-0.2791,-0.0223,
7.963642,-0.0906,-1.0665,-0.4182,-1.7718,-1.0414,-1.7078,0.8320,-0.2791,-0.0223,
7.995543,-0.0906,-1.0665,-0.4182,-1.7718,-1.0414,-1.7078,-0.1481,0.6754,0.0586,
7.998356,-0.0906,-1.0665,-0.4182,-1.5726,-2.6175,-4.0463,-0.1481,0.6754,0.0586,
8.034457,-0.0906,-1.0665,-0.4182,-1.5726,-2.6175,-4.0463,-0.3238,0.2887,0.0522,
8.036553,-0.0906,-1.0665,-0.4182,-1.7828,0.7165,-0.4448,-0.3238,0.2887,0.0522,
8.038440,-0.1939,-0.9864,-0.1917,-1.7828,0.7165,-0.4448,-0.3238,0.2887,0.0522,
8.039476,-0.2142,-0.9351,-0.0417,-1.7828,0.7165,-0.4448,-0.3238,0.2887,0.0522,
8.041230,-0.1676,-0.8735,-0.0762,-1.7828,0.7165,-0.4448,-0.3238,0.2887,0.0522,
8.042673,-0.0322,-0.8261,-0.1201,-1.7828,0.7165,-0.4448,-0.3238,0.2887,0.0522,
8.074924,-0.0322,-0.8261,-0.1201,-1.6578,0.6969,-0.3371,-0.3238,0.2887,0.0522,
8.077535,-0.0322,-0.8261,-0.1201,-1.6578,0.6969,-0.3371,-0.2631,-0.0948,0.2419,
8.114143,-0.0322,-0.8261,-0.1201,-1.6578,0.6969,-0.3371,-0.5848,0.2802,0.1886,
8.116580,-0.0322,-0.8261,-0.1201,0.7836,1.0115,-1.0716,-0.5848,0.2802,0.1886,
8.117807,0.0963,-0.8679,-0.2316,0.7836,1.0115,-1.0716,-0.5848,0.2802,0.1886,
8.118648,0.0919,-0.9932,-0.2589,0.7836,1.0115,-1.0716,-0.5848,0.2802,0.1886,
8.119764,0.0572,-1.0325,-0.1292,0.7836,1.0115,-1.0716,-0.5848,0.2802,0.1886,
8.120939,0.1361,-1.0010,-0.0471,0.7836,1.0115,-1.0716,-0.5848,0.2802,0.1886,
8.153743,0.1361,-1.0010,-0.0471,0.7836,1.0115,-1.0716,-0.5763,0.4869,0.1609,
8.155798,0.1361,-1.0010,-0.0471,0.8119,0.9695,-0.8286,-0.5763,0.4869,0.1609,
8.193032,0.1361,-1.0010,-0.0471,0.8119,0.9695,-0.8286,-0.0053,0.2301,0.2046,
8.195265,0.1361,-1.0010,-0.0471,1.3662,-0.1240,0.7236,-0.0053,0.2301,0.2046,
8.196716,0.1185,-0.9881,0.0431,1.3662,-0.1240,0.7236,-0.0053,0.2301,0.2046,
8.198128,0.0479,-1.0137,0.1703,1.3662,-0.1240,0.7236,-0.0053,0.2301,0.2046,
8.199384,0.0978,-1.0819,0.1562,1.3662,-0.1240,0.7236,-0.0053,0.2301,0.2046,
8.200667,0.1645,-1.2185,-0.0447,1.3662,-0.1240,0.7236,-0.0053,0.2301,0.2046,
8.232854,0.1645,-1.2185,-0.0447,1.4090,-1.0384,1.8036,-0.0053,0.2301,0.2046,
8.235269,0.1645,-1.2185,-0.0447,1.4090,-1.0384,1.8036,0.6573,0.5817,0.2493,
8.273110,0.1645,-1.2185,-0.0447,1.4090,-1.0384,1.8036,0.5966,0.2791,0.2291,
8.275583,0.1645,-1.2185,-0.0447,2.5600,-1.5031,-1.4184,0.5966,0.2791,0.2291,
8.276841,0.2011,-1.2690,-0.2594,2.5600,-1.5031,-1.4184,0.5966,0.2791,0.2291,
8.278121,0.2461,-1.1405,-0.2511,2.5600,-1.5031,-1.4184,0.5966,0.2791,0.2291,
8.279384,0.2040,-1.0589,-0.1319,2.5600,-1.5031,-1.4184,0.5966,0.2791,0.2291,
8.280783,0.1195,-1.0382,-0.0491,2.5600,-1.5031,-1.4184,0.5966,0.2791,0.2291,
8.313163,0.1195,-1.0382,-0.0491,2.5600,-1.5031,-1.4184,0.7074,0.0064,0.2429,
8.315563,0.1195,-1.0382,-0.0491,2.6100,-1.4676,-1.6658,0.7074,0.0064,0.2429,
8.352288,0.1195,-1.0382,-0.0491,2.6100,-1.4676,-1.6658,0.6360,0.1076,0.3069,
8.354613,0.1195,-1.0382,-0.0491,1.8726,0.5968,-0.5908,0.6360,0.1076,0.3069,
8.355992,0.1163,-0.9333,-0.0671,1.8726,0.5968,-0.5908,0.6360,0.1076,0.3069,
8.356916,0.1630,-0.8623,-0.1248,1.8726,0.5968,-0.5908,0.6360,0.1076,0.3069,
8.357912,0.1349,-0.9236,-0.0952,1.8726,0.5968,-0.5908,0.6360,0.1076,0.3069,
8.359002,0.0951,-0.9724,-0.0403,1.8726,0.5968,-0.5908,0.6360,0.1076,0.3069,
8.392169,0.0951,-0.9724,-0.0403,1.8726,0.5968,-0.5908,0.3516,0.2461,0.2323,
8.394371,0.0951,-0.9724,-0.0403,1.9294,0.5831,-0.7099,0.3516,0.2461,0.2323,
8.429960,0.0748,-0.9839,-0.0630,1.9294,0.5831,-0.7099,0.3516,0.2461,0.2323,
8.432312,0.0753,-1.0018,-0.1304,1.9294,0.5831,-0.7099,0.3516,0.2461,0.2323,
8.433824,0.1212,-1.0225,-0.1846,1.9294,0.5831,-0.7099,0.3516,0.2461,0.2323,
8.435215,0.1212,-1.0225,-0.1846,1.9294,0.5831,-0.7099,0.0799,0.2791,0.2131,
8.436202,0.1212,-1.0225,-0.1846,1.6762,0.4197,-0.5848,0.0799,0.2791,0.2131,
8.470750,0.1212,-1.0225,-0.1846,1.6762,0.4197,-0.5848,-0.4101,-0.2332,0.1726,
8.472636,0.1212,-1.0225,-0.1846,1.9182,-0.1711,-1.4488,-0.4101,-0.2332,0.1726,
8.510257,0.1212,-1.0225,-0.1846,1.9182,-0.1711,-1.4488,-1.0205,-0.9108,-0.1182,
8.512801,0.1212,-1.0225,-0.1846,1.8563,-0.1820,-1.0592,-1.0205,-0.9108,-0.1182,
8.513927,0.1713,-1.0352,-0.2022,1.8563,-0.1820,-1.0592,-1.0205,-0.9108,-0.1182,
8.515194,0.2431,-1.1156,-0.1930,1.8563,-0.1820,-1.0592,-1.0205,-0.9108,-0.1182,
8.516181,0.2546,-1.1904,-0.1341,1.8563,-0.1820,-1.0592,-1.0205,-0.9108,-0.1182,
8.518396,0.1163,-1.1276,-0.0745,1.8563,-0.1820,-1.0592,-1.0205,-0.9108,-0.1182,
8.519392,-0.1355,-1.0401,-0.1358,1.8563,-0.1820,-1.0592,-1.0205,-0.9108,-0.1182,
8.549367,-0.1355,-1.0401,-0.1358,1.8563,-0.1820,-1.0592,-1.4594,-0.6988,-0.3675,
8.551643,-0.1355,-1.0401,-0.1358,2.5001,-1.4234,-0.1290,-1.4594,-0.6988,-0.3675,
8.589618,-0.1355,-1.0401,-0.1358,2.5001,-1.4234,-0.1290,-1.8834,0.0192,0.0075,
8.592632,-0.1355,-1.0401,-0.1358,-2.9951,0.0107,-0.4645,-1.8834,0.0192,0.0075,
8.594003,-0.4136,-0.9744,-0.3044,-2.9951,0.0107,-0.4645,-1.8834,0.0192,0.0075,
8.595195,-0.5345,-0.9446,-0.2892,-2.9951,0.0107,-0.4645,-1.8834,0.0192,0.0075,
8.596506,-0.4893,-0.9544,-0.0718,-2.9951,0.0107,-0.4645,-1.8834,0.0192,0.0075,
8.597671,-0.3466,-0.9522,0.0245,-2.9951,0.0107,-0.4645,-1.8834,0.0192,0.0075,
8.629210,-0.3466,-0.9522,0.0245,-2.9951,0.0107,-0.4645,-1.5819,1.0067,0.3772,
8.631915,-0.3466,-0.9522,0.0245,-2.8940,-0.1352,0.1576,-1.5819,1.0067,0.3772,
8.674056,-0.3466,-0.9522,0.0245,-2.8940,-0.1352,0.1576,-0.8394,1.3487,0.0757,
8.676362,-0.3466,-0.9522,0.0245,-2.7454,0.0189,2.9877,-0.8394,1.3487,0.0757,
8.677666,-0.1803,-0.9771,0.0934,-2.7454,0.0189,2.9877,-0.8394,1.3487,0.0757,
8.678883,-0.0593,-0.9922,0.2077,-2.7454,0.0189,2.9877,-0.8394,1.3487,0.0757,
8.681392,-0.0669,-0.9165,0.2180,-2.7454,0.0189,2.9877,-0.8394,1.3487,0.0757,
8.682779,-0.0598,-0.8427,0.1132,-2.7454,0.0189,2.9877,-0.8394,1.3487,0.0757,
8.708060,-0.0598,-0.8427,0.1132,-2.7454,0.0189,2.9877,0.1524,0.8011,-0.3206,
8.709816,-0.0598,-0.8427,0.1132,-0.2401,0.4656,4.4799,0.1524,0.8011,-0.3206,
8.747852,-0.0598,-0.8427,0.1132,-0.2401,0.4656,4.4799,0.5625,0.5732,-0.4516,
8.749875,-0.0598,-0.8427,0.1132,-0.3293,0.6021,0.6151,0.5625,0.5732,-0.4516,
8.751056,-0.0549,-0.8867,-0.0398,-0.3293,0.6021,0.6151,0.5625,0.5732,-0.4516,
8.751964,-0.0408,-0.9297,-0.2174,-0.3293,0.6021,0.6151,0.5625,0.5732,-0.4516,
8.752889,-0.0491,-0.9094,-0.3210,-0.3293,0.6021,0.6151,0.5625,0.5732,-0.4516,
8.753845,-0.0886,-0.8153,-0.2010,-0.3293,0.6021,0.6151,0.5625,0.5732,-0.4516,
8.787518,-0.0886,-0.8153,-0.2010,-0.3293,0.6021,0.6151,0.3239,1.3444,-0.4239,
8.789948,-0.0886,-0.8153,-0.2010,-0.6084,0.6229,0.4842,0.3239,1.3444,-0.4239,
8.827575,-0.2364,-0.7132,-0.0837,-0.6084,0.6229,0.4842,0.3239,1.3444,-0.4239,
8.830316,-0.4192,-0.7110,-0.1121,-0.6084,0.6229,0.4842,0.3239,1.3444,-0.4239,
8.831657,-0.4712,-0.8212,-0.2572,-0.6084,0.6229,0.4842,0.3239,1.3444,-0.4239,
8.833001,-0.4712,-0.8212,-0.2572,-0.6084,0.6229,0.4842,0.2290,1.4659,0.0011,
8.834884,-0.4712,-0.8212,-0.2572,-2.6562,2.1952,0.9609,0.2290,1.4659,0.0011,
8.867300,-0.4712,-0.8212,-0.2572,-2.6562,2.1952,0.9609,0.1662,0.0767,0.6019,
8.869637,-0.4712,-0.8212,-0.2572,-3.8505,-1.2566,-2.1850,0.1662,0.0767,0.6019,
8.906373,-0.4712,-0.8212,-0.2572,-3.8505,-1.2566,-2.1850,-0.2269,1.6821,0.7500,
8.909973,-0.4712,-0.8212,-0.2572,-3.6564,-1.2598,-2.0548,-0.2269,1.6821,0.7500,
8.911428,-0.5108,-1.1007,-0.4419,-3.6564,-1.2598,-2.0548,-0.2269,1.6821,0.7500,
8.912583,-0.2152,-1.3863,-0.6525,-3.6564,-1.2598,-2.0548,-0.2269,1.6821,0.7500,
8.913932,0.1574,-1.4127,-0.2853,-3.6564,-1.2598,-2.0548,-0.2269,1.6821,0.7500,
8.915082,0.2297,-1.2177,0.1268,-3.6564,-1.2598,-2.0548,-0.2269,1.6821,0.7500,
8.916051,0.2930,-1.0455,-0.3136,-3.6564,-1.2598,-2.0548,-0.2269,1.6821,0.7500,
8.945768,0.2930,-1.0455,-0.3136,-3.6564,-1.2598,-2.0548,-0.1097,0.3857,0.4890,
8.947672,0.2930,-1.0455,-0.3136,2.5807,-2.4362,0.8497,-0.1097,0.3857,0.4890,
8.985342,0.2930,-1.0455,-0.3136,2.5807,-2.4362,0.8497,0.0320,-0.6359,0.1907,
8.987874,0.2930,-1.0455,-0.3136,3.9793,-0.4761,0.3095,0.0320,-0.6359,0.1907,
8.988928,0.3760,-0.9441,-0.5294,3.9793,-0.4761,0.3095,0.0320,-0.6359,0.1907,
8.989889,0.4803,-0.9939,-0.1311,3.9793,-0.4761,0.3095,0.0320,-0.6359,0.1907,
8.991115,0.2319,-1.1403,0.0318,3.9793,-0.4761,0.3095,0.0320,-0.6359,0.1907,
8.992101,-0.1128,-1.2228,-0.0725,3.9793,-0.4761,0.3095,0.0320,-0.6359,0.1907,
9.025784,-0.1128,-1.2228,-0.0725,3.9793,-0.4761,0.3095,0.5870,-1.0780,-0.0298,
9.027700,-0.1128,-1.2228,-0.0725,3.9964,-0.4163,0.0647,0.5870,-1.0780,-0.0298,
9.065498,-0.1128,-1.2228,-0.0725,3.9964,-0.4163,0.0647,0.9982,-0.1044,0.0853,
9.067808,-0.1128,-1.2228,-0.0725,-1.0075,-1.2221,0.9231,0.9982,-0.1044,0.0853,
9.069145,-0.2030,-1.1290,-0.1228,-1.0075,-1.2221,0.9231,0.9982,-0.1044,0.0853,
9.070238,-0.1458,-1.0022,-0.0481,-1.0075,-1.2221,0.9231,0.9982,-0.1044,0.0853,
9.071256,-0.1155,-0.9360,-0.1057,-1.0075,-1.2221,0.9231,0.9982,-0.1044,0.0853,
9.072408,-0.0671,-0.9566,-0.2975,-1.0075,-1.2221,0.9231,0.9982,-0.1044,0.0853,
9.104727,-0.0671,-0.9566,-0.2975,-1.0075,-1.2221,0.9231,1.0184,0.0703,0.4187,
9.106907,-0.0671,-0.9566,-0.2975,-0.8353,-1.1508,0.5218,1.0184,0.0703,0.4187,
9.145316,-0.0671,-0.9566,-0.2975,0.4267,0.4467,-1.2340,1.0184,0.0703,0.4187,
9.147822,-0.0671,-0.9566,-0.2975,0.4267,0.4467,-1.2340,0.7265,-0.2748,0.5433,
9.149161,0.0411,-0.9754,-0.2948,0.4267,0.4467,-1.2340,0.7265,-0.2748,0.5433,
9.150271,0.1664,-0.8930,-0.1492,0.4267,0.4467,-1.2340,0.7265,-0.2748,0.5433,
9.151257,0.2023,-0.8139,-0.0798,0.4267,0.4467,-1.2340,0.7265,-0.2748,0.5433,
9.152209,0.1444,-0.8251,-0.1045,0.4267,0.4467,-1.2340,0.7265,-0.2748,0.5433,
9.184478,0.1444,-0.8251,-0.1045,0.4267,0.4467,-1.2340,0.5849,-0.2503,0.4017,
9.186564,0.1444,-0.8251,-0.1045,2.6856,1.5243,-0.2759,0.5849,-0.2503,0.4017,
9.223940,0.1444,-0.8251,-0.1045,2.6856,1.5243,-0.2759,0.2024,0.0373,0.3356,
9.226995,0.1444,-0.8251,-0.1045,0.8436,-0.1438,-0.3406,0.2024,0.0373,0.3356,
9.228264,0.0440,-0.9219,-0.1404,0.8436,-0.1438,-0.3406,0.2024,0.0373,0.3356,
9.229410,-0.0427,-1.0345,-0.1157,0.8436,-0.1438,-0.3406,0.2024,0.0373,0.3356,
9.230322,-0.0872,-1.0846,-0.0754,0.8436,-0.1438,-0.3406,0.2024,0.0373,0.3356,
9.231708,-0.1018,-1.0384,-0.0229,0.8436,-0.1438,-0.3406,0.2024,0.0373,0.3356,
9.262748,-0.1018,-1.0384,-0.0229,0.8436,-0.1438,-0.3406,-0.2152,0.0640,0.2845,
9.264342,-0.1018,-1.0384,-0.0229,0.9361,-0.1610,-0.2500,-0.2152,0.0640,0.2845,
9.303357,-0.1018,-1.0384,-0.0229,0.9361,-0.1610,-0.2500,-0.3835,0.2174,0.0629,
9.305598,-0.1018,-1.0384,-0.0229,0.2610,-0.1153,1.5263,-0.3835,0.2174,0.0629,
9.307120,-0.1048,-0.9846,0.0824,0.2610,-0.1153,1.5263,-0.3835,0.2174,0.0629,
9.308397,-0.0896,-0.9993,0.1119,0.2610,-0.1153,1.5263,-0.3835,0.2174,0.0629,
9.309257,-0.1045,-1.0039,0.0797,0.2610,-0.1153,1.5263,-0.3835,0.2174,0.0629,
9.310178,-0.1881,-0.9566,0.0768,0.2610,-0.1153,1.5263,-0.3835,0.2174,0.0629,
9.342122,-0.1881,-0.9566,0.0768,0.2610,-0.1153,1.5263,-0.4346,0.7159,-0.1491,
9.344128,-0.1881,-0.9566,0.0768,0.1700,-0.1246,1.6992,-0.4346,0.7159,-0.1491,
9.382518,-0.2968,-0.9153,0.0340,0.1700,-0.1246,1.6992,-0.4346,0.7159,-0.1491,
9.385088,-0.3381,-0.8657,-0.0429,0.1700,-0.1246,1.6992,-0.4346,0.7159,-0.1491,
9.386143,-0.2924,-0.8439,-0.1558,0.1700,-0.1246,1.6992,-0.4346,0.7159,-0.1491,
9.387474,-0.2924,-0.8439,-0.1558,0.1700,-0.1246,1.6992,-0.3856,0.8895,0.0086,
9.388507,-0.2924,-0.8439,-0.1558,-0.8143,0.3295,1.9171,-0.3856,0.8895,0.0086,
9.421788,-0.2924,-0.8439,-0.1558,-0.8143,0.3295,1.9171,-0.7276,0.7180,0.1524,
9.424404,-0.2924,-0.8439,-0.1558,-1.6896,1.0146,-0.1340,-0.7276,0.7180,0.1524,
9.461727,-0.2924,-0.8439,-0.1558,-1.6896,1.0146,-0.1340,-1.1622,1.0813,0.1247,
9.464094,-0.2924,-0.8439,-0.1558,-1.6928,0.9081,0.3520,-1.1622,1.0813,0.1247,
9.467403,-0.2411,-0.9363,-0.3346,-1.6928,0.9081,0.3520,-1.1622,1.0813,0.1247,
9.469047,-0.1832,-1.0264,-0.4551,-1.6928,0.9081,0.3520,-1.1622,1.0813,0.1247,
9.470012,-0.1326,-1.0291,-0.3640,-1.6928,0.9081,0.3520,-1.1622,1.0813,0.1247,
9.471364,-0.1121,-0.9441,-0.2675,-1.6928,0.9081,0.3520,-1.1622,1.0813,0.1247,
9.472363,-0.1338,-0.9001,-0.2374,-1.6928,0.9081,0.3520,-1.1622,1.0813,0.1247,
9.501016,-0.1338,-0.9001,-0.2374,-1.6928,0.9081,0.3520,-0.9971,1.3849,0.0501,
9.503634,-0.1338,-0.9001,-0.2374,-0.3464,-0.3353,-1.0018,-0.9971,1.3849,0.0501,
9.540345,-0.1338,-0.9001,-0.2374,-0.3464,-0.3353,-1.0018,-0.6754,1.0568,0.1801,
9.542725,-0.1338,-0.9001,-0.2374,-1.3744,0.0442,-0.0434,-0.6754,1.0568,0.1801,
9.544330,-0.2670,-0.9509,-0.2750,-1.3744,0.0442,-0.0434,-0.6754,1.0568,0.1801,
9.545418,-0.3349,-1.0079,-0.3713,-1.3744,0.0442,-0.0434,-0.6754,1.0568,0.1801,
9.546535,-0.1866,-0.9514,-0.3144,-1.3744,0.0442,-0.0434,-0.6754,1.0568,0.1801,
9.547587,-0.1236,-0.8769,-0.1368,-1.3744,0.0442,-0.0434,-0.6754,1.0568,0.1801,
9.579793,-0.1236,-0.8769,-0.1368,-1.3744,0.0442,-0.0434,-0.3302,0.9353,0.1257,
9.582486,-0.1236,-0.8769,-0.1368,-1.4126,0.0009,0.1143,-0.3302,0.9353,0.1257,
9.620509,-0.2303,-0.8935,-0.0119,-1.4126,0.0009,0.1143,-0.3302,0.9353,0.1257,
9.623261,-0.2936,-0.9534,-0.0535,-1.4126,0.0009,0.1143,-0.3302,0.9353,0.1257,
9.624747,-0.1651,-0.9658,-0.2560,-1.4126,0.0009,0.1143,-0.3302,0.9353,0.1257,
9.625719,-0.1651,-0.9658,-0.2560,-1.4126,0.0009,0.1143,0.4964,0.9790,0.0704,
9.627161,-0.1651,-0.9658,-0.2560,-0.8490,0.4953,1.3187,0.4964,0.9790,0.0704,
9.659293,-0.1651,-0.9658,-0.2560,-0.8490,0.4953,1.3187,1.0568,0.6190,0.0000,
9.661257,-0.1651,-0.9658,-0.2560,-0.8878,0.0530,0.2346,1.0568,0.6190,0.0000,
9.698847,-0.1651,-0.9658,-0.2560,-0.8878,0.0530,0.2346,1.3753,0.8576,-0.2311,
9.701262,-0.1651,-0.9658,-0.2560,-1.0329,0.1775,-0.2556,1.3753,0.8576,-0.2311,
9.702502,-0.0781,-0.9717,-0.3698,-1.0329,0.1775,-0.2556,1.3753,0.8576,-0.2311,
9.704417,-0.0310,-0.9851,-0.3564,-1.0329,0.1775,-0.2556,1.3753,0.8576,-0.2311,
9.705666,-0.0664,-1.0044,-0.2689,-1.0329,0.1775,-0.2556,1.3753,0.8576,-0.2311,
9.706610,-0.1397,-0.9981,-0.2499,-1.0329,0.1775,-0.2556,1.3753,0.8576,-0.2311,
9.707707,-0.1277,-0.9710,-0.1800,-1.0329,0.1775,-0.2556,1.3753,0.8576,-0.2311,
9.739209,-0.1277,-0.9710,-0.1800,-1.0329,0.1775,-0.2556,1.8472,0.6765,-0.3185,
9.741844,-0.1277,-0.9710,-0.1800,-0.2165,-0.0119,-1.5609,1.8472,0.6765,-0.3185,
9.778390,-0.1277,-0.9710,-0.1800,-0.2165,-0.0119,-1.5609,2.1156,0.0714,-0.2748,
9.780899,-0.1277,-0.9710,-0.1800,-0.6687,-0.3418,-0.9206,2.1156,0.0714,-0.2748,
9.782327,-0.0903,-1.0118,-0.0735,-0.6687,-0.3418,-0.9206,2.1156,0.0714,-0.2748,
9.783350,-0.1270,-1.1322,-0.1795,-0.6687,-0.3418,-0.9206,2.1156,0.0714,-0.2748,
9.784702,-0.1289,-1.2297,-0.3244,-0.6687,-0.3418,-0.9206,2.1156,0.0714,-0.2748,
9.785960,-0.0464,-1.2502,-0.3205,-0.6687,-0.3418,-0.9206,2.1156,0.0714,-0.2748,
9.818502,-0.0464,-1.2502,-0.3205,-0.6687,-0.3418,-0.9206,1.8781,-0.3685,-0.1086,
9.820825,-0.0464,-1.2502,-0.3205,-0.6986,-0.3251,-1.6321,1.8781,-0.3685,-0.1086,
9.857919,0.0802,-1.0973,-0.3134,-0.6986,-0.3251,-1.6321,1.8781,-0.3685,-0.1086,
9.860420,0.0904,-0.8903,-0.3649,-0.6986,-0.3251,-1.6321,1.8781,-0.3685,-0.1086,
9.861446,-0.0979,-0.8026,-0.3774,-0.6986,-0.3251,-1.6321,1.8781,-0.3685,-0.1086,
9.862613,-0.0979,-0.8026,-0.3774,-0.6986,-0.3251,-1.6321,1.1537,0.3761,-0.1012,
9.863773,-0.0979,-0.8026,-0.3774,0.0849,-1.8227,-3.7288,1.1537,0.3761,-0.1012,
9.897320,-0.0979,-0.8026,-0.3774,0.0849,-1.8227,-3.7288,0.0671,-0.0798,0.1545,
9.899733,-0.0979,-0.8026,-0.3774,-0.4470,1.7264,-3.8595,0.0671,-0.0798,0.1545,
9.937112,-0.0979,-0.8026,-0.3774,-0.4470,1.7264,-3.8595,-0.2812,-0.5997,0.5455,
9.940046,-0.0979,-0.8026,-0.3774,-0.2428,1.6913,-3.7007,-0.2812,-0.5997,0.5455,
9.941431,-0.2706,-0.7875,-0.2675,-0.2428,1.6913,-3.7007,-0.2812,-0.5997,0.5455,
9.942581,-0.2775,-0.7589,-0.0894,-0.2428,1.6913,-3.7007,-0.2812,-0.5997,0.5455,
9.943995,-0.1490,-0.7946,0.0824,-0.2428,1.6913,-3.7007,-0.2812,-0.5997,0.5455,
9.944828,0.0313,-0.9661,0.2080,-0.2428,1.6913,-3.7007,-0.2812,-0.5997,0.5455,
9.945804,0.1796,-1.2155,0.1503,-0.2428,1.6913,-3.7007,-0.2812,-0.5997,0.5455,
9.975745,0.1796,-1.2155,0.1503,-0.2428,1.6913,-3.7007,0.3345,-0.4154,0.4081,
9.977908,0.1796,-1.2155,0.1503,-0.4662,1.5195,0.1107,0.3345,-0.4154,0.4081,
10.017158,0.1796,-1.2155,0.1503,-0.4662,1.5195,0.1107,0.3303,0.2152,-0.0436,
10.019399,0.2925,-1.3584,0.0054,-0.4662,1.5195,0.1107,0.3303,0.2152,-0.0436,
10.020939,0.3128,-1.3245,-0.2548,-0.4662,1.5195,0.1107,0.3303,0.2152,-0.0436,
10.022059,0.3729,-1.1092,-0.5939,-0.4662,1.5195,0.1107,0.3303,0.2152,-0.0436,
10.023303,0.3643,-0.9138,-0.5655,-0.4662,1.5195,0.1107,0.3303,0.2152,-0.0436,
10.024763,0.3643,-0.9138,-0.5655,3.3207,-2.9414,-0.9732,0.3303,0.2152,-0.0436,
10.056273,0.3643,-0.9138,-0.5655,3.3207,-2.9414,-0.9732,-1.0940,-0.2322,-0.2556,
10.058780,0.3643,-0.9138,-0.5655,3.1639,-2.8666,-0.5450,-1.0940,-0.2322,-0.2556,
10.096064,0.3643,-0.9138,-0.5655,3.1639,-2.8666,-0.5450,-1.4466,-1.4647,-0.0905,
10.098812,0.3643,-0.9138,-0.5655,3.4384,0.3110,-3.4219,-1.4466,-1.4647,-0.0905,
10.100165,0.1591,-0.9009,-0.0012,3.4384,0.3110,-3.4219,-1.4466,-1.4647,-0.0905,
10.101306,0.0369,-0.9675,0.3453,3.4384,0.3110,-3.4219,-1.4466,-1.4647,-0.0905,
10.102423,-0.0735,-1.0482,0.2615,3.4384,0.3110,-3.4219,-1.4466,-1.4647,-0.0905,
10.103698,-0.1666,-1.0848,0.0895,3.4384,0.3110,-3.4219,-1.4466,-1.4647,-0.0905,
10.135216,-0.1666,-1.0848,0.0895,3.4384,0.3110,-3.4219,-1.0802,-1.6255,-0.0362,
10.137084,-0.1666,-1.0848,0.0895,-0.1276,-0.2846,2.9811,-1.0802,-1.6255,-0.0362,
10.175000,-0.1876,-1.1547,-0.1805,-0.1276,-0.2846,2.9811,-1.0802,-1.6255,-0.0362,
10.177052,-0.2181,-1.2307,-0.5626,-0.1276,-0.2846,2.9811,-1.0802,-1.6255,-0.0362,
10.178453,-0.2255,-1.2175,-0.6689,-0.1276,-0.2846,2.9811,-1.0802,-1.6255,-0.0362,
10.179747,-0.2255,-1.2175,-0.6689,-0.1276,-0.2846,2.9811,-1.9356,-1.1547,0.0863,
10.180717,-0.2255,-1.2175,-0.6689,-1.4217,-1.9758,-3.1266,-1.9356,-1.1547,0.0863,
10.214127,-0.2255,-1.2175,-0.6689,-1.4217,-1.9758,-3.1266,-3.0200,-0.4111,0.3079,
10.216460,-0.2255,-1.2175,-0.6689,-1.4461,-2.3118,0.1876,-3.0200,-0.4111,0.3079,
10.253861,-0.2255,-1.2175,-0.6689,-1.4461,-2.3118,0.1876,-2.3595,0.3026,0.2941,
10.256130,-0.2255,-1.2175,-0.6689,-1.3525,-2.5661,1.0626,-2.3595,0.3026,0.2941,
10.257701,-0.2667,-1.2360,-0.5233,-1.3525,-2.5661,1.0626,-2.3595,0.3026,0.2941,
10.259014,-0.2873,-1.2189,-0.2162,-1.3525,-2.5661,1.0626,-2.3595,0.3026,0.2941,
10.260244,-0.1375,-1.1845,-0.0083,-1.3525,-2.5661,1.0626,-2.3595,0.3026,0.2941,
10.261221,0.0909,-1.1134,0.2478,-1.3525,-2.5661,1.0626,-2.3595,0.3026,0.2941,
10.262315,0.1838,-1.0606,0.2011,-1.3525,-2.5661,1.0626,-2.3595,0.3026,0.2941,
10.293761,0.1838,-1.0606,0.2011,-1.3525,-2.5661,1.0626,-1.0237,-0.4069,-0.1821,
10.296028,0.1838,-1.0606,0.2011,-1.3353,-2.6641,1.3996,-1.0237,-0.4069,-0.1821,
10.333882,0.1838,-1.0606,0.2011,2.4244,-0.9381,5.2405,-1.0237,-0.4069,-0.1821,
10.336285,0.1838,-1.0606,0.2011,2.4244,-0.9381,5.2405,-0.3654,-0.8436,-0.6061,
10.337778,0.2248,-0.9311,-0.0254,2.4244,-0.9381,5.2405,-0.3654,-0.8436,-0.6061,
10.338621,0.0557,-0.7787,-0.0459,2.4244,-0.9381,5.2405,-0.3654,-0.8436,-0.6061,
10.339727,-0.1333,-0.7030,-0.1260,2.4244,-0.9381,5.2405,-0.3654,-0.8436,-0.6061,
10.341358,-0.2633,-0.6761,-0.1922,2.4244,-0.9381,5.2405,-0.3654,-0.8436,-0.6061,
10.373398,-0.2633,-0.6761,-0.1922,2.4244,-0.9381,5.2405,0.0597,-0.5081,-0.6242,
10.376148,-0.2633,-0.6761,-0.1922,-0.4635,2.1473,2.5871,0.0597,-0.5081,-0.6242,
10.412675,-0.2633,-0.6761,-0.1922,-0.4635,2.1473,2.5871,0.4325,-0.3036,-0.5986,
10.414963,-0.2633,-0.6761,-0.1922,-1.5956,3.1444,2.1641,0.4325,-0.3036,-0.5986,
10.416528,-0.2997,-0.6482,-0.2296,-1.5956,3.1444,2.1641,0.4325,-0.3036,-0.5986,
10.417731,-0.2142,-0.6128,-0.1363,-1.5956,3.1444,2.1641,0.4325,-0.3036,-0.5986,
10.418717,-0.1285,-0.5986,-0.0659,-1.5956,3.1444,2.1641,0.4325,-0.3036,-0.5986,
10.419832,-0.1509,-0.6197,-0.1011,-1.5956,3.1444,2.1641,0.4325,-0.3036,-0.5986,
10.452126,-0.1509,-0.6197,-0.1011,-1.7531,3.2504,1.7123,0.4325,-0.3036,-0.5986,
10.454859,-0.1509,-0.6197,-0.1011,-1.7531,3.2504,1.7123,1.1292,-0.3898,-0.6498,
10.492232,-0.1734,-0.7523,-0.2091,-1.7531,3.2504,1.7123,1.1292,-0.3898,-0.6498,
10.494360,-0.1934,-1.0272,-0.4849,-1.7531,3.2504,1.7123,1.1292,-0.3898,-0.6498,
10.495395,-0.2816,-1.3313,-0.8790,-1.7531,3.2504,1.7123,1.1292,-0.3898,-0.6498,
10.496980,-0.2816,-1.3313,-0.8790,-1.7531,3.2504,1.7123,1.0706,-0.8990,-0.4250,
10.499108,-0.2816,-1.3313,-0.8790,-1.3776,1.5904,0.1145,1.0706,-0.8990,-0.4250,
10.531083,-0.2816,-1.3313,-0.8790,-1.3776,1.5904,0.1145,-0.0969,-0.7403,-0.0479,
10.532869,-0.2816,-1.3313,-0.8790,-4.4141,-4.7640,-3.3889,-0.0969,-0.7403,-0.0479,
10.570783,-0.2816,-1.3313,-0.8790,-4.4141,-4.7640,-3.3889,-0.0735,-0.2940,0.2664,
10.572679,-0.2816,-1.3313,-0.8790,-4.2099,-4.6981,-3.3109,-0.0735,-0.2940,0.2664,
10.575514,-0.4871,-1.5656,-0.7292,-4.2099,-4.6981,-3.3109,-0.0735,-0.2940,0.2664,
10.576738,-0.7202,-1.4691,-0.2851,-4.2099,-4.6981,-3.3109,-0.0735,-0.2940,0.2664,
10.577909,-0.5963,-1.0518,-0.1394,-4.2099,-4.6981,-3.3109,-0.0735,-0.2940,0.2664,
10.579129,-0.4072,-0.8212,-0.2352,-4.2099,-4.6981,-3.3109,-0.0735,-0.2940,0.2664,
10.580364,-0.1678,-0.8320,-0.2499,-4.2099,-4.6981,-3.3109,-0.0735,-0.2940,0.2664,
10.610186,-0.1678,-0.8320,-0.2499,-4.2099,-4.6981,-3.3109,0.4538,-1.0652,0.3388,
10.611871,-0.1678,-0.8320,-0.2499,-2.8778,0.7546,0.6177,0.4538,-1.0652,0.3388,
10.649935,-0.1678,-0.8320,-0.2499,-2.8778,0.7546,0.6177,0.4453,-1.5318,-0.2716,
10.651935,-0.1678,-0.8320,-0.2499,6.8662,0.0222,-0.1979,0.4453,-1.5318,-0.2716,
10.653272,0.4100,-0.9610,-0.1785,6.8662,0.0222,-0.1979,0.4453,-1.5318,-0.2716,
10.654819,0.8563,-1.0225,-0.2479,6.8662,0.0222,-0.1979,0.4453,-1.5318,-0.2716,
10.655950,0.5654,-0.9627,-0.3784,6.8662,0.0222,-0.1979,0.4453,-1.5318,-0.2716,
10.657250,0.1327,-0.8434,-0.4106,6.8662,0.0222,-0.1979,0.4453,-1.5318,-0.2716,
10.690263,0.1327,-0.8434,-0.4106,6.8662,0.0222,-0.1979,-0.0426,-2.5417,-0.7542,
10.692685,0.1327,-0.8434,-0.4106,6.7036,0.0434,-0.2642,-0.0426,-2.5417,-0.7542,
10.730199,0.1327,-0.8434,-0.4106,6.7036,0.0434,-0.2642,-0.4037,-2.9848,-0.3302,
10.732784,0.1327,-0.8434,-0.4106,0.3934,0.9464,0.4022,-0.4037,-2.9848,-0.3302,
10.734098,-0.1658,-0.8515,-0.2345,0.3934,0.9464,0.4022,-0.4037,-2.9848,-0.3302,
10.735282,-0.1126,-0.9612,0.0274,0.3934,0.9464,0.4022,-0.4037,-2.9848,-0.3302,
10.736460,0.0013,-0.9871,-0.1377,0.3934,0.9464,0.4022,-0.4037,-2.9848,-0.3302,
10.738053,0.0020,-0.9370,-0.3667,0.3934,0.9464,0.4022,-0.4037,-2.9848,-0.3302,
10.769256,0.0020,-0.9370,-0.3667,0.3934,0.9464,0.4022,-0.5486,-2.3148,-0.2023,
10.771861,0.0020,-0.9370,-0.3667,0.5341,0.8851,0.5158,-0.5486,-2.3148,-0.2023,
10.809091,-0.0251,-0.9026,-0.2294,0.5341,0.8851,0.5158,-0.5486,-2.3148,-0.2023,
10.811472,-0.0652,-0.9221,-0.2113,0.5341,0.8851,0.5158,-0.5486,-2.3148,-0.2023,
10.812802,-0.0701,-0.9688,-0.2115,0.5341,0.8851,0.5158,-0.5486,-2.3148,-0.2023,
10.813774,-0.0701,-0.9688,-0.2115,0.5341,0.8851,0.5158,-0.7190,-1.8929,-0.1896,
10.814947,-0.0701,-0.9688,-0.2115,1.0460,0.2568,0.3224,-0.7190,-1.8929,-0.1896,
10.849100,-0.0701,-0.9688,-0.2115,1.0460,0.2568,0.3224,-0.3057,-0.7563,-0.3004,
10.851485,-0.0701,-0.9688,-0.2115,0.5446,-0.2303,0.8607,-0.3057,-0.7563,-0.3004,
10.888370,-0.0701,-0.9688,-0.2115,0.5446,-0.2303,0.8607,0.1822,-0.2258,-0.3557,
10.891216,-0.0701,-0.9688,-0.2115,0.4284,-0.1927,0.7697,0.1822,-0.2258,-0.3557,
10.892459,-0.0281,-1.0799,-0.1666,0.4284,-0.1927,0.7697,0.1822,-0.2258,-0.3557,
10.893554,0.0245,-1.1584,-0.1578,0.4284,-0.1927,0.7697,0.1822,-0.2258,-0.3557,
10.894652,0.0201,-1.1388,-0.2008,0.4284,-0.1927,0.7697,0.1822,-0.2258,-0.3557,
10.895765,0.0487,-1.1173,-0.2631,0.4284,-0.1927,0.7697,0.1822,-0.2258,-0.3557,
10.897007,0.1415,-1.1317,-0.2587,0.4284,-0.1927,0.7697,0.1822,-0.2258,-0.3557,
10.928140,0.1415,-1.1317,-0.2587,0.4284,-0.1927,0.7697,0.6189,-0.8831,-0.3153,
10.931248,0.1415,-1.1317,-0.2587,1.2162,-1.5413,0.3905,0.6189,-0.8831,-0.3153,
10.964373,0.2202,-1.1427,-0.2303,1.2162,-1.5413,0.3905,0.6189,-0.8831,-0.3153,
10.967741,0.2485,-1.0917,-0.2196,1.2162,-1.5413,0.3905,0.6189,-0.8831,-0.3153,
10.968984,0.2297,-1.0039,-0.1932,1.2162,-1.5413,0.3905,0.6189,-0.8831,-0.3153,
10.970012,0.2297,-1.0039,-0.1932,1.2162,-1.5413,0.3905,0.9343,-1.7331,-0.4346,
10.971253,0.2297,-1.0039,-0.1932,2.8419,-1.2643,-0.3083,0.9343,-1.7331,-0.4346,
11.007294,0.2297,-1.0039,-0.1932,2.8419,-1.2643,-0.3083,1.0365,-2.0698,-0.5379,
11.010194,0.2297,-1.0039,-0.1932,2.2355,0.4629,-0.3663,1.0365,-2.0698,-0.5379,
11.038669,0.1608,-0.9360,-0.1954,2.2355,0.4629,-0.3663,1.0365,-2.0698,-0.5379,
11.041068,0.0650,-0.9226,-0.1961,2.2355,0.4629,-0.3663,1.0365,-2.0698,-0.5379,
11.042128,-0.0083,-0.8881,-0.1851,2.2355,0.4629,-0.3663,1.0365,-2.0698,-0.5379,
11.043169,-0.0962,-0.8723,-0.1341,2.2355,0.4629,-0.3663,1.0365,-2.0698,-0.5379,
11.047208,-0.0962,-0.8723,-0.1341,2.1232,0.5081,-0.7014,1.0365,-2.0698,-0.5379,
11.048696,-0.0962,-0.8723,-0.1341,2.1232,0.5081,-0.7014,0.7553,-1.8482,-0.4516,
11.087393,-0.0962,-0.8723,-0.1341,2.1232,0.5081,-0.7014,0.3335,-2.0378,-0.1715,
11.089625,-0.0962,-0.8723,-0.1341,-0.4277,1.1236,-0.1091,0.3335,-2.0378,-0.1715,
11.126252,-0.0962,-0.8723,-0.1341,-0.2562,1.0950,-0.1325,0.3335,-2.0378,-0.1715,
11.128833,-0.0962,-0.8723,-0.1341,-0.2562,1.0950,-0.1325,-0.0554,-1.6298,0.2621,
11.130051,-0.2298,-0.9138,-0.0290,-0.2562,1.0950,-0.1325,-0.0554,-1.6298,0.2621,
11.131327,-0.3486,-0.9448,0.0047,-0.2562,1.0950,-0.1325,-0.0554,-1.6298,0.2621,
11.132585,-0.3943,-0.9737,0.0098,-0.2562,1.0950,-0.1325,-0.0554,-1.6298,0.2621,
11.133919,-0.3298,-1.0328,0.0301,-0.2562,1.0950,-0.1325,-0.0554,-1.6298,0.2621,
11.134986,-0.1815,-1.0865,0.0081,-0.2562,1.0950,-0.1325,-0.0554,-1.6298,0.2621,
11.165635,-0.1815,-1.0865,0.0081,-0.2562,1.0950,-0.1325,-0.4101,-0.9800,0.2898,
11.167986,-0.1815,-1.0865,0.0081,-2.4726,0.1595,1.2540,-0.4101,-0.9800,0.2898,
11.205690,-0.1815,-1.0865,0.0081,-2.4726,0.1595,1.2540,-0.8245,-0.3952,-0.0809,
11.208494,-0.1815,-1.0865,0.0081,-0.0108,-0.7326,1.4529,-0.8245,-0.3952,-0.0809,
11.209834,-0.0483,-1.0885,-0.0043,-0.0108,-0.7326,1.4529,-0.8245,-0.3952,-0.0809,
11.211238,-0.0855,-1.0416,0.0164,-0.0108,-0.7326,1.4529,-0.8245,-0.3952,-0.0809,
11.212348,-0.2059,-0.9749,-0.0192,-0.0108,-0.7326,1.4529,-0.8245,-0.3952,-0.0809,
11.213569,-0.2496,-0.9363,-0.0202,-0.0108,-0.7326,1.4529,-0.8245,-0.3952,-0.0809,
11.244874,-0.2496,-0.9363,-0.0202,-0.0108,-0.7326,1.4529,-1.1835,-0.0798,0.0427,
11.247207,-0.2496,-0.9363,-0.0202,0.0100,-0.7965,1.8748,-1.1835,-0.0798,0.0427,
11.288324,-0.2496,-0.9363,-0.0202,-1.0445,0.3661,2.0548,-1.1835,-0.0798,0.0427,
11.291034,-0.2496,-0.9363,-0.0202,-1.0445,0.3661,2.0548,-1.4115,-0.0948,0.4134,
11.292229,-0.2386,-0.9065,-0.0383,-1.0445,0.3661,2.0548,-1.4115,-0.0948,0.4134,
11.293276,-0.1812,-0.8840,-0.0769,-1.0445,0.3661,2.0548,-1.4115,-0.0948,0.4134,
11.294587,-0.1468,-0.8517,-0.1187,-1.0445,0.3661,2.0548,-1.4115,-0.0948,0.4134,
11.295849,-0.1561,-0.8290,-0.1087,-1.0445,0.3661,2.0548,-1.4115,-0.0948,0.4134,
11.324340,-0.1561,-0.8290,-0.1087,-1.0445,0.3661,2.0548,-1.3571,0.3867,0.2994,
11.326927,-0.1561,-0.8290,-0.1087,-0.2810,1.0214,1.8146,-1.3571,0.3867,0.2994,
11.363672,-0.1561,-0.8290,-0.1087,-0.2810,1.0214,1.8146,-0.8479,0.9758,0.0352,
11.366131,-0.1561,-0.8290,-0.1087,0.6160,0.4134,1.5500,-0.8479,0.9758,0.0352,
11.367495,-0.1614,-0.8916,-0.0671,0.6160,0.4134,1.5500,-0.8479,0.9758,0.0352,
11.368552,-0.0549,-0.9253,-0.1143,0.6160,0.4134,1.5500,-0.8479,0.9758,0.0352,
11.369549,0.0418,-0.9006,-0.3068,0.6160,0.4134,1.5500,-0.8479,0.9758,0.0352,
11.370684,0.0597,-0.8889,-0.6459,0.6160,0.4134,1.5500,-0.8479,0.9758,0.0352,
11.403706,0.0597,-0.8889,-0.6459,0.6160,0.4134,1.5500,-0.9193,0.8011,-0.1342,
11.406008,0.0597,-0.8889,-0.6459,0.4537,0.2929,1.8899,-0.9193,0.8011,-0.1342,
11.442565,0.0597,-0.8889,-0.6459,0.4537,0.2929,1.8899,-0.9747,0.3484,-0.2556,
11.444962,0.0597,-0.8889,-0.6459,1.2989,-0.0351,-3.2476,-0.9747,0.3484,-0.2556,
11.446249,0.0191,-0.9155,-0.7673,1.2989,-0.0351,-3.2476,-0.9747,0.3484,-0.2556,
11.447518,0.0557,-0.9732,-0.7764,1.2989,-0.0351,-3.2476,-0.9747,0.3484,-0.2556,
11.448852,0.0804,-1.0482,-0.7886,1.2989,-0.0351,-3.2476,-0.9747,0.3484,-0.2556,
11.450007,0.0066,-1.1461,-0.7272,1.2989,-0.0351,-3.2476,-0.9747,0.3484,-0.2556,
11.482960,0.0066,-1.1461,-0.7272,1.2989,-0.0351,-3.2476,-0.8288,0.1407,-0.2375,
11.485757,0.0066,-1.1461,-0.7272,1.1722,-0.1580,-2.8992,-0.8288,0.1407,-0.2375,
11.522794,0.0066,-1.1461,-0.7272,1.1722,-0.1580,-2.8992,-0.6817,-0.4282,-0.1438,
11.525797,0.0066,-1.1461,-0.7272,0.7785,-2.1570,-2.6633,-0.6817,-0.4282,-0.1438,
11.527316,-0.0764,-1.1715,-0.6847,0.7785,-2.1570,-2.6633,-0.6817,-0.4282,-0.1438,
11.528462,-0.0564,-1.0692,-0.5743,0.7785,-2.1570,-2.6633,-0.6817,-0.4282,-0.1438,
11.529598,-0.0056,-0.8928,-0.4847,0.7785,-2.1570,-2.6633,-0.6817,-0.4282,-0.1438,
11.530812,-0.0478,-0.7758,-0.5223,0.7785,-2.1570,-2.6633,-0.6817,-0.4282,-0.1438,
11.561594,-0.0478,-0.7758,-0.5223,0.7785,-2.1570,-2.6633,-0.0959,-0.2972,-0.0362,
11.564071,-0.0478,-0.7758,-0.5223,0.4190,-0.1193,-0.6053,-0.0959,-0.2972,-0.0362,
11.583235,-0.1106,-0.7701,-0.5452,0.4190,-0.1193,-0.6053,-0.0959,-0.2972,-0.0362,
11.586428,-0.1702,-0.8090,-0.4861,0.4190,-0.1193,-0.6053,-0.0959,-0.2972,-0.0362,
11.587954,-0.1998,-0.7792,-0.3974,0.4190,-0.1193,-0.6053,-0.0959,-0.2972,-0.0362,
11.601701,-0.1998,-0.7792,-0.3974,0.4190,-0.1193,-0.6053,0.1832,-0.1374,0.0693,
11.604345,-0.1998,-0.7792,-0.3974,-0.7311,1.1316,-0.1729,0.1832,-0.1374,0.0693,
11.641382,-0.1998,-0.7792,-0.3974,-0.7311,1.1316,-0.1729,0.2845,-0.0330,0.0981,
11.643678,-0.1998,-0.7792,-0.3974,-0.6738,3.0272,2.1603,0.2845,-0.0330,0.0981,
11.670801,-0.1856,-0.6981,-0.2877,-0.6738,3.0272,2.1603,0.2845,-0.0330,0.0981,
11.672429,-0.1539,-0.5903,-0.2015,-0.6738,3.0272,2.1603,0.2845,-0.0330,0.0981,
11.673512,-0.1395,-0.4882,-0.1832,-0.6738,3.0272,2.1603,0.2845,-0.0330,0.0981,
11.674348,-0.1099,-0.4623,-0.2792,-0.6738,3.0272,2.1603,0.2845,-0.0330,0.0981,
11.680636,-0.1099,-0.4623,-0.2792,-0.6738,3.0272,2.1603,0.6679,0.5966,0.0810,
11.681985,-0.1099,-0.4623,-0.2792,-0.7331,3.0847,1.9128,0.6679,0.5966,0.0810,
11.719515,-0.1099,-0.4623,-0.2792,-0.7331,3.0847,1.9128,0.8597,1.1196,-0.0298,
11.720940,-0.1099,-0.4623,-0.2792,-0.2264,2.9129,-0.2764,0.8597,1.1196,-0.0298,
11.743573,-0.0794,-0.5903,-0.4026,-0.2264,2.9129,-0.2764,0.8597,1.1196,-0.0298,
11.745010,-0.0786,-0.8031,-0.5790,-0.2264,2.9129,-0.2764,0.8597,1.1196,-0.0298,
11.745538,-0.1526,-1.0408,-0.6647,-0.2264,2.9129,-0.2764,0.8597,1.1196,-0.0298,
11.746012,-0.1781,-1.2202,-0.3889,-0.2264,2.9129,-0.2764,0.8597,1.1196,-0.0298,
11.760145,-0.1781,-1.2202,-0.3889,-0.4230,2.9702,-0.4990,0.8597,1.1196,-0.0298,
11.761302,-0.1781,-1.2202,-0.3889,-0.4230,2.9702,-0.4990,0.7010,0.9066,-0.1949,
11.798317,-0.1781,-1.2202,-0.3889,-0.4230,2.9702,-0.4990,0.9098,0.8522,-0.1970,
11.799307,-0.1781,-1.2202,-0.3889,-1.3560,-2.2690,-1.2841,0.9098,0.8522,-0.1970,
11.832325,-0.1722,-1.2495,-0.3574,-1.3560,-2.2690,-1.2841,0.9098,0.8522,-0.1970,
11.834775,-0.2579,-1.2119,-0.4873,-1.3560,-2.2690,-1.2841,0.9098,0.8522,-0.1970,
11.836169,-0.3816,-1.4337,-0.8352,-1.3560,-2.2690,-1.2841,0.9098,0.8522,-0.1970,
11.837678,-0.2562,-1.5172,-0.5064,-1.3560,-2.2690,-1.2841,0.9098,0.8522,-0.1970,
11.843559,-0.2562,-1.5172,-0.5064,-1.3560,-2.2690,-1.2841,0.5284,0.7766,-0.0372,
11.845254,-0.2562,-1.5172,-0.5064,-2.7062,-4.2596,-2.7887,0.5284,0.7766,-0.0372,
11.879319,-0.2562,-1.5172,-0.5064,-2.7062,-4.2596,-2.7887,0.8874,1.7481,0.1353,
11.881999,-0.2562,-1.5172,-0.5064,-2.8496,1.1373,2.2275,0.8874,1.7481,0.1353,
11.918017,-0.2562,-1.5172,-0.5064,-2.8496,1.1373,2.2275,1.1175,1.4499,0.6946,
11.920875,-0.2562,-1.5172,-0.5064,-2.6942,1.2284,1.7855,1.1175,1.4499,0.6946,
11.922293,-0.1883,-0.9754,0.0670,-2.6942,1.2284,1.7855,1.1175,1.4499,0.6946,
11.923312,-0.3430,-0.7279,0.0277,-2.6942,1.2284,1.7855,1.1175,1.4499,0.6946,
11.924596,-0.3745,-0.8339,-0.2782,-2.6942,1.2284,1.7855,1.1175,1.4499,0.6946,
11.925571,-0.1871,-1.0211,-0.2606,-2.6942,1.2284,1.7855,1.1175,1.4499,0.6946,
11.926689,0.0601,-1.0469,-0.2022,-2.6942,1.2284,1.7855,1.1175,1.4499,0.6946,
11.958612,0.0601,-1.0469,-0.2022,-2.6942,1.2284,1.7855,0.7095,1.5095,0.5934,
11.961195,0.0601,-1.0469,-0.2022,-2.5607,1.2632,1.5101,0.7095,1.5095,0.5934,
11.997886,0.0601,-1.0469,-0.2022,-2.5607,1.2632,1.5101,0.3026,1.7290,0.2014,
12.000655,0.0601,-1.0469,-0.2022,0.6120,0.0141,-0.4104,0.3026,1.7290,0.2014,
12.002352,0.2153,-0.8581,-0.2836,0.6120,0.0141,-0.4104,0.3026,1.7290,0.2014,
12.003362,0.2922,-0.7030,-0.3039,0.6120,0.0141,-0.4104,0.3026,1.7290,0.2014,
12.004649,0.3345,-0.6849,-0.1969,0.6120,0.0141,-0.4104,0.3026,1.7290,0.2014,
12.005647,0.3873,-0.7741,-0.2010,0.6120,0.0141,-0.4104,0.3026,1.7290,0.2014,
12.037747,0.3873,-0.7741,-0.2010,0.6120,0.0141,-0.4104,-0.1534,0.7116,0.1108,
12.040853,0.3873,-0.7741,-0.2010,3.5600,2.4549,-0.1941,-0.1534,0.7116,0.1108,
12.078474,0.3873,-0.7741,-0.2010,3.5600,2.4549,-0.1941,-0.3568,0.1385,0.0757,
12.081218,0.3873,-0.7741,-0.2010,3.3062,-0.8729,-0.4599,-0.3568,0.1385,0.0757,
12.082581,0.4224,-0.9150,-0.3097,3.3062,-0.8729,-0.4599,-0.3568,0.1385,0.0757,
12.084001,0.3423,-1.0750,-0.2675,3.3062,-0.8729,-0.4599,-0.3568,0.1385,0.0757,
12.085114,0.1835,-1.1855,-0.2499,3.3062,-0.8729,-0.4599,-0.3568,0.1385,0.0757,
12.086300,0.0003,-1.2255,-0.1707,3.3062,-0.8729,-0.4599,-0.3568,0.1385,0.0757,
12.117081,0.0003,-1.2255,-0.1707,3.3062,-0.8729,-0.4599,-0.2269,-0.0351,0.2536,
12.118949,0.0003,-1.2255,-0.1707,3.3480,-0.8811,-0.3688,-0.2269,-0.0351,0.2536,
12.156933,0.0003,-1.2255,-0.1707,3.3480,-0.8811,-0.3688,0.2770,-0.1757,0.2461,
12.159405,0.0003,-1.2255,-0.1707,0.8791,-2.1764,1.6169,0.2770,-0.1757,0.2461,
12.161029,0.0589,-1.1940,-0.0085,0.8791,-2.1764,1.6169,0.2770,-0.1757,0.2461,
12.162011,0.1046,-1.1706,0.0010,0.8791,-2.1764,1.6169,0.2770,-0.1757,0.2461,
12.163130,-0.0171,-1.1671,0.0201,0.8791,-2.1764,1.6169,0.2770,-0.1757,0.2461,
12.164337,-0.0237,-1.1645,0.0015,0.8791,-2.1764,1.6169,0.2770,-0.1757,0.2461,
12.196055,-0.0237,-1.1645,0.0015,0.8791,-2.1764,1.6169,0.9364,0.0661,0.1577,
12.198707,-0.0237,-1.1645,0.0015,0.9184,-2.0687,1.2410,0.9364,0.0661,0.1577,
12.236476,-0.0237,-1.1645,0.0015,0.9184,-2.0687,1.2410,1.2890,-0.1683,0.2120,
12.238778,-0.0237,-1.1645,0.0015,0.4495,-1.4948,1.1892,1.2890,-0.1683,0.2120,
12.240305,0.0352,-1.1141,-0.0569,0.4495,-1.4948,1.1892,1.2890,-0.1683,0.2120,
12.241588,0.0589,-1.0042,-0.0867,0.4495,-1.4948,1.1892,1.2890,-0.1683,0.2120,
12.242597,0.0484,-0.8823,-0.1414,0.4495,-1.4948,1.1892,1.2890,-0.1683,0.2120,
12.244853,0.0448,-0.7763,-0.2252,0.4495,-1.4948,1.1892,1.2890,-0.1683,0.2120,
12.275258,0.0448,-0.7763,-0.2252,0.4495,-1.4948,1.1892,1.1409,-0.3110,0.3154,
12.277836,0.0448,-0.7763,-0.2252,1.0813,1.0868,-0.6151,1.1409,-0.3110,0.3154,
12.315552,0.0448,-0.7763,-0.2252,1.0813,1.0868,-0.6151,0.6850,-0.1001,0.3228,
12.317867,0.0448,-0.7763,-0.2252,-0.0034,1.3782,-1.7398,0.6850,-0.1001,0.3228,
12.319349,0.0093,-0.7631,-0.2670,-0.0034,1.3782,-1.7398,0.6850,-0.1001,0.3228,
12.320594,-0.0801,-0.8571,-0.2391,-0.0034,1.3782,-1.7398,0.6850,-0.1001,0.3228,
12.321589,-0.1485,-0.9497,-0.2184,-0.0034,1.3782,-1.7398,0.6850,-0.1001,0.3228,
12.322718,-0.1602,-1.0044,-0.1998,-0.0034,1.3782,-1.7398,0.6850,-0.1001,0.3228,
12.354776,-0.1602,-1.0044,-0.1998,-0.0034,1.3782,-1.7398,0.2333,0.5540,0.4006,
12.357260,-0.1602,-1.0044,-0.1998,0.1369,1.3483,-1.7824,0.2333,0.5540,0.4006,
12.395267,-0.1602,-1.0044,-0.1998,0.1369,1.3483,-1.7824,-0.0777,0.5859,0.4805,
12.397516,-0.1602,-1.0044,-0.1998,-0.0869,-0.3769,-0.5271,-0.0777,0.5859,0.4805,
12.398982,-0.1258,-1.0335,-0.1285,-0.0869,-0.3769,-0.5271,-0.0777,0.5859,0.4805,
12.399967,-0.0547,-1.0560,-0.0305,-0.0869,-0.3769,-0.5271,-0.0777,0.5859,0.4805,
12.401254,0.0242,-1.0382,0.0052,-0.0869,-0.3769,-0.5271,-0.0777,0.5859,0.4805,
12.402315,0.1154,-0.9900,-0.0012,-0.0869,-0.3769,-0.5271,-0.0777,0.5859,0.4805,
12.433861,0.1154,-0.9900,-0.0012,0.1102,-0.3989,-0.4389,-0.0777,0.5859,0.4805,
12.436205,0.1154,-0.9900,-0.0012,0.1102,-0.3989,-0.4389,-0.2184,-0.0660,0.5114,
12.473907,0.1154,-0.9900,-0.0012,0.1102,-0.3989,-0.4389,-0.2929,-0.1299,0.0629,
12.476219,0.1154,-0.9900,-0.0012,2.2228,-0.1304,0.8264,-0.2929,-0.1299,0.0629,
12.477641,0.1693,-0.9805,-0.0036,2.2228,-0.1304,0.8264,-0.2929,-0.1299,0.0629,
12.478836,0.1571,-0.9996,0.0198,2.2228,-0.1304,0.8264,-0.2929,-0.1299,0.0629,
12.480516,-0.0012,-1.0176,0.0870,2.2228,-0.1304,0.8264,-0.2929,-0.1299,0.0629,
12.481390,-0.2284,-0.9991,0.0868,2.2228,-0.1304,0.8264,-0.2929,-0.1299,0.0629,
12.513389,-0.2284,-0.9991,0.0868,2.2228,-0.1304,0.8264,-0.1470,0.8001,-0.3877,
12.515495,-0.2284,-0.9991,0.0868,0.7867,-0.1405,1.5240,-0.1470,0.8001,-0.3877,
12.552957,-0.4260,-0.9890,0.0020,0.7867,-0.1405,1.5240,-0.1470,0.8001,-0.3877,
12.555513,-0.5311,-0.9546,-0.1350,0.7867,-0.1405,1.5240,-0.1470,0.8001,-0.3877,
12.556690,-0.5030,-0.9045,-0.2091,0.7867,-0.1405,1.5240,-0.1470,0.8001,-0.3877,
12.557771,-0.5030,-0.9045,-0.2091,0.7867,-0.1405,1.5240,-0.2876,1.3508,-0.0660,
12.558914,-0.5030,-0.9045,-0.2091,-3.7601,0.3934,-0.0622,-0.2876,1.3508,-0.0660,
12.593169,-0.5030,-0.9045,-0.2091,-3.7601,0.3934,-0.0622,-0.8714,1.2443,0.5231,
12.595608,-0.5030,-0.9045,-0.2091,-0.3203,0.2973,0.3375,-0.8714,1.2443,0.5231,
12.633338,-0.5030,-0.9045,-0.2091,-0.3203,0.2973,0.3375,-1.1324,1.2176,0.5252,
12.636165,-0.5030,-0.9045,-0.2091,-0.1982,0.1933,0.8123,-1.1324,1.2176,0.5252,
12.637597,-0.3500,-0.9267,-0.1844,-0.1982,0.1933,0.8123,-1.1324,1.2176,0.5252,
12.638593,-0.1307,-0.9651,-0.1023,-0.1982,0.1933,0.8123,-1.1324,1.2176,0.5252,
12.639719,0.0291,-0.9641,-0.0495,-0.1982,0.1933,0.8123,-1.1324,1.2176,0.5252,
12.641441,0.0863,-0.9443,-0.0420,-0.1982,0.1933,0.8123,-1.1324,1.2176,0.5252,
12.642517,-0.0092,-0.9197,-0.0762,-0.1982,0.1933,0.8123,-1.1324,1.2176,0.5252,
12.672070,-0.0092,-0.9197,-0.0762,-0.1982,0.1933,0.8123,-1.0471,1.2326,0.1204,
12.674888,-0.0092,-0.9197,-0.0762,-0.2531,0.0968,1.2459,-1.0471,1.2326,0.1204,
12.711373,-0.0092,-0.9197,-0.0762,-0.2531,0.0968,1.2459,-0.9012,1.1335,0.1130,
12.714705,-0.0092,-0.9197,-0.0762,0.9625,0.2685,1.8038,-0.9012,1.1335,0.1130,
12.715932,-0.1294,-0.9087,-0.1568,0.9625,0.2685,1.8038,-0.9012,1.1335,0.1130,
12.717141,-0.1729,-0.9592,-0.2445,0.9625,0.2685,1.8038,-0.9012,1.1335,0.1130,
12.718145,-0.1600,-1.0413,-0.2130,0.9625,0.2685,1.8038,-0.9012,1.1335,0.1130,
12.719223,-0.1717,-1.0777,-0.1930,0.9625,0.2685,1.8038,-0.9012,1.1335,0.1130,
12.750976,-0.1717,-1.0777,-0.1930,0.9625,0.2685,1.8038,-0.5422,1.2112,0.2440,
12.753376,-0.1717,-1.0777,-0.1930,-0.5520,-0.7880,0.8162,-0.5422,1.2112,0.2440,
12.791325,-0.3036,-1.1012,-0.3058,-0.5520,-0.7880,0.8162,-0.5422,1.2112,0.2440,
12.794106,-0.3283,-1.0777,-0.4133,-0.5520,-0.7880,0.8162,-0.5422,1.2112,0.2440,
12.795182,-0.2189,-1.0135,-0.5123,-0.5520,-0.7880,0.8162,-0.5422,1.2112,0.2440,
12.796473,-0.2189,-1.0135,-0.5123,-0.5520,-0.7880,0.8162,-0.2460,1.0025,0.4794,
12.797627,-0.2189,-1.0135,-0.5123,-1.6000,-1.1910,-0.9313,-0.2460,1.0025,0.4794,
12.830950,-0.2189,-1.0135,-0.5123,-0.5207,-0.2596,-0.5354,-0.2460,1.0025,0.4794,
12.833852,-0.2189,-1.0135,-0.5123,-0.5207,-0.2596,-0.5354,-0.2982,1.3018,0.5284,
12.869370,-0.2189,-1.0135,-0.5123,-0.5207,-0.2596,-0.5354,-0.2397,1.6139,0.4027,
12.872069,-0.2189,-1.0135,-0.5123,-0.5795,-0.3053,-0.3661,-0.2397,1.6139,0.4027,
12.873298,-0.1392,-0.9722,-0.4585,-0.5795,-0.3053,-0.3661,-0.2397,1.6139,0.4027,
12.874562,-0.1622,-0.9619,-0.3982,-0.5795,-0.3053,-0.3661,-0.2397,1.6139,0.4027,
12.875701,-0.2306,-0.9553,-0.3085,-0.5795,-0.3053,-0.3661,-0.2397,1.6139,0.4027,
12.876888,-0.1729,-0.8838,-0.1350,-0.5795,-0.3053,-0.3661,-0.2397,1.6139,0.4027,
12.877778,-0.0014,-0.7445,0.0157,-0.5795,-0.3053,-0.3661,-0.2397,1.6139,0.4027,
12.909351,-0.0014,-0.7445,0.0157,-0.5795,-0.3053,-0.3661,0.3942,1.3220,0.2142,
12.912260,-0.0014,-0.7445,0.0157,-0.6697,-0.2572,-0.4433,0.3942,1.3220,0.2142,
12.949209,-0.0014,-0.7445,0.0157,-0.6697,-0.2572,-0.4433,1.2411,1.3306,-0.1832,
12.951654,-0.0014,-0.7445,0.0157,0.5571,1.7838,2.6661,1.2411,1.3306,-0.1832,
12.953069,0.0929,-0.6768,0.0438,0.5571,1.7838,2.6661,1.2411,1.3306,-0.1832,
12.954290,0.0809,-0.7118,-0.0620,0.5571,1.7838,2.6661,1.2411,1.3306,-0.1832,
12.955300,0.0482,-0.7653,-0.1798,0.5571,1.7838,2.6661,1.2411,1.3306,-0.1832,
12.956422,0.0247,-0.7699,-0.1981,0.5571,1.7838,2.6661,1.2411,1.3306,-0.1832,
12.989271,0.0247,-0.7699,-0.1981,0.5571,1.7838,2.6661,1.5937,1.1133,-0.3962,
12.991772,0.0247,-0.7699,-0.1981,1.0431,2.1150,0.8976,1.5937,1.1133,-0.3962,
13.028465,0.0247,-0.7699,-0.1981,1.0431,2.1150,0.8976,1.8152,0.7159,-0.4932,
13.031102,0.0247,-0.7699,-0.1981,-0.1131,0.1645,-0.6276,1.8152,0.7159,-0.4932,
13.032199,-0.0068,-0.8141,-0.1998,-0.1131,0.1645,-0.6276,1.8152,0.7159,-0.4932,
13.033206,-0.0554,-0.9583,-0.2489,-0.1131,0.1645,-0.6276,1.8152,0.7159,-0.4932,
13.034333,-0.0637,-1.1173,-0.2550,-0.1131,0.1645,-0.6276,1.8152,0.7159,-0.4932,
13.035464,-0.1314,-1.2895,-0.3073,-0.1131,0.1645,-0.6276,1.8152,0.7159,-0.4932,
13.067922,-0.1314,-1.2895,-0.3073,-0.1131,0.1645,-0.6276,1.7289,0.6083,-0.4079,
13.070812,-0.1314,-1.2895,-0.3073,-0.2967,0.2555,-1.2632,1.7289,0.6083,-0.4079,
13.107949,-0.1314,-1.2895,-0.3073,-0.2967,0.2555,-1.2632,0.5316,0.6286,-0.1778,
13.110840,-0.1314,-1.2895,-0.3073,-1.7519,-3.3232,-4.5571,0.5316,0.6286,-0.1778,
13.112447,-0.2079,-1.3931,-0.5746,-1.7519,-3.3232,-4.5571,0.5316,0.6286,-0.1778,
13.113805,-0.2135,-1.3259,-0.7917,-1.7519,-3.3232,-4.5571,0.5316,0.6286,-0.1778,
13.114942,-0.2057,-1.2109,-0.8450,-1.7519,-3.3232,-4.5571,0.5316,0.6286,-0.1778,
13.116197,-0.1519,-1.1134,-0.6202,-1.7519,-3.3232,-4.5571,0.5316,0.6286,-0.1778,
13.147423,-0.1519,-1.1134,-0.6202,-1.7519,-3.3232,-4.5571,-0.6786,1.0216,0.1875,
13.150446,-0.1519,-1.1134,-0.6202,-1.6917,-3.2958,-4.2206,-0.6786,1.0216,0.1875,
13.187126,-0.1519,-1.1134,-0.6202,-1.6917,-3.2958,-4.2206,-0.9694,0.2206,0.5838,
13.189482,-0.1519,-1.1134,-0.6202,-1.4831,-1.1286,-4.2193,-0.9694,0.2206,0.5838,
13.190978,-0.2047,-1.0083,-0.3452,-1.4831,-1.1286,-4.2193,-0.9694,0.2206,0.5838,
13.192244,-0.3171,-0.8293,-0.0456,-1.4831,-1.1286,-4.2193,-0.9694,0.2206,0.5838,
13.193227,-0.1553,-0.7176,0.2404,-1.4831,-1.1286,-4.2193,-0.9694,0.2206,0.5838,
13.194401,0.1483,-0.8127,0.0760,-1.4831,-1.1286,-4.2193,-0.9694,0.2206,0.5838,
13.226498,0.1483,-0.8127,0.0760,-1.4831,-1.1286,-4.2193,-0.2247,-0.3313,0.5242,
13.229200,0.1483,-0.8127,0.0760,-0.4713,1.9912,2.6154,-0.2247,-0.3313,0.5242,
13.266440,0.1483,-0.8127,0.0760,-0.4713,1.9912,2.6154,0.1225,0.9194,-0.1427,
13.268638,0.1483,-0.8127,0.0760,2.3904,-1.6220,-0.6992,0.1225,0.9194,-0.1427,
13.269954,0.2866,-1.0377,-0.2665,2.3904,-1.6220,-0.6992,0.1225,0.9194,-0.1427,
13.271032,0.2143,-1.2055,-0.3300,2.3904,-1.6220,-0.6992,0.1225,0.9194,-0.1427,
13.272175,0.0995,-1.2343,-0.1426,2.3904,-1.6220,-0.6992,0.1225,0.9194,-0.1427,
13.273596,0.0433,-1.1852,-0.0131,2.3904,-1.6220,-0.6992,0.1225,0.9194,-0.1427,
13.305419,0.0433,-1.1852,-0.0131,2.2002,-1.5705,-0.7992,0.1225,0.9194,-0.1427,
13.307563,0.0433,-1.1852,-0.0131,2.2002,-1.5705,-0.7992,0.3249,0.8565,-0.2492,
13.345420,0.0433,-1.1852,-0.0131,2.2002,-1.5705,-0.7992,0.5444,0.1907,0.0459,
13.347713,0.0433,-1.1852,-0.0131,0.2860,-1.1949,0.0650,0.5444,0.1907,0.0459,
13.348945,0.0445,-1.1026,-0.1712,0.2860,-1.1949,0.0650,0.5444,0.1907,0.0459,
13.350194,-0.0737,-1.0907,-0.2257,0.2860,-1.1949,0.0650,0.5444,0.1907,0.0459,
13.351361,-0.0842,-1.0965,-0.0290,0.2860,-1.1949,0.0650,0.5444,0.1907,0.0459,
13.352352,0.0186,-1.0736,-0.0473,0.2860,-1.1949,0.0650,0.5444,0.1907,0.0459,
13.384783,0.0186,-1.0736,-0.0473,0.2860,-1.1949,0.0650,1.0216,0.0096,0.2280,
13.386334,0.0186,-1.0736,-0.0473,0.3682,-1.1295,-0.3290,1.0216,0.0096,0.2280,
13.423828,0.0186,-1.0736,-0.0473,0.3682,-1.1295,-0.3290,1.2645,0.1470,0.1907,
13.425604,0.0186,-1.0736,-0.0473,0.5604,-0.4511,-0.1649,1.2645,0.1470,0.1907,
13.426685,0.1198,-1.0140,-0.1326,0.5604,-0.4511,-0.1649,1.2645,0.1470,0.1907,
13.427569,0.1603,-0.9324,-0.1939,0.5604,-0.4511,-0.1649,1.2645,0.1470,0.1907,
13.428312,0.1413,-0.8549,-0.2540,0.5604,-0.4511,-0.1649,1.2645,0.1470,0.1907,
13.429241,0.0897,-0.8268,-0.2611,0.5604,-0.4511,-0.1649,1.2645,0.1470,0.1907,
13.464375,0.0897,-0.8268,-0.2611,0.5604,-0.4511,-0.1649,0.9321,-0.2375,0.3452,
13.466530,0.0897,-0.8268,-0.2611,1.7705,1.3933,-2.1346,0.9321,-0.2375,0.3452,
13.497705,0.0726,-0.8789,-0.2159,1.7705,1.3933,-2.1346,0.9321,-0.2375,0.3452,
13.500409,0.0819,-0.9106,-0.1285,1.7705,1.3933,-2.1346,0.9321,-0.2375,0.3452,
13.501750,0.0592,-0.9077,-0.0964,1.7705,1.3933,-2.1346,0.9321,-0.2375,0.3452,
13.503334,0.0592,-0.9077,-0.0964,1.3320,1.0953,-1.4807,0.9321,-0.2375,0.3452,
13.504992,0.0592,-0.9077,-0.0964,1.3320,1.0953,-1.4807,0.6136,-0.2684,0.4166,
13.543361,0.0592,-0.9077,-0.0964,1.3320,1.0953,-1.4807,0.3196,0.1332,0.3772,
13.545634,0.0592,-0.9077,-0.0964,1.7810,0.1378,-0.8339,0.3196,0.1332,0.3772,
13.583322,0.0592,-0.9077,-0.0964,1.7810,0.1378,-0.8339,-0.1044,0.1811,0.1609,
13.585246,0.0592,-0.9077,-0.0964,1.8144,0.1310,-0.7741,-0.1044,0.1811,0.1609,
13.586577,0.0477,-0.9202,-0.0811,1.8144,0.1310,-0.7741,-0.1044,0.1811,0.1609,
13.587905,0.0826,-0.9981,-0.0649,1.8144,0.1310,-0.7741,-0.1044,0.1811,0.1609,
13.588910,0.1845,-1.0677,-0.0640,1.8144,0.1310,-0.7741,-0.1044,0.1811,0.1609,
13.589913,0.2382,-1.0467,-0.0637,1.8144,0.1310,-0.7741,-0.1044,0.1811,0.1609,
13.591140,0.1899,-0.9895,-0.0373,1.8144,0.1310,-0.7741,-0.1044,0.1811,0.1609,
13.622602,0.1899,-0.9895,-0.0373,1.8144,0.1310,-0.7741,-0.4836,-0.1768,-0.2375,
13.624511,0.1899,-0.9895,-0.0373,1.6927,0.1356,-0.5799,-0.4836,-0.1768,-0.2375,
13.662796,0.1899,-0.9895,-0.0373,1.6927,0.1356,-0.5799,-0.7489,-0.6615,-0.3142,
13.665338,0.1899,-0.9895,-0.0373,2.3120,0.0504,-0.0531,-0.7489,-0.6615,-0.3142,
13.667375,0.1239,-0.9756,-0.0329,2.3120,0.0504,-0.0531,-0.7489,-0.6615,-0.3142,
13.668707,0.0885,-0.9759,-0.0791,2.3120,0.0504,-0.0531,-0.7489,-0.6615,-0.3142,
13.669856,0.0609,-0.9807,-0.1101,2.3120,0.0504,-0.0531,-0.7489,-0.6615,-0.3142,
13.671251,0.0401,-0.9495,-0.0737,2.3120,0.0504,-0.0531,-0.7489,-0.6615,-0.3142,
13.702321,0.0401,-0.9495,-0.0737,2.3120,0.0504,-0.0531,-1.0152,-1.2506,-0.1480,
13.704823,0.0401,-0.9495,-0.0737,1.0800,0.3696,-0.0992,-1.0152,-1.2506,-0.1480,
13.742167,0.0401,-0.9495,-0.0737,1.0800,0.3696,-0.0992,-1.2208,-1.4242,-0.0969,
13.744890,0.0401,-0.9495,-0.0737,-0.4650,0.7892,0.0349,-1.2208,-1.4242,-0.0969,
13.746203,-0.0029,-0.9184,-0.0434,-0.4650,0.7892,0.0349,-1.2208,-1.4242,-0.0969,
13.747469,-0.0916,-0.9096,-0.0906,-0.4650,0.7892,0.0349,-1.2208,-1.4242,-0.0969,
13.748464,-0.1969,-0.9314,-0.2254,-0.4650,0.7892,0.0349,-1.2208,-1.4242,-0.0969,
13.749601,-0.2934,-1.0230,-0.4412,-0.4650,0.7892,0.0349,-1.2208,-1.4242,-0.0969,
13.781353,-0.2934,-1.0230,-0.4412,-0.4650,0.7892,0.0349,-1.8855,-1.3283,0.0810,
13.784193,-0.2934,-1.0230,-0.4412,-0.3471,0.6597,0.7227,-1.8855,-1.3283,0.0810,
13.821231,-0.2934,-1.0230,-0.4412,-0.3471,0.6597,0.7227,-2.5971,-0.5688,0.1311,
13.823639,-0.2934,-1.0230,-0.4412,-1.4057,-1.7968,-1.7261,-2.5971,-0.5688,0.1311,
13.825120,-0.2189,-1.1605,-0.5118,-1.4057,-1.7968,-1.7261,-2.5971,-0.5688,0.1311,
13.825951,-0.1412,-1.2612,-0.4617,-1.4057,-1.7968,-1.7261,-2.5971,-0.5688,0.1311,
13.827827,-0.2083,-1.2373,-0.4216,-1.4057,-1.7968,-1.7261,-2.5971,-0.5688,0.1311,
13.829169,-0.3598,-1.2155,-0.3395,-1.4057,-1.7968,-1.7261,-2.5971,-0.5688,0.1311,
13.860632,-0.3598,-1.2155,-0.3395,-1.4057,-1.7968,-1.7261,-2.3446,-0.0564,-0.0958,
13.862905,-0.3598,-1.2155,-0.3395,-1.4109,-2.0684,-0.8482,-2.3446,-0.0564,-0.0958,
13.898493,-0.5047,-1.2312,-0.2631,-1.4109,-2.0684,-0.8482,-2.3446,-0.0564,-0.0958,
13.901127,-0.2521,-1.1437,-0.2948,-1.4109,-2.0684,-0.8482,-2.3446,-0.0564,-0.0958,
13.902221,0.2287,-1.0614,-0.1089,-1.4109,-2.0684,-0.8482,-2.3446,-0.0564,-0.0958,
13.903930,0.2287,-1.0614,-0.1089,-1.4109,-2.0684,-0.8482,-1.6490,-0.2269,0.0746,
13.905380,0.2287,-1.0614,-0.1089,-2.6722,-3.0658,0.9954,-1.6490,-0.2269,0.0746,
13.940054,0.2287,-1.0614,-0.1089,-2.6722,-3.0658,0.9954,-0.9811,-0.4388,-0.3845,
13.942506,0.2287,-1.0614,-0.1089,1.9481,-1.7900,3.5837,-0.9811,-0.4388,-0.3845,
13.948021,0.3922,-1.0477,0.0890,1.9481,-1.7900,3.5837,-0.9811,-0.4388,-0.3845,
13.949334,0.1151,-1.0450,-0.0439,1.9481,-1.7900,3.5837,-0.9811,-0.4388,-0.3845,
13.950477,-0.1871,-0.9732,-0.2509,1.9481,-1.7900,3.5837,-0.9811,-0.4388,-0.3845,
13.979670,-0.1871,-0.9732,-0.2509,1.9481,-1.7900,3.5837,-0.3185,-0.8852,-0.6306,
13.981612,-0.1871,-0.9732,-0.2509,1.8607,-1.8004,3.6088,-0.3185,-0.8852,-0.6306,
14.019510,-0.1871,-0.9732,-0.2509,1.8607,-1.8004,3.6088,-0.0500,-1.2527,-0.3781,
14.022058,-0.1871,-0.9732,-0.2509,-0.4840,-0.7233,2.3179,-0.0500,-1.2527,-0.3781,
14.023639,-0.3095,-0.9089,-0.3979,-0.4840,-0.7233,2.3179,-0.0500,-1.2527,-0.3781,
14.025174,-0.2951,-0.8850,-0.4221,-0.4840,-0.7233,2.3179,-0.0500,-1.2527,-0.3781,
14.027348,-0.1864,-0.8300,-0.3227,-0.4840,-0.7233,2.3179,-0.0500,-1.2527,-0.3781,
14.028706,-0.1404,-0.7411,-0.2232,-0.4840,-0.7233,2.3179,-0.0500,-1.2527,-0.3781,
14.059070,-0.1404,-0.7411,-0.2232,-1.2390,0.8848,1.2293,-0.0500,-1.2527,-0.3781,
14.061659,-0.1404,-0.7411,-0.2232,-1.2390,0.8848,1.2293,0.4102,-0.7797,-0.3707,
14.088610,-0.0930,-0.6497,-0.1338,-1.2390,0.8848,1.2293,0.4102,-0.7797,-0.3707,
14.091748,-0.0390,-0.5749,-0.0718,-1.2390,0.8848,1.2293,0.4102,-0.7797,-0.3707,
14.092948,-0.0571,-0.5280,-0.0742,-1.2390,0.8848,1.2293,0.4102,-0.7797,-0.3707,
14.098483,-0.0571,-0.5280,-0.0742,-1.2390,0.8848,1.2293,1.1335,-0.5166,-0.5198,
14.101004,-0.0571,-0.5280,-0.0742,0.0739,3.3293,3.0061,1.1335,-0.5166,-0.5198,
14.137783,-0.0571,-0.5280,-0.0742,0.0739,3.3293,3.0061,1.7215,-0.8937,-0.6636,
14.139444,-0.0571,-0.5280,-0.0742,-0.6118,2.8550,0.5135,1.7215,-0.8937,-0.6636,
14.175381,-0.0921,-0.5188,-0.1382,-0.6118,2.8550,0.5135,1.7215,-0.8937,-0.6636,
14.177090,-0.1243,-0.6211,-0.2750,-0.6118,2.8550,0.5135,1.7215,-0.8937,-0.6636,
14.177600,-0.1509,-0.8234,-0.4282,-0.6118,2.8550,0.5135,1.7215,-0.8937,-0.6636,
14.177946,-0.3562,-1.0469,-0.7656,-0.6118,2.8550,0.5135,1.7215,-0.8937,-0.6636,
14.178458,-0.3562,-1.0469,-0.7656,-0.6118,2.8550,0.5135,1.5862,-0.8202,-0.7787,
14.178867,-0.3562,-1.0469,-0.7656,-0.7919,3.0057,-0.0914,1.5862,-0.8202,-0.7787,
14.217562,-0.3562,-1.0469,-0.7656,-0.7919,3.0057,-0.0914,0.5241,-0.5155,-0.5475,
14.220058,-0.3562,-1.0469,-0.7656,-4.6141,-3.7348,-4.3524,0.5241,-0.5155,-0.5475,
14.257877,-0.3562,-1.0469,-0.7656,-4.6141,-3.7348,-4.3524,-0.1747,-0.2918,0.0640,
14.260275,-0.3562,-1.0469,-0.7656,-4.4847,-3.6909,-4.2189,-0.1747,-0.2918,0.0640,
14.261942,-0.5641,-1.4017,-1.1318,-4.4847,-3.6909,-4.2189,-0.1747,-0.2918,0.0640,
14.264149,-0.5941,-1.6159,-0.2088,-4.4847,-3.6909,-4.2189,-0.1747,-0.2918,0.0640,
14.265446,-1.1064,-1.4689,-0.5230,-4.4847,-3.6909,-4.2189,-0.1747,-0.2918,0.0640,
14.266604,-1.3923,-1.3946,-1.1027,-4.4847,-3.6909,-4.2189,-0.1747,-0.2918,0.0640,
14.269476,-0.6000,-1.1603,-0.1421,-4.4847,-3.6909,-4.2189,-0.1747,-0.2918,0.0640,
14.296248,-0.6000,-1.1603,-0.1421,-9.1284,-3.6394,-2.6763,-0.1747,-0.2918,0.0640,
14.298581,-0.6000,-1.1603,-0.1421,-9.1284,-3.6394,-2.6763,-1.0098,0.4038,1.1218,
14.335927,-0.6000,-1.1603,-0.1421,-9.1284,-3.6394,-2.6763,0.3143,0.7202,0.8885,
14.338715,-0.6000,-1.1603,-0.1421,2.3104,0.6812,4.9857,0.3143,0.7202,0.8885,
14.340011,0.1564,-0.9458,0.5568,2.3104,0.6812,4.9857,0.3143,0.7202,0.8885,
14.341316,0.1537,-0.8896,0.1679,2.3104,0.6812,4.9857,0.3143,0.7202,0.8885,
14.342611,0.0296,-0.8618,-0.0950,2.3104,0.6812,4.9857,0.3143,0.7202,0.8885,
14.344094,0.1901,-0.8718,-0.0515,2.3104,0.6812,4.9857,0.3143,0.7202,0.8885,
14.375711,0.1901,-0.8718,-0.0515,2.3104,0.6812,4.9857,0.5923,-0.9321,0.4091,
14.378326,0.1901,-0.8718,-0.0515,2.5241,0.7136,4.6333,0.5923,-0.9321,0.4091,
14.399149,0.4286,-0.9011,0.0374,2.5241,0.7136,4.6333,0.5923,-0.9321,0.4091,
14.402658,0.5048,-0.8979,-0.1255,2.5241,0.7136,4.6333,0.5923,-0.9321,0.4091,
14.404292,0.3826,-0.9895,-0.3923,2.5241,0.7136,4.6333,0.5923,-0.9321,0.4091,
14.417750,0.3826,-0.9895,-0.3923,2.5241,0.7136,4.6333,1.1676,0.8384,-0.3217,
14.419957,0.3826,-0.9895,-0.3923,4.8035,0.9108,1.6918,1.1676,0.8384,-0.3217,
14.455357,0.3826,-0.9895,-0.3923,4.8035,0.9108,1.6918,0.8767,0.7883,-0.6178,
14.457774,0.3826,-0.9895,-0.3923,2.9866,-0.3082,-1.6832,0.8767,0.7883,-0.6178,
14.487701,0.1879,-1.0687,-0.4260,2.9866,-0.3082,-1.6832,0.8767,0.7883,-0.6178,
14.490827,0.1039,-1.0159,-0.2697,2.9866,-0.3082,-1.6832,0.8767,0.7883,-0.6178,
14.492147,0.1207,-0.9297,-0.2245,2.9866,-0.3082,-1.6832,0.8767,0.7883,-0.6178,
14.494238,-0.0212,-0.8625,-0.3522,2.9866,-0.3082,-1.6832,0.8767,0.7883,-0.6178,
14.495722,-0.0212,-0.8625,-0.3522,2.9866,-0.3082,-1.6832,0.1129,-0.5038,-0.3163,
14.496815,-0.0212,-0.8625,-0.3522,2.8522,-0.2859,-1.7119,0.1129,-0.5038,-0.3163,
14.534424,-0.0212,-0.8625,-0.3522,2.8522,-0.2859,-1.7119,-0.4389,-0.7542,0.0139,
14.536425,-0.0212,-0.8625,-0.3522,0.6692,1.1242,-1.0155,-0.4389,-0.7542,0.0139,
14.569786,-0.1089,-0.8342,-0.3491,0.6692,1.1242,-1.0155,-0.4389,-0.7542,0.0139,
14.571796,0.0340,-0.8251,-0.2203,0.6692,1.1242,-1.0155,-0.4389,-0.7542,0.0139,
14.572918,0.2812,-0.8432,-0.1739,0.6692,1.1242,-1.0155,-0.4389,-0.7542,0.0139,
14.574124,0.4779,-0.8517,-0.2262,0.6692,1.1242,-1.0155,-0.4389,-0.7542,0.0139,
14.575401,0.4779,-0.8517,-0.2262,0.6692,1.1242,-1.0155,-0.7158,-1.1739,0.0427,
14.577059,0.4779,-0.8517,-0.2262,3.3496,1.3861,0.2179,-0.7158,-1.1739,0.0427,
14.613689,0.4779,-0.8517,-0.2262,3.3496,1.3861,0.2179,-0.7659,-1.7758,-0.3536,
14.616161,0.4779,-0.8517,-0.2262,4.1160,-0.4099,0.4156,-0.7659,-1.7758,-0.3536,
14.653021,0.4779,-0.8517,-0.2262,4.1160,-0.4099,0.4156,-0.5880,-2.8282,-0.4516,
14.655328,0.4779,-0.8517,-0.2262,4.1610,-0.4478,0.5418,-0.5880,-2.8282,-0.4516,
14.656734,0.5419,-0.8679,-0.2105,4.1610,-0.4478,0.5418,-0.5880,-2.8282,-0.4516,
14.657924,0.3934,-0.9729,-0.2064,4.1610,-0.4478,0.5418,-0.5880,-2.8282,-0.4516,
14.659047,0.1039,-1.2126,-0.2130,4.1610,-0.4478,0.5418,-0.5880,-2.8282,-0.4516,
14.660276,0.0926,-1.2979,-0.2066,4.1610,-0.4478,0.5418,-0.5880,-2.8282,-0.4516,
14.661396,0.0665,-1.1811,-0.1480,4.1610,-0.4478,0.5418,-0.5880,-2.8282,-0.4516,
14.693127,0.0665,-1.1811,-0.1480,4.1610,-0.4478,0.5418,-0.4240,-2.6471,-0.4538,
14.695395,0.0665,-1.1811,-0.1480,4.1959,-0.4694,0.6053,-0.4240,-2.6471,-0.4538,
14.732755,0.0665,-1.1811,-0.1480,4.1959,-0.4694,0.6053,-0.0330,-1.9728,-0.4932,
14.735271,0.0665,-1.1811,-0.1480,1.1342,-2.0228,0.9235,-0.0330,-1.9728,-0.4932,
14.736653,-0.0579,-1.0643,-0.1573,1.1342,-2.0228,0.9235,-0.0330,-1.9728,-0.4932,
14.738695,-0.1568,-1.0599,-0.1915,1.1342,-2.0228,0.9235,-0.0330,-1.9728,-0.4932,
14.739665,-0.0757,-1.1136,-0.2113,1.1342,-2.0228,0.9235,-0.0330,-1.9728,-0.4932,
14.740842,0.0382,-1.1369,-0.2179,1.1342,-2.0228,0.9235,-0.0330,-1.9728,-0.4932,
14.772512,0.0382,-1.1369,-0.2179,1.1342,-2.0228,0.9235,0.2227,-2.1071,-0.4452,
14.775143,0.0382,-1.1369,-0.2179,0.2072,-1.2051,0.4083,0.2227,-2.1071,-0.4452,
14.811572,0.0382,-1.1369,-0.2179,0.2072,-1.2051,0.4083,0.2024,-2.3979,-0.5454,
14.813924,0.0382,-1.1369,-0.2179,1.8916,-0.4020,0.8901,0.2024,-2.3979,-0.5454,
14.815271,0.0997,-1.1090,-0.1783,1.8916,-0.4020,0.8901,0.2024,-2.3979,-0.5454,
14.816547,0.1195,-1.0279,-0.1289,1.8916,-0.4020,0.8901,0.2024,-2.3979,-0.5454,
14.817749,0.1070,-0.9412,-0.1128,1.8916,-0.4020,0.8901,0.2024,-2.3979,-0.5454,
14.818729,0.0448,-0.9133,-0.0859,1.8916,-0.4020,0.8901,0.2024,-2.3979,-0.5454,
14.851596,0.0448,-0.9133,-0.0859,1.8916,-0.4020,0.8901,0.0767,-2.3307,-0.7318,
14.854160,0.0448,-0.9133,-0.0859,1.7847,-0.3660,0.7742,0.0767,-2.3307,-0.7318,
14.891273,0.0448,-0.9133,-0.0859,1.7847,-0.3660,0.7742,0.0757,-1.5361,-0.7446,
14.893826,0.0448,-0.9133,-0.0859,-0.3825,0.4420,1.7467,0.0757,-1.5361,-0.7446,
14.895060,-0.0886,-0.9487,-0.0161,-0.3825,0.4420,1.7467,0.0757,-1.5361,-0.7446,
14.896064,-0.2469,-0.9741,0.0098,-0.3825,0.4420,1.7467,0.0757,-1.5361,-0.7446,
14.897529,-0.3933,-0.9737,0.0098,-0.3825,0.4420,1.7467,0.0757,-1.5361,-0.7446,
14.898504,-0.4881,-0.9426,-0.0864,-0.3825,0.4420,1.7467,0.0757,-1.5361,-0.7446,
14.930775,-0.4881,-0.9426,-0.0864,-0.3825,0.4420,1.7467,-0.1321,-1.0514,-0.2876,
14.933282,-0.4881,-0.9426,-0.0864,-0.4008,0.4301,1.7452,-0.1321,-1.0514,-0.2876,
14.969760,-0.4881,-0.9426,-0.0864,-0.4008,0.4301,1.7452,-0.6626,-1.1941,0.3069,
14.972355,-0.4881,-0.9426,-0.0864,-3.7364,0.4111,1.4569,-0.6626,-1.1941,0.3069,
14.974801,-0.5169,-0.9038,-0.1646,-3.7364,0.4111,1.4569,-0.6626,-1.1941,0.3069,
14.975932,-0.4724,-0.9079,-0.1441,-3.7364,0.4111,1.4569,-0.6626,-1.1941,0.3069,
14.977618,-0.3835,-0.9453,-0.1482,-3.7364,0.4111,1.4569,-0.6626,-1.1941,0.3069,
14.978786,-0.3229,-0.9988,-0.1695,-3.7364,0.4111,1.4569,-0.6626,-1.1941,0.3069,
15.008917,-0.3229,-0.9988,-0.1695,-3.7364,0.4111,1.4569,-0.9161,-1.1781,0.4954,
15.015297,-0.3229,-0.9988,-0.1695,-2.6751,0.1969,1.0209,-0.9161,-1.1781,0.4954,
15.049428,-0.2015,-1.0240,-0.0097,-2.6751,0.1969,1.0209,-0.9161,-1.1781,0.4954,
15.050940,-0.0972,-1.0123,0.0128,-2.6751,0.1969,1.0209,-0.9161,-1.1781,0.4954,
15.051657,-0.0781,-1.0303,-0.0063,-2.6751,0.1969,1.0209,-0.9161,-1.1781,0.4954,
15.052243,-0.0781,-1.0303,-0.0063,-2.6751,0.1969,1.0209,-0.8959,-0.6540,0.1300,
15.052913,-0.0781,-1.0303,-0.0063,0.0618,-0.5951,2.7756,-0.8959,-0.6540,0.1300,
15.088974,-0.0781,-1.0303,-0.0063,0.0618,-0.5951,2.7756,-0.4900,0.2387,-0.1757,
15.090695,-0.0781,-1.0303,-0.0063,-1.3666,-0.5531,1.8176,-0.4900,0.2387,-0.1757,
15.128104,-0.0781,-1.0303,-0.0063,-1.3666,-0.5531,1.8176,-0.3313,0.5465,0.1545,
15.129496,-0.0781,-1.0303,-0.0063,-1.3522,-0.5902,1.9340,-0.3313,0.5465,0.1545,
15.130694,-0.2052,-1.0487,-0.0747,-1.3522,-0.5902,1.9340,-0.3313,0.5465,0.1545,
15.131580,-0.2799,-1.0389,-0.1023,-1.3522,-0.5902,1.9340,-0.3313,0.5465,0.1545,
15.132351,-0.3075,-0.9546,-0.1695,-1.3522,-0.5902,1.9340,-0.3313,0.5465,0.1545,
15.133039,-0.3012,-0.8830,-0.2465,-1.3522,-0.5902,1.9340,-0.3313,0.5465,0.1545,
15.133916,-0.2115,-0.8940,-0.2633,-1.3522,-0.5902,1.9340,-0.3313,0.5465,0.1545,
15.167582,-0.2115,-0.8940,-0.2633,-1.3522,-0.5902,1.9340,-0.5614,0.3952,0.4368,
15.169497,-0.2115,-0.8940,-0.2633,-1.2201,-0.6719,2.1251,-0.5614,0.3952,0.4368,
15.208711,-0.2115,-0.8940,-0.2633,-1.2201,-0.6719,2.1251,-0.4197,0.8203,0.2216,
15.210633,-0.2115,-0.8940,-0.2633,-0.9051,0.1962,0.7486,-0.4197,0.8203,0.2216,
15.211973,-0.1795,-0.9776,-0.3149,-0.9051,0.1962,0.7486,-0.4197,0.8203,0.2216,
