
time,gFx,gFy,gFz,ax,ay,az,wx,wy,wz,
0.052071,0.0000,0.0000,0.0000,0.0000,0.0000,0.0000,-0.2002,0.9886,0.2600,
0.084681,0.0000,0.0000,0.0000,0.0000,0.0000,0.0000,-0.1086,0.7351,0.5902,
0.085725,0.0650,0.3428,0.9193,0.0000,0.0000,0.0000,-0.1086,0.7351,0.5902,
0.086164,-0.0425,0.3401,0.9201,0.0000,0.0000,0.0000,-0.1086,0.7351,0.5902,
0.086571,-0.1139,0.2788,0.7326,0.0000,0.0000,0.0000,-0.1086,0.7351,0.5902,
0.087098,0.1314,0.6129,0.4944,0.0000,0.0000,0.0000,-0.1086,0.7351,0.5902,
0.087567,-0.1743,0.5326,0.4360,0.0000,0.0000,0.0000,-0.1086,0.7351,0.5902,
0.124532,-0.1743,0.5326,0.4360,0.0000,0.0000,0.0000,-0.6956,-1.2783,-0.3802,
0.164927,-0.1417,0.3016,0.5226,0.0000,0.0000,0.0000,-0.6956,-1.2783,-0.3802,
0.166099,-0.0593,0.2287,0.6250,0.0000,0.0000,0.0000,-0.6956,-1.2783,-0.3802,
0.166501,-0.0701,0.2154,0.8471,0.0000,0.0000,0.0000,-0.6956,-1.2783,-0.3802,
0.167052,-0.0701,0.2154,0.8471,0.0000,0.0000,-0.0000,-0.6956,-1.2783,-0.3802,
0.167438,-0.0701,0.2154,0.8471,0.0000,0.0000,-0.0000,-1.3049,-2.2935,0.0075,
0.204748,-0.0701,0.2154,0.8471,0.0000,0.0000,-0.0000,-0.7723,-2.1326,0.4453,
0.205875,-0.0701,0.2154,0.8471,1.3020,-2.1763,2.4129,-0.7723,-2.1326,0.4453,
0.242777,0.0555,0.1155,1.0594,1.3020,-2.1763,2.4129,-0.7723,-2.1326,0.4453,
0.243775,0.3346,0.1767,0.9085,1.3020,-2.1763,2.4129,-0.7723,-2.1326,0.4453,
0.244353,0.2183,0.0822,0.8523,1.3020,-2.1763,2.4129,-0.7723,-2.1326,0.4453,
0.244849,0.2247,0.1390,0.8748,1.3020,-2.1763,2.4129,-0.7723,-2.1326,0.4453,
0.245535,0.2247,0.1390,0.8748,1.3020,-2.1763,2.4129,0.0511,-2.6258,0.5817,
0.245968,0.2247,0.1390,0.8748,0.3465,-1.4432,1.6880,0.0511,-2.6258,0.5817,
0.283450,0.2247,0.1390,0.8748,-0.3527,-0.9295,1.2775,0.0511,-2.6258,0.5817,
0.284421,0.2247,0.1390,0.8748,-0.3527,-0.9295,1.2775,0.1353,-2.5992,1.0600,
0.320351,0.2808,0.1638,0.7314,-0.3527,-0.9295,1.2775,0.1353,-2.5992,1.0600,
0.321263,0.2349,0.0236,0.7423,-0.3527,-0.9295,1.2775,0.1353,-2.5992,1.0600,
0.321775,0.2662,-0.0475,0.7607,-0.3527,-0.9295,1.2775,0.1353,-2.5992,1.0600,
0.322246,0.1558,-0.1772,0.6536,-0.3527,-0.9295,1.2775,0.1353,-2.5992,1.0600,
0.323122,0.1558,-0.1772,0.6536,-0.9910,-0.9610,0.2639,0.1353,-2.5992,1.0600,
0.323665,0.1558,-0.1772,0.6536,-0.9910,-0.9610,0.2639,1.3114,-4.1257,1.6640,
0.362706,0.1558,-0.1772,0.6536,-0.9910,-0.9610,0.2639,2.1007,-4.2163,3.2299,
0.365556,0.1558,-0.1772,0.6536,-1.8203,-0.7546,0.8452,2.1007,-4.2163,3.2299,
0.399058,0.0539,-0.3960,0.4894,-1.8203,-0.7546,0.8452,2.1007,-4.2163,3.2299,
0.400143,0.2512,-0.3353,0.2099,-1.8203,-0.7546,0.8452,2.1007,-4.2163,3.2299,
0.400600,0.3985,-0.2493,0.1376,-1.8203,-0.7546,0.8452,2.1007,-4.2163,3.2299,
0.401096,0.3473,-0.4533,0.2831,-1.8203,-0.7546,0.8452,2.1007,-4.2163,3.2299,
0.402146,0.3473,-0.4533,0.2831,-1.8203,-0.7546,0.8452,2.1412,-4.8746,4.4529,
0.402812,0.3473,-0.4533,0.2831,-2.0774,-4.0490,-3.0462,2.1412,-4.8746,4.4529,
0.442026,0.3473,-0.4533,0.2831,-2.0774,-4.0490,-3.0462,3.3151,-5.4658,5.4862,
0.442941,0.3473,-0.4533,0.2831,-2.5962,-2.7914,-1.4405,3.3151,-5.4658,5.4862,
0.481404,0.5011,-0.6407,0.3108,-2.5962,-2.7914,-1.4405,3.3151,-5.4658,5.4862,
0.482833,1.0364,-0.5616,0.1266,-2.5962,-2.7914,-1.4405,3.3151,-5.4658,5.4862,
0.483498,1.2994,-0.3844,-0.0368,-2.5962,-2.7914,-1.4405,3.3151,-5.4658,5.4862,
0.483973,1.2994,-0.3844,-0.0368,-2.5962,-2.7914,-1.4405,3.0680,-3.3779,5.8324,
0.484445,1.2994,-0.3844,-0.0368,2.7801,-3.0686,-1.3049,3.0680,-3.3779,5.8324,
0.521408,1.2994,-0.3844,-0.0368,2.7801,-3.0686,-1.3049,2.1902,-2.3787,5.2166,
0.522512,1.2994,-0.3844,-0.0368,10.0384,-0.6115,-2.7032,2.1902,-2.3787,5.2166,
0.559350,1.4129,-0.4317,-0.1192,10.0384,-0.6115,-2.7032,2.1902,-2.3787,5.2166,
0.560204,1.8253,-0.4182,-0.1884,10.0384,-0.6115,-2.7032,2.1902,-2.3787,5.2166,
0.560821,2.1608,-0.3493,0.0484,10.0384,-0.6115,-2.7032,2.1902,-2.3787,5.2166,
0.561311,1.9983,-0.3835,0.1673,10.0384,-0.6115,-2.7032,2.1902,-2.3787,5.2166,
0.561955,1.7832,-0.4665,-0.0774,10.0384,-0.6115,-2.7032,2.1902,-2.3787,5.2166,
0.562413,1.7832,-0.4665,-0.0774,10.0384,-0.6115,-2.7032,2.8975,-2.3478,3.7849,
0.562898,1.7832,-0.4665,-0.0774,9.1397,0.2648,-2.1479,2.8975,-2.3478,3.7849,
0.600710,1.7832,-0.4665,-0.0774,9.1397,0.2648,-2.1479,2.5332,-0.3089,2.9604,
0.601677,1.7832,-0.4665,-0.0774,8.4570,0.9543,-2.1935,2.5332,-0.3089,2.9604,
0.637337,1.6134,-0.5491,-0.2279,8.4570,0.9543,-2.1935,2.5332,-0.3089,2.9604,
0.638214,1.5292,-0.5277,-0.2079,8.4570,0.9543,-2.1935,2.5332,-0.3089,2.9604,
0.638742,1.5161,-0.3587,-0.4268,8.4570,0.9543,-2.1935,2.5332,-0.3089,2.9604,
0.639254,1.4979,-0.1756,-1.0483,8.4570,0.9543,-2.1935,2.5332,-0.3089,2.9604,
0.639856,1.4979,-0.1756,-1.0483,8.4570,0.9543,-2.1935,1.0493,-0.1853,2.0688,
0.640470,1.4979,-0.1756,-1.0483,5.4709,1.8724,-6.2935,1.0493,-0.1853,2.0688,
0.680386,1.4979,-0.1756,-1.0483,5.1087,2.0025,-5.6147,1.0493,-0.1853,2.0688,
0.681361,1.4979,-0.1756,-1.0483,5.1087,2.0025,-5.6147,-0.8469,0.3654,0.8885,
0.719741,1.4196,-0.1959,-0.4861,5.1087,2.0025,-5.6147,-0.8469,0.3654,0.8885,
0.720751,1.1771,-0.2981,0.2055,5.1087,2.0025,-5.6147,-0.8469,0.3654,0.8885,
0.721201,0.6173,-0.5365,0.1089,5.1087,2.0025,-5.6147,-0.8469,0.3654,0.8885,
0.721685,0.6173,-0.5365,0.1089,5.1087,2.0025,-5.6147,-0.1939,0.4879,0.9684,
0.722186,0.6173,-0.5365,0.1089,0.8976,2.2508,-0.7470,-0.1939,0.4879,0.9684,
0.759048,0.6173,-0.5365,0.1089,0.8976,2.2508,-0.7470,0.6424,-1.2889,1.7982,
0.759955,0.6173,-0.5365,0.1089,-3.2326,0.1703,-0.1248,0.6424,-1.2889,1.7982,
0.797509,0.4689,-0.6438,0.0451,-3.2326,0.1703,-0.1248,0.6424,-1.2889,1.7982,
0.798607,0.6206,-0.6132,-0.0585,-3.2326,0.1703,-0.1248,0.6424,-1.2889,1.7982,
0.799177,0.6406,-0.6105,-0.0710,-3.2326,0.1703,-0.1248,0.6424,-1.2889,1.7982,
0.799651,0.6613,-0.6656,-0.0283,-3.2326,0.1703,-0.1248,0.6424,-1.2889,1.7982,
0.800169,0.8265,-0.1215,0.0256,-3.2326,0.1703,-0.1248,0.6424,-1.2889,1.7982,
0.800627,0.8265,-0.1215,0.0256,-3.2326,0.1703,-0.1248,0.1428,-0.8010,1.9569,
0.801051,0.8265,-0.1215,0.0256,-2.4863,0.7698,0.1041,0.1428,-0.8010,1.9569,
0.838257,0.8265,-0.1215,0.0256,-2.4863,0.7698,0.1041,-0.2375,-0.6253,1.4414,
0.839689,0.8265,-0.1215,0.0256,-1.8957,1.1167,0.3377,-0.2375,-0.6253,1.4414,
0.875540,0.6195,-0.0729,-0.0300,-1.8957,1.1167,0.3377,-0.2375,-0.6253,1.4414,
0.876459,0.5045,-0.2856,-0.0190,-1.8957,1.1167,0.3377,-0.2375,-0.6253,1.4414,
0.877099,0.4050,-0.7311,0.1051,-1.8957,1.1167,0.3377,-0.2375,-0.6253,1.4414,
0.877729,0.4019,-0.8502,-0.0139,-1.8957,1.1167,0.3377,-0.2375,-0.6253,1.4414,
0.878320,0.4019,-0.8502,-0.0139,-1.8957,1.1167,0.3377,-1.1025,-0.6594,1.2091,
0.878840,0.4019,-0.8502,-0.0139,-2.6815,1.3306,1.2669,-1.1025,-0.6594,1.2091,
0.917788,0.4019,-0.8502,-0.0139,-2.6815,1.3306,1.2669,-1.2708,-0.5305,1.0035,
0.918855,0.4019,-0.8502,-0.0139,-2.1868,1.4261,1.6618,-1.2708,-0.5305,1.0035,
0.953746,0.4614,-0.9140,-0.2546,-2.1868,1.4261,1.6618,-1.2708,-0.5305,1.0035,
0.954561,0.7096,-1.3621,-0.2298,-2.1868,1.4261,1.6618,-1.2708,-0.5305,1.0035,
0.955046,0.9911,-1.9716,-0.0614,-2.1868,1.4261,1.6618,-1.2708,-0.5305,1.0035,
0.955556,0.9267,-1.9994,0.2025,-2.1868,1.4261,1.6618,-1.2708,-0.5305,1.0035,
0.956748,0.9267,-1.9994,0.2025,-2.1868,1.4261,1.6618,-0.1971,0.5210,-0.1288,
0.957396,0.9267,-1.9994,0.2025,0.4895,-5.9702,-0.4035,-0.1971,0.5210,-0.1288,
0.997039,0.9267,-1.9994,0.2025,0.4895,-5.9702,-0.4035,0.8565,0.1492,-0.3035,
0.997910,0.9267,-1.9994,0.2025,0.3611,-5.6081,-0.6628,0.8565,0.1492,-0.3035,
1.008824,0.1974,-1.3495,0.0763,0.3611,-5.6081,-0.6628,0.8565,0.1492,-0.3035,
1.009726,0.1217,-0.7440,-0.4199,0.3611,-5.6081,-0.6628,0.8565,0.1492,-0.3035,
1.010112,0.0401,-0.6591,-0.4822,0.3611,-5.6081,-0.6628,0.8565,0.1492,-0.3035,
1.036708,0.0401,-0.6591,-0.4822,0.3611,-5.6081,-0.6628,-0.6732,-1.6660,2.5556,
1.037614,0.0401,-0.6591,-0.4822,-1.5648,-4.2288,1.2198,-0.6732,-1.6660,2.5556,
1.075701,0.0401,-0.6591,-0.4822,-1.5648,-4.2288,1.2198,0.0085,-2.9071,3.6933,
1.076841,0.0401,-0.6591,-0.4822,-2.9362,2.5458,-0.6001,0.0085,-2.9071,3.6933,
1.077374,0.1198,-0.6789,-0.2584,-2.9362,2.5458,-0.6001,0.0085,-2.9071,3.6933,
1.077854,0.1138,-0.8497,-0.1377,-2.9362,2.5458,-0.6001,0.0085,-2.9071,3.6933,
1.078422,0.3168,-0.6492,-0.2379,-2.9362,2.5458,-0.6001,0.0085,-2.9071,3.6933,
1.078962,0.3482,-0.8076,0.0980,-2.9362,2.5458,-0.6001,0.0085,-2.9071,3.6933,
1.117075,0.3482,-0.8076,0.0980,-2.9362,2.5458,-0.6001,0.9715,-1.2176,1.3061,
1.118355,0.3482,-0.8076,0.0980,-2.1836,2.6477,-0.7635,0.9715,-1.2176,1.3061,
1.154822,0.3482,-0.8076,0.0980,-2.1836,2.6477,-0.7635,-0.6945,0.7969,0.2781,
1.155866,0.3482,-0.8076,0.0980,-0.8846,-0.7140,0.1885,-0.6945,0.7969,0.2781,
1.157934,0.3549,-0.9299,-0.3947,-0.8846,-0.7140,0.1885,-0.6945,0.7969,0.2781,
1.158800,0.2429,-0.9816,-0.4727,-0.8846,-0.7140,0.1885,-0.6945,0.7969,0.2781,
1.159268,0.1838,-1.1320,-0.1375,-0.8846,-0.7140,0.1885,-0.6945,0.7969,0.2781,
1.159699,0.2177,-1.1070,-0.0271,-0.8846,-0.7140,0.1885,-0.6945,0.7969,0.2781,
1.194962,0.2177,-1.1070,-0.0271,-0.8846,-0.7140,0.1885,-0.0032,0.6690,0.3857,
1.195951,0.2177,-1.1070,-0.0271,-0.7524,-0.6342,0.1055,-0.0032,0.6690,0.3857,
1.234384,0.2177,-1.1070,-0.0271,-0.7524,-0.6342,0.1055,0.6935,0.1204,0.1290,
1.236339,0.3825,-0.1141,-0.2659,-0.7524,-0.6342,0.1055,0.6935,0.1204,0.1290,
1.237190,0.1999,-0.5254,0.0311,-0.7524,-0.6342,0.1055,0.6935,0.1204,0.1290,
1.237717,0.0319,-1.1292,-0.1049,-0.7524,-0.6342,0.1055,0.6935,0.1204,0.1290,
1.238214,0.0018,-1.1182,0.0279,-0.7524,-0.6342,0.1055,0.6935,0.1204,0.1290,
1.238664,0.0018,-1.1182,0.0279,-0.7698,3.9706,0.7517,0.6935,0.1204,0.1290,
1.257308,0.0063,-1.1015,-0.0927,-0.7698,3.9706,0.7517,0.6935,0.1204,0.1290,
1.273606,0.0063,-1.1015,-0.0927,-0.7698,3.9706,0.7517,0.6850,-0.0543,0.7255,
1.275118,0.0063,-1.1015,-0.0927,-0.4585,3.8892,0.4653,0.6850,-0.0543,0.7255,
1.313528,0.0063,-1.1015,-0.0927,-0.4585,3.8892,0.4653,0.5145,-0.0831,1.5500,
1.314432,0.0063,-1.1015,-0.0927,0.1393,3.8500,0.2598,0.5145,-0.0831,1.5500,
1.354070,0.0063,-1.1015,-0.0927,0.1393,3.8500,0.2598,-0.1321,0.4038,1.7460,
1.355040,0.0063,-1.1015,-0.0927,0.7483,3.7520,0.2726,-0.1321,0.4038,1.7460,
1.393250,0.0063,-1.1015,-0.0927,0.7483,3.7520,0.2726,-0.4101,0.8373,0.0448,
1.393905,0.0063,-1.1015,-0.0927,0.6818,3.5441,0.3674,-0.4101,0.8373,0.0448,
1.412810,0.2114,-0.8412,0.1711,0.6818,3.5441,0.3674,-0.4101,0.8373,0.0448,
1.413683,-0.0454,-0.7601,0.0580,0.6818,3.5441,0.3674,-0.4101,0.8373,0.0448,
1.414106,-0.2005,-0.9475,-0.0520,0.6818,3.5441,0.3674,-0.4101,0.8373,0.0448,
1.433680,-0.2005,-0.9475,-0.0520,0.6818,3.5441,0.3674,0.2727,0.2823,-0.5795,
1.434707,-0.2005,-0.9475,-0.0520,-1.5883,0.9307,1.8470,0.2727,0.2823,-0.5795,
1.473898,-0.2005,-0.9475,-0.0520,-1.5883,0.9307,1.8470,0.2567,0.4762,-0.0117,
1.474667,-0.2005,-0.9475,-0.0520,-3.6101,-0.9143,-0.1084,0.2567,0.4762,-0.0117,
1.500500,-0.2794,-1.0418,-0.1138,-3.6101,-0.9143,-0.1084,0.2567,0.4762,-0.0117,
1.501395,-0.2838,-1.0589,-0.1429,-3.6101,-0.9143,-0.1084,0.2567,0.4762,-0.0117,
1.502173,-0.1346,-1.0298,-0.1289,-3.6101,-0.9143,-0.1084,0.2567,0.4762,-0.0117,
1.502615,0.0961,-0.9993,-0.0781,-3.6101,-0.9143,-0.1084,0.2567,0.4762,-0.0117,
1.511595,0.0961,-0.9993,-0.0781,-3.6101,-0.9143,-0.1084,0.0267,0.5135,0.3644,
1.512392,0.0961,-0.9993,-0.0781,-3.3395,-0.8540,-0.1378,0.0267,0.5135,0.3644,
1.552247,0.0961,-0.9993,-0.0781,1.0576,-0.2245,0.6747,0.0267,0.5135,0.3644,
1.553446,0.0961,-0.9993,-0.0781,1.0576,-0.2245,0.6747,0.0863,0.3985,0.2014,
1.588319,0.2590,-0.9746,-0.0041,1.0576,-0.2245,0.6747,0.0863,0.3985,0.2014,
1.589401,0.2903,-0.9707,-0.0305,1.0576,-0.2245,0.6747,0.0863,0.3985,0.2014,
1.589920,0.1686,-0.9976,-0.1478,1.0576,-0.2245,0.6747,0.0863,0.3985,0.2014,
1.590506,0.0863,-1.0145,-0.1568,1.0576,-0.2245,0.6747,0.0863,0.3985,0.2014,
1.591384,0.0863,-1.0145,-0.1568,1.0576,-0.2245,0.6747,0.1758,0.2099,-0.0522,
1.592887,0.0863,-1.0145,-0.1568,0.9850,-0.2102,0.5745,0.1758,0.2099,-0.0522,
1.631222,0.0863,-1.0145,-0.1568,0.9850,-0.2102,0.5745,0.0597,-0.2077,-0.0213,
1.632110,0.0863,-1.0145,-0.1568,0.0321,-0.4136,-0.5273,0.0597,-0.2077,-0.0213,
1.670674,0.0863,-1.0145,-0.1568,0.0321,-0.4136,-0.5273,-0.0277,-0.4868,-0.0553,
1.671711,0.0863,-1.0145,-0.1568,0.0288,-0.3998,-0.4746,-0.0277,-0.4868,-0.0553,
1.672382,0.0992,-1.0008,-0.1485,0.0288,-0.3998,-0.4746,-0.0277,-0.4868,-0.0553,
1.672811,0.1285,-0.9700,-0.1561,0.0288,-0.3998,-0.4746,-0.0277,-0.4868,-0.0553,
1.673188,0.1246,-0.9551,-0.1121,0.0288,-0.3998,-0.4746,-0.0277,-0.4868,-0.0553,
1.673493,0.0870,-0.9746,-0.0830,0.0288,-0.3998,-0.4746,-0.0277,-0.4868,-0.0553,
1.673935,0.0780,-1.0030,-0.0608,0.0288,-0.3998,-0.4746,-0.0277,-0.4868,-0.0553,
1.710725,0.0780,-1.0030,-0.0608,-0.0785,-0.0397,-0.1084,-0.0277,-0.4868,-0.0553,
1.711625,0.0780,-1.0030,-0.0608,-0.0785,-0.0397,-0.1084,-0.0149,-0.5102,-0.2290,
1.752463,0.0780,-1.0030,-0.0608,-0.0785,-0.0397,-0.1084,0.0054,-0.1704,-0.3600,
1.753331,0.0780,-1.0030,-0.0608,-0.9407,-0.3997,0.4797,0.0054,-0.1704,-0.3600,
1.754100,0.0511,-1.0061,-0.0447,-0.9407,-0.3997,0.4797,0.0054,-0.1704,-0.3600,
1.754553,-0.0254,-1.0003,-0.0618,-0.9407,-0.3997,0.4797,0.0054,-0.1704,-0.3600,
1.754899,-0.1153,-1.0015,-0.0862,-0.9407,-0.3997,0.4797,0.0054,-0.1704,-0.3600,
1.755433,-0.1773,-0.9871,-0.1260,-0.9407,-0.3997,0.4797,0.0054,-0.1704,-0.3600,
1.789773,-0.1773,-0.9871,-0.1260,-0.9407,-0.3997,0.4797,-0.1683,0.0981,-0.2386,
1.790478,-0.1773,-0.9871,-0.1260,-0.9942,-0.4032,0.5166,-0.1683,0.0981,-0.2386,
1.829216,-0.1773,-0.9871,-0.1260,-0.9942,-0.4032,0.5166,-0.3675,0.3207,-0.0244,
1.829924,-0.1773,-0.9871,-0.1260,-2.7629,-0.1900,0.0136,-0.3675,0.3207,-0.0244,
1.830668,-0.1705,-0.9524,-0.1456,-2.7629,-0.1900,0.0136,-0.3675,0.3207,-0.0244,
1.831048,-0.0605,-0.9719,-0.1397,-2.7629,-0.1900,0.0136,-0.3675,0.3207,-0.0244,
1.831459,0.0225,-1.0147,-0.0640,-2.7629,-0.1900,0.0136,-0.3675,0.3207,-0.0244,
1.831906,0.0404,-1.0245,-0.0041,-2.7629,-0.1900,0.0136,-0.3675,0.3207,-0.0244,
1.869104,0.0404,-1.0245,-0.0041,-2.7629,-0.1900,0.0136,-0.4548,0.7415,-0.0841,
1.870203,0.0404,-1.0245,-0.0041,-1.2640,-0.4300,0.6127,-0.4548,0.7415,-0.0841,
1.909233,0.0404,-1.0245,-0.0041,-1.2640,-0.4300,0.6127,-0.3867,0.7617,0.0714,
1.910161,0.0404,-1.0245,-0.0041,-1.5761,-0.3807,0.3334,-0.3867,0.7617,0.0714,
1.911346,-0.0261,-0.9971,-0.0574,-1.5761,-0.3807,0.3334,-0.3867,0.7617,0.0714,
1.911944,-0.0930,-0.9661,-0.1287,-1.5761,-0.3807,0.3334,-0.3867,0.7617,0.0714,
1.912556,0.0130,-1.0318,-0.1358,-1.5761,-0.3807,0.3334,-0.3867,0.7617,0.0714,
1.913085,0.2211,-1.1080,-0.0967,-1.5761,-0.3807,0.3334,-0.3867,0.7617,0.0714,
1.947459,0.2211,-1.1080,-0.0967,-1.5761,-0.3807,0.3334,-0.0735,0.3889,0.3750,
1.948346,0.2211,-1.1080,-0.0967,-1.4075,-0.3546,0.3307,-0.0735,0.3889,0.3750,
1.987602,0.2211,-1.1080,-0.0967,-1.4075,-0.3546,0.3307,0.2312,0.0426,0.2408,
1.989278,0.2211,-1.1080,-0.0967,1.7313,-1.0537,0.4394,0.2312,0.0426,0.2408,
1.990148,0.3306,-1.0956,-0.0491,1.7313,-1.0537,0.4394,0.2312,0.0426,0.2408,
1.990539,0.2944,-1.0232,-0.1111,1.7313,-1.0537,0.4394,0.2312,0.0426,0.2408,
1.990903,0.2795,-0.9776,-0.0991,1.7313,-1.0537,0.4394,0.2312,0.0426,0.2408,
1.993629,0.2334,-0.9844,-0.0417,1.7313,-1.0537,0.4394,0.2312,0.0426,0.2408,
2.027490,0.2334,-0.9844,-0.0417,1.7313,-1.0537,0.4394,0.5561,-0.1981,0.1503,
2.028361,0.2334,-0.9844,-0.0417,1.7372,-0.9877,0.2298,0.5561,-0.1981,0.1503,
2.066716,0.2334,-0.9844,-0.0417,1.7372,-0.9877,0.2298,0.6307,0.5604,0.1226,
2.067733,0.2334,-0.9844,-0.0417,1.0253,-0.2101,-0.1719,0.6307,0.5604,0.1226,
2.068194,0.1178,-1.0377,-0.1607,1.0253,-0.2101,-0.1719,0.6307,0.5604,0.1226,
2.068677,0.0760,-1.0130,-0.1905,1.0253,-0.2101,-0.1719,0.6307,0.5604,0.1226,
2.069018,0.0460,-0.9028,-0.0073,1.0253,-0.2101,-0.1719,0.6307,0.5604,0.1226,
2.070519,-0.0811,-0.9192,0.0113,1.0253,-0.2101,-0.1719,0.6307,0.5604,0.1226,
2.106432,-0.0811,-0.9192,0.0113,1.0253,-0.2101,-0.1719,0.6488,0.6925,0.2440,
2.107475,-0.0811,-0.9192,0.0113,-0.8010,0.3437,-0.0681,0.6488,0.6925,0.2440,
2.147144,-0.0811,-0.9192,0.0113,-0.8010,0.3437,-0.0681,0.3239,0.3963,0.5519,
2.148842,-0.0811,-0.9192,0.0113,-0.4205,-0.1283,-1.2009,0.3239,0.3963,0.5519,
2.149496,-0.0894,-0.9937,-0.1922,-0.4205,-0.1283,-1.2009,0.3239,0.3963,0.5519,
2.150163,0.0743,-0.9942,-0.1908,-0.4205,-0.1283,-1.2009,0.3239,0.3963,0.5519,
2.153203,0.1063,-1.0003,-0.1199,-0.4205,-0.1283,-1.2009,0.3239,0.3963,0.5519,
2.153720,0.1224,-0.9925,-0.1666,-0.4205,-0.1283,-1.2009,0.3239,0.3963,0.5519,
2.187054,0.1224,-0.9925,-0.1666,-0.4205,-0.1283,-1.2009,-0.0852,0.7095,0.5700,
2.187929,0.1224,-0.9925,-0.1666,-0.2084,-0.1124,-1.1496,-0.0852,0.7095,0.5700,
2.225579,0.2590,-0.9898,-0.0544,-0.2084,-0.1124,-1.1496,-0.0852,0.7095,0.5700,
2.226491,0.3154,-1.0269,-0.0026,-0.2084,-0.1124,-1.1496,-0.0852,0.7095,0.5700,
2.227005,0.2971,-1.0350,-0.1446,-0.2084,-0.1124,-1.1496,-0.0852,0.7095,0.5700,
2.227512,0.2971,-1.0350,-0.1446,-0.2084,-0.1124,-1.1496,-0.3419,0.7010,0.3495,
2.227940,0.2971,-1.0350,-0.1446,1.8330,-0.1770,-0.1153,-0.3419,0.7010,0.3495,
2.267066,0.2971,-1.0350,-0.1446,1.8330,-0.1770,-0.1153,-0.7254,0.2514,0.2025,
2.269464,0.2971,-1.0350,-0.1446,2.2507,-0.3820,-0.1838,-0.7254,0.2514,0.2025,
2.305901,0.2971,-1.0350,-0.1446,2.2507,-0.3820,-0.1838,-0.9182,-0.0394,-0.0202,
2.307924,0.2971,-1.0350,-0.1446,2.1808,-0.4092,0.1623,-0.9182,-0.0394,-0.0202,
2.309685,0.2900,-1.0286,-0.1600,2.1808,-0.4092,0.1623,-0.9182,-0.0394,-0.0202,
2.310957,0.2363,-1.0061,-0.0254,2.1808,-0.4092,0.1623,-0.9182,-0.0394,-0.0202,
2.312260,0.1256,-0.9421,0.0795,2.1808,-0.4092,0.1623,-0.9182,-0.0394,-0.0202,
2.313788,-0.0095,-0.8969,0.0308,2.1808,-0.4092,0.1623,-0.9182,-0.0394,-0.0202,
2.314926,-0.0789,-0.9045,-0.1013,2.1808,-0.4092,0.1623,-0.9182,-0.0394,-0.0202,
2.345818,-0.0789,-0.9045,-0.1013,2.1808,-0.4092,0.1623,-1.1782,-0.4612,-0.0085,
2.347710,-0.0789,-0.9045,-0.1013,-0.3531,0.5712,1.6781,-1.1782,-0.4612,-0.0085,
2.385819,-0.0789,-0.9045,-0.1013,-0.3531,0.5712,1.6781,-1.4594,-0.1182,-0.0276,
2.387801,-0.0789,-0.9045,-0.1013,-0.0590,0.3771,0.8411,-1.4594,-0.1182,-0.0276,
2.389164,-0.0432,-0.9202,-0.2504,-0.0590,0.3771,0.8411,-1.4594,-0.1182,-0.0276,
2.390140,0.0663,-0.9275,-0.1287,-0.0590,0.3771,0.8411,-1.4594,-0.1182,-0.0276,
2.391121,0.1044,-0.9180,-0.0295,-0.0590,0.3771,0.8411,-1.4594,-0.1182,-0.0276,
2.392273,0.0369,-0.8977,-0.1719,-0.0590,0.3771,0.8411,-1.4594,-0.1182,-0.0276,
2.425073,0.0369,-0.8977,-0.1719,-0.0590,0.3771,0.8411,-1.1537,0.1843,-0.3089,
2.427035,0.0369,-0.8977,-0.1719,-0.1862,0.2542,1.2308,-1.1537,0.1843,-0.3089,
2.464948,0.0369,-0.8977,-0.1719,-0.1862,0.2542,1.2308,-0.8895,-0.1075,-0.3941,
2.467090,0.0369,-0.8977,-0.1719,-0.9986,-0.0903,0.5214,-0.8895,-0.1075,-0.3941,
2.468416,-0.0601,-0.9199,-0.2680,-0.9986,-0.0903,0.5214,-0.8895,-0.1075,-0.3941,
2.469671,-0.0659,-1.0215,-0.2821,-0.9986,-0.0903,0.5214,-0.8895,-0.1075,-0.3941,
2.470673,-0.0850,-1.1742,-0.2750,-0.9986,-0.0903,0.5214,-0.8895,-0.1075,-0.3941,
2.471703,-0.2936,-1.1894,-0.3354,-0.9986,-0.0903,0.5214,-0.8895,-0.1075,-0.3941,
2.505135,-0.2936,-1.1894,-0.3354,-0.9986,-0.0903,0.5214,-0.7947,0.2451,-0.4825,
2.506764,-0.2936,-1.1894,-0.3354,-1.1711,-0.1956,0.7797,-0.7947,0.2451,-0.4825,
2.544097,-0.4509,-1.1307,-0.3105,-1.1711,-0.1956,0.7797,-0.7947,0.2451,-0.4825,
2.546232,-0.4930,-1.1515,-0.1983,-1.1711,-0.1956,0.7797,-0.7947,0.2451,-0.4825,
2.547516,-0.3273,-1.1791,-0.2140,-1.1711,-0.1956,0.7797,-0.7947,0.2451,-0.4825,
2.548665,-0.3273,-1.1791,-0.2140,-1.1711,-0.1956,0.7797,-0.8501,0.3665,-0.2119,
2.550131,-0.3273,-1.1791,-0.2140,-3.6185,-2.3916,0.4094,-0.8501,0.3665,-0.2119,
2.583754,-0.3273,-1.1791,-0.2140,-3.6185,-2.3916,0.4094,-0.5241,0.3260,-0.1661,
2.585481,-0.3273,-1.1791,-0.2140,-3.9988,-2.3553,1.0523,-0.5241,0.3260,-0.1661,
2.624295,-0.3273,-1.1791,-0.2140,-3.9988,-2.3553,1.0523,0.0085,0.2419,-0.2354,
2.626536,-0.3273,-1.1791,-0.2140,-4.0141,-2.3041,1.0140,0.0085,0.2419,-0.2354,
2.628352,-0.1250,-1.1469,-0.3569,-4.0141,-2.3041,1.0140,0.0085,0.2419,-0.2354,
2.630094,-0.0300,-1.0169,-0.3718,-4.0141,-2.3041,1.0140,0.0085,0.2419,-0.2354,
2.631190,-0.0960,-0.9267,-0.2487,-4.0141,-2.3041,1.0140,0.0085,0.2419,-0.2354,
2.632254,-0.2377,-0.9009,-0.1773,-4.0141,-2.3041,1.0140,0.0085,0.2419,-0.2354,
2.632996,-0.3119,-0.8390,-0.0784,-4.0141,-2.3041,1.0140,0.0085,0.2419,-0.2354,
2.662260,-0.3119,-0.8390,-0.0784,-4.0141,-2.3041,1.0140,0.6541,-0.1534,-0.1363,
2.663071,-0.3119,-0.8390,-0.0784,-2.0902,-0.1492,0.6737,0.6541,-0.1534,-0.1363,
2.702594,-0.3119,-0.8390,-0.0784,-2.0902,-0.1492,0.6737,1.0845,-0.4016,-0.0809,
2.704156,-0.3119,-0.8390,-0.0784,-3.4205,1.8197,1.5506,1.0845,-0.4016,-0.0809,
2.705574,-0.3066,-0.7362,-0.0598,-3.4205,1.8197,1.5506,1.0845,-0.4016,-0.0809,
2.706690,-0.1839,-0.6927,-0.2628,-3.4205,1.8197,1.5506,1.0845,-0.4016,-0.0809,
2.707771,-0.1079,-0.6959,-0.3395,-3.4205,1.8197,1.5506,1.0845,-0.4016,-0.0809,
2.708923,-0.1429,-0.8114,-0.2804,-3.4205,1.8197,1.5506,1.0845,-0.4016,-0.0809,
2.741813,-0.1429,-0.8114,-0.2804,-3.4205,1.8197,1.5506,1.1367,-0.2492,-0.2056,
2.743757,-0.1429,-0.8114,-0.2804,-3.3871,1.8866,1.1130,1.1367,-0.2492,-0.2056,
2.782126,-0.1429,-0.8114,-0.2804,-3.3871,1.8866,1.1130,0.9385,-0.8703,-0.1278,
2.784038,-0.1429,-0.8114,-0.2804,-1.9775,1.1580,-0.1572,0.9385,-0.8703,-0.1278,
2.785532,-0.1436,-0.9998,-0.0728,-1.9775,1.1580,-0.1572,0.9385,-0.8703,-0.1278,
2.786705,-0.2931,-1.1618,-0.4465,-1.9775,1.1580,-0.1572,0.9385,-0.8703,-0.1278,
2.788201,-0.2626,-1.2922,-0.7639,-1.9775,1.1580,-0.1572,0.9385,-0.8703,-0.1278,
2.789676,-0.0166,-1.2847,-0.6410,-1.9775,1.1580,-0.1572,0.9385,-0.8703,-0.1278,
2.822070,-0.0166,-1.2847,-0.6410,-1.9775,1.1580,-0.1572,0.0192,-0.7062,-0.1118,
2.824065,-0.0166,-1.2847,-0.6410,-2.4838,-2.8014,-3.8411,0.0192,-0.7062,-0.1118,
2.860267,0.0462,-1.1510,-0.5394,-2.4838,-2.8014,-3.8411,0.0192,-0.7062,-0.1118,
2.861480,0.1554,-1.0193,-0.3200,-2.4838,-2.8014,-3.8411,0.0192,-0.7062,-0.1118,
2.862455,0.2082,-1.0411,-0.3046,-2.4838,-2.8014,-3.8411,0.0192,-0.7062,-0.1118,
2.863072,0.2082,-1.0411,-0.3046,-2.4838,-2.8014,-3.8411,-0.3750,-0.4772,-0.1470,
2.863617,0.2082,-1.0411,-0.3046,0.6967,-1.0919,-1.4120,-0.3750,-0.4772,-0.1470,
2.899622,0.2082,-1.0411,-0.3046,0.6967,-1.0919,-1.4120,-0.1566,-1.1419,-0.0213,
2.900288,0.2082,-1.0411,-0.3046,1.4136,0.3382,1.3916,-0.1566,-1.1419,-0.0213,
2.940660,0.2082,-1.0411,-0.3046,1.4136,0.3382,1.3916,0.1236,-1.5222,-0.0106,
2.942132,0.2082,-1.0411,-0.3046,1.5233,0.3424,1.3459,0.1236,-1.5222,-0.0106,
2.943366,0.1825,-0.9922,-0.1539,1.5233,0.3424,1.3459,0.1236,-1.5222,-0.0106,
2.944322,0.2119,-0.8630,-0.0405,1.5233,0.3424,1.3459,0.1236,-1.5222,-0.0106,
2.945327,0.2131,-0.9114,-0.1280,1.5233,0.3424,1.3459,0.1236,-1.5222,-0.0106,
2.946353,0.1916,-0.9702,-0.2545,1.5233,0.3424,1.3459,0.1236,-1.5222,-0.0106,
2.947210,0.2974,-0.8513,-0.1815,1.5233,0.3424,1.3459,0.1236,-1.5222,-0.0106,
2.979858,0.2974,-0.8513,-0.1815,1.5233,0.3424,1.3459,0.0384,-0.9363,-0.2471,
2.982116,0.2974,-0.8513,-0.1815,1.4874,0.3342,1.3190,0.0384,-0.9363,-0.2471,
3.019049,0.2974,-0.8513,-0.1815,1.4874,0.3342,1.3190,0.2482,-0.1267,-0.4548,
3.020825,0.2974,-0.8513,-0.1815,1.7778,0.5441,0.2830,0.2482,-0.1267,-0.4548,
3.022144,0.2673,-0.8811,-0.1741,1.7778,0.5441,0.2830,0.2482,-0.1267,-0.4548,
3.023258,0.1027,-1.0763,-0.2118,1.7778,0.5441,0.2830,0.2482,-0.1267,-0.4548,
3.024363,0.0802,-1.1569,-0.2904,1.7778,0.5441,0.2830,0.2482,-0.1267,-0.4548,
3.026305,0.1574,-1.0452,-0.3158,1.7778,0.5441,0.2830,0.2482,-0.1267,-0.4548,
3.058169,0.1574,-1.0452,-0.3158,1.7778,0.5441,0.2830,0.2695,-0.2109,-0.2684,
3.059663,0.1574,-1.0452,-0.3158,0.3305,-1.2934,-0.4800,0.2695,-0.2109,-0.2684,
3.098465,0.1574,-1.0452,-0.3158,0.3305,-1.2934,-0.4800,0.4421,-0.3696,0.0320,
3.100358,0.1574,-1.0452,-0.3158,0.3619,-0.7467,0.3725,0.4421,-0.3696,0.0320,
3.101325,0.1395,-0.9619,-0.2027,0.3619,-0.7467,0.3725,0.4421,-0.3696,0.0320,
3.102223,0.0939,-1.0416,-0.1062,0.3619,-0.7467,0.3725,0.4421,-0.3696,0.0320,
3.103160,0.1056,-1.1239,-0.1986,0.3619,-0.7467,0.3725,0.4421,-0.3696,0.0320,
3.103983,0.1202,-1.1066,-0.2291,0.3619,-0.7467,0.3725,0.4421,-0.3696,0.0320,
3.138944,0.1202,-1.1066,-0.2291,0.3619,-0.7467,0.3725,0.7255,-0.4708,0.1939,
3.140273,0.1202,-1.1066,-0.2291,0.4609,-0.6727,0.1099,0.7255,-0.4708,0.1939,
3.177601,0.1202,-1.1066,-0.2291,0.4609,-0.6727,0.1099,1.0472,-0.4836,0.2270,
3.179423,0.1202,-1.1066,-0.2291,0.5557,-0.4375,-0.2800,1.0472,-0.4836,0.2270,
3.180404,0.1119,-1.0167,-0.1583,0.5557,-0.4375,-0.2800,1.0472,-0.4836,0.2270,
3.181253,0.1036,-0.9566,-0.1231,0.5557,-0.4375,-0.2800,1.0472,-0.4836,0.2270,
3.181998,0.1031,-0.9304,-0.1671,0.5557,-0.4375,-0.2800,1.0472,-0.4836,0.2270,
3.182641,0.1041,-0.9329,-0.2098,0.5557,-0.4375,-0.2800,1.0472,-0.4836,0.2270,
3.216968,0.1041,-0.9329,-0.2098,0.5557,-0.4375,-0.2800,1.1590,-0.5496,0.2333,
3.218678,0.1041,-0.9329,-0.2098,0.6571,-0.3716,-0.6988,1.1590,-0.5496,0.2333,
3.257296,0.1041,-0.9329,-0.2098,0.6571,-0.3716,-0.6988,0.8490,-0.3717,0.1076,
3.258997,0.1041,-0.9329,-0.2098,0.7169,0.6648,-1.2302,0.8490,-0.3717,0.1076,
3.260241,0.1349,-0.9040,-0.2057,0.7169,0.6648,-1.2302,0.8490,-0.3717,0.1076,
3.260969,0.1584,-0.8503,-0.1851,0.7169,0.6648,-1.2302,0.8490,-0.3717,0.1076,
3.262080,0.0641,-0.8520,-0.1844,0.7169,0.6648,-1.2302,0.8490,-0.3717,0.1076,
3.262936,-0.0701,-0.9275,-0.1500,0.7169,0.6648,-1.2302,0.8490,-0.3717,0.1076,
3.297072,-0.0701,-0.9275,-0.1500,0.7169,0.6648,-1.2302,0.3473,-0.1640,0.0256,
3.298891,-0.0701,-0.9275,-0.1500,0.1084,1.1013,-1.1332,0.3473,-0.1640,0.0256,
3.336280,-0.0701,-0.9275,-0.1500,0.1084,1.1013,-1.1332,-0.1949,-0.0649,0.0853,
3.337455,-0.0701,-0.9275,-0.1500,-1.8207,-0.5163,-0.0603,-0.1949,-0.0649,0.0853,
3.338859,-0.1238,-1.0247,-0.1355,-1.8207,-0.5163,-0.0603,-0.1949,-0.0649,0.0853,
3.339697,-0.1458,-1.0655,-0.1006,-1.8207,-0.5163,-0.0603,-0.1949,-0.0649,0.0853,
3.340665,-0.1898,-1.0367,0.0216,-1.8207,-0.5163,-0.0603,-0.1949,-0.0649,0.0853,
3.341349,-0.1658,-1.0074,0.1571,-1.8207,-0.5163,-0.0603,-0.1949,-0.0649,0.0853,
3.377487,-0.1658,-1.0074,0.1571,-1.7150,-0.5152,0.0863,-0.1949,-0.0649,0.0853,
3.379863,-0.1658,-1.0074,0.1571,-1.7150,-0.5152,0.0863,-0.3920,0.2046,0.2046,
3.416815,-0.1658,-1.0074,0.1571,-1.7150,-0.5152,0.0863,-0.2077,0.6360,0.1311,
3.419021,-0.1658,-1.0074,0.1571,-1.0216,-0.2771,2.7768,-0.2077,0.6360,0.1311,
3.420502,-0.0786,-1.0042,0.2348,-1.0216,-0.2771,2.7768,-0.2077,0.6360,0.1311,
3.421758,-0.0175,-1.0423,0.2102,-1.0216,-0.2771,2.7768,-0.2077,0.6360,0.1311,
3.422993,-0.0175,-1.0496,0.1073,-1.0216,-0.2771,2.7768,-0.2077,0.6360,0.1311,
3.423794,-0.0608,-1.0098,-0.0434,-1.0216,-0.2771,2.7768,-0.2077,0.6360,0.1311,
3.454443,-0.0608,-1.0098,-0.0434,-1.0216,-0.2771,2.7768,-0.2961,1.0046,-0.0255,
3.455787,-0.0608,-1.0098,-0.0434,-1.0461,-0.2821,2.8299,-0.2961,1.0046,-0.0255,
3.493767,-0.0608,-1.0098,-0.0434,-1.0461,-0.2821,2.8299,-0.7254,1.1399,0.0778,
3.494875,-0.0608,-1.0098,-0.0434,-0.7485,-0.2810,0.8090,-0.7254,1.1399,0.0778,
3.496620,-0.0923,-0.9871,-0.1583,-0.7485,-0.2810,0.8090,-0.7254,1.1399,0.0778,
3.497050,-0.0635,-0.9788,-0.1930,-0.7485,-0.2810,0.8090,-0.7254,1.1399,0.0778,
3.497522,0.0320,-0.9544,-0.1553,-0.7485,-0.2810,0.8090,-0.7254,1.1399,0.0778,
3.497991,0.0975,-0.9368,-0.1341,-0.7485,-0.2810,0.8090,-0.7254,1.1399,0.0778,
3.533630,0.0975,-0.9368,-0.1341,-0.7485,-0.2810,0.8090,-0.9459,1.0110,0.0693,
3.534707,0.0975,-0.9368,-0.1341,-0.0001,0.2436,-0.1028,-0.9459,1.0110,0.0693,
3.573009,0.0975,-0.9368,-0.1341,-0.0001,0.2436,-0.1028,-0.7201,0.8118,-0.0106,
3.575262,0.0975,-0.9368,-0.1341,0.5184,0.6481,0.1478,-0.7201,0.8118,-0.0106,
3.576085,0.1261,-0.9162,-0.1258,0.5184,0.6481,0.1478,-0.7201,0.8118,-0.0106,
3.577078,0.0973,-0.8974,-0.1182,0.5184,0.6481,0.1478,-0.7201,0.8118,-0.0106,
3.577521,0.0213,-0.9148,-0.2423,0.5184,0.6481,0.1478,-0.7201,0.8118,-0.0106,
3.577955,-0.0083,-0.9370,-0.4184,0.5184,0.6481,0.1478,-0.7201,0.8118,-0.0106,
3.613056,-0.0083,-0.9370,-0.4184,0.5184,0.6481,0.1478,-0.4911,-0.0607,0.2280,
3.615355,-0.0083,-0.9370,-0.4184,0.5988,0.6039,0.3281,-0.4911,-0.0607,0.2280,
3.654264,-0.0083,-0.9370,-0.4184,0.5988,0.6039,0.3281,-0.5859,-0.8927,0.3250,
3.656627,-0.0083,-0.9370,-0.4184,1.0511,-0.1314,-1.8394,-0.5859,-0.8927,0.3250,
3.657823,0.0941,-0.9756,-0.4622,1.0511,-0.1314,-1.8394,-0.5859,-0.8927,0.3250,
3.658900,0.2434,-1.0276,-0.3476,1.0511,-0.1314,-1.8394,-0.5859,-0.8927,0.3250,
3.659896,0.2531,-1.0066,-0.2076,1.0511,-0.1314,-1.8394,-0.5859,-0.8927,0.3250,
3.661069,0.0719,-0.9414,-0.1385,1.0511,-0.1314,-1.8394,-0.5859,-0.8927,0.3250,
3.693135,0.0719,-0.9414,-0.1385,1.0511,-0.1314,-1.8394,-0.3398,-1.0120,-0.0042,
3.695547,0.0719,-0.9414,-0.1385,1.1199,-0.1587,-1.6837,-0.3398,-1.0120,-0.0042,
3.732858,0.0719,-0.9414,-0.1385,1.1199,-0.1587,-1.6837,-0.1086,-0.9438,-0.0628,
3.735104,0.0719,-0.9414,-0.1385,0.8397,-0.0292,0.5033,-0.1086,-0.9438,-0.0628,
3.736356,-0.0969,-0.9497,-0.2215,0.8397,-0.0292,0.5033,-0.1086,-0.9438,-0.0628,
3.737598,-0.1676,-0.9942,-0.3925,0.8397,-0.0292,0.5033,-0.1086,-0.9438,-0.0628,
3.739486,-0.1563,-1.1112,-0.5382,0.8397,-0.0292,0.5033,-0.1086,-0.9438,-0.0628,
3.740752,-0.0088,-1.0877,-0.5286,0.8397,-0.0292,0.5033,-0.1086,-0.9438,-0.0628,
3.772967,-0.0088,-1.0877,-0.5286,0.8397,-0.0292,0.5033,-0.3409,-0.4111,-0.1480,
3.774984,-0.0088,-1.0877,-0.5286,-0.9913,-1.0091,-2.2458,-0.3409,-0.4111,-0.1480,
3.812331,-0.0088,-1.0877,-0.5286,-0.9913,-1.0091,-2.2458,-0.1022,0.0948,-0.5368,
3.814619,-0.0088,-1.0877,-0.5286,-0.2276,1.5801,1.5902,-0.1022,0.0948,-0.5368,
3.816062,0.1166,-0.8979,-0.2997,-0.2276,1.5801,1.5902,-0.1022,0.0948,-0.5368,
3.816960,0.0333,-0.7511,-0.0608,-0.2276,1.5801,1.5902,-0.1022,0.0948,-0.5368,
3.817954,-0.1856,-0.7401,0.0721,-0.2276,1.5801,1.5902,-0.1022,0.0948,-0.5368,
3.819186,-0.3097,-0.7594,0.1178,-0.2276,1.5801,1.5902,-0.1022,0.0948,-0.5368,
3.852430,-0.3097,-0.7594,0.1178,-0.2276,1.5801,1.5902,0.6456,-0.1768,-0.3771,
3.854268,-0.3097,-0.7594,0.1178,-0.3455,1.6119,1.3281,0.6456,-0.1768,-0.3771,
3.891147,-0.3097,-0.7594,0.1178,-0.3455,1.6119,1.3281,1.1654,-0.4804,-0.2673,
3.893669,-0.3097,-0.7594,0.1178,-1.9153,2.4298,2.4301,1.1654,-0.4804,-0.2673,
3.894957,-0.1707,-0.7115,0.0944,-1.9153,2.4298,2.4301,1.1654,-0.4804,-0.2673,
3.896299,-0.0271,-0.6834,-0.0183,-1.9153,2.4298,2.4301,1.1654,-0.4804,-0.2673,
3.897261,0.0667,-0.6609,-0.1057,-1.9153,2.4298,2.4301,1.1654,-0.4804,-0.2673,
3.898597,0.1476,-0.7679,-0.0830,-1.9153,2.4298,2.4301,1.1654,-0.4804,-0.2673,
3.931348,0.1476,-0.7679,-0.0830,-2.0946,2.4638,1.8791,1.1654,-0.4804,-0.2673,
3.934207,0.1476,-0.7679,-0.0830,-2.0946,2.4638,1.8791,1.3774,0.0011,-0.5720,
3.971280,0.1476,-0.7679,-0.0830,-2.0946,2.4638,1.8791,1.0450,0.1343,-0.6530,
3.973777,0.1476,-0.7679,-0.0830,0.3061,1.5376,-0.2781,1.0450,0.1343,-0.6530,
3.975383,0.0917,-1.0098,-0.1575,0.3061,1.5376,-0.2781,1.0450,0.1343,-0.6530,
3.976213,-0.0994,-1.3887,-0.3390,0.3061,1.5376,-0.2781,1.0450,0.1343,-0.6530,
3.977367,-0.2152,-1.6355,-0.4873,0.3061,1.5376,-0.2781,1.0450,0.1343,-0.6530,
3.978447,-0.1216,-1.4183,-0.4402,0.3061,1.5376,-0.2781,1.0450,0.1343,-0.6530,
4.010527,-0.1216,-1.4183,-0.4402,0.3061,1.5376,-0.2781,0.1768,0.3505,-0.2428,
4.012979,-0.1216,-1.4183,-0.4402,-2.1838,-4.9260,-3.3056,0.1768,0.3505,-0.2428,
4.050653,-0.1216,-1.4183,-0.4402,-2.1838,-4.9260,-3.3056,-0.2109,0.4879,-0.2269,
4.053148,-0.1216,-1.4183,-0.4402,-0.5714,-0.6487,-1.0009,-0.2109,0.4879,-0.2269,
4.055062,0.0401,-1.0973,-0.3561,-0.5714,-0.6487,-1.0009,-0.2109,0.4879,-0.2269,
4.056180,0.0157,-1.0137,-0.1377,-0.5714,-0.6487,-1.0009,-0.2109,0.4879,-0.2269,
4.057147,0.0301,-1.0211,-0.0921,-0.5714,-0.6487,-1.0009,-0.2109,0.4879,-0.2269,
4.058627,0.0807,-1.0516,-0.2303,-0.5714,-0.6487,-1.0009,-0.2109,0.4879,-0.2269,
4.089747,0.0807,-1.0516,-0.2303,-0.6115,-0.6448,-0.9597,-0.2109,0.4879,-0.2269,
4.092399,0.0807,-1.0516,-0.2303,-0.6115,-0.6448,-0.9597,-0.0287,-0.3952,-0.1715,
4.129457,0.0807,-1.0516,-0.2303,-0.6115,-0.6448,-0.9597,-0.2173,-0.7361,-0.0330,
4.132192,0.0807,-1.0516,-0.2303,-0.6405,-0.4562,-1.3967,-0.2173,-0.7361,-0.0330,
4.133610,0.0553,-1.0372,-0.2753,-0.6405,-0.4562,-1.3967,-0.2173,-0.7361,-0.0330,
4.134824,-0.0674,-0.9849,-0.2545,-0.6405,-0.4562,-1.3967,-0.2173,-0.7361,-0.0330,
4.136248,-0.2181,-0.9099,-0.1837,-0.6405,-0.4562,-1.3967,-0.2173,-0.7361,-0.0330,
4.137233,-0.1812,-0.8752,-0.1492,-0.6405,-0.4562,-1.3967,-0.2173,-0.7361,-0.0330,
4.169351,-0.1812,-0.8752,-0.1492,-0.6405,-0.4562,-1.3967,-0.3696,-0.0276,0.2589,
4.171274,-0.1812,-0.8752,-0.1492,-0.5322,-0.4571,-1.2344,-0.3696,-0.0276,0.2589,
4.208844,-0.1812,-0.8752,-0.1492,-0.5322,-0.4571,-1.2344,-0.1108,0.2397,0.2717,
4.211749,-0.1812,-0.8752,-0.1492,-1.9421,0.6630,-0.2028,-0.1108,0.2397,0.2717,
4.213460,-0.0017,-0.9429,-0.1233,-1.9421,0.6630,-0.2028,-0.1108,0.2397,0.2717,
4.214732,0.1474,-1.0037,-0.0065,-1.9421,0.6630,-0.2028,-0.1108,0.2397,0.2717,
4.216224,0.2060,-1.0626,-0.0652,-1.9421,0.6630,-0.2028,-0.1108,0.2397,0.2717,
4.217429,0.1647,-1.1498,-0.1531,-1.9421,0.6630,-0.2028,-0.1108,0.2397,0.2717,
4.248462,0.1647,-1.1498,-0.1531,1.0668,-0.9030,0.4556,-0.1108,0.2397,0.2717,
4.251000,0.1647,-1.1498,-0.1531,1.0668,-0.9030,0.4556,0.1939,0.6616,0.1513,
4.289232,0.1647,-1.1498,-0.1531,1.0668,-0.9030,0.4556,0.2269,0.7809,0.1992,
4.291239,0.1647,-1.1498,-0.1531,0.4479,-1.4139,-0.6035,0.2269,0.7809,0.1992,
4.292947,0.1398,-1.1439,-0.1873,0.4479,-1.4139,-0.6035,0.2269,0.7809,0.1992,
4.293989,0.1075,-1.0968,-0.2093,0.4479,-1.4139,-0.6035,0.2269,0.7809,0.1992,
4.295061,0.0711,-1.1437,-0.1233,0.4479,-1.4139,-0.6035,0.2269,0.7809,0.1992,
4.296362,0.1056,-1.1256,0.0577,0.4479,-1.4139,-0.6035,0.2269,0.7809,0.1992,
4.327275,0.1056,-1.1256,0.0577,0.4479,-1.4139,-0.6035,0.4794,0.7095,0.4230,
4.329513,0.1056,-1.1256,0.0577,0.5719,-1.3630,-0.7887,0.4794,0.7095,0.4230,
4.367546,0.1056,-1.1256,0.0577,0.5719,-1.3630,-0.7887,0.8853,0.4485,0.5860,
4.370013,0.1056,-1.1256,0.0577,1.8012,-0.4669,0.7379,0.8853,0.4485,0.5860,
4.371325,0.1977,-1.0086,0.1151,1.8012,-0.4669,0.7379,0.8853,0.4485,0.5860,
4.372745,0.3360,-0.9888,-0.1153,1.8012,-0.4669,0.7379,0.8853,0.4485,0.5860,
4.373885,0.2778,-1.0902,-0.3381,1.8012,-0.4669,0.7379,0.8853,0.4485,0.5860,
4.375017,0.1647,-1.0826,-0.1653,1.8012,-0.4669,0.7379,0.8853,0.4485,0.5860,
4.407057,0.1647,-1.0826,-0.1653,1.8012,-0.4669,0.7379,0.7351,0.0821,0.5774,
4.409083,0.1647,-1.0826,-0.1653,1.9888,-0.4435,0.4456,0.7351,0.0821,0.5774,
4.446998,0.1647,-1.0826,-0.1653,1.9888,-0.4435,0.4456,0.7106,0.0927,0.5242,
4.448930,0.1647,-1.0826,-0.1653,2.0408,-0.4179,-1.6314,0.7106,0.0927,0.5242,
4.450572,0.1613,-0.9456,0.0008,2.0408,-0.4179,-1.6314,0.7106,0.0927,0.5242,
4.451703,0.2412,-0.8200,0.0174,2.0408,-0.4179,-1.6314,0.7106,0.0927,0.5242,
4.452996,0.1992,-0.8571,-0.0476,2.0408,-0.4179,-1.6314,0.7106,0.0927,0.5242,
4.453983,0.0548,-0.9358,-0.0505,2.0408,-0.4179,-1.6314,0.7106,0.0927,0.5242,
4.485124,0.0548,-0.9358,-0.0505,2.0408,-0.4179,-1.6314,0.6168,0.0182,0.3825,
4.487893,0.0548,-0.9358,-0.0505,1.8031,1.2080,-0.4836,0.6168,0.0182,0.3825,
4.525915,0.0548,-0.9358,-0.0505,1.8031,1.2080,-0.4836,0.3867,0.3420,0.3409,
4.528793,0.0548,-0.9358,-0.0505,0.7067,0.1897,0.4320,0.3867,0.3420,0.3409,
4.530316,0.0113,-0.9719,0.0538,0.7067,0.1897,0.4320,0.3867,0.3420,0.3409,
4.531233,0.0325,-1.0010,0.1244,0.7067,0.1897,0.4320,0.3867,0.3420,0.3409,
4.532936,0.0777,-0.9482,0.0682,0.7067,0.1897,0.4320,0.3867,0.3420,0.3409,
4.533859,0.0983,-0.8735,0.0037,0.7067,0.1897,0.4320,0.3867,0.3420,0.3409,
4.565208,0.0983,-0.8735,0.0037,0.7067,0.1897,0.4320,0.0341,0.3516,0.2632,
4.567447,0.0983,-0.8735,0.0037,0.8001,0.1823,0.4169,0.0341,0.3516,0.2632,
4.603715,0.0983,-0.8735,0.0037,0.8001,0.1823,0.4169,-0.2386,-0.0639,0.0309,
4.604711,0.0983,-0.8735,0.0037,1.4098,0.2283,-0.0233,-0.2386,-0.0639,0.0309,
4.605644,0.0983,-0.9605,0.0294,1.4098,0.2283,-0.0233,-0.2386,-0.0639,0.0309,
4.606114,0.1156,-1.0728,0.0506,1.4098,0.2283,-0.0233,-0.2386,-0.0639,0.0309,
4.606752,0.0899,-1.1009,-0.0087,1.4098,0.2283,-0.0233,-0.2386,-0.0639,0.0309,
4.607473,-0.0017,-1.0633,-0.0784,1.4098,0.2283,-0.0233,-0.2386,-0.0639,0.0309,
4.643540,-0.0017,-1.0633,-0.0784,1.4098,0.2283,-0.0233,-0.6200,0.0000,-0.2428,
4.644788,-0.0017,-1.0633,-0.0784,1.2942,0.2320,0.2122,-0.6200,0.0000,-0.2428,
4.683150,-0.0017,-1.0633,-0.0784,1.2942,0.2320,0.2122,-1.3369,0.4016,-0.2226,
4.684263,-0.0017,-1.0633,-0.0784,0.1419,-0.4872,-0.3126,-1.3369,0.4016,-0.2226,
4.684893,-0.1009,-0.9627,-0.1502,0.1419,-0.4872,-0.3126,-1.3369,0.4016,-0.2226,
4.685455,-0.1453,-0.8730,-0.2079,0.1419,-0.4872,-0.3126,-1.3369,0.4016,-0.2226,
4.685823,-0.1429,-0.8215,-0.1983,0.1419,-0.4872,-0.3126,-1.3369,0.4016,-0.2226,
4.686182,-0.0691,-0.8014,-0.1741,0.1419,-0.4872,-0.3126,-1.3369,0.4016,-0.2226,
4.724332,-0.0691,-0.8014,-0.1741,0.1419,-0.4872,-0.3126,-1.9878,0.4368,-0.1555,
4.725445,-0.0691,-0.8014,-0.1741,-1.0406,1.4833,-0.6558,-1.9878,0.4368,-0.1555,
4.763066,0.0587,-0.8207,-0.1969,-1.0406,1.4833,-0.6558,-1.9878,0.4368,-0.1555,
4.764997,0.1051,-0.9016,-0.2450,-1.0406,1.4833,-0.6558,-1.9878,0.4368,-0.1555,
4.766318,0.0262,-1.0599,-0.3329,-1.0406,1.4833,-0.6558,-1.9878,0.4368,-0.1555,
4.767272,0.0262,-1.0599,-0.3329,-1.0406,1.4833,-0.6558,-2.0783,0.4261,-0.4207,
4.768394,0.0262,-1.0599,-0.3329,0.5506,0.4068,-0.4931,-2.0783,0.4261,-0.4207,
4.802553,0.0262,-1.0599,-0.3329,0.5506,0.4068,-0.4931,-1.7694,0.7063,-0.6444,
4.804513,0.0262,-1.0599,-0.3329,-1.5479,-2.6583,-0.6916,-1.7694,0.7063,-0.6444,
4.842611,0.0262,-1.0599,-0.3329,-1.5479,-2.6583,-0.6916,-1.3720,0.5572,-0.4356,
4.844638,-0.0496,-1.2285,-0.4131,-1.5479,-2.6583,-0.6916,-1.3720,0.5572,-0.4356,
4.845992,-0.1544,-1.2656,-0.4148,-1.5479,-2.6583,-0.6916,-1.3720,0.5572,-0.4356,
4.847150,-0.1624,-1.1877,-0.2115,-1.5479,-2.6583,-0.6916,-1.3720,0.5572,-0.4356,
4.848117,-0.0505,-1.1701,-0.0940,-1.5479,-2.6583,-0.6916,-1.3720,0.5572,-0.4356,
4.849278,0.0899,-1.1579,-0.1241,-1.5479,-2.6583,-0.6916,-1.3720,0.5572,-0.4356,
4.850244,0.0899,-1.1579,-0.1241,-1.7438,-2.7796,-0.1938,-1.3720,0.5572,-0.4356,
4.881571,0.0899,-1.1579,-0.1241,-1.7438,-2.7796,-0.1938,-0.4389,-0.1629,-0.2918,
4.883537,0.0899,-1.1579,-0.1241,-1.7981,-2.7962,-0.0289,-0.4389,-0.1629,-0.2918,
4.921740,0.0899,-1.1579,-0.1241,-1.7981,-2.7962,-0.0289,0.1332,-0.4900,-0.3483,
4.924778,0.0899,-1.1579,-0.1241,-0.0980,-1.9953,1.6953,0.1332,-0.4900,-0.3483,
4.926221,0.1332,-1.1217,-0.2736,-0.0980,-1.9953,1.6953,0.1332,-0.4900,-0.3483,
4.927211,0.1388,-1.0983,-0.4397,-0.0980,-1.9953,1.6953,0.1332,-0.4900,-0.3483,
4.928178,0.1205,-1.0724,-0.3945,-0.0980,-1.9953,1.6953,0.1332,-0.4900,-0.3483,
4.929510,0.0186,-0.9996,-0.3295,-0.0980,-1.9953,1.6953,0.1332,-0.4900,-0.3483,
4.961045,0.0186,-0.9996,-0.3295,-0.0980,-1.9953,1.6953,0.1545,-0.1576,-0.4804,
4.962910,0.0186,-0.9996,-0.3295,0.0884,-1.0583,-0.5434,0.1545,-0.1576,-0.4804,
5.000735,0.0186,-0.9996,-0.3295,0.0884,-1.0583,-0.5434,0.1843,0.2877,-0.4538,
5.002910,0.0186,-0.9996,-0.3295,-3.0564,2.6319,0.9806,0.1843,0.2877,-0.4538,
5.004271,-0.1663,-0.8557,-0.2719,-3.0564,2.6319,0.9806,0.1843,0.2877,-0.4538,
5.005503,-0.2570,-0.6778,-0.2166,-3.0564,2.6319,0.9806,0.1843,0.2877,-0.4538,
5.006738,-0.2149,-0.4955,-0.1795,-3.0564,2.6319,0.9806,0.1843,0.2877,-0.4538,
5.007983,-0.0916,-0.3863,-0.1438,-3.0564,2.6319,0.9806,0.1843,0.2877,-0.4538,
5.040648,-0.0916,-0.3863,-0.1438,-3.0564,2.6319,0.9806,0.4528,0.4613,-0.3621,
5.042665,-0.0916,-0.3863,-0.1438,-3.1916,2.6272,0.7812,0.4528,0.4613,-0.3621,
5.067647,0.0521,-0.3810,-0.1793,-3.1916,2.6272,0.7812,0.4528,0.4613,-0.3621,
5.070141,0.2006,-0.5378,-0.3261,-3.1916,2.6272,0.7812,0.4528,0.4613,-0.3621,
5.071303,0.2768,-0.8542,-0.6180,-3.1916,2.6272,0.7812,0.4528,0.4613,-0.3621,
5.082471,0.2768,-0.8542,-0.6180,-0.8448,4.9305,0.6386,0.4528,0.4613,-0.3621,
5.084682,0.2768,-0.8542,-0.6180,-0.8448,4.9305,0.6386,0.4165,0.8118,-0.5081,
5.119592,0.2768,-0.8542,-0.6180,-0.8448,4.9305,0.6386,0.2717,0.9716,-0.5060,
5.121439,0.2768,-0.8542,-0.6180,-0.8026,-2.6546,-1.7360,0.2717,0.9716,-0.5060,
5.151453,0.0768,-1.2412,-0.5399,-0.8026,-2.6546,-1.7360,0.2717,0.9716,-0.5060,
5.153718,-0.0957,-1.5451,-0.1790,-0.8026,-2.6546,-1.7360,0.2717,0.9716,-0.5060,
5.154862,-0.3049,-1.5544,-0.5338,-0.8026,-2.6546,-1.7360,0.2717,0.9716,-0.5060,
5.156388,-0.1101,-1.2832,-0.3982,-0.8026,-2.6546,-1.7360,0.2717,0.9716,-0.5060,
5.160951,-0.1101,-1.2832,-0.3982,-0.7625,-2.5374,-1.9601,0.2717,0.9716,-0.5060,
5.163022,-0.1101,-1.2832,-0.3982,-0.7625,-2.5374,-1.9601,0.6509,0.2728,0.1492,
5.198202,-0.1101,-1.2832,-0.3982,-0.7625,-2.5374,-1.9601,0.6094,0.4453,0.3526,
5.199504,-0.1101,-1.2832,-0.3982,-2.3277,-3.3126,-1.2914,0.6094,0.4453,0.3526,
5.237737,-0.1101,-1.2832,-0.3982,-2.3277,-3.3126,-1.2914,0.7809,0.0778,0.1098,
5.239575,-0.1101,-1.2832,-0.3982,-2.2547,-3.1896,-1.5643,0.7809,0.0778,0.1098,
5.240983,0.1537,-1.0809,-0.1292,-2.2547,-3.1896,-1.5643,0.7809,0.0778,0.1098,
5.242207,0.1901,-1.0191,-0.1377,-2.2547,-3.1896,-1.5643,0.7809,0.0778,0.1098,
5.243292,0.1056,-0.9353,-0.2020,-2.2547,-3.1896,-1.5643,0.7809,0.0778,0.1098,
5.244444,-0.0315,-0.9116,-0.3290,-2.2547,-3.1896,-1.5643,0.7809,0.0778,0.1098,
5.245321,-0.1189,-0.9619,-0.3464,-2.2547,-3.1896,-1.5643,0.7809,0.0778,0.1098,
5.277888,-0.1189,-0.9619,-0.3464,-2.2547,-3.1896,-1.5643,0.4709,-0.1086,0.2003,
5.279778,-0.1189,-0.9619,-0.3464,-0.4464,0.2883,-0.4489,0.4709,-0.1086,0.2003,
5.317398,-0.1189,-0.9619,-0.3464,-0.4464,0.2883,-0.4489,0.1747,0.2909,0.5582,
5.319247,-0.1189,-0.9619,-0.3464,-1.4474,0.7617,-0.7139,0.1747,0.2909,0.5582,
5.320458,-0.0547,-0.9460,-0.2562,-1.4474,0.7617,-0.7139,0.1747,0.2909,0.5582,
5.322099,0.0643,-0.8210,-0.1263,-1.4474,0.7617,-0.7139,0.1747,0.2909,0.5582,
5.323267,0.1618,-0.7596,0.0377,-1.4474,0.7617,-0.7139,0.1747,0.2909,0.5582,
5.324304,0.3020,-0.8535,0.0379,-1.4474,0.7617,-0.7139,0.1747,0.2909,0.5582,
5.357013,0.3020,-0.8535,0.0379,-1.4474,0.7617,-0.7139,0.2408,0.2206,0.4166,
5.360315,0.3020,-0.8535,0.0379,-1.2799,0.7806,-0.8017,0.2408,0.2206,0.4166,
5.396670,0.4579,-1.0531,-0.0713,-1.2799,0.7806,-0.8017,0.2408,0.2206,0.4166,
5.398626,0.5209,-1.1459,-0.1377,-1.2799,0.7806,-0.8017,0.2408,0.2206,0.4166,
5.399643,0.4183,-1.1285,-0.1778,-1.2799,0.7806,-0.8017,0.2408,0.2206,0.4166,
5.400752,0.4183,-1.1285,-0.1778,-1.2799,0.7806,-0.8017,0.3793,0.3825,-0.0948,
5.401640,0.4183,-1.1285,-0.1778,1.9949,0.9879,1.4093,0.3793,0.3825,-0.0948,
5.438022,0.4183,-1.1285,-0.1778,1.9949,0.9879,1.4093,0.3793,-0.0223,-0.1491,
5.439949,0.4183,-1.1285,-0.1778,2.6753,-1.3427,-0.4832,0.3793,-0.0223,-0.1491,
5.476866,0.4183,-1.1285,-0.1778,2.6753,-1.3427,-0.4832,0.3665,-0.1320,0.2312,
5.479088,0.2219,-1.1163,-0.2176,2.6753,-1.3427,-0.4832,0.3665,-0.1320,0.2312,
5.480596,0.0812,-1.1046,-0.1241,2.6753,-1.3427,-0.4832,0.3665,-0.1320,0.2312,
5.481700,0.0191,-1.0816,0.0457,2.6753,-1.3427,-0.4832,0.3665,-0.1320,0.2312,
5.482949,0.0391,-1.0826,0.0277,2.6753,-1.3427,-0.4832,0.3665,-0.1320,0.2312,
5.484059,0.0611,-1.1527,-0.0833,2.6753,-1.3427,-0.4832,0.3665,-0.1320,0.2312,
5.485242,0.0611,-1.1527,-0.0833,2.7247,-1.2937,-0.6088,0.3665,-0.1320,0.2312,
5.515879,0.0611,-1.1527,-0.0833,2.7247,-1.2937,-0.6088,0.3846,0.0906,0.6104,
5.517899,0.0611,-1.1527,-0.0833,-0.3732,-0.8421,0.8012,0.3846,0.0906,0.6104,
5.555361,0.0611,-1.1527,-0.0833,-0.3732,-0.8421,0.8012,0.0959,0.2131,1.0419,
5.557228,0.0611,-1.1527,-0.0833,-0.2798,-1.2847,-0.7028,0.0959,0.2131,1.0419,
5.558408,0.0171,-1.1835,-0.1619,-0.2798,-1.2847,-0.7028,0.0959,0.2131,1.0419,
5.560380,-0.0339,-1.0838,-0.2565,-0.2798,-1.2847,-0.7028,0.0959,0.2131,1.0419,
5.561669,0.0746,-0.9353,-0.1094,-0.2798,-1.2847,-0.7028,0.0959,0.2131,1.0419,
5.562601,0.2522,-0.8454,0.0829,-0.2798,-1.2847,-0.7028,0.0959,0.2131,1.0419,
5.594418,0.2522,-0.8454,0.0829,-0.2798,-1.2847,-0.7028,-0.0330,0.2088,1.0909,
5.595844,0.2522,-0.8454,0.0829,0.1377,-1.2554,-0.6802,-0.0330,0.2088,1.0909,
5.633978,0.3499,-0.8547,0.0926,0.1377,-1.2554,-0.6802,-0.0330,0.2088,1.0909,
5.635502,0.3128,-0.9043,0.0096,0.1377,-1.2554,-0.6802,-0.0330,0.2088,1.0909,
5.636138,0.2172,-0.8469,-0.0488,0.1377,-1.2554,-0.6802,-0.0330,0.2088,1.0909,
5.636670,0.2172,-0.8469,-0.0488,0.1377,-1.2554,-0.6802,-0.1427,0.3921,0.6381,
5.637339,0.2172,-0.8469,-0.0488,2.3979,1.2779,1.2122,-0.1427,0.3921,0.6381,
5.674027,0.2172,-0.8469,-0.0488,2.3979,1.2779,1.2122,-0.3984,0.1194,0.2312,
5.675013,0.2172,-0.8469,-0.0488,2.5230,1.6043,0.9125,-0.3984,0.1194,0.2312,
5.714477,0.2172,-0.8469,-0.0488,2.5230,1.6043,0.9125,-0.5124,-0.0980,-0.2844,
5.716508,0.2172,-0.8469,-0.0488,2.3769,1.5549,1.0928,-0.5124,-0.0980,-0.2844,
5.717797,0.1718,-0.7701,-0.0298,2.3769,1.5549,1.0928,-0.5124,-0.0980,-0.2844,
5.718927,0.1935,-0.7557,0.0194,2.3769,1.5549,1.0928,-0.5124,-0.0980,-0.2844,
5.720030,0.1613,-0.7315,0.0580,2.3769,1.5549,1.0928,-0.5124,-0.0980,-0.2844,
5.721006,0.0418,-0.7132,0.0142,2.3769,1.5549,1.0928,-0.5124,-0.0980,-0.2844,
5.722213,-0.0725,-0.7235,-0.0554,2.3769,1.5549,1.0928,-0.5124,-0.0980,-0.2844,
5.753984,-0.0725,-0.7235,-0.0554,2.3769,1.5549,1.0928,-0.6754,-0.0468,-0.4910,
5.756228,-0.0725,-0.7235,-0.0554,1.1727,2.5210,1.8474,-0.6754,-0.0468,-0.4910,
5.790828,-0.1377,-0.7530,-0.0493,1.1727,2.5210,1.8474,-0.6754,-0.0468,-0.4910,
5.793317,-0.1825,-0.8261,-0.0600,1.1727,2.5210,1.8474,-0.6754,-0.0468,-0.4910,
5.794742,-0.2682,-1.0311,-0.1656,1.1727,2.5210,1.8474,-0.6754,-0.0468,-0.4910,
5.795991,-0.2682,-1.0311,-0.1656,1.1727,2.5210,1.8474,-0.7222,0.2802,-0.2801,
5.796999,-0.2682,-1.0311,-0.1656,-1.5069,2.1015,1.2638,-0.7222,0.2802,-0.2801,
5.833831,-0.2682,-1.0311,-0.1656,-1.5069,2.1015,1.2638,-0.6157,0.4048,-0.0053,
5.836368,-0.2682,-1.0311,-0.1656,-2.1601,-2.7760,-0.8209,-0.6157,0.4048,-0.0053,
5.873062,-0.2682,-1.0311,-0.1656,-2.1601,-2.7760,-0.8209,-0.6999,0.2365,-0.2109,
5.874515,-0.2682,-1.0311,-0.1656,-2.2228,-2.7914,-0.5479,-0.6999,0.2365,-0.2109,
5.875550,-0.2548,-1.3088,-0.3241,-2.2228,-2.7914,-0.5479,-0.6999,0.2365,-0.2109,
5.876424,-0.0708,-1.4559,-0.3879,-2.2228,-2.7914,-0.5479,-0.6999,0.2365,-0.2109,
5.877199,0.0443,-1.4017,-0.4553,-2.2228,-2.7914,-0.5479,-0.6999,0.2365,-0.2109,
5.877926,-0.0334,-1.3330,-0.5990,-2.2228,-2.7914,-0.5479,-0.6999,0.2365,-0.2109,
5.878728,-0.1490,-1.3343,-0.7312,-2.2228,-2.7914,-0.5479,-0.6999,0.2365,-0.2109,
5.911418,-0.1490,-1.3343,-0.7312,-2.2228,-2.7914,-0.5479,-1.0194,-0.3579,-0.2982,
5.912813,-0.1490,-1.3343,-0.7312,-0.7976,-3.7260,-3.0705,-1.0194,-0.3579,-0.2982,
5.951068,-0.1490,-1.3343,-0.7312,-0.7976,-3.7260,-3.0705,-1.3113,-0.5368,-0.0276,
5.952963,-0.1490,-1.3343,-0.7312,-2.1410,-2.4801,-1.7249,-1.3113,-0.5368,-0.0276,
5.954243,-0.1724,-1.3167,-0.7033,-2.1410,-2.4801,-1.7249,-1.3113,-0.5368,-0.0276,
5.955562,-0.2171,-1.2571,-0.5213,-2.1410,-2.4801,-1.7249,-1.3113,-0.5368,-0.0276,
5.956670,-0.1873,-1.0787,-0.3110,-2.1410,-2.4801,-1.7249,-1.3113,-0.5368,-0.0276,
5.957605,-0.0715,-0.8889,-0.0994,-2.1410,-2.4801,-1.7249,-1.3113,-0.5368,-0.0276,
5.991026,-0.0715,-0.8889,-0.0994,-2.1410,-2.4801,-1.7249,-0.9289,-0.2024,0.0054,
5.993065,-0.0715,-0.8889,-0.0994,-2.0763,-2.5642,-1.3543,-0.9289,-0.2024,0.0054,
6.030923,-0.0715,-0.8889,-0.0994,-2.0763,-2.5642,-1.3543,-0.0564,0.1811,-0.1928,
6.032427,-0.0715,-0.8889,-0.0994,-1.4019,1.6326,3.4789,-0.0564,0.1811,-0.1928,
6.033396,-0.0662,-0.7526,0.0545,-1.4019,1.6326,3.4789,-0.0564,0.1811,-0.1928,
6.034094,-0.2101,-0.7147,0.0010,-1.4019,1.6326,3.4789,-0.0564,0.1811,-0.1928,
6.034749,-0.2689,-0.7274,-0.1226,-1.4019,1.6326,3.4789,-0.0564,0.1811,-0.1928,
6.035627,-0.2484,-0.6915,-0.1492,-1.4019,1.6326,3.4789,-0.0564,0.1811,-0.1928,
6.071166,-0.2484,-0.6915,-0.1492,-1.4019,1.6326,3.4789,0.3303,-0.0010,-0.0905,
6.072941,-0.2484,-0.6915,-0.1492,-1.4114,1.6502,3.3006,0.3303,-0.0010,-0.0905,
6.110906,-0.2484,-0.6915,-0.1492,-2.5086,2.8368,2.0280,0.3303,-0.0010,-0.0905,
6.113467,-0.2484,-0.6915,-0.1492,-2.5086,2.8368,2.0280,0.4922,0.0938,0.0118,
6.114379,-0.1768,-0.5793,-0.0947,-2.5086,2.8368,2.0280,0.4922,0.0938,0.0118,
6.115496,-0.1421,-0.4816,-0.1639,-2.5086,2.8368,2.0280,0.4922,0.0938,0.0118,
6.116606,-0.1558,-0.4657,-0.4321,-2.5086,2.8368,2.0280,0.4922,0.0938,0.0118,
6.117953,-0.0923,-0.6089,-0.4737,-2.5086,2.8368,2.0280,0.4922,0.0938,0.0118,
6.149694,-0.0923,-0.6089,-0.4737,-2.5086,2.8368,2.0280,0.4858,0.3739,0.0842,
6.151511,-0.0923,-0.6089,-0.4737,-1.5052,4.2693,-0.4459,0.4858,0.3739,0.0842,
6.189816,0.0995,-0.9092,-0.1842,-1.5052,4.2693,-0.4459,0.4858,0.3739,0.0842,
6.192124,0.1591,-1.2114,-0.1407,-1.5052,4.2693,-0.4459,0.4858,0.3739,0.0842,
6.193770,-0.0444,-1.5001,-0.5599,-1.5052,4.2693,-0.4459,0.4858,0.3739,0.0842,
6.195342,-0.0444,-1.5001,-0.5599,-1.5052,4.2693,-0.4459,0.8213,0.2866,-0.1203,
6.196771,-0.0444,-1.5001,-0.5599,0.3847,-2.3418,-0.1483,0.8213,0.2866,-0.1203,
6.229385,-0.0444,-1.5001,-0.5599,0.3847,-2.3418,-0.1483,0.1928,-0.0298,-0.3089,
6.231097,-0.0444,-1.5001,-0.5599,-0.2808,-3.0670,-2.6949,0.1928,-0.0298,-0.3089,
6.268810,-0.0444,-1.5001,-0.5599,-0.2808,-3.0670,-2.6949,0.1374,0.1204,-0.3419,
6.270746,-0.0444,-1.5001,-0.5599,-0.4161,-3.0080,-2.7036,0.1374,0.1204,-0.3419,
6.273742,-0.0053,-1.5732,-0.6750,-0.4161,-3.0080,-2.7036,0.1374,0.1204,-0.3419,
6.275050,0.0215,-1.2759,-0.5997,-0.4161,-3.0080,-2.7036,0.1374,0.1204,-0.3419,
6.276434,0.0274,-1.0145,-0.3816,-0.4161,-3.0080,-2.7036,0.1374,0.1204,-0.3419,
6.277251,0.0340,-0.9314,-0.2115,-0.4161,-3.0080,-2.7036,0.1374,0.1204,-0.3419,
6.278256,0.0404,-0.9189,-0.1854,-0.4161,-3.0080,-2.7036,0.1374,0.1204,-0.3419,
6.307902,0.0404,-0.9189,-0.1854,-0.4161,-3.0080,-2.7036,0.4261,-0.7318,-0.2354,
6.309294,0.0404,-0.9189,-0.1854,-0.4226,-2.9194,-2.8021,0.4261,-0.7318,-0.2354,
6.348095,0.0404,-0.9189,-0.1854,-0.4226,-2.9194,-2.8021,0.1992,-1.4679,-0.1619,
6.350115,0.0404,-0.9189,-0.1854,-0.1458,0.7017,0.4914,0.1992,-1.4679,-0.1619,
6.351042,0.0264,-0.9062,-0.2345,-0.1458,0.7017,0.4914,0.1992,-1.4679,-0.1619,
6.351879,-0.0046,-0.9082,-0.2748,-0.1458,0.7017,0.4914,0.1992,-1.4679,-0.1619,
6.352729,0.0658,-0.9583,-0.2892,-0.1458,0.7017,0.4914,0.1992,-1.4679,-0.1619,
6.353544,0.1845,-0.9903,-0.3210,-0.1458,0.7017,0.4914,0.1992,-1.4679,-0.1619,
6.387114,0.1845,-0.9903,-0.3210,-0.1458,0.7017,0.4914,-0.0788,-1.3347,-0.2556,
6.388442,0.1845,-0.9903,-0.3210,0.3591,0.3558,-0.2781,-0.0788,-1.3347,-0.2556,
6.428102,0.1845,-0.9903,-0.3210,1.5244,0.3256,0.7589,-0.0788,-1.3347,-0.2556,
6.430166,0.1845,-0.9903,-0.3210,1.5244,0.3256,0.7589,0.2003,-1.2240,-0.3493,
6.430768,0.2593,-0.9192,-0.2010,1.5244,0.3256,0.7589,0.2003,-1.2240,-0.3493,
6.431336,0.2297,-0.9035,-0.1370,1.5244,0.3256,0.7589,0.2003,-1.2240,-0.3493,
6.432387,0.1239,-1.0460,-0.2086,1.5244,0.3256,0.7589,0.2003,-1.2240,-0.3493,
6.432842,0.1625,-1.0738,-0.1585,1.5244,0.3256,0.7589,0.2003,-1.2240,-0.3493,
6.466063,0.1625,-1.0738,-0.1585,1.5244,0.3256,0.7589,0.3047,-1.2975,-0.1651,
6.467124,0.1625,-1.0738,-0.1585,1.5630,0.3469,0.6538,0.3047,-1.2975,-0.1651,
6.506385,0.1625,-1.0738,-0.1585,1.5630,0.3469,0.6538,0.2461,-0.4879,-0.1043,
6.508620,0.1625,-1.0738,-0.1585,0.8455,-0.7324,0.0336,0.2461,-0.4879,-0.1043,
6.509982,0.1916,-1.0413,-0.1763,0.8455,-0.7324,0.0336,0.2461,-0.4879,-0.1043,
6.510815,0.0416,-1.0943,-0.3750,0.8455,-0.7324,0.0336,0.2461,-0.4879,-0.1043,
6.511718,-0.0537,-1.0992,-0.2667,0.8455,-0.7324,0.0336,0.2461,-0.4879,-0.1043,
6.512927,0.0120,-1.0831,-0.1512,0.8455,-0.7324,0.0336,0.2461,-0.4879,-0.1043,
6.545908,0.0120,-1.0831,-0.1512,0.8455,-0.7324,0.0336,0.3888,0.1620,0.1002,
6.548941,0.0120,-1.0831,-0.1512,0.8555,-0.6840,-0.1178,0.3888,0.1620,0.1002,
6.585381,0.0120,-1.0831,-0.1512,0.8555,-0.6840,-0.1178,0.8256,0.1460,0.3942,
6.586524,0.0120,-1.0831,-0.1512,-0.2953,-0.7599,0.0810,0.8256,0.1460,0.3942,
6.587382,0.0401,-1.0765,-0.1314,-0.2953,-0.7599,0.0810,0.8256,0.1460,0.3942,
6.587962,0.1410,-1.0511,-0.1673,-0.2953,-0.7599,0.0810,0.8256,0.1460,0.3942,
6.588620,0.2622,-1.0235,-0.2259,-0.2953,-0.7599,0.0810,0.8256,0.1460,0.3942,
6.589301,0.2959,-0.9783,-0.2640,-0.2953,-0.7599,0.0810,0.8256,0.1460,0.3942,
6.625492,0.2959,-0.9783,-0.2640,-0.2953,-0.7599,0.0810,0.9854,-0.3802,0.4219,
6.627513,0.2959,-0.9783,-0.2640,2.1477,-0.0178,-0.6454,0.9854,-0.3802,0.4219,
6.665964,0.2959,-0.9783,-0.2640,2.1477,-0.0178,-0.6454,1.0706,-0.6242,0.1471,
6.667840,0.2959,-0.9783,-0.2640,2.7315,1.5797,-0.4393,1.0706,-0.6242,0.1471,
6.669174,0.3494,-0.8930,-0.1517,2.7315,1.5797,-0.4393,1.0706,-0.6242,0.1471,
6.670409,0.3330,-0.8478,-0.1219,2.7315,1.5797,-0.4393,1.0706,-0.6242,0.1471,
6.671482,0.1821,-0.8317,-0.1939,2.7315,1.5797,-0.4393,1.0706,-0.6242,0.1471,
6.672606,0.0203,-0.8381,-0.2252,2.7315,1.5797,-0.4393,1.0706,-0.6242,0.1471,
6.704908,0.0203,-0.8381,-0.2252,2.7315,1.5797,-0.4393,0.7777,-0.4388,0.0299,
6.707427,0.0203,-0.8381,-0.2252,2.7136,1.5818,-0.7338,0.7777,-0.4388,0.0299,
6.743565,0.0203,-0.8381,-0.2252,2.7136,1.5818,-0.7338,0.1300,-0.3195,0.1790,
6.745745,0.0203,-0.8381,-0.2252,-1.2769,0.9650,-1.5889,0.1300,-0.3195,0.1790,
6.746669,-0.1583,-0.9177,-0.2963,-1.2769,0.9650,-1.5889,0.1300,-0.3195,0.1790,
6.747329,-0.2504,-1.0020,-0.2005,-1.2769,0.9650,-1.5889,0.1300,-0.3195,0.1790,
6.747808,-0.2198,-1.0252,-0.0361,-1.2769,0.9650,-1.5889,0.1300,-0.3195,0.1790,
6.748459,-0.1431,-1.0328,0.1051,-1.2769,0.9650,-1.5889,0.1300,-0.3195,0.1790,
6.783927,-0.1431,-1.0328,0.1051,-1.2769,0.9650,-1.5889,-0.3025,-0.0032,0.2589,
6.784792,-0.1431,-1.0328,0.1051,-1.1551,0.9387,-1.4448,-0.3025,-0.0032,0.2589,
6.823615,-0.1431,-1.0328,0.1051,-1.1551,0.9387,-1.4448,-0.4293,0.4773,0.0778,
6.824928,-0.1431,-1.0328,0.1051,-1.3222,-0.2830,1.7802,-0.4293,0.4773,0.0778,
6.825857,-0.0869,-1.0699,0.1530,-1.3222,-0.2830,1.7802,-0.4293,0.4773,0.0778,
6.826590,-0.0141,-1.0648,0.1078,-1.3222,-0.2830,1.7802,-0.4293,0.4773,0.0778,
6.827208,0.0711,-1.0369,0.1239,-1.3222,-0.2830,1.7802,-0.4293,0.4773,0.0778,
6.827831,0.0616,-0.9693,0.1141,-1.3222,-0.2830,1.7802,-0.4293,0.4773,0.0778,
6.862771,0.0616,-0.9693,0.1141,-1.3222,-0.2830,1.7802,-0.4048,0.9694,-0.1853,
6.864621,0.0616,-0.9693,0.1141,0.4110,-0.1127,2.3086,-0.4048,0.9694,-0.1853,
6.903373,0.0616,-0.9693,0.1141,0.4110,-0.1127,2.3086,-0.5742,0.9652,-0.0522,
6.905064,0.0616,-0.9693,0.1141,-0.3361,0.3068,-0.3472,-0.5742,0.9652,-0.0522,
6.906370,-0.0222,-0.9492,-0.0544,-0.3361,0.3068,-0.3472,-0.5742,0.9652,-0.0522,
6.907007,-0.0571,-0.9854,-0.2188,-0.3361,0.3068,-0.3472,-0.5742,0.9652,-0.0522,
6.907753,-0.0112,-0.9974,-0.2645,-0.3361,0.3068,-0.3472,-0.5742,0.9652,-0.0522,
6.908635,0.0753,-0.9727,-0.2225,-0.3361,0.3068,-0.3472,-0.5742,0.9652,-0.0522,
6.941991,0.0753,-0.9727,-0.2225,-0.3361,0.3068,-0.3472,-1.0205,0.5092,0.0906,
6.943283,0.0753,-0.9727,-0.2225,-0.3268,0.2378,0.0496,-1.0205,0.5092,0.0906,
6.983391,0.0753,-0.9727,-0.2225,-0.3268,0.2378,0.0496,-1.1888,0.2749,-0.1800,
6.984930,0.1779,-0.9329,-0.1715,-0.3268,0.2378,0.0496,-1.1888,0.2749,-0.1800,
6.985933,0.2444,-0.8955,-0.1336,-0.3268,0.2378,0.0496,-1.1888,0.2749,-0.1800,
6.986814,0.2126,-0.8542,-0.1744,-0.3268,0.2378,0.0496,-1.1888,0.2749,-0.1800,
6.987505,0.0628,-0.8092,-0.2433,-0.3268,0.2378,0.0496,-1.1888,0.2749,-0.1800,
6.988276,0.0628,-0.8092,-0.2433,1.4777,0.5596,0.5338,-1.1888,0.2749,-0.1800,
7.021106,0.0628,-0.8092,-0.2433,1.4777,0.5596,0.5338,-1.2815,0.2110,-0.4069,
7.022508,0.0628,-0.8092,-0.2433,1.2797,0.4215,1.0050,-1.2815,0.2110,-0.4069,
7.064314,0.0628,-0.8092,-0.2433,1.2797,0.4215,1.0050,-1.3656,-0.2428,-0.0788,
7.066542,0.0628,-0.8092,-0.2433,0.2418,1.3272,1.0257,-1.3656,-0.2428,-0.0788,
7.067170,-0.0943,-0.8036,-0.2565,0.2418,1.3272,1.0257,-1.3656,-0.2428,-0.0788,
7.067583,-0.1307,-0.8417,-0.1663,0.2418,1.3272,1.0257,-1.3656,-0.2428,-0.0788,
7.067992,-0.0962,-0.8833,-0.1585,0.2418,1.3272,1.0257,-1.3656,-0.2428,-0.0788,
7.068404,-0.0557,-0.9460,-0.2381,0.2418,1.3272,1.0257,-1.3656,-0.2428,-0.0788,
7.100388,-0.0557,-0.9460,-0.2381,0.2418,1.3272,1.0257,-1.0077,-0.9949,0.2025,
7.101529,-0.0557,-0.9460,-0.2381,-1.0443,0.5174,1.7415,-1.0077,-0.9949,0.2025,
7.140776,-0.0557,-0.9460,-0.2381,-1.0443,0.5174,1.7415,-0.4101,-0.2226,0.3036,
7.142829,-0.0557,-0.9460,-0.2381,-1.4107,-2.0259,0.3192,-0.4101,-0.2226,0.3036,
7.144267,-0.0830,-1.0728,-0.3102,-1.4107,-2.0259,0.3192,-0.4101,-0.2226,0.3036,
7.145397,-0.1976,-1.1838,-0.3290,-1.4107,-2.0259,0.3192,-0.4101,-0.2226,0.3036,
7.146737,-0.1651,-1.1855,-0.4035,-1.4107,-2.0259,0.3192,-0.4101,-0.2226,0.3036,
7.147747,0.0030,-1.0716,-0.5418,-1.4107,-2.0259,0.3192,-0.4101,-0.2226,0.3036,
7.180773,0.0030,-1.0716,-0.5418,-1.4107,-2.0259,0.3192,0.0224,0.3686,0.2025,
7.182813,0.0030,-1.0716,-0.5418,-1.3681,-1.9894,0.3068,0.0224,0.3686,0.2025,
7.220753,0.0030,-1.0716,-0.5418,-1.3681,-1.9894,0.3068,0.2450,0.2344,0.0118,
7.222978,0.0030,-1.0716,-0.5418,0.1721,-0.3627,-1.3808,0.2450,0.2344,0.0118,
7.224313,0.0540,-0.9656,-0.5308,0.1721,-0.3627,-1.3808,0.2450,0.2344,0.0118,
7.225491,-0.0212,-0.9197,-0.4666,0.1721,-0.3627,-1.3808,0.2450,0.2344,0.0118,
7.226633,0.0152,-0.8928,-0.3943,0.1721,-0.3627,-1.3808,0.2450,0.2344,0.0118,
7.227939,0.0919,-0.8605,-0.2726,0.1721,-0.3627,-1.3808,0.2450,0.2344,0.0118,
7.260148,0.0919,-0.8605,-0.2726,0.1721,-0.3627,-1.3808,0.8011,0.1705,-0.0575,
7.262437,0.0919,-0.8605,-0.2726,0.1248,-0.2474,-1.6494,0.8011,0.1705,-0.0575,
7.300086,0.0919,-0.8605,-0.2726,0.1248,-0.2474,-1.6494,1.5351,-0.0170,-0.1885,
7.302337,0.0919,-0.8605,-0.2726,0.7052,1.1946,0.2620,1.5351,-0.0170,-0.1885,
7.303719,0.1312,-0.8134,-0.1089,0.7052,1.1946,0.2620,1.5351,-0.0170,-0.1885,
7.304972,-0.0112,-0.7169,-0.0229,0.7052,1.1946,0.2620,1.5351,-0.0170,-0.1885,
7.306022,-0.1820,-0.6785,-0.0061,0.7052,1.1946,0.2620,1.5351,-0.0170,-0.1885,
7.307170,-0.1827,-0.7318,-0.0320,0.7052,1.1946,0.2620,1.5351,-0.0170,-0.1885,
7.339445,-0.1827,-0.7318,-0.0320,0.7052,1.1946,0.2620,1.9047,-0.2791,-0.3110,
7.342222,-0.1827,-0.7318,-0.0320,-1.3708,2.7656,1.8368,1.9047,-0.2791,-0.3110,
7.379426,-0.1827,-0.7318,-0.0320,-1.3708,2.7656,1.8368,2.0187,0.1108,-0.4324,
7.385038,-0.1827,-0.7318,-0.0320,-1.3565,0.5622,0.4495,2.0187,0.1108,-0.4324,
7.392031,-0.1358,-0.8241,-0.0549,-1.3565,0.5622,0.4495,2.0187,0.1108,-0.4324,
7.393057,-0.0732,-0.9153,-0.0258,-1.3565,0.5622,0.4495,2.0187,0.1108,-0.4324,
7.393810,-0.1162,-1.0985,-0.1627,-1.3565,0.5622,0.4495,2.0187,0.1108,-0.4324,
7.394407,-0.2382,-1.3650,-0.4922,-1.3565,0.5622,0.4495,2.0187,0.1108,-0.4324,
7.418001,-0.2382,-1.3650,-0.4922,-1.3565,0.5622,0.4495,1.1984,0.4166,-0.2727,
7.419869,-0.2382,-1.3650,-0.4922,-1.4541,0.5961,-0.0244,1.1984,0.4166,-0.2727,
7.459117,-0.2382,-1.3650,-0.4922,-1.4541,0.5961,-0.0244,-0.7989,1.1814,0.1023,
7.461084,-0.2382,-1.3650,-0.4922,-2.9860,-4.9490,-7.4820,-0.7989,1.1814,0.1023,
7.462815,-0.3696,-1.6606,-1.0006,-2.9860,-4.9490,-7.4820,-0.7989,1.1814,0.1023,
7.463926,-0.2018,-1.5270,-1.1621,-2.9860,-4.9490,-7.4820,-0.7989,1.1814,0.1023,
7.465049,0.0445,-1.1332,-0.6752,-2.9860,-4.9490,-7.4820,-0.7989,1.1814,0.1023,
7.466336,0.0272,-0.8982,0.1085,-2.9860,-4.9490,-7.4820,-0.7989,1.1814,0.1023,
7.497978,0.0272,-0.8982,0.1085,-2.9860,-4.9490,-7.4820,-1.2783,0.7372,0.3356,
7.500905,0.0272,-0.8982,0.1085,-2.8471,-4.9341,-6.8737,-1.2783,0.7372,0.3356,
7.539127,0.0272,-0.8982,0.1085,-2.8471,-4.9341,-6.8737,-0.0937,-0.7488,0.3069,
7.542288,0.0272,-0.8982,0.1085,0.6915,0.4967,1.5081,-0.0937,-0.7488,0.3069,
7.543578,0.1518,-0.8547,0.4733,0.6915,0.4967,1.5081,-0.0937,-0.7488,0.3069,
7.545603,0.1940,-0.8539,-0.0632,0.6915,0.4967,1.5081,-0.0937,-0.7488,0.3069,
7.546795,0.0917,-0.9104,-0.5037,0.6915,0.4967,1.5081,-0.0937,-0.7488,0.3069,
7.547824,0.0538,-0.9666,-0.0925,0.6915,0.4967,1.5081,-0.0937,-0.7488,0.3069,
7.577714,0.0538,-0.9666,-0.0925,0.6915,0.4967,1.5081,0.0267,-0.4974,0.1982,
7.580604,0.0538,-0.9666,-0.0925,1.1646,0.9885,-0.3460,0.0267,-0.4974,0.1982,
7.616705,0.0538,-0.9666,-0.0925,1.1646,0.9885,-0.3460,0.3026,0.5550,0.0991,
7.619337,0.0538,-0.9666,-0.0925,1.1773,-1.0292,0.0810,0.3026,0.5550,0.0991,
7.620684,0.1444,-1.0330,0.0875,1.1773,-1.0292,0.0810,0.3026,0.5550,0.0991,
7.622171,0.0987,-1.1674,-0.1876,1.1773,-1.0292,0.0810,0.3026,0.5550,0.0991,
7.623397,0.1061,-1.1598,-0.3923,1.1773,-1.0292,0.0810,0.3026,0.5550,0.0991,
7.624575,0.1493,-1.0633,-0.1871,1.1773,-1.0292,0.0810,0.3026,0.5550,0.0991,
7.657381,0.1493,-1.0633,-0.1871,1.1773,-1.0292,0.0810,0.2184,0.6520,0.0735,
7.660126,0.1493,-1.0633,-0.1871,1.1444,-0.9981,-0.0043,0.2184,0.6520,0.0735,
7.696297,0.1493,-1.0633,-0.1871,1.1444,-0.9981,-0.0043,0.7542,0.5625,0.0150,
7.698749,0.1493,-1.0633,-0.1871,1.3570,-0.1029,0.8708,0.7542,0.5625,0.0150,
7.700195,0.1439,-1.0127,0.0604,1.3570,-0.1029,0.8708,0.7542,0.5625,0.0150,
7.702066,0.1364,-1.0240,-0.0017,1.3570,-0.1029,0.8708,0.7542,0.5625,0.0150,
7.704325,0.0513,-1.0836,-0.2621,1.3570,-0.1029,0.8708,0.7542,0.5625,0.0150,
7.706297,-0.0654,-1.1198,-0.3530,1.3570,-0.1029,0.8708,0.7542,0.5625,0.0150,
7.735108,-0.0654,-1.1198,-0.3530,1.3570,-0.1029,0.8708,0.8586,0.4677,0.3974,
7.737187,-0.0654,-1.1198,-0.3530,1.4694,-0.0640,0.5203,0.8586,0.4677,0.3974,
7.774756,-0.0654,-1.1198,-0.3530,1.4694,-0.0640,0.5203,1.0035,0.1247,0.6733,
7.776367,-0.0654,-1.1198,-0.3530,0.3336,-0.4795,-1.8972,1.0035,0.1247,0.6733,
7.777092,0.0167,-1.0338,-0.1407,0.3336,-0.4795,-1.8972,1.0035,0.1247,0.6733,
7.777569,0.2177,-0.9182,-0.0315,0.3336,-0.4795,-1.8972,1.0035,0.1247,0.6733,
7.778151,0.3555,-0.8977,-0.0635,0.3336,-0.4795,-1.8972,1.0035,0.1247,0.6733,
7.778704,0.4310,-0.8415,-0.1263,0.3336,-0.4795,-1.8972,1.0035,0.1247,0.6733,
7.815704,0.4310,-0.8415,-0.1263,0.3336,-0.4795,-1.8972,1.1047,0.0821,0.4485,
7.817673,0.4310,-0.8415,-0.1263,3.7209,1.3986,-0.5818,1.1047,0.0821,0.4485,
7.854880,0.3316,-0.7745,-0.1788,3.7209,1.3986,-0.5818,1.1047,0.0821,0.4485,
7.857731,0.1329,-0.8002,-0.0808,3.7209,1.3986,-0.5818,1.1047,0.0821,0.4485,
7.859396,-0.0041,-0.9096,-0.0043,3.7209,1.3986,-0.5818,1.1047,0.0821,0.4485,
7.860452,-0.0041,-0.9096,-0.0043,3.7209,1.3986,-0.5818,0.6094,-0.0415,0.2184,
7.862004,-0.0041,-0.9096,-0.0043,1.9977,1.9273,-0.9497,0.6094,-0.0415,0.2184,
7.894688,-0.0041,-0.9096,-0.0043,1.5639,-0.2180,0.0037,0.6094,-0.0415,0.2184,
7.897693,-0.0041,-0.9096,-0.0043,1.5639,-0.2180,0.0037,0.2504,0.0906,0.1886,
7.934671,-0.0041,-0.9096,-0.0043,1.5328,-0.2137,0.0275,0.2504,0.0906,0.1886,
7.937166,-0.0041,-0.9096,-0.0043,1.5328,-0.2137,0.0275,-0.0490,0.2227,-0.0170,
7.938219,-0.0256,-1.0338,-0.0112,1.5328,-0.2137,0.0275,-0.0490,0.2227,-0.0170,
7.939157,0.1070,-1.0650,-0.0053,1.5328,-0.2137,0.0275,-0.0490,0.2227,-0.0170,
7.940318,0.2312,-1.0418,0.0743,1.5328,-0.2137,0.0275,-0.0490,0.2227,-0.0170,
7.941116,0.2822,-1.0716,0.0841,1.5328,-0.2137,0.0275,-0.0490,0.2227,-0.0170,
7.942187,0.2644,-1.0152,0.0484,1.5328,-0.2137,0.0275,-0.0490,0.2227,-0.0170,
7.974015,0.2644,-1.0152,0.0484,1.5328,-0.2137,0.0275,-0.2290,-0.1257,-0.2758,
7.976274,0.2644,-1.0152,0.0484,1.3987,-0.2042,0.1146,-0.2290,-0.1257,-0.2758,
8.013998,0.2644,-1.0152,0.0484,1.3987,-0.2042,0.1146,-0.3068,-0.5837,-0.2077,
8.016268,0.2644,-1.0152,0.0484,2.5022,0.1655,0.5033,-0.3068,-0.5837,-0.2077,
8.017429,0.1422,-0.9407,0.0118,2.5022,0.1655,0.5033,-0.3068,-0.5837,-0.2077,
8.018402,-0.0085,-0.9656,-0.0158,2.5022,0.1655,0.5033,-0.3068,-0.5837,-0.2077,
8.019842,-0.0676,-0.9688,-0.0288,2.5022,0.1655,0.5033,-0.3068,-0.5837,-0.2077,
8.021478,-0.0686,-0.9263,-0.0456,2.5022,0.1655,0.5033,-0.3068,-0.5837,-0.2077,
8.053084,-0.0686,-0.9263,-0.0456,2.5022,0.1655,0.5033,-0.4793,-0.5560,-0.0447,
8.055530,-0.0686,-0.9263,-0.0456,-0.2320,0.6969,-0.0759,-0.4793,-0.5560,-0.0447,
8.092330,-0.0686,-0.9263,-0.0456,-0.2320,0.6969,-0.0759,-0.7552,-0.6998,-0.0404,
8.094871,-0.0686,-0.9263,-0.0456,-0.0301,0.9746,-0.4778,-0.7552,-0.6998,-0.0404,
8.096192,-0.0464,-0.9001,-0.0776,-0.0301,0.9746,-0.4778,-0.7552,-0.6998,-0.0404,
8.097368,-0.0246,-0.9160,-0.1028,-0.0301,0.9746,-0.4778,-0.7552,-0.6998,-0.0404,
8.098591,-0.0102,-0.9512,-0.1253,-0.0301,0.9746,-0.4778,-0.7552,-0.6998,-0.0404,
8.099681,-0.0180,-1.0118,-0.1724,-0.0301,0.9746,-0.4778,-0.7552,-0.6998,-0.0404,
8.131425,-0.0180,-1.0118,-0.1724,-0.0301,0.9746,-0.4778,-1.0770,-0.8927,-0.0820,
8.133305,-0.0180,-1.0118,-0.1724,-0.0362,0.9285,-0.0580,-1.0770,-0.8927,-0.0820,
8.171126,-0.0276,-1.0983,-0.2567,-0.0362,0.9285,-0.0580,-1.0770,-0.8927,-0.0820,
8.172636,0.0174,-1.1796,-0.3508,-0.0362,0.9285,-0.0580,-1.0770,-0.8927,-0.0820,
8.173926,0.0382,-1.2280,-0.4162,-0.0362,0.9285,-0.0580,-1.0770,-0.8927,-0.0820,
8.175277,0.0382,-1.2280,-0.4162,-0.0362,0.9285,-0.0580,-1.6746,-0.7829,-0.1544,
8.176478,0.0382,-1.2280,-0.4162,0.1127,-0.8462,-0.9387,-1.6746,-0.7829,-0.1544,
8.210246,0.0382,-1.2280,-0.4162,0.1127,-0.8462,-0.9387,-2.4213,-0.0756,-0.4303,
8.212262,0.0382,-1.2280,-0.4162,-0.2467,-2.6775,-2.2111,-2.4213,-0.0756,-0.4303,
8.249823,0.0382,-1.2280,-0.4162,-0.2467,-2.6775,-2.2111,-2.1316,0.5582,-0.5656,
8.251673,0.0382,-1.2280,-0.4162,-0.5214,-2.8835,-1.3773,-2.1316,0.5582,-0.5656,
8.253222,-0.0249,-1.2722,-0.5159,-0.5214,-2.8835,-1.3773,-2.1316,0.5582,-0.5656,
8.254304,-0.1028,-1.3035,-0.5367,-0.5214,-2.8835,-1.3773,-2.1316,0.5582,-0.5656,
8.255508,-0.2274,-1.2742,-0.2887,-0.5214,-2.8835,-1.3773,-2.1316,0.5582,-0.5656,
8.256619,-0.3547,-1.2441,-0.0771,-0.5214,-2.8835,-1.3773,-2.1316,0.5582,-0.5656,
8.257848,-0.1013,-1.1649,-0.0928,-0.5214,-2.8835,-1.3773,-2.1316,0.5582,-0.5656,
8.289291,-0.1013,-1.1649,-0.0928,-0.5214,-2.8835,-1.3773,-0.9896,-0.1022,-0.4026,
8.291145,-0.1013,-1.1649,-0.0928,-2.5537,-2.5925,2.2575,-0.9896,-0.1022,-0.4026,
8.329339,-0.1013,-1.1649,-0.0928,-2.5537,-2.5925,2.2575,-0.2780,-0.9502,-0.5017,
8.331276,-0.1013,-1.1649,-0.0928,1.0565,0.1045,2.9462,-0.2780,-0.9502,-0.5017,
8.332754,0.1212,-1.0540,0.0211,1.0565,0.1045,2.9462,-0.2780,-0.9502,-0.5017,
8.333729,0.1730,-0.9272,-0.0669,1.0565,0.1045,2.9462,-0.2780,-0.9502,-0.5017,
8.334952,0.1459,-0.8608,-0.2225,1.0565,0.1045,2.9462,-0.2780,-0.9502,-0.5017,
8.336027,0.0538,-0.8207,-0.2149,1.0565,0.1045,2.9462,-0.2780,-0.9502,-0.5017,
8.369180,0.0538,-0.8207,-0.2149,1.0565,0.1045,2.9462,0.0373,-0.7211,-0.7233,
8.371169,0.0538,-0.8207,-0.2149,0.8821,0.0955,2.8961,0.0373,-0.7211,-0.7233,
8.408324,0.0538,-0.8207,-0.2149,0.8821,0.0955,2.8961,0.3526,0.2387,-0.7978,
8.410117,0.0538,-0.8207,-0.2149,-1.4966,1.9717,1.9099,0.3526,0.2387,-0.7978,
8.411448,-0.0620,-0.7672,-0.1563,-1.4966,1.9717,1.9099,0.3526,0.2387,-0.7978,
8.412641,-0.1861,-0.6785,-0.1465,-1.4966,1.9717,1.9099,0.3526,0.2387,-0.7978,
8.413618,-0.2364,-0.5542,-0.1614,-1.4966,1.9717,1.9099,0.3526,0.2387,-0.7978,
8.414732,-0.2176,-0.4777,-0.1541,-1.4966,1.9717,1.9099,0.3526,0.2387,-0.7978,
8.447700,-0.2176,-0.4777,-0.1541,-1.4966,1.9717,1.9099,0.6498,0.5966,-0.6327,
8.449706,-0.2176,-0.4777,-0.1541,-1.7842,2.0016,1.6156,0.6498,0.5966,-0.6327,
8.488391,-0.2176,-0.4777,-0.1541,-1.7842,2.0016,1.6156,0.6978,0.0150,-0.3813,
8.490591,-0.2176,-0.4777,-0.1541,-3.2641,4.4283,1.3653,0.6978,0.0150,-0.3813,
8.492399,-0.1658,-0.4899,-0.1917,-3.2641,4.4283,1.3653,0.6978,0.0150,-0.3813,
8.493564,-0.0798,-0.6321,-0.2924,-3.2641,4.4283,1.3653,0.6978,0.0150,-0.3813,
8.494548,0.0360,-0.8574,-0.4878,-3.2641,4.4283,1.3653,0.6978,0.0150,-0.3813,
8.495674,-0.0134,-1.1601,-0.7671,-3.2641,4.4283,1.3653,0.6978,0.0150,-0.3813,
8.527107,-0.0134,-1.1601,-0.7671,-3.2641,4.4283,1.3653,0.1971,-0.1619,-0.0841,
8.529733,-0.0134,-1.1601,-0.7671,-1.4145,0.7509,-2.0626,0.1971,-0.1619,-0.0841,
8.566741,-0.0134,-1.1601,-0.7671,-1.4145,0.7509,-2.0626,0.2706,0.5273,0.1524,
8.568704,-0.0134,-1.1601,-0.7671,-1.7285,-5.3933,-2.0383,0.2706,0.5273,0.1524,
8.570064,0.0303,-1.5189,-0.4248,-1.7285,-5.3933,-2.0383,0.2706,0.5273,0.1524,
8.571742,0.0069,-1.6399,-0.4140,-1.7285,-5.3933,-2.0383,0.2706,0.5273,0.1524,
8.573258,-0.1983,-1.4115,-0.6728,-1.7285,-5.3933,-2.0383,0.2706,0.5273,0.1524,
8.574536,-0.1241,-1.0550,-0.2120,-1.7285,-5.3933,-2.0383,0.2706,0.5273,0.1524,
8.606844,-0.1241,-1.0550,-0.2120,-1.7285,-5.3933,-2.0383,0.2067,0.3793,0.3388,
8.610259,-0.1241,-1.0550,-0.2120,-1.6157,-5.2651,-2.0985,0.2067,0.3793,0.3388,
8.646584,-0.1241,-1.0550,-0.2120,-1.6157,-5.2651,-2.0985,0.7351,-0.0724,0.3740,
8.648723,-0.1241,-1.0550,-0.2120,-1.0327,0.8045,1.8020,0.7351,-0.0724,0.3740,
8.650289,0.0499,-0.8608,0.0985,-1.0327,0.8045,1.8020,0.7351,-0.0724,0.3740,
8.651459,0.0399,-0.8210,-0.1089,-1.0327,0.8045,1.8020,0.7351,-0.0724,0.3740,
8.652668,-0.0596,-0.8320,-0.2323,-1.0327,0.8045,1.8020,0.7351,-0.0724,0.3740,
8.653813,-0.0618,-0.8999,-0.1895,-1.0327,0.8045,1.8020,0.7351,-0.0724,0.3740,
8.685926,-0.0618,-0.8999,-0.1895,-1.0327,0.8045,1.8020,0.8490,0.0746,0.3122,
8.687713,-0.0618,-0.8999,-0.1895,-0.9031,0.8798,1.4454,0.8490,0.0746,0.3122,
8.725792,-0.0618,-0.8999,-0.1895,-0.9031,0.8798,1.4454,0.4783,0.6158,0.1407,
8.728070,-0.0618,-0.8999,-0.1895,-1.1421,0.8954,-0.0834,0.4783,0.6158,0.1407,
8.729495,0.0064,-1.0088,-0.2061,-1.1421,0.8954,-0.0834,0.4783,0.6158,0.1407,
8.730615,0.0675,-1.0491,-0.2618,-1.1421,0.8954,-0.0834,0.4783,0.6158,0.1407,
8.731602,0.1671,-1.0005,-0.2316,-1.1421,0.8954,-0.0834,0.4783,0.6158,0.1407,
8.732794,0.1562,-0.9399,-0.0884,-1.1421,0.8954,-0.0834,0.4783,0.6158,0.1407,
8.764953,0.1562,-0.9399,-0.0884,-1.1421,0.8954,-0.0834,0.1438,0.6509,0.0714,
8.766718,0.1562,-0.9399,-0.0884,0.4802,0.0938,-0.0086,0.1438,0.6509,0.0714,
8.806172,0.1562,-0.9399,-0.0884,0.4802,0.0938,-0.0086,-0.0170,0.4720,0.2887,
8.808313,0.1562,-0.9399,-0.0884,-0.0432,0.6042,0.7499,-0.0170,0.4720,0.2887,
8.809917,0.0704,-0.9084,-0.0664,-0.0432,0.6042,0.7499,-0.0170,0.4720,0.2887,
8.810916,0.0413,-0.9294,-0.1834,-0.0432,0.6042,0.7499,-0.0170,0.4720,0.2887,
8.812341,0.0948,-0.9947,-0.0935,-0.0432,0.6042,0.7499,-0.0170,0.4720,0.2887,
8.813190,0.1808,-1.0636,0.0797,-0.0432,0.6042,0.7499,-0.0170,0.4720,0.2887,
8.844832,0.1808,-1.0636,0.0797,-0.0432,0.6042,0.7499,0.1609,0.5913,0.3186,
8.847223,0.1808,-1.0636,0.0797,0.0377,0.6140,0.6599,0.1609,0.5913,0.3186,
8.883943,0.1808,-1.0636,0.0797,0.0377,0.6140,0.6599,0.5145,0.5455,0.1290,
8.885575,0.1808,-1.0636,0.0797,2.5088,-0.9196,1.3492,0.5145,0.5455,0.1290,
8.886442,0.3269,-1.1261,0.0128,2.5088,-0.9196,1.3492,0.5145,0.5455,0.1290,
8.887086,0.4640,-1.1285,-0.1519,2.5088,-0.9196,1.3492,0.5145,0.5455,0.1290,
8.887649,0.3047,-1.0699,-0.2059,2.5088,-0.9196,1.3492,0.5145,0.5455,0.1290,
8.888251,0.0450,-1.0545,-0.2440,2.5088,-0.9196,1.3492,0.5145,0.5455,0.1290,
8.924513,0.0450,-1.0545,-0.2440,2.5088,-0.9196,1.3492,0.5316,0.0661,0.3644,
8.926754,0.0450,-1.0545,-0.2440,2.6042,-0.8660,1.1190,0.5316,0.0661,0.3644,
8.963696,0.0450,-1.0545,-0.2440,0.7390,-0.4212,-1.0285,0.5316,0.0661,0.3644,
8.965991,0.0450,-1.0545,-0.2440,0.7390,-0.4212,-1.0285,0.5465,-0.0788,0.8384,
8.966699,-0.0478,-1.0719,-0.2064,0.7390,-0.4212,-1.0285,0.5465,-0.0788,0.8384,
8.967942,0.0330,-1.0149,-0.1214,0.7390,-0.4212,-1.0285,0.5465,-0.0788,0.8384,
8.968679,0.1613,-0.9302,-0.1561,0.7390,-0.4212,-1.0285,0.5465,-0.0788,0.8384,
8.969282,0.1965,-0.8515,-0.0613,0.7390,-0.4212,-1.0285,0.5465,-0.0788,0.8384,
9.003417,0.1965,-0.8515,-0.0613,0.7390,-0.4212,-1.0285,0.4805,0.1609,0.8991,
9.004657,0.1965,-0.8515,-0.0613,1.3574,0.8913,-0.1791,0.4805,0.1609,0.8991,
9.042515,0.1965,-0.8515,-0.0613,1.3574,0.8913,-0.1791,0.0746,0.5337,0.7979,
9.043870,0.1965,-0.8515,-0.0613,1.9780,0.9723,0.1461,0.0746,0.5337,0.7979,
9.044412,0.2610,-0.8608,-0.0268,1.9780,0.9723,0.1461,0.0746,0.5337,0.7979,
9.044785,0.1645,-0.9451,-0.1199,1.9780,0.9723,0.1461,0.0746,0.5337,0.7979,
9.045333,0.0743,-0.9595,-0.0842,1.9780,0.9723,0.1461,0.0746,0.5337,0.7979,
9.045784,0.1376,-0.9241,-0.0412,1.9780,0.9723,0.1461,0.0746,0.5337,0.7979,
9.083366,0.1376,-0.9241,-0.0412,1.9780,0.9723,0.1461,-0.4090,0.5114,0.5998,
9.086055,0.1376,-0.9241,-0.0412,2.1594,0.9298,0.3121,-0.4090,0.5114,0.5998,
9.123035,0.1376,-0.9241,-0.0412,2.1594,0.9298,0.3121,-0.7521,0.4751,-0.0660,
9.125315,0.1376,-0.9241,-0.0412,3.5650,0.4763,0.3626,-0.7521,0.4751,-0.0660,
9.126617,0.3176,-0.9500,-0.1160,3.5650,0.4763,0.3626,-0.7521,0.4751,-0.0660,
9.127893,0.5082,-1.0169,-0.1502,3.5650,0.4763,0.3626,-0.7521,0.4751,-0.0660,
9.128976,0.4300,-1.0120,-0.0503,3.5650,0.4763,0.3626,-0.7521,0.4751,-0.0660,
9.129901,0.1483,-0.9211,0.0044,3.5650,0.4763,0.3626,-0.7521,0.4751,-0.0660,
9.162357,0.1483,-0.9211,0.0044,3.5650,0.4763,0.3626,-0.7957,-0.1459,-0.4410,
9.164661,0.1483,-0.9211,0.0044,3.3448,0.4269,0.6620,-0.7957,-0.1459,-0.4410,
9.202233,-0.0723,-0.8227,-0.0781,3.3448,0.4269,0.6620,-0.7957,-0.1459,-0.4410,
9.204340,-0.1861,-0.8268,-0.1927,3.3448,0.4269,0.6620,-0.7957,-0.1459,-0.4410,
9.205518,-0.2142,-0.8576,-0.1827,3.3448,0.4269,0.6620,-0.7957,-0.1459,-0.4410,
9.206641,-0.2142,-0.8576,-0.1827,3.3448,0.4269,0.6620,-0.9598,-0.7552,-0.2087,
9.207814,-0.2142,-0.8576,-0.1827,1.7949,0.7859,1.6033,-0.9598,-0.7552,-0.2087,
9.242668,-0.2142,-0.8576,-0.1827,1.7949,0.7859,1.6033,-1.0301,-0.0319,-0.1182,
9.244900,-0.2142,-0.8576,-0.1827,-1.6761,1.3276,0.9393,-1.0301,-0.0319,-0.1182,
9.281780,-0.2142,-0.8576,-0.1827,-1.6761,1.3276,0.9393,-0.6423,0.3441,-0.2695,
9.284111,-0.2142,-0.8576,-0.1827,-1.7836,1.2432,1.1659,-0.6423,0.3441,-0.2695,
9.285592,-0.1514,-0.8713,-0.0686,-1.7836,1.2432,1.1659,-0.6423,0.3441,-0.2695,
9.286639,-0.0408,-0.8901,-0.0752,-1.7836,1.2432,1.1659,-0.6423,0.3441,-0.2695,
9.287875,-0.0114,-0.9263,-0.2276,-1.7836,1.2432,1.1659,-0.6423,0.3441,-0.2695,
9.288988,-0.0806,-0.9842,-0.4116,-1.7836,1.2432,1.1659,-0.6423,0.3441,-0.2695,
9.289844,-0.1746,-1.0829,-0.5233,-1.7836,1.2432,1.1659,-0.6423,0.3441,-0.2695,
9.321216,-0.1746,-1.0829,-0.5233,-0.5010,0.3561,0.5539,-0.6423,0.3441,-0.2695,
9.323720,-0.1746,-1.0829,-0.5233,-0.5010,0.3561,0.5539,-0.7425,0.0853,-0.2258,
9.361012,-0.1746,-1.0829,-0.5233,-0.5010,0.3561,0.5539,-0.9129,0.0480,-0.1651,
9.363218,-0.1746,-1.0829,-0.5233,-1.5558,-1.7456,-2.0942,-0.9129,0.0480,-0.1651,
9.364554,-0.1908,-1.1549,-0.5311,-1.5558,-1.7456,-2.0942,-0.9129,0.0480,-0.1651,
9.365770,-0.0776,-1.1811,-0.5863,-1.5558,-1.7456,-2.0942,-0.9129,0.0480,-0.1651,
9.366897,0.0416,-1.2693,-0.6005,-1.5558,-1.7456,-2.0942,-0.9129,0.0480,-0.1651,
9.368106,-0.1558,-1.3809,-0.5836,-1.5558,-1.7456,-2.0942,-0.9129,0.0480,-0.1651,
9.399300,-0.1558,-1.3809,-0.5836,-1.5558,-1.7456,-2.0942,-0.9449,-0.4388,-0.4154,
9.401119,-0.1558,-1.3809,-0.5836,-1.6219,-1.8458,-1.7119,-0.9449,-0.4388,-0.4154,
9.439140,-0.1558,-1.3809,-0.5836,-1.6219,-1.8458,-1.7119,-0.7957,-0.8490,-0.2652,
9.440689,-0.1558,-1.3809,-0.5836,-1.5268,-3.7128,-1.4448,-0.7957,-0.8490,-0.2652,
9.441442,-0.3171,-1.3223,-0.4734,-1.5268,-3.7128,-1.4448,-0.7957,-0.8490,-0.2652,
9.442347,-0.2081,-1.1007,-0.2914,-1.5268,-3.7128,-1.4448,-0.7957,-0.8490,-0.2652,
9.443036,-0.0359,-0.9065,-0.2137,-1.5268,-3.7128,-1.4448,-0.7957,-0.8490,-0.2652,
9.443590,0.0145,-0.8202,-0.1348,-1.5268,-3.7128,-1.4448,-0.7957,-0.8490,-0.2652,
9.478829,0.0145,-0.8202,-0.1348,-1.5268,-3.7128,-1.4448,-0.1683,-0.3067,-0.2961,
9.480467,0.0145,-0.8202,-0.1348,-0.9118,-0.0006,1.9101,-0.1683,-0.3067,-0.2961,
9.518917,0.0145,-0.8202,-0.1348,-0.9118,-0.0006,1.9101,0.3622,-0.2514,-0.3600,
9.521424,0.0145,-0.8202,-0.1348,-2.8358,0.5386,2.7839,0.3622,-0.2514,-0.3600,
9.522926,-0.1790,-0.8869,-0.0977,-2.8358,0.5386,2.7839,0.3622,-0.2514,-0.3600,
9.524986,-0.2975,-0.9289,-0.1035,-2.8358,0.5386,2.7839,0.3622,-0.2514,-0.3600,
9.526015,-0.3283,-0.8601,-0.1167,-2.8358,0.5386,2.7839,0.3622,-0.2514,-0.3600,
9.527002,-0.2758,-0.7484,-0.1583,-2.8358,0.5386,2.7839,0.3622,-0.2514,-0.3600,
9.559176,-0.2758,-0.7484,-0.1583,-2.8358,0.5386,2.7839,0.5678,-0.2098,-0.2844,
9.561141,-0.2758,-0.7484,-0.1583,-2.8614,0.6092,2.5331,0.5678,-0.2098,-0.2844,
9.598701,-0.2758,-0.7484,-0.1583,-2.8614,0.6092,2.5331,0.8693,-0.0191,-0.3014,
9.601006,-0.2758,-0.7484,-0.1583,-2.2316,3.4501,1.9321,0.8693,-0.0191,-0.3014,
9.602494,-0.1876,-0.6116,-0.1771,-2.2316,3.4501,1.9321,0.8693,-0.0191,-0.3014,
9.603646,-0.1268,-0.4633,-0.0574,-2.2316,3.4501,1.9321,0.8693,-0.0191,-0.3014,
9.604731,-0.1118,-0.4088,-0.0315,-2.2316,3.4501,1.9321,0.8693,-0.0191,-0.3014,
9.605813,-0.1040,-0.6111,-0.1903,-2.2316,3.4501,1.9321,0.8693,-0.0191,-0.3014,
9.638439,-0.1040,-0.6111,-0.1903,-2.2316,3.4501,1.9321,1.2762,-0.2524,-0.4495,
9.640808,-0.1040,-0.6111,-0.1903,-2.3315,3.5342,1.4320,1.2762,-0.2524,-0.4495,
9.679031,-0.1040,-0.6111,-0.1903,-2.3315,3.5342,1.4320,1.2048,-1.0258,-0.2002,
9.682129,-0.1040,-0.6111,-0.1903,-1.4359,3.0791,0.8301,1.2048,-1.0258,-0.2002,
9.683732,-0.1150,-0.9622,-0.2164,-1.4359,3.0791,0.8301,1.2048,-1.0258,-0.2002,
9.685116,-0.1189,-1.4957,-0.4534,-1.4359,3.0791,0.8301,1.2048,-1.0258,-0.2002,
9.688717,-0.0073,-1.8852,-0.6894,-1.4359,3.0791,0.8301,1.2048,-1.0258,-0.2002,
9.689965,-0.1524,-1.5734,-0.6447,-1.4359,3.0791,0.8301,1.2048,-1.0258,-0.2002,
9.717070,-0.1524,-1.5734,-0.6447,-1.4359,3.0791,0.8301,0.3111,-0.6391,-0.0458,
9.719371,-0.1524,-1.5734,-0.6447,-1.2067,-6.4936,-3.6255,0.3111,-0.6391,-0.0458,
9.757139,-0.1524,-1.5734,-0.6447,-1.2067,-6.4936,-3.6255,0.2216,-0.4729,0.1140,
9.759086,-0.1524,-1.5734,-0.6447,-1.1481,0.3090,-0.1064,0.2216,-0.4729,0.1140,
9.760359,-0.2509,-1.0990,-0.4634,-1.1481,0.3090,-0.1064,0.2216,-0.4729,0.1140,
9.761590,-0.1121,-0.9035,-0.1570,-1.1481,0.3090,-0.1064,0.2216,-0.4729,0.1140,
9.762476,0.0704,-0.8740,-0.0657,-1.1481,0.3090,-0.1064,0.2216,-0.4729,0.1140,
9.763566,0.0978,-0.9668,-0.1561,-1.1481,0.3090,-0.1064,0.2216,-0.4729,0.1140,
9.796464,0.0978,-0.9668,-0.1561,-1.1481,0.3090,-0.1064,0.4815,-1.1366,-0.0255,
9.798297,0.0978,-0.9668,-0.1561,-1.0481,0.3421,-0.2805,0.4815,-1.1366,-0.0255,
9.836709,0.0978,-0.9668,-0.1561,-1.0481,0.3421,-0.2805,0.2344,-0.8958,-0.1086,
9.838377,0.0978,-0.9668,-0.1561,1.1207,0.0812,-0.1966,0.2344,-0.8958,-0.1086,
9.839817,0.0904,-1.0230,-0.1761,1.1207,0.0812,-0.1966,0.2344,-0.8958,-0.1086,
9.840919,0.1811,-0.9715,-0.3024,1.1207,0.0812,-0.1966,0.2344,-0.8958,-0.1086,
9.842009,0.2297,-0.8202,-0.4539,1.1207,0.0812,-0.1966,0.2344,-0.8958,-0.1086,
9.842951,0.1667,-0.7552,-0.4062,1.1207,0.0812,-0.1966,0.2344,-0.8958,-0.1086,
9.876355,0.1667,-0.7552,-0.4062,1.1207,0.0812,-0.1966,-0.3856,-0.9310,0.0640,
9.878791,0.1667,-0.7552,-0.4062,1.1965,0.0506,-0.0454,-0.3856,-0.9310,0.0640,
9.916372,0.1667,-0.7552,-0.4062,1.1965,0.0506,-0.0454,-0.2567,-1.2048,0.0991,
9.918638,0.1667,-0.7552,-0.4062,1.5841,1.7034,-1.1179,-0.2567,-1.2048,0.0991,
9.920236,0.0577,-0.8645,-0.1380,1.5841,1.7034,-1.1179,-0.2567,-1.2048,0.0991,
9.921224,0.1344,-0.9876,-0.1162,1.5841,1.7034,-1.1179,-0.2567,-1.2048,0.0991,
9.922418,0.1845,-1.1117,-0.1878,1.5841,1.7034,-1.1179,-0.2567,-1.2048,0.0991,
9.923539,0.2053,-1.1366,-0.2188,1.5841,1.7034,-1.1179,-0.2567,-1.2048,0.0991,
9.955542,0.2053,-1.1366,-0.2188,1.5841,1.7034,-1.1179,0.0171,-0.0351,-0.2215,
9.957538,0.2053,-1.1366,-0.2188,1.7024,-0.8797,0.4203,0.0171,-0.0351,-0.2215,
9.995397,0.2053,-1.1366,-0.2188,1.7024,-0.8797,0.4203,0.3430,0.4645,-0.2588,
9.997874,0.2053,-1.1366,-0.2188,0.7534,-1.2181,0.9248,0.3430,0.4645,-0.2588,
9.999341,0.1527,-1.1124,-0.1563,0.7534,-1.2181,0.9248,0.3430,0.4645,-0.2588,
10.000487,0.0821,-1.1178,-0.0815,0.7534,-1.2181,0.9248,0.3430,0.4645,-0.2588,
10.001462,0.0448,-1.1239,-0.0850,0.7534,-1.2181,0.9248,0.3430,0.4645,-0.2588,
10.002920,0.0110,-1.1486,-0.1307,0.7534,-1.2181,0.9248,0.3430,0.4645,-0.2588,
10.034172,0.0110,-1.1486,-0.1307,0.7534,-1.2181,0.9248,0.8107,0.2451,0.1257,
10.036260,0.0110,-1.1486,-0.1307,0.7710,-1.1395,0.5991,0.8107,0.2451,0.1257,
10.074832,0.0110,-1.1486,-0.1307,0.7710,-1.1395,0.5991,1.0674,-0.2439,0.3878,
10.077784,0.0110,-1.1486,-0.1307,0.8912,-1.1191,-0.4466,1.0674,-0.2439,0.3878,
10.079232,0.0682,-1.1635,-0.1925,0.8912,-1.1191,-0.4466,1.0674,-0.2439,0.3878,
10.080390,0.1913,-1.0606,-0.1947,0.8912,-1.1191,-0.4466,1.0674,-0.2439,0.3878,
10.081498,0.2422,-0.8808,-0.1717,0.8912,-1.1191,-0.4466,1.0674,-0.2439,0.3878,
10.082851,0.1242,-0.7819,-0.2000,0.8912,-1.1191,-0.4466,1.0674,-0.2439,0.3878,
10.116052,0.1242,-0.7819,-0.2000,0.8912,-1.1191,-0.4466,0.9801,-0.5315,0.3313,
10.118380,0.1242,-0.7819,-0.2000,1.0257,-1.0613,-0.8197,0.9801,-0.5315,0.3313,
10.153471,0.1242,-0.7819,-0.2000,1.0257,-1.0613,-0.8197,0.5380,-0.2119,0.3686,
10.155628,0.1242,-0.7819,-0.2000,1.3725,1.9702,-1.1854,0.5380,-0.2119,0.3686,
10.157231,-0.0290,-0.7758,-0.1986,1.3725,1.9702,-1.1854,0.5380,-0.2119,0.3686,
10.158186,-0.1194,-0.8664,-0.2003,1.3725,1.9702,-1.1854,0.5380,-0.2119,0.3686,
10.159253,-0.1140,-0.9788,-0.1717,1.3725,1.9702,-1.1854,0.5380,-0.2119,0.3686,
10.160056,0.0408,-1.0076,-0.0530,1.3725,1.9702,-1.1854,0.5380,-0.2119,0.3686,
10.193278,0.0408,-1.0076,-0.0530,1.3725,1.9702,-1.1854,0.0831,0.0480,0.3559,
10.195859,0.0408,-1.0076,-0.0530,-0.2159,0.6038,-0.7301,0.0831,0.0480,0.3559,
10.233546,0.0408,-1.0076,-0.0530,-0.2159,0.6038,-0.7301,-0.1704,0.0650,0.1236,
10.235560,0.0408,-1.0076,-0.0530,1.2440,0.2543,0.9116,-0.1704,0.0650,0.1236,
10.237230,0.1046,-0.9614,0.0421,1.2440,0.2543,0.9116,-0.1704,0.0650,0.1236,
10.238242,0.0909,-0.9588,0.0301,1.2440,0.2543,0.9116,-0.1704,0.0650,0.1236,
10.239446,0.0509,-1.0362,-0.0107,1.2440,0.2543,0.9116,-0.1704,0.0650,0.1236,
10.240603,-0.0004,-1.0733,0.0621,1.2440,0.2543,0.9116,-0.1704,0.0650,0.1236,
10.273361,-0.0004,-1.0733,0.0621,1.2440,0.2543,0.9116,-0.4442,0.1534,-0.0319,
10.275550,-0.0004,-1.0733,0.0621,1.2062,0.2368,1.0703,-0.4442,0.1534,-0.0319,
10.312762,-0.0004,-1.0733,0.0621,1.2062,0.2368,1.0703,-0.5497,0.3132,-0.0990,
10.315297,-0.0004,-1.0733,0.0621,-0.0208,-0.4028,1.4525,-0.5497,0.3132,-0.0990,
10.316565,-0.0425,-1.0733,0.0863,-0.0208,-0.4028,1.4525,-0.5497,0.3132,-0.0990,
10.317390,-0.0708,-1.0015,-0.0298,-0.0208,-0.4028,1.4525,-0.5497,0.3132,-0.0990,
10.318217,-0.1123,-0.9184,-0.1563,-0.0208,-0.4028,1.4525,-0.5497,0.3132,-0.0990,
10.319266,-0.1297,-0.9016,-0.2010,-0.0208,-0.4028,1.4525,-0.5497,0.3132,-0.0990,
10.352094,-0.1297,-0.9016,-0.2010,-0.0208,-0.4028,1.4525,-0.9055,0.5412,0.0309,
10.354200,-0.1297,-0.9016,-0.2010,-0.0349,-0.4404,1.7835,-0.9055,0.5412,0.0309,
10.390782,-0.1297,-0.9016,-0.2010,-0.0349,-0.4404,1.7835,-1.3784,0.5785,0.1471,
10.392962,-0.1297,-0.9016,-0.2010,-0.6496,0.8149,0.0719,-1.3784,0.5785,0.1471,
10.394087,-0.0691,-0.9111,-0.2140,-0.6496,0.8149,0.0719,-1.3784,0.5785,0.1471,
10.395145,0.0167,-0.8972,-0.2105,-0.6496,0.8149,0.0719,-1.3784,0.5785,0.1471,
10.396264,0.0782,-0.8779,-0.2345,-0.6496,0.8149,0.0719,-1.3784,0.5785,0.1471,
10.397260,0.0917,-0.8476,-0.2142,-0.6496,0.8149,0.0719,-1.3784,0.5785,0.1471,
10.429829,0.0917,-0.8476,-0.2142,-0.6496,0.8149,0.0719,-1.6181,0.4634,-0.0340,
10.432173,0.0917,-0.8476,-0.2142,0.9067,1.0081,0.4043,-1.6181,0.4634,-0.0340,
10.470643,0.0917,-0.8476,-0.2142,0.9067,1.0081,0.4043,-1.4700,0.7127,-0.1406,
10.473545,0.0917,-0.8476,-0.2142,-1.1451,0.7139,0.8897,-1.4700,0.7127,-0.1406,
10.474719,0.0069,-0.8312,-0.1736,-1.1451,0.7139,0.8897,-1.4700,0.7127,-0.1406,
10.476349,-0.1524,-0.8681,-0.2359,-1.1451,0.7139,0.8897,-1.4700,0.7127,-0.1406,
10.477466,-0.2611,-0.9595,-0.2677,-1.1451,0.7139,0.8897,-1.4700,0.7127,-0.1406,
10.478456,-0.2306,-1.0220,-0.2047,-1.1451,0.7139,0.8897,-1.4700,0.7127,-0.1406,
10.510033,-0.2306,-1.0220,-0.2047,-1.1451,0.7139,0.8897,-0.9790,0.8480,0.1641,
10.513645,-0.2306,-1.0220,-0.2047,-1.1757,0.5758,1.2359,-0.9790,0.8480,0.1641,
10.551417,-0.2306,-1.0220,-0.2047,-1.1757,0.5758,1.2359,-0.2503,0.3409,0.3335,
10.553200,-0.2306,-1.0220,-0.2047,-0.5294,-0.9841,0.8714,-0.2503,0.3409,0.3335,
10.554842,-0.0862,-1.0474,-0.2318,-0.5294,-0.9841,0.8714,-0.2503,0.3409,0.3335,
10.556077,0.0824,-1.0606,-0.3767,-0.5294,-0.9841,0.8714,-0.2503,0.3409,0.3335,
10.557196,0.2131,-1.0355,-0.4700,-0.5294,-0.9841,0.8714,-0.2503,0.3409,0.3335,
10.558178,0.1891,-0.9871,-0.5022,-0.5294,-0.9841,0.8714,-0.2503,0.3409,0.3335,
10.589423,0.1891,-0.9871,-0.5022,-0.5294,-0.9841,0.8714,0.0394,-0.2237,0.0959,
10.591766,0.1891,-0.9871,-0.5022,-0.4553,-0.9633,0.8402,0.0394,-0.2237,0.0959,
10.628968,0.1891,-0.9871,-0.5022,-0.4553,-0.9633,0.8402,0.1896,-0.1757,-0.1640,
10.631162,0.1891,-0.9871,-0.5022,1.7407,-0.4685,-1.5407,0.1896,-0.1757,-0.1640,
10.632672,0.0557,-0.9671,-0.5557,1.7407,-0.4685,-1.5407,0.1896,-0.1757,-0.1640,
10.633934,-0.0312,-0.9839,-0.5663,1.7407,-0.4685,-1.5407,0.1896,-0.1757,-0.1640,
10.635127,-0.0398,-0.9639,-0.4636,1.7407,-0.4685,-1.5407,0.1896,-0.1757,-0.1640,
10.636445,-0.0261,-0.9121,-0.2711,1.7407,-0.4685,-1.5407,0.1896,-0.1757,-0.1640,
10.668880,-0.0261,-0.9121,-0.2711,1.7407,-0.4685,-1.5407,0.5955,0.3292,-0.3611,
10.671421,-0.0261,-0.9121,-0.2711,-0.2454,0.0358,-1.0009,0.5955,0.3292,-0.3611,
10.708308,-0.0261,-0.9121,-0.2711,-0.2454,0.0358,-1.0009,1.2943,-0.0063,-0.4570,
10.711369,-0.0261,-0.9121,-0.2711,-1.7169,1.8700,2.4713,1.2943,-0.0063,-0.4570,
10.712900,-0.0718,-0.8268,-0.0750,-1.7169,1.8700,2.4713,1.2943,-0.0063,-0.4570,
10.714142,-0.2020,-0.7672,0.0167,-1.7169,1.8700,2.4713,1.2943,-0.0063,-0.4570,
10.714964,-0.2303,-0.7418,-0.0185,-1.7169,1.8700,2.4713,1.2943,-0.0063,-0.4570,
10.716041,-0.2189,-0.7679,-0.2191,-1.7169,1.8700,2.4713,1.2943,-0.0063,-0.4570,
10.748032,-0.2189,-0.7679,-0.2191,-1.7169,1.8700,2.4713,1.6043,-0.5667,-0.5400,
10.750450,-0.2189,-0.7679,-0.2191,-1.8372,1.9869,1.8350,1.6043,-0.5667,-0.5400,
10.788054,-0.1060,-0.8227,-0.1490,-1.8372,1.9869,1.8350,1.6043,-0.5667,-0.5400,
10.790309,0.0352,-0.8029,0.1564,-1.8372,1.9869,1.8350,1.6043,-0.5667,-0.5400,
10.791729,0.0264,-0.8320,0.0321,-1.8372,1.9869,1.8350,1.6043,-0.5667,-0.5400,
10.792820,0.0264,-0.8320,0.0321,-1.8372,1.9869,1.8350,1.8280,-0.2897,-0.5571,
10.793949,0.0264,-0.8320,0.0321,-1.3075,1.8862,0.6843,1.8280,-0.2897,-0.5571,
10.827227,0.0264,-0.8320,0.0321,-1.3075,1.8862,0.6843,1.7204,0.4464,-0.3323,
10.830188,0.0264,-0.8320,0.0321,-1.1905,-2.3744,-4.0095,1.7204,0.4464,-0.3323,
10.866945,0.0264,-0.8320,0.0321,-1.1905,-2.3744,-4.0095,-0.2333,0.0395,0.0853,
10.869307,0.0264,-0.8320,0.0321,-1.1391,-2.3407,-3.8543,-0.2333,0.0395,0.0853,
10.870722,-0.0405,-1.1610,-0.5235,-1.1391,-2.3407,-3.8543,-0.2333,0.0395,0.0853,
10.871953,-0.2015,-1.7371,-0.9720,-1.1391,-2.3407,-3.8543,-0.2333,0.0395,0.0853,
10.873269,-0.2873,-1.6648,-0.8357,-1.1391,-2.3407,-3.8543,-0.2333,0.0395,0.0853,
10.875223,-0.2882,-1.0531,-0.4737,-1.1391,-2.3407,-3.8543,-0.2333,0.0395,0.0853,
10.876332,-0.0933,-0.7956,-0.0080,-1.1391,-2.3407,-3.8543,-0.2333,0.0395,0.0853,
10.906447,-0.0933,-0.7956,-0.0080,-1.1391,-2.3407,-3.8543,-0.8224,0.0895,0.3239,
10.908793,-0.0933,-0.7956,-0.0080,-2.4556,-1.6356,-3.0072,-0.8224,0.0895,0.3239,
10.946535,-0.0933,-0.7956,-0.0080,-2.4556,-1.6356,-3.0072,-0.3196,0.1960,0.2291,
10.948931,-0.0933,-0.7956,-0.0080,0.4759,0.2115,-0.8258,-0.3196,0.1960,0.2291,
10.950356,0.0650,-0.8219,0.0372,0.4759,0.2115,-0.8258,-0.3196,0.1960,0.2291,
10.951495,0.0521,-0.9971,-0.2755,0.4759,0.2115,-0.8258,-0.3196,0.1960,0.2291,
10.952734,0.0899,-1.1232,-0.4531,0.4759,0.2115,-0.8258,-0.3196,0.1960,0.2291,
10.953697,0.2319,-1.0298,-0.2259,0.4759,0.2115,-0.8258,-0.3196,0.1960,0.2291,
10.986149,0.2319,-1.0298,-0.2259,0.4759,0.2115,-0.8258,-0.3078,-0.2418,0.2472,
10.988095,0.2319,-1.0298,-0.2259,0.5768,0.1915,-0.6930,-0.3078,-0.2418,0.2472,
11.025998,0.2319,-1.0298,-0.2259,0.5768,0.1915,-0.6930,0.0192,-0.2514,0.0299,
11.028605,0.2319,-1.0298,-0.2259,2.4005,0.0225,0.0724,0.0192,-0.2514,0.0299,
11.030047,0.3218,-0.9553,-0.0625,2.4005,0.0225,0.0724,0.0192,-0.2514,0.0299,
11.031314,0.2158,-1.0091,-0.1663,2.4005,0.0225,0.0724,0.0192,-0.2514,0.0299,
11.032590,0.0614,-1.0831,-0.1219,2.4005,0.0225,0.0724,0.0192,-0.2514,0.0299,
11.033624,-0.0522,-1.1403,-0.0166,2.4005,0.0225,0.0724,0.0192,-0.2514,0.0299,
11.064750,-0.0522,-1.1403,-0.0166,2.4005,0.0225,0.0724,0.4517,0.4016,0.0203,
11.066734,-0.0522,-1.1403,-0.0166,2.3455,0.0480,-0.1034,0.4517,0.4016,0.0203,
11.105300,-0.0522,-1.1403,-0.0166,2.3455,0.0480,-0.1034,0.7596,0.6403,0.3090,
11.107600,-0.0522,-1.1403,-0.0166,-0.1539,-1.1422,0.4879,0.7596,0.6403,0.3090,
11.108769,-0.0329,-1.1530,-0.0410,-0.1539,-1.1422,0.4879,0.7596,0.6403,0.3090,
11.109920,0.0401,-1.0797,-0.1727,-0.1539,-1.1422,0.4879,0.7596,0.6403,0.3090,
11.110889,0.0829,-1.0230,-0.2565,-0.1539,-1.1422,0.4879,0.7596,0.6403,0.3090,
11.111726,0.1364,-1.0044,-0.1930,-0.1539,-1.1422,0.4879,0.7596,0.6403,0.3090,
11.144577,0.1364,-1.0044,-0.1930,-0.1539,-1.1422,0.4879,0.6413,0.2909,0.4272,
11.147299,0.1364,-1.0044,-0.1930,0.9120,-0.2346,-1.1897,0.6413,0.2909,0.4272,
11.185557,0.1364,-1.0044,-0.1930,0.9120,-0.2346,-1.1897,1.0312,0.2653,0.3239,
11.188587,0.1364,-1.0044,-0.1930,2.3966,0.4927,0.2655,1.0312,0.2653,0.3239,
11.189990,0.1950,-0.9612,-0.0151,2.3966,0.4927,0.2655,1.0312,0.2653,0.3239,
11.190988,0.2561,-0.9324,0.0606,2.3966,0.4927,0.2655,1.0312,0.2653,0.3239,
11.192404,0.2382,-0.9959,-0.0969,2.3966,0.4927,0.2655,1.0312,0.2653,0.3239,
11.193495,0.1051,-1.0447,-0.2643,2.3966,0.4927,0.2655,1.0312,0.2653,0.3239,
11.223439,0.1051,-1.0447,-0.2643,2.3966,0.4927,0.2655,0.9747,0.2578,0.4070,
11.225970,0.1051,-1.0447,-0.2643,2.5118,0.4901,-0.1143,0.9747,0.2578,0.4070,
11.263483,0.0062,-0.9287,-0.2274,2.5118,0.4901,-0.1143,0.9747,0.2578,0.4070,
11.266173,0.0386,-0.8271,-0.0488,2.5118,0.4901,-0.1143,0.9747,0.2578,0.4070,
11.267384,0.0726,-0.8923,0.0277,2.5118,0.4901,-0.1143,0.9747,0.2578,0.4070,
11.268599,0.0726,-0.8923,0.0277,2.5118,0.4901,-0.1143,0.4975,0.0512,0.6765,
11.269750,0.0726,-0.8923,0.0277,0.9989,0.7564,-1.8753,0.4975,0.0512,0.6765,
11.302886,0.0726,-0.8923,0.0277,0.9989,0.7564,-1.8753,0.4975,0.1705,0.6168,
11.304720,0.0726,-0.8923,0.0277,2.2198,0.8329,-0.2683,0.4975,0.1705,0.6168,
11.342734,0.0726,-0.8923,0.0277,2.2198,0.8329,-0.2683,0.1172,0.3260,0.2419,
11.344637,0.0726,-0.8923,0.0277,2.2800,0.8104,-0.2990,0.1172,0.3260,0.2419,
11.346416,0.1537,-0.9275,0.0277,2.2800,0.8104,-0.2990,0.1172,0.3260,0.2419,
11.347200,0.2343,-0.9470,-0.0469,2.2800,0.8104,-0.2990,0.1172,0.3260,0.2419,
11.348304,0.2851,-0.9666,-0.0517,2.2800,0.8104,-0.2990,0.1172,0.3260,0.2419,
11.349583,0.3096,-0.9859,-0.0383,2.2800,0.8104,-0.2990,0.1172,0.3260,0.2419,
11.350568,0.2705,-1.0421,-0.0456,2.2800,0.8104,-0.2990,0.1172,0.3260,0.2419,
11.381705,0.2705,-1.0421,-0.0456,2.2800,0.8104,-0.2990,-0.3686,-0.1810,-0.1693,
11.384199,0.2705,-1.0421,-0.0456,3.4748,0.0741,-0.6207,-0.3686,-0.1810,-0.1693,
11.422191,0.2705,-1.0421,-0.0456,3.4748,0.0741,-0.6207,-0.5475,-0.5177,-0.3621,
11.424424,0.2705,-1.0421,-0.0456,1.5309,-0.2384,-0.3730,-0.5475,-0.5177,-0.3621,
11.425759,0.1933,-1.0929,-0.0605,1.5309,-0.2384,-0.3730,-0.5475,-0.5177,-0.3621,
11.426881,0.1271,-1.0108,-0.0486,1.5309,-0.2384,-0.3730,-0.5475,-0.5177,-0.3621,
11.428173,0.0015,-0.9908,-0.0146,1.5309,-0.2384,-0.3730,-0.5475,-0.5177,-0.3621,
11.429396,-0.1485,-1.0355,-0.0373,1.5309,-0.2384,-0.3730,-0.5475,-0.5177,-0.3621,
11.460852,-0.1485,-1.0355,-0.0373,1.5309,-0.2384,-0.3730,-0.6839,-0.4463,-0.2524,
11.462978,-0.1485,-1.0355,-0.0373,1.4110,-0.2344,-0.1111,-0.6839,-0.4463,-0.2524,
11.501098,-0.1485,-1.0355,-0.0373,1.4110,-0.2344,-0.1111,-1.1441,-0.6199,0.0427,
11.503769,-0.1485,-1.0355,-0.0373,-1.2325,0.2412,-0.3181,-1.1441,-0.6199,0.0427,
11.504976,-0.2142,-0.9915,-0.1094,-1.2325,0.2412,-0.3181,-1.1441,-0.6199,0.0427,
11.506498,-0.1399,-0.9133,-0.1761,-1.2325,0.2412,-0.3181,-1.1441,-0.6199,0.0427,
11.507660,-0.0019,-0.9072,-0.1663,-1.2325,0.2412,-0.3181,-1.1441,-0.6199,0.0427,
11.508841,0.0523,-0.9705,-0.1336,-1.2325,0.2412,-0.3181,-1.1441,-0.6199,0.0427,
11.540598,0.0523,-0.9705,-0.1336,-1.2325,0.2412,-0.3181,-1.5201,-0.8788,-0.1331,
11.543355,0.0523,-0.9705,-0.1336,-1.2277,0.1785,0.2552,-1.5201,-0.8788,-0.1331,
11.580103,0.0523,-0.9705,-0.1336,-1.2277,0.1785,0.2552,-1.8365,-0.3014,-0.4271,
11.582753,0.0523,-0.9705,-0.1336,0.4407,0.1440,0.3933,-1.8365,-0.3014,-0.4271,
11.584002,0.0047,-1.0372,-0.1939,0.4407,0.1440,0.3933,-1.8365,-0.3014,-0.4271,
11.584820,-0.1075,-1.0618,-0.3002,0.4407,0.1440,0.3933,-1.8365,-0.3014,-0.4271,
11.586288,-0.1673,-1.0902,-0.4575,0.4407,0.1440,0.3933,-1.8365,-0.3014,-0.4271,
11.587298,-0.1468,-1.1737,-0.5452,0.4407,0.1440,0.3933,-1.8365,-0.3014,-0.4271,
11.619825,-0.1468,-1.1737,-0.5452,0.4407,0.1440,0.3933,-2.2722,0.3857,-0.4985,
11.622292,-0.1468,-1.1737,-0.5452,-1.3220,-1.3915,-1.3635,-2.2722,0.3857,-0.4985,
11.659408,-0.1468,-1.1737,-0.5452,-1.3220,-1.3915,-1.3635,-1.5585,0.4368,-0.4069,
11.661555,-0.1468,-1.1737,-0.5452,-2.7456,-3.2395,1.6695,-1.5585,0.4368,-0.4069,
11.662975,-0.1905,-1.2673,-0.3303,-2.7456,-3.2395,1.6695,-1.5585,0.4368,-0.4069,
11.664087,-0.3398,-1.3213,-0.0842,-2.7456,-3.2395,1.6695,-1.5585,0.4368,-0.4069,
11.665059,-0.2780,-1.2592,-0.1285,-2.7456,-3.2395,1.6695,-1.5585,0.4368,-0.4069,
11.666253,-0.0591,-1.0985,-0.1495,-2.7456,-3.2395,1.6695,-1.5585,0.4368,-0.4069,
11.699244,-0.0591,-1.0985,-0.1495,-2.7456,-3.2395,1.6695,-0.7148,-0.3004,-0.1448,
11.701684,-0.0591,-1.0985,-0.1495,-2.7095,-3.2857,1.9015,-0.7148,-0.3004,-0.1448,
11.739567,-0.0591,-1.0985,-0.1495,-2.7095,-3.2857,1.9015,-0.1065,-0.7531,-0.2588,
11.742073,-0.0591,-1.0985,-0.1495,0.4998,-0.2421,2.2515,-0.1065,-0.7531,-0.2588,
11.743489,0.0895,-0.9448,-0.1033,0.4998,-0.2421,2.2515,-0.1065,-0.7531,-0.2588,
11.744451,0.1415,-0.8691,-0.1839,0.4998,-0.2421,2.2515,-0.1065,-0.7531,-0.2588,
11.745648,0.0670,-0.8481,-0.2516,0.4998,-0.2421,2.2515,-0.1065,-0.7531,-0.2588,
11.746846,-0.0830,-0.8222,-0.2829,0.4998,-0.2421,2.2515,-0.1065,-0.7531,-0.2588,
11.778964,-0.0830,-0.8222,-0.2829,0.4998,-0.2421,2.2515,0.1832,-0.2162,-0.5177,
11.781391,-0.0830,-0.8222,-0.2829,0.3350,-0.2147,2.1485,0.1832,-0.2162,-0.5177,
11.819062,-0.0830,-0.8222,-0.2829,0.3350,-0.2147,2.1485,0.2834,0.2589,-0.5102,
11.821400,-0.0830,-0.8222,-0.2829,-1.1437,1.4221,0.8415,0.2834,0.2589,-0.5102,
11.822656,-0.2020,-0.7438,-0.2648,-1.1437,1.4221,0.8415,0.2834,0.2589,-0.5102,
11.825666,-0.2460,-0.5991,-0.2101,-1.1437,1.4221,0.8415,0.2834,0.2589,-0.5102,
11.826966,-0.2108,-0.4174,-0.0921,-1.1437,1.4221,0.8415,0.2834,0.2589,-0.5102,
11.828125,-0.1192,-0.3060,-0.0493,-1.1437,1.4221,0.8415,0.2834,0.2589,-0.5102,
11.857786,-0.1192,-0.3060,-0.0493,-1.1437,1.4221,0.8415,0.7106,0.5135,-0.4175,
11.859823,-0.1192,-0.3060,-0.0493,-2.4928,4.9878,1.9959,0.7106,0.5135,-0.4175,
11.897814,-0.1192,-0.3060,-0.0493,-2.4928,4.9878,1.9959,0.5390,0.2973,-0.3121,
11.900509,-0.1192,-0.3060,-0.0493,-1.3664,0.9759,-2.7271,0.5390,0.2973,-0.3121,
11.901940,-0.0058,-0.4061,-0.2149,-1.3664,0.9759,-2.7271,0.5390,0.2973,-0.3121,
11.903100,-0.0520,-0.7951,-0.6574,-1.3664,0.9759,-2.7271,0.5390,0.2973,-0.3121,
11.904166,-0.1341,-1.3616,-0.8755,-1.3664,0.9759,-2.7271,0.5390,0.2973,-0.3121,
11.905353,-0.0073,-1.8424,-0.3925,-1.3664,0.9759,-2.7271,0.5390,0.2973,-0.3121,
11.936771,-0.0073,-1.8424,-0.3925,-1.3664,0.9759,-2.7271,0.3036,0.4602,-0.1416,
11.939426,-0.0073,-1.8424,-0.3925,-1.4474,0.9898,-2.8067,0.3036,0.4602,-0.1416,
11.976502,-0.0073,-1.8424,-0.3925,-1.4474,0.9898,-2.8067,0.2120,0.6030,0.1076,
11.978969,-0.0073,-1.8424,-0.3925,-2.5582,-5.8804,-2.0308,0.2120,0.6030,0.1076,
11.980429,-0.2086,-1.6404,-0.4942,-2.5582,-5.8804,-2.0308,0.2120,0.6030,0.1076,
11.981633,-0.3207,-1.2221,-0.6039,-2.5582,-5.8804,-2.0308,0.2120,0.6030,0.1076,
11.983158,0.0406,-1.0015,-0.0984,-2.5582,-5.8804,-2.0308,0.2120,0.6030,0.1076,
11.985383,0.2009,-0.8974,-0.0625,-2.5582,-5.8804,-2.0308,0.2120,0.6030,0.1076,
12.015402,0.2009,-0.8974,-0.0625,-2.5582,-5.8804,-2.0308,0.5657,0.4294,0.0491,
12.017332,0.2009,-0.8974,-0.0625,-2.5433,-5.7207,-2.2206,0.5657,0.4294,0.0491,
12.056192,0.2009,-0.8974,-0.0625,-2.5433,-5.7207,-2.2206,0.7201,-0.2929,0.2248,
12.058418,0.2009,-0.8974,-0.0625,0.1061,0.9518,0.8934,0.7201,-0.2929,0.2248,
12.059645,-0.0017,-0.7824,-0.2897,0.1061,0.9518,0.8934,0.7201,-0.2929,0.2248,
12.060606,-0.1719,-0.7577,-0.2560,0.1061,0.9518,0.8934,0.7201,-0.2929,0.2248,
12.061698,-0.1517,-0.8842,-0.1732,0.1061,0.9518,0.8934,0.7201,-0.2929,0.2248,
12.062726,-0.0412,-1.0604,-0.2213,0.1061,0.9518,0.8934,0.7201,-0.2929,0.2248,
12.095651,-0.0412,-1.0604,-0.2213,0.1061,0.9518,0.8934,0.3984,0.2419,0.4581,
12.097618,-0.0412,-1.0604,-0.2213,-1.6853,0.9146,0.0801,0.3984,0.2419,0.4581,
12.135529,-0.0412,-1.0604,-0.2213,-1.6853,0.9146,0.0801,0.4027,0.6882,0.2472,
12.137853,-0.0412,-1.0604,-0.2213,2.1415,-0.5186,1.5417,0.4027,0.6882,0.2472,
12.139267,0.1058,-1.1273,-0.1539,2.1415,-0.5186,1.5417,0.4027,0.6882,0.2472,
12.140466,0.2925,-1.0643,-0.0478,2.1415,-0.5186,1.5417,0.4027,0.6882,0.2472,
12.142058,0.4078,-0.9639,0.0582,2.1415,-0.5186,1.5417,0.4027,0.6882,0.2472,
12.143251,0.2624,-0.9526,-0.0960,2.1415,-0.5186,1.5417,0.4027,0.6882,0.2472,
12.175223,0.2624,-0.9526,-0.0960,2.1415,-0.5186,1.5417,0.5273,0.4219,0.0682,
12.176966,0.2624,-0.9526,-0.0960,2.1003,-0.4695,1.3062,0.5273,0.4219,0.0682,
12.215038,0.2624,-0.9526,-0.0960,2.1003,-0.4695,1.3062,0.3643,0.3100,0.3793,
12.217504,0.2624,-0.9526,-0.0960,0.5307,-0.1269,-0.4293,0.3643,0.3100,0.3793,
12.218905,0.0005,-1.0264,-0.3664,0.5307,-0.1269,-0.4293,0.3643,0.3100,0.3793,
12.220058,0.0264,-1.0819,-0.1693,0.5307,-0.1269,-0.4293,0.3643,0.3100,0.3793,
12.221043,0.1095,-1.1339,-0.0517,0.5307,-0.1269,-0.4293,0.3643,0.3100,0.3793,
12.222388,0.1752,-1.1456,-0.1045,0.5307,-0.1269,-0.4293,0.3643,0.3100,0.3793,
12.254122,0.1752,-1.1456,-0.1045,0.5307,-0.1269,-0.4293,0.6797,0.1311,0.5700,
12.256584,0.1752,-1.1456,-0.1045,0.7339,-0.0782,-0.6861,0.6797,0.1311,0.5700,
12.293873,0.1752,-1.1456,-0.1045,1.8151,-0.9309,0.1566,0.6797,0.1311,0.5700,
12.296404,0.1752,-1.1456,-0.1045,1.8151,-0.9309,0.1566,0.9321,-0.3185,0.6680,
12.297744,0.2600,-1.0614,-0.1043,1.8151,-0.9309,0.1566,0.9321,-0.3185,0.6680,
12.298810,0.2502,-0.9768,-0.1277,1.8151,-0.9309,0.1566,0.9321,-0.3185,0.6680,
12.299939,0.1598,-0.9612,-0.2416,1.8151,-0.9309,0.1566,0.9321,-0.3185,0.6680,
12.301037,0.0965,-0.9077,-0.2188,1.8151,-0.9309,0.1566,0.9321,-0.3185,0.6680,
12.333226,0.0965,-0.9077,-0.2188,1.8151,-0.9309,0.1566,0.7457,-0.3345,0.7255,
12.335565,0.0965,-0.9077,-0.2188,1.9562,0.6951,-1.1914,0.7457,-0.3345,0.7255,
12.373390,0.0965,-0.9077,-0.2188,1.9562,0.6951,-1.1914,0.5849,0.0448,0.6115,
12.375634,0.0965,-0.9077,-0.2188,1.9709,2.1698,0.0623,0.5849,0.0448,0.6115,
12.376978,0.1180,-0.7948,-0.1434,1.9709,2.1698,0.0623,0.5849,0.0448,0.6115,
12.378225,0.1571,-0.7403,-0.0368,1.9709,2.1698,0.0623,0.5849,0.0448,0.6115,
12.379282,0.1723,-0.8491,0.0467,1.9709,2.1698,0.0623,0.5849,0.0448,0.6115,
12.380683,0.1117,-1.0316,-0.0019,1.9709,2.1698,0.0623,0.5849,0.0448,0.6115,
12.412772,0.1117,-1.0316,-0.0019,1.9709,2.1698,0.0623,0.4613,0.3281,0.4081,
12.414820,0.1117,-1.0316,-0.0019,2.0914,2.1317,-0.1100,0.4613,0.3281,0.4081,
12.452337,0.1117,-1.0316,-0.0019,2.0914,2.1317,-0.1100,-0.2397,0.5029,0.2110,
12.454684,0.1117,-1.0316,-0.0019,1.0951,-0.2476,-0.7997,-0.2397,0.5029,0.2110,
12.456250,0.0233,-1.0565,-0.1453,1.0951,-0.2476,-0.7997,-0.2397,0.5029,0.2110,
12.457367,-0.0100,-1.0230,-0.2345,1.0951,-0.2476,-0.7997,-0.2397,0.5029,0.2110,
12.458465,0.1290,-1.0526,-0.1651,1.0951,-0.2476,-0.7997,-0.2397,0.5029,0.2110,
12.459366,0.3284,-0.9541,-0.0469,1.0951,-0.2476,-0.7997,-0.2397,0.5029,0.2110,
12.491638,0.3284,-0.9541,-0.0469,1.0951,-0.2476,-0.7997,-0.6487,0.4421,-0.1374,
12.494369,0.3284,-0.9541,-0.0469,1.0141,-0.2547,-0.5243,-0.6487,0.4421,-0.1374,
12.531351,0.3284,-0.9541,-0.0469,1.0141,-0.2547,-0.5243,-0.6583,-0.3632,-0.3813,
12.533619,0.3284,-0.9541,-0.0469,3.0586,0.5511,0.3376,-0.6583,-0.3632,-0.3813,
12.534947,0.3511,-0.8505,0.0191,3.0586,0.5511,0.3376,-0.6583,-0.3632,-0.3813,
12.536061,0.2214,-0.8867,-0.0349,3.0586,0.5511,0.3376,-0.6583,-0.3632,-0.3813,
12.537184,0.0518,-0.9570,-0.1285,3.0586,0.5511,0.3376,-0.6583,-0.3632,-0.3813,
12.538170,-0.0171,-0.9678,-0.0776,3.0586,0.5511,0.3376,-0.6583,-0.3632,-0.3813,
12.571226,-0.0171,-0.9678,-0.0776,3.0586,0.5511,0.3376,-0.9864,-1.2857,-0.2695,
12.573731,-0.0171,-0.9678,-0.0776,1.1879,0.6485,0.5376,-0.9864,-1.2857,-0.2695,
12.611470,-0.0171,-0.9678,-0.0776,1.1879,0.6485,0.5376,-1.2027,-0.5305,-0.3707,
12.614201,-0.0171,-0.9678,-0.0776,-1.9569,-0.6669,1.0004,-1.2027,-0.5305,-0.3707,
12.616522,-0.0759,-0.9705,-0.0217,-1.9569,-0.6669,1.0004,-1.2027,-0.5305,-0.3707,
12.617684,-0.2215,-1.0648,-0.0640,-1.9569,-0.6669,1.0004,-1.2027,-0.5305,-0.3707,
12.623334,-0.3847,-1.1610,-0.1495,-1.9569,-0.6669,1.0004,-1.2027,-0.5305,-0.3707,
12.624923,-0.4439,-1.1439,-0.2325,-1.9569,-0.6669,1.0004,-1.2027,-0.5305,-0.3707,
12.650586,-0.4439,-1.1439,-0.2325,-1.9569,-0.6669,1.0004,-1.4967,1.1804,-0.2727,
12.653857,-0.4439,-1.1439,-0.2325,-2.1253,-0.7740,1.5578,-1.4967,1.1804,-0.2727,
12.689227,-0.4126,-1.0391,-0.3127,-2.1253,-0.7740,1.5578,-1.4967,1.1804,-0.2727,
12.690762,-0.4226,-1.0335,-0.4062,-2.1253,-0.7740,1.5578,-1.4967,1.1804,-0.2727,
12.691456,-0.3938,-1.1110,-0.4881,-2.1253,-0.7740,1.5578,-1.4967,1.1804,-0.2727,
12.692315,-0.3938,-1.1110,-0.4881,-2.1253,-0.7740,1.5578,-1.7204,1.1580,-0.0426,
12.692880,-0.3938,-1.1110,-0.4881,-4.1425,-1.0042,-0.1252,-1.7204,1.1580,-0.0426,
12.728761,-0.3938,-1.1110,-0.4881,-4.1425,-1.0042,-0.1252,-1.5691,0.8981,0.3367,
12.730159,-0.3938,-1.1110,-0.4881,-2.4371,-1.6063,0.6457,-1.5691,0.8981,0.3367,
12.769518,-0.3938,-1.1110,-0.4881,-2.4371,-1.6063,0.6457,-0.9204,0.8821,0.2706,
12.772458,-0.3938,-1.1110,-0.4881,-2.4277,-1.7141,0.9696,-0.9204,0.8821,0.2706,
12.773709,-0.2367,-1.1403,-0.3153,-2.4277,-1.7141,0.9696,-0.9204,0.8821,0.2706,
12.774823,-0.1419,-1.0956,-0.0879,-2.4277,-1.7141,0.9696,-0.9204,0.8821,0.2706,
12.775885,-0.0129,-1.0086,0.1139,-2.4277,-1.7141,0.9696,-0.9204,0.8821,0.2706,
12.776856,-0.0850,-0.9588,0.2219,-2.4277,-1.7141,0.9696,-0.9204,0.8821,0.2706,
12.777691,-0.3781,-0.9067,0.0660,-2.4277,-1.7141,0.9696,-0.9204,0.8821,0.2706,
12.809081,-0.3781,-0.9067,0.0660,-2.4277,-1.7141,0.9696,-0.1363,0.4986,-0.0628,
12.810798,-0.3781,-0.9067,0.0660,-1.5341,-0.1877,5.1572,-0.1363,0.4986,-0.0628,
12.849130,-0.3781,-0.9067,0.0660,-1.5341,-0.1877,5.1572,0.2003,0.0959,0.1055,
12.850847,-0.3781,-0.9067,0.0660,-1.4136,1.0214,-0.9201,0.2003,0.0959,0.1055,
12.852703,-0.4282,-0.8129,-0.2963,-1.4136,1.0214,-0.9201,0.2003,0.0959,0.1055,
12.853829,-0.1343,-0.8109,-0.5677,-1.4136,1.0214,-0.9201,0.2003,0.0959,0.1055,
12.855075,0.1088,-0.8840,-0.5770,-1.4136,1.0214,-0.9201,0.2003,0.0959,0.1055,
12.856456,0.1432,-0.8183,-0.3383,-1.4136,1.0214,-0.9201,0.2003,0.0959,0.1055,
12.887975,0.1432,-0.8183,-0.3383,-1.4136,1.0214,-0.9201,0.4655,0.5273,-0.0617,
12.890269,0.1432,-0.8183,-0.3383,-1.4883,1.0716,-1.0722,0.4655,0.5273,-0.0617,
12.928849,-0.0034,-0.7579,-0.3263,-1.4883,1.0716,-1.0722,0.4655,0.5273,-0.0617,
12.931091,-0.2298,-0.8786,-0.3913,-1.4883,1.0716,-1.0722,0.4655,0.5273,-0.0617,
12.932324,-0.3862,-0.9346,-0.3237,-1.4883,1.0716,-1.0722,0.4655,0.5273,-0.0617,
12.933608,-0.3862,-0.9346,-0.3237,-1.4883,1.0716,-1.0722,0.8501,0.5561,-0.2205,
12.934459,-0.3862,-0.9346,-0.3237,-0.4508,1.3385,-0.1282,0.8501,0.5561,-0.2205,
12.967847,-0.3862,-0.9346,-0.3237,-0.4508,1.3385,-0.1282,0.8096,-0.3579,0.0363,
12.970289,-0.3862,-0.9346,-0.3237,-2.8578,-0.2230,-1.7231,0.8096,-0.3579,0.0363,
13.007040,-0.3862,-0.9346,-0.3237,-2.8578,-0.2230,-1.7231,0.3963,0.2770,0.0341,
13.009075,-0.3862,-0.9346,-0.3237,-2.8292,-0.1733,-1.8415,0.3963,0.2770,0.0341,
13.012204,-0.2939,-0.9370,-0.4497,-2.8292,-0.1733,-1.8415,0.3963,0.2770,0.0341,
13.013369,-0.1793,-1.0936,-0.6879,-2.8292,-0.1733,-1.8415,0.3963,0.2770,0.0341,
13.014489,-0.0124,-1.2954,-0.5753,-2.8292,-0.1733,-1.8415,0.3963,0.2770,0.0341,
13.015951,-0.0713,-1.2505,-0.4715,-2.8292,-0.1733,-1.8415,0.3963,0.2770,0.0341,
13.017084,-0.0720,-1.0298,-0.2626,-2.8292,-0.1733,-1.8415,0.3963,0.2770,0.0341,
13.047134,-0.0720,-1.0298,-0.2626,-0.5358,-2.0648,-1.5488,0.3963,0.2770,0.0341,
13.049785,-0.0720,-1.0298,-0.2626,-0.5358,-2.0648,-1.5488,0.6072,0.2493,0.0363,
13.086270,-0.0720,-1.0298,-0.2626,-0.5358,-2.0648,-1.5488,0.6786,-1.1355,0.2142,
13.089040,-0.0720,-1.0298,-0.2626,1.0284,0.4925,-0.3180,0.6786,-1.1355,0.2142,
13.090393,0.0357,-0.9289,-0.3119,1.0284,0.4925,-0.3180,0.6786,-1.1355,0.2142,
13.091387,0.0755,-0.9705,-0.3884,1.0284,0.4925,-0.3180,0.6786,-1.1355,0.2142,
13.092876,0.1566,-0.9121,-0.1534,1.0284,0.4925,-0.3180,0.6786,-1.1355,0.2142,
13.093714,0.3008,-0.8134,-0.0459,1.0284,0.4925,-0.3180,0.6786,-1.1355,0.2142,
13.126000,0.3008,-0.8134,-0.0459,1.0284,0.4925,-0.3180,0.8533,-2.0772,0.0704,
13.128644,0.3008,-0.8134,-0.0459,1.2233,0.5601,-0.6577,0.8533,-2.0772,0.0704,
13.165936,0.3558,-0.8728,-0.1587,1.2233,0.5601,-0.6577,0.8533,-2.0772,0.0704,
13.168373,0.3281,-1.1642,-0.4575,1.2233,0.5601,-0.6577,0.8533,-2.0772,0.0704,
13.169562,0.5253,-1.1698,-0.4351,1.2233,0.5601,-0.6577,0.8533,-2.0772,0.0704,
13.170808,0.5253,-1.1698,-0.4351,1.2233,0.5601,-0.6577,0.7638,-1.6373,-0.2972,
13.172264,0.5253,-1.1698,-0.4351,3.5181,0.4890,-0.3462,0.7638,-1.6373,-0.2972,
13.205906,0.5253,-1.1698,-0.4351,3.5181,0.4890,-0.3462,0.2109,-1.5084,-0.7275,
13.208082,0.5253,-1.1698,-0.4351,4.4009,0.9136,-1.2538,0.2109,-1.5084,-0.7275,
13.246330,0.5253,-1.1698,-0.4351,4.4009,0.9136,-1.2538,-0.3707,-1.9963,-0.4346,
13.248830,0.5253,-1.1698,-0.4351,4.3015,0.8726,-1.0931,-0.3707,-1.9963,-0.4346,
13.250112,0.6455,-0.7960,-0.1778,4.3015,0.8726,-1.0931,-0.3707,-1.9963,-0.4346,
13.251193,0.1615,-0.7562,-0.3044,4.3015,0.8726,-1.0931,-0.3707,-1.9963,-0.4346,
13.252553,-0.2736,-0.8400,-0.2785,4.3015,0.8726,-1.0931,-0.3707,-1.9963,-0.4346,
13.253646,-0.1610,-0.8886,-0.1993,4.3015,0.8726,-1.0931,-0.3707,-1.9963,-0.4346,
13.254908,-0.0774,-1.0382,-0.2548,4.3015,0.8726,-1.0931,-0.3707,-1.9963,-0.4346,
13.284526,-0.0774,-1.0382,-0.2548,4.3015,0.8726,-1.0931,-0.5209,-1.0876,-0.1459,
13.286818,-0.0774,-1.0382,-0.2548,-1.6657,0.6734,-0.2819,-0.5209,-1.0876,-0.1459,
13.324824,-0.0774,-1.0382,-0.2548,-1.6657,0.6734,-0.2819,-0.2535,-0.2854,-0.2535,
13.327029,-0.0774,-1.0382,-0.2548,0.8093,-0.2689,1.7954,-0.2535,-0.2854,-0.2535,
13.328378,-0.0127,-1.0413,-0.0202,0.8093,-0.2689,1.7954,-0.2535,-0.2854,-0.2535,
13.329310,0.1193,-0.9675,0.0059,0.8093,-0.2689,1.7954,-0.2535,-0.2854,-0.2535,
13.330597,0.1657,-1.0411,-0.1028,0.8093,-0.2689,1.7954,-0.2535,-0.2854,-0.2535,
13.331531,0.1857,-1.1627,-0.1700,0.8093,-0.2689,1.7954,-0.2535,-0.2854,-0.2535,
13.363993,0.1857,-1.1627,-0.1700,0.8093,-0.2689,1.7954,0.0735,-0.3302,-0.1874,
13.366265,0.1857,-1.1627,-0.1700,0.7530,-0.2590,1.7391,0.0735,-0.3302,-0.1874,
13.393616,0.1193,-1.2031,-0.2101,0.7530,-0.2590,1.7391,0.0735,-0.3302,-0.1874,
13.395755,0.0479,-1.1491,-0.2025,0.7530,-0.2590,1.7391,0.0735,-0.3302,-0.1874,
13.397076,0.0470,-1.0936,-0.1194,0.7530,-0.2590,1.7391,0.0735,-0.3302,-0.1874,
13.404143,0.0470,-1.0936,-0.1194,1.0545,-1.7233,0.1016,0.0735,-0.3302,-0.1874,
13.406919,0.0470,-1.0936,-0.1194,1.0545,-1.7233,0.1016,0.3068,-0.5986,0.0182,
13.443147,0.0470,-1.0936,-0.1194,1.0545,-1.7233,0.1016,0.7297,-0.4857,0.1055,
13.445563,0.0470,-1.0936,-0.1194,0.0754,-0.6243,0.4960,0.7297,-0.4857,0.1055,
13.480600,0.0147,-1.0653,-0.0979,0.0754,-0.6243,0.4960,0.7297,-0.4857,0.1055,
13.483336,-0.0317,-1.0394,-0.1556,0.0754,-0.6243,0.4960,0.7297,-0.4857,0.1055,
13.484838,-0.0300,-1.0237,-0.1805,0.0754,-0.6243,0.4960,0.7297,-0.4857,0.1055,
13.486375,0.0169,-0.9815,-0.1827,0.0754,-0.6243,0.4960,0.7297,-0.4857,0.1055,
13.488099,0.0169,-0.9815,-0.1827,0.0754,-0.6243,0.4960,1.0472,-0.6924,0.2419,
13.489200,0.0169,-0.9815,-0.1827,0.2078,-0.5527,0.0842,1.0472,-0.6924,0.2419,
13.522544,0.0169,-0.9815,-0.1827,0.2078,-0.5527,0.0842,0.9428,-0.9235,0.3175,
13.525331,0.0169,-0.9815,-0.1827,0.4248,0.5372,-0.9145,0.9428,-0.9235,0.3175,
13.563070,0.0169,-0.9815,-0.1827,0.4248,0.5372,-0.9145,0.3814,-0.9054,0.4432,
13.565760,0.0169,-0.9815,-0.1827,0.6190,0.5346,-1.0599,0.3814,-0.9054,0.4432,
13.566978,0.0611,-0.8686,-0.2047,0.6190,0.5346,-1.0599,0.3814,-0.9054,0.4432,
13.567954,0.0223,-0.7848,-0.2758,0.6190,0.5346,-1.0599,0.3814,-0.9054,0.4432,
13.569136,0.0022,-0.8048,-0.3092,0.6190,0.5346,-1.0599,0.3814,-0.9054,0.4432,
13.570378,0.0780,-0.8984,-0.2557,0.6190,0.5346,-1.0599,0.3814,-0.9054,0.4432,
13.571517,0.1808,-0.9949,-0.1675,0.6190,0.5346,-1.0599,0.3814,-0.9054,0.4432,
13.601491,0.1808,-0.9949,-0.1675,0.6190,0.5346,-1.0599,-0.1725,-1.1014,0.3974,
13.603947,0.1808,-0.9949,-0.1675,0.9716,1.7508,-1.8762,-0.1725,-1.1014,0.3974,
13.640708,0.1808,-0.9949,-0.1675,0.9716,1.7508,-1.8762,-0.3696,-1.0503,-0.1267,
13.642912,0.1808,-0.9949,-0.1675,2.4716,0.0854,0.5912,-0.3696,-1.0503,-0.1267,
13.644487,0.2395,-1.0054,-0.0422,2.4716,0.0854,0.5912,-0.3696,-1.0503,-0.1267,
13.645868,0.1576,-0.9939,0.0914,2.4716,0.0854,0.5912,-0.3696,-1.0503,-0.1267,
13.647097,-0.0009,-1.0479,0.1366,2.4716,0.0854,0.5912,-0.3696,-1.0503,-0.1267,
13.648371,-0.1461,-1.0851,0.1107,2.4716,0.0854,0.5912,-0.3696,-1.0503,-0.1267,
13.680777,-0.1461,-1.0851,0.1107,2.4716,0.0854,0.5912,-0.3366,-0.4197,-0.4420,
13.683355,-0.1461,-1.0851,0.1107,2.2773,0.0791,0.7019,-0.3366,-0.4197,-0.4420,
13.720627,-0.2824,-1.0633,0.0912,2.2773,0.0791,0.7019,-0.3366,-0.4197,-0.4420,
13.723317,-0.3864,-1.0191,0.0176,2.2773,0.0791,0.7019,-0.3366,-0.4197,-0.4420,
13.724493,-0.4297,-0.9842,-0.0811,2.2773,0.0791,0.7019,-0.3366,-0.4197,-0.4420,
13.725789,-0.4297,-0.9842,-0.0811,2.2773,0.0791,0.7019,-0.4410,0.1769,-0.2567,
13.726841,-0.4297,-0.9842,-0.0811,-1.1033,-0.5880,2.3292,-0.4410,0.1769,-0.2567,
13.760105,-0.4297,-0.9842,-0.0811,-1.1033,-0.5880,2.3292,-0.9193,0.4400,0.0714,
13.762894,-0.4297,-0.9842,-0.0811,-3.5710,0.0902,1.0278,-0.9193,0.4400,0.0714,
13.800527,-0.4297,-0.9842,-0.0811,-3.5710,0.0902,1.0278,-1.3284,1.0025,0.1449,
13.803259,-0.4297,-0.9842,-0.0811,-3.5284,-0.0082,1.5296,-1.3284,1.0025,0.1449,
13.804689,-0.3882,-0.9690,-0.1023,-3.5284,-0.0082,1.5296,-1.3284,1.0025,0.1449,
13.805964,-0.2772,-0.9485,-0.0495,-3.5284,-0.0082,1.5296,-1.3284,1.0025,0.1449,
13.807224,-0.2120,-0.9438,0.0145,-3.5284,-0.0082,1.5296,-1.3284,1.0025,0.1449,
13.808045,-0.2323,-0.9529,0.0237,-3.5284,-0.0082,1.5296,-1.3284,1.0025,0.1449,
13.809225,-0.2687,-0.9463,0.0465,-3.5284,-0.0082,1.5296,-1.3284,1.0025,0.1449,
13.839370,-0.2687,-0.9463,0.0465,-3.5284,-0.0082,1.5296,-1.4424,1.7449,0.1843,
13.842082,-0.2687,-0.9463,0.0465,-2.0113,0.2648,2.5661,-1.4424,1.7449,0.1843,
13.878868,-0.2687,-0.9463,0.0465,-2.0113,0.2648,2.5661,-1.1419,2.1615,0.3601,
13.880869,-0.2687,-0.9463,0.0465,-2.3812,0.5934,3.3410,-1.1419,2.1615,0.3601,
13.882452,-0.2716,-0.9018,0.0580,-2.3812,0.5934,3.3410,-1.1419,2.1615,0.3601,
13.886366,-0.2736,-0.8530,-0.0004,-2.3812,0.5934,3.3410,-1.1419,2.1615,0.3601,
13.887442,-0.3283,-0.8398,-0.1084,-2.3812,0.5934,3.3410,-1.1419,2.1615,0.3601,
13.888428,-0.2961,-0.9890,-0.2943,-2.3812,0.5934,3.3410,-1.1419,2.1615,0.3601,
13.918230,-0.2961,-0.9890,-0.2943,-2.3812,0.5934,3.3410,-0.6370,1.5127,0.8991,
13.920578,-0.2961,-0.9890,-0.2943,-2.1982,0.4940,3.5372,-0.6370,1.5127,0.8991,
13.958031,-0.0014,-1.0936,-0.4805,-2.1982,0.4940,3.5372,-0.6370,1.5127,0.8991,
13.960266,0.3545,-1.0931,-0.6019,-2.1982,0.4940,3.5372,-0.6370,1.5127,0.8991,
13.961720,0.2607,-1.0362,-0.4187,-2.1982,0.4940,3.5372,-0.6370,1.5127,0.8991,
13.963277,0.2607,-1.0362,-0.4187,-2.1982,0.4940,3.5372,-0.7659,1.3796,0.9449,
13.964921,0.2607,-1.0362,-0.4187,-1.3962,-0.3453,0.6124,-0.7659,1.3796,0.9449,
13.996612,0.2607,-1.0362,-0.4187,-1.3962,-0.3453,0.6124,-0.2386,1.9825,0.7266,
13.997920,0.2607,-1.0362,-0.4187,2.8553,-0.9946,-0.4869,-0.2386,1.9825,0.7266,
14.036114,0.2607,-1.0362,-0.4187,2.8553,-0.9946,-0.4869,0.9268,1.7939,0.5071,
14.038177,0.2607,-1.0362,-0.4187,2.7426,-0.8626,-0.7732,0.9268,1.7939,0.5071,
14.039465,0.0807,-0.9810,-0.2440,2.7426,-0.8626,-0.7732,0.9268,1.7939,0.5071,
14.040585,0.0103,-0.9426,-0.2061,2.7426,-0.8626,-0.7732,0.9268,1.7939,0.5071,
14.041668,-0.0080,-0.8911,-0.1873,2.7426,-0.8626,-0.7732,0.9268,1.7939,0.5071,
14.042788,-0.0354,-0.8249,-0.1690,2.7426,-0.8626,-0.7732,0.9268,1.7939,0.5071,
14.043898,-0.0698,-0.7904,-0.2247,2.7426,-0.8626,-0.7732,0.9268,1.7939,0.5071,
14.075883,-0.0698,-0.7904,-0.2247,2.7426,-0.8626,-0.7732,1.5223,0.9865,0.2610,
14.077239,-0.0698,-0.7904,-0.2247,0.3297,0.7813,0.9553,1.5223,0.9865,0.2610,
14.116861,-0.0698,-0.7904,-0.2247,0.3297,0.7813,0.9553,1.9527,0.1662,0.1716,
14.119062,-0.0698,-0.7904,-0.2247,0.1278,1.8155,1.0164,1.9527,0.1662,0.1716,
14.120376,-0.0439,-0.7992,-0.0891,0.1278,1.8155,1.0164,1.9527,0.1662,0.1716,
14.121657,0.0052,-0.7995,0.0010,0.1278,1.8155,1.0164,1.9527,0.1662,0.1716,
14.122864,0.1200,-0.8493,-0.1893,0.1278,1.8155,1.0164,1.9527,0.1662,0.1716,
14.124119,0.2243,-0.9285,-0.2895,0.1278,1.8155,1.0164,1.9527,0.1662,0.1716,
14.156109,0.2243,-0.9285,-0.2895,0.1278,1.8155,1.0164,2.2903,0.2696,-0.0916,
14.158392,0.2243,-0.9285,-0.2895,0.0744,1.9297,0.1390,2.2903,0.2696,-0.0916,
14.196304,0.2243,-0.9285,-0.2895,0.0744,1.9297,0.1390,2.0283,-0.0159,-0.2524,
14.198618,0.2243,-0.9285,-0.2895,1.9748,0.7496,-1.8433,2.0283,-0.0159,-0.2524,
14.201263,0.1691,-0.9888,-0.2101,1.9748,0.7496,-1.8433,2.0283,-0.0159,-0.2524,
14.202491,-0.0505,-1.0899,-0.2755,1.9748,0.7496,-1.8433,2.0283,-0.0159,-0.2524,
14.203530,-0.2123,-1.3521,-0.5193,1.9748,0.7496,-1.8433,2.0283,-0.0159,-0.2524,
14.204784,-0.0872,-1.6509,-0.6811,1.9748,0.7496,-1.8433,2.0283,-0.0159,-0.2524,
14.236078,-0.0872,-1.6509,-0.6811,1.9748,0.7496,-1.8433,0.9012,-0.6476,0.1140,
14.238314,-0.0872,-1.6509,-0.6811,-0.7839,-3.5168,-4.6928,0.9012,-0.6476,0.1140,
14.275854,-0.0872,-1.6509,-0.6811,-0.7839,-3.5168,-4.6928,-0.5241,-0.1033,-0.0021,
14.277613,-0.0872,-1.6509,-0.6811,1.9998,-1.0944,-4.8668,-0.5241,-0.1033,-0.0021,
14.279250,0.1417,-1.5607,-0.8533,1.9998,-1.0944,-4.8668,-0.5241,-0.1033,-0.0021,
14.280406,0.2607,-1.0780,-0.6549,1.9998,-1.0944,-4.8668,-0.5241,-0.1033,-0.0021,
14.281387,0.1102,-0.7169,-0.1084,1.9998,-1.0944,-4.8668,-0.5241,-0.1033,-0.0021,
14.282491,-0.1136,-0.6724,-0.0017,1.9998,-1.0944,-4.8668,-0.5241,-0.1033,-0.0021,
14.315103,-0.1136,-0.6724,-0.0017,1.9998,-1.0944,-4.8668,-0.6999,-0.4687,0.0608,
14.316770,-0.1136,-0.6724,-0.0017,2.0000,-1.0919,-4.5229,-0.6999,-0.4687,0.0608,
14.355271,-0.1136,-0.6724,-0.0017,2.0000,-1.0919,-4.5229,-0.3132,-1.0215,0.4336,
14.357592,-0.2689,-0.8652,-0.0657,2.0000,-1.0919,-4.5229,-0.3132,-1.0215,0.4336,
14.358463,-0.1077,-1.0237,-0.0742,2.0000,-1.0919,-4.5229,-0.3132,-1.0215,0.4336,
14.359601,0.2065,-0.9807,-0.1114,2.0000,-1.0919,-4.5229,-0.3132,-1.0215,0.4336,
14.360881,0.2983,-0.9348,-0.0574,2.0000,-1.0919,-4.5229,-0.3132,-1.0215,0.4336,
14.361911,0.2983,-0.9348,-0.0574,-1.0552,1.4604,0.3944,-0.3132,-1.0215,0.4336,
14.393878,0.2983,-0.9348,-0.0574,-1.0552,1.4604,0.3944,-0.0330,-1.0908,0.2717,
14.395506,0.2983,-0.9348,-0.0574,-0.8971,1.4284,0.3740,-0.0330,-1.0908,0.2717,
14.433231,0.3216,-1.0936,-0.1656,-0.8971,1.4284,0.3740,-0.0330,-1.0908,0.2717,
14.434967,0.4647,-1.1615,-0.3635,-0.8971,1.4284,0.3740,-0.0330,-1.0908,0.2717,
14.436077,0.4491,-1.0987,-0.3163,-0.8971,1.4284,0.3740,-0.0330,-1.0908,0.2717,
14.437008,0.4491,-1.0987,-0.3163,-0.8971,1.4284,0.3740,-0.0341,-1.3741,-0.1416,
14.437735,0.4491,-1.0987,-0.3163,3.3370,-0.0310,-0.2765,-0.0341,-1.3741,-0.1416,
14.473655,0.4491,-1.0987,-0.3163,3.3370,-0.0310,-0.2765,-0.1033,-1.9792,-0.4484,
14.475874,0.4491,-1.0987,-0.3163,4.2469,-0.8256,-1.6551,-0.1033,-1.9792,-0.4484,
14.513872,0.4491,-1.0987,-0.3163,4.2469,-0.8256,-1.6551,0.4538,-2.1358,-0.6093,
14.516896,0.4491,-1.0987,-0.3163,4.0052,-0.7902,-1.8323,0.4538,-2.1358,-0.6093,
14.518200,0.2470,-0.9986,-0.0833,4.0052,-0.7902,-1.8323,0.4538,-2.1358,-0.6093,
14.519327,0.2363,-0.9421,0.1290,4.0052,-0.7902,-1.8323,0.4538,-2.1358,-0.6093,
14.520160,0.1176,-1.0467,0.1711,4.0052,-0.7902,-1.8323,0.4538,-2.1358,-0.6093,
14.521220,-0.1622,-1.1500,0.1093,4.0052,-0.7902,-1.8323,0.4538,-2.1358,-0.6093,
14.522627,-0.3513,-1.1532,0.0159,4.0052,-0.7902,-1.8323,0.4538,-2.1358,-0.6093,
14.552465,-0.3513,-1.1532,0.0159,4.0052,-0.7902,-1.8323,0.8916,-0.7616,-0.5017,
14.554823,-0.3513,-1.1532,0.0159,0.6486,-0.3724,1.6169,0.8916,-0.7616,-0.5017,
14.592662,-0.3513,-1.1532,0.0159,0.6486,-0.3724,1.6169,0.7926,0.0107,0.1556,
14.595119,-0.3513,-1.1532,0.0159,-3.5698,-0.6107,-0.4174,0.7926,0.0107,0.1556,
14.596493,-0.4334,-1.0802,-0.0364,-3.5698,-0.6107,-0.4174,0.7926,0.0107,0.1556,
14.597818,-0.3525,-0.9827,-0.1001,-3.5698,-0.6107,-0.4174,0.7926,0.0107,0.1556,
14.598859,-0.1109,-0.8965,-0.0517,-3.5698,-0.6107,-0.4174,0.7926,0.0107,0.1556,
14.599835,0.0440,-0.8603,0.1000,-3.5698,-0.6107,-0.4174,0.7926,0.0107,0.1556,
14.632127,0.0440,-0.8603,0.1000,-3.3874,-0.6087,-0.7194,0.7926,0.0107,0.1556,
14.634150,0.0440,-0.8603,0.1000,-3.3874,-0.6087,-0.7194,0.8022,0.0267,0.3186,
14.671715,0.0440,-0.8603,0.1000,-3.3874,-0.6087,-0.7194,0.9268,0.5359,0.0075,
14.674071,0.0440,-0.8603,0.1000,0.3950,1.2501,-0.1463,0.9268,0.5359,0.0075,
14.675457,0.0853,-0.8781,0.1149,0.3950,1.2501,-0.1463,0.9268,0.5359,0.0075,
14.676645,-0.0395,-0.9500,0.0795,0.3950,1.2501,-0.1463,0.9268,0.5359,0.0075,
14.677610,-0.2247,-1.0093,0.0252,0.3950,1.2501,-0.1463,0.9268,0.5359,0.0075,
14.678793,-0.3061,-1.0191,-0.0302,0.3950,1.2501,-0.1463,0.9268,0.5359,0.0075,
14.711153,-0.3061,-1.0191,-0.0302,0.3950,1.2501,-0.1463,0.6189,1.2613,0.0373,
14.713545,-0.3061,-1.0191,-0.0302,-1.4486,0.1062,-0.6486,0.6189,1.2613,0.0373,
14.751386,-0.3061,-1.0191,-0.0302,-1.4486,0.1062,-0.6486,0.1364,1.7939,0.1492,
14.753517,-0.3061,-1.0191,-0.0302,-1.2520,-0.0162,-0.4050,0.1364,1.7939,0.1492,
14.755075,-0.2543,-0.9939,0.0059,-1.2520,-0.0162,-0.4050,0.1364,1.7939,0.1492,
14.756357,-0.1832,-0.9947,0.0602,-1.2520,-0.0162,-0.4050,0.1364,1.7939,0.1492,
14.757395,-0.1170,-1.0250,0.0868,-1.2520,-0.0162,-0.4050,0.1364,1.7939,0.1492,
14.758548,-0.0918,-1.0335,0.1286,-1.2520,-0.0162,-0.4050,0.1364,1.7939,0.1492,
14.790810,-0.0918,-1.0335,0.1286,-1.2520,-0.0162,-0.4050,-0.1257,1.7151,0.1630,
14.793628,-0.0918,-1.0335,0.1286,-1.1107,-0.0157,-0.3087,-0.1257,1.7151,0.1630,
14.830577,-0.0918,-1.0335,0.1286,-1.1107,-0.0157,-0.3087,-0.2524,1.5681,0.1726,
14.833007,-0.0918,-1.0335,0.1286,0.3203,-0.2386,0.4884,-0.2524,1.5681,0.1726,
14.834444,-0.0601,-1.0228,0.1293,0.3203,-0.2386,0.4884,-0.2524,1.5681,0.1726,
14.835846,0.0025,-1.0274,0.0970,0.3203,-0.2386,0.4884,-0.2524,1.5681,0.1726,
14.837121,0.0247,-1.0274,0.0296,0.3203,-0.2386,0.4884,-0.2524,1.5681,0.1726,
14.838104,0.0443,-1.0125,-0.0491,0.3203,-0.2386,0.4884,-0.2524,1.5681,0.1726,
14.869973,0.0443,-1.0125,-0.0491,0.3203,-0.2386,0.4884,-0.5166,1.4104,0.0799,
14.872738,0.0443,-1.0125,-0.0491,0.3763,-0.2262,0.7246,-0.5166,1.4104,0.0799,
14.910117,0.0443,-1.0125,-0.0491,0.3763,-0.2262,0.7246,-0.9161,1.0003,-0.0990,
14.912554,0.0443,-1.0125,-0.0491,1.3617,-0.0656,-0.4010,-0.9161,1.0003,-0.0990,
14.913891,0.0990,-0.9986,-0.0923,1.3617,-0.0656,-0.4010,-0.9161,1.0003,-0.0990,
14.914910,0.1439,-0.9588,-0.0918,1.3617,-0.0656,-0.4010,-0.9161,1.0003,-0.0990,
14.915818,0.1300,-0.9341,-0.0796,1.3617,-0.0656,-0.4010,-0.9161,1.0003,-0.0990,
14.916817,0.0782,-1.0254,-0.1385,1.3617,-0.0656,-0.4010,-0.9161,1.0003,-0.0990,
14.949672,0.0782,-1.0254,-0.1385,1.3617,-0.0656,-0.4010,-1.1441,0.3835,-0.1171,
14.952063,0.0782,-1.0254,-0.1385,1.8838,0.3165,-0.5791,-1.1441,0.3835,-0.1171,
14.974884,0.0611,-1.1508,-0.3078,1.8838,0.3165,-0.5791,-1.1441,0.3835,-0.1171,
14.978308,0.0897,-1.2031,-0.3979,1.8838,0.3165,-0.5791,-1.1441,0.3835,-0.1171,
14.979685,0.1266,-1.1957,-0.4097,1.8838,0.3165,-0.5791,-1.1441,0.3835,-0.1171,
14.988760,0.1266,-1.1957,-0.4097,1.6381,-1.7648,-2.5463,-1.1441,0.3835,-0.1171,
14.991155,0.1266,-1.1957,-0.4097,1.6381,-1.7648,-2.5463,-1.6032,-0.1267,0.0555,
15.029039,0.1266,-1.1957,-0.4097,1.6381,-1.7648,-2.5463,-2.0666,-0.5177,-0.0809,
15.031240,0.1266,-1.1957,-0.4097,2.2677,-1.1084,-1.0845,-2.0666,-0.5177,-0.0809,
15.062439,0.1508,-1.1642,-0.4072,2.2677,-1.1084,-1.0845,-2.0666,-0.5177,-0.0809,
15.064869,0.1781,-1.1156,-0.3498,2.2677,-1.1084,-1.0845,-2.0666,-0.5177,-0.0809,
15.066589,0.1530,-1.0379,-0.1570,2.2677,-1.1084,-1.0845,-2.0666,-0.5177,-0.0809,
15.067899,0.0284,-1.0821,0.0313,2.2677,-1.1084,-1.0845,-2.0666,-0.5177,-0.0809,
15.069730,0.0284,-1.0821,0.0313,2.2677,-1.1084,-1.0845,-2.0048,-0.4793,-0.4601,
15.071223,0.0284,-1.0821,0.0313,2.0996,-1.2567,-0.3248,-2.0048,-0.4793,-0.4601,
15.107292,0.0284,-1.0821,0.0313,2.0996,-1.2567,-0.3248,-0.9779,-0.7670,-0.5912,
15.109544,0.0284,-1.0821,0.0313,0.3682,-1.7495,2.5855,-0.9779,-0.7670,-0.5912,
15.146581,0.0284,-1.0821,0.0313,0.3682,-1.7495,2.5855,-0.5422,-1.2921,-0.6796,
15.149058,0.0284,-1.0821,0.0313,0.2664,-1.7764,2.7263,-0.5422,-1.2921,-0.6796,
15.150467,-0.0417,-1.2013,0.0030,0.2664,-1.7764,2.7263,-0.5422,-1.2921,-0.6796,
15.151451,0.0086,-1.1637,-0.1529,0.2664,-1.7764,2.7263,-0.5422,-1.2921,-0.6796,
15.152957,0.0797,-1.0115,-0.2552,0.2664,-1.7764,2.7263,-0.5422,-1.2921,-0.6796,
15.154065,0.0496,-0.9004,-0.2355,0.2664,-1.7764,2.7263,-0.5422,-1.2921,-0.6796,
15.155193,-0.0080,-0.8437,-0.1348,0.2664,-1.7764,2.7263,-0.5422,-1.2921,-0.6796,
15.186471,-0.0080,-0.8437,-0.1348,0.2664,-1.7764,2.7263,-0.4548,-1.3603,-0.8000,
15.189096,-0.0080,-0.8437,-0.1348,0.5414,0.4251,1.2086,-0.4548,-1.3603,-0.8000,
15.226612,-0.0080,-0.8437,-0.1348,0.5414,0.4251,1.2086,-0.0383,-1.0162,-0.7318,
15.228678,-0.0080,-0.8437,-0.1348,-1.6951,1.7879,2.7775,-0.0383,-1.0162,-0.7318,
15.229992,-0.1153,-0.8158,-0.0383,-1.6951,1.7879,2.7775,-0.0383,-1.0162,-0.7318,
15.230926,-0.2154,-0.7887,-0.0344,-1.6951,1.7879,2.7775,-0.0383,-1.0162,-0.7318,
15.232590,-0.1981,-0.7237,-0.0615,-1.6951,1.7879,2.7775,-0.0383,-1.0162,-0.7318,
