
time,gFx,gFy,gFz,ax,ay,az,wx,wy,wz,
0.059903,0.0000,0.0000,0.0000,0.0000,0.0000,0.0000,0.1257,-1.5659,0.5700,
0.091286,0.5738,0.1469,0.6327,0.0000,0.0000,0.0000,0.1257,-1.5659,0.5700,
0.092408,0.5693,0.1252,0.6191,0.0000,0.0000,0.0000,0.1257,-1.5659,0.5700,
0.093190,0.5012,0.0853,0.5408,0.0000,0.0000,0.0000,0.1257,-1.5659,0.5700,
0.093855,0.6252,0.1692,0.4557,0.0000,0.0000,0.0000,0.1257,-1.5659,0.5700,
0.094419,0.6352,0.1032,0.5067,0.0000,0.0000,0.0000,0.1257,-1.5659,0.5700,
0.095082,0.5624,0.0083,0.5794,0.0000,0.0000,0.0000,0.1257,-1.5659,0.5700,
0.095802,0.4297,0.0028,0.6378,0.0000,0.0000,0.0000,0.1257,-1.5659,0.5700,
0.096622,0.4297,0.0028,0.6378,0.0000,0.0000,0.0000,0.2845,-2.1145,0.7788,
0.136504,0.4297,0.0028,0.6378,0.0000,0.0000,0.0000,0.4038,-1.8407,1.4712,
0.170369,0.5185,-0.0260,0.5328,0.0000,0.0000,0.0000,0.4038,-1.8407,1.4712,
0.173170,0.5902,0.0400,0.4409,0.0000,0.0000,0.0000,0.4038,-1.8407,1.4712,
0.174704,0.5973,0.0110,0.4728,0.0000,0.0000,0.0000,0.4038,-1.8407,1.4712,
0.176326,0.5201,-0.0889,0.5726,0.0000,0.0000,0.0000,0.4038,-1.8407,1.4712,
0.177655,0.5201,-0.0889,0.5726,0.0000,0.0000,0.0000,0.6179,-2.7643,1.7002,
0.178934,0.5201,-0.0889,0.5726,-0.0001,0.0825,-0.2558,0.6179,-2.7643,1.7002,
0.215148,0.5201,-0.0889,0.5726,-0.0001,0.0825,-0.2558,0.7894,-2.6376,2.4012,
0.216799,0.5201,-0.0889,0.5726,-0.2300,0.2498,0.1758,0.7894,-2.6376,2.4012,
0.256279,0.5854,-0.1308,0.6426,-0.2300,0.2498,0.1758,0.7894,-2.6376,2.4012,
0.258366,0.7822,-0.0148,0.6188,-0.2300,0.2498,0.1758,0.7894,-2.6376,2.4012,
0.260090,1.0209,-0.0667,0.5854,-0.2300,0.2498,0.1758,0.7894,-2.6376,2.4012,
0.261154,1.0209,-0.0667,0.5854,-0.2300,0.2498,0.1758,0.1470,-0.6689,2.6973,
0.262299,1.0209,-0.0667,0.5854,0.6812,0.0215,1.1651,0.1470,-0.6689,2.6973,
0.296403,1.0209,-0.0667,0.5854,0.6812,0.0215,1.1651,-0.2024,0.0650,2.2488,
0.298192,1.0209,-0.0667,0.5854,3.0544,0.7530,0.8066,-0.2024,0.0650,2.2488,
0.334246,1.0666,-0.0692,0.6161,3.0544,0.7530,0.8066,-0.2024,0.0650,2.2488,
0.337162,1.0645,-0.0078,0.6309,3.0544,0.7530,0.8066,-0.2024,0.0650,2.2488,
0.338550,0.9442,-0.0319,0.5874,3.0544,0.7530,0.8066,-0.2024,0.0650,2.2488,
0.339719,0.9440,-0.1253,0.5249,3.0544,0.7530,0.8066,-0.2024,0.0650,2.2488,
0.340826,1.0777,-0.1568,0.5210,3.0544,0.7530,0.8066,-0.2024,0.0650,2.2488,
0.342169,1.0777,-0.1568,0.5210,3.0544,0.7530,0.8066,0.1886,-1.1217,2.1785,
0.343696,1.0777,-0.1568,0.5210,2.1302,0.3719,0.3103,0.1886,-1.1217,2.1785,
0.374157,1.0777,-0.1568,0.5210,2.1302,0.3719,0.3103,0.6935,-2.0037,2.0443,
0.376359,1.0777,-0.1568,0.5210,1.5307,0.7089,0.7098,0.6935,-2.0037,2.0443,
0.412098,1.1263,-0.2098,0.5637,1.5307,0.7089,0.7098,0.6935,-2.0037,2.0443,
0.414285,1.0471,-0.3409,0.5357,1.5307,0.7089,0.7098,0.6935,-2.0037,2.0443,
0.415461,0.9354,-0.3829,0.4332,1.5307,0.7089,0.7098,0.6935,-2.0037,2.0443,
0.416603,1.0641,-0.4281,0.3631,1.5307,0.7089,0.7098,0.6935,-2.0037,2.0443,
0.417917,1.0641,-0.4281,0.3631,1.5307,0.7089,0.7098,1.3678,-2.8964,2.1988,
0.419073,1.0641,-0.4281,0.3631,1.0478,-0.7956,0.8468,1.3678,-2.8964,2.1988,
0.453101,1.0641,-0.4281,0.3631,1.0478,-0.7956,0.8468,2.0496,-3.7870,2.3500,
0.454773,1.0641,-0.4281,0.3631,0.6879,-0.1854,1.6355,2.0496,-3.7870,2.3500,
0.489819,1.1767,-0.4262,0.3389,0.6879,-0.1854,1.6355,2.0496,-3.7870,2.3500,
0.492014,1.3095,-0.4348,0.3806,0.6879,-0.1854,1.6355,2.0496,-3.7870,2.3500,
0.493664,1.3298,-0.3978,0.3708,0.6879,-0.1854,1.6355,2.0496,-3.7870,2.3500,
0.494830,1.2860,-0.3465,0.2714,0.6879,-0.1854,1.6355,2.0496,-3.7870,2.3500,
0.496218,1.2860,-0.3465,0.2714,0.6879,-0.1854,1.6355,2.3244,-2.5427,1.8451,
0.497526,1.2860,-0.3465,0.2714,2.4355,-0.4300,0.9237,2.3244,-2.5427,1.8451,
0.532627,1.2860,-0.3465,0.2714,2.4355,-0.4300,0.9237,2.3766,-1.5339,1.1527,
0.534946,1.2860,-0.3465,0.2714,2.1102,-0.1892,0.9816,2.3766,-1.5339,1.1527,
0.567736,1.2651,-0.3253,0.1198,2.1102,-0.1892,0.9816,2.3766,-1.5339,1.1527,
0.570273,1.1262,-0.3708,0.1023,2.1102,-0.1892,0.9816,2.3766,-1.5339,1.1527,
0.571773,1.0546,-0.3753,0.1254,2.1102,-0.1892,0.9816,2.3766,-1.5339,1.1527,
0.572977,0.9489,-0.3402,0.0503,2.1102,-0.1892,0.9816,2.3766,-1.5339,1.1527,
0.577707,0.9489,-0.3402,0.0503,2.1102,-0.1892,0.9816,2.2232,-1.0397,0.8491,
0.579247,0.9489,-0.3402,0.0503,-0.1815,0.5299,-1.6367,2.2232,-1.0397,0.8491,
0.612186,0.9489,-0.3402,0.0503,-0.1815,0.5299,-1.6367,1.3337,-0.6828,0.7788,
0.614116,0.9489,-0.3402,0.0503,-0.1024,0.6363,-1.4103,1.3337,-0.6828,0.7788,
0.652396,0.8916,-0.3160,-0.2616,-0.1024,0.6363,-1.4103,1.3337,-0.6828,0.7788,
0.654273,0.7161,-0.2918,-0.6645,-0.1024,0.6363,-1.4103,1.3337,-0.6828,0.7788,
0.655400,0.6311,-0.3644,-0.4344,-0.1024,0.6363,-1.4103,1.3337,-0.6828,0.7788,
0.656568,0.6311,-0.3644,-0.4344,-0.1024,0.6363,-1.4103,0.1737,-0.6689,0.9971,
0.657407,0.6311,-0.3644,-0.4344,-2.4889,1.1446,-5.6689,0.1737,-0.6689,0.9971,
0.692470,0.6311,-0.3644,-0.4344,-2.4889,1.1446,-5.6689,0.1726,-0.4783,1.3465,
0.694320,0.6311,-0.3644,-0.4344,-3.6501,0.4003,-1.3669,0.1726,-0.4783,1.3465,
0.730545,0.7254,-0.4100,-0.0350,-3.6501,0.4003,-1.3669,0.1726,-0.4783,1.3465,
0.733077,0.6346,-0.4269,-0.0762,-3.6501,0.4003,-1.3669,0.1726,-0.4783,1.3465,
0.734491,0.4216,-0.4846,-0.0957,-3.6501,0.4003,-1.3669,0.1726,-0.4783,1.3465,
0.735550,0.3853,-0.4959,0.1593,-3.6501,0.4003,-1.3669,0.1726,-0.4783,1.3465,
0.736790,0.6922,-0.4438,0.1419,-3.6501,0.4003,-1.3669,0.1726,-0.4783,1.3465,
0.738122,0.6922,-0.4438,0.1419,-3.6501,0.4003,-1.3669,0.1417,-0.7233,1.8856,
0.739237,0.6922,-0.4438,0.1419,-2.9874,0.9514,-1.0421,0.1417,-0.7233,1.8856,
0.770103,0.6922,-0.4438,0.1419,-2.9874,0.9514,-1.0421,0.2184,-0.6689,1.8291,
0.771578,0.6922,-0.4438,0.1419,-2.3521,1.3907,-0.7986,0.2184,-0.6689,1.8291,
0.807797,0.7151,-0.3413,0.0321,-2.3521,1.3907,-0.7986,0.2184,-0.6689,1.8291,
0.809685,1.0347,-0.3083,0.0289,-2.3521,1.3907,-0.7986,0.2184,-0.6689,1.8291,
0.810915,0.8085,-0.5213,-0.1145,-2.3521,1.3907,-0.7986,0.2184,-0.6689,1.8291,
0.811809,0.7339,-0.6146,0.0661,-2.3521,1.3907,-0.7986,0.2184,-0.6689,1.8291,
0.812681,0.7339,-0.6146,0.0661,-2.3521,1.3907,-0.7986,0.0064,-0.4783,1.5340,
0.813786,0.7339,-0.6146,0.0661,0.4971,1.2537,-0.5792,0.0064,-0.4783,1.5340,
0.850304,0.7339,-0.6146,0.0661,0.4971,1.2537,-0.5792,-0.2216,-0.3526,1.5159,
0.851699,0.7339,-0.6146,0.0661,0.8136,1.5511,-0.3907,-0.2216,-0.3526,1.5159,
0.889063,0.8449,-0.3410,0.0025,0.8136,1.5511,-0.3907,-0.2216,-0.3526,1.5159,
0.890901,0.7485,-0.4761,-0.0024,0.8136,1.5511,-0.3907,-0.2216,-0.3526,1.5159,
0.891907,0.6495,-0.6421,-0.0023,0.8136,1.5511,-0.3907,-0.2216,-0.3526,1.5159,
0.892929,0.6495,-0.6421,-0.0023,0.8136,1.5511,-0.3907,-0.0522,-0.3685,0.9481,
0.893550,0.6495,-0.6421,-0.0023,0.2098,1.2583,0.2848,-0.0522,-0.3685,0.9481,
0.930722,0.6495,-0.6421,-0.0023,0.2098,1.2583,0.2848,-0.6136,-0.2546,0.9769,
0.932457,0.6495,-0.6421,-0.0023,-1.6701,-6.0838,-0.6101,-0.6136,-0.2546,0.9769,
0.967198,0.5281,-0.8151,0.0113,-1.6701,-6.0838,-0.6101,-0.6136,-0.2546,0.9769,
0.969725,0.0661,-1.1163,-0.3042,-1.6701,-6.0838,-0.6101,-0.6136,-0.2546,0.9769,
0.971582,0.5136,-1.6615,-0.0539,-1.6701,-6.0838,-0.6101,-0.6136,-0.2546,0.9769,
0.973579,1.2614,-1.8334,0.1769,-1.6701,-6.0838,-0.6101,-0.6136,-0.2546,0.9769,
0.975148,1.1568,-1.5497,-0.0611,-1.6701,-6.0838,-0.6101,-0.6136,-0.2546,0.9769,
0.978851,1.1568,-1.5497,-0.0611,-1.6701,-6.0838,-0.6101,-0.2865,-0.8831,0.3697,
0.980475,1.1568,-1.5497,-0.0611,-1.4401,-5.5976,-0.2868,-0.2865,-0.8831,0.3697,
1.008084,1.1568,-1.5497,-0.0611,-1.4401,-5.5976,-0.2868,-0.8138,-1.0663,-0.3739,
1.009569,1.1568,-1.5497,-0.0611,-1.4142,-5.3386,0.2086,-0.8138,-1.0663,-0.3739,
1.046302,0.6432,-1.0741,-0.3099,-1.4142,-5.3386,0.2086,-0.8138,-1.0663,-0.3739,
1.048539,0.4520,-0.6551,-0.5327,-1.4142,-5.3386,0.2086,-0.8138,-1.0663,-0.3739,
1.050302,0.1970,-0.4434,-0.6052,-1.4142,-5.3386,0.2086,-0.8138,-1.0663,-0.3739,
1.051636,0.1806,-0.7861,0.0968,-1.4142,-5.3386,0.2086,-0.8138,-1.0663,-0.3739,
1.053212,0.1806,-0.7861,0.0968,-1.4142,-5.3386,0.2086,-2.3521,-2.2210,1.5596,
1.054442,0.1806,-0.7861,0.0968,-2.9267,1.6146,0.5725,-2.3521,-2.2210,1.5596,
1.088040,0.1806,-0.7861,0.0968,-2.9267,1.6146,0.5725,0.5944,-1.5606,2.3330,
1.090389,0.1806,-0.7861,0.0968,-1.8732,1.9919,0.6287,0.5944,-1.5606,2.3330,
1.127966,0.2723,-1.0157,0.2292,-1.8732,1.9919,0.6287,0.5944,-1.5606,2.3330,
1.130359,0.4667,-0.9346,-0.6448,-1.8732,1.9919,0.6287,0.5944,-1.5606,2.3330,
1.131502,0.5798,-0.9552,-0.7070,-1.8732,1.9919,0.6287,0.5944,-1.5606,2.3330,
1.133016,0.5798,-0.9552,-0.7070,-1.8732,1.9919,0.6287,-0.0447,-1.4679,1.0930,
1.134221,0.5798,-0.9552,-0.7070,1.2744,-0.7823,-2.1229,-0.0447,-1.4679,1.0930,
1.166711,0.5798,-0.9552,-0.7070,1.2744,-0.7823,-2.1229,-0.5742,-0.3462,-0.1438,
1.168947,0.5798,-0.9552,-0.7070,-0.9084,1.8504,0.7701,-0.5742,-0.3462,-0.1438,
1.206716,0.6791,-1.0212,-0.2871,-0.9084,1.8504,0.7701,-0.5742,-0.3462,-0.1438,
1.209397,0.4490,-0.8488,-0.2715,-0.9084,1.8504,0.7701,-0.5742,-0.3462,-0.1438,
1.210933,0.0968,-0.5318,-0.2258,-0.9084,1.8504,0.7701,-0.5742,-0.3462,-0.1438,
1.212288,-0.0288,-0.3613,-0.1441,-0.9084,1.8504,0.7701,-0.5742,-0.3462,-0.1438,
1.213735,0.0334,-0.3243,-0.2236,-0.9084,1.8504,0.7701,-0.5742,-0.3462,-0.1438,
1.215116,0.0334,-0.3243,-0.2236,-0.9084,1.8504,0.7701,0.1907,0.4336,0.8981,
1.215947,0.0334,-0.3243,-0.2236,-0.6178,1.8947,0.6095,0.1907,0.4336,0.8981,
1.249735,0.0334,-0.3243,-0.2236,-0.6178,1.8947,0.6095,0.6477,0.1247,1.7876,
1.251581,0.0334,-0.3243,-0.2236,-0.0098,2.0710,0.3487,0.6477,0.1247,1.7876,
1.256685,0.0029,-0.0470,-0.2739,-0.0098,2.0710,0.3487,0.6477,0.1247,1.7876,
1.258700,-0.0267,0.0505,-0.1001,-0.0098,2.0710,0.3487,0.6477,0.1247,1.7876,
1.260091,0.1150,-0.3526,0.0394,-0.0098,2.0710,0.3487,0.6477,0.1247,1.7876,
1.285452,0.1150,-0.3526,0.0394,-0.0098,2.0710,0.3487,1.1740,0.4304,1.8035,
1.287899,0.1150,-0.3526,0.0394,-2.0194,7.0624,0.1488,1.1740,0.4304,1.8035,
1.324635,0.1150,-0.3526,0.0394,-2.0194,7.0624,0.1488,1.0738,1.8035,2.2020,
1.326394,0.1150,-0.3526,0.0394,-1.3137,6.9340,-0.3340,1.0738,1.8035,2.2020,
1.364016,0.1150,-0.3526,0.0394,-1.3137,6.9340,-0.3340,-0.3015,-0.2716,2.9263,
1.365194,0.1150,-0.3526,0.0394,-0.2791,6.6647,-0.2165,-0.3015,-0.2716,2.9263,
1.403419,0.6782,-0.6815,-0.6271,-0.2791,6.6647,-0.2165,-0.3015,-0.2716,2.9263,
1.404395,-0.1028,-0.8356,-0.1666,-0.2791,6.6647,-0.2165,-0.3015,-0.2716,2.9263,
1.405000,-0.5128,-1.2404,-0.1023,-0.2791,6.6647,-0.2165,-0.3015,-0.2716,2.9263,
1.405459,-0.5128,-1.2404,-0.1023,-0.2791,6.6647,-0.2165,-0.8341,-2.0027,0.8352,
1.405905,-0.5128,-1.2404,-0.1023,0.2748,-0.7170,-0.7999,-0.8341,-2.0027,0.8352,
1.443865,-0.5128,-1.2404,-0.1023,0.2748,-0.7170,-0.7999,-0.2865,-0.1896,-0.6284,
1.445122,-0.5128,-1.2404,-0.1023,0.0809,-0.7066,-0.6736,-0.2865,-0.1896,-0.6284,
1.484943,-0.5128,-1.2404,-0.1023,0.0809,-0.7066,-0.6736,-0.1118,0.8906,-0.3760,
1.486771,-0.1519,-1.3088,-0.4172,0.0809,-0.7066,-0.6736,-0.1118,0.8906,-0.3760,
1.487810,0.0670,-0.9705,-0.2208,0.0809,-0.7066,-0.6736,-0.1118,0.8906,-0.3760,
1.488794,0.0550,-0.6419,0.0174,0.0809,-0.7066,-0.6736,-0.1118,0.8906,-0.3760,
1.489808,-0.1632,-0.7074,0.0702,0.0809,-0.7066,-0.6736,-0.1118,0.8906,-0.3760,
1.490806,-0.1632,-0.7074,0.0702,-0.4061,-1.1975,0.2424,-0.1118,0.8906,-0.3760,
1.523229,-0.1632,-0.7074,0.0702,-0.4061,-1.1975,0.2424,0.1076,0.0096,0.1417,
1.524402,-0.1632,-0.7074,0.0702,-0.3439,-1.1323,0.1972,0.1076,0.0096,0.1417,
1.563081,-0.1632,-0.7074,0.0702,-0.3439,-1.1323,0.1972,0.3239,-0.5294,0.2270,
1.564377,-0.1632,-0.7074,0.0702,-2.0023,-0.6212,1.8659,0.3239,-0.5294,0.2270,
1.565360,-0.2294,-0.9248,-0.0139,-2.0023,-0.6212,1.8659,0.3239,-0.5294,0.2270,
1.566302,-0.2101,-1.1503,-0.1082,-2.0023,-0.6212,1.8659,0.3239,-0.5294,0.2270,
1.567655,-0.1492,-1.2483,-0.0295,-2.0023,-0.6212,1.8659,0.3239,-0.5294,0.2270,
1.568491,-0.0679,-1.1434,0.0247,-2.0023,-0.6212,1.8659,0.3239,-0.5294,0.2270,
1.603235,-0.0679,-1.1434,0.0247,-2.0023,-0.6212,1.8659,0.4357,0.6403,-0.0777,
1.604578,-0.0679,-1.1434,0.0247,-1.9874,-0.5621,1.6431,0.4357,0.6403,-0.0777,
1.643717,-0.0679,-1.1434,0.0247,-0.9912,-2.3467,1.4587,0.4357,0.6403,-0.0777,
1.645942,-0.0679,-1.1434,0.0247,-0.9912,-2.3467,1.4587,0.3974,1.0525,-0.1246,
1.647603,-0.0586,-0.9766,-0.0420,-0.9912,-2.3467,1.4587,0.3974,1.0525,-0.1246,
1.648481,-0.1580,-0.9194,-0.0676,-0.9912,-2.3467,1.4587,0.3974,1.0525,-0.1246,
1.649569,-0.2030,-0.9460,-0.0400,-0.9912,-2.3467,1.4587,0.3974,1.0525,-0.1246,
1.650602,-0.1588,-0.9785,0.0291,-0.9912,-2.3467,1.4587,0.3974,1.0525,-0.1246,
1.683271,-0.1588,-0.9785,0.0291,-0.9912,-2.3467,1.4587,0.2333,0.7170,0.2131,
1.685024,-0.1588,-0.9785,0.0291,-1.6894,-0.5941,1.2214,0.2333,0.7170,0.2131,
1.722947,-0.1588,-0.9785,0.0291,-1.6894,-0.5941,1.2214,0.3505,0.8469,0.2621,
1.724858,-0.1588,-0.9785,0.0291,-0.0585,-1.3008,1.6983,0.3505,0.8469,0.2621,
1.726304,-0.0613,-1.0096,0.0455,-0.0585,-1.3008,1.6983,0.3505,0.8469,0.2621,
1.727454,-0.0036,-1.0328,0.0457,-0.0585,-1.3008,1.6983,0.3505,0.8469,0.2621,
1.728631,0.0306,-1.0399,0.0338,-0.0585,-1.3008,1.6983,0.3505,0.8469,0.2621,
1.730167,0.0587,-1.0377,-0.0403,-0.0585,-1.3008,1.6983,0.3505,0.8469,0.2621,
1.761709,0.0587,-1.0377,-0.0403,-0.0585,-1.3008,1.6983,0.5721,1.0877,0.1396,
1.763999,0.0587,-1.0377,-0.0403,-0.0591,-1.2251,1.4440,0.5721,1.0877,0.1396,
1.802071,0.0587,-1.0377,-0.0403,0.4097,-1.0446,-0.0447,0.5721,1.0877,0.1396,
1.804163,0.0394,-1.0132,-0.1072,0.4097,-1.0446,-0.0447,0.5721,1.0877,0.1396,
1.805425,0.0047,-0.9925,-0.1456,0.4097,-1.0446,-0.0447,0.5721,1.0877,0.1396,
1.806841,-0.0024,-0.9934,-0.0972,0.4097,-1.0446,-0.0447,0.5721,1.0877,0.1396,
1.808065,-0.0024,-0.9934,-0.0972,0.4097,-1.0446,-0.0447,0.3643,1.0973,0.2248,
1.840245,-0.0024,-0.9934,-0.0972,0.4097,-1.0446,-0.0447,0.2695,0.8885,0.3473,
1.841707,-0.0024,-0.9934,-0.0972,0.4477,-0.8568,0.3216,0.2695,0.8885,0.3473,
1.880268,-0.0024,-0.9934,-0.0972,0.4477,-0.8568,0.3216,0.4272,0.8299,0.2898,
1.882314,-0.0024,-0.9934,-0.0972,0.5072,-0.8162,0.1701,0.4272,0.8299,0.2898,
1.883793,0.0179,-1.0035,-0.0471,0.5072,-0.8162,0.1701,0.4272,0.8299,0.2898,
1.884777,0.0758,-1.0010,-0.0051,0.5072,-0.8162,0.1701,0.4272,0.8299,0.2898,
1.887027,0.1210,-1.0086,-0.0127,0.5072,-0.8162,0.1701,0.4272,0.8299,0.2898,
1.888197,0.0863,-1.0237,-0.1057,0.5072,-0.8162,0.1701,0.4272,0.8299,0.2898,
1.889437,0.0675,-0.9966,-0.1414,0.5072,-0.8162,0.1701,0.4272,0.8299,0.2898,
1.919317,0.0675,-0.9966,-0.1414,0.5072,-0.8162,0.1701,0.4229,0.6413,0.2365,
1.921218,0.0675,-0.9966,-0.1414,1.1352,-0.8786,-0.3235,0.4229,0.6413,0.2365,
1.951774,0.0924,-0.9649,-0.0745,1.1352,-0.8786,-0.3235,0.4229,0.6413,0.2365,
1.953432,0.0323,-0.9766,-0.0967,1.1352,-0.8786,-0.3235,0.4229,0.6413,0.2365,
1.954315,0.0208,-0.9737,-0.1062,1.1352,-0.8786,-0.3235,0.4229,0.6413,0.2365,
1.959288,0.0208,-0.9737,-0.1062,1.1352,-0.8786,-0.3235,0.3175,0.7074,0.2142,
1.961257,0.0208,-0.9737,-0.1062,0.7505,-0.4863,-0.4705,0.3175,0.7074,0.2142,
2.000392,0.0208,-0.9737,-0.1062,0.7505,-0.4863,-0.4705,0.2663,0.8214,0.2376,
2.002558,0.0208,-0.9737,-0.1062,0.9770,-0.3907,0.2462,0.2663,0.8214,0.2376,
2.038249,0.0521,-0.9812,-0.0212,0.9770,-0.3907,0.2462,0.2663,0.8214,0.2376,
2.040130,0.0858,-0.9678,0.0044,0.9770,-0.3907,0.2462,0.2663,0.8214,0.2376,
2.041110,0.0648,-0.9412,-0.0127,0.9770,-0.3907,0.2462,0.2663,0.8214,0.2376,
2.042034,0.0648,-0.9412,-0.0127,0.9770,-0.3907,0.2462,0.3356,0.8192,0.1588,
2.043065,0.0648,-0.9412,-0.0127,0.9915,-0.3765,0.1324,0.3356,0.8192,0.1588,
2.078650,0.0648,-0.9412,-0.0127,0.9915,-0.3765,0.1324,0.1438,0.9013,0.0618,
2.080342,0.0648,-0.9412,-0.0127,-1.6335,-1.2457,-0.6166,0.1438,0.9013,0.0618,
2.119304,-0.0334,-0.9551,-0.0620,-1.6335,-1.2457,-0.6166,0.1438,0.9013,0.0618,
2.121365,-0.2225,-1.0232,-0.0908,-1.6335,-1.2457,-0.6166,0.1438,0.9013,0.0618,
2.122712,-0.3657,-1.1904,-0.0999,-1.6335,-1.2457,-0.6166,0.1438,0.9013,0.0618,
2.125223,-0.4837,-1.3765,-0.1507,-1.6335,-1.2457,-0.6166,0.1438,0.9013,0.0618,
2.126666,-0.6088,-1.4027,-0.2035,-1.6335,-1.2457,-0.6166,0.1438,0.9013,0.0618,
2.128059,-0.6171,-1.1671,-0.3019,-1.6335,-1.2457,-0.6166,0.1438,0.9013,0.0618,
2.129221,-0.6171,-1.1671,-0.3019,-1.6335,-1.2457,-0.6166,-0.5102,1.0089,-0.0021,
2.130467,-0.6171,-1.1671,-0.3019,-5.0420,-3.6773,-1.6820,-0.5102,1.0089,-0.0021,
2.157191,-0.6171,-1.1671,-0.3019,-5.0420,-3.6773,-1.6820,-1.9100,0.9279,0.4794,
2.158900,-0.6171,-1.1671,-0.3019,-4.7476,-3.6375,-0.9354,-1.9100,0.9279,0.4794,
2.197983,-0.3234,-0.7958,-0.3044,-4.7476,-3.6375,-0.9354,-1.9100,0.9279,0.4794,
2.200080,-0.0408,-0.6038,0.0294,-4.7476,-3.6375,-0.9354,-1.9100,0.9279,0.4794,
2.201360,-0.0896,-0.6905,0.4745,-4.7476,-3.6375,-0.9354,-1.9100,0.9279,0.4794,
2.202650,-0.0896,-0.6905,0.4745,-4.7476,-3.6375,-0.9354,-2.0655,2.3479,0.9290,
2.204252,-0.0896,-0.6905,0.4745,-0.4487,2.1924,2.6189,-2.0655,2.3479,0.9290,
2.237570,-0.0896,-0.6905,0.4745,-0.4487,2.1924,2.6189,-0.3835,2.6547,1.0589,
2.240275,-0.0896,-0.6905,0.4745,1.3093,-1.3027,2.9395,-0.3835,2.6547,1.0589,
2.273586,-0.2091,-1.0069,0.3633,1.3093,-1.3027,2.9395,-0.3835,2.6547,1.0589,
2.276229,-0.0105,-1.1510,-0.0268,1.3093,-1.3027,2.9395,-0.3835,2.6547,1.0589,
2.277763,0.2695,-0.9900,-0.0901,1.3093,-1.3027,2.9395,-0.3835,2.6547,1.0589,
2.279024,0.3589,-0.8288,-0.1055,1.3093,-1.3027,2.9395,-0.3835,2.6547,1.0589,
2.281657,0.3589,-0.8288,-0.1055,1.3093,-1.3027,2.9395,-0.2226,1.2262,0.8288,
2.284110,0.3589,-0.8288,-0.1055,1.4536,-1.3237,2.9897,-0.2226,1.2262,0.8288,
2.317822,0.3589,-0.8288,-0.1055,1.4536,-1.3237,2.9897,-0.0650,1.7109,0.2099,
2.319941,0.3589,-0.8288,-0.1055,3.2098,-0.0103,1.1508,-0.0650,1.7109,0.2099,
2.355954,0.3589,-0.8288,-0.1055,3.2098,-0.0103,1.1508,0.1673,1.1228,0.2578,
2.358058,0.3589,-0.8288,-0.1055,3.1115,-0.0065,1.1092,0.1673,1.1228,0.2578,
2.359940,0.3164,-0.8461,-0.1404,3.1115,-0.0065,1.1092,0.1673,1.1228,0.2578,
2.361101,-0.0359,-1.0660,-0.0940,3.1115,-0.0065,1.1092,0.1673,1.1228,0.2578,
2.362408,-0.2965,-1.1769,-0.2047,3.1115,-0.0065,1.1092,0.1673,1.1228,0.2578,
2.363916,-0.2943,-1.0176,-0.2621,3.1115,-0.0065,1.1092,0.1673,1.1228,0.2578,
2.365346,-0.1570,-0.8515,-0.2313,3.1115,-0.0065,1.1092,0.1673,1.1228,0.2578,
2.395328,-0.1570,-0.8515,-0.2313,3.1115,-0.0065,1.1092,-0.0053,1.2762,0.4816,
2.398537,-0.1570,-0.8515,-0.2313,-1.3267,-0.9961,-0.0058,-0.0053,1.2762,0.4816,
2.435728,-0.1570,-0.8515,-0.2313,-1.3267,-0.9961,-0.0058,-0.0447,1.4115,0.3260,
2.437237,-0.1570,-0.8515,-0.2313,0.6382,-0.2109,-1.7384,-0.0447,1.4115,0.3260,
2.438350,0.0081,-0.7992,-0.2252,0.6382,-0.2109,-1.7384,-0.0447,1.4115,0.3260,
2.439235,-0.0041,-0.8859,-0.4018,0.6382,-0.2109,-1.7384,-0.0447,1.4115,0.3260,
2.439963,-0.1409,-1.1166,-0.6398,0.6382,-0.2109,-1.7384,-0.0447,1.4115,0.3260,
2.440847,-0.0855,-1.2197,-0.6933,0.6382,-0.2109,-1.7384,-0.0447,1.4115,0.3260,
2.474110,-0.0855,-1.2197,-0.6933,0.6382,-0.2109,-1.7384,-0.6860,0.6562,0.3931,
2.475601,-0.0855,-1.2197,-0.6933,0.6934,-0.2895,-1.4290,-0.6860,0.6562,0.3931,
2.514443,-0.0855,-1.2197,-0.6933,0.6934,-0.2895,-1.4290,-1.0738,0.8395,0.4134,
2.516358,-0.0855,-1.2197,-0.6933,1.0210,-1.6004,-2.8058,-1.0738,0.8395,0.4134,
2.517459,0.0443,-1.0575,-0.5804,1.0210,-1.6004,-2.8058,-1.0738,0.8395,0.4134,
2.518532,-0.0017,-0.8950,-0.5636,1.0210,-1.6004,-2.8058,-1.0738,0.8395,0.4134,
2.519573,-0.0752,-0.8144,-0.5535,1.0210,-1.6004,-2.8058,-1.0738,0.8395,0.4134,
2.520482,0.0149,-0.8041,-0.4377,1.0210,-1.6004,-2.8058,-1.0738,0.8395,0.4134,
2.554173,0.0149,-0.8041,-0.4377,1.0210,-1.6004,-2.8058,-0.6104,0.6147,0.4933,
2.556461,0.0149,-0.8041,-0.4377,1.0818,-1.6605,-2.5000,-0.6104,0.6147,0.4933,
2.593273,0.0149,-0.8041,-0.4377,1.0818,-1.6605,-2.5000,0.4794,-0.1534,0.0576,
2.594159,0.0149,-0.8041,-0.4377,1.5010,0.5737,-0.6607,0.4794,-0.1534,0.0576,
2.596751,0.1452,-0.8842,-0.2350,1.5010,0.5737,-0.6607,0.4794,-0.1534,0.0576,
2.597748,0.1750,-0.9431,-0.0789,1.5010,0.5737,-0.6607,0.4794,-0.1534,0.0576,
2.598675,0.0721,-0.8820,-0.0214,1.5010,0.5737,-0.6607,0.4794,-0.1534,0.0576,
2.599871,0.0040,-0.7789,0.0172,1.5010,0.5737,-0.6607,0.4794,-0.1534,0.0576,
2.634445,0.0040,-0.7789,0.0172,1.5010,0.5737,-0.6607,1.4126,-0.1715,-0.4101,
2.636292,0.0040,-0.7789,0.0172,1.8742,0.4239,2.5077,1.4126,-0.1715,-0.4101,
2.672568,0.0040,-0.7789,0.0172,1.8742,0.4239,2.5077,2.0070,0.1225,-0.6775,
2.674391,0.0040,-0.7789,0.0172,-0.3309,1.1006,1.0312,2.0070,0.1225,-0.6775,
2.677761,-0.0368,-0.7631,0.0169,-0.3309,1.1006,1.0312,2.0070,0.1225,-0.6775,
2.679111,-0.1099,-0.8136,-0.0837,-0.3309,1.1006,1.0312,2.0070,0.1225,-0.6775,
2.680175,-0.2020,-0.8786,-0.2418,-0.3309,1.1006,1.0312,2.0070,0.1225,-0.6775,
2.680994,-0.2399,-0.8845,-0.2374,-0.3309,1.1006,1.0312,2.0070,0.1225,-0.6775,
2.712442,-0.2399,-0.8845,-0.2374,-0.3309,1.1006,1.0312,2.0155,-0.1534,-0.5731,
2.713859,-0.2399,-0.8845,-0.2374,-0.5178,1.2205,0.2850,2.0155,-0.1534,-0.5731,
2.755423,-0.2399,-0.8845,-0.2374,-0.5178,1.2205,0.2850,1.9857,-0.2748,-0.6839,
2.757595,-0.2399,-0.8845,-0.2374,-0.3803,1.1346,0.3974,1.9857,-0.2748,-0.6839,
2.758630,-0.1038,-0.8371,-0.0056,-0.3803,1.1346,0.3974,1.9857,-0.2748,-0.6839,
2.759685,0.1083,-0.7782,0.1970,-0.3803,1.1346,0.3974,1.9857,-0.2748,-0.6839,
2.760614,0.1195,-0.8156,0.2597,-0.3803,1.1346,0.3974,1.9857,-0.2748,-0.6839,
2.761599,-0.1231,-1.1808,0.1093,-0.3803,1.1346,0.3974,1.9857,-0.2748,-0.6839,
2.791863,-0.1231,-1.1808,0.1093,-0.6669,1.1246,-0.5006,1.9857,-0.2748,-0.6839,
2.794231,-0.1231,-1.1808,0.1093,-0.6669,1.1246,-0.5006,2.4619,-0.0372,-0.8213,
2.832098,-0.1231,-1.1808,0.1093,-0.6669,1.1246,-0.5006,0.9950,0.5476,-0.3526,
2.835267,-0.1231,-1.1808,0.1093,-1.2546,-2.7995,-0.6774,0.9950,0.5476,-0.3526,
2.836966,-0.3850,-1.7183,-0.3620,-1.2546,-2.7995,-0.6774,0.9950,0.5476,-0.3526,
2.838303,-0.4722,-1.8688,-0.9075,-1.2546,-2.7995,-0.6774,0.9950,0.5476,-0.3526,
2.839671,-0.4202,-1.3958,-1.0766,-1.2546,-2.7995,-0.6774,0.9950,0.5476,-0.3526,
2.840825,-0.4126,-0.9534,-0.5482,-1.2546,-2.7995,-0.6774,0.9950,0.5476,-0.3526,
2.871367,-0.4126,-0.9534,-0.5482,-1.2546,-2.7995,-0.6774,-0.9523,1.0866,0.1556,
2.873403,-0.4126,-0.9534,-0.5482,-4.0734,-4.3259,-8.4263,-0.9523,1.0866,0.1556,
2.910518,-0.4126,-0.9534,-0.5482,-4.0734,-4.3259,-8.4263,-1.0471,-0.2183,0.6648,
2.912078,-0.4126,-0.9534,-0.5482,-1.0942,2.3945,1.2074,-1.0471,-0.2183,0.6648,
2.913024,-0.3635,-0.7379,-0.1013,-1.0942,2.3945,1.2074,-1.0471,-0.2183,0.6648,
2.913821,-0.1925,-0.6497,0.1232,-1.0942,2.3945,1.2074,-1.0471,-0.2183,0.6648,
2.914710,0.0787,-0.7538,0.2842,-1.0942,2.3945,1.2074,-1.0471,-0.2183,0.6648,
2.915484,0.2812,-1.0843,0.2820,-1.0942,2.3945,1.2074,-1.0471,-0.2183,0.6648,
2.950538,0.2812,-1.0843,0.2820,-0.9791,2.3388,1.1015,-1.0471,-0.2183,0.6648,
2.952035,0.2812,-1.0843,0.2820,-0.9791,2.3388,1.1015,0.1811,-0.6753,0.2365,
2.990908,0.2812,-1.0843,0.2820,-0.9791,2.3388,1.1015,0.2120,0.9375,-0.2758,
2.992305,0.2812,-1.0843,0.2820,2.5833,-3.0989,-1.4626,0.2120,0.9375,-0.2758,
2.993410,0.2539,-1.3452,-0.1106,2.5833,-3.0989,-1.4626,0.2120,0.9375,-0.2758,
2.994177,0.1273,-1.3990,-0.6420,2.5833,-3.0989,-1.4626,0.2120,0.9375,-0.2758,
2.995186,-0.0237,-1.1945,-0.6325,2.5833,-3.0989,-1.4626,0.2120,0.9375,-0.2758,
2.995808,-0.1248,-0.8732,-0.1099,2.5833,-3.0989,-1.4626,0.2120,0.9375,-0.2758,
3.031520,-0.1248,-0.8732,-0.1099,2.5833,-3.0989,-1.4626,-0.5433,0.5550,-0.0127,
3.033629,-0.1248,-0.8732,-0.1099,2.5205,-3.0366,-1.2244,-0.5433,0.5550,-0.0127,
3.070566,-0.1248,-0.8732,-0.1099,2.5205,-3.0366,-1.2244,0.3292,-0.3419,0.3750,
3.072356,-0.1248,-0.8732,-0.1099,-0.3049,0.0759,-1.7680,0.3292,-0.3419,0.3750,
3.074807,-0.1001,-0.8066,0.1334,-0.3049,0.0759,-1.7680,0.3292,-0.3419,0.3750,
3.076610,-0.0522,-0.9409,0.1005,-0.3049,0.0759,-1.7680,0.3292,-0.3419,0.3750,
3.077833,0.1652,-1.0675,-0.1116,-0.3049,0.0759,-1.7680,0.3292,-0.3419,0.3750,
3.079134,0.3118,-1.0983,-0.3368,-0.3049,0.0759,-1.7680,0.3292,-0.3419,0.3750,
3.109558,0.3118,-1.0983,-0.3368,-0.3049,0.0759,-1.7680,0.6189,-0.6359,0.3676,
3.111878,0.3118,-1.0983,-0.3368,1.9934,-0.6750,-1.1389,0.6189,-0.6359,0.3676,
3.147812,0.3118,-1.0983,-0.3368,1.9934,-0.6750,-1.1389,0.5177,-0.7126,0.0650,
3.149215,0.3118,-1.0983,-0.3368,2.9676,-0.5768,-1.8346,0.5177,-0.7126,0.0650,
3.149904,0.3045,-1.0477,-0.2359,2.9676,-0.5768,-1.8346,0.5177,-0.7126,0.0650,
3.150442,0.2490,-1.0135,-0.0884,2.9676,-0.5768,-1.8346,0.5177,-0.7126,0.0650,
3.151000,0.1816,-1.0179,-0.1832,2.9676,-0.5768,-1.8346,0.5177,-0.7126,0.0650,
3.151545,0.1456,-1.0054,-0.2447,2.9676,-0.5768,-1.8346,0.5177,-0.7126,0.0650,
3.186961,0.1456,-1.0054,-0.2447,2.9676,-0.5768,-1.8346,0.4538,-0.8202,-0.0372,
3.187800,0.1456,-1.0054,-0.2447,2.8858,-0.5693,-1.9827,0.4538,-0.8202,-0.0372,
3.227475,0.1774,-0.9722,-0.1617,2.8858,-0.5693,-1.9827,0.4538,-0.8202,-0.0372,
3.229157,0.2243,-1.0181,-0.1470,2.8858,-0.5693,-1.9827,0.4538,-0.8202,-0.0372,
3.230093,0.2023,-1.1591,-0.2550,2.8858,-0.5693,-1.9827,0.4538,-0.8202,-0.0372,
3.230988,0.2023,-1.1591,-0.2550,2.1663,-0.2918,-2.1807,0.4538,-0.8202,-0.0372,
3.232075,0.2023,-1.1591,-0.2550,2.1663,-0.2918,-2.1807,0.2014,-0.8777,-0.1331,
3.268695,0.2023,-1.1591,-0.2550,2.1663,-0.2918,-2.1807,-0.5806,-1.2410,-0.2876,
3.271143,0.2023,-1.1591,-0.2550,1.4416,-3.5741,-3.0684,-0.5806,-1.2410,-0.2876,
3.307533,0.2023,-1.1591,-0.2550,1.4416,-3.5741,-3.0684,-1.9515,-1.7619,-0.1395,
3.309747,0.2023,-1.1591,-0.2550,1.3777,-3.5235,-2.2969,-1.9515,-1.7619,-0.1395,
3.311421,0.1356,-1.3560,-0.3124,1.3777,-3.5235,-2.2969,-1.9515,-1.7619,-0.1395,
3.312684,0.0338,-1.5099,-0.3383,1.3777,-3.5235,-2.2969,-1.9515,-1.7619,-0.1395,
3.314070,-0.0918,-1.3975,-0.4294,1.3777,-3.5235,-2.2969,-1.9515,-1.7619,-0.1395,
3.315176,-0.1817,-1.1371,-0.5064,1.3777,-3.5235,-2.2969,-1.9515,-1.7619,-0.1395,
3.316606,-0.3596,-1.0389,-0.5792,1.3777,-3.5235,-2.2969,-1.9515,-1.7619,-0.1395,
3.348219,-0.3596,-1.0389,-0.5792,1.3777,-3.5235,-2.2969,-3.4109,-1.9430,0.4059,
3.349674,-0.3596,-1.0389,-0.5792,-1.6227,-2.1871,-2.9595,-3.4109,-1.9430,0.4059,
3.386519,-0.3596,-1.0389,-0.5792,-1.6227,-2.1871,-2.9595,-2.8389,-1.3486,0.5103,
3.388392,-0.3596,-1.0389,-0.5792,-0.3879,-0.0893,5.9197,-2.8389,-1.3486,0.5103,
3.389358,-0.2812,-0.9578,-0.0811,-0.3879,-0.0893,5.9197,-2.8389,-1.3486,0.5103,
3.390171,-0.0603,-0.9126,0.5092,-0.3879,-0.0893,5.9197,-2.8389,-1.3486,0.5103,
3.391177,-0.0144,-0.9715,0.4967,-0.3879,-0.0893,5.9197,-2.8389,-1.3486,0.5103,
3.391998,-0.0615,-1.1031,0.1266,-0.3879,-0.0893,5.9197,-2.8389,-1.3486,0.5103,
3.426098,-0.0615,-1.1031,0.1266,-0.3879,-0.0893,5.9197,-1.0162,-0.7041,0.1449,
3.428764,-0.0615,-1.1031,0.1266,-0.2444,-0.2137,6.1476,-1.0162,-0.7041,0.1449,
3.465951,-0.0615,-1.1031,0.1266,-0.2444,-0.2137,6.1476,-0.6498,-0.7265,-0.3035,
3.468522,-0.0615,-1.1031,0.1266,1.1038,-1.2319,2.8022,-0.6498,-0.7265,-0.3035,
3.469926,0.0213,-1.0812,-0.1475,1.1038,-1.2319,2.8022,-0.6498,-0.7265,-0.3035,
3.471193,0.1080,-0.9541,-0.1255,1.1038,-1.2319,2.8022,-0.6498,-0.7265,-0.3035,
3.472462,0.0430,-0.7892,0.0274,1.1038,-1.2319,2.8022,-0.6498,-0.7265,-0.3035,
3.474074,-0.0327,-0.6404,0.0399,1.1038,-1.2319,2.8022,-0.6498,-0.7265,-0.3035,
3.505352,-0.0327,-0.6404,0.0399,1.1038,-1.2319,2.8022,-0.1193,-0.9811,-0.5933,
3.508240,-0.0327,-0.6404,0.0399,1.0016,-1.2054,2.7609,-0.1193,-0.9811,-0.5933,
3.545152,-0.0327,-0.6404,0.0399,1.0016,-1.2054,2.7609,0.7862,-1.2335,-0.8511,
3.548016,-0.0327,-0.6404,0.0399,0.4221,2.4240,3.0888,0.7862,-1.2335,-0.8511,
3.549409,-0.0701,-0.6209,0.0013,0.4221,2.4240,3.0888,0.7862,-1.2335,-0.8511,
3.550565,-0.1236,-0.7188,-0.0444,0.4221,2.4240,3.0888,0.7862,-1.2335,-0.8511,
3.553273,-0.1478,-0.8200,-0.1302,0.4221,2.4240,3.0888,0.7862,-1.2335,-0.8511,
3.554287,-0.2096,-0.9136,-0.2188,0.4221,2.4240,3.0888,0.7862,-1.2335,-0.8511,
3.585543,-0.2096,-0.9136,-0.2188,0.4221,2.4240,3.0888,1.1686,-1.3156,-0.9129,
3.588227,-0.2096,-0.9136,-0.2188,-1.1282,1.2302,1.1066,1.1686,-1.3156,-0.9129,
3.624482,-0.2096,-0.9136,-0.2188,-1.1282,1.2302,1.1066,0.5870,-1.5584,-0.5763,
3.628693,-0.2096,-0.9136,-0.2188,-3.0054,-1.0398,-1.9578,0.5870,-1.5584,-0.5763,
3.630493,-0.3036,-1.0455,-0.3505,-3.0054,-1.0398,-1.9578,0.5870,-1.5584,-0.5763,
3.631960,-0.3823,-1.0860,-0.4856,-3.0054,-1.0398,-1.9578,0.5870,-1.5584,-0.5763,
3.635085,-0.3635,-1.0404,-0.4324,-3.0054,-1.0398,-1.9578,0.5870,-1.5584,-0.5763,
3.636486,-0.3002,-0.9783,-0.2440,-3.0054,-1.0398,-1.9578,0.5870,-1.5584,-0.5763,
3.663121,-0.3002,-0.9783,-0.2440,-3.0054,-1.0398,-1.9578,-0.3025,-0.6572,-0.2332,
3.664668,-0.3002,-0.9783,-0.2440,-2.9820,-1.0445,-1.8248,-0.3025,-0.6572,-0.2332,
3.703464,-0.3202,-0.9649,-0.1903,-2.9820,-1.0445,-1.8248,-0.3025,-0.6572,-0.2332,
3.705781,-0.4387,-0.9653,-0.1871,-2.9820,-1.0445,-1.8248,-0.3025,-0.6572,-0.2332,
3.707221,-0.4297,-0.9392,-0.2355,-2.9820,-1.0445,-1.8248,-0.3025,-0.6572,-0.2332,
3.708209,-0.4297,-0.9392,-0.2355,-2.9820,-1.0445,-1.8248,-0.5251,-0.5209,-0.0575,
3.709242,-0.4297,-0.9392,-0.2355,-2.9350,-0.2294,0.4653,-0.5251,-0.5209,-0.0575,
3.742898,-0.4297,-0.9392,-0.2355,-2.9350,-0.2294,0.4653,-0.6413,-0.8415,-0.0639,
3.745855,-0.4297,-0.9392,-0.2355,-1.8269,0.2860,-0.7344,-0.6413,-0.8415,-0.0639,
3.783783,-0.4297,-0.9392,-0.2355,-1.8269,0.2860,-0.7344,-0.3973,-0.2301,-0.4942,
3.787075,-0.4297,-0.9392,-0.2355,-1.9485,0.2486,-0.5853,-0.3973,-0.2301,-0.4942,
3.788583,-0.2802,-0.9126,-0.3315,-1.9485,0.2486,-0.5853,-0.3973,-0.2301,-0.4942,
3.791092,-0.0390,-0.8776,-0.4917,-1.9485,0.2486,-0.5853,-0.3973,-0.2301,-0.4942,
3.792418,0.2101,-0.8945,-0.4590,-1.9485,0.2486,-0.5853,-0.3973,-0.2301,-0.4942,
3.793765,0.2607,-1.0597,0.0299,-1.9485,0.2486,-0.5853,-0.3973,-0.2301,-0.4942,
3.794744,0.3714,-1.1273,0.1987,-1.9485,0.2486,-0.5853,-0.3973,-0.2301,-0.4942,
3.822568,0.3714,-1.1273,0.1987,-1.9485,0.2486,-0.5853,-0.0096,-2.2317,-0.3962,
3.825508,0.3714,-1.1273,0.1987,3.3027,-0.8794,2.0414,-0.0096,-2.2317,-0.3962,
3.862940,0.3714,-1.1273,0.1987,3.3027,-0.8794,2.0414,-0.4421,-3.1595,-0.3909,
3.865215,0.3714,-1.1273,0.1987,2.3854,-0.8950,-0.1909,-0.4421,-3.1595,-0.3909,
3.866715,0.4962,-1.1725,-0.5518,2.3854,-0.8950,-0.1909,-0.4421,-3.1595,-0.3909,
3.868520,0.1178,-1.0728,-0.4390,2.3854,-0.8950,-0.1909,-0.4421,-3.1595,-0.3909,
3.872825,-0.1050,-0.8334,0.0518,2.3854,-0.8950,-0.1909,-0.4421,-3.1595,-0.3909,
3.874139,-0.2980,-0.9649,-0.0779,2.3854,-0.8950,-0.1909,-0.4421,-3.1595,-0.3909,
3.901482,-0.2980,-0.9649,-0.0779,2.3854,-0.8950,-0.1909,-0.0202,-1.9707,-0.3771,
3.904973,-0.2980,-0.9649,-0.0779,2.4309,-0.8710,-0.2399,-0.0202,-1.9707,-0.3771,
3.938921,-0.3769,-1.1649,-0.2052,2.4309,-0.8710,-0.2399,-0.0202,-1.9707,-0.3771,
3.941382,-0.2206,-1.1869,-0.2467,2.4309,-0.8710,-0.2399,-0.0202,-1.9707,-0.3771,
3.942615,-0.0649,-1.1222,-0.2557,2.4309,-0.8710,-0.2399,-0.0202,-1.9707,-0.3771,
3.943865,-0.0649,-1.1222,-0.2557,2.4309,-0.8710,-0.2399,0.7137,-0.5432,-0.2151,
3.945156,-0.0649,-1.1222,-0.2557,-2.1399,-1.5397,0.8054,0.7137,-0.5432,-0.2151,
3.980711,-0.0649,-1.1222,-0.2557,-2.1399,-1.5397,0.8054,0.8235,-1.1174,0.1758,
3.983020,-0.0649,-1.1222,-0.2557,1.8222,-0.7983,-0.2310,0.8235,-1.1174,0.1758,
4.020881,-0.0649,-1.1222,-0.2557,1.8222,-0.7983,-0.2310,0.7180,-2.0101,0.1545,
4.023396,-0.0649,-1.1222,-0.2557,2.0060,-0.7344,-0.5718,0.7180,-2.0101,0.1545,
4.024682,0.0638,-1.0477,-0.2567,2.0060,-0.7344,-0.5718,0.7180,-2.0101,0.1545,
4.025620,0.2761,-0.9458,-0.2308,2.0060,-0.7344,-0.5718,0.7180,-2.0101,0.1545,
4.026882,0.3736,-0.9304,-0.2030,2.0060,-0.7344,-0.5718,0.7180,-2.0101,0.1545,
4.027982,0.2419,-1.0042,-0.1600,2.0060,-0.7344,-0.5718,0.7180,-2.0101,0.1545,
4.029101,0.1403,-0.9817,-0.1087,2.0060,-0.7344,-0.5718,0.7180,-2.0101,0.1545,
4.060311,0.1403,-0.9817,-0.1087,2.0060,-0.7344,-0.5718,0.6541,-1.7502,-0.2311,
4.062683,0.1403,-0.9817,-0.1087,3.5473,-0.0284,-0.0084,0.6541,-1.7502,-0.2311,
4.100399,0.1403,-0.9817,-0.1087,3.5473,-0.0284,-0.0084,0.4112,-1.3603,-0.3419,
4.102495,0.1403,-0.9817,-0.1087,-0.1771,0.7820,-0.0160,0.4112,-1.3603,-0.3419,
4.104154,0.0401,-0.8855,-0.1099,-0.1771,0.7820,-0.0160,0.4112,-1.3603,-0.3419,
4.105155,-0.1365,-0.8610,-0.1609,-0.1771,0.7820,-0.0160,0.4112,-1.3603,-0.3419,
4.106412,-0.2728,-0.9292,-0.1382,-0.1771,0.7820,-0.0160,0.4112,-1.3603,-0.3419,
4.107744,-0.2953,-1.0057,-0.1192,-0.1771,0.7820,-0.0160,0.4112,-1.3603,-0.3419,
4.138681,-0.2953,-1.0057,-0.1192,-0.1771,0.7820,-0.0160,-0.0341,-1.0705,-0.0830,
4.140786,-0.2953,-1.0057,-0.1192,-0.1511,0.7707,-0.0462,-0.0341,-1.0705,-0.0830,
4.179262,-0.2953,-1.0057,-0.1192,-0.1511,0.7707,-0.0462,-0.4857,-0.8128,-0.0202,
4.181656,-0.2953,-1.0057,-0.1192,-0.9422,-0.3493,0.6412,-0.4857,-0.8128,-0.0202,
4.183074,-0.2149,-1.0198,-0.0666,-0.9422,-0.3493,0.6412,-0.4857,-0.8128,-0.0202,
4.184237,-0.1170,-0.9871,-0.0549,-0.9422,-0.3493,0.6412,-0.4857,-0.8128,-0.0202,
4.185090,-0.1160,-0.9636,-0.0615,-0.9422,-0.3493,0.6412,-0.4857,-0.8128,-0.0202,
4.186069,-0.2489,-0.9724,-0.0261,-0.9422,-0.3493,0.6412,-0.4857,-0.8128,-0.0202,
4.218433,-0.2489,-0.9724,-0.0261,-0.9422,-0.3493,0.6412,-0.8373,-0.6594,-0.1459,
4.220870,-0.2489,-0.9724,-0.0261,-0.9404,-0.3884,0.9112,-0.8373,-0.6594,-0.1459,
4.259207,-0.2489,-0.9724,-0.0261,-0.9404,-0.3884,0.9112,-0.6988,-0.1214,-0.1118,
4.261492,-0.2489,-0.9724,-0.0261,-1.3327,-0.2204,1.7282,-0.6988,-0.1214,-0.1118,
4.263030,-0.3791,-1.0123,0.0277,-1.3327,-0.2204,1.7282,-0.6988,-0.1214,-0.1118,
4.264236,-0.4221,-1.0338,0.0558,-1.3327,-0.2204,1.7282,-0.6988,-0.1214,-0.1118,
4.265359,-0.4487,-0.9749,0.1227,-1.3327,-0.2204,1.7282,-0.6988,-0.1214,-0.1118,
4.266393,-0.4759,-0.8899,0.0988,-1.3327,-0.2204,1.7282,-0.6988,-0.1214,-0.1118,
4.297673,-0.4759,-0.8899,0.0988,-1.3327,-0.2204,1.7282,-0.3547,1.3966,-0.0617,
4.299906,-0.4759,-0.8899,0.0988,-3.3803,-0.0819,2.9683,-0.3547,1.3966,-0.0617,
4.338070,-0.4048,-0.8620,-0.0425,-3.3803,-0.0819,2.9683,-0.3547,1.3966,-0.0617,
4.340613,-0.2391,-0.8662,-0.2035,-3.3803,-0.0819,2.9683,-0.3547,1.3966,-0.0617,
4.341744,-0.1096,-0.9162,-0.3823,-3.3803,-0.0819,2.9683,-0.3547,1.3966,-0.0617,
4.342743,-0.1096,-0.9162,-0.3823,-3.3803,-0.0819,2.9683,-0.4921,2.0027,-0.0149,
4.344012,-0.1096,-0.9162,-0.3823,-1.5952,0.6941,0.2627,-0.4921,2.0027,-0.0149,
4.377417,-0.1096,-0.9162,-0.3823,1.1771,-0.3089,-1.5960,-0.4921,2.0027,-0.0149,
4.379840,-0.1096,-0.9162,-0.3823,1.1771,-0.3089,-1.5960,-0.9555,1.8738,0.0171,
4.416694,-0.1096,-0.9162,-0.3823,1.1771,-0.3089,-1.5960,-1.0386,1.3881,0.0437,
4.419075,-0.1096,-0.9162,-0.3823,1.0138,-0.4246,-1.1655,-1.0386,1.3881,0.0437,
4.420592,-0.0342,-0.9759,-0.4634,1.0138,-0.4246,-1.1655,-1.0386,1.3881,0.0437,
4.421632,0.0838,-0.9722,-0.4116,1.0138,-0.4246,-1.1655,-1.0386,1.3881,0.0437,
4.422429,0.1066,-0.9756,-0.4558,1.0138,-0.4246,-1.1655,-1.0386,1.3881,0.0437,
4.423774,0.1234,-0.9878,-0.5369,1.0138,-0.4246,-1.1655,-1.0386,1.3881,0.0437,
4.425047,0.2690,-1.0042,-0.5643,1.0138,-0.4246,-1.1655,-1.0386,1.3881,0.0437,
4.456334,0.2690,-1.0042,-0.5643,1.0138,-0.4246,-1.1655,-1.0098,0.5295,0.0373,
4.458907,0.2690,-1.0042,-0.5643,0.9416,-0.5507,-0.7799,-1.0098,0.5295,0.0373,
4.496426,0.2690,-1.0042,-0.5643,0.9416,-0.5507,-0.7799,-0.8703,-0.1683,-0.1885,
4.498633,0.2690,-1.0042,-0.5643,2.7972,-1.1427,-1.7300,-0.8703,-0.1683,-0.1885,
4.500581,0.3589,-1.0804,-0.6229,2.7972,-1.1427,-1.7300,-0.8703,-0.1683,-0.1885,
4.501720,0.4860,-1.1537,-0.7524,2.7972,-1.1427,-1.7300,-0.8703,-0.1683,-0.1885,
4.503586,0.6748,-1.0990,-0.7211,2.7972,-1.1427,-1.7300,-0.8703,-0.1683,-0.1885,
4.504933,0.6851,-0.9583,-0.5526,2.7972,-1.1427,-1.7300,-0.8703,-0.1683,-0.1885,
4.535908,0.6851,-0.9583,-0.5526,6.1695,-1.6437,-2.4974,-0.8703,-0.1683,-0.1885,
4.538280,0.6851,-0.9583,-0.5526,6.1695,-1.6437,-2.4974,-0.5305,-0.8277,-0.6562,
4.577354,0.5048,-0.8884,-0.4556,6.1695,-1.6437,-2.4974,-0.5305,-0.8277,-0.6562,
4.580223,0.3277,-0.8813,-0.4407,6.1695,-1.6437,-2.4974,-0.5305,-0.8277,-0.6562,
4.581361,0.2465,-0.8886,-0.4236,6.1695,-1.6437,-2.4974,-0.5305,-0.8277,-0.6562,
4.582629,0.2465,-0.8886,-0.4236,6.1695,-1.6437,-2.4974,0.0970,-1.6000,-1.0173,
4.584006,0.2465,-0.8886,-0.4236,3.5094,0.1779,-0.2260,0.0970,-1.6000,-1.0173,
4.614935,0.2465,-0.8886,-0.4236,3.5094,0.1779,-0.2260,0.4048,-1.9590,-1.1387,
4.617201,0.2465,-0.8886,-0.4236,1.0076,1.7682,1.1630,0.4048,-1.9590,-1.1387,
4.655067,0.2465,-0.8886,-0.4236,1.0076,1.7682,1.1630,0.5465,-1.7662,-1.0205,
4.657870,0.2465,-0.8886,-0.4236,0.9001,1.8139,0.9648,0.5465,-1.7662,-1.0205,
4.659238,0.1825,-0.8513,-0.3640,0.9001,1.8139,0.9648,0.5465,-1.7662,-1.0205,
4.660624,0.1129,-0.7303,-0.2787,0.9001,1.8139,0.9648,0.5465,-1.7662,-1.0205,
4.661888,0.0501,-0.5996,-0.2037,0.9001,1.8139,0.9648,0.5465,-1.7662,-1.0205,
4.663100,0.0052,-0.5170,-0.1565,0.9001,1.8139,0.9648,0.5465,-1.7662,-1.0205,
4.664219,-0.0061,-0.4726,-0.1360,0.9001,1.8139,0.9648,0.5465,-1.7662,-1.0205,
4.694317,-0.0061,-0.4726,-0.1360,0.9001,1.8139,0.9648,0.8671,-1.3901,-0.7350,
4.696881,-0.0061,-0.4726,-0.1360,0.8226,1.8973,0.6587,0.8671,-1.3901,-0.7350,
4.734277,-0.0061,-0.4726,-0.1360,0.8226,1.8973,0.6587,0.7585,-1.2090,-0.2173,
4.736715,-0.0061,-0.4726,-0.1360,-0.3682,4.3118,1.7151,0.7585,-1.2090,-0.2173,
4.737993,-0.0444,-0.4596,-0.1421,-0.3682,4.3118,1.7151,0.7585,-1.2090,-0.2173,
4.739020,-0.1954,-0.5351,-0.2821,-0.3682,4.3118,1.7151,0.7585,-1.2090,-0.2173,
4.740339,-0.2230,-0.8078,-0.3772,-0.3682,4.3118,1.7151,0.7585,-1.2090,-0.2173,
4.741601,-0.2494,-1.3860,-0.3877,-0.3682,4.3118,1.7151,0.7585,-1.2090,-0.2173,
4.772627,-0.2494,-1.3860,-0.3877,-0.3682,4.3118,1.7151,0.3675,-1.2815,-0.0852,
4.775151,-0.2494,-1.3860,-0.3877,-2.2389,0.1727,-0.4019,0.3675,-1.2815,-0.0852,
4.813047,-0.4710,-1.9636,-0.3557,-2.2389,0.1727,-0.4019,0.3675,-1.2815,-0.0852,
4.815241,-0.5413,-1.6526,-0.1175,-2.2389,0.1727,-0.4019,0.3675,-1.2815,-0.0852,
4.816523,-0.4392,-0.9402,-0.1035,-2.2389,0.1727,-0.4019,0.3675,-1.2815,-0.0852,
4.817642,-0.4392,-0.9402,-0.1035,-2.2389,0.1727,-0.4019,0.4272,-0.4037,-0.1821,
4.818709,-0.4392,-0.9402,-0.1035,-4.7370,-5.6516,0.9645,0.4272,-0.4037,-0.1821,
4.853300,-0.4392,-0.9402,-0.1035,-4.7370,-5.6516,0.9645,0.5050,0.0608,0.2909,
4.855358,-0.4392,-0.9402,-0.1035,-4.2454,-1.0283,-0.1659,0.5050,0.0608,0.2909,
4.892720,-0.4392,-0.9402,-0.1035,-4.2454,-1.0283,-0.1659,0.5071,0.6200,0.4549,
4.895204,-0.4392,-0.9402,-0.1035,-4.0711,-0.9645,-0.3417,0.5071,0.6200,0.4549,
4.897852,-0.5084,-0.7677,-0.1734,-4.0711,-0.9645,-0.3417,0.5071,0.6200,0.4549,
4.899257,-0.5450,-1.0689,-0.3124,-4.0711,-0.9645,-0.3417,0.5071,0.6200,0.4549,
4.900529,-0.3005,-1.3264,-0.3811,-4.0711,-0.9645,-0.3417,0.5071,0.6200,0.4549,
4.901797,-0.0569,-1.3042,-0.1712,-4.0711,-0.9645,-0.3417,0.5071,0.6200,0.4549,
4.903222,-0.0075,-1.0462,-0.0444,-4.0711,-0.9645,-0.3417,0.5071,0.6200,0.4549,
4.932355,-0.0075,-1.0462,-0.0444,-4.0711,-0.9645,-0.3417,0.7383,1.4456,0.1194,
4.934163,-0.0075,-1.0462,-0.0444,-4.0924,-0.8820,-0.5887,0.7383,1.4456,0.1194,
4.972045,-0.0075,-1.0462,-0.0444,-4.0924,-0.8820,-0.5887,0.6594,1.0504,0.1662,
4.973885,-0.0075,-1.0462,-0.0444,-0.3663,-0.9308,0.9913,0.6594,1.0504,0.1662,
4.975426,-0.1426,-0.8488,-0.0906,-0.3663,-0.9308,0.9913,0.6594,1.0504,0.1662,
4.976561,-0.2584,-0.7846,-0.1719,-0.3663,-0.9308,0.9913,0.6594,1.0504,0.1662,
4.977840,-0.1661,-0.8002,-0.2313,-0.3663,-0.9308,0.9913,0.6594,1.0504,0.1662,
4.978949,0.0164,-0.8366,-0.2711,-0.3663,-0.9308,0.9913,0.6594,1.0504,0.1662,
5.010896,0.0164,-0.8366,-0.2711,-0.3663,-0.9308,0.9913,0.4528,1.1985,0.1662,
5.012977,0.0164,-0.8366,-0.2711,-1.0333,1.6152,-0.3623,0.4528,1.1985,0.1662,
5.051376,0.0164,-0.8366,-0.2711,-1.0333,1.6152,-0.3623,-0.0010,0.9865,-0.1065,
5.053664,0.0164,-0.8366,-0.2711,2.1716,0.6890,-2.0726,-0.0010,0.9865,-0.1065,
5.055598,0.1342,-0.8654,-0.3725,2.1716,0.6890,-2.0726,-0.0010,0.9865,-0.1065,
5.057248,0.2211,-0.9033,-0.5059,2.1716,0.6890,-2.0726,-0.0010,0.9865,-0.1065,
5.059369,0.2632,-0.9329,-0.3334,2.1716,0.6890,-2.0726,-0.0010,0.9865,-0.1065,
5.060713,0.1935,-0.8921,-0.0400,2.1716,0.6890,-2.0726,-0.0010,0.9865,-0.1065,
5.090260,0.1935,-0.8921,-0.0400,2.1716,0.6890,-2.0726,-0.5017,0.2866,-0.1736,
5.093024,0.1935,-0.8921,-0.0400,2.0496,0.6395,-1.8510,-0.5017,0.2866,-0.1736,
5.130471,0.1935,-0.8921,-0.0400,2.0496,0.6395,-1.8510,-0.3387,0.1918,0.0011,
5.132668,0.1935,-0.8921,-0.0400,0.4568,0.4432,1.2334,-0.3387,0.1918,0.0011,
5.136923,0.0196,-0.8698,-0.1548,0.4568,0.4432,1.2334,-0.3387,0.1918,0.0011,
5.138678,-0.0750,-0.9886,-0.1052,0.4568,0.4432,1.2334,-0.3387,0.1918,0.0011,
5.140123,-0.0950,-1.1840,0.0941,0.4568,0.4432,1.2334,-0.3387,0.1918,0.0011,
5.141247,-0.0058,-1.2722,-0.0852,0.4568,0.4432,1.2334,-0.3387,0.1918,0.0011,
5.170123,-0.0058,-1.2722,-0.0852,0.4568,0.4432,1.2334,0.0916,0.8171,0.1300,
5.172402,-0.0058,-1.2722,-0.0852,0.4266,0.4437,1.1789,0.0916,0.8171,0.1300,
5.210193,-0.0058,-1.2722,-0.0852,0.4266,0.4437,1.1789,0.3079,0.9204,0.1961,
5.212986,-0.0058,-1.2722,-0.0852,-0.1646,-2.6341,1.8486,0.3079,0.9204,0.1961,
5.214403,0.0582,-1.2580,-0.0588,-0.1646,-2.6341,1.8486,0.3079,0.9204,0.1961,
5.215407,0.0357,-1.2119,0.0418,-0.1646,-2.6341,1.8486,0.3079,0.9204,0.1961,
5.216738,-0.0307,-1.2031,-0.0508,-0.1646,-2.6341,1.8486,0.3079,0.9204,0.1961,
5.217840,-0.0403,-1.2185,-0.0293,-0.1646,-2.6341,1.8486,0.3079,0.9204,0.1961,
5.248947,-0.0403,-1.2185,-0.0293,-0.1646,-2.6341,1.8486,0.5763,0.6584,0.5380,
5.251498,-0.0403,-1.2185,-0.0293,0.0120,-2.2887,1.6425,0.5763,0.6584,0.5380,
5.288739,-0.0403,-1.2185,-0.0293,0.0120,-2.2887,1.6425,0.9129,0.1204,0.7649,
5.291497,-0.0403,-1.2185,-0.0293,1.0803,-1.5080,1.0417,0.9129,0.1204,0.7649,
5.292916,0.0333,-1.1938,-0.0119,1.0803,-1.5080,1.0417,0.9129,0.1204,0.7649,
5.294080,0.0921,-1.1376,-0.0361,1.0803,-1.5080,1.0417,0.9129,0.1204,0.7649,
5.295305,0.0853,-1.0860,-0.0625,1.0803,-1.5080,1.0417,0.9129,0.1204,0.7649,
5.296426,0.0345,-0.9827,-0.0960,1.0803,-1.5080,1.0417,0.9129,0.1204,0.7649,
5.328131,0.0345,-0.9827,-0.0960,1.0803,-1.5080,1.0417,0.9779,-0.0894,0.8022,
5.330754,0.0345,-0.9827,-0.0960,1.3688,-1.4537,0.6535,0.9779,-0.0894,0.8022,
5.368715,0.0345,-0.9827,-0.0960,1.3688,-1.4537,0.6535,0.6775,0.2024,1.0035,
5.371575,0.0345,-0.9827,-0.0960,0.2952,1.2501,-0.6251,0.6775,0.2024,1.0035,
5.373748,-0.0825,-0.8415,-0.1448,0.2952,1.2501,-0.6251,0.6775,0.2024,1.0035,
5.374777,-0.1844,-0.7557,-0.1868,0.2952,1.2501,-0.6251,0.6775,0.2024,1.0035,
5.376533,-0.1380,-0.7279,-0.1065,0.2952,1.2501,-0.6251,0.6775,0.2024,1.0035,
5.377777,-0.0390,-0.7682,-0.0972,0.2952,1.2501,-0.6251,0.6775,0.2024,1.0035,
5.407436,-0.0390,-0.7682,-0.0972,0.6943,1.1849,-0.7283,0.6775,0.2024,1.0035,
5.409787,-0.0390,-0.7682,-0.0972,0.6943,1.1849,-0.7283,0.4251,0.9268,1.1399,
5.447213,-0.0390,-0.7682,-0.0972,0.6943,1.1849,-0.7283,0.1460,0.8331,0.8768,
5.449195,0.0127,-0.9118,-0.1641,0.6943,1.1849,-0.7283,0.1460,0.8331,0.8768,
5.450239,0.1735,-1.0105,-0.1876,0.6943,1.1849,-0.7283,0.1460,0.8331,0.8768,
5.451082,0.3123,-1.0450,-0.1715,0.6943,1.1849,-0.7283,0.1460,0.8331,0.8768,
5.452420,0.2729,-1.0623,-0.1995,0.6943,1.1849,-0.7283,0.1460,0.8331,0.8768,
5.453876,0.2729,-1.0623,-0.1995,1.2080,1.6664,-0.5261,0.1460,0.8331,0.8768,
5.487197,0.2729,-1.0623,-0.1995,1.2080,1.6664,-0.5261,-0.4378,0.1151,0.2461,
5.489404,0.2729,-1.0623,-0.1995,4.2411,-0.6721,-0.9601,-0.4378,0.1151,0.2461,
5.517465,0.0750,-1.0550,-0.2162,4.2411,-0.6721,-0.9601,-0.4378,0.1151,0.2461,
5.520087,-0.1407,-1.0443,-0.1282,4.2411,-0.6721,-0.9601,-0.4378,0.1151,0.2461,
5.521632,-0.3628,-1.0118,-0.0254,4.2411,-0.6721,-0.9601,-0.4378,0.1151,0.2461,
5.526070,-0.3628,-1.0118,-0.0254,4.2411,-0.6721,-0.9601,-0.8032,0.2973,-0.1981,
5.531611,-0.3628,-1.0118,-0.0254,0.2719,-0.6578,-0.0199,-0.8032,0.2973,-0.1981,
5.565621,-0.3628,-1.0118,-0.0254,0.2719,-0.6578,-0.0199,-0.5955,1.4893,0.0000,
5.567515,-0.3628,-1.0118,-0.0254,-2.8602,0.5864,0.5109,-0.5955,1.4893,0.0000,
5.589171,-0.5553,-0.9610,-0.0429,-2.8602,0.5864,0.5109,-0.5955,1.4893,0.0000,
5.591648,-0.5162,-0.8867,-0.1302,-2.8602,0.5864,0.5109,-0.5955,1.4893,0.0000,
5.592959,-0.3058,-0.8698,-0.1294,-2.8602,0.5864,0.5109,-0.5955,1.4893,0.0000,
5.594028,-0.0576,-0.9236,-0.0622,-2.8602,0.5864,0.5109,-0.5955,1.4893,0.0000,
5.605359,-0.0576,-0.9236,-0.0622,-2.8602,0.5864,0.5109,-0.8234,1.1026,0.5401,
5.607046,-0.0576,-0.9236,-0.0622,-2.6862,0.4865,0.8771,-0.8234,1.1026,0.5401,
5.645092,-0.0576,-0.9236,-0.0622,-2.6862,0.4865,0.8771,-0.7318,1.1985,0.3271,
5.647224,-0.0576,-0.9236,-0.0622,2.2944,0.0351,1.6729,-0.7318,1.1985,0.3271,
5.676945,0.1305,-0.9512,-0.0527,2.2944,0.0351,1.6729,-0.7318,1.1985,0.3271,
5.679232,0.0792,-0.9553,-0.0447,2.2944,0.0351,1.6729,-0.7318,1.1985,0.3271,
5.680596,-0.1749,-0.9861,-0.0918,2.2944,0.0351,1.6729,-0.7318,1.1985,0.3271,
5.681560,-0.2819,-0.9568,-0.1922,2.2944,0.0351,1.6729,-0.7318,1.1985,0.3271,
5.684668,-0.2819,-0.9568,-0.1922,2.2944,0.0351,1.6729,-0.4516,1.3210,-0.0447,
5.686236,-0.2819,-0.9568,-0.1922,2.1200,-0.0034,1.8975,-0.4516,1.3210,-0.0447,
5.724645,-0.2819,-0.9568,-0.1922,2.1200,-0.0034,1.8975,-0.5539,1.3007,0.0991,
5.727142,-0.2819,-0.9568,-0.1922,-0.8958,-0.1456,0.7680,-0.5539,1.3007,0.0991,
5.764113,-0.2819,-0.9568,-0.1922,-0.8958,-0.1456,0.7680,-0.6903,1.3540,0.3175,
5.766496,-0.2819,-0.9568,-0.1922,-0.9184,-0.2388,1.0814,-0.6903,1.3540,0.3175,
5.767865,-0.2897,-0.9123,-0.3041,-0.9184,-0.2388,1.0814,-0.6903,1.3540,0.3175,
5.769013,-0.2741,-0.8857,-0.3818,-0.9184,-0.2388,1.0814,-0.6903,1.3540,0.3175,
5.770509,-0.2553,-0.8688,-0.4324,-0.9184,-0.2388,1.0814,-0.6903,1.3540,0.3175,
5.771629,-0.1815,-0.8950,-0.4964,-0.9184,-0.2388,1.0814,-0.6903,1.3540,0.3175,
5.772627,-0.0730,-0.9602,-0.5719,-0.9184,-0.2388,1.0814,-0.6903,1.3540,0.3175,
5.804739,-0.0730,-0.9602,-0.5719,-0.9184,-0.2388,1.0814,-0.6082,1.0248,0.3196,
5.806570,-0.0730,-0.9602,-0.5719,-0.8013,0.3326,-0.9826,-0.6082,1.0248,0.3196,
5.842859,-0.0730,-0.9602,-0.5719,-0.8013,0.3326,-0.9826,-0.7030,1.0600,0.3111,
5.844848,-0.0730,-0.9602,-0.5719,0.1861,-0.6483,-1.5806,-0.7030,1.0600,0.3111,
5.846035,-0.1126,-0.9854,-0.5787,0.1861,-0.6483,-1.5806,-0.7030,1.0600,0.3111,
5.847389,-0.2113,-0.9724,-0.4468,0.1861,-0.6483,-1.5806,-0.7030,1.0600,0.3111,
5.848533,-0.2382,-0.9118,-0.3046,0.1861,-0.6483,-1.5806,-0.7030,1.0600,0.3111,
5.849759,-0.1761,-0.8266,-0.1927,0.1861,-0.6483,-1.5806,-0.7030,1.0600,0.3111,
5.882500,-0.1761,-0.8266,-0.1927,0.1861,-0.6483,-1.5806,-0.2247,0.8672,0.2674,
5.884544,-0.1761,-0.8266,-0.1927,0.1498,-0.6852,-1.4271,-0.2247,0.8672,0.2674,
5.914837,-0.0764,-0.8202,-0.1685,0.1498,-0.6852,-1.4271,-0.2247,0.8672,0.2674,
5.916596,0.0477,-0.9194,-0.2147,0.1498,-0.6852,-1.4271,-0.2247,0.8672,0.2674,
5.917879,0.0340,-0.9548,-0.2210,0.1498,-0.6852,-1.4271,-0.2247,0.8672,0.2674,
5.921740,0.0340,-0.9548,-0.2210,0.1498,-0.6852,-1.4271,0.8192,0.6072,-0.1853,
5.923555,0.0340,-0.9548,-0.2210,-0.3061,0.6074,1.3374,0.8192,0.6072,-0.1853,
5.961779,0.0340,-0.9548,-0.2210,-0.3061,0.6074,1.3374,1.4019,0.6030,-0.5539,
5.963812,0.0340,-0.9548,-0.2210,1.1427,-0.0212,0.9276,1.4019,0.6030,-0.5539,
6.000835,0.0340,-0.9548,-0.2210,1.1427,-0.0212,0.9276,1.6523,0.5082,-0.5582,
6.003352,0.0340,-0.9548,-0.2210,0.8675,0.1737,0.3320,1.6523,0.5082,-0.5582,
6.004495,-0.0378,-0.9404,-0.2049,0.8675,0.1737,0.3320,1.6523,0.5082,-0.5582,
6.005676,-0.0906,-0.9732,-0.2284,0.8675,0.1737,0.3320,1.6523,0.5082,-0.5582,
6.007157,-0.1588,-0.9729,-0.1988,0.8675,0.1737,0.3320,1.6523,0.5082,-0.5582,
6.008424,-0.2071,-0.9204,-0.0473,0.8675,0.1737,0.3320,1.6523,0.5082,-0.5582,
6.009669,-0.2157,-0.8816,0.0108,0.8675,0.1737,0.3320,1.6523,0.5082,-0.5582,
6.040965,-0.2157,-0.8816,0.0108,0.8675,0.1737,0.3320,2.0347,0.2749,-0.5305,
6.042665,-0.2157,-0.8816,0.0108,-0.9723,0.1795,0.1168,2.0347,0.2749,-0.5305,
6.080506,-0.2157,-0.8816,0.0108,-0.9723,0.1795,0.1168,2.2254,0.9098,-0.5582,
6.082370,-0.2157,-0.8816,0.0108,-1.3618,1.3325,1.1294,2.2254,0.9098,-0.5582,
6.083961,-0.1622,-0.8500,0.0159,-1.3618,1.3325,1.1294,2.2254,0.9098,-0.5582,
6.085087,-0.1265,-0.8114,0.0699,-1.3618,1.3325,1.1294,2.2254,0.9098,-0.5582,
6.086460,-0.1788,-0.8757,0.0421,-1.3618,1.3325,1.1294,2.2254,0.9098,-0.5582,
6.087695,-0.3034,-1.0909,-0.1912,-1.3618,1.3325,1.1294,2.2254,0.9098,-0.5582,
6.121688,-0.3034,-1.0909,-0.1912,-1.3618,1.3325,1.1294,1.9931,1.0142,-0.3856,
6.123925,-0.3034,-1.0909,-0.1912,-1.5009,1.3472,0.3680,1.9931,1.0142,-0.3856,
6.159415,-0.3034,-1.0909,-0.1912,-1.5009,1.3472,0.3680,0.6530,0.8885,0.0640,
6.161355,-0.3034,-1.0909,-0.1912,-2.4572,-1.1738,-2.2920,0.6530,0.8885,0.0640,
6.162187,-0.3364,-1.3536,-0.5054,-2.4572,-1.1738,-2.2920,0.6530,0.8885,0.0640,
6.163096,-0.2760,-1.5021,-0.6918,-2.4572,-1.1738,-2.2920,0.6530,0.8885,0.0640,
6.163874,-0.1512,-1.3956,-0.8599,-2.4572,-1.1738,-2.2920,0.6530,0.8885,0.0640,
6.164730,-0.1057,-1.1364,-0.6198,-2.4572,-1.1738,-2.2920,0.6530,0.8885,0.0640,
6.199687,-0.1057,-1.1364,-0.6198,-2.4572,-1.1738,-2.2920,-0.6668,1.3796,0.2578,
6.201608,-0.1057,-1.1364,-0.6198,-1.3989,-3.4495,-6.8610,-0.6668,1.3796,0.2578,
6.239558,-0.1057,-1.1364,-0.6198,-1.3989,-3.4495,-6.8610,-0.8320,0.3985,0.5380,
6.241432,-0.1057,-1.1364,-0.6198,-1.2090,1.6530,0.9687,-0.8320,0.3985,0.5380,
6.242597,-0.1619,-0.9219,-0.1360,-1.2090,1.6530,0.9687,-0.8320,0.3985,0.5380,
6.243776,-0.2589,-0.7665,0.1552,-1.2090,1.6530,0.9687,-0.8320,0.3985,0.5380,
6.245038,-0.1221,-0.7682,0.1112,-1.2090,1.6530,0.9687,-0.8320,0.3985,0.5380,
6.245828,0.1945,-1.0658,-0.2443,-1.2090,1.6530,0.9687,-0.8320,0.3985,0.5380,
6.278543,0.1945,-1.0658,-0.2443,-1.2090,1.6530,0.9687,-0.1800,-0.1320,0.4038,
6.280367,0.1945,-1.0658,-0.2443,-1.0334,1.6113,1.0169,-0.1800,-0.1320,0.4038,
6.319206,0.1945,-1.0658,-0.2443,-1.0334,1.6113,1.0169,-0.3004,1.6011,-0.3600,
6.321146,0.3843,-1.2707,-0.5081,-1.0334,1.6113,1.0169,-0.3004,1.6011,-0.3600,
6.322420,0.1630,-1.1342,-0.1082,-1.0334,1.6113,1.0169,-0.3004,1.6011,-0.3600,
6.323643,-0.1297,-0.9705,0.1391,-1.0334,1.6113,1.0169,-0.3004,1.6011,-0.3600,
6.324780,-0.1622,-0.9588,0.1391,-1.0334,1.6113,1.0169,-0.3004,1.6011,-0.3600,
6.325598,-0.1622,-0.9588,0.1391,2.9334,-1.6718,-2.0289,-0.3004,1.6011,-0.3600,
6.358440,-0.1622,-0.9588,0.1391,2.8150,-1.6380,-2.0277,-0.3004,1.6011,-0.3600,
6.360488,-0.1622,-0.9588,0.1391,2.8150,-1.6380,-2.0277,0.1215,0.7138,-0.1267,
6.398589,-0.1622,-0.9588,0.1391,2.8150,-1.6380,-2.0277,0.1992,0.6062,0.2301,
6.400498,-0.1622,-0.9588,0.1391,-0.7820,0.0684,1.0757,0.1992,0.6062,0.2301,
6.401638,-0.0930,-1.0193,-0.1627,-0.7820,0.0684,1.0757,0.1992,0.6062,0.2301,
6.402752,-0.0960,-1.1085,-0.2836,-0.7820,0.0684,1.0757,0.1992,0.6062,0.2301,
6.403913,0.0149,-1.1491,0.0186,-0.7820,0.0684,1.0757,0.1992,0.6062,0.2301,
6.404735,0.0787,-1.1430,0.1151,-0.7820,0.0684,1.0757,0.1992,0.6062,0.2301,
6.437216,0.0787,-1.1430,0.1151,-0.7820,0.0684,1.0757,0.6914,0.5678,0.1961,
6.439021,0.0787,-1.1430,0.1151,0.5211,-1.3730,-0.0449,0.6914,0.5678,0.1961,
6.478061,0.0787,-1.1430,0.1151,0.5211,-1.3730,-0.0449,0.9268,0.1108,0.2845,
6.479864,0.0787,-1.1430,0.1151,1.0973,-0.5716,-1.6231,0.9268,0.1108,0.2845,
6.481241,0.0904,-1.1141,-0.0925,1.0973,-0.5716,-1.6231,0.9268,0.1108,0.2845,
6.482553,0.0347,-1.0680,-0.2550,1.0973,-0.5716,-1.6231,0.9268,0.1108,0.2845,
6.483896,0.0215,-0.9771,-0.1851,1.0973,-0.5716,-1.6231,0.9268,0.1108,0.2845,
6.485023,0.0799,-0.9250,-0.0779,1.0973,-0.5716,-1.6231,0.9268,0.1108,0.2845,
6.516348,0.0799,-0.9250,-0.0779,1.0973,-0.5716,-1.6231,0.8885,-0.2088,0.4038,
6.518234,0.0799,-0.9250,-0.0779,1.2316,-0.5750,-1.9393,0.8885,-0.2088,0.4038,
6.556751,0.0799,-0.9250,-0.0779,1.2316,-0.5750,-1.9393,0.9300,0.2184,0.3271,
6.558688,0.0799,-0.9250,-0.0779,1.9289,0.6387,-1.4732,0.9300,0.2184,0.3271,
6.560175,0.1049,-0.9404,-0.0547,1.9289,0.6387,-1.4732,0.9300,0.2184,0.3271,
6.561334,0.1456,-0.9114,-0.1575,1.9289,0.6387,-1.4732,0.9300,0.2184,0.3271,
6.562461,0.1554,-0.8263,-0.2223,1.9289,0.6387,-1.4732,0.9300,0.2184,0.3271,
6.563899,0.1242,-0.8031,-0.1497,1.9289,0.6387,-1.4732,0.9300,0.2184,0.3271,
6.596394,0.1242,-0.8031,-0.1497,1.9289,0.6387,-1.4732,0.5998,0.1769,0.3367,
6.598832,0.1242,-0.8031,-0.1497,2.0284,0.6012,-1.6690,0.5998,0.1769,0.3367,
6.636710,0.1242,-0.8031,-0.1497,2.0284,0.6012,-1.6690,0.4059,-0.1225,0.3878,
6.639430,0.1242,-0.8031,-0.1497,2.2448,1.3219,-2.2910,0.4059,-0.1225,0.3878,
6.641282,0.0846,-0.9111,-0.0713,2.2448,1.3219,-2.2910,0.4059,-0.1225,0.3878,
6.642321,0.1378,-0.9678,-0.1043,2.2448,1.3219,-2.2910,0.4059,-0.1225,0.3878,
6.643584,0.1864,-0.9695,-0.1285,2.2448,1.3219,-2.2910,0.4059,-0.1225,0.3878,
6.644645,0.1532,-1.0162,-0.0928,2.2448,1.3219,-2.2910,0.4059,-0.1225,0.3878,
6.675875,0.1532,-1.0162,-0.0928,2.2448,1.3219,-2.2910,0.0032,-0.7424,0.2206,
6.678549,0.1532,-1.0162,-0.0928,2.6289,-0.0358,-1.9074,0.0032,-0.7424,0.2206,
6.716246,0.1393,-1.0814,0.0325,2.6289,-0.0358,-1.9074,0.0032,-0.7424,0.2206,
6.718620,0.0941,-1.1285,0.1757,2.6289,-0.0358,-1.9074,0.0032,-0.7424,0.2206,
6.719721,-0.0151,-1.1505,0.2510,2.6289,-0.0358,-1.9074,0.0032,-0.7424,0.2206,
6.721012,-0.0151,-1.1505,0.2510,2.6289,-0.0358,-1.9074,-0.2407,-0.9118,-0.1587,
6.722006,-0.0151,-1.1505,0.2510,1.6637,-1.3286,0.6985,-0.2407,-0.9118,-0.1587,
6.755567,-0.0151,-1.1505,0.2510,1.6637,-1.3286,0.6985,-0.0085,-0.8309,-0.3313,
6.757860,-0.0151,-1.1505,0.2510,-1.4185,-1.7313,0.8240,-0.0085,-0.8309,-0.3313,
6.794425,-0.0151,-1.1505,0.2510,-1.4185,-1.7313,0.8240,0.0852,-0.7456,-0.0777,
6.796771,-0.0151,-1.1505,0.2510,-1.4494,-1.7029,0.7552,0.0852,-0.7456,-0.0777,
6.798106,-0.1079,-1.1051,0.2290,-1.4494,-1.7029,0.7552,0.0852,-0.7456,-0.0777,
6.799232,-0.2443,-1.1542,0.1825,-1.4494,-1.7029,0.7552,0.0852,-0.7456,-0.0777,
6.800448,-0.3334,-1.2370,0.0983,-1.4494,-1.7029,0.7552,0.0852,-0.7456,-0.0777,
6.801658,-0.2455,-1.1232,-0.0026,-1.4494,-1.7029,0.7552,0.0852,-0.7456,-0.0777,
6.803882,-0.1289,-0.9431,0.0101,-1.4494,-1.7029,0.7552,0.0852,-0.7456,-0.0777,
6.834218,-0.1289,-0.9431,0.0101,-1.4494,-1.7029,0.7552,-0.3398,-0.7201,0.1034,
6.836762,-0.1289,-0.9431,0.0101,-1.4105,-1.6664,0.8491,-0.3398,-0.7201,0.1034,
6.874260,-0.1289,-0.9431,0.0101,-1.4105,-1.6664,0.8491,-0.6690,-0.8170,0.0437,
6.876512,-0.1289,-0.9431,0.0101,-0.7337,0.2201,-0.4883,-0.6690,-0.8170,0.0437,
6.877926,-0.1060,-0.8566,0.0194,-0.7337,0.2201,-0.4883,-0.6690,-0.8170,0.0437,
6.879185,-0.1280,-0.8153,0.0079,-0.7337,0.2201,-0.4883,-0.6690,-0.8170,0.0437,
6.880516,-0.1502,-0.8026,0.0150,-0.7337,0.2201,-0.4883,-0.6690,-0.8170,0.0437,
6.881818,-0.1556,-0.8261,-0.0007,-0.7337,0.2201,-0.4883,-0.6690,-0.8170,0.0437,
6.913785,-0.1556,-0.8261,-0.0007,-0.7337,0.2201,-0.4883,-0.9204,-0.8564,-0.0298,
6.915986,-0.1556,-0.8261,-0.0007,-0.5969,1.7703,-0.1720,-0.9204,-0.8564,-0.0298,
6.953429,-0.1651,-0.8520,-0.0481,-0.5969,1.7703,-0.1720,-0.9204,-0.8564,-0.0298,
6.955674,-0.1922,-0.8366,-0.1470,-0.5969,1.7703,-0.1720,-0.9204,-0.8564,-0.0298,
6.956642,-0.2206,-0.8258,-0.2391,-0.5969,1.7703,-0.1720,-0.9204,-0.8564,-0.0298,
6.957693,-0.2206,-0.8258,-0.2391,-0.5969,1.7703,-0.1720,-1.3656,-0.9640,-0.0681,
6.958929,-0.2206,-0.8258,-0.2391,-1.0760,1.5167,-1.1460,-1.3656,-0.9640,-0.0681,
6.992640,-0.2206,-0.8258,-0.2391,-1.0760,1.5167,-1.1460,-1.8866,-1.0567,0.0118,
6.994896,-0.2206,-0.8258,-0.2391,-1.0294,-1.1316,-1.4542,-1.8866,-1.0567,0.0118,
7.032744,-0.2206,-0.8258,-0.2391,-1.0294,-1.1316,-1.4542,-2.1646,-0.5400,0.0778,
7.036101,-0.2206,-0.8258,-0.2391,-0.9553,-1.2329,-0.6344,-2.1646,-0.5400,0.0778,
7.037575,-0.2430,-0.9355,-0.2196,-0.9553,-1.2329,-0.6344,-2.1646,-0.5400,0.0778,
7.039158,-0.2074,-1.1207,-0.2003,-0.9553,-1.2329,-0.6344,-2.1646,-0.5400,0.0778,
7.040553,-0.1277,-1.2605,-0.3281,-0.9553,-1.2329,-0.6344,-2.1646,-0.5400,0.0778,
7.041911,-0.0217,-1.2627,-0.2308,-0.9553,-1.2329,-0.6344,-2.1646,-0.5400,0.0778,
7.043276,-0.0464,-1.2908,-0.1150,-0.9553,-1.2329,-0.6344,-2.1646,-0.5400,0.0778,
7.072196,-0.0464,-1.2908,-0.1150,-0.9553,-1.2329,-0.6344,-2.0325,-0.0223,-0.0681,
7.073840,-0.0464,-1.2908,-0.1150,-0.9639,-1.3834,0.1290,-2.0325,-0.0223,-0.0681,
7.112446,-0.0464,-1.2908,-0.1150,-0.9639,-1.3834,0.1290,-1.3965,-0.5944,-0.1661,
7.114908,-0.0464,-1.2908,-0.1150,0.4058,-3.3868,1.6361,-1.3965,-0.5944,-0.1661,
7.116415,-0.0906,-1.3482,-0.0845,0.4058,-3.3868,1.6361,-1.3965,-0.5944,-0.1661,
7.117447,-0.0679,-1.3885,-0.0906,0.4058,-3.3868,1.6361,-1.3965,-0.5944,-0.1661,
7.118427,-0.0874,-1.3306,-0.1502,0.4058,-3.3868,1.6361,-1.3965,-0.5944,-0.1661,
7.119676,-0.1575,-1.1557,-0.1746,0.4058,-3.3868,1.6361,-1.3965,-0.5944,-0.1661,
7.150573,-0.1575,-1.1557,-0.1746,0.4058,-3.3868,1.6361,-0.9630,-0.8927,-0.1757,
7.152650,-0.1575,-1.1557,-0.1746,-0.0476,-3.3579,1.9729,-0.9630,-0.8927,-0.1757,
7.190848,-0.1886,-1.0181,-0.1338,-0.0476,-3.3579,1.9729,-0.9630,-0.8927,-0.1757,
7.193002,-0.2132,-0.9255,-0.0908,-0.0476,-3.3579,1.9729,-0.9630,-0.8927,-0.1757,
7.194249,-0.1890,-0.8285,-0.0212,-0.0476,-3.3579,1.9729,-0.9630,-0.8927,-0.1757,
7.195396,-0.1890,-0.8285,-0.0212,-0.0476,-3.3579,1.9729,-0.5987,-0.5827,-0.1459,
7.196920,-0.1890,-0.8285,-0.0212,-0.9146,0.1654,2.6782,-0.5987,-0.5827,-0.1459,
7.230989,-0.1890,-0.8285,-0.0212,-0.9146,0.1654,2.6782,-0.1182,-0.0735,-0.2151,
7.233430,-0.1890,-0.8285,-0.0212,-0.0845,3.3519,2.9768,-0.1182,-0.0735,-0.2151,
7.271096,-0.1890,-0.8285,-0.0212,-0.0845,3.3519,2.9768,0.3665,-0.2748,-0.4005,
7.273481,-0.1890,-0.8285,-0.0212,-0.1900,3.3585,2.7864,0.3665,-0.2748,-0.4005,
7.274723,-0.1321,-0.7081,0.0035,-0.1900,3.3585,2.7864,0.3665,-0.2748,-0.4005,
7.275863,-0.0867,-0.5886,-0.0515,-0.1900,3.3585,2.7864,0.3665,-0.2748,-0.4005,
7.277215,-0.0974,-0.4802,-0.1033,-0.1900,3.3585,2.7864,0.3665,-0.2748,-0.4005,
7.278344,-0.0772,-0.3932,-0.1412,-0.1900,3.3585,2.7864,0.3665,-0.2748,-0.4005,
7.279665,-0.0400,-0.4020,-0.2284,-0.1900,3.3585,2.7864,0.3665,-0.2748,-0.4005,
7.310308,-0.0400,-0.4020,-0.2284,-0.1900,3.3585,2.7864,0.7713,-0.8223,-0.4335,
7.311950,-0.0400,-0.4020,-0.2284,-0.2425,3.4103,2.4368,0.7713,-0.8223,-0.4335,
7.340055,-0.0202,-0.5280,-0.3496,-0.2425,3.4103,2.4368,0.7713,-0.8223,-0.4335,
7.342337,0.0242,-0.8317,-0.4468,-0.2425,3.4103,2.4368,0.7713,-0.8223,-0.4335,
7.343638,-0.0882,-1.3645,-0.5792,-0.2425,3.4103,2.4368,0.7713,-0.8223,-0.4335,
7.354640,-0.0882,-1.3645,-0.5792,-0.2425,3.4103,2.4368,0.3995,-1.0844,-0.3004,
7.356911,-0.0882,-1.3645,-0.5792,0.3473,4.8643,0.3951,0.3995,-1.0844,-0.3004,
7.389073,-0.0882,-1.3645,-0.5792,0.3473,4.8643,0.3951,0.0789,-0.8628,-0.0830,
7.390730,-0.0882,-1.3645,-0.5792,-0.9628,-4.1639,-1.8490,0.0789,-0.8628,-0.0830,
7.427920,-0.4986,-1.9157,-0.3723,-0.9628,-4.1639,-1.8490,0.0789,-0.8628,-0.0830,
7.430026,-0.8313,-1.6384,-0.2279,-0.9628,-4.1639,-1.8490,0.0789,-0.8628,-0.0830,
7.430905,-0.7861,-0.9837,-0.3119,-0.9628,-4.1639,-1.8490,0.0789,-0.8628,-0.0830,
7.431739,-0.4272,-0.7342,-0.1695,-0.9628,-4.1639,-1.8490,0.0789,-0.8628,-0.0830,
7.432643,-0.4272,-0.7342,-0.1695,-0.9628,-4.1639,-1.8490,0.1012,-0.6018,0.0714,
7.433718,-0.4272,-0.7342,-0.1695,-5.6189,-1.6592,0.3368,0.1012,-0.6018,0.0714,
7.468928,-0.4272,-0.7342,-0.1695,-5.6189,-1.6592,0.3368,0.4890,-0.2471,-0.1768,
7.471226,-0.4272,-0.7342,-0.1695,2.3113,-0.4769,1.4003,0.4890,-0.2471,-0.1768,
7.508508,-0.4272,-0.7342,-0.1695,2.3113,-0.4769,1.4003,0.7233,-0.4868,-0.4548,
7.511123,-0.4272,-0.7342,-0.1695,2.1493,-0.3880,1.0941,0.7233,-0.4868,-0.4548,
7.512495,-0.1177,-0.7951,-0.2108,2.1493,-0.3880,1.0941,0.7233,-0.4868,-0.4548,
7.513865,0.1530,-1.0790,-0.1707,2.1493,-0.3880,1.0941,0.7233,-0.4868,-0.4548,
7.515167,0.3719,-1.1403,0.0636,2.1493,-0.3880,1.0941,0.7233,-0.4868,-0.4548,
7.517231,0.2387,-0.9289,0.0301,2.1493,-0.3880,1.0941,0.7233,-0.4868,-0.4548,
7.518494,-0.1385,-0.8862,-0.5123,2.1493,-0.3880,1.0941,0.7233,-0.4868,-0.4548,
7.547350,-0.1385,-0.8862,-0.5123,2.0540,-0.3375,0.8947,0.7233,-0.4868,-0.4548,
7.550292,-0.1385,-0.8862,-0.5123,2.0540,-0.3375,0.8947,0.3409,-1.8194,-0.5486,
7.587163,-0.1385,-0.8862,-0.5123,2.0540,-0.3375,0.8947,-0.4186,-1.5840,-0.1139,
7.589890,-0.1385,-0.8862,-0.5123,-0.0452,0.4308,-1.3047,-0.4186,-1.5840,-0.1139,
7.591122,-0.3606,-0.9526,-0.5496,-0.0452,0.4308,-1.3047,-0.4186,-1.5840,-0.1139,
7.592366,-0.1959,-0.9514,-0.2125,-0.0452,0.4308,-1.3047,-0.4186,-1.5840,-0.1139,
7.593818,-0.0234,-0.8835,-0.0622,-0.0452,0.4308,-1.3047,-0.4186,-1.5840,-0.1139,
7.594806,-0.0090,-0.8361,-0.1175,-0.0452,0.4308,-1.3047,-0.4186,-1.5840,-0.1139,
7.626760,-0.0090,-0.8361,-0.1175,-0.0452,0.4308,-1.3047,-0.5038,-1.3933,-0.2034,
7.628559,-0.0090,-0.8361,-0.1175,0.0993,0.6990,0.9123,-0.5038,-1.3933,-0.2034,
7.667125,-0.0090,-0.8361,-0.1175,0.0993,0.6990,0.9123,-0.5987,-1.1196,-0.1747,
7.669327,0.0000,-0.8129,-0.2469,0.0993,0.6990,0.9123,-0.5987,-1.1196,-0.1747,
7.671074,-0.0427,-0.8561,-0.4324,0.0993,0.6990,0.9123,-0.5987,-1.1196,-0.1747,
7.672075,-0.0730,-0.9346,-0.3847,0.0993,0.6990,0.9123,-0.5987,-1.1196,-0.1747,
7.673071,0.0909,-0.9597,-0.1201,0.0993,0.6990,0.9123,-0.5987,-1.1196,-0.1747,
7.674328,0.0909,-0.9597,-0.1201,0.4948,0.8566,-1.0795,-0.5987,-1.1196,-0.1747,
7.706856,0.0909,-0.9597,-0.1201,0.4948,0.8566,-1.0795,-0.7265,-1.4903,-0.0213,
7.709866,0.0909,-0.9597,-0.1201,0.6243,0.7721,-0.8518,-0.7265,-1.4903,-0.0213,
7.746005,0.2544,-1.0570,-0.1666,0.6243,0.7721,-0.8518,-0.7265,-1.4903,-0.0213,
7.748644,0.1444,-1.1847,-0.2435,0.6243,0.7721,-0.8518,-0.7265,-1.4903,-0.0213,
7.750084,-0.0102,-1.1967,-0.1443,0.6243,0.7721,-0.8518,-0.7265,-1.4903,-0.0213,
7.751195,-0.0102,-1.1967,-0.1443,0.6243,0.7721,-0.8518,-0.2684,-0.8756,-0.3643,
7.752234,-0.0102,-1.1967,-0.1443,2.5180,-1.1748,0.9400,-0.2684,-0.8756,-0.3643,
7.786086,-0.0102,-1.1967,-0.1443,2.5180,-1.1748,0.9400,0.3611,-0.4133,-0.5816,
7.788629,-0.0102,-1.1967,-0.1443,0.3274,-1.9480,0.7723,0.3611,-0.4133,-0.5816,
7.825425,-0.0102,-1.1967,-0.1443,0.3391,-1.8474,0.4835,0.3611,-0.4133,-0.5816,
7.828350,-0.0102,-1.1967,-0.1443,0.3391,-1.8474,0.4835,0.6988,-0.6828,-0.1257,
7.829755,-0.0259,-1.1281,-0.1270,0.3391,-1.8474,0.4835,0.6988,-0.6828,-0.1257,
7.830976,-0.0906,-1.1408,-0.2611,0.3391,-1.8474,0.4835,0.6988,-0.6828,-0.1257,
7.832122,-0.0994,-1.1579,-0.3728,0.3391,-1.8474,0.4835,0.6988,-0.6828,-0.1257,
7.833457,0.0303,-1.1085,-0.3449,0.3391,-1.8474,0.4835,0.6988,-0.6828,-0.1257,
7.834455,0.1141,-1.0636,-0.2658,0.3391,-1.8474,0.4835,0.6988,-0.6828,-0.1257,
7.864729,0.1141,-1.0636,-0.2658,0.3391,-1.8474,0.4835,0.6797,-1.8429,0.2909,
7.867049,0.1141,-1.0636,-0.2658,1.1402,-1.3364,-1.2879,0.6797,-1.8429,0.2909,
7.904608,0.1141,-1.0636,-0.2658,1.1402,-1.3364,-1.2879,0.7872,-2.1870,0.0949,
7.908001,0.1141,-1.0636,-0.2658,2.6105,0.2684,-0.6509,0.7872,-2.1870,0.0949,
7.909286,0.1630,-1.0230,-0.2394,2.6105,0.2684,-0.6509,0.7872,-2.1870,0.0949,
7.910471,0.1821,-0.9519,-0.2232,2.6105,0.2684,-0.6509,0.7872,-2.1870,0.0949,
7.911671,0.1068,-0.8776,-0.2088,2.6105,0.2684,-0.6509,0.7872,-2.1870,0.0949,
7.912538,-0.0166,-0.8383,-0.1778,2.6105,0.2684,-0.6509,0.7872,-2.1870,0.0949,
7.944378,-0.0166,-0.8383,-0.1778,2.6105,0.2684,-0.6509,0.7532,-1.5510,-0.1651,
7.946706,-0.0166,-0.8383,-0.1778,2.5880,0.3114,-0.9922,0.7532,-1.5510,-0.1651,
7.983429,-0.0166,-0.8383,-0.1778,2.5880,0.3114,-0.9922,0.4932,-1.4860,-0.0372,
7.985367,-0.0166,-0.8383,-0.1778,0.1575,1.2098,-0.4169,0.4932,-1.4860,-0.0372,
7.986752,-0.1021,-0.8356,-0.1157,0.1575,1.2098,-0.4169,0.4932,-1.4860,-0.0372,
7.987854,-0.1876,-0.9043,-0.1258,0.1575,1.2098,-0.4169,0.4932,-1.4860,-0.0372,
7.988935,-0.1942,-0.9673,-0.2086,0.1575,1.2098,-0.4169,0.4932,-1.4860,-0.0372,
7.990506,-0.0261,-0.9544,-0.1333,0.1575,1.2098,-0.4169,0.4932,-1.4860,-0.0372,
8.022385,-0.0261,-0.9544,-0.1333,0.1575,1.2098,-0.4169,-0.0980,-1.4509,0.1375,
8.024058,-0.0261,-0.9544,-0.1333,0.2584,1.1797,-0.4413,-0.0980,-1.4509,0.1375,
8.062527,-0.0261,-0.9544,-0.1333,0.2584,1.1797,-0.4413,-0.6136,-1.1153,-0.0852,
8.064350,-0.0261,-0.9544,-0.1333,0.8965,0.1513,-0.0738,-0.6136,-1.1153,-0.0852,
8.066029,0.1105,-0.9644,-0.0195,0.8965,0.1513,-0.0738,-0.6136,-1.1153,-0.0852,
8.067400,-0.0188,-1.0623,-0.0117,0.8965,0.1513,-0.0738,-0.6136,-1.1153,-0.0852,
8.068374,-0.1974,-1.0792,0.0206,0.8965,0.1513,-0.0738,-0.6136,-1.1153,-0.0852,
8.069724,-0.3466,-1.0162,0.1022,0.8965,0.1513,-0.0738,-0.6136,-1.1153,-0.0852,
8.102411,-0.3466,-1.0162,0.1022,0.8965,0.1513,-0.0738,-0.9427,-0.9608,-0.2567,
8.104921,-0.3466,-1.0162,0.1022,-0.6224,-0.7579,1.7502,-0.9427,-0.9608,-0.2567,
8.142551,-0.3466,-1.0162,0.1022,-0.6224,-0.7579,1.7502,-0.9342,-0.3430,-0.0628,
8.145120,-0.4544,-0.9778,0.1471,-0.6224,-0.7579,1.7502,-0.9342,-0.3430,-0.0628,
8.146611,-0.4509,-0.9617,0.0809,-0.6224,-0.7579,1.7502,-0.9342,-0.3430,-0.0628,
8.147789,-0.3745,-0.9514,0.0355,-0.6224,-0.7579,1.7502,-0.9342,-0.3430,-0.0628,
8.148728,-0.2653,-0.9500,0.0318,-0.6224,-0.7579,1.7502,-0.9342,-0.3430,-0.0628,
8.149965,-0.2653,-0.9500,0.0318,-2.9186,0.0581,2.5417,-0.9342,-0.3430,-0.0628,
8.182008,-0.2653,-0.9500,0.0318,-2.7913,-0.0362,2.9118,-0.9342,-0.3430,-0.0628,
8.184449,-0.2653,-0.9500,0.0318,-2.7913,-0.0362,2.9118,-1.0951,0.1705,0.2493,
8.221768,-0.2653,-0.9500,0.0318,-2.7913,-0.0362,2.9118,-1.2261,0.4347,0.2163,
8.224131,-0.2653,-0.9500,0.0318,-0.2543,0.8657,2.2460,-1.2261,0.4347,0.2163,
8.225351,-0.1172,-0.8750,0.0042,-0.2543,0.8657,2.2460,-1.2261,0.4347,0.2163,
8.226726,-0.1343,-0.7477,-0.1111,-0.2543,0.8657,2.2460,-1.2261,0.4347,0.2163,
8.227844,-0.2044,-0.7877,-0.2154,-0.2543,0.8657,2.2460,-1.2261,0.4347,0.2163,
8.229104,-0.1270,-0.9275,-0.2296,-0.2543,0.8657,2.2460,-1.2261,0.4347,0.2163,
8.261180,-0.1270,-0.9275,-0.2296,-0.2543,0.8657,2.2460,-0.9821,0.9556,0.0427,
8.263717,-0.1270,-0.9275,-0.2296,-0.3361,0.7458,2.6134,-0.9821,0.9556,0.0427,
8.301212,-0.1270,-0.9275,-0.2296,-0.3361,0.7458,2.6134,-0.7883,0.6349,-0.0351,
8.303997,-0.1270,-0.9275,-0.2296,-0.0376,0.1166,0.7285,-0.7883,0.6349,-0.0351,
8.305350,-0.0671,-1.0211,-0.3004,-0.0376,0.1166,0.7285,-0.7883,0.6349,-0.0351,
8.306481,-0.0522,-1.0592,-0.6312,-0.0376,0.1166,0.7285,-0.7883,0.6349,-0.0351,
8.307900,-0.0317,-1.0543,-0.7331,-0.0376,0.1166,0.7285,-0.7883,0.6349,-0.0351,
8.309184,-0.0046,-0.9996,-0.4976,-0.0376,0.1166,0.7285,-0.7883,0.6349,-0.0351,
8.342265,-0.0046,-0.9996,-0.4976,-0.0376,0.1166,0.7285,-0.7052,0.4762,0.0778,
8.344940,-0.0046,-0.9996,-0.4976,0.9250,-1.1900,-2.5994,-0.7052,0.4762,0.0778,
8.380984,-0.0603,-0.9226,-0.4461,0.9250,-1.1900,-2.5994,-0.7052,0.4762,0.0778,
8.383477,-0.0703,-0.9656,-0.5978,0.9250,-1.1900,-2.5994,-0.7052,0.4762,0.0778,
8.384687,-0.0105,-1.1425,-0.7016,0.9250,-1.1900,-2.5994,-0.7052,0.4762,0.0778,
8.385835,-0.0105,-1.1425,-0.7016,0.9250,-1.1900,-2.5994,-0.3994,0.1737,0.0086,
8.387122,-0.0105,-1.1425,-0.7016,0.7199,-0.9614,-2.0343,-0.3994,0.1737,0.0086,
8.420059,-0.0105,-1.1425,-0.7016,0.7199,-0.9614,-2.0343,-0.5710,0.2120,-0.2705,
8.422216,-0.0105,-1.1425,-0.7016,0.7830,-1.7231,-2.2293,-0.5710,0.2120,-0.2705,
8.459832,-0.0105,-1.1425,-0.7016,0.7830,-1.7231,-2.2293,-0.6807,-0.1608,-0.3483,
8.463218,-0.0105,-1.1425,-0.7016,0.6754,-1.7880,-1.9635,-0.6807,-0.1608,-0.3483,
8.464727,0.0477,-1.2126,-0.6645,0.6754,-1.7880,-1.9635,-0.6807,-0.1608,-0.3483,
8.465799,0.0018,-1.1019,-0.6337,0.6754,-1.7880,-1.9635,-0.6807,-0.1608,-0.3483,
8.467039,-0.1282,-0.9358,-0.5831,0.6754,-1.7880,-1.9635,-0.6807,-0.1608,-0.3483,
8.468167,-0.1934,-0.7995,-0.5220,0.6754,-1.7880,-1.9635,-0.6807,-0.1608,-0.3483,
8.469241,-0.1776,-0.6773,-0.4734,0.6754,-1.7880,-1.9635,-0.6807,-0.1608,-0.3483,
8.499601,-0.1776,-0.6773,-0.4734,0.6754,-1.7880,-1.9635,-0.2599,-0.0905,-0.1608,
8.501778,-0.1776,-0.6773,-0.4734,0.6239,-1.7953,-1.8447,-0.2599,-0.0905,-0.1608,
8.540001,-0.1776,-0.6773,-0.4734,0.6239,-1.7953,-1.8447,0.0501,0.0672,-0.1555,
8.542483,-0.1776,-0.6773,-0.4734,-0.8175,1.9318,-0.2226,0.0501,0.0672,-0.1555,
8.544115,-0.1331,-0.6267,-0.3857,-0.8175,1.9318,-0.2226,0.0501,0.0672,-0.1555,
8.545245,-0.1197,-0.6702,-0.3110,-0.8175,1.9318,-0.2226,0.0501,0.0672,-0.1555,
8.547132,-0.1321,-0.6563,-0.2953,-0.8175,1.9318,-0.2226,0.0501,0.0672,-0.1555,
8.548196,-0.0860,-0.5823,-0.2811,-0.8175,1.9318,-0.2226,0.0501,0.0672,-0.1555,
8.578359,-0.0860,-0.5823,-0.2811,-0.8175,1.9318,-0.2226,0.3643,0.1801,-0.3579,
8.580850,-0.0860,-0.5823,-0.2811,-0.4225,2.5956,1.2469,0.3643,0.1801,-0.3579,
8.618234,-0.0860,-0.5823,-0.2811,-0.4225,2.5956,1.2469,0.9289,0.7031,-0.3302,
8.620714,-0.0860,-0.5823,-0.2811,1.0080,4.3868,1.1393,0.9289,0.7031,-0.3302,
8.622318,-0.0034,-0.4948,-0.2294,1.0080,4.3868,1.1393,0.9289,0.7031,-0.3302,
8.623562,0.0826,-0.4281,-0.2521,1.0080,4.3868,1.1393,0.9289,0.7031,-0.3302,
8.624402,0.0958,-0.4621,-0.3373,1.0080,4.3868,1.1393,0.9289,0.7031,-0.3302,
8.625666,-0.0056,-0.6671,-0.4815,1.0080,4.3868,1.1393,0.9289,0.7031,-0.3302,
8.657732,-0.0056,-0.6671,-0.4815,1.0080,4.3868,1.1393,0.8203,0.7702,0.0011,
8.660048,-0.0056,-0.6671,-0.4815,0.8815,4.4312,0.8445,0.8203,0.7702,0.0011,
8.697917,-0.0056,-0.6671,-0.4815,0.8815,4.4312,0.8445,0.0245,0.0948,0.1353,
8.700256,-0.0056,-0.6671,-0.4815,-0.2092,-1.1437,-2.8364,0.0245,0.0948,0.1353,
8.701611,-0.0730,-1.0208,-0.7094,-0.2092,-1.1437,-2.8364,0.0245,0.0948,0.1353,
8.702754,-0.0921,-1.4102,-0.7671,-0.2092,-1.1437,-2.8364,0.0245,0.0948,0.1353,
8.704273,-0.2824,-1.5656,-0.7172,-0.2092,-1.1437,-2.8364,0.0245,0.0948,0.1353,
8.705518,-0.4319,-1.2282,-0.4998,-0.2092,-1.1437,-2.8364,0.0245,0.0948,0.1353,
8.737096,-0.4319,-1.2282,-0.4998,-0.2092,-1.1437,-2.8364,0.0554,-0.1097,0.1140,
8.739175,-0.4319,-1.2282,-0.4998,-0.1507,-1.1187,-2.8102,0.0554,-0.1097,0.1140,
8.776315,-0.4319,-1.2282,-0.4998,-0.1507,-1.1187,-2.8102,0.7106,0.2717,0.1833,
8.778239,-0.4319,-1.2282,-0.4998,-2.9932,-2.7965,-1.3316,0.7106,0.2717,0.1833,
8.779684,-0.3508,-0.8613,-0.2186,-2.9932,-2.7965,-1.3316,0.7106,0.2717,0.1833,
8.780975,-0.1534,-0.7743,-0.0872,-2.9932,-2.7965,-1.3316,0.7106,0.2717,0.1833,
8.782000,0.0000,-0.9707,-0.1700,-2.9932,-2.7965,-1.3316,0.7106,0.2717,0.1833,
8.783144,-0.0403,-1.2439,-0.2797,-2.9932,-2.7965,-1.3316,0.7106,0.2717,0.1833,
8.815792,-0.0403,-1.2439,-0.2797,-2.9932,-2.7965,-1.3316,0.8725,0.4581,-0.0308,
8.817942,-0.0403,-1.2439,-0.2797,-0.2122,-0.5004,1.2732,0.8725,0.4581,-0.0308,
8.856736,-0.0403,-1.2439,-0.2797,-0.2122,-0.5004,1.2732,0.7617,0.5934,-0.2876,
8.858696,-0.0403,-1.2439,-0.2797,-1.9892,-1.9502,-0.0585,0.7617,0.5934,-0.2876,
8.859923,-0.1483,-1.3281,-0.3307,-1.9892,-1.9502,-0.0585,0.7617,0.5934,-0.2876,
8.861177,-0.2604,-1.2028,-0.2897,-1.9892,-1.9502,-0.0585,0.7617,0.5934,-0.2876,
8.862284,-0.2860,-0.9397,-0.2408,-1.9892,-1.9502,-0.0585,0.7617,0.5934,-0.2876,
8.863331,-0.2753,-0.7516,-0.2286,-1.9892,-1.9502,-0.0585,0.7617,0.5934,-0.2876,
8.894931,-0.2753,-0.7516,-0.2286,-1.9892,-1.9502,-0.0585,0.6307,0.7138,-0.1949,
8.896891,-0.2753,-0.7516,-0.2286,-2.1009,-1.8512,-0.2836,0.6307,0.7138,-0.1949,
8.934832,-0.2753,-0.7516,-0.2286,-2.1009,-1.8512,-0.2836,0.2621,0.3420,0.2174,
8.936538,-0.2753,-0.7516,-0.2286,-1.8214,1.8676,-0.1774,0.2621,0.3420,0.2174,
8.938055,-0.2404,-0.7232,-0.2687,-1.8214,1.8676,-0.1774,0.2621,0.3420,0.2174,
8.939159,-0.1177,-0.8552,-0.3029,-1.8214,1.8676,-0.1774,0.2621,0.3420,0.2174,
8.940255,0.0059,-1.0232,-0.1702,-1.8214,1.8676,-0.1774,0.2621,0.3420,0.2174,
8.941374,0.1613,-1.0838,-0.0771,-1.8214,1.8676,-0.1774,0.2621,0.3420,0.2174,
8.975088,0.1613,-1.0838,-0.0771,-1.8214,1.8676,-0.1774,0.0213,0.2728,0.3036,
8.977543,0.1613,-1.0838,-0.0771,-1.7046,1.8350,-0.1793,0.0213,0.2728,0.3036,
9.013965,0.1613,-1.0838,-0.0771,-1.7046,1.8350,-0.1793,0.2866,0.8927,0.1013,
9.016407,0.1613,-1.0838,-0.0771,1.4178,-1.0543,0.8783,0.2866,0.8927,0.1013,
9.018208,0.1769,-1.1207,-0.1954,1.4178,-1.0543,0.8783,0.2866,0.8927,0.1013,
9.019075,0.0052,-1.1322,-0.1634,1.4178,-1.0543,0.8783,0.2866,0.8927,0.1013,
9.020350,-0.0293,-1.1202,-0.0192,1.4178,-1.0543,0.8783,0.2866,0.8927,0.1013,
9.021492,0.0169,-1.1376,-0.0532,1.4178,-1.0543,0.8783,0.2866,0.8927,0.1013,
9.053809,0.0169,-1.1376,-0.0532,1.4178,-1.0543,0.8783,0.7468,1.0877,0.1428,
9.056372,0.0169,-1.1376,-0.0532,0.2254,-1.4956,1.2627,0.7468,1.0877,0.1428,
9.094035,0.0169,-1.1376,-0.0532,0.8923,-1.7933,0.7143,0.7468,1.0877,0.1428,
9.096811,0.0169,-1.1376,-0.0532,0.8923,-1.7933,0.7143,1.0674,0.9140,0.3782,
9.098094,0.0526,-1.1769,-0.0923,0.8923,-1.7933,0.7143,1.0674,0.9140,0.3782,
9.099090,0.0611,-1.1962,-0.0657,0.8923,-1.7933,0.7143,1.0674,0.9140,0.3782,
9.100596,0.0643,-1.1398,-0.1206,0.8923,-1.7933,0.7143,1.0674,0.9140,0.3782,
9.101883,0.0724,-1.0494,-0.1693,0.8923,-1.7933,0.7143,1.0674,0.9140,0.3782,
9.133101,0.0724,-1.0494,-0.1693,0.8923,-1.7933,0.7143,1.1281,0.0959,0.6871,
9.138752,0.0724,-1.0494,-0.1693,1.1311,-1.7131,0.2763,1.1281,0.0959,0.6871,
9.173242,0.0724,-1.0494,-0.1693,1.1311,-1.7131,0.2763,1.1015,-0.4761,0.7383,
9.175228,0.0724,-1.0494,-0.1693,1.6750,0.3255,-0.9359,1.1015,-0.4761,0.7383,
9.176972,0.0868,-0.9619,-0.1824,1.6750,0.3255,-0.9359,1.1015,-0.4761,0.7383,
9.178109,0.1012,-0.8825,-0.1680,1.6750,0.3255,-0.9359,1.1015,-0.4761,0.7383,
9.179102,0.1073,-0.7914,-0.1663,1.6750,0.3255,-0.9359,1.1015,-0.4761,0.7383,
9.180304,0.0641,-0.7543,-0.2318,1.6750,0.3255,-0.9359,1.1015,-0.4761,0.7383,
9.212355,0.0641,-0.7543,-0.2318,1.6750,0.3255,-0.9359,0.9502,-0.2173,0.5860,
9.217214,0.0641,-0.7543,-0.2318,1.8754,0.3198,-1.2901,0.9502,-0.2173,0.5860,
9.253394,0.0641,-0.7543,-0.2318,1.8754,0.3198,-1.2901,0.5145,0.3431,0.5700,
9.255855,0.0641,-0.7543,-0.2318,1.7247,2.0055,-1.9919,0.5145,0.3431,0.5700,
9.257686,-0.0146,-0.8158,-0.2907,1.7247,2.0055,-1.9919,0.5145,0.3431,0.5700,
9.258976,-0.0239,-0.9145,-0.2416,1.7247,2.0055,-1.9919,0.5145,0.3431,0.5700,
9.260472,0.0269,-1.0054,-0.2487,1.7247,2.0055,-1.9919,0.5145,0.3431,0.5700,
9.261598,0.0137,-1.0504,-0.1895,1.7247,2.0055,-1.9919,0.5145,0.3431,0.5700,
9.291091,0.0137,-1.0504,-0.1895,1.7247,2.0055,-1.9919,-0.0351,0.5753,0.4634,
9.293754,0.0137,-1.0504,-0.1895,1.4159,-0.0075,-1.8871,-0.0351,0.5753,0.4634,
9.331455,0.0137,-1.0504,-0.1895,1.4159,-0.0075,-1.8871,-0.1619,0.0885,0.4453,
9.334042,0.0137,-1.0504,-0.1895,1.7428,-0.3196,1.0620,-0.1619,0.0885,0.4453,
9.335390,-0.0168,-1.0391,-0.0180,1.7428,-0.3196,1.0620,-0.1619,0.0885,0.4453,
9.336869,0.0184,-1.0127,0.0890,1.7428,-0.3196,1.0620,-0.1619,0.0885,0.4453,
9.338126,0.0724,-1.0071,0.1371,1.7428,-0.3196,1.0620,-0.1619,0.0885,0.4453,
9.339290,0.0878,-1.0340,0.1691,1.7428,-0.3196,1.0620,-0.1619,0.0885,0.4453,
9.370966,0.0878,-1.0340,0.1691,1.7428,-0.3196,1.0620,-0.0863,-0.2119,0.1833,
9.373504,0.0878,-1.0340,0.1691,1.7860,-0.3266,1.0639,-0.0863,-0.2119,0.1833,
9.411151,0.0878,-1.0340,0.1691,1.7860,-0.3266,1.0639,-0.0543,0.3409,-0.1619,
9.414306,0.0878,-1.0340,0.1691,1.3869,-0.4223,1.6133,-0.0543,0.3409,-0.1619,
9.415749,0.0306,-1.0484,0.1405,1.3869,-0.4223,1.6133,-0.0543,0.3409,-0.1619,
9.416974,-0.1387,-1.0108,0.0623,1.3869,-0.4223,1.6133,-0.0543,0.3409,-0.1619,
9.418095,-0.3334,-1.0054,0.0042,1.3869,-0.4223,1.6133,-0.0543,0.3409,-0.1619,
9.418944,-0.4480,-0.9881,-0.0710,1.3869,-0.4223,1.6133,-0.0543,0.3409,-0.1619,
9.451068,-0.4480,-0.9881,-0.0710,1.3869,-0.4223,1.6133,-0.2844,1.1250,-0.0159,
9.453800,-0.4480,-0.9881,-0.0710,1.3365,-0.4198,1.7567,-0.2844,1.1250,-0.0159,
9.490891,-0.4480,-0.9881,-0.0710,1.3365,-0.4198,1.7567,-0.7723,1.0483,0.3644,
9.493692,-0.4480,-0.9881,-0.0710,-2.3457,0.0023,0.3021,-0.7723,1.0483,0.3644,
9.494928,-0.4121,-0.9573,-0.1138,-2.3457,0.0023,0.3021,-0.7723,1.0483,0.3644,
9.496433,-0.2689,-0.9509,-0.0740,-2.3457,0.0023,0.3021,-0.7723,1.0483,0.3644,
9.498629,-0.1448,-0.9680,-0.0102,-2.3457,0.0023,0.3021,-0.7723,1.0483,0.3644,
9.499864,-0.0625,-0.9551,0.0081,-2.3457,0.0023,0.3021,-0.7723,1.0483,0.3644,
9.529062,-0.0625,-0.9551,0.0081,-2.3457,0.0023,0.3021,-1.0642,1.1974,0.3708,
9.531361,-0.0625,-0.9551,0.0081,0.0837,0.1786,1.1062,-1.0642,1.1974,0.3708,
9.569232,-0.0625,-0.9551,0.0081,0.0837,0.1786,1.1062,-1.1451,1.3050,0.1950,
9.571972,-0.0625,-0.9551,0.0081,0.6259,1.3647,2.0038,-1.1451,1.3050,0.1950,
9.573525,-0.0464,-0.8833,0.0218,0.6259,1.3647,2.0038,-1.1451,1.3050,0.1950,
9.574705,-0.1099,-0.8146,0.0360,0.6259,1.3647,2.0038,-1.1451,1.3050,0.1950,
9.575867,-0.1478,-0.7797,-0.0070,0.6259,1.3647,2.0038,-1.1451,1.3050,0.1950,
9.577052,-0.1187,-0.8146,-0.1871,0.6259,1.3647,2.0038,-1.1451,1.3050,0.1950,
9.608762,-0.1187,-0.8146,-0.1871,0.6259,1.3647,2.0038,-1.0556,1.2336,0.0895,
9.611109,-0.1187,-0.8146,-0.1871,0.5485,1.2511,2.4342,-1.0556,1.2336,0.0895,
9.649015,-0.1187,-0.8146,-0.1871,0.5485,1.2511,2.4342,-0.8980,1.8920,0.0672,
9.651541,-0.1187,-0.8146,-0.1871,-0.1805,0.3287,0.4619,-0.8980,1.8920,0.0672,
9.653199,-0.1114,-0.9028,-0.3034,-0.1805,0.3287,0.4619,-0.8980,1.8920,0.0672,
9.654456,-0.2482,-1.0125,-0.1951,-0.1805,0.3287,0.4619,-0.8980,1.8920,0.0672,
9.655465,-0.4624,-1.1188,-0.2660,-0.1805,0.3287,0.4619,-0.8980,1.8920,0.0672,
9.656682,-0.4983,-1.1464,-0.4575,-0.1805,0.3287,0.4619,-0.8980,1.8920,0.0672,
9.687840,-0.4983,-1.1464,-0.4575,-0.1805,0.3287,0.4619,-0.6274,1.6299,0.4986,
9.690506,-0.4983,-1.1464,-0.4575,-0.1809,0.2267,0.7661,-0.6274,1.6299,0.4986,
9.728762,-0.4983,-1.1464,-0.4575,-2.4477,-1.9429,-0.7100,-0.6274,1.6299,0.4986,
9.731618,-0.4983,-1.1464,-0.4575,-2.4477,-1.9429,-0.7100,-0.4506,1.2933,0.6829,
9.733063,-0.2504,-1.1102,-0.4895,-2.4477,-1.9429,-0.7100,-0.4506,1.2933,0.6829,
9.735520,-0.0869,-1.0623,-0.4123,-2.4477,-1.9429,-0.7100,-0.4506,1.2933,0.6829,
9.736832,-0.1106,-0.9744,-0.3498,-2.4477,-1.9429,-0.7100,-0.4506,1.2933,0.6829,
9.738009,-0.1937,-0.9292,-0.3337,-2.4477,-1.9429,-0.7100,-0.4506,1.2933,0.6829,
9.766704,-0.1937,-0.9292,-0.3337,-2.4477,-1.9429,-0.7100,-0.1683,1.5319,0.4006,
9.770609,-0.1937,-0.9292,-0.3337,0.1689,-0.6403,-0.1731,-0.1683,1.5319,0.4006,
9.807308,-0.1937,-0.9292,-0.3337,0.1689,-0.6403,-0.1731,0.2674,1.3508,0.2238,
9.810177,-0.1937,-0.9292,-0.3337,-0.7804,-0.2007,1.4250,0.2674,1.3508,0.2238,
9.811755,-0.2914,-0.9641,-0.2997,-0.7804,-0.2007,1.4250,0.2674,1.3508,0.2238,
9.813135,-0.2557,-0.9749,-0.2022,-0.7804,-0.2007,1.4250,0.2674,1.3508,0.2238,
9.814169,-0.1075,-0.9006,-0.0908,-0.7804,-0.2007,1.4250,0.2674,1.3508,0.2238,
9.815274,-0.0251,-0.8073,-0.0708,-0.7804,-0.2007,1.4250,0.2674,1.3508,0.2238,
9.846466,-0.0251,-0.8073,-0.0708,-0.9364,-0.0653,1.0913,0.2674,1.3508,0.2238,
9.848806,-0.0251,-0.8073,-0.0708,-0.9364,-0.0653,1.0913,1.0877,1.5639,0.0778,
9.886292,-0.0251,-0.8073,-0.0708,-0.9364,-0.0653,1.0913,1.5819,1.4744,-0.0170,
9.888478,-0.0251,-0.8073,-0.0708,0.7860,1.6692,1.8163,1.5819,1.4744,-0.0170,
9.890053,-0.0073,-0.7804,-0.0813,0.7860,1.6692,1.8163,1.5819,1.4744,-0.0170,
9.891135,-0.0390,-0.7657,-0.0508,0.7860,1.6692,1.8163,1.5819,1.4744,-0.0170,
9.892110,-0.0884,-0.7518,-0.0403,0.7860,1.6692,1.8163,1.5819,1.4744,-0.0170,
9.893215,-0.0908,-0.7391,-0.0403,0.7860,1.6692,1.8163,1.5819,1.4744,-0.0170,
9.925521,-0.0908,-0.7391,-0.0403,0.7860,1.6692,1.8163,1.8206,1.1463,-0.1214,
9.927720,-0.0908,-0.7391,-0.0403,0.6306,1.7992,1.1589,1.8206,1.1463,-0.1214,
9.965433,-0.0908,-0.7391,-0.0403,0.6306,1.7992,1.1589,2.2041,0.9162,-0.2588,
9.967814,-0.0908,-0.7391,-0.0403,-0.1504,2.2295,0.8111,2.2041,0.9162,-0.2588,
9.969023,-0.0860,-0.7596,0.0220,-0.1504,2.2295,0.8111,2.2041,0.9162,-0.2588,
9.970214,-0.1289,-0.8630,0.0431,-0.1504,2.2295,0.8111,2.2041,0.9162,-0.2588,
9.971289,-0.1304,-1.0450,-0.0603,-0.1504,2.2295,0.8111,2.2041,0.9162,-0.2588,
9.972262,-0.1075,-1.2578,-0.2127,-0.1504,2.2295,0.8111,2.2041,0.9162,-0.2588,
10.004840,-0.1075,-1.2578,-0.2127,-0.1504,2.2295,0.8111,2.2563,0.7244,-0.1938,
10.007224,-0.1075,-1.2578,-0.2127,-0.5640,-0.6911,-0.5803,2.2563,0.7244,-0.1938,
10.045026,-0.1075,-1.2578,-0.2127,-0.5640,-0.6911,-0.5803,0.8192,1.1420,-0.0511,
10.048926,-0.1075,-1.2578,-0.2127,-0.9917,-4.7513,-7.9580,0.8192,1.1420,-0.0511,
10.051239,-0.2086,-1.4659,-0.5062,-0.9917,-4.7513,-7.9580,0.8192,1.1420,-0.0511,
10.052918,-0.2308,-1.5703,-0.9525,-0.9917,-4.7513,-7.9580,0.8192,1.1420,-0.0511,
10.054546,-0.0579,-1.3978,-0.9838,-0.9917,-4.7513,-7.9580,0.8192,1.1420,-0.0511,
10.056279,0.0983,-1.0628,-0.5272,-0.9917,-4.7513,-7.9580,0.8192,1.1420,-0.0511,
10.083900,0.0983,-1.0628,-0.5272,-0.9917,-4.7513,-7.9580,-0.5848,1.8685,-0.1033,
10.086619,0.0983,-1.0628,-0.5272,-1.0230,-4.6734,-7.5590,-0.5848,1.8685,-0.1033,
10.123478,0.0983,-1.0628,-0.5272,-1.0230,-4.6734,-7.5590,-0.9257,0.6573,0.1119,
10.125164,0.0983,-1.0628,-0.5272,-0.1044,0.6181,-2.5431,-0.9257,0.6573,0.1119,
10.125860,0.0198,-0.9074,-0.2140,-0.1044,0.6181,-2.5431,-0.9257,0.6573,0.1119,
10.126514,-0.3437,-0.8329,-0.2938,-0.1044,0.6181,-2.5431,-0.9257,0.6573,0.1119,
10.127218,-0.6068,-0.8549,-0.3153,-0.1044,0.6181,-2.5431,-0.9257,0.6573,0.1119,
10.127909,-0.2985,-0.8908,-0.0014,-0.1044,0.6181,-2.5431,-0.9257,0.6573,0.1119,
10.161862,-0.2985,-0.8908,-0.0014,-0.1044,0.6181,-2.5431,-1.0482,-0.6018,0.7319,
10.162947,-0.2985,-0.8908,-0.0014,0.2013,0.5431,-2.1214,-1.0482,-0.6018,0.7319,
10.203445,-0.2985,-0.8908,-0.0014,0.2013,0.5431,-2.1214,-0.0234,0.3452,0.1194,
10.205260,-0.2985,-0.8908,-0.0014,-1.0867,1.0182,1.1253,-0.0234,0.3452,0.1194,
10.207446,0.2712,-0.9050,0.2747,-1.0867,1.0182,1.1253,-0.0234,0.3452,0.1194,
10.208566,0.4288,-1.0655,0.0912,-1.0867,1.0182,1.1253,-0.0234,0.3452,0.1194,
10.209391,0.2348,-1.2395,-0.4258,-1.0867,1.0182,1.1253,-0.0234,0.3452,0.1194,
10.210444,0.0308,-1.2395,-0.3029,-1.0867,1.0182,1.1253,-0.0234,0.3452,0.1194,
10.242769,0.0308,-1.2395,-0.3029,-1.0867,1.0182,1.1253,0.0629,0.6062,-0.3387,
10.244219,0.0308,-1.2395,-0.3029,3.0412,-1.8545,-0.8080,0.0629,0.6062,-0.3387,
10.282139,0.0308,-1.2395,-0.3029,3.0412,-1.8545,-0.8080,0.3047,-0.1640,-0.1427,
10.284523,0.0308,-1.2395,-0.3029,0.9027,-0.8224,0.2004,0.3047,-0.1640,-0.1427,
10.285807,0.0242,-1.0904,0.0103,0.9027,-0.8224,0.2004,0.3047,-0.1640,-0.1427,
10.286993,0.0369,-1.0294,-0.1138,0.9027,-0.8224,0.2004,0.3047,-0.1640,-0.1427,
10.288018,-0.0022,-1.1188,-0.1868,0.9027,-0.8224,0.2004,0.3047,-0.1640,-0.1427,
10.288991,-0.0390,-1.1456,-0.1580,0.9027,-0.8224,0.2004,0.3047,-0.1640,-0.1427,
10.322090,-0.0390,-1.1456,-0.1580,0.9027,-0.8224,0.2004,0.5902,-0.4623,-0.0138,
10.324348,-0.0390,-1.1456,-0.1580,0.9009,-0.7847,-0.0404,0.5902,-0.4623,-0.0138,
10.362190,-0.0390,-1.1456,-0.1580,0.9009,-0.7847,-0.0404,0.8757,-0.5635,0.0906,
10.364882,-0.0390,-1.1456,-0.1580,-0.0161,-0.7258,-1.0019,0.8757,-0.5635,0.0906,
10.366332,-0.0855,-1.0662,-0.1727,-0.0161,-0.7258,-1.0019,0.8757,-0.5635,0.0906,
10.367462,-0.1131,-1.0193,-0.1500,-0.0161,-0.7258,-1.0019,0.8757,-0.5635,0.0906,
10.368485,-0.0642,-1.0010,-0.1292,-0.0161,-0.7258,-1.0019,0.8757,-0.5635,0.0906,
10.369736,-0.0112,-0.9512,-0.1302,-0.0161,-0.7258,-1.0019,0.8757,-0.5635,0.0906,
10.401433,-0.0112,-0.9512,-0.1302,-0.0161,-0.7258,-1.0019,1.1058,-0.5827,0.1449,
10.403698,-0.0112,-0.9512,-0.1302,0.0477,-0.7034,-1.4272,1.1058,-0.5827,0.1449,
10.441564,-0.0112,-0.9512,-0.1302,0.0477,-0.7034,-1.4272,1.1185,-0.5624,0.2035,
10.444254,-0.0112,-0.9512,-0.1302,0.5737,0.5181,-1.6042,1.1185,-0.5624,0.2035,
10.445517,-0.0219,-0.8991,-0.1443,0.5737,0.5181,-1.6042,1.1185,-0.5624,0.2035,
10.447260,-0.0432,-0.8495,-0.1460,0.5737,0.5181,-1.6042,1.1185,-0.5624,0.2035,
10.448558,-0.0395,-0.7982,-0.1741,0.5737,0.5181,-1.6042,1.1185,-0.5624,0.2035,
10.449751,-0.0302,-0.7748,-0.1500,0.5737,0.5181,-1.6042,1.1185,-0.5624,0.2035,
10.480336,-0.0302,-0.7748,-0.1500,0.5737,0.5181,-1.6042,0.8544,-0.3323,0.3196,
10.482593,-0.0302,-0.7748,-0.1500,0.6304,1.8596,-2.1301,0.8544,-0.3323,0.3196,
10.520645,-0.0302,-0.7748,-0.1500,0.6304,1.8596,-2.1301,0.7787,0.2195,0.3612,
10.523207,-0.0302,-0.7748,-0.1500,0.9148,0.7614,-1.0535,0.7787,0.2195,0.3612,
10.524624,-0.0452,-0.8393,-0.0302,0.9148,0.7614,-1.0535,0.7787,0.2195,0.3612,
10.525625,-0.0356,-0.9316,0.0071,0.9148,0.7614,-1.0535,0.7787,0.2195,0.3612,
10.527248,0.0147,-0.9722,-0.0337,0.9148,0.7614,-1.0535,0.7787,0.2195,0.3612,
10.528372,0.1019,-0.9641,-0.0080,0.9148,0.7614,-1.0535,0.7787,0.2195,0.3612,
10.559776,0.1019,-0.9641,-0.0080,0.9148,0.7614,-1.0535,0.4709,0.1236,0.2642,
10.562716,0.1019,-0.9641,-0.0080,1.0042,0.7190,-1.2085,0.4709,0.1236,0.2642,
10.600116,0.1019,-0.9641,-0.0080,1.0042,0.7190,-1.2085,-0.0564,-0.5315,-0.0905,
10.601897,0.1019,-0.9641,-0.0080,2.2666,-0.5531,-0.6645,-0.0564,-0.5315,-0.0905,
10.603951,0.1305,-1.0240,0.0494,2.2666,-0.5531,-0.6645,-0.0564,-0.5315,-0.0905,
10.605151,0.1171,-1.1493,0.0660,2.2666,-0.5531,-0.6645,-0.0564,-0.5315,-0.0905,
10.606388,0.0360,-1.1874,0.0609,2.2666,-0.5531,-0.6645,-0.0564,-0.5315,-0.0905,
10.607530,-0.0894,-1.1229,0.0689,2.2666,-0.5531,-0.6645,-0.0564,-0.5315,-0.0905,
10.639728,-0.0894,-1.1229,0.0689,2.2666,-0.5531,-0.6645,-0.4783,-0.5379,-0.3813,
10.642281,-0.0894,-1.1229,0.0689,2.0646,-0.5110,-0.4944,-0.4783,-0.5379,-0.3813,
10.678798,-0.0894,-1.1229,0.0689,2.0646,-0.5110,-0.4944,-0.8032,-0.1406,-0.2588,
10.681470,-0.0894,-1.1229,0.0689,-0.0202,-1.1838,-0.0014,-0.8032,-0.1406,-0.2588,
10.682732,-0.2035,-1.0487,0.0350,-0.0202,-1.1838,-0.0014,-0.8032,-0.1406,-0.2588,
10.683988,-0.2887,-0.9866,-0.0283,-0.0202,-1.1838,-0.0014,-0.8032,-0.1406,-0.2588,
10.685298,-0.3039,-0.9722,-0.0855,-0.0202,-1.1838,-0.0014,-0.8032,-0.1406,-0.2588,
10.687176,-0.2592,-1.0516,-0.1241,-0.0202,-1.1838,-0.0014,-0.8032,-0.1406,-0.2588,
10.718366,-0.2592,-1.0516,-0.1241,-1.8492,-0.0370,-0.8355,-0.8032,-0.1406,-0.2588,
10.721061,-0.2592,-1.0516,-0.1241,-1.8492,-0.0370,-0.8355,-1.2250,-0.2609,0.2216,
10.758623,-0.2592,-1.0516,-0.1241,-1.8492,-0.0370,-0.8355,-1.7332,-0.6828,0.4379,
10.761185,-0.2592,-1.0516,-0.1241,0.0238,-0.7388,-0.7152,-1.7332,-0.6828,0.4379,
10.762566,-0.1727,-1.1354,-0.1468,0.0238,-0.7388,-0.7152,-1.7332,-0.6828,0.4379,
10.763971,-0.0945,-1.0919,-0.1226,0.0238,-0.7388,-0.7152,-1.7332,-0.6828,0.4379,
10.765247,-0.0654,-0.9908,-0.1326,0.0238,-0.7388,-0.7152,-1.7332,-0.6828,0.4379,
10.766660,-0.0698,-0.9431,-0.2692,0.0238,-0.7388,-0.7152,-1.7332,-0.6828,0.4379,
10.797895,-0.0698,-0.9431,-0.2692,0.0238,-0.7388,-0.7152,-2.2392,-0.8255,0.2738,
10.800448,-0.0698,-0.9431,-0.2692,0.1597,-0.8273,0.1077,-2.2392,-0.8255,0.2738,
10.837290,-0.0698,-0.9431,-0.2692,0.1597,-0.8273,0.1077,-2.7047,-0.2982,0.1588,
10.839719,-0.0698,-0.9431,-0.2692,-0.0032,-0.7844,-1.9094,-2.7047,-0.2982,0.1588,
10.841166,-0.1370,-1.0269,-0.4790,-0.0032,-0.7844,-1.9094,-2.7047,-0.2982,0.1588,
10.842445,-0.2005,-1.1733,-0.5912,-0.0032,-0.7844,-1.9094,-2.7047,-0.2982,0.1588,
10.843960,-0.1275,-1.1842,-0.2736,-0.0032,-0.7844,-1.9094,-2.7047,-0.2982,0.1588,
10.845186,-0.1597,-1.2033,0.0140,-0.0032,-0.7844,-1.9094,-2.7047,-0.2982,0.1588,
10.877125,-0.1597,-1.2033,0.0140,-0.0032,-0.7844,-1.9094,-2.0336,0.7489,-0.0692,
10.879568,-0.1597,-1.2033,0.0140,-0.1149,-0.9944,-1.0978,-2.0336,0.7489,-0.0692,
10.917057,-0.1597,-1.2033,0.0140,-0.1149,-0.9944,-1.0978,-1.1728,-0.5230,-0.1874,
10.919669,-0.1597,-1.2033,0.0140,-0.3258,-2.6822,2.8698,-1.1728,-0.5230,-0.1874,
10.921114,-0.1883,-1.2395,0.0264,-0.3258,-2.6822,2.8698,-1.1728,-0.5230,-0.1874,
10.922260,-0.1324,-1.1945,0.0538,-0.3258,-2.6822,2.8698,-1.1728,-0.5230,-0.1874,
10.923456,-0.0410,-1.0487,-0.0217,-0.3258,-2.6822,2.8698,-1.1728,-0.5230,-0.1874,
10.924470,-0.0366,-0.9397,-0.1436,-0.3258,-2.6822,2.8698,-1.1728,-0.5230,-0.1874,
10.956373,-0.0366,-0.9397,-0.1436,-0.3258,-2.6822,2.8698,-0.5901,-1.4732,-0.2599,
10.958812,-0.0366,-0.9397,-0.1436,0.6544,-1.2832,3.3488,-0.5901,-1.4732,-0.2599,
10.995399,-0.0366,-0.9397,-0.1436,0.6544,-1.2832,3.3488,-0.2130,-1.0450,-0.3557,
10.997890,-0.0366,-0.9397,-0.1436,-0.6216,0.1387,1.8159,-0.2130,-1.0450,-0.3557,
10.999931,-0.1258,-0.9409,-0.2528,-0.6216,0.1387,1.8159,-0.2130,-1.0450,-0.3557,
11.000892,-0.2015,-0.9417,-0.2052,-0.6216,0.1387,1.8159,-0.2130,-1.0450,-0.3557,
11.002045,-0.2846,-0.8605,-0.1197,-0.6216,0.1387,1.8159,-0.2130,-1.0450,-0.3557,
11.003311,-0.3168,-0.7328,-0.0454,-0.6216,0.1387,1.8159,-0.2130,-1.0450,-0.3557,
11.035205,-0.3168,-0.7328,-0.0454,-0.6216,0.1387,1.8159,0.1971,-0.3483,-0.4388,
11.038158,-0.3168,-0.7328,-0.0454,-0.7173,0.1872,1.6971,0.1971,-0.3483,-0.4388,
11.074918,-0.3168,-0.7328,-0.0454,-0.7173,0.1872,1.6971,0.7521,-0.1054,-0.5347,
11.077391,-0.3168,-0.7328,-0.0454,-1.5389,3.3627,3.1114,0.7521,-0.1054,-0.5347,
11.078757,-0.2709,-0.5867,0.0015,-1.5389,3.3627,3.1114,0.7521,-0.1054,-0.5347,
11.080188,-0.2284,-0.4733,0.0010,-1.5389,3.3627,3.1114,0.7521,-0.1054,-0.5347,
11.081359,-0.1912,-0.4157,-0.0471,-1.5389,3.3627,3.1114,0.7521,-0.1054,-0.5347,
11.082367,-0.1934,-0.5002,-0.1524,-1.5389,3.3627,3.1114,0.7521,-0.1054,-0.5347,
11.114321,-0.1934,-0.5002,-0.1524,-1.5389,3.3627,3.1114,1.1771,-0.6519,-0.4868,
11.116576,-0.1934,-0.5002,-0.1524,-1.6132,3.4656,2.6060,1.1771,-0.6519,-0.4868,
11.154564,-0.1934,-0.5002,-0.1524,-1.6132,3.4656,2.6060,0.3548,-0.5954,-0.3568,
11.157126,-0.1934,-0.5002,-0.1524,-0.9245,3.8505,0.8474,0.3548,-0.5954,-0.3568,
11.158438,-0.2040,-0.7550,-0.3298,-0.9245,3.8505,0.8474,0.3548,-0.5954,-0.3568,
11.159779,-0.2851,-1.0956,-0.7018,-0.9245,3.8505,0.8474,0.3548,-0.5954,-0.3568,
11.161071,-0.3351,-1.4459,-0.9305,-0.9245,3.8505,0.8474,0.3548,-0.5954,-0.3568,
11.162305,-0.5216,-1.5341,-0.1700,-0.9245,3.8505,0.8474,0.3548,-0.5954,-0.3568,
11.193855,-0.5216,-1.5341,-0.1700,-0.9245,3.8505,0.8474,-0.2120,0.8128,-0.0937,
11.196333,-0.5216,-1.5341,-0.1700,-2.8029,-3.9564,-3.1500,-0.2120,0.8128,-0.0937,
11.234278,-0.5216,-1.5341,-0.1700,-2.8029,-3.9564,-3.1500,0.0448,-0.1821,0.3473,
11.236894,-0.5216,-1.5341,-0.1700,-5.4277,-1.0504,-0.4350,0.0448,-0.1821,0.3473,
11.238193,-0.7597,-1.1586,-0.0693,-5.4277,-1.0504,-0.4350,0.0448,-0.1821,0.3473,
11.239562,-0.7891,-0.9522,-0.4473,-5.4277,-1.0504,-0.4350,0.0448,-0.1821,0.3473,
11.240970,-0.4700,-1.0780,-0.4495,-5.4277,-1.0504,-0.4350,0.0448,-0.1821,0.3473,
11.242262,0.2663,-1.0978,-0.1453,-5.4277,-1.0504,-0.4350,0.0448,-0.1821,0.3473,
11.273170,0.2663,-1.0978,-0.1453,-5.2716,-1.0304,-0.4655,0.0448,-0.1821,0.3473,
11.275886,0.2663,-1.0978,-0.1453,-5.2716,-1.0304,-0.4655,0.1066,0.0235,0.1865,
11.313151,0.2663,-1.0978,-0.1453,-5.2716,-1.0304,-0.4655,0.3601,-0.7052,-0.4623,
11.315258,0.2663,-1.0978,-0.1453,5.1907,-0.1666,1.8972,0.3601,-0.7052,-0.4623,
11.316600,0.6807,-0.9878,0.0176,5.1907,-0.1666,1.8972,0.3601,-0.7052,-0.4623,
11.317633,0.2944,-0.8581,-0.0532,5.1907,-0.1666,1.8972,0.3601,-0.7052,-0.4623,
11.318738,-0.1793,-0.7689,-0.1983,5.1907,-0.1666,1.8972,0.3601,-0.7052,-0.4623,
11.319826,-0.3659,-0.8063,-0.3583,5.1907,-0.1666,1.8972,0.3601,-0.7052,-0.4623,
11.352289,-0.3659,-0.8063,-0.3583,5.1907,-0.1666,1.8972,0.1300,-1.8290,-0.2876,
11.354847,-0.3659,-0.8063,-0.3583,5.1701,-0.1385,1.7350,0.1300,-1.8290,-0.2876,
11.382274,-0.3312,-0.9448,-0.4878,5.1701,-0.1385,1.7350,0.1300,-1.8290,-0.2876,
11.385243,-0.1333,-0.9939,-0.3759,5.1701,-0.1385,1.7350,0.1300,-1.8290,-0.2876,
11.386608,0.0614,-0.9116,-0.1101,5.1701,-0.1385,1.7350,0.1300,-1.8290,-0.2876,
11.392303,0.0614,-0.9116,-0.1101,5.1701,-0.1385,1.7350,-0.4112,-1.1227,-0.1832,
11.395408,0.0614,-0.9116,-0.1101,-1.6838,1.1947,-0.9660,-0.4112,-1.1227,-0.1832,
11.431744,0.0614,-0.9116,-0.1101,-1.6838,1.1947,-0.9660,-0.5060,-1.0450,-0.3547,
11.433750,0.0614,-0.9116,-0.1101,1.1063,0.3904,0.4686,-0.5060,-1.0450,-0.3547,
11.455814,0.0641,-0.8483,-0.1597,1.1063,0.3904,0.4686,-0.5060,-1.0450,-0.3547,
11.458012,-0.1219,-0.9424,-0.3610,1.1063,0.3904,0.4686,-0.5060,-1.0450,-0.3547,
11.459378,-0.0493,-0.9890,-0.2697,1.1063,0.3904,0.4686,-0.5060,-1.0450,-0.3547,
11.460755,0.0931,-1.0066,-0.1568,1.1063,0.3904,0.4686,-0.5060,-1.0450,-0.3547,
11.471088,0.0931,-1.0066,-0.1568,1.1063,0.3904,0.4686,-0.5326,-1.6799,-0.0884,
11.473767,0.0931,-1.0066,-0.1568,1.0035,-0.2587,0.1218,-0.5326,-1.6799,-0.0884,
11.511343,0.0931,-1.0066,-0.1568,1.0035,-0.2587,0.1218,-0.2343,-1.3166,-0.1374,
11.513981,0.0931,-1.0066,-0.1568,1.4307,-1.6407,0.6175,-0.2343,-1.3166,-0.1374,
11.543158,0.0738,-1.1097,-0.2196,1.4307,-1.6407,0.6175,-0.2343,-1.3166,-0.1374,
11.545434,-0.0476,-1.1649,-0.2662,1.4307,-1.6407,0.6175,-0.2343,-1.3166,-0.1374,
11.546620,0.0062,-1.0895,-0.1524,1.4307,-1.6407,0.6175,-0.2343,-1.3166,-0.1374,
11.547899,0.0096,-1.0848,-0.0979,1.4307,-1.6407,0.6175,-0.2343,-1.3166,-0.1374,
11.550695,0.0096,-1.0848,-0.0979,1.4307,-1.6407,0.6175,0.2418,-0.5294,-0.3675,
11.551982,0.0096,-1.0848,-0.0979,1.3277,-1.5700,0.4918,0.2418,-0.5294,-0.3675,
11.589980,0.0096,-1.0848,-0.0979,1.3277,-1.5700,0.4918,0.7798,-0.5645,-0.3419,
11.591771,0.0096,-1.0848,-0.0979,1.1444,-1.5441,0.5276,0.7798,-0.5645,-0.3419,
11.629975,0.0096,-1.0848,-0.0979,1.1444,-1.5441,0.5276,0.9172,-1.0343,-0.1853,
11.632680,0.0096,-1.0848,-0.0979,1.1385,-1.4368,0.1308,0.9172,-1.0343,-0.1853,
11.634601,-0.0300,-1.1434,-0.1758,1.1385,-1.4368,0.1308,0.9172,-1.0343,-0.1853,
11.635834,0.0252,-1.1637,-0.2530,1.1385,-1.4368,0.1308,0.9172,-1.0343,-0.1853,
11.637334,0.1361,-1.1026,-0.2662,1.1385,-1.4368,0.1308,0.9172,-1.0343,-0.1853,
11.638350,0.1828,-1.0039,-0.2755,1.1385,-1.4368,0.1308,0.9172,-1.0343,-0.1853,
11.639601,0.1405,-0.9426,-0.2748,1.1385,-1.4368,0.1308,0.9172,-1.0343,-0.1853,
11.670165,0.1405,-0.9426,-0.2748,1.1385,-1.4368,0.1308,0.7351,-1.7832,-0.1534,
11.672556,0.1405,-0.9426,-0.2748,2.6372,-0.2570,-1.1590,0.7351,-1.7832,-0.1534,
11.709779,0.1405,-0.9426,-0.2748,2.6372,-0.2570,-1.1590,0.5795,-1.8833,-0.2013,
11.712474,0.1405,-0.9426,-0.2748,1.7212,1.0559,-0.4729,0.5795,-1.8833,-0.2013,
11.714070,0.1293,-0.9060,-0.1976,1.7212,1.0559,-0.4729,0.5795,-1.8833,-0.2013,
11.715363,0.0836,-0.8732,-0.1619,1.7212,1.0559,-0.4729,0.5795,-1.8833,-0.2013,
11.716795,-0.0320,-0.8750,-0.1548,1.7212,1.0559,-0.4729,0.5795,-1.8833,-0.2013,
11.717694,-0.1331,-0.8962,-0.0813,1.7212,1.0559,-0.4729,0.5795,-1.8833,-0.2013,
11.749220,-0.1331,-0.8962,-0.0813,1.7212,1.0559,-0.4729,0.3665,-1.6000,-0.1097,
11.751283,-0.1331,-0.8962,-0.0813,1.7193,1.0589,-0.6754,0.3665,-1.6000,-0.1097,
11.788668,-0.1331,-0.8962,-0.0813,1.7193,1.0589,-0.6754,-0.0160,-1.5329,0.1183,
11.791022,-0.1331,-0.8962,-0.0813,-0.6533,0.5071,0.2614,-0.0160,-1.5329,0.1183,
11.792244,-0.1969,-0.9377,-0.0676,-0.6533,0.5071,0.2614,-0.0160,-1.5329,0.1183,
11.793722,-0.2506,-0.9846,-0.0574,-0.6533,0.5071,0.2614,-0.0160,-1.5329,0.1183,
11.795377,-0.2716,-0.9917,-0.0166,-0.6533,0.5071,0.2614,-0.0160,-1.5329,0.1183,
11.796216,-0.2506,-0.9930,0.0062,-0.6533,0.5071,0.2614,-0.0160,-1.5329,0.1183,
11.828335,-0.2506,-0.9930,0.0062,-0.6533,0.5071,0.2614,-0.3803,-1.2484,0.1971,
11.830619,-0.2506,-0.9930,0.0062,-0.5210,0.4743,0.3376,-0.3803,-1.2484,0.1971,
11.869828,-0.2506,-0.9930,0.0062,-0.5210,0.4743,0.3376,-0.7339,-1.0375,0.0842,
11.872387,-0.2506,-0.9930,0.0062,-0.9373,-0.0600,1.1442,-0.7339,-1.0375,0.0842,
11.874156,-0.2145,-0.9864,-0.0112,-0.9373,-0.0600,1.1442,-0.7339,-1.0375,0.0842,
11.875382,-0.2027,-1.0030,-0.0073,-0.9373,-0.0600,1.1442,-0.7339,-1.0375,0.0842,
11.876673,-0.1998,-1.0389,-0.0048,-0.9373,-0.0600,1.1442,-0.7339,-1.0375,0.0842,
11.886716,-0.1869,-1.0342,-0.0666,-0.9373,-0.0600,1.1442,-0.7339,-1.0375,0.0842,
11.906685,-0.1869,-1.0342,-0.0666,-0.9373,-0.0600,1.1442,-1.0120,-0.6242,0.0171,
11.908495,-0.1458,-1.0171,-0.0960,-0.9373,-0.0600,1.1442,-1.0120,-0.6242,0.0171,
11.909308,-0.0987,-0.9930,0.0013,-0.9373,-0.0600,1.1442,-1.0120,-0.6242,0.0171,
11.910783,-0.0987,-0.9930,0.0013,-0.4090,-0.4521,1.2847,-1.0120,-0.6242,0.0171,
11.945919,-0.0987,-0.9930,0.0013,-0.4090,-0.4521,1.2847,-1.1228,-0.1320,0.0214,
11.947393,-0.0987,-0.9930,0.0013,-0.3859,-0.5224,1.6738,-1.1228,-0.1320,0.0214,
11.987548,-0.0987,-0.9930,0.0013,-0.3859,-0.5224,1.6738,-0.7616,-0.0415,0.0629,
11.988655,-0.1050,-0.9302,0.0926,-0.3859,-0.5224,1.6738,-0.7616,-0.0415,0.0629,
11.989298,-0.2494,-0.8151,0.0074,-0.3859,-0.5224,1.6738,-0.7616,-0.0415,0.0629,
11.989830,-0.3312,-0.7951,-0.1734,-0.3859,-0.5224,1.6738,-0.7616,-0.0415,0.0629,
11.990137,-0.2259,-0.8473,-0.3156,-0.3859,-0.5224,1.6738,-0.7616,-0.0415,0.0629,
11.990662,-0.2259,-0.8473,-0.3156,0.4177,-0.1426,2.1715,-0.7616,-0.0415,0.0629,
12.025124,-0.2259,-0.8473,-0.3156,0.4177,-0.1426,2.1715,-0.9012,0.2387,0.2174,
12.026256,-0.2259,-0.8473,-0.3156,-1.0000,1.3143,0.9403,-0.9012,0.2387,0.2174,
12.064889,-0.2259,-0.8473,-0.3156,-1.0000,1.3143,0.9403,-1.2005,0.1960,0.1556,
12.065972,-0.2259,-0.8473,-0.3156,0.6154,0.1299,-0.9336,-1.2005,0.1960,0.1556,
12.066543,-0.1297,-0.8647,-0.3224,0.6154,0.1299,-0.9336,-1.2005,0.1960,0.1556,
12.066994,-0.1270,-0.8982,-0.3237,0.6154,0.1299,-0.9336,-1.2005,0.1960,0.1556,
12.067422,-0.0632,-1.0135,-0.5531,0.6154,0.1299,-0.9336,-1.2005,0.1960,0.1556,
12.067743,0.0145,-1.1637,-0.7715,0.6154,0.1299,-0.9336,-1.2005,0.1960,0.1556,
12.104990,0.0145,-1.1637,-0.7715,0.6154,0.1299,-0.9336,-1.3933,0.2056,-0.0745,
12.106367,0.0145,-1.1637,-0.7715,0.5529,-0.0435,-0.4103,-1.3933,0.2056,-0.0745,
12.144779,0.0145,-1.1637,-0.7715,0.5529,-0.0435,-0.4103,-1.2655,0.3963,-0.2972,
12.148106,0.0145,-1.1637,-0.7715,0.8670,-2.6677,-2.2312,-1.2655,0.3963,-0.2972,
12.149579,-0.0371,-1.2255,-0.6466,0.8670,-2.6677,-2.2312,-1.2655,0.3963,-0.2972,
12.150425,-0.1463,-1.1522,-0.4947,0.8670,-2.6677,-2.2312,-1.2655,0.3963,-0.2972,
12.151424,-0.2059,-1.0885,-0.5098,0.8670,-2.6677,-2.2312,-1.2655,0.3963,-0.2972,
12.152307,-0.2323,-1.0851,-0.6351,0.8670,-2.6677,-2.2312,-1.2655,0.3963,-0.2972,
12.184460,-0.2323,-1.0851,-0.6351,0.8670,-2.6677,-2.2312,-0.8959,-0.1949,-0.4378,
12.186513,-0.2323,-1.0851,-0.6351,0.7343,-2.7458,-1.8956,-0.8959,-0.1949,-0.4378,
12.224762,-0.2323,-1.0851,-0.6351,-0.5784,-1.4831,-1.2798,-0.8959,-0.1949,-0.4378,
12.227615,-0.1104,-0.9754,-0.6205,-0.5784,-1.4831,-1.2798,-0.8959,-0.1949,-0.4378,
12.228929,0.0108,-0.7355,-0.3896,-0.5784,-1.4831,-1.2798,-0.8959,-0.1949,-0.4378,
12.230212,-0.0061,-0.5964,-0.3063,-0.5784,-1.4831,-1.2798,-0.8959,-0.1949,-0.4378,
12.231345,-0.0061,-0.5964,-0.3063,-0.5784,-1.4831,-1.2798,-0.3537,-0.2119,-0.3430,
12.263978,-0.0061,-0.5964,-0.3063,-0.5784,-1.4831,-1.2798,0.1875,-0.0383,-0.2780,
12.266572,-0.0061,-0.5964,-0.3063,0.7534,2.2415,1.0742,0.1875,-0.0383,-0.2780,
12.304215,-0.0061,-0.5964,-0.3063,0.7534,2.2415,1.0742,0.3388,-0.0213,-0.3195,
12.306516,-0.0061,-0.5964,-0.3063,0.6343,2.2747,0.9386,0.3388,-0.0213,-0.3195,
12.307814,-0.1140,-0.6793,-0.3227,0.6343,2.2747,0.9386,0.3388,-0.0213,-0.3195,
12.308931,-0.1817,-0.7819,-0.3537,0.6343,2.2747,0.9386,0.3388,-0.0213,-0.3195,
12.310062,-0.2330,-0.7682,-0.3713,0.6343,2.2747,0.9386,0.3388,-0.0213,-0.3195,
12.311777,-0.2423,-0.6507,-0.3405,0.6343,2.2747,0.9386,0.3388,-0.0213,-0.3195,
12.313139,-0.1900,-0.5302,-0.3102,0.6343,2.2747,0.9386,0.3388,-0.0213,-0.3195,
12.343916,-0.1900,-0.5302,-0.3102,0.6343,2.2747,0.9386,0.4368,0.4400,-0.1075,
12.346353,-0.1900,-0.5302,-0.3102,-1.2447,1.7032,0.6369,0.4368,0.4400,-0.1075,
12.384084,-0.1900,-0.5302,-0.3102,-1.2447,1.7032,0.6369,0.5486,0.7308,-0.0127,
12.386612,-0.1900,-0.5302,-0.3102,-0.9233,4.1064,1.1582,0.5486,0.7308,-0.0127,
12.388029,-0.1573,-0.4787,-0.3078,-0.9233,4.1064,1.1582,0.5486,0.7308,-0.0127,
12.389344,-0.1790,-0.4618,-0.2298,-0.9233,4.1064,1.1582,0.5486,0.7308,-0.0127,
12.390690,-0.1458,-0.5874,-0.2750,-0.9233,4.1064,1.1582,0.5486,0.7308,-0.0127,
12.391895,-0.0943,-0.9023,-0.4463,-0.9233,4.1064,1.1582,0.5486,0.7308,-0.0127,
12.422212,-0.0943,-0.9023,-0.4463,-0.9233,4.1064,1.1582,0.6914,1.2975,-0.1576,
12.424412,-0.0943,-0.9023,-0.4463,-1.1560,4.1450,0.9314,0.6914,1.2975,-0.1576,
12.462250,-0.0943,-0.9023,-0.4463,-1.1560,4.1450,0.9314,0.6062,1.7748,-0.1704,
12.464673,-0.0943,-0.9023,-0.4463,-0.9576,0.5139,-0.4576,0.6062,1.7748,-0.1704,
12.465808,-0.1343,-1.1173,-0.4966,-0.9576,0.5139,-0.4576,0.6062,1.7748,-0.1704,
12.467087,-0.2277,-1.3027,-0.6962,-0.9576,0.5139,-0.4576,0.6062,1.7748,-0.1704,
12.468756,-0.1529,-1.5153,-0.7241,-0.9576,0.5139,-0.4576,0.6062,1.7748,-0.1704,
12.470137,-0.2352,-1.3440,-0.5284,-0.9576,0.5139,-0.4576,0.6062,1.7748,-0.1704,
12.501635,-0.2352,-1.3440,-0.5284,-0.9576,0.5139,-0.4576,0.6594,0.8853,0.0672,
12.503430,-0.2352,-1.3440,-0.5284,-1.8115,-4.4026,-3.0233,0.6594,0.8853,0.0672,
12.541779,-0.2352,-1.3440,-0.5284,-1.8115,-4.4026,-3.0233,1.0205,0.5774,0.4187,
12.544475,-0.2352,-1.3440,-0.5284,-1.7238,0.2337,-0.0496,1.0205,0.5774,0.4187,
12.545865,-0.3249,-0.9727,-0.4307,-1.7238,0.2337,-0.0496,1.0205,0.5774,0.4187,
12.547258,-0.2147,-0.8351,-0.2645,-1.7238,0.2337,-0.0496,1.0205,0.5774,0.4187,
12.548415,-0.0830,-0.9717,-0.2303,-1.7238,0.2337,-0.0496,1.0205,0.5774,0.4187,
12.549695,-0.0351,-1.3257,-0.3544,-1.7238,0.2337,-0.0496,1.0205,0.5774,0.4187,
12.581244,-0.0351,-1.3257,-0.3544,-1.7238,0.2337,-0.0496,1.0365,1.0483,0.3399,
12.583491,-0.0351,-1.3257,-0.3544,-1.6843,0.3382,-0.4142,1.0365,1.0483,0.3399,
12.621026,-0.0351,-1.3257,-0.3544,-1.6843,0.3382,-0.4142,0.8043,1.0696,-0.0553,
12.623014,-0.0351,-1.3257,-0.3544,0.3908,-3.1589,-1.0907,0.8043,1.0696,-0.0553,
12.624397,0.0777,-1.4698,-0.3432,0.3908,-3.1589,-1.0907,0.8043,1.0696,-0.0553,
12.625634,0.0103,-1.0951,-0.3522,0.3908,-3.1589,-1.0907,0.8043,1.0696,-0.0553,
12.626786,-0.2235,-0.7042,-0.4544,0.3908,-3.1589,-1.0907,0.8043,1.0696,-0.0553,
12.627903,-0.2794,-0.5508,-0.2970,0.3908,-3.1589,-1.0907,0.8043,1.0696,-0.0553,
12.660449,-0.2794,-0.5508,-0.2970,0.4366,-3.0902,-1.1443,0.8043,1.0696,-0.0553,
12.663333,-0.2794,-0.5508,-0.2970,0.4366,-3.0902,-1.1443,0.2109,0.7543,0.3207,
12.700296,-0.2794,-0.5508,-0.2970,0.4366,-3.0902,-1.1443,-0.0863,0.4240,0.6296,
12.702745,-0.2794,-0.5508,-0.2970,-1.6328,3.6481,0.1149,-0.0863,0.4240,0.6296,
12.704254,-0.1478,-0.5488,0.0758,-1.6328,3.6481,0.1149,-0.0863,0.4240,0.6296,
12.705249,0.0983,-0.6905,0.2519,-1.6328,3.6481,0.1149,-0.0863,0.4240,0.6296,
12.706366,0.2214,-0.9583,-0.2298,-1.6328,3.6481,0.1149,-0.0863,0.4240,0.6296,
12.707216,0.2830,-1.2297,-0.5010,-1.6328,3.6481,0.1149,-0.0863,0.4240,0.6296,
12.739955,0.2830,-1.2297,-0.5010,-1.6328,3.6481,0.1149,-0.0415,0.6530,0.2514,
12.742257,0.2830,-1.2297,-0.5010,2.4542,0.1263,0.7735,-0.0415,0.6530,0.2514,
12.779310,0.2830,-1.2297,-0.5010,2.4542,0.1263,0.7735,0.1417,0.4261,-0.0372,
12.781923,0.2830,-1.2297,-0.5010,1.8563,-2.4286,1.4158,0.1417,0.4261,-0.0372,
12.783441,0.2685,-1.3237,-0.1536,1.8563,-2.4286,1.4158,0.1417,0.4261,-0.0372,
12.784601,0.1613,-1.2434,-0.0097,1.8563,-2.4286,1.4158,0.1417,0.4261,-0.0372,
12.785724,0.0157,-1.1102,-0.0977,1.8563,-2.4286,1.4158,0.1417,0.4261,-0.0372,
12.786923,-0.1417,-1.0670,-0.1167,1.8563,-2.4286,1.4158,0.1417,0.4261,-0.0372,
12.819213,-0.1417,-1.0670,-0.1167,1.8563,-2.4286,1.4158,0.5199,0.2664,0.1311,
12.821917,-0.1417,-1.0670,-0.1167,1.8516,-2.3462,1.2017,0.5199,0.2664,0.1311,
12.858541,-0.1417,-1.0670,-0.1167,1.8516,-2.3462,1.2017,0.7968,0.0182,0.5274,
12.861081,-0.1417,-1.0670,-0.1167,-0.9387,-1.0458,0.7562,0.7968,0.0182,0.5274,
12.862448,-0.2125,-1.0992,-0.0815,-0.9387,-1.0458,0.7562,0.7968,0.0182,0.5274,
12.864757,-0.1209,-1.1337,-0.1016,-0.9387,-1.0458,0.7562,0.7968,0.0182,0.5274,
12.866043,-0.0097,-1.1161,-0.1338,-0.9387,-1.0458,0.7562,0.7968,0.0182,0.5274,
12.867224,0.0360,-1.0411,-0.1504,-0.9387,-1.0458,0.7562,0.7968,0.0182,0.5274,
12.898226,0.0360,-1.0411,-0.1504,-0.9387,-1.0458,0.7562,0.9034,-0.2631,0.5529,
12.900740,0.0360,-1.0411,-0.1504,-0.6973,-0.9892,0.3927,0.9034,-0.2631,0.5529,
12.938452,0.0360,-1.0411,-0.1504,-0.6973,-0.9892,0.3927,0.9843,-0.3462,0.3718,
12.940979,0.0360,-1.0411,-0.1504,1.3463,-0.2364,-0.4329,0.9843,-0.3462,0.3718,
12.942186,0.0821,-0.9233,-0.1495,1.3463,-0.2364,-0.4329,0.9843,-0.3462,0.3718,
12.943591,0.0755,-0.8437,-0.1702,1.3463,-0.2364,-0.4329,0.9843,-0.3462,0.3718,
12.944726,-0.0063,-0.8469,-0.2914,1.3463,-0.2364,-0.4329,0.9843,-0.3462,0.3718,
12.945811,-0.0503,-0.8676,-0.3144,1.3463,-0.2364,-0.4329,0.9843,-0.3462,0.3718,
12.976841,-0.0503,-0.8676,-0.3144,1.3463,-0.2364,-0.4329,0.7340,0.1737,0.2845,
12.979046,-0.0503,-0.8676,-0.3144,1.1405,1.4579,-1.7992,0.7340,0.1737,0.2845,
13.016781,-0.0503,-0.8676,-0.3144,1.1405,1.4579,-1.7992,0.3558,0.4336,0.4421,
13.019082,-0.0686,-0.8838,-0.2230,1.1405,1.4579,-1.7992,0.3558,0.4336,0.4421,
13.020428,-0.1270,-0.9402,-0.1570,1.1405,1.4579,-1.7992,0.3558,0.4336,0.4421,
13.021216,-0.0957,-0.9956,-0.1612,1.1405,1.4579,-1.7992,0.3558,0.4336,0.4421,
13.022369,0.0066,-1.0103,-0.1561,1.1405,1.4579,-1.7992,0.3558,0.4336,0.4421,
13.023706,0.0066,-1.0103,-0.1561,0.2828,0.5832,-1.1315,0.3558,0.4336,0.4421,
13.056849,0.0066,-1.0103,-0.1561,0.2828,0.5832,-1.1315,-0.0799,0.2408,0.6073,
13.059893,0.0066,-1.0103,-0.1561,0.5034,0.5395,-1.0698,-0.0799,0.2408,0.6073,
13.096783,0.0663,-1.0413,0.0328,0.5034,0.5395,-1.0698,-0.0799,0.2408,0.6073,
13.099346,0.1237,-1.0572,0.1706,0.5034,0.5395,-1.0698,-0.0799,0.2408,0.6073,
13.100759,0.1210,-0.9998,0.1652,0.5034,0.5395,-1.0698,-0.0799,0.2408,0.6073,
13.101779,0.1210,-0.9998,0.1652,0.5034,0.5395,-1.0698,-0.1385,-0.2301,0.3058,
13.102751,0.1210,-0.9998,0.1652,2.1848,-0.4206,0.8772,-0.1385,-0.2301,0.3058,
13.135801,0.1210,-0.9998,0.1652,2.1848,-0.4206,0.8772,0.1193,0.1460,-0.0394,
13.138290,0.1210,-0.9998,0.1652,0.9350,-0.0532,1.3534,0.1193,0.1460,-0.0394,
13.176356,0.1210,-0.9998,0.1652,0.9350,-0.0532,1.3534,-0.1225,0.8778,0.1066,
13.178106,0.1210,-0.9998,0.1652,0.9356,-0.0621,1.4291,-0.1225,0.8778,0.1066,
13.179798,-0.0266,-0.9893,0.0790,0.9356,-0.0621,1.4291,-0.1225,0.8778,0.1066,
13.181745,-0.2697,-1.0093,-0.0327,0.9356,-0.0621,1.4291,-0.1225,0.8778,0.1066,
13.182748,-0.4158,-0.9815,-0.1250,0.9356,-0.0621,1.4291,-0.1225,0.8778,0.1066,
13.184204,-0.3911,-0.9583,-0.1136,0.9356,-0.0621,1.4291,-0.1225,0.8778,0.1066,
13.185331,-0.2604,-0.9805,-0.0625,0.9356,-0.0621,1.4291,-0.1225,0.8778,0.1066,
13.215550,-0.2604,-0.9805,-0.0625,0.9356,-0.0621,1.4291,-0.5443,1.0355,0.3644,
13.218634,-0.2604,-0.9805,-0.0625,-1.8421,0.1494,0.0275,-0.5443,1.0355,0.3644,
13.254879,-0.2604,-0.9805,-0.0625,-1.8421,0.1494,0.0275,-0.8192,1.1665,0.3590,
13.257468,-0.2604,-0.9805,-0.0625,0.3150,0.0384,0.8250,-0.8192,1.1665,0.3590,
13.258827,-0.1436,-1.0118,-0.0354,0.3150,0.0384,0.8250,-0.8192,1.1665,0.3590,
13.259894,-0.1187,-0.9930,-0.0432,0.3150,0.0384,0.8250,-0.8192,1.1665,0.3590,
13.260755,-0.1680,-0.9299,-0.0940,0.3150,0.0384,0.8250,-0.8192,1.1665,0.3590,
13.261581,-0.1548,-0.8542,-0.1485,0.3150,0.0384,0.8250,-0.8192,1.1665,0.3590,
13.294480,-0.1548,-0.8542,-0.1485,0.3150,0.0384,0.8250,-1.1441,1.0632,0.4112,
13.297056,-0.1548,-0.8542,-0.1485,0.3958,-0.0639,1.3114,-1.1441,1.0632,0.4112,
13.334716,-0.1177,-0.8156,-0.2230,0.3958,-0.0639,1.3114,-1.1441,1.0632,0.4112,
13.336923,-0.1143,-0.8346,-0.3197,0.3958,-0.0639,1.3114,-1.1441,1.0632,0.4112,
13.338449,-0.1221,-0.8603,-0.2396,0.3958,-0.0639,1.3114,-1.1441,1.0632,0.4112,
13.339742,-0.1221,-0.8603,-0.2396,0.3958,-0.0639,1.3114,-1.5787,1.1079,0.3495,
13.341008,-0.1221,-0.8603,-0.2396,0.5626,1.1582,0.2828,-1.5787,1.1079,0.3495,
13.374022,-0.1221,-0.8603,-0.2396,0.5626,1.1582,0.2828,-1.3028,1.6789,0.1332,
13.376412,-0.1221,-0.8603,-0.2396,-0.4170,0.7565,2.5640,-1.3028,1.6789,0.1332,
13.404704,-0.1724,-0.8415,0.0194,-0.4170,0.7565,2.5640,-1.3028,1.6789,0.1332,
13.407333,-0.3510,-0.8740,0.0582,-0.4170,0.7565,2.5640,-1.3028,1.6789,0.1332,
13.408661,-0.5296,-1.0724,-0.2337,-0.4170,0.7565,2.5640,-1.3028,1.6789,0.1332,
13.410121,-0.3940,-1.2592,-0.6645,-0.4170,0.7565,2.5640,-1.3028,1.6789,0.1332,
13.414520,-0.3940,-1.2592,-0.6645,-0.4170,0.7565,2.5640,-0.1544,1.6917,0.2994,
13.417258,-0.3940,-1.2592,-0.6645,-0.5150,0.7062,2.6840,-0.1544,1.6917,0.2994,
13.453482,-0.3940,-1.2592,-0.6645,-0.5150,0.7062,2.6840,-0.2045,1.3242,0.4304,
13.455669,-0.3940,-1.2592,-0.6645,-1.4167,-2.3733,-1.7586,-0.2045,1.3242,0.4304,
13.492006,-0.3940,-1.2592,-0.6645,-1.4167,-2.3733,-1.7586,-0.3345,0.6893,0.2461,
13.495479,-0.3940,-1.2592,-0.6645,0.6193,0.2478,0.6528,-0.3345,0.6893,0.2461,
13.496908,0.0000,-1.1828,-0.6808,0.6193,0.2478,0.6528,-0.3345,0.6893,0.2461,
13.498008,0.0975,-0.9895,-0.3896,0.6193,0.2478,0.6528,-0.3345,0.6893,0.2461,
13.499121,-0.0867,-0.8473,-0.2135,0.6193,0.2478,0.6528,-0.3345,0.6893,0.2461,
13.500803,-0.3061,-0.8549,-0.2846,0.6193,0.2478,0.6528,-0.3345,0.6893,0.2461,
13.501643,-0.3701,-0.9614,-0.3903,0.6193,0.2478,0.6528,-0.3345,0.6893,0.2461,
13.532392,-0.3701,-0.9614,-0.3903,0.6193,0.2478,0.6528,0.0682,0.7095,0.3228,
13.535094,-0.3701,-0.9614,-0.3903,0.6238,0.2331,0.6619,0.0682,0.7095,0.3228,
13.572443,-0.3312,-1.0044,-0.3561,0.6238,0.2331,0.6619,0.0682,0.7095,0.3228,
13.574753,-0.2643,-0.9011,-0.2335,0.6238,0.2331,0.6619,0.0682,0.7095,0.3228,
13.576177,-0.2350,-0.7733,-0.1167,0.6238,0.2331,0.6619,0.0682,0.7095,0.3228,
13.577228,-0.2350,-0.7733,-0.1167,0.6238,0.2331,0.6619,0.7585,1.8930,0.0469,
13.578248,-0.2350,-0.7733,-0.1167,-1.7810,-0.2333,0.1947,0.7585,1.8930,0.0469,
13.611394,-0.2350,-0.7733,-0.1167,-1.7810,-0.2333,0.1947,1.4104,2.0762,-0.1288,
13.615442,-0.2350,-0.7733,-0.1167,-0.7018,2.3668,2.5166,1.4104,2.0762,-0.1288,
13.650626,-0.2350,-0.7733,-0.1167,-0.7018,2.3668,2.5166,1.8664,1.2283,-0.1150,
13.652764,-0.2350,-0.7733,-0.1167,-0.8599,2.5223,1.8400,1.8664,1.2283,-0.1150,
13.654106,-0.1788,-0.6802,-0.0317,-0.8599,2.5223,1.8400,1.8664,1.2283,-0.1150,
13.655131,-0.1299,-0.6617,0.0194,-0.8599,2.5223,1.8400,1.8664,1.2283,-0.1150,
13.656371,-0.0662,-0.6851,0.0399,-0.8599,2.5223,1.8400,1.8664,1.2283,-0.1150,
13.657558,0.0157,-0.7433,0.0167,-0.8599,2.5223,1.8400,1.8664,1.2283,-0.1150,
13.658768,0.0733,-0.8432,-0.0285,-0.8599,2.5223,1.8400,1.8664,1.2283,-0.1150,
13.691130,0.0733,-0.8432,-0.0285,0.8355,2.1493,1.4929,1.8664,1.2283,-0.1150,
13.693980,0.0733,-0.8432,-0.0285,0.8355,2.1493,1.4929,2.2712,0.6712,-0.2386,
13.731034,0.0733,-0.8432,-0.0285,0.8355,2.1493,1.4929,2.3713,0.6200,-0.4942,
13.733380,0.0733,-0.8432,-0.0285,-0.1015,-2.2609,-1.6268,2.3713,0.6200,-0.4942,
13.734885,0.1036,-0.9798,-0.0833,-0.1015,-2.2609,-1.6268,2.3713,0.6200,-0.4942,
13.736025,-0.0168,-1.1982,-0.1223,-0.1015,-2.2609,-1.6268,2.3713,0.6200,-0.4942,
13.737250,-0.2863,-1.4869,-0.4578,-0.1015,-2.2609,-1.6268,2.3713,0.6200,-0.4942,
13.738515,-0.5091,-1.6655,-0.8919,-0.1015,-2.2609,-1.6268,2.3713,0.6200,-0.4942,
13.770608,-0.5091,-1.6655,-0.8919,-0.1015,-2.2609,-1.6268,1.1271,1.1708,-0.2279,
13.773226,-0.5091,-1.6655,-0.8919,-0.1988,-2.2042,-2.0044,1.1271,1.1708,-0.2279,
13.810192,-0.5091,-1.6655,-0.8919,-0.1988,-2.2042,-2.0044,-0.5987,2.1284,0.1758,
13.812570,-0.5091,-1.6655,-0.8919,-2.4441,-3.9851,-8.2061,-0.5987,2.1284,0.1758,
13.814709,-0.3447,-1.4962,-1.0903,-2.4441,-3.9851,-8.2061,-0.5987,2.1284,0.1758,
13.815991,-0.0601,-1.0658,-0.7053,-2.4441,-3.9851,-8.2061,-0.5987,2.1284,0.1758,
13.817238,0.0899,-0.8625,-0.0801,-2.4441,-3.9851,-8.2061,-0.5987,2.1284,0.1758,
13.818502,0.0208,-0.7741,-0.0947,-2.4441,-3.9851,-8.2061,-0.5987,2.1284,0.1758,
13.848628,0.0208,-0.7741,-0.0947,-2.4441,-3.9851,-8.2061,-0.8511,0.5636,0.2376,
13.851210,0.0208,-0.7741,-0.0947,-2.3270,-3.9489,-7.7316,-0.8511,0.5636,0.2376,
13.889037,0.0208,-0.7741,-0.0947,-2.3270,-3.9489,-7.7316,-0.6935,-0.4974,0.3431,
13.892090,0.0208,-0.7741,-0.0947,0.6907,1.8724,-0.0658,-0.6935,-0.4974,0.3431,
13.894067,-0.1456,-0.7863,-0.2445,0.6907,1.8724,-0.0658,-0.6935,-0.4974,0.3431,
13.895495,-0.0962,-0.9277,-0.1842,0.6907,1.8724,-0.0658,-0.6935,-0.4974,0.3431,
13.897158,0.1122,-1.0010,-0.1563,0.6907,1.8724,-0.0658,-0.6935,-0.4974,0.3431,
13.898550,0.1388,-0.9597,-0.0916,0.6907,1.8724,-0.0658,-0.6935,-0.4974,0.3431,
13.928297,0.1388,-0.9597,-0.0916,0.6907,1.8724,-0.0658,-0.2546,0.4421,0.1066,
13.929697,0.1388,-0.9597,-0.0916,1.3048,0.3286,0.0058,-0.2546,0.4421,0.1066,
13.968954,0.1388,-0.9597,-0.0916,1.3048,0.3286,0.0058,-0.1065,0.2823,-0.0905,
13.971176,0.1388,-0.9597,-0.0916,1.6228,-0.9703,-0.6915,-0.1065,0.2823,-0.0905,
13.973813,0.0868,-0.9612,-0.0041,1.6228,-0.9703,-0.6915,-0.1065,0.2823,-0.0905,
13.974903,0.1061,-1.0983,-0.2357,1.6228,-0.9703,-0.6915,-0.1065,0.2823,-0.0905,
13.976068,0.0834,-1.2307,-0.4246,1.6228,-0.9703,-0.6915,-0.1065,0.2823,-0.0905,
13.977258,0.0215,-1.1559,-0.0740,1.6228,-0.9703,-0.6915,-0.1065,0.2823,-0.0905,
14.008048,0.0215,-1.1559,-0.0740,1.6228,-0.9703,-0.6915,0.0107,0.1609,-0.1651,
14.010508,0.0215,-1.1559,-0.0740,1.5235,-0.9492,-0.6797,0.0107,0.1609,-0.1651,
14.047995,0.0215,-1.1559,-0.0740,1.5235,-0.9492,-0.6797,0.6147,-0.2343,-0.0479,
14.049928,0.0215,-1.1559,-0.0740,0.1652,-1.3342,1.5471,0.6147,-0.2343,-0.0479,
14.051925,-0.0642,-1.1141,0.1855,0.1652,-1.3342,1.5471,0.6147,-0.2343,-0.0479,
14.052994,-0.0943,-1.1554,-0.0112,0.1652,-1.3342,1.5471,0.6147,-0.2343,-0.0479,
14.053992,-0.0102,-1.1588,-0.2264,0.1652,-1.3342,1.5471,0.6147,-0.2343,-0.0479,
14.055142,-0.0178,-1.1061,-0.0911,0.1652,-1.3342,1.5471,0.6147,-0.2343,-0.0479,
14.086836,-0.0178,-1.1061,-0.0911,0.1652,-1.3342,1.5471,0.8512,-0.2066,-0.0351,
14.088841,-0.0178,-1.1061,-0.0911,0.1575,-1.2763,1.1890,0.8512,-0.2066,-0.0351,
14.126768,-0.0178,-1.1061,-0.0911,0.1575,-1.2763,1.1890,1.0419,-0.3025,0.1279,
14.128938,-0.0178,-1.1061,-0.0911,0.3901,-0.8197,-0.5519,1.0419,-0.3025,0.1279,
14.130471,-0.0535,-1.0323,0.0098,0.3901,-0.8197,-0.5519,1.0419,-0.3025,0.1279,
14.131775,-0.0175,-0.9653,-0.1055,0.3901,-0.8197,-0.5519,1.0419,-0.3025,0.1279,
14.132769,0.0088,-0.9065,-0.2860,0.3901,-0.8197,-0.5519,1.0419,-0.3025,0.1279,
14.134529,-0.0178,-0.8669,-0.2433,0.3901,-0.8197,-0.5519,1.0419,-0.3025,0.1279,
14.166783,-0.0178,-0.8669,-0.2433,0.3901,-0.8197,-0.5519,0.7436,-0.6072,0.2621,
14.169224,-0.0178,-0.8669,-0.2433,0.6684,0.9894,-1.8989,0.7436,-0.6072,0.2621,
14.206411,-0.0178,-0.8669,-0.2433,0.6684,0.9894,-1.8989,0.7638,-0.2652,0.1332,
14.208964,-0.0178,-0.8669,-0.2433,0.4787,1.5933,-0.8755,0.7638,-0.2652,0.1332,
14.210660,-0.0312,-0.8559,-0.0877,0.4787,1.5933,-0.8755,0.7638,-0.2652,0.1332,
14.211912,-0.0346,-0.8566,-0.0508,0.4787,1.5933,-0.8755,0.7638,-0.2652,0.1332,
14.212964,-0.0324,-0.8320,-0.0930,0.4787,1.5933,-0.8755,0.7638,-0.2652,0.1332,
14.213759,-0.0686,-0.8576,-0.1197,0.4787,1.5933,-0.8755,0.7638,-0.2652,0.1332,
14.245417,-0.0686,-0.8576,-0.1197,0.4787,1.5933,-0.8755,0.8022,0.0938,0.0704,
14.247890,-0.0686,-0.8576,-0.1197,0.4992,1.5559,-1.1674,0.8022,0.0938,0.0704,
14.285670,-0.0686,-0.8576,-0.1197,0.4992,1.5559,-1.1674,0.4453,0.0746,0.4059,
14.287863,-0.1548,-0.9751,-0.1280,0.4992,1.5559,-1.1674,0.4453,0.0746,0.4059,
14.289279,-0.1800,-1.0399,-0.1399,0.4992,1.5559,-1.1674,0.4453,0.0746,0.4059,
14.290556,-0.0928,-0.9883,-0.1304,0.4992,1.5559,-1.1674,0.4453,0.0746,0.4059,
14.291543,0.0474,-0.9949,-0.1050,0.4992,1.5559,-1.1674,0.4453,0.0746,0.4059,
14.292647,0.0474,-0.9949,-0.1050,-0.3320,0.4531,-1.8179,0.4453,0.0746,0.4059,
14.324519,0.0474,-0.9949,-0.1050,-0.3320,0.4531,-1.8179,0.0554,0.0522,0.5444,
14.326390,0.0474,-0.9949,-0.1050,-0.1168,0.4212,-1.8066,0.0554,0.0522,0.5444,
14.365041,0.0474,-0.9949,-0.1050,-0.1168,0.4212,-1.8066,-0.2354,-0.1992,0.1151,
14.367305,0.0474,-0.9949,-0.1050,1.6784,-0.1612,-1.3784,-0.2354,-0.1992,0.1151,
14.368210,0.1877,-1.0682,-0.0532,1.6784,-0.1612,-1.3784,-0.2354,-0.1992,0.1151,
14.369041,0.2922,-1.0484,0.0098,1.6784,-0.1612,-1.3784,-0.2354,-0.1992,0.1151,
14.369926,0.2915,-0.9920,0.0599,1.6784,-0.1612,-1.3784,-0.2354,-0.1992,0.1151,
14.370754,0.1500,-1.0274,0.0645,1.6784,-0.1612,-1.3784,-0.2354,-0.1992,0.1151,
14.404107,0.1500,-1.0274,0.0645,1.6784,-0.1612,-1.3784,-0.4719,-0.3504,-0.3089,
14.406303,0.1500,-1.0274,0.0645,3.4273,-0.1908,0.1677,-0.4719,-0.3504,-0.3089,
14.444079,0.1500,-1.0274,0.0645,3.4273,-0.1908,0.1677,-0.5624,-0.5816,-0.2780,
14.446037,0.1500,-1.0274,0.0645,0.2408,-0.2313,0.4481,-0.5624,-0.5816,-0.2780,
14.447988,0.0052,-1.0577,0.0448,0.2408,-0.2313,0.4481,-0.5624,-0.5816,-0.2780,
14.449022,-0.0688,-1.0213,0.0531,0.2408,-0.2313,0.4481,-0.5624,-0.5816,-0.2780,
14.450837,-0.1424,-1.0069,0.0643,0.2408,-0.2313,0.4481,-0.5624,-0.5816,-0.2780,
14.451839,-0.2086,-1.0237,0.0044,0.2408,-0.2313,0.4481,-0.5624,-0.5816,-0.2780,
14.484030,-0.2086,-1.0237,0.0044,0.2408,-0.2313,0.4481,-0.6200,-0.8106,-0.0436,
14.486826,-0.2086,-1.0237,0.0044,0.2209,-0.2265,0.6503,-0.6200,-0.8106,-0.0436,
14.523522,-0.2086,-1.0237,0.0044,0.2209,-0.2265,0.6503,-1.2421,-0.8309,0.2110,
14.525794,-0.2086,-1.0237,0.0044,-0.7821,0.1686,-0.8378,-1.2421,-0.8309,0.2110,
14.527259,-0.1964,-0.9844,-0.1573,-0.7821,0.1686,-0.8378,-1.2421,-0.8309,0.2110,
14.528430,-0.1407,-0.9482,-0.2838,-0.7821,0.1686,-0.8378,-1.2421,-0.8309,0.2110,
14.529662,-0.0935,-0.9800,-0.3327,-0.7821,0.1686,-0.8378,-1.2421,-0.8309,0.2110,
14.531004,-0.0649,-1.0423,-0.3701,-0.7821,0.1686,-0.8378,-1.2421,-0.8309,0.2110,
14.563271,-0.0649,-1.0423,-0.3701,-0.7821,0.1686,-0.8378,-2.2274,-1.2016,0.3537,
14.566019,-0.0649,-1.0423,-0.3701,-0.5880,0.0644,-0.0256,-2.2274,-1.2016,0.3537,
14.602251,-0.0649,-1.0423,-0.3701,-0.5880,0.0644,-0.0256,-3.0211,-0.4314,0.2674,
14.604745,-0.0649,-1.0423,-0.3701,0.3531,-0.8339,-1.4063,-3.0211,-0.4314,0.2674,
14.606079,-0.1377,-1.1373,-0.5093,0.3531,-0.8339,-1.4063,-3.0211,-0.4314,0.2674,
14.607453,-0.2167,-1.1930,-0.5125,0.3531,-0.8339,-1.4063,-3.0211,-0.4314,0.2674,
14.608678,-0.3132,-1.2639,-0.3647,0.3531,-0.8339,-1.4063,-3.0211,-0.4314,0.2674,
14.610163,-0.4321,-1.2829,-0.1817,0.3531,-0.8339,-1.4063,-3.0211,-0.4314,0.2674,
14.641600,-0.4321,-1.2829,-0.1817,0.3531,-0.8339,-1.4063,-2.3212,0.9545,0.0224,
14.643718,-0.4321,-1.2829,-0.1817,-1.8996,-2.9568,0.0032,-2.3212,0.9545,0.0224,
14.681836,-0.4321,-1.2829,-0.1817,-1.8996,-2.9568,0.0032,-1.4115,0.3452,-0.0426,
14.684282,-0.4321,-1.2829,-0.1817,-0.2069,-2.6037,2.9483,-1.4115,0.3452,-0.0426,
14.685330,-0.4822,-1.2597,-0.1436,-0.2069,-2.6037,2.9483,-1.4115,0.3452,-0.0426,
14.686253,-0.1636,-1.1987,-0.1844,-0.2069,-2.6037,2.9483,-1.4115,0.3452,-0.0426,
14.687102,0.2211,-1.1237,0.0240,-0.2069,-2.6037,2.9483,-1.4115,0.3452,-0.0426,
14.687927,0.3128,-1.0191,0.0355,-0.2069,-2.6037,2.9483,-1.4115,0.3452,-0.0426,
14.721276,0.3128,-1.0191,0.0355,-0.2069,-2.6037,2.9483,-0.7904,-0.8500,-0.4026,
14.723938,0.3128,-1.0191,0.0355,-0.2087,-2.6673,3.1388,-0.7904,-0.8500,-0.4026,
14.762032,0.3128,-1.0191,0.0355,-0.2087,-2.6673,3.1388,-0.4687,-1.2538,-0.7297,
14.764555,0.3128,-1.0191,0.0355,2.3423,-0.4457,2.3212,-0.4687,-1.2538,-0.7297,
14.765861,0.1403,-0.9619,-0.2438,2.3423,-0.4457,2.3212,-0.4687,-1.2538,-0.7297,
14.766771,-0.0688,-0.9096,-0.3676,2.3423,-0.4457,2.3212,-0.4687,-1.2538,-0.7297,
14.767960,-0.2987,-0.8686,-0.2865,2.3423,-0.4457,2.3212,-0.4687,-1.2538,-0.7297,
14.769103,-0.4111,-0.7821,-0.2059,2.3423,-0.4457,2.3212,-0.4687,-1.2538,-0.7297,
14.800744,-0.4111,-0.7821,-0.2059,2.3423,-0.4457,2.3212,-0.0937,-0.7797,-0.6785,
14.803345,-0.4111,-0.7821,-0.2059,2.1933,-0.4262,2.2837,-0.0937,-0.7797,-0.6785,
14.840502,-0.4111,-0.7821,-0.2059,2.1933,-0.4262,2.2837,0.4847,-0.2205,-0.5645,
14.842663,-0.4111,-0.7821,-0.2059,-2.7062,1.5021,2.0258,0.4847,-0.2205,-0.5645,
14.845498,-0.3689,-0.6717,-0.0962,-2.7062,1.5021,2.0258,0.4847,-0.2205,-0.5645,
14.847030,-0.2533,-0.5534,-0.0466,-2.7062,1.5021,2.0258,0.4847,-0.2205,-0.5645,
14.848208,-0.1233,-0.4469,-0.0481,-2.7062,1.5021,2.0258,0.4847,-0.2205,-0.5645,
14.849335,-0.0803,-0.4210,-0.0786,-2.7062,1.5021,2.0258,0.4847,-0.2205,-0.5645,
14.879425,-0.0803,-0.4210,-0.0786,-2.7062,1.5021,2.0258,1.0227,-0.3504,-0.5528,
14.882764,-0.0803,-0.4210,-0.0786,-0.8101,4.5371,2.9503,1.0227,-0.3504,-0.5528,
14.920154,-0.1148,-0.4841,-0.1155,-0.8101,4.5371,2.9503,1.0227,-0.3504,-0.5528,
14.922644,-0.1661,-0.6377,-0.2418,-0.8101,4.5371,2.9503,1.0227,-0.3504,-0.5528,
14.923852,-0.2247,-0.8996,-0.5269,-0.8101,4.5371,2.9503,1.0227,-0.3504,-0.5528,
14.925019,-0.2247,-0.8996,-0.5269,-0.8101,4.5371,2.9503,1.2890,-0.9885,-0.5443,
14.926091,-0.2247,-0.8996,-0.5269,-1.0242,2.7119,0.1269,1.2890,-0.9885,-0.5443,
14.958906,-0.2247,-0.8996,-0.5269,-1.0242,2.7119,0.1269,0.4879,-0.0511,-0.3398,
14.962152,-0.2247,-0.8996,-0.5269,-3.1414,-5.8311,-3.0357,0.4879,-0.0511,-0.3398,
14.998463,-0.2247,-0.8996,-0.5269,-3.1414,-5.8311,-3.0357,0.0597,0.7287,0.1162,
15.001218,-0.2247,-0.8996,-0.5269,-3.1275,-5.7296,-2.9921,0.0597,0.7287,0.1162,
15.002661,-0.2743,-1.3081,-0.9264,-3.1275,-5.7296,-2.9921,0.0597,0.7287,0.1162,
15.005130,-0.2413,-1.7256,-0.7360,-3.1275,-5.7296,-2.9921,0.0597,0.7287,0.1162,
15.006547,-0.6178,-1.6528,-0.1500,-3.1275,-5.7296,-2.9921,0.0597,0.7287,0.1162,
15.007564,-0.9408,-1.1129,-0.4282,-3.1275,-5.7296,-2.9921,0.0597,0.7287,0.1162,
15.008824,-0.7727,-0.9583,-0.5543,-3.1275,-5.7296,-2.9921,0.0597,0.7287,0.1162,
15.037412,-0.7727,-0.9583,-0.5543,-3.1275,-5.7296,-2.9921,-0.1236,-0.5368,0.7042,
15.039190,-0.7727,-0.9583,-0.5543,-2.7512,-5.6684,-2.9123,-0.1236,-0.5368,0.7042,
15.078091,-0.7727,-0.9583,-0.5543,-2.7512,-5.6684,-2.9123,0.4016,0.4155,0.2270,
15.080501,-0.7727,-0.9583,-0.5543,-4.6897,-0.1649,-0.5707,0.4016,0.4155,0.2270,
15.081858,-0.0496,-0.9431,-0.0740,-4.6897,-0.1649,-0.5707,0.4016,0.4155,0.2270,
15.082656,0.4337,-0.8862,0.0062,-4.6897,-0.1649,-0.5707,0.4016,0.4155,0.2270,
15.083885,0.4110,-0.8452,-0.0403,-4.6897,-0.1649,-0.5707,0.4016,0.4155,0.2270,
15.084974,0.1242,-0.8156,-0.2609,-4.6897,-0.1649,-0.5707,0.4016,0.4155,0.2270,
15.117945,0.1242,-0.8156,-0.2609,-4.6897,-0.1649,-0.5707,0.5636,-0.9896,-0.2737,
15.120571,0.1242,-0.8156,-0.2609,4.1653,1.4110,1.6302,0.5636,-0.9896,-0.2737,
15.157411,0.1242,-0.8156,-0.2609,4.1653,1.4110,1.6302,-0.0319,-1.6064,-0.2993,
15.160118,0.1242,-0.8156,-0.2609,1.4610,1.0267,-1.9645,-0.0319,-1.6064,-0.2993,
15.161425,0.0367,-0.8232,-0.4326,1.4610,1.0267,-1.9645,-0.0319,-1.6064,-0.2993,
15.162701,0.0567,-0.8930,-0.4942,1.4610,1.0267,-1.9645,-0.0319,-1.6064,-0.2993,
15.164156,0.0408,-0.9458,-0.4627,1.4610,1.0267,-1.9645,-0.0319,-1.6064,-0.2993,
15.165310,0.0047,-0.9265,-0.3913,1.4610,1.0267,-1.9645,-0.0319,-1.6064,-0.2993,
