
time,gFx,gFy,gFz,ax,ay,az,wx,wy,wz,
0.087243,0.0000,0.0000,0.0000,0.9853,-3.5766,1.4463,0.0000,0.0000,0.0000,
0.147009,0.0000,0.0000,0.0000,0.9248,-3.4600,1.3640,0.0000,0.0000,0.0000,
0.207846,0.0000,0.0000,0.0000,0.5526,-3.1569,1.1760,0.0000,0.0000,0.0000,
0.267209,0.0000,0.0000,0.0000,0.5132,-3.0501,1.1101,0.0000,0.0000,0.0000,
0.327883,0.0000,0.0000,0.0000,0.5132,-3.0501,1.1101,-0.0801,0.0537,-0.0079,
0.329099,0.0000,0.0000,0.0000,0.7030,-3.0423,1.0931,-0.0801,0.0537,-0.0079,
0.387441,0.0000,0.0000,0.0000,0.7030,-3.0423,1.0931,-0.2469,-0.1723,0.0299,
0.388335,0.0000,0.0000,0.0000,0.7165,-2.8780,0.9907,-0.2469,-0.1723,0.0299,
0.447644,-0.5883,-0.8187,0.0767,0.7165,-2.8780,0.9907,-0.2469,-0.1723,0.0299,
0.448486,-0.5883,-0.8187,0.0767,0.7165,-2.8780,0.9907,-0.1711,0.0097,0.0250,
0.448952,-0.5883,-0.8187,0.0767,-6.1803,-12.9231,-7.7329,-0.1711,0.0097,0.0250,
0.508360,-0.5790,-0.7957,0.0425,-6.1803,-12.9231,-7.7329,-0.1711,0.0097,0.0250,
0.510291,-0.5790,-0.7957,0.0425,-6.1803,-12.9231,-7.7329,-0.2377,-0.0343,-0.0043,
0.511460,-0.5790,-0.7957,0.0425,-6.0244,-12.5421,-8.1592,-0.2377,-0.0343,-0.0043,
0.567541,-0.6013,-0.8006,0.0459,-6.0244,-12.5421,-8.1592,-0.2377,-0.0343,-0.0043,
0.568383,-0.6013,-0.8006,0.0459,-6.0244,-12.5421,-8.1592,-0.2951,-0.0300,-0.0244,
0.569025,-0.6013,-0.8006,0.0459,-6.1967,-12.3801,-8.2401,-0.2951,-0.0300,-0.0244,
0.627573,-0.5952,-0.8011,0.0166,-6.1967,-12.3801,-8.2401,-0.2951,-0.0300,-0.0244,
0.629493,-0.5952,-0.8011,0.0166,-6.1967,-12.3801,-8.2401,-0.3361,-0.0153,-0.0061,
0.630493,-0.5952,-0.8011,0.0166,-6.0852,-12.1611,-8.6422,-0.3361,-0.0153,-0.0061,
0.691152,-0.5690,-0.8001,-0.0029,-6.0852,-12.1611,-8.6422,-0.3361,-0.0153,-0.0061,
0.694071,-0.5690,-0.8001,-0.0029,-6.0852,-12.1611,-8.6422,-0.3825,-0.0477,0.0244,
0.695756,-0.5690,-0.8001,-0.0029,-5.7956,-11.8912,-8.9574,-0.3825,-0.0477,0.0244,
0.748406,-0.5793,-0.8065,-0.0198,-5.7956,-11.8912,-8.9574,-0.3825,-0.0477,0.0244,
0.749920,-0.5793,-0.8065,-0.0198,-5.7956,-11.8912,-8.9574,-0.3452,0.0176,0.0000,
0.750806,-0.5793,-0.8065,-0.0198,-5.8578,-11.6849,-9.2404,-0.3452,0.0176,0.0000,
0.807622,-0.5793,-0.8065,-0.0198,-5.8578,-11.6849,-9.2404,-0.3568,0.0989,-0.0147,
0.810368,-0.5793,-0.8065,-0.0198,-5.6183,-11.3109,-9.7875,-0.3568,0.0989,-0.0147,
0.811657,-0.5649,-0.7938,-0.0652,-5.6183,-11.3109,-9.7875,-0.3568,0.0989,-0.0147,
0.868021,-0.5458,-0.8226,-0.1283,-5.6183,-11.3109,-9.7875,-0.3568,0.0989,-0.0147,
0.869604,-0.5458,-0.8226,-0.1283,-5.6183,-11.3109,-9.7875,-0.4729,-0.2487,-0.1045,
0.870630,-0.5458,-0.8226,-0.1283,-5.3702,-11.2921,-10.5162,-0.4729,-0.2487,-0.1045,
0.928146,-0.5458,-0.8226,-0.1283,-5.3702,-11.2921,-10.5162,-0.5376,-0.7893,-0.1857,
0.930819,-0.5458,-0.8226,-0.1283,-5.4811,-11.0584,-11.3600,-0.5376,-0.7893,-0.1857,
0.931701,-0.5382,-0.8348,-0.2028,-5.4811,-11.0584,-11.3600,-0.5376,-0.7893,-0.1857,
0.986770,-0.6084,-0.7869,-0.1893,-5.4811,-11.0584,-11.3600,-0.5376,-0.7893,-0.1857,
0.988199,-0.6084,-0.7869,-0.1893,-5.4811,-11.0584,-11.3600,-0.5260,-0.7508,-0.3207,
0.989233,-0.6084,-0.7869,-0.1893,-6.5659,-10.2122,-11.3188,-0.5260,-0.7508,-0.3207,
1.046954,-0.6494,-0.7425,-0.1559,-6.5659,-10.2122,-11.3188,-0.5260,-0.7508,-0.3207,
1.049549,-0.6494,-0.7425,-0.1559,-6.5659,-10.2122,-11.3188,-0.2524,-0.0416,-0.1857,
1.050891,-0.6494,-0.7425,-0.1559,-7.1131,-9.4673,-11.0569,-0.2524,-0.0416,-0.1857,
1.107342,-0.6269,-0.7759,-0.1187,-7.1131,-9.4673,-11.0569,-0.2524,-0.0416,-0.1857,
1.109762,-0.6269,-0.7759,-0.1187,-7.1131,-9.4673,-11.0569,0.0518,0.5833,-0.0202,
1.110709,-0.6269,-0.7759,-0.1187,-6.6852,-9.6634,-10.7363,0.0518,0.5833,-0.0202,
1.168518,-0.5932,-0.7808,-0.1617,-6.6852,-9.6634,-10.7363,0.0518,0.5833,-0.0202,
1.169854,-0.5932,-0.7808,-0.1617,-6.6852,-9.6634,-10.7363,0.1502,0.5137,-0.0739,
1.170807,-0.5932,-0.7808,-0.1617,-5.9207,-9.7168,-11.1712,0.1502,0.5137,-0.0739,
1.226595,-0.5927,-0.8028,-0.1485,-5.9207,-9.7168,-11.1712,0.1502,0.5137,-0.0739,
1.227971,-0.5927,-0.8028,-0.1485,-5.9207,-9.7168,-11.1712,-0.2603,0.0775,-0.1466,
1.228688,-0.5927,-0.8028,-0.1485,-5.6760,-9.8621,-11.0565,-0.2603,0.0775,-0.1466,
1.288190,-0.5927,-0.8028,-0.1485,-5.6760,-9.8621,-11.0565,-0.3226,-0.1387,-0.0776,
1.290874,-0.5927,-0.8028,-0.1485,-5.1281,-9.5535,-11.0244,-0.3226,-0.1387,-0.0776,
1.293263,-0.5443,-0.7994,-0.1400,-5.1281,-9.5535,-11.0244,-0.3226,-0.1387,-0.0776,
1.347188,-0.5509,-0.8021,-0.1603,-5.1281,-9.5535,-11.0244,-0.3226,-0.1387,-0.0776,
1.349580,-0.5509,-0.8021,-0.1603,-5.1281,-9.5535,-11.0244,-0.0031,0.0292,-0.1558,
1.351158,-0.5509,-0.8021,-0.1603,-5.1858,-9.3958,-11.2540,-0.0031,0.0292,-0.1558,
1.407384,-0.5414,-0.8082,-0.2084,-5.1858,-9.3958,-11.2540,-0.0031,0.0292,-0.1558,
1.409415,-0.5414,-0.8082,-0.2084,-5.1858,-9.3958,-11.2540,-0.0178,0.1123,-0.1680,
1.410887,-0.5414,-0.8082,-0.2084,-4.9704,-9.3933,-11.7318,-0.0178,0.1123,-0.1680,
1.467554,-0.5492,-0.8321,-0.1874,-4.9704,-9.3933,-11.7318,-0.0178,0.1123,-0.1680,
1.470744,-0.5492,-0.8321,-0.1874,-4.9704,-9.3933,-11.7318,-0.0679,0.1624,-0.2889,
1.472909,-0.5492,-0.8321,-0.1874,-4.9125,-9.5063,-11.5381,-0.0679,0.1624,-0.2889,
1.527117,-0.5512,-0.8111,-0.2030,-4.9125,-9.5063,-11.5381,-0.0679,0.1624,-0.2889,
1.529659,-0.5512,-0.8111,-0.2030,-4.9125,-9.5063,-11.5381,0.1575,0.2950,-0.3622,
1.531347,-0.5512,-0.8111,-0.2030,-4.7116,-9.2256,-11.6883,0.1575,0.2950,-0.3622,
1.589340,-0.6411,-0.8654,-0.2355,-4.7116,-9.2256,-11.6883,0.1575,0.2950,-0.3622,
1.591915,-0.6411,-0.8654,-0.2355,-4.7116,-9.2256,-11.6883,0.2082,0.2418,-0.5058,
1.594442,-0.6411,-0.8654,-0.2355,-5.3159,-9.7796,-11.9800,0.2082,0.2418,-0.5058,
1.647559,-0.6225,-0.9262,-0.1720,-5.3159,-9.7796,-11.9800,0.2082,0.2418,-0.5058,
1.649894,-0.6225,-0.9262,-0.1720,-5.3159,-9.7796,-11.9800,-0.0239,0.0744,-0.1735,
1.651457,-0.6225,-0.9262,-0.1720,-4.9977,-10.3471,-11.3468,-0.0239,0.0744,-0.1735,
1.707787,-0.5487,-0.9123,-0.1534,-4.9977,-10.3471,-11.3468,-0.0239,0.0744,-0.1735,
1.710658,-0.5487,-0.9123,-0.1534,-4.9977,-10.3471,-11.3468,0.1380,0.2852,0.1173,
1.712273,-0.5487,-0.9123,-0.1534,-4.1095,-10.1349,-11.1542,0.1380,0.2852,0.1173,
1.767294,-0.4964,-0.8986,-0.1107,-4.1095,-10.1349,-11.1542,0.1380,0.2852,0.1173,
1.769940,-0.4964,-0.8986,-0.1107,-4.1095,-10.1349,-11.1542,0.6273,0.4477,0.5082,
1.772355,-0.4964,-0.8986,-0.1107,-3.3834,-10.1523,-10.6847,0.6273,0.4477,0.5082,
1.829155,-0.3999,-0.8615,-0.1048,-3.3834,-10.1523,-10.6847,0.6273,0.4477,0.5082,
1.831521,-0.3999,-0.8615,-0.1048,-3.3834,-10.1523,-10.6847,0.9749,0.8295,0.6872,
1.832924,-0.3999,-0.8615,-0.1048,-2.0962,-10.2260,-10.4963,0.9749,0.8295,0.6872,
1.889999,-0.3892,-0.9308,-0.0867,-2.0962,-10.2260,-10.4963,0.9749,0.8295,0.6872,
1.892721,-0.3892,-0.9308,-0.0867,-2.0962,-10.2260,-10.4963,1.0634,0.7452,0.4374,
1.894861,-0.3892,-0.9308,-0.0867,-1.5372,-11.4780,-10.0932,1.0634,0.7452,0.4374,
1.948243,-0.3760,-0.9682,-0.1297,-1.5372,-11.4780,-10.0932,1.0634,0.7452,0.4374,
1.951461,-0.3760,-0.9682,-0.1297,-1.5372,-11.4780,-10.0932,1.3909,0.3341,0.1802,
1.953645,-0.3760,-0.9682,-0.1297,-1.0216,-12.4586,-10.2299,1.3909,0.3341,0.1802,
2.010653,-0.4371,-0.8517,-0.0914,-1.0216,-12.4586,-10.2299,1.3909,0.3341,0.1802,
2.013813,-0.4371,-0.8517,-0.0914,-1.0216,-12.4586,-10.2299,0.1215,-0.3049,0.0214,
2.015825,-0.4371,-0.8517,-0.0914,-1.6368,-11.7314,-9.7107,0.1215,-0.3049,0.0214,
2.069263,-0.4434,-0.8507,-0.0581,-1.6368,-11.7314,-9.7107,0.1215,-0.3049,0.0214,
2.073544,-0.4434,-0.8507,-0.0581,-1.6368,-11.7314,-9.7107,-0.0007,-0.3379,-0.0079,
2.075539,-0.4434,-0.8507,-0.0581,-1.8193,-11.6329,-9.4538,-0.0007,-0.3379,-0.0079,
2.127665,-0.4588,-0.9008,-0.0049,-1.8193,-11.6329,-9.4538,-0.0007,-0.3379,-0.0079,
2.130165,-0.4588,-0.9008,-0.0049,-1.8193,-11.6329,-9.4538,0.1942,0.1459,0.0776,
2.131572,-0.4588,-0.9008,-0.0049,-2.0252,-12.0925,-8.9588,0.1942,0.1459,0.0776,
2.191568,-0.4014,-0.9074,0.0491,-2.0252,-12.0925,-8.9588,0.1942,0.1459,0.0776,
2.194417,-0.4014,-0.9074,0.0491,-2.0252,-12.0925,-8.9588,0.3762,0.3066,0.0385,
2.196275,-0.4014,-0.9074,0.0491,-1.3051,-12.2416,-8.3530,0.3762,0.3066,0.0385,
2.247791,-0.4236,-0.8710,0.0051,-1.3051,-12.2416,-8.3530,0.3762,0.3066,0.0385,
2.250680,-0.4236,-0.8710,0.0051,-1.3051,-12.2416,-8.3530,0.1612,-0.0880,-0.0654,
2.252960,-0.4236,-0.8710,0.0051,-1.3541,-11.9618,-8.7022,0.1612,-0.0880,-0.0654,
2.310254,-0.4696,-0.8509,-0.0049,-1.3541,-11.9618,-8.7022,0.1612,-0.0880,-0.0654,
2.313314,-0.4696,-0.8509,-0.0049,-1.3541,-11.9618,-8.7022,0.0818,0.0207,-0.0312,
2.315155,-0.4696,-0.8509,-0.0049,-1.7871,-11.7371,-8.8060,0.0818,0.0207,-0.0312,
2.369061,-0.4566,-0.8668,-0.0166,-1.7871,-11.7371,-8.8060,0.0818,0.0207,-0.0312,
2.372010,-0.4566,-0.8668,-0.0166,-1.7871,-11.7371,-8.8060,0.0720,0.1270,0.0122,
2.374230,-0.4566,-0.8668,-0.0166,-1.5635,-11.8670,-8.8992,0.0720,0.1270,0.0122,
2.427061,-0.4415,-0.8878,0.0083,-1.5635,-11.8670,-8.8992,0.0720,0.1270,0.0122,
2.429775,-0.4415,-0.8878,0.0083,-1.5635,-11.8670,-8.8992,-0.1180,-0.0062,0.0531,
2.431762,-0.4415,-0.8878,0.0083,-1.3218,-11.9931,-8.6538,-0.1180,-0.0062,0.0531,
2.490130,-0.4131,-0.9174,-0.0027,-1.3218,-11.9931,-8.6538,-0.1180,-0.0062,0.0531,
2.493307,-0.4131,-0.9174,-0.0027,-1.3218,-11.9931,-8.6538,-0.1766,-0.0300,0.0654,
2.495510,-0.4131,-0.9174,-0.0027,-1.0369,-12.1382,-8.8122,-0.1766,-0.0300,0.0654,
2.547404,-0.3982,-0.9088,-0.0110,-1.0369,-12.1382,-8.8122,-0.1766,-0.0300,0.0654,
2.550564,-0.3982,-0.9088,-0.0110,-1.0369,-12.1382,-8.8122,-0.1412,-0.0117,0.0464,
2.551775,-0.3982,-0.9088,-0.0110,-0.8688,-11.8960,-8.9412,-0.1412,-0.0117,0.0464,
2.608419,-0.3926,-0.8988,-0.0880,-0.8688,-11.8960,-8.9412,-0.1412,-0.0117,0.0464,
2.618617,-0.3926,-0.8988,-0.0880,-0.8688,-11.8960,-8.9412,-0.2646,-0.1174,0.0483,
2.620169,-0.3926,-0.8988,-0.0880,-0.8048,-11.6436,-9.7431,-0.2646,-0.1174,0.0483,
2.668356,-0.4053,-0.8431,-0.0728,-0.8048,-11.6436,-9.7431,-0.2646,-0.1174,0.0483,
2.670796,-0.4053,-0.8431,-0.0728,-0.8048,-11.6436,-9.7431,-0.4167,-0.1302,0.0220,
2.672565,-0.4053,-0.8431,-0.0728,-0.9617,-10.8331,-9.6857,-0.4167,-0.1302,0.0220,
2.728488,-0.4192,-0.7933,-0.1551,-0.9617,-10.8331,-9.6857,-0.4167,-0.1302,0.0220,
2.731412,-0.4192,-0.7933,-0.1551,-0.9617,-10.8331,-9.6857,-0.6152,-0.3293,0.1234,
2.733776,-0.4192,-0.7933,-0.1551,-1.1489,-10.0303,-10.5935,-0.6152,-0.3293,0.1234,
2.787932,-0.4185,-0.7315,-0.0953,-1.1489,-10.0303,-10.5935,-0.6152,-0.3293,0.1234,
2.791198,-0.4185,-0.7315,-0.0953,-1.1489,-10.0303,-10.5935,-0.9781,-0.5242,0.1851,
2.793067,-0.4185,-0.7315,-0.0953,-1.3839,-8.9421,-10.1880,-0.9781,-0.5242,0.1851,
2.849089,-0.6274,-1.0508,-0.1439,-1.3839,-8.9421,-10.1880,-0.9781,-0.5242,0.1851,
2.852068,-0.6274,-1.0508,-0.1439,-1.3839,-8.9421,-10.1880,-1.0392,-0.3336,0.2468,
2.854031,-0.6274,-1.0508,-0.1439,-3.6164,-11.4442,-10.8146,-1.0392,-0.3336,0.2468,
2.910729,-0.5167,-0.9973,0.0684,-3.6164,-11.4442,-10.8146,-1.0392,-0.3336,0.2468,
2.913735,-0.5167,-0.9973,0.0684,-3.6164,-11.4442,-10.8146,-0.6036,0.0415,0.2327,
2.916038,-0.5167,-0.9973,0.0684,-2.6685,-10.3700,-8.8205,-0.6036,0.0415,0.2327,
2.967782,-0.5524,-0.8209,-0.2213,-2.6685,-10.3700,-8.8205,-0.6036,0.0415,0.2327,
2.970352,-0.5524,-0.8209,-0.2213,-2.6685,-10.3700,-8.8205,0.4055,0.0244,-0.0788,
2.972405,-0.5524,-0.8209,-0.2213,-2.7451,-8.5366,-11.5929,0.4055,0.0244,-0.0788,
3.028153,-0.8209,-0.9626,-0.1918,-2.7451,-8.5366,-11.5929,0.4055,0.0244,-0.0788,
3.031118,-0.8209,-0.9626,-0.1918,-2.7451,-8.5366,-11.5929,-0.2902,-1.0599,-0.5596,
3.033518,-0.8209,-0.9626,-0.1918,-5.6064,-9.9040,-11.3664,-0.2902,-1.0599,-0.5596,
3.088831,-0.6882,-0.5434,-0.1116,-5.6064,-9.9040,-11.3664,-0.2902,-1.0599,-0.5596,
3.092370,-0.6882,-0.5434,-0.1116,-5.6064,-9.9040,-11.3664,-0.4998,-0.6513,-0.3054,
3.094669,-0.6882,-0.5434,-0.1116,-4.7830,-5.3958,-10.7023,-0.4998,-0.6513,-0.3054,
3.148600,-0.6934,-0.7329,-0.0833,-4.7830,-5.3958,-10.7023,-0.4998,-0.6513,-0.3054,
3.151099,-0.6934,-0.7329,-0.0833,-4.7830,-5.3958,-10.7023,-0.1479,-0.6470,0.1399,
3.152443,-0.6934,-0.7329,-0.0833,-5.2178,-6.9536,-10.4927,-0.1479,-0.6470,0.1399,
3.207799,-0.5695,-0.8040,-0.0518,-5.2178,-6.9536,-10.4927,-0.1479,-0.6470,0.1399,
3.210813,-0.5695,-0.8040,-0.0518,-5.2178,-6.9536,-10.4927,0.5106,0.6450,0.4624,
3.212913,-0.5695,-0.8040,-0.0518,-4.0265,-7.6913,-10.1884,0.5106,0.6450,0.4624,
3.267694,-0.7007,-0.7718,-0.0430,-4.0265,-7.6913,-10.1884,0.5106,0.6450,0.4624,
3.270956,-0.7007,-0.7718,-0.0430,-4.0265,-7.6913,-10.1884,1.1587,1.3609,0.2279,
3.272856,-0.7007,-0.7718,-0.0430,-4.6322,-7.8241,-9.9665,1.1587,1.3609,0.2279,
3.328579,-0.6623,-0.7603,-0.1239,-4.6322,-7.8241,-9.9665,1.1587,1.3609,0.2279,
3.331208,-0.6623,-0.7603,-0.1239,-4.6322,-7.8241,-9.9665,0.7458,1.4477,0.1179,
3.333638,-0.6623,-0.7603,-0.1239,-3.3856,-8.2963,-10.4774,0.7458,1.4477,0.1179,
3.388448,-0.5451,-0.8182,-0.1397,-3.3856,-8.2963,-10.4774,0.7458,1.4477,0.1179,
3.391962,-0.5451,-0.8182,-0.1397,-3.3856,-8.2963,-10.4774,0.0103,-0.2065,0.0275,
3.394181,-0.5451,-0.8182,-0.1397,-1.7562,-9.0224,-10.4418,0.0103,-0.2065,0.0275,
3.448303,-0.6233,-0.7982,-0.1317,-1.7562,-9.0224,-10.4418,0.0103,-0.2065,0.0275,
3.452766,-0.6233,-0.7982,-0.1317,-1.7562,-9.0224,-10.4418,-0.1119,-0.8064,-0.1833,
3.454852,-0.6233,-0.7982,-0.1317,-2.8344,-8.6998,-10.4929,-0.1119,-0.8064,-0.1833,
3.507917,-0.5959,-0.8290,-0.1146,-2.8344,-8.6998,-10.4929,-0.1119,-0.8064,-0.1833,
3.511845,-0.5959,-0.8290,-0.1146,-2.8344,-8.6998,-10.4929,0.1618,-0.2963,-0.0269,
3.513567,-0.5959,-0.8290,-0.1146,-2.8398,-8.8986,-10.4272,0.1618,-0.2963,-0.0269,
3.569885,-0.6164,-0.7850,-0.0882,-2.8398,-8.8986,-10.4272,0.1618,-0.2963,-0.0269,
3.574091,-0.6164,-0.7850,-0.0882,-2.8398,-8.8986,-10.4272,0.5210,0.3225,0.1765,
3.576178,-0.6164,-0.7850,-0.0882,-3.0291,-8.5924,-10.1536,0.5210,0.3225,0.1765,
3.629791,-0.6790,-0.8605,-0.1222,-3.0291,-8.5924,-10.1536,0.5210,0.3225,0.1765,
3.634401,-0.6790,-0.8605,-0.1222,-3.0291,-8.5924,-10.1536,0.4471,0.3866,0.5113,
3.636615,-0.6790,-0.8605,-0.1222,-3.3843,-9.6153,-10.3668,0.4471,0.3866,0.5113,
3.688818,-0.5268,-0.9628,0.0669,-3.3843,-9.6153,-10.3668,0.4471,0.3866,0.5113,
3.692990,-0.5268,-0.9628,0.0669,-3.3843,-9.6153,-10.3668,0.5454,0.7360,0.7165,
3.695821,-0.5268,-0.9628,0.0669,-1.6580,-10.9078,-8.3841,0.5454,0.7360,0.7165,
3.748568,-0.4253,-0.9609,0.1786,-1.6580,-10.9078,-8.3841,0.5454,0.7360,0.7165,
3.752520,-0.4253,-0.9609,0.1786,-1.6580,-10.9078,-8.3841,1.6633,1.2717,0.5467,
3.754807,-0.4253,-0.9609,0.1786,-0.1321,-11.4864,-6.9444,1.6633,1.2717,0.5467,
3.807754,-0.6252,-0.6470,-0.2675,-0.1321,-11.4864,-6.9444,1.6633,1.2717,0.5467,
3.811056,-0.6252,-0.6470,-0.2675,-0.1321,-11.4864,-6.9444,0.8338,0.7409,-0.1753,
3.813114,-0.6252,-0.6470,-0.2675,-1.4281,-9.1981,-10.7409,0.8338,0.7409,-0.1753,
3.870283,-0.8492,-0.5614,-0.0901,-1.4281,-9.1981,-10.7409,0.8338,0.7409,-0.1753,
3.873981,-0.8492,-0.5614,-0.0901,-1.4281,-9.1981,-10.7409,-0.3916,-1.1644,-0.5406,
3.876064,-0.8492,-0.5614,-0.0901,-3.6034,-8.2912,-9.0150,-0.3916,-1.1644,-0.5406,
3.928063,-0.4786,-0.6968,0.0457,-3.6034,-8.2912,-9.0150,-0.3916,-1.1644,-0.5406,
3.932345,-0.4786,-0.6968,0.0457,-3.6034,-8.2912,-9.0150,-0.2072,-0.6452,-0.2126,
3.934525,-0.4786,-0.6968,0.0457,-0.3808,-9.2490,-8.0223,-0.2072,-0.6452,-0.2126,
3.989285,-0.3757,-0.9355,0.0286,-0.3808,-9.2490,-8.0223,-0.2072,-0.6452,-0.2126,
3.993134,-0.3757,-0.9355,0.0286,-0.3808,-9.2490,-8.0223,0.1239,0.4959,-0.2492,
3.995446,-0.3757,-0.9355,0.0286,0.5763,-11.4814,-8.2452,0.1239,0.4959,-0.2492,
4.049933,-0.2570,-0.9890,0.0552,0.5763,-11.4814,-8.2452,0.1239,0.4959,-0.2492,
4.052948,-0.2570,-0.9890,0.0552,0.5763,-11.4814,-8.2452,-0.0190,0.7482,-0.6536,
4.055102,-0.2570,-0.9890,0.0552,2.3126,-11.8318,-7.7203,-0.0190,0.7482,-0.6536,
4.107672,-0.3909,-0.9611,0.0156,2.3126,-11.8318,-7.7203,-0.0190,0.7482,-0.6536,
4.110809,-0.3909,-0.9611,0.0156,2.3126,-11.8318,-7.7203,-0.3977,-0.4656,-0.9988,
4.112670,-0.3909,-0.9611,0.0156,1.1362,-11.2019,-8.1125,-0.3977,-0.4656,-0.9988,
4.170220,-0.4561,-0.8971,0.0442,1.1362,-11.2019,-8.1125,-0.3977,-0.4656,-0.9988,
4.174131,-0.4561,-0.8971,0.0442,1.1362,-11.2019,-8.1125,-0.3715,-0.5560,-1.0385,
4.176190,-0.4561,-0.8971,0.0442,0.3382,-9.9485,-8.0351,-0.3715,-0.5560,-1.0385,
4.230079,-0.5158,-0.8663,0.0007,0.3382,-9.9485,-8.0351,-0.3715,-0.5560,-1.0385,
4.234055,-0.5158,-0.8663,0.0007,0.3382,-9.9485,-8.0351,-0.2249,-0.2609,-0.6017,
4.236270,-0.5158,-0.8663,0.0007,-0.4067,-9.1791,-8.6006,-0.2249,-0.2609,-0.6017,
4.288266,-0.4405,-0.7945,-0.0723,-0.4067,-9.1791,-8.6006,-0.2249,-0.2609,-0.6017,
4.291681,-0.4405,-0.7945,-0.0723,-0.4067,-9.1791,-8.6006,-0.2658,0.2901,-0.1228,
4.294327,-0.4405,-0.7945,-0.0723,0.3592,-8.1827,-9.3196,-0.2658,0.2901,-0.1228,
4.350044,-0.4512,-0.7860,-0.1053,0.3592,-8.1827,-9.3196,-0.2658,0.2901,-0.1228,
4.352813,-0.4512,-0.7860,-0.1053,0.3592,-8.1827,-9.3196,-0.5163,0.1050,0.0464,
4.354501,-0.4512,-0.7860,-0.1053,0.3996,-7.8335,-9.5703,-0.5163,0.1050,0.0464,
4.410441,-0.5016,-0.9245,-0.0865,0.3996,-7.8335,-9.5703,-0.5163,0.1050,0.0464,
4.413235,-0.5016,-0.9245,-0.0865,0.3996,-7.8335,-9.5703,-0.7514,0.5870,0.2541,
4.414832,-0.5016,-0.9245,-0.0865,0.1249,-8.8380,-9.2567,-0.7514,0.5870,0.2541,
4.467929,-0.3799,-0.9677,0.0054,0.1249,-8.8380,-9.2567,-0.7514,0.5870,0.2541,
4.471258,-0.3799,-0.9677,0.0054,0.1249,-8.8380,-9.2567,-0.5541,0.6871,0.3696,
4.473100,-0.3799,-0.9677,0.0054,1.6357,-8.9431,-8.1426,-0.5541,0.6871,0.3696,
4.529275,-0.4835,-0.9731,-0.1317,1.6357,-8.9431,-8.1426,-0.5541,0.6871,0.3696,
4.533414,-0.4835,-0.9731,-0.1317,1.6357,-8.9431,-8.1426,-0.3409,-0.2786,0.1851,
4.535694,-0.4835,-0.9731,-0.1317,0.7782,-8.8347,-9.3681,-0.3409,-0.2786,0.1851,
4.588560,-0.5551,-0.9135,-0.1319,0.7782,-8.8347,-9.3681,-0.3409,-0.2786,0.1851,
4.592382,-0.5551,-0.9135,-0.1319,0.7782,-8.8347,-9.3681,-0.0697,-0.0569,0.1594,
4.594681,-0.5551,-0.9135,-0.1319,0.0160,-8.1068,-9.3977,-0.0697,-0.0569,0.1594,
4.648925,-0.5238,-0.7188,-0.2018,0.0160,-8.1068,-9.3977,-0.0697,-0.0569,0.1594,
4.652590,-0.5238,-0.7188,-0.2018,0.0160,-8.1068,-9.3977,0.2504,-0.1430,0.1533,
4.654646,-0.5238,-0.7188,-0.2018,0.3053,-6.2359,-10.0978,0.2504,-0.1430,0.1533,
4.708127,-0.7835,-0.9990,-0.2467,0.3053,-6.2359,-10.0978,0.2504,-0.1430,0.1533,
4.711998,-0.7835,-0.9990,-0.2467,0.3053,-6.2359,-10.0978,0.2485,-0.4057,0.1869,
4.714127,-0.7835,-0.9990,-0.2467,-2.3325,-9.1020,-10.6106,0.2485,-0.4057,0.1869,
4.768737,-0.5329,-0.6406,-0.1422,-2.3325,-9.1020,-10.6106,0.2485,-0.4057,0.1869,
4.772248,-0.5329,-0.6406,-0.1422,-2.3325,-9.1020,-10.6106,-0.0728,-0.3055,0.3873,
4.774451,-0.5329,-0.6406,-0.1422,-0.0291,-5.6741,-9.6903,-0.0728,-0.3055,0.3873,
4.828737,-0.5935,-0.8273,-0.1742,-0.0291,-5.6741,-9.6903,-0.0728,-0.3055,0.3873,
4.832270,-0.5935,-0.8273,-0.1742,-0.0291,-5.6741,-9.6903,-0.0862,-0.2285,0.3684,
4.834354,-0.5935,-0.8273,-0.1742,-0.6633,-7.4748,-10.0270,-0.0862,-0.2285,0.3684,
4.887776,-0.4722,-0.8737,-0.1981,-0.6633,-7.4748,-10.0270,-0.0862,-0.2285,0.3684,
4.890936,-0.4722,-0.8737,-0.1981,-0.6633,-7.4748,-10.0270,-0.0752,0.2174,0.4197,
4.893758,-0.4722,-0.8737,-0.1981,0.5363,-7.9773,-10.2578,-0.0752,0.2174,0.4197,
4.947573,-0.5233,-0.7777,-0.1119,0.5363,-7.9773,-10.2578,-0.0752,0.2174,0.4197,
4.950599,-0.5233,-0.7777,-0.1119,0.5363,-7.9773,-10.2578,0.1606,0.1129,-0.0189,
4.952487,-0.5233,-0.7777,-0.1119,0.1617,-7.0289,-9.3325,0.1606,0.1129,-0.0189,
5.007368,-0.6386,-0.7427,-0.1605,0.1617,-7.0289,-9.3325,0.1606,0.1129,-0.0189,
5.010436,-0.6386,-0.7427,-0.1605,0.1617,-7.0289,-9.3325,0.2137,0.1148,-0.1368,
5.012432,-0.6386,-0.7427,-0.1605,-0.8620,-6.7078,-9.7412,0.2137,0.1148,-0.1368,
5.068377,-0.6372,-0.7850,-0.1116,-0.8620,-6.7078,-9.7412,0.2137,0.1148,-0.1368,
5.071736,-0.6372,-0.7850,-0.1116,-0.8620,-6.7078,-9.7412,-0.1039,-0.0703,-0.0360,
5.073905,-0.6372,-0.7850,-0.1116,-0.8121,-7.0590,-9.2341,-0.1039,-0.0703,-0.0360,
5.128727,-0.5483,-0.7796,-0.1620,-0.8121,-7.0590,-9.2341,-0.1039,-0.0703,-0.0360,
5.132061,-0.5483,-0.7796,-0.1620,-0.8121,-7.0590,-9.2341,0.1447,0.1404,-0.0751,
5.134198,-0.5483,-0.7796,-0.1620,0.1239,-6.9395,-9.6784,0.1447,0.1404,-0.0751,
5.188411,-0.6047,-0.7584,-0.1857,0.1239,-6.9395,-9.6784,0.1447,0.1404,-0.0751,
5.191574,-0.6047,-0.7584,-0.1857,0.1239,-6.9395,-9.6784,0.0054,-0.0172,-0.2181,
5.193053,-0.6047,-0.7584,-0.1857,-0.3769,-6.6897,-9.8712,0.0054,-0.0172,-0.2181,
5.248180,-0.6164,-0.7522,-0.1192,-0.3769,-6.6897,-9.8712,0.0054,-0.0172,-0.2181,
5.250938,-0.6164,-0.7522,-0.1192,-0.3769,-6.6897,-9.8712,-0.1949,-0.1058,-0.1973,
5.253601,-0.6164,-0.7522,-0.1192,-0.5108,-6.4461,-9.2139,-0.1949,-0.1058,-0.1973,
5.307642,-0.5986,-0.7742,-0.1217,-0.5108,-6.4461,-9.2139,-0.1949,-0.1058,-0.1973,
5.311059,-0.5986,-0.7742,-0.1217,-0.5108,-6.4461,-9.2139,-0.0270,-0.1076,-0.1472,
5.313220,-0.5986,-0.7742,-0.1217,-0.3632,-6.4901,-9.2350,-0.0270,-0.1076,-0.1472,
5.369378,-0.5900,-0.7366,-0.1231,-0.3632,-6.4901,-9.2350,-0.0270,-0.1076,-0.1472,
5.372309,-0.5900,-0.7366,-0.1231,-0.3632,-6.4901,-9.2350,-0.0575,-0.2078,-0.1753,
5.374264,-0.5900,-0.7366,-0.1231,-0.3239,-6.0004,-9.2622,-0.0575,-0.2078,-0.1753,
5.429457,-0.6223,-0.7469,-0.1266,-0.3239,-6.0004,-9.2622,-0.0575,-0.2078,-0.1753,
5.433043,-0.6223,-0.7469,-0.1266,-0.3239,-6.0004,-9.2622,-0.0819,-0.2304,-0.2700,
5.435300,-0.6223,-0.7469,-0.1266,-0.7319,-5.9465,-9.3326,-0.0819,-0.2304,-0.2700,
5.487731,-0.6091,-0.7974,-0.1583,-0.7319,-5.9465,-9.3326,-0.0819,-0.2304,-0.2700,
5.491714,-0.6091,-0.7974,-0.1583,-0.7319,-5.9465,-9.3326,-0.2591,-0.4136,-0.2798,
5.494277,-0.6091,-0.7974,-0.1583,-0.7547,-6.2350,-9.7053,-0.2591,-0.4136,-0.2798,
5.547952,-0.5881,-0.8534,-0.1554,-0.7547,-6.2350,-9.7053,-0.2591,-0.4136,-0.2798,
5.550918,-0.5881,-0.8534,-0.1554,-0.7547,-6.2350,-9.7053,-0.4087,-0.5254,-0.1491,
5.553051,-0.5881,-0.8534,-0.1554,-0.7653,-6.4930,-9.7504,-0.4087,-0.5254,-0.1491,
5.609763,-0.6259,-0.9411,-0.1266,-0.7653,-6.4930,-9.7504,-0.4087,-0.5254,-0.1491,
5.613517,-0.6259,-0.9411,-0.1266,-0.7653,-6.4930,-9.7504,-0.1693,-0.4204,-0.1643,
5.615667,-0.6259,-0.9411,-0.1266,-1.3541,-7.0865,-9.5321,-0.1693,-0.4204,-0.1643,
5.668332,-0.6259,-0.9411,-0.1266,-1.3541,-7.0865,-9.5321,0.3035,-0.2127,-0.0495,
5.672060,-0.6259,-0.9411,-0.1266,-1.5366,-7.0037,-9.6133,0.3035,-0.2127,-0.0495,
5.673938,-0.6772,-0.9602,-0.0603,-1.5366,-7.0037,-9.6133,0.3035,-0.2127,-0.0495,
5.727845,-0.6064,-0.9692,0.2724,-1.5366,-7.0037,-9.6133,0.3035,-0.2127,-0.0495,
5.730986,-0.6064,-0.9692,0.2724,-1.5366,-7.0037,-9.6133,1.0311,0.5173,0.5791,
5.732963,-0.6064,-0.9692,0.2724,-1.3040,-7.5493,-5.7480,1.0311,0.5173,0.5791,
5.789686,-0.4441,-0.9702,0.1187,-1.3040,-7.5493,-5.7480,1.0311,0.5173,0.5791,
5.793835,-0.4441,-0.9702,0.1187,-1.3040,-7.5493,-5.7480,2.4312,0.5973,1.2920,
5.795839,-0.4441,-0.9702,0.1187,0.8115,-8.6631,-7.1303,2.4312,0.5973,1.2920,
5.849701,-0.5297,-0.9643,-0.1051,0.8115,-8.6631,-7.1303,2.4312,0.5973,1.2920,
5.854897,-0.5297,-0.9643,-0.1051,0.8115,-8.6631,-7.1303,0.8209,-0.1277,1.3848,
5.857371,-0.5297,-0.9643,-0.1051,0.5218,-9.8625,-8.9897,0.8209,-0.1277,1.3848,
5.908902,-0.4012,-0.8338,-0.0557,0.5218,-9.8625,-8.9897,0.8209,-0.1277,1.3848,
5.912221,-0.4012,-0.8338,-0.0557,0.5218,-9.8625,-8.9897,0.0103,-1.0159,0.8894,
5.914302,-0.4012,-0.8338,-0.0557,1.4281,-9.1131,-8.7044,0.0103,-1.0159,0.8894,
5.969417,-0.4395,-0.7845,-0.0020,1.4281,-9.1131,-8.7044,0.0103,-1.0159,0.8894,
5.973018,-0.4395,-0.7845,-0.0020,1.4281,-9.1131,-8.7044,-0.2805,-0.5492,0.4215,
5.975749,-0.4395,-0.7845,-0.0020,0.5782,-8.6926,-8.4628,-0.2805,-0.5492,0.4215,
6.030745,-0.5930,-0.7210,0.0369,0.5782,-8.6926,-8.4628,-0.2805,-0.5492,0.4215,
6.033881,-0.5930,-0.7210,0.0369,0.5782,-8.6926,-8.4628,-0.2444,0.1227,0.2737,
6.036070,-0.5930,-0.7210,0.0369,-1.0074,-7.9756,-8.1395,-0.2444,0.1227,0.2737,
6.090607,-0.5751,-0.7066,0.0125,-1.0074,-7.9756,-8.1395,-0.2444,0.1227,0.2737,
6.094156,-0.5751,-0.7066,0.0125,-1.0074,-7.9756,-8.1395,-0.4051,0.0500,0.1478,
6.096202,-0.5751,-0.7066,0.0125,-0.7324,-7.6941,-8.3354,-0.4051,0.0500,0.1478,
6.148423,-0.5605,-0.7628,0.0643,-0.7324,-7.6941,-8.3354,-0.4051,0.0500,0.1478,
6.151893,-0.5605,-0.7628,0.0643,-0.7324,-7.6941,-8.3354,-0.7007,-0.7569,-0.2279,
6.154247,-0.5605,-0.7628,0.0643,-0.6851,-7.8840,-7.9079,-0.7007,-0.7569,-0.2279,
6.208313,-0.6294,-0.6992,0.0916,-0.6851,-7.8840,-7.9079,-0.7007,-0.7569,-0.2279,
6.212499,-0.6294,-0.6992,0.0916,-0.6851,-7.8840,-7.9079,-0.6635,-0.2518,-0.1649,
6.214803,-0.6294,-0.6992,0.0916,-1.6436,-6.7768,-7.8026,-0.6635,-0.2518,-0.1649,
6.269230,-0.5993,-0.7427,0.0655,-1.6436,-6.7768,-7.8026,-0.6635,-0.2518,-0.1649,
6.272591,-0.5993,-0.7427,0.0655,-1.6436,-6.7768,-7.8026,-0.2847,-0.0392,-0.0128,
6.274883,-0.5993,-0.7427,0.0655,-1.4093,-6.8576,-8.0799,-0.2847,-0.0392,-0.0128,
6.330219,-0.4950,-0.7948,0.0445,-1.4093,-6.8576,-8.0799,-0.2847,-0.0392,-0.0128,
6.333428,-0.4950,-0.7948,0.0445,-1.4093,-6.8576,-8.0799,-0.0948,0.3982,-0.2352,
6.335878,-0.4950,-0.7948,0.0445,-0.3164,-7.2065,-8.2402,-0.0948,0.3982,-0.2352,
6.388330,-0.6450,-0.7972,-0.0081,-0.3164,-7.2065,-8.2402,-0.0948,0.3982,-0.2352,
6.392947,-0.6450,-0.7972,-0.0081,-0.3164,-7.2065,-8.2402,-0.0990,0.6511,-0.6090,
6.395440,-0.6450,-0.7972,-0.0081,-1.4998,-7.0213,-8.5820,-0.0990,0.6511,-0.6090,
6.448412,-0.6494,-0.7918,0.0843,-1.4998,-7.0213,-8.5820,-0.0990,0.6511,-0.6090,
6.453531,-0.6494,-0.7918,0.0843,-1.4998,-7.0213,-8.5820,-0.3061,0.5210,-0.5211,
6.455792,-0.6494,-0.7918,0.0843,-1.2563,-6.6286,-7.4686,-0.3061,0.5210,-0.5211,
6.508930,-0.8356,-0.9037,0.0432,-1.2563,-6.6286,-7.4686,-0.3061,0.5210,-0.5211,
6.512744,-0.8356,-0.9037,0.0432,-1.2563,-6.6286,-7.4686,-0.1009,0.6603,-0.3348,
6.515241,-0.8356,-0.9037,0.0432,-2.7875,-7.4181,-7.6342,-0.1009,0.6603,-0.3348,
6.568963,-0.5812,-0.6865,-0.0865,-2.7875,-7.4181,-7.6342,-0.1009,0.6603,-0.3348,
6.572961,-0.5812,-0.6865,-0.0865,-2.7875,-7.4181,-7.6342,-0.4362,-0.3000,0.1148,
6.575071,-0.5812,-0.6865,-0.0865,-0.1589,-5.1198,-8.7800,-0.4362,-0.3000,0.1148,
6.628821,-0.4876,-0.8991,-0.0723,-0.1589,-5.1198,-8.7800,-0.4362,-0.3000,0.1148,
6.635831,-0.4876,-0.8991,-0.0723,-0.1589,-5.1198,-8.7800,-0.3684,-0.8205,0.1723,
6.638156,-0.4876,-0.8991,-0.0723,0.5117,-6.9819,-8.7607,-0.3684,-0.8205,0.1723,
6.688169,-0.4529,-0.8446,-0.2223,0.5117,-6.9819,-8.7607,-0.3684,-0.8205,0.1723,
6.691214,-0.4529,-0.8446,-0.2223,0.5117,-6.9819,-8.7607,-0.1125,-0.3446,-0.1478,
6.693308,-0.4529,-0.8446,-0.2223,0.5818,-6.2928,-10.3657,-0.1125,-0.3446,-0.1478,
6.747709,-0.5964,-0.7674,-0.2460,0.5818,-6.2928,-10.3657,-0.1125,-0.3446,-0.1478,
6.750377,-0.5964,-0.7674,-0.2460,0.5818,-6.2928,-10.3657,-0.3354,-0.6067,-0.5461,
6.751593,-0.5964,-0.7674,-0.2460,-1.0828,-5.3077,-10.6934,-0.3354,-0.6067,-0.5461,
6.809450,-0.7481,-0.7422,-0.1327,-1.0828,-5.3077,-10.6934,-0.3354,-0.6067,-0.5461,
6.812899,-0.7481,-0.7422,-0.1327,-1.0828,-5.3077,-10.6934,-0.5419,-0.3953,-0.5174,
6.814922,-0.7481,-0.7422,-0.1327,-2.9110,-4.6136,-9.6399,-0.5419,-0.3953,-0.5174,
6.868425,-0.6394,-0.7593,-0.0621,-2.9110,-4.6136,-9.6399,-0.5419,-0.3953,-0.5174,
6.872038,-0.6394,-0.7593,-0.0621,-2.9110,-4.6136,-9.6399,-0.4643,0.5302,0.1203,
6.874100,-0.6394,-0.7593,-0.0621,-1.8571,-4.4041,-8.8244,-0.4643,0.5302,0.1203,
6.929346,-0.5568,-0.7952,-0.0252,-1.8571,-4.4041,-8.8244,-0.4643,0.5302,0.1203,
6.934351,-0.5568,-0.7952,-0.0252,-1.8571,-4.4041,-8.8244,0.0647,0.5747,0.1173,
6.936429,-0.5568,-0.7952,-0.0252,-0.7180,-4.6318,-8.2291,0.0647,0.5747,0.1173,
6.989413,-0.6218,-0.8014,-0.1004,-0.7180,-4.6318,-8.2291,0.0647,0.5747,0.1173,
6.992808,-0.6218,-0.8014,-0.1004,-0.7180,-4.6318,-8.2291,0.2565,0.5369,-0.2584,
6.995375,-0.6218,-0.8014,-0.1004,-1.0269,-4.7231,-8.7751,0.2565,0.5369,-0.2584,
7.047941,-0.6093,-0.7586,-0.1876,-1.0269,-4.7231,-8.7751,0.2565,0.5369,-0.2584,
7.050673,-0.6093,-0.7586,-0.1876,-1.0269,-4.7231,-8.7751,-0.2615,-0.3055,-0.2859,
7.052625,-0.6093,-0.7586,-0.1876,-0.8481,-4.2154,-9.5563,-0.2615,-0.3055,-0.2859,
7.108753,-0.5424,-0.8172,-0.1480,-0.8481,-4.2154,-9.5563,-0.2615,-0.3055,-0.2859,
7.112726,-0.5424,-0.8172,-0.1480,-0.8481,-4.2154,-9.5563,-0.4155,-0.4387,-0.1772,
7.114752,-0.5424,-0.8172,-0.1480,-0.4367,-4.4784,-9.1907,-0.4155,-0.4387,-0.1772,
7.169302,-0.5031,-0.8307,-0.2081,-0.4367,-4.4784,-9.1907,-0.4155,-0.4387,-0.1772,
7.173039,-0.5031,-0.8307,-0.2081,-0.4367,-4.4784,-9.1907,0.0690,-0.0343,-0.2181,
7.175098,-0.5031,-0.8307,-0.2081,-0.1872,-4.4154,-9.7729,0.0690,-0.0343,-0.2181,
7.229491,-0.5524,-0.8045,-0.2663,-0.1872,-4.4154,-9.7729,0.0690,-0.0343,-0.2181,
7.233721,-0.5524,-0.8045,-0.2663,-0.1872,-4.4154,-9.7729,0.1881,0.2663,-0.4594,
7.235890,-0.5524,-0.8045,-0.2663,-0.6700,-4.1071,-10.3168,0.1881,0.2663,-0.4594,
7.288589,-0.5954,-0.8693,-0.1737,-0.6700,-4.1071,-10.3168,0.1881,0.2663,-0.4594,
7.291997,-0.5954,-0.8693,-0.1737,-0.6700,-4.1071,-10.3168,-0.0972,-0.0099,-0.2175,
7.294058,-0.5954,-0.8693,-0.1737,-1.1261,-4.6210,-9.3706,-0.0972,-0.0099,-0.2175,
7.348069,-0.5641,-0.8961,-0.1383,-1.1261,-4.6210,-9.3706,-0.0972,-0.0099,-0.2175,
7.351133,-0.5641,-0.8961,-0.1383,-1.1261,-4.6210,-9.3706,-0.0477,0.1569,-0.0904,
7.353128,-0.5641,-0.8961,-0.1383,-0.7674,-4.7264,-8.9084,-0.0477,0.1569,-0.0904,
7.409137,-0.5685,-0.9396,-0.1246,-0.7674,-4.7264,-8.9084,-0.0477,0.1569,-0.0904,
7.413253,-0.5685,-0.9396,-0.1246,-0.7674,-4.7264,-8.9084,0.3677,0.3206,0.0318,
7.415012,-0.5685,-0.9396,-0.1246,-0.7038,-5.1551,-8.7074,0.3677,0.3206,0.0318,
7.468944,-0.5092,-0.9140,-0.1029,-0.7038,-5.1551,-8.7074,0.3677,0.3206,0.0318,
7.473155,-0.5092,-0.9140,-0.1029,-0.7038,-5.1551,-8.7074,0.5741,0.4856,0.2633,
7.475621,-0.5092,-0.9140,-0.1029,0.0949,-5.1089,-8.4584,0.5741,0.4856,0.2633,
7.528433,-0.4217,-0.8531,-0.0730,0.0949,-5.1089,-8.4584,0.5741,0.4856,0.2633,
7.531726,-0.4217,-0.8531,-0.0730,0.0949,-5.1089,-8.4584,0.6804,0.6719,0.3983,
7.534038,-0.4217,-0.8531,-0.0730,1.2929,-4.8525,-8.0934,0.6804,0.6719,0.3983,
7.588938,-0.4065,-0.9059,-0.0484,1.2929,-4.8525,-8.0934,0.6804,0.6719,0.3983,
7.593057,-0.4065,-0.9059,-0.0484,1.2929,-4.8525,-8.0934,0.7696,0.6719,0.3360,
7.595099,-0.4065,-0.9059,-0.0484,1.8329,-5.7579,-7.7266,0.7696,0.6719,0.3360,
7.650803,-0.4424,-0.8839,-0.1327,1.8329,-5.7579,-7.7266,0.7696,0.6719,0.3360,
7.654470,-0.4424,-0.8839,-0.1327,1.8329,-5.7579,-7.7266,0.8551,0.3530,0.0599,
7.656465,-0.4424,-0.8839,-0.1327,1.7955,-5.9347,-8.4510,0.8551,0.3530,0.0599,
7.708927,-0.4610,-0.8883,-0.1385,1.7955,-5.9347,-8.4510,0.8551,0.3530,0.0599,
7.712867,-0.4610,-0.8883,-0.1385,1.7955,-5.9347,-8.4510,-0.3758,-0.7832,-0.1210,
7.715176,-0.4610,-0.8883,-0.1385,1.5723,-6.0777,-8.5807,-0.3758,-0.7832,-0.1210,
7.769084,-0.3828,-0.8891,0.0193,1.5723,-6.0777,-8.5807,-0.3758,-0.7832,-0.1210,
7.773859,-0.3828,-0.8891,0.0193,1.5723,-6.0777,-8.5807,-0.3073,-0.4955,-0.0641,
7.775832,-0.3828,-0.8891,0.0193,1.9668,-5.7994,-7.2258,-0.3073,-0.4955,-0.0641,
7.828746,-0.3770,-0.9113,-0.0591,1.9668,-5.7994,-7.2258,-0.3073,-0.4955,-0.0641,
7.832075,-0.3770,-0.9113,-0.0591,1.9668,-5.7994,-7.2258,0.3591,0.1178,-0.0916,
7.834300,-0.3770,-0.9113,-0.0591,1.9462,-5.9310,-8.0197,0.3591,0.1178,-0.0916,
7.888646,-0.4424,-0.8575,-0.0491,1.9462,-5.9310,-8.0197,0.3591,0.1178,-0.0916,
7.892525,-0.4424,-0.8575,-0.0491,1.9462,-5.9310,-8.0197,0.4086,0.4269,-0.0593,
7.895176,-0.4424,-0.8575,-0.0491,1.4177,-5.5212,-7.8810,0.4086,0.4269,-0.0593,
7.948053,-0.4642,-0.8651,-0.0217,1.4177,-5.5212,-7.8810,0.4086,0.4269,-0.0593,
7.951767,-0.4642,-0.8651,-0.0217,1.4177,-5.5212,-7.8810,0.2773,0.4880,0.0104,
7.953832,-0.4642,-0.8651,-0.0217,1.4305,-5.6826,-7.4657,0.2773,0.4880,0.0104,
8.010759,-0.4322,-0.8817,-0.0232,1.4305,-5.6826,-7.4657,0.2773,0.4880,0.0104,
8.014893,-0.4322,-0.8817,-0.0232,1.4305,-5.6826,-7.4657,-0.0660,-0.1229,-0.0409,
8.016585,-0.4322,-0.8817,-0.0232,1.8380,-5.8622,-7.4082,-0.0660,-0.1229,-0.0409,
8.069003,-0.4532,-0.8663,-0.0410,1.8380,-5.8622,-7.4082,-0.0660,-0.1229,-0.0409,
8.072638,-0.4532,-0.8663,-0.0410,1.8380,-5.8622,-7.4082,0.0140,-0.0459,-0.0177,
8.074563,-0.4532,-0.8663,-0.0410,1.5820,-5.6239,-7.5908,0.0140,-0.0459,-0.0177,
8.130064,-0.4354,-0.8930,-0.0037,1.5820,-5.6239,-7.5908,0.0140,-0.0459,-0.0177,
8.133970,-0.4354,-0.8930,-0.0037,1.5820,-5.6239,-7.5908,-0.0392,0.1765,0.0751,
8.135821,-0.4354,-0.8930,-0.0037,1.7934,-5.8436,-7.1770,-0.0392,0.1765,0.0751,
8.188509,-0.4117,-0.8847,-0.0457,1.7934,-5.8436,-7.1770,-0.0392,0.1765,0.0751,
8.192181,-0.4117,-0.8847,-0.0457,1.7934,-5.8436,-7.1770,-0.0770,-0.0691,0.0788,
8.194279,-0.4117,-0.8847,-0.0457,2.0814,-5.7311,-7.5283,-0.0770,-0.0691,0.0788,
8.248191,-0.4170,-0.8944,-0.0269,2.0814,-5.7311,-7.5283,-0.0770,-0.0691,0.0788,
8.251422,-0.4170,-0.8944,-0.0269,2.0814,-5.7311,-7.5283,-0.1332,-0.0477,0.1142,
8.253709,-0.4170,-0.8944,-0.0269,2.0115,-5.7539,-7.3281,-0.1332,-0.0477,0.1142,
8.309089,-0.4222,-0.8891,-0.0410,2.0115,-5.7539,-7.3281,-0.1332,-0.0477,0.1142,
8.312417,-0.4222,-0.8891,-0.0410,2.0115,-5.7539,-7.3281,-0.0801,0.0543,0.1374,
8.314679,-0.4222,-0.8891,-0.0410,1.9922,-5.6563,-7.4207,-0.0801,0.0543,0.1374,
8.367868,-0.4124,-0.8768,-0.0547,1.9922,-5.6563,-7.4207,-0.0801,0.0543,0.1374,
8.371457,-0.4124,-0.8768,-0.0547,1.9922,-5.6563,-7.4207,-0.1326,0.0690,0.1289,
8.373498,-0.4124,-0.8768,-0.0547,2.1613,-5.4948,-7.4715,-0.1326,0.0690,0.1289,
8.428387,-0.4246,-0.8646,-0.0491,2.1613,-5.4948,-7.4715,-0.1326,0.0690,0.1289,
8.431729,-0.4246,-0.8646,-0.0491,2.1613,-5.4948,-7.4715,-0.2579,0.0616,0.1655,
8.434241,-0.4246,-0.8646,-0.0491,2.0981,-5.2974,-7.3300,-0.2579,0.0616,0.1655,
8.488065,-0.4358,-0.8649,-0.1046,2.0981,-5.2974,-7.3300,-0.2579,0.0616,0.1655,
8.491358,-0.4358,-0.8649,-0.1046,2.0981,-5.2974,-7.3300,-0.3196,-0.1247,0.1936,
8.493542,-0.4358,-0.8649,-0.1046,2.0233,-5.2144,-7.8006,-0.3196,-0.1247,0.1936,
8.547460,-0.4395,-0.8412,-0.1060,2.0233,-5.2144,-7.8006,-0.3196,-0.1247,0.1936,
8.550504,-0.4395,-0.8412,-0.1060,2.0233,-5.2144,-7.8006,-0.5847,-0.3006,0.2181,
8.551825,-0.4395,-0.8412,-0.1060,1.9483,-4.8346,-7.7784,-0.5847,-0.3006,0.2181,
8.607266,-0.4942,-0.9216,-0.1544,1.9483,-4.8346,-7.7784,-0.5847,-0.3006,0.2181,
8.611563,-0.4942,-0.9216,-0.1544,1.9483,-4.8346,-7.7784,-0.7765,-0.4827,0.1271,
8.614419,-0.4942,-0.9216,-0.1544,1.3251,-5.3813,-8.2062,-0.7765,-0.4827,0.1271,
8.667853,-0.5793,-0.9545,-0.0735,1.3251,-5.3813,-8.2062,-0.7765,-0.4827,0.1271,
8.671453,-0.5793,-0.9545,-0.0735,1.3251,-5.3813,-8.2062,-0.8192,-0.6287,0.0348,
8.672870,-0.5793,-0.9545,-0.0735,0.2623,-5.3494,-7.4181,-0.8192,-0.6287,0.0348,
8.727719,-0.5793,-0.9545,-0.0735,0.2623,-5.3494,-7.4181,-0.1546,-0.2059,0.0226,
8.729947,-0.5275,-0.8285,-0.0950,0.2623,-5.3494,-7.4181,-0.1546,-0.2059,0.0226,
8.731622,-0.5275,-0.8285,-0.0950,0.1258,-5.0921,-7.3788,-0.1546,-0.2059,0.0226,
8.788987,-0.6792,-0.8001,-0.2113,0.1258,-5.0921,-7.3788,-0.1546,-0.2059,0.0226,
8.792285,-0.6792,-0.8001,-0.2113,0.1258,-5.0921,-7.3788,0.2424,-0.5437,-0.3348,
8.794192,-0.6792,-0.8001,-0.2113,-1.0018,-3.5413,-8.8318,0.2424,-0.5437,-0.3348,
8.849844,-0.8568,-0.8321,-0.1510,-1.0018,-3.5413,-8.8318,0.2424,-0.5437,-0.3348,
8.852600,-0.8568,-0.8321,-0.1510,-1.0018,-3.5413,-8.8318,-0.1626,-0.5273,-0.5040,
8.854824,-0.8568,-0.8321,-0.1510,-3.0752,-3.7186,-8.4201,-0.1626,-0.5273,-0.5040,
8.908611,-0.7227,-0.6648,-0.0222,-3.0752,-3.7186,-8.4201,-0.1626,-0.5273,-0.5040,
8.912078,-0.7227,-0.6648,-0.0222,-3.0752,-3.7186,-8.4201,-0.2548,-0.0233,0.0843,
8.914349,-0.7227,-0.6648,-0.0222,-1.9865,-1.8371,-7.1692,-0.2548,-0.0233,0.0843,
8.968304,-0.5644,-0.8211,-0.0708,-1.9865,-1.8371,-7.1692,-0.2548,-0.0233,0.0843,
8.971603,-0.5644,-0.8211,-0.0708,-1.9865,-1.8371,-7.1692,0.3842,0.5473,0.3910,
8.974209,-0.5644,-0.8211,-0.0708,-0.2207,-3.4197,-7.5177,0.3842,0.5473,0.3910,
9.029027,-0.4358,-0.7821,-0.1666,-0.2207,-3.4197,-7.5177,0.3842,0.5473,0.3910,
9.033360,-0.4358,-0.7821,-0.1666,-0.2207,-3.4197,-7.5177,0.6022,0.8930,0.3818,
9.036002,-0.4358,-0.7821,-0.1666,1.4608,-3.3642,-8.3279,0.6022,0.8930,0.3818,
9.088285,-0.6064,-0.8285,-0.1520,1.4608,-3.3642,-8.3279,0.6022,0.8930,0.3818,
9.091370,-0.6064,-0.8285,-0.1520,1.4608,-3.3642,-8.3279,0.4171,0.2082,-0.1161,
9.093130,-0.6064,-0.8285,-0.1520,0.0967,-4.0393,-8.0505,0.4171,0.2082,-0.1161,
9.147726,-0.6477,-0.7347,-0.0887,0.0967,-4.0393,-8.0505,0.4171,0.2082,-0.1161,
9.150964,-0.6477,-0.7347,-0.0887,0.0967,-4.0393,-8.0505,0.1135,0.0598,-0.1332,
9.152715,-0.6477,-0.7347,-0.0887,-0.2836,-3.1403,-7.4207,0.1135,0.0598,-0.1332,
9.207970,-0.6438,-0.7752,-0.1136,-0.2836,-3.1403,-7.4207,0.1135,0.0598,-0.1332,
9.211441,-0.6438,-0.7752,-0.1136,-0.2836,-3.1403,-7.4207,0.1600,-0.2084,0.0183,
9.213159,-0.6438,-0.7752,-0.1136,-0.2410,-3.5139,-7.6461,0.1600,-0.2084,0.0183,
9.269115,-0.5839,-0.8248,-0.1480,-0.2410,-3.5139,-7.6461,0.1600,-0.2084,0.0183,
9.273566,-0.5839,-0.8248,-0.1480,-0.2410,-3.5139,-7.6461,0.1239,-0.1339,0.0806,
9.275283,-0.5839,-0.8248,-0.1480,0.2818,-4.0496,-8.0728,0.1239,-0.1339,0.0806,
9.329420,-0.5742,-0.8065,-0.1449,0.2818,-4.0496,-8.0728,0.1239,-0.1339,0.0806,
9.332845,-0.5742,-0.8065,-0.1449,0.2818,-4.0496,-8.0728,0.1111,-0.1320,0.0409,
9.334860,-0.5742,-0.8065,-0.1449,0.3625,-3.8976,-8.0720,0.1111,-0.1320,0.0409,
9.389749,-0.5815,-0.8016,-0.1090,0.3625,-3.8976,-8.0720,0.1111,-0.1320,0.0409,
9.393109,-0.5815,-0.8016,-0.1090,0.3625,-3.8976,-8.0720,0.0861,0.0549,0.1539,
9.394955,-0.5815,-0.8016,-0.1090,0.3185,-3.8803,-7.7133,0.0861,0.0549,0.1539,
9.449437,-0.5585,-0.8326,-0.0232,0.3185,-3.8803,-7.7133,0.0861,0.0549,0.1539,
9.453381,-0.5585,-0.8326,-0.0232,0.3185,-3.8803,-7.7133,0.2510,0.3884,0.3451,
9.455566,-0.5585,-0.8326,-0.0232,0.6685,-4.2785,-6.8140,0.2510,0.3884,0.3451,
9.509046,-0.5871,-0.8243,-0.1099,0.6685,-4.2785,-6.8140,0.2510,0.3884,0.3451,
9.512626,-0.5871,-0.8243,-0.1099,0.6685,-4.2785,-6.8140,0.7061,0.0537,0.3122,
9.514650,-0.5871,-0.8243,-0.1099,0.5844,-4.4725,-7.6347,0.7061,0.0537,0.3122,
9.569036,-0.6147,-0.8370,-0.0007,0.5844,-4.4725,-7.6347,0.7061,0.0537,0.3122,
9.572162,-0.6147,-0.8370,-0.0007,0.5844,-4.4725,-7.6347,0.1093,-0.1852,0.6084,
9.573981,-0.6147,-0.8370,-0.0007,0.3425,-4.9025,-6.6963,0.1093,-0.1852,0.6084,
9.628129,-0.5206,-0.9687,0.2077,0.3425,-4.9025,-6.6963,0.1093,-0.1852,0.6084,
9.631600,-0.5206,-0.9687,0.2077,0.3425,-4.9025,-6.6963,0.9926,1.4055,1.0568,
9.634257,-0.5206,-0.9687,0.2077,1.6674,-6.5737,-4.4316,0.9926,1.4055,1.0568,
9.688641,-0.5326,-0.7466,0.0076,1.6674,-6.5737,-4.4316,0.9926,1.4055,1.0568,
9.692280,-0.5326,-0.7466,0.0076,1.6674,-6.5737,-4.4316,1.8625,2.0604,0.4746,
9.694791,-0.5326,-0.7466,0.0076,2.3063,-5.3983,-5.9131,1.8625,2.0604,0.4746,
9.747833,-0.7801,-0.6433,-0.0506,2.3063,-5.3983,-5.9131,1.8625,2.0604,0.4746,
9.751826,-0.7801,-0.6433,-0.0506,2.3063,-5.3983,-5.9131,0.3878,-0.4234,-0.2773,
9.754107,-0.7801,-0.6433,-0.0506,0.2599,-4.7920,-6.0988,0.3878,-0.4234,-0.2773,
9.807303,-0.7185,-0.5851,-0.1444,0.2599,-4.7920,-6.0988,0.3878,-0.4234,-0.2773,
9.810440,-0.7185,-0.5851,-0.1444,0.2599,-4.7920,-6.0988,-0.7881,-1.2853,-0.4337,
9.812444,-0.7185,-0.5851,-0.1444,0.5547,-3.9795,-7.3636,-0.7881,-1.2853,-0.4337,
9.869029,-0.5451,-0.7044,0.0645,0.5547,-3.9795,-7.3636,-0.7881,-1.2853,-0.4337,
9.872621,-0.5451,-0.7044,0.0645,0.5547,-3.9795,-7.3636,0.0292,-0.4588,-0.2285,
9.874529,-0.5451,-0.7044,0.0645,1.8556,-4.7186,-5.6606,0.0292,-0.4588,-0.2285,
9.929416,-0.3765,-0.9145,0.0843,1.8556,-4.7186,-5.6606,0.0292,-0.4588,-0.2285,
9.933768,-0.3765,-0.9145,0.0843,1.8556,-4.7186,-5.6606,0.5222,1.5240,-0.3500,
9.936446,-0.3765,-0.9145,0.0843,3.5830,-6.7816,-5.3812,0.5222,1.5240,-0.3500,
9.987560,-0.3782,-0.9543,-0.0269,3.5830,-6.7816,-5.3812,0.5222,1.5240,-0.3500,
9.990689,-0.3782,-0.9543,-0.0269,3.5830,-6.7816,-5.3812,0.1710,0.4984,-0.9352,
9.994283,-0.3782,-0.9543,-0.0269,4.0608,-7.0080,-5.7723,0.1710,0.4984,-0.9352,
10.048897,-0.5116,-0.8786,0.0858,4.0608,-7.0080,-5.7723,0.1710,0.4984,-0.9352,
10.051755,-0.5116,-0.8786,0.0858,4.0608,-7.0080,-5.7723,-0.5468,-0.9591,-1.2999,
10.053673,-0.5116,-0.8786,0.0858,2.4586,-5.6178,-4.7616,-0.5468,-0.9591,-1.2999,
10.108593,-0.5573,-0.8800,0.0254,2.4586,-5.6178,-4.7616,-0.5468,-0.9591,-1.2999,
10.112713,-0.5573,-0.8800,0.0254,2.4586,-5.6178,-4.7616,-0.1925,-0.6030,-1.1173,
10.115152,-0.5573,-0.8800,0.0254,1.4736,-4.9040,-5.6021,-0.1925,-0.6030,-1.1173,
10.169245,-0.4884,-0.8055,-0.0388,1.4736,-4.9040,-5.6021,-0.1925,-0.6030,-1.1173,
10.172717,-0.4884,-0.8055,-0.0388,1.4736,-4.9040,-5.6021,-0.2847,-0.1742,-0.6066,
10.174635,-0.4884,-0.8055,-0.0388,1.7816,-3.7180,-6.3471,-0.2847,-0.1742,-0.6066,
10.229842,-0.4429,-0.8812,-0.0985,1.7816,-3.7180,-6.3471,-0.2847,-0.1742,-0.6066,
10.233865,-0.4429,-0.8812,-0.0985,1.7816,-3.7180,-6.3471,-0.6171,0.4269,-0.1594,
10.236435,-0.4429,-0.8812,-0.0985,2.1460,-4.1194,-6.7693,-0.6171,0.4269,-0.1594,
10.288946,-0.4666,-0.9074,-0.0919,2.1460,-4.1194,-6.7693,-0.6171,0.4269,-0.1594,
10.292719,-0.4666,-0.9074,-0.0919,2.1460,-4.1194,-6.7693,-0.6207,0.6071,-0.0116,
10.294823,-0.4666,-0.9074,-0.0919,2.0738,-4.0859,-6.2750,-0.6207,0.6071,-0.0116,
10.348365,-0.4346,-0.8202,-0.0547,2.0738,-4.0859,-6.2750,-0.6207,0.6071,-0.0116,
10.352044,-0.4346,-0.8202,-0.0547,2.0738,-4.0859,-6.2750,-0.6775,1.0592,-0.1069,
10.354199,-0.4346,-0.8202,-0.0547,2.6286,-2.9855,-5.3532,-0.6775,1.0592,-0.1069,
10.411704,-0.4871,-0.9387,-0.1805,2.6286,-2.9855,-5.3532,-0.6775,1.0592,-0.1069,
10.415267,-0.4871,-0.9387,-0.1805,2.6286,-2.9855,-5.3532,-0.8754,0.2217,-0.1210,
10.417311,-0.4871,-0.9387,-0.1805,2.3099,-3.8495,-5.9374,-0.8754,0.2217,-0.1210,
10.469512,-0.4525,-0.8800,-0.0941,2.3099,-3.8495,-5.9374,-0.8754,0.2217,-0.1210,
10.472876,-0.4525,-0.8800,-0.0941,2.3099,-3.8495,-5.9374,-0.7582,-0.9219,0.1472,
10.475094,-0.4525,-0.8800,-0.0941,2.4776,-3.0319,-5.0600,-0.7582,-0.9219,0.1472,
10.528799,-0.5084,-0.8712,-0.1390,2.4776,-3.0319,-5.0600,-0.7582,-0.9219,0.1472,
10.533107,-0.5084,-0.8712,-0.1390,2.4776,-3.0319,-5.0600,0.1239,0.0146,0.0861,
10.535333,-0.5084,-0.8712,-0.1390,1.8626,-2.8571,-5.4902,0.1239,0.0146,0.0861,
10.588633,-0.5905,-0.8233,-0.2587,1.8626,-2.8571,-5.4902,0.1239,0.0146,0.0861,
10.592986,-0.5905,-0.8233,-0.2587,1.8626,-2.8571,-5.4902,0.6059,0.1740,0.0745,
10.595245,-0.5905,-0.8233,-0.2587,1.1143,-2.5033,-6.7268,0.6059,0.1740,0.0745,
10.649812,-0.7009,-0.9025,-0.2714,1.1143,-2.5033,-6.7268,0.6059,0.1740,0.0745,
10.653448,-0.7009,-0.9025,-0.2714,1.1143,-2.5033,-6.7268,0.2400,-0.1436,0.1723,
10.659366,-0.7009,-0.9025,-0.2714,0.0697,-3.4112,-6.9612,0.2400,-0.1436,0.1723,
10.707679,-0.5302,-0.8329,-0.2560,0.0697,-3.4112,-6.9612,0.2400,-0.1436,0.1723,
10.711531,-0.5302,-0.8329,-0.2560,0.0697,-3.4112,-6.9612,-0.2927,-0.1968,0.3195,
10.713702,-0.5302,-0.8329,-0.2560,1.7902,-2.8129,-6.8396,-0.2927,-0.1968,0.3195,
10.769053,-0.4463,-0.8346,-0.2077,1.7902,-2.8129,-6.8396,-0.2927,-0.1968,0.3195,
10.772390,-0.4463,-0.8346,-0.2077,1.7902,-2.8129,-6.8396,-0.3269,-0.1583,0.3360,
10.774404,-0.4463,-0.8346,-0.2077,2.6616,-2.8533,-6.3137,-0.3269,-0.1583,0.3360,
10.828894,-0.4324,-0.8617,-0.2006,2.6616,-2.8533,-6.3137,-0.3269,-0.1583,0.3360,
10.832988,-0.4324,-0.8617,-0.2006,2.6616,-2.8533,-6.3137,-0.0373,0.0042,0.1442,
10.835396,-0.4324,-0.8617,-0.2006,2.8643,-3.1573,-6.1817,-0.0373,0.0042,0.1442,
10.889644,-0.5153,-0.8336,-0.1945,2.8643,-3.1573,-6.1817,-0.0373,0.0042,0.1442,
10.893527,-0.5153,-0.8336,-0.1945,2.8643,-3.1573,-6.1817,0.0720,-0.0117,-0.0348,
10.895650,-0.5153,-0.8336,-0.1945,2.0852,-2.8807,-6.0645,0.0720,-0.0117,-0.0348,
10.949635,-0.5439,-0.7987,-0.1942,2.0852,-2.8807,-6.0645,0.0720,-0.0117,-0.0348,
10.953818,-0.5439,-0.7987,-0.1942,2.0852,-2.8807,-6.0645,0.0506,0.0091,0.0018,
10.955554,-0.5439,-0.7987,-0.1942,1.7817,-2.5136,-6.0705,0.0506,0.0091,0.0018,
11.009833,-0.5324,-0.8378,-0.2062,1.7817,-2.5136,-6.0705,0.0506,0.0091,0.0018,
11.013822,-0.5324,-0.8378,-0.2062,1.7817,-2.5136,-6.0705,0.0097,-0.0361,0.0562,
11.015698,-0.5324,-0.8378,-0.2062,1.8944,-2.8908,-6.1801,0.0097,-0.0361,0.0562,
11.069284,-0.5084,-0.8175,-0.2074,1.8944,-2.8908,-6.1801,0.0097,-0.0361,0.0562,
11.072643,-0.5084,-0.8175,-0.2074,1.8944,-2.8908,-6.1801,0.0415,0.0146,-0.0202,
11.074616,-0.5084,-0.8175,-0.2074,2.1383,-2.6870,-6.1696,0.0415,0.0146,-0.0202,
11.129323,-0.5763,-0.8099,-0.2064,2.1383,-2.6870,-6.1696,0.0415,0.0146,-0.0202,
11.132887,-0.5763,-0.8099,-0.2064,2.1383,-2.6870,-6.1696,0.0720,0.0030,-0.1252,
11.135272,-0.5763,-0.8099,-0.2064,1.4477,-2.5742,-6.1532,0.0720,0.0030,-0.1252,
11.188731,-0.5768,-0.8048,-0.2081,1.4477,-2.5742,-6.1532,0.0720,0.0030,-0.1252,
11.193556,-0.5768,-0.8048,-0.2081,1.4477,-2.5742,-6.1532,-0.0172,-0.0599,-0.0996,
11.195586,-0.5768,-0.8048,-0.2081,1.3997,-2.4609,-6.1616,-0.0172,-0.0599,-0.0996,
11.248836,-0.5407,-0.8050,-0.1859,1.3997,-2.4609,-6.1616,-0.0172,-0.0599,-0.0996,
11.252979,-0.5407,-0.8050,-0.1859,1.3997,-2.4609,-6.1616,-0.0948,-0.0728,-0.0800,
11.256140,-0.5407,-0.8050,-0.1859,1.7145,-2.3884,-5.9119,-0.0948,-0.0728,-0.0800,
11.310118,-0.5534,-0.8058,-0.1906,1.7145,-2.3884,-5.9119,-0.0948,-0.0728,-0.0800,
11.314241,-0.5534,-0.8058,-0.1906,1.7145,-2.3884,-5.9119,-0.0343,-0.1045,-0.1851,
11.316144,-0.5534,-0.8058,-0.1906,1.5299,-2.3071,-5.9399,-0.0343,-0.1045,-0.1851,
11.368307,-0.5815,-0.8414,-0.1930,1.5299,-2.3071,-5.9399,-0.0343,-0.1045,-0.1851,
11.371355,-0.5815,-0.8414,-0.1930,1.5299,-2.3071,-5.9399,-0.1424,-0.2536,-0.2089,
11.373026,-0.5815,-0.8414,-0.1930,1.1376,-2.5265,-5.9812,-0.1424,-0.2536,-0.2089,
11.428763,-0.5385,-0.8321,-0.2045,1.1376,-2.5265,-5.9812,-0.1424,-0.2536,-0.2089,
11.432168,-0.5385,-0.8321,-0.2045,1.1376,-2.5265,-5.9812,-0.1919,-0.3782,-0.2443,
11.434333,-0.5385,-0.8321,-0.2045,1.4202,-2.2827,-6.1067,-0.1919,-0.3782,-0.2443,
11.487703,-0.5363,-0.8275,-0.1918,1.4202,-2.2827,-6.1067,-0.1919,-0.3782,-0.2443,
11.491410,-0.5363,-0.8275,-0.1918,1.4202,-2.2827,-6.1067,-0.1754,-0.4381,-0.2737,
11.493905,-0.5363,-0.8275,-0.1918,1.2263,-2.0616,-6.0721,-0.1754,-0.4381,-0.2737,
11.549038,-0.5556,-0.8182,-0.2003,1.2263,-2.0616,-6.0721,-0.1754,-0.4381,-0.2737,
11.552805,-0.5556,-0.8182,-0.2003,1.2263,-2.0616,-6.0721,-0.0801,-0.4851,-0.3030,
11.554743,-0.5556,-0.8182,-0.2003,0.8285,-1.7962,-6.2177,-0.0801,-0.4851,-0.3030,
11.607540,-0.5903,-0.8402,-0.1695,0.8285,-1.7962,-6.2177,-0.0801,-0.4851,-0.3030,
11.610924,-0.5903,-0.8402,-0.1695,0.8285,-1.7962,-6.2177,0.0628,-0.2713,-0.1784,
11.613142,-0.5903,-0.8402,-0.1695,0.2784,-1.8850,-6.0320,0.0628,-0.2713,-0.1784,
11.669122,-0.5553,-0.8871,-0.1046,0.2784,-1.8850,-6.0320,0.0628,-0.2713,-0.1784,
11.672283,-0.5553,-0.8871,-0.1046,0.2784,-1.8850,-6.0320,0.2718,-0.1644,0.2370,
11.674065,-0.5553,-0.8871,-0.1046,0.5637,-2.3569,-5.4905,0.2718,-0.1644,0.2370,
11.729870,-0.4957,-1.0281,0.3660,0.5637,-2.3569,-5.4905,0.2718,-0.1644,0.2370,
11.733025,-0.4957,-1.0281,0.3660,0.5637,-2.3569,-5.4905,0.7690,0.4752,0.8430,
11.735177,-0.4957,-1.0281,0.3660,1.3075,-4.0041,-1.0289,0.7690,0.4752,0.8430,
11.789027,-0.4476,-0.9279,-0.0139,1.3075,-4.0041,-1.0289,0.7690,0.4752,0.8430,
11.792485,-0.4476,-0.9279,-0.0139,1.3075,-4.0041,-1.0289,2.4257,0.1997,1.2077,
11.794649,-0.4476,-0.9279,-0.0139,2.3271,-3.8942,-5.0425,2.4257,0.1997,1.2077,
11.847997,-0.5202,-1.0102,-0.0643,2.3271,-3.8942,-5.0425,2.4257,0.1997,1.2077,
11.851364,-0.5202,-1.0102,-0.0643,2.3271,-3.8942,-5.0425,0.5008,-1.0624,1.4129,
11.853611,-0.5202,-1.0102,-0.0643,2.0006,-5.6183,-5.8690,0.5008,-1.0624,1.4129,
11.909809,-0.4688,-0.9391,-0.0244,2.0006,-5.6183,-5.8690,0.5008,-1.0624,1.4129,
11.915003,-0.4688,-0.9391,-0.0244,2.0006,-5.6183,-5.8690,0.1557,0.0299,1.2749,
11.917416,-0.4688,-0.9391,-0.0244,2.5988,-5.5497,-5.8139,0.1557,0.0299,1.2749,
11.969726,-0.4698,-0.7838,-0.0369,2.5988,-5.5497,-5.8139,0.1557,0.0299,1.2749,
11.973585,-0.4698,-0.7838,-0.0369,2.5988,-5.5497,-5.8139,0.5204,0.1172,0.6628,
11.975749,-0.4698,-0.7838,-0.0369,2.8223,-4.5731,-5.9616,0.5204,0.1172,0.6628,
12.028863,-0.5795,-0.7322,-0.0354,2.8223,-4.5731,-5.9616,0.5204,0.1172,0.6628,
12.032346,-0.5795,-0.7322,-0.0354,2.8223,-4.5731,-5.9616,-0.5120,0.3982,0.3366,
12.034526,-0.5795,-0.7322,-0.0354,1.9693,-4.2899,-5.7639,-0.5120,0.3982,0.3366,
12.088571,-0.6035,-0.5839,-0.0235,1.9693,-4.2899,-5.7639,-0.5120,0.3982,0.3366,
12.091835,-0.6035,-0.5839,-0.0235,1.9693,-4.2899,-5.7639,-0.4784,-0.3116,0.0055,
12.093909,-0.6035,-0.5839,-0.0235,1.7924,-2.7234,-5.5013,-0.4784,-0.3116,0.0055,
12.149055,-0.5654,-0.7014,0.0545,1.7924,-2.7234,-5.5013,-0.4784,-0.3116,0.0055,
12.154002,-0.5654,-0.7014,0.0545,1.7924,-2.7234,-5.5013,-0.7075,-0.6959,-0.2547,
12.156031,-0.5654,-0.7014,0.0545,1.9748,-3.5807,-4.8369,-0.7075,-0.6959,-0.2547,
12.209313,-0.6890,-0.6951,0.0535,1.9748,-3.5807,-4.8369,-0.7075,-0.6959,-0.2547,
12.214034,-0.6890,-0.6951,0.0535,1.9748,-3.5807,-4.8369,-0.5517,-0.2646,-0.4062,
12.216408,-0.6890,-0.6951,0.0535,0.5497,-3.1397,-4.8953,-0.5517,-0.2646,-0.4062,
12.269266,-0.6765,-0.7005,0.0645,0.5497,-3.1397,-4.8953,-0.5517,-0.2646,-0.4062,
12.274279,-0.6765,-0.7005,0.0645,0.5497,-3.1397,-4.8953,-0.2792,-0.2408,-0.2633,
12.276225,-0.6765,-0.7005,0.0645,0.5154,-2.8689,-4.7671,-0.2792,-0.2408,-0.2633,
12.329670,-0.5617,-0.7361,0.0584,0.5154,-2.8689,-4.7671,-0.2792,-0.2408,-0.2633,
12.333783,-0.5617,-0.7361,0.0584,0.5154,-2.8689,-4.7671,-0.1766,0.1490,-0.2474,
12.336075,-0.5617,-0.7361,0.0584,1.5383,-3.0197,-4.8108,-0.1766,0.1490,-0.2474,
12.388988,-0.7156,-0.7987,-0.0286,1.5383,-3.0197,-4.8108,-0.1766,0.1490,-0.2474,
12.392404,-0.7156,-0.7987,-0.0286,1.5383,-3.0197,-4.8108,-0.0935,0.4752,-0.4985,
12.394377,-0.7156,-0.7987,-0.0286,0.0523,-3.4042,-5.4465,-0.0935,0.4752,-0.4985,
12.448912,-0.7855,-0.8534,0.1212,0.0523,-3.4042,-5.4465,-0.0935,0.4752,-0.4985,
12.452605,-0.7855,-0.8534,0.1212,0.0523,-3.4042,-5.4465,-0.1320,0.6493,-0.3030,
12.454893,-0.7855,-0.8534,0.1212,-0.6178,-3.6904,-3.7329,-0.1320,0.6493,-0.3030,
12.507817,-0.6174,-0.7312,-0.1248,-0.6178,-3.6904,-3.7329,-0.1320,0.6493,-0.3030,
12.511386,-0.6174,-0.7312,-0.1248,-0.6178,-3.6904,-3.7329,-0.2420,-0.2102,0.0257,
12.513069,-0.6174,-0.7312,-0.1248,1.1252,-2.3920,-5.9019,-0.2420,-0.2102,0.0257,
12.567761,-0.4766,-0.8671,-0.0713,1.1252,-2.3920,-5.9019,-0.2420,-0.2102,0.0257,
12.570493,-0.4766,-0.8671,-0.0713,1.1252,-2.3920,-5.9019,-0.6470,-0.8296,0.0531,
12.571581,-0.4766,-0.8671,-0.0713,2.3662,-3.5900,-5.4494,-0.6470,-0.8296,0.0531,
12.629507,-0.4566,-0.8991,-0.1077,2.3662,-3.5900,-5.4494,-0.6470,-0.8296,0.0531,
12.632656,-0.4566,-0.8991,-0.1077,2.3662,-3.5900,-5.4494,-0.4252,-0.2664,-0.0275,
12.634854,-0.4566,-0.8991,-0.1077,2.4002,-3.7299,-5.8609,-0.4252,-0.2664,-0.0275,
12.688305,-0.4493,-0.8221,-0.1625,2.4002,-3.7299,-5.8609,-0.4252,-0.2664,-0.0275,
12.691935,-0.4493,-0.8221,-0.1625,2.4002,-3.7299,-5.8609,-0.1345,0.1685,-0.2382,
12.694083,-0.4493,-0.8221,-0.1625,2.4158,-2.8071,-6.2948,-0.1345,0.1685,-0.2382,
12.750653,-0.6250,-0.8128,-0.2106,2.4158,-2.8071,-6.2948,-0.1345,0.1685,-0.2382,
12.754317,-0.6250,-0.8128,-0.2106,2.4158,-2.8071,-6.2948,0.0543,-0.0025,-0.5809,
12.756982,-0.6250,-0.8128,-0.2106,0.6301,-2.5416,-6.6596,0.0543,-0.0025,-0.5809,
12.810104,-0.7640,-0.7173,-0.2221,0.6301,-2.5416,-6.6596,0.0543,-0.0025,-0.5809,
12.814888,-0.7640,-0.7173,-0.2221,0.6301,-2.5416,-6.6596,-0.5273,-0.8638,-0.6610,
12.816922,-0.7640,-0.7173,-0.2221,-1.0603,-1.2764,-6.8420,-0.5273,-0.8638,-0.6610,
12.868683,-0.7171,-0.7715,-0.0584,-1.0603,-1.2764,-6.8420,-0.5273,-0.8638,-0.6610,
12.871045,-0.7171,-0.7715,-0.0584,-1.0603,-1.2764,-6.8420,-0.9756,-0.3861,-0.0593,
12.872477,-0.7171,-0.7715,-0.0584,-0.9688,-1.3956,-5.2036,-0.9756,-0.3861,-0.0593,
12.927959,-0.5414,-0.8055,-0.0327,-0.9688,-1.3956,-5.2036,-0.9756,-0.3861,-0.0593,
12.930731,-0.5414,-0.8055,-0.0327,-0.9688,-1.3956,-5.2036,-0.1455,0.1844,0.2883,
12.933304,-0.5414,-0.8055,-0.0327,0.7871,-1.5920,-4.7176,-0.1455,0.1844,0.2883,
12.987842,-0.4566,-0.8299,-0.1837,0.7871,-1.5920,-4.7176,-0.1455,0.1844,0.2883,
12.990528,-0.4566,-0.8299,-0.1837,0.7871,-1.5920,-4.7176,0.5234,0.9254,0.1069,
12.991745,-0.4566,-0.8299,-0.1837,1.8699,-1.9715,-6.0369,0.5234,0.9254,0.1069,
13.048633,-0.6318,-0.8439,-0.2265,1.8699,-1.9715,-6.0369,0.5234,0.9254,0.1069,
13.051895,-0.6318,-0.8439,-0.2265,1.8699,-1.9715,-6.0369,-0.3776,-0.4204,-0.5015,
13.053618,-0.6318,-0.8439,-0.2265,0.2117,-2.0858,-6.3333,-0.3776,-0.4204,-0.5015,
13.108736,-0.6289,-0.7515,-0.1026,0.2117,-2.0858,-6.3333,-0.3776,-0.4204,-0.5015,
13.113248,-0.6289,-0.7515,-0.1026,0.2117,-2.0858,-6.3333,-0.5492,-0.2371,-0.4099,
13.115069,-0.6289,-0.7515,-0.1026,-0.0564,-0.8261,-5.0212,-0.5492,-0.2371,-0.4099,
13.168889,-0.5561,-0.8197,-0.1156,-0.0564,-0.8261,-5.0212,-0.5492,-0.2371,-0.4099,
13.172276,-0.5561,-0.8197,-0.1156,-0.0564,-0.8261,-5.0212,0.1239,0.0347,-0.0629,
13.173903,-0.5561,-0.8197,-0.1156,0.5257,-1.3271,-5.0694,0.1239,0.0347,-0.0629,
13.228831,-0.5138,-0.8316,-0.2602,0.5257,-1.3271,-5.0694,0.1239,0.0347,-0.0629,
13.231708,-0.5138,-0.8316,-0.2602,0.5257,-1.3271,-5.0694,0.4220,0.2919,-0.2107,
13.233604,-0.5138,-0.8316,-0.2602,0.9455,-1.4738,-6.5281,0.4220,0.2919,-0.2107,
13.288939,-0.5693,-0.8905,-0.2311,0.9455,-1.4738,-6.5281,0.4220,0.2919,-0.2107,
13.292702,-0.5693,-0.8905,-0.2311,0.9455,-1.4738,-6.5281,-0.1271,-0.2982,-0.2651,
13.294997,-0.5693,-0.8905,-0.2311,0.3046,-2.0015,-6.3048,-0.1271,-0.2982,-0.2651,
13.348908,-0.5231,-0.8236,-0.1566,0.3046,-2.0015,-6.3048,-0.1271,-0.2982,-0.2651,
13.352225,-0.5231,-0.8236,-0.1566,0.3046,-2.0015,-6.3048,0.0421,0.2840,-0.3494,
13.354478,-0.5231,-0.8236,-0.1566,0.6403,-1.1743,-5.4526,0.0421,0.2840,-0.3494,
13.407664,-0.6274,-0.9084,-0.1415,0.6403,-1.1743,-5.4526,0.0421,0.2840,-0.3494,
13.411409,-0.6274,-0.9084,-0.1415,0.6403,-1.1743,-5.4526,0.4153,0.3267,-0.3348,
13.413420,-0.6274,-0.9084,-0.1415,-0.4640,-1.9228,-5.2780,0.4153,0.3267,-0.3348,
13.468927,-0.5314,-0.8925,-0.1309,-0.4640,-1.9228,-5.2780,0.4153,0.3267,-0.3348,
13.472009,-0.5314,-0.8925,-0.1309,-0.4640,-1.9228,-5.2780,0.3518,0.4520,-0.0031,
13.473787,-0.5314,-0.8925,-0.1309,0.4929,-1.7860,-5.1856,0.3518,0.4520,-0.0031,
13.529404,-0.4266,-0.9194,-0.1200,0.4929,-1.7860,-5.1856,0.3518,0.4520,-0.0031,
13.532368,-0.4266,-0.9194,-0.1200,0.4929,-1.7860,-5.1856,0.4098,0.5466,0.3738,
13.534579,-0.4266,-0.9194,-0.1200,1.6987,-2.1744,-5.0339,0.4098,0.5466,0.3738,
13.589733,-0.3244,-0.8874,-0.1258,1.6987,-2.1744,-5.0339,0.4098,0.5466,0.3738,
13.593963,-0.3244,-0.8874,-0.1258,1.6987,-2.1744,-5.0339,0.5088,0.6279,0.2767,
13.595944,-0.3244,-0.8874,-0.1258,2.9798,-2.0749,-5.0269,0.5088,0.6279,0.2767,
13.648804,-0.3467,-0.9145,-0.0926,2.9798,-2.0749,-5.0269,0.5088,0.6279,0.2767,
13.652252,-0.3467,-0.9145,-0.0926,2.9798,-2.0749,-5.0269,0.5271,0.3481,0.0641,
13.654836,-0.3467,-0.9145,-0.0926,2.9421,-2.5004,-4.6799,0.5271,0.3481,0.0641,
13.709590,-0.3836,-0.8619,-0.0484,2.9421,-2.5004,-4.6799,0.5271,0.3481,0.0641,
13.713727,-0.3836,-0.8619,-0.0484,2.9421,-2.5004,-4.6799,0.5283,0.2595,-0.0214,
13.716424,-0.3836,-0.8619,-0.0484,2.6472,-2.0887,-4.3087,0.5283,0.2595,-0.0214,
13.768398,-0.4236,-0.9128,-0.0743,2.6472,-2.0887,-4.3087,0.5283,0.2595,-0.0214,
13.772242,-0.4236,-0.9128,-0.0743,2.6472,-2.0887,-4.3087,0.3744,0.0317,0.0415,
13.774567,-0.4236,-0.9128,-0.0743,2.2889,-2.6718,-4.6442,0.3744,0.0317,0.0415,
13.827024,-0.3860,-0.8724,-0.0804,2.2889,-2.6718,-4.6442,0.3744,0.0317,0.0415,
13.830396,-0.3860,-0.8724,-0.0804,2.2889,-2.6718,-4.6442,0.1844,-0.0941,-0.0067,
13.832162,-0.3860,-0.8724,-0.0804,2.6558,-2.3337,-4.7966,0.1844,-0.0941,-0.0067,
13.890174,-0.4073,-0.8900,-0.0599,2.6558,-2.3337,-4.7966,0.1844,-0.0941,-0.0067,
13.894904,-0.4073,-0.8900,-0.0599,2.6558,-2.3337,-4.7966,0.0848,0.0109,0.0336,
13.896724,-0.4073,-0.8900,-0.0599,2.4174,-2.5163,-4.6592,0.0848,0.0109,0.0336,
13.949460,-0.3972,-0.9096,-0.0283,2.4174,-2.5163,-4.6592,0.0848,0.0109,0.0336,
13.953840,-0.3972,-0.9096,-0.0283,2.4174,-2.5163,-4.6592,0.0457,0.0494,0.0458,
13.955960,-0.3972,-0.9096,-0.0283,2.5394,-2.7164,-4.3256,0.0457,0.0494,0.0458,
14.009337,-0.3418,-0.8844,-0.0308,2.5394,-2.7164,-4.3256,0.0457,0.0494,0.0458,
14.013342,-0.3418,-0.8844,-0.0308,2.5394,-2.7164,-4.3256,0.0024,-0.0569,0.0415,
14.015714,-0.3418,-0.8844,-0.0308,3.0956,-2.4738,-4.3354,0.0024,-0.0569,0.0415,
14.069996,-0.4205,-0.9382,-0.0645,3.0956,-2.4738,-4.3354,0.0024,-0.0569,0.0415,
14.073708,-0.4205,-0.9382,-0.0645,3.0956,-2.4738,-4.3354,-0.0318,-0.0929,0.0568,
14.075148,-0.4205,-0.9382,-0.0645,2.3077,-2.9879,-4.6735,-0.0318,-0.0929,0.0568,
14.128285,-0.3775,-0.9067,-0.0252,2.3077,-2.9879,-4.6735,-0.0318,-0.0929,0.0568,
14.134044,-0.3775,-0.9067,-0.0252,2.3077,-2.9879,-4.6735,-0.0496,0.0824,0.1057,
14.136927,-0.3775,-0.9067,-0.0252,2.7442,-2.6719,-4.2529,-0.0496,0.0824,0.1057,
14.187860,-0.4104,-0.9145,-0.0655,2.7442,-2.6719,-4.2529,-0.0496,0.0824,0.1057,
14.191653,-0.4104,-0.9145,-0.0655,2.7442,-2.6719,-4.2529,-0.0343,0.0195,0.0965,
14.192960,-0.4104,-0.9145,-0.0655,2.4688,-2.7597,-4.5876,-0.0343,0.0195,0.0965,
14.249122,-0.3479,-0.8441,-0.0486,2.4688,-2.7597,-4.5876,-0.0343,0.0195,0.0965,
14.252706,-0.3479,-0.8441,-0.0486,2.4688,-2.7597,-4.5876,-0.1717,0.0323,0.1326,
14.255040,-0.3479,-0.8441,-0.0486,3.1112,-2.0594,-4.3562,-0.1717,0.0323,0.1326,
14.308083,-0.4669,-0.9738,-0.1002,3.1112,-2.0594,-4.3562,-0.1717,0.0323,0.1326,
14.312525,-0.4669,-0.9738,-0.1002,3.1112,-2.0594,-4.3562,-0.2511,-0.1271,0.0983,
14.314419,-0.4669,-0.9738,-0.1002,1.9751,-3.3162,-4.7872,-0.2511,-0.1271,0.0983,
14.367500,-0.3125,-0.7391,-0.0965,1.9751,-3.3162,-4.7872,-0.2511,-0.1271,0.0983,
14.370369,-0.3125,-0.7391,-0.0965,1.9751,-3.3162,-4.7872,-0.4179,-0.0190,0.1368,
14.372622,-0.3125,-0.7391,-0.0965,3.5001,-0.9544,-4.6286,-0.4179,-0.0190,0.1368,
14.429861,-0.4759,-0.9113,-0.1461,3.5001,-0.9544,-4.6286,-0.4179,-0.0190,0.1368,
14.433914,-0.4759,-0.9113,-0.1461,3.5001,-0.9544,-4.6286,-0.5926,-0.4649,0.0464,
14.436040,-0.4759,-0.9113,-0.1461,1.9024,-2.5669,-4.9751,-0.5926,-0.4649,0.0464,
14.488911,-0.4823,-0.9352,-0.1652,1.9024,-2.5669,-4.9751,-0.5926,-0.4649,0.0464,
14.492365,-0.4823,-0.9352,-0.1652,1.9024,-2.5669,-4.9751,-0.9200,-0.3244,0.0996,
14.494232,-0.4823,-0.9352,-0.1652,1.7735,-2.6514,-5.0087,-0.9200,-0.3244,0.0996,
14.547554,-0.4539,-0.8182,-0.1446,1.7735,-2.6514,-5.0087,-0.9200,-0.3244,0.0996,
14.550596,-0.4539,-0.8182,-0.1446,1.7735,-2.6514,-5.0087,-0.8260,-0.5413,0.0104,
14.552440,-0.4539,-0.8182,-0.1446,1.9625,-1.3155,-4.6018,-0.8260,-0.5413,0.0104,
14.610599,-0.6438,-0.9453,-0.0972,1.9625,-1.3155,-4.6018,-0.8260,-0.5413,0.0104,
14.614605,-0.6438,-0.9453,-0.0972,1.9625,-1.3155,-4.6018,-0.4197,-0.3880,-0.0819,
14.616902,-0.6438,-0.9453,-0.0972,-0.0130,-2.3871,-3.9937,-0.4197,-0.3880,-0.0819,
14.667622,-0.6587,-0.8092,-0.1945,-0.0130,-2.3871,-3.9937,-0.4197,-0.3880,-0.0819,
14.672099,-0.6587,-0.8092,-0.1945,-0.0130,-2.3871,-3.9937,0.0824,-0.1143,-0.1429,
14.674527,-0.6587,-0.8092,-0.1945,-0.2099,-0.9887,-4.9036,0.0824,-0.1143,-0.1429,
14.728487,-0.8026,-0.8390,-0.1932,-0.2099,-0.9887,-4.9036,0.0824,-0.1143,-0.1429,
14.732371,-0.8026,-0.8390,-0.1932,-0.2099,-0.9887,-4.9036,-0.0172,-0.6006,-0.1845,
14.734848,-0.8026,-0.8390,-0.1932,-1.7903,-1.2096,-5.0706,-0.0172,-0.6006,-0.1845,
14.789109,-0.6174,-0.6406,-0.1639,-1.7903,-1.2096,-5.0706,-0.0172,-0.6006,-0.1845,
14.792849,-0.6174,-0.6406,-0.1639,-1.7903,-1.2096,-5.0706,-0.2151,-0.3519,0.2615,
14.795231,-0.6174,-0.6406,-0.1639,-0.0525,0.7698,-4.8507,-0.2151,-0.3519,0.2615,
14.847430,-0.5763,-0.8605,-0.1336,-0.0525,0.7698,-4.8507,-0.2151,-0.3519,0.2615,
14.850652,-0.5763,-0.8605,-0.1336,-0.0525,0.7698,-4.8507,0.0793,-0.2340,0.5315,
14.852786,-0.5763,-0.8605,-0.1336,0.4527,-1.5035,-4.6166,0.0793,-0.2340,0.5315,
14.908321,-0.4510,-0.8441,-0.1361,0.4527,-1.5035,-4.6166,0.0793,-0.2340,0.5315,
14.911226,-0.4510,-0.8441,-0.1361,0.4527,-1.5035,-4.6166,0.3438,0.5540,0.4539,
14.913058,-0.4510,-0.8441,-0.1361,1.9400,-1.5724,-4.6253,0.3438,0.5540,0.4539,
14.969779,-0.5602,-0.7933,-0.1246,1.9400,-1.5724,-4.6253,0.3438,0.5540,0.4539,
14.972740,-0.5602,-0.7933,-0.1246,1.9400,-1.5724,-4.6253,0.6762,0.3982,-0.1600,
14.975256,-0.5602,-0.7933,-0.1246,1.0386,-1.2261,-4.4869,0.6762,0.3982,-0.1600,
15.028627,-0.6802,-0.7486,-0.1200,1.0386,-1.2261,-4.4869,0.6762,0.3982,-0.1600,
15.032454,-0.6802,-0.7486,-0.1200,1.0386,-1.2261,-4.4869,0.4575,0.2602,-0.3201,
15.034403,-0.6802,-0.7486,-0.1200,-0.1782,-0.7875,-4.5219,0.4575,0.2602,-0.3201,
15.090273,-0.6589,-0.7557,-0.1229,-0.1782,-0.7875,-4.5219,0.4575,0.2602,-0.3201,
15.092879,-0.6589,-0.7557,-0.1229,-0.1782,-0.7875,-4.5219,0.1044,-0.0618,-0.0483,
15.094167,-0.6589,-0.7557,-0.1229,-0.0198,-0.8307,-4.5952,0.1044,-0.0618,-0.0483,
15.149398,-0.6269,-0.8060,-0.1361,-0.0198,-0.8307,-4.5952,0.1044,-0.0618,-0.0483,
15.152745,-0.6269,-0.8060,-0.1361,-0.0198,-0.8307,-4.5952,0.1142,-0.3385,0.0250,
15.155466,-0.6269,-0.8060,-0.1361,0.2578,-1.3294,-4.8024,0.1142,-0.3385,0.0250,
15.207659,-0.5754,-0.8338,-0.1295,0.2578,-1.3294,-4.8024,0.1142,-0.3385,0.0250,
15.210780,-0.5754,-0.8338,-0.1295,0.2578,-1.3294,-4.8024,0.1795,-0.0606,0.0916,
15.212854,-0.5754,-0.8338,-0.1295,0.7381,-1.6426,-4.8576,0.1795,-0.0606,0.0916,
15.268722,-0.5417,-0.7916,-0.1385,0.7381,-1.6426,-4.8576,0.1795,-0.0606,0.0916,
15.273145,-0.5417,-0.7916,-0.1385,0.7381,-1.6426,-4.8576,0.3145,0.1587,0.1008,
15.275090,-0.5417,-0.7916,-0.1385,1.1214,-1.3103,-4.9994,0.3145,0.1587,0.1008,
15.329469,-0.6096,-0.8251,-0.1158,1.1214,-1.3103,-4.9994,0.3145,0.1587,0.1008,
15.333141,-0.6096,-0.8251,-0.1158,1.1214,-1.3103,-4.9994,0.1868,-0.0001,0.1301,
15.335740,-0.6096,-0.8251,-0.1158,0.5072,-1.7220,-4.8325,0.1868,-0.0001,0.1301,
15.388506,-0.6382,-0.8280,-0.0359,0.5072,-1.7220,-4.8325,0.1868,-0.0001,0.1301,
15.391913,-0.6382,-0.8280,-0.0359,0.5072,-1.7220,-4.8325,0.1099,0.0610,0.2847,
15.394464,-0.6382,-0.8280,-0.0359,0.2992,-1.8334,-4.0637,0.1099,0.0610,0.2847,
15.449652,-0.5944,-0.8527,-0.0425,0.2992,-1.8334,-4.0637,0.1099,0.0610,0.2847,
15.453839,-0.5944,-0.8527,-0.0425,0.2992,-1.8334,-4.0637,0.3408,0.0103,0.7422,
15.455890,-0.5944,-0.8527,-0.0425,0.9194,-2.2884,-4.1397,0.3408,0.0103,0.7422,
15.509117,-0.4527,-1.0567,0.1774,0.9194,-2.2884,-4.1397,0.3408,0.0103,0.7422,
15.512407,-0.4527,-1.0567,0.1774,0.9194,-2.2884,-4.1397,0.9358,1.5033,1.0134,
15.515231,-0.4527,-1.0567,0.1774,2.7451,-4.7564,-1.9018,0.9358,1.5033,1.0134,
15.569687,-0.3960,-0.9088,0.0088,2.7451,-4.7564,-1.9018,0.9358,1.5033,1.0134,
15.573680,-0.3960,-0.9088,0.0088,2.7451,-4.7564,-1.9018,1.9437,1.6389,0.4166,
15.576340,-0.3960,-0.9088,0.0088,3.8923,-3.9933,-3.3202,1.9437,1.6389,0.4166,
15.628699,-0.6819,-0.6726,-0.1454,3.8923,-3.9933,-3.3202,1.9437,1.6389,0.4166,
15.633078,-0.6819,-0.6726,-0.1454,3.8923,-3.9933,-3.3202,0.5448,0.0201,-0.5449,
15.635786,-0.6819,-0.6726,-0.1454,1.3213,-1.9122,-4.6204,0.5448,0.0201,-0.5449,
15.688984,-0.7879,-0.5228,-0.0674,1.3213,-1.9122,-4.6204,0.5448,0.0201,-0.5449,
15.692719,-0.7879,-0.5228,-0.0674,1.3213,-1.9122,-4.6204,-0.4686,-1.1717,-0.7263,
15.694883,-0.7879,-0.5228,-0.0674,-0.0417,-0.1058,-4.1262,-0.4686,-1.1717,-0.7263,
15.747666,-0.5006,-0.7615,0.1226,-0.0417,-0.1058,-4.1262,-0.4686,-1.1717,-0.7263,
15.750481,-0.5006,-0.7615,0.1226,-0.0417,-0.1058,-4.1262,0.2626,-0.2432,-0.3384,
15.752517,-0.5006,-0.7615,0.1226,2.4212,-2.1110,-2.5181,0.2626,-0.2432,-0.3384,
15.808873,-0.3985,-0.9323,-0.0147,2.4212,-2.1110,-2.5181,0.2626,-0.2432,-0.3384,
15.812445,-0.3985,-0.9323,-0.0147,2.4212,-2.1110,-2.5181,0.6933,1.4984,-0.4514,
15.814910,-0.3985,-0.9323,-0.0147,3.4230,-3.7727,-3.8451,0.6933,1.4984,-0.4514,
15.867402,-0.3552,-0.9445,0.0371,3.4230,-3.7727,-3.8451,0.6933,1.4984,-0.4514,
15.870924,-0.3552,-0.9445,0.0371,3.4230,-3.7727,-3.8451,-0.0343,0.6316,-0.9181,
15.873733,-0.3552,-0.9445,0.0371,3.9366,-3.6646,-2.7792,-0.0343,0.6316,-0.9181,
15.927208,-0.4661,-0.9037,0.0330,3.9366,-3.6646,-2.7792,-0.0343,0.6316,-0.9181,
15.930056,-0.4661,-0.9037,0.0330,3.9366,-3.6646,-2.7792,-0.5535,-0.8131,-1.0110,
15.932499,-0.4661,-0.9037,0.0330,2.4442,-2.7675,-2.8266,-0.5535,-0.8131,-1.0110,
15.987409,-0.4600,-0.8480,0.0051,2.4442,-2.7675,-2.8266,-0.5535,-0.8131,-1.0110,
15.990716,-0.4600,-0.8480,0.0051,2.4442,-2.7675,-2.8266,-0.3898,-0.7478,-0.7752,
15.993963,-0.4600,-0.8480,0.0051,1.9874,-1.7274,-3.2112,-0.3898,-0.7478,-0.7752,
16.049484,-0.4630,-0.8153,-0.0293,1.9874,-1.7274,-3.2112,-0.3898,-0.7478,-0.7752,
16.052939,-0.4630,-0.8153,-0.0293,1.9874,-1.7274,-3.2112,-0.3568,-0.1919,-0.3916,
16.054852,-0.4630,-0.8153,-0.0293,1.5922,-1.0893,-3.6019,-0.3568,-0.1919,-0.3916,
16.109049,-0.4170,-0.8072,-0.0440,1.5922,-1.0893,-3.6019,-0.3568,-0.1919,-0.3916,
16.113080,-0.4170,-0.8072,-0.0440,1.5922,-1.0893,-3.6019,-0.5468,0.5271,0.0764,
16.114852,-0.4170,-0.8072,-0.0440,1.9759,-0.8376,-3.4940,-0.5468,0.5271,0.0764,
16.168764,-0.3840,-0.8514,-0.1195,1.9759,-0.8376,-3.4940,-0.5468,0.5271,0.0764,
16.173863,-0.3840,-0.8514,-0.1195,1.9759,-0.8376,-3.4940,-0.2603,0.6768,0.1429,
16.175859,-0.3840,-0.8514,-0.1195,2.4714,-1.2464,-3.8009,-0.2603,0.6768,0.1429,
16.228314,-0.5549,-0.9550,-0.1397,2.4714,-1.2464,-3.8009,-0.2603,0.6768,0.1429,
16.232639,-0.5549,-0.9550,-0.1397,2.4714,-1.2464,-3.8009,-0.5578,0.6615,-0.0373,
16.234593,-0.5549,-0.9550,-0.1397,0.9022,-2.2106,-3.5777,-0.5578,0.6615,-0.0373,
16.289022,-0.5089,-0.9873,-0.1160,0.9022,-2.2106,-3.5777,-0.5578,0.6615,-0.0373,
16.292893,-0.5089,-0.9873,-0.1160,0.9022,-2.2106,-3.5777,-1.0306,0.7122,0.0367,
16.295534,-0.5089,-0.9873,-0.1160,1.4407,-2.4339,-2.6901,-1.0306,0.7122,0.0367,
16.349914,-0.4537,-0.8756,-0.0794,1.4407,-2.4339,-2.6901,-1.0306,0.7122,0.0367,
16.354224,-0.4537,-0.8756,-0.0794,1.4407,-2.4339,-2.6901,-0.5517,-0.8321,-0.0806,
16.356330,-0.4537,-0.8756,-0.0794,1.9595,-1.2457,-1.9320,-0.5517,-0.8321,-0.0806,
16.409492,-0.5358,-0.8290,-0.1456,1.9595,-1.2457,-1.9320,-0.5517,-0.8321,-0.0806,
16.413091,-0.5358,-0.8290,-0.1456,1.9595,-1.2457,-1.9320,0.0140,-0.4827,0.0672,
16.415029,-0.5358,-0.8290,-0.1456,1.0933,-0.7476,-2.6572,0.0140,-0.4827,0.0672,
16.467907,-0.6277,-0.8338,-0.2372,1.0933,-0.7476,-2.6572,0.0140,-0.4827,0.0672,
16.471187,-0.6277,-0.8338,-0.2372,1.0933,-0.7476,-2.6572,0.4465,-0.2530,0.1093,
16.473471,-0.6277,-0.8338,-0.2372,0.1880,-0.8367,-3.8029,0.4465,-0.2530,0.1093,
16.528089,-0.6472,-0.9401,-0.3406,0.1880,-0.8367,-3.8029,0.4465,-0.2530,0.1093,
16.530891,-0.6472,-0.9401,-0.3406,0.1880,-0.8367,-3.8029,0.5008,0.3677,0.3519,
16.532319,-0.6472,-0.9401,-0.3406,0.0968,-2.0047,-4.9938,0.5008,0.3677,0.3519,
16.589673,-0.4913,-0.7965,-0.2575,0.0968,-2.0047,-4.9938,0.5008,0.3677,0.3519,
16.592850,-0.4913,-0.7965,-0.2575,0.0968,-2.0047,-4.9938,-0.1235,0.2076,0.2505,
16.594897,-0.4913,-0.7965,-0.2575,1.7812,-0.7326,-4.1483,-0.1235,0.2076,0.2505,
16.649008,-0.5368,-0.8141,-0.1478,1.7812,-0.7326,-4.1483,-0.1235,0.2076,0.2505,
16.653035,-0.5368,-0.8141,-0.1478,1.7812,-0.7326,-4.1483,-0.2310,-0.2713,0.1778,
16.655514,-0.5368,-0.8141,-0.1478,1.4199,-0.9602,-2.9643,-0.2310,-0.2713,0.1778,
16.709150,-0.5233,-0.8282,-0.1544,1.4199,-0.9602,-2.9643,-0.2310,-0.2713,0.1778,
16.713024,-0.5233,-0.8282,-0.1544,1.4199,-0.9602,-2.9643,0.0647,0.1190,0.1613,
16.715694,-0.5233,-0.8282,-0.1544,1.6056,-1.1472,-3.0119,0.0647,0.1190,0.1613,
16.768992,-0.5116,-0.8360,-0.1910,1.6056,-1.1472,-3.0119,0.0647,0.1190,0.1613,
16.772369,-0.5116,-0.8360,-0.1910,1.6056,-1.1472,-3.0119,0.1636,0.0897,0.0379,
16.774579,-0.5116,-0.8360,-0.1910,1.7800,-1.2751,-3.3398,0.1636,0.0897,0.0379,
16.830311,-0.5519,-0.7938,-0.2060,1.7800,-1.2751,-3.3398,0.1636,0.0897,0.0379,
16.834193,-0.5519,-0.7938,-0.2060,1.7800,-1.2751,-3.3398,0.0396,-0.0825,-0.0544,
16.836594,-0.5519,-0.7938,-0.2060,1.3727,-0.8566,-3.5218,0.0396,-0.0825,-0.0544,
16.890711,-0.5724,-0.8111,-0.1739,1.3727,-0.8566,-3.5218,0.0396,-0.0825,-0.0544,
16.894364,-0.5724,-0.8111,-0.1739,1.3727,-0.8566,-3.5218,-0.0520,-0.1192,0.0128,
16.896177,-0.5724,-0.8111,-0.1739,1.1338,-0.9969,-3.2408,-0.0520,-0.1192,0.0128,
16.949606,-0.5211,-0.8358,-0.1830,1.1338,-0.9969,-3.2408,-0.0520,-0.1192,0.0128,
16.953090,-0.5211,-0.8358,-0.1830,1.1338,-0.9969,-3.2408,0.0488,0.0732,0.0183,
16.955180,-0.5211,-0.8358,-0.1830,1.6448,-1.2405,-3.3014,0.0488,0.0732,0.0183,
17.010588,-0.5421,-0.8092,-0.1752,1.6448,-1.2405,-3.3014,0.0488,0.0732,0.0183,
17.013354,-0.5421,-0.8092,-0.1752,1.6448,-1.2405,-3.3014,0.0812,0.0396,-0.0849,
17.015098,-0.5421,-0.8092,-0.1752,1.4329,-0.9681,-3.1984,0.0812,0.0396,-0.0849,
17.068620,-0.5932,-0.8036,-0.1739,1.4329,-0.9681,-3.1984,0.0812,0.0396,-0.0849,
17.072288,-0.5932,-0.8036,-0.1739,1.4329,-0.9681,-3.1984,0.0335,-0.1394,-0.1362,
17.074208,-0.5932,-0.8036,-0.1739,0.8740,-0.8624,-3.2127,0.0335,-0.1394,-0.1362,
17.128612,-0.5592,-0.7757,-0.1818,0.8740,-0.8624,-3.2127,0.0335,-0.1394,-0.1362,
17.132437,-0.5592,-0.7757,-0.1818,0.8740,-0.8624,-3.2127,-0.0587,-0.1241,-0.0941,
17.134653,-0.5592,-0.7757,-0.1818,1.1463,-0.5384,-3.3178,-0.0587,-0.1241,-0.0941,
17.188357,-0.5661,-0.8006,-0.1835,1.1463,-0.5384,-3.3178,-0.0587,-0.1241,-0.0941,
17.192987,-0.5661,-0.8006,-0.1835,1.1463,-0.5384,-3.3178,-0.0813,-0.1784,-0.1845,
17.195179,-0.5661,-0.8006,-0.1835,1.0052,-0.7182,-3.3546,-0.0813,-0.1784,-0.1845,
17.249389,-0.5676,-0.8067,-0.2101,1.0052,-0.7182,-3.3546,-0.0813,-0.1784,-0.1845,
17.252553,-0.5676,-0.8067,-0.2101,1.0052,-0.7182,-3.3546,-0.2163,-0.2658,-0.2712,
17.256387,-0.5676,-0.8067,-0.2101,0.8812,-0.6746,-3.5959,-0.2163,-0.2658,-0.2712,
17.309407,-0.6040,-0.8417,-0.1950,0.8812,-0.6746,-3.5959,-0.2163,-0.2658,-0.2712,
17.313151,-0.6040,-0.8417,-0.1950,0.8812,-0.6746,-3.5959,-0.3629,-0.4717,-0.2767,
17.315779,-0.6040,-0.8417,-0.1950,0.3590,-0.8757,-3.4609,-0.3629,-0.4717,-0.2767,
17.368789,-0.5944,-0.8593,-0.1708,0.3590,-0.8757,-3.4609,-0.3629,-0.4717,-0.2767,
17.372085,-0.5944,-0.8593,-0.1708,0.3590,-0.8757,-3.4609,-0.3208,-0.4130,-0.2040,
17.374480,-0.5944,-0.8593,-0.1708,0.3003,-0.9168,-3.2023,-0.3208,-0.4130,-0.2040,
17.428814,-0.6052,-0.8790,-0.1571,0.3003,-0.9168,-3.2023,-0.3208,-0.4130,-0.2040,
17.432941,-0.6052,-0.8790,-0.1571,0.3003,-0.9168,-3.2023,0.0457,-0.2505,-0.1289,
17.436051,-0.6052,-0.8790,-0.1571,0.0776,-1.0230,-3.1006,0.0457,-0.2505,-0.1289,
17.490281,-0.5822,-0.8790,-0.1019,0.0776,-1.0230,-3.1006,0.0457,-0.2505,-0.1289,
17.493691,-0.5822,-0.8790,-0.1019,0.0776,-1.0230,-3.1006,0.1514,-0.3837,0.1344,
17.495669,-0.5822,-0.8790,-0.1019,0.2696,-1.0251,-2.6908,0.1514,-0.3837,0.1344,
17.548804,-0.5355,-0.9318,0.1077,0.2696,-1.0251,-2.6908,0.1514,-0.3837,0.1344,
17.552640,-0.5355,-0.9318,0.1077,0.2696,-1.0251,-2.6908,0.6432,0.1997,0.5089,
17.555132,-0.5355,-0.9318,0.1077,0.8171,-1.6629,-0.8403,0.6432,0.1997,0.5089,
17.608773,-0.5297,-0.9057,0.0042,0.8171,-1.6629,-0.8403,0.6432,0.1997,0.5089,
17.613460,-0.5297,-0.9057,0.0042,0.8171,-1.6629,-0.8403,1.7525,-0.1302,1.0134,
17.615850,-0.5297,-0.9057,0.0042,1.2018,-1.8207,-2.3112,1.7525,-0.1302,1.0134,
17.668037,-0.5739,-0.9460,-0.0493,1.2018,-1.8207,-2.3112,1.7525,-0.1302,1.0134,
17.671057,-0.5739,-0.9460,-0.0493,1.2018,-1.8207,-2.3112,1.2015,0.6981,1.5656,
17.673102,-0.5739,-0.9460,-0.0493,1.2697,-2.9466,-3.4246,1.2015,0.6981,1.5656,
17.728525,-0.5004,-0.9716,-0.0599,1.2697,-2.9466,-3.4246,1.2015,0.6981,1.5656,
17.734816,-0.5004,-0.9716,-0.0599,1.2697,-2.9466,-3.4246,0.3005,-0.2603,1.3146,
17.737028,-0.5004,-0.9716,-0.0599,2.5587,-4.0058,-3.7575,0.3005,-0.2603,1.3146,
17.787660,-0.4825,-0.8072,0.0086,2.5587,-4.0058,-3.7575,0.3005,-0.2603,1.3146,
17.791380,-0.4825,-0.8072,0.0086,2.5587,-4.0058,-3.7575,0.0237,-0.5095,0.6891,
17.793786,-0.4825,-0.8072,0.0086,2.9837,-2.8696,-3.2746,0.0237,-0.5095,0.6891,
17.849365,-0.5851,-0.7628,0.0191,2.9837,-2.8696,-3.2746,0.0237,-0.5095,0.6891,
17.853031,-0.5851,-0.7628,0.0191,2.9837,-2.8696,-3.2746,-0.2120,-0.2792,0.4917,
17.855333,-0.5851,-0.7628,0.0191,2.0580,-2.6606,-3.3159,-0.2120,-0.2792,0.4917,
17.907519,-0.5641,-0.7000,0.0318,2.0580,-2.6606,-3.3159,-0.2120,-0.2792,0.4917,
17.911358,-0.5641,-0.7000,0.0318,2.0580,-2.6606,-3.3159,-0.2689,-0.2615,0.3488,
17.913441,-0.5641,-0.7000,0.0318,2.3307,-2.1733,-3.2158,-0.2689,-0.2615,0.3488,
17.968857,-0.4632,-0.6814,0.0051,2.3307,-2.1733,-3.2158,-0.2689,-0.2615,0.3488,
17.972398,-0.4632,-0.6814,0.0051,2.3307,-2.1733,-3.2158,-0.5163,-0.0001,-0.0709,
17.974379,-0.4632,-0.6814,0.0051,3.3506,-2.0029,-3.4229,-0.5163,-0.0001,-0.0709,
18.028997,-0.6746,-0.6909,0.0943,3.3506,-2.0029,-3.4229,-0.5163,-0.0001,-0.0709,
18.033067,-0.6746,-0.6909,0.0943,3.3506,-2.0029,-3.4229,-0.5279,-0.3501,-0.5693,
18.035566,-0.6746,-0.6909,0.0943,1.1384,-1.8067,-2.4635,-0.5279,-0.3501,-0.5693,
18.088216,-0.7598,-0.6689,0.0325,1.1384,-1.8067,-2.4635,-0.5279,-0.3501,-0.5693,
18.091592,-0.7598,-0.6689,0.0325,1.1384,-1.8067,-2.4635,-0.6482,-0.4930,-0.5736,
18.093716,-0.7598,-0.6689,0.0325,0.0541,-1.1855,-3.0098,-0.6482,-0.4930,-0.5736,
18.149066,-0.5580,-0.6873,0.0623,0.0541,-1.1855,-3.0098,-0.6482,-0.4930,-0.5736,
18.153534,-0.5580,-0.6873,0.0623,0.0541,-1.1855,-3.0098,-1.0471,-1.2585,-0.2425,
18.155701,-0.5580,-0.6873,0.0623,1.7038,-0.9911,-2.8146,-1.0471,-1.2585,-0.2425,
18.209530,-0.4962,-0.9198,0.0960,1.7038,-0.9911,-2.8146,-1.0471,-1.2585,-0.2425,
18.212565,-0.4962,-0.9198,0.0960,1.7038,-0.9911,-2.8146,-0.4081,-0.3330,-0.1662,
18.214990,-0.4962,-0.9198,0.0960,2.0384,-3.0149,-2.6019,-0.4081,-0.3330,-0.1662,
18.268682,-0.6223,-1.0300,-0.0176,2.0384,-3.0149,-2.6019,-0.4081,-0.3330,-0.1662,
18.273031,-0.6223,-1.0300,-0.0176,2.0384,-3.0149,-2.6019,0.2779,1.1013,-0.3042,
18.274892,-0.6223,-1.0300,-0.0176,0.8151,-3.9874,-3.5013,0.2779,1.1013,-0.3042,
18.330083,-0.6579,-0.6091,0.0007,0.8151,-3.9874,-3.5013,0.2779,1.1013,-0.3042,
18.333358,-0.6579,-0.6091,0.0007,0.8151,-3.9874,-3.5013,0.3243,1.4733,-0.6390,
18.335515,-0.6579,-0.6091,0.0007,0.5256,0.2886,-2.8881,0.3243,1.4733,-0.6390,
18.388763,-0.8209,-0.7459,-0.1691,0.5256,0.2886,-2.8881,0.3243,1.4733,-0.6390,
18.392437,-0.8209,-0.7459,-0.1691,0.5256,0.2886,-2.8881,-0.4448,-0.8101,-0.4368,
18.394558,-0.8209,-0.7459,-0.1691,-1.1947,-0.7969,-4.2699,-0.4448,-0.8101,-0.4368,
18.448010,-0.5790,-0.7989,-0.0799,-1.1947,-0.7969,-4.2699,-0.4448,-0.8101,-0.4368,
18.451246,-0.5790,-0.7989,-0.0799,-1.1947,-0.7969,-4.2699,-0.9933,-1.7423,-0.0342,
18.453532,-0.5790,-0.7989,-0.0799,0.8720,-1.1006,-3.6180,-0.9933,-1.7423,-0.0342,
18.508020,-0.5331,-0.8815,-0.0384,0.8720,-1.1006,-3.6180,-0.9933,-1.7423,-0.0342,
18.511443,-0.5331,-0.8815,-0.0384,0.8720,-1.1006,-3.6180,-0.5364,-0.6470,0.1735,
18.513615,-0.5331,-0.8815,-0.0384,1.1027,-1.7742,-3.3788,-0.5364,-0.6470,0.1735,
18.569878,-0.4527,-0.8795,-0.1011,1.1027,-1.7742,-3.3788,-0.5364,-0.6470,0.1735,
18.573720,-0.4527,-0.8795,-0.1011,1.1027,-1.7742,-3.3788,0.1575,0.2351,0.1106,
18.576024,-0.4527,-0.8795,-0.1011,1.9339,-1.7750,-3.9480,0.1575,0.2351,0.1106,
18.629300,-0.5570,-0.8241,-0.0779,1.9339,-1.7750,-3.9480,0.1575,0.2351,0.1106,
18.632808,-0.5570,-0.8241,-0.0779,1.9339,-1.7750,-3.9480,0.1887,0.4440,-0.1216,
18.635204,-0.5570,-0.8241,-0.0779,0.9717,-1.2632,-3.6625,0.1887,0.4440,-0.1216,
18.688109,-0.6472,-0.7938,-0.0349,0.9717,-1.2632,-3.6625,0.1887,0.4440,-0.1216,
18.690965,-0.6472,-0.7938,-0.0349,0.9717,-1.2632,-3.6625,-0.0923,0.3463,-0.1649,
18.693395,-0.6472,-0.7938,-0.0349,0.1085,-0.8973,-3.0248,-0.0923,0.3463,-0.1649,
18.748656,-0.6113,-0.8006,-0.0608,0.1085,-0.8973,-3.0248,-0.0923,0.3463,-0.1649,
18.752744,-0.6113,-0.8006,-0.0608,0.1085,-0.8973,-3.0248,0.0170,-0.2725,-0.0739,
18.757145,-0.6113,-0.8006,-0.0608,0.4132,-0.9055,-3.2402,0.0170,-0.2725,-0.0739,
18.808938,-0.6186,-0.7843,-0.0716,0.4132,-0.9055,-3.2402,0.0170,-0.2725,-0.0739,
18.813783,-0.6186,-0.7843,-0.0716,0.4132,-0.9055,-3.2402,0.0610,-0.2175,-0.0623,
18.816018,-0.6186,-0.7843,-0.0716,0.2673,-0.7146,-3.4417,0.0610,-0.2175,-0.0623,
18.869603,-0.6660,-0.7571,-0.0662,0.2673,-0.7146,-3.4417,0.0610,-0.2175,-0.0623,
18.872394,-0.6660,-0.7571,-0.0662,0.2673,-0.7146,-3.4417,0.1221,-0.0373,-0.0043,
18.874626,-0.6660,-0.7571,-0.0662,-0.2370,-0.4407,-3.4589,0.1221,-0.0373,-0.0043,
18.934984,-0.6342,-0.7896,-0.0586,-0.2370,-0.4407,-3.4589,0.1221,-0.0373,-0.0043,
18.937935,-0.6342,-0.7896,-0.0586,-0.2370,-0.4407,-3.4589,0.0317,-0.0306,0.1533,
18.939699,-0.6342,-0.7896,-0.0586,0.1026,-0.7907,-3.3994,0.0317,-0.0306,0.1533,
18.988139,-0.5314,-0.8260,-0.0493,0.1026,-0.7907,-3.3994,0.0317,-0.0306,0.1533,
18.990589,-0.5314,-0.8260,-0.0493,0.1026,-0.7907,-3.3994,-0.0361,-0.2420,0.2199,
18.992340,-0.5314,-0.8260,-0.0493,1.1612,-1.2127,-3.3542,-0.0361,-0.2420,0.2199,
19.049109,-0.5275,-0.8754,-0.0132,1.1612,-1.2127,-3.3542,-0.0361,-0.2420,0.2199,
19.051807,-0.5275,-0.8754,-0.0132,1.1612,-1.2127,-3.3542,0.0903,-0.0221,0.0922,
19.054421,-0.5275,-0.8754,-0.0132,1.2501,-1.7558,-3.0288,0.0903,-0.0221,0.0922,
19.107883,-0.5617,-0.8138,0.0000,1.2501,-1.7558,-3.0288,0.0903,-0.0221,0.0922,
19.111423,-0.5617,-0.8138,0.0000,1.2501,-1.7558,-3.0288,0.2974,0.2565,0.0073,
19.113440,-0.5617,-0.8138,0.0000,0.9554,-1.1951,-2.9098,0.2974,0.2565,0.0073,
19.168194,-0.6428,-0.7882,-0.0002,0.9554,-1.1951,-2.9098,0.2974,0.2565,0.0073,
19.170979,-0.6428,-0.7882,-0.0002,0.9554,-1.1951,-2.9098,0.3066,0.2388,0.0629,
19.172334,-0.6428,-0.7882,-0.0002,0.2058,-0.9956,-2.9316,0.3066,0.2388,0.0629,
19.228266,-0.6245,-0.8185,0.0139,0.2058,-0.9956,-2.9316,0.3066,0.2388,0.0629,
19.232992,-0.6245,-0.8185,0.0139,0.2058,-0.9956,-2.9316,0.3530,0.2595,0.1130,
19.235221,-0.6245,-0.8185,0.0139,0.4758,-1.3802,-2.7908,0.3530,0.2595,0.1130,
19.287447,-0.5651,-0.7361,0.0213,0.4758,-1.3802,-2.7908,0.3530,0.2595,0.1130,
19.290391,-0.5651,-0.7361,0.0213,0.4758,-1.3802,-2.7908,0.3506,0.2602,0.1252,
19.292493,-0.5651,-0.7361,0.0213,1.1325,-0.6713,-2.7694,0.3506,0.2602,0.1252,
19.347424,-0.5651,-0.7361,0.0213,1.1325,-0.6713,-2.7694,0.3744,0.3542,0.0195,
19.350681,-0.6807,-0.7803,0.0313,1.1325,-0.6713,-2.7694,0.3744,0.3542,0.0195,
19.352498,-0.6807,-0.7803,0.0313,1.2100,-0.7572,-2.7822,0.3744,0.3542,0.0195,
19.408926,-0.6355,-0.7891,0.0134,1.2100,-0.7572,-2.7822,0.3744,0.3542,0.0195,
19.412438,-0.6355,-0.7891,0.0134,1.2100,-0.7572,-2.7822,0.3047,0.2595,0.1038,
19.414520,-0.6355,-0.7891,0.0134,0.6093,-1.3555,-2.8259,0.3047,0.2595,0.1038,
19.468844,-0.6255,-0.7720,0.0457,0.6093,-1.3555,-2.8259,0.3047,0.2595,0.1038,
19.471695,-0.6255,-0.7720,0.0457,0.6093,-1.3555,-2.8259,0.2314,0.1129,0.0195,
19.473509,-0.6255,-0.7720,0.0457,0.7656,-1.2578,-2.5247,0.2314,0.1129,0.0195,
19.528672,-0.6345,-0.7542,0.0447,0.7656,-1.2578,-2.5247,0.2314,0.1129,0.0195,
19.534124,-0.6345,-0.7542,0.0447,0.7656,-1.2578,-2.5247,0.1355,0.0641,0.0409,
19.535934,-0.6345,-0.7542,0.0447,0.6985,-1.1162,-2.5547,0.1355,0.0641,0.0409,
19.591152,-0.6318,-0.7865,0.0559,0.6985,-1.1162,-2.5547,0.1355,0.0641,0.0409,
19.594337,-0.6318,-0.7865,0.0559,0.6985,-1.1162,-2.5547,0.0671,0.0983,0.0379,
19.596011,-0.6318,-0.7865,0.0559,0.7542,-1.4619,-2.4384,0.0671,0.0983,0.0379,
19.648738,-0.6184,-0.7877,0.0513,0.7542,-1.4619,-2.4384,0.0671,0.0983,0.0379,
19.652442,-0.6184,-0.7877,0.0513,0.7542,-1.4619,-2.4384,0.1203,0.0543,0.0367,
19.654198,-0.6184,-0.7877,0.0513,0.9110,-1.4955,-2.4706,0.1203,0.0543,0.0367,
19.709058,-0.6499,-0.7657,0.0501,0.9110,-1.4955,-2.4706,0.1203,0.0543,0.0367,
19.713462,-0.6499,-0.7657,0.0501,0.9110,-1.4955,-2.4706,0.1563,0.1972,0.0232,
19.715522,-0.6499,-0.7657,0.0501,0.6385,-1.3049,-2.4488,0.1563,0.1972,0.0232,
19.768736,-0.6233,-0.7601,0.0559,0.6385,-1.3049,-2.4488,0.1563,0.1972,0.0232,
19.771883,-0.6233,-0.7601,0.0559,0.6385,-1.3049,-2.4488,0.3890,0.1752,0.2089,
19.774293,-0.6233,-0.7601,0.0559,0.9610,-1.3196,-2.3902,0.3890,0.1752,0.2089,
19.829087,-0.6374,-0.8724,0.1192,0.9610,-1.3196,-2.3902,0.3890,0.1752,0.2089,
19.834275,-0.6374,-0.8724,0.1192,0.9610,-1.3196,-2.3902,0.0555,-0.4668,0.0825,
19.836155,-0.6374,-0.8724,0.1192,0.8656,-2.4983,-1.8252,0.0555,-0.4668,0.0825,
19.888614,-0.5483,-0.8153,0.0178,0.8656,-2.4983,-1.8252,0.0555,-0.4668,0.0825,
19.892835,-0.5483,-0.8153,0.0178,0.8656,-2.4983,-1.8252,0.1380,-0.5841,-0.2388,
19.896174,-0.5483,-0.8153,0.0178,1.6293,-1.9490,-3.0886,0.1380,-0.5841,-0.2388,
19.950136,-0.6611,-0.7999,0.1041,1.6293,-1.9490,-3.0886,0.1380,-0.5841,-0.2388,
19.953847,-0.6611,-0.7999,0.1041,1.6293,-1.9490,-3.0886,-0.0856,-0.8345,-0.4447,
19.956224,-0.6611,-0.7999,0.1041,0.2305,-1.6402,-2.5477,-0.0856,-0.8345,-0.4447,
20.008838,-0.6255,-0.7645,0.1654,0.2305,-1.6402,-2.5477,-0.0856,-0.8345,-0.4447,
20.012551,-0.6255,-0.7645,0.1654,0.2305,-1.6402,-2.5477,0.0024,-0.8394,-0.2627,
20.016318,-0.6255,-0.7645,0.1654,0.2417,-1.1145,-2.2404,0.0024,-0.8394,-0.2627,
20.068283,-0.6228,-0.7171,0.1358,0.2417,-1.1145,-2.2404,0.0024,-0.8394,-0.2627,
20.071549,-0.6228,-0.7171,0.1358,0.2417,-1.1145,-2.2404,0.1123,-0.1693,-0.0825,
20.073054,-0.6228,-0.7171,0.1358,0.0389,-0.6170,-2.8347,0.1123,-0.1693,-0.0825,
20.128304,-0.5978,-0.7772,0.2011,0.0389,-0.6170,-2.8347,0.1123,-0.1693,-0.0825,
20.132173,-0.5978,-0.7772,0.2011,0.0389,-0.6170,-2.8347,0.0152,0.3585,0.0116,
20.134324,-0.5978,-0.7772,0.2011,0.3051,-1.1811,-2.1240,0.0152,0.3585,0.0116,
20.188718,-0.5861,-0.7916,0.1617,0.3051,-1.1811,-2.1240,0.0152,0.3585,0.0116,
20.191976,-0.5861,-0.7916,0.1617,0.3051,-1.1811,-2.1240,0.1239,0.1948,0.0635,
20.194464,-0.5861,-0.7916,0.1617,0.5151,-1.3488,-2.4053,0.1239,0.1948,0.0635,
20.248188,-0.5773,-0.8202,0.1437,0.5151,-1.3488,-2.4053,0.1239,0.1948,0.0635,
20.251829,-0.5773,-0.8202,0.1437,0.5151,-1.3488,-2.4053,-0.0019,0.2284,-0.0079,
20.254596,-0.5773,-0.8202,0.1437,0.6672,-1.6536,-2.5177,-0.0019,0.2284,-0.0079,
20.308658,-0.5869,-0.7865,0.1566,0.6672,-1.6536,-2.5177,-0.0019,0.2284,-0.0079,
20.312412,-0.5869,-0.7865,0.1566,0.6672,-1.6536,-2.5177,0.0231,0.1056,-0.0342,
20.314588,-0.5869,-0.7865,0.1566,0.6006,-1.3012,-2.3109,0.0231,0.1056,-0.0342,
20.370273,-0.5954,-0.7882,0.1522,0.6006,-1.3012,-2.3109,0.0231,0.1056,-0.0342,
20.373761,-0.5954,-0.7882,0.1522,0.6006,-1.3012,-2.3109,-0.0349,0.1612,0.0018,
20.375606,-0.5954,-0.7882,0.1522,0.5347,-1.3035,-2.2997,-0.0349,0.1612,0.0018,
20.428368,-0.5944,-0.7901,0.1351,0.5347,-1.3035,-2.2997,-0.0349,0.1612,0.0018,
20.432173,-0.5944,-0.7901,0.1351,0.5347,-1.3035,-2.2997,0.0690,0.1752,0.0250,
20.434152,-0.5944,-0.7901,0.1351,0.5802,-1.3169,-2.3965,0.0690,0.1752,0.0250,
20.488937,-0.5783,-0.8087,0.1549,0.5802,-1.3169,-2.3965,0.0690,0.1752,0.0250,
20.490013,-0.5783,-0.8087,0.1549,0.5802,-1.3169,-2.3965,-0.0325,0.1361,0.0128,
20.490501,-0.5783,-0.8087,0.1549,0.7923,-1.5117,-2.1303,-0.0325,0.1361,0.0128,
