
time,gFx,gFy,gFz,ax,ay,az,wx,wy,wz,
0.016006,0.0209,0.4052,0.8238,0.0000,0.0000,0.0000,0.0000,0.0000,0.0000,
0.032250,0.0253,0.4106,0.8343,0.0000,0.0000,0.0000,0.0000,0.0000,0.0000,
0.033034,0.0747,0.3927,0.8675,0.0000,0.0000,0.0000,0.0000,0.0000,0.0000,
0.033361,0.1438,0.4025,0.8900,0.0000,0.0000,0.0000,0.0000,0.0000,0.0000,
0.033670,0.2015,0.4284,0.8922,0.0000,0.0000,0.0000,0.0000,0.0000,0.0000,
0.038823,0.2723,0.4871,0.8800,0.0000,0.0000,0.0000,0.0000,0.0000,0.0000,
0.042261,0.3129,0.5244,0.8907,0.0000,0.0000,0.0000,0.0000,0.0000,0.0000,
0.048260,0.2972,0.5007,0.9132,0.0000,0.0000,0.0000,0.0000,0.0000,0.0000,
0.049303,0.2972,0.5007,0.9132,0.0000,0.0000,0.0000,-0.0972,-0.5453,0.2635,
0.052870,0.2635,0.4665,0.9200,0.0000,0.0000,0.0000,-0.0972,-0.5453,0.2635,
0.057926,0.2367,0.4343,0.8959,0.0000,0.0000,0.0000,-0.0972,-0.5453,0.2635,
0.062833,0.2279,0.4042,0.8641,0.0000,0.0000,0.0000,-0.0972,-0.5453,0.2635,
0.067733,0.2225,0.3874,0.8345,0.0000,0.0000,0.0000,-0.0972,-0.5453,0.2635,
0.075267,0.2164,0.3864,0.7996,0.0000,0.0000,0.0000,-0.0972,-0.5453,0.2635,
0.078599,0.2279,0.4142,0.7463,0.0000,0.0000,0.0000,-0.0972,-0.5453,0.2635,
0.084284,0.2863,0.3945,0.6259,0.0000,0.0000,0.0000,-0.0972,-0.5453,0.2635,
0.086880,0.2560,0.3722,0.4331,0.0000,0.0000,0.0000,-0.0972,-0.5453,0.2635,
0.088320,0.2560,0.3722,0.4331,0.0000,0.0000,0.0000,0.5793,-0.4845,0.1975,
0.089509,0.2560,0.3722,0.4331,0.0000,0.0000,-0.0000,0.5793,-0.4845,0.1975,
0.092976,0.1946,0.3478,0.2831,0.0000,0.0000,-0.0000,0.5793,-0.4845,0.1975,
0.099134,0.1736,0.3512,0.1920,0.0000,0.0000,-0.0000,0.5793,-0.4845,0.1975,
0.101667,0.1648,0.3739,0.2106,0.0000,0.0000,-0.0000,0.5793,-0.4845,0.1975,
0.108744,0.0989,0.4057,0.3347,0.0000,0.0000,-0.0000,0.5793,-0.4845,0.1975,
0.113562,0.0385,0.4355,0.3147,0.0000,0.0000,-0.0000,0.5793,-0.4845,0.1975,
0.116117,-0.0167,0.4311,0.3862,0.0000,0.0000,-0.0000,0.5793,-0.4845,0.1975,
0.122072,-0.0834,0.4240,0.4779,0.0000,0.0000,-0.0000,0.5793,-0.4845,0.1975,
0.126596,-0.1095,0.4389,0.5885,0.0000,0.0000,-0.0000,0.5793,-0.4845,0.1975,
0.129084,-0.1095,0.4389,0.5885,0.0000,0.0000,-0.0000,0.8829,-0.4291,-0.5248,
0.130268,-0.1095,0.4389,0.5885,0.0000,0.0000,-0.0000,0.8829,-0.4291,-0.5248,
0.133165,-0.1154,0.4243,0.8067,0.0000,0.0000,-0.0000,0.8829,-0.4291,-0.5248,
0.136935,-0.1193,0.3888,1.1680,0.0000,0.0000,-0.0000,0.8829,-0.4291,-0.5248,
0.143342,-0.0590,0.3857,0.9975,0.0000,0.0000,-0.0000,0.8829,-0.4291,-0.5248,
0.146601,-0.0230,0.3644,0.8074,0.0000,0.0000,-0.0000,0.8829,-0.4291,-0.5248,
0.152238,-0.0001,0.3292,0.9670,0.0000,0.0000,-0.0000,0.8829,-0.4291,-0.5248,
0.158951,0.0488,0.3119,1.0608,0.0000,0.0000,-0.0000,0.8829,-0.4291,-0.5248,
0.161130,0.1143,0.2833,1.0002,0.0000,0.0000,-0.0000,0.8829,-0.4291,-0.5248,
0.166543,0.1766,0.2572,0.9911,0.0000,0.0000,-0.0000,0.8829,-0.4291,-0.5248,
0.168092,0.1766,0.2572,0.9911,0.0000,0.0000,-0.0000,-1.2221,-0.0616,-0.8646,
0.169360,0.1766,0.2572,0.9911,-0.9132,-0.0150,-1.6112,-1.2221,-0.0616,-0.8646,
0.170853,0.2249,0.2579,1.0246,-0.9132,-0.0150,-1.6112,-1.2221,-0.0616,-0.8646,
0.176024,0.2335,0.2743,1.0236,-0.9132,-0.0150,-1.6112,-1.2221,-0.0616,-0.8646,
0.180943,0.2171,0.2853,1.0148,-0.9132,-0.0150,-1.6112,-1.2221,-0.0616,-0.8646,
0.185774,0.2198,0.2884,1.0292,-0.9132,-0.0150,-1.6112,-1.2221,-0.0616,-0.8646,
0.192415,0.2413,0.3048,1.0696,-0.9132,-0.0150,-1.6112,-1.2221,-0.0616,-0.8646,
0.195869,0.2941,0.3319,1.1174,-0.9132,-0.0150,-1.6112,-1.2221,-0.0616,-0.8646,
0.201265,0.3481,0.3573,1.1382,-0.9132,-0.0150,-1.6112,-1.2221,-0.0616,-0.8646,
0.206404,0.3786,0.3825,1.1236,-0.9132,-0.0150,-1.6112,-1.2221,-0.0616,-0.8646,
0.207643,0.3786,0.3825,1.1236,-0.9132,-0.0150,-1.6112,-1.2732,-0.0243,-0.1349,
0.208993,0.3786,0.3825,1.1236,-0.4496,0.1655,-0.8990,-1.2732,-0.0243,-0.1349,
0.213242,0.3906,0.3942,1.0957,-0.4496,0.1655,-0.8990,-1.2732,-0.0243,-0.1349,
0.220772,0.3906,0.3908,1.0466,-0.4496,0.1655,-0.8990,-1.2732,-0.0243,-0.1349,
0.222328,0.3769,0.3737,0.9838,-0.4496,0.1655,-0.8990,-1.2732,-0.0243,-0.1349,
0.226342,0.3476,0.3544,0.9291,-0.4496,0.1655,-0.8990,-1.2732,-0.0243,-0.1349,
0.234133,0.3043,0.3341,0.8736,-0.4496,0.1655,-0.8990,-1.2732,-0.0243,-0.1349,
0.236431,0.2533,0.3126,0.8336,-0.4496,0.1655,-0.8990,-1.2732,-0.0243,-0.1349,
0.242667,0.1915,0.2916,0.8101,-0.4496,0.1655,-0.8990,-1.2732,-0.0243,-0.1349,
0.249865,0.1915,0.2916,0.8101,0.7126,-0.4580,2.7953,-1.2732,-0.0243,-0.1349,
0.251512,0.1402,0.2694,0.7786,0.7126,-0.4580,2.7953,-1.2732,-0.0243,-0.1349,
0.252416,0.1402,0.2694,0.7786,0.7126,-0.4580,2.7953,0.0775,-1.7213,-0.4310,
0.253365,0.0977,0.2452,0.7307,0.7126,-0.4580,2.7953,0.0775,-1.7213,-0.4310,
0.256426,0.0505,0.2107,0.6899,0.7126,-0.4580,2.7953,0.0775,-1.7213,-0.4310,
0.262019,0.0063,0.1690,0.6393,0.7126,-0.4580,2.7953,0.0775,-1.7213,-0.4310,
0.265429,0.0007,0.1328,0.6130,0.7126,-0.4580,2.7953,0.0775,-1.7213,-0.4310,
0.270700,0.0295,0.1223,0.6264,0.7126,-0.4580,2.7953,0.0775,-1.7213,-0.4310,
0.275541,0.0727,0.1211,0.7041,0.7126,-0.4580,2.7953,0.0775,-1.7213,-0.4310,
0.279800,0.1179,0.1387,0.7300,0.7126,-0.4580,2.7953,0.0775,-1.7213,-0.4310,
0.284673,0.1512,0.2103,0.6037,0.7126,-0.4580,2.7953,0.0775,-1.7213,-0.4310,
0.286072,0.1512,0.2103,0.6037,0.7126,-0.4580,2.7953,0.4472,-2.3136,-0.8955,
0.286968,0.1512,0.2103,0.6037,-0.2320,-0.9014,0.3439,0.4472,-2.3136,-0.8955,
0.289596,0.1492,0.2122,0.6029,-0.2320,-0.9014,0.3439,0.4472,-2.3136,-0.8955,
0.297215,0.2379,0.1758,0.5978,-0.2320,-0.9014,0.3439,0.4472,-2.3136,-0.8955,
0.300559,0.3393,0.1565,0.6564,-0.2320,-0.9014,0.3439,0.4472,-2.3136,-0.8955,
0.308946,0.3810,0.1621,0.7053,-0.2320,-0.9014,0.3439,0.4472,-2.3136,-0.8955,
0.311073,0.4028,0.1717,0.7451,-0.2320,-0.9014,0.3439,0.4472,-2.3136,-0.8955,
0.316470,0.4433,0.1729,0.7906,-0.2320,-0.9014,0.3439,0.4472,-2.3136,-0.8955,
0.320072,0.4937,0.1770,0.8121,-0.2320,-0.9014,0.3439,0.4472,-2.3136,-0.8955,
0.326591,0.5376,0.1907,0.8201,-0.2320,-0.9014,0.3439,0.4472,-2.3136,-0.8955,
0.328736,0.5376,0.1907,0.8201,-0.2320,-0.9014,0.3439,0.0189,-2.2497,0.0452,
0.330106,0.5376,0.1907,0.8201,-0.6657,-0.6758,0.4106,0.0189,-2.2497,0.0452,
0.333785,0.5511,0.1961,0.8326,-0.6657,-0.6758,0.4106,0.0189,-2.2497,0.0452,
0.336336,0.5367,0.2002,0.8355,-0.6657,-0.6758,0.4106,0.0189,-2.2497,0.0452,
0.340226,0.5198,0.1971,0.8360,-0.6657,-0.6758,0.4106,0.0189,-2.2497,0.0452,
0.346236,0.4951,0.1873,0.8191,-0.6657,-0.6758,0.4106,0.0189,-2.2497,0.0452,
0.351483,0.4656,0.1795,0.7827,-0.6657,-0.6758,0.4106,0.0189,-2.2497,0.0452,
0.355282,0.4333,0.1743,0.7261,-0.6657,-0.6758,0.4106,0.0189,-2.2497,0.0452,
0.361245,0.4067,0.1592,0.6691,-0.6657,-0.6758,0.4106,0.0189,-2.2497,0.0452,
0.365736,0.4067,0.1592,0.6691,0.4032,-1.0863,0.1390,0.0189,-2.2497,0.0452,
0.367476,0.3769,0.1492,0.6132,0.4032,-1.0863,0.1390,0.0189,-2.2497,0.0452,
0.368322,0.3769,0.1492,0.6132,0.4032,-1.0863,0.1390,0.0136,-2.5746,0.4521,
0.369439,0.3454,0.1365,0.5675,0.4032,-1.0863,0.1390,0.0136,-2.5746,0.4521,
0.374224,0.3112,0.1181,0.5323,0.4032,-1.0863,0.1390,0.0136,-2.5746,0.4521,
0.378805,0.2853,0.0971,0.5184,0.4032,-1.0863,0.1390,0.0136,-2.5746,0.4521,
0.384858,0.2557,0.0793,0.5216,0.4032,-1.0863,0.1390,0.0136,-2.5746,0.4521,
0.389130,0.2330,0.0661,0.5318,0.4032,-1.0863,0.1390,0.0136,-2.5746,0.4521,
0.393987,0.2279,0.0578,0.5536,0.4032,-1.0863,0.1390,0.0136,-2.5746,0.4521,
0.399086,0.2523,0.0559,0.5787,0.4032,-1.0863,0.1390,0.0136,-2.5746,0.4521,
0.403363,0.3114,0.0610,0.6049,0.4032,-1.0863,0.1390,0.0136,-2.5746,0.4521,
0.404435,0.3114,0.0610,0.6049,0.4032,-1.0863,0.1390,0.2831,-2.7152,0.3488,
0.405322,0.3114,0.0610,0.6049,-0.6030,-1.4550,-0.5026,0.2831,-2.7152,0.3488,
0.409927,0.4047,0.0795,0.6354,-0.6030,-1.4550,-0.5026,0.2831,-2.7152,0.3488,
0.414555,0.5083,0.1159,0.6740,-0.6030,-1.4550,-0.5026,0.2831,-2.7152,0.3488,
0.418177,0.6002,0.1585,0.7336,-0.6030,-1.4550,-0.5026,0.2831,-2.7152,0.3488,
0.423165,0.6742,0.1873,0.8169,-0.6030,-1.4550,-0.5026,0.2831,-2.7152,0.3488,
0.428902,0.7175,0.2061,0.9025,-0.6030,-1.4550,-0.5026,0.2831,-2.7152,0.3488,
0.435888,0.7350,0.2120,0.9765,-0.6030,-1.4550,-0.5026,0.2831,-2.7152,0.3488,
0.439088,0.7421,0.2059,1.0402,-0.6030,-1.4550,-0.5026,0.2831,-2.7152,0.3488,
0.449765,0.7404,0.1932,1.0818,-0.6030,-1.4550,-0.5026,0.2831,-2.7152,0.3488,
0.451503,0.7404,0.1932,1.0818,-0.6030,-1.4550,-0.5026,-0.6980,-1.7043,1.0944,
0.452859,0.7404,0.1932,1.0818,-0.9523,-0.9120,-0.2392,-0.6980,-1.7043,1.0944,
0.453862,0.7316,0.1863,1.1099,-0.9523,-0.9120,-0.2392,-0.6980,-1.7043,1.0944,
0.455035,0.7258,0.1797,1.1182,-0.9523,-0.9120,-0.2392,-0.6980,-1.7043,1.0944,
0.459523,0.7140,0.1773,1.1050,-0.9523,-0.9120,-0.2392,-0.6980,-1.7043,1.0944,
0.465500,0.7043,0.1868,1.0718,-0.9523,-0.9120,-0.2392,-0.6980,-1.7043,1.0944,
0.468872,0.7060,0.2037,1.0163,-0.9523,-0.9120,-0.2392,-0.6980,-1.7043,1.0944,
0.476448,0.7172,0.2435,0.9467,-0.9523,-0.9120,-0.2392,-0.6980,-1.7043,1.0944,
0.479058,0.7365,0.2914,0.9000,-0.9523,-0.9120,-0.2392,-0.6980,-1.7043,1.0944,
0.483733,0.7380,0.3199,0.8775,-0.9523,-0.9120,-0.2392,-0.6980,-1.7043,1.0944,
0.485096,0.7380,0.3199,0.8775,-0.9523,-0.9120,-0.2392,-1.3766,-0.6230,1.2138,
0.486170,0.7380,0.3199,0.8775,1.7585,0.1914,2.5591,-1.3766,-0.6230,1.2138,
0.488723,0.7350,0.3285,0.8524,1.7585,0.1914,2.5591,-1.3766,-0.6230,1.2138,
0.495018,0.7192,0.3116,0.8228,1.7585,0.1914,2.5591,-1.3766,-0.6230,1.2138,
0.499064,0.6776,0.2794,0.7810,1.7585,0.1914,2.5591,-1.3766,-0.6230,1.2138,
0.504676,0.6139,0.2344,0.7334,1.7585,0.1914,2.5591,-1.3766,-0.6230,1.2138,
0.509766,0.5562,0.1897,0.6887,1.7585,0.1914,2.5591,-1.3766,-0.6230,1.2138,
0.515076,0.5098,0.1440,0.6525,1.7585,0.1914,2.5591,-1.3766,-0.6230,1.2138,
0.518275,0.4832,0.1150,0.6186,1.7585,0.1914,2.5591,-1.3766,-0.6230,1.2138,
0.526514,0.4815,0.0979,0.5980,1.7585,0.1914,2.5591,-1.3766,-0.6230,1.2138,
0.528280,0.4815,0.0979,0.5980,1.7585,0.1914,2.5591,-1.0591,-0.8787,0.5245,
0.530319,0.4815,0.0979,0.5980,1.2844,0.4908,2.2928,-1.0591,-0.8787,0.5245,
0.531426,0.5078,0.0839,0.6154,1.2844,0.4908,2.2928,-1.0591,-0.8787,0.5245,
0.534450,0.5479,0.0683,0.6572,1.2844,0.4908,2.2928,-1.0591,-0.8787,0.5245,
0.538685,0.6144,0.0541,0.6870,1.2844,0.4908,2.2928,-1.0591,-0.8787,0.5245,
0.543765,0.7052,0.0507,0.7156,1.2844,0.4908,2.2928,-1.0591,-0.8787,0.5245,
0.550145,0.7727,0.0583,0.7566,1.2844,0.4908,2.2928,-1.0591,-0.8787,0.5245,
0.552922,0.7707,0.0642,0.7903,1.2844,0.4908,2.2928,-1.0591,-0.8787,0.5245,
0.558294,0.7617,0.0170,0.8297,1.2844,0.4908,2.2928,-1.0591,-0.8787,0.5245,
0.563370,0.7744,-0.0653,0.8773,1.2844,0.4908,2.2928,-1.0591,-0.8787,0.5245,
0.564497,0.7744,-0.0653,0.8773,1.2844,0.4908,2.2928,-0.5670,-2.6662,0.3402,
0.565853,0.7744,-0.0653,0.8773,0.0436,0.9022,0.8317,-0.5670,-2.6662,0.3402,
0.567696,0.7634,-0.1181,0.9230,0.0436,0.9022,0.8317,-0.5670,-2.6662,0.3402,
0.572600,0.7431,-0.1230,0.9728,0.0436,0.9022,0.8317,-0.5670,-2.6662,0.3402,
0.577878,0.7033,-0.0998,1.0136,0.0436,0.9022,0.8317,-0.5670,-2.6662,0.3402,
0.582662,0.6488,-0.0626,1.0361,0.0436,0.9022,0.8317,-0.5670,-2.6662,0.3402,
0.587087,0.5931,-0.0411,1.0268,0.0436,0.9022,0.8317,-0.5670,-2.6662,0.3402,
0.593708,0.5491,-0.0436,0.9924,0.0436,0.9022,0.8317,-0.5670,-2.6662,0.3402,
0.597233,0.5174,-0.0707,0.9555,0.0436,0.9022,0.8317,-0.5670,-2.6662,0.3402,
0.602415,0.5139,-0.1113,0.9122,0.0436,0.9022,0.8317,-0.5670,-2.6662,0.3402,
0.603799,0.5139,-0.1113,0.9122,0.0436,0.9022,0.8317,-1.3105,-1.3687,1.1232,
0.604638,0.5139,-0.1113,0.9122,0.2974,-0.7274,2.2272,-1.3105,-1.3687,1.1232,
0.606777,0.5352,-0.1450,0.8497,0.2974,-0.7274,2.2272,-1.3105,-1.3687,1.1232,
0.612395,0.5667,-0.1567,0.7830,0.2974,-0.7274,2.2272,-1.3105,-1.3687,1.1232,
0.617465,0.5963,-0.1557,0.7138,0.2974,-0.7274,2.2272,-1.3105,-1.3687,1.1232,
0.622327,0.6244,-0.1584,0.6538,0.2974,-0.7274,2.2272,-1.3105,-1.3687,1.1232,
0.626948,0.6469,-0.1667,0.5897,0.2974,-0.7274,2.2272,-1.3105,-1.3687,1.1232,
0.632024,0.6354,-0.1899,0.5311,0.2974,-0.7274,2.2272,-1.3105,-1.3687,1.1232,
0.638851,0.6163,-0.2036,0.4954,0.2974,-0.7274,2.2272,-1.3105,-1.3687,1.1232,
0.643607,0.6141,-0.1902,0.4688,0.2974,-0.7274,2.2272,-1.3105,-1.3687,1.1232,
0.645319,0.6141,-0.1902,0.4688,-0.2155,-0.3062,2.4829,-1.3105,-1.3687,1.1232,
0.647200,0.6141,-0.1902,0.4688,-0.2155,-0.3062,2.4829,0.0179,-2.1367,1.4502,
0.648768,0.6202,-0.1933,0.4466,-0.2155,-0.3062,2.4829,0.0179,-2.1367,1.4502,
0.653440,0.6403,-0.2109,0.4085,-0.2155,-0.3062,2.4829,0.0179,-2.1367,1.4502,
0.660158,0.6679,-0.2266,0.3745,-0.2155,-0.3062,2.4829,0.0179,-2.1367,1.4502,
0.663236,0.6920,-0.2415,0.3474,-0.2155,-0.3062,2.4829,0.0179,-2.1367,1.4502,
0.666219,0.7179,-0.2588,0.3371,-0.2155,-0.3062,2.4829,0.0179,-2.1367,1.4502,
0.671452,0.7563,-0.2705,0.3298,-0.2155,-0.3062,2.4829,0.0179,-2.1367,1.4502,
0.677864,0.8267,-0.2683,0.3359,-0.2155,-0.3062,2.4829,0.0179,-2.1367,1.4502,
0.682022,0.9090,-0.2476,0.3445,-0.2155,-0.3062,2.4829,0.0179,-2.1367,1.4502,
0.683434,0.9090,-0.2476,0.3445,-0.2155,-0.3062,2.4829,1.5103,-3.7805,2.0074,
0.684319,0.9090,-0.2476,0.3445,-1.5982,-1.3892,0.5074,1.5103,-3.7805,2.0074,
0.686447,0.9840,-0.2100,0.3569,-1.5982,-1.3892,0.5074,1.5103,-3.7805,2.0074,
0.693474,1.0365,-0.1701,0.3696,-1.5982,-1.3892,0.5074,1.5103,-3.7805,2.0074,
0.697138,1.0627,-0.1584,0.3831,-1.5982,-1.3892,0.5074,1.5103,-3.7805,2.0074,
0.703781,1.0570,-0.1755,0.3919,-1.5982,-1.3892,0.5074,1.5103,-3.7805,2.0074,
0.706927,1.0287,-0.2012,0.4048,-1.5982,-1.3892,0.5074,1.5103,-3.7805,2.0074,
0.710746,0.9967,-0.2209,0.4148,-1.5982,-1.3892,0.5074,1.5103,-3.7805,2.0074,
0.718015,0.9671,-0.2351,0.4231,-1.5982,-1.3892,0.5074,1.5103,-3.7805,2.0074,
0.721591,0.9564,-0.2522,0.4312,-1.5982,-1.3892,0.5074,1.5103,-3.7805,2.0074,
0.722988,0.9564,-0.2522,0.4312,-1.5982,-1.3892,0.5074,1.2695,-3.7687,2.5858,
0.724423,0.9564,-0.2522,0.4312,-2.0004,-0.7278,1.4946,1.2695,-3.7687,2.5858,
0.728654,0.9601,-0.2828,0.4392,-2.0004,-0.7278,1.4946,1.2695,-3.7687,2.5858,
0.732908,0.9742,-0.3170,0.4444,-2.0004,-0.7278,1.4946,1.2695,-3.7687,2.5858,
0.737138,1.0028,-0.3553,0.4634,-2.0004,-0.7278,1.4946,1.2695,-3.7687,2.5858,
0.743926,1.0331,-0.3927,0.4913,-2.0004,-0.7278,1.4946,1.2695,-3.7687,2.5858,
0.748039,1.0702,-0.4110,0.5160,-2.0004,-0.7278,1.4946,1.2695,-3.7687,2.5858,
0.750425,1.1118,-0.4052,0.5272,-2.0004,-0.7278,1.4946,1.2695,-3.7687,2.5858,
0.756413,1.1575,-0.3881,0.5091,-2.0004,-0.7278,1.4946,1.2695,-3.7687,2.5858,
0.761927,1.2088,-0.3641,0.4588,-2.0004,-0.7278,1.4946,1.2695,-3.7687,2.5858,
0.763680,1.2088,-0.3641,0.4588,-2.0004,-0.7278,1.4946,1.5795,-3.7900,2.5890,
0.764685,1.2088,-0.3641,0.4588,0.7496,-0.5121,0.6154,1.5795,-3.7900,2.5890,
0.766241,1.2486,-0.3365,0.4024,0.7496,-0.5121,0.6154,1.5795,-3.7900,2.5890,
0.770323,1.2755,-0.3165,0.3396,0.7496,-0.5121,0.6154,1.5795,-3.7900,2.5890,
0.777254,1.2967,-0.3067,0.2670,0.7496,-0.5121,0.6154,1.5795,-3.7900,2.5890,
0.780377,1.3023,-0.3045,0.1979,0.7496,-0.5121,0.6154,1.5795,-3.7900,2.5890,
0.785085,1.2987,-0.3033,0.1405,0.7496,-0.5121,0.6154,1.5795,-3.7900,2.5890,
0.789468,1.2852,-0.3003,0.0921,0.7496,-0.5121,0.6154,1.5795,-3.7900,2.5890,
0.794806,1.2676,-0.3055,0.0635,0.7496,-0.5121,0.6154,1.5795,-3.7900,2.5890,
0.800200,1.2449,-0.3189,0.0491,0.7496,-0.5121,0.6154,1.5795,-3.7900,2.5890,
0.801565,1.2449,-0.3189,0.0491,0.7496,-0.5121,0.6154,2.2570,-2.6236,2.8553,
0.802518,1.2449,-0.3189,0.0491,2.7167,-0.8764,1.1297,2.2570,-2.6236,2.8553,
0.804879,1.2234,-0.3387,0.0466,2.7167,-0.8764,1.1297,2.2570,-2.6236,2.8553,
0.811391,1.2070,-0.3644,0.0581,2.7167,-0.8764,1.1297,2.2570,-2.6236,2.8553,
0.815250,1.1983,-0.4000,0.1014,2.7167,-0.8764,1.1297,2.2570,-2.6236,2.8553,
0.819998,1.1873,-0.4567,0.1664,2.7167,-0.8764,1.1297,2.2570,-2.6236,2.8553,
0.824229,1.1736,-0.5156,0.2524,2.7167,-0.8764,1.1297,2.2570,-2.6236,2.8553,
0.829455,1.1731,-0.5630,0.3283,2.7167,-0.8764,1.1297,2.2570,-2.6236,2.8553,
0.835407,1.1645,-0.5815,0.3796,2.7167,-0.8764,1.1297,2.2570,-2.6236,2.8553,
0.841648,1.1684,-0.5894,0.4331,2.7167,-0.8764,1.1297,2.2570,-2.6236,2.8553,
0.843013,1.1684,-0.5894,0.4331,2.7167,-0.8764,1.1297,2.4211,-1.7628,2.6359,
0.843866,1.1684,-0.5894,0.4331,2.6146,-0.1715,1.3427,2.4211,-1.7628,2.6359,
0.847365,1.2156,-0.6221,0.4603,2.6146,-0.1715,1.3427,2.4211,-1.7628,2.6359,
0.854628,1.2481,-0.6316,0.4620,2.6146,-0.1715,1.3427,2.4211,-1.7628,2.6359,
0.856450,1.2417,-0.6140,0.4129,2.6146,-0.1715,1.3427,2.4211,-1.7628,2.6359,
0.863008,1.2183,-0.5754,0.3095,2.6146,-0.1715,1.3427,2.4211,-1.7628,2.6359,
0.865569,1.2061,-0.5239,0.2133,2.6146,-0.1715,1.3427,2.4211,-1.7628,2.6359,
0.871249,1.2312,-0.5100,0.1014,2.6146,-0.1715,1.3427,2.4211,-1.7628,2.6359,
0.874320,1.2434,-0.5002,-0.0203,2.6146,-0.1715,1.3427,2.4211,-1.7628,2.6359,
0.880742,1.2124,-0.4599,-0.1363,2.6146,-0.1715,1.3427,2.4211,-1.7628,2.6359,
0.882496,1.2124,-0.4599,-0.1363,2.6146,-0.1715,1.3427,2.3167,-0.9266,2.6497,
0.883469,1.2124,-0.4599,-0.1363,2.9949,-0.7555,0.0957,2.3167,-0.9266,2.6497,
0.884832,1.1538,-0.4279,-0.2363,2.9949,-0.7555,0.0957,2.3167,-0.9266,2.6497,
0.891616,1.0988,-0.4042,-0.2917,2.9949,-0.7555,0.0957,2.3167,-0.9266,2.6497,
0.896662,1.0539,-0.3881,-0.2900,2.9949,-0.7555,0.0957,2.3167,-0.9266,2.6497,
0.900927,1.0248,-0.3775,-0.2424,2.9949,-0.7555,0.0957,2.3167,-0.9266,2.6497,
0.906302,1.0114,-0.3761,-0.2045,2.9949,-0.7555,0.0957,2.3167,-0.9266,2.6497,
0.910741,1.0096,-0.3651,-0.1263,2.9949,-0.7555,0.0957,2.3167,-0.9266,2.6497,
0.916073,1.0077,-0.3499,-0.0696,2.9949,-0.7555,0.0957,2.3167,-0.9266,2.6497,
0.919947,1.2285,-0.2639,-0.3362,2.9949,-0.7555,0.0957,2.3167,-0.9266,2.6497,
0.921346,1.2285,-0.2639,-0.3362,2.9949,-0.7555,0.0957,2.5862,-0.1191,2.6551,
0.922439,1.2285,-0.2639,-0.3362,2.4844,0.4501,-3.4649,2.5862,-0.1191,2.6551,
0.923809,1.4721,-0.1186,-0.8077,2.4844,0.4501,-3.4649,2.5862,-0.1191,2.6551,
0.932293,1.6439,0.0080,-1.0952,2.4844,0.4501,-3.4649,2.5862,-0.1191,2.6551,
0.935671,1.7848,0.0522,-1.0759,2.4844,0.4501,-3.4649,2.5862,-0.1191,2.6551,
0.939375,1.7316,0.0307,-0.8883,2.4844,0.4501,-3.4649,2.5862,-0.1191,2.6551,
0.949907,1.5320,-0.0419,-0.6892,2.4844,0.4501,-3.4649,2.5862,-0.1191,2.6551,
0.952149,1.3324,-0.1616,-0.5221,2.4844,0.4501,-3.4649,2.5862,-0.1191,2.6551,
0.955806,1.1983,-0.2867,-0.3794,2.4844,0.4501,-3.4649,2.5862,-0.1191,2.6551,
0.959189,1.0695,-0.3810,-0.2883,2.4844,0.4501,-3.4649,2.5862,-0.1191,2.6551,
0.961235,1.0695,-0.3810,-0.2883,2.4844,0.4501,-3.4649,0.9340,-0.1873,1.9339,
0.962370,1.0695,-0.3810,-0.2883,2.6368,0.9305,-3.3250,0.9340,-0.1873,1.9339,
0.963684,0.9669,-0.4384,-0.2321,2.6368,0.9305,-3.3250,0.9340,-0.1873,1.9339,
0.969718,0.9158,-0.4719,-0.1864,2.6368,0.9305,-3.3250,0.9340,-0.1873,1.9339,
0.974023,0.8298,-0.5170,-0.1231,2.6368,0.9305,-3.3250,0.9340,-0.1873,1.9339,
0.979109,0.7106,-0.5899,-0.0533,2.6368,0.9305,-3.3250,0.9340,-0.1873,1.9339,
0.985481,0.6403,-0.6458,0.0178,2.6368,0.9305,-3.3250,0.9340,-0.1873,1.9339,
0.987818,0.6232,-0.6795,0.0892,2.6368,0.9305,-3.3250,0.9340,-0.1873,1.9339,
0.995250,0.6087,-0.7164,0.1732,2.6368,0.9305,-3.3250,0.9340,-0.1873,1.9339,
1.001680,0.6168,-0.7506,0.2047,2.6368,0.9305,-3.3250,0.9340,-0.1873,1.9339,
1.003567,0.6168,-0.7506,0.2047,2.6368,0.9305,-3.3250,-1.2764,0.5403,0.7653,
1.004562,0.6168,-0.7506,0.2047,3.4489,2.5921,-6.5304,-1.2764,0.5403,0.7653,
1.005716,0.6200,-0.7897,0.1942,3.4489,2.5921,-6.5304,-1.2764,0.5403,0.7653,
1.008222,0.5960,-0.8315,0.1510,3.4489,2.5921,-6.5304,-1.2764,0.5403,0.7653,
1.013650,0.5907,-0.8532,0.1016,3.4489,2.5921,-6.5304,-1.2764,0.5403,0.7653,
1.019333,0.5914,-0.8544,0.0601,3.4489,2.5921,-6.5304,-1.2764,0.5403,0.7653,
1.022783,0.5814,-0.8344,0.0383,3.4489,2.5921,-6.5304,-1.2764,0.5403,0.7653,
1.028629,0.5613,-0.7919,-0.0059,3.4489,2.5921,-6.5304,-1.2764,0.5403,0.7653,
1.034668,0.5135,-0.7496,-0.0816,3.4489,2.5921,-6.5304,-1.2764,0.5403,0.7653,
1.037484,0.4971,-0.7184,-0.1461,3.4489,2.5921,-6.5304,-1.2764,0.5403,0.7653,
1.039065,0.4971,-0.7184,-0.1461,3.4489,2.5921,-6.5304,-0.5776,-0.0435,1.1008,
1.040378,0.4971,-0.7184,-0.1461,3.4399,2.7965,-5.9659,-0.5776,-0.0435,1.1008,
1.045351,0.4592,-0.7039,-0.1808,3.4399,2.7965,-5.9659,-0.5776,-0.0435,1.1008,
1.050769,0.4717,-0.6934,-0.1974,3.4399,2.7965,-5.9659,-0.5776,-0.0435,1.1008,
1.053699,0.4942,-0.6900,-0.1722,3.4399,2.7965,-5.9659,-0.5776,-0.0435,1.1008,
1.062022,0.4502,-0.6783,0.0132,3.4399,2.7965,-5.9659,-0.5776,-0.0435,1.1008,
1.065013,0.5193,-0.6827,0.0867,3.4399,2.7965,-5.9659,-0.5776,-0.0435,1.1008,
1.070567,0.6217,-0.7069,0.1133,3.4399,2.7965,-5.9659,-0.5776,-0.0435,1.1008,
1.075235,0.6471,-0.7237,0.1822,3.4399,2.7965,-5.9659,-0.5776,-0.0435,1.1008,
1.080667,0.6991,-0.7127,0.3022,3.4399,2.7965,-5.9659,-0.5776,-0.0435,1.1008,
1.082595,0.6991,-0.7127,0.3022,3.4399,2.7965,-5.9659,0.3758,-1.0129,1.7794,
1.083863,0.6991,-0.7127,0.3022,-2.4388,-1.3702,-0.6111,0.3758,-1.0129,1.7794,
1.085053,0.7197,-0.5657,0.5438,-2.4388,-1.3702,-0.6111,0.3758,-1.0129,1.7794,
1.087604,0.8017,-0.3964,0.5096,-2.4388,-1.3702,-0.6111,0.3758,-1.0129,1.7794,
1.094295,0.8113,-0.2520,0.2958,-2.4388,-1.3702,-0.6111,0.3758,-1.0129,1.7794,
1.097318,0.6268,-0.1750,0.1302,-2.4388,-1.3702,-0.6111,0.3758,-1.0129,1.7794,
1.104752,0.5438,-0.2104,-0.0635,-2.4388,-1.3702,-0.6111,0.3758,-1.0129,1.7794,
1.108272,0.6459,-0.3118,-0.2431,-2.4388,-1.3702,-0.6111,0.3758,-1.0129,1.7794,
1.113472,0.7128,-0.3541,-0.1852,-2.4388,-1.3702,-0.6111,0.3758,-1.0129,1.7794,
1.118673,0.6285,-0.3402,0.1473,-2.4388,-1.3702,-0.6111,0.3758,-1.0129,1.7794,
1.119772,0.6285,-0.3402,0.1473,-2.4388,-1.3702,-0.6111,0.1681,-0.5889,1.8827,
1.120395,0.6285,-0.3402,0.1473,-1.1795,1.7368,0.3449,0.1681,-0.5889,1.8827,
1.123632,0.6564,-0.5476,0.2103,-1.1795,1.7368,0.3449,0.1681,-0.5889,1.8827,
1.127326,0.5354,-0.6216,-0.1395,-1.1795,1.7368,0.3449,0.1681,-0.5889,1.8827,
1.133200,0.4692,-0.5024,0.0085,-1.1795,1.7368,0.3449,0.1681,-0.5889,1.8827,
1.136323,0.3989,-0.5620,-0.0147,-1.1795,1.7368,0.3449,0.1681,-0.5889,1.8827,
1.143751,0.3244,-0.7711,-0.0237,-1.1795,1.7368,0.3449,0.1681,-0.5889,1.8827,
1.147277,0.3092,-0.9241,-0.0806,-1.1795,1.7368,0.3449,0.1681,-0.5889,1.8827,
1.152751,0.3806,-0.9392,-0.0518,-1.1795,1.7368,0.3449,0.1681,-0.5889,1.8827,
1.156371,0.4741,-0.8735,-0.0731,-1.1795,1.7368,0.3449,0.1681,-0.5889,1.8827,
1.156881,0.4741,-0.8735,-0.0731,-1.1795,1.7368,0.3449,-0.5680,0.0566,1.4140,
1.157426,0.4741,-0.8735,-0.0731,-0.7492,2.0319,0.4558,-0.5680,0.0566,1.4140,
1.162388,0.5882,-0.8188,-0.0567,-0.7492,2.0319,0.4558,-0.5680,0.0566,1.4140,
1.166986,0.6190,-0.8359,0.0264,-0.7492,2.0319,0.4558,-0.5680,0.0566,1.4140,
1.171712,0.5770,-0.9045,-0.1146,-0.7492,2.0319,0.4558,-0.5680,0.0566,1.4140,
1.176346,0.6034,-0.8579,-0.1989,-0.7492,2.0319,0.4558,-0.5680,0.0566,1.4140,
1.181350,0.5897,-0.8996,-0.1400,-0.7492,2.0319,0.4558,-0.5680,0.0566,1.4140,
1.185833,0.5205,-0.8957,-0.2280,-0.7492,2.0319,0.4558,-0.5680,0.0566,1.4140,
1.191076,0.5166,-0.7931,-0.2876,-0.7492,2.0319,0.4558,-0.5680,0.0566,1.4140,
1.196751,0.5616,-0.7237,-0.2844,-0.7492,2.0319,0.4558,-0.5680,0.0566,1.4140,
1.198321,0.5616,-0.7237,-0.2844,-0.7492,2.0319,0.4558,-1.6312,-0.3056,1.4162,
1.200974,0.6442,-0.7311,-0.3726,-0.7492,2.0319,0.4558,-1.6312,-0.3056,1.4162,
1.202283,0.6442,-0.7311,-0.3726,-1.5662,0.1419,-0.3908,-1.6312,-0.3056,1.4162,
1.206072,0.5303,-0.5903,-0.4268,-1.5662,0.1419,-0.3908,-1.6312,-0.3056,1.4162,
1.211640,0.5352,-0.4838,-0.2675,-1.5662,0.1419,-0.3908,-1.6312,-0.3056,1.4162,
1.216577,0.6229,-0.4274,-0.1053,-1.5662,0.1419,-0.3908,-1.6312,-0.3056,1.4162,
1.220963,0.6393,-0.6016,-0.1114,-1.5662,0.1419,-0.3908,-1.6312,-0.3056,1.4162,
1.227830,0.5376,-0.8439,-0.2035,-1.5662,0.1419,-0.3908,-1.6312,-0.3056,1.4162,
1.231369,0.4753,-1.0868,-0.1622,-1.5662,0.1419,-0.3908,-1.6312,-0.3056,1.4162,
1.236010,0.3955,-1.3479,-0.2419,-1.5662,0.1419,-0.3908,-1.6312,-0.3056,1.4162,
1.237178,0.3955,-1.3479,-0.2419,-1.5662,0.1419,-0.3908,-2.1670,-0.2704,1.1402,
1.238143,0.3955,-1.3479,-0.2419,-1.1593,0.3858,0.2999,-2.1670,-0.2704,1.1402,
1.240284,0.3881,-1.5810,-0.2961,-1.1593,0.3858,0.2999,-2.1670,-0.2704,1.1402,
1.247214,0.4924,-1.7877,-0.2162,-1.1593,0.3858,0.2999,-2.1670,-0.2704,1.1402,
1.251181,0.6307,-1.9289,-0.1131,-1.1593,0.3858,0.2999,-2.1670,-0.2704,1.1402,
1.255797,0.7353,-1.9597,-0.0479,-1.1593,0.3858,0.2999,-2.1670,-0.2704,1.1402,
1.261448,0.8206,-1.9228,-0.0323,-1.1593,0.3858,0.2999,-2.1670,-0.2704,1.1402,
1.267735,0.8872,-1.8312,-0.0584,-1.1593,0.3858,0.2999,-2.1670,-0.2704,1.1402,
1.270576,0.8682,-1.6604,-0.0489,-1.1593,0.3858,0.2999,-2.1670,-0.2704,1.1402,
1.275653,0.7172,-1.4239,-0.0662,-1.1593,0.3858,0.2999,-2.1670,-0.2704,1.1402,
1.277867,0.7172,-1.4239,-0.0662,-1.1593,0.3858,0.2999,-1.4916,0.5381,0.2401,
1.279038,0.7172,-1.4239,-0.0662,-0.7660,-0.6984,-1.3899,-1.4916,0.5381,0.2401,
1.280054,0.4859,-1.2590,-0.1038,-0.7660,-0.6984,-1.3899,-1.4916,0.5381,0.2401,
1.289103,0.6867,-1.2656,-0.1012,-0.7660,-0.6984,-1.3899,-1.4916,0.5381,0.2401,
1.291877,0.3564,-0.8500,-0.3489,-0.7660,-0.6984,-1.3899,-1.4916,0.5381,0.2401,
1.295290,0.4438,-0.6219,-0.3780,-0.7660,-0.6984,-1.3899,-1.4916,0.5381,0.2401,
1.302066,0.6764,-0.6717,-0.4144,-0.7660,-0.6984,-1.3899,-1.4916,0.5381,0.2401,
1.304866,0.6442,-0.6751,-0.4476,-0.7660,-0.6984,-1.3899,-1.4916,0.5381,0.2401,
1.312669,0.4324,-0.6739,-0.4503,-0.7660,-0.6984,-1.3899,-1.4916,0.5381,0.2401,
1.316423,0.4324,-0.6739,-0.4503,0.3310,-5.5713,-0.8205,-1.4916,0.5381,0.2401,
1.317575,0.2337,-0.6949,-0.4236,0.3310,-5.5713,-0.8205,-1.4916,0.5381,0.2401,
1.318305,0.2337,-0.6949,-0.4236,0.3310,-5.5713,-0.8205,-0.4999,0.7980,0.0782,
1.321057,0.2027,-0.7719,-0.3875,0.3310,-5.5713,-0.8205,-0.4999,0.7980,0.0782,
1.327177,0.1812,-0.8732,-0.2922,0.3310,-5.5713,-0.8205,-0.4999,0.7980,0.0782,
1.331346,0.2222,-0.9028,-0.1957,0.3310,-5.5713,-0.8205,-0.4999,0.7980,0.0782,
1.334578,0.2924,-0.9060,-0.1449,0.3310,-5.5713,-0.8205,-0.4999,0.7980,0.0782,
1.341467,0.3090,-0.9277,-0.1305,0.3310,-5.5713,-0.8205,-0.4999,0.7980,0.0782,
1.346296,0.3564,-0.9199,-0.0860,0.3310,-5.5713,-0.8205,-0.4999,0.7980,0.0782,
1.350279,0.4407,-0.8945,-0.0792,0.3310,-5.5713,-0.8205,-0.4999,0.7980,0.0782,
1.356791,0.5130,-0.8625,-0.1818,0.3310,-5.5713,-0.8205,-0.4999,0.7980,0.0782,
1.357947,0.5130,-0.8625,-0.1818,0.3310,-5.5713,-0.8205,-1.4352,0.2686,2.0084,
1.358802,0.5130,-0.8625,-0.1818,0.9151,-4.9224,-0.4025,-1.4352,0.2686,2.0084,
1.361872,0.5413,-0.8688,-0.2280,0.9151,-4.9224,-0.4025,-1.4352,0.2686,2.0084,
1.364606,0.4951,-0.8444,-0.1119,0.9151,-4.9224,-0.4025,-1.4352,0.2686,2.0084,
1.370530,0.4648,-0.8332,-0.0943,0.9151,-4.9224,-0.4025,-1.4352,0.2686,2.0084,
1.375351,0.5731,-0.8378,-0.1798,0.9151,-4.9224,-0.4025,-1.4352,0.2686,2.0084,
1.380303,0.5809,-0.8894,-0.2365,0.9151,-4.9224,-0.4025,-1.4352,0.2686,2.0084,
1.386019,0.5137,-0.9492,-0.2228,0.9151,-4.9224,-0.4025,-1.4352,0.2686,2.0084,
1.390118,0.4060,-0.9790,-0.1952,0.9151,-4.9224,-0.4025,-1.4352,0.2686,2.0084,
1.395505,0.3090,-0.9851,-0.1881,0.9151,-4.9224,-0.4025,-1.4352,0.2686,2.0084,
1.397126,0.3090,-0.9851,-0.1881,0.9151,-4.9224,-0.4025,-0.7513,-0.7775,2.6433,
1.398687,0.3090,-0.9851,-0.1881,-0.9033,0.7065,-0.3001,-0.7513,-0.7775,2.6433,
1.400412,0.2645,-0.9822,-0.2138,-0.9033,0.7065,-0.3001,-0.7513,-0.7775,2.6433,
1.404276,0.2582,-0.9597,-0.2233,-0.9033,0.7065,-0.3001,-0.7513,-0.7775,2.6433,
1.409712,0.2371,-0.9148,-0.1718,-0.9033,0.7065,-0.3001,-0.7513,-0.7775,2.6433,
1.414073,0.2630,-0.8798,-0.1143,-0.9033,0.7065,-0.3001,-0.7513,-0.7775,2.6433,
1.419249,0.2543,-0.8422,-0.0931,-0.9033,0.7065,-0.3001,-0.7513,-0.7775,2.6433,
1.424009,0.2269,-0.8185,-0.0633,-0.9033,0.7065,-0.3001,-0.7513,-0.7775,2.6433,
1.429211,0.2091,-0.8166,-0.0371,-0.9033,0.7065,-0.3001,-0.7513,-0.7775,2.6433,
1.434471,0.2183,-0.8185,-0.0611,-0.9033,0.7065,-0.3001,-0.7513,-0.7775,2.6433,
1.435925,0.2183,-0.8185,-0.0611,-0.9033,0.7065,-0.3001,0.3300,-0.7413,0.4404,
1.436690,0.2183,-0.8185,-0.0611,-0.9270,0.2669,0.2993,0.3300,-0.7413,0.4404,
1.438395,0.1832,-0.8337,-0.1187,-0.9270,0.2669,0.2993,0.3300,-0.7413,0.4404,
1.444727,0.1582,-0.8515,-0.1505,-0.9270,0.2669,0.2993,0.3300,-0.7413,0.4404,
1.451084,0.1409,-0.8376,-0.1769,-0.9270,0.2669,0.2993,0.3300,-0.7413,0.4404,
1.454647,0.1331,-0.8036,-0.1710,-0.9270,0.2669,0.2993,0.3300,-0.7413,0.4404,
1.461667,0.1387,-0.7714,-0.1788,-0.9270,0.2669,0.2993,0.3300,-0.7413,0.4404,
1.464955,0.1338,-0.7499,-0.1722,-0.9270,0.2669,0.2993,0.3300,-0.7413,0.4404,
1.471211,0.1531,-0.7254,-0.1593,-0.9270,0.2669,0.2993,0.3300,-0.7413,0.4404,
1.474160,0.1888,-0.7013,-0.1415,-0.9270,0.2669,0.2993,0.3300,-0.7413,0.4404,
1.475661,0.1888,-0.7013,-0.1415,-0.9270,0.2669,0.2993,-0.1057,1.0207,0.1016,
1.476474,0.1888,-0.7013,-0.1415,-0.9169,0.2639,0.1606,-0.1057,1.0207,0.1016,
1.480493,0.2269,-0.7037,-0.1434,-0.9169,0.2639,0.1606,-0.1057,1.0207,0.1016,
1.485339,0.2723,-0.7465,-0.1180,-0.9169,0.2639,0.1606,-0.1057,1.0207,0.1016,
1.488921,0.2745,-0.8339,-0.0997,-0.9169,0.2639,0.1606,-0.1057,1.0207,0.1016,
1.496602,0.2117,-0.6473,-0.1383,-0.9169,0.2639,0.1606,-0.1057,1.0207,0.1016,
1.499455,-0.3890,0.0666,-0.7171,-0.9169,0.2639,0.1606,-0.1057,1.0207,0.1016,
1.505783,-0.6187,0.0151,-0.3968,-0.9169,0.2639,0.1606,-0.1057,1.0207,0.1016,
1.509005,0.0676,-0.3673,0.6298,-0.9169,0.2639,0.1606,-0.1057,1.0207,0.1016,
1.515960,0.2694,-0.3841,0.3391,-0.9169,0.2639,0.1606,-0.1057,1.0207,0.1016,
1.517705,0.2694,-0.3841,0.3391,-0.9169,0.2639,0.1606,-0.4977,2.4737,-0.0315,
1.519042,0.2694,-0.3841,0.3391,-2.8268,2.0454,-0.4239,-0.4977,2.4737,-0.0315,
1.520225,0.1585,-0.3150,-0.0117,-2.8268,2.0454,-0.4239,-0.4977,2.4737,-0.0315,
1.523510,0.1792,-0.3023,0.0684,-2.8268,2.0454,-0.4239,-0.4977,2.4737,-0.0315,
1.530459,0.2122,-0.3380,0.1207,-2.8268,2.0454,-0.4239,-0.4977,2.4737,-0.0315,
1.534564,0.1927,-0.3299,0.1226,-2.8268,2.0454,-0.4239,-0.4977,2.4737,-0.0315,
1.542576,0.1297,-0.2346,0.0506,-2.8268,2.0454,-0.4239,-0.4977,2.4737,-0.0315,
1.543739,0.1201,-0.1105,-0.0916,-2.8268,2.0454,-0.4239,-0.4977,2.4737,-0.0315,
1.549802,0.2122,-0.1186,-0.1180,-2.8268,2.0454,-0.4239,-0.4977,2.4737,-0.0315,
1.555214,0.2381,-0.1174,-0.0953,-2.8268,2.0454,-0.4239,-0.4977,2.4737,-0.0315,
1.556535,0.2381,-0.1174,-0.0953,-2.8268,2.0454,-0.4239,-0.2048,1.8814,1.5397,
1.557328,0.2381,-0.1174,-0.0953,-2.2714,2.1787,-0.6237,-0.2048,1.8814,1.5397,
1.559276,0.2354,-0.1345,0.0337,-2.2714,2.1787,-0.6237,-0.2048,1.8814,1.5397,
1.563056,0.1876,-0.1332,0.1734,-2.2714,2.1787,-0.6237,-0.2048,1.8814,1.5397,
1.569625,0.1800,-0.1450,0.2558,-2.2714,2.1787,-0.6237,-0.2048,1.8814,1.5397,
1.573468,0.2015,-0.1599,0.3015,-2.2714,2.1787,-0.6237,-0.2048,1.8814,1.5397,
1.579426,0.2406,-0.1855,0.4065,-2.2714,2.1787,-0.6237,-0.2048,1.8814,1.5397,
1.582529,0.2589,-0.2117,0.3613,-2.2714,2.1787,-0.6237,-0.2048,1.8814,1.5397,
1.587374,0.2753,-0.2649,0.3298,-2.2714,2.1787,-0.6237,-0.2048,1.8814,1.5397,
1.592887,0.2726,-0.3939,0.2797,-2.2714,2.1787,-0.6237,-0.2048,1.8814,1.5397,
1.594219,0.2726,-0.3939,0.2797,-2.2714,2.1787,-0.6237,0.9926,0.8684,2.2066,
1.595010,0.2726,-0.3939,0.2797,-1.6131,6.9280,1.3336,0.9926,0.8684,2.2066,
1.598536,0.2694,-0.5698,0.2892,-1.6131,6.9280,1.3336,0.9926,0.8684,2.2066,
1.602612,0.2308,-0.8244,0.3452,-1.6131,6.9280,1.3336,0.9926,0.8684,2.2066,
1.607315,0.2076,-0.8830,0.1859,-1.6131,6.9280,1.3336,0.9926,0.8684,2.2066,
1.614087,0.2252,-1.0179,0.1695,-1.6131,6.9280,1.3336,0.9926,0.8684,2.2066,
1.620907,0.1641,-1.4295,0.4068,-1.6131,6.9280,1.3336,0.9926,0.8684,2.2066,
1.623182,0.0031,-1.4635,-0.0503,-1.6131,6.9280,1.3336,0.9926,0.8684,2.2066,
1.627486,-0.1467,-1.5732,-0.0533,-1.6131,6.9280,1.3336,0.9926,0.8684,2.2066,
1.633156,-0.1467,-1.5732,-0.0533,-0.6181,2.2533,2.4618,0.9926,0.8684,2.2066,
1.634957,-0.1914,-1.7603,0.1490,-0.6181,2.2533,2.4618,0.9926,0.8684,2.2066,
1.635986,-0.1914,-1.7603,0.1490,-0.6181,2.2533,2.4618,1.2184,1.3435,1.0731,
1.637230,-0.2510,-1.8400,0.0738,-0.6181,2.2533,2.4618,1.2184,1.3435,1.0731,
1.642425,-0.2593,-1.7931,-0.0516,-0.6181,2.2533,2.4618,1.2184,1.3435,1.0731,
1.647582,-0.0233,-2.3669,-0.2209,-0.6181,2.2533,2.4618,1.2184,1.3435,1.0731,
1.654267,0.4438,-3.5504,-0.5084,-0.6181,2.2533,2.4618,1.2184,1.3435,1.0731,
1.657419,0.8951,-4.2791,-0.6990,-0.6181,2.2533,2.4618,1.2184,1.3435,1.0731,
1.664152,1.0387,-4.2088,-0.6482,-0.6181,2.2533,2.4618,1.2184,1.3435,1.0731,
1.667742,0.8743,-3.5721,-0.5807,-0.6181,2.2533,2.4618,1.2184,1.3435,1.0731,
1.673961,0.2359,-2.2411,-0.6577,-0.6181,2.2533,2.4618,1.2184,1.3435,1.0731,
1.675461,0.2359,-2.2411,-0.6577,-0.6181,2.2533,2.4618,0.9542,2.9840,1.2894,
1.676445,0.2359,-2.2411,-0.6577,-0.1089,2.2601,1.7859,0.9542,2.9840,1.2894,
1.680954,0.1341,-1.5979,-0.3626,-0.1089,2.2601,1.7859,0.9542,2.9840,1.2894,
1.682886,0.5897,-2.0308,0.3022,-0.1089,2.2601,1.7859,0.9542,2.9840,1.2894,
1.689436,0.4199,-1.8959,0.3711,-0.1089,2.2601,1.7859,0.9542,2.9840,1.2894,
1.692498,0.2015,-1.7681,0.1720,-0.1089,2.2601,1.7859,0.9542,2.9840,1.2894,
1.699073,0.1172,-1.6868,-0.0833,-0.1089,2.2601,1.7859,0.9542,2.9840,1.2894,
1.702910,0.0637,-1.4290,-0.3376,-0.1089,2.2601,1.7859,0.9542,2.9840,1.2894,
1.708882,0.0505,-1.0865,-0.5272,-0.1089,2.2601,1.7859,0.9542,2.9840,1.2894,
1.714053,0.1490,-0.8960,-0.4957,-0.1089,2.2601,1.7859,0.9542,2.9840,1.2894,
1.715740,0.1490,-0.8960,-0.4957,-0.1089,2.2601,1.7859,-0.0407,1.9421,1.0827,
1.717025,0.1490,-0.8960,-0.4957,1.5794,-14.9946,-2.6618,-0.0407,1.9421,1.0827,
1.721423,0.2946,-0.7995,-0.3792,1.5794,-14.9946,-2.6618,-0.0407,1.9421,1.0827,
1.724222,0.4563,-0.7391,-0.2827,1.5794,-14.9946,-2.6618,-0.0407,1.9421,1.0827,
1.727281,0.6134,-0.7369,-0.2189,1.5794,-14.9946,-2.6618,-0.0407,1.9421,1.0827,
1.740134,0.7915,-0.7269,-0.2072,1.5794,-14.9946,-2.6618,-0.0407,1.9421,1.0827,
1.741895,0.9972,-0.7010,-0.1828,1.5794,-14.9946,-2.6618,-0.0407,1.9421,1.0827,
1.749277,0.9251,-0.9043,-0.0469,1.5794,-14.9946,-2.6618,-0.0407,1.9421,1.0827,
1.751470,0.7766,-1.1635,0.1471,1.5794,-14.9946,-2.6618,-0.0407,1.9421,1.0827,
1.753559,0.4499,-1.3484,-0.0108,1.5794,-14.9946,-2.6618,-0.0407,1.9421,1.0827,
1.755307,0.4499,-1.3484,-0.0108,1.5794,-14.9946,-2.6618,-0.1568,0.5648,0.3828,
1.756452,0.4499,-1.3484,-0.0108,1.6762,-14.3931,-2.5318,-0.1568,0.5648,0.3828,
1.757825,0.2450,-1.2746,-0.2338,1.6762,-14.3931,-2.5318,-0.1568,0.5648,0.3828,
1.763140,0.2982,-1.0936,-0.3386,1.6762,-14.3931,-2.5318,-0.1568,0.5648,0.3828,
1.768265,0.3483,-0.9531,-0.3169,1.6762,-14.3931,-2.5318,-0.1568,0.5648,0.3828,
1.771727,0.3200,-0.9009,-0.1837,1.6762,-14.3931,-2.5318,-0.1568,0.5648,0.3828,
1.780118,0.2547,-0.8967,-0.0298,1.6762,-14.3931,-2.5318,-0.1568,0.5648,0.3828,
1.782147,0.1912,-0.8965,0.0884,1.6762,-14.3931,-2.5318,-0.1568,0.5648,0.3828,
1.786090,0.1426,-0.8974,0.1517,1.6762,-14.3931,-2.5318,-0.1568,0.5648,0.3828,
1.791189,0.1162,-0.8994,0.1752,1.6762,-14.3931,-2.5318,-0.1568,0.5648,0.3828,
1.793249,0.1162,-0.8994,0.1752,1.6762,-14.3931,-2.5318,-0.4338,0.3197,0.0324,
1.794215,0.1162,-0.8994,0.1752,2.9551,0.2407,-2.4265,-0.4338,0.3197,0.0324,
1.806094,0.0942,-0.9065,0.1825,2.9551,0.2407,-2.4265,-0.4338,0.3197,0.0324,
1.808759,0.0720,-0.9118,0.1940,2.9551,0.2407,-2.4265,-0.4338,0.3197,0.0324,
1.810111,0.0517,-0.9250,0.1945,2.9551,0.2407,-2.4265,-0.4338,0.3197,0.0324,
1.811229,0.0297,-0.9412,0.1869,2.9551,0.2407,-2.4265,-0.4338,0.3197,0.0324,
1.815881,0.0234,-0.9585,0.1686,2.9551,0.2407,-2.4265,-0.4338,0.3197,0.0324,
1.822364,0.0307,-0.9666,0.1290,2.9551,0.2407,-2.4265,-0.4338,0.3197,0.0324,
1.830046,0.0473,-0.9690,0.0806,2.9551,0.2407,-2.4265,-0.4338,0.3197,0.0324,
1.832355,0.0517,-0.9744,0.0361,2.9551,0.2407,-2.4265,-0.4338,0.3197,0.0324,
1.833186,0.0517,-0.9744,0.0361,2.9551,0.2407,-2.4265,-0.4509,0.2888,-0.1253,
1.834004,0.0517,-0.9744,0.0361,-0.0745,1.2060,0.3383,-0.4509,0.2888,-0.1253,
1.835675,0.0446,-0.9825,0.0005,-0.0745,1.2060,0.3383,-0.4509,0.2888,-0.1253,
1.840131,0.0310,-0.9925,-0.0213,-0.0745,1.2060,0.3383,-0.4509,0.2888,-0.1253,
1.846817,0.0246,-0.9996,-0.0371,-0.0745,1.2060,0.3383,-0.4509,0.2888,-0.1253,
1.850181,0.0351,-1.0081,-0.0496,-0.0745,1.2060,0.3383,-0.4509,0.2888,-0.1253,
1.857566,0.0551,-1.0123,-0.0606,-0.0745,1.2060,0.3383,-0.4509,0.2888,-0.1253,
1.860878,0.0937,-1.0132,-0.0613,-0.0745,1.2060,0.3383,-0.4509,0.2888,-0.1253,
1.867285,0.1446,-1.0103,-0.0552,-0.0745,1.2060,0.3383,-0.4509,0.2888,-0.1253,
1.871204,0.1934,-1.0064,-0.0586,-0.0745,1.2060,0.3383,-0.4509,0.2888,-0.1253,
1.874110,0.1934,-1.0064,-0.0586,-0.0103,1.1712,0.2697,-0.4509,0.2888,-0.1253,
1.876023,0.1934,-1.0064,-0.0586,-0.0103,1.1712,0.2697,0.0370,0.7107,0.1464,
1.877427,0.2315,-1.0037,-0.0567,-0.0103,1.1712,0.2697,0.0370,0.7107,0.1464,
1.882470,0.2594,-0.9937,-0.0577,-0.0103,1.1712,0.2697,0.0370,0.7107,0.1464,
1.887978,0.2748,-0.9773,-0.0635,-0.0103,1.1712,0.2697,0.0370,0.7107,0.1464,
1.891298,0.2882,-0.9614,-0.0599,-0.0103,1.1712,0.2697,0.0370,0.7107,0.1464,
1.898336,0.2958,-0.9448,-0.0479,-0.0103,1.1712,0.2697,0.0370,0.7107,0.1464,
1.900657,0.3070,-0.9062,-0.0203,-0.0103,1.1712,0.2697,0.0370,0.7107,0.1464,
1.907287,0.3244,-0.8732,0.0037,-0.0103,1.1712,0.2697,0.0370,0.7107,0.1464,
1.909276,0.3512,-0.8434,0.0352,-0.0103,1.1712,0.2697,0.0370,0.7107,0.1464,
1.910723,0.3512,-0.8434,0.0352,-0.0103,1.1712,0.2697,0.0370,0.8620,0.4638,
1.911503,0.3512,-0.8434,0.0352,-0.1731,0.5762,-0.5329,0.0370,0.8620,0.4638,
1.915784,0.3852,-0.8249,0.0613,-0.1731,0.5762,-0.5329,0.0370,0.8620,0.4638,
1.919480,0.4370,-0.8153,0.0831,-0.1731,0.5762,-0.5329,0.0370,0.8620,0.4638,
1.924655,0.4839,-0.8244,0.0953,-0.1731,0.5762,-0.5329,0.0370,0.8620,0.4638,
1.929210,0.5323,-0.8449,0.0821,-0.1731,0.5762,-0.5329,0.0370,0.8620,0.4638,
1.935749,0.5675,-0.8750,0.0425,-0.1731,0.5762,-0.5329,0.0370,0.8620,0.4638,
1.939236,0.5911,-0.9118,-0.0169,-0.1731,0.5762,-0.5329,0.0370,0.8620,0.4638,
1.943496,0.6039,-0.9478,-0.0652,-0.1731,0.5762,-0.5329,0.0370,0.8620,0.4638,
1.948967,0.6178,-0.9756,-0.0926,-0.1731,0.5762,-0.5329,0.0370,0.8620,0.4638,
1.950585,0.6178,-0.9756,-0.0926,-0.1731,0.5762,-0.5329,-0.1515,0.5807,0.6044,
1.951675,0.6178,-0.9756,-0.0926,3.2093,1.6011,-0.1136,-0.1515,0.5807,0.6044,
1.953981,0.6371,-0.9947,-0.1051,3.2093,1.6011,-0.1136,-0.1515,0.5807,0.6044,
1.961978,0.6495,-1.0003,-0.1073,3.2093,1.6011,-0.1136,-0.1515,0.5807,0.6044,
1.966675,0.6559,-0.9974,-0.1007,3.2093,1.6011,-0.1136,-0.1515,0.5807,0.6044,
1.974459,0.6483,-0.9927,-0.0882,3.2093,1.6011,-0.1136,-0.1515,0.5807,0.6044,
1.976033,0.6246,-0.9795,-0.0755,3.2093,1.6011,-0.1136,-0.1515,0.5807,0.6044,
1.979657,0.5963,-0.9649,-0.0687,3.2093,1.6011,-0.1136,-0.1515,0.5807,0.6044,
1.985790,0.5604,-0.9534,-0.0640,3.2093,1.6011,-0.1136,-0.1515,0.5807,0.6044,
1.990715,0.5174,-0.9463,-0.0660,3.2093,1.6011,-0.1136,-0.1515,0.5807,0.6044,
1.991744,0.5174,-0.9463,-0.0660,3.2093,1.6011,-0.1136,-0.3081,0.1781,0.4276,
1.992633,0.5174,-0.9463,-0.0660,3.2725,1.5667,0.0046,-0.3081,0.1781,0.4276,
1.996981,0.4656,-0.9439,-0.0748,3.2725,1.5667,0.0046,-0.3081,0.1781,0.4276,
1.998718,0.4157,-0.9539,-0.0958,3.2725,1.5667,0.0046,-0.3081,0.1781,0.4276,
2.006546,0.3713,-0.9707,-0.1165,3.2725,1.5667,0.0046,-0.3081,0.1781,0.4276,
2.008731,0.3280,-0.9883,-0.1341,3.2725,1.5667,0.0046,-0.3081,0.1781,0.4276,
2.014556,0.2841,-1.0120,-0.1388,3.2725,1.5667,0.0046,-0.3081,0.1781,0.4276,
2.020169,0.2347,-1.0254,-0.1263,3.2725,1.5667,0.0046,-0.3081,0.1781,0.4276,
2.023426,0.1771,-1.0262,-0.1043,3.2725,1.5667,0.0046,-0.3081,0.1781,0.4276,
2.030889,0.1077,-1.0189,-0.0792,3.2725,1.5667,0.0046,-0.3081,0.1781,0.4276,
2.032605,0.1077,-1.0189,-0.0792,3.2725,1.5667,0.0046,-0.6852,0.3187,-0.1477,
2.033602,0.1077,-1.0189,-0.0792,3.8149,0.6700,-0.7136,-0.6852,0.3187,-0.1477,
2.034706,0.0505,-0.9993,-0.0723,3.8149,0.6700,-0.7136,-0.6852,0.3187,-0.1477,
2.040963,0.0009,-0.9785,-0.0726,3.8149,0.6700,-0.7136,-0.6852,0.3187,-0.1477,
2.042441,-0.0458,-0.9558,-0.0836,3.8149,0.6700,-0.7136,-0.6852,0.3187,-0.1477,
2.048273,-0.0900,-0.9304,-0.1271,3.8149,0.6700,-0.7136,-0.6852,0.3187,-0.1477,
2.057169,-0.1278,-0.9133,-0.1964,3.8149,0.6700,-0.7136,-0.6852,0.3187,-0.1477,
2.060098,-0.1447,-0.9094,-0.2675,3.8149,0.6700,-0.7136,-0.6852,0.3187,-0.1477,
2.065279,-0.1559,-0.9079,-0.3477,3.8149,0.6700,-0.7136,-0.6852,0.3187,-0.1477,
2.071376,-0.1735,-0.9143,-0.4300,3.8149,0.6700,-0.7136,-0.6852,0.3187,-0.1477,
2.073426,-0.1735,-0.9143,-0.4300,3.8149,0.6700,-0.7136,-1.0399,0.6649,-0.8347,
2.074594,-0.1735,-0.9143,-0.4300,3.3545,0.5856,-0.3201,-1.0399,0.6649,-0.8347,
2.075709,-0.1899,-0.9294,-0.5077,3.3545,0.5856,-0.3201,-1.0399,0.6649,-0.8347,
2.081169,-0.2024,-0.9424,-0.5741,3.3545,0.5856,-0.3201,-1.0399,0.6649,-0.8347,
2.091248,-0.1999,-0.9473,-0.6147,3.3545,0.5856,-0.3201,-1.0399,0.6649,-0.8347,
2.093124,-0.1662,-0.9497,-0.6164,3.3545,0.5856,-0.3201,-1.0399,0.6649,-0.8347,
2.097241,-0.1122,-0.9380,-0.5763,3.3545,0.5856,-0.3201,-1.0399,0.6649,-0.8347,
2.100171,-0.0621,-0.9280,-0.4916,3.3545,0.5856,-0.3201,-1.0399,0.6649,-0.8347,
2.103510,-0.0128,-0.9243,-0.3850,3.3545,0.5856,-0.3201,-1.0399,0.6649,-0.8347,
2.109896,0.0354,-0.9096,-0.2924,3.3545,0.5856,-0.3201,-1.0399,0.6649,-0.8347,
2.111495,0.0354,-0.9096,-0.2924,3.3545,0.5856,-0.3201,-1.1060,0.2537,-0.5439,
2.113056,0.0354,-0.9096,-0.2924,-2.3101,0.6737,-1.1786,-1.1060,0.2537,-0.5439,
2.114244,0.0825,-0.9035,-0.2243,-2.3101,0.6737,-1.1786,-1.1060,0.2537,-0.5439,
2.119845,0.1245,-0.8957,-0.1798,-2.3101,0.6737,-1.1786,-1.1060,0.2537,-0.5439,
2.123153,0.1536,-0.8813,-0.1527,-2.3101,0.6737,-1.1786,-1.1060,0.2537,-0.5439,
2.131472,0.1924,-0.8598,-0.1351,-2.3101,0.6737,-1.1786,-1.1060,0.2537,-0.5439,
2.133449,0.2032,-0.8324,-0.1156,-2.3101,0.6737,-1.1786,-1.1060,0.2537,-0.5439,
2.139935,0.2200,-0.8224,-0.1117,-2.3101,0.6737,-1.1786,-1.1060,0.2537,-0.5439,
2.143712,0.2604,-0.8251,-0.1136,-2.3101,0.6737,-1.1786,-1.1060,0.2537,-0.5439,
2.149745,0.2499,-0.8205,-0.0948,-2.3101,0.6737,-1.1786,-1.1060,0.2537,-0.5439,
2.151208,0.2499,-0.8205,-0.0948,-2.3101,0.6737,-1.1786,-1.3553,-0.8904,0.2263,
2.152365,0.2499,-0.8205,-0.0948,-1.1700,1.2074,-1.3039,-1.3553,-0.8904,0.2263,
2.155946,0.2266,-0.8141,-0.0770,-1.1700,1.2074,-1.3039,-1.3553,-0.8904,0.2263,
2.158617,0.2271,-0.8183,-0.0743,-1.1700,1.2074,-1.3039,-1.3553,-0.8904,0.2263,
2.163772,0.1785,-0.8249,-0.0689,-1.1700,1.2074,-1.3039,-1.3553,-0.8904,0.2263,
2.169613,0.0857,-0.8298,-0.0562,-1.1700,1.2074,-1.3039,-1.3553,-0.8904,0.2263,
2.172643,0.0163,-0.8388,-0.0572,-1.1700,1.2074,-1.3039,-1.3553,-0.8904,0.2263,
2.178968,-0.0658,-0.8527,-0.0503,-1.1700,1.2074,-1.3039,-1.3553,-0.8904,0.2263,
2.183198,-0.1606,-0.8681,-0.0589,-1.1700,1.2074,-1.3039,-1.3553,-0.8904,0.2263,
2.189110,-0.2253,-0.8791,-0.0753,-1.1700,1.2074,-1.3039,-1.3553,-0.8904,0.2263,
2.190278,-0.2253,-0.8791,-0.0753,-1.1700,1.2074,-1.3039,-0.9356,-0.8787,-0.0763,
2.190790,-0.2253,-0.8791,-0.0753,-1.0979,1.0965,-0.8504,-0.9356,-0.8787,-0.0763,
2.193363,-0.2610,-0.8901,-0.0777,-1.0979,1.0965,-0.8504,-0.9356,-0.8787,-0.0763,
2.197370,-0.2720,-0.8903,-0.0804,-1.0979,1.0965,-0.8504,-0.9356,-0.8787,-0.0763,
2.204345,-0.2109,-0.8979,-0.0550,-1.0979,1.0965,-0.8504,-0.9356,-0.8787,-0.0763,
2.206727,-0.1493,-0.9011,-0.0132,-1.0979,1.0965,-0.8504,-0.9356,-0.8787,-0.0763,
2.214635,-0.0902,-0.8896,-0.0039,-1.0979,1.0965,-0.8504,-0.9356,-0.8787,-0.0763,
2.217741,-0.0245,-0.8623,0.0098,-1.0979,1.0965,-0.8504,-0.9356,-0.8787,-0.0763,
2.223798,0.0248,-0.8153,0.0457,-1.0979,1.0965,-0.8504,-0.9356,-0.8787,-0.0763,
2.226571,0.0803,-0.7616,0.0997,-1.0979,1.0965,-0.8504,-0.9356,-0.8787,-0.0763,
2.227702,0.0803,-0.7616,0.0997,-1.0979,1.0965,-0.8504,-0.2336,0.0641,-0.8188,
2.228709,0.0803,-0.7616,0.0997,-2.1703,1.3474,1.5772,-0.2336,0.0641,-0.8188,
2.232513,0.1419,-0.7142,0.1532,-2.1703,1.3474,1.5772,-0.2336,0.0641,-0.8188,
2.236881,0.1861,-0.6661,0.1896,-2.1703,1.3474,1.5772,-0.2336,0.0641,-0.8188,
2.242296,0.2266,-0.6267,0.2098,-2.1703,1.3474,1.5772,-0.2336,0.0641,-0.8188,
2.247598,0.2660,-0.6104,0.1871,-2.1703,1.3474,1.5772,-0.2336,0.0641,-0.8188,
2.251142,0.2503,-0.6228,0.1392,-2.1703,1.3474,1.5772,-0.2336,0.0641,-0.8188,
2.255887,0.1854,-0.6641,0.0635,-2.1703,1.3474,1.5772,-0.2336,0.0641,-0.8188,
2.260872,0.1157,-0.7193,-0.0222,-2.1703,1.3474,1.5772,-0.2336,0.0641,-0.8188,
2.266169,0.0554,-0.7887,-0.1183,-2.1703,1.3474,1.5772,-0.2336,0.0641,-0.8188,
2.267576,0.0554,-0.7887,-0.1183,-2.1703,1.3474,1.5772,0.7880,0.5200,-0.9658,
2.268414,0.0554,-0.7887,-0.1183,-2.5087,1.2913,1.1934,0.7880,0.5200,-0.9658,
2.270334,0.0097,-0.8703,-0.2201,-2.5087,1.2913,1.1934,0.7880,0.5200,-0.9658,
2.275617,-0.0238,-0.9602,-0.3237,-2.5087,1.2913,1.1934,0.7880,0.5200,-0.9658,
2.282495,-0.0533,-1.0504,-0.4253,-2.5087,1.2913,1.1934,0.7880,0.5200,-0.9658,
2.285797,-0.0797,-1.1491,-0.5294,-2.5087,1.2913,1.1934,0.7880,0.5200,-0.9658,
2.292553,-0.1081,-1.2512,-0.6293,-2.5087,1.2913,1.1934,0.7880,0.5200,-0.9658,
2.297385,-0.1369,-1.3558,-0.7109,-2.5087,1.2913,1.1934,0.7880,0.5200,-0.9658,
2.302610,-0.1664,-1.4650,-0.7921,-2.5087,1.2913,1.1934,0.7880,0.5200,-0.9658,
2.305773,-0.1887,-1.5656,-0.8514,-2.5087,1.2913,1.1934,0.7880,0.5200,-0.9658,
2.306927,-0.1887,-1.5656,-0.8514,-2.5087,1.2913,1.1934,1.4549,0.3240,-0.8028,
2.307743,-0.1887,-1.5656,-0.8514,-1.4465,2.3747,1.7382,1.4549,0.3240,-0.8028,
2.314653,-0.2072,-1.6763,-0.8016,-1.4465,2.3747,1.7382,1.4549,0.3240,-0.8028,
2.316057,-0.2444,-1.7826,-0.7576,-1.4465,2.3747,1.7382,1.4549,0.3240,-0.8028,
2.323303,-0.2891,-1.8695,-0.7581,-1.4465,2.3747,1.7382,1.4549,0.3240,-0.8028,
2.325842,-0.3350,-1.9157,-0.8099,-1.4465,2.3747,1.7382,1.4549,0.3240,-0.8028,
2.332587,-0.3719,-1.9123,-0.8426,-1.4465,2.3747,1.7382,1.4549,0.3240,-0.8028,
2.341218,-0.3902,-1.8468,-0.7989,-1.4465,2.3747,1.7382,1.4549,0.3240,-0.8028,
2.342890,-0.4032,-1.7159,-0.6777,-1.4465,2.3747,1.7382,1.4549,0.3240,-0.8028,
2.348881,-0.4210,-1.5126,-0.5668,-1.4465,2.3747,1.7382,1.4549,0.3240,-0.8028,
2.350508,-0.4210,-1.5126,-0.5668,-1.4465,2.3747,1.7382,1.0565,-0.1586,-0.5354,
2.352318,-0.4210,-1.5126,-0.5668,-4.5472,-5.1726,-5.8409,1.0565,-0.1586,-0.5354,
2.353561,-0.4530,-1.3088,-0.4781,-4.5472,-5.1726,-5.8409,1.0565,-0.1586,-0.5354,
2.356875,-0.4801,-1.1471,-0.4014,-4.5472,-5.1726,-5.8409,1.0565,-0.1586,-0.5354,
2.360137,-0.4743,-1.0313,-0.3406,-4.5472,-5.1726,-5.8409,1.0565,-0.1586,-0.5354,
2.367968,-0.4188,-0.9500,-0.2807,-4.5472,-5.1726,-5.8409,1.0565,-0.1586,-0.5354,
2.370318,-0.3235,-0.9082,-0.2106,-4.5472,-5.1726,-5.8409,1.0565,-0.1586,-0.5354,
2.376675,-0.2204,-0.8752,-0.1390,-4.5472,-5.1726,-5.8409,1.0565,-0.1586,-0.5354,
2.380936,-0.1066,-0.8378,-0.0965,-4.5472,-5.1726,-5.8409,1.0565,-0.1586,-0.5354,
2.387702,-0.1066,-0.8378,-0.0965,-4.3739,-5.0098,-5.7497,1.0565,-0.1586,-0.5354,
2.389374,-0.0028,-0.8232,-0.0928,-4.3739,-5.0098,-5.7497,1.0565,-0.1586,-0.5354,
2.390284,-0.0028,-0.8232,-0.0928,-4.3739,-5.0098,-5.7497,0.0775,0.4209,0.1634,
2.391191,0.0603,-0.8307,-0.1070,-4.3739,-5.0098,-5.7497,0.0775,0.4209,0.1634,
2.394940,0.1213,-0.8530,-0.1258,-4.3739,-5.0098,-5.7497,0.0775,0.4209,0.1634,
2.399974,0.1585,-0.8906,-0.1512,-4.3739,-5.0098,-5.7497,0.0775,0.4209,0.1634,
2.406964,0.1558,-0.9297,-0.1490,-4.3739,-5.0098,-5.7497,0.0775,0.4209,0.1634,
2.409439,0.1394,-0.9541,-0.0567,-4.3739,-5.0098,-5.7497,0.0775,0.4209,0.1634,
2.416714,0.1482,-0.9490,0.1441,-4.3739,-5.0098,-5.7497,0.0775,0.4209,0.1634,
2.421027,0.1873,-0.9351,0.3662,-4.3739,-5.0098,-5.7497,0.0775,0.4209,0.1634,
2.426450,0.2154,-0.9424,0.4715,-4.3739,-5.0098,-5.7497,0.0775,0.4209,0.1634,
2.427703,0.2154,-0.9424,0.4715,-4.3739,-5.0098,-5.7497,0.0988,0.1791,0.7940,
2.428792,0.2154,-0.9424,0.4715,-4.2287,-0.3153,-1.7149,0.0988,0.1791,0.7940,
2.430265,0.2396,-0.9839,0.4248,-4.2287,-0.3153,-1.7149,0.0988,0.1791,0.7940,
2.435563,0.2457,-1.0543,0.2506,-4.2287,-0.3153,-1.7149,0.0988,0.1791,0.7940,
2.440343,0.2403,-1.1420,0.0151,-4.2287,-0.3153,-1.7149,0.0988,0.1791,0.7940,
2.445461,0.2359,-1.2443,-0.2431,-4.2287,-0.3153,-1.7149,0.0988,0.1791,0.7940,
2.450133,0.2215,-1.3511,-0.4727,-4.2287,-0.3153,-1.7149,0.0988,0.1791,0.7940,
2.454450,0.2032,-1.4415,-0.6464,-4.2287,-0.3153,-1.7149,0.0988,0.1791,0.7940,
2.459761,0.1949,-1.4974,-0.7701,-4.2287,-0.3153,-1.7149,0.0988,0.1791,0.7940,
2.468113,0.1949,-1.4974,-0.7701,0.2270,-1.1485,-0.3280,0.0988,0.1791,0.7940,
2.470723,0.2130,-1.4950,-0.8497,0.2270,-1.1485,-0.3280,0.0988,0.1791,0.7940,
2.472600,0.2130,-1.4950,-0.8497,0.2270,-1.1485,-0.3280,0.5580,0.3112,0.6257,
2.473853,0.2628,-1.4207,-0.8536,0.2270,-1.1485,-0.3280,0.5580,0.3112,0.6257,
2.476485,0.3183,-1.2917,-0.7613,0.2270,-1.1485,-0.3280,0.5580,0.3112,0.6257,
2.482089,0.3740,-1.1513,-0.5905,0.2270,-1.1485,-0.3280,0.5580,0.3112,0.6257,
2.488249,0.4253,-1.0528,-0.3819,0.2270,-1.1485,-0.3280,0.5580,0.3112,0.6257,
2.492741,0.4688,-0.9861,-0.1984,0.2270,-1.1485,-0.3280,0.5580,0.3112,0.6257,
2.499324,0.4961,-0.9363,-0.0689,0.2270,-1.1485,-0.3280,0.5580,0.3112,0.6257,
2.501171,0.4959,-0.9001,0.0371,0.2270,-1.1485,-0.3280,0.5580,0.3112,0.6257,
2.506830,0.4778,-0.8698,0.1295,0.2270,-1.1485,-0.3280,0.5580,0.3112,0.6257,
2.509119,0.4778,-0.8698,0.1295,0.2270,-1.1485,-0.3280,0.8829,0.7629,0.5906,
2.510214,0.4778,-0.8698,0.1295,0.4341,-1.0597,-0.7130,0.8829,0.7629,0.5906,
2.511143,0.4509,-0.8513,0.1947,0.4341,-1.0597,-0.7130,0.8829,0.7629,0.5906,
2.516284,0.4260,-0.8452,0.2123,0.4341,-1.0597,-0.7130,0.8829,0.7629,0.5906,
2.522081,0.4143,-0.8579,0.1920,0.4341,-1.0597,-0.7130,0.8829,0.7629,0.5906,
2.526316,0.4043,-0.8669,0.1407,0.4341,-1.0597,-0.7130,0.8829,0.7629,0.5906,
2.528187,0.4047,-0.8706,0.0826,0.4341,-1.0597,-0.7130,0.8829,0.7629,0.5906,
2.538008,0.4289,-0.8630,0.0205,0.4341,-1.0597,-0.7130,0.8829,0.7629,0.5906,
2.540761,0.4309,-0.8432,-0.0376,0.4341,-1.0597,-0.7130,0.8829,0.7629,0.5906,
2.544083,0.4402,-0.8237,-0.0933,0.4341,-1.0597,-0.7130,0.8829,0.7629,0.5906,
2.545626,0.4402,-0.8237,-0.0933,0.4341,-1.0597,-0.7130,0.4706,0.4454,0.7195,
2.546454,0.4402,-0.8237,-0.0933,2.7423,0.4957,-1.1623,0.4706,0.4454,0.7195,
2.550557,0.4771,-0.8107,-0.1549,2.7423,0.4957,-1.1623,0.4706,0.4454,0.7195,
2.557604,0.5181,-0.8090,-0.2065,2.7423,0.4957,-1.1623,0.4706,0.4454,0.7195,
2.559305,0.5533,-0.8185,-0.2414,2.7423,0.4957,-1.1623,0.4706,0.4454,0.7195,
2.567222,0.5890,-0.8356,-0.2612,2.7423,0.4957,-1.1623,0.4706,0.4454,0.7195,
2.571128,0.6241,-0.8593,-0.2773,2.7423,0.4957,-1.1623,0.4706,0.4454,0.7195,
2.576014,0.6527,-0.8803,-0.2849,2.7423,0.4957,-1.1623,0.4706,0.4454,0.7195,
2.578946,0.6718,-0.9006,-0.2817,2.7423,0.4957,-1.1623,0.4706,0.4454,0.7195,
2.586991,0.6840,-0.9204,-0.2839,2.7423,0.4957,-1.1623,0.4706,0.4454,0.7195,
2.589325,0.6840,-0.9204,-0.2839,2.7423,0.4957,-1.1623,1.2504,0.4273,0.5757,
2.590637,0.6840,-0.9204,-0.2839,2.8995,0.5093,-1.6472,1.2504,0.4273,0.5757,
2.593269,0.6835,-0.9346,-0.2768,2.8995,0.5093,-1.6472,1.2504,0.4273,0.5757,
2.632284,0.6693,-0.9522,-0.2587,2.8995,0.5093,-1.6472,1.2504,0.4273,0.5757,
2.633373,0.6613,-0.9812,-0.2646,2.8995,0.5093,-1.6472,1.2504,0.4273,0.5757,
2.634415,0.6508,-0.9954,-0.2678,2.8995,0.5093,-1.6472,1.2504,0.4273,0.5757,
2.635452,0.6337,-1.0069,-0.2573,2.8995,0.5093,-1.6472,1.2504,0.4273,0.5757,
2.636518,0.6097,-1.0218,-0.2499,2.8995,0.5093,-1.6472,1.2504,0.4273,0.5757,
2.637547,0.6034,-1.0447,-0.2817,2.8995,0.5093,-1.6472,1.2504,0.4273,0.5757,
2.638406,0.5890,-1.0658,-0.2976,2.8995,0.5093,-1.6472,1.2504,0.4273,0.5757,
2.639407,0.5890,-1.0658,-0.2976,2.8995,0.5093,-1.6472,1.1108,-0.2406,0.4595,
2.640372,0.5890,-1.0658,-0.2976,4.4761,1.7085,-2.6028,1.1108,-0.2406,0.4595,
2.641266,0.5728,-1.0961,-0.3279,4.4761,1.7085,-2.6028,1.1108,-0.2406,0.4595,
2.642286,0.5032,-1.1200,-0.3516,4.4761,1.7085,-2.6028,1.1108,-0.2406,0.4595,
2.643364,0.4250,-1.1461,-0.3547,4.4761,1.7085,-2.6028,1.1108,-0.2406,0.4595,
2.644376,0.3556,-1.1855,-0.3772,4.4761,1.7085,-2.6028,1.1108,-0.2406,0.4595,
2.648276,0.3068,-1.2358,-0.4153,4.4761,1.7085,-2.6028,1.1108,-0.2406,0.4595,
2.652857,0.2804,-1.2859,-0.4539,4.4761,1.7085,-2.6028,1.1108,-0.2406,0.4595,
2.657701,0.2198,-1.3211,-0.4644,4.4761,1.7085,-2.6028,1.1108,-0.2406,0.4595,
2.662528,0.1724,-1.3411,-0.4522,4.4761,1.7085,-2.6028,1.1108,-0.2406,0.4595,
2.663815,0.1724,-1.3411,-0.4522,4.4761,1.7085,-2.6028,0.4205,-0.5484,0.1208,
2.664656,0.1724,-1.3411,-0.4522,3.6555,-0.7333,-3.9516,0.4205,-0.5484,0.1208,
2.669063,0.1587,-1.3538,-0.4451,3.6555,-0.7333,-3.9516,0.4205,-0.5484,0.1208,
2.674759,0.1577,-1.3489,-0.4307,3.6555,-0.7333,-3.9516,0.4205,-0.5484,0.1208,
2.682617,0.1663,-1.3343,-0.4021,3.6555,-0.7333,-3.9516,0.4205,-0.5484,0.1208,
2.684131,0.1744,-1.3025,-0.3748,3.6555,-0.7333,-3.9516,0.4205,-0.5484,0.1208,
2.690272,0.1905,-1.2605,-0.3511,3.6555,-0.7333,-3.9516,0.4205,-0.5484,0.1208,
2.692312,0.2127,-1.2123,-0.3357,3.6555,-0.7333,-3.9516,0.4205,-0.5484,0.1208,
2.703398,0.2408,-1.1613,-0.3352,3.6555,-0.7333,-3.9516,0.4205,-0.5484,0.1208,
2.704859,0.2709,-1.1053,-0.3398,3.6555,-0.7333,-3.9516,0.4205,-0.5484,0.1208,
2.705758,0.2709,-1.1053,-0.3398,3.6555,-0.7333,-3.9516,-0.5947,-0.8446,-0.0997,
2.706487,0.2709,-1.1053,-0.3398,3.5090,-0.7082,-3.5812,-0.5947,-0.8446,-0.0997,
2.708965,0.2902,-1.0457,-0.3425,3.5090,-0.7082,-3.5812,-0.5947,-0.8446,-0.0997,
2.714692,0.2833,-0.9993,-0.3452,3.5090,-0.7082,-3.5812,-0.5947,-0.8446,-0.0997,
2.717589,0.2635,-0.9754,-0.3755,3.5090,-0.7082,-3.5812,-0.5947,-0.8446,-0.0997,
2.723329,0.2494,-0.9781,-0.4163,3.5090,-0.7082,-3.5812,-0.5947,-0.8446,-0.0997,
2.728123,0.2648,-0.9778,-0.4324,3.5090,-0.7082,-3.5812,-0.5947,-0.8446,-0.0997,
2.739225,0.2821,-0.9849,-0.4412,3.5090,-0.7082,-3.5812,-0.5947,-0.8446,-0.0997,
2.740880,0.2657,-0.9942,-0.4420,3.5090,-0.7082,-3.5812,-0.5947,-0.8446,-0.0997,
2.742813,0.2269,-0.9832,-0.4205,3.5090,-0.7082,-3.5812,-0.5947,-0.8446,-0.0997,
2.743971,0.2269,-0.9832,-0.4205,3.5090,-0.7082,-3.5812,-2.0594,-1.6478,-0.0550,
2.744947,0.2269,-0.9832,-0.4205,0.7786,-1.3791,-3.0251,-2.0594,-1.6478,-0.0550,
2.748808,0.1856,-0.9632,-0.3589,0.7786,-1.3791,-3.0251,-2.0594,-1.6478,-0.0550,
2.753830,0.1270,-0.9592,-0.2582,0.7786,-1.3791,-3.0251,-2.0594,-1.6478,-0.0550,
2.757357,0.0823,-0.9661,-0.1151,0.7786,-1.3791,-3.0251,-2.0594,-1.6478,-0.0550,
2.765865,0.0720,-0.9817,0.0921,0.7786,-1.3791,-3.0251,-2.0594,-1.6478,-0.0550,
2.772303,0.0664,-1.0088,0.3027,0.7786,-1.3791,-3.0251,-2.0594,-1.6478,-0.0550,
2.773828,0.0867,-1.0316,0.4463,0.7786,-1.3791,-3.0251,-2.0594,-1.6478,-0.0550,
2.778716,0.1157,-1.0572,0.5443,0.7786,-1.3791,-3.0251,-2.0594,-1.6478,-0.0550,
2.782886,0.1516,-1.0799,0.6056,0.7786,-1.3791,-3.0251,-2.0594,-1.6478,-0.0550,
2.784422,0.1516,-1.0799,0.6056,0.7786,-1.3791,-3.0251,-3.1343,-1.9834,-0.2606,
2.785732,0.1516,-1.0799,0.6056,0.7630,-1.5288,-1.6159,-3.1343,-1.9834,-0.2606,
2.788643,0.1805,-1.0902,0.6408,0.7630,-1.5288,-1.6159,-3.1343,-1.9834,-0.2606,
2.792532,0.1956,-1.1039,0.6303,0.7630,-1.5288,-1.6159,-3.1343,-1.9834,-0.2606,
2.799302,0.2029,-1.1107,0.5631,0.7630,-1.5288,-1.6159,-3.1343,-1.9834,-0.2606,
2.805606,0.2174,-1.0985,0.4715,0.7630,-1.5288,-1.6159,-3.1343,-1.9834,-0.2606,
2.808158,0.2359,-1.0782,0.3530,0.7630,-1.5288,-1.6159,-3.1343,-1.9834,-0.2606,
2.814990,0.2477,-1.0499,0.1871,0.7630,-1.5288,-1.6159,-3.1343,-1.9834,-0.2606,
2.818798,0.2464,-1.0274,0.0080,0.7630,-1.5288,-1.6159,-3.1343,-1.9834,-0.2606,
2.820573,0.2330,-1.0079,-0.1385,0.7630,-1.5288,-1.6159,-3.1343,-1.9834,-0.2606,
2.821770,0.2330,-1.0079,-0.1385,0.7630,-1.5288,-1.6159,-2.6006,-2.0984,-0.4864,
2.822785,0.2330,-1.0079,-0.1385,0.2452,-0.0654,3.2959,-2.6006,-2.0984,-0.4864,
2.827142,0.2125,-0.9846,-0.2326,0.2452,-0.0654,3.2959,-2.6006,-2.0984,-0.4864,
2.832638,0.1917,-0.9602,-0.2795,0.2452,-0.0654,3.2959,-2.6006,-2.0984,-0.4864,
2.835953,0.1678,-0.9321,-0.2859,0.2452,-0.0654,3.2959,-2.6006,-2.0984,-0.4864,
2.841245,0.1582,-0.9079,-0.2614,0.2452,-0.0654,3.2959,-2.6006,-2.0984,-0.4864,
2.846296,0.1543,-0.8867,-0.2162,0.2452,-0.0654,3.2959,-2.6006,-2.0984,-0.4864,
2.853837,0.1441,-0.8728,-0.1285,0.2452,-0.0654,3.2959,-2.6006,-2.0984,-0.4864,
2.855463,0.1482,-0.8491,-0.0193,0.2452,-0.0654,3.2959,-2.6006,-2.0984,-0.4864,
2.860534,0.1387,-0.8200,0.0667,0.2452,-0.0654,3.2959,-2.6006,-2.0984,-0.4864,
2.861900,0.1387,-0.8200,0.0667,0.2452,-0.0654,3.2959,-1.1859,-0.6081,-0.6782,
2.862809,0.1387,-0.8200,0.0667,0.4334,-0.2161,4.0725,-1.1859,-0.6081,-0.6782,
2.866394,0.1094,-0.7855,0.1290,0.4334,-0.2161,4.0725,-1.1859,-0.6081,-0.6782,
2.872106,0.0959,-0.7516,0.1651,0.4334,-0.2161,4.0725,-1.1859,-0.6081,-0.6782,
2.876724,0.0933,-0.7301,0.1656,0.4334,-0.2161,4.0725,-1.1859,-0.6081,-0.6782,
2.881497,0.0940,-0.7120,0.1524,0.4334,-0.2161,4.0725,-1.1859,-0.6081,-0.6782,
2.888033,0.1016,-0.6832,0.1021,0.4334,-0.2161,4.0725,-1.1859,-0.6081,-0.6782,
2.890767,0.1079,-0.6583,0.0322,0.4334,-0.2161,4.0725,-1.1859,-0.6081,-0.6782,
2.895084,0.1223,-0.6434,-0.0051,0.4334,-0.2161,4.0725,-1.1859,-0.6081,-0.6782,
2.901251,0.1306,-0.6316,-0.0286,0.4334,-0.2161,4.0725,-1.1859,-0.6081,-0.6782,
2.902950,0.1306,-0.6316,-0.0286,0.4334,-0.2161,4.0725,-0.8365,-0.1032,-0.9509,
2.905450,0.1306,-0.6316,-0.0286,0.0882,-0.3945,4.2941,-0.8365,-0.1032,-0.9509,
2.906734,0.1326,-0.6184,-0.0340,0.0882,-0.3945,4.2941,-0.8365,-0.1032,-0.9509,
2.910430,0.1372,-0.6011,-0.0296,0.0882,-0.3945,4.2941,-0.8365,-0.1032,-0.9509,
2.920421,0.1294,-0.5857,-0.0435,0.0882,-0.3945,4.2941,-0.8365,-0.1032,-0.9509,
2.922353,0.1292,-0.5671,-0.0542,0.0882,-0.3945,4.2941,-0.8365,-0.1032,-0.9509,
2.927298,0.1275,-0.5515,-0.0687,0.0882,-0.3945,4.2941,-0.8365,-0.1032,-0.9509,
2.932430,0.1248,-0.5491,-0.0782,0.0882,-0.3945,4.2941,-0.8365,-0.1032,-0.9509,
2.937393,0.1275,-0.5469,-0.0821,0.0882,-0.3945,4.2941,-0.8365,-0.1032,-0.9509,
2.940293,0.1231,-0.5471,-0.0782,0.0882,-0.3945,4.2941,-0.8365,-0.1032,-0.9509,
2.941393,0.1231,-0.5471,-0.0782,0.0882,-0.3945,4.2941,0.0370,-0.6049,-0.9722,
2.945043,0.1231,-0.5471,-0.0782,-0.9632,2.4560,4.2204,0.0370,-0.6049,-0.9722,
2.949229,0.1255,-0.5549,-0.0797,-0.9632,2.4560,4.2204,0.0370,-0.6049,-0.9722,
2.952408,0.1191,-0.5830,-0.0784,-0.9632,2.4560,4.2204,0.0370,-0.6049,-0.9722,
2.955672,0.0972,-0.6346,-0.0797,-0.9632,2.4560,4.2204,0.0370,-0.6049,-0.9722,
2.961746,0.0696,-0.6920,-0.0870,-0.9632,2.4560,4.2204,0.0370,-0.6049,-0.9722,
2.966107,0.0476,-0.7482,-0.1244,-0.9632,2.4560,4.2204,0.0370,-0.6049,-0.9722,
2.972194,0.0156,-0.8175,-0.1803,-0.9632,2.4560,4.2204,0.0370,-0.6049,-0.9722,
2.975480,0.0055,-0.8740,-0.2668,-0.9632,2.4560,4.2204,0.0370,-0.6049,-0.9722,
2.982379,0.0077,-0.9346,-0.3560,-0.9632,2.4560,4.2204,0.0370,-0.6049,-0.9722,
2.983848,0.0077,-0.9346,-0.3560,-0.9632,2.4560,4.2204,0.8371,-0.8904,-0.9136,
2.984880,0.0077,-0.9346,-0.3560,-1.4572,2.7871,2.2325,0.8371,-0.8904,-0.9136,
2.987698,0.0095,-1.0022,-0.4224,-1.4572,2.7871,2.2325,0.8371,-0.8904,-0.9136,
2.991404,0.0170,-1.0689,-0.4747,-1.4572,2.7871,2.2325,0.8371,-0.8904,-0.9136,
2.994948,0.0559,-1.1176,-0.5556,-1.4572,2.7871,2.2325,0.8371,-0.8904,-0.9136,
3.005532,0.1050,-1.1456,-0.6865,-1.4572,2.7871,2.2325,0.8371,-0.8904,-0.9136,
3.006840,0.1531,-1.1799,-0.7327,-1.4572,2.7871,2.2325,0.8371,-0.8904,-0.9136,
3.011428,0.1822,-1.2028,-0.7185,-1.4572,2.7871,2.2325,0.8371,-0.8904,-0.9136,
3.015814,0.1861,-1.2119,-0.6682,-1.4572,2.7871,2.2325,0.8371,-0.8904,-0.9136,
3.021685,0.1810,-1.2082,-0.5969,-1.4572,2.7871,2.2325,0.8371,-0.8904,-0.9136,
3.023055,0.1810,-1.2082,-0.5969,-1.4572,2.7871,2.2325,1.5050,-1.3197,-0.9881,
3.025612,0.1810,-1.2082,-0.5969,-1.6168,2.8234,1.7631,1.5050,-1.3197,-0.9881,
3.026915,0.1580,-1.1928,-0.5248,-1.6168,2.8234,1.7631,1.5050,-1.3197,-0.9881,
3.031467,0.1174,-1.1882,-0.4598,-1.6168,2.8234,1.7631,1.5050,-1.3197,-0.9881,
3.036296,0.0671,-1.1916,-0.3897,-1.6168,2.8234,1.7631,1.5050,-1.3197,-0.9881,
3.038837,0.0114,-1.1864,-0.3442,-1.6168,2.8234,1.7631,1.5050,-1.3197,-0.9881,
3.043827,-0.0335,-1.1723,-0.3188,-1.6168,2.8234,1.7631,1.5050,-1.3197,-0.9881,
3.049129,-0.0902,-1.1676,-0.2951,-1.6168,2.8234,1.7631,1.5050,-1.3197,-0.9881,
3.054048,-0.1418,-1.1730,-0.3030,-1.6168,2.8234,1.7631,1.5050,-1.3197,-0.9881,
3.058673,-0.1853,-1.1835,-0.3357,-1.6168,2.8234,1.7631,1.5050,-1.3197,-0.9881,
3.059946,-0.1853,-1.1835,-0.3357,-1.6168,2.8234,1.7631,1.0714,-1.7213,-1.1629,
3.060891,-0.1853,-1.1835,-0.3357,-1.7458,-2.0063,-2.3844,1.0714,-1.7213,-1.1629,
3.062963,-0.2231,-1.1923,-0.3591,-1.7458,-2.0063,-2.3844,1.0714,-1.7213,-1.1629,
3.071125,-0.2534,-1.2163,-0.3836,-1.7458,-2.0063,-2.3844,1.0714,-1.7213,-1.1629,
3.074968,-0.2725,-1.2363,-0.4051,-1.7458,-2.0063,-2.3844,1.0714,-1.7213,-1.1629,
3.079455,-0.3103,-1.2527,-0.3973,-1.7458,-2.0063,-2.3844,1.0714,-1.7213,-1.1629,
3.088919,-0.3426,-1.2724,-0.3775,-1.7458,-2.0063,-2.3844,1.0714,-1.7213,-1.1629,
3.090526,-0.3709,-1.2820,-0.3538,-1.7458,-2.0063,-2.3844,1.0714,-1.7213,-1.1629,
3.095371,-0.3941,-1.2793,-0.3218,-1.7458,-2.0063,-2.3844,1.0714,-1.7213,-1.1629,
3.098938,-0.4034,-1.2700,-0.2844,-1.7458,-2.0063,-2.3844,1.0714,-1.7213,-1.1629,
3.100471,-0.4034,-1.2700,-0.2844,-1.7458,-2.0063,-2.3844,0.5047,-0.7327,-1.0425,
3.101693,-0.4034,-1.2700,-0.2844,-2.0075,-2.0230,-2.4376,0.5047,-0.7327,-1.0425,
3.104504,-0.3978,-1.2507,-0.2499,-2.0075,-2.0230,-2.4376,0.5047,-0.7327,-1.0425,
3.109525,-0.3687,-1.2211,-0.2309,-2.0075,-2.0230,-2.4376,0.5047,-0.7327,-1.0425,
3.114422,-0.3191,-1.1886,-0.2375,-2.0075,-2.0230,-2.4376,0.5047,-0.7327,-1.0425,
3.119831,-0.2901,-1.1532,-0.2636,-2.0075,-2.0230,-2.4376,0.5047,-0.7327,-1.0425,
3.123270,-0.2395,-1.1180,-0.2819,-2.0075,-2.0230,-2.4376,0.5047,-0.7327,-1.0425,
3.131426,-0.1989,-1.0804,-0.2709,-2.0075,-2.0230,-2.4376,0.5047,-0.7327,-1.0425,
3.134379,-0.1572,-1.0413,-0.2397,-2.0075,-2.0230,-2.4376,0.5047,-0.7327,-1.0425,
3.139298,-0.1242,-1.0054,-0.2062,-2.0075,-2.0230,-2.4376,0.5047,-0.7327,-1.0425,
3.140259,-0.1242,-1.0054,-0.2062,-2.0075,-2.0230,-2.4376,0.3683,-0.9660,-0.3724,
3.140927,-0.1242,-1.0054,-0.2062,-5.6621,-2.6700,-0.4932,0.3683,-0.9660,-0.3724,
3.143264,-0.0912,-0.9759,-0.1713,-5.6621,-2.6700,-0.4932,0.3683,-0.9660,-0.3724,
3.149567,-0.0355,-0.9592,-0.1324,-5.6621,-2.6700,-0.4932,0.3683,-0.9660,-0.3724,
3.153136,-0.0062,-0.9385,-0.0652,-5.6621,-2.6700,-0.4932,0.3683,-0.9660,-0.3724,
3.159204,0.0038,-0.9221,0.0120,-5.6621,-2.6700,-0.4932,0.3683,-0.9660,-0.3724,
3.164499,0.0419,-0.9243,0.0787,-5.6621,-2.6700,-0.4932,0.3683,-0.9660,-0.3724,
3.168980,0.0737,-0.9370,0.1102,-5.6621,-2.6700,-0.4932,0.3683,-0.9660,-0.3724,
3.172190,0.0862,-0.9646,0.0806,-5.6621,-2.6700,-0.4932,0.3683,-0.9660,-0.3724,
3.178889,0.0918,-1.0052,0.0193,-5.6621,-2.6700,-0.4932,0.3683,-0.9660,-0.3724,
3.179834,0.0918,-1.0052,0.0193,-5.6621,-2.6700,-0.4932,0.6251,-0.9831,0.0484,
3.180545,0.0918,-1.0052,0.0193,-3.5814,-0.4860,1.3954,0.6251,-0.9831,0.0484,
3.183312,0.0981,-1.0548,-0.0445,-3.5814,-0.4860,1.3954,0.6251,-0.9831,0.0484,
3.190428,0.1243,-1.0946,-0.0865,-3.5814,-0.4860,1.3954,0.6251,-0.9831,0.0484,
3.193202,0.1673,-1.1014,-0.1107,-3.5814,-0.4860,1.3954,0.6251,-0.9831,0.0484,
3.198856,0.2166,-1.0995,-0.1207,-3.5814,-0.4860,1.3954,0.6251,-0.9831,0.0484,
3.201954,0.2809,-1.0995,-0.1165,-3.5814,-0.4860,1.3954,0.6251,-0.9831,0.0484,
3.209113,0.3661,-1.1068,-0.1217,-3.5814,-0.4860,1.3954,0.6251,-0.9831,0.0484,
3.211989,0.4441,-1.1305,-0.1534,-3.5814,-0.4860,1.3954,0.6251,-0.9831,0.0484,
3.218947,0.5074,-1.1412,-0.2170,-3.5814,-0.4860,1.3954,0.6251,-0.9831,0.0484,
3.220571,0.5074,-1.1412,-0.2170,-3.5814,-0.4860,1.3954,0.9734,-1.0310,0.1666,
3.221390,0.5074,-1.1412,-0.2170,-3.3478,-0.3666,1.1093,0.9734,-1.0310,0.1666,
3.223083,0.5284,-1.1293,-0.3010,-3.3478,-0.3666,1.1093,0.9734,-1.0310,0.1666,
3.227854,0.5249,-1.0975,-0.3589,-3.3478,-0.3666,1.1093,0.9734,-1.0310,0.1666,
3.234403,0.4883,-1.0396,-0.3499,-3.3478,-0.3666,1.1093,0.9734,-1.0310,0.1666,
3.240174,0.4358,-0.9895,-0.2600,-3.3478,-0.3666,1.1093,0.9734,-1.0310,0.1666,
3.242316,0.3820,-0.9380,-0.1534,-3.3478,-0.3666,1.1093,0.9734,-1.0310,0.1666,
3.247143,0.3500,-0.8833,-0.0894,-3.3478,-0.3666,1.1093,0.9734,-1.0310,0.1666,
3.257603,0.3261,-0.8376,-0.0692,-3.3478,-0.3666,1.1093,0.9734,-1.0310,0.1666,
3.259577,0.2948,-0.8119,-0.0735,-3.3478,-0.3666,1.1093,0.9734,-1.0310,0.1666,
3.260881,0.2948,-0.8119,-0.0735,-3.3478,-0.3666,1.1093,0.9553,-1.8396,0.3317,
3.261953,0.2948,-0.8119,-0.0735,1.0858,-0.8991,0.4220,0.9553,-1.8396,0.3317,
3.262964,0.2601,-0.7951,-0.0975,1.0858,-0.8991,0.4220,0.9553,-1.8396,0.3317,
3.267507,0.2362,-0.7863,-0.1244,1.0858,-0.8991,0.4220,0.9553,-1.8396,0.3317,
3.271611,0.2352,-0.7787,-0.1349,1.0858,-0.8991,0.4220,0.9553,-1.8396,0.3317,
3.278781,0.2408,-0.7848,-0.1420,1.0858,-0.8991,0.4220,0.9553,-1.8396,0.3317,
3.283295,0.2337,-0.8024,-0.1688,1.0858,-0.8991,0.4220,0.9553,-1.8396,0.3317,
3.289123,0.2325,-0.8183,-0.2018,1.0858,-0.8991,0.4220,0.9553,-1.8396,0.3317,
3.293717,0.2499,-0.8361,-0.2360,1.0858,-0.8991,0.4220,0.9553,-1.8396,0.3317,
3.297697,0.2804,-0.8625,-0.2675,1.0858,-0.8991,0.4220,0.9553,-1.8396,0.3317,
3.298639,0.2804,-0.8625,-0.2675,1.0858,-0.8991,0.4220,0.7561,-2.0334,0.1975,
3.299875,0.2804,-0.8625,-0.2675,1.2988,-0.8060,0.2857,0.7561,-2.0334,0.1975,
3.304256,0.3117,-0.8903,-0.2954,1.2988,-0.8060,0.2857,0.7561,-2.0334,0.1975,
3.308111,0.3327,-0.9087,-0.3413,1.2988,-0.8060,0.2857,0.7561,-2.0334,0.1975,
3.313674,0.3530,-0.9277,-0.3960,1.2988,-0.8060,0.2857,0.7561,-2.0334,0.1975,
3.317965,0.3747,-0.9473,-0.4359,1.2988,-0.8060,0.2857,0.7561,-2.0334,0.1975,
3.324260,0.3950,-0.9649,-0.4486,1.2988,-0.8060,0.2857,0.7561,-2.0334,0.1975,
3.327296,0.4155,-0.9788,-0.4398,1.2988,-0.8060,0.2857,0.7561,-2.0334,0.1975,
3.334460,0.4345,-0.9878,-0.4024,1.2988,-0.8060,0.2857,0.7561,-2.0334,0.1975,
3.336871,0.4487,-0.9781,-0.3403,1.2988,-0.8060,0.2857,0.7561,-2.0334,0.1975,
3.338103,0.4487,-0.9781,-0.3403,1.2988,-0.8060,0.2857,0.8690,-1.5977,0.1421,
3.339144,0.4487,-0.9781,-0.3403,0.9699,1.6950,0.1851,0.8690,-1.5977,0.1421,
3.343762,0.4521,-0.9663,-0.2504,0.9699,1.6950,0.1851,0.8690,-1.5977,0.1421,
3.346714,0.4595,-0.9610,-0.1459,0.9699,1.6950,0.1851,0.8690,-1.5977,0.1421,
3.355920,0.4734,-0.9436,-0.0506,0.9699,1.6950,0.1851,0.8690,-1.5977,0.1421,
3.357773,0.4851,-0.9289,0.0134,0.9699,1.6950,0.1851,0.8690,-1.5977,0.1421,
3.363986,0.4998,-0.9162,0.0484,0.9699,1.6950,0.1851,0.8690,-1.5977,0.1421,
3.369134,0.5154,-0.9016,0.0442,0.9699,1.6950,0.1851,0.8690,-1.5977,0.1421,
3.371990,0.5164,-0.8984,0.0264,0.9699,1.6950,0.1851,0.8690,-1.5977,0.1421,
3.377301,0.5093,-0.8999,-0.0071,0.9699,1.6950,0.1851,0.8690,-1.5977,0.1421,
3.378725,0.5093,-0.8999,-0.0071,0.9699,1.6950,0.1851,0.4290,-1.4273,0.1591,
3.379709,0.5093,-0.8999,-0.0071,2.5889,0.6026,-0.6962,0.4290,-1.4273,0.1591,
3.380614,0.4773,-0.9082,-0.0472,2.5889,0.6026,-0.6962,0.4290,-1.4273,0.1591,
3.385629,0.4333,-0.9258,-0.0828,2.5889,0.6026,-0.6962,0.4290,-1.4273,0.1591,
3.390911,0.3835,-0.9390,-0.1107,2.5889,0.6026,-0.6962,0.4290,-1.4273,0.1591,
3.395631,0.3461,-0.9529,-0.1290,2.5889,0.6026,-0.6962,0.4290,-1.4273,0.1591,
3.400145,0.3192,-0.9641,-0.1322,2.5889,0.6026,-0.6962,0.4290,-1.4273,0.1591,
3.405494,0.3024,-0.9707,-0.1173,2.5889,0.6026,-0.6962,0.4290,-1.4273,0.1591,
3.410178,0.2990,-0.9778,-0.0980,2.5889,0.6026,-0.6962,0.4290,-1.4273,0.1591,
3.419580,0.2946,-0.9832,-0.0748,2.5889,0.6026,-0.6962,0.4290,-1.4273,0.1591,
3.420587,0.2946,-0.9832,-0.0748,2.5889,0.6026,-0.6962,0.3108,-1.4188,-0.0710,
3.421463,0.2946,-0.9832,-0.0748,2.6031,0.6066,-0.7128,0.3108,-1.4188,-0.0710,
3.422116,0.2972,-0.9937,-0.0535,2.6031,0.6066,-0.7128,0.3108,-1.4188,-0.0710,
3.426947,0.3112,-0.9961,-0.0340,2.6031,0.6066,-0.7128,0.3108,-1.4188,-0.0710,
3.432638,0.3244,-0.9886,-0.0213,2.6031,0.6066,-0.7128,0.3108,-1.4188,-0.0710,
3.436410,0.3383,-0.9837,0.0022,2.6031,0.6066,-0.7128,0.3108,-1.4188,-0.0710,
3.440994,0.3510,-0.9754,0.0276,2.6031,0.6066,-0.7128,0.3108,-1.4188,-0.0710,
3.445052,0.3703,-0.9820,0.0437,2.6031,0.6066,-0.7128,0.3108,-1.4188,-0.0710,
3.450664,0.3977,-0.9866,0.0435,2.6031,0.6066,-0.7128,0.3108,-1.4188,-0.0710,
3.455797,0.4079,-0.9905,0.0295,2.6031,0.6066,-0.7128,0.3108,-1.4188,-0.0710,
3.457031,0.4079,-0.9905,0.0295,2.6031,0.6066,-0.7128,0.3385,-1.3857,-0.0912,
3.457830,0.4079,-0.9905,0.0295,1.9966,0.5463,0.9320,0.3385,-1.3857,-0.0912,
3.459576,0.4206,-0.9986,0.0024,1.9966,0.5463,0.9320,0.3385,-1.3857,-0.0912,
3.466462,0.4258,-1.0076,-0.0374,1.9966,0.5463,0.9320,0.3385,-1.3857,-0.0912,
3.469919,0.4160,-1.0127,-0.0726,1.9966,0.5463,0.9320,0.3385,-1.3857,-0.0912,
3.474926,0.3947,-1.0230,-0.0931,1.9966,0.5463,0.9320,0.3385,-1.3857,-0.0912,
3.482384,0.3681,-1.0364,-0.1095,1.9966,0.5463,0.9320,0.3385,-1.3857,-0.0912,
3.487103,0.3398,-1.0474,-0.1219,1.9966,0.5463,0.9320,0.3385,-1.3857,-0.0912,
3.490255,0.3087,-1.0531,-0.1251,1.9966,0.5463,0.9320,0.3385,-1.3857,-0.0912,
3.497402,0.2765,-1.0623,-0.1234,1.9966,0.5463,0.9320,0.3385,-1.3857,-0.0912,
3.498947,0.2765,-1.0623,-0.1234,1.9966,0.5463,0.9320,0.2767,-1.9120,-0.0933,
3.499904,0.2765,-1.0623,-0.1234,2.0436,-0.0155,1.1835,0.2767,-1.9120,-0.0933,
3.500814,0.2379,-1.0750,-0.1217,2.0436,-0.0155,1.1835,0.2767,-1.9120,-0.0933,
3.507258,0.1956,-1.0785,-0.1063,2.0436,-0.0155,1.1835,0.2767,-1.9120,-0.0933,
3.510061,0.1563,-1.0846,-0.0938,2.0436,-0.0155,1.1835,0.2767,-1.9120,-0.0933,
3.516928,0.1099,-1.0970,-0.0760,2.0436,-0.0155,1.1835,0.2767,-1.9120,-0.0933,
3.520460,0.0615,-1.1114,-0.0567,2.0436,-0.0155,1.1835,0.2767,-1.9120,-0.0933,
3.526374,0.0168,-1.1161,-0.0371,2.0436,-0.0155,1.1835,0.2767,-1.9120,-0.0933,
3.530825,-0.0260,-1.1100,-0.0347,2.0436,-0.0155,1.1835,0.2767,-1.9120,-0.0933,
3.536586,-0.0743,-1.1036,-0.0352,2.0436,-0.0155,1.1835,0.2767,-1.9120,-0.0933,
3.538705,-0.0743,-1.1036,-0.0352,2.0436,-0.0155,1.1835,-0.0652,-2.1911,-0.3522,
3.539712,-0.0743,-1.1036,-0.0352,2.0114,-0.0412,1.3212,-0.0652,-2.1911,-0.3522,
3.541317,-0.1176,-1.0919,-0.0440,2.0114,-0.0412,1.3212,-0.0652,-2.1911,-0.3522,
3.545918,-0.1537,-1.0794,-0.0613,2.0114,-0.0412,1.3212,-0.0652,-2.1911,-0.3522,
3.550213,-0.1931,-1.0653,-0.0777,2.0114,-0.0412,1.3212,-0.0652,-2.1911,-0.3522,
3.555712,-0.2278,-1.0562,-0.0850,2.0114,-0.0412,1.3212,-0.0652,-2.1911,-0.3522,
3.559541,-0.2490,-1.0440,-0.0902,2.0114,-0.0412,1.3212,-0.0652,-2.1911,-0.3522,
3.564504,-0.2725,-1.0345,-0.0987,2.0114,-0.0412,1.3212,-0.0652,-2.1911,-0.3522,
3.569602,-0.2935,-1.0406,-0.1136,2.0114,-0.0412,1.3212,-0.0652,-2.1911,-0.3522,
3.574340,-0.3172,-1.0623,-0.1493,2.0114,-0.0412,1.3212,-0.0652,-2.1911,-0.3522,
3.575621,-0.3172,-1.0623,-0.1493,2.0114,-0.0412,1.3212,-0.5979,-2.2220,-0.4129,
3.576681,-0.3172,-1.0623,-0.1493,-1.7786,-0.8171,1.3805,-0.5979,-2.2220,-0.4129,
3.579071,-0.3416,-1.0961,-0.1981,-1.7786,-0.8171,1.3805,-0.5979,-2.2220,-0.4129,
3.583961,-0.3226,-1.1420,-0.2685,-1.7786,-0.8171,1.3805,-0.5979,-2.2220,-0.4129,
3.588876,-0.3133,-1.2026,-0.3621,-1.7786,-0.8171,1.3805,-0.5979,-2.2220,-0.4129,
3.596015,-0.3064,-1.2571,-0.4735,-1.7786,-0.8171,1.3805,-0.5979,-2.2220,-0.4129,
3.599861,-0.2764,-1.3142,-0.5944,-1.7786,-0.8171,1.3805,-0.5979,-2.2220,-0.4129,
3.605625,-0.2498,-1.3631,-0.7153,-1.7786,-0.8171,1.3805,-0.5979,-2.2220,-0.4129,
3.610510,-0.2302,-1.3963,-0.8084,-1.7786,-0.8171,1.3805,-0.5979,-2.2220,-0.4129,
3.614020,-0.1840,-1.4061,-0.8903,-1.7786,-0.8171,1.3805,-0.5979,-2.2220,-0.4129,
3.614933,-0.1840,-1.4061,-0.8903,-1.7786,-0.8171,1.3805,-1.0549,-2.1708,-0.1029,
3.615928,-0.1840,-1.4061,-0.8903,-1.5887,-0.9049,1.8844,-1.0549,-2.1708,-0.1029,
3.621008,-0.0638,-1.3978,-0.9897,-1.5887,-0.9049,1.8844,-1.0549,-2.1708,-0.1029,
3.624094,0.0503,-1.3990,-1.0044,-1.5887,-0.9049,1.8844,-1.0549,-2.1708,-0.1029,
3.630350,0.1959,-1.3582,-0.9614,-1.5887,-0.9049,1.8844,-1.0549,-2.1708,-0.1029,
3.634277,0.2914,-1.2925,-0.8609,-1.5887,-0.9049,1.8844,-1.0549,-2.1708,-0.1029,
3.640225,0.3510,-1.2050,-0.7332,-1.5887,-0.9049,1.8844,-1.0549,-2.1708,-0.1029,
3.645224,0.4101,-1.1100,-0.6091,-1.5887,-0.9049,1.8844,-1.0549,-2.1708,-0.1029,
3.648301,0.4348,-1.0101,-0.4693,-1.5887,-0.9049,1.8844,-1.0549,-2.1708,-0.1029,
3.658069,0.4348,-1.0101,-0.4693,-3.3977,-2.6252,-1.4807,-1.0549,-2.1708,-0.1029,
3.660016,0.4404,-0.8965,-0.3262,-3.3977,-2.6252,-1.4807,-1.0549,-2.1708,-0.1029,
3.660666,0.4404,-0.8965,-0.3262,-3.3977,-2.6252,-1.4807,-2.1915,-2.1027,0.0846,
3.661472,0.4582,-0.7770,-0.2089,-3.3977,-2.6252,-1.4807,-2.1915,-2.1027,0.0846,
3.663280,0.4920,-0.6482,-0.1224,-3.3977,-2.6252,-1.4807,-2.1915,-2.1027,0.0846,
3.668223,0.5047,-0.5188,-0.0435,-3.3977,-2.6252,-1.4807,-2.1915,-2.1027,0.0846,
3.672580,0.5015,-0.3968,0.0315,-3.3977,-2.6252,-1.4807,-2.1915,-2.1027,0.0846,
3.677800,0.4900,-0.2862,0.0642,-3.3977,-2.6252,-1.4807,-2.1915,-2.1027,0.0846,
3.685342,0.4617,-0.1780,0.0926,-3.3977,-2.6252,-1.4807,-2.1915,-2.1027,0.0846,
3.690133,0.3764,-0.1034,0.1292,-3.3977,-2.6252,-1.4807,-2.1915,-2.1027,0.0846,
3.693647,0.2716,-0.0556,0.1490,-3.3977,-2.6252,-1.4807,-2.1915,-2.1027,0.0846,
3.694934,0.2716,-0.0556,0.1490,-3.3977,-2.6252,-1.4807,-2.7252,-1.4007,-0.3256,
3.696086,0.2716,-0.0556,0.1490,3.0805,1.6642,1.5482,-2.7252,-1.4007,-0.3256,
3.700899,0.1727,-0.0404,0.1368,3.0805,1.6642,1.5482,-2.7252,-1.4007,-0.3256,
3.703621,0.0942,-0.0866,0.1048,3.0805,1.6642,1.5482,-2.7252,-1.4007,-0.3256,
3.710666,-0.0062,-0.1694,0.0821,3.0805,1.6642,1.5482,-2.7252,-1.4007,-0.3256,
3.713347,-0.1149,-0.2503,0.0554,3.0805,1.6642,1.5482,-2.7252,-1.4007,-0.3256,
3.720174,-0.2229,-0.3223,0.0107,3.0805,1.6642,1.5482,-2.7252,-1.4007,-0.3256,
3.724333,-0.3255,-0.3854,-0.0301,3.0805,1.6642,1.5482,-2.7252,-1.4007,-0.3256,
3.729643,-0.4098,-0.4396,-0.0623,3.0805,1.6642,1.5482,-2.7252,-1.4007,-0.3256,
3.735084,-0.4921,-0.4843,-0.0733,3.0805,1.6642,1.5482,-2.7252,-1.4007,-0.3256,
3.737748,-0.4921,-0.4843,-0.0733,3.0805,1.6642,1.5482,-0.5563,-0.6134,-0.5972,
3.738817,-0.4921,-0.4843,-0.0733,2.9316,1.5096,1.7399,-0.5563,-0.6134,-0.5972,
3.739749,-0.5439,-0.5200,-0.0660,2.9316,1.5096,1.7399,-0.5563,-0.6134,-0.5972,
3.744172,-0.5622,-0.5483,-0.0745,2.9316,1.5096,1.7399,-0.5563,-0.6134,-0.5972,
3.747390,-0.5439,-0.5779,-0.1070,2.9316,1.5096,1.7399,-0.5563,-0.6134,-0.5972,
3.754129,-0.4999,-0.5930,-0.1901,2.9316,1.5096,1.7399,-0.5563,-0.6134,-0.5972,
3.759748,-0.4323,-0.6143,-0.2966,2.9316,1.5096,1.7399,-0.5563,-0.6134,-0.5972,
3.764253,-0.3460,-0.6380,-0.3682,2.9316,1.5096,1.7399,-0.5563,-0.6134,-0.5972,
3.768426,-0.2488,-0.6475,-0.3916,2.9316,1.5096,1.7399,-0.5563,-0.6134,-0.5972,
3.773540,-0.1642,-0.6607,-0.3809,2.9316,1.5096,1.7399,-0.5563,-0.6134,-0.5972,
3.774713,-0.1642,-0.6607,-0.3809,2.9316,1.5096,1.7399,0.8988,0.4327,-0.1775,
3.775586,-0.1642,-0.6607,-0.3809,-3.6220,5.5685,4.3040,0.8988,0.4327,-0.1775,
3.777931,-0.0944,-0.6754,-0.3643,-3.6220,5.5685,4.3040,0.8988,0.4327,-0.1775,
3.783611,-0.0145,-0.6988,-0.3714,-3.6220,5.5685,4.3040,0.8988,0.4327,-0.1775,
3.788896,0.0481,-0.7100,-0.4178,-3.6220,5.5685,4.3040,0.8988,0.4327,-0.1775,
3.794064,0.0688,-0.7291,-0.4730,-3.6220,5.5685,4.3040,0.8988,0.4327,-0.1775,
3.797056,0.0507,-0.7821,-0.5157,-3.6220,5.5685,4.3040,0.8988,0.4327,-0.1775,
3.803960,0.0185,-0.8652,-0.5299,-3.6220,5.5685,4.3040,0.8988,0.4327,-0.1775,
3.808800,-0.0482,-0.9693,-0.4977,-3.6220,5.5685,4.3040,0.8988,0.4327,-0.1775,
3.811893,-0.1090,-1.0858,-0.4732,-3.6220,5.5685,4.3040,0.8988,0.4327,-0.1775,
3.812987,-0.1090,-1.0858,-0.4732,-3.6220,5.5685,4.3040,1.4922,1.2359,0.2209,
3.813743,-0.1090,-1.0858,-0.4732,-3.6759,5.7195,3.6405,1.4922,1.2359,0.2209,
3.821239,-0.1481,-1.1904,-0.5116,-3.6759,5.7195,3.6405,1.4922,1.2359,0.2209,
3.823560,-0.1909,-1.2739,-0.5778,-3.6759,5.7195,3.6405,1.4922,1.2359,0.2209,
3.827020,-0.2065,-1.3477,-0.6657,-3.6759,5.7195,3.6405,1.4922,1.2359,0.2209,
3.833568,-0.2177,-1.4119,-0.7539,-3.6759,5.7195,3.6405,1.4922,1.2359,0.2209,
3.837317,-0.2297,-1.4708,-0.7925,-3.6759,5.7195,3.6405,1.4922,1.2359,0.2209,
3.842584,-0.2392,-1.5202,-0.7725,-3.6759,5.7195,3.6405,1.4922,1.2359,0.2209,
3.847297,-0.2483,-1.5541,-0.7114,-3.6759,5.7195,3.6405,1.4922,1.2359,0.2209,
3.852415,-0.2612,-1.5903,-0.6584,-3.6759,5.7195,3.6405,1.4922,1.2359,0.2209,
3.854936,-0.2612,-1.5903,-0.6584,-3.6759,5.7195,3.6405,1.5135,1.2359,-0.0166,
3.856728,-0.2612,-1.5903,-0.6584,-2.4759,1.5276,-1.1253,1.5135,1.2359,-0.0166,
3.858351,-0.2783,-1.6396,-0.6670,-2.4759,1.5276,-1.1253,1.5135,1.2359,-0.0166,
3.861973,-0.2903,-1.6978,-0.7188,-2.4759,1.5276,-1.1253,1.5135,1.2359,-0.0166,
3.866137,-0.2866,-1.7642,-0.7921,-2.4759,1.5276,-1.1253,1.5135,1.2359,-0.0166,
3.872184,-0.2312,-1.8221,-0.8737,-2.4759,1.5276,-1.1253,1.5135,1.2359,-0.0166,
3.876743,-0.1198,-1.8500,-0.9037,-2.4759,1.5276,-1.1253,1.5135,1.2359,-0.0166,
3.881648,0.0390,-1.8419,-0.8925,-2.4759,1.5276,-1.1253,1.5135,1.2359,-0.0166,
3.889109,0.1998,-1.7955,-0.8248,-2.4759,1.5276,-1.1253,1.5135,1.2359,-0.0166,
3.892504,0.3354,-1.7000,-0.6909,-2.4759,1.5276,-1.1253,1.5135,1.2359,-0.0166,
3.894269,0.3354,-1.7000,-0.6909,-2.4759,1.5276,-1.1253,0.6655,1.3850,-0.0113,
3.896128,0.3354,-1.7000,-0.6909,-3.5895,-6.2193,-4.5327,0.6655,1.3850,-0.0113,
3.897770,0.4277,-1.5790,-0.5321,-3.5895,-6.2193,-4.5327,0.6655,1.3850,-0.0113,
3.904486,0.4468,-1.4483,-0.3433,-3.5895,-6.2193,-4.5327,0.6655,1.3850,-0.0113,
3.909512,0.4016,-1.3071,-0.1547,-3.5895,-6.2193,-4.5327,0.6655,1.3850,-0.0113,
3.912025,0.3312,-1.1747,-0.0323,-3.5895,-6.2193,-4.5327,0.6655,1.3850,-0.0113,
3.917868,0.2403,-1.0618,0.0225,-3.5895,-6.2193,-4.5327,0.6655,1.3850,-0.0113,
3.922997,0.1570,-0.9683,0.0283,-3.5895,-6.2193,-4.5327,0.6655,1.3850,-0.0113,
3.927242,0.0879,-0.8921,0.0105,-3.5895,-6.2193,-4.5327,0.6655,1.3850,-0.0113,
3.934976,0.0270,-0.8334,-0.0142,-3.5895,-6.2193,-4.5327,0.6655,1.3850,-0.0113,
3.937642,0.0270,-0.8334,-0.0142,-3.5895,-6.2193,-4.5327,-0.1984,2.0316,0.0750,
3.939393,0.0270,-0.8334,-0.0142,-3.7228,-6.1323,-4.5115,-0.1984,2.0316,0.0750,
3.940708,-0.0130,-0.7853,-0.0406,-3.7228,-6.1323,-4.5115,-0.1984,2.0316,0.0750,
3.941673,-0.0291,-0.7408,-0.0640,-3.7228,-6.1323,-4.5115,-0.1984,2.0316,0.0750,
3.954211,-0.0321,-0.7120,-0.0811,-3.7228,-6.1323,-4.5115,-0.1984,2.0316,0.0750,
3.955302,-0.0189,-0.6912,-0.0916,-3.7228,-6.1323,-4.5115,-0.1984,2.0316,0.0750,
3.957730,0.0092,-0.6780,-0.0831,-3.7228,-6.1323,-4.5115,-0.1984,2.0316,0.0750,
3.961520,0.0622,-0.6688,-0.0567,-3.7228,-6.1323,-4.5115,-0.1984,2.0316,0.0750,
3.967381,0.1331,-0.6666,-0.0130,-3.7228,-6.1323,-4.5115,-0.1984,2.0316,0.0750,
3.970149,0.2152,-0.6785,0.0178,-3.7228,-6.1323,-4.5115,-0.1984,2.0316,0.0750,
3.971611,0.2152,-0.6785,0.0178,-3.7228,-6.1323,-4.5115,-0.0311,1.3861,0.2071,
3.972231,0.2152,-0.6785,0.0178,0.2229,-1.7307,0.7200,-0.0311,1.3861,0.2071,
3.976005,0.3136,-0.7086,0.0457,0.2229,-1.7307,0.7200,-0.0311,1.3861,0.2071,
3.981223,0.4087,-0.7499,0.0728,0.2229,-1.7307,0.7200,-0.0311,1.3861,0.2071,
3.988412,0.4575,-0.7951,0.1014,0.2229,-1.7307,0.7200,-0.0311,1.3861,0.2071,
3.989869,0.5044,-0.8662,0.1077,0.2229,-1.7307,0.7200,-0.0311,1.3861,0.2071,
3.996476,0.5374,-0.9434,0.1300,0.2229,-1.7307,0.7200,-0.0311,1.3861,0.2071,
4.000121,0.5332,-1.0264,0.1568,0.2229,-1.7307,0.7200,-0.0311,1.3861,0.2071,
4.006610,0.4907,-1.1151,0.1515,0.2229,-1.7307,0.7200,-0.0311,1.3861,0.2071,
4.009752,0.4302,-1.2092,0.1182,0.2229,-1.7307,0.7200,-0.0311,1.3861,0.2071,
4.010532,0.4302,-1.2092,0.1182,0.2229,-1.7307,0.7200,0.3822,0.1823,0.7237,
4.010979,0.4302,-1.2092,0.1182,1.5797,1.4979,3.0534,0.3822,0.1823,0.7237,
4.017075,0.3683,-1.2837,0.0728,1.5797,1.4979,3.0534,0.3822,0.1823,0.7237,
4.021090,0.3041,-1.3284,0.0496,1.5797,1.4979,3.0534,0.3822,0.1823,0.7237,
4.024559,0.2787,-1.3428,0.0278,1.5797,1.4979,3.0534,0.3822,0.1823,0.7237,
4.031929,0.2689,-1.3162,-0.0091,1.5797,1.4979,3.0534,0.3822,0.1823,0.7237,
4.036571,0.2709,-1.2600,-0.0538,1.5797,1.4979,3.0534,0.3822,0.1823,0.7237,
4.040620,0.2924,-1.1799,-0.1070,1.5797,1.4979,3.0534,0.3822,0.1823,0.7237,
4.046137,0.3258,-1.0961,-0.1466,1.5797,1.4979,3.0534,0.3822,0.1823,0.7237,
4.051462,0.3573,-1.0291,-0.1727,1.5797,1.4979,3.0534,0.3822,0.1823,0.7237,
4.053450,0.3573,-1.0291,-0.1727,1.5797,1.4979,3.0534,0.7284,0.7384,0.2806,
4.054576,0.3573,-1.0291,-0.1727,1.5902,1.5569,2.6859,0.7284,0.7384,0.2806,
4.057069,0.3798,-0.9812,-0.1810,1.5902,1.5569,2.6859,0.7284,0.7384,0.2806,
4.059232,0.3979,-0.9485,-0.1652,1.5902,1.5569,2.6859,0.7284,0.7384,0.2806,
4.064405,0.4074,-0.9412,-0.1346,1.5902,1.5569,2.6859,0.7284,0.7384,0.2806,
4.070006,0.4033,-0.9470,-0.1200,1.5902,1.5569,2.6859,0.7284,0.7384,0.2806,
4.074029,0.3774,-0.9646,-0.1205,1.5902,1.5569,2.6859,0.7284,0.7384,0.2806,
4.079032,0.3380,-1.0054,-0.0999,1.5902,1.5569,2.6859,0.7284,0.7384,0.2806,
4.085556,0.3048,-1.0565,-0.0726,1.5902,1.5569,2.6859,0.7284,0.7384,0.2806,
4.091344,0.2670,-1.1100,-0.0403,1.5902,1.5569,2.6859,0.7284,0.7384,0.2806,
4.092707,0.2670,-1.1100,-0.0403,1.5902,1.5569,2.6859,0.7880,1.6364,0.0611,
4.093592,0.2670,-1.1100,-0.0403,1.7244,-1.2372,0.9714,0.7880,1.6364,0.0611,
4.095850,0.2406,-1.1608,-0.0056,1.7244,-1.2372,0.9714,0.7880,1.6364,0.0611,
4.102886,0.2117,-1.2070,-0.0012,1.7244,-1.2372,0.9714,0.7880,1.6364,0.0611,
4.106618,0.1912,-1.2348,0.0024,1.7244,-1.2372,0.9714,0.7880,1.6364,0.0611,
4.109685,0.1494,-1.2338,0.0115,1.7244,-1.2372,0.9714,0.7880,1.6364,0.0611,
4.116093,0.1138,-1.2255,0.0078,1.7244,-1.2372,0.9714,0.7880,1.6364,0.0611,
4.119622,0.0722,-1.1989,0.0071,1.7244,-1.2372,0.9714,0.7880,1.6364,0.0611,
4.126445,0.0571,-1.1549,-0.0174,1.7244,-1.2372,0.9714,0.7880,1.6364,0.0611,
4.129316,0.0686,-1.0931,-0.0591,1.7244,-1.2372,0.9714,0.7880,1.6364,0.0611,
4.130671,0.0686,-1.0931,-0.0591,1.7244,-1.2372,0.9714,0.4994,1.3467,0.1570,
4.131592,0.0686,-1.0931,-0.0591,1.6704,-1.1748,0.6785,0.4994,1.3467,0.1570,
4.135573,0.0852,-1.0235,-0.0963,1.6704,-1.1748,0.6785,0.4994,1.3467,0.1570,
4.141567,0.1006,-0.9536,-0.1310,1.6704,-1.1748,0.6785,0.4994,1.3467,0.1570,
4.144788,0.1267,-0.8894,-0.1649,1.6704,-1.1748,0.6785,0.4994,1.3467,0.1570,
4.153608,0.1399,-0.8112,-0.1791,1.6704,-1.1748,0.6785,0.4994,1.3467,0.1570,
4.156275,0.1514,-0.7543,-0.1644,1.6704,-1.1748,0.6785,0.4994,1.3467,0.1570,
4.161118,0.1827,-0.7125,-0.1319,1.6704,-1.1748,0.6785,0.4994,1.3467,0.1570,
4.164802,0.2200,-0.6864,-0.0867,1.6704,-1.1748,0.6785,0.4994,1.3467,0.1570,
4.171412,0.2782,-0.6844,-0.0447,1.6704,-1.1748,0.6785,0.4994,1.3467,0.1570,
4.174423,0.2782,-0.6844,-0.0447,1.6704,-1.1748,0.6785,0.5068,1.2327,0.4212,
4.176395,0.2782,-0.6844,-0.0447,0.0857,-1.1312,0.8132,0.5068,1.2327,0.4212,
4.177695,0.3351,-0.7066,-0.0073,0.0857,-1.1312,0.8132,0.5068,1.2327,0.4212,
4.179845,0.3986,-0.7374,0.0151,0.0857,-1.1312,0.8132,0.5068,1.2327,0.4212,
4.186211,0.4558,-0.7780,0.0293,0.0857,-1.1312,0.8132,0.5068,1.2327,0.4212,
4.190168,0.5071,-0.8171,0.0330,0.0857,-1.1312,0.8132,0.5068,1.2327,0.4212,
4.193627,0.5484,-0.8539,0.0339,0.0857,-1.1312,0.8132,0.5068,1.2327,0.4212,
4.202070,0.5787,-0.8847,0.0383,0.0857,-1.1312,0.8132,0.5068,1.2327,0.4212,
4.205731,0.5921,-0.9106,0.0371,0.0857,-1.1312,0.8132,0.5068,1.2327,0.4212,
4.209142,0.5926,-0.9287,0.0181,0.0857,-1.1312,0.8132,0.5068,1.2327,0.4212,
4.210369,0.5926,-0.9287,0.0181,0.0857,-1.1312,0.8132,0.4131,1.0122,0.8196,
4.211194,0.5926,-0.9287,0.0181,2.0754,2.2357,0.5099,0.4131,1.0122,0.8196,
4.213228,0.5841,-0.9463,-0.0213,2.0754,2.2357,0.5099,0.4131,1.0122,0.8196,
4.219866,0.5587,-0.9592,-0.0477,2.0754,2.2357,0.5099,0.4131,1.0122,0.8196,
4.223658,0.5347,-0.9668,-0.0755,2.0754,2.2357,0.5099,0.4131,1.0122,0.8196,
4.230550,0.5054,-0.9646,-0.0987,2.0754,2.2357,0.5099,0.4131,1.0122,0.8196,
4.235307,0.4538,-0.9644,-0.1178,2.0754,2.2357,0.5099,0.4131,1.0122,0.8196,
4.239731,0.4152,-0.9597,-0.1344,2.0754,2.2357,0.5099,0.4131,1.0122,0.8196,
4.244172,0.3788,-0.9480,-0.1488,2.0754,2.2357,0.5099,0.4131,1.0122,0.8196,
4.247969,0.3542,-0.9224,-0.1586,2.0754,2.2357,0.5099,0.4131,1.0122,0.8196,
4.249274,0.3542,-0.9224,-0.1586,2.0754,2.2357,0.5099,0.3129,1.0207,0.6737,
4.249850,0.3542,-0.9224,-0.1586,2.2681,2.2409,0.3317,0.3129,1.0207,0.6737,
4.253457,0.3271,-0.8913,-0.1693,2.2681,2.2409,0.3317,0.3129,1.0207,0.6737,
4.258968,0.3034,-0.8605,-0.1642,2.2681,2.2409,0.3317,0.3129,1.0207,0.6737,
4.262599,0.2848,-0.8437,-0.1510,2.2681,2.2409,0.3317,0.3129,1.0207,0.6737,
4.268906,0.2823,-0.8359,-0.1473,2.2681,2.2409,0.3317,0.3129,1.0207,0.6737,
4.273098,0.2386,-0.8246,-0.1231,2.2681,2.2409,0.3317,0.3129,1.0207,0.6737,
4.277213,0.2298,-0.8461,-0.0904,2.2681,2.2409,0.3317,0.3129,1.0207,0.6737,
4.282009,0.2437,-0.8850,-0.0821,2.2681,2.2409,0.3317,0.3129,1.0207,0.6737,
4.287691,0.2709,-0.9365,-0.0889,2.2681,2.2409,0.3317,0.3129,1.0207,0.6737,
4.289993,0.2709,-0.9365,-0.0889,2.2681,2.2409,0.3317,0.0029,0.8332,0.2380,
4.290868,0.2709,-0.9365,-0.0889,3.0843,0.9055,-0.3212,0.0029,0.8332,0.2380,
4.294367,0.2980,-0.9883,-0.0955,3.0843,0.9055,-0.3212,0.0029,0.8332,0.2380,
4.297725,0.3231,-1.0306,-0.1046,3.0843,0.9055,-0.3212,0.0029,0.8332,0.2380,
4.304488,0.3490,-1.0597,-0.1168,3.0843,0.9055,-0.3212,0.0029,0.8332,0.2380,
4.307765,0.3735,-1.0807,-0.1190,3.0843,0.9055,-0.3212,0.0029,0.8332,0.2380,
4.314748,0.3911,-1.0865,-0.1156,3.0843,0.9055,-0.3212,0.0029,0.8332,0.2380,
4.318355,0.4033,-1.0748,-0.1090,3.0843,0.9055,-0.3212,0.0029,0.8332,0.2380,
4.324859,0.4123,-1.0455,-0.0850,3.0843,0.9055,-0.3212,0.0029,0.8332,0.2380,
4.329213,0.4152,-1.0096,-0.0626,3.0843,0.9055,-0.3212,0.0029,0.8332,0.2380,
4.330331,0.4152,-1.0096,-0.0626,3.0843,0.9055,-0.3212,-0.5989,0.1621,0.2305,
4.331208,0.4152,-1.0096,-0.0626,3.1174,0.8800,-0.0907,-0.5989,0.1621,0.2305,
4.333143,0.4104,-0.9697,-0.0281,3.1174,0.8800,-0.0907,-0.5989,0.1621,0.2305,
4.337889,0.4045,-0.9395,0.0046,3.1174,0.8800,-0.0907,-0.5989,0.1621,0.2305,
4.344032,0.3891,-0.9140,0.0437,3.1174,0.8800,-0.0907,-0.5989,0.1621,0.2305,
4.346738,0.3720,-0.8886,0.0747,3.1174,0.8800,-0.0907,-0.5989,0.1621,0.2305,
4.354140,0.3454,-0.8706,0.1053,3.1174,0.8800,-0.0907,-0.5989,0.1621,0.2305,
4.357522,0.3100,-0.8637,0.1290,3.1174,0.8800,-0.0907,-0.5989,0.1621,0.2305,
4.363221,0.2770,-0.8613,0.1385,3.1174,0.8800,-0.0907,-0.5989,0.1621,0.2305,
4.368865,0.2340,-0.8623,0.1378,3.1174,0.8800,-0.0907,-0.5989,0.1621,0.2305,
4.370739,0.2340,-0.8623,0.1378,3.1174,0.8800,-0.0907,-1.0005,-0.2800,0.2422,
4.372629,0.2340,-0.8623,0.1378,2.2707,0.2020,0.4529,-1.0005,-0.2800,0.2422,
4.373739,0.1829,-0.8645,0.1304,2.2707,0.2020,0.4529,-1.0005,-0.2800,0.2422,
4.378065,0.1338,-0.8708,0.1099,2.2707,0.2020,0.4529,-1.0005,-0.2800,0.2422,
4.381367,0.0881,-0.8835,0.0743,2.2707,0.2020,0.4529,-1.0005,-0.2800,0.2422,
4.386853,0.0390,-0.9011,0.0371,2.2707,0.2020,0.4529,-1.0005,-0.2800,0.2422,
4.391929,-0.0054,-0.9304,-0.0051,2.2707,0.2020,0.4529,-1.0005,-0.2800,0.2422,
4.396882,-0.0497,-0.9675,-0.0472,2.2707,0.2020,0.4529,-1.0005,-0.2800,0.2422,
4.401949,-0.0826,-1.0061,-0.0772,2.2707,0.2020,0.4529,-1.0005,-0.2800,0.2422,
4.405991,-0.1103,-1.0423,-0.1087,2.2707,0.2020,0.4529,-1.0005,-0.2800,0.2422,
4.407404,-0.1103,-1.0423,-0.1087,2.2707,0.2020,0.4529,-0.9100,-0.5389,-0.1232,
4.408165,-0.1103,-1.0423,-0.1087,1.0044,1.0426,2.4127,-0.9100,-0.5389,-0.1232,
4.410479,-0.1234,-1.0687,-0.1266,1.0044,1.0426,2.4127,-0.9100,-0.5389,-0.1232,
4.416369,-0.1244,-1.0863,-0.1383,1.0044,1.0426,2.4127,-0.9100,-0.5389,-0.1232,
4.421028,-0.1222,-1.0914,-0.1468,1.0044,1.0426,2.4127,-0.9100,-0.5389,-0.1232,
4.426251,-0.1147,-1.0890,-0.1468,1.0044,1.0426,2.4127,-0.9100,-0.5389,-0.1232,
4.430944,-0.1010,-1.0814,-0.1432,1.0044,1.0426,2.4127,-0.9100,-0.5389,-0.1232,
4.436384,-0.0863,-1.0728,-0.1273,1.0044,1.0426,2.4127,-0.9100,-0.5389,-0.1232,
4.443757,-0.0663,-1.0611,-0.1075,1.0044,1.0426,2.4127,-0.9100,-0.5389,-0.1232,
4.447044,-0.0428,-1.0416,-0.0894,1.0044,1.0426,2.4127,-0.9100,-0.5389,-0.1232,
4.448198,-0.0428,-1.0416,-0.0894,1.0044,1.0426,2.4127,-0.5862,-0.4174,-0.2116,
4.449276,-0.0428,-1.0416,-0.0894,0.9369,0.9746,2.6132,-0.5862,-0.4174,-0.2116,
4.453309,-0.0191,-1.0201,-0.0652,0.9369,0.9746,2.6132,-0.5862,-0.4174,-0.2116,
4.458049,-0.0032,-0.9956,-0.0428,0.9369,0.9746,2.6132,-0.5862,-0.4174,-0.2116,
4.460701,0.0087,-0.9617,-0.0293,0.9369,0.9746,2.6132,-0.5862,-0.4174,-0.2116,
4.466721,0.0097,-0.9341,-0.0308,0.9369,0.9746,2.6132,-0.5862,-0.4174,-0.2116,
4.470538,-0.0025,-0.9035,-0.0335,0.9369,0.9746,2.6132,-0.5862,-0.4174,-0.2116,
4.475855,-0.0133,-0.8779,-0.0542,0.9369,0.9746,2.6132,-0.5862,-0.4174,-0.2116,
4.480439,-0.0296,-0.8537,-0.0784,0.9369,0.9746,2.6132,-0.5862,-0.4174,-0.2116,
4.485737,-0.0502,-0.8295,-0.1097,0.9369,0.9746,2.6132,-0.5862,-0.4174,-0.2116,
4.487476,-0.0502,-0.8295,-0.1097,0.9369,0.9746,2.6132,-0.8237,-0.0211,0.0100,
4.488853,-0.0502,-0.8295,-0.1097,-1.8226,-0.5905,1.1902,-0.8237,-0.0211,0.0100,
4.490310,-0.0673,-0.8083,-0.1412,-1.8226,-0.5905,1.1902,-0.8237,-0.0211,0.0100,
4.497352,-0.0748,-0.7855,-0.1747,-1.8226,-0.5905,1.1902,-0.8237,-0.0211,0.0100,
4.502048,-0.0883,-0.7606,-0.2035,-1.8226,-0.5905,1.1902,-0.8237,-0.0211,0.0100,
4.507278,-0.0932,-0.7460,-0.2323,-1.8226,-0.5905,1.1902,-0.8237,-0.0211,0.0100,
4.510761,-0.0985,-0.7333,-0.2495,-1.8226,-0.5905,1.1902,-0.8237,-0.0211,0.0100,
4.517025,-0.0966,-0.7276,-0.2646,-1.8226,-0.5905,1.1902,-0.8237,-0.0211,0.0100,
4.520791,-0.0836,-0.7293,-0.2785,-1.8226,-0.5905,1.1902,-0.8237,-0.0211,0.0100,
4.527744,-0.0873,-0.7325,-0.2827,-1.8226,-0.5905,1.1902,-0.8237,-0.0211,0.0100,
4.529258,-0.0873,-0.7325,-0.2827,-1.7733,1.6956,0.9005,-0.8237,-0.0211,0.0100,
4.530895,-0.0873,-0.7325,-0.2827,-1.7733,1.6956,0.9005,-0.8951,0.5403,-0.2350,
4.532655,-0.0834,-0.7489,-0.2902,-1.7733,1.6956,0.9005,-0.8951,0.5403,-0.2350,
4.536475,-0.0787,-0.7665,-0.2976,-1.7733,1.6956,0.9005,-0.8951,0.5403,-0.2350,
4.542746,-0.0687,-0.7880,-0.3049,-1.7733,1.6956,0.9005,-0.8951,0.5403,-0.2350,
4.545784,-0.0455,-0.8195,-0.3047,-1.7733,1.6956,0.9005,-0.8951,0.5403,-0.2350,
4.553340,-0.0416,-0.8393,-0.2988,-1.7733,1.6956,0.9005,-0.8951,0.5403,-0.2350,
4.558285,-0.0106,-0.8618,-0.2927,-1.7733,1.6956,0.9005,-0.8951,0.5403,-0.2350,
4.561638,0.0197,-0.8747,-0.2942,-1.7733,1.6956,0.9005,-0.8951,0.5403,-0.2350,
4.564937,0.0578,-0.8857,-0.2900,-1.7733,1.6956,0.9005,-0.8951,0.5403,-0.2350,
4.566428,0.0578,-0.8857,-0.2900,-1.7733,1.6956,0.9005,-0.8525,0.8321,-0.1508,
4.567923,0.0578,-0.8857,-0.2900,-1.8859,1.5718,1.1603,-0.8525,0.8321,-0.1508,
4.572951,0.0889,-0.8996,-0.2763,-1.8859,1.5718,1.1603,-0.8525,0.8321,-0.1508,
4.577457,0.1299,-0.9023,-0.2536,-1.8859,1.5718,1.1603,-0.8525,0.8321,-0.1508,
4.580409,0.1648,-0.9040,-0.2284,-1.8859,1.5718,1.1603,-0.8525,0.8321,-0.1508,
4.587660,0.1788,-0.9009,-0.2055,-1.8859,1.5718,1.1603,-0.8525,0.8321,-0.1508,
4.592244,0.1985,-0.9055,-0.1828,-1.8859,1.5718,1.1603,-0.8525,0.8321,-0.1508,
4.597260,0.1922,-0.9084,-0.1471,-1.8859,1.5718,1.1603,-0.8525,0.8321,-0.1508,
4.600070,0.1597,-0.9209,-0.1009,-1.8859,1.5718,1.1603,-0.8525,0.8321,-0.1508,
4.607790,0.1597,-0.9209,-0.1009,-0.9092,0.9762,0.3359,-0.8525,0.8321,-0.1508,
4.610286,0.1096,-0.9275,-0.0650,-0.9092,0.9762,0.3359,-0.8525,0.8321,-0.1508,
4.611620,0.1096,-0.9275,-0.0650,-0.9092,0.9762,0.3359,-0.6575,0.3549,0.0878,
4.613016,0.0779,-0.9412,-0.0545,-0.9092,0.9762,0.3359,-0.6575,0.3549,0.0878,
4.616461,0.0678,-0.9482,-0.0284,-0.9092,0.9762,0.3359,-0.6575,0.3549,0.0878,
4.621111,0.0554,-0.9451,0.0024,-0.9092,0.9762,0.3359,-0.6575,0.3549,0.0878,
4.626797,0.0356,-0.9346,0.0298,-0.9092,0.9762,0.3359,-0.6575,0.3549,0.0878,
4.629835,0.0156,-0.9282,0.0569,-0.9092,0.9762,0.3359,-0.6575,0.3549,0.0878,
4.637369,0.0124,-0.9289,0.0586,-0.9092,0.9762,0.3359,-0.6575,0.3549,0.0878,
4.641686,0.0092,-0.9250,0.0667,-0.9092,0.9762,0.3359,-0.6575,0.3549,0.0878,
4.646263,-0.0010,-0.9202,0.0816,-0.9092,0.9762,0.3359,-0.6575,0.3549,0.0878,
4.647544,-0.0010,-0.9202,0.0816,-0.9092,0.9762,0.3359,-0.0961,0.5104,-0.1668,
4.648387,-0.0010,-0.9202,0.0816,-1.0146,0.9398,0.3384,-0.0961,0.5104,-0.1668,
4.649675,-0.0094,-0.9153,0.0916,-1.0146,0.9398,0.3384,-0.0961,0.5104,-0.1668,
4.657951,-0.0103,-0.9116,0.0879,-1.0146,0.9398,0.3384,-0.0961,0.5104,-0.1668,
4.659782,-0.0216,-0.9126,0.0818,-1.0146,0.9398,0.3384,-0.0961,0.5104,-0.1668,
4.664003,-0.0279,-0.9158,0.0667,-1.0146,0.9398,0.3384,-0.0961,0.5104,-0.1668,
4.670584,-0.0350,-0.9250,0.0518,-1.0146,0.9398,0.3384,-0.0961,0.5104,-0.1668,
4.674801,-0.0548,-0.9255,0.0464,-1.0146,0.9398,0.3384,-0.0961,0.5104,-0.1668,
4.679084,-0.0680,-0.9380,0.0315,-1.0146,0.9398,0.3384,-0.0961,0.5104,-0.1668,
4.683825,-0.0785,-0.9534,0.0190,-1.0146,0.9398,0.3384,-0.0961,0.5104,-0.1668,
4.685701,-0.0785,-0.9534,0.0190,-1.0146,0.9398,0.3384,0.7486,1.1091,-0.2670,
4.687146,-0.0785,-0.9534,0.0190,-1.0657,0.2802,2.6630,0.7486,1.1091,-0.2670,
4.688746,-0.0731,-0.9737,-0.0022,-1.0657,0.2802,2.6630,0.7486,1.1091,-0.2670,
4.697944,-0.0614,-0.9944,-0.0156,-1.0657,0.2802,2.6630,0.7486,1.1091,-0.2670,
4.700455,-0.0482,-1.0120,-0.0230,-1.0657,0.2802,2.6630,0.7486,1.1091,-0.2670,
4.709243,-0.0394,-1.0281,-0.0323,-1.0657,0.2802,2.6630,0.7486,1.1091,-0.2670,
4.711059,-0.0167,-1.0506,-0.0670,-1.0657,0.2802,2.6630,0.7486,1.1091,-0.2670,
4.714001,-0.0081,-1.0768,-0.1190,-1.0657,0.2802,2.6630,0.7486,1.1091,-0.2670,
4.721673,-0.0186,-1.0943,-0.1610,-1.0657,0.2802,2.6630,0.7486,1.1091,-0.2670,
4.725328,-0.0375,-1.1080,-0.1854,-1.0657,0.2802,2.6630,0.7486,1.1091,-0.2670,
4.726694,-0.0375,-1.1080,-0.1854,-1.0657,0.2802,2.6630,1.4176,1.1379,-0.2307,
4.727520,-0.0375,-1.1080,-0.1854,-2.1739,-0.1652,1.8725,1.4176,1.1379,-0.2307,
4.729676,-0.0294,-1.1329,-0.2055,-2.1739,-0.1652,1.8725,1.4176,1.1379,-0.2307,
4.733515,-0.0284,-1.1569,-0.2067,-2.1739,-0.1652,1.8725,1.4176,1.1379,-0.2307,
4.741922,-0.0316,-1.1759,-0.1864,-2.1739,-0.1652,1.8725,1.4176,1.1379,-0.2307,
4.743728,-0.0269,-1.1943,-0.1547,-2.1739,-0.1652,1.8725,1.4176,1.1379,-0.2307,
4.751255,-0.0225,-1.2070,-0.1620,-2.1739,-0.1652,1.8725,1.4176,1.1379,-0.2307,
4.755191,-0.0277,-1.2114,-0.1647,-2.1739,-0.1652,1.8725,1.4176,1.1379,-0.2307,
4.758822,-0.0355,-1.2155,-0.1476,-2.1739,-0.1652,1.8725,1.4176,1.1379,-0.2307,
4.764729,-0.0550,-1.2163,-0.1439,-2.1739,-0.1652,1.8725,1.4176,1.1379,-0.2307,
4.765924,-0.0550,-1.2163,-0.1439,-2.1739,-0.1652,1.8725,1.8480,0.9483,-0.2148,
4.766779,-0.0550,-1.2163,-0.1439,-2.2769,-0.0640,1.0865,1.8480,0.9483,-0.2148,
4.770683,-0.1110,-1.2277,-0.1488,-2.2769,-0.0640,1.0865,1.8480,0.9483,-0.2148,
4.774454,-0.1660,-1.2683,-0.1461,-2.2769,-0.0640,1.0865,1.8480,0.9483,-0.2148,
4.779978,-0.2050,-1.3215,-0.1029,-2.2769,-0.0640,1.0865,1.8480,0.9483,-0.2148,
4.783094,-0.2126,-1.3926,-0.0782,-2.2769,-0.0640,1.0865,1.8480,0.9483,-0.2148,
4.790100,-0.1945,-1.4913,-0.1065,-2.2769,-0.0640,1.0865,1.8480,0.9483,-0.2148,
4.793562,-0.1704,-1.5949,-0.1901,-2.2769,-0.0640,1.0865,1.8480,0.9483,-0.2148,
4.799444,-0.1164,-1.6812,-0.2927,-2.2769,-0.0640,1.0865,1.8480,0.9483,-0.2148,
4.803541,-0.0291,-1.7381,-0.4212,-2.2769,-0.0640,1.0865,1.8480,0.9483,-0.2148,
4.805527,-0.0291,-1.7381,-0.4212,-2.2769,-0.0640,1.0865,1.8959,1.1592,-0.1583,
4.806685,-0.0291,-1.7381,-0.4212,-2.6574,-2.2621,-1.1445,1.8959,1.1592,-0.1583,
4.810418,0.0747,-1.7178,-0.5331,-2.6574,-2.2621,-1.1445,1.8959,1.1592,-0.1583,
4.813199,0.1639,-1.6577,-0.6279,-2.6574,-2.2621,-1.1445,1.8959,1.1592,-0.1583,
4.821329,0.2440,-1.5810,-0.6921,-2.6574,-2.2621,-1.1445,1.8959,1.1592,-0.1583,
4.823761,0.2904,-1.5009,-0.7368,-2.6574,-2.2621,-1.1445,1.8959,1.1592,-0.1583,
4.829827,0.2972,-1.4205,-0.7798,-2.6574,-2.2621,-1.1445,1.8959,1.1592,-0.1583,
4.833003,0.2811,-1.3416,-0.8314,-2.6574,-2.2621,-1.1445,1.8959,1.1592,-0.1583,
4.839777,0.2528,-1.2529,-0.9176,-2.6574,-2.2621,-1.1445,1.8959,1.1592,-0.1583,
4.843065,0.2303,-1.1662,-1.0046,-2.6574,-2.2621,-1.1445,1.8959,1.1592,-0.1583,
4.844340,0.2303,-1.1662,-1.0046,-2.6574,-2.2621,-1.1445,1.2695,1.8271,0.0984,
4.845370,0.2303,-1.1662,-1.0046,-2.5789,-2.2129,-1.7395,1.2695,1.8271,0.0984,
4.847170,0.1695,-1.0868,-1.0026,-2.5789,-2.2129,-1.7395,1.2695,1.8271,0.0984,
4.854395,0.0774,-1.0184,-0.9025,-2.5789,-2.2129,-1.7395,1.2695,1.8271,0.0984,
4.857845,0.0024,-0.9595,-0.7605,-2.5789,-2.2129,-1.7395,1.2695,1.8271,0.0984,
4.863344,-0.0223,-0.8977,-0.6213,-2.5789,-2.2129,-1.7395,1.2695,1.8271,0.0984,
4.866965,-0.0118,-0.8217,-0.4737,-2.5789,-2.2129,-1.7395,1.2695,1.8271,0.0984,
4.872653,0.0295,-0.7491,-0.2775,-2.5789,-2.2129,-1.7395,1.2695,1.8271,0.0984,
4.877213,0.1028,-0.7098,-0.0293,-2.5789,-2.2129,-1.7395,1.2695,1.8271,0.0984,
4.881662,0.1912,-0.7079,0.2384,-2.5789,-2.2129,-1.7395,1.2695,1.8271,0.0984,
4.883869,0.1912,-0.7079,0.2384,-2.5789,-2.2129,-1.7395,0.0690,1.4031,0.4468,
4.884765,0.1912,-0.7079,0.2384,-0.5094,-4.6683,-6.3571,0.0690,1.4031,0.4468,
4.888624,0.2721,-0.7291,0.4647,-0.5094,-4.6683,-6.3571,0.0690,1.4031,0.4468,
4.891284,0.3468,-0.7777,0.5963,-0.5094,-4.6683,-6.3571,0.0690,1.4031,0.4468,
4.897509,0.4023,-0.8513,0.6286,-0.5094,-4.6683,-6.3571,0.0690,1.4031,0.4468,
4.903795,0.4091,-0.9392,0.5897,-0.5094,-4.6683,-6.3571,0.0690,1.4031,0.4468,
4.908883,0.3766,-1.0281,0.5086,-0.5094,-4.6683,-6.3571,0.0690,1.4031,0.4468,
4.913570,0.3324,-1.0995,0.4006,-0.5094,-4.6683,-6.3571,0.0690,1.4031,0.4468,
4.917048,0.3092,-1.1542,0.2524,-0.5094,-4.6683,-6.3571,0.0690,1.4031,0.4468,
4.924027,0.3097,-1.1891,0.1199,-0.5094,-4.6683,-6.3571,0.0690,1.4031,0.4468,
4.925653,0.3097,-1.1891,0.1199,-0.5094,-4.6683,-6.3571,-0.8738,0.8066,0.6630,
4.926571,0.3097,-1.1891,0.1199,0.5101,1.3384,0.3362,-0.8738,0.8066,0.6630,
4.927862,0.3146,-1.2043,0.0242,0.5101,1.3384,0.3362,-0.8738,0.8066,0.6630,
4.931295,0.3134,-1.1965,-0.0499,0.5101,1.3384,0.3362,-0.8738,0.8066,0.6630,
4.937799,0.3043,-1.1679,-0.1036,0.5101,1.3384,0.3362,-0.8738,0.8066,0.6630,
4.943298,0.3004,-1.1332,-0.1666,0.5101,1.3384,0.3362,-0.8738,0.8066,0.6630,
4.946378,0.3114,-1.0961,-0.2253,0.5101,1.3384,0.3362,-0.8738,0.8066,0.6630,
4.954019,0.3009,-1.0623,-0.2749,0.5101,1.3384,0.3362,-0.8738,0.8066,0.6630,
4.959478,0.2826,-1.0367,-0.3149,0.5101,1.3384,0.3362,-0.8738,0.8066,0.6630,
4.962838,0.2711,-1.0196,-0.3525,0.5101,1.3384,0.3362,-0.8738,0.8066,0.6630,
4.964460,0.2711,-1.0196,-0.3525,0.5101,1.3384,0.3362,0.4205,1.6396,0.3317,
4.965916,0.2711,-1.0196,-0.3525,0.6308,1.3318,0.0858,0.4205,1.6396,0.3317,
4.967375,0.2804,-1.0008,-0.3914,0.6308,1.3318,0.0858,0.4205,1.6396,0.3317,
4.972384,0.3009,-0.9930,-0.4202,0.6308,1.3318,0.0858,0.4205,1.6396,0.3317,
4.977485,0.3420,-0.9849,-0.4390,0.6308,1.3318,0.0858,0.4205,1.6396,0.3317,
4.982278,0.3632,-0.9678,-0.4271,0.6308,1.3318,0.0858,0.4205,1.6396,0.3317,
4.987119,0.3996,-0.9651,-0.4029,0.6308,1.3318,0.0858,0.4205,1.6396,0.3317,
4.992258,0.4438,-0.9534,-0.3589,0.6308,1.3318,0.0858,0.4205,1.6396,0.3317,
4.995608,0.4790,-0.9338,-0.2900,0.6308,1.3318,0.0858,0.4205,1.6396,0.3317,
5.004106,0.5130,-0.9079,-0.2099,0.6308,1.3318,0.0858,0.4205,1.6396,0.3317,
5.005570,0.5130,-0.9079,-0.2099,0.6308,1.3318,0.0858,0.6900,1.8633,0.3168,
5.006486,0.5130,-0.9079,-0.2099,1.8297,-0.8721,-2.2707,0.6900,1.8633,0.3168,
5.007973,0.5398,-0.8886,-0.1341,1.8297,-0.8721,-2.2707,0.6900,1.8633,0.3168,
5.011905,0.5606,-0.8728,-0.0628,1.8297,-0.8721,-2.2707,0.6900,1.8633,0.3168,
5.016601,0.5899,-0.8552,-0.0056,1.8297,-0.8721,-2.2707,0.6900,1.8633,0.3168,
5.022362,0.6141,-0.8432,0.0405,1.8297,-0.8721,-2.2707,0.6900,1.8633,0.3168,
5.025184,0.6244,-0.8398,0.0625,1.8297,-0.8721,-2.2707,0.6900,1.8633,0.3168,
5.031554,0.6258,-0.8564,0.0542,1.8297,-0.8721,-2.2707,0.6900,1.8633,0.3168,
5.037669,0.6041,-0.8764,0.0195,1.8297,-0.8721,-2.2707,0.6900,1.8633,0.3168,
5.041100,0.5753,-0.8979,-0.0237,1.8297,-0.8721,-2.2707,0.6900,1.8633,0.3168,
5.041890,0.5753,-0.8979,-0.0237,1.8297,-0.8721,-2.2707,-0.1622,1.0867,0.5362,
5.042379,0.5753,-0.8979,-0.0237,4.2457,1.0797,-1.7671,-0.1622,1.0867,0.5362,
5.046824,0.5310,-0.9180,-0.0640,4.2457,1.0797,-1.7671,-0.1622,1.0867,0.5362,
5.053396,0.4815,-0.9338,-0.0965,4.2457,1.0797,-1.7671,-0.1622,1.0867,0.5362,
5.055712,0.4343,-0.9409,-0.1224,4.2457,1.0797,-1.7671,-0.1622,1.0867,0.5362,
5.060748,0.4006,-0.9519,-0.1498,4.2457,1.0797,-1.7671,-0.1622,1.0867,0.5362,
5.065410,0.3776,-0.9548,-0.1698,4.2457,1.0797,-1.7671,-0.1622,1.0867,0.5362,
5.069477,0.3676,-0.9570,-0.1696,4.2457,1.0797,-1.7671,-0.1622,1.0867,0.5362,
5.074212,0.3676,-0.9583,-0.1561,4.2457,1.0797,-1.7671,-0.1622,1.0867,0.5362,
5.079750,0.3774,-0.9675,-0.1319,4.2457,1.0797,-1.7671,-0.1622,1.0867,0.5362,
5.080303,0.3774,-0.9675,-0.1319,4.2457,1.0797,-1.7671,-0.1419,0.4646,0.2635,
5.080884,0.3774,-0.9675,-0.1319,4.2844,1.0736,-1.6998,-0.1419,0.4646,0.2635,
5.084139,0.3972,-0.9749,-0.1036,4.2844,1.0736,-1.6998,-0.1419,0.4646,0.2635,
5.089148,0.4206,-0.9776,-0.0767,4.2844,1.0736,-1.6998,-0.1419,0.4646,0.2635,
5.094158,0.4477,-0.9717,-0.0557,4.2844,1.0736,-1.6998,-0.1419,0.4646,0.2635,
5.098969,0.4670,-0.9693,-0.0340,4.2844,1.0736,-1.6998,-0.1419,0.4646,0.2635,
5.107413,0.4888,-0.9585,0.0054,4.2844,1.0736,-1.6998,-0.1419,0.4646,0.2635,
5.110190,0.5154,-0.9402,0.0393,4.2844,1.0736,-1.6998,-0.1419,0.4646,0.2635,
5.115866,0.5357,-0.9204,0.0664,4.2844,1.0736,-1.6998,-0.1419,0.4646,0.2635,
5.122130,0.5467,-0.9074,0.0862,4.2844,1.0736,-1.6998,-0.1419,0.4646,0.2635,
5.123328,0.5467,-0.9074,0.0862,4.2844,1.0736,-1.6998,-0.0045,0.2782,0.0771,
5.123814,0.5467,-0.9074,0.0862,3.2285,0.4834,-1.3733,-0.0045,0.2782,0.0771,
5.124358,0.5665,-0.9082,0.0823,3.2285,0.4834,-1.3733,-0.0045,0.2782,0.0771,
5.131547,0.5550,-0.8991,0.0955,3.2285,0.4834,-1.3733,-0.0045,0.2782,0.0771,
5.135741,0.5462,-0.9082,0.0953,3.2285,0.4834,-1.3733,-0.0045,0.2782,0.0771,
5.141760,0.5364,-0.9304,0.0532,3.2285,0.4834,-1.3733,-0.0045,0.2782,0.0771,
5.146722,0.5076,-0.9563,0.0037,3.2285,0.4834,-1.3733,-0.0045,0.2782,0.0771,
5.149926,0.4705,-0.9766,-0.0455,3.2285,0.4834,-1.3733,-0.0045,0.2782,0.0771,
5.158123,0.4277,-0.9905,-0.0843,3.2285,0.4834,-1.3733,-0.0045,0.2782,0.0771,
5.161237,0.3740,-1.0142,-0.1212,3.2285,0.4834,-1.3733,-0.0045,0.2782,0.0771,
5.162692,0.3740,-1.0142,-0.1212,3.2285,0.4834,-1.3733,0.0040,-0.2864,0.0388,
5.163649,0.3740,-1.0142,-0.1212,3.1855,0.4767,-1.3413,0.0040,-0.2864,0.0388,
5.165318,0.3180,-1.0452,-0.1534,3.1855,0.4767,-1.3413,0.0040,-0.2864,0.0388,
5.172703,0.2562,-1.0853,-0.1669,3.1855,0.4767,-1.3413,0.0040,-0.2864,0.0388,
5.176858,0.1946,-1.1351,-0.1864,3.1855,0.4767,-1.3413,0.0040,-0.2864,0.0388,
5.181205,0.1463,-1.1806,-0.2167,3.1855,0.4767,-1.3413,0.0040,-0.2864,0.0388,
5.184397,0.1008,-1.2260,-0.2553,3.1855,0.4767,-1.3413,0.0040,-0.2864,0.0388,
5.191242,0.0612,-1.2654,-0.3130,3.1855,0.4767,-1.3413,0.0040,-0.2864,0.0388,
5.194716,0.0344,-1.2871,-0.3780,3.1855,0.4767,-1.3413,0.0040,-0.2864,0.0388,
5.201250,0.0319,-1.2866,-0.4439,3.1855,0.4767,-1.3413,0.0040,-0.2864,0.0388,
5.202769,0.0319,-1.2866,-0.4439,3.1855,0.4767,-1.3413,-0.1568,-0.8563,-0.2861,
5.203680,0.0319,-1.2866,-0.4439,3.4551,0.4232,-0.2778,-0.1568,-0.8563,-0.2861,
5.207887,0.0498,-1.2732,-0.5113,3.4551,0.4232,-0.2778,-0.1568,-0.8563,-0.2861,
5.210245,0.0781,-1.2475,-0.5658,3.4551,0.4232,-0.2778,-0.1568,-0.8563,-0.2861,
5.215430,0.1167,-1.2094,-0.5954,3.4551,0.4232,-0.2778,-0.1568,-0.8563,-0.2861,
5.221281,0.1509,-1.1601,-0.6088,3.4551,0.4232,-0.2778,-0.1568,-0.8563,-0.2861,
5.226200,0.1717,-1.1283,-0.6166,3.4551,0.4232,-0.2778,-0.1568,-0.8563,-0.2861,
5.229331,0.1814,-1.1068,-0.6252,3.4551,0.4232,-0.2778,-0.1568,-0.8563,-0.2861,
5.235293,0.1985,-1.0848,-0.6372,3.4551,0.4232,-0.2778,-0.1568,-0.8563,-0.2861,
5.240953,0.2130,-1.0570,-0.6328,3.4551,0.4232,-0.2778,-0.1568,-0.8563,-0.2861,
5.242954,0.2130,-1.0570,-0.6328,3.4551,0.4232,-0.2778,-1.0314,-1.3144,-0.2648,
5.244121,0.2130,-1.0570,-0.6328,-0.1443,-1.9009,-4.1912,-1.0314,-1.3144,-0.2648,
5.245387,0.2237,-1.0421,-0.5991,-0.1443,-1.9009,-4.1912,-1.0314,-1.3144,-0.2648,
5.250908,0.2391,-1.0272,-0.5255,-0.1443,-1.9009,-4.1912,-1.0314,-1.3144,-0.2648,
5.254721,0.2516,-1.0125,-0.4363,-0.1443,-1.9009,-4.1912,-1.0314,-1.3144,-0.2648,
5.259486,0.2623,-1.0047,-0.3584,-0.1443,-1.9009,-4.1912,-1.0314,-1.3144,-0.2648,
5.264556,0.2750,-0.9998,-0.2883,-0.1443,-1.9009,-4.1912,-1.0314,-1.3144,-0.2648,
5.269438,0.2914,-0.9956,-0.2292,-0.1443,-1.9009,-4.1912,-1.0314,-1.3144,-0.2648,
5.273577,0.2919,-0.9939,-0.1810,-0.1443,-1.9009,-4.1912,-1.0314,-1.3144,-0.2648,
5.280380,0.2814,-0.9900,-0.1390,-0.1443,-1.9009,-4.1912,-1.0314,-1.3144,-0.2648,
5.281983,0.2814,-0.9900,-0.1390,-0.1443,-1.9009,-4.1912,-2.6464,-1.6329,-0.0326,
5.283071,0.2814,-0.9900,-0.1390,-0.1023,-1.9593,-3.0273,-2.6464,-1.6329,-0.0326,
5.284222,0.2770,-0.9883,-0.0955,-0.1023,-1.9593,-3.0273,-2.6464,-1.6329,-0.0326,
5.288877,0.2547,-0.9903,-0.0325,-0.1023,-1.9593,-3.0273,-2.6464,-1.6329,-0.0326,
5.293625,0.2100,-1.0020,0.0476,-0.1023,-1.9593,-3.0273,-2.6464,-1.6329,-0.0326,
5.298066,0.1761,-1.0164,0.1407,-0.1023,-1.9593,-3.0273,-2.6464,-1.6329,-0.0326,
5.305219,0.1314,-1.0369,0.2199,-0.1023,-1.9593,-3.0273,-2.6464,-1.6329,-0.0326,
5.311107,0.0972,-1.0702,0.2856,-0.1023,-1.9593,-3.0273,-2.6464,-1.6329,-0.0326,
5.314507,0.0891,-1.1158,0.3134,-0.1023,-1.9593,-3.0273,-2.6464,-1.6329,-0.0326,
5.322023,0.0786,-1.1627,0.3073,-0.1023,-1.9593,-3.0273,-2.6464,-1.6329,-0.0326,
5.324134,0.0786,-1.1627,0.3073,-0.1023,-1.9593,-3.0273,-3.3186,-1.7586,-0.3394,
5.326310,0.0786,-1.1627,0.3073,1.2006,-0.3882,0.3019,-3.3186,-1.7586,-0.3394,
5.327599,0.0959,-1.2038,0.2592,1.2006,-0.3882,0.3019,-3.3186,-1.7586,-0.3394,
5.329418,0.1126,-1.2145,0.1954,1.2006,-0.3882,0.3019,-3.3186,-1.7586,-0.3394,
5.332839,0.1612,-1.2131,0.1014,1.2006,-0.3882,0.3019,-3.3186,-1.7586,-0.3394,
5.339721,0.2142,-1.1926,0.0027,1.2006,-0.3882,0.3019,-3.3186,-1.7586,-0.3394,
5.343407,0.2650,-1.1584,-0.0706,1.2006,-0.3882,0.3019,-3.3186,-1.7586,-0.3394,
5.349616,0.3158,-1.1210,-0.1100,1.2006,-0.3882,0.3019,-3.3186,-1.7586,-0.3394,
5.355009,0.3627,-1.0880,-0.1183,1.2006,-0.3882,0.3019,-3.3186,-1.7586,-0.3394,
5.359775,0.3859,-1.0479,-0.0960,1.2006,-0.3882,0.3019,-3.3186,-1.7586,-0.3394,
5.361260,0.3859,-1.0479,-0.0960,1.2006,-0.3882,0.3019,-2.2522,-1.1940,-0.7730,
5.362263,0.3859,-1.0479,-0.0960,1.0517,-0.7074,1.1777,-2.2522,-1.1940,-0.7730,
5.363711,0.3862,-0.9949,-0.0765,1.0517,-0.7074,1.1777,-2.2522,-1.1940,-0.7730,
5.367719,0.3894,-0.9399,-0.0562,1.0517,-0.7074,1.1777,-2.2522,-1.1940,-0.7730,
5.373253,0.4189,-0.8960,-0.0472,1.0517,-0.7074,1.1777,-2.2522,-1.1940,-0.7730,
5.378038,0.4045,-0.8571,-0.0384,1.0517,-0.7074,1.1777,-2.2522,-1.1940,-0.7730,
5.383996,0.3923,-0.8195,-0.0538,1.0517,-0.7074,1.1777,-2.2522,-1.1940,-0.7730,
5.388228,0.3730,-0.7894,-0.0814,1.0517,-0.7074,1.1777,-2.2522,-1.1940,-0.7730,
5.392707,0.3393,-0.7741,-0.0955,1.0517,-0.7074,1.1777,-2.2522,-1.1940,-0.7730,
5.396868,0.3068,-0.7557,-0.0987,1.0517,-0.7074,1.1777,-2.2522,-1.1940,-0.7730,
5.397726,0.3068,-0.7557,-0.0987,1.0517,-0.7074,1.1777,-1.0900,-0.7732,-0.9349,
5.398619,0.3068,-0.7557,-0.0987,0.4136,-2.0281,4.9561,-1.0900,-0.7732,-0.9349,
5.401555,0.2775,-0.7521,-0.0716,0.4136,-2.0281,4.9561,-1.0900,-0.7732,-0.9349,
5.406585,0.2352,-0.7413,-0.0345,0.4136,-2.0281,4.9561,-1.0900,-0.7732,-0.9349,
5.411955,0.1824,-0.7152,-0.0156,0.4136,-2.0281,4.9561,-1.0900,-0.7732,-0.9349,
5.419056,0.1370,-0.7120,0.0022,0.4136,-2.0281,4.9561,-1.0900,-0.7732,-0.9349,
5.422317,0.0984,-0.7110,0.0208,0.4136,-2.0281,4.9561,-1.0900,-0.7732,-0.9349,
5.428077,0.0620,-0.7093,0.0344,0.4136,-2.0281,4.9561,-1.0900,-0.7732,-0.9349,
5.433430,0.0236,-0.7113,0.0442,0.4136,-2.0281,4.9561,-1.0900,-0.7732,-0.9349,
5.436485,-0.0113,-0.7181,0.0496,0.4136,-2.0281,4.9561,-1.0900,-0.7732,-0.9349,
5.437536,-0.0113,-0.7181,0.0496,0.4136,-2.0281,4.9561,-0.4402,-1.3602,-1.2214,
5.438687,-0.0113,-0.7181,0.0496,0.8876,1.1490,3.8218,-0.4402,-1.3602,-1.2214,
5.442469,-0.0357,-0.7171,0.0454,0.8876,1.1490,3.8218,-0.4402,-1.3602,-1.2214,
5.448919,-0.0590,-0.7201,0.0359,0.8876,1.1490,3.8218,-0.4402,-1.3602,-1.2214,
5.452235,-0.0726,-0.7220,0.0205,0.8876,1.1490,3.8218,-0.4402,-1.3602,-1.2214,
5.458663,-0.0775,-0.7130,0.0012,0.8876,1.1490,3.8218,-0.4402,-1.3602,-1.2214,
5.462367,-0.0819,-0.7030,-0.0103,0.8876,1.1490,3.8218,-0.4402,-1.3602,-1.2214,
5.467320,-0.0763,-0.6944,-0.0169,0.8876,1.1490,3.8218,-0.4402,-1.3602,-1.2214,
5.473334,-0.0616,-0.6890,-0.0127,0.8876,1.1490,3.8218,-0.4402,-1.3602,-1.2214,
5.477096,-0.0428,-0.6817,-0.0012,0.8876,1.1490,3.8218,-0.4402,-1.3602,-1.2214,
5.478551,-0.0428,-0.6817,-0.0012,0.8876,1.1490,3.8218,0.3012,-1.2313,-1.2747,
5.479620,-0.0428,-0.6817,-0.0012,0.6399,1.0825,3.7487,0.3012,-1.2313,-1.2747,
5.482665,-0.0267,-0.6783,0.0171,0.6399,1.0825,3.7487,0.3012,-1.2313,-1.2747,
5.489043,-0.0147,-0.6739,0.0352,0.6399,1.0825,3.7487,0.3012,-1.2313,-1.2747,
5.495041,0.0004,-0.6751,0.0435,0.6399,1.0825,3.7487,0.3012,-1.2313,-1.2747,
5.496589,0.0163,-0.6646,0.0286,0.6399,1.0825,3.7487,0.3012,-1.2313,-1.2747,
5.500843,0.0183,-0.6695,0.0190,0.6399,1.0825,3.7487,0.3012,-1.2313,-1.2747,
5.506049,0.0197,-0.6824,0.0061,0.6399,1.0825,3.7487,0.3012,-1.2313,-1.2747,
5.513558,0.0187,-0.7057,-0.0225,0.6399,1.0825,3.7487,0.3012,-1.2313,-1.2747,
5.516938,0.0082,-0.7443,-0.0560,0.6399,1.0825,3.7487,0.3012,-1.2313,-1.2747,
5.518391,0.0082,-0.7443,-0.0560,0.6399,1.0825,3.7487,1.1481,-0.6188,-1.2033,
5.519637,0.0082,-0.7443,-0.0560,-2.7633,1.9353,3.9301,1.1481,-0.6188,-1.2033,
5.522035,0.0019,-0.7919,-0.1271,-2.7633,1.9353,3.9301,1.1481,-0.6188,-1.2033,
5.528191,-0.0037,-0.8505,-0.2277,-2.7633,1.9353,3.9301,1.1481,-0.6188,-1.2033,
5.531902,0.0095,-0.9104,-0.3445,-2.7633,1.9353,3.9301,1.1481,-0.6188,-1.2033,
5.538588,0.0141,-0.9820,-0.4183,-2.7633,1.9353,3.9301,1.1481,-0.6188,-1.2033,
5.542874,0.0256,-1.0408,-0.5026,-2.7633,1.9353,3.9301,1.1481,-0.6188,-1.2033,
5.545757,0.0625,-1.1017,-0.6034,-2.7633,1.9353,3.9301,1.1481,-0.6188,-1.2033,
5.552589,0.1140,-1.1544,-0.6916,-2.7633,1.9353,3.9301,1.1481,-0.6188,-1.2033,
5.556729,0.1326,-1.2163,-0.7410,-2.7633,1.9353,3.9301,1.1481,-0.6188,-1.2033,
5.558759,0.1326,-1.2163,-0.7410,-2.7633,1.9353,3.9301,1.9790,-0.3876,-1.1298,
5.560212,0.1326,-1.2163,-0.7410,-2.3334,0.2632,0.3032,1.9790,-0.3876,-1.1298,
5.561455,0.1358,-1.2839,-0.7210,-2.3334,0.2632,0.3032,1.9790,-0.3876,-1.1298,
5.567774,0.1292,-1.3523,-0.6711,-2.3334,0.2632,0.3032,1.9790,-0.3876,-1.1298,
5.572702,0.0732,-1.4271,-0.6408,-2.3334,0.2632,0.3032,1.9790,-0.3876,-1.1298,
5.577992,0.0002,-1.5033,-0.6064,-2.3334,0.2632,0.3032,1.9790,-0.3876,-1.1298,
5.580934,-0.1073,-1.5746,-0.5595,-2.3334,0.2632,0.3032,1.9790,-0.3876,-1.1298,
5.590272,-0.2204,-1.6382,-0.5570,-2.3334,0.2632,0.3032,1.9790,-0.3876,-1.1298,
5.594101,-0.3492,-1.6824,-0.5712,-2.3334,0.2632,0.3032,1.9790,-0.3876,-1.1298,
5.596459,-0.5204,-1.7012,-0.6140,-2.3334,0.2632,0.3032,1.9790,-0.3876,-1.1298,
5.597563,-0.5204,-1.7012,-0.6140,-2.3334,0.2632,0.3032,1.8490,-1.0747,-0.7453,
5.598657,-0.5204,-1.7012,-0.6140,-2.4400,0.3809,-0.2354,1.8490,-1.0747,-0.7453,
5.601974,-0.7020,-1.6809,-0.6626,-2.4400,0.3809,-0.2354,1.8490,-1.0747,-0.7453,
5.607534,-0.8422,-1.6096,-0.6738,-2.4400,0.3809,-0.2354,1.8490,-1.0747,-0.7453,
5.612264,-0.8945,-1.4921,-0.6587,-2.4400,0.3809,-0.2354,1.8490,-1.0747,-0.7453,
5.617223,-0.8012,-1.3687,-0.6157,-2.4400,0.3809,-0.2354,1.8490,-1.0747,-0.7453,
5.621001,-0.6499,-1.2766,-0.5473,-2.4400,0.3809,-0.2354,1.8490,-1.0747,-0.7453,
5.627756,-0.5158,-1.2026,-0.4867,-2.4400,0.3809,-0.2354,1.8490,-1.0747,-0.7453,
5.631110,-0.4137,-1.1461,-0.4549,-2.4400,0.3809,-0.2354,1.8490,-1.0747,-0.7453,
5.637160,-0.3357,-1.1063,-0.4486,-2.4400,0.3809,-0.2354,1.8490,-1.0747,-0.7453,
5.638410,-0.3357,-1.1063,-0.4486,-2.4400,0.3809,-0.2354,0.8530,-0.9138,-0.1541,
5.639624,-0.3357,-1.1063,-0.4486,-6.2126,-5.5485,-3.7099,0.8530,-0.9138,-0.1541,
5.643442,-0.2622,-1.0870,-0.4466,-6.2126,-5.5485,-3.7099,0.8530,-0.9138,-0.1541,
5.645688,-0.1862,-1.0689,-0.4417,-6.2126,-5.5485,-3.7099,0.8530,-0.9138,-0.1541,
5.651964,-0.1083,-1.0643,-0.4461,-6.2126,-5.5485,-3.7099,0.8530,-0.9138,-0.1541,
5.655782,-0.0335,-1.0623,-0.4442,-6.2126,-5.5485,-3.7099,0.8530,-0.9138,-0.1541,
5.661390,0.0385,-1.0548,-0.4417,-6.2126,-5.5485,-3.7099,0.8530,-0.9138,-0.1541,
5.666560,0.1267,-1.0513,-0.4205,-6.2126,-5.5485,-3.7099,0.8530,-0.9138,-0.1541,
5.672405,0.2244,-1.0443,-0.3723,-6.2126,-5.5485,-3.7099,0.8530,-0.9138,-0.1541,
5.676158,0.3192,-1.0320,-0.3203,-6.2126,-5.5485,-3.7099,0.8530,-0.9138,-0.1541,
5.677570,0.3192,-1.0320,-0.3203,-6.2126,-5.5485,-3.7099,0.3609,-0.5868,0.5075,
5.678518,0.3192,-1.0320,-0.3203,-5.8719,-5.3733,-3.7201,0.3609,-0.5868,0.5075,
5.679492,0.4045,-1.0215,-0.2607,-5.8719,-5.3733,-3.7201,0.3609,-0.5868,0.5075,
5.684222,0.4773,-1.0108,-0.2008,-5.8719,-5.3733,-3.7201,0.3609,-0.5868,0.5075,
5.690216,0.5198,-1.0010,-0.1510,-5.8719,-5.3733,-3.7201,0.3609,-0.5868,0.5075,
5.694822,0.5249,-0.9866,-0.1009,-5.8719,-5.3733,-3.7201,0.3609,-0.5868,0.5075,
5.699322,0.5232,-0.9578,-0.0633,-5.8719,-5.3733,-3.7201,0.3609,-0.5868,0.5075,
5.705797,0.5159,-0.9277,-0.0545,-5.8719,-5.3733,-3.7201,0.3609,-0.5868,0.5075,
5.709884,0.4868,-0.9004,-0.0711,-5.8719,-5.3733,-3.7201,0.3609,-0.5868,0.5075,
5.716403,0.4448,-0.8757,-0.1253,-5.8719,-5.3733,-3.7201,0.3609,-0.5868,0.5075,
5.717697,0.4448,-0.8757,-0.1253,-5.8719,-5.3733,-3.7201,0.1585,0.2878,0.4116,
5.718681,0.4448,-0.8757,-0.1253,-2.3250,-1.0538,-1.5808,0.1585,0.2878,0.4116,
5.722220,0.4101,-0.8461,-0.1942,-2.3250,-1.0538,-1.5808,0.1585,0.2878,0.4116,
5.726411,0.3703,-0.8200,-0.2485,-2.3250,-1.0538,-1.5808,0.1585,0.2878,0.4116,
5.730991,0.3273,-0.7936,-0.2793,-2.3250,-1.0538,-1.5808,0.1585,0.2878,0.4116,
5.734345,0.2760,-0.7711,-0.2834,-2.3250,-1.0538,-1.5808,0.1585,0.2878,0.4116,
5.741039,0.2418,-0.7574,-0.2785,-2.3250,-1.0538,-1.5808,0.1585,0.2878,0.4116,
5.744635,0.2208,-0.7572,-0.2810,-2.3250,-1.0538,-1.5808,0.1585,0.2878,0.4116,
5.750822,0.2064,-0.7694,-0.2890,-2.3250,-1.0538,-1.5808,0.1585,0.2878,0.4116,
5.755807,0.2003,-0.7824,-0.3000,-2.3250,-1.0538,-1.5808,0.1585,0.2878,0.4116,
5.757844,0.2003,-0.7824,-0.3000,-2.3250,-1.0538,-1.5808,0.3641,-0.1831,0.1006,
5.759125,0.2003,-0.7824,-0.3000,1.7201,1.0710,0.3754,0.3641,-0.1831,0.1006,
5.760351,0.1966,-0.8000,-0.3056,1.7201,1.0710,0.3754,0.3641,-0.1831,0.1006,
5.765517,0.1927,-0.8237,-0.2988,1.7201,1.0710,0.3754,0.3641,-0.1831,0.1006,
5.768654,0.1924,-0.8449,-0.2756,1.7201,1.0710,0.3754,0.3641,-0.1831,0.1006,
5.775822,0.1949,-0.8640,-0.2421,1.7201,1.0710,0.3754,0.3641,-0.1831,0.1006,
5.779177,0.1934,-0.8840,-0.1991,1.7201,1.0710,0.3754,0.3641,-0.1831,0.1006,
5.785527,0.2012,-0.9062,-0.1564,1.7201,1.0710,0.3754,0.3641,-0.1831,0.1006,
5.789320,0.2171,-0.9182,-0.1280,1.7201,1.0710,0.3754,0.3641,-0.1831,0.1006,
5.796073,0.2301,-0.9338,-0.1026,1.7201,1.0710,0.3754,0.3641,-0.1831,0.1006,
5.797515,0.2301,-0.9338,-0.1026,1.7201,1.0710,0.3754,0.6602,-1.2888,0.0547,
5.798726,0.2301,-0.9338,-0.1026,1.8181,1.1122,0.2264,0.6602,-1.2888,0.0547,
5.799768,0.2450,-0.9500,-0.0968,1.8181,1.1122,0.2264,0.6602,-1.2888,0.0547,
5.806388,0.2574,-0.9607,-0.0926,1.8181,1.1122,0.2264,0.6602,-1.2888,0.0547,
5.809955,0.2687,-0.9680,-0.0921,1.8181,1.1122,0.2264,0.6602,-1.2888,0.0547,
5.813820,0.2616,-0.9702,-0.1029,1.8181,1.1122,0.2264,0.6602,-1.2888,0.0547,
5.818553,0.2508,-0.9619,-0.1129,1.8181,1.1122,0.2264,0.6602,-1.2888,0.0547,
5.823906,0.2425,-0.9460,-0.1112,1.8181,1.1122,0.2264,0.6602,-1.2888,0.0547,
5.828903,0.2398,-0.9263,-0.1121,1.8181,1.1122,0.2264,0.6602,-1.2888,0.0547,
5.832692,0.2486,-0.9028,-0.1202,1.8181,1.1122,0.2264,0.6602,-1.2888,0.0547,
5.833737,0.2486,-0.9028,-0.1202,1.8181,1.1122,0.2264,0.5228,-1.3676,-0.0891,
5.834620,0.2486,-0.9028,-0.1202,0.2180,0.8001,0.1529,0.5228,-1.3676,-0.0891,
5.839702,0.2525,-0.8806,-0.1314,0.2180,0.8001,0.1529,0.5228,-1.3676,-0.0891,
5.844060,0.2484,-0.8735,-0.1356,0.2180,0.8001,0.1529,0.5228,-1.3676,-0.0891,
5.850434,0.2310,-0.8693,-0.1390,0.2180,0.8001,0.1529,0.5228,-1.3676,-0.0891,
5.853742,0.2164,-0.8735,-0.1420,0.2180,0.8001,0.1529,0.5228,-1.3676,-0.0891,
5.862205,0.2025,-0.8921,-0.1610,0.2180,0.8001,0.1529,0.5228,-1.3676,-0.0891,
5.864995,0.1736,-0.9214,-0.2289,0.2180,0.8001,0.1529,0.5228,-1.3676,-0.0891,
5.868719,0.1287,-0.9707,-0.3230,0.2180,0.8001,0.1529,0.5228,-1.3676,-0.0891,
5.874914,0.0669,-1.0242,-0.4031,0.2180,0.8001,0.1529,0.5228,-1.3676,-0.0891,
5.878314,0.0669,-1.0242,-0.4031,0.2180,0.8001,0.1529,0.5143,-1.3250,-0.3170,
5.880018,0.0669,-1.0242,-0.4031,0.1949,0.8011,0.0587,0.5143,-1.3250,-0.3170,
5.881530,0.0002,-1.0670,-0.4339,0.1949,0.8011,0.0587,0.5143,-1.3250,-0.3170,
5.883013,-0.0438,-1.0926,-0.4214,0.1949,0.8011,0.0587,0.5143,-1.3250,-0.3170,
5.889739,-0.0682,-1.1026,-0.3660,0.1949,0.8011,0.0587,0.5143,-1.3250,-0.3170,
5.894789,-0.0629,-1.1009,-0.2797,0.1949,0.8011,0.0587,0.5143,-1.3250,-0.3170,
5.897665,-0.0370,-1.0848,-0.1769,0.1949,0.8011,0.0587,0.5143,-1.3250,-0.3170,
5.902412,0.0336,-1.0469,-0.0738,0.1949,0.8011,0.0587,0.5143,-1.3250,-0.3170,
5.908120,0.1546,-1.0203,-0.0059,0.1949,0.8011,0.0587,0.5143,-1.3250,-0.3170,
5.912832,0.2867,-1.0232,0.0256,0.1949,0.8011,0.0587,0.5143,-1.3250,-0.3170,
5.914422,0.2867,-1.0232,0.0256,0.1949,0.8011,0.0587,0.4802,-1.4422,-0.2531,
5.916081,0.2867,-1.0232,0.0256,-0.0590,0.4296,-0.1313,0.4802,-1.4422,-0.2531,
5.919829,0.3930,-1.0318,0.0139,-0.0590,0.4296,-0.1313,0.4802,-1.4422,-0.2531,
5.924893,0.4710,-1.0274,-0.0142,-0.0590,0.4296,-0.1313,0.4802,-1.4422,-0.2531,
5.932012,0.5247,-0.9978,-0.0291,-0.0590,0.4296,-0.1313,0.4802,-1.4422,-0.2531,
5.934155,0.5420,-0.9649,-0.0320,-0.0590,0.4296,-0.1313,0.4802,-1.4422,-0.2531,
5.939637,0.5335,-0.9275,-0.0159,-0.0590,0.4296,-0.1313,0.4802,-1.4422,-0.2531,
5.944497,0.5110,-0.8979,0.0212,-0.0590,0.4296,-0.1313,0.4802,-1.4422,-0.2531,
5.947817,0.4626,-0.8764,0.0383,-0.0590,0.4296,-0.1313,0.4802,-1.4422,-0.2531,
5.953701,0.4140,-0.8625,0.0142,-0.0590,0.4296,-0.1313,0.4802,-1.4422,-0.2531,
5.954948,0.4140,-0.8625,0.0142,-0.0590,0.4296,-0.1313,0.1563,-2.0984,0.4084,
5.955696,0.4140,-0.8625,0.0142,0.7898,-0.4349,0.8502,0.1563,-2.0984,0.4084,
5.959704,0.3669,-0.8654,-0.0508,0.7898,-0.4349,0.8502,0.1563,-2.0984,0.4084,
5.965762,0.3031,-0.8874,-0.1395,0.7898,-0.4349,0.8502,0.1563,-2.0984,0.4084,
5.967775,0.2350,-0.9204,-0.2355,0.7898,-0.4349,0.8502,0.1563,-2.0984,0.4084,
5.977606,0.1653,-0.9551,-0.3159,0.7898,-0.4349,0.8502,0.1563,-2.0984,0.4084,
5.979624,0.1133,-0.9854,-0.3919,0.7898,-0.4349,0.8502,0.1563,-2.0984,0.4084,
5.983675,0.0742,-1.0154,-0.4337,0.7898,-0.4349,0.8502,0.1563,-2.0984,0.4084,
5.987407,0.0554,-1.0284,-0.4410,0.7898,-0.4349,0.8502,0.1563,-2.0984,0.4084,
5.995621,0.0630,-1.0274,-0.4207,0.7898,-0.4349,0.8502,0.1563,-2.0984,0.4084,
5.997876,0.0630,-1.0274,-0.4207,0.7898,-0.4349,0.8502,0.2831,-1.1556,0.1187,
5.999427,0.0630,-1.0274,-0.4207,0.9052,-0.3997,0.8010,0.2831,-1.1556,0.1187,
6.000754,0.0911,-1.0203,-0.3846,0.9052,-0.3997,0.8010,0.2831,-1.1556,0.1187,
6.003512,0.1577,-1.0069,-0.3457,0.9052,-0.3997,0.8010,0.2831,-1.1556,0.1187,
6.007844,0.2371,-0.9964,-0.3034,0.9052,-0.3997,0.8010,0.2831,-1.1556,0.1187,
6.014255,0.3180,-0.9876,-0.2614,0.9052,-0.3997,0.8010,0.2831,-1.1556,0.1187,
6.017587,0.3791,-0.9803,-0.2438,0.9052,-0.3997,0.8010,0.2831,-1.1556,0.1187,
6.024713,0.4292,-0.9707,-0.2385,0.9052,-0.3997,0.8010,0.2831,-1.1556,0.1187,
6.029090,0.4436,-0.9619,-0.2262,0.9052,-0.3997,0.8010,0.2831,-1.1556,0.1187,
6.032708,0.4560,-0.9463,-0.2089,0.9052,-0.3997,0.8010,0.2831,-1.1556,0.1187,
6.034529,0.4560,-0.9463,-0.2089,0.9052,-0.3997,0.8010,0.3002,-0.3173,0.0036,
6.036558,0.4560,-0.9463,-0.2089,0.5434,0.2740,-0.8306,0.3002,-0.3173,0.0036,
6.042959,0.4778,-0.9224,-0.1952,0.5434,0.2740,-0.8306,0.3002,-0.3173,0.0036,
6.044943,0.5105,-0.8950,-0.1920,0.5434,0.2740,-0.8306,0.3002,-0.3173,0.0036,
6.048656,0.5460,-0.8759,-0.1874,0.5434,0.2740,-0.8306,0.3002,-0.3173,0.0036,
6.050462,0.5811,-0.8723,-0.1722,0.5434,0.2740,-0.8306,0.3002,-0.3173,0.0036,
6.060818,0.6280,-0.8706,-0.1564,0.5434,0.2740,-0.8306,0.3002,-0.3173,0.0036,
6.062391,0.6808,-0.8706,-0.1454,0.5434,0.2740,-0.8306,0.3002,-0.3173,0.0036,
6.067175,0.7328,-0.8769,-0.1385,0.5434,0.2740,-0.8306,0.3002,-0.3173,0.0036,
6.072675,0.7795,-0.8850,-0.1361,0.5434,0.2740,-0.8306,0.3002,-0.3173,0.0036,
6.074209,0.7795,-0.8850,-0.1361,0.5434,0.2740,-0.8306,0.1137,-1.0939,0.4308,
6.075882,0.7795,-0.8850,-0.1361,3.9019,0.6950,-0.1266,0.1137,-1.0939,0.4308,
6.077080,0.8047,-0.9011,-0.1317,3.9019,0.6950,-0.1266,0.1137,-1.0939,0.4308,
6.081338,0.8130,-0.9243,-0.1253,3.9019,0.6950,-0.1266,0.1137,-1.0939,0.4308,
6.085308,0.8042,-0.9487,-0.1207,3.9019,0.6950,-0.1266,0.1137,-1.0939,0.4308,
6.090194,0.7673,-0.9763,-0.1131,3.9019,0.6950,-0.1266,0.1137,-1.0939,0.4308,
6.095784,0.7211,-0.9978,-0.1148,3.9019,0.6950,-0.1266,0.1137,-1.0939,0.4308,
6.100001,0.6679,-1.0152,-0.1280,3.9019,0.6950,-0.1266,0.1137,-1.0939,0.4308,
6.106051,0.6234,-1.0132,-0.1424,3.9019,0.6950,-0.1266,0.1137,-1.0939,0.4308,
6.111540,0.6234,-1.0132,-0.1424,4.0651,0.7120,-0.1221,0.1137,-1.0939,0.4308,
6.113622,0.5911,-1.0086,-0.1573,4.0651,0.7120,-0.1221,0.1137,-1.0939,0.4308,
6.116043,0.5911,-1.0086,-0.1573,4.0651,0.7120,-0.1221,0.2181,-1.7788,0.2806,
6.117316,0.5582,-1.0003,-0.1666,4.0651,0.7120,-0.1221,0.2181,-1.7788,0.2806,
6.124385,0.5191,-0.9839,-0.1813,4.0651,0.7120,-0.1221,0.2181,-1.7788,0.2806,
6.127438,0.4746,-0.9658,-0.1749,4.0651,0.7120,-0.1221,0.2181,-1.7788,0.2806,
6.132287,0.4309,-0.9524,-0.1564,4.0651,0.7120,-0.1221,0.2181,-1.7788,0.2806,
6.137641,0.3798,-0.9360,-0.1366,4.0651,0.7120,-0.1221,0.2181,-1.7788,0.2806,
6.142166,0.3288,-0.9233,-0.1163,4.0651,0.7120,-0.1221,0.2181,-1.7788,0.2806,
6.148299,0.2714,-0.9204,-0.0855,4.0651,0.7120,-0.1221,0.2181,-1.7788,0.2806,
