
time,gFx,gFy,gFz,ax,ay,az,wx,wy,wz,
0.045609,0.0000,0.0000,0.0000,0.1207,0.2945,-0.2720,0.0000,0.0000,0.0000,
0.105478,0.0000,0.0000,0.0000,0.1845,0.3246,-0.2828,0.0000,0.0000,0.0000,
0.166169,0.0000,0.0000,0.0000,0.2390,0.3894,-0.3061,0.0000,0.0000,0.0000,
0.225669,0.0000,0.0000,0.0000,0.3138,0.4498,-0.3265,0.0000,0.0000,0.0000,
0.285340,0.0000,0.0000,0.0000,0.3138,0.4498,-0.3265,-0.0025,0.0537,0.0104,
0.286039,0.0000,0.0000,0.0000,1.3275,1.6509,-0.5967,-0.0025,0.0537,0.0104,
0.345210,0.0000,0.0000,0.0000,1.3275,1.6509,-0.5967,-0.0227,0.0903,0.0171,
0.345879,0.0000,0.0000,0.0000,4.9499,7.1602,1.0821,-0.0227,0.0903,0.0171,
0.405116,0.0000,0.0000,0.0000,4.9499,7.1602,1.0821,-0.0263,0.0604,0.0440,
0.405778,0.0000,0.0000,0.0000,6.0483,9.7594,3.9145,-0.0263,0.0604,0.0440,
0.433706,-0.6037,-0.7823,0.0711,6.0483,9.7594,3.9145,-0.0263,0.0604,0.0440,
0.466040,-0.6037,-0.7823,0.0711,6.0483,9.7594,3.9145,0.0433,0.1325,0.0880,
0.467500,-0.6037,-0.7823,0.0711,0.2740,-0.7031,-2.3626,0.0433,0.1325,0.0880,
0.493398,-0.6267,-0.7884,0.1070,0.2740,-0.7031,-2.3626,0.0433,0.1325,0.0880,
0.494534,-0.6220,-0.7720,0.1175,0.2740,-0.7031,-2.3626,0.0433,0.1325,0.0880,
0.495269,-0.6203,-0.7635,0.1121,0.2740,-0.7031,-2.3626,0.0433,0.1325,0.0880,
0.525647,-0.6203,-0.7635,0.1121,0.2740,-0.7031,-2.3626,0.0525,0.1740,0.0929,
0.526669,-0.6203,-0.7635,0.1121,0.1728,-0.3951,-1.5193,0.0525,0.1740,0.0929,
0.552735,-0.6206,-0.7588,0.0977,0.1728,-0.3951,-1.5193,0.0525,0.1740,0.0929,
0.553465,-0.6281,-0.7608,0.0884,0.1728,-0.3951,-1.5193,0.0525,0.1740,0.0929,
0.553919,-0.6294,-0.7588,0.0972,0.1728,-0.3951,-1.5193,0.0525,0.1740,0.0929,
0.586268,-0.6294,-0.7588,0.0972,0.1728,-0.3951,-1.5193,-0.1137,0.1013,0.0464,
0.587312,-0.6294,-0.7588,0.0972,0.1455,-0.3736,-1.5819,-0.1137,0.1013,0.0464,
0.613422,-0.6289,-0.7449,0.0980,0.1455,-0.3736,-1.5819,-0.1137,0.1013,0.0464,
0.615334,-0.6252,-0.7356,0.0814,0.1455,-0.3736,-1.5819,-0.1137,0.1013,0.0464,
0.616051,-0.6406,-0.7437,0.0586,0.1455,-0.3736,-1.5819,-0.1137,0.1013,0.0464,
0.645482,-0.6406,-0.7437,0.0586,0.0387,-0.1884,-1.8467,-0.1137,0.1013,0.0464,
0.646723,-0.6406,-0.7437,0.0586,0.0387,-0.1884,-1.8467,-0.3916,-0.1809,-0.0312,
0.673099,-0.6509,-0.7574,0.0437,0.0387,-0.1884,-1.8467,-0.3916,-0.1809,-0.0312,
0.674112,-0.6457,-0.7613,0.0535,0.0387,-0.1884,-1.8467,-0.3916,-0.1809,-0.0312,
0.674809,-0.6257,-0.7628,0.0528,0.0387,-0.1884,-1.8467,-0.3916,-0.1809,-0.0312,
0.705808,-0.6257,-0.7628,0.0528,0.1437,-0.2991,-1.7837,-0.3916,-0.1809,-0.0312,
0.708600,-0.6257,-0.7628,0.0528,0.1437,-0.2991,-1.7837,-0.4747,-0.2640,-0.0428,
0.736118,-0.6137,-0.7689,0.0366,0.1437,-0.2991,-1.7837,-0.4747,-0.2640,-0.0428,
0.737600,-0.6196,-0.7784,0.0242,0.1437,-0.2991,-1.7837,-0.4747,-0.2640,-0.0428,
0.738527,-0.6242,-0.7887,0.0173,0.1437,-0.2991,-1.7837,-0.4747,-0.2640,-0.0428,
0.766274,-0.6242,-0.7887,0.0173,0.1437,-0.2991,-1.7837,-0.5523,-0.2316,-0.0318,
0.767869,-0.6242,-0.7887,0.0173,0.1051,-0.4616,-1.9836,-0.5523,-0.2316,-0.0318,
0.793533,-0.6152,-0.7808,0.0188,0.1051,-0.4616,-1.9836,-0.5523,-0.2316,-0.0318,
0.795260,-0.6079,-0.7845,0.0027,0.1051,-0.4616,-1.9836,-0.5523,-0.2316,-0.0318,
0.796261,-0.5976,-0.7908,-0.0110,0.1051,-0.4616,-1.9836,-0.5523,-0.2316,-0.0318,
0.825854,-0.5976,-0.7908,-0.0110,0.1051,-0.4616,-1.9836,-0.5798,-0.2854,0.0067,
0.827577,-0.5976,-0.7908,-0.0110,0.3277,-0.4040,-2.0969,-0.5798,-0.2854,0.0067,
0.853792,-0.5839,-0.7945,-0.0186,0.3277,-0.4040,-2.0969,-0.5798,-0.2854,0.0067,
0.855467,-0.5734,-0.7979,-0.0259,0.3277,-0.4040,-2.0969,-0.5798,-0.2854,0.0067,
0.856584,-0.5629,-0.8006,-0.0261,0.3277,-0.4040,-2.0969,-0.5798,-0.2854,0.0067,
0.887166,-0.5629,-0.8006,-0.0261,0.6424,-0.4414,-2.1023,-0.5798,-0.2854,0.0067,
0.888794,-0.5629,-0.8006,-0.0261,0.6424,-0.4414,-2.1023,-0.3727,-0.1894,0.0250,
0.913535,-0.5524,-0.8070,-0.0161,0.6424,-0.4414,-2.1023,-0.3727,-0.1894,0.0250,
0.915987,-0.5358,-0.8177,-0.0347,0.6424,-0.4414,-2.1023,-0.3727,-0.1894,0.0250,
0.917715,-0.5280,-0.8187,-0.0611,0.6424,-0.4414,-2.1023,-0.3727,-0.1894,0.0250,
0.946154,-0.5280,-0.8187,-0.0611,0.6424,-0.4414,-2.1023,-0.2182,-0.1094,-0.0843,
0.948058,-0.5280,-0.8187,-0.0611,0.9642,-0.5800,-2.3561,-0.2182,-0.1094,-0.0843,
0.973327,-0.5546,-0.8346,-0.0963,0.9642,-0.5800,-2.3561,-0.2182,-0.1094,-0.0843,
0.974771,-0.5680,-0.8209,-0.1314,0.9642,-0.5800,-2.3561,-0.2182,-0.1094,-0.0843,
0.975643,-0.5815,-0.7955,-0.1502,0.9642,-0.5800,-2.3561,-0.2182,-0.1094,-0.0843,
1.005480,-0.5815,-0.7955,-0.1502,0.9642,-0.5800,-2.3561,-0.3135,-0.3092,-0.2370,
1.007506,-0.5815,-0.7955,-0.1502,0.3450,-0.2622,-3.1726,-0.3135,-0.3092,-0.2370,
1.035635,-0.6020,-0.7735,-0.1520,0.3450,-0.2622,-3.1726,-0.3135,-0.3092,-0.2370,
1.037106,-0.6316,-0.7672,-0.1471,0.3450,-0.2622,-3.1726,-0.3135,-0.3092,-0.2370,
1.037977,-0.6616,-0.7603,-0.1463,0.3450,-0.2622,-3.1726,-0.3135,-0.3092,-0.2370,
1.065430,-0.6616,-0.7603,-0.1463,0.3450,-0.2622,-3.1726,-0.3257,-0.2096,-0.2053,
1.067629,-0.6616,-0.7603,-0.1463,-0.5832,0.2082,-3.0740,-0.3257,-0.2096,-0.2053,
1.093165,-0.6804,-0.7530,-0.1319,-0.5832,0.2082,-3.0740,-0.3257,-0.2096,-0.2053,
1.094751,-0.6919,-0.7581,-0.1156,-0.5832,0.2082,-3.0740,-0.3257,-0.2096,-0.2053,
1.095650,-0.6900,-0.7667,-0.0877,-0.5832,0.2082,-3.0740,-0.3257,-0.2096,-0.2053,
1.125495,-0.6900,-0.7667,-0.0877,-0.5832,0.2082,-3.0740,-0.0862,0.2534,-0.0880,
1.127307,-0.6900,-0.7667,-0.0877,-0.9243,0.2198,-2.3745,-0.0862,0.2534,-0.0880,
1.153610,-0.6477,-0.7755,-0.0677,-0.9243,0.2198,-2.3745,-0.0862,0.2534,-0.0880,
1.155188,-0.6237,-0.7843,-0.0740,-0.9243,0.2198,-2.3745,-0.0862,0.2534,-0.0880,
1.156471,-0.6145,-0.7821,-0.0799,-0.9243,0.2198,-2.3745,-0.0862,0.2534,-0.0880,
1.186675,-0.6145,-0.7821,-0.0799,-0.9243,0.2198,-2.3745,0.1019,0.2681,-0.0947,
1.188277,-0.6145,-0.7821,-0.0799,-0.1939,0.0956,-2.1946,0.1019,0.2681,-0.0947,
1.213350,-0.6135,-0.7850,-0.0855,-0.1939,0.0956,-2.1946,0.1019,0.2681,-0.0947,
1.215064,-0.6164,-0.7916,-0.0828,-0.1939,0.0956,-2.1946,0.1019,0.2681,-0.0947,
1.216021,-0.6171,-0.7950,-0.0772,-0.1939,0.0956,-2.1946,0.1019,0.2681,-0.0947,
1.245734,-0.6171,-0.7950,-0.0772,-0.2627,0.0142,-2.0901,0.1019,0.2681,-0.0947,
1.247513,-0.6171,-0.7950,-0.0772,-0.2627,0.0142,-2.0901,-0.0386,0.1679,-0.2028,
1.273536,-0.6189,-0.7877,-0.0828,-0.2627,0.0142,-2.0901,-0.0386,0.1679,-0.2028,
1.276160,-0.6338,-0.7799,-0.0836,-0.2627,0.0142,-2.0901,-0.0386,0.1679,-0.2028,
1.278322,-0.6592,-0.7865,-0.0696,-0.2627,0.0142,-2.0901,-0.0386,0.1679,-0.2028,
1.307046,-0.6592,-0.7865,-0.0696,-0.7619,0.1755,-1.9336,-0.0386,0.1679,-0.2028,
1.308783,-0.6592,-0.7865,-0.0696,-0.7619,0.1755,-1.9336,-0.1913,-0.0648,-0.1796,
1.333938,-0.6787,-0.7952,-0.0618,-0.7619,0.1755,-1.9336,-0.1913,-0.0648,-0.1796,
1.335613,-0.6521,-0.7701,-0.0772,-0.7619,0.1755,-1.9336,-0.1913,-0.0648,-0.1796,
1.336539,-0.6421,-0.7686,-0.0975,-0.7619,0.1755,-1.9336,-0.1913,-0.0648,-0.1796,
1.366367,-0.6421,-0.7686,-0.0975,-0.6868,0.4271,-2.1358,-0.1913,-0.0648,-0.1796,
1.368116,-0.6421,-0.7686,-0.0975,-0.6868,0.4271,-2.1358,-0.3458,-0.3684,-0.1729,
1.394567,-0.6443,-0.7884,-0.1026,-0.6868,0.4271,-2.1358,-0.3458,-0.3684,-0.1729,
1.397126,-0.6521,-0.8055,-0.1026,-0.6868,0.4271,-2.1358,-0.3458,-0.3684,-0.1729,
1.398054,-0.6347,-0.7933,-0.1116,-0.6868,0.4271,-2.1358,-0.3458,-0.3684,-0.1729,
1.425433,-0.6347,-0.7933,-0.1116,-0.6868,0.4271,-2.1358,-0.3849,-0.4344,0.0140,
1.428042,-0.6347,-0.7933,-0.1116,-0.6876,0.2431,-2.2249,-0.3849,-0.4344,0.0140,
1.454750,-0.6018,-0.7664,-0.1263,-0.6876,0.2431,-2.2249,-0.3849,-0.4344,0.0140,
1.457119,-0.6049,-0.7816,-0.1441,-0.6876,0.2431,-2.2249,-0.3849,-0.4344,0.0140,
1.458916,-0.5991,-0.8138,-0.1412,-0.6876,0.2431,-2.2249,-0.3849,-0.4344,0.0140,
1.488241,-0.5991,-0.8138,-0.1412,-0.6876,0.2431,-2.2249,-0.4057,-0.1381,0.1588,
1.491213,-0.5991,-0.8138,-0.1412,-0.3197,0.0416,-2.4240,-0.4057,-0.1381,0.1588,
1.513299,-0.5807,-0.8324,-0.1207,-0.3197,0.0416,-2.4240,-0.4057,-0.1381,0.1588,
1.515586,-0.5483,-0.8334,-0.0945,-0.3197,0.0416,-2.4240,-0.4057,-0.1381,0.1588,
1.517537,-0.5275,-0.8326,-0.0779,-0.3197,0.0416,-2.4240,-0.4057,-0.1381,0.1588,
1.545488,-0.5275,-0.8326,-0.0779,0.4837,-0.1946,-1.6407,-0.4057,-0.1381,0.1588,
1.547725,-0.5275,-0.8326,-0.0779,0.4837,-0.1946,-1.6407,-0.0496,0.2082,0.2217,
1.573681,-0.5167,-0.8297,-0.0579,0.4837,-0.1946,-1.6407,-0.0496,0.2082,0.2217,
1.576097,-0.5199,-0.8375,-0.0288,0.4837,-0.1946,-1.6407,-0.0496,0.2082,0.2217,
1.578352,-0.5480,-0.8373,0.0249,0.4837,-0.1946,-1.6407,-0.0496,0.2082,0.2217,
1.606882,-0.5480,-0.8373,0.0249,0.3882,-0.3130,-0.6042,-0.0496,0.2082,0.2217,
1.608840,-0.5480,-0.8373,0.0249,0.3882,-0.3130,-0.6042,0.3188,0.3243,0.1698,
1.633494,-0.5568,-0.8084,0.0205,0.3882,-0.3130,-0.6042,0.3188,0.3243,0.1698,
1.636369,-0.5497,-0.7816,-0.0442,0.3882,-0.3130,-0.6042,0.3188,0.3243,0.1698,
1.638009,-0.5644,-0.7777,-0.1175,0.3882,-0.3130,-0.6042,0.3188,0.3243,0.1698,
1.665689,-0.5644,-0.7777,-0.1175,0.3882,-0.3130,-0.6042,-0.3165,-0.2463,0.1264,
1.668315,-0.5644,-0.7777,-0.1175,0.2988,0.2240,-1.9517,-0.3165,-0.2463,0.1264,
1.693366,-0.5759,-0.7791,-0.1266,0.2988,0.2240,-1.9517,-0.3165,-0.2463,0.1264,
1.695532,-0.5710,-0.7970,-0.0472,0.2988,0.2240,-1.9517,-0.3165,-0.2463,0.1264,
1.696801,-0.5353,-0.8402,-0.0134,0.2988,0.2240,-1.9517,-0.3165,-0.2463,0.1264,
1.726123,-0.5353,-0.8402,-0.0134,0.2988,0.2240,-1.9517,-0.0068,-0.1693,0.0678,
1.728299,-0.5353,-0.8402,-0.0134,0.6230,-0.4164,-0.9129,-0.0068,-0.1693,0.0678,
1.753431,-0.5128,-0.8673,-0.0364,0.6230,-0.4164,-0.9129,-0.0068,-0.1693,0.0678,
1.756332,-0.4867,-0.8700,-0.0682,0.6230,-0.4164,-0.9129,-0.0068,-0.1693,0.0678,
1.758099,-0.4867,-0.8729,-0.1026,0.6230,-0.4164,-0.9129,-0.0068,-0.1693,0.0678,
1.786445,-0.4867,-0.8729,-0.1026,0.6230,-0.4164,-0.9129,0.2382,-0.0410,-0.1949,
1.788260,-0.4867,-0.8729,-0.1026,1.0770,-0.7266,-1.8486,0.2382,-0.0410,-0.1949,
1.814112,-0.5180,-0.8798,-0.1586,1.0770,-0.7266,-1.8486,0.2382,-0.0410,-0.1949,
1.816856,-0.5566,-0.8353,-0.2394,1.0770,-0.7266,-1.8486,0.2382,-0.0410,-0.1949,
1.818812,-0.5864,-0.7664,-0.2841,1.0770,-0.7266,-1.8486,0.2382,-0.0410,-0.1949,
1.845844,-0.5864,-0.7664,-0.2841,1.0770,-0.7266,-1.8486,-0.1082,-0.5169,-0.4478,
1.848315,-0.5864,-0.7664,-0.2841,-0.0830,0.4299,-3.8037,-0.1082,-0.5169,-0.4478,
1.874363,-0.6342,-0.7239,-0.2507,-0.0830,0.4299,-3.8037,-0.1082,-0.5169,-0.4478,
1.876787,-0.6853,-0.7254,-0.1867,-0.0830,0.4299,-3.8037,-0.1082,-0.5169,-0.4478,
1.878771,-0.7356,-0.7444,-0.1673,-0.0830,0.4299,-3.8037,-0.1082,-0.5169,-0.4478,
1.908936,-0.7356,-0.7444,-0.1673,-0.0830,0.4299,-3.8037,-0.2175,0.3927,0.0195,
1.910612,-0.7356,-0.7444,-0.1673,-1.7082,0.7663,-2.5977,-0.2175,0.3927,0.0195,
1.933449,-0.7496,-0.7591,-0.1285,-1.7082,0.7663,-2.5977,-0.2175,0.3927,0.0195,
1.935583,-0.6941,-0.7576,-0.0897,-1.7082,0.7663,-2.5977,-0.2175,0.3927,0.0195,
1.936412,-0.6215,-0.7713,-0.0755,-1.7082,0.7663,-2.5977,-0.2175,0.3927,0.0195,
1.965826,-0.6215,-0.7713,-0.0755,-1.7082,0.7663,-2.5977,0.2864,0.9449,0.2975,
1.968737,-0.6215,-0.7713,-0.0755,-0.4586,0.4382,-1.4410,0.2864,0.9449,0.2975,
1.993867,-0.5766,-0.8050,-0.0691,-0.4586,0.4382,-1.4410,0.2864,0.9449,0.2975,
1.996181,-0.5534,-0.8314,-0.0767,-0.4586,0.4382,-1.4410,0.2864,0.9449,0.2975,
1.997738,-0.5346,-0.8336,-0.0850,-0.4586,0.4382,-1.4410,0.2864,0.9449,0.2975,
2.026236,-0.5346,-0.8336,-0.0850,0.5220,-0.2528,-1.3925,0.2864,0.9449,0.2975,
2.028672,-0.5346,-0.8336,-0.0850,0.5220,-0.2528,-1.3925,0.4239,0.7940,-0.0122,
2.053859,-0.5451,-0.8231,-0.1070,0.5220,-0.2528,-1.3925,0.4239,0.7940,-0.0122,
2.056523,-0.5634,-0.8053,-0.1273,0.5220,-0.2528,-1.3925,0.4239,0.7940,-0.0122,
2.058589,-0.5915,-0.7955,-0.1373,0.5220,-0.2528,-1.3925,0.4239,0.7940,-0.0122,
2.085951,-0.5915,-0.7955,-0.1373,0.5220,-0.2528,-1.3925,0.0268,0.3182,-0.2462,
2.087912,-0.5915,-0.7955,-0.1373,-0.0871,0.1623,-1.8344,0.0268,0.3182,-0.2462,
2.113867,-0.6135,-0.7843,-0.1373,-0.0871,0.1623,-1.8344,0.0268,0.3182,-0.2462,
2.116287,-0.6267,-0.7672,-0.1314,-0.0871,0.1623,-1.8344,0.0268,0.3182,-0.2462,
2.117812,-0.6340,-0.7547,-0.1302,-0.0871,0.1623,-1.8344,0.0268,0.3182,-0.2462,
2.145819,-0.6340,-0.7547,-0.1302,-0.0871,0.1623,-1.8344,-0.1858,-0.0825,-0.1429,
2.148008,-0.6340,-0.7547,-0.1302,-0.6013,0.6376,-1.6462,-0.1858,-0.0825,-0.1429,
2.174107,-0.6482,-0.7630,-0.1273,-0.6013,0.6376,-1.6462,-0.1858,-0.0825,-0.1429,
2.176136,-0.6579,-0.7647,-0.1143,-0.6013,0.6376,-1.6462,-0.1858,-0.0825,-0.1429,
2.178290,-0.6262,-0.7415,-0.0955,-0.6013,0.6376,-1.6462,-0.1858,-0.0825,-0.1429,
2.205715,-0.6262,-0.7415,-0.0955,-0.6013,0.6376,-1.6462,0.0561,0.0048,-0.1008,
2.208591,-0.6262,-0.7415,-0.0955,-0.5652,0.7967,-1.2681,0.0561,0.0048,-0.1008,
2.233412,-0.6047,-0.7178,-0.0975,-0.5652,0.7967,-1.2681,0.0561,0.0048,-0.1008,
2.235356,-0.6118,-0.7234,-0.1180,-0.5652,0.7967,-1.2681,0.0561,0.0048,-0.1008,
2.236469,-0.6010,-0.7166,-0.1327,-0.5652,0.7967,-1.2681,0.0561,0.0048,-0.1008,
2.266718,-0.6010,-0.7166,-0.1327,-0.3754,1.0772,-1.6926,0.0561,0.0048,-0.1008,
2.269188,-0.6010,-0.7166,-0.1327,-0.3754,1.0772,-1.6926,0.0891,-0.1174,-0.1344,
2.298143,-0.5983,-0.7403,-0.1561,-0.3754,1.0772,-1.6926,0.0891,-0.1174,-0.1344,
2.300845,-0.6179,-0.7938,-0.1803,-0.3754,1.0772,-1.6926,0.0891,-0.1174,-0.1344,
2.302604,-0.6110,-0.8282,-0.1986,-0.3754,1.0772,-1.6926,0.0891,-0.1174,-0.1344,
2.325317,-0.6110,-0.8282,-0.1986,-0.3754,1.0772,-1.6926,-0.2053,-0.1326,-0.1295,
2.326803,-0.6110,-0.8282,-0.1986,-0.5350,0.0232,-2.3661,-0.2053,-0.1326,-0.1295,
2.353812,-0.5768,-0.8375,-0.1974,-0.5350,0.0232,-2.3661,-0.2053,-0.1326,-0.1295,
2.355429,-0.5421,-0.8395,-0.1898,-0.5350,0.0232,-2.3661,-0.2053,-0.1326,-0.1295,
2.356431,-0.5233,-0.8417,-0.1845,-0.5350,0.0232,-2.3661,-0.2053,-0.1326,-0.1295,
2.385802,-0.5233,-0.8417,-0.1845,-0.5350,0.0232,-2.3661,-0.0856,0.0396,-0.3525,
2.394717,-0.5233,-0.8417,-0.1845,0.2265,-0.0391,-2.1244,-0.0856,0.0396,-0.3525,
2.414467,-0.5165,-0.8434,-0.1854,0.2265,-0.0391,-2.1244,-0.0856,0.0396,-0.3525,
2.416555,-0.5348,-0.8395,-0.1925,0.2265,-0.0391,-2.1244,-0.0856,0.0396,-0.3525,
2.417830,-0.5751,-0.8365,-0.2084,0.2265,-0.0391,-2.1244,-0.0856,0.0396,-0.3525,
2.445437,-0.5751,-0.8365,-0.2084,0.2265,-0.0391,-2.1244,0.2559,0.0128,-0.5779,
2.447639,-0.5751,-0.8365,-0.2084,-0.5129,0.1563,-2.3967,0.2559,0.0128,-0.5779,
2.473400,-0.6079,-0.8216,-0.2079,-0.5129,0.1563,-2.3967,0.2559,0.0128,-0.5779,
2.474800,-0.6433,-0.8202,-0.2108,-0.5129,0.1563,-2.3967,0.2559,0.0128,-0.5779,
2.476009,-0.6667,-0.8385,-0.2143,-0.5129,0.1563,-2.3967,0.2559,0.0128,-0.5779,
2.506752,-0.6667,-0.8385,-0.2143,-0.5129,0.1563,-2.3967,-0.0459,0.1258,-0.4869,
2.509394,-0.6667,-0.8385,-0.2143,-1.6824,0.2957,-2.5010,-0.0459,0.1258,-0.4869,
2.533617,-0.6841,-0.8693,-0.1932,-1.6824,0.2957,-2.5010,-0.0459,0.1258,-0.4869,
2.535831,-0.6284,-0.8314,-0.1517,-1.6824,0.2957,-2.5010,-0.0459,0.1258,-0.4869,
2.537244,-0.5917,-0.8067,-0.1434,-1.6824,0.2957,-2.5010,-0.0459,0.1258,-0.4869,
2.565724,-0.5917,-0.8067,-0.1434,-1.6824,0.2957,-2.5010,-0.0978,-0.0160,-0.3262,
2.568224,-0.5917,-0.8067,-0.1434,-1.1583,0.7284,-1.6899,-0.0978,-0.0160,-0.3262,
2.598315,-0.6079,-0.8392,-0.1502,-1.1583,0.7284,-1.6899,-0.0978,-0.0160,-0.3262,
2.600912,-0.6462,-0.9088,-0.1561,-1.1583,0.7284,-1.6899,-0.0978,-0.0160,-0.3262,
2.602166,-0.6264,-0.9303,-0.1366,-1.1583,0.7284,-1.6899,-0.0978,-0.0160,-0.3262,
2.629264,-0.6264,-0.9303,-0.1366,-1.1583,0.7284,-1.6899,0.0989,0.0836,0.2071,
2.631763,-0.6264,-0.9303,-0.1366,-1.5422,-0.4601,-1.6383,0.0989,0.0836,0.2071,
2.653630,-0.5544,-0.8974,-0.1180,-1.5422,-0.4601,-1.6383,0.0989,0.0836,0.2071,
2.656919,-0.5077,-0.8913,-0.1170,-1.5422,-0.4601,-1.6383,0.0989,0.0836,0.2071,
2.659896,-0.4766,-0.8991,-0.1202,-1.5422,-0.4601,-1.6383,0.0989,0.0836,0.2071,
2.685804,-0.4766,-0.8991,-0.1202,0.1092,-0.2555,-1.5272,0.0989,0.0836,0.2071,
2.687660,-0.4766,-0.8991,-0.1202,0.1092,-0.2555,-1.5272,0.5430,0.4190,0.4557,
2.713446,-0.4517,-0.9013,-0.1207,0.1092,-0.2555,-1.5272,0.5430,0.4190,0.4557,
2.715349,-0.4197,-0.8993,-0.1148,0.1092,-0.2555,-1.5272,0.5430,0.4190,0.4557,
2.716721,-0.4007,-0.8949,-0.1014,0.1092,-0.2555,-1.5272,0.5430,0.4190,0.4557,
2.746108,-0.4007,-0.8949,-0.1014,0.1092,-0.2555,-1.5272,0.9382,0.6792,0.4117,
2.748403,-0.4007,-0.8949,-0.1014,1.0967,-0.3665,-1.5543,0.9382,0.6792,0.4117,
2.773421,-0.3889,-0.8949,-0.0936,1.0967,-0.3665,-1.5543,0.9382,0.6792,0.4117,
2.775822,-0.3853,-0.8981,-0.0928,1.0967,-0.3665,-1.5543,0.9382,0.6792,0.4117,
2.777303,-0.3777,-0.8986,-0.0967,1.0967,-0.3665,-1.5543,0.9382,0.6792,0.4117,
2.805760,-0.3777,-0.8986,-0.0967,1.5086,-0.5404,-1.7864,0.9382,0.6792,0.4117,
2.808396,-0.3777,-0.8986,-0.0967,1.5086,-0.5404,-1.7864,1.0384,0.2357,0.1277,
2.833555,-0.3516,-0.8971,-0.0755,1.5086,-0.5404,-1.7864,1.0384,0.2357,0.1277,
2.835775,-0.3369,-0.9005,-0.0635,1.5086,-0.5404,-1.7864,1.0384,0.2357,0.1277,
2.837213,-0.3687,-0.9084,-0.0916,1.5086,-0.5404,-1.7864,1.0384,0.2357,0.1277,
2.865392,-0.3687,-0.9084,-0.0916,1.5086,-0.5404,-1.7864,0.4336,-0.1968,-0.0556,
2.867485,-0.3687,-0.9084,-0.0916,1.5792,-0.6912,-2.2382,0.4336,-0.1968,-0.0556,
2.895138,-0.3877,-0.9027,-0.1121,1.5792,-0.6912,-2.2382,0.4336,-0.1968,-0.0556,
2.897338,-0.3860,-0.9010,-0.1295,1.5792,-0.6912,-2.2382,0.4336,-0.1968,-0.0556,
2.898879,-0.3728,-0.9071,-0.1576,1.5792,-0.6912,-2.2382,0.4336,-0.1968,-0.0556,
2.927087,-0.3728,-0.9071,-0.1576,1.4950,-0.6478,-2.8592,0.4336,-0.1968,-0.0556,
2.929442,-0.3728,-0.9071,-0.1576,1.4950,-0.6478,-2.8592,-0.5743,-0.4057,-0.0672,
2.953364,-0.3657,-0.9218,-0.1363,1.4950,-0.6478,-2.8592,-0.5743,-0.4057,-0.0672,
2.955751,-0.3633,-0.9374,-0.0921,1.4950,-0.6478,-2.8592,-0.5743,-0.4057,-0.0672,
2.957435,-0.3550,-0.9369,-0.0630,1.4950,-0.6478,-2.8592,-0.5743,-0.4057,-0.0672,
2.985474,-0.3550,-0.9369,-0.0630,1.4950,-0.6478,-2.8592,-0.2328,-0.1247,-0.0629,
2.987343,-0.3550,-0.9369,-0.0630,1.6073,-0.8755,-1.7590,-0.2328,-0.1247,-0.0629,
3.013702,-0.3254,-0.9282,-0.0327,1.6073,-0.8755,-1.7590,-0.2328,-0.1247,-0.0629,
3.016355,-0.2990,-0.9264,-0.0107,1.6073,-0.8755,-1.7590,-0.2328,-0.1247,-0.0629,
3.018462,-0.3149,-0.9528,-0.0027,1.6073,-0.8755,-1.7590,-0.2328,-0.1247,-0.0629,
3.046304,-0.3149,-0.9528,-0.0027,1.9635,-1.0203,-1.2479,-0.2328,-0.1247,-0.0629,
3.049454,-0.3149,-0.9528,-0.0027,1.9635,-1.0203,-1.2479,0.6749,0.3017,-0.0257,
3.073613,-0.3491,-0.9677,-0.0071,1.9635,-1.0203,-1.2479,0.6749,0.3017,-0.0257,
3.075482,-0.3760,-0.9357,-0.0208,1.9635,-1.0203,-1.2479,0.6749,0.3017,-0.0257,
3.076777,-0.4082,-0.9027,-0.0281,1.9635,-1.0203,-1.2479,0.6749,0.3017,-0.0257,
3.106204,-0.4082,-0.9027,-0.0281,1.9635,-1.0203,-1.2479,0.7097,0.2889,-0.0257,
3.108098,-0.4082,-0.9027,-0.0281,1.0540,-0.5752,-1.7584,0.7097,0.2889,-0.0257,
3.134642,-0.4390,-0.8815,-0.0357,1.0540,-0.5752,-1.7584,0.7097,0.2889,-0.0257,
3.137329,-0.4649,-0.8715,-0.0315,1.0540,-0.5752,-1.7584,0.7097,0.2889,-0.0257,
3.139142,-0.4854,-0.8690,0.0051,1.0540,-0.5752,-1.7584,0.7097,0.2889,-0.0257,
3.165573,-0.4854,-0.8690,0.0051,0.3464,-0.2809,-1.4654,0.7097,0.2889,-0.0257,
3.168365,-0.4854,-0.8690,0.0051,0.3464,-0.2809,-1.4654,-0.0551,0.2437,0.1246,
3.195049,-0.4664,-0.8600,-0.0222,0.3464,-0.2809,-1.4654,-0.0551,0.2437,0.1246,
3.197507,-0.4292,-0.8612,-0.0237,0.3464,-0.2809,-1.4654,-0.0551,0.2437,0.1246,
3.200008,-0.4222,-0.8864,-0.0007,0.3464,-0.2809,-1.4654,-0.0551,0.2437,0.1246,
3.225709,-0.4222,-0.8864,-0.0007,0.9929,-0.4698,-1.5364,-0.0551,0.2437,0.1246,
3.228585,-0.4222,-0.8864,-0.0007,0.9929,-0.4698,-1.5364,-0.3446,-0.5523,0.1436,
3.253534,-0.4156,-0.9147,0.0046,0.9929,-0.4698,-1.5364,-0.3446,-0.5523,0.1436,
3.256994,-0.3972,-0.9225,0.0137,0.9929,-0.4698,-1.5364,-0.3446,-0.5523,0.1436,
3.259061,-0.3870,-0.9279,0.0340,0.9929,-0.4698,-1.5364,-0.3446,-0.5523,0.1436,
3.286654,-0.3870,-0.9279,0.0340,1.3499,-0.8855,-1.2022,-0.3446,-0.5523,0.1436,
3.288695,-0.3870,-0.9279,0.0340,1.3499,-0.8855,-1.2022,-0.0050,-0.1571,0.0965,
3.312966,-0.3843,-0.9286,0.0457,1.3499,-0.8855,-1.2022,-0.0050,-0.1571,0.0965,
3.315090,-0.3936,-0.9206,0.0410,1.3499,-0.8855,-1.2022,-0.0050,-0.1571,0.0965,
3.317479,-0.4075,-0.9103,0.0142,1.3499,-0.8855,-1.2022,-0.0050,-0.1571,0.0965,
3.346592,-0.4075,-0.9103,0.0142,1.1906,-0.7502,-1.4522,-0.0050,-0.1571,0.0965,
3.348327,-0.4075,-0.9103,0.0142,1.1906,-0.7502,-1.4522,0.1765,0.1068,0.1051,
3.373050,-0.4121,-0.8920,-0.0127,1.1906,-0.7502,-1.4522,0.1765,0.1068,0.1051,
3.375167,-0.4143,-0.8641,-0.0244,1.1906,-0.7502,-1.4522,0.1765,0.1068,0.1051,
3.376172,-0.4246,-0.8531,-0.0283,1.1906,-0.7502,-1.4522,0.1765,0.1068,0.1051,
3.406105,-0.4246,-0.8531,-0.0283,1.0793,-0.2279,-1.8784,0.1765,0.1068,0.1051,
3.408782,-0.4246,-0.8531,-0.0283,1.0793,-0.2279,-1.8784,-0.0996,-0.0783,0.1662,
3.433211,-0.4341,-0.8546,-0.0322,1.0793,-0.2279,-1.8784,-0.0996,-0.0783,0.1662,
3.435896,-0.4354,-0.8612,-0.0357,1.0793,-0.2279,-1.8784,-0.0996,-0.0783,0.1662,
3.437573,-0.4077,-0.8724,-0.0320,1.0793,-0.2279,-1.8784,-0.0996,-0.0783,0.1662,
3.466698,-0.4077,-0.8724,-0.0320,1.3185,-0.4551,-1.8630,-0.0996,-0.0783,0.1662,
3.469505,-0.4077,-0.8724,-0.0320,1.3185,-0.4551,-1.8630,-0.2860,-0.1864,0.2101,
3.494245,-0.3894,-0.8822,-0.0266,1.3185,-0.4551,-1.8630,-0.2860,-0.1864,0.2101,
3.497984,-0.3823,-0.8920,-0.0293,1.3185,-0.4551,-1.8630,-0.2860,-0.1864,0.2101,
3.500132,-0.3843,-0.8895,-0.0354,1.3185,-0.4551,-1.8630,-0.2860,-0.1864,0.2101,
3.526318,-0.3843,-0.8895,-0.0354,1.6357,-0.6592,-1.7797,-0.2860,-0.1864,0.2101,
3.529412,-0.3843,-0.8895,-0.0354,1.6357,-0.6592,-1.7797,-0.3593,-0.0929,0.2382,
3.553393,-0.3694,-0.8659,-0.0547,1.6357,-0.6592,-1.7797,-0.3593,-0.0929,0.2382,
3.556396,-0.3740,-0.8632,-0.0774,1.6357,-0.6592,-1.7797,-0.3593,-0.0929,0.2382,
3.558371,-0.3936,-0.8935,-0.0909,1.6357,-0.6592,-1.7797,-0.3593,-0.0929,0.2382,
3.585648,-0.3936,-0.8935,-0.0909,1.6407,-0.7280,-2.1143,-0.3593,-0.0929,0.2382,
3.588517,-0.3936,-0.8935,-0.0909,1.6407,-0.7280,-2.1143,-0.5865,-0.0380,0.1826,
3.614045,-0.4085,-0.9113,-0.0901,1.6407,-0.7280,-2.1143,-0.5865,-0.0380,0.1826,
3.617276,-0.3992,-0.9003,-0.0877,1.6407,-0.7280,-2.1143,-0.5865,-0.0380,0.1826,
3.618914,-0.3953,-0.9037,-0.0870,1.6407,-0.7280,-2.1143,-0.5865,-0.0380,0.1826,
3.645629,-0.3953,-0.9037,-0.0870,1.6407,-0.7280,-2.1143,-0.5676,0.1355,0.0727,
3.648768,-0.3953,-0.9037,-0.0870,1.6851,-0.8308,-1.7785,-0.5676,0.1355,0.0727,
3.673306,-0.4537,-0.9668,-0.0892,1.6851,-0.8308,-1.7785,-0.5676,0.1355,0.0727,
3.676549,-0.4920,-0.9831,-0.1053,1.6851,-0.8308,-1.7785,-0.5676,0.1355,0.0727,
3.678552,-0.4737,-0.9079,-0.1290,1.6851,-0.8308,-1.7785,-0.5676,0.1355,0.0727,
3.706364,-0.4737,-0.9079,-0.1290,0.9213,-0.8448,-1.8777,-0.5676,0.1355,0.0727,
3.709100,-0.4737,-0.9079,-0.1290,0.9213,-0.8448,-1.8777,-0.5731,-0.0483,-0.0476,
3.733424,-0.4527,-0.8111,-0.1427,0.9213,-0.8448,-1.8777,-0.5731,-0.0483,-0.0476,
3.736005,-0.4647,-0.7598,-0.1546,0.9213,-0.8448,-1.8777,-0.5731,-0.0483,-0.0476,
3.737480,-0.5238,-0.7872,-0.1666,0.9213,-0.8448,-1.8777,-0.5731,-0.0483,-0.0476,
3.765512,-0.5238,-0.7872,-0.1666,0.9213,-0.8448,-1.8777,-0.7722,-0.8046,-0.3512,
3.768320,-0.5238,-0.7872,-0.1666,0.3320,0.4178,-2.0406,-0.7722,-0.8046,-0.3512,
3.794162,-0.6047,-0.8378,-0.1473,0.3320,0.4178,-2.0406,-0.7722,-0.8046,-0.3512,
3.796641,-0.6765,-0.8798,-0.0923,0.3320,0.4178,-2.0406,-0.7722,-0.8046,-0.3512,
3.797524,-0.7188,-0.9040,-0.0442,0.3320,0.4178,-2.0406,-0.7722,-0.8046,-0.3512,
3.827079,-0.7188,-0.9040,-0.0442,-1.7111,-0.6330,-0.6870,-0.7722,-0.8046,-0.3512,
3.830647,-0.7188,-0.9040,-0.0442,-1.7111,-0.6330,-0.6870,-0.5346,-0.3238,-0.0275,
3.857148,-0.7317,-0.9001,-0.0237,-1.7111,-0.6330,-0.6870,-0.5346,-0.3238,-0.0275,
3.858683,-0.7075,-0.8446,-0.0283,-1.7111,-0.6330,-0.6870,-0.5346,-0.3238,-0.0275,
3.859959,-0.6985,-0.7955,-0.0726,-1.7111,-0.6330,-0.6870,-0.5346,-0.3238,-0.0275,
3.886472,-0.6985,-0.7955,-0.0726,-1.5257,0.4395,-0.9352,-0.5346,-0.3238,-0.0275,
3.888376,-0.6985,-0.7955,-0.0726,-1.5257,0.4395,-0.9352,0.0213,-0.7111,-0.1173,
3.913841,-0.7151,-0.7684,-0.1287,-1.5257,0.4395,-0.9352,0.0213,-0.7111,-0.1173,
3.915721,-0.7530,-0.7698,-0.1686,-1.5257,0.4395,-0.9352,0.0213,-0.7111,-0.1173,
3.916882,-0.7906,-0.8126,-0.1561,-1.5257,0.4395,-0.9352,0.0213,-0.7111,-0.1173,
3.947672,-0.7906,-0.8126,-0.1561,-1.5257,0.4395,-0.9352,-0.0948,-0.3593,0.1570,
3.950860,-0.7906,-0.8126,-0.1561,-2.4592,0.2815,-2.0006,-0.0948,-0.3593,0.1570,
3.973799,-0.8202,-0.8514,-0.1258,-2.4592,0.2815,-2.0006,-0.0948,-0.3593,0.1570,
3.976645,-0.7923,-0.8226,-0.1185,-2.4592,0.2815,-2.0006,-0.0948,-0.3593,0.1570,
3.978236,-0.6531,-0.7464,-0.1090,-2.4592,0.2815,-2.0006,-0.0948,-0.3593,0.1570,
4.006757,-0.6531,-0.7464,-0.1090,-0.9608,0.8327,-1.5216,-0.0948,-0.3593,0.1570,
4.008672,-0.6531,-0.7464,-0.1090,-0.9608,0.8327,-1.5216,0.1618,0.1954,0.3842,
4.034882,-0.5922,-0.7537,-0.1053,-0.9608,0.8327,-1.5216,0.1618,0.1954,0.3842,
4.037603,-0.5483,-0.7715,-0.1004,-0.9608,0.8327,-1.5216,0.1618,0.1954,0.3842,
4.039330,-0.5060,-0.7762,-0.0948,-0.9608,0.8327,-1.5216,0.1618,0.1954,0.3842,
4.067841,-0.5060,-0.7762,-0.0948,-0.9608,0.8327,-1.5216,0.4685,0.5796,0.3409,
4.071347,-0.5060,-0.7762,-0.0948,0.6894,0.3955,-1.4131,0.4685,0.5796,0.3409,
4.094064,-0.4666,-0.7637,-0.0992,0.6894,0.3955,-1.4131,0.4685,0.5796,0.3409,
4.096938,-0.4478,-0.7544,-0.1163,0.6894,0.3955,-1.4131,0.4685,0.5796,0.3409,
4.099449,-0.4644,-0.7750,-0.1268,0.6894,0.3955,-1.4131,0.4685,0.5796,0.3409,
4.125530,-0.4644,-0.7750,-0.1268,0.6894,0.3955,-1.4131,0.5674,0.5454,-0.0739,
4.128522,-0.4644,-0.7750,-0.1268,1.1904,0.3386,-1.7574,0.5674,0.5454,-0.0739,
4.155401,-0.5197,-0.8001,-0.1217,1.1904,0.3386,-1.7574,0.5674,0.5454,-0.0739,
4.158251,-0.5876,-0.8121,-0.1112,1.1904,0.3386,-1.7574,0.5674,0.5454,-0.0739,
4.159980,-0.6528,-0.8165,-0.1026,1.1904,0.3386,-1.7574,0.5674,0.5454,-0.0739,
4.186639,-0.6528,-0.8165,-0.1026,1.1904,0.3386,-1.7574,0.4947,0.2033,-0.3103,
4.189487,-0.6528,-0.8165,-0.1026,-0.7402,-0.0157,-1.6278,0.4947,0.2033,-0.3103,
4.213286,-0.7063,-0.8053,-0.0982,-0.7402,-0.0157,-1.6278,0.4947,0.2033,-0.3103,
4.215821,-0.7329,-0.7908,-0.0796,-0.7402,-0.0157,-1.6278,0.4947,0.2033,-0.3103,
4.218117,-0.7344,-0.7664,-0.0486,-0.7402,-0.0157,-1.6278,0.4947,0.2033,-0.3103,
4.247117,-0.7344,-0.7664,-0.0486,-0.7402,-0.0157,-1.6278,0.1997,0.2235,0.0373,
4.250753,-0.7344,-0.7664,-0.0486,-1.6209,0.5218,-1.2180,0.1997,0.2235,0.0373,
4.279255,-0.7237,-0.7537,-0.0428,-1.6209,0.5218,-1.2180,0.1997,0.2235,0.0373,
4.282804,-0.6641,-0.7564,-0.0555,-1.6209,0.5218,-1.2180,0.1997,0.2235,0.0373,
4.284867,-0.5956,-0.7911,-0.0584,-1.6209,0.5218,-1.2180,0.1997,0.2235,0.0373,
4.305793,-0.5956,-0.7911,-0.0584,-0.1800,0.2219,-1.3264,0.1997,0.2235,0.0373,
4.308424,-0.5956,-0.7911,-0.0584,-0.1800,0.2219,-1.3264,0.2724,0.3127,0.1038,
4.334632,-0.5485,-0.8192,-0.0606,-0.1800,0.2219,-1.3264,0.2724,0.3127,0.1038,
4.339214,-0.5228,-0.8409,-0.0777,-0.1800,0.2219,-1.3264,0.2724,0.3127,0.1038,
4.341204,-0.5338,-0.8563,-0.1165,-0.1800,0.2219,-1.3264,0.2724,0.3127,0.1038,
4.370951,-0.5338,-0.8563,-0.1165,-0.1800,0.2219,-1.3264,0.4495,0.0195,-0.3488,
4.373788,-0.5338,-0.8563,-0.1165,0.3966,-0.4043,-1.9725,0.4495,0.0195,-0.3488,
4.394024,-0.5698,-0.8378,-0.1559,0.3966,-0.4043,-1.9725,0.4495,0.0195,-0.3488,
4.397212,-0.6091,-0.7681,-0.1617,0.3966,-0.4043,-1.9725,0.4495,0.0195,-0.3488,
4.399281,-0.6816,-0.7435,-0.1488,0.3966,-0.4043,-1.9725,0.4495,0.0195,-0.3488,
4.427222,-0.6816,-0.7435,-0.1488,0.3966,-0.4043,-1.9725,-0.2182,-0.3342,-0.4429,
4.430731,-0.6816,-0.7435,-0.1488,-1.2841,0.8422,-2.4520,-0.2182,-0.3342,-0.4429,
4.454317,-0.7398,-0.7334,-0.1217,-1.2841,0.8422,-2.4520,-0.2182,-0.3342,-0.4429,
4.456770,-0.7527,-0.6943,-0.1070,-1.2841,0.8422,-2.4520,-0.2182,-0.3342,-0.4429,
4.457907,-0.7720,-0.6978,-0.1065,-1.2841,0.8422,-2.4520,-0.2182,-0.3342,-0.4429,
4.485816,-0.7720,-0.6978,-0.1065,-1.2841,0.8422,-2.4520,-0.7551,-0.7423,0.3299,
4.488290,-0.7720,-0.6978,-0.1065,-2.2802,1.3765,-1.9103,-0.7551,-0.7423,0.3299,
4.513686,-0.7723,-0.7107,-0.0708,-2.2802,1.3765,-1.9103,-0.7551,-0.7423,0.3299,
4.516900,-0.6919,-0.7559,-0.0159,-2.2802,1.3765,-1.9103,-0.7551,-0.7423,0.3299,
4.520770,-0.5939,-0.8040,0.0437,-2.2802,1.3765,-1.9103,-0.7551,-0.7423,0.3299,
4.546462,-0.5939,-0.8040,0.0437,-2.2802,1.3765,-1.9103,-0.0795,-0.2078,0.9035,
4.549628,-0.5939,-0.8040,0.0437,-0.2295,0.1376,-0.3679,-0.0795,-0.2078,0.9035,
4.573460,-0.5243,-0.8668,0.1031,-0.2295,0.1376,-0.3679,-0.0795,-0.2078,0.9035,
4.576488,-0.4454,-0.9189,0.1266,-0.2295,0.1376,-0.3679,-0.0795,-0.2078,0.9035,
4.578670,-0.4207,-0.9445,0.0679,-0.2295,0.1376,-0.3679,-0.0795,-0.2078,0.9035,
4.605860,-0.4207,-0.9445,0.0679,-0.2295,0.1376,-0.3679,0.9663,0.4642,0.5675,
4.608701,-0.4207,-0.9445,0.0679,1.8453,-1.5386,-0.3289,0.9663,0.4642,0.5675,
4.636841,-0.3977,-0.9333,-0.0071,1.8453,-1.5386,-0.3289,0.9663,0.4642,0.5675,
4.639819,-0.3860,-0.9023,-0.0669,1.8453,-1.5386,-0.3289,0.9663,0.4642,0.5675,
4.641225,-0.4244,-0.9054,-0.1033,1.8453,-1.5386,-0.3289,0.9663,0.4642,0.5675,
4.666728,-0.4244,-0.9054,-0.1033,1.8453,-1.5386,-0.3289,0.3542,0.5967,-0.1637,
4.670138,-0.4244,-0.9054,-0.1033,1.9271,-1.2712,-2.1709,0.3542,0.5967,-0.1637,
4.693298,-0.4881,-0.9152,-0.0982,1.9271,-1.2712,-2.1709,0.3542,0.5967,-0.1637,
4.695597,-0.5050,-0.8644,-0.0860,1.9271,-1.2712,-2.1709,0.3542,0.5967,-0.1637,
4.697066,-0.5490,-0.8248,-0.0520,1.9271,-1.2712,-2.1709,0.3542,0.5967,-0.1637,
4.726013,-0.5490,-0.8248,-0.0520,1.9271,-1.2712,-2.1709,0.1991,-0.2206,-0.0525,
4.728855,-0.5490,-0.8248,-0.0520,0.6341,-0.4246,-1.6706,0.1991,-0.2206,-0.0525,
4.754321,-0.5803,-0.7987,0.0139,0.6341,-0.4246,-1.6706,0.1991,-0.2206,-0.0525,
4.757139,-0.5986,-0.7904,0.0515,0.6341,-0.4246,-1.6706,0.1991,-0.2206,-0.0525,
4.758916,-0.6027,-0.8043,0.0437,0.6341,-0.4246,-1.6706,0.1991,-0.2206,-0.0525,
4.788324,-0.6027,-0.8043,0.0437,0.6341,-0.4246,-1.6706,0.6377,0.0170,0.2822,
4.791776,-0.6027,-0.8043,0.0437,0.1369,-0.2830,-0.9494,0.6377,0.0170,0.2822,
4.814314,-0.6152,-0.8451,0.0726,0.1369,-0.2830,-0.9494,0.6377,0.0170,0.2822,
4.817874,-0.6328,-0.8754,0.1820,0.1369,-0.2830,-0.9494,0.6377,0.0170,0.2822,
4.819990,-0.6357,-0.8812,0.1981,0.1369,-0.2830,-0.9494,0.6377,0.0170,0.2822,
4.846066,-0.6357,-0.8812,0.1981,0.1369,-0.2830,-0.9494,1.2381,0.8148,0.4423,
4.849583,-0.6357,-0.8812,0.1981,0.0375,-1.2643,0.3465,1.2381,0.8148,0.4423,
4.874296,-0.6118,-0.8812,0.0655,0.0375,-1.2643,0.3465,1.2381,0.8148,0.4423,
4.876452,-0.5781,-0.8512,-0.1163,0.0375,-1.2643,0.3465,1.2381,0.8148,0.4423,
4.877733,-0.5974,-0.8187,-0.1720,0.0375,-1.2643,0.3465,1.2381,0.8148,0.4423,
4.906528,-0.5974,-0.8187,-0.1720,0.0375,-1.2643,0.3465,0.0409,0.0830,-0.0257,
4.908232,-0.5974,-0.8187,-0.1720,0.5339,-0.7821,-3.3970,0.0409,0.0830,-0.0257,
4.933741,-0.6670,-0.7803,-0.0608,0.5339,-0.7821,-3.3970,0.0409,0.0830,-0.0257,
4.935661,-0.6587,-0.7075,0.0398,0.5339,-0.7821,-3.3970,0.0409,0.0830,-0.0257,
4.936790,-0.6071,-0.6531,-0.0862,0.5339,-0.7821,-3.3970,0.0409,0.0830,-0.0257,
4.968273,-0.6071,-0.6531,-0.0862,0.5339,-0.7821,-3.3970,-0.5657,-0.4601,-0.0599,
4.971079,-0.6071,-0.6531,-0.0862,0.4079,0.8797,-2.5050,-0.5657,-0.4601,-0.0599,
4.994346,-0.5781,-0.6027,-0.0836,0.4079,0.8797,-2.5050,-0.5657,-0.4601,-0.0599,
4.996177,-0.5715,-0.6181,0.0193,0.4079,0.8797,-2.5050,-0.5657,-0.4601,-0.0599,
4.998098,-0.5101,-0.7080,0.0687,0.4079,0.8797,-2.5050,-0.5657,-0.4601,-0.0599,
5.025815,-0.5101,-0.7080,0.0687,1.2636,0.4166,-1.0140,-0.5657,-0.4601,-0.0599,
5.028371,-0.5101,-0.7080,0.0687,1.2636,0.4166,-1.0140,0.2082,-0.0551,-0.2401,
5.053332,-0.4063,-0.8612,0.0643,1.2636,0.4166,-1.0140,0.2082,-0.0551,-0.2401,
5.056310,-0.3408,-0.9404,0.0728,1.2636,0.4166,-1.0140,0.2082,-0.0551,-0.2401,
5.057664,-0.3071,-0.9795,0.0503,1.2636,0.4166,-1.0140,0.2082,-0.0551,-0.2401,
5.086883,-0.3071,-0.9795,0.0503,1.2636,0.4166,-1.0140,0.0512,0.6707,-0.8674,
5.089863,-0.3071,-0.9795,0.0503,3.1046,-2.0920,-1.0679,0.0512,0.6707,-0.8674,
5.113577,-0.2978,-0.9961,0.0276,3.1046,-2.0920,-1.0679,0.0512,0.6707,-0.8674,
5.116522,-0.3359,-0.9863,0.0403,3.1046,-2.0920,-1.0679,0.0512,0.6707,-0.8674,
5.119564,-0.4231,-0.9714,0.0286,3.1046,-2.0920,-1.0679,0.0512,0.6707,-0.8674,
5.145886,-0.4231,-0.9714,0.0286,3.1046,-2.0920,-1.0679,-0.2029,-0.3892,-1.0996,
5.149076,-0.4231,-0.9714,0.0286,1.4962,-1.6396,-1.2141,-0.2029,-0.3892,-1.0996,
5.174715,-0.4686,-0.9540,0.0388,1.4962,-1.6396,-1.2141,-0.2029,-0.3892,-1.0996,
5.178291,-0.4798,-0.9389,0.0528,1.4962,-1.6396,-1.2141,-0.2029,-0.3892,-1.0996,
5.180505,-0.4935,-0.9347,0.0638,1.4962,-1.6396,-1.2141,-0.2029,-0.3892,-1.0996,
5.206952,-0.4935,-0.9347,0.0638,1.4962,-1.6396,-1.2141,-0.1216,-0.0764,-0.9890,
5.209299,-0.4935,-0.9347,0.0638,0.2476,-0.9086,-0.8686,-0.1216,-0.0764,-0.9890,
5.234511,-0.4942,-0.9318,0.0684,0.2476,-0.9086,-0.8686,-0.1216,-0.0764,-0.9890,
5.237054,-0.4977,-0.9274,0.0496,0.2476,-0.9086,-0.8686,-0.1216,-0.0764,-0.9890,
5.238771,-0.5045,-0.9013,0.0103,0.2476,-0.9086,-0.8686,-0.1216,-0.0764,-0.9890,
5.266501,-0.5045,-0.9013,0.0103,-0.2713,-0.3301,-1.3287,-0.1216,-0.0764,-0.9890,
5.269725,-0.5045,-0.9013,0.0103,-0.2713,-0.3301,-1.3287,0.0812,0.4593,-0.6212,
5.295057,-0.5167,-0.8732,-0.0232,-0.2713,-0.3301,-1.3287,0.0812,0.4593,-0.6212,
5.297933,-0.4981,-0.8309,-0.0540,-0.2713,-0.3301,-1.3287,0.0812,0.4593,-0.6212,
5.300241,-0.4630,-0.7891,-0.0633,-0.2713,-0.3301,-1.3287,0.0812,0.4593,-0.6212,
5.326240,-0.4630,-0.7891,-0.0633,-0.2713,-0.3301,-1.3287,-0.1522,0.5204,-0.2999,
5.329332,-0.4630,-0.7891,-0.0633,-0.0620,0.8972,-1.9066,-0.1522,0.5204,-0.2999,
5.354991,-0.4456,-0.7855,-0.0728,-0.0620,0.8972,-1.9066,-0.1522,0.5204,-0.2999,
5.356592,-0.4393,-0.7933,-0.0679,-0.0620,0.8972,-1.9066,-0.1522,0.5204,-0.2999,
5.357430,-0.4085,-0.7970,-0.0628,-0.0620,0.8972,-1.9066,-0.1522,0.5204,-0.2999,
5.386259,-0.4085,-0.7970,-0.0628,-0.0620,0.8972,-1.9066,-0.3672,0.4605,-0.0861,
5.389321,-0.4085,-0.7970,-0.0628,0.4056,0.8898,-1.6365,-0.3672,0.4605,-0.0861,
5.415345,-0.4178,-0.8216,-0.0557,0.4056,0.8898,-1.6365,-0.3672,0.4605,-0.0861,
5.417869,-0.4495,-0.8351,-0.0679,0.4056,0.8898,-1.6365,-0.3672,0.4605,-0.0861,
5.420118,-0.4737,-0.8273,-0.0845,0.4056,0.8898,-1.6365,-0.3672,0.4605,-0.0861,
5.445841,-0.4737,-0.8273,-0.0845,0.4056,0.8898,-1.6365,-0.6342,0.5668,-0.0220,
5.448509,-0.4737,-0.8273,-0.0845,-0.2440,0.6348,-1.4648,-0.6342,0.5668,-0.0220,
5.475130,-0.5268,-0.8627,-0.0933,-0.2440,0.6348,-1.4648,-0.6342,0.5668,-0.0220,
5.478098,-0.5197,-0.8715,-0.0684,-0.2440,0.6348,-1.4648,-0.6342,0.5668,-0.0220,
5.480340,-0.4432,-0.8216,-0.0183,-0.2440,0.6348,-1.4648,-0.6342,0.5668,-0.0220,
5.506809,-0.4432,-0.8216,-0.0183,0.1005,0.6888,-0.3312,-0.6342,0.5668,-0.0220,
5.508377,-0.4432,-0.8216,-0.0183,0.1005,0.6888,-0.3312,-0.6427,0.3591,0.1264,
5.533448,-0.4097,-0.8243,0.0173,0.1005,0.6888,-0.3312,-0.6427,0.3591,0.1264,
5.535972,-0.4561,-0.9289,0.0132,0.1005,0.6888,-0.3312,-0.6427,0.3591,0.1264,
5.537972,-0.4879,-1.0110,-0.0303,0.1005,0.6888,-0.3312,-0.6427,0.3591,0.1264,
5.566206,-0.4879,-1.0110,-0.0303,-0.2626,-1.2065,-0.0840,-0.6427,0.3591,0.1264,
5.569414,-0.4879,-1.0110,-0.0303,-0.2626,-1.2065,-0.0840,-0.6061,-0.3196,0.1906,
5.593307,-0.4613,-1.0071,-0.0782,-0.2626,-1.2065,-0.0840,-0.6061,-0.3196,0.1906,
5.595577,-0.3994,-0.9323,-0.0860,-0.2626,-1.2065,-0.0840,-0.6061,-0.3196,0.1906,
5.596925,-0.3894,-0.8930,-0.0779,-0.2626,-1.2065,-0.0840,-0.6061,-0.3196,0.1906,
5.625821,-0.3894,-0.8930,-0.0779,-0.2626,-1.2065,-0.0840,-0.1803,0.0518,0.1655,
5.628429,-0.3894,-0.8930,-0.0779,0.8111,-0.1126,-0.4000,-0.1803,0.0518,0.1655,
5.654127,-0.4302,-0.9262,-0.0831,0.8111,-0.1126,-0.4000,-0.1803,0.0518,0.1655,
5.656814,-0.4564,-0.9299,-0.1033,0.8111,-0.1126,-0.4000,-0.1803,0.0518,0.1655,
5.659197,-0.4537,-0.8805,-0.1273,0.8111,-0.1126,-0.4000,-0.1803,0.0518,0.1655,
5.686197,-0.4537,-0.8805,-0.1273,0.8111,-0.1126,-0.4000,0.2131,0.1893,0.0959,
5.692189,-0.4537,-0.8805,-0.1273,0.2392,-0.0241,-0.8288,0.2131,0.1893,0.0959,
5.713502,-0.4854,-0.8509,-0.1564,0.2392,-0.0241,-0.8288,0.2131,0.1893,0.0959,
5.715816,-0.5397,-0.8644,-0.1854,0.2392,-0.0241,-0.8288,0.2131,0.1893,0.0959,
5.718053,-0.5825,-0.8847,-0.1959,0.2392,-0.0241,-0.8288,0.2131,0.1893,0.0959,
5.746813,-0.5825,-0.8847,-0.1959,-0.9537,-0.1006,-1.5510,0.2131,0.1893,0.0959,
5.749921,-0.5825,-0.8847,-0.1959,-0.9537,-0.1006,-1.5510,0.1032,0.1801,0.2388,
5.774066,-0.5895,-0.8556,-0.1942,-0.9537,-0.1006,-1.5510,0.1032,0.1801,0.2388,
5.777094,-0.5656,-0.8229,-0.1825,-0.9537,-0.1006,-1.5510,0.1032,0.1801,0.2388,
5.779568,-0.5509,-0.8248,-0.1859,-0.9537,-0.1006,-1.5510,0.1032,0.1801,0.2388,
5.809178,-0.5509,-0.8248,-0.1859,-0.5019,0.4042,-1.4324,0.1032,0.1801,0.2388,
5.811462,-0.5509,-0.8248,-0.1859,-0.5019,0.4042,-1.4324,-0.0630,-0.1149,0.2993,
5.834015,-0.5495,-0.8578,-0.1920,-0.5019,0.4042,-1.4324,-0.0630,-0.1149,0.2993,
5.836114,-0.5654,-0.9015,-0.1959,-0.5019,0.4042,-1.4324,-0.0630,-0.1149,0.2993,
5.837428,-0.5695,-0.9206,-0.1862,-0.5019,0.4042,-1.4324,-0.0630,-0.1149,0.2993,
5.865459,-0.5695,-0.9206,-0.1862,-0.5019,0.4042,-1.4324,-0.0599,-0.1259,0.2914,
5.868740,-0.5695,-0.9206,-0.1862,-0.5138,-0.6352,-1.4265,-0.0599,-0.1259,0.2914,
5.894197,-0.5614,-0.9245,-0.1796,-0.5138,-0.6352,-1.4265,-0.0599,-0.1259,0.2914,
5.896422,-0.5837,-0.9494,-0.1783,-0.5138,-0.6352,-1.4265,-0.0599,-0.1259,0.2914,
5.897573,-0.5895,-0.9296,-0.1686,-0.5138,-0.6352,-1.4265,-0.0599,-0.1259,0.2914,
5.925833,-0.5895,-0.9296,-0.1686,-0.5138,-0.6352,-1.4265,0.0842,-0.0318,0.1643,
5.928458,-0.5895,-0.9296,-0.1686,-0.6049,-0.7865,-1.2924,0.0842,-0.0318,0.1643,
5.953342,-0.5465,-0.8414,-0.1610,-0.6049,-0.7865,-1.2924,0.0842,-0.0318,0.1643,
5.956364,-0.5177,-0.7689,-0.1691,-0.6049,-0.7865,-1.2924,0.0842,-0.0318,0.1643,
5.958549,-0.5119,-0.7571,-0.1798,-0.6049,-0.7865,-1.2924,0.0842,-0.0318,0.1643,
5.986283,-0.5119,-0.7571,-0.1798,-0.6049,-0.7865,-1.2924,0.0409,-0.2731,0.2150,
5.989643,-0.5119,-0.7571,-0.1798,0.2523,0.8462,-1.4727,0.0409,-0.2731,0.2150,
6.016127,-0.5377,-0.7877,-0.1818,0.2523,0.8462,-1.4727,0.0409,-0.2731,0.2150,
6.018742,-0.5578,-0.8150,-0.1725,0.2523,0.8462,-1.4727,0.0409,-0.2731,0.2150,
6.021379,-0.5803,-0.8331,-0.1625,0.2523,0.8462,-1.4727,0.0409,-0.2731,0.2150,
6.046264,-0.5803,-0.8331,-0.1625,-0.3117,0.0352,-1.3777,0.0409,-0.2731,0.2150,
6.050569,-0.5803,-0.8331,-0.1625,-0.3117,0.0352,-1.3777,0.0891,-0.0129,0.1674,
6.073210,-0.5722,-0.8207,-0.1590,-0.3117,0.0352,-1.3777,0.0891,-0.0129,0.1674,
6.076186,-0.5553,-0.8021,-0.1534,-0.3117,0.0352,-1.3777,0.0891,-0.0129,0.1674,
6.078921,-0.5465,-0.7872,-0.1490,-0.3117,0.0352,-1.3777,0.0891,-0.0129,0.1674,
6.108165,-0.5465,-0.7872,-0.1490,-0.3117,0.0352,-1.3777,0.0995,0.0708,0.0055,
6.109939,-0.5465,-0.7872,-0.1490,0.0711,0.4512,-1.2677,0.0995,0.0708,0.0055,
6.133616,-0.5536,-0.7789,-0.1483,0.0711,0.4512,-1.2677,0.0995,0.0708,0.0055,
6.135140,-0.5778,-0.7813,-0.1500,0.0711,0.4512,-1.2677,0.0995,0.0708,0.0055,
6.136129,-0.5944,-0.7750,-0.1537,0.0711,0.4512,-1.2677,0.0995,0.0708,0.0055,
6.165759,-0.5944,-0.7750,-0.1537,0.0711,0.4512,-1.2677,-0.0007,-0.0819,-0.0421,
6.168261,-0.5944,-0.7750,-0.1537,-0.4077,0.5779,-1.3397,-0.0007,-0.0819,-0.0421,
6.194327,-0.5935,-0.7593,-0.1522,-0.4077,0.5779,-1.3397,-0.0007,-0.0819,-0.0421,
6.196778,-0.5996,-0.7537,-0.1407,-0.4077,0.5779,-1.3397,-0.0007,-0.0819,-0.0421,
6.198568,-0.6108,-0.7586,-0.1327,-0.4077,0.5779,-1.3397,-0.0007,-0.0819,-0.0421,
6.226692,-0.6108,-0.7586,-0.1327,-0.4077,0.5779,-1.3397,-0.0935,-0.2011,-0.0281,
6.229077,-0.6108,-0.7586,-0.1327,-0.5817,0.7474,-1.1375,-0.0935,-0.2011,-0.0281,
6.253317,-0.6308,-0.7887,-0.1246,-0.5817,0.7474,-1.1375,-0.0935,-0.2011,-0.0281,
6.255861,-0.6311,-0.7930,-0.1041,-0.5817,0.7474,-1.1375,-0.0935,-0.2011,-0.0281,
6.258111,-0.5888,-0.7640,-0.0948,-0.5817,0.7474,-1.1375,-0.0935,-0.2011,-0.0281,
6.285978,-0.5888,-0.7640,-0.0948,-0.3597,0.6903,-0.7629,-0.0935,-0.2011,-0.0281,
6.289132,-0.5888,-0.7640,-0.0948,-0.3597,0.6903,-0.7629,0.0512,0.0433,-0.0092,
6.313672,-0.5771,-0.7755,-0.1085,-0.3597,0.6903,-0.7629,0.0512,0.0433,-0.0092,
6.316489,-0.5524,-0.7654,-0.1222,-0.3597,0.6903,-0.7629,0.0512,0.0433,-0.0092,
6.318563,-0.5551,-0.7686,-0.1483,-0.3597,0.6903,-0.7629,0.0512,0.0433,-0.0092,
6.346238,-0.5551,-0.7686,-0.1483,-0.0588,0.6647,-1.3148,0.0512,0.0433,-0.0092,
6.349603,-0.5551,-0.7686,-0.1483,-0.0588,0.6647,-1.3148,0.0286,-0.1222,-0.1399,
6.373727,-0.5773,-0.7833,-0.1671,-0.0588,0.6647,-1.3148,0.0286,-0.1222,-0.1399,
6.378676,-0.5964,-0.7904,-0.1649,-0.0588,0.6647,-1.3148,0.0286,-0.1222,-0.1399,
6.380818,-0.6052,-0.7926,-0.1498,-0.0588,0.6647,-1.3148,0.0286,-0.1222,-0.1399,
6.406604,-0.6052,-0.7926,-0.1498,-0.6215,0.4770,-1.3343,0.0286,-0.1222,-0.1399,
6.410664,-0.6052,-0.7926,-0.1498,-0.6215,0.4770,-1.3343,-0.1723,-0.1400,-0.1692,
6.433520,-0.6003,-0.7818,-0.1432,-0.6215,0.4770,-1.3343,-0.1723,-0.1400,-0.1692,
6.436774,-0.5993,-0.7833,-0.1400,-0.6215,0.4770,-1.3343,-0.1723,-0.1400,-0.1692,
6.438343,-0.6069,-0.7972,-0.1212,-0.6215,0.4770,-1.3343,-0.1723,-0.1400,-0.1692,
6.465707,-0.6069,-0.7972,-0.1212,-0.7168,0.4812,-1.0319,-0.1723,-0.1400,-0.1692,
6.468670,-0.6069,-0.7972,-0.1212,-0.7168,0.4812,-1.0319,-0.0496,-0.1155,-0.1655,
6.493777,-0.6108,-0.8048,-0.0892,-0.7168,0.4812,-1.0319,-0.0496,-0.1155,-0.1655,
6.496901,-0.6096,-0.8106,-0.0779,-0.7168,0.4812,-1.0319,-0.0496,-0.1155,-0.1655,
6.498717,-0.5986,-0.7999,-0.0770,-0.7168,0.4812,-1.0319,-0.0496,-0.1155,-0.1655,
6.526817,-0.5986,-0.7999,-0.0770,-0.7168,0.4812,-1.0319,0.2657,0.0476,-0.1833,
6.529385,-0.5986,-0.7999,-0.0770,-0.7136,0.5042,-0.6330,0.2657,0.0476,-0.1833,
6.553433,-0.6015,-0.8031,-0.0875,-0.7136,0.5042,-0.6330,0.2657,0.0476,-0.1833,
6.556390,-0.6247,-0.8258,-0.1048,-0.7136,0.5042,-0.6330,0.2657,0.0476,-0.1833,
6.558360,-0.6328,-0.8358,-0.1160,-0.7136,0.5042,-0.6330,0.2657,0.0476,-0.1833,
6.585492,-0.6328,-0.8358,-0.1160,-0.7136,0.5042,-0.6330,0.2889,-0.2053,-0.2059,
6.589876,-0.6328,-0.8358,-0.1160,-1.1387,0.2078,-1.1951,0.2889,-0.2053,-0.2059,
6.613846,-0.6462,-0.8553,-0.1346,-1.1387,0.2078,-1.1951,0.2889,-0.2053,-0.2059,
6.616802,-0.6626,-0.8759,-0.1603,-1.1387,0.2078,-1.1951,0.2889,-0.2053,-0.2059,
6.618842,-0.6604,-0.8732,-0.1544,-1.1387,0.2078,-1.1951,0.2889,-0.2053,-0.2059,
6.645830,-0.6604,-0.8732,-0.1544,-1.1387,0.2078,-1.1951,-0.0960,-0.2420,-0.1582,
6.648808,-0.6604,-0.8732,-0.1544,-1.4918,-0.1113,-1.7027,-0.0960,-0.2420,-0.1582,
6.673696,-0.6220,-0.8338,-0.1099,-1.4918,-0.1113,-1.7027,-0.0960,-0.2420,-0.1582,
6.677242,-0.6088,-0.8143,-0.0823,-1.4918,-0.1113,-1.7027,-0.0960,-0.2420,-0.1582,
6.679350,-0.6032,-0.8033,-0.0779,-1.4918,-0.1113,-1.7027,-0.0960,-0.2420,-0.1582,
6.706130,-0.6032,-0.8033,-0.0779,-1.4918,-0.1113,-1.7027,0.0818,-0.4112,-0.0385,
6.710164,-0.6032,-0.8033,-0.0779,-0.9980,0.6113,-0.9936,0.0818,-0.4112,-0.0385,
6.733813,-0.6022,-0.7906,-0.0733,-0.9980,0.6113,-0.9936,0.0818,-0.4112,-0.0385,
6.735663,-0.6015,-0.7933,-0.0567,-0.9980,0.6113,-0.9936,0.0818,-0.4112,-0.0385,
6.736784,-0.6196,-0.8265,-0.0408,-0.9980,0.6113,-0.9936,0.0818,-0.4112,-0.0385,
6.767892,-0.6196,-0.8265,-0.0408,-1.1150,0.3503,-0.8399,0.0818,-0.4112,-0.0385,
6.771051,-0.6196,-0.8265,-0.0408,-1.1150,0.3503,-0.8399,0.3994,-0.2139,0.3586,
6.794566,-0.6418,-0.8629,-0.0264,-1.1150,0.3503,-0.8399,0.3994,-0.2139,0.3586,
6.797393,-0.6382,-0.8715,-0.0122,-1.1150,0.3503,-0.8399,0.3994,-0.2139,0.3586,
6.798855,-0.6035,-0.8705,0.0103,-1.1150,0.3503,-0.8399,0.3994,-0.2139,0.3586,
6.826695,-0.6035,-0.8705,0.0103,-1.1150,0.3503,-0.8399,1.3237,0.1569,0.9658,
6.830578,-0.6035,-0.8705,0.0103,-0.6447,-0.2927,-0.6330,1.3237,0.1569,0.9658,
6.853827,-0.5859,-0.9064,0.1451,-0.6447,-0.2927,-0.6330,1.3237,0.1569,0.9658,
6.858865,-0.5961,-0.9726,0.4815,-0.6447,-0.2927,-0.6330,1.3237,0.1569,0.9658,
6.861156,-0.5788,-1.0256,0.3591,-0.6447,-0.2927,-0.6330,1.3237,0.1569,0.9658,
6.887161,-0.5788,-1.0256,0.3591,-0.6447,-0.2927,-0.6330,1.7012,1.0641,1.5058,
6.890339,-0.5788,-1.0256,0.3591,0.2700,-2.3846,2.0756,1.7012,1.0641,1.5058,
6.917043,-0.5236,-1.0027,0.0645,0.2700,-2.3846,2.0756,1.7012,1.0641,1.5058,
6.919560,-0.5189,-0.9760,-0.0814,0.2700,-2.3846,2.0756,1.7012,1.0641,1.5058,
6.921500,-0.5304,-0.9668,-0.1309,0.2700,-2.3846,2.0756,1.7012,1.0641,1.5058,
6.946055,-0.5304,-0.9668,-0.1309,0.2700,-2.3846,2.0756,0.2149,-0.5028,1.1264,
6.947946,-0.5304,-0.9668,-0.1309,1.3481,-2.4013,-3.0976,0.2149,-0.5028,1.1264,
6.973332,-0.5419,-0.9606,-0.1024,1.3481,-2.4013,-3.0976,0.2149,-0.5028,1.1264,
6.975073,-0.5026,-0.8954,-0.0559,1.3481,-2.4013,-3.0976,0.2149,-0.5028,1.1264,
6.976035,-0.4600,-0.8312,0.0125,1.3481,-2.4013,-3.0976,0.2149,-0.5028,1.1264,
7.007529,-0.4600,-0.8312,0.0125,1.3481,-2.4013,-3.0976,0.0121,-0.2518,0.6762,
7.009500,-0.4600,-0.8312,0.0125,2.3549,-1.4460,-1.9240,0.0121,-0.2518,0.6762,
7.034735,-0.4493,-0.7957,0.1043,2.3549,-1.4460,-1.9240,0.0121,-0.2518,0.6762,
7.037625,-0.4769,-0.7999,0.0696,2.3549,-1.4460,-1.9240,0.0121,-0.2518,0.6762,
7.039493,-0.5158,-0.8116,0.0867,2.3549,-1.4460,-1.9240,0.0121,-0.2518,0.6762,
7.065993,-0.5158,-0.8116,0.0867,2.0384,-1.4877,-1.1626,0.0121,-0.2518,0.6762,
7.069256,-0.5158,-0.8116,0.0867,2.0384,-1.4877,-1.1626,0.0934,0.4361,0.4459,
7.096808,-0.5128,-0.7759,0.1080,2.0384,-1.4877,-1.1626,0.0934,0.4361,0.4459,
7.099675,-0.5121,-0.7364,0.1126,2.0384,-1.4877,-1.1626,0.0934,0.4361,0.4459,
7.101576,-0.5485,-0.7373,0.0980,2.0384,-1.4877,-1.1626,0.0934,0.4361,0.4459,
7.125908,-0.5485,-0.7373,0.0980,1.8798,-0.8988,-0.9109,0.0934,0.4361,0.4459,
7.129173,-0.5485,-0.7373,0.0980,1.8798,-0.8988,-0.9109,-0.2133,0.1190,0.1979,
7.154269,-0.5671,-0.7542,0.0660,1.8798,-0.8988,-0.9109,-0.2133,0.1190,0.1979,
7.157470,-0.5588,-0.7527,0.0315,1.8798,-0.8988,-0.9109,-0.2133,0.1190,0.1979,
7.159454,-0.5040,-0.7410,0.0183,1.8798,-0.8988,-0.9109,-0.2133,0.1190,0.1979,
7.185942,-0.5040,-0.7410,0.0183,2.2838,-0.8704,-1.5934,-0.2133,0.1190,0.1979,
7.189021,-0.5040,-0.7410,0.0183,2.2838,-0.8704,-1.5934,-0.7478,-0.4112,-0.3103,
7.213690,-0.4529,-0.7388,0.0276,2.2838,-0.8704,-1.5934,-0.7478,-0.4112,-0.3103,
7.216328,-0.4349,-0.7173,0.0327,2.2838,-0.8704,-1.5934,-0.7478,-0.4112,-0.3103,
7.217633,-0.4512,-0.6763,0.0274,2.2838,-0.8704,-1.5934,-0.7478,-0.4112,-0.3103,
7.245894,-0.4512,-0.6763,0.0274,2.2838,-0.8704,-1.5934,-0.7276,-0.1534,-0.6738,
7.249014,-0.4512,-0.6763,0.0274,2.5666,0.0659,-1.3218,-0.7276,-0.1534,-0.6738,
7.273702,-0.5236,-0.6665,0.0342,2.5666,0.0659,-1.3218,-0.7276,-0.1534,-0.6738,
7.276307,-0.6330,-0.6912,0.0589,2.5666,0.0659,-1.3218,-0.7276,-0.1534,-0.6738,
7.278100,-0.7085,-0.7009,0.1393,2.5666,0.0659,-1.3218,-0.7276,-0.1534,-0.6738,
7.306127,-0.7085,-0.7009,0.1393,-0.2484,0.1618,-0.0170,-0.7276,-0.1534,-0.6738,
7.308254,-0.7085,-0.7009,0.1393,-0.2484,0.1618,-0.0170,-0.4527,0.1038,-0.5614,
7.334318,-0.7708,-0.6943,0.1996,-0.2484,0.1618,-0.0170,-0.4527,0.1038,-0.5614,
7.336532,-0.7674,-0.6658,0.1468,-0.2484,0.1618,-0.0170,-0.4527,0.1038,-0.5614,
7.337957,-0.7408,-0.6367,0.0608,-0.2484,0.1618,-0.0170,-0.4527,0.1038,-0.5614,
7.365367,-0.7408,-0.6367,0.0608,-0.7308,0.9798,-0.5982,-0.4527,0.1038,-0.5614,
7.368394,-0.7408,-0.6367,0.0608,-0.7308,0.9798,-0.5982,-0.6012,-0.6806,-0.2321,
7.393250,-0.6875,-0.6316,0.0279,-0.7308,0.9798,-0.5982,-0.6012,-0.6806,-0.2321,
7.395876,-0.5754,-0.7102,0.0467,-0.7308,0.9798,-0.5982,-0.6012,-0.6806,-0.2321,
7.397265,-0.5844,-0.8324,0.0735,-0.7308,0.9798,-0.5982,-0.6012,-0.6806,-0.2321,
7.426355,-0.5844,-0.8324,0.0735,-0.7308,0.9798,-0.5982,-0.4454,-0.2994,-0.3286,
7.429023,-0.5844,-0.8324,0.0735,0.6527,-0.8103,-0.4987,-0.4454,-0.2994,-0.3286,
7.453617,-0.6870,-1.0371,0.0975,0.6527,-0.8103,-0.4987,-0.4454,-0.2994,-0.3286,
7.456378,-0.7642,-1.2045,0.1478,0.6527,-0.8103,-0.4987,-0.4454,-0.2994,-0.3286,
7.458782,-0.7031,-1.1168,0.1835,0.6527,-0.8103,-0.4987,-0.4454,-0.2994,-0.3286,
7.488029,-0.7031,-1.1168,0.1835,-0.6031,-3.5021,0.6803,-0.4454,-0.2994,-0.3286,
7.490535,-0.7031,-1.1168,0.1835,-0.6031,-3.5021,0.6803,0.4037,0.5564,-0.1888,
7.514806,-0.4906,-0.7821,0.1280,-0.6031,-3.5021,0.6803,0.4037,0.5564,-0.1888,
7.517153,-0.4549,-0.6184,-0.0083,-0.6031,-3.5021,0.6803,0.4037,0.5564,-0.1888,
7.518843,-0.5597,-0.6641,-0.1019,-0.6031,-3.5021,0.6803,0.4037,0.5564,-0.1888,
7.546752,-0.5597,-0.6641,-0.1019,0.6497,1.0701,-2.0508,0.4037,0.5564,-0.1888,
7.548704,-0.5597,-0.6641,-0.1019,0.6497,1.0701,-2.0508,-0.3244,-0.0520,-0.4435,
7.573683,-0.6628,-0.7659,-0.1344,0.6497,1.0701,-2.0508,-0.3244,-0.0520,-0.4435,
7.576114,-0.6714,-0.7869,-0.1495,0.6497,1.0701,-2.0508,-0.3244,-0.0520,-0.4435,
7.577199,-0.6384,-0.7694,-0.1329,0.6497,1.0701,-2.0508,-0.3244,-0.0520,-0.4435,
7.606180,-0.6384,-0.7694,-0.1329,0.6497,1.0701,-2.0508,-0.9738,-0.9750,-0.2700,
7.608728,-0.6384,-0.7694,-0.1329,-0.3331,0.2203,-2.2347,-0.9738,-0.9750,-0.2700,
7.633649,-0.6196,-0.7750,-0.0889,-0.3331,0.2203,-2.2347,-0.9738,-0.9750,-0.2700,
7.636605,-0.6206,-0.8033,-0.0491,-0.3331,0.2203,-2.2347,-0.9738,-0.9750,-0.2700,
7.638664,-0.6084,-0.8167,-0.0279,-0.3331,0.2203,-2.2347,-0.9738,-0.9750,-0.2700,
7.665979,-0.6084,-0.8167,-0.0279,-0.3331,0.2203,-2.2347,-0.8021,-0.4625,-0.0531,
7.668346,-0.6084,-0.8167,-0.0279,-0.1559,-0.1377,-1.0341,-0.8021,-0.4625,-0.0531,
7.695852,-0.5898,-0.8255,-0.0195,-0.1559,-0.1377,-1.0341,-0.8021,-0.4625,-0.0531,
7.698571,-0.5629,-0.8192,-0.0117,-0.1559,-0.1377,-1.0341,-0.8021,-0.4625,-0.0531,
7.700223,-0.5404,-0.8246,-0.0051,-0.1559,-0.1377,-1.0341,-0.8021,-0.4625,-0.0531,
7.725573,-0.5404,-0.8246,-0.0051,-0.1559,-0.1377,-1.0341,-0.3721,0.1368,0.0312,
7.727619,-0.5404,-0.8246,-0.0051,0.4984,-0.1871,-0.5824,-0.3721,0.1368,0.0312,
7.753457,-0.5270,-0.8336,0.0061,0.4984,-0.1871,-0.5824,-0.3721,0.1368,0.0312,
7.755393,-0.5365,-0.8456,0.0252,0.4984,-0.1871,-0.5824,-0.3721,0.1368,0.0312,
7.756600,-0.5756,-0.8238,0.0330,0.4984,-0.1871,-0.5824,-0.3721,0.1368,0.0312,
7.787164,-0.5756,-0.8238,0.0330,0.1708,-0.1816,-0.0073,-0.3721,0.1368,0.0312,
7.790110,-0.5756,-0.8238,0.0330,0.1708,-0.1816,-0.0073,0.0341,0.3493,0.0385,
7.813315,-0.6093,-0.7916,0.0318,0.1708,-0.1816,-0.0073,0.0341,0.3493,0.0385,
7.815963,-0.6237,-0.7620,0.0042,0.1708,-0.1816,-0.0073,0.0341,0.3493,0.0385,
7.817773,-0.6386,-0.7547,-0.0342,0.1708,-0.1816,-0.0073,0.0341,0.3493,0.0385,
7.846208,-0.6386,-0.7547,-0.0342,0.1708,-0.1816,-0.0073,-0.1583,-0.1742,0.0257,
7.849699,-0.6386,-0.7547,-0.0342,-0.4237,0.4814,-0.5995,-0.1583,-0.1742,0.0257,
7.873586,-0.6606,-0.7686,-0.0694,-0.4237,0.4814,-0.5995,-0.1583,-0.1742,0.0257,
7.876154,-0.6809,-0.7906,-0.0748,-0.4237,0.4814,-0.5995,-0.1583,-0.1742,0.0257,
7.878219,-0.6416,-0.7845,-0.0726,-0.4237,0.4814,-0.5995,-0.1583,-0.1742,0.0257,
7.906207,-0.6416,-0.7845,-0.0726,-0.4237,0.4814,-0.5995,-0.3971,-0.6335,0.0996,
7.908157,-0.6416,-0.7845,-0.0726,-0.4289,0.1721,-0.9666,-0.3971,-0.6335,0.0996,
7.935175,-0.5881,-0.7772,-0.0716,-0.4289,0.1721,-0.9666,-0.3971,-0.6335,0.0996,
7.938267,-0.5827,-0.8058,-0.0799,-0.4289,0.1721,-0.9666,-0.3971,-0.6335,0.0996,
7.939983,-0.5705,-0.8207,-0.0884,-0.4289,0.1721,-0.9666,-0.3971,-0.6335,0.0996,
7.967502,-0.5705,-0.8207,-0.0884,-0.4289,0.1721,-0.9666,-0.4149,-0.6726,0.1277,
7.970686,-0.5705,-0.8207,-0.0884,0.3182,-0.2221,-1.1775,-0.4149,-0.6726,0.1277,
7.993659,-0.5492,-0.8226,-0.1082,0.3182,-0.2221,-1.1775,-0.4149,-0.6726,0.1277,
7.996591,-0.5385,-0.8265,-0.1324,0.3182,-0.2221,-1.1775,-0.4149,-0.6726,0.1277,
7.998354,-0.5431,-0.8397,-0.1417,0.3182,-0.2221,-1.1775,-0.4149,-0.6726,0.1277,
8.025968,-0.5431,-0.8397,-0.1417,0.6171,-0.4318,-1.6892,-0.4149,-0.6726,0.1277,
8.029397,-0.5431,-0.8397,-0.1417,0.6171,-0.4318,-1.6892,-0.4197,-0.2768,0.0098,
8.053625,-0.5241,-0.8338,-0.1336,0.6171,-0.4318,-1.6892,-0.4197,-0.2768,0.0098,
8.056549,-0.5162,-0.8141,-0.1309,0.6171,-0.4318,-1.6892,-0.4197,-0.2768,0.0098,
8.058173,-0.5566,-0.8026,-0.1229,0.6171,-0.4318,-1.6892,-0.4197,-0.2768,0.0098,
8.086984,-0.5566,-0.8026,-0.1229,0.6171,-0.4318,-1.6892,-0.0190,0.0885,-0.2902,
8.089869,-0.5566,-0.8026,-0.1229,0.4312,-0.0232,-1.3868,-0.0190,0.0885,-0.2902,
8.116619,-0.5783,-0.7728,-0.1287,0.4312,-0.0232,-1.3868,-0.0190,0.0885,-0.2902,
8.119716,-0.6179,-0.7510,-0.1212,0.4312,-0.0232,-1.3868,-0.0190,0.0885,-0.2902,
8.122256,-0.6523,-0.7496,-0.1200,0.4312,-0.0232,-1.3868,-0.0190,0.0885,-0.2902,
8.146690,-0.6523,-0.7496,-0.1200,0.4312,-0.0232,-1.3868,0.0457,0.2388,-0.1973,
8.151591,-0.6523,-0.7496,-0.1200,-0.6357,0.5918,-1.3217,0.0457,0.2388,-0.1973,
8.173767,-0.6719,-0.7540,-0.1239,-0.6357,0.5918,-1.3217,0.0457,0.2388,-0.1973,
8.176376,-0.6819,-0.7701,-0.1058,-0.6357,0.5918,-1.3217,0.0457,0.2388,-0.1973,
8.177814,-0.6748,-0.7737,-0.0840,-0.6357,0.5918,-1.3217,0.0457,0.2388,-0.1973,
8.206443,-0.6748,-0.7737,-0.0840,-0.9122,0.3966,-0.8239,0.0457,0.2388,-0.1973,
8.208330,-0.6748,-0.7737,-0.0840,-0.9122,0.3966,-0.8239,-0.1607,0.4336,-0.0861,
8.234996,-0.6389,-0.7469,-0.0630,-0.9122,0.3966,-0.8239,-0.1607,0.4336,-0.0861,
8.237817,-0.6181,-0.7393,-0.0618,-0.9122,0.3966,-0.8239,-0.1607,0.4336,-0.0861,
8.239641,-0.6211,-0.7628,-0.0594,-0.9122,0.3966,-0.8239,-0.1607,0.4336,-0.0861,
8.266857,-0.6211,-0.7628,-0.0594,-0.9122,0.3966,-0.8239,-0.1406,0.1154,-0.1271,
8.269424,-0.6211,-0.7628,-0.0594,-0.4284,0.5328,-0.4010,-0.1406,0.1154,-0.1271,
8.294892,-0.6333,-0.7930,-0.0596,-0.4284,0.5328,-0.4010,-0.1406,0.1154,-0.1271,
8.297820,-0.6272,-0.7962,-0.0655,-0.4284,0.5328,-0.4010,-0.1406,0.1154,-0.1271,
8.301887,-0.6206,-0.7867,-0.0726,-0.4284,0.5328,-0.4010,-0.1406,0.1154,-0.1271,
8.325680,-0.6206,-0.7867,-0.0726,-0.4284,0.5328,-0.4010,-0.1968,-0.1155,-0.1668,
8.328594,-0.6206,-0.7867,-0.0726,-0.4955,0.3460,-0.4411,-0.1968,-0.1155,-0.1668,
8.354177,-0.6169,-0.7879,-0.0806,-0.4955,0.3460,-0.4411,-0.1968,-0.1155,-0.1668,
8.356986,-0.6159,-0.8055,-0.0860,-0.4955,0.3460,-0.4411,-0.1968,-0.1155,-0.1668,
8.358668,-0.5827,-0.7982,-0.0899,-0.4955,0.3460,-0.4411,-0.1968,-0.1155,-0.1668,
8.387447,-0.5827,-0.7982,-0.0899,-0.1902,0.2772,-0.5686,-0.1968,-0.1155,-0.1668,
8.390746,-0.5827,-0.7982,-0.0899,-0.1902,0.2772,-0.5686,0.0128,0.0964,-0.1497,
8.415735,-0.5563,-0.8045,-0.1007,-0.1902,0.2772,-0.5686,0.0128,0.0964,-0.1497,
8.419386,-0.5558,-0.8319,-0.1273,-0.1902,0.2772,-0.5686,0.0128,0.0964,-0.1497,
8.421582,-0.5509,-0.8436,-0.1512,-0.1902,0.2772,-0.5686,0.0128,0.0964,-0.1497,
8.446186,-0.5509,-0.8436,-0.1512,0.0368,-0.1115,-1.1657,0.0128,0.0964,-0.1497,
8.449444,-0.5509,-0.8436,-0.1512,0.0368,-0.1115,-1.1657,0.2076,0.2211,-0.2053,
8.478139,-0.5238,-0.8336,-0.1739,0.0368,-0.1115,-1.1657,0.2076,0.2211,-0.2053,
8.481322,-0.5011,-0.8255,-0.1932,0.0368,-0.1115,-1.1657,0.2076,0.2211,-0.2053,
8.483436,-0.5216,-0.8509,-0.2177,0.0368,-0.1115,-1.1657,0.2076,0.2211,-0.2053,
8.506323,-0.5216,-0.8509,-0.2177,0.1640,-0.0784,-1.8282,0.2076,0.2211,-0.2053,
8.508285,-0.5216,-0.8509,-0.2177,0.1640,-0.0784,-1.8282,0.1429,0.2675,-0.4203,
8.535222,-0.5429,-0.8671,-0.2277,0.1640,-0.0784,-1.8282,0.1429,0.2675,-0.4203,
8.537974,-0.5348,-0.8441,-0.2174,0.1640,-0.0784,-1.8282,0.1429,0.2675,-0.4203,
8.539404,-0.5939,-0.8776,-0.2038,0.1640,-0.0784,-1.8282,0.1429,0.2675,-0.4203,
8.567122,-0.5939,-0.8776,-0.2038,0.1640,-0.0784,-1.8282,0.1887,0.2638,-0.3189,
8.572258,-0.5939,-0.8776,-0.2038,-0.7610,-0.2063,-1.6627,0.1887,0.2638,-0.3189,
8.593944,-0.6685,-0.9506,-0.1815,-0.7610,-0.2063,-1.6627,0.1887,0.2638,-0.3189,
8.597808,-0.6386,-0.9272,-0.1329,-0.7610,-0.2063,-1.6627,0.1887,0.2638,-0.3189,
8.600262,-0.5900,-0.8988,-0.1124,-0.7610,-0.2063,-1.6627,0.1887,0.2638,-0.3189,
8.627081,-0.5900,-0.8988,-0.1124,-0.8608,-0.3340,-0.7394,0.1887,0.2638,-0.3189,
8.630138,-0.5900,-0.8988,-0.1124,-0.8608,-0.3340,-0.7394,0.3933,0.5729,-0.2370,
8.654119,-0.5739,-0.8859,-0.1102,-0.8608,-0.3340,-0.7394,0.3933,0.5729,-0.2370,
8.656601,-0.5761,-0.8798,-0.1173,-0.8608,-0.3340,-0.7394,0.3933,0.5729,-0.2370,
8.657934,-0.5666,-0.8541,-0.1011,-0.8608,-0.3340,-0.7394,0.3933,0.5729,-0.2370,
8.686914,-0.5666,-0.8541,-0.1011,-0.8608,-0.3340,-0.7394,0.6829,0.3872,-0.3213,
8.689517,-0.5666,-0.8541,-0.1011,-0.7713,0.1888,-0.7692,0.6829,0.3872,-0.3213,
8.713481,-0.5717,-0.8351,-0.0911,-0.7713,0.1888,-0.7692,0.6829,0.3872,-0.3213,
8.715720,-0.5927,-0.8285,-0.0921,-0.7713,0.1888,-0.7692,0.6829,0.3872,-0.3213,
8.717502,-0.6132,-0.8368,-0.0889,-0.7713,0.1888,-0.7692,0.6829,0.3872,-0.3213,
8.746024,-0.6132,-0.8368,-0.0889,-0.7713,0.1888,-0.7692,0.5912,0.3469,-0.0507,
8.748708,-0.6132,-0.8368,-0.0889,-1.3460,0.4262,-0.8809,0.5912,0.3469,-0.0507,
8.775123,-0.6301,-0.8637,-0.0821,-1.3460,0.4262,-0.8809,0.5912,0.3469,-0.0507,
8.777962,-0.6052,-0.8619,-0.0638,-1.3460,0.4262,-0.8809,0.5912,0.3469,-0.0507,
8.779685,-0.5663,-0.8434,-0.0479,-1.3460,0.4262,-0.8809,0.5912,0.3469,-0.0507,
8.805505,-0.5663,-0.8434,-0.0479,-1.3460,0.4262,-0.8809,0.5625,0.5021,0.2395,
8.808920,-0.5663,-0.8434,-0.0479,-0.8406,0.3349,-0.6471,0.5625,0.5021,0.2395,
8.834966,-0.5309,-0.8287,-0.0354,-0.8406,0.3349,-0.6471,0.5625,0.5021,0.2395,
8.838061,-0.5097,-0.8216,-0.0340,-0.8406,0.3349,-0.6471,0.5625,0.5021,0.2395,
8.840069,-0.4913,-0.8207,-0.0235,-0.8406,0.3349,-0.6471,0.5625,0.5021,0.2395,
8.866341,-0.4913,-0.8207,-0.0235,-0.8406,0.3349,-0.6471,0.7287,0.4898,0.4575,
8.869198,-0.4913,-0.8207,-0.0235,0.0812,0.4470,-0.5902,0.7287,0.4898,0.4575,
8.894156,-0.4727,-0.8382,-0.0090,0.0812,0.4470,-0.5902,0.7287,0.4898,0.4575,
8.896627,-0.4674,-0.8898,0.0142,0.0812,0.4470,-0.5902,0.7287,0.4898,0.4575,
8.898745,-0.4420,-0.9296,0.0254,0.0812,0.4470,-0.5902,0.7287,0.4898,0.4575,
8.926133,-0.4420,-0.9296,0.0254,0.0812,0.4470,-0.5902,1.0292,0.4544,0.4325,
8.930180,-0.4420,-0.9296,0.0254,0.8276,-0.7921,-0.3565,1.0292,0.4544,0.4325,
8.954085,-0.3349,-0.9536,0.1248,0.8276,-0.7921,-0.3565,1.0292,0.4544,0.4325,
8.957129,-0.2937,-0.9501,0.0862,0.8276,-0.7921,-0.3565,1.0292,0.4544,0.4325,
8.959087,-0.3081,-0.9059,-0.0860,0.8276,-0.7921,-0.3565,1.0292,0.4544,0.4325,
8.986030,-0.3081,-0.9059,-0.0860,0.8276,-0.7921,-0.3565,0.1019,-0.7838,0.0110,
8.988843,-0.3081,-0.9059,-0.0860,2.2866,-0.6837,-1.7773,0.1019,-0.7838,0.0110,
9.013619,-0.3599,-0.8957,-0.2172,2.2866,-0.6837,-1.7773,0.1019,-0.7838,0.0110,
9.016584,-0.4217,-0.9252,-0.2101,2.2866,-0.6837,-1.7773,0.1019,-0.7838,0.0110,
9.018864,-0.4180,-0.9047,-0.1178,2.2866,-0.6837,-1.7773,0.1019,-0.7838,0.0110,
9.047562,-0.4180,-0.9047,-0.1178,1.1332,-0.6403,-2.2300,0.1019,-0.7838,0.0110,
9.051363,-0.4180,-0.9047,-0.1178,1.1332,-0.6403,-2.2300,-0.5456,-0.5230,0.0024,
9.073837,-0.4085,-0.8783,-0.0413,1.1332,-0.6403,-2.2300,-0.5456,-0.5230,0.0024,
9.077538,-0.3906,-0.8637,0.0022,1.1332,-0.6403,-2.2300,-0.5456,-0.5230,0.0024,
9.079503,-0.3777,-0.8808,0.0261,1.1332,-0.6403,-2.2300,-0.5456,-0.5230,0.0024,
9.105572,-0.3777,-0.8808,0.0261,1.1332,-0.6403,-2.2300,0.0977,0.0213,0.0214,
9.107914,-0.3777,-0.8808,0.0261,1.5232,-0.3840,-0.6680,0.0977,0.0213,0.0214,
9.134620,-0.3552,-0.9154,0.0730,1.5232,-0.3840,-0.6680,0.0977,0.0213,0.0214,
9.138172,-0.3420,-0.9487,0.0967,1.5232,-0.3840,-0.6680,0.0977,0.0213,0.0214,
9.140684,-0.3425,-0.9558,0.0787,1.5232,-0.3840,-0.6680,0.0977,0.0213,0.0214,
9.167247,-0.3425,-0.9558,0.0787,1.5232,-0.3840,-0.6680,0.3072,0.6975,-0.0421,
9.170752,-0.3425,-0.9558,0.0787,1.8741,-1.1337,-0.2447,0.3072,0.6975,-0.0421,
9.193523,-0.3342,-0.9308,0.0286,1.8741,-1.1337,-0.2447,0.3072,0.6975,-0.0421,
9.195757,-0.3545,-0.9059,-0.0401,1.8741,-1.1337,-0.2447,0.3072,0.6975,-0.0421,
9.197495,-0.4024,-0.8854,-0.0440,1.8741,-1.1337,-0.2447,0.3072,0.6975,-0.0421,
9.226054,-0.4024,-0.8854,-0.0440,1.8741,-1.1337,-0.2447,-0.0227,-0.0184,-0.0183,
9.228356,-0.4024,-0.8854,-0.0440,1.2759,-0.4355,-1.4358,-0.0227,-0.0184,-0.0183,
9.255116,-0.4280,-0.8724,-0.0051,1.2759,-0.4355,-1.4358,-0.0227,-0.0184,-0.0183,
9.257608,-0.4341,-0.8756,0.0166,1.2759,-0.4355,-1.4358,-0.0227,-0.0184,-0.0183,
9.259026,-0.4234,-0.8842,0.0222,1.2759,-0.4355,-1.4358,-0.0227,-0.0184,-0.0183,
9.288228,-0.4234,-0.8842,0.0222,1.0692,-0.4190,-0.7537,-0.0227,-0.0184,-0.0183,
9.291021,-0.4234,-0.8842,0.0222,1.0692,-0.4190,-0.7537,-0.0563,0.0341,0.0287,
9.313374,-0.4009,-0.8922,0.0308,1.0692,-0.4190,-0.7537,-0.0563,0.0341,0.0287,
9.316472,-0.3860,-0.9074,0.0298,1.0692,-0.4190,-0.7537,-0.0563,0.0341,0.0287,
9.319263,-0.3865,-0.9245,0.0261,1.0692,-0.4190,-0.7537,-0.0563,0.0341,0.0287,
9.346532,-0.3865,-0.9245,0.0261,1.4311,-0.8079,-0.6591,-0.0563,0.0341,0.0287,
9.349481,-0.3865,-0.9245,0.0261,1.4311,-0.8079,-0.6591,-0.0728,0.1160,-0.0104,
9.374205,-0.4080,-0.9267,0.0279,1.4311,-0.8079,-0.6591,-0.0728,0.1160,-0.0104,
9.377376,-0.4266,-0.9186,0.0310,1.4311,-0.8079,-0.6591,-0.0728,0.1160,-0.0104,
9.379007,-0.4231,-0.9064,0.0296,1.4311,-0.8079,-0.6591,-0.0728,0.1160,-0.0104,
9.406691,-0.4231,-0.9064,0.0296,1.4311,-0.8079,-0.6591,-0.0960,-0.0428,0.0214,
9.409829,-0.4231,-0.9064,0.0296,1.0707,-0.6231,-0.5623,-0.0960,-0.0428,0.0214,
9.433914,-0.4070,-0.8991,0.0322,1.0707,-0.6231,-0.5623,-0.0960,-0.0428,0.0214,
9.439355,-0.4002,-0.8986,0.0332,1.0707,-0.6231,-0.5623,-0.0960,-0.0428,0.0214,
9.441862,-0.4014,-0.8888,0.0249,1.0707,-0.6231,-0.5623,-0.0960,-0.0428,0.0214,
9.466336,-0.4014,-0.8888,0.0249,1.2960,-0.4545,-0.5683,-0.0960,-0.0428,0.0214,
9.471664,-0.4014,-0.8888,0.0249,1.2960,-0.4545,-0.5683,-0.0856,-0.0160,0.0849,
9.493644,-0.4014,-0.8715,0.0176,1.2960,-0.4545,-0.5683,-0.0856,-0.0160,0.0849,
9.496319,-0.3943,-0.8509,0.0127,1.2960,-0.4545,-0.5683,-0.0856,-0.0160,0.0849,
9.497894,-0.3972,-0.8424,0.0090,1.2960,-0.4545,-0.5683,-0.0856,-0.0160,0.0849,
9.527905,-0.3972,-0.8424,0.0090,1.3853,-0.0261,-0.6767,-0.0856,-0.0160,0.0849,
9.530679,-0.3972,-0.8424,0.0090,1.3853,-0.0261,-0.6767,-0.0758,0.0787,0.1503,
9.554124,-0.4085,-0.8500,-0.0015,1.3853,-0.0261,-0.6767,-0.0758,0.0787,0.1503,
9.557083,-0.4173,-0.8458,-0.0264,1.3853,-0.0261,-0.6767,-0.0758,0.0787,0.1503,
9.558997,-0.4324,-0.8387,-0.0579,1.3853,-0.0261,-0.6767,-0.0758,0.0787,0.1503,
9.590288,-0.4324,-0.8387,-0.0579,1.3853,-0.0261,-0.6767,-0.3666,0.0415,0.2144,
9.593207,-0.4324,-0.8387,-0.0579,1.1288,-0.0373,-1.2162,-0.3666,0.0415,0.2144,
9.613344,-0.4571,-0.8483,-0.0853,1.1288,-0.0373,-1.2162,-0.3666,0.0415,0.2144,
9.616056,-0.4740,-0.8505,-0.0955,1.1288,-0.0373,-1.2162,-0.3666,0.0415,0.2144,
9.617935,-0.4632,-0.8280,-0.0938,1.1288,-0.0373,-1.2162,-0.3666,0.0415,0.2144,
9.647355,-0.4632,-0.8280,-0.0938,1.1288,-0.0373,-1.2162,-0.8058,-0.1571,0.2590,
9.651003,-0.4632,-0.8280,-0.0938,0.9360,0.0124,-1.3039,-0.8058,-0.1571,0.2590,
9.674903,-0.4385,-0.8009,-0.0743,0.9360,0.0124,-1.3039,-0.8058,-0.1571,0.2590,
9.677401,-0.4529,-0.8316,-0.0501,0.9360,0.0124,-1.3039,-0.8058,-0.1571,0.2590,
9.678870,-0.5412,-0.9531,-0.0432,0.9360,0.0124,-1.3039,-0.8058,-0.1571,0.2590,
9.705706,-0.5412,-0.9531,-0.0432,0.9360,0.0124,-1.3039,-0.7551,-0.0923,0.2798,
9.708138,-0.5412,-0.9531,-0.0432,0.2967,-1.2897,-0.4415,-0.7551,-0.0923,0.2798,
9.734215,-0.5663,-1.0141,-0.0506,0.2967,-1.2897,-0.4415,-0.7551,-0.0923,0.2798,
9.736309,-0.4962,-0.9518,-0.0589,0.2967,-1.2897,-0.4415,-0.7551,-0.0923,0.2798,
9.737521,-0.4588,-0.9125,-0.0515,0.2967,-1.2897,-0.4415,-0.7551,-0.0923,0.2798,
9.766966,-0.4588,-0.9125,-0.0515,1.2110,-0.9724,-0.2371,-0.7551,-0.0923,0.2798,
9.769814,-0.4588,-0.9125,-0.0515,1.2110,-0.9724,-0.2371,-0.6177,-0.1620,0.1124,
9.794543,-0.5097,-0.9504,-0.0386,1.2110,-0.9724,-0.2371,-0.6177,-0.1620,0.1124,
9.797500,-0.5549,-0.9604,-0.0452,1.2110,-0.9724,-0.2371,-0.6177,-0.1620,0.1124,
9.799325,-0.5551,-0.9049,-0.0550,1.2110,-0.9724,-0.2371,-0.6177,-0.1620,0.1124,
9.827323,-0.5551,-0.9049,-0.0550,1.2110,-0.9724,-0.2371,-0.4912,-0.4228,-0.0996,
9.830582,-0.5551,-0.9049,-0.0550,0.2724,-0.9103,-0.0834,-0.4912,-0.4228,-0.0996,
9.855425,-0.5512,-0.8419,-0.0564,0.2724,-0.9103,-0.0834,-0.4912,-0.4228,-0.0996,
9.858340,-0.5746,-0.8290,-0.0542,0.2724,-0.9103,-0.0834,-0.4912,-0.4228,-0.0996,
9.860357,-0.6086,-0.8246,-0.0625,0.2724,-0.9103,-0.0834,-0.4912,-0.4228,-0.0996,
9.887048,-0.6086,-0.8246,-0.0625,-0.3033,-0.0853,-0.1703,-0.4912,-0.4228,-0.0996,
9.890231,-0.6086,-0.8246,-0.0625,-0.3033,-0.0853,-0.1703,-0.2395,-0.8070,-0.1484,
9.914143,-0.6233,-0.7943,-0.0779,-0.3033,-0.0853,-0.1703,-0.2395,-0.8070,-0.1484,
9.916615,-0.6531,-0.7960,-0.1087,-0.3033,-0.0853,-0.1703,-0.2395,-0.8070,-0.1484,
9.919933,-0.7276,-0.8312,-0.1424,-0.3033,-0.0853,-0.1703,-0.2395,-0.8070,-0.1484,
9.946135,-0.7276,-0.8312,-0.1424,-0.3033,-0.0853,-0.1703,-0.2841,-1.2517,-0.2492,
9.948278,-0.7276,-0.8312,-0.1424,-1.5821,-0.0614,-1.1999,-0.2841,-1.2517,-0.2492,
9.973660,-0.7921,-0.8378,-0.1676,-1.5821,-0.0614,-1.1999,-0.2841,-1.2517,-0.2492,
9.977182,-0.8055,-0.7933,-0.1681,-1.5821,-0.0614,-1.1999,-0.2841,-1.2517,-0.2492,
9.978357,-0.8004,-0.7581,-0.1473,-1.5821,-0.0614,-1.1999,-0.2841,-1.2517,-0.2492,
10.007012,-0.8004,-0.7581,-0.1473,-1.5821,-0.0614,-1.1999,-0.3861,-0.6256,0.0684,
10.009825,-0.8004,-0.7581,-0.1473,-2.3417,0.6882,-1.4177,-0.3861,-0.6256,0.0684,
10.033358,-0.7950,-0.7290,-0.1182,-2.3417,0.6882,-1.4177,-0.3861,-0.6256,0.0684,
10.036184,-0.7767,-0.7068,-0.0960,-2.3417,0.6882,-1.4177,-0.3861,-0.6256,0.0684,
10.037669,-0.7283,-0.7061,-0.0858,-2.3417,0.6882,-1.4177,-0.3861,-0.6256,0.0684,
10.065672,-0.7283,-0.7061,-0.0858,-1.5080,1.1103,-0.8091,-0.3861,-0.6256,0.0684,
10.068785,-0.7283,-0.7061,-0.0858,-1.5080,1.1103,-0.8091,0.3255,0.4116,0.4465,
10.093535,-0.6587,-0.7505,-0.0721,-1.5080,1.1103,-0.8091,0.3255,0.4116,0.4465,
10.096576,-0.5908,-0.7796,-0.0892,-1.5080,1.1103,-0.8091,0.3255,0.4116,0.4465,
10.097925,-0.5368,-0.7889,-0.1202,-1.5080,1.1103,-0.8091,0.3255,0.4116,0.4465,
10.125913,-0.5368,-0.7889,-0.1202,-1.5080,1.1103,-0.8091,0.4892,0.8594,0.4117,
10.128789,-0.5368,-0.7889,-0.1202,0.5990,0.1324,-1.1265,0.4892,0.8594,0.4117,
10.152885,-0.4903,-0.7889,-0.1441,0.5990,0.1324,-1.1265,0.4892,0.8594,0.4117,
10.155369,-0.4686,-0.7979,-0.1502,0.5990,0.1324,-1.1265,0.4892,0.8594,0.4117,
10.156973,-0.4715,-0.8175,-0.1429,0.5990,0.1324,-1.1265,0.4892,0.8594,0.4117,
10.187627,-0.4715,-0.8175,-0.1429,0.5990,0.1324,-1.1265,0.3090,0.7507,-0.0519,
10.190349,-0.4715,-0.8175,-0.1429,1.3378,-0.2243,-1.2353,0.3090,0.7507,-0.0519,
10.214062,-0.5143,-0.8566,-0.1266,1.3378,-0.2243,-1.2353,0.3090,0.7507,-0.0519,
10.216788,-0.5732,-0.8759,-0.0994,1.3378,-0.2243,-1.2353,0.3090,0.7507,-0.0519,
10.219479,-0.6020,-0.8365,-0.0723,1.3378,-0.2243,-1.2353,0.3090,0.7507,-0.0519,
10.245788,-0.6020,-0.8365,-0.0723,1.3378,-0.2243,-1.2353,0.1991,0.5992,-0.3476,
10.248575,-0.6020,-0.8365,-0.0723,-0.0576,-0.3270,-0.4130,0.1991,0.5992,-0.3476,
10.275451,-0.6230,-0.7794,-0.0552,-0.0576,-0.3270,-0.4130,0.1991,0.5992,-0.3476,
10.277559,-0.6423,-0.7361,-0.0452,-0.0576,-0.3270,-0.4130,0.1991,0.5992,-0.3476,
10.278956,-0.6772,-0.7178,-0.0398,-0.0576,-0.3270,-0.4130,0.1991,0.5992,-0.3476,
10.306631,-0.6772,-0.7178,-0.0398,-0.0576,-0.3270,-0.4130,0.1007,0.3402,-0.1772,
10.308465,-0.6772,-0.7178,-0.0398,-0.9606,0.9523,0.0104,0.1007,0.3402,-0.1772,
10.334336,-0.7068,-0.7234,-0.0388,-0.9606,0.9523,0.0104,0.1007,0.3402,-0.1772,
10.335803,-0.7053,-0.7227,-0.0484,-0.9606,0.9523,0.0104,0.1007,0.3402,-0.1772,
10.336730,-0.6682,-0.7234,-0.0545,-0.9606,0.9523,0.0104,0.1007,0.3402,-0.1772,
10.365630,-0.6682,-0.7234,-0.0545,-0.8780,0.9045,-0.1997,0.1007,0.3402,-0.1772,
10.368132,-0.6682,-0.7234,-0.0545,-0.8780,0.9045,-0.1997,0.2235,-0.4155,0.1136,
10.393686,-0.6560,-0.7383,-0.0493,-0.8780,0.9045,-0.1997,0.2235,-0.4155,0.1136,
10.396488,-0.6496,-0.7447,-0.0591,-0.8780,0.9045,-0.1997,0.2235,-0.4155,0.1136,
10.398212,-0.6567,-0.7720,-0.0836,-0.8780,0.9045,-0.1997,0.2235,-0.4155,0.1136,
10.425910,-0.6567,-0.7720,-0.0836,-0.8780,0.9045,-0.1997,0.2449,-0.3617,0.1197,
10.428622,-0.6567,-0.7720,-0.0836,-0.6940,0.3835,-0.7363,0.2449,-0.3617,0.1197,
10.453164,-0.6606,-0.7923,-0.1070,-0.6940,0.3835,-0.7363,0.2449,-0.3617,0.1197,
10.456139,-0.6399,-0.7808,-0.1292,-0.6940,0.3835,-0.7363,0.2449,-0.3617,0.1197,
10.458114,-0.6308,-0.7796,-0.1441,-0.6940,0.3835,-0.7363,0.2449,-0.3617,0.1197,
10.486179,-0.6308,-0.7796,-0.1441,-0.3975,0.2777,-1.5394,0.2449,-0.3617,0.1197,
10.489070,-0.6308,-0.7796,-0.1441,-0.3975,0.2777,-1.5394,0.0659,-0.3525,0.0415,
10.513737,-0.6328,-0.7806,-0.1461,-0.3975,0.2777,-1.5394,0.0659,-0.3525,0.0415,
10.516414,-0.6352,-0.7801,-0.1302,-0.3975,0.2777,-1.5394,0.0659,-0.3525,0.0415,
10.519305,-0.6418,-0.8033,-0.1063,-0.3975,0.2777,-1.5394,0.0659,-0.3525,0.0415,
10.545588,-0.6418,-0.8033,-0.1063,-0.3975,0.2777,-1.5394,0.0592,0.0598,0.0507,
10.548650,-0.6418,-0.8033,-0.1063,-0.4872,0.0310,-1.2272,0.0592,0.0598,0.0507,
10.573913,-0.6237,-0.8065,-0.0960,-0.4872,0.0310,-1.2272,0.0592,0.0598,0.0507,
10.577011,-0.6018,-0.8053,-0.0904,-0.4872,0.0310,-1.2272,0.0592,0.0598,0.0507,
10.578870,-0.5800,-0.7992,-0.0762,-0.4872,0.0310,-1.2272,0.0592,0.0598,0.0507,
10.605682,-0.5800,-0.7992,-0.0762,-0.4872,0.0310,-1.2272,0.2217,0.0940,0.0092,
10.608942,-0.5800,-0.7992,-0.0762,0.1435,0.0527,-0.9594,0.2217,0.0940,0.0092,
10.636817,-0.5744,-0.8040,-0.0701,0.1435,0.0527,-0.9594,0.2217,0.0940,0.0092,
10.639749,-0.5905,-0.8192,-0.0757,0.1435,0.0527,-0.9594,0.2217,0.0940,0.0092,
10.640837,-0.5883,-0.8018,-0.0840,0.1435,0.0527,-0.9594,0.2217,0.0940,0.0092,
10.666215,-0.5883,-0.8018,-0.0840,0.0575,0.0264,-1.1359,0.2217,0.0940,0.0092,
10.667696,-0.5883,-0.8018,-0.0840,0.0575,0.0264,-1.1359,0.0909,-0.2230,-0.0116,
10.693347,-0.5932,-0.7830,-0.0941,0.0575,0.0264,-1.1359,0.0909,-0.2230,-0.0116,
10.694818,-0.6135,-0.7862,-0.0801,0.0575,0.0264,-1.1359,0.0909,-0.2230,-0.0116,
10.695374,-0.6272,-0.8001,-0.0625,0.0575,0.0264,-1.1359,0.0909,-0.2230,-0.0116,
10.726121,-0.6272,-0.8001,-0.0625,-0.3110,0.0300,-1.0169,0.0909,-0.2230,-0.0116,
10.729372,-0.6272,-0.8001,-0.0625,-0.3110,0.0300,-1.0169,-0.0056,-0.2493,0.1246,
10.753432,-0.6208,-0.7977,-0.0481,-0.3110,0.0300,-1.0169,-0.0056,-0.2493,0.1246,
10.756175,-0.5983,-0.7972,-0.0342,-0.3110,0.0300,-1.0169,-0.0056,-0.2493,0.1246,
10.758012,-0.5800,-0.8070,-0.0283,-0.3110,0.0300,-1.0169,-0.0056,-0.2493,0.1246,
10.785902,-0.5800,-0.8070,-0.0283,0.2280,-0.0996,-0.7681,-0.0056,-0.2493,0.1246,
10.788413,-0.5800,-0.8070,-0.0283,0.2280,-0.0996,-0.7681,0.2241,-0.0196,0.1900,
10.813434,-0.5724,-0.8268,-0.0332,0.2280,-0.0996,-0.7681,0.2241,-0.0196,0.1900,
10.815156,-0.5705,-0.8326,-0.0369,0.2280,-0.0996,-0.7681,0.2241,-0.0196,0.1900,
10.816098,-0.5705,-0.8236,-0.0381,0.2280,-0.0996,-0.7681,0.2241,-0.0196,0.1900,
10.847690,-0.5705,-0.8236,-0.0381,0.2280,-0.0996,-0.7681,0.3243,0.1868,0.1374,
10.850658,-0.5705,-0.8236,-0.0381,0.3968,-0.3275,-0.9692,0.3243,0.1868,0.1374,
10.873659,-0.5766,-0.8104,-0.0318,0.3968,-0.3275,-0.9692,0.3243,0.1868,0.1374,
10.876792,-0.5886,-0.8092,-0.0161,0.3968,-0.3275,-0.9692,0.3243,0.1868,0.1374,
10.878965,-0.5871,-0.8185,-0.0007,0.3968,-0.3275,-0.9692,0.3243,0.1868,0.1374,
10.905694,-0.5871,-0.8185,-0.0007,0.3968,-0.3275,-0.9692,0.2113,0.5833,0.3067,
10.909723,-0.5871,-0.8185,-0.0007,0.3394,-0.3604,-0.6100,0.2113,0.5833,0.3067,
10.933777,-0.5707,-0.8312,0.0186,0.3394,-0.3604,-0.6100,0.2113,0.5833,0.3067,
10.936248,-0.5397,-0.8492,0.0445,0.3394,-0.3604,-0.6100,0.2113,0.5833,0.3067,
10.937888,-0.4859,-0.8634,0.1349,0.3394,-0.3604,-0.6100,0.2113,0.5833,0.3067,
10.966039,-0.4859,-0.8634,0.1349,0.3394,-0.3604,-0.6100,0.9657,0.5271,0.1991,
10.968569,-0.4859,-0.8634,0.1349,1.4656,-0.9058,0.7744,0.9657,0.5271,0.1991,
10.993750,-0.4940,-0.8808,0.1915,1.4656,-0.9058,0.7744,0.9657,0.5271,0.1991,
10.996604,-0.5409,-0.8871,0.1312,1.4656,-0.9058,0.7744,0.9657,0.5271,0.1991,
10.998365,-0.5732,-0.8803,0.0523,1.4656,-0.9058,0.7744,0.9657,0.5271,0.1991,
11.026880,-0.5732,-0.8803,0.0523,1.4656,-0.9058,0.7744,0.6493,0.6542,0.1399,
11.029665,-0.5732,-0.8803,0.0523,0.7093,-1.1691,-0.2171,0.6493,0.6542,0.1399,
11.053745,-0.6115,-0.8663,0.0103,0.7093,-1.1691,-0.2171,0.6493,0.6542,0.1399,
11.056836,-0.6697,-0.8610,0.0252,0.7093,-1.1691,-0.2171,0.6493,0.6542,0.1399,
11.059570,-0.7053,-0.8495,0.0418,0.7093,-1.1691,-0.2171,0.6493,0.6542,0.1399,
11.086946,-0.7053,-0.8495,0.0418,0.7093,-1.1691,-0.2171,0.4300,0.4294,0.0464,
11.090221,-0.7053,-0.8495,0.0418,-0.5070,-0.9370,-0.3390,0.4300,0.4294,0.0464,
11.114185,-0.6900,-0.7828,0.0076,-0.5070,-0.9370,-0.3390,0.4300,0.4294,0.0464,
11.117271,-0.6697,-0.7246,-0.0523,-0.5070,-0.9370,-0.3390,0.4300,0.4294,0.0464,
11.119409,-0.6606,-0.6457,-0.0647,-0.5070,-0.9370,-0.3390,0.4300,0.4294,0.0464,
11.146132,-0.6606,-0.6457,-0.0647,-0.0728,1.0606,-1.4072,0.4300,0.4294,0.0464,
11.148633,-0.6606,-0.6457,-0.0647,-0.0728,1.0606,-1.4072,-0.0178,-0.1039,-0.1161,
11.173085,-0.6550,-0.6162,-0.0308,-0.0728,1.0606,-1.4072,-0.0178,-0.1039,-0.1161,
11.176165,-0.6736,-0.6054,0.0384,-0.0728,1.0606,-1.4072,-0.0178,-0.1039,-0.1161,
11.178337,-0.6289,-0.6069,0.0818,-0.0728,1.0606,-1.4072,-0.0178,-0.1039,-0.1161,
11.206964,-0.6289,-0.6069,0.0818,-0.0728,1.0606,-1.4072,0.4165,0.1435,-0.1332,
11.208801,-0.6289,-0.6069,0.0818,0.2044,1.4656,-0.0178,0.4165,0.1435,-0.1332,
11.233681,-0.5104,-0.6970,0.0667,0.2044,1.4656,-0.0178,0.4165,0.1435,-0.1332,
11.236162,-0.4322,-0.8136,0.0682,0.2044,1.4656,-0.0178,0.4165,0.1435,-0.1332,
11.237790,-0.3919,-0.8788,0.0999,0.2044,1.4656,-0.0178,0.4165,0.1435,-0.1332,
11.266291,-0.3919,-0.8788,0.0999,0.2044,1.4656,-0.0178,0.2992,0.4275,-0.5253,
11.268937,-0.3919,-0.8788,0.0999,2.4200,-1.1133,0.1162,0.2992,0.4275,-0.5253,
11.293281,-0.3481,-0.9262,0.1033,2.4200,-1.1133,0.1162,0.2992,0.4275,-0.5253,
11.296042,-0.3562,-0.9726,0.0740,2.4200,-1.1133,0.1162,0.2992,0.4275,-0.5253,
11.297436,-0.3718,-1.0019,0.0225,2.4200,-1.1133,0.1162,0.2992,0.4275,-0.5253,
11.328378,-0.3718,-1.0019,0.0225,2.2709,-2.0560,-0.7398,0.2992,0.4275,-0.5253,
11.331121,-0.3718,-1.0019,0.0225,2.2709,-2.0560,-0.7398,-0.1082,-0.5578,-0.8864,
11.353222,-0.4175,-1.0054,-0.0086,2.2709,-2.0560,-0.7398,-0.1082,-0.5578,-0.8864,
11.356074,-0.4354,-0.9638,-0.0093,2.2709,-2.0560,-0.7398,-0.1082,-0.5578,-0.8864,
11.358161,-0.4327,-0.9069,0.0044,2.2709,-2.0560,-0.7398,-0.1082,-0.5578,-0.8864,
11.385850,-0.4327,-0.9069,0.0044,2.2709,-2.0560,-0.7398,-0.2365,-0.2560,-1.0507,
11.388199,-0.4327,-0.9069,0.0044,1.1725,-0.7753,-0.9883,-0.2365,-0.2560,-1.0507,
11.413745,-0.4424,-0.8717,0.0200,1.1725,-0.7753,-0.9883,-0.2365,-0.2560,-1.0507,
11.417020,-0.4591,-0.8737,0.0454,1.1725,-0.7753,-0.9883,-0.2365,-0.2560,-1.0507,
11.418946,-0.4759,-0.8773,0.0652,1.1725,-0.7753,-0.9883,-0.2365,-0.2560,-1.0507,
11.446972,-0.4759,-0.8773,0.0652,1.1725,-0.7753,-0.9883,-0.0679,0.4691,-0.8161,
11.450036,-0.4759,-0.8773,0.0652,0.2555,-0.1654,-0.2895,-0.0679,0.4691,-0.8161,
11.474878,-0.4986,-0.8793,0.0508,0.2555,-0.1654,-0.2895,-0.0679,0.4691,-0.8161,
11.478078,-0.4942,-0.8641,0.0344,0.2555,-0.1654,-0.2895,-0.0679,0.4691,-0.8161,
11.480088,-0.4867,-0.8607,0.0156,0.2555,-0.1654,-0.2895,-0.0679,0.4691,-0.8161,
11.505576,-0.4867,-0.8607,0.0156,0.2555,-0.1654,-0.2895,-0.3037,0.5210,-0.4991,
11.508740,-0.4867,-0.8607,0.0156,-0.1732,0.2007,-0.5323,-0.3037,0.5210,-0.4991,
11.533971,-0.4586,-0.8404,0.0029,-0.1732,0.2007,-0.5323,-0.3037,0.5210,-0.4991,
11.536976,-0.4134,-0.8148,-0.0002,-0.1732,0.2007,-0.5323,-0.3037,0.5210,-0.4991,
11.538948,-0.4055,-0.8307,-0.0244,-0.1732,0.2007,-0.5323,-0.3037,0.5210,-0.4991,
11.565761,-0.4055,-0.8307,-0.0244,-0.1732,0.2007,-0.5323,-0.4271,-0.1766,-0.2731,
11.568965,-0.4055,-0.8307,-0.0244,0.4099,0.6210,-0.6665,-0.4271,-0.1766,-0.2731,
11.593890,-0.4417,-0.8803,-0.0173,0.4099,0.6210,-0.6665,-0.4271,-0.1766,-0.2731,
11.596441,-0.4705,-0.9125,0.0266,0.4099,0.6210,-0.6665,-0.4271,-0.1766,-0.2731,
11.597917,-0.4600,-0.8761,0.0325,0.4099,0.6210,-0.6665,-0.4271,-0.1766,-0.2731,
11.627555,-0.4600,-0.8761,0.0325,0.4099,0.6210,-0.6665,-0.5163,0.4037,-0.0794,
11.631293,-0.4600,-0.8761,0.0325,-0.1919,0.2164,0.0768,-0.5163,0.4037,-0.0794,
11.654276,-0.4446,-0.8072,-0.0564,-0.1919,0.2164,0.0768,-0.5163,0.4037,-0.0794,
11.656071,-0.4661,-0.8123,-0.1204,-0.1919,0.2164,0.0768,-0.5163,0.4037,-0.0794,
11.657453,-0.4652,-0.8175,-0.1112,-0.1919,0.2164,0.0768,-0.5163,0.4037,-0.0794,
11.685641,-0.4652,-0.8175,-0.1112,-0.1919,0.2164,0.0768,-0.6726,0.1545,0.1429,
11.687347,-0.4652,-0.8175,-0.1112,-0.2444,0.7936,-0.9108,-0.6726,0.1545,0.1429,
11.713861,-0.4165,-0.8026,-0.0618,-0.2444,0.7936,-0.9108,-0.6726,0.1545,0.1429,
11.716899,-0.3855,-0.8153,-0.0186,-0.2444,0.7936,-0.9108,-0.6726,0.1545,0.1429,
11.719208,-0.3992,-0.8781,0.0195,-0.2444,0.7936,-0.9108,-0.6726,0.1545,0.1429,
11.746050,-0.3992,-0.8781,0.0195,-0.2444,0.7936,-0.9108,-0.4656,0.5076,0.1210,
11.748886,-0.3992,-0.8781,0.0195,0.4714,0.1500,0.7422,-0.4656,0.5076,0.1210,
11.773645,-0.4600,-0.9716,0.0176,0.4714,0.1500,0.7422,-0.4656,0.5076,0.1210,
11.775208,-0.4503,-0.9765,-0.0261,0.4714,0.1500,0.7422,-0.4656,0.5076,0.1210,
11.776419,-0.4114,-0.8910,-0.0865,0.4714,0.1500,0.7422,-0.4656,0.5076,0.1210,
11.806236,-0.4114,-0.8910,-0.0865,0.3874,-0.0182,-0.0043,-0.4656,0.5076,0.1210,
11.808147,-0.4114,-0.8910,-0.0865,0.3874,-0.0182,-0.0043,-0.5804,-0.2860,0.0977,
11.833592,-0.4632,-0.8729,-0.1463,0.3874,-0.0182,-0.0043,-0.5804,-0.2860,0.0977,
11.836348,-0.5399,-0.9145,-0.1598,0.3874,-0.0182,-0.0043,-0.5804,-0.2860,0.0977,
11.838625,-0.5749,-0.9350,-0.1300,0.3874,-0.0182,-0.0043,-0.5804,-0.2860,0.0977,
11.865909,-0.5749,-0.9350,-0.1300,0.3874,-0.0182,-0.0043,-0.4937,-0.3886,0.1961,
11.868887,-0.5749,-0.9350,-0.1300,-1.1187,-0.5213,-0.2216,-0.4937,-0.3886,0.1961,
11.893506,-0.5568,-0.9079,-0.1019,-1.1187,-0.5213,-0.2216,-0.4937,-0.3886,0.1961,
11.895818,-0.5307,-0.8900,-0.1021,-1.1187,-0.5213,-0.2216,-0.4937,-0.3886,0.1961,
11.897883,-0.5421,-0.9074,-0.1112,-1.1187,-0.5213,-0.2216,-0.4937,-0.3886,0.1961,
11.926061,-0.5421,-0.9074,-0.1112,-1.1187,-0.5213,-0.2216,0.0115,-0.0129,0.2883,
11.928957,-0.5421,-0.9074,-0.1112,-0.6528,-0.3381,0.0407,0.0115,-0.0129,0.2883,
11.956196,-0.5463,-0.9150,-0.1297,-0.6528,-0.3381,0.0407,0.0115,-0.0129,0.2883,
11.959250,-0.5309,-0.8922,-0.1493,-0.6528,-0.3381,0.0407,0.0115,-0.0129,0.2883,
11.961380,-0.5131,-0.8568,-0.1630,-0.6528,-0.3381,0.0407,0.0115,-0.0129,0.2883,
11.985950,-0.5131,-0.8568,-0.1630,-0.6528,-0.3381,0.0407,0.4153,0.1331,0.2853,
11.989463,-0.5131,-0.8568,-0.1630,-0.2211,0.0858,-0.5434,0.4153,0.1331,0.2853,
12.013997,-0.5324,-0.8795,-0.1857,-0.2211,0.0858,-0.5434,0.4153,0.1331,0.2853,
12.015803,-0.5822,-0.9360,-0.2025,-0.2211,0.0858,-0.5434,0.4153,0.1331,0.2853,
12.016812,-0.6316,-0.9858,-0.2125,-0.2211,0.0858,-0.5434,0.4153,0.1331,0.2853,
12.048999,-0.6316,-0.9858,-0.2125,-0.2211,0.0858,-0.5434,0.3121,0.0134,0.1631,
12.052275,-0.6316,-0.9858,-0.2125,-1.2615,-1.2273,-1.2110,0.3121,0.0134,0.1631,
12.073898,-0.6763,-1.0122,-0.2165,-1.2615,-1.2273,-1.2110,0.3121,0.0134,0.1631,
12.076589,-0.6445,-0.9137,-0.1942,-1.2615,-1.2273,-1.2110,0.3121,0.0134,0.1631,
12.078939,-0.5424,-0.7579,-0.1810,-1.2615,-1.2273,-1.2110,0.3121,0.0134,0.1631,
12.106829,-0.5424,-0.7579,-0.1810,-0.2965,0.9577,-0.9524,0.3121,0.0134,0.1631,
12.108900,-0.5424,-0.7579,-0.1810,-0.2965,0.9577,-0.9524,-0.1235,-0.2401,0.1765,
12.133692,-0.5060,-0.6868,-0.1876,-0.2965,0.9577,-0.9524,-0.1235,-0.2401,0.1765,
12.136025,-0.5397,-0.7119,-0.1864,-0.2965,0.9577,-0.9524,-0.1235,-0.2401,0.1765,
12.137323,-0.5842,-0.7586,-0.1691,-0.2965,0.9577,-0.9524,-0.1235,-0.2401,0.1765,
12.167561,-0.5842,-0.7586,-0.1691,-0.5775,0.8777,-0.8922,-0.1235,-0.2401,0.1765,
12.170329,-0.5842,-0.7586,-0.1691,-0.5775,0.8777,-0.8922,-0.0160,-0.1717,0.2865,
12.193844,-0.6096,-0.7943,-0.1446,-0.5775,0.8777,-0.8922,-0.0160,-0.1717,0.2865,
12.196714,-0.6084,-0.8153,-0.1383,-0.5775,0.8777,-0.8922,-0.0160,-0.1717,0.2865,
12.198444,-0.5737,-0.8316,-0.1495,-0.5775,0.8777,-0.8922,-0.0160,-0.1717,0.2865,
12.226653,-0.5737,-0.8316,-0.1495,-0.5775,0.8777,-0.8922,-0.0086,0.1123,0.2633,
12.230742,-0.5737,-0.8316,-0.1495,-0.3224,0.0646,-0.6883,-0.0086,0.1123,0.2633,
12.253830,-0.5358,-0.8346,-0.1488,-0.3224,0.0646,-0.6883,-0.0086,0.1123,0.2633,
12.256664,-0.5009,-0.8121,-0.1434,-0.3224,0.0646,-0.6883,-0.0086,0.1123,0.2633,
12.258640,-0.5172,-0.8016,-0.1317,-0.3224,0.0646,-0.6883,-0.0086,0.1123,0.2633,
12.286627,-0.5172,-0.8016,-0.1317,0.2893,0.3168,-0.4713,-0.0086,0.1123,0.2633,
12.289469,-0.5172,-0.8016,-0.1317,0.2893,0.3168,-0.4713,-0.0325,-0.0270,-0.0354,
12.316127,-0.5666,-0.8087,-0.1148,0.2893,0.3168,-0.4713,-0.0325,-0.0270,-0.0354,
12.319156,-0.5724,-0.7755,-0.1004,0.2893,0.3168,-0.4713,-0.0325,-0.0270,-0.0354,
12.321699,-0.5646,-0.7479,-0.1043,0.2893,0.3168,-0.4713,-0.0325,-0.0270,-0.0354,
12.346318,-0.5646,-0.7479,-0.1043,-0.2114,0.8659,-0.1901,-0.0325,-0.0270,-0.0354,
12.349786,-0.5646,-0.7479,-0.1043,-0.2114,0.8659,-0.1901,0.0378,-0.0715,-0.0929,
12.373614,-0.5746,-0.7588,-0.1222,-0.2114,0.8659,-0.1901,0.0378,-0.0715,-0.0929,
12.375692,-0.5956,-0.7945,-0.1256,-0.2114,0.8659,-0.1901,0.0378,-0.0715,-0.0929,
12.377585,-0.5751,-0.7916,-0.1178,-0.2114,0.8659,-0.1901,0.0378,-0.0715,-0.0929,
12.405905,-0.5751,-0.7916,-0.1178,-0.3354,0.4534,-0.3460,0.0378,-0.0715,-0.0929,
12.407855,-0.5751,-0.7916,-0.1178,-0.3354,0.4534,-0.3460,0.0928,0.1337,-0.0318,
12.434512,-0.5636,-0.7965,-0.1263,-0.3354,0.4534,-0.3460,0.0928,0.1337,-0.0318,
12.437371,-0.5739,-0.8189,-0.1395,-0.3354,0.4534,-0.3460,0.0928,0.1337,-0.0318,
12.439068,-0.5607,-0.8036,-0.1331,-0.3354,0.4534,-0.3460,0.0928,0.1337,-0.0318,
12.466316,-0.5607,-0.8036,-0.1331,-0.3354,0.4534,-0.3460,0.1459,0.1129,-0.1258,
12.468879,-0.5607,-0.8036,-0.1331,-0.2261,0.3595,-0.5273,0.1459,0.1129,-0.1258,
12.493754,-0.5641,-0.7759,-0.1236,-0.2261,0.3595,-0.5273,0.1459,0.1129,-0.1258,
12.496637,-0.5773,-0.7662,-0.1251,-0.2261,0.3595,-0.5273,0.1459,0.1129,-0.1258,
12.498703,-0.6069,-0.7713,-0.1331,-0.2261,0.3595,-0.5273,0.1459,0.1129,-0.1258,
12.526026,-0.6069,-0.7713,-0.1331,-0.2261,0.3595,-0.5273,0.0641,-0.0862,-0.1875,
12.529393,-0.6069,-0.7713,-0.1331,-0.7644,0.7343,-0.5760,0.0641,-0.0862,-0.1875,
12.555255,-0.6252,-0.7784,-0.1329,-0.7644,0.7343,-0.5760,0.0641,-0.0862,-0.1875,
12.558426,-0.6335,-0.7774,-0.1256,-0.7644,0.7343,-0.5760,0.0641,-0.0862,-0.1875,
12.560795,-0.6389,-0.7833,-0.1253,-0.7644,0.7343,-0.5760,0.0641,-0.0862,-0.1875,
12.585577,-0.6389,-0.7833,-0.1253,-0.7644,0.7343,-0.5760,-0.0557,-0.1503,-0.0586,
12.588656,-0.6389,-0.7833,-0.1253,-1.1285,0.6507,-0.5274,-0.0557,-0.1503,-0.0586,
12.613228,-0.6042,-0.7774,-0.1270,-1.1285,0.6507,-0.5274,-0.0557,-0.1503,-0.0586,
12.616265,-0.6106,-0.8084,-0.1339,-1.1285,0.6507,-0.5274,-0.0557,-0.1503,-0.0586,
12.617886,-0.6000,-0.8233,-0.1297,-1.1285,0.6507,-0.5274,-0.0557,-0.1503,-0.0586,
12.649925,-0.6000,-0.8233,-0.1297,-0.7636,0.2696,-0.5935,-0.0557,-0.1503,-0.0586,
12.653039,-0.6000,-0.8233,-0.1297,-0.7636,0.2696,-0.5935,-0.0606,-0.0703,-0.0892,
12.673547,-0.5661,-0.8058,-0.1202,-0.7636,0.2696,-0.5935,-0.0606,-0.0703,-0.0892,
12.676303,-0.5592,-0.8060,-0.1224,-0.7636,0.2696,-0.5935,-0.0606,-0.0703,-0.0892,
12.678090,-0.5661,-0.8243,-0.1300,-0.7636,0.2696,-0.5935,-0.0606,-0.0703,-0.0892,
12.705553,-0.5661,-0.8243,-0.1300,-0.7636,0.2696,-0.5935,0.0635,-0.0838,-0.2236,
12.708733,-0.5661,-0.8243,-0.1300,-0.4907,0.2970,-0.6027,0.0635,-0.0838,-0.2236,
12.737573,-0.5751,-0.8351,-0.1346,-0.4907,0.2970,-0.6027,0.0635,-0.0838,-0.2236,
12.741186,-0.5893,-0.8412,-0.1417,-0.4907,0.2970,-0.6027,0.0635,-0.0838,-0.2236,
12.743872,-0.5959,-0.8329,-0.1490,-0.4907,0.2970,-0.6027,0.0635,-0.0838,-0.2236,
12.765627,-0.5959,-0.8329,-0.1490,-0.4907,0.2970,-0.6027,-0.0612,-0.0887,-0.3286,
12.768478,-0.5959,-0.8329,-0.1490,-0.9164,0.2953,-0.8254,-0.0612,-0.0887,-0.3286,
12.793279,-0.5974,-0.8231,-0.1493,-0.9164,0.2953,-0.8254,-0.0612,-0.0887,-0.3286,
12.796054,-0.6125,-0.8258,-0.1502,-0.9164,0.2953,-0.8254,-0.0612,-0.0887,-0.3286,
12.798264,-0.6252,-0.8346,-0.1471,-0.9164,0.2953,-0.8254,-0.0612,-0.0887,-0.3286,
12.826924,-0.6252,-0.8346,-0.1471,-1.3545,0.3639,-0.7983,-0.0612,-0.0887,-0.3286,
12.829927,-0.6252,-0.8346,-0.1471,-1.3545,0.3639,-0.7983,-0.2041,-0.3672,-0.2847,
12.855035,-0.6091,-0.8116,-0.1309,-1.3545,0.3639,-0.7983,-0.2041,-0.3672,-0.2847,
12.857810,-0.5939,-0.7877,-0.1129,-1.3545,0.3639,-0.7983,-0.2041,-0.3672,-0.2847,
12.859755,-0.5983,-0.7926,-0.1070,-1.3545,0.3639,-0.7983,-0.2041,-0.3672,-0.2847,
12.886563,-0.5983,-0.7926,-0.1070,-1.3545,0.3639,-0.7983,-0.1546,-0.4723,-0.1912,
12.889219,-0.5983,-0.7926,-0.1070,-1.1994,0.8359,-0.4142,-0.1546,-0.4723,-0.1912,
12.914517,-0.6113,-0.8099,-0.1014,-1.1994,0.8359,-0.4142,-0.1546,-0.4723,-0.1912,
12.917885,-0.6193,-0.8265,-0.0906,-1.1994,0.8359,-0.4142,-0.1546,-0.4723,-0.1912,
12.921129,-0.6176,-0.8331,-0.0774,-1.1994,0.8359,-0.4142,-0.1546,-0.4723,-0.1912,
12.946102,-0.6176,-0.8331,-0.0774,-1.1994,0.8359,-0.4142,0.1123,-0.3342,0.0550,
12.949263,-0.6176,-0.8331,-0.0774,-1.4137,0.4582,-0.2145,0.1123,-0.3342,0.0550,
12.973746,-0.6071,-0.8370,-0.0687,-1.4137,0.4582,-0.2145,0.1123,-0.3342,0.0550,
12.976694,-0.5993,-0.8522,-0.0701,-1.4137,0.4582,-0.2145,0.1123,-0.3342,0.0550,
12.978546,-0.5908,-0.8754,-0.0718,-1.4137,0.4582,-0.2145,0.1123,-0.3342,0.0550,
13.006087,-0.5908,-0.8754,-0.0718,-1.0369,-0.0064,-0.3880,0.1123,-0.3342,0.0550,
13.009515,-0.5908,-0.8754,-0.0718,-1.0369,-0.0064,-0.3880,0.5100,-0.2120,0.3830,
13.033456,-0.5812,-0.8981,-0.0684,-1.0369,-0.0064,-0.3880,0.5100,-0.2120,0.3830,
13.036095,-0.5678,-0.9115,-0.0591,-1.0369,-0.0064,-0.3880,0.5100,-0.2120,0.3830,
13.037729,-0.5553,-0.9306,-0.0430,-1.0369,-0.0064,-0.3880,0.5100,-0.2120,0.3830,
13.067997,-0.5553,-0.9306,-0.0430,-1.0369,-0.0064,-0.3880,0.9407,-0.1198,0.7593,
13.070730,-0.5553,-0.9306,-0.0430,-0.4075,-0.7044,-0.4478,0.9407,-0.1198,0.7593,
13.093053,-0.5285,-0.9553,0.0198,-0.4075,-0.7044,-0.4478,0.9407,-0.1198,0.7593,
13.096336,-0.4451,-0.9741,0.2714,-0.4075,-0.7044,-0.4478,0.9407,-0.1198,0.7593,
13.098909,-0.4979,-1.0151,0.4288,-0.4075,-0.7044,-0.4478,0.9407,-0.1198,0.7593,
13.126075,-0.4979,-1.0151,0.4288,0.6171,-1.8619,3.4462,0.9407,-0.1198,0.7593,
13.129012,-0.4979,-1.0151,0.4288,0.6171,-1.8619,3.4462,1.3396,0.6193,1.1784,
13.153040,-0.4957,-0.9856,0.1121,0.6171,-1.8619,3.4462,1.3396,0.6193,1.1784,
13.155483,-0.5079,-0.9753,-0.0938,0.6171,-1.8619,3.4462,1.3396,0.6193,1.1784,
13.156839,-0.5307,-1.0019,-0.1041,0.6171,-1.8619,3.4462,1.3396,0.6193,1.1784,
13.186949,-0.5307,-1.0019,-0.1041,0.8449,-2.1936,-2.2356,1.3396,0.6193,1.1784,
13.189916,-0.5307,-1.0019,-0.1041,0.8449,-2.1936,-2.2356,0.3897,-0.5786,1.1955,
13.213984,-0.5035,-0.9792,-0.0621,0.8449,-2.1936,-2.2356,0.3897,-0.5786,1.1955,
13.216861,-0.4693,-0.9159,0.0173,0.8449,-2.1936,-2.2356,0.3897,-0.5786,1.1955,
13.219139,-0.4686,-0.8839,0.0967,0.8449,-2.1936,-2.2356,0.3897,-0.5786,1.1955,
13.245927,-0.4686,-0.8839,0.0967,1.8841,-1.4523,-0.5489,0.3897,-0.5786,1.1955,
13.248528,-0.4686,-0.8839,0.0967,1.8841,-1.4523,-0.5489,0.4440,0.1013,0.8851,
13.274161,-0.5109,-0.8817,0.1349,1.8841,-1.4523,-0.5489,0.4440,0.1013,0.8851,
13.277254,-0.5138,-0.8776,0.1019,1.8841,-1.4523,-0.5489,0.4440,0.1013,0.8851,
13.278552,-0.4786,-0.8312,0.0748,1.8841,-1.4523,-0.5489,0.4440,0.1013,0.8851,
13.306165,-0.4786,-0.8312,0.0748,1.8841,-1.4523,-0.5489,0.2736,0.3041,0.4899,
13.308907,-0.4786,-0.8312,0.0748,2.1080,-1.2627,-0.8742,0.2736,0.3041,0.4899,
13.336779,-0.4471,-0.7887,0.0472,2.1080,-1.2627,-0.8742,0.2736,0.3041,0.4899,
13.339933,-0.4564,-0.7549,0.0337,2.1080,-1.2627,-0.8742,0.2736,0.3041,0.4899,
13.341546,-0.5053,-0.7532,0.0225,2.1080,-1.2627,-0.8742,0.2736,0.3041,0.4899,
13.365764,-0.5053,-0.7532,0.0225,2.1080,-1.2627,-0.8742,-0.3452,-0.1332,0.2144,
13.368946,-0.5053,-0.7532,0.0225,1.9937,-0.6308,-1.3161,-0.3452,-0.1332,0.2144,
13.393415,-0.5617,-0.7388,0.0357,1.9937,-0.6308,-1.3161,-0.3452,-0.1332,0.2144,
13.396326,-0.5817,-0.7217,0.0628,1.9937,-0.6308,-1.3161,-0.3452,-0.1332,0.2144,
13.398264,-0.5820,-0.6880,0.0650,1.9937,-0.6308,-1.3161,-0.3452,-0.1332,0.2144,
13.425918,-0.5820,-0.6880,0.0650,1.9937,-0.6308,-1.3161,-0.5822,-0.4399,0.0238,
13.428956,-0.5820,-0.6880,0.0650,1.2662,-0.0028,-0.8378,-0.5822,-0.4399,0.0238,
13.454101,-0.5949,-0.6780,0.0359,1.2662,-0.0028,-0.8378,-0.5822,-0.4399,0.0238,
13.457033,-0.5815,-0.6797,0.0464,1.2662,-0.0028,-0.8378,-0.5822,-0.4399,0.0238,
13.459506,-0.5495,-0.6882,0.0826,1.2662,-0.0028,-0.8378,-0.5822,-0.4399,0.0238,
13.486544,-0.5495,-0.6882,0.0826,1.5340,0.0675,-0.5668,-0.5822,-0.4399,0.0238,
13.490159,-0.5495,-0.6882,0.0826,1.5340,0.0675,-0.5668,-0.4075,0.0842,-0.1484,
13.513525,-0.5426,-0.7246,0.0877,1.5340,0.0675,-0.5668,-0.4075,0.0842,-0.1484,
13.516239,-0.5671,-0.7501,0.0950,1.5340,0.0675,-0.5668,-0.4075,0.0842,-0.1484,
13.518289,-0.6027,-0.7347,0.1016,1.5340,0.0675,-0.5668,-0.4075,0.0842,-0.1484,
13.547331,-0.6027,-0.7347,0.1016,0.9356,-0.2674,-0.1419,-0.4075,0.0842,-0.1484,
13.550525,-0.6027,-0.7347,0.1016,0.9356,-0.2674,-0.1419,-0.2456,0.2614,-0.2798,
13.573564,-0.6308,-0.7180,0.0963,0.9356,-0.2674,-0.1419,-0.2456,0.2614,-0.2798,
13.576645,-0.6279,-0.6929,0.1087,0.9356,-0.2674,-0.1419,-0.2456,0.2614,-0.2798,
13.578068,-0.6115,-0.6951,0.0904,0.9356,-0.2674,-0.1419,-0.2456,0.2614,-0.2798,
13.605413,-0.6115,-0.6951,0.0904,0.9356,-0.2674,-0.1419,-0.5352,-0.3611,-0.2981,
13.607467,-0.6115,-0.6951,0.0904,0.7210,0.2752,-0.0454,-0.5352,-0.3611,-0.2981,
13.634310,-0.5942,-0.7576,0.0501,0.7210,0.2752,-0.0454,-0.5352,-0.3611,-0.2981,
13.635962,-0.5570,-0.7945,0.0445,0.7210,0.2752,-0.0454,-0.5352,-0.3611,-0.2981,
13.636951,-0.5050,-0.7855,0.0745,0.7210,0.2752,-0.0454,-0.5352,-0.3611,-0.2981,
13.666960,-0.5050,-0.7855,0.0745,0.7210,0.2752,-0.0454,-0.4961,-0.4998,-0.4985,
13.669897,-0.5050,-0.7855,0.0745,1.5815,-0.4372,-0.1679,-0.4961,-0.4998,-0.4985,
13.696244,-0.4757,-0.7628,0.0928,1.5815,-0.4372,-0.1679,-0.4961,-0.4998,-0.4985,
13.698717,-0.4908,-0.7420,0.0882,1.5815,-0.4372,-0.1679,-0.4961,-0.4998,-0.4985,
13.700920,-0.5272,-0.7474,0.0677,1.5815,-0.4372,-0.1679,-0.4961,-0.4998,-0.4985,
13.727231,-0.5272,-0.7474,0.0677,1.5815,-0.4372,-0.1679,-0.2029,0.3842,-0.5632,
13.730205,-0.5272,-0.7474,0.0677,1.1068,0.1683,-0.1566,-0.2029,0.3842,-0.5632,
13.753095,-0.5856,-0.8006,0.0432,1.1068,0.1683,-0.1566,-0.2029,0.3842,-0.5632,
13.755322,-0.6255,-0.8488,0.0335,1.1068,0.1683,-0.1566,-0.2029,0.3842,-0.5632,
13.756836,-0.6819,-0.9088,0.0257,1.1068,0.1683,-0.1566,-0.2029,0.3842,-0.5632,
13.787701,-0.6819,-0.9088,0.0257,-0.6646,-1.1786,-0.2277,-0.2029,0.3842,-0.5632,
13.789695,-0.6819,-0.9088,0.0257,-0.6646,-1.1786,-0.2277,-0.0147,1.0860,-0.7282,
13.813454,-0.7654,-1.0264,0.0523,-0.6646,-1.1786,-0.2277,-0.0147,1.0860,-0.7282,
13.815127,-0.8573,-1.1270,0.2362,-0.6646,-1.1786,-0.2277,-0.0147,1.0860,-0.7282,
13.816268,-0.7865,-0.8414,0.3845,-0.6646,-1.1786,-0.2277,-0.0147,1.0860,-0.7282,
13.846089,-0.7865,-0.8414,0.3845,-1.8943,-0.3551,3.4304,-0.0147,1.0860,-0.7282,
13.848549,-0.7865,-0.8414,0.3845,-1.8943,-0.3551,3.4304,0.5137,0.6224,-0.3219,
13.874016,-0.6729,-0.5996,0.1134,-1.8943,-0.3551,3.4304,0.5137,0.6224,-0.3219,
13.876051,-0.6689,-0.5961,-0.1720,-1.8943,-0.3551,3.4304,0.5137,0.6224,-0.3219,
13.877240,-0.6804,-0.6540,-0.2514,-1.8943,-0.3551,3.4304,0.5137,0.6224,-0.3219,
13.906298,-0.6804,-0.6540,-0.2514,-1.8943,-0.3551,3.4304,-1.1345,-1.5608,-0.0990,
13.908312,-0.6804,-0.6540,-0.2514,-0.9531,1.5544,-2.7520,-1.1345,-1.5608,-0.0990,
13.933631,-0.6269,-0.7058,-0.1823,-0.9531,1.5544,-2.7520,-1.1345,-1.5608,-0.0990,
13.935434,-0.5920,-0.7664,-0.1021,-0.9531,1.5544,-2.7520,-1.1345,-1.5608,-0.0990,
13.936429,-0.5803,-0.8080,-0.0283,-0.9531,1.5544,-2.7520,-1.1345,-1.5608,-0.0990,
13.965811,-0.5803,-0.8080,-0.0283,-0.9531,1.5544,-2.7520,-0.9353,-1.0282,0.0666,
13.969316,-0.5803,-0.8080,-0.0283,-0.0139,0.0760,-0.5749,-0.9353,-1.0282,0.0666,
13.994757,-0.5925,-0.8615,0.0195,-0.0139,0.0760,-0.5749,-0.9353,-1.0282,0.0666,
13.997784,-0.5842,-0.8927,0.0440,-0.0139,0.0760,-0.5749,-0.9353,-1.0282,0.0666,
13.999594,-0.5549,-0.8910,0.0520,-0.0139,0.0760,-0.5749,-0.9353,-1.0282,0.0666,
14.026132,-0.5549,-0.8910,0.0520,0.2938,-0.7747,0.4434,-0.9353,-1.0282,0.0666,
14.029077,-0.5549,-0.8910,0.0520,0.2938,-0.7747,0.4434,-0.1778,0.5864,0.1118,
14.053322,-0.5092,-0.8529,0.0440,0.2938,-0.7747,0.4434,-0.1778,0.5864,0.1118,
14.055722,-0.4725,-0.8304,0.0425,0.2938,-0.7747,0.4434,-0.1778,0.5864,0.1118,
14.057288,-0.4774,-0.8375,0.0518,0.2938,-0.7747,0.4434,-0.1778,0.5864,0.1118,
14.086218,-0.4774,-0.8375,0.0518,1.0461,-0.2460,0.6264,-0.1778,0.5864,0.1118,
14.089345,-0.4774,-0.8375,0.0518,1.0461,-0.2460,0.6264,0.1795,0.5888,-0.0959,
14.113068,-0.5180,-0.8519,-0.0054,1.0461,-0.2460,0.6264,0.1795,0.5888,-0.0959,
14.115864,-0.5353,-0.8307,-0.0882,1.0461,-0.2460,0.6264,0.1795,0.5888,-0.0959,
14.118814,-0.5527,-0.8192,-0.1253,1.0461,-0.2460,0.6264,0.1795,0.5888,-0.0959,
14.146664,-0.5527,-0.8192,-0.1253,0.2658,-0.0377,-1.0244,0.1795,0.5888,-0.0959,
14.149676,-0.5527,-0.8192,-0.1253,0.2658,-0.0377,-1.0244,-0.3941,-0.2951,-0.0330,
14.174092,-0.5805,-0.8211,-0.0916,0.2658,-0.0377,-1.0244,-0.3941,-0.2951,-0.0330,
14.177350,-0.5981,-0.8192,-0.0435,0.2658,-0.0377,-1.0244,-0.3941,-0.2951,-0.0330,
14.178680,-0.6054,-0.8263,-0.0313,0.2658,-0.0377,-1.0244,-0.3941,-0.2951,-0.0330,
14.208263,-0.6054,-0.8263,-0.0313,0.2658,-0.0377,-1.0244,-0.2725,-0.1357,0.0696,
14.211461,-0.6054,-0.8263,-0.0313,-0.2377,-0.1207,0.0136,-0.2725,-0.1357,0.0696,
14.234888,-0.5908,-0.8192,-0.0225,-0.2377,-0.1207,0.0136,-0.2725,-0.1357,0.0696,
14.236399,-0.5627,-0.8123,-0.0244,-0.2377,-0.1207,0.0136,-0.2725,-0.1357,0.0696,
14.237508,-0.5404,-0.8153,-0.0327,-0.2377,-0.1207,0.0136,-0.2725,-0.1357,0.0696,
14.267228,-0.5404,-0.8153,-0.0327,0.4238,-0.0318,0.0279,-0.2725,-0.1357,0.0696,
14.270099,-0.5404,-0.8153,-0.0327,0.4238,-0.0318,0.0279,-0.0111,-0.2114,-0.0202,
14.297105,-0.5419,-0.8324,-0.0638,0.4238,-0.0318,0.0279,-0.0111,-0.2114,-0.0202,
14.299384,-0.5610,-0.8422,-0.1087,0.4238,-0.0318,0.0279,-0.0111,-0.2114,-0.0202,
14.301776,-0.5610,-0.8268,-0.1473,0.4238,-0.0318,0.0279,-0.0111,-0.2114,-0.0202,
14.326190,-0.5610,-0.8268,-0.1473,0.2002,-0.1245,-1.1947,-0.0111,-0.2114,-0.0202,
14.328989,-0.5610,-0.8268,-0.1473,0.2002,-0.1245,-1.1947,-0.2463,-0.5547,-0.1210,
14.354816,-0.5517,-0.7996,-0.1823,0.2002,-0.1245,-1.1947,-0.2463,-0.5547,-0.1210,
14.357887,-0.5529,-0.7867,-0.2028,0.2002,-0.1245,-1.1947,-0.2463,-0.5547,-0.1210,
14.359553,-0.5700,-0.7879,-0.2140,0.2002,-0.1245,-1.1947,-0.2463,-0.5547,-0.1210,
14.385610,-0.5700,-0.7879,-0.2140,0.0329,0.3112,-1.8289,-0.2463,-0.5547,-0.1210,
14.388311,-0.5700,-0.7879,-0.2140,0.0329,0.3112,-1.8289,-0.5529,-0.3562,-0.2340,
14.413930,-0.5969,-0.7906,-0.1774,0.0329,0.3112,-1.8289,-0.5529,-0.3562,-0.2340,
14.416241,-0.6118,-0.7801,-0.1312,0.0329,0.3112,-1.8289,-0.5529,-0.3562,-0.2340,
14.417830,-0.6211,-0.7701,-0.1058,0.0329,0.3112,-1.8289,-0.5529,-0.3562,-0.2340,
14.446722,-0.6211,-0.7701,-0.1058,0.0329,0.3112,-1.8289,-0.1326,0.2577,-0.0898,
14.449244,-0.6211,-0.7701,-0.1058,-0.5538,0.5370,-0.5765,-0.1326,0.2577,-0.0898,
14.473355,-0.6252,-0.7662,-0.1092,-0.5538,0.5370,-0.5765,-0.1326,0.2577,-0.0898,
14.476391,-0.6391,-0.7887,-0.1163,-0.5538,0.5370,-0.5765,-0.1326,0.2577,-0.0898,
14.478740,-0.6325,-0.8001,-0.1129,-0.5538,0.5370,-0.5765,-0.1326,0.2577,-0.0898,
14.505523,-0.6325,-0.8001,-0.1129,-0.5538,0.5370,-0.5765,-0.0838,0.3047,0.0434,
14.508187,-0.6325,-0.8001,-0.1129,-0.6742,0.2402,-0.5259,-0.0838,0.3047,0.0434,
14.533637,-0.6108,-0.7979,-0.0980,-0.6742,0.2402,-0.5259,-0.0838,0.3047,0.0434,
14.537461,-0.5966,-0.7850,-0.0936,-0.6742,0.2402,-0.5259,-0.0838,0.3047,0.0434,
14.539378,-0.5873,-0.7759,-0.0955,-0.6742,0.2402,-0.5259,-0.0838,0.3047,0.0434,
14.567074,-0.5873,-0.7759,-0.0955,-0.6742,0.2402,-0.5259,-0.2872,0.0115,0.0165,
14.570868,-0.5873,-0.7759,-0.0955,-0.2250,0.4595,-0.1919,-0.2872,0.0115,0.0165,
14.593403,-0.5930,-0.7977,-0.0989,-0.2250,0.4595,-0.1919,-0.2872,0.0115,0.0165,
14.596493,-0.5861,-0.8172,-0.0936,-0.2250,0.4595,-0.1919,-0.2872,0.0115,0.0165,
14.598267,-0.5744,-0.8231,-0.0860,-0.2250,0.4595,-0.1919,-0.2872,0.0115,0.0165,
14.626073,-0.5744,-0.8231,-0.0860,-0.2250,0.4595,-0.1919,-0.2530,-0.0618,-0.0672,
14.628820,-0.5744,-0.8231,-0.0860,-0.0955,-0.0165,0.0227,-0.2530,-0.0618,-0.0672,
14.656885,-0.5658,-0.8229,-0.0848,-0.0955,-0.0165,0.0227,-0.2530,-0.0618,-0.0672,
14.659826,-0.5568,-0.8109,-0.0943,-0.0955,-0.0165,0.0227,-0.2530,-0.0618,-0.0672,
14.661501,-0.5636,-0.8102,-0.1058,-0.0955,-0.0165,0.0227,-0.2530,-0.0618,-0.0672,
14.685429,-0.5636,-0.8102,-0.1058,-0.0955,-0.0165,0.0227,0.1239,0.1606,-0.2010,
14.688344,-0.5636,-0.8102,-0.1058,-0.0585,0.1509,-0.1160,0.1239,0.1606,-0.2010,
14.713340,-0.5678,-0.8016,-0.1158,-0.0585,0.1509,-0.1160,0.1239,0.1606,-0.2010,
14.716163,-0.5573,-0.7933,-0.1292,-0.0585,0.1509,-0.1160,0.1239,0.1606,-0.2010,
14.717321,-0.5575,-0.7933,-0.1466,-0.0585,0.1509,-0.1160,0.1239,0.1606,-0.2010,
14.745871,-0.5575,-0.7933,-0.1466,-0.0585,0.1509,-0.1160,0.3023,0.2498,-0.3690,
14.748593,-0.5575,-0.7933,-0.1466,-0.1391,0.4120,-0.5410,0.3023,0.2498,-0.3690,
14.777139,-0.5778,-0.7992,-0.1659,-0.1391,0.4120,-0.5410,0.3023,0.2498,-0.3690,
14.780002,-0.5952,-0.7901,-0.1779,-0.1391,0.4120,-0.5410,0.3023,0.2498,-0.3690,
14.782004,-0.6110,-0.7828,-0.1918,-0.1391,0.4120,-0.5410,0.3023,0.2498,-0.3690,
14.807241,-0.6110,-0.7828,-0.1918,-0.1391,0.4120,-0.5410,0.0836,-0.0251,-0.4099,
14.810300,-0.6110,-0.7828,-0.1918,-0.8739,0.6557,-1.0584,0.0836,-0.0251,-0.4099,
14.833466,-0.6247,-0.7816,-0.2018,-0.8739,0.6557,-1.0584,0.0836,-0.0251,-0.4099,
14.837150,-0.6448,-0.8018,-0.2055,-0.8739,0.6557,-1.0584,0.0836,-0.0251,-0.4099,
14.838987,-0.6474,-0.8214,-0.1957,-0.8739,0.6557,-1.0584,0.0836,-0.0251,-0.4099,
14.865519,-0.6474,-0.8214,-0.1957,-0.8739,0.6557,-1.0584,-0.1846,-0.0532,-0.2706,
14.868568,-0.6474,-0.8214,-0.1957,-1.3952,0.3742,-1.0754,-0.1846,-0.0532,-0.2706,
14.893809,-0.6281,-0.8341,-0.1764,-1.3952,0.3742,-1.0754,-0.1846,-0.0532,-0.2706,
14.896653,-0.6526,-0.9076,-0.1671,-1.3952,0.3742,-1.0754,-0.1846,-0.0532,-0.2706,
14.897989,-0.6435,-0.9426,-0.1422,-1.3952,0.3742,-1.0754,-0.1846,-0.0532,-0.2706,
14.925878,-0.6435,-0.9426,-0.1422,-1.3952,0.3742,-1.0754,-0.0648,0.1868,-0.1552,
14.928404,-0.6435,-0.9426,-0.1422,-1.4409,-0.7718,-0.4811,-0.0648,0.1868,-0.1552,
14.953954,-0.5497,-0.8825,-0.1178,-1.4409,-0.7718,-0.4811,-0.0648,0.1868,-0.1552,
14.957854,-0.5099,-0.8632,-0.1170,-1.4409,-0.7718,-0.4811,-0.0648,0.1868,-0.1552,
14.959500,-0.5062,-0.8607,-0.1314,-1.4409,-0.7718,-0.4811,-0.0648,0.1868,-0.1552,
14.987452,-0.5062,-0.8607,-0.1314,-1.4409,-0.7718,-0.4811,0.3463,0.1190,-0.2761,
14.991092,-0.5062,-0.8607,-0.1314,-0.2218,0.1004,-0.3634,0.3463,0.1190,-0.2761,
15.017839,-0.5075,-0.8553,-0.1395,-0.2218,0.1004,-0.3634,0.3463,0.1190,-0.2761,
15.020641,-0.5331,-0.8519,-0.1383,-0.2218,0.1004,-0.3634,0.3463,0.1190,-0.2761,
15.023093,-0.5495,-0.8402,-0.1339,-0.2218,0.1004,-0.3634,0.3463,0.1190,-0.2761,
15.045600,-0.5495,-0.8402,-0.1339,-0.7714,0.3861,-0.5508,0.3463,0.1190,-0.2761,
15.048127,-0.5495,-0.8402,-0.1339,-0.7714,0.3861,-0.5508,0.2785,0.0237,-0.1289,
15.074314,-0.5634,-0.8402,-0.1305,-0.7714,0.3861,-0.5508,0.2785,0.0237,-0.1289,
15.077380,-0.5720,-0.8624,-0.1129,-0.7714,0.3861,-0.5508,0.2785,0.0237,-0.1289,
15.079264,-0.5600,-0.8852,-0.0936,-0.7714,0.3861,-0.5508,0.2785,0.0237,-0.1289,
15.105835,-0.5600,-0.8852,-0.0936,-0.7714,0.3861,-0.5508,0.2430,0.2858,0.2046,
15.109179,-0.5600,-0.8852,-0.0936,-0.8668,-0.0515,-0.2381,0.2430,0.2858,0.2046,
15.134943,-0.5395,-0.9015,-0.0806,-0.8668,-0.0515,-0.2381,0.2430,0.2858,0.2046,
15.138077,-0.5092,-0.9120,-0.0733,-0.8668,-0.0515,-0.2381,0.2430,0.2858,0.2046,
15.141035,-0.4869,-0.9189,-0.0677,-0.8668,-0.0515,-0.2381,0.2430,0.2858,0.2046,
15.165926,-0.4869,-0.9189,-0.0677,-0.8668,-0.0515,-0.2381,0.4495,0.4281,0.3274,
15.168800,-0.4869,-0.9189,-0.0677,-0.0255,-0.4448,-0.0564,0.4495,0.4281,0.3274,
15.193828,-0.4603,-0.9325,-0.0665,-0.0255,-0.4448,-0.0564,0.4495,0.4281,0.3274,
15.197141,-0.4244,-0.9372,-0.0735,-0.0255,-0.4448,-0.0564,0.4495,0.4281,0.3274,
15.199031,-0.3801,-0.9365,-0.0784,-0.0255,-0.4448,-0.0564,0.4495,0.4281,0.3274,
15.226843,-0.3801,-0.9365,-0.0784,1.1641,-0.6908,-0.2752,0.4495,0.4281,0.3274,
15.230659,-0.3801,-0.9365,-0.0784,1.1641,-0.6908,-0.2752,0.5039,0.1972,0.1979,
15.253200,-0.3237,-0.9409,-0.0721,1.1641,-0.6908,-0.2752,0.5039,0.1972,0.1979,
15.255992,-0.2717,-0.9475,-0.0476,1.1641,-0.6908,-0.2752,0.5039,0.1972,0.1979,
15.257144,-0.2673,-0.9650,-0.0542,1.1641,-0.6908,-0.2752,0.5039,0.1972,0.1979,
15.286313,-0.2673,-0.9650,-0.0542,2.2717,-0.9596,-0.3421,0.5039,0.1972,0.1979,
15.289009,-0.2673,-0.9650,-0.0542,2.2717,-0.9596,-0.3421,0.3029,-0.0221,-0.1289,
15.314652,-0.2961,-0.9738,-0.0662,2.2717,-0.9596,-0.3421,0.3029,-0.0221,-0.1289,
15.317684,-0.3406,-0.9321,-0.0850,2.2717,-0.9596,-0.3421,0.3029,-0.0221,-0.1289,
15.320400,-0.3633,-0.8937,-0.0963,2.2717,-0.9596,-0.3421,0.3029,-0.0221,-0.1289,
15.347664,-0.3633,-0.8937,-0.0963,1.2481,-0.2117,-0.8654,0.3029,-0.0221,-0.1289,
15.351092,-0.3633,-0.8937,-0.0963,1.2481,-0.2117,-0.8654,0.1313,-0.3428,-0.1173,
15.373918,-0.3872,-0.8746,-0.0711,1.2481,-0.2117,-0.8654,0.1313,-0.3428,-0.1173,
15.376951,-0.3994,-0.8644,-0.0315,1.2481,-0.2117,-0.8654,0.1313,-0.3428,-0.1173,
15.379028,-0.4024,-0.8700,-0.0103,1.2481,-0.2117,-0.8654,0.1313,-0.3428,-0.1173,
15.407309,-0.4024,-0.8700,-0.0103,1.2481,-0.2117,-0.8654,0.4367,0.0842,0.0305,
15.411477,-0.4024,-0.8700,-0.0103,0.8379,0.0356,-0.1916,0.4367,0.0842,0.0305,
15.433062,-0.3906,-0.8878,-0.0169,0.8379,0.0356,-0.1916,0.4367,0.0842,0.0305,
15.435533,-0.3853,-0.9018,-0.0335,0.8379,0.0356,-0.1916,0.4367,0.0842,0.0305,
15.436659,-0.3914,-0.8888,-0.0352,0.8379,0.0356,-0.1916,0.4367,0.0842,0.0305,
15.465451,-0.3914,-0.8888,-0.0352,0.8379,0.0356,-0.1916,0.3463,0.1636,0.0855,
15.468177,-0.3914,-0.8888,-0.0352,0.9732,-0.1686,-0.6346,0.3463,0.1636,0.0855,
15.493527,-0.4021,-0.8798,-0.0374,0.9732,-0.1686,-0.6346,0.3463,0.1636,0.0855,
15.495668,-0.4239,-0.8935,-0.0242,0.9732,-0.1686,-0.6346,0.3463,0.1636,0.0855,
15.496774,-0.4525,-0.9174,-0.0220,0.9732,-0.1686,-0.6346,0.3463,0.1636,0.0855,
15.528044,-0.4525,-0.9174,-0.0220,0.9732,-0.1686,-0.6346,0.0561,-0.0422,0.0855,
15.530843,-0.4525,-0.9174,-0.0220,0.4195,-0.4760,-0.5570,0.0561,-0.0422,0.0855,
15.554441,-0.4559,-0.9081,-0.0132,0.4195,-0.4760,-0.5570,0.0561,-0.0422,0.0855,
15.557817,-0.4415,-0.8788,-0.0042,0.4195,-0.4760,-0.5570,0.0561,-0.0422,0.0855,
15.559318,-0.4385,-0.8808,-0.0071,0.4195,-0.4760,-0.5570,0.0561,-0.0422,0.0855,
15.586556,-0.4385,-0.8808,-0.0071,0.5879,-0.1364,-0.4399,0.0561,-0.0422,0.0855,
15.589167,-0.4385,-0.8808,-0.0071,0.5879,-0.1364,-0.4399,-0.1650,-0.3696,0.0916,
15.613508,-0.4441,-0.9037,-0.0081,0.5879,-0.1364,-0.4399,-0.1650,-0.3696,0.0916,
15.616501,-0.4180,-0.9118,0.0002,0.5879,-0.1364,-0.4399,-0.1650,-0.3696,0.0916,
15.618519,-0.3872,-0.9103,0.0115,0.5879,-0.1364,-0.4399,-0.1650,-0.3696,0.0916,
15.647609,-0.3872,-0.9103,0.0115,0.5879,-0.1364,-0.4399,-0.0123,-0.1662,0.0287,
15.651022,-0.3872,-0.9103,0.0115,1.1159,-0.4422,-0.2914,-0.0123,-0.1662,0.0287,
15.674618,-0.3652,-0.9015,0.0217,1.1159,-0.4422,-0.2914,-0.0123,-0.1662,0.0287,
15.677427,-0.3821,-0.9086,0.0213,1.1159,-0.4422,-0.2914,-0.0123,-0.1662,0.0287,
15.679212,-0.3914,-0.8944,0.0010,1.1159,-0.4422,-0.2914,-0.0123,-0.1662,0.0287,
15.705522,-0.3914,-0.8944,0.0010,1.1159,-0.4422,-0.2914,0.0726,0.0103,0.0489,
15.707853,-0.3914,-0.8944,0.0010,1.0856,-0.2946,-0.4347,0.0726,0.0103,0.0489,
15.733583,-0.4021,-0.8803,-0.0205,1.0856,-0.2946,-0.4347,0.0726,0.0103,0.0489,
15.736489,-0.4134,-0.8754,-0.0291,1.0856,-0.2946,-0.4347,0.0726,0.0103,0.0489,
15.738216,-0.4270,-0.8861,-0.0237,1.0856,-0.2946,-0.4347,0.0726,0.0103,0.0489,
15.765275,-0.4270,-0.8861,-0.0237,0.7687,-0.2325,-0.6799,0.0726,0.0103,0.0489,
15.767985,-0.4270,-0.8861,-0.0237,0.7687,-0.2325,-0.6799,-0.0532,-0.0465,0.1087,
15.793332,-0.4170,-0.8871,-0.0110,0.7687,-0.2325,-0.6799,-0.0532,-0.0465,0.1087,
15.796166,-0.4053,-0.8815,-0.0027,0.7687,-0.2325,-0.6799,-0.0532,-0.0465,0.1087,
15.798120,-0.4173,-0.8852,-0.0083,0.7687,-0.2325,-0.6799,-0.0532,-0.0465,0.1087,
15.825950,-0.4173,-0.8852,-0.0083,0.7687,-0.2325,-0.6799,-0.0887,0.0103,0.1564,
15.829684,-0.4173,-0.8852,-0.0083,0.9213,-0.2553,-0.5073,-0.0887,0.0103,0.1564,
15.853945,-0.4290,-0.8927,-0.0173,0.9213,-0.2553,-0.5073,-0.0887,0.0103,0.1564,
15.856939,-0.4339,-0.8964,-0.0183,0.9213,-0.2553,-0.5073,-0.0887,0.0103,0.1564,
15.858643,-0.4229,-0.8944,-0.0098,0.9213,-0.2553,-0.5073,-0.0887,0.0103,0.1564,
15.887256,-0.4229,-0.8944,-0.0098,0.9510,-0.3948,-0.4690,-0.0887,0.0103,0.1564,
15.891410,-0.4229,-0.8944,-0.0098,0.9510,-0.3948,-0.4690,-0.1033,-0.0477,0.1985,
15.915155,-0.4226,-0.9106,-0.0015,0.9510,-0.3948,-0.4690,-0.1033,-0.0477,0.1985,
15.918021,-0.4033,-0.9169,0.0049,0.9510,-0.3948,-0.4690,-0.1033,-0.0477,0.1985,
15.920220,-0.3931,-0.9125,0.0007,0.9510,-0.3948,-0.4690,-0.1033,-0.0477,0.1985,
15.946976,-0.3931,-0.9125,0.0007,0.9510,-0.3948,-0.4690,-0.0862,-0.0471,0.2120,
15.951254,-0.3931,-0.9125,0.0007,1.3360,-0.6276,-0.3288,-0.0862,-0.0471,0.2120,
15.973956,-0.3933,-0.9113,-0.0103,1.3360,-0.6276,-0.3288,-0.0862,-0.0471,0.2120,
15.978307,-0.3946,-0.9059,-0.0198,1.3360,-0.6276,-0.3288,-0.0862,-0.0471,0.2120,
15.981505,-0.3899,-0.8930,-0.0320,1.3360,-0.6276,-0.3288,-0.0862,-0.0471,0.2120,
16.005536,-0.3899,-0.8930,-0.0320,1.1195,-0.2812,-0.4585,-0.0862,-0.0471,0.2120,
16.008340,-0.3899,-0.8930,-0.0320,1.1195,-0.2812,-0.4585,-0.1821,-0.0135,0.2150,
16.033592,-0.3728,-0.8693,-0.0498,1.1195,-0.2812,-0.4585,-0.1821,-0.0135,0.2150,
16.035999,-0.3735,-0.8561,-0.0691,1.1195,-0.2812,-0.4585,-0.1821,-0.0135,0.2150,
16.037511,-0.3882,-0.8595,-0.0880,1.1195,-0.2812,-0.4585,-0.1821,-0.0135,0.2150,
16.069197,-0.3882,-0.8595,-0.0880,1.1195,-0.2812,-0.4585,-0.4820,-0.0447,0.2492,
16.072609,-0.3882,-0.8595,-0.0880,1.1451,0.0427,-0.8123,-0.4820,-0.0447,0.2492,
16.093846,-0.4007,-0.8583,-0.1058,1.1451,0.0427,-0.8123,-0.4820,-0.0447,0.2492,
16.096844,-0.3826,-0.8373,-0.1163,1.1451,0.0427,-0.8123,-0.4820,-0.0447,0.2492,
16.098757,-0.3645,-0.8199,-0.1131,1.1451,0.0427,-0.8123,-0.4820,-0.0447,0.2492,
16.125935,-0.3645,-0.8199,-0.1131,1.5126,0.3433,-0.7687,-0.4820,-0.0447,0.2492,
16.129522,-0.3645,-0.8199,-0.1131,1.5126,0.3433,-0.7687,-0.7044,-0.0355,0.2889,
16.153341,-0.3840,-0.8468,-0.0965,1.5126,0.3433,-0.7687,-0.7044,-0.0355,0.2889,
16.155944,-0.4588,-0.9323,-0.0833,1.5126,0.3433,-0.7687,-0.7044,-0.0355,0.2889,
16.157491,-0.5079,-0.9804,-0.0862,1.5126,0.3433,-0.7687,-0.7044,-0.0355,0.2889,
16.186529,-0.5079,-0.9804,-0.0862,1.5126,0.3433,-0.7687,-0.5279,0.2840,0.2162,
16.189065,-0.5079,-0.9804,-0.0862,0.2269,-1.3260,-0.1476,-0.5279,0.2840,0.2162,
16.215660,-0.4952,-0.9377,-0.0921,0.2269,-1.3260,-0.1476,-0.5279,0.2840,0.2162,
16.218651,-0.5153,-0.9360,-0.0950,0.2269,-1.3260,-0.1476,-0.5279,0.2840,0.2162,
16.220649,-0.5683,-0.9658,-0.0880,0.2269,-1.3260,-0.1476,-0.5279,0.2840,0.2162,
16.246855,-0.5683,-0.9658,-0.0880,-0.3443,-1.2317,0.1821,-0.5279,0.2840,0.2162,
16.250011,-0.5683,-0.9658,-0.0880,-0.3443,-1.2317,0.1821,-0.4753,0.3432,-0.1521,
16.273678,-0.6184,-0.9831,-0.0713,-0.3443,-1.2317,0.1821,-0.4753,0.3432,-0.1521,
16.276281,-0.6540,-0.9773,-0.0425,-0.3443,-1.2317,0.1821,-0.4753,0.3432,-0.1521,
16.279040,-0.6931,-0.9440,0.0638,-0.3443,-1.2317,0.1821,-0.4753,0.3432,-0.1521,
16.306315,-0.6931,-0.9440,0.0638,-0.3443,-1.2317,0.1821,0.0299,0.1862,-0.2566,
16.308237,-0.6931,-0.9440,0.0638,-1.7072,-0.9657,1.9109,0.0299,0.1862,-0.2566,
16.333132,-0.6816,-0.8617,0.1182,-1.7072,-0.9657,1.9109,0.0299,0.1862,-0.2566,
16.336022,-0.6411,-0.7926,-0.0503,-1.7072,-0.9657,1.9109,0.0299,0.1862,-0.2566,
16.337718,-0.6257,-0.7684,-0.2277,-1.7072,-0.9657,1.9109,0.0299,0.1862,-0.2566,
16.366730,-0.6257,-0.7684,-0.2277,-1.7072,-0.9657,1.9109,-0.5694,-1.6482,-0.2413,
16.369796,-0.6257,-0.7684,-0.2277,-1.1296,0.8122,-0.9849,-0.5694,-1.6482,-0.2413,
16.394057,-0.6399,-0.7584,-0.2729,-1.1296,0.8122,-0.9849,-0.5694,-1.6482,-0.2413,
16.396261,-0.6638,-0.7569,-0.2013,-1.1296,0.8122,-0.9849,-0.5694,-1.6482,-0.2413,
16.397542,-0.7488,-0.8304,-0.1114,-1.1296,0.8122,-0.9849,-0.5694,-1.6482,-0.2413,
16.427184,-0.7488,-0.8304,-0.1114,-2.3721,0.2468,0.0019,-0.5694,-1.6482,-0.2413,
16.430059,-0.7488,-0.8304,-0.1114,-2.3721,0.2468,0.0019,-0.4320,-0.7478,-0.2205,
16.455499,-0.8468,-0.8986,-0.0589,-2.3721,0.2468,0.0019,-0.4320,-0.7478,-0.2205,
16.457699,-0.8419,-0.8397,-0.0770,-2.3721,0.2468,0.0019,-0.4320,-0.7478,-0.2205,
16.459684,-0.7097,-0.6853,-0.1131,-2.3721,0.2468,0.0019,-0.4320,-0.7478,-0.2205,
16.486229,-0.7097,-0.6853,-0.1131,-2.3721,0.2468,0.0019,0.5668,0.2363,0.2816,
16.489252,-0.7097,-0.6853,-0.1131,-1.9296,1.6435,-0.0937,0.5668,0.2363,0.2816,
16.513427,-0.5952,-0.6140,-0.1236,-1.9296,1.6435,-0.0937,0.5668,0.2363,0.2816,
16.515965,-0.5654,-0.6592,-0.1397,-1.9296,1.6435,-0.0937,0.5668,0.2363,0.2816,
16.518038,-0.5585,-0.7405,-0.1676,-1.9296,1.6435,-0.0937,0.5668,0.2363,0.2816,
16.545377,-0.5585,-0.7405,-0.1676,-0.3035,1.0371,-0.8379,0.5668,0.2363,0.2816,
16.548304,-0.5585,-0.7405,-0.1676,-0.3035,1.0371,-0.8379,0.9486,0.9510,0.3415,
16.573781,-0.5524,-0.8058,-0.1805,-0.3035,1.0371,-0.8379,0.9486,0.9510,0.3415,
16.576373,-0.5497,-0.8378,-0.1649,-0.3035,1.0371,-0.8379,0.9486,0.9510,0.3415,
16.577962,-0.5421,-0.8319,-0.1344,-0.3035,1.0371,-0.8379,0.9486,0.9510,0.3415,
16.606698,-0.5421,-0.8319,-0.1344,-0.3035,1.0371,-0.8379,0.6798,0.9578,-0.0098,
16.609914,-0.5421,-0.8319,-0.1344,-0.0589,0.0982,-0.6179,0.6798,0.9578,-0.0098,
16.635041,-0.5617,-0.8121,-0.1094,-0.0589,0.0982,-0.6179,0.6798,0.9578,-0.0098,
16.638058,-0.6223,-0.8006,-0.0811,-0.0589,0.0982,-0.6179,0.6798,0.9578,-0.0098,
16.640252,-0.6426,-0.7540,-0.0545,-0.0589,0.0982,-0.6179,0.6798,0.9578,-0.0098,
16.666472,-0.6426,-0.7540,-0.0545,-0.0589,0.0982,-0.6179,0.2724,0.8014,-0.2902,
16.669463,-0.6426,-0.7540,-0.0545,-1.1456,0.9266,0.1638,0.2724,0.8014,-0.2902,
16.693100,-0.6543,-0.6929,-0.0274,-1.1456,0.9266,0.1638,0.2724,0.8014,-0.2902,
16.695655,-0.6863,-0.6831,-0.0362,-1.1456,0.9266,0.1638,0.2724,0.8014,-0.2902,
16.697830,-0.7244,-0.7039,-0.0635,-1.1456,0.9266,0.1638,0.2724,0.8014,-0.2902,
16.725723,-0.7244,-0.7039,-0.0635,-1.1456,0.9266,0.1638,0.0176,-0.1974,-0.0244,
16.727990,-0.7244,-0.7039,-0.0635,-2.0883,1.4935,0.1806,0.0176,-0.1974,-0.0244,
16.753565,-0.7501,-0.7232,-0.0784,-2.0883,1.4935,0.1806,0.0176,-0.1974,-0.0244,
16.756076,-0.6992,-0.7190,-0.0479,-2.0883,1.4935,0.1806,0.0176,-0.1974,-0.0244,
16.757616,-0.6489,-0.7420,-0.0161,-2.0883,1.4935,0.1806,0.0176,-0.1974,-0.0244,
16.785884,-0.6489,-0.7420,-0.0161,-2.0883,1.4935,0.1806,0.1661,-0.3220,0.1717,
16.788536,-0.6489,-0.7420,-0.0161,-1.2712,1.0866,0.4922,0.1661,-0.3220,0.1717,
16.818052,-0.6279,-0.7872,-0.0149,-1.2712,1.0866,0.4922,0.1661,-0.3220,0.1717,
16.820494,-0.6159,-0.8092,-0.0398,-1.2712,1.0866,0.4922,0.1661,-0.3220,0.1717,
16.821947,-0.6137,-0.8089,-0.0711,-1.2712,1.0866,0.4922,0.1661,-0.3220,0.1717,
16.845590,-0.6137,-0.8089,-0.0711,-1.2712,1.0866,0.4922,0.3225,-0.2145,0.0134,
16.848651,-0.6137,-0.8089,-0.0711,-0.8536,0.3992,-0.2477,0.3225,-0.2145,0.0134,
16.874211,-0.6181,-0.7952,-0.1004,-0.8536,0.3992,-0.2477,0.3225,-0.2145,0.0134,
16.877067,-0.6088,-0.7657,-0.1234,-0.8536,0.3992,-0.2477,0.3225,-0.2145,0.0134,
16.880993,-0.6218,-0.7610,-0.1485,-0.8536,0.3992,-0.2477,0.3225,-0.2145,0.0134,
16.905995,-0.6218,-0.7610,-0.1485,-0.8536,0.3992,-0.2477,0.0213,-0.3348,-0.0550,
16.907817,-0.6218,-0.7610,-0.1485,-0.9385,0.8803,-1.2033,0.0213,-0.3348,-0.0550,
16.935063,-0.6626,-0.7926,-0.1417,-0.9385,0.8803,-1.2033,0.0213,-0.3348,-0.0550,
16.937873,-0.6775,-0.7960,-0.1114,-0.9385,0.8803,-1.2033,0.0213,-0.3348,-0.0550,
16.939688,-0.6340,-0.7647,-0.0689,-0.9385,0.8803,-1.2033,0.0213,-0.3348,-0.0550,
16.967301,-0.6340,-0.7647,-0.0689,-1.0466,0.8374,-0.4272,0.0213,-0.3348,-0.0550,
16.970504,-0.6340,-0.7647,-0.0689,-1.0466,0.8374,-0.4272,-0.0691,-0.0544,0.0440,
16.993889,-0.6147,-0.7725,-0.0535,-1.0466,0.8374,-0.4272,-0.0691,-0.0544,0.0440,
16.997406,-0.6213,-0.7943,-0.0569,-1.0466,0.8374,-0.4272,-0.0691,-0.0544,0.0440,
16.999727,-0.6206,-0.7999,-0.0633,-1.0466,0.8374,-0.4272,-0.0691,-0.0544,0.0440,
17.026162,-0.6206,-0.7999,-0.0633,-0.8726,0.4685,-0.4694,-0.0691,-0.0544,0.0440,
17.029599,-0.6206,-0.7999,-0.0633,-0.8726,0.4685,-0.4694,0.1099,-0.4320,0.1271,
17.053517,-0.6228,-0.7869,-0.0730,-0.8726,0.4685,-0.4694,0.1099,-0.4320,0.1271,
17.056597,-0.6184,-0.7811,-0.0931,-0.8726,0.4685,-0.4694,0.1099,-0.4320,0.1271,
17.058367,-0.6018,-0.7889,-0.0882,-0.8726,0.4685,-0.4694,0.1099,-0.4320,0.1271,
17.086361,-0.6018,-0.7889,-0.0882,-0.5671,0.5003,-0.8112,0.1099,-0.4320,0.1271,
17.089395,-0.6018,-0.7889,-0.0882,-0.5671,0.5003,-0.8112,-0.2255,-0.1870,0.3916,
17.113508,-0.5983,-0.8263,-0.0530,-0.5671,0.5003,-0.8112,-0.2255,-0.1870,0.3916,
17.116880,-0.5812,-0.8556,-0.0215,-0.5671,0.5003,-0.8112,-0.2255,-0.1870,0.3916,
17.119894,-0.5600,-0.8724,0.0000,-0.5671,0.5003,-0.8112,-0.2255,-0.1870,0.3916,
17.146760,-0.5600,-0.8724,0.0000,-0.5671,0.5003,-0.8112,0.1533,0.2559,0.4911,
17.151955,-0.5600,-0.8724,0.0000,0.0613,-0.4652,0.1142,0.1533,0.2559,0.4911,
17.184089,-0.5368,-0.8781,0.0129,0.0613,-0.4652,0.1142,0.1533,0.2559,0.4911,
17.186672,-0.4979,-0.8729,0.0235,0.0613,-0.4652,0.1142,0.1533,0.2559,0.4911,
17.189081,-0.4446,-0.8720,0.0735,0.0613,-0.4652,0.1142,0.1533,0.2559,0.4911,
17.205322,-0.4446,-0.8720,0.0735,0.0613,-0.4652,0.1142,0.8832,0.7104,0.3231,
17.208123,-0.4446,-0.8720,0.0735,1.3944,-0.6026,0.7539,0.8832,0.7104,0.3231,
17.233849,-0.4165,-0.8993,0.1681,1.3944,-0.6026,0.7539,0.8832,0.7104,0.3231,
17.236690,-0.4793,-0.9399,0.1432,1.3944,-0.6026,0.7539,0.8832,0.7104,0.3231,
17.238344,-0.5402,-0.9162,0.0379,1.3944,-0.6026,0.7539,0.8832,0.7104,0.3231,
17.266149,-0.5402,-0.9162,0.0379,1.3944,-0.6026,0.7539,0.7623,0.3530,0.3928,
17.269148,-0.5402,-0.9162,0.0379,0.6125,-1.1518,0.2080,0.7623,0.3530,0.3928,
17.293157,-0.5847,-0.9303,-0.0364,0.6125,-1.1518,0.2080,0.7623,0.3530,0.3928,
17.295738,-0.6240,-0.9868,0.0269,0.6125,-1.1518,0.2080,0.7623,0.3530,0.3928,
17.297858,-0.5983,-0.9995,0.1383,0.6125,-1.1518,0.2080,0.7623,0.3530,0.3928,
17.326086,-0.5983,-0.9995,0.1383,0.2162,-2.1099,0.9750,0.7623,0.3530,0.3928,
17.328903,-0.5983,-0.9995,0.1383,0.2162,-2.1099,0.9750,0.8747,0.3499,0.1778,
17.354180,-0.5250,-0.9384,0.1202,0.2162,-2.1099,0.9750,0.8747,0.3499,0.1778,
17.357237,-0.4808,-0.8722,0.0061,0.2162,-2.1099,0.9750,0.8747,0.3499,0.1778,
17.358985,-0.4928,-0.8263,-0.0745,0.2162,-2.1099,0.9750,0.8747,0.3499,0.1778,
17.385455,-0.4928,-0.8263,-0.0745,1.2129,-0.3956,-1.3171,0.8747,0.3499,0.1778,
17.388695,-0.4928,-0.8263,-0.0745,1.2129,-0.3956,-1.3171,0.2644,0.0958,-0.3451,
17.413569,-0.5429,-0.7899,-0.0689,1.2129,-0.3956,-1.3171,0.2644,0.0958,-0.3451,
17.416581,-0.5817,-0.7320,0.0235,1.2129,-0.3956,-1.3171,0.2644,0.0958,-0.3451,
17.418648,-0.6054,-0.6699,0.0752,1.2129,-0.3956,-1.3171,0.2644,0.0958,-0.3451,
17.445695,-0.6054,-0.6699,0.0752,-0.0929,1.2823,0.0452,0.2644,0.0958,-0.3451,
17.448362,-0.6054,-0.6699,0.0752,-0.0929,1.2823,0.0452,0.2223,-0.0153,-0.5034,
17.473420,-0.6457,-0.6374,0.0347,-0.0929,1.2823,0.0452,0.2223,-0.0153,-0.5034,
17.475421,-0.6399,-0.6142,-0.1197,-0.0929,1.2823,0.0452,0.2223,-0.0153,-0.5034,
17.476552,-0.6516,-0.5866,-0.0892,-0.0929,1.2823,0.0452,0.2223,-0.0153,-0.5034,
17.505994,-0.6516,-0.5866,-0.0892,-0.7714,2.2618,-1.5681,0.2223,-0.0153,-0.5034,
17.507935,-0.6516,-0.5866,-0.0892,-0.7714,2.2618,-1.5681,0.0048,0.0305,-0.3354,
17.532506,-0.6760,-0.5969,0.0965,-0.7714,2.2618,-1.5681,0.0048,0.0305,-0.3354,
17.534010,-0.6509,-0.6401,0.1825,-0.7714,2.2618,-1.5681,0.0048,0.0305,-0.3354,
17.535152,-0.5360,-0.7388,0.1632,-0.7714,2.2618,-1.5681,0.0048,0.0305,-0.3354,
17.564643,-0.5360,-0.7388,0.1632,0.2675,0.8204,0.7527,0.0048,0.0305,-0.3354,
17.567540,-0.5360,-0.7388,0.1632,0.2675,0.8204,0.7527,0.7433,1.2100,-0.1112,
17.593827,-0.4639,-0.8783,0.1207,0.2675,0.8204,0.7527,0.7433,1.2100,-0.1112,
17.596188,-0.3968,-0.9562,0.0897,0.2675,0.8204,0.7527,0.7433,1.2100,-0.1112,
17.598734,-0.3051,-0.9922,0.0794,0.2675,0.8204,0.7527,0.7433,1.2100,-0.1112,
17.625006,-0.3051,-0.9922,0.0794,2.4389,-1.5821,0.1332,0.7433,1.2100,-0.1112,
17.627319,-0.3051,-0.9922,0.0794,2.4389,-1.5821,0.1332,0.4526,0.6975,-0.6701,
17.653216,-0.2497,-1.0288,0.0738,2.4389,-1.5821,0.1332,0.4526,0.6975,-0.6701,
17.655680,-0.2788,-1.0247,-0.0129,2.4389,-1.5821,0.1332,0.4526,0.6975,-0.6701,
17.657257,-0.3335,-0.9944,-0.0467,2.4389,-1.5821,0.1332,0.4526,0.6975,-0.6701,
17.687712,-0.3335,-0.9944,-0.0467,2.4389,-1.5821,0.1332,-0.2640,-0.4594,-1.0953,
17.690487,-0.3335,-0.9944,-0.0467,1.7294,-1.3359,-1.1551,-0.2640,-0.4594,-1.0953,
17.712440,-0.4060,-0.9572,-0.0279,1.7294,-1.3359,-1.1551,-0.2640,-0.4594,-1.0953,
17.715436,-0.4510,-0.9240,0.0005,1.7294,-1.3359,-1.1551,-0.2640,-0.4594,-1.0953,
17.719164,-0.4815,-0.9013,0.0281,1.7294,-1.3359,-1.1551,-0.2640,-0.4594,-1.0953,
17.745012,-0.4815,-0.9013,0.0281,1.7294,-1.3359,-1.1551,-0.2108,0.2736,-0.8839,
17.747720,-0.4815,-0.9013,0.0281,-0.2897,-0.1038,-0.3253,-0.2108,0.2736,-0.8839,
17.772662,-0.5009,-0.8898,0.0486,-0.2897,-0.1038,-0.3253,-0.2108,0.2736,-0.8839,
17.774694,-0.4798,-0.8742,0.0630,-0.2897,-0.1038,-0.3253,-0.2108,0.2736,-0.8839,
17.776205,-0.4554,-0.8553,0.0638,-0.2897,-0.1038,-0.3253,-0.2108,0.2736,-0.8839,
17.806270,-0.4554,-0.8553,0.0638,-0.4195,0.5408,0.1793,-0.2108,0.2736,-0.8839,
17.808143,-0.4554,-0.8553,0.0638,-0.4195,0.5408,0.1793,0.0763,0.7250,-0.5913,
17.834015,-0.4473,-0.8360,0.0418,-0.4195,0.5408,0.1793,0.0763,0.7250,-0.5913,
17.835886,-0.4500,-0.8187,-0.0086,-0.4195,0.5408,0.1793,0.0763,0.7250,-0.5913,
17.836956,-0.4693,-0.8321,-0.0774,-0.4195,0.5408,0.1793,0.0763,0.7250,-0.5913,
17.865987,-0.4693,-0.8321,-0.0774,-0.4195,0.5408,0.1793,-0.3904,0.1282,-0.2046,
17.869750,-0.4693,-0.8321,-0.0774,-0.7878,0.8762,-1.0430,-0.3904,0.1282,-0.2046,
17.896157,-0.4769,-0.8265,-0.1253,-0.7878,0.8762,-1.0430,-0.3904,0.1282,-0.2046,
17.899653,-0.4175,-0.7674,-0.0889,-0.7878,0.8762,-1.0430,-0.3904,0.1282,-0.2046,
17.902149,-0.4336,-0.7816,-0.0589,-0.7878,0.8762,-1.0430,-0.3904,0.1282,-0.2046,
17.925559,-0.4336,-0.7816,-0.0589,-0.7878,0.8762,-1.0430,-0.6470,0.5802,0.0073,
17.928557,-0.4336,-0.7816,-0.0589,-0.4973,1.4006,-0.5026,-0.6470,0.5802,0.0073,
17.953385,-0.4588,-0.8028,-0.0611,-0.4973,1.4006,-0.5026,-0.6470,0.5802,0.0073,
17.956097,-0.4705,-0.7911,-0.0584,-0.4973,1.4006,-0.5026,-0.6470,0.5802,0.0073,
17.957533,-0.5206,-0.8211,-0.0408,-0.4973,1.4006,-0.5026,-0.6470,0.5802,0.0073,
17.984939,-0.5206,-0.8211,-0.0408,-1.3276,0.9864,0.1618,-0.6470,0.5802,0.0073,
17.989191,-0.5206,-0.8211,-0.0408,-1.3276,0.9864,0.1618,-0.6897,0.6920,0.1002,
18.013063,-0.5126,-0.8148,0.0112,-1.3276,0.9864,0.1618,-0.6897,0.6920,0.1002,
18.016230,-0.4424,-0.7901,0.0533,-1.3276,0.9864,0.1618,-0.6897,0.6920,0.1002,
18.018655,-0.4827,-0.9030,0.0574,-1.3276,0.9864,0.1618,-0.6897,0.6920,0.1002,
18.047462,-0.4827,-0.9030,0.0574,-0.9158,0.1240,1.6091,-0.6897,0.6920,0.1002,
18.051532,-0.4827,-0.9030,0.0574,-0.9158,0.1240,1.6091,-0.7343,-0.1259,0.0800,
18.074732,-0.5737,-1.0332,0.0037,-0.9158,0.1240,1.6091,-0.7343,-0.1259,0.0800,
18.077509,-0.5866,-1.0806,-0.0557,-0.9158,0.1240,1.6091,-0.7343,-0.1259,0.0800,
18.079268,-0.4852,-0.9868,-0.0591,-0.9158,0.1240,1.6091,-0.7343,-0.1259,0.0800,
18.104837,-0.4852,-0.9868,-0.0591,-0.9158,0.1240,1.6091,-0.5590,-0.6262,0.1619,
18.107855,-0.4852,-0.9868,-0.0591,-0.8399,-0.7742,0.7242,-0.5590,-0.6262,0.1619,
18.132764,-0.4534,-0.9018,-0.0650,-0.8399,-0.7742,0.7242,-0.5590,-0.6262,0.1619,
18.136196,-0.4740,-0.8849,-0.0867,-0.8399,-0.7742,0.7242,-0.5590,-0.6262,0.1619,
18.138567,-0.5145,-0.9032,-0.1070,-0.8399,-0.7742,0.7242,-0.5590,-0.6262,0.1619,
18.166507,-0.5145,-0.9032,-0.1070,-1.0130,-0.0212,0.3498,-0.5590,-0.6262,0.1619,
18.169612,-0.5145,-0.9032,-0.1070,-1.0130,-0.0212,0.3498,-0.1204,-0.2133,0.1063,
18.193138,-0.5348,-0.8942,-0.1226,-1.0130,-0.0212,0.3498,-0.1204,-0.2133,0.1063,
18.196496,-0.5221,-0.8290,-0.1331,-1.0130,-0.0212,0.3498,-0.1204,-0.2133,0.1063,
18.198623,-0.5380,-0.8033,-0.1537,-1.0130,-0.0212,0.3498,-0.1204,-0.2133,0.1063,
18.224705,-0.5380,-0.8033,-0.1537,-1.0130,-0.0212,0.3498,0.1740,0.1007,0.3549,
18.227476,-0.5380,-0.8033,-0.1537,-1.1311,0.9114,-0.1403,0.1740,0.1007,0.3549,
18.252914,-0.5869,-0.8439,-0.1693,-1.1311,0.9114,-0.1403,0.1740,0.1007,0.3549,
18.256011,-0.6193,-0.9074,-0.1771,-1.1311,0.9114,-0.1403,0.1740,0.1007,0.3549,
18.257071,-0.5671,-0.9172,-0.1840,-1.1311,0.9114,-0.1403,0.1740,0.1007,0.3549,
18.284902,-0.5671,-0.9172,-0.1840,-1.2176,-0.2924,-0.4910,0.1740,0.1007,0.3549,
18.288272,-0.5671,-0.9172,-0.1840,-1.2176,-0.2924,-0.4910,0.3280,0.4874,0.4252,
18.312540,-0.5287,-0.9098,-0.1845,-1.2176,-0.2924,-0.4910,0.3280,0.4874,0.4252,
18.314313,-0.4942,-0.8920,-0.1881,-1.2176,-0.2924,-0.4910,0.3280,0.4874,0.4252,
18.315888,-0.4947,-0.8900,-0.1979,-1.2176,-0.2924,-0.4910,0.3280,0.4874,0.4252,
18.344439,-0.4947,-0.8900,-0.1979,-1.2176,-0.2924,-0.4910,0.2681,0.1319,0.1252,
18.346081,-0.4947,-0.8900,-0.1979,-0.3696,-0.0869,-0.6980,0.2681,0.1319,0.1252,
18.372541,-0.5563,-0.9118,-0.2069,-0.3696,-0.0869,-0.6980,0.2681,0.1319,0.1252,
18.375985,-0.5969,-0.8954,-0.1981,-0.3696,-0.0869,-0.6980,0.2681,0.1319,0.1252,
18.377673,-0.6057,-0.8407,-0.1898,-0.3696,-0.0869,-0.6980,0.2681,0.1319,0.1252,
