
time,gFx,gFy,gFz,ax,ay,az,wx,wy,wz,
0.024887,0.2354,0.4724,0.9105,0.0000,0.0000,0.0000,0.0000,0.0000,0.0000,
0.025221,0.2218,0.4675,0.8968,0.0000,0.0000,0.0000,0.0000,0.0000,0.0000,
0.045598,0.2210,0.4609,0.8788,0.0000,0.0000,0.0000,0.0000,0.0000,0.0000,
0.046427,0.2247,0.4306,0.8411,0.0000,0.0000,0.0000,0.0000,0.0000,0.0000,
0.047103,0.2838,0.4252,0.7998,0.0000,0.0000,0.0000,0.0000,0.0000,0.0000,
0.047568,0.3117,0.4216,0.7415,0.0000,0.0000,0.0000,0.0000,0.0000,0.0000,
0.047986,0.2975,0.3886,0.6735,0.0000,0.0000,0.0000,0.0000,0.0000,0.0000,
0.054944,0.3053,0.3844,0.6569,0.0000,0.0000,0.0000,0.0000,0.0000,0.0000,
0.055858,0.3104,0.3945,0.6550,0.0000,0.0000,0.0000,0.0000,0.0000,0.0000,
0.061813,0.3016,0.3993,0.6723,0.0000,0.0000,0.0000,0.0000,0.0000,0.0000,
0.062959,0.3016,0.3993,0.6723,0.0000,0.0000,0.0000,0.5111,-0.7871,-0.2872,
0.067004,0.2882,0.4028,0.7068,0.0000,0.0000,0.0000,0.5111,-0.7871,-0.2872,
0.071150,0.2772,0.3969,0.7280,0.0000,0.0000,0.0000,0.5111,-0.7871,-0.2872,
0.077097,0.2726,0.3874,0.7280,0.0000,0.0000,0.0000,0.5111,-0.7871,-0.2872,
0.080478,0.2777,0.3783,0.7148,0.0000,0.0000,0.0000,0.5111,-0.7871,-0.2872,
0.088340,0.2916,0.3693,0.6911,0.0000,0.0000,0.0000,0.5111,-0.7871,-0.2872,
0.090004,0.2972,0.3666,0.6706,0.0000,0.0000,0.0000,0.5111,-0.7871,-0.2872,
0.096655,0.2948,0.3669,0.6821,0.0000,0.0000,0.0000,0.5111,-0.7871,-0.2872,
0.101696,0.2960,0.3639,0.6967,0.0000,0.0000,0.0000,0.5111,-0.7871,-0.2872,
0.102521,0.2960,0.3639,0.6967,0.0000,0.0000,0.0000,0.5899,-0.4899,-0.2904,
0.103305,0.2960,0.3639,0.6967,0.0000,0.0000,-0.0000,0.5899,-0.4899,-0.2904,
0.106285,0.3034,0.3649,0.6511,0.0000,0.0000,-0.0000,0.5899,-0.4899,-0.2904,
0.112219,0.3224,0.3615,0.5590,0.0000,0.0000,-0.0000,0.5899,-0.4899,-0.2904,
0.115342,0.3305,0.3563,0.4810,0.0000,0.0000,-0.0000,0.5899,-0.4899,-0.2904,
0.124699,0.3124,0.3502,0.4158,0.0000,0.0000,-0.0000,0.5899,-0.4899,-0.2904,
0.126306,0.2692,0.3392,0.3559,0.0000,0.0000,-0.0000,0.5899,-0.4899,-0.2904,
0.131753,0.2257,0.3292,0.3156,0.0000,0.0000,-0.0000,0.5899,-0.4899,-0.2904,
0.135317,0.2232,0.3373,0.3366,0.0000,0.0000,-0.0000,0.5899,-0.4899,-0.2904,
0.142295,0.2208,0.3532,0.4087,0.0000,0.0000,-0.0000,0.5899,-0.4899,-0.2904,
0.144049,0.2208,0.3532,0.4087,0.0000,0.0000,-0.0000,0.4141,-1.0310,-0.3586,
0.145144,0.2208,0.3532,0.4087,0.0000,0.0000,-0.0000,0.4141,-1.0310,-0.3586,
0.146077,0.1985,0.3583,0.4998,0.0000,0.0000,-0.0000,0.4141,-1.0310,-0.3586,
0.150108,0.1697,0.3708,0.5766,0.0000,0.0000,-0.0000,0.4141,-1.0310,-0.3586,
0.156805,0.1438,0.4023,0.4788,0.0000,0.0000,-0.0000,0.4141,-1.0310,-0.3586,
0.160702,0.0996,0.3871,0.5629,0.0000,0.0000,-0.0000,0.4141,-1.0310,-0.3586,
0.167136,0.0830,0.3388,0.7009,0.0000,0.0000,-0.0000,0.4141,-1.0310,-0.3586,
0.172394,0.0972,0.3126,0.7138,0.0000,0.0000,-0.0000,0.4141,-1.0310,-0.3586,
0.175818,0.1338,0.2821,0.7334,0.0000,0.0000,-0.0000,0.4141,-1.0310,-0.3586,
0.180734,0.1856,0.2440,0.7788,0.0000,0.0000,-0.0000,0.4141,-1.0310,-0.3586,
0.182176,0.1856,0.2440,0.7788,0.0000,0.0000,-0.0000,-0.8983,-0.2502,-0.6355,
0.184018,0.1856,0.2440,0.7788,-0.1485,-0.0956,-1.1171,-0.8983,-0.2502,-0.6355,
0.185000,0.2364,0.2181,0.8008,-0.1485,-0.0956,-1.1171,-0.8983,-0.2502,-0.6355,
0.189569,0.2545,0.1946,0.7837,-0.1485,-0.0956,-1.1171,-0.8983,-0.2502,-0.6355,
0.194351,0.2364,0.1506,0.7815,-0.1485,-0.0956,-1.1171,-0.8983,-0.2502,-0.6355,
0.199232,0.2315,0.1047,0.7747,-0.1485,-0.0956,-1.1171,-0.8983,-0.2502,-0.6355,
0.203500,0.2288,0.0888,0.7744,-0.1485,-0.0956,-1.1171,-0.8983,-0.2502,-0.6355,
0.209919,0.2308,0.0888,0.7881,-0.1485,-0.0956,-1.1171,-0.8983,-0.2502,-0.6355,
0.214008,0.2523,0.1032,0.8135,-0.1485,-0.0956,-1.1171,-0.8983,-0.2502,-0.6355,
0.219664,0.2911,0.1309,0.8331,-0.1485,-0.0956,-1.1171,-0.8983,-0.2502,-0.6355,
0.221010,0.2911,0.1309,0.8331,-0.1485,-0.0956,-1.1171,-2.2352,1.0377,0.0057,
0.222486,0.2911,0.1309,0.8331,-0.3051,-0.7084,0.6889,-2.2352,1.0377,0.0057,
0.226197,0.3664,0.1692,0.8514,-0.3051,-0.7084,0.6889,-2.2352,1.0377,0.0057,
0.229080,0.4485,0.1990,0.8541,-0.3051,-0.7084,0.6889,-2.2352,1.0377,0.0057,
0.234344,0.5110,0.2093,0.8460,-0.3051,-0.7084,0.6889,-2.2352,1.0377,0.0057,
0.239794,0.5604,0.1956,0.8380,-0.3051,-0.7084,0.6889,-2.2352,1.0377,0.0057,
0.243640,0.5880,0.1680,0.8294,-0.3051,-0.7084,0.6889,-2.2352,1.0377,0.0057,
0.248797,0.5868,0.1416,0.8272,-0.3051,-0.7084,0.6889,-2.2352,1.0377,0.0057,
0.256646,0.5631,0.1267,0.8250,-0.3051,-0.7084,0.6889,-2.2352,1.0377,0.0057,
0.259620,0.5264,0.1089,0.8155,-0.3051,-0.7084,0.6889,-2.2352,1.0377,0.0057,
0.261115,0.5264,0.1089,0.8155,-0.3051,-0.7084,0.6889,-1.6397,0.2153,0.5117,
0.261980,0.5264,0.1089,0.8155,-0.1974,-0.1468,0.3400,-1.6397,0.2153,0.5117,
0.263620,0.4732,0.0793,0.7901,-0.1974,-0.1468,0.3400,-1.6397,0.2153,0.5117,
0.272939,0.4201,0.0441,0.7608,-0.1974,-0.1468,0.3400,-1.6397,0.2153,0.5117,
0.274343,0.3676,0.0221,0.7214,-0.1974,-0.1468,0.3400,-1.6397,0.2153,0.5117,
0.280767,0.3327,0.0133,0.6806,-0.1974,-0.1468,0.3400,-1.6397,0.2153,0.5117,
0.283505,0.3366,0.0094,0.6332,-0.1974,-0.1468,0.3400,-1.6397,0.2153,0.5117,
0.290569,0.3769,0.0119,0.5888,-0.1974,-0.1468,0.3400,-1.6397,0.2153,0.5117,
0.293765,0.4353,0.0177,0.5507,-0.1974,-0.1468,0.3400,-1.6397,0.2153,0.5117,
0.300573,0.4968,0.0280,0.5235,-0.1974,-0.1468,0.3400,-1.6397,0.2153,0.5117,
0.301859,0.4968,0.0280,0.5235,-0.1974,-0.1468,0.3400,0.2107,-3.1999,-0.4161,
0.302623,0.4968,0.0280,0.5235,1.2095,-0.8394,0.7569,0.2107,-3.1999,-0.4161,
0.306292,0.5496,0.0427,0.5035,1.2095,-0.8394,0.7569,0.2107,-3.1999,-0.4161,
0.313218,0.5833,0.0573,0.4901,1.2095,-0.8394,0.7569,0.2107,-3.1999,-0.4161,
0.314508,0.6065,0.0590,0.4840,1.2095,-0.8394,0.7569,0.2107,-3.1999,-0.4161,
0.318986,0.6158,0.0527,0.4852,1.2095,-0.8394,0.7569,0.2107,-3.1999,-0.4161,
0.324185,0.6188,0.0392,0.4906,1.2095,-0.8394,0.7569,0.2107,-3.1999,-0.4161,
0.329784,0.6119,0.0177,0.5194,1.2095,-0.8394,0.7569,0.2107,-3.1999,-0.4161,
0.332872,0.5995,0.0014,0.5492,1.2095,-0.8394,0.7569,0.2107,-3.1999,-0.4161,
0.339629,0.5995,0.0014,0.5492,0.0716,-0.7505,1.1001,0.2107,-3.1999,-0.4161,
0.341255,0.5870,-0.0152,0.5670,0.0716,-0.7505,1.1001,0.2107,-3.1999,-0.4161,
0.342139,0.5870,-0.0152,0.5670,0.0716,-0.7505,1.1001,0.5334,-4.2694,-0.1423,
0.343237,0.5706,-0.0248,0.5866,0.0716,-0.7505,1.1001,0.5334,-4.2694,-0.1423,
0.347986,0.5606,-0.0257,0.6022,0.0716,-0.7505,1.1001,0.5334,-4.2694,-0.1423,
0.352414,0.5433,-0.0250,0.6139,0.0716,-0.7505,1.1001,0.5334,-4.2694,-0.1423,
0.357476,0.5225,-0.0213,0.6137,0.0716,-0.7505,1.1001,0.5334,-4.2694,-0.1423,
0.364567,0.4983,-0.0179,0.5949,0.0716,-0.7505,1.1001,0.5334,-4.2694,-0.1423,
0.367638,0.4873,-0.0240,0.5726,0.0716,-0.7505,1.1001,0.5334,-4.2694,-0.1423,
0.374562,0.4839,-0.0455,0.5389,0.0716,-0.7505,1.1001,0.5334,-4.2694,-0.1423,
0.377211,0.4683,-0.0639,0.5045,0.0716,-0.7505,1.1001,0.5334,-4.2694,-0.1423,
0.378271,0.4683,-0.0639,0.5045,0.0716,-0.7505,1.1001,-0.1078,-4.1384,0.3306,
0.378888,0.4683,-0.0639,0.5045,-0.0988,-1.2648,-0.4734,-0.1078,-4.1384,0.3306,
0.383258,0.4717,-0.0729,0.4715,-0.0988,-1.2648,-0.4734,-0.1078,-4.1384,0.3306,
0.388823,0.4934,-0.0695,0.4436,-0.0988,-1.2648,-0.4734,-0.1078,-4.1384,0.3306,
0.392802,0.5806,-0.0350,0.4263,-0.0988,-1.2648,-0.4734,-0.1078,-4.1384,0.3306,
0.397640,0.5899,-0.0165,0.4561,-0.0988,-1.2648,-0.4734,-0.1078,-4.1384,0.3306,
0.402236,0.5413,-0.0739,0.4830,-0.0988,-1.2648,-0.4734,-0.1078,-4.1384,0.3306,
0.407248,0.6024,-0.1437,0.4686,-0.0988,-1.2648,-0.4734,-0.1078,-4.1384,0.3306,
0.411865,0.6872,-0.1831,0.4507,-0.0988,-1.2648,-0.4734,-0.1078,-4.1384,0.3306,
0.416780,0.7253,-0.1819,0.4236,-0.0988,-1.2648,-0.4734,-0.1078,-4.1384,0.3306,
0.417819,0.7253,-0.1819,0.4236,-0.0988,-1.2648,-0.4734,1.0213,-5.7533,0.8643,
0.418984,0.7253,-0.1819,0.4236,-1.2260,-1.7048,0.6340,1.0213,-5.7533,0.8643,
0.423077,0.7368,-0.1491,0.3892,-1.2260,-1.7048,0.6340,1.0213,-5.7533,0.8643,
0.428302,0.7470,-0.1144,0.3579,-1.2260,-1.7048,0.6340,1.0213,-5.7533,0.8643,
0.431951,0.7553,-0.0856,0.3486,-1.2260,-1.7048,0.6340,1.0213,-5.7533,0.8643,
0.436278,0.7622,-0.0780,0.3479,-1.2260,-1.7048,0.6340,1.0213,-5.7533,0.8643,
0.442376,0.7714,-0.0902,0.3608,-1.2260,-1.7048,0.6340,1.0213,-5.7533,0.8643,
0.446809,0.7883,-0.1034,0.3733,-1.2260,-1.7048,0.6340,1.0213,-5.7533,0.8643,
0.451432,0.8100,-0.0990,0.3889,-1.2260,-1.7048,0.6340,1.0213,-5.7533,0.8643,
0.459574,0.8416,-0.0920,0.4033,-1.2260,-1.7048,0.6340,1.0213,-5.7533,0.8643,
0.461420,0.8416,-0.0920,0.4033,-1.2260,-1.7048,0.6340,1.0895,-5.1078,2.0798,
0.462399,0.8416,-0.0920,0.4033,-1.7024,-1.0738,1.7273,1.0895,-5.1078,2.0798,
0.463366,0.8846,-0.0841,0.4202,-1.7024,-1.0738,1.7273,1.0895,-5.1078,2.0798,
0.467211,0.9244,-0.0822,0.4251,-1.7024,-1.0738,1.7273,1.0895,-5.1078,2.0798,
0.472955,0.9630,-0.0812,0.4190,-1.7024,-1.0738,1.7273,1.0895,-5.1078,2.0798,
0.478417,1.0167,-0.0702,0.4036,-1.7024,-1.0738,1.7273,1.0895,-5.1078,2.0798,
0.481917,1.0776,-0.0663,0.3635,-1.7024,-1.0738,1.7273,1.0895,-5.1078,2.0798,
0.486578,1.1306,-0.0690,0.3303,-1.7024,-1.0738,1.7273,1.0895,-5.1078,2.0798,
0.491765,1.1724,-0.0722,0.2885,-1.7024,-1.0738,1.7273,1.0895,-5.1078,2.0798,
0.497503,1.1980,-0.0731,0.2570,-1.7024,-1.0738,1.7273,1.0895,-5.1078,2.0798,
0.498911,1.1980,-0.0731,0.2570,-1.7024,-1.0738,1.7273,1.0000,-4.4740,2.7381,
0.499887,1.1980,-0.0731,0.2570,0.5533,-0.6718,1.5653,1.0000,-4.4740,2.7381,
0.500699,1.2105,-0.0724,0.2516,0.5533,-0.6718,1.5653,1.0000,-4.4740,2.7381,
0.506565,1.2185,-0.0697,0.2580,0.5533,-0.6718,1.5653,1.0000,-4.4740,2.7381,
0.511455,1.2195,-0.0731,0.2580,0.5533,-0.6718,1.5653,1.0000,-4.4740,2.7381,
0.518159,1.2263,-0.0832,0.2502,0.5533,-0.6718,1.5653,1.0000,-4.4740,2.7381,
0.522288,1.2591,-0.0854,0.2238,0.5533,-0.6718,1.5653,1.0000,-4.4740,2.7381,
0.527838,1.3116,-0.0736,0.1996,0.5533,-0.6718,1.5653,1.0000,-4.4740,2.7381,
0.533766,1.3666,-0.0563,0.1903,0.5533,-0.6718,1.5653,1.0000,-4.4740,2.7381,
0.536673,1.4084,-0.0419,0.1822,0.5533,-0.6718,1.5653,1.0000,-4.4740,2.7381,
0.537807,1.4084,-0.0419,0.1822,0.5533,-0.6718,1.5653,1.1641,-3.2904,3.1344,
0.538790,1.4084,-0.0419,0.1822,0.3562,0.1685,2.1646,1.1641,-3.2904,3.1344,
0.542550,1.4255,-0.0336,0.1808,0.3562,0.1685,2.1646,1.1641,-3.2904,3.1344,
0.545885,1.4289,-0.0348,0.1847,0.3562,0.1685,2.1646,1.1641,-3.2904,3.1344,
0.550085,1.4399,-0.0365,0.1918,0.3562,0.1685,2.1646,1.1641,-3.2904,3.1344,
0.559638,1.4548,-0.0331,0.1979,0.3562,0.1685,2.1646,1.1641,-3.2904,3.1344,
0.563433,1.4863,-0.0306,0.2011,0.3562,0.1685,2.1646,1.1641,-3.2904,3.1344,
0.566264,1.5251,-0.0226,0.1979,0.3562,0.1685,2.1646,1.1641,-3.2904,3.1344,
0.573997,1.5586,-0.0116,0.1849,0.3562,0.1685,2.1646,1.1641,-3.2904,3.1344,
0.577697,1.5838,0.0001,0.1666,0.3562,0.1685,2.1646,1.1641,-3.2904,3.1344,
0.579179,1.5838,0.0001,0.1666,0.3562,0.1685,2.1646,1.1268,-2.4414,3.0663,
0.580714,1.5838,0.0001,0.1666,3.9971,1.2089,1.2796,1.1268,-2.4414,3.0663,
0.581929,1.5960,0.0092,0.1453,3.9971,1.2089,1.2796,1.1268,-2.4414,3.0663,
0.586734,1.5884,0.0033,0.1268,3.9971,1.2089,1.2796,1.1268,-2.4414,3.0663,
0.591296,1.5676,-0.0135,0.1099,3.9971,1.2089,1.2796,1.1268,-2.4414,3.0663,
0.597963,1.5366,-0.0309,0.0887,3.9971,1.2089,1.2796,1.1268,-2.4414,3.0663,
0.600580,1.5044,-0.0448,0.0638,3.9971,1.2089,1.2796,1.1268,-2.4414,3.0663,
0.607673,1.4680,-0.0524,0.0354,3.9971,1.2089,1.2796,1.1268,-2.4414,3.0663,
0.611638,1.4379,-0.0612,-0.0113,3.9971,1.2089,1.2796,1.1268,-2.4414,3.0663,
0.615452,1.4130,-0.0607,-0.0667,3.9971,1.2089,1.2796,1.1268,-2.4414,3.0663,
0.616966,1.4130,-0.0607,-0.0667,3.9971,1.2089,1.2796,1.8767,-2.7216,2.5411,
0.618801,1.4130,-0.0607,-0.0667,6.0328,2.1383,0.8725,1.8767,-2.7216,2.5411,
0.620075,1.4005,-0.0636,-0.1358,6.0328,2.1383,0.8725,1.8767,-2.7216,2.5411,
0.631088,1.4008,-0.0724,-0.2089,6.0328,2.1383,0.8725,1.8767,-2.7216,2.5411,
0.632900,1.4169,-0.0871,-0.2800,6.0328,2.1383,0.8725,1.8767,-2.7216,2.5411,
0.635193,1.4362,-0.0978,-0.3433,6.0328,2.1383,0.8725,1.8767,-2.7216,2.5411,
0.640417,1.4511,-0.1069,-0.3941,6.0328,2.1383,0.8725,1.8767,-2.7216,2.5411,
0.645074,1.4540,-0.1135,-0.4332,6.0328,2.1383,0.8725,1.8767,-2.7216,2.5411,
0.650012,1.4506,-0.1154,-0.4429,6.0328,2.1383,0.8725,1.8767,-2.7216,2.5411,
0.656262,1.4423,-0.1186,-0.4405,6.0328,2.1383,0.8725,1.8767,-2.7216,2.5411,
0.657846,1.4423,-0.1186,-0.4405,6.0328,2.1383,0.8725,2.2762,-1.6627,2.0170,
0.658960,1.4423,-0.1186,-0.4405,5.5325,2.4951,1.0706,2.2762,-1.6627,2.0170,
0.660433,1.4189,-0.1271,-0.4253,5.5325,2.4951,1.0706,2.2762,-1.6627,2.0170,
0.666839,1.3910,-0.1374,-0.3943,5.5325,2.4951,1.0706,2.2762,-1.6627,2.0170,
0.670021,1.3592,-0.1489,-0.3540,5.5325,2.4951,1.0706,2.2762,-1.6627,2.0170,
0.677396,1.3297,-0.1618,-0.3110,5.5325,2.4951,1.0706,2.2762,-1.6627,2.0170,
0.680846,1.2991,-0.1704,-0.2727,5.5325,2.4951,1.0706,2.2762,-1.6627,2.0170,
0.686465,1.2601,-0.1828,-0.2534,5.5325,2.4951,1.0706,2.2762,-1.6627,2.0170,
0.691239,1.2300,-0.1973,-0.2465,5.5325,2.4951,1.0706,2.2762,-1.6627,2.0170,
0.698926,1.2080,-0.2090,-0.2404,5.5325,2.4951,1.0706,2.2762,-1.6627,2.0170,
0.700794,1.2080,-0.2090,-0.2404,5.5325,2.4951,1.0706,1.9012,-1.3314,1.6228,
0.701991,1.2080,-0.2090,-0.2404,4.2841,2.0795,-2.7530,1.9012,-1.3314,1.6228,
0.703176,1.2017,-0.2168,-0.2272,4.2841,2.0795,-2.7530,1.9012,-1.3314,1.6228,
0.707705,1.1946,-0.2258,-0.2392,4.2841,2.0795,-2.7530,1.9012,-1.3314,1.6228,
0.712053,1.1855,-0.2468,-0.2773,4.2841,2.0795,-2.7530,1.9012,-1.3314,1.6228,
0.714255,1.1677,-0.2644,-0.2934,4.2841,2.0795,-2.7530,1.9012,-1.3314,1.6228,
0.721451,1.1477,-0.2681,-0.3335,4.2841,2.0795,-2.7530,1.9012,-1.3314,1.6228,
0.725731,1.1404,-0.2793,-0.3743,4.2841,2.0795,-2.7530,1.9012,-1.3314,1.6228,
0.733096,1.1369,-0.2960,-0.4002,4.2841,2.0795,-2.7530,1.9012,-1.3314,1.6228,
0.736508,1.1357,-0.3008,-0.4085,4.2841,2.0795,-2.7530,1.9012,-1.3314,1.6228,
0.738130,1.1357,-0.3008,-0.4085,4.2841,2.0795,-2.7530,1.6701,-1.1024,1.2542,
0.739195,1.1357,-0.3008,-0.4085,2.1137,1.1701,-2.2869,1.6701,-1.1024,1.2542,
0.744484,1.1259,-0.2994,-0.4073,2.1137,1.1701,-2.2869,1.6701,-1.1024,1.2542,
0.746596,1.1206,-0.3060,-0.3955,2.1137,1.1701,-2.2869,1.6701,-1.1024,1.2542,
0.751021,1.1174,-0.3096,-0.3811,2.1137,1.1701,-2.2869,1.6701,-1.1024,1.2542,
0.756569,1.0952,-0.3209,-0.3618,2.1137,1.1701,-2.2869,1.6701,-1.1024,1.2542,
0.762378,1.0631,-0.3309,-0.3521,2.1137,1.1701,-2.2869,1.6701,-1.1024,1.2542,
0.764719,1.0302,-0.3331,-0.3398,2.1137,1.1701,-2.2869,1.6701,-1.1024,1.2542,
0.770213,1.0104,-0.3348,-0.3298,2.1137,1.1701,-2.2869,1.6701,-1.1024,1.2542,
0.773643,1.0074,-0.3389,-0.3074,2.1137,1.1701,-2.2869,1.6701,-1.1024,1.2542,
0.775312,1.0074,-0.3389,-0.3074,2.1137,1.1701,-2.2869,1.7851,-0.5399,1.0018,
0.776546,1.0074,-0.3389,-0.3074,2.0660,1.4507,-2.1282,1.7851,-0.5399,1.0018,
0.780163,1.0094,-0.3426,-0.2687,2.0660,1.4507,-2.1282,1.7851,-0.5399,1.0018,
0.784561,1.0109,-0.3453,-0.2460,2.0660,1.4507,-2.1282,1.7851,-0.5399,1.0018,
0.790369,1.0214,-0.3492,-0.2448,2.0660,1.4507,-2.1282,1.7851,-0.5399,1.0018,
0.794227,0.9664,-0.4286,-1.2233,2.0660,1.4507,-2.1282,1.7851,-0.5399,1.0018,
0.798846,0.7756,-0.4784,-2.5191,2.0660,1.4507,-2.1282,1.7851,-0.5399,1.0018,
0.803301,0.8477,-0.2344,-1.3022,2.0660,1.4507,-2.1282,1.7851,-0.5399,1.0018,
0.809209,0.9510,-0.1648,-0.8165,2.0660,1.4507,-2.1282,1.7851,-0.5399,1.0018,
0.813173,1.0070,-0.2249,-0.7043,2.0660,1.4507,-2.1282,1.7851,-0.5399,1.0018,
0.814525,1.0070,-0.2249,-0.7043,2.0660,1.4507,-2.1282,1.4304,-0.3578,0.9102,
0.815626,1.0070,-0.2249,-0.7043,0.4556,0.6526,-4.4471,1.4304,-0.3578,0.9102,
0.817832,1.0622,-0.2813,-0.5412,0.4556,0.6526,-4.4471,1.4304,-0.3578,0.9102,
0.823339,1.0776,-0.3072,-0.4153,0.4556,0.6526,-4.4471,1.4304,-0.3578,0.9102,
0.829907,1.0048,-0.3050,-0.3406,0.4556,0.6526,-4.4471,1.4304,-0.3578,0.9102,
0.833279,0.8792,-0.3233,-0.3088,0.4556,0.6526,-4.4471,1.4304,-0.3578,0.9102,
0.840691,0.7785,-0.3316,-0.1466,0.4556,0.6526,-4.4471,1.4304,-0.3578,0.9102,
0.846741,0.7182,-0.3653,-0.0183,0.4556,0.6526,-4.4471,1.4304,-0.3578,0.9102,
0.848037,0.6669,-0.4291,-0.0518,0.4556,0.6526,-4.4471,1.4304,-0.3578,0.9102,
0.852527,0.6268,-0.4975,-0.2072,0.4556,0.6526,-4.4471,1.4304,-0.3578,0.9102,
0.854084,0.6268,-0.4975,-0.2072,0.4556,0.6526,-4.4471,-0.4604,0.7000,0.9080,
0.854891,0.6268,-0.4975,-0.2072,0.5316,0.8971,-4.2464,-0.4604,0.7000,0.9080,
0.857848,0.5904,-0.5476,-0.2551,0.5316,0.8971,-4.2464,-0.4604,0.7000,0.9080,
0.864977,0.5508,-0.5947,-0.1881,0.5316,0.8971,-4.2464,-0.4604,0.7000,0.9080,
0.867930,0.5225,-0.6399,-0.1063,0.5316,0.8971,-4.2464,-0.4604,0.7000,0.9080,
0.874689,0.4854,-0.6851,0.0261,0.5316,0.8971,-4.2464,-0.4604,0.7000,0.9080,
0.879878,0.4560,-0.7662,0.1634,0.5316,0.8971,-4.2464,-0.4604,0.7000,0.9080,
0.882849,0.4211,-0.8293,0.2741,0.5316,0.8971,-4.2464,-0.4604,0.7000,0.9080,
0.890097,0.3940,-0.8515,0.3784,0.5316,0.8971,-4.2464,-0.4604,0.7000,0.9080,
0.894062,0.3854,-0.8503,0.4625,0.5316,0.8971,-4.2464,-0.4604,0.7000,0.9080,
0.895694,0.3854,-0.8503,0.4625,0.5316,0.8971,-4.2464,-0.4157,0.5317,0.7845,
0.896637,0.3854,-0.8503,0.4625,-1.2104,1.0194,-2.5887,-0.4157,0.5317,0.7845,
0.899485,0.4148,-0.8356,0.4954,-1.2104,1.0194,-2.5887,-0.4157,0.5317,0.7845,
0.902900,0.4790,-0.7858,0.4124,-1.2104,1.0194,-2.5887,-0.4157,0.5317,0.7845,
0.911880,0.6417,-0.7587,0.1629,-1.2104,1.0194,-2.5887,-0.4157,0.5317,0.7845,
0.914083,0.8022,-0.7460,-0.3125,-1.2104,1.0194,-2.5887,-0.4157,0.5317,0.7845,
0.919562,0.8877,-0.6360,-0.5978,-1.2104,1.0194,-2.5887,-0.4157,0.5317,0.7845,
0.924509,0.9378,-0.4995,-0.8868,-1.2104,1.0194,-2.5887,-0.4157,0.5317,0.7845,
0.929614,0.9784,-0.4245,-1.1121,-1.2104,1.0194,-2.5887,-0.4157,0.5317,0.7845,
0.933204,0.9811,-0.4389,-1.0649,-1.2104,1.0194,-2.5887,-0.4157,0.5317,0.7845,
0.934569,0.9811,-0.4389,-1.0649,-1.2104,1.0194,-2.5887,1.0512,-0.3013,1.4481,
0.935590,0.9811,-0.4389,-1.0649,-2.9229,-1.8033,0.7697,1.0512,-0.3013,1.4481,
0.937285,0.9283,-0.4936,-0.8299,-2.9229,-1.8033,0.7697,1.0512,-0.3013,1.4481,
0.944764,0.9334,-0.5197,-0.6635,-2.9229,-1.8033,0.7697,1.0512,-0.3013,1.4481,
0.948638,1.0285,-0.5178,-0.5536,-2.9229,-1.8033,0.7697,1.0512,-0.3013,1.4481,
0.954372,1.1289,-0.4760,-0.4092,-2.9229,-1.8033,0.7697,1.0512,-0.3013,1.4481,
0.958200,1.2073,-0.3995,-0.3516,-2.9229,-1.8033,0.7697,1.0512,-0.3013,1.4481,
0.964950,1.2222,-0.3253,-0.3286,-2.9229,-1.8033,0.7697,1.0512,-0.3013,1.4481,
0.967730,1.1804,-0.2793,-0.2822,-2.9229,-1.8033,0.7697,1.0512,-0.3013,1.4481,
0.974416,1.1179,-0.2876,-0.2414,-2.9229,-1.8033,0.7697,1.0512,-0.3013,1.4481,
0.975902,1.1179,-0.2876,-0.2414,-2.9229,-1.8033,0.7697,1.1577,-1.5541,1.3267,
0.977137,1.1179,-0.2876,-0.2414,-2.3679,-1.1949,0.9734,1.1577,-1.5541,1.3267,
0.978530,0.9957,-0.3443,-0.1979,-2.3679,-1.1949,0.9734,1.1577,-1.5541,1.3267,
0.982900,0.7898,-0.4203,-0.1676,-2.3679,-1.1949,0.9734,1.1577,-1.5541,1.3267,
0.987862,0.6276,-0.4572,-0.1696,-2.3679,-1.1949,0.9734,1.1577,-1.5541,1.3267,
0.993208,0.5941,-0.4218,-0.2133,-2.3679,-1.1949,0.9734,1.1577,-1.5541,1.3267,
0.997149,0.5460,-0.3885,-0.2255,-2.3679,-1.1949,0.9734,1.1577,-1.5541,1.3267,
1.001160,0.5274,-0.3565,-0.2321,-2.3679,-1.1949,0.9734,1.1577,-1.5541,1.3267,
1.008171,0.5428,-0.3223,-0.2118,-2.3679,-1.1949,0.9734,1.1577,-1.5541,1.3267,
1.011736,0.5604,-0.2935,-0.1613,-2.3679,-1.1949,0.9734,1.1577,-1.5541,1.3267,
1.013280,0.5604,-0.2935,-0.1613,-2.3679,-1.1949,0.9734,-0.3976,0.8907,0.7610,
1.015220,0.5604,-0.2935,-0.1613,1.3807,1.8583,-2.6714,-0.3976,0.8907,0.7610,
1.016657,0.5653,-0.3238,-0.1757,1.3807,1.8583,-2.6714,-0.3976,0.8907,0.7610,
1.021127,0.5613,-0.3480,-0.2043,1.3807,1.8583,-2.6714,-0.3976,0.8907,0.7610,
1.026756,0.5745,-0.3216,-0.2353,1.3807,1.8583,-2.6714,-0.3976,0.8907,0.7610,
1.031785,0.5995,-0.3013,-0.1869,1.3807,1.8583,-2.6714,-0.3976,0.8907,0.7610,
1.036327,0.5899,-0.2911,-0.1551,1.3807,1.8583,-2.6714,-0.3976,0.8907,0.7610,
1.041456,0.6151,-0.2891,-0.1405,1.3807,1.8583,-2.6714,-0.3976,0.8907,0.7610,
1.046805,0.6559,-0.3148,-0.0860,1.3807,1.8583,-2.6714,-0.3976,0.8907,0.7610,
1.052282,0.7140,-0.3780,-0.0418,1.3807,1.8583,-2.6714,-0.3976,0.8907,0.7610,
1.054271,0.7140,-0.3780,-0.0418,1.3807,1.8583,-2.6714,0.3151,0.1131,0.5512,
1.055682,0.7140,-0.3780,-0.0418,1.4050,1.9167,-2.5982,0.3151,0.1131,0.5512,
1.057399,0.7375,-0.5327,-0.1073,1.4050,1.9167,-2.5982,0.3151,0.1131,0.5512,
1.062065,0.7485,-0.7670,-0.2917,1.4050,1.9167,-2.5982,0.3151,0.1131,0.5512,
1.068036,0.8081,-0.8557,-0.2624,1.4050,1.9167,-2.5982,0.3151,0.1131,0.5512,
1.077125,0.8557,-0.9070,-0.1202,1.4050,1.9167,-2.5982,0.3151,0.1131,0.5512,
1.078905,0.8526,-0.9888,-0.1036,1.4050,1.9167,-2.5982,0.3151,0.1131,0.5512,
1.081880,0.7988,-1.0513,-0.0994,1.4050,1.9167,-2.5982,0.3151,0.1131,0.5512,
1.087740,0.7284,-1.0851,-0.1163,1.4050,1.9167,-2.5982,0.3151,0.1131,0.5512,
1.091580,0.6796,-1.0772,-0.1300,1.4050,1.9167,-2.5982,0.3151,0.1131,0.5512,
1.093255,0.6796,-1.0772,-0.1300,1.4050,1.9167,-2.5982,0.8136,-0.6720,0.9901,
1.094447,0.6796,-1.0772,-0.1300,-1.9132,2.7898,-0.0822,0.8136,-0.6720,0.9901,
1.096443,0.5955,-1.2006,-0.1297,-1.9132,2.7898,-0.0822,0.8136,-0.6720,0.9901,
1.102808,0.6679,-1.1882,-0.1915,-1.9132,2.7898,-0.0822,0.8136,-0.6720,0.9901,
1.107699,0.6647,-1.1803,-0.1407,-1.9132,2.7898,-0.0822,0.8136,-0.6720,0.9901,
1.112595,0.5428,-1.1992,-0.1793,-1.9132,2.7898,-0.0822,0.8136,-0.6720,0.9901,
1.116352,0.5562,-1.1005,-0.2260,-1.9132,2.7898,-0.0822,0.8136,-0.6720,0.9901,
1.124132,0.5093,-0.9561,-0.2883,-1.9132,2.7898,-0.0822,0.8136,-0.6720,0.9901,
1.126696,0.5328,-0.7899,-0.3218,-1.9132,2.7898,-0.0822,0.8136,-0.6720,0.9901,
1.132850,0.5826,-0.7562,-0.3088,-1.9132,2.7898,-0.0822,0.8136,-0.6720,0.9901,
1.134121,0.5826,-0.7562,-0.3088,-1.9132,2.7898,-0.0822,0.3673,0.0758,1.3725,
1.134949,0.5826,-0.7562,-0.3088,-0.6139,-3.4174,-0.2668,0.3673,0.0758,1.3725,
1.136873,0.5831,-0.7985,-0.3034,-0.6139,-3.4174,-0.2668,0.3673,0.0758,1.3725,
1.143053,0.6708,-0.8913,-0.2768,-0.6139,-3.4174,-0.2668,0.3673,0.0758,1.3725,
1.147487,0.7372,-0.9524,-0.2011,-0.6139,-3.4174,-0.2668,0.3673,0.0758,1.3725,
1.151956,0.7306,-0.9502,-0.1363,-0.6139,-3.4174,-0.2668,0.3673,0.0758,1.3725,
1.157382,0.7077,-0.9612,-0.1063,-0.6139,-3.4174,-0.2668,0.3673,0.0758,1.3725,
1.161845,0.6994,-1.0746,-0.0689,-0.6139,-3.4174,-0.2668,0.3673,0.0758,1.3725,
1.165349,0.6962,-1.1825,-0.0665,-0.6139,-3.4174,-0.2668,0.3673,0.0758,1.3725,
1.171611,0.6933,-1.1967,-0.0652,-0.6139,-3.4174,-0.2668,0.3673,0.0758,1.3725,
1.172904,0.6933,-1.1967,-0.0652,-0.1522,-2.7485,-0.4310,0.3673,0.0758,1.3725,
1.173762,0.6933,-1.1967,-0.0652,-0.1522,-2.7485,-0.4310,1.2578,-0.5708,1.5088,
1.177443,0.6710,-1.1588,-0.0919,-0.1522,-2.7485,-0.4310,1.2578,-0.5708,1.5088,
1.182806,0.6109,-1.0975,-0.1068,-0.1522,-2.7485,-0.4310,1.2578,-0.5708,1.5088,
1.185623,0.5816,-1.0555,0.0288,-0.1522,-2.7485,-0.4310,1.2578,-0.5708,1.5088,
1.191329,0.6874,-0.9873,-0.0943,-0.1522,-2.7485,-0.4310,1.2578,-0.5708,1.5088,
1.196711,0.6957,-0.9221,-0.2341,-0.1522,-2.7485,-0.4310,1.2578,-0.5708,1.5088,
1.200491,0.5032,-0.9118,-0.0792,-0.1522,-2.7485,-0.4310,1.2578,-0.5708,1.5088,
1.204634,0.5188,-0.8784,-0.0113,-0.1522,-2.7485,-0.4310,1.2578,-0.5708,1.5088,
1.210328,0.5066,-0.8537,0.0156,-0.1522,-2.7485,-0.4310,1.2578,-0.5708,1.5088,
1.211887,0.5066,-0.8537,0.0156,-0.1522,-2.7485,-0.4310,1.1907,-0.0925,0.9283,
1.213204,0.5066,-0.8537,0.0156,-0.2381,-1.8168,-0.5425,1.1907,-0.0925,0.9283,
1.214668,0.5242,-0.8432,0.0388,-0.2381,-1.8168,-0.5425,1.1907,-0.0925,0.9283,
1.219708,0.5357,-0.8332,0.0725,-0.2381,-1.8168,-0.5425,1.1907,-0.0925,0.9283,
1.225002,0.5308,-0.8271,0.0923,-0.2381,-1.8168,-0.5425,1.1907,-0.0925,0.9283,
1.229485,0.5384,-0.8293,0.0762,-0.2381,-1.8168,-0.5425,1.1907,-0.0925,0.9283,
1.237198,0.5310,-0.8354,0.0186,-0.2381,-1.8168,-0.5425,1.1907,-0.0925,0.9283,
1.241897,0.4968,-0.8684,0.0669,-0.2381,-1.8168,-0.5425,1.1907,-0.0925,0.9283,
1.246381,0.5530,-0.8947,0.0606,-0.2381,-1.8168,-0.5425,1.1907,-0.0925,0.9283,
1.251606,0.5804,-0.9380,0.0664,-0.2381,-1.8168,-0.5425,1.1907,-0.0925,0.9283,
1.253059,0.5804,-0.9380,0.0664,-1.1398,-0.6457,0.6376,1.1907,-0.0925,0.9283,
1.253976,0.5804,-0.9380,0.0664,-1.1398,-0.6457,0.6376,0.2607,1.1315,0.1453,
1.257794,0.5970,-1.0049,0.1434,-1.1398,-0.6457,0.6376,0.2607,1.1315,0.1453,
1.260219,0.4988,-1.0147,0.1488,-1.1398,-0.6457,0.6376,0.2607,1.1315,0.1453,
1.271894,0.3857,-0.9988,0.0398,-1.1398,-0.6457,0.6376,0.2607,1.1315,0.1453,
1.273331,0.4727,-0.9575,-0.0750,-1.1398,-0.6457,0.6376,0.2607,1.1315,0.1453,
1.274454,0.5342,-0.8789,-0.1317,-1.1398,-0.6457,0.6376,0.2607,1.1315,0.1453,
1.282962,0.6112,-0.7340,-0.2512,-1.1398,-0.6457,0.6376,0.2607,1.1315,0.1453,
1.286128,0.6122,-0.6023,-0.3582,-1.1398,-0.6457,0.6376,0.2607,1.1315,0.1453,
1.291408,0.5628,-0.5532,-0.3657,-1.1398,-0.6457,0.6376,0.2607,1.1315,0.1453,
1.293385,0.5628,-0.5532,-0.3657,-1.1398,-0.6457,0.6376,0.1297,1.6439,-0.6728,
1.294655,0.5628,-0.5532,-0.3657,-1.2992,-0.7789,0.1536,0.1297,1.6439,-0.6728,
1.295849,0.5555,-0.4919,-0.3828,-1.2992,-0.7789,0.1536,0.1297,1.6439,-0.6728,
1.301079,0.5376,-0.4037,-0.3589,-1.2992,-0.7789,0.1536,0.1297,1.6439,-0.6728,
1.304862,0.5350,-0.3626,-0.2968,-1.2992,-0.7789,0.1536,0.1297,1.6439,-0.6728,
1.311179,0.5208,-0.3695,-0.2221,-1.2992,-0.7789,0.1536,0.1297,1.6439,-0.6728,
1.313798,0.4597,-0.3986,-0.1180,-1.2992,-0.7789,0.1536,0.1297,1.6439,-0.6728,
1.320115,0.4052,-0.4472,-0.0059,-1.2992,-0.7789,0.1536,0.1297,1.6439,-0.6728,
1.324113,0.4030,-0.4623,0.0420,-1.2992,-0.7789,0.1536,0.1297,1.6439,-0.6728,
1.329244,0.4475,-0.4516,0.0598,-1.2992,-0.7789,0.1536,0.1297,1.6439,-0.6728,
1.330539,0.4475,-0.4516,0.0598,-1.2992,-0.7789,0.1536,0.6208,1.5618,-0.8774,
1.331373,0.4475,-0.4516,0.0598,-1.7054,0.9268,-2.0971,0.6208,1.5618,-0.8774,
1.333456,0.4946,-0.4599,0.0405,-1.7054,0.9268,-2.0971,0.6208,1.5618,-0.8774,
1.338294,0.5091,-0.4623,0.0532,-1.7054,0.9268,-2.0971,0.6208,1.5618,-0.8774,
1.343263,0.5049,-0.4220,0.0911,-1.7054,0.9268,-2.0971,0.6208,1.5618,-0.8774,
1.348042,0.5357,-0.3272,0.0598,-1.7054,0.9268,-2.0971,0.6208,1.5618,-0.8774,
1.352728,0.5924,-0.1977,0.0193,-1.7054,0.9268,-2.0971,0.6208,1.5618,-0.8774,
1.361141,0.6962,-0.0907,-0.0252,-1.7054,0.9268,-2.0971,0.6208,1.5618,-0.8774,
1.364403,0.7634,-0.0365,-0.0406,-1.7054,0.9268,-2.0971,0.6208,1.5618,-0.8774,
1.370334,0.7492,-0.0301,0.0090,-1.7054,0.9268,-2.0971,0.6208,1.5618,-0.8774,
1.371912,0.7492,-0.0301,0.0090,-1.7054,0.9268,-2.0971,1.0064,0.0662,-0.3863,
1.372850,0.7492,-0.0301,0.0090,-1.7289,0.7562,-2.2918,1.0064,0.0662,-0.3863,
1.376139,0.6901,-0.0595,-0.0523,-1.7289,0.7562,-2.2918,1.0064,0.0662,-0.3863,
1.382036,0.6835,-0.1306,-0.1048,-1.7289,0.7562,-2.2918,1.0064,0.0662,-0.3863,
1.385121,0.6982,-0.2253,0.0535,-1.7289,0.7562,-2.2918,1.0064,0.0662,-0.3863,
1.387541,0.6894,-0.2977,0.1209,-1.7289,0.7562,-2.2918,1.0064,0.0662,-0.3863,
1.393801,0.6227,-0.2532,0.0540,-1.7289,0.7562,-2.2918,1.0064,0.0662,-0.3863,
1.398876,0.5836,-0.1736,0.0567,-1.7289,0.7562,-2.2918,1.0064,0.0662,-0.3863,
1.402788,0.5450,-0.2608,0.0046,-1.7289,0.7562,-2.2918,1.0064,0.0662,-0.3863,
1.407989,0.5411,-0.3451,0.0134,-1.7289,0.7562,-2.2918,1.0064,0.0662,-0.3863,
1.409575,0.5411,-0.3451,0.0134,-1.7289,0.7562,-2.2918,0.4749,-0.2470,0.3200,
1.411469,0.5411,-0.3451,0.0134,-1.1387,4.5196,-0.5459,0.4749,-0.2470,0.3200,
1.414262,0.4819,-0.4547,-0.1234,-1.1387,4.5196,-0.5459,0.4749,-0.2470,0.3200,
1.417061,0.4788,-0.4203,-0.0662,-1.1387,4.5196,-0.5459,0.4749,-0.2470,0.3200,
1.424603,0.4788,-0.4799,0.1138,-1.1387,4.5196,-0.5459,0.4749,-0.2470,0.3200,
1.428143,0.4646,-0.4188,0.1629,-1.1387,4.5196,-0.5459,0.4749,-0.2470,0.3200,
1.432503,0.4612,-0.6199,0.0972,-1.1387,4.5196,-0.5459,0.4749,-0.2470,0.3200,
1.441916,0.3972,-0.6839,-0.0655,-1.1387,4.5196,-0.5459,0.4749,-0.2470,0.3200,
1.444204,0.4152,-0.6587,-0.0418,-1.1387,4.5196,-0.5459,0.4749,-0.2470,0.3200,
1.449979,0.4385,-0.6717,-0.1652,-1.1387,4.5196,-0.5459,0.4749,-0.2470,0.3200,
1.451505,0.4385,-0.6717,-0.1652,-1.1387,4.5196,-0.5459,-0.4051,-0.0424,0.3498,
1.452878,0.4385,-0.6717,-0.1652,-1.4360,3.1786,-0.2301,-0.4051,-0.0424,0.3498,
1.454123,0.5030,-0.6350,-0.1346,-1.4360,3.1786,-0.2301,-0.4051,-0.0424,0.3498,
1.458846,0.5418,-0.4213,-0.0941,-1.4360,3.1786,-0.2301,-0.4051,-0.0424,0.3498,
1.464001,0.6070,-0.3534,0.1002,-1.4360,3.1786,-0.2301,-0.4051,-0.0424,0.3498,
1.469814,0.6148,-0.7912,0.0335,-1.4360,3.1786,-0.2301,-0.4051,-0.0424,0.3498,
1.474866,0.5337,-1.1613,-0.2003,-1.4360,3.1786,-0.2301,-0.4051,-0.0424,0.3498,
1.478351,0.5130,-1.2639,-0.0364,-1.4360,3.1786,-0.2301,-0.4051,-0.0424,0.3498,
1.482591,0.4365,-1.4417,0.0408,-1.4360,3.1786,-0.2301,-0.4051,-0.0424,0.3498,
1.487845,0.1626,-1.6616,-0.0755,-1.4360,3.1786,-0.2301,-0.4051,-0.0424,0.3498,
1.489429,0.1626,-1.6616,-0.0755,-1.4360,3.1786,-0.2301,-0.7608,-0.4334,0.4350,
1.490576,0.1626,-1.6616,-0.0755,-1.2574,3.1521,0.0956,-0.7608,-0.4334,0.4350,
1.494567,0.1577,-1.8546,0.0618,-1.2574,3.1521,0.0956,-0.7608,-0.4334,0.4350,
1.497968,0.5589,-2.2201,0.3293,-1.2574,3.1521,0.0956,-0.7608,-0.4334,0.4350,
1.502123,0.9632,-2.6188,0.4178,-1.2574,3.1521,0.0956,-0.7608,-0.4334,0.4350,
1.508952,0.5147,-2.3310,0.0872,-1.2574,3.1521,0.0956,-0.7608,-0.4334,0.4350,
1.513125,0.3339,-1.7371,0.0540,-1.2574,3.1521,0.0956,-0.7608,-0.4334,0.4350,
1.518889,0.6363,-1.4334,0.0691,-1.2574,3.1521,0.0956,-0.7608,-0.4334,0.4350,
1.525529,0.8340,-1.1742,0.0190,-1.2574,3.1521,0.0956,-0.7608,-0.4334,0.4350,
1.530683,0.8340,-1.1742,0.0190,-1.2255,-5.5557,0.3484,-0.7608,-0.4334,0.4350,
1.532306,0.8838,-1.0061,-0.0218,-1.2255,-5.5557,0.3484,-0.7608,-0.4334,0.4350,
1.533584,0.8838,-1.0061,-0.0218,-1.2255,-5.5557,0.3484,-0.3411,-0.7306,0.7408,
1.534595,0.8259,-0.9526,-0.0215,-1.2255,-5.5557,0.3484,-0.3411,-0.7306,0.7408,
1.538462,0.6544,-1.0750,0.0171,-1.2255,-5.5557,0.3484,-0.3411,-0.7306,0.7408,
1.542489,0.5032,-1.1459,-0.0166,-1.2255,-5.5557,0.3484,-0.3411,-0.7306,0.7408,
1.549144,0.4372,-1.1202,-0.0440,-1.2255,-5.5557,0.3484,-0.3411,-0.7306,0.7408,
1.551671,0.3556,-1.1156,-0.0699,-1.2255,-5.5557,0.3484,-0.3411,-0.7306,0.7408,
1.558651,0.2946,-1.1200,-0.0936,-1.2255,-5.5557,0.3484,-0.3411,-0.7306,0.7408,
1.561961,0.3024,-1.1141,-0.1808,-1.2255,-5.5557,0.3484,-0.3411,-0.7306,0.7408,
1.567424,0.4011,-1.0731,-0.2079,-1.2255,-5.5557,0.3484,-0.3411,-0.7306,0.7408,
1.568642,0.4011,-1.0731,-0.2079,-1.2255,-5.5557,0.3484,0.1499,-0.2235,1.9882,
1.569516,0.4011,-1.0731,-0.2079,-0.5826,-4.8725,0.3391,0.1499,-0.2235,1.9882,
1.571885,0.5015,-1.0189,-0.2338,-0.5826,-4.8725,0.3391,0.1499,-0.2235,1.9882,
1.577732,0.5381,-0.9705,-0.2856,-0.5826,-4.8725,0.3391,0.1499,-0.2235,1.9882,
1.582577,0.4900,-0.9050,-0.3291,-0.5826,-4.8725,0.3391,0.1499,-0.2235,1.9882,
1.585309,0.4492,-0.8965,0.0601,-0.5826,-4.8725,0.3391,0.1499,-0.2235,1.9882,
1.595383,0.4827,-0.8803,0.1258,-0.5826,-4.8725,0.3391,0.1499,-0.2235,1.9882,
1.596884,0.5056,-0.8987,0.0479,-0.5826,-4.8725,0.3391,0.1499,-0.2235,1.9882,
1.601813,0.4788,-0.8972,0.0559,-0.5826,-4.8725,0.3391,0.1499,-0.2235,1.9882,
1.605214,0.4236,-0.8601,0.0716,-0.5826,-4.8725,0.3391,0.1499,-0.2235,1.9882,
1.606455,0.4236,-0.8601,0.0716,-0.5826,-4.8725,0.3391,0.2629,-1.0971,1.7134,
1.607945,0.4236,-0.8601,0.0716,0.2992,-2.6378,-0.3345,0.2629,-1.0971,1.7134,
1.611185,0.3786,-0.8175,-0.0127,0.2992,-2.6378,-0.3345,0.2629,-1.0971,1.7134,
1.616696,0.3437,-0.7968,-0.0899,0.2992,-2.6378,-0.3345,0.2629,-1.0971,1.7134,
1.620222,0.3581,-0.7719,-0.1141,0.2992,-2.6378,-0.3345,0.2629,-1.0971,1.7134,
1.625177,0.3696,-0.7482,-0.1617,0.2992,-2.6378,-0.3345,0.2629,-1.0971,1.7134,
1.629998,0.3175,-0.8283,-0.2021,0.2992,-2.6378,-0.3345,0.2629,-1.0971,1.7134,
1.634681,0.2792,-0.9866,-0.2895,0.2992,-2.6378,-0.3345,0.2629,-1.0971,1.7134,
1.641641,0.3056,-1.0987,-0.2956,0.2992,-2.6378,-0.3345,0.2629,-1.0971,1.7134,
1.647162,0.4099,-1.2145,-0.2184,0.2992,-2.6378,-0.3345,0.2629,-1.0971,1.7134,
1.648570,0.4099,-1.2145,-0.2184,0.2992,-2.6378,-0.3345,0.3172,-2.3754,0.5405,
1.649626,0.4099,-1.2145,-0.2184,-0.6184,0.3430,-0.2780,0.3172,-2.3754,0.5405,
1.652548,0.5354,-1.2233,-0.3858,-0.6184,0.3430,-0.2780,0.3172,-2.3754,0.5405,
1.654960,0.5990,-1.1869,-0.4026,-0.6184,0.3430,-0.2780,0.3172,-2.3754,0.5405,
1.660433,0.6227,-1.1777,-0.3242,-0.6184,0.3430,-0.2780,0.3172,-2.3754,0.5405,
1.664280,0.6488,-1.1767,-0.2409,-0.6184,0.3430,-0.2780,0.3172,-2.3754,0.5405,
1.669471,0.6688,-1.1759,-0.1512,-0.6184,0.3430,-0.2780,0.3172,-2.3754,0.5405,
1.675233,0.6048,-1.1522,-0.0643,-0.6184,0.3430,-0.2780,0.3172,-2.3754,0.5405,
1.680198,0.4541,-1.1088,-0.0374,-0.6184,0.3430,-0.2780,0.3172,-2.3754,0.5405,
1.686770,0.3537,-1.0533,-0.0435,-0.6184,0.3430,-0.2780,0.3172,-2.3754,0.5405,
1.688054,0.3537,-1.0533,-0.0435,-0.6184,0.3430,-0.2780,0.0807,-0.2736,0.2380,
1.688917,0.3537,-1.0533,-0.0435,-0.5074,0.3732,-0.2451,0.0807,-0.2736,0.2380,
1.692637,0.3319,-0.9964,-0.0496,-0.5074,0.3732,-0.2451,0.0807,-0.2736,0.2380,
1.698700,0.3293,-0.9451,-0.0445,-0.5074,0.3732,-0.2451,0.0807,-0.2736,0.2380,
1.700944,0.3153,-0.8987,-0.0320,-0.5074,0.3732,-0.2451,0.0807,-0.2736,0.2380,
1.708296,0.2994,-0.8659,-0.0156,-0.5074,0.3732,-0.2451,0.0807,-0.2736,0.2380,
1.711315,0.2843,-0.8305,0.0166,-0.5074,0.3732,-0.2451,0.0807,-0.2736,0.2380,
1.714474,0.2772,-0.8070,0.0718,-0.5074,0.3732,-0.2451,0.0807,-0.2736,0.2380,
1.720797,0.2740,-0.8119,0.0625,-0.5074,0.3732,-0.2451,0.0807,-0.2736,0.2380,
1.730469,0.2985,-0.8163,0.0386,-0.5074,0.3732,-0.2451,0.0807,-0.2736,0.2380,
1.731885,0.2985,-0.8163,0.0386,-0.5074,0.3732,-0.2451,-0.3667,0.8503,-0.0369,
1.732864,0.2985,-0.8163,0.0386,0.0348,-1.9398,-1.1065,-0.3667,0.8503,-0.0369,
1.733790,0.3417,-0.8083,-0.0000,0.0348,-1.9398,-1.1065,-0.3667,0.8503,-0.0369,
1.735678,0.3688,-0.8107,-0.0340,0.0348,-1.9398,-1.1065,-0.3667,0.8503,-0.0369,
1.743162,0.3779,-0.7978,-0.0503,0.0348,-1.9398,-1.1065,-0.3667,0.8503,-0.0369,
1.744538,0.3749,-0.6060,-0.0328,0.0348,-1.9398,-1.1065,-0.3667,0.8503,-0.0369,
1.753346,0.1880,-0.1501,-0.0762,0.0348,-1.9398,-1.1065,-0.3667,0.8503,-0.0369,
1.755452,-0.0714,-0.0499,-0.2614,0.0348,-1.9398,-1.1065,-0.3667,0.8503,-0.0369,
1.762011,-0.0648,-0.1985,-0.0149,0.0348,-1.9398,-1.1065,-0.3667,0.8503,-0.0369,
1.764920,0.1463,-0.3656,0.2353,0.0348,-1.9398,-1.1065,-0.3667,0.8503,-0.0369,
1.766269,0.1463,-0.3656,0.2353,0.0348,-1.9398,-1.1065,-0.0333,0.3954,-0.2318,
1.767153,0.1463,-0.3656,0.2353,-2.2933,2.8010,0.4940,-0.0333,0.3954,-0.2318,
1.771434,0.1810,-0.3795,0.1661,-2.2933,2.8010,0.4940,-0.0333,0.3954,-0.2318,
1.776366,0.1595,-0.3065,-0.0244,-2.2933,2.8010,0.4940,-0.0333,0.3954,-0.2318,
1.779981,0.1316,-0.2603,-0.0782,-2.2933,2.8010,0.4940,-0.0333,0.3954,-0.2318,
1.784917,0.1165,-0.2263,-0.0743,-2.2933,2.8010,0.4940,-0.0333,0.3954,-0.2318,
1.791240,0.1272,-0.1714,-0.1231,-2.2933,2.8010,0.4940,-0.0333,0.3954,-0.2318,
1.793358,0.1546,-0.1240,-0.1593,-2.2933,2.8010,0.4940,-0.0333,0.3954,-0.2318,
1.799439,0.1824,-0.0973,-0.1979,-2.2933,2.8010,0.4940,-0.0333,0.3954,-0.2318,
1.804997,0.1951,-0.0978,-0.1996,-2.2933,2.8010,0.4940,-0.0333,0.3954,-0.2318,
1.805782,0.1951,-0.0978,-0.1996,-2.2933,2.8010,0.4940,0.1755,0.2590,0.7088,
1.807416,0.1951,-0.0978,-0.1996,-1.9743,2.8223,0.3717,0.1755,0.2590,0.7088,
1.810100,0.2022,-0.1098,-0.1561,-1.9743,2.8223,0.3717,0.1755,0.2590,0.7088,
1.814411,0.2132,-0.0949,-0.1434,-1.9743,2.8223,0.3717,0.1755,0.2590,0.7088,
1.818490,0.2469,-0.0885,-0.1146,-1.9743,2.8223,0.3717,0.1755,0.2590,0.7088,
1.824780,0.2787,-0.1430,-0.0535,-1.9743,2.8223,0.3717,0.1755,0.2590,0.7088,
1.828333,0.2748,-0.2842,0.0435,-1.9743,2.8223,0.3717,0.1755,0.2590,0.7088,
1.832569,0.2242,-0.4616,0.0852,-1.9743,2.8223,0.3717,0.1755,0.2590,0.7088,
1.837998,0.1822,-0.7022,0.1453,-1.9743,2.8223,0.3717,0.1755,0.2590,0.7088,
1.844952,0.1839,-0.9082,0.2279,-1.9743,2.8223,0.3717,0.1755,0.2590,0.7088,
1.845827,0.1839,-0.9082,0.2279,-1.9743,2.8223,0.3717,0.3502,0.0620,1.5877,
1.846588,0.1839,-0.9082,0.2279,-1.8224,6.9940,-0.5374,0.3502,0.0620,1.5877,
1.848825,0.1477,-0.9092,-0.0113,-1.8224,6.9940,-0.5374,0.3502,0.0620,1.5877,
1.854454,0.1470,-1.0526,-0.1112,-1.8224,6.9940,-0.5374,0.3502,0.0620,1.5877,
1.862765,0.0940,-1.2869,-0.0127,-1.8224,6.9940,-0.5374,0.3502,0.0620,1.5877,
1.864414,0.0090,-1.5463,0.3613,-1.8224,6.9940,-0.5374,0.3502,0.0620,1.5877,
1.869799,-0.0863,-1.3027,-0.2917,-1.8224,6.9940,-0.5374,0.3502,0.0620,1.5877,
1.874790,-0.0326,-1.5453,0.0210,-1.8224,6.9940,-0.5374,0.3502,0.0620,1.5877,
1.879244,-0.0748,-1.6650,0.2247,-1.8224,6.9940,-0.5374,0.3502,0.0620,1.5877,
1.884275,-0.1017,-1.6279,0.0569,-1.8224,6.9940,-0.5374,0.3502,0.0620,1.5877,
1.885259,-0.1017,-1.6279,0.0569,-1.8224,6.9940,-0.5374,0.3332,0.2814,1.4321,
1.885958,-0.1017,-1.6279,0.0569,-1.2729,6.9349,-0.6679,0.3332,0.2814,1.4321,
1.888327,-0.1364,-1.5878,0.0205,-1.2729,6.9349,-0.6679,0.3332,0.2814,1.4321,
1.895587,-0.1283,-1.5783,-0.0672,-1.2729,6.9349,-0.6679,0.3332,0.2814,1.4321,
1.899250,0.0784,-1.8199,-0.0328,-1.2729,6.9349,-0.6679,0.3332,0.2814,1.4321,
1.903927,0.4800,-2.3994,-0.0296,-1.2729,6.9349,-0.6679,0.3332,0.2814,1.4321,
1.908876,0.8721,-2.9484,-0.1935,-1.2729,6.9349,-0.6679,0.3332,0.2814,1.4321,
1.913917,1.2048,-3.2408,-0.2143,-1.2729,6.9349,-0.6679,0.3332,0.2814,1.4321,
1.917724,1.3575,-3.0278,-0.1815,-1.2729,6.9349,-0.6679,0.3332,0.2814,1.4321,
1.924823,1.3062,-2.3071,-0.2397,-1.2729,6.9349,-0.6679,0.3332,0.2814,1.4321,
1.925934,1.3062,-2.3071,-0.2397,-1.2729,6.9349,-0.6679,0.4024,1.0484,2.5826,
1.926993,1.3062,-2.3071,-0.2397,-1.8354,-3.0763,0.3958,0.4024,1.0484,2.5826,
1.929044,1.0270,-1.4166,-0.2780,-1.8354,-3.0763,0.3958,0.4024,1.0484,2.5826,
1.933554,1.0092,-1.2893,0.1891,-1.8354,-3.0763,0.3958,0.4024,1.0484,2.5826,
1.938800,1.1105,-1.5827,0.7024,-1.8354,-3.0763,0.3958,0.4024,1.0484,2.5826,
1.945169,0.7964,-1.5067,0.6892,-1.8354,-3.0763,0.3958,0.4024,1.0484,2.5826,
1.948625,0.5452,-1.4581,0.4485,-1.8354,-3.0763,0.3958,0.4024,1.0484,2.5826,
1.953819,0.4338,-1.4425,0.1805,-1.8354,-3.0763,0.3958,0.4024,1.0484,2.5826,
1.959191,0.3427,-1.4317,-0.0269,-1.8354,-3.0763,0.3958,0.4024,1.0484,2.5826,
1.962581,0.2315,-1.2451,-0.2155,-1.8354,-3.0763,0.3958,0.4024,1.0484,2.5826,
1.963583,0.2315,-1.2451,-0.2155,-1.8354,-3.0763,0.3958,0.0253,0.3666,1.7102,
1.964392,0.2315,-1.2451,-0.2155,6.2156,-9.9192,0.6126,0.0253,0.3666,1.7102,
1.969464,0.1213,-0.9392,-0.3921,6.2156,-9.9192,0.6126,0.0253,0.3666,1.7102,
1.971942,0.0918,-0.7093,-0.4400,6.2156,-9.9192,0.6126,0.0253,0.3666,1.7102,
1.978340,0.0911,-0.5532,-0.3858,6.2156,-9.9192,0.6126,0.0253,0.3666,1.7102,
1.983534,0.0603,-0.4765,-0.3081,6.2156,-9.9192,0.6126,0.0253,0.3666,1.7102,
1.988345,0.0510,-0.4848,-0.2653,6.2156,-9.9192,0.6126,0.0253,0.3666,1.7102,
1.995846,0.0136,-0.4853,-0.2035,6.2156,-9.9192,0.6126,0.0253,0.3666,1.7102,
1.997630,0.0048,-0.5183,-0.0897,6.2156,-9.9192,0.6126,0.0253,0.3666,1.7102,
2.002820,-0.1706,-0.7286,0.1143,6.2156,-9.9192,0.6126,0.0253,0.3666,1.7102,
2.003707,-0.1706,-0.7286,0.1143,6.2156,-9.9192,0.6126,0.7231,0.8726,-0.4885,
2.004420,-0.1706,-0.7286,0.1143,5.8398,-9.6318,0.2675,0.7231,0.8726,-0.4885,
2.008241,-0.0739,-0.7721,0.3169,5.8398,-9.6318,0.2675,0.7231,0.8726,-0.4885,
2.012298,0.0478,-0.8872,0.4534,5.8398,-9.6318,0.2675,0.7231,0.8726,-0.4885,
2.016580,-0.0260,-1.0467,0.3953,5.8398,-9.6318,0.2675,0.7231,0.8726,-0.4885,
2.021315,0.0016,-1.0997,0.1522,5.8398,-9.6318,0.2675,0.7231,0.8726,-0.4885,
2.028268,0.1428,-1.0890,-0.0511,5.8398,-9.6318,0.2675,0.7231,0.8726,-0.4885,
2.031028,0.2909,-1.0741,-0.1784,5.8398,-9.6318,0.2675,0.7231,0.8726,-0.4885,
2.036296,0.3510,-1.0775,-0.2297,5.8398,-9.6318,0.2675,0.7231,0.8726,-0.4885,
2.041479,0.3354,-1.0880,-0.2336,5.8398,-9.6318,0.2675,0.7231,0.8726,-0.4885,
2.042554,0.3354,-1.0880,-0.2336,5.8398,-9.6318,0.2675,0.2373,0.4966,0.0238,
2.043395,0.3354,-1.0880,-0.2336,-1.7110,2.2936,-1.2441,0.2373,0.4966,0.0238,
2.048143,0.3024,-1.0992,-0.2380,-1.7110,2.2936,-1.2441,0.2373,0.4966,0.0238,
2.053210,0.2821,-1.0970,-0.2556,-1.7110,2.2936,-1.2441,0.2373,0.4966,0.0238,
2.059749,0.2660,-1.0848,-0.2614,-1.7110,2.2936,-1.2441,0.2373,0.4966,0.0238,
2.062848,0.2591,-1.0775,-0.2546,-1.7110,2.2936,-1.2441,0.2373,0.4966,0.0238,
2.066859,0.2494,-1.0733,-0.2348,-1.7110,2.2936,-1.2441,0.2373,0.4966,0.0238,
2.071963,0.2459,-1.0660,-0.2013,-1.7110,2.2936,-1.2441,0.2373,0.4966,0.0238,
2.077456,0.2386,-1.0523,-0.1671,-1.7110,2.2936,-1.2441,0.2373,0.4966,0.0238,
2.080687,0.2374,-1.0411,-0.1300,-1.7110,2.2936,-1.2441,0.2373,0.4966,0.0238,
2.081331,0.2374,-1.0411,-0.1300,-1.7110,2.2936,-1.2441,0.1862,0.0865,0.4329,
2.081805,0.2374,-1.0411,-0.1300,-1.4910,2.2476,-1.2807,0.1862,0.0865,0.4329,
2.085651,0.2472,-1.0259,-0.0941,-1.4910,2.2476,-1.2807,0.1862,0.0865,0.4329,
2.091532,0.2567,-1.0110,-0.0714,-1.4910,2.2476,-1.2807,0.1862,0.0865,0.4329,
2.095897,0.2728,-0.9927,-0.0567,-1.4910,2.2476,-1.2807,0.1862,0.0865,0.4329,
2.100622,0.2875,-0.9766,-0.0533,-1.4910,2.2476,-1.2807,0.1862,0.0865,0.4329,
2.105354,0.3019,-0.9688,-0.0613,-1.4910,2.2476,-1.2807,0.1862,0.0865,0.4329,
2.118854,0.3143,-0.9624,-0.0755,-1.4910,2.2476,-1.2807,0.1862,0.0865,0.4329,
2.120214,0.3341,-0.9610,-0.1016,-1.4910,2.2476,-1.2807,0.1862,0.0865,0.4329,
2.121291,0.3544,-0.9641,-0.1358,-1.4910,2.2476,-1.2807,0.1862,0.0865,0.4329,
2.122022,0.3544,-0.9641,-0.1358,-1.4910,2.2476,-1.2807,-0.3635,0.3570,0.3008,
2.122993,0.3544,-0.9641,-0.1358,0.8698,-0.7153,-2.3419,-0.3635,0.3570,0.3008,
2.128361,0.3705,-0.9710,-0.1661,0.8698,-0.7153,-2.3419,-0.3635,0.3570,0.3008,
2.130910,0.3879,-0.9798,-0.1935,0.8698,-0.7153,-2.3419,-0.3635,0.3570,0.3008,
2.138168,0.4001,-0.9905,-0.2074,0.8698,-0.7153,-2.3419,-0.3635,0.3570,0.3008,
2.141338,0.4028,-1.0083,-0.2096,0.8698,-0.7153,-2.3419,-0.3635,0.3570,0.3008,
2.148458,0.3964,-1.0286,-0.1832,0.8698,-0.7153,-2.3419,-0.3635,0.3570,0.3008,
2.151541,0.3937,-1.0526,-0.1503,0.8698,-0.7153,-2.3419,-0.3635,0.3570,0.3008,
2.157344,0.3908,-1.0733,-0.1271,0.8698,-0.7153,-2.3419,-0.3635,0.3570,0.3008,
2.162911,0.3906,-1.0860,-0.1004,0.8698,-0.7153,-2.3419,-0.3635,0.3570,0.3008,
2.164813,0.3906,-1.0860,-0.1004,0.8698,-0.7153,-2.3419,-0.7033,0.2590,0.2241,
2.166356,0.3906,-1.0860,-0.1004,1.6805,0.1175,-1.3911,-0.7033,0.2590,0.2241,
2.168239,0.3896,-1.0934,-0.0679,1.6805,0.1175,-1.3911,-0.7033,0.2590,0.2241,
2.171151,0.3730,-1.1056,-0.0413,1.6805,0.1175,-1.3911,-0.7033,0.2590,0.2241,
2.177190,0.3534,-1.1073,-0.0310,1.6805,0.1175,-1.3911,-0.7033,0.2590,0.2241,
2.182152,0.3358,-1.1058,-0.0174,1.6805,0.1175,-1.3911,-0.7033,0.2590,0.2241,
2.185413,0.3241,-1.0983,-0.0156,1.6805,0.1175,-1.3911,-0.7033,0.2590,0.2241,
2.195013,0.3129,-1.0897,-0.0149,1.6805,0.1175,-1.3911,-0.7033,0.2590,0.2241,
2.199255,0.3038,-1.0812,-0.0086,1.6805,0.1175,-1.3911,-0.7033,0.2590,0.2241,
2.201488,0.3043,-1.0697,0.0061,1.6805,0.1175,-1.3911,-0.7033,0.2590,0.2241,
2.202728,0.3043,-1.0697,0.0061,1.6805,0.1175,-1.3911,-1.1262,-0.4771,0.2081,
2.204773,0.3043,-1.0697,0.0061,1.7108,0.1230,-0.8939,-1.1262,-0.4771,0.2081,
2.209684,0.3053,-1.0560,0.0261,1.7108,0.1230,-0.8939,-1.1262,-0.4771,0.2081,
2.211085,0.3007,-1.0445,0.0515,1.7108,0.1230,-0.8939,-1.1262,-0.4771,0.2081,
2.218430,0.2855,-1.0281,0.0728,1.7108,0.1230,-0.8939,-1.1262,-0.4771,0.2081,
2.220697,0.2589,-1.0088,0.0989,1.7108,0.1230,-0.8939,-1.1262,-0.4771,0.2081,
2.224579,0.2174,-0.9883,0.1241,1.7108,0.1230,-0.8939,-1.1262,-0.4771,0.2081,
2.229687,0.1741,-0.9671,0.1319,1.7108,0.1230,-0.8939,-1.1262,-0.4771,0.2081,
2.233983,0.1262,-0.9563,0.1126,1.7108,0.1230,-0.8939,-1.1262,-0.4771,0.2081,
2.240666,0.0542,-0.9509,0.0936,1.7108,0.1230,-0.8939,-1.1262,-0.4771,0.2081,
2.241530,0.0542,-0.9509,0.0936,1.7108,0.1230,-0.8939,-1.4746,-1.5274,0.0228,
2.242175,0.0542,-0.9509,0.0936,1.6358,-0.7757,0.8077,-1.4746,-1.5274,0.0228,
2.245971,-0.0247,-0.9583,0.0640,1.6358,-0.7757,0.8077,-1.4746,-1.5274,0.0228,
2.251165,-0.0910,-0.9634,0.0259,1.6358,-0.7757,0.8077,-1.4746,-1.5274,0.0228,
2.255796,-0.1376,-0.9622,-0.0110,1.6358,-0.7757,0.8077,-1.4746,-1.5274,0.0228,
2.260774,-0.1782,-0.9592,-0.0362,1.6358,-0.7757,0.8077,-1.4746,-1.5274,0.0228,
2.265934,-0.2204,-0.9697,-0.0569,1.6358,-0.7757,0.8077,-1.4746,-1.5274,0.0228,
2.270617,-0.2361,-0.9751,-0.0271,1.6358,-0.7757,0.8077,-1.4746,-1.5274,0.0228,
2.275716,-0.2537,-0.9922,0.0105,1.6358,-0.7757,0.8077,-1.4746,-1.5274,0.0228,
2.280946,-0.2656,-1.0098,0.0249,1.6358,-0.7757,0.8077,-1.4746,-1.5274,0.0228,
2.281770,-0.2656,-1.0098,0.0249,1.6358,-0.7757,0.8077,-1.5864,-1.9141,-0.2659,
2.282289,-0.2656,-1.0098,0.0249,-2.0310,0.1541,2.1049,-1.5864,-1.9141,-0.2659,
2.284818,-0.2634,-1.0213,0.0423,-2.0310,0.1541,2.1049,-1.5864,-1.9141,-0.2659,
2.290262,-0.2234,-1.0147,0.0484,-2.0310,0.1541,2.1049,-1.5864,-1.9141,-0.2659,
2.295651,-0.1679,-1.0000,0.0777,-2.0310,0.1541,2.1049,-1.5864,-1.9141,-0.2659,
2.300368,-0.1110,-0.9898,0.1085,-2.0310,0.1541,2.1049,-1.5864,-1.9141,-0.2659,
2.305293,-0.0663,-0.9751,0.1407,-2.0310,0.1541,2.1049,-1.5864,-1.9141,-0.2659,
2.312340,-0.0225,-0.9632,0.1710,-2.0310,0.1541,2.1049,-1.5864,-1.9141,-0.2659,
2.315151,0.0463,-0.9558,0.1837,-2.0310,0.1541,2.1049,-1.5864,-1.9141,-0.2659,
2.320169,0.0818,-0.9507,0.2152,-2.0310,0.1541,2.1049,-1.5864,-1.9141,-0.2659,
2.321179,0.0818,-0.9507,0.2152,-2.0310,0.1541,2.1049,-1.6322,-1.6265,-0.2467,
2.321747,0.0818,-0.9507,0.2152,-1.9367,0.0057,2.7490,-1.6322,-1.6265,-0.2467,
2.325325,0.1133,-0.9649,0.2487,-1.9367,0.0057,2.7490,-1.6322,-1.6265,-0.2467,
2.330313,0.1643,-0.9756,0.2751,-1.9367,0.0057,2.7490,-1.6322,-1.6265,-0.2467,
2.335068,0.1717,-0.9773,0.3122,-1.9367,0.0057,2.7490,-1.6322,-1.6265,-0.2467,
2.339875,0.1802,-0.9749,0.3278,-1.9367,0.0057,2.7490,-1.6322,-1.6265,-0.2467,
2.345067,0.1839,-0.9590,0.3374,-1.9367,0.0057,2.7490,-1.6322,-1.6265,-0.2467,
2.349800,0.1636,-0.9475,0.3445,-1.9367,0.0057,2.7490,-1.6322,-1.6265,-0.2467,
2.354866,0.1157,-0.9216,0.3442,-1.9367,0.0057,2.7490,-1.6322,-1.6265,-0.2467,
2.360920,0.0329,-0.9043,0.3220,-1.9367,0.0057,2.7490,-1.6322,-1.6265,-0.2467,
2.361842,0.0329,-0.9043,0.3220,-1.9367,0.0057,2.7490,-1.2083,-0.7636,-0.1721,
2.362485,0.0329,-0.9043,0.3220,-1.3845,-0.1693,4.5754,-1.2083,-0.7636,-0.1721,
2.363712,0.0305,-0.9052,0.2839,-1.3845,-0.1693,4.5754,-1.2083,-0.7636,-0.1721,
2.369985,0.0112,-0.9035,0.2594,-1.3845,-0.1693,4.5754,-1.2083,-0.7636,-0.1721,
2.375590,0.0041,-0.9133,0.2191,-1.3845,-0.1693,4.5754,-1.2083,-0.7636,-0.1721,
2.377893,-0.0221,-0.9172,0.1901,-1.3845,-0.1693,4.5754,-1.2083,-0.7636,-0.1721,
2.384369,-0.1051,-0.9160,0.1593,-1.3845,-0.1693,4.5754,-1.2083,-0.7636,-0.1721,
2.389692,-0.2358,-0.8965,0.1243,-1.3845,-0.1693,4.5754,-1.2083,-0.7636,-0.1721,
2.396627,-0.3172,-0.8945,0.0642,-1.3845,-0.1693,4.5754,-1.2083,-0.7636,-0.1721,
2.399932,-0.3081,-0.9070,0.0105,-1.3845,-0.1693,4.5754,-1.2083,-0.7636,-0.1721,
2.400674,-0.3081,-0.9070,0.0105,-1.3845,-0.1693,4.5754,-0.3688,-0.5175,-0.3959,
2.402269,-0.3081,-0.9070,0.0105,-1.4332,-0.2268,4.6114,-0.3688,-0.5175,-0.3959,
2.403429,-0.3143,-0.9253,-0.0264,-1.4332,-0.2268,4.6114,-0.3688,-0.5175,-0.3959,
2.412311,-0.3274,-0.9548,-0.0496,-1.4332,-0.2268,4.6114,-0.3688,-0.5175,-0.3959,
2.417150,-0.3939,-0.9693,-0.0775,-1.4332,-0.2268,4.6114,-0.3688,-0.5175,-0.3959,
2.420493,-0.4743,-0.9776,-0.1244,-1.4332,-0.2268,4.6114,-0.3688,-0.5175,-0.3959,
2.422998,-0.4914,-0.9910,-0.1854,-1.4332,-0.2268,4.6114,-0.3688,-0.5175,-0.3959,
2.427347,-0.4740,-1.0054,-0.2289,-1.4332,-0.2268,4.6114,-0.3688,-0.5175,-0.3959,
2.432009,-0.4555,-1.0377,-0.2661,-1.4332,-0.2268,4.6114,-0.3688,-0.5175,-0.3959,
2.437814,-0.4276,-1.0733,-0.3003,-1.4332,-0.2268,4.6114,-0.3688,-0.5175,-0.3959,
2.439383,-0.4276,-1.0733,-0.3003,-1.4332,-0.2268,4.6114,0.1968,-0.7455,-0.8539,
2.440210,-0.4276,-1.0733,-0.3003,-2.6202,0.3450,4.2839,0.1968,-0.7455,-0.8539,
2.446765,-0.3888,-1.0924,-0.3152,-2.6202,0.3450,4.2839,0.1968,-0.7455,-0.8539,
2.449869,-0.3345,-1.1056,-0.3078,-2.6202,0.3450,4.2839,0.1968,-0.7455,-0.8539,
2.453867,-0.2656,-1.1146,-0.2658,-2.6202,0.3450,4.2839,0.1968,-0.7455,-0.8539,
2.459381,-0.1745,-1.1342,-0.1837,-2.6202,0.3450,4.2839,0.1968,-0.7455,-0.8539,
2.464628,-0.1066,-1.1649,-0.1085,-2.6202,0.3450,4.2839,0.1968,-0.7455,-0.8539,
2.468523,-0.1183,-1.2001,-0.0139,-2.6202,0.3450,4.2839,0.1968,-0.7455,-0.8539,
2.473446,-0.1928,-1.2128,0.0659,-2.6202,0.3450,4.2839,0.1968,-0.7455,-0.8539,
2.478579,-0.2837,-1.2016,0.0894,-2.6202,0.3450,4.2839,0.1968,-0.7455,-0.8539,
2.480048,-0.2837,-1.2016,0.0894,-5.0543,-1.2893,0.7391,0.1968,-0.7455,-0.8539,
2.481211,-0.2837,-1.2016,0.0894,-5.0543,-1.2893,0.7391,0.3513,-0.5634,-0.9402,
2.482098,-0.3761,-1.1886,0.0633,-5.0543,-1.2893,0.7391,0.3513,-0.5634,-0.9402,
2.486953,-0.4572,-1.1970,-0.0093,-5.0543,-1.2893,0.7391,0.3513,-0.5634,-0.9402,
2.493444,-0.5041,-1.2216,-0.1183,-5.0543,-1.2893,0.7391,0.3513,-0.5634,-0.9402,
2.496904,-0.5248,-1.2571,-0.2043,-5.0543,-1.2893,0.7391,0.3513,-0.5634,-0.9402,
2.501417,-0.5097,-1.2798,-0.2546,-5.0543,-1.2893,0.7391,0.3513,-0.5634,-0.9402,
2.506906,-0.4679,-1.2700,-0.2722,-5.0543,-1.2893,0.7391,0.3513,-0.5634,-0.9402,
2.511640,-0.4271,-1.2500,-0.2184,-5.0543,-1.2893,0.7391,0.3513,-0.5634,-0.9402,
2.518482,-0.3807,-1.2224,-0.1190,-5.0543,-1.2893,0.7391,0.3513,-0.5634,-0.9402,
2.519363,-0.3807,-1.2224,-0.1190,-5.0543,-1.2893,0.7391,0.5175,-0.0318,-0.5514,
2.519850,-0.3807,-1.2224,-0.1190,-5.1164,-1.2483,0.5354,0.5175,-0.0318,-0.5514,
2.523146,-0.3211,-1.1979,-0.0127,-5.1164,-1.2483,0.5354,0.5175,-0.0318,-0.5514,
2.528101,-0.2683,-1.1818,0.0540,-5.1164,-1.2483,0.5354,0.5175,-0.0318,-0.5514,
2.533073,-0.2185,-1.1777,0.0486,-5.1164,-1.2483,0.5354,0.5175,-0.0318,-0.5514,
2.537972,-0.1569,-1.1864,-0.0342,-5.1164,-1.2483,0.5354,0.5175,-0.0318,-0.5514,
2.543874,-0.1007,-1.2053,-0.1578,-5.1164,-1.2483,0.5354,0.5175,-0.0318,-0.5514,
2.548040,-0.0621,-1.2141,-0.3054,-5.1164,-1.2483,0.5354,0.5175,-0.0318,-0.5514,
2.553740,-0.0353,-1.2255,-0.4041,-5.1164,-1.2483,0.5354,0.5175,-0.0318,-0.5514,
2.559080,-0.0228,-1.2439,-0.4549,-5.1164,-1.2483,0.5354,0.5175,-0.0318,-0.5514,
2.560753,-0.0228,-1.2439,-0.4549,-5.1164,-1.2483,0.5354,0.4493,-0.7445,-0.1232,
2.562022,-0.0228,-1.2439,-0.4549,-5.4058,-2.4743,1.3856,0.4493,-0.7445,-0.1232,
2.563934,-0.0213,-1.2673,-0.4544,-5.4058,-2.4743,1.3856,0.4493,-0.7445,-0.1232,
2.568459,-0.0172,-1.2783,-0.4232,-5.4058,-2.4743,1.3856,0.4493,-0.7445,-0.1232,
2.573548,-0.0040,-1.2673,-0.3828,-5.4058,-2.4743,1.3856,0.4493,-0.7445,-0.1232,
2.578881,0.0202,-1.2390,-0.3579,-5.4058,-2.4743,1.3856,0.4493,-0.7445,-0.1232,
2.583233,0.0424,-1.2043,-0.3591,-5.4058,-2.4743,1.3856,0.4493,-0.7445,-0.1232,
2.588318,0.0478,-1.1806,-0.3694,-5.4058,-2.4743,1.3856,0.4493,-0.7445,-0.1232,
2.593505,0.0415,-1.1696,-0.3794,-5.4058,-2.4743,1.3856,0.4493,-0.7445,-0.1232,
2.598092,0.0324,-1.1593,-0.3753,-5.4058,-2.4743,1.3856,0.4493,-0.7445,-0.1232,
2.599203,0.0324,-1.1593,-0.3753,-5.4058,-2.4743,1.3856,0.2501,-0.1085,-0.1754,
2.601080,0.0324,-1.1593,-0.3753,-5.3224,-2.4025,1.2658,0.2501,-0.1085,-0.1754,
2.601950,0.0253,-1.1386,-0.3555,-5.3224,-2.4025,1.2658,0.2501,-0.1085,-0.1754,
2.607192,0.0329,-1.1058,-0.3030,-5.3224,-2.4025,1.2658,0.2501,-0.1085,-0.1754,
2.612355,0.0625,-1.0516,-0.2433,-5.3224,-2.4025,1.2658,0.2501,-0.1085,-0.1754,
2.616744,0.1094,-0.9864,-0.1832,-5.3224,-2.4025,1.2658,0.2501,-0.1085,-0.1754,
2.620945,0.1570,-0.9302,-0.1412,-5.3224,-2.4025,1.2658,0.2501,-0.1085,-0.1754,
2.625906,0.1934,-0.8923,-0.1241,-5.3224,-2.4025,1.2658,0.2501,-0.1085,-0.1754,
2.631411,0.2293,-0.8779,-0.1385,-5.3224,-2.4025,1.2658,0.2501,-0.1085,-0.1754,
2.636612,0.2618,-0.8918,-0.1740,-5.3224,-2.4025,1.2658,0.2501,-0.1085,-0.1754,
2.638233,0.2618,-0.8918,-0.1740,-5.3224,-2.4025,1.2658,-0.0130,0.4795,-0.1775,
2.639663,0.2618,-0.8918,-0.1740,-1.7324,-2.3264,-1.5792,-0.0130,0.4795,-0.1775,
2.641545,0.2779,-0.9211,-0.2275,-1.7324,-2.3264,-1.5792,-0.0130,0.4795,-0.1775,
2.646550,0.2909,-0.9636,-0.2883,-1.7324,-2.3264,-1.5792,-0.0130,0.4795,-0.1775,
2.653155,0.3004,-1.0074,-0.3665,-1.7324,-2.3264,-1.5792,-0.0130,0.4795,-0.1775,
2.657510,0.2965,-1.0477,-0.4339,-1.7324,-2.3264,-1.5792,-0.0130,0.4795,-0.1775,
2.662025,0.2858,-1.0831,-0.4705,-1.7324,-2.3264,-1.5792,-0.0130,0.4795,-0.1775,
2.667273,0.2660,-1.1110,-0.4767,-1.7324,-2.3264,-1.5792,-0.0130,0.4795,-0.1775,
2.672044,0.2459,-1.1198,-0.4390,-1.7324,-2.3264,-1.5792,-0.0130,0.4795,-0.1775,
2.677237,0.2247,-1.1117,-0.3767,-1.7324,-2.3264,-1.5792,-0.0130,0.4795,-0.1775,
2.678911,0.2247,-1.1117,-0.3767,-1.7324,-2.3264,-1.5792,0.1478,0.7661,0.0302,
2.679916,0.2247,-1.1117,-0.3767,0.3349,-0.1065,-0.7576,0.1478,0.7661,0.0302,
2.682185,0.2130,-1.0892,-0.3142,0.3349,-0.1065,-0.7576,0.1478,0.7661,0.0302,
2.687135,0.2132,-1.0618,-0.2678,0.3349,-0.1065,-0.7576,0.1478,0.7661,0.0302,
2.694857,0.2178,-1.0303,-0.2519,0.3349,-0.1065,-0.7576,0.1478,0.7661,0.0302,
2.696922,0.2347,-1.0008,-0.2429,0.3349,-0.1065,-0.7576,0.1478,0.7661,0.0302,
2.702176,0.2437,-0.9827,-0.2223,0.3349,-0.1065,-0.7576,0.1478,0.7661,0.0302,
2.707112,0.2474,-0.9744,-0.1937,0.3349,-0.1065,-0.7576,0.1478,0.7661,0.0302,
2.712444,0.2428,-0.9724,-0.1551,0.3349,-0.1065,-0.7576,0.1478,0.7661,0.0302,
2.715754,0.2604,-0.9683,-0.1268,0.3349,-0.1065,-0.7576,0.1478,0.7661,0.0302,
2.717118,0.2604,-0.9683,-0.1268,0.3349,-0.1065,-0.7576,0.0967,0.9770,0.1506,
2.717732,0.2604,-0.9683,-0.1268,0.3117,-0.0866,-0.8415,0.0967,0.9770,0.1506,
2.721634,0.2870,-0.9678,-0.1121,0.3117,-0.0866,-0.8415,0.0967,0.9770,0.1506,
2.727613,0.3109,-0.9693,-0.0946,0.3117,-0.0866,-0.8415,0.0967,0.9770,0.1506,
2.731906,0.3319,-0.9690,-0.0677,0.3117,-0.0866,-0.8415,0.0967,0.9770,0.1506,
2.735120,0.3512,-0.9746,-0.0279,0.3117,-0.0866,-0.8415,0.0967,0.9770,0.1506,
2.741785,0.3666,-0.9776,0.0168,0.3117,-0.0866,-0.8415,0.0967,0.9770,0.1506,
2.746706,0.3769,-0.9807,0.0611,0.3117,-0.0866,-0.8415,0.0967,0.9770,0.1506,
2.751732,0.3766,-0.9871,0.1043,0.3117,-0.0866,-0.8415,0.0967,0.9770,0.1506,
2.756790,0.3718,-0.9942,0.1429,0.3117,-0.0866,-0.8415,0.0967,0.9770,0.1506,
2.758022,0.3718,-0.9942,0.1429,0.3117,-0.0866,-0.8415,-0.0802,0.6755,0.4414,
2.759556,0.3718,-0.9942,0.1429,0.7958,-0.3167,-0.3174,-0.0802,0.6755,0.4414,
2.760618,0.3730,-1.0005,0.1607,0.7958,-0.3167,-0.3174,-0.0802,0.6755,0.4414,
2.766623,0.3857,-1.0052,0.1610,0.7958,-0.3167,-0.3174,-0.0802,0.6755,0.4414,
2.771548,0.4106,-1.0101,0.1309,0.7958,-0.3167,-0.3174,-0.0802,0.6755,0.4414,
2.777412,0.4326,-1.0061,0.0567,0.7958,-0.3167,-0.3174,-0.0802,0.6755,0.4414,
2.781063,0.4358,-1.0162,-0.0496,0.7958,-0.3167,-0.3174,-0.0802,0.6755,0.4414,
2.785813,0.4424,-1.0323,-0.1891,0.7958,-0.3167,-0.3174,-0.0802,0.6755,0.4414,
2.791397,0.4658,-1.0352,-0.2927,0.7958,-0.3167,-0.3174,-0.0802,0.6755,0.4414,
2.796498,0.5027,-1.0259,-0.3215,0.7958,-0.3167,-0.3174,-0.0802,0.6755,0.4414,
2.797931,0.5027,-1.0259,-0.3215,0.7958,-0.3167,-0.3174,0.4312,0.6883,0.4414,
2.799166,0.5027,-1.0259,-0.3215,2.3819,-0.1264,1.5608,0.4312,0.6883,0.4414,
2.800164,0.5098,-1.0203,-0.3435,2.3819,-0.1264,1.5608,0.4312,0.6883,0.4414,
2.805473,0.4954,-0.9996,-0.3653,2.3819,-0.1264,1.5608,0.4312,0.6883,0.4414,
2.811637,0.4837,-0.9512,-0.3643,2.3819,-0.1264,1.5608,0.4312,0.6883,0.4414,
2.815532,0.4841,-0.9031,-0.3489,2.3819,-0.1264,1.5608,0.4312,0.6883,0.4414,
2.820276,0.4678,-0.8508,-0.3120,2.3819,-0.1264,1.5608,0.4312,0.6883,0.4414,
2.824949,0.4502,-0.7943,-0.2626,2.3819,-0.1264,1.5608,0.4312,0.6883,0.4414,
2.829298,0.4370,-0.7491,-0.1991,2.3819,-0.1264,1.5608,0.4312,0.6883,0.4414,
2.833957,0.4258,-0.7225,-0.1354,2.3819,-0.1264,1.5608,0.4312,0.6883,0.4414,
2.835196,0.4258,-0.7225,-0.1354,2.3819,-0.1264,1.5608,1.1886,0.6851,0.4883,
2.836024,0.4258,-0.7225,-0.1354,2.4745,-0.0328,1.0351,1.1886,0.6851,0.4883,
2.839455,0.3859,-0.7154,-0.0797,2.4745,-0.0328,1.0351,1.1886,0.6851,0.4883,
2.844581,0.3503,-0.7127,-0.0503,2.4745,-0.0328,1.0351,1.1886,0.6851,0.4883,
2.849165,0.3114,-0.7308,-0.0371,2.4745,-0.0328,1.0351,1.1886,0.6851,0.4883,
2.853576,0.2797,-0.7511,-0.0406,2.4745,-0.0328,1.0351,1.1886,0.6851,0.4883,
2.858356,0.2635,-0.7745,-0.0591,2.4745,-0.0328,1.0351,1.1886,0.6851,0.4883,
2.864436,0.2381,-0.7990,-0.0848,2.4745,-0.0328,1.0351,1.1886,0.6851,0.4883,
2.871034,0.2042,-0.8114,-0.1136,2.4745,-0.0328,1.0351,1.1886,0.6851,0.4883,
2.874236,0.1890,-0.8210,-0.1561,2.4745,-0.0328,1.0351,1.1886,0.6851,0.4883,
2.875446,0.1890,-0.8210,-0.1561,2.4745,-0.0328,1.0351,0.9329,-0.0371,0.3743,
2.876640,0.1890,-0.8210,-0.1561,2.6001,1.7671,-1.2218,0.9329,-0.0371,0.3743,
2.884947,0.1758,-0.8339,-0.1986,2.6001,1.7671,-1.2218,0.9329,-0.0371,0.3743,
2.886674,0.1607,-0.8408,-0.2326,2.6001,1.7671,-1.2218,0.9329,-0.0371,0.3743,
2.890834,0.1477,-0.8542,-0.2680,2.6001,1.7671,-1.2218,0.9329,-0.0371,0.3743,
2.896055,0.1553,-0.8684,-0.3052,2.6001,1.7671,-1.2218,0.9329,-0.0371,0.3743,
2.900963,0.1387,-0.8708,-0.3093,2.6001,1.7671,-1.2218,0.9329,-0.0371,0.3743,
2.905338,0.1143,-0.8608,-0.2876,2.6001,1.7671,-1.2218,0.9329,-0.0371,0.3743,
2.911914,0.1270,-0.8596,-0.2516,2.6001,1.7671,-1.2218,0.9329,-0.0371,0.3743,
2.916632,0.1436,-0.8557,-0.2096,2.6001,1.7671,-1.2218,0.9329,-0.0371,0.3743,
2.918002,0.1436,-0.8557,-0.2096,2.6001,1.7671,-1.2218,0.9031,0.0822,0.2039,
2.919255,0.1436,-0.8557,-0.2096,2.6170,1.7575,-1.5424,0.9031,0.0822,0.2039,
2.920713,0.1592,-0.8627,-0.1652,2.6170,1.7575,-1.5424,0.9031,0.0822,0.2039,
2.924903,0.1797,-0.8784,-0.1143,2.6170,1.7575,-1.5424,0.9031,0.0822,0.2039,
2.930333,0.2073,-0.8965,-0.0726,2.6170,1.7575,-1.5424,0.9031,0.0822,0.2039,
2.935173,0.2296,-0.9177,-0.0484,2.6170,1.7575,-1.5424,0.9031,0.0822,0.2039,
2.939642,0.2643,-0.9370,-0.0332,2.6170,1.7575,-1.5424,0.9031,0.0822,0.2039,
2.945479,0.3053,-0.9517,-0.0215,2.6170,1.7575,-1.5424,0.9031,0.0822,0.2039,
2.951403,0.3427,-0.9729,-0.0134,2.6170,1.7575,-1.5424,0.9031,0.0822,0.2039,
2.954449,0.3823,-0.9961,-0.0154,2.6170,1.7575,-1.5424,0.9031,0.0822,0.2039,
2.956526,0.3823,-0.9961,-0.0154,2.6170,1.7575,-1.5424,0.4503,-0.0392,0.3594,
2.958002,0.3823,-0.9961,-0.0154,0.3290,1.4915,-1.7501,0.4503,-0.0392,0.3594,
2.959458,0.4250,-1.0223,-0.0166,0.3290,1.4915,-1.7501,0.4503,-0.0392,0.3594,
2.964767,0.4631,-1.0440,-0.0191,0.3290,1.4915,-1.7501,0.4503,-0.0392,0.3594,
2.969913,0.4966,-1.0623,-0.0318,0.3290,1.4915,-1.7501,0.4503,-0.0392,0.3594,
2.975280,0.5215,-1.0733,-0.0332,0.3290,1.4915,-1.7501,0.4503,-0.0392,0.3594,
2.980726,0.5335,-1.0809,-0.0301,0.3290,1.4915,-1.7501,0.4503,-0.0392,0.3594,
2.984555,0.5330,-1.0821,-0.0198,0.3290,1.4915,-1.7501,0.4503,-0.0392,0.3594,
2.989766,0.5215,-1.0838,-0.0100,0.3290,1.4915,-1.7501,0.4503,-0.0392,0.3594,
2.995700,0.5012,-1.0714,-0.0117,0.3290,1.4915,-1.7501,0.4503,-0.0392,0.3594,
2.997606,0.5012,-1.0714,-0.0117,0.3290,1.4915,-1.7501,0.0168,-0.2747,0.3275,
3.000412,0.5012,-1.0714,-0.0117,2.7297,-0.0771,0.0138,0.0168,-0.2747,0.3275,
3.001900,0.4827,-1.0565,-0.0181,2.7297,-0.0771,0.0138,0.0168,-0.2747,0.3275,
3.004641,0.4419,-1.0477,-0.0191,2.7297,-0.0771,0.0138,0.0168,-0.2747,0.3275,
3.008715,0.3840,-1.0269,-0.0288,2.7297,-0.0771,0.0138,0.0168,-0.2747,0.3275,
3.013825,0.3273,-1.0054,-0.0310,2.7297,-0.0771,0.0138,0.0168,-0.2747,0.3275,
3.019030,0.2765,-0.9903,-0.0310,2.7297,-0.0771,0.0138,0.0168,-0.2747,0.3275,
3.022461,0.2220,-0.9741,-0.0247,2.7297,-0.0771,0.0138,0.0168,-0.2747,0.3275,
3.028697,0.1719,-0.9649,-0.0081,2.7297,-0.0771,0.0138,0.0168,-0.2747,0.3275,
3.033071,0.1250,-0.9673,-0.0020,2.7297,-0.0771,0.0138,0.0168,-0.2747,0.3275,
3.035211,0.1250,-0.9673,-0.0020,2.7297,-0.0771,0.0138,-0.3156,-0.7285,-0.0891,
3.036626,0.1250,-0.9673,-0.0020,2.6468,-0.0842,0.1677,-0.3156,-0.7285,-0.0891,
3.038984,0.0725,-0.9788,0.0066,2.6468,-0.0842,0.1677,-0.3156,-0.7285,-0.0891,
3.042106,0.0280,-0.9864,0.0139,2.6468,-0.0842,0.1677,-0.3156,-0.7285,-0.0891,
3.047215,-0.0084,-1.0022,0.0124,2.6468,-0.0842,0.1677,-0.3156,-0.7285,-0.0891,
3.052340,-0.0411,-1.0245,0.0127,2.6468,-0.0842,0.1677,-0.3156,-0.7285,-0.0891,
3.058858,-0.0692,-1.0482,0.0088,2.6468,-0.0842,0.1677,-0.3156,-0.7285,-0.0891,
3.064092,-0.0900,-1.0694,-0.0007,2.6468,-0.0842,0.1677,-0.3156,-0.7285,-0.0891,
3.068801,-0.1090,-1.0853,-0.0069,2.6468,-0.0842,0.1677,-0.3156,-0.7285,-0.0891,
3.073647,-0.1171,-1.0919,-0.0159,2.6468,-0.0842,0.1677,-0.3156,-0.7285,-0.0891,
3.075250,-0.1171,-1.0919,-0.0159,2.6468,-0.0842,0.1677,-0.7598,-0.8361,-0.3469,
3.076747,-0.1171,-1.0919,-0.0159,0.8239,-0.1006,0.6706,-0.7598,-0.8361,-0.3469,
3.080762,-0.1247,-1.0895,-0.0134,0.8239,-0.1006,0.6706,-0.7598,-0.8361,-0.3469,
3.084371,-0.1276,-1.0807,-0.0007,0.8239,-0.1006,0.6706,-0.7598,-0.8361,-0.3469,
3.088849,-0.1303,-1.0653,0.0149,0.8239,-0.1006,0.6706,-0.7598,-0.8361,-0.3469,
3.093769,-0.1315,-1.0472,0.0276,0.8239,-0.1006,0.6706,-0.7598,-0.8361,-0.3469,
3.099193,-0.1371,-1.0245,0.0435,0.8239,-0.1006,0.6706,-0.7598,-0.8361,-0.3469,
3.103599,-0.1528,-1.0088,0.0589,0.8239,-0.1006,0.6706,-0.7598,-0.8361,-0.3469,
3.108811,-0.1708,-0.9917,0.0696,0.8239,-0.1006,0.6706,-0.7598,-0.8361,-0.3469,
3.114837,-0.1889,-0.9739,0.0789,0.8239,-0.1006,0.6706,-0.7598,-0.8361,-0.3469,
3.116858,-0.1889,-0.9739,0.0789,0.7244,-0.1517,1.0644,-0.7598,-0.8361,-0.3469,
3.118209,-0.1889,-0.9739,0.0789,0.7244,-0.1517,1.0644,-1.0218,-0.3823,-0.2531,
3.120750,-0.2050,-0.9539,0.0831,0.7244,-0.1517,1.0644,-1.0218,-0.3823,-0.2531,
3.123445,-0.2116,-0.9316,0.0782,0.7244,-0.1517,1.0644,-1.0218,-0.3823,-0.2531,
3.128991,-0.2090,-0.9106,0.0677,0.7244,-0.1517,1.0644,-1.0218,-0.3823,-0.2531,
3.133332,-0.1921,-0.8901,0.0506,0.7244,-0.1517,1.0644,-1.0218,-0.3823,-0.2531,
3.138380,-0.1628,-0.8732,0.0276,0.7244,-0.1517,1.0644,-1.0218,-0.3823,-0.2531,
3.143036,-0.1283,-0.8657,-0.0071,0.7244,-0.1517,1.0644,-1.0218,-0.3823,-0.2531,
3.148066,-0.0870,-0.8605,-0.0313,0.7244,-0.1517,1.0644,-1.0218,-0.3823,-0.2531,
3.152085,-0.0418,-0.8640,-0.0520,0.7244,-0.1517,1.0644,-1.0218,-0.3823,-0.2531,
3.154170,-0.0418,-0.8640,-0.0520,0.7244,-0.1517,1.0644,-1.0794,0.0449,-0.0635,
3.155435,-0.0418,-0.8640,-0.0520,-2.8146,-0.5300,1.7972,-1.0794,0.0449,-0.0635,
3.157982,0.0087,-0.8725,-0.0672,-2.8146,-0.5300,1.7972,-1.0794,0.0449,-0.0635,
3.162941,0.0708,-0.8754,-0.0687,-2.8146,-0.5300,1.7972,-1.0794,0.0449,-0.0635,
3.169609,0.1336,-0.8796,-0.0628,-2.8146,-0.5300,1.7972,-1.0794,0.0449,-0.0635,
3.171636,0.1844,-0.8925,-0.0491,-2.8146,-0.5300,1.7972,-1.0794,0.0449,-0.0635,
3.178453,0.2406,-0.8965,-0.0252,-2.8146,-0.5300,1.7972,-1.0794,0.0449,-0.0635,
3.182479,0.2887,-0.8972,-0.0042,-2.8146,-0.5300,1.7972,-1.0794,0.0449,-0.0635,
3.187318,0.3117,-0.9016,0.0115,-2.8146,-0.5300,1.7972,-1.0794,0.0449,-0.0635,
3.190600,0.3151,-0.8947,0.0041,-2.8146,-0.5300,1.7972,-1.0794,0.0449,-0.0635,
3.191382,0.3151,-0.8947,0.0041,-2.8146,-0.5300,1.7972,-0.9100,-0.0030,0.2177,
3.192488,0.3151,-0.8947,0.0041,-1.4583,0.9248,1.7388,-0.9100,-0.0030,0.2177,
3.197441,0.3051,-0.8840,-0.0083,-1.4583,0.9248,1.7388,-0.9100,-0.0030,0.2177,
3.202213,0.2743,-0.8747,-0.0376,-1.4583,0.9248,1.7388,-0.9100,-0.0030,0.2177,
3.207350,0.2306,-0.8618,-0.0743,-1.4583,0.9248,1.7388,-0.9100,-0.0030,0.2177,
3.211710,0.1900,-0.8459,-0.1136,-1.4583,0.9248,1.7388,-0.9100,-0.0030,0.2177,
3.216830,0.1411,-0.8354,-0.1549,-1.4583,0.9248,1.7388,-0.9100,-0.0030,0.2177,
3.221731,0.0994,-0.8178,-0.2067,-1.4583,0.9248,1.7388,-0.9100,-0.0030,0.2177,
3.225643,0.0576,-0.8078,-0.2714,-1.4583,0.9248,1.7388,-0.9100,-0.0030,0.2177,
3.230635,0.0190,-0.8063,-0.3215,-1.4583,0.9248,1.7388,-0.9100,-0.0030,0.2177,
3.231800,0.0190,-0.8063,-0.3215,-1.4583,0.9248,1.7388,-0.6756,0.0385,0.0238,
3.232889,0.0190,-0.8063,-0.3215,-1.4227,0.8555,1.9524,-0.6756,0.0385,0.0238,
3.235470,-0.0057,-0.8046,-0.3806,-1.4227,0.8555,1.9524,-0.6756,0.0385,0.0238,
3.240313,-0.0152,-0.7997,-0.4400,-1.4227,0.8555,1.9524,-0.6756,0.0385,0.0238,
3.245837,-0.0289,-0.7980,-0.4806,-1.4227,0.8555,1.9524,-0.6756,0.0385,0.0238,
3.250176,-0.0414,-0.8024,-0.4852,-1.4227,0.8555,1.9524,-0.6756,0.0385,0.0238,
3.254953,-0.0585,-0.8166,-0.4652,-1.4227,0.8555,1.9524,-0.6756,0.0385,0.0238,
3.261779,-0.0675,-0.8408,-0.4219,-1.4227,0.8555,1.9524,-0.6756,0.0385,0.0238,
3.266846,-0.0932,-0.8664,-0.3758,-1.4227,0.8555,1.9524,-0.6756,0.0385,0.0238,
3.272016,-0.0997,-0.9023,-0.3203,-1.4227,0.8555,1.9524,-0.6756,0.0385,0.0238,
3.273695,-0.0997,-0.9023,-0.3203,-1.4227,0.8555,1.9524,-0.4572,0.1397,-0.3032,
3.275225,-0.0997,-0.9023,-0.3203,-0.0404,1.2102,0.3529,-0.4572,0.1397,-0.3032,
3.276863,-0.0995,-0.9426,-0.2639,-0.0404,1.2102,0.3529,-0.4572,0.1397,-0.3032,
3.282005,-0.1142,-0.9893,-0.2133,-0.0404,1.2102,0.3529,-0.4572,0.1397,-0.3032,
3.287012,-0.1095,-1.0313,-0.1766,-0.0404,1.2102,0.3529,-0.4572,0.1397,-0.3032,
3.291554,-0.1088,-1.0601,-0.1512,-0.0404,1.2102,0.3529,-0.4572,0.1397,-0.3032,
3.296814,-0.0631,-1.0853,-0.1358,-0.0404,1.2102,0.3529,-0.4572,0.1397,-0.3032,
3.301700,-0.0201,-1.0961,-0.1092,-0.0404,1.2102,0.3529,-0.4572,0.1397,-0.3032,
3.306533,0.0112,-1.0877,-0.0662,-0.0404,1.2102,0.3529,-0.4572,0.1397,-0.3032,
3.313310,0.0231,-1.0587,-0.0166,-0.0404,1.2102,0.3529,-0.4572,0.1397,-0.3032,
3.315387,0.0231,-1.0587,-0.0166,-0.0404,1.2102,0.3529,-0.7086,0.0193,0.0068,
3.316939,0.0231,-1.0587,-0.0166,-2.0602,-0.0953,0.0666,-0.7086,0.0193,0.0068,
3.318814,0.0534,-1.0225,0.0303,-2.0602,-0.0953,0.0666,-0.7086,0.0193,0.0068,
3.320981,0.0867,-0.9717,0.0747,-2.0602,-0.0953,0.0666,-0.7086,0.0193,0.0068,
3.324972,0.1145,-0.9226,0.1273,-2.0602,-0.0953,0.0666,-0.7086,0.0193,0.0068,
3.331670,0.1494,-0.8737,0.1788,-2.0602,-0.0953,0.0666,-0.7086,0.0193,0.0068,
3.334402,0.1866,-0.8298,0.2199,-2.0602,-0.0953,0.0666,-0.7086,0.0193,0.0068,
3.338860,0.2044,-0.7909,0.2677,-2.0602,-0.0953,0.0666,-0.7086,0.0193,0.0068,
3.345409,0.1990,-0.7640,0.3217,-2.0602,-0.0953,0.0666,-0.7086,0.0193,0.0068,
3.349147,0.1993,-0.7440,0.3672,-2.0602,-0.0953,0.0666,-0.7086,0.0193,0.0068,
3.350279,0.1993,-0.7440,0.3672,-2.0602,-0.0953,0.0666,0.0796,-0.2321,0.2603,
3.350902,0.1993,-0.7440,0.3672,-1.9023,-0.0719,0.0484,0.0796,-0.2321,0.2603,
3.354043,0.2103,-0.7272,0.3945,-1.9023,-0.0719,0.0484,0.0796,-0.2321,0.2603,
3.358950,0.2069,-0.7179,0.4097,-1.9023,-0.0719,0.0484,0.0796,-0.2321,0.2603,
3.365702,0.1788,-0.7049,0.4058,-1.9023,-0.0719,0.0484,0.0796,-0.2321,0.2603,
3.369451,0.1353,-0.6932,0.3867,-1.9023,-0.0719,0.0484,0.0796,-0.2321,0.2603,
3.375653,0.0913,-0.7020,0.3603,-1.9023,-0.0719,0.0484,0.0796,-0.2321,0.2603,
3.383795,0.0525,-0.7416,0.3195,-1.9023,-0.0719,0.0484,0.0796,-0.2321,0.2603,
3.385585,0.0087,-0.8009,0.2538,-1.9023,-0.0719,0.0484,0.0796,-0.2321,0.2603,
3.391135,-0.0506,-0.8635,0.1705,-1.9023,-0.0719,0.0484,0.0796,-0.2321,0.2603,
3.392370,-0.0506,-0.8635,0.1705,-1.9023,-0.0719,0.0484,1.2269,-0.1682,-0.0347,
3.394250,-0.0506,-0.8635,0.1705,0.2486,1.5983,4.5921,1.2269,-0.1682,-0.0347,
3.395263,-0.0927,-0.9241,0.0638,0.2486,1.5983,4.5921,1.2269,-0.1682,-0.0347,
3.403156,-0.1261,-0.9815,-0.0032,0.2486,1.5983,4.5921,1.2269,-0.1682,-0.0347,
3.405259,-0.1437,-1.0335,-0.0533,0.2486,1.5983,4.5921,1.2269,-0.1682,-0.0347,
3.410286,-0.1496,-1.0733,-0.0885,0.2486,1.5983,4.5921,1.2269,-0.1682,-0.0347,
3.414996,-0.1579,-1.1066,-0.0911,0.2486,1.5983,4.5921,1.2269,-0.1682,-0.0347,
3.419856,-0.1831,-1.1224,-0.0926,0.2486,1.5983,4.5921,1.2269,-0.1682,-0.0347,
3.424739,-0.2126,-1.1263,-0.0916,0.2486,1.5983,4.5921,1.2269,-0.1682,-0.0347,
3.429033,-0.2458,-1.1325,-0.0882,0.2486,1.5983,4.5921,1.2269,-0.1682,-0.0347,
3.430947,-0.2458,-1.1325,-0.0882,0.2486,1.5983,4.5921,2.1377,0.1834,-0.4662,
3.432211,-0.2458,-1.1325,-0.0882,0.0607,1.6686,3.7006,2.1377,0.1834,-0.4662,
3.433546,-0.2979,-1.1522,-0.0757,0.0607,1.6686,3.7006,2.1377,0.1834,-0.4662,
3.438616,-0.3338,-1.1928,-0.0645,0.0607,1.6686,3.7006,2.1377,0.1834,-0.4662,
3.443254,-0.3743,-1.2590,-0.0696,0.0607,1.6686,3.7006,2.1377,0.1834,-0.4662,
3.448955,-0.3915,-1.3540,-0.0919,0.0607,1.6686,3.7006,2.1377,0.1834,-0.4662,
3.453348,-0.3538,-1.4552,-0.1549,0.0607,1.6686,3.7006,2.1377,0.1834,-0.4662,
3.458023,-0.2835,-1.5495,-0.2473,0.0607,1.6686,3.7006,2.1377,0.1834,-0.4662,
3.465447,-0.2373,-1.6347,-0.3428,0.0607,1.6686,3.7006,2.1377,0.1834,-0.4662,
3.469781,-0.2258,-1.7107,-0.4498,0.0607,1.6686,3.7006,2.1377,0.1834,-0.4662,
3.470936,-0.2258,-1.7107,-0.4498,0.0607,1.6686,3.7006,2.3316,0.5925,-0.4576,
3.472071,-0.2258,-1.7107,-0.4498,-3.0432,-0.4000,0.2227,2.3316,0.5925,-0.4576,
3.473187,-0.2202,-1.7723,-0.5250,-3.0432,-0.4000,0.2227,2.3316,0.5925,-0.4576,
3.479853,-0.2077,-1.8104,-0.5712,-3.0432,-0.4000,0.2227,2.3316,0.5925,-0.4576,
3.483732,-0.1691,-1.8265,-0.6083,-3.0432,-0.4000,0.2227,2.3316,0.5925,-0.4576,
3.488175,-0.1139,-1.8133,-0.6330,-3.0432,-0.4000,0.2227,2.3316,0.5925,-0.4576,
3.493053,-0.0541,-1.7755,-0.6589,-3.0432,-0.4000,0.2227,2.3316,0.5925,-0.4576,
3.498400,0.0051,-1.7078,-0.6980,-3.0432,-0.4000,0.2227,2.3316,0.5925,-0.4576,
3.502602,0.0735,-1.6135,-0.7317,-3.0432,-0.4000,0.2227,2.3316,0.5925,-0.4576,
3.507799,0.1333,-1.4960,-0.7427,-3.0432,-0.4000,0.2227,2.3316,0.5925,-0.4576,
3.508842,0.1333,-1.4960,-0.7427,-3.0432,-0.4000,0.2227,1.5976,1.1357,0.0324,
3.509766,0.1333,-1.4960,-0.7427,-3.4210,-6.3473,-4.8433,1.5976,1.1357,0.0324,
3.512861,0.1531,-1.3885,-0.7786,-3.4210,-6.3473,-4.8433,1.5976,1.1357,0.0324,
3.519978,0.1253,-1.3086,-0.8162,-3.4210,-6.3473,-4.8433,1.5976,1.1357,0.0324,
3.522856,0.0779,-1.2417,-0.7901,-3.4210,-6.3473,-4.8433,1.5976,1.1357,0.0324,
3.529104,0.0202,-1.1774,-0.7212,-3.4210,-6.3473,-4.8433,1.5976,1.1357,0.0324,
3.534726,-0.0184,-1.1083,-0.6196,-3.4210,-6.3473,-4.8433,1.5976,1.1357,0.0324,
3.539485,-0.0321,-1.0367,-0.4884,-3.4210,-6.3473,-4.8433,1.5976,1.1357,0.0324,
3.544109,0.0048,-0.9741,-0.3474,-3.4210,-6.3473,-4.8433,1.5976,1.1357,0.0324,
3.549059,0.0737,-0.9331,-0.2179,-3.4210,-6.3473,-4.8433,1.5976,1.1357,0.0324,
3.551376,0.0737,-0.9331,-0.2179,-3.4210,-6.3473,-4.8433,0.0818,0.8737,0.3551,
3.552707,0.0737,-0.9331,-0.2179,-3.2042,-6.2116,-4.8331,0.0818,0.8737,0.3551,
3.554651,0.1643,-0.9304,-0.1368,-3.2042,-6.2116,-4.8331,0.0818,0.8737,0.3551,
3.559410,0.2731,-0.9548,-0.0711,-3.2042,-6.2116,-4.8331,0.0818,0.8737,0.3551,
3.564319,0.3889,-0.9866,-0.0093,-3.2042,-6.2116,-4.8331,0.0818,0.8737,0.3551,
3.567797,0.4753,-1.0291,0.0725,-3.2042,-6.2116,-4.8331,0.0818,0.8737,0.3551,
3.572088,0.5267,-1.0638,0.1124,-3.2042,-6.2116,-4.8331,0.0818,0.8737,0.3551,
3.576741,0.5525,-1.0726,0.1060,-3.2042,-6.2116,-4.8331,0.0818,0.8737,0.3551,
3.582287,0.5506,-1.0684,0.0584,-3.2042,-6.2116,-4.8331,0.0818,0.8737,0.3551,
3.587857,0.5323,-1.0484,0.0005,-3.2042,-6.2116,-4.8331,0.0818,0.8737,0.3551,
3.588882,0.5323,-1.0484,0.0005,-3.2042,-6.2116,-4.8331,-0.9867,0.9770,0.3828,
3.589988,0.5323,-1.0484,0.0005,0.2644,-1.0973,-4.3269,-0.9867,0.9770,0.3828,
3.593205,0.5064,-1.0108,-0.0220,0.2644,-1.0973,-4.3269,-0.9867,0.9770,0.3828,
3.599640,0.4661,-0.9617,-0.0196,0.2644,-1.0973,-4.3269,-0.9867,0.9770,0.3828,
3.603388,0.4082,-0.9050,0.0063,0.2644,-1.0973,-4.3269,-0.9867,0.9770,0.3828,
3.608459,0.3280,-0.8471,0.0564,0.2644,-1.0973,-4.3269,-0.9867,0.9770,0.3828,
3.614292,0.2503,-0.8036,0.1063,0.2644,-1.0973,-4.3269,-0.9867,0.9770,0.3828,
3.618351,0.1902,-0.7694,0.1517,0.2644,-1.0973,-4.3269,-0.9867,0.9770,0.3828,
3.623138,0.1599,-0.7482,0.1959,0.2644,-1.0973,-4.3269,-0.9867,0.9770,0.3828,
3.630315,0.1431,-0.7381,0.2230,0.2644,-1.0973,-4.3269,-0.9867,0.9770,0.3828,
3.632367,0.1431,-0.7381,0.2230,0.2644,-1.0973,-4.3269,-0.6746,0.9610,0.1890,
3.634304,0.1431,-0.7381,0.2230,0.3298,-1.0709,-4.0292,-0.6746,0.9610,0.1890,
3.636529,0.1394,-0.7394,0.2296,0.3298,-1.0709,-4.0292,-0.6746,0.9610,0.1890,
3.637932,0.1377,-0.7550,0.2133,0.3298,-1.0709,-4.0292,-0.6746,0.9610,0.1890,
3.642137,0.1502,-0.7919,0.1759,0.3298,-1.0709,-4.0292,-0.6746,0.9610,0.1890,
3.647040,0.1558,-0.8356,0.1260,0.3298,-1.0709,-4.0292,-0.6746,0.9610,0.1890,
3.651010,0.1673,-0.8823,0.0503,0.3298,-1.0709,-4.0292,-0.6746,0.9610,0.1890,
3.656118,0.1873,-0.9302,-0.0318,0.3298,-1.0709,-4.0292,-0.6746,0.9610,0.1890,
3.661097,0.2191,-0.9812,-0.1236,0.3298,-1.0709,-4.0292,-0.6746,0.9610,0.1890,
3.668121,0.2396,-1.0357,-0.2174,0.3298,-1.0709,-4.0292,-0.6746,0.9610,0.1890,
3.669389,0.2396,-1.0357,-0.2174,0.3298,-1.0709,-4.0292,0.2000,0.9717,0.0271,
3.670196,0.2396,-1.0357,-0.2174,2.4840,1.0154,1.0136,0.2000,0.9717,0.0271,
3.671858,0.2545,-1.0814,-0.2942,2.4840,1.0154,1.0136,0.2000,0.9717,0.0271,
3.677563,0.2618,-1.1176,-0.3552,2.4840,1.0154,1.0136,0.2000,0.9717,0.0271,
3.683109,0.2601,-1.1371,-0.3975,2.4840,1.0154,1.0136,0.2000,0.9717,0.0271,
3.685889,0.2494,-1.1447,-0.4087,2.4840,1.0154,1.0136,0.2000,0.9717,0.0271,
3.692542,0.2191,-1.1320,-0.3775,2.4840,1.0154,1.0136,0.2000,0.9717,0.0271,
3.697583,0.1917,-1.0956,-0.3132,2.4840,1.0154,1.0136,0.2000,0.9717,0.0271,
3.702864,0.1502,-1.0577,-0.2167,2.4840,1.0154,1.0136,0.2000,0.9717,0.0271,
3.707930,0.1201,-1.0267,-0.1051,2.4840,1.0154,1.0136,0.2000,0.9717,0.0271,
3.708942,0.1201,-1.0267,-0.1051,2.4840,1.0154,1.0136,0.7838,0.8375,0.2603,
3.710111,0.1201,-1.0267,-0.1051,1.0164,0.1591,-1.6802,0.7838,0.8375,0.2603,
3.711181,0.1001,-0.9829,-0.0132,1.0164,0.1591,-1.6802,0.7838,0.8375,0.2603,
3.717733,0.0967,-0.9363,0.0464,1.0164,0.1591,-1.6802,0.7838,0.8375,0.2603,
3.722964,0.1067,-0.8916,0.0926,1.0164,0.1591,-1.6802,0.7838,0.8375,0.2603,
3.727084,0.1455,-0.8491,0.1075,1.0164,0.1591,-1.6802,0.7838,0.8375,0.2603,
3.732463,0.1702,-0.8068,0.1109,1.0164,0.1591,-1.6802,0.7838,0.8375,0.2603,
3.737513,0.1895,-0.7843,0.0960,1.0164,0.1591,-1.6802,0.7838,0.8375,0.2603,
3.742209,0.2208,-0.7838,0.0542,1.0164,0.1591,-1.6802,0.7838,0.8375,0.2603,
3.747245,0.2447,-0.7951,0.0134,1.0164,0.1591,-1.6802,0.7838,0.8375,0.2603,
3.748854,0.2447,-0.7951,0.0134,1.0164,0.1591,-1.6802,0.3257,0.8939,0.2646,
3.750153,0.2447,-0.7951,0.0134,1.1111,0.1626,-1.8095,0.3257,0.8939,0.2646,
3.751860,0.2692,-0.8254,-0.0156,1.1111,0.1626,-1.8095,0.3257,0.8939,0.2646,
3.757079,0.3053,-0.8686,-0.0452,1.1111,0.1626,-1.8095,0.3257,0.8939,0.2646,
3.763357,0.3275,-0.9150,-0.0511,1.1111,0.1626,-1.8095,0.3257,0.8939,0.2646,
3.766923,0.3493,-0.9556,-0.0538,1.1111,0.1626,-1.8095,0.3257,0.8939,0.2646,
3.771754,0.3803,-0.9932,-0.0608,1.1111,0.1626,-1.8095,0.3257,0.8939,0.2646,
3.776759,0.4082,-1.0186,-0.0779,1.1111,0.1626,-1.8095,0.3257,0.8939,0.2646,
3.783624,0.4201,-1.0296,-0.0999,1.1111,0.1626,-1.8095,0.3257,0.8939,0.2646,
3.786207,0.4094,-1.0360,-0.1104,1.1111,0.1626,-1.8095,0.3257,0.8939,0.2646,
3.787454,0.4094,-1.0360,-0.1104,1.1111,0.1626,-1.8095,0.5750,1.2646,0.3551,
3.788495,0.4094,-1.0360,-0.1104,1.0691,1.1958,-0.5392,0.5750,1.2646,0.3551,
3.790619,0.3889,-1.0382,-0.1043,1.0691,1.1958,-0.5392,0.5750,1.2646,0.3551,
3.797455,0.3744,-1.0325,-0.1031,1.0691,1.1958,-0.5392,0.5750,1.2646,0.3551,
3.801899,0.3569,-1.0257,-0.1097,1.0691,1.1958,-0.5392,0.5750,1.2646,0.3551,
3.806689,0.3420,-1.0167,-0.1043,1.0691,1.1958,-0.5392,0.5750,1.2646,0.3551,
3.813647,0.3383,-0.9978,-0.0907,1.0691,1.1958,-0.5392,0.5750,1.2646,0.3551,
3.817252,0.3388,-0.9700,-0.0806,1.0691,1.1958,-0.5392,0.5750,1.2646,0.3551,
3.821453,0.3476,-0.9504,-0.0667,1.0691,1.1958,-0.5392,0.5750,1.2646,0.3551,
3.826448,0.3698,-0.9311,-0.0760,1.0691,1.1958,-0.5392,0.5750,1.2646,0.3551,
3.828504,0.3698,-0.9311,-0.0760,2.9800,0.0742,-1.7204,0.5750,1.2646,0.3551,
3.830067,0.3698,-0.9311,-0.0760,2.9800,0.0742,-1.7204,0.6762,1.1773,0.3466,
3.831562,0.3327,-0.9087,-0.0648,2.9800,0.0742,-1.7204,0.6762,1.1773,0.3466,
3.835110,0.2958,-0.9031,-0.0423,2.9800,0.0742,-1.7204,0.6762,1.1773,0.3466,
3.840227,0.2628,-0.9089,-0.0183,2.9800,0.0742,-1.7204,0.6762,1.1773,0.3466,
3.845142,0.2376,-0.9226,0.0012,2.9800,0.0742,-1.7204,0.6762,1.1773,0.3466,
3.850521,0.2330,-0.9329,0.0080,2.9800,0.0742,-1.7204,0.6762,1.1773,0.3466,
3.854804,0.2464,-0.9453,-0.0029,2.9800,0.0742,-1.7204,0.6762,1.1773,0.3466,
3.859756,0.2726,-0.9570,-0.0152,2.9800,0.0742,-1.7204,0.6762,1.1773,0.3466,
3.864932,0.2982,-0.9668,-0.0284,2.9800,0.0742,-1.7204,0.6762,1.1773,0.3466,
3.868226,0.2982,-0.9668,-0.0284,2.9800,0.0742,-1.7204,0.2874,1.0345,0.2145,
3.869614,0.2982,-0.9668,-0.0284,3.0499,0.0676,-1.8257,0.2874,1.0345,0.2145,
3.871493,0.3163,-0.9881,-0.0288,3.0499,0.0676,-1.8257,0.2874,1.0345,0.2145,
3.876352,0.3383,-1.0091,-0.0345,3.0499,0.0676,-1.8257,0.2874,1.0345,0.2145,
3.880860,0.3625,-1.0426,-0.0437,3.0499,0.0676,-1.8257,0.2874,1.0345,0.2145,
3.886762,0.3940,-1.0743,-0.0533,3.0499,0.0676,-1.8257,0.2874,1.0345,0.2145,
3.891574,0.4280,-1.0968,-0.0704,3.0499,0.0676,-1.8257,0.2874,1.0345,0.2145,
3.894340,0.4656,-1.1119,-0.0911,3.0499,0.0676,-1.8257,0.2874,1.0345,0.2145,
3.901301,0.5103,-1.1122,-0.1068,3.0499,0.0676,-1.8257,0.2874,1.0345,0.2145,
3.906551,0.5474,-1.1134,-0.1280,3.0499,0.0676,-1.8257,0.2874,1.0345,0.2145,
3.908151,0.5474,-1.1134,-0.1280,3.0499,0.0676,-1.8257,0.0104,0.5456,0.1932,
3.909544,0.5474,-1.1134,-0.1280,2.4971,0.3216,-1.2584,0.0104,0.5456,0.1932,
3.910408,0.5638,-1.1200,-0.1478,2.4971,0.3216,-1.2584,0.0104,0.5456,0.1932,
3.915841,0.5689,-1.1300,-0.1674,2.4971,0.3216,-1.2584,0.0104,0.5456,0.1932,
3.920800,0.5626,-1.1388,-0.1744,2.4971,0.3216,-1.2584,0.0104,0.5456,0.1932,
3.925218,0.5396,-1.1530,-0.1681,2.4971,0.3216,-1.2584,0.0104,0.5456,0.1932,
3.930438,0.5086,-1.1676,-0.1564,2.4971,0.3216,-1.2584,0.0104,0.5456,0.1932,
3.935406,0.4751,-1.1745,-0.1417,2.4971,0.3216,-1.2584,0.0104,0.5456,0.1932,
3.940281,0.4421,-1.1723,-0.1351,2.4971,0.3216,-1.2584,0.0104,0.5456,0.1932,
3.947537,0.4074,-1.1659,-0.1373,2.4971,0.3216,-1.2584,0.0104,0.5456,0.1932,
3.949462,0.4074,-1.1659,-0.1373,2.4971,0.3216,-1.2584,-0.4104,0.3240,0.0079,
3.951557,0.4074,-1.1659,-0.1373,2.4699,0.3306,-1.0861,-0.4104,0.3240,0.0079,
3.953031,0.3710,-1.1542,-0.1520,2.4699,0.3306,-1.0861,-0.4104,0.3240,0.0079,
3.955575,0.3417,-1.1383,-0.1705,2.4699,0.3306,-1.0861,-0.4104,0.3240,0.0079,
3.958857,0.3087,-1.1239,-0.1852,2.4699,0.3306,-1.0861,-0.4104,0.3240,0.0079,
3.965511,0.2828,-1.1154,-0.1945,2.4699,0.3306,-1.0861,-0.4104,0.3240,0.0079,
3.970527,0.2547,-1.1144,-0.2035,2.4699,0.3306,-1.0861,-0.4104,0.3240,0.0079,
3.975426,0.2303,-1.1219,-0.2116,2.4699,0.3306,-1.0861,-0.4104,0.3240,0.0079,
3.980853,0.2132,-1.1295,-0.2074,2.4699,0.3306,-1.0861,-0.4104,0.3240,0.0079,
3.985299,0.2086,-1.1383,-0.2035,2.4699,0.3306,-1.0861,-0.4104,0.3240,0.0079,
3.987340,0.2086,-1.1383,-0.2035,2.4699,0.3306,-1.0861,-1.0186,-0.1106,-0.3234,
3.989932,0.2086,-1.1383,-0.2035,3.9968,-1.2872,-1.7728,-1.0186,-0.1106,-0.3234,
3.990818,0.2056,-1.1434,-0.2050,3.9968,-1.2872,-1.7728,-1.0186,-0.1106,-0.3234,
3.995050,0.2108,-1.1483,-0.2111,3.9968,-1.2872,-1.7728,-1.0186,-0.1106,-0.3234,
3.999930,0.2183,-1.1471,-0.2167,3.9968,-1.2872,-1.7728,-1.0186,-0.1106,-0.3234,
4.004699,0.2281,-1.1364,-0.2253,3.9968,-1.2872,-1.7728,-1.0186,-0.1106,-0.3234,
4.008334,0.2428,-1.1151,-0.2399,3.9968,-1.2872,-1.7728,-1.0186,-0.1106,-0.3234,
4.014725,0.2516,-1.0895,-0.2492,3.9968,-1.2872,-1.7728,-1.0186,-0.1106,-0.3234,
4.019696,0.2689,-1.0526,-0.2516,3.9968,-1.2872,-1.7728,-1.0186,-0.1106,-0.3234,
4.024085,0.2814,-1.0169,-0.2431,3.9968,-1.2872,-1.7728,-1.0186,-0.1106,-0.3234,
4.025092,0.2814,-1.0169,-0.2431,3.9968,-1.2872,-1.7728,-1.6248,-0.8148,-0.2691,
4.025860,0.2814,-1.0169,-0.2431,1.4693,-1.0677,-1.7779,-1.6248,-0.8148,-0.2691,
4.030472,0.2909,-0.9817,-0.2416,1.4693,-1.0677,-1.7779,-1.6248,-0.8148,-0.2691,
4.034423,0.2960,-0.9482,-0.2507,1.4693,-1.0677,-1.7779,-1.6248,-0.8148,-0.2691,
4.038462,0.2909,-0.9175,-0.2536,1.4693,-1.0677,-1.7779,-1.6248,-0.8148,-0.2691,
4.043191,0.2733,-0.9006,-0.2284,1.4693,-1.0677,-1.7779,-1.6248,-0.8148,-0.2691,
4.048353,0.2313,-0.9055,-0.1832,1.4693,-1.0677,-1.7779,-1.6248,-0.8148,-0.2691,
4.053235,0.1822,-0.9180,-0.1307,1.4693,-1.0677,-1.7779,-1.6248,-0.8148,-0.2691,
4.057860,0.1331,-0.9172,-0.0560,1.4693,-1.0677,-1.7779,-1.6248,-0.8148,-0.2691,
4.065064,0.0994,-0.9145,0.0498,1.4693,-1.0677,-1.7779,-1.6248,-0.8148,-0.2691,
4.067435,0.0994,-0.9145,0.0498,1.4693,-1.0677,-1.7779,-2.2576,-1.4603,-0.2883,
4.068940,0.0994,-0.9145,0.0498,1.3802,-1.1312,-0.8255,-2.2576,-1.4603,-0.2883,
4.070497,0.0705,-0.9255,0.1436,1.3802,-1.1312,-0.8255,-2.2576,-1.4603,-0.2883,
4.074298,0.0395,-0.9370,0.2098,1.3802,-1.1312,-0.8255,-2.2576,-1.4603,-0.2883,
4.081054,0.0065,-0.9524,0.2778,1.3802,-1.1312,-0.8255,-2.2576,-1.4603,-0.2883,
4.084540,-0.0101,-0.9783,0.3325,1.3802,-1.1312,-0.8255,-2.2576,-1.4603,-0.2883,
4.089623,-0.0179,-1.0113,0.3193,1.3802,-1.1312,-0.8255,-2.2576,-1.4603,-0.2883,
4.094398,-0.0145,-1.0660,0.2673,1.3802,-1.1312,-0.8255,-2.2576,-1.4603,-0.2883,
4.097876,0.0134,-1.1168,0.2108,1.3802,-1.1312,-0.8255,-2.2576,-1.4603,-0.2883,
4.104886,0.0383,-1.1618,0.1366,1.3802,-1.1312,-0.8255,-2.2576,-1.4603,-0.2883,
4.107333,0.0383,-1.1618,0.1366,1.3802,-1.1312,-0.8255,-2.5377,-1.7565,-0.6952,
4.108863,0.0383,-1.1618,0.1366,0.5212,0.4308,1.8789,-2.5377,-1.7565,-0.6952,
4.110363,0.0669,-1.2048,0.0144,0.5212,0.4308,1.8789,-2.5377,-1.7565,-0.6952,
4.114868,0.0810,-1.2417,-0.1163,0.5212,0.4308,1.8789,-2.5377,-1.7565,-0.6952,
4.119781,0.0881,-1.2671,-0.2328,0.5212,0.4308,1.8789,-2.5377,-1.7565,-0.6952,
4.123370,0.0908,-1.2683,-0.3039,0.5212,0.4308,1.8789,-2.5377,-1.7565,-0.6952,
4.128872,0.0867,-1.2463,-0.3406,0.5212,0.4308,1.8789,-2.5377,-1.7565,-0.6952,
4.134540,0.1123,-1.2016,-0.3469,0.5212,0.4308,1.8789,-2.5377,-1.7565,-0.6952,
4.138896,0.1323,-1.1522,-0.3179,0.5212,0.4308,1.8789,-2.5377,-1.7565,-0.6952,
4.144229,0.1306,-1.0968,-0.2707,0.5212,0.4308,1.8789,-2.5377,-1.7565,-0.6952,
4.145679,0.1306,-1.0968,-0.2707,0.5212,0.4308,1.8789,-1.5396,-1.0406,-0.6888,
4.149012,0.1306,-1.0968,-0.2707,0.3629,0.2337,2.4688,-1.5396,-1.0406,-0.6888,
4.151096,0.1316,-1.0443,-0.2228,0.3629,0.2337,2.4688,-1.5396,-1.0406,-0.6888,
4.153987,0.1512,-0.9866,-0.1686,0.3629,0.2337,2.4688,-1.5396,-1.0406,-0.6888,
4.158845,0.1541,-0.9250,-0.1217,0.3629,0.2337,2.4688,-1.5396,-1.0406,-0.6888,
4.164877,0.1573,-0.8750,-0.0557,0.3629,0.2337,2.4688,-1.5396,-1.0406,-0.6888,
4.169628,0.1768,-0.8290,0.0049,0.3629,0.2337,2.4688,-1.5396,-1.0406,-0.6888,
4.172076,0.1695,-0.7821,0.0525,0.3629,0.2337,2.4688,-1.5396,-1.0406,-0.6888,
4.178160,0.1338,-0.7450,0.0716,0.3629,0.2337,2.4688,-1.5396,-1.0406,-0.6888,
4.183338,0.0852,-0.7081,0.0730,0.3629,0.2337,2.4688,-1.5396,-1.0406,-0.6888,
4.184693,0.0852,-0.7081,0.0730,0.3629,0.2337,2.4688,-0.8983,-0.1777,-0.7208,
4.185696,0.0852,-0.7081,0.0730,-0.8087,-2.0413,2.2979,-0.8983,-0.1777,-0.7208,
4.186590,0.0393,-0.6771,0.0613,-0.8087,-2.0413,2.2979,-0.8983,-0.1777,-0.7208,
4.193049,0.0011,-0.6531,0.0234,-0.8087,-2.0413,2.2979,-0.8983,-0.1777,-0.7208,
4.198345,-0.0174,-0.6341,-0.0176,-0.8087,-2.0413,2.2979,-0.8983,-0.1777,-0.7208,
4.203128,-0.0108,-0.6238,-0.0596,-0.8087,-2.0413,2.2979,-0.8983,-0.1777,-0.7208,
4.207830,0.0175,-0.6248,-0.0806,-0.8087,-2.0413,2.2979,-0.8983,-0.1777,-0.7208,
4.213196,0.0598,-0.6299,-0.0885,-0.8087,-2.0413,2.2979,-0.8983,-0.1777,-0.7208,
4.218571,0.0886,-0.6424,-0.0892,-0.8087,-2.0413,2.2979,-0.8983,-0.1777,-0.7208,
4.223455,0.1099,-0.6573,-0.1048,-0.8087,-2.0413,2.2979,-0.8983,-0.1777,-0.7208,
4.224835,0.1099,-0.6573,-0.1048,-0.8087,-2.0413,2.2979,-0.5872,-0.6656,-0.9232,
4.226450,0.1099,-0.6573,-0.1048,-0.9093,1.8493,3.1801,-0.5872,-0.6656,-0.9232,
4.227865,0.1165,-0.6795,-0.1405,-0.9093,1.8493,3.1801,-0.5872,-0.6656,-0.9232,
4.234401,0.1270,-0.6966,-0.1803,-0.9093,1.8493,3.1801,-0.5872,-0.6656,-0.9232,
4.241920,0.1355,-0.7140,-0.2033,-0.9093,1.8493,3.1801,-0.5872,-0.6656,-0.9232,
4.243599,0.1226,-0.7188,-0.2182,-0.9093,1.8493,3.1801,-0.5872,-0.6656,-0.9232,
4.246811,0.0994,-0.7171,-0.2375,-0.9093,1.8493,3.1801,-0.5872,-0.6656,-0.9232,
4.251323,0.0784,-0.7179,-0.2548,-0.9093,1.8493,3.1801,-0.5872,-0.6656,-0.9232,
4.256870,0.0456,-0.7052,-0.2668,-0.9093,1.8493,3.1801,-0.5872,-0.6656,-0.9232,
4.261717,0.0214,-0.6927,-0.2595,-0.9093,1.8493,3.1801,-0.5872,-0.6656,-0.9232,
4.264616,0.0214,-0.6927,-0.2595,-0.9093,1.8493,3.1801,0.0924,-1.0800,-0.7751,
4.266366,0.0214,-0.6927,-0.2595,-1.0246,1.7759,3.1714,0.0924,-1.0800,-0.7751,
4.268161,-0.0006,-0.6768,-0.2458,-1.0246,1.7759,3.1714,0.0924,-1.0800,-0.7751,
4.271437,-0.0233,-0.6700,-0.2382,-1.0246,1.7759,3.1714,0.0924,-1.0800,-0.7751,
4.277606,-0.0404,-0.6732,-0.2370,-1.0246,1.7759,3.1714,0.0924,-1.0800,-0.7751,
4.282292,-0.0643,-0.6854,-0.2512,-1.0246,1.7759,3.1714,0.0924,-1.0800,-0.7751,
4.287248,-0.0890,-0.7159,-0.2927,-1.0246,1.7759,3.1714,0.0924,-1.0800,-0.7751,
4.291969,-0.1183,-0.7533,-0.3315,-1.0246,1.7759,3.1714,0.0924,-1.0800,-0.7751,
4.298046,-0.1366,-0.8022,-0.4034,-1.0246,1.7759,3.1714,0.0924,-1.0800,-0.7751,
4.301524,-0.1552,-0.8610,-0.4872,-1.0246,1.7759,3.1714,0.0924,-1.0800,-0.7751,
4.302640,-0.1552,-0.8610,-0.4872,-1.0246,1.7759,3.1714,0.4323,-1.1791,-0.7272,
4.303450,-0.1552,-0.8610,-0.4872,-1.2851,2.2914,1.2969,0.4323,-1.1791,-0.7272,
4.305864,-0.1901,-0.9263,-0.5641,-1.2851,2.2914,1.2969,0.4323,-1.1791,-0.7272,
4.312407,-0.2217,-0.9969,-0.6701,-1.2851,2.2914,1.2969,0.4323,-1.1791,-0.7272,
4.316311,-0.2305,-1.0587,-0.7329,-1.2851,2.2914,1.2969,0.4323,-1.1791,-0.7272,
4.320671,-0.2180,-1.1119,-0.7173,-1.2851,2.2914,1.2969,0.4323,-1.1791,-0.7272,
4.325728,-0.1870,-1.1530,-0.6364,-1.2851,2.2914,1.2969,0.4323,-1.1791,-0.7272,
4.333084,-0.1559,-1.1852,-0.5399,-1.2851,2.2914,1.2969,0.4323,-1.1791,-0.7272,
4.335240,-0.1288,-1.1970,-0.4508,-1.2851,2.2914,1.2969,0.4323,-1.1791,-0.7272,
4.340526,-0.1264,-1.2011,-0.4178,-1.2851,2.2914,1.2969,0.4323,-1.1791,-0.7272,
4.341983,-0.1264,-1.2011,-0.4178,-1.2851,2.2914,1.2969,0.4759,-1.1013,-0.5951,
4.343254,-0.1264,-1.2011,-0.4178,-3.4845,-0.4647,-1.6387,0.4759,-1.1013,-0.5951,
4.344969,-0.1642,-1.2131,-0.4554,-3.4845,-0.4647,-1.6387,0.4759,-1.1013,-0.5951,
4.351543,-0.2324,-1.2314,-0.5306,-3.4845,-0.4647,-1.6387,0.4759,-1.1013,-0.5951,
4.356496,-0.3001,-1.2531,-0.5526,-3.4845,-0.4647,-1.6387,0.4759,-1.1013,-0.5951,
4.361311,-0.3428,-1.2734,-0.4852,-3.4845,-0.4647,-1.6387,0.4759,-1.1013,-0.5951,
4.366647,-0.3768,-1.2873,-0.3782,-3.4845,-0.4647,-1.6387,0.4759,-1.1013,-0.5951,
4.371253,-0.3939,-1.2920,-0.2797,-3.4845,-0.4647,-1.6387,0.4759,-1.1013,-0.5951,
4.376162,-0.3946,-1.2820,-0.2082,-3.4845,-0.4647,-1.6387,0.4759,-1.1013,-0.5951,
4.382259,-0.3856,-1.2561,-0.1835,-3.4845,-0.4647,-1.6387,0.4759,-1.1013,-0.5951,
4.384472,-0.3856,-1.2561,-0.1835,-3.4845,-0.4647,-1.6387,-0.0152,-0.4110,-0.3735,
4.385937,-0.3856,-1.2561,-0.1835,-3.5060,-0.4880,-1.5742,-0.0152,-0.4110,-0.3735,
4.386957,-0.3824,-1.2097,-0.1825,-3.5060,-0.4880,-1.5742,-0.0152,-0.4110,-0.3735,
4.391318,-0.3638,-1.1579,-0.1143,-3.5060,-0.4880,-1.5742,-0.0152,-0.4110,-0.3735,
4.396225,-0.3101,-1.1090,-0.0430,-3.5060,-0.4880,-1.5742,-0.0152,-0.4110,-0.3735,
4.403228,-0.2380,-1.0650,0.0080,-3.5060,-0.4880,-1.5742,-0.0152,-0.4110,-0.3735,
4.405954,-0.1928,-1.0360,0.0535,-3.5060,-0.4880,-1.5742,-0.0152,-0.4110,-0.3735,
4.409502,-0.1862,-1.0328,0.0633,-3.5060,-0.4880,-1.5742,-0.0152,-0.4110,-0.3735,
4.416268,-0.1818,-1.0435,0.0266,-3.5060,-0.4880,-1.5742,-0.0152,-0.4110,-0.3735,
4.421267,-0.1877,-1.0719,-0.0547,-3.5060,-0.4880,-1.5742,-0.0152,-0.4110,-0.3735,
4.422521,-0.1877,-1.0719,-0.0547,-3.5060,-0.4880,-1.5742,0.1446,0.8481,-0.1498,
4.423592,-0.1877,-1.0719,-0.0547,-5.1322,-2.7107,0.6625,0.1446,0.8481,-0.1498,
4.424862,-0.1750,-1.1088,-0.1708,-5.1322,-2.7107,0.6625,0.1446,0.8481,-0.1498,
4.432003,-0.1557,-1.1474,-0.2978,-5.1322,-2.7107,0.6625,0.1446,0.8481,-0.1498,
4.435495,-0.1210,-1.1977,-0.4058,-5.1322,-2.7107,0.6625,0.1446,0.8481,-0.1498,
4.440323,-0.0709,-1.2297,-0.4776,-5.1322,-2.7107,0.6625,0.1446,0.8481,-0.1498,
4.444237,-0.0018,-1.2443,-0.5082,-5.1322,-2.7107,0.6625,0.1446,0.8481,-0.1498,
4.449125,0.0674,-1.2329,-0.4906,-5.1322,-2.7107,0.6625,0.1446,0.8481,-0.1498,
4.454111,0.1240,-1.2018,-0.4356,-5.1322,-2.7107,0.6625,0.1446,0.8481,-0.1498,
4.459634,0.1719,-1.1610,-0.3701,-5.1322,-2.7107,0.6625,0.1446,0.8481,-0.1498,
4.460856,0.1719,-1.1610,-0.3701,-5.1322,-2.7107,0.6625,0.5462,1.2455,0.3733,
4.461895,0.1719,-1.1610,-0.3701,-5.0614,-2.5706,0.3558,0.5462,1.2455,0.3733,
4.465009,0.2015,-1.1215,-0.3008,-5.0614,-2.5706,0.3558,0.5462,1.2455,0.3733,
4.468408,0.2015,-1.0819,-0.2275,-5.0614,-2.5706,0.3558,0.5462,1.2455,0.3733,
4.473630,0.1851,-1.0494,-0.1642,-5.0614,-2.5706,0.3558,0.5462,1.2455,0.3733,
4.479637,0.1692,-1.0284,-0.1261,-5.0614,-2.5706,0.3558,0.5462,1.2455,0.3733,
4.485718,0.1321,-1.0091,-0.0740,-5.0614,-2.5706,0.3558,0.5462,1.2455,0.3733,
4.488590,0.0744,-0.9905,-0.0100,-5.0614,-2.5706,0.3558,0.5462,1.2455,0.3733,
4.493208,0.0036,-0.9829,0.0371,-5.0614,-2.5706,0.3558,0.5462,1.2455,0.3733,
4.499898,-0.0558,-0.9893,0.0513,-5.0614,-2.5706,0.3558,0.5462,1.2455,0.3733,
4.501486,-0.0558,-0.9893,0.0513,-2.1771,-1.8710,-0.1004,0.5462,1.2455,0.3733,
4.502425,-0.0558,-0.9893,0.0513,-2.1771,-1.8710,-0.1004,0.3619,1.2774,0.4073,
4.503624,-0.0895,-1.0032,0.0452,-2.1771,-1.8710,-0.1004,0.3619,1.2774,0.4073,
4.508196,-0.1186,-1.0191,0.0215,-2.1771,-1.8710,-0.1004,0.3619,1.2774,0.4073,
4.513519,-0.1442,-1.0228,0.0063,-2.1771,-1.8710,-0.1004,0.3619,1.2774,0.4073,
4.520488,-0.1357,-1.0352,-0.0213,-2.1771,-1.8710,-0.1004,0.3619,1.2774,0.4073,
4.525219,-0.1188,-1.0396,-0.0320,-2.1771,-1.8710,-0.1004,0.3619,1.2774,0.4073,
4.532458,-0.1107,-1.0384,-0.0142,-2.1771,-1.8710,-0.1004,0.3619,1.2774,0.4073,
4.536302,-0.0958,-1.0445,0.0095,-2.1771,-1.8710,-0.1004,0.3619,1.2774,0.4073,
4.540124,-0.0707,-1.0533,0.0315,-2.1771,-1.8710,-0.1004,0.3619,1.2774,0.4073,
4.541191,-0.0707,-1.0533,0.0315,-2.1771,-1.8710,-0.1004,0.4418,1.9784,0.1602,
4.542024,-0.0707,-1.0533,0.0315,-2.2674,-0.5816,2.0902,0.4418,1.9784,0.1602,
4.543914,-0.0695,-1.0526,0.0718,-2.2674,-0.5816,2.0902,0.4418,1.9784,0.1602,
4.549931,-0.0448,-1.0438,0.1063,-2.2674,-0.5816,2.0902,0.4418,1.9784,0.1602,
4.554785,-0.0020,-1.0311,0.1204,-2.2674,-0.5816,2.0902,0.4418,1.9784,0.1602,
4.559676,0.0488,-1.0240,0.1199,-2.2674,-0.5816,2.0902,0.4418,1.9784,0.1602,
4.566714,0.1003,-1.0020,0.1111,-2.2674,-0.5816,2.0902,0.4418,1.9784,0.1602,
4.570409,0.1587,-0.9834,0.0821,-2.2674,-0.5816,2.0902,0.4418,1.9784,0.1602,
4.574237,0.2266,-0.9702,0.0288,-2.2674,-0.5816,2.0902,0.4418,1.9784,0.1602,
4.580000,0.2907,-0.9614,-0.0342,-2.2674,-0.5816,2.0902,0.4418,1.9784,0.1602,
4.582017,0.2907,-0.9614,-0.0342,-2.2674,-0.5816,2.0902,0.6357,2.0167,0.4489,
4.583709,0.2907,-0.9614,-0.0342,-2.2292,-0.4844,1.6603,0.6357,2.0167,0.4489,
4.584751,0.3385,-0.9519,-0.1021,-2.2292,-0.4844,1.6603,0.6357,2.0167,0.4489,
4.589554,0.3774,-0.9446,-0.1691,-2.2292,-0.4844,1.6603,0.6357,2.0167,0.4489,
4.594664,0.3945,-0.9319,-0.1991,-2.2292,-0.4844,1.6603,0.6357,2.0167,0.4489,
4.599266,0.3845,-0.9204,-0.1806,-2.2292,-0.4844,1.6603,0.6357,2.0167,0.4489,
4.604383,0.3872,-0.9184,-0.1244,-2.2292,-0.4844,1.6603,0.6357,2.0167,0.4489,
4.609261,0.3801,-0.9214,-0.0660,-2.2292,-0.4844,1.6603,0.6357,2.0167,0.4489,
4.612489,0.3698,-0.9468,-0.0244,-2.2292,-0.4844,1.6603,0.6357,2.0167,0.4489,
4.620067,0.3708,-0.9817,-0.0005,-2.2292,-0.4844,1.6603,0.6357,2.0167,0.4489,
4.621495,0.3708,-0.9817,-0.0005,-2.2292,-0.4844,1.6603,0.5963,1.9784,0.6566,
4.622717,0.3708,-0.9817,-0.0005,-0.2696,-0.1044,1.4513,0.5963,1.9784,0.6566,
4.623772,0.3669,-1.0191,-0.0015,-0.2696,-0.1044,1.4513,0.5963,1.9784,0.6566,
4.629038,0.3615,-1.0533,0.0058,-0.2696,-0.1044,1.4513,0.5963,1.9784,0.6566,
4.633121,0.3715,-1.0829,0.0088,-0.2696,-0.1044,1.4513,0.5963,1.9784,0.6566,
4.638625,0.3779,-1.0929,0.0313,-0.2696,-0.1044,1.4513,0.5963,1.9784,0.6566,
4.643393,0.3603,-1.0877,0.0713,-0.2696,-0.1044,1.4513,0.5963,1.9784,0.6566,
4.647761,0.3564,-1.0809,0.1138,-0.2696,-0.1044,1.4513,0.5963,1.9784,0.6566,
4.652071,0.3532,-1.0728,0.1568,-0.2696,-0.1044,1.4513,0.5963,1.9784,0.6566,
4.657800,0.3564,-1.0582,0.2025,-0.2696,-0.1044,1.4513,0.5963,1.9784,0.6566,
4.658957,0.3564,-1.0582,0.2025,-0.2696,-0.1044,1.4513,0.0392,1.9986,0.4851,
4.660962,0.3564,-1.0582,0.2025,-0.1893,-0.0656,1.2695,0.0392,1.9986,0.4851,
4.662104,0.3605,-1.0462,0.2416,-0.1893,-0.0656,1.2695,0.0392,1.9986,0.4851,
4.668813,0.3825,-1.0357,0.2673,-0.1893,-0.0656,1.2695,0.0392,1.9986,0.4851,
4.671922,0.4094,-1.0247,0.2670,-0.1893,-0.0656,1.2695,0.0392,1.9986,0.4851,
4.676639,0.4338,-1.0171,0.2404,-0.1893,-0.0656,1.2695,0.0392,1.9986,0.4851,
4.685246,0.4575,-1.0066,0.1967,-0.1893,-0.0656,1.2695,0.0392,1.9986,0.4851,
4.687866,0.4578,-0.9952,0.1625,-0.1893,-0.0656,1.2695,0.0392,1.9986,0.4851,
4.693646,0.4409,-0.9983,0.1107,-0.1893,-0.0656,1.2695,0.0392,1.9986,0.4851,
4.699121,0.4192,-1.0123,0.0342,-0.1893,-0.0656,1.2695,0.0392,1.9986,0.4851,
4.700740,0.4192,-1.0123,0.0342,-0.1893,-0.0656,1.2695,0.1851,1.8836,0.3764,
4.701688,0.4192,-1.0123,0.0342,1.8250,-0.3947,1.5148,0.1851,1.8836,0.3764,
4.703641,0.3810,-1.0291,-0.0535,1.8250,-0.3947,1.5148,0.1851,1.8836,0.3764,
4.708548,0.3263,-1.0501,-0.1317,1.8250,-0.3947,1.5148,0.1851,1.8836,0.3764,
4.714878,0.2557,-1.0702,-0.2062,1.8250,-0.3947,1.5148,0.1851,1.8836,0.3764,
4.718983,0.1751,-1.0895,-0.2678,1.8250,-0.3947,1.5148,0.1851,1.8836,0.3764,
4.723829,0.0984,-1.0985,-0.3166,1.8250,-0.3947,1.5148,0.1851,1.8836,0.3764,
4.728632,0.0246,-1.0980,-0.3438,1.8250,-0.3947,1.5148,0.1851,1.8836,0.3764,
4.735236,-0.0304,-1.0939,-0.3416,1.8250,-0.3947,1.5148,0.1851,1.8836,0.3764,
4.738097,-0.0663,-1.0855,-0.3242,1.8250,-0.3947,1.5148,0.1851,1.8836,0.3764,
4.739260,-0.0663,-1.0855,-0.3242,1.8250,-0.3947,1.5148,0.5878,1.8271,0.2785,
4.740615,-0.0663,-1.0855,-0.3242,1.4585,-0.4700,0.6562,0.5878,1.8271,0.2785,
4.743298,-0.0741,-1.0614,-0.2714,1.4585,-0.4700,0.6562,0.5878,1.8271,0.2785,
4.750246,-0.0751,-1.0228,-0.1664,1.4585,-0.4700,0.6562,0.5878,1.8271,0.2785,
4.753349,-0.0331,-0.9966,-0.0420,1.4585,-0.4700,0.6562,0.5878,1.8271,0.2785,
4.758515,0.0007,-0.9859,0.0652,1.4585,-0.4700,0.6562,0.5878,1.8271,0.2785,
4.762796,0.0407,-0.9768,0.1444,1.4585,-0.4700,0.6562,0.5878,1.8271,0.2785,
4.768961,0.0930,-0.9656,0.2106,1.4585,-0.4700,0.6562,0.5878,1.8271,0.2785,
4.773509,0.1658,-0.9585,0.2492,1.4585,-0.4700,0.6562,0.5878,1.8271,0.2785,
4.779082,0.2262,-0.9314,0.2883,1.4585,-0.4700,0.6562,0.5878,1.8271,0.2785,
4.783184,0.2262,-0.9314,0.2883,1.4585,-0.4700,0.6562,0.0029,1.6705,0.4958,
4.785671,0.2262,-0.9314,0.2883,1.5827,-0.4294,0.5342,0.0029,1.6705,0.4958,
4.787329,0.2870,-0.9175,0.3100,1.5827,-0.4294,0.5342,0.0029,1.6705,0.4958,
4.788408,0.3681,-0.9194,0.2990,1.5827,-0.4294,0.5342,0.0029,1.6705,0.4958,
4.792422,0.4473,-0.9307,0.2670,1.5827,-0.4294,0.5342,0.0029,1.6705,0.4958,
4.797820,0.5196,-0.9448,0.2128,1.5827,-0.4294,0.5342,0.0029,1.6705,0.4958,
4.802886,0.5860,-0.9668,0.1397,1.5827,-0.4294,0.5342,0.0029,1.6705,0.4958,
4.807872,0.6385,-0.9898,0.0547,1.5827,-0.4294,0.5342,0.0029,1.6705,0.4958,
4.812797,0.6825,-0.9971,-0.0169,1.5827,-0.4294,0.5342,0.0029,1.6705,0.4958,
4.817859,0.7204,-0.9969,-0.0674,1.5827,-0.4294,0.5342,0.0029,1.6705,0.4958,
4.820374,0.7204,-0.9969,-0.0674,1.5827,-0.4294,0.5342,-0.1643,1.6961,1.0135,
4.821992,0.7204,-0.9969,-0.0674,-0.2516,0.1353,1.0314,-0.1643,1.6961,1.0135,
4.823127,0.7394,-0.9905,-0.0985,-0.2516,0.1353,1.0314,-0.1643,1.6961,1.0135,
4.827358,0.7573,-0.9695,-0.1112,-0.2516,0.1353,1.0314,-0.1643,1.6961,1.0135,
4.833504,0.7580,-0.9382,-0.1112,-0.2516,0.1353,1.0314,-0.1643,1.6961,1.0135,
4.836809,0.7328,-0.9094,-0.0946,-0.2516,0.1353,1.0314,-0.1643,1.6961,1.0135,
4.841422,0.6972,-0.8776,-0.0721,-0.2516,0.1353,1.0314,-0.1643,1.6961,1.0135,
4.846286,0.6610,-0.8403,-0.0635,-0.2516,0.1353,1.0314,-0.1643,1.6961,1.0135,
4.850430,0.6214,-0.8046,-0.0601,-0.2516,0.1353,1.0314,-0.1643,1.6961,1.0135,
4.855578,0.5880,-0.7704,-0.0753,-0.2516,0.1353,1.0314,-0.1643,1.6961,1.0135,
4.856739,0.5880,-0.7704,-0.0753,-0.2516,0.1353,1.0314,0.2277,1.4766,1.0071,
4.857521,0.5880,-0.7704,-0.0753,5.5635,0.8096,0.0845,0.2277,1.4766,1.0071,
4.859916,0.5670,-0.7489,-0.0992,5.5635,0.8096,0.0845,0.2277,1.4766,1.0071,
4.866450,0.5601,-0.7403,-0.1173,5.5635,0.8096,0.0845,0.2277,1.4766,1.0071,
4.869952,0.5692,-0.7399,-0.1295,5.5635,0.8096,0.0845,0.2277,1.4766,1.0071,
4.874513,0.5870,-0.7567,-0.1263,5.5635,0.8096,0.0845,0.2277,1.4766,1.0071,
4.880098,0.6146,-0.7875,-0.1117,5.5635,0.8096,0.0845,0.2277,1.4766,1.0071,
4.887382,0.6625,-0.8239,-0.0887,5.5635,0.8096,0.0845,0.2277,1.4766,1.0071,
4.891223,0.7165,-0.8620,-0.0743,5.5635,0.8096,0.0845,0.2277,1.4766,1.0071,
4.896649,0.7622,-0.8950,-0.0679,5.5635,0.8096,0.0845,0.2277,1.4766,1.0071,
4.897634,0.7622,-0.8950,-0.0679,5.5635,0.8096,0.0845,-0.1441,0.6702,0.6907,
4.899037,0.7622,-0.8950,-0.0679,5.7270,0.8174,0.1155,-0.1441,0.6702,0.6907,
4.901758,0.8017,-0.9106,-0.0704,5.7270,0.8174,0.1155,-0.1441,0.6702,0.6907,
4.906510,0.8276,-0.9131,-0.0733,5.7270,0.8174,0.1155,-0.1441,0.6702,0.6907,
4.911692,0.8355,-0.9094,-0.0762,5.7270,0.8174,0.1155,-0.1441,0.6702,0.6907,
4.917905,0.8142,-0.9077,-0.0838,5.7270,0.8174,0.1155,-0.1441,0.6702,0.6907,
4.921925,0.7649,-0.9092,-0.0933,5.7270,0.8174,0.1155,-0.1441,0.6702,0.6907,
4.926678,0.6952,-0.9140,-0.1173,5.7270,0.8174,0.1155,-0.1441,0.6702,0.6907,
4.931491,0.6097,-0.9241,-0.1647,5.7270,0.8174,0.1155,-0.1441,0.6702,0.6907,
4.936669,0.5127,-0.9326,-0.2311,5.7270,0.8174,0.1155,-0.1441,0.6702,0.6907,
4.938515,0.5127,-0.9326,-0.2311,5.7270,0.8174,0.1155,-0.5371,-0.2363,0.2987,
4.939993,0.5127,-0.9326,-0.2311,6.0336,1.6117,-0.3023,-0.5371,-0.2363,0.2987,
4.941407,0.4123,-0.9451,-0.3147,6.0336,1.6117,-0.3023,-0.5371,-0.2363,0.2987,
4.946440,0.3075,-0.9614,-0.3968,6.0336,1.6117,-0.3023,-0.5371,-0.2363,0.2987,
4.951076,0.2115,-0.9759,-0.4688,6.0336,1.6117,-0.3023,-0.5371,-0.2363,0.2987,
4.955809,0.1194,-1.0032,-0.5226,6.0336,1.6117,-0.3023,-0.5371,-0.2363,0.2987,
4.960786,0.0393,-1.0335,-0.5490,6.0336,1.6117,-0.3023,-0.5371,-0.2363,0.2987,
4.964732,-0.0172,-1.0533,-0.5536,6.0336,1.6117,-0.3023,-0.5371,-0.2363,0.2987,
4.971336,-0.0580,-1.0653,-0.5265,6.0336,1.6117,-0.3023,-0.5371,-0.2363,0.2987,
4.974403,-0.0836,-1.0721,-0.4732,6.0336,1.6117,-0.3023,-0.5371,-0.2363,0.2987,
4.975555,-0.0836,-1.0721,-0.4732,6.0336,1.6117,-0.3023,-0.7300,-0.7860,-0.4118,
4.976759,-0.0836,-1.0721,-0.4732,5.7994,1.5489,0.0087,-0.7300,-0.7860,-0.4118,
4.980186,-0.0885,-1.0697,-0.4080,5.7994,1.5489,0.0087,-0.7300,-0.7860,-0.4118,
4.985214,-0.0907,-1.0706,-0.3411,5.7994,1.5489,0.0087,-0.7300,-0.7860,-0.4118,
4.991247,-0.0824,-1.0589,-0.2729,5.7994,1.5489,0.0087,-0.7300,-0.7860,-0.4118,
4.995807,-0.0736,-1.0457,-0.2055,5.7994,1.5489,0.0087,-0.7300,-0.7860,-0.4118,
5.000502,-0.0756,-1.0379,-0.1591,5.7994,1.5489,0.0087,-0.7300,-0.7860,-0.4118,
5.005902,-0.0949,-1.0308,-0.1185,5.7994,1.5489,0.0087,-0.7300,-0.7860,-0.4118,
5.011058,-0.1198,-1.0252,-0.0860,5.7994,1.5489,0.0087,-0.7300,-0.7860,-0.4118,
5.015791,-0.1376,-1.0213,-0.0635,5.7994,1.5489,0.0087,-0.7300,-0.7860,-0.4118,
5.017076,-0.1376,-1.0213,-0.0635,5.7994,1.5489,0.0087,-1.5960,-1.0576,-0.4981,
5.018543,-0.1376,-1.0213,-0.0635,0.7368,-0.1458,-2.1983,-1.5960,-1.0576,-0.4981,
5.019946,-0.1535,-1.0218,-0.0655,0.7368,-0.1458,-2.1983,-1.5960,-1.0576,-0.4981,
5.028226,-0.1784,-1.0269,-0.0882,0.7368,-0.1458,-2.1983,-1.5960,-1.0576,-0.4981,
5.030853,-0.1960,-1.0281,-0.1241,0.7368,-0.1458,-2.1983,-1.5960,-1.0576,-0.4981,
5.035288,-0.2209,-1.0323,-0.1652,0.7368,-0.1458,-2.1983,-1.5960,-1.0576,-0.4981,
5.041026,-0.2524,-1.0308,-0.2006,0.7368,-0.1458,-2.1983,-1.5960,-1.0576,-0.4981,
5.044940,-0.2610,-1.0201,-0.2280,0.7368,-0.1458,-2.1983,-1.5960,-1.0576,-0.4981,
5.053549,-0.2585,-1.0091,-0.2260,0.7368,-0.1458,-2.1983,-1.5960,-1.0576,-0.4981,
5.054823,-0.2458,-0.9893,-0.1935,0.7368,-0.1458,-2.1983,-1.5960,-1.0576,-0.4981,
5.055343,-0.2458,-0.9893,-0.1935,0.7368,-0.1458,-2.1983,-2.1350,-1.4688,-0.3575,
5.056336,-0.2458,-0.9893,-0.1935,-2.7558,-0.6050,0.9770,-2.1350,-1.4688,-0.3575,
5.058310,-0.2156,-0.9732,-0.1424,-2.7558,-0.6050,0.9770,-2.1350,-1.4688,-0.3575,
5.063326,-0.1987,-0.9478,-0.0924,-2.7558,-0.6050,0.9770,-2.1350,-1.4688,-0.3575,
5.070016,-0.1484,-0.9307,-0.0542,-2.7558,-0.6050,0.9770,-2.1350,-1.4688,-0.3575,
5.072852,-0.0939,-0.9094,-0.0235,-2.7558,-0.6050,0.9770,-2.1350,-1.4688,-0.3575,
5.077684,-0.0477,-0.8930,0.0083,-2.7558,-0.6050,0.9770,-2.1350,-1.4688,-0.3575,
5.084547,-0.0076,-0.8928,0.0364,-2.7558,-0.6050,0.9770,-2.1350,-1.4688,-0.3575,
5.089436,0.0043,-0.8833,0.0618,-2.7558,-0.6050,0.9770,-2.1350,-1.4688,-0.3575,
5.094784,0.0224,-0.8847,0.0689,-2.7558,-0.6050,0.9770,-2.1350,-1.4688,-0.3575,
5.095740,0.0224,-0.8847,0.0689,-2.7558,-0.6050,0.9770,-1.9742,-1.5296,-0.1541,
5.097258,0.0224,-0.8847,0.0689,-2.5937,-0.8239,1.7485,-1.9742,-1.5296,-0.1541,
5.099697,0.0373,-0.8906,0.0696,-2.5937,-0.8239,1.7485,-1.9742,-1.5296,-0.1541,
5.106397,0.0490,-0.8852,0.0652,-2.5937,-0.8239,1.7485,-1.9742,-1.5296,-0.1541,
5.108909,0.0661,-0.8881,0.0586,-2.5937,-0.8239,1.7485,-1.9742,-1.5296,-0.1541,
5.113929,0.0539,-0.8891,0.0506,-2.5937,-0.8239,1.7485,-1.9742,-1.5296,-0.1541,
5.119450,0.0300,-0.8965,0.0252,-2.5937,-0.8239,1.7485,-1.9742,-1.5296,-0.1541,
5.124326,0.0434,-0.9087,-0.0142,-2.5937,-0.8239,1.7485,-1.9742,-1.5296,-0.1541,
5.128943,0.0576,-0.9111,-0.0418,-2.5937,-0.8239,1.7485,-1.9742,-1.5296,-0.1541,
5.135353,0.0867,-0.9121,-0.0633,-2.5937,-0.8239,1.7485,-1.9742,-1.5296,-0.1541,
5.137854,0.0867,-0.9121,-0.0633,-2.5937,-0.8239,1.7485,-1.3499,-0.5175,-0.1881,
5.138966,0.0867,-0.9121,-0.0633,-1.5250,0.1331,3.6424,-1.3499,-0.5175,-0.1881,
5.140340,0.1360,-0.9023,-0.0809,-1.5250,0.1331,3.6424,-1.3499,-0.5175,-0.1881,
5.144482,0.1888,-0.8906,-0.0867,-1.5250,0.1331,3.6424,-1.3499,-0.5175,-0.1881,
5.150319,0.2296,-0.8796,-0.0894,-1.5250,0.1331,3.6424,-1.3499,-0.5175,-0.1881,
5.154342,0.2674,-0.8737,-0.0885,-1.5250,0.1331,3.6424,-1.3499,-0.5175,-0.1881,
5.159301,0.2748,-0.8664,-0.0806,-1.5250,0.1331,3.6424,-1.3499,-0.5175,-0.1881,
5.164844,0.2941,-0.8740,-0.0816,-1.5250,0.1331,3.6424,-1.3499,-0.5175,-0.1881,
5.169851,0.2965,-0.8691,-0.0828,-1.5250,0.1331,3.6424,-1.3499,-0.5175,-0.1881,
5.174508,0.2843,-0.8671,-0.0784,-1.5250,0.1331,3.6424,-1.3499,-0.5175,-0.1881,
5.176262,0.2843,-0.8671,-0.0784,-1.5250,0.1331,3.6424,-0.3837,0.0726,-0.6217,
5.179217,0.2843,-0.8671,-0.0784,-1.7289,0.0481,3.7132,-0.3837,0.0726,-0.6217,
5.180527,0.2594,-0.8657,-0.1041,-1.7289,0.0481,3.7132,-0.3837,0.0726,-0.6217,
5.184471,0.2029,-0.8735,-0.1679,-1.7289,0.0481,3.7132,-0.3837,0.0726,-0.6217,
5.189257,0.1231,-0.9035,-0.2536,-1.7289,0.0481,3.7132,-0.3837,0.0726,-0.6217,
5.194037,0.0481,-0.9434,-0.3352,-1.7289,0.0481,3.7132,-0.3837,0.0726,-0.6217,
5.200369,-0.0116,-0.9832,-0.4178,-1.7289,0.0481,3.7132,-0.3837,0.0726,-0.6217,
5.204792,-0.0575,-1.0413,-0.4957,-1.7289,0.0481,3.7132,-0.3837,0.0726,-0.6217,
5.208067,-0.0988,-1.1053,-0.6008,-1.7289,0.0481,3.7132,-0.3837,0.0726,-0.6217,
5.213806,-0.1362,-1.1664,-0.7322,-1.7289,0.0481,3.7132,-0.3837,0.0726,-0.6217,
5.215315,-0.1362,-1.1664,-0.7322,-1.7289,0.0481,3.7132,0.4514,-0.4025,-1.1128,
5.219143,-0.1362,-1.1664,-0.7322,0.3207,0.3061,2.9362,0.4514,-0.4025,-1.1128,
5.221197,-0.1642,-1.2133,-0.8504,0.3207,0.3061,2.9362,0.4514,-0.4025,-1.1128,
5.224040,-0.1694,-1.2356,-0.8864,0.3207,0.3061,2.9362,0.4514,-0.4025,-1.1128,
5.228941,-0.1476,-1.2133,-0.7796,0.3207,0.3061,2.9362,0.4514,-0.4025,-1.1128,
5.234816,-0.1066,-1.1691,-0.5314,0.3207,0.3061,2.9362,0.4514,-0.4025,-1.1128,
5.238459,-0.1132,-1.1031,-0.1930,0.3207,0.3061,2.9362,0.4514,-0.4025,-1.1128,
5.243005,-0.1711,-1.0472,0.0901,0.3207,0.3061,2.9362,0.4514,-0.4025,-1.1128,
5.248108,-0.2629,-1.0149,0.2357,0.3207,0.3061,2.9362,0.4514,-0.4025,-1.1128,
5.253074,-0.3819,-1.0054,0.2768,0.3207,0.3061,2.9362,0.4514,-0.4025,-1.1128,
5.254738,-0.3819,-1.0054,0.2768,0.3207,0.3061,2.9362,1.1161,-1.3857,-1.0254,
5.255561,-0.3819,-1.0054,0.2768,-2.2695,-1.4540,-1.3360,1.1161,-1.3857,-1.0254,
5.256841,-0.5075,-1.0057,0.2533,-2.2695,-1.4540,-1.3360,1.1161,-1.3857,-1.0254,
5.261486,-0.6402,-1.0127,0.2260,-2.2695,-1.4540,-1.3360,1.1161,-1.3857,-1.0254,
5.267024,-0.7728,-1.0176,0.2030,-2.2695,-1.4540,-1.3360,1.1161,-1.3857,-1.0254,
5.271421,-0.8786,-1.0213,0.1392,-2.2695,-1.4540,-1.3360,1.1161,-1.3857,-1.0254,
5.275878,-0.9702,-1.0193,0.0273,-2.2695,-1.4540,-1.3360,1.1161,-1.3857,-1.0254,
5.281022,-1.0135,-1.0267,-0.1012,-2.2695,-1.4540,-1.3360,1.1161,-1.3857,-1.0254,
5.287173,-1.0029,-1.0418,-0.2258,-2.2695,-1.4540,-1.3360,1.1161,-1.3857,-1.0254,
5.293434,-0.9245,-1.0667,-0.3005,-2.2695,-1.4540,-1.3360,1.1161,-1.3857,-1.0254,
5.294964,-0.9245,-1.0667,-0.3005,-2.2695,-1.4540,-1.3360,1.4134,-2.2795,-0.4214,
5.296581,-0.9245,-1.0667,-0.3005,-2.1054,-1.2849,-1.6749,1.4134,-2.2795,-0.4214,
5.298220,-0.8019,-1.1031,-0.2929,-2.1054,-1.2849,-1.6749,1.4134,-2.2795,-0.4214,
5.304062,-0.6714,-1.1356,-0.2446,-2.1054,-1.2849,-1.6749,1.4134,-2.2795,-0.4214,
5.307146,-0.6101,-1.1921,-0.2223,-2.1054,-1.2849,-1.6749,1.4134,-2.2795,-0.4214,
5.312471,-0.5556,-1.2299,-0.2326,-2.1054,-1.2849,-1.6749,1.4134,-2.2795,-0.4214,
5.317470,-0.4586,-1.2641,-0.3252,-2.1054,-1.2849,-1.6749,1.4134,-2.2795,-0.4214,
5.321587,-0.3638,-1.2920,-0.4271,-2.1054,-1.2849,-1.6749,1.4134,-2.2795,-0.4214,
5.326401,-0.3040,-1.3203,-0.5294,-2.1054,-1.2849,-1.6749,1.4134,-2.2795,-0.4214,
5.331389,-0.2825,-1.3533,-0.6281,-2.1054,-1.2849,-1.6749,1.4134,-2.2795,-0.4214,
5.333246,-0.2825,-1.3533,-0.6281,-2.1054,-1.2849,-1.6749,1.3100,-2.6108,-0.1658,
5.334560,-0.2825,-1.3533,-0.6281,-8.2488,-0.8816,2.5606,1.3100,-2.6108,-0.1658,
5.335870,-0.2915,-1.3865,-0.6477,-8.2488,-0.8816,2.5606,1.3100,-2.6108,-0.1658,
5.340902,-0.2717,-1.3926,-0.6164,-8.2488,-0.8816,2.5606,1.3100,-2.6108,-0.1658,
5.345921,-0.2446,-1.3677,-0.5802,-8.2488,-0.8816,2.5606,1.3100,-2.6108,-0.1658,
5.354317,-0.2363,-1.3338,-0.5050,-8.2488,-0.8816,2.5606,1.3100,-2.6108,-0.1658,
5.356826,-0.2024,-1.2842,-0.3924,-8.2488,-0.8816,2.5606,1.3100,-2.6108,-0.1658,
5.362487,-0.1550,-1.2287,-0.2922,-8.2488,-0.8816,2.5606,1.3100,-2.6108,-0.1658,
5.368530,-0.1147,-1.1698,-0.2289,-8.2488,-0.8816,2.5606,1.3100,-2.6108,-0.1658,
5.373875,-0.0609,-1.1061,-0.2003,-8.2488,-0.8816,2.5606,1.3100,-2.6108,-0.1658,
5.375659,-0.0609,-1.1061,-0.2003,-8.2488,-0.8816,2.5606,0.6293,-0.6315,-0.2052,
5.377666,-0.0609,-1.1061,-0.2003,-3.7538,-3.0878,-1.8223,0.6293,-0.6315,-0.2052,
5.378986,-0.0074,-1.0450,-0.1876,-3.7538,-3.0878,-1.8223,0.6293,-0.6315,-0.2052,
5.382077,0.0517,-0.9844,-0.1908,-3.7538,-3.0878,-1.8223,0.6293,-0.6315,-0.2052,
5.388245,0.1045,-0.9460,-0.2035,-3.7538,-3.0878,-1.8223,0.6293,-0.6315,-0.2052,
5.392767,0.1424,-0.9314,-0.2255,-3.7538,-3.0878,-1.8223,0.6293,-0.6315,-0.2052,
5.397423,0.1494,-0.9421,-0.2534,-3.7538,-3.0878,-1.8223,0.6293,-0.6315,-0.2052,
5.402010,0.1428,-0.9712,-0.2749,-3.7538,-3.0878,-1.8223,0.6293,-0.6315,-0.2052,
5.407528,0.1235,-1.0057,-0.3093,-3.7538,-3.0878,-1.8223,0.6293,-0.6315,-0.2052,
5.410706,0.0972,-1.0469,-0.3528,-3.7538,-3.0878,-1.8223,0.6293,-0.6315,-0.2052,
5.412136,0.0972,-1.0469,-0.3528,-3.7538,-3.0878,-1.8223,0.0242,0.4028,-0.2414,
5.413238,0.0972,-1.0469,-0.3528,-3.8180,-3.0448,-1.8193,0.0242,0.4028,-0.2414,
5.418039,0.0801,-1.0819,-0.3990,-3.8180,-3.0448,-1.8193,0.0242,0.4028,-0.2414,
5.422611,0.0630,-1.1083,-0.4346,-3.8180,-3.0448,-1.8193,0.0242,0.4028,-0.2414,
5.427040,0.0630,-1.1271,-0.4432,-3.8180,-3.0448,-1.8193,0.0242,0.4028,-0.2414,
5.431512,0.0962,-1.1232,-0.4124,-3.8180,-3.0448,-1.8193,0.0242,0.4028,-0.2414,
5.436590,0.1590,-1.1034,-0.3511,-3.8180,-3.0448,-1.8193,0.0242,0.4028,-0.2414,
5.441361,0.2171,-1.0753,-0.2719,-3.8180,-3.0448,-1.8193,0.0242,0.4028,-0.2414,
5.445625,0.2550,-1.0491,-0.2003,-3.8180,-3.0448,-1.8193,0.0242,0.4028,-0.2414,
5.451101,0.2740,-1.0264,-0.1534,-3.8180,-3.0448,-1.8193,0.0242,0.4028,-0.2414,
5.453077,0.2740,-1.0264,-0.1534,-3.8180,-3.0448,-1.8193,0.1883,0.1237,-0.1019,
5.454178,0.2740,-1.0264,-0.1534,-0.2406,-0.5258,-0.7028,0.1883,0.1237,-0.1019,
5.456385,0.2865,-1.0123,-0.1165,-0.2406,-0.5258,-0.7028,0.1883,0.1237,-0.1019,
5.459473,0.2689,-1.0047,-0.0789,-0.2406,-0.5258,-0.7028,0.1883,0.1237,-0.1019,
5.464626,0.2364,-1.0103,-0.0577,-0.2406,-0.5258,-0.7028,0.1883,0.1237,-0.1019,
5.469814,0.1959,-1.0225,-0.0359,-0.2406,-0.5258,-0.7028,0.1883,0.1237,-0.1019,
5.474650,0.1573,-1.0360,-0.0249,-0.2406,-0.5258,-0.7028,0.1883,0.1237,-0.1019,
5.479202,0.1272,-1.0528,-0.0310,-0.2406,-0.5258,-0.7028,0.1883,0.1237,-0.1019,
5.484150,0.1096,-1.0706,-0.0611,-0.2406,-0.5258,-0.7028,0.1883,0.1237,-0.1019,
5.490090,0.1033,-1.0926,-0.1034,-0.2406,-0.5258,-0.7028,0.1883,0.1237,-0.1019,
5.491359,0.1033,-1.0926,-0.1034,-0.2406,-0.5258,-0.7028,0.0924,-0.4142,0.1421,
5.492219,0.1033,-1.0926,-0.1034,-0.1459,-0.5023,-0.7071,0.0924,-0.4142,0.1421,
5.506364,0.0986,-1.1102,-0.1566,-0.1459,-0.5023,-0.7071,0.0924,-0.4142,0.1421,
5.508070,0.1082,-1.1083,-0.1911,-0.1459,-0.5023,-0.7071,0.0924,-0.4142,0.1421,
5.509228,0.1265,-1.0907,-0.2047,-0.1459,-0.5023,-0.7071,0.0924,-0.4142,0.1421,
5.511337,0.1514,-1.0597,-0.2104,-0.1459,-0.5023,-0.7071,0.0924,-0.4142,0.1421,
5.513822,0.1900,-1.0159,-0.2167,-0.1459,-0.5023,-0.7071,0.0924,-0.4142,0.1421,
5.520938,0.2203,-0.9751,-0.2245,-0.1459,-0.5023,-0.7071,0.0924,-0.4142,0.1421,
5.525769,0.2562,-0.9358,-0.2301,-0.1459,-0.5023,-0.7071,0.0924,-0.4142,0.1421,
5.530656,0.2909,-0.9140,-0.2201,-0.1459,-0.5023,-0.7071,0.0924,-0.4142,0.1421,
5.531733,0.2909,-0.9140,-0.2201,-0.1459,-0.5023,-0.7071,0.4024,0.1600,0.1432,
5.534410,0.2909,-0.9140,-0.2201,0.7657,-0.6412,1.0410,0.4024,0.1600,0.1432,
5.535867,0.3156,-0.9121,-0.2116,0.7657,-0.6412,1.0410,0.4024,0.1600,0.1432,
5.539960,0.3173,-0.9236,-0.1986,0.7657,-0.6412,1.0410,0.4024,0.1600,0.1432,
5.545393,0.3271,-0.9385,-0.1808,0.7657,-0.6412,1.0410,0.4024,0.1600,0.1432,
5.550347,0.3324,-0.9632,-0.1644,0.7657,-0.6412,1.0410,0.4024,0.1600,0.1432,
5.555314,0.3346,-0.9878,-0.1451,0.7657,-0.6412,1.0410,0.4024,0.1600,0.1432,
5.560361,0.3373,-1.0105,-0.1217,0.7657,-0.6412,1.0410,0.4024,0.1600,0.1432,
5.565033,0.3429,-1.0286,-0.1019,0.7657,-0.6412,1.0410,0.4024,0.1600,0.1432,
5.570651,0.3530,-1.0457,-0.0833,0.7657,-0.6412,1.0410,0.4024,0.1600,0.1432,
5.571853,0.3530,-1.0457,-0.0833,0.7657,-0.6412,1.0410,0.5388,0.6883,0.2092,
5.573186,0.3530,-1.0457,-0.0833,1.5962,0.0997,0.0891,0.5388,0.6883,0.2092,
5.574215,0.3593,-1.0511,-0.0638,1.5962,0.0997,0.0891,0.5388,0.6883,0.2092,
5.580104,0.3625,-1.0526,-0.0489,1.5962,0.0997,0.0891,0.5388,0.6883,0.2092,
5.585249,0.3556,-1.0489,-0.0257,1.5962,0.0997,0.0891,0.5388,0.6883,0.2092,
5.589943,0.3530,-1.0447,-0.0005,1.5962,0.0997,0.0891,0.5388,0.6883,0.2092,
5.594693,0.3527,-1.0320,0.0068,1.5962,0.0997,0.0891,0.5388,0.6883,0.2092,
5.600248,0.3471,-1.0103,0.0037,1.5962,0.0997,0.0891,0.5388,0.6883,0.2092,
5.604646,0.3371,-0.9754,-0.0271,1.5962,0.0997,0.0891,0.5388,0.6883,0.2092,
5.609900,0.3378,-0.9238,-0.0819,1.5962,0.0997,0.0891,0.5388,0.6883,0.2092,
5.610603,0.3378,-0.9238,-0.0819,1.5962,0.0997,0.0891,0.6922,0.5797,0.1250,
5.611065,0.3378,-0.9238,-0.0819,1.5768,0.1511,-0.1992,0.6922,0.5797,0.1250,
5.614032,0.3581,-0.8772,-0.1581,1.5768,0.1511,-0.1992,0.6922,0.5797,0.1250,
5.620284,0.3864,-0.8493,-0.2538,1.5768,0.1511,-0.1992,0.6922,0.5797,0.1250,
5.624422,0.4126,-0.8400,-0.3350,1.5768,0.1511,-0.1992,0.6922,0.5797,0.1250,
5.629612,0.4297,-0.8439,-0.3955,1.5768,0.1511,-0.1992,0.6922,0.5797,0.1250,
5.634368,0.4316,-0.8425,-0.4153,1.5768,0.1511,-0.1992,0.6922,0.5797,0.1250,
5.639419,0.4284,-0.8464,-0.4107,1.5768,0.1511,-0.1992,0.6922,0.5797,0.1250,
5.644372,0.4145,-0.8601,-0.3970,1.5768,0.1511,-0.1992,0.6922,0.5797,0.1250,
5.648575,0.3996,-0.8586,-0.3538,1.5768,0.1511,-0.1992,0.6922,0.5797,0.1250,
5.649633,0.3996,-0.8586,-0.3538,1.5768,0.1511,-0.1992,1.2440,0.5179,0.2039,
5.650160,0.3996,-0.8586,-0.3538,2.4913,0.3430,0.0242,1.2440,0.5179,0.2039,
5.653493,0.3806,-0.8466,-0.2973,2.4913,0.3430,0.0242,1.2440,0.5179,0.2039,
5.658757,0.3581,-0.8251,-0.2480,2.4913,0.3430,0.0242,1.2440,0.5179,0.2039,
5.662592,0.3378,-0.8078,-0.2082,2.4913,0.3430,0.0242,1.2440,0.5179,0.2039,
5.667732,0.2951,-0.7904,-0.1473,2.4913,0.3430,0.0242,1.2440,0.5179,0.2039,
5.672683,0.2767,-0.7799,-0.1034,2.4913,0.3430,0.0242,1.2440,0.5179,0.2039,
5.677414,0.2547,-0.7748,-0.0735,2.4913,0.3430,0.0242,1.2440,0.5179,0.2039,
5.681814,0.2342,-0.7711,-0.0594,2.4913,0.3430,0.0242,1.2440,0.5179,0.2039,
5.687259,0.2247,-0.7814,-0.0606,2.4913,0.3430,0.0242,1.2440,0.5179,0.2039,
5.688243,0.2247,-0.7814,-0.0606,2.4913,0.3430,0.0242,1.0235,-0.4654,0.4041,
5.688721,0.2247,-0.7814,-0.0606,2.6208,0.3903,-0.3521,1.0235,-0.4654,0.4041,
5.691774,0.2003,-0.7990,-0.0735,2.6208,0.3903,-0.3521,1.0235,-0.4654,0.4041,
5.698596,0.1927,-0.8080,-0.0853,2.6208,0.3903,-0.3521,1.0235,-0.4654,0.4041,
5.703796,0.2032,-0.8278,-0.1019,2.6208,0.3903,-0.3521,1.0235,-0.4654,0.4041,
5.708632,0.2188,-0.8469,-0.1229,2.6208,0.3903,-0.3521,1.0235,-0.4654,0.4041,
5.714094,0.2433,-0.8681,-0.1388,2.6208,0.3903,-0.3521,1.0235,-0.4654,0.4041,
5.718736,0.2714,-0.8877,-0.1542,2.6208,0.3903,-0.3521,1.0235,-0.4654,0.4041,
5.724032,0.2833,-0.9011,-0.1581,2.6208,0.3903,-0.3521,1.0235,-0.4654,0.4041,
5.729008,0.3002,-0.9275,-0.1566,2.6208,0.3903,-0.3521,1.0235,-0.4654,0.4041,
5.730025,0.3002,-0.9275,-0.1566,2.6208,0.3903,-0.3521,0.6996,-0.5676,0.1293,
5.730998,0.3002,-0.9275,-0.1566,2.2636,1.8964,-1.6225,0.6996,-0.5676,0.1293,
5.734456,0.3205,-0.9568,-0.1622,2.2636,1.8964,-1.6225,0.6996,-0.5676,0.1293,
5.738841,0.3366,-0.9842,-0.1759,2.2636,1.8964,-1.6225,0.6996,-0.5676,0.1293,
5.743901,0.3522,-1.0186,-0.1879,2.2636,1.8964,-1.6225,0.6996,-0.5676,0.1293,
5.748997,0.3608,-1.0548,-0.2047,2.2636,1.8964,-1.6225,0.6996,-0.5676,0.1293,
5.753489,0.3701,-1.0890,-0.2262,2.2636,1.8964,-1.6225,0.6996,-0.5676,0.1293,
5.758740,0.3698,-1.1063,-0.2485,2.2636,1.8964,-1.6225,0.6996,-0.5676,0.1293,
5.763400,0.3683,-1.1097,-0.2663,2.2636,1.8964,-1.6225,0.6996,-0.5676,0.1293,
5.769431,0.3710,-1.0995,-0.2807,2.2636,1.8964,-1.6225,0.6996,-0.5676,0.1293,
5.771031,0.3710,-1.0995,-0.2807,2.2636,1.8964,-1.6225,0.6283,-0.5719,0.0313,
5.772863,0.3710,-1.0995,-0.2807,1.9405,0.6210,-1.2796,0.6283,-0.5719,0.0313,
5.773933,0.3605,-1.0870,-0.2783,1.9405,0.6210,-1.2796,0.6283,-0.5719,0.0313,
5.777962,0.3358,-1.0777,-0.2448,1.9405,0.6210,-1.2796,0.6283,-0.5719,0.0313,
5.784550,0.3085,-1.0736,-0.1779,1.9405,0.6210,-1.2796,0.6283,-0.5719,0.0313,
5.788677,0.2757,-1.0782,-0.1002,1.9405,0.6210,-1.2796,0.6283,-0.5719,0.0313,
5.793320,0.2389,-1.0755,-0.0425,1.9405,0.6210,-1.2796,0.6283,-0.5719,0.0313,
5.798227,0.1971,-1.0765,-0.0003,1.9405,0.6210,-1.2796,0.6283,-0.5719,0.0313,
5.803296,0.1617,-1.0711,0.0359,1.9405,0.6210,-1.2796,0.6283,-0.5719,0.0313,
5.808583,0.1277,-1.0716,0.0664,1.9405,0.6210,-1.2796,0.6283,-0.5719,0.0313,
5.810080,0.1277,-1.0716,0.0664,1.9405,0.6210,-1.2796,-0.2538,-1.0907,-0.0816,
5.810959,0.1277,-1.0716,0.0664,1.8923,0.6037,-1.1203,-0.2538,-1.0907,-0.0816,
5.813136,0.0947,-1.0697,0.1033,1.8923,0.6037,-1.1203,-0.2538,-1.0907,-0.0816,
5.818296,0.0605,-1.0594,0.1432,1.8923,0.6037,-1.1203,-0.2538,-1.0907,-0.0816,
5.823120,0.0292,-1.0506,0.1796,1.8923,0.6037,-1.1203,-0.2538,-1.0907,-0.0816,
5.828539,0.0009,-1.0477,0.1949,1.8923,0.6037,-1.1203,-0.2538,-1.0907,-0.0816,
5.833246,-0.0262,-1.0445,0.2020,1.8923,0.6037,-1.1203,-0.2538,-1.0907,-0.0816,
5.837988,-0.0489,-1.0413,0.2011,1.8923,0.6037,-1.1203,-0.2538,-1.0907,-0.0816,
5.842919,-0.0687,-1.0416,0.1913,1.8923,0.6037,-1.1203,-0.2538,-1.0907,-0.0816,
5.848606,-0.0773,-1.0465,0.1788,1.8923,0.6037,-1.1203,-0.2538,-1.0907,-0.0816,
5.850269,-0.0773,-1.0465,0.1788,1.8923,0.6037,-1.1203,-0.9888,-1.1546,-0.3660,
5.851540,-0.0773,-1.0465,0.1788,1.0889,-0.7259,0.2585,-0.9888,-1.1546,-0.3660,
5.852825,-0.0785,-1.0474,0.1590,1.0889,-0.7259,0.2585,-0.9888,-1.1546,-0.3660,
5.857562,-0.0695,-1.0513,0.1295,1.0889,-0.7259,0.2585,-0.9888,-1.1546,-0.3660,
5.862528,-0.0472,-1.0450,0.0877,1.0889,-0.7259,0.2585,-0.9888,-1.1546,-0.3660,
5.866664,-0.0289,-1.0367,0.0579,1.0889,-0.7259,0.2585,-0.9888,-1.1546,-0.3660,
5.871030,-0.0155,-1.0281,0.0300,1.0889,-0.7259,0.2585,-0.9888,-1.1546,-0.3660,
5.875891,-0.0069,-1.0130,0.0061,1.0889,-0.7259,0.2585,-0.9888,-1.1546,-0.3660,
5.880673,-0.0072,-0.9978,-0.0166,1.0889,-0.7259,0.2585,-0.9888,-1.1546,-0.3660,
5.886084,-0.0074,-0.9773,-0.0288,1.0889,-0.7259,0.2585,-0.9888,-1.1546,-0.3660,
5.887104,-0.0074,-0.9773,-0.0288,1.0889,-0.7259,0.2585,-0.8290,-0.4920,-0.3884,
5.888111,-0.0074,-0.9773,-0.0288,-1.5860,-0.3353,2.2653,-0.8290,-0.4920,-0.3884,
5.890477,-0.0072,-0.9595,-0.0291,-1.5860,-0.3353,2.2653,-0.8290,-0.4920,-0.3884,
5.895217,-0.0138,-0.9348,-0.0249,-1.5860,-0.3353,2.2653,-0.8290,-0.4920,-0.3884,
5.902261,-0.0208,-0.9121,-0.0210,-1.5860,-0.3353,2.2653,-0.8290,-0.4920,-0.3884,
5.907342,-0.0252,-0.8850,-0.0257,-1.5860,-0.3353,2.2653,-0.8290,-0.4920,-0.3884,
5.910577,-0.0328,-0.8561,-0.0379,-1.5860,-0.3353,2.2653,-0.8290,-0.4920,-0.3884,
5.917462,-0.0472,-0.8305,-0.0547,-1.5860,-0.3353,2.2653,-0.8290,-0.4920,-0.3884,
5.921838,-0.0643,-0.8063,-0.0687,-1.5860,-0.3353,2.2653,-0.8290,-0.4920,-0.3884,
5.927281,-0.0800,-0.7860,-0.0872,-1.5860,-0.3353,2.2653,-0.8290,-0.4920,-0.3884,
5.928545,-0.0800,-0.7860,-0.0872,-1.5860,-0.3353,2.2653,-0.6948,-0.5069,-0.3256,
5.929557,-0.0800,-0.7860,-0.0872,-1.6564,-0.3828,2.5169,-0.6948,-0.5069,-0.3256,
5.930912,-0.0900,-0.7789,-0.1012,-1.6564,-0.3828,2.5169,-0.6948,-0.5069,-0.3256,
5.936830,-0.1000,-0.7765,-0.1256,-1.6564,-0.3828,2.5169,-0.6948,-0.5069,-0.3256,
5.941988,-0.1154,-0.7870,-0.1503,-1.6564,-0.3828,2.5169,-0.6948,-0.5069,-0.3256,
5.946727,-0.1281,-0.8073,-0.1784,-1.6564,-0.3828,2.5169,-0.6948,-0.5069,-0.3256,
5.951833,-0.1340,-0.8322,-0.1962,-1.6564,-0.3828,2.5169,-0.6948,-0.5069,-0.3256,
5.957082,-0.1398,-0.8608,-0.2206,-1.6564,-0.3828,2.5169,-0.6948,-0.5069,-0.3256,
5.961473,-0.1347,-0.8894,-0.2446,-1.6564,-0.3828,2.5169,-0.6948,-0.5069,-0.3256,
5.966729,-0.1227,-0.9143,-0.2731,-1.6564,-0.3828,2.5169,-0.6948,-0.5069,-0.3256,
5.967888,-0.1227,-0.9143,-0.2731,-1.6564,-0.3828,2.5169,-0.8503,-0.6198,-0.2126,
5.969226,-0.1227,-0.9143,-0.2731,-1.9492,1.3861,0.9799,-0.8503,-0.6198,-0.2126,
5.970708,-0.1049,-0.9331,-0.2981,-1.9492,1.3861,0.9799,-0.8503,-0.6198,-0.2126,
5.977885,-0.0685,-0.9426,-0.3183,-1.9492,1.3861,0.9799,-0.8503,-0.6198,-0.2126,
5.980795,-0.0274,-0.9478,-0.3286,-1.9492,1.3861,0.9799,-0.8503,-0.6198,-0.2126,
5.989025,0.0114,-0.9509,-0.3269,-1.9492,1.3861,0.9799,-0.8503,-0.6198,-0.2126,
5.991338,0.0463,-0.9526,-0.3252,-1.9492,1.3861,0.9799,-0.8503,-0.6198,-0.2126,
5.996325,0.0762,-0.9578,-0.3213,-1.9492,1.3861,0.9799,-0.8503,-0.6198,-0.2126,
6.002171,0.0989,-0.9649,-0.3066,-1.9492,1.3861,0.9799,-0.8503,-0.6198,-0.2126,
6.004991,0.1143,-0.9683,-0.2736,-1.9492,1.3861,0.9799,-0.8503,-0.6198,-0.2126,
6.005857,0.1143,-0.9683,-0.2736,-1.9492,1.3861,0.9799,-0.8407,-0.6891,-0.0507,
6.007195,0.1143,-0.9683,-0.2736,-1.8823,1.2953,1.3131,-0.8407,-0.6891,-0.0507,
6.011253,0.1311,-0.9675,-0.2382,-1.8823,1.2953,1.3131,-0.8407,-0.6891,-0.0507,
6.015952,0.1297,-0.9624,-0.2150,-1.8823,1.2953,1.3131,-0.8407,-0.6891,-0.0507,
6.021284,0.1255,-0.9636,-0.2060,-1.8823,1.2953,1.3131,-0.8407,-0.6891,-0.0507,
6.025840,0.1253,-0.9585,-0.1867,-1.8823,1.2953,1.3131,-0.8407,-0.6891,-0.0507,
6.031021,0.1350,-0.9495,-0.1559,-1.8823,1.2953,1.3131,-0.8407,-0.6891,-0.0507,
6.035963,0.1406,-0.9355,-0.1280,-1.8823,1.2953,1.3131,-0.8407,-0.6891,-0.0507,
6.041093,0.1419,-0.9214,-0.0972,-1.8823,1.2953,1.3131,-0.8407,-0.6891,-0.0507,
6.046207,0.1328,-0.9084,-0.0665,-1.8823,1.2953,1.3131,-0.8407,-0.6891,-0.0507,
6.047263,0.1328,-0.9084,-0.0665,-1.8823,1.2953,1.3131,-0.7736,-0.6901,-0.0379,
6.048093,0.1328,-0.9084,-0.0665,-1.1591,0.2683,-0.3089,-0.7736,-0.6901,-0.0379,
6.049759,0.1104,-0.8984,-0.0386,-1.1591,0.2683,-0.3089,-0.7736,-0.6901,-0.0379,
6.056563,0.0791,-0.8969,-0.0166,-1.1591,0.2683,-0.3089,-0.7736,-0.6901,-0.0379,
6.060232,0.0500,-0.9028,-0.0086,-1.1591,0.2683,-0.3089,-0.7736,-0.6901,-0.0379,
6.065180,0.0236,-0.9116,-0.0115,-1.1591,0.2683,-0.3089,-0.7736,-0.6901,-0.0379,
6.069440,-0.0069,-0.9280,-0.0166,-1.1591,0.2683,-0.3089,-0.7736,-0.6901,-0.0379,
6.074228,-0.0418,-0.9495,-0.0178,-1.1591,0.2683,-0.3089,-0.7736,-0.6901,-0.0379,
6.078837,-0.0819,-0.9727,-0.0340,-1.1591,0.2683,-0.3089,-0.7736,-0.6901,-0.0379,
6.085664,-0.1105,-0.9915,-0.0437,-1.1591,0.2683,-0.3089,-0.7736,-0.6901,-0.0379,
6.088355,-0.1105,-0.9915,-0.0437,-1.1591,0.2683,-0.3089,-0.4274,-0.6145,-0.1743,
6.089875,-0.1105,-0.9915,-0.0437,-0.4575,0.2989,1.8874,-0.4274,-0.6145,-0.1743,
6.090828,-0.1305,-1.0025,-0.0423,-0.4575,0.2989,1.8874,-0.4274,-0.6145,-0.1743,
6.093695,-0.1386,-1.0120,-0.0374,-0.4575,0.2989,1.8874,-0.4274,-0.6145,-0.1743,
6.098365,-0.1420,-1.0115,-0.0259,-0.4575,0.2989,1.8874,-0.4274,-0.6145,-0.1743,
6.105556,-0.1388,-0.9993,-0.0115,-0.4575,0.2989,1.8874,-0.4274,-0.6145,-0.1743,
6.110630,-0.1291,-0.9785,0.0051,-0.4575,0.2989,1.8874,-0.4274,-0.6145,-0.1743,
6.115576,-0.1115,-0.9636,0.0288,-0.4575,0.2989,1.8874,-0.4274,-0.6145,-0.1743,
6.120624,-0.0936,-0.9497,0.0574,-0.4575,0.2989,1.8874,-0.4274,-0.6145,-0.1743,
6.125755,-0.0795,-0.9351,0.0828,-0.4575,0.2989,1.8874,-0.4274,-0.6145,-0.1743,
6.127983,-0.0795,-0.9351,0.0828,-0.4575,0.2989,1.8874,0.1553,-0.2917,-0.1530,
6.129649,-0.0795,-0.9351,0.0828,-0.4761,0.3028,1.8123,0.1553,-0.2917,-0.1530,
6.130980,-0.0673,-0.9294,0.1009,-0.4761,0.3028,1.8123,0.1553,-0.2917,-0.1530,
6.136428,-0.0514,-0.9311,0.1153,-0.4761,0.3028,1.8123,0.1553,-0.2917,-0.1530,
6.140235,-0.0423,-0.9246,0.1199,-0.4761,0.3028,1.8123,0.1553,-0.2917,-0.1530,
