
time,gFx,gFy,gFz,ax,ay,az,wx,wy,wz,
0.053228,0.0000,0.0000,0.0000,0.0000,0.0000,0.0000,-0.2524,-1.4977,0.5646,
0.091552,0.1118,0.3695,0.9623,0.0000,0.0000,0.0000,-0.2524,-1.4977,0.5646,
0.093396,0.0626,0.3590,0.9577,0.0000,0.0000,0.0000,-0.2524,-1.4977,0.5646,
0.094255,0.1615,0.2986,0.9691,0.0000,0.0000,0.0000,-0.2524,-1.4977,0.5646,
0.095072,0.2269,0.2868,0.9605,0.0000,0.0000,0.0000,-0.2524,-1.4977,0.5646,
0.095971,0.2347,0.2822,0.9566,0.0000,0.0000,0.0000,-0.2524,-1.4977,0.5646,
0.096648,0.2826,0.3125,0.9577,0.0000,0.0000,0.0000,-0.2524,-1.4977,0.5646,
0.097316,0.2542,0.2551,0.8967,0.0000,0.0000,0.0000,-0.2524,-1.4977,0.5646,
0.098096,0.2542,0.2551,0.8967,0.0000,0.0000,0.0000,0.4453,-1.6330,0.5007,
0.132495,0.2542,0.2551,0.8967,0.0000,0.0000,0.0000,1.1388,-1.0226,0.4283,
0.168792,0.3449,0.3566,0.7718,0.0000,0.0000,0.0000,1.1388,-1.0226,0.4283,
0.171000,0.3931,0.3496,0.6261,0.0000,0.0000,0.0000,1.1388,-1.0226,0.4283,
0.172472,0.2993,0.3495,0.5786,0.0000,0.0000,0.0000,1.1388,-1.0226,0.4283,
0.173331,0.3549,0.3713,0.4703,0.0000,0.0000,0.0000,1.1388,-1.0226,0.4283,
0.174212,0.3549,0.3713,0.4703,0.0000,0.0000,0.0000,1.2389,-0.5326,0.3835,
0.175073,0.3549,0.3713,0.4703,0.3155,0.1336,-1.2621,1.2389,-0.5326,0.3835,
0.213333,0.3549,0.3713,0.4703,0.3155,0.1336,-1.2621,0.4197,-0.5358,0.2088,
0.215496,0.3549,0.3713,0.4703,0.0626,0.0161,-0.5694,0.4197,-0.5358,0.2088,
0.247262,0.3024,0.4376,0.1449,0.0626,0.0161,-0.5694,0.4197,-0.5358,0.2088,
0.249418,-0.1623,0.5366,0.5066,0.0626,0.0161,-0.5694,0.4197,-0.5358,0.2088,
0.251412,0.1281,0.4878,0.9230,0.0626,0.0161,-0.5694,0.4197,-0.5358,0.2088,
0.252883,0.4336,0.1007,1.0285,0.0626,0.0161,-0.5694,0.4197,-0.5358,0.2088,
0.254189,0.4336,0.1007,1.0285,0.0626,0.0161,-0.5694,-1.3134,-0.5294,0.7724,
0.255280,0.4336,0.1007,1.0285,-1.3037,0.9577,-2.3033,-1.3134,-0.5294,0.7724,
0.290659,0.4336,0.1007,1.0285,-1.3037,0.9577,-2.3033,-0.8000,0.4059,0.7766,
0.292619,0.4336,0.1007,1.0285,-0.8715,0.8264,-1.6369,-0.8000,0.4059,0.7766,
0.331560,0.6021,0.1885,1.3145,-0.8715,0.8264,-1.6369,-0.8000,0.4059,0.7766,
0.333803,0.5318,0.2320,1.0475,-0.8715,0.8264,-1.6369,-0.8000,0.4059,0.7766,
0.335107,0.4008,0.2938,0.6774,-0.8715,0.8264,-1.6369,-0.8000,0.4059,0.7766,
0.336581,0.4008,0.2938,0.6774,-0.8715,0.8264,-1.6369,0.3430,-0.6146,0.0586,
0.337599,0.4008,0.2938,0.6774,0.8828,-0.8222,4.1091,0.3430,-0.6146,0.0586,
0.370968,0.4008,0.2938,0.6774,0.8828,-0.8222,4.1091,0.3665,-1.8450,0.0075,
0.373187,0.4008,0.2938,0.6774,0.5756,-0.7115,1.3443,0.3665,-1.8450,0.0075,
0.410220,0.3252,0.2590,0.7118,0.5756,-0.7115,1.3443,0.3665,-1.8450,0.0075,
0.412645,0.2985,0.2315,0.8780,0.5756,-0.7115,1.3443,0.3665,-1.8450,0.0075,
0.414566,0.2403,0.1977,0.8273,0.5756,-0.7115,1.3443,0.3665,-1.8450,0.0075,
0.415896,0.3015,0.2210,0.6792,0.5756,-0.7115,1.3443,0.3665,-1.8450,0.0075,
0.417211,0.4822,0.2865,0.5089,0.5756,-0.7115,1.3443,0.3665,-1.8450,0.0075,
0.418322,0.4822,0.2865,0.5089,0.5756,-0.7115,1.3443,0.3697,-1.4658,0.5029,
0.419643,0.4822,0.2865,0.5089,-1.0249,-0.9754,1.1991,0.3697,-1.4658,0.5029,
0.449768,0.4822,0.2865,0.5089,-1.0249,-0.9754,1.1991,0.4794,-2.8506,0.1875,
0.451123,0.4822,0.2865,0.5089,-1.4701,-0.8885,1.4400,0.4794,-2.8506,0.1875,
0.488753,0.5529,0.2484,0.5634,-1.4701,-0.8885,1.4400,0.4794,-2.8506,0.1875,
0.490480,0.5015,0.1249,0.7580,-1.4701,-0.8885,1.4400,0.4794,-2.8506,0.1875,
0.491722,0.3382,-0.0332,0.6936,-1.4701,-0.8885,1.4400,0.4794,-2.8506,0.1875,
0.493208,0.1941,-0.1177,0.3558,-1.4701,-0.8885,1.4400,0.4794,-2.8506,0.1875,
0.494480,0.1941,-0.1177,0.3558,-1.4701,-0.8885,1.4400,0.6264,-2.8495,0.4485,
0.495863,0.1941,-0.1177,0.3558,0.0561,-0.7932,0.1920,0.6264,-2.8495,0.4485,
0.529500,0.1941,-0.1177,0.3558,0.0561,-0.7932,0.1920,0.6328,-3.0775,1.6161,
0.531662,0.1941,-0.1177,0.3558,-0.6767,-0.4985,0.7893,0.6328,-3.0775,1.6161,
0.568933,0.5010,0.1742,0.1713,-0.6767,-0.4985,0.7893,0.6328,-3.0775,1.6161,
0.571098,0.6799,0.0644,0.1825,-0.6767,-0.4985,0.7893,0.6328,-3.0775,1.6161,
0.572335,0.5506,-0.1738,0.4928,-0.6767,-0.4985,0.7893,0.6328,-3.0775,1.6161,
0.573650,0.5506,-0.1738,0.4928,-0.6767,-0.4985,0.7893,0.8629,-5.0482,1.6022,
0.574948,0.5506,-0.1738,0.4928,-2.9655,-2.0458,0.1190,0.8629,-5.0482,1.6022,
0.608618,0.5506,-0.1738,0.4928,-2.9655,-2.0458,0.1190,1.7066,-3.7635,2.7644,
0.610585,0.5506,-0.1738,0.4928,-1.1686,-2.5748,1.4377,1.7066,-3.7635,2.7644,
0.646755,0.5226,-0.2868,0.6594,-1.1686,-2.5748,1.4377,1.7066,-3.7635,2.7644,
0.648144,0.6495,-0.3071,0.4061,-1.1686,-2.5748,1.4377,1.7066,-3.7635,2.7644,
0.649155,0.8438,-0.2076,0.2148,-1.1686,-2.5748,1.4377,1.7066,-3.7635,2.7644,
0.649917,1.0010,-0.2135,0.0853,-1.1686,-2.5748,1.4377,1.7066,-3.7635,2.7644,
0.650629,0.9960,-0.3244,0.2467,-1.1686,-2.5748,1.4377,1.7066,-3.7635,2.7644,
0.651348,0.9960,-0.3244,0.2467,-1.1686,-2.5748,1.4377,1.3103,-2.1784,3.7210,
0.652223,0.9960,-0.3244,0.2467,0.8142,-2.4699,0.0373,1.3103,-2.1784,3.7210,
0.687283,0.9960,-0.3244,0.2467,0.8142,-2.4699,0.0373,0.6743,-1.9494,4.0480,
0.688532,0.9960,-0.3244,0.2467,0.6621,-1.2045,0.5384,0.6743,-1.9494,4.0480,
0.723883,1.0007,-0.3994,0.4927,0.6621,-1.2045,0.5384,0.6743,-1.9494,4.0480,
0.724854,1.4285,-0.2536,0.5558,0.6621,-1.2045,0.5384,0.6743,-1.9494,4.0480,
0.726048,1.7704,-0.1309,0.5209,0.6621,-1.2045,0.5384,0.6743,-1.9494,4.0480,
0.726704,1.5966,-0.1652,0.5379,0.6621,-1.2045,0.5384,0.6743,-1.9494,4.0480,
0.727280,1.5966,-0.1652,0.5379,0.6621,-1.2045,0.5384,1.4616,-1.2442,3.8020,
0.727809,1.5966,-0.1652,0.5379,3.5257,-0.9031,2.4797,1.4616,-1.2442,3.8020,
0.768422,1.5966,-0.1652,0.5379,3.5257,-0.9031,2.4797,2.7516,-1.5190,2.7058,
0.770030,1.5966,-0.1652,0.5379,3.3698,-0.2466,2.4040,2.7516,-1.5190,2.7058,
0.796129,1.2839,-0.3606,0.5363,3.3698,-0.2466,2.4040,2.7516,-1.5190,2.7058,
0.797896,1.3100,-0.5621,0.4226,3.3698,-0.2466,2.4040,2.7516,-1.5190,2.7058,
0.799124,1.5704,-0.5724,0.2441,3.3698,-0.2466,2.4040,2.7516,-1.5190,2.7058,
0.809225,1.5704,-0.5724,0.2441,3.3698,-0.2466,2.4040,4.1450,-2.0698,2.7282,
0.810695,1.5704,-0.5724,0.2441,6.9464,1.2337,3.1936,4.1450,-2.0698,2.7282,
0.846800,1.5704,-0.5724,0.2441,6.9464,1.2337,3.1936,4.5924,-1.5723,2.2755,
0.849088,1.5704,-0.5724,0.2441,6.0184,-1.6804,0.1389,4.5924,-1.5723,2.2755,
0.875616,1.5806,-0.5671,0.0407,6.0184,-1.6804,0.1389,4.5924,-1.5723,2.2755,
0.877606,1.4079,-0.6574,-0.1382,6.0184,-1.6804,0.1389,4.5924,-1.5723,2.2755,
0.879204,1.3403,-0.6945,-0.1739,6.0184,-1.6804,0.1389,4.5924,-1.5723,2.2755,
0.880307,1.5070,-0.4056,-1.8919,6.0184,-1.6804,0.1389,4.5924,-1.5723,2.2755,
0.886404,1.5070,-0.4056,-1.8919,6.0184,-1.6804,0.1389,1.7918,-0.1491,1.7812,
0.888229,1.5070,-0.4056,-1.8919,5.2203,-1.3261,-8.9210,1.7918,-0.1491,1.7812,
0.926227,1.5070,-0.4056,-1.8919,5.2203,-1.3261,-8.9210,-1.4210,1.1548,1.6203,
0.928562,1.5070,-0.4056,-1.8919,1.2696,1.3414,-4.0076,-1.4210,1.1548,1.6203,
0.953756,1.0015,-0.2544,-1.3236,1.2696,1.3414,-4.0076,-1.4210,1.1548,1.6203,
0.955859,0.9938,-0.3727,0.2473,1.2696,1.3414,-4.0076,-1.4210,1.1548,1.6203,
0.957168,0.9602,-0.4831,0.3238,1.2696,1.3414,-4.0076,-1.4210,1.1548,1.6203,
0.958425,0.3854,-0.6046,0.2407,1.2696,1.3414,-4.0076,-1.4210,1.1548,1.6203,
0.972647,0.3854,-0.6046,0.2407,1.2696,1.3414,-4.0076,0.9950,-0.6157,1.1655,
0.974952,0.3854,-0.6046,0.2407,1.3712,1.5515,-3.7453,0.9950,-0.6157,1.1655,
1.005421,0.3854,-0.6046,0.2407,1.3712,1.5515,-3.7453,1.2347,-1.1579,1.3785,
1.006890,0.3854,-0.6046,0.2407,-2.6216,0.0953,-0.3952,1.2347,-1.1579,1.3785,
1.021579,0.4369,-0.5872,-0.0949,-2.6216,0.0953,-0.3952,1.2347,-1.1579,1.3785,
1.023323,0.7848,-0.4803,0.0849,-2.6216,0.0953,-0.3952,1.2347,-1.1579,1.3785,
1.024046,1.1197,-0.4629,-0.0232,-2.6216,0.0953,-0.3952,1.2347,-1.1579,1.3785,
1.044775,1.1197,-0.4629,-0.0232,-2.6216,0.0953,-0.3952,0.3878,-0.2961,0.7788,
1.047175,1.1197,-0.4629,-0.0232,-2.3064,0.2983,-0.3657,0.3878,-0.2961,0.7788,
1.084595,1.1197,-0.4629,-0.0232,-2.3064,0.2983,-0.3657,0.7755,0.3772,0.0831,
1.086284,1.1197,-0.4629,-0.0232,2.7858,-1.4706,-0.6978,0.7755,0.3772,0.0831,
1.099669,1.1119,-0.7251,-0.0596,2.7858,-1.4706,-0.6978,0.7755,0.3772,0.0831,
1.101888,0.9759,-1.0495,0.2872,2.7858,-1.4706,-0.6978,0.7755,0.3772,0.0831,
1.103247,1.0039,-0.9811,0.4138,2.7858,-1.4706,-0.6978,0.7755,0.3772,0.0831,
1.104780,1.0540,-0.6493,0.2650,2.7858,-1.4706,-0.6978,0.7755,0.3772,0.0831,
1.105994,0.9769,-0.5076,0.2005,2.7858,-1.4706,-0.6978,0.7755,0.3772,0.0831,
1.123065,0.9769,-0.5076,0.2005,2.7858,-1.4706,-0.6978,0.7691,0.6765,-0.5368,
1.124421,0.9769,-0.5076,0.2005,2.0226,-1.2821,1.0615,0.7691,0.6765,-0.5368,
1.163821,0.9769,-0.5076,0.2005,2.0226,-1.2821,1.0615,-0.5933,0.2152,-0.2577,
1.166001,0.9769,-0.5076,0.2005,-3.6496,0.2747,-2.6407,-0.5933,0.2152,-0.2577,
1.178170,0.3435,-0.5058,-0.4302,-3.6496,0.2747,-2.6407,-0.5933,0.2152,-0.2577,
1.180372,0.3449,-0.5497,-0.0180,-3.6496,0.2747,-2.6407,-0.5933,0.2152,-0.2577,
1.181953,0.5608,-0.5896,0.1292,-3.6496,0.2747,-2.6407,-0.5933,0.2152,-0.2577,
1.183636,0.7832,-0.5368,0.1505,-3.6496,0.2747,-2.6407,-0.5933,0.2152,-0.2577,
1.202981,0.7832,-0.5368,0.1505,-3.6496,0.2747,-2.6407,-0.2237,-0.3430,0.3835,
1.204710,0.7832,-0.5368,0.1505,-3.3946,0.3842,-2.3548,-0.2237,-0.3430,0.3835,
1.243522,0.7832,-0.5368,0.1505,-3.3946,0.3842,-2.3548,-0.1598,0.0288,0.8096,
1.245690,0.7832,-0.5368,0.1505,0.3371,0.9707,-0.0886,-0.1598,0.0288,0.8096,
1.256266,0.7868,-0.5212,0.1589,0.3371,0.9707,-0.0886,-0.1598,0.0288,0.8096,
1.258187,0.7689,-0.4668,0.0550,0.3371,0.9707,-0.0886,-0.1598,0.0288,0.8096,
1.259604,0.7719,-0.3967,0.0479,0.3371,0.9707,-0.0886,-0.1598,0.0288,0.8096,
1.260726,0.9341,-0.1834,0.2577,0.3371,0.9707,-0.0886,-0.1598,0.0288,0.8096,
1.281707,0.9341,-0.1834,0.2577,0.3371,0.9707,-0.0886,-0.5220,-0.0245,0.6605,
1.283313,0.9341,-0.1834,0.2577,0.4698,1.1256,0.0417,-0.5220,-0.0245,0.6605,
1.321884,0.9341,-0.1834,0.2577,0.4698,1.1256,0.0417,-0.7105,-0.1033,0.3772,
1.324444,0.9341,-0.1834,0.2577,0.4601,2.6214,1.3089,-0.7105,-0.1033,0.3772,
1.333041,0.6100,-0.4883,0.4045,0.4601,2.6214,1.3089,-0.7105,-0.1033,0.3772,
1.334710,0.3774,-0.4324,0.0540,0.4601,2.6214,1.3089,-0.7105,-0.1033,0.3772,
1.335650,0.3616,-0.5354,0.1162,0.4601,2.6214,1.3089,-0.7105,-0.1033,0.3772,
1.336652,0.6037,-0.3102,0.1210,0.4601,2.6214,1.3089,-0.7105,-0.1033,0.3772,
1.361500,0.6037,-0.3102,0.1210,0.4601,2.6214,1.3089,-0.4708,-1.3539,0.6413,
1.363356,0.6037,-0.3102,0.1210,-2.4834,2.0344,0.4145,-0.4708,-1.3539,0.6413,
1.402976,0.6037,-0.3102,0.1210,-2.4834,2.0344,0.4145,-0.9662,-0.8415,0.9183,
1.404996,0.6145,-0.3921,0.0565,-2.4834,2.0344,0.4145,-0.9662,-0.8415,0.9183,
1.406475,0.5651,-0.8528,0.1648,-2.4834,2.0344,0.4145,-0.9662,-0.8415,0.9183,
1.409585,0.6808,-1.2382,0.1068,-2.4834,2.0344,0.4145,-0.9662,-0.8415,0.9183,
1.410867,0.6808,-1.2382,0.1068,-0.5475,-1.5739,0.9605,-0.9662,-0.8415,0.9183,
1.441554,0.6808,-1.2382,0.1068,-0.5475,-1.5739,0.9605,-0.8479,-1.0258,0.6871,
1.443930,0.6808,-1.2382,0.1068,-0.3456,-1.3393,1.3857,-0.8479,-1.0258,0.6871,
1.479914,0.6808,-1.2382,0.1068,-0.3456,-1.3393,1.3857,-0.3185,-0.8394,-0.4197,
1.482365,0.6808,-1.2382,0.1068,1.4548,-6.9709,0.1105,-0.3185,-0.8394,-0.4197,
1.483784,0.7503,-1.4920,-0.1346,1.4548,-6.9709,0.1105,-0.3185,-0.8394,-0.4197,
1.484622,0.9632,-1.3774,-0.0773,1.4548,-6.9709,0.1105,-0.3185,-0.8394,-0.4197,
1.485589,0.7468,-1.3959,0.0593,1.4548,-6.9709,0.1105,-0.3185,-0.8394,-0.4197,
1.486565,0.3463,-1.1941,0.2059,1.4548,-6.9709,0.1105,-0.3185,-0.8394,-0.4197,
1.501791,-0.0976,-0.7600,-0.1565,1.4548,-6.9709,0.1105,-0.3185,-0.8394,-0.4197,
1.518909,-0.0976,-0.7600,-0.1565,1.4548,-6.9709,0.1105,0.0224,-0.7606,0.7937,
1.520755,-0.0976,-0.7600,-0.1565,1.6287,-6.4841,0.2879,0.0224,-0.7606,0.7937,
1.559531,-0.0976,-0.7600,-0.1565,2.7654,-5.4081,0.8479,0.0224,-0.7606,0.7937,
1.561204,-0.0976,-0.7600,-0.1565,2.7654,-5.4081,0.8479,-0.2684,-2.2232,3.7072,
1.599990,0.3032,-1.0660,-0.2875,2.7654,-5.4081,0.8479,-0.2684,-2.2232,3.7072,
1.601443,0.3032,-1.0660,-0.2875,2.7654,-5.4081,0.8479,-0.3781,-1.7907,2.6856,
1.602692,0.3032,-1.0660,-0.2875,3.6532,-4.7205,1.2618,-0.3781,-1.7907,2.6856,
1.638746,0.3032,-1.0660,-0.2875,3.6532,-4.7205,1.2618,-1.1633,-0.1246,0.8491,
1.640440,0.3032,-1.0660,-0.2875,3.8063,-4.4767,1.6397,-1.1633,-0.1246,0.8491,
1.678577,0.3032,-1.0660,-0.2875,3.8063,-4.4767,1.6397,-1.5276,1.3529,0.4336,
1.680518,0.3032,-1.0660,-0.2875,-0.3866,-0.4014,0.7200,-1.5276,1.3529,0.4336,
1.684505,0.3330,-1.0501,-0.0092,-0.3866,-0.4014,0.7200,-1.5276,1.3529,0.4336,
1.686144,0.5246,-0.8857,-0.2340,-0.3866,-0.4014,0.7200,-1.5276,1.3529,0.4336,
1.687560,0.3824,-0.7000,-0.4424,-0.3866,-0.4014,0.7200,-1.5276,1.3529,0.4336,
1.688809,0.0572,-0.1929,-0.3303,-0.3866,-0.4014,0.7200,-1.5276,1.3529,0.4336,
1.717078,0.0572,-0.1929,-0.3303,-0.3866,-0.4014,0.7200,-0.9768,0.7393,1.1495,
1.719761,0.0572,-0.1929,-0.3303,-0.0312,-0.3057,0.9272,-0.9768,0.7393,1.1495,
1.757364,0.0572,-0.1929,-0.3303,-0.0312,-0.3057,0.9272,-0.3206,0.2142,1.3252,
1.758773,0.0572,-0.1929,-0.3303,-1.2609,6.0031,-1.1829,-0.3206,0.2142,1.3252,
1.759897,0.1825,-0.1513,-0.4461,-1.2609,6.0031,-1.1829,-0.3206,0.2142,1.3252,
1.760595,0.2492,-0.3910,-0.7072,-1.2609,6.0031,-1.1829,-0.3206,0.2142,1.3252,
1.761370,0.0750,-0.6236,-0.3532,-1.2609,6.0031,-1.1829,-0.3206,0.2142,1.3252,
1.762435,-0.3943,-1.2035,-0.1846,-1.2609,6.0031,-1.1829,-0.3206,0.2142,1.3252,
1.797103,-0.3943,-1.2035,-0.1846,-1.2609,6.0031,-1.1829,-0.0884,1.1015,1.9005,
1.798742,-0.3943,-1.2035,-0.1846,-2.8169,2.2955,-1.3149,-0.0884,1.1015,1.9005,
1.838424,-0.5961,-1.7005,-0.3554,-2.8169,2.2955,-1.3149,-0.0884,1.1015,1.9005,
1.840669,0.3399,-2.5541,-0.3965,-2.8169,2.2955,-1.3149,-0.0884,1.1015,1.9005,
1.841953,0.9685,-2.6643,-0.3417,-2.8169,2.2955,-1.3149,-0.0884,1.1015,1.9005,
1.843691,0.9685,-2.6643,-0.3417,-2.8169,2.2955,-1.3149,-0.0618,0.9492,1.8802,
1.844850,0.9685,-2.6643,-0.3417,0.3411,-12.4360,-0.8512,-0.0618,0.9492,1.8802,
1.881362,0.9685,-2.6643,-0.3417,-1.5143,2.0016,-1.7125,-0.0618,0.9492,1.8802,
1.883370,0.9685,-2.6643,-0.3417,-1.5143,2.0016,-1.7125,0.0117,0.7340,-0.0862,
1.915953,0.9685,-2.6643,-0.3417,-1.5143,2.0016,-1.7125,0.4187,0.7500,0.0640,
1.917546,0.9685,-2.6643,-0.3417,-1.5125,1.9793,-1.8751,0.4187,0.7500,0.0640,
1.919162,0.1154,-1.0579,-0.5186,-1.5125,1.9793,-1.8751,0.4187,0.7500,0.0640,
1.920378,0.0255,-0.6543,-0.4739,-1.5125,1.9793,-1.8751,0.4187,0.7500,0.0640,
1.921551,0.0215,-0.7631,-0.3645,-1.5125,1.9793,-1.8751,0.4187,0.7500,0.0640,
1.926676,-0.0114,-0.8349,-0.4077,-1.5125,1.9793,-1.8751,0.4187,0.7500,0.0640,
1.927989,-0.0168,-0.9773,-0.3183,-1.5125,1.9793,-1.8751,0.4187,0.7500,0.0640,
1.955573,-0.0168,-0.9773,-0.3183,-1.5125,1.9793,-1.8751,0.8576,-0.2098,0.4251,
1.957152,-0.0168,-0.9773,-0.3183,-1.2774,2.0212,-2.1272,0.8576,-0.2098,0.4251,
1.995447,-0.0168,-0.9773,-0.3183,-1.2774,2.0212,-2.1272,1.3753,-0.0809,0.2397,
1.997705,-0.0168,-0.9773,-0.3183,-1.4982,1.1513,-0.9238,1.3753,-0.0809,0.2397,
1.999759,0.0755,-0.9563,-0.1043,-1.4982,1.1513,-0.9238,1.3753,-0.0809,0.2397,
2.001432,0.1979,-0.8896,-0.1231,-1.4982,1.1513,-0.9238,1.3753,-0.0809,0.2397,
2.003317,0.1989,-0.8547,-0.2628,-1.4982,1.1513,-0.9238,1.3753,-0.0809,0.2397,
2.004465,0.1923,-0.7865,-0.2152,-1.4982,1.1513,-0.9238,1.3753,-0.0809,0.2397,
2.037478,0.1923,-0.7865,-0.2152,-1.4982,1.1513,-0.9238,1.4882,0.4144,-0.1629,
2.039317,0.1923,-0.7865,-0.2152,0.1765,1.9392,-0.7805,1.4882,0.4144,-0.1629,
2.075460,0.1923,-0.7865,-0.2152,0.1765,1.9392,-0.7805,1.3668,0.8214,-0.6348,
2.077784,0.1923,-0.7865,-0.2152,0.0568,2.5087,-0.8662,1.3668,0.8214,-0.6348,
2.079749,0.2490,-0.7450,-0.1900,0.0568,2.5087,-0.8662,1.3668,0.8214,-0.6348,
2.080985,0.2624,-0.7623,-0.1558,0.0568,2.5087,-0.8662,1.3668,0.8214,-0.6348,
2.082138,0.1288,-0.8244,-0.1018,0.0568,2.5087,-0.8662,1.3668,0.8214,-0.6348,
2.083308,0.0125,-0.8952,-0.1126,0.0568,2.5087,-0.8662,1.3668,0.8214,-0.6348,
2.115699,0.0125,-0.8952,-0.1126,0.0568,2.5087,-0.8662,1.1335,0.6381,-0.6476,
2.117240,0.0125,-0.8952,-0.1126,-0.2048,2.3912,-1.3322,1.1335,0.6381,-0.6476,
2.147487,0.0152,-0.9754,-0.1624,-0.2048,2.3912,-1.3322,1.1335,0.6381,-0.6476,
2.149276,0.0526,-1.0672,-0.2186,-0.2048,2.3912,-1.3322,1.1335,0.6381,-0.6476,
2.150956,-0.0298,-1.1251,-0.2970,-0.2048,2.3912,-1.3322,1.1335,0.6381,-0.6476,
2.153243,-0.0298,-1.1251,-0.2970,-0.2048,2.3912,-1.3322,0.3526,0.7660,-0.3004,
2.154537,-0.0298,-1.1251,-0.2970,-2.0876,0.3721,-1.6424,0.3526,0.7660,-0.3004,
2.194039,-0.0298,-1.1251,-0.2970,-2.0876,0.3721,-1.6424,-0.1939,0.2759,0.0235,
2.195580,-0.0298,-1.1251,-0.2970,-2.9789,-1.5073,-3.1064,-0.1939,0.2759,0.0235,
2.234486,-0.0298,-1.1251,-0.2970,-2.9789,-1.5073,-3.1064,-0.6999,0.5092,0.3452,
2.236165,-0.1473,-1.1300,-0.3110,-2.9789,-1.5073,-3.1064,-0.6999,0.5092,0.3452,
2.237137,-0.0461,-1.2727,-0.3781,-2.9789,-1.5073,-3.1064,-0.6999,0.5092,0.3452,
2.238088,0.2299,-1.3042,-0.4114,-2.9789,-1.5073,-3.1064,-0.6999,0.5092,0.3452,
2.239451,0.4447,-0.9595,-0.2467,-2.9789,-1.5073,-3.1064,-0.6999,0.5092,0.3452,
2.240653,0.5045,-0.6790,0.0426,-2.9789,-1.5073,-3.1064,-0.6999,0.5092,0.3452,
2.241950,0.5045,-0.6790,0.0426,-2.7624,-1.4402,-2.7878,-0.6999,0.5092,0.3452,
2.272910,0.5045,-0.6790,0.0426,-2.7624,-1.4402,-2.7878,-0.7957,0.3186,0.0576,
2.274932,0.5045,-0.6790,0.0426,1.7820,0.4445,-1.2482,-0.7957,0.3186,0.0576,
2.313888,0.5045,-0.6790,0.0426,1.7820,0.4445,-1.2482,-0.2045,-0.5763,-0.4452,
2.317734,0.5045,-0.6790,0.0426,1.8354,2.0354,0.1620,-0.2045,-0.5763,-0.4452,
2.319395,0.5285,-0.6763,0.0917,1.8354,2.0354,0.1620,-0.2045,-0.5763,-0.4452,
2.322207,0.4691,-0.7772,-0.0508,1.8354,2.0354,0.1620,-0.2045,-0.5763,-0.4452,
2.323954,0.2622,-0.9707,-0.2633,1.8354,2.0354,0.1620,-0.2045,-0.5763,-0.4452,
2.325223,0.1693,-1.0665,-0.4057,1.8354,2.0354,0.1620,-0.2045,-0.5763,-0.4452,
2.353063,0.1693,-1.0665,-0.4057,1.8354,2.0354,0.1620,-0.1161,-1.1504,-0.2567,
2.354968,0.1693,-1.0665,-0.4057,1.7291,1.9517,0.3047,-0.1161,-1.1504,-0.2567,
2.393426,0.1693,-1.0665,-0.4057,1.7291,1.9517,0.3047,-0.1331,-0.7456,0.0661,
2.395505,0.1693,-1.0665,-0.4057,-1.3819,-0.5374,-1.1098,-0.1331,-0.7456,0.0661,
2.396810,0.0846,-1.0623,-0.2640,-1.3819,-0.5374,-1.1098,-0.1331,-0.7456,0.0661,
2.397685,0.0240,-1.0621,-0.0324,-1.3819,-0.5374,-1.1098,-0.1331,-0.7456,0.0661,
2.398927,0.0325,-1.0469,-0.0351,-1.3819,-0.5374,-1.1098,-0.1331,-0.7456,0.0661,
2.399961,0.0929,-1.0220,-0.1641,-1.3819,-0.5374,-1.1098,-0.1331,-0.7456,0.0661,
2.432461,0.0929,-1.0220,-0.1641,-1.3819,-0.5374,-1.1098,0.3420,-0.3558,0.1992,
2.436123,0.0929,-1.0220,-0.1641,-1.2525,-0.4906,-1.1795,0.3420,-0.3558,0.1992,
2.471646,0.0929,-1.0220,-0.1641,-1.2525,-0.4906,-1.1795,0.9428,-0.8724,0.1641,
2.473787,0.0929,-1.0220,-0.1641,-0.5108,-0.1416,0.0372,0.9428,-0.8724,0.1641,
2.474755,0.3452,-1.0316,-0.0385,-0.5108,-0.1416,0.0372,0.9428,-0.8724,0.1641,
2.475683,0.5773,-1.0548,0.1034,-0.5108,-0.1416,0.0372,0.9428,-0.8724,0.1641,
2.476786,0.4931,-1.0096,0.0216,-0.5108,-0.1416,0.0372,0.9428,-0.8724,0.1641,
2.478064,0.2585,-0.9363,-0.0400,-0.5108,-0.1416,0.0372,0.9428,-0.8724,0.1641,
2.512660,0.2585,-0.9363,-0.0400,-0.5108,-0.1416,0.0372,1.2208,-0.6519,-0.0543,
2.514584,0.2585,-0.9363,-0.0400,2.2286,0.2041,0.6436,1.2208,-0.6519,-0.0543,
2.548510,0.0570,-0.9074,-0.0559,2.2286,0.2041,0.6436,1.2208,-0.6519,-0.0543,
2.552051,-0.0327,-0.9189,-0.0984,2.2286,0.2041,0.6436,1.2208,-0.6519,-0.0543,
2.553685,0.0137,-0.9465,-0.1758,2.2286,0.2041,0.6436,1.2208,-0.6519,-0.0543,
2.554805,0.0137,-0.9465,-0.1758,2.2286,0.2041,0.6436,1.0941,-0.0788,0.1918,
2.557169,0.0137,-0.9465,-0.1758,-1.8631,0.9461,-1.1116,1.0941,-0.0788,0.1918,
2.590536,0.0137,-0.9465,-0.1758,-1.8631,0.9461,-1.1116,0.7287,0.4091,0.4539,
2.592317,0.0137,-0.9465,-0.1758,-0.0007,1.4299,-0.4943,0.7287,0.4091,0.4539,
2.629970,0.0137,-0.9465,-0.1758,-0.0007,1.4299,-0.4943,0.5678,0.6754,0.3889,
2.631605,0.0137,-0.9465,-0.1758,0.1626,1.4105,-0.7467,0.5678,0.6754,0.3889,
2.632554,0.1293,-0.9219,-0.1358,0.1626,1.4105,-0.7467,0.5678,0.6754,0.3889,
2.633349,0.2290,-0.8591,-0.0144,0.1626,1.4105,-0.7467,0.5678,0.6754,0.3889,
2.634581,0.1935,-0.8417,0.1031,0.1626,1.4105,-0.7467,0.5678,0.6754,0.3889,
2.635622,0.2097,-0.8789,0.1850,0.1626,1.4105,-0.7467,0.5678,0.6754,0.3889,
2.636647,0.3045,-0.9365,0.2089,0.1626,1.4105,-0.7467,0.5678,0.6754,0.3889,
2.670216,0.3045,-0.9365,0.2089,0.2727,1.3688,-1.0602,0.5678,0.6754,0.3889,
2.671768,0.3045,-0.9365,0.2089,0.2727,1.3688,-1.0602,0.7755,0.5327,0.2557,
2.710200,0.3045,-0.9365,0.2089,0.2727,1.3688,-1.0602,0.5657,0.5561,-0.0809,
2.711595,0.3045,-0.9365,0.2089,1.1131,0.8421,0.6605,0.5657,0.5561,-0.0809,
2.712441,0.3059,-0.9536,0.1691,1.1131,0.8421,0.6605,0.5657,0.5561,-0.0809,
2.713193,0.2316,-0.9737,0.0142,1.1131,0.8421,0.6605,0.5657,0.5561,-0.0809,
2.714322,0.1823,-1.1278,-0.0324,1.1131,0.8421,0.6605,0.5657,0.5561,-0.0809,
2.715136,0.1278,-1.2292,0.0501,1.1131,0.8421,0.6605,0.5657,0.5561,-0.0809,
2.748477,0.1278,-1.2292,0.0501,1.1131,0.8421,0.6605,-0.1907,0.5732,-0.4751,
2.750084,0.1278,-1.2292,0.0501,0.0440,-0.9911,-1.0129,-0.1907,0.5732,-0.4751,
2.788615,0.1278,-1.2292,0.0501,0.0440,-0.9911,-1.0129,-0.6860,0.5827,-0.4655,
2.790891,0.1278,-1.2292,0.0501,-2.9348,-1.1483,-1.3716,-0.6860,0.5827,-0.4655,
2.792452,0.0252,-1.1642,0.0697,-2.9348,-1.1483,-1.3716,-0.6860,0.5827,-0.4655,
2.793804,-0.1329,-1.1058,-0.0153,-2.9348,-1.1483,-1.3716,-0.6860,0.5827,-0.4655,
2.794734,-0.2347,-1.1151,-0.2115,-2.9348,-1.1483,-1.3716,-0.6860,0.5827,-0.4655,
2.795788,-0.1458,-1.1227,-0.2022,-2.9348,-1.1483,-1.3716,-0.6860,0.5827,-0.4655,
2.828298,-0.1458,-1.1227,-0.2022,-2.9348,-1.1483,-1.3716,-1.4604,0.7095,-0.2780,
2.830541,-0.1458,-1.1227,-0.2022,-2.9580,-1.1084,-0.8311,-1.4604,0.7095,-0.2780,
2.868341,-0.1458,-1.1227,-0.2022,-2.9580,-1.1084,-0.8311,-1.6756,0.5742,-0.5198,
2.870636,-0.1458,-1.1227,-0.2022,-2.1427,-0.4690,-0.4752,-1.6756,0.5742,-0.5198,
2.872373,0.0208,-1.0748,-0.0574,-2.1427,-0.4690,-0.4752,-1.6756,0.5742,-0.5198,
2.873469,0.0797,-0.9832,0.0196,-2.1427,-0.4690,-0.4752,-1.6756,0.5742,-0.5198,
2.874891,-0.0100,-0.9162,-0.0493,-2.1427,-0.4690,-0.4752,-1.6756,0.5742,-0.5198,
2.876348,-0.0735,-0.9170,-0.1394,-2.1427,-0.4690,-0.4752,-1.6756,0.5742,-0.5198,
2.908433,-0.0735,-0.9170,-0.1394,-2.1427,-0.4690,-0.4752,-1.6884,0.0714,-0.5720,
2.910610,-0.0735,-0.9170,-0.1394,-2.3148,-0.5468,0.1765,-1.6884,0.0714,-0.5720,
2.947527,-0.0735,-0.9170,-0.1394,-2.3148,-0.5468,0.1765,-1.9238,-0.7073,-0.5187,
2.949068,-0.0735,-0.9170,-0.1394,-2.5984,0.4590,0.4060,-1.9238,-0.7073,-0.5187,
2.949905,-0.0171,-0.9905,-0.2257,-2.5984,0.4590,0.4060,-1.9238,-0.7073,-0.5187,
2.951061,0.0760,-1.0575,-0.4084,-2.5984,0.4590,0.4060,-1.9238,-0.7073,-0.5187,
2.951886,0.1312,-1.0897,-0.3940,-2.5984,0.4590,0.4060,-1.9238,-0.7073,-0.5187,
2.952871,0.1447,-1.1356,-0.2413,-2.5984,0.4590,0.4060,-1.9238,-0.7073,-0.5187,
2.987104,0.1447,-1.1356,-0.2413,-2.5984,0.4590,0.4060,-1.6820,-0.8362,-0.4740,
2.989280,0.1447,-1.1356,-0.2413,-1.2038,-1.1996,-0.9124,-1.6820,-0.8362,-0.4740,
3.027778,0.1447,-1.1356,-0.2413,-1.2038,-1.1996,-0.9124,-1.4040,-1.1483,-0.0649,
3.029658,0.0279,-1.2712,-0.2985,-1.2038,-1.1996,-0.9124,-1.4040,-1.1483,-0.0649,
3.031020,-0.1492,-1.3868,-0.4033,-1.2038,-1.1996,-0.9124,-1.4040,-1.1483,-0.0649,
3.032235,-0.1216,-1.2392,-0.1981,-1.2038,-1.1996,-0.9124,-1.4040,-1.1483,-0.0649,
3.033233,-0.0173,-1.0245,0.0614,-1.2038,-1.1996,-0.9124,-1.4040,-1.1483,-0.0649,
3.034416,-0.0173,-1.0245,0.0614,-2.9792,-3.2990,0.1848,-1.4040,-1.1483,-0.0649,
3.066922,-0.0173,-1.0245,0.0614,-2.5737,-3.2978,0.5790,-1.4040,-1.1483,-0.0649,
3.068463,-0.0173,-1.0245,0.0614,-2.5737,-3.2978,0.5790,-0.7574,-1.5520,0.3878,
3.111508,-0.0173,-1.0245,0.0614,-2.5737,-3.2978,0.5790,0.3026,-1.2516,0.2578,
3.113604,0.1068,-0.9443,0.1007,-2.5737,-3.2978,0.5790,0.3026,-1.2516,0.2578,
3.114626,0.2177,-0.9939,0.0030,-2.5737,-3.2978,0.5790,0.3026,-1.2516,0.2578,
3.115860,0.2685,-1.0526,-0.0779,-2.5737,-3.2978,0.5790,0.3026,-1.2516,0.2578,
3.117024,0.1821,-1.0296,-0.0791,-2.5737,-3.2978,0.5790,0.3026,-1.2516,0.2578,
3.118019,0.1821,-1.0296,-0.0791,-0.4942,-0.1822,3.9435,0.3026,-1.2516,0.2578,
3.145191,0.1821,-1.0296,-0.0791,-0.4942,-0.1822,3.9435,0.7862,-0.8596,-0.0713,
3.147490,0.1821,-1.0296,-0.0791,-0.4003,-0.0822,3.6199,0.7862,-0.8596,-0.0713,
3.192265,0.1821,-1.0296,-0.0791,-0.4003,-0.0822,3.6199,1.0344,-0.1512,-0.2375,
3.194204,0.1821,-1.0296,-0.0791,0.2858,-0.1356,1.8798,1.0344,-0.1512,-0.2375,
3.195529,0.0907,-0.9299,-0.0803,0.2858,-0.1356,1.8798,1.0344,-0.1512,-0.2375,
3.196660,0.0223,-0.8000,-0.0806,0.2858,-0.1356,1.8798,1.0344,-0.1512,-0.2375,
3.197505,-0.0383,-0.6690,-0.0513,0.2858,-0.1356,1.8798,1.0344,-0.1512,-0.2375,
3.199103,-0.0544,-0.5542,-0.0285,0.2858,-0.1356,1.8798,1.0344,-0.1512,-0.2375,
3.224244,-0.0544,-0.5542,-0.0285,0.2858,-0.1356,1.8798,1.2027,0.2238,-0.3685,
3.225944,-0.0544,-0.5542,-0.0285,-1.8392,3.1250,1.6198,1.2027,0.2238,-0.3685,
3.265092,-0.0544,-0.5542,-0.0285,-1.8392,3.1250,1.6198,0.8309,-0.7009,-0.4079,
3.268062,-0.0989,-0.5227,-0.1192,-1.8392,3.1250,1.6198,0.8309,-0.7009,-0.4079,
3.269329,-0.1426,-0.6236,-0.3635,-1.8392,3.1250,1.6198,0.8309,-0.7009,-0.4079,
3.270490,-0.0955,-0.8285,-0.5193,-1.8392,3.1250,1.6198,0.8309,-0.7009,-0.4079,
3.271816,0.0303,-1.1183,-0.4478,-1.8392,3.1250,1.6198,0.8309,-0.7009,-0.4079,
3.274435,0.0303,-1.1183,-0.4478,-2.7591,3.2580,-1.3773,0.8309,-0.7009,-0.4079,
3.303786,0.0303,-1.1183,-0.4478,-2.7591,3.2580,-1.3773,0.4847,-0.8575,-0.3504,
3.306020,0.0303,-1.1183,-0.4478,-2.7778,3.2067,-1.4772,0.4847,-0.8575,-0.3504,
3.343198,0.0303,-1.1183,-0.4478,-2.7778,3.2067,-1.4772,-0.2620,-0.2450,-0.1555,
3.344622,0.0303,-1.1183,-0.4478,-1.7212,-3.3045,-2.0976,-0.2620,-0.2450,-0.1555,
3.345627,0.0291,-1.4117,-0.4661,-1.7212,-3.3045,-2.0976,-0.2620,-0.2450,-0.1555,
3.346454,-0.0703,-1.4483,-0.3261,-1.7212,-3.3045,-2.0976,-0.2620,-0.2450,-0.1555,
3.347164,0.0538,-1.2004,0.3052,-1.7212,-3.3045,-2.0976,-0.2620,-0.2450,-0.1555,
3.347858,0.1715,-0.9566,0.0763,-1.7212,-3.3045,-2.0976,-0.2620,-0.2450,-0.1555,
3.382763,0.1715,-0.9566,0.0763,-1.7212,-3.3045,-2.0976,0.1502,-0.2705,-0.1129,
3.384594,0.1715,-0.9566,0.0763,-1.7108,-3.2383,-2.0968,0.1502,-0.2705,-0.1129,
3.422966,0.1715,-0.9566,0.0763,-1.7108,-3.2383,-2.0968,-0.0756,-0.5848,-0.2450,
3.425185,0.1715,-0.9566,0.0763,0.3935,-0.5200,1.4120,-0.0756,-0.5848,-0.2450,
3.426800,0.4251,-0.9854,-0.5601,0.3935,-0.5200,1.4120,-0.0756,-0.5848,-0.2450,
3.428011,0.5737,-1.1293,-0.7825,0.3935,-0.5200,1.4120,-0.0756,-0.5848,-0.2450,
3.429342,0.5026,-1.0592,-0.3390,0.3935,-0.5200,1.4120,-0.0756,-0.5848,-0.2450,
3.430335,0.2590,-0.8473,0.1520,0.3935,-0.5200,1.4120,-0.0756,-0.5848,-0.2450,
3.462231,0.2590,-0.8473,0.1520,0.3935,-0.5200,1.4120,-0.2407,-1.4040,-0.4974,
3.463730,0.2590,-0.8473,0.1520,2.5087,-0.2228,-0.9622,-0.2407,-1.4040,-0.4974,
3.502260,0.2590,-0.8473,0.1520,2.5087,-0.2228,-0.9622,0.3260,-1.6788,-0.3973,
3.504887,0.2590,-0.8473,0.1520,-1.7915,1.4415,0.7059,0.3260,-1.6788,-0.3973,
3.506344,0.0235,-0.7306,0.2033,-1.7915,1.4415,0.7059,0.3260,-1.6788,-0.3973,
3.507473,-0.0256,-0.7904,-0.0972,-1.7915,1.4415,0.7059,0.3260,-1.6788,-0.3973,
3.508447,0.0125,-0.9971,-0.5606,-1.7915,1.4415,0.7059,0.3260,-1.6788,-0.3973,
3.509741,0.0970,-1.1415,-0.5953,-1.7915,1.4415,0.7059,0.3260,-1.6788,-0.3973,
3.541916,0.0970,-1.1415,-0.5953,-1.7915,1.4415,0.7059,-0.2727,-1.1845,0.0331,
3.544645,0.0970,-1.1415,-0.5953,-1.6427,1.3934,0.8779,-0.2727,-1.1845,0.0331,
3.581302,0.0970,-1.1415,-0.5953,-1.6427,1.3934,0.8779,-0.2812,-0.7478,0.0597,
3.584182,0.0970,-1.1415,-0.5953,0.3478,-1.0031,-0.1961,-0.2812,-0.7478,0.0597,
3.585445,0.1906,-1.1100,-0.2010,0.3478,-1.0031,-0.1961,-0.2812,-0.7478,0.0597,
3.586548,0.3049,-0.9986,-0.0356,0.3478,-1.0031,-0.1961,-0.2812,-0.7478,0.0597,
3.587669,0.2734,-0.9822,-0.1201,0.3478,-1.0031,-0.1961,-0.2812,-0.7478,0.0597,
3.588997,0.1774,-1.0316,-0.2301,0.3478,-1.0031,-0.1961,-0.2812,-0.7478,0.0597,
3.621008,0.1774,-1.0316,-0.2301,0.3478,-1.0031,-0.1961,0.1566,0.2493,-0.0330,
3.623700,0.1774,-1.0316,-0.2301,0.3053,-0.9724,-0.2669,0.1566,0.2493,-0.0330,
3.660682,0.1774,-1.0316,-0.2301,0.3053,-0.9724,-0.2669,0.2599,0.4080,0.3420,
3.663010,0.1774,-1.0316,-0.2301,0.2717,-0.5189,0.2372,0.2599,0.4080,0.3420,
3.664419,0.1046,-1.1144,-0.2877,0.2717,-0.5189,0.2372,0.2599,0.4080,0.3420,
3.665697,0.1806,-1.1359,-0.2904,0.2717,-0.5189,0.2372,0.2599,0.4080,0.3420,
3.667004,0.3355,-1.0943,-0.2076,0.2717,-0.5189,0.2372,0.2599,0.4080,0.3420,
3.667961,0.3404,-1.0631,-0.0400,0.2717,-0.5189,0.2372,0.2599,0.4080,0.3420,
3.699837,0.3404,-1.0631,-0.0400,0.2717,-0.5189,0.2372,0.6349,0.0299,0.3058,
3.702486,0.3404,-1.0631,-0.0400,1.3467,-0.9684,0.3113,0.6349,0.0299,0.3058,
3.739853,0.3404,-1.0631,-0.0400,1.3467,-0.9684,0.3113,1.2869,0.1875,0.1918,
3.742431,0.3404,-1.0631,-0.0400,1.3345,0.0243,1.0128,1.2869,0.1875,0.1918,
3.743672,0.3030,-1.0506,0.0225,1.3345,0.0243,1.0128,1.2869,0.1875,0.1918,
3.744933,0.2705,-1.0296,-0.0478,1.3345,0.0243,1.0128,1.2869,0.1875,0.1918,
3.746225,0.2673,-0.9407,-0.1358,1.3345,0.0243,1.0128,1.2869,0.1875,0.1918,
3.747349,0.3369,-0.8180,-0.2794,1.3345,0.0243,1.0128,1.2869,0.1875,0.1918,
3.779173,0.3369,-0.8180,-0.2794,1.3345,0.0243,1.0128,1.2059,-0.4399,0.2791,
3.781698,0.3369,-0.8180,-0.2794,1.4418,0.1001,0.5522,1.2059,-0.4399,0.2791,
3.819672,0.3369,-0.8180,-0.2794,1.4418,0.1001,0.5522,0.6488,-0.4708,0.1279,
3.822254,0.3369,-0.8180,-0.2794,1.1411,2.1067,-1.5956,0.6488,-0.4708,0.1279,
3.823691,0.2734,-0.7758,-0.3215,1.1411,2.1067,-1.5956,0.6488,-0.4708,0.1279,
3.824649,0.1234,-0.8114,-0.1546,1.1411,2.1067,-1.5956,0.6488,-0.4708,0.1279,
3.826017,0.1139,-0.8420,-0.0527,1.1411,2.1067,-1.5956,0.6488,-0.4708,0.1279,
3.826964,0.1317,-0.9136,-0.0918,1.1411,2.1067,-1.5956,0.6488,-0.4708,0.1279,
3.858942,0.1317,-0.9136,-0.0918,1.1411,2.1067,-1.5956,0.4155,0.0171,0.0821,
3.860882,0.1317,-0.9136,-0.0918,1.1537,2.0884,-1.7312,0.4155,0.0171,0.0821,
3.899342,0.1317,-0.9136,-0.0918,-0.0069,0.9729,-0.0226,0.4155,0.0171,0.0821,
3.902292,0.1317,-0.9136,-0.0918,-0.0069,0.9729,-0.0226,0.0139,-0.0873,0.1407,
3.903569,0.1151,-0.9883,-0.0877,-0.0069,0.9729,-0.0226,0.0139,-0.0873,0.1407,
3.904550,0.0711,-1.0179,-0.0747,-0.0069,0.9729,-0.0226,0.0139,-0.0873,0.1407,
3.905770,0.0438,-1.0247,-0.1475,-0.0069,0.9729,-0.0226,0.0139,-0.0873,0.1407,
3.907198,0.0777,-1.0362,-0.1490,-0.0069,0.9729,-0.0226,0.0139,-0.0873,0.1407,
3.937812,0.0777,-1.0362,-0.1490,-0.0069,0.9729,-0.0226,-0.5379,-0.1448,0.1662,
3.940297,0.0777,-1.0362,-0.1490,-0.4776,-0.1295,-0.2540,-0.5379,-0.1448,0.1662,
3.977606,0.0777,-1.0362,-0.1490,-0.4776,-0.1295,-0.2540,-0.6413,0.1950,0.0427,
3.979529,0.0777,-1.0362,-0.1490,-0.2074,0.0413,1.5852,-0.6413,0.1950,0.0427,
3.980867,0.0768,-1.0242,-0.0112,-0.2074,0.0413,1.5852,-0.6413,0.1950,0.0427,
3.981891,0.0765,-0.9998,0.0726,-0.2074,0.0413,1.5852,-0.6413,0.1950,0.0427,
3.983098,0.1185,-0.9944,0.0641,-0.2074,0.0413,1.5852,-0.6413,0.1950,0.0427,
3.984361,0.1232,-0.9883,0.0262,-0.2074,0.0413,1.5852,-0.6413,0.1950,0.0427,
4.017181,0.1232,-0.9883,0.0262,-0.2074,0.0413,1.5852,-0.5156,0.5550,-0.1778,
4.019755,0.1232,-0.9883,0.0262,-0.3000,0.0073,1.7327,-0.5156,0.5550,-0.1778,
4.057069,0.1232,-0.9883,0.0262,-0.3000,0.0073,1.7327,-0.7009,0.9194,-0.1352,
4.059547,0.1232,-0.9883,0.0262,-0.8317,0.3718,1.0250,-0.7009,0.9194,-0.1352,
4.061128,0.0528,-0.9597,-0.0517,-0.8317,0.3718,1.0250,-0.7009,0.9194,-0.1352,
4.062451,-0.0390,-0.9426,-0.1302,-0.8317,0.3718,1.0250,-0.7009,0.9194,-0.1352,
4.063622,-0.0984,-0.9336,-0.1783,-0.8317,0.3718,1.0250,-0.7009,0.9194,-0.1352,
4.064568,-0.1092,-0.9280,-0.1898,-0.8317,0.3718,1.0250,-0.7009,0.9194,-0.1352,
4.096577,-0.1092,-0.9280,-0.1898,-0.8317,0.3718,1.0250,-1.1377,0.8139,0.1662,
4.098956,-0.1092,-0.9280,-0.1898,-0.8089,0.2971,1.4009,-1.1377,0.8139,0.1662,
4.136255,-0.1092,-0.9280,-0.1898,-0.8089,0.2971,1.4009,-1.6256,0.5764,0.2067,
4.138571,-0.1092,-0.9280,-0.1898,-2.0038,0.5751,0.6962,-1.6256,0.5764,0.2067,
4.139927,-0.0408,-0.9006,-0.1820,-2.0038,0.5751,0.6962,-1.6256,0.5764,0.2067,
4.141031,0.1202,-0.8698,-0.2526,-2.0038,0.5751,0.6962,-1.6256,0.5764,0.2067,
4.142484,0.2280,-0.8554,-0.5401,-2.0038,0.5751,0.6962,-1.6256,0.5764,0.2067,
4.143510,0.2057,-0.8464,-0.4700,-2.0038,0.5751,0.6962,-1.6256,0.5764,0.2067,
4.175230,0.2057,-0.8464,-0.4700,-2.0038,0.5751,0.6962,-2.1252,0.7894,-0.0319,
4.176992,0.2057,-0.8464,-0.4700,0.5066,0.9379,-0.8570,-2.1252,0.7894,-0.0319,
4.214725,0.2057,-0.8464,-0.4700,0.5066,0.9379,-0.8570,-0.9662,0.3228,0.1716,
4.216371,0.2057,-0.8464,-0.4700,0.0954,0.1385,-0.0148,-0.9662,0.3228,0.1716,
4.217772,0.1136,-0.8603,-0.1922,0.0954,0.1385,-0.0148,-0.9662,0.3228,0.1716,
4.218828,0.0592,-0.9651,-0.3215,0.0954,0.1385,-0.0148,-0.9662,0.3228,0.1716,
4.219938,0.2500,-0.9526,-0.5948,0.0954,0.1385,-0.0148,-0.9662,0.3228,0.1716,
4.221169,0.3795,-0.9402,-0.6916,0.0954,0.1385,-0.0148,-0.9662,0.3228,0.1716,
4.255135,0.3795,-0.9402,-0.6916,0.0954,0.1385,-0.0148,-0.1885,-0.7701,0.2536,
4.257684,0.3795,-0.9402,-0.6916,0.2955,0.1212,0.0883,-0.1885,-0.7701,0.2536,
4.294903,0.3795,-0.9402,-0.6916,0.2955,0.1212,0.0883,-0.1523,-0.8980,-0.1810,
4.296727,0.3795,-0.9402,-0.6916,2.4762,-0.0516,-1.2349,-0.1523,-0.8980,-0.1810,
4.299273,0.3680,-0.9504,-0.5423,2.4762,-0.0516,-1.2349,-0.1523,-0.8980,-0.1810,
4.300521,0.3350,-0.9314,-0.3144,2.4762,-0.0516,-1.2349,-0.1523,-0.8980,-0.1810,
4.301315,0.1598,-0.9627,-0.2804,2.4762,-0.0516,-1.2349,-0.1523,-0.8980,-0.1810,
4.302644,-0.0830,-1.0284,-0.3537,2.4762,-0.0516,-1.2349,-0.1523,-0.8980,-0.1810,
4.333752,-0.0830,-1.0284,-0.3537,2.4762,-0.0516,-1.2349,0.3015,0.2003,-0.5720,
4.335959,-0.0830,-1.0284,-0.3537,2.2013,-0.0325,-1.3320,0.3015,0.2003,-0.5720,
4.373991,-0.0830,-1.0284,-0.3537,2.2013,-0.0325,-1.3320,0.8629,0.7564,-0.5326,
4.376196,-0.0830,-1.0284,-0.3537,-2.0017,-0.5351,0.2459,0.8629,0.7564,-0.5326,
4.377591,-0.1993,-1.0152,-0.3195,-2.0017,-0.5351,0.2459,0.8629,0.7564,-0.5326,
4.378791,-0.2022,-0.9126,-0.1639,-2.0017,-0.5351,0.2459,0.8629,0.7564,-0.5326,
4.379635,-0.2108,-0.7982,-0.0681,-2.0017,-0.5351,0.2459,0.8629,0.7564,-0.5326,
4.380763,-0.1998,-0.7645,-0.0588,-2.0017,-0.5351,0.2459,0.8629,0.7564,-0.5326,
4.413402,-0.1998,-0.7645,-0.0588,-2.0017,-0.5351,0.2459,1.3614,0.0512,-0.2567,
4.415853,-0.1998,-0.7645,-0.0588,-3.6442,1.3272,1.8710,1.3614,0.0512,-0.2567,
4.454093,-0.1998,-0.7645,-0.0588,-3.6442,1.3272,1.8710,1.7609,-0.1097,-0.2194,
4.456623,-0.1998,-0.7645,-0.0588,-1.2874,1.1794,0.1569,1.7609,-0.1097,-0.2194,
4.457987,-0.1001,-0.7897,-0.0989,-1.2874,1.1794,0.1569,1.7609,-0.1097,-0.2194,
4.459013,0.0572,-0.8591,-0.2237,-1.2874,1.1794,0.1569,1.7609,-0.1097,-0.2194,
4.459830,0.1669,-0.9145,-0.2914,-1.2874,1.1794,0.1569,1.7609,-0.1097,-0.2194,
4.464742,0.1808,-0.9429,-0.2276,-1.2874,1.1794,0.1569,1.7609,-0.1097,-0.2194,
4.494131,0.1808,-0.9429,-0.2276,-1.2874,1.1794,0.1569,2.0464,0.0554,-0.3739,
4.496629,0.1808,-0.9429,-0.2276,-1.4096,1.2754,-0.6168,2.0464,0.0554,-0.3739,
4.533807,0.1808,-0.9429,-0.2276,-1.4096,1.2754,-0.6168,1.7215,-0.6423,-0.1043,
4.537005,0.1808,-0.9429,-0.2276,-1.0297,-0.8431,-1.3894,1.7215,-0.6423,-0.1043,
4.538472,0.0758,-1.0430,-0.1612,-1.0297,-0.8431,-1.3894,1.7215,-0.6423,-0.1043,
4.539673,-0.0173,-1.2505,-0.2809,-1.0297,-0.8431,-1.3894,1.7215,-0.6423,-0.1043,
4.542165,-0.0764,-1.5009,-0.4419,-1.0297,-0.8431,-1.3894,1.7215,-0.6423,-0.1043,
4.543165,-0.1463,-1.4571,-0.5499,-1.0297,-0.8431,-1.3894,1.7215,-0.6423,-0.1043,
4.572762,-0.1463,-1.4571,-0.5499,-1.0297,-0.8431,-1.3894,0.5177,-0.6125,0.1737,
4.574962,-0.1463,-1.4571,-0.5499,-0.9303,-0.8027,-1.5202,0.5177,-0.6125,0.1737,
4.612525,-0.1463,-1.4571,-0.5499,-0.9303,-0.8027,-1.5202,-0.7371,0.6094,0.1279,
4.615855,-0.1463,-1.4571,-0.5499,-2.9521,-3.8461,-4.1164,-0.7371,0.6094,0.1279,
4.617328,-0.1815,-1.2255,-0.5689,-2.9521,-3.8461,-4.1164,-0.7371,0.6094,0.1279,
4.618320,-0.1082,-1.0135,-0.5702,-2.9521,-3.8461,-4.1164,-0.7371,0.6094,0.1279,
4.619393,-0.0781,-0.9082,-0.3261,-2.9521,-3.8461,-4.1164,-0.7371,0.6094,0.1279,
4.620484,0.0560,-0.9118,0.0110,-2.9521,-3.8461,-4.1164,-0.7371,0.6094,0.1279,
4.651089,0.0560,-0.9118,0.0110,-2.9521,-3.8461,-4.1164,-0.8937,0.9875,0.4432,
4.653353,0.0560,-0.9118,0.0110,-1.8972,0.5424,-1.5965,-0.8937,0.9875,0.4432,
4.691338,0.0560,-0.9118,0.0110,-1.8972,0.5424,-1.5965,-0.3515,-0.0522,0.3303,
4.693576,0.0560,-0.9118,0.0110,3.0635,1.1960,0.9697,-0.3515,-0.0522,0.3303,
4.694935,0.3394,-0.9060,0.0064,3.0635,1.1960,0.9697,-0.3515,-0.0522,0.3303,
4.696230,0.5346,-0.8539,-0.0950,3.0635,1.1960,0.9697,-0.3515,-0.0522,0.3303,
4.697370,0.4899,-0.8671,-0.0486,3.0635,1.1960,0.9697,-0.3515,-0.0522,0.3303,
4.699591,0.3130,-0.9473,0.0773,3.0635,1.1960,0.9697,-0.3515,-0.0522,0.3303,
4.729653,0.3130,-0.9473,0.0773,3.0635,1.1960,0.9697,0.0117,0.1854,-0.1086,
4.732144,0.3130,-0.9473,0.0773,2.9608,1.1707,0.9389,0.0117,0.1854,-0.1086,
4.769773,0.3130,-0.9473,0.0773,2.9608,1.1707,0.9389,-0.0128,1.2496,0.0096,
4.772344,0.3130,-0.9473,0.0773,0.3868,-0.7535,0.2360,-0.0128,1.2496,0.0096,
4.773646,0.1733,-1.1092,-0.0195,0.3868,-0.7535,0.2360,-0.0128,1.2496,0.0096,
4.774889,0.1110,-1.1635,-0.3872,0.3868,-0.7535,0.2360,-0.0128,1.2496,0.0096,
4.776419,0.0611,-1.0447,-0.4026,0.3868,-0.7535,0.2360,-0.0128,1.2496,0.0096,
4.777420,0.1278,-0.9612,0.0829,0.3868,-0.7535,0.2360,-0.0128,1.2496,0.0096,
4.809342,0.1278,-0.9612,0.0829,0.3868,-0.7535,0.2360,-0.0575,0.8959,0.3399,
4.811507,0.1278,-0.9612,0.0829,0.4646,-0.7236,0.2003,-0.0575,0.8959,0.3399,
4.849187,0.1278,-0.9612,0.0829,0.4646,-0.7236,0.2003,0.6978,1.0387,0.4698,
4.851381,0.1278,-0.9612,0.0829,0.1640,0.1576,0.8453,0.6978,1.0387,0.4698,
4.852815,0.2754,-0.9610,0.2932,0.1640,0.1576,0.8453,0.6978,1.0387,0.4698,
4.854131,0.4268,-1.0782,0.0328,0.1640,0.1576,0.8453,0.6978,1.0387,0.4698,
4.855617,0.4400,-1.1251,-0.4656,0.1640,0.1576,0.8453,0.6978,1.0387,0.4698,
4.856609,0.2964,-0.9719,-0.3083,0.1640,0.1576,0.8453,0.6978,1.0387,0.4698,
4.889344,0.2964,-0.9719,-0.3083,0.1640,0.1576,0.8453,0.4794,0.4869,0.4507,
4.891603,0.2964,-0.9719,-0.3083,2.5640,-0.4766,-1.6731,0.4794,0.4869,0.4507,
4.929425,0.2964,-0.9719,-0.3083,2.5640,-0.4766,-1.6731,1.0365,0.5092,0.4485,
4.932259,0.2964,-0.9719,-0.3083,2.0284,1.3449,0.5878,1.0365,0.5092,0.4485,
4.933782,0.3152,-0.8857,0.1398,2.0284,1.3449,0.5878,1.0365,0.5092,0.4485,
4.934899,0.3448,-0.9094,0.0834,2.0284,1.3449,0.5878,1.0365,0.5092,0.4485,
4.936093,0.2993,-0.8285,-0.1372,2.0284,1.3449,0.5878,1.0365,0.5092,0.4485,
4.936923,0.2607,-0.7425,-0.2895,2.0284,1.3449,0.5878,1.0365,0.5092,0.4485,
4.967410,0.2607,-0.7425,-0.2895,2.0284,1.3449,0.5878,0.8959,0.2067,0.5274,
4.969648,0.2607,-0.7425,-0.2895,2.1974,1.3475,0.2229,0.8959,0.2067,0.5274,
5.008072,0.2607,-0.7425,-0.2895,2.1974,1.3475,0.2229,0.4102,0.3910,0.4901,
5.010580,0.2607,-0.7425,-0.2895,1.6890,1.7735,-2.2781,0.4102,0.3910,0.4901,
5.011923,0.2402,-0.8241,-0.2596,1.6890,1.7735,-2.2781,0.4102,0.3910,0.4901,
5.013062,0.2517,-0.9216,-0.0891,1.6890,1.7735,-2.2781,0.4102,0.3910,0.4901,
5.014170,0.2751,-0.9473,0.0152,1.6890,1.7735,-2.2781,0.4102,0.3910,0.4901,
5.016222,0.2761,-0.9595,0.0035,1.6890,1.7735,-2.2781,0.4102,0.3910,0.4901,
5.047080,0.2761,-0.9595,0.0035,1.6890,1.7735,-2.2781,0.3686,0.4251,0.4038,
5.048985,0.2761,-0.9595,0.0035,1.8213,1.7509,-2.3939,0.3686,0.4251,0.4038,
5.086779,0.3013,-1.0018,-0.0952,1.8213,1.7509,-2.3939,0.3686,0.4251,0.4038,
5.088980,0.4239,-1.1024,-0.1121,1.8213,1.7509,-2.3939,0.3686,0.4251,0.4038,
5.090177,0.5495,-1.1012,-0.1082,1.8213,1.7509,-2.3939,0.3686,0.4251,0.4038,
5.091299,0.5495,-1.1012,-0.1082,1.8213,1.7509,-2.3939,-0.0064,-0.0117,0.1588,
5.092320,0.5495,-1.1012,-0.1082,2.1729,0.3758,-0.5471,-0.0064,-0.0117,0.1588,
5.126221,0.5495,-1.1012,-0.1082,2.1729,0.3758,-0.5471,-0.4506,-0.6125,-0.3802,
5.128098,0.5495,-1.1012,-0.1082,4.0040,-0.6715,-0.9824,-0.4506,-0.6125,-0.3802,
5.166060,0.5495,-1.1012,-0.1082,4.0040,-0.6715,-0.9824,-0.6754,-0.8681,-0.7328,
5.169718,0.5495,-1.1012,-0.1082,3.6574,-0.6898,-0.6733,-0.6754,-0.8681,-0.7328,
5.170945,0.5075,-1.0269,-0.0537,3.6574,-0.6898,-0.6733,-0.6754,-0.8681,-0.7328,
5.172144,0.3787,-0.9859,0.0069,3.6574,-0.6898,-0.6733,-0.6754,-0.8681,-0.7328,
5.173251,0.2285,-0.9500,-0.0149,3.6574,-0.6898,-0.6733,-0.6754,-0.8681,-0.7328,
5.174424,0.0660,-0.9602,-0.0945,3.6574,-0.6898,-0.6733,-0.6754,-0.8681,-0.7328,
5.175387,-0.0454,-1.0242,-0.1512,3.6574,-0.6898,-0.6733,-0.6754,-0.8681,-0.7328,
5.206292,-0.0454,-1.0242,-0.1512,3.6574,-0.6898,-0.6733,-0.9800,-0.6913,-0.5571,
5.208599,-0.0454,-1.0242,-0.1512,0.7993,0.3516,0.2994,-0.9800,-0.6913,-0.5571,
5.245985,-0.0454,-1.0242,-0.1512,0.7993,0.3516,0.2994,-1.3475,-0.4793,-0.2162,
5.248299,-0.0454,-1.0242,-0.1512,-2.2088,-0.7233,0.0194,-1.3475,-0.4793,-0.2162,
5.249817,-0.0911,-1.0841,-0.1214,-2.2088,-0.7233,0.0194,-1.3475,-0.4793,-0.2162,
5.251091,-0.1021,-1.1019,-0.0837,-2.2088,-0.7233,0.0194,-1.3475,-0.4793,-0.2162,
5.252251,-0.0838,-1.0772,-0.1087,-2.2088,-0.7233,0.0194,-1.3475,-0.4793,-0.2162,
5.253634,-0.0950,-1.0435,-0.1441,-2.2088,-0.7233,0.0194,-1.3475,-0.4793,-0.2162,
5.285914,-0.0950,-1.0435,-0.1441,-2.1808,-0.8146,0.6728,-1.3475,-0.4793,-0.2162,
5.288308,-0.0950,-1.0435,-0.1441,-2.1808,-0.8146,0.6728,-1.6256,-0.6881,-0.1310,
5.325029,-0.0950,-1.0435,-0.1441,-2.1808,-0.8146,0.6728,-1.8706,-0.3398,-0.1896,
5.327815,-0.0950,-1.0435,-0.1441,-2.3377,-0.7941,1.0257,-1.8706,-0.3398,-0.1896,
5.329306,-0.1067,-1.0340,-0.2137,-2.3377,-0.7941,1.0257,-1.8706,-0.3398,-0.1896,
5.330307,-0.0437,-1.0345,-0.3674,-2.3377,-0.7941,1.0257,-1.8706,-0.3398,-0.1896,
5.331451,0.0352,-1.0352,-0.4866,-2.3377,-0.7941,1.0257,-1.8706,-0.3398,-0.1896,
5.332519,0.0807,-1.0176,-0.4148,-2.3377,-0.7941,1.0257,-1.8706,-0.3398,-0.1896,
5.364869,0.0807,-1.0176,-0.4148,-2.3377,-0.7941,1.0257,-1.9025,0.2323,-0.4165,
5.367176,0.0807,-1.0176,-0.4148,-1.3297,-0.8037,-0.8856,-1.9025,0.2323,-0.4165,
5.405667,0.0807,-1.0176,-0.4148,-1.3297,-0.8037,-0.8856,-1.0546,0.1321,-0.2929,
5.407939,-0.0041,-1.0164,-0.1646,-1.3297,-0.8037,-0.8856,-1.0546,0.1321,-0.2929,
5.409236,-0.0320,-1.1171,-0.0513,-1.3297,-0.8037,-0.8856,-1.0546,0.1321,-0.2929,
5.410362,0.1122,-1.0992,-0.0307,-1.3297,-0.8037,-0.8856,-1.0546,0.1321,-0.2929,
5.411501,0.1864,-0.9986,-0.1524,-1.3297,-0.8037,-0.8856,-1.0546,0.1321,-0.2929,
5.413042,0.1864,-0.9986,-0.1524,-1.4178,-1.4176,2.7826,-1.0546,0.1321,-0.2929,
5.444045,0.1864,-0.9986,-0.1524,-1.4178,-1.4176,2.7826,-0.2823,-0.5837,-0.1555,
5.446223,0.1864,-0.9986,-0.1524,-1.3654,-1.4441,2.8742,-0.2823,-0.5837,-0.1555,
5.483855,0.1864,-0.9986,-0.1524,-1.3654,-1.4441,2.8742,0.1609,-0.8681,-0.2258,
5.486308,0.1864,-0.9986,-0.1524,-0.3398,-0.2409,1.4505,0.1609,-0.8681,-0.2258,
5.487782,0.1329,-0.9360,-0.2548,-0.3398,-0.2409,1.4505,0.1609,-0.8681,-0.2258,
5.489212,0.0550,-0.9338,-0.2667,-0.3398,-0.2409,1.4505,0.1609,-0.8681,-0.2258,
5.490211,0.0391,-0.9974,-0.3161,-0.3398,-0.2409,1.4505,0.1609,-0.8681,-0.2258,
5.491137,0.0189,-1.0469,-0.4177,-0.3398,-0.2409,1.4505,0.1609,-0.8681,-0.2258,
5.524970,0.0189,-1.0469,-0.4177,-0.3398,-0.2409,1.4505,0.4038,-0.6285,-0.2503,
5.527568,0.0189,-1.0469,-0.4177,-0.3349,-0.1954,1.3206,0.4038,-0.6285,-0.2503,
5.553988,0.0289,-0.9763,-0.3984,-0.3349,-0.1954,1.3206,0.4038,-0.6285,-0.2503,
5.556007,0.0572,-0.8742,-0.2750,-0.3349,-0.1954,1.3206,0.4038,-0.6285,-0.2503,
5.557434,0.0780,-0.8024,-0.2044,-0.3349,-0.1954,1.3206,0.4038,-0.6285,-0.2503,
5.562720,0.0780,-0.8024,-0.2044,-0.3349,-0.1954,1.3206,0.4773,-0.3291,-0.2460,
5.564283,0.0780,-0.8024,-0.2044,-1.2969,-0.6320,-0.3246,0.4773,-0.3291,-0.2460,
5.603571,0.0780,-0.8024,-0.2044,-1.2969,-0.6320,-0.3246,0.7127,-0.1747,-0.3035,
5.605675,0.0780,-0.8024,-0.2044,-0.8769,1.3134,0.9017,0.7127,-0.1747,-0.3035,
5.627812,0.1029,-0.7638,-0.1959,-0.8769,1.3134,0.9017,0.7127,-0.1747,-0.3035,
5.630610,0.1151,-0.7320,-0.2079,-0.8769,1.3134,0.9017,0.7127,-0.1747,-0.3035,
5.631661,0.1122,-0.6890,-0.2210,-0.8769,1.3134,0.9017,0.7127,-0.1747,-0.3035,
5.633113,0.0843,-0.6526,-0.2355,-0.8769,1.3134,0.9017,0.7127,-0.1747,-0.3035,
5.643336,0.0843,-0.6526,-0.2355,-0.8769,1.3134,0.9017,0.7958,-0.0021,-0.3813,
5.645053,0.0843,-0.6526,-0.2355,-0.7642,2.5357,0.6329,0.7958,-0.0021,-0.3813,
5.681281,0.0843,-0.6526,-0.2355,-0.7642,2.5357,0.6329,0.6413,0.1481,-0.4921,
5.683784,0.0843,-0.6526,-0.2355,-1.5946,1.5662,-0.9965,0.6413,0.1481,-0.4921,
5.714245,0.0452,-0.6602,-0.2623,-1.5946,1.5662,-0.9965,0.6413,0.1481,-0.4921,
5.716859,0.0364,-0.7462,-0.3295,-1.5946,1.5662,-0.9965,0.6413,0.1481,-0.4921,
5.718187,0.0279,-0.9656,-0.5005,-1.5946,1.5662,-0.9965,0.6413,0.1481,-0.4921,
5.719433,0.0289,-1.2277,-0.5528,-1.5946,1.5662,-0.9965,0.6413,0.1481,-0.4921,
5.721025,0.0289,-1.2277,-0.5528,-1.5946,1.5662,-0.9965,0.3516,-0.0159,-0.5049,
5.722252,0.0289,-1.2277,-0.5528,-1.7498,1.5341,-1.1062,0.3516,-0.0159,-0.5049,
5.761405,0.0289,-1.2277,-0.5528,-1.7498,1.5341,-1.1062,0.2259,0.3697,-0.2300,
5.763287,0.0289,-1.2277,-0.5528,-2.1004,-3.3096,-1.8663,0.2259,0.3697,-0.2300,
5.800723,0.0289,-1.2277,-0.5528,-2.1004,-3.3096,-1.8663,0.0373,0.7841,0.1726,
5.803309,0.0289,-1.2277,-0.5528,-2.0738,-3.2362,-1.9162,0.0373,0.7841,0.1726,
5.804673,0.0555,-1.3069,-0.3662,-2.0738,-3.2362,-1.9162,0.0373,0.7841,0.1726,
5.805706,-0.0564,-1.3379,-0.3806,-2.0738,-3.2362,-1.9162,0.0373,0.7841,0.1726,
5.806815,-0.0730,-1.3978,-0.4661,-2.0738,-3.2362,-1.9162,0.0373,0.7841,0.1726,
5.807801,0.1877,-1.2060,-0.2399,-2.0738,-3.2362,-1.9162,0.0373,0.7841,0.1726,
5.808960,0.2028,-0.9265,-0.0337,-2.0738,-3.2362,-1.9162,0.0373,0.7841,0.1726,
5.841206,0.2028,-0.9265,-0.0337,-2.0738,-3.2362,-1.9162,0.1779,0.8128,0.2855,
5.843356,0.2028,-0.9265,-0.0337,-1.0760,-2.0432,-0.2192,0.1779,0.8128,0.2855,
5.879913,0.2028,-0.9265,-0.0337,-1.0760,-2.0432,-0.2192,0.6882,0.2706,0.2397,
5.882378,0.2028,-0.9265,-0.0337,-1.1139,0.7115,0.7916,0.6882,0.2706,0.2397,
5.885436,0.0782,-0.8310,-0.1299,-1.1139,0.7115,0.7916,0.6882,0.2706,0.2397,
5.886452,0.0775,-0.8740,-0.1160,-1.1139,0.7115,0.7916,0.6882,0.2706,0.2397,
5.887648,0.1237,-1.0015,-0.0938,-1.1139,0.7115,0.7916,0.6882,0.2706,0.2397,
5.888889,0.1466,-1.0484,-0.1109,-1.1139,0.7115,0.7916,0.6882,0.2706,0.2397,
5.918846,0.1466,-1.0484,-0.1109,-1.1139,0.7115,0.7916,0.8416,0.3431,0.1321,
5.921248,0.1466,-1.0484,-0.1109,-1.0690,0.7667,0.4370,0.8416,0.3431,0.1321,
5.959719,0.1466,-1.0484,-0.1109,-1.0690,0.7667,0.4370,0.3558,0.5433,0.1577,
5.961517,0.1466,-1.0484,-0.1109,-0.6364,0.1310,-0.5718,0.3558,0.5433,0.1577,
5.963409,0.1342,-0.9639,-0.1673,-0.6364,0.1310,-0.5718,0.3558,0.5433,0.1577,
5.964399,0.1188,-0.8982,-0.3188,-0.6364,0.1310,-0.5718,0.3558,0.5433,0.1577,
5.965501,0.0951,-0.8737,-0.3764,-0.6364,0.1310,-0.5718,0.3558,0.5433,0.1577,
5.966861,0.1156,-0.8134,-0.2017,-0.6364,0.1310,-0.5718,0.3558,0.5433,0.1577,
5.998784,0.1156,-0.8134,-0.2017,-0.6364,0.1310,-0.5718,-0.3078,0.6381,0.1875,
6.000574,0.1156,-0.8134,-0.2017,-0.5900,0.1261,-0.4944,-0.3078,0.6381,0.1875,
6.038832,0.1156,-0.8134,-0.2017,-0.5900,0.1261,-0.4944,-0.2226,0.8938,-0.1331,
6.041162,0.1156,-0.8134,-0.2017,-0.4638,1.5545,-0.5549,-0.2226,0.8938,-0.1331,
6.042960,0.2566,-0.7709,-0.0451,-0.4638,1.5545,-0.5549,-0.2226,0.8938,-0.1331,
6.043968,0.4356,-0.7887,-0.0481,-0.4638,1.5545,-0.5549,-0.2226,0.8938,-0.1331,
6.044956,0.4967,-0.8869,0.0482,-0.4638,1.5545,-0.5549,-0.2226,0.8938,-0.1331,
6.046311,0.4347,-0.9954,-0.0122,-0.4638,1.5545,-0.5549,-0.2226,0.8938,-0.1331,
6.077600,0.4347,-0.9954,-0.0122,-0.4638,1.5545,-0.5549,-0.0852,0.9439,-0.4346,
6.079988,0.4347,-0.9954,-0.0122,2.2184,0.8037,1.3726,-0.0852,0.9439,-0.4346,
6.117788,0.4347,-0.9954,-0.0122,2.2184,0.8037,1.3726,-0.3238,0.7766,-0.0809,
6.119715,0.4347,-0.9954,-0.0122,0.1706,-1.0720,-0.2406,-0.3238,0.7766,-0.0809,
6.121320,0.2641,-1.1105,-0.2457,0.1706,-1.0720,-0.2406,-0.3238,0.7766,-0.0809,
6.122676,0.2148,-1.1180,-0.2044,0.1706,-1.0720,-0.2406,-0.3238,0.7766,-0.0809,
6.123700,0.2849,-1.0145,-0.0728,0.1706,-1.0720,-0.2406,-0.3238,0.7766,-0.0809,
6.124690,0.3670,-1.0237,0.1203,0.1706,-1.0720,-0.2406,-0.3238,0.7766,-0.0809,
6.157268,0.3670,-1.0237,0.1203,0.1706,-1.0720,-0.2406,0.0597,0.2941,0.2152,
6.159461,0.3670,-1.0237,0.1203,0.2310,-1.0316,-0.2853,0.0597,0.2941,0.2152,
6.197404,0.3670,-1.0237,0.1203,0.2310,-1.0316,-0.2853,0.7020,-0.0042,0.1353,
6.200056,0.3670,-1.0237,0.1203,1.9343,-1.3652,2.0740,0.7020,-0.0042,0.1353,
6.201456,0.4696,-1.1422,0.1567,1.9343,-1.3652,2.0740,0.7020,-0.0042,0.1353,
6.202921,0.4430,-1.2009,0.0147,1.9343,-1.3652,2.0740,0.7020,-0.0042,0.1353,
6.204051,0.2639,-1.1249,-0.0823,1.9343,-1.3652,2.0740,0.7020,-0.0042,0.1353,
6.205250,0.1449,-1.0545,-0.0855,1.9343,-1.3652,2.0740,0.7020,-0.0042,0.1353,
6.236687,0.1449,-1.0545,-0.0855,1.9343,-1.3652,2.0740,0.7553,-0.0138,0.3282,
6.239008,0.1449,-1.0545,-0.0855,2.0262,-1.2858,1.7562,0.7553,-0.0138,0.3282,
6.276554,0.1449,-1.0545,-0.0855,2.0262,-1.2858,1.7562,0.6371,-0.2109,0.6637,
6.278807,0.1449,-1.0545,-0.0855,-0.0155,-0.5718,-0.3381,0.6371,-0.2109,0.6637,
6.280042,0.1654,-0.9934,-0.1133,-0.0155,-0.5718,-0.3381,0.6371,-0.2109,0.6637,
6.281175,0.2185,-0.9729,-0.1338,-0.0155,-0.5718,-0.3381,0.6371,-0.2109,0.6637,
6.282429,0.2360,-0.9438,-0.1189,-0.0155,-0.5718,-0.3381,0.6371,-0.2109,0.6637,
6.283432,0.2050,-0.8635,-0.0881,-0.0155,-0.5718,-0.3381,0.6371,-0.2109,0.6637,
6.315877,0.2050,-0.8635,-0.0881,-0.0155,-0.5718,-0.3381,0.5081,-0.2780,0.7170,
6.318197,0.2050,-0.8635,-0.0881,0.5385,0.7574,-0.7003,0.5081,-0.2780,0.7170,
6.356064,0.2050,-0.8635,-0.0881,0.5385,0.7574,-0.7003,0.3494,0.0448,0.7660,
6.358000,0.2050,-0.8635,-0.0881,0.0671,1.5678,-0.5020,0.3494,0.0448,0.7660,
6.359771,0.1642,-0.8188,-0.1072,0.0671,1.5678,-0.5020,0.3494,0.0448,0.7660,
6.361166,0.1285,-0.8464,-0.0933,0.0671,1.5678,-0.5020,0.3494,0.0448,0.7660,
6.362305,0.1312,-0.8740,-0.0398,0.0671,1.5678,-0.5020,0.3494,0.0448,0.7660,
6.363315,0.1796,-0.9043,0.0142,0.0671,1.5678,-0.5020,0.3494,0.0448,0.7660,
6.395635,0.1796,-0.9043,0.0142,0.0671,1.5678,-0.5020,0.2482,0.2387,0.8129,
6.397904,0.1796,-0.9043,0.0142,0.3768,1.5807,-0.5997,0.2482,0.2387,0.8129,
6.435220,0.1796,-0.9043,0.0142,0.3768,1.5807,-0.5997,0.1353,0.2898,0.5860,
6.437624,0.1796,-0.9043,0.0142,1.8221,0.5475,0.2922,0.1353,0.2898,0.5860,
6.439698,0.2737,-0.9688,0.0157,1.8221,0.5475,0.2922,0.1353,0.2898,0.5860,
6.440844,0.3528,-0.9861,0.0237,1.8221,0.5475,0.2922,0.1353,0.2898,0.5860,
6.442240,0.3814,-0.9715,0.0628,1.8221,0.5475,0.2922,0.1353,0.2898,0.5860,
6.443529,0.3274,-1.0132,0.0970,1.8221,0.5475,0.2922,0.1353,0.2898,0.5860,
6.474436,0.3274,-1.0132,0.0970,1.8221,0.5475,0.2922,0.0288,0.3644,0.1481,
6.476073,0.3274,-1.0132,0.0970,1.8474,0.5430,0.2653,0.0288,0.3644,0.1481,
6.513694,0.2246,-1.0203,0.0423,1.8474,0.5430,0.2653,0.0288,0.3644,0.1481,
6.515752,0.1745,-0.9683,-0.0048,1.8474,0.5430,0.2653,0.0288,0.3644,0.1481,
6.517148,0.1855,-0.9509,-0.0029,1.8474,0.5430,0.2653,0.0288,0.3644,0.1481,
6.518510,0.1855,-0.9509,-0.0029,1.8474,0.5430,0.2653,-0.1736,0.2099,-0.0948,
6.520941,0.1855,-0.9509,-0.0029,2.1881,0.0617,0.7984,-0.1736,0.2099,-0.0948,
6.553863,0.1855,-0.9509,-0.0029,2.1881,0.0617,0.7984,-0.3302,0.0032,-0.2514,
6.556304,0.1855,-0.9509,-0.0029,0.9226,0.4666,0.2026,-0.3302,0.0032,-0.2514,
6.592620,0.1855,-0.9509,-0.0029,0.9226,0.4666,0.2026,-0.5379,0.1130,-0.4548,
6.594569,0.1855,-0.9509,-0.0029,0.7310,0.4323,0.4010,-0.5379,0.1130,-0.4548,
6.596016,0.2209,-0.9558,-0.0109,0.7310,0.4323,0.4010,-0.5379,0.1130,-0.4548,
6.597254,0.1974,-0.9710,-0.0447,0.7310,0.4323,0.4010,-0.5379,0.1130,-0.4548,
6.598370,0.0907,-0.9600,-0.0984,0.7310,0.4323,0.4010,-0.5379,0.1130,-0.4548,
6.599664,-0.0254,-0.9566,-0.1673,0.7310,0.4323,0.4010,-0.5379,0.1130,-0.4548,
6.600466,-0.0899,-0.9475,-0.2164,0.7310,0.4323,0.4010,-0.5379,0.1130,-0.4548,
6.633335,-0.0899,-0.9475,-0.2164,0.7310,0.4323,0.4010,-1.1409,0.3420,-0.5113,
6.638126,-0.0899,-0.9475,-0.2164,-0.5073,0.3297,-0.1241,-1.1409,0.3420,-0.5113,
6.672514,-0.0899,-0.9475,-0.2164,-0.5073,0.3297,-0.1241,-1.5521,0.3590,-0.4996,
6.674634,-0.0899,-0.9475,-0.2164,-2.4882,0.2738,-0.4636,-1.5521,0.3590,-0.4996,
6.675828,-0.1143,-0.9380,-0.1859,-2.4882,0.2738,-0.4636,-1.5521,0.3590,-0.4996,
6.676771,-0.0884,-0.9866,-0.1910,-2.4882,0.2738,-0.4636,-1.5521,0.3590,-0.4996,
6.677520,0.0115,-1.0758,-0.2885,-2.4882,0.2738,-0.4636,-1.5521,0.3590,-0.4996,
6.678533,0.1080,-1.1014,-0.3747,-2.4882,0.2738,-0.4636,-1.5521,0.3590,-0.4996,
6.711244,0.1080,-1.1014,-0.3747,-2.4882,0.2738,-0.4636,-1.7587,0.5039,-0.5315,
6.713356,0.1080,-1.1014,-0.3747,-2.6806,0.1121,0.1684,-1.7587,0.5039,-0.5315,
6.752788,0.1080,-1.1014,-0.3747,-2.6806,0.1121,0.1684,-1.1920,0.1279,-0.5198,
6.755154,0.1080,-1.1014,-0.3747,-1.1882,-1.0604,-0.5350,-1.1920,0.1279,-0.5198,
6.756474,0.1014,-1.0142,-0.2816,-1.1882,-1.0604,-0.5350,-1.1920,0.1279,-0.5198,
6.757610,0.1183,-0.9666,-0.1148,-1.1882,-1.0604,-0.5350,-1.1920,0.1279,-0.5198,
6.758443,0.1535,-1.0386,-0.2833,-1.1882,-1.0604,-0.5350,-1.1920,0.1279,-0.5198,
6.759745,0.1261,-1.0951,-0.5350,-1.1882,-1.0604,-0.5350,-1.1920,0.1279,-0.5198,
6.791292,0.1261,-1.0951,-0.5350,-1.1882,-1.0604,-0.5350,-0.6722,-0.9693,-0.5464,
6.794216,0.1261,-1.0951,-0.5350,-0.6944,-0.8627,-0.1697,-0.6722,-0.9693,-0.5464,
6.830717,0.1261,-1.0951,-0.5350,-0.6944,-0.8627,-0.1697,-0.5763,-1.0674,-0.3387,
6.839343,0.1261,-1.0951,-0.5350,-0.8896,-1.8388,0.3389,-0.5763,-1.0674,-0.3387,
6.843860,0.0543,-1.1056,-0.4307,-0.8896,-1.8388,0.3389,-0.5763,-1.0674,-0.3387,
6.845703,0.0934,-1.1310,-0.1983,-0.8896,-1.8388,0.3389,-0.5763,-1.0674,-0.3387,
6.847161,0.1845,-1.1427,-0.2369,-0.8896,-1.8388,0.3389,-0.5763,-1.0674,-0.3387,
6.848506,0.1176,-1.1041,-0.3034,-0.8896,-1.8388,0.3389,-0.5763,-1.0674,-0.3387,
6.870818,0.1176,-1.1041,-0.3034,-0.8896,-1.8388,0.3389,-0.4943,-0.4804,-0.3632,
6.873270,0.1176,-1.1041,-0.3034,-0.9432,-1.8997,0.5469,-0.4943,-0.4804,-0.3632,
6.910897,0.1176,-1.1041,-0.3034,-0.9432,-1.8997,0.5469,-0.2897,-0.2641,-0.2407,
6.913571,0.1176,-1.1041,-0.3034,-2.1555,-1.4254,0.2796,-0.2897,-0.2641,-0.2407,
6.914901,-0.0285,-1.0614,-0.3002,-2.1555,-1.4254,0.2796,-0.2897,-0.2641,-0.2407,
6.916047,-0.1236,-1.0579,-0.3813,-2.1555,-1.4254,0.2796,-0.2897,-0.2641,-0.2407,
6.916875,-0.0698,-1.0342,-0.3867,-2.1555,-1.4254,0.2796,-0.2897,-0.2641,-0.2407,
6.918145,0.0601,-0.9307,-0.2279,-2.1555,-1.4254,0.2796,-0.2897,-0.2641,-0.2407,
6.950294,0.0601,-0.9307,-0.2279,-2.1555,-1.4254,0.2796,-0.0330,-0.5145,-0.0490,
6.952954,0.0601,-0.9307,-0.2279,-2.0661,-1.4101,0.3272,-0.0330,-0.5145,-0.0490,
6.990584,0.0601,-0.9307,-0.2279,-2.0661,-1.4101,0.3272,0.3633,-0.4303,-0.1107,
6.993122,0.0601,-0.9307,-0.2279,-1.5422,0.0122,1.2074,0.3633,-0.4303,-0.1107,
6.994582,0.1215,-0.8359,-0.0644,-1.5422,0.0122,1.2074,0.3633,-0.4303,-0.1107,
6.996099,0.0663,-0.8031,-0.0566,-1.5422,0.0122,1.2074,0.3633,-0.4303,-0.1107,
6.997373,-0.0290,-0.7968,-0.1372,-1.5422,0.0122,1.2074,0.3633,-0.4303,-0.1107,
6.998335,-0.0786,-0.7772,-0.2379,-1.5422,0.0122,1.2074,0.3633,-0.4303,-0.1107,
7.034510,-0.0786,-0.7772,-0.2379,-1.5422,0.0122,1.2074,0.6669,-0.2343,-0.0330,
7.036953,-0.0786,-0.7772,-0.2379,-1.9898,1.4565,1.7595,0.6669,-0.2343,-0.0330,
7.069423,-0.0786,-0.7772,-0.2379,-1.9898,1.4565,1.7595,0.6946,-0.2237,0.0437,
7.071784,-0.0786,-0.7772,-0.2379,-2.1230,2.3828,-0.0099,0.6946,-0.2237,0.0437,
7.073248,-0.0701,-0.7259,-0.2875,-2.1230,2.3828,-0.0099,0.6946,-0.2237,0.0437,
7.074378,-0.0254,-0.6910,-0.2738,-2.1230,2.3828,-0.0099,0.6946,-0.2237,0.0437,
7.075718,-0.0110,-0.6910,-0.3390,-2.1230,2.3828,-0.0099,0.6946,-0.2237,0.0437,
7.076731,-0.0290,-0.7748,-0.3053,-2.1230,2.3828,-0.0099,0.6946,-0.2237,0.0437,
7.108513,-0.0290,-0.7748,-0.3053,-2.1230,2.3828,-0.0099,0.7862,-0.3067,-0.1576,
7.110505,-0.0290,-0.7748,-0.3053,-2.1114,2.4178,-0.2735,0.7862,-0.3067,-0.1576,
7.148892,-0.0290,-0.7748,-0.3053,-2.1114,2.4178,-0.2735,0.8011,-0.0276,-0.0884,
7.151357,-0.0290,-0.7748,-0.3053,-2.0293,0.0087,-0.0776,0.8011,-0.0276,-0.0884,
7.152904,-0.0860,-0.9436,-0.2851,-2.0293,0.0087,-0.0776,0.8011,-0.0276,-0.0884,
7.153903,0.0323,-1.1496,-0.1602,-2.0293,0.0087,-0.0776,0.8011,-0.0276,-0.0884,
7.154915,0.1948,-1.3189,-0.1482,-2.0293,0.0087,-0.0776,0.8011,-0.0276,-0.0884,
7.156628,0.1005,-1.4220,-0.5323,-2.0293,0.0087,-0.0776,0.8011,-0.0276,-0.0884,
7.187739,0.1005,-1.4220,-0.5323,-2.0293,0.0087,-0.0776,0.6690,-0.0287,0.0704,
7.190319,0.1005,-1.4220,-0.5323,-1.9671,0.0720,-0.3196,0.6690,-0.0287,0.0704,
7.227862,0.1005,-1.4220,-0.5323,-1.9671,0.0720,-0.3196,0.2930,-0.3398,0.3175,
7.230284,0.1005,-1.4220,-0.5323,-0.6887,-3.8891,-2.2144,0.2930,-0.3398,0.3175,
7.231667,-0.0351,-1.3736,-0.6347,-0.6887,-3.8891,-2.2144,0.2930,-0.3398,0.3175,
7.232973,0.1193,-1.1867,-0.3845,-0.6887,-3.8891,-2.2144,0.2930,-0.3398,0.3175,
7.234090,0.2070,-1.0123,-0.2689,-0.6887,-3.8891,-2.2144,0.2930,-0.3398,0.3175,
7.234896,0.2434,-0.8896,-0.0879,-0.6887,-3.8891,-2.2144,0.2930,-0.3398,0.3175,
7.267285,0.2434,-0.8896,-0.0879,-0.6887,-3.8891,-2.2144,0.4464,-0.8287,0.1428,
7.270081,0.2434,-0.8896,-0.0879,0.4355,-0.4857,-0.4532,0.4464,-0.8287,0.1428,
7.306836,0.2434,-0.8896,-0.0879,0.4355,-0.4857,-0.4532,0.6221,-0.8639,-0.3110,
7.309132,0.2434,-0.8896,-0.0879,1.8118,1.6968,0.5207,0.6221,-0.8639,-0.3110,
7.310727,0.3235,-0.7894,-0.0065,1.8118,1.6968,0.5207,0.6221,-0.8639,-0.3110,
7.311800,0.3555,-0.7924,-0.1326,1.8118,1.6968,0.5207,0.6221,-0.8639,-0.3110,
7.313051,0.3379,-0.8386,-0.2438,1.8118,1.6968,0.5207,0.6221,-0.8639,-0.3110,
7.314119,0.3496,-0.8244,-0.3557,1.8118,1.6968,0.5207,0.6221,-0.8639,-0.3110,
7.346856,0.3496,-0.8244,-0.3557,1.8118,1.6968,0.5207,0.1555,-0.5507,-0.2599,
7.349324,0.3496,-0.8244,-0.3557,1.7219,1.6635,0.4868,0.1555,-0.5507,-0.2599,
7.385147,0.4122,-0.8430,-0.6031,1.7219,1.6635,0.4868,0.1555,-0.5507,-0.2599,
7.388126,0.3233,-0.9175,-0.4346,1.7219,1.6635,0.4868,0.1555,-0.5507,-0.2599,
7.389257,0.1637,-1.0284,-0.0307,1.7219,1.6635,0.4868,0.1555,-0.5507,-0.2599,
7.390523,0.1637,-1.0284,-0.0307,1.7219,1.6635,0.4868,-0.4666,-1.2932,-0.1129,
7.391699,0.1637,-1.0284,-0.0307,1.9636,1.0666,-2.5137,-0.4666,-1.2932,-0.1129,
7.426089,0.1637,-1.0284,-0.0307,1.9636,1.0666,-2.5137,-0.2631,-0.9278,-0.0159,
7.428498,0.1637,-1.0284,-0.0307,-0.3221,-0.7600,1.1982,-0.2631,-0.9278,-0.0159,
7.466062,0.1637,-1.0284,-0.0307,-0.3221,-0.7600,1.1982,-0.0522,0.5572,0.0448,
7.468429,0.1637,-1.0284,-0.0307,-0.3474,-0.7491,1.1646,-0.0522,0.5572,0.0448,
7.470097,0.0951,-1.0433,-0.0578,-0.3474,-0.7491,1.1646,-0.0522,0.5572,0.0448,
7.471225,0.1029,-1.0692,-0.2101,-0.3474,-0.7491,1.1646,-0.0522,0.5572,0.0448,
7.472422,0.1373,-1.0650,-0.1375,-0.3474,-0.7491,1.1646,-0.0522,0.5572,0.0448,
7.473415,0.2649,-1.0538,-0.1795,-0.3474,-0.7491,1.1646,-0.0522,0.5572,0.0448,
7.474537,0.4061,-1.0807,-0.2162,-0.3474,-0.7491,1.1646,-0.0522,0.5572,0.0448,
7.504763,0.4061,-1.0807,-0.2162,-0.3474,-0.7491,1.1646,0.1140,0.6648,0.1396,
7.507161,0.4061,-1.0807,-0.2162,1.0902,-0.9073,0.3098,0.1140,0.6648,0.1396,
7.545193,0.4061,-1.0807,-0.2162,1.0902,-0.9073,0.3098,0.6062,0.3473,0.0863,
7.547837,0.4061,-1.0807,-0.2162,1.8656,-0.8227,1.1546,0.6062,0.3473,0.0863,
7.549328,0.3829,-1.0812,-0.1018,1.8656,-0.8227,1.1546,0.6062,0.3473,0.0863,
7.550363,0.3445,-1.0575,-0.0241,1.8656,-0.8227,1.1546,0.6062,0.3473,0.0863,
7.551435,0.3262,-1.0550,-0.0657,1.8656,-0.8227,1.1546,0.6062,0.3473,0.0863,
7.553099,0.3291,-1.0000,-0.1534,1.8656,-0.8227,1.1546,0.6062,0.3473,0.0863,
7.584066,0.3291,-1.0000,-0.1534,1.8656,-0.8227,1.1546,1.2059,0.2514,0.1662,
7.586112,0.3291,-1.0000,-0.1534,1.8817,-0.7265,0.6663,1.2059,0.2514,0.1662,
7.609223,0.3457,-0.8969,-0.2865,1.8817,-0.7265,0.6663,1.2059,0.2514,0.1662,
7.611772,0.2722,-0.8278,-0.3149,1.8817,-0.7265,0.6663,1.2059,0.2514,0.1662,
7.613245,0.1984,-0.8026,-0.1959,1.8817,-0.7265,0.6663,1.2059,0.2514,0.1662,
7.623759,0.1984,-0.8026,-0.1959,1.8817,-0.7265,0.6663,1.1260,-0.3973,0.2621,
7.625154,0.1984,-0.8026,-0.1959,1.6235,0.8544,-1.5578,1.1260,-0.3973,0.2621,
7.663655,0.1984,-0.8026,-0.1959,1.6235,0.8544,-1.5578,0.9119,-0.3227,0.2738,
7.665733,0.1984,-0.8026,-0.1959,0.4105,1.5227,-1.5304,0.9119,-0.3227,0.2738,
7.697503,0.1872,-0.8239,-0.1768,0.4105,1.5227,-1.5304,0.9119,-0.3227,0.2738,
7.699972,0.1569,-0.8987,-0.2789,0.4105,1.5227,-1.5304,0.9119,-0.3227,0.2738,
7.701057,0.1559,-0.9219,-0.3283,0.4105,1.5227,-1.5304,0.9119,-0.3227,0.2738,
7.702522,0.1373,-0.9429,-0.2802,0.4105,1.5227,-1.5304,0.9119,-0.3227,0.2738,
7.703474,0.1373,-0.9429,-0.2802,0.4105,1.5227,-1.5304,0.3526,-0.2791,0.3644,
7.704529,0.1373,-0.9429,-0.2802,0.5483,1.5230,-1.6253,0.3526,-0.2791,0.3644,
7.742853,0.1373,-0.9429,-0.2802,0.5483,1.5230,-1.6253,-0.2247,-0.5049,0.4081,
7.745094,0.1373,-0.9429,-0.2802,0.2109,0.3988,-2.1197,-0.2247,-0.5049,0.4081,
7.782946,0.1373,-0.9429,-0.2802,0.2109,0.3988,-2.1197,-0.2311,-0.4751,0.1929,
7.785013,0.1373,-0.9429,-0.2802,0.2940,0.3935,-1.9775,-0.2311,-0.4751,0.1929,
7.786705,0.0953,-1.0066,-0.2391,0.2940,0.3935,-1.9775,-0.2311,-0.4751,0.1929,
7.787724,0.1415,-1.0372,-0.0630,0.2940,0.3935,-1.9775,-0.2311,-0.4751,0.1929,
7.788936,0.3179,-1.0044,0.1479,0.2940,0.3935,-1.9775,-0.2311,-0.4751,0.1929,
7.790047,0.4117,-0.9947,0.1647,0.2940,0.3935,-1.9775,-0.2311,-0.4751,0.1929,
7.791275,0.2463,-1.0010,0.0123,0.2940,0.3935,-1.9775,-0.2311,-0.4751,0.1929,
7.820872,0.2463,-1.0010,0.0123,0.2940,0.3935,-1.9775,-0.1779,-0.2119,-0.1992,
7.823855,0.2463,-1.0010,0.0123,1.7700,-0.1564,1.6557,-0.1779,-0.2119,-0.1992,
7.861488,0.2463,-1.0010,0.0123,1.7700,-0.1564,1.6557,-0.4857,0.0501,-0.0884,
7.863068,0.2463,-1.0010,0.0123,-0.6776,-0.1164,0.9771,-0.4857,0.0501,-0.0884,
7.864103,0.0084,-0.9917,-0.0290,-0.6776,-0.1164,0.9771,-0.4857,0.0501,-0.0884,
7.864804,-0.1253,-1.0252,0.0069,-0.6776,-0.1164,0.9771,-0.4857,0.0501,-0.0884,
7.865615,-0.1231,-1.0821,0.0421,-0.6776,-0.1164,0.9771,-0.4857,0.0501,-0.0884,
7.866280,0.0274,-1.0487,0.0609,-0.6776,-0.1164,0.9771,-0.4857,0.0501,-0.0884,
7.900169,0.0274,-1.0487,0.0609,-0.6776,-0.1164,0.9771,-0.5337,0.1673,0.0363,
7.901769,0.0274,-1.0487,0.0609,-0.6599,-0.1360,1.1561,-0.5337,0.1673,0.0363,
7.941150,0.0274,-1.0487,0.0609,-0.6599,-0.1360,1.1561,-0.5337,0.5039,-0.1619,
7.943449,0.0274,-1.0487,0.0609,-0.9497,-0.3817,1.7805,-0.5337,0.5039,-0.1619,
7.944691,0.1584,-0.9539,0.0316,-0.9497,-0.3817,1.7805,-0.5337,0.5039,-0.1619,
7.945971,0.1285,-0.9158,-0.0381,-0.9497,-0.3817,1.7805,-0.5337,0.5039,-0.1619,
7.947230,0.0279,-0.9228,-0.1419,-0.9497,-0.3817,1.7805,-0.5337,0.5039,-0.1619,
7.948326,-0.0215,-0.9363,-0.2108,-0.9497,-0.3817,1.7805,-0.5337,0.5039,-0.1619,
7.980856,-0.0215,-0.9363,-0.2108,-0.9497,-0.3817,1.7805,-0.9257,0.6200,-0.0958,
7.983516,-0.0215,-0.9363,-0.2108,-0.7738,0.5611,0.3832,-0.9257,0.6200,-0.0958,
8.009484,0.0035,-0.9326,-0.2127,-0.7738,0.5611,0.3832,-0.9257,0.6200,-0.0958,
8.011895,0.0743,-0.8762,-0.1651,-0.7738,0.5611,0.3832,-0.9257,0.6200,-0.0958,
8.013703,0.1405,-0.8092,-0.1944,-0.7738,0.5611,0.3832,-0.9257,0.6200,-0.0958,
8.020142,0.1405,-0.8092,-0.1944,-0.7738,0.5611,0.3832,-1.3177,0.4294,-0.0159,
8.021559,0.1405,-0.8092,-0.1944,-0.5305,0.9574,0.2647,-1.3177,0.4294,-0.0159,
8.060621,0.1405,-0.8092,-0.1944,-0.5305,0.9574,0.2647,-1.5116,0.5838,-0.1768,
8.063443,0.1405,-0.8092,-0.1944,-0.9639,0.8490,-0.6270,-1.5116,0.5838,-0.1768,
8.099547,0.1386,-0.7860,-0.2479,-0.9639,0.8490,-0.6270,-1.5116,0.5838,-0.1768,
8.102957,0.0252,-0.8505,-0.3603,-0.9639,0.8490,-0.6270,-1.5116,0.5838,-0.1768,
8.104182,-0.0459,-0.9634,-0.4040,-0.9639,0.8490,-0.6270,-1.5116,0.5838,-0.1768,
8.105430,-0.0459,-0.9634,-0.4040,-0.9639,0.8490,-0.6270,-1.4008,0.2877,0.0661,
8.106473,-0.0459,-0.9634,-0.4040,-0.9565,0.6785,-0.1260,-1.4008,0.2877,0.0661,
8.138973,-0.0459,-0.9634,-0.4040,-0.9565,0.6785,-0.1260,-0.7670,-0.2173,0.2259,
8.141429,-0.0459,-0.9634,-0.4040,0.0898,-1.8332,-0.5034,-0.7670,-0.2173,0.2259,
8.179315,0.0623,-1.0281,-0.3591,0.0898,-1.8332,-0.5034,-0.7670,-0.2173,0.2259,
8.181844,0.1984,-1.0963,-0.3615,0.0898,-1.8332,-0.5034,-0.7670,-0.2173,0.2259,
8.183208,0.1439,-1.2265,-0.4981,0.0898,-1.8332,-0.5034,-0.7670,-0.2173,0.2259,
8.184467,0.1664,-1.1527,-0.5506,0.0898,-1.8332,-0.5034,-0.7670,-0.2173,0.2259,
8.185781,0.2294,-0.9492,-0.4214,0.0898,-1.8332,-0.5034,-0.7670,-0.2173,0.2259,
8.187078,0.2612,-0.8398,-0.3706,0.0898,-1.8332,-0.5034,-0.7670,-0.2173,0.2259,
8.188349,0.2612,-0.8398,-0.3706,0.0898,-1.8332,-0.5034,-0.5177,-0.6327,0.1140,
8.189562,0.2612,-0.8398,-0.3706,1.0282,-0.5552,-0.6810,-0.5177,-0.6327,0.1140,
8.218013,0.2612,-0.8398,-0.3706,1.0282,-0.5552,-0.6810,-0.3547,-0.2269,-0.0447,
8.220483,0.2612,-0.8398,-0.3706,1.0286,-0.6000,-0.5351,-0.3547,-0.2269,-0.0447,
8.258158,0.2612,-0.8398,-0.3706,1.0286,-0.6000,-0.5351,0.1460,0.4485,-0.3930,
8.259973,0.2612,-0.8398,-0.3706,0.4723,-0.4552,0.6395,0.1460,0.4485,-0.3930,
8.261525,0.2424,-0.8645,-0.3806,0.4723,-0.4552,0.6395,0.1460,0.4485,-0.3930,
8.262970,0.1860,-0.9903,-0.3532,0.4723,-0.4552,0.6395,0.1460,0.4485,-0.3930,
8.263998,0.1246,-1.0460,-0.2232,0.4723,-0.4552,0.6395,0.1460,0.4485,-0.3930,
8.265226,-0.0178,-0.9228,-0.1260,0.4723,-0.4552,0.6395,0.1460,0.4485,-0.3930,
8.297738,-0.0178,-0.9228,-0.1260,0.4723,-0.4552,0.6395,0.6647,0.5273,-0.5784,
8.300267,-0.0178,-0.9228,-0.1260,0.1855,-0.3869,0.3640,0.6647,0.5273,-0.5784,
8.338127,-0.0178,-0.9228,-0.1260,0.1855,-0.3869,0.3640,1.1462,-0.0937,-0.4772,
8.340880,-0.0178,-0.9228,-0.1260,-2.4704,1.1651,1.9938,1.1462,-0.0937,-0.4772,
8.342437,-0.1458,-0.7780,-0.0793,-2.4704,1.1651,1.9938,1.1462,-0.0937,-0.4772,
8.343563,-0.0598,-0.7545,-0.1172,-2.4704,1.1651,1.9938,1.1462,-0.0937,-0.4772,
8.344817,0.0772,-0.7596,-0.2010,-2.4704,1.1651,1.9938,1.1462,-0.0937,-0.4772,
8.346024,0.1620,-0.7328,-0.2174,-2.4704,1.1651,1.9938,1.1462,-0.0937,-0.4772,
8.376650,0.1620,-0.7328,-0.2174,-2.4704,1.1651,1.9938,1.1633,0.3217,-0.4804,
8.378982,0.1620,-0.7328,-0.2174,-2.6368,1.2393,1.5187,1.1633,0.3217,-0.4804,
8.401464,0.2123,-0.7235,-0.1695,-2.6368,1.2393,1.5187,1.1633,0.3217,-0.4804,
8.404849,0.1212,-0.8078,-0.1094,-2.6368,1.2393,1.5187,1.1633,0.3217,-0.4804,
8.406649,-0.0872,-1.0057,-0.1915,-2.6368,1.2393,1.5187,1.1633,0.3217,-0.4804,
8.416267,-0.0872,-1.0057,-0.1915,-2.6368,1.2393,1.5187,1.2901,0.7873,-0.6370,
8.419017,-0.0872,-1.0057,-0.1915,-0.7255,2.0525,0.1102,1.2901,0.7873,-0.6370,
8.455392,-0.0872,-1.0057,-0.1915,-0.7255,2.0525,0.1102,1.5351,-0.0660,-0.2396,
8.457164,-0.0872,-1.0057,-0.1915,-2.5248,-0.3264,-0.2196,1.5351,-0.0660,-0.2396,
8.485775,-0.1202,-1.1584,-0.2171,-2.5248,-0.3264,-0.2196,1.5351,-0.0660,-0.2396,
8.489465,0.0284,-1.1686,-0.3263,-2.5248,-0.3264,-0.2196,1.5351,-0.0660,-0.2396,
8.490537,0.1711,-1.2221,-0.5027,-2.5248,-0.3264,-0.2196,1.5351,-0.0660,-0.2396,
8.491848,0.2961,-1.3509,-0.4263,-2.5248,-0.3264,-0.2196,1.5351,-0.0660,-0.2396,
8.497127,0.2961,-1.3509,-0.4263,-2.5248,-0.3264,-0.2196,1.1825,-1.1909,0.1534,
8.502277,0.2961,-1.3509,-0.4263,-0.4994,-2.7212,-2.9165,1.1825,-1.1909,0.1534,
8.535599,0.2961,-1.3509,-0.4263,-0.4994,-2.7212,-2.9165,0.4357,-0.4793,-0.0649,
8.537022,0.2961,-1.3509,-0.4263,-2.8195,-2.5405,-3.4004,0.4357,-0.4793,-0.0649,
8.573406,0.1598,-1.3479,-0.5303,-2.8195,-2.5405,-3.4004,0.4357,-0.4793,-0.0649,
8.576496,-0.1526,-1.2409,-0.5631,-2.8195,-2.5405,-3.4004,0.4357,-0.4793,-0.0649,
8.577701,-0.2355,-1.1149,-0.2897,-2.8195,-2.5405,-3.4004,0.4357,-0.4793,-0.0649,
8.578934,-0.1668,-1.0127,-0.1211,-2.8195,-2.5405,-3.4004,0.4357,-0.4793,-0.0649,
8.580125,-0.1668,-1.0127,-0.1211,-2.8195,-2.5405,-3.4004,-0.3228,0.2269,0.0246,
8.581305,-0.1668,-1.0127,-0.1211,-2.7738,-2.5109,-3.2419,-0.3228,0.2269,0.0246,
8.615059,-0.1668,-1.0127,-0.1211,-2.7738,-2.5109,-3.2419,-0.4548,0.1470,0.4986,
8.618147,-0.1668,-1.0127,-0.1211,-1.9337,-0.3656,-0.3374,-0.4548,0.1470,0.4986,
8.655945,-0.1668,-1.0127,-0.1211,-1.9337,-0.3656,-0.3374,-0.6093,-0.0788,0.5625,
8.658527,-0.1668,-1.0127,-0.1211,-1.6858,-0.3591,-0.0984,-0.6093,-0.0788,0.5625,
8.659547,-0.0320,-0.9944,-0.1485,-1.6858,-0.3591,-0.0984,-0.6093,-0.0788,0.5625,
8.660540,0.1620,-1.0460,-0.2755,-1.6858,-0.3591,-0.0984,-0.6093,-0.0788,0.5625,
8.661532,0.4268,-1.0125,-0.4920,-1.6858,-0.3591,-0.0984,-0.6093,-0.0788,0.5625,
8.663006,0.6599,-0.8593,-0.2230,-1.6858,-0.3591,-0.0984,-0.6093,-0.0788,0.5625,
8.664298,0.5380,-0.8107,0.1701,-1.6858,-0.3591,-0.0984,-0.6093,-0.0788,0.5625,
8.693864,0.5380,-0.8107,0.1701,-1.6858,-0.3591,-0.0984,-0.2258,0.1098,-0.0788,
8.696208,0.5380,-0.8107,0.1701,3.6426,0.8173,-0.0182,-0.2258,0.1098,-0.0788,
8.733201,0.5380,-0.8107,0.1701,3.6426,0.8173,-0.0182,0.3984,0.4773,-0.0628,
8.735441,0.5380,-0.8107,0.1701,1.1140,-0.0080,0.4365,0.3984,0.4773,-0.0628,
8.737401,0.3235,-0.9070,0.1716,1.1140,-0.0080,0.4365,0.3984,0.4773,-0.0628,
8.738216,0.2500,-1.0203,-0.1255,1.1140,-0.0080,0.4365,0.3984,0.4773,-0.0628,
8.739230,0.3001,-1.0147,-0.3933,1.1140,-0.0080,0.4365,0.3984,0.4773,-0.0628,
8.740461,0.2820,-0.9605,-0.3862,1.1140,-0.0080,0.4365,0.3984,0.4773,-0.0628,
8.773244,0.2820,-0.9605,-0.3862,1.1140,-0.0080,0.4365,0.0448,0.6136,0.1790,
8.775782,0.2820,-0.9605,-0.3862,1.1259,0.0069,0.3710,0.0448,0.6136,0.1790,
8.812966,0.2820,-0.9605,-0.3862,1.1259,0.0069,0.3710,0.2024,0.7734,0.2536,
8.815494,0.2820,-0.9605,-0.3862,1.1235,0.4831,0.2218,0.2024,0.7734,0.2536,
8.816929,0.2502,-0.9260,-0.0552,1.1235,0.4831,0.2218,0.2024,0.7734,0.2536,
8.818054,0.3303,-0.9160,0.0892,1.1235,0.4831,0.2218,0.2024,0.7734,0.2536,
8.819246,0.4847,-0.9612,-0.0063,1.1235,0.4831,0.2218,0.2024,0.7734,0.2536,
8.820055,0.5663,-0.9876,-0.2020,1.1235,0.4831,0.2218,0.2024,0.7734,0.2536,
8.852781,0.5663,-0.9876,-0.2020,1.1235,0.4831,0.2218,0.5998,0.4826,0.2025,
8.854996,0.5663,-0.9876,-0.2020,1.1572,0.5172,-0.0392,0.5998,0.4826,0.2025,
8.892344,0.5663,-0.9876,-0.2020,1.1572,0.5172,-0.0392,0.7702,-0.0543,0.2429,
8.894345,0.5663,-0.9876,-0.2020,3.4395,0.1831,-0.5616,0.7702,-0.0543,0.2429,
8.896080,0.4989,-0.9688,-0.2171,3.4395,0.1831,-0.5616,0.7702,-0.0543,0.2429,
8.897035,0.3975,-0.9832,-0.1216,3.4395,0.1831,-0.5616,0.7702,-0.0543,0.2429,
8.898011,0.3817,-0.9639,-0.1402,3.4395,0.1831,-0.5616,0.7702,-0.0543,0.2429,
8.898988,0.3853,-0.8671,-0.1067,3.4395,0.1831,-0.5616,0.7702,-0.0543,0.2429,
8.932054,0.3853,-0.8671,-0.1067,3.4395,0.1831,-0.5616,0.8778,-0.2918,0.2472,
8.934605,0.3853,-0.8671,-0.1067,2.2449,0.5499,-0.6844,0.8778,-0.2918,0.2472,
8.972429,0.3853,-0.8671,-0.1067,0.1145,1.1937,-1.4345,0.8778,-0.2918,0.2472,
8.975039,0.3853,-0.8671,-0.1067,0.1145,1.1937,-1.4345,0.8107,-0.3600,0.3516,
8.976420,0.2754,-0.8288,-0.0769,0.1145,1.1937,-1.4345,0.8107,-0.3600,0.3516,
8.977444,0.1393,-0.8647,-0.1416,0.1145,1.1937,-1.4345,0.8107,-0.3600,0.3516,
8.978551,0.0550,-0.9275,-0.2975,0.1145,1.1937,-1.4345,0.8107,-0.3600,0.3516,
8.979723,0.0484,-0.9524,-0.3632,0.1145,1.1937,-1.4345,0.8107,-0.3600,0.3516,
9.010494,0.0484,-0.9524,-0.3632,0.1145,1.1937,-1.4345,0.3452,-0.4559,0.6925,
9.012801,0.0484,-0.9524,-0.3632,0.3797,1.2111,-1.5191,0.3452,-0.4559,0.6925,
9.050829,0.0484,-0.9524,-0.3632,0.3797,1.2111,-1.5191,0.2376,-0.1193,0.6413,
9.053878,0.0484,-0.9524,-0.3632,0.8989,0.6990,-1.2709,0.2376,-0.1193,0.6413,
9.055252,0.1884,-0.9158,-0.1311,0.8989,0.6990,-1.2709,0.2376,-0.1193,0.6413,
9.057253,0.3201,-0.9143,0.0743,0.8989,0.6990,-1.2709,0.2376,-0.1193,0.6413,
9.058503,0.3132,-0.9512,0.1110,0.8989,0.6990,-1.2709,0.2376,-0.1193,0.6413,
9.059961,0.2610,-0.9768,0.0101,0.8989,0.6990,-1.2709,0.2376,-0.1193,0.6413,
9.090060,0.2610,-0.9768,0.0101,0.8989,0.6990,-1.2709,0.4197,0.0256,0.4081,
9.091816,0.2610,-0.9768,0.0101,1.0396,0.7011,-1.4107,0.4197,0.0256,0.4081,
9.130139,0.2610,-0.9768,0.0101,1.0396,0.7011,-1.4107,0.2131,-0.2737,0.2994,
9.132398,0.2610,-0.9768,0.0101,1.9471,0.4209,0.1627,0.2131,-0.2737,0.2994,
9.133925,0.2353,-0.9404,-0.0356,1.9471,0.4209,0.1627,0.2131,-0.2737,0.2994,
9.134748,0.2478,-0.9348,0.0829,1.9471,0.4209,0.1627,0.2131,-0.2737,0.2994,
9.135951,0.2392,-0.9487,0.1887,1.9471,0.4209,0.1627,0.2131,-0.2737,0.2994,
9.137085,0.1994,-0.9597,0.1176,1.9471,0.4209,0.1627,0.2131,-0.2737,0.2994,
9.169701,0.1994,-0.9597,0.1176,1.9471,0.4209,0.1627,0.1183,-0.1012,0.0938,
9.172914,0.1994,-0.9597,0.1176,1.5544,0.4966,1.0930,0.1183,-0.1012,0.0938,
9.210306,0.1994,-0.9597,0.1176,1.5544,0.4966,1.0930,-0.1896,0.0544,-0.2002,
9.212637,0.1994,-0.9597,0.1176,0.9141,-0.3144,0.1379,-0.1896,0.0544,-0.2002,
9.213775,0.1742,-1.0157,0.0413,0.9141,-0.3144,0.1379,-0.1896,0.0544,-0.2002,
9.214606,0.1757,-1.0609,0.0308,0.9141,-0.3144,0.1379,-0.1896,0.0544,-0.2002,
9.216064,0.1689,-1.0152,0.0032,0.9141,-0.3144,0.1379,-0.1896,0.0544,-0.2002,
9.217170,0.0943,-0.9397,-0.0762,0.9141,-0.3144,0.1379,-0.1896,0.0544,-0.2002,
9.248015,0.0943,-0.9397,-0.0762,0.9141,-0.3144,0.1379,-0.5347,0.1641,-0.5123,
9.250195,0.0943,-0.9397,-0.0762,0.7036,-0.3266,0.3337,-0.5347,0.1641,-0.5123,
9.288030,0.0943,-0.9397,-0.0762,0.7036,-0.3266,0.3337,-1.4093,0.2014,-0.4111,
9.290340,0.0943,-0.9397,-0.0762,-1.2894,0.6082,-1.6038,-1.4093,0.2014,-0.4111,
9.292467,-0.0283,-0.9253,-0.2430,-1.2894,0.6082,-1.6038,-1.4093,0.2014,-0.4111,
9.294010,-0.1145,-0.9260,-0.3710,-1.2894,0.6082,-1.6038,-1.4093,0.2014,-0.4111,
9.295025,-0.0605,-0.9856,-0.3232,-1.2894,0.6082,-1.6038,-1.4093,0.2014,-0.4111,
9.295956,0.1254,-1.1212,-0.1790,-1.2894,0.6082,-1.6038,-1.4093,0.2014,-0.4111,
9.327066,0.1254,-1.1212,-0.1790,-1.2894,0.6082,-1.6038,-2.0176,-0.0319,-0.2769,
9.329359,0.1254,-1.1212,-0.1790,-1.3705,0.5037,-0.8146,-2.0176,-0.0319,-0.2769,
9.367805,0.1254,-1.1212,-0.1790,-1.3705,0.5037,-0.8146,-1.8706,-0.1342,-0.4772,
9.369974,0.1254,-1.1212,-0.1790,-0.4278,-1.3394,0.1680,-1.8706,-0.1342,-0.4772,
9.371362,0.2253,-1.2070,-0.1052,-0.4278,-1.3394,0.1680,-1.8706,-0.1342,-0.4772,
9.372822,0.1354,-1.2172,-0.2528,-0.4278,-1.3394,0.1680,-1.8706,-0.1342,-0.4772,
9.374003,-0.0004,-1.2228,-0.4563,-0.4278,-1.3394,0.1680,-1.8706,-0.1342,-0.4772,
9.375145,0.0215,-1.1542,-0.4526,-0.4278,-1.3394,0.1680,-1.8706,-0.1342,-0.4772,
9.407021,0.0215,-1.1542,-0.4526,-0.4278,-1.3394,0.1680,-1.8759,-0.1065,-0.3728,
9.409556,0.0215,-1.1542,-0.4526,-0.9760,-2.4220,-0.9236,-1.8759,-0.1065,-0.3728,
9.446259,0.0215,-1.1542,-0.4526,-0.9760,-2.4220,-0.9236,-1.3241,0.0064,-0.3174,
9.448543,0.0215,-1.1542,-0.4526,0.1007,-1.0995,2.1559,-1.3241,0.0064,-0.3174,
9.450007,0.1222,-1.0438,-0.2469,0.1007,-1.0995,2.1559,-1.3241,0.0064,-0.3174,
9.451264,0.2031,-1.0054,-0.0527,0.1007,-1.0995,2.1559,-1.3241,0.0064,-0.3174,
9.452525,0.1972,-1.0899,-0.0564,0.1007,-1.0995,2.1559,-1.3241,0.0064,-0.3174,
9.453624,0.1459,-1.1498,-0.1482,0.1007,-1.0995,2.1559,-1.3241,0.0064,-0.3174,
9.486692,0.1459,-1.1498,-0.1482,0.1007,-1.0995,2.1559,-0.5411,-0.1342,-0.3675,
9.488583,0.1459,-1.1498,-0.1482,-0.0131,-1.1771,2.3208,-0.5411,-0.1342,-0.3675,
9.527325,0.1459,-1.1498,-0.1482,-0.0131,-1.1771,2.3208,-0.3291,-0.2173,-0.3025,
9.529499,0.1459,-1.1498,-0.1482,-0.9690,-1.4458,1.2101,-0.3291,-0.2173,-0.3025,
9.530872,0.0807,-1.0746,-0.2660,-0.9690,-1.4458,1.2101,-0.3291,-0.2173,-0.3025,
9.531884,0.0220,-0.9839,-0.3163,-0.9690,-1.4458,1.2101,-0.3291,-0.2173,-0.3025,
9.532769,-0.0547,-0.9140,-0.3371,-0.9690,-1.4458,1.2101,-0.3291,-0.2173,-0.3025,
9.533915,-0.0647,-0.8676,-0.3586,-0.9690,-1.4458,1.2101,-0.3291,-0.2173,-0.3025,
9.566037,-0.0647,-0.8676,-0.3586,-0.9690,-1.4458,1.2101,-0.3110,-0.0319,-0.0671,
9.567895,-0.0647,-0.8676,-0.3586,-0.9720,-1.4707,1.3012,-0.3110,-0.0319,-0.0671,
9.606208,-0.0647,-0.8676,-0.3586,-0.9720,-1.4707,1.3012,-0.2311,0.1652,0.0586,
9.608267,-0.0647,-0.8676,-0.3586,-2.1859,0.4753,0.4874,-0.2311,0.1652,0.0586,
9.609682,-0.0139,-0.8193,-0.3031,-2.1859,0.4753,0.4874,-0.2311,0.1652,0.0586,
9.610942,0.0162,-0.7359,-0.2662,-2.1859,0.4753,0.4874,-0.2311,0.1652,0.0586,
9.612173,0.0484,-0.6287,-0.2587,-2.1859,0.4753,0.4874,-0.2311,0.1652,0.0586,
9.613274,0.1176,-0.5586,-0.2445,-2.1859,0.4753,0.4874,-0.2311,0.1652,0.0586,
9.645194,0.1176,-0.5586,-0.2445,-2.1859,0.4753,0.4874,-0.0458,0.0309,-0.0436,
9.647454,0.1176,-0.5586,-0.2445,-1.1561,2.6346,1.2301,-0.0458,0.0309,-0.0436,
9.685045,0.1176,-0.5586,-0.2445,-1.1561,2.6346,1.2301,0.3249,0.2078,-0.2663,
9.686872,0.1176,-0.5586,-0.2445,0.0042,3.0367,-0.0867,0.3249,0.2078,-0.2663,
9.688226,0.1359,-0.5459,-0.2824,0.0042,3.0367,-0.0867,0.3249,0.2078,-0.2663,
9.689482,0.1740,-0.5872,-0.3376,0.0042,3.0367,-0.0867,0.3249,0.2078,-0.2663,
9.690461,0.2656,-0.6600,-0.5132,0.0042,3.0367,-0.0867,0.3249,0.2078,-0.2663,
9.691714,0.3641,-0.7995,-0.7185,0.0042,3.0367,-0.0867,0.3249,0.2078,-0.2663,
9.724246,0.3641,-0.7995,-0.7185,0.0042,3.0367,-0.0867,0.3313,0.7276,-0.4932,
9.725878,0.3641,-0.7995,-0.7185,-0.2669,2.9931,-0.2575,0.3313,0.7276,-0.4932,
9.763886,0.3641,-0.7995,-0.7185,-0.2669,2.9931,-0.2575,0.7372,0.7553,-0.3217,
9.766378,0.3641,-0.7995,-0.7185,-0.1222,-0.8919,-1.3542,0.7372,0.7553,-0.3217,
9.767853,0.3377,-0.9883,-0.4729,-0.1222,-0.8919,-1.3542,0.7372,0.7553,-0.3217,
9.769095,-0.0178,-1.2197,-0.1844,-0.1222,-0.8919,-1.3542,0.7372,0.7553,-0.3217,
9.770262,-0.2259,-1.4510,-0.5057,-0.1222,-0.8919,-1.3542,0.7372,0.7553,-0.3217,
9.771504,-0.1387,-1.5189,-0.9303,-0.1222,-0.8919,-1.3542,0.7372,0.7553,-0.3217,
9.803153,-0.1387,-1.5189,-0.9303,-0.1222,-0.8919,-1.3542,0.4283,0.0277,0.0842,
9.805280,-0.1387,-1.5189,-0.9303,-0.0944,-0.8183,-1.4837,0.4283,0.0277,0.0842,
9.844027,0.0792,-1.3071,-0.5196,-0.0944,-0.8183,-1.4837,0.4283,0.0277,0.0842,
9.846488,0.1769,-0.9292,0.0631,-0.0944,-0.8183,-1.4837,0.4283,0.0277,0.0842,
9.847765,0.0719,-0.7059,-0.1116,-0.0944,-0.8183,-1.4837,0.4283,0.0277,0.0842,
9.849191,0.0719,-0.7059,-0.1116,-0.0944,-0.8183,-1.4837,0.3707,0.7106,0.2397,
9.850322,0.0719,-0.7059,-0.1116,-3.2026,-4.8192,-3.5162,0.3707,0.7106,0.2397,
9.882751,0.0719,-0.7059,-0.1116,-3.2026,-4.8192,-3.5162,0.7074,0.3143,0.3644,
9.884210,0.0719,-0.7059,-0.1116,-1.4554,1.6781,1.4290,0.7074,0.3143,0.3644,
9.921651,0.0719,-0.7059,-0.1116,-1.4554,1.6781,1.4290,0.3846,0.3217,0.4027,
9.923152,0.0719,-0.7059,-0.1116,-1.3165,1.7201,1.2400,0.3846,0.3217,0.4027,
9.924065,-0.0371,-0.6776,-0.2982,-1.3165,1.7201,1.2400,0.3846,0.3217,0.4027,
9.924786,0.0479,-0.8031,-0.2379,-1.3165,1.7201,1.2400,0.3846,0.3217,0.4027,
9.925210,0.1671,-1.0086,-0.1942,-1.3165,1.7201,1.2400,0.3846,0.3217,0.4027,
9.925932,0.2795,-1.0562,-0.1697,-1.3165,1.7201,1.2400,0.3846,0.3217,0.4027,
9.926497,0.4156,-0.9546,-0.1358,-1.3165,1.7201,1.2400,0.3846,0.3217,0.4027,
9.960781,0.4156,-0.9546,-0.1358,-1.3165,1.7201,1.2400,0.2653,0.6584,0.1982,
9.962207,0.4156,-0.9546,-0.1358,-0.3728,-0.0531,0.2529,0.2653,0.6584,0.1982,
10.000796,0.4156,-0.9546,-0.1358,-0.3728,-0.0531,0.2529,0.3121,0.4496,-0.0958,
10.001813,0.4156,-0.9546,-0.1358,2.2903,0.0078,0.9129,0.3121,0.4496,-0.0958,
10.004822,0.4899,-0.9307,-0.1407,2.2903,0.0078,0.9129,0.3121,0.4496,-0.0958,
10.006212,0.4388,-0.9697,-0.0723,2.2903,0.0078,0.9129,0.3121,0.4496,-0.0958,
10.007496,0.3389,-0.9497,-0.0723,2.2903,0.0078,0.9129,0.3121,0.4496,-0.0958,
10.008323,0.2177,-0.9649,-0.0960,2.2903,0.0078,0.9129,0.3121,0.4496,-0.0958,
10.040986,0.2177,-0.9649,-0.0960,2.2903,0.0078,0.9129,0.3846,0.4325,0.0725,
10.043151,0.2177,-0.9649,-0.0960,2.2454,0.0430,0.7219,0.3846,0.4325,0.0725,
10.081513,0.1723,-1.0736,-0.2377,2.2454,0.0430,0.7219,0.3846,0.4325,0.0725,
10.083743,0.2998,-1.0863,-0.3215,2.2454,0.0430,0.7219,0.3846,0.4325,0.0725,
10.085046,0.4110,-0.9258,-0.1179,2.2454,0.0430,0.7219,0.3846,0.4325,0.0725,
10.086630,0.4110,-0.9258,-0.1179,2.2454,0.0430,0.7219,0.2610,0.1332,0.4816,
10.087692,0.4110,-0.9258,-0.1179,0.3982,-0.3283,0.4197,0.2610,0.1332,0.4816,
10.120286,0.4110,-0.9258,-0.1179,0.3982,-0.3283,0.4197,0.2717,-0.2439,0.4975,
10.122307,0.4110,-0.9258,-0.1179,1.9519,0.0543,0.0673,0.2717,-0.2439,0.4975,
10.160793,0.4110,-0.9258,-0.1179,1.9519,0.0543,0.0673,0.6339,-0.1715,0.3622,
10.163584,0.4110,-0.9258,-0.1179,2.0642,0.1162,-0.1575,0.6339,-0.1715,0.3622,
10.164712,0.4417,-0.8757,-0.0483,2.0642,0.1162,-0.1575,0.6339,-0.1715,0.3622,
10.166224,0.3777,-0.9920,-0.0398,2.0642,0.1162,-0.1575,0.6339,-0.1715,0.3622,
10.167343,0.2759,-1.0382,-0.0469,2.0642,0.1162,-0.1575,0.6339,-0.1715,0.3622,
10.169750,0.2375,-0.9734,-0.1087,2.0642,0.1162,-0.1575,0.6339,-0.1715,0.3622,
10.170899,0.2089,-0.9302,-0.0520,2.0642,0.1162,-0.1575,0.6339,-0.1715,0.3622,
10.199549,0.2089,-0.9302,-0.0520,2.0642,0.1162,-0.1575,0.5710,0.1470,0.3846,
10.201287,0.2089,-0.9302,-0.0520,1.3263,-0.2038,0.5623,0.5710,0.1470,0.3846,
10.239451,0.2089,-0.9302,-0.0520,1.3263,-0.2038,0.5623,0.4123,0.2376,0.5114,
10.241833,0.2089,-0.9302,-0.0520,0.5598,0.2349,0.6764,0.4123,0.2376,0.5114,
10.243543,0.1882,-0.9546,0.0025,0.5598,0.2349,0.6764,0.4123,0.2376,0.5114,
10.244539,0.2057,-0.9981,-0.0549,0.5598,0.2349,0.6764,0.4123,0.2376,0.5114,
10.245865,0.2563,-0.9915,-0.0943,0.5598,0.2349,0.6764,0.4123,0.2376,0.5114,
10.246848,0.3223,-0.9443,-0.0552,0.5598,0.2349,0.6764,0.4123,0.2376,0.5114,
10.279091,0.3223,-0.9443,-0.0552,0.5598,0.2349,0.6764,0.3537,0.1076,0.5455,
10.281806,0.3223,-0.9443,-0.0552,0.7522,0.2718,0.5262,0.3537,0.1076,0.5455,
10.319534,0.3223,-0.9443,-0.0552,0.7522,0.2718,0.5262,0.3824,0.5156,0.3867,
10.322216,0.3223,-0.9443,-0.0552,1.8214,0.3889,0.1162,0.3824,0.5156,0.3867,
10.323363,0.3203,-0.9182,-0.0278,1.8214,0.3889,0.1162,0.3824,0.5156,0.3867,
10.324499,0.2715,-0.9231,-0.0583,1.8214,0.3889,0.1162,0.3824,0.5156,0.3867,
10.326749,0.2211,-0.9377,-0.0830,1.8214,0.3889,0.1162,0.3824,0.5156,0.3867,
10.328114,0.2163,-0.9158,-0.1087,1.8214,0.3889,0.1162,0.3824,0.5156,0.3867,
10.363038,0.2163,-0.9158,-0.1087,1.8214,0.3889,0.1162,0.1928,0.6094,0.3814,
10.367586,0.2163,-0.9158,-0.1087,1.3099,0.6516,-0.2176,0.1928,0.6094,0.3814,
10.398202,0.2163,-0.9158,-0.1087,1.3099,0.6516,-0.2176,-0.1129,0.0970,0.2866,
10.400297,0.2163,-0.9158,-0.1087,1.8929,0.8841,-0.5767,-0.1129,0.0970,0.2866,
10.401882,0.2439,-0.8991,-0.1065,1.8929,0.8841,-0.5767,-0.1129,0.0970,0.2866,
10.403167,0.2971,-0.9136,-0.1241,1.8929,0.8841,-0.5767,-0.1129,0.0970,0.2866,
10.404007,0.3230,-0.8906,-0.1446,1.8929,0.8841,-0.5767,-0.1129,0.0970,0.2866,
10.405098,0.2925,-0.8776,-0.1309,1.8929,0.8841,-0.5767,-0.1129,0.0970,0.2866,
10.437853,0.2925,-0.8776,-0.1309,1.8929,0.8841,-0.5767,-0.5188,-0.4783,0.0341,
10.440917,0.2925,-0.8776,-0.1309,1.8885,0.8553,-0.3538,-0.5188,-0.4783,0.0341,
10.477787,0.2925,-0.8776,-0.1309,1.8885,0.8553,-0.3538,-0.8852,-0.7169,-0.3089,
10.480523,0.2925,-0.8776,-0.1309,1.7812,0.7882,0.2133,-0.8852,-0.7169,-0.3089,
10.481736,0.2790,-0.8979,-0.1192,1.7812,0.7882,0.2133,-0.8852,-0.7169,-0.3089,
10.483052,0.2959,-0.9292,-0.0625,1.7812,0.7882,0.2133,-0.8852,-0.7169,-0.3089,
10.484507,0.2688,-0.9170,0.0387,1.7812,0.7882,0.2133,-0.8852,-0.7169,-0.3089,
10.485696,0.1356,-0.9387,0.1024,1.7812,0.7882,0.2133,-0.8852,-0.7169,-0.3089,
10.516576,0.1356,-0.9387,0.1024,1.7812,0.7882,0.2133,-0.5976,0.3026,-0.8319,
10.519265,0.1356,-0.9387,0.1024,1.4239,0.7043,0.4180,-0.5976,0.3026,-0.8319,
10.556925,0.1356,-0.9387,0.1024,1.4239,0.7043,0.4180,-0.7606,0.6083,-0.4431,
10.559334,0.1356,-0.9387,0.1024,-0.8754,-0.1529,1.8485,-0.7606,0.6083,-0.4431,
10.560678,-0.1827,-1.0897,-0.0825,-0.8754,-0.1529,1.8485,-0.7606,0.6083,-0.4431,
10.561721,-0.4175,-1.2065,-0.5189,-0.8754,-0.1529,1.8485,-0.7606,0.6083,-0.4431,
10.563103,-0.2062,-1.1278,-0.6544,-0.8754,-0.1529,1.8485,-0.7606,0.6083,-0.4431,
10.564219,0.0765,-0.9544,-0.3691,-0.8754,-0.1529,1.8485,-0.7606,0.6083,-0.4431,
10.596990,0.0765,-0.9544,-0.3691,-0.8754,-0.1529,1.8485,-1.3443,0.2419,-0.1086,
10.604025,0.0765,-0.9544,-0.3691,-3.3876,-1.3592,-2.8473,-1.3443,0.2419,-0.1086,
10.636951,0.0765,-0.9544,-0.3691,-3.3876,-1.3592,-2.8473,-0.9406,0.1055,-0.3632,
10.639282,0.2116,-0.8510,-0.1903,-3.3876,-1.3592,-2.8473,-0.9406,0.1055,-0.3632,
10.640578,0.1706,-0.9155,-0.1324,-3.3876,-1.3592,-2.8473,-0.9406,0.1055,-0.3632,
10.641707,0.0516,-1.0726,-0.1590,-3.3876,-1.3592,-2.8473,-0.9406,0.1055,-0.3632,
10.643107,0.0091,-1.2177,-0.2995,-3.3876,-1.3592,-2.8473,-0.9406,0.1055,-0.3632,
10.644401,0.0091,-1.2177,-0.2995,-0.3219,-0.0028,0.9429,-0.9406,0.1055,-0.3632,
10.675195,0.0091,-1.2177,-0.2995,-0.3219,-0.0028,0.9429,-0.5518,-0.0351,-0.4048,
10.677832,0.0091,-1.2177,-0.2995,-0.4584,-0.0877,1.1283,-0.5518,-0.0351,-0.4048,
10.714954,0.0091,-1.2177,-0.2995,-0.4584,-0.0877,1.1283,-0.7861,-0.2365,-0.3952,
10.717436,0.0091,-1.2177,-0.2995,-1.7986,-3.0553,-1.0531,-0.7861,-0.2365,-0.3952,
10.720478,0.0377,-1.2724,-0.4763,-1.7986,-3.0553,-1.0531,-0.7861,-0.2365,-0.3952,
10.722108,0.0030,-1.2368,-0.4717,-1.7986,-3.0553,-1.0531,-0.7861,-0.2365,-0.3952,
10.723350,-0.0640,-1.1994,-0.3806,-1.7986,-3.0553,-1.0531,-0.7861,-0.2365,-0.3952,
10.724367,0.0127,-1.1772,-0.3901,-1.7986,-3.0553,-1.0531,-0.7861,-0.2365,-0.3952,
10.753801,0.0127,-1.1772,-0.3901,-1.7986,-3.0553,-1.0531,-0.8543,-0.2503,-0.2258,
10.755643,0.0127,-1.1772,-0.3901,-1.8173,-3.1280,-0.7145,-0.8543,-0.2503,-0.2258,
10.793298,0.1693,-1.1315,-0.4436,-1.8173,-3.1280,-0.7145,-0.8543,-0.2503,-0.2258,
10.794746,0.2563,-1.0118,-0.3925,-1.8173,-3.1280,-0.7145,-0.8543,-0.2503,-0.2258,
10.795721,0.1066,-0.9016,-0.2120,-1.8173,-3.1280,-0.7145,-0.8543,-0.2503,-0.2258,
10.796280,0.1066,-0.9016,-0.2120,-1.8173,-3.1280,-0.7145,-0.6562,0.0043,-0.0884,
10.796731,0.1066,-0.9016,-0.2120,-1.5991,-2.4685,-0.3663,-0.6562,0.0043,-0.0884,
10.832416,0.1066,-0.9016,-0.2120,-1.5991,-2.4685,-0.3663,-0.1907,-0.3142,-0.0085,
10.833634,0.1066,-0.9016,-0.2120,-0.8564,-0.1321,1.3677,-0.1907,-0.3142,-0.0085,
10.874475,0.1066,-0.9016,-0.2120,-0.8564,-0.1321,1.3677,0.1939,-0.5656,-0.1161,
10.876062,-0.0349,-0.8715,-0.1001,-0.8564,-0.1321,1.3677,0.1939,-0.5656,-0.1161,
10.877157,-0.0422,-0.8471,-0.0710,-0.8564,-0.1321,1.3677,0.1939,-0.5656,-0.1161,
10.878224,-0.0073,-0.7951,-0.0554,-0.8564,-0.1321,1.3677,0.1939,-0.5656,-0.1161,
10.879208,-0.0022,-0.7315,-0.0796,-0.8564,-0.1321,1.3677,0.1939,-0.5656,-0.1161,
10.880305,-0.0197,-0.6783,-0.1678,-0.8564,-0.1321,1.3677,0.1939,-0.5656,-0.1161,
10.881076,-0.0197,-0.6783,-0.1678,-0.8019,-0.1109,1.3191,0.1939,-0.5656,-0.1161,
10.912161,-0.0197,-0.6783,-0.1678,-0.8019,-0.1109,1.3191,0.5199,-0.1768,-0.3153,
10.914059,-0.0197,-0.6783,-0.1678,-2.0941,1.2599,2.7294,0.5199,-0.1768,-0.3153,
10.952739,-0.0197,-0.6783,-0.1678,-2.0941,1.2599,2.7294,0.5305,0.4048,-0.3984,
10.954999,-0.0197,-0.6783,-0.1678,-2.2683,2.2135,-0.2952,0.5305,0.4048,-0.3984,
10.956993,-0.0200,-0.6890,-0.3784,-2.2683,2.2135,-0.2952,0.5305,0.4048,-0.3984,
10.958269,-0.0173,-0.7144,-0.5191,-2.2683,2.2135,-0.2952,0.5305,0.4048,-0.3984,
10.959620,-0.0388,-0.7692,-0.3034,-2.2683,2.2135,-0.2952,0.5305,0.4048,-0.3984,
10.960851,-0.0825,-0.8229,-0.0469,-2.2683,2.2135,-0.2952,0.5305,0.4048,-0.3984,
10.991018,-0.0825,-0.8229,-0.0469,-2.2683,2.2135,-0.2952,0.7872,0.4720,-0.3632,
10.992767,-0.0825,-0.8229,-0.0469,-2.4143,2.2386,-0.6079,0.7872,0.4720,-0.3632,
11.031012,-0.0740,-0.8745,-0.0273,-2.4143,2.2386,-0.6079,0.7872,0.4720,-0.3632,
11.033197,0.0000,-1.0276,-0.0855,-2.4143,2.2386,-0.6079,0.7872,0.4720,-0.3632,
11.034005,0.1813,-1.3675,-0.3925,-2.4143,2.2386,-0.6079,0.7872,0.4720,-0.3632,
11.034899,0.1813,-1.3675,-0.3925,-2.4143,2.2386,-0.6079,1.1548,-0.2641,-0.0330,
11.035604,0.1813,-1.3675,-0.3925,-2.8031,1.0826,1.2248,1.1548,-0.2641,-0.0330,
11.070625,0.1813,-1.3675,-0.3925,-2.8031,1.0826,1.2248,0.6434,0.1960,0.0480,
11.073331,0.1813,-1.3675,-0.3925,-0.5286,-3.6292,-1.6812,0.6434,0.1960,0.0480,
11.110386,0.1813,-1.3675,-0.3925,-0.5286,-3.6292,-1.6812,0.2141,0.0970,0.0863,
11.112802,0.1813,-1.3675,-0.3925,-0.4968,-3.5432,-1.7387,0.2141,0.0970,0.0863,
11.114467,0.3169,-1.5522,-0.7211,-0.4968,-3.5432,-1.7387,0.2141,0.0970,0.0863,
11.116153,0.2370,-1.3782,-0.6481,-0.4968,-3.5432,-1.7387,0.2141,0.0970,0.0863,
11.117405,0.1378,-1.0746,-0.2733,-0.4968,-3.5432,-1.7387,0.2141,0.0970,0.0863,
11.118506,0.1562,-0.9514,-0.1065,-0.4968,-3.5432,-1.7387,0.2141,0.0970,0.0863,
11.119890,0.1715,-0.9546,-0.1895,-0.4968,-3.5432,-1.7387,0.2141,0.0970,0.0863,
11.150009,0.1715,-0.9546,-0.1895,-0.4968,-3.5432,-1.7387,0.4293,-0.7073,0.2919,
11.152553,0.1715,-0.9546,-0.1895,-0.2183,-1.6809,-1.2604,0.4293,-0.7073,0.2919,
11.189864,0.1715,-0.9546,-0.1895,-0.2183,-1.6809,-1.2604,0.3335,-0.9267,0.2930,
11.192440,0.1715,-0.9546,-0.1895,0.1775,0.0754,0.1667,0.3335,-0.9267,0.2930,
11.193975,0.2038,-0.9595,-0.1627,0.1775,0.0754,0.1667,0.3335,-0.9267,0.2930,
11.195054,0.2209,-0.9671,-0.2206,0.1775,0.0754,0.1667,0.3335,-0.9267,0.2930,
11.196721,0.2417,-0.9397,-0.2394,0.1775,0.0754,0.1667,0.3335,-0.9267,0.2930,
11.198016,0.3323,-0.8276,-0.2296,0.1775,0.0754,0.1667,0.3335,-0.9267,0.2930,
11.229495,0.3323,-0.8276,-0.2296,0.1775,0.0754,0.1667,-0.0287,-0.5230,0.2376,
11.231716,0.3323,-0.8276,-0.2296,0.3043,0.0876,0.2094,-0.0287,-0.5230,0.2376,
11.269777,0.3323,-0.8276,-0.2296,0.3043,0.0876,0.2094,-0.2823,-0.7009,0.0246,
11.271831,0.3323,-0.8276,-0.2296,1.6956,1.2082,-0.1663,-0.2823,-0.7009,0.0246,
11.274097,0.4359,-0.7577,-0.2658,1.6956,1.2082,-0.1663,-0.2823,-0.7009,0.0246,
11.275863,0.4193,-0.8026,-0.2164,1.6956,1.2082,-0.1663,-0.2823,-0.7009,0.0246,
11.277059,0.2810,-0.8706,-0.4341,1.6956,1.2082,-0.1663,-0.2823,-0.7009,0.0246,
11.278324,0.2292,-0.8478,-0.6105,1.6956,1.2082,-0.1663,-0.2823,-0.7009,0.0246,
11.308914,0.2292,-0.8478,-0.6105,1.6956,1.2082,-0.1663,-0.4921,-0.7350,-0.0351,
11.311205,0.2292,-0.8478,-0.6105,1.4634,1.1534,-1.6280,-0.4921,-0.7350,-0.0351,
11.348445,0.2292,-0.8478,-0.6105,1.4634,1.1534,-1.6280,-0.0714,-0.6136,-0.0436,
11.351208,0.2292,-0.8478,-0.6105,1.4437,1.1630,2.8421,-0.0714,-0.6136,-0.0436,
11.352766,0.2456,-0.7142,-0.0495,1.4437,1.1630,2.8421,-0.0714,-0.6136,-0.0436,
11.354125,0.2964,-0.7259,0.2590,1.4437,1.1630,2.8421,-0.0714,-0.6136,-0.0436,
11.354974,0.3751,-1.0689,-0.1070,1.4437,1.1630,2.8421,-0.0714,-0.6136,-0.0436,
11.356363,0.4725,-1.3191,-0.6808,1.4437,1.1630,2.8421,-0.0714,-0.6136,-0.0436,
11.387925,0.4725,-1.3191,-0.6808,1.4437,1.1630,2.8421,0.0650,-0.0873,-0.0873,
11.390290,0.4725,-1.3191,-0.6808,1.3963,1.1447,2.7763,0.0650,-0.0873,-0.0873,
11.427742,0.4725,-1.3191,-0.6808,1.3963,1.1447,2.7763,0.0682,-0.4772,-0.3632,
11.429934,0.4725,-1.3191,-0.6808,3.2585,-1.8026,-1.3105,0.0682,-0.4772,-0.3632,
11.431609,0.5944,-1.1376,-0.5650,3.2585,-1.8026,-1.3105,0.0682,-0.4772,-0.3632,
11.433342,0.4640,-0.9588,0.0887,3.2585,-1.8026,-1.3105,0.0682,-0.4772,-0.3632,
11.434690,0.3970,-0.9763,0.2302,3.2585,-1.8026,-1.3105,0.0682,-0.4772,-0.3632,
11.436065,0.3555,-1.0824,-0.0708,3.2585,-1.8026,-1.3105,0.0682,-0.4772,-0.3632,
11.468600,0.3555,-1.0824,-0.0708,3.2585,-1.8026,-1.3105,1.0003,-0.1299,-0.5081,
11.470262,0.3555,-1.0824,-0.0708,3.0306,-1.7195,-1.6454,1.0003,-0.1299,-0.5081,
11.493238,0.2800,-1.1320,-0.4097,3.0306,-1.7195,-1.6454,1.0003,-0.1299,-0.5081,
11.495830,0.1703,-1.0848,-0.3515,3.0306,-1.7195,-1.6454,1.0003,-0.1299,-0.5081,
11.497095,0.0824,-1.0196,-0.1392,3.0306,-1.7195,-1.6454,1.0003,-0.1299,-0.5081,
11.506504,0.0824,-1.0196,-0.1392,3.0306,-1.7195,-1.6454,0.8970,-0.4016,-0.1395,
11.508967,0.0824,-1.0196,-0.1392,1.3585,-0.9104,0.9953,0.8970,-0.4016,-0.1395,
11.547901,0.0824,-1.0196,-0.1392,1.3585,-0.9104,0.9953,0.8661,-0.8745,0.3516,
11.550151,0.0824,-1.0196,-0.1392,-0.6972,-0.6098,-0.5431,0.8661,-0.8745,0.3516,
11.581266,0.0885,-1.0232,-0.1534,-0.6972,-0.6098,-0.5431,0.8661,-0.8745,0.3516,
11.583094,0.1105,-0.9800,-0.1565,-0.6972,-0.6098,-0.5431,0.8661,-0.8745,0.3516,
11.583896,0.0682,-0.9052,-0.1487,-0.6972,-0.6098,-0.5431,0.8661,-0.8745,0.3516,
11.585234,0.0308,-0.8676,-0.2064,-0.6972,-0.6098,-0.5431,0.8661,-0.8745,0.3516,
11.586648,0.0308,-0.8676,-0.2064,-0.6972,-0.6098,-0.5431,0.9534,-0.7211,0.5998,
11.587761,0.0308,-0.8676,-0.2064,-0.8430,0.6955,-0.4201,0.9534,-0.7211,0.5998,
11.626240,0.0308,-0.8676,-0.2064,-0.8430,0.6955,-0.4201,0.8650,-0.7254,0.6499,
11.629449,0.0308,-0.8676,-0.2064,0.8659,1.0482,-0.6319,0.8650,-0.7254,0.6499,
11.665266,0.0308,-0.8676,-0.2064,0.8659,1.0482,-0.6319,0.5284,-0.0937,0.2749,
11.667225,0.1227,-0.8505,-0.1893,0.8659,1.0482,-0.6319,0.5284,-0.0937,0.2749,
11.667981,0.2441,-0.8723,-0.1358,0.8659,1.0482,-0.6319,0.5284,-0.0937,0.2749,
11.668616,0.2839,-0.9392,-0.1649,0.8659,1.0482,-0.6319,0.5284,-0.0937,0.2749,
11.669374,0.1943,-0.9778,-0.2210,0.8659,1.0482,-0.6319,0.5284,-0.0937,0.2749,
11.669984,0.0719,-0.9739,-0.1727,0.8659,1.0482,-0.6319,0.5284,-0.0937,0.2749,
11.670745,0.0719,-0.9739,-0.1727,0.9595,1.0616,-0.8177,0.5284,-0.0937,0.2749,
11.704478,0.0719,-0.9739,-0.1727,0.9595,1.0616,-0.8177,-0.1449,0.1279,0.1087,
11.706329,0.0719,-0.9739,-0.1727,0.9809,1.0442,-0.7547,-0.1449,0.1279,0.1087,
11.744782,0.0719,-0.9739,-0.1727,0.9809,1.0442,-0.7547,-0.5337,-0.0980,0.1812,
11.747325,0.0719,-0.9739,-0.1727,0.0152,0.1516,-0.4406,-0.5337,-0.0980,0.1812,
11.748847,0.0665,-0.9790,-0.0666,0.0152,0.1516,-0.4406,-0.5337,-0.0980,0.1812,
11.750279,0.1447,-1.0167,0.0428,0.0152,0.1516,-0.4406,-0.5337,-0.0980,0.1812,
11.751560,0.1894,-1.0516,0.0773,0.0152,0.1516,-0.4406,-0.5337,-0.0980,0.1812,
11.752907,0.1671,-1.0477,0.0445,0.0152,0.1516,-0.4406,-0.5337,-0.0980,0.1812,
11.785045,0.1671,-1.0477,0.0445,0.0152,0.1516,-0.4406,-0.6093,0.3143,-0.0628,
11.787461,0.1671,-1.0477,0.0445,0.5180,-0.4764,1.7916,-0.6093,0.3143,-0.0628,
11.825855,0.1671,-1.0477,0.0445,0.5180,-0.4764,1.7916,-0.7467,0.6946,-0.1012,
11.827706,0.1102,-0.9864,-0.0437,0.5180,-0.4764,1.7916,-0.7467,0.6946,-0.1012,
11.829085,0.0609,-0.9233,-0.1551,0.5180,-0.4764,1.7916,-0.7467,0.6946,-0.1012,
11.830349,0.0753,-0.8874,-0.2333,0.5180,-0.4764,1.7916,-0.7467,0.6946,-0.1012,
11.831643,0.1320,-0.8913,-0.2494,0.5180,-0.4764,1.7916,-0.7467,0.6946,-0.1012,
11.833051,0.1320,-0.8913,-0.2494,-0.3849,0.5109,0.0955,-0.7467,0.6946,-0.1012,
11.863294,0.1320,-0.8913,-0.2494,-0.3849,0.5109,0.0955,-1.0397,0.3452,0.1279,
11.865109,0.1320,-0.8913,-0.2494,-0.3528,0.4396,0.4677,-1.0397,0.3452,0.1279,
11.902480,0.1320,-0.8913,-0.2494,-0.3528,0.4396,0.4677,-1.2261,0.0672,0.0373,
11.906126,0.1320,-0.8913,-0.2494,0.9458,0.6314,0.2068,-1.2261,0.0672,0.0373,
11.907506,0.2131,-0.9160,-0.2306,0.9458,0.6314,0.2068,-1.2261,0.0672,0.0373,
11.908090,0.3010,-0.8969,-0.1717,0.9458,0.6314,0.2068,-1.2261,0.0672,0.0373,
11.908923,0.3115,-0.8119,-0.1033,0.9458,0.6314,0.2068,-1.2261,0.0672,0.0373,
11.909798,0.1606,-0.7792,-0.1729,0.9458,0.6314,0.2068,-1.2261,0.0672,0.0373,
11.943879,0.1606,-0.7792,-0.1729,0.9458,0.6314,0.2068,-1.1963,0.3846,-0.3334,
11.945774,0.1606,-0.7792,-0.1729,0.7694,0.4858,0.6228,-1.1963,0.3846,-0.3334,
11.982599,0.1606,-0.7792,-0.1729,-0.1034,1.0689,1.0584,-1.1963,0.3846,-0.3334,
11.984151,-0.0564,-0.8747,-0.3867,-0.1034,1.0689,1.0584,-1.1963,0.3846,-0.3334,
11.985755,-0.0840,-0.9485,-0.4184,-0.1034,1.0689,1.0584,-1.1963,0.3846,-0.3334,
11.986548,0.0870,-0.9175,-0.2086,-0.1034,1.0689,1.0584,-1.1963,0.3846,-0.3334,
11.987195,0.0870,-0.9175,-0.2086,-0.1034,1.0689,1.0584,-1.4285,0.5817,-0.1438,
12.022070,0.0870,-0.9175,-0.2086,-0.1034,1.0689,1.0584,-1.0077,0.5050,-0.1065,
12.023399,0.0870,-0.9175,-0.2086,-0.9807,0.1048,1.1336,-1.0077,0.5050,-0.1065,
12.061372,0.0870,-0.9175,-0.2086,-0.9807,0.1048,1.1336,-0.4325,-0.1075,-0.0394,
12.062891,0.0870,-0.9175,-0.2086,-0.9626,0.0398,1.2721,-0.4325,-0.1075,-0.0394,
12.063394,0.1715,-0.8510,-0.1084,-0.9626,0.0398,1.2721,-0.4325,-0.1075,-0.0394,
12.063752,0.1403,-0.8786,-0.2890,-0.9626,0.0398,1.2721,-0.4325,-0.1075,-0.0394,
12.064215,0.0807,-1.0797,-0.5953,-0.9626,0.0398,1.2721,-0.4325,-0.1075,-0.0394,
12.064578,0.2148,-1.1767,-0.7502,-0.9626,0.0398,1.2721,-0.4325,-0.1075,-0.0394,
12.065188,0.2678,-1.0636,-0.6061,-0.9626,0.0398,1.2721,-0.4325,-0.1075,-0.0394,
12.101163,0.2678,-1.0636,-0.6061,-0.9626,0.0398,1.2721,-0.5294,-0.4016,-0.0585,
12.102082,0.2678,-1.0636,-0.6061,-0.0686,-1.3850,-1.4302,-0.5294,-0.4016,-0.0585,
12.140773,0.2678,-1.0636,-0.6061,-0.0686,-1.3850,-1.4302,-0.2493,-0.3494,-0.2077,
12.141922,0.2678,-1.0636,-0.6061,0.1577,-0.9197,-0.3302,-0.2493,-0.3494,-0.2077,
12.142504,0.1422,-0.9744,-0.4214,0.1577,-0.9197,-0.3302,-0.2493,-0.3494,-0.2077,
12.142945,0.1012,-0.9436,-0.3051,0.1577,-0.9197,-0.3302,-0.2493,-0.3494,-0.2077,
12.143352,0.0907,-0.9446,-0.3134,0.1577,-0.9197,-0.3302,-0.2493,-0.3494,-0.2077,
12.143772,0.0423,-0.9658,-0.3813,0.1577,-0.9197,-0.3302,-0.2493,-0.3494,-0.2077,
12.180353,0.0423,-0.9658,-0.3813,0.1577,-0.9197,-0.3302,0.1726,0.1556,-0.2737,
12.181510,0.0423,-0.9658,-0.3813,0.0369,-0.8943,-0.3937,0.1726,0.1556,-0.2737,
12.220087,0.0423,-0.9658,-0.3813,0.0369,-0.8943,-0.3937,0.4837,0.3654,-0.1981,
12.221329,0.0423,-0.9658,-0.3813,-1.4598,-0.5034,0.2696,0.4837,0.3654,-0.1981,
12.221867,-0.0491,-0.9727,-0.3737,-1.4598,-0.5034,0.2696,0.4837,0.3654,-0.1981,
12.222426,-0.1067,-0.9070,-0.2797,-1.4598,-0.5034,0.2696,0.4837,0.3654,-0.1981,
12.222806,-0.0987,-0.8278,-0.2057,-1.4598,-0.5034,0.2696,0.4837,0.3654,-0.1981,
12.223164,-0.0723,-0.8034,-0.1756,-1.4598,-0.5034,0.2696,0.4837,0.3654,-0.1981,
12.259462,-0.0723,-0.8034,-0.1756,-1.4598,-0.5034,0.2696,0.8767,0.3803,-0.1629,
12.260501,-0.0723,-0.8034,-0.1756,-2.7073,0.7244,1.2409,0.8767,0.3803,-0.1629,
12.299360,-0.0723,-0.8034,-0.1756,-2.7073,0.7244,1.2409,1.3550,0.5518,-0.2226,
12.300408,-0.0723,-0.8034,-0.1756,-1.7153,1.0249,1.0241,1.3550,0.5518,-0.2226,
12.302073,-0.0102,-0.7772,-0.1446,-1.7153,1.0249,1.0241,1.3550,0.5518,-0.2226,
12.302627,0.0303,-0.7946,-0.1526,-1.7153,1.0249,1.0241,1.3550,0.5518,-0.2226,
12.302982,0.0426,-0.9155,-0.2628,-1.7153,1.0249,1.0241,1.3550,0.5518,-0.2226,
12.303281,0.0440,-1.0159,-0.3537,-1.7153,1.0249,1.0241,1.3550,0.5518,-0.2226,
12.338690,0.0440,-1.0159,-0.3537,-1.7153,1.0249,1.0241,1.6320,0.4794,-0.2545,
12.339706,0.0440,-1.0159,-0.3537,-1.8258,1.1493,0.3834,1.6320,0.4794,-0.2545,
12.378850,0.0440,-1.0159,-0.3537,-1.8258,1.1493,0.3834,1.7034,0.1662,-0.0042,
12.379858,0.0440,-1.0159,-0.3537,-1.7242,-0.4430,-0.9588,1.7034,0.1662,-0.0042,
12.380354,0.0494,-0.9998,-0.2088,-1.7242,-0.4430,-0.9588,1.7034,0.1662,-0.0042,
12.380767,-0.0041,-1.0003,-0.2162,-1.7242,-0.4430,-0.9588,1.7034,0.1662,-0.0042,
12.381125,-0.0276,-1.1698,-0.2880,-1.7242,-0.4430,-0.9588,1.7034,0.1662,-0.0042,
12.381538,-0.0061,-1.4146,-0.4385,-1.7242,-0.4430,-0.9588,1.7034,0.1662,-0.0042,
12.417889,-0.0061,-1.4146,-0.4385,-1.7242,-0.4430,-0.9588,1.0909,-0.2471,0.2738,
12.419067,-0.0061,-1.4146,-0.4385,-1.5818,-0.3557,-1.3258,1.0909,-0.2471,0.2738,
12.458693,-0.0061,-1.4146,-0.4385,-1.5818,-0.3557,-1.3258,-0.3877,0.0288,0.4325,
12.460460,-0.0061,-1.4146,-0.4385,-1.9711,-3.6618,-3.2046,-0.3877,0.0288,0.4325,
12.461420,-0.0559,-1.4659,-0.6882,-1.9711,-3.6618,-3.2046,-0.3877,0.0288,0.4325,
12.462384,-0.0205,-1.2028,-0.8939,-1.9711,-3.6618,-3.2046,-0.3877,0.0288,0.4325,
12.463635,0.0079,-0.9140,-0.6520,-1.9711,-3.6618,-3.2046,-0.3877,0.0288,0.4325,
12.464380,0.0108,-0.8024,-0.2975,-1.9711,-3.6618,-3.2046,-0.3877,0.0288,0.4325,
12.500806,0.0108,-0.8024,-0.2975,-1.4937,0.0073,-4.2103,-0.3877,0.0288,0.4325,
12.502819,0.0108,-0.8024,-0.2975,-1.4937,0.0073,-4.2103,-1.0077,0.9258,0.5913,
12.538884,0.0108,-0.8024,-0.2975,-1.4937,0.0073,-4.2103,-0.3046,0.2238,0.5764,
12.540784,0.0108,-0.8024,-0.2975,3.2615,0.8027,2.9199,-0.3046,0.2238,0.5764,
12.544985,0.1559,-0.7887,-0.0102,3.2615,0.8027,2.9199,-0.3046,0.2238,0.5764,
12.546354,0.4940,-0.8759,0.2578,3.2615,0.8027,2.9199,-0.3046,0.2238,0.5764,
12.547762,0.7591,-1.0098,0.0755,3.2615,0.8027,2.9199,-0.3046,0.2238,0.5764,
12.549177,0.7501,-1.0487,-0.3161,3.2615,0.8027,2.9199,-0.3046,0.2238,0.5764,
12.578615,0.7501,-1.0487,-0.3161,3.2615,0.8027,2.9199,0.2802,-0.1299,-0.1022,
12.580523,0.7501,-1.0487,-0.3161,3.1782,0.8037,2.7738,0.2802,-0.1299,-0.1022,
12.619016,0.7501,-1.0487,-0.3161,2.9903,0.0785,-0.3313,0.2802,-0.1299,-0.1022,
12.621332,0.7501,-1.0487,-0.3161,2.9903,0.0785,-0.3313,0.2812,0.7212,-0.3856,
12.622874,0.5001,-0.9153,-0.2907,2.9903,0.0785,-0.3313,0.2812,0.7212,-0.3856,
12.624711,0.1757,-0.9307,0.0235,2.9903,0.0785,-0.3313,0.2812,0.7212,-0.3856,
12.627120,0.0255,-1.1036,-0.1668,2.9903,0.0785,-0.3313,0.2812,0.7212,-0.3856,
12.628953,0.0831,-1.1190,-0.2899,2.9903,0.0785,-0.3313,0.2812,0.7212,-0.3856,
12.655962,0.0831,-1.1190,-0.2899,2.9903,0.0785,-0.3313,0.2930,0.8586,0.1183,
12.657731,0.0831,-1.1190,-0.2899,2.9347,0.1020,-0.4912,0.2930,0.8586,0.1183,
12.695886,0.1821,-1.0157,-0.0591,2.9347,0.1020,-0.4912,0.2930,0.8586,0.1183,
12.697357,0.2768,-0.9969,0.1215,2.9347,0.1020,-0.4912,0.2930,0.8586,0.1183,
12.698110,0.3860,-1.0108,0.0162,2.9347,0.1020,-0.4912,0.2930,0.8586,0.1183,
12.698859,0.3860,-1.0108,0.0162,2.9347,0.1020,-0.4912,0.6072,0.5071,0.3122,
12.699601,0.3860,-1.0108,0.0162,-0.6702,-0.9531,-0.5267,0.6072,0.5071,0.3122,
12.735784,0.3860,-1.0108,0.0162,-0.6702,-0.9531,-0.5267,0.8181,0.6136,0.4081,
12.737102,0.3860,-1.0108,0.0162,1.6659,-0.1906,0.3094,0.8181,0.6136,0.4081,
12.775906,0.3860,-1.0108,0.0162,1.6659,-0.1906,0.3094,0.6168,0.3345,0.6648,
12.778404,0.3860,-1.0108,0.0162,1.8808,-0.1352,0.0524,0.6168,0.3345,0.6648,
12.779897,0.3110,-1.0157,-0.2885,1.8808,-0.1352,0.0524,0.6168,0.3345,0.6648,
12.780971,0.1515,-0.9927,-0.3415,1.8808,-0.1352,0.0524,0.6168,0.3345,0.6648,
12.782459,0.2385,-0.8872,-0.0830,1.8808,-0.1352,0.0524,0.6168,0.3345,0.6648,
12.783785,0.3665,-0.8246,0.0054,1.8808,-0.1352,0.0524,0.6168,0.3345,0.6648,
12.784986,0.3614,-0.8237,-0.0852,1.8808,-0.1352,0.0524,0.6168,0.3345,0.6648,
12.814804,0.3614,-0.8237,-0.0852,1.8808,-0.1352,0.0524,0.7659,0.4996,0.5604,
12.816651,0.3614,-0.8237,-0.0852,1.3568,0.9288,-1.1247,0.7659,0.4996,0.5604,
12.854780,0.3614,-0.8237,-0.0852,1.3568,0.9288,-1.1247,0.4517,0.5998,0.5391,
12.856894,0.3614,-0.8237,-0.0852,2.0773,1.3272,-1.6666,0.4517,0.5998,0.5391,
12.857991,0.3174,-0.8561,-0.2101,2.0773,1.3272,-1.6666,0.4517,0.5998,0.5391,
12.858978,0.2461,-0.9033,-0.2374,2.0773,1.3272,-1.6666,0.4517,0.5998,0.5391,
12.859974,0.2786,-0.9052,-0.1402,2.0773,1.3272,-1.6666,0.4517,0.5998,0.5391,
12.860804,0.4430,-0.9253,-0.0754,2.0773,1.3272,-1.6666,0.4517,0.5998,0.5391,
12.893559,0.4430,-0.9253,-0.0754,2.0773,1.3272,-1.6666,0.2152,0.3686,0.4965,
12.895063,0.4430,-0.9253,-0.0754,2.2315,1.3217,-1.7331,0.2152,0.3686,0.4965,
12.934198,0.4430,-0.9253,-0.0754,2.2315,1.3217,-1.7331,0.1683,-0.0213,0.1204,
12.936138,0.4430,-0.9253,-0.0754,3.3402,0.6565,-0.8660,0.1683,-0.0213,0.1204,
12.937138,0.5458,-0.9539,-0.0364,3.3402,0.6565,-0.8660,0.1683,-0.0213,0.1204,
12.937895,0.4559,-0.9534,-0.0014,3.3402,0.6565,-0.8660,0.1683,-0.0213,0.1204,
12.938828,0.3179,-0.9837,0.0416,3.3402,0.6565,-0.8660,0.1683,-0.0213,0.1204,
12.939655,0.2920,-1.0086,0.0145,3.3402,0.6565,-0.8660,0.1683,-0.0213,0.1204,
12.973689,0.2920,-1.0086,0.0145,3.3402,0.6565,-0.8660,-0.0490,-0.2972,-0.1523,
12.975538,0.2920,-1.0086,0.0145,2.5788,0.1227,0.1615,-0.0490,-0.2972,-0.1523,
13.013080,0.2920,-1.0086,0.0145,2.5788,0.1227,0.1615,-0.2514,-0.5731,-0.4005,
13.014957,0.2920,-1.0086,0.0145,1.3364,0.1858,-0.0544,-0.2514,-0.5731,-0.4005,
13.015922,0.3040,-0.9868,-0.0166,1.3364,0.1858,-0.0544,-0.2514,-0.5731,-0.4005,
13.016922,0.2612,-0.9727,-0.0144,1.3364,0.1858,-0.0544,-0.2514,-0.5731,-0.4005,
13.017539,0.1742,-0.9610,-0.0173,1.3364,0.1858,-0.0544,-0.2514,-0.5731,-0.4005,
13.018840,0.0687,-0.9622,-0.0473,1.3364,0.1858,-0.0544,-0.2514,-0.5731,-0.4005,
13.053702,0.0687,-0.9622,-0.0473,1.3364,0.1858,-0.0544,-0.3249,-0.5784,-0.4442,
13.056838,0.0687,-0.9622,-0.0473,1.1499,0.1603,0.0957,-0.3249,-0.5784,-0.4442,
13.093088,0.0687,-0.9622,-0.0473,1.1499,0.1603,0.0957,-0.5635,-0.6668,-0.1182,
13.095736,0.0687,-0.9622,-0.0473,-1.0129,0.1088,-0.3980,-0.5635,-0.6668,-0.1182,
13.097151,-0.0017,-0.9873,-0.1021,-1.0129,0.1088,-0.3980,-0.5635,-0.6668,-0.1182,
13.098387,0.0159,-0.9817,-0.1287,-1.0129,0.1088,-0.3980,-0.5635,-0.6668,-0.1182,
13.099945,0.0914,-0.9167,-0.0933,-1.0129,0.1088,-0.3980,-0.5635,-0.6668,-0.1182,
13.101472,0.1591,-0.8627,-0.0537,-1.0129,0.1088,-0.3980,-0.5635,-0.6668,-0.1182,
13.132292,0.1591,-0.8627,-0.0537,-1.0129,0.1088,-0.3980,-0.8373,-0.8436,-0.1001,
13.134493,0.1591,-0.8627,-0.0537,-1.0111,0.0794,-0.0331,-0.8373,-0.8436,-0.1001,
13.172139,0.1591,-0.8627,-0.0537,-1.0111,0.0794,-0.0331,-1.0684,-0.6849,-0.3728,
13.174577,0.1591,-0.8627,-0.0537,-0.0284,0.8235,0.6336,-1.0684,-0.6849,-0.3728,
13.176076,0.1676,-0.8994,-0.0596,-0.0284,0.8235,0.6336,-1.0684,-0.6849,-0.3728,
13.177238,0.1061,-0.9961,-0.1512,-0.0284,0.8235,0.6336,-1.0684,-0.6849,-0.3728,
13.178365,0.0135,-1.1293,-0.3466,-0.0284,0.8235,0.6336,-1.0684,-0.6849,-0.3728,
13.179592,0.0047,-1.2297,-0.5836,-0.0284,0.8235,0.6336,-1.0684,-0.6849,-0.3728,
13.211505,0.0047,-1.2297,-0.5836,-0.0284,0.8235,0.6336,-1.8120,-0.5241,-0.3131,
13.213254,0.0047,-1.2297,-0.5836,-1.0550,-1.4978,-1.4861,-1.8120,-0.5241,-0.3131,
13.251281,0.0047,-1.2297,-0.5836,-1.0550,-1.4978,-1.4861,-2.4480,-0.0468,-0.3685,
13.254236,0.0047,-1.2297,-0.5836,-0.9087,-2.2941,-2.2151,-2.4480,-0.0468,-0.3685,
13.255774,0.0887,-1.2180,-0.7006,-0.9087,-2.2941,-2.2151,-2.4480,-0.0468,-0.3685,
13.257216,0.1117,-1.1664,-0.5721,-0.9087,-2.2941,-2.2151,-2.4480,-0.0468,-0.3685,
13.258785,0.0047,-1.1452,-0.3215,-0.9087,-2.2941,-2.2151,-2.4480,-0.0468,-0.3685,
13.260070,-0.0508,-1.1430,-0.0715,-0.9087,-2.2941,-2.2151,-2.4480,-0.0468,-0.3685,
13.290880,-0.0508,-1.1430,-0.0715,-0.9087,-2.2941,-2.2151,-1.6139,-0.2929,-0.2791,
13.293230,-0.0508,-1.1430,-0.0715,-0.9544,-2.4804,-1.5860,-1.6139,-0.2929,-0.2791,
13.331248,-0.0508,-1.1430,-0.0715,-0.9544,-2.4804,-1.5860,-0.5145,-0.9992,-0.4069,
13.334575,-0.0508,-1.1430,-0.0715,-0.0340,-2.0500,3.6347,-0.5145,-0.9992,-0.4069,
13.336379,0.1926,-1.1339,0.0066,-0.0340,-2.0500,3.6347,-0.5145,-0.9992,-0.4069,
13.337949,0.3433,-1.1002,0.0118,-0.0340,-2.0500,3.6347,-0.5145,-0.9992,-0.4069,
13.339895,0.2470,-1.0440,-0.1126,-0.0340,-2.0500,3.6347,-0.5145,-0.9992,-0.4069,
13.341694,0.0980,-0.9964,-0.2320,-0.0340,-2.0500,3.6347,-0.5145,-0.9992,-0.4069,
13.369624,0.0980,-0.9964,-0.2320,-0.0340,-2.0500,3.6347,0.0000,-0.9736,-0.5933,
13.371236,0.0980,-0.9964,-0.2320,-0.0942,-2.0537,3.6365,0.0000,-0.9736,-0.5933,
13.411040,0.0980,-0.9964,-0.2320,-0.0942,-2.0537,3.6365,0.0682,-0.2034,-0.5997,
13.412840,0.0980,-0.9964,-0.2320,-0.6713,-0.8506,1.7630,0.0682,-0.2034,-0.5997,
13.413956,0.0157,-0.9632,-0.2697,-0.6713,-0.8506,1.7630,0.0682,-0.2034,-0.5997,
13.414814,-0.0640,-0.9263,-0.3151,-0.6713,-0.8506,1.7630,0.0682,-0.2034,-0.5997,
13.415630,-0.1575,-0.8671,-0.3539,-0.6713,-0.8506,1.7630,0.0682,-0.2034,-0.5997,
13.416358,-0.2093,-0.7582,-0.2596,-0.6713,-0.8506,1.7630,0.0682,-0.2034,-0.5997,
13.449860,-0.2093,-0.7582,-0.2596,-0.6713,-0.8506,1.7630,-0.0106,0.4144,-0.4410,
13.451558,-0.2093,-0.7582,-0.2596,-3.4172,0.5803,0.6953,-0.0106,0.4144,-0.4410,
13.488931,-0.1355,-0.5899,-0.1719,-3.4172,0.5803,0.6953,-0.0106,0.4144,-0.4410,
13.491194,-0.0574,-0.4682,-0.1624,-3.4172,0.5803,0.6953,-0.0106,0.4144,-0.4410,
13.492180,0.0020,-0.4543,-0.1915,-3.4172,0.5803,0.6953,-0.0106,0.4144,-0.4410,
13.493075,0.0020,-0.4543,-0.1915,-3.4172,0.5803,0.6953,0.3281,0.5167,-0.3270,
13.493855,0.0020,-0.4543,-0.1915,-2.7768,3.9289,1.8212,0.3281,0.5167,-0.3270,
13.528721,0.0020,-0.4543,-0.1915,-2.7768,3.9289,1.8212,0.5561,0.3761,-0.3739,
13.530600,0.0020,-0.4543,-0.1915,-1.3684,0.1128,-2.9275,0.5561,0.3761,-0.3739,
13.567602,0.0020,-0.4543,-0.1915,-1.3684,0.1128,-2.9275,0.2152,0.3409,-0.1842,
13.569992,0.0020,-0.4543,-0.1915,-1.4534,0.1217,-2.9849,0.2152,0.3409,-0.1842,
13.571670,0.0599,-0.5789,-0.3671,-1.4534,0.1217,-2.9849,0.2152,0.3409,-0.1842,
13.573263,0.0887,-0.8723,-0.7397,-1.4534,0.1217,-2.9849,0.2152,0.3409,-0.1842,
13.574330,0.1405,-1.2417,-0.8176,-1.4534,0.1217,-2.9849,0.2152,0.3409,-0.1842,
13.575568,0.2177,-1.4987,-0.3417,-1.4534,0.1217,-2.9849,0.2152,0.3409,-0.1842,
13.576671,-0.1092,-1.4537,-0.3256,-1.4534,0.1217,-2.9849,0.2152,0.3409,-0.1842,
13.607061,-0.1092,-1.4537,-0.3256,-1.4534,0.1217,-2.9849,0.4070,0.5678,0.2760,
13.609470,-0.1092,-1.4537,-0.3256,-1.4036,0.1962,-3.1302,0.4070,0.5678,0.2760,
13.647017,-0.1092,-1.4537,-0.3256,-1.4036,0.1962,-3.1302,0.0426,0.5945,0.7383,
13.649406,-0.1092,-1.4537,-0.3256,-3.1119,-5.0466,-1.3688,0.0426,0.5945,0.7383,
13.652326,-0.4170,-1.3934,-0.7040,-3.1119,-5.0466,-1.3688,0.0426,0.5945,0.7383,
13.654249,-0.1739,-1.2803,-0.3579,-3.1119,-5.0466,-1.3688,0.0426,0.5945,0.7383,
13.655612,0.0289,-1.0316,-0.0246,-3.1119,-5.0466,-1.3688,0.0426,0.5945,0.7383,
13.656589,-0.0693,-0.8535,-0.0754,-3.1119,-5.0466,-1.3688,0.0426,0.5945,0.7383,
13.686707,-0.0693,-0.8535,-0.0754,-3.1119,-5.0466,-1.3688,0.3899,1.0685,0.8906,
13.689336,-0.0693,-0.8535,-0.0754,-2.5633,-1.0554,1.3650,0.3899,1.0685,0.8906,
13.726049,0.0697,-0.7858,-0.0855,-2.5633,-1.0554,1.3650,0.3899,1.0685,0.8906,
13.727726,0.2773,-0.8740,-0.1204,-2.5633,-1.0554,1.3650,0.3899,1.0685,0.8906,
13.728501,0.3885,-0.9680,-0.1600,-2.5633,-1.0554,1.3650,0.3899,1.0685,0.8906,
13.729450,0.3885,-0.9680,-0.1600,-2.5633,-1.0554,1.3650,0.5731,1.1346,0.7649,
13.730284,0.3885,-0.9680,-0.1600,0.6887,0.8023,1.3508,0.5731,1.1346,0.7649,
13.766059,0.3885,-0.9680,-0.1600,0.6887,0.8023,1.3508,0.5518,1.0089,0.3899,
13.767724,0.3885,-0.9680,-0.1600,4.1974,1.1049,1.2470,0.5518,1.0089,0.3899,
13.805343,0.3885,-0.9680,-0.1600,4.1974,1.1049,1.2470,0.5380,0.6754,-0.3280,
13.807021,0.3885,-0.9680,-0.1600,3.9504,1.1075,0.9806,0.5380,0.6754,-0.3280,
13.807755,0.5211,-0.9265,-0.1385,3.9504,1.1075,0.9806,0.5380,0.6754,-0.3280,
13.808255,0.6367,-0.8537,-0.0750,3.9504,1.1075,0.9806,0.5380,0.6754,-0.3280,
13.809185,0.6584,-0.7733,-0.0940,3.9504,1.1075,0.9806,0.5380,0.6754,-0.3280,
13.809745,0.5534,-0.7494,-0.2567,3.9504,1.1075,0.9806,0.5380,0.6754,-0.3280,
13.810251,0.3015,-0.8456,-0.2824,3.9504,1.1075,0.9806,0.5380,0.6754,-0.3280,
13.847900,0.3015,-0.8456,-0.2824,3.6593,1.0570,0.8769,0.5380,0.6754,-0.3280,
13.850793,0.3015,-0.8456,-0.2824,3.6593,1.0570,0.8769,0.1119,0.5668,-0.4964,
13.886167,0.3015,-0.8456,-0.2824,3.6593,1.0570,0.8769,-0.1481,0.7404,-0.0884,
13.888396,0.3015,-0.8456,-0.2824,0.6367,1.0018,-0.6160,-0.1481,0.7404,-0.0884,
13.889711,0.0663,-0.9644,-0.2245,0.6367,1.0018,-0.6160,-0.1481,0.7404,-0.0884,
13.890841,0.0853,-1.0386,-0.0823,0.6367,1.0018,-0.6160,-0.1481,0.7404,-0.0884,
13.891675,0.2194,-1.0567,-0.0715,0.6367,1.0018,-0.6160,-0.1481,0.7404,-0.0884,
13.893108,0.3047,-1.0606,-0.0903,0.6367,1.0018,-0.6160,-0.1481,0.7404,-0.0884,
13.926976,0.3047,-1.0606,-0.0903,-0.3885,-0.9182,0.9788,-0.1481,0.7404,-0.0884,
13.929593,0.3047,-1.0606,-0.0903,-0.3885,-0.9182,0.9788,-0.0064,0.9279,0.1460,
13.965006,0.3621,-1.0790,-0.0818,-0.3885,-0.9182,0.9788,-0.0064,0.9279,0.1460,
13.967591,0.3904,-1.1017,-0.1157,-0.3885,-0.9182,0.9788,-0.0064,0.9279,0.1460,
13.970487,0.3770,-1.1129,-0.0862,-0.3885,-0.9182,0.9788,-0.0064,0.9279,0.1460,
13.971796,0.3770,-1.1129,-0.0862,-0.3885,-0.9182,0.9788,0.3100,0.4155,0.3463,
13.972952,0.3770,-1.1129,-0.0862,1.3880,-1.2927,0.6834,0.3100,0.4155,0.3463,
14.004588,0.3770,-1.1129,-0.0862,1.3880,-1.2927,0.6834,0.6711,-0.0138,0.4496,
14.006857,0.3770,-1.1129,-0.0862,0.8782,-0.4300,0.7366,0.6711,-0.0138,0.4496,
14.044179,0.3770,-1.1129,-0.0862,0.8782,-0.4300,0.7366,0.8949,-0.0607,0.5646,
14.045992,0.3770,-1.1129,-0.0862,1.0775,-0.3368,0.3943,0.8949,-0.0607,0.5646,
14.046858,0.3729,-1.0826,-0.0627,1.0775,-0.3368,0.3943,0.8949,-0.0607,0.5646,
14.047611,0.3286,-1.0032,-0.0307,1.0775,-0.3368,0.3943,0.8949,-0.0607,0.5646,
14.048280,0.2246,-0.9700,-0.0930,1.0775,-0.3368,0.3943,0.8949,-0.0607,0.5646,
14.048898,0.1623,-0.9663,-0.1961,1.0775,-0.3368,0.3943,0.8949,-0.0607,0.5646,
14.049571,0.1549,-0.8940,-0.1712,1.0775,-0.3368,0.3943,0.8949,-0.0607,0.5646,
14.083074,0.1549,-0.8940,-0.1712,1.0775,-0.3368,0.3943,0.6956,-0.0639,0.8555,
14.084380,0.1549,-0.8940,-0.1712,1.3849,-0.2481,0.1296,0.6956,-0.0639,0.8555,
14.122596,0.1549,-0.8940,-0.1712,1.3849,-0.2481,0.1296,0.4847,0.1321,0.9609,
14.124272,0.1549,-0.8940,-0.1712,0.2830,1.0092,-1.0101,0.4847,0.1321,0.9609,
14.126736,0.1601,-0.8261,-0.1136,0.2830,1.0092,-1.0101,0.4847,0.1321,0.9609,
14.127680,0.2126,-0.8432,-0.0999,0.2830,1.0092,-1.0101,0.4847,0.1321,0.9609,
14.128415,0.2979,-0.8715,-0.0283,0.2830,1.0092,-1.0101,0.4847,0.1321,0.9609,
14.129022,0.3362,-0.8623,0.0435,0.2830,1.0092,-1.0101,0.4847,0.1321,0.9609,
14.162502,0.3362,-0.8623,0.0435,0.2830,1.0092,-1.0101,0.3739,0.2813,0.7212,
14.164096,0.3362,-0.8623,0.0435,1.7352,1.3830,0.1246,0.3739,0.2813,0.7212,
14.203008,0.3362,-0.8623,0.0435,2.1738,0.5324,0.6345,0.3739,0.2813,0.7212,
14.205837,0.3362,-0.8623,0.0435,2.1738,0.5324,0.6345,0.2141,0.3910,0.4176,
14.207247,0.3174,-0.8845,0.0389,2.1738,0.5324,0.6345,0.2141,0.3910,0.4176,
14.208468,0.3023,-0.9434,0.0284,2.1738,0.5324,0.6345,0.2141,0.3910,0.4176,
14.209673,0.3245,-1.0125,0.0374,2.1738,0.5324,0.6345,0.2141,0.3910,0.4176,
14.210769,0.3440,-1.0213,0.0145,2.1738,0.5324,0.6345,0.2141,0.3910,0.4176,
14.242220,0.3440,-1.0213,0.0145,2.1738,0.5324,0.6345,-0.0096,0.4421,0.0682,
14.244385,0.3440,-1.0213,0.0145,2.1589,0.5258,0.6123,-0.0096,0.4421,0.0682,
14.282586,0.3440,-1.0213,0.0145,2.1589,0.5258,0.6123,-0.4463,0.2067,-0.3249,
14.284853,0.3069,-0.9956,-0.0837,2.1589,0.5258,0.6123,-0.4463,0.2067,-0.3249,
14.286321,0.2424,-0.9719,-0.2044,2.1589,0.5258,0.6123,-0.4463,0.2067,-0.3249,
14.287326,0.1923,-0.9563,-0.2506,2.1589,0.5258,0.6123,-0.4463,0.2067,-0.3249,
14.288614,0.1073,-0.9610,-0.2582,2.1589,0.5258,0.6123,-0.4463,0.2067,-0.3249,
14.290152,0.1073,-0.9610,-0.2582,1.8331,0.0213,-0.4510,-0.4463,0.2067,-0.3249,
14.321569,0.1073,-0.9610,-0.2582,1.8331,0.0213,-0.4510,-1.0727,0.1588,-0.6711,
14.323968,0.1073,-0.9610,-0.2582,1.5435,-0.0379,-0.0429,-1.0727,0.1588,-0.6711,
14.361259,0.1073,-0.9610,-0.2582,-0.6887,0.2666,-0.9219,-1.0727,0.1588,-0.6711,
14.363383,-0.0146,-0.9434,-0.2196,-0.6887,0.2666,-0.9219,-1.0727,0.1588,-0.6711,
14.364195,-0.1776,-0.9781,-0.1688,-0.6887,0.2666,-0.9219,-1.0727,0.1588,-0.6711,
14.364969,-0.2152,-1.0926,-0.1548,-0.6887,0.2666,-0.9219,-1.0727,0.1588,-0.6711,
14.365779,-0.2152,-1.0926,-0.1548,-0.6887,0.2666,-0.9219,-1.6117,0.4496,-0.6157,
14.400316,-0.2152,-1.0926,-0.1548,-0.6887,0.2666,-0.9219,-1.8376,0.4336,-0.3355,
14.402529,-0.2152,-1.0926,-0.1548,-3.4730,-1.2012,0.5207,-1.8376,0.4336,-0.3355,
14.440135,-0.2152,-1.0926,-0.1548,-3.4730,-1.2012,0.5207,-1.7438,-0.0202,-0.3845,
14.441774,-0.2152,-1.0926,-0.1548,-3.5529,-1.3738,1.1516,-1.7438,-0.0202,-0.3845,
14.443286,-0.1443,-1.1987,-0.1641,-3.5529,-1.3738,1.1516,-1.7438,-0.0202,-0.3845,
14.444454,-0.1026,-1.1860,-0.1578,-3.5529,-1.3738,1.1516,-1.7438,-0.0202,-0.3845,
14.445847,-0.0285,-1.0594,-0.3114,-3.5529,-1.3738,1.1516,-1.7438,-0.0202,-0.3845,
14.447597,0.0384,-0.9912,-0.5702,-3.5529,-1.3738,1.1516,-1.7438,-0.0202,-0.3845,
14.448609,0.0540,-0.9563,-0.4583,-3.5529,-1.3738,1.1516,-1.7438,-0.0202,-0.3845,
14.479998,0.0540,-0.9563,-0.4583,-3.5529,-1.3738,1.1516,-1.5159,-0.1352,-0.3664,
14.482347,0.0540,-0.9563,-0.4583,-2.1814,-1.4511,-0.0858,-1.5159,-0.1352,-0.3664,
14.518954,0.0540,-0.9563,-0.4583,-2.1814,-1.4511,-0.0858,-0.6519,-0.2546,-0.3472,
14.520695,0.0540,-0.9563,-0.4583,-0.1676,0.3126,0.7467,-0.6519,-0.2546,-0.3472,
14.521572,0.1464,-0.8938,-0.2516,-0.1676,0.3126,0.7467,-0.6519,-0.2546,-0.3472,
14.522261,0.3499,-0.8097,-0.1485,-0.1676,0.3126,0.7467,-0.6519,-0.2546,-0.3472,
14.522821,0.3511,-0.8066,0.0262,-0.1676,0.3126,0.7467,-0.6519,-0.2546,-0.3472,
14.523312,0.0269,-0.9849,0.1107,-0.1676,0.3126,0.7467,-0.6519,-0.2546,-0.3472,
14.558367,0.0269,-0.9849,0.1107,-0.1676,0.3126,0.7467,0.3228,-0.6210,-0.5635,
14.559654,0.0269,-0.9849,0.1107,-0.2765,0.3074,0.6702,0.3228,-0.6210,-0.5635,
14.597839,0.0269,-0.9849,0.1107,-0.2765,0.3074,0.6702,0.7777,-0.8735,-0.2801,
14.599247,0.0269,-0.9849,0.1107,-1.5440,-0.3764,3.4264,0.7777,-0.8735,-0.2801,
14.599727,-0.2289,-1.1044,-0.0706,-1.5440,-0.3764,3.4264,0.7777,-0.8735,-0.2801,
14.600212,-0.2062,-1.0433,-0.3320,-1.5440,-0.3764,3.4264,0.7777,-0.8735,-0.2801,
14.600583,-0.0657,-0.9583,-0.3613,-1.5440,-0.3764,3.4264,0.7777,-0.8735,-0.2801,
14.600998,-0.0324,-0.9541,-0.2452,-1.5440,-0.3764,3.4264,0.7777,-0.8735,-0.2801,
14.637601,-0.0324,-0.9541,-0.2452,-1.5440,-0.3764,3.4264,0.7042,-0.4484,-0.1310,
14.638797,-0.0324,-0.9541,-0.2452,-2.9669,-0.4875,-0.0734,0.7042,-0.4484,-0.1310,
14.676842,-0.0324,-0.9541,-0.2452,-2.9669,-0.4875,-0.0734,1.0163,0.1907,-0.1278,
14.678018,-0.0324,-0.9541,-0.2452,-3.2903,-1.1560,1.5683,1.0163,0.1907,-0.1278,
14.678594,-0.0752,-1.0174,-0.1524,-3.2903,-1.1560,1.5683,1.0163,0.1907,-0.1278,
14.679107,-0.1289,-1.0895,-0.0649,-3.2903,-1.1560,1.5683,1.0163,0.1907,-0.1278,
14.679482,-0.1956,-1.0909,-0.0921,-3.2903,-1.1560,1.5683,1.0163,0.1907,-0.1278,
14.679948,-0.2379,-0.9522,-0.2841,-3.2903,-1.1560,1.5683,1.0163,0.1907,-0.1278,
14.717685,-0.2379,-0.9522,-0.2841,-3.2903,-1.1560,1.5683,1.0461,0.1247,0.0768,
14.719626,-0.2379,-0.9522,-0.2841,-3.2191,-1.0338,1.1516,1.0461,0.1247,0.0768,
14.757923,-0.2379,-0.9522,-0.2841,-3.2191,-1.0338,1.1516,0.6488,-0.0383,0.1726,
14.759873,-0.2379,-0.9522,-0.2841,-3.7652,0.2021,-1.3018,0.6488,-0.0383,0.1726,
14.761733,-0.2069,-0.8596,-0.3092,-3.7652,0.2021,-1.3018,0.6488,-0.0383,0.1726,
14.763010,-0.1624,-1.0267,-0.4004,-3.7652,0.2021,-1.3018,0.6488,-0.0383,0.1726,
14.764135,0.0863,-1.2155,-0.4206,-3.7652,0.2021,-1.3018,0.6488,-0.0383,0.1726,
14.765484,0.2338,-1.1833,-0.4636,-3.7652,0.2021,-1.3018,0.6488,-0.0383,0.1726,
14.797171,0.2338,-1.1833,-0.4636,-3.7652,0.2021,-1.3018,0.0160,0.1822,0.1023,
14.800037,0.2338,-1.1833,-0.4636,-3.6782,0.2070,-1.2985,0.0160,0.1822,0.1023,
14.837160,0.1119,-1.0494,-0.4788,-3.6782,0.2070,-1.2985,0.0160,0.1822,0.1023,
14.839507,0.0159,-0.9832,-0.2789,-3.6782,0.2070,-1.2985,0.0160,0.1822,0.1023,
14.840471,0.1127,-0.8828,-0.0283,-3.6782,0.2070,-1.2985,0.0160,0.1822,0.1023,
14.841801,0.1127,-0.8828,-0.0283,-3.6782,0.2070,-1.2985,-0.2258,-0.3046,0.0107,
14.843049,0.1127,-0.8828,-0.0283,-0.2508,-1.7721,-2.3602,-0.2258,-0.3046,0.0107,
14.876845,0.1127,-0.8828,-0.0283,-0.2508,-1.7721,-2.3602,0.3239,-1.1249,0.0491,
14.880109,0.1127,-0.8828,-0.0283,-0.5352,0.8788,1.2536,0.3239,-1.1249,0.0491,
14.916171,0.1127,-0.8828,-0.0283,-0.5352,0.8788,1.2536,-0.2599,-0.8703,0.1875,
14.918250,0.1127,-0.8828,-0.0283,-0.3865,0.8535,1.3791,-0.2599,-0.8703,0.1875,
14.919737,0.1796,-0.7753,0.0724,-0.3865,0.8535,1.3791,-0.2599,-0.8703,0.1875,
14.920916,0.0733,-1.0201,-0.3403,-0.3865,0.8535,1.3791,-0.2599,-0.8703,0.1875,
14.922570,0.2644,-1.3965,-1.0495,-0.3865,0.8535,1.3791,-0.2599,-0.8703,0.1875,
14.923908,0.6843,-1.0135,-0.5829,-0.3865,0.8535,1.3791,-0.2599,-0.8703,0.1875,
14.925144,0.4774,-0.6541,0.1061,-0.3865,0.8535,1.3791,-0.2599,-0.8703,0.1875,
14.955629,0.4774,-0.6541,0.1061,-0.3865,0.8535,1.3791,-0.5944,-0.4804,-0.0862,
14.957682,0.4774,-0.6541,0.1061,1.9234,-1.7520,-3.9811,-0.5944,-0.4804,-0.0862,
14.995398,0.4774,-0.6541,0.1061,1.9234,-1.7520,-3.9811,0.2088,-0.8724,-0.0372,
14.997093,0.4774,-0.6541,0.1061,1.6744,1.3299,2.3169,0.2088,-0.8724,-0.0372,
14.997914,0.2414,-0.7948,0.0543,1.6744,1.3299,2.3169,0.2088,-0.8724,-0.0372,
14.998579,0.2138,-1.0364,-0.1837,1.6744,1.3299,2.3169,0.2088,-0.8724,-0.0372,
14.999411,0.2150,-1.0618,-0.4412,1.6744,1.3299,2.3169,0.2088,-0.8724,-0.0372,
15.000160,0.2500,-0.9475,-0.3085,1.6744,1.3299,2.3169,0.2088,-0.8724,-0.0372,
15.035453,0.2500,-0.9475,-0.3085,1.6744,1.3299,2.3169,0.1364,-0.0479,-0.0372,
15.037845,0.2500,-0.9475,-0.3085,1.6373,1.3183,2.2305,0.1364,-0.0479,-0.0372,
15.074626,0.3435,-0.9360,-0.1785,1.6373,1.3183,2.2305,0.1364,-0.0479,-0.0372,
15.076461,0.4591,-1.0105,-0.2132,1.6373,1.3183,2.2305,0.1364,-0.0479,-0.0372,
15.078139,0.5918,-0.9761,-0.2509,1.6373,1.3183,2.2305,0.1364,-0.0479,-0.0372,
15.079485,0.5918,-0.9761,-0.2509,1.6373,1.3183,2.2305,0.4165,0.1609,-0.0244,
15.080727,0.5918,-0.9761,-0.2509,1.1885,-0.1466,-0.8758,0.4165,0.1609,-0.0244,
15.113911,0.5918,-0.9761,-0.2509,1.1885,-0.1466,-0.8758,0.7084,-0.6114,-0.2897,
15.116499,0.5918,-0.9761,-0.2509,3.7958,-0.0630,-0.2350,0.7084,-0.6114,-0.2897,
15.153708,0.5918,-0.9761,-0.2509,3.7958,-0.0630,-0.2350,1.1367,-0.5571,-0.4069,
15.156143,0.5918,-0.9761,-0.2509,3.6193,-0.0111,-0.6182,1.1367,-0.5571,-0.4069,
15.159801,0.5940,-0.9458,-0.1986,3.6193,-0.0111,-0.6182,1.1367,-0.5571,-0.4069,
15.161755,0.4415,-1.0232,-0.1390,3.6193,-0.0111,-0.6182,1.1367,-0.5571,-0.4069,
15.163965,0.2908,-1.0213,-0.1519,3.6193,-0.0111,-0.6182,1.1367,-0.5571,-0.4069,
15.165271,0.1772,-0.9502,-0.2010,3.6193,-0.0111,-0.6182,1.1367,-0.5571,-0.4069,
15.166531,0.1229,-0.8640,-0.2892,3.6193,-0.0111,-0.6182,1.1367,-0.5571,-0.4069,
15.192974,0.1229,-0.8640,-0.2892,3.6193,-0.0111,-0.6182,1.0642,-0.7819,-0.0468,
15.195531,0.1229,-0.8640,-0.2892,1.2208,-0.1574,-0.4040,1.0642,-0.7819,-0.0468,
15.233067,0.1229,-0.8640,-0.2892,1.2208,-0.1574,-0.4040,0.8427,-0.7361,0.2344,
15.234389,0.1229,-0.8640,-0.2892,-1.0139,0.9566,-1.4158,0.8427,-0.7361,0.2344,
15.234902,0.0516,-0.8737,-0.2802,-1.0139,0.9566,-1.4158,0.8427,-0.7361,0.2344,
15.235797,0.0086,-0.9267,-0.1561,-1.0139,0.9566,-1.4158,0.8427,-0.7361,0.2344,
15.236317,0.0352,-0.9680,-0.1045,-1.0139,0.9566,-1.4158,0.8427,-0.7361,0.2344,
15.236734,0.1486,-0.9351,-0.0862,-1.0139,0.9566,-1.4158,0.8427,-0.7361,0.2344,
15.272034,0.1486,-0.9351,-0.0862,-1.0139,0.9566,-1.4158,0.9502,-0.4016,0.3995,
15.273334,0.1486,-0.9351,-0.0862,-0.8334,0.9936,-1.7269,0.9502,-0.4016,0.3995,
