
time,gFx,gFy,gFz,ax,ay,az,wx,wy,wz,
0.088632,0.0000,0.0000,0.0000,0.0000,0.0000,0.0000,0.6125,0.3111,0.2674,
0.095872,0.1000,0.3334,0.9196,0.0000,0.0000,0.0000,0.6125,0.3111,0.2674,
0.098111,0.1212,0.2882,0.9362,0.0000,0.0000,0.0000,0.6125,0.3111,0.2674,
0.099254,0.1428,0.3164,1.1080,0.0000,0.0000,0.0000,0.6125,0.3111,0.2674,
0.100094,0.2412,0.3006,1.0872,0.0000,0.0000,0.0000,0.6125,0.3111,0.2674,
0.101037,0.2323,0.2738,0.8709,0.0000,0.0000,0.0000,0.6125,0.3111,0.2674,
0.101851,0.2305,0.3182,0.7382,0.0000,0.0000,0.0000,0.6125,0.3111,0.2674,
0.102593,0.2222,0.3070,0.6836,0.0000,0.0000,0.0000,0.6125,0.3111,0.2674,
0.117117,0.2222,0.3070,0.6836,0.0000,0.0000,0.0000,0.2450,1.2986,0.1961,
0.156606,0.2222,0.3070,0.6836,0.0000,0.0000,0.0000,0.3079,0.7574,-0.0980,
0.158104,0.2222,0.3070,0.6836,0.0000,0.0000,-0.0000,0.3079,0.7574,-0.0980,
0.173114,0.2070,0.3137,0.8185,0.0000,0.0000,-0.0000,0.3079,0.7574,-0.0980,
0.174719,0.1828,0.3173,0.9261,0.0000,0.0000,-0.0000,0.3079,0.7574,-0.0980,
0.175717,0.0598,0.4223,0.8802,0.0000,0.0000,-0.0000,0.3079,0.7574,-0.0980,
0.176443,-0.0857,0.4614,0.7900,0.0000,0.0000,-0.0000,0.3079,0.7574,-0.0980,
0.196965,-0.0857,0.4614,0.7900,0.0000,0.0000,-0.0000,0.2834,-0.1576,-0.1459,
0.199222,-0.0857,0.4614,0.7900,-0.8351,0.3808,0.6056,0.2834,-0.1576,-0.1459,
0.236287,-0.0857,0.4614,0.7900,-0.8351,0.3808,0.6056,-0.2887,0.3772,0.0533,
0.240134,-0.0857,0.4614,0.7900,-0.8566,0.2449,0.6563,-0.2887,0.3772,0.0533,
0.276205,-0.0862,0.4442,0.8444,-0.8566,0.2449,0.6563,-0.2887,0.3772,0.0533,
0.279095,0.0027,0.3824,0.8919,-0.8566,0.2449,0.6563,-0.2887,0.3772,0.0533,
0.280004,0.0687,0.3418,0.9941,-0.8566,0.2449,0.6563,-0.2887,0.3772,0.0533,
0.280878,0.0687,0.3418,0.9941,-0.8566,0.2449,0.6563,0.0373,-0.0181,0.0214,
0.281801,0.0687,0.3418,0.9941,-0.5770,0.1556,0.4415,0.0373,-0.0181,0.0214,
0.315431,0.0687,0.3418,0.9941,-0.5770,0.1556,0.4415,0.6924,-0.9491,0.0235,
0.317611,0.0687,0.3418,0.9941,-0.7237,-0.7271,1.7652,0.6924,-0.9491,0.0235,
0.350565,-0.0102,0.2831,1.1185,-0.7237,-0.7271,1.7652,0.6924,-0.9491,0.0235,
0.352577,-0.0425,0.2649,1.0794,-0.7237,-0.7271,1.7652,0.6924,-0.9491,0.0235,
0.354090,0.0171,0.3466,1.0782,-0.7237,-0.7271,1.7652,0.6924,-0.9491,0.0235,
0.356106,-0.0029,0.3556,1.0158,-0.7237,-0.7271,1.7652,0.6924,-0.9491,0.0235,
0.357519,0.0176,0.4015,0.9012,-0.7237,-0.7271,1.7652,0.6924,-0.9491,0.0235,
0.358776,0.0553,0.4444,0.9025,-0.7237,-0.7271,1.7652,0.6924,-0.9491,0.0235,
0.360030,0.0553,0.4444,0.9025,-0.7237,-0.7271,1.7652,0.4655,-0.3419,0.0501,
0.361355,0.0553,0.4444,0.9025,-0.4056,0.0907,0.2812,0.4655,-0.3419,0.0501,
0.395030,0.0553,0.4444,0.9025,-0.4056,0.0907,0.2812,0.4357,-0.1320,0.0171,
0.396533,0.0553,0.4444,0.9025,-0.3639,-0.0499,0.2817,0.4357,-0.1320,0.0171,
0.427932,0.1471,0.4592,0.8769,-0.3639,-0.0499,0.2817,0.4357,-0.1320,0.0171,
0.429555,0.1472,0.4927,0.8649,-0.3639,-0.0499,0.2817,0.4357,-0.1320,0.0171,
0.430621,0.0942,0.5255,0.8816,-0.3639,-0.0499,0.2817,0.4357,-0.1320,0.0171,
0.431639,-0.0009,0.5750,0.8571,-0.3639,-0.0499,0.2817,0.4357,-0.1320,0.0171,
0.433733,-0.0009,0.5750,0.8571,-0.3639,-0.0499,0.2817,0.3857,-0.0298,-0.1086,
0.434930,-0.0009,0.5750,0.8571,0.5698,0.5938,-0.2469,0.3857,-0.0298,-0.1086,
0.474324,-0.0009,0.5750,0.8571,0.5698,0.5938,-0.2469,0.0043,0.3345,0.0512,
0.476433,-0.0009,0.5750,0.8571,0.5651,0.4947,-0.2122,0.0043,0.3345,0.0512,
0.494113,-0.0762,0.5677,0.8348,0.5651,0.4947,-0.2122,0.0043,0.3345,0.0512,
0.496314,0.0103,0.5485,0.8540,0.5651,0.4947,-0.2122,0.0043,0.3345,0.0512,
0.497810,0.1675,0.5931,0.8743,0.5651,0.4947,-0.2122,0.0043,0.3345,0.0512,
0.513874,0.1675,0.5931,0.8743,-0.9371,0.9757,-0.3623,0.0043,0.3345,0.0512,
0.516051,0.1675,0.5931,0.8743,-0.9371,0.9757,-0.3623,0.1545,-0.5070,-0.0308,
0.554647,0.1675,0.5931,0.8743,-0.9371,0.9757,-0.3623,0.5582,-1.2303,-0.4058,
0.557841,0.1675,0.5931,0.8743,0.4452,0.9275,0.0567,0.5582,-1.2303,-0.4058,
0.571410,0.1807,0.6075,0.9185,0.4452,0.9275,0.0567,0.5582,-1.2303,-0.4058,
0.573903,0.1332,0.5792,0.8390,0.4452,0.9275,0.0567,0.5582,-1.2303,-0.4058,
0.575131,0.1670,0.4331,0.7690,0.4452,0.9275,0.0567,0.5582,-1.2303,-0.4058,
0.576058,0.2141,0.2087,0.6588,0.4452,0.9275,0.0567,0.5582,-1.2303,-0.4058,
0.592715,0.2141,0.2087,0.6588,0.4452,0.9275,0.0567,0.5816,-1.5574,-0.6785,
0.594349,0.2141,0.2087,0.6588,0.0513,0.6099,0.2220,0.5816,-1.5574,-0.6785,
0.631995,0.2141,0.2087,0.6588,0.0513,0.6099,0.2220,0.8139,-2.2711,-1.6170,
0.633455,0.2141,0.2087,0.6588,0.5957,-2.3985,-1.2881,0.8139,-2.2711,-1.6170,
0.649145,0.4102,0.2405,0.5915,0.5957,-2.3985,-1.2881,0.8139,-2.2711,-1.6170,
0.650771,0.4540,0.4493,0.6728,0.5957,-2.3985,-1.2881,0.8139,-2.2711,-1.6170,
0.651692,0.3219,0.6518,0.6704,0.5957,-2.3985,-1.2881,0.8139,-2.2711,-1.6170,
0.652601,0.0622,0.5526,0.6708,0.5957,-2.3985,-1.2881,0.8139,-2.2711,-1.6170,
0.673784,0.0622,0.5526,0.6708,0.5957,-2.3985,-1.2881,0.5465,-0.9427,-1.9004,
0.675479,0.0622,0.5526,0.6708,0.7807,-0.1755,-1.0025,0.5465,-0.9427,-1.9004,
0.712421,0.0622,0.5526,0.6708,0.7807,-0.1755,-1.0025,-0.1587,1.4328,0.3537,
0.714414,0.0622,0.5526,0.6708,-2.9658,-0.7681,-2.2986,-0.1587,1.4328,0.3537,
0.717743,-0.2374,0.4114,0.5515,-2.9658,-0.7681,-2.2986,-0.1587,1.4328,0.3537,
0.719360,-0.2154,0.4566,0.6631,-2.9658,-0.7681,-2.2986,-0.1587,1.4328,0.3537,
0.720977,-0.0558,0.5591,0.3734,-2.9658,-0.7681,-2.2986,-0.1587,1.4328,0.3537,
0.753248,-0.0558,0.5591,0.3734,-2.9305,-0.4545,-2.2162,-0.1587,1.4328,0.3537,
0.755541,-0.0558,0.5591,0.3734,-2.9305,-0.4545,-2.2162,-0.6690,-0.0021,1.2208,
0.792364,-0.0558,0.5591,0.3734,-2.9305,-0.4545,-2.2162,-0.7936,-1.8226,1.1314,
0.794493,-0.0558,0.5591,0.3734,-0.9223,-0.7571,-2.5158,-0.7936,-1.8226,1.1314,
0.795830,0.1624,0.3438,0.5071,-0.9223,-0.7571,-2.5158,-0.7936,-1.8226,1.1314,
0.797288,0.0750,0.3720,0.4346,-0.9223,-0.7571,-2.5158,-0.7936,-1.8226,1.1314,
0.799011,0.0758,0.5042,0.4954,-0.9223,-0.7571,-2.5158,-0.7936,-1.8226,1.1314,
0.800333,0.2509,0.3694,0.4254,-0.9223,-0.7571,-2.5158,-0.7936,-1.8226,1.1314,
0.801723,0.3219,0.2955,0.4821,-0.9223,-0.7571,-2.5158,-0.7936,-1.8226,1.1314,
0.830722,0.3219,0.2955,0.4821,-0.9223,-0.7571,-2.5158,-1.5766,-2.2306,1.3977,
0.832315,0.3219,0.2955,0.4821,-1.6596,-0.1573,-2.3673,-1.5766,-2.2306,1.3977,
0.870452,0.3219,0.2955,0.4821,-1.6596,-0.1573,-2.3673,-1.4285,-2.6929,1.8983,
0.872719,0.3582,0.2181,0.5837,-1.6596,-0.1573,-2.3673,-1.4285,-2.6929,1.8983,
0.873915,0.3934,0.0968,0.6289,-1.6596,-0.1573,-2.3673,-1.4285,-2.6929,1.8983,
0.875370,0.4402,-0.0347,0.6741,-1.6596,-0.1573,-2.3673,-1.4285,-2.6929,1.8983,
0.876582,0.6015,-0.0579,0.6426,-1.6596,-0.1573,-2.3673,-1.4285,-2.6929,1.8983,
0.877928,0.6015,-0.0579,0.6426,0.8997,-3.2400,-0.5398,-1.4285,-2.6929,1.8983,
0.910404,0.6015,-0.0579,0.6426,-0.0603,-2.4330,-0.1843,-1.4285,-2.6929,1.8983,
0.912833,0.6015,-0.0579,0.6426,-0.0603,-2.4330,-0.1843,-0.8810,-2.6290,2.2605,
0.948871,0.9934,-0.0404,0.5899,-0.0603,-2.4330,-0.1843,-0.8810,-2.6290,2.2605,
0.951169,0.9155,-0.0012,0.4622,-0.0603,-2.4330,-0.1843,-0.8810,-2.6290,2.2605,
0.952580,0.6207,-0.0707,0.4801,-0.0603,-2.4330,-0.1843,-0.8810,-2.6290,2.2605,
0.953957,0.6207,-0.0707,0.4801,-0.0603,-2.4330,-0.1843,-1.0418,-1.8620,1.4691,
0.955494,0.6207,-0.0707,0.4801,2.7223,-2.1069,-1.1678,-1.0418,-1.8620,1.4691,
0.990591,0.6207,-0.0707,0.4801,1.8209,-1.3996,-0.5005,-1.0418,-1.8620,1.4691,
0.992693,0.6207,-0.0707,0.4801,1.8209,-1.3996,-0.5005,-0.9555,-2.9135,1.6342,
1.027187,0.7027,-0.2345,0.6195,1.8209,-1.3996,-0.5005,-0.9555,-2.9135,1.6342,
1.029309,0.7751,-0.1886,0.7211,1.8209,-1.3996,-0.5005,-0.9555,-2.9135,1.6342,
1.031072,0.6490,-0.0999,0.8057,1.8209,-1.3996,-0.5005,-0.9555,-2.9135,1.6342,
1.032510,1.0073,-0.2229,0.6390,1.8209,-1.3996,-0.5005,-0.9555,-2.9135,1.6342,
1.037684,1.0073,-0.2229,0.6390,1.8209,-1.3996,-0.5005,0.6008,-4.8150,2.5301,
1.039110,1.0073,-0.2229,0.6390,-0.4629,-2.0178,2.6721,0.6008,-4.8150,2.5301,
1.068449,1.0073,-0.2229,0.6390,-0.4629,-2.0178,2.6721,1.4871,-4.6956,2.9327,
1.069848,1.0073,-0.2229,0.6390,-1.0628,-1.2394,3.8587,1.4871,-4.6956,2.9327,
1.104575,1.2419,-0.1865,0.5501,-1.0628,-1.2394,3.8587,1.4871,-4.6956,2.9327,
1.106961,1.3728,-0.1190,0.4691,-1.0628,-1.2394,3.8587,1.4871,-4.6956,2.9327,
1.108464,1.4647,0.0098,0.3476,-1.0628,-1.2394,3.8587,1.4871,-4.6956,2.9327,
1.109676,1.5038,0.0149,0.4440,-1.0628,-1.2394,3.8587,1.4871,-4.6956,2.9327,
1.114796,1.5038,0.0149,0.4440,-1.0628,-1.2394,3.8587,1.4530,-3.7316,2.3245,
1.116800,1.5038,0.0149,0.4440,3.3052,-0.6104,3.2302,1.4530,-3.7316,2.3245,
1.147751,1.5038,0.0149,0.4440,3.3052,-0.6104,3.2302,1.3444,-1.9781,2.0145,
1.149910,1.5038,0.0149,0.4440,3.0776,-0.0229,3.6016,1.3444,-1.9781,2.0145,
1.182503,1.5432,-0.0821,0.5152,3.0776,-0.0229,3.6016,1.3444,-1.9781,2.0145,
1.184736,1.4544,-0.1086,0.4559,3.0776,-0.0229,3.6016,1.3444,-1.9781,2.0145,
1.186104,1.3991,-0.1042,0.3327,3.0776,-0.0229,3.6016,1.3444,-1.9781,2.0145,
1.187597,1.4703,-0.0454,0.1977,3.0776,-0.0229,3.6016,1.3444,-1.9781,2.0145,
1.193066,1.4703,-0.0454,0.1977,5.1974,1.3815,1.4340,1.3444,-1.9781,2.0145,
1.195084,1.4703,-0.0454,0.1977,5.1974,1.3815,1.4340,1.5457,-0.6657,2.0390,
1.226306,1.4703,-0.0454,0.1977,5.1974,1.3815,1.4340,2.2445,-1.5158,1.6384,
1.228995,1.4703,-0.0454,0.1977,4.9814,1.7180,1.6568,2.2445,-1.5158,1.6384,
1.266566,1.3205,-0.0133,0.1580,4.9814,1.7180,1.6568,2.2445,-1.5158,1.6384,
1.268421,1.1785,-0.2731,0.1764,4.9814,1.7180,1.6568,2.2445,-1.5158,1.6384,
1.269184,1.1798,-0.4761,0.0313,4.9814,1.7180,1.6568,2.2445,-1.5158,1.6384,
1.269870,1.1798,-0.4761,0.0313,4.9814,1.7180,1.6568,3.0861,-1.8343,1.2400,
1.270597,1.1798,-0.4761,0.0313,2.7609,0.3314,-0.0375,3.0861,-1.8343,1.2400,
1.306575,1.1798,-0.4761,0.0313,0.5570,-0.0513,-2.1916,3.0861,-1.8343,1.2400,
1.308927,1.1798,-0.4761,0.0313,0.5570,-0.0513,-2.1916,3.2736,-1.5872,1.0664,
1.345239,1.0057,-0.3143,-0.0473,0.5570,-0.0513,-2.1916,3.2736,-1.5872,1.0664,
1.347786,0.9855,-0.2565,-0.1446,0.5570,-0.0513,-2.1916,3.2736,-1.5872,1.0664,
1.349221,1.0050,-0.3846,-0.1959,0.5570,-0.0513,-2.1916,3.2736,-1.5872,1.0664,
1.350516,0.9086,-0.6059,-0.0301,0.5570,-0.0513,-2.1916,3.2736,-1.5872,1.0664,
1.352651,1.0877,-0.2655,-1.2666,0.5570,-0.0513,-2.1916,3.2736,-1.5872,1.0664,
1.354390,1.0877,-0.2655,-1.2666,0.5570,-0.0513,-2.1916,2.3862,-1.5073,1.1037,
1.356570,1.0877,-0.2655,-1.2666,0.6192,0.2611,-1.8539,2.3862,-1.5073,1.1037,
1.386626,1.0877,-0.2655,-1.2666,0.6192,0.2611,-1.8539,0.3611,-0.8309,1.1441,
1.388855,1.0877,-0.2655,-1.2666,0.7294,0.6338,-1.5261,0.3611,-0.8309,1.1441,
1.423839,0.9616,-0.0900,-0.6033,0.7294,0.6338,-1.5261,0.3611,-0.8309,1.1441,
1.426098,1.0722,-0.2029,0.0471,0.7294,0.6338,-1.5261,0.3611,-0.8309,1.1441,
1.427519,0.9802,-0.2283,-0.6703,0.7294,0.6338,-1.5261,0.3611,-0.8309,1.1441,
1.428824,0.9498,-0.3668,-0.1140,0.7294,0.6338,-1.5261,0.3611,-0.8309,1.1441,
1.430108,0.9498,-0.3668,-0.1140,0.7294,0.6338,-1.5261,0.0575,0.6967,0.8160,
1.431481,0.9498,-0.3668,-0.1140,0.8472,1.3756,-2.7964,0.0575,0.6967,0.8160,
1.465230,0.9498,-0.3668,-0.1140,0.8472,1.3756,-2.7964,-0.1012,0.5220,0.8459,
1.467720,0.9498,-0.3668,-0.1140,0.9522,1.6025,-2.8347,-0.1012,0.5220,0.8459,
1.504606,1.0478,-0.3436,-0.2418,0.9522,1.6025,-2.8347,-0.1012,0.5220,0.8459,
1.506165,0.8212,-0.4771,-0.2534,0.9522,1.6025,-2.8347,-0.1012,0.5220,0.8459,
1.506922,0.5611,-0.6088,-0.2383,0.9522,1.6025,-2.8347,-0.1012,0.5220,0.8459,
1.507942,0.5611,-0.6088,-0.2383,0.9522,1.6025,-2.8347,0.0671,-0.5560,1.5042,
1.508724,0.5611,-0.6088,-0.2383,-0.6305,0.0562,-2.5328,0.0671,-0.5560,1.5042,
1.544120,0.5611,-0.6088,-0.2383,-0.6305,0.0562,-2.5328,0.5401,-1.4647,1.7449,
1.547243,0.5611,-0.6088,-0.2383,-1.0586,0.7367,0.4129,0.5401,-1.4647,1.7449,
1.582824,0.4736,-0.6221,-0.1712,-1.0586,0.7367,0.4129,0.5401,-1.4647,1.7449,
1.586180,0.7912,-0.4537,0.0699,-1.0586,0.7367,0.4129,0.5401,-1.4647,1.7449,
1.588593,0.9134,-0.3142,0.1590,-1.0586,0.7367,0.4129,0.5401,-1.4647,1.7449,
1.590415,0.7174,-0.2688,-0.0795,-1.0586,0.7367,0.4129,0.5401,-1.4647,1.7449,
1.591971,0.5817,-0.3316,0.0181,-1.0586,0.7367,0.4129,0.5401,-1.4647,1.7449,
1.593397,0.5817,-0.3316,0.0181,-1.0586,0.7367,0.4129,-0.1427,-0.1171,1.1910,
1.595065,0.5817,-0.3316,0.0181,-0.7677,1.0700,0.4638,-0.1427,-0.1171,1.1910,
1.623074,0.5817,-0.3316,0.0181,-0.7677,1.0700,0.4638,-0.9257,-0.0213,1.1378,
1.624862,0.5817,-0.3316,0.0181,-0.4862,1.3495,0.6563,-0.9257,-0.0213,1.1378,
1.661421,0.3354,-0.4479,-0.0438,-0.4862,1.3495,0.6563,-0.9257,-0.0213,1.1378,
1.663526,0.5126,-0.4813,-0.0947,-0.4862,1.3495,0.6563,-0.9257,-0.0213,1.1378,
1.665038,0.5485,-0.7033,-0.1382,-0.4862,1.3495,0.6563,-0.9257,-0.0213,1.1378,
1.666151,0.7612,-1.1981,0.1805,-0.4862,1.3495,0.6563,-0.9257,-0.0213,1.1378,
1.667797,0.7612,-1.1981,0.1805,-1.3055,-1.5247,0.7187,-0.9257,-0.0213,1.1378,
1.669239,0.7612,-1.1981,0.1805,-1.3055,-1.5247,0.7187,-0.9193,-0.7765,1.1303,
1.704739,0.7612,-1.1981,0.1805,-1.1119,-1.3140,0.7638,-0.9193,-0.7765,1.1303,
1.706819,0.7612,-1.1981,0.1805,-1.1119,-1.3140,0.7638,-0.0319,-0.2343,0.5657,
1.744369,1.0881,-1.6167,0.0490,-1.1119,-1.3140,0.7638,-0.0319,-0.2343,0.5657,
1.746321,1.2125,-1.3760,0.0197,-1.1119,-1.3140,0.7638,-0.0319,-0.2343,0.5657,
1.748129,0.8600,-1.1014,-0.0030,-1.1119,-1.3140,0.7638,-0.0319,-0.2343,0.5657,
1.749464,0.8600,-1.1014,-0.0030,-1.1119,-1.3140,0.7638,0.7649,-0.2247,0.0235,
1.750619,0.8600,-1.1014,-0.0030,3.1569,-6.6264,0.9795,0.7649,-0.2247,0.0235,
1.781761,0.8600,-1.1014,-0.0030,3.1569,-6.6264,0.9795,0.3324,-2.5023,2.3852,
1.783461,0.8600,-1.1014,-0.0030,-3.1370,-0.0320,0.5637,0.3324,-2.5023,2.3852,
1.820214,0.5168,-0.6787,-0.1283,-3.1370,-0.0320,0.5637,0.3324,-2.5023,2.3852,
1.822969,0.4653,-0.6530,-0.4216,-3.1370,-0.0320,0.5637,0.3324,-2.5023,2.3852,
1.824417,-0.0193,-0.9445,0.3163,-3.1370,-0.0320,0.5637,0.3324,-2.5023,2.3852,
1.825688,0.4796,-1.0153,-0.3590,-3.1370,-0.0320,0.5637,0.3324,-2.5023,2.3852,
1.826911,0.9754,-0.9970,-0.2833,-3.1370,-0.0320,0.5637,0.3324,-2.5023,2.3852,
1.828817,0.9754,-0.9970,-0.2833,-3.1370,-0.0320,0.5637,1.0930,-0.9321,3.3908,
1.830110,0.9754,-0.9970,-0.2833,-1.9651,0.7681,0.4266,1.0930,-0.9321,3.3908,
1.861907,0.9754,-0.9970,-0.2833,-1.9651,0.7681,0.4266,0.8863,0.7489,0.6786,
1.864144,0.9754,-0.9970,-0.2833,-1.7084,0.9054,-0.0112,0.8863,0.7489,0.6786,
1.898330,0.8971,-1.0355,-0.2087,-1.7084,0.9054,-0.0112,0.8863,0.7489,0.6786,
1.901197,0.3440,-1.0013,-0.2169,-1.7084,0.9054,-0.0112,0.8863,0.7489,0.6786,
1.902698,0.3572,-0.7573,-0.0510,-1.7084,0.9054,-0.0112,0.8863,0.7489,0.6786,
1.904470,0.3313,-0.7104,-0.1175,-1.7084,0.9054,-0.0112,0.8863,0.7489,0.6786,
1.905955,0.3313,-0.7104,-0.1175,-1.7084,0.9054,-0.0112,0.1715,-0.0511,0.1492,
1.907238,0.3313,-0.7104,-0.1175,-1.3837,0.2988,-0.5361,0.1715,-0.0511,0.1492,
1.940468,0.3313,-0.7104,-0.1175,-1.3837,0.2988,-0.5361,0.3516,0.2759,0.2259,
1.942050,0.3313,-0.7104,-0.1175,-1.2731,0.3387,-0.6819,0.3516,0.2759,0.2259,
1.978680,0.3854,-0.7031,-0.1602,-1.2731,0.3387,-0.6819,0.3516,0.2759,0.2259,
1.980626,0.3928,-0.5576,-0.1012,-1.2731,0.3387,-0.6819,0.3516,0.2759,0.2259,
1.982414,0.3908,-0.3955,-0.0820,-1.2731,0.3387,-0.6819,0.3516,0.2759,0.2259,
1.984184,0.3716,-0.5903,0.0306,-1.2731,0.3387,-0.6819,0.3516,0.2759,0.2259,
1.985734,0.3716,-0.5903,0.0306,-1.2731,0.3387,-0.6819,0.4027,0.4634,0.1428,
1.986946,0.3716,-0.5903,0.0306,-0.7636,2.9329,-0.7404,0.4027,0.4634,0.1428,
2.019817,0.3716,-0.5903,0.0306,-0.7636,2.9329,-0.7404,0.5412,0.2823,1.2315,
2.021350,0.3716,-0.5903,0.0306,-0.3429,3.0538,-0.9408,0.5412,0.2823,1.2315,
2.061245,0.3158,-0.5914,-0.0191,-0.3429,3.0538,-0.9408,0.5412,0.2823,1.2315,
2.063194,0.2820,-0.3805,0.0886,-0.3429,3.0538,-0.9408,0.5412,0.2823,1.2315,
2.065089,0.2026,-0.4265,-0.0665,-0.3429,3.0538,-0.9408,0.5412,0.2823,1.2315,
2.066472,0.2026,-0.4265,-0.0665,-0.3429,3.0538,-0.9408,-0.0628,0.7415,2.1434,
2.068008,0.2026,-0.4265,-0.0665,-0.2570,3.5717,0.4062,-0.0628,0.7415,2.1434,
2.098604,0.2026,-0.4265,-0.0665,-0.2570,3.5717,0.4062,-0.6061,0.2408,2.0486,
2.100155,0.2026,-0.4265,-0.0665,-0.3806,-0.5955,-0.1686,-0.6061,0.2408,2.0486,
2.138948,0.2026,-0.4265,-0.0665,-0.3806,-0.5955,-0.1686,-0.5379,0.0032,0.9652,
2.142028,0.2026,-0.4265,-0.0665,1.9318,-1.3744,0.6329,-0.5379,0.0032,0.9652,
2.143251,0.2156,-1.1061,-0.0342,1.9318,-1.3744,0.6329,-0.5379,0.0032,0.9652,
2.144117,0.2915,-1.3859,-0.0323,1.9318,-1.3744,0.6329,-0.5379,0.0032,0.9652,
2.144882,0.2274,-1.0548,0.0053,1.9318,-1.3744,0.6329,-0.5379,0.0032,0.9652,
2.145587,0.5494,-1.0589,0.0249,1.9318,-1.3744,0.6329,-0.5379,0.0032,0.9652,
2.146286,0.5532,-1.0829,0.0295,1.9318,-1.3744,0.6329,-0.5379,0.0032,0.9652,
2.180329,0.5532,-1.0829,0.0295,1.9318,-1.3744,0.6329,-0.5486,0.1833,-0.3270,
2.182148,0.5532,-1.0829,0.0295,1.7585,-1.3776,0.7896,-0.5486,0.1833,-0.3270,
2.217643,0.5532,-1.0829,0.0295,1.7585,-1.3776,0.7896,-0.7212,0.2983,-0.3941,
2.219835,0.5532,-1.0829,0.0295,1.5628,-1.3984,0.9875,-0.7212,0.2983,-0.3941,
2.241007,0.0653,-1.1022,-0.1678,1.5628,-1.3984,0.9875,-0.7212,0.2983,-0.3941,
2.258241,0.0653,-1.1022,-0.1678,1.5628,-1.3984,0.9875,-0.9758,0.1897,-0.4292,
2.262809,0.0653,-1.1022,-0.1678,1.3628,-1.4415,1.2762,-0.9758,0.1897,-0.4292,
2.297737,0.0653,-1.1022,-0.1678,1.3628,-1.4415,1.2762,-1.2346,0.0608,-0.5976,
2.299274,0.0653,-1.1022,-0.1678,-2.8651,-2.0359,-0.2536,-1.2346,0.0608,-0.5976,
2.326954,0.0084,-1.1464,-0.1446,-2.8651,-2.0359,-0.2536,-1.2346,0.0608,-0.5976,
2.328894,0.0025,-1.1061,-0.2298,-2.8651,-2.0359,-0.2536,-1.2346,0.0608,-0.5976,
2.329753,0.0504,-0.9866,-0.3112,-2.8651,-2.0359,-0.2536,-1.2346,0.0608,-0.5976,
2.330600,0.1667,-0.8906,-0.2208,-2.8651,-2.0359,-0.2536,-1.2346,0.0608,-0.5976,
2.342936,0.1667,-0.8906,-0.2208,-2.8651,-2.0359,-0.2536,-1.4157,-0.2109,-0.2556,
2.344852,0.1667,-0.8906,-0.2208,-2.8579,-2.1071,0.2612,-1.4157,-0.2109,-0.2556,
2.378494,0.1667,-0.8906,-0.2208,-2.8579,-2.1071,0.2612,-0.8927,-0.4846,-0.0703,
2.380801,0.1667,-0.8906,-0.2208,-1.7477,-0.4745,-0.1629,-0.8927,-0.4846,-0.0703,
2.413205,0.1784,-0.9551,-0.2550,-1.7477,-0.4745,-0.1629,-0.8927,-0.4846,-0.0703,
2.414955,0.2150,-0.9761,-0.2445,-1.7477,-0.4745,-0.1629,-0.8927,-0.4846,-0.0703,
2.416161,0.2290,-0.9680,-0.1321,-1.7477,-0.4745,-0.1629,-0.8927,-0.4846,-0.0703,
2.417051,0.1928,-0.9996,-0.0869,-1.7477,-0.4745,-0.1629,-0.8927,-0.4846,-0.0703,
2.418509,0.1928,-0.9996,-0.0869,-1.7477,-0.4745,-0.1629,-0.3249,-0.7574,-0.1097,
2.419713,0.1928,-0.9996,-0.0869,-0.8970,-0.8605,1.0685,-0.3249,-0.7574,-0.1097,
2.455329,0.1928,-0.9996,-0.0869,-0.8970,-0.8605,1.0685,0.1300,-0.5443,-0.2407,
2.456876,0.1928,-0.9996,-0.0869,-1.8934,-1.0466,0.8274,0.1300,-0.5443,-0.2407,
2.465402,0.1395,-1.0372,-0.1453,-1.8934,-1.0466,0.8274,0.1300,-0.5443,-0.2407,
2.467893,0.1009,-1.0189,-0.2032,-1.8934,-1.0466,0.8274,0.1300,-0.5443,-0.2407,
2.469478,0.0843,-0.9485,-0.1881,-1.8934,-1.0466,0.8274,0.1300,-0.5443,-0.2407,
2.497013,0.0843,-0.9485,-0.1881,-1.8934,-1.0466,0.8274,0.3558,-0.1427,-0.2407,
2.498969,0.0843,-0.9485,-0.1881,-1.9123,-1.0128,0.7020,0.3558,-0.1427,-0.2407,
2.535648,0.0843,-0.9485,-0.1881,-1.9123,-1.0128,0.7020,0.6466,-0.0681,-0.1193,
2.538337,0.0237,-0.8701,-0.1534,-1.9123,-1.0128,0.7020,0.6466,-0.0681,-0.1193,
2.539866,-0.0219,-0.8202,-0.1089,-1.9123,-1.0128,0.7020,0.6466,-0.0681,-0.1193,
2.541444,-0.0486,-0.7831,-0.0342,-1.9123,-1.0128,0.7020,0.6466,-0.0681,-0.1193,
2.542585,-0.1055,-0.7276,-0.1228,-1.9123,-1.0128,0.7020,0.6466,-0.0681,-0.1193,
2.543805,-0.1055,-0.7276,-0.1228,-3.0824,0.7490,1.2368,0.6466,-0.0681,-0.1193,
2.575021,-0.1055,-0.7276,-0.1228,-3.0824,0.7490,1.2368,0.9385,-0.2332,0.0214,
2.578266,-0.1055,-0.7276,-0.1228,-2.9796,0.8071,0.9108,0.9385,-0.2332,0.0214,
2.614756,-0.1055,-0.7276,-0.1228,-2.9796,0.8071,0.9108,0.7745,-0.1619,-0.1789,
2.617059,-0.1055,-0.7276,-0.1228,-3.2736,1.8254,-0.0136,0.7745,-0.1619,-0.1789,
2.618747,-0.0730,-0.6565,-0.1685,-3.2736,1.8254,-0.0136,0.7745,-0.1619,-0.1789,
2.620146,0.0325,-0.7738,-0.2101,-3.2736,1.8254,-0.0136,0.7745,-0.1619,-0.1789,
2.621241,0.0997,-1.1312,-0.3422,-3.2736,1.8254,-0.0136,0.7745,-0.1619,-0.1789,
2.622139,0.1601,-1.4557,-0.4641,-3.2736,1.8254,-0.0136,0.7745,-0.1619,-0.1789,
2.654289,0.1601,-1.4557,-0.4641,-3.2736,1.8254,-0.0136,0.1673,-0.2854,-0.2950,
2.655872,0.1601,-1.4557,-0.4641,-3.2774,1.7588,-0.0394,0.1673,-0.2854,-0.2950,
2.693772,0.1601,-1.4557,-0.4641,-3.2774,1.7588,-0.0394,-0.1662,-0.1459,-0.2993,
2.695571,0.1601,-1.4557,-0.4641,-1.2001,-4.1439,-2.7909,-0.1662,-0.1459,-0.2993,
2.696549,0.2502,-1.3953,-0.5809,-1.2001,-4.1439,-2.7909,-0.1662,-0.1459,-0.2993,
2.697636,0.3147,-1.0802,-0.3459,-1.2001,-4.1439,-2.7909,-0.1662,-0.1459,-0.2993,
2.698543,0.3020,-0.8637,-0.1456,-1.2001,-4.1439,-2.7909,-0.1662,-0.1459,-0.2993,
2.699425,0.1696,-0.9409,-0.2726,-1.2001,-4.1439,-2.7909,-0.1662,-0.1459,-0.2993,
2.733137,0.1696,-0.9409,-0.2726,-1.2001,-4.1439,-2.7909,0.1502,-0.4846,-0.2514,
2.735259,0.1696,-0.9409,-0.2726,-0.3439,-0.5640,-0.7345,0.1502,-0.4846,-0.2514,
2.772752,0.1696,-0.9409,-0.2726,-0.3439,-0.5640,-0.7345,-0.0458,-0.7840,-0.0085,
2.774949,0.1696,-0.9409,-0.2726,0.2626,-1.3876,-1.9160,-0.0458,-0.7840,-0.0085,
2.776352,0.0909,-1.1002,-0.4089,0.2626,-1.3876,-1.9160,-0.0458,-0.7840,-0.0085,
2.777863,0.2932,-1.0985,-0.4851,0.2626,-1.3876,-1.9160,-0.0458,-0.7840,-0.0085,
2.779102,0.5734,-0.9468,-0.2777,0.2626,-1.3876,-1.9160,-0.0458,-0.7840,-0.0085,
2.780354,0.5886,-0.8129,-0.1893,0.2626,-1.3876,-1.9160,-0.0458,-0.7840,-0.0085,
2.813167,0.5886,-0.8129,-0.1893,0.2339,-1.3913,-1.7471,-0.0458,-0.7840,-0.0085,
2.815335,0.5886,-0.8129,-0.1893,0.2339,-1.3913,-1.7471,-0.1449,-0.6796,-0.2173,
2.852515,0.5886,-0.8129,-0.1893,0.2339,-1.3913,-1.7471,0.2046,-0.5241,-0.2929,
2.854794,0.5886,-0.8129,-0.1893,0.8313,0.2218,-0.0010,0.2046,-0.5241,-0.2929,
2.858112,0.2942,-0.8618,-0.2523,0.8313,0.2218,-0.0010,0.2046,-0.5241,-0.2929,
2.859984,0.2817,-0.9702,-0.1922,0.8313,0.2218,-0.0010,0.2046,-0.5241,-0.2929,
2.861241,0.3929,-1.0538,-0.1951,0.8313,0.2218,-0.0010,0.2046,-0.5241,-0.2929,
2.862517,0.3211,-1.0838,-0.3019,0.8313,0.2218,-0.0010,0.2046,-0.5241,-0.2929,
2.893115,0.3211,-1.0838,-0.3019,0.8313,0.2218,-0.0010,0.1854,-0.0032,-0.1033,
2.895209,0.3211,-1.0838,-0.3019,0.7778,0.2196,-0.0643,0.1854,-0.0032,-0.1033,
2.931570,0.3211,-1.0838,-0.3019,0.7778,0.2196,-0.0643,0.2259,0.2653,0.2600,
2.933557,0.3211,-1.0838,-0.3019,0.1379,-1.3743,-0.8843,0.2259,0.2653,0.2600,
2.935183,0.2338,-1.0193,-0.3598,0.1379,-1.3743,-0.8843,0.2259,0.2653,0.2600,
2.936661,0.2514,-0.9876,-0.1866,0.1379,-1.3743,-0.8843,0.2259,0.2653,0.2600,
2.938284,0.2861,-1.0364,-0.1495,0.1379,-1.3743,-0.8843,0.2259,0.2653,0.2600,
2.939691,0.3462,-1.0323,-0.2218,0.1379,-1.3743,-0.8843,0.2259,0.2653,0.2600,
2.971093,0.3462,-1.0323,-0.2218,0.1379,-1.3743,-0.8843,0.5934,0.4762,0.3356,
2.973302,0.3462,-1.0323,-0.2218,0.0143,-0.9443,-0.1700,0.5934,0.4762,0.3356,
3.014178,0.3462,-1.0323,-0.2218,0.0143,-0.9443,-0.1700,0.8000,0.3782,0.3846,
3.016096,0.3462,-1.0323,-0.2218,0.6347,0.3482,-0.7743,0.8000,0.3782,0.3846,
3.017576,0.3751,-0.9783,-0.2421,0.6347,0.3482,-0.7743,0.8000,0.3782,0.3846,
3.018987,0.3457,-0.8896,-0.2054,0.6347,0.3482,-0.7743,0.8000,0.3782,0.3846,
3.020350,0.3216,-0.8180,-0.1993,0.6347,0.3482,-0.7743,0.8000,0.3782,0.3846,
3.021847,0.3335,-0.7521,-0.1702,0.6347,0.3482,-0.7743,0.8000,0.3782,0.3846,
3.049921,0.3335,-0.7521,-0.1702,0.6347,0.3482,-0.7743,0.8213,-0.1768,0.5338,
3.051593,0.3335,-0.7521,-0.1702,0.8190,0.4343,-1.0323,0.8213,-0.1768,0.5338,
3.090171,0.3335,-0.7521,-0.1702,0.8190,0.4343,-1.0323,0.5934,-0.3600,0.4603,
3.093292,0.3335,-0.7521,-0.1702,0.7607,1.6506,-1.0088,0.5934,-0.3600,0.4603,
3.095013,0.3284,-0.7545,-0.2435,0.7607,1.6506,-1.0088,0.5934,-0.3600,0.4603,
3.096475,0.3115,-0.8175,-0.1766,0.7607,1.6506,-1.0088,0.5934,-0.3600,0.4603,
3.097853,0.3211,-0.8239,-0.1114,0.7607,1.6506,-1.0088,0.5934,-0.3600,0.4603,
3.098937,0.2321,-0.8835,-0.1905,0.7607,1.6506,-1.0088,0.5934,-0.3600,0.4603,
3.130994,0.2321,-0.8835,-0.1905,0.7607,1.6506,-1.0088,0.3643,-0.1619,0.2845,
3.132797,0.2321,-0.8835,-0.1905,0.8529,1.6552,-1.1044,0.3643,-0.1619,0.2845,
3.167249,0.1823,-0.9705,-0.2115,0.8529,1.6552,-1.1044,0.3643,-0.1619,0.2845,
3.170292,0.1874,-1.0071,-0.1507,0.8529,1.6552,-1.1044,0.3643,-0.1619,0.2845,
3.171888,0.1979,-1.0069,-0.0491,0.8529,1.6552,-1.1044,0.3643,-0.1619,0.2845,
3.173303,0.1979,-1.0069,-0.0491,0.1573,0.5095,-0.8292,0.3643,-0.1619,0.2845,
3.175499,0.1979,-1.0069,-0.0491,0.1573,0.5095,-0.8292,-0.0479,0.1194,0.2419,
3.210401,0.1979,-1.0069,-0.0491,-0.2470,-0.4996,0.3264,-0.0479,0.1194,0.2419,
3.212517,0.1979,-1.0069,-0.0491,-0.2470,-0.4996,0.3264,-0.2546,0.1992,0.1652,
3.250036,0.1979,-1.0069,-0.0491,-0.2454,-0.5025,0.4334,-0.2546,0.1992,0.1652,
3.253774,0.1979,-1.0069,-0.0491,-0.2454,-0.5025,0.4334,-0.3781,0.2685,0.0192,
3.255470,0.2084,-0.9776,0.0189,-0.2454,-0.5025,0.4334,-0.3781,0.2685,0.0192,
3.256804,0.1830,-0.9849,0.0176,-0.2454,-0.5025,0.4334,-0.3781,0.2685,0.0192,
3.258169,0.1913,-0.9837,0.0169,-0.2454,-0.5025,0.4334,-0.3781,0.2685,0.0192,
3.259437,0.2062,-0.9849,0.0269,-0.2454,-0.5025,0.4334,-0.3781,0.2685,0.0192,
3.260529,0.1386,-1.0152,0.0035,-0.2454,-0.5025,0.4334,-0.3781,0.2685,0.0192,
3.291858,0.1386,-1.0152,0.0035,-0.2454,-0.5025,0.4334,-0.5465,0.5252,-0.1054,
3.293353,0.1386,-1.0152,0.0035,-0.3434,-0.4033,1.3529,-0.5465,0.5252,-0.1054,
3.328290,0.1386,-1.0152,0.0035,-0.3434,-0.4033,1.3529,-0.9843,1.1164,-0.0500,
3.330417,0.1386,-1.0152,0.0035,-1.5366,-0.5588,0.2557,-0.9843,1.1164,-0.0500,
3.331959,0.0445,-1.0020,-0.1324,-1.5366,-0.5588,0.2557,-0.9843,1.1164,-0.0500,
3.333194,0.0462,-0.9705,-0.2232,-1.5366,-0.5588,0.2557,-0.9843,1.1164,-0.0500,
3.334374,0.1530,-0.9258,-0.2225,-1.5366,-0.5588,0.2557,-0.9843,1.1164,-0.0500,
3.335696,0.2832,-0.8552,-0.2467,-1.5366,-0.5588,0.2557,-0.9843,1.1164,-0.0500,
3.366605,0.2832,-0.8552,-0.2467,-1.6574,-0.6606,0.6672,-0.9843,1.1164,-0.0500,
3.368020,0.2832,-0.8552,-0.2467,-1.6574,-0.6606,0.6672,-1.4828,1.2102,-0.2087,
3.406862,0.2832,-0.8552,-0.2467,-0.0141,0.5564,-0.1108,-1.4828,1.2102,-0.2087,
3.408879,0.2832,-0.8552,-0.2467,-0.0141,0.5564,-0.1108,-1.4072,0.6978,-0.5464,
3.410735,0.3729,-0.7794,-0.2545,-0.0141,0.5564,-0.1108,-1.4072,0.6978,-0.5464,
3.412082,0.3658,-0.7504,-0.1966,-0.0141,0.5564,-0.1108,-1.4072,0.6978,-0.5464,
3.413247,0.2627,-0.7672,-0.2162,-0.0141,0.5564,-0.1108,-1.4072,0.6978,-0.5464,
3.414548,0.1559,-0.8151,-0.2907,-0.0141,0.5564,-0.1108,-1.4072,0.6978,-0.5464,
3.446823,0.1559,-0.8151,-0.2907,-0.0141,0.5564,-0.1108,-0.9523,-0.0767,-0.3888,
3.449232,0.1559,-0.8151,-0.2907,-0.2188,1.1457,0.2929,-0.9523,-0.0767,-0.3888,
3.487103,0.1559,-0.8151,-0.2907,-0.2188,1.1457,0.2929,-0.7552,-0.4314,-0.1022,
3.489521,0.1559,-0.8151,-0.2907,-0.5833,0.1737,-0.5436,-0.7552,-0.4314,-0.1022,
3.490911,0.1420,-0.8664,-0.3090,-0.5833,0.1737,-0.5436,-0.7552,-0.4314,-0.1022,
3.492237,0.2150,-0.8784,-0.3767,-0.5833,0.1737,-0.5436,-0.7552,-0.4314,-0.1022,
3.493345,0.3088,-0.8559,-0.3713,-0.5833,0.1737,-0.5436,-0.7552,-0.4314,-0.1022,
3.494648,0.2915,-0.8671,-0.2921,-0.5833,0.1737,-0.5436,-0.7552,-0.4314,-0.1022,
3.526409,0.2915,-0.8671,-0.2921,-0.5833,0.1737,-0.5436,-0.4570,-0.3771,-0.0862,
3.528737,0.2915,-0.8671,-0.2921,-0.5577,0.1079,-0.3398,-0.4570,-0.3771,-0.0862,
3.565915,0.2915,-0.8671,-0.2921,-0.5577,0.1079,-0.3398,0.1321,-0.5134,0.0373,
3.568473,0.2915,-0.8671,-0.2921,-0.4994,-0.7482,-0.3603,0.1321,-0.5134,0.0373,
3.570994,0.1965,-0.9519,-0.3447,-0.4994,-0.7482,-0.3603,0.1321,-0.5134,0.0373,
3.572228,0.1696,-1.0540,-0.4314,-0.4994,-0.7482,-0.3603,0.1321,-0.5134,0.0373,
3.573194,0.2018,-1.1190,-0.5457,-0.4994,-0.7482,-0.3603,0.1321,-0.5134,0.0373,
3.574526,0.2101,-1.1312,-0.6007,-0.4994,-0.7482,-0.3603,0.1321,-0.5134,0.0373,
3.606038,0.2101,-1.1312,-0.6007,-0.4994,-0.7482,-0.3603,0.2163,-0.3547,0.0395,
3.608754,0.2101,-1.1312,-0.6007,-0.4343,-0.7048,-0.3907,0.2163,-0.3547,0.0395,
3.645054,0.2101,-1.1312,-0.6007,-0.4343,-0.7048,-0.3907,0.4570,-0.0234,-0.0884,
3.647997,0.2101,-1.1312,-0.6007,-0.6138,-2.1850,-2.4478,0.4570,-0.0234,-0.0884,
3.649297,0.1957,-1.1017,-0.5171,-0.6138,-2.1850,-2.4478,0.4570,-0.0234,-0.0884,
3.650537,0.2150,-1.0325,-0.3554,-0.6138,-2.1850,-2.4478,0.4570,-0.0234,-0.0884,
3.651711,0.1647,-0.9082,-0.1964,-0.6138,-2.1850,-2.4478,0.4570,-0.0234,-0.0884,
3.652953,0.0975,-0.7814,-0.0806,-0.6138,-2.1850,-2.4478,0.4570,-0.0234,-0.0884,
3.683384,0.0975,-0.7814,-0.0806,-0.6138,-2.1850,-2.4478,1.1196,-0.1044,-0.1033,
3.684523,0.0975,-0.7814,-0.0806,-1.0465,-0.0140,0.5309,1.1196,-0.1044,-0.1033,
3.724768,0.0975,-0.7814,-0.0806,-1.0465,-0.0140,0.5309,1.7268,-0.2769,-0.0138,
3.727427,0.0975,-0.7814,-0.0806,-2.1909,1.8546,1.8764,1.7268,-0.2769,-0.0138,
3.728746,0.0286,-0.6900,0.0277,-2.1909,1.8546,1.8764,1.7268,-0.2769,-0.0138,
3.729960,0.0084,-0.7052,0.0286,-2.1909,1.8546,1.8764,1.7268,-0.2769,-0.0138,
3.731126,0.0724,-0.7931,-0.0881,-2.1909,1.8546,1.8764,1.7268,-0.2769,-0.0138,
3.732793,0.1923,-0.8561,-0.2064,-2.1909,1.8546,1.8764,1.7268,-0.2769,-0.0138,
3.763919,0.1923,-0.8561,-0.2064,-2.1795,1.9303,1.2268,1.7268,-0.2769,-0.0138,
3.766513,0.1923,-0.8561,-0.2064,-2.1795,1.9303,1.2268,1.7907,-0.1427,-0.0980,
3.805541,0.1923,-0.8561,-0.2064,-2.1795,1.9303,1.2268,1.2293,0.3537,-0.4676,
3.807959,0.1923,-0.8561,-0.2064,-0.4527,0.5421,-1.6422,1.2293,0.3537,-0.4676,
3.809314,0.2878,-0.8720,-0.2814,-0.4527,0.5421,-1.6422,1.2293,0.3537,-0.4676,
3.810564,0.2114,-0.8838,-0.2841,-0.4527,0.5421,-1.6422,1.2293,0.3537,-0.4676,
3.811860,-0.0100,-1.0995,-0.3019,-0.4527,0.5421,-1.6422,1.2293,0.3537,-0.4676,
3.812934,-0.0674,-1.4071,-0.4886,-0.4527,0.5421,-1.6422,1.2293,0.3537,-0.4676,
3.843503,-0.0674,-1.4071,-0.4886,-0.5771,0.5063,-1.7698,1.2293,0.3537,-0.4676,
3.845955,-0.0674,-1.4071,-0.4886,-0.5771,0.5063,-1.7698,0.2589,0.5838,-0.3238,
3.884381,-0.0674,-1.4071,-0.4886,-0.5771,0.5063,-1.7698,-0.4442,0.0970,0.1396,
3.886937,-0.0674,-1.4071,-0.4886,-2.5881,-3.5952,-3.3054,-0.4442,0.0970,0.1396,
3.888367,0.1254,-1.3799,-0.5140,-2.5881,-3.5952,-3.3054,-0.4442,0.0970,0.1396,
3.889652,0.2698,-1.1178,-0.5511,-2.5881,-3.5952,-3.3054,-0.4442,0.0970,0.1396,
3.891098,0.1400,-0.9580,-0.4109,-2.5881,-3.5952,-3.3054,-0.4442,0.0970,0.1396,
3.892330,0.1784,-0.8237,0.0838,-2.5881,-3.5952,-3.3054,-0.4442,0.0970,0.1396,
3.922586,0.1784,-0.8237,0.0838,-2.5881,-3.5952,-3.3054,-0.2343,-0.6018,0.3431,
3.925081,0.1784,-0.8237,0.0838,-0.6636,-0.3384,-1.7353,-0.2343,-0.6018,0.3431,
3.963695,0.1784,-0.8237,0.0838,-0.6636,-0.3384,-1.7353,-0.1363,-0.5305,0.1907,
3.966366,0.1784,-0.8237,0.0838,0.7207,-1.4416,-2.1005,-0.1363,-0.5305,0.1907,
3.967761,0.3360,-0.8820,-0.1370,0.7207,-1.4416,-2.1005,-0.1363,-0.5305,0.1907,
3.969096,0.3079,-1.1569,-0.5809,0.7207,-1.4416,-2.1005,-0.1363,-0.5305,0.1907,
3.970101,0.3431,-1.2097,-0.3144,0.7207,-1.4416,-2.1005,-0.1363,-0.5305,0.1907,
3.971302,0.4112,-1.0157,0.0277,0.7207,-1.4416,-2.1005,-0.1363,-0.5305,0.1907,
4.001713,0.4112,-1.0157,0.0277,0.7207,-1.4416,-2.1005,-0.0650,-0.1193,0.0363,
4.004076,0.4112,-1.0157,0.0277,0.7276,-1.4173,-2.0307,-0.0650,-0.1193,0.0363,
4.041901,0.4112,-1.0157,0.0277,0.7276,-1.4173,-2.0307,0.1864,0.3654,0.2823,
4.044254,0.4112,-1.0157,0.0277,-0.1400,-0.5043,-0.0434,0.1864,0.3654,0.2823,
4.045684,0.1906,-0.9624,-0.1409,-0.1400,-0.5043,-0.0434,0.1864,0.3654,0.2823,
4.046917,0.0929,-1.0049,-0.2792,-0.1400,-0.5043,-0.0434,0.1864,0.3654,0.2823,
4.048671,0.2803,-1.0174,-0.1392,-0.1400,-0.5043,-0.0434,0.1864,0.3654,0.2823,
4.049881,0.4080,-0.9988,-0.0029,-0.1400,-0.5043,-0.0434,0.1864,0.3654,0.2823,
4.081333,0.4080,-0.9988,-0.0029,-0.1400,-0.5043,-0.0434,0.4208,0.4837,0.3782,
4.083834,0.4080,-0.9988,-0.0029,-0.0226,-0.4425,-0.2391,0.4208,0.4837,0.3782,
4.120969,0.4080,-0.9988,-0.0029,-0.0226,-0.4425,-0.2391,0.6104,0.4634,0.3132,
4.123504,0.4080,-0.9988,-0.0029,1.5151,-0.3807,-0.1780,0.6104,0.4634,0.3132,
4.124914,0.4547,-0.9651,-0.1509,1.5151,-0.3807,-0.1780,0.6104,0.4634,0.3132,
4.126091,0.3914,-0.9636,-0.2411,1.5151,-0.3807,-0.1780,0.6104,0.4634,0.3132,
4.127379,0.3374,-0.9754,-0.1475,1.5151,-0.3807,-0.1780,0.6104,0.4634,0.3132,
4.129349,0.3631,-0.9920,-0.1128,1.5151,-0.3807,-0.1780,0.6104,0.4634,0.3132,
4.160438,0.3631,-0.9920,-0.1128,1.5151,-0.3807,-0.1780,0.7702,0.5337,0.3708,
4.163108,0.3631,-0.9920,-0.1128,1.4486,-0.1631,-1.1711,0.7702,0.5337,0.3708,
4.199783,0.3631,-0.9920,-0.1128,1.4486,-0.1631,-1.1711,0.7137,0.6307,0.4517,
4.202454,0.3631,-0.9920,-0.1128,1.5455,0.3518,-1.3025,0.7137,0.6307,0.4517,
4.203795,0.3474,-0.9998,-0.1490,1.5455,0.3518,-1.3025,0.7137,0.6307,0.4517,
4.205214,0.3435,-0.9421,-0.1595,1.5455,0.3518,-1.3025,0.7137,0.6307,0.4517,
4.206450,0.3892,-0.8434,-0.1426,1.5455,0.3518,-1.3025,0.7137,0.6307,0.4517,
4.207868,0.4036,-0.8676,-0.1192,1.5455,0.3518,-1.3025,0.7137,0.6307,0.4517,
4.239563,0.4036,-0.8676,-0.1192,1.5455,0.3518,-1.3025,0.5572,0.2525,0.5274,
4.242250,0.4036,-0.8676,-0.1192,1.7136,0.3858,-1.5051,0.5572,0.2525,0.5274,
4.279368,0.3770,-0.9267,-0.0806,1.7136,0.3858,-1.5051,0.5572,0.2525,0.5274,
4.281874,0.3018,-0.9138,-0.0124,1.7136,0.3858,-1.5051,0.5572,0.2525,0.5274,
4.283142,0.2346,-0.9045,0.0323,1.7136,0.3858,-1.5051,0.5572,0.2525,0.5274,
4.284386,0.2346,-0.9045,0.0323,1.7136,0.3858,-1.5051,0.4687,0.1460,0.3132,
4.285931,0.2346,-0.9045,0.0323,1.8087,0.6465,-0.8960,0.4687,0.1460,0.3132,
4.319119,0.2346,-0.9045,0.0323,1.8087,0.6465,-0.8960,0.3249,0.1865,0.2163,
4.321594,0.2346,-0.9045,0.0323,0.3994,0.5453,0.0356,0.3249,0.1865,0.2163,
4.358799,0.2346,-0.9045,0.0323,0.3994,0.5453,0.0356,-0.0138,0.0778,0.1748,
4.361287,0.2346,-0.9045,0.0323,0.4585,0.5475,0.0352,-0.0138,0.0778,0.1748,
4.362627,0.2045,-0.9131,0.0452,0.4585,0.5475,0.0352,-0.0138,0.0778,0.1748,
4.363830,0.1884,-0.9221,0.0369,0.4585,0.5475,0.0352,-0.0138,0.0778,0.1748,
4.365154,0.2312,-0.9485,0.0751,0.4585,0.5475,0.0352,-0.0138,0.0778,0.1748,
4.366248,0.2749,-1.0018,0.1293,0.4585,0.5475,0.0352,-0.0138,0.0778,0.1748,
4.367727,0.2585,-1.0264,0.0553,0.4585,0.5475,0.0352,-0.0138,0.0778,0.1748,
4.398965,0.2585,-1.0264,0.0553,0.4585,0.5475,0.0352,-0.2556,0.0384,-0.0244,
4.401569,0.2585,-1.0264,0.0553,0.8825,-0.2215,0.5930,-0.2556,0.0384,-0.0244,
4.438209,0.2585,-1.0264,0.0553,0.8825,-0.2215,0.5930,-0.5379,0.0874,-0.0500,
4.440543,0.2585,-1.0264,0.0553,-0.0346,0.3779,-0.2088,-0.5379,0.0874,-0.0500,
4.442102,0.2026,-1.0047,-0.0178,-0.0346,0.3779,-0.2088,-0.5379,0.0874,-0.0500,
4.443207,0.1515,-0.9351,-0.0163,-0.0346,0.3779,-0.2088,-0.5379,0.0874,-0.0500,
4.444968,0.1351,-0.8515,-0.0131,-0.0346,0.3779,-0.2088,-0.5379,0.0874,-0.0500,
4.446264,0.1530,-0.8007,-0.0456,-0.0346,0.3779,-0.2088,-0.5379,0.0874,-0.0500,
4.477586,0.1530,-0.8007,-0.0456,-0.0462,0.3666,0.0902,-0.5379,0.0874,-0.0500,
4.480016,0.1530,-0.8007,-0.0456,-0.0462,0.3666,0.0902,-0.7691,-0.1736,-0.0351,
4.517695,0.1530,-0.8007,-0.0456,-0.0462,0.3666,0.0902,-0.9023,-0.5283,-0.2514,
4.520022,0.1530,-0.8007,-0.0456,0.2351,1.5185,-0.0308,-0.9023,-0.5283,-0.2514,
4.521343,0.2016,-0.7929,-0.0718,0.2351,1.5185,-0.0308,-0.9023,-0.5283,-0.2514,
4.522615,0.2480,-0.8273,-0.0815,0.2351,1.5185,-0.0308,-0.9023,-0.5283,-0.2514,
4.523856,0.2072,-0.9441,-0.1377,0.2351,1.5185,-0.0308,-0.9023,-0.5283,-0.2514,
4.525178,0.0975,-1.0391,-0.2274,0.2351,1.5185,-0.0308,-0.9023,-0.5283,-0.2514,
4.556408,0.0975,-1.0391,-0.2274,0.2351,1.5185,-0.0308,-1.1782,-0.5912,-0.4143,
4.558890,0.0975,-1.0391,-0.2274,0.0992,1.4246,0.4425,-1.1782,-0.5912,-0.4143,
4.596382,0.0975,-1.0391,-0.2274,0.0992,1.4246,0.4425,-1.6714,-0.3856,-0.5134,
4.598943,0.0975,-1.0391,-0.2274,-0.8191,-0.6752,-0.3003,-1.6714,-0.3856,-0.5134,
4.600474,0.0638,-1.0430,-0.2599,-0.8191,-0.6752,-0.3003,-1.6714,-0.3856,-0.5134,
4.603316,0.1300,-1.0474,-0.2599,-0.8191,-0.6752,-0.3003,-1.6714,-0.3856,-0.5134,
4.604959,0.1325,-1.1207,-0.3334,-0.8191,-0.6752,-0.3003,-1.6714,-0.3856,-0.5134,
4.606584,0.0687,-1.2143,-0.3857,-0.8191,-0.6752,-0.3003,-1.6714,-0.3856,-0.5134,
4.635691,0.0687,-1.2143,-0.3857,-0.8191,-0.6752,-0.3003,-1.8802,-0.1885,-0.6210,
4.638346,0.0687,-1.2143,-0.3857,-1.1312,-2.0129,-0.7492,-1.8802,-0.1885,-0.6210,
4.675065,0.0687,-1.2143,-0.3857,-1.1312,-2.0129,-0.7492,-1.4541,-0.3632,-0.4037,
4.676358,0.0687,-1.2143,-0.3857,-0.8162,-3.2537,0.3788,-1.4541,-0.3632,-0.4037,
4.676950,0.0609,-1.2944,-0.3903,-0.8162,-3.2537,0.3788,-1.4541,-0.3632,-0.4037,
4.677542,0.1564,-1.2490,-0.2748,-0.8162,-3.2537,0.3788,-1.4541,-0.3632,-0.4037,
4.678091,0.2378,-1.1767,-0.1343,-0.8162,-3.2537,0.3788,-1.4541,-0.3632,-0.4037,
4.678617,0.2825,-1.1249,-0.1649,-0.8162,-3.2537,0.3788,-1.4541,-0.3632,-0.4037,
4.715086,0.2825,-1.1249,-0.1649,-0.8162,-3.2537,0.3788,-0.5795,-0.6231,-0.3249,
4.717059,0.2825,-1.1249,-0.1649,-0.8379,-3.2992,0.6290,-0.5795,-0.6231,-0.3249,
4.755729,0.2825,-1.1249,-0.1649,-0.8379,-3.2992,0.6290,-0.1299,-0.6828,-0.3504,
4.758604,0.1801,-1.1149,-0.2570,-0.8379,-3.2992,0.6290,-0.1299,-0.6828,-0.3504,
4.759747,0.0430,-1.1014,-0.3183,-0.8379,-3.2992,0.6290,-0.1299,-0.6828,-0.3504,
4.761418,0.0162,-1.0323,-0.3161,-0.8379,-3.2992,0.6290,-0.1299,-0.6828,-0.3504,
4.762545,0.0460,-0.9502,-0.2841,-0.8379,-3.2992,0.6290,-0.1299,-0.6828,-0.3504,
4.763640,0.0460,-0.9502,-0.2841,-0.6940,-2.0756,0.9162,-0.1299,-0.6828,-0.3504,
4.794560,0.0460,-0.9502,-0.2841,-0.6940,-2.0756,0.9162,0.0501,-0.2045,-0.2950,
4.797145,0.0460,-0.9502,-0.2841,-0.7573,-2.0619,0.9025,0.0501,-0.2045,-0.2950,
4.834425,0.0460,-0.9502,-0.2841,-0.7573,-2.0619,0.9025,0.3697,0.2259,-0.3632,
4.836787,0.0460,-0.9502,-0.2841,-2.0623,-0.4495,0.4231,0.3697,0.2259,-0.3632,
4.838286,0.0812,-0.8710,-0.2379,-2.0623,-0.4495,0.4231,0.3697,0.2259,-0.3632,
4.839555,0.1090,-0.7609,-0.1798,-2.0623,-0.4495,0.4231,0.3697,0.2259,-0.3632,
4.840917,0.1156,-0.6487,-0.1536,-2.0623,-0.4495,0.4231,0.3697,0.2259,-0.3632,
4.842181,0.1036,-0.5691,-0.1978,-2.0623,-0.4495,0.4231,0.3697,0.2259,-0.3632,
4.873878,0.1036,-0.5691,-0.1978,-2.0623,-0.4495,0.4231,0.6328,0.2429,-0.4665,
4.876661,0.1036,-0.5691,-0.1978,-1.6243,2.3954,1.1577,0.6328,0.2429,-0.4665,
4.912951,0.1132,-0.5004,-0.2435,-1.6243,2.3954,1.1577,0.6328,0.2429,-0.4665,
4.915680,0.1391,-0.4816,-0.2567,-1.6243,2.3954,1.1577,0.6328,0.2429,-0.4665,
4.917015,0.1992,-0.5530,-0.3039,-1.6243,2.3954,1.1577,0.6328,0.2429,-0.4665,
4.918392,0.1992,-0.5530,-0.3039,-1.6243,2.3954,1.1577,0.5508,0.0267,-0.4580,
4.919600,0.1992,-0.5530,-0.3039,-1.3630,3.7909,0.0687,0.5508,0.0267,-0.4580,
4.952803,0.1992,-0.5530,-0.3039,-1.3630,3.7909,0.0687,0.0820,0.0096,-0.5219,
4.956086,0.1992,-0.5530,-0.3039,-0.4816,-0.9126,-2.6613,0.0820,0.0096,-0.5219,
4.993402,0.1992,-0.5530,-0.3039,-0.4816,-0.9126,-2.6613,0.0149,0.1907,-0.3035,
4.995919,0.1992,-0.5530,-0.3039,-0.5972,-0.9321,-2.6450,0.0149,0.1907,-0.3035,
4.997124,0.2698,-0.7315,-0.4727,-0.5972,-0.9321,-2.6450,0.0149,0.1907,-0.3035,
4.998530,0.2820,-0.9861,-0.6928,-0.5972,-0.9321,-2.6450,0.0149,0.1907,-0.3035,
4.999633,0.2229,-1.2461,-0.4790,-0.5972,-0.9321,-2.6450,0.0149,0.1907,-0.3035,
5.001321,0.1669,-1.3367,-0.2916,-0.5972,-0.9321,-2.6450,0.0149,0.1907,-0.3035,
5.002548,0.0088,-1.1943,-0.3637,-0.5972,-0.9321,-2.6450,0.0149,0.1907,-0.3035,
5.032116,0.0088,-1.1943,-0.3637,-0.5972,-0.9321,-2.6450,0.4794,0.0384,0.2344,
5.034614,0.0088,-1.1943,-0.3637,-0.5109,-0.8390,-2.7698,0.4794,0.0384,0.2344,
5.071996,0.0088,-1.1943,-0.3637,-0.5109,-0.8390,-2.7698,0.4741,0.3292,0.2706,
5.074531,0.0088,-1.1943,-0.3637,-2.0565,-2.8283,-0.3341,0.4741,0.3292,0.2706,
5.075893,0.0958,-1.0807,-0.1822,-2.0565,-2.8283,-0.3341,0.4741,0.3292,0.2706,
5.077120,0.3431,-1.1730,-0.2743,-2.0565,-2.8283,-0.3341,0.4741,0.3292,0.2706,
5.078560,0.4706,-1.1745,-0.4502,-2.0565,-2.8283,-0.3341,0.4741,0.3292,0.2706,
5.079751,0.2996,-0.9128,-0.2587,-2.0565,-2.8283,-0.3341,0.4741,0.3292,0.2706,
5.112035,0.2996,-0.9128,-0.2587,-2.0565,-2.8283,-0.3341,0.5231,0.5327,-0.0351,
5.114516,0.2996,-0.9128,-0.2587,0.6218,-1.6104,-1.0410,0.5231,0.5327,-0.0351,
5.151515,0.0355,-0.7499,-0.1602,0.6218,-1.6104,-1.0410,0.5231,0.5327,-0.0351,
5.154105,-0.0381,-0.7745,-0.1565,0.6218,-1.6104,-1.0410,0.5231,0.5327,-0.0351,
5.155480,0.0396,-0.9077,-0.1211,0.6218,-1.6104,-1.0410,0.5231,0.5327,-0.0351,
5.156679,0.0396,-0.9077,-0.1211,0.6218,-1.6104,-1.0410,0.5039,-0.2546,0.1779,
5.158022,0.0396,-0.9077,-0.1211,-2.7622,1.1385,0.5792,0.5039,-0.2546,0.1779,
5.191884,0.0396,-0.9077,-0.1211,-2.7622,1.1385,0.5792,0.0043,0.2962,0.3271,
5.194332,0.0396,-0.9077,-0.1211,-1.0840,-0.9606,0.1423,0.0043,0.2962,0.3271,
5.231420,0.0396,-0.9077,-0.1211,-1.0840,-0.9606,0.1423,-0.1885,0.8384,0.3953,
5.234093,0.0396,-0.9077,-0.1211,-0.9890,-0.9169,0.1182,-0.1885,0.8384,0.3953,
5.235382,0.1249,-1.0396,-0.1917,-0.9890,-0.9169,0.1182,-0.1885,0.8384,0.3953,
5.236606,0.1637,-1.0577,-0.2008,-0.9890,-0.9169,0.1182,-0.1885,0.8384,0.3953,
5.238012,0.2275,-0.9937,-0.1678,-0.9890,-0.9169,0.1182,-0.1885,0.8384,0.3953,
5.239106,0.3069,-0.9013,-0.1341,-0.9890,-0.9169,0.1182,-0.1885,0.8384,0.3953,
5.240302,0.4591,-0.8087,-0.0090,-0.9890,-0.9169,0.1182,-0.1885,0.8384,0.3953,
5.269548,0.4591,-0.8087,-0.0090,-0.9890,-0.9169,0.1182,-0.1608,0.7702,0.3282,
5.273598,0.4591,-0.8087,-0.0090,-0.9131,-0.8799,0.0944,-0.1608,0.7702,0.3282,
5.310077,0.4591,-0.8087,-0.0090,-0.9131,-0.8799,0.0944,0.2109,0.7021,0.0299,
5.312938,0.4591,-0.8087,-0.0090,1.8227,0.8982,1.2333,0.2109,0.7021,0.0299,
5.315274,0.6096,-0.8376,-0.0163,1.8227,0.8982,1.2333,0.2109,0.7021,0.0299,
5.316561,0.5358,-0.9927,-0.1746,1.8227,0.8982,1.2333,0.2109,0.7021,0.0299,
5.317984,0.4523,-1.1029,-0.1802,1.8227,0.8982,1.2333,0.2109,0.7021,0.0299,
5.319217,0.4603,-1.1070,-0.1084,1.8227,0.8982,1.2333,0.2109,0.7021,0.0299,
5.348992,0.4603,-1.1070,-0.1084,1.8227,0.8982,1.2333,0.5177,0.4879,0.0555,
5.351715,0.4603,-1.1070,-0.1084,2.0148,-1.1821,-0.0009,0.5177,0.4879,0.0555,
5.388846,0.4044,-0.9937,-0.0884,2.0148,-1.1821,-0.0009,0.5177,0.4879,0.0555,
5.391329,0.3257,-0.9221,-0.1336,2.0148,-1.1821,-0.0009,0.5177,0.4879,0.0555,
5.392573,0.2585,-0.9800,-0.1712,2.0148,-1.1821,-0.0009,0.5177,0.4879,0.0555,
5.393586,0.2585,-0.9800,-0.1712,2.0148,-1.1821,-0.0009,0.6296,0.3122,0.2419,
5.394845,0.2585,-0.9800,-0.1712,0.5751,-0.1176,-0.0369,0.6296,0.3122,0.2419,
5.429139,0.2585,-0.9800,-0.1712,0.5751,-0.1176,-0.0369,0.7297,0.2355,0.4155,
5.431642,0.2585,-0.9800,-0.1712,1.0038,0.2540,-0.2403,0.7297,0.2355,0.4155,
5.468199,0.2585,-0.9800,-0.1712,1.0038,0.2540,-0.2403,0.7233,0.1982,0.4570,
5.470515,0.2585,-0.9800,-0.1712,1.1491,0.3162,-0.5216,0.7233,0.1982,0.4570,
5.472846,0.3284,-0.9947,-0.1346,1.1491,0.3162,-0.5216,0.7233,0.1982,0.4570,
5.474034,0.3900,-0.9202,-0.0945,1.1491,0.3162,-0.5216,0.7233,0.1982,0.4570,
5.475323,0.3626,-0.8886,-0.1372,1.1491,0.3162,-0.5216,0.7233,0.1982,0.4570,
5.476520,0.3687,-0.8820,-0.1849,1.1491,0.3162,-0.5216,0.7233,0.1982,0.4570,
5.477769,0.4049,-0.8141,-0.0884,1.1491,0.3162,-0.5216,0.7233,0.1982,0.4570,
5.508642,0.4049,-0.8141,-0.0884,1.3162,0.3677,-0.7091,0.7233,0.1982,0.4570,
5.511186,0.4049,-0.8141,-0.0884,1.3162,0.3677,-0.7091,0.5167,0.0533,0.5061,
5.547689,0.4049,-0.8141,-0.0884,1.3162,0.3677,-0.7091,0.2994,0.0629,0.4539,
5.551061,0.4049,-0.8141,-0.0884,1.6833,1.2855,-0.7526,0.2994,0.0629,0.4539,
5.554581,0.3763,-0.8329,-0.0740,1.6833,1.2855,-0.7526,0.2994,0.0629,0.4539,
5.555937,0.2998,-0.9023,-0.1026,1.6833,1.2855,-0.7526,0.2994,0.0629,0.4539,
5.557040,0.2505,-0.9009,-0.0525,1.6833,1.2855,-0.7526,0.2994,0.0629,0.4539,
5.558416,0.2163,-0.8662,0.0062,1.6833,1.2855,-0.7526,0.2994,0.0629,0.4539,
5.586982,0.2163,-0.8662,0.0062,1.6833,1.2855,-0.7526,0.0224,0.3079,0.3484,
5.589397,0.2163,-0.8662,0.0062,0.5494,0.8412,-0.1351,0.0224,0.3079,0.3484,
5.627126,0.2163,-0.8662,0.0062,0.5494,0.8412,-0.1351,-0.2897,0.3995,0.1172,
5.630112,0.2385,-0.8864,0.0152,0.5494,0.8412,-0.1351,-0.2897,0.3995,0.1172,
5.631445,0.3330,-0.9426,-0.0053,0.5494,0.8412,-0.1351,-0.2897,0.3995,0.1172,
5.632696,0.3467,-0.9346,0.0042,0.5494,0.8412,-0.1351,-0.2897,0.3995,0.1172,
5.634873,0.2646,-0.8698,0.0120,0.5494,0.8412,-0.1351,-0.2897,0.3995,0.1172,
5.636680,0.2646,-0.8698,0.0120,1.0654,0.5287,0.4686,-0.2897,0.3995,0.1172,
5.666360,0.2646,-0.8698,0.0120,1.0654,0.5287,0.4686,-0.6040,0.1662,-0.1981,
5.669187,0.2646,-0.8698,0.0120,0.9707,0.4922,0.6729,-0.6040,0.1662,-0.1981,
5.705550,0.2646,-0.8698,0.0120,0.9707,0.4922,0.6729,-0.7936,-0.2535,-0.3291,
5.708659,0.2646,-0.8698,0.0120,0.2436,0.6825,0.7289,-0.7936,-0.2535,-0.3291,
5.709969,0.2238,-0.8593,-0.0097,0.2436,0.6825,0.7289,-0.7936,-0.2535,-0.3291,
5.711850,0.2439,-0.9568,-0.0652,0.2436,0.6825,0.7289,-0.7936,-0.2535,-0.3291,
5.713062,0.2241,-1.0724,-0.0974,0.2436,0.6825,0.7289,-0.7936,-0.2535,-0.3291,
5.714335,0.0733,-1.1334,-0.1065,0.2436,0.6825,0.7289,-0.7936,-0.2535,-0.3291,
5.745763,0.0733,-1.1334,-0.1065,0.2436,0.6825,0.7289,-0.9182,-0.0415,-0.3089,
5.748379,0.0733,-1.1334,-0.1065,0.1277,0.6049,1.0573,-0.9182,-0.0415,-0.3089,
5.785539,0.0733,-1.1334,-0.1065,0.1277,0.6049,1.0573,-1.2389,-0.1054,-0.1448,
5.788490,0.0733,-1.1334,-0.1065,-1.4253,-1.7277,0.3751,-1.2389,-0.1054,-0.1448,
5.789694,-0.0334,-1.1767,-0.2091,-1.4253,-1.7277,0.3751,-1.2389,-0.1054,-0.1448,
5.790909,0.0445,-1.1698,-0.2694,-1.4253,-1.7277,0.3751,-1.2389,-0.1054,-0.1448,
5.792275,0.1136,-1.1461,-0.2819,-1.4253,-1.7277,0.3751,-1.2389,-0.1054,-0.1448,
5.793506,0.0802,-1.1349,-0.3190,-1.4253,-1.7277,0.3751,-1.2389,-0.1054,-0.1448,
5.824599,0.0802,-1.1349,-0.3190,-1.4253,-1.7277,0.3751,-1.4328,-0.1938,-0.1906,
5.827873,0.0802,-1.1349,-0.3190,-1.5376,-2.0474,-0.5652,-1.4328,-0.1938,-0.1906,
5.864999,0.0802,-1.1349,-0.3190,-1.5376,-2.0474,-0.5652,-1.2016,-0.0585,-0.0958,
5.868068,0.0802,-1.1349,-0.3190,-1.9864,-1.5026,-0.1695,-1.2016,-0.0585,-0.0958,
5.870574,0.0066,-1.0899,-0.3574,-1.9864,-1.5026,-0.1695,-1.2016,-0.0585,-0.0958,
5.872196,0.0093,-1.0758,-0.3193,-1.9864,-1.5026,-0.1695,-1.2016,-0.0585,-0.0958,
5.873395,0.0836,-1.0870,-0.2086,-1.9864,-1.5026,-0.1695,-1.2016,-0.0585,-0.0958,
5.874728,0.2038,-1.0560,-0.1363,-1.9864,-1.5026,-0.1695,-1.2016,-0.0585,-0.0958,
5.904653,0.2038,-1.0560,-0.1363,-1.9909,-1.5605,0.0677,-1.2016,-0.0585,-0.0958,
5.907417,0.2038,-1.0560,-0.1363,-1.9909,-1.5605,0.0677,-0.6306,-0.1225,-0.1448,
5.943704,0.2038,-1.0560,-0.1363,-1.9909,-1.5605,0.0677,-0.0309,-0.0777,-0.3930,
5.946433,0.2038,-1.0560,-0.1363,-0.4179,-0.8462,1.6142,-0.0309,-0.0777,-0.3930,
5.947981,0.2402,-1.0030,-0.1216,-0.4179,-0.8462,1.6142,-0.0309,-0.0777,-0.3930,
5.949217,0.1752,-0.9671,-0.1512,-0.4179,-0.8462,1.6142,-0.0309,-0.0777,-0.3930,
5.950498,0.1156,-0.9294,-0.2003,-0.4179,-0.8462,1.6142,-0.0309,-0.0777,-0.3930,
5.951912,0.0878,-0.8818,-0.2340,-0.4179,-0.8462,1.6142,-0.0309,-0.0777,-0.3930,
5.983226,0.0878,-0.8818,-0.2340,-0.4179,-0.8462,1.6142,0.2120,-0.1427,-0.4367,
5.986034,0.0878,-0.8818,-0.2340,-0.5484,-0.8508,1.5267,0.2120,-0.1427,-0.4367,
6.023480,0.0878,-0.8818,-0.2340,-0.5484,-0.8508,1.5267,0.3207,0.0831,-0.3557,
6.026125,0.0878,-0.8818,-0.2340,-1.8811,0.4050,0.5621,0.3207,0.0831,-0.3557,
6.027521,0.0399,-0.8278,-0.2294,-1.8811,0.4050,0.5621,0.3207,0.0831,-0.3557,
6.028797,-0.0085,-0.7780,-0.1839,-1.8811,0.4050,0.5621,0.3207,0.0831,-0.3557,
6.030349,-0.0153,-0.7096,-0.1082,-1.8811,0.4050,0.5621,0.3207,0.0831,-0.3557,
6.031709,-0.0498,-0.6328,-0.0713,-1.8811,0.4050,0.5621,0.3207,0.0831,-0.3557,
6.062803,-0.0498,-0.6328,-0.0713,-1.8811,0.4050,0.5621,0.6360,0.1982,-0.2961,
6.065442,-0.0498,-0.6328,-0.0713,-2.9921,2.0973,1.2719,0.6360,0.1982,-0.2961,
6.102731,-0.0498,-0.6328,-0.0713,-2.9921,2.0973,1.2719,0.5689,-0.1906,-0.1150,
6.105259,-0.0498,-0.6328,-0.0713,-4.3458,0.7172,-1.5567,0.5689,-0.1906,-0.1150,
6.106661,-0.1434,-0.6099,-0.1387,-4.3458,0.7172,-1.5567,0.5689,-0.1906,-0.1150,
6.108021,-0.2440,-0.7701,-0.3867,-4.3458,0.7172,-1.5567,0.5689,-0.1906,-0.1150,
6.109274,-0.1160,-1.1715,-0.6559,-4.3458,0.7172,-1.5567,0.5689,-0.1906,-0.1150,
6.110475,0.2830,-1.5925,-0.5873,-4.3458,0.7172,-1.5567,0.5689,-0.1906,-0.1150,
6.141640,0.2830,-1.5925,-0.5873,-4.3458,0.7172,-1.5567,-0.0128,-0.0756,0.0640,
6.144455,0.2830,-1.5925,-0.5873,-4.2440,0.7108,-1.5183,-0.0128,-0.0756,0.0640,
6.181999,0.3347,-1.6428,-0.3359,-4.2440,0.7108,-1.5183,-0.0128,-0.0756,0.0640,
6.184754,0.1376,-1.2563,-0.2665,-4.2440,0.7108,-1.5183,-0.0128,-0.0756,0.0640,
6.186046,0.0990,-0.9419,-0.2381,-4.2440,0.7108,-1.5183,-0.0128,-0.0756,0.0640,
6.187346,0.0990,-0.9419,-0.2381,-4.2440,0.7108,-1.5183,-0.0916,-0.0713,0.1183,
6.188531,0.0990,-0.9419,-0.2381,-0.0819,-5.5295,-1.4802,-0.0916,-0.0713,0.1183,
6.221653,0.0990,-0.9419,-0.2381,-0.0819,-5.5295,-1.4802,0.2514,-0.3334,0.1790,
6.224063,0.0990,-0.9419,-0.2381,-0.6127,0.5653,0.3502,0.2514,-0.3334,0.1790,
6.261839,0.0990,-0.9419,-0.2381,-0.6127,0.5653,0.3502,0.3888,-0.2652,0.1215,
6.264332,0.0990,-0.9419,-0.2381,-0.5353,0.6020,0.2298,0.3888,-0.2652,0.1215,
6.265658,0.2016,-0.8437,-0.1544,-0.5353,0.6020,0.2298,0.3888,-0.2652,0.1215,
6.266806,0.2595,-0.8500,-0.2171,-0.5353,0.6020,0.2298,0.3888,-0.2652,0.1215,
6.268516,0.2070,-0.9226,-0.2264,-0.5353,0.6020,0.2298,0.3888,-0.2652,0.1215,
6.269642,0.3066,-0.8769,-0.1311,-0.5353,0.6020,0.2298,0.3888,-0.2652,0.1215,
6.270971,0.4691,-0.7379,-0.0930,-0.5353,0.6020,0.2298,0.3888,-0.2652,0.1215,
6.300496,0.4691,-0.7379,-0.0930,0.8713,0.9482,0.6053,0.3888,-0.2652,0.1215,
6.302932,0.4691,-0.7379,-0.0930,0.8713,0.9482,0.6053,0.4634,-0.3856,0.0214,
6.340441,0.4691,-0.7379,-0.0930,0.8713,0.9482,0.6053,0.0703,-0.9960,-0.1704,
6.342930,0.4691,-0.7379,-0.0930,3.3442,1.0239,-1.3621,0.0703,-0.9960,-0.1704,
6.344340,0.5448,-0.7237,-0.3412,3.3442,1.0239,-1.3621,0.0703,-0.9960,-0.1704,
6.345507,0.5847,-0.8623,-0.4761,3.3442,1.0239,-1.3621,0.0703,-0.9960,-0.1704,
6.346598,0.6213,-0.9199,-0.2628,3.3442,1.0239,-1.3621,0.0703,-0.9960,-0.1704,
6.347913,0.5043,-0.8798,-0.1570,3.3442,1.0239,-1.3621,0.0703,-0.9960,-0.1704,
6.379809,0.5043,-0.8798,-0.1570,3.3442,1.0239,-1.3621,-0.0341,-1.2101,-0.4175,
6.382148,0.5043,-0.8798,-0.1570,3.2439,0.9649,-1.2144,-0.0341,-1.2101,-0.4175,
6.419562,0.5043,-0.8798,-0.1570,3.2439,0.9649,-1.2144,0.0629,-0.7680,-0.3217,
6.422093,0.5043,-0.8798,-0.1570,0.7661,0.0608,0.5336,0.0629,-0.7680,-0.3217,
6.423419,0.2448,-0.9167,-0.2530,0.7661,0.0608,0.5336,0.0629,-0.7680,-0.3217,
6.425050,0.2610,-0.9778,-0.1485,0.7661,0.0608,0.5336,0.0629,-0.7680,-0.3217,
6.426407,0.3013,-1.0413,-0.2560,0.7661,0.0608,0.5336,0.0629,-0.7680,-0.3217,
6.427739,0.2949,-1.0660,-0.2594,0.7661,0.0608,0.5336,0.0629,-0.7680,-0.3217,
6.458522,0.2949,-1.0660,-0.2594,0.7661,0.0608,0.5336,0.0682,-0.1960,-0.0713,
6.459861,0.2949,-1.0660,-0.2594,0.7460,0.0590,0.5199,0.0682,-0.1960,-0.0713,
6.498648,0.2949,-1.0660,-0.2594,0.7460,0.0590,0.5199,0.4304,0.0011,-0.0511,
6.500499,0.2949,-1.0660,-0.2594,0.5773,-1.1113,0.0439,0.4304,0.0011,-0.0511,
6.501477,0.3709,-1.0413,-0.1409,0.5773,-1.1113,0.0439,0.4304,0.0011,-0.0511,
6.502119,0.4425,-1.0289,-0.1465,0.5773,-1.1113,0.0439,0.4304,0.0011,-0.0511,
6.502813,0.4857,-1.0035,-0.2101,0.5773,-1.1113,0.0439,0.4304,0.0011,-0.0511,
6.503512,0.4664,-1.0081,-0.2594,0.5773,-1.1113,0.0439,0.4304,0.0011,-0.0511,
6.537906,0.4664,-1.0081,-0.2594,0.5773,-1.1113,0.0439,0.7532,-0.1075,0.0480,
6.541003,0.4664,-1.0081,-0.2594,1.9668,-0.6800,-0.0869,0.7532,-0.1075,0.0480,
6.578369,0.3504,-1.0599,-0.2638,1.9668,-0.6800,-0.0869,0.7532,-0.1075,0.0480,
6.581190,0.2922,-1.0333,-0.2465,1.9668,-0.6800,-0.0869,0.7532,-0.1075,0.0480,
6.582504,0.3140,-0.8859,-0.1661,1.9668,-0.6800,-0.0869,0.7532,-0.1075,0.0480,
6.583709,0.3140,-0.8859,-0.1661,1.9668,-0.6800,-0.0869,0.9630,-0.5518,0.2898,
6.585278,0.3140,-0.8859,-0.1661,0.6699,-0.3767,-0.5743,0.9630,-0.5518,0.2898,
6.617661,0.3140,-0.8859,-0.1661,0.6699,-0.3767,-0.5743,1.0163,-0.4889,0.2791,
6.620386,0.3140,-0.8859,-0.1661,0.1652,1.7252,-0.5879,1.0163,-0.4889,0.2791,
6.657703,0.3140,-0.8859,-0.1661,0.1652,1.7252,-0.5879,0.6733,-0.4506,0.3761,
6.660317,0.3140,-0.8859,-0.1661,0.3219,1.7609,-0.7863,0.6733,-0.4506,0.3761,
6.661603,0.2961,-0.7723,-0.1136,0.3219,1.7609,-0.7863,0.6733,-0.4506,0.3761,
6.662887,0.2483,-0.7662,-0.1910,0.3219,1.7609,-0.7863,0.6733,-0.4506,0.3761,
6.664238,0.2180,-0.8144,-0.2772,0.3219,1.7609,-0.7863,0.6733,-0.4506,0.3761,
6.665487,0.2365,-0.8747,-0.1673,0.3219,1.7609,-0.7863,0.6733,-0.4506,0.3761,
6.666715,0.2495,-0.9136,-0.0859,0.3219,1.7609,-0.7863,0.6733,-0.4506,0.3761,
6.696321,0.2495,-0.9136,-0.0859,0.3219,1.7609,-0.7863,0.3452,-0.5922,0.2973,
6.698506,0.2495,-0.9136,-0.0859,0.4507,1.7703,-0.8521,0.3452,-0.5922,0.2973,
6.736336,0.2495,-0.9136,-0.0859,0.4507,1.7703,-0.8521,0.0831,-0.2620,0.0075,
6.738915,0.2495,-0.9136,-0.0859,0.3891,0.5166,-0.0490,0.0831,-0.2620,0.0075,
6.740275,0.2553,-0.9470,-0.0798,0.3891,0.5166,-0.0490,0.0831,-0.2620,0.0075,
6.741631,0.2458,-0.9952,-0.0952,0.3891,0.5166,-0.0490,0.0831,-0.2620,0.0075,
6.742878,0.1967,-1.0232,-0.0649,0.3891,0.5166,-0.0490,0.0831,-0.2620,0.0075,
6.744182,0.1347,-1.0179,0.0142,0.3891,0.5166,-0.0490,0.0831,-0.2620,0.0075,
6.776055,0.1347,-1.0179,0.0142,0.3891,0.5166,-0.0490,-0.1086,-0.0639,-0.0308,
6.778617,0.1347,-1.0179,0.0142,-0.1535,-0.4658,0.5980,-0.1086,-0.0639,-0.0308,
6.816049,0.1347,-1.0179,0.0142,-0.1535,-0.4658,0.5980,-0.2503,0.0810,0.1598,
6.818978,0.1347,-1.0179,0.0142,-1.3073,-0.4815,1.0066,-0.2503,0.0810,0.1598,
6.820389,0.0936,-1.0228,0.0037,-1.3073,-0.4815,1.0066,-0.2503,0.0810,0.1598,
6.821818,0.0655,-1.0206,-0.0280,-1.3073,-0.4815,1.0066,-0.2503,0.0810,0.1598,
6.823044,0.0408,-1.0008,-0.0180,-1.3073,-0.4815,1.0066,-0.2503,0.0810,0.1598,
6.824366,0.0714,-0.9724,-0.0151,-1.3073,-0.4815,1.0066,-0.2503,0.0810,0.1598,
6.856538,0.0714,-0.9724,-0.0151,-1.3073,-0.4815,1.0066,-0.4463,0.3324,0.2483,
6.858983,0.0714,-0.9724,-0.0151,-1.2099,-0.4761,1.1295,-0.4463,0.3324,0.2483,
6.895343,0.1596,-0.9607,-0.0586,-1.2099,-0.4761,1.1295,-0.4463,0.3324,0.2483,
6.898362,0.2343,-0.9612,-0.1184,-1.2099,-0.4761,1.1295,-0.4463,0.3324,0.2483,
6.899664,0.2404,-0.9487,-0.1531,-1.2099,-0.4761,1.1295,-0.4463,0.3324,0.2483,
6.901378,0.2404,-0.9487,-0.1531,-1.2099,-0.4761,1.1295,-0.7307,0.5518,0.0480,
6.902685,0.2404,-0.9487,-0.1531,-0.3495,-0.0230,0.8588,-0.7307,0.5518,0.0480,
6.935601,0.2404,-0.9487,-0.1531,-0.3495,-0.0230,0.8588,-1.0802,0.5945,-0.1821,
6.938314,0.2404,-0.9487,-0.1531,-0.1010,0.2986,0.3681,-1.0802,0.5945,-0.1821,
6.974944,0.2404,-0.9487,-0.1531,-0.1010,0.2986,0.3681,-1.2229,0.4996,-0.2023,
6.977856,0.2404,-0.9487,-0.1531,-0.2121,0.1803,0.7651,-1.2229,0.4996,-0.2023,
6.979198,0.2038,-0.9265,-0.1548,-0.2121,0.1803,0.7651,-1.2229,0.4996,-0.2023,
6.980293,0.1293,-0.8930,-0.1416,-0.2121,0.1803,0.7651,-1.2229,0.4996,-0.2023,
6.981491,0.0372,-0.8759,-0.1898,-0.2121,0.1803,0.7651,-1.2229,0.4996,-0.2023,
6.982812,-0.0222,-0.8735,-0.2601,-0.2121,0.1803,0.7651,-1.2229,0.4996,-0.2023,
6.984311,0.0731,-0.8593,-0.3207,-0.2121,0.1803,0.7651,-1.2229,0.4996,-0.2023,
7.013640,0.0731,-0.8593,-0.3207,-0.2121,0.1803,0.7651,-1.1867,0.3036,0.0277,
7.016153,0.0731,-0.8593,-0.3207,-1.7866,0.5793,0.1203,-1.1867,0.3036,0.0277,
7.053351,0.0731,-0.8593,-0.3207,-1.7866,0.5793,0.1203,-0.9779,0.0501,0.0640,
7.056077,0.0731,-0.8593,-0.3207,0.7081,0.4732,0.1100,-0.9779,0.0501,0.0640,
7.057558,0.2363,-0.8266,-0.3095,0.7081,0.4732,0.1100,-0.9779,0.0501,0.0640,
7.061228,0.3262,-0.8337,-0.2799,0.7081,0.4732,0.1100,-0.9779,0.0501,0.0640,
7.062505,0.2876,-0.9468,-0.2899,0.7081,0.4732,0.1100,-0.9779,0.0501,0.0640,
7.063563,0.2126,-1.0543,-0.3004,0.7081,0.4732,0.1100,-0.9779,0.0501,0.0640,
7.094239,0.2126,-1.0543,-0.3004,0.7081,0.4732,0.1100,-0.4708,-0.0468,-0.0149,
7.096846,0.2126,-1.0543,-0.3004,0.6968,0.4079,0.2763,-0.4708,-0.0468,-0.0149,
7.133147,0.2126,-1.0543,-0.3004,0.6968,0.4079,0.2763,-0.1022,-0.3440,0.0160,
7.136465,0.2126,-1.0543,-0.3004,-0.0550,-1.5157,-0.4131,-0.1022,-0.3440,0.0160,
7.137954,0.1542,-1.1193,-0.3715,-0.0550,-1.5157,-0.4131,-0.1022,-0.3440,0.0160,
7.139236,0.2378,-1.0267,-0.4402,-0.0550,-1.5157,-0.4131,-0.1022,-0.3440,0.0160,
7.140378,0.2353,-0.9898,-0.4656,-0.0550,-1.5157,-0.4131,-0.1022,-0.3440,0.0160,
7.141739,0.1437,-1.0985,-0.5218,-0.0550,-1.5157,-0.4131,-0.1022,-0.3440,0.0160,
7.172074,0.1437,-1.0985,-0.5218,-0.0550,-1.5157,-0.4131,-0.0703,-0.0372,-0.0905,
7.174577,0.1437,-1.0985,-0.5218,-0.0809,-1.5065,-0.3788,-0.0703,-0.0372,-0.0905,
7.212105,0.1242,-1.1002,-0.4883,-0.0809,-1.5065,-0.3788,-0.0703,-0.0372,-0.0905,
7.214734,0.1398,-0.9490,-0.3390,-0.0809,-1.5065,-0.3788,-0.0703,-0.0372,-0.0905,
7.216020,0.0926,-0.8087,-0.1565,-0.0809,-1.5065,-0.3788,-0.0703,-0.0372,-0.0905,
7.216948,0.0926,-0.8087,-0.1565,-0.0809,-1.5065,-0.3788,0.0373,0.4347,-0.1406,
7.218722,0.0926,-0.8087,-0.1565,-0.5090,-1.4506,-1.5890,0.0373,0.4347,-0.1406,
7.252433,0.0926,-0.8087,-0.1565,-0.5090,-1.4506,-1.5890,0.6562,0.3665,-0.1395,
7.254840,0.0926,-0.8087,-0.1565,-1.4478,0.9441,1.2743,0.6562,0.3665,-0.1395,
7.292508,0.0926,-0.8087,-0.1565,-1.4478,0.9441,1.2743,1.1974,0.1875,-0.1299,
7.295253,0.0926,-0.8087,-0.1565,-1.4899,1.0438,0.8129,1.1974,0.1875,-0.1299,
7.296670,0.0049,-0.7137,-0.0156,-1.4899,1.0438,0.8129,1.1974,0.1875,-0.1299,
7.298423,0.0127,-0.7098,-0.0236,-1.4899,1.0438,0.8129,1.1974,0.1875,-0.1299,
7.299626,0.0819,-0.7311,-0.1057,-1.4899,1.0438,0.8129,1.1974,0.1875,-0.1299,
7.301168,0.1171,-0.7215,-0.1715,-1.4899,1.0438,0.8129,1.1974,0.1875,-0.1299,
7.302605,0.1715,-0.7281,-0.2035,-1.4899,1.0438,0.8129,1.1974,0.1875,-0.1299,
7.331268,0.1715,-0.7281,-0.2035,-1.4899,1.0438,0.8129,1.2741,0.4304,-0.2109,
7.333618,0.1715,-0.7281,-0.2035,-1.6599,2.1109,0.9812,1.2741,0.4304,-0.2109,
7.370213,0.1715,-0.7281,-0.2035,-1.6599,2.1109,0.9812,1.1697,0.2717,-0.2098,
7.373140,0.1913,-0.7785,-0.2113,-1.6599,2.1109,0.9812,1.1697,0.2717,-0.2098,
7.374525,0.1904,-0.9402,-0.1961,-1.6599,2.1109,0.9812,1.1697,0.2717,-0.2098,
7.375798,0.1215,-1.2487,-0.3474,-1.6599,2.1109,0.9812,1.1697,0.2717,-0.2098,
7.376891,0.1303,-1.5695,-0.6833,-1.6599,2.1109,0.9812,1.1697,0.2717,-0.2098,
7.378347,0.1303,-1.5695,-0.6833,-0.6290,1.2219,-0.4762,1.1697,0.2717,-0.2098,
7.410144,0.1303,-1.5695,-0.6833,-0.6290,1.2219,-0.4762,0.0362,0.0522,0.0192,
7.412756,0.1303,-1.5695,-0.6833,-0.6146,1.2055,-0.4863,0.0362,0.0522,0.0192,
7.449923,0.1303,-1.5695,-0.6833,-0.6146,1.2055,-0.4863,-1.1941,0.6445,0.2195,
7.452864,0.1303,-1.5695,-0.6833,-1.1225,-4.8591,-4.1205,-1.1941,0.6445,0.2195,
7.454252,0.1290,-1.4921,-0.8281,-1.1225,-4.8591,-4.1205,-1.1941,0.6445,0.2195,
7.455511,0.1369,-1.1464,-0.6466,-1.1225,-4.8591,-4.1205,-1.1941,0.6445,0.2195,
7.456618,0.1813,-0.8610,-0.0356,-1.1225,-4.8591,-4.1205,-1.1941,0.6445,0.2195,
7.458645,0.3194,-0.7030,0.2236,-1.1225,-4.8591,-4.1205,-1.1941,0.6445,0.2195,
7.489759,0.3194,-0.7030,0.2236,-1.1225,-4.8591,-4.1205,-0.4506,0.1087,0.2046,
7.495320,0.3194,-0.7030,0.2236,-0.2139,0.3444,0.5974,-0.4506,0.1087,0.2046,
7.529312,0.3194,-0.7030,0.2236,-0.2139,0.3444,0.5974,0.0309,-0.7084,0.1598,
7.531979,0.3194,-0.7030,0.2236,1.5995,0.9320,-0.7613,0.0309,-0.7084,0.1598,
7.534432,0.3198,-0.7154,-0.1851,1.5995,0.9320,-0.7613,0.0309,-0.7084,0.1598,
7.535663,0.3804,-0.8415,-0.4705,1.5995,0.9320,-0.7613,0.0309,-0.7084,0.1598,
7.536918,0.4645,-0.9739,-0.2386,1.5995,0.9320,-0.7613,0.0309,-0.7084,0.1598,
7.538463,0.4696,-1.0936,-0.3706,1.5995,0.9320,-0.7613,0.0309,-0.7084,0.1598,
7.569052,0.4696,-1.0936,-0.3706,1.5995,0.9320,-0.7613,-0.0852,-0.4665,-0.0021,
7.571487,0.4696,-1.0936,-0.3706,1.6119,0.9090,-0.6784,-0.0852,-0.4665,-0.0021,
7.608382,0.4696,-1.0936,-0.3706,1.6119,0.9090,-0.6784,0.1033,0.1801,-0.0159,
7.610788,0.4696,-1.0936,-0.3706,1.5230,-1.4528,-0.5854,0.1033,0.1801,-0.0159,
7.612159,0.3531,-1.1417,-0.3447,1.5230,-1.4528,-0.5854,0.1033,0.1801,-0.0159,
7.613288,0.3294,-1.0284,-0.1372,1.5230,-1.4528,-0.5854,0.1033,0.1801,-0.0159,
7.614448,0.3421,-0.9473,-0.2291,1.5230,-1.4528,-0.5854,0.1033,0.1801,-0.0159,
7.615689,0.3692,-0.9746,-0.2753,1.5230,-1.4528,-0.5854,0.1033,0.1801,-0.0159,
7.647797,0.3692,-0.9746,-0.2753,1.5230,-1.4528,-0.5854,0.3100,0.1023,0.0501,
7.650733,0.3692,-0.9746,-0.2753,1.5071,-1.3985,-0.6959,0.3100,0.1023,0.0501,
7.687583,0.3692,-0.9746,-0.2753,1.5071,-1.3985,-0.6959,0.7383,0.1971,-0.0628,
7.689769,0.3692,-0.9746,-0.2753,1.2567,-0.3163,-0.1836,0.7383,0.1971,-0.0628,
7.691310,0.3824,-1.0279,-0.1035,1.2567,-0.3163,-0.1836,0.7383,0.1971,-0.0628,
7.692445,0.3455,-1.0303,-0.0779,1.2567,-0.3163,-0.1836,0.7383,0.1971,-0.0628,
7.693663,0.3074,-1.0027,-0.1983,1.2567,-0.3163,-0.1836,0.7383,0.1971,-0.0628,
7.694961,0.3257,-0.9737,-0.2181,1.2567,-0.3163,-0.1836,0.7383,0.1971,-0.0628,
7.727047,0.3257,-0.9737,-0.2181,1.2567,-0.3163,-0.1836,0.8490,0.4847,0.0799,
7.730125,0.3257,-0.9737,-0.2181,0.8648,-0.4330,-0.1687,0.8490,0.4847,0.0799,
7.767535,0.3257,-0.9737,-0.2181,0.8648,-0.4330,-0.1687,0.9002,0.0778,0.3026,
7.769935,0.3257,-0.9737,-0.2181,1.3992,0.5631,-0.4723,0.9002,0.0778,0.3026,
7.771336,0.3988,-0.9165,-0.2215,1.3992,0.5631,-0.4723,0.9002,0.0778,0.3026,
7.772525,0.3948,-0.9043,-0.1563,1.3992,0.5631,-0.4723,0.9002,0.0778,0.3026,
7.773744,0.3225,-0.9004,-0.1067,1.3992,0.5631,-0.4723,0.9002,0.0778,0.3026,
7.775075,0.2678,-0.8610,-0.1223,1.3992,0.5631,-0.4723,0.9002,0.0778,0.3026,
7.806369,0.2678,-0.8610,-0.1223,1.3992,0.5631,-0.4723,1.0504,0.0363,0.3186,
7.808960,0.2678,-0.8610,-0.1223,1.4923,0.6182,-0.8559,1.0504,0.0363,0.3186,
7.846481,0.2678,-0.8610,-0.1223,1.4923,0.6182,-0.8559,0.7020,0.1801,0.4613,
7.848920,0.2678,-0.8610,-0.1223,0.2954,1.3393,-1.2897,0.7020,0.1801,0.4613,
7.850224,0.2182,-0.8310,-0.1925,0.2954,1.3393,-1.2897,0.7020,0.1801,0.4613,
7.851751,0.2131,-0.8180,-0.2235,0.2954,1.3393,-1.2897,0.7020,0.1801,0.4613,
7.852865,0.2571,-0.8246,-0.0921,0.2954,1.3393,-1.2897,0.7020,0.1801,0.4613,
7.854173,0.3106,-0.8662,-0.0559,0.2954,1.3393,-1.2897,0.7020,0.1801,0.4613,
7.886049,0.3106,-0.8662,-0.0559,0.2954,1.3393,-1.2897,0.4805,-0.1629,0.5710,
7.888772,0.3106,-0.8662,-0.0559,0.5054,1.3659,-1.4354,0.4805,-0.1629,0.5710,
7.925680,0.3106,-0.8662,-0.0559,0.5054,1.3659,-1.4354,0.3175,-0.1874,0.3569,
7.928287,0.3106,-0.8662,-0.0559,1.1682,1.0383,-0.5971,0.3175,-0.1874,0.3569,
7.929615,0.2983,-0.9226,-0.1038,1.1682,1.0383,-0.5971,0.3175,-0.1874,0.3569,
7.930563,0.3220,-0.9556,-0.0913,1.1682,1.0383,-0.5971,0.3175,-0.1874,0.3569,
7.931887,0.3753,-0.9607,-0.0752,1.1682,1.0383,-0.5971,0.3175,-0.1874,0.3569,
7.932996,0.4078,-0.9781,-0.0654,1.1682,1.0383,-0.5971,0.3175,-0.1874,0.3569,
7.965001,0.4078,-0.9781,-0.0654,1.1682,1.0383,-0.5971,0.0022,-0.2737,0.0991,
7.967582,0.4078,-0.9781,-0.0654,1.9563,0.1248,-0.5070,0.0022,-0.2737,0.0991,
8.004982,0.4078,-0.9781,-0.0654,1.9563,0.1248,-0.5070,-0.4293,-0.4378,-0.0937,
8.007835,0.4078,-0.9781,-0.0654,1.3279,-0.0116,-0.2479,-0.4293,-0.4378,-0.0937,
8.009144,0.3990,-1.0086,-0.0632,1.3279,-0.0116,-0.2479,-0.4293,-0.4378,-0.0937,
8.010485,0.3123,-0.9741,-0.0591,1.3279,-0.0116,-0.2479,-0.4293,-0.4378,-0.0937,
8.012220,0.2175,-0.9497,-0.0903,1.3279,-0.0116,-0.2479,-0.4293,-0.4378,-0.0937,
8.013481,0.1444,-0.9607,-0.0906,1.3279,-0.0116,-0.2479,-0.4293,-0.4378,-0.0937,
8.044217,0.1444,-0.9607,-0.0906,1.3279,-0.0116,-0.2479,-0.9086,-0.3781,-0.2801,
8.046573,0.1444,-0.9607,-0.0906,1.2106,-0.0530,0.1202,-0.9086,-0.3781,-0.2801,
8.083775,0.1444,-0.9607,-0.0906,1.2106,-0.0530,0.1202,-1.1302,-0.0276,-0.3344,
8.086486,0.1444,-0.9607,-0.0906,-1.2988,0.3268,0.7368,-1.1302,-0.0276,-0.3344,
8.088166,0.0743,-0.9353,-0.0449,-1.2988,0.3268,0.7368,-1.1302,-0.0276,-0.3344,
8.089498,-0.0266,-0.8967,-0.0153,-1.2988,0.3268,0.7368,-1.1302,-0.0276,-0.3344,
8.090680,-0.0928,-0.9128,-0.0603,-1.2988,0.3268,0.7368,-1.1302,-0.0276,-0.3344,
8.091674,-0.0710,-1.0215,-0.1600,-1.2988,0.3268,0.7368,-1.1302,-0.0276,-0.3344,
8.123301,-0.0710,-1.0215,-0.1600,-1.2988,0.3268,0.7368,-1.1579,0.3164,-0.1810,
8.126365,-0.0710,-1.0215,-0.1600,-1.3617,0.2427,1.1246,-1.1579,0.3164,-0.1810,
8.163304,-0.0710,-1.0215,-0.1600,-1.3617,0.2427,1.1246,-1.4711,0.1897,-0.0042,
8.166002,-0.0710,-1.0215,-0.1600,-2.4293,-0.8732,0.4377,-1.4711,0.1897,-0.0042,
8.167440,0.0213,-1.1708,-0.3002,-2.4293,-0.8732,0.4377,-1.4711,0.1897,-0.0042,
8.168708,0.1400,-1.1857,-0.3752,-2.4293,-0.8732,0.4377,-1.4711,0.1897,-0.0042,
8.169833,0.2048,-1.0692,-0.3630,-2.4293,-0.8732,0.4377,-1.4711,0.1897,-0.0042,
8.171357,0.2243,-1.0020,-0.3217,-2.4293,-0.8732,0.4377,-1.4711,0.1897,-0.0042,
8.203044,0.2243,-1.0020,-0.3217,-2.4293,-0.8732,0.4377,-1.5510,0.0799,-0.1203,
8.205706,0.2243,-1.0020,-0.3217,-0.1532,-1.5015,-0.7526,-1.5510,0.0799,-0.1203,
8.243444,0.2243,-1.0020,-0.3217,-0.1532,-1.5015,-0.7526,-1.0258,0.0128,-0.2141,
8.246645,0.2243,-1.0020,-0.3217,-0.3838,-1.3276,0.7965,-1.0258,0.0128,-0.2141,
8.248009,0.1786,-1.0164,-0.2455,-0.3838,-1.3276,0.7965,-1.0258,0.0128,-0.2141,
8.249230,0.1698,-1.0621,-0.2171,-0.3838,-1.3276,0.7965,-1.0258,0.0128,-0.2141,
8.250341,0.1720,-1.0907,-0.2316,-0.3838,-1.3276,0.7965,-1.0258,0.0128,-0.2141,
8.251648,0.1532,-1.0887,-0.2540,-0.3838,-1.3276,0.7965,-1.0258,0.0128,-0.2141,
8.282247,0.1532,-1.0887,-0.2540,-0.3838,-1.3276,0.7965,-0.3792,0.0437,-0.1832,
8.285124,0.1532,-1.0887,-0.2540,-0.4470,-1.3668,0.9125,-0.3792,0.0437,-0.1832,
8.322086,0.1532,-1.0887,-0.2540,-0.4470,-1.3668,0.9125,-0.0064,0.0767,-0.1992,
8.324602,0.1532,-1.0887,-0.2540,-0.7557,-1.3116,0.3193,-0.0064,0.0767,-0.1992,
8.326011,0.1513,-1.0535,-0.2897,-0.7557,-1.3116,0.3193,-0.0064,0.0767,-0.1992,
8.327138,0.1422,-1.0113,-0.3290,-0.7557,-1.3116,0.3193,-0.0064,0.0767,-0.1992,
8.328524,0.1356,-0.9846,-0.3571,-0.7557,-1.3116,0.3193,-0.0064,0.0767,-0.1992,
8.329754,0.1427,-0.9206,-0.3285,-0.7557,-1.3116,0.3193,-0.0064,0.0767,-0.1992,
8.361729,0.1427,-0.9206,-0.3285,-0.7557,-1.3116,0.3193,0.1449,0.0874,-0.1661,
8.363838,0.1427,-0.9206,-0.3285,-0.8120,-1.2865,0.2556,0.1449,0.0874,-0.1661,
8.400572,0.1427,-0.9206,-0.3285,-0.8120,-1.2865,0.2556,0.2621,0.3175,-0.1683,
8.403274,0.1427,-0.9206,-0.3285,-0.9714,0.1226,-0.0901,0.2621,0.3175,-0.1683,
8.404916,0.1447,-0.8212,-0.2557,-0.9714,0.1226,-0.0901,0.2621,0.3175,-0.1683,
8.406205,0.1095,-0.7291,-0.2003,-0.9714,0.1226,-0.0901,0.2621,0.3175,-0.1683,
8.407543,0.0741,-0.6722,-0.1768,-0.9714,0.1226,-0.0901,0.2621,0.3175,-0.1683,
8.408674,0.0819,-0.6343,-0.1986,-0.9714,0.1226,-0.0901,0.2621,0.3175,-0.1683,
8.440831,0.0819,-0.6343,-0.1986,-0.9714,0.1226,-0.0901,0.3835,0.4762,-0.2130,
8.443305,0.0819,-0.6343,-0.1986,-1.5902,2.3630,0.9062,0.3835,0.4762,-0.2130,
8.479903,0.0819,-0.6343,-0.1986,-1.5902,2.3630,0.9062,0.3345,0.5455,-0.3611,
8.482760,0.0819,-0.6343,-0.1986,-0.7291,2.7758,-0.1595,0.3345,0.5455,-0.3611,
8.483817,0.1322,-0.5786,-0.2203,-0.7291,2.7758,-0.1595,0.3345,0.5455,-0.3611,
8.485189,0.1948,-0.5801,-0.2618,-0.7291,2.7758,-0.1595,0.3345,0.5455,-0.3611,
8.486414,0.2556,-0.7359,-0.3671,-0.7291,2.7758,-0.1595,0.3345,0.5455,-0.3611,
8.487651,0.2402,-1.0338,-0.4944,-0.7291,2.7758,-0.1595,0.3345,0.5455,-0.3611,
8.520024,0.2402,-1.0338,-0.4944,-0.9279,2.7028,-0.2901,0.3345,0.5455,-0.3611,
8.522816,0.2402,-1.0338,-0.4944,-0.9279,2.7028,-0.2901,0.1779,0.6658,-0.4154,
8.559508,0.2402,-1.0338,-0.4944,-0.9279,2.7028,-0.2901,0.2599,0.4879,-0.0649,
8.561879,0.2402,-1.0338,-0.4944,-0.5909,-2.9251,-2.0655,0.2599,0.4879,-0.0649,
8.563315,0.2409,-1.2908,-0.4646,-0.5909,-2.9251,-2.0655,0.2599,0.4879,-0.0649,
8.564683,0.2229,-1.3135,-0.3994,-0.5909,-2.9251,-2.0655,0.2599,0.4879,-0.0649,
8.565777,0.1254,-1.2558,-0.4822,-0.5909,-2.9251,-2.0655,0.2599,0.4879,-0.0649,
8.566889,0.2522,-1.2263,-0.3679,-0.5909,-2.9251,-2.0655,0.2599,0.4879,-0.0649,
8.599216,0.2522,-1.2263,-0.3679,-0.5909,-2.9251,-2.0655,0.1768,0.2866,0.2312,
8.601777,0.2522,-1.2263,-0.3679,-0.5260,-2.8345,-2.1251,0.1768,0.2866,0.2312,
8.638729,0.2522,-1.2263,-0.3679,-0.5260,-2.8345,-2.1251,0.4559,0.3633,0.1716,
8.641163,0.2522,-1.2263,-0.3679,-0.3522,-2.3926,-1.1308,0.4559,0.3633,0.1716,
8.642492,0.3687,-1.0511,-0.1473,-0.3522,-2.3926,-1.1308,0.4559,0.3633,0.1716,
8.643617,0.2194,-0.8754,-0.1736,-0.3522,-2.3926,-1.1308,0.4559,0.3633,0.1716,
8.644860,0.0225,-0.8163,-0.2430,-0.3522,-2.3926,-1.1308,0.4559,0.3633,0.1716,
8.646183,0.0064,-0.8718,-0.2039,-0.3522,-2.3926,-1.1308,0.4559,0.3633,0.1716,
8.678128,0.0064,-0.8718,-0.2039,-0.3522,-2.3926,-1.1308,0.4879,0.0448,0.3335,
8.680543,0.0064,-0.8718,-0.2039,-1.8300,0.8362,-0.0815,0.4879,0.0448,0.3335,
8.718484,0.0064,-0.8718,-0.2039,-0.1411,0.1615,0.2713,0.4879,0.0448,0.3335,
8.721142,0.0064,-0.8718,-0.2039,-0.1411,0.1615,0.2713,0.2290,0.3196,0.2270,
8.722319,0.1559,-0.9363,-0.1522,-0.1411,0.1615,0.2713,0.2290,0.3196,0.2270,
8.723491,0.2837,-0.9385,-0.1475,-0.1411,0.1615,0.2713,0.2290,0.3196,0.2270,
8.724763,0.3069,-0.9070,-0.1758,-0.1411,0.1615,0.2713,0.2290,0.3196,0.2270,
8.725888,0.2600,-0.8691,-0.2362,-0.1411,0.1615,0.2713,0.2290,0.3196,0.2270,
8.758977,0.2600,-0.8691,-0.2362,-0.1411,0.1615,0.2713,-0.1821,0.4240,0.0491,
8.761505,0.2600,-0.8691,-0.2362,-0.1512,0.1507,0.2897,-0.1821,0.4240,0.0491,
8.798152,0.2600,-0.8691,-0.2362,-0.1512,0.1507,0.2897,-0.4154,0.4016,0.0704,
8.800560,0.2600,-0.8691,-0.2362,-0.1239,0.6465,0.0139,-0.4154,0.4016,0.0704,
8.801872,0.2270,-0.8640,-0.2530,-0.1239,0.6465,0.0139,-0.4154,0.4016,0.0704,
8.802816,0.2685,-0.8862,-0.1045,-0.1239,0.6465,0.0139,-0.4154,0.4016,0.0704,
8.803936,0.2854,-0.9165,-0.0503,-0.1239,0.6465,0.0139,-0.4154,0.4016,0.0704,
8.805090,0.2908,-0.9583,-0.2587,-0.1239,0.6465,0.0139,-0.4154,0.4016,0.0704,
8.836571,0.2908,-0.9583,-0.2587,-0.1239,0.6465,0.0139,-0.3728,0.2887,0.1950,
8.838466,0.2908,-0.9583,-0.2587,-0.0746,0.6261,0.1183,-0.3728,0.2887,0.1950,
8.877740,0.2908,-0.9583,-0.2587,-0.0746,0.6261,0.1183,-0.0042,0.1481,0.1503,
8.880034,0.2908,-0.9583,-0.2587,0.7675,-0.2567,0.3732,-0.0042,0.1481,0.1503,
8.881290,0.4281,-1.0206,-0.2008,0.7675,-0.2567,0.3732,-0.0042,0.1481,0.1503,
8.882306,0.5133,-1.0259,0.0387,0.7675,-0.2567,0.3732,-0.0042,0.1481,0.1503,
8.883543,0.4569,-1.0294,-0.0393,0.7675,-0.2567,0.3732,-0.0042,0.1481,0.1503,
8.884915,0.3431,-1.0831,-0.2355,0.7675,-0.2567,0.3732,-0.0042,0.1481,0.1503,
8.916403,0.3431,-1.0831,-0.2355,0.7675,-0.2567,0.3732,0.4709,0.1034,0.1023,
8.919027,0.3431,-1.0831,-0.2355,1.7762,-0.9877,1.0666,0.4709,0.1034,0.1023,
8.955929,0.3448,-1.1224,-0.1771,1.7762,-0.9877,1.0666,0.4709,0.1034,0.1023,
8.958466,0.3536,-1.0763,-0.0664,1.7762,-0.9877,1.0666,0.4709,0.1034,0.1023,
8.959762,0.3528,-0.9917,-0.1470,1.7762,-0.9877,1.0666,0.4709,0.1034,0.1023,
8.961146,0.3528,-0.9917,-0.1470,1.7762,-0.9877,1.0666,0.8267,-0.0245,0.2600,
8.962311,0.3528,-0.9917,-0.1470,1.0004,-1.0590,0.2553,0.8267,-0.0245,0.2600,
8.995314,0.3528,-0.9917,-0.1470,1.0004,-1.0590,0.2553,0.8618,-0.0777,0.3676,
8.997738,0.3528,-0.9917,-0.1470,-0.0232,0.4182,-0.2774,0.8618,-0.0777,0.3676,
9.035135,0.3528,-0.9917,-0.1470,-0.0232,0.4182,-0.2774,0.6743,0.0714,0.4869,
9.038118,0.3528,-0.9917,-0.1470,0.1542,0.4818,-0.5278,0.6743,0.0714,0.4869,
9.039312,0.2786,-0.9602,-0.2147,0.1542,0.4818,-0.5278,0.6743,0.0714,0.4869,
9.040560,0.2119,-0.9250,-0.1414,0.1542,0.4818,-0.5278,0.6743,0.0714,0.4869,
9.041958,0.2040,-0.8757,-0.1028,0.1542,0.4818,-0.5278,0.6743,0.0714,0.4869,
9.043228,0.2153,-0.8598,-0.1121,0.1542,0.4818,-0.5278,0.6743,0.0714,0.4869,
9.045031,0.2180,-0.8706,-0.1280,0.1542,0.4818,-0.5278,0.6743,0.0714,0.4869,
9.075557,0.2180,-0.8706,-0.1280,0.1542,0.4818,-0.5278,0.3931,0.5955,0.5955,
9.078151,0.2180,-0.8706,-0.1280,0.3531,0.5339,-0.7115,0.3931,0.5955,0.5955,
9.107970,0.2497,-0.8899,-0.1438,0.3531,0.5339,-0.7115,0.3931,0.5955,0.5955,
9.109978,0.3328,-0.8693,-0.0383,0.3531,0.5339,-0.7115,0.3931,0.5955,0.5955,
9.111786,0.4193,-0.8649,0.0120,0.3531,0.5339,-0.7115,0.3931,0.5955,0.5955,
9.114267,0.4193,-0.8649,0.0120,0.3531,0.5339,-0.7115,0.0852,0.7479,0.5902,
9.115412,0.4193,-0.8649,0.0120,0.5093,1.0213,-0.5433,0.0852,0.7479,0.5902,
9.153117,0.4193,-0.8649,0.0120,0.5093,1.0213,-0.5433,-0.2386,0.3867,0.2152,
9.154484,0.4193,-0.8649,0.0120,2.2944,0.9684,0.4015,-0.2386,0.3867,0.2152,
9.193821,0.4193,-0.8649,0.0120,2.2944,0.9684,0.4015,-0.4879,-0.0522,-0.1970,
9.196411,0.4193,-0.8649,0.0120,2.1847,0.9226,0.5802,-0.4879,-0.0522,-0.1970,
9.197959,0.4676,-0.8994,-0.0862,2.1847,0.9226,0.5802,-0.4879,-0.0522,-0.1970,
9.199096,0.4706,-0.9592,-0.0835,2.1847,0.9226,0.5802,-0.4879,-0.0522,-0.1970,
9.200206,0.4246,-0.9226,-0.0070,2.1847,0.9226,0.5802,-0.4879,-0.0522,-0.1970,
9.201355,0.2920,-0.8779,-0.0488,2.1847,0.9226,0.5802,-0.4879,-0.0522,-0.1970,
9.202586,0.1168,-0.9309,-0.1649,2.1847,0.9226,0.5802,-0.4879,-0.0522,-0.1970,
9.233322,0.1168,-0.9309,-0.1649,2.1847,0.9226,0.5802,-0.4559,-0.1842,-0.1544,
9.235625,0.1168,-0.9309,-0.1649,1.9942,0.4729,0.6663,-0.4559,-0.1842,-0.1544,
9.262785,0.0687,-1.0069,-0.1956,1.9942,0.4729,0.6663,-0.4559,-0.1842,-0.1544,
9.265046,0.1342,-0.9749,-0.0928,1.9942,0.4729,0.6663,-0.4559,-0.1842,-0.1544,
9.266366,0.1896,-0.9167,-0.0058,1.9942,0.4729,0.6663,-0.4559,-0.1842,-0.1544,
9.272977,0.1896,-0.9167,-0.0058,1.9942,0.4729,0.6663,-0.5837,-0.2950,0.0267,
9.274420,0.1896,-0.9167,-0.0058,-0.8016,-0.0526,-0.1162,-0.5837,-0.2950,0.0267,
9.312618,0.1896,-0.9167,-0.0058,-0.8016,-0.0526,-0.1162,-0.5411,-0.3664,-0.2205,
9.315271,0.1896,-0.9167,-0.0058,-0.3035,0.1309,0.9050,-0.5411,-0.3664,-0.2205,
9.333226,0.1843,-0.9302,-0.0429,-0.3035,0.1309,0.9050,-0.5411,-0.3664,-0.2205,
9.336595,0.1154,-0.9942,-0.1575,-0.3035,0.1309,0.9050,-0.5411,-0.3664,-0.2205,
9.338113,0.0450,-1.0721,-0.2570,-0.3035,0.1309,0.9050,-0.5411,-0.3664,-0.2205,
9.352619,0.0450,-1.0721,-0.2570,-0.4401,0.0452,1.1809,-0.5411,-0.3664,-0.2205,
9.355034,0.0450,-1.0721,-0.2570,-0.4401,0.0452,1.1809,-0.7819,-0.0724,-0.4005,
9.391988,0.0450,-1.0721,-0.2570,-0.4401,0.0452,1.1809,-1.1217,-0.1075,-0.3121,
9.394282,0.0450,-1.0721,-0.2570,-1.7831,-2.0238,-0.6017,-1.1217,-0.1075,-0.3121,
9.421678,0.0149,-1.1723,-0.3002,-1.7831,-2.0238,-0.6017,-1.1217,-0.1075,-0.3121,
9.423739,0.0413,-1.2045,-0.3268,-1.7831,-2.0238,-0.6017,-1.1217,-0.1075,-0.3121,
9.425259,0.0543,-1.1537,-0.3315,-1.7831,-2.0238,-0.6017,-1.1217,-0.1075,-0.3121,
9.426525,0.0201,-1.0826,-0.3290,-1.7831,-2.0238,-0.6017,-1.1217,-0.1075,-0.3121,
9.427809,0.0684,-1.0105,-0.3371,-1.7831,-2.0238,-0.6017,-1.1217,-0.1075,-0.3121,
9.432608,0.0684,-1.0105,-0.3371,-1.7831,-2.0238,-0.6017,-1.0546,-0.3536,-0.1310,
9.435047,0.0684,-1.0105,-0.3371,-1.6322,-1.4542,-0.5499,-1.0546,-0.3536,-0.1310,
9.471376,0.0684,-1.0105,-0.3371,0.4982,-0.8310,1.2434,-1.0546,-0.3536,-0.1310,
9.472870,0.0684,-1.0105,-0.3371,0.4982,-0.8310,1.2434,-0.5571,-0.6146,0.0064,
9.509014,0.2233,-1.0022,-0.2719,0.4982,-0.8310,1.2434,-0.5571,-0.6146,0.0064,
9.511451,0.3294,-1.0250,-0.1651,0.4982,-0.8310,1.2434,-0.5571,-0.6146,0.0064,
9.512667,0.2229,-1.0142,-0.0823,0.4982,-0.8310,1.2434,-0.5571,-0.6146,0.0064,
9.514786,0.0619,-0.9143,-0.0703,0.4982,-0.8310,1.2434,-0.5571,-0.6146,0.0064,
9.515936,0.0619,-0.9143,-0.0703,0.4982,-0.8310,1.2434,0.0789,-0.5869,-0.2961,
9.517062,0.0619,-0.9143,-0.0703,0.4528,-0.8316,1.2416,0.0789,-0.5869,-0.2961,
9.550951,0.0619,-0.9143,-0.0703,-1.9979,1.4181,1.9229,0.0789,-0.5869,-0.2961,
9.553282,0.0619,-0.9143,-0.0703,-1.9979,1.4181,1.9229,0.4751,-0.1001,-0.4708,
9.591799,0.0619,-0.9143,-0.0703,-1.9979,1.4181,1.9229,0.4698,0.4230,-0.5709,
9.594270,0.0619,-0.9143,-0.0703,-2.2100,1.3911,1.6858,0.4698,0.4230,-0.5709,
9.595726,0.0044,-0.7657,-0.0662,-2.2100,1.3911,1.6858,0.4698,0.4230,-0.5709,
9.596966,-0.0029,-0.6695,-0.1143,-2.2100,1.3911,1.6858,0.4698,0.4230,-0.5709,
9.598349,-0.0058,-0.6370,-0.2377,-2.2100,1.3911,1.6858,0.4698,0.4230,-0.5709,
9.599492,-0.0244,-0.6561,-0.2748,-2.2100,1.3911,1.6858,0.4698,0.4230,-0.5709,
9.600426,-0.0222,-0.7904,-0.2548,-2.2100,1.3911,1.6858,0.4698,0.4230,-0.5709,
9.629626,-0.0222,-0.7904,-0.2548,-2.2100,1.3911,1.6858,0.3558,0.4549,-0.5262,
9.632138,-0.0222,-0.7904,-0.2548,-2.7738,2.2041,-0.1720,0.3558,0.4549,-0.5262,
9.669058,-0.0222,-0.7904,-0.2548,-2.7738,2.2041,-0.1720,0.4900,0.0597,-0.2141,
9.672118,-0.0222,-0.7904,-0.2548,-1.5353,-2.1163,-0.3600,0.4900,0.0597,-0.2141,
9.673429,-0.0219,-0.9715,-0.2596,-1.5353,-2.1163,-0.3600,0.4900,0.0597,-0.2141,
9.674685,0.1019,-1.1711,-0.2770,-1.5353,-2.1163,-0.3600,0.4900,0.0597,-0.2141,
9.675964,0.2639,-1.2810,-0.2345,-1.5353,-2.1163,-0.3600,0.4900,0.0597,-0.2141,
9.677071,0.2243,-1.2414,-0.2675,-1.5353,-2.1163,-0.3600,0.4900,0.0597,-0.2141,
9.708865,0.2243,-1.2414,-0.2675,-1.5353,-2.1163,-0.3600,0.4847,-0.2801,-0.1235,
9.711061,0.2243,-1.2414,-0.2675,-1.5309,-2.0546,-0.4962,0.4847,-0.2801,-0.1235,
9.749204,0.2243,-1.2414,-0.2675,-1.5309,-2.0546,-0.4962,0.2493,-0.4442,-0.0575,
9.751885,0.2243,-1.2414,-0.2675,-1.3163,-2.5193,-1.2920,0.2493,-0.4442,-0.0575,
9.753218,0.1114,-1.1840,-0.3596,-1.3163,-2.5193,-1.2920,0.2493,-0.4442,-0.0575,
9.754771,0.0626,-1.1576,-0.3811,-1.3163,-2.5193,-1.2920,0.2493,-0.4442,-0.0575,
9.756033,0.1527,-1.0794,-0.2973,-1.3163,-2.5193,-1.2920,0.2493,-0.4442,-0.0575,
9.757222,0.2602,-0.9729,-0.2467,-1.3163,-2.5193,-1.2920,0.2493,-0.4442,-0.0575,
9.788859,0.2602,-0.9729,-0.2467,-1.3163,-2.5193,-1.2920,0.0671,-0.5773,-0.0990,
9.791508,0.2602,-0.9729,-0.2467,-1.2845,-2.4822,-1.2358,0.0671,-0.5773,-0.0990,
9.827865,0.2602,-0.9729,-0.2467,-1.2845,-2.4822,-1.2358,-0.0618,-0.9022,-0.0266,
9.830357,0.2602,-0.9729,-0.2467,-0.1649,-0.5118,-0.4840,-0.0618,-0.9022,-0.0266,
9.831666,0.3071,-0.9277,-0.2714,-0.1649,-0.5118,-0.4840,-0.0618,-0.9022,-0.0266,
9.832951,0.2615,-0.8950,-0.1788,-0.1649,-0.5118,-0.4840,-0.0618,-0.9022,-0.0266,
9.834248,0.2160,-0.8266,-0.2660,-0.1649,-0.5118,-0.4840,-0.0618,-0.9022,-0.0266,
9.835374,0.2148,-0.7912,-0.2782,-0.1649,-0.5118,-0.4840,-0.0618,-0.9022,-0.0266,
9.867129,0.2148,-0.7912,-0.2782,-0.1649,-0.5118,-0.4840,-0.0980,-1.3635,0.2610,
9.869611,0.2148,-0.7912,-0.2782,-0.0374,1.0138,-0.0156,-0.0980,-1.3635,0.2610,
9.907189,0.2148,-0.7912,-0.2782,-0.0374,1.0138,-0.0156,-0.0607,-1.0461,-0.0308,
9.909505,0.2148,-0.7912,-0.2782,2.2303,0.1638,0.3523,-0.0607,-1.0461,-0.0308,
9.910932,0.4527,-0.7855,-0.1893,2.2303,0.1638,0.3523,-0.0607,-1.0461,-0.0308,
9.912095,0.5605,-0.8967,-0.2003,2.2303,0.1638,0.3523,-0.0607,-1.0461,-0.0308,
9.913040,0.3577,-1.0873,-0.2543,2.2303,0.1638,0.3523,-0.0607,-1.0461,-0.0308,
9.914466,0.3154,-1.1713,-0.2491,2.2303,0.1638,0.3523,-0.0607,-1.0461,-0.0308,
9.946634,0.3154,-1.1713,-0.2491,2.2303,0.1638,0.3523,0.1033,-0.0628,-0.2300,
9.948738,0.3154,-1.1713,-0.2491,2.1167,0.1505,0.3146,0.1033,-0.0628,-0.2300,
9.986024,0.3154,-1.1713,-0.2491,2.1167,0.1505,0.3146,0.2269,0.0821,-0.0543,
9.989090,0.3154,-1.1713,-0.2491,1.3167,-1.1348,-0.1006,0.2269,0.0821,-0.0543,
9.990412,0.4166,-1.0582,-0.2721,1.3167,-1.1348,-0.1006,0.2269,0.0821,-0.0543,
9.991837,0.4093,-0.9443,-0.2225,1.3167,-1.1348,-0.1006,0.2269,0.0821,-0.0543,
9.993262,0.3755,-0.9590,-0.1311,1.3167,-1.1348,-0.1006,0.2269,0.0821,-0.0543,
9.994471,0.3834,-1.0599,-0.1758,1.3167,-1.1348,-0.1006,0.2269,0.0821,-0.0543,
10.025939,0.3834,-1.0599,-0.1758,1.3167,-1.1348,-0.1006,0.7010,0.0000,0.1194,
10.028253,0.3834,-1.0599,-0.1758,1.3378,-1.0448,-0.3520,0.7010,0.0000,0.1194,
10.065363,0.3834,-1.0599,-0.1758,1.3378,-1.0448,-0.3520,1.0514,-0.1672,0.2248,
10.068351,0.3834,-1.0599,-0.1758,1.5197,-0.6563,-0.0928,1.0514,-0.1672,0.2248,
10.069584,0.4166,-1.0699,-0.2430,1.5197,-0.6563,-0.0928,1.0514,-0.1672,0.2248,
10.070567,0.4435,-0.9539,-0.2391,1.5197,-0.6563,-0.0928,1.0514,-0.1672,0.2248,
10.071816,0.4151,-0.8601,-0.2457,1.5197,-0.6563,-0.0928,1.0514,-0.1672,0.2248,
10.073082,0.3401,-0.8285,-0.2359,1.5197,-0.6563,-0.0928,1.0514,-0.1672,0.2248,
10.105369,0.3401,-0.8285,-0.2359,1.7088,0.8765,-0.9797,1.0514,-0.1672,0.2248,
10.107857,0.3401,-0.8285,-0.2359,1.7088,0.8765,-0.9797,1.0514,-0.5528,0.2909,
10.145001,0.3401,-0.8285,-0.2359,1.7088,0.8765,-0.9797,0.7329,-0.7435,0.2813,
10.147608,0.3401,-0.8285,-0.2359,0.5428,1.7753,-0.6821,0.7329,-0.7435,0.2813,
10.149027,0.2903,-0.8034,-0.2711,0.5428,1.7753,-0.6821,0.7329,-0.7435,0.2813,
10.150280,0.2619,-0.7789,-0.2042,0.5428,1.7753,-0.6821,0.7329,-0.7435,0.2813,
10.151732,0.2485,-0.7943,-0.0923,0.5428,1.7753,-0.6821,0.7329,-0.7435,0.2813,
10.152953,0.1769,-0.8811,-0.1402,0.5428,1.7753,-0.6821,0.7329,-0.7435,0.2813,
10.184598,0.1769,-0.8811,-0.1402,0.5428,1.7753,-0.6821,0.4602,-0.6359,0.1481,
10.187131,0.1769,-0.8811,-0.1402,0.6163,1.7773,-0.7919,0.4602,-0.6359,0.1481,
10.224606,0.1769,-0.8811,-0.1402,0.6163,1.7773,-0.7919,0.1470,-0.5230,0.0746,
10.227711,0.1769,-0.8811,-0.1402,-0.2159,0.1750,-0.1356,0.1470,-0.5230,0.0746,
10.229046,0.1386,-0.9734,-0.1546,-0.2159,0.1750,-0.1356,0.1470,-0.5230,0.0746,
10.230184,0.2141,-1.0154,-0.0681,-0.2159,0.1750,-0.1356,0.1470,-0.5230,0.0746,
10.231222,0.2744,-0.9981,0.0118,-0.2159,0.1750,-0.1356,0.1470,-0.5230,0.0746,
10.232452,0.2270,-0.9974,0.0328,-0.2159,0.1750,-0.1356,0.1470,-0.5230,0.0746,
10.264368,0.2270,-0.9974,0.0328,-0.2159,0.1750,-0.1356,0.0117,-0.3558,-0.0266,
10.266715,0.2270,-0.9974,0.0328,-0.2076,0.1706,-0.1108,0.0117,-0.3558,-0.0266,
10.303210,0.2270,-0.9974,0.0328,-0.2076,0.1706,-0.1108,-0.0586,-0.0490,-0.0607,
10.304911,0.2270,-0.9974,0.0328,0.2086,-0.3283,1.2397,-0.0586,-0.0490,-0.0607,
10.306472,0.1630,-1.0267,0.0044,0.2086,-0.3283,1.2397,-0.0586,-0.0490,-0.0607,
10.307538,0.1027,-1.0421,0.0357,0.2086,-0.3283,1.2397,-0.0586,-0.0490,-0.0607,
10.308835,0.0352,-1.0254,0.0037,0.2086,-0.3283,1.2397,-0.0586,-0.0490,-0.0607,
10.309880,0.0081,-0.9844,-0.1026,0.2086,-0.3283,1.2397,-0.0586,-0.0490,-0.0607,
10.343023,0.0081,-0.9844,-0.1026,0.2086,-0.3283,1.2397,-0.2024,0.3217,0.1098,
10.345452,0.0081,-0.9844,-0.1026,-1.4333,-0.4189,0.9096,-0.2024,0.3217,0.1098,
10.383303,0.0081,-0.9844,-0.1026,-1.4333,-0.4189,0.9096,-0.4229,0.4965,0.1971,
10.385825,0.0081,-0.9844,-0.1026,-0.4225,0.0030,0.2840,-0.4229,0.4965,0.1971,
10.387219,0.0470,-0.9690,-0.1275,-0.4225,0.0030,0.2840,-0.4229,0.4965,0.1971,
10.388585,0.1469,-0.9785,-0.0701,-0.4225,0.0030,0.2840,-0.4229,0.4965,0.1971,
10.389813,0.2436,-0.9737,-0.0933,-0.4225,0.0030,0.2840,-0.4229,0.4965,0.1971,
10.390870,0.2693,-0.9622,-0.1592,-0.4225,0.0030,0.2840,-0.4229,0.4965,0.1971,
10.422222,0.2693,-0.9622,-0.1592,-0.4225,0.0030,0.2840,-0.6477,0.4283,0.0437,
10.424651,0.2693,-0.9622,-0.1592,-0.4214,-0.0277,0.4889,-0.6477,0.4283,0.0437,
10.463190,0.2693,-0.9622,-0.1592,-0.4214,-0.0277,0.4889,-1.0482,0.5071,-0.0617,
10.465760,0.2693,-0.9622,-0.1592,0.4711,0.2129,0.0008,-1.0482,0.5071,-0.0617,
10.467096,0.2456,-0.9473,-0.1976,0.4711,0.2129,0.0008,-1.0482,0.5071,-0.0617,
10.468339,0.2153,-0.9150,-0.1925,0.4711,0.2129,0.0008,-1.0482,0.5071,-0.0617,
10.469343,0.1862,-0.8723,-0.2105,0.4711,0.2129,0.0008,-1.0482,0.5071,-0.0617,
10.470717,0.1427,-0.8691,-0.2401,0.4711,0.2129,0.0008,-1.0482,0.5071,-0.0617,
10.501726,0.1427,-0.8691,-0.2401,0.4711,0.2129,0.0008,-1.3720,0.7074,-0.1480,
10.504250,0.1427,-0.8691,-0.2401,0.3534,0.0899,0.4479,-1.3720,0.7074,-0.1480,
10.542088,0.1427,-0.8691,-0.2401,0.3534,0.0899,0.4479,-1.2122,0.2600,-0.0841,
10.544420,0.1427,-0.8691,-0.2401,-0.5012,0.6401,0.3643,-1.2122,0.2600,-0.0841,
10.545755,0.1540,-0.8732,-0.2518,-0.5012,0.6401,0.3643,-1.2122,0.2600,-0.0841,
10.546920,0.1588,-0.9204,-0.2005,-0.5012,0.6401,0.3643,-1.2122,0.2600,-0.0841,
10.548235,0.1581,-0.8991,-0.1695,-0.5012,0.6401,0.3643,-1.2122,0.2600,-0.0841,
10.549352,0.1017,-0.8789,-0.2147,-0.5012,0.6401,0.3643,-1.2122,0.2600,-0.0841,
10.580700,0.1017,-0.8789,-0.2147,-0.5012,0.6401,0.3643,-0.8405,-0.0980,0.0789,
10.582799,0.1017,-0.8789,-0.2147,-0.6601,0.2744,1.0437,-0.8405,-0.0980,0.0789,
10.620751,0.1017,-0.8789,-0.2147,-0.6601,0.2744,1.0437,-0.3164,-0.0862,0.2238,
10.623026,0.1017,-0.8789,-0.2147,-0.5503,-1.3455,0.2330,-0.3164,-0.0862,0.2238,
10.625034,0.0841,-0.9224,-0.2088,-0.5503,-1.3455,0.2330,-0.3164,-0.0862,0.2238,
10.626171,0.1168,-1.0726,-0.2494,-0.5503,-1.3455,0.2330,-0.3164,-0.0862,0.2238,
10.627283,0.2207,-1.2001,-0.4104,-0.5503,-1.3455,0.2330,-0.3164,-0.0862,0.2238,
10.628546,0.3299,-1.1107,-0.4302,-0.5503,-1.3455,0.2330,-0.3164,-0.0862,0.2238,
10.659796,0.3299,-1.1107,-0.4302,-0.5065,-1.3314,0.2750,-0.3164,-0.0862,0.2238,
10.661904,0.3299,-1.1107,-0.4302,-0.5065,-1.3314,0.2750,-0.1257,-0.0181,0.0917,
10.699647,0.3299,-1.1107,-0.4302,-0.5065,-1.3314,0.2750,-0.1395,0.3260,-0.0873,
10.702446,0.3299,-1.1107,-0.4302,0.8265,-0.6304,-0.9044,-0.1395,0.3260,-0.0873,
10.703788,0.3035,-0.9693,-0.4101,0.8265,-0.6304,-0.9044,-0.1395,0.3260,-0.0873,
10.705157,0.2226,-0.8965,-0.4018,0.8265,-0.6304,-0.9044,-0.1395,0.3260,-0.0873,
10.706410,0.1637,-0.8447,-0.2924,0.8265,-0.6304,-0.9044,-0.1395,0.3260,-0.0873,
10.707905,0.0846,-0.8048,-0.1627,0.8265,-0.6304,-0.9044,-0.1395,0.3260,-0.0873,
10.739162,0.0846,-0.8048,-0.1627,0.8265,-0.6304,-0.9044,0.3100,0.4751,-0.1501,
10.741369,0.0846,-0.8048,-0.1627,0.7022,-0.5946,-1.0369,0.3100,0.4751,-0.1501,
10.778691,0.0846,-0.8048,-0.1627,0.7022,-0.5946,-1.0369,0.9492,0.2312,-0.0276,
10.781206,0.0846,-0.8048,-0.1627,-1.3285,1.2249,0.7750,0.9492,0.2312,-0.0276,
10.782961,-0.0097,-0.7956,-0.1167,-1.3285,1.2249,0.7750,0.9492,0.2312,-0.0276,
10.784262,-0.0730,-0.7643,-0.0896,-1.3285,1.2249,0.7750,0.9492,0.2312,-0.0276,
10.785428,0.0118,-0.7445,-0.0674,-1.3285,1.2249,0.7750,0.9492,0.2312,-0.0276,
10.786420,0.1483,-0.7357,-0.0498,-1.3285,1.2249,0.7750,0.9492,0.2312,-0.0276,
10.818824,0.1483,-0.7357,-0.0498,-1.3285,1.2249,0.7750,1.4275,0.2696,-0.1086,
10.821444,0.1483,-0.7357,-0.0498,-1.8571,1.9714,1.3962,1.4275,0.2696,-0.1086,
10.858465,0.1483,-0.7357,-0.0498,-1.8571,1.9714,1.3962,1.4232,0.6317,-0.3153,
10.861010,0.1483,-0.7357,-0.0498,-0.5709,0.3434,0.1194,1.4232,0.6317,-0.3153,
10.862116,0.2109,-0.7970,-0.1282,-0.5709,0.3434,0.1194,1.4232,0.6317,-0.3153,
10.863316,0.1965,-0.8842,-0.1177,-0.5709,0.3434,0.1194,1.4232,0.6317,-0.3153,
10.864596,0.1198,-1.0821,-0.1727,-0.5709,0.3434,0.1194,1.4232,0.6317,-0.3153,
10.865869,-0.0337,-1.3895,-0.4847,-0.5709,0.3434,0.1194,1.4232,0.6317,-0.3153,
10.898693,-0.0337,-1.3895,-0.4847,-0.5709,0.3434,0.1194,0.6307,0.3431,-0.0553,
10.900425,-0.0337,-1.3895,-0.4847,-0.5996,0.3660,-0.1443,0.6307,0.3431,-0.0553,
10.937044,-0.0337,-1.3895,-0.4847,-0.5996,0.3660,-0.1443,-0.9172,0.5476,0.1705,
10.939657,-0.0337,-1.3895,-0.4847,-0.8940,-5.1159,-5.7732,-0.9172,0.5476,0.1705,
10.941130,0.1107,-1.6355,-0.9510,-0.8940,-5.1159,-5.7732,-0.9172,0.5476,0.1705,
10.942443,0.3448,-1.4327,-0.8250,-0.8940,-5.1159,-5.7732,-0.9172,0.5476,0.1705,
10.943537,0.2822,-1.0218,-0.3163,-0.8940,-5.1159,-5.7732,-0.9172,0.5476,0.1705,
10.944764,0.1356,-0.7745,0.2006,-0.8940,-5.1159,-5.7732,-0.9172,0.5476,0.1705,
10.977286,0.1356,-0.7745,0.2006,-0.8940,-5.1159,-5.7732,-0.4857,0.0246,0.1577,
10.979993,0.1356,-0.7745,0.2006,-0.8224,-5.0489,-5.5006,-0.4857,0.0246,0.1577,
11.016624,0.1356,-0.7745,0.2006,-0.8224,-5.0489,-5.5006,0.0341,-0.4410,0.0469,
11.019431,0.1356,-0.7745,0.2006,-0.0702,1.2995,1.6300,0.0341,-0.4410,0.0469,
11.020927,0.2182,-0.7132,0.0387,-0.0702,1.2995,1.6300,0.0341,-0.4410,0.0469,
11.021951,0.4129,-0.8747,-0.5455,-0.0702,1.2995,1.6300,0.0341,-0.4410,0.0469,
11.022954,0.4452,-1.1024,-0.4575,-0.0702,1.2995,1.6300,0.0341,-0.4410,0.0469,
11.024346,0.4620,-1.0614,-0.0847,-0.0702,1.2995,1.6300,0.0341,-0.4410,0.0469,
11.056156,0.4620,-1.0614,-0.0847,-0.0702,1.2995,1.6300,0.0117,-0.2386,-0.0809,
11.058105,0.4620,-1.0614,-0.0847,2.1159,-0.4271,-1.6282,0.0117,-0.2386,-0.0809,
11.087417,0.3330,-0.9304,-0.0803,2.1159,-0.4271,-1.6282,0.0117,-0.2386,-0.0809,
11.090318,0.2622,-0.9270,-0.2247,2.1159,-0.4271,-1.6282,0.0117,-0.2386,-0.0809,
11.091612,0.3736,-1.0123,-0.2235,2.1159,-0.4271,-1.6282,0.0117,-0.2386,-0.0809,
11.095730,0.3736,-1.0123,-0.2235,2.1159,-0.4271,-1.6282,0.2504,0.0160,0.0256,
11.097144,0.3736,-1.0123,-0.2235,0.9606,0.1428,0.1011,0.2504,0.0160,0.0256,
11.135642,0.3736,-1.0123,-0.2235,0.9606,0.1428,0.1011,0.4091,0.4123,0.0384,
11.138414,0.3736,-1.0123,-0.2235,0.9162,-0.4917,0.3435,0.4091,0.4123,0.0384,
11.175220,0.3736,-1.0123,-0.2235,0.9162,-0.4917,0.3435,0.7095,0.4741,0.0917,
11.177819,0.3736,-1.0123,-0.2235,0.9078,-0.4348,0.0315,0.7095,0.4741,0.0917,
11.179247,0.3474,-1.0684,-0.1221,0.9078,-0.4348,0.0315,0.7095,0.4741,0.0917,
11.180404,0.2952,-1.0430,-0.1177,0.9078,-0.4348,0.0315,0.7095,0.4741,0.0917,
11.181522,0.3216,-0.9646,-0.1544,0.9078,-0.4348,0.0315,0.7095,0.4741,0.0917,
11.182521,0.3467,-0.9109,-0.1991,0.9078,-0.4348,0.0315,0.7095,0.4741,0.0917,
11.183643,0.3140,-0.9121,-0.2262,0.9078,-0.4348,0.0315,0.7095,0.4741,0.0917,
11.214581,0.3140,-0.9121,-0.2262,0.9078,-0.4348,0.0315,0.7116,0.3207,0.3292,
11.216750,0.3140,-0.9121,-0.2262,1.0016,-0.3671,-0.2638,0.7116,0.3207,0.3292,
11.255838,0.3140,-0.9121,-0.2262,1.0016,-0.3671,-0.2638,0.6967,0.0320,0.4762,
11.258456,0.3140,-0.9121,-0.2262,1.1944,0.8557,-1.2343,0.6967,0.0320,0.4762,
11.259835,0.3130,-0.8938,-0.1895,1.1944,0.8557,-1.2343,0.6967,0.0320,0.4762,
11.261527,0.3477,-0.8745,-0.1712,1.1944,0.8557,-1.2343,0.6967,0.0320,0.4762,
11.262743,0.3455,-0.8794,-0.1829,1.1944,0.8557,-1.2343,0.6967,0.0320,0.4762,
11.263934,0.3472,-0.8669,-0.2037,1.1944,0.8557,-1.2343,0.6967,0.0320,0.4762,
11.293803,0.3472,-0.8669,-0.2037,1.1944,0.8557,-1.2343,0.5955,-0.0468,0.4634,
11.295650,0.3472,-0.8669,-0.2037,1.5661,1.1994,-1.2540,0.5955,-0.0468,0.4634,
11.333697,0.3472,-0.8669,-0.2037,1.5414,1.3891,-0.5040,0.5955,-0.0468,0.4634,
11.336257,0.3472,-0.8669,-0.2037,1.5414,1.3891,-0.5040,0.3441,-0.0948,0.4208,
11.337620,0.3443,-0.8178,-0.1504,1.5414,1.3891,-0.5040,0.3441,-0.0948,0.4208,
11.339020,0.3330,-0.8349,-0.0862,1.5414,1.3891,-0.5040,0.3441,-0.0948,0.4208,
11.340002,0.3130,-0.9138,-0.0554,1.5414,1.3891,-0.5040,0.3441,-0.0948,0.4208,
11.341036,0.3294,-0.9482,-0.0591,1.5414,1.3891,-0.5040,0.3441,-0.0948,0.4208,
11.373074,0.3294,-0.9482,-0.0591,1.5414,1.3891,-0.5040,0.0469,0.0267,0.2525,
11.374921,0.3294,-0.9482,-0.0591,1.6115,1.3829,-0.5151,0.0469,0.0267,0.2525,
11.413220,0.3294,-0.9482,-0.0591,1.8156,0.5915,-0.1373,0.0469,0.0267,0.2525,
11.415620,0.3294,-0.9482,-0.0591,1.8156,0.5915,-0.1373,-0.3441,-0.0564,-0.0063,
11.416991,0.3638,-0.9363,-0.1006,1.8156,0.5915,-0.1373,-0.3441,-0.0564,-0.0063,
11.418156,0.3694,-0.9189,-0.0593,1.8156,0.5915,-0.1373,-0.3441,-0.0564,-0.0063,
11.419258,0.3377,-0.8901,0.0316,1.8156,0.5915,-0.1373,-0.3441,-0.0564,-0.0063,
11.420487,0.2881,-0.8547,-0.0200,1.8156,0.5915,-0.1373,-0.3441,-0.0564,-0.0063,
11.452578,0.2881,-0.8547,-0.0200,1.8156,0.5915,-0.1373,-0.4644,-0.5763,-0.1107,
11.455043,0.2881,-0.8547,-0.0200,1.7590,0.5620,0.0786,-0.4644,-0.5763,-0.1107,
11.493123,0.2881,-0.8547,-0.0200,1.7590,0.5620,0.0786,-0.7680,-0.6743,-0.0671,
11.495483,0.2881,-0.8547,-0.0200,0.9172,1.1557,0.7629,-0.7680,-0.6743,-0.0671,
11.497255,0.1840,-0.8605,-0.1216,0.9172,1.1557,0.7629,-0.7680,-0.6743,-0.0671,
11.498506,0.1171,-0.9167,-0.1460,0.9172,1.1557,0.7629,-0.7680,-0.6743,-0.0671,
11.499535,0.1610,-0.9414,-0.1084,0.9172,1.1557,0.7629,-0.7680,-0.6743,-0.0671,
11.500724,0.2378,-0.9759,-0.1011,0.9172,1.1557,0.7629,-0.7680,-0.6743,-0.0671,
11.532316,0.2378,-0.9759,-0.1011,0.9172,1.1557,0.7629,-1.0205,-0.4889,-0.2247,
11.534696,0.2378,-0.9759,-0.1011,-0.1014,0.3334,0.3778,-1.0205,-0.4889,-0.2247,
11.571915,0.2378,-0.9759,-0.1011,-0.1014,0.3334,0.3778,-1.2474,-0.2588,-0.4133,
11.574460,0.2378,-0.9759,-0.1011,-0.3024,-2.5465,-0.5589,-1.2474,-0.2588,-0.4133,
11.575888,0.2414,-1.1217,-0.1541,-0.3024,-2.5465,-0.5589,-1.2474,-0.2588,-0.4133,
11.577744,0.1698,-1.2832,-0.2592,-0.3024,-2.5465,-0.5589,-1.2474,-0.2588,-0.4133,
11.579086,0.0838,-1.2876,-0.3820,-0.3024,-2.5465,-0.5589,-1.2474,-0.2588,-0.4133,
11.580286,0.0501,-1.1540,-0.4524,-0.3024,-2.5465,-0.5589,-1.2474,-0.2588,-0.4133,
11.611613,0.0501,-1.1540,-0.4524,-0.3024,-2.5465,-0.5589,-1.7960,-0.0383,-0.3035,
11.614152,0.0501,-1.1540,-0.4524,-0.4059,-2.6940,0.1129,-1.7960,-0.0383,-0.3035,
11.651258,0.0501,-1.1540,-0.4524,-0.4059,-2.6940,0.1129,-1.6320,-0.0894,-0.1214,
11.653646,0.0501,-1.1540,-0.4524,-1.3672,-1.8476,-0.7699,-1.6320,-0.0894,-0.1214,
11.655091,0.0443,-1.1048,-0.4402,-1.3672,-1.8476,-0.7699,-1.6320,-0.0894,-0.1214,
11.656164,0.1097,-1.1215,-0.3627,-1.3672,-1.8476,-0.7699,-1.6320,-0.0894,-0.1214,
11.658114,0.1576,-1.1290,-0.2316,-1.3672,-1.8476,-0.7699,-1.6320,-0.0894,-0.1214,
11.659217,0.2043,-1.1344,-0.1321,-1.3672,-1.8476,-0.7699,-1.6320,-0.0894,-0.1214,
11.690466,0.2043,-1.1344,-0.1321,-1.3672,-1.8476,-0.7699,-0.7414,-0.3866,-0.0926,
11.693067,0.2043,-1.1344,-0.1321,-1.3242,-1.9245,-0.4626,-0.7414,-0.3866,-0.0926,
11.730901,0.2043,-1.1344,-0.1321,-1.3242,-1.9245,-0.4626,0.0160,-0.5155,-0.2109,
11.733340,0.2043,-1.1344,-0.1321,-0.0671,-1.7848,2.1197,0.0160,-0.5155,-0.2109,
11.734738,0.2270,-1.0790,-0.1008,-0.0671,-1.7848,2.1197,0.0160,-0.5155,-0.2109,
11.735871,0.1696,-0.9719,-0.1802,-0.0671,-1.7848,2.1197,0.0160,-0.5155,-0.2109,
11.736855,0.1149,-0.8742,-0.2323,-0.0671,-1.7848,2.1197,0.0160,-0.5155,-0.2109,
11.738393,0.0951,-0.8190,-0.2511,-0.0671,-1.7848,2.1197,0.0160,-0.5155,-0.2109,
11.770101,0.0951,-0.8190,-0.2511,-0.0671,-1.7848,2.1197,0.3185,-0.2269,-0.2737,
11.772783,0.0951,-0.8190,-0.2511,-0.8041,0.4434,1.3491,0.3185,-0.2269,-0.2737,
11.810231,0.0951,-0.8190,-0.2511,-0.8041,0.4434,1.3491,0.4272,0.3303,-0.3536,
11.812826,0.0951,-0.8190,-0.2511,-2.0305,1.9533,0.9808,0.4272,0.3303,-0.3536,
11.814254,0.0772,-0.7965,-0.2621,-2.0305,1.9533,0.9808,0.4272,0.3303,-0.3536,
11.815562,0.0152,-0.7494,-0.2355,-2.0305,1.9533,0.9808,0.4272,0.3303,-0.3536,
11.816512,-0.0459,-0.6556,-0.2176,-2.0305,1.9533,0.9808,0.4272,0.3303,-0.3536,
11.817912,-0.0383,-0.5679,-0.2127,-2.0305,1.9533,0.9808,0.4272,0.3303,-0.3536,
11.848869,-0.0383,-0.5679,-0.2127,-2.0305,1.9533,0.9808,0.6221,0.6040,-0.3035,
11.851352,-0.0383,-0.5679,-0.2127,-2.1799,1.9709,0.6883,0.6221,0.6040,-0.3035,
11.889162,-0.0383,-0.5679,-0.2127,-2.1799,1.9709,0.6883,0.7478,0.2664,-0.2748,
11.891888,-0.0383,-0.5679,-0.2127,-2.0673,3.6119,0.5028,0.7478,0.2664,-0.2748,
11.893229,0.0262,-0.5398,-0.2110,-2.0673,3.6119,0.5028,0.7478,0.2664,-0.2748,
11.894630,0.1224,-0.5908,-0.2545,-2.0673,3.6119,0.5028,0.7478,0.2664,-0.2748,
11.895821,0.1520,-0.8073,-0.3901,-2.0673,3.6119,0.5028,0.7478,0.2664,-0.2748,
11.897062,0.1803,-1.1498,-0.6053,-2.0673,3.6119,0.5028,0.7478,0.2664,-0.2748,
11.928309,0.1803,-1.1498,-0.6053,-2.0673,3.6119,0.5028,0.3526,-0.1086,-0.2428,
11.930524,0.1803,-1.1498,-0.6053,-2.1086,3.5648,0.3789,0.3526,-0.1086,-0.2428,
11.967208,0.1803,-1.1498,-0.6053,-2.1086,3.5648,0.3789,-0.1246,0.5497,-0.1470,
11.969365,0.1803,-1.1498,-0.6053,-0.3744,-2.0777,-2.6674,-0.1246,0.5497,-0.1470,
11.970899,0.3404,-1.4711,-0.6261,-0.3744,-2.0777,-2.6674,-0.1246,0.5497,-0.1470,
11.972066,0.3751,-1.5641,-0.6156,-0.3744,-2.0777,-2.6674,-0.1246,0.5497,-0.1470,
11.974250,0.2888,-1.2375,-0.4883,-0.3744,-2.0777,-2.6674,-0.1246,0.5497,-0.1470,
11.975365,0.0824,-0.8713,-0.0513,-0.3744,-2.0777,-2.6674,-0.1246,0.5497,-0.1470,
12.007549,0.0824,-0.8713,-0.0513,-0.3744,-2.0777,-2.6674,0.0405,0.4815,0.0650,
12.009863,0.0824,-0.8713,-0.0513,-0.1576,-2.8187,-1.1879,0.0405,0.4815,0.0650,
12.039613,-0.0517,-0.7506,0.0289,-0.1576,-2.8187,-1.1879,0.0405,0.4815,0.0650,
12.042304,-0.0183,-0.8026,-0.3395,-0.1576,-2.8187,-1.1879,0.0405,0.4815,0.0650,
12.043284,0.1437,-0.9145,-0.3219,-0.1576,-2.8187,-1.1879,0.0405,0.4815,0.0650,
12.046089,0.1437,-0.9145,-0.3219,-0.1576,-2.8187,-1.1879,0.5795,-0.3323,0.3995,
12.047607,0.1437,-0.9145,-0.3219,-2.1398,1.1949,0.3342,0.5795,-0.3323,0.3995,
12.086120,0.1437,-0.9145,-0.3219,-2.1398,1.1949,0.3342,0.4559,0.0917,0.3963,
12.087357,0.1437,-0.9145,-0.3219,0.5992,-0.0933,0.6640,0.4559,0.0917,0.3963,
12.124533,0.1437,-0.9145,-0.3219,0.5992,-0.0933,0.6640,0.3718,0.5668,0.0022,
12.125640,0.1437,-0.9145,-0.3219,0.5434,-0.0609,0.4675,0.3718,0.5668,0.0022,
12.126176,0.2610,-1.0054,-0.1920,0.5434,-0.0609,0.4675,0.3718,0.5668,0.0022,
12.126611,0.2976,-0.9876,-0.1722,0.5434,-0.0609,0.4675,0.3718,0.5668,0.0022,
12.127005,0.3145,-0.8935,-0.1101,0.5434,-0.0609,0.4675,0.3718,0.5668,0.0022,
12.127504,0.2937,-0.8615,-0.0869,0.5434,-0.0609,0.4675,0.3718,0.5668,0.0022,
12.127909,0.2307,-0.9304,-0.2235,0.5434,-0.0609,0.4675,0.3718,0.5668,0.0022,
12.164133,0.2307,-0.9304,-0.2235,0.5434,-0.0609,0.4675,0.3132,0.3686,-0.1842,
12.165229,0.2307,-0.9304,-0.2235,0.4391,-0.0531,0.3115,0.3132,0.3686,-0.1842,
12.204352,0.2307,-0.9304,-0.2235,0.4391,-0.0531,0.3115,-0.2130,0.0565,0.0874,
12.206206,0.1403,-0.9898,-0.3390,0.4391,-0.0531,0.3115,-0.2130,0.0565,0.0874,
12.206735,0.0794,-0.9365,-0.3056,0.4391,-0.0531,0.3115,-0.2130,0.0565,0.0874,
12.207218,0.1036,-0.8408,-0.1634,0.4391,-0.0531,0.3115,-0.2130,0.0565,0.0874,
12.207698,0.2101,-0.8417,-0.0674,0.4391,-0.0531,0.3115,-0.2130,0.0565,0.0874,
12.208066,0.2101,-0.8417,-0.0674,-0.2098,0.2769,-0.1839,-0.2130,0.0565,0.0874,
12.245656,0.2101,-0.8417,-0.0674,-0.9821,0.7787,0.3676,-0.2130,0.0565,0.0874,
12.248403,0.2101,-0.8417,-0.0674,-0.9821,0.7787,0.3676,-0.5646,0.2291,0.3132,
12.285453,0.2101,-0.8417,-0.0674,-0.9821,0.7787,0.3676,-0.1853,0.4847,0.2994,
12.287969,0.2101,-0.8417,-0.0674,0.4250,-1.1943,1.4212,-0.1853,0.4847,0.2994,
12.289228,0.2145,-0.9839,-0.1145,0.4250,-1.1943,1.4212,-0.1853,0.4847,0.2994,
12.290480,0.2343,-1.1273,-0.0943,0.4250,-1.1943,1.4212,-0.1853,0.4847,0.2994,
12.291800,0.3560,-1.1212,-0.0056,0.4250,-1.1943,1.4212,-0.1853,0.4847,0.2994,
12.293075,0.4632,-1.0423,-0.1182,0.4250,-1.1943,1.4212,-0.1853,0.4847,0.2994,
12.324403,0.4632,-1.0423,-0.1182,0.4748,-1.1322,1.2650,-0.1853,0.4847,0.2994,
12.326980,0.4632,-1.0423,-0.1182,0.4748,-1.1322,1.2650,0.2120,0.6488,0.2983,
12.364472,0.4632,-1.0423,-0.1182,0.4748,-1.1322,1.2650,0.5135,0.4453,0.3292,
12.366791,0.4632,-1.0423,-0.1182,2.1796,-0.8461,0.1907,0.5135,0.4453,0.3292,
12.368137,0.4469,-1.0445,-0.2550,2.1796,-0.8461,0.1907,0.5135,0.4453,0.3292,
12.369293,0.4002,-1.0824,-0.0986,2.1796,-0.8461,0.1907,0.5135,0.4453,0.3292,
12.370565,0.4740,-1.0240,-0.0571,2.1796,-0.8461,0.1907,0.5135,0.4453,0.3292,
12.371921,0.4606,-0.9803,-0.1756,2.1796,-0.8461,0.1907,0.5135,0.4453,0.3292,
12.403741,0.4606,-0.9803,-0.1756,2.1796,-0.8461,0.1907,0.8320,0.3580,0.2365,
12.406021,0.4606,-0.9803,-0.1756,2.2091,-0.7624,-0.1506,0.8320,0.3580,0.2365,
12.443441,0.4606,-0.9803,-0.1756,2.2091,-0.7624,-0.1506,0.7265,0.2621,0.2813,
12.445522,0.4606,-0.9803,-0.1756,2.3804,0.0846,-0.2749,0.7265,0.2621,0.2813,
12.446693,0.4117,-0.9231,-0.1873,2.3804,0.0846,-0.2749,0.7265,0.2621,0.2813,
12.448037,0.3572,-0.8305,-0.1289,2.3804,0.0846,-0.2749,0.7265,0.2621,0.2813,
12.449240,0.2810,-0.8112,-0.1805,2.3804,0.0846,-0.2749,0.7265,0.2621,0.2813,
12.450573,0.2935,-0.8263,-0.1851,2.3804,0.0846,-0.2749,0.7265,0.2621,0.2813,
12.483396,0.2935,-0.8263,-0.1851,1.1525,1.6079,-0.7085,0.7265,0.2621,0.2813,
12.485808,0.2935,-0.8263,-0.1851,1.1525,1.6079,-0.7085,0.4719,0.2781,0.4091,
12.522889,0.2935,-0.8263,-0.1851,1.1525,1.6079,-0.7085,0.1204,0.3473,0.3516,
12.525369,0.2935,-0.8263,-0.1851,1.3855,0.9558,-0.4671,0.1204,0.3473,0.3516,
12.526695,0.3416,-0.8706,-0.1656,1.3855,0.9558,-0.4671,0.1204,0.3473,0.3516,
12.528215,0.3247,-0.9116,-0.1609,1.3855,0.9558,-0.4671,0.1204,0.3473,0.3516,
12.529493,0.3062,-0.8896,-0.0747,1.3855,0.9558,-0.4671,0.1204,0.3473,0.3516,
12.530576,0.2961,-0.8652,-0.0569,1.3855,0.9558,-0.4671,0.1204,0.3473,0.3516,
12.562896,0.2961,-0.8652,-0.0569,1.3855,0.9558,-0.4671,-0.2897,0.2685,0.2067,
12.565074,0.2961,-0.8652,-0.0569,1.4312,0.9440,-0.3683,-0.2897,0.2685,0.2067,
12.599660,0.3428,-0.8654,-0.1368,1.4312,0.9440,-0.3683,-0.2897,0.2685,0.2067,
12.602264,0.3821,-0.8525,-0.1316,1.4312,0.9440,-0.3683,-0.2897,0.2685,0.2067,
12.603659,0.3213,-0.8398,-0.1197,1.4312,0.9440,-0.3683,-0.2897,0.2685,0.2067,
12.605143,0.3213,-0.8398,-0.1197,1.5411,1.1812,0.1330,-0.2897,0.2685,0.2067,
12.606391,0.3213,-0.8398,-0.1197,1.5411,1.1812,0.1330,-0.6956,0.1588,-0.0426,
12.642142,0.3213,-0.8398,-0.1197,1.5411,1.1812,0.1330,-0.8671,-0.1949,-0.2013,
12.644297,0.3213,-0.8398,-0.1197,0.3201,1.2289,0.3260,-0.8671,-0.1949,-0.2013,
12.681914,0.3213,-0.8398,-0.1197,0.3201,1.2289,0.3260,-0.8213,-0.1555,-0.3749,
12.684461,0.3213,-0.8398,-0.1197,0.1862,1.1260,0.6363,-0.8213,-0.1555,-0.3749,
12.685672,0.1999,-0.8478,-0.1363,0.1862,1.1260,0.6363,-0.8213,-0.1555,-0.3749,
12.686849,0.1478,-0.8557,-0.1138,0.1862,1.1260,0.6363,-0.8213,-0.1555,-0.3749,
12.688208,0.1063,-0.9001,-0.0495,0.1862,1.1260,0.6363,-0.8213,-0.1555,-0.3749,
12.689455,0.0027,-1.0865,-0.1013,0.1862,1.1260,0.6363,-0.8213,-0.1555,-0.3749,
12.690587,-0.0908,-1.3262,-0.1910,0.1862,1.1260,0.6363,-0.8213,-0.1555,-0.3749,
12.720926,-0.0908,-1.3262,-0.1910,0.1862,1.1260,0.6363,-0.9395,0.3100,-0.3557,
12.722996,-0.0908,-1.3262,-0.1910,-2.0622,-1.4671,1.0332,-0.9395,0.3100,-0.3557,
12.760341,-0.0908,-1.3262,-0.1910,-2.0622,-1.4671,1.0332,-1.3145,0.1875,-0.0490,
12.762380,-0.0908,-1.3262,-0.1910,-1.9177,-3.1023,-0.8489,-1.3145,0.1875,-0.0490,
12.763729,-0.1089,-1.4088,-0.2530,-1.9177,-3.1023,-0.8489,-1.3145,0.1875,-0.0490,
12.764868,0.0042,-1.2707,-0.3679,-1.9177,-3.1023,-0.8489,-1.3145,0.1875,-0.0490,
12.766376,0.1681,-1.1107,-0.4448,-1.9177,-3.1023,-0.8489,-1.3145,0.1875,-0.0490,
12.767691,0.1764,-1.0941,-0.4522,-1.9177,-3.1023,-0.8489,-1.3145,0.1875,-0.0490,
12.800490,0.1764,-1.0941,-0.4522,-1.9177,-3.1023,-0.8489,-1.3539,-0.1661,-0.1118,
12.802919,0.1764,-1.0941,-0.4522,-1.9065,-3.2120,-0.3357,-1.3539,-0.1661,-0.1118,
12.840392,0.1764,-1.0941,-0.4522,-1.9065,-3.2120,-0.3357,-0.8309,-0.1161,-0.0628,
12.842657,0.1764,-1.0941,-0.4522,-1.0817,-1.6014,-0.3189,-0.8309,-0.1161,-0.0628,
12.844236,0.0956,-1.0987,-0.3894,-1.0817,-1.6014,-0.3189,-0.8309,-0.1161,-0.0628,
12.845504,0.0406,-1.0777,-0.3156,-1.0817,-1.6014,-0.3189,-0.8309,-0.1161,-0.0628,
12.846745,0.0323,-1.0301,-0.1939,-1.0817,-1.6014,-0.3189,-0.8309,-0.1161,-0.0628,
12.847945,0.1073,-0.9798,-0.1192,-1.0817,-1.6014,-0.3189,-0.8309,-0.1161,-0.0628,
12.879585,0.1073,-0.9798,-0.1192,-1.0817,-1.6014,-0.3189,-0.2237,-0.0319,-0.0436,
12.881935,0.1073,-0.9798,-0.1192,-1.0747,-1.6088,-0.2319,-0.2237,-0.0319,-0.0436,
12.919491,0.1073,-0.9798,-0.1192,-1.0747,-1.6088,-0.2319,0.2642,0.0150,-0.2695,
12.921910,0.1073,-0.9798,-0.1192,-1.2264,-0.5169,2.0072,0.2642,0.0150,-0.2695,
12.923176,0.1505,-0.9333,-0.1187,-1.2264,-0.5169,2.0072,0.2642,0.0150,-0.2695,
12.924576,0.1112,-0.8569,-0.1634,-1.2264,-0.5169,2.0072,0.2642,0.0150,-0.2695,
12.925754,0.0726,-0.7469,-0.1930,-1.2264,-0.5169,2.0072,0.2642,0.0150,-0.2695,
12.927125,0.0794,-0.6685,-0.1715,-1.2264,-0.5169,2.0072,0.2642,0.0150,-0.2695,
12.958527,0.0794,-0.6685,-0.1715,-1.2264,-0.5169,2.0072,0.5060,0.2696,-0.3451,
12.960292,0.0794,-0.6685,-0.1715,-1.4495,1.6818,1.4619,0.5060,0.2696,-0.3451,
12.996903,0.0794,-0.6685,-0.1715,-1.4495,1.6818,1.4619,0.6956,0.4091,-0.3206,
12.999372,0.0794,-0.6685,-0.1715,-2.3052,3.1158,1.0371,0.6956,0.4091,-0.3206,
13.001190,0.0819,-0.6045,-0.1741,-2.3052,3.1158,1.0371,0.6956,0.4091,-0.3206,
13.002763,-0.0031,-0.5740,-0.1509,-2.3052,3.1158,1.0371,0.6956,0.4091,-0.3206,
13.003617,-0.0388,-0.6551,-0.2384,-2.3052,3.1158,1.0371,0.6956,0.4091,-0.3206,
13.004512,0.0130,-0.8637,-0.2836,-2.3052,3.1158,1.0371,0.6956,0.4091,-0.3206,
13.037414,0.0130,-0.8637,-0.2836,-2.3052,3.1158,1.0371,0.7872,-0.0021,-0.1374,
13.039289,0.0130,-0.8637,-0.2836,-2.3158,3.1345,0.7396,0.7872,-0.0021,-0.1374,
13.076872,0.0130,-0.8637,-0.2836,-2.3158,3.1345,0.7396,0.5859,-0.2546,-0.1480,
13.078965,0.0130,-0.8637,-0.2836,-0.9895,-1.5634,-0.7646,0.5859,-0.2546,-0.1480,
13.080368,0.1554,-1.0997,-0.3256,-0.9895,-1.5634,-0.7646,0.5859,-0.2546,-0.1480,
13.081676,0.2812,-1.3296,-0.3613,-0.9895,-1.5634,-0.7646,0.5859,-0.2546,-0.1480,
13.082767,0.2119,-1.3851,-0.3539,-0.9895,-1.5634,-0.7646,0.5859,-0.2546,-0.1480,
13.083860,-0.0271,-1.2297,-0.4773,-0.9895,-1.5634,-0.7646,0.5859,-0.2546,-0.1480,
13.115756,-0.0271,-1.2297,-0.4773,-0.9895,-1.5634,-0.7646,0.0980,-0.0916,-0.1501,
13.118608,-0.0271,-1.2297,-0.4773,-1.0183,-1.5428,-0.7782,0.0980,-0.0916,-0.1501,
13.156862,-0.0271,-1.2297,-0.4773,-1.0183,-1.5428,-0.7782,0.0245,-0.4900,-0.0958,
13.159443,-0.0271,-1.2297,-0.4773,-1.8208,-2.7797,-2.0725,0.0245,-0.4900,-0.0958,
13.160880,0.0062,-1.0692,-0.5582,-1.8208,-2.7797,-2.0725,0.0245,-0.4900,-0.0958,
13.161899,0.2165,-0.9275,-0.2736,-1.8208,-2.7797,-2.0725,0.0245,-0.4900,-0.0958,
13.163111,0.3548,-0.8762,-0.1170,-1.8208,-2.7797,-2.0725,0.0245,-0.4900,-0.0958,
13.164446,0.4681,-0.9370,-0.3092,-1.8208,-2.7797,-2.0725,0.0245,-0.4900,-0.0958,
13.196618,0.4681,-0.9370,-0.3092,-1.8208,-2.7797,-2.0725,0.0767,-1.1163,-0.0926,
13.198826,0.4681,-0.9370,-0.3092,1.0106,0.2954,0.2545,0.0767,-1.1163,-0.0926,
13.236986,0.4681,-0.9370,-0.3092,1.0106,0.2954,0.2545,-0.0053,-1.4146,0.0160,
13.239292,0.4681,-0.9370,-0.3092,1.5536,-0.1199,-0.1476,-0.0053,-1.4146,0.0160,
13.240766,0.5319,-0.9944,-0.4666,1.5536,-0.1199,-0.1476,-0.0053,-1.4146,0.0160,
13.242070,0.3741,-0.9771,-0.2858,1.5536,-0.1199,-0.1476,-0.0053,-1.4146,0.0160,
13.243281,0.2612,-0.8972,-0.1116,1.5536,-0.1199,-0.1476,-0.0053,-1.4146,0.0160,
13.244459,0.3237,-0.9158,-0.1524,1.5536,-0.1199,-0.1476,-0.0053,-1.4146,0.0160,
13.275823,0.3237,-0.9158,-0.1524,1.5536,-0.1199,-0.1476,0.2184,-1.2985,0.0810,
13.278444,0.3237,-0.9158,-0.1524,1.6936,-0.0881,-0.1138,0.2184,-1.2985,0.0810,
13.316228,0.3237,-0.9158,-0.1524,1.6936,-0.0881,-0.1138,0.2855,-0.0149,0.0448,
13.318472,0.3237,-0.9158,-0.1524,0.5252,-0.8365,0.4326,0.2855,-0.0149,0.0448,
13.319774,0.2558,-1.0704,-0.2440,0.5252,-0.8365,0.4326,0.2855,-0.0149,0.0448,
13.320972,0.2270,-1.1263,-0.2662,0.5252,-0.8365,0.4326,0.2855,-0.0149,0.0448,
13.322082,0.3677,-1.0281,-0.2384,0.5252,-0.8365,0.4326,0.2855,-0.0149,0.0448,
13.323059,0.4535,-0.9661,-0.1964,0.5252,-0.8365,0.4326,0.2855,-0.0149,0.0448,
13.355036,0.4535,-0.9661,-0.1964,0.4990,-0.7664,0.1986,0.2855,-0.0149,0.0448,
13.357628,0.4535,-0.9661,-0.1964,0.4990,-0.7664,0.1986,0.5667,0.2419,0.0160,
13.394696,0.4535,-0.9661,-0.1964,0.4990,-0.7664,0.1986,0.9502,-0.2684,0.0906,
13.397080,0.4535,-0.9661,-0.1964,2.0682,-0.1195,0.0518,0.9502,-0.2684,0.0906,
13.398932,0.4591,-0.9485,-0.1705,2.0682,-0.1195,0.0518,0.9502,-0.2684,0.0906,
13.399951,0.4613,-0.9478,-0.2614,2.0682,-0.1195,0.0518,0.9502,-0.2684,0.0906,
13.401239,0.4386,-0.9480,-0.2665,2.0682,-0.1195,0.0518,0.9502,-0.2684,0.0906,
13.402398,0.3902,-0.9255,-0.2501,2.0682,-0.1195,0.0518,0.9502,-0.2684,0.0906,
13.434243,0.3902,-0.9255,-0.2501,2.0682,-0.1195,0.0518,1.1207,-0.6359,0.2280,
13.436427,0.3902,-0.9255,-0.2501,2.1954,0.3712,-0.8701,1.1207,-0.6359,0.2280,
13.474378,0.3902,-0.9255,-0.2501,2.1954,0.3712,-0.8701,1.0259,-0.8692,0.2451,
13.476771,0.3902,-0.9255,-0.2501,0.9462,1.9452,-0.6380,1.0259,-0.8692,0.2451,
13.478833,0.3431,-0.8588,-0.2237,0.9462,1.9452,-0.6380,1.0259,-0.8692,0.2451,
13.479837,0.2966,-0.7701,-0.2013,0.9462,1.9452,-0.6380,1.0259,-0.8692,0.2451,
13.480913,0.2285,-0.7250,-0.1859,0.9462,1.9452,-0.6380,1.0259,-0.8692,0.2451,
13.482241,0.2119,-0.7657,-0.1900,0.9462,1.9452,-0.6380,1.0259,-0.8692,0.2451,
13.513222,0.2119,-0.7657,-0.1900,0.9462,1.9452,-0.6380,0.7500,-0.8085,0.2674,
13.515562,0.2119,-0.7657,-0.1900,1.0701,1.9680,-0.8523,0.7500,-0.8085,0.2674,
13.554067,0.2119,-0.7657,-0.1900,1.0701,1.9680,-0.8523,0.3558,-0.6966,0.2333,
13.556373,0.2119,-0.7657,-0.1900,0.2185,0.7526,-0.6002,0.3558,-0.6966,0.2333,
13.557935,0.1948,-0.9204,-0.1829,0.2185,0.7526,-0.6002,0.3558,-0.6966,0.2333,
13.558775,0.1654,-1.0455,-0.1365,0.2185,0.7526,-0.6002,0.3558,-0.6966,0.2333,
13.560049,0.1667,-1.0325,-0.1114,0.2185,0.7526,-0.6002,0.3558,-0.6966,0.2333,
13.560940,0.1913,-0.9658,-0.0825,0.2185,0.7526,-0.6002,0.3558,-0.6966,0.2333,
13.592670,0.1913,-0.9658,-0.0825,0.2185,0.7526,-0.6002,0.0054,-0.4133,0.1279,
13.595012,0.1913,-0.9658,-0.0825,0.2803,0.7483,-0.5662,0.0054,-0.4133,0.1279,
13.632809,0.1913,-0.9658,-0.0825,0.2803,0.7483,-0.5662,-0.1576,-0.2503,-0.0479,
13.634664,0.1913,-0.9658,-0.0825,0.1917,-0.0275,0.3924,-0.1576,-0.2503,-0.0479,
13.636304,0.1901,-0.9678,-0.0434,0.1917,-0.0275,0.3924,-0.1576,-0.2503,-0.0479,
13.637516,0.1904,-0.9861,0.0005,0.1917,-0.0275,0.3924,-0.1576,-0.2503,-0.0479,
13.638499,0.1498,-1.0250,0.0438,0.1917,-0.0275,0.3924,-0.1576,-0.2503,-0.0479,
13.639647,0.0369,-1.0501,-0.0063,0.1917,-0.0275,0.3924,-0.1576,-0.2503,-0.0479,
13.672110,0.0369,-1.0501,-0.0063,0.1917,-0.0275,0.3924,-0.1118,-0.0404,-0.0809,
13.673894,0.0369,-1.0501,-0.0063,-0.3894,-0.3426,1.3149,-0.1118,-0.0404,-0.0809,
13.712297,0.0369,-1.0501,-0.0063,-0.3894,-0.3426,1.3149,-0.2951,0.2429,0.1556,
13.714600,0.0369,-1.0501,-0.0063,-1.1076,-0.0134,0.1395,-0.2951,0.2429,0.1556,
13.715882,-0.0271,-1.0184,-0.1544,-1.1076,-0.0134,0.1395,-0.2951,0.2429,0.1556,
13.716863,0.0108,-0.9749,-0.1390,-1.1076,-0.0134,0.1395,-0.2951,0.2429,0.1556,
13.718212,0.1532,-0.9658,-0.0576,-1.1076,-0.0134,0.1395,-0.2951,0.2429,0.1556,
13.719245,0.2712,-0.9705,-0.1192,-1.1076,-0.0134,0.1395,-0.2951,0.2429,0.1556,
13.751392,0.2712,-0.9705,-0.1192,-1.1076,-0.0134,0.1395,-0.4985,0.1950,0.0597,
13.753491,0.2712,-0.9705,-0.1192,-1.0771,-0.0363,0.3127,-0.4985,0.1950,0.0597,
13.791303,0.2566,-0.9781,-0.1893,-1.0771,-0.0363,0.3127,-0.4985,0.1950,0.0597,
13.793488,0.1750,-0.9671,-0.1944,-1.0771,-0.0363,0.3127,-0.4985,0.1950,0.0597,
13.794695,0.0797,-0.9226,-0.2042,-1.0771,-0.0363,0.3127,-0.4985,0.1950,0.0597,
13.795737,0.0797,-0.9226,-0.2042,-1.0771,-0.0363,0.3127,-0.8756,0.0789,-0.1129,
13.796888,0.0797,-0.9226,-0.2042,0.7114,0.0418,0.1423,-0.8756,0.0789,-0.1129,
13.830619,0.0797,-0.9226,-0.2042,0.7114,0.0418,0.1423,-1.4008,0.4261,-0.0980,
13.832917,0.0797,-0.9226,-0.2042,-1.2489,0.6912,0.3693,-1.4008,0.4261,-0.0980,
13.871113,0.0797,-0.9226,-0.2042,-1.3358,0.5179,0.8862,-1.4008,0.4261,-0.0980,
13.873536,0.0797,-0.9226,-0.2042,-1.3358,0.5179,0.8862,-1.5755,0.7756,-0.0830,
13.874956,0.0274,-0.8840,-0.2086,-1.3358,0.5179,0.8862,-1.5755,0.7756,-0.0830,
13.876052,0.0110,-0.8701,-0.1719,-1.3358,0.5179,0.8862,-1.5755,0.7756,-0.0830,
13.877189,0.0125,-0.8461,-0.1311,-1.3358,0.5179,0.8862,-1.5755,0.7756,-0.0830,
13.878440,0.0394,-0.8471,-0.0745,-1.3358,0.5179,0.8862,-1.5755,0.7756,-0.0830,
13.879707,0.0711,-0.9084,-0.1365,-1.3358,0.5179,0.8862,-1.5755,0.7756,-0.0830,
13.909810,0.0711,-0.9084,-0.1365,-1.3358,0.5179,0.8862,-0.9193,0.4400,0.0288,
13.912264,0.0711,-0.9084,-0.1365,-1.3381,0.6465,1.9508,-0.9193,0.4400,0.0288,
13.949752,0.0711,-0.9084,-0.1365,-1.3381,0.6465,1.9508,-0.3430,-0.0553,0.2834,
13.951969,0.0711,-0.9084,-0.1365,0.2783,-1.8610,-0.0924,-0.3430,-0.0553,0.2834,
13.954967,0.0848,-1.0802,-0.3202,0.2783,-1.8610,-0.0924,-0.3430,-0.0553,0.2834,
13.956427,0.1906,-1.1642,-0.3730,0.2783,-1.8610,-0.0924,-0.3430,-0.0553,0.2834,
13.959048,0.3103,-1.1273,-0.3139,0.2783,-1.8610,-0.0924,-0.3430,-0.0553,0.2834,
13.960237,0.3528,-1.0633,-0.3105,0.2783,-1.8610,-0.0924,-0.3430,-0.0553,0.2834,
13.988771,0.3528,-1.0633,-0.3105,0.2783,-1.8610,-0.0924,0.0714,-0.1672,0.0810,
13.990486,0.3528,-1.0633,-0.3105,0.3234,-1.8160,-0.1059,0.0714,-0.1672,0.0810,
14.028566,0.3528,-1.0633,-0.3105,0.3234,-1.8160,-0.1059,0.2749,-0.1608,-0.1992,
14.030283,0.3528,-1.0633,-0.3105,1.2221,-0.6723,-0.3403,0.2749,-0.1608,-0.1992,
14.031971,0.3142,-1.0000,-0.3491,1.2221,-0.6723,-0.3403,0.2749,-0.1608,-0.1992,
14.033244,0.2163,-0.9683,-0.3935,1.2221,-0.6723,-0.3403,0.2749,-0.1608,-0.1992,
14.034443,0.1312,-0.9832,-0.4109,1.2221,-0.6723,-0.3403,0.2749,-0.1608,-0.1992,
14.035550,0.0663,-0.9517,-0.3693,1.2221,-0.6723,-0.3403,0.2749,-0.1608,-0.1992,
14.068553,0.0663,-0.9517,-0.3693,1.2221,-0.6723,-0.3403,0.2418,0.2759,-0.2439,
14.071092,0.0663,-0.9517,-0.3693,1.0812,-0.6487,-0.4404,0.2418,0.2759,-0.2439,
14.108177,0.0663,-0.9517,-0.3693,1.0812,-0.6487,-0.4404,0.4709,0.5060,-0.1288,
14.110547,0.0663,-0.9517,-0.3693,-1.3335,0.1531,-0.6393,0.4709,0.5060,-0.1288,
14.112028,-0.0281,-0.8642,-0.2726,-1.3335,0.1531,-0.6393,0.4709,0.5060,-0.1288,
14.113575,-0.1280,-0.7372,-0.0935,-1.3335,0.1531,-0.6393,0.4709,0.5060,-0.1288,
14.114970,-0.0938,-0.6641,0.0494,-1.3335,0.1531,-0.6393,0.4709,0.5060,-0.1288,
14.116245,0.0064,-0.6348,0.0562,-1.3335,0.1531,-0.6393,0.4709,0.5060,-0.1288,
14.147883,0.0064,-0.6348,0.0562,-1.3335,0.1531,-0.6393,1.0983,0.4432,-0.1374,
14.150297,0.0064,-0.6348,0.0562,-2.6424,2.7013,2.3585,1.0983,0.4432,-0.1374,
14.176140,0.0531,-0.6629,-0.0258,-2.6424,2.7013,2.3585,1.0983,0.4432,-0.1374,
14.179098,0.1117,-0.7728,-0.1175,-2.6424,2.7013,2.3585,1.0983,0.4432,-0.1374,
14.180269,0.2011,-0.9529,-0.1673,-2.6424,2.7013,2.3585,1.0983,0.4432,-0.1374,
14.186976,0.2011,-0.9529,-0.1673,-2.6424,2.7013,2.3585,1.3295,0.7106,-0.1832,
14.188504,0.2011,-0.9529,-0.1673,-0.8548,1.6155,0.7402,1.3295,0.7106,-0.1832,
14.227464,0.2011,-0.9529,-0.1673,-0.8548,1.6155,0.7402,1.0131,0.6658,-0.1523,
14.229866,0.2011,-0.9529,-0.1673,-0.7142,-4.1123,-4.3337,1.0131,0.6658,-0.1523,
14.264303,0.2155,-1.2084,-0.3075,-0.7142,-4.1123,-4.3337,1.0131,0.6658,-0.1523,
14.266854,0.0951,-1.4652,-0.6381,-0.7142,-4.1123,-4.3337,1.0131,0.6658,-0.1523,
14.268169,0.1244,-1.5048,-0.8076,-0.7142,-4.1123,-4.3337,1.0131,0.6658,-0.1523,
14.269442,0.1786,-1.2649,-0.7385,-0.7142,-4.1123,-4.3337,1.0131,0.6658,-0.1523,
14.270727,0.1786,-1.2649,-0.7385,-0.7142,-4.1123,-4.3337,-0.2620,0.5071,0.1119,
14.271793,0.1786,-1.2649,-0.7385,-0.6880,-4.0488,-4.2064,-0.2620,0.5071,0.1119,
14.306579,0.1786,-1.2649,-0.7385,-0.6880,-4.0488,-4.2064,-0.9065,0.1194,0.3079,
14.308829,0.1786,-1.2649,-0.7385,-0.0124,-0.7531,-2.5320,-0.9065,0.1194,0.3079,
14.346929,0.1786,-1.2649,-0.7385,-0.0124,-0.7531,-2.5320,-0.2503,-0.3920,0.1779,
14.349269,0.1786,-1.2649,-0.7385,0.0846,-0.7460,-2.3669,-0.2503,-0.3920,0.1779,
14.351604,0.2055,-1.0350,-0.5636,0.0846,-0.7460,-2.3669,-0.2503,-0.3920,0.1779,
14.353119,0.2241,-0.8627,-0.0542,0.0846,-0.7460,-2.3669,-0.2503,-0.3920,0.1779,
14.354539,0.2998,-0.8002,0.1994,0.0846,-0.7460,-2.3669,-0.2503,-0.3920,0.1779,
14.355661,0.4283,-0.9065,-0.4309,0.0846,-0.7460,-2.3669,-0.2503,-0.3920,0.1779,
14.356627,0.4295,-1.0000,-0.5428,0.0846,-0.7460,-2.3669,-0.2503,-0.3920,0.1779,
14.385794,0.4295,-1.0000,-0.5428,1.8038,0.7129,-0.4172,-0.2503,-0.3920,0.1779,
14.388410,0.4295,-1.0000,-0.5428,1.8038,0.7129,-0.4172,-0.1278,0.0895,-0.0990,
14.426038,0.4295,-1.0000,-0.5428,1.2667,0.3809,0.7489,-0.1278,0.0895,-0.0990,
14.428109,0.4295,-1.0000,-0.5428,1.2667,0.3809,0.7489,0.1076,-0.1917,-0.1331,
14.429297,0.3523,-0.9551,-0.0349,1.2667,0.3809,0.7489,0.1076,-0.1917,-0.1331,
14.430286,0.3379,-0.9050,-0.0984,1.2667,0.3809,0.7489,0.1076,-0.1917,-0.1331,
14.431662,0.3201,-0.9458,-0.2723,1.2667,0.3809,0.7489,0.1076,-0.1917,-0.1331,
14.432809,0.3570,-1.0452,-0.2660,1.2667,0.3809,0.7489,0.1076,-0.1917,-0.1331,
14.464046,0.3570,-1.0452,-0.2660,1.2667,0.3809,0.7489,0.1747,0.2376,-0.0213,
14.466541,0.3570,-1.0452,-0.2660,1.2189,0.3867,0.6523,0.1747,0.2376,-0.0213,
14.505089,0.3570,-1.0452,-0.2660,1.2189,0.3867,0.6523,0.3516,0.1396,0.0629,
14.506998,0.3570,-1.0452,-0.2660,1.3693,-0.5365,-0.0629,0.3516,0.1396,0.0629,
14.508717,0.3538,-1.0653,-0.1930,1.3693,-0.5365,-0.0629,0.3516,0.1396,0.0629,
14.509893,0.3487,-0.9905,-0.1216,1.3693,-0.5365,-0.0629,0.3516,0.1396,0.0629,
14.511038,0.3746,-0.9302,-0.1099,1.3693,-0.5365,-0.0629,0.3516,0.1396,0.0629,
14.512157,0.3137,-0.9575,-0.1732,1.3693,-0.5365,-0.0629,0.3516,0.1396,0.0629,
14.543857,0.3137,-0.9575,-0.1732,1.3693,-0.5365,-0.0629,0.5614,0.3708,0.0416,
14.546476,0.3137,-0.9575,-0.1732,1.3374,-0.4868,-0.3024,0.5614,0.3708,0.0416,
14.576552,0.3018,-0.9815,-0.1749,1.3374,-0.4868,-0.3024,0.5614,0.3708,0.0416,
14.578902,0.3555,-0.9778,-0.1575,1.3374,-0.4868,-0.3024,0.5614,0.3708,0.0416,
14.579934,0.3983,-0.9377,-0.1898,1.3374,-0.4868,-0.3024,0.5614,0.3708,0.0416,
14.583686,0.3983,-0.9377,-0.1898,1.3374,-0.4868,-0.3024,0.7564,0.4645,0.1396,
14.585220,0.3983,-0.9377,-0.1898,1.1190,0.3197,-0.2268,0.7564,0.4645,0.1396,
14.623627,0.3983,-0.9377,-0.1898,1.1190,0.3197,-0.2268,0.7936,-0.1352,0.2887,
14.626491,0.3983,-0.9377,-0.1898,1.7802,0.6327,-0.9298,0.7936,-0.1352,0.2887,
14.628164,0.4122,-0.8725,-0.2403,1.7802,0.6327,-0.9298,0.7936,-0.1352,0.2887,
14.629324,0.3521,-0.8527,-0.2298,1.7802,0.6327,-0.9298,0.7936,-0.1352,0.2887,
14.630457,0.3084,-0.8439,-0.1397,1.7802,0.6327,-0.9298,0.7936,-0.1352,0.2887,
14.663003,0.3084,-0.8439,-0.1397,1.7802,0.6327,-0.9298,0.6349,-0.3547,0.2941,
14.665283,0.3084,-0.8439,-0.1397,1.8743,0.6664,-1.1287,0.6349,-0.3547,0.2941,
14.703170,0.3084,-0.8439,-0.1397,1.8743,0.6664,-1.1287,0.5785,-0.0735,0.3740,
14.705855,0.3084,-0.8439,-0.1397,1.1317,1.4253,-0.9021,0.5785,-0.0735,0.3740,
14.707199,0.2390,-0.8649,-0.0864,1.1317,1.4253,-0.9021,0.5785,-0.0735,0.3740,
14.708376,0.1684,-0.8955,-0.0867,1.1317,1.4253,-0.9021,0.5785,-0.0735,0.3740,
14.709617,0.1693,-0.9407,-0.1309,1.1317,1.4253,-0.9021,0.5785,-0.0735,0.3740,
14.710907,0.1879,-0.9886,-0.1263,1.1317,1.4253,-0.9021,0.5785,-0.0735,0.3740,
14.742170,0.1879,-0.9886,-0.1263,1.1317,1.4253,-0.9021,0.4176,0.0384,0.5284,
14.744664,0.1879,-0.9886,-0.1263,0.1136,0.5996,-0.6891,0.4176,0.0384,0.5284,
14.782093,0.1879,-0.9886,-0.1263,0.1136,0.5996,-0.6891,0.2557,-0.0394,0.4144,
14.784238,0.1879,-0.9886,-0.1263,1.5568,1.0576,0.2617,0.2557,-0.0394,0.4144,
14.785716,0.1977,-0.9272,-0.0232,1.5568,1.0576,0.2617,0.2557,-0.0394,0.4144,
14.786726,0.2908,-0.8500,0.0389,1.5568,1.0576,0.2617,0.2557,-0.0394,0.4144,
14.787913,0.4374,-0.9106,-0.0373,1.5568,1.0576,0.2617,0.2557,-0.0394,0.4144,
14.789196,0.4398,-0.9675,-0.0222,1.5568,1.0576,0.2617,0.2557,-0.0394,0.4144,
14.821481,0.4398,-0.9675,-0.0222,1.5568,1.0576,0.2617,-0.0788,-0.1406,-0.0330,
14.823732,0.4398,-0.9675,-0.0222,1.5201,1.0370,0.2955,-0.0788,-0.1406,-0.0330,
14.861875,0.4398,-0.9675,-0.0222,1.5201,1.0370,0.2955,-0.3473,-0.3025,-0.2407,
14.864323,0.4398,-0.9675,-0.0222,1.7728,0.3329,0.6370,-0.3473,-0.3025,-0.2407,
14.865707,0.3452,-0.9641,0.0357,1.7728,0.3329,0.6370,-0.3473,-0.3025,-0.2407,
14.866703,0.2544,-0.9636,0.0257,1.7728,0.3329,0.6370,-0.3473,-0.3025,-0.2407,
14.867871,0.1781,-0.9475,-0.0276,1.7728,0.3329,0.6370,-0.3473,-0.3025,-0.2407,
14.869027,0.0834,-0.9592,-0.1008,1.7728,0.3329,0.6370,-0.3473,-0.3025,-0.2407,
14.901081,0.0834,-0.9592,-0.1008,1.7728,0.3329,0.6370,-0.5667,-0.3462,-0.1352,
14.903549,0.0834,-0.9592,-0.1008,1.7002,0.3047,0.8645,-0.5667,-0.3462,-0.1352,
14.941151,0.0834,-0.9592,-0.1008,1.7002,0.3047,0.8645,-0.8916,-0.1960,-0.0639,
14.943631,0.0357,-0.9673,-0.1421,1.7002,0.3047,0.8645,-0.8916,-0.1960,-0.0639,
14.944950,0.0736,-0.9673,-0.1206,1.7002,0.3047,0.8645,-0.8916,-0.1960,-0.0639,
14.946015,0.1474,-1.0291,-0.1280,1.7002,0.3047,0.8645,-0.8916,-0.1960,-0.0639,
14.948323,0.1901,-1.1488,-0.2071,1.7002,0.3047,0.8645,-0.8916,-0.1960,-0.0639,
14.949459,0.1901,-1.1488,-0.2071,-0.7298,0.3318,0.2067,-0.8916,-0.1960,-0.0639,
14.979807,0.1901,-1.1488,-0.2071,-0.7298,0.3318,0.2067,-1.1334,-0.2439,-0.1906,
14.981871,0.1901,-1.1488,-0.2071,-0.4114,-0.6158,0.0525,-1.1334,-0.2439,-0.1906,
15.019264,0.1901,-1.1488,-0.2071,-0.4114,-0.6158,0.0525,-1.6352,-0.1480,-0.3440,
15.021737,0.1901,-1.1488,-0.2071,-0.6592,-1.7701,-0.9998,-1.6352,-0.1480,-0.3440,
15.023012,0.1759,-1.1960,-0.2745,-0.6592,-1.7701,-0.9998,-1.6352,-0.1480,-0.3440,
15.024423,0.1149,-1.1447,-0.3202,-0.6592,-1.7701,-0.9998,-1.6352,-0.1480,-0.3440,
15.025449,0.0777,-1.1227,-0.3818,-0.6592,-1.7701,-0.9998,-1.6352,-0.1480,-0.3440,
15.026665,0.0472,-1.1056,-0.3615,-0.6592,-1.7701,-0.9998,-1.6352,-0.1480,-0.3440,
15.059509,0.0472,-1.1056,-0.3615,-0.6592,-1.7701,-0.9998,-1.8280,-0.0862,-0.3089,
15.061739,0.0472,-1.1056,-0.3615,-0.7536,-1.9445,-0.3038,-1.8280,-0.0862,-0.3089,
15.099835,0.0472,-1.1056,-0.3615,-0.7536,-1.9445,-0.3038,-1.1611,-0.2641,-0.1587,
15.102928,0.0472,-1.1056,-0.3615,-1.2385,-1.3038,0.4907,-1.1611,-0.2641,-0.1587,
15.104423,0.0592,-1.0404,-0.2836,-1.2385,-1.3038,0.4907,-1.1611,-0.2641,-0.1587,
15.105574,0.1151,-1.0804,-0.2230,-1.2385,-1.3038,0.4907,-1.1611,-0.2641,-0.1587,
15.106877,0.1882,-1.1530,-0.1522,-1.2385,-1.3038,0.4907,-1.1611,-0.2641,-0.1587,
15.108071,0.1913,-1.0970,-0.1348,-1.2385,-1.3038,0.4907,-1.1611,-0.2641,-0.1587,
15.138334,0.1913,-1.0970,-0.1348,-1.2385,-1.3038,0.4907,-0.4037,-0.4388,-0.1992,
15.140513,0.1913,-1.0970,-0.1348,-1.2302,-1.3509,0.6609,-0.4037,-0.4388,-0.1992,
15.178856,0.1913,-1.0970,-0.1348,-1.2302,-1.3509,0.6609,-0.0202,-0.3163,-0.2087,
15.181330,0.1913,-1.0970,-0.1348,-0.4036,-1.3942,1.8475,-0.0202,-0.3163,-0.2087,
15.182765,0.1027,-0.9910,-0.2181,-0.4036,-1.3942,1.8475,-0.0202,-0.3163,-0.2087,
15.183780,0.0609,-0.9485,-0.2636,-0.4036,-1.3942,1.8475,-0.0202,-0.3163,-0.2087,
15.184873,0.0594,-0.9500,-0.3136,-0.4036,-1.3942,1.8475,-0.0202,-0.3163,-0.2087,
15.186131,0.0760,-0.9292,-0.3283,-0.4036,-1.3942,1.8475,-0.0202,-0.3163,-0.2087,
15.217813,0.0760,-0.9292,-0.3283,-0.4036,-1.3942,1.8475,0.0629,-0.0490,-0.1225,
15.219376,0.0760,-0.9292,-0.3283,-1.3522,-0.0442,0.5117,0.0629,-0.0490,-0.1225,
15.258101,0.0760,-0.9292,-0.3283,-1.3522,-0.0442,0.5117,0.0884,0.2610,-0.0468,
15.260270,0.0760,-0.9292,-0.3283,-1.9645,1.8294,1.2859,0.0884,0.2610,-0.0468,
15.261744,0.0616,-0.8535,-0.2777,-1.9645,1.8294,1.2859,0.0884,0.2610,-0.0468,
15.262869,-0.0070,-0.7438,-0.2005,-1.9645,1.8294,1.2859,0.0884,0.2610,-0.0468,
15.263867,-0.0398,-0.6499,-0.1673,-1.9645,1.8294,1.2859,0.0884,0.2610,-0.0468,
15.265268,-0.0009,-0.5925,-0.1710,-1.9645,1.8294,1.2859,0.0884,0.2610,-0.0468,
