
time,gFx,gFy,gFz,ax,ay,az,wx,wy,wz,
0.035235,0.1970,0.2765,0.9564,0.0000,0.0000,0.0000,0.0000,0.0000,0.0000,
0.035584,0.2790,0.2893,1.0232,0.0000,0.0000,0.0000,0.0000,0.0000,0.0000,
0.035836,0.2578,0.2668,1.0079,0.0000,0.0000,0.0000,0.0000,0.0000,0.0000,
0.036070,0.1957,0.2684,0.8534,0.0000,0.0000,0.0000,0.0000,0.0000,0.0000,
0.036323,0.1915,0.2862,0.8268,0.0000,0.0000,0.0000,0.0000,0.0000,0.0000,
0.036569,0.2018,0.2415,0.8760,0.0000,0.0000,0.0000,0.0000,0.0000,0.0000,
0.036822,0.1102,0.1246,0.7739,0.0000,0.0000,0.0000,0.0000,0.0000,0.0000,
0.074194,0.1102,0.1246,0.7739,0.0000,0.0000,0.0000,-0.1608,-1.4626,1.1271,
0.109969,-0.0282,-0.0658,0.6824,0.0000,0.0000,0.0000,-0.1608,-1.4626,1.1271,
0.111916,0.0956,0.0945,0.7864,0.0000,0.0000,0.0000,-0.1608,-1.4626,1.1271,
0.113650,0.0592,0.0821,0.7370,0.0000,0.0000,0.0000,-0.1608,-1.4626,1.1271,
0.115267,0.1416,-0.0856,0.5723,0.0000,0.0000,0.0000,-0.1608,-1.4626,1.1271,
0.116523,0.1416,-0.0856,0.5723,0.0000,0.0000,0.0000,0.0426,-1.8855,1.5053,
0.118016,0.1416,-0.0856,0.5723,0.0000,0.0000,-0.0000,0.0426,-1.8855,1.5053,
0.153139,0.1416,-0.0856,0.5723,0.0000,0.0000,-0.0000,0.4006,-2.7888,1.7609,
0.154575,0.1416,-0.0856,0.5723,0.0000,0.0000,-0.0000,0.4006,-2.7888,1.7609,
0.188669,0.1994,-0.0498,0.6548,0.0000,0.0000,-0.0000,0.4006,-2.7888,1.7609,
0.190940,0.3165,-0.2528,0.4333,0.0000,0.0000,-0.0000,0.4006,-2.7888,1.7609,
0.193253,0.5292,-0.1755,0.3385,0.0000,0.0000,-0.0000,0.4006,-2.7888,1.7609,
0.194927,0.6313,-0.0775,0.3598,0.0000,0.0000,-0.0000,0.4006,-2.7888,1.7609,
0.196267,0.6313,-0.0775,0.3598,0.6660,-0.9726,-0.9641,0.4006,-2.7888,1.7609,
0.197671,0.6313,-0.0775,0.3598,0.6660,-0.9726,-0.9641,0.7201,-4.0874,1.7812,
0.233196,0.6313,-0.0775,0.3598,0.6660,-0.9726,-0.9641,0.4283,-4.1119,1.9388,
0.234852,0.6313,-0.0775,0.3598,-0.0806,-0.4102,-0.2292,0.4283,-4.1119,1.9388,
0.251376,0.3764,-0.1765,0.3672,-0.0806,-0.4102,-0.2292,0.4283,-4.1119,1.9388,
0.252870,0.1005,-0.4814,0.5949,-0.0806,-0.4102,-0.2292,0.4283,-4.1119,1.9388,
0.253750,0.4126,-0.4094,0.7964,-0.0806,-0.4102,-0.2292,0.4283,-4.1119,1.9388,
0.272037,0.4126,-0.4094,0.7964,-0.0806,-0.4102,-0.2292,0.0245,-1.9781,3.7157,
0.273685,0.4126,-0.4094,0.7964,-0.0265,-0.4805,-0.1925,0.0245,-1.9781,3.7157,
0.312582,0.4126,-0.4094,0.7964,-0.0265,-0.4805,-0.1925,0.4229,-2.4959,3.4377,
0.314964,0.4126,-0.4094,0.7964,2.5724,0.5490,2.0445,0.4229,-2.4959,3.4377,
0.329823,0.9031,-0.1056,0.7377,2.5724,0.5490,2.0445,0.4229,-2.4959,3.4377,
0.331740,0.8927,0.0181,0.5799,2.5724,0.5490,2.0445,0.4229,-2.4959,3.4377,
0.332504,0.7273,-0.0979,0.5006,2.5724,0.5490,2.0445,0.4229,-2.4959,3.4377,
0.333362,0.7137,-0.3021,0.7817,2.5724,0.5490,2.0445,0.4229,-2.4959,3.4377,
0.351766,0.7137,-0.3021,0.7817,2.5724,0.5490,2.0445,2.1167,-5.3561,3.5367,
0.353389,0.7137,-0.3021,0.7817,1.4691,0.6515,2.1730,2.1167,-5.3561,3.5367,
0.391347,0.7137,-0.3021,0.7817,1.4691,0.6515,2.1730,2.8496,-3.2480,4.2792,
0.393192,0.7137,-0.3021,0.7817,1.7938,0.0003,2.4952,2.8496,-3.2480,4.2792,
0.406984,1.0496,-0.4477,0.9775,1.7938,0.0003,2.4952,2.8496,-3.2480,4.2792,
0.408685,1.4361,-0.3190,0.6035,1.7938,0.0003,2.4952,2.8496,-3.2480,4.2792,
0.409500,1.6650,-0.2354,0.2985,1.7938,0.0003,2.4952,2.8496,-3.2480,4.2792,
0.410455,1.6892,-0.2729,0.2275,1.7938,0.0003,2.4952,2.8496,-3.2480,4.2792,
0.430790,1.6892,-0.2729,0.2275,1.7938,0.0003,2.4952,2.7804,-2.4085,3.5037,
0.433013,1.6892,-0.2729,0.2275,7.7206,0.3594,-0.7629,2.7804,-2.4085,3.5037,
0.470404,1.6892,-0.2729,0.2275,7.7206,0.3594,-0.7629,2.9167,-1.9579,2.5822,
0.472066,1.6892,-0.2729,0.2275,7.8759,-0.2497,-1.9472,2.9167,-1.9579,2.5822,
0.476552,1.7016,-0.3469,0.2638,7.8759,-0.2497,-1.9472,2.9167,-1.9579,2.5822,
0.477920,1.8082,-0.3881,0.2048,7.8759,-0.2497,-1.9472,2.9167,-1.9579,2.5822,
0.478738,1.7312,-0.3873,0.1254,7.8759,-0.2497,-1.9472,2.9167,-1.9579,2.5822,
0.510267,1.7312,-0.3873,0.1254,7.8759,-0.2497,-1.9472,2.0602,-0.7094,1.6693,
0.512462,1.7312,-0.3873,0.1254,6.8599,0.0363,-1.6970,2.0602,-0.7094,1.6693,
0.552284,1.7312,-0.3873,0.1254,6.8599,0.0363,-1.6970,0.3164,-0.1981,1.1761,
0.554386,1.7312,-0.3873,0.1254,2.5422,1.2159,-4.9990,0.3164,-0.1981,1.1761,
0.555897,1.5089,-0.3462,-0.0489,2.5422,1.2159,-4.9990,0.3164,-0.1981,1.1761,
0.557585,1.3419,-0.2887,-0.2925,2.5422,1.2159,-4.9990,0.3164,-0.1981,1.1761,
0.558690,1.1328,-0.2045,-0.3044,2.5422,1.2159,-4.9990,0.3164,-0.1981,1.1761,
0.560026,0.8560,-0.3727,-0.0207,2.5422,1.2159,-4.9990,0.3164,-0.1981,1.1761,
0.561356,0.6481,-0.4444,0.0578,2.5422,1.2159,-4.9990,0.3164,-0.1981,1.1761,
0.589703,0.6481,-0.4444,0.0578,2.5422,1.2159,-4.9990,0.2536,-0.4601,1.5021,
0.592578,0.6481,-0.4444,0.0578,2.4010,1.5795,-4.2459,0.2536,-0.4601,1.5021,
0.628726,0.6481,-0.4444,0.0578,2.4010,1.5795,-4.2459,0.7798,-1.5787,2.1743,
0.631319,0.6481,-0.4444,0.0578,-2.7066,1.8328,0.2480,0.7798,-1.5787,2.1743,
0.632730,0.4733,-0.4506,0.0152,-2.7066,1.8328,0.2480,0.7798,-1.5787,2.1743,
0.634364,0.3495,-0.4876,0.2055,-2.7066,1.8328,0.2480,0.7798,-1.5787,2.1743,
0.635624,0.8243,-0.3117,0.3093,-2.7066,1.8328,0.2480,0.7798,-1.5787,2.1743,
0.636886,1.0649,-0.1586,0.0682,-2.7066,1.8328,0.2480,0.7798,-1.5787,2.1743,
0.669100,1.0649,-0.1586,0.0682,-2.7066,1.8328,0.2480,0.5742,-0.9811,1.7354,
0.671445,1.0649,-0.1586,0.0682,-2.1622,2.2293,0.4608,0.5742,-0.9811,1.7354,
0.701834,1.1444,-0.2146,-0.1127,-2.1622,2.2293,0.4608,0.5742,-0.9811,1.7354,
0.704147,1.0409,-0.2030,0.0686,-2.1622,2.2293,0.4608,0.5742,-0.9811,1.7354,
0.705407,0.6774,-0.5120,0.1246,-2.1622,2.2293,0.4608,0.5742,-0.9811,1.7354,
0.708507,0.6774,-0.5120,0.1246,-2.1622,2.2293,0.4608,-0.1182,0.2823,0.9300,
0.709591,0.6774,-0.5120,0.1246,0.0877,2.4311,-1.1434,-0.1182,0.2823,0.9300,
0.748182,0.6774,-0.5120,0.1246,0.0877,2.4311,-1.1434,-0.0841,-1.1696,1.0951,
0.750254,0.6774,-0.5120,0.1246,-3.3632,-0.3046,-0.1306,-0.0841,-1.1696,1.0951,
0.779786,0.5696,-0.7094,0.2556,-3.3632,-0.3046,-0.1306,-0.0841,-1.1696,1.0951,
0.781835,0.4220,-0.7446,0.0736,-3.3632,-0.3046,-0.1306,-0.0841,-1.1696,1.0951,
0.783200,0.6625,-0.4446,-0.0779,-3.3632,-0.3046,-0.1306,-0.0841,-1.1696,1.0951,
0.784592,0.8573,-0.3829,0.0106,-3.3632,-0.3046,-0.1306,-0.0841,-1.1696,1.0951,
0.792402,0.8573,-0.3829,0.0106,-3.3632,-0.3046,-0.1306,-0.5081,-1.3901,1.6523,
0.794485,0.8573,-0.3829,0.0106,-2.7447,0.2480,0.4291,-0.5081,-1.3901,1.6523,
0.827419,0.8573,-0.3829,0.0106,-2.7447,0.2480,0.4291,-0.7755,-0.6924,0.8331,
0.829261,0.8573,-0.3829,0.0106,-2.3217,0.4752,0.7822,-0.7755,-0.6924,0.8331,
0.856817,0.8567,-0.5224,-0.0704,-2.3217,0.4752,0.7822,-0.7755,-0.6924,0.8331,
0.858608,0.4459,-1.3775,0.3152,-2.3217,0.4752,0.7822,-0.7755,-0.6924,0.8331,
0.859742,0.7177,-1.8982,0.0031,-2.3217,0.4752,0.7822,-0.7755,-0.6924,0.8331,
0.861118,0.5783,-1.4950,0.0716,-2.3217,0.4752,0.7822,-0.7755,-0.6924,0.8331,
0.868057,0.5783,-1.4950,0.0716,-2.3217,0.4752,0.7822,-0.3355,-0.6807,0.6786,
0.869298,0.5783,-1.4950,0.0716,-0.4465,-0.5313,1.0072,-0.3355,-0.6807,0.6786,
0.906608,0.5783,-1.4950,0.0716,-0.4465,-0.5313,1.0072,-0.0969,-1.4381,2.7836,
0.908384,0.5783,-1.4950,0.0716,0.3544,0.2307,1.3289,-0.0969,-1.4381,2.7836,
0.926102,0.3292,-0.7212,-0.0802,0.3544,0.2307,1.3289,-0.0969,-1.4381,2.7836,
0.928324,-0.0757,-0.6393,-0.2103,0.3544,0.2307,1.3289,-0.0969,-1.4381,2.7836,
0.929775,0.0882,-0.8629,-0.2123,0.3544,0.2307,1.3289,-0.0969,-1.4381,2.7836,
0.947059,0.0882,-0.8629,-0.2123,0.3544,0.2307,1.3289,-0.1225,-1.6138,3.9809,
0.949263,0.0882,-0.8629,-0.2123,-0.0514,-4.4586,0.8402,-0.1225,-1.6138,3.9809,
0.985881,0.0882,-0.8629,-0.2123,-0.0514,-4.4586,0.8402,-0.1491,-1.2271,2.2243,
0.988117,0.0882,-0.8629,-0.2123,-3.2936,1.0303,-0.5127,-0.1491,-1.2271,2.2243,
1.004693,0.2848,-1.0408,-0.0980,-3.2936,1.0303,-0.5127,-0.1491,-1.2271,2.2243,
1.007437,0.4797,-0.8870,-0.0469,-3.2936,1.0303,-0.5127,-0.1491,-1.2271,2.2243,
1.009353,0.4426,-0.8339,-0.1921,-3.2936,1.0303,-0.5127,-0.1491,-1.2271,2.2243,
1.010786,0.3567,-0.9304,-0.1255,-3.2936,1.0303,-0.5127,-0.1491,-1.2271,2.2243,
1.026950,0.3567,-0.9304,-0.1255,-3.2936,1.0303,-0.5127,-0.4580,-0.6487,0.6094,
1.032146,0.3567,-0.9304,-0.1255,0.1626,0.7050,0.2562,-0.4580,-0.6487,0.6094,
1.065047,0.3567,-0.9304,-0.1255,0.1626,0.7050,0.2562,-0.2077,0.6797,0.1055,
1.066817,0.3567,-0.9304,-0.1255,0.1525,0.6653,0.2115,-0.2077,0.6797,0.1055,
1.104309,0.3567,-0.9304,-0.1255,0.1525,0.6653,0.2115,-0.5529,0.3772,0.5582,
1.106599,0.3567,-0.9304,-0.1255,0.3171,0.6754,0.3352,-0.5529,0.3772,0.5582,
1.124432,0.0731,-0.4655,-0.1920,0.3171,0.6754,0.3352,-0.5529,0.3772,0.5582,
1.144525,0.0731,-0.4655,-0.1920,0.3171,0.6754,0.3352,-0.5859,-0.3888,1.2730,
1.146643,0.0731,-0.4655,-0.1920,0.7667,0.7681,0.5702,-0.5859,-0.3888,1.2730,
1.186195,0.0731,-0.4655,-0.1920,0.7667,0.7681,0.5702,-0.1502,-0.1768,1.6363,
1.188314,0.0731,-0.4655,-0.1920,-2.8194,5.1631,-0.5946,-0.1502,-0.1768,1.6363,
1.224082,-0.0598,-0.3758,-0.2723,-2.8194,5.1631,-0.5946,-0.1502,-0.1768,1.6363,
1.226372,-0.0786,-0.4240,-0.2921,-2.8194,5.1631,-0.5946,-0.1502,-0.1768,1.6363,
1.227856,-0.3285,-2.8480,-0.3659,-2.8194,5.1631,-0.5946,-0.1502,-0.1768,1.6363,
1.229355,-0.3285,-2.8480,-0.3659,-1.7089,5.0453,-0.4356,-0.1502,-0.1768,1.6363,
1.231445,-0.3285,-2.8480,-0.3659,-1.7089,5.0453,-0.4356,-0.3771,0.1130,2.7197,
1.262248,-0.3285,-2.8480,-0.3659,-1.7089,5.0453,-0.4356,-0.5337,-2.6525,2.5897,
1.263677,-0.3285,-2.8480,-0.3659,0.3245,-15.9468,-2.1657,-0.5337,-2.6525,2.5897,
1.302311,-0.3234,-3.5890,-0.4724,0.3245,-15.9468,-2.1657,-0.5337,-2.6525,2.5897,
1.304338,0.8551,-1.5568,-0.5728,0.3245,-15.9468,-2.1657,-0.5337,-2.6525,2.5897,
1.305210,0.7611,-0.7570,-0.3398,0.3245,-15.9468,-2.1657,-0.5337,-2.6525,2.5897,
1.306334,-0.0378,-0.6744,-0.0473,0.3245,-15.9468,-2.1657,-0.5337,-2.6525,2.5897,
1.307405,-0.6774,-1.0186,0.0433,0.3245,-15.9468,-2.1657,-0.5337,-2.6525,2.5897,
1.308490,-0.3657,-0.8840,-0.1751,0.3245,-15.9468,-2.1657,-0.5337,-2.6525,2.5897,
1.309471,-0.3657,-0.8840,-0.1751,0.3245,-15.9468,-2.1657,-0.0053,-0.9992,-0.6956,
1.310105,-0.3657,-0.8840,-0.1751,-0.3521,2.0387,1.2641,-0.0053,-0.9992,-0.6956,
1.342760,-0.3657,-0.8840,-0.1751,-0.3521,2.0387,1.2641,0.5167,1.0504,-0.3739,
1.344464,-0.3657,-0.8840,-0.1751,-0.5635,1.9671,0.9765,0.5167,1.0504,-0.3739,
1.382303,-0.3657,-0.8840,-0.1751,-0.5635,1.9671,0.9765,0.2354,-0.0756,0.1588,
1.384049,-0.3657,-0.8840,-0.1751,-3.3906,1.2026,0.0867,0.2354,-0.0756,0.1588,
1.385080,-0.2924,-0.8676,-0.3046,-3.3906,1.2026,0.0867,0.2354,-0.0756,0.1588,
1.385960,-0.2372,-0.9202,-0.1072,-3.3906,1.2026,0.0867,0.2354,-0.0756,0.1588,
1.386871,-0.0906,-0.9431,-0.1507,-3.3906,1.2026,0.0867,0.2354,-0.0756,0.1588,
1.387924,0.0142,-0.9304,-0.2601,-3.3906,1.2026,0.0867,0.2354,-0.0756,0.1588,
1.421541,0.0142,-0.9304,-0.2601,-3.3906,1.2026,0.0867,0.4847,0.3345,-0.2833,
1.424967,0.0142,-0.9304,-0.2601,-3.3511,1.1715,-0.1059,0.4847,0.3345,-0.2833,
1.464037,0.0142,-0.9304,-0.2601,-3.3511,1.1715,-0.1059,0.5039,0.5764,-0.4729,
1.468982,-0.0151,-0.9121,-0.2697,-3.3511,1.1715,-0.1059,0.5039,0.5764,-0.4729,
1.471052,-0.0984,-0.8569,-0.1900,-3.3511,1.1715,-0.1059,0.5039,0.5764,-0.4729,
1.472230,-0.1265,-0.7789,-0.1365,-3.3511,1.1715,-0.1059,0.5039,0.5764,-0.4729,
1.473146,-0.0767,-0.7320,-0.1030,-3.3511,1.1715,-0.1059,0.5039,0.5764,-0.4729,
1.473964,-0.0767,-0.7320,-0.1030,-0.9048,0.7844,-0.5921,0.5039,0.5764,-0.4729,
1.500933,-0.0767,-0.7320,-0.1030,-0.9048,0.7844,-0.5921,0.4070,0.3590,-0.2929,
1.503320,-0.0767,-0.7320,-0.1030,-1.6495,2.0677,0.0556,0.4070,0.3590,-0.2929,
1.541573,-0.0767,-0.7320,-0.1030,-1.6495,2.0677,0.0556,0.5092,0.1716,-0.1672,
1.543342,-0.0767,-0.7320,-0.1030,-1.6413,0.8866,0.1996,0.5092,0.1716,-0.1672,
1.544636,-0.0598,-0.7665,-0.0796,-1.6413,0.8866,0.1996,0.5092,0.1716,-0.1672,
1.546795,-0.1158,-0.9101,-0.0852,-1.6413,0.8866,0.1996,0.5092,0.1716,-0.1672,
1.547672,-0.1236,-1.0474,-0.1558,-1.6413,0.8866,0.1996,0.5092,0.1716,-0.1672,
1.548643,-0.0613,-1.0921,-0.2281,-1.6413,0.8866,0.1996,0.5092,0.1716,-0.1672,
1.579744,-0.0613,-1.0921,-0.2281,-1.6413,0.8866,0.1996,0.4336,0.4144,-0.1757,
1.582343,-0.0613,-1.0921,-0.2281,-1.6532,0.8623,0.0188,0.4336,0.4144,-0.1757,
1.622169,-0.0613,-1.0921,-0.2281,-1.6532,0.8623,0.0188,0.2173,0.4677,-0.2087,
1.624594,-0.0613,-1.0921,-0.2281,-1.4151,-1.3208,-1.8560,0.2173,0.4677,-0.2087,
1.627842,-0.0537,-1.1051,-0.2863,-1.4151,-1.3208,-1.8560,0.2173,0.4677,-0.2087,
1.630238,-0.0996,-1.2136,-0.3750,-1.4151,-1.3208,-1.8560,0.2173,0.4677,-0.2087,
1.631655,-0.0119,-1.2707,-0.3334,-1.4151,-1.3208,-1.8560,0.2173,0.4677,-0.2087,
1.632507,0.0836,-1.0452,-0.1414,-1.4151,-1.3208,-1.8560,0.2173,0.4677,-0.2087,
1.659443,0.0836,-1.0452,-0.1414,-1.4151,-1.3208,-1.8560,-0.1694,0.5433,-0.0660,
1.661060,0.0836,-1.0452,-0.1414,-1.4026,-1.2745,-1.7309,-0.1694,0.5433,-0.0660,
1.699557,0.0836,-1.0452,-0.1414,-1.4026,-1.2745,-1.7309,-0.1353,-0.2162,0.1428,
1.701172,0.0836,-1.0452,-0.1414,-0.4493,-0.3113,-0.5153,-0.1353,-0.2162,0.1428,
1.702037,-0.0205,-0.8031,-0.0669,-0.4493,-0.3113,-0.5153,-0.1353,-0.2162,0.1428,
1.702822,-0.0862,-0.7750,-0.0588,-0.4493,-0.3113,-0.5153,-0.1353,-0.2162,0.1428,
1.703522,-0.0493,-0.9226,-0.0598,-0.4493,-0.3113,-0.5153,-0.1353,-0.2162,0.1428,
1.704372,0.0663,-1.0648,-0.0527,-0.4493,-0.3113,-0.5153,-0.1353,-0.2162,0.1428,
1.737883,0.0663,-1.0648,-0.0527,-0.4493,-0.3113,-0.5153,0.0586,-0.2034,0.0363,
1.739398,0.0663,-1.0648,-0.0527,-0.7870,0.8246,0.6504,0.0586,-0.2034,0.0363,
1.778558,0.0663,-1.0648,-0.0527,-0.0876,0.0265,-0.5026,0.0586,-0.2034,0.0363,
1.780306,0.0663,-1.0648,-0.0527,-0.0876,0.0265,-0.5026,-0.0394,0.1992,-0.3067,
1.781301,0.1254,-1.0809,-0.1238,-0.0876,0.0265,-0.5026,-0.0394,0.1992,-0.3067,
1.782155,0.0831,-0.9947,-0.2076,-0.0876,0.0265,-0.5026,-0.0394,0.1992,-0.3067,
1.782993,-0.0251,-0.9280,-0.2020,-0.0876,0.0265,-0.5026,-0.0394,0.1992,-0.3067,
1.783916,-0.2311,-0.9448,-0.2904,-0.0876,0.0265,-0.5026,-0.0394,0.1992,-0.3067,
1.817926,-0.2311,-0.9448,-0.2904,-0.0876,0.0265,-0.5026,-0.3419,-0.2727,-0.1757,
1.819862,-0.2311,-0.9448,-0.2904,-0.1366,0.0036,-0.3481,-0.3419,-0.2727,-0.1757,
1.858236,-0.2311,-0.9448,-0.2904,-0.1366,0.0036,-0.3481,-0.2184,-0.4069,0.4091,
1.860342,-0.2311,-0.9448,-0.2904,-4.0313,-0.0747,-0.7569,-0.2184,-0.4069,0.4091,
1.862637,-0.4321,-1.0108,-0.2770,-4.0313,-0.0747,-0.7569,-0.2184,-0.4069,0.4091,
1.864650,-0.4473,-1.0721,-0.1289,-4.0313,-0.0747,-0.7569,-0.2184,-0.4069,0.4091,
1.866347,-0.2601,-1.1459,-0.1600,-4.0313,-0.0747,-0.7569,-0.2184,-0.4069,0.4091,
1.867973,-0.0972,-1.1202,0.0636,-4.0313,-0.0747,-0.7569,-0.2184,-0.4069,0.4091,
1.898134,-0.0972,-1.1202,0.0636,-4.0313,-0.0747,-0.7569,0.1406,-0.4825,0.7085,
1.899538,-0.0972,-1.1202,0.0636,-3.5936,-0.0572,-0.7779,0.1406,-0.4825,0.7085,
1.938029,-0.0972,-1.1202,0.0636,-3.5936,-0.0572,-0.7779,0.8735,-0.7680,0.4730,
1.939798,-0.0972,-1.1202,0.0636,-0.6422,-0.9252,1.5723,0.8735,-0.7680,0.4730,
1.941038,0.0743,-1.0506,0.2426,-0.6422,-0.9252,1.5723,0.8735,-0.7680,0.4730,
1.942209,0.1799,-1.1928,-0.0916,-0.6422,-0.9252,1.5723,0.8735,-0.7680,0.4730,
1.943174,0.1078,-1.1733,-0.3427,-0.6422,-0.9252,1.5723,0.8735,-0.7680,0.4730,
1.944160,0.1430,-0.9170,-0.1920,-0.6422,-0.9252,1.5723,0.8735,-0.7680,0.4730,
1.977767,0.1430,-0.9170,-0.1920,-0.6422,-0.9252,1.5723,0.7137,-0.2269,0.3100,
1.979241,0.1430,-0.9170,-0.1920,1.7593,-0.7660,-1.1937,0.7137,-0.2269,0.3100,
2.016843,0.1430,-0.9170,-0.1920,1.7593,-0.7660,-1.1937,0.7628,0.1929,0.2887,
2.018182,0.1430,-0.9170,-0.1920,-1.1299,1.2210,0.1629,0.7628,0.1929,0.2887,
2.019446,-0.0066,-0.7890,-0.0351,-1.1299,1.2210,0.1629,0.7628,0.1929,0.2887,
2.020248,-0.2338,-0.8806,-0.0146,-1.1299,1.2210,0.1629,0.7628,0.1929,0.2887,
2.021218,-0.2584,-0.9978,-0.0684,-1.1299,1.2210,0.1629,0.7628,0.1929,0.2887,
2.022510,-0.1348,-0.9563,-0.1109,-1.1299,1.2210,0.1629,0.7628,0.1929,0.2887,
2.055449,-0.1348,-0.9563,-0.1109,-1.1299,1.2210,0.1629,0.6094,0.8363,0.6307,
2.056931,-0.1348,-0.9563,-0.1109,-0.8666,1.1769,-0.0545,0.6094,0.8363,0.6307,
2.096801,-0.1348,-0.9563,-0.1109,-0.8666,1.1769,-0.0545,0.0948,0.7841,0.4826,
2.098828,-0.1348,-0.9563,-0.1109,1.6390,0.2403,-0.5733,0.0948,0.7841,0.4826,
2.100234,0.0672,-0.9453,-0.1001,1.6390,0.2403,-0.5733,0.0948,0.7841,0.4826,
2.101726,0.2971,-1.0455,-0.0684,1.6390,0.2403,-0.5733,0.0948,0.7841,0.4826,
2.102698,0.4232,-1.0618,-0.1131,1.6390,0.2403,-0.5733,0.0948,0.7841,0.4826,
2.104593,0.3228,-0.9817,-0.2047,1.6390,0.2403,-0.5733,0.0948,0.7841,0.4826,
2.135304,0.3228,-0.9817,-0.2047,1.6390,0.2403,-0.5733,-0.3622,0.9918,-0.0948,
2.137547,0.3228,-0.9817,-0.2047,1.5361,0.2299,-0.3846,-0.3622,0.9918,-0.0948,
2.175306,0.3228,-0.9817,-0.2047,1.5361,0.2299,-0.3846,-0.7126,0.7106,-0.1768,
2.177668,0.3228,-0.9817,-0.2047,3.2333,-0.1374,-0.6778,-0.7126,0.7106,-0.1768,
2.179269,0.0609,-1.0130,-0.1495,3.2333,-0.1374,-0.6778,-0.7126,0.7106,-0.1768,
2.180798,-0.1219,-1.0650,-0.0955,3.2333,-0.1374,-0.6778,-0.7126,0.7106,-0.1768,
2.182039,-0.1883,-1.0157,-0.0837,3.2333,-0.1374,-0.6778,-0.7126,0.7106,-0.1768,
2.183421,-0.1751,-0.9392,-0.0405,3.2333,-0.1374,-0.6778,-0.7126,0.7106,-0.1768,
2.213939,-0.1751,-0.9392,-0.0405,3.2333,-0.1374,-0.6778,-0.9438,0.1066,-0.0607,
2.215534,-0.1751,-0.9392,-0.0405,-0.9850,-0.0533,0.4860,-0.9438,0.1066,-0.0607,
2.255659,-0.1751,-0.9392,-0.0405,-0.9850,-0.0533,0.4860,-0.7702,0.2067,-0.0244,
2.257776,-0.1944,-0.9082,0.0272,-0.9850,-0.0533,0.4860,-0.7702,0.2067,-0.0244,
2.259543,-0.2523,-0.8903,0.0387,-0.9850,-0.0533,0.4860,-0.7702,0.2067,-0.0244,
2.260909,-0.2623,-0.8730,-0.0273,-0.9850,-0.0533,0.4860,-0.7702,0.2067,-0.0244,
2.262466,-0.2081,-0.8906,-0.0659,-0.9850,-0.0533,0.4860,-0.7702,0.2067,-0.0244,
2.263737,-0.2081,-0.8906,-0.0659,-1.6872,1.0141,1.5866,-0.7702,0.2067,-0.0244,
2.294255,-0.2081,-0.8906,-0.0659,-1.6872,1.0141,1.5866,-0.6498,0.2344,0.1332,
2.296003,-0.2081,-0.8906,-0.0659,-1.6035,0.9420,1.7903,-0.6498,0.2344,0.1332,
2.334850,-0.2081,-0.8906,-0.0659,-1.6035,0.9420,1.7903,-0.6136,0.1257,-0.1097,
2.336694,-0.2081,-0.8906,-0.0659,-1.1218,0.5725,0.9881,-0.6136,0.1257,-0.1097,
2.338312,-0.1595,-0.9309,-0.0715,-1.1218,0.5725,0.9881,-0.6136,0.1257,-0.1097,
2.339480,-0.1883,-0.9458,-0.1338,-1.1218,0.5725,0.9881,-0.6136,0.1257,-0.1097,
2.340517,-0.2838,-0.9292,-0.1812,-1.1218,0.5725,0.9881,-0.6136,0.1257,-0.1097,
2.341850,-0.3889,-0.9307,-0.1695,-1.1218,0.5725,0.9881,-0.6136,0.1257,-0.1097,
2.372818,-0.3889,-0.9307,-0.1695,-1.2698,0.5179,1.2004,-0.6136,0.1257,-0.1097,
2.374456,-0.3889,-0.9307,-0.1695,-1.2698,0.5179,1.2004,-0.6178,0.4879,-0.3824,
2.412658,-0.3889,-0.9307,-0.1695,-1.2698,0.5179,1.2004,-0.7030,0.7063,-0.3920,
2.414817,-0.3889,-0.9307,-0.1695,-3.3102,0.1388,0.5159,-0.7030,0.7063,-0.3920,
2.416279,-0.4715,-1.0054,-0.2108,-3.3102,0.1388,0.5159,-0.7030,0.7063,-0.3920,
2.417956,-0.5325,-1.1989,-0.4226,-3.3102,0.1388,0.5159,-0.7030,0.7063,-0.3920,
2.419328,-0.5814,-1.3782,-0.5382,-3.3102,0.1388,0.5159,-0.7030,0.7063,-0.3920,
2.420674,-0.5599,-1.2825,-0.4138,-3.3102,0.1388,0.5159,-0.7030,0.7063,-0.3920,
2.452877,-0.5599,-1.2825,-0.4138,-3.3102,0.1388,0.5159,-1.1217,0.5700,0.0693,
2.454962,-0.5599,-1.2825,-0.4138,-4.9386,-3.1395,-1.6665,-1.1217,0.5700,0.0693,
2.492542,-0.5599,-1.2825,-0.4138,-4.9386,-3.1395,-1.6665,-1.1888,0.4006,0.3910,
2.495636,-0.5599,-1.2825,-0.4138,-2.3820,-1.1743,0.5318,-1.1888,0.4006,0.3910,
2.497654,-0.3671,-1.1051,-0.2235,-2.3820,-1.1743,0.5318,-1.1888,0.4006,0.3910,
2.498984,-0.2452,-1.0540,-0.1849,-2.3820,-1.1743,0.5318,-1.1888,0.4006,0.3910,
2.500242,-0.3278,-1.0616,-0.4272,-2.3820,-1.1743,0.5318,-1.1888,0.4006,0.3910,
2.501757,-0.4624,-1.0228,-0.4541,-2.3820,-1.1743,0.5318,-1.1888,0.4006,0.3910,
2.533144,-0.4624,-1.0228,-0.4541,-2.3820,-1.1743,0.5318,-0.8309,0.2493,0.4219,
2.535519,-0.4624,-1.0228,-0.4541,-2.2025,-1.2661,0.8233,-0.8309,0.2493,0.4219,
2.560385,-0.2733,-0.9150,-0.1172,-2.2025,-1.2661,0.8233,-0.8309,0.2493,0.4219,
2.563028,0.0320,-0.8478,-0.0195,-2.2025,-1.2661,0.8233,-0.8309,0.2493,0.4219,
2.564754,0.0479,-0.7381,-0.0657,-2.2025,-1.2661,0.8233,-0.8309,0.2493,0.4219,
2.573898,0.0479,-0.7381,-0.0657,-2.2025,-1.2661,0.8233,-0.0500,0.2216,0.1726,
2.575667,0.0479,-0.7381,-0.0657,-1.3634,0.1386,1.6079,-0.0500,0.2216,0.1726,
2.611654,0.0479,-0.7381,-0.0657,-1.3634,0.1386,1.6079,0.6797,0.3111,-0.1715,
2.613482,0.0479,-0.7381,-0.0657,0.5710,2.9233,2.1536,0.6797,0.3111,-0.1715,
2.649742,-0.0408,-0.6263,-0.1114,0.5710,2.9233,2.1536,0.6797,0.3111,-0.1715,
2.652236,-0.0820,-0.5764,-0.1570,0.5710,2.9233,2.1536,0.6797,0.3111,-0.1715,
2.653453,-0.0513,-0.5808,-0.1688,0.5710,2.9233,2.1536,0.6797,0.3111,-0.1715,
2.655110,-0.0525,-0.6306,-0.2809,0.5710,2.9233,2.1536,0.6797,0.3111,-0.1715,
2.656679,-0.0525,-0.6306,-0.2809,0.5710,2.9233,2.1536,1.1814,-0.1651,-0.4207,
2.658077,-0.0525,-0.6306,-0.2809,0.4239,3.0023,1.6700,1.1814,-0.1651,-0.4207,
2.689948,-0.0525,-0.6306,-0.2809,0.4239,3.0023,1.6700,1.1356,-0.7371,-0.5858,
2.692752,-0.0525,-0.6306,-0.2809,-0.0388,3.0046,-0.4633,1.1356,-0.7371,-0.5858,
2.729736,-0.0525,-0.6306,-0.2809,-0.0388,3.0046,-0.4633,0.6658,-1.3230,-0.5241,
2.732238,-0.0525,-0.6306,-0.2809,-0.1180,2.9993,-0.7196,0.6658,-1.3230,-0.5241,
2.733725,-0.0686,-0.7455,-0.4060,-0.1180,2.9993,-0.7196,0.6658,-1.3230,-0.5241,
2.736382,-0.1309,-0.9209,-0.4294,-0.1180,2.9993,-0.7196,0.6658,-1.3230,-0.5241,
2.737965,-0.3278,-1.1139,-0.4104,-0.1180,2.9993,-0.7196,0.6658,-1.3230,-0.5241,
2.739118,-0.4964,-1.2341,-0.4343,-0.1180,2.9993,-0.7196,0.6658,-1.3230,-0.5241,
2.740354,-0.4004,-1.2128,-0.3591,-0.1180,2.9993,-0.7196,0.6658,-1.3230,-0.5241,
2.769965,-0.4004,-1.2128,-0.3591,-0.1180,2.9993,-0.7196,-0.1054,-1.4945,-0.2300,
2.772105,-0.4004,-1.2128,-0.3591,-2.5774,-1.2608,-2.0260,-0.1054,-1.4945,-0.2300,
2.809803,-0.4004,-1.2128,-0.3591,-2.5774,-1.2608,-2.0260,-0.1310,-0.5986,-0.1938,
2.811830,-0.4004,-1.2128,-0.3591,-1.0719,-1.9800,-1.2459,-0.1310,-0.5986,-0.1938,
2.813556,-0.1566,-1.1921,-0.3349,-1.0719,-1.9800,-1.2459,-0.1310,-0.5986,-0.1938,
2.815558,0.0616,-1.0961,-0.3613,-1.0719,-1.9800,-1.2459,-0.1310,-0.5986,-0.1938,
2.817019,0.1708,-1.0018,-0.2885,-1.0719,-1.9800,-1.2459,-0.1310,-0.5986,-0.1938,
2.818762,0.0968,-0.9861,-0.2797,-1.0719,-1.9800,-1.2459,-0.1310,-0.5986,-0.1938,
2.849952,0.0968,-0.9861,-0.2797,-0.9585,-1.9342,-1.2451,-0.1310,-0.5986,-0.1938,
2.851672,0.0968,-0.9861,-0.2797,-0.9585,-1.9342,-1.2451,-0.0277,-1.6564,-0.1406,
2.890455,0.0968,-0.9861,-0.2797,2.2348,0.3921,0.1352,-0.0277,-1.6564,-0.1406,
2.892349,0.0968,-0.9861,-0.2797,2.2348,0.3921,0.1352,-0.0405,-2.6269,-0.2599,
2.893289,0.1908,-0.7995,-0.0451,2.2348,0.3921,0.1352,-0.0405,-2.6269,-0.2599,
2.894397,0.3501,-0.7701,-0.1490,2.2348,0.3921,0.1352,-0.0405,-2.6269,-0.2599,
2.895591,0.1234,-1.1227,-0.6784,2.2348,0.3921,0.1352,-0.0405,-2.6269,-0.2599,
2.896589,-0.1683,-1.3323,-0.4214,2.2348,0.3921,0.1352,-0.0405,-2.6269,-0.2599,
2.927728,-0.1683,-1.3323,-0.4214,2.2348,0.3921,0.1352,-0.3867,-1.6863,-0.3664,
2.930074,-0.1683,-1.3323,-0.4214,1.7037,-1.0375,-1.8052,-0.3867,-1.6863,-0.3664,
2.961466,0.0323,-1.0721,-0.0117,1.7037,-1.0375,-1.8052,-0.3867,-1.6863,-0.3664,
2.964048,0.1569,-0.9651,0.0145,1.7037,-1.0375,-1.8052,-0.3867,-1.6863,-0.3664,
2.966124,0.0892,-1.0088,-0.0930,1.7037,-1.0375,-1.8052,-0.3867,-1.6863,-0.3664,
2.968066,0.0892,-1.0088,-0.0930,1.7037,-1.0375,-1.8052,-0.1001,-1.3539,-0.4772,
2.969423,0.0892,-1.0088,-0.0930,1.5256,-0.4391,1.9380,-0.1001,-1.3539,-0.4772,
3.008447,0.0892,-1.0088,-0.0930,1.5256,-0.4391,1.9380,0.1705,-1.3869,-0.4740,
3.010995,0.0892,-1.0088,-0.0930,0.1105,-1.2026,0.1784,0.1705,-1.3869,-0.4740,
3.012368,0.0008,-1.0518,-0.1991,0.1105,-1.2026,0.1784,0.1705,-1.3869,-0.4740,
3.014321,-0.0842,-1.1161,-0.2208,0.1105,-1.2026,0.1784,0.1705,-1.3869,-0.4740,
3.016202,-0.0527,-1.1276,-0.1783,0.1105,-1.2026,0.1784,0.1705,-1.3869,-0.4740,
3.046184,-0.0527,-1.1276,-0.1783,0.1105,-1.2026,0.1784,0.3058,-1.5062,-0.2492,
3.047918,-0.0527,-1.1276,-0.1783,0.1361,-1.1478,0.0282,0.3058,-1.5062,-0.2492,
3.086688,-0.0527,-1.1276,-0.1783,0.1361,-1.1478,0.0282,0.6946,-1.3188,-0.2705,
3.088639,-0.0527,-1.1276,-0.1783,0.3128,-0.8796,0.7376,0.6946,-1.3188,-0.2705,
3.090084,0.0030,-1.1117,-0.1233,0.3128,-0.8796,0.7376,0.6946,-1.3188,-0.2705,
3.091736,-0.0141,-1.0838,-0.0691,0.3128,-0.8796,0.7376,0.6946,-1.3188,-0.2705,
3.092870,-0.0669,-1.0408,-0.0933,0.3128,-0.8796,0.7376,0.6946,-1.3188,-0.2705,
3.094009,-0.0857,-0.9920,-0.1011,0.3128,-0.8796,0.7376,0.6946,-1.3188,-0.2705,
3.125671,-0.0857,-0.9920,-0.1011,0.3128,-0.8796,0.7376,0.9066,-0.9289,-0.3078,
3.127874,-0.0857,-0.9920,-0.1011,0.2445,-0.8029,0.3606,0.9066,-0.9289,-0.3078,
3.165827,-0.0857,-0.9920,-0.1011,0.2445,-0.8029,0.3606,1.1654,-0.7382,-0.1715,
3.167942,-0.0857,-0.9920,-0.1011,-1.1525,0.2662,0.4091,1.1654,-0.7382,-0.1715,
3.169137,-0.1636,-0.9700,-0.0232,-1.1525,0.2662,0.4091,1.1654,-0.7382,-0.1715,
3.170828,-0.2528,-0.9614,-0.0012,-1.1525,0.2662,0.4091,1.1654,-0.7382,-0.1715,
3.171987,-0.2716,-0.8955,-0.0830,-1.1525,0.2662,0.4091,1.1654,-0.7382,-0.1715,
3.173111,-0.2064,-0.8007,-0.2399,-1.1525,0.2662,0.4091,1.1654,-0.7382,-0.1715,
3.205808,-0.2064,-0.8007,-0.2399,-1.1525,0.2662,0.4091,0.8863,-0.7840,0.3250,
3.207806,-0.2064,-0.8007,-0.2399,-0.9862,0.2758,0.0460,0.8863,-0.7840,0.3250,
3.245431,-0.2064,-0.8007,-0.2399,-0.9862,0.2758,0.0460,0.2855,-0.7883,0.3761,
3.247616,-0.2064,-0.8007,-0.2399,-1.1188,1.5542,-1.5713,0.2855,-0.7883,0.3761,
3.249425,-0.1199,-0.8244,-0.2662,-1.1188,1.5542,-1.5713,0.2855,-0.7883,0.3761,
3.250881,-0.0803,-0.9556,-0.1201,-1.1188,1.5542,-1.5713,0.2855,-0.7883,0.3761,
3.252247,-0.0141,-1.0274,-0.0801,-1.1188,1.5542,-1.5713,0.2855,-0.7883,0.3761,
3.253315,0.0042,-1.0347,-0.1802,-1.1188,1.5542,-1.5713,0.2855,-0.7883,0.3761,
3.285410,0.0042,-1.0347,-0.1802,-1.1188,1.5542,-1.5713,-0.1662,0.1918,-0.0703,
3.287486,0.0042,-1.0347,-0.1802,0.4995,-0.0688,-0.8034,-0.1662,0.1918,-0.0703,
3.324850,0.0042,-1.0347,-0.1802,0.4995,-0.0688,-0.8034,-0.4879,0.4357,-0.2258,
3.326872,0.0042,-1.0347,-0.1802,-1.2501,-0.1730,2.2823,-0.4879,0.4357,-0.2258,
3.328760,-0.0913,-1.0406,-0.0913,-1.2501,-0.1730,2.2823,-0.4879,0.4357,-0.2258,
3.330126,-0.2157,-1.0108,0.2383,-1.2501,-0.1730,2.2823,-0.4879,0.4357,-0.2258,
3.331791,-0.2965,-0.9981,0.3687,-1.2501,-0.1730,2.2823,-0.4879,0.4357,-0.2258,
3.333690,-0.3806,-1.0230,0.2839,-1.2501,-0.1730,2.2823,-0.4879,0.4357,-0.2258,
3.364587,-0.3806,-1.0230,0.2839,-1.2780,-0.1702,2.3034,-0.4879,0.4357,-0.2258,
3.366758,-0.3806,-1.0230,0.2839,-1.2780,-0.1702,2.3034,-0.1140,0.7787,-0.0841,
3.403365,-0.3806,-1.0230,0.2839,-1.2780,-0.1702,2.3034,0.0064,1.2997,0.3825,
3.405999,-0.3806,-1.0230,0.2839,-4.0197,-0.0503,2.5465,0.0064,1.2997,0.3825,
3.407292,-0.5259,-1.0169,0.1794,-4.0197,-0.0503,2.5465,0.0064,1.2997,0.3825,
3.408539,-0.5948,-0.9697,0.1305,-4.0197,-0.0503,2.5465,0.0064,1.2997,0.3825,
3.409792,-0.5824,-0.9715,0.0917,-4.0197,-0.0503,2.5465,0.0064,1.2997,0.3825,
3.411293,-0.5255,-1.0137,0.0836,-4.0197,-0.0503,2.5465,0.0064,1.2997,0.3825,
3.443323,-0.5255,-1.0137,0.0836,-4.0197,-0.0503,2.5465,-0.2386,2.2776,0.5721,
3.446581,-0.5255,-1.0137,0.0836,-3.7891,-0.0774,2.6757,-0.2386,2.2776,0.5721,
3.482859,-0.5255,-1.0137,0.0836,-3.7891,-0.0774,2.6757,-0.5752,2.9359,0.6871,
3.486619,-0.5255,-1.0137,0.0836,-3.7143,-0.1890,1.8260,-0.5752,2.9359,0.6871,
3.487964,-0.4404,-1.0433,0.0582,-3.7143,-0.1890,1.8260,-0.5752,2.9359,0.6871,
3.489087,-0.2760,-1.0193,0.0142,-3.7143,-0.1890,1.8260,-0.5752,2.9359,0.6871,
3.492250,-0.0938,-0.9842,0.0455,-3.7143,-0.1890,1.8260,-0.5752,2.9359,0.6871,
3.494123,0.0382,-0.9443,0.0675,-3.7143,-0.1890,1.8260,-0.5752,2.9359,0.6871,
3.521561,0.0382,-0.9443,0.0675,-3.7143,-0.1890,1.8260,-0.7521,3.0914,0.6051,
3.523736,0.0382,-0.9443,0.0675,0.3283,0.0025,1.9027,-0.7521,3.0914,0.6051,
3.561567,0.0382,-0.9443,0.0675,0.3283,0.0025,1.9027,-0.9225,2.7133,0.4879,
3.562876,0.0382,-0.9443,0.0675,2.3347,-0.1232,0.7154,-0.9225,2.7133,0.4879,
3.564779,0.1027,-0.9500,-0.0092,2.3347,-0.1232,0.7154,-0.9225,2.7133,0.4879,
3.565607,0.0853,-1.0003,-0.1223,2.3347,-0.1232,0.7154,-0.9225,2.7133,0.4879,
3.566241,0.1075,-1.0088,-0.2548,2.3347,-0.1232,0.7154,-0.9225,2.7133,0.4879,
3.566715,0.2153,-0.9539,-0.3947,2.3347,-0.1232,0.7154,-0.9225,2.7133,0.4879,
3.600917,0.2153,-0.9539,-0.3947,2.3347,-0.1232,0.7154,-1.4008,1.3114,0.5582,
3.602215,0.2153,-0.9539,-0.3947,2.3865,-0.2764,1.2908,-1.4008,1.3114,0.5582,
3.630231,0.3343,-0.8547,-0.3757,2.3865,-0.2764,1.2908,-1.4008,1.3114,0.5582,
3.632400,0.3413,-0.7802,-0.3525,2.3865,-0.2764,1.2908,-1.4008,1.3114,0.5582,
3.633740,0.1676,-0.7836,-0.3522,2.3865,-0.2764,1.2908,-1.4008,1.3114,0.5582,
3.642285,0.1676,-0.7836,-0.3522,2.3865,-0.2764,1.2908,-1.5862,0.1843,0.4869,
3.644258,0.1676,-0.7836,-0.3522,4.4146,0.7128,-0.5125,-1.5862,0.1843,0.4869,
3.680752,0.1676,-0.7836,-0.3522,4.4146,0.7128,-0.5125,-0.9449,-0.8277,0.4262,
3.682834,0.1676,-0.7836,-0.3522,1.8765,0.2922,-0.4238,-0.9449,-0.8277,0.4262,
3.719038,-0.0442,-0.9048,-0.3659,1.8765,0.2922,-0.4238,-0.9449,-0.8277,0.4262,
3.721585,-0.0803,-0.9812,-0.4676,1.8765,0.2922,-0.4238,-0.9449,-0.8277,0.4262,
3.723042,0.0406,-0.9436,-0.7097,1.8765,0.2922,-0.4238,-0.9449,-0.8277,0.4262,
3.724796,0.2026,-0.8642,-0.7141,1.8765,0.2922,-0.4238,-0.9449,-0.8277,0.4262,
3.726197,0.2026,-0.8642,-0.7141,1.8765,0.2922,-0.4238,-0.4751,-1.2293,0.1726,
3.728533,0.2026,-0.8642,-0.7141,2.0735,0.2101,-0.3395,-0.4751,-1.2293,0.1726,
3.760457,0.2026,-0.8642,-0.7141,2.0735,0.2101,-0.3395,-0.4122,-0.7616,-0.4058,
3.763435,0.2026,-0.8642,-0.7141,3.5979,0.4238,-2.5672,-0.4122,-0.7616,-0.4058,
3.800842,0.2026,-0.8642,-0.7141,3.5979,0.4238,-2.5672,0.3249,-1.1526,-0.8884,
3.803352,0.2026,-0.8642,-0.7141,3.3892,0.5228,-2.7173,0.3249,-1.1526,-0.8884,
3.804858,0.2961,-0.7858,-0.4839,3.3892,0.5228,-2.7173,0.3249,-1.1526,-0.8884,
3.806091,0.1940,-0.8649,-0.2357,3.3892,0.5228,-2.7173,0.3249,-1.1526,-0.8884,
3.807392,0.0208,-0.9890,-0.0713,3.3892,0.5228,-2.7173,0.3249,-1.1526,-0.8884,
3.808625,-0.1224,-0.9856,-0.1350,3.3892,0.5228,-2.7173,0.3249,-1.1526,-0.8884,
3.809921,-0.2787,-0.9404,-0.2113,3.3892,0.5228,-2.7173,0.3249,-1.1526,-0.8884,
3.839503,-0.2787,-0.9404,-0.2113,3.3892,0.5228,-2.7173,0.8203,-1.3741,-0.9597,
3.845058,-0.2787,-0.9404,-0.2113,1.7367,-0.1122,1.6629,0.8203,-1.3741,-0.9597,
3.878975,-0.3569,-0.9275,-0.2196,1.7367,-0.1122,1.6629,0.8203,-1.3741,-0.9597,
3.881149,-0.4527,-0.9658,-0.2201,1.7367,-0.1122,1.6629,0.8203,-1.3741,-0.9597,
3.882307,-0.5643,-0.9842,-0.1062,1.7367,-0.1122,1.6629,0.8203,-1.3741,-0.9597,
3.883201,-0.5643,-0.9842,-0.1062,1.7367,-0.1122,1.6629,0.9023,-1.1323,-0.9630,
3.884011,-0.5643,-0.9842,-0.1062,-2.3031,0.0607,0.5803,0.9023,-1.1323,-0.9630,
3.918347,-0.5643,-0.9842,-0.1062,-2.3031,0.0607,0.5803,1.2379,-0.9587,-0.9214,
3.920077,-0.5643,-0.9842,-0.1062,-3.9178,0.4556,1.8693,1.2379,-0.9587,-0.9214,
3.958015,-0.5643,-0.9842,-0.1062,-3.9178,0.4556,1.8693,1.4903,-0.6668,-0.8618,
3.959965,-0.5643,-0.9842,-0.1062,-4.1236,0.5883,1.2590,1.4903,-0.6668,-0.8618,
3.961129,-0.5545,-0.9180,0.0303,-4.1236,0.5883,1.2590,1.4903,-0.6668,-0.8618,
3.961991,-0.4077,-0.8579,-0.0163,-4.1236,0.5883,1.2590,1.4903,-0.6668,-0.8618,
3.962898,-0.1939,-0.8171,0.0091,-4.1236,0.5883,1.2590,1.4903,-0.6668,-0.8618,
3.963701,-0.1727,-0.8007,-0.0605,-4.1236,0.5883,1.2590,1.4903,-0.6668,-0.8618,
3.964555,-0.4050,-0.9905,-0.2733,-4.1236,0.5883,1.2590,1.4903,-0.6668,-0.8618,
3.998284,-0.4050,-0.9905,-0.2733,-4.1236,0.5883,1.2590,1.1356,-1.0066,-0.6966,
4.000388,-0.4050,-0.9905,-0.2733,-1.8406,1.1452,0.0350,1.1356,-1.0066,-0.6966,
4.037946,-0.4050,-0.9905,-0.2733,-1.8406,1.1452,0.0350,0.2344,-0.3696,-0.0330,
4.040991,-0.4050,-0.9905,-0.2733,-4.4890,-3.5643,-4.2925,0.2344,-0.3696,-0.0330,
4.042512,-0.5785,-1.3299,-0.4705,-4.4890,-3.5643,-4.2925,0.2344,-0.3696,-0.0330,
4.043942,-0.5716,-1.4784,-0.6149,-4.4890,-3.5643,-4.2925,0.2344,-0.3696,-0.0330,
4.045221,-0.4563,-1.2634,-0.5560,-4.4890,-3.5643,-4.2925,0.2344,-0.3696,-0.0330,
4.046361,-0.3430,-0.9829,-0.2242,-4.4890,-3.5643,-4.2925,0.2344,-0.3696,-0.0330,
4.077639,-0.3430,-0.9829,-0.2242,-4.4890,-3.5643,-4.2925,-0.5124,0.7532,0.1183,
4.080186,-0.3430,-0.9829,-0.2242,-4.4040,-3.5320,-4.0043,-0.5124,0.7532,0.1183,
4.117441,-0.3430,-0.9829,-0.2242,-4.4040,-3.5320,-4.0043,-0.2311,0.6062,-0.0106,
4.119485,-0.3430,-0.9829,-0.2242,-2.4321,1.0630,0.8276,-0.2311,0.6062,-0.0106,
4.120695,-0.3439,-0.8444,0.0262,-2.4321,1.0630,0.8276,-0.2311,0.6062,-0.0106,
4.121688,-0.3168,-0.8283,0.0066,-2.4321,1.0630,0.8276,-0.2311,0.6062,-0.0106,
4.122762,-0.2880,-0.9548,-0.0644,-2.4321,1.0630,0.8276,-0.2311,0.6062,-0.0106,
4.123744,-0.2538,-1.1014,-0.1934,-2.4321,1.0630,0.8276,-0.2311,0.6062,-0.0106,
4.155209,-0.2538,-1.1014,-0.1934,-2.4321,1.0630,0.8276,0.1428,0.6765,0.1982,
4.156596,-0.2538,-1.1014,-0.1934,-2.3546,1.0467,0.7823,0.1428,0.6765,0.1982,
4.195297,-0.2538,-1.1014,-0.1934,-2.3546,1.0467,0.7823,-0.1960,1.2049,0.3292,
4.196360,-0.2538,-1.1014,-0.1934,-1.2446,-0.9083,-0.6485,-0.1960,1.2049,0.3292,
4.197880,-0.1461,-1.1952,-0.4118,-1.2446,-0.9083,-0.6485,-0.1960,1.2049,0.3292,
4.198493,0.0137,-1.0970,-0.3364,-1.2446,-0.9083,-0.6485,-0.1960,1.2049,0.3292,
4.198905,0.0562,-0.9155,-0.0481,-1.2446,-0.9083,-0.6485,-0.1960,1.2049,0.3292,
4.199347,-0.0547,-0.9226,0.0743,-1.2446,-0.9083,-0.6485,-0.1960,1.2049,0.3292,
4.236059,-0.0547,-0.9226,0.0743,-1.2446,-0.9083,-0.6485,0.0799,1.2379,0.1566,
4.238223,-0.0547,-0.9226,0.0743,1.0189,0.1219,0.5355,0.0799,1.2379,0.1566,
4.276153,-0.0899,-0.9895,-0.0933,1.0189,0.1219,0.5355,0.0799,1.2379,0.1566,
4.278479,-0.0146,-1.0213,-0.3310,1.0189,0.1219,0.5355,0.0799,1.2379,0.1566,
4.279684,0.0306,-1.0650,-0.1886,1.0189,0.1219,0.5355,0.0799,1.2379,0.1566,
4.280865,0.0306,-1.0650,-0.1886,1.0189,0.1219,0.5355,0.3718,1.4829,0.1748,
4.281900,0.0306,-1.0650,-0.1886,0.6942,-0.3168,-0.5312,0.3718,1.4829,0.1748,
4.315045,0.0306,-1.0650,-0.1886,0.6942,-0.3168,-0.5312,0.4783,1.3412,0.2429,
4.317521,0.0306,-1.0650,-0.1886,2.0086,-0.6694,0.7352,0.4783,1.3412,0.2429,
4.355127,0.0306,-1.0650,-0.1886,2.0086,-0.6694,0.7352,0.7180,0.7851,0.3686,
4.357528,0.0306,-1.0650,-0.1886,2.0781,-0.6385,0.4788,0.7180,0.7851,0.3686,
4.359024,0.0648,-1.0553,0.0582,2.0781,-0.6385,0.4788,0.7180,0.7851,0.3686,
4.360223,0.1127,-1.0736,0.0216,2.0781,-0.6385,0.4788,0.7180,0.7851,0.3686,
4.361642,0.1557,-1.0638,-0.2599,2.0781,-0.6385,0.4788,0.7180,0.7851,0.3686,
4.362636,0.0731,-0.9878,-0.4419,2.0781,-0.6385,0.4788,0.7180,0.7851,0.3686,
4.363779,0.0592,-0.9903,-0.1961,2.0781,-0.6385,0.4788,0.7180,0.7851,0.3686,
4.394409,0.0592,-0.9903,-0.1961,2.0781,-0.6385,0.4788,0.4453,0.2206,0.5913,
4.396556,0.0592,-0.9903,-0.1961,2.2601,-0.6361,0.3101,0.4453,0.2206,0.5913,
4.434911,0.0592,-0.9903,-0.1961,2.2601,-0.6361,0.3101,1.1281,0.1865,0.3356,
4.437768,0.0592,-0.9903,-0.1961,2.2033,-0.1987,-1.4829,1.1281,0.1865,0.3356,
4.439180,0.1566,-1.0860,0.0325,2.2033,-0.1987,-1.4829,1.1281,0.1865,0.3356,
4.440904,0.3084,-1.0970,-0.0232,2.2033,-0.1987,-1.4829,1.1281,0.1865,0.3356,
4.441924,0.3653,-0.9712,-0.2010,2.2033,-0.1987,-1.4829,1.1281,0.1865,0.3356,
4.443506,0.3196,-0.8239,-0.2970,2.2033,-0.1987,-1.4829,1.1281,0.1865,0.3356,
4.474157,0.3196,-0.8239,-0.2970,2.2033,-0.1987,-1.4829,0.9438,0.2696,0.2557,
4.476732,0.3196,-0.8239,-0.2970,4.5236,0.3557,-1.5344,0.9438,0.2696,0.2557,
4.513094,0.3196,-0.8239,-0.2970,4.5236,0.3557,-1.5344,0.0448,-0.3909,0.3196,
4.515578,0.3196,-0.8239,-0.2970,3.6750,0.6685,-2.7363,0.0448,-0.3909,0.3196,
4.516919,0.2089,-0.8324,-0.3278,3.6750,0.6685,-2.7363,0.0448,-0.3909,0.3196,
4.519856,0.1889,-0.9644,-0.3281,3.6750,0.6685,-2.7363,0.0448,-0.3909,0.3196,
4.521194,0.3162,-0.9910,-0.2357,3.6750,0.6685,-2.7363,0.0448,-0.3909,0.3196,
4.522333,0.3098,-0.9776,-0.2301,3.6750,0.6685,-2.7363,0.0448,-0.3909,0.3196,
4.553363,0.3098,-0.9776,-0.2301,3.5419,0.6615,-2.4966,0.0448,-0.3909,0.3196,
4.556064,0.3098,-0.9776,-0.2301,3.5419,0.6615,-2.4966,-0.5688,-0.4399,-0.2002,
4.592877,0.3098,-0.9776,-0.2301,3.5419,0.6615,-2.4966,-1.3475,-0.6434,-0.4633,
4.595180,0.3098,-0.9776,-0.2301,2.3796,-0.0333,-1.5267,-1.3475,-0.6434,-0.4633,
4.596540,0.1144,-0.9986,-0.2814,2.3796,-0.0333,-1.5267,-1.3475,-0.6434,-0.4633,
4.598430,-0.0039,-1.0201,-0.2418,2.3796,-0.0333,-1.5267,-1.3475,-0.6434,-0.4633,
4.599794,-0.0816,-1.1207,-0.1734,2.3796,-0.0333,-1.5267,-1.3475,-0.6434,-0.4633,
4.601422,-0.2237,-1.2351,-0.1834,2.3796,-0.0333,-1.5267,-1.3475,-0.6434,-0.4633,
4.632306,-0.2237,-1.2351,-0.1834,2.3796,-0.0333,-1.5267,-1.9654,-0.7307,-0.3493,
4.634995,-0.2237,-1.2351,-0.1834,2.2442,-0.1192,-0.7840,-1.9654,-0.7307,-0.3493,
4.672397,-0.2237,-1.2351,-0.1834,2.2442,-0.1192,-0.7840,-2.4512,-0.1139,-0.0266,
4.674662,-0.2237,-1.2351,-0.1834,-1.3334,-2.2136,0.4500,-2.4512,-0.1139,-0.0266,
4.676100,-0.3757,-1.2297,-0.3000,-1.3334,-2.2136,0.4500,-2.4512,-0.1139,-0.0266,
4.677597,-0.4001,-1.1127,-0.3674,-1.3334,-2.2136,0.4500,-2.4512,-0.1139,-0.0266,
4.678930,-0.2978,-1.0037,-0.0542,-1.3334,-2.2136,0.4500,-2.4512,-0.1139,-0.0266,
4.680189,-0.3329,-0.9619,0.2226,-1.3334,-2.2136,0.4500,-2.4512,-0.1139,-0.0266,
4.712147,-0.3329,-0.9619,0.2226,-1.3334,-2.2136,0.4500,-1.5617,0.6690,-0.0319,
4.714856,-0.3329,-0.9619,0.2226,-2.5244,-0.7226,2.5078,-1.5617,0.6690,-0.0319,
4.751579,-0.3329,-0.9619,0.2226,-1.5773,-0.5913,2.5763,-1.5617,0.6690,-0.0319,
4.753948,-0.3329,-0.9619,0.2226,-1.5773,-0.5913,2.5763,-0.3441,-0.3515,-0.1235,
4.755145,-0.3847,-0.9619,0.1356,-1.5773,-0.5913,2.5763,-0.3441,-0.3515,-0.1235,
4.756246,-0.2873,-1.0296,-0.1065,-1.5773,-0.5913,2.5763,-0.3441,-0.3515,-0.1235,
4.757626,-0.0772,-1.0374,-0.2291,-1.5773,-0.5913,2.5763,-0.3441,-0.3515,-0.1235,
4.758743,0.0658,-0.9175,-0.2318,-1.5773,-0.5913,2.5763,-0.3441,-0.3515,-0.1235,
4.790416,0.0658,-0.9175,-0.2318,-1.5773,-0.5913,2.5763,-0.0330,-0.8234,-0.3888,
4.793031,0.0658,-0.9175,-0.2318,-1.5883,-0.5727,2.5179,-0.0330,-0.8234,-0.3888,
4.830762,0.0658,-0.9175,-0.2318,-1.5883,-0.5727,2.5179,0.2397,-0.5283,-0.7819,
4.833371,0.0658,-0.9175,-0.2318,0.9685,1.2436,1.0261,0.2397,-0.5283,-0.7819,
4.834876,0.0606,-0.7973,-0.1917,0.9685,1.2436,1.0261,0.2397,-0.5283,-0.7819,
4.835982,-0.0193,-0.7679,-0.1956,0.9685,1.2436,1.0261,0.2397,-0.5283,-0.7819,
4.837351,-0.1331,-0.7640,-0.2171,0.9685,1.2436,1.0261,0.2397,-0.5283,-0.7819,
4.838613,-0.1969,-0.7570,-0.2785,0.9685,1.2436,1.0261,0.2397,-0.5283,-0.7819,
4.870097,-0.1969,-0.7570,-0.2785,0.9685,1.2436,1.0261,0.5880,-0.4165,-0.9044,
4.872952,-0.1969,-0.7570,-0.2785,0.6691,1.3070,0.7857,0.5880,-0.4165,-0.9044,
4.910030,-0.1969,-0.7570,-0.2785,0.6691,1.3070,0.7857,0.6371,0.4826,-0.8127,
4.912485,-0.1969,-0.7570,-0.2785,-1.7476,1.9076,0.0694,0.6371,0.4826,-0.8127,
4.913866,-0.2030,-0.7902,-0.2699,-1.7476,1.9076,0.0694,0.6371,0.4826,-0.8127,
4.915023,-0.1676,-0.8337,-0.2865,-1.7476,1.9076,0.0694,0.6371,0.4826,-0.8127,
4.916100,-0.2105,-0.9292,-0.3461,-1.7476,1.9076,0.0694,0.6371,0.4826,-0.8127,
4.917287,-0.4600,-1.0965,-0.5643,-1.7476,1.9076,0.0694,0.6371,0.4826,-0.8127,
4.949240,-0.4600,-1.0965,-0.5643,-1.7476,1.9076,0.0694,0.3281,-0.5134,-0.4900,
4.951760,-0.4600,-1.0965,-0.5643,-2.8300,0.1453,-1.4366,0.3281,-0.5134,-0.4900,
4.989246,-0.4600,-1.0965,-0.5643,-2.8300,0.1453,-1.4366,0.3324,-0.4719,0.1204,
4.992554,-0.4600,-1.0965,-0.5643,-1.7592,-1.1897,-0.0041,0.3324,-0.4719,0.1204,
4.994155,-0.4663,-1.1239,-0.5609,-1.7592,-1.1897,-0.0041,0.3324,-0.4719,0.1204,
4.995450,-0.1148,-1.0848,-0.1465,-1.7592,-1.1897,-0.0041,0.3324,-0.4719,0.1204,
4.996716,0.0340,-1.0753,-0.0131,-1.7592,-1.1897,-0.0041,0.3324,-0.4719,0.1204,
4.998483,0.0298,-1.0186,-0.1052,-1.7592,-1.1897,-0.0041,0.3324,-0.4719,0.1204,
5.028704,0.0298,-1.0186,-0.1052,-1.7592,-1.1897,-0.0041,0.4336,-0.3238,0.0810,
5.031077,0.0298,-1.0186,-0.1052,-1.6710,-1.1317,-0.1663,0.4336,-0.3238,0.0810,
5.067965,0.0298,-1.0186,-0.1052,-1.6710,-1.1317,-0.1663,0.2493,-0.8170,-0.1086,
5.070015,0.0298,-1.0186,-0.1052,0.1018,0.3211,-0.5076,0.2493,-0.8170,-0.1086,
5.071652,0.0406,-0.9465,-0.2359,0.1018,0.3211,-0.5076,0.2493,-0.8170,-0.1086,
5.072785,-0.0828,-0.8791,-0.4561,0.1018,0.3211,-0.5076,0.2493,-0.8170,-0.1086,
5.074184,-0.2770,-0.8097,-0.3503,0.1018,0.3211,-0.5076,0.2493,-0.8170,-0.1086,
5.075326,-0.3242,-0.8202,-0.1690,0.1018,0.3211,-0.5076,0.2493,-0.8170,-0.1086,
5.107710,-0.3242,-0.8202,-0.1690,0.1018,0.3211,-0.5076,-0.1843,-0.6657,0.1662,
5.109984,-0.3242,-0.8202,-0.1690,0.2171,0.2991,-0.4352,-0.1843,-0.6657,0.1662,
5.148737,-0.3242,-0.8202,-0.1690,0.2171,0.2991,-0.4352,-0.3132,0.0501,0.3143,
5.151259,-0.3242,-0.8202,-0.1690,-2.5100,1.1333,0.0068,-0.3132,0.0501,0.3143,
5.152629,-0.2941,-0.9434,-0.1793,-2.5100,1.1333,0.0068,-0.3132,0.0501,0.3143,
5.154022,-0.2787,-1.0860,-0.0940,-2.5100,1.1333,0.0068,-0.3132,0.0501,0.3143,
5.155070,-0.2091,-1.1046,0.0773,-2.5100,1.1333,0.0068,-0.3132,0.0501,0.3143,
5.156205,-0.1697,-1.0408,0.1347,-2.5100,1.1333,0.0068,-0.3132,0.0501,0.3143,
5.187461,-0.1697,-1.0408,0.1347,-2.5100,1.1333,0.0068,0.1002,0.8192,0.1076,
5.189817,-0.1697,-1.0408,0.1347,-1.7376,-0.9926,2.6051,0.1002,0.8192,0.1076,
5.227297,-0.1697,-1.0408,0.1347,-1.7376,-0.9926,2.6051,0.5188,1.5127,0.1396,
5.229845,-0.1697,-1.0408,0.1347,-2.2794,-1.4262,1.2080,0.5188,1.5127,0.1396,
5.231394,-0.2548,-1.0550,0.0198,-2.2794,-1.4262,1.2080,0.5188,1.5127,0.1396,
5.232492,-0.3053,-1.1266,-0.1595,-2.2794,-1.4262,1.2080,0.5188,1.5127,0.1396,
5.233622,-0.2521,-1.2028,-0.1104,-2.2794,-1.4262,1.2080,0.5188,1.5127,0.1396,
5.234875,-0.1126,-1.1886,0.0032,-2.2794,-1.4262,1.2080,0.5188,1.5127,0.1396,
5.266816,-0.1126,-1.1886,0.0032,-2.2794,-1.4262,1.2080,0.6168,1.6501,0.4890,
5.269354,-0.1126,-1.1886,0.0032,-2.1810,-1.3638,0.9811,0.6168,1.6501,0.4890,
5.305962,-0.1126,-1.1886,0.0032,-2.1810,-1.3638,0.9811,0.8192,1.1356,0.4986,
5.308239,-0.1126,-1.1886,0.0032,1.3400,-1.5944,1.4358,0.8192,1.1356,0.4986,
5.310262,0.1051,-1.1425,0.0313,1.3400,-1.5944,1.4358,0.8192,1.1356,0.4986,
5.311776,0.2444,-1.1454,-0.0486,1.3400,-1.5944,1.4358,0.8192,1.1356,0.4986,
5.312992,0.1886,-1.1569,-0.1815,1.3400,-1.5944,1.4358,0.8192,1.1356,0.4986,
5.314476,0.0259,-1.1403,-0.1490,1.3400,-1.5944,1.4358,0.8192,1.1356,0.4986,
5.345980,0.0259,-1.1403,-0.1490,1.3400,-1.5944,1.4358,0.8309,0.7638,0.4581,
5.349295,0.0259,-1.1403,-0.1490,1.4522,-1.5360,1.1140,0.8309,0.7638,0.4581,
5.385161,0.0259,-1.1403,-0.1490,1.4522,-1.5360,1.1140,0.9992,0.6499,0.5231,
5.387573,0.0259,-1.1403,-0.1490,1.5322,-1.1169,-0.3395,0.9992,0.6499,0.5231,
5.389031,0.0000,-1.0638,-0.0170,1.5322,-1.1169,-0.3395,0.9992,0.6499,0.5231,
5.389946,0.0181,-0.9969,0.0399,1.5322,-1.1169,-0.3395,0.9992,0.6499,0.5231,
5.391515,-0.0249,-0.9886,-0.0986,1.5322,-1.1169,-0.3395,0.9992,0.6499,0.5231,
5.392923,-0.1050,-0.9649,-0.2748,1.5322,-1.1169,-0.3395,0.9992,0.6499,0.5231,
5.424878,-0.1050,-0.9649,-0.2748,1.5322,-1.1169,-0.3395,0.7990,0.9108,0.8299,
5.426969,-0.1050,-0.9649,-0.2748,0.7543,0.2096,-0.5615,0.7990,0.9108,0.8299,
5.464717,-0.1050,-0.9649,-0.2748,0.7543,0.2096,-0.5615,0.6509,1.2794,1.0057,
5.467251,-0.1050,-0.9649,-0.2748,1.4607,0.4680,0.5280,0.6509,1.2794,1.0057,
5.468793,-0.1248,-0.9776,-0.2022,1.4607,0.4680,0.5280,0.6509,1.2794,1.0057,
5.469930,-0.0051,-0.9788,0.0467,1.4607,0.4680,0.5280,0.6509,1.2794,1.0057,
5.471427,0.1285,-0.8999,0.2155,1.4607,0.4680,0.5280,0.6509,1.2794,1.0057,
5.472658,0.1410,-0.7885,0.1271,1.4607,0.4680,0.5280,0.6509,1.2794,1.0057,
5.503779,0.1410,-0.7885,0.1271,1.4607,0.4680,0.5280,0.7628,1.7087,0.7372,
5.507245,0.1410,-0.7885,0.1271,1.7016,0.4213,0.3361,0.7628,1.7087,0.7372,
5.544658,0.1410,-0.7885,0.1271,1.7016,0.4213,0.3361,0.1406,0.8107,0.4219,
5.546868,0.1410,-0.7885,0.1271,3.2757,1.8900,-0.2459,0.1406,0.8107,0.4219,
5.548592,0.1293,-0.7362,-0.1004,3.2757,1.8900,-0.2459,0.1406,0.8107,0.4219,
5.549997,0.1786,-0.8632,-0.1470,3.2757,1.8900,-0.2459,0.1406,0.8107,0.4219,
5.551628,0.1989,-1.1017,-0.1165,3.2757,1.8900,-0.2459,0.1406,0.8107,0.4219,
5.552884,0.0140,-1.3213,-0.1727,3.2757,1.8900,-0.2459,0.1406,0.8107,0.4219,
5.585003,0.0140,-1.3213,-0.1727,3.2757,1.8900,-0.2459,-0.2823,0.5210,-0.0735,
5.587397,0.0140,-1.3213,-0.1727,3.1893,1.8611,-0.0985,-0.2823,0.5210,-0.0735,
5.622691,0.0140,-1.3213,-0.1727,3.1893,1.8611,-0.0985,-0.8213,0.4474,-0.0820,
5.625458,0.0140,-1.3213,-0.1727,1.6606,-2.2862,-1.0975,-0.8213,0.4474,-0.0820,
5.627093,-0.2113,-1.2434,-0.2482,1.6606,-2.2862,-1.0975,-0.8213,0.4474,-0.0820,
5.628482,-0.3044,-1.0037,-0.2113,1.6606,-2.2862,-1.0975,-0.8213,0.4474,-0.0820,
5.629354,-0.2958,-0.8649,-0.1060,1.6606,-2.2862,-1.0975,-0.8213,0.4474,-0.0820,
5.630712,-0.2118,-0.8241,-0.0850,1.6606,-2.2862,-1.0975,-0.8213,0.4474,-0.0820,
5.666215,-0.2118,-0.8241,-0.0850,-0.9452,0.8331,-0.2054,-0.8213,0.4474,-0.0820,
5.668441,-0.2118,-0.8241,-0.0850,-0.9452,0.8331,-0.2054,-1.1590,0.0459,0.0959,
5.702096,-0.2118,-0.8241,-0.0850,-0.9452,0.8331,-0.2054,-1.0780,-0.0788,-0.0447,
5.704519,-0.2118,-0.8241,-0.0850,0.8921,1.6334,0.4310,-1.0780,-0.0788,-0.0447,
5.705970,-0.1013,-0.8070,-0.0779,0.8921,1.6334,0.4310,-1.0780,-0.0788,-0.0447,
5.707083,-0.0537,-0.8014,-0.0982,0.8921,1.6334,0.4310,-1.0780,-0.0788,-0.0447,
5.708376,-0.0860,-0.8146,-0.1531,0.8921,1.6334,0.4310,-1.0780,-0.0788,-0.0447,
5.709718,-0.1922,-0.8464,-0.2042,0.8921,1.6334,0.4310,-1.0780,-0.0788,-0.0447,
5.741140,-0.1922,-0.8464,-0.2042,0.8921,1.6334,0.4310,-1.0908,-0.2716,-0.0873,
5.743167,-0.1922,-0.8464,-0.2042,0.8631,1.5394,0.8107,-1.0908,-0.2716,-0.0873,
5.771152,-0.2504,-0.8767,-0.2631,0.8631,1.5394,0.8107,-1.0908,-0.2716,-0.0873,
5.774301,-0.2408,-0.8840,-0.3395,0.8631,1.5394,0.8107,-1.0908,-0.2716,-0.0873,
5.775410,-0.2142,-0.9077,-0.4126,0.8631,1.5394,0.8107,-1.0908,-0.2716,-0.0873,
5.781616,-0.2142,-0.9077,-0.4126,-0.4968,0.8165,-0.3216,-1.0908,-0.2716,-0.0873,
5.784009,-0.2142,-0.9077,-0.4126,-0.4968,0.8165,-0.3216,-1.3028,-0.9406,-0.0053,
5.821468,-0.2142,-0.9077,-0.4126,-0.4968,0.8165,-0.3216,-1.2368,-0.8309,-0.2013,
5.823635,-0.2142,-0.9077,-0.4126,-0.2359,-1.0208,-1.6865,-1.2368,-0.8309,-0.2013,
5.859094,-0.1942,-1.0357,-0.4798,-0.2359,-1.0208,-1.6865,-1.2368,-0.8309,-0.2013,
5.861689,-0.1991,-1.1979,-0.4627,-0.2359,-1.0208,-1.6865,-1.2368,-0.8309,-0.2013,
5.862877,-0.1632,-1.2783,-0.4106,-0.2359,-1.0208,-1.6865,-1.2368,-0.8309,-0.2013,
5.864224,-0.0547,-1.2490,-0.3735,-0.2359,-1.0208,-1.6865,-1.2368,-0.8309,-0.2013,
5.865375,-0.0547,-1.2490,-0.3735,-0.2359,-1.0208,-1.6865,-1.2144,-0.4229,-0.4207,
5.866508,-0.0547,-1.2490,-0.3735,-0.3344,-1.1152,-1.2521,-1.2144,-0.4229,-0.4207,
5.900564,-0.0547,-1.2490,-0.3735,-0.3344,-1.1152,-1.2521,-0.7829,-0.1587,-0.7467,
5.902919,-0.0547,-1.2490,-0.3735,0.4506,-2.6033,-0.0487,-0.7829,-0.1587,-0.7467,
5.940121,-0.0547,-1.2490,-0.3735,0.4506,-2.6033,-0.0487,-0.1949,-0.7254,-0.6178,
5.942385,-0.0547,-1.2490,-0.3735,0.3218,-2.5545,-0.0157,-0.1949,-0.7254,-0.6178,
5.943780,-0.0708,-1.0655,-0.2863,0.3218,-2.5545,-0.0157,-0.1949,-0.7254,-0.6178,
5.945004,-0.2958,-0.9111,-0.2621,0.3218,-2.5545,-0.0157,-0.1949,-0.7254,-0.6178,
5.946155,-0.4101,-0.9216,-0.2758,0.3218,-2.5545,-0.0157,-0.1949,-0.7254,-0.6178,
5.947740,-0.2968,-0.9849,-0.2472,0.3218,-2.5545,-0.0157,-0.1949,-0.7254,-0.6178,
5.949074,-0.1492,-0.9832,-0.1404,0.3218,-2.5545,-0.0157,-0.1949,-0.7254,-0.6178,
5.979951,-0.1492,-0.9832,-0.1404,0.3218,-2.5545,-0.0157,0.0107,-1.6181,-0.5507,
5.982172,-0.1492,-0.9832,-0.1404,-1.9575,0.0067,0.8176,0.0107,-1.6181,-0.5507,
6.021906,-0.1492,-0.9832,-0.1404,-1.9575,0.0067,0.8176,0.5188,-1.0375,-0.8799,
6.025205,-0.1492,-0.9832,-0.1404,-0.2411,0.3744,2.4056,0.5188,-1.0375,-0.8799,
6.026630,-0.1148,-0.9302,-0.0432,-0.2411,0.3744,2.4056,0.5188,-1.0375,-0.8799,
6.027794,-0.1570,-0.8234,-0.0288,-0.2411,0.3744,2.4056,0.5188,-1.0375,-0.8799,
6.028623,-0.2619,-0.7149,-0.0620,-0.2411,0.3744,2.4056,0.5188,-1.0375,-0.8799,
6.029882,-0.3935,-0.6162,-0.0740,-0.2411,0.3744,2.4056,0.5188,-1.0375,-0.8799,
6.058627,-0.3935,-0.6162,-0.0740,-0.2411,0.3744,2.4056,0.8991,-0.2929,-0.9012,
6.061070,-0.3935,-0.6162,-0.0740,-0.5323,0.5055,2.0244,0.8991,-0.2929,-0.9012,
6.099367,-0.3935,-0.6162,-0.0740,-0.5323,0.5055,2.0244,0.8980,-0.8245,-0.6636,
6.102020,-0.3935,-0.6162,-0.0740,-2.8879,3.3442,1.7936,0.8980,-0.8245,-0.6636,
6.103414,-0.4505,-0.5530,-0.0268,-2.8879,3.3442,1.7936,0.8980,-0.8245,-0.6636,
6.105168,-0.4231,-0.5662,-0.1008,-2.8879,3.3442,1.7936,0.8980,-0.8245,-0.6636,
6.106453,-0.4409,-0.7648,-0.3163,-2.8879,3.3442,1.7936,0.8980,-0.8245,-0.6636,
6.107691,-0.3681,-1.0264,-0.2709,-2.8879,3.3442,1.7936,0.8980,-0.8245,-0.6636,
6.138544,-0.3681,-1.0264,-0.2709,-2.8879,3.3442,1.7936,0.8086,-0.8074,-0.4048,
6.141426,-0.3681,-1.0264,-0.2709,-3.3280,1.8473,-0.2455,0.8086,-0.8074,-0.4048,
6.171130,-0.2643,-1.2597,-0.0642,-3.3280,1.8473,-0.2455,0.8086,-0.8074,-0.4048,
6.173770,-0.3811,-1.3357,-0.2430,-3.3280,1.8473,-0.2455,0.8086,-0.8074,-0.4048,
6.175555,-0.4751,-1.2170,-0.3178,-3.3280,1.8473,-0.2455,0.8086,-0.8074,-0.4048,
6.177515,-0.4751,-1.2170,-0.3178,-3.3280,1.8473,-0.2455,0.7787,-0.2343,-0.2450,
6.178594,-0.4751,-1.2170,-0.3178,-2.9879,-2.7951,-0.3360,0.7787,-0.2343,-0.2450,
6.217676,-0.4751,-1.2170,-0.3178,-2.9879,-2.7951,-0.3360,0.3441,-0.4761,-0.1075,
6.220223,-0.4751,-1.2170,-0.3178,-2.5564,-2.0238,-2.8000,0.3441,-0.4761,-0.1075,
6.242526,-0.3728,-1.1496,-0.2743,-2.5564,-2.0238,-2.8000,0.3441,-0.4761,-0.1075,
6.245341,-0.3747,-1.2133,-0.4490,-2.5564,-2.0238,-2.8000,0.3441,-0.4761,-0.1075,
6.246530,-0.2509,-1.2316,-0.6263,-2.5564,-2.0238,-2.8000,0.3441,-0.4761,-0.1075,
6.247820,0.0064,-1.0961,-0.5257,-2.5564,-2.0238,-2.8000,0.3441,-0.4761,-0.1075,
6.259059,0.0064,-1.0961,-0.5257,-2.5564,-2.0238,-2.8000,-0.3931,-0.1704,-0.0063,
6.261600,0.0064,-1.0961,-0.5257,-2.5053,-2.0156,-2.6094,-0.3931,-0.1704,-0.0063,
6.297018,0.0064,-1.0961,-0.5257,-2.5053,-2.0156,-2.6094,-0.8724,0.2195,-0.0713,
6.299543,0.0064,-1.0961,-0.5257,1.2428,0.8543,0.5520,-0.8724,0.2195,-0.0713,
6.330321,0.1603,-0.8723,-0.1070,1.2428,0.8543,0.5520,-0.8724,0.2195,-0.0713,
6.333297,0.0025,-0.7230,0.1491,1.2428,0.8543,0.5520,-0.8724,0.2195,-0.0713,
6.335244,-0.3149,-0.6795,-0.0571,1.2428,0.8543,0.5520,-0.8724,0.2195,-0.0713,
6.336714,-0.3530,-0.7240,-0.1898,1.2428,0.8543,0.5520,-0.8724,0.2195,-0.0713,
6.338091,-0.3530,-0.7240,-0.1898,1.2428,0.8543,0.5520,-0.3973,-1.1941,0.1716,
6.339249,-0.3530,-0.7240,-0.1898,1.3896,0.8009,0.6558,-0.3973,-1.1941,0.1716,
6.376622,-0.3530,-0.7240,-0.1898,1.3896,0.8009,0.6558,-0.3686,-1.6117,0.6381,
6.379295,-0.3530,-0.7240,-0.1898,-0.8799,1.6912,0.6954,-0.3686,-1.6117,0.6381,
6.415082,-0.3530,-0.7240,-0.1898,-0.8799,1.6912,0.6954,-0.2386,0.1971,-0.2631,
6.416951,-0.3530,-0.7240,-0.1898,-0.9811,1.6534,0.7808,-0.2386,0.1971,-0.2631,
6.419971,0.0191,-0.9883,-0.2438,-0.9811,1.6534,0.7808,-0.2386,0.1971,-0.2631,
6.421620,0.3384,-1.2732,-0.3737,-0.9811,1.6534,0.7808,-0.2386,0.1971,-0.2631,
6.422718,0.3582,-1.2925,-0.2780,-0.9811,1.6534,0.7808,-0.2386,0.1971,-0.2631,
6.424097,0.1156,-1.1351,0.0066,-0.9811,1.6534,0.7808,-0.2386,0.1971,-0.2631,
6.425068,-0.0488,-1.0719,-0.0354,-0.9811,1.6534,0.7808,-0.2386,0.1971,-0.2631,
6.455582,-0.0488,-1.0719,-0.0354,-0.9811,1.6534,0.7808,0.3398,0.6392,-0.6104,
6.458309,-0.0488,-1.0719,-0.0354,3.4439,-2.5243,0.1707,0.3398,0.6392,-0.6104,
6.494684,-0.0488,-1.0719,-0.0354,3.4439,-2.5243,0.1707,0.4698,0.2238,-0.0809,
6.496956,-0.0488,-1.0719,-0.0354,-0.4025,-1.0954,0.3764,0.4698,0.2238,-0.0809,
6.498596,-0.1082,-1.0855,-0.2443,-0.4025,-1.0954,0.3764,0.4698,0.2238,-0.0809,
6.500728,-0.1949,-1.1249,-0.2479,-0.4025,-1.0954,0.3764,0.4698,0.2238,-0.0809,
6.502134,-0.1504,-1.1193,-0.1216,-0.4025,-1.0954,0.3764,0.4698,0.2238,-0.0809,
6.503426,0.0013,-1.1058,-0.0654,-0.4025,-1.0954,0.3764,0.4698,0.2238,-0.0809,
6.535078,0.0013,-1.1058,-0.0654,-0.2583,-1.0334,0.0976,0.4698,0.2238,-0.0809,
6.537899,0.0013,-1.1058,-0.0654,-0.2583,-1.0334,0.0976,0.6903,-0.4026,0.2845,
6.574130,0.0897,-1.1102,-0.0967,-0.2583,-1.0334,0.0976,0.6903,-0.4026,0.2845,
6.576644,0.1415,-1.0201,-0.1526,-0.2583,-1.0334,0.0976,0.6903,-0.4026,0.2845,
6.577879,0.0958,-0.8913,-0.1951,-0.2583,-1.0334,0.0976,0.6903,-0.4026,0.2845,
6.579292,0.0958,-0.8913,-0.1951,-0.2583,-1.0334,0.0976,0.9641,-0.5560,0.1630,
6.580348,0.0958,-0.8913,-0.1951,0.7823,-1.1313,0.4935,0.9641,-0.5560,0.1630,
6.613549,0.0958,-0.8913,-0.1951,0.7823,-1.1313,0.4935,0.8139,-0.7840,0.2227,
6.616042,0.0958,-0.8913,-0.1951,1.6931,0.7286,-0.7052,0.8139,-0.7840,0.2227,
6.654285,0.0958,-0.8913,-0.1951,1.6931,0.7286,-0.7052,0.6871,-1.0492,0.3431,
6.656423,0.0958,-0.8913,-0.1951,1.8333,0.7258,-1.0028,0.6871,-1.0492,0.3431,
6.657901,-0.0474,-0.8603,-0.2000,1.8333,0.7258,-1.0028,0.6871,-1.0492,0.3431,
6.659237,-0.1314,-0.8608,-0.1712,1.8333,0.7258,-1.0028,0.6871,-1.0492,0.3431,
6.660586,-0.0789,-0.8390,-0.1563,1.8333,0.7258,-1.0028,0.6871,-1.0492,0.3431,
6.661824,-0.0420,-0.8537,-0.2105,1.8333,0.7258,-1.0028,0.6871,-1.0492,0.3431,
6.662978,-0.0053,-0.9165,-0.2518,1.8333,0.7258,-1.0028,0.6871,-1.0492,0.3431,
6.692752,-0.0053,-0.9165,-0.2518,1.8333,0.7258,-1.0028,0.5007,-0.7084,0.3335,
6.695318,-0.0053,-0.9165,-0.2518,0.5280,1.4109,-1.1810,0.5007,-0.7084,0.3335,
6.733222,-0.0053,-0.9165,-0.2518,0.5280,1.4109,-1.1810,-0.0799,-0.7190,0.2632,
6.735751,-0.0053,-0.9165,-0.2518,1.5592,0.0881,-1.3699,-0.0799,-0.7190,0.2632,
6.737349,0.0347,-0.9844,-0.2196,1.5592,0.0881,-1.3699,-0.0799,-0.7190,0.2632,
6.738565,0.0062,-1.0521,-0.1287,1.5592,0.0881,-1.3699,-0.0799,-0.7190,0.2632,
6.739821,-0.0217,-1.0951,-0.0217,1.5592,0.0881,-1.3699,-0.0799,-0.7190,0.2632,
6.740847,-0.0259,-1.0609,0.0289,1.5592,0.0881,-1.3699,-0.0799,-0.7190,0.2632,
6.772657,-0.0259,-1.0609,0.0289,1.5592,0.0881,-1.3699,-0.4857,-0.3920,-0.1001,
6.775174,-0.0259,-1.0609,0.0289,1.5051,0.0795,-1.1849,-0.4857,-0.3920,-0.1001,
6.812320,-0.0259,-1.0609,0.0289,1.5051,0.0795,-1.1849,-0.4463,0.7425,-0.3973,
6.814971,-0.0259,-1.0609,0.0289,0.6267,-0.6404,1.4185,-0.4463,0.7425,-0.3973,
6.816305,-0.1275,-1.0223,0.1327,0.6267,-0.6404,1.4185,-0.4463,0.7425,-0.3973,
6.817624,-0.3493,-1.0066,0.2295,0.6267,-0.6404,1.4185,-0.4463,0.7425,-0.3973,
6.818633,-0.5135,-0.9690,0.1298,0.6267,-0.6404,1.4185,-0.4463,0.7425,-0.3973,
6.819792,-0.5694,-0.9050,-0.0569,0.6267,-0.6404,1.4185,-0.4463,0.7425,-0.3973,
6.852244,-0.5694,-0.9050,-0.0569,0.6267,-0.6404,1.4185,-0.3196,1.4413,0.0714,
6.855307,-0.5694,-0.9050,-0.0569,-3.4549,0.3098,2.1035,-0.3196,1.4413,0.0714,
6.892399,-0.5694,-0.9050,-0.0569,-3.4549,0.3098,2.1035,-0.8213,1.3977,0.4698,
6.894706,-0.4439,-0.8825,-0.1707,-3.4549,0.3098,2.1035,-0.8213,1.3977,0.4698,
6.896097,-0.2008,-0.9099,-0.1646,-3.4549,0.3098,2.1035,-0.8213,1.3977,0.4698,
6.898003,-0.0083,-0.9617,-0.1453,-3.4549,0.3098,2.1035,-0.8213,1.3977,0.4698,
6.899327,0.0567,-0.9932,-0.0798,-3.4549,0.3098,2.1035,-0.8213,1.3977,0.4698,
6.900819,0.0567,-0.9932,-0.0798,-0.7869,0.6458,-0.0678,-0.8213,1.3977,0.4698,
6.931200,0.0567,-0.9932,-0.0798,-0.7869,0.6458,-0.0678,-1.1409,1.3082,0.1598,
6.934198,0.0567,-0.9932,-0.0798,-0.8028,0.5486,0.4287,-1.1409,1.3082,0.1598,
6.971267,0.0567,-0.9932,-0.0798,-0.8028,0.5486,0.4287,-1.0716,1.8057,-0.1299,
6.974956,-0.0048,-0.9473,-0.0996,-0.8028,0.5486,0.4287,-1.0716,1.8057,-0.1299,
6.976143,-0.1204,-0.8569,-0.1507,-0.8028,0.5486,0.4287,-1.0716,1.8057,-0.1299,
6.977108,-0.1373,-0.7799,-0.1326,-0.8028,0.5486,0.4287,-1.0716,1.8057,-0.1299,
6.978431,-0.1214,-0.7616,-0.2025,-0.8028,0.5486,0.4287,-1.0716,1.8057,-0.1299,
6.979861,-0.1214,-0.7616,-0.2025,0.8808,0.3129,1.3889,-1.0716,1.8057,-0.1299,
7.013510,-0.1214,-0.7616,-0.2025,0.8808,0.3129,1.3889,-0.8170,1.3423,0.0799,
7.015892,-0.1214,-0.7616,-0.2025,0.7570,0.2202,1.7197,-0.8170,1.3423,0.0799,
7.050048,-0.0996,-0.8337,-0.4277,0.7570,0.2202,1.7197,-0.8170,1.3423,0.0799,
7.052225,-0.0720,-0.9619,-0.7319,0.7570,0.2202,1.7197,-0.8170,1.3423,0.0799,
7.053510,-0.0860,-1.0313,-0.6500,0.7570,0.2202,1.7197,-0.8170,1.3423,0.0799,
7.054783,-0.0860,-1.0313,-0.6500,0.7570,0.2202,1.7197,-0.9299,-0.4207,0.4134,
7.055730,-0.0860,-1.0313,-0.6500,0.0138,1.4478,0.6198,-0.9299,-0.4207,0.4134,
7.089349,-0.0860,-1.0313,-0.6500,0.0138,1.4478,0.6198,-1.0439,-0.2386,0.5401,
7.091815,-0.0860,-1.0313,-0.6500,0.4299,-0.6887,-2.3459,-1.0439,-0.2386,0.5401,
7.129508,-0.0860,-1.0313,-0.6500,0.4299,-0.6887,-2.3459,-0.4655,0.2333,0.3292,
7.132312,-0.0860,-1.0313,-0.6500,0.5051,-0.7612,-2.1299,-0.4655,0.2333,0.3292,
7.133705,-0.1399,-0.9893,-0.4128,0.5051,-0.7612,-2.1299,-0.4655,0.2333,0.3292,
7.135012,-0.0850,-0.9150,-0.3752,0.5051,-0.7612,-2.1299,-0.4655,0.2333,0.3292,
7.136002,-0.0442,-0.9570,-0.4182,0.5051,-0.7612,-2.1299,-0.4655,0.2333,0.3292,
7.137241,0.0284,-1.0655,-0.4043,0.5051,-0.7612,-2.1299,-0.4655,0.2333,0.3292,
7.138389,0.1061,-1.1366,-0.3144,0.5051,-0.7612,-2.1299,-0.4655,0.2333,0.3292,
7.168361,0.1061,-1.1366,-0.3144,0.5051,-0.7612,-2.1299,0.3569,-0.2375,-0.2396,
7.170933,0.1061,-1.1366,-0.3144,1.0798,-0.5396,-0.3152,0.3569,-0.2375,-0.2396,
7.208185,0.1061,-1.1366,-0.3144,1.0798,-0.5396,-0.3152,0.9215,-0.7765,-0.7179,
7.210456,0.1061,-1.1366,-0.3144,1.4200,-0.9139,1.4050,0.9215,-0.7765,-0.7179,
7.212102,0.0484,-1.0687,-0.1634,1.4200,-0.9139,1.4050,0.9215,-0.7765,-0.7179,
7.213282,-0.0962,-0.9013,-0.0713,1.4200,-0.9139,1.4050,0.9215,-0.7765,-0.7179,
7.214507,-0.2093,-0.7973,-0.0268,1.4200,-0.9139,1.4050,0.9215,-0.7765,-0.7179,
7.215475,-0.2877,-0.7831,-0.0344,1.4200,-0.9139,1.4050,0.9215,-0.7765,-0.7179,
7.247405,-0.2877,-0.7831,-0.0344,1.4200,-0.9139,1.4050,1.4839,-0.6285,-0.7882,
7.249721,-0.2877,-0.7831,-0.0344,1.1815,-0.6959,0.8135,1.4839,-0.6285,-0.7882,
7.287629,-0.3618,-0.7921,-0.0852,1.1815,-0.6959,0.8135,1.4839,-0.6285,-0.7882,
7.290213,-0.3784,-0.8046,-0.1118,1.1815,-0.6959,0.8135,1.4839,-0.6285,-0.7882,
7.291880,-0.3908,-0.8207,-0.1309,1.1815,-0.6959,0.8135,1.4839,-0.6285,-0.7882,
7.293063,-0.3908,-0.8207,-0.1309,1.1815,-0.6959,0.8135,1.7577,-0.4580,-0.6093,
7.294264,-0.3908,-0.8207,-0.1309,-1.9698,1.8506,1.4230,1.7577,-0.4580,-0.6093,
7.327895,-0.3908,-0.8207,-0.1309,-1.9698,1.8506,1.4230,1.2240,-1.0428,-0.4058,
7.330401,-0.3908,-0.8207,-0.1309,-3.5221,1.4119,-0.4760,1.2240,-1.0428,-0.4058,
7.366866,-0.3908,-0.8207,-0.1309,-3.5221,1.4119,-0.4760,0.4176,0.0842,-0.0969,
7.368764,-0.3908,-0.8207,-0.1309,-3.5037,1.4130,-0.6232,0.4176,0.0842,-0.0969,
7.370212,-0.5560,-0.9026,-0.3344,-3.5037,1.4130,-0.6232,0.4176,0.0842,-0.0969,
7.371423,-0.6676,-1.1107,-0.5523,-3.5037,1.4130,-0.6232,0.4176,0.0842,-0.0969,
7.372750,-0.4820,-1.3452,-0.5780,-3.5037,1.4130,-0.6232,0.4176,0.0842,-0.0969,
7.374241,-0.0178,-1.2304,-0.4844,-3.5037,1.4130,-0.6232,0.4176,0.0842,-0.0969,
7.375547,0.1298,-1.0697,-0.3136,-3.5037,1.4130,-0.6232,0.4176,0.0842,-0.0969,
7.406467,0.1298,-1.0697,-0.3136,-3.2094,-2.3158,-3.9220,0.4176,0.0842,-0.0969,
7.409883,0.1298,-1.0697,-0.3136,-3.2094,-2.3158,-3.9220,0.0948,2.2233,-0.4282,
7.446566,0.1298,-1.0697,-0.3136,-3.2094,-2.3158,-3.9220,-0.0745,0.2759,-0.1107,
7.448968,0.1298,-1.0697,-0.3136,-0.7443,-0.1426,-1.2802,-0.0745,0.2759,-0.1107,
7.450348,-0.1140,-0.9988,-0.1888,-0.7443,-0.1426,-1.2802,-0.0745,0.2759,-0.1107,
7.451553,-0.4148,-0.9529,-0.3210,-0.7443,-0.1426,-1.2802,-0.0745,0.2759,-0.1107,
7.452856,-0.4282,-0.9478,-0.4009,-0.7443,-0.1426,-1.2802,-0.0745,0.2759,-0.1107,
7.454082,-0.1544,-0.9817,-0.3667,-0.7443,-0.1426,-1.2802,-0.0745,0.2759,-0.1107,
7.485129,-0.1544,-0.9817,-0.3667,-0.7443,-0.1426,-1.2802,-0.5891,-0.5496,0.6776,
7.488921,-0.1544,-0.9817,-0.3667,-0.4429,-0.1937,-1.0514,-0.5891,-0.5496,0.6776,
7.526027,-0.1544,-0.9817,-0.3667,-0.4429,-0.1937,-1.0514,-0.4240,-0.1683,0.4443,
7.528255,-0.1544,-0.9817,-0.3667,-0.6898,-0.0242,-1.3969,-0.4240,-0.1683,0.4443,
7.529534,0.0489,-1.0262,-0.2166,-0.6898,-0.0242,-1.3969,-0.4240,-0.1683,0.4443,
7.531051,0.0604,-1.0320,0.0047,-0.6898,-0.0242,-1.3969,-0.4240,-0.1683,0.4443,
7.532321,0.0079,-0.9932,0.1371,-0.6898,-0.0242,-1.3969,-0.4240,-0.1683,0.4443,
7.533416,0.0101,-1.0125,0.0194,-0.6898,-0.0242,-1.3969,-0.4240,-0.1683,0.4443,
7.565092,0.0101,-1.0125,0.0194,-0.6898,-0.0242,-1.3969,0.3036,0.3761,0.1492,
7.567441,0.0101,-1.0125,0.0194,1.3175,-0.2728,2.2072,0.3036,0.3761,0.1492,
7.604906,0.0101,-1.0125,0.0194,1.3175,-0.2728,2.2072,0.5667,1.2357,-0.0117,
7.607037,0.0101,-1.0125,0.0194,1.6679,-1.4348,0.2122,0.5667,1.2357,-0.0117,
7.608396,0.0084,-1.1334,-0.2252,1.6679,-1.4348,0.2122,0.5667,1.2357,-0.0117,
7.609664,0.0614,-1.1828,-0.1548,1.6679,-1.4348,0.2122,0.5667,1.2357,-0.0117,
7.611113,0.1498,-1.0958,-0.0173,1.6679,-1.4348,0.2122,0.5667,1.2357,-0.0117,
7.612417,0.0995,-1.0965,-0.0759,1.6679,-1.4348,0.2122,0.5667,1.2357,-0.0117,
7.644437,0.0995,-1.0965,-0.0759,1.6679,-1.4348,0.2122,0.8086,0.5572,-0.0639,
7.646459,0.0995,-1.0965,-0.0759,1.5854,-1.3655,-0.0778,0.8086,0.5572,-0.0639,
7.683747,0.0995,-1.0965,-0.0759,1.5854,-1.3655,-0.0778,0.8650,-0.1438,0.1439,
7.686387,0.0995,-1.0965,-0.0759,1.6780,-0.9035,-0.5015,0.8650,-0.1438,0.1439,
7.687809,0.0736,-1.1073,-0.1441,1.6780,-0.9035,-0.5015,0.8650,-0.1438,0.1439,
7.688967,0.0648,-1.0809,-0.2052,1.6780,-0.9035,-0.5015,0.8650,-0.1438,0.1439,
7.689911,-0.0031,-1.0523,-0.1934,1.6780,-0.9035,-0.5015,0.8650,-0.1438,0.1439,
7.691271,0.0140,-0.9700,-0.1136,1.6780,-0.9035,-0.5015,0.8650,-0.1438,0.1439,
7.723382,0.0140,-0.9700,-0.1136,1.6780,-0.9035,-0.5015,0.8288,-0.3408,0.4134,
7.726020,0.0140,-0.9700,-0.1136,1.8178,-0.8810,-0.8239,0.8288,-0.3408,0.4134,
7.763378,0.0140,-0.9700,-0.1136,1.8178,-0.8810,-0.8239,0.7329,-0.3664,0.4123,
7.765647,0.0140,-0.9700,-0.1136,1.4265,0.1343,-1.1481,0.7329,-0.3664,0.4123,
7.767031,0.0636,-0.9490,-0.1309,1.4265,0.1343,-1.1481,0.7329,-0.3664,0.4123,
7.768123,0.0887,-0.9578,-0.1729,1.4265,0.1343,-1.1481,0.7329,-0.3664,0.4123,
7.769382,0.0868,-0.8762,-0.1148,1.4265,0.1343,-1.1481,0.7329,-0.3664,0.4123,
7.770658,0.0125,-0.8378,-0.0715,1.4265,0.1343,-1.1481,0.7329,-0.3664,0.4123,
7.802743,0.0125,-0.8378,-0.0715,1.4265,0.1343,-1.1481,0.6030,-0.0894,0.2898,
7.805211,0.0125,-0.8378,-0.0715,1.8795,1.0839,-1.1117,0.6030,-0.0894,0.2898,
7.843129,0.0125,-0.8378,-0.0715,1.8795,1.0839,-1.1117,0.3920,0.0799,0.2738,
7.845342,0.0125,-0.8378,-0.0715,1.5221,0.7973,-0.4133,0.3920,0.0799,0.2738,
7.846693,-0.0068,-0.8874,-0.0776,1.5221,0.7973,-0.4133,0.3920,0.0799,0.2738,
7.848084,0.0250,-0.9358,-0.0342,1.5221,0.7973,-0.4133,0.3920,0.0799,0.2738,
7.849354,0.0357,-0.9277,0.0096,1.5221,0.7973,-0.4133,0.3920,0.0799,0.2738,
7.850780,0.0211,-0.9566,-0.0127,1.5221,0.7973,-0.4133,0.3920,0.0799,0.2738,
7.882368,0.0211,-0.9566,-0.0127,1.5221,0.7973,-0.4133,0.1673,-0.2546,0.1971,
7.885034,0.0211,-0.9566,-0.0127,1.5706,0.7727,-0.4840,0.1673,-0.2546,0.1971,
7.921877,-0.0212,-1.0650,-0.0796,1.5706,0.7727,-0.4840,0.1673,-0.2546,0.1971,
7.924814,-0.0134,-1.0582,-0.0771,1.5706,0.7727,-0.4840,0.1673,-0.2546,0.1971,
7.926231,-0.0024,-0.9644,-0.0117,1.5706,0.7727,-0.4840,0.1673,-0.2546,0.1971,
7.927505,-0.0024,-0.9644,-0.0117,1.5706,0.7727,-0.4840,-0.2716,-0.4154,0.0704,
7.928536,-0.0024,-0.9644,-0.0117,1.3526,-0.2992,-0.6114,-0.2716,-0.4154,0.0704,
7.961492,-0.0024,-0.9644,-0.0117,1.3526,-0.2992,-0.6114,-0.5560,-0.4399,-0.0223,
7.963421,-0.0024,-0.9644,-0.0117,0.6534,0.4517,-0.0086,-0.5560,-0.4399,-0.0223,
8.002199,-0.0024,-0.9644,-0.0117,0.6534,0.4517,-0.0086,-0.7723,-0.4804,0.0735,
8.004727,-0.0024,-0.9644,-0.0117,0.6754,0.4321,0.2590,-0.7723,-0.4804,0.0735,
8.006414,-0.0688,-0.9468,0.0225,0.6754,0.4321,0.2590,-0.7723,-0.4804,0.0735,
8.007658,-0.1504,-0.9365,-0.0542,0.6754,0.4321,0.2590,-0.7723,-0.4804,0.0735,
8.008641,-0.2081,-0.9534,-0.1329,0.6754,0.4321,0.2590,-0.7723,-0.4804,0.0735,
8.009457,-0.2250,-1.0294,-0.1363,0.6754,0.4321,0.2590,-0.7723,-0.4804,0.0735,
8.010902,-0.1693,-1.0645,-0.1150,0.6754,0.4321,0.2590,-0.7723,-0.4804,0.0735,
8.040237,-0.1693,-1.0645,-0.1150,0.6754,0.4321,0.2590,-1.0865,-0.5720,0.1758,
8.042875,-0.1693,-1.0645,-0.1150,-0.4788,-0.2512,-0.4608,-1.0865,-0.5720,0.1758,
8.079814,-0.1216,-1.0423,-0.0847,-0.4788,-0.2512,-0.4608,-1.0865,-0.5720,0.1758,
8.082720,-0.1905,-1.0325,-0.0767,-0.4788,-0.2512,-0.4608,-1.0865,-0.5720,0.1758,
8.083759,-0.2877,-1.0457,-0.1595,-0.4788,-0.2512,-0.4608,-1.0865,-0.5720,0.1758,
8.084916,-0.2877,-1.0457,-0.1595,-0.4788,-0.2512,-0.4608,-1.2581,-0.3813,0.0139,
8.086009,-0.2877,-1.0457,-0.1595,-0.4429,-0.5334,0.2024,-1.2581,-0.3813,0.0139,
8.120202,-0.2877,-1.0457,-0.1595,-0.4429,-0.5334,0.2024,-1.5478,0.0459,0.0533,
8.122897,-0.2877,-1.0457,-0.1595,-1.2776,-0.5651,-1.6411,-1.5478,0.0459,0.0533,
8.159811,-0.2877,-1.0457,-0.1595,-1.2776,-0.5651,-1.6411,-1.8993,0.5231,0.0480,
8.162455,-0.2877,-1.0457,-0.1595,-1.2852,-0.7247,-0.8796,-1.8993,0.5231,0.0480,
8.163635,-0.3114,-1.0394,-0.3053,-1.2852,-0.7247,-0.8796,-1.8993,0.5231,0.0480,
8.164856,-0.2834,-1.0340,-0.3830,-1.2852,-0.7247,-0.8796,-1.8993,0.5231,0.0480,
8.166203,-0.2724,-1.0298,-0.3867,-1.2852,-0.7247,-0.8796,-1.8993,0.5231,0.0480,
8.167514,-0.3354,-1.0697,-0.3767,-1.2852,-0.7247,-0.8796,-1.8993,0.5231,0.0480,
8.168732,-0.3896,-1.1344,-0.3127,-1.2852,-0.7247,-0.8796,-1.8993,0.5231,0.0480,
8.199532,-0.3896,-1.1344,-0.3127,-1.2852,-0.7247,-0.8796,-1.5755,0.6839,-0.0617,
8.202594,-0.3896,-1.1344,-0.3127,-1.3653,-0.8898,-0.2522,-1.5755,0.6839,-0.0617,
8.239127,-0.3896,-1.1344,-0.3127,-1.3653,-0.8898,-0.2522,-0.8639,0.0767,0.0064,
8.241639,-0.3896,-1.1344,-0.3127,-2.1307,-1.6482,0.7038,-0.8639,0.0767,0.0064,
8.243050,-0.3852,-1.1039,-0.1871,-2.1307,-1.6482,0.7038,-0.8639,0.0767,0.0064,
8.244479,-0.2738,-0.9966,-0.0889,-2.1307,-1.6482,0.7038,-0.8639,0.0767,0.0064,
8.245749,-0.0410,-0.9859,0.0096,-2.1307,-1.6482,0.7038,-0.8639,0.0767,0.0064,
8.246887,0.1073,-0.9710,0.0030,-2.1307,-1.6482,0.7038,-0.8639,0.0767,0.0064,
8.278367,0.1073,-0.9710,0.0030,-2.1307,-1.6482,0.7038,-0.2045,-0.6871,-0.2215,
8.281091,0.1073,-0.9710,0.0030,0.8222,-0.4977,3.2948,-0.2045,-0.6871,-0.2215,
8.318593,0.1073,-0.9710,0.0030,0.8222,-0.4977,3.2948,0.2344,-0.5006,-0.5912,
8.321597,0.1073,-0.9710,0.0030,-0.2418,0.5688,1.5434,0.2344,-0.5006,-0.5912,
8.322870,-0.0276,-0.9057,-0.1236,-0.2418,0.5688,1.5434,0.2344,-0.5006,-0.5912,
8.324106,-0.1798,-0.8720,-0.2032,-0.2418,0.5688,1.5434,0.2344,-0.5006,-0.5912,
8.325226,-0.2826,-0.8664,-0.2428,-0.2418,0.5688,1.5434,0.2344,-0.5006,-0.5912,
8.326520,-0.3398,-0.8322,-0.2982,-0.2418,0.5688,1.5434,0.2344,-0.5006,-0.5912,
8.357422,-0.3398,-0.8322,-0.2982,-0.2418,0.5688,1.5434,0.5273,-0.0127,-0.6593,
8.359919,-0.3398,-0.8322,-0.2982,-0.4737,0.6593,1.3263,0.5273,-0.0127,-0.6593,
8.397405,-0.3398,-0.8322,-0.2982,-0.4737,0.6593,1.3263,0.7116,0.2419,-0.5986,
8.399574,-0.2980,-0.7408,-0.2736,-0.4737,0.6593,1.3263,0.7116,0.2419,-0.5986,
8.400835,-0.2052,-0.6343,-0.2186,-0.4737,0.6593,1.3263,0.7116,0.2419,-0.5986,
8.401843,-0.1456,-0.5864,-0.1817,-0.4737,0.6593,1.3263,0.7116,0.2419,-0.5986,
8.403078,-0.1133,-0.6382,-0.1900,-0.4737,0.6593,1.3263,0.7116,0.2419,-0.5986,
8.404309,-0.1133,-0.6382,-0.1900,-1.8466,2.1598,0.3446,0.7116,0.2419,-0.5986,
8.436238,-0.1133,-0.6382,-0.1900,-1.8466,2.1598,0.3446,0.7979,0.0395,-0.5901,
8.438429,-0.1133,-0.6382,-0.1900,-2.0371,2.2285,0.0470,0.7979,0.0395,-0.5901,
8.476307,-0.1133,-0.6382,-0.1900,-2.0371,2.2285,0.0470,0.3867,0.0011,-0.4143,
8.479452,-0.1133,-0.6382,-0.1900,-0.7311,3.0893,0.1469,0.3867,0.0011,-0.4143,
8.480995,-0.1404,-0.7184,-0.3430,-0.7311,3.0893,0.1469,0.3867,0.0011,-0.4143,
8.483089,-0.2428,-0.9629,-0.6249,-0.7311,3.0893,0.1469,0.3867,0.0011,-0.4143,
8.484395,-0.3926,-1.2627,-0.4326,-0.7311,3.0893,0.1469,0.3867,0.0011,-0.4143,
8.485730,-0.4272,-1.3746,-0.2684,-0.7311,3.0893,0.1469,0.3867,0.0011,-0.4143,
8.516495,-0.4272,-1.3746,-0.2684,-0.7311,3.0893,0.1469,0.4719,0.1737,0.0192,
8.518853,-0.4272,-1.3746,-0.2684,-2.8585,-2.2416,-1.9893,0.4719,0.1737,0.0192,
8.556134,-0.4272,-1.3746,-0.2684,-2.8585,-2.2416,-1.9893,0.6573,-0.0468,0.2823,
8.559151,-0.4272,-1.3746,-0.2684,-2.2483,-1.8668,0.0369,0.6573,-0.0468,0.2823,
8.560999,-0.3838,-1.1970,-0.1846,-2.2483,-1.8668,0.0369,0.6573,-0.0468,0.2823,
8.562297,-0.3530,-1.1139,-0.1988,-2.2483,-1.8668,0.0369,0.6573,-0.0468,0.2823,
8.563255,-0.1847,-1.1996,-0.2455,-2.2483,-1.8668,0.0369,0.6573,-0.0468,0.2823,
8.564428,-0.0105,-1.1298,-0.2582,-2.2483,-1.8668,0.0369,0.6573,-0.0468,0.2823,
8.595759,-0.0105,-1.1298,-0.2582,-2.2435,-1.8028,-0.1084,0.6573,-0.0468,0.2823,
8.598506,-0.0105,-1.1298,-0.2582,-2.2435,-1.8028,-0.1084,0.4379,0.6562,0.0491,
8.637734,-0.0105,-1.1298,-0.2582,-2.2435,-1.8028,-0.1084,0.5028,0.7734,-0.1448,
8.640241,-0.0105,-1.1298,-0.2582,0.1662,0.5820,0.0682,0.5028,0.7734,-0.1448,
8.641459,0.0115,-0.9155,-0.1842,0.1662,0.5820,0.0682,0.5028,0.7734,-0.1448,
8.642603,-0.1495,-0.7447,-0.0798,0.1662,0.5820,0.0682,0.5028,0.7734,-0.1448,
8.643605,-0.3684,-0.7017,-0.1309,0.1662,0.5820,0.0682,0.5028,0.7734,-0.1448,
8.644800,-0.3889,-0.8048,-0.2152,0.1662,0.5820,0.0682,0.5028,0.7734,-0.1448,
8.674571,-0.3889,-0.8048,-0.2152,0.1662,0.5820,0.0682,0.0852,0.0831,0.3239,
8.677043,-0.3889,-0.8048,-0.2152,0.2801,0.5692,0.0368,0.0852,0.0831,0.3239,
8.699235,-0.1817,-0.9768,-0.2484,0.2801,0.5692,0.0368,0.0852,0.0831,0.3239,
8.701579,0.1559,-1.0592,-0.1128,0.2801,0.5692,0.0368,0.0852,0.0831,0.3239,
8.702935,0.3516,-1.0714,0.0477,0.2801,0.5692,0.0368,0.0852,0.0831,0.3239,
8.713717,0.3516,-1.0714,0.0477,0.2801,0.5692,0.0368,-0.0895,0.5625,0.3377,
8.715774,0.3516,-1.0714,0.0477,-2.1754,1.5277,-0.1444,-0.0895,0.5625,0.3377,
8.753908,0.3516,-1.0714,0.0477,-2.1754,1.5277,-0.1444,0.0597,0.9673,-0.1693,
8.756100,0.3516,-1.0714,0.0477,3.1104,-0.7671,1.2468,0.0597,0.9673,-0.1693,
8.786822,0.2287,-1.0623,-0.0999,3.1104,-0.7671,1.2468,0.0597,0.9673,-0.1693,
8.789359,0.0338,-1.0137,-0.2342,3.1104,-0.7671,1.2468,0.0597,0.9673,-0.1693,
8.790843,-0.0105,-1.0005,-0.0889,3.1104,-0.7671,1.2468,0.0597,0.9673,-0.1693,
8.792331,-0.0014,-1.1178,0.0506,3.1104,-0.7671,1.2468,0.0597,0.9673,-0.1693,
8.793913,-0.0014,-1.1178,0.0506,3.1104,-0.7671,1.2468,0.1683,0.4751,-0.1384,
8.795244,-0.0014,-1.1178,0.0506,0.6789,-0.5438,0.8296,0.1683,0.4751,-0.1384,
8.833365,-0.0014,-1.1178,0.0506,0.6789,-0.5438,0.8296,0.6157,0.0714,0.1748,
8.835690,-0.0014,-1.1178,0.0506,0.0352,-2.4523,0.3184,0.6157,0.0714,0.1748,
8.856986,-0.0146,-1.2886,-0.0249,0.0352,-2.4523,0.3184,0.6157,0.0714,0.1748,
8.859327,-0.0422,-1.3015,-0.1646,0.0352,-2.4523,0.3184,0.6157,0.0714,0.1748,
8.860881,-0.1373,-1.1496,-0.1658,0.0352,-2.4523,0.3184,0.6157,0.0714,0.1748,
8.862081,-0.1763,-1.0484,-0.1468,0.0352,-2.4523,0.3184,0.6157,0.0714,0.1748,
8.872148,-0.1763,-1.0484,-0.1468,0.0352,-2.4523,0.3184,0.8213,-0.5880,0.4741,
8.874430,-0.1763,-1.0484,-0.1468,0.2447,-2.3838,-0.0177,0.8213,-0.5880,0.4741,
8.912701,-0.1763,-1.0484,-0.1468,0.2447,-2.3838,-0.0177,0.9162,-0.5017,0.8086,
8.915511,-0.1763,-1.0484,-0.1468,0.8222,0.1816,-0.6141,0.9162,-0.5017,0.8086,
8.944126,-0.0532,-1.0000,-0.1595,0.8222,0.1816,-0.6141,0.9162,-0.5017,0.8086,
8.946540,0.1141,-0.9052,-0.1192,0.8222,0.1816,-0.6141,0.9162,-0.5017,0.8086,
8.947791,0.2189,-0.8300,-0.0500,0.8222,0.1816,-0.6141,0.9162,-0.5017,0.8086,
8.948882,0.1904,-0.8224,-0.0894,0.8222,0.1816,-0.6141,0.9162,-0.5017,0.8086,
8.951672,0.1904,-0.8224,-0.0894,0.8222,0.1816,-0.6141,0.8576,-0.1512,0.7319,
8.953178,0.1904,-0.8224,-0.0894,1.0925,0.1604,-0.9396,0.8576,-0.1512,0.7319,
8.992077,0.1904,-0.8224,-0.0894,1.0925,0.1604,-0.9396,0.5390,0.2770,0.5220,
8.994726,0.1904,-0.8224,-0.0894,3.0681,1.4563,-0.5938,0.5390,0.2770,0.5220,
9.031252,0.1904,-0.8224,-0.0894,3.0681,1.4563,-0.5938,0.2046,0.2770,0.4730,
9.034236,0.1904,-0.8224,-0.0894,3.1942,1.4024,-0.6431,0.2046,0.2770,0.4730,
9.035662,0.0350,-0.8894,-0.1245,3.1942,1.4024,-0.6431,0.2046,0.2770,0.4730,
9.036819,-0.0036,-0.8613,-0.0674,3.1942,1.4024,-0.6431,0.2046,0.2770,0.4730,
9.038268,0.1056,-0.8916,0.0069,3.1942,1.4024,-0.6431,0.2046,0.2770,0.4730,
9.039527,0.1256,-1.0408,0.0628,3.1942,1.4024,-0.6431,0.2046,0.2770,0.4730,
9.040841,0.1112,-1.0953,0.0602,3.1942,1.4024,-0.6431,0.2046,0.2770,0.4730,
9.071886,0.1112,-1.0953,0.0602,3.1942,1.4024,-0.6431,0.1193,-0.0021,0.1630,
9.074415,0.1112,-1.0953,0.0602,2.5065,0.5596,0.1777,0.1193,-0.0021,0.1630,
9.110069,0.1112,-1.0953,0.0602,2.5065,0.5596,0.1777,-0.4090,-0.0724,-0.2684,
9.112533,0.1112,-1.0953,0.0602,2.3145,-0.5878,-0.0821,-0.4090,-0.0724,-0.2684,
9.113976,0.0831,-1.0396,-0.0596,2.3145,-0.5878,-0.0821,-0.4090,-0.0724,-0.2684,
9.115132,0.0179,-1.0174,-0.1248,2.3145,-0.5878,-0.0821,-0.4090,-0.0724,-0.2684,
9.116098,-0.0874,-0.9947,-0.0527,2.3145,-0.5878,-0.0821,-0.4090,-0.0724,-0.2684,
9.117075,-0.2169,-0.9050,-0.0210,2.3145,-0.5878,-0.0821,-0.4090,-0.0724,-0.2684,
9.150142,-0.2169,-0.9050,-0.0210,2.3145,-0.5878,-0.0821,-0.8820,0.1662,-0.5645,
9.152713,-0.2169,-0.9050,-0.0210,2.0586,-0.5618,0.2631,-0.8820,0.1662,-0.5645,
9.189993,-0.2169,-0.9050,-0.0210,2.0586,-0.5618,0.2631,-1.1686,0.4038,-0.3685,
9.192671,-0.2169,-0.9050,-0.0210,-0.9150,0.8422,0.7722,-1.1686,0.4038,-0.3685,
9.194042,-0.3505,-0.8114,-0.0349,-0.9150,0.8422,0.7722,-1.1686,0.4038,-0.3685,
9.195322,-0.4590,-0.7985,-0.0818,-0.9150,0.8422,0.7722,-1.1686,0.4038,-0.3685,
9.196626,-0.4468,-0.8280,-0.1705,-0.9150,0.8422,0.7722,-1.1686,0.4038,-0.3685,
9.198026,-0.3347,-0.9140,-0.1859,-0.9150,0.8422,0.7722,-1.1686,0.4038,-0.3685,
9.231080,-0.3347,-0.9140,-0.1859,-2.8245,1.3002,0.2567,-1.1686,0.4038,-0.3685,
9.232797,-0.3347,-0.9140,-0.1859,-2.8245,1.3002,0.2567,-1.4019,0.6008,-0.0276,
9.269021,-0.3347,-0.9140,-0.1859,-2.8245,1.3002,0.2567,-1.0354,0.7617,-0.1416,
9.270928,-0.3347,-0.9140,-0.1859,-0.8131,-1.0864,0.4724,-1.0354,0.7617,-0.1416,
9.271958,-0.2489,-1.0594,-0.0891,-0.8131,-1.0864,0.4724,-1.0354,0.7617,-0.1416,
9.272875,-0.1739,-1.1198,-0.1077,-0.8131,-1.0864,0.4724,-1.0354,0.7617,-0.1416,
9.273869,-0.1719,-1.0758,-0.3039,-0.8131,-1.0864,0.4724,-1.0354,0.7617,-0.1416,
9.274800,-0.3178,-1.0472,-0.3549,-0.8131,-1.0864,0.4724,-1.0354,0.7617,-0.1416,
9.309124,-0.3178,-1.0472,-0.3549,-0.8131,-1.0864,0.4724,-1.0525,0.4219,-0.1853,
9.311670,-0.3178,-1.0472,-0.3549,-0.9058,-1.1555,0.8719,-1.0525,0.4219,-0.1853,
9.348608,-0.3178,-1.0472,-0.3549,-0.9058,-1.1555,0.8719,-1.2602,-0.3067,-0.0351,
9.350944,-0.3178,-1.0472,-0.3549,-2.4841,-1.0088,-1.0968,-1.2602,-0.3067,-0.0351,
9.355487,-0.4097,-1.0599,-0.4397,-2.4841,-1.0088,-1.0968,-1.2602,-0.3067,-0.0351,
9.357409,-0.3698,-1.0667,-0.4544,-2.4841,-1.0088,-1.0968,-1.2602,-0.3067,-0.0351,
9.358811,-0.3351,-1.1818,-0.3757,-2.4841,-1.0088,-1.0968,-1.2602,-0.3067,-0.0351,
9.360099,-0.3449,-1.3096,-0.3232,-2.4841,-1.0088,-1.0968,-1.2602,-0.3067,-0.0351,
9.388174,-0.3449,-1.3096,-0.3232,-2.4841,-1.0088,-1.0968,-1.2964,-0.1438,-0.0106,
9.390108,-0.3449,-1.3096,-0.3232,-2.4288,-1.1542,-0.6158,-1.2964,-0.1438,-0.0106,
9.427677,-0.3449,-1.3096,-0.3232,-2.4288,-1.1542,-0.6158,-0.8256,0.2269,0.0970,
9.429957,-0.3449,-1.3096,-0.3232,-2.2482,-3.2372,0.4966,-0.8256,0.2269,0.0970,
9.431565,-0.3742,-1.2993,-0.3019,-2.2482,-3.2372,0.4966,-0.8256,0.2269,0.0970,
9.432872,-0.3525,-1.0797,-0.2694,-2.2482,-3.2372,0.4966,-0.8256,0.2269,0.0970,
9.434099,-0.2377,-0.8706,-0.1673,-2.2482,-3.2372,0.4966,-0.8256,0.2269,0.0970,
9.435268,-0.1040,-0.8408,-0.1138,-2.2482,-3.2372,0.4966,-0.8256,0.2269,0.0970,
9.467807,-0.1040,-0.8408,-0.1138,-2.2482,-3.2372,0.4966,0.0128,0.1684,0.1013,
9.471454,-0.1040,-0.8408,-0.1138,-1.0428,0.0251,1.9380,0.0128,0.1684,0.1013,
9.509077,-0.1040,-0.8408,-0.1138,-1.0428,0.0251,1.9380,0.4783,-0.3217,-0.1651,
9.511408,-0.1040,-0.8408,-0.1138,-0.1930,1.1716,3.6719,0.4783,-0.3217,-0.1651,
9.512806,-0.0583,-0.8935,-0.0342,-0.1930,1.1716,3.6719,0.4783,-0.3217,-0.1651,
9.514182,-0.1194,-0.8503,0.0445,-0.1930,1.1716,3.6719,0.4783,-0.3217,-0.1651,
9.515474,-0.2531,-0.7137,0.0470,-0.1930,1.1716,3.6719,0.4783,-0.3217,-0.1651,
9.516644,-0.3185,-0.6241,-0.0119,-0.1930,1.1716,3.6719,0.4783,-0.3217,-0.1651,
9.546902,-0.3185,-0.6241,-0.0119,-0.1930,1.1716,3.6719,0.9247,-0.2215,-0.3110,
9.549445,-0.3185,-0.6241,-0.0119,-0.2732,1.2855,3.2667,0.9247,-0.2215,-0.3110,
9.586475,-0.3185,-0.6241,-0.0119,-0.2732,1.2855,3.2667,1.1644,0.0022,-0.2673,
9.589187,-0.3185,-0.6241,-0.0119,-2.0662,3.5572,1.3862,1.1644,0.0022,-0.2673,
9.590721,-0.3239,-0.5730,-0.1182,-2.0662,3.5572,1.3862,1.1644,0.0022,-0.2673,
9.591919,-0.3176,-0.5906,-0.2484,-2.0662,3.5572,1.3862,1.1644,0.0022,-0.2673,
9.593080,-0.2704,-0.6385,-0.2929,-2.0662,3.5572,1.3862,1.1644,0.0022,-0.2673,
9.593992,-0.3051,-0.7887,-0.3640,-2.0662,3.5572,1.3862,1.1644,0.0022,-0.2673,
9.626191,-0.3051,-0.7887,-0.3640,-2.0662,3.5572,1.3862,1.0749,-0.0745,-0.2492,
9.628608,-0.3051,-0.7887,-0.3640,-2.1167,3.6093,0.9639,1.0749,-0.0745,-0.2492,
9.665919,-0.3051,-0.7887,-0.3640,-2.1167,3.6093,0.9639,0.7841,-0.2428,-0.1320,
9.668073,-0.3051,-0.7887,-0.3640,-2.1699,1.2084,-1.4654,0.7841,-0.2428,-0.1320,
9.669852,-0.4028,-1.1102,-0.3798,-2.1699,1.2084,-1.4654,0.7841,-0.2428,-0.1320,
9.670863,-0.3784,-1.4359,-0.3444,-2.1699,1.2084,-1.4654,0.7841,-0.2428,-0.1320,
9.672274,-0.4148,-1.4872,-0.4509,-2.1699,1.2084,-1.4654,0.7841,-0.2428,-0.1320,
9.673463,-0.3056,-1.2189,-0.3732,-2.1699,1.2084,-1.4654,0.7841,-0.2428,-0.1320,
9.705216,-0.3056,-1.2189,-0.3732,-2.1699,1.2084,-1.4654,0.3899,-0.1928,-0.0479,
9.707913,-0.3056,-1.2189,-0.3732,-2.5246,-3.9361,-2.0170,0.3899,-0.1928,-0.0479,
9.744654,-0.3056,-1.2189,-0.3732,-2.5246,-3.9361,-2.0170,0.1694,-0.9630,0.0299,
9.746877,-0.3056,-1.2189,-0.3732,0.1592,0.1201,-2.2914,0.1694,-0.9630,0.0299,
9.748265,-0.1260,-0.9763,-0.3447,0.1592,0.1201,-2.2914,0.1694,-0.9630,0.0299,
9.749557,-0.0901,-0.9177,-0.3667,0.1592,0.1201,-2.2914,0.1694,-0.9630,0.0299,
9.751045,-0.0840,-1.0088,-0.5206,0.1592,0.1201,-2.2914,0.1694,-0.9630,0.0299,
9.752206,-0.0097,-1.1322,-0.5826,0.1592,0.1201,-2.2914,0.1694,-0.9630,0.0299,
9.784556,-0.0097,-1.1322,-0.5826,0.1592,0.1201,-2.2914,-0.5944,-1.4935,0.2046,
9.786869,-0.0097,-1.1322,-0.5826,0.3373,0.0664,-2.1028,-0.5944,-1.4935,0.2046,
9.824181,-0.0097,-1.1322,-0.5826,0.3373,0.0664,-2.1028,-0.6988,-1.2005,-0.1534,
9.826866,-0.0097,-1.1322,-0.5826,3.4076,0.1275,-0.6591,-0.6988,-1.2005,-0.1534,
9.828325,0.2089,-1.0215,-0.2785,3.4076,0.1275,-0.6591,-0.6988,-1.2005,-0.1534,
9.829349,0.4466,-0.7152,0.0066,3.4076,0.1275,-0.6591,-0.6988,-1.2005,-0.1534,
9.830810,0.2172,-0.7039,-0.0280,3.4076,0.1275,-0.6591,-0.6988,-1.2005,-0.1534,
9.832140,-0.0241,-0.8508,-0.1673,3.4076,0.1275,-0.6591,-0.6988,-1.2005,-0.1534,
9.863236,-0.0241,-0.8508,-0.1673,3.4076,0.1275,-0.6591,-0.5166,-1.3997,-0.3035,
9.866487,-0.0241,-0.8508,-0.1673,3.3587,0.0966,-0.5283,-0.5166,-1.3997,-0.3035,
9.903249,-0.0241,-0.8508,-0.1673,3.3587,0.0966,-0.5283,-0.4687,0.0000,-0.5251,
9.905753,-0.0241,-0.8508,-0.1673,1.9893,1.1338,0.9010,-0.4687,0.0000,-0.5251,
9.907067,0.1044,-0.9849,-0.2704,1.9893,1.1338,0.9010,-0.4687,0.0000,-0.5251,
9.908165,0.0726,-1.0787,-0.3466,1.9893,1.1338,0.9010,-0.4687,0.0000,-0.5251,
9.909463,-0.1067,-1.1034,-0.1592,1.9893,1.1338,0.9010,-0.4687,0.0000,-0.5251,
9.911212,-0.0459,-1.0855,-0.0285,1.9893,1.1338,0.9010,-0.4687,0.0000,-0.5251,
9.943154,-0.0459,-1.0855,-0.0285,0.4779,-1.2125,0.7182,-0.4687,0.0000,-0.5251,
9.945906,-0.0459,-1.0855,-0.0285,0.4779,-1.2125,0.7182,-0.0959,0.5199,-0.5869,
9.982603,-0.0459,-1.0855,-0.0285,0.4779,-1.2125,0.7182,0.2280,0.3665,-0.4665,
9.985764,-0.0459,-1.0855,-0.0285,0.8264,-1.2040,0.4773,0.2280,0.3665,-0.4665,
9.987217,0.0643,-1.0599,-0.1280,0.8264,-1.2040,0.4773,0.2280,0.3665,-0.4665,
9.988399,0.0540,-1.0687,-0.2264,0.8264,-1.2040,0.4773,0.2280,0.3665,-0.4665,
9.989511,-0.0229,-1.1530,-0.2279,0.8264,-1.2040,0.4773,0.2280,0.3665,-0.4665,
9.991209,-0.0239,-1.2145,-0.2342,0.8264,-1.2040,0.4773,0.2280,0.3665,-0.4665,
10.022205,-0.0239,-1.2145,-0.2342,0.7673,-1.1493,0.3363,0.2280,0.3665,-0.4665,
10.025001,-0.0239,-1.2145,-0.2342,0.7673,-1.1493,0.3363,0.3590,0.0139,-0.1182,
10.062125,-0.0244,-1.1737,-0.2259,0.7673,-1.1493,0.3363,0.3590,0.0139,-0.1182,
10.064651,-0.0816,-1.0843,-0.1614,0.7673,-1.1493,0.3363,0.3590,0.0139,-0.1182,
10.065884,-0.1016,-1.0066,-0.1324,0.7673,-1.1493,0.3363,0.3590,0.0139,-0.1182,
10.066847,-0.1016,-1.0066,-0.1324,0.7673,-1.1493,0.3363,0.4890,-0.4111,0.1364,
10.068129,-0.1016,-1.0066,-0.1324,0.1160,-1.7057,0.0137,0.4890,-0.4111,0.1364,
10.101641,-0.1016,-1.0066,-0.1324,0.1160,-1.7057,0.0137,0.7894,-0.6370,0.3804,
10.104303,-0.1016,-1.0066,-0.1324,-0.1666,-0.2829,0.2654,0.7894,-0.6370,0.3804,
10.141685,-0.1016,-1.0066,-0.1324,-0.1666,-0.2829,0.2654,0.9737,-0.9342,0.4752,
10.144261,-0.1016,-1.0066,-0.1324,0.0713,-0.2364,-0.1390,0.9737,-0.9342,0.4752,
10.145403,-0.0950,-1.0037,-0.1504,0.0713,-0.2364,-0.1390,0.9737,-0.9342,0.4752,
10.146437,-0.0798,-1.0433,-0.1629,0.0713,-0.2364,-0.1390,0.9737,-0.9342,0.4752,
10.147578,-0.0097,-1.0059,-0.1622,0.0713,-0.2364,-0.1390,0.9737,-0.9342,0.4752,
10.148744,0.0347,-0.8801,-0.1580,0.0713,-0.2364,-0.1390,0.9737,-0.9342,0.4752,
10.149936,-0.0007,-0.7946,-0.1856,0.0713,-0.2364,-0.1390,0.9737,-0.9342,0.4752,
10.180166,-0.0007,-0.7946,-0.1856,0.0713,-0.2364,-0.1390,0.8927,-0.7787,0.3772,
10.181837,-0.0007,-0.7946,-0.1856,1.2138,0.9895,-0.7015,0.8927,-0.7787,0.3772,
10.219385,-0.0251,-0.7953,-0.2179,1.2138,0.9895,-0.7015,0.8927,-0.7787,0.3772,
10.221837,-0.0278,-0.8596,-0.2242,1.2138,0.9895,-0.7015,0.8927,-0.7787,0.3772,
10.223078,-0.0386,-0.9407,-0.2301,1.2138,0.9895,-0.7015,0.8927,-0.7787,0.3772,
10.224428,-0.0386,-0.9407,-0.2301,1.2138,0.9895,-0.7015,0.5188,-0.3760,0.3569,
10.225472,-0.0386,-0.9407,-0.2301,0.9696,1.2463,-1.4388,0.5188,-0.3760,0.3569,
10.259959,-0.0386,-0.9407,-0.2301,0.5627,-0.4056,-0.2663,0.5188,-0.3760,0.3569,
10.262527,-0.0386,-0.9407,-0.2301,0.5627,-0.4056,-0.2663,-0.0703,-0.3685,0.2994,
10.299497,-0.0386,-0.9407,-0.2301,0.5627,-0.4056,-0.2663,-0.4357,-0.1320,0.1630,
10.301796,-0.0386,-0.9407,-0.2301,0.6191,-0.4222,-0.1045,-0.4357,-0.1320,0.1630,
10.303206,-0.0601,-1.0118,-0.1837,0.6191,-0.4222,-0.1045,-0.4357,-0.1320,0.1630,
10.304627,-0.0823,-1.0499,-0.0962,0.6191,-0.4222,-0.1045,-0.4357,-0.1320,0.1630,
10.305888,-0.1094,-1.0362,-0.0371,0.6191,-0.4222,-0.1045,-0.4357,-0.1320,0.1630,
10.307255,-0.1634,-0.9846,0.0399,0.6191,-0.4222,-0.1045,-0.4357,-0.1320,0.1630,
10.308295,-0.1942,-0.9468,0.1053,0.6191,-0.4222,-0.1045,-0.4357,-0.1320,0.1630,
10.339142,-0.1942,-0.9468,0.1053,0.6191,-0.4222,-0.1045,-0.4857,0.2376,0.1694,
10.341741,-0.1942,-0.9468,0.1053,0.6630,-0.4444,0.0943,-0.4857,0.2376,0.1694,
10.379800,-0.1942,-0.9468,0.1053,-0.3095,0.2039,2.1244,-0.4857,0.2376,0.1694,
10.382587,-0.1942,-0.9468,0.1053,-0.3095,0.2039,2.1244,-0.4730,0.4006,0.1407,
10.383896,-0.2040,-0.9573,0.1075,-0.3095,0.2039,2.1244,-0.4730,0.4006,0.1407,
10.385063,-0.2015,-0.9932,0.0633,-0.3095,0.2039,2.1244,-0.4730,0.4006,0.1407,
10.386046,-0.2076,-0.9939,0.0128,-0.3095,0.2039,2.1244,-0.4730,0.4006,0.1407,
10.387002,-0.2614,-0.9529,-0.0398,-0.3095,0.2039,2.1244,-0.4730,0.4006,0.1407,
10.418563,-0.2614,-0.9529,-0.0398,-0.3095,0.2039,2.1244,-0.6114,0.8331,0.0192,
10.420578,-0.2614,-0.9529,-0.0398,-0.6941,0.0002,1.6720,-0.6114,0.8331,0.0192,
10.458128,-0.2614,-0.9529,-0.0398,-0.6941,0.0002,1.6720,-0.9534,1.5852,0.1673,
10.460420,-0.2614,-0.9529,-0.0398,-1.4861,1.3999,0.8849,-0.9534,1.5852,0.1673,
10.462050,-0.3285,-0.8728,-0.0879,-1.4861,1.3999,0.8849,-0.9534,1.5852,0.1673,
10.464346,-0.3146,-0.8083,-0.1062,-1.4861,1.3999,0.8849,-0.9534,1.5852,0.1673,
10.465548,-0.2626,-0.7997,-0.1448,-1.4861,1.3999,0.8849,-0.9534,1.5852,0.1673,
10.466689,-0.2535,-0.8708,-0.2518,-1.4861,1.3999,0.8849,-0.9534,1.5852,0.1673,
10.498105,-0.2535,-0.8708,-0.2518,-1.4861,1.3999,0.8849,-1.3422,1.3188,0.3111,
10.501195,-0.2535,-0.8708,-0.2518,-1.4632,1.2392,1.4394,-1.3422,1.3188,0.3111,
10.538054,-0.2535,-0.8708,-0.2518,-0.2512,0.2978,-0.0045,-1.3422,1.3188,0.3111,
10.540304,-0.2535,-0.8708,-0.2518,-0.2512,0.2978,-0.0045,-1.3507,1.0099,0.2813,
10.541750,-0.1974,-0.9346,-0.3486,-0.2512,0.2978,-0.0045,-1.3507,1.0099,0.2813,
10.542929,-0.0823,-0.9106,-0.3505,-0.2512,0.2978,-0.0045,-1.3507,1.0099,0.2813,
10.544001,-0.1165,-0.8789,-0.4658,-0.2512,0.2978,-0.0045,-1.3507,1.0099,0.2813,
10.545121,-0.1873,-0.9202,-0.4895,-0.2512,0.2978,-0.0045,-1.3507,1.0099,0.2813,
10.576850,-0.1873,-0.9202,-0.4895,-0.2512,0.2978,-0.0045,-1.0109,0.5156,0.4592,
10.579701,-0.1873,-0.9202,-0.4895,-0.1503,0.1353,0.3845,-1.0109,0.5156,0.4592,
10.616405,-0.1873,-0.9202,-0.4895,-0.1503,0.1353,0.3845,-0.7819,-0.4016,0.4986,
10.619364,-0.1873,-0.9202,-0.4895,0.7290,-0.1343,-1.0352,-0.7819,-0.4016,0.4986,
10.620915,-0.0283,-0.9556,-0.5118,0.7290,-0.1343,-1.0352,-0.7819,-0.4016,0.4986,
10.622131,0.1210,-1.0101,-0.4837,0.7290,-0.1343,-1.0352,-0.7819,-0.4016,0.4986,
10.623410,0.0575,-1.0777,-0.3530,0.7290,-0.1343,-1.0352,-0.7819,-0.4016,0.4986,
10.624656,-0.0498,-1.0499,-0.2860,0.7290,-0.1343,-1.0352,-0.7819,-0.4016,0.4986,
10.656460,-0.0498,-1.0499,-0.2860,2.1521,-1.3631,0.1111,-0.7819,-0.4016,0.4986,
10.659026,-0.0498,-1.0499,-0.2860,2.1521,-1.3631,0.1111,-0.0191,0.2259,-0.0330,
10.696938,-0.0498,-1.0499,-0.2860,2.1521,-1.3631,0.1111,1.1431,0.2078,-0.4996,
10.699587,-0.0498,-1.0499,-0.2860,-0.1331,0.8262,2.0984,1.1431,0.2078,-0.4996,
10.700867,-0.1013,-0.9492,-0.1942,-0.1331,0.8262,2.0984,1.1431,0.2078,-0.4996,
10.701874,-0.1556,-0.8280,-0.1094,-0.1331,0.8262,2.0984,1.1431,0.2078,-0.4996,
10.702849,-0.2511,-0.7455,-0.0793,-0.1331,0.8262,2.0984,1.1431,0.2078,-0.4996,
10.704039,-0.4001,-0.7347,-0.0600,-0.1331,0.8262,2.0984,1.1431,0.2078,-0.4996,
10.735815,-0.4001,-0.7347,-0.0600,-0.1331,0.8262,2.0984,1.6427,-0.1086,-0.6231,
10.738190,-0.4001,-0.7347,-0.0600,-0.3417,1.0422,1.4693,1.6427,-0.1086,-0.6231,
10.774857,-0.4001,-0.7347,-0.0600,-0.3417,1.0422,1.4693,1.8653,-0.2375,-0.4399,
10.777031,-0.4001,-0.7347,-0.0600,-3.3324,2.0495,1.1236,1.8653,-0.2375,-0.4399,
10.778623,-0.5162,-0.7540,-0.0864,-3.3324,2.0495,1.1236,1.8653,-0.2375,-0.4399,
10.779929,-0.4812,-0.7753,-0.1204,-3.3324,2.0495,1.1236,1.8653,-0.2375,-0.4399,
10.781213,-0.3256,-0.8200,-0.1329,-3.3324,2.0495,1.1236,1.8653,-0.2375,-0.4399,
10.782400,-0.2694,-0.9267,-0.2228,-3.3324,2.0495,1.1236,1.8653,-0.2375,-0.4399,
10.814876,-0.2694,-0.9267,-0.2228,-3.3324,2.0495,1.1236,1.7716,-0.0735,-0.3621,
10.817052,-0.2694,-0.9267,-0.2228,-3.4060,2.1463,0.4448,1.7716,-0.0735,-0.3621,
10.854647,-0.2694,-0.9267,-0.2228,-3.4060,2.1463,0.4448,0.5327,-0.2524,0.0618,
10.857027,-0.2694,-0.9267,-0.2228,-2.0686,0.0501,-1.3522,0.5327,-0.2524,0.0618,
10.858424,-0.4145,-1.1657,-0.4031,-2.0686,0.0501,-1.3522,0.5327,-0.2524,0.0618,
10.859658,-0.7099,-1.4904,-0.8088,-2.0686,0.0501,-1.3522,0.5327,-0.2524,0.0618,
10.861007,-0.6586,-1.5827,-1.1648,-2.0686,0.0501,-1.3522,0.5327,-0.2524,0.0618,
10.862269,-0.1751,-1.1803,-0.6017,-2.0686,0.0501,-1.3522,0.5327,-0.2524,0.0618,
10.894003,-0.1751,-1.1803,-0.6017,-2.0686,0.0501,-1.3522,-0.4378,0.8746,0.3590,
10.896320,-0.1751,-1.1803,-0.6017,-3.6575,-4.2972,-6.9588,-0.4378,0.8746,0.3590,
10.933458,-0.1751,-1.1803,-0.6017,-3.6575,-4.2972,-6.9588,-0.2823,0.0821,0.2738,
10.935561,-0.1751,-1.1803,-0.6017,1.2631,0.5476,0.2223,-0.2823,0.0821,0.2738,
10.937364,0.0768,-0.6856,0.1261,1.2631,0.5476,0.2223,-0.2823,0.0821,0.2738,
10.938664,-0.0281,-0.8522,0.0062,1.2631,0.5476,0.2223,-0.2823,0.0821,0.2738,
10.939815,-0.1099,-1.2197,-0.5423,1.2631,0.5476,0.2223,-0.2823,0.0821,0.2738,
10.941646,0.0728,-1.1378,-0.2149,1.2631,0.5476,0.2223,-0.2823,0.0821,0.2738,
10.973073,0.0728,-1.1378,-0.2149,1.2631,0.5476,0.2223,-0.0660,-0.3462,0.1556,
10.974790,0.0728,-1.1378,-0.2149,1.3212,0.5253,0.2228,-0.0660,-0.3462,0.1556,
11.013128,0.0728,-1.1378,-0.2149,1.3212,0.5253,0.2228,0.7095,0.3271,0.0629,
11.015587,0.0728,-1.1378,-0.2149,1.2221,-0.9212,1.1814,0.7095,0.3271,0.0629,
11.016820,-0.0268,-1.0440,0.0751,1.2221,-0.9212,1.1814,0.7095,0.3271,0.0629,
11.018170,-0.1329,-1.0345,0.1056,1.2221,-0.9212,1.1814,0.7095,0.3271,0.0629,
11.019148,0.0086,-0.9812,-0.0784,1.2221,-0.9212,1.1814,0.7095,0.3271,0.0629,
11.020269,0.0902,-1.0325,-0.3503,1.2221,-0.9212,1.1814,0.7095,0.3271,0.0629,
11.052376,0.0902,-1.0325,-0.3503,1.2221,-0.9212,1.1814,1.1207,1.0909,0.1481,
11.054369,0.0902,-1.0325,-0.3503,1.2104,-0.8661,0.8065,1.1207,1.0909,0.1481,
11.092600,0.0902,-1.0325,-0.3503,1.2104,-0.8661,0.8065,0.7542,0.0533,0.3921,
11.094826,0.0902,-1.0325,-0.3503,2.0068,-0.2978,-1.9237,0.7542,0.0533,0.3921,
11.097787,0.0235,-1.0298,-0.3640,2.0068,-0.2978,-1.9237,0.7542,0.0533,0.3921,
11.099006,0.0259,-0.9751,-0.2015,2.0068,-0.2978,-1.9237,0.7542,0.0533,0.3921,
11.100103,0.1012,-0.9993,-0.0410,2.0068,-0.2978,-1.9237,0.7542,0.0533,0.3921,
11.101154,0.2207,-1.0279,-0.0740,2.0068,-0.2978,-1.9237,0.7542,0.0533,0.3921,
11.132107,0.2207,-1.0279,-0.0740,2.0068,-0.2978,-1.9237,1.2123,-0.1917,0.2813,
11.134250,0.2207,-1.0279,-0.0740,2.8064,-0.1582,-0.8305,1.2123,-0.1917,0.2813,
11.161907,0.2876,-0.9460,-0.2743,2.8064,-0.1582,-0.8305,1.2123,-0.1917,0.2813,
11.164161,0.1635,-0.8290,-0.3002,2.8064,-0.1582,-0.8305,1.2123,-0.1917,0.2813,
11.165667,-0.0188,-0.8974,-0.1788,2.8064,-0.1582,-0.8305,1.2123,-0.1917,0.2813,
11.171516,-0.0188,-0.8974,-0.1788,2.8064,-0.1582,-0.8305,0.7553,0.0565,0.1992,
11.172875,-0.0188,-0.8974,-0.1788,3.1061,0.8924,-2.4998,0.7553,0.0565,0.1992,
11.211027,-0.0188,-0.8974,-0.1788,3.1061,0.8924,-2.4998,0.0789,-0.0522,0.2270,
11.213117,-0.0188,-0.8974,-0.1788,2.5585,-0.1496,-1.8399,0.0789,-0.0522,0.2270,
11.249623,-0.0200,-0.9939,-0.1226,2.5585,-0.1496,-1.8399,0.0789,-0.0522,0.2270,
11.252341,0.1173,-1.0079,-0.1905,2.5585,-0.1496,-1.8399,0.0789,-0.0522,0.2270,
11.253659,0.1542,-0.9856,-0.2374,2.5585,-0.1496,-1.8399,0.0789,-0.0522,0.2270,
11.254915,0.1080,-0.9641,-0.2267,2.5585,-0.1496,-1.8399,0.0789,-0.0522,0.2270,
11.255950,0.1080,-0.9641,-0.2267,2.5585,-0.1496,-1.8399,-0.4293,-0.0159,-0.0021,
11.257008,0.1080,-0.9641,-0.2267,2.5151,-0.1476,-1.6495,-0.4293,-0.0159,-0.0021,
11.290277,0.1080,-0.9641,-0.2267,2.5151,-0.1476,-1.6495,-1.1228,-0.5891,-0.1736,
11.292868,0.1080,-0.9641,-0.2267,2.0514,-0.5445,-1.7665,-1.1228,-0.5891,-0.1736,
11.330199,0.1080,-0.9641,-0.2267,2.0514,-0.5445,-1.7665,-1.8226,-1.1898,-0.1864,
11.332903,0.1080,-0.9641,-0.2267,1.9885,-0.5863,-1.1287,-1.8226,-1.1898,-0.1864,
11.334349,0.0565,-0.9893,-0.2220,1.9885,-0.5863,-1.1287,-1.8226,-1.1898,-0.1864,
11.335374,-0.0266,-1.1571,-0.2658,1.9885,-0.5863,-1.1287,-1.8226,-1.1898,-0.1864,
11.336549,-0.0632,-1.3308,-0.2477,1.9885,-0.5863,-1.1287,-1.8226,-1.1898,-0.1864,
11.337963,-0.2162,-1.3211,-0.2352,1.9885,-0.5863,-1.1287,-1.8226,-1.1898,-0.1864,
11.339105,-0.4693,-1.1918,-0.3334,1.9885,-0.5863,-1.1287,-1.8226,-1.1898,-0.1864,
11.368973,-0.4693,-1.1918,-0.3334,1.9885,-0.5863,-1.1287,-2.3116,-0.5709,-0.1800,
11.371050,-0.4693,-1.1918,-0.3334,-0.9252,-3.0670,-0.6139,-2.3116,-0.5709,-0.1800,
11.409457,-0.4693,-1.1918,-0.3334,-0.9252,-3.0670,-0.6139,-1.8163,-0.1289,0.1247,
11.412298,-0.4693,-1.1918,-0.3334,-3.3723,-0.4520,2.8946,-1.8163,-0.1289,0.1247,
11.413687,-0.6068,-1.0611,-0.1534,-3.3723,-0.4520,2.8946,-1.8163,-0.1289,0.1247,
11.414909,-0.5785,-0.9624,0.0372,-3.3723,-0.4520,2.8946,-1.8163,-0.1289,0.1247,
11.416088,-0.3476,-0.9671,0.1840,-3.3723,-0.4520,2.8946,-1.8163,-0.1289,0.1247,
11.417387,-0.1639,-1.0538,0.1080,-3.3723,-0.4520,2.8946,-1.8163,-0.1289,0.1247,
11.449022,-0.1639,-1.0538,0.1080,-3.3723,-0.4520,2.8946,-0.6125,0.3452,0.0107,
11.452525,-0.1639,-1.0538,0.1080,-3.3507,-0.5118,3.0899,-0.6125,0.3452,0.0107,
11.488976,-0.1639,-1.0538,0.1080,-3.3507,-0.5118,3.0899,-0.1044,0.5391,-0.4719,
11.491349,-0.1639,-1.0538,0.1080,0.5678,0.2643,2.4768,-0.1044,0.5391,-0.4719,
11.492572,-0.0664,-0.9502,-0.1172,0.5678,0.2643,2.4768,-0.1044,0.5391,-0.4719,
11.493546,-0.0281,-0.7528,-0.1197,0.5678,0.2643,2.4768,-0.1044,0.5391,-0.4719,
11.494737,-0.0073,-0.5654,-0.0202,0.5678,0.2643,2.4768,-0.1044,0.5391,-0.4719,
11.495880,-0.0461,-0.5080,-0.0378,0.5678,0.2643,2.4768,-0.1044,0.5391,-0.4719,
11.528246,-0.0461,-0.5080,-0.0378,0.5678,0.2643,2.4768,0.3313,0.3260,-0.8266,
11.530960,-0.0461,-0.5080,-0.0378,0.2223,0.3365,2.3314,0.3313,0.3260,-0.8266,
11.568210,-0.0461,-0.5080,-0.0378,0.2223,0.3365,2.3314,0.4251,-0.0234,-0.9097,
11.571682,-0.0461,-0.5080,-0.0378,0.0516,3.8708,2.1368,0.4251,-0.0234,-0.9097,
11.573135,-0.1541,-0.6050,-0.0708,0.0516,3.8708,2.1368,0.4251,-0.0234,-0.9097,
11.574329,-0.2868,-0.7340,-0.2333,0.0516,3.8708,2.1368,0.4251,-0.0234,-0.9097,
11.575594,-0.3525,-0.8610,-0.4768,0.0516,3.8708,2.1368,0.4251,-0.0234,-0.9097,
11.576725,-0.4182,-0.9566,-0.4522,0.0516,3.8708,2.1368,0.4251,-0.0234,-0.9097,
11.607476,-0.4182,-0.9566,-0.4522,0.0516,3.8708,2.1368,-0.0458,0.2301,-0.7435,
11.609908,-0.4182,-0.9566,-0.4522,-2.9738,1.0138,-1.1967,-0.0458,0.2301,-0.7435,
11.648056,-0.4182,-0.9566,-0.4522,-2.9738,1.0138,-1.1967,0.1268,0.6158,-0.2450,
11.650384,-0.5445,-1.1198,-0.3786,-2.9738,1.0138,-1.1967,0.1268,0.6158,-0.2450,
11.651942,-0.5650,-1.2385,-0.4045,-2.9738,1.0138,-1.1967,0.1268,0.6158,-0.2450,
11.653056,-0.3068,-1.1576,-0.2074,-2.9738,1.0138,-1.1967,0.1268,0.6158,-0.2450,
11.654531,-0.1023,-1.0750,-0.1421,-2.9738,1.0138,-1.1967,0.1268,0.6158,-0.2450,
11.655781,-0.1023,-1.0750,-0.1421,-4.2284,-2.0838,-0.6622,0.1268,0.6158,-0.2450,
11.686787,-0.1023,-1.0750,-0.1421,-4.2284,-2.0838,-0.6622,-0.0085,0.7276,0.0022,
11.689293,-0.1023,-1.0750,-0.1421,-4.2302,-2.0499,-0.6380,-0.0085,0.7276,0.0022,
11.726671,-0.1023,-1.0750,-0.1421,-4.2302,-2.0499,-0.6380,-0.0575,-0.1480,0.1023,
11.728960,-0.1023,-1.0750,-0.1421,-0.5230,-0.1610,0.0764,-0.0575,-0.1480,0.1023,
11.730077,-0.0515,-0.9788,-0.3158,-0.5230,-0.1610,0.0764,-0.0575,-0.1480,0.1023,
11.731580,-0.1468,-0.8823,-0.3193,-0.5230,-0.1610,0.0764,-0.0575,-0.1480,0.1023,
11.732723,-0.2426,-0.9050,-0.1903,-0.5230,-0.1610,0.0764,-0.0575,-0.1480,0.1023,
11.734051,-0.2753,-1.0499,-0.2552,-0.5230,-0.1610,0.0764,-0.0575,-0.1480,0.1023,
11.766364,-0.2753,-1.0499,-0.2552,-0.5230,-0.1610,0.0764,0.1002,-0.3163,0.2248,
11.768698,-0.2753,-1.0499,-0.2552,-0.3996,-0.1527,0.0319,0.1002,-0.3163,0.2248,
11.806087,-0.2753,-1.0499,-0.2552,-0.3996,-0.1527,0.0319,0.1002,0.4123,0.2461,
11.808594,-0.2753,-1.0499,-0.2552,-1.8854,-0.7080,0.2540,0.1002,0.4123,0.2461,
11.809858,-0.2628,-1.1562,-0.2540,-1.8854,-0.7080,0.2540,0.1002,0.4123,0.2461,
11.811339,-0.2035,-1.1474,-0.1028,-1.8854,-0.7080,0.2540,0.1002,0.4123,0.2461,
11.812590,-0.0828,-1.0501,-0.0493,-1.8854,-0.7080,0.2540,0.1002,0.4123,0.2461,
11.813561,-0.0437,-0.9964,-0.0273,-1.8854,-0.7080,0.2540,0.1002,0.4123,0.2461,
11.845184,-0.0437,-0.9964,-0.0273,-0.3165,-0.9361,1.7952,0.1002,0.4123,0.2461,
11.847927,-0.0437,-0.9964,-0.0273,-0.3165,-0.9361,1.7952,0.3782,0.5114,0.3772,
11.884986,0.0487,-1.0318,-0.1475,-0.3165,-0.9361,1.7952,0.3782,0.5114,0.3772,
11.889825,0.0614,-1.1173,-0.2462,-0.3165,-0.9361,1.7952,0.3782,0.5114,0.3772,
11.892129,-0.0312,-1.1427,-0.1663,-0.3165,-0.9361,1.7952,0.3782,0.5114,0.3772,
11.893863,-0.0312,-1.1427,-0.1663,-0.3165,-0.9361,1.7952,0.4709,0.2142,0.4645,
11.895594,-0.0312,-1.1427,-0.1663,1.1546,-1.2082,0.3748,0.4709,0.2142,0.4645,
11.925276,-0.0312,-1.1427,-0.1663,1.1546,-1.2082,0.3748,0.6040,0.4070,0.4581,
11.927258,-0.0312,-1.1427,-0.1663,1.6919,-0.9770,1.0370,0.6040,0.4070,0.4581,
11.963174,-0.0312,-1.1427,-0.1663,1.6919,-0.9770,1.0370,0.8821,0.4560,0.2951,
11.964831,-0.0312,-1.1427,-0.1663,1.7420,-0.9104,0.7077,0.8821,0.4560,0.2951,
11.965743,0.0181,-1.1048,-0.0789,1.7420,-0.9104,0.7077,0.8821,0.4560,0.2951,
11.966227,0.1083,-1.0684,-0.0796,1.7420,-0.9104,0.7077,0.8821,0.4560,0.2951,
11.966779,0.0829,-1.0628,-0.1282,1.7420,-0.9104,0.7077,0.8821,0.4560,0.2951,
11.967454,-0.0376,-1.0709,-0.2120,1.7420,-0.9104,0.7077,0.8821,0.4560,0.2951,
11.968138,-0.1096,-0.9893,-0.1934,1.7420,-0.9104,0.7077,0.8821,0.4560,0.2951,
12.002595,-0.1096,-0.9893,-0.1934,1.7420,-0.9104,0.7077,0.7958,0.3335,0.4783,
12.003556,-0.1096,-0.9893,-0.1934,1.8737,-0.8700,0.4107,0.7958,0.3335,0.4783,
12.043628,-0.1096,-0.9893,-0.1934,0.5875,0.0241,-0.6658,0.7958,0.3335,0.4783,
12.046070,-0.1096,-0.9893,-0.1934,0.5875,0.0241,-0.6658,0.9225,0.3281,0.7330,
12.047370,-0.1158,-0.9035,-0.1109,0.5875,0.0241,-0.6658,0.9225,0.3281,0.7330,
12.048193,-0.0271,-0.9368,-0.0493,0.5875,0.0241,-0.6658,0.9225,0.3281,0.7330,
12.049345,0.1466,-0.9910,-0.0984,0.5875,0.0241,-0.6658,0.9225,0.3281,0.7330,
12.050284,0.2729,-0.9920,-0.2435,0.5875,0.0241,-0.6658,0.9225,0.3281,0.7330,
12.083596,0.2729,-0.9920,-0.2435,2.8722,0.1625,-0.5634,0.9225,0.3281,0.7330,
12.085900,0.2729,-0.9920,-0.2435,2.8722,0.1625,-0.5634,0.9588,0.8597,0.5742,
12.123349,0.2729,-0.9920,-0.2435,2.8722,0.1625,-0.5634,0.4826,0.6435,0.3463,
12.125587,0.2729,-0.9920,-0.2435,3.4862,0.7861,-1.3062,0.4826,0.6435,0.3463,
12.126953,0.2742,-0.9373,-0.2479,3.4862,0.7861,-1.3062,0.4826,0.6435,0.3463,
12.128166,0.1706,-0.8901,-0.1478,3.4862,0.7861,-1.3062,0.4826,0.6435,0.3463,
12.129420,0.1180,-0.8943,-0.1859,3.4862,0.7861,-1.3062,0.4826,0.6435,0.3463,
12.130641,0.1285,-0.9067,-0.2782,3.4862,0.7861,-1.3062,0.4826,0.6435,0.3463,
12.162613,0.1285,-0.9067,-0.2782,3.4862,0.7861,-1.3062,-0.1129,0.2845,0.3292,
12.164912,0.1285,-0.9067,-0.2782,3.5456,0.7482,-1.2231,-0.1129,0.2845,0.3292,
12.190822,0.1552,-0.8879,-0.3351,3.5456,0.7482,-1.2231,-0.1129,0.2845,0.3292,
12.193087,0.1483,-0.8647,-0.3041,3.5456,0.7482,-1.2231,-0.1129,0.2845,0.3292,
12.194579,0.0995,-0.8601,-0.2081,3.5456,0.7482,-1.2231,-0.1129,0.2845,0.3292,
12.201564,0.0995,-0.8601,-0.2081,3.5456,0.7482,-1.2231,-0.9481,-0.3504,0.1130,
12.202948,0.0995,-0.8601,-0.2081,3.1210,0.8970,-1.9502,-0.9481,-0.3504,0.1130,
12.241705,0.0995,-0.8601,-0.2081,3.1210,0.8970,-1.9502,-1.5766,-0.4879,-0.3962,
12.244022,0.0995,-0.8601,-0.2081,1.5207,1.2213,0.0616,-1.5766,-0.4879,-0.3962,
12.279231,0.0186,-0.8185,-0.1544,1.5207,1.2213,0.0616,-1.5766,-0.4879,-0.3962,
12.282201,-0.1299,-0.8576,-0.1118,1.5207,1.2213,0.0616,-1.5766,-0.4879,-0.3962,
12.283417,-0.2875,-0.9810,-0.0747,1.5207,1.2213,0.0616,-1.5766,-0.4879,-0.3962,
12.284763,-0.4930,-1.1337,-0.1175,1.5207,1.2213,0.0616,-1.5766,-0.4879,-0.3962,
12.286086,-0.4930,-1.1337,-0.1175,1.2542,1.1080,0.6946,-1.5766,-0.4879,-0.3962,
12.287268,-0.4930,-1.1337,-0.1175,1.2542,1.1080,0.6946,-1.7001,0.1407,-0.6221,
12.321370,-0.4930,-1.1337,-0.1175,1.2542,1.1080,0.6946,-1.4871,0.3111,-0.2386,
12.323390,-0.4930,-1.1337,-0.1175,-3.5939,-1.8014,1.3017,-1.4871,0.3111,-0.2386,
12.360119,-0.4930,-1.1337,-0.1175,-3.5939,-1.8014,1.3017,-1.2975,0.1747,0.0182,
12.362724,-0.4930,-1.1337,-0.1175,-3.5481,-1.9254,1.7542,-1.2975,0.1747,0.0182,
12.364231,-0.6975,-1.2795,-0.2623,-3.5481,-1.9254,1.7542,-1.2975,0.1747,0.0182,
12.365389,-0.5650,-1.1518,-0.3603,-3.5481,-1.9254,1.7542,-1.2975,0.1747,0.0182,
12.366763,-0.3461,-1.0020,-0.4048,-3.5481,-1.9254,1.7542,-1.2975,0.1747,0.0182,
12.367834,-0.3371,-1.0384,-0.5599,-3.5481,-1.9254,1.7542,-1.2975,0.1747,0.0182,
12.368949,-0.3522,-1.0633,-0.5384,-3.5481,-1.9254,1.7542,-1.2975,0.1747,0.0182,
12.400744,-0.3522,-1.0633,-0.5384,-3.5481,-1.9254,1.7542,-1.2879,-0.0181,-0.0522,
12.402919,-0.3522,-1.0633,-0.5384,-2.7669,-1.4160,-0.6163,-1.2879,-0.0181,-0.0522,
12.439883,-0.2523,-1.0232,-0.3183,-2.7669,-1.4160,-0.6163,-1.2879,-0.0181,-0.0522,
12.442012,-0.0759,-0.9910,-0.2323,-2.7669,-1.4160,-0.6163,-1.2879,-0.0181,-0.0522,
12.443032,0.0428,-0.9419,-0.1890,-2.7669,-1.4160,-0.6163,-1.2879,-0.0181,-0.0522,
12.445081,0.0428,-0.9419,-0.1890,-2.7669,-1.4160,-0.6163,-0.7968,-0.1310,-0.1810,
12.446237,0.0428,-0.9419,-0.1890,-0.9403,-1.1348,0.4234,-0.7968,-0.1310,-0.1810,
12.479206,0.0428,-0.9419,-0.1890,-0.9403,-1.1348,0.4234,-0.1299,0.0970,-0.5379,
12.481452,0.0428,-0.9419,-0.1890,-0.5868,-0.2427,2.1342,-0.1299,0.0970,-0.5379,
12.519714,0.0428,-0.9419,-0.1890,-0.5868,-0.2427,2.1342,0.3494,-0.8756,-0.4250,
12.522076,0.0428,-0.9419,-0.1890,-0.5917,-0.1677,1.9403,0.3494,-0.8756,-0.4250,
12.523511,-0.1551,-0.9050,-0.1575,-0.5917,-0.1677,1.9403,0.3494,-0.8756,-0.4250,
12.524803,-0.4001,-0.9602,-0.2230,-0.5917,-0.1677,1.9403,0.3494,-0.8756,-0.4250,
12.526510,-0.4263,-0.9583,-0.3229,-0.5917,-0.1677,1.9403,0.3494,-0.8756,-0.4250,
12.527919,-0.2684,-0.9421,-0.3305,-0.5917,-0.1677,1.9403,0.3494,-0.8756,-0.4250,
12.529074,-0.1778,-0.9651,-0.2728,-0.5917,-0.1677,1.9403,0.3494,-0.8756,-0.4250,
12.558913,-0.1778,-0.9651,-0.2728,-0.5917,-0.1677,1.9403,0.6371,-0.6530,-0.3813,
12.561401,-0.1778,-0.9651,-0.2728,-1.7792,-0.2455,0.5101,0.6371,-0.6530,-0.3813,
12.598351,-0.1778,-0.9651,-0.2728,-1.7792,-0.2455,0.5101,1.0227,-0.2482,-0.4570,
12.600862,-0.1778,-0.9651,-0.2728,-1.4934,0.7911,1.6518,1.0227,-0.2482,-0.4570,
12.602393,-0.2389,-0.9448,-0.2152,-1.4934,0.7911,1.6518,1.0227,-0.2482,-0.4570,
12.603474,-0.2743,-0.8725,-0.1456,-1.4934,0.7911,1.6518,1.0227,-0.2482,-0.4570,
12.605027,-0.2389,-0.7738,-0.0903,-1.4934,0.7911,1.6518,1.0227,-0.2482,-0.4570,
12.606127,-0.1930,-0.6885,-0.0891,-1.4934,0.7911,1.6518,1.0227,-0.2482,-0.4570,
12.638250,-0.1930,-0.6885,-0.0891,-1.4934,0.7911,1.6518,1.4349,-0.2237,-0.4335,
12.641095,-0.1930,-0.6885,-0.0891,-1.6013,0.9528,1.0936,1.4349,-0.2237,-0.4335,
12.677354,-0.1690,-0.6392,-0.1778,-1.6013,0.9528,1.0936,1.4349,-0.2237,-0.4335,
12.679515,-0.2215,-0.6749,-0.3078,-1.6013,0.9528,1.0936,1.4349,-0.2237,-0.4335,
12.680633,-0.3261,-0.8273,-0.3234,-1.6013,0.9528,1.0936,1.4349,-0.2237,-0.4335,
12.681814,-0.3261,-0.8273,-0.3234,-1.6013,0.9528,1.0936,1.2624,-0.1384,-0.3057,
12.682951,-0.3261,-0.8273,-0.3234,-1.1334,2.9516,0.2073,1.2624,-0.1384,-0.3057,
12.717507,-0.3261,-0.8273,-0.3234,-1.1334,2.9516,0.2073,0.8682,-0.6753,-0.0703,
12.719998,-0.3261,-0.8273,-0.3234,-2.8561,-0.0239,-1.7445,0.8682,-0.6753,-0.0703,
12.757577,-0.3261,-0.8273,-0.3234,-2.8561,-0.0239,-1.7445,0.1992,-0.2737,0.1460,
12.760171,-0.3261,-0.8273,-0.3234,-2.7358,-0.0152,-1.7990,0.1992,-0.2737,0.1460,
12.761637,-0.3662,-0.9763,-0.2829,-2.7358,-0.0152,-1.7990,0.1992,-0.2737,0.1460,
12.762775,-0.4407,-1.1307,-0.4683,-2.7358,-0.0152,-1.7990,0.1992,-0.2737,0.1460,
12.764248,-0.4104,-1.2597,-0.4766,-2.7358,-0.0152,-1.7990,0.1992,-0.2737,0.1460,
12.765096,-0.1749,-1.2439,-0.2924,-2.7358,-0.0152,-1.7990,0.1992,-0.2737,0.1460,
12.766254,-0.0972,-1.1478,-0.2985,-2.7358,-0.0152,-1.7990,0.1992,-0.2737,0.1460,
12.796534,-0.0972,-1.1478,-0.2985,-2.7358,-0.0152,-1.7990,-0.0959,-0.0735,0.1013,
12.798551,-0.0972,-1.1478,-0.2985,-1.2005,-2.3286,-1.7133,-0.0959,-0.0735,0.1013,
12.836218,-0.0972,-1.1478,-0.2985,-1.2005,-2.3286,-1.7133,-0.2631,-0.9619,-0.0106,
12.838287,-0.0972,-1.1478,-0.2985,0.3359,0.0026,-0.9350,-0.2631,-0.9619,-0.0106,
12.839862,-0.0703,-1.0125,-0.2513,0.3359,0.0026,-0.9350,-0.2631,-0.9619,-0.0106,
12.841073,-0.0913,-0.9558,-0.2882,0.3359,0.0026,-0.9350,-0.2631,-0.9619,-0.0106,
12.842222,-0.0686,-0.9639,-0.3127,0.3359,0.0026,-0.9350,-0.2631,-0.9619,-0.0106,
12.843237,0.0357,-0.9529,-0.1426,0.3359,0.0026,-0.9350,-0.2631,-0.9619,-0.0106,
12.875722,0.0357,-0.9529,-0.1426,0.3359,0.0026,-0.9350,-0.5773,-0.9278,-0.0255,
12.878550,0.0357,-0.9529,-0.1426,0.3905,-0.0399,-0.7447,-0.5773,-0.9278,-0.0255,
12.914841,0.0357,-0.9529,-0.1426,0.3905,-0.0399,-0.7447,-0.6636,-0.8596,-0.0266,
12.916775,0.0357,-0.9529,-0.1426,1.6104,0.7125,-0.4982,-0.6636,-0.8596,-0.0266,
12.918846,0.0968,-0.8974,-0.2318,1.6104,0.7125,-0.4982,-0.6636,-0.8596,-0.0266,
12.919869,-0.0002,-0.8310,-0.4693,1.6104,0.7125,-0.4982,-0.6636,-0.8596,-0.0266,
12.923519,-0.1228,-0.8571,-0.3031,1.6104,0.7125,-0.4982,-0.6636,-0.8596,-0.0266,
12.926386,0.0086,-0.8867,0.0856,1.6104,0.7125,-0.4982,-0.6636,-0.8596,-0.0266,
12.954537,0.0086,-0.8867,0.0856,1.6104,0.7125,-0.4982,-0.5422,-0.9949,0.0033,
12.956539,0.0086,-0.8867,0.0856,1.6756,0.6511,-0.3377,-0.5422,-0.9949,0.0033,
12.994831,0.0086,-0.8867,0.0856,1.6756,0.6511,-0.3377,-0.0895,0.4091,-0.1715,
12.996402,0.0086,-0.8867,0.0856,0.8871,0.4812,1.4200,-0.0895,0.4091,-0.1715,
12.997585,0.0416,-0.9868,-0.0967,0.8871,0.4812,1.4200,-0.0895,0.4091,-0.1715,
12.998383,-0.0500,-1.1070,-0.4387,0.8871,0.4812,1.4200,-0.0895,0.4091,-0.1715,
12.999185,-0.0315,-1.1935,-0.3146,0.8871,0.4812,1.4200,-0.0895,0.4091,-0.1715,
13.000018,0.0491,-1.1840,-0.0366,0.8871,0.4812,1.4200,-0.0895,0.4091,-0.1715,
13.034676,0.0491,-1.1840,-0.0366,0.8871,0.4812,1.4200,0.0938,0.5689,-0.1501,
13.037391,0.0491,-1.1840,-0.0366,0.8925,-1.9334,-0.1423,0.0938,0.5689,-0.1501,
13.074913,0.0491,-1.1840,-0.0366,0.8925,-1.9334,-0.1423,0.5295,-0.2567,-0.1938,
13.077724,0.0491,-1.1840,-0.0366,1.9072,-2.0489,0.5652,0.5295,-0.2567,-0.1938,
13.079078,0.1325,-1.1310,-0.0442,1.9072,-2.0489,0.5652,0.5295,-0.2567,-0.1938,
13.080231,0.1547,-1.1510,-0.2017,1.9072,-2.0489,0.5652,0.5295,-0.2567,-0.1938,
13.081556,0.0162,-1.2658,-0.2606,1.9072,-2.0489,0.5652,0.5295,-0.2567,-0.1938,
13.082919,-0.1092,-1.2917,-0.1707,1.9072,-2.0489,0.5652,0.5295,-0.2567,-0.1938,
13.113125,-0.1092,-1.2917,-0.1707,1.9072,-2.0489,0.5652,0.7755,-0.4580,-0.0447,
13.115382,-0.1092,-1.2917,-0.1707,1.8956,-1.9507,0.2499,0.7755,-0.4580,-0.0447,
13.148110,-0.1136,-1.1532,-0.1062,1.8956,-1.9507,0.2499,0.7755,-0.4580,-0.0447,
13.150457,-0.1309,-0.9920,-0.2008,1.8956,-1.9507,0.2499,0.7755,-0.4580,-0.0447,
13.151911,-0.1536,-0.9275,-0.2403,1.8956,-1.9507,0.2499,0.7755,-0.4580,-0.0447,
13.153321,-0.1536,-0.9275,-0.2403,-0.0703,-1.5123,-0.0448,0.7755,-0.4580,-0.0447,
13.154557,-0.1536,-0.9275,-0.2403,-0.0703,-1.5123,-0.0448,0.9364,-0.7861,0.3282,
13.193293,-0.1536,-0.9275,-0.2403,-0.0703,-1.5123,-0.0448,0.8544,-0.9480,0.6190,
13.195735,-0.1536,-0.9275,-0.2403,0.0666,0.4063,-0.7794,0.8544,-0.9480,0.6190,
13.232176,-0.1536,-0.9275,-0.2403,0.0666,0.4063,-0.7794,0.8693,-0.7126,0.4560,
13.234793,-0.1536,-0.9275,-0.2403,0.2655,0.4060,-1.1370,0.8693,-0.7126,0.4560,
13.236256,-0.1519,-0.9509,-0.2127,0.2655,0.4060,-1.1370,0.8693,-0.7126,0.4560,
13.237995,-0.0940,-0.9737,-0.1387,0.2655,0.4060,-1.1370,0.8693,-0.7126,0.4560,
13.239136,0.0474,-0.9126,-0.0850,0.2655,0.4060,-1.1370,0.8693,-0.7126,0.4560,
13.240244,0.1532,-0.7687,-0.0664,0.2655,0.4060,-1.1370,0.8693,-0.7126,0.4560,
13.241657,0.1073,-0.6785,-0.0488,0.2655,0.4060,-1.1370,0.8693,-0.7126,0.4560,
13.271527,0.1073,-0.6785,-0.0488,0.2655,0.4060,-1.1370,0.5816,-0.0170,0.1630,
13.273969,0.1073,-0.6785,-0.0488,2.5965,1.9857,-0.0815,0.5816,-0.0170,0.1630,
13.312030,0.1073,-0.6785,-0.0488,2.5965,1.9857,-0.0815,0.0863,-0.1864,0.2238,
13.314587,0.1073,-0.6785,-0.0488,0.0872,0.2012,-0.1223,0.0863,-0.1864,0.2238,
13.315875,-0.0383,-0.7623,-0.0752,0.0872,0.2012,-0.1223,0.0863,-0.1864,0.2238,
13.317024,-0.1917,-0.9939,-0.0945,0.0872,0.2012,-0.1223,0.0863,-0.1864,0.2238,
13.318042,-0.2572,-1.1449,-0.0298,0.0872,0.2012,-0.1223,0.0863,-0.1864,0.2238,
13.319333,-0.2037,-1.1188,0.0751,0.0872,0.2012,-0.1223,0.0863,-0.1864,0.2238,
13.351218,-0.2037,-1.1188,0.0751,0.1914,0.1719,-0.0055,0.0863,-0.1864,0.2238,
13.354472,-0.2037,-1.1188,0.0751,0.1914,0.1719,-0.0055,-0.2972,0.0416,0.2834,
13.391979,-0.2037,-1.1188,0.0751,0.1914,0.1719,-0.0055,-0.3494,0.5071,0.2280,
13.394628,-0.2037,-1.1188,0.0751,-0.0751,-0.5492,1.8279,-0.3494,0.5071,0.2280,
13.396005,-0.1776,-1.0223,0.1542,-0.0751,-0.5492,1.8279,-0.3494,0.5071,0.2280,
13.397005,-0.2101,-0.9756,0.0900,-0.0751,-0.5492,1.8279,-0.3494,0.5071,0.2280,
13.398497,-0.1771,-0.9480,0.0025,-0.0751,-0.5492,1.8279,-0.3494,0.5071,0.2280,
13.399474,-0.1268,-0.9233,-0.0273,-0.0751,-0.5492,1.8279,-0.3494,0.5071,0.2280,
13.431025,-0.1268,-0.9233,-0.0273,-0.0751,-0.5492,1.8279,-0.5454,0.6616,0.1684,
13.433243,-0.1268,-0.9233,-0.0273,-0.0342,-0.5718,2.0503,-0.5454,0.6616,0.1684,
13.469655,-0.1268,-0.9233,-0.0273,-0.0342,-0.5718,2.0503,-0.7041,0.9737,-0.0319,
13.471925,-0.1268,-0.9233,-0.0273,0.4119,0.4028,1.1963,-0.7041,0.9737,-0.0319,
13.473393,-0.1311,-0.9355,-0.0153,0.4119,0.4028,1.1963,-0.7041,0.9737,-0.0319,
13.474838,-0.1986,-0.9719,-0.0161,0.4119,0.4028,1.1963,-0.7041,0.9737,-0.0319,
13.476106,-0.2934,-0.9651,-0.0613,0.4119,0.4028,1.1963,-0.7041,0.9737,-0.0319,
13.477062,-0.3654,-0.9089,-0.1412,0.4119,0.4028,1.1963,-0.7041,0.9737,-0.0319,
13.509737,-0.3654,-0.9089,-0.1412,0.4119,0.4028,1.1963,-0.9214,1.5266,0.0842,
13.512290,-0.3654,-0.9089,-0.1412,-1.0133,0.2088,1.0531,-0.9214,1.5266,0.0842,
13.548234,-0.3310,-0.8513,-0.1859,-1.0133,0.2088,1.0531,-0.9214,1.5266,0.0842,
13.550918,-0.2301,-0.8004,-0.1766,-1.0133,0.2088,1.0531,-0.9214,1.5266,0.0842,
13.552262,-0.1324,-0.7797,-0.2455,-1.0133,0.2088,1.0531,-0.9214,1.5266,0.0842,
13.553308,-0.1324,-0.7797,-0.2455,-1.0133,0.2088,1.0531,-1.3092,1.7109,0.3399,
13.554761,-0.1324,-0.7797,-0.2455,-0.4826,1.4075,0.3856,-1.3092,1.7109,0.3399,
13.589289,-0.1324,-0.7797,-0.2455,-0.4826,1.4075,0.3856,-1.3230,1.2954,0.2387,
13.591857,-0.1324,-0.7797,-0.2455,0.9339,0.4292,-1.3416,-1.3230,1.2954,0.2387,
13.628743,-0.1324,-0.7797,-0.2455,0.9339,0.4292,-1.3416,-0.9758,0.8789,0.2653,
13.632072,-0.1324,-0.7797,-0.2455,0.9039,0.2835,-0.9139,-0.9758,0.8789,0.2653,
13.633227,-0.0317,-0.7799,-0.3598,0.9039,0.2835,-0.9139,-0.9758,0.8789,0.2653,
13.634441,-0.0542,-0.8798,-0.4199,0.9039,0.2835,-0.9139,-0.9758,0.8789,0.2653,
13.635604,-0.1544,-1.0211,-0.5404,0.9039,0.2835,-0.9139,-0.9758,0.8789,0.2653,
13.636764,-0.0808,-0.9729,-0.5526,0.9039,0.2835,-0.9139,-0.9758,0.8789,0.2653,
13.638086,0.0223,-0.8258,-0.4307,0.9039,0.2835,-0.9139,-0.9758,0.8789,0.2653,
13.668481,0.0223,-0.8258,-0.4307,0.9039,0.2835,-0.9139,-0.8543,0.0459,0.4102,
13.671366,0.0223,-0.8258,-0.4307,1.0266,0.1324,-0.5973,-0.8543,0.0459,0.4102,
13.708930,0.0223,-0.8258,-0.4307,1.0266,0.1324,-0.5973,-0.2418,0.0171,0.1215,
13.711677,0.0223,-0.8258,-0.4307,1.4860,0.2195,-0.3715,-0.2418,0.0171,0.1215,
13.712978,-0.0456,-0.8405,-0.2960,1.4860,0.2195,-0.3715,-0.2418,0.0171,0.1215,
13.714331,-0.1534,-0.9717,-0.3386,1.4860,0.2195,-0.3715,-0.2418,0.0171,0.1215,
13.715501,-0.3117,-1.1212,-0.4311,1.4860,0.2195,-0.3715,-0.2418,0.0171,0.1215,
13.716710,-0.2912,-1.0736,-0.3816,1.4860,0.2195,-0.3715,-0.2418,0.0171,0.1215,
13.747479,-0.2912,-1.0736,-0.3816,1.4860,0.2195,-0.3715,0.6413,0.3505,-0.1821,
13.750094,-0.2912,-1.0736,-0.3816,-0.7472,-1.3724,-0.1523,0.6413,0.3505,-0.1821,
13.787830,-0.2912,-1.0736,-0.3816,-0.7472,-1.3724,-0.1523,1.3252,0.5913,-0.3909,
13.789948,-0.2912,-1.0736,-0.3816,-0.3900,0.6628,2.5588,1.3252,0.5913,-0.3909,
13.791616,-0.2020,-0.9133,-0.1372,-0.3900,0.6628,2.5588,1.3252,0.5913,-0.3909,
13.792783,-0.1678,-0.8234,-0.0195,-0.3900,0.6628,2.5588,1.3252,0.5913,-0.3909,
13.793749,-0.2118,-0.8654,-0.0170,-0.3900,0.6628,2.5588,1.3252,0.5913,-0.3909,
13.794784,-0.3332,-0.9206,-0.0520,-0.3900,0.6628,2.5588,1.3252,0.5913,-0.3909,
13.826998,-0.3332,-0.9206,-0.0520,-0.3900,0.6628,2.5588,1.6799,0.4794,-0.4985,
13.829758,-0.3332,-0.9206,-0.0520,-0.6171,0.8643,1.9349,1.6799,0.4794,-0.4985,
13.866376,-0.3332,-0.9206,-0.0520,-0.6171,0.8643,1.9349,1.8866,0.5135,-0.3930,
13.868984,-0.3332,-0.9206,-0.0520,-2.5239,0.6622,0.8618,1.8866,0.5135,-0.3930,
13.870329,-0.4111,-0.9070,-0.0930,-2.5239,0.6622,0.8618,1.8866,0.5135,-0.3930,
13.871525,-0.3755,-0.8881,-0.1436,-2.5239,0.6622,0.8618,1.8866,0.5135,-0.3930,
13.872704,-0.2733,-0.8725,-0.1741,-2.5239,0.6622,0.8618,1.8866,0.5135,-0.3930,
13.873734,-0.1373,-0.8349,-0.1622,-2.5239,0.6622,0.8618,1.8866,0.5135,-0.3930,
13.905916,-0.1373,-0.8349,-0.1622,-2.5239,0.6622,0.8618,1.8536,0.7148,-0.2695,
13.908269,-0.1373,-0.8349,-0.1622,-2.6230,0.7684,0.1833,1.8536,0.7148,-0.2695,
13.945654,-0.1373,-0.8349,-0.1622,-2.6230,0.7684,0.1833,1.4200,0.7468,-0.2801,
13.948926,-0.1373,-0.8349,-0.1622,-0.5860,1.3799,-0.8846,1.4200,0.7468,-0.2801,
13.950246,-0.0481,-0.8322,-0.1260,-0.5860,1.3799,-0.8846,1.4200,0.7468,-0.2801,
13.951323,-0.1297,-0.9715,-0.1487,-0.5860,1.3799,-0.8846,1.4200,0.7468,-0.2801,
13.952495,-0.4033,-1.2013,-0.4737,-0.5860,1.3799,-0.8846,1.4200,0.7468,-0.2801,
13.953623,-0.6198,-1.4432,-1.0644,-0.5860,1.3799,-0.8846,1.4200,0.7468,-0.2801,
13.985278,-0.6198,-1.4432,-1.0644,-0.5860,1.3799,-0.8846,0.0245,-0.1267,0.1449,
13.987969,-0.6198,-1.4432,-1.0644,-2.7483,-2.1054,-4.8171,0.0245,-0.1267,0.1449,
14.025329,-0.6198,-1.4432,-1.0644,-2.7483,-2.1054,-4.8171,-0.7915,1.7886,0.3441,
14.027795,-0.6198,-1.4432,-1.0644,0.7780,-2.2546,-2.4037,-0.7915,1.7886,0.3441,
14.029303,-0.3872,-1.5387,-1.1658,0.7780,-2.2546,-2.4037,-0.7915,1.7886,0.3441,
14.030872,0.1481,-1.1955,-0.1780,0.7780,-2.2546,-2.4037,-0.7915,1.7886,0.3441,
14.032039,0.1486,-0.9263,0.2673,0.7780,-2.2546,-2.4037,-0.7915,1.7886,0.3441,
14.033108,-0.2880,-0.9346,-0.3395,0.7780,-2.2546,-2.4037,-0.7915,1.7886,0.3441,
14.064310,-0.2880,-0.9346,-0.3395,0.7780,-2.2546,-2.4037,-0.5102,-0.0767,0.3292,
14.066641,-0.2880,-0.9346,-0.3395,0.8940,-2.2557,-2.1753,-0.5102,-0.0767,0.3292,
14.104637,-0.2880,-0.9346,-0.3395,0.8940,-2.2557,-2.1753,-0.3504,-0.2887,0.2813,
14.106594,-0.2880,-0.9346,-0.3395,1.1904,0.9077,-1.8467,-0.3504,-0.2887,0.2813,
14.108460,-0.0601,-0.8618,-0.4849,1.1904,0.9077,-1.8467,-0.3504,-0.2887,0.2813,
14.109658,0.3164,-0.8808,-0.1978,1.1904,0.9077,-1.8467,-0.3504,-0.2887,0.2813,
14.110967,0.0667,-1.0267,-0.1133,1.1904,0.9077,-1.8467,-0.3504,-0.2887,0.2813,
14.112076,-0.1099,-1.0819,-0.0732,1.1904,0.9077,-1.8467,-0.3504,-0.2887,0.2813,
14.143776,-0.1099,-1.0819,-0.0732,1.1904,0.9077,-1.8467,0.1364,0.1737,0.0810,
14.145930,-0.1099,-1.0819,-0.0732,1.1910,0.8963,-1.8583,0.1364,0.1737,0.0810,
14.184003,-0.1099,-1.0819,-0.0732,1.1910,0.8963,-1.8583,0.3697,0.4294,-0.0276,
14.186229,-0.1099,-1.0819,-0.0732,1.2837,-0.6593,0.1401,0.3697,0.4294,-0.0276,
14.187549,0.0572,-1.0550,-0.1866,1.2837,-0.6593,0.1401,0.3697,0.4294,-0.0276,
14.188677,0.1022,-1.0306,-0.3173,1.2837,-0.6593,0.1401,0.3697,0.4294,-0.0276,
14.189961,-0.0168,-1.0416,-0.2164,1.2837,-0.6593,0.1401,0.3697,0.4294,-0.0276,
14.191197,-0.0510,-1.0836,-0.0737,1.2837,-0.6593,0.1401,0.3697,0.4294,-0.0276,
14.222805,-0.0510,-1.0836,-0.0737,1.2999,-0.5858,-0.8839,0.3697,0.4294,-0.0276,
14.225233,-0.0510,-1.0836,-0.0737,1.2999,-0.5858,-0.8839,0.7244,0.0981,-0.0596,
14.264535,-0.0510,-1.0836,-0.0737,1.2999,-0.5858,-0.8839,1.3156,-0.1704,0.0501,
14.267347,-0.0510,-1.0836,-0.0737,1.4423,-0.6206,-0.9736,1.3156,-0.1704,0.0501,
14.268768,-0.0251,-1.1229,-0.0620,1.4423,-0.6206,-0.9736,1.3156,-0.1704,0.0501,
14.269778,0.0472,-1.0792,-0.1634,1.4423,-0.6206,-0.9736,1.3156,-0.1704,0.0501,
14.271026,0.0557,-0.9803,-0.2565,1.4423,-0.6206,-0.9736,1.3156,-0.1704,0.0501,
14.272184,-0.0723,-0.9074,-0.2838,1.4423,-0.6206,-0.9736,1.3156,-0.1704,0.0501,
14.302441,-0.0723,-0.9074,-0.2838,1.4423,-0.6206,-0.9736,1.1803,-0.5837,0.3761,
14.305218,-0.0723,-0.9074,-0.2838,1.5689,-0.6123,-1.4356,1.1803,-0.5837,0.3761,
14.342181,-0.0723,-0.9074,-0.2838,1.5689,-0.6123,-1.4356,0.9108,-0.8149,0.4965,
14.344628,-0.0723,-0.9074,-0.2838,1.0301,1.1829,-2.7020,0.9108,-0.8149,0.4965,
14.346792,-0.0860,-0.8488,-0.2675,1.0301,1.1829,-2.7020,0.9108,-0.8149,0.4965,
14.348152,0.0184,-0.8613,-0.2103,1.0301,1.1829,-2.7020,0.9108,-0.8149,0.4965,
14.349138,0.1454,-0.9297,-0.2020,1.0301,1.1829,-2.7020,0.9108,-0.8149,0.4965,
14.353695,0.2514,-0.9900,-0.2765,1.0301,1.1829,-2.7020,0.9108,-0.8149,0.4965,
14.383505,0.2514,-0.9900,-0.2765,1.0301,1.1829,-2.7020,0.7628,-0.1363,0.2163,
14.385728,0.2514,-0.9900,-0.2765,1.0936,1.1394,-2.9538,0.7628,-0.1363,0.2163,
14.421412,0.2514,-0.9900,-0.2765,1.0936,1.1394,-2.9538,-0.0128,-0.2088,-0.0298,
14.423909,0.2514,-0.9900,-0.2765,3.6192,0.2529,-2.8684,-0.0128,-0.2088,-0.0298,
14.425277,0.2600,-0.9685,-0.2694,3.6192,0.2529,-2.8684,-0.0128,-0.2088,-0.0298,
14.426824,0.1916,-0.9294,-0.1495,3.6192,0.2529,-2.8684,-0.0128,-0.2088,-0.0298,
14.428172,0.1205,-0.9688,-0.0288,3.6192,0.2529,-2.8684,-0.0128,-0.2088,-0.0298,
14.429267,0.0763,-1.0394,0.0467,3.6192,0.2529,-2.8684,-0.0128,-0.2088,-0.0298,
14.461053,0.0763,-1.0394,0.0467,3.6192,0.2529,-2.8684,-0.4570,-0.5614,-0.1736,
14.463362,0.0763,-1.0394,0.0467,2.6230,0.1062,-0.6993,-0.4570,-0.5614,-0.1736,
14.500768,0.0763,-1.0394,0.0467,2.6230,0.1062,-0.6993,-0.5731,-0.6817,-0.2524,
14.502924,0.0763,-1.0394,0.0467,0.1945,-0.3724,0.5281,-0.5731,-0.6817,-0.2524,
14.506053,0.0032,-1.0479,0.0719,0.1945,-0.3724,0.5281,-0.5731,-0.6817,-0.2524,
14.507490,-0.0999,-1.0088,0.0760,0.1945,-0.3724,0.5281,-0.5731,-0.6817,-0.2524,
14.508502,-0.2262,-1.0345,0.0423,0.1945,-0.3724,0.5281,-0.5731,-0.6817,-0.2524,
14.509622,-0.2956,-1.0636,-0.0486,0.1945,-0.3724,0.5281,-0.5731,-0.6817,-0.2524,
14.540327,-0.2956,-1.0636,-0.0486,0.2062,-0.3694,0.7931,-0.5731,-0.6817,-0.2524,
14.543153,-0.2956,-1.0636,-0.0486,0.2062,-0.3694,0.7931,-0.8394,-0.9108,0.0352,
14.581704,-0.2956,-1.0636,-0.0486,0.2062,-0.3694,0.7931,-1.5009,-1.2879,0.3175,
14.583728,-0.2956,-1.0636,-0.0486,-1.1628,-0.7500,-0.4987,-1.5009,-1.2879,0.3175,
14.585174,-0.2851,-1.0724,-0.1414,-1.1628,-0.7500,-0.4987,-1.5009,-1.2879,0.3175,
14.586329,-0.2113,-1.0628,-0.1739,-1.1628,-0.7500,-0.4987,-1.5009,-1.2879,0.3175,
14.587584,-0.1473,-1.0636,-0.1783,-1.1628,-0.7500,-0.4987,-1.5009,-1.2879,0.3175,
14.588590,-0.1255,-1.0362,-0.1065,-1.1628,-0.7500,-0.4987,-1.5009,-1.2879,0.3175,
14.620658,-0.1255,-1.0362,-0.1065,-1.1628,-0.7500,-0.4987,-2.0368,-1.0610,0.1321,
14.623144,-0.1255,-1.0362,-0.1065,-1.0515,-0.8281,0.2154,-2.0368,-1.0610,0.1321,
14.659161,-0.1255,-1.0362,-0.1065,-1.0515,-0.8281,0.2154,-2.3265,0.0128,-0.1033,
14.662170,-0.1255,-1.0362,-0.1065,-0.3496,-0.8761,0.8766,-2.3265,0.0128,-0.1033,
14.663551,-0.2929,-1.0682,-0.1416,-0.3496,-0.8761,0.8766,-2.3265,0.0128,-0.1033,
14.665089,-0.4490,-1.0741,-0.2213,-0.3496,-0.8761,0.8766,-2.3265,0.0128,-0.1033,
14.666537,-0.5225,-1.0616,-0.1219,-0.3496,-0.8761,0.8766,-2.3265,0.0128,-0.1033,
14.667716,-0.4881,-1.1605,-0.0989,-0.3496,-0.8761,0.8766,-2.3265,0.0128,-0.1033,
14.699885,-0.4881,-1.1605,-0.0989,-0.3496,-0.8761,0.8766,-1.8972,0.8970,-0.0798,
14.702096,-0.4881,-1.1605,-0.0989,-3.3395,-1.4646,1.5556,-1.8972,0.8970,-0.0798,
14.738604,-0.3503,-1.1820,-0.0686,-3.3395,-1.4646,1.5556,-1.8972,0.8970,-0.0798,
14.741221,-0.1260,-1.1325,-0.1077,-3.3395,-1.4646,1.5556,-1.8972,0.8970,-0.0798,
14.742273,0.0247,-1.0885,-0.1434,-3.3395,-1.4646,1.5556,-1.8972,0.8970,-0.0798,
14.743515,0.0247,-1.0885,-0.1434,-3.3395,-1.4646,1.5556,-1.2250,0.7095,-0.0735,
14.744865,0.0247,-1.0885,-0.1434,-0.1623,-1.9340,2.4014,-1.2250,0.7095,-0.0735,
14.777977,0.0247,-1.0885,-0.1434,-0.1623,-1.9340,2.4014,-0.8202,-0.5337,-0.2567,
14.779861,0.0247,-1.0885,-0.1434,0.7895,-0.3022,2.0010,-0.8202,-0.5337,-0.2567,
14.817748,0.0247,-1.0885,-0.1434,0.7895,-0.3022,2.0010,-0.3419,-1.1121,-0.4101,
14.820738,0.0247,-1.0885,-0.1434,0.7934,-0.3261,2.0326,-0.3419,-1.1121,-0.4101,
14.821964,0.0206,-1.0020,-0.1724,0.7934,-0.3261,2.0326,-0.3419,-1.1121,-0.4101,
14.823100,-0.0354,-0.9390,-0.1653,0.7934,-0.3261,2.0326,-0.3419,-1.1121,-0.4101,
14.824351,-0.1365,-0.9324,-0.1766,0.7934,-0.3261,2.0326,-0.3419,-1.1121,-0.4101,
14.825323,-0.2406,-0.9272,-0.1636,0.7934,-0.3261,2.0326,-0.3419,-1.1121,-0.4101,
14.826433,-0.3503,-0.9162,-0.2403,0.7934,-0.3261,2.0326,-0.3419,-1.1121,-0.4101,
14.857352,-0.3503,-0.9162,-0.2403,0.7934,-0.3261,2.0326,0.1992,-0.5230,-0.4452,
14.859513,-0.3503,-0.9162,-0.2403,0.6977,-0.2705,1.9023,0.1992,-0.5230,-0.4452,
14.896429,-0.3503,-0.9162,-0.2403,0.6977,-0.2705,1.9023,0.5401,-0.2514,-0.4484,
14.898778,-0.3503,-0.9162,-0.2403,-1.9987,0.4437,1.0946,0.5401,-0.2514,-0.4484,
14.900110,-0.3571,-0.8378,-0.2885,-1.9987,0.4437,1.0946,0.5401,-0.2514,-0.4484,
14.901166,-0.2308,-0.7430,-0.2228,-1.9987,0.4437,1.0946,0.5401,-0.2514,-0.4484,
14.902144,-0.1282,-0.6883,-0.1602,-1.9987,0.4437,1.0946,0.5401,-0.2514,-0.4484,
14.904417,-0.0615,-0.6348,-0.1453,-1.9987,0.4437,1.0946,0.5401,-0.2514,-0.4484,
14.936602,-0.0615,-0.6348,-0.1453,-1.9987,0.4437,1.0946,0.8959,-0.4250,-0.5912,
14.939080,-0.0615,-0.6348,-0.1453,-0.4318,2.5469,1.2633,0.8959,-0.4250,-0.5912,
14.976109,-0.0615,-0.6348,-0.1453,-0.4318,2.5469,1.2633,0.9534,-0.3835,-0.6327,
14.979347,-0.0615,-0.6348,-0.1453,-0.2219,3.1051,-0.1731,0.9534,-0.3835,-0.6327,
14.980797,-0.0454,-0.5977,-0.1795,-0.2219,3.1051,-0.1731,0.9534,-0.3835,-0.6327,
14.982088,-0.1182,-0.5996,-0.2631,-0.2219,3.1051,-0.1731,0.9534,-0.3835,-0.6327,
14.983147,-0.1351,-0.7208,-0.4140,-0.2219,3.1051,-0.1731,0.9534,-0.3835,-0.6327,
14.984490,-0.1644,-0.9246,-0.6515,-0.2219,3.1051,-0.1731,0.9534,-0.3835,-0.6327,
15.015194,-0.1644,-0.9246,-0.6515,-0.2219,3.1051,-0.1731,0.3569,-0.0362,-0.4623,
15.017641,-0.1644,-0.9246,-0.6515,-0.3839,3.1011,-0.3021,0.3569,-0.0362,-0.4623,
15.056177,-0.2377,-1.1532,-0.4551,-0.3839,3.1011,-0.3021,0.3569,-0.0362,-0.4623,
15.058345,-0.3667,-1.2996,0.0675,-0.3839,3.1011,-0.3021,0.3569,-0.0362,-0.4623,
15.059414,-0.7417,-1.3018,-0.5338,-0.3839,3.1011,-0.3021,0.3569,-0.0362,-0.4623,
15.060767,-0.7417,-1.3018,-0.5338,-0.3839,3.1011,-0.3021,0.4485,0.0682,-0.0735,
15.061650,-0.7417,-1.3018,-0.5338,-1.9206,-1.5941,-1.0459,0.4485,0.0682,-0.0735,
15.095102,-0.7417,-1.3018,-0.5338,-1.9206,-1.5941,-1.0459,0.2184,-0.4868,0.5732,
15.097727,-0.7417,-1.3018,-0.5338,-3.7562,-3.1485,-1.9874,0.2184,-0.4868,0.5732,
15.135367,-0.7417,-1.3018,-0.5338,-3.7562,-3.1485,-1.9874,0.3963,0.6967,0.2621,
15.138210,-0.7417,-1.3018,-0.5338,-3.6565,-3.0714,-2.0752,0.3963,0.6967,0.2621,
15.139576,-0.6884,-1.3145,-0.6967,-3.6565,-3.0714,-2.0752,0.3963,0.6967,0.2621,
15.141011,0.0008,-1.2544,-0.0779,-3.6565,-3.0714,-2.0752,0.3963,0.6967,0.2621,
15.142033,0.2527,-1.0616,0.1132,-3.6565,-3.0714,-2.0752,0.3963,0.6967,0.2621,
