
time,gFx,gFy,gFz,ax,ay,az,wx,wy,wz,
0.100520,0.0000,0.0000,0.0000,0.5948,0.5306,-0.3818,0.0000,0.0000,0.0000,
0.160131,0.0000,0.0000,0.0000,0.6530,0.6198,-0.4058,0.0000,0.0000,0.0000,
0.220505,0.0000,0.0000,0.0000,0.7141,0.7260,-0.4332,0.0000,0.0000,0.0000,
0.279586,0.0000,0.0000,0.0000,0.8289,0.8335,-0.4561,0.0000,0.0000,0.0000,
0.340330,0.0000,0.0000,0.0000,0.8289,0.8335,-0.4561,-0.3006,-0.0660,-0.0654,
0.341713,0.0000,0.0000,0.0000,0.9160,1.0121,-0.4961,-0.3006,-0.0660,-0.0654,
0.399732,0.0000,0.0000,0.0000,0.9160,1.0121,-0.4961,-0.3874,-0.1332,-0.0892,
0.400833,0.0000,0.0000,0.0000,0.9230,1.2772,-0.5567,-0.3874,-0.1332,-0.0892,
0.428286,-0.6579,-0.7469,0.0638,0.9230,1.2772,-0.5567,-0.3874,-0.1332,-0.0892,
0.460304,-0.6579,-0.7469,0.0638,0.9230,1.2772,-0.5567,-0.3794,-0.0874,-0.0446,
0.462349,-0.6579,-0.7469,0.0638,-5.7825,-9.0971,-8.9963,-0.3794,-0.0874,-0.0446,
0.487752,-0.6448,-0.7547,0.0547,-5.7825,-9.0971,-8.9963,-0.3794,-0.0874,-0.0446,
0.488762,-0.6328,-0.7510,0.0369,-5.7825,-9.0971,-8.9963,-0.3794,-0.0874,-0.0446,
0.489354,-0.6369,-0.7591,0.0198,-5.7825,-9.0971,-8.9963,-0.3794,-0.0874,-0.0446,
0.521872,-0.6369,-0.7591,0.0198,-5.7825,-9.0971,-8.9963,-0.4656,-0.0764,-0.0684,
0.523035,-0.6369,-0.7591,0.0198,-5.5560,-8.9120,-9.4772,-0.4656,-0.0764,-0.0684,
0.547740,-0.6389,-0.7625,0.0054,-5.5560,-8.9120,-9.4772,-0.4656,-0.0764,-0.0684,
0.548606,-0.6450,-0.7632,0.0034,-5.5560,-8.9120,-9.4772,-0.4656,-0.0764,-0.0684,
0.549143,-0.6333,-0.7566,0.0176,-5.5560,-8.9120,-9.4772,-0.4656,-0.0764,-0.0684,
0.579699,-0.6333,-0.7566,0.0176,-5.5560,-8.9120,-9.4772,-0.3690,-0.0257,-0.0843,
0.580510,-0.6333,-0.7566,0.0176,-5.4921,-8.5545,-9.5417,-0.3690,-0.0257,-0.0843,
0.606925,-0.6240,-0.7606,0.0315,-5.4921,-8.5545,-9.5417,-0.3690,-0.0257,-0.0843,
0.608894,-0.5996,-0.7637,0.0046,-5.4921,-8.5545,-9.5417,-0.3690,-0.0257,-0.0843,
0.609419,-0.5971,-0.7784,-0.0481,-5.4921,-8.5545,-9.5417,-0.3690,-0.0257,-0.0843,
0.639597,-0.5971,-0.7784,-0.0481,-5.4921,-8.5545,-9.5417,-0.4222,-0.2933,-0.2291,
0.641010,-0.5971,-0.7784,-0.0481,-5.1491,-8.5043,-10.2138,-0.4222,-0.2933,-0.2291,
0.666588,-0.6088,-0.7799,-0.1065,-5.1491,-8.5043,-10.2138,-0.4222,-0.2933,-0.2291,
0.667876,-0.6247,-0.7708,-0.1656,-5.1491,-8.5043,-10.2138,-0.4222,-0.2933,-0.2291,
0.668821,-0.6467,-0.7652,-0.1932,-5.1491,-8.5043,-10.2138,-0.4222,-0.2933,-0.2291,
0.700002,-0.6467,-0.7652,-0.1932,-5.1491,-8.5043,-10.2138,-0.8620,-0.7569,-0.2749,
0.703046,-0.6467,-0.7652,-0.1932,-5.8588,-7.9281,-11.6794,-0.8620,-0.7569,-0.2749,
0.728448,-0.6543,-0.7447,-0.1825,-5.8588,-7.9281,-11.6794,-0.8620,-0.7569,-0.2749,
0.729915,-0.6599,-0.7349,-0.1346,-5.8588,-7.9281,-11.6794,-0.8620,-0.7569,-0.2749,
0.730754,-0.6746,-0.7496,-0.0970,-5.8588,-7.9281,-11.6794,-0.8620,-0.7569,-0.2749,
0.760066,-0.6746,-0.7496,-0.0970,-5.8588,-7.9281,-11.6794,-0.5792,0.0323,-0.0483,
0.761602,-0.6746,-0.7496,-0.0970,-6.3684,-7.2286,-10.7535,-0.5792,0.0323,-0.0483,
0.787064,-0.6655,-0.7718,-0.0760,-6.3684,-7.2286,-10.7535,-0.5792,0.0323,-0.0483,
0.788317,-0.6462,-0.7830,-0.0809,-6.3684,-7.2286,-10.7535,-0.5792,0.0323,-0.0483,
0.789053,-0.6142,-0.7742,-0.0909,-6.3684,-7.2286,-10.7535,-0.5792,0.0323,-0.0483,
0.819216,-0.6142,-0.7742,-0.0909,-6.3684,-7.2286,-10.7535,0.0977,0.3713,0.0043,
0.820616,-0.6142,-0.7742,-0.0909,-5.5931,-7.2372,-10.6818,0.0977,0.3713,0.0043,
0.847270,-0.5935,-0.7679,-0.0980,-5.5931,-7.2372,-10.6818,0.0977,0.3713,0.0043,
0.849147,-0.5964,-0.7772,-0.1121,-5.5931,-7.2372,-10.6818,0.0977,0.3713,0.0043,
0.850108,-0.6044,-0.7755,-0.1275,-5.5931,-7.2372,-10.6818,0.0977,0.3713,0.0043,
0.879823,-0.6044,-0.7755,-0.1275,-5.5931,-7.2372,-10.6818,0.1300,0.2821,-0.1649,
0.881357,-0.6044,-0.7755,-0.1275,-5.2200,-7.2883,-11.0262,0.1300,0.2821,-0.1649,
0.906753,-0.6335,-0.7686,-0.1336,-5.2200,-7.2883,-11.0262,0.1300,0.2821,-0.1649,
0.908076,-0.6501,-0.7515,-0.1234,-5.2200,-7.2883,-11.0262,0.1300,0.2821,-0.1649,
0.909060,-0.6628,-0.7325,-0.1004,-5.2200,-7.2883,-11.0262,0.1300,0.2821,-0.1649,
0.939556,-0.6628,-0.7325,-0.1004,-5.2200,-7.2883,-11.0262,-0.1949,0.1355,-0.1863,
0.941187,-0.6628,-0.7325,-0.1004,-5.6191,-6.7915,-10.7437,-0.1949,0.1355,-0.1863,
0.966984,-0.6760,-0.7259,-0.0860,-5.6191,-6.7915,-10.7437,-0.1949,0.1355,-0.1863,
0.968498,-0.6885,-0.7334,-0.0865,-5.6191,-6.7915,-10.7437,-0.1949,0.1355,-0.1863,
0.969583,-0.6799,-0.7479,-0.1033,-5.6191,-6.7915,-10.7437,-0.1949,0.1355,-0.1863,
0.998937,-0.6799,-0.7479,-0.1033,-5.6191,-6.7915,-10.7437,-0.4161,-0.1394,-0.0794,
1.001308,-0.6799,-0.7479,-0.1033,-5.7444,-6.6956,-10.7557,-0.4161,-0.1394,-0.0794,
1.027025,-0.6445,-0.7640,-0.0994,-5.7444,-6.6956,-10.7557,-0.4161,-0.1394,-0.0794,
1.028809,-0.6062,-0.7845,-0.0999,-5.7444,-6.6956,-10.7557,-0.4161,-0.1394,-0.0794,
1.030136,-0.5839,-0.7882,-0.1063,-5.7444,-6.6956,-10.7557,-0.4161,-0.1394,-0.0794,
1.060839,-0.5839,-0.7882,-0.1063,-5.7444,-6.6956,-10.7557,-0.2695,0.0531,-0.1637,
1.062442,-0.5839,-0.7882,-0.1063,-4.7807,-6.7908,-10.7581,-0.2695,0.0531,-0.1637,
1.086996,-0.5761,-0.7935,-0.1158,-4.7807,-6.7908,-10.7581,-0.2695,0.0531,-0.1637,
1.088466,-0.5820,-0.7992,-0.1236,-4.7807,-6.7908,-10.7581,-0.2695,0.0531,-0.1637,
1.089717,-0.5856,-0.7913,-0.1319,-4.7807,-6.7908,-10.7581,-0.2695,0.0531,-0.1637,
1.119219,-0.5856,-0.7913,-0.1319,-4.7807,-6.7908,-10.7581,0.0115,0.1649,-0.2718,
1.120592,-0.5856,-0.7913,-0.1319,-4.7049,-6.6651,-10.9837,0.0115,0.1649,-0.2718,
1.146833,-0.5954,-0.7850,-0.1393,-4.7049,-6.6651,-10.9837,0.0115,0.1649,-0.2718,
1.148578,-0.6032,-0.7767,-0.1461,-4.7049,-6.6651,-10.9837,0.0115,0.1649,-0.2718,
1.149731,-0.6123,-0.7718,-0.1576,-4.7049,-6.6651,-10.9837,0.0115,0.1649,-0.2718,
1.179614,-0.6123,-0.7718,-0.1576,-4.7049,-6.6651,-10.9837,0.0415,0.1746,-0.3745,
1.181276,-0.6123,-0.7718,-0.1576,-4.8203,-6.4158,-11.2118,0.0415,0.1746,-0.3745,
1.207105,-0.6203,-0.7642,-0.1722,-4.8203,-6.4158,-11.2118,0.0415,0.1746,-0.3745,
1.208924,-0.6303,-0.7554,-0.1842,-4.8203,-6.4158,-11.2118,0.0415,0.1746,-0.3745,
1.210094,-0.6382,-0.7562,-0.1886,-4.8203,-6.4158,-11.2118,0.0415,0.1746,-0.3745,
1.239643,-0.6382,-0.7562,-0.1886,-4.8203,-6.4158,-11.2118,-0.0996,0.0635,-0.3445,
1.242595,-0.6382,-0.7562,-0.1886,-4.9890,-6.1638,-11.4928,-0.0996,0.0635,-0.3445,
1.267081,-0.6445,-0.7674,-0.1881,-4.9890,-6.1638,-11.4928,-0.0996,0.0635,-0.3445,
1.269337,-0.6340,-0.7818,-0.1776,-4.9890,-6.1638,-11.4928,-0.0996,0.0635,-0.3445,
1.270423,-0.6103,-0.7828,-0.1649,-4.9890,-6.1638,-11.4928,-0.0996,0.0635,-0.3445,
1.299147,-0.6103,-0.7828,-0.1649,-4.9890,-6.1638,-11.4928,-0.0789,0.2272,-0.3745,
1.300823,-0.6103,-0.7828,-0.1649,-4.6093,-6.2677,-11.2243,-0.0789,0.2272,-0.3745,
1.327616,-0.5925,-0.7845,-0.1632,-4.6093,-6.2677,-11.2243,-0.0789,0.2272,-0.3745,
1.330603,-0.6174,-0.8177,-0.1815,-4.6093,-6.2677,-11.2243,-0.0789,0.2272,-0.3745,
1.332806,-0.6616,-0.8659,-0.1974,-4.6093,-6.2677,-11.2243,-0.0789,0.2272,-0.3745,
1.359493,-0.6616,-0.8659,-0.1974,-4.6093,-6.2677,-11.2243,-0.0477,-0.1723,-0.2010,
1.361590,-0.6616,-0.8659,-0.1974,-5.0727,-6.9712,-11.5203,-0.0477,-0.1723,-0.2010,
1.386893,-0.6736,-0.8888,-0.1998,-5.0727,-6.9712,-11.5203,-0.0477,-0.1723,-0.2010,
1.388655,-0.6426,-0.8759,-0.1849,-5.0727,-6.9712,-11.5203,-0.0477,-0.1723,-0.2010,
1.389988,-0.6443,-0.8998,-0.1881,-5.0727,-6.9712,-11.5203,-0.0477,-0.1723,-0.2010,
1.419276,-0.6443,-0.8998,-0.1881,-5.0727,-6.9712,-11.5203,-0.1595,-0.0874,-0.1118,
1.422103,-0.6443,-0.8998,-0.1881,-4.9348,-7.1588,-11.4099,-0.1595,-0.0874,-0.1118,
1.448829,-0.6418,-0.9128,-0.1788,-4.9348,-7.1588,-11.4099,-0.1595,-0.0874,-0.1118,
1.451450,-0.6003,-0.8866,-0.1561,-4.9348,-7.1588,-11.4099,-0.1595,-0.0874,-0.1118,
1.453607,-0.5573,-0.8641,-0.1334,-4.9348,-7.1588,-11.4099,-0.1595,-0.0874,-0.1118,
1.480714,-0.5573,-0.8641,-0.1334,-4.9348,-7.1588,-11.4099,0.1264,0.0885,0.1307,
1.483143,-0.5573,-0.8641,-0.1334,-4.0496,-6.6973,-10.8487,0.1264,0.0885,0.1307,
1.507455,-0.5392,-0.8710,-0.1197,-4.0496,-6.6973,-10.8487,0.1264,0.0885,0.1307,
1.509970,-0.5287,-0.8861,-0.1063,-4.0496,-6.6973,-10.8487,0.1264,0.0885,0.1307,
1.511365,-0.5133,-0.8993,-0.0916,-4.0496,-6.6973,-10.8487,0.1264,0.0885,0.1307,
1.539415,-0.5133,-0.8993,-0.0916,-4.0496,-6.6973,-10.8487,0.9205,0.3732,0.4465,
1.542838,-0.5133,-0.8993,-0.0916,-3.4324,-7.2586,-10.4476,0.9205,0.3732,0.4465,
1.568770,-0.4886,-0.9159,-0.0745,-3.4324,-7.2586,-10.4476,0.9205,0.3732,0.4465,
1.571923,-0.4085,-0.9267,-0.0032,-3.4324,-7.2586,-10.4476,0.9205,0.3732,0.4465,
1.574517,-0.3599,-0.9328,0.0120,-3.4324,-7.2586,-10.4476,0.9205,0.3732,0.4465,
1.599474,-0.3599,-0.9328,0.0120,-3.4324,-7.2586,-10.4476,1.7299,0.1355,0.2217,
1.602140,-0.3599,-0.9328,0.0120,-1.7022,-8.3639,-9.4867,1.7299,0.1355,0.2217,
1.615171,-0.3337,-0.9369,-0.0779,-1.7022,-8.3639,-9.4867,1.7299,0.1355,0.2217,
1.618706,-0.3467,-0.9538,-0.1432,-1.7022,-8.3639,-9.4867,1.7299,0.1355,0.2217,
1.659673,-0.3467,-0.9538,-0.1432,-1.7022,-8.3639,-9.4867,0.9663,0.1435,-0.0531,
1.662104,-0.3467,-0.9538,-0.1432,-1.4810,-9.3238,-11.0205,0.9663,0.1435,-0.0531,
1.719802,-0.4735,-0.8334,-0.1043,-1.4810,-9.3238,-11.0205,0.9663,0.1435,-0.0531,
1.722337,-0.4735,-0.8334,-0.1043,-1.4810,-9.3238,-11.0205,0.2015,-0.3196,-0.0727,
1.724638,-0.4735,-0.8334,-0.1043,-2.6927,-8.4501,-10.6295,0.2015,-0.3196,-0.0727,
1.780804,-0.4561,-0.8368,-0.0420,-2.6927,-8.4501,-10.6295,0.2015,-0.3196,-0.0727,
1.783550,-0.4561,-0.8368,-0.0420,-2.6927,-8.4501,-10.6295,-0.2444,-0.2059,-0.0672,
1.785521,-0.4561,-0.8368,-0.0420,-2.6595,-8.3663,-10.0485,-0.2444,-0.2059,-0.0672,
1.839642,-0.4075,-0.9032,0.0247,-2.6595,-8.3663,-10.0485,-0.2444,-0.2059,-0.0672,
1.842221,-0.4075,-0.9032,0.0247,-2.6595,-8.3663,-10.0485,-0.0422,-0.0648,-0.0226,
1.843807,-0.4075,-0.9032,0.0247,-2.2498,-8.8379,-9.4086,-0.0422,-0.0648,-0.0226,
1.899682,-0.3928,-0.9216,0.0364,-2.2498,-8.8379,-9.4086,-0.0422,-0.0648,-0.0226,
1.902674,-0.3928,-0.9216,0.0364,-2.2498,-8.8379,-9.4086,0.1679,0.1221,-0.0287,
1.904688,-0.3928,-0.9216,0.0364,-2.0488,-8.9736,-9.2829,0.1679,0.1221,-0.0287,
1.959773,-0.4356,-0.8839,0.0112,-2.0488,-8.9736,-9.2829,0.1679,0.1221,-0.0287,
1.962838,-0.4356,-0.8839,0.0112,-2.0488,-8.9736,-9.2829,0.0842,0.0616,-0.0568,
1.965286,-0.4356,-0.8839,0.0112,-2.3715,-8.6120,-9.5111,0.0842,0.0616,-0.0568,
2.021008,-0.4253,-0.8856,-0.0056,-2.3715,-8.6120,-9.5111,0.0842,0.0616,-0.0568,
2.023665,-0.4253,-0.8856,-0.0056,-2.3715,-8.6120,-9.5111,0.0622,0.0415,-0.0086,
2.025381,-0.4253,-0.8856,-0.0056,-2.2184,-8.6008,-9.6656,0.0622,0.0415,-0.0086,
2.079851,-0.4097,-0.8871,0.0071,-2.2184,-8.6008,-9.6656,0.0622,0.0415,-0.0086,
2.082984,-0.4097,-0.8871,0.0071,-2.2184,-8.6008,-9.6656,0.0323,0.0256,0.0367,
2.085307,-0.4097,-0.8871,0.0071,-2.0198,-8.5679,-9.5313,0.0323,0.0256,0.0367,
2.139348,-0.4146,-0.8878,0.0066,-2.0198,-8.5679,-9.5313,0.0323,0.0256,0.0367,
2.141552,-0.4146,-0.8878,0.0066,-2.0198,-8.5679,-9.5313,-0.0544,-0.0050,0.0739,
2.143687,-0.4146,-0.8878,0.0066,-2.0354,-8.5071,-9.5282,-0.0544,-0.0050,0.0739,
2.202015,-0.3987,-0.8712,-0.0203,-2.0354,-8.5071,-9.5282,-0.0544,-0.0050,0.0739,
2.205044,-0.3987,-0.8712,-0.0203,-2.0354,-8.5071,-9.5282,-0.0355,-0.0367,0.0929,
2.206561,-0.3987,-0.8712,-0.0203,-1.8600,-8.2587,-9.7852,-0.0355,-0.0367,0.0929,
2.259400,-0.4026,-0.8500,-0.0596,-1.8600,-8.2587,-9.7852,-0.0355,-0.0367,0.0929,
2.261839,-0.4026,-0.8500,-0.0596,-1.8600,-8.2587,-9.7852,-0.2878,-0.0654,0.1814,
2.263689,-0.4026,-0.8500,-0.0596,-1.9069,-7.9240,-10.1680,-0.2878,-0.0654,0.1814,
2.320165,-0.3621,-0.8231,-0.0379,-1.9069,-7.9240,-10.1680,-0.2878,-0.0654,0.1814,
2.322939,-0.3621,-0.8231,-0.0379,-1.9069,-7.9240,-10.1680,-0.3361,-0.0569,0.2254,
2.325069,-0.3621,-0.8231,-0.0379,-1.5006,-7.4171,-9.9396,-0.3361,-0.0569,0.2254,
2.384587,-0.4879,-0.9489,-0.0948,-1.5006,-7.4171,-9.9396,-0.3361,-0.0569,0.2254,
2.387714,-0.4879,-0.9489,-0.0948,-1.5006,-7.4171,-9.9396,-0.5254,0.1978,0.3060,
2.389586,-0.4879,-0.9489,-0.0948,-2.6849,-8.3955,-10.4662,-0.5254,0.1978,0.3060,
2.440087,-0.3865,-0.7960,-0.0191,-2.6849,-8.3955,-10.4662,-0.5254,0.1978,0.3060,
2.442976,-0.3865,-0.7960,-0.0191,-2.6849,-8.3955,-10.4662,-0.2713,0.0671,0.2627,
2.447398,-0.3865,-0.7960,-0.0191,-1.5286,-6.5855,-9.6520,-0.2713,0.0671,0.2627,
2.501138,-0.6184,-1.0225,-0.1524,-1.5286,-6.5855,-9.6520,-0.2713,0.0671,0.2627,
2.505338,-0.6184,-1.0225,-0.1524,-1.5286,-6.5855,-9.6520,-0.7502,0.2400,0.1875,
2.507732,-0.6184,-1.0225,-0.1524,-3.6571,-8.5499,-10.8873,-0.7502,0.2400,0.1875,
2.559428,-0.6218,-0.8876,0.1876,-3.6571,-8.5499,-10.8873,-0.7502,0.2400,0.1875,
2.561794,-0.6218,-0.8876,0.1876,-3.6571,-8.5499,-10.8873,-0.3470,-0.2524,0.1857,
2.563457,-0.6218,-0.8876,0.1876,-3.6811,-6.7500,-7.4647,-0.3470,-0.2524,0.1857,
2.619644,-0.5790,-0.8470,-0.1720,-3.6811,-6.7500,-7.4647,-0.3470,-0.2524,0.1857,
2.623523,-0.5790,-0.8470,-0.1720,-3.6811,-6.7500,-7.4647,-0.1363,-0.4167,0.1026,
2.625247,-0.5790,-0.8470,-0.1720,-3.2644,-6.2793,-10.9739,-0.1363,-0.4167,0.1026,
2.679974,-0.6477,-0.7598,-0.1874,-3.2644,-6.2793,-10.9739,-0.1363,-0.4167,0.1026,
2.682882,-0.6477,-0.7598,-0.1874,-3.2644,-6.2793,-10.9739,-0.6164,-0.7551,-0.1100,
2.685274,-0.6477,-0.7598,-0.1874,-4.2337,-5.1623,-11.1362,-0.6164,-0.7551,-0.1100,
2.739857,-0.8935,-0.8624,-0.1459,-4.2337,-5.1623,-11.1362,-0.6164,-0.7551,-0.1100,
2.742633,-0.8935,-0.8624,-0.1459,-4.2337,-5.1623,-11.1362,-0.1907,-0.6171,-0.5406,
2.744217,-0.8935,-0.8624,-0.1459,-7.0676,-5.7988,-10.7181,-0.1907,-0.6171,-0.5406,
2.801556,-0.7139,-0.5707,-0.0169,-7.0676,-5.7988,-10.7181,-0.1907,-0.6171,-0.5406,
2.804775,-0.7139,-0.5707,-0.0169,-7.0676,-5.7988,-10.7181,0.0225,-0.0208,0.0318,
2.807283,-0.7139,-0.5707,-0.0169,-5.5692,-2.8157,-9.4614,0.0225,-0.0208,0.0318,
2.859579,-0.5624,-0.7960,-0.0816,-5.5692,-2.8157,-9.4614,0.0225,-0.0208,0.0318,
2.862548,-0.5624,-0.7960,-0.0816,-5.5692,-2.8157,-9.4614,0.2797,0.5369,0.3934,
2.865991,-0.5624,-0.7960,-0.0816,-3.8216,-5.0672,-10.0648,0.2797,0.5369,0.3934,
2.919917,-0.4114,-0.8111,0.0186,-3.8216,-5.0672,-10.0648,0.2797,0.5369,0.3934,
2.924002,-0.4114,-0.8111,0.0186,-3.8216,-5.0672,-10.0648,0.5546,1.2675,0.3048,
2.927334,-0.4114,-0.8111,0.0186,-1.7696,-5.4080,-9.0156,0.5546,1.2675,0.3048,
2.980806,-0.7300,-0.7454,-0.0669,-1.7696,-5.4080,-9.0156,0.5546,1.2675,0.3048,
2.983225,-0.7300,-0.7454,-0.0669,-1.7696,-5.4080,-9.0156,1.2736,0.6627,-0.3635,
2.985629,-0.7300,-0.7454,-0.0669,-4.2796,-5.2425,-9.8022,1.2736,0.6627,-0.3635,
3.039285,-0.7359,-0.6792,-0.1478,-4.2796,-5.2425,-9.8022,1.2736,0.6627,-0.3635,
3.041857,-0.7359,-0.6792,-0.1478,-4.2796,-5.2425,-9.8022,-0.0166,-0.0135,-0.0702,
3.043571,-0.7359,-0.6792,-0.1478,-3.9956,-4.8967,-10.5442,-0.0166,-0.0135,-0.0702,
3.099956,-0.6335,-0.7781,-0.0601,-3.9956,-4.8967,-10.5442,-0.0166,-0.0135,-0.0702,
3.103169,-0.6335,-0.7781,-0.0601,-3.9956,-4.8967,-10.5442,-0.0416,-0.3623,0.0788,
3.106003,-0.6335,-0.7781,-0.0601,-3.1428,-5.7606,-9.7155,-0.0416,-0.3623,0.0788,
3.160845,-0.6047,-0.8131,-0.1270,-3.1428,-5.7606,-9.7155,-0.0416,-0.3623,0.0788,
3.163992,-0.6047,-0.8131,-0.1270,-3.1428,-5.7606,-9.7155,0.2595,-0.1387,-0.0061,
3.166297,-0.6047,-0.8131,-0.1270,-2.9526,-6.1163,-10.4047,0.2595,-0.1387,-0.0061,
3.221557,-0.6184,-0.7789,-0.0980,-2.9526,-6.1163,-10.4047,0.2595,-0.1387,-0.0061,
3.224592,-0.6184,-0.7789,-0.0980,-2.9526,-6.1163,-10.4047,0.1374,-0.0349,-0.1032,
3.227452,-0.6184,-0.7789,-0.0980,-3.0953,-5.8357,-10.1334,0.1374,-0.0349,-0.1032,
3.279971,-0.6956,-0.7755,-0.0713,-3.0953,-5.8357,-10.1334,0.1374,-0.0349,-0.1032,
3.282773,-0.6956,-0.7755,-0.0713,-3.0953,-5.8357,-10.1334,0.1270,-0.0459,0.0696,
3.284845,-0.6956,-0.7755,-0.0713,-3.8119,-5.7968,-9.8584,0.1270,-0.0459,0.0696,
3.341282,-0.6333,-0.8204,-0.0010,-3.8119,-5.7968,-9.8584,0.1270,-0.0459,0.0696,
3.344843,-0.6333,-0.8204,-0.0010,-3.8119,-5.7968,-9.8584,0.1765,-0.1870,0.4966,
3.346871,-0.6333,-0.8204,-0.0010,-3.2814,-6.3119,-9.2090,0.1765,-0.1870,0.4966,
3.399926,-0.4065,-0.8979,0.1827,-3.2814,-6.3119,-9.2090,0.1765,-0.1870,0.4966,
3.402853,-0.4065,-0.8979,0.1827,-3.2814,-6.3119,-9.2090,0.9119,0.3988,0.7135,
3.404897,-0.4065,-0.8979,0.1827,-0.9319,-7.3279,-7.4119,0.9119,0.3988,0.7135,
3.461442,-0.5153,-0.9628,0.0239,-0.9319,-7.3279,-7.4119,0.9119,0.3988,0.7135,
3.465699,-0.5153,-0.9628,0.0239,-0.9319,-7.3279,-7.4119,1.1331,1.0976,0.2987,
3.467809,-0.5153,-0.9628,0.0239,-1.5323,-8.6649,-8.8870,1.1331,1.0976,0.2987,
3.521241,-0.6272,-0.7769,0.0259,-1.5323,-8.6649,-8.8870,1.1331,1.0976,0.2987,
3.524808,-0.6272,-0.7769,0.0259,-1.5323,-8.6649,-8.8870,0.6181,0.4605,-0.1313,
3.527069,-0.6272,-0.7769,0.0259,-2.1758,-7.3010,-8.7077,0.6181,0.4605,-0.1313,
3.580850,-0.5864,-0.6321,-0.1065,-2.1758,-7.3010,-8.7077,0.6181,0.4605,-0.1313,
3.583863,-0.5864,-0.6321,-0.1065,-2.1758,-7.3010,-8.7077,-0.9121,-0.8425,-0.4960,
3.586312,-0.5864,-0.6321,-0.1065,-1.7233,-5.7758,-9.9775,-0.9121,-0.8425,-0.4960,
3.640190,-0.4327,-0.7952,0.1312,-1.7233,-5.7758,-9.9775,-0.9121,-0.8425,-0.4960,
3.643588,-0.4327,-0.7952,0.1312,-1.7233,-5.7758,-9.9775,-0.2401,-1.0153,-0.5266,
3.645626,-0.4327,-0.7952,0.1312,-0.7940,-6.7477,-7.8358,-0.2401,-1.0153,-0.5266,
3.702037,-0.3354,-0.9714,0.0213,-0.7940,-6.7477,-7.8358,-0.2401,-1.0153,-0.5266,
3.705557,-0.3354,-0.9714,0.0213,-0.7940,-6.7477,-7.8358,-0.1436,0.6639,-0.4759,
3.707891,-0.3354,-0.9714,0.0213,-0.0393,-8.2927,-8.9632,-0.1436,0.6639,-0.4759,
3.761357,-0.3799,-1.0097,0.0755,-0.0393,-8.2927,-8.9632,-0.1436,0.6639,-0.4759,
3.765279,-0.3799,-1.0097,0.0755,-0.0393,-8.2927,-8.9632,-0.0575,0.0219,-0.8228,
3.767728,-0.3799,-1.0097,0.0755,-0.2041,-8.3737,-8.2864,-0.0575,0.0219,-0.8228,
3.821205,-0.4292,-0.9172,0.0442,-0.2041,-8.3737,-8.2864,-0.0575,0.0219,-0.8228,
3.825179,-0.4292,-0.9172,0.0442,-0.2041,-8.3737,-8.2864,-0.0801,0.0867,-0.8949,
3.827214,-0.4292,-0.9172,0.0442,-0.6941,-7.1757,-8.5415,-0.0801,0.0867,-0.8949,
3.880873,-0.4556,-0.8553,-0.0537,-0.6941,-7.1757,-8.5415,-0.0801,0.0867,-0.8949,
3.884932,-0.4556,-0.8553,-0.0537,-0.6941,-7.1757,-8.5415,-0.1577,-0.2799,-0.6029,
3.887226,-0.4556,-0.8553,-0.0537,-1.0910,-6.3196,-9.5006,-0.1577,-0.2799,-0.6029,
3.941238,-0.4823,-0.8290,-0.0132,-1.0910,-6.3196,-9.5006,-0.1577,-0.2799,-0.6029,
3.945401,-0.4823,-0.8290,-0.0132,-1.0910,-6.3196,-9.5006,-0.3092,0.0018,-0.3134,
3.947708,-0.4823,-0.8290,-0.0132,-1.4955,-5.7550,-9.0804,-0.3092,0.0018,-0.3134,
4.002713,-0.4454,-0.7755,-0.0889,-1.4955,-5.7550,-9.0804,-0.3092,0.0018,-0.3134,
4.006658,-0.4454,-0.7755,-0.0889,-1.4955,-5.7550,-9.0804,-0.0489,0.7055,0.0764,
4.008575,-0.4454,-0.7755,-0.0889,-1.0360,-5.0807,-9.7454,-0.0489,0.7055,0.0764,
4.060096,-0.4664,-0.8087,-0.0963,-1.0360,-5.0807,-9.7454,-0.0489,0.7055,0.0764,
4.063654,-0.4664,-0.8087,-0.0963,-1.0360,-5.0807,-9.7454,-0.2963,0.6810,0.2621,
4.065835,-0.4664,-0.8087,-0.0963,-0.7232,-5.2847,-9.5686,-0.2963,0.6810,0.2621,
4.120224,-0.4388,-0.9164,0.0379,-0.7232,-5.2847,-9.5686,-0.2963,0.6810,0.2621,
4.124008,-0.4388,-0.9164,0.0379,-0.7232,-5.2847,-9.5686,-0.5456,0.8857,0.3500,
4.126327,-0.4388,-0.9164,0.0379,-0.0561,-6.1791,-8.0140,-0.5456,0.8857,0.3500,
4.181293,-0.4461,-1.0457,-0.1048,-0.0561,-6.1791,-8.0140,-0.5456,0.8857,0.3500,
4.185360,-0.4461,-1.0457,-0.1048,-0.0561,-6.1791,-8.0140,-0.5389,-0.0764,0.2676,
4.187579,-0.4461,-1.0457,-0.1048,0.2461,-7.2036,-9.1253,-0.5389,-0.0764,0.2676,
4.243854,-0.4722,-1.0193,-0.0344,0.2461,-7.2036,-9.1253,-0.5389,-0.0764,0.2676,
4.247268,-0.4722,-1.0193,-0.0344,0.2461,-7.2036,-9.1253,-0.2389,-0.0941,0.2321,
4.249131,-0.4722,-1.0193,-0.0344,-0.0607,-6.7163,-8.3750,-0.2389,-0.0941,0.2321,
4.299799,-0.4874,-0.7801,-0.1556,-0.0607,-6.7163,-8.3750,-0.2389,-0.0941,0.2321,
4.303099,-0.4874,-0.7801,-0.1556,-0.0607,-6.7163,-8.3750,0.1423,0.2913,0.0709,
4.305638,-0.4874,-0.7801,-0.1556,-0.0915,-4.3504,-9.4854,0.1423,0.2913,0.0709,
4.361136,-0.8336,-1.1678,-0.1444,-0.0915,-4.3504,-9.4854,0.1423,0.2913,0.0709,
4.364810,-0.8336,-1.1678,-0.1444,-0.0915,-4.3504,-9.4854,0.1404,-0.2475,-0.0556,
4.366640,-0.8336,-1.1678,-0.1444,-3.4027,-8.1803,-9.3393,0.1404,-0.2475,-0.0556,
4.421600,-0.5116,-0.5597,-0.0904,-3.4027,-8.1803,-9.3393,0.1404,-0.2475,-0.0556,
4.425194,-0.5116,-0.5597,-0.0904,-3.4027,-8.1803,-9.3393,0.0439,0.1410,0.3842,
4.427437,-0.5116,-0.5597,-0.0904,-0.3621,-2.2349,-8.8837,0.0439,0.1410,0.3842,
4.481166,-0.7134,-0.7603,-0.1500,-0.3621,-2.2349,-8.8837,0.0439,0.1410,0.3842,
4.485440,-0.7134,-0.7603,-0.1500,-0.3621,-2.2349,-8.8837,0.0347,-1.0129,0.0745,
4.488633,-0.7134,-0.7603,-0.1500,-2.4109,-4.2124,-9.5137,0.0347,-1.0129,0.0745,
4.541485,-0.5666,-0.8632,-0.1175,-2.4109,-4.2124,-9.5137,0.0347,-1.0129,0.0745,
4.545155,-0.5666,-0.8632,-0.1175,-2.4109,-4.2124,-9.5137,-0.0740,0.1025,0.5950,
4.547507,-0.5666,-0.8632,-0.1175,-1.2238,-5.2616,-9.3498,-0.0740,0.1025,0.5950,
4.600937,-0.4366,-0.8248,-0.1415,-1.2238,-5.2616,-9.3498,-0.0740,0.1025,0.5950,
4.604994,-0.4366,-0.8248,-0.1415,-1.2238,-5.2616,-9.3498,0.1728,0.3414,0.2529,
4.607372,-0.4366,-0.8248,-0.1415,0.3265,-4.9838,-9.4707,0.1728,0.3414,0.2529,
4.661950,-0.5788,-0.7530,-0.1131,0.3265,-4.9838,-9.4707,0.1728,0.3414,0.2529,
4.665037,-0.5788,-0.7530,-0.1131,0.3265,-4.9838,-9.4707,0.2895,0.2095,-0.1527,
4.667149,-0.5788,-0.7530,-0.1131,-0.9098,-4.3768,-9.1382,0.2895,0.2095,-0.1527,
4.720327,-0.6978,-0.7872,-0.1016,-0.9098,-4.3768,-9.1382,0.2895,0.2095,-0.1527,
4.723440,-0.6978,-0.7872,-0.1016,-0.9098,-4.3768,-9.1382,-0.1528,0.0231,-0.1283,
4.724900,-0.6978,-0.7872,-0.1016,-2.0132,-4.6590,-8.9681,-0.1528,0.0231,-0.1283,
4.781492,-0.5509,-0.7982,-0.0860,-2.0132,-4.6590,-8.9681,-0.1528,0.0231,-0.1283,
4.785543,-0.5509,-0.7982,-0.0860,-2.0132,-4.6590,-8.9681,-0.0227,0.2473,0.0324,
4.787962,-0.5509,-0.7982,-0.0860,-0.5082,-4.6519,-8.7293,-0.0227,0.2473,0.0324,
4.840803,-0.5710,-0.8018,-0.1510,-0.5082,-4.6519,-8.7293,-0.0227,0.2473,0.0324,
4.844697,-0.5710,-0.8018,-0.1510,-0.5082,-4.6519,-8.7293,0.2095,0.1288,-0.1466,
4.846736,-0.5710,-0.8018,-0.1510,-0.5865,-4.6815,-9.2892,0.2095,0.1288,-0.1466,
4.901723,-0.6443,-0.7769,-0.1393,-0.5865,-4.6815,-9.2892,0.2095,0.1288,-0.1466,
4.905364,-0.6443,-0.7769,-0.1393,-0.5865,-4.6815,-9.2892,-0.0624,-0.0984,-0.2028,
4.907447,-0.6443,-0.7769,-0.1393,-1.2971,-4.3866,-9.1485,-0.0624,-0.0984,-0.2028,
4.961938,-0.6255,-0.7598,-0.1033,-1.2971,-4.3866,-9.1485,-0.0624,-0.0984,-0.2028,
4.966097,-0.6255,-0.7598,-0.1033,-1.2971,-4.3866,-9.1485,-0.3281,-0.2359,-0.1026,
4.968225,-0.6255,-0.7598,-0.1033,-1.1852,-4.0380,-8.7657,-0.3281,-0.2359,-0.1026,
5.022401,-0.5876,-0.7894,-0.0994,-1.1852,-4.0380,-8.7657,-0.3281,-0.2359,-0.1026,
5.025987,-0.5876,-0.7894,-0.0994,-1.1852,-4.0380,-8.7657,-0.2463,-0.1943,-0.1045,
5.027964,-0.5876,-0.7894,-0.0994,-0.9221,-4.1144,-8.6988,-0.2463,-0.1943,-0.1045,
5.081888,-0.5710,-0.7933,-0.1393,-0.9221,-4.1144,-8.6988,-0.2463,-0.1943,-0.1045,
5.085136,-0.5710,-0.7933,-0.1393,-0.9221,-4.1144,-8.6988,-0.1461,-0.2310,-0.1374,
5.087421,-0.5710,-0.7933,-0.1393,-0.8506,-3.9909,-9.0681,-0.1461,-0.2310,-0.1374,
5.140851,-0.5617,-0.8131,-0.1549,-0.8506,-3.9909,-9.0681,-0.1461,-0.2310,-0.1374,
5.144783,-0.5617,-0.8131,-0.1549,-0.8506,-3.9909,-9.0681,-0.2243,-0.3049,-0.1851,
5.147121,-0.5617,-0.8131,-0.1549,-0.9012,-4.0236,-9.2263,-0.2243,-0.3049,-0.1851,
5.201125,-0.5781,-0.8040,-0.1349,-0.9012,-4.0236,-9.2263,-0.2243,-0.3049,-0.1851,
5.205209,-0.5781,-0.8040,-0.1349,-0.9012,-4.0236,-9.2263,-0.2267,-0.4723,-0.2431,
5.207322,-0.5781,-0.8040,-0.1349,-1.2740,-3.7230,-9.0425,-0.2267,-0.4723,-0.2431,
5.261102,-0.6245,-0.8702,-0.1207,-1.2740,-3.7230,-9.0425,-0.2267,-0.4723,-0.2431,
5.264870,-0.6245,-0.8702,-0.1207,-1.2740,-3.7230,-9.0425,-0.1106,-0.3739,-0.2248,
5.266885,-0.6245,-0.8702,-0.1207,-1.9673,-4.1777,-8.9285,-0.1106,-0.3739,-0.2248,
5.320352,-0.6428,-0.9181,-0.0862,-1.9673,-4.1777,-8.9285,-0.1106,-0.3739,-0.2248,
5.324162,-0.6428,-0.9181,-0.0862,-1.9673,-4.1777,-8.9285,0.2754,-0.0813,-0.0202,
5.326475,-0.6428,-0.9181,-0.0862,-2.2874,-4.5815,-8.6279,0.2754,-0.0813,-0.0202,
5.381201,-0.5746,-0.8954,0.0850,-2.2874,-4.5815,-8.6279,0.2754,-0.0813,-0.0202,
5.385037,-0.5746,-0.8954,0.0850,-2.2874,-4.5815,-8.6279,0.8081,-0.0654,0.2822,
5.387154,-0.5746,-0.8954,0.0850,-1.5808,-4.5585,-7.0398,0.8081,-0.0654,0.2822,
5.441615,-0.5553,-0.9421,0.1246,-1.5808,-4.5585,-7.0398,0.8081,-0.0654,0.2822,
5.445540,-0.5553,-0.9421,0.1246,-1.5808,-4.5585,-7.0398,1.3878,0.1911,0.7159,
5.447900,-0.5553,-0.9421,0.1246,-1.3179,-5.6508,-6.9234,1.3878,0.1911,0.7159,
5.501011,-0.5399,-0.9782,0.1449,-1.3179,-5.6508,-6.9234,1.3878,0.1911,0.7159,
5.504723,-0.5399,-0.9782,0.1449,-1.3179,-5.6508,-6.9234,1.5900,-0.0893,1.2498,
5.507165,-0.5399,-0.9782,0.1449,-0.8619,-6.9033,-6.9078,1.5900,-0.0893,1.2498,
5.561070,-0.4410,-0.9540,-0.1033,-0.8619,-6.9033,-6.9078,1.5900,-0.0893,1.2498,
5.565231,-0.4410,-0.9540,-0.1033,-0.8619,-6.9033,-6.9078,0.7965,0.1966,1.1222,
5.567030,-0.4410,-0.9540,-0.1033,0.3020,-7.6308,-9.4885,0.7965,0.1966,1.1222,
5.620339,-0.5060,-0.8084,0.0682,0.3020,-7.6308,-9.4885,0.7965,0.1966,1.1222,
5.624823,-0.5060,-0.8084,0.0682,0.3020,-7.6308,-9.4885,0.2675,0.1765,0.5143,
5.626514,-0.5060,-0.8084,0.0682,-0.1351,-6.6277,-7.7716,0.2675,0.1765,0.5143,
5.679416,-0.5048,-0.7298,0.0320,-0.1351,-6.6277,-7.7716,0.2675,0.1765,0.5143,
5.682720,-0.5048,-0.7298,0.0320,-0.1351,-6.6277,-7.7716,-0.2640,-0.1949,0.2242,
5.685098,-0.5048,-0.7298,0.0320,-0.0777,-5.9574,-8.1147,-0.2640,-0.1949,0.2242,
5.740115,-0.5236,-0.6560,0.0728,-0.0777,-5.9574,-8.1147,-0.2640,-0.1949,0.2242,
5.744778,-0.5236,-0.6560,0.0728,-0.0777,-5.9574,-8.1147,-0.5053,-0.3177,0.1436,
5.747569,-0.5236,-0.6560,0.0728,-0.3477,-5.0211,-7.7309,-0.5053,-0.3177,0.1436,
5.800350,-0.5825,-0.7156,0.0821,-0.3477,-5.0211,-7.7309,-0.5053,-0.3177,0.1436,
5.804534,-0.5825,-0.7156,0.0821,-0.3477,-5.0211,-7.7309,-0.4735,-0.1772,0.0446,
5.806598,-0.5825,-0.7156,0.0821,-1.0051,-5.3139,-7.6315,-0.4735,-0.1772,0.0446,
5.860939,-0.5925,-0.7481,0.1068,-1.0051,-5.3139,-7.6315,-0.4735,-0.1772,0.0446,
5.863951,-0.5925,-0.7481,0.1068,-1.0051,-5.3139,-7.6315,-0.5321,-0.3501,-0.1607,
5.866088,-0.5925,-0.7481,0.1068,-1.2110,-5.3492,-7.3873,-0.5321,-0.3501,-0.1607,
5.921457,-0.6262,-0.7833,0.1747,-1.2110,-5.3492,-7.3873,-0.5321,-0.3501,-0.1607,
5.925275,-0.6262,-0.7833,0.1747,-1.2110,-5.3492,-7.3873,-0.1424,0.0445,-0.1100,
5.927273,-0.6262,-0.7833,0.1747,-1.6731,-5.3741,-6.7112,-0.1424,0.0445,-0.1100,
5.981534,-0.4632,-0.7982,0.0858,-1.6731,-5.3741,-6.7112,-0.1424,0.0445,-0.1100,
5.985511,-0.4632,-0.7982,0.0858,-1.6731,-5.3741,-6.7112,-0.0447,0.1410,-0.2505,
5.987549,-0.4632,-0.7982,0.0858,0.0103,-5.4063,-7.5043,-0.0447,0.1410,-0.2505,
6.040876,-0.6088,-0.8431,-0.0007,0.0103,-5.4063,-7.5043,-0.0447,0.1410,-0.2505,
6.043983,-0.6088,-0.8431,-0.0007,0.0103,-5.4063,-7.5043,-0.1913,0.1649,-0.6005,
6.046119,-0.6088,-0.8431,-0.0007,-1.4095,-5.6559,-8.2901,-0.1913,0.1649,-0.6005,
6.101324,-0.6013,-0.8016,0.1229,-1.4095,-5.6559,-8.2901,-0.1913,0.1649,-0.6005,
6.104072,-0.6013,-0.8016,0.1229,-1.4095,-5.6559,-8.2901,-0.3464,0.3261,-0.5822,
6.105754,-0.6013,-0.8016,0.1229,-1.2787,-4.8673,-6.9169,-0.3464,0.3261,-0.5822,
6.160790,-0.7833,-0.8502,0.0872,-1.2787,-4.8673,-6.9169,-0.3464,0.3261,-0.5822,
6.164241,-0.7833,-0.8502,0.0872,-1.2787,-4.8673,-6.9169,-0.0636,0.4776,-0.4514,
6.166799,-0.7833,-0.8502,0.0872,-2.9805,-5.0730,-7.1140,-0.0636,0.4776,-0.4514,
6.219700,-0.6201,-0.7198,0.0039,-2.9805,-5.0730,-7.1140,-0.0636,0.4776,-0.4514,
6.223635,-0.6201,-0.7198,0.0039,-2.9805,-5.0730,-7.1140,-0.4521,-0.3660,-0.0733,
6.226075,-0.6201,-0.7198,0.0039,-1.2873,-3.5790,-7.7821,-0.4521,-0.3660,-0.0733,
6.280100,-0.5524,-0.8102,-0.0281,-1.2873,-3.5790,-7.7821,-0.4521,-0.3660,-0.0733,
6.285646,-0.5524,-0.8102,-0.0281,-1.2873,-3.5790,-7.7821,-0.6024,-0.6629,0.0305,
6.287502,-0.5524,-0.8102,-0.0281,-0.8882,-4.1727,-8.1177,-0.6024,-0.6629,0.0305,
6.340297,-0.5475,-0.8578,0.0242,-0.8882,-4.1727,-8.1177,-0.6024,-0.6629,0.0305,
6.343382,-0.5475,-0.8578,0.0242,-0.8882,-4.1727,-8.1177,-0.3092,0.1484,0.0446,
6.345555,-0.5475,-0.8578,0.0242,-0.9783,-4.3718,-7.5504,-0.3092,0.1484,0.0446,
6.401383,-0.5297,-0.8580,-0.0137,-0.9783,-4.3718,-7.5504,-0.3092,0.1484,0.0446,
6.404772,-0.5297,-0.8580,-0.0137,-0.9783,-4.3718,-7.5504,-0.1595,0.2803,0.0342,
6.406965,-0.5297,-0.8580,-0.0137,-0.6578,-4.2560,-7.7744,-0.1595,0.2803,0.0342,
6.461394,-0.4874,-0.8607,-0.0833,-0.6578,-4.2560,-7.7744,-0.1595,0.2803,0.0342,
6.464911,-0.4874,-0.8607,-0.0833,-0.6578,-4.2560,-7.7744,-0.1241,-0.0532,0.0330,
6.467134,-0.4874,-0.8607,-0.0833,-0.1502,-4.1891,-8.3490,-0.1241,-0.0532,0.0330,
6.521980,-0.5666,-0.8082,-0.1378,-0.1502,-4.1891,-8.3490,-0.1241,-0.0532,0.0330,
6.526334,-0.5666,-0.8082,-0.1378,-0.1502,-4.1891,-8.3490,-0.1699,-0.3238,-0.1283,
6.528325,-0.5666,-0.8082,-0.1378,-1.0057,-3.5636,-8.8681,-0.1699,-0.3238,-0.1283,
6.580551,-0.6670,-0.7527,-0.1309,-1.0057,-3.5636,-8.8681,-0.1699,-0.3238,-0.1283,
6.583983,-0.6670,-0.7527,-0.1309,-1.0057,-3.5636,-8.8681,-0.2182,-0.2072,-0.2896,
6.586304,-0.6670,-0.7527,-0.1309,-2.1605,-2.8430,-8.7977,-0.2182,-0.2072,-0.2896,
6.640026,-0.7361,-0.7202,-0.1502,-2.1605,-2.8430,-8.7977,-0.2182,-0.2072,-0.2896,
6.643361,-0.7361,-0.7202,-0.1502,-2.1605,-2.8430,-8.7977,-0.3574,-0.1687,-0.2230,
6.645170,-0.7361,-0.7202,-0.1502,-2.9560,-2.2931,-8.9109,-0.3574,-0.1687,-0.2230,
6.701527,-0.6103,-0.7830,-0.0667,-2.9560,-2.2931,-8.9109,-0.3574,-0.1687,-0.2230,
6.704995,-0.6103,-0.7830,-0.0667,-2.9560,-2.2931,-8.9109,-0.4949,0.2192,0.1692,
6.707247,-0.6103,-0.7830,-0.0667,-1.7415,-2.6678,-7.9432,-0.4949,0.2192,0.1692,
6.760173,-0.5202,-0.8111,-0.0366,-1.7415,-2.6678,-7.9432,-0.4949,0.2192,0.1692,
6.763957,-0.5202,-0.8111,-0.0366,-1.7415,-2.6678,-7.9432,-0.1675,0.5057,0.1283,
6.765973,-0.5202,-0.8111,-0.0366,-0.6310,-2.7958,-7.4064,-0.1675,0.5057,0.1283,
6.820864,-0.5886,-0.8226,-0.1087,-0.6310,-2.7958,-7.4064,-0.1675,0.5057,0.1283,
6.824822,-0.5886,-0.8226,-0.1087,-0.6310,-2.7958,-7.4064,-0.0202,0.3976,-0.3439,
6.827096,-0.5886,-0.8226,-0.1087,-1.0780,-2.8377,-7.9128,-0.0202,0.3976,-0.3439,
6.881731,-0.6262,-0.7547,-0.1231,-1.0780,-2.8377,-7.9128,-0.0202,0.3976,-0.3439,
6.885559,-0.6262,-0.7547,-0.1231,-1.0780,-2.8377,-7.9128,-0.2438,-0.3116,-0.4441,
6.887978,-0.6262,-0.7547,-0.1231,-1.5281,-1.9716,-7.9526,-0.2438,-0.3116,-0.4441,
6.939620,-0.6291,-0.7647,-0.1307,-1.5281,-1.9716,-7.9526,-0.2438,-0.3116,-0.4441,
6.944500,-0.6291,-0.7647,-0.1307,-1.5281,-1.9716,-7.9526,-0.1290,-0.3214,-0.2798,
6.946769,-0.6291,-0.7647,-0.1307,-1.8251,-1.8500,-8.0245,-0.1290,-0.3214,-0.2798,
7.001749,-0.5636,-0.8319,-0.1879,-1.8251,-1.8500,-8.0245,-0.1290,-0.3214,-0.2798,
7.005456,-0.5636,-0.8319,-0.1879,-1.8251,-1.8500,-8.0245,0.0018,-0.1045,-0.1057,
7.007117,-0.5636,-0.8319,-0.1879,-1.2955,-2.4113,-8.5739,0.0018,-0.1045,-0.1057,
7.061304,-0.5883,-0.9387,-0.2331,-1.2955,-2.4113,-8.5739,0.0018,-0.1045,-0.1057,
7.064777,-0.5883,-0.9387,-0.2331,-1.2955,-2.4113,-8.5739,-0.0153,0.0103,-0.1020,
7.066839,-0.5883,-0.9387,-0.2331,-1.5676,-3.3985,-8.9851,-0.0153,0.0103,-0.1020,
7.121394,-0.5407,-0.9475,-0.1893,-1.5676,-3.3985,-8.9851,-0.0153,0.0103,-0.1020,
7.125362,-0.5407,-0.9475,-0.1893,-1.5676,-3.3985,-8.9851,-0.0752,0.1740,-0.2040,
7.127987,-0.5407,-0.9475,-0.1893,-1.1150,-3.4093,-8.4995,-0.0752,0.1740,-0.2040,
7.183212,-0.5519,-0.8710,-0.1400,-1.1150,-3.4093,-8.4995,-0.0752,0.1740,-0.2040,
7.187848,-0.5519,-0.8710,-0.1400,-1.1150,-3.4093,-8.4995,0.1832,0.1380,-0.3244,
7.191068,-0.5519,-0.8710,-0.1400,-1.2272,-2.5670,-7.9339,0.1832,0.1380,-0.3244,
7.240891,-0.5710,-0.9032,-0.0953,-1.2272,-2.5670,-7.9339,0.1832,0.1380,-0.3244,
7.243998,-0.5710,-0.9032,-0.0953,-1.2272,-2.5670,-7.9339,0.2711,0.1820,-0.0519,
7.245866,-0.5710,-0.9032,-0.0953,-1.4260,-2.8838,-7.5041,0.2711,0.1820,-0.0519,
7.301363,-0.4666,-0.8776,-0.0635,-1.4260,-2.8838,-7.5041,0.2711,0.1820,-0.0519,
7.305029,-0.4666,-0.8776,-0.0635,-1.4260,-2.8838,-7.5041,0.5240,0.3945,0.2828,
7.307447,-0.4666,-0.8776,-0.0635,-0.2466,-2.7657,-7.2112,0.5240,0.3945,0.2828,
7.361257,-0.3745,-0.8891,-0.0921,-0.2466,-2.7657,-7.2112,0.5240,0.3945,0.2828,
7.366012,-0.3745,-0.8891,-0.0921,-0.2466,-2.7657,-7.2112,0.7928,0.4226,0.3366,
7.368041,-0.3745,-0.8891,-0.0921,0.9539,-3.1975,-7.5635,0.7928,0.4226,0.3366,
7.420950,-0.3340,-0.9330,-0.0410,0.9539,-3.1975,-7.5635,0.7928,0.4226,0.3366,
7.423943,-0.3340,-0.9330,-0.0410,0.9539,-3.1975,-7.5635,1.1923,-0.2414,0.0812,
7.425793,-0.3340,-0.9330,-0.0410,1.5245,-4.0348,-7.2618,1.1923,-0.2414,0.0812,
7.481388,-0.4429,-0.8622,-0.1823,1.5245,-4.0348,-7.2618,1.1923,-0.2414,0.0812,
7.485428,-0.4429,-0.8622,-0.1823,1.5245,-4.0348,-7.2618,0.1478,0.0341,0.0159,
7.487577,-0.4429,-0.8622,-0.1823,0.4552,-3.6708,-8.8807,0.1478,0.0341,0.0159,
7.540632,-0.4317,-0.8356,-0.0083,0.4552,-3.6708,-8.8807,0.1478,0.0341,0.0159,
7.544252,-0.4317,-0.8356,-0.0083,0.4552,-3.6708,-8.8807,-0.2420,-0.6116,-0.0012,
7.546444,-0.4317,-0.8356,-0.0083,0.3905,-3.3218,-7.2320,-0.2420,-0.6116,-0.0012,
7.600757,-0.4075,-0.9409,-0.0342,0.3905,-3.3218,-7.2320,-0.2420,-0.6116,-0.0012,
7.603869,-0.4075,-0.9409,-0.0342,0.3905,-3.3218,-7.2320,-0.1302,-0.1723,0.0971,
7.605984,-0.4075,-0.9409,-0.0342,0.4917,-4.2361,-7.4913,-0.1302,-0.1723,0.0971,
7.661430,-0.3330,-0.9067,0.0029,0.4917,-4.2361,-7.4913,-0.1302,-0.1723,0.0971,
7.665349,-0.3330,-0.9067,0.0029,0.4917,-4.2361,-7.4913,0.0225,-0.0141,0.0092,
7.667404,-0.3330,-0.9067,0.0029,1.2067,-3.8559,-7.1054,0.0225,-0.0141,0.0092,
7.721236,-0.3982,-0.8788,-0.0191,1.2067,-3.8559,-7.1054,0.0225,-0.0141,0.0092,
7.725147,-0.3982,-0.8788,-0.0191,1.2067,-3.8559,-7.1054,0.1697,0.1508,-0.0580,
7.727145,-0.3982,-0.8788,-0.0191,0.5940,-3.5792,-7.3015,0.1697,0.1508,-0.0580,
7.780636,-0.4515,-0.9062,-0.0347,0.5940,-3.5792,-7.3015,0.1697,0.1508,-0.0580,
7.783816,-0.4515,-0.9062,-0.0347,0.5940,-3.5792,-7.3015,0.0060,0.0653,-0.0006,
7.785845,-0.4515,-0.9062,-0.0347,0.1054,-3.8463,-7.4328,0.0060,0.0653,-0.0006,
7.842513,-0.4114,-0.8751,0.0044,0.1054,-3.8463,-7.4328,0.0060,0.0653,-0.0006,
7.845872,-0.4114,-0.8751,0.0044,0.1054,-3.8463,-7.4328,0.0305,0.1270,0.0519,
7.847857,-0.4114,-0.8751,0.0044,0.5505,-3.5094,-6.9924,0.0305,0.1270,0.0519,
7.901389,-0.4322,-0.9010,-0.0213,0.5505,-3.5094,-6.9924,0.0305,0.1270,0.0519,
7.905530,-0.4322,-0.9010,-0.0213,0.5505,-3.5094,-6.9924,-0.0941,0.0653,0.0825,
7.907405,-0.4322,-0.9010,-0.0213,0.4333,-3.7490,-7.1765,-0.0941,0.0653,0.0825,
7.961536,-0.3933,-0.8646,-0.0239,0.4333,-3.7490,-7.1765,-0.0941,0.0653,0.0825,
7.965687,-0.3933,-0.8646,-0.0239,0.4333,-3.7490,-7.1765,-0.0538,-0.0153,0.1075,
7.967691,-0.3933,-0.8646,-0.0239,0.8466,-3.3435,-7.1450,-0.0538,-0.0153,0.1075,
8.019762,-0.4786,-0.9318,-0.0843,0.8466,-3.3435,-7.1450,-0.0538,-0.0153,0.1075,
8.022387,-0.4786,-0.9318,-0.0843,0.8466,-3.3435,-7.1450,-0.2786,0.0073,0.1759,
8.023524,-0.4786,-0.9318,-0.0843,0.0428,-3.9557,-7.6800,-0.2786,0.0073,0.1759,
8.081512,-0.3721,-0.7943,-0.0283,0.0428,-3.9557,-7.6800,-0.2786,0.0073,0.1759,
8.084311,-0.3721,-0.7943,-0.0283,0.0428,-3.9557,-7.6800,-0.1870,-0.0441,0.1729,
8.085820,-0.3721,-0.7943,-0.0283,1.1597,-2.4992,-6.9967,-0.1870,-0.0441,0.1729,
8.140184,-0.5373,-0.9795,-0.1561,1.1597,-2.4992,-6.9967,-0.1870,-0.0441,0.1729,
8.142898,-0.5373,-0.9795,-0.1561,1.1597,-2.4992,-6.9967,-0.6030,-0.0025,0.2401,
8.144636,-0.5373,-0.9795,-0.1561,-0.3898,-4.2303,-8.1316,-0.6030,-0.0025,0.2401,
8.200525,-0.4007,-0.7566,-0.0713,-0.3898,-4.2303,-8.1316,-0.6030,-0.0025,0.2401,
8.203034,-0.4007,-0.7566,-0.0713,-0.3898,-4.2303,-8.1316,-0.8296,-0.2682,0.1998,
8.204627,-0.4007,-0.7566,-0.0713,0.9754,-1.7751,-7.0498,-0.8296,-0.2682,0.1998,
8.261174,-0.5654,-0.9362,-0.1566,0.9754,-1.7751,-7.0498,-0.8296,-0.2682,0.1998,
8.264124,-0.5654,-0.9362,-0.1566,0.9754,-1.7751,-7.0498,-0.6659,-0.2285,0.1826,
8.265764,-0.5654,-0.9362,-0.1566,-0.6407,-3.2884,-7.6594,-0.6659,-0.2285,0.1826,
8.321141,-0.5869,-0.9391,-0.0362,-0.6407,-3.2884,-7.6594,-0.6659,-0.2285,0.1826,
8.324869,-0.5869,-0.9391,-0.0362,-0.6407,-3.2884,-7.6594,-0.6849,-0.5535,0.0611,
8.326725,-0.5869,-0.9391,-0.0362,-0.9614,-3.0722,-6.3238,-0.6849,-0.5535,0.0611,
8.380074,-0.5575,-0.7887,-0.1009,-0.9614,-3.0722,-6.3238,-0.6849,-0.5535,0.0611,
8.383592,-0.5575,-0.7887,-0.1009,-0.9614,-3.0722,-6.3238,0.0488,-0.1638,0.0544,
8.385828,-0.5575,-0.7887,-0.1009,-0.7629,-1.4421,-6.8666,0.0488,-0.1638,0.0544,
8.441499,-0.7278,-0.8036,-0.2223,-0.7629,-1.4421,-6.8666,0.0488,-0.1638,0.0544,
8.445120,-0.7278,-0.8036,-0.2223,-0.7629,-1.4421,-6.8666,0.1917,-0.7521,-0.2132,
8.447092,-0.7278,-0.8036,-0.2223,-2.5660,-1.6264,-8.2014,0.1917,-0.7521,-0.2132,
8.501388,-0.8258,-0.8119,-0.1070,-2.5660,-1.6264,-8.2014,0.1917,-0.7521,-0.2132,
8.505891,-0.8258,-0.8119,-0.1070,-2.5660,-1.6264,-8.2014,-0.2163,-0.2255,-0.1619,
8.507951,-0.8258,-0.8119,-0.1070,-3.8288,-1.6284,-7.2088,-0.2163,-0.2255,-0.1619,
8.560062,-0.6633,-0.6528,-0.0435,-3.8288,-1.6284,-7.2088,-0.2163,-0.2255,-0.1619,
8.563644,-0.6633,-0.6528,-0.0435,-3.8288,-1.6284,-7.2088,0.0213,0.1777,0.1723,
8.566224,-0.6633,-0.6528,-0.0435,-2.2077,0.0133,-6.4795,0.0213,0.1777,0.1723,
8.620073,-0.5795,-0.7730,-0.0665,-2.2077,0.0133,-6.4795,0.0213,0.1777,0.1723,
8.623665,-0.5795,-0.7730,-0.0665,-2.2077,0.0133,-6.4795,0.3249,0.2632,0.3268,
8.625374,-0.5795,-0.7730,-0.0665,-1.1936,-1.2750,-6.6805,0.3249,0.2632,0.3268,
8.679567,-0.5795,-0.7730,-0.0665,-1.1936,-1.2750,-6.6805,0.2913,0.3475,0.2034,
8.682823,-0.5294,-0.8571,-0.0862,-1.1936,-1.2750,-6.6805,0.2913,0.3475,0.2034,
8.684853,-0.5294,-0.8571,-0.0862,-0.9610,-1.4592,-6.6926,0.2913,0.3475,0.2034,
8.741186,-0.5998,-0.8077,-0.0931,-0.9610,-1.4592,-6.6926,0.2913,0.3475,0.2034,
8.744616,-0.5998,-0.8077,-0.0931,-0.9610,-1.4592,-6.6926,0.4043,0.3408,-0.2358,
8.746922,-0.5998,-0.8077,-0.0931,-0.9977,-1.8968,-6.9228,0.4043,0.3408,-0.2358,
8.801255,-0.6611,-0.7212,-0.0836,-0.9977,-1.8968,-6.9228,0.4043,0.3408,-0.2358,
8.804761,-0.6611,-0.7212,-0.0836,-0.9977,-1.8968,-6.9228,0.3127,0.2186,-0.2596,
8.807071,-0.6611,-0.7212,-0.0836,-1.5930,-1.0875,-6.8629,0.3127,0.2186,-0.2596,
8.860582,-0.6211,-0.7694,-0.0823,-1.5930,-1.0875,-6.8629,0.3127,0.2186,-0.2596,
8.864252,-0.6211,-0.7694,-0.0823,-1.5930,-1.0875,-6.8629,0.1520,0.1587,-0.0544,
8.866328,-0.6211,-0.7694,-0.0823,-1.1656,-1.5672,-6.8306,0.1520,0.1587,-0.0544,
8.922319,-0.6457,-0.8038,-0.0970,-1.1656,-1.5672,-6.8306,0.1520,0.1587,-0.0544,
8.926531,-0.6457,-0.8038,-0.0970,-1.1656,-1.5672,-6.8306,0.3860,0.0488,-0.0617,
8.929492,-0.6457,-0.8038,-0.0970,-1.3635,-1.9561,-6.9889,0.3860,0.0488,-0.0617,
8.979697,-0.6450,-0.7642,-0.1073,-1.3635,-1.9561,-6.9889,0.3860,0.0488,-0.0617,
8.982890,-0.6450,-0.7642,-0.1073,-1.3635,-1.9561,-6.9889,0.2253,0.0891,-0.0257,
8.985078,-0.6450,-0.7642,-0.1073,-1.3276,-1.6623,-7.1569,0.2253,0.0891,-0.0257,
9.039776,-0.6450,-0.7879,-0.0718,-1.3276,-1.6623,-7.1569,0.2253,0.0891,-0.0257,
9.042897,-0.6450,-0.7879,-0.0718,-1.3276,-1.6623,-7.1569,0.0873,-0.0954,0.1051,
9.044972,-0.6450,-0.7879,-0.0718,-1.3000,-1.9340,-6.8247,0.0873,-0.0954,0.1051,
9.102078,-0.6091,-0.8299,-0.0704,-1.3000,-1.9340,-6.8247,0.0873,-0.0954,0.1051,
9.106482,-0.6091,-0.8299,-0.0704,-1.3000,-1.9340,-6.8247,0.1471,-0.2249,0.2547,
9.109681,-0.6091,-0.8299,-0.0704,-0.9392,-2.4119,-6.8649,0.1471,-0.2249,0.2547,
9.161175,-0.5636,-0.8925,-0.0213,-0.9392,-2.4119,-6.8649,0.1471,-0.2249,0.2547,
9.164546,-0.5636,-0.8925,-0.0213,-0.9392,-2.4119,-6.8649,0.3127,-0.0178,0.4954,
9.166384,-0.5636,-0.8925,-0.0213,-0.4343,-3.1869,-6.4821,0.3127,-0.0178,0.4954,
9.220869,-0.4461,-0.9260,0.1576,-0.4343,-3.1869,-6.4821,0.3127,-0.0178,0.4954,
9.224927,-0.4461,-0.9260,0.1576,-0.4343,-3.1869,-6.4821,0.7910,0.9144,0.6829,
9.227015,-0.4461,-0.9260,0.1576,1.0495,-3.8455,-4.7358,0.7910,0.9144,0.6829,
9.281000,-0.4388,-0.9457,0.0450,1.0495,-3.8455,-4.7358,0.7910,0.9144,0.6829,
9.283998,-0.4388,-0.9457,0.0450,1.0495,-3.8455,-4.7358,1.8521,1.6004,0.4734,
9.286047,-0.4388,-0.9457,0.0450,1.7830,-4.7364,-5.7748,1.8521,1.6004,0.4734,
9.340329,-0.6179,-0.7505,-0.0906,1.7830,-4.7364,-5.7748,1.8521,1.6004,0.4734,
9.343885,-0.6179,-0.7505,-0.0906,1.7830,-4.7364,-5.7748,0.6743,0.4116,-0.3525,
9.346212,-0.6179,-0.7505,-0.0906,0.5564,-3.3403,-6.9163,0.6743,0.4116,-0.3525,
9.401066,-0.7068,-0.6641,-0.0645,0.5564,-3.3403,-6.9163,0.6743,0.4116,-0.3525,
9.404185,-0.7068,-0.6641,-0.0645,0.5564,-3.3403,-6.9163,-0.4112,-1.0196,-0.6310,
9.406579,-0.7068,-0.6641,-0.0645,-0.5410,-2.3401,-6.7985,-0.4112,-1.0196,-0.6310,
9.460818,-0.5820,-0.6802,0.1107,-0.5410,-2.3401,-6.7985,-0.4112,-1.0196,-0.6310,
9.463352,-0.5820,-0.6802,0.1107,-0.5410,-2.3401,-6.7985,-0.2866,-0.7594,-0.4624,
9.465505,-0.5820,-0.6802,0.1107,0.1663,-2.0663,-5.2843,-0.2866,-0.7594,-0.4624,
9.521203,-0.3889,-0.8979,0.0569,0.1663,-2.0663,-5.2843,-0.2866,-0.7594,-0.4624,
9.524102,-0.3889,-0.8979,0.0569,0.1663,-2.0663,-5.2843,0.5112,0.5216,-0.3390,
9.526585,-0.3889,-0.8979,0.0569,1.8597,-4.0915,-5.9111,0.5112,0.5216,-0.3390,
9.579821,-0.3437,-0.9411,-0.0352,1.8597,-4.0915,-5.9111,0.5112,0.5216,-0.3390,
9.583125,-0.3437,-0.9411,-0.0352,1.8597,-4.0915,-5.9111,-0.0496,0.8356,-0.7294,
9.585188,-0.3437,-0.9411,-0.0352,2.5511,-4.4553,-6.5414,-0.0496,0.8356,-0.7294,
9.641426,-0.4405,-0.9062,-0.0010,2.5511,-4.4553,-6.5414,-0.0496,0.8356,-0.7294,
9.645545,-0.4405,-0.9062,-0.0010,2.5511,-4.4553,-6.5414,-0.4460,-0.3287,-0.9022,
9.647860,-0.4405,-0.9062,-0.0010,1.4272,-3.7175,-6.0529,-0.4460,-0.3287,-0.9022,
9.699740,-0.4525,-0.8539,0.0344,1.4272,-3.7175,-6.0529,-0.4460,-0.3287,-0.9022,
9.703628,-0.4525,-0.8539,0.0344,1.4272,-3.7175,-6.0529,-0.7246,-0.3880,-0.6573,
9.706256,-0.4525,-0.8539,0.0344,0.8889,-2.6709,-5.6104,-0.7246,-0.3880,-0.6573,
9.761373,-0.4583,-0.8297,0.0129,0.8889,-2.6709,-5.6104,-0.7246,-0.3880,-0.6573,
9.764778,-0.4583,-0.8297,0.0129,0.8889,-2.6709,-5.6104,-0.3965,0.0903,-0.2272,
9.766876,-0.4583,-0.8297,0.0129,0.6000,-2.0579,-5.6492,-0.3965,0.0903,-0.2272,
9.820020,-0.4713,-0.8304,-0.0366,0.6000,-2.0579,-5.6492,-0.3965,0.0903,-0.2272,
9.823759,-0.4713,-0.8304,-0.0366,0.6000,-2.0579,-5.6492,-0.0380,0.5442,-0.0037,
9.826041,-0.4713,-0.8304,-0.0366,0.5314,-1.9148,-5.9196,-0.0380,0.5442,-0.0037,
9.880615,-0.5143,-0.8622,-0.0936,0.5314,-1.9148,-5.9196,-0.0380,0.5442,-0.0037,
9.883658,-0.5143,-0.8622,-0.0936,0.5314,-1.9148,-5.9196,-0.3947,0.5827,0.1063,
9.885942,-0.5143,-0.8622,-0.0936,0.3120,-2.1647,-6.2110,-0.3947,0.5827,0.1063,
9.941373,-0.4564,-0.8676,-0.0882,0.3120,-2.1647,-6.2110,-0.3947,0.5827,0.1063,
9.944926,-0.4564,-0.8676,-0.0882,0.3120,-2.1647,-6.2110,-0.7679,0.2968,0.1472,
9.947068,-0.4564,-0.8676,-0.0882,1.1151,-2.0633,-5.7112,-0.7679,0.2968,0.1472,
10.000912,-0.5165,-0.9782,-0.0972,1.1151,-2.0633,-5.7112,-0.7679,0.2968,0.1472,
10.004672,-0.5165,-0.9782,-0.0972,1.1151,-2.0633,-5.7112,-0.8046,-0.2029,0.1142,
10.006856,-0.5165,-0.9782,-0.0972,0.5993,-2.9446,-5.4258,-0.8046,-0.2029,0.1142,
10.059807,-0.5101,-0.9323,-0.0828,0.5993,-2.9446,-5.4258,-0.8046,-0.2029,0.1142,
10.062970,-0.5101,-0.9323,-0.0828,0.5993,-2.9446,-5.4258,-0.4222,-0.5089,0.1338,
10.064933,-0.5101,-0.9323,-0.0828,0.5916,-2.3430,-5.1428,-0.4222,-0.5089,0.1338,
10.121610,-0.5353,-0.8358,-0.1549,0.5916,-2.3430,-5.1428,-0.4222,-0.5089,0.1338,
10.125386,-0.5353,-0.8358,-0.1549,0.5916,-2.3430,-5.1428,0.0103,-0.1650,0.0318,
10.127513,-0.5353,-0.8358,-0.1549,0.3064,-1.3499,-5.8240,0.0103,-0.1650,0.0318,
10.180338,-0.7063,-0.9120,-0.1879,0.3064,-1.3499,-5.8240,0.0103,-0.1650,0.0318,
10.183785,-0.7063,-0.9120,-0.1879,0.3064,-1.3499,-5.8240,0.2779,-0.2420,-0.0024,
10.185933,-0.7063,-0.9120,-0.1879,-1.4248,-2.1189,-6.2517,0.2779,-0.2420,-0.0024,
10.239446,-0.5925,-0.7496,-0.1906,-1.4248,-2.1189,-6.2517,0.2779,-0.2420,-0.0024,
10.242377,-0.5925,-0.7496,-0.1906,-1.4248,-2.1189,-6.2517,0.1600,0.0396,0.1973,
10.244549,-0.5925,-0.7496,-0.1906,-0.2906,-0.6152,-6.3895,0.1600,0.0396,0.1973,
10.300897,-0.5900,-0.7725,-0.1652,-0.2906,-0.6152,-6.3895,0.1600,0.0396,0.1973,
10.304667,-0.5900,-0.7725,-0.1652,-0.2906,-0.6152,-6.3895,-0.0361,-0.2127,0.3366,
10.306530,-0.5900,-0.7725,-0.1652,-0.1782,-0.9281,-6.1615,-0.0361,-0.2127,0.3366,
10.360851,-0.5348,-0.8417,-0.1478,-0.1782,-0.9281,-6.1615,-0.0361,-0.2127,0.3366,
10.364523,-0.5348,-0.8417,-0.1478,-0.1782,-0.9281,-6.1615,-0.0502,-0.0630,0.3763,
10.366408,-0.5348,-0.8417,-0.1478,0.4724,-1.7010,-5.9936,-0.0502,-0.0630,0.3763,
10.420782,-0.5123,-0.8334,-0.1520,0.4724,-1.7010,-5.9936,-0.0502,-0.0630,0.3763,
10.423590,-0.5123,-0.8334,-0.1520,0.4724,-1.7010,-5.9936,0.0170,0.0653,0.1008,
10.425201,-0.5123,-0.8334,-0.1520,0.8203,-1.6963,-5.9815,0.0170,0.0653,0.1008,
10.481459,-0.5815,-0.7830,-0.1419,0.8203,-1.6963,-5.9815,0.0170,0.0653,0.1008,
10.484781,-0.5815,-0.7830,-0.1419,0.8203,-1.6963,-5.9815,0.0121,0.0128,-0.0501,
10.487395,-0.5815,-0.7830,-0.1419,0.1517,-1.2010,-5.8688,0.0121,0.0128,-0.0501,
10.541023,-0.5700,-0.8150,-0.1263,0.1517,-1.2010,-5.8688,0.0121,0.0128,-0.0501,
10.544579,-0.5700,-0.8150,-0.1263,0.1517,-1.2010,-5.8688,-0.0263,0.0036,0.0208,
10.546430,-0.5700,-0.8150,-0.1263,0.2590,-1.4792,-5.6706,-0.0263,0.0036,0.0208,
10.601635,-0.5290,-0.8204,-0.1495,0.2590,-1.4792,-5.6706,-0.0263,0.0036,0.0208,
10.605201,-0.5290,-0.8204,-0.1495,0.2590,-1.4792,-5.6706,0.1142,0.1013,0.0281,
10.606981,-0.5290,-0.8204,-0.1495,0.7034,-1.5378,-5.8509,0.1142,0.1013,0.0281,
10.660179,-0.6010,-0.7764,-0.1410,0.7034,-1.5378,-5.8509,0.1142,0.1013,0.0281,
10.663353,-0.6010,-0.7764,-0.1410,0.7034,-1.5378,-5.8509,0.1129,0.0567,-0.0727,
10.664885,-0.6010,-0.7764,-0.1410,0.0082,-1.1191,-5.7703,0.1129,0.0567,-0.0727,
10.720888,-0.6113,-0.7581,-0.1373,0.0082,-1.1191,-5.7703,0.1129,0.0567,-0.0727,
10.724946,-0.6113,-0.7581,-0.1373,0.0082,-1.1191,-5.7703,-0.0483,-0.0929,-0.0550,
10.727000,-0.6113,-0.7581,-0.1373,-0.1159,-0.9139,-5.7279,-0.0483,-0.0929,-0.0550,
10.780613,-0.5698,-0.7911,-0.1292,-0.1159,-0.9139,-5.7279,-0.0483,-0.0929,-0.0550,
10.783874,-0.5698,-0.7911,-0.1292,-0.1159,-0.9139,-5.7279,-0.1058,-0.0685,-0.0336,
10.786005,-0.5698,-0.7911,-0.1292,0.2523,-1.1867,-5.6254,-0.1058,-0.0685,-0.0336,
10.840474,-0.5744,-0.7850,-0.1209,0.2523,-1.1867,-5.6254,-0.1058,-0.0685,-0.0336,
10.843402,-0.5744,-0.7850,-0.1209,0.2523,-1.1867,-5.6254,0.0158,-0.0441,-0.1246,
10.845356,-0.5744,-0.7850,-0.1209,0.1757,-1.0745,-5.5062,0.0158,-0.0441,-0.1246,
10.900637,-0.5944,-0.7593,-0.1275,0.1757,-1.0745,-5.5062,0.0158,-0.0441,-0.1246,
10.903675,-0.5944,-0.7593,-0.1275,0.1757,-1.0745,-5.5062,-0.0062,-0.0819,-0.2248,
10.905264,-0.5944,-0.7593,-0.1275,-0.0848,-0.7539,-5.5500,-0.0062,-0.0819,-0.2248,
10.960143,-0.6291,-0.7752,-0.1375,-0.0848,-0.7539,-5.5500,-0.0062,-0.0819,-0.2248,
10.963351,-0.6291,-0.7752,-0.1375,-0.0848,-0.7539,-5.5500,-0.0587,-0.2182,-0.2169,
10.965551,-0.6291,-0.7752,-0.1375,-0.5543,-0.8031,-5.6523,-0.0587,-0.2182,-0.2169,
11.021708,-0.6443,-0.8488,-0.1317,-0.5543,-0.8031,-5.6523,-0.0587,-0.2182,-0.2169,
11.025538,-0.6443,-0.8488,-0.1317,-0.5543,-0.8031,-5.6523,-0.0966,-0.3556,-0.1662,
11.027356,-0.6443,-0.8488,-0.1317,-0.8465,-1.4281,-5.6277,-0.0966,-0.3556,-0.1662,
11.081131,-0.6147,-0.8839,-0.1266,-0.8465,-1.4281,-5.6277,-0.0966,-0.3556,-0.1662,
11.084539,-0.6147,-0.8839,-0.1266,-0.8465,-1.4281,-5.6277,0.0842,-0.0715,-0.1173,
11.086753,-0.6147,-0.8839,-0.1266,-0.6591,-1.7105,-5.6056,0.0842,-0.0715,-0.1173,
11.141151,-0.6101,-0.8573,-0.1192,-0.6591,-1.7105,-5.6056,0.0842,-0.0715,-0.1173,
11.145277,-0.6101,-0.8573,-0.1192,-0.6591,-1.7105,-5.6056,0.2663,-0.1033,-0.2242,
11.147651,-0.6101,-0.8573,-0.1192,-0.6901,-1.4425,-5.6151,0.2663,-0.1033,-0.2242,
11.201252,-0.6237,-0.8392,-0.0606,-0.6901,-1.4425,-5.6151,0.2663,-0.1033,-0.2242,
11.204811,-0.6237,-0.8392,-0.0606,-0.6901,-1.4425,-5.6151,0.1520,-0.3012,-0.0800,
11.206879,-0.6237,-0.8392,-0.0606,-0.9518,-1.2483,-5.1621,0.1520,-0.3012,-0.0800,
11.259672,-0.6000,-0.9201,0.2624,-0.9518,-1.2483,-5.1621,0.1520,-0.3012,-0.0800,
11.262099,-0.6000,-0.9201,0.2624,-0.9518,-1.2483,-5.1621,0.4788,-0.0532,0.4172,
11.264305,-0.6000,-0.9201,0.2624,-0.7348,-2.1129,-2.1220,0.4788,-0.0532,0.4172,
11.321026,-0.4876,-0.9453,0.0428,-0.7348,-2.1129,-2.1220,0.4788,-0.0532,0.4172,
11.324871,-0.4876,-0.9453,0.0428,-0.7348,-2.1129,-2.1220,2.4550,0.8393,1.0098,
11.327174,-0.4876,-0.9453,0.0428,0.7092,-3.0519,-4.8221,2.4550,0.8393,1.0098,
11.379989,-0.5165,-1.0154,0.0210,0.7092,-3.0519,-4.8221,2.4550,0.8393,1.0098,
11.383225,-0.5165,-1.0154,0.0210,0.7092,-3.0519,-4.8221,1.4544,0.0366,1.4319,
11.385433,-0.5165,-1.0154,0.0210,1.0753,-4.7713,-5.4229,1.4544,0.0366,1.4319,
11.441078,-0.4720,-0.8329,0.0203,1.0753,-4.7713,-5.4229,1.4544,0.0366,1.4319,
11.444556,-0.4720,-0.8329,0.0203,1.0753,-4.7713,-5.4229,0.3335,0.0714,0.7410,
11.446798,-0.4720,-0.8329,0.0203,1.8811,-3.7502,-5.6637,0.3335,0.0714,0.7410,
11.501141,-0.4962,-0.7276,0.0100,1.8811,-3.7502,-5.6637,0.3335,0.0714,0.7410,
11.504829,-0.4962,-0.7276,0.0100,1.8811,-3.7502,-5.6637,0.1056,-0.3208,0.3848,
11.507155,-0.4962,-0.7276,0.0100,1.7623,-2.9832,-5.8249,0.1056,-0.3208,0.3848,
11.560707,-0.5495,-0.7310,0.0801,1.7623,-2.9832,-5.8249,0.1056,-0.3208,0.3848,
11.564181,-0.5495,-0.7310,0.0801,1.7623,-2.9832,-5.8249,-0.4515,-0.0404,0.2334,
11.566102,-0.5495,-0.7310,0.0801,1.2098,-3.0455,-5.1914,-0.4515,-0.0404,0.2334,
11.620585,-0.5495,-0.7310,0.0801,1.2098,-3.0455,-5.1914,-0.2285,0.1129,0.1655,
11.624219,-0.5495,-0.7310,0.0801,1.2935,-2.9821,-5.0528,-0.2285,0.1129,0.1655,
11.626894,-0.5546,-0.6794,0.1063,1.2935,-2.9821,-5.0528,-0.2285,0.1129,0.1655,
11.680942,-0.5199,-0.7950,0.0828,1.2935,-2.9821,-5.0528,-0.2285,0.1129,0.1655,
11.684176,-0.5199,-0.7950,0.0828,1.2935,-2.9821,-5.0528,-0.4594,-0.2298,-0.1148,
11.686408,-0.5199,-0.7950,0.0828,1.6179,-3.5019,-4.9074,-0.4594,-0.2298,-0.1148,
11.741222,-0.7075,-0.7151,0.1393,1.6179,-3.5019,-4.9074,-0.4594,-0.2298,-0.1148,
11.744533,-0.7075,-0.7151,0.1393,1.6179,-3.5019,-4.9074,-0.6574,-0.5034,-0.2572,
11.746736,-0.7075,-0.7151,0.1393,-0.4109,-2.4087,-4.3332,-0.6574,-0.5034,-0.2572,
11.803971,-0.6675,-0.6631,0.1160,-0.4109,-2.4087,-4.3332,-0.6574,-0.5034,-0.2572,
11.807368,-0.6675,-0.6631,0.1160,-0.4109,-2.4087,-4.3332,-0.3354,-0.0966,-0.0690,
11.809409,-0.6675,-0.6631,0.1160,-0.1573,-1.6299,-4.4944,-0.3354,-0.0966,-0.0690,
11.861251,-0.4718,-0.7569,0.0669,-0.1573,-1.6299,-4.4944,-0.3354,-0.0966,-0.0690,
11.865049,-0.4718,-0.7569,0.0669,-0.1573,-1.6299,-4.4944,-0.3519,-0.0483,-0.1081,
11.866589,-0.4718,-0.7569,0.0669,1.7128,-2.4191,-4.9155,-0.3519,-0.0483,-0.1081,
11.922126,-0.5964,-0.8575,0.0894,1.7128,-2.4191,-4.9155,-0.3519,-0.0483,-0.1081,
11.926155,-0.5964,-0.8575,0.0894,1.7128,-2.4191,-4.9155,-0.3635,0.1746,-0.5467,
11.927917,-0.5964,-0.8575,0.0894,0.4099,-3.1343,-4.5352,-0.3635,0.1746,-0.5467,
11.980581,-0.6404,-0.8192,0.1165,0.4099,-3.1343,-4.5352,-0.3635,0.1746,-0.5467,
11.984724,-0.6404,-0.8192,0.1165,0.4099,-3.1343,-4.5352,-0.4442,0.3536,-0.5883,
11.987048,-0.6404,-0.8192,0.1165,-0.1207,-2.3941,-4.0104,-0.4442,0.3536,-0.5883,
12.042692,-0.8292,-0.8434,0.1732,-0.1207,-2.3941,-4.0104,-0.4442,0.3536,-0.5883,
12.045691,-0.8292,-0.8434,0.1732,-0.1207,-2.3941,-4.0104,-0.0893,0.4733,-0.2718,
12.047506,-0.8292,-0.8434,0.1732,-2.0222,-2.3098,-3.1446,-0.0893,0.4733,-0.2718,
12.101965,-0.5839,-0.7527,-0.0770,-2.0222,-2.3098,-3.1446,-0.0893,0.4733,-0.2718,
12.105215,-0.5839,-0.7527,-0.0770,-2.0222,-2.3098,-3.1446,-0.4686,-0.2847,0.1723,
12.107836,-0.5839,-0.7527,-0.0770,0.4490,-1.3544,-5.4247,-0.4686,-0.2847,0.1723,
12.159621,-0.4930,-0.8639,-0.0366,0.4490,-1.3544,-5.4247,-0.4686,-0.2847,0.1723,
12.162502,-0.4930,-0.8639,-0.0366,0.4490,-1.3544,-5.4247,-0.6732,-0.8797,0.2413,
12.163982,-0.4930,-0.8639,-0.0366,1.2434,-2.3350,-5.0146,-0.6732,-0.8797,0.2413,
12.221582,-0.4283,-0.8541,-0.1361,1.2434,-2.3350,-5.0146,-0.6732,-0.8797,0.2413,
12.225815,-0.4283,-0.8541,-0.1361,1.2434,-2.3350,-5.0146,-0.3513,-0.3012,0.0293,
12.227828,-0.4283,-0.8541,-0.1361,1.7697,-2.1370,-5.9933,-0.3513,-0.3012,0.0293,
12.281389,-0.5971,-0.7857,-0.1849,1.7697,-2.1370,-5.9933,-0.3513,-0.3012,0.0293,
12.284663,-0.5971,-0.7857,-0.1849,1.7697,-2.1370,-5.9933,-0.3165,-0.4289,-0.4612,
12.286778,-0.5971,-0.7857,-0.1849,-0.0378,-1.2890,-6.4240,-0.3165,-0.4289,-0.4612,
12.341158,-0.7601,-0.7271,-0.1287,-0.0378,-1.2890,-6.4240,-0.3165,-0.4289,-0.4612,
12.344231,-0.7601,-0.7271,-0.1287,-0.0378,-1.2890,-6.4240,-0.6867,-0.5053,-0.5840,
12.346687,-0.7601,-0.7271,-0.1287,-2.0009,-0.3768,-5.8386,-0.6867,-0.5053,-0.5840,
12.401242,-0.6482,-0.7437,-0.0469,-2.0009,-0.3768,-5.8386,-0.6867,-0.5053,-0.5840,
12.404459,-0.6482,-0.7437,-0.0469,-2.0009,-0.3768,-5.8386,-0.7582,0.1319,0.0837,
12.406198,-0.6482,-0.7437,-0.0469,-1.0907,-0.2103,-4.7481,-0.7582,0.1319,0.0837,
12.461420,-0.5763,-0.8290,0.0002,-1.0907,-0.2103,-4.7481,-0.7582,0.1319,0.0837,
12.464938,-0.5763,-0.8290,0.0002,-1.0907,-0.2103,-4.7481,-0.0990,0.4422,0.1319,
12.466821,-0.5763,-0.8290,0.0002,-0.2597,-0.9567,-3.9684,-0.0990,0.4422,0.1319,
12.520987,-0.5883,-0.7840,-0.0814,-0.2597,-0.9567,-3.9684,-0.0990,0.4422,0.1319,
12.524729,-0.5883,-0.7840,-0.0814,-0.2597,-0.9567,-3.9684,0.3102,0.5986,-0.2291,
12.526822,-0.5883,-0.7840,-0.0814,-0.2325,-0.5427,-4.6140,0.3102,0.5986,-0.2291,
12.582348,-0.6645,-0.7557,-0.1840,-0.2325,-0.5427,-4.6140,0.3102,0.5986,-0.2291,
12.586436,-0.6645,-0.7557,-0.1840,-0.2325,-0.5427,-4.6140,-0.2065,-0.3513,-0.2810,
12.588524,-0.6645,-0.7557,-0.1840,-1.0364,-0.1901,-5.5605,-0.2065,-0.3513,-0.2810,
12.641475,-0.5866,-0.8038,-0.0953,-1.0364,-0.1901,-5.5605,-0.2065,-0.3513,-0.2810,
12.646041,-0.5866,-0.8038,-0.0953,-1.0364,-0.1901,-5.5605,-0.4460,-0.5541,0.0550,
12.648607,-0.5866,-0.8038,-0.0953,-0.4696,-0.5190,-4.6962,-0.4460,-0.5541,0.0550,
12.701161,-0.5126,-0.8629,-0.1673,-0.4696,-0.5190,-4.6962,-0.4460,-0.5541,0.0550,
12.704765,-0.5126,-0.8629,-0.1673,-0.4696,-0.5190,-4.6962,-0.0251,0.0916,-0.0886,
12.706756,-0.5126,-0.8629,-0.1673,0.2329,-1.0378,-5.3148,-0.0251,0.0916,-0.0886,
12.760287,-0.6091,-0.9536,-0.2355,0.2329,-1.0378,-5.3148,-0.0251,0.0916,-0.0886,
12.763556,-0.6091,-0.9536,-0.2355,0.2329,-1.0378,-5.3148,0.3518,0.1801,-0.3152,
12.765410,-0.6091,-0.9536,-0.2355,-0.7535,-1.8897,-5.9671,0.3518,0.1801,-0.3152,
12.821142,-0.6301,-0.8790,-0.1925,-0.7535,-1.8897,-5.9671,0.3518,0.1801,-0.3152,
12.824863,-0.6301,-0.8790,-0.1925,-0.7535,-1.8897,-5.9671,0.0873,0.0531,-0.4520,
12.826889,-0.6301,-0.8790,-0.1925,-1.0973,-1.1001,-5.6175,0.0873,0.0531,-0.4520,
12.881429,-0.5871,-0.8175,-0.0985,-1.0973,-1.1001,-5.6175,0.0873,0.0531,-0.4520,
12.885096,-0.5871,-0.8175,-0.0985,-1.0973,-1.1001,-5.6175,-0.0929,0.0299,-0.2712,
12.887272,-0.5871,-0.8175,-0.0985,-0.8488,-0.3597,-4.6482,-0.0929,0.0299,-0.2712,
12.940865,-0.5597,-0.8619,-0.0515,-0.8488,-0.3597,-4.6482,-0.0929,0.0299,-0.2712,
12.943820,-0.5597,-0.8619,-0.0515,-0.8488,-0.3597,-4.6482,0.2846,0.2876,-0.0788,
12.946363,-0.5597,-0.8619,-0.0515,-0.6363,-0.7337,-4.1331,0.2846,0.2876,-0.0788,
13.001061,-0.5221,-0.8905,-0.0638,-0.6363,-0.7337,-4.1331,0.2846,0.2876,-0.0788,
13.004774,-0.5221,-0.8905,-0.0638,-0.6363,-0.7337,-4.1331,0.7293,0.6059,0.1313,
13.007412,-0.5221,-0.8905,-0.0638,-0.1635,-1.1166,-4.3283,0.7293,0.6059,0.1313,
13.061868,-0.4222,-0.8744,-0.0916,-0.1635,-1.1166,-4.3283,0.7293,0.6059,0.1313,
13.065163,-0.4222,-0.8744,-0.0916,-0.1635,-1.1166,-4.3283,0.7409,0.6847,0.2950,
13.067466,-0.4222,-0.8744,-0.0916,1.0673,-1.1875,-4.7181,0.7409,0.6847,0.2950,
13.119434,-0.3237,-0.9501,0.0936,1.0673,-1.1875,-4.7181,0.7409,0.6847,0.2950,
13.123032,-0.3237,-0.9501,0.0936,1.0673,-1.1875,-4.7181,0.9681,-0.1100,0.0568,
13.126616,-0.3237,-0.9501,0.0936,2.2364,-2.1531,-3.0421,0.9681,-0.1100,0.0568,
13.181165,-0.4102,-0.8869,-0.1815,2.2364,-2.1531,-3.0421,0.9681,-0.1100,0.0568,
13.185337,-0.4102,-0.8869,-0.1815,2.2364,-2.1531,-3.0421,0.5240,-0.0483,-0.1081,
13.186780,-0.4102,-0.8869,-0.1815,1.4035,-1.7381,-6.0697,0.5240,-0.0483,-0.1081,
13.240546,-0.4422,-0.8414,-0.0562,1.4035,-1.7381,-6.0697,0.5240,-0.0483,-0.1081,
13.243650,-0.4422,-0.8414,-0.0562,1.4035,-1.7381,-6.0697,-0.1662,-0.3318,-0.0929,
13.245733,-0.4422,-0.8414,-0.0562,0.9405,-1.2868,-5.0144,-0.1662,-0.3318,-0.0929,
13.300954,-0.4197,-0.8937,0.0342,0.9405,-1.2868,-5.0144,-0.1662,-0.3318,-0.0929,
13.304193,-0.4197,-0.8937,0.0342,0.9405,-1.2868,-5.0144,0.1209,-0.0740,0.0464,
13.306243,-0.4197,-0.8937,0.0342,1.1003,-1.7407,-4.1080,0.1209,-0.0740,0.0464,
13.360019,-0.3765,-0.9311,-0.0120,1.1003,-1.7407,-4.1080,0.1209,-0.0740,0.0464,
13.363561,-0.3765,-0.9311,-0.0120,1.1003,-1.7407,-4.1080,0.1746,0.3133,0.0293,
13.365988,-0.3765,-0.9311,-0.0120,1.5617,-2.1643,-4.6062,0.1746,0.3133,0.0293,
13.420988,-0.4222,-0.9071,0.0362,1.5617,-2.1643,-4.6062,0.1746,0.3133,0.0293,
13.424992,-0.4222,-0.9071,0.0362,1.5617,-2.1643,-4.6062,0.1209,-0.0245,-0.0929,
13.427206,-0.4222,-0.9071,0.0362,1.1258,-1.9349,-4.1288,0.1209,-0.0245,-0.0929,
13.481076,-0.4417,-0.9015,0.0042,1.1258,-1.9349,-4.1288,0.1209,-0.0245,-0.0929,
13.484454,-0.4417,-0.9015,0.0042,1.1258,-1.9349,-4.1288,0.1135,-0.0050,-0.0751,
13.486704,-0.4417,-0.9015,0.0042,0.8817,-1.8685,-4.4859,0.1135,-0.0050,-0.0751,
13.541251,-0.4361,-0.8700,0.0078,0.8817,-1.8685,-4.4859,0.1135,-0.0050,-0.0751,
13.545084,-0.4361,-0.8700,0.0078,0.8817,-1.8685,-4.4859,0.0842,0.0054,-0.0018,
13.546902,-0.4361,-0.8700,0.0078,0.9219,-1.5541,-4.4587,0.0842,0.0054,-0.0018,
13.600956,-0.3975,-0.8624,0.0059,0.9219,-1.5541,-4.4587,0.0842,0.0054,-0.0018,
13.604608,-0.3975,-0.8624,0.0059,0.9219,-1.5541,-4.4587,-0.0068,-0.0349,0.0495,
13.606594,-0.3975,-0.8624,0.0059,1.3150,-1.4841,-4.4674,-0.0068,-0.0349,0.0495,
13.659829,-0.4073,-0.8869,0.0193,1.3150,-1.4841,-4.4674,-0.0068,-0.0349,0.0495,
13.664750,-0.4073,-0.8869,0.0193,1.3150,-1.4841,-4.4674,-0.0996,-0.0825,0.0996,
13.666329,-0.4073,-0.8869,0.0193,1.2262,-1.7120,-4.3097,-0.0996,-0.0825,0.0996,
13.720882,-0.4312,-0.9113,-0.0064,1.2262,-1.7120,-4.3097,-0.0996,-0.0825,0.0996,
13.724271,-0.4312,-0.9113,-0.0064,1.2262,-1.7120,-4.3097,-0.1870,-0.0838,0.1399,
13.726191,-0.4312,-0.9113,-0.0064,1.0111,-1.9360,-4.5143,-0.1870,-0.0838,0.1399,
13.781178,-0.3924,-0.8793,0.0396,1.0111,-1.9360,-4.5143,-0.1870,-0.0838,0.1399,
13.784546,-0.3924,-0.8793,0.0396,1.0111,-1.9360,-4.5143,-0.1613,-0.0544,0.1991,
13.786670,-0.3924,-0.8793,0.0396,1.4473,-1.6048,-3.9698,-0.1613,-0.0544,0.1991,
13.840981,-0.3782,-0.8729,-0.0213,1.4473,-1.6048,-3.9698,-0.1613,-0.0544,0.1991,
13.845095,-0.3782,-0.8729,-0.0213,1.4473,-1.6048,-3.9698,-0.2011,-0.0496,0.2059,
13.847443,-0.3782,-0.8729,-0.0213,1.6503,-1.5488,-4.4970,-0.2011,-0.0496,0.2059,
13.899912,-0.4021,-0.8624,-0.0445,1.6503,-1.5488,-4.4970,-0.2011,-0.0496,0.2059,
13.903010,-0.4021,-0.8624,-0.0445,1.6503,-1.5488,-4.4970,-0.3580,-0.0434,0.2071,
13.905150,-0.4021,-0.8624,-0.0445,1.4781,-1.4239,-4.6087,-0.3580,-0.0434,0.2071,
13.961390,-0.4170,-0.8637,-0.0777,1.4781,-1.4239,-4.6087,-0.3580,-0.0434,0.2071,
13.965359,-0.4170,-0.8637,-0.0777,1.4781,-1.4239,-4.6087,-0.4485,0.0775,0.2260,
13.967466,-0.4170,-0.8637,-0.0777,1.4218,-1.3940,-4.7416,-0.4485,0.0775,0.2260,
14.022304,-0.4683,-0.8480,-0.0865,1.4218,-1.3940,-4.7416,-0.4485,0.0775,0.2260,
14.025557,-0.4683,-0.8480,-0.0865,1.4218,-1.3940,-4.7416,-0.6855,0.1172,0.1582,
14.027517,-0.4683,-0.8480,-0.0865,1.0307,-1.1678,-4.5303,-0.6855,0.1172,0.1582,
14.081255,-0.5549,-0.9489,-0.1307,1.0307,-1.1678,-4.5303,-0.6855,0.1172,0.1582,
14.083994,-0.5549,-0.9489,-0.1307,1.0307,-1.1678,-4.5303,-0.9316,-0.0428,0.1747,
14.086075,-0.5549,-0.9489,-0.1307,0.2715,-2.0394,-4.5780,-0.9316,-0.0428,0.1747,
14.140778,-0.5184,-0.9528,0.0547,0.2715,-2.0394,-4.5780,-0.9316,-0.0428,0.1747,
14.144956,-0.5184,-0.9528,0.0547,0.2715,-2.0394,-4.5780,-1.0214,-0.4454,0.1576,
14.147218,-0.5184,-0.9528,0.0547,0.6514,-1.9334,-2.3772,-1.0214,-0.4454,0.1576,
14.200988,-0.5277,-0.9347,-0.1004,0.6514,-1.9334,-2.3772,-1.0214,-0.4454,0.1576,
14.204332,-0.5277,-0.9347,-0.1004,0.6514,-1.9334,-2.3772,0.4507,0.1655,-0.0018,
14.206321,-0.5277,-0.9347,-0.1004,0.5716,-1.7234,-3.7900,0.4507,0.1655,-0.0018,
14.261127,-0.6372,-0.7515,-0.2700,0.5716,-1.7234,-3.7900,0.4507,0.1655,-0.0018,
14.264259,-0.6372,-0.7515,-0.2700,0.5716,-1.7234,-3.7900,0.0048,-0.7765,-0.3855,
14.266362,-0.6372,-0.7515,-0.2700,-0.5775,0.0746,-5.5971,0.0048,-0.7765,-0.3855,
14.321024,-0.9528,-0.9125,-0.1209,-0.5775,0.0746,-5.5971,0.0048,-0.7765,-0.3855,
14.324047,-0.9528,-0.9125,-0.1209,-0.5775,0.0746,-5.5971,-0.2792,-0.8083,-0.6585,
14.326259,-0.9528,-0.9125,-0.1209,-4.1258,-1.2717,-4.3729,-0.2792,-0.8083,-0.6585,
14.380755,-0.6887,-0.5446,-0.0630,-4.1258,-1.2717,-4.3729,-0.2792,-0.8083,-0.6585,
14.383986,-0.6887,-0.5446,-0.0630,-4.1258,-1.2717,-4.3729,-0.1723,-0.1632,0.1985,
14.385667,-0.6887,-0.5446,-0.0630,-1.7589,2.4733,-3.8213,-0.1723,-0.1632,0.1985,
14.441355,-0.6179,-0.8639,-0.0638,-1.7589,2.4733,-3.8213,-0.1723,-0.1632,0.1985,
14.444195,-0.6179,-0.8639,-0.0638,-1.7589,2.4733,-3.8213,0.3145,0.3109,0.6304,
14.446315,-0.6179,-0.8639,-0.0638,-0.8467,-0.7750,-3.7691,0.3145,0.3109,0.6304,
14.501307,-0.4664,-0.8483,-0.0718,-0.8467,-0.7750,-3.7691,0.3145,0.3109,0.6304,
14.505545,-0.4664,-0.8483,-0.0718,-0.8467,-0.7750,-3.7691,0.7140,1.1771,0.6695,
14.507702,-0.4664,-0.8483,-0.0718,1.0697,-0.9346,-3.8531,0.7140,1.1771,0.6695,
14.562744,-0.5104,-0.8273,-0.1219,1.0697,-0.9346,-3.8531,0.7140,1.1771,0.6695,
14.568097,-0.5104,-0.8273,-0.1219,1.0697,-0.9346,-3.8531,0.7207,0.7776,-0.0849,
14.570415,-0.5104,-0.8273,-0.1219,1.0008,-0.9742,-4.2381,0.7207,0.7776,-0.0849,
14.619985,-0.6318,-0.7173,-0.0467,1.0008,-0.9742,-4.2381,0.7207,0.7776,-0.0849,
14.623004,-0.6318,-0.7173,-0.0467,1.0008,-0.9742,-4.2381,0.3530,0.3176,-0.2963,
14.625294,-0.6318,-0.7173,-0.0467,-0.2020,0.0865,-3.5644,0.3530,0.3176,-0.2963,
14.682180,-0.6777,-0.7532,-0.1275,-0.2020,0.0865,-3.5644,0.3530,0.3176,-0.2963,
14.685617,-0.6777,-0.7532,-0.1275,-0.2020,0.0865,-3.5644,0.2272,-0.0734,-0.0831,
14.687041,-0.6777,-0.7532,-0.1275,-0.6733,-0.2359,-4.3297,0.2272,-0.0734,-0.0831,
14.739613,-0.6587,-0.8275,-0.0985,-0.6733,-0.2359,-4.3297,0.2272,-0.0734,-0.0831,
14.742998,-0.6587,-0.8275,-0.0985,-0.6733,-0.2359,-4.3297,0.1368,-0.1345,0.0067,
14.745278,-0.6587,-0.8275,-0.0985,-0.5415,-0.9880,-4.2030,0.1368,-0.1345,0.0067,
14.801307,-0.5944,-0.7654,-0.1148,-0.5415,-0.9880,-4.2030,0.1368,-0.1345,0.0067,
14.805955,-0.5944,-0.7654,-0.1148,-0.5415,-0.9880,-4.2030,0.2705,0.0396,0.0415,
14.808917,-0.5944,-0.7654,-0.1148,0.1016,-0.4139,-4.4130,0.2705,0.0396,0.0415,
14.859836,-0.5883,-0.7979,-0.1168,0.1016,-0.4139,-4.4130,0.2705,0.0396,0.0415,
14.862605,-0.5883,-0.7979,-0.1168,0.1016,-0.4139,-4.4130,0.2149,0.1404,0.1155,
14.864070,-0.5883,-0.7979,-0.1168,0.2056,-0.8027,-4.5024,0.2149,0.1404,0.1155,
14.920152,-0.6030,-0.8263,-0.0757,0.2056,-0.8027,-4.5024,0.2149,0.1404,0.1155,
14.923181,-0.6030,-0.8263,-0.0757,0.2056,-0.8027,-4.5024,0.0848,-0.0184,0.1405,
14.925294,-0.6030,-0.8263,-0.0757,0.1402,-1.1460,-4.0965,0.0848,-0.0184,0.1405,
14.981401,-0.6018,-0.7952,-0.0398,0.1402,-1.1460,-4.0965,0.0848,-0.0184,0.1405,
14.984639,-0.6018,-0.7952,-0.0398,0.1402,-1.1460,-4.0965,0.0757,-0.0832,0.1399,
14.986571,-0.6018,-0.7952,-0.0398,0.2023,-0.9019,-3.7776,0.0757,-0.0832,0.1399,
15.041033,-0.5837,-0.8087,-0.0393,0.2023,-0.9019,-3.7776,0.0757,-0.0832,0.1399,
15.044227,-0.5837,-0.8087,-0.0393,0.2023,-0.9019,-3.7776,0.1679,-0.1253,0.1301,
15.046352,-0.5837,-0.8087,-0.0393,0.4180,-1.0913,-3.8196,0.1679,-0.1253,0.1301,
15.100206,-0.5727,-0.8192,-0.0662,0.4180,-1.0913,-3.8196,0.1679,-0.1253,0.1301,
15.103784,-0.5727,-0.8192,-0.0662,0.4180,-1.0913,-3.8196,0.2510,-0.1730,0.0880,
15.105814,-0.5727,-0.8192,-0.0662,0.5368,-1.2718,-4.2141,0.2510,-0.1730,0.0880,
15.160604,-0.5961,-0.8380,-0.0716,0.5368,-1.2718,-4.2141,0.2510,-0.1730,0.0880,
15.164151,-0.5961,-0.8380,-0.0716,0.5368,-1.2718,-4.2141,0.1239,-0.0990,0.0959,
15.165677,-0.5961,-0.8380,-0.0716,0.3164,-1.5202,-4.3699,0.1239,-0.0990,0.0959,
15.220776,-0.5619,-0.8356,0.1349,0.3164,-1.5202,-4.3699,0.1239,-0.0990,0.0959,
15.225262,-0.5619,-0.8356,0.1349,0.3164,-1.5202,-4.3699,0.1190,0.2198,0.3042,
15.227084,-0.5619,-0.8356,0.1349,0.6973,-1.5629,-2.3904,0.1190,0.2198,0.3042,
15.280862,-0.5443,-0.9540,0.2475,0.6973,-1.5629,-2.3904,0.1190,0.2198,0.3042,
15.285000,-0.5443,-0.9540,0.2475,0.6973,-1.5629,-2.3904,1.5918,1.0769,0.8283,
15.287080,-0.5443,-0.9540,0.2475,1.2315,-3.0570,-1.2433,1.5918,1.0769,0.8283,
15.342719,-0.5358,-0.7786,0.0315,1.2315,-3.0570,-1.2433,1.5918,1.0769,0.8283,
15.346605,-0.5358,-0.7786,0.0315,1.2315,-3.0570,-1.2433,1.2760,1.4019,0.3690,
15.348739,-0.5358,-0.7786,0.0315,1.9197,-1.9931,-3.2930,1.2760,1.4019,0.3690,
15.401146,-0.7513,-0.6914,-0.2582,1.9197,-1.9931,-3.2930,1.2760,1.4019,0.3690,
15.404567,-0.7513,-0.6914,-0.2582,1.9197,-1.9931,-3.2930,0.0873,-0.6488,-0.5412,
15.406562,-0.7513,-0.6914,-0.2582,-0.1232,-1.2699,-6.1978,0.0873,-0.6488,-0.5412,
15.459670,-0.6606,-0.4977,0.0684,-0.1232,-1.2699,-6.1978,0.0873,-0.6488,-0.5412,
15.462770,-0.6606,-0.4977,0.0684,-0.1232,-1.2699,-6.1978,-1.1900,-1.7136,-0.4178,
15.464882,-0.6606,-0.4977,0.0684,0.2939,1.0146,-3.2858,-1.1900,-1.7136,-0.4178,
15.519873,-0.3484,-0.9321,0.1600,0.2939,1.0146,-3.2858,-1.1900,-1.7136,-0.4178,
15.523095,-0.3484,-0.9321,0.1600,0.2939,1.0146,-3.2858,0.2198,-0.0844,-0.2767,
15.525110,-0.3484,-0.9321,0.1600,2.9625,-2.9086,-2.5245,0.2198,-0.0844,-0.2767,
15.579650,-0.2756,-1.0352,-0.0909,2.9625,-2.9086,-2.5245,0.2198,-0.0844,-0.2767,
15.582657,-0.2756,-1.0352,-0.0909,2.9625,-2.9086,-2.5245,0.2027,2.1099,-0.5877,
15.584459,-0.2756,-1.0352,-0.0909,3.8363,-3.9092,-4.7064,0.2027,2.1099,-0.5877,
15.640621,-0.3914,-0.9665,0.1090,3.8363,-3.9092,-4.7064,0.2027,2.1099,-0.5877,
15.643805,-0.3914,-0.9665,0.1090,3.8363,-3.9092,-4.7064,-0.3477,-0.1302,-1.0562,
15.645761,-0.3914,-0.9665,0.1090,2.5866,-2.8685,-2.2973,-0.3477,-0.1302,-1.0562,
15.701073,-0.4991,-0.8615,0.0398,2.5866,-2.8685,-2.2973,-0.3477,-0.1302,-1.0562,
15.704764,-0.4991,-0.8615,0.0398,2.5866,-2.8685,-2.2973,-0.4155,-0.3923,-1.1912,
15.706987,-0.4991,-0.8615,0.0398,0.9893,-1.3179,-2.9009,-0.4155,-0.3923,-1.1912,
15.761121,-0.5722,-0.9059,0.1168,0.9893,-1.3179,-2.9009,-0.4155,-0.3923,-1.1912,
15.764984,-0.5722,-0.9059,0.1168,0.9893,-1.3179,-2.9009,-0.1320,0.3487,-0.6585,
15.767166,-0.5722,-0.9059,0.1168,-0.1931,-1.3535,-2.0550,-0.1320,0.3487,-0.6585,
15.821325,-0.5702,-0.7102,-0.1588,-0.1931,-1.3535,-2.0550,-0.1320,0.3487,-0.6585,
15.824636,-0.5702,-0.7102,-0.1588,-0.1931,-1.3535,-2.0550,-0.2450,0.0011,-0.4502,
15.826689,-0.5702,-0.7102,-0.1588,-0.3540,0.7628,-4.5773,-0.2450,0.0011,-0.4502,
15.881471,-0.5717,-0.7896,-0.0459,-0.3540,0.7628,-4.5773,-0.2450,0.0011,-0.4502,
15.884840,-0.5717,-0.7896,-0.0459,-0.3540,0.7628,-4.5773,-0.8516,0.3390,0.1973,
15.886561,-0.5717,-0.7896,-0.0459,-0.4433,0.1357,-3.1977,-0.8516,0.3390,0.1973,
15.941071,-0.5189,-0.8707,-0.0777,-0.4433,0.1357,-3.1977,-0.8516,0.3390,0.1973,
15.944311,-0.5189,-0.8707,-0.0777,-0.4433,0.1357,-3.1977,-0.7209,0.1093,0.4465,
15.946253,-0.5189,-0.8707,-0.0777,0.2679,-0.6323,-3.0167,-0.7209,0.1093,0.4465,
16.000488,-0.4549,-0.9575,-0.0936,0.2679,-0.6323,-3.0167,-0.7209,0.1093,0.4465,
16.003619,-0.4549,-0.9575,-0.0936,0.2679,-0.6323,-3.0167,-0.4784,-0.0257,0.5034,
16.005534,-0.4549,-0.9575,-0.0936,1.1335,-1.5545,-2.8189,-0.4784,-0.0257,0.5034,
16.061274,-0.4571,-0.9387,-0.1388,1.1335,-1.5545,-2.8189,-0.4784,-0.0257,0.5034,
16.064575,-0.4571,-0.9387,-0.1388,1.1335,-1.5545,-2.8189,-0.2682,-0.2072,0.2792,
16.066534,-0.4571,-0.9387,-0.1388,1.2818,-1.4610,-3.1213,-0.2682,-0.2072,0.2792,
16.119879,-0.5566,-0.8527,-0.1639,1.2818,-1.4610,-3.1213,-0.2682,-0.2072,0.2792,
16.123304,-0.5566,-0.8527,-0.1639,1.2818,-1.4610,-3.1213,0.0354,-0.1632,0.0977,
16.125425,-0.5566,-0.8527,-0.1639,0.3636,-0.6546,-3.3414,0.0354,-0.1632,0.0977,
16.180669,-0.7393,-1.0024,-0.1603,0.3636,-0.6546,-3.3414,0.0354,-0.1632,0.0977,
16.184251,-0.7393,-1.0024,-0.1603,0.3636,-0.6546,-3.3414,0.3090,0.0250,0.0898,
16.186291,-0.7393,-1.0024,-0.1603,-1.3913,-2.1738,-3.4094,0.3090,0.0250,0.0898,
16.240616,-0.5678,-0.6946,-0.1502,-1.3913,-2.1738,-3.4094,0.3090,0.0250,0.0898,
16.243778,-0.5678,-0.6946,-0.1502,-1.3913,-2.1738,-3.4094,0.0396,0.1392,0.1649,
16.245739,-0.5678,-0.6946,-0.1502,0.3733,0.7690,-3.3480,0.0396,0.1392,0.1649,
16.300107,-0.6162,-0.7982,-0.1143,0.3733,0.7690,-3.3480,0.0396,0.1392,0.1649,
16.303160,-0.6162,-0.7982,-0.1143,0.3733,0.7690,-3.3480,-0.0153,-0.2304,0.2798,
16.305182,-0.6162,-0.7982,-0.1143,-0.0233,-0.3097,-3.0046,-0.0153,-0.2304,0.2798,
16.359959,-0.4999,-0.8334,-0.1471,-0.0233,-0.3097,-3.0046,-0.0153,-0.2304,0.2798,
16.362788,-0.4999,-0.8334,-0.1471,-0.0233,-0.3097,-3.0046,0.0799,0.1392,0.2340,
16.364072,-0.4999,-0.8334,-0.1471,1.2437,-0.7626,-3.3429,0.0799,0.1392,0.2340,
16.420624,-0.5512,-0.7938,-0.1659,1.2437,-0.7626,-3.3429,0.0799,0.1392,0.2340,
16.423278,-0.5512,-0.7938,-0.1659,1.2437,-0.7626,-3.3429,0.1478,0.0983,-0.1338,
16.424907,-0.5512,-0.7938,-0.1659,0.7918,-0.4071,-3.4871,0.1478,0.0983,-0.1338,
16.480609,-0.6240,-0.7799,-0.1454,0.7918,-0.4071,-3.4871,0.1478,0.0983,-0.1338,
16.483609,-0.6240,-0.7799,-0.1454,0.7918,-0.4071,-3.4871,-0.1742,-0.0783,-0.1613,
16.486543,-0.6240,-0.7799,-0.1454,-0.0062,-0.1994,-3.2823,-0.1742,-0.0783,-0.1613,
16.539635,-0.5827,-0.8126,-0.0706,-0.0062,-0.1994,-3.2823,-0.1742,-0.0783,-0.1613,
16.542955,-0.5827,-0.8126,-0.0706,-0.0062,-0.1994,-3.2823,0.0433,-0.0111,-0.0116,
16.544803,-0.5827,-0.8126,-0.0706,0.3436,-0.4672,-2.5155,0.0433,-0.0111,-0.0116,
16.601462,-0.5969,-0.7821,-0.1498,0.3436,-0.4672,-2.5155,0.0433,-0.0111,-0.0116,
16.604999,-0.5969,-0.7821,-0.1498,0.3436,-0.4672,-2.5155,0.2962,0.0854,-0.0415,
16.606761,-0.5969,-0.7821,-0.1498,0.2110,-0.1815,-3.3256,0.2962,0.0854,-0.0415,
16.660457,-0.6333,-0.7549,-0.1312,0.2110,-0.1815,-3.3256,0.2962,0.0854,-0.0415,
16.663613,-0.6333,-0.7549,-0.1312,0.2110,-0.1815,-3.3256,-0.0337,-0.1076,-0.1026,
16.665604,-0.6333,-0.7549,-0.1312,-0.1742,0.0961,-3.1881,-0.0337,-0.1076,-0.1026,
16.721799,-0.6079,-0.7813,-0.1138,-0.1742,0.0961,-3.1881,-0.0337,-0.1076,-0.1026,
16.725328,-0.6079,-0.7813,-0.1138,-0.1742,0.0961,-3.1881,-0.1552,-0.2444,-0.0751,
16.727116,-0.6079,-0.7813,-0.1138,0.0131,-0.1164,-3.0307,-0.1552,-0.2444,-0.0751,
16.780894,-0.5715,-0.7999,-0.1116,0.0131,-0.1164,-3.0307,-0.1552,-0.2444,-0.0751,
16.783800,-0.5715,-0.7999,-0.1116,0.0131,-0.1164,-3.0307,-0.1442,-0.1668,-0.0983,
16.786183,-0.5715,-0.7999,-0.1116,0.3137,-0.2513,-2.9972,-0.1442,-0.1668,-0.0983,
16.841168,-0.5952,-0.7847,-0.1104,0.3137,-0.2513,-2.9972,-0.1442,-0.1668,-0.0983,
16.845327,-0.5952,-0.7847,-0.1104,0.3137,-0.2513,-2.9972,-0.1369,-0.2640,-0.1826,
16.847043,-0.5952,-0.7847,-0.1104,-0.0009,-0.0352,-2.9688,-0.1369,-0.2640,-0.1826,
16.900875,-0.5922,-0.7501,-0.0972,-0.0009,-0.0352,-2.9688,-0.1369,-0.2640,-0.1826,
16.905330,-0.5922,-0.7501,-0.0972,-0.0009,-0.0352,-2.9688,-0.1949,-0.3580,-0.2285,
16.907342,-0.5922,-0.7501,-0.0972,-0.0943,0.3918,-2.8577,-0.1949,-0.3580,-0.2285,
16.960023,-0.6176,-0.7818,-0.1222,-0.0943,0.3918,-2.8577,-0.1949,-0.3580,-0.2285,
16.963041,-0.6176,-0.7818,-0.1222,-0.0943,0.3918,-2.8577,-0.2292,-0.6488,-0.1820,
16.964637,-0.6176,-0.7818,-0.1222,-0.5188,0.1961,-3.1464,-0.2292,-0.6488,-0.1820,
17.021257,-0.6159,-0.8817,-0.1544,-0.5188,0.1961,-3.1464,-0.2292,-0.6488,-0.1820,
17.024970,-0.6159,-0.8817,-0.1544,-0.5188,0.1961,-3.1464,-0.4045,-0.6244,-0.1326,
17.027026,-0.6159,-0.8817,-0.1544,-0.6429,-0.6986,-3.5140,-0.4045,-0.6244,-0.1326,
17.079665,-0.6000,-0.9501,-0.1388,-0.6429,-0.6986,-3.5140,-0.4045,-0.6244,-0.1326,
17.082657,-0.6000,-0.9501,-0.1388,-0.6429,-0.6986,-3.5140,-0.1943,-0.3629,-0.0189,
17.084695,-0.6000,-0.9501,-0.1388,-0.5844,-1.2989,-3.3406,-0.1943,-0.3629,-0.0189,
17.140840,-0.5917,-0.9777,-0.0322,-0.5844,-1.2989,-3.3406,-0.1943,-0.3629,-0.0189,
17.144569,-0.5917,-0.9777,-0.0322,-0.5844,-1.2989,-3.3406,0.1679,-0.2524,0.2321,
17.146382,-0.5917,-0.9777,-0.0322,-0.5061,-1.5842,-2.3633,0.1679,-0.2524,0.2321,
17.201070,-0.5033,-1.0105,0.1781,-0.5061,-1.5842,-2.3633,0.1679,-0.2524,0.2321,
17.205516,-0.5033,-1.0105,0.1781,-0.5061,-1.5842,-2.3633,2.1361,0.4715,0.4734,
17.207635,-0.5033,-1.0105,0.1781,0.5169,-2.1024,-0.6276,2.1361,0.4715,0.4734,
17.261981,-0.5341,-0.8710,0.0638,0.5169,-2.1024,-0.6276,2.1361,0.4715,0.4734,
17.264929,-0.5341,-0.8710,0.0638,0.5169,-2.1024,-0.6276,1.3646,0.1441,0.9273,
17.266553,-0.5341,-0.8710,0.0638,0.6127,-1.2620,-2.3884,1.3646,0.1441,0.9273,
17.320247,-0.4964,-0.9465,-0.0562,0.6127,-1.2620,-2.3884,1.3646,0.1441,0.9273,
17.324142,-0.4964,-0.9465,-0.0562,0.6127,-1.2620,-2.3884,0.9119,-0.3477,1.0745,
17.326383,-0.4964,-0.9465,-0.0562,1.3651,-2.6201,-4.1648,0.9119,-0.3477,1.0745,
17.381141,-0.4945,-0.8207,0.0337,1.3651,-2.6201,-4.1648,0.9119,-0.3477,1.0745,
17.385105,-0.4945,-0.8207,0.0337,1.3651,-2.6201,-4.1648,0.3628,0.0244,0.5950,
17.387187,-0.4945,-0.8207,0.0337,1.6564,-1.8434,-3.6019,0.3628,0.0244,0.5950,
17.441030,-0.5226,-0.7361,0.0195,1.6564,-1.8434,-3.6019,0.3628,0.0244,0.5950,
17.444830,-0.5226,-0.7361,0.0195,1.6564,-1.8434,-3.6019,-0.0514,-0.1314,0.3329,
17.447018,-0.5226,-0.7361,0.0195,1.5475,-1.2497,-3.8237,-0.0514,-0.1314,0.3329,
17.501212,-0.5771,-0.6956,0.0535,1.5475,-1.2497,-3.8237,-0.0514,-0.1314,0.3329,
17.505279,-0.5771,-0.6956,0.0535,1.5475,-1.2497,-3.8237,-0.4576,-0.4729,0.2669,
17.507327,-0.5771,-0.6956,0.0535,1.0554,-0.8849,-3.4694,-0.4576,-0.4729,0.2669,
17.561147,-0.5004,-0.7359,0.0445,1.0554,-0.8849,-3.4694,-0.4576,-0.4729,0.2669,
17.564202,-0.5004,-0.7359,0.0445,1.0554,-0.8849,-3.4694,-0.6128,-0.3061,0.1955,
17.566407,-0.5004,-0.7359,0.0445,1.7874,-1.2439,-3.5375,-0.6128,-0.3061,0.1955,
17.620786,-0.5746,-0.7635,0.1385,1.7874,-1.2439,-3.5375,-0.6128,-0.3061,0.1955,
17.624327,-0.5746,-0.7635,0.1385,1.7874,-1.2439,-3.5375,-0.4381,-0.1772,-0.1307,
17.626452,-0.5746,-0.7635,0.1385,1.0237,-1.3970,-2.4959,-0.4381,-0.1772,-0.1307,
17.681478,-0.6750,-0.7071,0.1224,1.0237,-1.3970,-2.4959,-0.4381,-0.1772,-0.1307,
17.684837,-0.6750,-0.7071,0.1224,1.0237,-1.3970,-2.4959,-0.4185,-0.3293,-0.0067,
17.686792,-0.6750,-0.7071,0.1224,-0.0433,-0.6969,-2.5603,-0.4185,-0.3293,-0.0067,
17.740818,-0.5153,-0.8004,0.0882,-0.0433,-0.6969,-2.5603,-0.4185,-0.3293,-0.0067,
17.744792,-0.5153,-0.8004,0.0882,-0.0433,-0.6969,-2.5603,-0.4924,-0.5169,-0.0183,
17.747117,-0.5153,-0.8004,0.0882,1.4344,-1.5046,-2.8697,-0.4924,-0.5169,-0.0183,
17.799497,-0.4825,-0.8717,0.0941,1.4344,-1.5046,-2.8697,-0.4924,-0.5169,-0.0183,
17.802431,-0.4825,-0.8717,0.0941,1.4344,-1.5046,-2.8697,-0.2872,-0.1247,-0.1069,
17.804468,-0.4825,-0.8717,0.0941,1.6357,-2.0785,-2.8037,-0.2872,-0.1247,-0.1069,
17.861653,-0.5822,-0.9460,0.0677,1.6357,-2.0785,-2.8037,-0.2872,-0.1247,-0.1069,
17.865099,-0.5822,-0.9460,0.0677,1.6357,-2.0785,-2.8037,0.0372,0.7782,-0.3726,
17.867267,-0.5822,-0.9460,0.0677,0.6466,-2.6810,-2.8575,0.0372,0.7782,-0.3726,
17.920794,-0.7359,-0.8214,0.1546,0.6466,-2.6810,-2.8575,0.0372,0.7782,-0.3726,
17.924090,-0.7359,-0.8214,0.1546,0.6466,-2.6810,-2.8575,0.2999,1.0592,-0.5437,
17.926230,-0.7359,-0.8214,0.1546,-0.8668,-1.2800,-1.6603,0.2999,1.0592,-0.5437,
17.980320,-0.7334,-0.6643,-0.0909,-0.8668,-1.2800,-1.6603,0.2999,1.0592,-0.5437,
17.983193,-0.7334,-0.6643,-0.0909,-0.8668,-1.2800,-1.6603,-0.1253,-0.2731,-0.2883,
17.984972,-0.7334,-0.6643,-0.0909,-0.9141,0.3816,-3.9430,-0.1253,-0.2731,-0.2883,
18.041077,-0.5732,-0.7772,-0.0379,-0.9141,0.3816,-3.9430,-0.1253,-0.2731,-0.2883,
18.044498,-0.5732,-0.7772,-0.0379,-0.9141,0.3816,-3.9430,-0.6745,-1.0477,-0.0263,
18.046353,-0.5732,-0.7772,-0.0379,0.4626,-0.5826,-3.4912,-0.6745,-1.0477,-0.0263,
18.101080,-0.5961,-0.8373,0.0166,0.4626,-0.5826,-3.4912,-0.6745,-1.0477,-0.0263,
18.104075,-0.5961,-0.8373,0.0166,0.4626,-0.5826,-3.4912,-0.4118,-0.4570,-0.0226,
18.106029,-0.5961,-0.8373,0.0166,0.0671,-1.0423,-2.9906,-0.4118,-0.4570,-0.0226,
18.161478,-0.6140,-0.8167,0.0916,0.0671,-1.0423,-2.9906,-0.4118,-0.4570,-0.0226,
18.164719,-0.6140,-0.8167,0.0916,0.0671,-1.0423,-2.9906,0.1893,0.4092,-0.0189,
18.166641,-0.6140,-0.8167,0.0916,-0.1207,-0.7939,-2.1710,0.1893,0.4092,-0.0189,
18.219287,-0.5974,-0.8006,-0.0469,-0.1207,-0.7939,-2.1710,0.1893,0.4092,-0.0189,
18.222209,-0.5974,-0.8006,-0.0469,-0.1207,-0.7939,-2.1710,-0.0263,-0.1583,0.0360,
18.223982,-0.5974,-0.8006,-0.0469,0.0963,-0.6687,-3.5007,-0.0263,-0.1583,0.0360,
18.280760,-0.5578,-0.8370,0.0293,0.0963,-0.6687,-3.5007,-0.0263,-0.1583,0.0360,
18.283578,-0.5578,-0.8370,0.0293,0.0963,-0.6687,-3.5007,-0.2884,-0.4961,0.0715,
18.285484,-0.5578,-0.8370,0.0293,0.4375,-0.9944,-2.7712,-0.2884,-0.4961,0.0715,
18.340561,-0.5336,-0.8343,0.0410,0.4375,-0.9944,-2.7712,-0.2884,-0.4961,0.0715,
18.344087,-0.5336,-0.8343,0.0410,0.4375,-0.9944,-2.7712,0.1361,0.0677,0.0159,
18.345974,-0.5336,-0.8343,0.0410,0.6458,-0.9568,-2.6850,0.1361,0.0677,0.0159,
18.401123,-0.6142,-0.7828,-0.0015,0.6458,-0.9568,-2.6850,0.1361,0.0677,0.0159,
18.404033,-0.6142,-0.7828,-0.0015,0.6458,-0.9568,-2.6850,0.1881,0.1905,-0.0580,
18.406268,-0.6142,-0.7828,-0.0015,-0.1233,-0.4766,-3.1198,0.1881,0.1905,-0.0580,
18.462243,-0.6638,-0.7825,0.0479,-0.1233,-0.4766,-3.1198,0.1881,0.1905,-0.0580,
18.465658,-0.6638,-0.7825,0.0479,-0.1233,-0.4766,-3.1198,0.0164,0.0018,-0.0483,
18.467479,-0.6638,-0.7825,0.0479,-0.6199,-0.4632,-2.6306,0.0164,0.0018,-0.0483,
18.520534,-0.5930,-0.8036,0.0650,-0.6199,-0.4632,-2.6306,0.0164,0.0018,-0.0483,
18.524467,-0.5930,-0.8036,0.0650,-0.6199,-0.4632,-2.6306,-0.0221,-0.1461,0.0702,
18.526338,-0.5930,-0.8036,0.0650,0.0600,-0.6642,-2.4790,-0.0221,-0.1461,0.0702,
18.581876,-0.5619,-0.8143,0.0674,0.0600,-0.6642,-2.4790,-0.0221,-0.1461,0.0702,
18.585488,-0.5619,-0.8143,0.0674,0.0600,-0.6642,-2.4790,0.1355,-0.0068,0.1228,
18.586812,-0.5619,-0.8143,0.0674,0.3848,-0.8018,-2.4903,0.1355,-0.0068,0.1228,
18.640467,-0.5939,-0.8209,0.0562,0.3848,-0.8018,-2.4903,0.1355,-0.0068,0.1228,
18.644800,-0.5939,-0.8209,0.0562,0.3848,-0.8018,-2.4903,0.3909,0.3182,0.1155,
18.646760,-0.5939,-0.8209,0.0562,0.1607,-0.9574,-2.6372,0.3909,0.3182,0.1155,
18.700475,-0.5561,-0.8045,0.0567,0.1607,-0.9574,-2.6372,0.3909,0.3182,0.1155,
18.703758,-0.5561,-0.8045,0.0567,0.1607,-0.9574,-2.6372,0.3212,0.2095,0.1411,
18.705820,-0.5561,-0.8045,0.0567,0.6316,-0.9024,-2.6760,0.3212,0.2095,0.1411,
18.761002,-0.6128,-0.7786,0.0674,0.6316,-0.9024,-2.6760,0.3212,0.2095,0.1411,
18.763987,-0.6128,-0.7786,0.0674,0.6316,-0.9024,-2.6760,0.4312,0.4025,-0.0134,
18.766171,-0.6128,-0.7786,0.0674,0.1724,-0.7431,-2.5907,0.4312,0.4025,-0.0134,
18.820632,-0.6667,-0.7349,0.1182,0.1724,-0.7431,-2.5907,0.4312,0.4025,-0.0134,
18.823927,-0.6667,-0.7349,0.1182,0.1724,-0.7431,-2.5907,0.4153,0.3738,0.0299,
18.825911,-0.6667,-0.7349,0.1182,-0.2813,-0.3865,-2.1001,0.4153,0.3738,0.0299,
18.879806,-0.7041,-0.7178,0.0459,-0.2813,-0.3865,-2.1001,0.4153,0.3738,0.0299,
18.883474,-0.7041,-0.7178,0.0459,-0.2813,-0.3865,-2.1001,0.2437,0.1166,0.0208,
18.885374,-0.7041,-0.7178,0.0459,-0.5732,-0.3039,-2.8418,0.2437,0.1166,0.0208,
18.941244,-0.6247,-0.7759,0.0950,-0.5732,-0.3039,-2.8418,0.2437,0.1166,0.0208,
18.944773,-0.6247,-0.7759,0.0950,-0.5732,-0.3039,-2.8418,0.0628,-0.0966,0.0739,
18.946643,-0.6247,-0.7759,0.0950,0.2289,-0.9111,-2.3904,0.0628,-0.0966,0.0739,
19.000283,-0.5788,-0.8092,0.1185,0.2289,-0.9111,-2.3904,0.0628,-0.0966,0.0739,
19.003426,-0.5788,-0.8092,0.1185,0.2289,-0.9111,-2.3904,-0.0270,0.0225,0.0452,
19.005273,-0.5788,-0.8092,0.1185,0.6880,-1.2553,-2.1807,-0.0270,0.0225,0.0452,
19.061231,-0.5898,-0.8136,0.1043,0.6880,-1.2553,-2.1807,-0.0270,0.0225,0.0452,
19.065195,-0.5898,-0.8136,0.1043,0.6880,-1.2553,-2.1807,0.2290,0.2168,-0.0367,
19.067132,-0.5898,-0.8136,0.1043,0.6042,-1.3126,-2.3021,0.2290,0.2168,-0.0367,
19.120564,-0.6440,-0.7610,0.0904,0.6042,-1.3126,-2.3021,0.2290,0.2168,-0.0367,
19.124186,-0.6440,-0.7610,0.0904,0.6042,-1.3126,-2.3021,0.2070,0.1569,-0.0287,
19.126343,-0.6440,-0.7610,0.0904,0.0987,-0.8166,-2.4262,0.2070,0.1569,-0.0287,
19.180654,-0.6455,-0.7442,0.0840,0.0987,-0.8166,-2.4262,0.2070,0.1569,-0.0287,
19.183743,-0.6455,-0.7442,0.0840,0.0987,-0.8166,-2.4262,0.0971,0.0928,0.0159,
19.185495,-0.6455,-0.7442,0.0840,0.1038,-0.6738,-2.4954,0.0971,0.0928,0.0159,
19.240601,-0.6264,-0.7588,0.1031,0.1038,-0.6738,-2.4954,0.0971,0.0928,0.0159,
19.243833,-0.6264,-0.7588,0.1031,0.1038,-0.6738,-2.4954,0.1074,0.0604,0.0476,
19.245718,-0.6264,-0.7588,0.1031,0.3187,-0.8398,-2.2987,0.1074,0.0604,0.0476,
19.301410,-0.6284,-0.7774,0.1051,0.3187,-0.8398,-2.2987,0.1074,0.0604,0.0476,
19.305181,-0.6284,-0.7774,0.1051,0.3187,-0.8398,-2.2987,0.0598,0.0256,0.0281,
19.307093,-0.6284,-0.7774,0.1051,0.3293,-1.0481,-2.2737,0.0598,0.0256,0.0281,
19.360999,-0.6240,-0.7654,0.1026,0.3293,-1.0481,-2.2737,0.0598,0.0256,0.0281,
19.363944,-0.6240,-0.7654,0.1026,0.3293,-1.0481,-2.2737,0.0372,-0.0221,0.0189,
19.366171,-0.6240,-0.7654,0.1026,0.3802,-0.9449,-2.3101,0.0372,-0.0221,0.0189,
19.421306,-0.6289,-0.7701,0.1197,0.3802,-0.9449,-2.3101,0.0372,-0.0221,0.0189,
19.425118,-0.6289,-0.7701,0.1197,0.3802,-0.9449,-2.3101,0.0109,0.0091,0.0031,
19.427311,-0.6289,-0.7701,0.1197,0.3329,-0.9919,-2.1445,0.0109,0.0091,0.0031,
19.481698,-0.6274,-0.7730,0.1222,0.3329,-0.9919,-2.1445,0.0109,0.0091,0.0031,
19.484723,-0.6274,-0.7730,0.1222,0.3329,-0.9919,-2.1445,0.0341,0.0231,-0.0037,
19.486985,-0.6274,-0.7730,0.1222,0.3301,-0.9013,-1.9095,0.0341,0.0231,-0.0037,
19.540141,-0.6235,-0.7645,0.1068,0.3301,-0.9013,-1.9095,0.0341,0.0231,-0.0037,
19.544152,-0.6235,-0.7645,0.1068,0.3301,-0.9013,-1.9095,0.0274,-0.0160,-0.0208,
19.546709,-0.6235,-0.7645,0.1068,0.2420,-0.3630,-1.1896,0.0274,-0.0160,-0.0208,
19.601315,-0.6262,-0.7706,0.1222,0.2420,-0.3630,-1.1896,0.0274,-0.0160,-0.0208,
19.605428,-0.6262,-0.7706,0.1222,0.2420,-0.3630,-1.1896,0.0182,0.0170,-0.0153,
19.607575,-0.6262,-0.7706,0.1222,0.1246,-0.2048,-0.5324,0.0182,0.0170,-0.0153,
19.661545,-0.6181,-0.7718,0.1146,0.1246,-0.2048,-0.5324,0.0182,0.0170,-0.0153,
19.665062,-0.6181,-0.7718,0.1146,0.1246,-0.2048,-0.5324,-0.0044,-0.0166,-0.0043,
19.667203,-0.6181,-0.7718,0.1146,0.1493,-0.1132,-0.3383,-0.0044,-0.0166,-0.0043,
19.720891,-0.6323,-0.7642,0.1160,0.1493,-0.1132,-0.3383,-0.0044,-0.0166,-0.0043,
19.724068,-0.6323,-0.7642,0.1160,0.1493,-0.1132,-0.3383,0.0445,0.0671,-0.0073,
19.726292,-0.6323,-0.7642,0.1160,-0.0289,0.0220,-0.1710,0.0445,0.0671,-0.0073,
19.780745,-0.6296,-0.7686,0.0696,-0.0289,0.0220,-0.1710,0.0445,0.0671,-0.0073,
19.782170,-0.6296,-0.7686,0.0696,-0.0289,0.0220,-0.1710,0.1416,0.1838,0.0318,
19.783057,-0.6296,-0.7686,0.0696,0.0061,-0.0168,-0.5577,0.1416,0.1838,0.0318,
