time,gFx,gFy,gFz,ax,ay,az,wx,wy,wz
2022-01-30 18:53:30.7420,0.002,-0.545,-0.636,0.21,0.72,-2.12,-1.19,0.5,-0.48
2022-01-30 18:54:03.3360,0.008,-0.513,-0.694,0.19,0.56,-2.29,-1.2,0.47,-0.46
2022-01-30 18:54:03.3460,0.024,-0.481,-0.766,0.17,0.31,-1.55,-1.11,0.33,-0.46
2022-01-30 18:54:03.3550,0.047,-0.485,-0.807,0.02,0.22,-1.04,-0.96,0.18,-0.47
2022-01-30 18:54:03.3660,0.073,-0.497,-0.83,-0.18,0.42,-0.74,-0.76,0.12,-0.51
2022-01-30 18:54:03.3760,0.093,-0.499,-0.814,-0.4,0.57,-0.67,-0.76,0.15,-0.54
2022-01-30 18:54:03.3850,0.09,-0.492,-0.795,-0.49,0.6,-0.95,-0.39,0.16,-0.58
2022-01-30 18:54:03.3960,0.073,-0.48,-0.815,-0.35,0.56,-1.02,-0.39,0.16,-0.58
2022-01-30 18:54:03.4050,0.054,-0.467,-0.861,0.08,0.38,-0.25,-0.33,-0.11,-0.64
2022-01-30 18:54:03.4160,0.031,-0.459,-0.9,0.08,0.38,-0.25,-0.4,-0.25,-0.68
2022-01-30 18:54:03.4260,0.009,-0.426,-0.894,0.32,0.31,-0.02,-0.4,-0.29,-0.76
2022-01-30 18:54:03.4360,0.001,-0.373,-0.857,0.5,-0.12,-0.26,-0.4,-0.29,-0.76
2022-01-30 18:54:03.4460,0.017,-0.369,-0.825,0.51,-0.47,-0.65,-0.19,-0.14,-0.75
2022-01-30 18:54:03.4550,0.053,-0.396,-0.813,0.28,-0.32,-0.92,-0.07,-0.1,-0.63
2022-01-30 18:54:03.4660,0.092,-0.427,-0.839,-0.09,-0.03,-0.9,0.02,-0.14,-0.49
2022-01-30 18:54:03.4760,0.126,-0.456,-0.867,-0.44,0.29,-0.57,0.09,-0.18,-0.35
2022-01-30 18:54:03.4860,0.14,-0.477,-0.866,-0.73,0.54,-0.42,0.12,-0.22,-0.22
2022-01-30 18:54:03.4960,0.135,-0.492,-0.876,-0.79,0.71,-0.43,0.11,-0.28,-0.13
2022-01-30 18:54:03.5060,0.122,-0.506,-0.889,-0.73,0.84,-0.28,0.06,-0.33,-0.07
2022-01-30 18:54:03.5160,0.1,-0.517,-0.894,-0.6,0.97,-0.18,-0.04,-0.33,-0.04
2022-01-30 18:54:03.5260,0.072,-0.518,-0.892,-0.38,1.06,-0.18,-0.15,-0.29,-0.03
2022-01-30 18:54:03.5360,0.05,-0.513,-0.901,-0.14,1.04,-0.18,-0.29,-0.23,-0.03
2022-01-30 18:54:03.5460,0.037,-0.51,-0.917,0.03,1.04,-0.07,-0.41,-0.17,-0.03
2022-01-30 18:54:03.5560,0.034,-0.503,-0.937,0.1,1.02,0.1,-0.5,-0.09,-0.01
2022-01-30 18:54:03.5660,0.032,-0.504,-0.949,0.13,1.11,0.31,-0.53,0.03,0.03
2022-01-30 18:54:03.5770,0.033,-0.508,-0.952,0.13,1.11,0.31,-0.53,0.03,0.03
2022-01-30 18:54:03.5860,0.039,-0.504,-0.958,0.11,1.17,0.32,-0.45,0.26,0.15
2022-01-30 18:54:03.5960,0.048,-0.5,-0.966,0.01,1.15,0.43,-0.36,0.3,0.2
2022-01-30 18:54:03.6060,0.046,-0.496,-0.971,0.01,1.15,0.43,-0.36,0.3,0.2
2022-01-30 18:54:03.6160,0.04,-0.496,-0.981,0.15103270322084428,1.17,0.59,-0.17,0.2,0.23
2022-01-30 18:54:03.6270,0.031,-0.494,-0.994,0.15,1.17,0.59,-0.09222260117530823,0.2,0.23
2022-01-30 18:54:03.6360,0.015,-0.488,-1.003,0.26,1.15,0.71,-0.04,-0.06,0.16
2022-01-30 18:54:03.6460,-0.004,-0.48,-1.008,0.42,1.08,0.77,-0.01,-0.21,0.11
2022-01-30 18:54:03.6560,-0.03,-0.473,-1.018,0.6,1.01,0.83,0.02,-0.38,0.09
2022-01-30 18:54:03.6670,-0.062,-0.458,-1.029,1.135713028460741,0.73,1.04,0.05,-0.54,0.07
2022-01-30 18:54:03.6770,-0.102,-0.435,-1.036,1.13,0.73,1.04,0.1,-0.66,0.07
2022-01-30 18:54:03.6860,-0.143,-0.414,-1.037,1.48,0.48,1.09,0.18,-0.7,0.09
2022-01-30 18:54:03.6970,-0.171,-0.407,-1.023,1.78,0.31,1.05,0.18,-0.7,0.09
2022-01-30 18:54:03.7070,-0.189,-0.403,-1.003,1.95,0.25,0.89,0.29,-0.64,0.11
2022-01-30 18:54:03.7160,-0.198,-0.404,-0.971,2.05,0.17,0.34,0.61,-0.25,0.18
2022-01-30 18:54:03.7270,-0.189,-0.413,-0.932,2.05,0.17,0.34,0.61,-0.25,0.18
2022-01-30 18:54:03.7370,-0.169,-0.418,-0.899,1.9,0.18,0.0,0.78,0.05,0.21
2022-01-30 18:54:03.7470,-0.145,-0.415,-0.886,1.72,0.12,-0.23,0.93,0.36,0.24
2022-01-30 18:54:03.7560,-0.112,-0.411,-0.918,1.49,-0.01,-0.21,1.01,0.58,0.24
2022-01-30 18:54:03.7670,-0.086,-0.403,-1.018,0.98,-0.32,1.55,0.99,0.54,0.21
2022-01-30 18:54:03.7780,-0.059,-0.388,-1.119,0.98,-0.32,1.55,0.68,-0.26,0.12
2022-01-30 18:54:03.7860,-0.041,-0.373,-1.161,0.68,-0.53,2.39,0.68,-0.26,0.12
2022-01-30 18:54:03.7970,-0.045,-0.35,-1.157,0.54,-0.74,2.6,0.48,-0.9,0.09
2022-01-30 18:54:03.8070,-0.063,-0.318,-1.118,0.54,-1.05,2.47,0.55,-0.87,0.14
2022-01-30 18:54:03.8170,-0.086,-0.292,-1.051,0.68,-1.42,1.3081297302246095,0.75,-0.6,0.25
2022-01-30 18:54:03.8280,-0.106,-0.289,-0.977,0.83,-1.65,1.3,1.03,-0.21,0.4
2022-01-30 18:54:03.8370,-0.127,-0.279,-0.923,0.99,-1.76,0.68,1.33,0.15,0.53
2022-01-30 18:54:03.8470,-0.132,-0.265,-0.893,1.16,-2.01,0.3,1.59,0.42,0.59
2022-01-30 18:54:03.8570,-0.125,-0.264,-0.886,1.14,-2.25,0.17,1.59,0.42,0.59
2022-01-30 18:54:03.8670,-0.107,-0.277,-0.881,0.86,-2.33,0.28,1.87,0.6,0.45
2022-01-30 18:54:03.8780,-0.079,-0.305,-0.888,0.86,-2.33,0.28,1.83,0.5,0.29
2022-01-30 18:54:03.8870,-0.06,-0.336,-0.905,0.64,-2.18,0.5,1.83,0.5,0.29
2022-01-30 18:54:03.8970,-0.055,-0.357,-0.912,0.5,-2.02,0.74,1.69,0.26,0.1
2022-01-30 18:54:03.9070,-0.058,-0.348,-0.903,0.49,-2.03,0.81,1.14,-0.36,-0.38
2022-01-30 18:54:03.9170,-0.075,-0.318,-0.91,0.76,-2.67,1.01,0.74,-0.73,-0.64
2022-01-30 18:54:03.9280,-0.101,-0.293,-0.932,0.76,-2.67,1.01,0.32,-1.07,-0.86
2022-01-30 18:54:03.9370,-0.124,-0.275,-0.941,0.98,-2.9,1.21,-0.08,-1.32,-1.05
2022-01-30 18:54:03.9470,-0.14,-0.252,-0.951,1.13,-3.09,1.28,-0.42,-1.44,-1.2
2022-01-30 18:54:03.9580,-0.153,-0.23,-0.947,1.22,-3.29,1.33,-0.68,-1.36,-1.29
2022-01-30 18:54:03.9670,-0.161,-0.219,-0.924,1.3,-3.43,1.18,-0.83,-1.12,-1.3
2022-01-30 18:54:03.9770,-0.167,-0.222,-0.9,1.35,-3.41,0.88,-0.83,-1.12,-1.3
2022-01-30 18:54:03.9880,-0.163,-0.239,-0.878,1.39,-3.26,0.61,-0.89,-0.75,-1.22
2022-01-30 18:54:03.9980,-0.147,-0.264,-0.864,1.33,-2.98,0.37,-0.86,-0.32,-1.09
2022-01-30 18:54:04.0080,-0.124,-0.285,-0.854,1.2,-2.69,0.21,-0.6,0.41,-0.85
2022-01-30 18:54:04.0170,-0.098,-0.304,-0.853,1.03,-2.44,0.11,-0.45,0.61,-0.79
2022-01-30 18:54:04.0280,-0.082,-0.325,-0.863,0.9,-2.21,0.1,-0.45,0.61,-0.79
2022-01-30 18:54:04.0380,-0.077,-0.347,-0.884,0.88,-1.97,0.24,-0.33,0.66,-0.75
2022-01-30 18:54:04.0480,-0.063,-0.372,-0.892,0.92,-1.73,0.41,-0.22,0.59,-0.77
2022-01-30 18:54:04.0580,-0.034,-0.413,-0.885,0.8,-1.42,0.41,-0.06,0.36,-0.91
2022-01-30 18:54:04.0680,-0.004,-0.455,-0.889,0.41,-0.64,0.47,0.0,0.19,-0.99
2022-01-30 18:54:04.0780,-0.005,-0.47,-0.905,0.41,-0.64,0.47,0.0,0.19,-0.99
2022-01-30 18:54:04.0880,-0.025,-0.465,-0.886,0.61,-0.59,0.54,0.11,-0.09,-1.12
2022-01-30 18:54:04.0980,-0.018,-0.473,-0.857,0.78,-0.63,0.25,0.14,-0.12,-1.18
2022-01-30 18:54:04.1080,0.009,-0.515,-0.857,0.66,-0.43,0.07,0.14,-0.12,-1.18
2022-01-30 18:54:04.1180,0.034,-0.565,-0.876,0.43,0.05,0.16,0.07,-0.24,-1.24
2022-01-30 18:54:04.1280,0.047,-0.601,-0.902,0.26,0.5,0.38,0.07,-0.24,-1.24
2022-01-30 18:54:04.1380,0.041,-0.618,-0.922,0.24,0.8,0.63,-0.05,-0.41,-1.2232614755630493
2022-01-30 18:54:04.1480,0.022,-0.62,-0.908,0.37,0.94,0.72,-0.2,-0.58,-1.22
2022-01-30 18:54:04.1580,-0.005,-0.609,-0.861,0.61,0.95,0.4,-0.37,-0.62,-1.2
2022-01-30 18:54:04.1680,-0.017,-0.593,-0.814,0.87,0.86,-0.13,-0.72,-0.26,-1.09
2022-01-30 18:54:04.1780,-0.008,-0.583,-0.78,0.92,0.8,-0.58,-0.72,-0.26,-1.09
2022-01-30 18:54:04.1880,0.008,-0.568,-0.762,0.85,0.77,-0.91,-1.05,0.26,-0.87
2022-01-30 18:54:04.1980,0.029,-0.552,-0.776,0.74,0.7,-1.02,-1.05,0.37,-0.69
2022-01-30 18:54:04.2080,0.047,-0.551,-0.807,0.6,0.7,-0.86,-1.22,0.37,-0.69
2022-01-30 18:54:04.2180,0.065,-0.554,-0.848,0.47,0.85,-0.57,-1.36,0.36,-0.49
2022-01-30 18:54:04.2280,0.074,-0.556,-0.885,0.37,1.0,-0.23,-1.46,0.27,-0.3
2022-01-30 18:54:04.2380,0.071,-0.559,-0.909,0.33,1.17,0.04,-1.42,0.07,0.01
2022-01-30 18:54:04.2480,0.058,-0.551,-0.905,0.41,1.29,0.12,-1.42,0.07,0.01
2022-01-30 18:54:04.2580,0.041,-0.541,-0.883,0.56,1.3,-0.06,-1.08,0.07,0.18
2022-01-30 18:54:04.2680,0.03,-0.535,-0.86,0.72,1.31,-0.34,-1.08,0.07,0.18
2022-01-30 18:54:04.2790,0.035,-0.534,-0.83,0.78,1.36,-0.6,-0.82,0.11,0.22
2022-01-30 18:54:04.2880,0.054,-0.52,-0.816,0.68,1.34,-0.92,-0.27,0.11,0.2
2022-01-30 18:54:04.2980,0.081,-0.509,-0.821,0.45,1.22,-0.96,-0.05,0.0,0.15
2022-01-30 18:54:04.3080,0.112,-0.512,-0.829,0.16,1.17,-0.89,0.12,-0.18,0.08
2022-01-30 18:54:04.3190,0.133,-0.508,-0.838,-0.16,1.2,-0.81,0.23,-0.4,0.01
2022-01-30 18:54:04.3290,0.148,-0.493,-0.84,-0.34,1.08,-0.73,0.23,-0.4,0.01
2022-01-30 18:54:04.3390,0.166,-0.479,-0.835,-0.56,0.9,-0.75,0.2811344563961029,-0.61,-0.09
2022-01-30 18:54:04.3480,0.174,-0.464,-0.832,-0.78,0.75,-0.78,0.23,-0.94,-0.2
2022-01-30 18:54:04.3590,0.178,-0.448,-0.819,-0.91,0.58,-0.84,0.14,-0.99,-0.19
2022-01-30 18:54:04.3690,0.18,-0.434,-0.801,-1.12,0.29,-1.16,0.03,-0.97,-0.13
2022-01-30 18:54:04.3790,0.182,-0.423,-0.791,-1.12,0.29,-1.16,0.03,-0.97,-0.13
2022-01-30 18:54:04.3890,0.182,-0.412,-0.782,-1.21,0.2,-1.26,-0.18,-0.78,0.1
2022-01-30 18:54:04.3990,0.176,-0.393,-0.779,-1.27,0.08,-1.35,-0.28,-0.64,0.22
2022-01-30 18:54:04.4090,0.17,-0.374,-0.776,-1.27,-0.1,-1.37,-0.28,-0.64,0.22
2022-01-30 18:54:04.4190,0.171,-0.361,-0.77,-1.28,-0.23,-1.44,-0.39,-0.31,0.49
2022-01-30 18:54:04.4290,0.182,-0.356,-0.766,-1.38,-0.29,-1.49,-0.38,-0.17,0.65
2022-01-30 18:54:04.4400,0.194,-0.354,-0.748,-1.68,-0.29,-1.81,-0.34,-0.05,0.82
2022-01-30 18:54:04.4490,0.204,-0.352,-0.728,-1.68,-0.29,-1.81,-0.26,0.07,0.98
2022-01-30 18:54:04.4590,0.225,-0.367,-0.71,-1.84,-0.25,-2.0,-0.26,0.07,0.98
2022-01-30 18:54:04.4690,0.243,-0.392,-0.695,-2.1,-0.01,-2.2,-0.09,0.21,1.24
2022-01-30 18:54:04.4800,0.248,-0.386,-0.713,-2.25,0.17,-2.26,-0.09,0.21,1.24
2022-01-30 18:54:04.4900,0.254,-0.351,-0.774,-2.32,-0.03,-1.92,-0.11,-0.23,1.26
2022-01-30 18:54:04.4990,0.263,-0.326,-0.85,-2.47,-0.36,-1.23,-0.11,-0.23,1.26
2022-01-30 18:54:04.5090,0.265,-0.321,-0.91,-2.64,-0.5,-0.52,-0.3,-1.02,1.21
2022-01-30 18:54:04.5190,0.25,-0.312,-0.928,-2.7,-0.6,-0.02,-0.36,-1.25,1.28
2022-01-30 18:54:04.5300,0.224,-0.299,-0.929,-2.64,-0.62,-0.05,-0.35,-1.3,1.45
2022-01-30 18:54:04.5400,0.208,-0.308,-0.915,-2.69,-0.4,-0.25,-0.35,-1.3,1.45
2022-01-30 18:54:04.5500,0.201,-0.336,-0.892,-2.69,-0.4,-0.25,-0.12,-0.87,1.94
2022-01-30 18:54:04.5590,0.194,-0.36,-0.878,-2.77,-0.1,-0.45,-0.12,-0.87,1.94
2022-01-30 18:54:04.5690,0.193,-0.389,-0.877,-2.85,0.14,-0.53,0.27,-0.33,2.23
2022-01-30 18:54:04.5800,0.191,-0.429,-0.89,-2.96,0.48,-0.5,0.43,-0.25,2.22
2022-01-30 18:54:04.5900,0.178,-0.46,-0.94,-3.01,0.84,-0.22,0.51,-0.34,2.1
2022-01-30 18:54:04.6000,0.139,-0.485,-0.991,-2.91,1.11,0.35,0.52,-0.53,1.82
2022-01-30 18:54:04.6100,0.086,-0.491,-1.042,-2.55,1.27,0.84,0.52,-0.53,1.82
2022-01-30 18:54:04.6200,0.05,-0.485,-1.083,-2.19,1.25,1.38,0.46,-0.81,1.43
2022-01-30 18:54:04.6300,0.035,-0.486,-1.091,-2.04,1.18,1.68,0.35,-1.06,0.97
2022-01-30 18:54:04.6400,0.037,-0.494,-1.076,-2.1,1.23,1.7,0.08,-1.2,0.28
2022-01-30 18:54:04.6500,0.038,-0.493,-1.035,-2.26,1.28,1.48,0.08,-1.2,0.28
2022-01-30 18:54:04.6600,0.038,-0.489,-0.985,-2.35,1.25,1.05,-0.09,-0.62,0.12
2022-01-30 18:54:04.6700,0.032,-0.499,-0.939,-2.39,1.26,0.55,-0.14,-0.17,0.22
2022-01-30 18:54:04.6800,0.023,-0.51,-0.929,-2.34,1.4,0.2,-0.18,0.24,0.33
2022-01-30 18:54:04.6900,0.022,-0.519,-0.948,-2.26,1.52,0.23,-0.18,0.24,0.33
2022-01-30 18:54:04.7000,0.03,-0.527,-0.969,-2.25,1.64,0.42,-0.22,0.55,0.37
2022-01-30 18:54:04.7100,0.032,-0.533,-0.992,-2.28,1.73,0.61,-0.27,0.82,0.21
2022-01-30 18:54:04.7200,0.025,-0.54,-0.997,-2.18,1.83,0.77,-0.27,0.88,0.05
2022-01-30 18:54:04.7300,0.03,-0.539,-0.989,-2.07,1.91,0.62,-0.25,0.9,-0.1
2022-01-30 18:54:04.7410,0.046,-0.54,-0.979,-2.07,1.91,0.62,-0.25,0.9,-0.1
2022-01-30 18:54:04.7500,0.072,-0.543,-0.965,-2.19,1.95,0.48,-0.22,0.91,-0.19
2022-01-30 18:54:04.7610,0.096,-0.545,-0.947,-2.36,2.0,0.3,-0.17,0.91,-0.21
2022-01-30 18:54:04.7710,0.113,-0.549,-0.928,-2.53,2.09,-0.07,-0.06,0.92,-0.07
2022-01-30 18:54:04.7810,0.121,-0.559,-0.924,-2.49,2.2,-0.07,-0.01,0.91,0.03
2022-01-30 18:54:04.7910,0.118,-0.571,-0.928,-2.49,2.2,-0.07,0.04,0.9,0.12
2022-01-30 18:54:04.8000,0.107,-0.581,-0.933,-2.33,2.32,-0.04,0.09,0.89,0.18
2022-01-30 18:54:04.8100,0.098,-0.59,-0.95,-2.16,2.4,0.03,0.15,0.84,0.18
2022-01-30 18:54:04.8210,0.093,-0.602,-0.966,-2.01,2.49,0.22,0.22,0.81,0.16
2022-01-30 18:54:04.8310,0.097,-0.616,-0.977,-1.92,2.72,0.46,0.28,0.76,0.11
2022-01-30 18:54:04.8410,0.11,-0.631,-0.992,-1.92,2.72,0.46,0.28,0.76,0.11
2022-01-30 18:54:04.8500,0.121,-0.634,-1.014,-2.01,2.82,0.64,0.3,0.69,0.05
2022-01-30 18:54:04.8600,0.12,-0.613,-1.035,-2.01,2.74,0.87,0.18,0.5,-0.08
2022-01-30 18:54:04.8700,0.111,-0.574,-1.043,-1.93,2.44,1.04,0.05,0.46,-0.12
2022-01-30 18:54:04.8810,0.104,-0.528,-1.037,-1.77,2.02,1.07,0.05,0.46,-0.12
2022-01-30 18:54:04.8910,0.126,-0.49,-0.997,-1.74,1.58,0.9,-0.12,0.83,-0.09
2022-01-30 18:54:04.9010,0.163,-0.461,-0.923,-1.96,1.26,0.35,-0.12,0.83,-0.09
2022-01-30 18:54:04.9110,0.207,-0.431,-0.858,-2.23,1.0,-0.41,-0.12,1.24,0.03
2022-01-30 18:54:04.9210,0.262,-0.397,-0.828,-2.56,0.7,-0.94,-0.1,1.93,0.4
2022-01-30 18:54:04.9310,0.314,-0.358,-0.835,-3.29,0.05,-0.92,-0.16,2.0,0.59
2022-01-30 18:54:04.9410,0.371,-0.343,-0.867,-3.29,0.05,-0.92,-0.28,1.91,0.79
2022-01-30 18:54:04.9510,0.42,-0.349,-0.898,-3.7,0.03,-0.6,-0.28,1.91,0.79
2022-01-30 18:54:04.9610,0.444,-0.339,-0.924,-3.96,0.11,-0.33,-0.62,1.43,1.23
2022-01-30 18:54:04.9710,0.452,-0.309,-0.957,-4.04,-0.02,-0.08,-0.79,1.09,1.45
2022-01-30 18:54:04.9810,0.446,-0.27,-1.018,-4.02,-0.29,0.28,-0.97,0.66,1.65
2022-01-30 18:54:04.9910,0.435,-0.228,-1.112,-3.91,-0.62,1.01,-1.14,0.17,1.84
2022-01-30 18:54:05.0010,0.412,-0.206,-1.19,-3.83,-0.87,1.9,-1.2,-0.19,2.03
2022-01-30 18:54:05.0200,0.364,-0.187,-1.216,-3.15,-1.07,2.56,-1.2,-0.19,2.03
2022-01-30 18:54:05.0210,0.306,-0.153,-1.228,-3.15,-1.07,2.56,-1.12,-0.35,2.22
2022-01-30 18:54:05.0310,0.249,-0.123,-1.22,-2.66,-1.34,2.61,-0.53,-0.06,2.56
2022-01-30 18:54:05.0410,0.209,-0.098,-1.2,-1.945628702491522,-1.7726492062211037,2.25,-0.1,0.32,2.72
2022-01-30 18:54:05.0510,0.19,-0.077,-1.184,-1.95,-1.78,2.25,0.35,0.69,2.86
2022-01-30 18:54:05.0610,0.198,-0.065,-1.189,-1.87,-1.99,2.17,0.77,0.96,2.98
2022-01-30 18:54:05.0710,0.23,-0.066,-1.196,-2.05,-2.12,2.28,1.12,1.09,3.07
2022-01-30 18:54:05.0820,0.263,-0.064,-1.199,-2.38,-2.21,2.36,1.12,1.09,3.07
2022-01-30 18:54:05.0910,0.284,-0.068,-1.187,-2.65,-2.36,2.38,1.56,1.1,3.2
2022-01-30 18:54:05.1010,0.293,-0.079,-1.159,-2.8,-2.42,2.26,1.56,1.1,3.2
2022-01-30 18:54:05.1110,0.301,-0.083,-1.119,-2.88,-2.5,1.98,1.82,1.12,3.31
2022-01-30 18:54:05.1210,0.307,-0.083,-1.077,-2.96,-2.65,1.64,1.82,1.12,3.31
2022-01-30 18:54:05.1320,0.311,-0.087,-1.023,-3.02,-2.81,1.26,2.09,1.51,3.43
2022-01-30 18:54:05.1410,0.319,-0.085,-0.988,-3.05,-2.98,0.83,2.18,1.8,3.52
2022-01-30 18:54:05.1520,0.336,-0.086,-0.984,-3.14,-3.2,0.7,2.18,1.8,3.52
2022-01-30 18:54:05.1620,0.355,-0.095,-0.998,-3.28,-3.35,0.82,2.11,2.34,3.76
2022-01-30 18:54:05.1710,0.366,-0.101,-1.03,-3.41,-3.44,1.13,1.93,2.58,3.95
2022-01-30 18:54:05.1820,0.363,-0.101,-1.035,-3.42,-3.6,1.49,1.69,2.87,4.18
2022-01-30 18:54:05.1920,0.354,-0.096,-1.026,-3.31,-3.74,1.52,1.42,3.23,4.43
2022-01-30 18:54:05.2020,0.339,-0.067,-1.018,-3.14,-4.02,1.51,1.17,3.64,4.7
2022-01-30 18:54:05.2120,0.315,-0.041,-1.044,-2.87,-4.45,1.57,0.93,3.95,4.97
2022-01-30 18:54:05.2210,0.288,-0.028,-1.103,-2.55,-4.72,2.07,0.67,4.18,5.28
2022-01-30 18:54:05.2320,0.251,-0.008,-1.133,-2.19,-5.0,2.67,0.48,4.39,5.6
2022-01-30 18:54:05.2420,0.181,-0.01,-1.156,-1.61,-5.13,2.84,0.37,4.39,5.8
2022-01-30 18:54:05.2520,0.156,0.039,-1.227,-0.96,-5.33,3.4,0.37,4.39,5.8
2022-01-30 18:54:05.2620,0.12,0.078,-1.21,-0.76,-5.94,3.87,0.31,4.31,5.87
2022-01-30 18:54:05.2720,0.064,0.091,-1.2,-0.23,-6.25,3.64,0.3,4.19,5.88
2022-01-30 18:54:05.2820,0.036,0.108,-1.195,0.49,-6.69,3.64,0.26,3.88,5.81
2022-01-30 18:54:05.2920,-0.0,0.125,-1.196,0.49,-6.69,3.64,0.26,3.88,5.81
2022-01-30 18:54:05.3020,-0.03,0.138,-1.22,0.82,-6.91,3.8,0.12,3.54,5.85
2022-01-30 18:54:05.3120,-0.059,0.146,-1.238,1.04,-7.05,4.05,0.12,3.54,5.85
2022-01-30 18:54:05.3220,-0.097,0.161,-1.248,1.3,-7.19,4.23,0.05,3.39,5.94
2022-01-30 18:54:05.3320,-0.14,0.168,-1.246,1.91,-7.42,4.2,-0.01,3.26,6.06
2022-01-30 18:54:05.3430,-0.171,0.17,-1.216,1.91,-7.42,4.2,0.12,3.18,6.03
2022-01-30 18:54:05.3530,-0.2,0.164,-1.179,2.25,-7.41,3.6,0.29,3.04,5.9
2022-01-30 18:54:05.3620,-0.217,0.151,-1.169,2.25,-7.41,3.6,0.48,2.78,5.67
2022-01-30 18:54:05.3730,-0.23,0.12,-1.17,2.27,-7.27,3.61,0.66,2.41,5.37
2022-01-30 18:54:05.3830,-0.239,0.069,-1.166,2.26,-6.95,3.65,0.82,2.03,5.04
2022-01-30 18:54:05.3920,-0.246,-0.001,-1.149,2.2,-6.42,3.62,0.95,1.66,4.7
2022-01-30 18:54:05.4020,-0.245,-0.076,-1.124,2.08,-5.76,3.46,0.95,1.66,4.7
2022-01-30 18:54:05.4130,-0.247,-0.14,-1.081,1.8,-4.62,2.8,1.16,1.23,3.99
2022-01-30 18:54:05.4230,-0.254,-0.184,-1.024,1.8,-4.62,2.8,1.24,1.22,3.61
2022-01-30 18:54:05.4330,-0.265,-0.21,-0.964,1.76,-4.33,2.29,1.24,1.22,3.61
2022-01-30 18:54:05.4430,-0.271,-0.228,-0.91,1.75,-4.19,1.78,1.27,1.3,3.21
2022-01-30 18:54:05.4520,-0.267,-0.257,-0.866,1.7,-4.05,1.35,1.16,1.48,2.43
2022-01-30 18:54:05.4630,-0.252,-0.292,-0.83,1.58,-3.79,1.01,1.16,1.48,2.43
2022-01-30 18:54:05.4730,-0.229,-0.323,-0.793,1.36,-3.51,0.72,0.84,1.55,1.75
2022-01-30 18:54:05.4830,-0.204,-0.348,-0.76,1.13,-3.26,0.4,0.84,1.55,1.75
2022-01-30 18:54:05.4930,-0.179,-0.362,-0.731,0.89,-3.09,0.12,0.67,1.56,1.45
2022-01-30 18:54:05.5030,-0.151,-0.366,-0.704,0.68,-3.01,-0.15,0.36,1.53,1.01
2022-01-30 18:54:05.5130,-0.122,-0.361,-0.683,0.21,-3.1,-0.56,0.36,1.53,1.01
2022-01-30 18:54:05.5230,-0.096,-0.355,-0.667,0.21,-3.1,-0.56,0.22,1.51,0.75
2022-01-30 18:54:05.5330,-0.072,-0.349,-0.646,0.03,-3.14,-0.73,0.11,1.51,0.75
2022-01-30 18:54:05.5430,-0.047,-0.342,-0.623,-0.15,-3.22,-0.98,0.02,1.58,0.7
2022-01-30 18:54:05.5530,-0.024,-0.345,-0.619,-0.31,-3.24,-1.17,-0.08,1.66,0.71
2022-01-30 18:54:05.5630,0.003,-0.351,-0.629,-0.47,-3.16,-1.16,-0.17,1.72,0.75
2022-01-30 18:54:05.5730,0.024,-0.346,-0.64,-0.65,-3.11,-1.07,-0.26,1.72,0.79
2022-01-30 18:54:05.5830,0.038,-0.33,-0.646,-0.76,-3.18,-1.02,-0.34,1.67,0.83
2022-01-30 18:54:05.5930,0.045,-0.321,-0.647,-0.81,-3.3,-1.01,-0.41,1.61,0.87
2022-01-30 18:54:05.6030,0.05,-0.32,-0.632,-0.81,-3.31,-1.08,-0.43,1.59,0.92
2022-01-30 18:54:05.6130,0.061,-0.317,-0.622,-0.82,-3.28,-1.28,-0.4,1.6,1.0145288705825806
2022-01-30 18:54:05.6230,0.073,-0.318,-0.628,-0.89,-3.28,-1.34,-0.38,1.6,1.01
2022-01-30 18:54:05.6330,0.084,-0.334,-0.641,-0.95,-3.19,-1.28,-0.44,1.5,1.1
2022-01-30 18:54:05.6430,0.087,-0.352,-0.665,-1.0,-2.96,-1.15,-0.49,1.41,1.14
2022-01-30 18:54:05.6530,0.078,-0.359,-0.694,-0.95,-2.78,-0.9,-0.49,1.41,1.14
2022-01-30 18:54:05.6640,0.066,-0.361,-0.705,-0.81,-2.7,-0.72,-0.45,1.46,1.18
2022-01-30 18:54:05.6740,0.06,-0.375,-0.735,-0.66,-2.63,-0.62,-0.41,1.57,1.22
2022-01-30 18:54:05.6840,0.068,-0.405,-0.779,-0.6,-2.39,-0.25,-0.41,1.57,1.22
2022-01-30 18:54:05.6930,0.077,-0.445,-0.805,-0.66,-2.04,0.11,-0.27,1.91,1.4
2022-01-30 18:54:05.7030,0.066,-0.497,-0.803,-0.63,-1.57,0.24,-0.27,1.91,1.4
2022-01-30 18:54:05.7130,0.051,-0.552,-0.813,-0.4,-1.03,0.18,-0.07,2.21,1.64
2022-01-30 18:54:05.7240,0.05,-0.619,-0.842,-0.23,-0.47,0.41,-0.0,2.16,1.67
2022-01-30 18:54:05.7340,0.062,-0.701,-0.868,-0.2,0.26,0.67,0.03,1.94,1.61
2022-01-30 18:54:05.7440,0.093,-0.768,-0.9,-0.35,1.03,0.97,0.03,1.94,1.61
2022-01-30 18:54:05.7530,0.128,-0.823,-0.9,-0.65,1.61,1.22,0.05,1.62,1.44
2022-01-30 18:54:05.7640,0.146,-0.87,-0.858,-0.95,2.49,0.59,0.04,1.22,1.02
2022-01-30 18:54:05.7740,0.129,-0.889,-0.81,-0.95,2.49,0.59,-0.08,1.23,0.87
2022-01-30 18:54:05.7840,0.109,-0.909,-0.762,-0.68,2.65,0.12,-0.27,1.38,0.78
2022-01-30 18:54:05.7940,0.107,-0.94,-0.717,-0.49,2.9,-0.37,-0.5,1.59,0.73
2022-01-30 18:54:05.8040,0.11,-0.974,-0.697,-0.43,3.27,-0.75,-0.5,1.59,0.73
2022-01-30 18:54:05.8140,0.11,-0.997,-0.688,-0.22,3.9,-1.0,-0.98,1.95,0.64
2022-01-30 18:54:05.8250,0.103,-1.016,-0.696,-0.01,4.15,-0.92,-1.15,1.98,0.61
2022-01-30 18:54:05.8340,0.092,-1.027,-0.714,-0.01,4.15,-0.92,-1.29,1.9,0.58
2022-01-30 18:54:05.8440,0.075,-1.028,-0.737,0.22,4.32,-0.79,-1.35,1.69,0.55
2022-01-30 18:54:05.8540,0.047,-1.023,-0.766,0.54,4.4,-0.58,-1.37,1.41,0.48
2022-01-30 18:54:05.8640,0.024,-1.008,-0.79,0.9,4.43,-0.38,-1.37,1.08,0.35
2022-01-30 18:54:05.8750,0.01,-0.986,-0.819,1.32,4.26,0.02,-1.4,0.73,0.2
2022-01-30 18:54:05.8840,0.0,-0.971,-0.841,1.32,4.26,0.02,-1.5,0.41,0.06
2022-01-30 18:54:05.8940,-0.002,-0.958,-0.854,1.41,4.25,0.1,-1.65,0.14,-0.07
2022-01-30 18:54:05.9040,-0.01,-0.944,-0.876,1.45,4.27,0.18,-1.65,0.14,-0.07
2022-01-30 18:54:05.9140,-0.038,-0.911,-0.893,1.61,4.23,0.29,-1.99,-0.12,-0.26
2022-01-30 18:54:05.9240,-0.069,-0.875,-0.919,1.92,4.04,0.38,-2.11,-0.12,-0.31
2022-01-30 18:54:05.9350,-0.098,-0.842,-0.948,2.22,3.89,0.56,-2.15,-0.05,-0.32
2022-01-30 18:54:05.9440,-0.128,-0.805,-0.983,2.51,3.75,0.75,-2.15,-0.05,-0.32
2022-01-30 18:54:05.9550,-0.162,-0.769,-1.01,2.84,3.57,1.01,-1.99,0.16,-0.24
2022-01-30 18:54:05.9650,-0.185,-0.735,-1.024,3.18,3.4,1.13,-1.79,0.25,-0.19
2022-01-30 18:54:05.9740,-0.176,-0.707,-1.054,3.33,3.24,1.22,-1.53,0.25,-0.13
2022-01-30 18:54:05.9850,-0.144,-0.697,-1.092,3.16,3.17,1.53,-1.21,0.16,-0.05
2022-01-30 18:54:05.9940,-0.11,-0.695,-1.122,2.83,3.24,1.82,-0.84,-0.02,0.04
2022-01-30 18:54:06.0050,-0.082,-0.682,-1.144,2.52,3.26,2.09,-0.46,-0.22,0.14
2022-01-30 18:54:06.0150,-0.065,-0.663,-1.137,2.09,2.97,2.01,-0.1,-0.38,0.24
2022-01-30 18:54:06.0250,-0.056,-0.648,-1.106,2.09,2.97,2.01,0.21,-0.44,0.33
2022-01-30 18:54:06.0350,-0.048,-0.63,-1.072,1.95,2.8,1.64,0.21,-0.44,0.33
2022-01-30 18:54:06.0450,-0.038,-0.616,-1.058,1.82,2.58,1.39,0.43,-0.46,0.39
2022-01-30 18:54:06.0550,-0.028,-0.608,-1.036,1.65,2.42,1.29,0.69,-0.43,0.49
2022-01-30 18:54:06.0650,-0.016,-0.59,-1.003,1.49,2.24,1.01,0.75,-0.38,0.52
2022-01-30 18:54:06.0750,-0.005,-0.575,-0.996,1.32,1.99,0.79,0.77,-0.38,0.54
2022-01-30 18:54:06.0850,0.008,-0.572,-0.998,1.15,1.8,0.81,0.77,-0.38,0.54
2022-01-30 18:54:06.0950,0.022,-0.571,-0.995,0.96,1.73,0.83,0.75,-0.45,0.55
2022-01-30 18:54:06.1050,0.029,-0.565,-0.99,0.76,1.63,0.81,0.66,-0.73,0.49
2022-01-30 18:54:06.1150,0.022,-0.557,-0.992,0.69,1.33,0.86,0.56,-0.93,0.43
2022-01-30 18:54:06.1260,-0.005,-0.53,-1.0,0.69,1.33,0.86,0.56,-0.93,0.43
2022-01-30 18:54:06.1350,-0.052,-0.485,-1.026,0.91,0.93,0.99,0.4,-1.16,0.37
2022-01-30 18:54:06.1450,-0.109,-0.441,-1.072,1.29,0.47,1.33,-0.05,-1.63,0.12
2022-01-30 18:54:06.1550,-0.17,-0.383,-1.122,1.71,0.03,1.81,-0.21,-1.72,-0.09
2022-01-30 18:54:06.1650,-0.239,-0.312,-1.135,2.2,-0.59,2.2,-0.21,-1.5706450939178467,-0.33
2022-01-30 18:54:06.1750,-0.299,-0.24,-1.106,2.73,-1.29,2.15,-0.13,-1.18,-0.5
2022-01-30 18:54:06.1850,-0.336,-0.193,-1.05,3.18,-1.93,1.72,-0.13,-1.18,-0.5
2022-01-30 18:54:06.1960,-0.347,-0.183,-1.007,3.39,-2.24,1.18,0.32,-0.17,-0.57
2022-01-30 18:54:06.2050,-0.342,-0.19,-0.992,3.45,-2.28,0.86,0.55,0.1,-0.52
2022-01-30 18:54:06.2150,-0.312,-0.211,-1.007,3.33,-2.21,0.87,0.76,0.11,-0.52
2022-01-30 18:54:06.2250,-0.28,-0.25,-1.027,3.03,-2.01,1.08,0.94,-0.14,-0.59
2022-01-30 18:54:06.2350,-0.257,-0.286,-1.058,2.76,-1.68,1.35,1.1,-0.57,-0.77
2022-01-30 18:54:06.2460,-0.254,-0.295,-1.074,2.57,-1.52,1.68,1.1,-0.57,-0.77
2022-01-30 18:54:06.2550,-0.265,-0.291,-1.061,2.57,-1.6,1.79,1.38,-1.52,-1.41
2022-01-30 18:54:06.2650,-0.279,-0.283,-1.024,2.62,-1.78,1.62,1.38,-1.52,-1.41
2022-01-30 18:54:06.2760,-0.293,-0.273,-0.967,2.69,-1.99,1.26,1.48,-1.87,-1.75
2022-01-30 18:54:06.2860,-0.301,-0.254,-0.896,2.74,-2.25,0.71,1.53,-2.07,-2.31
2022-01-30 18:54:06.2960,-0.299,-0.228,-0.825,2.72,-2.61,0.08,1.53,-2.07,-2.31
2022-01-30 18:54:06.3060,-0.283,-0.214,-0.767,2.62,-2.96,-0.52,1.46,-1.91,-2.53
2022-01-30 18:54:06.3160,-0.251,-0.218,-0.748,2.4,-3.16,-0.88,1.18,-1.45,-2.88
2022-01-30 18:54:06.3260,-0.208,-0.239,-0.739,2.07,-3.16,-0.93,1.04,-1.27,-3.01
2022-01-30 18:54:06.3350,-0.162,-0.265,-0.747,1.68,-2.99,-0.92,0.93,-1.16,-3.14
2022-01-30 18:54:06.3460,-0.113,-0.288,-0.755,1.31,-2.84,-0.74,0.85,-1.14,-3.28
2022-01-30 18:54:06.3560,-0.061,-0.316,-0.757,0.9,-2.68,-0.67,0.85,-1.14,-3.28
2022-01-30 18:54:06.3650,-0.022,-0.352,-0.772,0.51,-2.42,-0.55,0.7,-1.34,-3.47
2022-01-30 18:54:06.3760,0.007,-0.381,-0.806,0.27,-2.12,-0.32,0.59,-1.61,-3.53
2022-01-30 18:54:06.3860,0.036,-0.394,-0.878,0.06,-1.94,0.17,0.4640542268753052,-1.98,-3.6
2022-01-30 18:54:06.3960,0.067,-0.415,-0.952,-0.17,-1.84,0.96,0.39,-2.33,-3.69
2022-01-30 18:54:06.4060,0.105,-0.442,-1.019,-0.48,-1.6,1.66,0.41,-2.59,-3.8
2022-01-30 18:54:06.4160,0.138,-0.437,-1.067,-0.83,-1.44,2.29,0.41,-2.59,-3.8
2022-01-30 18:54:06.4270,0.159,-0.403,-1.105,-1.1,-1.65,2.71,0.51,-2.75,-3.95
2022-01-30 18:54:06.4360,0.171,-0.359,-1.122,-1.25,-2.07,3.09,0.89,-2.58,-4.18
2022-01-30 18:54:06.4460,0.195,-0.312,-1.105,-1.33,-2.58,3.13,1.08,-2.27,-4.21
2022-01-30 18:54:06.4560,0.239,-0.28,-1.105,-1.57,-3.07,3.03,1.2,-1.97,-4.15
2022-01-30 18:54:06.4660,0.293,-0.275,-1.135,-1.96,-3.34,3.21,1.26,-1.8,-4.04
2022-01-30 18:54:06.4770,0.344,-0.289,-1.171,-2.39,-3.39,3.63,1.26,-1.8,-4.04
2022-01-30 18:54:06.4860,0.372,-0.3,-1.201,-2.72,-3.29,4.02,1.41,-1.87,-3.82
2022-01-30 18:54:06.4960,0.371,-0.288,-1.223,-2.79,-3.34,4.38,1.55,-2.04,-3.76
2022-01-30 18:54:06.5070,0.345,-0.261,-1.216,-2.59,-3.61,4.58,1.55,-2.04,-3.76
2022-01-30 18:54:06.5160,0.316,-0.226,-1.193,-2.22,-4.0,4.52,2.02,-2.4,-3.71
2022-01-30 18:54:06.5270,0.302,-0.202,-1.15,-1.91,-4.44,4.34,2.29,-2.6,-3.66
2022-01-30 18:54:06.5370,0.302,-0.196,-1.096,-1.79,-4.72,3.97,2.53,-2.79,-3.61
2022-01-30 18:54:06.5470,0.311,-0.198,-1.039,-1.76,-4.88,3.58,2.53,-2.79,-3.61
2022-01-30 18:54:06.5570,0.331,-0.221,-0.99,-1.87,-4.94,3.16,2.69,-2.95,-3.6
2022-01-30 18:54:06.5670,0.346,-0.252,-0.963,-2.08,-4.67,2.88,2.65,-3.3,-3.76
2022-01-30 18:54:06.5770,0.35,-0.259,-0.957,-2.08,-4.67,2.88,2.65,-3.3,-3.76
2022-01-30 18:54:06.5870,0.337,-0.238,-0.961,-1.99,-4.82,3.0,2.24,-3.64,-4.12
2022-01-30 18:54:06.5970,0.318,-0.211,-0.961,-1.46,-5.48,3.21,2.02,-3.71,-4.25
2022-01-30 18:54:06.6070,0.292,-0.179,-0.957,-1.46,-5.48,3.21,1.84,-3.71,-4.32
2022-01-30 18:54:06.6170,0.263,-0.139,-0.942,-1.1,-5.89,3.24,1.74,-3.62,-4.31
2022-01-30 18:54:06.6260,0.227,-0.112,-0.915,-0.23,-6.51,2.9,1.69,-3.51,-4.23
2022-01-30 18:54:06.6360,0.189,-0.099,-0.896,-0.23,-6.51,2.9,1.65,-3.45,-4.11
2022-01-30 18:54:06.6470,0.152,-0.094,-0.884,0.26,-6.62,2.81,1.62,-3.43,-4.0
2022-01-30 18:54:06.6580,0.128,-0.096,-0.865,0.69,-6.65,2.73,1.62,-3.43,-4.0
2022-01-30 18:54:06.6670,0.12,-0.101,-0.839,0.96,-6.63,2.55,1.46,-3.56,-3.82
2022-01-30 18:54:06.6780,0.125,-0.117,-0.803,1.07,-6.56,2.3,1.34,-3.66,-3.75
2022-01-30 18:54:06.6870,0.136,-0.142,-0.765,1.06,-6.34,1.93,1.2,-3.76,-3.71
2022-01-30 18:54:06.6970,0.159,-0.164,-0.736,0.78,-5.84,1.31,1.2,-3.76,-3.71
2022-01-30 18:54:06.7080,0.187,-0.183,-0.708,0.78,-5.84,1.31,0.91,-3.76,-3.69
2022-01-30 18:54:06.7170,0.204,-0.204,-0.686,0.53,-5.34,0.81,0.71,-3.66,-3.64
2022-01-30 18:54:06.7280,0.212,-0.234,-0.676,0.53,-5.34,0.81,0.71,-3.66,-3.64
2022-01-30 18:54:06.7370,0.224,-0.265,-0.684,0.43,-4.59,0.81,0.2,-3.43,-3.41
2022-01-30 18:54:06.7470,0.232,-0.292,-0.72,0.38,-4.25,1.12,0.2,-3.43,-3.41
2022-01-30 18:54:06.7580,0.238,-0.315,-0.769,0.38,-4.25,1.12,-0.04,-3.38,-3.24
2022-01-30 18:54:06.7680,0.242,-0.33,-0.824,0.34,-3.95,1.53,-0.22,-3.38,-3.08
2022-01-30 18:54:06.7770,0.245,-0.341,-0.879,0.3,-3.73,1.96,-0.3,-3.45,-2.86
2022-01-30 18:54:06.7880,0.24,-0.346,-0.923,0.34,-3.43,2.55,-0.2,-3.35,-2.79
2022-01-30 18:54:06.7970,0.224,-0.347,-0.926,0.34,-3.43,2.55,-0.11,-3.15,-2.68
2022-01-30 18:54:06.8080,0.207,-0.355,-0.93,0.49,-3.32,2.45,-0.11,-3.15,-2.68
2022-01-30 18:54:06.8180,0.199,-0.369,-0.937,0.61,-3.14,2.44,-0.04,-2.91,-2.55
2022-01-30 18:54:06.8270,0.196,-0.385,-0.941,0.63,-2.93,2.42,0.02,-2.59,-2.24
2022-01-30 18:54:06.8370,0.191,-0.399,-0.943,0.62,-2.72,2.4,0.02,-2.59,-2.24
2022-01-30 18:54:06.8470,0.176,-0.406,-0.944,0.67,-2.55,2.34,0.06,-2.57,-2.01
2022-01-30 18:54:06.8580,0.15,-0.409,-0.939,0.81,-2.47,2.28,0.08,-2.63,-1.93
2022-01-30 18:54:06.8670,0.116,-0.411,-0.923,1.29,-2.38,1.85,0.1,-2.68,-1.88
2022-01-30 18:54:06.8780,0.092,-0.4,-0.884,1.29,-2.38,1.85,0.1,-2.68,-1.88
2022-01-30 18:54:06.8880,0.083,-0.387,-0.83,1.39,-2.47,1.34,0.13,-2.66,-1.86
2022-01-30 18:54:06.8980,0.083,-0.373,-0.766,1.2924206006526948,-2.65,0.05,0.08,-2.37,-1.78
2022-01-30 18:54:06.9080,0.086,-0.372,-0.717,1.29,-2.65,0.05,-0.03,-2.25,-1.65
2022-01-30 18:54:06.9180,0.08,-0.38,-0.722,1.23,-2.55,-0.31,-0.21,-2.2,-1.49
2022-01-30 18:54:06.9280,0.078,-0.384,-0.742,1.23,-2.45,-0.17,-0.4,-2.17,-1.34
2022-01-30 18:54:06.9370,0.084,-0.394,-0.755,1.12,-2.33,-0.12,-0.62,-2.18,-1.26
2022-01-30 18:54:06.9480,0.087,-0.4,-0.789,0.88,-2.04,0.27,-0.89,-2.25,-1.26
2022-01-30 18:54:06.9580,0.08,-0.396,-0.829,0.88,-2.04,0.27,-1.24,-2.43,-1.3
2022-01-30 18:54:06.9680,0.063,-0.378,-0.895,0.89,-2.02,0.63,-1.64,-2.72,-1.34
2022-01-30 18:54:06.9780,0.052,-0.373,-0.977,0.92,-2.04,1.22,-1.64,-2.72,-1.34
2022-01-30 18:54:06.9880,0.046,-0.393,-1.079,0.82,-1.81,1.93,-2.21,-3.42,-1.24
2022-01-30 18:54:06.9980,0.034,-0.399,-1.201,0.69,-1.42,2.84,-2.18,-3.75,-1.08
2022-01-30 18:54:07.0090,0.005,-0.369,-1.328,0.59,-1.3,3.96,-1.9,-3.9,-0.9
2022-01-30 18:54:07.0180,-0.031,-0.321,-1.391,0.65,-1.51,4.88,-1.48,-3.84,-0.74
2022-01-30 18:54:07.0280,-0.077,-0.262,-1.43,0.74,-1.9,5.25,-1.07,-3.57,-0.62
2022-01-30 18:54:07.0380,-0.127,-0.212,-1.464,0.95,-2.39,5.57,-0.79,-3.23,-0.58
2022-01-30 18:54:07.0480,-0.145,-0.197,-1.499,0.87,-2.63,6.22,-0.67,-2.96,-0.6
2022-01-30 18:54:07.0590,-0.114,-0.223,-1.549,0.87,-2.63,6.22,-0.67,-2.96,-0.6
2022-01-30 18:54:07.0690,-0.066,-0.259,-1.603,0.24,-2.24,6.74,-0.66,-2.89,-0.65
2022-01-30 18:54:07.0780,-0.032,-0.278,-1.633,-0.44,-1.88,7.21,-0.65,-3.01,-0.72
2022-01-30 18:54:07.0880,-0.032,-0.279,-1.627,-0.91,-1.73,7.37,-0.4,-3.46,-0.8
2022-01-30 18:54:07.0980,-0.059,-0.269,-1.6,-1.04,-1.74,7.26,-0.4,-3.46,-0.8
2022-01-30 18:54:07.1090,-0.093,-0.262,-1.541,-1.01,-1.84,6.93,-0.02,-3.57,-0.86
2022-01-30 18:54:07.1180,-0.121,-0.264,-1.467,-0.96,-1.88,6.32,0.08,-3.37,-0.96
2022-01-30 18:54:07.1290,-0.134,-0.263,-1.387,-0.97,-1.89,5.65,0.1,-3.09,-1.11
2022-01-30 18:54:07.1380,-0.131,-0.27,-1.31,-1.13,-1.92,4.94,0.05,-2.79,-1.3
2022-01-30 18:54:07.1480,-0.12,-0.278,-1.245,-1.36,-1.84,4.29,0.05,-2.79,-1.3
2022-01-30 18:54:07.1590,-0.092,-0.271,-1.192,-1.66,-1.87,3.78,-0.2,-2.33,-1.79
2022-01-30 18:54:07.1690,-0.052,-0.274,-1.146,-2.1,-1.97,3.33,-0.37,-2.21,-2.02
2022-01-30 18:54:07.1790,-0.009,-0.287,-1.106,-2.6,-1.91,2.95,-0.37,-2.21,-2.02
2022-01-30 18:54:07.1890,0.031,-0.298,-1.076,-3.09,-1.8,2.62,-0.61,-2.13,-2.31
2022-01-30 18:54:07.1990,0.063,-0.301,-1.055,-3.52,-1.74,2.42,-0.65,-2.12,-2.39
2022-01-30 18:54:07.2090,0.087,-0.303,-1.028,-3.86,-1.74,2.23,-0.64,-2.09,-2.41
2022-01-30 18:54:07.2180,0.107,-0.303,-1.001,-4.14,-1.75,2.0,-0.57,-2.08,-2.41
2022-01-30 18:54:07.2290,0.12,-0.297,-0.976,-4.36,-1.8,1.78,-0.57,-2.08,-2.41
2022-01-30 18:54:07.2390,0.13,-0.289,-0.952,-4.53,-1.91,1.58,-0.46,-2.09,-2.37
2022-01-30 18:54:07.2490,0.143,-0.291,-0.92,-4.89,-2.0,1.11,-0.25,-2.1,-2.26
2022-01-30 18:54:07.2590,0.166,-0.307,-0.891,-4.89,-2.0,1.11,-0.21,-2.09,-2.23
2022-01-30 18:54:07.2690,0.196,-0.333,-0.873,-5.2,-1.86,0.94,-0.21,-2.09,-2.23
2022-01-30 18:54:07.2790,0.224,-0.358,-0.862,-5.55,-1.65,0.85,-0.37,-1.99,-2.24
2022-01-30 18:54:07.2890,0.246,-0.378,-0.843,-6.08,-1.33,0.62,-0.48,-1.84,-2.23
2022-01-30 18:54:07.2990,0.266,-0.396,-0.827,-6.08,-1.33,0.62,-0.56,-1.64,-2.19
2022-01-30 18:54:07.3100,0.279,-0.41,-0.818,-6.26,-1.2,0.4790325576066971,-0.61,-1.43,-2.11
2022-01-30 18:54:07.3190,0.289,-0.414,-0.811,-6.37,-1.13,0.47,-0.6,-1.19,-1.97
2022-01-30 18:54:07.3290,0.299,-0.414,-0.797,-6.53,-1.16,0.25,-0.5683696866035461,-0.95,-1.79
2022-01-30 18:54:07.3400,0.31,-0.415,-0.789,-6.53,-1.16,0.25,-0.57,-0.95,-1.79
2022-01-30 18:54:07.3480,0.329,-0.431,-0.79,-6.64,-1.12,0.23,-0.5,-0.75,-1.58
2022-01-30 18:54:07.3570,0.357,-0.46,-0.788,-6.83,-0.92,0.23,-0.44,-0.61,-1.37
2022-01-30 18:54:07.3670,0.389,-0.495,-0.776,-7.11,-0.63,0.18,-0.35,-0.51,-1.18
2022-01-30 18:54:07.3760,0.409,-0.529,-0.76,-7.38,-0.28,0.03,-0.29,-0.43,-1.01
2022-01-30 18:54:07.3860,0.415,-0.55,-0.745,-7.5,0.0,-0.12,-0.26,-0.37,-0.86
2022-01-30 18:54:07.3960,0.42,-0.57,-0.726,-7.52,0.18,-0.3,-0.28,-0.31,-0.72
2022-01-30 18:54:07.4070,0.428,-0.612,-0.72,-7.57,0.44,-0.46,-0.34,-0.26,-0.57
2022-01-30 18:54:07.4170,0.44,-0.665,-0.726,-7.66,0.95,-0.48,-0.45,-0.26,-0.41
2022-01-30 18:54:07.4270,0.445,-0.714,-0.743,-7.79,1.49,-0.4,-0.61,-0.28,-0.23
2022-01-30 18:54:07.4370,0.436,-0.766,-0.767,-7.8,2.04,-0.24,-0.8,-0.29,-0.05
2022-01-30 18:54:07.4470,0.413,-0.809,-0.802,-7.69,2.62,-0.01,-0.95,-0.27,0.14
2022-01-30 18:54:07.4570,0.397,-0.835,-0.84,-7.49,3.06,0.32,-1.04,-0.23,0.3
2022-01-30 18:54:07.4670,0.399,-0.872,-0.888,-7.44,3.41,0.66,-1.04,-0.18,0.43
2022-01-30 18:54:07.4770,0.393,-0.912,-0.937,-7.5,3.93,1.11,-0.93,-0.13,0.53
2022-01-30 18:54:07.4870,0.371,-0.926,-0.976,-7.41,4.3,1.53,-0.74,-0.07,0.59
2022-01-30 18:54:07.4970,0.348,-0.942,-1.006,-7.2,4.48,1.86,-0.53,0.01,0.65
2022-01-30 18:54:07.5070,0.331,-0.966,-1.027,-7.02,4.73,2.08,-0.34,0.12,0.69
2022-01-30 18:54:07.5170,0.312,-0.98,-1.066,-6.88,5.01,2.31,-0.23,0.19,0.73
2022-01-30 18:54:07.5270,0.285,-0.977,-1.12,-6.68,5.11,2.74,-0.2,0.19,0.75
2022-01-30 18:54:07.5370,0.261,-0.968,-1.187,-6.43,5.11,3.3,-0.22,0.15,0.74
2022-01-30 18:54:07.5470,0.241,-0.948,-1.253,-6.24,5.03,3.96,-0.22,0.1,0.7
2022-01-30 18:54:07.5570,0.228,-0.922,-1.305,-6.09,4.85,4.56,-0.18,0.08,0.65
2022-01-30 18:54:07.5670,0.215,-0.883,-1.34,-5.98,4.57,5.0,-0.09,0.14,0.6
2022-01-30 18:54:07.5770,0.199,-0.841,-1.356,-5.85,4.2,5.27,0.05,0.29,0.6
2022-01-30 18:54:07.5870,0.179,-0.795,-1.363,-5.66,3.78,5.35,0.22,0.54,0.67
2022-01-30 18:54:07.5970,0.161,-0.752,-1.355,-5.43,3.33,5.4,0.43,0.88,0.78
2022-01-30 18:54:07.6070,0.158,-0.711,-1.331,-5.24,2.89,5.19,0.67,1.31,0.92
2022-01-30 18:54:07.6170,0.157,-0.681,-1.318,-5.13,2.49,4.98,0.89,1.7,1.07
2022-01-30 18:54:07.6270,0.16,-0.668,-1.311,-5.04,2.22,4.84,1.06,1.99,1.2
2022-01-30 18:54:07.6370,0.156,-0.663,-1.316,-4.94,2.08,4.8,1.15,2.1,1.3
2022-01-30 18:54:07.6470,0.138,-0.66,-1.309,-4.74,2.0,4.81,1.21,2.1,1.36
2022-01-30 18:54:07.6580,0.118,-0.644,-1.287,-4.43,1.87,4.67,1.27,2.05,1.34
2022-01-30 18:54:07.6670,0.1,-0.619,-1.252,-4.15,1.6,4.41,1.36,2.0,1.27
2022-01-30 18:54:07.6770,0.086,-0.595,-1.203,-3.87,1.27,4.02,1.44,1.99,1.16
2022-01-30 18:54:07.6870,0.074,-0.57,-1.137,-3.63,0.95,3.49,1.48,2.05,1.07
2022-01-30 18:54:07.6970,0.067,-0.544,-1.062,-3.39,0.61,2.81,1.47,2.2,1.02
2022-01-30 18:54:07.7080,0.067,-0.525,-0.986,-3.21,0.28,2.06,1.42,2.42,1.01
2022-01-30 18:54:07.7170,0.073,-0.519,-0.926,-3.07,0.06,1.36,1.33,2.66,1.03
2022-01-30 18:54:07.7270,0.076,-0.518,-0.884,-2.95,-0.04,0.84,1.2,2.86,1.07
2022-01-30 18:54:07.7370,0.076,-0.518,-0.848,-2.77,-0.1,0.45,1.07,3.02,1.1
2022-01-30 18:54:07.7470,0.075,-0.519,-0.829,-2.58,-0.16,0.11,0.94,3.11,1.11
2022-01-30 18:54:07.7580,0.071,-0.523,-0.839,-2.37,-0.18,0.04,0.85,3.08,1.09
2022-01-30 18:54:07.7670,0.063,-0.514,-0.855,-2.14,-0.22,0.19,0.78,2.93,1.04
2022-01-30 18:54:07.7780,0.05,-0.49,-0.856,-1.87,-0.41,0.3,0.77,2.73,0.97
2022-01-30 18:54:07.7880,0.048,-0.461,-0.855,-1.6,-0.73,0.29,0.79,2.52,0.89
2022-01-30 18:54:07.7980,0.062,-0.435,-0.863,-1.51,-1.07,0.34,0.81,2.32,0.81
2022-01-30 18:54:07.8080,0.069,-0.417,-0.881,-1.52,-1.35,0.45,0.82,2.12,0.77
2022-01-30 18:54:07.8180,0.059,-0.399,-0.923,-1.41,-1.58,0.75,0.78,1.9,0.78
2022-01-30 18:54:07.8280,0.043,-0.383,-0.965,-1.2,-1.8,1.22,0.73,1.67,0.83
2022-01-30 18:54:07.8380,0.022,-0.369,-0.996,-0.95,-2.0,1.63,0.7,1.51,0.88
2022-01-30 18:54:07.8480,-0.004,-0.359,-1.01,-0.66,-2.18,1.91,0.71,1.47,0.9
2022-01-30 18:54:07.8580,-0.036,-0.351,-1.013,-0.31,-2.31,2.03,0.75,1.55,0.9
2022-01-30 18:54:07.8680,-0.07,-0.342,-1.007,0.1,-2.46,2.06,0.77,1.73,0.89
2022-01-30 18:54:07.8780,-0.105,-0.333,-0.992,0.54,-2.6,2.01,0.77,1.96,0.89
2022-01-30 18:54:07.8880,-0.129,-0.327,-0.976,0.99,-2.74,1.88,0.73,2.2,0.89
2022-01-30 18:54:07.8980,-0.138,-0.332,-0.966,1.29,-2.8,1.79,0.66,2.4,0.88
2022-01-30 18:54:07.9090,-0.137,-0.343,-0.963,1.48,-2.77,1.72,0.57,2.51,0.84
2022-01-30 18:54:07.9180,-0.131,-0.358,-0.966,1.58,-2.68,1.79,0.48,2.51,0.79
2022-01-30 18:54:07.9280,-0.131,-0.366,-0.955,1.69,-2.59,1.79,0.41,2.46,0.76
2022-01-30 18:54:07.9330,-0.132,-0.365,-0.934,1.69,-2.59,1.79,0.48,2.29,0.79
2022-01-30 18:54:07.9470,-0.129,-0.369,-0.902,1.83,-2.58,1.69,0.58,2.2,0.86
2022-01-30 18:54:07.9570,-0.129,-0.381,-0.866,1.95,-2.63,1.47,0.68,2.1,0.95
2022-01-30 18:54:07.9670,-0.135,-0.394,-0.827,2.03,-2.6,1.2,0.68,2.1,0.95
2022-01-30 18:54:07.9770,-0.159,-0.408,-0.8,2.16,-2.53,0.89,0.78,1.79,1.12
2022-01-30 18:54:07.9860,-0.202,-0.418,-0.803,2.35,-2.3882671666145328,0.5016425710916519,0.78,1.49,1.13
2022-01-30 18:54:07.9970,-0.25,-0.423,-0.817,2.72,-2.39,0.5,0.77,1.14,1.05
2022-01-30 18:54:08.0070,-0.299,-0.432,-0.827,3.21,-2.4,0.65,0.76,0.85,0.88
2022-01-30 18:54:08.0170,-0.323,-0.43,-0.809,3.71,-2.4,0.88,0.75,0.63,0.63
2022-01-30 18:54:08.0270,-0.319,-0.428,-0.78,4.25,-2.5,0.76,0.72,0.56,0.35
2022-01-30 18:54:08.0370,-0.304,-0.431,-0.727,4.17,-2.55,0.44,0.63,0.65,0.11
2022-01-30 18:54:08.0470,-0.286,-0.43,-0.665,4.17,-2.55,0.44,0.63,0.65,0.11
2022-01-30 18:54:08.0570,-0.269,-0.431,-0.605,4.05,-2.57,-0.09,0.49,0.86,-0.03
2022-01-30 18:54:08.0670,-0.254,-0.438,-0.554,3.93,-2.62,-0.64,0.31,1.16,-0.09
2022-01-30 18:54:08.0770,-0.236,-0.448,-0.532,3.86,-2.6,-1.18,0.11,1.47,-0.09
2022-01-30 18:54:08.0870,-0.224,-0.473,-0.541,3.81,-2.54,-1.57,-0.08,1.71,-0.06
2022-01-30 18:54:08.0970,-0.214,-0.509,-0.563,3.76,-2.39,-1.64,-0.22,1.81,-0.01
2022-01-30 18:54:08.1070,-0.205,-0.541,-0.603,3.79,-2.07,-1.48,-0.26,1.75,0.01
2022-01-30 18:54:08.1170,-0.204,-0.56,-0.637,3.8,-1.7,-1.19,-0.24,1.54,0.01
2022-01-30 18:54:08.1270,-0.207,-0.563,-0.646,3.84,-1.41,-0.76,-0.14,1.28,-0.05
2022-01-30 18:54:08.1380,-0.205,-0.57,-0.648,4.05,-1.25,-0.45,0.12,0.74,-0.19
2022-01-30 18:54:08.1470,-0.198,-0.584,-0.648,4.07,-1.15,-0.41,0.22,0.49,-0.2
2022-01-30 18:54:08.1580,-0.177,-0.604,-0.647,4.07,-1.15,-0.41,0.22,0.49,-0.2
2022-01-30 18:54:08.1670,-0.151,-0.63,-0.654,3.8,-0.8,-0.37,0.29,0.04,-0.1
2022-01-30 18:54:08.1770,-0.123,-0.658,-0.674,3.8,-0.8,-0.37,0.33,-0.16,-0.04
2022-01-30 18:54:08.1870,-0.104,-0.687,-0.69,3.53,-0.55,-0.23,0.43,-0.32,0.0
2022-01-30 18:54:08.1980,-0.103,-0.695,-0.7,3.12,-0.08,0.14,0.58,-0.44,0.01
2022-01-30 18:54:08.2080,-0.115,-0.689,-0.705,3.12,-0.08,0.14,0.73,-0.54,-0.04
2022-01-30 18:54:08.2180,-0.122,-0.684,-0.713,3.16,-0.12,0.25,0.73,-0.54,-0.04
2022-01-30 18:54:08.2280,-0.124,-0.677,-0.727,3.25,-0.32,0.48,0.77,-0.87,-0.22
2022-01-30 18:54:08.2380,-0.115,-0.683,-0.741,3.19,-0.43,0.67,0.77,-0.87,-0.22
2022-01-30 18:54:08.2470,-0.096,-0.714,-0.744,3.19,-0.43,0.67,0.63,-1.11,-0.3
2022-01-30 18:54:08.2570,-0.072,-0.735,-0.748,3.01,-0.28,0.78,0.18,-1.51,-0.52
2022-01-30 18:54:08.2680,-0.06,-0.735,-0.745,2.46,0.12,0.82,-0.05,-1.6,-0.67
2022-01-30 18:54:08.2780,-0.063,-0.717,-0.734,2.46,0.12,0.82,-0.05,-1.6,-0.67
2022-01-30 18:54:08.2880,-0.069,-0.697,-0.722,2.36,0.06,0.73,-0.41,-1.5,-0.89
2022-01-30 18:54:08.2980,-0.069,-0.682,-0.716,2.36,-0.24,0.4,-0.49,-1.39,-0.94
2022-01-30 18:54:08.3080,-0.062,-0.672,-0.719,2.36,-0.24,0.4,-0.49,-1.39,-0.94
2022-01-30 18:54:08.3180,-0.046,-0.668,-0.735,2.3,-0.33,0.31,-0.5,-1.32,-0.95
2022-01-30 18:54:08.3280,-0.024,-0.669,-0.749,2.19,-0.35,0.34,-0.46,-1.31,-0.92
2022-01-30 18:54:08.3380,0.001,-0.672,-0.774,1.97,-0.32,0.44,-0.37,-1.37,-0.85
2022-01-30 18:54:08.3480,0.034,-0.673,-0.804,1.72,-0.26,0.55,-0.11,-1.81,-0.74
2022-01-30 18:54:08.3580,0.063,-0.668,-0.813,1.37,-0.2,0.8,-0.01,-2.06,-0.72
2022-01-30 18:54:08.3680,0.089,-0.663,-0.791,0.98,-0.21,1.01,0.04,-2.23,-0.72
2022-01-30 18:54:08.3780,0.11,-0.651,-0.75,0.62,-0.23,0.95,0.04,-2.23,-0.72
2022-01-30 18:54:08.3880,0.13,-0.65,-0.703,0.28,-0.31,0.62,-0.16,-2.21,-0.73
2022-01-30 18:54:08.4070,0.147,-0.661,-0.664,-0.34,-0.32,-0.33,-0.16,-2.21,-0.73
2022-01-30 18:54:08.4160,0.152,-0.669,-0.64,-0.56,-0.18,-0.72,-0.4,-2.05,-0.72
2022-01-30 18:54:08.4180,0.156,-0.678,-0.634,-0.56,-0.18,-0.72,-0.69,-1.82,-0.7
2022-01-30 18:54:08.4270,0.159,-0.687,-0.649,-0.68,-0.05,-0.95,-1.2,-1.39,-0.65
2022-01-30 18:54:08.4370,0.162,-0.696,-0.671,-0.79,0.12,-1.01,-1.2,-1.39,-0.65
2022-01-30 18:54:08.4470,0.173,-0.697,-0.694,-0.97,0.47,-0.78,-1.28,-1.1,-0.56
2022-01-30 18:54:08.4560,0.195,-0.693,-0.725,-0.97,0.47,-0.78,-1.28,-1.1,-0.56
2022-01-30 18:54:08.4660,0.219,-0.695,-0.753,-1.17,0.55,-0.61,-1.04,-1.14,-0.49
2022-01-30 18:54:08.4770,0.243,-0.708,-0.749,-1.45,0.62,-0.37,-0.93,-1.2,-0.42
2022-01-30 18:54:08.4870,0.266,-0.727,-0.75,-2.05,1.0,-0.41,-0.89,-1.3,-0.32
2022-01-30 18:54:08.4980,0.286,-0.743,-0.756,-2.35,1.25,-0.43,-0.91,-1.39,-0.22
2022-01-30 18:54:08.5080,0.297,-0.754,-0.768,-2.35,1.25,-0.43,-0.93,-1.46,-0.12
2022-01-30 18:54:08.5180,0.295,-0.752,-0.792,-2.79,1.61,-0.31,-0.93,-1.46,-0.12
2022-01-30 18:54:08.5270,0.278,-0.738,-0.81,-2.83,1.6,-0.12,-0.86,-1.47,0.04
2022-01-30 18:54:08.5380,0.26,-0.728,-0.822,-2.83,1.6,-0.12,-0.86,-1.47,0.04
2022-01-30 18:54:08.5480,0.255,-0.731,-0.841,-2.76,1.54,-0.05,-0.65,-1.25,0.22
2022-01-30 18:54:08.5580,0.258,-0.745,-0.857,-2.74,1.54,0.07,-0.49,-1.08,0.28
2022-01-30 18:54:08.5680,0.27,-0.756,-0.87,-2.84,1.68,0.2,-0.31,-0.88,0.29
2022-01-30 18:54:08.5780,0.285,-0.775,-0.868,-3.23,2.01,0.39,-0.16,-0.67,0.28
2022-01-30 18:54:08.5880,0.3,-0.795,-0.863,-3.23,2.01,0.39,-0.16,-0.67,0.28
2022-01-30 18:54:08.5990,0.308,-0.792,-0.853,-3.62,2.38,0.27,-0.04,-0.26,0.27
2022-01-30 18:54:08.6090,0.313,-0.783,-0.891,-3.62,2.38,0.27,-0.11,-0.34,0.28
2022-01-30 18:54:08.6190,0.292,-0.753,-0.987,-3.74,2.3,0.29,-0.11,-0.34,0.28
2022-01-30 18:54:08.6290,0.264,-0.714,-1.103,-3.75,2.19,0.88,-0.28,-0.7,0.28
2022-01-30 18:54:08.6390,0.226,-0.706,-1.167,-3.57,1.82,1.98,-0.43,-1.08,0.29
2022-01-30 18:54:08.6490,0.172,-0.685,-1.206,-3.06,1.58,3.41,-0.44,-1.29,0.3
2022-01-30 18:54:08.6600,0.119,-0.625,-1.236,-2.63,1.24,3.78,-0.02,-1.04,0.24
2022-01-30 18:54:08.6690,0.076,-0.559,-1.233,-2.63,1.24,3.78,-0.02,-1.04,0.24
2022-01-30 18:54:08.6790,0.041,-0.5,-1.192,-2.25,0.6,3.99,0.66,0.01,0.22
2022-01-30 18:54:08.6890,0.021,-0.445,-1.143,-1.63,-0.65,3.39,0.9,0.53,0.29
2022-01-30 18:54:08.6990,0.015,-0.397,-1.112,-1.47,-1.25,2.98,1.03,0.84,0.43
2022-01-30 18:54:08.7100,0.01,-0.379,-1.102,-1.38,-1.7,2.83,1.11,0.91,0.61
2022-01-30 18:54:08.7190,-0.008,-0.366,-1.102,-1.38,-1.7,2.83,1.19,0.74,0.8
2022-01-30 18:54:08.7290,-0.048,-0.345,-1.118,-1.27,-1.89,2.8,1.31,0.4,0.96
2022-01-30 18:54:08.7400,-0.107,-0.313,-1.129,-1.0,-2.14,2.94,1.49,-0.01,1.07
2022-01-30 18:54:08.7490,-0.181,-0.269,-1.126,0.02,-2.94,3.32,1.7,-0.38,1.1
2022-01-30 18:54:08.7600,-0.256,-0.22,-1.101,0.02,-2.94,3.32,1.9,-0.67,1.05
2022-01-30 18:54:08.7690,-0.318,-0.171,-1.065,0.67,-3.51,3.3,2.05,-0.82,0.93
2022-01-30 18:54:08.7800,-0.363,-0.138,-1.008,1.27,-4.12,3.13,2.09,-0.8,0.77
2022-01-30 18:54:08.7890,-0.386,-0.13,-0.935,1.7,-4.7,2.86,2.0,-0.63,0.6
2022-01-30 18:54:08.7990,-0.391,-0.139,-0.878,2.01,-5.22,1.82,1.8,-0.39,0.44
2022-01-30 18:54:08.8100,-0.385,-0.155,-0.831,2.01,-5.22,1.82,1.5,-0.1,0.29
2022-01-30 18:54:08.8200,-0.379,-0.169,-0.798,1.96,-5.21,1.43,1.5,-0.1,0.29
2022-01-30 18:54:08.8300,-0.379,-0.183,-0.777,1.86,-5.15,1.11,1.15,0.2,0.17
2022-01-30 18:54:08.8390,-0.381,-0.197,-0.76,1.82,-5.09,0.92,0.77,0.49,0.09
2022-01-30 18:54:08.8500,-0.38,-0.21,-0.758,1.9274559947848322,-4.89,0.66,0.41,0.77,0.04
2022-01-30 18:54:08.8600,-0.372,-0.231,-0.761,1.92,-4.89,0.66,0.08,1.0,-0.0
2022-01-30 18:54:08.8700,-0.359,-0.262,-0.769,1.96,-4.76,0.66,-0.38,1.34,-0.04
2022-01-30 18:54:08.8800,-0.342,-0.296,-0.789,1.95,-4.49,0.66,-0.48,1.4,-0.04
2022-01-30 18:54:08.8900,-0.326,-0.329,-0.805,1.9,-4.15,0.75,-0.48,1.4,-0.04
2022-01-30 18:54:08.9000,-0.315,-0.353,-0.81,1.78,-3.44,0.94,-0.42,1.43,-0.0
2022-01-30 18:54:08.9110,-0.313,-0.373,-0.809,1.78,-3.44,0.94,-0.42,1.43,-0.0
2022-01-30 18:54:08.9200,-0.312,-0.385,-0.8,1.81,-3.2,0.92,-0.2,1.46,0.01
2022-01-30 18:54:08.9300,-0.31,-0.402,-0.777,1.91,-3.01,0.85,-0.13,1.5,-0.0
2022-01-30 18:54:08.9400,-0.304,-0.43,-0.758,2.0,-2.88,0.68,-0.13,1.5,-0.0
2022-01-30 18:54:08.9500,-0.298,-0.46,-0.761,2.11,-2.35,0.28,-0.09,1.38,-0.04
2022-01-30 18:54:08.9610,-0.289,-0.496,-0.775,2.11,-2.35,0.28,-0.09,1.38,-0.04
2022-01-30 18:54:08.9700,-0.277,-0.529,-0.792,2.15,-2.04,0.35,0.01,0.94,-0.19
2022-01-30 18:54:08.9800,-0.264,-0.557,-0.805,2.09,-1.38,0.65,0.02,0.67,-0.31
2022-01-30 18:54:08.9900,-0.26,-0.584,-0.816,2.09,-1.38,0.65,0.02,0.67,-0.31
2022-01-30 18:54:09.0000,-0.262,-0.617,-0.817,2.11,-0.82,0.83,-0.19,0.34,-0.61
2022-01-30 18:54:09.0110,-0.264,-0.642,-0.81,2.11,-0.82,0.83,-0.19,0.34,-0.61
2022-01-30 18:54:09.0210,-0.262,-0.653,-0.802,2.29,-0.28,0.68,-0.55,0.4,-0.93
2022-01-30 18:54:09.0310,-0.253,-0.655,-0.81,2.29,-0.28,0.68,-0.55,0.4,-0.93
2022-01-30 18:54:09.0410,-0.24,-0.652,-0.841,2.33,-0.17,0.6,-0.87,0.5,-1.16
2022-01-30 18:54:09.0500,-0.233,-0.65,-0.867,2.33,-0.1,0.98,-1.0,0.53,-1.17
2022-01-30 18:54:09.0610,-0.215,-0.666,-0.886,2.33,-0.1,0.98,-1.0,0.53,-1.17
2022-01-30 18:54:09.0710,-0.187,-0.701,-0.884,2.36,0.0,1.14,-1.0,0.72,-1.02
2022-01-30 18:54:09.0800,-0.154,-0.73,-0.849,2.24,0.33,1.22,-1.0,0.72,-1.02
2022-01-30 18:54:09.0900,-0.114,-0.753,-0.818,2.07,0.76,0.99,-0.85,0.95,-0.92
2022-01-30 18:54:09.1000,-0.072,-0.769,-0.803,1.85,1.08,0.57,-0.4,1.29,-0.68
2022-01-30 18:54:09.1110,-0.04,-0.769,-0.795,1.57,1.35,0.3,-0.18,1.28,-0.55
2022-01-30 18:54:09.1200,-0.009,-0.758,-0.778,1.33,1.49,0.17,-0.18,1.28,-0.55
2022-01-30 18:54:09.1310,0.028,-0.749,-0.764,1.17,1.45,0.08,0.12,0.88,-0.32
2022-01-30 18:54:09.1410,0.072,-0.749,-0.764,0.96,1.34,-0.1,0.17,0.51,-0.2
2022-01-30 18:54:09.1500,0.127,-0.759,-0.769,0.66,1.28,-0.17,0.17,0.08,-0.07
2022-01-30 18:54:09.1610,0.18,-0.784,-0.777,0.24,1.31,-0.13,0.17,0.08,-0.07
2022-01-30 18:54:09.1710,0.212,-0.8,-0.783,-0.3,1.45,-0.05,0.11,-0.66,0.2
2022-01-30 18:54:09.1810,0.214,-0.788,-0.782,-0.79,1.69,0.02,0.09,-0.84,0.35
2022-01-30 18:54:09.1910,0.187,-0.759,-0.777,-1.07,1.74,0.06,0.08,-0.85,0.49
2022-01-30 18:54:09.2010,0.149,-0.725,-0.775,-0.83,1.2,-0.02,0.08,-0.7,0.64
2022-01-30 18:54:09.2110,0.104,-0.7,-0.773,-0.83,1.2,-0.02,0.08,-0.7,0.64
2022-01-30 18:54:09.2210,0.061,-0.675,-0.779,-0.52,0.89,-0.04,0.18,-0.17,0.85
2022-01-30 18:54:09.2310,0.027,-0.655,-0.784,-0.15,0.64,-0.03,0.18,-0.17,0.85
2022-01-30 18:54:09.2410,0.01,-0.646,-0.784,0.18,0.38,0.05,0.35,0.33,0.83
2022-01-30 18:54:09.2510,0.016,-0.654,-0.788,0.41,0.19,0.09,0.41,0.42,0.76
2022-01-30 18:54:09.2620,0.032,-0.664,-0.787,0.46,0.14,0.12,0.43,0.38,0.67
2022-01-30 18:54:09.2710,0.049,-0.669,-0.783,0.33,0.21,0.18,0.41,0.24,0.59
2022-01-30 18:54:09.2820,0.066,-0.671,-0.774,0.16,0.25,0.19,0.36,0.04,0.51
2022-01-30 18:54:09.2910,0.073,-0.658,-0.768,-0.04,0.27,0.15,0.28,-0.18,0.42
2022-01-30 18:54:09.3010,0.069,-0.634,-0.759,-0.21,0.21,0.09,0.18,-0.34,0.34
2022-01-30 18:54:09.3110,0.053,-0.603,-0.744,-0.28,0.02,0.05,0.18,-0.34,0.34
2022-01-30 18:54:09.3210,0.037,-0.572,-0.736,-0.23,-0.27,-0.06,0.08,-0.43,0.27
2022-01-30 18:54:09.3320,0.029,-0.546,-0.725,-0.11,-0.59,-0.19,-0.11,-0.32,0.18
2022-01-30 18:54:09.3410,0.024,-0.527,-0.716,-0.02,-0.88,-0.26,-0.11,-0.32,0.18
2022-01-30 18:54:09.3520,0.018,-0.515,-0.717,0.0,-1.1,-0.4,-0.19,-0.18,0.19
2022-01-30 18:54:09.3620,0.016,-0.503,-0.702,0.03,-1.24,-0.44,-0.3,0.2,0.32
2022-01-30 18:54:09.3710,0.016,-0.493,-0.7,0.06,-1.32,-0.51,-0.35,0.34,0.43
2022-01-30 18:54:09.3820,0.018,-0.488,-0.71,0.06,-1.42,-0.66,-0.35,0.34,0.43
2022-01-30 18:54:09.3920,0.015,-0.482,-0.722,0.05,-1.48,-0.63,-0.42,0.39,0.67
2022-01-30 18:54:09.4020,-0.0,-0.473,-0.735,0.04,-1.49,-0.55,-0.45,0.34,0.79
2022-01-30 18:54:09.4120,-0.026,-0.464,-0.74,0.09,-1.53,-0.44,-0.45,0.34,0.79
2022-01-30 18:54:09.4220,-0.061,-0.457,-0.745,0.51,-1.63,-0.36,-0.46,0.21,1.0
2022-01-30 18:54:09.4320,-0.097,-0.448,-0.733,0.51,-1.63,-0.36,-0.46,0.21,1.0
2022-01-30 18:54:09.4420,-0.126,-0.441,-0.721,0.82,-1.67,-0.38,-0.38,0.18,1.17
2022-01-30 18:54:09.4520,-0.153,-0.441,-0.717,1.1,-1.72,-0.57,-0.36,0.2,1.24
2022-01-30 18:54:09.4620,-0.181,-0.445,-0.7,1.31,-1.74,-0.66,-0.35,0.25,1.31
2022-01-30 18:54:09.4720,-0.203,-0.446,-0.698,1.53,-1.69,-0.76,-0.36,0.24,1.36
2022-01-30 18:54:09.4820,-0.227,-0.448,-0.713,1.87,-1.59,-0.87,-0.4,0.21,1.42
2022-01-30 18:54:09.4920,-0.244,-0.458,-0.712,1.87,-1.59,-0.87,-0.45,0.17,1.47
2022-01-30 18:54:09.5020,-0.257,-0.479,-0.714,2.03,-1.52,-0.82,-0.46,0.15,1.53
2022-01-30 18:54:09.5120,-0.269,-0.501,-0.707,2.1,-1.34,-0.85,-0.42,0.11,1.55
2022-01-30 18:54:09.5230,-0.283,-0.493,-0.714,2.18,-0.88,-0.96,-0.37,0.02,1.52
2022-01-30 18:54:09.5320,-0.296,-0.475,-0.734,2.18,-0.88,-0.96,-0.35,-0.14,1.45
2022-01-30 18:54:09.5420,-0.306,-0.475,-0.76,2.23,-1.0,-0.86,-0.35,-0.14,1.45
2022-01-30 18:54:09.5520,-0.324,-0.479,-0.791,2.25,-1.09,-0.65,-0.45,-0.66,1.29
2022-01-30 18:54:09.5620,-0.348,-0.478,-0.82,2.25,-1.0,-0.4,-0.45,-0.66,1.29
2022-01-30 18:54:09.5720,-0.363,-0.486,-0.848,2.34,-0.94,-0.11,-0.56,-1.13,0.99
2022-01-30 18:54:09.5820,-0.372,-0.503,-0.874,2.38,-0.7,0.41,-0.55,-1.28,0.82
2022-01-30 18:54:09.5930,-0.379,-0.518,-0.887,2.38,-0.7,0.41,-0.48,-1.32,0.67
2022-01-30 18:54:09.6020,-0.389,-0.521,-0.878,2.31,-0.47,0.61,-0.35,-1.26,0.53
2022-01-30 18:54:09.6120,-0.4,-0.511,-0.857,2.23,-0.3,0.5,-0.19,-1.13,0.39
2022-01-30 18:54:09.6220,-0.399,-0.5,-0.838,2.23,-0.3,0.5,-0.07,-1.0,0.25
2022-01-30 18:54:09.6330,-0.385,-0.501,-0.831,2.19,-0.4,0.29,-0.07,-1.0,0.25
2022-01-30 18:54:09.6420,-0.364,-0.52,-0.829,2.04,-0.46,0.16,-0.02,-0.94,0.11
2022-01-30 18:54:09.6530,-0.346,-0.544,-0.837,1.78,-0.37,0.13,-0.1,-1.07,-0.13
2022-01-30 18:54:09.6620,-0.325,-0.563,-0.843,1.5,-0.14,0.16,-0.1,-1.07,-0.13
2022-01-30 18:54:09.6720,-0.304,-0.582,-0.84,1.24,0.28236438274383546,0.3,-0.25,-1.33,-0.41
2022-01-30 18:54:09.6830,-0.293,-0.587,-0.843,0.95,0.28,0.3,-0.31,-1.41,-0.55
2022-01-30 18:54:09.6930,-0.292,-0.579,-0.829,0.68,0.44,0.3,-0.36,-1.41,-0.68
2022-01-30 18:54:09.7030,-0.286,-0.567,-0.814,0.54,0.45,0.32,-0.39,-1.35,-0.81
2022-01-30 18:54:09.7130,-0.276,-0.555,-0.804,0.44,0.35,0.14,-0.39,-1.35,-0.81
2022-01-30 18:54:09.7230,-0.254,-0.548,-0.784,0.13272594809532165,0.15,-0.08,-0.48,-1.08,-1.05
2022-01-30 18:54:09.7330,-0.226,-0.547,-0.779,0.13,0.15,-0.08,-0.55,-0.95,-1.15
2022-01-30 18:54:09.7430,-0.194,-0.547,-0.784,-0.16,0.13,-0.25,-0.55,-0.95,-1.2440829277038574
2022-01-30 18:54:09.7530,-0.159,-0.548,-0.789,-0.46,0.14,-0.25,-0.62,-0.85,-1.24
2022-01-30 18:54:09.7630,-0.123,-0.549,-0.799,-0.79,0.16,-0.2,-0.72,-0.79,-1.37
2022-01-30 18:54:09.7730,-0.091,-0.549,-0.823,-1.13,0.19,-0.17,-0.75,-0.85,-1.39
2022-01-30 18:54:09.7830,-0.064,-0.551,-0.846,-1.47,0.22,-0.02,-0.76,-0.96,-1.37
2022-01-30 18:54:09.7930,-0.045,-0.549,-0.872,-1.77,0.25,0.19,-0.72,-1.07,-1.33
2022-01-30 18:54:09.8020,-0.036,-0.542,-0.888,-2.02,0.29,0.41,-0.66,-1.13,-1.27
2022-01-30 18:54:09.8130,-0.038,-0.525,-0.893,-2.18,0.28,0.64,-0.58,-1.11,-1.2
2022-01-30 18:54:09.8230,-0.043,-0.516,-0.892,-2.26,0.2,0.74,-0.47,-0.99,-1.1
2022-01-30 18:54:09.8340,-0.039,-0.517,-0.877,-2.24,0.02,0.71,-0.35,-0.81,-0.99
2022-01-30 18:54:09.8520,-0.032,-0.514,-0.859,-2.31,0.03,0.54,-0.26,-0.61,-0.89
2022-01-30 18:54:09.8530,-0.025,-0.512,-0.846,-2.31,0.03,0.54,-0.2,-0.44,-0.81
2022-01-30 18:54:09.8620,-0.016,-0.519,-0.839,-2.45,-0.01,0.28,-0.17,-0.31,-0.78
2022-01-30 18:54:09.8720,-0.002,-0.533,-0.829,-2.55,0.09,0.2,-0.2,-0.25,-0.79
2022-01-30 18:54:09.8820,0.011,-0.544,-0.835,-2.66,0.22,0.13,-0.27,-0.28,-0.81
2022-01-30 18:54:09.8920,0.029,-0.564,-0.854,-2.79,0.35,0.26,-0.32,-0.34,-0.82
2022-01-30 18:54:09.9030,0.041,-0.593,-0.857,-2.79,0.35,0.26,-0.31,-0.35,-0.8
2022-01-30 18:54:09.9140,0.043,-0.61,-0.844,-3.01,0.86,0.35,-0.23,-0.29,-0.76
2022-01-30 18:54:09.9250,0.044,-0.617,-0.821,-3.01,0.86,0.35,-0.12,-0.16,-0.71
2022-01-30 18:54:09.9340,0.042,-0.63,-0.8,-3.0,0.98,0.17,-0.12,-0.16,-0.71
2022-01-30 18:54:09.9440,0.041,-0.653,-0.782,-2.98,1.04,-0.05,-0.06,0.09,-0.59
2022-01-30 18:54:09.9530,0.037,-0.672,-0.782,-2.92,1.2,-0.26,-0.15,0.09,-0.56
2022-01-30 18:54:09.9640,0.019,-0.682,-0.806,-2.76,1.58,-0.3,-0.31,-0.0,-0.56
2022-01-30 18:54:09.9740,0.004,-0.688,-0.83,-2.76,1.58,-0.3,-0.49,-0.14,-0.59
2022-01-30 18:54:09.9840,-0.005,-0.697,-0.854,-2.54,1.66,-0.06,-0.49,-0.14,-0.59
2022-01-30 18:54:09.9940,-0.016,-0.693,-0.852,-2.3,1.85,0.31,-0.71,-0.19,-0.67
2022-01-30 18:54:10.0040,-0.022,-0.68,-0.819,-2.3,1.85,0.31,-0.71,-0.19,-0.67
2022-01-30 18:54:10.0140,-0.016,-0.683,-0.787,-2.18,1.81,0.1,-0.63,0.23,-0.58
2022-01-30 18:54:10.0240,-0.003,-0.704,-0.748,-2.13,1.75,-0.26,-0.63,0.23,-0.58
2022-01-30 18:54:10.0330,0.009,-0.718,-0.716,-2.18,1.91,-0.64,-0.37,0.8,-0.19
2022-01-30 18:54:10.0440,0.032,-0.729,-0.698,-2.32,2.28,-1.36,-0.23,0.95,0.02
2022-01-30 18:54:10.0550,0.061,-0.748,-0.698,-2.5,2.43,-1.5,-0.1,0.94,0.23
2022-01-30 18:54:10.0640,0.076,-0.775,-0.714,-2.5,2.43,-1.5,-0.1,0.94,0.23
2022-01-30 18:54:10.0750,0.08,-0.799,-0.73,-2.68,2.67,-1.45,0.13,0.52,0.52
2022-01-30 18:54:10.0850,0.082,-0.812,-0.743,-2.73,2.96,-1.29,0.24,0.18,0.61
2022-01-30 18:54:10.0940,0.076,-0.82,-0.752,-2.74,3.14,-1.16,0.33,-0.19,0.67
2022-01-30 18:54:10.1040,0.063,-0.823,-0.76,-2.71,3.3,-0.93,0.41,-0.54,0.72
2022-01-30 18:54:10.1140,0.03,-0.817,-0.76,-2.71,3.3,-0.93,0.41,-0.54,0.72
2022-01-30 18:54:10.1240,-0.015,-0.803,-0.753,-2.3143846732378006,3.16,-0.83,0.46,-0.96,0.79
2022-01-30 18:54:10.1350,-0.059,-0.794,-0.75,-2.32,3.16,-0.83,0.46,-0.96,0.79
2022-01-30 18:54:10.1440,-0.099,-0.795,-0.751,-1.7,2.94,-0.83,0.5,-0.92,0.74
2022-01-30 18:54:10.1540,-0.133,-0.803,-0.754,-1.44,2.95,-0.76,0.5,-0.77,0.65
2022-01-30 18:54:10.1640,-0.154,-0.816,-0.766,-1.24,3.03,-0.67,0.5,-0.77,0.65
2022-01-30 18:54:10.1730,-0.164,-0.832,-0.784,-1.24,3.03,-0.67,0.48,-0.61,0.51
2022-01-30 18:54:10.1830,-0.172,-0.849,-0.797,-1.12,3.3,-0.29,0.27,-0.24,0.21
2022-01-30 18:54:10.1930,-0.179,-0.857,-0.813,-1.12,3.3,-0.29,0.08,-0.05,0.08
2022-01-30 18:54:10.2030,-0.181,-0.864,-0.834,-1.02,3.47,0.04,0.08,-0.05,0.08
2022-01-30 18:54:10.2130,-0.165,-0.875,-0.857,-1.02,3.47,0.04,-0.14,0.27,-0.09
2022-01-30 18:54:10.2230,-0.129,-0.879,-0.876,-1.27,3.68,0.45,-0.14,0.27,-0.09
2022-01-30 18:54:10.2330,-0.089,-0.873,-0.89,-1.6006320154666902,3.67,0.62,-0.02,0.55,-0.26
2022-01-30 18:54:10.2440,-0.048,-0.874,-0.89,-1.61,3.67,0.62,-0.02,0.55,-0.26
2022-01-30 18:54:10.2540,-0.005,-0.887,-0.891,-2.2803965628147127,3.6695710408687594,0.6605114203691483,0.06,0.67,-0.31
2022-01-30 18:54:10.2640,0.037,-0.902,-0.89,-2.29,3.66,0.66,0.1,0.75,-0.33041760325431824
2022-01-30 18:54:10.2740,0.082,-0.911,-0.903,-2.96,3.91,0.64,0.09,0.77,-0.32
2022-01-30 18:54:10.2840,0.129,-0.917,-0.931,-2.96,3.91,0.64,0.1,0.68,-0.31
2022-01-30 18:54:10.2940,0.173,-0.914,-0.966,-3.34,3.98,0.83,0.15,0.55,-0.27
2022-01-30 18:54:10.3040,0.206,-0.909,-0.996,-4.06,3.93,1.47,0.26,0.45,-0.21
2022-01-30 18:54:10.3140,0.229,-0.898,-1.003,-4.06,3.93,1.47,0.38,0.41,-0.14
2022-01-30 18:54:10.3240,0.235,-0.883,-1.001,-4.44,3.68,1.71,0.5,0.45,-0.05
2022-01-30 18:54:10.3340,0.222,-0.871,-0.983,-4.37,3.49,1.67,0.57,0.59,0.06
2022-01-30 18:54:10.3440,0.205,-0.864,-0.961,-4.18,3.36,1.45,0.57,0.59,0.06
2022-01-30 18:54:10.3540,0.188,-0.853,-0.961,-3.95,3.24,1.32,0.54,0.87,0.24
2022-01-30 18:54:10.3640,0.169,-0.83,-0.988,-3.95,3.24,1.32,0.45,0.83,0.24
2022-01-30 18:54:10.3740,0.145,-0.796,-1.043,-3.74,3.06,1.43,0.45,0.83,0.24
2022-01-30 18:54:10.3850,0.117,-0.768,-1.087,-3.48,2.75,1.81,0.22,0.49,0.15
2022-01-30 18:54:10.3950,0.081,-0.738,-1.094,-3.18,2.4,2.37,0.19,0.43,0.14
2022-01-30 18:54:10.4050,0.045,-0.702,-1.07,-2.45,1.79,2.63,0.27,0.55,0.16
2022-01-30 18:54:10.4140,0.028,-0.67,-1.017,-2.12,1.43,2.27,0.44,0.83,0.2
2022-01-30 18:54:10.4240,0.022,-0.632,-0.958,-1.95,1.08,1.71,0.66,1.15,0.26
2022-01-30 18:54:10.4340,0.022,-0.582,-0.913,-1.84,0.61,1.18,0.66,1.15,0.26
2022-01-30 18:54:10.4440,0.023,-0.538,-0.894,-1.75,0.05,0.85,0.96,1.5,0.41
2022-01-30 18:54:10.4540,0.025,-0.524,-0.876,-1.67,-0.35,0.74,1.06,1.51,0.49
2022-01-30 18:54:10.4640,0.023,-0.522,-0.851,-1.58,-0.48,0.56,1.14,1.43,0.54
2022-01-30 18:54:10.4740,0.024,-0.52,-0.842,-1.58,-0.48,0.56,1.22,1.27,0.56
2022-01-30 18:54:10.4840,0.021,-0.522,-0.834,-1.43,-0.69,0.4,1.22,1.27,0.56
2022-01-30 18:54:10.4950,0.013,-0.524,-0.822,-1.43,-0.69,0.4,1.32,0.9,0.5
2022-01-30 18:54:10.5040,-0.005,-0.522,-0.8,-1.18,-0.84,0.29,1.36,0.8,0.46
2022-01-30 18:54:10.5150,-0.035,-0.515,-0.767,-0.92,-0.97,0.1,1.36,0.8,0.46
2022-01-30 18:54:10.5250,-0.066,-0.499,-0.733,-0.58,-1.18,-0.16,1.38,0.83,0.4
2022-01-30 18:54:10.5350,-0.091,-0.487,-0.698,-0.58,-1.18,-0.16,1.34,0.94,0.36
2022-01-30 18:54:10.5460,-0.109,-0.482,-0.664,-0.25,-1.44,-0.42,1.34,0.94,0.36
2022-01-30 18:54:10.5560,-0.127,-0.478,-0.634,0.01,-1.6,-0.69,1.22,1.28,0.26
2022-01-30 18:54:10.5660,-0.141,-0.476,-0.615,0.25,-1.74,-0.94,1.13,1.42,0.19
2022-01-30 18:54:10.5760,-0.145,-0.479,-0.61,0.49,-1.87,-1.14,1.13,1.42,0.19
2022-01-30 18:54:10.5860,-0.14,-0.489,-0.612,0.69,-1.95,-1.21,0.94,1.49,0.02
2022-01-30 18:54:10.5960,-0.129,-0.506,-0.607,0.79,-1.97,-1.15,0.86,1.46,-0.05
2022-01-30 18:54:10.6060,-0.119,-0.518,-0.6,0.82,-1.9,-1.11,0.79,1.4,-0.13
2022-01-30 18:54:10.6160,-0.106,-0.52,-0.589,0.82,-1.78,-1.15,0.79,1.4,-0.20652201771736145
2022-01-30 18:54:10.6260,-0.092,-0.525,-0.573,0.82,-1.78,-1.15,0.74,1.36,-0.21
2022-01-30 18:54:10.6360,-0.083,-0.529,-0.558,0.77,-1.8,-1.34,0.62,1.29,-0.31
2022-01-30 18:54:10.6460,-0.083,-0.528,-0.542,0.77,-1.8,-1.34,0.52,1.27,-0.32
2022-01-30 18:54:10.6560,-0.084,-0.527,-0.536,0.83,-1.83,-1.46,0.4,1.22,-0.32
2022-01-30 18:54:10.6660,-0.087,-0.536,-0.537,0.94,-1.88,-1.55,0.29,1.14,-0.31
2022-01-30 18:54:10.6760,-0.099,-0.536,-0.553,1.06,-1.88,-1.54,0.29,1.14,-0.31
2022-01-30 18:54:10.6860,-0.116,-0.515,-0.583,1.46,-1.91,-1.22,0.19,0.85,-0.43
2022-01-30 18:54:10.6970,-0.118,-0.499,-0.598,1.46,-1.91,-1.22,0.19,0.85,-0.43
2022-01-30 18:54:10.7060,-0.107,-0.497,-0.599,1.68,-2.14,-0.94,0.15,0.59,-0.61
2022-01-30 18:54:10.7160,-0.088,-0.492,-0.598,1.72,-2.25,-0.85,0.05,0.55,-0.68
2022-01-30 18:54:10.7260,-0.061,-0.492,-0.583,1.67,-2.27,-0.83,0.05,0.55,-0.68
2022-01-30 18:54:10.7360,-0.033,-0.501,-0.575,1.54,-2.32,-0.88,-0.12,0.58,-0.7
2022-01-30 18:54:10.7460,-0.015,-0.512,-0.58,1.35,-2.26,-1.04,-0.33,0.66,-0.66
2022-01-30 18:54:10.7570,-0.008,-0.516,-0.604,1.19,-2.12,-1.09,-0.7,0.86,-0.45
2022-01-30 18:54:10.7670,-0.006,-0.521,-0.63,1.16,-2.0,-0.99,-0.74,0.95,-0.32
2022-01-30 18:54:10.7760,-0.007,-0.526,-0.66,1.2,-1.92,-0.79,-0.74,0.95,-0.32
2022-01-30 18:54:10.7870,0.005,-0.529,-0.68,1.34,-1.72,-0.33,-0.41,0.97,-0.13
2022-01-30 18:54:10.7970,0.031,-0.544,-0.713,1.23,-1.63,-0.1,-0.16,0.83,-0.05
2022-01-30 18:54:10.8070,0.063,-0.564,-0.732,1.23,-1.63,-0.1,0.04003343731164932,0.62,0.03
2022-01-30 18:54:10.8170,0.089,-0.573,-0.746,1.01,-1.43,0.19,0.12946344912052155,0.4,0.12
2022-01-30 18:54:10.8260,0.117,-0.589,-0.733,0.75,-1.27,0.36,0.11,0.26,0.22
2022-01-30 18:54:10.8360,0.139,-0.633,-0.71,0.52,-1.2,0.44,-0.0,0.24,0.34
2022-01-30 18:54:10.8460,0.145,-0.678,-0.687,0.08,-0.45,0.03,-0.14,0.33,0.44
2022-01-30 18:54:10.8570,0.125,-0.673,-0.68,0.08,-0.45,0.03,-0.27,0.44,0.45
2022-01-30 18:54:10.8660,0.083,-0.635,-0.694,0.1,-0.17,-0.19,-0.38,0.62,0.42
2022-01-30 18:54:10.8770,0.048,-0.623,-0.7,0.39,-0.39,-0.15,-0.38,0.62,0.42
2022-01-30 18:54:10.8860,0.033,-0.634,-0.722,0.83,-0.69,-0.05,-0.46,0.8,0.36
2022-01-30 18:54:10.8970,0.036,-0.649,-0.748,1.25,-0.51,0.27,-0.53,0.9,0.28
2022-01-30 18:54:10.9070,0.058,-0.678,-0.759,1.25,-0.51,0.27,-0.6,0.86,0.13
2022-01-30 18:54:10.9170,0.086,-0.707,-0.77,1.19,-0.27,0.43,-0.63,0.7,0.08
2022-01-30 18:54:10.9270,0.114,-0.723,-0.776,1.0,0.09,0.5,-0.67,0.47,0.08
2022-01-30 18:54:10.9360,0.133,-0.733,-0.781,0.75,0.36,0.57,-0.67,0.47,0.08
2022-01-30 18:54:10.9470,0.138,-0.73,-0.788,0.39,0.63,0.59,-0.76,-0.06,0.18
2022-01-30 18:54:10.9580,0.129,-0.72,-0.791,0.39,0.63,0.59,-0.78,-0.28,0.26
2022-01-30 18:54:10.9670,0.116,-0.71,-0.801,0.47,0.57,0.58,-0.78,-0.47,0.33
2022-01-30 18:54:10.9770,0.096,-0.708,-0.815,0.47,0.57,0.58,-0.78,-0.47,0.33
2022-01-30 18:54:10.9870,0.074,-0.705,-0.83,0.56,0.56,0.64,-0.7,-0.71,0.41
2022-01-30 18:54:10.9970,0.049,-0.698,-0.828,0.85,0.61,0.77,-0.6186930537223816,-0.7467120289802551,0.42
2022-01-30 18:54:11.0080,0.024,-0.683,-0.832,0.85,0.61,0.77,-0.53,-0.78,0.44
2022-01-30 18:54:11.0170,0.007,-0.674,-0.844,1.01,0.54,0.68,-0.53,-0.78,0.44
2022-01-30 18:54:11.0270,-0.0,-0.671,-0.841,1.16,0.43,0.75,-0.43,-0.8,0.46
2022-01-30 18:54:11.0370,-0.01,-0.662,-0.86,1.17,0.38,0.74,-0.28,-0.94,0.48
2022-01-30 18:54:11.0480,-0.026,-0.657,-0.879,1.17,0.38,0.74,-0.28,-0.94,0.48
2022-01-30 18:54:11.0580,-0.044,-0.656,-0.875,1.18,0.31,0.96,-0.2,-1.07,0.48
2022-01-30 18:54:11.0680,-0.062,-0.65,-0.87,1.31,0.28,0.94,-0.19,-1.07,0.46
2022-01-30 18:54:11.0780,-0.081,-0.648,-0.863,1.31,0.28,0.94,-0.19,-1.07,0.46
2022-01-30 18:54:11.0870,-0.1,-0.638,-0.851,1.38,0.25,0.86,-0.22,-0.91,0.39
2022-01-30 18:54:11.0980,-0.111,-0.624,-0.831,1.54,0.12,0.6,-0.26,-0.72,0.34
2022-01-30 18:54:11.1080,-0.108,-0.617,-0.814,1.52,0.01,0.37,-0.33,-0.51,0.3
2022-01-30 18:54:11.1180,-0.089,-0.621,-0.81,1.52,0.01,0.37,-0.41,-0.34,0.27
2022-01-30 18:54:11.1270,-0.062,-0.631,-0.817,1.37,0.01,0.23,-0.41,-0.34,0.27
2022-01-30 18:54:11.1380,-0.045,-0.638,-0.838,1.1,0.11,0.2,-0.63,-0.18,0.27
2022-01-30 18:54:11.1480,-0.046,-0.643,-0.848,0.82,0.25,0.29,-0.63,-0.18,0.27
2022-01-30 18:54:11.1580,-0.054,-0.636,-0.843,0.69,0.36,0.46,-0.74,0.03,0.31
2022-01-30 18:54:11.1680,-0.057,-0.624,-0.861,0.72,0.43,0.43,-0.71,0.1,0.38
2022-01-30 18:54:11.1780,-0.047,-0.625,-0.882,0.77,0.38,0.4,-0.61,0.11,0.47
2022-01-30 18:54:11.1880,-0.029,-0.633,-0.908,0.74,0.35,0.58,-0.61,0.11,0.47
2022-01-30 18:54:11.1980,-0.01,-0.635,-0.941,0.58,0.47,0.74,-0.3,-0.15,0.69
2022-01-30 18:54:11.2080,0.007,-0.647,-0.975,0.37,0.55,1.02,-0.17,-0.42,0.82
2022-01-30 18:54:11.2180,0.015,-0.654,-1.024,0.13,0.62,1.31,-0.09,-0.76,0.94
2022-01-30 18:54:11.2280,0.018,-0.634,-1.076,-0.08,0.77,1.69,-0.09,-0.76,0.94
2022-01-30 18:54:11.2380,-0.01,-0.595,-1.117,-0.27,0.76,2.19,-0.05,-1.14,1.02
2022-01-30 18:54:11.2480,-0.061,-0.547,-1.124,-0.37,0.48,2.68,0.01,-1.49,1.1
2022-01-30 18:54:11.2590,-0.092,-0.508,-1.115,0.14,-0.39,2.95,0.12,-1.4,1.09
2022-01-30 18:54:11.2680,-0.116,-0.483,-1.095,0.14,-0.39,2.95,0.32,-1.15,1.09
2022-01-30 18:54:11.2780,-0.133,-0.463,-1.063,0.22,-0.72,2.86,0.32,-1.15,1.09
2022-01-30 18:54:11.2880,-0.141,-0.444,-1.057,0.29,-0.95,2.61,0.83,-0.59,1.09
2022-01-30 18:54:11.2980,-0.151,-0.43,-1.062,0.26,-1.41,2.48,1.04,-0.46,1.11
2022-01-30 18:54:11.3090,-0.162,-0.418,-1.062,0.26,-1.41,2.48,1.16,-0.44,1.1
2022-01-30 18:54:11.3180,-0.176,-0.399,-1.054,0.26,-1.59,2.58,1.25,-0.46,1.04
2022-01-30 18:54:11.3280,-0.2,-0.373,-1.026,0.27,-1.8,2.5651992344856263,1.33,-0.49,0.92
2022-01-30 18:54:11.3390,-0.219,-0.338,-0.992,0.35,-2.09,2.56,1.37,-0.54,0.75
2022-01-30 18:54:11.3500,-0.233,-0.31,-0.956,0.57,-2.9,2.09,1.37,-0.54,0.75
2022-01-30 18:54:11.3600,-0.238,-0.296,-0.914,0.6,-3.22,1.81,1.39,-0.57,0.56
2022-01-30 18:54:11.3710,-0.233,-0.291,-0.874,0.54,-3.4,1.49,1.36,-0.59,0.37
2022-01-30 18:54:11.3800,-0.225,-0.29,-0.834,0.42,-3.52,1.19,1.29,-0.59,0.2
2022-01-30 18:54:11.3900,-0.214,-0.288,-0.799,0.28,-3.62,0.89,1.19,-0.57,0.05
2022-01-30 18:54:11.4000,-0.197,-0.29,-0.776,0.12,-3.71,0.67,1.06,-0.53,-0.08
2022-01-30 18:54:11.4110,-0.178,-0.299,-0.761,-0.08,-3.73,0.54,0.92,-0.5,-0.2
2022-01-30 18:54:11.4210,-0.165,-0.307,-0.752,-0.26,-3.7,0.49,0.62,-0.37,-0.37
2022-01-30 18:54:11.4310,-0.166,-0.312,-0.74,-0.35,-3.68,0.45,0.62,-0.37,-0.37
2022-01-30 18:54:11.4410,-0.172,-0.312,-0.721,-0.3,-3.68,0.33,0.5,-0.24,-0.41
2022-01-30 18:54:11.4510,-0.178,-0.312,-0.703,-0.21,-3.73,0.19,0.42,-0.06,-0.43
2022-01-30 18:54:11.4610,-0.181,-0.316,-0.686,-0.12,-3.75,0.02,0.37,0.12,-0.42
2022-01-30 18:54:11.4710,-0.18,-0.325,-0.67,-0.06,-3.72,-0.13,0.33,0.29,-0.39
2022-01-30 18:54:11.4810,-0.179,-0.343,-0.665,-0.02,-3.63,-0.25,0.28,0.42,-0.36
2022-01-30 18:54:11.4910,-0.178,-0.371,-0.672,0.02,-3.43,-0.24,0.21,0.47,-0.35
2022-01-30 18:54:11.5010,-0.176,-0.402,-0.695,0.07,-3.15,-0.11,0.11,0.42,-0.37
2022-01-30 18:54:11.5110,-0.172,-0.438,-0.726,0.09,-2.83,0.14,-0.01,0.29,-0.43
2022-01-30 18:54:11.5210,-0.173,-0.471,-0.75,0.1,-2.48,0.44,-0.16,0.14,-0.51
2022-01-30 18:54:11.5310,-0.173,-0.502,-0.745,0.17,-2.15,0.55,-0.29,0.07,-0.63
2022-01-30 18:54:11.5410,-0.169,-0.533,-0.736,0.22,-1.83,0.41,-0.39,0.11,-0.74
2022-01-30 18:54:11.5510,-0.156,-0.56,-0.739,0.22,-1.53,0.34,-0.47,0.24,-0.84
2022-01-30 18:54:11.5610,-0.133,-0.594,-0.743,0.14,-1.22,0.34,-0.5,0.4,-0.89
2022-01-30 18:54:11.5710,-0.113,-0.623,-0.748,0.01,-0.86,0.32,-0.48,0.55,-0.91
2022-01-30 18:54:11.5810,-0.107,-0.642,-0.769,-0.04,-0.6,0.38,-0.44,0.65,-0.88
2022-01-30 18:54:11.5910,-0.102,-0.664,-0.809,0.04,-0.4,0.64,-0.39,0.65,-0.84
2022-01-30 18:54:11.6010,-0.092,-0.692,-0.868,0.04,-0.12,1.03,-0.39,0.53,-0.79
2022-01-30 18:54:11.6110,-0.099,-0.694,-0.965,0.06,0.11,1.74,-0.45,0.17,-0.79
2022-01-30 18:54:11.6210,-0.118,-0.695,-1.031,0.21,0.1,2.65,-0.56,-0.32,-0.85
2022-01-30 18:54:11.6310,-0.136,-0.711,-1.018,0.44,0.23,2.95,-0.65,-0.68,-0.91
2022-01-30 18:54:11.6410,-0.127,-0.728,-0.98,0.53,0.43,2.63,-0.64,-0.75,-0.96
2022-01-30 18:54:11.6510,-0.115,-0.735,-0.949,0.42,0.61,2.24,-0.56,-0.58,-0.99
2022-01-30 18:54:11.6620,-0.116,-0.73,-0.905,0.39,0.65,1.89,-0.42,-0.22,-0.97
2022-01-30 18:54:11.6710,-0.13,-0.724,-0.864,0.52,0.6,1.4,-0.29,0.26,-0.86
2022-01-30 18:54:11.6810,-0.148,-0.728,-0.847,0.79,0.58,1.07,-0.22,0.76,-0.65
2022-01-30 18:54:11.6910,-0.145,-0.748,-0.86,1.04,0.7,0.97,-0.24,1.16,-0.43
2022-01-30 18:54:11.7010,-0.121,-0.777,-0.901,1.01,0.96,1.21,-0.32,1.35,-0.28
2022-01-30 18:54:11.7120,-0.098,-0.795,-0.934,0.89,1.27,1.57,-0.39,1.35,-0.21
2022-01-30 18:54:11.7210,-0.082,-0.788,-0.951,0.78,1.39,1.82,-0.42,1.21,-0.22
2022-01-30 18:54:11.7310,-0.068,-0.756,-0.939,0.74,1.25,1.86,-0.36,0.99,-0.27
2022-01-30 18:54:11.7410,-0.054,-0.715,-0.915,0.67,0.9,1.67,-0.23,0.77,-0.33
2022-01-30 18:54:11.7520,-0.046,-0.678,-0.876,0.62,0.51,1.37,-0.09,0.58,-0.31
2022-01-30 18:54:11.7620,-0.037,-0.647,-0.831,0.59,0.16,0.95,0.01,0.45,-0.2
2022-01-30 18:54:11.7720,-0.03,-0.633,-0.786,0.53,-0.09,0.51,0.08,0.38,-0.02
2022-01-30 18:54:11.7820,-0.033,-0.631,-0.751,0.51,-0.17,0.11,0.11,0.38,0.21
2022-01-30 18:54:11.7920,-0.043,-0.631,-0.719,0.58,-0.2,-0.22,0.13,0.43,0.46
2022-01-30 18:54:11.8020,-0.054,-0.632,-0.697,0.66,-0.2,-0.49,0.16,0.49,0.65
2022-01-30 18:54:11.8120,-0.071,-0.624,-0.688,0.79,-0.23,-0.64,0.23,0.52,0.75
2022-01-30 18:54:11.8220,-0.086,-0.614,-0.679,0.95,-0.35,-0.69,0.3,0.48,0.77
2022-01-30 18:54:11.8320,-0.096,-0.612,-0.667,1.05,-0.45,-0.78,0.36,0.39,0.74
2022-01-30 18:54:11.8420,-0.095,-0.604,-0.668,1.09,-0.5,-0.84,0.38,0.21,0.67
2022-01-30 18:54:11.8520,-0.085,-0.591,-0.664,1.0,-0.64,-0.79,0.34,-0.04,0.57
2022-01-30 18:54:11.8620,-0.074,-0.579,-0.652,0.84,-0.78,-0.86,0.24,-0.31,0.46
2022-01-30 18:54:11.8720,-0.066,-0.562,-0.636,0.67,-0.91,-0.98,0.1,-0.54,0.35
2022-01-30 18:54:11.8820,-0.07,-0.537,-0.605,0.57,-1.1,-1.2,-0.06,-0.64,0.24
2022-01-30 18:54:11.8920,-0.081,-0.509,-0.588,0.59,-1.34,-1.5,-0.23,-0.6,0.16
2022-01-30 18:54:11.9020,-0.092,-0.486,-0.585,0.66,-1.58,-1.62,-0.37,-0.46,0.13
2022-01-30 18:54:11.9120,-0.108,-0.456,-0.589,0.75,-1.77,-1.66,-0.48,-0.26,0.13
2022-01-30 18:54:11.9220,-0.127,-0.421,-0.598,0.92,-2.06,-1.63,-0.53,-0.06,0.15
2022-01-30 18:54:11.9270,-0.138,-0.396,-0.612,0.92,-2.06,-1.63,-0.53,0.18,0.21
2022-01-30 18:54:11.9430,-0.132,-0.387,-0.617,1.12,-2.52,-1.44,-0.51,0.2,0.25
2022-01-30 18:54:11.9540,-0.123,-0.379,-0.619,0.97,-2.6,-1.46,-0.51,0.16,0.29
2022-01-30 18:54:11.9630,-0.124,-0.366,-0.619,0.97,-2.6,-1.46,-0.56,0.09,0.34
2022-01-30 18:54:11.9730,-0.134,-0.353,-0.617,1.18,-2.75,-1.54,-0.64,0.03,0.4
2022-01-30 18:54:11.9840,-0.173,-0.35,-0.617,1.18,-2.75,-1.54,-0.64,0.03,0.4
2022-01-30 18:54:11.9930,-0.223,-0.329,-0.608,1.61,-2.76,-1.66,-0.73,0.08,0.43
2022-01-30 18:54:12.0030,-0.27,-0.307,-0.647,2.08,-2.97,-1.62,-0.92,0.31,0.44
2022-01-30 18:54:12.0130,-0.291,-0.319,-0.673,2.5759689286351204,-2.68,-1.1,-1.0,0.45,0.44
2022-01-30 18:54:12.0230,-0.3,-0.359,-0.71,2.57,-2.68,-1.1,-1.06,0.56,0.44
2022-01-30 18:54:12.0330,-0.321,-0.389,-0.751,2.72,-2.2,-0.73,-1.08,0.64,0.4
2022-01-30 18:54:12.0440,-0.342,-0.397,-0.783,2.95,-1.91,-0.46,-1.08,0.66,0.38
2022-01-30 18:54:12.0530,-0.368,-0.404,-0.83,3.18,-1.76,-0.15,-1.03,0.58,0.39
2022-01-30 18:54:12.0640,-0.409,-0.397,-0.874,3.99,-1.71,0.62,-0.91,0.43,0.44
2022-01-30 18:54:12.0740,-0.457,-0.367,-0.923,3.99,-1.71,0.62,-0.69,0.17,0.47
2022-01-30 18:54:12.0830,-0.501,-0.34,-0.97,4.47,-1.96,1.09,-0.69,0.17,0.47
2022-01-30 18:54:12.0930,-0.52,-0.334,-0.999,4.82,-2.09,1.41,-0.06,-0.48,0.3
2022-01-30 18:54:12.1030,-0.51,-0.347,-1.045,4.63,-1.84,2.14,0.22,-0.96,0.12
2022-01-30 18:54:12.1140,-0.484,-0.373,-1.061,4.63,-1.84,2.14,0.4,-0.96,0.12
2022-01-30 18:54:12.1240,-0.446,-0.399,-1.033,4.24,-1.6,2.11,0.41,-1.82,-0.35
2022-01-30 18:54:12.1340,-0.405,-0.422,-0.994,3.74,-1.38,1.8,0.25,-2.06,-0.58
2022-01-30 18:54:12.1440,-0.369,-0.437,-0.947,3.21,-1.21,1.43,-0.04,-2.13,-0.79
2022-01-30 18:54:12.1530,-0.344,-0.445,-0.902,2.76,-1.12,0.6846224141120911,-0.04,-2.13,-0.79
2022-01-30 18:54:12.1640,-0.321,-0.449,-0.908,2.05,-1.0,0.92,-0.81,-2.05,-1.18
2022-01-30 18:54:12.1740,-0.29,-0.455,-0.955,2.05,-1.0,0.92,-1.2,-2.1,-1.41
2022-01-30 18:54:12.1840,-0.265,-0.467,-1.039,1.63,-0.86,1.49,-1.49,-2.24,-1.64
2022-01-30 18:54:12.1940,-0.242,-0.483,-1.114,1.32,-0.64,2.32,-1.49,-2.24,-1.64
2022-01-30 18:54:12.2040,-0.207,-0.5,-1.159,0.47636198803782465,-0.15,3.21,-1.51,-2.37,-2.07
2022-01-30 18:54:12.2140,-0.165,-0.495,-1.191,0.47,-0.15,3.21,-1.51,-2.27,-2.23
2022-01-30 18:54:12.2240,-0.121,-0.478,-1.187,-0.03,-0.18,3.39,-1.04,-2.07,-2.31
2022-01-30 18:54:12.2340,-0.075,-0.473,-1.165,-1.0649023698270321,-0.21,3.01,-0.87,-1.84,-2.27
2022-01-30 18:54:12.2450,-0.028,-0.472,-1.16,-1.07,-0.21,3.0071516740322113,-0.76,-1.62,-2.13
2022-01-30 18:54:12.2550,0.022,-0.477,-1.166,-1.59,-0.17,3.0,-0.66,-1.38,-1.93
2022-01-30 18:54:12.2650,0.085,-0.508,-1.182,-2.15,-0.02,3.3452827066183093,-0.53,-1.22,-1.74
2022-01-30 18:54:12.2740,0.144,-0.546,-1.234,-2.82,0.38,3.34,-0.53,-1.22,-1.74
2022-01-30 18:54:12.2840,0.191,-0.569,-1.264,-3.35,0.72,3.87,-0.34,-1.14,-1.63
2022-01-30 18:54:12.2940,0.216,-0.581,-1.258,-3.77,0.9,3.99,-0.1,-1.07,-1.6
2022-01-30 18:54:12.3050,0.23,-0.592,-1.223,-4.12,1.06,3.44,0.35,-0.88,-1.66
2022-01-30 18:54:12.3150,0.252,-0.605,-1.173,-4.38,1.13,2.98,0.47,-0.74,-1.7
2022-01-30 18:54:12.3240,0.287,-0.616,-1.119,-4.38,1.13,2.98,0.55,-0.59,-1.74
2022-01-30 18:54:12.3340,0.325,-0.617,-1.061,-4.73,1.13,2.46,0.55,-0.59,-1.74
2022-01-30 18:54:12.3440,0.363,-0.618,-1.002,-5.06,1.05,1.92,0.6,-0.28,-1.79
2022-01-30 18:54:12.3540,0.4,-0.625,-0.948,-5.66,1.02,0.9,0.62,-0.1,-1.77
2022-01-30 18:54:12.3650,0.435,-0.638,-0.893,-5.93,1.08,0.42,0.61,0.1,-1.71
2022-01-30 18:54:12.3750,0.47,-0.651,-0.854,-5.93,1.08,0.42,0.61,0.1,-1.71
2022-01-30 18:54:12.3840,0.495,-0.659,-0.847,-6.14,1.11,0.18,0.57,0.24,-1.6
2022-01-30 18:54:12.3940,0.512,-0.661,-0.854,-6.26,1.0470188069343567,0.32,0.56,0.16,-1.56
2022-01-30 18:54:12.4050,0.523,-0.665,-0.85,-6.28,1.04,0.32,0.58,0.1,-1.51
2022-01-30 18:54:12.4150,0.532,-0.687,-0.824,-6.29,1.1,0.2,0.58,0.09448549151420593,-1.46
2022-01-30 18:54:12.4250,0.53,-0.701,-0.807,-6.26,1.25,-0.01,0.58,0.14,-1.41
2022-01-30 18:54:12.4340,0.511,-0.701,-0.783,-6.09,1.27,-0.15,0.58,0.14,-1.41
2022-01-30 18:54:12.4450,0.49,-0.689,-0.779,-5.77,1.16,-0.34,0.52,0.19,-1.35
2022-01-30 18:54:12.4550,0.478,-0.697,-0.792,-5.51,1.02,-0.23,0.18,0.14,-1.23
2022-01-30 18:54:12.4650,0.479,-0.739,-0.789,-5.35,1.19,-0.14,0.18,0.14,-1.23
2022-01-30 18:54:12.4750,0.487,-0.77,-0.767,-5.32,1.61,-0.23,0.02,0.14,-1.14
2022-01-30 18:54:12.4850,0.494,-0.782,-0.738,-5.32,1.8,-0.49,-0.07,0.38,-0.94
2022-01-30 18:54:12.4940,0.492,-0.791,-0.715,-5.28,1.92,-0.76,-0.07,0.38,-0.94
2022-01-30 18:54:12.5050,0.488,-0.782,-0.691,-5.16,1.95,-0.98,0.04,0.79,-0.6
2022-01-30 18:54:12.5150,0.485,-0.781,-0.661,-4.9,1.88,-1.51,0.1,1.06,-0.35
2022-01-30 18:54:12.5250,0.479,-0.783,-0.653,-4.72,1.85,-1.47,0.15,1.28,-0.07
2022-01-30 18:54:12.5340,0.47,-0.772,-0.67,-4.54,1.7,-1.22,0.19,1.39,0.19
2022-01-30 18:54:12.5440,0.465,-0.752,-0.709,-4.38,1.45,-0.77,0.24,1.35,0.4
2022-01-30 18:54:12.5540,0.452,-0.723,-0.752,-4.38,1.45,-0.77,0.29,1.23,0.56
2022-01-30 18:54:12.5640,0.424,-0.688,-0.775,-4.12,1.12,-0.4,0.29,1.23,0.56
2022-01-30 18:54:12.5740,0.385,-0.646,-0.792,-3.3,0.28,0.0,0.34,1.07,0.7
2022-01-30 18:54:12.5840,0.346,-0.606,-0.807,-2.891722374558449,-0.11,0.14,0.38,0.9,0.82
2022-01-30 18:54:12.5940,0.311,-0.573,-0.816,-2.59,-0.43,0.26,0.38,0.74,0.93
2022-01-30 18:54:12.6040,0.282,-0.548,-0.825,-2.59,-0.43,0.26,0.32,0.59,1.08
2022-01-30 18:54:12.6140,0.252,-0.523,-0.827,-2.31,-0.71,0.34,0.32,0.59,1.08
2022-01-30 18:54:12.6240,0.222,-0.498,-0.825,-1.76,-1.21,0.36,0.27,0.62,1.15
2022-01-30 18:54:12.6350,0.193,-0.487,-0.825,-1.4946904081106187,-1.3,0.37,0.23,0.71,1.22
2022-01-30 18:54:12.6440,0.166,-0.483,-0.821,-1.5,-1.3,0.37,0.2,0.98,1.38
2022-01-30 18:54:12.6550,0.146,-0.484,-0.815,-1.0946361923217773,-1.339550912976265,0.26,0.2,0.98,1.38
2022-01-30 18:54:12.6660,0.126,-0.488,-0.799,-0.8984010037779808,-1.2955628943443298,0.08,0.21,1.26,1.49
2022-01-30 18:54:12.6760,0.107,-0.496,-0.773,-0.9,-1.3,0.08,0.2,1.37,1.52
2022-01-30 18:54:12.6860,0.091,-0.504,-0.746,-0.72,-1.24,-0.18,0.16,1.44,1.53
2022-01-30 18:54:12.6960,0.08,-0.509,-0.722,-0.58,-1.2,-0.42,0.16,1.44,1.53
2022-01-30 18:54:12.7050,0.069,-0.513,-0.709,-0.46,-1.15,-0.61,-0.01,1.42,1.49
2022-01-30 18:54:12.7160,0.056,-0.516,-0.698,-0.33,-1.14,-0.7,-0.13,1.36,1.46
2022-01-30 18:54:12.7260,0.04,-0.521,-0.69,-0.17,-1.11,-0.82,-0.13,1.36,1.46
2022-01-30 18:54:12.7360,0.023,-0.523,-0.69,0.01,-1.05,-0.85,-0.24,1.28,1.42
2022-01-30 18:54:12.7460,0.004,-0.516,-0.683,0.39,-1.11,-1.0,-0.41,1.19,1.36
2022-01-30 18:54:12.7560,-0.017,-0.51,-0.669,0.39,-1.11,-1.0,-0.45,1.22,1.35
2022-01-30 18:54:12.7660,-0.034,-0.51,-0.664,0.6,-1.11,-1.14,-0.46,1.23,1.37
2022-01-30 18:54:12.7760,-0.047,-0.507,-0.668,0.75,-1.09,-1.16,-0.45,1.24,1.43
2022-01-30 18:54:12.7860,-0.068,-0.505,-0.667,0.92,-1.09,-1.16,-0.45,1.24,1.43
2022-01-30 18:54:12.7960,-0.088,-0.511,-0.672,1.14,-1.05,-1.19,-0.44,1.22,1.51
2022-01-30 18:54:12.8060,-0.106,-0.517,-0.681,1.32,-0.95,-1.13,-0.4,1.13,1.62
2022-01-30 18:54:12.8160,-0.123,-0.516,-0.673,1.5,-0.89,-1.11,-0.4,1.13,1.62
2022-01-30 18:54:12.8260,-0.133,-0.51,-0.656,1.64,-0.9,-1.28,-0.36,1.12,1.61
2022-01-30 18:54:12.8360,-0.137,-0.507,-0.652,1.71,-0.91,-1.42,-0.35,1.13,1.56
2022-01-30 18:54:12.8470,-0.13,-0.51,-0.658,1.71,-0.91,-1.42,-0.43,1.04,1.44
2022-01-30 18:54:12.8560,-0.111,-0.521,-0.66,1.59,-0.83,-1.4,-0.51,0.94,1.41
2022-01-30 18:54:12.8660,-0.087,-0.539,-0.678,1.36,-0.66,-1.37,-0.6,0.73,1.41
2022-01-30 18:54:12.8760,-0.079,-0.546,-0.725,1.15,-0.47,-1.11,-0.6,0.73,1.41
2022-01-30 18:54:12.8860,-0.089,-0.542,-0.78,1.14,-0.41,-0.62,-0.68,0.44,1.41
2022-01-30 18:54:12.8960,-0.105,-0.541,-0.823,1.2,-0.4,-0.15,-0.73,-0.04,1.4
2022-01-30 18:54:12.9060,-0.131,-0.536,-0.85,1.5,-0.35,0.38,-0.73,-0.04,1.4
2022-01-30 18:54:12.9170,-0.147,-0.535,-0.878,1.55,-0.29,0.63,-0.48,-0.16,1.31
2022-01-30 18:54:12.9260,-0.161,-0.532,-0.911,1.58,-0.32,0.92,-0.26,-0.17,1.26
2022-01-30 18:54:12.9370,-0.173,-0.519,-0.939,1.58,-0.32,0.92,-0.26,-0.17,1.26
2022-01-30 18:54:12.9470,-0.196,-0.503,-0.955,1.81,-0.61,1.24,0.26,-0.28,1.18
2022-01-30 18:54:12.9650,-0.219,-0.486,-0.958,1.92,-0.76,1.25,0.26,-0.28,1.18
2022-01-30 18:54:12.9690,-0.231,-0.481,-0.948,1.89,-0.78,1.12,0.62,-0.47,1.11
2022-01-30 18:54:12.9760,-0.233,-0.492,-0.928,1.89,-0.78,1.12,0.62,-0.47,1.11
2022-01-30 18:54:12.9860,-0.231,-0.507,-0.895,1.8,-0.67,0.94,0.77,-0.55,0.9
2022-01-30 18:54:12.9960,-0.221,-0.513,-0.847,1.45,-0.62,0.15,0.77,-0.51,0.74
2022-01-30 18:54:13.0060,-0.211,-0.523,-0.802,1.45,-0.62,0.15,0.7,-0.43,0.58
2022-01-30 18:54:13.0170,-0.201,-0.546,-0.764,1.11,-0.32,-0.53,0.56,-0.32,0.43
2022-01-30 18:54:13.0270,-0.194,-0.575,-0.731,1.0,-0.08,-0.76,0.56,-0.32,0.43
2022-01-30 18:54:13.0370,-0.19,-0.599,-0.716,1.0,-0.08,-0.76,0.13,-0.12,0.13
2022-01-30 18:54:13.0470,-0.187,-0.615,-0.713,0.94,0.1,-0.83,-0.08,-0.04,-0.04
2022-01-30 18:54:13.0570,-0.189,-0.626,-0.71,0.9,0.23,-0.85,-0.25,0.05,-0.24
2022-01-30 18:54:13.0670,-0.19,-0.632,-0.706,0.93,0.33,-0.88,-0.39,0.16,-0.44
2022-01-30 18:54:13.0770,-0.187,-0.634,-0.7,0.94,0.39,-0.95,-0.5022058486938477,0.16,-0.44
2022-01-30 18:54:13.0870,-0.182,-0.63,-0.699,0.94,0.42,-1.02,-0.5,0.24,-0.63
2022-01-30 18:54:13.0970,-0.171,-0.63,-0.706,0.85,0.47,-0.97,-0.68,0.2,-0.84
2022-01-30 18:54:13.1080,-0.152,-0.634,-0.722,0.85,0.47,-0.97,-0.68,0.2,-0.84
2022-01-30 18:54:13.1170,-0.138,-0.642,-0.748,0.73,0.58,-0.81,-0.77,-0.13,-0.9
2022-01-30 18:54:13.1270,-0.135,-0.647,-0.775,0.69,0.7,-0.59,-0.8,-0.33,-0.91
2022-01-30 18:54:13.1370,-0.143,-0.654,-0.806,0.74,0.82,-0.36,-0.8,-0.33,-0.91
2022-01-30 18:54:13.1470,-0.157,-0.653,-0.831,1.040147159099579,0.95,0.04,-0.78,-0.6,-0.96
2022-01-30 18:54:13.1570,-0.174,-0.647,-0.839,1.04,0.95,0.04,-0.76,-0.6,-1.04
2022-01-30 18:54:13.1670,-0.187,-0.641,-0.846,1.18,0.96,0.05,-0.74,-0.5,-1.14
2022-01-30 18:54:13.1780,-0.197,-0.632,-0.849,1.32,0.95,0.09,-0.74,-0.5,-1.14
2022-01-30 18:54:13.1870,-0.19,-0.63,-0.85,1.39,0.92,0.05,-0.7,-0.15,-1.35
2022-01-30 18:54:13.1970,-0.154,-0.641,-0.87,1.26,1.0,0.07,-0.69,-0.08,-1.44
2022-01-30 18:54:13.2070,-0.101,-0.653,-0.928,0.87,1.19,0.36,-0.69,-0.08,-1.44
2022-01-30 18:54:13.2180,-0.063,-0.657,-1.002,0.21,1.38,1.67,-0.7,-0.42,-1.59
2022-01-30 18:54:13.2280,-0.045,-0.648,-1.069,0.21,1.38,1.67,-0.65,-0.67,-1.63
2022-01-30 18:54:13.2380,-0.05,-0.635,-1.111,0.27,1.23,2.51,-0.49,-0.85,-1.64
2022-01-30 18:54:13.2570,-0.06,-0.615,-1.129,0.39,1.04,2.55,-0.49,-0.85,-1.64
2022-01-30 18:54:13.2590,-0.076,-0.589,-1.102,0.58,0.78,2.05,0.18,-0.78,-1.52
2022-01-30 18:54:13.2670,-0.095,-0.555,-1.024,0.58,0.78,2.05,0.18,-0.78,-1.52
2022-01-30 18:54:13.2780,-0.107,-0.52,-0.95,0.75,0.4,1.24,0.9030954837799072,-0.32,-1.15
2022-01-30 18:54:13.2880,-0.088,-0.512,-0.889,0.82,0.08,0.61,1.08,-0.17,-0.99
2022-01-30 18:54:13.2970,-0.047,-0.518,-0.847,0.18,-0.03,-0.17,1.07,-0.13,-0.93
2022-01-30 18:54:13.3080,-0.012,-0.52,-0.821,0.18,-0.03,-0.17,0.89,-0.17,-0.95
2022-01-30 18:54:13.3180,0.031,-0.536,-0.793,-0.15,-0.08,-0.37,0.6,-0.23,-1.04
2022-01-30 18:54:13.3280,0.071,-0.57,-0.761,-0.54,0.1,-0.61,0.6,-0.23,-1.04
2022-01-30 18:54:13.3380,0.096,-0.604,-0.727,-0.86,0.4,-0.9,0.15,-0.27,-1.17
2022-01-30 18:54:13.3480,0.096,-0.628,-0.691,-0.88,0.83,-1.58,0.15,-0.21,-1.11
2022-01-30 18:54:13.3590,0.085,-0.63,-0.653,-0.88,0.83,-1.58,0.15,-0.21,-1.11
2022-01-30 18:54:13.3680,0.078,-0.63,-0.61,-0.72,0.79,-1.96,0.51,0.0,-0.81
2022-01-30 18:54:13.3780,0.08,-0.636,-0.581,-0.64,0.81,-2.34,0.51,0.0,-0.81
2022-01-30 18:54:13.3880,0.094,-0.635,-0.571,-0.67,0.8,-2.53,0.75,-0.01,-0.64
2022-01-30 18:54:13.3980,0.112,-0.638,-0.563,-0.78,0.73,-2.55,1.05,-0.36,-0.41
2022-01-30 18:54:13.4090,0.136,-0.648,-0.541,-0.96,0.71,-2.64,1.07,-0.63,-0.35
2022-01-30 18:54:13.4180,0.174,-0.667,-0.538,-1.25,0.77,-2.76,1.0,-0.99,-0.34
2022-01-30 18:54:13.4290,0.217,-0.69,-0.549,-1.69,0.89,-2.65,1.0,-0.99,-0.34
2022-01-30 18:54:13.4380,0.248,-0.71,-0.558,-2.14,1.02,-2.48,0.85,-1.4,-0.37
2022-01-30 18:54:13.4480,0.268,-0.732,-0.564,-2.72,1.31,-2.26,0.38,-2.09,-0.51
2022-01-30 18:54:13.4590,0.257,-0.74,-0.574,-2.72,1.31,-2.26,0.11,-2.23,-0.59
2022-01-30 18:54:13.4680,0.219,-0.714,-0.573,-2.62,1.24,-2.17,0.11,-2.23,-0.59
2022-01-30 18:54:13.4790,0.179,-0.673,-0.582,-2.36,0.88,-2.15,-0.33,-2.01,-0.83
2022-01-30 18:54:13.4880,0.144,-0.644,-0.599,-2.11,0.52,-2.02,-0.33,-2.01,-0.83
2022-01-30 18:54:13.4980,0.12,-0.619,-0.621,-1.91,0.29,-1.6260656493902208,-0.56,-1.39,-1.11
2022-01-30 18:54:13.5090,0.104,-0.597,-0.648,-1.78,0.07,-1.63,-0.65,-1.09,-1.22
2022-01-30 18:54:13.5180,0.104,-0.595,-0.687,-1.71,-0.04,-1.35,-0.73,-0.83,-1.28
2022-01-30 18:54:13.5280,0.125,-0.611,-0.717,-1.82,0.06,-1.0,-0.73,-0.83,-1.28
2022-01-30 18:54:13.5390,0.149,-0.62,-0.744,-2.04,0.27,-0.78,-0.81,-0.62,-1.29
2022-01-30 18:54:13.5490,0.168,-0.617,-0.78,-2.34,0.38,-0.21,-0.9,-0.45,-1.24
2022-01-30 18:54:13.5590,0.166,-0.61,-0.818,-2.34,0.38,-0.21,-0.9,-0.47,-1.17
2022-01-30 18:54:13.5690,0.145,-0.603,-0.856,-2.2,0.37,0.13,-0.9,-0.47,-1.17
2022-01-30 18:54:13.5790,0.117,-0.595,-0.895,-1.93,0.37,0.43,-0.85,-0.54,-1.09
2022-01-30 18:54:13.5890,0.09,-0.584,-0.931,-1.64,0.35,0.79,-0.6,-0.65,-0.95
2022-01-30 18:54:13.5990,0.065,-0.577,-0.95,-1.38,0.29,1.06,-0.6,-0.65,-0.95
2022-01-30 18:54:13.6100,0.043,-0.584,-0.927,-1.14,0.32,1.08,-0.22,-0.24,-0.81
2022-01-30 18:54:13.6190,0.028,-0.583,-0.91,-0.94,0.43,0.74,-0.11,-0.0,-0.73
2022-01-30 18:54:13.6290,0.034,-0.579,-0.955,-0.84,0.38,0.8,-0.14,0.09,-0.63
2022-01-30 18:54:13.6390,0.046,-0.591,-1.024,-0.92,0.41,1.36,-0.29,0.04,-0.54
2022-01-30 18:54:13.6490,0.044,-0.593,-1.088,-0.85,0.49,2.52,-0.44,-0.0,-0.48
2022-01-30 18:54:13.6600,0.031,-0.575,-1.111,-0.85,0.49,2.52,-0.52,0.06,-0.48
2022-01-30 18:54:13.6690,0.02,-0.557,-1.111,-0.69,0.32,2.64,-0.4138581454753876,0.28,-0.49
2022-01-30 18:54:13.6790,0.015,-0.544,-1.083,-0.57,0.24,2.49,-0.15,0.62,-0.48
2022-01-30 18:54:13.6890,0.013,-0.509,-1.051,-0.39,-0.32,1.86,0.17,0.96,-0.41
2022-01-30 18:54:13.6990,0.015,-0.467,-1.016,-0.39,-0.67,1.41,0.47,1.28,-0.26
2022-01-30 18:54:13.7100,0.042,-0.455,-0.957,-0.39,-0.67,1.41,0.71,1.5,-0.04
2022-01-30 18:54:13.7190,0.075,-0.47,-0.928,-0.59,-0.7,0.91,0.88,1.55,0.19
2022-01-30 18:54:13.7290,0.111,-0.481,-0.911,-0.79,-0.6,0.76,0.88,1.55,0.19
2022-01-30 18:54:13.7390,0.145,-0.497,-0.89,-1.03,-0.56,0.63,1.09,1.25,0.52
2022-01-30 18:54:13.7500,0.161,-0.512,-0.857,-1.22,-0.47,0.44,1.09,1.25,0.52
2022-01-30 18:54:13.7600,0.15,-0.511,-0.817,-1.21,-0.46,0.14,1.15,1.01,0.63
2022-01-30 18:54:13.7690,0.118,-0.495,-0.776,-0.96,-0.64,-0.2,1.1,0.62,0.79
2022-01-30 18:54:13.7790,0.083,-0.488,-0.743,-0.31,-0.97,-0.74,0.94,0.51,0.86
2022-01-30 18:54:13.7900,0.073,-0.501,-0.715,-0.31,-0.97,-0.74,0.72,0.46,0.89
2022-01-30 18:54:13.7990,0.083,-0.53,-0.697,-0.32,-0.84,-0.94,0.72,0.46,0.89
2022-01-30 18:54:13.8100,0.084,-0.547,-0.699,-0.43,-0.62,-1.0,0.46,0.46,0.88
2022-01-30 18:54:13.8190,0.062,-0.534,-0.736,-0.39,-0.61,-0.86,0.2,0.44,0.82
2022-01-30 18:54:13.8300,0.025,-0.519,-0.801,-0.1,-0.8,-0.32,-0.05,0.36,0.76
2022-01-30 18:54:13.8380,-0.004,-0.517,-0.865,0.46,-0.87,0.94,-0.41,0.26,0.83
2022-01-30 18:54:13.8500,-0.024,-0.52,-0.936,0.46,-0.87,0.94,-0.41,0.26,0.83
2022-01-30 18:54:13.8600,-0.036,-0.523,-1.01,0.58,-0.81,1.63,-0.36,0.18,1.0
2022-01-30 18:54:13.8700,-0.052,-0.515,-1.074,0.69,-0.78,2.31,-0.24,0.11,1.03
2022-01-30 18:54:13.8800,-0.059,-0.517,-1.113,0.8,-0.75,3.11,-0.11,0.04,1.02
2022-01-30 18:54:13.8900,-0.078,-0.519,-1.122,0.8,-0.75,3.11,-0.03,0.06,0.99
2022-01-30 18:54:13.9000,-0.1,-0.514,-1.095,1.1,-0.8,2.74,-0.02,0.16,0.97
2022-01-30 18:54:13.9110,-0.112,-0.513,-1.077,1.14,-0.77,2.65,-0.04,0.28,0.94
2022-01-30 18:54:13.9200,-0.111,-0.519,-1.068,1.14,-0.77,2.65,-0.04,0.28,0.94
2022-01-30 18:54:13.9300,-0.092,-0.517,-1.041,0.77,-0.74,2.2,-0.01,0.41,0.88
2022-01-30 18:54:13.9410,-0.064,-0.521,-1.011,0.48058996349573135,-0.6782413476705551,1.88,0.09,0.7,0.75
2022-01-30 18:54:13.9500,-0.032,-0.526,-0.97,0.48,-0.68,1.88,0.11,0.86,0.71
2022-01-30 18:54:13.9600,-0.0,-0.524,-0.935,0.17,-0.68,1.46,0.09,0.95,0.7
2022-01-30 18:54:13.9700,0.026,-0.527,-0.926,-0.11,-0.68,1.24,0.07,0.97,0.7
2022-01-30 18:54:13.9800,0.046,-0.527,-0.923,-0.46,-0.65,1.24,0.06,0.87,0.71
2022-01-30 18:54:13.9910,0.062,-0.537,-0.948,-0.46,-0.65,1.24,0.11,0.71,0.69
2022-01-30 18:54:14.0000,0.067,-0.54,-0.95,-0.53,-0.55,1.46,0.19,0.51,0.68
2022-01-30 18:54:14.0110,0.057,-0.544,-0.959,-0.53,-0.55,1.46,0.19,0.51,0.68
2022-01-30 18:54:14.0200,0.032,-0.545,-0.966,-0.38,-0.52,1.59,0.38,0.12,0.63
2022-01-30 18:54:14.0300,0.0,-0.528,-0.955,0.19,-0.84,1.5,0.42,0.0,0.56
2022-01-30 18:54:14.0410,-0.034,-0.505,-0.945,0.48,-1.05,1.42,0.4,-0.02,0.46
2022-01-30 18:54:14.0500,-0.062,-0.497,-0.919,0.48,-1.05,1.42,0.34,0.13,0.34
2022-01-30 18:54:14.0610,-0.08,-0.506,-0.87,0.68,-1.09,1.06,0.34,0.13,0.34
2022-01-30 18:54:14.0700,-0.101,-0.523,-0.838,0.86,-0.98,0.64,0.2,0.78,0.12
2022-01-30 18:54:14.0800,-0.119,-0.523,-0.82,1.3,-0.95,0.32,0.2,0.78,0.12
2022-01-30 18:54:14.0910,-0.137,-0.518,-0.827,1.3,-0.95,0.32,0.15,1.24,0.03
2022-01-30 18:54:14.1010,-0.144,-0.521,-0.841,1.52,-0.97,0.43,0.16,1.25,0.06
2022-01-30 18:54:14.1110,-0.141,-0.53,-0.861,1.66,-0.93,0.61,0.22,1.14,0.09
2022-01-30 18:54:14.1200,-0.123,-0.543,-0.877,1.66,-0.83,0.81,0.22,0.97,0.12
2022-01-30 18:54:14.1300,-0.102,-0.551,-0.877,1.54,-0.73,0.95,0.39,0.81,0.11
2022-01-30 18:54:14.1410,-0.089,-0.552,-0.855,1.42,-0.7,0.88,0.43,0.72,0.09
2022-01-30 18:54:14.1500,-0.082,-0.546,-0.823,1.37,-0.74,0.64,0.41,0.7,0.06
2022-01-30 18:54:14.1610,-0.079,-0.535,-0.8,1.37,-0.85,0.36,0.41,0.7,0.06
2022-01-30 18:54:14.1700,-0.073,-0.517,-0.797,1.39,-1.02,0.23,0.34,0.69,0.03
2022-01-30 18:54:14.1810,-0.066,-0.503,-0.809,1.37,-1.22,0.29,0.11,0.55,-0.01
2022-01-30 18:54:14.1910,-0.06,-0.494,-0.82,1.35,-1.35,0.45,0.03,0.46,0.0
2022-01-30 18:54:14.2010,-0.057,-0.486,-0.827,1.34,-1.44,0.55,-0.0,0.39,0.05
2022-01-30 18:54:14.2110,-0.059,-0.478,-0.828,1.37,-1.52,0.61,-0.0,0.39,0.05
2022-01-30 18:54:14.2210,-0.061,-0.472,-0.825,1.42,-1.59,0.6,0.07,0.3,0.24
2022-01-30 18:54:14.2310,-0.067,-0.467,-0.818,1.47,-1.64,0.56,0.07,0.3,0.24
2022-01-30 18:54:14.2410,-0.073,-0.458,-0.797,1.54,-1.71,0.46,0.16,0.3,0.37
2022-01-30 18:54:14.2510,-0.075,-0.45,-0.762,1.59,-1.81,0.21,0.41,0.45,0.66
2022-01-30 18:54:14.2610,-0.07,-0.446,-0.724,1.58,-1.91,-0.14,0.52,0.56,0.78
2022-01-30 18:54:14.2710,-0.059,-0.454,-0.69,1.5,-1.95,-0.48,0.57,0.6,0.85
2022-01-30 18:54:14.2810,-0.039,-0.469,-0.669,1.34,-1.87,-0.73,0.58,0.58,0.88
2022-01-30 18:54:14.2910,-0.022,-0.488,-0.65,1.13,-1.76,-0.88,0.58,0.58,0.88
2022-01-30 18:54:14.3010,-0.014,-0.501,-0.634,0.98,-1.63,-1.02,0.45,0.4,0.82
2022-01-30 18:54:14.3110,-0.009,-0.506,-0.626,0.91,-1.58,-1.11,0.36,0.28,0.74
2022-01-30 18:54:14.3220,-0.005,-0.507,-0.619,0.83,-1.59,-1.14,0.36,0.28,0.74
2022-01-30 18:54:14.3310,-0.003,-0.502,-0.609,0.77,-1.63,-1.19,0.25,0.09,0.55
2022-01-30 18:54:14.3410,-0.005,-0.491,-0.595,0.74,-1.73,-1.29,0.25,0.09,0.55
2022-01-30 18:54:14.3520,-0.008,-0.485,-0.568,0.74,-1.85,-1.44,0.19,0.19,0.52
2022-01-30 18:54:14.3620,-0.004,-0.483,-0.55,0.72,-1.9,-1.71,0.19,0.19,0.52
2022-01-30 18:54:14.3710,0.008,-0.477,-0.549,0.63,-1.96,-1.79,0.06,0.36,0.59
2022-01-30 18:54:14.3810,0.023,-0.486,-0.549,0.47,-1.99,-1.78,0.06,0.36,0.59
2022-01-30 18:54:14.3910,0.031,-0.524,-0.563,0.33,-1.82,-1.74,-0.04,0.4,0.66
2022-01-30 18:54:14.4010,0.035,-0.579,-0.579,0.21,-0.84,-1.41,-0.23,0.4,0.91
2022-01-30 18:54:14.4120,0.032,-0.61,-0.607,0.21,-0.84,-1.41,-0.26,0.36,1.03
2022-01-30 18:54:14.4210,0.018,-0.609,-0.639,0.25,-0.67,-1.1,-0.24,0.33,1.1
2022-01-30 18:54:14.4310,0.007,-0.613,-0.649,0.35,-0.69,-0.87,-0.19,0.35,1.14
2022-01-30 18:54:14.4420,0.006,-0.631,-0.648,0.37,-0.56,-0.86,-0.19,0.35,1.14
2022-01-30 18:54:14.4520,0.012,-0.641,-0.666,0.3,-0.4,-0.83,-0.15,0.35,1.15
2022-01-30 18:54:14.4620,0.029,-0.657,-0.694,0.16,-0.29,-0.61,-0.28,0.31,1.11
2022-01-30 18:54:14.4720,0.047,-0.694,-0.712,-0.3,0.36,-0.23,-0.38,0.3,1.1
2022-01-30 18:54:14.4820,0.064,-0.73,-0.727,-0.3,0.36,-0.23,-0.38,0.3,1.1
2022-01-30 18:54:14.4920,0.076,-0.747,-0.744,-0.51,0.68,-0.11,-0.43,0.34,1.05
2022-01-30 18:54:14.5020,0.076,-0.748,-0.764,-0.64,0.81,0.05,-0.37,0.34,1.01
2022-01-30 18:54:14.5120,0.065,-0.74,-0.78,-0.63,0.8,0.21,-0.3,0.32,1.01
2022-01-30 18:54:14.5220,0.051,-0.745,-0.794,-0.43,0.9,0.49,-0.18,0.24,1.04
2022-01-30 18:54:14.5320,0.028,-0.753,-0.825,-0.43,0.9,0.49,-0.18,0.24,1.04
2022-01-30 18:54:14.5420,0.004,-0.755,-0.838,-0.23,0.95,0.77,-0.01,0.11,1.04
2022-01-30 18:54:14.5520,-0.008,-0.762,-0.834,-0.1,1.0,0.8,0.39,-0.21,0.9
2022-01-30 18:54:14.5630,-0.017,-0.766,-0.814,-0.08,1.05,0.74,0.48,-0.3,0.76
2022-01-30 18:54:14.5720,-0.023,-0.771,-0.772,-0.06,1.05,0.46,0.46,-0.34,0.6
2022-01-30 18:54:14.5820,-0.028,-0.782,-0.741,-0.09,1.1,0.1,0.35,-0.34,0.44
2022-01-30 18:54:14.5920,-0.032,-0.781,-0.718,-0.11,1.14,-0.14,0.35,-0.34,0.44
2022-01-30 18:54:14.6020,-0.041,-0.776,-0.708,-0.11,1.09,-0.31,0.01,-0.3,0.15
2022-01-30 18:54:14.6130,-0.055,-0.778,-0.71,-0.04,1.04,-0.33,-0.15,-0.26,0.06
2022-01-30 18:54:14.6220,-0.071,-0.782,-0.718,0.22,1.12,-0.2,-0.24,-0.21,-0.0
2022-01-30 18:54:14.6320,-0.091,-0.785,-0.727,0.22,1.12,-0.2,-0.24,-0.21,-0.0
2022-01-30 18:54:14.6420,-0.109,-0.789,-0.711,0.4,1.19,-0.21,-0.15,0.04,-0.12
2022-01-30 18:54:14.6520,-0.119,-0.784,-0.688,0.56,1.2,-0.42,-0.04,0.21,-0.21
2022-01-30 18:54:14.6630,-0.11,-0.781,-0.655,0.6,1.16,-0.68,-0.04,0.21,-0.21
2022-01-30 18:54:14.6730,-0.086,-0.777,-0.618,0.48,1.15,-1.06,0.05,0.48,-0.45
2022-01-30 18:54:14.6830,-0.054,-0.764,-0.59,0.25,1.07,-1.38,0.05,0.48,-0.45
2022-01-30 18:54:14.6920,-0.027,-0.748,-0.566,0.0,0.92,-1.65,-0.23,0.56,-0.68
2022-01-30 18:54:14.7020,-0.007,-0.736,-0.562,-0.15,0.77,-1.83,-0.46,0.5,-0.75
2022-01-30 18:54:14.7130,0.004,-0.743,-0.583,-0.24,0.72,-1.79,-0.68,0.38,-0.72
2022-01-30 18:54:14.7230,-0.008,-0.762,-0.624,-0.2,0.91,-1.54,-0.83,0.23,-0.65
2022-01-30 18:54:14.7330,-0.044,-0.753,-0.664,0.1,1.07,-1.15,-0.86,0.09,-0.57
2022-01-30 18:54:14.7430,-0.088,-0.727,-0.707,0.55,0.94,-0.83,-0.77,-0.05,-0.52
2022-01-30 18:54:14.7520,-0.14,-0.703,-0.752,1.05,0.76,-0.43,-0.77,-0.05,-0.52
2022-01-30 18:54:14.7630,-0.199,-0.673,-0.773,1.62,0.57,-0.11,-0.34,-0.18,-0.56
2022-01-30 18:54:14.7730,-0.253,-0.649,-0.77,2.22,0.32,-0.04,-0.09,-0.16,-0.64
2022-01-30 18:54:14.7830,-0.291,-0.635,-0.76,2.72,0.15,-0.14,0.07,-0.13,-0.74
2022-01-30 18:54:14.7930,-0.313,-0.635,-0.752,3.06,0.07,-0.23,0.07,-0.13,-0.81
2022-01-30 18:54:14.8030,-0.327,-0.648,-0.743,3.27,0.12,-0.32,0.1,-0.13,-0.81
2022-01-30 18:54:14.8130,-0.338,-0.666,-0.745,3.57,0.44,-0.33,-0.1,-0.27,-0.88
2022-01-30 18:54:14.8240,-0.348,-0.673,-0.75,3.57,0.44,-0.33,-0.1,-0.27,-0.88
2022-01-30 18:54:14.8330,-0.36,-0.65,-0.762,3.71,0.42,-0.26,-0.28,-0.57,-1.06
2022-01-30 18:54:14.8430,-0.366,-0.609,-0.754,3.83,0.11,-0.2,-0.28,-0.68,-1.06
2022-01-30 18:54:14.8530,-0.367,-0.57,-0.728,3.91,-0.26,-0.38,-0.24,-0.75,-1.43
2022-01-30 18:54:14.8640,-0.341,-0.539,-0.698,3.85,-0.6,-0.68,-0.21,-0.79,-1.58
2022-01-30 18:54:14.8740,-0.29,-0.534,-0.679,3.52,-0.82,-0.98,-0.22,-0.84,-1.65
2022-01-30 18:54:14.8830,-0.236,-0.555,-0.673,3.03,-0.71,-1.1,-0.22,-0.84,-1.65
2022-01-30 18:54:14.8930,-0.181,-0.574,-0.658,2.51,-0.47,-1.23,-0.41,-0.85,-1.55
2022-01-30 18:54:14.9030,-0.135,-0.606,-0.665,2.04,-0.24,-1.32,-0.56,-0.84,-1.45
2022-01-30 18:54:14.9130,-0.078,-0.65,-0.678,1.59,0.18,-1.27,-0.56,-0.84,-1.45
2022-01-30 18:54:14.9240,-0.018,-0.697,-0.717,0.45,1.23,-0.69,-0.95,-0.93,-1.29
2022-01-30 18:54:14.9340,0.044,-0.746,-0.764,0.45,1.23,-0.69,-1.09,-1.05,-1.24
2022-01-30 18:54:14.9440,0.095,-0.773,-0.807,-0.16,1.74,-0.33,-1.09,-1.05,-1.24
2022-01-30 18:54:14.9530,0.12,-0.767,-0.851,-0.56,1.97,0.07,-1.16,-1.29,-1.0
2022-01-30 18:54:14.9640,0.129,-0.741,-0.869,-0.78,1.92,0.33,-1.1,-1.29,-0.79
2022-01-30 18:54:14.9740,0.129,-0.711,-0.876,-0.87,1.73,0.37,-0.98,-1.25,-0.52
2022-01-30 18:54:14.9830,0.136,-0.7,-0.886,-0.94,1.59,0.39,-0.83,-1.22,-0.24
2022-01-30 18:54:14.9930,0.146,-0.694,-0.901,-1.12,1.61,0.44,-0.66,-1.26,0.01
2022-01-30 18:54:15.0040,0.15,-0.69,-0.928,-1.42,1.67,0.81,-0.48,-1.37,0.21
2022-01-30 18:54:15.0140,0.154,-0.695,-0.947,-1.58,1.76,0.92,-0.27,-1.51,0.32
2022-01-30 18:54:15.0240,0.151,-0.695,-0.953,-1.58,1.76,0.92,-0.07,-1.67,0.37
2022-01-30 18:54:15.0340,0.151,-0.687,-0.945,-1.68,1.73,0.92,0.1,-1.79,0.35
2022-01-30 18:54:15.0440,0.16,-0.689,-0.924,-1.88,1.69,0.79,0.17,-1.86,0.3
2022-01-30 18:54:15.0540,0.169,-0.696,-0.898,-2.15,1.74,0.56,0.15,-1.87,0.24
2022-01-30 18:54:15.0640,0.17,-0.697,-0.876,-2.38,1.78,0.34,0.15,-1.87,0.24
2022-01-30 18:54:15.0740,0.163,-0.69,-0.854,-2.53,1.75,0.15,-0.03,-1.67,0.16
2022-01-30 18:54:15.0840,0.149,-0.682,-0.848,-2.59,1.67,-0.02,-0.11,-1.55,0.12
2022-01-30 18:54:15.0940,0.135,-0.673,-0.864,-2.59,1.59,0.03,-0.16,-1.46,0.08
2022-01-30 18:54:15.1040,0.121,-0.669,-0.879,-2.59,1.53,0.23,-0.18,-1.4,0.03
2022-01-30 18:54:15.1140,0.11,-0.675,-0.889,-2.59,1.54,0.35,-0.18,-1.37,-0.02
2022-01-30 18:54:15.1240,0.101,-0.683,-0.904,-2.63,1.75,0.62,-0.19,-1.37,-0.06
2022-01-30 18:54:15.1340,0.086,-0.697,-0.912,-2.63,1.75,0.62,-0.19,-1.37,-0.06
2022-01-30 18:54:15.1440,0.067,-0.711,-0.919,-2.57,1.9,0.72,-0.19,-1.39,-0.12
2022-01-30 18:54:15.1540,0.05,-0.719,-0.918,-2.49,2.05,0.78,-0.19,-1.39,-0.24
2022-01-30 18:54:15.1650,0.029,-0.717,-0.904,-2.43,2.09,0.74,-0.2,-1.31,-0.32
2022-01-30 18:54:15.1740,0.001,-0.716,-0.882,-2.3,2.09,0.57,-0.2,-1.31,-0.32
2022-01-30 18:54:15.1840,-0.023,-0.706,-0.861,-2.12,2.06,0.38,-0.26,-0.97,-0.49
2022-01-30 18:54:15.1940,-0.04,-0.691,-0.833,-1.98,1.95,0.16,-0.26,-0.97,-0.49
2022-01-30 18:54:15.2040,-0.05,-0.683,-0.818,-1.9,1.82,-0.08,-0.27,-0.41,-0.63
2022-01-30 18:54:15.2140,-0.052,-0.693,-0.812,-1.85,1.82,-0.17,-0.18,-0.14,-0.65
2022-01-30 18:54:15.2240,-0.041,-0.716,-0.796,-2.05,2.19,-0.44,-0.03,0.09,-0.64
2022-01-30 18:54:15.2340,-0.008,-0.724,-0.778,-2.05,2.19,-0.44,-0.03,0.09,-0.64
2022-01-30 18:54:15.2440,0.035,-0.724,-0.772,-2.39,2.2,-0.58,0.26,0.33,-0.54
2022-01-30 18:54:15.2540,0.082,-0.731,-0.754,-2.77,2.2,-0.66,0.35,0.51,-0.35
2022-01-30 18:54:15.2650,0.12,-0.745,-0.741,-3.16,2.25,-0.86,0.43,0.7,-0.05
2022-01-30 18:54:15.2750,0.157,-0.774,-0.764,-3.47,2.41,-0.88,0.43,0.7,-0.05
2022-01-30 18:54:15.2840,0.182,-0.79,-0.843,-3.73,2.65,-0.44,0.53,0.74,0.26
2022-01-30 18:54:15.2950,0.182,-0.786,-0.942,-3.87,2.68,0.49,0.62,0.54,0.48
2022-01-30 18:54:15.3050,0.145,-0.783,-0.993,-3.73,2.6,1.36,0.74,0.15,0.59
2022-01-30 18:54:15.3150,0.082,-0.757,-0.998,-3.23,2.48,1.68,0.85,0.17,0.5
2022-01-30 18:54:15.3250,0.038,-0.71,-1.006,-2.66,2.07,1.73,1.01,0.28,0.35
2022-01-30 18:54:15.3440,0.021,-0.664,-1.009,-2.24,1.04,1.91,1.01,0.28,0.35
2022-01-30 18:54:15.3480,0.017,-0.626,-1.008,-2.24,1.04,1.91,1.28,0.58,0.17
2022-01-30 18:54:15.3560,0.008,-0.581,-1.007,-2.15,0.49,2.0,1.28,0.58,0.17
2022-01-30 18:54:15.3650,-0.017,-0.523,-1.017,-1.96,-0.12,2.08,1.35,0.75,0.24
2022-01-30 18:54:15.3750,-0.06,-0.466,-1.055,-1.6,-0.79,2.32,1.41,0.92,0.41
2022-01-30 18:54:15.3850,-0.12,-0.398,-1.126,-1.07,-1.48,2.89,1.49,1.0,0.57
2022-01-30 18:54:15.3950,-0.189,-0.322,-1.195,-0.4,-2.3,3.72,1.59,0.94,0.65
2022-01-30 18:54:15.4050,-0.242,-0.271,-1.212,0.28,-3.1,4.33,1.7,0.8,0.64
2022-01-30 18:54:15.4150,-0.257,-0.252,-1.186,0.68,-3.61,4.39,1.81,0.68,0.53
2022-01-30 18:54:15.4250,-0.241,-0.255,-1.136,0.72,-3.82,4.15,1.87,0.61,0.35
2022-01-30 18:54:15.4350,-0.216,-0.263,-1.063,0.54,-3.9,3.67,1.84,0.63,0.13
2022-01-30 18:54:15.4450,-0.198,-0.274,-0.987,0.37,-3.92,3.02,1.71,0.75,-0.07
2022-01-30 18:54:15.4550,-0.192,-0.273,-0.92,0.32,-3.96,2.38,1.51,0.96,-0.22
2022-01-30 18:54:15.4650,-0.191,-0.269,-0.87,0.4,-4.09,1.84,1.27,1.22,-0.31
2022-01-30 18:54:15.4750,-0.188,-0.272,-0.834,0.51,-4.18,1.46,1.05,1.49,-0.37
2022-01-30 18:54:15.4850,-0.188,-0.277,-0.814,0.63,-4.21,1.2,0.85,1.75,-0.39
2022-01-30 18:54:15.4950,-0.188,-0.289,-0.799,0.82,-4.19,1.06,0.7,1.97,-0.38
2022-01-30 18:54:15.5050,-0.177,-0.313,-0.795,0.94,-4.07,0.96,0.6,2.11,-0.32
2022-01-30 18:54:15.5150,-0.155,-0.344,-0.805,0.95,-3.84,0.99,0.54,2.11,-0.25
2022-01-30 18:54:15.5250,-0.132,-0.377,-0.82,0.86,-3.56,1.15,0.5,1.96,-0.18
2022-01-30 18:54:15.5350,-0.114,-0.406,-0.828,0.78,-3.27,1.3,0.48,1.7,-0.12
2022-01-30 18:54:15.5450,-0.102,-0.428,-0.833,0.72,-3.04,1.39,0.45,1.37,-0.1
2022-01-30 18:54:15.5550,-0.094,-0.444,-0.828,0.7,-2.88,1.44,0.39,1.04,-0.11
2022-01-30 18:54:15.5650,-0.089,-0.456,-0.812,0.7,-2.75,1.35,0.27,0.79,-0.16
2022-01-30 18:54:15.5750,-0.08,-0.46,-0.787,0.71,-2.66,1.17,0.09,0.67,-0.23
2022-01-30 18:54:15.5850,-0.069,-0.456,-0.774,0.66,-2.65,0.93,-0.1,0.69,-0.3
2022-01-30 18:54:15.5950,-0.067,-0.447,-0.782,0.66,-2.7,0.86,-0.26,0.8,-0.37
2022-01-30 18:54:15.6050,-0.066,-0.437,-0.806,0.76,-2.77,0.98,-0.36,0.93,-0.43
2022-01-30 18:54:15.6160,-0.059,-0.442,-0.833,0.82,-2.8,1.21,-0.39,1.05,-0.51
2022-01-30 18:54:15.6250,-0.055,-0.452,-0.87,0.88,-2.68,1.49,-0.33,1.13,-0.59
2022-01-30 18:54:15.6360,-0.048,-0.463,-0.898,0.97,-2.57,1.83,-0.24,1.14,-0.71
2022-01-30 18:54:15.6460,-0.04,-0.488,-0.926,1.02,-2.41,2.05,-0.16,1.06,-0.81
2022-01-30 18:54:15.6550,-0.03,-0.53,-0.956,1.06,-2.08,2.37,-0.17,0.83,-0.87
2022-01-30 18:54:15.6660,-0.019,-0.585,-0.954,1.04,-1.59,2.56,-0.22,0.57,-0.86
2022-01-30 18:54:15.6760,-0.018,-0.631,-0.94,1.04,-1.01,2.43,-0.24,0.34,-0.78
2022-01-30 18:54:15.6850,-0.028,-0.642,-0.913,1.14,-0.67,2.28,-0.2,0.21,-0.67
2022-01-30 18:54:15.6950,-0.044,-0.633,-0.862,1.32,-0.65,1.9,-0.11,0.22,-0.59
2022-01-30 18:54:15.7050,-0.062,-0.617,-0.813,1.56,-0.76,1.38,-0.02,0.38,-0.56
2022-01-30 18:54:15.7150,-0.068,-0.61,-0.758,1.79,-0.9,0.91,0.04,0.67,-0.59
2022-01-30 18:54:15.7250,-0.049,-0.618,-0.701,1.89,-0.9,0.35,0.02,1.04,-0.65
2022-01-30 18:54:15.7350,0.002,-0.635,-0.662,1.72,-0.77,-0.14,-0.05,1.38,-0.73
2022-01-30 18:54:15.7450,0.067,-0.655,-0.627,1.31,-0.56,-0.47,-0.19,1.63,-0.79
2022-01-30 18:54:15.7560,0.125,-0.674,-0.595,0.87,-0.32,-0.82,-0.38,1.8,-0.8
2022-01-30 18:54:15.7660,0.174,-0.684,-0.582,0.51,-0.11,-1.08,-0.61,1.88,-0.75
2022-01-30 18:54:15.7760,0.204,-0.692,-0.588,0.25,0.04,-1.15,-0.85,1.84,-0.6
2022-01-30 18:54:15.7860,0.215,-0.69,-0.604,0.16,0.2,-1.08,-1.08,1.69,-0.33
2022-01-30 18:54:15.7960,0.211,-0.674,-0.619,0.23,0.19,-0.98,-1.23,1.48,0.02
2022-01-30 18:54:15.8060,0.2,-0.674,-0.643,0.35,0.14,-0.86,-1.27,1.21,0.42
2022-01-30 18:54:15.8160,0.182,-0.682,-0.678,0.48,0.26,-0.63,-1.18,0.83,0.82
2022-01-30 18:54:15.8260,0.155,-0.677,-0.705,0.65,0.35,-0.34,-0.96,0.39,1.19
2022-01-30 18:54:15.8360,0.132,-0.654,-0.716,0.82,0.24,-0.19,-0.6,-0.08,1.47
2022-01-30 18:54:15.8460,0.115,-0.632,-0.709,0.87,-0.04,-0.15,-0.18,-0.54,1.64
2022-01-30 18:54:15.8560,0.102,-0.636,-0.668,0.85,-0.22,-0.34,0.22,-0.92,1.73
2022-01-30 18:54:15.8660,0.092,-0.65,-0.609,0.77,-0.18,-0.84,0.52,-1.16,1.77
2022-01-30 18:54:15.8760,0.088,-0.651,-0.56,0.65,-0.16,-1.37,0.68,-1.28,1.74
2022-01-30 18:54:15.8860,0.084,-0.659,-0.507,0.47,-0.22,-1.82,0.71,-1.28,1.65
2022-01-30 18:54:15.8960,0.074,-0.669,-0.461,0.34,-0.17,-2.32,0.64,-1.16,1.51
2022-01-30 18:54:15.9070,0.065,-0.67,-0.427,0.29,-0.16,-2.69,0.49,-0.96,1.34
2022-01-30 18:54:15.9160,0.058,-0.674,-0.405,0.25,-0.19,-2.98,0.29,-0.7,1.15
2022-01-30 18:54:15.9260,0.057,-0.684,-0.404,0.19,-0.13,-3.13,0.08,-0.43,0.96
2022-01-30 18:54:15.9310,0.055,-0.694,-0.423,0.19,-0.13,-3.13,-0.36,-0.01,0.58
2022-01-30 18:54:15.9460,0.053,-0.707,-0.449,0.15,0.09,-2.84,-0.51,0.15,0.41
2022-01-30 18:54:15.9560,0.051,-0.708,-0.482,0.13,0.22,-2.59,-0.51,0.15,0.41
2022-01-30 18:54:15.9660,0.054,-0.695,-0.519,0.13,0.19,-2.27,-0.59,0.27,0.08
2022-01-30 18:54:15.9760,0.069,-0.69,-0.552,0.06,0.11,-1.97,-0.59,0.27,0.08
2022-01-30 18:54:15.9860,0.093,-0.7,-0.595,-0.11,0.16,-1.65,-0.56,0.21,-0.0
2022-01-30 18:54:15.9960,0.118,-0.72,-0.613,-0.35,0.36,-1.3,-0.51,0.11,0.01
2022-01-30 18:54:16.0060,0.139,-0.733,-0.613,-0.58,0.58,-1.28,-0.32,0.06,0.28
2022-01-30 18:54:16.0160,0.153,-0.731,-0.628,-0.77,0.68,-1.26,-0.32,0.06,0.28
2022-01-30 18:54:16.0260,0.155,-0.719,-0.638,-0.88,0.64,-1.11,-0.09,0.17,0.7
2022-01-30 18:54:16.0360,0.163,-0.717,-0.621,-0.92,0.55,-1.14,-0.09,0.17,0.7
2022-01-30 18:54:16.0460,0.176,-0.733,-0.633,-1.06,0.59,-1.28,0.02,0.31,1.14
2022-01-30 18:54:16.0570,0.18,-0.759,-0.679,-1.23,1.04,-0.53,-0.03,0.23,1.3
2022-01-30 18:54:16.0670,0.164,-0.775,-0.718,-1.23,1.04,-0.53,-0.13,0.11,1.38
2022-01-30 18:54:16.0760,0.143,-0.795,-0.755,-1.1,1.16,-0.19,-0.25,-0.04,1.37
2022-01-30 18:54:16.0860,0.122,-0.832,-0.803,-0.97,1.45,0.22,-0.35,-0.18,1.28
2022-01-30 18:54:16.0970,0.107,-0.856,-0.845,-0.84,1.97,1.02,-0.39,-0.31,1.11
2022-01-30 18:54:16.1070,0.092,-0.851,-0.88,-0.84,1.97,1.02,-0.37,-0.37,0.93
2022-01-30 18:54:16.1170,0.077,-0.827,-0.898,-0.77,1.86,1.29,-0.27,-0.35,0.77
2022-01-30 18:54:16.1270,0.074,-0.798,-0.899,-0.75,1.62,1.37,-0.12,-0.24,0.65
2022-01-30 18:54:16.1360,0.08,-0.772,-0.88,-0.84,1.35,1.3,-0.12,-0.24,0.65
2022-01-30 18:54:16.1460,0.095,-0.761,-0.848,-0.99,1.15,1.03,0.06,-0.03,0.56
2022-01-30 18:54:16.1570,0.116,-0.772,-0.816,-1.2,1.13,0.72,0.2,0.19,0.51
2022-01-30 18:54:16.1670,0.136,-0.79,-0.776,-1.43,1.27,0.41,0.22,0.53,0.44
2022-01-30 18:54:16.1770,0.146,-0.807,-0.741,-1.66,1.56,-0.23,0.14,0.58,0.39
2022-01-30 18:54:16.1870,0.154,-0.817,-0.727,-1.66,1.56,-0.23,0.06,0.54,0.29
2022-01-30 18:54:16.1960,0.16,-0.82,-0.716,-1.73,1.63,-0.35,0.06,0.54,0.29
2022-01-30 18:54:16.2070,0.162,-0.817,-0.709,-1.75,1.63,-0.44,-0.03,0.3,0.01
2022-01-30 18:54:16.2170,0.164,-0.807,-0.696,-1.74,1.58,-0.52,0.0,0.2,-0.12
2022-01-30 18:54:16.2270,0.165,-0.791,-0.672,-1.74,1.46,-0.69,0.0,0.2,-0.12
2022-01-30 18:54:16.2370,0.166,-0.77,-0.642,-1.72,1.28,-0.95,0.13,0.15,-0.33
2022-01-30 18:54:16.2470,0.175,-0.754,-0.603,-1.73,1.08,-1.27,0.13,0.15,-0.33
2022-01-30 18:54:16.2570,0.194,-0.749,-0.566,-1.82,0.95,-1.66,0.15,0.28,-0.43
2022-01-30 18:54:16.2670,0.218,-0.762,-0.537,-2.0,0.95,-1.97,0.08,0.38,-0.43
2022-01-30 18:54:16.2770,0.24,-0.781,-0.509,-2.18,1.11,-2.26,0.08,0.38,-0.43
2022-01-30 18:54:16.2870,0.256,-0.791,-0.501,-2.32,1.27,-2.47,-0.09,0.56,-0.37
2022-01-30 18:54:16.2970,0.265,-0.799,-0.499,-2.39,1.35,-2.49,-0.09,0.56,-0.37
2022-01-30 18:54:16.3070,0.271,-0.806,-0.501,-2.4,1.45,-2.52,-0.16,0.63,-0.3
2022-01-30 18:54:16.3170,0.271,-0.802,-0.513,-2.38,1.48,-2.46,-0.13,0.59,-0.26
2022-01-30 18:54:16.3270,0.267,-0.795,-0.526,-2.2,1.39,-2.22,-0.08,0.49,-0.22
2022-01-30 18:54:16.3370,0.27,-0.792,-0.542,-2.2,1.39,-2.22,-0.08,0.49,-0.22
2022-01-30 18:54:16.3470,0.289,-0.803,-0.56,-2.22,1.41,-2.07,-0.01,0.31,-0.16
2022-01-30 18:54:16.3570,0.345,-0.822,-0.6,-2.51,1.57,-1.83,0.16,-0.42,-0.13
2022-01-30 18:54:16.3670,0.419,-0.841,-0.642,-3.14,1.75,-1.37,0.16,-0.42,-0.13
2022-01-30 18:54:16.3780,0.49,-0.861,-0.658,-3.89,1.93,-1.05,0.2,-0.85,-0.19
2022-01-30 18:54:16.3880,0.553,-0.874,-0.682,-4.62,2.1,-0.91,-0.04,-1.36,-0.38
2022-01-30 18:54:16.3970,0.594,-0.88,-0.708,-5.68,2.22,-0.39,-0.29,-1.31,-0.49
2022-01-30 18:54:16.4080,0.631,-0.877,-0.742,-5.68,2.22,-0.39,-0.54,-1.06,-0.58
2022-01-30 18:54:16.4180,0.663,-0.856,-0.803,-6.12,2.17,0.03,-0.67,-0.63,-0.59
2022-01-30 18:54:16.4270,0.67,-0.798,-0.866,-6.37,1.89,0.64,-0.64,0.02,-0.51
2022-01-30 18:54:16.4370,0.682,-0.704,-0.908,-6.43,1.21,1.13,-0.43,0.92,-0.29
2022-01-30 18:54:16.4480,0.713,-0.617,-0.944,-6.9,-0.39,1.8,-0.06,1.97,0.11
2022-01-30 18:54:16.4580,0.779,-0.568,-0.976,-6.9,-0.39,1.8,-0.06,1.97,0.11
2022-01-30 18:54:16.4680,0.885,-0.554,-0.961,-7.56,-0.71,1.98,0.85,3.86,1.04
2022-01-30 18:54:16.4780,1.0,-0.54,-0.948,-8.51,-0.85,1.78,0.85,3.86,1.04
2022-01-30 18:54:16.4870,1.082,-0.533,-0.932,-9.32,-1.05,1.82,1.08,4.32,1.37
2022-01-30 18:54:16.4980,1.112,-0.528,-0.889,-9.71,-1.18,1.6,0.77,4.37,1.84
2022-01-30 18:54:16.5080,1.094,-0.514,-0.882,-9.58,-1.36,1.41,0.31,4.14,2.04
2022-01-30 18:54:16.5180,1.057,-0.5,-0.893,-8.59,-1.78,1.82,-0.19,3.84,2.23
2022-01-30 18:54:16.5280,1.019,-0.478,-0.939,-8.59,-2.1295571100711825,2.53,-0.62,3.45,2.41
2022-01-30 18:54:16.5380,0.968,-0.421,-1.035,-8.06,-2.13,2.53,-0.62,3.45,2.41
2022-01-30 18:54:16.5480,0.897,-0.347,-1.128,-7.4,-2.78,3.54,-0.97,2.78,2.85
2022-01-30 18:54:16.5580,0.81,-0.27,-1.222,-6.6,-3.52,4.42,-0.97,2.78,2.85
2022-01-30 18:54:16.5680,0.702,-0.197,-1.291,-5.67,-4.25,5.32,-0.92,2.73,3.17
2022-01-30 18:54:16.5780,0.595,-0.131,-1.323,-4.59,-4.94,5.78,-0.62,3.8,4.15
2022-01-30 18:54:16.5880,0.522,-0.084,-1.364,-3.15,-5.92,6.6,-0.5,4.57,4.63
2022-01-30 18:54:16.5980,0.506,-0.076,-1.42,-3.1829432424902917,-5.88,7.25,-0.41,5.12,4.94
2022-01-30 18:54:16.6090,0.531,-0.112,-1.476,-3.19,-5.88,7.25,-0.41,5.12,4.94
2022-01-30 18:54:16.6180,0.551,-0.151,-1.503,-3.43,-5.52,7.75,-0.19,5.3,5.03
2022-01-30 18:54:16.6280,0.552,-0.169,-1.513,-3.54,-5.29,8.05,-0.06,5.04,4.91
2022-01-30 18:54:16.6380,0.537,-0.182,-1.485,-3.47,-5.22,8.09,-0.06,5.04,4.91
2022-01-30 18:54:16.6480,0.531,-0.186,-1.431,-3.34,-5.21,7.81,0.08,4.56,4.6
2022-01-30 18:54:16.6590,0.535,-0.182,-1.363,-3.36,-5.31,7.29,0.03,4.52,4.42
2022-01-30 18:54:16.6690,0.535,-0.161,-1.297,-3.42,-5.47,6.71,-0.1,4.71,4.28
2022-01-30 18:54:16.6780,0.532,-0.12,-1.241,-3.45,-5.84,6.18,-0.1,4.71,4.28
2022-01-30 18:54:16.6880,0.534,-0.068,-1.202,-3.43,-6.37,5.75,-0.42,5.73,4.28
2022-01-30 18:54:16.6980,0.547,-0.031,-1.212,-3.63,-7.23,5.93,-0.57,6.26,4.39
2022-01-30 18:54:16.7090,0.574,-0.012,-1.259,-3.63,-7.23,5.93,-0.7,6.54,4.45
2022-01-30 18:54:16.7180,0.59,0.023,-1.316,-3.86,-7.5,6.54,-0.81,6.55,4.42
2022-01-30 18:54:16.7290,0.578,0.058,-1.346,-3.84,-7.93,7.09,-0.81,6.55,4.42
2022-01-30 18:54:16.7390,0.561,0.087,-1.369,-3.63,-8.26,7.38,-1.12,5.97,4.15
2022-01-30 18:54:16.7480,0.539,0.118,-1.389,-3.15,-8.94,7.81,-1.35,5.58,3.93
2022-01-30 18:54:16.7590,0.513,0.161,-1.378,-3.15,-8.94,7.81,-1.65,5.34,3.75
2022-01-30 18:54:16.7680,0.479,0.23,-1.343,-2.84,-9.45,7.6,-2.01,5.26,3.64
2022-01-30 18:54:16.7790,0.45,0.315,-1.304,-2.49,-10.18,7.2,-2.44,5.28,3.65
2022-01-30 18:54:16.7890,0.416,0.413,-1.289,-2.18,-11.02,6.84,-2.89,5.35,3.82
2022-01-30 18:54:16.7990,0.377,0.506,-1.31,-1.78,-11.93,6.74,-3.31,5.34,4.15
2022-01-30 18:54:16.8090,0.321,0.571,-1.387,-1.33,-12.65,7.03,-3.58,5.15,4.62
2022-01-30 18:54:16.8190,0.217,0.616,-1.481,-0.62,-13.1,7.83,-3.57,4.87,5.15
2022-01-30 18:54:16.8290,0.084,0.631,-1.515,0.55,-13.33,8.41,-3.27,4.49,5.68
2022-01-30 18:54:16.8390,-0.027,0.605,-1.53,1.76,-13.23,8.46,-3.27,4.49,5.68
2022-01-30 18:54:16.8490,-0.132,0.537,-1.542,2.67,-12.7,8.49,-1.97,3.34,6.52
2022-01-30 18:54:16.8590,-0.217,0.48,-1.485,3.52,-11.93,8.31,-1.15,2.86,6.61
2022-01-30 18:54:16.8690,-0.253,0.477,-1.38,3.96,-11.56,7.41,-0.45,2.57,6.32
2022-01-30 18:54:16.8790,-0.223,0.458,-1.269,3.04,-11.2,5.09,-0.04,2.58,5.76
2022-01-30 18:54:16.8890,-0.134,0.359,-1.11,3.04,-11.2,5.09,0.01,2.84,5.05
2022-01-30 18:54:16.8990,0.001,0.188,-1.001,0.19,-8.16,2.93,-0.34,3.07,4.35
2022-01-30 18:54:16.9100,0.128,-0.021,-0.982,0.19,-8.16,2.93,-0.34,3.23,3.83
2022-01-30 18:54:16.9190,0.188,-0.203,-0.933,-0.95,-6.11,2.74,-1.6,3.44,3.54
2022-01-30 18:54:16.9290,0.174,-0.271,-0.853,-0.99,-4.33,1.28,-2.15,3.66,3.39
2022-01-30 18:54:16.9400,0.127,-0.236,-0.842,-0.99,-4.33,1.28,-2.46,3.69,3.28
2022-01-30 18:54:16.9490,0.068,-0.191,-0.904,0.1754176390171051,-4.81,1.92,-2.49,3.47,3.2
2022-01-30 18:54:16.9600,0.012,-0.195,-0.972,0.7,-4.48,2.46,-2.27,3.02,3.11
2022-01-30 18:54:16.9700,-0.018,-0.224,-1.057,0.7,-4.48,2.46,-1.9,2.32,2.93
2022-01-30 18:54:16.9790,-0.004,-0.27,-1.163,0.56,-3.34,4.11,-1.48,1.52,2.67
2022-01-30 18:54:16.9900,0.042,-0.333,-1.208,0.56,-3.34,4.11,-1.48,1.52,2.67
2022-01-30 18:54:17.0000,0.088,-0.393,-1.186,-0.45,-2.03,3.76,-0.83,0.43,2.2
2022-01-30 18:54:17.0100,0.115,-0.425,-1.141,-0.6951649439334869,-1.8136700552701952,3.2508998751640323,-0.7,0.31,2.08
2022-01-30 18:54:17.0200,0.11,-0.41,-1.079,-0.7,-1.82,3.25,-0.66,0.54,2.0
2022-01-30 18:54:17.0300,0.085,-0.363,-0.989,-0.47,-2.47,1.63,-0.72,1.02,1.96
2022-01-30 18:54:17.0400,0.058,-0.337,-0.949,-0.47,-2.47,1.63,-0.72,1.02,1.96
2022-01-30 18:54:17.0500,0.021,-0.326,-0.958,0.22,-2.68,1.64,-0.89,1.85,1.86
2022-01-30 18:54:17.0600,-0.028,-0.291,-1.024,0.22,-2.68,1.64,-0.92,1.97,1.68
2022-01-30 18:54:17.0690,-0.062,-0.275,-1.095,0.71,-2.96,2.37,-0.88,1.91,1.46
2022-01-30 18:54:17.0800,-0.068,-0.285,-1.141,1.0,-2.91,2.89,-0.88,1.91,1.46
2022-01-30 18:54:17.0900,-0.045,-0.305,-1.164,1.03,-2.73,3.26,-0.59,1.53,1.1
2022-01-30 18:54:17.1000,-0.015,-0.337,-1.156,0.79,-2.4,3.3,-0.59,1.53,1.1
2022-01-30 18:54:17.1110,-0.021,-0.331,-1.13,0.68,-2.12,3.14,-0.28,1.23,1.22
2022-01-30 18:54:17.1200,-0.046,-0.299,-1.09,0.88,-2.32,2.8,-0.14,1.16,1.45
2022-01-30 18:54:17.1300,-0.075,-0.281,-1.055,1.19,-2.58,2.4,0.01,1.13,1.68
2022-01-30 18:54:17.1400,-0.107,-0.258,-1.052,1.48,-2.73,2.13,0.18,1.13,1.78
2022-01-30 18:54:17.1500,-0.157,-0.216,-1.068,1.86,-3.06,2.25,0.18,1.13,1.78
2022-01-30 18:54:17.1600,-0.205,-0.187,-1.038,2.38,-3.47,2.3,0.65,1.38,1.42
2022-01-30 18:54:17.1700,-0.241,-0.168,-0.983,2.8,-3.74,1.88,0.79,1.55,1.11
2022-01-30 18:54:17.1800,-0.255,-0.167,-0.923,3.15,-3.96,1.39,0.77,1.7,0.84
2022-01-30 18:54:17.1900,-0.225,-0.213,-0.868,2.86,-3.36,0.48,0.58,1.7,0.67
2022-01-30 18:54:17.2010,-0.171,-0.285,-0.863,2.41,-2.63,0.66,0.25,1.53,0.59
2022-01-30 18:54:17.2110,-0.124,-0.388,-0.898,2.41,-2.63,0.66,-0.13,1.3,0.66
2022-01-30 18:54:17.2200,-0.101,-0.526,-0.946,2.11,-1.47,1.1,-0.45,1.14,0.82
2022-01-30 18:54:17.2310,-0.108,-0.6,-1.003,2.05,-0.21,1.62,-0.6,1.09,0.92
2022-01-30 18:54:17.2400,-0.139,-0.575,-1.046,2.29,0.13,2.15,-0.54,1.16,0.9
2022-01-30 18:54:17.2510,-0.156,-0.521,-1.059,2.61,-0.26,2.45,-0.54,1.3108690977096558,0.81
2022-01-30 18:54:17.2610,-0.173,-0.474,-1.041,2.77,-0.75,2.1963767516613006,-0.04,1.5,0.71
2022-01-30 18:54:17.2700,-0.202,-0.442,-1.012,3.06,-1.13,2.19,0.18,1.63,0.61
2022-01-30 18:54:17.2800,-0.207,-0.439,-0.978,3.33,-1.17,1.59,0.26,1.64,0.51
2022-01-30 18:54:17.2900,-0.161,-0.532,-0.947,2.86,0.07,1.4,0.22,1.49,0.48
2022-01-30 18:54:17.3010,-0.092,-0.681,-0.941,2.86,0.07,1.4,0.22,1.49,0.48
2022-01-30 18:54:17.3110,-0.021,-0.768,-0.939,2.26,1.36,1.43,0.13,1.19,0.41
2022-01-30 18:54:17.3210,0.041,-0.808,-0.937,1.64,1.97,1.42,0.08,0.82,0.24
2022-01-30 18:54:17.3300,0.074,-0.795,-0.928,1.16,2.21,1.43,0.12,0.46,0.02
2022-01-30 18:54:17.3400,0.073,-0.729,-0.881,1.03,1.8,1.23,0.32,0.25,-0.33
2022-01-30 18:54:17.3500,0.07,-0.683,-0.812,1.11,1.17,0.66,0.32,0.39,-0.34
2022-01-30 18:54:17.3610,0.08,-0.67,-0.748,1.13,0.82,0.02,0.32,0.39,-0.34
2022-01-30 18:54:17.3710,0.1,-0.683,-0.685,1.03,0.78,-0.58,0.03,0.89,-0.22
2022-01-30 18:54:17.3810,0.121,-0.714,-0.64,0.89,0.98,-1.13,-0.22,1.09,-0.16
2022-01-30 18:54:17.3910,0.139,-0.75,-0.613,0.78,1.31,-1.48,-0.22,1.09,-0.16
2022-01-30 18:54:17.4010,0.16,-0.813,-0.616,0.7,1.75,-1.64,-0.51,1.21,-0.15
2022-01-30 18:54:17.4110,0.19,-0.895,-0.638,0.55,2.53,-1.52,-0.77,1.2,-0.16
2022-01-30 18:54:17.4210,0.214,-0.95,-0.67,0.37,3.35,-1.29,-1.11,0.84,-0.23
2022-01-30 18:54:17.4310,0.223,-0.957,-0.704,0.27,3.78,-0.98,-1.11,0.84,-0.23
2022-01-30 18:54:17.4410,0.211,-0.937,-0.727,0.32,3.82,-0.71,-1.21,0.37,-0.16
2022-01-30 18:54:17.4510,0.177,-0.917,-0.73,0.59,3.7,-0.61,-1.17,0.23,-0.01
2022-01-30 18:54:17.4610,0.144,-0.898,-0.737,0.98,3.61,-0.67,-1.04,0.09,0.19
2022-01-30 18:54:17.4710,0.119,-0.872,-0.76,1.29,3.49,-0.59,-1.04,0.09,0.19
2022-01-30 18:54:17.4810,0.096,-0.848,-0.785,1.52,3.31,-0.38,-0.82,-0.06,0.39
2022-01-30 18:54:17.4910,0.075,-0.836,-0.804,1.72,3.17,-0.21,-0.54,-0.22,0.57
2022-01-30 18:54:17.5010,0.064,-0.833,-0.815,1.86,3.12,-0.07,-0.26,-0.4787641763687134,0.77
2022-01-30 18:54:17.5110,0.061,-0.855,-0.801,1.85,3.16,-0.08,0.19,-0.51,0.8
2022-01-30 18:54:17.5210,0.057,-0.884,-0.779,1.8,3.43,-0.28,0.27,-0.48,0.77
2022-01-30 18:54:17.5310,0.039,-0.897,-0.769,1.8,3.63,-0.47,0.27,-0.43,0.7
2022-01-30 18:54:17.5410,0.019,-0.914,-0.755,1.93,3.71,-0.55,0.27,-0.43,0.7
2022-01-30 18:54:17.5510,0.008,-0.944,-0.747,2.02,3.89,-0.7,0.09,-0.29,0.48
2022-01-30 18:54:17.5610,0.011,-0.982,-0.765,2.03,4.18,-0.69,-0.04,-0.31,0.38
2022-01-30 18:54:17.5710,0.011,-1.017,-0.808,1.93,4.55,-0.42,-0.04,-0.31,0.38
2022-01-30 18:54:17.5810,0.006,-1.041,-0.855,1.91,4.85,0.05,-0.27,-0.48,0.17
2022-01-30 18:54:17.5920,-0.008,-1.044,-0.902,1.94,5.04,0.48,-0.32,-0.5,0.05
2022-01-30 18:54:17.6010,-0.028,-1.025,-0.943,2.05,5.0,0.91,-0.32,-0.39,-0.07
2022-01-30 18:54:17.6120,-0.061,-0.983,-0.981,2.25,4.77,1.26,-0.32,-0.39,-0.07
2022-01-30 18:54:17.6220,-0.096,-0.904,-1.011,2.57,4.24,1.61,-0.15,0.09,-0.31
2022-01-30 18:54:17.6310,-0.116,-0.81,-1.006,2.87,3.41,1.78,-0.04,0.47,-0.44
2022-01-30 18:54:17.6410,-0.115,-0.715,-0.974,3.01,2.5,1.56,-0.04,0.47,-0.44
2022-01-30 18:54:17.6520,-0.097,-0.645,-0.954,3.0,1.61,1.3,-0.06,1.33,-0.53
2022-01-30 18:54:17.6620,-0.071,-0.671,-0.958,2.89,1.2,1.16,-0.29,1.61,-0.35
2022-01-30 18:54:17.6720,-0.037,-0.785,-1.047,2.74,1.91,1.47,-0.29,1.61,-0.35
2022-01-30 18:54:17.6820,-0.001,-0.855,-1.197,2.52,3.04,2.69,-0.7,1.17,0.17
2022-01-30 18:54:17.6920,0.006,-0.843,-1.323,2.35,3.45,4.15,-0.7,1.17,0.17
2022-01-30 18:54:17.7020,-0.038,-0.755,-1.403,2.57,3.12,5.23,-0.17,0.2,0.17
2022-01-30 18:54:17.7120,-0.106,-0.595,-1.378,3.18,1.99,5.71,0.28,0.14,-0.09
2022-01-30 18:54:17.7220,-0.137,-0.419,-1.246,3.77,0.32,4.97,0.57,0.45,-0.46
2022-01-30 18:54:17.7320,-0.135,-0.254,-1.118,3.94,-1.42,3.59,0.52,0.91,-0.79
2022-01-30 18:54:17.7420,-0.115,-0.163,-1.057,3.91,-2.9,2.58,0.17,1.32,-0.88
2022-01-30 18:54:17.7520,-0.098,-0.208,-1.102,3.8,-3.35,3.2951381546258927,-0.32,1.44,-0.67
2022-01-30 18:54:17.7620,-0.084,-0.38,-1.253,3.81,-2.34,3.29,-0.32,1.44,-0.67
2022-01-30 18:54:17.7720,-0.084,-0.487,-1.435,3.83,-0.55,5.03,-0.66,1.13,-0.28
2022-01-30 18:54:17.7820,-0.117,-0.406,-1.562,4.05,-0.17,6.67,0.22,-0.13,-0.1
2022-01-30 18:54:17.7920,-0.163,-0.284,-1.593,4.51,-1.29,7.63,0.22,-0.13,-0.1
2022-01-30 18:54:17.8020,-0.194,-0.203,-1.519,4.92,-3.168040736317635,6.659890919923782,2.14,-0.89,-0.65
2022-01-30 18:54:17.8130,-0.207,-0.131,-1.426,5.13,-3.17,6.65,2.14,-0.89,-0.65
2022-01-30 18:54:17.8230,-0.202,-0.141,-1.343,5.15,-3.88,5.81,2.66,-1.14,-0.93
2022-01-30 18:54:17.8320,-0.193,-0.319,-1.372,5.02,-3.34,5.36,2.56,-2.33,-0.88
2022-01-30 18:54:17.8430,-0.203,-0.51,-1.512,4.9,-1.42,6.3,2.56,-2.33,-0.88
2022-01-30 18:54:17.8520,-0.246,-0.52,-1.579,5.28,-0.97,7.96,2.44,-3.17,-0.64
2022-01-30 18:54:17.8630,-0.296,-0.411,-1.565,5.28,-0.97,7.96,3.15,-4.1,-0.62
2022-01-30 18:54:17.8730,-0.334,-0.31,-1.539,5.49,-2.29,7.83,3.15,-4.1,-0.62
2022-01-30 18:54:17.8820,-0.348,-0.229,-1.471,5.52,-3.39,7.55,4.09,-4.12,-1.39
2022-01-30 18:54:17.8920,-0.325,-0.164,-1.351,5.29,-4.4,6.82,4.09,-4.12,-1.39
2022-01-30 18:54:17.9030,-0.269,-0.13,-1.225,4.71,-5.19,5.72,3.95,-3.77,-2.57
2022-01-30 18:54:17.9130,-0.184,-0.118,-1.153,3.94,-5.68,4.89,3.53,-3.75,-3.13
2022-01-30 18:54:17.9230,-0.063,-0.102,-1.095,2.87,-6.01,4.49,3.0,-3.82,-3.59
2022-01-30 18:54:17.9330,0.045,-0.099,-1.092,1.66,-6.36,4.27,3.0,-3.82,-3.59
2022-01-30 18:54:17.9430,0.114,-0.134,-1.124,0.75,-6.35,4.59,2.5,-4.05,-3.86
2022-01-30 18:54:17.9530,0.148,-0.146,-1.148,0.26,-6.11,5.02,2.03,-4.56,-3.89
2022-01-30 18:54:17.9630,0.169,-0.101,-1.174,0.03,-6.28,5.34,2.1,-4.9,-3.85
2022-01-30 18:54:17.9730,0.192,-0.027,-1.222,-0.14,-6.93,5.73,2.1,-4.9,-3.85
2022-01-30 18:54:17.9830,0.234,0.043,-1.274,-0.41,-7.73,6.37,2.67,-6.04,-3.74
2022-01-30 18:54:17.9930,0.297,0.107,-1.295,-0.93,-8.45,6.84,3.04,-6.77,-3.66
2022-01-30 18:54:18.0030,0.391,0.162,-1.3,-2.8,-9.76,7.2,3.28,-7.43,-3.54
2022-01-30 18:54:18.0130,0.502,0.197,-1.285,-4.0,-10.1,7.24,3.27,-7.91,-3.37
2022-01-30 18:54:18.0230,0.602,0.196,-1.271,-4.0,-10.1,7.24,3.0,-8.03,-3.15
2022-01-30 18:54:18.0330,0.651,0.186,-1.237,-5.37,-10.24,7.03,2.53,-7.74,-2.94
2022-01-30 18:54:18.0430,0.642,0.207,-1.223,-5.37,-10.24,7.03,1.93,-7.13,-2.8
2022-01-30 18:54:18.0530,0.623,0.244,-1.26,-5.31,-10.64,7.19,1.35,-6.43,-2.78
2022-01-30 18:54:18.0640,0.62,0.249,-1.351,-5.4,-10.93,8.95,1.35,-6.43,-2.78
2022-01-30 18:54:18.0740,0.635,0.222,-1.47,-5.4,-10.93,8.95,1.03,-5.8,-2.92
2022-01-30 18:54:18.0830,0.645,0.197,-1.565,-5.58,-10.69,10.21,1.03,-5.8,-2.92
2022-01-30 18:54:18.0930,0.676,0.17,-1.555,-5.72,-10.48,10.79,1.4,-5.85,-2.99
2022-01-30 18:54:18.1030,0.718,0.131,-1.524,-6.13,-10.23,10.6,1.96,-6.08,-2.88
2022-01-30 18:54:18.1140,0.742,0.076,-1.473,-6.5,-9.84,10.38,1.96,-6.08,-2.88
2022-01-30 18:54:18.1230,0.748,0.025,-1.41,-6.67,-9.35,9.92,1.46,-6.06,-2.45
2022-01-30 18:54:18.1330,0.74,0.002,-1.368,-6.7,-8.99,9.47,1.1,-6.03,-2.26
2022-01-30 18:54:18.1430,0.712,-0.003,-1.361,-6.6,-8.9,9.27,1.1,-6.03,-2.26
2022-01-30 18:54:18.1530,0.656,-0.01,-1.387,-6.25,-8.9,9.44,0.93,-6.06,-2.0
2022-01-30 18:54:18.1640,0.612,-0.027,-1.371,-5.49,-8.64,9.42,1.1,-6.03,-1.93
2022-01-30 18:54:18.1740,0.601,-0.057,-1.344,-5.512263751029969,-8.27,9.29,1.2,-6.02,-1.9
2022-01-30 18:54:18.1840,0.602,-0.114,-1.32,-5.52,-8.27,9.29,1.2,-6.02,-1.9
2022-01-30 18:54:18.1930,0.594,-0.158,-1.269,-5.58,-7.75,9.02,0.79,-5.83,-1.99
2022-01-30 18:54:18.2030,0.563,-0.173,-1.224,-5.12,-7.43,8.29,0.37,-5.67,-2.13
2022-01-30 18:54:18.2130,0.513,-0.17,-1.207,-4.61,-7.43,8.21,-0.07,-5.46,-2.28
2022-01-30 18:54:18.2230,0.466,-0.187,-1.199,-4.21,-7.16,8.13,-0.07,-5.46,-2.28
2022-01-30 18:54:18.2330,0.436,-0.221,-1.202,-4.21,-7.16,8.13,-0.64,-4.96,-2.54
2022-01-30 18:54:18.2430,0.411,-0.248,-1.21,-3.65,-6.51,8.11,-0.74,-4.71,-2.65
2022-01-30 18:54:18.2530,0.396,-0.284,-1.205,-3.48,-6.11,7.95,-0.75,-4.5,-2.73
2022-01-30 18:54:18.2630,0.39,-0.318,-1.188,-3.48,-6.11,7.95,-0.75,-4.5,-2.73
2022-01-30 18:54:18.2730,0.393,-0.328,-1.136,-3.39,-5.74,6.9,-0.67,-4.3,-2.77
2022-01-30 18:54:18.2830,0.412,-0.323,-1.077,-3.51,-5.75,6.3,-0.53,-4.09,-2.78
2022-01-30 18:54:18.2930,0.428,-0.323,-1.019,-3.54,-5.69,5.6,-0.28,-3.8,-2.65
2022-01-30 18:54:18.3030,0.435,-0.329,-0.951,-3.51,-5.57,4.93,-0.24,-3.74,-2.51
2022-01-30 18:54:18.3130,0.437,-0.345,-0.896,-3.51,-5.57,4.93,-0.24,-3.74,-2.35
2022-01-30 18:54:18.3240,0.444,-0.371,-0.838,-3.48,-5.34,4.33,-0.24,-3.74,-2.35
2022-01-30 18:54:18.3340,0.451,-0.401,-0.79,-3.52,-5.03,3.72,-0.26,-3.79,-2.21
2022-01-30 18:54:18.3440,0.456,-0.435,-0.775,-3.54,-4.7,3.29,-0.48,-4.16,-2.01
2022-01-30 18:54:18.3540,0.462,-0.482,-0.794,-3.57,-4.3,3.21,-0.68,-4.48,-1.93
2022-01-30 18:54:18.3640,0.473,-0.533,-0.835,-3.66,-3.75,3.42,-0.9,-4.78,-1.89
2022-01-30 18:54:18.3740,0.476,-0.552,-0.882,-3.81,-3.28,3.75,-1.1,-4.99,-1.91
2022-01-30 18:54:18.3840,0.459,-0.546,-0.935,-3.82,-3.16,4.1,-1.25,-5.09,-2.0
2022-01-30 18:54:18.3940,0.435,-0.533,-0.997,-3.69,-3.18,4.55,-1.25,-5.09,-2.0
2022-01-30 18:54:18.4040,0.403,-0.497,-1.035,-3.52,-3.3,4.96,-1.33,-4.78,-2.36
2022-01-30 18:54:18.4150,0.364,-0.454,-1.046,-3.23,-3.62,5.07,-1.33,-4.78,-2.36
2022-01-30 18:54:18.4240,0.339,-0.407,-1.029,-2.94,-3.97,4.95,-1.27,-3.69,-2.68
2022-01-30 18:54:18.4340,0.336,-0.377,-0.997,-2.8,-4.33,4.57,-1.25,-2.96,-2.69
2022-01-30 18:54:18.4440,0.351,-0.379,-0.975,-2.82,-4.42,4.14,-1.24,-2.33,-2.6
2022-01-30 18:54:18.4550,0.383,-0.399,-0.977,-2.98,-4.22,3.89,-1.2,-1.94,-2.48
2022-01-30 18:54:18.4650,0.43,-0.416,-0.998,-3.29,-3.94,3.87,-1.13,-1.85,-2.37
2022-01-30 18:54:18.4750,0.464,-0.428,-1.02,-3.66,-3.7,4.02,-1.13,-1.85,-2.37
2022-01-30 18:54:18.4840,0.477,-0.434,-1.006,-3.83,-3.52,4.01,-0.89,-2.2,-2.07
2022-01-30 18:54:18.4950,0.492,-0.441,-0.964,-3.88,-3.38,3.66,-0.89,-2.2,-2.07
2022-01-30 18:54:18.5050,0.517,-0.459,-0.895,-4.06,-3.23,3.07,-0.62,-2.43,-1.67
2022-01-30 18:54:18.5150,0.534,-0.504,-0.812,-4.29,-2.88,2.22,-0.62,-2.43,-1.67
2022-01-30 18:54:18.5250,0.548,-0.558,-0.75,-4.46,-2.33,1.41,-0.58,-2.17,-1.21
2022-01-30 18:54:18.5350,0.565,-0.612,-0.704,-4.65,-1.75,0.78,-0.58,-2.17,-1.21
2022-01-30 18:54:18.5450,0.574,-0.653,-0.695,-4.86,-1.19,0.39,-0.8,-1.84,-0.97
2022-01-30 18:54:18.5550,0.588,-0.697,-0.707,-4.98,-0.79,0.35,-0.97,-1.81,-0.9
2022-01-30 18:54:18.5650,0.614,-0.775,-0.758,-5.23,-0.17,0.48,-0.97,-1.81,-0.9
2022-01-30 18:54:18.5750,0.633,-0.873,-0.847,-5.54,0.76,1.1,-1.35,-2.17,-0.63
2022-01-30 18:54:18.5850,0.633,-0.991,-0.904,-5.73,1.87,1.82,-1.45,-2.34,-0.43
2022-01-30 18:54:18.5950,0.634,-1.101,-0.93,-5.81,3.15,2.12,-1.45,-2.36,-0.26
2022-01-30 18:54:18.6050,0.631,-1.179,-0.947,-5.96,4.21,2.22,-1.34,-2.24,-0.15
2022-01-30 18:54:18.6150,0.618,-1.235,-0.966,-6.05,5.0,2.28,-1.34,-2.24,-0.15
2022-01-30 18:54:18.6250,0.587,-1.261,-0.987,-6.0,5.55,2.4,-1.19,-2.06,-0.08
2022-01-30 18:54:18.6350,0.544,-1.251,-0.992,-5.79,5.75,2.46,-0.85,-1.64,-0.01
2022-01-30 18:54:18.6450,0.505,-1.228,-1.009,-5.49,5.63,2.46,-0.85,-1.64,-0.01
2022-01-30 18:54:18.6560,0.483,-1.215,-1.027,-5.25,5.43,2.65,-0.48,-1.52,-0.15
2022-01-30 18:54:18.6660,0.482,-1.203,-1.002,-5.43,5.41,2.18,-0.29,-1.41,-0.31
2022-01-30 18:54:18.6750,0.501,-1.211,-0.929,-5.43,5.41,2.18,-0.29,-1.41,-0.31
2022-01-30 18:54:18.6850,0.532,-1.22,-0.835,-5.76,5.54,1.36,-0.18,-1.18,-0.5
2022-01-30 18:54:18.6950,0.563,-1.23,-0.737,-6.13,5.63,0.38,-0.2,-0.84,-0.71
2022-01-30 18:54:18.7060,0.584,-1.231,-0.674,-6.56,5.71,-1.0,-0.52,-0.16,-1.13
2022-01-30 18:54:18.7160,0.591,-1.218,-0.64,-6.56,5.71,-1.0,-0.7,0.07,-1.31
2022-01-30 18:54:18.7260,0.591,-1.203,-0.616,-6.52,5.6,-1.31,-0.79,0.21,-1.43
2022-01-30 18:54:18.7360,0.595,-1.177,-0.598,-6.46,5.46,-1.56,-0.79,0.21,-1.43
2022-01-30 18:54:18.7450,0.601,-1.147,-0.583,-6.39,5.24,-1.78,-0.79,0.28,-1.47
2022-01-30 18:54:18.7540,0.612,-1.119,-0.572,-6.36,4.8,-2.13,-0.72,0.25,-1.43
