time,gFx,gFy,gFz,ax,ay,az,wx,wy,wz
2022-01-30 18:55:02.0140,0.228,-0.596,-0.696,-1.01,1.36,-0.03,-0.03,-0.37,0.06
2022-01-30 18:55:40.1920,0.254,-0.588,-0.77,-0.71,1.1,-1.48,-0.16,-0.31,0.15
2022-01-30 18:55:40.1960,0.278,-0.599,-0.83,-1.07,1.06,-0.3201449972391129,-0.23,-0.37,0.26
2022-01-30 18:55:40.2070,0.288,-0.594,-0.828,-1.29,1.2,-0.33,-0.21,-0.46,0.32
2022-01-30 18:55:40.2160,0.289,-0.565,-0.832,-1.41,1.03,-0.39,-0.11,-0.55,0.38
2022-01-30 18:55:40.2270,0.285,-0.557,-0.841,-1.45,0.79,-0.31,0.04,-0.63,0.46
2022-01-30 18:55:40.2380,0.284,-0.566,-0.84,-1.5,0.8,-0.25,0.24,-0.65,0.55
2022-01-30 18:55:40.2470,0.283,-0.569,-0.819,-1.58,0.84,-0.34,0.45,-0.59,0.62
2022-01-30 18:55:40.2570,0.278,-0.583,-0.792,-1.64,0.96,-0.78,0.64,-0.49,0.67
2022-01-30 18:55:40.2680,0.269,-0.602,-0.777,-1.64,0.96,-0.78,0.77,-0.4,0.7
2022-01-30 18:55:40.2780,0.25,-0.623,-0.788,-1.43,1.19,-0.65,0.84,-0.35,0.68
2022-01-30 18:55:40.2880,0.224,-0.633,-0.79,-1.43,1.19,-0.65,0.85,-0.32,0.61
2022-01-30 18:55:40.2980,0.191,-0.618,-0.794,-1.22,1.12,-0.62,0.78,-0.31,0.5
2022-01-30 18:55:40.3080,0.163,-0.598,-0.802,-0.93,0.85,-0.51,0.78,-0.31,0.5
2022-01-30 18:55:40.3180,0.148,-0.589,-0.801,-0.76,0.65,-0.42,0.53,-0.18,0.34
2022-01-30 18:55:40.3280,0.133,-0.58,-0.785,-0.65,0.3850724798440933,-0.63,0.53,-0.18,0.34
2022-01-30 18:55:40.3380,0.12,-0.564,-0.772,-0.53,0.38,-0.63,0.41,-0.03,0.34
2022-01-30 18:55:40.3480,0.115,-0.548,-0.776,-0.43,0.18,-0.66,0.27,0.35,0.41
2022-01-30 18:55:40.3580,0.112,-0.547,-0.782,-0.39,0.05,-0.58,0.27,0.56,0.5
2022-01-30 18:55:40.3680,0.111,-0.547,-0.781,-0.33,0.03,-0.55,0.32,0.73,0.61
2022-01-30 18:55:40.3780,0.128,-0.549,-0.785,-0.52,0.01,-0.48,0.42,0.86,0.71
2022-01-30 18:55:40.3880,0.147,-0.558,-0.769,-0.52,0.01,-0.48,0.55,0.96,0.8
2022-01-30 18:55:40.3980,0.166,-0.559,-0.747,-0.67,0.03,-0.66,0.68,1.0,0.85
2022-01-30 18:55:40.4080,0.184,-0.559,-0.732,-0.95,-0.09,-0.87,0.78,0.99,0.87
2022-01-30 18:55:40.4180,0.197,-0.566,-0.723,-0.95,-0.09,-0.87,0.85,0.9,0.86
2022-01-30 18:55:40.4280,0.205,-0.575,-0.725,-1.08,-0.07,-0.79,0.88,0.75,0.81
2022-01-30 18:55:40.4390,0.206,-0.58,-0.722,-1.08,-0.07,-0.79,0.87,0.58,0.75
2022-01-30 18:55:40.4480,0.199,-0.577,-0.702,-0.97,-0.22,-1.0,0.85,0.47,0.67
2022-01-30 18:55:40.4580,0.189,-0.579,-0.68,-0.97,-0.22,-1.0,0.82,0.39,0.61
2022-01-30 18:55:40.4680,0.181,-0.582,-0.668,-0.88,-0.27,-1.13,0.77,0.34,0.55
2022-01-30 18:55:40.4780,0.176,-0.586,-0.661,-0.83,-0.3,-1.17,0.72,0.32,0.5
2022-01-30 18:55:40.4890,0.173,-0.587,-0.65,-0.78,-0.36,-1.26,0.67,0.29,0.45
2022-01-30 18:55:40.4980,0.176,-0.592,-0.647,-0.85,-0.33,-1.19,0.6,0.25,0.38
2022-01-30 18:55:40.5090,0.183,-0.602,-0.659,-0.85,-0.33,-1.19,0.6,0.25,0.38
2022-01-30 18:55:40.5180,0.178,-0.605,-0.663,-0.88,-0.3,-1.04,0.48,0.19,0.27
2022-01-30 18:55:40.5280,0.169,-0.6,-0.656,-0.72,-0.43,-1.09,0.45,0.22,0.22
2022-01-30 18:55:40.5390,0.165,-0.595,-0.646,-0.72,-0.43,-1.09,0.43,0.29,0.18
2022-01-30 18:55:40.5480,0.166,-0.596,-0.645,-0.69,-0.49,-1.1,0.39,0.37,0.15
2022-01-30 18:55:40.5590,0.167,-0.595,-0.641,-0.69,-0.49,-1.1,0.35,0.46,0.14
2022-01-30 18:55:40.5680,0.168,-0.59,-0.636,-0.67,-0.57,-1.14,0.31,0.54,0.13
2022-01-30 18:55:40.5780,0.173,-0.594,-0.643,-0.68,-0.58,-1.02,0.26,0.59,0.13
2022-01-30 18:55:40.5890,0.176,-0.598,-0.646,-0.68,-0.58,-1.02,0.21,0.63,0.13
2022-01-30 18:55:40.5980,0.175,-0.598,-0.639,-0.66,-0.57,-1.01,0.17,0.67,0.14
2022-01-30 18:55:40.6080,0.175,-0.592,-0.638,-0.6,-0.6,-1.07,0.17,0.67,0.14
2022-01-30 18:55:40.6190,0.18,-0.59,-0.641,-0.58,-0.67,-1.03,0.09,0.73,0.14
2022-01-30 18:55:40.6280,0.183,-0.593,-0.641,-0.58,-0.67,-1.0,0.06,0.76,0.12
2022-01-30 18:55:40.6390,0.184,-0.594,-0.636,-0.55,-0.64,-0.99,0.01,0.81,0.1
2022-01-30 18:55:40.6490,0.191,-0.591,-0.638,-0.52,-0.66,-1.05,0.01,0.81,0.1
2022-01-30 18:55:40.6590,0.197,-0.592,-0.671,-0.56,-0.66,-0.9,-0.06,0.78,-0.04
2022-01-30 18:55:40.6690,0.222,-0.609,-0.677,-0.83,-0.32,-0.66,-0.04,0.77,-0.05
2022-01-30 18:55:40.6790,0.244,-0.653,-0.681,-0.83,-0.32,-0.66,-0.01,0.69,0.03
2022-01-30 18:55:40.6890,0.252,-0.679,-0.715,-0.9,0.09,-0.41,0.05,0.59,0.11
2022-01-30 18:55:40.6990,0.255,-0.665,-0.715,-0.91,-0.02,-0.17,0.11,0.48,0.14
2022-01-30 18:55:40.7100,0.249,-0.65,-0.73,-0.91,-0.02,-0.17,0.16,0.33,0.13
2022-01-30 18:55:40.7190,0.235,-0.652,-0.755,-0.65,-0.07,0.31,0.16,0.14,0.07
2022-01-30 18:55:40.7290,0.219,-0.658,-0.778,-0.65,-0.07,0.31,0.14,-0.05,-0.03
2022-01-30 18:55:40.7390,0.206,-0.658,-0.795,-0.38,-0.06,0.64,0.12,-0.19,-0.14
2022-01-30 18:55:40.7490,0.189,-0.654,-0.797,-0.19,-0.13,0.61,0.11,-0.26,-0.24
2022-01-30 18:55:40.7590,0.166,-0.645,-0.783,-0.19,-0.13,0.61,0.13,-0.23,-0.3
2022-01-30 18:55:40.7690,0.143,-0.635,-0.756,0.05,-0.23,0.42,0.17,-0.1,-0.3
2022-01-30 18:55:40.7790,0.126,-0.634,-0.727,0.471601185053587,-0.29133868932724,-0.05,0.24,0.07,-0.25
2022-01-30 18:55:40.7900,0.105,-0.636,-0.725,0.47,-0.3,-0.05,0.32,0.2,-0.19
2022-01-30 18:55:40.7990,0.086,-0.632,-0.729,0.69,-0.33,0.01,0.41,0.27,-0.13
2022-01-30 18:55:40.8090,0.076,-0.635,-0.732,0.89,-0.39,0.08,0.41,0.27,-0.13
2022-01-30 18:55:40.8190,0.09,-0.665,-0.712,0.93,-0.32,0.1,0.65,0.48,-0.05
2022-01-30 18:55:40.8290,0.094,-0.702,-0.694,0.82,0.02,-0.1,0.77,0.61,-0.06
2022-01-30 18:55:40.8400,0.072,-0.696,-0.697,0.93,0.2,-0.14,0.82,0.62,-0.14
2022-01-30 18:55:40.8490,0.043,-0.66,-0.741,1.24,-0.06,0.08,0.82,0.62,-0.14
2022-01-30 18:55:40.8590,0.032,-0.637,-0.793,1.55,-0.47,0.69,0.76,0.45,-0.28
2022-01-30 18:55:40.8700,0.049,-0.648,-0.801,1.58,-0.58,1.1,0.46,0.14,-0.52
2022-01-30 18:55:40.8790,0.068,-0.653,-0.78,1.42,-0.46,1.07,0.3,0.23,-0.53
2022-01-30 18:55:40.8900,0.089,-0.65,-0.761,1.1,-0.47,0.8,0.15,0.43,-0.45
2022-01-30 18:55:40.9000,0.123,-0.661,-0.788,1.1,-0.47,0.8,0.02,0.55,-0.33
2022-01-30 18:55:40.9090,0.162,-0.669,-0.851,0.44,-0.26,1.92,-0.1,0.49,-0.2
2022-01-30 18:55:40.9200,0.206,-0.68,-0.922,0.05,-0.09,2.62,-0.16,0.2,-0.09
2022-01-30 18:55:40.9300,0.237,-0.701,-0.988,0.05,-0.09,2.62,-0.11,-0.22,-0.02
2022-01-30 18:55:40.9400,0.245,-0.709,-1.029,-0.19,0.1,3.18,0.0,-0.65,-0.02
2022-01-30 18:55:40.9500,0.239,-0.692,-1.023,-0.24,0.09,3.42,0.0,-0.65,-0.02
2022-01-30 18:55:40.9600,0.228,-0.668,-0.986,-0.22,-0.14,3.19,0.28,-1.09,-0.1
2022-01-30 18:55:40.9690,0.211,-0.658,-0.939,-0.16,-0.36,2.78,0.36,-1.11,-0.07
2022-01-30 18:55:40.9800,0.189,-0.657,-0.886,-0.05,-0.42,2.29,0.37,-1.04,0.04
2022-01-30 18:55:40.9900,0.175,-0.654,-0.848,0.09,-0.5,1.52,0.33,-0.95,0.22
2022-01-30 18:55:41.0000,0.175,-0.661,-0.832,0.09,-0.5,1.52,0.28,-0.86,0.42
2022-01-30 18:55:41.0100,0.18,-0.677,-0.837,-0.04,-0.41,1.44,0.24,-0.82,0.6
2022-01-30 18:55:41.0200,0.18,-0.692,-0.851,-0.18,-0.27,1.55,0.24,-0.82,0.6
2022-01-30 18:55:41.0300,0.168,-0.699,-0.857,-0.19,-0.18,1.7,0.32,-0.8,0.83
2022-01-30 18:55:41.0400,0.146,-0.699,-0.85,-0.19,-0.18,1.7,0.41,-0.76,0.84
2022-01-30 18:55:41.0500,0.122,-0.696,-0.834,-0.07,-0.23,1.61,0.49,-0.68,0.78
2022-01-30 18:55:41.0600,0.1,-0.691,-0.81,0.07,-0.31,1.45,0.52,-0.55,0.67
2022-01-30 18:55:41.0700,0.084,-0.686,-0.769,0.18,-0.41,1.2,0.47,-0.38,0.54
2022-01-30 18:55:41.0800,0.081,-0.688,-0.729,0.23,-0.47,0.78,0.34,-0.2,0.42
2022-01-30 18:55:41.0900,0.087,-0.7,-0.708,0.18,-0.43,0.48,0.17,-0.05,0.32
2022-01-30 18:55:41.1010,0.099,-0.698,-0.693,0.07,-0.35,0.32,-0.02,0.06,0.24
2022-01-30 18:55:41.1100,0.112,-0.681,-0.685,-0.07,-0.45,0.19,-0.19276252388954163,0.11,0.19
2022-01-30 18:55:41.1200,0.118,-0.667,-0.683,-0.19,-0.59,0.12,-0.19,0.11,0.19
2022-01-30 18:55:41.1300,0.118,-0.653,-0.675,-0.23,-0.81,-0.04,-0.42,0.1,0.21
2022-01-30 18:55:41.1410,0.116,-0.639,-0.672,-0.23,-0.81,-0.04,-0.46,0.05,0.26
2022-01-30 18:55:41.1510,0.111,-0.626,-0.675,-0.22,-0.92,-0.08,-0.44,-0.01,0.32
2022-01-30 18:55:41.1610,0.097,-0.613,-0.674,-0.16,-1.02,-0.08,-0.38,-0.08,0.38
2022-01-30 18:55:41.1710,0.081,-0.603,-0.679,-0.05,-1.12,-0.13,-0.32,-0.16,0.42
2022-01-30 18:55:41.1800,0.066,-0.59,-0.689,0.06,-1.2,-0.05,-0.24,-0.25,0.46
2022-01-30 18:55:41.1910,0.051,-0.575,-0.687,0.17,-1.33,-0.01,-0.17,-0.32,0.5
2022-01-30 18:55:41.2010,0.046,-0.566,-0.685,0.23,-1.45,-0.08,-0.11,-0.39,0.53
2022-01-30 18:55:41.2110,0.048,-0.565,-0.691,0.18,-1.51,-0.05,-0.11,-0.39,0.53
2022-01-30 18:55:41.2210,0.056,-0.573,-0.683,-0.07,-1.38,-0.14,0.0,-0.39,0.59
2022-01-30 18:55:41.2310,0.061,-0.586,-0.685,-0.21,-1.24,0.0,0.03,-0.35,0.62
2022-01-30 18:55:41.2410,0.071,-0.606,-0.727,-0.21,-1.24,0.0,-0.03,-0.41,0.62
2022-01-30 18:55:41.2510,0.077,-0.623,-0.798,-0.38,-1.03,0.56,-0.17,-0.6,0.61
2022-01-30 18:55:41.2610,0.057,-0.625,-0.878,-0.45,-0.9,1.28,-0.35,-0.84,0.59
2022-01-30 18:55:41.2710,0.008,-0.618,-0.934,-0.23,-0.89,2.0,-0.47,-0.95,0.53
2022-01-30 18:55:41.2820,-0.036,-0.6,-0.949,0.46,-1.15,2.36,-0.48,-0.85,0.45
2022-01-30 18:55:41.2910,-0.065,-0.574,-0.939,0.46,-1.15,2.36,-0.39,-0.54,0.38
2022-01-30 18:55:41.3010,-0.08,-0.552,-0.911,0.63,-1.38,2.15,-0.23,-0.09,0.37
2022-01-30 18:55:41.3110,-0.076,-0.541,-0.903,0.69,-1.54,1.88,-0.09,0.31,0.4
2022-01-30 18:55:41.3210,-0.053,-0.54,-0.921,0.57,-1.61,1.94,-0.09,0.5638865232467651,0.46
2022-01-30 18:55:41.3320,-0.028,-0.548,-0.937,0.14,-1.47,2.25,-0.03,0.69,0.51
2022-01-30 18:55:41.3420,-0.02,-0.559,-0.949,0.14,-1.47,2.25,-0.06,0.73,0.52
2022-01-30 18:55:41.3510,-0.021,-0.564,-0.97,0.17,-1.36,2.61,-0.08,0.67,0.48
2022-01-30 18:55:41.3610,-0.033,-0.557,-0.995,0.17,-1.36,2.61,-0.07,0.59,0.4
2022-01-30 18:55:41.3720,-0.049,-0.551,-1.006,0.52,-1.49,2.87,-0.04,0.48,0.33
2022-01-30 18:55:41.3820,-0.075,-0.544,-1.011,0.52,-1.49,2.87,0.01,0.38,0.29
2022-01-30 18:55:41.3920,-0.107,-0.526,-1.009,0.82,-1.58,2.9,0.08,0.28,0.24
2022-01-30 18:55:41.4020,-0.132,-0.502,-1.004,1.12,-1.8,2.87,0.18,0.18,0.16
2022-01-30 18:55:41.4120,-0.148,-0.475,-0.998,1.33,-2.06,2.82,0.27,0.05,0.03
2022-01-30 18:55:41.4220,-0.152,-0.451,-0.991,1.44,-2.34,2.8,0.35,-0.09,-0.13
2022-01-30 18:55:41.4320,-0.148,-0.437,-0.969,1.45,-2.57,2.7,0.38,-0.2,-0.29
2022-01-30 18:55:41.4420,-0.135,-0.423,-0.938,1.27,-2.88,2.16,0.38,-0.2,-0.29
2022-01-30 18:55:41.4530,-0.124,-0.41,-0.9,1.19,-3.0,1.8,0.28,-0.27,-0.53
2022-01-30 18:55:41.4620,-0.112,-0.407,-0.861,1.19,-3.0,1.8,0.16,-0.22,-0.59
2022-01-30 18:55:41.4710,-0.101,-0.407,-0.831,1.03,-3.03,1.18,0.02,-0.16,-0.61
2022-01-30 18:55:41.4820,-0.096,-0.399,-0.81,1.05,-3.11,1.01,-0.11,-0.12,-0.62
2022-01-30 18:55:41.4920,-0.097,-0.391,-0.8,1.05,-3.11,1.01,-0.11,-0.12,-0.62
2022-01-30 18:55:41.5030,-0.1,-0.39,-0.796,1.09,-3.15,0.92,-0.3,-0.06,-0.59
2022-01-30 18:55:41.5120,-0.107,-0.398,-0.794,1.28,-2.96,0.85,-0.34,-0.07,-0.57
2022-01-30 18:55:41.5230,-0.112,-0.415,-0.801,1.34,-2.75,0.92,-0.35,-0.12,-0.55
2022-01-30 18:55:41.5330,-0.112,-0.436,-0.814,1.38,-2.5,1.03,-0.33,-0.19,-0.56
2022-01-30 18:55:41.5420,-0.12,-0.46,-0.825,1.51,-2.26,1.09,-0.28,-0.27,-0.6
2022-01-30 18:55:41.5530,-0.134,-0.479,-0.829,1.51,-2.26,1.09,-0.22,-0.34,-0.67
2022-01-30 18:55:41.5620,-0.148,-0.498,-0.831,1.67,-2.06,1.1,-0.17,-0.42,-0.75
2022-01-30 18:55:41.5720,-0.155,-0.519,-0.836,1.82,-1.86,1.12,-0.16,-0.5,-0.85
2022-01-30 18:55:41.5830,-0.153,-0.541,-0.829,1.85,-1.37,0.99,-0.17,-0.55,-0.97
2022-01-30 18:55:41.5930,-0.141,-0.575,-0.81,1.85,-1.37,0.99,-0.18,-0.56,-1.07
2022-01-30 18:55:41.6030,-0.112,-0.621,-0.801,1.7,-0.96,0.78,-0.21,-0.64,-1.15
2022-01-30 18:55:41.6130,-0.07,-0.672,-0.823,1.39,-0.47,0.8,-0.22,-0.8,-1.21
2022-01-30 18:55:41.6230,-0.036,-0.708,-0.848,1.0,0.03,1.04,-0.18,-1.04,-1.26
2022-01-30 18:55:41.6330,-0.017,-0.722,-0.877,0.59,0.4,1.56,-0.08,-1.36,-1.3
2022-01-30 18:55:41.6430,-0.009,-0.729,-0.904,0.59,0.4,1.56,-0.08,-1.36,-1.3
2022-01-30 18:55:41.6530,0.006,-0.753,-0.897,0.47,0.52,1.7,0.2,-1.82,-1.3
2022-01-30 18:55:41.6620,0.029,-0.789,-0.883,0.24,0.82,1.58,0.36,-1.89,-1.27
2022-01-30 18:55:41.6730,0.051,-0.808,-0.869,-0.04,1.12,1.47,0.51,-1.85,-1.24
2022-01-30 18:55:41.6820,0.078,-0.821,-0.848,-0.32,1.21,1.34,0.6890846490859985,-1.69,-1.21
2022-01-30 18:55:41.6900,0.097,-0.832,-0.821,-0.6,1.31,1.15,0.88,-1.45,-1.18
2022-01-30 18:55:41.7020,0.109,-0.824,-0.785,-0.9,1.13,0.58,1.05,-1.15,-1.12
2022-01-30 18:55:41.7110,0.124,-0.82,-0.744,-1.0295780244469643,1.02,0.36,1.12,-0.91,-1.01
2022-01-30 18:55:41.7230,0.137,-0.815,-0.737,-1.03,1.02,0.36,1.06,-0.78,-0.87
2022-01-30 18:55:41.7340,0.146,-0.82,-0.725,-1.2,0.95,0.3,0.91,-0.68,-0.72
2022-01-30 18:55:41.7440,0.144,-0.828,-0.707,-1.16,0.93,0.19,0.72,-0.58,-0.62
2022-01-30 18:55:41.7540,0.145,-0.816,-0.695,-1.16,0.93,0.19,0.56,-0.48,-0.59
2022-01-30 18:55:41.7630,0.155,-0.784,-0.694,-1.2,0.30873064756393437,0.17,0.4,-0.36,-0.63
2022-01-30 18:55:41.7730,0.165,-0.742,-0.684,-1.28,0.3,0.17,0.29,-0.18,-0.67
2022-01-30 18:55:41.7830,0.174,-0.707,-0.657,-1.33,-0.11,0.0,0.2,0.06,-0.63
2022-01-30 18:55:41.7930,0.187,-0.679,-0.634,-1.38,-0.43,-0.26,0.12,0.32,-0.5
2022-01-30 18:55:41.8030,0.202,-0.665,-0.618,-1.46,-0.68,-0.44,0.07,0.59,-0.28
2022-01-30 18:55:41.8130,0.222,-0.675,-0.616,-1.57,-0.72,-0.56,0.04,0.79,-0.01
2022-01-30 18:55:41.8230,0.24,-0.689,-0.628,-1.72,-0.59,-0.5,0.03,0.92,0.25
2022-01-30 18:55:41.8330,0.251,-0.702,-0.637,-1.83,-0.47,-0.37,0.06,0.99,0.45
2022-01-30 18:55:41.8430,0.255,-0.718,-0.645,-1.88,-0.33,-0.3,0.12,1.02,0.58
2022-01-30 18:55:41.8530,0.249,-0.723,-0.65,-1.85,-0.21,-0.2,0.22,1.0,0.64
2022-01-30 18:55:41.8630,0.241,-0.719,-0.647,-1.77,-0.22,-0.15,0.32,0.97,0.63
2022-01-30 18:55:41.8730,0.232,-0.713,-0.626,-1.67,-0.3,-0.21,0.41,0.96,0.6
2022-01-30 18:55:41.8830,0.222,-0.711,-0.6,-1.56,-0.38,-0.42,0.45,0.96,0.58
2022-01-30 18:55:41.8930,0.205,-0.703,-0.572,-1.42,-0.43,-0.64,0.42,0.97,0.57
2022-01-30 18:55:41.9030,0.185,-0.688,-0.551,-1.0,-0.74,-1.02,0.32,0.99,0.56
2022-01-30 18:55:41.9130,0.166,-0.678,-0.538,-1.0,-0.74,-1.02,0.18,1.02,0.57
2022-01-30 18:55:41.9230,0.144,-0.676,-0.53,-0.79,-0.82,-1.09,0.03,1.08,0.59
2022-01-30 18:55:41.9330,0.118,-0.679,-0.528,-0.24,-0.81,-1.13,-0.11,1.13,0.59
2022-01-30 18:55:41.9440,0.093,-0.67,-0.535,0.023954580724239352,-0.94,-1.05,-0.22,1.18,0.56
2022-01-30 18:55:41.9540,0.071,-0.653,-0.546,0.02,-0.94,-1.05,-0.22,1.18,0.56
2022-01-30 18:55:41.9640,0.048,-0.638,-0.554,0.28,-1.07,-0.97,-0.36,1.22,0.39
2022-01-30 18:55:41.9740,0.031,-0.618,-0.553,0.54,-1.22,-0.92,-0.42,1.24,0.29
2022-01-30 18:55:41.9840,0.023,-0.597,-0.543,0.86,-1.56,-1.14,-0.47,1.25,0.2
2022-01-30 18:55:41.9940,0.022,-0.578,-0.528,0.86,-1.56,-1.14,-0.55,1.28,0.14
2022-01-30 18:55:42.0040,0.032,-0.553,-0.516,0.85,-1.95,-1.45,-0.65,1.28,0.11
2022-01-30 18:55:42.0140,0.047,-0.525,-0.509,0.85,-1.95,-1.45,-0.76,1.26,0.11
2022-01-30 18:55:42.0240,0.066,-0.5,-0.503,0.76,-2.17,-1.54,-0.87,1.21,0.11
2022-01-30 18:55:42.0340,0.081,-0.477,-0.497,0.65,-2.36,-1.67,-0.96,1.12,0.15
2022-01-30 18:55:42.0440,0.09,-0.462,-0.496,0.59,-2.49,-1.75,-1.03,0.98,0.2
2022-01-30 18:55:42.0530,0.091,-0.449,-0.507,0.62,-2.61,-1.72,-1.08,0.79,0.27
2022-01-30 18:55:42.0640,0.085,-0.438,-0.52,0.62,-2.61,-1.72,-1.12,0.58,0.34
2022-01-30 18:55:42.0740,0.071,-0.434,-0.527,0.71,-2.62,-1.69,-1.14,0.39,0.41
2022-01-30 18:55:42.0840,0.049,-0.423,-0.532,0.88,-2.59,-1.7,-1.14,0.39,0.41
2022-01-30 18:55:42.0940,0.032,-0.406,-0.533,1.19,-2.73,-1.82,-1.16,0.07,0.44
2022-01-30 18:55:42.1040,0.024,-0.401,-0.532,1.19,-2.73,-1.82,-1.16,0.07,0.44
2022-01-30 18:55:42.1140,0.028,-0.41,-0.539,1.19,-2.64,-1.9,-1.22,-0.11,0.39
2022-01-30 18:55:42.1230,0.03,-0.424,-0.554,1.11,-2.45,-1.87,-1.32,-0.19,0.37
2022-01-30 18:55:42.1340,0.033,-0.448,-0.572,1.06,-2.18,-1.81,-1.49,-0.26,0.35
2022-01-30 18:55:42.1440,0.043,-0.489,-0.606,0.96,-1.78,-1.69,-1.72,-0.36,0.35
2022-01-30 18:55:42.1540,0.052,-0.542,-0.654,0.8,-1.19,-1.41,-1.99,-0.49,0.35
2022-01-30 18:55:42.1640,0.049,-0.601,-0.713,0.69,-0.51,-1.04,-2.25,-0.64,0.36
2022-01-30 18:55:42.1740,0.02,-0.667,-0.785,0.72,0.28,-0.54,-2.41,-0.77,0.38
2022-01-30 18:55:42.1840,-0.033,-0.715,-0.857,1.03,1.09,0.02,-2.38,-0.86,0.38
2022-01-30 18:55:42.1940,-0.082,-0.727,-0.941,1.48,1.61,0.61,-2.16,-0.93,0.32
2022-01-30 18:55:42.2040,-0.116,-0.725,-1.019,1.81,1.81,1.34,-1.76,-0.96,0.21
2022-01-30 18:55:42.2140,-0.139,-0.724,-1.058,2.01,1.94,1.88,-1.26,-0.94,0.06
2022-01-30 18:55:42.2250,-0.154,-0.719,-1.074,2.13,2.01,2.08,-0.77,-0.9,-0.08
2022-01-30 18:55:42.2340,-0.152,-0.72,-1.061,2.0,2.13,1.84,-0.38,-0.8,-0.2
2022-01-30 18:55:42.2450,-0.134,-0.733,-1.025,2.0,2.13,1.84,-0.38,-0.8,-0.2
2022-01-30 18:55:42.2540,-0.108,-0.733,-0.987,1.75,2.24,1.46,0.08,-0.6,-0.37
2022-01-30 18:55:42.2650,-0.082,-0.717,-0.949,1.45,2.17,1.09,0.19,-0.56,-0.46
2022-01-30 18:55:42.2750,-0.057,-0.693,-0.915,1.18,1.96,0.74,0.25,-0.59,-0.56
2022-01-30 18:55:42.2850,-0.025,-0.677,-0.876,0.53,1.64,0.0,0.26,-0.66,-0.63
2022-01-30 18:55:42.2950,0.013,-0.689,-0.832,0.53,1.64,0.0,0.21,-0.74,-0.67
2022-01-30 18:55:42.3050,0.038,-0.705,-0.798,0.15,1.8,-0.39,0.1,-0.79,-0.69
2022-01-30 18:55:42.3150,0.045,-0.696,-0.761,-0.06,1.87,-0.72,-0.03,-0.75,-0.71
2022-01-30 18:55:42.3250,0.041,-0.682,-0.73,-0.09,1.75,-1.09,-0.16,-0.64,-0.73
2022-01-30 18:55:42.3340,0.042,-0.669,-0.722,-0.08,1.64,-1.34,-0.27,-0.54,-0.79
2022-01-30 18:55:42.3450,0.053,-0.652,-0.744,-0.13,1.52,-1.31,-0.35,-0.49,-0.88
2022-01-30 18:55:42.3550,0.072,-0.642,-0.761,-0.27,1.39,-1.09,-0.4,-0.49,-0.99
2022-01-30 18:55:42.3650,0.089,-0.648,-0.771,-0.45,1.39,-0.99,-0.4,-0.52,-1.05
2022-01-30 18:55:42.3750,0.094,-0.657,-0.783,-0.58,1.52,-0.92,-0.36,-0.56,-1.06
2022-01-30 18:55:42.3850,0.079,-0.651,-0.796,-0.56,1.62,-0.8,-0.25,-0.55,-1.06
2022-01-30 18:55:42.3950,0.058,-0.622,-0.805,-0.15,1.21,-0.62,-0.12,-0.49,-1.05
2022-01-30 18:55:42.4050,0.045,-0.601,-0.815,-0.15,1.21,-0.62,0.02,-0.39,-1.03
2022-01-30 18:55:42.4150,0.043,-0.585,-0.821,-0.06,1.04,-0.55,0.12,-0.34,-1.04
2022-01-30 18:55:42.4250,0.035,-0.568,-0.841,0.12318519249558449,0.74,-0.26,0.17,-0.32,-1.06
2022-01-30 18:55:42.4350,0.018,-0.562,-0.847,0.35,0.67,-0.21,0.16,-0.31,-1.08
2022-01-30 18:55:42.4450,-0.011,-0.554,-0.856,0.35,0.67,-0.21,0.12,-0.34,-1.1
2022-01-30 18:55:42.4550,-0.042,-0.544,-0.866,0.69,0.58,-0.1,0.06,-0.38,-1.13
2022-01-30 18:55:42.4650,-0.062,-0.538,-0.876,0.98,0.48,-0.01,0.06,-0.38,-1.13
2022-01-30 18:55:42.4750,-0.074,-0.541,-0.891,1.27,0.5,0.3,-0.05,-0.5,-1.22
2022-01-30 18:55:42.4860,-0.087,-0.533,-0.924,1.44,0.4,0.61,-0.11,-0.64,-1.31
2022-01-30 18:55:42.4960,-0.108,-0.518,-0.946,1.66,0.27,0.77,-0.11,-0.64,-1.31
2022-01-30 18:55:42.5060,-0.132,-0.502,-0.964,1.89,0.13,0.98,-0.2,-0.87,-1.46
2022-01-30 18:55:42.5150,-0.152,-0.481,-0.999,2.02,-0.09,1.35,-0.23,-1.04,-1.54
2022-01-30 18:55:42.5260,-0.155,-0.45,-1.033,2.02,-0.09,1.35,-0.26,-1.2,-1.65
2022-01-30 18:55:42.5360,-0.143,-0.427,-1.035,1.77,-0.49,1.46,-0.3,-1.3,-1.75
2022-01-30 18:55:42.5460,-0.117,-0.416,-1.01,1.77,-0.49,1.46,-0.31,-1.25,-1.84
2022-01-30 18:55:42.5550,-0.07,-0.408,-0.95,1.41,-0.55,1.05,-0.29,-1.05,-1.88
2022-01-30 18:55:42.5650,-0.011,-0.41,-0.894,0.89,-0.57,0.41,-0.27,-0.81,-1.86
2022-01-30 18:55:42.5750,0.046,-0.422,-0.845,0.32,-0.47,-0.11,-0.28,-0.6,-1.76
2022-01-30 18:55:42.5860,0.091,-0.44,-0.811,-0.54,-0.05,-0.85,-0.32,-0.49,-1.59
2022-01-30 18:55:42.5960,0.124,-0.469,-0.799,-0.54,-0.05,-0.85,-0.39,-0.51,-1.39
2022-01-30 18:55:42.6060,0.144,-0.503,-0.809,-0.81,0.32,-0.92,-0.46,-0.7,-1.21
2022-01-30 18:55:42.6160,0.157,-0.531,-0.839,-0.98,0.68,-0.73,-0.46,-0.7,-1.21
2022-01-30 18:55:42.6260,0.171,-0.553,-0.862,-1.14,0.98,-0.48,-0.5,-1.33,-0.95
2022-01-30 18:55:42.6360,0.187,-0.565,-0.879,-1.38,1.22,-0.31,-0.46,-1.65,-0.87
2022-01-30 18:55:42.6460,0.202,-0.564,-0.885,-1.65,1.33,-0.2,-0.42,-1.9,-0.79
2022-01-30 18:55:42.6550,0.21,-0.557,-0.884,-2.11,1.29,-0.24,-0.41,-2.06,-0.69
2022-01-30 18:55:42.6660,0.211,-0.552,-0.882,-2.11,1.29,-0.24,-0.41,-2.06,-0.69
2022-01-30 18:55:42.6760,0.207,-0.551,-0.884,-2.39,1.33,-0.24,-0.51,-2.1,-0.38
2022-01-30 18:55:42.6860,0.196,-0.546,-0.892,-2.39,1.33,-0.24,-0.55,-1.97,-0.18
2022-01-30 18:55:42.6960,0.187,-0.542,-0.912,-2.44,1.33,-0.15,-0.55,-1.79,0.02
2022-01-30 18:55:42.7050,0.177,-0.539,-0.946,-2.52,1.35,0.1,-0.48,-1.66,0.19
2022-01-30 18:55:42.7150,0.168,-0.538,-0.985,-2.58,1.37,0.46,-0.35,-1.63,0.29
2022-01-30 18:55:42.7250,0.159,-0.539,-1.028,-2.65,1.4,0.86,-0.35,-1.63,0.29
2022-01-30 18:55:42.7350,0.153,-0.541,-1.052,-2.74,1.44,1.26,-0.01,-1.88,0.34
2022-01-30 18:55:42.7450,0.152,-0.546,-1.054,-2.88,1.47,1.41,0.09,-2.06,0.32
2022-01-30 18:55:42.7560,0.155,-0.557,-1.041,-3.08,1.54,1.43,0.11,-2.17,0.3
2022-01-30 18:55:42.7660,0.16,-0.564,-1.018,-3.33,1.64,1.29,0.11,-2.17,0.3
2022-01-30 18:55:42.7750,0.161,-0.568,-0.995,-3.57,1.7,1.09,-0.06,-2.03,0.26
2022-01-30 18:55:42.7850,0.158,-0.572,-0.975,-3.75,1.74,0.91,-0.24,-1.74,0.24
2022-01-30 18:55:42.7970,0.155,-0.58,-0.959,-3.88,1.82,0.75,-0.44,-1.32,0.2
2022-01-30 18:55:42.8060,0.154,-0.594,-0.96,-3.97,1.97,0.65,-0.44,-1.32,0.2
2022-01-30 18:55:42.8170,0.152,-0.617,-0.985,-4.04,2.19,0.75,-0.81,-0.47,0.1
2022-01-30 18:55:42.8260,0.143,-0.642,-1.021,-3.95,2.79,1.38,-0.88,-0.16,0.01
2022-01-30 18:55:42.8370,0.135,-0.646,-1.065,-3.88,2.85,1.81,-0.85,0.04,-0.12
2022-01-30 18:55:42.8470,0.132,-0.644,-1.108,-3.84,2.91,2.11,-0.71,0.17,-0.2
2022-01-30 18:55:42.8570,0.133,-0.646,-1.125,-3.84,2.91,2.11,-0.51,0.27,-0.24
2022-01-30 18:55:42.8670,0.144,-0.643,-1.132,-3.84,2.94,2.21,-0.31,0.37,-0.21
2022-01-30 18:55:42.8770,0.159,-0.658,-1.116,-3.95,2.99,2.18,-0.31,0.49,-0.12
2022-01-30 18:55:42.8870,0.17,-0.679,-1.101,-4.04,3.19,1.97,0.02,0.57,0.01
2022-01-30 18:55:42.8960,0.17,-0.692,-1.101,-3.96,3.45,1.92,0.15,0.6,0.12
2022-01-30 18:55:42.9070,0.153,-0.687,-1.127,-3.96,3.45,1.92,0.24,0.51,0.18
2022-01-30 18:55:42.9170,0.121,-0.66,-1.18,-3.69,3.27,2.31,0.3,0.35,0.2
2022-01-30 18:55:42.9270,0.088,-0.637,-1.207,-3.02,2.72,2.96,0.38,0.25,0.17
2022-01-30 18:55:42.9380,0.066,-0.601,-1.216,-3.02,2.72,2.96,0.52,0.26,0.13
2022-01-30 18:55:42.9470,0.053,-0.537,-1.202,-2.83,2.22,3.0,0.73,0.41,0.13
2022-01-30 18:55:42.9560,0.053,-0.457,-1.168,-2.7,1.45,2.8,1.01,0.68,0.21
2022-01-30 18:55:42.9660,0.068,-0.383,-1.108,-2.69,0.58,2.4,1.01,0.68,0.21
2022-01-30 18:55:42.9770,0.098,-0.321,-1.036,-3.06,-0.92,1.09,1.6,1.25,0.62
2022-01-30 18:55:42.9880,0.125,-0.263,-0.968,-3.06,-0.92,1.09,1.8,1.39,0.9
2022-01-30 18:55:42.9970,0.127,-0.203,-0.914,-3.0,-2.36,0.04,1.89,1.44,1.17
2022-01-30 18:55:43.0070,0.109,-0.148,-0.855,-2.74,-2.98,-0.46,1.88,1.47,1.43
2022-01-30 18:55:43.0180,0.084,-0.113,-0.813,-2.74,-2.98,-0.46,1.79,1.46,1.68
2022-01-30 18:55:43.0280,0.054,-0.09,-0.794,-2.06,-3.71,-0.78,1.64,1.41,1.89
2022-01-30 18:55:43.0380,0.016,-0.067,-0.8,-2.06,-3.71,-0.78,1.48,1.28,2.04
2022-01-30 18:55:43.0470,-0.042,-0.045,-0.835,-1.61,-4.01,-0.59,1.31,1.04,2.16
2022-01-30 18:55:43.0570,-0.125,-0.004,-0.907,-0.98,-4.34,-0.06,1.13,0.69,2.23
2022-01-30 18:55:43.0670,-0.237,0.044,-0.984,-0.1,-4.86,0.77,0.98,0.33,2.26
2022-01-30 18:55:43.0770,-0.349,0.079,-1.026,0.96,-5.34,1.46,0.91,0.09,2.21
2022-01-30 18:55:43.0880,-0.436,0.102,-1.037,1.89,-5.67,1.77,0.88,0.07,2.04
2022-01-30 18:55:43.0980,-0.477,0.105,-1.034,2.5,-5.88,1.85,0.84,0.22,1.75
2022-01-30 18:55:43.1080,-0.477,0.061,-1.039,2.66,-5.79,1.88,0.75,0.51,1.41
2022-01-30 18:55:43.1180,-0.469,-0.005,-1.032,2.56,-4.65,1.86,0.59,0.91,1.11
2022-01-30 18:55:43.1280,-0.474,-0.053,-1.032,2.74,-4.32,1.9,0.4,1.33,0.88
2022-01-30 18:55:43.1390,-0.494,-0.064,-1.042,2.74,-4.32,1.9,0.24,1.72,0.72
2022-01-30 18:55:43.1480,-0.517,-0.052,-1.051,3.08,-4.34,1.96,0.14,2.02,0.62
2022-01-30 18:55:43.1580,-0.531,-0.046,-1.057,3.41,-4.46,2.03,0.12,2.24,0.56
2022-01-30 18:55:43.1680,-0.531,-0.067,-1.053,3.67,-4.43,2.01,0.17,2.32,0.53
2022-01-30 18:55:43.1780,-0.502,-0.11,-1.055,3.74,-4.14,1.97,0.27,2.27,0.5
2022-01-30 18:55:43.1880,-0.449,-0.171,-1.051,3.52,-3.68,1.96,0.39,2.12,0.45
2022-01-30 18:55:43.1980,-0.391,-0.249,-1.042,3.12,-3.03,1.87,0.48,1.87,0.37
2022-01-30 18:55:43.2080,-0.338,-0.323,-1.057,2.69,-2.28,1.85,0.53,1.52,0.27
2022-01-30 18:55:43.2180,-0.309,-0.369,-1.083,2.22,-1.4,2.35,0.57,1.13,0.16
2022-01-30 18:55:43.2280,-0.29,-0.387,-1.101,2.1,-1.32,2.52,0.57,1.13,0.16
2022-01-30 18:55:43.2460,-0.274,-0.396,-1.114,2.01,-1.29,2.68,0.61,0.61,-0.05
2022-01-30 18:55:43.2460,-0.261,-0.4,-1.127,2.01,-1.29,2.68,0.57,0.57,-0.16
2022-01-30 18:55:43.2570,-0.244,-0.409,-1.124,1.94,-1.31,2.79,0.49,0.7,-0.28
2022-01-30 18:55:43.2680,-0.216,-0.438,-1.111,1.8,-1.18,2.73,0.37,0.96,-0.38
2022-01-30 18:55:43.2790,-0.186,-0.464,-1.096,1.4775811627507212,-0.71,2.44,0.24,1.34,-0.43
2022-01-30 18:55:43.2890,-0.161,-0.487,-1.083,1.47,-0.71,2.44,0.13,1.74,-0.41
2022-01-30 18:55:43.2980,-0.14,-0.525,-1.082,1.41,-0.05,2.41,0.11,2.09,-0.28
2022-01-30 18:55:43.3090,-0.123,-0.561,-1.089,1.41,-0.05,2.41,0.23,2.29,-0.11
2022-01-30 18:55:43.3190,-0.112,-0.562,-1.099,1.5644174315035344,0.03,2.66,0.48,2.26,0.04
2022-01-30 18:55:43.3290,-0.114,-0.539,-1.11,1.78,-0.27,2.74,0.79,2.02,0.13
2022-01-30 18:55:43.3390,-0.122,-0.527,-1.089,1.78,-0.27,2.74,1.05,1.68,0.18
2022-01-30 18:55:43.3480,-0.115,-0.546,-1.034,1.93,-0.36,2.47,1.24,1.36,0.22
2022-01-30 18:55:43.3590,-0.099,-0.572,-0.944,1.92,-0.21,1.88,1.39,1.15,0.26
2022-01-30 18:55:43.3690,-0.077,-0.572,-0.857,1.81,-0.14,1.04,1.49,1.03,0.29
2022-01-30 18:55:43.3790,-0.059,-0.559,-0.781,1.57,-0.58,-0.28,1.51,0.96,0.33
2022-01-30 18:55:43.3890,-0.051,-0.546,-0.718,1.57,-0.58,-0.28,1.45,0.92,0.38
2022-01-30 18:55:43.3990,-0.05,-0.535,-0.671,1.56,-0.82,-0.73,1.34,0.85,0.45
2022-01-30 18:55:43.4090,-0.06,-0.534,-0.643,1.63,-1.0,-1.04,1.34,0.85,0.45
2022-01-30 18:55:43.4200,-0.063,-0.536,-0.622,1.75,-1.08,-1.19,1.02,0.55,0.52
2022-01-30 18:55:43.4290,-0.05,-0.551,-0.612,1.55,-0.97,-1.28,0.82,0.33,0.47
2022-01-30 18:55:43.4390,-0.03,-0.574,-0.615,1.55,-0.97,-1.28,0.61,0.14,0.38
2022-01-30 18:55:43.4490,-0.017,-0.581,-0.613,1.25,-0.86,-1.21,0.39,0.01,0.25
2022-01-30 18:55:43.4590,-0.016,-0.571,-0.617,1.27,-1.01,-1.17,0.39,-0.03,0.14
2022-01-30 18:55:43.4690,-0.02,-0.554,-0.615,1.27,-1.01,-1.17,0.03,0.03,0.05
2022-01-30 18:55:43.4790,-0.019,-0.541,-0.614,1.2738282090425492,-1.28,-1.2,-0.11,0.12,0.01
2022-01-30 18:55:43.4890,-0.012,-0.531,-0.617,1.27,-1.28,-1.2,-0.22,0.22,-0.0
2022-01-30 18:55:43.4980,-0.005,-0.528,-0.617,1.2,-1.34,-1.19,-0.3,0.3,0.03
2022-01-30 18:55:43.5090,-0.003,-0.531,-0.619,1.17,-1.24,-1.19,-0.33,0.38,0.15
2022-01-30 18:55:43.5190,-0.002,-0.544,-0.627,1.17,-1.24,-1.19,-0.32,0.44,0.32
2022-01-30 18:55:43.5290,-0.0,-0.563,-0.647,1.14,-0.89,-0.87,-0.25,0.42,0.5
2022-01-30 18:55:43.5400,0.006,-0.574,-0.67,1.14,-0.89,-0.87,-0.09,0.32,0.63
2022-01-30 18:55:43.5490,0.014,-0.582,-0.69,1.05,-0.79,-0.65,0.13,0.15,0.71
2022-01-30 18:55:43.5590,0.017,-0.581,-0.694,0.88,-0.82,-0.49,0.13,0.15,0.71
2022-01-30 18:55:43.5700,0.018,-0.579,-0.684,0.88,-0.82,-0.49,0.49,-0.25,0.68
2022-01-30 18:55:43.5790,0.022,-0.588,-0.659,0.68,-0.76,-0.87,0.55,-0.39,0.65
2022-01-30 18:55:43.5900,0.029,-0.605,-0.627,0.68,-0.76,-0.87,0.54,-0.47,0.61
2022-01-30 18:55:43.5990,0.036,-0.611,-0.605,0.53,-0.66,-1.14,0.47,-0.51,0.57
2022-01-30 18:55:43.6100,0.039,-0.614,-0.598,0.39,-0.67,-1.26,0.37,-0.51,0.53
2022-01-30 18:55:43.6200,0.035,-0.62,-0.594,0.32,-0.65,-1.29,0.27,-0.44,0.49
2022-01-30 18:55:43.6300,0.03,-0.622,-0.598,0.31,-0.63,-1.3,0.19,-0.36,0.45
2022-01-30 18:55:43.6390,0.025,-0.626,-0.612,0.29,-0.62,-1.21,0.13,-0.29,0.38
2022-01-30 18:55:43.6490,0.02,-0.627,-0.619,0.3,-0.6,-1.06,0.07,-0.2,0.3
2022-01-30 18:55:43.6590,0.017,-0.627,-0.62,0.31,-0.6,-1.04,0.0,-0.08,0.21
2022-01-30 18:55:43.6700,0.014,-0.631,-0.623,0.32,-0.59,-1.01,-0.06,0.06,0.14
2022-01-30 18:55:43.6800,0.011,-0.639,-0.623,0.35,-0.53,-1.01,-0.11,0.17,0.11
2022-01-30 18:55:43.6890,0.01,-0.646,-0.636,0.37,-0.45,-0.98,-0.13,0.25,0.11
2022-01-30 18:55:43.6990,0.011,-0.658,-0.646,0.39,-0.36,-0.85,-0.1,0.27,0.16
2022-01-30 18:55:43.7100,0.016,-0.678,-0.655,0.37,-0.2,-0.78,-0.02,0.23,0.25
2022-01-30 18:55:43.7200,0.021,-0.705,-0.663,0.31,0.03,-0.68,0.08,0.16,0.37
2022-01-30 18:55:43.7300,0.022,-0.722,-0.657,0.26,0.26,-0.63,0.18,0.11,0.49
2022-01-30 18:55:43.7400,0.019,-0.728,-0.645,0.23,0.37,-0.72,0.25,0.06,0.6
2022-01-30 18:55:43.7490,0.014,-0.728,-0.636,0.24,0.39,-0.82,0.28,-0.02,0.65
2022-01-30 18:55:43.7590,0.013,-0.732,-0.635,0.24,0.35,-0.86,0.25,-0.13,0.66
2022-01-30 18:55:43.7700,0.017,-0.758,-0.638,0.16,0.46,-0.83,0.16,-0.23,0.63
2022-01-30 18:55:43.7800,0.021,-0.785,-0.645,0.06,0.73,-0.8,0.04,-0.33,0.58
2022-01-30 18:55:43.7900,0.025,-0.812,-0.665,-0.04,0.98,-0.68,-0.09,-0.4,0.51
2022-01-30 18:55:43.8000,0.026,-0.844,-0.69,-0.13,1.27,-0.45,-0.19,-0.45,0.46
2022-01-30 18:55:43.8100,0.022,-0.864,-0.714,-0.19,1.72,-0.03,-0.22,-0.46,0.42
2022-01-30 18:55:43.8210,0.012,-0.865,-0.73,-0.19,1.72,-0.03,-0.17,-0.43,0.39
2022-01-30 18:55:43.8300,-0.003,-0.853,-0.737,-0.13,1.69,0.08,-0.03,-0.36,0.36
2022-01-30 18:55:43.8400,-0.02,-0.834,-0.739,0.1,1.35,0.12,0.15,-0.25,0.34
2022-01-30 18:55:43.8500,-0.031,-0.822,-0.728,0.1,1.35,0.12,0.15,-0.25,0.34
2022-01-30 18:55:43.8600,-0.031,-0.822,-0.705,0.15,1.25,-0.01,0.55,0.06,0.31
2022-01-30 18:55:43.8710,-0.012,-0.835,-0.679,-0.21,1.39,-0.42,0.68,0.16,0.3
2022-01-30 18:55:43.8800,0.021,-0.86,-0.657,-0.21,1.39,-0.42,0.73,0.17,0.26
2022-01-30 18:55:43.8910,0.046,-0.877,-0.629,-0.53,1.58,-0.6,0.72,0.11,0.2
2022-01-30 18:55:43.9000,0.064,-0.884,-0.604,-0.74,1.65,-0.84,0.66,-0.01,0.13
2022-01-30 18:55:43.9100,0.078,-0.892,-0.581,-1.05,1.7,-1.21,0.6,-0.12,0.07
2022-01-30 18:55:43.9210,0.086,-0.891,-0.552,-1.12,1.59,-1.45,0.57,-0.19,0.02
2022-01-30 18:55:43.9310,0.089,-0.875,-0.528,-1.12,1.59,-1.45,0.57,-0.19,0.02
2022-01-30 18:55:43.9410,0.087,-0.857,-0.507,-1.14,1.37,-1.64,0.58,-0.21,-0.03
2022-01-30 18:55:43.9500,0.084,-0.844,-0.49,-1.12,1.17,-1.78,0.6,-0.18,-0.02
2022-01-30 18:55:43.9610,0.084,-0.835,-0.477,-1.12,1.03,-1.89,0.61,-0.17,-0.01
2022-01-30 18:55:43.9710,0.083,-0.824,-0.465,-1.13,0.89,-1.97,0.6,-0.18,-0.04
2022-01-30 18:55:43.9800,0.085,-0.818,-0.451,-1.14,0.76,-2.05,0.56,-0.18,-0.1
2022-01-30 18:55:43.9910,0.086,-0.815,-0.435,-1.16,0.69,-2.16,0.5,-0.18,-0.18
2022-01-30 18:55:44.0000,0.089,-0.809,-0.425,-1.18,0.62,-2.26,0.5,-0.18,-0.18
2022-01-30 18:55:44.0100,0.093,-0.796,-0.416,-1.19,0.5,-2.32,0.33,-0.16,-0.37
2022-01-30 18:55:44.0220,0.099,-0.781,-0.405,-1.27,0.2,-2.49,0.21,-0.11,-0.42
2022-01-30 18:55:44.0310,0.106,-0.769,-0.397,-1.27,0.2,-2.49,0.1,-0.05,-0.45
2022-01-30 18:55:44.0410,0.109,-0.756,-0.395,-1.29,0.07,-2.53,-0.02,0.02,-0.45
2022-01-30 18:55:44.0510,0.111,-0.742,-0.398,-1.28,-0.07,-2.53,-0.13,0.09,-0.42
2022-01-30 18:55:44.0610,0.109,-0.734,-0.398,-1.26,-0.17,-2.52,-0.22,0.18,-0.35
2022-01-30 18:55:44.0710,0.099,-0.729,-0.395,-1.17,-0.21,-2.56,-0.3,0.28,-0.29
2022-01-30 18:55:44.0810,0.084,-0.717,-0.392,-1.01,-0.27,-2.6,-0.35,0.41,-0.24
2022-01-30 18:55:44.0900,0.069,-0.702,-0.379,-0.62,-0.48,-2.88,-0.38,0.56,-0.23
2022-01-30 18:55:44.1010,0.055,-0.692,-0.359,-0.62,-0.48,-2.88,-0.4,0.71,-0.25
2022-01-30 18:55:44.1110,0.04,-0.678,-0.339,-0.41,-0.56,-3.11,-0.41,0.85,-0.29
2022-01-30 18:55:44.1220,0.023,-0.654,-0.315,-0.18,-0.69,-3.35,-0.43,0.94,-0.34
2022-01-30 18:55:44.1310,0.007,-0.62,-0.296,0.07,-0.94,-3.61,-0.47,0.98,-0.39
2022-01-30 18:55:44.1410,-0.013,-0.583,-0.288,0.34,-1.26,-3.8,-0.54,0.92,-0.42
2022-01-30 18:55:44.1510,-0.033,-0.544,-0.298,0.62,-1.59,-3.85,-0.67,0.75,-0.44
2022-01-30 18:55:44.1610,-0.051,-0.505,-0.322,1.12,-2.24,-3.55,-0.84,0.49,-0.45
2022-01-30 18:55:44.1720,-0.065,-0.473,-0.344,1.3,-2.43,-3.46,-1.02,0.22,-0.47
2022-01-30 18:55:44.1820,-0.078,-0.448,-0.356,1.3,-2.43,-3.46,-1.2,-0.03,-0.51
Time,-0.093,-0.403,-0.39,1.3,-2.43,-3.46,-1.42,-0.28,-0.61
2022-01-30 18:55:44.1970,-0.118,-0.35,-0.426,1.66,-3.04,-3.09,-1.69,-0.48,-0.75
2022-01-30 18:55:44.2070,-0.152,-0.313,-0.452,1.96,-3.39,-2.9,-2.01,-0.62,-0.87
2022-01-30 18:55:44.2170,-0.187,-0.301,-0.488,2.32,-3.5,-2.78,-2.34,-0.67,-0.96
2022-01-30 18:55:44.2270,-0.204,-0.307,-0.52,2.63,-3.35,-2.56,-2.6,-0.6,-1.05
2022-01-30 18:55:44.2370,-0.202,-0.302,-0.547,2.74,-3.1,-2.47,-2.75,-0.48,-1.14
2022-01-30 18:55:44.2470,-0.194,-0.283,-0.616,2.71,-2.98,-2.26,-2.8,-0.45,-1.23
2022-01-30 18:55:44.2570,-0.183,-0.264,-0.715,2.66,-2.96,-1.6,-2.73,-0.57,-1.29
2022-01-30 18:55:44.2680,-0.169,-0.259,-0.804,2.57,-2.86,-0.76,-2.58,-0.73,-1.31
2022-01-30 18:55:44.2780,-0.155,-0.26,-0.866,2.44,-2.65,-0.15,-2.49,-0.84,-1.33
2022-01-30 18:55:44.2870,-0.135,-0.272,-0.915,2.28,-2.41,0.27,-2.51,-0.84,-1.36
2022-01-30 18:55:44.2980,-0.124,-0.312,-0.966,2.09,-1.96,0.59,-2.62,-0.78,-1.37
2022-01-30 18:55:44.3080,-0.124,-0.347,-1.065,2.02,-1.28,1.12,-2.72,-0.74,-1.39
2022-01-30 18:55:44.3170,-0.13,-0.355,-1.155,2.06,-0.81,2.01,-2.72,-0.74,-1.4003987312316895
2022-01-30 18:55:44.3280,-0.122,-0.36,-1.248,2.06,-0.51,2.71,-2.64,-0.78,-1.36
2022-01-30 18:55:44.3370,-0.103,-0.376,-1.347,1.93,-0.18,3.59,-2.47,-0.93,-1.24
2022-01-30 18:55:44.3480,-0.078,-0.404,-1.419,1.66,0.26,4.39,-2.2,-1.13,-1.02
2022-01-30 18:55:44.3580,-0.055,-0.421,-1.469,1.35,0.74,4.9,-1.9,-1.34,-0.81
2022-01-30 18:55:44.3680,-0.042,-0.409,-1.488,1.04,0.97,5.25,-1.63,-1.44,-0.63
2022-01-30 18:55:44.3780,-0.045,-0.408,-1.458,0.86,0.99,5.2,-1.41,-1.37,-0.49
2022-01-30 18:55:44.3880,-0.063,-0.423,-1.411,0.83,1.22,4.74,-1.23,-1.22,-0.39
2022-01-30 18:55:44.3980,-0.091,-0.416,-1.38,0.96,1.42,4.28,-1.08,-1.07,-0.33
2022-01-30 18:55:44.4080,-0.099,-0.41,-1.352,1.11,1.4,4.0,-0.93,-0.98,-0.29
2022-01-30 18:55:44.4180,-0.079,-0.426,-1.32,0.99,1.53,3.66,-0.77,-1.01,-0.25
2022-01-30 18:55:44.4280,-0.053,-0.447,-1.287,0.65,1.79,3.33,-0.64,-1.12,-0.22
2022-01-30 18:55:44.4380,-0.038,-0.466,-1.251,0.31,2.06,2.98,-0.55,-1.33,-0.2
2022-01-30 18:55:44.4480,-0.036,-0.483,-1.227,0.1,2.28,2.65,-0.55,-1.58,-0.18
2022-01-30 18:55:44.4580,-0.046,-0.494,-1.204,-0.04,2.5,2.42,-0.59,-1.83,-0.21
2022-01-30 18:55:44.4680,-0.063,-0.498,-1.187,-0.07,2.62,2.2,-0.65,-2.05,-0.29
2022-01-30 18:55:44.4780,-0.079,-0.499,-1.175,-0.1,2.71,2.06,-0.72,-2.21,-0.41
2022-01-30 18:55:44.4880,-0.097,-0.498,-1.161,-0.13,2.78,1.94,-0.77,-2.28,-0.57
2022-01-30 18:55:44.4980,-0.108,-0.496,-1.145,-0.19,2.83,1.8,-0.81,-2.28,-0.75
2022-01-30 18:55:44.5080,-0.115,-0.492,-1.14,-0.29,2.88,1.68,-0.86,-2.25,-0.92
2022-01-30 18:55:44.5190,-0.117,-0.488,-1.148,-0.44,2.91,1.69,-0.91,-2.19,-1.07
2022-01-30 18:55:44.5280,-0.116,-0.488,-1.165,-0.62,2.96,1.84,-0.94,-2.09,-1.16
2022-01-30 18:55:44.5380,-0.109,-0.487,-1.174,-0.82,3.01,2.01,-0.91,-1.94,-1.2
2022-01-30 18:55:44.5480,-0.1,-0.488,-1.189,-1.06,3.08,2.13,-0.82,-1.75,-1.19
2022-01-30 18:55:44.5580,-0.081,-0.483,-1.2,-1.32,3.12,2.31,-0.68,-1.54,-1.17
2022-01-30 18:55:44.5680,-0.057,-0.501,-1.205,-1.66,3.14,2.39,-0.68,-1.54,-1.17
2022-01-30 18:55:44.5780,-0.045,-0.577,-1.217,-1.99,3.54,2.51,-0.38,-1.13,-0.87
2022-01-30 18:55:44.5880,-0.071,-0.664,-1.225,-2.08,4.45,2.61,-0.23,-0.92,-0.58
2022-01-30 18:55:44.5980,-0.13,-0.687,-1.257,-1.75,5.12,2.79,-0.06,-0.8,-0.32
2022-01-30 18:55:44.6080,-0.195,-0.664,-1.311,-1.21,5.11,3.19,0.14,-0.81,-0.16
2022-01-30 18:55:44.6180,-0.269,-0.642,-1.382,-0.61,4.83,3.85,0.38,-0.91,-0.14
2022-01-30 18:55:44.6280,-0.327,-0.616,-1.42,0.02,4.59,4.5,0.64,-0.96,-0.26
2022-01-30 18:55:44.6380,-0.342,-0.585,-1.422,0.37,4.21,4.77,0.85,-0.91,-0.5
2022-01-30 18:55:44.6480,-0.306,-0.583,-1.395,0.25,3.91,4.72,0.98,-0.72,-0.78
2022-01-30 18:55:44.6580,-0.235,-0.593,-1.344,-0.31,3.84,4.39,0.99,-0.38,-0.99
2022-01-30 18:55:44.6690,-0.16,-0.594,-1.28,-1.05,3.82,3.86,0.93,0.08,-1.11
2022-01-30 18:55:44.6790,-0.086,-0.576,-1.221,-1.76,3.64,3.24,0.86,0.57,-1.13
2022-01-30 18:55:44.6890,-0.02,-0.54,-1.189,-2.37,3.29,2.74,0.82,0.99,-1.06
2022-01-30 18:55:44.6990,0.037,-0.492,-1.187,-2.88,2.78,2.53,0.85,1.23,-0.92
2022-01-30 18:55:44.7090,0.077,-0.448,-1.217,-3.26,2.19,2.61,0.94,1.2,-0.7
2022-01-30 18:55:44.7190,0.088,-0.416,-1.262,-3.42,1.71,2.99,1.1,0.94,-0.4
2022-01-30 18:55:44.7290,0.066,-0.37,-1.312,-3.33,1.27,3.45,1.34,0.52,-0.07
2022-01-30 18:55:44.7390,0.012,-0.301,-1.342,-2.93,0.6,3.94,1.63,0.09,0.27
2022-01-30 18:55:44.7490,-0.057,-0.217,-1.344,-2.33,-0.28,4.15,1.92,-0.28,0.56
2022-01-30 18:55:44.7590,-0.13,-0.128,-1.339,-1.69,-1.31,4.2,2.14,-0.52,0.8
2022-01-30 18:55:44.7690,-0.2,-0.064,-1.32,-1.04,-2.28,4.033932682871819,2.32,-0.59,0.98
2022-01-30 18:55:44.7820,-0.257,-0.019,-1.282,-0.48,-3.0,4.03,2.48,-0.49,1.08
2022-01-30 18:55:44.7930,-0.29,0.015,-1.236,-0.07,-3.6,3.72,2.63,-0.29,1.09
2022-01-30 18:55:44.8030,-0.296,0.025,-1.184,0.08,-4.05,3.35,2.74,-0.07,1.05
2022-01-30 18:55:44.8120,-0.285,0.007,-1.14,0.02,-4.25,2.95,2.82,0.04,1.04
2022-01-30 18:55:44.8230,-0.268,-0.025,-1.107,-0.4,-4.13,2.49,2.89,-0.01,1.08
2022-01-30 18:55:44.8330,-0.248,-0.041,-1.07,-0.626508691906929,-4.24,2.27,2.95,-0.15,1.17
2022-01-30 18:55:44.8430,-0.244,-0.044,-1.034,-0.67,-4.43,2.07,3.0,-0.35,1.29
2022-01-30 18:55:44.8530,-0.262,-0.043,-1.001,-0.55,-4.66,1.95,3.04,-0.57,1.42
2022-01-30 18:55:44.8620,-0.295,-0.029,-0.976,-0.55,-4.66,1.95,3.09,-0.77,1.52
2022-01-30 18:55:44.8720,-0.332,-0.002,-0.945,-0.13,-5.49,1.75,3.09,-0.92,1.55
2022-01-30 18:55:44.8820,-0.366,0.021,-0.911,0.0,-5.85,1.63,3.03,-1.0,1.48
2022-01-30 18:55:44.8920,-0.386,0.034,-0.877,0.0,-5.85,1.63,3.03,-1.0,1.48
2022-01-30 18:55:44.9020,-0.39,0.027,-0.835,0.0,-6.07,1.47,2.7,-0.93,1.13
2022-01-30 18:55:44.9120,-0.379,0.003,-0.785,-0.15,-6.07,1.2,2.46,-0.75,0.91
2022-01-30 18:55:44.9220,-0.363,-0.032,-0.746,-0.62,-5.68,0.72,2.18,-0.5,0.73
2022-01-30 18:55:44.9320,-0.346,-0.062,-0.715,-0.62,-5.68,0.72,1.91,-0.22,0.6
2022-01-30 18:55:44.9420,-0.329,-0.088,-0.692,-1.03,-5.35,0.47,1.67,0.08,0.51
2022-01-30 18:55:44.9520,-0.317,-0.108,-0.679,-1.13,-5.26,0.43,1.49,0.37,0.47
2022-01-30 18:55:44.9740,-0.309,-0.115,-0.664,-1.18,-5.31,0.32,1.35,0.63,0.45
2022-01-30 18:55:44.9740,-0.305,-0.113,-0.649,-1.18,-5.31,0.32,1.25,0.85,0.46
2022-01-30 18:55:44.9820,-0.299,-0.125,-0.634,-1.2,-5.35,0.23,1.17,1.05,0.49
2022-01-30 18:55:44.9920,-0.285,-0.15,-0.62,-1.24,-5.23,0.1,1.09,1.21,0.49
2022-01-30 18:55:45.0020,-0.261,-0.188,-0.62,-1.38,-4.97,0.03,0.97,1.33,0.45
2022-01-30 18:55:45.0120,-0.236,-0.239,-0.625,-1.59,-4.59,0.08,0.83,1.42,0.37
2022-01-30 18:55:45.0220,-0.224,-0.291,-0.632,-1.72,-4.11,0.12,0.68,1.47,0.25
2022-01-30 18:55:45.0320,-0.216,-0.325,-0.65,-1.74,-3.66,0.2,0.53,1.49,0.11
Time,-0.215,-0.336,-0.67,-1.58,-3.38,0.54,0.37,1.51,-0.04
2022-01-30 18:55:45.0520,-0.23,-0.348,-0.693,-1.58,-3.38,0.54,0.37,1.51,-0.04
2022-01-30 18:55:45.0620,-0.258,-0.351,-0.725,-1.27,-3.31,0.76,0.16,1.55,-0.3
2022-01-30 18:55:45.0720,-0.286,-0.348,-0.758,-0.5,-3.38,1.34,0.21,1.51,-0.4
2022-01-30 18:55:45.0830,-0.306,-0.346,-0.798,-0.2,-3.44,1.72,0.38,1.41,-0.46
2022-01-30 18:55:45.0940,-0.312,-0.342,-0.828,-0.14,-3.54,1.89,0.59,1.36,-0.55
2022-01-30 18:55:45.1040,-0.288,-0.349,-0.827,-0.14,-3.54,1.89,0.75,1.4,-0.64
2022-01-30 18:55:45.1140,-0.251,-0.4,-0.807,-0.32,-2.8254032546281818,1.558476514220238,0.85,1.55,-0.71
2022-01-30 18:55:45.1240,-0.211,-0.471,-0.769,-0.77,-2.27,1.18,0.88,1.78,-0.77
2022-01-30 18:55:45.1330,-0.174,-0.518,-0.735,-0.89,-1.99,0.88,0.86,2.01,-0.82
2022-01-30 18:55:45.1440,-0.157,-0.542,-0.701,-0.89,-1.99,0.88,0.83,2.2,-0.82
2022-01-30 18:55:45.1540,-0.166,-0.547,-0.672,-0.76,-1.88,0.54,0.78,2.31,-0.76
2022-01-30 18:55:45.1640,-0.189,-0.533,-0.656,-0.41,-1.98,0.31,0.71,2.35,-0.68
2022-01-30 18:55:45.1740,-0.219,-0.518,-0.645,0.04,-2.2,0.19,0.62,2.33,-0.6
2022-01-30 18:55:45.1830,-0.25,-0.512,-0.635,0.55,-2.37,0.08,0.54,2.23,-0.54
2022-01-30 18:55:45.1930,-0.256,-0.531,-0.637,1.07,-2.14,0.06,0.49,2.04,-0.5
2022-01-30 18:55:45.2040,-0.233,-0.567,-0.637,1.07,-2.14,0.06,0.45,1.8,-0.52
2022-01-30 18:55:45.2140,-0.183,-0.6,-0.637,0.89,-1.83,0.05,0.41,1.53,-0.56
2022-01-30 18:55:45.2240,-0.132,-0.633,-0.636,0.48,-1.55,0.08,0.33,1.28,-0.59
2022-01-30 18:55:45.2340,-0.107,-0.653,-0.63,0.19,-1.26,0.05,0.17,1.13,-0.59
2022-01-30 18:55:45.2440,-0.119,-0.65,-0.617,0.53,-1.23,-0.22,-0.03,1.14,-0.53
2022-01-30 18:55:45.2540,-0.154,-0.647,-0.597,0.53,-1.23,-0.22,-0.25,1.25,-0.44
2022-01-30 18:55:45.2640,-0.182,-0.634,-0.617,0.98,-1.25,-0.32,-0.44,1.39,-0.36
2022-01-30 18:55:45.2740,-0.202,-0.603,-0.641,1.62,-1.7,0.03,-0.58,1.55,-0.31
2022-01-30 18:55:45.2850,-0.209,-0.579,-0.654,1.62,-1.7,0.03,-0.58,1.55,-0.31
2022-01-30 18:55:45.2950,-0.196,-0.577,-0.672,1.65,-1.74,0.25,-0.62,1.67,-0.27
2022-01-30 18:55:45.3050,-0.16,-0.587,-0.689,1.65,-1.74,0.25,-0.51,1.66,-0.16
2022-01-30 18:55:45.3150,-0.108,-0.615,-0.683,0.95,-1.18,0.15,-0.42,1.57,-0.03
2022-01-30 18:55:45.3240,-0.073,-0.655,-0.664,0.79,-0.82,-0.05,-0.37,1.47,0.17
2022-01-30 18:55:45.3350,-0.067,-0.673,-0.65,0.79,-0.82,-0.05,-0.36,1.39,0.4
2022-01-30 18:55:45.3450,-0.082,-0.666,-0.631,1.12,-0.79,-0.45,-0.39,1.37,0.61
2022-01-30 18:55:45.3550,-0.102,-0.665,-0.614,1.12,-0.79,-0.45,-0.42,1.36,0.78
2022-01-30 18:55:45.3640,-0.111,-0.672,-0.606,1.32,-0.72,-0.6,-0.42,1.36,0.78
2022-01-30 18:55:45.3750,-0.116,-0.674,-0.614,1.39,-0.64,-0.66,-0.4,1.22,0.97
2022-01-30 18:55:45.3850,-0.116,-0.674,-0.629,1.45,-0.61,-0.57,-0.34,1.0,0.99
2022-01-30 18:55:45.3950,-0.11,-0.681,-0.649,1.32,-0.44,-0.23,-0.27,0.67,1.01
2022-01-30 18:55:45.4050,-0.109,-0.704,-0.667,1.32,-0.44,-0.23,-0.23,0.35,1.04
2022-01-30 18:55:45.4150,-0.109,-0.727,-0.653,1.27,-0.18,-0.17,-0.22,0.13,1.09
2022-01-30 18:55:45.4250,-0.119,-0.743,-0.644,1.27,0.13,-0.38,-0.21,-0.03,1.11
2022-01-30 18:55:45.4360,-0.135,-0.729,-0.656,1.27,0.13,-0.38,-0.21,-0.12,1.05
2022-01-30 18:55:45.4450,-0.154,-0.693,-0.663,1.36,-0.1,-0.28,-0.22,-0.14,0.92
2022-01-30 18:55:45.4550,-0.17,-0.66,-0.663,1.47,-0.45,-0.25,-0.25,-0.06,0.73
2022-01-30 18:55:45.4650,-0.177,-0.636,-0.648,1.55,-0.72,-0.32,-0.25,0.12,0.51
2022-01-30 18:55:45.4750,-0.17,-0.616,-0.628,1.54,-0.91,-0.52,-0.33,0.37,0.31
2022-01-30 18:55:45.4850,-0.152,-0.608,-0.614,1.43,-1.05,-0.74,-0.4,0.64,0.15
2022-01-30 18:55:45.4950,-0.136,-0.605,-0.605,1.28,-1.06,-0.87,-0.46,0.92,0.05
2022-01-30 18:55:45.5050,-0.127,-0.592,-0.595,1.21,-1.08,-1.01,-0.49,1.18,-0.01
2022-01-30 18:55:45.5150,-0.127,-0.568,-0.6,1.37,-1.42,-1.1,-0.51,1.42,-0.04
2022-01-30 18:55:45.5250,-0.129,-0.553,-0.589,1.37,-1.42,-1.1,-0.48,1.66,-0.06
2022-01-30 18:55:45.5350,-0.125,-0.551,-0.58,1.48,-1.47,-1.27,-0.44,1.85,-0.05
2022-01-30 18:55:45.5460,-0.12,-0.557,-0.578,1.65,-1.28,-1.39,-0.44,1.85,-0.05
2022-01-30 18:55:45.5550,-0.113,-0.579,-0.581,1.65,-1.28,-1.39,-0.42,1.98,0.03
2022-01-30 18:55:45.5650,-0.107,-0.607,-0.596,1.72,-1.0,-1.31,-0.46,1.92,0.08
2022-01-30 18:55:45.5750,-0.101,-0.643,-0.594,1.79,-0.68,-1.23,-0.51,1.82,0.15
2022-01-30 18:55:45.5850,-0.097,-0.686,-0.588,1.85,-0.25,-1.31,-0.56,1.69,0.22
2022-01-30 18:55:45.5950,-0.093,-0.727,-0.585,1.92,0.2,-1.38,-0.61,1.52,0.29
2022-01-30 18:55:45.6050,-0.086,-0.768,-0.59,1.96,0.65,-1.41,-0.63,1.3,0.36
2022-01-30 18:55:45.6150,-0.084,-0.805,-0.605,1.96,1.08,-1.34,-0.65,0.99,0.44
2022-01-30 18:55:45.6250,-0.094,-0.838,-0.615,2.181690153926611,1.82,-1.18,-0.63,0.64,0.51
2022-01-30 18:55:45.6360,-0.116,-0.865,-0.627,2.18,1.82,-1.18,-0.63,0.26,0.56
2022-01-30 18:55:45.6450,-0.14,-0.879,-0.64,2.4,2.09,-1.08,-0.49,-0.12,0.55
2022-01-30 18:55:45.6550,-0.154,-0.885,-0.644,2.56,2.2,-1.02,-0.42,-0.45,0.47
2022-01-30 18:55:45.6650,-0.155,-0.893,-0.639,2.58,2.29,-1.04,-0.39,-0.71,0.32
2022-01-30 18:55:45.6760,-0.147,-0.897,-0.628,2.47,2.39,-1.16,-0.44,-0.89,0.12
2022-01-30 18:55:45.6850,-0.127,-0.903,-0.615,2.29,2.46,-1.31,-0.44,-0.89,0.12
2022-01-30 18:55:45.6960,-0.097,-0.92,-0.589,1.99,2.6,-1.52,-0.7,-0.83,-0.28
2022-01-30 18:55:45.7060,-0.065,-0.935,-0.561,1.63,2.84,-1.87,-0.87,-0.63,-0.42
2022-01-30 18:55:45.7150,-0.038,-0.939,-0.549,1.31,3.0,-2.14,-1.03,-0.35,-0.49
2022-01-30 18:55:45.7260,-0.026,-0.944,-0.551,1.06,3.25,-2.27,-1.18,-0.05,-0.51
2022-01-30 18:55:45.7360,-0.025,-0.937,-0.57,1.06,3.25,-2.27,-1.28,0.21,-0.5
2022-01-30 18:55:45.7460,-0.024,-0.932,-0.605,1.11,3.26,-2.11,-1.34,0.35,-0.46
2022-01-30 18:55:45.7560,-0.021,-0.944,-0.664,1.14,3.39,-1.75,-1.33,0.31,-0.44
2022-01-30 18:55:45.7660,-0.01,-0.956,-0.737,1.03,3.83,-0.53,-1.24,0.08,-0.43
2022-01-30 18:55:45.7760,0.007,-0.958,-0.801,1.03,3.83,-0.53,-1.1,-0.28,-0.44
2022-01-30 18:55:45.7860,0.024,-0.954,-0.84,0.86,3.9,-0.05,-0.93,-0.66,-0.46
2022-01-30 18:55:45.7960,0.035,-0.945,-0.852,0.67,3.94,0.17,-0.75,-0.97,-0.46
2022-01-30 18:55:45.8060,0.035,-0.917,-0.838,0.55,3.5817242270708087,-0.1,-0.6,-1.16,-0.44
2022-01-30 18:55:45.8160,0.028,-0.879,-0.813,0.5,3.58,-0.1,-0.48,-1.22,-0.4
2022-01-30 18:55:45.8260,0.015,-0.846,-0.787,0.52,3.26,-0.4,-0.4,-1.16,-0.33
2022-01-30 18:55:45.8360,-0.005,-0.814,-0.772,0.59,2.99,-0.65,-0.37,-1.02,-0.27
2022-01-30 18:55:45.8460,-0.029,-0.784,-0.767,0.74,2.7,-0.77,-0.37,-1.02,-0.27
2022-01-30 18:55:45.8560,-0.048,-0.766,-0.766,0.91,2.48,-0.84,-0.37,-0.83,-0.21
2022-01-30 18:55:45.8660,-0.071,-0.755,-0.784,1.05,2.38,-0.81,-0.39,-0.47,-0.19
2022-01-30 18:55:45.8760,-0.098,-0.736,-0.8,1.27,2.28,-0.64,-0.36,-0.37,-0.25
2022-01-30 18:55:45.8860,-0.113,-0.716,-0.816,1.49,2.12,-0.52,-0.3,-0.35,-0.33
2022-01-30 18:55:45.8960,-0.119,-0.705,-0.825,1.58,1.97,-0.38,-0.24,-0.38,-0.41
2022-01-30 18:55:45.9060,-0.124,-0.694,-0.819,1.61,1.91,-0.38,-0.2,-0.45,-0.47
2022-01-30 18:55:45.9160,-0.137,-0.672,-0.811,1.81,1.56,-0.55,-0.2,-0.52,-0.52
2022-01-30 18:55:45.9270,-0.156,-0.645,-0.804,1.98,1.32,-0.62,-0.26,-0.6,-0.57
2022-01-30 18:55:45.9370,-0.177,-0.621,-0.807,1.98,1.32,-0.62,-0.38,-0.66,-0.63
2022-01-30 18:55:45.9460,-0.2,-0.606,-0.826,2.17,1.16,-0.55,-0.53,-0.68,-0.72
2022-01-30 18:55:45.9560,-0.223,-0.597,-0.853,2.37,1.09,-0.35,-0.71,-0.69,-0.86
2022-01-30 18:55:45.9660,-0.243,-0.59,-0.894,2.74,1.1,0.33,-0.87,-0.7,-1.04
2022-01-30 18:55:45.9770,-0.259,-0.586,-0.942,2.74,1.1,0.33,-0.87,-0.7,-1.04
2022-01-30 18:55:45.9860,-0.271,-0.571,-0.992,2.88,1.13,0.74,-1.04,-0.83,-1.43
2022-01-30 18:55:45.9970,-0.275,-0.534,-1.036,2.96,1.0,1.18,-1.07,-0.95,-1.62
2022-01-30 18:55:46.0070,-0.275,-0.491,-1.067,2.97,0.69,1.52,-1.12,-1.03,-1.8
2022-01-30 18:55:46.0160,-0.263,-0.458,-1.085,2.93,0.39,1.71,-1.18,-1.03,-1.94
2022-01-30 18:55:46.0260,-0.248,-0.431,-1.1,2.5998878413438797,0.08866074621677399,1.83,-1.21,-0.94,-2.07
2022-01-30 18:55:46.0370,-0.217,-0.409,-1.088,2.59,0.08,1.83,-1.21,-0.94,-2.07
2022-01-30 18:55:46.0470,-0.176,-0.399,-1.083,2.26,0.03,1.65,-1.21,-0.65,-2.3
2022-01-30 18:55:46.0560,-0.134,-0.402,-1.085,1.87,0.09,1.6,-1.17,-0.58,-2.37
2022-01-30 18:55:46.0660,-0.102,-0.413,-1.091,1.27,0.49,1.6,-1.09,-0.6,-2.4
2022-01-30 18:55:46.0770,-0.075,-0.42,-1.095,1.27,0.49,1.6,-0.95,-0.71,-2.4
2022-01-30 18:55:46.0870,-0.052,-0.432,-1.097,1.04,0.65,1.58,-0.77,-0.89,-2.36
2022-01-30 18:55:46.0970,-0.034,-0.442,-1.098,0.82,0.87,1.59,-0.57,-1.12,-2.31
2022-01-30 18:55:46.1070,-0.02,-0.44,-1.094,0.64,0.99,1.55,-0.39,-1.38,-2.27
2022-01-30 18:55:46.1170,-0.008,-0.431,-1.08,0.45,0.97,1.46,-0.24,-1.64,-2.24
2022-01-30 18:55:46.1270,-0.001,-0.423,-1.057,0.27,0.91,1.28,-0.12,-1.82,-2.23
2022-01-30 18:55:46.1370,0.007,-0.411,-1.016,0.11,0.84,0.98,-0.05,-1.86,-2.25
2022-01-30 18:55:46.1470,0.022,-0.405,-0.961,-0.08,0.73,0.52,-0.02,-1.75,-2.27
2022-01-30 18:55:46.1570,0.048,-0.417,-0.903,-0.35,0.74,-0.05,-0.05,-1.52,-2.31
2022-01-30 18:55:46.1670,0.082,-0.433,-0.86,-1.08,1.07,-0.97,-0.11,-1.24,-2.35
2022-01-30 18:55:46.1780,0.116,-0.456,-0.825,-1.08,1.07,-0.97,-0.17,-0.96,-2.37
2022-01-30 18:55:46.1870,0.147,-0.486,-0.808,-1.42,1.35,-1.27,-0.19,-0.79,-2.32
2022-01-30 18:55:46.1970,0.174,-0.514,-0.814,-1.7,1.66,-1.34,-0.16,-0.75,-2.24
2022-01-30 18:55:46.2070,0.209,-0.532,-0.828,-1.98,1.92,-1.25,-0.07,-0.87,-2.13
2022-01-30 18:55:46.2170,0.246,-0.55,-0.854,-2.37,2.07,-1.05,0.08,-1.11,-1.99
2022-01-30 18:55:46.2270,0.28,-0.577,-0.862,-2.76,2.28,-0.84,0.25,-1.41,-1.84
2022-01-30 18:55:46.2370,0.315,-0.598,-0.871,-3.18,2.5,-0.78,0.25,-1.41,-1.84
2022-01-30 18:55:46.2470,0.346,-0.614,-0.874,-3.61,2.64,-0.67,0.56,-1.93,-1.57
2022-01-30 18:55:46.2570,0.374,-0.628,-0.87,-4.03,2.74,-0.67,0.63,-2.06,-1.44
2022-01-30 18:55:46.2670,0.394,-0.641,-0.877,-4.76,2.86,-0.5,0.65,-2.09,-1.28
2022-01-30 18:55:46.2780,0.411,-0.653,-0.893,-4.76,2.86,-0.5,0.65,-2.05,-1.08
2022-01-30 18:55:46.2870,0.411,-0.656,-0.923,-5.03,2.88,-0.23,0.66,-1.93,-0.86
2022-01-30 18:55:46.2980,0.394,-0.65,-0.952,-5.0,2.65,0.43,0.69,-1.75,-0.65
2022-01-30 18:55:46.3080,0.357,-0.638,-0.982,-4.71,2.45,0.79,0.74,-1.52,-0.51
2022-01-30 18:55:46.3180,0.318,-0.626,-1.016,-4.71,2.45,0.79,0.81,-1.23,-0.42
2022-01-30 18:55:46.3280,0.297,-0.622,-1.033,-4.48,2.29,1.13,0.86,-0.9,-0.34
2022-01-30 18:55:46.3380,0.295,-0.628,-1.051,-4.41,2.19,1.31,0.91,-0.57,-0.23
2022-01-30 18:55:46.3480,0.305,-0.638,-1.073,-4.62,2.17,1.78,0.96,-0.31,-0.08
2022-01-30 18:55:46.3580,0.313,-0.631,-1.082,-4.62,2.17,1.78,1.0,-0.1,0.12
2022-01-30 18:55:46.3680,0.305,-0.623,-1.093,-4.66,1.99,1.9,1.06,0.05,0.32
2022-01-30 18:55:46.3780,0.284,-0.618,-1.099,-4.52,1.83,2.07,1.06,0.05,0.32
2022-01-30 18:55:46.3880,0.277,-0.615,-1.086,-4.34,1.71,2.09,1.15,0.17,0.48
2022-01-30 18:55:46.3970,0.282,-0.622,-1.068,-4.34,1.6,1.99,1.25,0.28,0.58
2022-01-30 18:55:46.4070,0.296,-0.641,-1.041,-4.42,1.62,1.83,1.28,0.48,0.71
2022-01-30 18:55:46.4160,0.311,-0.66,-1.015,-4.56,1.73,1.61,1.28,0.48,0.71
2022-01-30 18:55:46.4270,0.323,-0.673,-0.999,-4.76,1.81,1.4,1.04,0.61,0.89
2022-01-30 18:55:46.4370,0.321,-0.668,-1.016,-4.76,1.81,1.4,0.84,0.53,0.98
2022-01-30 18:55:46.4470,0.303,-0.648,-1.065,-4.48,1.41,2.3,0.59,0.32,1.09
2022-01-30 18:55:46.4570,0.268,-0.629,-1.125,-4.48,1.41,2.3,0.36,0.06,1.22
2022-01-30 18:55:46.4670,0.211,-0.605,-1.188,-3.6,0.91,3.57,0.24,-0.19,1.34
2022-01-30 18:55:46.4780,0.149,-0.558,-1.257,-3.09,0.39,4.25,0.3,-0.37,1.41
2022-01-30 18:55:46.4880,0.088,-0.501,-1.309,-3.09,0.39,4.25,0.55,-0.43,1.42
2022-01-30 18:55:46.4970,0.038,-0.44,-1.316,-2.63,-0.2,4.65,0.92,-0.31,1.4
2022-01-30 18:55:46.5070,0.008,-0.379,-1.271,-2.29,-0.86,4.58,1.32,-0.01,1.38
2022-01-30 18:55:46.5170,0.002,-0.333,-1.193,-2.16,-1.5,4.05,1.64,0.39,1.41
2022-01-30 18:55:46.5270,0.012,-0.299,-1.103,-2.19,-2.01,3.29,1.81,0.79,1.49
2022-01-30 18:55:46.5380,0.038,-0.28,-1.023,-2.37,-2.4,2.5,1.85,1.11,1.62
2022-01-30 18:55:46.5470,0.066,-0.272,-0.954,-2.65,-2.64,1.83,1.8,1.32,1.73
2022-01-30 18:55:46.5580,0.087,-0.265,-0.904,-3.04,-2.96,0.94,1.7,1.38,1.81
2022-01-30 18:55:46.5690,0.092,-0.264,-0.877,-3.04,-2.96,0.94,1.7,1.33,1.85
2022-01-30 18:55:46.5790,0.083,-0.263,-0.857,-3.03,-3.04,0.78,1.48,1.23,1.83
2022-01-30 18:55:46.5890,0.063,-0.255,-0.837,-2.91,-3.14,0.64,1.42,1.12,1.76
2022-01-30 18:55:46.5990,0.043,-0.239,-0.822,-2.55,-3.56,0.44,1.41,1.01,1.66
2022-01-30 18:55:46.6090,0.024,-0.224,-0.809,-2.55,-3.56,0.44,1.43,0.92,1.54
2022-01-30 18:55:46.6190,0.013,-0.207,-0.794,-2.4,-3.79,0.38,1.46,0.86,1.42
2022-01-30 18:55:46.6290,0.014,-0.198,-0.777,-2.36,-4.01,0.28,1.46,0.83,1.31
2022-01-30 18:55:46.6390,0.024,-0.198,-0.768,-2.42,-4.14,0.2,1.41,0.84,1.22
2022-01-30 18:55:46.6490,0.035,-0.209,-0.763,-2.54,-4.18,0.2,1.33,0.91,1.17
2022-01-30 18:55:46.6590,0.046,-0.221,-0.76,-2.66,-4.12,0.21,1.2525112628936768,0.91,1.17
2022-01-30 18:55:46.6690,0.051,-0.231,-0.765,-2.7614189279079437,-4.05,0.37,1.18,1.16,1.16
2022-01-30 18:55:46.6790,0.052,-0.235,-0.772,-2.77,-4.05,0.37,1.11,1.28,1.18
2022-01-30 18:55:46.6890,0.049,-0.236,-0.791,-2.68,-4.11,0.77,1.04,1.36,1.19
2022-01-30 18:55:46.6990,0.041,-0.24,-0.813,-2.68,-4.11,0.77,0.99,1.38,1.18
2022-01-30 18:55:46.7090,0.029,-0.25,-0.839,-2.57,-4.09,1.02,0.99,1.38,1.18
2022-01-30 18:55:46.7190,0.02,-0.262,-0.863,-2.43,-4.02,1.31,0.95,1.27,1.08
2022-01-30 18:55:46.7300,0.027,-0.277,-0.883,-2.37,-3.94,1.56,0.91,1.19,0.96
2022-01-30 18:55:46.7390,0.047,-0.304,-0.911,-2.48,-3.8,1.8,0.83,1.11,0.83
2022-01-30 18:55:46.7490,0.068,-0.339,-0.946,-2.66,-3.53,2.15,0.7,1.08,0.7
2022-01-30 18:55:46.7600,0.082,-0.363,-0.98,-2.886467481851578,-3.055063174366951,2.86,0.54,1.14,0.58
2022-01-30 18:55:46.7700,0.094,-0.381,-1.018,-2.89,-3.06,2.86,0.4,1.31,0.48
2022-01-30 18:55:46.7800,0.118,-0.399,-1.062,-2.99,-2.9,3.26,0.28,1.58,0.41
2022-01-30 18:55:46.7900,0.152,-0.416,-1.107,-3.43,-2.58,4.09,0.19,1.89,0.36
2022-01-30 18:55:46.7990,0.194,-0.434,-1.148,-3.75,-2.4,4.43,0.19,1.89,0.36
2022-01-30 18:55:46.8090,0.245,-0.451,-1.182,-4.11,-2.23,4.69,0.02,2.5,0.44
2022-01-30 18:55:46.8190,0.296,-0.465,-1.2,-4.11,-2.23,4.69,-0.07,2.72,0.55
2022-01-30 18:55:46.8280,0.345,-0.471,-1.195,-4.45,-2.1,4.72,-0.15,2.89,0.7
2022-01-30 18:55:46.8390,0.386,-0.463,-1.184,-4.76,-2.07,4.59,-0.18,3.0,0.88
2022-01-30 18:55:46.8490,0.415,-0.453,-1.159,-4.96,-2.15,4.41,-0.14,3.1,1.09
2022-01-30 18:55:46.8590,0.437,-0.445,-1.11,-5.06,-2.21,4.01,-0.04,3.22,1.36
2022-01-30 18:55:46.8700,0.448,-0.413,-1.074,-5.1,-2.33,3.52,0.07,3.32,1.64
2022-01-30 18:55:46.8800,0.447,-0.363,-1.043,-5.04,-2.74,3.19,0.14,3.4,1.97
2022-01-30 18:55:46.8900,0.435,-0.32,-1.021,-4.87,-3.21,2.89,0.14,3.45,2.3
2022-01-30 18:55:46.9000,0.415,-0.272,-1.016,-4.63,-3.62,2.73,0.06,3.47,2.63
2022-01-30 18:55:46.9100,0.387,-0.217,-1.028,-3.98,-4.61,2.88,-0.1,3.48,2.95
2022-01-30 18:55:46.9200,0.356,-0.172,-1.055,-3.98,-4.61,2.88,-0.3,3.49,3.23
2022-01-30 18:55:46.9300,0.319,-0.106,-1.104,-3.62,-5.06,3.19,-0.47,3.49,3.46
2022-01-30 18:55:46.9400,0.265,-0.02,-1.172,-3.18,-5.76,3.7,-0.6,3.45,3.68
2022-01-30 18:55:46.9500,0.208,0.063,-1.253,-2.6,-6.56,4.39,-0.68,3.37,3.92
2022-01-30 18:55:46.9600,0.151,0.123,-1.321,-1.51,-7.68,5.67,-0.71,3.28,4.22
2022-01-30 18:55:46.9700,0.089,0.159,-1.378,-1.51,-7.68,5.67,-0.67,3.21,4.59
2022-01-30 18:55:46.9800,0.021,0.175,-1.424,-0.93,-7.89,6.13,-0.53,3.19,5.03
2022-01-30 18:55:46.9900,-0.044,0.175,-1.47,-0.33,-7.93,6.54,-0.26,3.2,5.46
2022-01-30 18:55:47.0000,-0.098,0.164,-1.496,0.18,-7.85,6.92,0.11,3.26,5.81
2022-01-30 18:55:47.0100,-0.139,0.149,-1.498,0.79,-7.56,7.06,0.11,3.26,5.81
2022-01-30 18:55:47.0210,-0.17,0.134,-1.489,0.79,-7.56,7.06,0.88,3.38,6.03
2022-01-30 18:55:47.0300,-0.199,0.109,-1.448,0.97,-7.4,6.91,1.11,3.47,5.92
2022-01-30 18:55:47.0400,-0.224,0.078,-1.375,1.15,-7.16,6.41,1.22,3.58,5.71
2022-01-30 18:55:47.0500,-0.234,0.054,-1.296,1.27,-6.9,5.68,1.21,3.69,5.42
2022-01-30 18:55:47.0600,-0.222,0.037,-1.224,1.23,-6.596561481356621,4.3235248088836675,1.13,3.79,5.08
2022-01-30 18:55:47.0710,-0.185,0.018,-1.16,0.99,-6.6,4.32,0.99,3.89,4.77
2022-01-30 18:55:47.0800,-0.126,-0.013,-1.103,0.53,-6.39,3.73,0.84,4.0,4.52
2022-01-30 18:55:47.0900,-0.061,-0.033,-1.067,-0.09,-6.11,3.23,0.65,4.12,4.35
2022-01-30 18:55:47.1000,-0.008,-0.04,-1.06,-0.66,-5.97,2.99,0.44,4.22,4.27
2022-01-30 18:55:47.1100,0.037,-0.049,-1.071,-1.09,-5.9,2.97,0.44,4.22,4.27
2022-01-30 18:55:47.1210,0.078,-0.05,-1.096,-1.47,-5.79,3.1,0.12,4.25,4.23
2022-01-30 18:55:47.1300,0.113,-0.033,-1.141,-1.8,-5.8,3.37,0.07,4.12,4.25
2022-01-30 18:55:47.1410,0.133,0.002,-1.193,-2.05,-6.02,3.85,0.12,3.95,4.31
2022-01-30 18:55:47.1500,0.143,0.044,-1.217,-2.18,-6.37,4.26,0.26,3.82,4.43
2022-01-30 18:55:47.1600,0.141,0.074,-1.221,-2.23,-6.75,4.39,0.42,3.75,4.64
2022-01-30 18:55:47.1720,0.129,0.083,-1.213,-2.17,-6.95,4.36,0.53,3.7,4.9
2022-01-30 18:55:47.1810,0.107,0.094,-1.216,-2.04,-7.01,4.31,0.55,3.6,5.14
2022-01-30 18:55:47.1910,0.08,0.113,-1.223,-1.84,-7.15,4.37,0.51,3.45,5.3
2022-01-30 18:55:47.2010,0.057,0.141,-1.228,-1.65,-7.36,4.44,0.45,3.32,5.33
2022-01-30 18:55:47.2110,0.044,0.192,-1.222,-1.54,-8.26,4.32,0.36,3.26,5.26
2022-01-30 18:55:47.2220,0.048,0.268,-1.202,-1.54,-8.26,4.32,0.2,3.3,5.15
2022-01-30 18:55:47.2310,0.065,0.286,-1.18,-1.7,-8.87,4.08,-0.03,3.43,5.13
2022-01-30 18:55:47.2410,0.078,0.246,-1.188,-1.92,-8.65,3.86,-0.34,3.52,5.2
2022-01-30 18:55:47.2510,0.073,0.243,-1.234,-2.03,-8.24,4.05,-0.65,3.54,5.3
2022-01-30 18:55:47.2610,0.024,0.282,-1.288,-1.9,-8.26,4.46,-0.87,3.51,5.37
2022-01-30 18:55:47.2720,-0.08,0.343,-1.341,-1.22,-8.62,4.91,-0.91,3.47,5.39
2022-01-30 18:55:47.2810,-0.187,0.367,-1.362,-0.14,-9.02,5.27,-0.75,3.52,5.38
2022-01-30 18:55:47.2910,-0.259,0.326,-1.32,0.8,-8.87,5.14,-0.46,3.64,5.36
2022-01-30 18:55:47.3020,-0.289,0.259,-1.286,1.51,-7.41,4.35,-0.15,3.63,5.29
2022-01-30 18:55:47.3110,-0.274,0.172,-1.288,1.23,-6.44,4.38,0.11,3.37,5.17
2022-01-30 18:55:47.3220,-0.227,0.073,-1.286,1.23,-6.44,4.38,0.3,2.94,5.0
2022-01-30 18:55:47.3310,-0.176,-0.014,-1.255,0.71,-5.44,4.23,0.3,2.94,5.0
2022-01-30 18:55:47.3410,-0.137,-0.069,-1.208,0.21,-4.68,3.84,0.45,2.23,4.51
2022-01-30 18:55:47.3510,-0.122,-0.111,-1.156,-0.15,-4.17,3.33,0.43,2.07,4.25
2022-01-30 18:55:47.3610,-0.136,-0.141,-1.126,-0.05,-3.49,2.68,0.38,1.92,4.03
2022-01-30 18:55:47.3720,-0.163,-0.166,-1.13,-0.05,-3.49,2.68,0.34,1.69,3.85
2022-01-30 18:55:47.3820,-0.198,-0.193,-1.156,0.19,-3.21,2.82,0.37,1.39,3.7
2022-01-30 18:55:47.3910,-0.236,-0.222,-1.173,0.48,-2.91,3.07,0.47,1.09,3.54
2022-01-30 18:55:47.4010,-0.266,-0.249,-1.164,0.76,-2.61,3.16,0.6,0.9,3.31
2022-01-30 18:55:47.4110,-0.285,-0.266,-1.14,1.01,-2.25,2.76,0.71,0.89,3.02
2022-01-30 18:55:47.4220,-0.293,-0.273,-1.105,1.01,-2.25,2.76,0.75,1.04,2.72
2022-01-30 18:55:47.4320,-0.288,-0.282,-1.069,0.98,-2.18,2.4,0.71,1.31,2.42
2022-01-30 18:55:47.4420,-0.28,-0.285,-1.035,0.91,-2.12,2.07,0.59,1.63,2.17
2022-01-30 18:55:47.4520,-0.271,-0.279,-1.013,0.86,-2.13,1.75,0.41,1.95,1.99
2022-01-30 18:55:47.4610,-0.259,-0.27,-1.009,0.84,-2.21,1.59,0.23,2.18,1.87
2022-01-30 18:55:47.4720,-0.244,-0.27,-1.02,0.76,-2.2,1.69,0.09,2.29,1.8
2022-01-30 18:55:47.4820,-0.236,-0.276,-1.039,0.83,-2.12,1.87,0.04,2.29,1.78
2022-01-30 18:55:47.4920,-0.236,-0.277,-1.059,0.83,-2.12,1.87,0.1,2.19,1.76
2022-01-30 18:55:47.5020,-0.244,-0.271,-1.065,0.95,-2.12,2.0,0.26,2.04,1.72
2022-01-30 18:55:47.5120,-0.257,-0.258,-1.055,1.14,-2.21,1.98,0.46,1.85,1.65
2022-01-30 18:55:47.5220,-0.266,-0.242,-1.033,1.47,-2.55,1.59,0.63,1.66,1.54
2022-01-30 18:55:47.5320,-0.271,-0.234,-1.002,1.47,-2.55,1.59,0.74,1.5,1.43
2022-01-30 18:55:47.5420,-0.277,-0.239,-0.964,1.57,-2.63,1.27,0.8,1.41,1.34
2022-01-30 18:55:47.5520,-0.284,-0.241,-0.929,1.69,-2.61,0.91,0.8,1.41,1.34
2022-01-30 18:55:47.5620,-0.294,-0.229,-0.907,1.98,-2.9,0.48,0.86,1.36,1.15
2022-01-30 18:55:47.5730,-0.304,-0.216,-0.885,1.98,-2.9,0.48,0.9,1.43,1.03
2022-01-30 18:55:47.5820,-0.314,-0.211,-0.858,2.14,-3.07,0.28,0.93,1.57,0.88
2022-01-30 18:55:47.5930,-0.322,-0.217,-0.824,2.32,-3.14,0.02,0.94,1.73,0.7
2022-01-30 18:55:47.6020,-0.322,-0.231,-0.797,2.49,-3.13,-0.27,0.93,1.9,0.52
2022-01-30 18:55:47.6120,-0.316,-0.265,-0.779,2.59,-3.01,-0.45,0.96,2.09,0.38
2022-01-30 18:55:47.6220,-0.294,-0.333,-0.754,2.65,-2.63,-0.6,0.97,2.29,0.28
2022-01-30 18:55:47.6320,-0.258,-0.432,-0.743,2.54,-1.93,-0.78,0.9,2.53,0.2
2022-01-30 18:55:47.6430,-0.226,-0.567,-0.75,2.38,-0.89,-0.76,0.67,2.8,0.16
2022-01-30 18:55:47.6520,-0.221,-0.716,-0.764,2.35,0.48,-0.64,0.33,3.07,0.13
2022-01-30 18:55:47.6620,-0.26,-0.833,-0.793,2.7,1.86,-0.42,0.05,3.28,0.07
2022-01-30 18:55:47.6730,-0.321,-0.875,-0.847,3.48,2.75,-0.06,-0.07,3.34,-0.06
2022-01-30 18:55:47.6820,-0.35,-0.867,-0.95,4.29,2.92,0.67,-0.01,3.14,-0.27
2022-01-30 18:55:47.6930,-0.313,-0.863,-1.064,4.61,2.81,1.83,0.18,2.7,-0.53
2022-01-30 18:55:47.7030,-0.233,-0.873,-1.153,4.27,2.83,2.91,0.37,2.08,-0.8
2022-01-30 18:55:47.7120,-0.155,-0.892,-1.205,3.16,3.14,4.09,0.5,1.52,-1.0
2022-01-30 18:55:47.7230,-0.115,-0.912,-1.199,3.16,3.14,4.09,0.58,1.17,-1.06
2022-01-30 18:55:47.7330,-0.125,-0.889,-1.155,3.11,3.21,3.89,0.67,1.07,-1.02
2022-01-30 18:55:47.7430,-0.154,-0.821,-1.098,3.46,2.74,3.47,0.77,1.15,-0.93
2022-01-30 18:55:47.7530,-0.192,-0.762,-1.033,4.44,1.46,2.42,0.85,1.3,-0.79
2022-01-30 18:55:47.7630,-0.218,-0.718,-0.986,4.44,1.46,2.42,0.91,1.39,-0.63
2022-01-30 18:55:47.7730,-0.219,-0.687,-0.96,4.73,1.02,2.14,0.96,1.35,-0.5
2022-01-30 18:55:47.7830,-0.2,-0.677,-0.933,4.79,0.74,1.99,1.0,1.2,-0.4
2022-01-30 18:55:47.7930,-0.175,-0.679,-0.899,4.53,0.6,1.5,1.03,1.0,-0.33
2022-01-30 18:55:47.8030,-0.16,-0.681,-0.846,4.53,0.6,1.5,1.04,0.8,-0.26
2022-01-30 18:55:47.8130,-0.152,-0.674,-0.774,4.5,0.52,0.98,1.06,0.65,-0.19
2022-01-30 18:55:47.8230,-0.144,-0.664,-0.7,4.48,0.37,0.34,1.06,0.65,-0.19
2022-01-30 18:55:47.8420,-0.137,-0.657,-0.629,4.4,0.07,-0.89,1.05,0.41,0.02
2022-01-30 18:55:47.8450,-0.129,-0.652,-0.57,4.31,-0.02,-1.34,1.05,0.41,0.02
2022-01-30 18:55:47.8520,-0.116,-0.656,-0.529,4.31,-0.02,-1.34,0.84,0.03,0.29
2022-01-30 18:55:47.8620,-0.1,-0.671,-0.502,4.14,0.0,-1.63,0.64,-0.24,0.4
2022-01-30 18:55:47.8740,-0.088,-0.695,-0.487,3.95,0.13,-1.81,0.4,-0.5,0.49
2022-01-30 18:55:47.8830,-0.087,-0.72,-0.48,3.74,0.56,-1.96,0.17,-0.74,0.53
2022-01-30 18:55:47.8930,-0.098,-0.743,-0.487,3.74,0.56,-1.96,-0.05,-0.92,0.51
2022-01-30 18:55:47.9040,-0.117,-0.752,-0.5,3.79,0.74,-1.89,-0.22,-0.99,0.45
2022-01-30 18:55:47.9130,-0.145,-0.737,-0.519,3.92,0.74,-1.79,-0.37,-0.99,0.37
2022-01-30 18:55:47.9230,-0.174,-0.716,-0.545,4.11,0.57,-1.63,-0.48,-0.93,0.3
2022-01-30 18:55:47.9340,-0.197,-0.702,-0.563,4.4,0.35,-1.32,-0.58,-0.83,0.27
2022-01-30 18:55:47.9440,-0.207,-0.7,-0.594,4.42,0.39,-0.97,-0.66,-0.77,0.25
2022-01-30 18:55:47.9540,-0.22,-0.697,-0.646,4.42,0.39,-0.97,-0.73,-0.69,0.23
2022-01-30 18:55:47.9630,-0.235,-0.684,-0.687,4.51,0.36,-0.55,-0.78,-0.58,0.2
2022-01-30 18:55:47.9740,-0.243,-0.682,-0.74,4.57,0.3,-0.22,-0.8,-0.56,0.17
2022-01-30 18:55:47.9840,-0.254,-0.714,-0.831,4.6,0.45,0.36,-0.81,-0.73,0.15
2022-01-30 18:55:47.9940,-0.263,-0.756,-0.93,4.63,1.33,2.14,-0.79,-1.07,0.14
2022-01-30 18:55:48.0040,-0.269,-0.78,-1.022,4.63,1.33,2.14,-0.72,-1.5,0.11
2022-01-30 18:55:48.0140,-0.277,-0.786,-1.106,4.5,1.59,3.62,-0.61,-1.97,0.07
2022-01-30 18:55:48.0240,-0.285,-0.779,-1.165,4.5,1.59,3.62,-0.5,-2.38,0.0
2022-01-30 18:55:48.0320,-0.292,-0.766,-1.219,4.38,1.52,4.08,-0.39,-2.66,-0.08
2022-01-30 18:55:48.0440,-0.313,-0.753,-1.266,4.34,1.31,4.91,-0.28,-2.75,-0.13
2022-01-30 18:55:48.0550,-0.341,-0.736,-1.303,4.42,1.13,5.17,-0.17,-2.6,-0.17
2022-01-30 18:55:48.0640,-0.361,-0.715,-1.318,4.42,1.13,5.17,-0.05,-2.26,-0.21
2022-01-30 18:55:48.0740,-0.36,-0.701,-1.316,4.38,0.95,5.21,0.03,-1.86,-0.27
2022-01-30 18:55:48.0850,-0.339,-0.694,-1.317,4.17,0.85,5.18,0.07,-1.55,-0.38
2022-01-30 18:55:48.0940,-0.317,-0.69,-1.313,3.84,0.79,5.17,0.1,-1.39,-0.49
2022-01-30 18:55:48.1050,-0.304,-0.683,-1.294,3.57,0.75,5.08,0.17,-1.38,-0.6
2022-01-30 18:55:48.1230,-0.295,-0.663,-1.26,3.21,0.38,4.47,0.29,-1.48,-0.7
2022-01-30 18:55:48.1230,-0.274,-0.637,-1.216,3.21,0.38,4.47,0.29,-1.48,-0.7
2022-01-30 18:55:48.1340,-0.243,-0.611,-1.172,2.87,0.08,4.06,0.43,-1.7,-0.81
2022-01-30 18:55:48.1440,-0.209,-0.59,-1.128,1.98,-0.46,3.25,0.76,-2.46,-1.05
2022-01-30 18:55:48.1550,-0.175,-0.57,-1.072,1.98,-0.46,3.25,0.76,-2.46,-1.05
2022-01-30 18:55:48.1640,-0.149,-0.553,-1.006,1.52,-0.71,2.7,1.03,-3.24,-1.22
2022-01-30 18:55:48.1740,-0.137,-0.538,-0.948,0.89,-1.17,1.68,1.07,-3.51,-1.27
2022-01-30 18:55:48.1830,-0.138,-0.521,-0.898,0.89,-1.17,1.68,1.07,-3.51,-1.27
2022-01-30 18:55:48.1930,-0.142,-0.485,-0.862,0.74,-1.5,1.32,1.06,-3.72,-1.36
2022-01-30 18:55:48.2010,-0.137,-0.451,-0.839,0.57,-1.95,1.11,0.88,-4.06,-1.72
2022-01-30 18:55:48.2120,-0.12,-0.426,-0.825,0.3,-2.33,1.01,0.66,-4.23,-2.01
2022-01-30 18:55:48.2220,-0.093,-0.412,-0.823,-0.08,-2.59,1.01,0.37,-4.34,-2.32
2022-01-30 18:55:48.2320,-0.069,-0.398,-0.829,-0.5,-2.77,1.09,0.06,-4.32,-2.65
2022-01-30 18:55:48.2420,-0.058,-0.375,-0.834,-0.81,-2.97,1.22,0.06,-4.32,-2.65
2022-01-30 18:55:48.2510,-0.051,-0.347,-0.86,-0.96,-3.24,1.33,-0.47,-4.03,-3.17
2022-01-30 18:55:48.2620,-0.037,-0.314,-0.931,-1.11,-3.56,1.81,-0.55,-3.96,-3.34
2022-01-30 18:55:48.2720,-0.015,-0.277,-1.002,-1.33,-3.91,2.57,-0.49,-3.97,-3.47
2022-01-30 18:55:48.2820,0.004,-0.24,-1.058,-1.58,-4.3,3.25,-0.32,-4.03,-3.53
2022-01-30 18:55:48.2920,0.009,-0.217,-1.079,-1.75,-4.67,3.75,-0.32,-4.03,-3.53
2022-01-30 18:55:48.3020,0.019,-0.217,-1.062,-1.83,-4.86,3.85,0.08,-4.0,-3.47
2022-01-30 18:55:48.3120,0.034,-0.234,-1.049,-1.96,-4.86,3.72,0.13,-3.97,-3.42
2022-01-30 18:55:48.3220,0.051,-0.255,-1.06,-2.15,-4.73,3.75,0.03,-4.05,-3.4
2022-01-30 18:55:48.3320,0.048,-0.268,-1.092,-2.3,-4.59,4.01,-0.15,-4.23,-3.42
2022-01-30 18:55:48.3420,0.02,-0.258,-1.132,-2.19,-4.59,4.45,-0.32,-4.42,-3.47
2022-01-30 18:55:48.3520,-0.013,-0.24,-1.142,-1.9,-4.79,4.83,-0.4,-4.5,-3.53
2022-01-30 18:55:48.3620,-0.033,-0.233,-1.119,-1.65,-4.97,4.82,-0.38,-4.48,-3.59
2022-01-30 18:55:48.3720,-0.034,-0.239,-1.101,-1.53,-5.04,4.65,-0.3,-4.4,-3.65
2022-01-30 18:55:48.3820,-0.008,-0.269,-1.085,-1.62,-4.95,4.55,-0.21,-4.3,-3.68
2022-01-30 18:55:48.3920,0.035,-0.311,-1.079,-1.94,-4.64,4.47,-0.16,-4.25,-3.71
2022-01-30 18:55:48.4020,0.079,-0.336,-1.095,-2.38,-4.32,4.58,-0.19,-4.23,-3.73
2022-01-30 18:55:48.4120,0.106,-0.329,-1.099,-2.73,-4.25,4.77,-0.32,-4.24,-3.75
2022-01-30 18:55:48.4220,0.122,-0.31,-1.104,-2.92,-4.44,4.85,-0.53,-4.24,-3.77
2022-01-30 18:55:48.4320,0.131,-0.303,-1.109,-3.01,-4.63,4.94,-0.74,-4.22,-3.75
2022-01-30 18:55:48.4420,0.137,-0.304,-1.122,-3.05,-4.68,5.0,-0.91,-4.23,-3.7
2022-01-30 18:55:48.4520,0.139,-0.297,-1.153,-3.06,-4.68,5.2,-1.01,-4.28,-3.65
2022-01-30 18:55:48.4620,0.135,-0.273,-1.198,-3.04,-4.81,5.55,-1.03,-4.38,-3.62
2022-01-30 18:55:48.4730,0.116,-0.238,-1.238,-2.94,-5.11,6.01,-1.03,-4.38,-3.62
2022-01-30 18:55:48.4820,0.08,-0.207,-1.244,-2.66,-5.44,6.3,-0.97,-4.42,-3.62
2022-01-30 18:55:48.4920,0.045,-0.163,-1.223,-2.26,-5.78,6.22,-0.72,-4.03,-3.76
2022-01-30 18:55:48.5020,0.025,-0.122,-1.227,-1.91,-6.27,6.06,-0.67,-3.81,-3.88
2022-01-30 18:55:48.5120,0.034,-0.125,-1.288,-1.73,-6.56,6.31,-0.66,-3.77,-3.99
2022-01-30 18:55:48.5220,0.078,-0.159,-1.344,-1.87,-6.37,6.98,-0.64,-3.84,-4.11
2022-01-30 18:55:48.5320,0.131,-0.174,-1.376,-2.27,-6.09,7.42,-0.61,-3.98,-4.24
2022-01-30 18:55:48.5420,0.182,-0.166,-1.405,-2.7,-6.07,7.73,-0.54,-4.09,-4.36
2022-01-30 18:55:48.5530,0.217,-0.168,-1.381,-3.06,-6.16,7.91,-0.39,-4.02,-4.37
2022-01-30 18:55:48.5620,0.228,-0.187,-1.307,-3.21,-6.09,7.42,-0.2,-3.78,-4.25
2022-01-30 18:55:48.5730,0.233,-0.198,-1.242,-3.15,-5.94,6.7,0.02,-3.53,-4.04
2022-01-30 18:55:48.5830,0.236,-0.198,-1.187,-3.1,-5.91,6.16,0.2,-3.33,-3.78
2022-01-30 18:55:48.5930,0.235,-0.192,-1.145,-2.99,-5.99,5.68,0.31,-3.27,-3.51
2022-01-30 18:55:48.6030,0.238,-0.197,-1.106,-2.92,-6.05,5.37,0.37,-3.35,-3.3
2022-01-30 18:55:48.6130,0.237,-0.196,-1.056,-2.87,-6.05,4.99,0.37,-3.52,-3.17
2022-01-30 18:55:48.6230,0.244,-0.205,-1.008,-2.82,-6.09,4.54,0.32,-3.74,-3.11
2022-01-30 18:55:48.6330,0.268,-0.232,-0.963,-2.91,-5.95,4.13,0.25,-3.95,-3.12
2022-01-30 18:55:48.6430,0.304,-0.262,-0.919,-3.17,-5.69,3.72,0.16,-4.14,-3.17
2022-01-30 18:55:48.6530,0.334,-0.281,-0.889,-3.49,-5.44,3.35,0.03,-4.3,-3.24
2022-01-30 18:55:48.6630,0.356,-0.288,-0.877,-3.74,-5.32,3.15,-0.1,-4.44,-3.25
2022-01-30 18:55:48.6730,0.358,-0.288,-0.871,-3.87,-5.28,3.06,-0.24,-4.53,-3.2
2022-01-30 18:55:48.6830,0.359,-0.281,-0.88,-3.84,-5.31,3.04,-0.33,-4.58,-3.09
2022-01-30 18:55:48.6930,0.362,-0.293,-0.886,-3.89,-5.33,3.14,-0.4,-4.58,-2.91
2022-01-30 18:55:48.7040,0.352,-0.318,-0.9,-3.9,-5.12,3.16,-0.43,-4.54,-2.71
2022-01-30 18:55:48.7130,0.33,-0.333,-0.919,-3.78,-4.88,3.34,-0.45,-4.45,-2.53
2022-01-30 18:55:48.7230,0.305,-0.341,-0.928,-3.59,-4.76,3.47,-0.46,-4.28,-2.39
2022-01-30 18:55:48.7330,0.286,-0.353,-0.93,-3.41,-4.67,3.5,-0.48,-4.05,-2.28
2022-01-30 18:55:48.7430,0.273,-0.371,-0.927,-3.29,-4.49,3.49,-0.5,-3.78,-2.22
2022-01-30 18:55:48.7650,0.269,-0.392,-0.913,-3.23,-4.04,3.22,-0.54,-3.47,-2.19
2022-01-30 18:55:48.7680,0.272,-0.424,-0.892,-3.23,-4.04,3.22,-0.58,-3.13,-2.17
2022-01-30 18:55:48.7760,0.28,-0.466,-0.862,-3.3,-3.65,2.94,-0.62,-2.79,-2.15
2022-01-30 18:55:48.7860,0.288,-0.497,-0.839,-3.35,-3.24,2.61,-0.67,-2.51,-2.13
2022-01-30 18:55:48.7960,0.303,-0.518,-0.83,-3.44,-2.96,2.41,-0.73,-2.32,-2.12
2022-01-30 18:55:48.8060,0.307,-0.531,-0.828,-3.51,-2.61,2.26,-0.81,-2.23,-2.1
2022-01-30 18:55:48.8160,0.304,-0.538,-0.835,-3.51,-2.61,2.26,-0.81,-2.23,-2.1
2022-01-30 18:55:48.8260,0.288,-0.542,-0.832,-3.39,-2.5,2.26,-0.87,-2.18,-2.01
2022-01-30 18:55:48.8360,0.264,-0.532,-0.821,-3.18,-2.46,2.11,-0.83,-2.16,-1.92
2022-01-30 18:55:48.8460,0.243,-0.515,-0.811,-2.92,-2.56,1.97,-0.73,-2.13,-1.81
2022-01-30 18:55:48.8560,0.235,-0.507,-0.786,-2.75,-2.67,1.78,-0.62,-2.09,-1.67
2022-01-30 18:55:48.8660,0.23,-0.514,-0.753,-2.66,-2.53,1.09,-0.54,-2.04,-1.51
2022-01-30 18:55:48.8760,0.221,-0.533,-0.723,-2.57,-2.25,0.78,-0.51,-1.99,-1.33
2022-01-30 18:55:48.8860,0.206,-0.565,-0.691,-2.57,-2.25,0.78,-0.5,-1.93,-1.17
2022-01-30 18:55:48.8960,0.183,-0.601,-0.652,-2.42,-1.89,0.41,-0.5,-1.93,-1.17
2022-01-30 18:55:48.9060,0.163,-0.645,-0.608,-2.23,-1.49,-0.04,-0.54,-1.62,-0.93
2022-01-30 18:55:48.9160,0.157,-0.706,-0.574,-2.11,-0.99,-0.47,-0.6,-1.41,-0.86
2022-01-30 18:55:48.9260,0.162,-0.813,-0.537,-2.2,0.94,-1.2,-0.74,-1.23,-0.82
2022-01-30 18:55:48.9370,0.166,-0.904,-0.54,-2.2,0.94,-1.2,-0.98,-1.19,-0.85
2022-01-30 18:55:48.9470,0.156,-0.94,-0.602,-2.21,1.71,-0.99,-1.26,-1.36,-0.98
2022-01-30 18:55:48.9570,0.135,-0.936,-0.69,-2.08,1.94,-0.34,-1.52,-1.61,-1.17
2022-01-30 18:55:48.9670,0.118,-0.951,-0.75,-1.89,2.01,0.39,-1.63,-1.75,-1.32
2022-01-30 18:55:48.9770,0.115,-0.989,-0.773,-1.8,2.36,0.71,-1.54,-1.68,-1.33
2022-01-30 18:55:48.9870,0.132,-1.036,-0.792,-1.85,2.87,0.8,-1.23,-1.46,-1.19
2022-01-30 18:55:48.9970,0.157,-1.073,-0.796,-2.1,3.41,0.89,-0.77,-1.18,-0.91
2022-01-30 18:55:49.0070,0.16,-1.075,-0.784,-2.3,3.7,0.8,-0.32,-0.95,-0.57
2022-01-30 18:55:49.0170,0.144,-1.058,-0.755,-2.27,3.62,0.63,-0.01,-0.8,-0.25
2022-01-30 18:55:49.0270,0.133,-1.058,-0.707,-2.17,3.49,0.26,0.14,-0.7,-0.03
2022-01-30 18:55:49.0370,0.113,-1.084,-0.659,-2.08,3.58,-0.21,0.15,-0.65,0.02
2022-01-30 18:55:49.0470,0.103,-1.12,-0.629,-1.94,4.23,-0.81,0.05,-0.68,-0.11
2022-01-30 18:55:49.0580,0.108,-1.15,-0.626,-1.94,4.23,-0.81,-0.11,-0.78,-0.41
2022-01-30 18:55:49.0680,0.118,-1.166,-0.648,-2.06,4.5,-0.76,-0.29,-0.93,-0.76
2022-01-30 18:55:49.0780,0.113,-1.148,-0.676,-2.03,4.3,-0.32,-0.46,-1.03,-1.06
2022-01-30 18:55:49.0880,0.101,-1.107,-0.681,-2.03,4.3,-0.32,-0.58,-1.02,-1.22
2022-01-30 18:55:49.0970,0.086,-1.048,-0.699,-1.88,3.86,-0.31,-0.61,-0.97,-1.21
2022-01-30 18:55:49.1080,0.076,-0.983,-0.736,-1.74,3.27,-0.05,-0.54,-0.89,-1.05
2022-01-30 18:55:49.1180,0.067,-0.933,-0.751,-1.64,2.7,0.22,-0.39,-0.78,-0.79
2022-01-30 18:55:49.1270,0.056,-0.906,-0.759,-1.56,2.3,0.3,-0.22,-0.67,-0.49
2022-01-30 18:55:49.1380,0.04,-0.906,-0.763,-1.44,2.14,0.36,-0.06,-0.56,-0.24
2022-01-30 18:55:49.1470,0.026,-0.928,-0.758,-1.31,2.25,0.37,0.04,-0.47,-0.13
2022-01-30 18:55:49.1580,0.018,-0.954,-0.759,-1.23,2.49,0.33,0.04,-0.47,-0.13
2022-01-30 18:55:49.1680,-0.001,-0.968,-0.751,-1.13,2.71,0.35,0.06,-0.35,-0.29
2022-01-30 18:55:49.1780,-0.02,-0.97,-0.737,-0.95,2.8,0.22,0.01,-0.29,-0.45
2022-01-30 18:55:49.1880,-0.042,-0.959,-0.739,-0.74,2.76,0.14,-0.04,-0.27,-0.58
2022-01-30 18:55:49.1980,-0.053,-0.949,-0.744,-0.52,2.63,0.19,-0.04,-0.25,-0.64
2022-01-30 18:55:49.2090,-0.053,-0.943,-0.749,-0.44,2.55,0.23,0.03,-0.25,-0.63
2022-01-30 18:55:49.2180,-0.047,-0.942,-0.75,-0.44,2.5,0.28,0.03,-0.25,-0.63
2022-01-30 18:55:49.2280,-0.047,-0.933,-0.747,-0.48,2.47,0.28,0.28,-0.32,-0.51
2022-01-30 18:55:49.2380,-0.058,-0.924,-0.74,-0.43,2.34,0.28,0.28,-0.32,-0.44
2022-01-30 18:55:49.2480,-0.072,-0.918,-0.721,-0.28,2.24,0.17,0.44,-0.34,-0.39
2022-01-30 18:55:49.2580,-0.085,-0.905,-0.724,-0.03,1.95,0.18,0.46,-0.38,-0.36
2022-01-30 18:55:49.2690,-0.097,-0.892,-0.73,-0.03,1.95,0.18,0.46,-0.38,-0.36
2022-01-30 18:55:49.2780,-0.11,-0.88,-0.731,0.09,1.8,0.25,0.43,-0.51,-0.38
2022-01-30 18:55:49.2880,-0.126,-0.868,-0.727,0.21,1.66,0.28,0.43,-0.59,-0.43
2022-01-30 18:55:49.2980,-0.146,-0.848,-0.713,0.55,1.24,0.11,0.44,-0.64,-0.49
2022-01-30 18:55:49.3090,-0.16,-0.832,-0.687,0.55,1.24,0.11,0.45,-0.64,-0.55
2022-01-30 18:55:49.3190,-0.165,-0.827,-0.646,0.65,1.08,-0.18,0.45,-0.64,-0.55
2022-01-30 18:55:49.3280,-0.16,-0.825,-0.61,0.67,1.04,-0.55,0.28,-0.47,-0.72
2022-01-30 18:55:49.3380,-0.142,-0.809,-0.593,0.59,0.96,-0.84,0.05,-0.37,-0.85
2022-01-30 18:55:49.3480,-0.131,-0.774,-0.612,0.45,0.72,-0.88,-0.24,-0.31,-0.99
2022-01-30 18:55:49.3580,-0.132,-0.721,-0.658,0.54,-0.2,-0.16,-0.51,-0.21,-1.12
2022-01-30 18:55:49.3690,-0.134,-0.669,-0.694,0.54,-0.2,-0.16,-0.67,-0.06,-1.22
2022-01-30 18:55:49.3780,-0.127,-0.633,-0.716,0.62,-0.61,0.08,-0.67,0.14,-1.24
2022-01-30 18:55:49.3880,-0.104,-0.617,-0.731,0.59,-0.86,0.22,-0.49,0.39,-1.15
2022-01-30 18:55:49.3980,-0.071,-0.627,-0.712,0.43,-0.89,0.25,-0.21,0.65,-0.96
2022-01-30 18:55:49.4090,-0.042,-0.633,-0.675,0.08762489369139076,-0.79,-0.39,0.1,0.85,-0.73
2022-01-30 18:55:49.4190,-0.024,-0.617,-0.653,0.08,-0.79,-0.39,0.33,0.92,-0.48
2022-01-30 18:55:49.4290,-0.017,-0.608,-0.622,0.03,-1.0,-0.58,0.48,0.87,-0.22
2022-01-30 18:55:49.4390,-0.008,-0.62,-0.58,-0.04,-0.91,-1.26,0.56,0.71,0.01
2022-01-30 18:55:49.4490,0.016,-0.638,-0.553,-0.3,-0.76,-1.43,0.59,0.45,0.18
2022-01-30 18:55:49.4590,0.045,-0.658,-0.535,-0.3,-0.76,-1.43,0.58,0.18,0.29
2022-01-30 18:55:49.4690,0.062,-0.676,-0.515,-0.57,-0.61,-1.56,0.55,-0.05,0.38
2022-01-30 18:55:49.4790,0.056,-0.695,-0.492,-0.69,-0.47,-1.73,0.5,-0.17,0.48
2022-01-30 18:55:49.4890,0.034,-0.709,-0.465,-0.6,-0.31,-1.95,0.45,-0.18,0.57
2022-01-30 18:55:49.4990,0.015,-0.71,-0.45,-0.43,-0.27,-2.16,0.4,-0.1,0.63
2022-01-30 18:55:49.5090,0.007,-0.718,-0.451,-0.34,-0.27,-2.21,0.34,-0.01,0.67
2022-01-30 18:55:49.5190,0.0,-0.734,-0.465,-0.31,-0.03766367018222809,-1.93,0.28,0.06,0.68
2022-01-30 18:55:49.5290,-0.004,-0.743,-0.488,-0.31,0.02214925289154053,-1.7,0.23,0.1,0.65
2022-01-30 18:55:49.5400,-0.009,-0.751,-0.503,-0.3,0.1,-1.6,0.18,0.16,0.56
2022-01-30 18:55:49.5490,-0.01,-0.761,-0.508,-0.3,0.1,-1.6,0.18,0.16,0.56
2022-01-30 18:55:49.5590,-0.005,-0.769,-0.512,-0.33,0.19,-1.55,0.12,0.25,0.45
2022-01-30 18:55:49.5680,0.001,-0.767,-0.52,-0.38,0.24,-1.48,0.03,0.53,0.17
2022-01-30 18:55:49.5780,0.011,-0.749,-0.523,-0.42,0.16,-1.42,-0.03,0.69,0.04
2022-01-30 18:55:49.5880,0.026,-0.734,-0.526,-0.5,-0.03,-1.41,-0.03,0.69,0.04
2022-01-30 18:55:49.5980,0.039,-0.732,-0.532,-0.66,-0.09,-1.35,-0.18,0.97,-0.0
2022-01-30 18:55:49.6100,0.055,-0.737,-0.532,-0.66,-0.09,-1.35,-0.18,0.97,-0.0
2022-01-30 18:55:49.6200,0.075,-0.743,-0.538,-0.77,0.0,-1.39,-0.27,1.17,0.24
2022-01-30 18:55:49.6270,0.093,-0.734,-0.587,-0.89,0.02,-1.21,-0.25,1.1,0.4
2022-01-30 18:55:49.6380,0.11,-0.725,-0.638,-1.04,-0.07,-0.65,-0.17,0.96,0.56
2022-01-30 18:55:49.6500,0.113,-0.709,-0.666,-1.15,-0.15,-0.29,-0.04,0.75,0.69
2022-01-30 18:55:49.6600,0.092,-0.676,-0.704,-1.1,-0.36,0.01,0.09,0.49,0.77
2022-01-30 18:55:49.6690,0.057,-0.641,-0.726,-0.84,-0.74,0.39,0.18,0.34,0.82
2022-01-30 18:55:49.6800,0.035,-0.628,-0.697,-0.56,-1.01,0.42,0.22,0.36,0.85
2022-01-30 18:55:49.6900,0.035,-0.629,-0.666,-0.47,-1.09,0.07,0.22,0.5,0.85
2022-01-30 18:55:49.7000,0.051,-0.634,-0.643,-0.56,-1.08,-0.16,0.18,0.73,0.87
2022-01-30 18:55:49.7100,0.082,-0.644,-0.619,-0.78,-1.01,-0.39,0.09,0.98,0.91
2022-01-30 18:55:49.7200,0.107,-0.653,-0.633,-1.11,-0.91,-0.53,-0.05,1.16,1.01
2022-01-30 18:55:49.7300,0.104,-0.651,-0.676,-1.25,-0.85,-0.24,-0.21,1.26,1.14
2022-01-30 18:55:49.7400,0.086,-0.655,-0.698,-1.15,-0.87,0.13,-0.32,1.35,1.28
2022-01-30 18:55:49.7500,0.056,-0.67,-0.72,-0.6220425885915757,-0.6008943790197373,0.56,-0.34,1.36,1.38
2022-01-30 18:55:49.7610,0.032,-0.668,-0.773,-0.63,-0.61,0.56,-0.34,1.23,1.39
2022-01-30 18:55:49.7700,0.029,-0.666,-0.825,-0.54,-0.58,1.51,-0.14,1.02,1.34
2022-01-30 18:55:49.7800,0.028,-0.68,-0.856,-0.54,-0.58,1.51,0.05,0.77,1.25
2022-01-30 18:55:49.7900,0.018,-0.686,-0.867,-0.52,-0.45,1.76,0.24,0.54,1.11
2022-01-30 18:55:49.8000,0.016,-0.679,-0.862,-0.49,-0.46,1.78,0.4,0.34,0.95
2022-01-30 18:55:49.8100,0.017,-0.669,-0.873,-0.53,-0.58,1.82,0.52,0.17,0.81
2022-01-30 18:55:49.8200,0.018,-0.673,-0.861,-0.59,-0.67,1.93,0.59,0.1,0.75
2022-01-30 18:55:49.8300,0.014,-0.678,-0.837,-0.64,-0.64,1.76,0.63,0.11,0.76
2022-01-30 18:55:49.8400,0.001,-0.675,-0.817,-0.52,-0.77,1.41,0.67,0.17,0.78
2022-01-30 18:55:49.8590,-0.015,-0.659,-0.782,-0.4,-0.97,1.08,0.67,0.17,0.78
2022-01-30 18:55:49.8610,-0.028,-0.648,-0.749,-0.4,-0.97,1.08,0.71,0.27,0.8
2022-01-30 18:55:49.8700,-0.027,-0.653,-0.736,-0.35,-1.06,0.88,0.67,0.28,0.71
2022-01-30 18:55:49.8790,-0.025,-0.676,-0.723,-0.43,-0.98,0.84,0.6,0.23,0.62
2022-01-30 18:55:49.8890,-0.03,-0.7,-0.697,-0.45,-0.76,0.69,0.52,0.2,0.49
2022-01-30 18:55:49.8990,-0.039,-0.71,-0.672,-0.4,-0.59,0.47,0.44,0.25,0.35
2022-01-30 18:55:49.9090,-0.048,-0.71,-0.648,-0.32,-0.56,0.26,0.35,0.32,0.21
2022-01-30 18:55:49.9190,-0.054,-0.7,-0.629,-0.24,-0.61,0.06,0.24,0.4,0.08
2022-01-30 18:55:49.9300,-0.062,-0.678,-0.621,-0.16,-0.77,-0.08,0.09,0.48,-0.03
2022-01-30 18:55:49.9400,-0.076,-0.654,-0.607,0.15,-1.22,-0.3,-0.07,0.57,-0.12
2022-01-30 18:55:49.9510,-0.084,-0.636,-0.604,0.15,-1.22,-0.3,-0.22,0.66,-0.18
2022-01-30 18:55:49.9600,-0.083,-0.625,-0.614,0.25,-1.36,-0.3,-0.31,0.71,-0.2
2022-01-30 18:55:49.9710,-0.085,-0.62,-0.637,0.29,-1.42,-0.18,-0.31,0.74,-0.17
2022-01-30 18:55:49.9800,-0.088,-0.623,-0.667,0.44,-1.36,0.35,-0.2,0.7,-0.08
2022-01-30 18:55:49.9910,-0.083,-0.631,-0.697,0.44,-1.36,0.35,0.02,0.64,0.02
2022-01-30 18:55:50.0000,-0.071,-0.637,-0.693,0.4,-1.29,0.55,0.28,0.58,0.12
2022-01-30 18:55:50.0110,-0.058,-0.649,-0.669,0.29,-1.24,0.42,0.49,0.53,0.21
2022-01-30 18:55:50.0210,-0.046,-0.668,-0.638,0.18,-1.11,0.2,0.59,0.48,0.26
2022-01-30 18:55:50.0310,-0.032,-0.685,-0.594,0.07,-0.98,-0.12,0.59,0.45,0.27
2022-01-30 18:55:50.0410,-0.02,-0.706,-0.561,-0.06,-0.82,-0.5,0.48,0.4,0.23
2022-01-30 18:55:50.0510,-0.009,-0.725,-0.559,-0.15,-0.66,-0.69,0.27,0.31,0.17
2022-01-30 18:55:50.0610,-0.002,-0.751,-0.573,-0.26,-0.46,-0.6,0.06,0.24,0.12
2022-01-30 18:55:50.0710,-0.012,-0.77,-0.584,-0.27,-0.21,-0.45,-0.07,0.25,0.1
2022-01-30 18:55:50.0810,-0.027,-0.773,-0.601,-0.12,-0.08,-0.38,-0.07,0.29,0.11
2022-01-30 18:55:50.0910,-0.036,-0.771,-0.642,0.1,-0.07,0.26,0.07,0.36,0.11
2022-01-30 18:55:50.1010,-0.042,-0.784,-0.658,0.1,-0.07,0.26,0.28,0.43,0.14
2022-01-30 18:55:50.1120,-0.051,-0.802,-0.658,0.29,0.24,0.36,0.48,0.44,0.19
2022-01-30 18:55:50.1210,-0.06,-0.832,-0.638,0.29,0.24,0.36,0.65,0.49,0.26
2022-01-30 18:55:50.1310,-0.055,-0.902,-0.57,0.35,0.64,0.02,0.76,0.6,0.32
2022-01-30 18:55:50.1410,-0.04,-0.964,-0.52,0.26,1.34,-0.64,0.71,0.61,0.3
2022-01-30 18:55:50.1520,-0.032,-0.983,-0.537,0.14,1.73,-0.83,0.49,0.39,0.18
2022-01-30 18:55:50.1610,-0.031,-1.001,-0.579,0.1,1.83,-0.46,0.16,0.05,0.01
2022-01-30 18:55:50.1720,-0.026,-1.037,-0.589,0.08,2.08,-0.12,-0.16,-0.2,-0.16
2022-01-30 18:55:50.1810,-0.022,-1.066,-0.568,0.03,2.46,-0.19,-0.39,-0.26,-0.26
2022-01-30 18:55:50.1920,-0.032,-1.057,-0.557,0.03,2.65,-0.42,-0.48,-0.14,-0.28
2022-01-30 18:55:50.2010,-0.038,-1.032,-0.54,0.19,2.29,-0.81,-0.43,0.14,-0.23
2022-01-30 18:55:50.2120,-0.031,-1.02,-0.513,0.19,2.29,-0.81,-0.27,0.5,-0.08
2022-01-30 18:55:50.2220,-0.023,-1.027,-0.478,0.08,2.4,-1.51,-0.07,0.89,0.12
2022-01-30 18:55:50.2320,0.001,-1.05,-0.437,0.08,2.4,-1.51,0.09,1.15,0.31
2022-01-30 18:55:50.2420,0.027,-1.08,-0.418,-0.16,2.66,-1.83,0.16,1.24,0.45
2022-01-30 18:55:50.2520,0.041,-1.108,-0.405,-0.45,3.19,-2.08,0.13,1.15,0.5
2022-01-30 18:55:50.2620,0.063,-1.132,-0.392,-0.63,3.42,-2.2,0.04,0.95,0.49
2022-01-30 18:55:50.2720,0.077,-1.152,-0.384,-0.63,3.42,-2.2,-0.08,0.66,0.44
2022-01-30 18:55:50.2820,0.084,-1.156,-0.404,-0.75,3.58,-2.21,-0.18,0.3,0.39
2022-01-30 18:55:50.2920,0.074,-1.14,-0.437,-0.78,3.55,-1.94,-0.26,-0.03,0.38
2022-01-30 18:55:50.3020,0.044,-1.105,-0.454,-0.64,3.36,-1.68,-0.28,-0.27,0.39
2022-01-30 18:55:50.3120,0.0,-1.056,-0.473,-0.32,2.95,-1.56,-0.24,-0.38,0.39
2022-01-30 18:55:50.3220,-0.043,-1.016,-0.485,0.06,2.49,-1.38,-0.12,-0.32,0.34
2022-01-30 18:55:50.3320,-0.07,-0.987,-0.474,0.4,2.16,-1.37,0.04,-0.14,0.23
2022-01-30 18:55:50.3420,-0.072,-0.964,-0.461,0.48,1.69,-1.63,0.18,0.08,0.06
2022-01-30 18:55:50.3520,-0.05,-0.951,-0.444,0.22,1.6,-1.77,0.25,0.24,-0.11
2022-01-30 18:55:50.3630,-0.01,-0.949,-0.429,0.22,1.6,-1.77,0.22,0.3,-0.23
2022-01-30 18:55:50.3720,0.027,-0.949,-0.412,-0.42,1.58,-2.07,0.11,0.32,-0.28
2022-01-30 18:55:50.3830,0.048,-0.949,-0.394,-0.42,1.58,-2.07,-0.03,0.3,-0.25
2022-01-30 18:55:50.3920,0.066,-0.951,-0.382,-0.57,1.58,-2.24,-0.15,0.28,-0.14
2022-01-30 18:55:50.4020,0.078,-0.958,-0.379,-0.76,1.7,-2.36,-0.21,0.27,-0.0
2022-01-30 18:55:50.4130,0.078,-0.954,-0.384,-0.7220790928602219,1.6112236618995668,-2.28,-0.2,0.26,0.1
2022-01-30 18:55:50.4230,0.07,-0.937,-0.399,-0.73,1.61,-2.28,-0.15,0.25,0.14
2022-01-30 18:55:50.4330,0.057,-0.928,-0.412,-0.61,1.45,-2.13,-0.05,0.28,0.16
2022-01-30 18:55:50.4430,0.046,-0.931,-0.425,-0.37,1.46,-1.9,0.08,0.33,0.14
2022-01-30 18:55:50.4530,0.037,-0.938,-0.422,-0.37,1.46,-1.9,0.08,0.33,0.14
2022-01-30 18:55:50.4630,0.04,-0.961,-0.4,-0.3,1.57,-2.04,0.3,0.52,0.13
2022-01-30 18:55:50.4730,0.045,-0.982,-0.409,-0.34,1.8,-2.16,0.31,0.45,0.16
2022-01-30 18:55:50.4820,0.049,-0.99,-0.42,-0.36,1.94,-1.97,0.27,0.29,0.21
2022-01-30 18:55:50.4920,0.058,-0.999,-0.42,-0.42,1.99,-1.9,0.27,0.29,0.21
2022-01-30 18:55:50.5030,0.069,-1.008,-0.43,-0.55,2.08,-1.87,0.22,0.05,0.26
2022-01-30 18:55:50.5130,0.079,-0.989,-0.451,-0.69,2.08,-1.7,0.15,-0.53,0.26
2022-01-30 18:55:50.5220,0.084,-0.949,-0.463,-0.84,1.8,-1.5,0.1,-0.69,0.21
2022-01-30 18:55:50.5330,0.073,-0.893,-0.456,-0.88,1.34,-1.44,0.03,-0.69,0.15
2022-01-30 18:55:50.5430,0.059,-0.84,-0.443,-0.68,0.27,-1.69,-0.06,-0.51,0.07
2022-01-30 18:55:50.5530,0.04,-0.79,-0.428,-0.5,-0.17,-1.87,-0.14,-0.19,-0.0
2022-01-30 18:55:50.5630,0.026,-0.756,-0.406,-0.5,-0.17,-1.87,-0.2,0.23,-0.05
2022-01-30 18:55:50.5730,0.026,-0.743,-0.387,-0.4,-0.41,-2.13,-0.23,0.62,-0.04
2022-01-30 18:55:50.5830,0.035,-0.746,-0.401,-0.4,-0.46,-2.22,-0.26,0.85,0.03
2022-01-30 18:55:50.5930,0.058,-0.762,-0.429,-0.47,-0.36,-2.03,-0.28,0.92,0.11
2022-01-30 18:55:50.6030,0.086,-0.791,-0.457,-0.7,-0.14,-1.77,-0.29,0.85,0.19
2022-01-30 18:55:50.6130,0.102,-0.82,-0.477,-0.91,0.19,-1.54,-0.26,0.7,0.25
2022-01-30 18:55:50.6230,0.104,-0.829,-0.5,-0.99,0.43,-1.37,-0.18,0.49,0.26
2022-01-30 18:55:50.6330,0.095,-0.821,-0.519,-0.95,0.46,-1.15,-0.07,0.31,0.23
2022-01-30 18:55:50.6430,0.079,-0.813,-0.531,-0.84,0.36,-1.01,0.07,0.14,0.19
2022-01-30 18:55:50.6530,0.052,-0.811,-0.533,-0.65,0.31,-0.89,0.21,0.06,0.13
2022-01-30 18:55:50.6630,0.031,-0.803,-0.526,-0.39,0.25,-0.9090549230575562,0.31,0.02,0.06
2022-01-30 18:55:50.6730,0.022,-0.806,-0.534,-0.23,0.17,-0.91,0.31,0.02,0.06
2022-01-30 18:55:50.6840,0.024,-0.831,-0.528,-0.22,0.52,-0.92,0.35,0.15,-0.0
2022-01-30 18:55:50.6930,0.032,-0.851,-0.514,-0.31,0.6,-0.99,0.36,0.32,0.02
2022-01-30 18:55:50.7040,0.047,-0.85,-0.516,-0.31,0.6,-0.99,0.36,0.48,0.04
2022-01-30 18:55:50.7130,0.06,-0.852,-0.528,-0.43,0.56,-0.89,0.37,0.56,0.06
2022-01-30 18:55:50.7230,0.063,-0.858,-0.547,-0.5,0.59,-0.71,0.34,0.58,0.06
2022-01-30 18:55:50.7330,0.065,-0.86,-0.55,-0.48,0.6,-0.55,0.31,0.53,0.0
2022-01-30 18:55:50.7440,0.062,-0.86,-0.569,-0.38,0.56,-0.2,0.28,0.41,-0.1
2022-01-30 18:55:50.7540,0.057,-0.853,-0.594,-0.38,0.56,-0.2,0.26,0.27,-0.23
2022-01-30 18:55:50.7630,0.055,-0.853,-0.609,-0.3,0.5,0.0,0.29,0.14,-0.35
2022-01-30 18:55:50.7740,0.062,-0.848,-0.629,-0.29,0.48,0.21,0.29,0.14,-0.35
2022-01-30 18:55:50.7840,0.066,-0.843,-0.622,-0.33,0.4,0.36,0.43,0.01,-0.41
2022-01-30 18:55:50.7940,0.066,-0.834,-0.615,-0.31,0.32,0.26,0.43,0.01,-0.41
2022-01-30 18:55:50.8040,0.067,-0.832,-0.615,-0.29,0.2,0.3,0.46,0.02,-0.18
2022-01-30 18:55:50.8140,0.069,-0.856,-0.589,-0.29,0.26,0.24,0.45,0.12,0.03
2022-01-30 18:55:50.8240,0.068,-0.877,-0.573,-0.28,0.64,0.01,0.45,0.18,0.23
2022-01-30 18:55:50.8340,0.062,-0.894,-0.59,-0.28,0.64,0.01,0.45,0.16,0.37
2022-01-30 18:55:50.8430,0.055,-0.928,-0.606,-0.24,0.84,0.24,0.45,0.07,0.45
2022-01-30 18:55:50.8540,0.032,-0.959,-0.62,-0.17,1.16,0.41,0.47,-0.05,0.4
2022-01-30 18:55:50.8640,-0.007,-0.958,-0.639,0.1,1.36,0.61,0.47,-0.17,0.22
2022-01-30 18:55:50.8740,-0.043,-0.928,-0.658,0.47,1.17,0.84,0.46,-0.26,-0.03
2022-01-30 18:55:50.8840,-0.062,-0.911,-0.662,0.75,0.88,1.03,0.47,-0.23,-0.28
2022-01-30 18:55:50.8940,-0.061,-0.895,-0.633,0.89,0.71,1.0,0.47,-0.07,-0.46
2022-01-30 18:55:50.9050,-0.038,-0.874,-0.602,0.83,0.51,0.66,0.47,-0.07,-0.46
2022-01-30 18:55:50.9140,-0.014,-0.859,-0.609,0.61,0.3,0.54,0.32,0.18,-0.53
2022-01-30 18:55:50.9240,-0.0,-0.84,-0.611,0.48,0.13,0.67,0.32,0.18,-0.53
2022-01-30 18:55:50.9340,0.012,-0.83,-0.595,0.4,-0.05,0.61,0.2,0.25,-0.46
2022-01-30 18:55:50.9440,0.026,-0.834,-0.603,0.33,-0.09,0.51,0.0,0.28,-0.34
2022-01-30 18:55:50.9550,0.033,-0.83,-0.628,0.24,-0.05,0.69,0.0,0.21911583840847015,-0.34
2022-01-30 18:55:50.9640,0.028,-0.806,-0.646,0.26,-0.15,0.92,-0.03,0.22,-0.34
2022-01-30 18:55:50.9740,0.018,-0.77,-0.657,0.38,-0.45,1.07,0.08,0.09,-0.39
2022-01-30 18:55:50.9840,0.019,-0.743,-0.656,0.48,-0.79,1.14,0.17,0.04,-0.42
2022-01-30 18:55:50.9940,0.033,-0.723,-0.649,0.33,-1.2,1.02,0.23,0.02,-0.42
2022-01-30 18:55:51.0050,0.05,-0.714,-0.624,0.21,-1.25,0.73,0.28,0.05,-0.37
2022-01-30 18:55:51.0140,0.065,-0.714,-0.589,0.21,-1.25,0.73,0.28,0.05,-0.37
2022-01-30 18:55:51.0240,0.08,-0.711,-0.564,0.08,-1.28,0.44,0.33,0.1,-0.14
2022-01-30 18:55:51.0340,0.092,-0.719,-0.544,-0.04,-1.3,0.26,0.33,0.1,-0.14
2022-01-30 18:55:51.0440,0.102,-0.737,-0.524,-0.26,-1.02,-0.06,0.37,0.03,0.18
2022-01-30 18:55:51.0550,0.107,-0.755,-0.514,-0.26,-1.02,-0.06,0.4,-0.07,0.31
2022-01-30 18:55:51.0640,0.098,-0.767,-0.506,-0.29,-0.89,-0.09,0.42220982909202576,-0.18,0.39
2022-01-30 18:55:51.0750,0.083,-0.783,-0.488,-0.11,-0.63,-0.34,0.43,-0.26,0.4
2022-01-30 18:55:51.0850,0.07,-0.807,-0.469,-0.11,-0.63,-0.34,0.42,-0.32,0.34
2022-01-30 18:55:51.0940,0.057,-0.826,-0.457,0.05,-0.29,-0.56,0.39,-0.33,0.23
2022-01-30 18:55:51.1050,0.049,-0.837,-0.438,0.05,-0.29,-0.56,0.34,-0.3,0.08
2022-01-30 18:55:51.1140,0.045,-0.844,-0.42,0.09,-0.2,-0.74,0.26,-0.23,-0.08
2022-01-30 18:55:51.1250,0.046,-0.843,-0.414,0.11,-0.18,-0.85,0.16,-0.16,-0.22
2022-01-30 18:55:51.1350,0.052,-0.839,-0.41,0.09,-0.21,-0.89,0.05,-0.06,-0.31
2022-01-30 18:55:51.1450,0.056,-0.83,-0.411,0.06,-0.26,-0.92,-0.04,0.02,-0.34
2022-01-30 18:55:51.1550,0.065,-0.816,-0.42,0.03,-0.37,-0.88,-0.08,0.08,-0.33
2022-01-30 18:55:51.1650,0.079,-0.803,-0.431,-0.04,-0.5,-0.79,-0.08,0.08,-0.33
2022-01-30 18:55:51.1750,0.088,-0.788,-0.447,-0.14,-0.62,-0.67,-0.05,0.08,-0.25
2022-01-30 18:55:51.1850,0.091,-0.769,-0.46,-0.19,-0.78,-0.52,-0.0,0.01,-0.2
2022-01-30 18:55:51.1940,0.092,-0.754,-0.473,-0.19,-0.97,-0.4,0.05,-0.08,-0.16
2022-01-30 18:55:51.2050,0.092,-0.748,-0.49,-0.19,-1.08,-0.25,0.12,-0.16,-0.13
2022-01-30 18:55:51.2150,0.096,-0.748,-0.494,-0.19,-1.12,-0.1,0.2,-0.2,-0.1
2022-01-30 18:55:51.2250,0.103,-0.75,-0.5,-0.26,-1.12,-0.08,0.26,-0.22,-0.06
2022-01-30 18:55:51.2350,0.1,-0.757,-0.511,-0.3,-1.1,0.04,0.33,-0.19,-0.0
2022-01-30 18:55:51.2450,0.104,-0.776,-0.5,-0.28,-1.01,0.13,0.39,-0.09,0.08
2022-01-30 18:55:51.2560,0.115,-0.805,-0.486,-0.36,-0.79,-0.03,0.41,-0.02,0.15
2022-01-30 18:55:51.2650,0.128,-0.834,-0.5,-0.5,-0.53,-0.01,0.36,-0.01,0.21
2022-01-30 18:55:51.2750,0.136,-0.872,-0.519,-0.64,-0.23,0.17,0.36,-0.01,0.21
2022-01-30 18:55:51.2860,0.131,-0.895,-0.554,-0.64,0.23,0.86,0.04,-0.21,0.26
2022-01-30 18:55:51.2960,0.116,-0.889,-0.621,-0.64,0.23,0.86,0.04,-0.21,0.26
2022-01-30 18:55:51.3060,0.086,-0.869,-0.707,-0.16,-0.11,2.33,-0.34,-0.59,0.11
2022-01-30 18:55:51.3160,0.043,-0.837,-0.756,-0.16,-0.11,2.33,-0.4,-0.59,0.01
2022-01-30 18:55:51.3260,0.015,-0.802,-0.785,0.19,-0.43,2.90000086247921,-0.31,-0.44,-0.11
2022-01-30 18:55:51.3350,-0.005,-0.763,-0.801,0.42,-0.77,2.9,-0.13,-0.17,-0.21
2022-01-30 18:55:51.3450,-0.006,-0.733,-0.791,0.57,-1.13,2.94,0.09,0.16,-0.26
2022-01-30 18:55:51.3560,0.007,-0.724,-0.776,0.55,-1.36,2.79,0.25,0.43,-0.23
2022-01-30 18:55:51.3650,0.038,-0.736,-0.777,0.4,-1.38,2.72,0.33,0.54,-0.14
2022-01-30 18:55:51.3760,0.077,-0.764,-0.782,0.08,-1.2,2.81,0.36,0.5,-0.01
2022-01-30 18:55:51.3860,0.102,-0.789,-0.773,-0.25,-0.93,2.85,0.37,0.38,0.09
2022-01-30 18:55:51.3950,0.117,-0.792,-0.757,-0.44,-0.77,2.74,0.37,0.21,0.14
2022-01-30 18:55:51.4060,0.113,-0.781,-0.735,-0.54,-0.83,2.61,0.36,0.04,0.13
2022-01-30 18:55:51.4150,0.092,-0.762,-0.696,-0.43,-0.99,2.37,0.32,-0.04,0.08
2022-01-30 18:55:51.4250,0.066,-0.741,-0.651,-0.2,-1.21,1.96,0.22,-0.03,0.01
2022-01-30 18:55:51.4350,0.048,-0.728,-0.613,0.04,-1.4,1.55,0.22,-0.03,0.01
2022-01-30 18:55:51.4460,0.038,-0.726,-0.595,0.19,-1.49,1.25,-0.07,0.19,-0.14
2022-01-30 18:55:51.4560,0.042,-0.734,-0.587,0.21,-1.33,1.05,-0.21,0.33,-0.21
2022-01-30 18:55:51.4660,0.058,-0.75,-0.592,0.21,-1.33,1.05,-0.33,0.44,-0.26
2022-01-30 18:55:51.4760,0.071,-0.759,-0.607,0.02,-1.1,1.25,-0.39,0.53,-0.26
2022-01-30 18:55:51.4870,0.08,-0.759,-0.621,0.02,-1.1,1.25,-0.41,0.57,-0.23
2022-01-30 18:55:51.4960,0.086,-0.753,-0.643,0.0,-1.1,1.37,-0.41,0.57,-0.23
2022-01-30 18:55:51.5070,0.091,-0.75,-0.666,-0.03,-1.12,1.77,-0.36,0.48,-0.12
2022-01-30 18:55:51.5170,0.095,-0.752,-0.69,-0.03,-1.12,1.77,-0.27,0.35,-0.05
2022-01-30 18:55:51.5260,0.093,-0.747,-0.706,-0.03,-1.12,1.97,-0.17,0.19,0.0
2022-01-30 18:55:51.5360,0.079,-0.742,-0.719,0.03,-1.16,2.09,-0.05,0.02,0.05
2022-01-30 18:55:51.5460,0.057,-0.732,-0.723,0.21,-1.21,2.21,0.05,-0.12,0.08
2022-01-30 18:55:51.5570,0.035,-0.722,-0.711,0.41,-1.34,2.17,0.11,-0.23,0.11
2022-01-30 18:55:51.5660,0.017,-0.723,-0.696,0.6,-1.39,2.05,0.12,-0.29,0.12
2022-01-30 18:55:51.5760,0.007,-0.724,-0.676,0.71,-1.38,1.88,0.09,-0.29,0.11
2022-01-30 18:55:51.5870,-0.002,-0.732,-0.652,0.79,-1.38,1.69,0.03,-0.22,0.1
2022-01-30 18:55:51.5960,-0.006,-0.754,-0.621,0.84,-1.22,1.4,-0.05,-0.09,0.07
2022-01-30 18:55:51.6060,-0.01,-0.77,-0.605,0.85,-1.01,1.13,-0.14,0.02,0.01
2022-01-30 18:55:51.6160,-0.013,-0.779,-0.605,0.91,-0.89,1.04,-0.22,0.08,-0.08
2022-01-30 18:55:51.6270,-0.006,-0.791,-0.6,0.91,-0.78,1.01,-0.3,0.12,-0.17
2022-01-30 18:55:51.6370,0.007,-0.81,-0.593,0.85,-0.62,0.92,-0.37,0.13,-0.25
2022-01-30 18:55:51.6460,0.029,-0.832,-0.593,0.5,-0.15,0.85,-0.44,0.06,-0.31
2022-01-30 18:55:51.6570,0.054,-0.856,-0.609,0.5,-0.15,0.85,-0.51,-0.07,-0.34
2022-01-30 18:55:51.6670,0.079,-0.884,-0.63,0.28,0.13,1.0,-0.57,-0.25,-0.35
2022-01-30 18:55:51.6770,0.104,-0.909,-0.648,0.04,0.45,1.14,-0.62,-0.45,-0.35
2022-01-30 18:55:51.6870,0.111,-0.91,-0.672,-0.16,0.66,1.28,-0.64,-0.63,-0.34
2022-01-30 18:55:51.6970,0.089,-0.881,-0.681,-0.12,0.58,1.43,-0.58,-0.73,-0.31
2022-01-30 18:55:51.7070,0.059,-0.853,-0.665,0.15,0.29,1.37,-0.44,-0.75,-0.27
2022-01-30 18:55:51.7170,0.041,-0.833,-0.643,0.38,0.1,1.12,-0.44,-0.75,-0.27
2022-01-30 18:55:51.7270,0.033,-0.803,-0.633,0.56,-0.44,0.84,-0.13,-0.87,-0.3
2022-01-30 18:55:51.7370,0.015,-0.754,-0.641,0.56,-0.44,0.84,-0.13,-1.08,-0.36
2022-01-30 18:55:51.7470,-0.017,-0.685,-0.665,1.04,-1.62,1.14,-0.26,-1.25,-0.41
2022-01-30 18:55:51.7570,-0.038,-0.658,-0.66,1.04,-1.62,1.14,-0.4,-1.16,-0.41
2022-01-30 18:55:51.7670,-0.027,-0.71,-0.604,1.13,-1.54,0.84,-0.4,-1.16,-0.41
2022-01-30 18:55:51.7770,0.015,-0.766,-0.573,0.85,-0.87,0.22,-0.38,-0.36,-0.35
2022-01-30 18:55:51.7870,0.042,-0.768,-0.615,0.46,-0.49,0.18,-0.31,-0.1,-0.35
2022-01-30 18:55:51.7970,0.044,-0.745,-0.644,0.32,-0.59,0.63,-0.23,0.01,-0.33
2022-01-30 18:55:51.8080,0.021,-0.731,-0.648,0.42,-0.79,0.75,-0.19,0.01,-0.27
2022-01-30 18:55:51.8170,-0.001,-0.716,-0.652,0.87,-1.03,0.78,-0.15,-0.06,-0.22
2022-01-30 18:55:51.8280,-0.002,-0.707,-0.649,0.79,-1.07,0.75,-0.15,-0.06,-0.22
2022-01-30 18:55:51.8460,0.013,-0.706,-0.658,0.62,-1.1,0.88,-0.07,-0.18,-0.17
2022-01-30 18:55:51.8470,0.029,-0.698,-0.66,0.62,-1.1,0.88,0.1,-0.43,-0.1
2022-01-30 18:55:51.8560,0.041,-0.692,-0.624,0.45,-1.18,0.74,0.18,-0.42,-0.07
2022-01-30 18:55:51.8660,0.041,-0.68,-0.596,0.36,-1.26,0.37,0.22,-0.35,-0.02
2022-01-30 18:55:51.8760,0.04,-0.668,-0.58,0.36,-1.41,0.19,0.24,-0.28,0.06
2022-01-30 18:55:51.8860,0.047,-0.676,-0.568,0.33,-1.49,0.06,0.24,-0.28,0.06
2022-01-30 18:55:51.8970,0.057,-0.698,-0.568,0.21,-1.35,-0.02,0.3,-0.26,0.32
2022-01-30 18:55:51.9070,0.06,-0.724,-0.581,0.08,-1.14,0.08,0.35,-0.37,0.46
2022-01-30 18:55:51.9180,0.052,-0.753,-0.59,0.03,-0.89,0.23,0.4,-0.51,0.55
2022-01-30 18:55:51.9280,0.038,-0.777,-0.592,0.07,-0.64,0.32,0.44,-0.64,0.59
2022-01-30 18:55:51.9380,0.017,-0.794,-0.592,0.14,-0.45,0.35,0.46,-0.73,0.55
2022-01-30 18:55:51.9470,-0.008,-0.796,-0.582,0.28,-0.36,0.36,0.46,-0.74,0.45
2022-01-30 18:55:51.9580,-0.032,-0.788,-0.554,0.45,-0.42,0.24,0.44,-0.63,0.32
2022-01-30 18:55:51.9680,-0.049,-0.778,-0.515,0.61,-0.53,-0.07,0.44,-0.63,0.32
2022-01-30 18:55:51.9780,-0.058,-0.762,-0.481,0.71,-0.66,-0.41,0.27,-0.24,0.08
2022-01-30 18:55:51.9870,-0.057,-0.74,-0.448,0.75,-0.86,-0.72,0.27,-0.24,0.08
2022-01-30 18:55:51.9980,-0.051,-0.728,-0.422,0.71,-1.06,-1.01,-0.14,0.26,-0.09
2022-01-30 18:55:52.0080,-0.045,-0.719,-0.405,0.68,-1.13,-1.27,-0.14,0.26,-0.09
2022-01-30 18:55:52.0190,-0.035,-0.711,-0.405,0.6,-1.2,-1.4,-0.68,0.74,-0.21
2022-01-30 18:55:52.0280,-0.026,-0.714,-0.417,0.6,-1.11,-1.36,-0.94,0.97,-0.26
2022-01-30 18:55:52.0380,-0.018,-0.716,-0.427,0.6,-1.11,-1.36,-1.13,1.23,-0.32
2022-01-30 18:55:52.0480,-0.008,-0.711,-0.431,0.61,-1.05,-1.37,-1.24,1.52,-0.37
2022-01-30 18:55:52.0580,-0.007,-0.706,-0.43,0.8,-1.02,-1.51,-1.27,1.8,-0.4
2022-01-30 18:55:52.0690,-0.011,-0.693,-0.44,0.8,-1.02,-1.51,-1.27,1.8,-0.4
2022-01-30 18:55:52.0780,-0.02,-0.675,-0.443,1.0,-1.11,-1.51,-1.18,2.07,-0.38
2022-01-30 18:55:52.0890,-0.03,-0.668,-0.45,1.25,-1.19,-1.57,-1.09,2.02,-0.33
2022-01-30 18:55:52.0980,-0.038,-0.669,-0.468,1.66,-1.08,-1.39,-0.99,1.84,-0.26
2022-01-30 18:55:52.1080,-0.035,-0.667,-0.483,1.72,-1.05,-1.27,-0.85,1.56,-0.19
2022-01-30 18:55:52.1180,-0.03,-0.664,-0.505,1.72,-1.05,-1.27,-0.7,1.2,-0.1
2022-01-30 18:55:52.1270,-0.029,-0.662,-0.512,1.76,-1.03,-1.1,-0.7,1.2,-0.1
2022-01-30 18:55:52.1370,-0.027,-0.657,-0.486,1.8,-1.01,-1.19,-0.45,0.67,0.1
2022-01-30 18:55:52.1470,-0.019,-0.656,-0.455,1.8,-1.06,-1.52,-0.44,0.56,0.19
2022-01-30 18:55:52.1570,-0.009,-0.681,-0.442,1.63,-0.63,-1.92,-0.54,0.53,0.29
2022-01-30 18:55:52.1680,0.002,-0.707,-0.438,1.63,-0.63,-1.92,-0.54,0.53,0.29
2022-01-30 18:55:52.1770,0.012,-0.732,-0.454,1.44,-0.01,-1.8,-1.01,0.53,0.43
2022-01-30 18:55:52.1880,0.022,-0.773,-0.484,1.44,-0.01,-1.8,-1.25,0.53,0.45
2022-01-30 18:55:52.1980,0.038,-0.826,-0.538,1.33,0.55,-1.53,-1.46,0.46,0.41
2022-01-30 18:55:52.2060,0.053,-0.862,-0.628,1.15,1.11,-0.96,-1.57,0.3,0.35
2022-01-30 18:55:52.2160,0.052,-0.884,-0.717,1.04,1.51,-0.14,-1.53,0.07,0.28
2022-01-30 18:55:52.2260,0.04,-0.875,-0.799,1.09,1.73,0.58,-1.31,-0.23,0.21
2022-01-30 18:55:52.2360,0.037,-0.832,-0.883,1.17,1.59,1.3,-0.95,-0.64,0.15
2022-01-30 18:55:52.2460,0.057,-0.784,-0.944,1.06,1.17,2.02,-0.51,-1.08,0.08
2022-01-30 18:55:52.2560,0.097,-0.76,-0.941,0.69,0.79,2.35,-0.1,-1.47,0.04
2022-01-30 18:55:52.2660,0.137,-0.76,-0.907,0.16,0.68,2.13,-0.1,-1.47,0.04
2022-01-30 18:55:52.2760,0.164,-0.761,-0.849,-0.31,0.67,1.71,0.3,-1.97,0.1
2022-01-30 18:55:52.2860,0.179,-0.771,-0.781,-0.69,0.69,1.07,0.26,-2.03,0.16
2022-01-30 18:55:52.2960,0.171,-0.771,-0.729,-0.91,0.77,0.44,0.07,-2.02,0.18
2022-01-30 18:55:52.3060,0.147,-0.759,-0.698,-0.9,0.69,0.0,-0.21,-1.93,0.15
2022-01-30 18:55:52.3160,0.119,-0.761,-0.671,-0.79,0.63,-0.32,-0.52,-1.78,0.07
2022-01-30 18:55:52.3270,0.089,-0.759,-0.664,-0.64,0.7,-0.58,-0.811583936214447,-1.59,-0.08
2022-01-30 18:55:52.3360,0.055,-0.755,-0.672,-0.43,0.72,-0.62,-1.05,-1.38,-0.28
2022-01-30 18:55:52.3460,0.027,-0.754,-0.671,-0.2,0.79,-0.66,-1.22,-1.16,-0.48
2022-01-30 18:55:52.3560,0.001,-0.738,-0.682,0.03,0.82,-0.72,-1.32,-0.97,-0.68
2022-01-30 18:55:52.3660,-0.009,-0.724,-0.695,0.21,0.74,-0.67,-1.32,-0.97,-0.68
2022-01-30 18:55:52.3760,-0.001,-0.722,-0.693,0.24,0.75,-0.67,-1.3,-0.7,-0.94
2022-01-30 18:55:52.3860,0.025,-0.72,-0.69,0.09,0.85,-0.82,-1.24,-0.66,-1.0
2022-01-30 18:55:52.3960,0.057,-0.713,-0.703,-0.2,0.91,-0.86,-1.2,-0.69,-1.03
2022-01-30 18:55:52.4060,0.086,-0.704,-0.706,-0.49,0.93,-0.81,-1.19,-0.75,-1.02
2022-01-30 18:55:52.4160,0.102,-0.688,-0.698,-0.74,0.91,-0.91,-1.19,-0.79,-1.0
2022-01-30 18:55:52.4260,0.106,-0.666,-0.692,-0.85,0.84,-1.07,-1.22,-0.82,-0.96
2022-01-30 18:55:52.4360,0.105,-0.635,-0.702,-0.88,0.69,-1.16,-1.26,-0.9,-0.92
2022-01-30 18:55:52.4460,0.098,-0.603,-0.725,-0.86,0.46,-1.06,-1.29,-0.98,-0.88
2022-01-30 18:55:52.4560,0.085,-0.584,-0.734,-0.81,0.3,-0.95,-1.31,-1.04,-0.83
2022-01-30 18:55:52.4660,0.059,-0.573,-0.744,-0.68,0.26,-0.96,-1.3,-1.08,-0.78
2022-01-30 18:55:52.4760,0.021,-0.559,-0.766,-0.42,0.27,-0.89,-1.24,-1.09,-0.75
2022-01-30 18:55:52.4860,-0.014,-0.539,-0.786,-0.1,0.19,-0.71,-1.13,-1.04,-0.74
2022-01-30 18:55:52.4960,-0.037,-0.524,-0.794,0.16,0.1,-0.64,-0.99,-0.94,-0.77
2022-01-30 18:55:52.5070,-0.051,-0.513,-0.811,0.31,0.06,-0.59,-0.84,-0.86,-0.82
2022-01-30 18:55:52.5170,-0.06,-0.509,-0.833,0.4,0.04,-0.42,-0.74,-0.8,-0.9
2022-01-30 18:55:52.5260,-0.057,-0.513,-0.837,0.43,0.1,-0.3,-0.69,-0.75,-0.99
2022-01-30 18:55:52.5360,-0.041,-0.523,-0.837,0.34,0.22,-0.32,-0.73,-0.72,-1.11
2022-01-30 18:55:52.5470,-0.022,-0.539,-0.86,0.13,0.41,-0.32,-0.86,-0.8,-1.25
2022-01-30 18:55:52.5570,-0.009,-0.542,-0.914,-0.03,0.61,-0.01,-1.1,-0.99,-1.44
2022-01-30 18:55:52.5670,0.002,-0.542,-0.975,-0.18,0.7,0.53,-1.37,-1.25,-1.67
2022-01-30 18:55:52.5770,-0.002,-0.528,-1.028,-0.29,0.81,1.05,-1.61,-1.49,-1.93
2022-01-30 18:55:52.5870,-0.026,-0.473,-1.068,-0.22,0.68,1.45,-1.79,-1.65,-2.2
2022-01-30 18:55:52.5970,-0.06,-0.405,-1.086,0.04,0.18,1.72,-1.89,-1.62,-2.44
2022-01-30 18:55:52.6070,-0.077,-0.362,-1.068,0.28,-0.26,1.68,-1.9,-1.39,-2.61
2022-01-30 18:55:52.6170,-0.076,-0.34,-1.035,0.37,-0.42,1.34,-1.82,-1.02,-2.67
2022-01-30 18:55:52.6270,-0.063,-0.325,-0.999,0.31,-0.44,0.96,-1.68,-0.54,-2.63
2022-01-30 18:55:52.6370,-0.041,-0.317,-0.954,0.22,-0.42,0.49,-1.5,-0.07,-2.52
2022-01-30 18:55:52.6470,0.009,-0.327,-0.917,0.0,-0.33,0.02,-1.34,0.31,-2.36
2022-01-30 18:55:52.6570,0.081,-0.363,-0.89,-0.49,-0.02,-0.34,-1.23,0.56,-2.18
2022-01-30 18:55:52.6670,0.16,-0.432,-0.86,-1.1,0.57,-0.66,-1.19,0.65,-1.97
2022-01-30 18:55:52.6770,0.226,-0.501,-0.848,-1.74,1.42,-0.95,-1.2,0.56,-1.78
2022-01-30 18:55:52.6870,0.274,-0.54,-0.848,-2.21,2.11,-1.04,-1.23,0.31,-1.63
2022-01-30 18:55:52.6970,0.306,-0.568,-0.862,-2.56,2.53,-1.04,-1.25,-0.06,-1.47
2022-01-30 18:55:52.7070,0.315,-0.6,-0.895,-2.76,2.96,-0.87,-1.23,-0.54,-1.29
2022-01-30 18:55:52.7170,0.308,-0.623,-0.939,-2.81,3.37,-0.51,-1.13,-1.01,-1.07
2022-01-30 18:55:52.7270,0.285,-0.63,-0.97,-2.74,3.64,-0.16,-0.95,-1.43,-0.83
2022-01-30 18:55:52.7370,0.262,-0.625,-1.008,-2.62,3.75,0.13,-0.7,-1.77,-0.58
2022-01-30 18:55:52.7470,0.243,-0.619,-1.042,-2.58,3.74,0.51,-0.4,-1.99,-0.34
2022-01-30 18:55:52.7580,0.222,-0.622,-1.063,-2.57,3.76,0.76,-0.09,-2.11,-0.12
2022-01-30 18:55:52.7680,0.204,-0.622,-1.086,-2.56,3.8,1.0,0.19,-2.14,0.06
2022-01-30 18:55:52.7770,0.196,-0.621,-1.087,-2.63,3.75,1.16,0.41,-2.08,0.19
2022-01-30 18:55:52.7880,0.191,-0.633,-1.082,-2.77,3.76,1.16,0.55,-1.97,0.27
2022-01-30 18:55:52.8010,0.183,-0.639,-1.075,-2.99,3.82,1.06,0.62,-1.82,0.3
2022-01-30 18:55:52.8110,0.173,-0.646,-1.058,-2.99,3.82,1.06,0.62,-1.63,0.28
2022-01-30 18:55:52.8210,0.167,-0.656,-1.042,-3.07,3.85,0.93,0.6,-1.43,0.2
2022-01-30 18:55:52.8310,0.162,-0.665,-1.033,-3.21,3.93,0.78,0.55,-1.23,0.09
2022-01-30 18:55:52.8410,0.156,-0.672,-1.022,-3.21,3.93,0.78,0.55,-1.23,0.09
2022-01-30 18:55:52.8520,0.155,-0.68,-1.014,-3.25,3.95,0.7,0.44,-0.82,-0.17
2022-01-30 18:55:52.8610,0.164,-0.691,-1.013,-3.35,4.0,0.67,0.4,-0.64,-0.28
2022-01-30 18:55:52.8710,0.182,-0.704,-1.019,-3.76,4.13,0.82,0.37,-0.5,-0.38
2022-01-30 18:55:52.8810,0.203,-0.706,-1.03,-3.76,4.13,0.82,0.38,-0.39,-0.44
2022-01-30 18:55:52.8910,0.217,-0.702,-1.039,-3.96,4.08,0.94,0.42,-0.29,-0.47
2022-01-30 18:55:52.9020,0.236,-0.701,-1.05,-4.11,4.0,1.04,0.48,-0.22,-0.46
2022-01-30 18:55:52.9110,0.258,-0.697,-1.065,-4.56,3.84,1.34,0.55,-0.19,-0.44
2022-01-30 18:55:52.9210,0.285,-0.694,-1.074,-4.56,3.84,1.34,0.61,-0.18,-0.4
2022-01-30 18:55:52.9310,0.309,-0.688,-1.079,-4.84,3.74,1.43,0.67,-0.17,-0.34
2022-01-30 18:55:52.9410,0.324,-0.68,-1.085,-5.04,3.6,1.51,0.71,-0.13,-0.27
2022-01-30 18:55:52.9520,0.331,-0.675,-1.09,-5.16,3.46,1.59,0.74,-0.01,-0.18
2022-01-30 18:55:52.9610,0.337,-0.676,-1.101,-5.21,3.36,1.65,0.76,0.17,-0.08
2022-01-30 18:55:52.9710,0.342,-0.673,-1.133,-5.25,3.3,1.86,0.74,0.37,0.0
2022-01-30 18:55:52.9810,0.345,-0.67,-1.191,-5.26,3.2,2.28,0.64,0.57,0.07
2022-01-30 18:55:52.9910,0.335,-0.664,-1.267,-5.21,3.11,2.95,0.64,0.57,0.07
2022-01-30 18:55:53.0020,0.302,-0.65,-1.358,-4.96,3.01,3.73,0.49,0.8,0.13
2022-01-30 18:55:53.0120,0.247,-0.61,-1.46,-3.75,2.23,5.64,0.33,1.29,0.22
2022-01-30 18:55:53.0220,0.182,-0.548,-1.541,-3.75,2.23,5.64,0.49,1.6,0.24
2022-01-30 18:55:53.0310,0.123,-0.487,-1.587,-2.98,1.56,6.3,0.81,1.95,0.29
2022-01-30 18:55:53.0410,0.076,-0.428,-1.603,-1.66,0.21,6.71,1.2,2.27,0.38
Time,0.041,-0.365,-1.593,-1.19,-0.52,6.56,1.56,2.52,0.53
2022-01-30 18:55:53.0620,0.026,-0.317,-1.562,-1.19,-0.52,6.56,1.85,2.68,0.73
2022-01-30 18:55:53.0720,0.023,-0.298,-1.508,-0.88,-1.04,6.24,2.07,2.77,0.96
2022-01-30 18:55:53.0820,0.018,-0.282,-1.438,-0.66,-1.36,5.7,2.24,2.79,1.19
2022-01-30 18:55:53.0920,0.012,-0.262,-1.368,-0.17,-2.13,4.51,2.39,2.75,1.38
2022-01-30 18:55:53.1020,0.005,-0.244,-1.298,-0.17,-2.13,4.51,2.52,2.67,1.52
2022-01-30 18:55:53.1120,-0.009,-0.226,-1.231,0.08,-2.53,3.95,2.59,2.58,1.6
2022-01-30 18:55:53.1220,-0.025,-0.213,-1.174,0.37,-2.92,3.45,2.59,2.58,1.6
2022-01-30 18:55:53.1320,-0.045,-0.213,-1.134,0.98,-3.38,2.91,2.56,2.34,1.67
2022-01-30 18:55:53.1420,-0.072,-0.227,-1.108,0.98,-3.38,2.91,2.47,2.18,1.66
2022-01-30 18:55:53.1520,-0.097,-0.24,-1.085,1.32,-3.43,2.82,2.36,2.03,1.62
2022-01-30 18:55:53.1620,-0.118,-0.247,-1.074,1.62,-3.53,2.77,2.24,1.88,1.56
2022-01-30 18:55:53.1720,-0.14,-0.258,-1.071,1.88,-3.63,2.85,2.13,1.75,1.47
2022-01-30 18:55:53.1820,-0.16,-0.269,-1.065,2.35,-3.74,3.02,2.05,1.65,1.37
2022-01-30 18:55:53.1920,-0.176,-0.277,-1.059,2.35,-3.74,3.02,2.0,1.57,1.26
2022-01-30 18:55:53.2020,-0.188,-0.275,-1.063,2.53,-3.86,3.15,1.96,1.52,1.13
2022-01-30 18:55:53.2120,-0.187,-0.273,-1.056,2.63,-4.16,3.36,1.92,1.51,1.0
2022-01-30 18:55:53.2230,-0.175,-0.28,-1.047,2.63,-4.16,3.36,1.86,1.52,0.88
2022-01-30 18:55:53.2320,-0.155,-0.285,-1.042,2.52,-4.24,3.42,1.75,1.53,0.77
2022-01-30 18:55:53.2510,-0.138,-0.291,-1.036,2.27,-4.37,3.56,1.6,1.55,0.68
2022-01-30 18:55:53.2510,-0.122,-0.291,-1.025,2.27,-4.37,3.56,1.42,1.58,0.61
2022-01-30 18:55:53.2610,-0.104,-0.291,-1.006,2.17,-4.48,3.54,1.24,1.63,0.56
2022-01-30 18:55:53.2720,-0.085,-0.295,-0.983,2.05,-4.55,3.44,1.11,1.66,0.54
2022-01-30 18:55:53.2820,-0.069,-0.297,-0.965,1.93,-4.58,3.34,1.02,1.67,0.54
2022-01-30 18:55:53.2920,-0.058,-0.302,-0.942,1.84,-4.63,3.08,0.97,1.65,0.58
2022-01-30 18:55:53.3030,-0.056,-0.312,-0.911,1.84,-4.63,3.08,0.96,1.63,0.66
2022-01-30 18:55:53.3120,-0.063,-0.323,-0.872,1.88,-4.59,2.84,0.96,1.63,0.66
2022-01-30 18:55:53.3230,-0.089,-0.327,-0.831,2.05,-4.55,2.56,0.97,1.62,0.78
2022-01-30 18:55:53.3330,-0.118,-0.317,-0.779,2.36,-4.64,2.19,1.0,1.7,0.97
2022-01-30 18:55:53.3430,-0.151,-0.299,-0.74,3.0,-5.1,1.56,1.05,1.74,0.98
2022-01-30 18:55:53.3530,-0.173,-0.28,-0.701,3.0,-5.1,1.56,1.15,1.71,0.92
2022-01-30 18:55:53.3630,-0.177,-0.261,-0.678,3.18,-5.36,1.33,1.29,1.56,0.82
2022-01-30 18:55:53.3730,-0.158,-0.236,-0.653,3.16,-5.66,1.27,1.43,1.32,0.67
2022-01-30 18:55:53.3830,-0.12,-0.233,-0.614,2.9,-5.94,1.1,1.52,1.04,0.52
2022-01-30 18:55:53.3930,-0.08,-0.251,-0.555,2.13,-5.87,0.3,1.56,0.77,0.4
2022-01-30 18:55:53.4030,-0.041,-0.258,-0.487,2.13,-5.87,0.3,1.52,0.54,0.3
2022-01-30 18:55:53.4130,-0.01,-0.247,-0.426,1.77,-5.96,-0.22,1.41,0.33,0.21
2022-01-30 18:55:53.4230,0.017,-0.239,-0.367,1.48,-6.14,-0.68,1.24,0.16,0.15
2022-01-30 18:55:53.4330,0.039,-0.24,-0.313,1.22,-6.24,-1.14,1.04,0.02,0.13
2022-01-30 18:55:53.4430,0.055,-0.238,-0.27,0.9,-6.39,-1.81,0.81,-0.11,0.12
2022-01-30 18:55:53.4530,0.058,-0.219,-0.258,0.9,-6.39,-1.81,0.55,-0.28,0.13
2022-01-30 18:55:53.4630,0.064,-0.227,-0.251,0.82,-6.54,-1.85,0.55,-0.28,0.13
2022-01-30 18:55:53.4730,0.052,-0.244,-0.248,0.9,-6.24,-1.98,-0.12,-0.58,0.26
2022-01-30 18:55:53.4830,0.031,-0.257,-0.232,0.9,-6.24,-1.98,-0.12,-0.58,0.26
2022-01-30 18:55:53.4930,0.007,-0.257,-0.228,1.06,-6.14,-2.19,-0.84,-0.57,0.37
2022-01-30 18:55:53.5040,-0.017,-0.256,-0.238,1.24,-6.13,-2.23,-1.18,-0.44,0.37
2022-01-30 18:55:53.5130,-0.035,-0.263,-0.242,1.42,-6.05,-2.25,-1.49,-0.2,0.33
2022-01-30 18:55:53.5230,-0.044,-0.262,-0.254,1.51,-5.93,-2.36,-1.78,0.07,0.28
2022-01-30 18:55:53.5330,-0.056,-0.256,-0.291,1.59,-5.88,-2.29,-2.05,0.33,0.23
2022-01-30 18:55:53.5430,-0.078,-0.252,-0.34,1.73,-5.84,-2.05,-2.33,0.59,0.23
2022-01-30 18:55:53.5540,-0.102,-0.26,-0.381,1.98,-5.73,-1.76,-2.59,0.87,0.29
2022-01-30 18:55:53.5630,-0.124,-0.29,-0.421,2.23,-5.44,-1.6,-2.83,1.12,0.42
2022-01-30 18:55:53.5730,-0.149,-0.35,-0.499,2.47,-4.87,-1.35,-3.04,1.19,0.56
2022-01-30 18:55:53.5830,-0.178,-0.406,-0.628,3.08,-3.45,0.44,-3.16,1.08,0.63
2022-01-30 18:55:53.5940,-0.213,-0.438,-0.728,3.449461378455162,-2.94,1.07,-3.14,0.87,0.61
2022-01-30 18:55:53.6040,-0.247,-0.48,-0.805,3.44,-2.94,1.07,-2.97,0.58,0.5
2022-01-30 18:55:53.6140,-0.273,-0.52,-0.892,3.75,-2.31,1.63,-2.97,0.58,0.5
2022-01-30 18:55:53.6240,-0.292,-0.527,-0.971,3.96,-1.85,2.3,-2.33,-0.25,0.1
2022-01-30 18:55:53.6330,-0.3,-0.512,-1.016,4.08,-1.72,2.93,-2.03,-0.63,-0.12
2022-01-30 18:55:53.6440,-0.294,-0.511,-1.01,3.95,-1.51,2.61,-1.85,-0.87,-0.29
2022-01-30 18:55:53.6540,-0.282,-0.526,-0.985,3.95,-1.51,2.61,-1.83,-0.97,-0.38
2022-01-30 18:55:53.6640,-0.264,-0.539,-0.967,3.75,-1.22,2.25,-1.94,-0.95,-0.42
2022-01-30 18:55:53.6740,-0.253,-0.548,-0.962,3.56,-0.96,1.97,-2.14,-0.86,-0.41
2022-01-30 18:55:53.6840,-0.247,-0.575,-0.977,3.42,-0.67,1.86,-2.33,-0.76,-0.39
2022-01-30 18:55:53.6940,-0.248,-0.607,-1.006,3.35,0.25,2.09,-2.45,-0.68,-0.39
2022-01-30 18:55:53.7050,-0.253,-0.602,-1.052,3.35,0.25,2.09,-2.45,-0.68,-0.45
2022-01-30 18:55:53.7140,-0.265,-0.574,-1.113,3.39,0.28,2.49,-2.34,-0.77,-0.56
2022-01-30 18:55:53.7240,-0.273,-0.556,-1.149,3.49,0.21,2.89,-2.15,-0.9,-0.7
2022-01-30 18:55:53.7340,-0.268,-0.544,-1.161,3.48,0.26,3.01,-1.94,-1.04,-0.83
2022-01-30 18:55:53.7440,-0.257,-0.532,-1.156,3.17,0.36,2.72,-1.76,-1.1,-0.92
2022-01-30 18:55:53.7550,-0.239,-0.522,-1.125,3.17,0.36,2.72,-1.62,-1.07,-0.95
2022-01-30 18:55:53.7640,-0.216,-0.507,-1.097,2.93,0.39,2.32,-1.55,-0.95,-0.95
2022-01-30 18:55:53.7740,-0.19,-0.492,-1.069,2.65,0.38,1.99,-1.52,-0.76,-0.91
2022-01-30 18:55:53.7840,-0.166,-0.485,-1.04,2.39,0.39,1.62,-1.52,-0.55,-0.85
2022-01-30 18:55:53.7940,-0.138,-0.493,-1.024,1.84,0.75,1.18,-1.53,-0.4,-0.77
2022-01-30 18:55:53.8050,-0.111,-0.503,-1.04,1.84,0.75,1.18,-1.53,-0.37,-0.7
2022-01-30 18:55:53.8140,-0.083,-0.519,-1.067,1.57,1.01,1.35,-1.49,-0.47,-0.62
2022-01-30 18:55:53.8240,-0.054,-0.526,-1.098,0.95,1.43,1.86,-1.43,-0.72,-0.57
2022-01-30 18:55:53.8340,-0.03,-0.518,-1.144,0.95,1.43,1.86,-1.39,-1.09,-0.52
2022-01-30 18:55:53.8440,-0.016,-0.52,-1.179,0.45,1.67,2.47,-1.38,-1.48,-0.45
2022-01-30 18:55:53.8550,-0.021,-0.516,-1.203,0.44,1.65,2.64,-1.4,-1.8,-0.37
2022-01-30 18:55:53.8650,-0.052,-0.478,-1.228,0.63,1.31,2.9,-1.45,-2.03,-0.29
2022-01-30 18:55:53.8750,-0.095,-0.424,-1.279,0.85,0.96,3.51,-1.56,-2.21,-0.17
2022-01-30 18:55:53.8850,-0.138,-0.382,-1.375,0.85,0.96,3.51,-1.56,-2.21,-0.17
2022-01-30 18:55:53.8950,-0.176,-0.354,-1.479,1.17,0.72,5.34,-1.72,-2.45,-0.03
2022-01-30 18:55:53.9050,-0.225,-0.336,-1.52,1.17,0.72,5.34,-1.82,-2.69,0.28
2022-01-30 18:55:53.9140,-0.276,-0.307,-1.495,1.42,0.7,5.45,-1.65,-2.44,0.38
2022-01-30 18:55:53.9250,-0.301,-0.26,-1.411,1.55,0.17,3.98,-1.44,-1.9,0.4
2022-01-30 18:55:53.9350,-0.289,-0.224,-1.302,1.55,0.17,3.98,-1.29,-1.14,0.41
2022-01-30 18:55:53.9450,-0.245,-0.242,-1.208,0.66,0.66,2.05,-1.23,-0.31,0.48
2022-01-30 18:55:53.9560,-0.186,-0.317,-1.132,0.66,0.66,2.05,-1.23,0.48,0.65
2022-01-30 18:55:53.9650,-0.124,-0.385,-1.081,0.09,1.58,1.35,-1.26,1.04,0.87
2022-01-30 18:55:53.9750,-0.087,-0.41,-1.069,-0.37,2.23,0.95,-1.23,1.21,1.09
2022-01-30 18:55:53.9840,-0.085,-0.402,-1.111,-0.51,2.47,0.99,-1.13,0.91,1.3
2022-01-30 18:55:53.9950,-0.108,-0.38,-1.167,-0.37,2.44,1.48,-0.95,0.27,1.48
2022-01-30 18:55:54.0050,-0.149,-0.375,-1.217,-0.06,2.37,1.99,-0.74,-0.63,1.61
2022-01-30 18:55:54.0150,-0.19,-0.371,-1.271,0.46,2.42,3.05,-0.5,-1.66,1.65
2022-01-30 18:55:54.0250,-0.23,-0.351,-1.321,0.46,2.42,3.05,-0.27,-2.64,1.55
2022-01-30 18:55:54.0350,-0.262,-0.331,-1.331,0.57,2.25,3.47,-0.07,-3.42,1.34
2022-01-30 18:55:54.0450,-0.285,-0.338,-1.307,0.3297376468777657,2.32,3.28,0.1,-3.91,1.08
2022-01-30 18:55:54.0560,-0.313,-0.346,-1.27,0.32,2.32,3.28,0.23,-4.07,0.78
2022-01-30 18:55:54.0650,-0.351,-0.318,-1.221,0.26,2.28,3.0,0.29,-3.9,0.43
2022-01-30 18:55:54.0750,-0.38,-0.282,-1.17,0.25,1.9,2.58,0.29,-3.9,0.43
2022-01-30 18:55:54.0850,-0.395,-0.261,-1.141,0.18,1.59,2.29,0.15,-2.95,-0.34
2022-01-30 18:55:54.0950,-0.383,-0.249,-1.12,-0.01,1.39,2.16,-0.03,-2.35,-0.75
2022-01-30 18:55:54.1050,-0.352,-0.252,-1.111,-0.41,1.3,2.09,-0.03,-2.35,-0.75
2022-01-30 18:55:54.1150,-0.316,-0.264,-1.101,-1.31,1.44,2.02,-0.39,-1.2,-1.53
2022-01-30 18:55:54.1260,-0.284,-0.271,-1.093,-1.31,1.44,2.02,-0.39,-1.2,-1.53
2022-01-30 18:55:54.1350,-0.25,-0.263,-1.08,-1.66,1.2639000754058363,1.86,-0.47,-0.33,-2.15
2022-01-30 18:55:54.1450,-0.221,-0.255,-1.079,-1.98,1.26,1.86,-0.43,-0.07,-2.37
2022-01-30 18:55:54.1560,-0.194,-0.256,-1.067,-2.23,1.14,1.84,-0.37,0.1,-2.51
2022-01-30 18:55:54.1660,-0.169,-0.269,-1.044,-2.61,1.2,1.44,-0.3,0.19,-2.57
2022-01-30 18:55:54.1760,-0.147,-0.289,-1.03,-2.61,1.2,1.44,-0.2,0.19,-2.57
2022-01-30 18:55:54.1860,-0.126,-0.301,-1.014,-2.78,1.3,1.29,-0.06,0.1,-2.53
2022-01-30 18:55:54.1960,-0.108,-0.293,-1.0,-2.92,1.25,1.14,0.1,-0.03,-2.48
2022-01-30 18:55:54.2060,-0.092,-0.276,-0.981,-3.06,1.01,0.99,0.28,-0.18,-2.42
2022-01-30 18:55:54.2160,-0.077,-0.274,-0.955,-3.18,0.75,0.79,0.46,-0.3,-2.32
2022-01-30 18:55:54.2260,-0.067,-0.273,-0.923,-3.3,0.64,0.53,0.62,-0.4,-2.19
2022-01-30 18:55:54.2350,-0.058,-0.265,-0.901,-3.38,0.46,0.26,0.75,-0.5,-2.04
2022-01-30 18:55:54.2460,-0.054,-0.255,-0.891,-3.45,0.21,0.15,0.87,-0.54,-1.88
2022-01-30 18:55:54.2560,-0.054,-0.253,-0.867,-3.47,0.0,0.05,0.97,-0.54,-1.7
2022-01-30 18:55:54.2670,-0.05,-0.256,-0.852,-3.52,-0.24,-0.14,1.05,-0.56,-1.54
2022-01-30 18:55:54.2760,-0.051,-0.267,-0.861,-3.52,-0.24,-0.14,1.13,-0.62,-1.4
2022-01-30 18:55:54.2860,-0.063,-0.273,-0.867,-3.49,-0.28,0.02,1.2,-0.67,-1.31
2022-01-30 18:55:54.2960,-0.076,-0.265,-0.857,-3.37,-0.44,0.09,1.3,-0.66,-1.27
2022-01-30 18:55:54.3070,-0.08,-0.264,-0.83,-3.26,-0.79,-0.22,1.38,-0.59,-1.27
2022-01-30 18:55:54.3160,-0.084,-0.276,-0.802,-3.21,-0.83,-0.47,1.45,-0.43,-1.29
2022-01-30 18:55:54.3270,-0.085,-0.292,-0.754,-3.21,-0.83,-0.47,1.51,-0.17,-1.3
2022-01-30 18:55:54.3360,-0.072,-0.307,-0.701,-3.21,-0.85,-0.95,1.52,0.12,-1.31
2022-01-30 18:55:54.3460,-0.051,-0.338,-0.671,-3.31,-0.85,-1.34,1.46,0.37,-1.3
2022-01-30 18:55:54.3560,-0.033,-0.391,-0.67,-3.44,-0.61,-1.49,1.31,0.55,-1.26
2022-01-30 18:55:54.3670,-0.028,-0.451,-0.679,-3.48,-0.2,-1.39,1.08,0.67,-1.2
2022-01-30 18:55:54.3760,-0.032,-0.507,-0.68,-3.38,0.26,-1.33,0.85,0.74,-1.13
2022-01-30 18:55:54.3860,-0.041,-0.553,-0.702,-3.21,0.68,-1.26,0.63,0.71,-1.07
2022-01-30 18:55:54.3960,-0.053,-0.581,-0.743,-3.0,0.98,-0.94,0.45,0.6,-1.06
2022-01-30 18:55:54.4070,-0.062,-0.596,-0.773,-2.8,1.12,-0.55,0.31,0.5,-1.1
2022-01-30 18:55:54.4170,-0.073,-0.622,-0.768,-2.61,1.21,-0.36,0.23,0.53,-1.14
2022-01-30 18:55:54.4260,-0.085,-0.661,-0.723,-2.4,1.49,-0.59,0.2,0.74,-1.15
2022-01-30 18:55:54.4370,-0.094,-0.686,-0.662,-2.17,1.8,-1.13,0.22,1.09,-1.15
2022-01-30 18:55:54.4460,-0.09,-0.697,-0.614,-1.97,1.92,-1.75,0.21,1.47,-1.16
2022-01-30 18:55:54.4570,-0.071,-0.713,-0.596,-1.89,1.98,-2.13,0.16,1.76,-1.16
2022-01-30 18:55:54.4670,-0.041,-0.75,-0.591,-1.92,2.17,-2.28,0.08,1.97,-1.13
2022-01-30 18:55:54.4770,-0.007,-0.794,-0.59,-2.02,2.55,-2.37,0.01,2.04,-1.06
2022-01-30 18:55:54.4870,0.027,-0.828,-0.612,-2.14,2.93,-2.35,-0.01,1.95,-0.97
2022-01-30 18:55:54.4970,0.058,-0.853,-0.655,-2.37,3.39,-1.7,0.04,1.72,-0.86
2022-01-30 18:55:54.5070,0.087,-0.862,-0.682,-2.48,3.38,-1.53,0.17,1.43,-0.76
2022-01-30 18:55:54.5170,0.107,-0.854,-0.692,-2.48,3.38,-1.53,0.33,1.16,-0.65
2022-01-30 18:55:54.5260,0.116,-0.838,-0.685,-2.52,3.24,-1.49,0.48,0.96,-0.54
2022-01-30 18:55:54.5370,0.112,-0.813,-0.669,-2.45,2.99,-1.59,0.6,0.83,-0.43
2022-01-30 18:55:54.5470,0.107,-0.785,-0.653,-2.3,2.67,-1.74,0.66,0.78,-0.32
2022-01-30 18:55:54.5570,0.111,-0.775,-0.638,-2.19,2.38,-1.87,0.69,0.79,-0.23
2022-01-30 18:55:54.5670,0.124,-0.782,-0.627,-2.19,2.31,-1.98,0.67,0.82,-0.15
2022-01-30 18:55:54.5770,0.142,-0.793,-0.634,-2.27,2.35,-2.01,0.61,0.83,-0.1
2022-01-30 18:55:54.5870,0.157,-0.805,-0.655,-2.37,2.41,-1.85,0.56,0.84,-0.07
2022-01-30 18:55:54.5970,0.167,-0.817,-0.669,-2.43,2.49,-1.63,0.56,0.84,-0.07
2022-01-30 18:55:54.6070,0.169,-0.825,-0.677,-2.42,2.55,-1.51,0.45,0.96,-0.11
2022-01-30 18:55:54.6180,0.164,-0.826,-0.703,-2.33,2.56,-1.38,0.4,1.0,-0.16
2022-01-30 18:55:54.6270,0.154,-0.837,-0.753,-2.16,2.57,-1.0,0.36,0.96,-0.21
2022-01-30 18:55:54.6370,0.158,-0.855,-0.8,-2.01,2.68,-0.48,0.34,0.85,-0.23
2022-01-30 18:55:54.6470,0.174,-0.873,-0.836,-2.02,2.84,-0.05,0.38,0.7,-0.22
2022-01-30 18:55:54.6570,0.201,-0.886,-0.866,-2.16,2.98,0.29,0.47,0.56,-0.2
2022-01-30 18:55:54.6670,0.228,-0.883,-0.888,-2.38,3.0,0.61,0.58,0.49,-0.16
2022-01-30 18:55:54.6770,0.249,-0.881,-0.894,-2.57,2.92,0.79,0.7,0.52,-0.11
2022-01-30 18:55:54.6880,0.263,-0.868,-0.89,-2.71,2.82,0.84,0.77,0.65,-0.05
2022-01-30 18:55:54.6970,0.274,-0.843,-0.884,-2.77,2.58,0.83,0.77,0.86,-0.01
2022-01-30 18:55:54.7070,0.285,-0.822,-0.869,-2.8,2.040684109926224,0.64,0.7,1.16,0.02
2022-01-30 18:55:54.7180,0.295,-0.805,-0.842,-2.82,1.83,0.41,0.56,1.52,0.04
2022-01-30 18:55:54.7280,0.315,-0.794,-0.822,-2.82,1.83,0.41,0.37,1.93,0.07
2022-01-30 18:55:54.7370,0.344,-0.801,-0.808,-2.9,1.77,0.26,0.18,2.35,0.13
2022-01-30 18:55:54.7480,0.382,-0.808,-0.81,-3.04,1.85,0.19,0.02,2.7,0.23
2022-01-30 18:55:54.7580,0.418,-0.821,-0.827,-3.34,2.09,0.47,-0.09,2.97,0.37
2022-01-30 18:55:54.7680,0.438,-0.84,-0.842,-3.25,2.23,0.68,-0.15,3.08,0.56
2022-01-30 18:55:54.7780,0.432,-0.837,-0.868,-3.25,2.23,0.68,-0.15,3.04,0.75
2022-01-30 18:55:54.7880,0.409,-0.81,-0.878,-2.92,2.09,0.94,-0.09,2.91,0.96
2022-01-30 18:55:54.7970,0.376,-0.791,-0.867,-2.49,1.83,0.97,0.02,2.68,1.18
2022-01-30 18:55:54.8080,0.339,-0.77,-0.868,-1.55,1.37,1.02,0.02,2.68,1.18
2022-01-30 18:55:54.8190,0.298,-0.743,-0.876,-1.55,1.37,1.02,0.27,1.95,1.54
2022-01-30 18:55:54.8270,0.262,-0.721,-0.887,-1.11,1.07,1.13,0.33,1.44,1.63
2022-01-30 18:55:54.8380,0.231,-0.695,-0.922,-0.79,0.81,1.38,0.32,0.89,1.67
2022-01-30 18:55:54.8480,0.196,-0.664,-0.937,-0.51,0.47,1.74,0.27,0.47,1.66
2022-01-30 18:55:54.8580,0.158,-0.635,-0.915,-0.22,0.13,1.76,0.25,0.26,1.61
2022-01-30 18:55:54.8690,0.125,-0.605,-0.879,0.06,-0.21,1.48,0.25,0.26,1.5355957746505737
2022-01-30 18:55:54.8780,0.097,-0.57,-0.832,0.28,-0.55,1.12,0.31,0.45,1.46
2022-01-30 18:55:54.8880,0.068,-0.532,-0.781,0.5,-0.96,0.65,0.35,0.78,1.42
2022-01-30 18:55:54.8980,0.046,-0.507,-0.748,0.93,-1.57,0.04,0.35,1.14,1.41
2022-01-30 18:55:54.9090,0.029,-0.497,-0.739,0.93,-1.57,0.04,0.35,1.14,1.41
2022-01-30 18:55:54.9190,0.021,-0.503,-0.738,1.15,-1.57,0.1,0.24,1.66,1.46
2022-01-30 18:55:54.9280,0.019,-0.527,-0.747,1.15,-1.57,0.1,0.18,1.74,1.5
2022-01-30 18:55:54.9380,0.025,-0.562,-0.776,1.16,-1.3,0.27,0.17,1.65,1.49
2022-01-30 18:55:54.9490,0.03,-0.583,-0.809,1.12,-1.02,0.65,0.22,1.44,1.44
2022-01-30 18:55:54.9590,0.031,-0.59,-0.829,1.08,-0.92,1.15,0.34,1.18,1.35
2022-01-30 18:55:54.9680,0.027,-0.587,-0.831,1.08,-0.92,1.15,0.47,0.93,1.24
2022-01-30 18:55:54.9780,0.015,-0.578,-0.805,1.13,-1.03,1.1,0.6,0.77,1.15
2022-01-30 18:55:54.9880,-0.002,-0.565,-0.767,1.25,-1.19,0.83,0.71,0.7,1.09
2022-01-30 18:55:54.9980,-0.014,-0.55,-0.722,1.47,-1.61,0.1,0.8,0.71,1.05
2022-01-30 18:55:55.0090,-0.027,-0.535,-0.678,1.47,-1.61,0.1,0.86,0.79,1.01
2022-01-30 18:55:55.0180,-0.039,-0.517,-0.639,1.57,-1.84,-0.23,0.91,0.9,0.98
2022-01-30 18:55:55.0290,-0.055,-0.502,-0.6,1.7,-2.08,-0.55,0.95,1.02,0.96
2022-01-30 18:55:55.0380,-0.072,-0.487,-0.569,1.86,-2.29,-0.83,0.96,1.11,0.92
2022-01-30 18:55:55.0480,-0.085,-0.472,-0.546,2.15,-2.7,-1.16,0.93,1.16,0.88
2022-01-30 18:55:55.0590,-0.093,-0.471,-0.521,2.15,-2.7,-1.16,0.9,1.17,0.83
2022-01-30 18:55:55.0680,-0.092,-0.473,-0.5,2.21,-2.75,-1.32,0.85,1.14,0.78
2022-01-30 18:55:55.0790,-0.088,-0.472,-0.48,2.2,-2.81,-1.44,0.77,1.06,0.71
2022-01-30 18:55:55.0890,-0.08,-0.475,-0.462,2.08,-2.87,-1.66,0.68,0.96,0.64
2022-01-30 18:55:55.0990,-0.071,-0.479,-0.445,2.08,-2.87,-1.66,0.58,0.83,0.56
2022-01-30 18:55:55.1090,-0.062,-0.477,-0.437,2.0,-2.88,-1.77,0.58,0.83,0.56
2022-01-30 18:55:55.1190,-0.057,-0.472,-0.439,1.93,-2.96,-1.75,0.26,0.48,0.38
2022-01-30 18:55:55.1280,-0.055,-0.474,-0.437,1.89,-3.0,-1.72,0.06,0.32,0.29
2022-01-30 18:55:55.1390,-0.055,-0.475,-0.45,1.87,-2.98,-1.72,-0.14,0.16,0.21
2022-01-30 18:55:55.1490,-0.058,-0.481,-0.481,1.89,-2.84,-1.23,-0.32,0.02,0.14
2022-01-30 18:55:55.1590,-0.056,-0.497,-0.509,1.89,-2.84,-1.23,-0.44,-0.11,0.09
2022-01-30 18:55:55.1690,-0.062,-0.516,-0.551,1.86,-2.64,-0.97,-0.44,-0.11,0.09
2022-01-30 18:55:55.1790,-0.072,-0.541,-0.587,1.93,-2.42,-0.59,-0.56,-0.3,0.13
2022-01-30 18:55:55.1890,-0.091,-0.582,-0.632,2.01,-2.07,-0.29,-0.57,-0.39,0.24
2022-01-30 18:55:55.1990,-0.124,-0.613,-0.699,2.21,-1.64,0.2,-0.54,-0.48,0.37
2022-01-30 18:55:55.2090,-0.159,-0.625,-0.763,2.5,-1.37,0.81,-0.46,-0.59,0.43
2022-01-30 18:55:55.2190,-0.18,-0.608,-0.828,2.74,-1.33,1.4,-0.37,-0.72,0.36
2022-01-30 18:55:55.2290,-0.183,-0.586,-0.877,2.8,-1.55,1.97,-0.29,-0.82,0.19
2022-01-30 18:55:55.2390,-0.171,-0.592,-0.884,2.71,-1.66,2.31,-0.28,-0.79,-0.04
2022-01-30 18:55:55.2500,-0.142,-0.613,-0.836,2.48,-1.49,2.12,-0.34,-0.6,-0.27
2022-01-30 18:55:55.2600,-0.111,-0.625,-0.787,1.88,-1.17,1.06,-0.45,-0.3,-0.46
2022-01-30 18:55:55.2700,-0.086,-0.625,-0.736,1.88,-1.17,1.06,-0.62,0.09,-0.58
2022-01-30 18:55:55.2790,-0.075,-0.621,-0.689,1.73,-1.15,0.49,-0.8,0.53,-0.61
2022-01-30 18:55:55.2900,-0.069,-0.632,-0.666,1.75,-1.1,0.05,-1.0,0.91,-0.55
2022-01-30 18:55:55.3000,-0.054,-0.657,-0.69,1.77,-0.84,-0.1,-1.2,1.1,-0.46
2022-01-30 18:55:55.3100,-0.03,-0.679,-0.756,1.69,-0.51,0.25,-1.35,1.03,-0.38
2022-01-30 18:55:55.3200,-0.002,-0.699,-0.833,1.32,0.09,1.58,-1.38,0.7,-0.37
2022-01-30 18:55:55.3300,0.023,-0.716,-0.921,1.32,0.09,1.58,-1.31,0.12,-0.43
2022-01-30 18:55:55.3400,0.043,-0.72,-0.999,0.92,0.41,2.93,-1.15,-0.59,-0.54
2022-01-30 18:55:55.3500,0.062,-0.719,-1.048,0.92,0.41,2.93,-1.15,-0.59,-0.54
2022-01-30 18:55:55.3600,0.071,-0.706,-1.069,0.6,0.32,3.22,-0.84,-1.88,-0.74
2022-01-30 18:55:55.3700,0.065,-0.676,-1.053,0.6,0.32,3.22,-0.75,-2.22,-0.8
2022-01-30 18:55:55.3800,0.059,-0.648,-1.015,0.55,0.08,2.89,-0.69,-2.29,-0.81
2022-01-30 18:55:55.3900,0.048,-0.62,-0.974,0.53,-0.34,1.95,-0.64,-2.1,-0.77
2022-01-30 18:55:55.4000,0.031,-0.591,-0.937,0.53,-0.34,1.95,-0.58,-1.73,-0.67
2022-01-30 18:55:55.4100,0.019,-0.564,-0.91,0.62,-0.59,1.6,-0.49,-1.26,-0.54
2022-01-30 18:55:55.4210,0.025,-0.557,-0.884,0.47,-0.73,1.05,-0.39,-0.82,-0.38
2022-01-30 18:55:55.4300,0.045,-0.56,-0.874,0.47,-0.73,1.05,-0.28,-0.48,-0.23
2022-01-30 18:55:55.4400,0.079,-0.565,-0.859,0.18,-0.66,0.95,-0.18,-0.3,-0.1
2022-01-30 18:55:55.4510,0.113,-0.58,-0.837,-0.18,-0.58,0.74,-0.11,-0.27,-0.01
2022-01-30 18:55:55.4600,0.14,-0.592,-0.81,-0.51,-0.4,0.5,-0.11,-0.27,-0.01
2022-01-30 18:55:55.4710,0.155,-0.591,-0.792,-0.78,-0.33,0.23,-0.09,-0.6,0.07
2022-01-30 18:55:55.4800,0.16,-0.588,-0.786,-0.93,-0.34,0.11,-0.16,-0.91,0.07
2022-01-30 18:55:55.4900,0.162,-0.587,-0.777,-1.04,-0.37,0.04,-0.26,-1.21,0.07
2022-01-30 18:55:55.5010,0.165,-0.6,-0.757,-1.17,-0.32,-0.13,-0.34,-1.45,0.1
2022-01-30 18:55:55.5100,0.166,-0.613,-0.743,-1.31,-0.13,-0.35,-0.37,-1.63,0.14
2022-01-30 18:55:55.5210,0.169,-0.605,-0.74,-1.46,-0.04,-0.46,-0.38,-1.77,0.19
2022-01-30 18:55:55.5310,0.169,-0.592,-0.742,-1.64,-0.13,-0.49,-0.37,-1.84,0.26
2022-01-30 18:55:55.5410,0.159,-0.588,-0.732,-1.76,-0.21,-0.53,-0.38,-1.8,0.34
2022-01-30 18:55:55.5510,0.15,-0.594,-0.726,-1.89,-0.08,-0.69,-0.39,-1.67,0.44
2022-01-30 18:55:55.5590,0.141,-0.597,-0.733,-1.89,-0.08,-0.69,-0.43,-1.48,0.53
2022-01-30 18:55:55.5700,0.134,-0.598,-0.75,-1.95,-0.02,-0.58,-0.47,-1.24,0.61
2022-01-30 18:55:55.5810,0.132,-0.604,-0.762,-2.03,0.04,-0.46,-0.5,-0.97,0.68
2022-01-30 18:55:55.5910,0.13,-0.613,-0.783,-2.21,0.32,-0.13,-0.52,-0.71,0.72
2022-01-30 18:55:55.6010,0.126,-0.631,-0.81,-2.21,0.32,-0.13,-0.5,-0.46,0.74
2022-01-30 18:55:55.6110,0.121,-0.64,-0.845,-2.24,0.55,0.13,-0.47,-0.24,0.74
2022-01-30 18:55:55.6200,0.106,-0.63,-0.897,-2.23,0.6,0.5,-0.47,-0.12,0.72
2022-01-30 18:55:55.6310,0.068,-0.609,-0.974,-2.05,0.52,1.07,-0.51,-0.13,0.7
