time,gFx,gFy,gFz,ax,ay,az,wx,wy,wz
2022-01-30 18:58:02.1000,-0.048,-0.593,-0.778,-0.14,0.17,-0.63,-0.15,-0.1,-0.21
2022-01-30 18:58:02.1050,-0.07,-0.647,-0.73,0.18,1.22,-1.36,-0.02,0.1,-0.16
2022-01-30 18:58:02.1140,-0.102,-0.643,-0.693,0.18,1.22,-1.36,0.04,0.29,-0.13
2022-01-30 18:58:02.1230,-0.099,-0.647,-0.706,0.39,1.16,-1.56,0.05,0.38,-0.12
2022-01-30 18:58:02.1330,-0.083,-0.655,-0.725,0.11,1.32,-1.2,0.06,0.37,-0.12
2022-01-30 18:58:02.1440,-0.041,-0.673,-0.741,0.11,1.32,-1.2,0.09,0.25,-0.110282301902771
2022-01-30 18:58:02.1540,0.002,-0.711,-0.769,-0.63,1.98,-0.72,0.09,0.25,-0.11
2022-01-30 18:58:02.1640,0.019,-0.753,-0.768,-0.66,2.31,-0.95,0.29,-0.1,-0.02
2022-01-30 18:58:02.1740,0.007,-0.767,-0.726,-0.53,2.3,-1.32,0.29,-0.1,-0.02
2022-01-30 18:58:02.1840,-0.007,-0.758,-0.685,-0.53,2.3,-1.32,0.4,-0.22,0.01
2022-01-30 18:58:02.1940,-0.037,-0.758,-0.62,-0.38,2.2,-1.8,0.3,-0.14,-0.02
2022-01-30 18:58:02.2040,-0.074,-0.755,-0.577,0.29,2.1,-2.63,0.15,-0.0,-0.06
2022-01-30 18:58:02.2140,-0.104,-0.749,-0.574,0.29,2.1,-2.63,0.15,-0.0,-0.06
2022-01-30 18:58:02.2240,-0.119,-0.733,-0.588,0.54,2.01,-2.6,0.02,0.38,-0.2
2022-01-30 18:58:02.2340,-0.111,-0.724,-0.642,0.56,1.82,-1.69,0.02,0.46,-0.31
2022-01-30 18:58:02.2440,-0.096,-0.731,-0.707,0.56,1.82,-1.69,0.02,0.52,-0.41
2022-01-30 18:58:02.2540,-0.06,-0.733,-0.701,0.37,1.9,-1.28,-0.0,0.65,-0.48
2022-01-30 18:58:02.2650,-0.05,-0.723,-0.725,0.16,1.84,-1.33,-0.02,0.75,-0.54
2022-01-30 18:58:02.2740,-0.042,-0.735,-0.744,0.14,1.96,-1.0,-0.07,0.85,-0.58
2022-01-30 18:58:02.2840,-0.018,-0.747,-0.719,-0.01,2.07,-1.4,-0.11,1.03,-0.61
2022-01-30 18:58:02.2950,0.002,-0.758,-0.669,0.0,2.22,-1.88,-0.16,1.28,-0.64
2022-01-30 18:58:02.3040,0.005,-0.777,-0.633,0.0,2.22,-1.88,-0.18,1.51,-0.67
2022-01-30 18:58:02.3140,0.044,-0.822,-0.661,0.03,2.48,-2.05,-0.1,1.66,-0.7
2022-01-30 18:58:02.3240,0.051,-0.845,-0.745,-0.21,2.98,-1.57,-0.1,1.66,-0.7
2022-01-30 18:58:02.3340,0.056,-0.844,-0.881,0.1,3.03,-0.46,0.01,1.14,-0.76
2022-01-30 18:58:02.3450,0.141,-0.829,-0.964,-0.16,3.06,0.73,0.15,0.55,-0.81
2022-01-30 18:58:02.3550,0.184,-0.769,-1.044,-0.82,2.69,1.43,0.15,0.55,-0.81
2022-01-30 18:58:02.3650,0.188,-0.777,-1.055,-0.96,2.26,2.26,0.49,-0.8,-0.72
2022-01-30 18:58:02.3740,0.178,-0.746,-0.917,-0.94,2.39,1.59,0.61,-1.11,-0.74
2022-01-30 18:58:02.3850,0.126,-0.695,-0.903,-0.75,1.76,0.55,0.62,-1.44,-0.76
2022-01-30 18:58:02.3950,0.079,-0.728,-0.912,-0.19,1.56,0.77,0.62,-1.62,-0.71
2022-01-30 18:58:02.4050,0.08,-0.742,-0.864,-0.06,1.91,0.59,0.72,-1.69,-0.64
2022-01-30 18:58:02.4150,0.037,-0.697,-0.858,-0.06,1.74,0.25,0.84,-1.76,-0.65
2022-01-30 18:58:02.4240,-0.031,-0.639,-0.839,0.4,1.16,0.25,0.79,-1.76,-0.7
2022-01-30 18:58:02.4350,-0.084,-0.585,-0.785,0.96,0.5,-0.01,0.79,-1.76,-0.7
2022-01-30 18:58:02.4450,-0.082,-0.586,-0.7,1.2,0.09,-0.67,0.04,-1.12,-0.72
2022-01-30 18:58:02.4550,-0.047,-0.594,-0.638,0.88,0.17,-1.46,-0.36,-0.47,-0.68
2022-01-30 18:58:02.4650,-0.066,-0.59,-0.647,0.65,0.23,-1.85,-0.63,0.2,-0.61
2022-01-30 18:58:02.4750,-0.113,-0.528,-0.7,1.02,0.06,-1.55,-0.77,0.79,-0.65
2022-01-30 18:58:02.4850,-0.106,-0.402,-0.7,1.47,-0.77,-1.03,-0.77,0.79,-0.65
2022-01-30 18:58:02.4950,-0.041,-0.313,-0.528,1.14,-1.88,-2.33,-0.35,2.0,-1.11
2022-01-30 18:58:02.5050,-0.014,-0.216,-1.038,0.79,-2.76,-1.44,-0.28,1.86,-1.27
2022-01-30 18:58:02.5150,-0.064,-0.316,-0.923,1.05,-3.18,2.61,-0.0,2.12,-1.35
2022-01-30 18:58:02.5250,-0.058,-0.454,-0.773,1.76,-1.61,-0.29,0.14,2.24,-1.37
2022-01-30 18:58:02.5360,0.037,-0.464,-0.921,1.5,-0.72,-0.03,0.13,2.09,-1.37
2022-01-30 18:58:02.5450,0.132,-0.418,-1.007,0.77,-0.94,1.32,0.09,1.75,-1.41
2022-01-30 18:58:02.5550,0.162,-0.394,-1.048,0.23,-1.31,2.0,0.09,1.75,-1.41
2022-01-30 18:58:02.5650,0.146,-0.373,-1.071,0.42,-1.54,2.34,0.1,0.83,-1.5
2022-01-30 18:58:02.5740,0.123,-0.383,-1.085,0.8,-1.57,2.55,0.1,0.83,-1.5
2022-01-30 18:58:02.5850,0.116,-0.373,-1.069,1.09,-1.5,2.69,0.14,0.3,-1.53
2022-01-30 18:58:02.5960,0.143,-0.385,-0.93,1.21,-1.58,2.24,0.15,-0.03,-1.55
2022-01-30 18:58:02.6060,0.147,-0.43,-0.79,0.97,-1.2,0.34,-0.39,0.22,-1.3
2022-01-30 18:58:02.6150,0.145,-0.452,-0.804,1.12,-0.86,-0.14,-0.39,0.22,-1.3
2022-01-30 18:58:02.6250,0.174,-0.474,-0.759,1.14,-0.53,-0.26,-1.07,0.33,-1.01
2022-01-30 18:58:02.6350,0.215,-0.469,-0.808,0.57,-0.3,0.18,-1.25,0.26,-0.8
2022-01-30 18:58:02.6460,0.237,-0.452,-0.88,0.57,-0.3,0.18,-1.35,0.19,-0.59
2022-01-30 18:58:02.6550,0.239,-0.392,-0.906,0.45,-0.46,0.66,-1.35,0.19,-0.59
2022-01-30 18:58:02.6660,0.17,-0.259,-0.893,0.76,-1.23,0.72,-1.39,0.2,-0.54
2022-01-30 18:58:02.6760,0.202,-0.265,-0.852,1.26,-2.14,0.34,-1.33,0.33,-0.43
2022-01-30 18:58:02.6860,0.268,-0.351,-0.869,0.71,-1.43,0.06,-1.33,0.33,-0.43
2022-01-30 18:58:02.6960,0.326,-0.402,-0.917,0.15,-0.55,0.36,-1.17,0.27,-0.12
2022-01-30 18:58:02.7060,0.383,-0.417,-0.944,-0.87,0.09,0.79,-1.11,0.01,0.03
2022-01-30 18:58:02.7160,0.419,-0.412,-0.906,-0.87,0.09,0.79,-1.11,0.01,0.03
2022-01-30 18:58:02.7260,0.417,-0.384,-0.83,-1.08,0.05,0.15,-0.98,-0.23,0.19
2022-01-30 18:58:02.7360,0.404,-0.35,-0.774,-0.89,-0.43,-1.12,-0.92,-0.16,0.17
2022-01-30 18:58:02.7460,0.385,-0.323,-0.74,-0.89,-0.43,-1.12,-0.86,-0.06,0.11
2022-01-30 18:58:02.7560,0.366,-0.311,-0.727,-0.71,-0.57,-1.41,-0.82,0.03,0.03
2022-01-30 18:58:02.7660,0.352,-0.313,-0.736,-0.55,-0.55,-1.49,-0.8,0.09,-0.06
2022-01-30 18:58:02.7760,0.324,-0.304,-0.772,-0.39,-0.48,-1.33,-0.8,0.09,-0.06
2022-01-30 18:58:02.7860,0.293,-0.288,-0.781,0.18,-0.61,-1.14,-0.79,0.29,-0.15
2022-01-30 18:58:02.7970,0.296,-0.282,-0.755,0.18,-0.61,-1.14,-0.77,0.49,-0.15
2022-01-30 18:58:02.8060,0.352,-0.291,-0.756,-0.02,-0.51,-1.35,-0.77,0.49,-0.15
2022-01-30 18:58:02.8160,0.421,-0.299,-0.755,-0.63,-0.36,-1.3,-0.7,0.77,-0.2
2022-01-30 18:58:02.8260,0.465,-0.319,-0.751,-1.16,-0.18,-1.36,-0.63,0.74,-0.18
2022-01-30 18:58:02.8360,0.47,-0.359,-0.763,-1.41,0.14,-1.34,-0.49,0.5,0.03
2022-01-30 18:58:02.8470,0.415,-0.438,-0.788,-1.12,0.74,-1.14,-0.37,0.31,0.34
2022-01-30 18:58:02.8560,0.46,-0.452,-0.8,-0.77,1.48,-0.95,-0.35,0.25,0.5
2022-01-30 18:58:02.8660,0.503,-0.387,-0.851,-1.4,1.26,-0.77,-0.46,0.04,0.55
2022-01-30 18:58:02.8760,0.504,-0.36,-0.931,-1.59,0.62,-0.07,-0.46,0.04,0.55
2022-01-30 18:58:02.8860,0.515,-0.425,-0.963,-1.78,1.57,0.7,-0.85,-0.43,0.46
2022-01-30 18:58:02.8970,0.521,-0.501,-0.974,-1.78,1.57,0.7,-1.0,-0.55,0.37
2022-01-30 18:58:02.9070,0.513,-0.535,-1.015,-1.85,2.28,0.84,-1.08,-0.71,0.27
2022-01-30 18:58:02.9160,0.47,-0.486,-1.111,-1.71,2.41,1.37,-1.11,-1.0,0.17
2022-01-30 18:58:02.9270,0.467,-0.413,-1.212,-1.39,1.79,2.42,-1.07,-1.28,0.07
2022-01-30 18:58:02.9370,0.483,-0.386,-1.244,-1.82,1.26,3.27,-0.9,-1.52,0.05
2022-01-30 18:58:02.9470,0.479,-0.363,-1.284,-1.82,1.26,3.27,-0.66,-1.65,0.12
2022-01-30 18:58:02.9560,0.481,-0.309,-1.297,-1.96,0.98,3.61,-0.36,-1.55,0.33
2022-01-30 18:58:02.9670,0.453,-0.275,-1.278,-2.03,0.51,3.5,0.01,-1.3,0.68
2022-01-30 18:58:02.9770,0.445,-0.262,-1.234,-1.9,0.34,3.21,0.35,-0.89,1.03
2022-01-30 18:58:02.9870,0.456,-0.23,-1.191,-2.09,0.12,2.67,0.57,-0.5,1.28
2022-01-30 18:58:02.9970,0.438,-0.204,-1.158,-2.22,-0.26,2.31,0.67,-0.21,1.44
2022-01-30 18:58:03.0070,0.404,-0.191,-1.133,-2.03,-0.53,2.01,0.63,-0.04,1.5
2022-01-30 18:58:03.0170,0.366,-0.176,-1.119,-1.73,-0.74,1.82,0.53,0.02,1.5
2022-01-30 18:58:03.0270,0.325,-0.153,-1.121,-1.03,-1.31,1.85,0.53,0.02,1.5
2022-01-30 18:58:03.0370,0.284,-0.135,-1.136,-0.68,-1.54,1.99,0.44,-0.24,1.39
2022-01-30 18:58:03.0480,0.248,-0.117,-1.142,-0.42,-1.82,1.99,0.55,-0.45,1.31
2022-01-30 18:58:03.0570,0.221,-0.088,-1.134,-0.42,-1.82,1.99,0.55,-0.45,1.31
2022-01-30 18:58:03.0680,0.195,-0.043,-1.107,-0.1,-2.81,1.53,0.95,-0.69,1.11
2022-01-30 18:58:03.0780,0.175,0.003,-1.066,-0.1,-2.81,1.53,1.14,-0.62,1.0
2022-01-30 18:58:03.0870,0.173,0.024,-1.033,-0.2,-3.54,0.88,1.26,-0.5,0.88
2022-01-30 18:58:03.0980,0.187,0.033,-0.997,-0.2,-3.54,0.88,1.26,-0.5,0.88
2022-01-30 18:58:03.1070,0.206,0.036,-0.95,-0.43,-3.73,0.52,1.23,-0.16,0.5
2022-01-30 18:58:03.1170,0.225,0.03,-0.903,-0.88,-3.89,-0.29,1.09,0.01,0.27
2022-01-30 18:58:03.1280,0.239,0.02,-0.873,-0.88,-3.89,-0.29,0.87,0.12,0.05
2022-01-30 18:58:03.1370,0.244,0.015,-0.86,-1.0,-3.9,-0.47,0.63,0.19,-0.14
2022-01-30 18:58:03.1480,0.237,0.022,-0.857,-0.99,-3.97,-0.53,0.63,0.19,-0.14
2022-01-30 18:58:03.1570,0.232,0.028,-0.872,-0.89,-4.1,-0.47,0.25,0.24,-0.34
2022-01-30 18:58:03.1680,0.231,0.035,-0.895,-0.83,-4.19,-0.26,0.18,0.25,-0.36
2022-01-30 18:58:03.1780,0.231,0.043,-0.923,-0.79,-4.28,-0.02,0.2,0.25,-0.33
2022-01-30 18:58:03.1880,0.226,0.047,-0.947,-0.74,-4.35,0.3,0.2,0.25,-0.33
2022-01-30 18:58:03.1980,0.224,0.05,-0.941,-0.65,-4.4,0.43,0.49,0.41,-0.2
2022-01-30 18:58:03.2070,0.224,0.039,-0.935,-0.61,-4.42,0.36,0.67,0.52,-0.11
2022-01-30 18:58:03.2180,0.23,0.006,-0.929,-0.6,-3.95,0.33,0.82,0.59,-0.03
2022-01-30 18:58:03.2280,0.238,-0.042,-0.937,-0.6,-3.95,0.33,0.94,0.52,0.03
2022-01-30 18:58:03.2380,0.244,-0.092,-0.974,-0.6,-3.16,1.02,1.04,0.32,0.07
2022-01-30 18:58:03.2470,0.236,-0.128,-1.01,-0.6,-3.16,1.02,1.16,0.04,0.06
2022-01-30 18:58:03.2570,0.227,-0.15,-1.042,-0.47,-2.94,1.37,1.27,-0.3,0.01
2022-01-30 18:58:03.2670,0.224,-0.171,-1.105,-0.39765378758311276,-2.7,2.59,1.27,-0.3,0.01
2022-01-30 18:58:03.2770,0.213,-0.211,-1.189,-0.4,-2.7,2.59,1.31,-0.66,-0.09
2022-01-30 18:58:03.2870,0.174,-0.265,-1.293,0.16,-1.94,4.65,1.18,-1.2,-0.33
2022-01-30 18:58:03.2970,0.103,-0.303,-1.398,0.85,-1.79,5.58,1.17,-1.3,-0.51
2022-01-30 18:58:03.3070,0.018,-0.3,-1.463,1.57,-2.08,6.12,1.17,-1.3,-0.51
2022-01-30 18:58:03.3170,-0.053,-0.259,-1.489,2.14,-2.6,6.25,1.47,-1.07,-1.19
2022-01-30 18:58:03.3280,-0.106,-0.224,-1.469,2.14,-2.6,6.25,1.67,-0.82,-1.59
2022-01-30 18:58:03.3380,-0.139,-0.207,-1.405,2.56,-2.98,5.96,1.67,-0.82,-1.59
2022-01-30 18:58:03.3490,-0.148,-0.207,-1.296,2.83,-3.21,5.23,1.83,-0.49,-1.95
2022-01-30 18:58:03.3580,-0.125,-0.24,-1.159,2.88,-3.23,4.12,1.91,-0.07,-2.21
2022-01-30 18:58:03.3680,-0.071,-0.309,-1.006,2.66,-2.88,2.82,1.87,1.03,-2.41
2022-01-30 18:58:03.3780,0.003,-0.396,-0.847,2.19,-2.22,1.38,1.84,1.68,-2.36
2022-01-30 18:58:03.3890,0.065,-0.472,-0.717,1.71,-1.47,0.01,1.81,2.21,-2.27
2022-01-30 18:58:03.3980,0.11,-0.51,-0.654,1.43,-0.93,-0.9,1.73,2.48,-2.16
2022-01-30 18:58:03.4080,0.137,-0.526,-0.619,1.36,-0.77,-1.18,1.73,2.48,-2.16
2022-01-30 18:58:03.4270,0.157,-0.554,-0.574,1.54,-0.4,-1.66,1.62,2.54,-2.03
2022-01-30 18:58:03.4280,0.184,-0.586,-0.535,1.54,-0.4,-1.66,1.45,2.14,-1.74
2022-01-30 18:58:03.4370,0.232,-0.614,-0.516,1.5,-0.15,-1.79,1.4,1.7,-1.65
2022-01-30 18:58:03.4470,0.307,-0.633,-0.492,1.17,0.07,-1.81,1.34,1.17,-1.62
2022-01-30 18:58:03.4590,0.395,-0.635,-0.476,0.57,0.18,-1.91,1.34,1.17,-1.62
2022-01-30 18:58:03.4680,0.452,-0.613,-0.464,-0.06,0.08,-1.89,1.03,0.01,-1.48
2022-01-30 18:58:03.4780,0.472,-0.58,-0.447,-0.33,-0.21,-1.95,0.75,-0.49,-1.21
2022-01-30 18:58:03.4880,0.481,-0.557,-0.44,-0.36,-0.51,-2.0,0.75,-0.49,-1.21
2022-01-30 18:58:03.4990,0.504,-0.567,-0.391,-0.49,-0.68,-2.23,0.16,-0.87,-0.14
2022-01-30 18:58:03.5080,0.498,-0.624,-0.392,-0.64,-0.31,-2.62,-0.03,-0.9,0.57
2022-01-30 18:58:03.5180,0.478,-0.621,-0.448,-0.55,0.09,-2.35,-0.04,-0.91,1.22
2022-01-30 18:58:03.5290,0.449,-0.6,-0.486,-0.43,-0.12,-1.88,0.13,-0.91,1.73
2022-01-30 18:58:03.5390,0.419,-0.588,-0.52,-0.26,-0.35,-1.59,0.41,-0.91,2.07
2022-01-30 18:58:03.5490,0.399,-0.6,-0.561,-0.16,-0.48,-1.26,0.74,-1.01,2.25
2022-01-30 18:58:03.5590,0.382,-0.628,-0.603,-0.19,-0.37,-0.82,0.74,-1.01,2.25
2022-01-30 18:58:03.5690,0.357,-0.642,-0.59,-0.21,-0.26,-0.56,1.38,-1.25,2.24
2022-01-30 18:58:03.5790,0.331,-0.644,-0.564,-0.18,-0.34,-0.79,1.54,-1.36,2.12
2022-01-30 18:58:03.5890,0.312,-0.65,-0.547,-0.18,-0.47,-0.93,1.55,-1.48,1.96
2022-01-30 18:58:03.5990,0.297,-0.647,-0.523,-0.24,-0.58,-1.06,1.4,-1.57,1.77
2022-01-30 18:58:03.6090,0.278,-0.633,-0.503,-0.31,-0.8,-1.24,1.4,-1.57,1.77
2022-01-30 18:58:03.6190,0.256,-0.625,-0.51,-0.35,-1.08,-1.28,0.77,-1.75,1.31
2022-01-30 18:58:03.6290,0.237,-0.636,-0.531,-0.4,-1.1,-0.87,0.44,-1.85,1.1
2022-01-30 18:58:03.6390,0.232,-0.655,-0.559,-0.4,-1.1,-0.87,0.21,-1.95,0.93
2022-01-30 18:58:03.6490,0.236,-0.663,-0.598,-0.59,-0.98,-0.55,0.21,-1.95,0.93
2022-01-30 18:58:03.6590,0.246,-0.662,-0.647,-0.85,-0.97,-0.13,0.12,-2.18,0.65
2022-01-30 18:58:03.6690,0.253,-0.648,-0.667,-1.15,-1.03,0.27,0.19,-2.13,0.55
2022-01-30 18:58:03.6790,0.233,-0.62,-0.657,-1.31,-1.24,0.29,0.28,-1.91,0.52
2022-01-30 18:58:03.6890,0.196,-0.596,-0.66,-1.21,-1.54,0.21,0.36,-1.51,0.54
2022-01-30 18:58:03.6990,0.153,-0.573,-0.625,-0.96,-1.79,0.2,0.42,-0.88,0.61
2022-01-30 18:58:03.7090,0.115,-0.56,-0.566,-0.44,-2.11,-0.75,0.41,-0.15,0.71
2022-01-30 18:58:03.7190,0.088,-0.566,-0.551,-0.44,-2.11,-0.75,0.32,0.47,0.8
2022-01-30 18:58:03.7290,0.075,-0.583,-0.57,-0.28,-2.02,-0.69,0.32,0.47,0.8
2022-01-30 18:58:03.7400,0.074,-0.603,-0.581,-0.24,-1.86,-0.49,0.1,1.13,0.84
2022-01-30 18:58:03.7490,0.072,-0.622,-0.594,-0.25,-1.69,-0.37,0.1,1.13,0.84
2022-01-30 18:58:03.7590,0.073,-0.642,-0.603,-0.23,-1.5,-0.23,0.07,1.2,0.8
2022-01-30 18:58:03.7690,0.064,-0.655,-0.597,-0.21,-1.33,-0.17,0.24,1.04,0.73
2022-01-30 18:58:03.7800,0.04,-0.659,-0.571,-0.06,-1.25,-0.3,0.36,0.97,0.74
2022-01-30 18:58:03.7890,0.01,-0.657,-0.538,0.51,-1.31,-0.87,0.46,0.97,0.75
2022-01-30 18:58:03.8000,-0.013,-0.657,-0.501,0.51,-1.31,-0.87,0.51,1.04,0.75
2022-01-30 18:58:03.8100,-0.021,-0.681,-0.452,0.67,-1.26,-1.24,0.52,1.17,0.73
2022-01-30 18:58:03.8190,-0.025,-0.7,-0.421,0.78,-0.93,-1.78,0.46,1.27,0.67
2022-01-30 18:58:03.8290,-0.026,-0.714,-0.417,0.78,-0.93,-1.78,0.46,1.27,0.67
2022-01-30 18:58:03.8400,-0.016,-0.755,-0.394,0.78,-0.75,-1.82,0.17,1.45,0.53
2022-01-30 18:58:03.8500,0.002,-0.813,-0.385,0.54,0.27,-1.97,-0.03,1.48,0.49
2022-01-30 18:58:03.8600,0.015,-0.859,-0.406,0.54,0.27,-1.97,-0.22,1.42,0.44
2022-01-30 18:58:03.8700,0.027,-0.884,-0.437,0.48,0.64,-1.7,-0.39,1.29,0.37
2022-01-30 18:58:03.8800,0.046,-0.907,-0.466,0.38,0.86,-1.4,-0.52,1.17,0.31
2022-01-30 18:58:03.8900,0.056,-0.936,-0.478,0.26,1.14,-1.21,-0.57,1.06,0.28
2022-01-30 18:58:03.9000,0.059,-0.951,-0.495,0.23,1.43,-1.11,-0.56,0.97,0.29
2022-01-30 18:58:03.9100,0.057,-0.952,-0.504,0.26,1.54,-1.0,-0.5,0.9,0.29
2022-01-30 18:58:03.9200,0.049,-0.946,-0.511,0.34,1.55,-0.97,-0.41,0.81,0.27
2022-01-30 18:58:03.9300,0.044,-0.946,-0.518,0.45,1.52,-0.93,-0.32,0.71,0.22
2022-01-30 18:58:03.9400,0.045,-0.967,-0.515,0.5,1.61,-0.91,-0.23,0.59,0.16
2022-01-30 18:58:03.9500,0.048,-0.998,-0.509,0.5,1.9,-0.98,-0.16,0.47,0.08
2022-01-30 18:58:03.9600,0.052,-1.03,-0.502,0.49,2.22,-1.05,-0.09,0.35,-0.02
2022-01-30 18:58:03.9700,0.054,-1.052,-0.491,0.48,2.53,-1.15,-0.02,0.24,-0.11
2022-01-30 18:58:03.9800,0.051,-1.054,-0.471,0.49,2.67,-1.28,0.02,0.16,-0.18
2022-01-30 18:58:03.9900,0.043,-1.053,-0.448,0.57,2.65,-1.5,0.03,0.11,-0.21
2022-01-30 18:58:04.0010,0.036,-1.057,-0.423,0.68,2.67,-1.73,-0.01,0.09,-0.23
2022-01-30 18:58:04.0110,0.033,-1.059,-0.403,0.75,2.71,-1.96,-0.08,0.11,-0.24
2022-01-30 18:58:04.0200,0.038,-1.06,-0.378,0.78,2.73,-2.16,-0.16,0.16,-0.27
2022-01-30 18:58:04.0300,0.045,-1.048,-0.359,0.73,2.72,-2.43,-0.26,0.22,-0.33
2022-01-30 18:58:04.0400,0.049,-1.03,-0.358,0.71,2.57,-2.54,-0.36,0.27,-0.39
2022-01-30 18:58:04.0510,0.051,-1.021,-0.36,0.76,2.37,-2.52,-0.45,0.31,-0.44
2022-01-30 18:58:04.0610,0.048,-1.005,-0.376,0.76,2.37,-2.52,-0.45,0.31,-0.44
2022-01-30 18:58:04.0710,0.039,-0.977,-0.394,0.86,2.21,-2.37,-0.55,0.34,-0.53
2022-01-30 18:58:04.0800,0.03,-0.939,-0.406,1.02,1.94,-2.25,-0.55,0.35,-0.58
2022-01-30 18:58:04.0900,0.029,-0.902,-0.409,1.14,1.6,-2.2,-0.53,0.37,-0.62
2022-01-30 18:58:04.1010,0.033,-0.867,-0.404,1.22,1.0,-2.32,-0.5,0.36,-0.65
2022-01-30 18:58:04.1110,0.035,-0.833,-0.407,1.22,1.0,-2.32,-0.5,0.36,-0.65
2022-01-30 18:58:04.1210,0.032,-0.8,-0.407,1.39,0.44,-2.35,-0.43,0.28,-0.67
2022-01-30 18:58:04.1300,0.032,-0.772,-0.409,1.39,0.44,-2.35,-0.38,0.21,-0.67
2022-01-30 18:58:04.1410,0.031,-0.745,-0.423,1.44,0.21,-2.32,-0.32,0.08,-0.67
2022-01-30 18:58:04.1510,0.025,-0.724,-0.448,1.64,-0.15,-1.92,-0.26,-0.11,-0.65
2022-01-30 18:58:04.1610,0.019,-0.709,-0.473,1.64,-0.15,-1.92,-0.2,-0.34,-0.6
2022-01-30 18:58:04.1710,0.003,-0.701,-0.486,1.77,-0.25,-1.72,-0.14,-0.56,-0.53
2022-01-30 18:58:04.1810,-0.021,-0.692,-0.489,1.98,-0.3,-1.68,-0.06,-0.75,-0.47
2022-01-30 18:58:04.1910,-0.039,-0.679,-0.498,2.21,-0.37,-1.66,0.01,-0.94,-0.45
2022-01-30 18:58:04.2010,-0.057,-0.661,-0.519,2.49,-0.66,-1.31,0.02,-1.14,-0.47
2022-01-30 18:58:04.2110,-0.07,-0.652,-0.553,2.49,-0.66,-1.31,-0.08,-1.31,-0.55
2022-01-30 18:58:04.2210,-0.086,-0.665,-0.589,2.68,-0.48,-0.69,-0.26,-1.42,-0.65
2022-01-30 18:58:04.2310,-0.093,-0.684,-0.616,2.68,-0.48,-0.69,-0.5,-1.47,-0.81
2022-01-30 18:58:04.2410,-0.088,-0.688,-0.655,2.65,-0.29,-0.46,-0.77,-1.53,-1.03
2022-01-30 18:58:04.2510,-0.082,-0.681,-0.711,2.53,-0.25,-0.05,-1.06,-1.53,-1.23
2022-01-30 18:58:04.2610,-0.089,-0.653,-0.737,2.58,-0.59,0.34,-1.29,-1.36,-1.37
2022-01-30 18:58:04.2710,-0.102,-0.604,-0.726,2.58,-0.59,0.34,-1.29,-1.36,-1.37
2022-01-30 18:58:04.2810,-0.104,-0.572,-0.729,2.68,-0.93,0.12,-1.46,-0.71,-1.37
2022-01-30 18:58:04.2910,-0.09,-0.571,-0.749,2.67,-1.0,0.13,-1.46,-0.71,-1.37
2022-01-30 18:58:04.3020,-0.059,-0.587,-0.775,2.51,-0.81,0.24,-1.29,-0.46,-1.09
2022-01-30 18:58:04.3110,-0.018,-0.621,-0.8,2.19,-0.48,0.41,-1.17,-0.59,-0.93
2022-01-30 18:58:04.3210,0.016,-0.671,-0.821,1.83,0.05,0.54,-1.08,-0.81,-0.8
2022-01-30 18:58:04.3310,0.03,-0.724,-0.842,1.58,0.68,0.68,-0.97,-1.05,-0.72
2022-01-30 18:58:04.3420,0.035,-0.755,-0.856,1.47,1.23,0.76,-0.85,-1.29,-0.68
2022-01-30 18:58:04.3510,0.038,-0.771,-0.882,1.38,1.55,0.85,-0.79,-1.56,-0.64
2022-01-30 18:58:04.3610,0.039,-0.785,-0.894,1.31,1.77,1.03,-0.79,-1.56,-0.64
2022-01-30 18:58:04.3720,0.043,-0.796,-0.888,1.2,1.96,0.97,-0.81,-1.99,-0.52
2022-01-30 18:58:04.3820,0.046,-0.801,-0.892,1.05,2.13,0.87,-0.86,-2.19,-0.45
2022-01-30 18:58:04.3920,0.047,-0.799,-0.904,0.9,2.22,0.87,-0.86,-2.19,-0.45
2022-01-30 18:58:04.4020,0.047,-0.792,-0.913,0.74,2.26,0.91,-0.83,-2.57,-0.4
2022-01-30 18:58:04.4120,0.046,-0.783,-0.919,0.58,2.25,0.89,-0.76,-2.7,-0.44
2022-01-30 18:58:04.4220,0.048,-0.774,-0.927,0.38,2.24,0.91,-0.65,-2.73,-0.54
2022-01-30 18:58:04.4320,0.046,-0.762,-0.926,0.17,2.21,0.9,-0.52,-2.66,-0.65
2022-01-30 18:58:04.4420,0.031,-0.742,-0.919,-0.01,1.96,0.69,-0.4,-2.53,-0.73
2022-01-30 18:58:04.4520,0.029,-0.726,-0.911,-0.01,1.96,0.69,-0.4,-2.53,-0.73
2022-01-30 18:58:04.4620,0.049,-0.732,-0.92,-0.24,1.91,0.61,-0.17,-2.39,-0.76
2022-01-30 18:58:04.4720,0.077,-0.741,-0.944,-0.65,2.04,0.79,-0.01,-2.45,-0.7
2022-01-30 18:58:04.4820,0.107,-0.746,-0.942,-1.1,2.11,0.94,0.17,-2.56,-0.59
2022-01-30 18:58:04.4920,0.134,-0.765,-0.931,-1.56,2.19,0.86,0.28,-2.7,-0.47
2022-01-30 18:58:04.5020,0.151,-0.797,-0.922,-1.97,2.43,0.8,0.31,-2.8,-0.37
2022-01-30 18:58:04.5120,0.154,-0.826,-0.895,-2.3,2.73,0.68,0.31,-2.8,-0.37
2022-01-30 18:58:04.5220,0.143,-0.839,-0.867,-2.49,2.92,0.42,0.16,-2.69,-0.3
2022-01-30 18:58:04.5320,0.122,-0.844,-0.852,-2.56,2.99,0.24,0.01,-2.5,-0.34
2022-01-30 18:58:04.5420,0.094,-0.853,-0.841,-2.52,3.03,0.16,0.01,-2.5,-0.34
2022-01-30 18:58:04.5520,0.062,-0.858,-0.837,-2.41,3.11,0.1,-0.14,-2.24,-0.41
2022-01-30 18:58:04.5620,0.033,-0.857,-0.852,-2.25,3.14,0.16,-0.27,-1.98,-0.5
2022-01-30 18:58:04.5720,0.015,-0.853,-0.873,-2.14,3.14,0.36,-0.36,-1.73,-0.6
2022-01-30 18:58:04.5830,0.008,-0.844,-0.89,-2.1,3.1,0.59,-0.3,-1.29,-0.77
2022-01-30 18:58:04.5920,0.018,-0.833,-0.893,-2.18,3.01,0.71,-0.3,-1.29,-0.77
2022-01-30 18:58:04.6030,0.034,-0.838,-0.888,-2.37,2.96,0.7,-0.17,-1.09,-0.79
2022-01-30 18:58:04.6130,0.056,-0.844,-0.902,-2.59,3.03,0.71,0.1,-0.81,-0.79
2022-01-30 18:58:04.6220,0.074,-0.846,-0.925,-2.85,3.05,0.93,0.1,-0.81,-0.79
2022-01-30 18:58:04.6330,0.073,-0.848,-0.946,-2.99,3.05,1.17,-0.03,-0.48,-0.9
2022-01-30 18:58:04.6420,0.048,-0.833,-0.964,-2.89,3.01,1.39,-0.21,-0.15,-0.97
2022-01-30 18:58:04.6530,0.016,-0.798,-0.981,-2.59,2.76,1.54,-0.39,0.24,-1.05
2022-01-30 18:58:04.6630,-0.014,-0.754,-1.029,-2.24,2.37,1.79,-0.52,0.6,-1.11
2022-01-30 18:58:04.6730,-0.047,-0.721,-1.091,-1.87,1.97,2.34,-0.52,0.6,-1.11
2022-01-30 18:58:04.6830,-0.087,-0.67,-1.146,-1.39,1.66,2.86,-0.48,1.19,-1.22
2022-01-30 18:58:04.6930,-0.118,-0.591,-1.199,-0.87,1.04,3.38,-0.27,1.36,-1.26
2022-01-30 18:58:04.7030,-0.122,-0.52,-1.197,-0.49,0.29,3.71,0.05,1.53,-1.27
2022-01-30 18:58:04.7130,-0.099,-0.46,-1.136,-0.39,-0.37,3.39,0.39,1.7,-1.21
2022-01-30 18:58:04.7230,-0.065,-0.416,-1.069,-0.47,-0.93,2.7,0.64,1.82,-1.06
2022-01-30 18:58:04.7330,-0.036,-0.398,-1.007,-0.6,-1.32,2.07,0.75,1.86,-0.83
2022-01-30 18:58:04.7430,-0.026,-0.398,-0.966,-0.63,-1.48,1.51,0.76,1.72,-0.51
2022-01-30 18:58:04.7530,-0.044,-0.403,-0.988,-0.43,-1.49,1.33,0.76,1.72,-0.51
2022-01-30 18:58:04.7630,-0.071,-0.378,-1.052,-0.04,-1.59,1.8,0.71,0.59,0.18
2022-01-30 18:58:04.7730,-0.107,-0.344,-1.104,0.35,-1.98,2.45,0.71,0.59,0.18
2022-01-30 18:58:04.7830,-0.152,-0.315,-1.14,0.78,-2.33,2.95,0.99,-0.93,0.62
2022-01-30 18:58:04.7930,-0.189,-0.274,-1.131,1.38,-3.21,3.0,1.2,-1.43,0.65
2022-01-30 18:58:04.8030,-0.225,-0.24,-1.076,1.38,-3.21,3.0,1.36,-1.6,0.59
2022-01-30 18:58:04.8130,-0.268,-0.22,-0.993,1.61,-3.57,2.41,1.4,-1.44,0.49
2022-01-30 18:58:04.8230,-0.313,-0.2,-0.912,1.88,-3.86,1.66,1.31,-1.04,0.37
2022-01-30 18:58:04.8330,-0.348,-0.178,-0.848,2.16,-4.15,1.03,1.12,-0.5,0.26
2022-01-30 18:58:04.8430,-0.372,-0.157,-0.805,2.37,-4.49,0.54,0.9,0.05,0.2
2022-01-30 18:58:04.8530,-0.386,-0.155,-0.805,2.52,-4.71,0.35,0.67,0.47,0.18
2022-01-30 18:58:04.8630,-0.39,-0.166,-0.822,2.61,-4.71,0.5,0.51,0.74,0.21
2022-01-30 18:58:04.8730,-0.389,-0.169,-0.843,2.65,-4.67,0.72,0.51,0.74,0.21
2022-01-30 18:58:04.8830,-0.392,-0.158,-0.863,2.69,-4.73,0.94,0.45,0.73,0.24
2022-01-30 18:58:04.8930,-0.399,-0.142,-0.875,2.78,-4.9,1.15,0.56,0.55,0.21
2022-01-30 18:58:04.9040,-0.397,-0.13,-0.858,2.87,-5.07,1.19,0.7,0.33,0.16
2022-01-30 18:58:04.9130,-0.384,-0.128,-0.829,2.83,-5.2,0.99,0.79,0.13,0.07
2022-01-30 18:58:04.9240,-0.364,-0.146,-0.792,2.69,-5.2,0.72,0.8,-0.03,-0.04
2022-01-30 18:58:04.9340,-0.337,-0.177,-0.746,2.47,-5.02,0.38,0.73,-0.1,-0.14
2022-01-30 18:58:04.9440,-0.312,-0.21,-0.697,2.2,-4.75,-0.05,0.58,-0.1,-0.23
2022-01-30 18:58:04.9540,-0.292,-0.241,-0.66,1.98,-4.49,-0.45,0.4,-0.06,-0.32
2022-01-30 18:58:04.9630,-0.271,-0.274,-0.633,1.79,-4.22,-0.73,0.4,-0.06,-0.32
2022-01-30 18:58:04.9740,-0.249,-0.307,-0.619,1.6,-3.93,-0.93,0.01,0.07,-0.41
2022-01-30 18:58:04.9830,-0.231,-0.338,-0.62,1.42,-3.62,-1.0,-0.14,0.1,-0.42
2022-01-30 18:58:04.9940,-0.22,-0.367,-0.624,1.3,-3.33,-0.97,-0.24,0.1,-0.42
2022-01-30 18:58:05.0040,-0.212,-0.397,-0.623,1.25,-3.04,-0.95,-0.29,0.12,-0.42
2022-01-30 18:58:05.0140,-0.192,-0.435,-0.621,0.97,-2.28,-1.0,-0.31,0.12,-0.45
2022-01-30 18:58:05.0220,-0.159,-0.485,-0.632,0.97,-2.28,-1.0,-0.32,0.07,-0.49
2022-01-30 18:58:05.0330,-0.116,-0.556,-0.645,0.64,-1.7,-0.89,-0.32,0.07,-0.49
2022-01-30 18:58:05.0440,-0.064,-0.642,-0.656,0.22,-0.9,-0.81,-0.35,-0.19,-0.62
2022-01-30 18:58:05.0540,-0.01,-0.728,-0.674,-0.77,0.83,-0.53,-0.4,-0.38,-0.68
2022-01-30 18:58:05.0640,0.044,-0.814,-0.69,-0.77,0.83,-0.53,-0.4,-0.38,-0.68
2022-01-30 18:58:05.0740,0.094,-0.889,-0.709,-1.28,1.68,-0.41,-0.58,-0.71,-0.78
2022-01-30 18:58:05.0840,0.124,-0.943,-0.75,-1.72,2.38,-0.18,-0.67,-0.77,-0.81
2022-01-30 18:58:05.0940,0.128,-0.964,-0.791,-1.92,2.84,0.21,-0.78,-0.72,-0.85
2022-01-30 18:58:05.1050,0.118,-0.965,-0.841,-1.89,2.98,0.59,-0.88,-0.56,-0.87
2022-01-30 18:58:05.1140,0.111,-0.982,-0.903,-1.78,3.07,1.08,-0.91,-0.32,-0.87
2022-01-30 18:58:05.1240,0.112,-1.002,-0.957,-1.73,3.36,1.64,-0.91,-0.32,-0.87
2022-01-30 18:58:05.1340,0.116,-0.992,-0.964,-1.72,3.52,1.97,-0.51,0.5,-0.77
2022-01-30 18:58:05.1440,0.125,-0.972,-0.947,-1.71,3.4,1.85,-0.13,0.98,-0.64
2022-01-30 18:58:05.1540,0.141,-0.967,-0.918,-1.74,3.27,1.61,0.22,1.39,-0.44
2022-01-30 18:58:05.1650,0.158,-0.977,-0.899,-1.79,3.3,1.32,0.49,1.67,-0.2
2022-01-30 18:58:05.1740,0.181,-1.001,-0.877,-1.84,3.43,1.18,0.69,1.88,0.03
2022-01-30 18:58:05.1840,0.2,-1.011,-0.852,-1.9153718465566636,3.5886216026544573,0.87,0.84,1.96,0.21
2022-01-30 18:58:05.1950,0.204,-1.003,-0.866,-1.92,3.58,0.87,1.0,1.89,0.34
2022-01-30 18:58:05.2050,0.195,-0.981,-0.88,-1.78,3.39,1.11,1.0,1.89,0.34
2022-01-30 18:58:05.2140,0.176,-0.939,-0.884,-1.54,3.03,1.27,1.33,1.44,0.47
2022-01-30 18:58:05.2250,0.15,-0.889,-0.883,-1.23,2.48,1.38,1.33,1.44,0.47
2022-01-30 18:58:05.2340,0.12,-0.836,-0.868,-0.88,1.88,1.41,1.56,0.96,0.58
2022-01-30 18:58:05.2450,0.098,-0.783,-0.853,-0.56,1.24,1.35,1.56,0.96,0.58
2022-01-30 18:58:05.2550,0.082,-0.739,-0.841,-0.35,0.64,1.33,1.59,0.71,0.64
2022-01-30 18:58:05.2640,0.068,-0.703,-0.831,-0.19,0.13,1.33,1.55,0.69,0.65
2022-01-30 18:58:05.2750,0.056,-0.666,-0.819,-0.05,-0.34,1.35,1.5,0.71,0.65
2022-01-30 18:58:05.2850,0.052,-0.636,-0.807,0.04,-0.79,1.34,1.5,0.71,0.65
2022-01-30 18:58:05.2950,0.055,-0.614,-0.799,0.05,-1.15,1.35,1.42,0.84,0.64
2022-01-30 18:58:05.3040,0.062,-0.595,-0.786,0.01,-1.45,1.38,1.36,0.9,0.65
2022-01-30 18:58:05.3160,0.067,-0.583,-0.768,-0.06,-1.7,1.34,1.29,0.96,0.69
2022-01-30 18:58:05.3250,0.069,-0.571,-0.745,-0.08,-2.08,1.14,1.2,1.01,0.75
2022-01-30 18:58:05.3350,0.062,-0.568,-0.728,0.03,-2.18,1.07,1.2,1.01,0.75
2022-01-30 18:58:05.3440,0.047,-0.561,-0.708,0.03,-2.18,1.07,1.07,1.15,0.86
2022-01-30 18:58:05.3550,0.032,-0.543,-0.684,0.33,-2.61,0.8,1.02,1.23,0.88
2022-01-30 18:58:05.3640,0.016,-0.528,-0.662,0.33,-2.61,0.8,0.99,1.31,0.89
2022-01-30 18:58:05.3750,-0.003,-0.524,-0.63,0.5,-2.79,0.64,0.99,1.31,0.89
2022-01-30 18:58:05.3860,-0.021,-0.526,-0.596,0.69,-2.85,0.16076276242733004,0.92,1.54,0.95
2022-01-30 18:58:05.3960,-0.03,-0.526,-0.567,0.84,-2.9,0.16,0.89,1.63,0.99
2022-01-30 18:58:05.4050,-0.044,-0.535,-0.54,1.12,-2.86,-0.19,0.86,1.69,1.04
2022-01-30 18:58:05.4160,-0.066,-0.55,-0.526,1.12,-2.86,-0.19,0.84,1.72,1.08
2022-01-30 18:58:05.4250,-0.086,-0.548,-0.514,1.35,-2.8,-0.19,0.83,1.73,1.07
2022-01-30 18:58:05.4350,-0.1,-0.533,-0.499,1.6622134289145472,-3.101570758223534,-0.33,0.8,1.72,0.98
2022-01-30 18:58:05.4460,-0.113,-0.534,-0.479,1.66,-3.11,-0.33,0.72,1.74,0.86
2022-01-30 18:58:05.4550,-0.118,-0.538,-0.444,1.82,-3.11,-0.79,0.57,1.78,0.72
2022-01-30 18:58:05.4660,-0.121,-0.542,-0.416,1.82,-3.11,-0.79,0.57,1.78,0.72
2022-01-30 18:58:05.4760,-0.124,-0.545,-0.394,1.98,-3.11,-1.13,0.07,1.92,0.5
2022-01-30 18:58:05.4860,-0.141,-0.539,-0.384,2.23,-3.25,-1.15,-0.24,2.02,0.41
2022-01-30 18:58:05.4960,-0.158,-0.514,-0.386,2.23,-3.25,-1.15,-0.24,2.02,0.41
2022-01-30 18:58:05.5050,-0.162,-0.482,-0.386,2.51,-3.78,-1.19,-0.84,2.35,0.26
2022-01-30 18:58:05.5160,-0.161,-0.458,-0.375,2.51,-3.78,-1.19,-0.84,2.35,0.26
2022-01-30 18:58:05.5250,-0.16,-0.431,-0.367,2.59,-3.98,-1.4,-1.24,3.02,0.23
2022-01-30 18:58:05.5360,-0.167,-0.394,-0.41,2.72,-4.23,-1.38,-1.37,3.26,0.24
2022-01-30 18:58:05.5460,-0.182,-0.371,-0.481,2.95,-4.52,-0.87,-1.46,3.35,0.25
2022-01-30 18:58:05.5560,-0.201,-0.379,-0.557,3.26,-4.56,-0.23,-1.42,3.29,0.27
2022-01-30 18:58:05.5660,-0.219,-0.393,-0.627,3.62,-4.34,0.47,-1.22,3.09,0.27
2022-01-30 18:58:05.5760,-0.211,-0.363,-0.682,3.88,-4.25,1.0,-1.22,3.09,0.27
2022-01-30 18:58:05.5860,-0.183,-0.337,-0.745,3.84,-4.59,1.55,-0.94,2.7,0.26
2022-01-30 18:58:05.5960,-0.158,-0.379,-0.761,3.68,-4.55,2.02,-0.6,1.62,0.5
2022-01-30 18:58:05.6060,-0.147,-0.44,-0.755,3.57,-3.96,2.02,-0.6,1.62,0.5
2022-01-30 18:58:05.6160,-0.147,-0.479,-0.75,3.54,-3.41,1.95,-0.63,1.05,0.73
2022-01-30 18:58:05.6260,-0.168,-0.516,-0.741,3.6,-3.05,1.86,-0.87,0.01,1.15
2022-01-30 18:58:05.6360,-0.208,-0.552,-0.749,3.83,-2.63,1.74,-0.93,-0.5,1.24
2022-01-30 18:58:05.6460,-0.25,-0.559,-0.756,4.17,-2.36,1.81,-0.88,-0.98,1.19
2022-01-30 18:58:05.6560,-0.26,-0.584,-0.756,4.36,-2.27,1.73,-0.76,-1.48,1.01
2022-01-30 18:58:05.6660,-0.243,-0.652,-0.767,4.18,-1.82,1.67,-0.67,-2.05,0.76
2022-01-30 18:58:05.6760,-0.217,-0.726,-0.788,3.81,-1.06,1.74,-0.67,-2.05,0.76
2022-01-30 18:58:05.6860,-0.186,-0.795,-0.799,3.34,-0.35,1.87,-0.95,-3.14,0.22
2022-01-30 18:58:05.6960,-0.164,-0.87,-0.776,2.85,0.42,1.76,-1.35,-3.35,0.04
2022-01-30 18:58:05.7060,-0.166,-0.908,-0.76,2.51,1.13,1.39,-1.35,-3.35,0.04
2022-01-30 18:58:05.7160,-0.195,-0.888,-0.763,2.42,1.38,1.18,-2.31,-2.93,-0.31
2022-01-30 18:58:05.7260,-0.241,-0.833,-0.792,2.59,1.13,1.1,-2.64,-2.47,-0.53
2022-01-30 18:58:05.7360,-0.281,-0.776,-0.864,2.89,0.72,1.37,-2.76,-2.06,-0.78
2022-01-30 18:58:05.7470,-0.297,-0.727,-0.967,3.08,0.36,2.01,-2.64,-1.82,-1.03
2022-01-30 18:58:05.7570,-0.293,-0.702,-1.064,3.08,0.14,2.86,-2.64,-1.82,-1.03
2022-01-30 18:58:05.7660,-0.269,-0.716,-1.132,2.89,0.21,3.52,-1.93,-1.9,-1.27
2022-01-30 18:58:05.7770,-0.243,-0.749,-1.18,2.58,0.65,3.96,-1.93,-1.9,-1.27
2022-01-30 18:58:05.7870,-0.217,-0.76,-1.207,2.26,1.04,4.24,-1.2,-2.32,-1.17
2022-01-30 18:58:05.7970,-0.201,-0.762,-1.186,1.94,1.21,4.26,-0.9,-2.38,-1.11
2022-01-30 18:58:05.8060,-0.192,-0.745,-1.15,1.72,1.28,3.86,-0.65,-2.35,-1.07
2022-01-30 18:58:05.8170,-0.186,-0.706,-1.12,1.53,1.07,3.49,-0.45,-2.28,-1.09
2022-01-30 18:58:05.8270,-0.173,-0.667,-1.079,1.35,0.72,3.13,-0.31,-2.2,-1.15
2022-01-30 18:58:05.8370,-0.144,-0.651,-1.046,1.06,0.42,2.72,-0.24,-2.17,-1.25
2022-01-30 18:58:05.8470,-0.096,-0.658,-1.016,0.6,0.39,2.42,-0.21,-2.2,-1.37
2022-01-30 18:58:05.8570,-0.04,-0.677,-0.987,-0.01,0.52,2.12,-0.21,-2.2,-1.37
2022-01-30 18:58:05.8670,0.016,-0.694,-0.959,-0.65,0.72,1.85,-0.23,-2.3,-1.65
2022-01-30 18:58:05.8770,0.064,-0.694,-0.929,-1.27,0.84,1.58,-0.23,-2.3,-1.65
2022-01-30 18:58:05.8870,0.104,-0.697,-0.895,-1.78,0.82,1.26,-0.28,-2.22,-1.74
2022-01-30 18:58:05.8970,0.14,-0.713,-0.89,-2.24,0.91,1.01,-0.26,-2.16,-1.67
2022-01-30 18:58:05.9070,0.167,-0.729,-0.904,-2.62,1.07,1.06,-0.19,-2.14,-1.54
2022-01-30 18:58:05.9170,0.187,-0.754,-0.925,-2.93,1.26,1.24,-0.19,-2.14,-1.35
2022-01-30 18:58:05.9270,0.201,-0.789,-0.941,-3.16,1.55,1.46,0.17,-2.29,-1.13
2022-01-30 18:58:05.9370,0.213,-0.824,-0.951,-3.4,1.88,1.62,0.36,-2.43,-0.93
2022-01-30 18:58:05.9470,0.216,-0.866,-0.953,-3.6,2.2,1.75,0.46,-2.57,-0.79
2022-01-30 18:58:05.9570,0.215,-0.914,-0.936,-3.72,2.61,1.76,0.46,-2.57,-0.79
2022-01-30 18:58:05.9670,0.226,-0.972,-0.908,-4.18,3.63,1.37,0.31,-2.64,-0.82
2022-01-30 18:58:05.9770,0.243,-1.04,-0.869,-4.18,3.63,1.37,0.12,-2.49,-0.93
2022-01-30 18:58:05.9870,0.257,-1.087,-0.824,-4.5,4.2,1.02,-0.08,-2.19,-1.0
2022-01-30 18:58:05.9970,0.262,-1.139,-0.778,-4.72,4.63,0.65,-0.08,-2.19,-1.0
2022-01-30 18:58:06.0070,0.258,-1.172,-0.736,-4.83,5.1,0.2,-0.21,-1.29,-0.92
2022-01-30 18:58:06.0170,0.256,-1.174,-0.728,-4.87,5.26,-0.07,-0.08,-0.9,-0.81
2022-01-30 18:58:06.0280,0.255,-1.174,-0.723,-4.87,5.26,-0.07,-0.08,-0.9,-0.81
2022-01-30 18:58:06.0380,0.259,-1.178,-0.72,-4.89,5.27,-0.1,0.13,-0.63,-0.68
2022-01-30 18:58:06.0470,0.263,-1.19,-0.707,-4.93,5.31,-0.13,0.61,-0.46,-0.42
2022-01-30 18:58:06.0570,0.273,-1.204,-0.7,-4.99,5.41,-0.23,0.84,-0.57,-0.31
2022-01-30 18:58:06.0670,0.283,-1.207,-0.698,-5.21,5.36,-0.22,1.06,-0.75,-0.23
2022-01-30 18:58:06.0780,0.288,-1.191,-0.679,-5.21,5.36,-0.22,1.23,-0.93,-0.19
2022-01-30 18:58:06.0880,0.287,-1.16,-0.657,-5.29,5.05,-0.33,1.34,-1.06,-0.16
2022-01-30 18:58:06.0980,0.277,-1.129,-0.629,-5.29,4.65,-0.46,1.38,-1.11,-0.15
2022-01-30 18:58:06.1090,0.264,-1.097,-0.602,-5.3,4.16,-0.51,1.37,-1.1,-0.15
2022-01-30 18:58:06.1190,0.252,-1.062,-0.581,-5.23,3.74,-0.63,1.37,-1.1,-0.15
2022-01-30 18:58:06.1290,0.243,-1.035,-0.558,-5.18,3.33,-0.72,1.22,-0.88,-0.14
2022-01-30 18:58:06.1390,0.234,-1.018,-0.53,-5.14,3.02,-0.86,1.09,-0.71,-0.1
2022-01-30 18:58:06.1490,0.224,-1.007,-0.511,-5.08,2.82,-1.02,0.94,-0.52,-0.05
2022-01-30 18:58:06.1590,0.216,-0.991,-0.509,-5.02,2.66,-1.06,0.81,-0.34,-0.01
2022-01-30 18:58:06.1690,0.207,-0.956,-0.523,-4.96,2.38,-0.96,0.73,-0.2,-0.02
2022-01-30 18:58:06.1790,0.2,-0.927,-0.551,-4.88,1.97,-0.71,0.72,-0.06,-0.05
2022-01-30 18:58:06.1890,0.194,-0.909,-0.584,-4.83,1.72,-0.35,0.79,0.04,-0.11
2022-01-30 18:58:06.1990,0.185,-0.879,-0.615,-4.74,1.45,0.02,0.92,0.11,-0.16
2022-01-30 18:58:06.2090,0.175,-0.842,-0.626,-4.63,1.06,0.36,1.06,0.21,-0.19
2022-01-30 18:58:06.2190,0.171,-0.809,-0.598,-4.52,0.65,0.39,1.19,0.38,-0.2
2022-01-30 18:58:06.2300,0.172,-0.783,-0.563,-4.47,0.27,0.12,1.19,0.38,-0.2
2022-01-30 18:58:06.2390,0.177,-0.757,-0.536,-4.44,-0.05,-0.1,1.34,0.77,-0.12
2022-01-30 18:58:06.2490,0.185,-0.73,-0.5,-4.46,-0.39,-0.31,1.36,0.96,-0.05
2022-01-30 18:58:06.2590,0.194,-0.717,-0.469,-4.49,-0.69,-0.6,1.36,1.11,0.03
2022-01-30 18:58:06.2690,0.201,-0.716,-0.462,-4.51,-0.83,-0.74,1.36,1.11,0.03
2022-01-30 18:58:06.2800,0.203,-0.718,-0.463,-4.51,-0.89,-0.67,1.34,1.24,0.07
2022-01-30 18:58:06.2890,0.201,-0.713,-0.465,-4.44,-0.96,-0.61,1.35,1.36,0.05
2022-01-30 18:58:06.2990,0.202,-0.718,-0.47,-4.34,-1.07,-0.48,1.33,1.56,-0.1
2022-01-30 18:58:06.3090,0.205,-0.74,-0.462,-4.28,-1.02,-0.41,1.32,1.67,-0.17
2022-01-30 18:58:06.3190,0.207,-0.753,-0.447,-4.22,-0.85,-0.45,1.33,1.79,-0.24
2022-01-30 18:58:06.3300,0.204,-0.731,-0.427,-4.11,-0.92,-0.55,1.33,1.89,-0.32
2022-01-30 18:58:06.3400,0.199,-0.7,-0.412,-3.95,-1.28,-0.68,1.27,1.92,-0.41
2022-01-30 18:58:06.3500,0.194,-0.679,-0.416,-3.77,-1.64,-0.69,1.27,1.8651043176651,-0.49
2022-01-30 18:58:06.3600,0.195,-0.681,-0.43,-3.61,-1.83,-0.54,0.87,1.74,-0.55
2022-01-30 18:58:06.3700,0.198,-0.714,-0.448,-3.51,-1.74,-0.35,0.87,1.74,-0.55
2022-01-30 18:58:06.3800,0.199,-0.753,-0.464,-3.41,-1.39,-0.14,0.25,1.56,-0.6
2022-01-30 18:58:06.3900,0.198,-0.77,-0.474,-3.28,-1.07,-0.03,0.02,1.6,-0.63
2022-01-30 18:58:06.4000,0.191,-0.753,-0.494,-3.13,-1.04,0.08,-0.1,1.73,-0.67
2022-01-30 18:58:06.4100,0.173,-0.721,-0.515,-2.89,-1.3,0.26,-0.1,1.73,-0.67
2022-01-30 18:58:06.4200,0.146,-0.687,-0.538,-2.52,-1.63,0.44,-0.06,2.12,-0.65
2022-01-30 18:58:06.4300,0.123,-0.67,-0.552,-2.09,-1.93,0.63,-0.06,2.12,-0.65
2022-01-30 18:58:06.4400,0.111,-0.677,-0.558,-1.77,-2.0,0.7,0.04,2.55,-0.44
2022-01-30 18:58:06.4500,0.094,-0.698,-0.569,-1.47,-1.88,0.76,0.02,2.71,-0.28
2022-01-30 18:58:06.4600,0.079,-0.733,-0.586,-1.15,-1.61,0.88,0.0,2.8,-0.14
2022-01-30 18:58:06.4700,0.081,-0.763,-0.609,-0.91,-1.26,1.07,0.03,2.79,-0.09
2022-01-30 18:58:06.4800,0.094,-0.774,-0.616,-0.85,-1.04,1.27,0.11,2.74,-0.12
2022-01-30 18:58:06.4900,0.111,-0.782,-0.597,-0.84,-0.97,1.25,0.23,2.7,-0.21
2022-01-30 18:58:06.5000,0.134,-0.798,-0.567,-0.89,-0.87,1.02,0.33,2.65,-0.29
2022-01-30 18:58:06.5100,0.154,-0.812,-0.528,-0.96,-0.73,0.74,0.38,2.64,-0.35
2022-01-30 18:58:06.5200,0.166,-0.833,-0.48,-0.99,-0.6,0.36,0.38,2.64,-0.35
2022-01-30 18:58:06.5300,0.165,-0.86,-0.442,-0.91,-0.37,-0.04,0.28,2.67,-0.21
2022-01-30 18:58:06.5400,0.16,-0.873,-0.408,-0.73,-0.14,-0.36,0.19,2.69,-0.06
2022-01-30 18:58:06.5500,0.16,-0.873,-0.391,-0.56,-0.09,-0.59,0.12,2.68,0.08
2022-01-30 18:58:06.5600,0.176,-0.89,-0.383,-0.5,-0.06,-0.69,0.07,2.63,0.18
2022-01-30 18:58:06.5700,0.197,-0.92,-0.386,-0.6,0.17,-0.69,0.04,2.56,0.22
2022-01-30 18:58:06.5800,0.214,-0.945,-0.392,-0.71,0.46,-0.61,0.04,2.47,0.18
2022-01-30 18:58:06.5900,0.218,-0.954,-0.408,-0.74,0.65,-0.49,0.05,2.34,0.07
2022-01-30 18:58:06.6000,0.221,-0.953,-0.431,-0.65,0.68,-0.25,0.06,2.18,-0.05
2022-01-30 18:58:06.6100,0.219,-0.935,-0.446,-0.59,0.64,-0.01,0.03,2.08,-0.14
2022-01-30 18:58:06.6200,0.21,-0.896,-0.434,-0.42,0.37,0.1,-0.02,2.06,-0.18
2022-01-30 18:58:06.6310,0.211,-0.861,-0.406,-0.25,-0.02,-0.08,-0.09,2.13,-0.16
2022-01-30 18:58:06.6400,0.223,-0.837,-0.387,-0.21,-0.33,-0.3,-0.19,2.22,-0.1
2022-01-30 18:58:06.6510,0.244,-0.828,-0.369,-0.25,-0.49,-0.46,-0.31,2.31,-0.02
2022-01-30 18:58:06.6610,0.276,-0.82,-0.363,-0.4,-0.55,-0.59,-0.45,2.31,0.03
2022-01-30 18:58:06.6710,0.323,-0.832,-0.376,-0.68,-0.58,-0.57,-0.63,2.2,0.06
2022-01-30 18:58:06.6810,0.366,-0.864,-0.411,-1.08,-0.32,-0.37,-0.82,1.96,0.1
2022-01-30 18:58:06.6910,0.394,-0.883,-0.441,-1.36,0.01,-0.04,-1.0,1.7,0.13
2022-01-30 18:58:06.6950,0.421,-0.891,-0.459,-1.36,0.01,-0.04,-1.12,1.43,0.16
2022-01-30 18:58:06.7120,0.444,-0.887,-0.487,-1.82,0.22,0.34,-1.2,1.15,0.18
2022-01-30 18:58:06.7220,0.468,-0.877,-0.513,-2.0,0.19,0.58,-1.2,1.15,0.18
2022-01-30 18:58:06.7320,0.489,-0.86,-0.537,-2.2,0.13,0.72,-1.27,0.82,0.22
2022-01-30 18:58:06.7410,0.508,-0.829,-0.568,-2.37,-0.04,0.93,-1.27,0.82,0.22
2022-01-30 18:58:06.7510,0.528,-0.8,-0.583,-2.53,-0.32,1.09,-1.24,1.06,0.32
2022-01-30 18:58:06.7610,0.558,-0.782,-0.605,-2.75,-0.49,1.15,-1.13,1.39,0.49
2022-01-30 18:58:06.7710,0.583,-0.755,-0.623,-3.02,-0.63,1.3,-1.13,1.39,0.49
2022-01-30 18:58:06.7810,0.6,-0.729,-0.617,-3.2,-0.89,1.36,-0.69,2.34,1.1
2022-01-30 18:58:06.7910,0.614,-0.714,-0.597,-3.34,-1.06,1.19,-0.45,2.86,1.51
2022-01-30 18:58:06.8010,0.621,-0.683,-0.587,-3.47,-1.62,1.05,-0.27,3.25,1.94
2022-01-30 18:58:06.8120,0.631,-0.652,-0.603,-3.47,-1.62,1.05,-0.18,3.42,2.35
2022-01-30 18:58:06.8210,0.658,-0.639,-0.638,-3.65,-1.88,1.35,-0.18,3.42,2.35
2022-01-30 18:58:06.8310,0.676,-0.613,-0.676,-3.95,-2.08,1.8,-0.15,3.38,2.7
2022-01-30 18:58:06.8420,0.682,-0.586,-0.694,-4.15,-2.43,2.19,-0.15,2.97,3.13
2022-01-30 18:58:06.8520,0.688,-0.574,-0.706,-4.3,-2.72,2.37,-0.21,2.78,3.2
2022-01-30 18:58:06.8620,0.701,-0.579,-0.708,-4.52,-2.83,2.54,-0.36,2.68,3.16
2022-01-30 18:58:06.8710,0.72,-0.582,-0.71,-4.82,-2.82,2.55,-0.63,2.66,3.02
2022-01-30 18:58:06.8820,0.755,-0.573,-0.743,-5.21,-2.89,2.71,-0.63,2.66,3.02
2022-01-30 18:58:06.8920,0.794,-0.563,-0.782,-5.73,-3.02,3.06,-1.31,3.01,2.83
2022-01-30 18:58:06.9020,0.833,-0.544,-0.828,-6.24,-3.13,3.43,-1.57,3.43,2.9
2022-01-30 18:58:06.9120,0.867,-0.518,-0.889,-6.73,-3.36,3.84,-1.57,3.43,2.9
2022-01-30 18:58:06.9220,0.873,-0.491,-0.963,-7.07,-3.58,4.46,-1.79,4.39,3.46
2022-01-30 18:58:06.9320,0.85,-0.464,-1.018,-7.11,-3.83,5.03,-1.71,4.82,3.84
2022-01-30 18:58:06.9420,0.815,-0.466,-1.058,-6.9,-3.97,5.42,-1.54,5.14,4.15
2022-01-30 18:58:06.9520,0.785,-0.483,-1.084,-6.48,-3.66,5.75,-1.34,5.36,4.32
2022-01-30 18:58:06.9620,0.751,-0.494,-1.083,-6.48,-3.66,5.75,-1.16,5.45,4.34
2022-01-30 18:58:06.9720,0.71,-0.506,-1.094,-6.21,-3.54,5.7,-1.01,5.36,4.27
2022-01-30 18:58:06.9820,0.668,-0.521,-1.097,-5.89,-3.39,5.77,-0.9,5.16,4.12
2022-01-30 18:58:06.9920,0.628,-0.532,-1.11,-5.59,-3.23,5.75,-0.9,5.16,4.12
2022-01-30 18:58:07.0020,0.586,-0.541,-1.134,-5.27,-3.14,5.91,-0.85,4.7,3.73
2022-01-30 18:58:07.0120,0.53,-0.555,-1.147,-4.9,-3.01,6.1,-0.89,4.65,3.56
2022-01-30 18:58:07.0220,0.469,-0.538,-1.127,-4.38,-2.89,6.06,-0.89,4.65,3.56
2022-01-30 18:58:07.0320,0.419,-0.467,-1.088,-3.87,-3.25,5.74,-1.03,5.17,3.32
2022-01-30 18:58:07.0420,0.395,-0.397,-1.039,-3.48,-3.98,5.24,-1.16,5.63,3.3
2022-01-30 18:58:07.0520,0.398,-0.347,-1.016,-3.37,-4.55,4.75,-1.3,5.97,3.29
2022-01-30 18:58:07.0620,0.391,-0.303,-1.037,-3.36,-4.97,4.62,-1.43,6.02,3.27
2022-01-30 18:58:07.0720,0.38,-0.291,-1.083,-3.2,-5.25,4.87,-1.59,5.71,3.24
2022-01-30 18:58:07.0830,0.371,-0.292,-1.15,-3.04,-5.23,5.32,-1.59,5.71,3.24
2022-01-30 18:58:07.0920,0.369,-0.3,-1.202,-2.91,-5.12,5.88,-1.77,5.11,3.21
2022-01-30 18:58:07.1030,0.372,-0.301,-1.214,-2.9,-4.97,6.15,-1.9,4.4,3.15
2022-01-30 18:58:07.1120,0.356,-0.262,-1.202,-2.88,-4.97,6.02,-1.83,3.5,3.15
2022-01-30 18:58:07.1220,0.323,-0.163,-1.189,-2.67,-5.49,5.78,-1.69,3.49,3.27
2022-01-30 18:58:07.1330,0.273,-0.052,-1.161,-2.33,-6.49,5.47,-1.69,3.49,3.27
2022-01-30 18:58:07.1430,0.224,0.034,-1.119,-1.82,-7.42,5.05,-1.35,4.26,3.69
2022-01-30 18:58:07.1530,0.206,0.08,-1.109,-1.47,-8.08,4.58,-1.29,4.61,3.83
2022-01-30 18:58:07.1620,0.201,0.059,-1.123,-1.39,-8.24,4.59,-1.35,4.78,3.88
2022-01-30 18:58:07.1730,0.18,0.011,-1.144,-1.29,-7.78,4.61,-1.49,4.65,3.84
2022-01-30 18:58:07.1830,0.133,-0.013,-1.234,-0.98,-7.32,4.99,-1.59,4.22,3.71
2022-01-30 18:58:07.1930,0.069,-0.038,-1.323,-0.39,-7.06,5.89,-1.59,4.22,3.71
2022-01-30 18:58:07.2030,0.018,-0.068,-1.347,0.21,-6.66,6.48,-1.2,3.11,3.42
2022-01-30 18:58:07.2130,-0.016,-0.065,-1.322,0.63,-6.41,6.39,-0.79,2.68,3.36
2022-01-30 18:58:07.2230,-0.042,-0.062,-1.262,1.04,-6.35,5.22,-0.41,2.41,3.4
2022-01-30 18:58:07.2330,-0.042,-0.081,-1.182,1.04,-6.35,5.22,-0.41,2.41,3.4
2022-01-30 18:58:07.2430,-0.003,-0.122,-1.129,0.8,-6.08,4.51,-0.04,2.11,3.52
2022-01-30 18:58:07.2540,0.051,-0.188,-1.095,0.25,-5.59,4.06,-0.06,1.97,3.4
2022-01-30 18:58:07.2630,0.11,-0.253,-1.092,-0.41,-4.93,3.83,-0.21,1.8,3.09
2022-01-30 18:58:07.2730,0.16,-0.324,-1.081,-1.09,-4.28,3.85,-0.44,1.67,2.67
2022-01-30 18:58:07.2830,0.196,-0.391,-1.057,-1.59,-3.56,3.63,-0.44,1.67,2.67
2022-01-30 18:58:07.2930,0.243,-0.421,-1.047,-2.05,-2.97,3.41,-0.81,1.49,1.91
2022-01-30 18:58:07.3030,0.288,-0.405,-1.027,-2.56,-2.81,3.27,-0.86,1.46,1.69
2022-01-30 18:58:07.3130,0.344,-0.381,-0.996,-3.04,-2.99,2.93,-0.82,1.47,1.6
2022-01-30 18:58:07.3230,0.417,-0.357,-0.988,-3.67,-3.14,2.64,-0.82,1.47,1.6
2022-01-30 18:58:07.3330,0.491,-0.328,-0.993,-4.42,-3.35,2.56,-0.64,1.59,1.65
2022-01-30 18:58:07.3440,0.563,-0.305,-1.036,-5.12,-3.57,2.66,-0.52,1.62,1.77
2022-01-30 18:58:07.3530,0.625,-0.29,-1.102,-5.82,-3.71,3.18,-0.34,1.6,1.94
2022-01-30 18:58:07.3630,0.667,-0.258,-1.183,-6.69,-4.23,4.68,-0.13,1.47,2.09
2022-01-30 18:58:07.3730,0.683,-0.21,-1.271,-6.69,-4.23,4.68,0.04,1.33,2.2
2022-01-30 18:58:07.3830,0.695,-0.171,-1.31,-6.83,-4.66,5.37,0.16,1.3,2.3
2022-01-30 18:58:07.3930,0.71,-0.132,-1.301,-7.01,-5.04,5.57,0.22,1.51,2.44
2022-01-30 18:58:07.4030,0.724,-0.079,-1.268,-7.21,-5.45,5.37,0.22,1.94,2.68
2022-01-30 18:58:07.4130,0.748,-0.018,-1.237,-7.43,-6.04,5.03,0.19,2.53,3.03
2022-01-30 18:58:07.4230,0.762,0.038,-1.244,-7.68,-6.64,4.84,0.24,3.12,3.45
2022-01-30 18:58:07.4340,0.756,0.086,-1.3,-7.66,-7.6,5.66,0.24,3.12,3.45
2022-01-30 18:58:07.4440,0.748,0.123,-1.327,-7.66,-7.6,5.66,0.47,3.57,3.81
2022-01-30 18:58:07.4540,0.751,0.129,-1.356,-7.64,-7.92,5.86,1.03,3.74,4.06
2022-01-30 18:58:07.4640,0.751,0.098,-1.368,-7.65,-7.86,6.2,1.1,3.52,4.02
2022-01-30 18:58:07.4740,0.751,0.057,-1.367,-7.65,-7.56,6.29,1.0,3.28,3.94
2022-01-30 18:58:07.4840,0.763,0.018,-1.35,-7.71,-7.19,6.28,0.74,3.09,3.83
2022-01-30 18:58:07.4940,0.772,0.003,-1.373,-7.9,-6.97,6.24,0.36,2.99,3.69
2022-01-30 18:58:07.5040,0.754,0.0,-1.427,-7.94,-6.88,6.69,-0.05,3.18,3.56
2022-01-30 18:58:07.5140,0.713,0.025,-1.458,-7.71,-6.97,7.15,-0.37,3.74,3.47
2022-01-30 18:58:07.5240,0.663,0.059,-1.509,-6.76,-7.57,8.02,-0.58,4.52,3.43
2022-01-30 18:58:07.5340,0.617,0.099,-1.571,-6.27,-7.86,8.46,-0.65,5.34,3.46
2022-01-30 18:58:07.5440,0.585,0.125,-1.614,-6.27,-7.86,8.46,-0.59,5.92,3.51
2022-01-30 18:58:07.5540,0.55,0.134,-1.689,-5.8,-8.0,8.94,-0.59,5.92,3.51
2022-01-30 18:58:07.5640,0.525,0.126,-1.73,-5.27,-7.96,9.58,-0.23,5.95,3.68
2022-01-30 18:58:07.5740,0.523,0.112,-1.729,-4.84,-7.58,9.63,-0.09,5.58,3.75
2022-01-30 18:58:07.5840,0.561,0.051,-1.698,-4.84,-7.58,9.63,-0.09,5.58,3.75
2022-01-30 18:58:07.5950,0.626,-0.044,-1.698,-5.21,-6.81,9.42,-0.19,4.61,3.84
2022-01-30 18:58:07.6040,0.652,-0.107,-1.693,-5.66,-5.93,9.49,-0.3,4.36,3.84
2022-01-30 18:58:07.6140,0.626,-0.111,-1.687,-5.63,-5.56,9.39,-0.41,4.36,3.8
2022-01-30 18:58:07.6240,0.576,-0.103,-1.699,-5.2,-5.62,9.44,-0.41,4.36,3.8
2022-01-30 18:58:07.6340,0.534,-0.097,-1.722,-4.64,-5.69,9.57,-0.56,4.99,3.63
2022-01-30 18:58:07.6450,0.525,-0.117,-1.799,-4.2,-5.34,10.85,-0.52,5.25,3.48
2022-01-30 18:58:07.6540,0.565,-0.167,-1.874,-4.2,-5.34,10.85,-0.52,5.25,3.48
2022-01-30 18:58:07.6650,0.643,-0.214,-1.915,-4.64,-4.85,11.45,-0.47,5.47,3.12
2022-01-30 18:58:07.6740,0.717,-0.239,-1.93,-5.25,-4.43,11.81,-0.67,5.61,3.01
2022-01-30 18:58:07.6860,0.77,-0.183,-1.938,-5.74,-4.43,11.91,-0.67,5.61,3.01
2022-01-30 18:58:07.6970,0.809,-0.07,-1.998,-6.0,-5.28,12.18,-1.01,5.9,3.03
2022-01-30 18:58:07.7070,0.843,0.048,-2.123,-6.13,-6.41,13.03,-1.34,6.28,3.28
2022-01-30 18:58:07.7170,0.886,0.152,-2.303,-6.52,-8.42,16.38,-1.49,6.49,3.72
2022-01-30 18:58:07.7280,0.922,0.226,-2.456,-6.52,-8.42,16.38,-1.3,5.982214450836182,4.76
2022-01-30 18:58:07.7370,0.932,0.309,-2.496,-6.63,-9.13,17.59,-0.77,5.98,4.76
2022-01-30 18:58:07.7460,0.935,0.406,-2.441,-6.6,-10.12,17.69,-0.12,5.57,5.18
2022-01-30 18:58:07.7570,0.939,0.465,-2.314,-6.62,-11.09,17.0,0.61,5.2,5.78
2022-01-30 18:58:07.7670,0.949,0.51,-2.174,-6.72,-11.73,15.77,0.59,5.22,5.97
2022-01-30 18:58:07.7780,0.96,0.568,-2.088,-6.92,-12.4,14.73,0.59,5.22,5.97
2022-01-30 18:58:07.7870,0.956,0.613,-2.037,-7.1,-13.15,14.21,0.39,5.37,6.12
2022-01-30 18:58:07.7970,0.946,0.629,-2.05,-7.16,-13.62,14.02,0.14,5.64,6.28
2022-01-30 18:58:07.8070,0.928,0.653,-2.133,-7.2,-13.92,14.61,0.02,5.8,6.37
2022-01-30 18:58:07.8170,0.887,0.66,-2.202,-6.8,-14.34,16.21,0.08,5.81,6.36
2022-01-30 18:58:07.8280,0.839,0.638,-2.228,-6.8,-14.34,16.21,0.27,5.72,6.33
2022-01-30 18:58:07.8380,0.81,0.617,-2.219,-6.6,-14.21,16.43,0.5,5.59,6.32
2022-01-30 18:58:07.8470,0.787,0.591,-2.163,-6.57,-14.13,16.31,0.7,5.44,6.31
2022-01-30 18:58:07.8570,0.767,0.537,-2.108,-6.58,-13.89,15.8,0.82,5.35,6.31
2022-01-30 18:58:07.8680,0.752,0.486,-2.073,-6.75,-13.07,15.26,0.96,5.33,6.15
2022-01-30 18:58:07.8780,0.725,0.45,-2.04,-6.75,-13.07,15.26,0.96,5.33,6.15
2022-01-30 18:58:07.8870,0.692,0.411,-2.002,-6.7,-12.83,15.03,1.01,5.44,5.95
2022-01-30 18:58:07.8980,0.67,0.352,-1.966,-6.65,-12.42,14.74,0.99,5.65,5.67
2022-01-30 18:58:07.9080,0.659,0.296,-1.944,-6.7,-11.86,14.49,0.88,5.89,5.32
2022-01-30 18:58:07.9180,0.65,0.255,-1.952,-6.78,-11.39,14.45,0.68,6.06,4.88
2022-01-30 18:58:07.9280,0.668,0.204,-1.975,-6.9,-11.01,14.62,0.46,6.08,4.41
2022-01-30 18:58:07.9380,0.709,0.146,-2.033,-7.28,-10.43,14.94,0.25,5.88,3.99
2022-01-30 18:58:07.9480,0.767,0.111,-2.102,-7.84,-9.91,15.61,0.04,5.2,3.51
2022-01-30 18:58:07.9570,0.817,0.105,-2.146,-8.46,-9.66,16.16,0.04,5.2,3.51
2022-01-30 18:58:07.9680,0.851,0.125,-2.201,-8.95,-9.66,16.55,0.08,5.04,3.47
2022-01-30 18:58:07.9780,0.872,0.174,-2.237,-9.3,-9.96,17.07,0.21,5.08,3.52
2022-01-30 18:58:07.9880,0.889,0.223,-2.248,-9.55,-10.44,17.24,0.44,5.33,3.58
2022-01-30 18:58:07.9980,0.896,0.268,-2.272,-9.73,-10.9,17.39,0.72,5.58,3.65
2022-01-30 18:58:08.0080,0.914,0.303,-2.275,-9.86,-11.3,17.58,1.04,5.63,3.73
2022-01-30 18:58:08.0180,0.942,0.342,-2.284,-10.13,-11.65,17.63,1.29,5.38,3.8
2022-01-30 18:58:08.0290,0.973,0.378,-2.277,-10.52,-12.06,17.75,1.41,4.56,3.81
2022-01-30 18:58:08.0380,0.976,0.43,-2.258,-10.87,-12.43,17.67,1.41,4.56,3.81
2022-01-30 18:58:08.0480,0.94,0.53,-2.251,-10.85,-13.14,17.56,1.35,4.44,3.71
2022-01-30 18:58:08.0580,0.867,0.638,-2.27,-10.5,-14.21,17.63,1.18,5.16,3.52
2022-01-30 18:58:08.0680,0.769,0.716,-2.292,-8.87,-15.72,18.15,1.18,5.16,3.52
2022-01-30 18:58:08.0790,0.684,0.712,-2.336,-8.87,-15.72,18.15,1.14,5.78,3.51
2022-01-30 18:58:08.0880,0.626,0.631,-2.397,-8.2,-15.32,18.72,1.25,6.18,3.54
2022-01-30 18:58:08.0980,0.554,0.535,-2.441,-7.64,-14.41,19.26,1.25,6.18,3.54
2022-01-30 18:58:08.1080,0.47,0.442,-2.423,-6.89,-13.47,19.53,1.22,5.96,3.52
2022-01-30 18:58:08.1180,0.383,0.367,-2.367,-6.11,-12.59,19.11,1.09,5.74,3.49
2022-01-30 18:58:08.1290,0.285,0.309,-2.317,-5.26,-11.92,18.59,0.87,5.64,3.4
2022-01-30 18:58:08.1390,0.184,0.264,-2.248,-4.31,-11.37,17.99,0.6,5.76,3.27
2022-01-30 18:58:08.1490,0.092,0.229,-2.187,-3.35,-10.93,17.24,0.39,6.05,3.07
2022-01-30 18:58:08.1590,0.02,0.2,-2.13,-2.49,-10.57,16.59,0.23,6.38,2.84
2022-01-30 18:58:08.1690,-0.039,0.162,-2.08,-1.78,-10.24,15.94,0.08,6.69,2.6
2022-01-30 18:58:08.1790,-0.089,0.107,-2.042,-1.12,-9.75,15.4,-0.04,6.86,2.4
2022-01-30 18:58:08.1890,-0.114,0.044,-1.981,-0.27,-8.46,14.07,-0.1,6.89,2.22
2022-01-30 18:58:08.1980,-0.11,-0.022,-1.909,-0.27,-8.46,14.07,-0.06,6.52,1.98
2022-01-30 18:58:08.2070,-0.092,-0.088,-1.84,-0.21,-7.79,13.28,-0.06,6.11,1.9
2022-01-30 18:58:08.2160,-0.07,-0.157,-1.763,-0.23,-7.1,12.52,-0.08,5.66,1.84
2022-01-30 18:58:08.2270,-0.048,-0.221,-1.673,-0.29,-6.4,11.62,-0.15,5.23,1.8
2022-01-30 18:58:08.2370,-0.036,-0.29,-1.593,-0.33,-5.77,10.71,-0.23,4.87,1.77
Time,-0.034,-0.355,-1.534,-0.15,-4.5,9.42,-0.32,4.56,1.71
2022-01-30 18:58:08.2570,-0.039,-0.381,-1.502,-0.15,-4.5,9.42,-0.39,4.33,1.6
2022-01-30 18:58:08.2660,-0.057,-0.382,-1.482,0.06,-4.35,9.11,-0.46,4.17,1.45
2022-01-30 18:58:08.2770,-0.08,-0.377,-1.473,0.4,-4.34,8.92,-0.47,4.11,1.3
2022-01-30 18:58:08.2870,-0.081,-0.377,-1.465,0.68,-4.35,8.79,-0.42,4.1,1.14
2022-01-30 18:58:08.2970,-0.06,-0.395,-1.444,0.72,-4.28,8.65,-0.33,4.12,1.0
2022-01-30 18:58:08.3070,-0.026,-0.428,-1.414,0.61,-4.0,8.34,-0.23,4.06,0.88
2022-01-30 18:58:08.3170,0.013,-0.45,-1.388,0.4,-3.68,8.07,-0.16,3.96,0.79
2022-01-30 18:58:08.3270,0.048,-0.477,-1.338,0.19,-3.48,7.75,-0.14,3.87,0.76
2022-01-30 18:58:08.3370,0.071,-0.508,-1.287,0.03,-3.14,7.19,-0.15,3.8,0.76
2022-01-30 18:58:08.3470,0.069,-0.5,-1.257,0.05,-2.96,6.81,-0.17,3.74,0.76
2022-01-30 18:58:08.3570,0.044,-0.477,-1.227,0.33,-3.13,6.53,-0.18,3.64,0.75
2022-01-30 18:58:08.3670,0.018,-0.468,-1.225,1.13,-3.32,6.43,-0.15,3.41,0.72
2022-01-30 18:58:08.3770,-0.003,-0.481,-1.241,1.13,-3.32,6.43,-0.09,3.08,0.64
2022-01-30 18:58:08.3870,-0.018,-0.502,-1.261,1.44,-3.15,6.65,-0.0,2.72,0.52
2022-01-30 18:58:08.3970,-0.042,-0.522,-1.269,1.72,-2.94,6.86,0.08,2.46,0.4
2022-01-30 18:58:08.4070,-0.081,-0.526,-1.247,2.12,-2.81,6.87,0.08,2.46,0.4
2022-01-30 18:58:08.4170,-0.123,-0.519,-1.21,2.64,-2.82,6.63,0.17,2.41,0.18
2022-01-30 18:58:08.4270,-0.167,-0.503,-1.164,3.16,-2.95,6.28,0.17,2.41,0.18
2022-01-30 18:58:08.4370,-0.216,-0.492,-1.108,3.73,-3.11,5.85,0.15,2.99,0.06
2022-01-30 18:58:08.4470,-0.264,-0.497,-1.063,4.34,-3.18,5.37,-0.01,3.34,0.08
2022-01-30 18:58:08.4570,-0.308,-0.524,-1.034,4.96,-3.05,5.08,-0.05,3.55,0.13
2022-01-30 18:58:08.4670,-0.327,-0.567,-1.005,5.51,-2.73,4.87,0.01,3.55,0.14
2022-01-30 18:58:08.4780,-0.316,-0.623,-0.969,5.72,-2.25,4.66,0.1,3.36,0.13
2022-01-30 18:58:08.4870,-0.3,-0.7,-0.912,5.75,-1.65,4.34,0.13,3.05,0.12
2022-01-30 18:58:08.4970,-0.278,-0.784,-0.838,5.73,-0.82,3.79,0.06,2.73,0.12
2022-01-30 18:58:08.5070,-0.261,-0.827,-0.769,5.65,-0.1,3.17,-0.13,2.45,0.04
2022-01-30 18:58:08.5170,-0.269,-0.822,-0.709,5.67,0.09,2.61,-0.44,2.27,-0.1
2022-01-30 18:58:08.5270,-0.302,-0.834,-0.67,5.97,0.04,2.14,-0.79,2.18,-0.23
2022-01-30 18:58:08.5380,-0.332,-0.846,-0.666,6.43,0.25,1.89,-0.79,2.18,-0.23
2022-01-30 18:58:08.5470,-0.348,-0.882,-0.714,6.79,0.39,2.05,-1.64,2.01,-0.35
2022-01-30 18:58:08.5580,-0.356,-0.99,-0.823,7.02,1.14,2.69,-2.02,1.85,-0.24
2022-01-30 18:58:08.5680,-0.387,-1.049,-0.995,7.27,2.25,3.96,-2.02,1.85,-0.24
2022-01-30 18:58:08.5780,-0.44,-1.049,-1.198,7.77,2.63,5.7,-2.13,1.2,0.14
2022-01-30 18:58:08.5880,-0.509,-1.03,-1.342,8.43,2.69,7.53,-1.82,0.96,0.34
2022-01-30 18:58:08.5980,-0.598,-0.991,-1.386,9.22,2.48,8.38,-1.42,0.91,0.54
2022-01-30 18:58:08.6080,-0.7,-0.973,-1.424,10.18,2.23,8.63,-1.42,0.91,0.54
2022-01-30 18:58:08.6180,-0.776,-0.974,-1.435,11.16,2.18,8.9,-0.67,0.91,1.0
2022-01-30 18:58:08.6280,-0.788,-1.015,-1.465,11.65,2.3,8.89,-0.41,0.55,1.22
2022-01-30 18:58:08.6380,-0.792,-1.111,-1.556,11.62,2.95,9.48,-0.18,-0.15,1.44
2022-01-30 18:58:08.6480,-0.817,-1.166,-1.611,11.69,3.82,10.3,-0.18,-0.15,1.44
2022-01-30 18:58:08.6580,-0.834,-1.139,-1.623,11.8,4.02,10.66,0.3,-1.74,1.66
2022-01-30 18:58:08.6690,-0.855,-1.044,-1.565,11.79,3.4,10.51,0.48,-2.11,1.54
2022-01-30 18:58:08.6780,-0.875,-0.913,-1.457,11.8,2.25,9.67,0.48,-2.11,1.54
2022-01-30 18:58:08.6880,-0.871,-0.792,-1.338,11.68,0.8,8.47,0.4,-1.76,0.84
2022-01-30 18:58:08.6980,-0.863,-0.826,-1.308,11.41,-0.01,7.49,0.4,-1.76,0.84
2022-01-30 18:58:08.7080,-0.832,-0.93,-1.387,11.13,0.84,7.63,-0.2,-1.85,0.58
2022-01-30 18:58:08.7180,-0.777,-0.888,-1.511,9.86,0.67,9.78,-0.23,-2.42,0.48
2022-01-30 18:58:08.7290,-0.723,-0.823,-1.62,9.86,0.67,9.78,-0.01,-3.11,0.39
2022-01-30 18:58:08.7380,-0.658,-0.76,-1.635,9.14,0.14,10.49,0.33,-3.66,0.23
2022-01-30 18:58:08.7480,-0.563,-0.667,-1.59,8.2,-0.65,10.25,0.61,-4.05,-0.02
2022-01-30 18:58:08.7580,-0.439,-0.609,-1.519,6.94,-1.51,9.68,0.68,-4.32,-0.35
2022-01-30 18:58:08.7680,-0.276,-0.594,-1.458,5.36,-1.94,8.89,0.68,-4.32,-0.35
2022-01-30 18:58:08.7790,-0.1,-0.603,-1.488,3.43,-2.01,8.55,0.17,-5.2,-0.83
2022-01-30 18:58:08.7880,0.044,-0.629,-1.614,1.57,-1.86,9.23,-0.05,-6.05,-0.77
2022-01-30 18:58:08.7990,0.166,-0.621,-1.754,0.04,-1.64,10.53,-0.07,-7.05,-0.63
2022-01-30 18:58:08.8080,0.27,-0.555,-1.919,-1.45,-1.97,11.94,0.01,-7.9,-0.47
2022-01-30 18:58:08.8190,0.316,-0.491,-2.02,-2.64,-2.66,13.42,0.06,-8.26,-0.36
2022-01-30 18:58:08.8290,0.327,-0.442,-2.078,-3.34,-3.23,14.11,0.06,-8.26,-0.36
2022-01-30 18:58:08.8410,0.35,-0.407,-2.168,-3.93,-3.64,14.83,-0.03,-8.2,-0.31
2022-01-30 18:58:08.8510,0.362,-0.358,-2.277,-5.05,-4.53,17.18,-0.27,-7.71,-0.4
2022-01-30 18:58:08.8610,0.344,-0.303,-2.434,-5.05,-4.53,17.18,-0.27,-7.71,-0.4
2022-01-30 18:58:08.8710,0.327,-0.236,-2.504,-5.21,-5.08,18.72,-0.16,-7.73,-0.45
2022-01-30 18:58:08.8810,0.361,-0.188,-2.489,-5.59,-5.75,19.09,0.08,-7.78,-0.48
2022-01-30 18:58:08.8920,0.438,-0.17,-2.444,-6.51,-6.08,19.07,0.16,-7.81,-0.59
2022-01-30 18:58:08.9020,0.506,-0.135,-2.351,-8.5,-6.78,17.95,-0.54,-7.45,-1.32
2022-01-30 18:58:08.9110,0.547,-0.073,-2.268,-8.5,-6.78,17.95,-0.54,-7.45,-1.32
2022-01-30 18:58:08.9220,0.578,-0.013,-2.228,-9.08,-7.42,17.48,-1.11,-7.14,-1.93
2022-01-30 18:58:08.9320,0.619,0.037,-2.273,-9.55,-8.02,17.51,-1.62,-6.94,-2.58
2022-01-30 18:58:08.9410,0.693,0.063,-2.391,-10.16,-8.44,18.44,-1.98,-7.08,-3.13
2022-01-30 18:58:08.9510,0.784,0.084,-2.482,-11.94,-8.93,20.53,-2.1,-7.59,-3.51
2022-01-30 18:58:08.9610,0.867,0.097,-2.525,-11.94,-8.93,20.53,-2.0,-8.25,-3.68
2022-01-30 18:58:08.9720,0.909,0.127,-2.521,-12.922958210706712,-9.6,20.95,-1.71,-9.0,-3.44
2022-01-30 18:58:08.9820,0.905,0.17,-2.495,-12.93,-9.6,20.95,-1.7,-8.8,-3.19
2022-01-30 18:58:08.9900,0.887,0.206,-2.49,-12.85,-10.09,21.05,-1.7,-8.8,-3.19
2022-01-30 18:58:09.0020,0.871,0.21,-2.485,-12.69,-10.43,21.17,-1.77,-8.23,-3.0
2022-01-30 18:58:09.0120,0.876,0.154,-2.511,-12.59,-10.33,21.41,-1.86,-7.58,-2.91
2022-01-30 18:58:09.0220,0.914,0.064,-2.551,-12.75,-9.66,21.9,-1.92,-7.15,-2.92
2022-01-30 18:58:09.0320,0.943,-0.01,-2.588,-13.1,-8.86,22.4,-1.97,-7.3,-3.04
2022-01-30 18:58:09.0420,0.947,-0.074,-2.604,-13.22,-8.26,22.83,-1.97,-7.3,-3.04
2022-01-30 18:58:09.0520,0.934,-0.115,-2.598,-13.11,-7.73,23.0,-1.99,-8.08,-2.88
2022-01-30 18:58:09.0610,0.912,-0.117,-2.585,-12.89,-7.57,23.04,-1.99,-8.08,-2.88
2022-01-30 18:58:09.0720,0.882,-0.119,-2.55,-12.56,-7.65,22.96,-2.0,-8.39,-2.73
2022-01-30 18:58:09.0820,0.849,-0.116,-2.534,-12.22,-7.66,22.77,-2.03,-8.56,-2.58
2022-01-30 18:58:09.0920,0.81,-0.088,-2.529,-11.81,-7.85,22.82,-2.28,-8.33,-2.39
2022-01-30 18:58:09.1020,0.793,-0.096,-2.547,-11.42,-8.12,22.91,-2.28,-8.33,-2.39
2022-01-30 18:58:09.1120,0.802,-0.135,-2.594,-11.3,-7.89,23.35,-2.43,-8.02,-2.35
2022-01-30 18:58:09.1220,0.814,-0.166,-2.604,-11.4,-7.28,23.77,-2.58,-7.48,-2.57
2022-01-30 18:58:09.1320,0.834,-0.217,-2.588,-11.4,-7.28,23.77,-2.58,-7.48,-2.57
2022-01-30 18:58:09.1420,0.889,-0.285,-2.584,-11.6,-6.73,23.63,-2.68,-7.37,-2.73
2022-01-30 18:58:09.1530,0.96,-0.352,-2.593,-12.11,-6.09,23.65,-2.93,-7.58,-2.92
2022-01-30 18:58:09.1620,1.022,-0.413,-2.6,-12.67,-5.5,23.7,-2.93,-7.58,-2.92
2022-01-30 18:58:09.1720,1.057,-0.46,-2.62,-13.05,-4.97,23.73,-2.96,-7.74,-2.89
2022-01-30 18:58:09.1820,1.072,-0.497,-2.655,-13.19,-4.59,23.97,-2.92,-7.91,-2.78
2022-01-30 18:58:09.1930,1.067,-0.526,-2.666,-13.16,-4.26,24.19,-2.81,-8.01,-2.4
2022-01-30 18:58:09.2020,1.044,-0.535,-2.654,-12.96,-4.06,24.16,-2.66,-7.92,-2.4
2022-01-30 18:58:09.2120,1.012,-0.549,-2.606,-12.62,-4.0,23.88,-2.32,-7.1,-1.95
2022-01-30 18:58:09.2220,0.982,-0.577,-2.505,-11.92,-3.43,21.92,-2.32,-7.1,-1.95
2022-01-30 18:58:09.2320,0.942,-0.639,-2.338,-11.92,-3.43,21.92,-2.18,-6.56,-1.77
2022-01-30 18:58:09.2410,0.897,-0.713,-2.148,-11.47,-2.72,20.04,-2.1,-6.02,-1.63
2022-01-30 18:58:09.2520,0.857,-0.791,-2.017,-11.02,-2.0,18.28,-2.11,-5.69,-1.53
2022-01-30 18:58:09.2620,0.823,-0.867,-1.936,-10.65,-1.2,17.16,-2.2,-5.71,-1.51
2022-01-30 18:58:09.2720,0.793,-0.931,-1.886,-10.05,0.12,15.92,-2.62,-6.52,-1.68
2022-01-30 18:58:09.2800,0.771,-0.978,-1.854,-10.05,0.12,15.92,-2.62,-6.52,-1.68
2022-01-30 18:58:09.2900,0.764,-0.999,-1.863,-9.88,0.51,15.65,-2.91,-7.04,-1.85
2022-01-30 18:58:09.3000,0.753,-0.982,-1.874,-9.68,0.32,15.63,-3.34,-7.55,-2.18
2022-01-30 18:58:09.3100,0.719,-0.917,-1.875,-9.68,0.32,15.63,-3.41,-7.27,-2.28
2022-01-30 18:58:09.3200,0.663,-0.835,-1.894,-9.27,-0.38,15.56,-3.36,-6.65,-2.32
2022-01-30 18:58:09.3310,0.613,-0.769,-1.909,-8.7,-1.12,15.64,-3.22,-5.86,-2.33
2022-01-30 18:58:09.3410,0.605,-0.761,-1.946,-8.34,-1.55,15.66,-3.22,-5.86,-2.33
2022-01-30 18:58:09.3520,0.624,-0.796,-1.995,-8.38,-1.35,15.99,-3.03,-5.24,-2.32
2022-01-30 18:58:09.3630,0.641,-0.83,-1.999,-8.54,-0.94,16.19,-2.83,-4.89,-2.31
2022-01-30 18:58:09.3730,0.656,-0.856,-1.996,-8.66,-0.59,16.0,-2.63,-4.82,-2.31
2022-01-30 18:58:09.3830,0.678,-0.87,-1.986,-8.8,-0.32,15.87,-2.44,-5.04,-2.3
2022-01-30 18:58:09.3930,0.696,-0.86,-1.948,-9.03,-0.23,15.57,-2.32,-5.41,-2.25
2022-01-30 18:58:09.4030,0.68,-0.826,-1.887,-9.11,-0.39,15.01,-2.22,-5.8,-2.07
2022-01-30 18:58:09.4110,0.641,-0.783,-1.842,-8.87,-0.73,13.999415409564973,-2.2,-5.76,-2.02
2022-01-30 18:58:09.4210,0.603,-0.735,-1.833,-8.22,-1.55,13.95,-2.15,-5.65,-2.02
2022-01-30 18:58:09.4310,0.565,-0.7,-1.845,-8.22,-1.55,13.95,-2.09,-5.52,-2.06
2022-01-30 18:58:09.4410,0.543,-0.703,-1.883,-7.94,-1.71,14.09,-2.09,-5.52,-2.06
2022-01-30 18:58:09.4510,0.536,-0.71,-1.938,-7.85,-1.59,14.54,-2.03,-5.49,-2.13
2022-01-30 18:58:09.4610,0.535,-0.713,-1.966,-7.88,-1.52,15.15,-1.87,-5.66,-2.38
2022-01-30 18:58:09.4730,0.531,-0.694,-1.984,-7.88,-1.52,15.15,-1.8,-5.78,-2.53
2022-01-30 18:58:09.4830,0.529,-0.652,-1.993,-7.88,-1.78,15.31,-1.8,-5.78,-2.53
2022-01-30 18:58:09.4930,0.536,-0.596,-2.011,-7.91,-2.25,15.39,-1.76,-5.85,-2.7
2022-01-30 18:58:09.5040,0.547,-0.542,-2.024,-8.01,-2.82,15.6,-1.79,-5.49,-3.02
2022-01-30 18:58:09.5130,0.564,-0.487,-2.058,-8.13,-3.32,15.73,-1.79,-5.49,-3.02
2022-01-30 18:58:09.5210,0.598,-0.444,-2.126,-8.32,-3.88,16.25,-1.66,-5.15,-3.31
2022-01-30 18:58:09.5320,0.652,-0.44,-2.169,-8.68,-4.16,16.84,-1.66,-5.15,-3.31
2022-01-30 18:58:09.5420,0.723,-0.45,-2.195,-9.23,-4.14,17.19,-1.31,-5.52,-3.47
2022-01-30 18:58:09.5530,0.778,-0.456,-2.183,-9.84,-4.06,17.34,-1.31,-5.52,-3.47
2022-01-30 18:58:09.5640,0.8,-0.446,-2.142,-10.19,-4.09,17.11,-1.21,-5.82,-3.47
2022-01-30 18:58:09.5730,0.818,-0.434,-2.095,-10.3,-4.25,16.32,-1.2,-6.2,-3.46
2022-01-30 18:58:09.5840,0.848,-0.427,-2.061,-10.47,-4.38,16.32,-1.21,-6.23,-3.46
2022-01-30 18:58:09.5940,0.884,-0.419,-2.034,-10.74,-4.47,16.05,-1.21,-6.23,-3.46
2022-01-30 18:58:09.6040,0.931,-0.423,-2.04,-11.07,-4.57,15.9,-1.13,-6.49,-3.26
2022-01-30 18:58:09.6130,1.013,-0.451,-2.061,-11.62,-4.46,16.12,-1.13,-6.49,-3.26
2022-01-30 18:58:09.6240,1.086,-0.479,-2.062,-12.42,-4.17,16.31,-0.85,-7.47,-2.58
2022-01-30 18:58:09.6340,1.138,-0.506,-2.051,-13.53,-3.67,16.28,-0.75,-8.04,-2.17
2022-01-30 18:58:09.6440,1.146,-0.538,-2.034,-13.53,-3.67,16.28,-0.75,-8.04,-2.17
2022-01-30 18:58:09.6540,1.11,-0.537,-2.008,-13.55,-3.48,16.23,-0.75,-8.47,-1.84
2022-01-30 18:58:09.6630,1.046,-0.519,-1.964,-13.21,-3.6,16.03,-0.86,-8.46,-1.49
2022-01-30 18:58:09.6740,0.977,-0.516,-1.932,-12.7,-3.77,15.75,-1.07,-8.46,-1.49
2022-01-30 18:58:09.6840,0.918,-0.528,-1.921,-12.2,-3.72,15.66,-1.32,-8.1,-1.43
2022-01-30 18:58:09.6950,0.868,-0.55,-1.923,-11.78,-3.57,15.73,-1.55,-7.7,-1.45
2022-01-30 18:58:09.7040,0.825,-0.573,-1.933,-11.42,-3.34,15.86,-1.75,-7.33,-1.55
2022-01-30 18:58:09.7140,0.797,-0.608,-1.956,-11.13,-3.08,16.08,-2.18,-6.96,-1.9
2022-01-30 18:58:09.7210,0.777,-0.636,-1.982,-10.96,-2.71,16.38,-2.18,-6.96,-1.9
2022-01-30 18:58:09.7330,0.749,-0.636,-1.977,-10.49,-2.64,16.4,-2.52,-6.8,-2.34
2022-01-30 18:58:09.7450,0.713,-0.607,-1.939,-10.49,-2.64,16.4,-2.52,-6.8,-2.34
2022-01-30 18:58:09.7540,0.67,-0.564,-1.89,-10.07,-3.01,15.98,-2.61,-6.59,-2.55
2022-01-30 18:58:09.7620,0.646,-0.522,-1.837,-9.65,-3.45,15.43,-2.76,-6.06,-2.82
2022-01-30 18:58:09.7720,0.659,-0.51,-1.817,-9.51,-3.8,14.98,-2.8,-5.96,-2.81
2022-01-30 18:58:09.7820,0.691,-0.525,-1.825,-9.63,-3.79,14.83,-2.8,-6.12,-2.73
2022-01-30 18:58:09.7920,0.737,-0.552,-1.862,-9.96,-3.6,14.95,-2.79,-6.51,-2.64
2022-01-30 18:58:09.8020,0.779,-0.597,-1.906,-10.36,-3.26,15.3,-2.83,-7.03,-2.57
2022-01-30 18:58:09.8120,0.812,-0.644,-1.955,-10.72,-2.78,15.69,-2.93,-7.52,-2.54
2022-01-30 18:58:09.8220,0.824,-0.672,-2.003,-10.98,-2.34,16.14,-2.93,-7.52,-2.54
2022-01-30 18:58:09.8350,0.831,-0.663,-2.052,-11.17,-2.34,16.99,-3.13,-7.88,-2.57
2022-01-30 18:58:09.8450,0.831,-0.631,-2.097,-11.17,-2.34,16.99,-3.13,-7.88,-2.57
2022-01-30 18:58:09.8540,0.811,-0.588,-2.158,-11.12,-2.69,17.43,-3.2,-7.61,-2.55
2022-01-30 18:58:09.8650,0.802,-0.568,-2.243,-10.96,-3.04,18.08,-3.18,-7.2,-2.49
2022-01-30 18:58:09.8750,0.811,-0.587,-2.312,-10.99,-3.05,18.86,-3.01,-6.81,-2.49
2022-01-30 18:58:09.8850,0.822,-0.618,-2.329,-11.22,-2.43,19.19,-2.75,-6.53,-2.59
2022-01-30 18:58:09.8950,0.833,-0.649,-2.273,-11.22,-2.43,19.19,-2.51,-6.31,-2.76
2022-01-30 18:58:09.9050,0.862,-0.672,-2.193,-11.35,-2.15,18.46,-2.36,-6.05,-2.97
2022-01-30 18:58:09.9150,0.895,-0.673,-2.1,-11.65,-2.0,17.63,-2.28,-5.8,-3.17
2022-01-30 18:58:09.9250,0.919,-0.657,-2.01,-11.86,-2.09,16.66,-2.19,-5.6,-3.33
2022-01-30 18:58:09.9350,0.945,-0.642,-1.923,-12.01,-2.27,15.81,-1.92,-5.56,-3.35
2022-01-30 18:58:09.9440,0.968,-0.637,-1.815,-12.17,-2.41,14.86,-1.77,-5.63,-3.22
2022-01-30 18:58:09.9520,0.98,-0.639,-1.694,-12.28,-2.45,13.73,-1.66,-5.7,-3.05
2022-01-30 18:58:09.9620,0.977,-0.651,-1.571,-12.26,-2.43,12.52,-1.62,-5.75,-2.86
2022-01-30 18:58:09.9730,0.965,-0.671,-1.448,-12.14,-2.27,11.3,-1.63,-5.82,-2.68
2022-01-30 18:58:09.9830,0.947,-0.671,-1.344,-11.96,-2.14,10.15,-1.74,-5.96,-2.53
2022-01-30 18:58:09.9930,0.92,-0.659,-1.277,-11.42,-2.31,8.72,-1.91,-6.16,-2.38
2022-01-30 18:58:10.0030,0.874,-0.656,-1.239,-11.42,-2.31,8.72,-1.91,-6.16,-2.38
2022-01-30 18:58:10.0130,0.814,-0.653,-1.217,-10.91,-2.32,8.4,-2.22,-6.6,-2.09
2022-01-30 18:58:10.0220,0.747,-0.642,-1.21,-10.35,-2.35,8.23,-2.22,-6.6,-2.09
2022-01-30 18:58:10.0330,0.674,-0.628,-1.174,-9.71,-2.46,8.1,-2.32,-6.52,-2.04
2022-01-30 18:58:10.0420,0.615,-0.624,-1.095,-9.11,-2.53,7.52,-2.32,-6.52,-2.04
2022-01-30 18:58:10.0530,0.564,-0.624,-1.028,-8.63,-2.51,6.74,-2.51,-5.54,-2.26
2022-01-30 18:58:10.0630,0.509,-0.623,-0.957,-8.18,-2.49,6.06,-2.69,-4.84,-2.42
2022-01-30 18:58:10.0730,0.456,-0.62,-0.9,-7.63,-2.47,5.29,-2.86,-4.17,-2.61
2022-01-30 18:58:10.0830,0.419,-0.627,-0.895,-7.14,-2.45,4.8,-3.0,-3.7,-2.8
2022-01-30 18:58:10.0930,0.401,-0.647,-0.92,-6.64,-1.97,4.98,-3.0,-3.7,-2.8
2022-01-30 18:58:10.1030,0.42,-0.688,-0.99,-6.64,-1.97,4.98,-2.93,-3.56,-3.16
2022-01-30 18:58:10.1140,0.448,-0.73,-1.06,-6.71,-1.42,5.5,-2.65,-3.76,-3.29
2022-01-30 18:58:10.1230,0.461,-0.751,-1.067,-6.84,-1.05,5.79,-2.32,-3.94,-3.37
2022-01-30 18:58:10.1330,0.459,-0.754,-1.048,-6.81,-0.86,5.66,-2.03,-3.97,-3.37
2022-01-30 18:58:10.1430,0.436,-0.734,-0.99,-6.64,-0.9,5.26,-1.81,-3.8,-3.32
2022-01-30 18:58:10.1530,0.401,-0.692,-0.925,-6.27,-1.16,4.53,-1.67,-3.44,-3.24
2022-01-30 18:58:10.1630,0.358,-0.632,-0.868,-5.78,-1.64,3.88,-1.58,-2.92,-3.12
2022-01-30 18:58:10.1730,0.33,-0.592,-0.824,-5.27,-2.18,3.25,-1.59,-2.41,-3.0
2022-01-30 18:58:10.1830,0.337,-0.581,-0.816,-5.0,-2.43,2.86,-1.67,-2.03,-2.92
2022-01-30 18:58:10.1930,0.365,-0.593,-0.823,-5.03,-2.41,2.76,-1.77,-1.84,-2.89
2022-01-30 18:58:10.2030,0.418,-0.633,-0.862,-5.25,-2.14,2.79,-1.76,-1.86,-2.91
2022-01-30 18:58:10.2130,0.453,-0.649,-0.895,-5.64,-1.68,3.14,-1.63,-1.92,-2.97
2022-01-30 18:58:10.2240,0.448,-0.628,-0.888,-5.71,-1.68,3.18,-1.43,-1.91,-3.01
2022-01-30 18:58:10.2330,0.419,-0.61,-0.876,-5.41,-1.83,3.0,-1.24,-1.79,-2.99
2022-01-30 18:58:10.2430,0.375,-0.584,-0.812,-4.93,-1.99,2.65,-1.24,-1.79,-2.99
2022-01-30 18:58:10.2530,0.339,-0.554,-0.757,-4.36,-2.23,1.87,-1.04,-1.47,-2.75
2022-01-30 18:58:10.2630,0.323,-0.546,-0.734,-3.95,-2.44,1.41,-1.0,-1.5,-2.53
2022-01-30 18:58:10.2730,0.328,-0.567,-0.719,-3.77,-2.35,1.17,-0.97,-1.66,-2.27
2022-01-30 18:58:10.2830,0.352,-0.601,-0.722,-3.83,-2.05,0.97,-0.95,-2.0,-2.02
2022-01-30 18:58:10.2940,0.379,-0.65,-0.74,-4.07,-1.61,1.07,-0.96,-2.37,-1.77
2022-01-30 18:58:10.3030,0.387,-0.703,-0.735,-4.3,-1.04,1.07,-1.0,-2.71,-1.55
2022-01-30 18:58:10.3130,0.372,-0.75,-0.736,-4.33,-0.48,0.97,-1.09,-2.96,-1.4
2022-01-30 18:58:10.3240,0.355,-0.788,-0.743,-4.24,0.01,0.94,-1.18,-3.1,-1.32
2022-01-30 18:58:10.3340,0.341,-0.813,-0.753,-4.19,0.41,0.95,-1.26,-3.16,-1.32
2022-01-30 18:58:10.3440,0.321,-0.833,-0.774,-4.15,0.68,1.01,-1.26,-3.16,-1.32
2022-01-30 18:58:10.3540,0.296,-0.861,-0.79,-4.03,0.99,1.15,-1.41,-2.97,-1.37
2022-01-30 18:58:10.3640,0.27,-0.878,-0.805,-3.87,1.32,1.21,-1.41,-2.97,-1.37
2022-01-30 18:58:10.3740,0.234,-0.886,-0.808,-3.67,1.52,1.27,-1.41,-2.23,-1.34
2022-01-30 18:58:10.3840,0.205,-0.91,-0.827,-3.36,1.71,1.22,-1.19,-1.7,-1.24
2022-01-30 18:58:10.3940,0.206,-0.947,-0.815,-3.19,2.08,1.36,-0.85,-1.12,-1.12
2022-01-30 18:58:10.4040,0.248,-1.004,-0.772,-3.35,2.52,0.97,-0.56,-0.65,-0.99
2022-01-30 18:58:10.4140,0.292,-1.086,-0.743,-3.8,3.24,0.61,-0.47,-0.3,-0.88
2022-01-30 18:58:10.4240,0.324,-1.158,-0.701,-4.13,4.06,0.22,-0.47,-0.3,-0.88
2022-01-30 18:58:10.4340,0.348,-1.229,-0.682,-4.37,4.75,-0.19,-0.83,-0.01,-0.77
2022-01-30 18:58:10.4440,0.372,-1.315,-0.713,-4.54,5.59,-0.27,-1.12,-0.2,-0.66
2022-01-30 18:58:10.4540,0.395,-1.372,-0.802,-4.76,6.44,0.15,-1.36,-0.79,-0.5
2022-01-30 18:58:10.4640,0.418,-1.4,-0.961,-5.01,6.96,1.21,-1.46,-1.78,-0.3
2022-01-30 18:58:10.4740,0.446,-1.408,-1.126,-5.37,7.29,2.84,-1.32,-2.93,-0.11
2022-01-30 18:58:10.4840,0.463,-1.357,-1.224,-5.86,7.27,4.2,-1.0,-3.92,0.05
2022-01-30 18:58:10.4940,0.441,-1.274,-1.227,-6.2,6.67,4.87,-0.57,-4.42,0.22
2022-01-30 18:58:10.5040,0.385,-1.185,-1.132,-6.17,5.87,4.52,-0.17,-4.37,0.39
2022-01-30 18:58:10.5140,0.319,-1.099,-1.01,-5.89,5.01,3.51,0.12,-3.84,0.52
2022-01-30 18:58:10.5240,0.274,-1.038,-0.891,-5.59,4.23,2.39,0.23,-3.07,0.61
2022-01-30 18:58:10.5340,0.256,-1.013,-0.808,-5.5,3.76,1.42,0.21,-2.22,0.65
2022-01-30 18:58:10.5440,0.266,-1.026,-0.747,-5.62,3.67,0.8,0.16,-1.45,0.64
2022-01-30 18:58:10.5540,0.293,-1.053,-0.704,-5.93,3.9,0.31,0.12,-0.89,0.58
2022-01-30 18:58:10.5640,0.325,-1.077,-0.688,-6.31,4.16,0.02,0.12,-0.55,0.46
2022-01-30 18:58:10.5740,0.36,-1.103,-0.675,-6.71,4.43,-0.06,0.17,-0.41,0.31
2022-01-30 18:58:10.5850,0.389,-1.112,-0.651,-7.08,4.63,-0.21,0.25,-0.4,0.13
2022-01-30 18:58:10.5940,0.409,-1.109,-0.619,-7.37,4.65,-0.44,0.25,-0.4,0.13
2022-01-30 18:58:10.6050,0.423,-1.093,-0.578,-7.57,4.55,-0.76,0.41,-0.5,-0.15
2022-01-30 18:58:10.6140,0.43,-1.07,-0.537,-7.72,4.33,-1.12,0.46,-0.5,-0.23
2022-01-30 18:58:10.6250,0.423,-1.04,-0.497,-7.75,4.04,-1.48,0.47,-0.44,-0.23
2022-01-30 18:58:10.6350,0.409,-1.008,-0.468,-7.66,3.7,-1.8,0.47,-0.35,-0.2
2022-01-30 18:58:10.6440,0.4,-0.978,-0.455,-7.54,3.34,-1.98,0.46,-0.24,-0.15
2022-01-30 18:58:10.6550,0.399,-0.953,-0.459,-7.48,3.04,-2.02,0.47,-0.15,-0.15
2022-01-30 18:58:10.6650,0.403,-0.927,-0.472,-7.49,2.75,-1.89,0.51,-0.08,-0.17
2022-01-30 18:58:10.6750,0.407,-0.906,-0.49,-7.54,2.48,-1.73,0.56,-0.05,-0.21
2022-01-30 18:58:10.6850,0.404,-0.882,-0.521,-7.55,2.23,-1.45,0.61,-0.04,-0.24
2022-01-30 18:58:10.6950,0.395,-0.842,-0.547,-7.34,1.41,-0.8,0.66,-0.05,-0.27
2022-01-30 18:58:10.7080,0.376,-0.792,-0.584,-7.34,1.41,-0.8,0.73,-0.06,-0.27
2022-01-30 18:58:10.7180,0.341,-0.73,-0.613,-7.09,0.83,-0.36,0.79,0.02,-0.22
2022-01-30 18:58:10.7280,0.291,-0.668,-0.626,-6.67,0.13,-0.13,0.82,0.19,-0.11
2022-01-30 18:58:10.7380,0.239,-0.629,-0.642,-6.13,-0.45,0.08,0.82,0.43,0.05
2022-01-30 18:58:10.7480,0.182,-0.598,-0.673,-5.61,-0.83,0.27,0.84,0.65,0.22
2022-01-30 18:58:10.7580,0.106,-0.58,-0.728,-4.94,-1.15,0.77,0.94,0.86,0.35
2022-01-30 18:58:10.7680,0.058,-0.563,-0.733,-4.2,-1.32,1.19,0.94,0.86,0.35
2022-01-30 18:58:10.7780,0.05,-0.539,-0.724,-3.88,-1.6,1.17,1.21,1.25,0.25
2022-01-30 18:58:10.7880,0.044,-0.536,-0.705,-3.77,-1.84,1.12,1.19,1.44,0.08
2022-01-30 18:58:10.7980,0.034,-0.543,-0.66,-3.41,-1.87,0.39,1.02,1.69,-0.11
2022-01-30 18:58:10.8080,0.03,-0.547,-0.612,-3.41,-1.87,0.39,1.02,1.69,-0.11
2022-01-30 18:58:10.8180,0.031,-0.548,-0.574,-3.26,-1.89,-0.06,0.39,2.24,-0.53
2022-01-30 18:58:10.8280,0.037,-0.548,-0.553,-3.1,-1.93,-0.41,0.04,2.47,-0.72
2022-01-30 18:58:10.8380,0.05,-0.545,-0.542,-2.99,-1.94,-0.63,-0.22,2.65,-0.85
2022-01-30 18:58:10.8480,0.066,-0.538,-0.534,-2.9,-2.0,-0.81,-0.39,2.76,-0.9
2022-01-30 18:58:10.8580,0.088,-0.541,-0.528,-2.85,-2.05,-0.98,-0.46,2.78,-0.86
2022-01-30 18:58:10.8680,0.11,-0.551,-0.523,-2.83,-1.84,-1.25,-0.46,2.68,-0.72
2022-01-30 18:58:10.8790,0.136,-0.561,-0.519,-2.83,-1.84,-1.25,-0.42,2.46,-0.51
2022-01-30 18:58:10.8880,0.17,-0.57,-0.501,-2.93,-1.73,-1.38,-0.34,2.19,-0.24
2022-01-30 18:58:10.8980,0.204,-0.58,-0.46,-3.35,-1.49,-2.12,-0.27,1.91,0.07
2022-01-30 18:58:10.9090,0.242,-0.594,-0.441,-3.35,-1.49,-2.12,-0.27,1.91,0.07
2022-01-30 18:58:10.9190,0.268,-0.603,-0.42,-3.76,-1.29,-2.58,-0.32,1.4,0.65
2022-01-30 18:58:10.9290,0.271,-0.59,-0.399,-3.76,-1.29,-2.58,-0.49,1.3,0.88
2022-01-30 18:58:10.9380,0.258,-0.581,-0.394,-3.69,-1.38,-2.78,-0.74,1.32,1.06
2022-01-30 18:58:10.9480,0.245,-0.583,-0.397,-3.53,-1.37,-2.89,-1.01,1.44,1.2
2022-01-30 18:58:10.9590,0.234,-0.583,-0.451,-3.42,-1.25,-2.8,-1.22,1.54,1.34
2022-01-30 18:58:10.9690,0.204,-0.567,-0.533,-3.25,-1.2,-2.2,-1.29,1.63,1.51
2022-01-30 18:58:10.9790,0.163,-0.547,-0.589,-2.87,-1.29,-1.57,-1.24,1.72,1.71
2022-01-30 18:58:10.9890,0.138,-0.536,-0.674,-2.5,-1.35,-1.13,-1.24,1.72,1.71
2022-01-30 18:58:10.9990,0.139,-0.562,-0.825,-2.35,-1.26,-0.12,-1.29,1.36,2.03
2022-01-30 18:58:11.0090,0.171,-0.642,-0.973,-2.51,-0.67,1.36,-1.44,1.04,2.06
2022-01-30 18:58:11.0190,0.208,-0.705,-1.059,-3.27,0.83,3.11,-1.54,0.81,1.94
2022-01-30 18:58:11.0290,0.214,-0.713,-1.134,-3.27,0.83,3.11,-1.58,0.74,1.72
2022-01-30 18:58:11.0390,0.208,-0.695,-1.207,-3.32,0.92,3.75,-1.58,0.9,1.5
2022-01-30 18:58:11.0490,0.189,-0.654,-1.249,-3.22,0.82,4.28,-1.54,1.29,1.37
2022-01-30 18:58:11.0590,0.173,-0.589,-1.282,-3.0,0.43,4.48,-1.45,1.78,1.36
2022-01-30 18:58:11.0690,0.168,-0.542,-1.33,-2.81,-0.04,4.78,-1.45,1.78,1.36
2022-01-30 18:58:11.0790,0.186,-0.524,-1.359,-2.72,-0.28,5.11,-1.19,2.83,1.67
2022-01-30 18:58:11.0890,0.224,-0.535,-1.377,-2.85,-0.22,5.23,-1.04,3.24,1.89
2022-01-30 18:58:11.0990,0.261,-0.56,-1.412,-3.22,0.4,5.67,-0.88,3.41,2.11
2022-01-30 18:58:11.1100,0.282,-0.583,-1.436,-3.22,0.4,5.67,-0.68,3.35,2.32
2022-01-30 18:58:11.1190,0.293,-0.597,-1.435,-3.22,0.66,5.73,-0.43,3.1,2.53
2022-01-30 18:58:11.1300,0.296,-0.598,-1.402,-3.17,0.8,5.6,-0.17,2.75,2.72
2022-01-30 18:58:11.1390,0.296,-0.594,-1.353,-3.03,0.76,4.69,0.04,2.35,2.92
2022-01-30 18:58:11.1490,0.287,-0.591,-1.306,-3.03,0.76,4.69,0.19,1.99,3.1
2022-01-30 18:58:11.1590,0.271,-0.585,-1.253,-2.74,0.61,3.69,0.28,1.75,3.24
2022-01-30 18:58:11.1700,0.245,-0.569,-1.2,-2.74,0.61,3.69,0.28,1.75,3.24
2022-01-30 18:58:11.1790,0.21,-0.539,-1.161,-2.15,0.02,2.95,0.42,1.71,3.35
2022-01-30 18:58:11.1910,0.174,-0.504,-1.143,-2.15,0.02,2.95,0.42,1.71,3.35
2022-01-30 18:58:11.2000,0.14,-0.467,-1.13,-1.51,-0.75,2.78,0.59,2.13,3.36
2022-01-30 18:58:11.2110,0.119,-0.439,-1.139,-1.51,-0.75,2.78,0.59,2.13,3.36
2022-01-30 18:58:11.2200,0.101,-0.415,-1.147,-1.09,-1.33,3.04,0.67,2.37,3.38
2022-01-30 18:58:11.2310,0.079,-0.398,-1.161,-1.09,-1.33,3.04,0.85,2.73,3.46
2022-01-30 18:58:11.2400,0.057,-0.396,-1.176,-0.57,-1.55,3.43,0.94,2.78,3.54
2022-01-30 18:58:11.2510,0.036,-0.403,-1.194,-0.57,-1.55,3.43,0.94,2.78,3.54
2022-01-30 18:58:11.2600,0.02,-0.417,-1.219,-0.22,-1.45,3.98,1.11,2.6,3.63
2022-01-30 18:58:11.2700,0.011,-0.44,-1.235,-0.22,-1.45,3.98,1.21,2.45,3.62
2022-01-30 18:58:11.2800,0.008,-0.468,-1.26,-0.18,-1.08,4.61,1.21,2.45,3.62
2022-01-30 18:58:11.2910,0.007,-0.513,-1.315,-0.18,-1.08,4.61,1.24,2.04,3.63
2022-01-30 18:58:11.3000,0.013,-0.548,-1.42,-0.36,-0.55,6.64,1.13,1.65,3.6
2022-01-30 18:58:11.3110,0.001,-0.555,-1.551,-0.36,-0.55,6.64,1.03,1.24,3.5
2022-01-30 18:58:11.3200,-0.03,-0.545,-1.662,-0.28,-0.62,7.91,1.03,1.24,3.5
2022-01-30 18:58:11.3310,-0.069,-0.513,-1.763,-0.08,-0.85,9.02,1.03,0.87,3.37
2022-01-30 18:58:11.3410,-0.112,-0.443,-1.824,0.45,-2.23,10.44,1.4,0.58,3.12
2022-01-30 18:58:11.3500,-0.154,-0.362,-1.824,0.45,-2.23,10.44,1.7,0.74,3.01
2022-01-30 18:58:11.3610,-0.178,-0.293,-1.777,0.69,-3.1,10.36,2.0,1.04,2.92
2022-01-30 18:58:11.3700,-0.178,-0.252,-1.711,0.55,-4.25,9.35,2.24,1.38,2.83
2022-01-30 18:58:11.3810,-0.16,-0.231,-1.632,0.55,-4.25,9.35,2.39,1.68,2.76
2022-01-30 18:58:11.3900,-0.143,-0.237,-1.538,0.31,-4.49,8.66,2.39,1.68,2.76
2022-01-30 18:58:11.4010,-0.13,-0.248,-1.457,-0.06,-4.57,7.34,2.46,1.94,2.59
2022-01-30 18:58:11.4110,-0.121,-0.252,-1.401,-0.06,-4.57,7.34,2.49,1.79,2.49
2022-01-30 18:58:11.4210,-0.12,-0.244,-1.344,-0.19,-4.7,6.96,2.49,1.79,2.49
2022-01-30 18:58:11.4310,-0.132,-0.228,-1.279,-0.22,-4.96,6.55,2.56,1.27,2.24
2022-01-30 18:58:11.4400,-0.142,-0.22,-1.205,-0.2,-5.38,5.47,2.57,1.07,2.04
2022-01-30 18:58:11.4510,-0.14,-0.224,-1.13,-0.2,-5.38,5.47,2.57,1.07,2.04
2022-01-30 18:58:11.4610,-0.131,-0.234,-1.052,-0.34,-5.44,4.92,2.54,0.96,1.77
2022-01-30 18:58:11.4710,-0.12,-0.254,-0.965,-0.61,-5.3,3.64,2.34,1.14,1.17
2022-01-30 18:58:11.4810,-0.111,-0.282,-0.902,-0.61,-5.3,3.64,2.22,1.33,0.93
2022-01-30 18:58:11.4910,-0.106,-0.294,-0.865,-0.68,-5.17,3.28,2.1,1.49,0.73
2022-01-30 18:58:11.5010,-0.099,-0.304,-0.843,-0.74,-5.14,3.08,1.99,1.57,0.59
2022-01-30 18:58:11.5110,-0.094,-0.325,-0.832,-0.74,-5.14,3.08,1.91,1.54,0.5
2022-01-30 18:58:11.5200,-0.087,-0.346,-0.836,-0.77,-5.01,3.16,1.84,1.4,0.42
2022-01-30 18:58:11.5310,-0.081,-0.361,-0.836,-0.79,-4.9,3.33,1.77,1.18,0.29
2022-01-30 18:58:11.5410,-0.077,-0.373,-0.827,-0.82,-4.85,3.42,1.69,0.91,0.13
2022-01-30 18:58:11.5510,-0.068,-0.382,-0.81,-0.83,-4.83,3.43,1.69,0.91,0.13
2022-01-30 18:58:11.5610,-0.047,-0.394,-0.785,-0.92,-4.81,3.37,1.53,0.63,-0.07
2022-01-30 18:58:11.5710,-0.014,-0.416,-0.751,-1.42,-4.5,2.94,0.99,0.26,-0.57
2022-01-30 18:58:11.5810,0.026,-0.442,-0.727,-1.42,-4.5,2.94,0.67,0.2,-0.78
2022-01-30 18:58:11.5910,0.064,-0.445,-0.719,-1.75,-4.35,2.81,0.67,0.2,-0.78
2022-01-30 18:58:11.6010,0.088,-0.425,-0.717,-1.98,-4.45,2.8,0.18,0.38,-0.98
2022-01-30 18:58:11.6110,0.112,-0.391,-0.721,-2.09,-4.73,2.79,0.05,0.57,-0.97
2022-01-30 18:58:11.6210,0.13,-0.364,-0.73,-2.25,-5.29,2.88,-0.04,0.8,-0.91
2022-01-30 18:58:11.6310,0.144,-0.347,-0.713,-2.25,-5.29,2.88,-0.12,1.06,-0.81
2022-01-30 18:58:11.6410,0.15,-0.331,-0.685,-2.26,-5.45,2.59,-0.26,1.25,-0.68
2022-01-30 18:58:11.6510,0.151,-0.325,-0.666,-2.16,-5.59,2.34,-0.39,1.36,-0.53
2022-01-30 18:58:11.6610,0.162,-0.352,-0.636,-2.11,-5.53,2.05,-0.41,1.39,-0.41
2022-01-30 18:58:11.6710,0.172,-0.384,-0.623,-2.12,-5.16,1.76,-0.27,1.35,-0.38
2022-01-30 18:58:11.6810,0.169,-0.379,-0.609,-2.11,-4.97,1.65,-0.27,1.35,-0.38
2022-01-30 18:58:11.6910,0.139,-0.379,-0.58,-1.88,-5.05,1.43,0.15,1.15,-0.48
2022-01-30 18:58:11.7010,0.087,-0.368,-0.539,-1.41,-5.03,1.13,0.22,0.99,-0.48
2022-01-30 18:58:11.7110,0.032,-0.325,-0.499,-0.77,-5.3,0.69,0.22,0.99,-0.48
2022-01-30 18:58:11.7210,-0.008,-0.301,-0.484,-0.2,-5.71,0.41,0.1,0.78,-0.44
2022-01-30 18:58:11.7310,-0.021,-0.312,-0.471,0.16,-5.79,0.26,-0.47,0.44,-0.46
2022-01-30 18:58:11.7410,-0.01,-0.329,-0.456,0.24,-5.61,0.09,-0.47,0.44,-0.46
2022-01-30 18:58:11.7520,-0.015,-0.346,-0.441,0.22,-5.41,-0.14,-0.82,0.6,-0.67
2022-01-30 18:58:11.7610,-0.04,-0.354,-0.435,0.44,-5.21,-0.32,-0.86,0.81,-0.68
2022-01-30 18:58:11.7710,-0.074,-0.35,-0.444,0.83,-5.15,-0.41,-0.88,0.98,-0.61
2022-01-30 18:58:11.7820,-0.112,-0.345,-0.46,1.28,-5.17,-0.36,-0.9,1.07,-0.5
2022-01-30 18:58:11.7910,-0.147,-0.369,-0.48,1.74,-5.09,-0.24,-0.9,1.12,-0.37
2022-01-30 18:58:11.8010,-0.178,-0.399,-0.474,2.46,-4.45,-0.32,-0.88,1.13,-0.31
2022-01-30 18:58:11.8120,-0.181,-0.425,-0.486,2.46,-4.45,-0.32,-0.85,1.07,-0.31
2022-01-30 18:58:11.8220,-0.17,-0.485,-0.479,2.5,-4.03,-0.25,-0.85,1.07,-0.31
2022-01-30 18:58:11.8320,-0.149,-0.538,-0.448,2.43,-3.34,-0.52,-0.76,0.96,-0.39
2022-01-30 18:58:11.8420,-0.128,-0.536,-0.429,2.3,-2.97,-0.86,-0.76,0.85,-0.46
2022-01-30 18:58:11.8520,-0.121,-0.513,-0.417,2.21,-3.09,-1.05,-0.84,0.71,-0.49
2022-01-30 18:58:11.8610,-0.124,-0.504,-0.387,2.26,-3.22,-1.29,-0.84,0.71,-0.49
2022-01-30 18:58:11.8720,-0.13,-0.525,-0.361,2.38,-3.18,-1.68,-1.25,0.56,-0.21
2022-01-30 18:58:11.8820,-0.124,-0.604,-0.347,2.45,-2.69,-1.99,-1.52,0.49,0.08
2022-01-30 18:58:11.8920,-0.107,-0.688,-0.368,2.36,-1.71,-2.15,-1.74,0.31,0.34
2022-01-30 18:58:11.9020,-0.098,-0.727,-0.422,2.18,-0.94,-1.94,-1.88,-0.01,0.51
2022-01-30 18:58:11.9120,-0.101,-0.749,-0.488,2.1,-0.57,-1.49,-1.92,-0.43,0.56
2022-01-30 18:58:11.9220,-0.108,-0.763,-0.56,2.07,-0.26,-0.99,-1.88,-0.92,0.51
2022-01-30 18:58:11.9320,-0.119,-0.749,-0.636,2.08,-0.08,-0.39,-1.76,-1.39,0.35
2022-01-30 18:58:11.9420,-0.122,-0.701,-0.688,2.04,-0.26,0.13,-1.76,-1.39,0.35
2022-01-30 18:58:11.9520,-0.133,-0.656,-0.701,1.96,-0.66,0.4,-1.62,-1.73,0.13
2022-01-30 18:58:11.9620,-0.144,-0.636,-0.661,1.97,-0.92,0.18,-1.53,-1.57,-0.21
2022-01-30 18:58:11.9720,-0.148,-0.639,-0.629,1.98,-0.92,-0.38,-1.6,-1.17,-0.26
2022-01-30 18:58:11.9910,-0.142,-0.647,-0.638,1.84,-0.61,-0.63,-1.6,-1.17,-0.26
2022-01-30 18:58:11.9930,-0.142,-0.627,-0.659,1.84,-0.61,-0.63,-1.83,-0.3,-0.32
2022-01-30 18:58:12.0020,-0.148,-0.595,-0.695,1.87,-0.76,-0.5,-1.9,0.04,-0.41
2022-01-30 18:58:12.0120,-0.154,-0.577,-0.743,1.97,-0.88,-0.23,-1.9,0.04,-0.41
2022-01-30 18:58:12.0220,-0.151,-0.559,-0.794,2.08,-0.91,0.15,-1.75,0.34,-0.78
2022-01-30 18:58:12.0330,-0.125,-0.539,-0.816,2.04,-0.96,0.48,-1.54,0.32,-1.01
2022-01-30 18:58:12.0430,-0.095,-0.516,-0.803,1.83,-1.04,0.45,-1.36,0.27,-1.21
2022-01-30 18:58:12.0520,-0.069,-0.498,-0.768,1.64,-1.15,0.15,-1.28,0.27,-1.34
2022-01-30 18:58:12.0620,-0.044,-0.498,-0.717,1.5,-1.16,-0.35,-1.32,0.33,-1.42
2022-01-30 18:58:12.0720,-0.026,-0.494,-0.685,1.38,-1.01,-0.9,-1.47,0.42,-1.48
2022-01-30 18:58:12.0830,-0.017,-0.469,-0.69,1.37,-1.0,-1.16,-1.67,0.5,-1.55
2022-01-30 18:58:12.0930,-0.015,-0.46,-0.716,1.43,-1.09,-1.11,-1.81,0.54,-1.58
2022-01-30 18:58:12.1020,-0.016,-0.472,-0.761,1.56,-0.9,-0.87,-1.81,0.5,-1.56
2022-01-30 18:58:12.1130,-0.006,-0.475,-0.801,1.67,-0.62,-0.51,-1.69,0.38,-1.5
2022-01-30 18:58:12.1220,0.011,-0.493,-0.836,1.63,-0.43,-0.2,-1.51,0.24,-1.4
2022-01-30 18:58:12.1330,0.027,-0.536,-0.846,1.56,0.03,-0.04,-1.4,0.08,-1.32
2022-01-30 18:58:12.1430,0.039,-0.563,-0.865,1.47,0.56,-0.01,-1.4,0.08,-1.32
2022-01-30 18:58:12.1530,0.026,-0.597,-0.898,1.48,0.94,0.18,-1.46,-0.27,-1.23
2022-01-30 18:58:12.1630,0.016,-0.651,-0.933,1.7,1.52,0.42,-1.54,-0.5,-1.19
2022-01-30 18:58:12.1730,0.052,-0.699,-0.999,1.65,2.19,0.76,-1.64,-0.87,-1.18
2022-01-30 18:58:12.1830,0.106,-0.751,-1.08,1.13,2.83,1.45,-1.71,-1.29,-1.16
2022-01-30 18:58:12.1930,0.145,-0.804,-1.147,0.58,3.53,2.08,-1.71,-1.65,-1.11
2022-01-30 18:58:12.2030,0.16,-0.84,-1.212,0.01,4.6,3.13,-1.61,-1.85,-1.0
2022-01-30 18:58:12.2130,0.147,-0.85,-1.255,0.01,4.6,3.13,-1.43,-1.84,-0.88
2022-01-30 18:58:12.2230,0.123,-0.827,-1.262,0.05,4.73,3.35,-1.2,-1.6,-0.78
2022-01-30 18:58:12.2330,0.101,-0.794,-1.252,0.2,4.53,3.25,-1.04,-1.26,-0.74
2022-01-30 18:58:12.2430,0.105,-0.79,-1.247,0.24,4.39,3.09,-0.99,-0.99,-0.77
2022-01-30 18:58:12.2530,0.124,-0.82,-1.267,0.06,4.59,3.08,-1.03,-0.89,-0.86
2022-01-30 18:58:12.2630,0.152,-0.878,-1.32,-0.21,5.1,3.34,-1.12,-1.02,-0.99
2022-01-30 18:58:12.2730,0.18,-0.937,-1.38,-0.56,5.84,3.93,-1.18,-1.26,-1.13
2022-01-30 18:58:12.2830,0.201,-0.971,-1.411,-0.91,6.44,4.32,-1.18,-1.26,-1.13
2022-01-30 18:58:12.2940,0.207,-0.981,-1.452,-1.19,6.85,4.61,-1.2,-1.56,-1.27
2022-01-30 18:58:12.3040,0.191,-0.947,-1.474,-1.3,6.9,4.93,-1.14,-2.04,-1.42
2022-01-30 18:58:12.3130,0.173,-0.898,-1.485,-1.25,6.59,5.02,-1.14,-2.04,-1.42
2022-01-30 18:58:12.3230,0.157,-0.862,-1.504,-1.28,6.23,5.13,-1.05,-2.13,-1.42
2022-01-30 18:58:12.3330,0.142,-0.835,-1.509,-1.28,6.02,5.26,-0.88,-2.15,-1.35
2022-01-30 18:58:12.3440,0.127,-0.8,-1.498,-1.32,5.79,5.24,-0.31,-1.96,-1.1
2022-01-30 18:58:12.3530,0.11,-0.768,-1.452,-1.32,5.47,5.01,0.01,-1.73,-0.99
2022-01-30 18:58:12.3640,0.093,-0.738,-1.387,-1.3,5.18,4.46,0.29,-1.45,-0.93
2022-01-30 18:58:12.3730,0.078,-0.705,-1.311,-1.24,4.83,3.8,0.5,-1.18,-0.91
2022-01-30 18:58:12.3840,0.072,-0.688,-1.227,-1.21,4.5,3.04,0.66,-0.94,-0.92
2022-01-30 18:58:12.3940,0.076,-0.671,-1.142,-1.26,4.3,2.21,0.79,-0.79,-0.97
2022-01-30 18:58:12.4030,0.08,-0.644,-1.075,-1.36,4.01,1.45,0.91,-0.75,-1.03
2022-01-30 18:58:12.4140,0.085,-0.622,-1.015,-1.44,3.65,0.89,1.0,-0.77,-1.09
2022-01-30 18:58:12.4240,0.094,-0.606,-0.943,-1.55,3.36,0.27,1.1,-0.82,-1.12
2022-01-30 18:58:12.4340,0.099,-0.592,-0.877,-1.78,2.83,-0.94,1.19,-0.89,-1.15
2022-01-30 18:58:12.4440,0.104,-0.571,-0.825,-1.78,2.83,-0.94,1.27,-0.95,-1.17
2022-01-30 18:58:12.4540,0.107,-0.549,-0.788,-1.87,2.48,-1.35,1.27,-0.95,-1.17
2022-01-30 18:58:12.4640,0.109,-0.537,-0.765,-1.97,2.16,-1.6,1.3,-1.07,-1.27
2022-01-30 18:58:12.4740,0.107,-0.528,-0.739,-2.02,1.94,-1.79,1.25,-1.08,-1.34
2022-01-30 18:58:12.4840,0.105,-0.516,-0.739,-2.09,1.48,-1.77,1.18,-1.09,-1.44
2022-01-30 18:58:12.4940,0.103,-0.506,-0.759,-2.09,1.48,-1.77,1.1,-1.06,-1.54
2022-01-30 18:58:12.5040,0.101,-0.498,-0.765,-2.1,1.28,-1.48,1.1,-1.06,-1.54
2022-01-30 18:58:12.5140,0.101,-0.49,-0.772,-2.12,1.09,-1.48,0.97,-0.86,-1.72
2022-01-30 18:58:12.5240,0.101,-0.478,-0.794,-2.13,0.9,-1.3,0.92,-0.75,-1.82
2022-01-30 18:58:12.5340,0.093,-0.458,-0.812,-2.12,0.65,-1.04,0.84,-0.59,-1.92
2022-01-30 18:58:12.5440,0.077,-0.424,-0.818,-1.96,0.32,-0.87,0.74,-0.35,-2.0
2022-01-30 18:58:12.5540,0.066,-0.391,-0.832,-1.76,-0.13,-0.78,0.62,-0.04,-2.08
2022-01-30 18:58:12.5640,0.066,-0.377,-0.867,-1.6,-0.46,-0.54,0.52,0.27,-2.14
2022-01-30 18:58:12.5740,0.066,-0.385,-0.912,-1.49,-0.57,-0.12,0.45,0.5794998407363892,-2.14
2022-01-30 18:58:12.5850,0.066,-0.386,-0.948,-1.35,-0.54,0.31,0.41,0.82,-2.28
2022-01-30 18:58:12.5940,0.065,-0.373,-1.0,-1.16,-0.64,0.7,0.41,0.82,-2.28
2022-01-30 18:58:12.6040,0.065,-0.36,-1.052,-0.97,-0.84,1.26,0.3,0.97,-2.48
2022-01-30 18:58:12.6150,0.062,-0.366,-1.075,-0.77,-0.92,1.71,0.32,1.02,-2.49
2022-01-30 18:58:12.6240,0.063,-0.368,-1.047,-0.54,-0.88,1.76,0.47,1.12,-2.43
2022-01-30 18:58:12.6350,0.064,-0.354,-0.993,-0.35,-0.95,1.38,0.68,1.28,-2.28
2022-01-30 18:58:12.6450,0.065,-0.341,-0.93,-0.14,-1.17,0.85,0.87,1.45,-2.06
2022-01-30 18:58:12.6550,0.072,-0.343,-0.873,0.06,-1.31,0.27,0.97,1.53,-1.79
2022-01-30 18:58:12.6650,0.086,-0.363,-0.848,0.16,-1.29,-0.13,0.97,1.48,-1.51
2022-01-30 18:58:12.6750,0.085,-0.404,-0.831,0.26,-1.08,-0.24,0.92,1.33,-1.24
2022-01-30 18:58:12.6850,0.085,-0.441,-0.811,0.46,-0.72,-0.38,0.82,1.08,-1.01
2022-01-30 18:58:12.6940,0.09,-0.47,-0.811,0.57,-0.46,-0.47,0.66,0.71,-0.81
2022-01-30 18:58:12.7050,0.089,-0.501,-0.822,0.63,-0.21,-0.36,0.46,0.28,-0.63
2022-01-30 18:58:12.7150,0.086,-0.526,-0.843,0.7,0.06,-0.2,0.46,0.28,-0.63
2022-01-30 18:58:12.7250,0.07,-0.539,-0.853,0.77,0.26,0.03,0.02,-0.46,-0.3
2022-01-30 18:58:12.7350,0.05,-0.546,-0.832,0.94,0.35,-0.03,0.02,-0.46,-0.3
2022-01-30 18:58:12.7450,0.029,-0.55,-0.813,1.08,0.44,-0.26,-0.14,-0.61,0.06
2022-01-30 18:58:12.7550,0.008,-0.54,-0.781,1.36,0.33,-0.81,-0.11,-0.49,0.25
2022-01-30 18:58:12.7650,-0.005,-0.529,-0.76,1.36,0.33,-0.81,-0.06,-0.32,0.42
2022-01-30 18:58:12.7750,-0.007,-0.531,-0.752,1.33,0.32,-1.02,-0.01,-0.19,0.57
2022-01-30 18:58:12.7850,0.006,-0.548,-0.751,1.33,0.32,-1.02,0.03,-0.17,0.67
2022-01-30 18:58:12.7950,0.03,-0.574,-0.768,1.11,0.52,-0.98,0.07,-0.32,0.72
2022-01-30 18:58:12.8050,0.053,-0.597,-0.785,0.52,0.95,-0.65,0.12,-0.57,0.7
2022-01-30 18:58:12.8150,0.067,-0.613,-0.789,0.28,1.07,-0.68,0.17,-0.85,0.65
2022-01-30 18:58:12.8260,0.082,-0.624,-0.775,0.02,1.12,-0.89,0.21,-1.06,0.57
2022-01-30 18:58:12.8350,0.095,-0.625,-0.746,0.02,1.12,-0.89,0.23,-1.16,0.49
2022-01-30 18:58:12.8450,0.103,-0.625,-0.708,-0.21,1.09,-1.21,0.23,-1.16,0.49
2022-01-30 18:58:12.8550,0.114,-0.636,-0.667,-0.41,1.09,-1.59,0.13,-1.03,0.37
2022-01-30 18:58:12.8650,0.127,-0.653,-0.631,-0.63,1.24,-1.99,0.02,-0.83,0.36
2022-01-30 18:58:12.8760,0.136,-0.662,-0.608,-0.83,1.38,-2.31,0.02,-0.83,0.36
2022-01-30 18:58:12.8850,0.146,-0.675,-0.597,-1.0,1.47,-2.5,-0.21,-0.41,0.35
2022-01-30 18:58:12.8950,0.153,-0.7,-0.606,-1.13,1.66,-2.54,-0.28,-0.27,0.37
2022-01-30 18:58:12.9050,0.164,-0.736,-0.62,-1.39,2.36,-2.31,-0.26,-0.16,0.44
2022-01-30 18:58:12.9160,0.171,-0.774,-0.638,-1.39,2.36,-2.31,-0.12,-0.12,0.54
2022-01-30 18:58:12.9260,0.176,-0.817,-0.674,-1.49,2.76,-2.09,0.07,-0.19,0.69
2022-01-30 18:58:12.9360,0.174,-0.862,-0.716,-1.57,3.18,-1.66,0.28,-0.31,0.86
2022-01-30 18:58:12.9450,0.17,-0.892,-0.745,-1.61,3.57,-1.3,0.41,-0.45,1.03
2022-01-30 18:58:12.9550,0.159,-0.914,-0.784,-1.64,3.77,-0.97,0.48,-0.57,1.19
2022-01-30 18:58:12.9660,0.142,-0.942,-0.81,-1.62,3.98,-0.3300671374797821,0.56,-0.56,1.34
2022-01-30 18:58:12.9760,0.125,-0.953,-0.836,-1.56,4.17,-0.34,0.56,-0.56,1.34
2022-01-30 18:58:12.9860,0.114,-0.954,-0.888,-1.54,4.14,0.7,0.8,-0.42,1.51
2022-01-30 18:58:12.9960,0.103,-0.962,-0.971,-1.53,4.12,1.65,0.89,-0.45,1.52
2022-01-30 18:58:13.0060,0.078,-0.954,-1.068,-1.31,3.9,2.63,0.96,-0.51,1.51
2022-01-30 18:58:13.0170,0.035,-0.93,-1.154,-1.31,3.9,2.63,1.03,-0.58,1.46
2022-01-30 18:58:13.0260,-0.014,-0.883,-1.228,-1.01,3.52,3.5,1.15,-0.56,1.39
2022-01-30 18:58:13.0360,-0.075,-0.809,-1.255,-0.59,2.87,4.15,1.32,-0.4,1.31
2022-01-30 18:58:13.0460,-0.125,-0.722,-1.246,-0.11,2.0,4.33,1.51,-0.14,1.22
2022-01-30 18:58:13.0560,-0.154,-0.633,-1.224,0.23,1.0,4.27,1.51,-0.14,1.22
2022-01-30 18:58:13.0660,-0.164,-0.562,-1.195,0.38,0.07,4.12,1.72,0.36,1.07
2022-01-30 18:58:13.0760,-0.166,-0.5,-1.162,0.41,-0.7,3.91,1.7,0.54,0.99
2022-01-30 18:58:13.0860,-0.16,-0.441,-1.134,0.37,-1.4,3.7,1.61,0.67,0.85
2022-01-30 18:58:13.0960,-0.157,-0.395,-1.096,0.31,-2.53,3.16,1.52,0.79,0.69
2022-01-30 18:58:13.1060,-0.152,-0.369,-1.054,0.31,-2.53,3.16,1.45,0.89,0.51
2022-01-30 18:58:13.1170,-0.145,-0.343,-1.025,0.28,-2.87,2.86,1.45,0.89,0.51
2022-01-30 18:58:13.1260,-0.14,-0.313,-1.012,0.26,-3.24,2.72,1.35,0.88,0.2
2022-01-30 18:58:13.1360,-0.144,-0.27,-1.001,0.29,-3.65,2.7,1.31,0.78,0.09
2022-01-30 18:58:13.1470,-0.156,-0.215,-0.997,0.41,-4.24,2.66,1.25,0.6,0.01
2022-01-30 18:58:13.1560,-0.175,-0.162,-1.008,0.6,-4.86,2.8,1.19,0.38,-0.03
2022-01-30 18:58:13.1670,-0.194,-0.121,-0.997,0.99,-5.84,2.82,1.13,0.2,-0.03
2022-01-30 18:58:13.1770,-0.201,-0.101,-0.975,0.99,-5.84,2.82,1.08,0.08,0.01
2022-01-30 18:58:13.1860,-0.186,-0.104,-0.942,0.99,-6.03,2.64,1.08,0.08,0.01
2022-01-30 18:58:13.1950,-0.159,-0.122,-0.904,0.77,-5.99,2.36,1.09,0.09,0.08
2022-01-30 18:58:13.2060,-0.138,-0.136,-0.865,0.52,-5.89,2.06,1.09,0.09,0.08
2022-01-30 18:58:13.2170,-0.129,-0.145,-0.825,0.33,-5.84,1.4,1.11,0.21,0.1
2022-01-30 18:58:13.2270,-0.128,-0.152,-0.777,0.33,-5.84,1.4,1.12,0.59,0.13
2022-01-30 18:58:13.2370,-0.134,-0.157,-0.737,0.38,-5.85,1.03,1.12,0.59,0.13
2022-01-30 18:58:13.2470,-0.137,-0.169,-0.704,0.53,-5.76,0.53,1.03,0.91,0.16
2022-01-30 18:58:13.2560,-0.133,-0.19,-0.684,0.53,-5.76,0.53,0.95,0.93,0.17
2022-01-30 18:58:13.2660,-0.129,-0.212,-0.673,0.52,-5.6,0.43,0.95,0.93,0.17
2022-01-30 18:58:13.2770,-0.131,-0.236,-0.663,0.54,-5.43,0.39,0.86,0.86,0.19
2022-01-30 18:58:13.2870,-0.132,-0.263,-0.652,0.59,-5.22,0.33,0.68,0.53,0.27
2022-01-30 18:58:13.2970,-0.137,-0.292,-0.65,0.62,-5.0,0.31,0.57,0.34,0.29
2022-01-30 18:58:13.3070,-0.143,-0.325,-0.641,0.68,-4.72,0.31,0.49,0.2,0.3
2022-01-30 18:58:13.3170,-0.145,-0.359,-0.632,0.71,-4.42,0.24,0.49,0.2,0.3
2022-01-30 18:58:13.3270,-0.146,-0.39,-0.622,0.71,-4.12,0.19,0.37,0.12,0.22
2022-01-30 18:58:13.3370,-0.144,-0.422,-0.61,0.69,-3.83,0.1,0.29,0.17,0.15
2022-01-30 18:58:13.3470,-0.147,-0.459,-0.604,0.69,-3.52,0.03,0.21,0.24,0.08
2022-01-30 18:58:13.3570,-0.144,-0.501,-0.604,0.71,-3.15,-0.01,0.07,0.31,0.01
2022-01-30 18:58:13.3670,-0.135,-0.556,-0.629,0.6,-2.09,0.38,-0.1,0.32,-0.07
2022-01-30 18:58:13.3770,-0.125,-0.623,-0.671,0.6,-2.09,0.38,-0.26,0.28,-0.14
2022-01-30 18:58:13.3870,-0.118,-0.68,-0.708,0.55,-1.44,0.78,-0.39,0.22,-0.22
2022-01-30 18:58:13.3970,-0.108,-0.729,-0.739,0.5,-0.9,1.06,-0.45,0.14,-0.31
2022-01-30 18:58:13.4070,-0.099,-0.77,-0.78,0.39,-0.05,1.74,-0.43,0.06,-0.41
2022-01-30 18:58:13.4170,-0.097,-0.789,-0.814,0.39,-0.05,1.74,-0.43,0.06,-0.41
2022-01-30 18:58:13.4280,-0.107,-0.782,-0.831,0.46,0.06,1.98,-0.22,0.07,-0.65
2022-01-30 18:58:13.4380,-0.128,-0.762,-0.829,0.67,-0.08,2.05,-0.03,0.16,-0.71
2022-01-30 18:58:13.4480,-0.136,-0.755,-0.835,0.92,-0.25,2.02,0.13,0.23,-0.73
2022-01-30 18:58:13.4570,-0.126,-0.766,-0.852,0.99,-0.27,2.16,0.13,0.23,-0.73
2022-01-30 18:58:13.4680,-0.103,-0.8,-0.843,0.91,-0.09,2.28,0.24,0.26,-0.67
2022-01-30 18:58:13.4780,-0.077,-0.85,-0.806,0.71,0.31,2.1,0.42,0.4,-0.4
2022-01-30 18:58:13.4870,-0.061,-0.881,-0.756,0.54,0.74,1.7,0.53,0.55,-0.26
2022-01-30 18:58:13.4980,-0.066,-0.88,-0.705,0.5,0.88,1.25,0.63,0.72,-0.14
2022-01-30 18:58:13.5070,-0.088,-0.867,-0.663,0.93,0.63,0.5,0.71,0.87,-0.02
2022-01-30 18:58:13.5180,-0.096,-0.868,-0.634,1.01,0.65,0.31,0.72,0.96,0.08
2022-01-30 18:58:13.5260,-0.098,-0.876,-0.611,1.1,0.69,0.13,0.68,1.01,0.15
2022-01-30 18:58:13.5370,-0.103,-0.886,-0.584,1.1,0.69,0.13,0.6,1.06,0.21
2022-01-30 18:58:13.5470,-0.099,-0.898,-0.558,1.16,0.77,-0.12,0.5,1.05,0.22
2022-01-30 18:58:13.5570,-0.095,-0.899,-0.552,1.16,0.83,-0.24,0.38,1.02,0.17
2022-01-30 18:58:13.5680,-0.083,-0.893,-0.539,1.14,0.78,-0.28,0.23,0.97,0.08
2022-01-30 18:58:13.5770,-0.071,-0.884,-0.523,1.07,0.71,-0.41,0.03,0.95,-0.05
2022-01-30 18:58:13.5880,-0.061,-0.87,-0.515,1.0,0.59,-0.56,-0.22,0.93,-0.17
2022-01-30 18:58:13.5980,-0.056,-0.858,-0.514,1.0,0.47,-0.61,-0.49,0.97,-0.26
2022-01-30 18:58:13.6080,-0.051,-0.836,-0.515,1.07,0.14,-0.67,-0.75,1.07,-0.31
2022-01-30 18:58:13.6180,-0.048,-0.801,-0.529,1.15,-0.14,-0.54,-0.96,1.18,-0.33
2022-01-30 18:58:13.6280,-0.049,-0.765,-0.555,1.15,-0.14,-0.54,-1.1,1.26,-0.31
2022-01-30 18:58:13.6380,-0.046,-0.727,-0.586,1.26,-0.44,-0.35,-1.16,1.27,-0.28
2022-01-30 18:58:13.6480,-0.038,-0.698,-0.617,1.29,-0.72,-0.11,-1.13,1.22,-0.2
2022-01-30 18:58:13.6580,-0.032,-0.68,-0.634,1.31,-0.89,0.08,-1.04,1.12,-0.06
2022-01-30 18:58:13.6680,-0.024,-0.672,-0.64,1.31,-0.96,0.13,-0.89,0.98,0.1
2022-01-30 18:58:13.6780,-0.012,-0.667,-0.641,1.27,-0.98,0.1,-0.73,0.81,0.29
2022-01-30 18:58:13.6890,-0.0,-0.664,-0.639,1.17,-0.97,0.05,-0.58,0.63,0.47
2022-01-30 18:58:13.6980,0.01,-0.658,-0.633,0.97,-1.03,-0.12,-0.45,0.47,0.62
2022-01-30 18:58:13.7080,0.01,-0.652,-0.623,0.97,-1.03,-0.12,-0.35,0.34,0.73
2022-01-30 18:58:13.7180,0.01,-0.649,-0.608,0.95,-1.05,-0.26,-0.27,0.24,0.8
2022-01-30 18:58:13.7280,0.004,-0.647,-0.597,0.92,-1.07,-0.42,-0.2,0.15,0.83
2022-01-30 18:58:13.7380,-0.004,-0.645,-0.592,0.94,-1.08,-0.52,-0.14,0.04,0.83
2022-01-30 18:58:13.7490,-0.006,-0.645,-0.592,0.94,-1.1,-0.56,-0.08,-0.08,0.79
2022-01-30 18:58:13.7580,-0.008,-0.656,-0.598,0.89,-1.08,-0.55,-0.02,-0.19,0.73
2022-01-30 18:58:13.7680,-0.008,-0.681,-0.595,0.74,-0.68,-0.58,0.06,-0.23,0.63
2022-01-30 18:58:13.7790,0.003,-0.7,-0.581,0.74,-0.68,-0.58,0.11,-0.19,0.46
2022-01-30 18:58:13.7890,0.02,-0.715,-0.563,0.57,-0.5,-0.74,0.11,-0.19,0.46
2022-01-30 18:58:13.7990,0.042,-0.716,-0.553,0.35,-0.42,-0.89,0.02,0.11,-0.06
2022-01-30 18:58:13.8090,0.071,-0.72,-0.538,0.14,-0.43,-0.98,-0.13,0.39,-0.37
2022-01-30 18:58:13.8190,0.106,-0.746,-0.526,-0.12,-0.3,-1.16,-0.3,0.73,-0.62
2022-01-30 18:58:13.8290,0.141,-0.766,-0.52,-0.59,0.17,-1.37,-0.44,1.16,-0.84
2022-01-30 18:58:13.8390,0.185,-0.77,-0.501,-0.59,0.17,-1.37,-0.44,1.16,-0.84
2022-01-30 18:58:13.8490,0.235,-0.758,-0.497,-1.11,0.16,-1.51,-0.7,2.1,-1.37
2022-01-30 18:58:13.8590,0.284,-0.764,-0.524,-1.11,0.16,-1.51,-0.81,2.44,-1.63
2022-01-30 18:58:13.8690,0.315,-0.797,-0.563,-1.27,0.44,-1.23,-0.87,2.6,-1.79
2022-01-30 18:58:13.8790,0.336,-0.804,-0.632,-1.21,0.81,-0.77,-0.85,2.53,-1.85
2022-01-30 18:58:13.8890,0.353,-0.795,-0.69,-1.12,0.85,-0.04,-0.75,2.35,-1.78
2022-01-30 18:58:13.8990,0.374,-0.826,-0.724,-1.01,0.96,0.37,-0.61,2.05,-1.59
2022-01-30 18:58:13.9090,0.403,-0.864,-0.77,-1.01,1.45,0.78,-0.47,1.66,-1.39
2022-01-30 18:58:13.9190,0.432,-0.876,-0.79,-1.11,1.8,1.18,-0.32,1.27,-1.23
2022-01-30 18:58:13.9290,0.446,-0.873,-0.793,-1.19,1.91,1.31,-0.19,0.94,-1.11
2022-01-30 18:58:13.9390,0.445,-0.85,-0.781,-1.14,1.87,1.31,-0.09,0.72,-1.03
2022-01-30 18:58:13.9490,0.436,-0.814,-0.753,-0.97,1.61,1.13,-0.03,0.62,-0.94
2022-01-30 18:58:13.9590,0.428,-0.786,-0.724,-0.78,1.3,0.86,0.0,0.62,-0.86
2022-01-30 18:58:13.9690,0.423,-0.761,-0.694,-0.62,1.08,0.6,0.04,0.68,-0.78
2022-01-30 18:58:13.9790,0.418,-0.736,-0.659,-0.47,0.85,0.32,0.08,0.79,-0.71
2022-01-30 18:58:13.9890,0.42,-0.718,-0.616,-0.35,0.64,-0.02,0.1,0.91,-0.65
2022-01-30 18:58:13.9990,0.426,-0.71,-0.571,-0.29,0.53,-0.41,0.09,1.01,-0.59
2022-01-30 18:58:14.0100,0.425,-0.701,-0.522,-0.23,0.49,-0.82,0.08,1.12,-0.53
2022-01-30 18:58:14.0190,0.418,-0.684,-0.47,-0.09,0.38,-1.27,0.07,1.2,-0.46
2022-01-30 18:58:14.0290,0.414,-0.663,-0.428,0.08,0.2,-1.71,0.09,1.22,-0.38
2022-01-30 18:58:14.0390,0.413,-0.642,-0.398,0.2,0.01,-2.01,0.12,1.16,-0.28
2022-01-30 18:58:14.0500,0.411,-0.622,-0.373,0.3,-0.19,-2.22,0.13,1.01,-0.15
2022-01-30 18:58:14.0590,0.405,-0.604,-0.35,0.39,-0.39,-2.41,0.12,0.82,0.0
2022-01-30 18:58:14.0700,0.396,-0.596,-0.321,0.52,-0.54,-2.61,0.08,0.6,0.18
2022-01-30 18:58:14.0800,0.392,-0.593,-0.298,0.61,-0.6,-2.87,0.08,0.34,0.36
2022-01-30 18:58:14.0900,0.383,-0.595,-0.295,0.65,-0.63,-3.01,0.01,0.34,0.36
2022-01-30 18:58:14.1000,0.367,-0.599,-0.304,0.72,-0.61,-2.98,-0.2,-0.22,0.64
2022-01-30 18:58:14.1090,0.335,-0.599,-0.327,0.87,-0.6,-2.87,-0.2,-0.22,0.64
2022-01-30 18:58:14.1170,0.288,-0.59,-0.354,1.17,-0.64,-2.66,-0.34,-0.48,0.75
2022-01-30 18:58:14.1270,0.241,-0.571,-0.385,1.55,-0.76,-2.47,-0.6,-0.89,0.94
2022-01-30 18:58:14.1370,0.199,-0.546,-0.431,1.86,-0.99,-2.19,-0.68,-1.1,1.0
2022-01-30 18:58:14.1470,0.155,-0.508,-0.484,2.14,-1.26,-1.78,-0.73,-1.3,1.01
2022-01-30 18:58:14.1570,0.106,-0.455,-0.535,2.44,-1.69,-1.37,-0.74,-1.48,0.96
2022-01-30 18:58:14.1670,0.05,-0.396,-0.59,2.79,-2.23,-0.97,-0.71,-1.63,0.85
2022-01-30 18:58:14.1770,-0.004,-0.333,-0.636,3.19,-2.8,-0.55,-0.68,-1.68,0.66
2022-01-30 18:58:14.1880,-0.044,-0.276,-0.673,3.52,-3.39,-0.24,-0.72,-1.56,0.38
2022-01-30 18:58:14.1970,-0.074,-0.232,-0.686,3.74,-3.87,-0.04,-0.84,-1.2,0.06
2022-01-30 18:58:14.2070,-0.097,-0.212,-0.678,3.94,-4.16,-0.11,-1.05,-0.66,-0.28
2022-01-30 18:58:14.2170,-0.11,-0.192,-0.687,4.12,-4.23,-0.25,-1.33,-0.02,-0.61
2022-01-30 18:58:14.2280,-0.108,-0.167,-0.704,4.24,-4.35,-0.18,-1.62,0.62,-0.91
2022-01-30 18:58:14.2380,-0.1,-0.158,-0.72,4.29,-4.4,-0.11,-1.9,1.15,-1.15
2022-01-30 18:58:14.2470,-0.084,-0.162,-0.769,4.35,-4.25,0.05,-2.12,1.46,-1.37
2022-01-30 18:58:14.2570,-0.056,-0.175,-0.842,4.32,-3.99,0.6,-2.12,1.46,-1.37
2022-01-30 18:58:14.2680,-0.027,-0.213,-0.894,4.23,-3.56,1.23,-2.11,1.48,-1.66
2022-01-30 18:58:14.2780,-0.008,-0.261,-0.911,4.16,-2.89,1.53,-1.85,1.29,-1.67
2022-01-30 18:58:14.2880,-0.011,-0.307,-0.924,4.23,-2.25,1.61,-1.49,0.95,-1.59
2022-01-30 18:58:14.2980,-0.022,-0.368,-0.932,4.44,-1.57,1.7,-1.06,0.48,-1.42
2022-01-30 18:58:14.3080,-0.022,-0.426,-0.92,4.63,-0.81,1.69,-0.6,-0.03,-1.23
2022-01-30 18:58:14.3180,-0.006,-0.471,-0.88,4.62,-0.2,1.44,-0.16,-0.55,-1.05
2022-01-30 18:58:14.3280,0.025,-0.507,-0.84,4.41,0.25,0.97,0.16,-1.06,-0.92
2022-01-30 18:58:14.3380,0.064,-0.551,-0.813,4.02,0.65,0.6,0.35,-1.56,-0.84
2022-01-30 18:58:14.3480,0.115,-0.605,-0.776,3.53,1.13,0.25,0.35,-2.0,-0.86
2022-01-30 18:58:14.3580,0.186,-0.672,-0.74,2.83,1.71,-0.2,0.14,-2.38,-1.01
2022-01-30 18:58:14.3680,0.252,-0.751,-0.722,1.98,2.47,-0.61,-0.28,-2.67,-1.27
2022-01-30 18:58:14.3780,0.294,-0.811,-0.732,1.25,3.29,-0.8,-0.94,-2.82,-1.63
2022-01-30 18:58:14.3880,0.312,-0.847,-0.768,0.78,3.93,-0.77,-0.94,-2.86,-2.02
2022-01-30 18:58:14.3980,0.312,-0.857,-0.856,0.53,4.44,-0.44,-2.62,-2.83,-2.37
2022-01-30 18:58:14.4080,0.308,-0.833,-0.995,0.42,4.72,0.42,-3.31,-2.76,-2.64
2022-01-30 18:58:14.4180,0.318,-0.781,-1.215,0.28,4.76,1.79,-3.53,-2.82,-2.82
2022-01-30 18:58:14.4280,0.355,-0.698,-1.485,-0.09,4.51,4.14,-3.09,-2.82,-2.91
2022-01-30 18:58:14.4380,0.386,-0.634,-1.568,-0.64,4.06,6.1,-2.22,-2.46,-2.82
2022-01-30 18:58:14.4480,0.399,-0.6,-1.595,-1.01,3.85,6.3,-1.36,-1.96,-2.55
2022-01-30 18:58:14.4580,0.421,-0.574,-1.617,-1.26,3.72,6.59,-0.74,-1.46,-2.19
2022-01-30 18:58:14.4680,0.469,-0.581,-1.583,-1.65,3.69,6.52,-0.36,-1.11,-1.86
2022-01-30 18:58:14.4780,0.541,-0.622,-1.539,-2.29,3.98,6.06,-0.09,-1.02,-1.62
2022-01-30 18:58:14.4880,0.609,-0.661,-1.482,-3.1,4.48,5.6,0.19,-1.19,-1.45
2022-01-30 18:58:14.4980,0.645,-0.665,-1.405,-3.75,4.76,4.92,0.44,-1.48,-1.3
2022-01-30 18:58:14.5080,0.647,-0.651,-1.325,-4.09,4.69,4.12,0.63,-1.84,-1.12
2022-01-30 18:58:14.5180,0.632,-0.633,-1.243,-4.19,4.49,3.29,0.75,-2.2,-0.92
2022-01-30 18:58:14.5280,0.614,-0.62,-1.168,-4.21,4.28,2.47,0.82,-2.53,-0.73
2022-01-30 18:58:14.5380,0.601,-0.618,-1.111,-4.27,4.12,1.75,0.85,-2.82,-0.61
2022-01-30 18:58:14.5480,0.589,-0.619,-1.078,-4.42,4.06,1.26,0.8,-3.03,-0.56
2022-01-30 18:58:14.5590,0.572,-0.627,-1.051,-4.58,4.01,0.96,0.71,-3.09,-0.56
2022-01-30 18:58:14.5690,0.54,-0.635,-1.012,-4.64,4.06,0.63,0.59,-2.97,-0.61
2022-01-30 18:58:14.5790,0.502,-0.622,-0.989,-4.55,4.01,0.26,0.47,-2.72,-0.68
2022-01-30 18:58:14.5890,0.475,-0.605,-0.976,-4.45,3.81,0.11,0.37,-2.34,-0.73
2022-01-30 18:58:14.5990,0.463,-0.598,-0.96,-4.44,3.64,-0.04,0.3,-1.9,-0.77
2022-01-30 18:58:14.6090,0.458,-0.59,-0.946,-4.51,3.57,-0.19,0.3,-1.9,-0.77
2022-01-30 18:58:14.6190,0.461,-0.579,-0.922,-4.6,3.42,-0.33,0.34,-0.99,-0.76
2022-01-30 18:58:14.6290,0.471,-0.579,-0.887,-4.74,3.32,-0.61,0.42,-0.57,-0.68
2022-01-30 18:58:14.6390,0.482,-0.578,-0.85,-4.88,3.3,-0.96,0.53,-0.22,-0.53
2022-01-30 18:58:14.6490,0.495,-0.572,-0.838,-5.0,3.21,-1.26,0.67,-0.0,-0.32
2022-01-30 18:58:14.6590,0.509,-0.565,-0.851,-5.12,3.09,-1.22,0.67,-0.0,-0.32
2022-01-30 18:58:14.6690,0.526,-0.559,-0.878,-5.27,2.93,-1.05,1.01,0.05,0.21
2022-01-30 18:58:14.6790,0.527,-0.542,-0.923,-5.41,2.77,-0.68,1.15,-0.13,0.45
2022-01-30 18:58:14.6890,0.502,-0.502,-0.99,-5.33,2.39,-0.13,1.15,-0.4,0.68
2022-01-30 18:58:14.6990,0.463,-0.475,-1.052,-5.11,1.92,0.58,1.0,-0.54,0.87
2022-01-30 18:58:14.7120,0.396,-0.431,-1.085,-4.71,1.56,1.14,0.86,-0.37,1.04
2022-01-30 18:58:14.7220,0.292,-0.358,-1.094,-3.98,0.94,1.33,0.81,0.05,1.19
2022-01-30 18:58:14.7320,0.166,-0.252,-1.132,-2.88,0.03,1.56,0.87,0.63,1.33
2022-01-30 18:58:14.7420,0.058,-0.167,-1.144,-1.62,-1.1,1.91,1.04,1.22,1.47
2022-01-30 18:58:14.7520,-0.005,-0.133,-1.164,-0.67,-1.81,2.02,1.04,1.22,1.47
2022-01-30 18:58:14.7620,-0.044,-0.099,-1.199,-0.06,-2.2,2.34,1.3,1.63,1.58
2022-01-30 18:58:14.7720,-0.054,-0.065,-1.213,0.34,-2.73,2.71,1.65,1.74,1.39
2022-01-30 18:58:14.7820,-0.051,-0.069,-1.169,0.46,-3.07,2.7,1.55,1.7,1.16
2022-01-30 18:58:14.7920,-0.059,-0.081,-1.118,0.58,-3.09,2.2,1.3,1.59,0.93
2022-01-30 18:58:14.8020,-0.074,-0.08,-1.099,0.78,-3.13,1.87,0.99,1.39,0.75
2022-01-30 18:58:14.8120,-0.097,-0.073,-1.103,1.06,-3.26,1.82,0.99,1.39,0.75
2022-01-30 18:58:14.8220,-0.121,-0.054,-1.148,1.35,-3.42,2.01,0.62,0.53,0.66
2022-01-30 18:58:14.8320,-0.152,-0.014,-1.22,1.62,-3.74,2.63,0.66,-0.09,0.71
2022-01-30 18:58:14.8430,-0.182,0.036,-1.268,1.89,-4.25,3.33,0.83,-0.62,0.72
2022-01-30 18:58:14.8520,-0.198,0.074,-1.264,2.05,-4.81,3.65,1.04,-0.86,0.66
2022-01-30 18:58:14.8620,-0.214,0.091,-1.225,2.09,-5.19,3.49,1.14,-0.8,0.55
2022-01-30 18:58:14.8720,-0.225,0.087,-1.175,2.15,-5.38,3.11,1.13,-0.48,0.44
2022-01-30 18:58:14.8820,-0.234,0.066,-1.121,2.17,-5.35,2.63,1.03,-0.03,0.35
2022-01-30 18:58:14.8930,-0.242,0.05,-1.094,2.26,-5.23,2.21,0.95,0.34,0.31
2022-01-30 18:58:14.9030,-0.246,0.037,-1.096,2.33,-5.19,2.13,0.95,0.34,0.31
2022-01-30 18:58:14.9130,-0.257,0.023,-1.09,2.42,-5.13,2.2,0.92,0.56,0.36
2022-01-30 18:58:14.9220,-0.271,0.01,-1.079,2.57,-5.07,2.14,1.05,0.49,0.6
2022-01-30 18:58:14.9330,-0.287,-0.002,-1.076,2.73,-5.05,2.12,1.17,0.21,0.69
2022-01-30 18:58:14.9430,-0.302,-0.019,-1.064,2.86,-5.01,2.15,1.31,-0.12,0.73
2022-01-30 18:58:14.9530,-0.31,-0.036,-1.024,2.94,-4.94,1.99,1.42,-0.45,0.7
2022-01-30 18:58:14.9630,-0.306,-0.047,-0.977,2.89,-4.93,1.62,1.42,-0.45,0.7
2022-01-30 18:58:14.9730,-0.3,-0.064,-0.926,2.574807671606541,-4.83131280362606,0.78,1.41,-0.86,0.52
2022-01-30 18:58:14.9830,-0.289,-0.087,-0.871,2.57,-4.84,0.78,1.41,-0.86,0.52
2022-01-30 18:58:14.9930,-0.28,-0.116,-0.836,2.37,-4.69,0.37,1.01,-0.78,0.2
2022-01-30 18:58:15.0020,-0.282,-0.149,-0.808,2.25,-4.46,0.14,0.72,-0.52,-0.01
2022-01-30 18:58:15.0130,-0.287,-0.196,-0.758,2.26,-4.16,-0.17,0.46,-0.1,-0.23
2022-01-30 18:58:15.0230,-0.28,-0.257,-0.726,2.29,-3.66,-0.63,0.28,0.32,-0.44
2022-01-30 18:58:15.0330,-0.252,-0.317,-0.743,2.21,-3.08,-0.76,0.17,0.56,-0.64
2022-01-30 18:58:15.0430,-0.199,-0.378,-0.802,1.92,-2.51,-0.4,0.11,0.61,-0.83
2022-01-30 18:58:15.0530,-0.136,-0.461,-0.84,1.44,-1.87,0.2,0.06,0.59,-0.98
2022-01-30 18:58:15.0630,-0.077,-0.561,-0.828,0.93,-0.97,0.35,0.02,0.59,-1.06
2022-01-30 18:58:15.0730,-0.035,-0.637,-0.822,0.5,-0.03,0.2,-0.0,0.59,-1.08
2022-01-30 18:58:15.0830,-0.011,-0.682,-0.821,0.28,0.58,0.19,-0.0,0.6,-1.05
2022-01-30 18:58:15.0930,0.009,-0.728,-0.822,0.18,1.0,0.16,0.03,0.57,-0.96
2022-01-30 18:58:15.1030,0.035,-0.77,-0.829,0.07,1.46,0.21,0.03,0.57,-0.96
2022-01-30 18:58:15.1130,0.056,-0.785,-0.842,-0.11,1.78,0.31,0.22,0.39,-0.75
2022-01-30 18:58:15.1230,0.057,-0.791,-0.856,-0.17,1.85,0.47,0.34,0.27,-0.63
2022-01-30 18:58:15.1340,0.037,-0.791,-0.856,0.23,1.79,0.57,0.48,0.16,-0.51
2022-01-30 18:58:15.1440,0.021,-0.783,-0.848,0.23,1.79,0.57,0.66,0.07,-0.41
2022-01-30 18:58:15.1530,0.029,-0.781,-0.828,0.31,1.68,0.49,0.84,-0.01,-0.37
2022-01-30 18:58:15.1630,0.05,-0.781,-0.789,0.2,1.62,0.28,0.96,-0.07,-0.38
2022-01-30 18:58:15.1730,0.077,-0.781,-0.744,-0.02,1.54,-0.09,0.97,-0.08,-0.39
2022-01-30 18:58:15.1840,0.09,-0.776,-0.696,-0.3,1.31,-0.92,0.89,-0.01,-0.38
2022-01-30 18:58:15.1940,0.094,-0.761,-0.643,-0.3,1.31,-0.92,0.89,-0.01,-0.38
2022-01-30 18:58:15.2040,0.093,-0.749,-0.606,-0.28,1.11,-1.36,0.71,0.15,-0.36
2022-01-30 18:58:15.2140,0.091,-0.743,-0.602,-0.22,0.99,-1.58,0.49,0.34,-0.31
2022-01-30 18:58:15.2240,0.083,-0.731,-0.629,-0.13,0.91,-1.47,-0.02,0.63,-0.17
2022-01-30 18:58:15.2340,0.067,-0.714,-0.674,0.05,0.77,-1.12,-0.18,0.69,-0.1
2022-01-30 18:58:15.2440,0.049,-0.695,-0.72,0.27,0.62,-0.68,-0.18,0.69,-0.1
2022-01-30 18:58:15.2530,0.033,-0.661,-0.768,0.5,0.41,-0.21,-0.16,0.68,0.0
2022-01-30 18:58:15.2630,0.029,-0.632,-0.788,0.67,0.06,0.17,-0.03,0.69,0.08
2022-01-30 18:58:15.2740,0.03,-0.615,-0.788,0.73,-0.15,0.28,0.14,0.69,0.2
2022-01-30 18:58:15.2840,0.036,-0.595,-0.779,0.73,-0.34,0.26,0.28,0.67,0.34
2022-01-30 18:58:15.2940,0.048,-0.579,-0.768,0.68,-0.56,0.18,0.37,0.66,0.51
2022-01-30 18:58:15.3040,0.058,-0.567,-0.748,0.59,-0.74,0.08,0.42,0.66,0.7
2022-01-30 18:58:15.3140,0.076,-0.566,-0.729,0.46,-0.84,-0.11,0.46,0.65,0.89
2022-01-30 18:58:15.3240,0.089,-0.559,-0.721,0.27,-0.91,-0.22,0.48,0.59,1.05
2022-01-30 18:58:15.3340,0.087,-0.554,-0.716,0.19,-1.11,-0.26,0.52,0.46,1.19
2022-01-30 18:58:15.3440,0.077,-0.548,-0.706,0.19,-1.11,-0.26,0.58,0.32,1.3
2022-01-30 18:58:15.3540,0.066,-0.531,-0.693,0.22,-1.27,-0.33,0.65,0.16,1.38
2022-01-30 18:58:15.3640,0.056,-0.523,-0.675,0.25,-1.49,-0.42,0.7,0.01,1.43
2022-01-30 18:58:15.3740,0.046,-0.521,-0.652,0.24,-1.58,-0.58,0.72,-0.11,1.44
2022-01-30 18:58:15.3840,0.034,-0.509,-0.627,0.25,-1.69,-0.77,0.72,-0.19,1.4
2022-01-30 18:58:15.3940,0.02,-0.492,-0.603,0.26,-1.9,-0.96,0.71,-0.22,1.32
2022-01-30 18:58:15.4040,0.008,-0.48,-0.576,0.29,-2.11,-1.16,0.68,-0.21,1.21
2022-01-30 18:58:15.4140,-0.003,-0.465,-0.546,0.31,-2.28,-1.38,0.62,-0.13,1.09
2022-01-30 18:58:15.4240,-0.011,-0.448,-0.513,0.32,-2.67,-1.94,0.53,-0.01,0.97
2022-01-30 18:58:15.4350,-0.015,-0.44,-0.486,0.32,-2.67,-1.94,0.41,0.15,0.84
2022-01-30 18:58:15.4440,-0.017,-0.441,-0.465,0.3,-2.73,-2.15,0.27,0.31,0.72
2022-01-30 18:58:15.4540,-0.02,-0.435,-0.45,0.3,-2.74,-2.33,0.13,0.46,0.59
2022-01-30 18:58:15.4640,-0.024,-0.426,-0.449,0.33,-2.84,-2.42,0.03,0.57,0.44
2022-01-30 18:58:15.4740,-0.018,-0.423,-0.46,0.35,-2.91,-2.38,0.03,0.57,0.44
2022-01-30 18:58:15.4850,0.005,-0.432,-0.48,0.25,-2.91,-2.23,-0.11,0.63,0.11
2022-01-30 18:58:15.4940,0.034,-0.462,-0.485,0.02,-2.74,-2.06,-0.17,0.68,-0.0
2022-01-30 18:58:15.5040,0.056,-0.5,-0.471,-0.32,-2.0,-2.27,-0.17,0.68,-0.0
2022-01-30 18:58:15.5140,0.069,-0.533,-0.464,-0.32,-2.0,-2.27,-0.22,0.77,-0.05
2022-01-30 18:58:15.5250,0.076,-0.573,-0.481,-0.37,-1.65,-2.29,-0.38,0.87,-0.0
2022-01-30 18:58:15.5350,0.084,-0.625,-0.516,-0.37,-1.18,-2.06,-0.5,0.77,0.03
2022-01-30 18:58:15.5450,0.09,-0.685,-0.568,-0.4,-0.6,-1.7,-0.5,0.77,0.03
2022-01-30 18:58:15.5550,0.094,-0.742,-0.642,-0.42,0.04,-1.15,-0.68,0.2,0.02
2022-01-30 18:58:15.5650,0.098,-0.797,-0.723,-0.44,0.63,-0.4,-0.69,-0.18,-0.05
2022-01-30 18:58:15.5750,0.115,-0.846,-0.775,-0.53,1.21,0.26,-0.67,-0.49,-0.14
2022-01-30 18:58:15.5850,0.131,-0.884,-0.802,-0.74,1.7,0.61,-0.67,-0.49,-0.14
2022-01-30 18:58:15.5950,0.138,-0.909,-0.823,-0.9,2.09,0.8,-0.65,-0.62,-0.26
2022-01-30 18:58:15.6050,0.126,-0.909,-0.816,-0.94,2.29,0.88,-0.65,-0.34,-0.25
2022-01-30 18:58:15.6150,0.103,-0.91,-0.8,-0.76,2.3,0.69,-0.63,0.11,-0.18
2022-01-30 18:58:15.6250,0.085,-0.912,-0.789,-0.52,2.39,0.5,-0.56,0.63,-0.1
2022-01-30 18:58:15.6350,0.08,-0.911,-0.78,-0.32,2.42,0.38,-0.45,1.07,-0.06
2022-01-30 18:58:15.6450,0.095,-0.933,-0.781,-0.27,2.51,0.27,-0.36,1.32,-0.04
2022-01-30 18:58:15.6550,0.11,-0.967,-0.78,-0.35,2.83,0.33,-0.26,1.42,-0.06
2022-01-30 18:58:15.6650,0.126,-0.991,-0.753,-0.37,3.15,0.18,-0.19,1.38,-0.09
2022-01-30 18:58:15.6750,0.143,-1.018,-0.732,-0.43,3.4,-0.08,-0.19,1.38,-0.09
2022-01-30 18:58:15.6850,0.165,-1.038,-0.711,-0.51,3.67,-0.26,-0.16,0.95,-0.2
2022-01-30 18:58:15.6950,0.188,-1.049,-0.681,-0.66,3.84,-0.51,-0.19,0.69,-0.26
2022-01-30 18:58:15.7050,0.21,-1.047,-0.645,-0.82,3.93,-0.84,-0.26,0.45,-0.31
2022-01-30 18:58:15.7150,0.224,-1.03,-0.611,-0.97,3.89,-1.2,-0.35,0.3,-0.32
2022-01-30 18:58:15.7260,0.221,-0.997,-0.576,-0.99,3.69,-1.55,-0.45,0.26,-0.29
2022-01-30 18:58:15.7350,0.217,-0.958,-0.547,-0.9,3.36,-1.93,-0.54,0.3,-0.21
2022-01-30 18:58:15.7450,0.217,-0.928,-0.541,-0.86,3.05,-2.17,-0.61,0.38,-0.08
2022-01-30 18:58:15.7550,0.208,-0.906,-0.549,-0.8,2.83,-2.18,-0.63,0.46,0.09
2022-01-30 18:58:15.7650,0.203,-0.892,-0.571,-0.68,2.69,-2.1,-0.58,0.48,0.28
2022-01-30 18:58:15.7750,0.197,-0.879,-0.596,-0.62,2.61,-1.87,-0.47,0.42,0.46
2022-01-30 18:58:15.7860,0.19,-0.867,-0.618,-0.55,2.5,-1.68,-0.32,0.26,0.59
2022-01-30 18:58:15.7950,0.179,-0.868,-0.641,-0.49,2.45,-1.46,-0.32,0.26,0.59
2022-01-30 18:58:15.8060,0.167,-0.865,-0.651,-0.42,2.47,-1.28,0.03,-0.21,0.65
2022-01-30 18:58:15.8160,0.16,-0.851,-0.652,-0.37,2.39,-1.22,0.17,-0.42,0.59
2022-01-30 18:58:15.8260,0.159,-0.836,-0.639,-0.39,2.21,-1.25,0.24,-0.55,0.5
2022-01-30 18:58:15.8360,0.169,-0.829,-0.612,-0.49,2.07,-1.44,0.25,-0.57,0.39
2022-01-30 18:58:15.8460,0.186,-0.819,-0.586,-0.68,1.98,-1.7,0.25,-0.57,0.39
2022-01-30 18:58:15.8560,0.214,-0.81,-0.569,-0.95,1.86,-1.94,0.07,-0.38,0.1
2022-01-30 18:58:15.8660,0.247,-0.804,-0.56,-1.27,1.78,-2.06,-0.05,-0.21,-0.05
2022-01-30 18:58:15.8760,0.282,-0.791,-0.56,-1.63,1.72,-2.13,-0.05,-0.21,-0.05
2022-01-30 18:58:15.8860,0.31,-0.771,-0.571,-1.93,1.57,-2.1,-0.19,0.2,-0.23
2022-01-30 18:58:15.8960,0.339,-0.761,-0.582,-2.17,1.42,-1.98,-0.19,0.37,-0.22
2022-01-30 18:58:15.9060,0.367,-0.749,-0.607,-2.42,1.35,-1.86,-0.14,0.44,-0.15
2022-01-30 18:58:15.9160,0.391,-0.73,-0.641,-2.63,1.22,-1.55,-0.03,0.39,-0.03
2022-01-30 18:58:15.9260,0.409,-0.706,-0.676,-2.82,1.0,-1.23,0.11,0.24,0.11
2022-01-30 18:58:15.9360,0.419,-0.688,-0.705,-2.96,0.78,-0.88,0.26,0.02,0.24
2022-01-30 18:58:15.9460,0.425,-0.67,-0.734,-3.06,0.58,-0.59,0.38,-0.24,0.37
2022-01-30 18:58:15.9560,0.426,-0.658,-0.755,-3.14,0.39,-0.3,0.45,-0.46,0.47
2022-01-30 18:58:15.9660,0.428,-0.648,-0.758,-3.21,0.24,-0.14,0.45,-0.46,0.47
2022-01-30 18:58:15.9770,0.435,-0.647,-0.746,-3.32,0.13,-0.14,0.48,-0.56,0.52
2022-01-30 18:58:15.9860,0.447,-0.654,-0.725,-3.48,0.12,-0.28,0.44,-0.3,0.51
2022-01-30 18:58:15.9960,0.46,-0.665,-0.706,-3.66,0.17,-0.47,0.37,0.01,0.46
2022-01-30 18:58:16.0060,0.473,-0.676,-0.692,-3.82,0.25,-0.6,0.28,0.39,0.41
2022-01-30 18:58:16.0160,0.482,-0.684,-0.673,-3.92,0.33,-0.73,0.18,0.79,0.36
2022-01-30 18:58:16.0270,0.498,-0.692,-0.671,-3.97,0.38,-0.88,0.18,0.79,0.36
2022-01-30 18:58:16.0370,0.529,-0.718,-0.679,-4.13,0.51,-0.82,-0.02,1.4,0.31
2022-01-30 18:58:16.0460,0.571,-0.75,-0.677,-4.39,0.81,-0.76,-0.08,1.62,0.29
2022-01-30 18:58:16.0570,0.621,-0.777,-0.68,-4.73,1.11,-0.78,-0.1,1.77,0.24
2022-01-30 18:58:16.0660,0.669,-0.796,-0.691,-5.11,1.36,-0.67,-0.08,1.9,0.18
2022-01-30 18:58:16.0770,0.702,-0.799,-0.672,-5.41,1.5,-0.63,-0.0,2.07,0.14
2022-01-30 18:58:16.0870,0.717,-0.778,-0.638,-5.52,1.44,-0.87,-0.0,2.07,0.14
2022-01-30 18:58:16.0970,0.726,-0.733,-0.591,-5.47,1.13,-1.21,0.22,2.51,0.2
2022-01-30 18:58:16.1060,0.733,-0.686,-0.535,-5.38,0.64,-1.66,0.26,2.75,0.36
2022-01-30 18:58:16.1170,0.741,-0.634,-0.498,-5.27,0.15,-2.11,0.2,2.96,0.58
2022-01-30 18:58:16.1270,0.759,-0.584,-0.478,-5.29,-0.86,-2.41,0.03,3.1,0.81
2022-01-30 18:58:16.1370,0.798,-0.55,-0.477,-5.29,-0.86,-2.41,-0.28,3.11,1.02
2022-01-30 18:58:16.1470,0.84,-0.542,-0.512,-5.55,-1.1,-2.21,-0.7,3.01,1.24
2022-01-30 18:58:16.1570,0.882,-0.55,-0.565,-5.83,-1.07,-1.79,-1.16,2.77,1.47
2022-01-30 18:58:16.1670,0.909,-0.541,-0.677,-6.23,-1.1,0.21,-1.57,2.36,1.72
2022-01-30 18:58:16.1770,0.91,-0.511,-0.849,-6.23,-1.1,0.21,-1.57,2.36,1.72
2022-01-30 18:58:16.1870,0.915,-0.473,-1.027,-6.24,-1.35,1.92,-1.78,1.24,2.25
2022-01-30 18:58:16.1970,0.894,-0.433,-1.171,-6.3,-1.68,3.48,-1.52,0.88,2.55
2022-01-30 18:58:16.2070,0.846,-0.387,-1.266,-6.05,-2.04,4.68,-1.13,0.88,2.86
2022-01-30 18:58:16.2170,0.801,-0.326,-1.3,-5.68,-2.54,5.33,-0.75,1.3,3.17
2022-01-30 18:58:16.2270,0.781,-0.264,-1.308,-5.41,-3.18,5.5,-0.49,1.99,3.47
2022-01-30 18:58:16.2370,0.8,-0.223,-1.316,-5.41,-3.78,5.59,-0.37,2.74,3.71
2022-01-30 18:58:16.2470,0.851,-0.213,-1.329,-5.76,-4.13,5.73,-0.37,3.38,3.9
2022-01-30 18:58:16.2570,0.896,-0.218,-1.325,-6.61,-4.24,5.85,-0.46,3.84,4.05
2022-01-30 18:58:16.2680,0.909,-0.205,-1.321,-6.61,-4.24,5.85,-0.57,4.08,4.17
2022-01-30 18:58:16.2770,0.895,-0.179,-1.322,-6.59,-4.5,5.91,-0.57,4.08,4.17
2022-01-30 18:58:16.2870,0.884,-0.155,-1.323,-6.42,-4.81,5.95,-0.54,3.94,4.32
2022-01-30 18:58:16.2970,0.882,-0.128,-1.336,-6.37,-5.11,6.07,-0.54,3.94,4.32
2022-01-30 18:58:16.3080,0.881,-0.089,-1.32,-6.39,-5.49,6.21,-0.36,3.64,4.35
2022-01-30 18:58:16.3170,0.874,-0.048,-1.266,-6.43,-5.98,5.95,0.01,3.3,4.38
2022-01-30 18:58:16.3280,0.855,-0.0,-1.2,-6.38,-6.48,5.42,0.06,3.43,4.42
2022-01-30 18:58:16.3380,0.844,0.061,-1.128,-6.28,-7.11,4.83,0.06,3.43,4.42
2022-01-30 18:58:16.3480,0.847,0.112,-1.057,-6.27,-7.79,4.19,-0.2,4.47,4.57
2022-01-30 18:58:16.3580,0.862,0.141,-1.011,-6.38,-8.29,3.63,-0.47,5.16,4.68
2022-01-30 18:58:16.3670,0.88,0.161,-1.01,-6.54,-8.57,3.4,-0.47,5.16,4.68
2022-01-30 18:58:16.3780,0.89,0.19,-1.036,-6.67,-8.83,3.58,-1.04,5.96,4.71
2022-01-30 18:58:16.3880,0.884,0.234,-1.083,-6.67,-9.2,3.94,-1.26,5.94,4.56
2022-01-30 18:58:16.3980,0.86,0.285,-1.151,-6.49,-9.67,4.52,-1.43,5.65,4.35
2022-01-30 18:58:16.4080,0.819,0.348,-1.234,-6.16,-10.22,5.28,-1.58,5.22,4.12
2022-01-30 18:58:16.4180,0.766,0.411,-1.301,-5.67,-10.84,6.07,-1.7,4.8,3.95
2022-01-30 18:58:16.4280,0.709,0.474,-1.338,-5.1,-11.42,6.6,-1.7,4.8,3.95
2022-01-30 18:58:16.4380,0.663,0.536,-1.342,-4.56,-12.04,6.81,-1.86,4.65,3.95
2022-01-30 18:58:16.4480,0.624,0.585,-1.332,-4.14,-12.53,6.73,-1.86,4.65,3.95
2022-01-30 18:58:16.4580,0.59,0.644,-1.325,-3.74,-13.03,6.61,-2.07,5.19,4.46
2022-01-30 18:58:16.4680,0.55,0.686,-1.345,-2.97,-13.83,6.84,-2.21,5.32,4.75
2022-01-30 18:58:16.4790,0.505,0.707,-1.382,-2.97,-13.83,6.84,-2.29,5.21,4.97
2022-01-30 18:58:16.4880,0.444,0.717,-1.412,-2.49,-13.96,7.15,-2.26,4.91,5.11
2022-01-30 18:58:16.4980,0.386,0.707,-1.427,-1.9,-13.96,7.35,-2.17,4.47,5.15
2022-01-30 18:58:16.5080,0.352,0.669,-1.43,-1.49,-13.74,7.37,-2.08,3.97,5.14
2022-01-30 18:58:16.5180,0.33,0.589,-1.424,-1.3,-13.19,7.32,-2.08,3.97,5.14
2022-01-30 18:58:16.5280,0.309,0.49,-1.406,-1.24,-12.24,7.14,-1.97,3.08,5.19
2022-01-30 18:58:16.5380,0.266,0.438,-1.381,-1.11,-11.34,6.86,-1.9,2.79,5.21
2022-01-30 18:58:16.5480,0.206,0.441,-1.352,-0.77,-11.02,6.51,-1.79,2.62,5.14
2022-01-30 18:58:16.5580,0.155,0.468,-1.317,-0.36,-11.14,6.14,-1.66,2.61,4.95
2022-01-30 18:58:16.5680,0.129,0.474,-1.271,-0.07,-11.32,5.67,-1.61,2.72,4.65
2022-01-30 18:58:16.5790,0.138,0.432,-1.237,-0.05,-11.17,5.17,-1.66,2.89,4.33
2022-01-30 18:58:16.5880,0.174,0.328,-1.22,-0.34,-10.45,4.83,-1.79,3.05,4.03
2022-01-30 18:58:16.5990,0.207,0.207,-1.211,-0.75,-9.21,4.6,-1.95,3.09,3.83
2022-01-30 18:58:16.6090,0.221,0.111,-1.237,-1.02,-7.98,4.51,-2.05,2.93,3.71
2022-01-30 18:58:16.6190,0.224,0.042,-1.282,-1.13,-7.03,4.81,-2.0,2.59,3.66
2022-01-30 18:58:16.6290,0.216,-0.003,-1.306,-1.16,-6.34,5.07,-2.0,2.59,3.66
2022-01-30 18:58:16.6390,0.199,-0.035,-1.329,-1.11,-5.86,5.21,-1.42,1.66,3.65
2022-01-30 18:58:16.6490,0.175,-0.052,-1.312,-0.88,-5.35,4.89,-1.0,1.24,3.67
2022-01-30 18:58:16.6590,0.149,-0.064,-1.262,-0.88,-5.35,4.89,-0.6,0.93,3.67
2022-01-30 18:58:16.6680,0.126,-0.081,-1.214,-0.77,-5.21,4.37,-0.32,0.75,3.64
2022-01-30 18:58:16.6790,0.102,-0.108,-1.16,-0.71,-4.99,3.85,-0.17,0.7,3.56
2022-01-30 18:58:16.6890,0.077,-0.126,-1.126,-0.62,-4.72,3.37,-0.22,0.74,3.39
2022-01-30 18:58:16.6990,0.057,-0.13,-1.114,-0.53,-4.61,3.11,-0.43,0.85,3.14
2022-01-30 18:58:16.7090,0.037,-0.155,-1.121,-0.46,-4.48,3.04,-0.76,0.99,2.86
2022-01-30 18:58:16.7190,0.017,-0.175,-1.137,-0.34,-4.14,3.1,-1.05,1.19,2.55
2022-01-30 18:58:16.7290,-0.009,-0.165,-1.151,-0.18,-3.96,3.21,-1.05,1.19,2.55
2022-01-30 18:58:16.7390,-0.037,-0.134,-1.159,0.1,-4.05,3.23,-1.32,1.86,1.91
2022-01-30 18:58:16.7490,-0.061,-0.104,-1.181,0.41,-4.27,3.28,-1.35,2.27,1.62
2022-01-30 18:58:16.7590,-0.075,-0.081,-1.2,0.73,-4.42,3.45,-1.35,2.27,1.62
2022-01-30 18:58:16.7690,-0.07,-0.066,-1.193,0.96,-4.51,3.47,-1.35,3.1,1.13
2022-01-30 18:58:16.7800,-0.056,-0.07,-1.174,1.07,-4.5,3.27,-1.44,3.46,0.96
2022-01-30 18:58:16.7890,-0.039,-0.097,-1.165,1.15,-4.24,3.05,-1.56,3.71,0.86
2022-01-30 18:58:16.7990,-0.023,-0.122,-1.171,1.25,-3.82,2.96,-1.65,3.75,0.79
2022-01-30 18:58:16.8090,-0.011,-0.128,-1.202,1.39,-3.5,3.08,-1.65,3.75,0.79
2022-01-30 18:58:16.8190,-0.011,-0.116,-1.228,1.85,-3.41,3.53,-1.51,3.22,0.75
2022-01-30 18:58:16.8300,-0.018,-0.107,-1.226,1.85,-3.41,3.53,-1.51,3.22,0.75
2022-01-30 18:58:16.8390,-0.017,-0.115,-1.197,2.21,-3.16,3.08,-0.99,2.35,0.86
2022-01-30 18:58:16.8490,-0.005,-0.135,-1.168,2.21,-3.16,3.08,-0.72,1.9,0.93
2022-01-30 18:58:16.8590,0.004,-0.169,-1.126,2.2,-2.87,2.79,-0.49,1.55,0.99
2022-01-30 18:58:16.8700,0.007,-0.196,-1.068,2.28,-2.31,1.77,-0.32,1.33,1.02
2022-01-30 18:58:16.8800,0.007,-0.208,-1.02,2.28,-2.31,1.77,-0.2,1.25,0.99
2022-01-30 18:58:16.8890,0.005,-0.228,-0.966,2.36,-2.18,1.33,-0.14,1.34,0.93
2022-01-30 18:58:16.9000,-0.003,-0.243,-0.922,2.45,-1.99,0.82,-0.11,1.51,0.86
2022-01-30 18:58:16.9100,-0.026,-0.239,-0.892,2.69,-1.91,0.51,-0.1,1.74,0.76
2022-01-30 18:58:16.9200,-0.05,-0.22,-0.855,3.05,-2.03,0.23,-0.13,1.95,0.64
2022-01-30 18:58:16.9300,-0.07,-0.207,-0.836,3.41,-2.23,-0.06,-0.2,2.01,0.54
2022-01-30 18:58:16.9390,-0.065,-0.243,-0.842,3.7,-2.23,-0.08,-0.29,1.89,0.5
2022-01-30 18:58:16.9500,-0.017,-0.34,-0.835,3.62,-1.61,0.0,-0.39,1.6,0.5
2022-01-30 18:58:16.9600,0.058,-0.452,-0.814,3.14,-0.53,-0.11,-0.39,1.6,0.5
2022-01-30 18:58:16.9700,0.14,-0.561,-0.812,2.42,0.57,-0.27,-0.67,0.74,0.39
2022-01-30 18:58:16.9800,0.219,-0.666,-0.823,1.66,1.68,-0.2,-0.67,0.74,0.39
2022-01-30 18:58:16.9900,0.279,-0.764,-0.822,0.96,2.76,-0.17,-1.16,-0.02,-0.1
2022-01-30 18:58:17.0000,0.322,-0.853,-0.84,0.06,4.73,0.06,-1.5,-0.23,-0.43
2022-01-30 18:58:17.0100,0.356,-0.9,-0.901,0.06,4.73,0.06,-1.87,-0.31,-0.77
2022-01-30 18:58:17.0200,0.378,-0.889,-0.972,-0.32,5.13,1.27,-2.23,-0.22,-1.01
2022-01-30 18:58:17.0310,0.368,-0.854,-1.044,-0.32,5.13,1.27,-2.52,0.11,-1.03
2022-01-30 18:58:17.0400,0.355,-0.843,-1.122,-0.13,5.08,1.87,-2.64,0.53,-0.76
2022-01-30 18:58:17.0500,0.336,-0.849,-1.263,0.37,5.59,4.21,-2.44,0.86,-0.28
2022-01-30 18:58:17.0610,0.312,-0.853,-1.391,0.37,5.59,4.21,-1.92,1.0,0.28
2022-01-30 18:58:17.0700,0.259,-0.854,-1.498,0.73,5.79,5.28,-1.21,0.84,0.79
2022-01-30 18:58:17.0810,0.172,-0.843,-1.589,1.48,5.82,6.38,-1.21,0.84,0.79
2022-01-30 18:58:17.0900,0.106,-0.831,-1.603,2.3,5.68,6.99,0.26,-0.04,1.2
2022-01-30 18:58:17.1000,0.065,-0.815,-1.569,3.07,5.15,6.43,0.89,-0.53,1.14
2022-01-30 18:58:17.1110,0.04,-0.775,-1.486,3.07,5.15,6.43,1.36,-0.91,0.98
2022-01-30 18:58:17.1290,0.038,-0.731,-1.349,2.94,4.02,3.94,1.63,-1.08,0.81
2022-01-30 18:58:17.1300,0.056,-0.703,-1.186,2.94,4.02,3.94,1.7,-1.01,0.65
2022-01-30 18:58:17.1400,0.079,-0.666,-1.026,2.63,3.55,2.35,1.6,-0.76,0.5
2022-01-30 18:58:17.1500,0.105,-0.638,-0.881,2.32,3.04,0.87,1.38,-0.37,0.36
2022-01-30 18:58:17.1600,0.137,-0.623,-0.76,2.0,2.69,-0.45,1.38,-0.37,0.36
2022-01-30 18:58:17.1710,0.173,-0.629,-0.659,1.68,2.51,-1.5,0.83,0.54,0.07
2022-01-30 18:58:17.1810,0.214,-0.645,-0.575,1.35,2.57,-2.41,0.63,0.9,-0.07
2022-01-30 18:58:17.1900,0.256,-0.644,-0.528,1.03,2.63,-3.04,0.51,1.06,-0.21
2022-01-30 18:58:17.2000,0.307,-0.638,-0.506,0.69,2.54,-3.34,0.51,1.06,-0.21
2022-01-30 18:58:17.2110,0.367,-0.648,-0.497,0.24,2.49,-3.45,0.47,0.71,-0.35
2022-01-30 18:58:17.2210,0.421,-0.67,-0.489,-0.27,2.63,-3.48,0.42,0.31,-0.33
2022-01-30 18:58:17.2310,0.466,-0.702,-0.478,-0.73,2.85,-3.54,0.29,-0.13,-0.25
2022-01-30 18:58:17.2410,0.496,-0.748,-0.477,-1.14,3.21,-3.64,0.29,-0.13,-0.25
2022-01-30 18:58:17.2510,0.503,-0.78,-0.514,-1.41,3.66,-3.52,0.09,-0.54,-0.12
2022-01-30 18:58:17.2610,0.474,-0.775,-0.532,-1.41,3.83,-3.26,-0.35,-0.78,0.21
2022-01-30 18:58:17.2710,0.425,-0.757,-0.602,-1.1,3.75,-2.97,-0.54,-0.62,0.38
2022-01-30 18:58:17.2810,0.37,-0.727,-0.692,-0.66,3.56,-2.23,-0.65,-0.39,0.51
2022-01-30 18:58:17.2910,0.294,-0.682,-0.809,-0.11,3.25,-1.27,-0.63,-0.13,0.6
2022-01-30 18:58:17.3010,0.203,-0.633,-0.914,0.68,2.82,-0.15,-0.63,-0.13,0.6
2022-01-30 18:58:17.3110,0.111,-0.586,-1.001,2.46,1.98,1.58,-0.34,0.37,0.63
2022-01-30 18:58:17.3210,0.03,-0.571,-1.068,2.46,1.98,1.58,-0.17,0.63,0.64
2022-01-30 18:58:17.3310,-0.032,-0.594,-1.123,3.23,1.98,2.19,-0.03,0.88,0.68
2022-01-30 18:58:17.3410,-0.079,-0.64,-1.158,3.82,2.29,2.69,0.1,1.07,0.75
2022-01-30 18:58:17.3510,-0.126,-0.688,-1.204,4.32,2.74,3.09,0.21,1.15,0.82
2022-01-30 18:58:17.3610,-0.184,-0.712,-1.244,4.89,3.1,3.6,0.35,1.16,0.88
2022-01-30 18:58:17.3710,-0.25,-0.721,-1.272,5.55,3.2,3.98,0.35,1.16,0.88
2022-01-30 18:58:17.3810,-0.326,-0.702,-1.308,6.27,3.14,4.34,0.8,0.92,0.9
2022-01-30 18:58:17.3910,-0.42,-0.63,-1.337,7.13,2.67,4.75,1.12,0.7,0.78
2022-01-30 18:58:17.4010,-0.506,-0.553,-1.354,8.09,1.72,5.07,1.45,0.4,0.59
2022-01-30 18:58:17.4120,-0.556,-0.525,-1.364,8.82,1.0,5.27,1.79,0.02,0.35
2022-01-30 18:58:17.4220,-0.579,-0.527,-1.338,9.18,0.69,5.38,2.07,-0.34,0.09
2022-01-30 18:58:17.4320,-0.591,-0.555,-1.294,9.31,0.67,5.03,2.07,-0.34,0.09
2022-01-30 18:58:17.4420,-0.6,-0.548,-1.283,9.36,0.72,4.81,2.45,-1.08,-0.45
2022-01-30 18:58:17.4510,-0.612,-0.533,-1.258,9.4,0.18,4.43,2.53,-1.28,-0.72
2022-01-30 18:58:17.4620,-0.591,-0.555,-1.199,9.4,0.18,4.43,2.46,-1.39,-0.95
2022-01-30 18:58:17.4720,-0.514,-0.609,-1.207,8.93,0.31,4.18,2.46,-1.39,-0.95
2022-01-30 18:58:17.4810,-0.396,-0.712,-1.226,7.93,0.93,4.36,2.26,-1.43,-1.09
2022-01-30 18:58:17.4910,-0.293,-0.766,-1.306,6.72,1.78,4.83,1.96,-1.64,-1.08
2022-01-30 18:58:17.5010,-0.243,-0.708,-1.397,5.8,1.81,5.76,2.09,-1.84,-1.05
2022-01-30 18:58:17.5120,-0.252,-0.579,-1.456,5.47,0.77,6.66,2.33,-2.0,-1.03
2022-01-30 18:58:17.5220,-0.295,-0.426,-1.484,5.63,-0.76,7.13,2.33,-2.0,-1.03
2022-01-30 18:58:17.5320,-0.337,-0.329,-1.553,5.97,-2.34,7.57,2.69,-2.51,-0.97
2022-01-30 18:58:17.5420,-0.368,-0.327,-1.667,6.24,-3.05,8.57,2.69,-2.51,-0.97
2022-01-30 18:58:17.5520,-0.359,-0.321,-1.782,6.24,-3.16,9.8,2.88,-2.95,-0.82
2022-01-30 18:58:17.5620,-0.348,-0.286,-1.878,5.89,-3.54,11.03,3.22,-3.52,-0.67
2022-01-30 18:58:17.5720,-0.356,-0.183,-1.933,5.59,-4.31,11.98,4.18,-4.76,-0.49
2022-01-30 18:58:17.5820,-0.36,-0.019,-1.911,5.42,-5.88,12.49,4.18,-4.76,-0.49
2022-01-30 18:58:17.5920,-0.338,0.135,-1.829,5.07,-7.81,12.19,4.5,-5.36,-0.6
