time,gFx,gFy,gFz,ax,ay,az,wx,wy,wz
2022-02-06 21:37:09.3770,0.263,-0.46,-0.764,-0.92,0.94,-1.54,-0.85,-0.15,0.23
2022-02-06 21:37:12.9000,0.252,-0.454,-0.823,-0.71,1.09,-1.11,-0.87,-0.23,0.28
2022-02-06 21:37:12.9090,0.275,-0.423,-0.865,-0.97,0.84,-0.67,-0.75,-0.36,0.25
2022-02-06 21:37:12.9200,0.262,-0.41,-0.894,-0.87,0.63,-0.49,-0.52,-0.5,0.21
2022-02-06 21:37:12.9310,0.25,-0.394,-0.869,-0.87,0.63,-0.49,-0.24,-0.53,0.18
2022-02-06 21:37:12.9400,0.248,-0.379,-0.839,-0.91,0.39,-0.84,0.03,-0.49,0.17
2022-02-06 21:37:12.9510,0.244,-0.374,-0.852,-0.91,0.39,-0.84,0.21,-0.44,0.19
2022-02-06 21:37:12.9600,0.243,-0.387,-0.88,-0.98,0.64,-0.4,0.31,-0.4,0.24
2022-02-06 21:37:12.9710,0.243,-0.411,-0.891,-0.99,0.76,-0.45,0.34,-0.34,0.3
2022-02-06 21:37:12.9810,0.239,-0.422,-0.878,-0.99,0.76,-0.45,0.33,-0.27,0.35
2022-02-06 21:37:12.9900,0.228,-0.417,-0.842,-0.94,0.72,-0.74,0.28,-0.14,0.36
2022-02-06 21:37:13.0010,0.211,-0.409,-0.826,-0.8,0.6,-1.02,0.21,-0.08,0.36
2022-02-06 21:37:13.0110,0.213,-0.416,-0.853,-0.77,0.6,-0.78,0.21,-0.08,0.36
2022-02-06 21:37:13.0210,0.22,-0.431,-0.859,-0.88,0.74,-0.68,0.14,-0.05,0.35
2022-02-06 21:37:13.0310,0.212,-0.432,-0.884,-0.8,0.78,-0.26,0.07,-0.11,0.31
2022-02-06 21:37:13.0410,0.205,-0.435,-0.901,-0.8,0.78,-0.26,0.05,-0.11,0.27
2022-02-06 21:37:13.0510,0.191,-0.441,-0.889,-0.7,0.83,-0.33,0.05,-0.06,0.23
2022-02-06 21:37:13.0600,0.178,-0.438,-0.888,-0.57,0.82,-0.41,0.07,-0.02,0.19
2022-02-06 21:37:13.0710,0.178,-0.438,-0.894,-0.56,0.85,-0.36,0.07,-0.02,0.19
2022-02-06 21:37:13.0810,0.178,-0.447,-0.889,-0.52,0.88,-0.34,0.15,0.05,0.15
2022-02-06 21:37:13.0910,0.174,-0.449,-0.892,-0.52,0.88,-0.34,0.17,0.07,0.13
2022-02-06 21:37:13.1020,0.173,-0.451,-0.893,-0.5,0.88,-0.32,0.15,0.07,0.1
2022-02-06 21:37:13.1110,0.173,-0.455,-0.897,-0.47,0.97,-0.3,0.09,0.07,0.06
2022-02-06 21:37:13.1210,0.171,-0.464,-0.892,-0.47,1.06,-0.41,0.02,0.11,0.02
2022-02-06 21:37:13.1310,0.173,-0.472,-0.881,-0.48,1.09,-0.38,-0.05,0.14,-0.02
2022-02-06 21:37:13.1410,0.175,-0.473,-0.89,-0.47,1.08,-0.26,-0.1,0.16,-0.07
2022-02-06 21:37:13.1510,0.174,-0.469,-0.9,-0.47,1.08,-0.26,-0.1,0.16,-0.07
2022-02-06 21:37:13.1610,0.167,-0.461,-0.922,-0.37,0.94,0.22,-0.16,0.04,-0.22
2022-02-06 21:37:13.1710,0.17,-0.453,-0.948,-0.37,0.95,0.03,-0.13,-0.01,-0.3
2022-02-06 21:37:13.1810,0.169,-0.457,-0.918,-0.31,1.07,-0.29,-0.07,0.04,-0.33
2022-02-06 21:37:13.1910,0.166,-0.468,-0.892,-0.31,1.07,-0.29,-0.01,0.12,-0.33
2022-02-06 21:37:13.2010,0.178,-0.469,-0.895,-0.35,1.09,-0.31,0.06,0.15,-0.33
2022-02-06 21:37:13.2110,0.194,-0.468,-0.907,-0.49,1.06,-0.18,0.06,0.15,-0.33
2022-02-06 21:37:13.2210,0.198,-0.472,-0.894,-0.52,1.01,-0.4,0.21,0.2,-0.28
2022-02-06 21:37:13.2310,0.2,-0.464,-0.878,-0.53,0.84,-0.33,0.3,0.19,-0.28
2022-02-06 21:37:13.2410,0.205,-0.45,-0.889,-0.52,0.75,-0.22,0.37,0.16,-0.29
2022-02-06 21:37:13.2520,0.203,-0.446,-0.895,-0.52,0.75,-0.22,0.43,0.12,-0.29
2022-02-06 21:37:13.2610,0.188,-0.442,-0.889,-0.38,0.69,-0.24,0.44,0.09,-0.3
2022-02-06 21:37:13.2720,0.17,-0.428,-0.888,-0.18,0.54,-0.04683151960372925,0.4,0.02,-0.34
2022-02-06 21:37:13.2820,0.164,-0.418,-0.917,-0.06,0.34,0.22,0.36,-0.1,-0.41
2022-02-06 21:37:13.2920,0.161,-0.416,-0.934,0.08,0.29,0.21,0.35,-0.17,-0.44
2022-02-06 21:37:13.3020,0.144,-0.412,-0.931,0.08,0.29,0.21,0.37,-0.19,-0.44
2022-02-06 21:37:13.3120,0.137,-0.407,-0.926,0.03,0.23,0.03,0.44,-0.11,-0.41
2022-02-06 21:37:13.3220,0.168,-0.42,-0.901,-0.43,0.5,-0.48,0.55,0.16,-0.38
2022-02-06 21:37:13.3320,0.214,-0.454,-0.838,-0.43,0.5,-0.48,0.64,0.56,-0.33
2022-02-06 21:37:13.3420,0.205,-0.453,-0.81,-0.4,0.57,-0.92,0.65,0.79,-0.3
2022-02-06 21:37:13.3520,0.191,-0.421,-0.868,-0.13,0.23,-0.47,0.65,0.79,-0.3
2022-02-06 21:37:13.3620,0.196,-0.4,-0.961,-0.09,-0.17,1.41,0.4,0.44,-0.44
2022-02-06 21:37:13.3710,0.2,-0.392,-1.057,-0.09,-0.17,1.41,0.21,0.06,-0.54
2022-02-06 21:37:13.3810,0.187,-0.381,-1.092,-0.01,-0.25,1.96,0.07,-0.18,-0.58
2022-02-06 21:37:13.4000,0.14,-0.357,-1.057,0.85,-0.68,1.25,0.03,-0.2,-0.54
2022-02-06 21:37:13.4020,0.099,-0.337,-1.009,0.85,-0.68,1.25,0.03,-0.2,-0.54
2022-02-06 21:37:13.4200,0.088,-0.342,-0.971,1.08,-0.6,0.66,0.08,-0.06,-0.42
2022-02-06 21:37:13.4250,0.087,-0.353,-0.955,1.08,-0.53,0.6,0.35,0.26,-0.19
2022-02-06 21:37:13.4300,0.092,-0.364,-0.947,1.08,-0.53,0.6,0.5,0.33,-0.15
2022-02-06 21:37:13.4410,0.096,-0.38,-0.944,1.07,-0.43,0.57,0.5,0.33,-0.16869421303272247
2022-02-06 21:37:13.4520,0.097,-0.395,-0.945,1.12,-0.26,0.53,0.71,0.29,-0.25
2022-02-06 21:37:13.4630,0.097,-0.406,-0.925,1.12,-0.26,0.53,0.79,0.31,-0.37
2022-02-06 21:37:13.4720,0.097,-0.406,-0.896,1.17,-0.3,0.29,0.83,0.35,-0.51
2022-02-06 21:37:13.4820,0.103,-0.402,-0.864,1.19,-0.39,0.03,0.85,0.44,-0.61
2022-02-06 21:37:13.4920,0.12,-0.399,-0.83,1.12,-0.48,-0.27,0.85,0.44,-0.61
2022-02-06 21:37:13.5020,0.144,-0.401,-0.826,0.96,-0.53,-0.36,0.77,0.49,-0.68
2022-02-06 21:37:13.5130,0.161,-0.412,-0.858,0.74,-0.41,0.34,0.66,0.34,-0.62
2022-02-06 21:37:13.5300,0.175,-0.421,-0.897,0.62,-0.39,0.73,0.66,0.34,-0.62
2022-02-06 21:37:13.5340,0.19,-0.425,-0.93,0.4661333075165749,-0.37855634272098543,0.79,0.36,-0.23,-0.44
2022-02-06 21:37:13.5410,0.204,-0.427,-0.927,0.44,-0.38,0.6,0.24,-0.43,-0.35
2022-02-06 21:37:13.5520,0.197,-0.428,-0.907,0.44,-0.38,0.6,0.14,-0.53,-0.26
2022-02-06 21:37:13.5620,0.175,-0.424,-0.894,0.61,-0.41,0.46,0.08,-0.51,-0.21
2022-02-06 21:37:13.5720,0.154,-0.419,-0.882,0.91,-0.44,0.21,0.08,-0.51,-0.21
2022-02-06 21:37:13.5820,0.143,-0.423,-0.871,0.91,-0.44,0.21,0.03,-0.25,-0.16
2022-02-06 21:37:13.5920,0.144,-0.43,-0.852,0.91,-0.37,0.03,0.03,-0.25,-0.16
2022-02-06 21:37:13.6020,0.145,-0.43,-0.843,0.89,-0.37,-0.12,0.08,0.08,-0.12
2022-02-06 21:37:13.6110,0.149,-0.43,-0.841,0.89,-0.37,-0.12,0.08,0.08,-0.12
2022-02-06 21:37:13.6210,0.164,-0.435,-0.851,0.6,-0.27,0.09,0.2,0.13,-0.05
2022-02-06 21:37:13.6310,0.184,-0.445,-0.859,0.46,-0.21,0.02,0.27,0.07,0.0
Time,0.196,-0.454,-0.845,0.4,-0.15,-0.22,0.36,0.02,0.06
2022-02-06 21:37:13.6510,0.2,-0.463,-0.818,0.36,-0.1,-0.4,0.43,0.0,0.11
2022-02-06 21:37:13.6620,0.205,-0.474,-0.801,0.36,-0.1,-0.4,0.5,-0.03,0.16
2022-02-06 21:37:13.6730,0.212,-0.496,-0.796,0.28,0.05,-0.45,0.55,-0.08,0.19
2022-02-06 21:37:13.6830,0.213,-0.516,-0.798,0.23,0.22,-0.41,0.58,-0.14,0.21
2022-02-06 21:37:13.6930,0.214,-0.533,-0.795,0.2,0.33,-0.4,0.6,-0.19,0.22
2022-02-06 21:37:13.7020,0.208,-0.546,-0.79,0.25,0.46,-0.47,0.59,-0.23,0.21
2022-02-06 21:37:13.7130,0.203,-0.555,-0.782,0.25,0.46,-0.47,0.55,-0.22,0.18
2022-02-06 21:37:13.7230,0.204,-0.559,-0.776,0.22,0.47,-0.52,0.49,-0.2,0.13
2022-02-06 21:37:13.7330,0.21,-0.562,-0.77,0.15,0.46,-0.57,0.41,-0.19,0.1
2022-02-06 21:37:13.7430,0.219,-0.56,-0.778,-0.07,0.37,-0.36,0.31,-0.19,0.09
2022-02-06 21:37:13.7530,0.228,-0.559,-0.793,-0.07,0.37,-0.36,0.31,-0.19,0.09
2022-02-06 21:37:13.7630,0.227,-0.556,-0.801,-0.11,0.35,-0.27,0.21,-0.2,0.11
2022-02-06 21:37:13.7730,0.218,-0.551,-0.814,0.02,0.19,-0.02,0.08,-0.23,0.23
2022-02-06 21:37:13.7840,0.204,-0.539,-0.826,0.18,0.04,0.1,0.05,-0.23,0.3
2022-02-06 21:37:13.7930,0.182,-0.526,-0.84,0.18,0.04,0.1,0.04,-0.2,0.36
2022-02-06 21:37:13.8030,0.157,-0.515,-0.848,0.55,-0.22,0.21,0.05,-0.11,0.41
2022-02-06 21:37:13.8130,0.142,-0.501,-0.848,0.6,-0.37,0.21,0.09,-0.0,0.45
2022-02-06 21:37:13.8230,0.138,-0.49,-0.844,0.53,-0.39,0.02,0.17,0.14,0.49
2022-02-06 21:37:13.8340,0.148,-0.493,-0.82,0.39,-0.39,-0.12,0.26,0.29,0.56
2022-02-06 21:37:13.8430,0.16,-0.495,-0.809,0.39,-0.39,-0.12,0.34,0.37,0.63
2022-02-06 21:37:13.8530,0.173,-0.493,-0.82,0.27,-0.45,-0.04,0.4,0.35,0.68
2022-02-06 21:37:13.8630,0.183,-0.493,-0.845,0.14,-0.51,0.22,0.44,0.26,0.7
2022-02-06 21:37:13.8730,0.192,-0.503,-0.872,-0.08,-0.46,0.84,0.45,0.1,0.68
2022-02-06 21:37:13.8840,0.199,-0.506,-0.906,-0.08,-0.46,0.84,0.45,-0.12,0.64
2022-02-06 21:37:13.8930,0.198,-0.501,-0.939,-0.14,-0.55,1.2,0.44,-0.38,0.6
2022-02-06 21:37:13.9030,0.199,-0.49,-0.96,-0.28,-0.86,1.63,0.43,-0.62,0.55
2022-02-06 21:37:13.9140,0.194,-0.477,-0.977,-0.28,-0.86,1.63,0.43,-0.83,0.55
2022-02-06 21:37:13.9230,0.172,-0.465,-0.981,0.0,-1.21,1.67,0.44,-0.94,0.6
2022-02-06 21:37:13.9340,0.139,-0.448,-0.974,0.0,-1.21,1.67,0.46,-0.95,0.65
2022-02-06 21:37:13.9440,0.107,-0.431,-0.974,0.35,-1.62,1.67,0.47,-0.85,0.69
2022-02-06 21:37:13.9540,0.085,-0.417,-0.972,0.41,-1.75,1.69,0.49,-0.69,0.73
2022-02-06 21:37:13.9640,0.072,-0.409,-0.973,0.41,-1.75,1.69,0.5,-0.53,0.75
2022-02-06 21:37:13.9740,0.063,-0.397,-0.993,0.42,-1.9,1.84,0.49,-0.47,0.74
2022-02-06 21:37:13.9840,0.057,-0.381,-1.025,0.4,-2.1,2.18,0.49,-0.47,0.71
2022-02-06 21:37:13.9940,0.048,-0.37,-1.038,0.43,-2.4,2.35,0.5,-0.46,0.68
2022-02-06 21:37:14.0040,0.037,-0.361,-1.025,0.43,-2.4,2.35,0.52,-0.4,0.65
2022-02-06 21:37:14.0140,0.029,-0.353,-0.998,0.46,-2.52,2.14,0.55,-0.25,0.62
2022-02-06 21:37:14.0230,0.03,-0.345,-0.964,0.31,-2.73,1.6,0.58,-0.05,0.59
2022-02-06 21:37:14.0340,0.04,-0.345,-0.941,0.31,-2.73,1.6,0.6,0.13,0.59
2022-02-06 21:37:14.0440,0.057,-0.356,-0.944,0.13,-2.69,1.61,0.59,0.22,0.6
2022-02-06 21:37:14.0540,0.071,-0.37,-0.956,-0.13,-2.55,1.9,0.58,0.24,0.62
2022-02-06 21:37:14.0640,0.075,-0.378,-0.964,-0.13,-2.55,1.9,0.55,0.21,0.61
2022-02-06 21:37:14.0730,0.073,-0.386,-0.968,-0.15,-2.52,1.98,0.54,0.14,0.57
2022-02-06 21:37:14.0840,0.06,-0.389,-0.971,-0.08,-2.52,2.04,0.53,0.04,0.48
2022-02-06 21:37:14.0940,0.036,-0.382,-0.973,0.11,-2.61,2.09,0.52,-0.06,0.35
2022-02-06 21:37:14.1040,0.008,-0.374,-0.969,0.35,-2.73,2.11,0.5,-0.15,0.18
2022-02-06 21:37:14.1140,-0.022,-0.373,-0.961,0.87,-2.81,2.04,0.44,-0.2,-0.01
2022-02-06 21:37:14.1250,-0.047,-0.374,-0.957,1.08,-2.85,1.98,0.36,-0.22,-0.21
2022-02-06 21:37:14.1340,-0.066,-0.37,-0.947,1.08,-2.85,1.98,0.25,-0.16,-0.38
2022-02-06 21:37:14.1440,-0.077,-0.358,-0.93,1.23,-2.97,1.84,0.15,-0.01,-0.52
2022-02-06 21:37:14.1540,-0.074,-0.352,-0.901,1.28,-3.06,1.6,0.06,0.22,-0.59
2022-02-06 21:37:14.1640,-0.061,-0.36,-0.871,1.07,-2.89,1.14,-0.0,0.46,-0.6
2022-02-06 21:37:14.1750,-0.033,-0.371,-0.859,1.07,-2.89,1.14,-0.0,0.46,-0.6
2022-02-06 21:37:14.1850,-0.001,-0.381,-0.845,0.84,-2.78,1.01,-0.11,0.79,-0.54
2022-02-06 21:37:14.1950,0.02,-0.397,-0.828,0.7,-2.64,0.83,-0.18,0.87,-0.51
2022-02-06 21:37:14.2050,0.035,-0.422,-0.818,0.64,-2.38,0.71,-0.26,0.89,-0.5
2022-02-06 21:37:14.2140,0.049,-0.445,-0.81,0.55,-1.92,0.59,-0.34,0.86,-0.53
2022-02-06 21:37:14.2240,0.063,-0.459,-0.813,0.55,-1.92,0.59,-0.42,0.73,-0.59
2022-02-06 21:37:14.2350,0.064,-0.466,-0.832,0.7,-1.72,0.89,-0.5,0.53,-0.66
2022-02-06 21:37:14.2440,0.06,-0.468,-0.851,0.81,-1.64,1.0,-0.56,0.28,-0.73
2022-02-06 21:37:14.2540,0.057,-0.472,-0.861,0.81,-1.43,0.91,-0.6,0.08,-0.79
2022-02-06 21:37:14.2650,0.066,-0.492,-0.851,0.81,-1.43,0.91,-0.59,-0.01,-0.83
2022-02-06 21:37:14.2740,0.076,-0.52,-0.829,0.83,-0.81,0.49,-0.55,0.01,-0.84
2022-02-06 21:37:14.2850,0.066,-0.541,-0.822,0.83,-0.81,0.49,-0.55,0.01,-0.84
2022-02-06 21:37:14.2950,0.041,-0.544,-0.845,1.11,-0.69,0.64,-0.51,0.02,-0.81
2022-02-06 21:37:14.3050,0.03,-0.546,-0.861,1.32,-0.63,0.81,-0.5,0.03,-0.83
2022-02-06 21:37:14.3150,0.032,-0.558,-0.86,1.37,-0.49,0.81,-0.5,0.03,-0.83
2022-02-06 21:37:14.3260,0.04,-0.576,-0.845,1.37,-0.27,0.67,-0.49,0.2,-0.91
2022-02-06 21:37:14.3350,0.055,-0.598,-0.811,1.31,0.0,0.35,-0.47,0.37,-0.91
2022-02-06 21:37:14.3450,0.068,-0.617,-0.779,1.2,0.43,-0.24,-0.43,0.53,-0.86
2022-02-06 21:37:14.3550,0.085,-0.629,-0.76,1.2,0.43,-0.24,-0.37,0.63,-0.77
2022-02-06 21:37:14.3650,0.111,-0.637,-0.751,1.05,0.56,-0.36,-0.32,0.65,-0.69
2022-02-06 21:37:14.3750,0.142,-0.647,-0.753,0.85,0.68,-0.38,-0.28,0.59,-0.61
2022-02-06 21:37:14.3850,0.171,-0.665,-0.774,0.47,1.11,0.02,-0.25,0.44,-0.53
2022-02-06 21:37:14.3960,0.191,-0.685,-0.797,0.47,1.11,0.02,-0.2,0.26,-0.45
2022-02-06 21:37:14.4050,0.206,-0.694,-0.811,0.32,1.26,0.25,-0.13,0.06,-0.37
2022-02-06 21:37:14.4150,0.206,-0.691,-0.816,0.38,1.16,0.17,-0.02,-0.08,-0.3
2022-02-06 21:37:14.4250,0.199,-0.676,-0.806,0.38,1.16,0.17,0.11,-0.2,-0.25
2022-02-06 21:37:14.4350,0.191,-0.65,-0.806,0.47,0.91,0.11,0.25,-0.32,-0.21
2022-02-06 21:37:14.4460,0.189,-0.628,-0.821,0.47,0.66,0.27,0.25,-0.32,-0.21
2022-02-06 21:37:14.4550,0.19,-0.616,-0.813,0.44,0.49,0.27,0.57,-0.54,-0.07
2022-02-06 21:37:14.4650,0.19,-0.604,-0.8,0.39,0.33,0.15,0.73,-0.61,0.02
2022-02-06 21:37:14.4750,0.193,-0.594,-0.789,0.32,0.16,0.08,0.88,-0.63,0.12
2022-02-06 21:37:14.4850,0.197,-0.591,-0.775,0.14,-0.02,-0.02,1.01,-0.61,0.25
2022-02-06 21:37:14.4960,0.199,-0.594,-0.775,0.14,-0.02,-0.02,1.11,-0.59,0.37
2022-02-06 21:37:14.5050,0.209,-0.598,-0.789,-0.19,-0.17,0.3,1.17,-0.57,0.46
2022-02-06 21:37:14.5150,0.219,-0.597,-0.796,-0.32,-0.29,0.39,1.19,-0.54,0.53
2022-02-06 21:37:14.5250,0.223,-0.596,-0.796,-0.32,-0.29,0.39,1.17,-0.51,0.59
2022-02-06 21:37:14.5360,0.216,-0.596,-0.783,-0.35,-0.38,0.35,1.12,-0.46,0.64
2022-02-06 21:37:14.5460,0.202,-0.592,-0.771,-0.22,-0.59,0.24,1.06,-0.39,0.67
2022-02-06 21:37:14.5560,0.187,-0.594,-0.761,-0.22,-0.59,0.24,0.98,-0.31,0.69
2022-02-06 21:37:14.5660,0.178,-0.601,-0.753,-0.18,-0.6,0.2,0.91,-0.23,0.7
2022-02-06 21:37:14.5750,0.169,-0.606,-0.755,-0.16,-0.62,0.25,0.83,-0.18,0.68
2022-02-06 21:37:14.5860,0.161,-0.606,-0.758,-0.12,-0.76,0.38,0.74,-0.15,0.63
2022-02-06 21:37:14.5960,0.155,-0.602,-0.756,-0.12,-0.76,0.38,0.64,-0.13,0.56
2022-02-06 21:37:14.6060,0.141,-0.598,-0.758,-0.05,-0.86,0.41,0.55,-0.13,0.48
2022-02-06 21:37:14.6160,0.126,-0.593,-0.757,0.06,-0.94,0.47,0.48,-0.1,0.41
2022-02-06 21:37:14.6260,0.112,-0.58,-0.739,0.28,-1.3,0.21,0.44,-0.05,0.35
2022-02-06 21:37:14.6360,0.098,-0.56,-0.725,0.28,-1.3,0.21,0.42,-0.01,0.31
2022-02-06 21:37:14.6460,0.086,-0.549,-0.72,0.39,-1.47,0.18,0.41,0.0,0.3
2022-02-06 21:37:14.6550,0.079,-0.547,-0.713,0.44,-1.54,0.14,0.41,-0.0,0.31
2022-02-06 21:37:14.6660,0.074,-0.54,-0.708,0.47,-1.61,0.11,0.41,-0.03,0.31
2022-02-06 21:37:14.6760,0.064,-0.531,-0.707,0.53,-1.73,0.12,0.41,-0.09,0.31
Time,0.053,-0.528,-0.711,0.7,-1.83,0.24,0.39,-0.16,0.3
2022-02-06 21:37:14.6940,0.038,-0.53,-0.713,0.84,-1.88,0.14,0.37,-0.22,0.29
2022-02-06 21:37:14.7060,0.021,-0.525,-0.696,0.97,-1.98,-0.04,0.34,-0.24,0.27
2022-02-06 21:37:14.7150,0.003,-0.518,-0.678,0.97,-1.98,-0.04,0.29,-0.25,0.25
2022-02-06 21:37:14.7260,-0.016,-0.513,-0.668,1.11,-2.05,-0.13,0.22,-0.27,0.25
2022-02-06 21:37:14.7360,-0.036,-0.513,-0.655,1.41,-2.08,-0.47,0.14,-0.24,0.24
2022-02-06 21:37:14.7460,-0.051,-0.512,-0.628,1.51,-2.12,-0.68,0.05,-0.18,0.25
2022-02-06 21:37:14.7560,-0.063,-0.51,-0.61,1.51,-2.12,-0.68,-0.05,-0.11,0.26
2022-02-06 21:37:14.7660,-0.069,-0.516,-0.599,1.56,-2.08,-0.81,-0.17,-0.06,0.27
2022-02-06 21:37:14.7760,-0.071,-0.523,-0.597,1.56,-1.99,-0.87,-0.17,-0.06,0.27
2022-02-06 21:37:14.7870,-0.075,-0.528,-0.605,1.65,-1.83,-0.81,-0.45,-0.02,0.31
2022-02-06 21:37:14.7970,-0.09,-0.534,-0.608,1.65,-1.83,-0.81,-0.58,0.0,0.34
2022-02-06 21:37:14.8060,-0.109,-0.544,-0.593,1.82,-1.7,-0.95,-0.68,0.11,0.39
2022-02-06 21:37:14.8160,-0.126,-0.55,-0.557,1.97,-1.57,-1.32,-0.74,0.29,0.46
2022-02-06 21:37:14.8260,-0.146,-0.551,-0.534,2.37,-1.43,-1.75,-0.8,0.49,0.53
2022-02-06 21:37:14.8370,-0.168,-0.556,-0.538,2.59,-1.24,-1.39,-0.84,0.6,0.61
2022-02-06 21:37:14.8470,-0.193,-0.571,-0.59,2.59,-1.24,-1.39,-0.87,0.59,0.72
2022-02-06 21:37:14.8560,-0.219,-0.588,-0.623,2.85,-1.02,-1.03,-0.88,0.54,0.82
2022-02-06 21:37:14.8670,-0.227,-0.617,-0.637,2.96,-0.72,-0.94,-0.87,0.49,0.91
2022-02-06 21:37:14.8770,-0.218,-0.655,-0.665,2.75,0.05,-0.4,-0.83,0.42,0.96
2022-02-06 21:37:14.8870,-0.211,-0.681,-0.709,2.64,0.24,-0.17,-0.79,0.33,0.96
2022-02-06 21:37:14.8970,-0.204,-0.692,-0.73,2.64,0.24,-0.17,-0.73,0.23,0.9
2022-02-06 21:37:14.9060,-0.198,-0.703,-0.757,2.54,0.39,-0.02,-0.68,0.05,0.82
2022-02-06 21:37:14.9170,-0.183,-0.716,-0.823,2.14,0.72,1.2,-0.61,-0.27,0.72
2022-02-06 21:37:14.9270,-0.169,-0.728,-0.899,2.14,0.72,1.2,-0.52,-0.7,0.62
2022-02-06 21:37:14.9370,-0.156,-0.74,-0.981,1.9,0.87,1.94,-0.43,-1.23,0.53
2022-02-06 21:37:14.9470,-0.148,-0.753,-1.065,1.67,1.03,2.75,-0.43,-1.23,0.53
2022-02-06 21:37:14.9570,-0.141,-0.772,-1.123,1.42,1.22,3.38,-0.26,-2.36,0.44
2022-02-06 21:37:14.9670,-0.149,-0.791,-1.14,1.23,1.44,3.65,-0.13,-2.74,0.42
2022-02-06 21:37:14.9770,-0.17,-0.792,-1.117,1.19,1.33,3.14,0.06,-2.91,0.36
2022-02-06 21:37:14.9880,-0.197,-0.769,-1.071,1.24,1.01,2.55,0.06,-2.91,0.36
2022-02-06 21:37:14.9980,-0.223,-0.74,-1.005,1.19,0.82,1.96,0.42,-2.59,0.23
2022-02-06 21:37:15.0070,-0.234,-0.73,-0.941,1.19,0.82,1.96,0.48,-2.25,0.21
2022-02-06 21:37:15.0170,-0.229,-0.744,-0.894,1.0,0.88,1.5,0.43,-1.94,0.22
2022-02-06 21:37:15.0270,-0.21,-0.768,-0.873,0.31,1.33,1.19,0.29,-1.71,0.24
2022-02-06 21:37:15.0380,-0.183,-0.794,-0.86,0.31,1.33,1.19,0.1,-1.54,0.23
2022-02-06 21:37:15.0470,-0.165,-0.813,-0.846,-0.22,1.7,0.98,-0.12,-1.42,0.18
2022-02-06 21:37:15.0570,-0.16,-0.828,-0.838,-0.31,1.87,1.0,-0.29,-1.33,0.09
2022-02-06 21:37:15.0670,-0.161,-0.842,-0.841,-0.4,1.99,1.05,-0.4,-1.27,-0.05
2022-02-06 21:37:15.0770,-0.16,-0.846,-0.847,-0.4,1.99,1.05,-0.43,-1.24,-0.21
2022-02-06 21:37:15.0880,-0.16,-0.834,-0.852,-0.59,1.81,1.11,-0.41,-1.24,-0.38
2022-02-06 21:37:15.0980,-0.154,-0.821,-0.853,-0.59,1.81,1.11,-0.36,-1.27,-0.52
2022-02-06 21:37:15.1070,-0.143,-0.813,-0.862,-0.74,1.73,1.18,-0.3,-1.33,-0.64
2022-02-06 21:37:15.1170,-0.13,-0.812,-0.87,-1.1,1.7,1.32,-0.27,-1.39,-0.73
2022-02-06 21:37:15.1280,-0.117,-0.811,-0.871,-1.26,1.65,1.37,-0.24,-1.42,-0.81
2022-02-06 21:37:15.1380,-0.108,-0.803,-0.873,-1.26,1.65,1.37,-0.24,-1.42,-0.81
2022-02-06 21:37:15.1480,-0.103,-0.784,-0.87,-1.36,1.48,1.37,-0.16,-1.39,-0.98
2022-02-06 21:37:15.1580,-0.102,-0.764,-0.86,-1.4,1.27,1.31,-0.11,-1.33,-1.04
2022-02-06 21:37:15.1680,-0.099,-0.741,-0.847,-1.45,1.03,1.21,-0.04,-1.28,-1.08
2022-02-06 21:37:15.1780,-0.093,-0.716,-0.835,-1.53,0.78,1.12,0.03,-1.25,-1.09
2022-02-06 21:37:15.1880,-0.082,-0.69,-0.814,-1.64,0.48,0.98,0.03,-1.25,-1.09
2022-02-06 21:37:15.1980,-0.067,-0.676,-0.794,-1.94,0.2,0.71,0.21,-1.24,-1.1
2022-02-06 21:37:15.2080,-0.057,-0.676,-0.78,-1.94,0.2,0.71,0.31,-1.28,-1.08
2022-02-06 21:37:15.2180,-0.048,-0.677,-0.763,-2.05,0.17,0.6,0.43,-1.3,-1.07
2022-02-06 21:37:15.2280,-0.039,-0.669,-0.745,-2.16,0.05,0.5,0.55,-1.27,-1.07
2022-02-06 21:37:15.2380,-0.033,-0.654,-0.716,-2.28,-0.34,0.11,0.67,-1.18,-1.06
2022-02-06 21:37:15.2480,-0.03,-0.644,-0.689,-2.28,-0.34,0.11,0.79,-1.04,-1.02
2022-02-06 21:37:15.2580,-0.024,-0.647,-0.663,-2.32,-0.43,-0.07,0.91,-0.85,-0.95
2022-02-06 21:37:15.2680,-0.011,-0.659,-0.633,-2.42,-0.41,-0.26,1.05,-0.61,-0.85
2022-02-06 21:37:15.2780,0.008,-0.666,-0.597,-2.75,-0.42,-0.71,1.18,-0.36,-0.77
2022-02-06 21:37:15.2880,0.03,-0.678,-0.574,-2.75,-0.42,-0.71,1.18,-0.36,-0.77
2022-02-06 21:37:15.2980,0.055,-0.711,-0.572,-2.96,-0.25,-0.69,1.34,-0.13,-0.67
2022-02-06 21:37:15.3080,0.08,-0.733,-0.593,-3.15,-0.1,-0.42,1.3,-0.23,-0.62
2022-02-06 21:37:15.3180,0.106,-0.802,-0.623,-3.67,1.14,0.26,1.16,-0.45,-0.57
2022-02-06 21:37:15.3290,0.137,-0.889,-0.639,-3.67,1.14,0.26,0.98,-0.69,-0.51
2022-02-06 21:37:15.3390,0.156,-0.949,-0.653,-3.93,1.72,0.45,0.98,-0.69,-0.51
2022-02-06 21:37:15.3480,0.158,-0.989,-0.657,-3.99,2.25652413547039,0.56,0.67,-1.04,-0.45
2022-02-06 21:37:15.3590,0.141,-1.001,-0.638,-3.63,2.18,0.4,0.6,-1.01,-0.45
2022-02-06 21:37:15.3680,0.108,-0.995,-0.613,-3.63,2.18,0.4,0.6,-0.81,-0.45
2022-02-06 21:37:15.3790,0.078,-0.987,-0.582,-3.33,2.05,0.15,0.62,-0.5,-0.43
2022-02-06 21:37:15.3890,0.058,-0.985,-0.563,-3.09,1.96,0.0,0.62,-0.16,-0.39
2022-02-06 21:37:15.3980,0.054,-0.994,-0.542,-2.99,1.98,-0.15,0.6,0.17,-0.32
2022-02-06 21:37:15.4080,0.063,-1.013,-0.526,-3.0,2.11,-0.29,0.57,0.44,-0.23
2022-02-06 21:37:15.4190,0.079,-1.032,-0.512,-3.11,2.27,-0.39,0.52,0.65,-0.15
2022-02-06 21:37:15.4290,0.1,-1.043,-0.499,-3.39,2.42,-0.56,0.46,0.79,-0.09
2022-02-06 21:37:15.4390,0.116,-1.05,-0.494,-3.39,2.42,-0.56,0.39,0.88,-0.06
2022-02-06 21:37:15.4490,0.124,-1.067,-0.494,-3.39,2.65,-0.49,0.34,0.91,-0.05
2022-02-06 21:37:15.4590,0.123,-1.071,-0.506,-3.39,2.65,-0.49,0.34,0.91,-0.05
2022-02-06 21:37:15.4690,0.114,-1.062,-0.532,-3.29,2.49,-0.22,0.33,0.8,-0.03
2022-02-06 21:37:15.4790,0.093,-1.064,-0.538,-3.04,2.51,-0.13,0.4,0.7,-0.03
2022-02-06 21:37:15.4890,0.084,-1.041,-0.552,-2.89,2.31,0.02,0.51,0.59,-0.01
2022-02-06 21:37:15.4990,0.076,-1.024,-0.551,-2.77,2.08,0.08,0.63,0.5,0.02
2022-02-06 21:37:15.5090,0.076,-1.023,-0.539,-2.74,2.02,0.03,0.75,0.44,0.08
2022-02-06 21:37:15.5280,0.084,-1.019,-0.521,-2.82,1.89,-0.25,0.85,0.43,0.14
2022-02-06 21:37:15.5300,0.086,-1.019,-0.495,-2.79,1.82,-0.46,0.92,0.46,0.22
2022-02-06 21:37:15.5390,0.083,-1.014,-0.467,-2.74,1.73,-0.67,0.96,0.53,0.3
2022-02-06 21:37:15.5500,0.077,-1.011,-0.439,-2.74,1.73,-0.67,0.98,0.62,0.4
2022-02-06 21:37:15.5590,0.075,-1.018,-0.408,-2.74,1.8,-1.1,1.0,0.74,0.5
2022-02-06 21:37:15.5690,0.08,-1.029,-0.383,-2.74,1.8,-1.1,1.02,0.84,0.59
2022-02-06 21:37:15.5800,0.081,-1.028,-0.365,-2.78,1.8,-1.23,1.03,0.91,0.63
2022-02-06 21:37:15.5890,0.079,-1.01,-0.356,-2.77,1.62,-1.27,1.04,0.95,0.61
2022-02-06 21:37:15.5990,0.079,-0.985,-0.345,-2.77,1.35,-1.3,1.06,0.98,0.53
2022-02-06 21:37:15.6090,0.078,-0.967,-0.329,-2.76,1.1,-1.37,1.06,0.98,0.53
2022-02-06 21:37:15.6190,0.078,-0.957,-0.308,-2.74,0.96,-1.5,1.06,1.1,0.4
2022-02-06 21:37:15.6290,0.084,-0.951,-0.29,-2.77,0.84,-1.62,1.05,1.2,0.39
2022-02-06 21:37:15.6400,0.096,-0.953,-0.277,-2.86,0.81,-1.7188592076301576,1.01,1.29,0.42
2022-02-06 21:37:15.6500,0.104,-0.956,-0.271,-2.93,0.8,-1.72,0.97,1.37,0.48
2022-02-06 21:37:15.6590,0.106,-0.953,-0.268,-2.95,0.76,-1.7,0.91,1.42,0.56
2022-02-06 21:37:15.6700,0.095,-0.944,-0.265,-2.71,0.54,-1.74,0.87,1.49,0.62
2022-02-06 21:37:15.6800,0.081,-0.935,-0.251,-2.71,0.54,-1.74,0.83,1.58,0.65
2022-02-06 21:37:15.6900,0.068,-0.929,-0.233,-2.57,0.46,-1.88,0.79,1.7,0.65
2022-02-06 21:37:15.7000,0.055,-0.927,-0.219,-2.42,0.4,-2.0,0.74,1.84,0.63
2022-02-06 21:37:15.7100,0.052,-0.935,-0.211,-2.34,0.43,-2.07,0.68,1.94,0.61
2022-02-06 21:37:15.7200,0.055,-0.949,-0.222,-2.23,0.59,-1.86,0.61,1.98,0.6
2022-02-06 21:37:15.7300,0.044,-0.947,-0.233,-2.11,0.49,-1.68,0.51,1.95,0.58
2022-02-06 21:37:15.7400,0.035,-0.946,-0.255,-2.11,0.49,-1.68,0.39,1.85,0.57
2022-02-06 21:37:15.7500,0.028,-0.969,-0.274,-2.0,0.73,-1.45,0.28,1.72,0.55
2022-02-06 21:37:15.7600,0.033,-0.95,-0.287,-2.0,0.65,-1.34,0.19,1.59,0.46
2022-02-06 21:37:15.7700,0.044,-0.916,-0.294,-2.2,0.05,-1.31,0.13,1.51,0.35
2022-02-06 21:37:15.7800,0.062,-0.89,-0.288,-2.2,0.05,-1.31,0.11,1.48,0.22
2022-02-06 21:37:15.7900,0.081,-0.854,-0.303,-2.35,-0.26,-1.28,0.13,1.38,0.1
2022-02-06 21:37:15.8000,0.103,-0.8,-0.359,-2.51,-0.77,-0.76,0.19,1.29,0.01
2022-02-06 21:37:15.8180,0.107,-0.76,-0.357,-2.41,-1.53,-0.58,0.27,1.24,-0.07
2022-02-06 21:37:15.8210,0.098,-0.731,-0.376,-2.41,-1.53,-0.58,0.34,1.17,-0.1
2022-02-06 21:37:15.8300,0.093,-0.712,-0.402,-2.18,-1.93,-0.25,0.43,1.16,-0.11
2022-02-06 21:37:15.8400,0.086,-0.697,-0.392,-2.18,-1.93,-0.25,0.5,1.17,-0.11
2022-02-06 21:37:15.8500,0.085,-0.681,-0.4,-2.09,-2.12,-0.21,0.54,1.15,-0.11
2022-02-06 21:37:15.8600,0.09,-0.68,-0.398,-2.08,-2.19,-0.13,0.55,1.14,-0.11
2022-02-06 21:37:15.8700,0.093,-0.693,-0.385,-2.05,-2.12,-0.23,0.55,1.14,-0.11
2022-02-06 21:37:15.8810,0.093,-0.711,-0.374,-1.87,-1.85,-0.42,0.46,1.16,-0.07
2022-02-06 21:37:15.8900,0.079,-0.722,-0.359,-1.6,-1.8,-0.58,0.4,1.21,-0.03
2022-02-06 21:37:15.9000,0.056,-0.727,-0.338,-1.31,-1.76,-0.82,0.33,1.33,0.01
2022-02-06 21:37:15.9100,0.03,-0.735,-0.313,-1.31,-1.76,-0.82,0.33,1.33,0.01
2022-02-06 21:37:15.9200,-0.001,-0.755,-0.303,-0.95,-1.6,-0.95,0.18,1.58,0.06
2022-02-06 21:37:15.9310,-0.029,-0.771,-0.296,-0.62,-1.42,-1.03,0.12,1.69,0.05
2022-02-06 21:37:15.9400,-0.059,-0.776,-0.301,-0.26,-1.35,-1.01,0.1,1.79,-0.0
2022-02-06 21:37:15.9500,-0.079,-0.782,-0.294,0.23,-1.2,-1.1,0.07,1.9,-0.1
2022-02-06 21:37:15.9610,-0.086,-0.795,-0.295,0.23,-1.2,-1.1,0.03,1.99,-0.22
2022-02-06 21:37:15.9710,-0.096,-0.802,-0.308,0.41,-1.0777535265684128,-0.97,-0.07,2.07,-0.33
2022-02-06 21:37:15.9810,-0.115,-0.804,-0.306,0.89,-0.97,-1.18,-0.2,2.19,-0.43
2022-02-06 21:37:15.9910,-0.119,-0.817,-0.29,0.89,-0.97,-1.18,-0.35,2.3,-0.49
2022-02-06 21:37:16.0010,-0.148,-0.814,-0.298,1.28,-0.9,-1.13,-0.49,2.44,-0.57
2022-02-06 21:37:16.0100,-0.154,-0.78,-0.271,1.56,-1.18,-1.41,-0.61,2.58,-0.65
2022-02-06 21:37:16.0210,-0.147,-0.764,-0.282,1.69,-1.38,-1.48,-0.74,2.63,-0.73
2022-02-06 21:37:16.0310,-0.127,-0.772,-0.32,1.69,-1.31,-1.2,-0.85,2.58,-0.8
2022-02-06 21:37:16.0410,-0.12,-0.776,-0.36,1.75,-1.17,-0.89,-0.93,2.43,-0.85
2022-02-06 21:37:16.0510,-0.125,-0.757,-0.416,2.23,-1.46,-0.16,-0.95,2.18,-0.87
2022-02-06 21:37:16.0610,-0.136,-0.734,-0.439,2.23,-1.46,-0.16,-0.95,2.18,-0.87
2022-02-06 21:37:16.0710,-0.128,-0.729,-0.451,2.37,-1.5,0.036910841166973116,-0.9,1.63,-0.88
2022-02-06 21:37:16.0810,-0.112,-0.734,-0.474,2.37,-1.39,0.23,-0.87,1.35,-0.91
2022-02-06 21:37:16.0910,-0.101,-0.725,-0.506,2.37,-1.39,0.23,-0.93,1.03,-1.02
2022-02-06 21:37:16.1010,-0.095,-0.694,-0.548,2.43,-1.6,0.58,-1.06,0.7,-1.2
2022-02-06 21:37:16.1110,-0.088,-0.683,-0.594,2.52,-1.73,0.9,-1.24,0.34,-1.35
2022-02-06 21:37:16.1210,-0.067,-0.721,-0.661,2.46,-1.37,1.43,-1.24,0.34,-1.35
2022-02-06 21:37:16.1310,-0.046,-0.753,-0.721,2.35,-0.88,1.9,-1.31,-0.42,-1.31
2022-02-06 21:37:16.1410,-0.042,-0.72,-0.778,2.33,-0.94,2.4,-1.1,-0.8,-1.15
2022-02-06 21:37:16.1510,-0.055,-0.647,-0.781,2.47,-1.54,2.48,-1.1,-0.8,-1.15
2022-02-06 21:37:16.1620,-0.065,-0.588,-0.746,2.63,-2.45,1.66,-0.52,-1.12,-0.71
2022-02-06 21:37:16.1720,-0.067,-0.56,-0.707,2.59,-2.4,1.36,-0.39,-1.1,-0.47
2022-02-06 21:37:16.1820,-0.064,-0.574,-0.691,2.47,-1.93,1.47,-0.45,-1.05,-0.2
2022-02-06 21:37:16.1910,-0.058,-0.627,-0.722,2.47,-1.93,1.47,-0.66,-1.06,0.04
2022-02-06 21:37:16.2020,-0.06,-0.689,-0.779,2.4,-1.27,1.94,-0.92,-1.13,0.21
2022-02-06 21:37:16.2110,-0.07,-0.733,-0.835,2.553972580432892,-0.4836793398857117,2.75,-1.11,-1.23,0.29
2022-02-06 21:37:16.2220,-0.102,-0.74,-0.878,2.83,-0.64,2.95,-1.15,-1.36,0.28
2022-02-06 21:37:16.2320,-0.141,-0.711,-0.907,2.83,-0.64,2.95,-1.03,-1.53,0.21
2022-02-06 21:37:16.2420,-0.168,-0.674,-0.914,3.03,-0.95,2.98,-0.87,-1.67,0.1
2022-02-06 21:37:16.2520,-0.164,-0.644,-0.91,2.97,-1.22,2.87,-0.81,-1.73,-0.05
2022-02-06 21:37:16.2620,-0.143,-0.641,-0.882,2.42,-1.04,2.01,-0.91,-1.65,-0.18
2022-02-06 21:37:16.2720,-0.127,-0.663,-0.831,2.42,-1.04,2.01,-0.91,-1.65,-0.18
2022-02-06 21:37:16.2820,-0.117,-0.684,-0.796,2.24,-0.72,1.51,-1.54,-1.07,-0.32
2022-02-06 21:37:16.2920,-0.106,-0.688,-0.782,1.91,-0.32,1.19,-1.91,-0.73,-0.33
2022-02-06 21:37:16.3020,-0.085,-0.699,-0.813,1.91,-0.32,1.19,-2.22,-0.53,-0.27
2022-02-06 21:37:16.3130,-0.074,-0.721,-0.888,1.74,0.03,1.69,-2.38,-0.54,-0.12
2022-02-06 21:37:16.3220,-0.079,-0.744,-0.975,1.8,0.71,2.91,-2.29,-0.71,0.06
2022-02-06 21:37:16.3320,-0.096,-0.75,-1.036,1.8,0.71,2.91,-1.97,-0.9,0.2
2022-02-06 21:37:16.3420,-0.12,-0.731,-1.049,1.92,0.7,3.0,-1.49,-1.06,0.28
2022-02-06 21:37:16.3520,-0.147,-0.716,-1.049,2.09,0.6,2.92,-0.99,-1.21,0.31
2022-02-06 21:37:16.3620,-0.159,-0.727,-1.033,2.15,0.7,2.4196515119075777,-0.59,-1.34,0.31
2022-02-06 21:37:16.3720,-0.143,-0.757,-1.001,1.94,1.0,2.41,-0.36,-1.49,0.32
2022-02-06 21:37:16.3800,-0.118,-0.789,-0.98,1.56,1.35,2.15,-0.26,-1.68,0.33
2022-02-06 21:37:16.3920,-0.092,-0.812,-0.96,1.15,1.63,1.96,-0.24,-1.85,0.33
2022-02-06 21:37:16.4020,-0.067,-0.817,-0.929,0.38,1.8,1.5,-0.27,-2.03,0.32
2022-02-06 21:37:16.4110,-0.053,-0.823,-0.925,0.38,1.8,1.5,-0.34,-2.2,0.31
2022-02-06 21:37:16.4220,-0.055,-0.834,-0.926,0.17,1.93,1.52,-0.43,-2.27,0.29
2022-02-06 21:37:16.4320,-0.075,-0.826,-0.903,0.14,1.95,1.32,-0.5,-2.18,0.22
2022-02-06 21:37:16.4420,-0.105,-0.799,-0.884,0.24,1.76,1.09,-0.57,-1.97,0.11
2022-02-06 21:37:16.4520,-0.131,-0.775,-0.87,0.37,1.55,0.91,-0.62,-1.71,-0.02
2022-02-06 21:37:16.4620,-0.153,-0.759,-0.873,0.46,1.43,0.88,-0.64,-1.47,-0.12
2022-02-06 21:37:16.4720,-0.173,-0.743,-0.876,0.58,1.33,0.91,-0.63,-1.25,-0.19
2022-02-06 21:37:16.4820,-0.172,-0.729,-0.869,0.55,1.22,0.81,-0.59,-1.09,-0.19
2022-02-06 21:37:16.4920,-0.156,-0.728,-0.873,0.35,1.22,0.82,-0.5,-0.99,-0.13
2022-02-06 21:37:16.5020,-0.132,-0.726,-0.864,0.06,1.26,0.76,-0.39,-0.88,-0.05
2022-02-06 21:37:16.5130,-0.105,-0.706,-0.846,-0.27,1.14,0.57,-0.28,-0.77,0.02
2022-02-06 21:37:16.5230,-0.086,-0.682,-0.833,-0.54,0.92,0.21,-0.2,-0.77,0.02
2022-02-06 21:37:16.5330,-0.072,-0.665,-0.808,-0.73,0.76,0.21,-0.15,-0.42,0.07
2022-02-06 21:37:16.5420,-0.069,-0.644,-0.804,-0.82,0.58,0.08,-0.15,-0.27,0.07
2022-02-06 21:37:16.5530,-0.069,-0.622,-0.819,-0.96,0.23,0.32,-0.13,-0.16,0.07
2022-02-06 21:37:16.5630,-0.053,-0.609,-0.832,-1.23,0.13,0.64,-0.08,-0.13,0.11
2022-02-06 21:37:16.5730,-0.027,-0.598,-0.873,-1.23,0.13,0.64,0.02,-0.23,0.22
2022-02-06 21:37:16.5820,-0.007,-0.591,-0.931,-1.49,0.04,1.22,0.16,-0.4,0.4
2022-02-06 21:37:16.5930,0.002,-0.589,-0.964,-1.68,0.02,1.63,0.34,-0.56,0.6
2022-02-06 21:37:16.6030,-0.005,-0.573,-0.99,-1.74,-0.11,1.92,0.34,-0.56,0.6
2022-02-06 21:37:16.6130,-0.034,-0.534,-0.993,-1.6,-0.47,2.08,0.71,-0.65,0.87
2022-02-06 21:37:16.6230,-0.083,-0.478,-0.966,-1.25,-1.03,1.91,0.84,-0.53,0.91
2022-02-06 21:37:16.6330,-0.13,-0.431,-0.955,-0.87,-1.59,1.79,0.92,-0.42,0.93
2022-02-06 21:37:16.6430,-0.166,-0.415,-0.964,-0.57,-1.88,1.93,0.96,-0.35,0.94
2022-02-06 21:37:16.6530,-0.179,-0.43,-0.973,-0.45,-1.85,2.08,0.99,-0.37,0.94
2022-02-06 21:37:16.6630,-0.165,-0.456,-0.995,-0.62,-1.65,2.31,1.0,-0.5,0.91
2022-02-06 21:37:16.6730,-0.139,-0.479,-1.033,-0.97,-1.47,2.74,0.97,-0.73,0.83
2022-02-06 21:37:16.6830,-0.126,-0.5,-1.048,-1.25,-1.3,3.06,0.91,-0.95,0.7
2022-02-06 21:37:16.6930,-0.128,-0.513,-1.042,-1.37,-1.2,3.09,0.81,-1.09,0.54
2022-02-06 21:37:16.7030,-0.143,-0.517,-1.039,-1.37,-1.17,3.13,0.71,-1.14,0.34
2022-02-06 21:37:16.7140,-0.173,-0.502,-1.035,-1.2,-1.31,3.18,0.6,-1.07,0.13
2022-02-06 21:37:16.7240,-0.198,-0.479,-1.024,-0.89,-1.81,3.11,0.49,-0.92,-0.09
2022-02-06 21:37:16.7330,-0.212,-0.46,-1.016,-0.89,-1.81,3.11,0.37,-0.7,-0.28
2022-02-06 21:37:16.7430,-0.217,-0.454,-1.0,-0.83,-1.9,2.79,0.37,-0.7,-0.28
2022-02-06 21:37:16.7530,-0.214,-0.462,-0.974,-0.87,-1.85,2.56,0.16,-0.03,-0.48
2022-02-06 21:37:16.7640,-0.206,-0.469,-0.952,-0.87,-1.85,2.56,0.06,0.31,-0.49
2022-02-06 21:37:16.7730,-0.203,-0.47,-0.94,-0.75,-1.81,2.32,-0.03,0.58,-0.45
2022-02-06 21:37:16.7840,-0.209,-0.475,-0.934,-0.58,-1.77,2.29,-0.09,0.76,-0.39
2022-02-06 21:37:16.7930,-0.219,-0.479,-0.936,-0.58,-1.77,2.29,-0.1,0.82,-0.33
2022-02-06 21:37:16.8030,-0.228,-0.481,-0.948,-0.41,-1.75,2.35,-0.06,0.77,-0.31
2022-02-06 21:37:16.8130,-0.235,-0.48,-0.96,-0.26,-1.75,2.46,0.02,0.62,-0.33
2022-02-06 21:37:16.8240,-0.24,-0.478,-0.965,-0.15,-1.78,2.51,0.14,0.43,-0.39
2022-02-06 21:37:16.8340,-0.243,-0.478,-0.973,-0.06,-1.81,2.56,0.28,0.2,-0.46
2022-02-06 21:37:16.8430,-0.244,-0.482,-0.971,0.0,-1.82,2.66,0.45,0.05,-0.52
2022-02-06 21:37:16.8620,-0.242,-0.494,-0.935,0.02,-1.66,2.21,0.6,-0.04,-0.54
2022-02-06 21:37:16.8640,-0.24,-0.511,-0.92,0.02,-1.66,2.21,0.71,-0.08,-0.52
2022-02-06 21:37:16.8740,-0.237,-0.526,-0.891,0.02,-1.58,2.02,0.78,-0.05,-0.47
2022-02-06 21:37:16.8840,-0.236,-0.549,-0.877,0.04,-1.44,1.85,0.83,-0.0,-0.42
2022-02-06 21:37:16.9030,-0.236,-0.577,-0.902,0.17,-1.12,2.43,0.86,-0.0,-0.39
2022-02-06 21:37:16.9030,-0.248,-0.591,-0.928,0.32,-1.05,2.64,0.88,-0.03,-0.4
2022-02-06 21:37:16.9130,-0.259,-0.607,-0.943,0.32,-1.05,2.64,0.89,-0.08,-0.44
2022-02-06 21:37:16.9220,-0.267,-0.627,-0.957,0.43,-0.92,2.86,0.92,-0.12,-0.52
2022-02-06 21:37:16.9230,-0.273,-0.643,-0.953,0.51,-0.82,2.95,0.98,-0.1,-0.6
2022-02-06 21:37:16.9340,-0.286,-0.657,-0.919,0.66,-0.77,2.76,1.06,-0.02,-0.66
2022-02-06 21:37:16.9440,-0.295,-0.675,-0.882,0.82,-0.68,2.43,1.1,0.07,-0.7
2022-02-06 21:37:16.9540,-0.302,-0.687,-0.857,0.94,-0.61,2.27,1.08,0.13,-0.69
2022-02-06 21:37:16.9640,-0.313,-0.69,-0.814,1.09,-0.65,1.97,1.03,0.25,-0.66
2022-02-06 21:37:16.9740,-0.327,-0.697,-0.761,1.3,-0.67,1.52,0.99,0.44,-0.63
2022-02-06 21:37:16.9920,-0.338,-0.705,-0.706,1.5,-0.65,1.06,0.97,0.69,-0.64
2022-02-06 21:37:16.9940,-0.339,-0.699,-0.658,1.63,-0.74,0.6,0.97,0.89,-0.71
2022-02-06 21:37:17.0050,-0.33,-0.692,-0.638,1.68,-0.9,0.39,0.93,0.98,-0.81
2022-02-06 21:37:17.0140,-0.301,-0.702,-0.632,1.58,-0.92,0.38,0.87,0.97,-0.9
2022-02-06 21:37:17.0320,-0.264,-0.728,-0.618,1.35,-0.74,0.31,0.81,0.9,-0.96
2022-02-06 21:37:17.0430,-0.222,-0.745,-0.598,1.08,-0.59,0.17,0.75,0.8,-1.0
Time,-0.179,-0.75,-0.577,0.77,-0.58,0.02,0.69,0.69,-1.02
2022-02-06 21:37:17.0540,-0.146,-0.753,-0.554,0.54,-0.58,-0.15,0.65,0.61,-1.01
Time,-0.118,-0.744,-0.527,0.37,-0.69,-0.36,0.6,0.57,-0.97
2022-02-06 21:37:17.0740,-0.102,-0.725,-0.497,0.28,-0.9,-0.61,0.54,0.56,-0.91
2022-02-06 21:37:17.0850,-0.094,-0.71,-0.465,0.29,-1.09,-0.87,0.46,0.6,-0.82
2022-02-06 21:37:17.0940,-0.09,-0.697,-0.434,0.35,-1.25,-1.17,0.36,0.65,-0.7
2022-02-06 21:37:17.1050,-0.077,-0.691,-0.419,0.34,-1.36,-1.34,0.25,0.69,-0.58
2022-02-06 21:37:17.1150,-0.06,-0.694,-0.413,0.25,-1.35,-1.4,0.16,0.71,-0.49
2022-02-06 21:37:17.1240,-0.049,-0.692,-0.423,0.2,-1.36,-1.35,0.1,0.69,-0.41
2022-02-06 21:37:17.1340,-0.053,-0.678,-0.449,0.26,-1.46,-1.11,0.08,0.63,-0.37
2022-02-06 21:37:17.1530,-0.063,-0.652,-0.467,0.42,-1.7,-0.89,0.09,0.56,-0.35
2022-02-06 21:37:17.1630,-0.072,-0.626,-0.474,0.57,-1.97,-0.8,0.12,0.51,-0.34
2022-02-06 21:37:17.1650,-0.072,-0.609,-0.483,0.66,-2.17,-0.71,0.17,0.47,-0.32
2022-02-06 21:37:17.1750,-0.064,-0.602,-0.483,0.64,-2.27,-0.65,0.22,0.48,-0.29
2022-02-06 21:37:17.1850,-0.054,-0.595,-0.462,0.6,-2.34,-0.81,0.27,0.54,-0.22
2022-02-06 21:37:17.1960,-0.045,-0.588,-0.445,0.55,-2.43,-0.98,0.29,0.62,-0.13
2022-02-06 21:37:17.2130,-0.042,-0.586,-0.43,0.54,-2.48,-1.09,0.28,0.7,-0.0
2022-02-06 21:37:17.2230,-0.044,-0.587,-0.415,0.58,-2.49,-1.22,0.25,0.78,0.13
2022-02-06 21:37:17.2330,-0.05,-0.587,-0.401,0.66,-2.49,-1.33,0.22,0.85,0.23
2022-02-06 21:37:17.2430,-0.057,-0.585,-0.395,0.75,-2.52,-1.42,0.18,0.87,0.28
2022-02-06 21:37:17.2530,-0.067,-0.58,-0.4,0.86,-2.56,-1.37,0.15,0.87,0.31
2022-02-06 21:37:17.2630,-0.08,-0.567,-0.402,1.0,-2.68,-1.33,0.11,0.86,0.31
2022-02-06 21:37:17.2730,-0.086,-0.555,-0.406,1.12,-2.82,-1.29,0.04,0.83,0.3
2022-02-06 21:37:17.2830,-0.07,-0.559,-0.417,1.03,-2.83,-1.21,-0.07,0.77,0.27
2022-02-06 21:37:17.2930,-0.041,-0.572,-0.439,0.78,-2.7,-1.01,-0.21,0.66,0.24
2022-02-06 21:37:17.3040,-0.02,-0.588,-0.45,0.56,-2.53,-0.89,-0.35,0.56,0.22
2022-02-06 21:37:17.3050,-0.008,-0.586,-0.458,0.42,-2.47,-0.86,-0.48,0.5,0.2
2022-02-06 21:37:17.3160,-0.009,-0.561,-0.467,0.41,-2.64,-0.8,-0.59,0.48,0.17
2022-02-06 21:37:17.3250,-0.026,-0.526,-0.471,0.55,-2.93,-0.79,-0.66,0.54,0.14
2022-02-06 21:37:17.3350,-0.046,-0.496,-0.467,0.78,-3.21,-0.88,-0.71,0.64,0.12
2022-02-06 21:37:17.3450,-0.063,-0.475,-0.466,0.98,-3.4,-0.95,-0.75,0.73,0.13
2022-02-06 21:37:17.3550,-0.069,-0.457,-0.466,1.1,-3.54,-1.03,-0.8,0.79,0.14
2022-02-06 21:37:17.3740,-0.062,-0.451,-0.48,1.09,-3.59,-1.0,-0.88,0.74,0.17
2022-02-06 21:37:17.3750,-0.046,-0.457,-0.504,0.98,-3.5,-0.84,-0.97,0.6,0.21
2022-02-06 21:37:17.3860,-0.027,-0.469,-0.523,0.81,-3.32,-0.72,-1.1,0.4,0.25
2022-02-06 21:37:17.3960,-0.01,-0.47,-0.548,0.63,-3.22,-0.57,-1.29,0.2,0.28
2022-02-06 21:37:17.4050,0.0,-0.476,-0.555,0.48,-3.12,-0.56,-1.51,0.09,0.32
2022-02-06 21:37:17.4160,-0.012,-0.496,-0.561,0.53,-2.84,-0.66,-1.74,0.02,0.37
2022-02-06 21:37:17.4250,-0.034,-0.501,-0.591,0.69,-2.62,-0.56,-1.97,-0.0,0.43
2022-02-06 21:37:17.4350,-0.069,-0.494,-0.632,0.97,-2.57,-0.32,-2.15,0.04,0.53
2022-02-06 21:37:17.4460,-0.119,-0.51,-0.678,1.4,-2.33,-0.06,-2.22,0.1,0.66
2022-02-06 21:37:17.4560,-0.167,-0.536,-0.748,1.84,-1.92,0.41,-2.15,0.11,0.79
2022-02-06 21:37:17.4710,-0.203,-0.544,-0.825,1.84,-1.92,0.41,-1.94,0.05,0.89
2022-02-06 21:37:17.4810,-0.227,-0.532,-0.884,2.17,-1.65,1.02,-1.62,-0.07,0.93
2022-02-06 21:37:17.4910,-0.246,-0.517,-0.906,2.5,-1.66,1.75,-1.32,-0.19,0.93
2022-02-06 21:37:17.5010,-0.244,-0.523,-0.894,2.5,-1.66,1.75,-1.12,-0.3,0.89
2022-02-06 21:37:17.5110,-0.235,-0.547,-0.877,2.286944859623909,-1.29,1.37,-1.07,-0.41,0.85
2022-02-06 21:37:17.5300,-0.228,-0.577,-0.865,2.12,-0.92,1.15,-1.15,-0.55,0.78
2022-02-06 21:37:17.5310,-0.22,-0.612,-0.873,2.12,-0.92,1.15,-1.32,-0.74,0.71
2022-02-06 21:37:17.5410,-0.222,-0.653,-0.906,1.94,-0.49,1.09,-1.53,-0.97,0.64
2022-02-06 21:37:17.5510,-0.244,-0.701,-0.951,1.82,-0.01,1.27,-1.69,-1.19,0.6
2022-02-06 21:37:17.5610,-0.292,-0.731,-0.989,1.87,0.58,1.6,-1.74,-1.31,0.57
2022-02-06 21:37:17.5710,-0.362,-0.721,-1.028,2.14,1.08,1.9,-1.67,-1.39,0.52
2022-02-06 21:37:17.5810,-0.431,-0.693,-1.082,3.21,1.09,2.59,-1.47,-1.44,0.41
2022-02-06 21:37:17.5910,-0.479,-0.675,-1.118,3.21,1.09,2.59,-1.19,-1.43,0.24
2022-02-06 21:37:17.6010,-0.495,-0.682,-1.103,3.61,0.99,2.97,-0.96,-1.41,0.05
2022-02-06 21:37:17.6110,-0.488,-0.725,-1.1,3.73,1.07,2.86,-0.83,-1.39,-0.13
2022-02-06 21:37:17.6210,-0.472,-0.774,-1.074,3.58,1.49,2.76,-0.79,-1.33,-0.29
2022-02-06 21:37:17.6320,-0.454,-0.797,-1.04,3.34,2.06,2.56,-0.83,-1.28,-0.46
2022-02-06 21:37:17.6410,-0.441,-0.81,-1.018,2.85,2.61,1.91,-0.9,-1.21,-0.63
2022-02-06 21:37:17.6520,-0.43,-0.818,-0.996,2.85,2.61,1.91,-0.95,-1.15,-0.79
2022-02-06 21:37:17.6620,-0.42,-0.814,-0.985,2.69,2.78,1.67,-0.97,-1.14,-0.94
2022-02-06 21:37:17.6720,-0.41,-0.792,-0.989,2.53,2.84,1.48,-0.95,-1.17,-1.07
2022-02-06 21:37:17.6810,-0.392,-0.765,-0.985,2.2,2.52,1.44,-0.9,-1.24,-1.18
2022-02-06 21:37:17.6920,-0.365,-0.751,-0.985,2.2,2.52,1.44,-0.84,-1.36,-1.28
2022-02-06 21:37:17.7020,-0.323,-0.737,-1.001,1.49,2.32,1.5,-0.78,-1.51,-1.4
2022-02-06 21:37:17.7120,-0.283,-0.725,-1.001,1.49,2.32,1.5,-0.72,-1.62,-1.51
2022-02-06 21:37:17.7220,-0.251,-0.715,-0.985,0.63,2.17,1.4,-0.69,-1.69,-1.61
2022-02-06 21:37:17.7320,-0.226,-0.698,-0.981,0.3,2.04,1.32,-0.67,-1.73,-1.67
2022-02-06 21:37:17.7420,-0.209,-0.683,-0.99,0.3,2.04,1.32,-0.65,-1.76,-1.69
2022-02-06 21:37:17.7510,-0.199,-0.662,-1.005,-0.13,1.74,1.53,-0.6,-1.8,-1.68
2022-02-06 21:37:17.7620,-0.191,-0.635,-1.016,-0.13,1.74,1.53,-0.5,-1.84,-1.66
2022-02-06 21:37:17.7720,-0.181,-0.611,-1.039,-0.28,1.5,1.65,-0.36,-1.9,-1.63
2022-02-06 21:37:17.7820,-0.163,-0.592,-1.049,-0.68,1.04,2.05,-0.18,-1.92,-1.6
2022-02-06 21:37:17.7920,-0.141,-0.581,-1.039,-0.97,0.89,2.02,0.02,-1.89,-1.56
2022-02-06 21:37:17.8020,-0.12,-0.57,-1.017,-0.97,0.89,2.02,0.26,-1.8,-1.51
2022-02-06 21:37:17.8120,-0.099,-0.556,-0.984,-1.54,0.55,1.65,0.47,-1.69,-1.43
2022-02-06 21:37:17.8220,-0.083,-0.544,-0.945,-1.54,0.55,1.65,0.65,-1.58,-1.31
2022-02-06 21:37:17.8320,-0.07,-0.542,-0.905,-1.97,0.2,1.02,0.77,-1.51,-1.17
2022-02-06 21:37:17.8420,-0.054,-0.552,-0.883,-2.17,0.18,0.83,0.85,-1.55,-1.01
2022-02-06 21:37:17.8530,-0.033,-0.573,-0.873,-2.17,0.18,0.83,0.92,-1.65,-0.88
2022-02-06 21:37:17.8630,-0.01,-0.595,-0.844,-2.75,0.39,0.7,1.04,-1.74,-0.78
2022-02-06 21:37:17.8730,0.008,-0.613,-0.8,-3.04,0.48,0.37,1.12,-1.83,-0.71
2022-02-06 21:37:17.8830,0.024,-0.629,-0.775,-3.04,0.48,0.37,1.1,-1.92,-0.67
2022-02-06 21:37:17.8930,0.041,-0.657,-0.747,-3.3,0.53,0.21,0.97,-1.97,-0.62
2022-02-06 21:37:17.9020,0.045,-0.706,-0.719,-3.76,1.02,-0.1,0.76,-1.96,-0.58
2022-02-06 21:37:17.9130,0.041,-0.759,-0.702,-3.84,1.48,-0.18,0.53,-1.86,-0.54
2022-02-06 21:37:17.9230,0.03,-0.81,-0.684,-3.84,1.48,-0.18,0.35,-1.68,-0.51
2022-02-06 21:37:17.9330,0.012,-0.847,-0.676,-3.77,2.31,-0.3,0.24,-1.46,-0.49
2022-02-06 21:37:17.9420,-0.01,-0.869,-0.671,-3.77,2.31,-0.3,0.19,-1.23,-0.48
2022-02-06 21:37:17.9530,-0.028,-0.887,-0.672,-3.48,2.66,-0.24,0.18,-1.02,-0.47
2022-02-06 21:37:17.9630,-0.031,-0.919,-0.671,-3.45,2.9,-0.2,0.18,-0.86,-0.44
2022-02-06 21:37:17.9730,-0.026,-0.965,-0.664,-3.45,2.9,-0.2,0.18,-0.74,-0.43
2022-02-06 21:37:17.9830,-0.015,-1.007,-0.656,-3.52,3.31,-0.21,0.19,-0.65,-0.42
2022-02-06 21:37:17.9930,-0.001,-1.042,-0.652,-3.63,3.71,-0.25,0.19,-0.6,-0.44
2022-02-06 21:37:18.0030,0.016,-1.069,-0.66,-3.96,4.31,-0.18,0.17,-0.6,-0.49
2022-02-06 21:37:18.0130,0.031,-1.087,-0.659,-4.12,4.47,-0.13,0.14,-0.59,-0.53
2022-02-06 21:37:18.0230,0.036,-1.096,-0.651,-4.12,4.47,-0.13,0.1,-0.55,-0.56
2022-02-06 21:37:18.0330,0.023,-1.09,-0.645,-4.12,4.51,-0.23,0.06,-0.46,-0.55
2022-02-06 21:37:18.0430,0.003,-1.068,-0.645,-4.12,4.51,-0.23,0.06,-0.46,-0.55
2022-02-06 21:37:18.0530,-0.014,-1.052,-0.653,-3.93,4.3,-0.21,0.03,-0.26,-0.49
2022-02-06 21:37:18.0630,-0.032,-1.044,-0.669,-3.74,4.09,-0.15,0.08,-0.22,-0.44
2022-02-06 21:37:18.0730,-0.043,-1.036,-0.69,-3.55,3.99,0.0,0.17,-0.22,-0.42
2022-02-06 21:37:18.0830,-0.043,-1.028,-0.708,-3.41,3.89,0.22,0.3,-0.26,-0.43
2022-02-06 21:37:18.0930,-0.024,-1.036,-0.711,-3.49,3.76,0.53,0.43,-0.32,-0.46
2022-02-06 21:37:18.1030,0.006,-1.058,-0.709,-3.77,3.91,0.56,0.55,-0.37,-0.51
2022-02-06 21:37:18.1140,0.034,-1.071,-0.703,-3.77,3.91,0.56,0.67,-0.37,-0.56
2022-02-06 21:37:18.1240,0.047,-1.062,-0.693,-4.05,4.03,0.57,0.76,-0.29,-0.59
2022-02-06 21:37:18.1330,0.043,-1.049,-0.672,-4.18,3.72,0.42,0.83,-0.13,-0.59
2022-02-06 21:37:18.1430,0.034,-1.037,-0.646,-4.18,3.72,0.42,0.88,0.1,-0.56
2022-02-06 21:37:18.1530,0.025,-1.034,-0.634,-3.93,3.39,0.1,0.94,0.33,-0.49
2022-02-06 21:37:18.1640,0.01,-1.036,-0.636,-3.93,3.39,0.1,1.03,0.53,-0.4
2022-02-06 21:37:18.1740,0.003,-1.023,-0.643,-3.73,3.34,0.15,1.15,0.66,-0.34
2022-02-06 21:37:18.1840,0.009,-1.014,-0.653,-3.53,2.97,0.42,1.29,0.7,-0.33
2022-02-06 21:37:18.1940,0.02,-1.019,-0.658,-3.59,2.9,0.56,1.43,0.69,-0.35
2022-02-06 21:37:18.2030,0.023,-1.025,-0.652,-3.59,2.9,0.56,1.54,0.62,-0.41
2022-02-06 21:37:18.2140,0.027,-1.018,-0.656,-3.56,2.88,0.59,1.58,0.53,-0.51
2022-02-06 21:37:18.2240,0.028,-1.012,-0.647,-3.48,2.56,0.76,1.54,0.48,-0.64
2022-02-06 21:37:18.2340,0.029,-1.011,-0.634,-3.48,2.56,0.76,1.42,0.44,-0.77
2022-02-06 21:37:18.2430,0.03,-1.009,-0.64,-3.34,2.32,0.82,1.26,0.41,-0.89
2022-02-06 21:37:18.2540,0.027,-1.002,-0.653,-3.23,2.18,1.01,1.09,0.39,-0.97
2022-02-06 21:37:18.2640,0.026,-0.986,-0.674,-3.23,2.18,1.01,0.97,0.38,-1.04
2022-02-06 21:37:18.2740,0.036,-0.961,-0.699,-3.11,1.97,1.27,0.91,0.37,-1.1
2022-02-06 21:37:18.2840,0.045,-0.926,-0.73,-3.08,1.27,1.92,0.91,0.39,-1.16
2022-02-06 21:37:18.2940,0.048,-0.882,-0.735,-2.99,0.77,2.12,0.96,0.51,-1.22
2022-02-06 21:37:18.3040,0.048,-0.842,-0.719,-2.87,0.28,2.05,1.02,0.72,-1.26
2022-02-06 21:37:18.3140,0.054,-0.808,-0.696,-2.77,-0.14,1.9,1.09,0.98,-1.27
2022-02-06 21:37:18.3240,0.059,-0.771,-0.676,-2.77,-0.14,1.9,1.11,1.25,-1.26
2022-02-06 21:37:18.3340,0.065,-0.747,-0.662,-2.67,-0.58,1.76,1.1,1.49,-1.19
2022-02-06 21:37:18.3440,0.067,-0.745,-0.654,-2.55,-0.95,1.67,1.06,1.66,-1.07
2022-02-06 21:37:18.3540,0.067,-0.754,-0.662,-2.42,-1.09,1.63,1.04,1.74,-0.93
2022-02-06 21:37:18.3650,0.065,-0.755,-0.676,-2.09,-1.1,1.93,1.03,1.74,-0.79
2022-02-06 21:37:18.3740,0.063,-0.752,-0.682,-2.09,-1.1,1.93,1.06,1.72,-0.71
2022-02-06 21:37:18.3840,0.053,-0.753,-0.669,-1.92,-1.19,2.08,1.12,1.72,-0.66
2022-02-06 21:37:18.3940,0.041,-0.742,-0.641,-1.45,-1.37,1.9,1.18,1.78,-0.64
2022-02-06 21:37:18.4040,0.031,-0.724,-0.602,-1.21,-1.6,1.64,1.21,1.88,-0.64
2022-02-06 21:37:18.4150,0.03,-0.714,-0.551,-1.21,-1.6,1.64,1.22,2.02,-0.63
2022-02-06 21:37:18.4240,0.031,-0.707,-0.512,-1.04,-1.78,1.25,1.17,2.12,-0.59
2022-02-06 21:37:18.4340,0.032,-0.704,-0.484,-0.78,-2.0,0.71,1.07,2.2,-0.52
2022-02-06 21:37:18.4440,0.032,-0.709,-0.458,-0.65,-2.02,0.53,0.95,2.23,-0.43
2022-02-06 21:37:18.4540,0.028,-0.718,-0.443,-0.65,-2.02,0.53,0.82,2.23,-0.32
2022-02-06 21:37:18.4650,0.022,-0.721,-0.429,-0.5,-1.96,0.42,0.71,2.21,-0.23
2022-02-06 21:37:18.4750,0.012,-0.721,-0.418,-0.33,-1.95,0.36,0.62,2.17,-0.15
2022-02-06 21:37:18.4840,-0.003,-0.715,-0.406,0.08,-2.02,0.24,0.57,2.12,-0.1
2022-02-06 21:37:18.4950,-0.016,-0.701,-0.389,0.08,-2.02,0.24,0.53,2.06,-0.06
2022-02-06 21:37:18.5040,-0.021,-0.684,-0.369,0.46,-2.35,0.0,0.49,2.01,-0.03
2022-02-06 21:37:18.5150,-0.027,-0.668,-0.346,0.59,-2.53,-0.17,0.43,1.97,0.0
2022-02-06 21:37:18.5250,-0.035,-0.651,-0.326,0.73,-2.7,-0.34,0.36,1.93,0.05
2022-02-06 21:37:18.5350,-0.049,-0.633,-0.31,0.73,-2.7,-0.34,0.26,1.9,0.11
2022-02-06 21:37:18.5450,-0.069,-0.614,-0.297,1.15,-3.08,-0.57,0.15,1.87,0.13
2022-02-06 21:37:18.5550,-0.082,-0.591,-0.287,1.36,-3.3,-0.66,0.0,1.84,0.11
2022-02-06 21:37:18.5660,-0.079,-0.576,-0.284,1.43,-3.48,-0.71,-0.19,1.8,0.04
2022-02-06 21:37:18.5750,-0.066,-0.587,-0.289,1.43,-3.48,-0.71,-0.42,1.77,-0.02
2022-02-06 21:37:18.5840,-0.052,-0.624,-0.296,1.29,-3.1,-0.66,-0.69,1.75,-0.06
2022-02-06 21:37:18.5950,-0.052,-0.649,-0.313,1.29,-3.1,-0.66,-0.95,1.74,-0.05
2022-02-06 21:37:18.6050,-0.074,-0.65,-0.337,1.31,-2.76,-0.58,-1.19,1.73,0.0
2022-02-06 21:37:18.6150,-0.099,-0.643,-0.374,1.86,-2.68,-0.22,-1.34,1.66,0.07
2022-02-06 21:37:18.6250,-0.119,-0.628,-0.434,1.86,-2.68,-0.22,-1.34,1.66,0.07
2022-02-06 21:37:18.6350,-0.129,-0.603,-0.495,2.13,-2.75,0.21,-1.34,1.32,0.2
2022-02-06 21:37:18.6450,-0.13,-0.579,-0.542,2.35,-3.13,1.11,-1.16,1.09,0.25
2022-02-06 21:37:18.6550,-0.131,-0.57,-0.572,2.35,-3.13,1.11,-0.92,0.88,0.33
2022-02-06 21:37:18.6660,-0.141,-0.588,-0.577,2.44,-3.08,1.41,-0.7,0.73,0.46
2022-02-06 21:37:18.6750,-0.158,-0.628,-0.564,2.5806361761689187,-2.69,1.27,-0.54,0.66,0.64
2022-02-06 21:37:18.6850,-0.183,-0.646,-0.54,2.58,-2.69,1.27,-0.46,0.65,0.84
2022-02-06 21:37:18.6950,-0.212,-0.641,-0.517,3.01,-2.43,0.74,-0.44,0.67,0.98
2022-02-06 21:37:18.7050,-0.224,-0.644,-0.501,3.12,-2.43,0.53,-0.48,0.68,1.04
2022-02-06 21:37:18.7160,-0.227,-0.654,-0.505,3.12,-2.43,0.53,-0.57,0.64,1.02
2022-02-06 21:37:18.7250,-0.228,-0.661,-0.519,3.05,-2.22,0.56,-0.72,0.56,0.92
2022-02-06 21:37:18.7350,-0.221,-0.689,-0.536,3.05,-2.22,0.56,-0.72,0.56,0.92
2022-02-06 21:37:18.7460,-0.226,-0.77,-0.546,2.89,-1.29,0.69,-1.02,0.35,0.79
2022-02-06 21:37:18.7560,-0.246,-0.84,-0.551,2.89,-1.29,0.69,-1.12,0.3,0.82
2022-02-06 21:37:18.7660,-0.273,-0.849,-0.564,3.19,-0.16,0.65,-1.16,0.25,0.84
2022-02-06 21:37:18.7760,-0.309,-0.823,-0.586,3.19,-0.16,0.65,-1.16,0.25,0.84
2022-02-06 21:37:18.7860,-0.337,-0.805,-0.614,3.47,-0.33,0.75,-1.15,0.2,0.82
2022-02-06 21:37:18.7960,-0.338,-0.806,-0.636,3.73,-0.49,0.92,-1.11,0.11,0.76
2022-02-06 21:37:18.8050,-0.312,-0.825,-0.655,3.51,-0.27,1.16,-1.07,-0.15,0.5
2022-02-06 21:37:18.8160,-0.27,-0.855,-0.678,3.51,-0.27,1.16,-1.07,-0.15,0.5
2022-02-06 21:37:18.8250,-0.227,-0.885,-0.709,2.58,0.43,1.48,-1.21,-0.6,0.27
2022-02-06 21:37:18.8360,-0.194,-0.911,-0.726,2.17,0.74,1.59,-1.29,-0.77,0.25
2022-02-06 21:37:18.8460,-0.187,-0.937,-0.729,2.17,0.74,1.59,-1.32,-0.86,0.3
2022-02-06 21:37:18.8550,-0.201,-0.926,-0.751,1.99,1.18,1.57,-1.27,-0.92,0.36
2022-02-06 21:37:18.8660,-0.227,-0.887,-0.776,1.99,1.18,1.57,-1.11,-0.93,0.4
2022-02-06 21:37:18.8760,-0.256,-0.848,-0.775,2.12,0.91,1.74,-0.87,-0.89,0.44
2022-02-06 21:37:18.8850,-0.266,-0.828,-0.763,2.34,0.57,1.72,-0.64,-0.83,0.4770967960357666
2022-02-06 21:37:18.8960,-0.253,-0.829,-0.76,2.24,0.36,1.45,-0.44,-0.82,0.52
2022-02-06 21:37:18.9060,-0.219,-0.839,-0.753,2.24,0.36,1.45,-0.33,-0.87,0.55
2022-02-06 21:37:18.9160,-0.181,-0.851,-0.746,1.87,0.48,1.37,-0.3,-0.98,0.57
2022-02-06 21:37:18.9260,-0.161,-0.868,-0.739,1.02,0.79,1.2,-0.32,-1.09,0.6
2022-02-06 21:37:18.9360,-0.16,-0.868,-0.717,1.02,0.79,1.2,-0.37,-1.14,0.61
2022-02-06 21:37:18.9460,-0.172,-0.849,-0.695,0.83,0.76,0.74,-0.41,-1.11,0.6
2022-02-06 21:37:18.9560,-0.19,-0.823,-0.673,0.8993948842585088,0.54,0.5,-0.44,-1.03,0.55
2022-02-06 21:37:18.9670,-0.2,-0.802,-0.65,0.89,0.54,0.5,-0.44,-0.9,0.5
2022-02-06 21:37:18.9760,-0.209,-0.784,-0.631,0.91,0.2,0.04,-0.45,-0.77,0.46
2022-02-06 21:37:18.9860,-0.209,-0.775,-0.615,0.87,0.12,-0.16,-0.44,-0.67,0.43
2022-02-06 21:37:18.9970,-0.197,-0.771,-0.617,0.68,0.11,-0.22,-0.43,-0.64,0.42
2022-02-06 21:37:19.0060,-0.184,-0.77,-0.624,0.49,0.13,-0.17,-0.42,-0.69,0.42
2022-02-06 21:37:19.0170,-0.17,-0.774,-0.647,0.49,0.13,-0.17,-0.43,-0.83,0.43
2022-02-06 21:37:19.0260,-0.163,-0.781,-0.679,0.27,0.19,-0.03,-0.44,-1.03,0.43
2022-02-06 21:37:19.0360,-0.159,-0.785,-0.705,-0.07,0.37,0.52,-0.46,-1.21,0.43
2022-02-06 21:37:19.0460,-0.167,-0.777,-0.725,-0.07,0.37,0.52,-0.46,-1.32,0.39
2022-02-06 21:37:19.0560,-0.183,-0.758,-0.732,-0.08,0.24,0.81,-0.46,-1.33,0.33
2022-02-06 21:37:19.0670,-0.19,-0.737,-0.738,-0.08,0.24,0.81,-0.48,-1.24,0.24
2022-02-06 21:37:19.0760,-0.206,-0.723,-0.75,-0.1,0.07,0.84,-0.52,-1.06,0.19
2022-02-06 21:37:19.0870,-0.227,-0.719,-0.77,-0.07,-0.06,0.94,-0.52,-1.06,0.19
2022-02-06 21:37:19.0960,-0.256,-0.714,-0.811,0.05,-0.08,1.08,-0.64,-0.57,0.26
2022-02-06 21:37:19.1060,-0.288,-0.704,-0.866,0.52,-0.1,1.9,-0.64,-0.57,0.26
2022-02-06 21:37:19.1170,-0.303,-0.689,-0.906,0.52,-0.1,1.9,-0.4,-0.19,0.41
2022-02-06 21:37:19.1270,-0.287,-0.684,-0.94,0.68,-0.2,2.3,-0.14,-0.12,0.45
2022-02-06 21:37:19.1370,-0.263,-0.694,-0.975,0.56,-0.26,2.61,-0.14,-0.12,0.45
2022-02-06 21:37:19.1470,-0.249,-0.719,-0.99,0.27,-0.18,2.97,0.35,-0.3,0.59
2022-02-06 21:37:19.1560,-0.247,-0.743,-0.995,-0.0646944710612297,0.28,3.29,0.49,-0.48,0.7
2022-02-06 21:37:19.1680,-0.267,-0.754,-0.981,-0.07,0.28,3.29,0.59,-0.63,0.81
2022-02-06 21:37:19.1770,-0.303,-0.745,-0.969,0.2,0.36,3.16,0.68,-0.79,0.88
2022-02-06 21:37:19.1870,-0.346,-0.729,-0.973,0.2,0.36,3.16,0.68,-0.79,0.88
2022-02-06 21:37:19.1970,-0.383,-0.712,-0.976,0.76,-0.01,3.38,0.92,-1.08,0.85
2022-02-06 21:37:19.2070,-0.411,-0.696,-0.972,0.76,-0.01,3.38,1.02,-1.19,0.71
2022-02-06 21:37:19.2170,-0.426,-0.692,-0.951,0.93,-0.21,3.45,1.06,-1.24,0.51
2022-02-06 21:37:19.2270,-0.428,-0.694,-0.919,0.99,-0.32,3.41,1.0,-1.23,0.24
2022-02-06 21:37:19.2370,-0.429,-0.697,-0.889,0.94,-0.36,3.22,0.83,-1.15,-0.04
2022-02-06 21:37:19.2470,-0.43,-0.703,-0.848,0.83,-0.37,2.75,0.59,-0.96,-0.34
2022-02-06 21:37:19.2570,-0.424,-0.7,-0.807,0.83,-0.37,2.75,0.59,-0.96,-0.34
2022-02-06 21:37:19.2680,-0.407,-0.691,-0.78,0.77,-0.41,2.38,0.07,-0.31,-0.88
2022-02-06 21:37:19.2770,-0.375,-0.686,-0.752,0.66,-0.53,2.13,-0.14,0.1,-1.09
2022-02-06 21:37:19.2870,-0.338,-0.683,-0.725,0.18,-0.67,1.57,-0.29,0.54,-1.24
2022-02-06 21:37:19.2970,-0.301,-0.671,-0.699,-0.05,-0.79,1.27,-0.39,0.94,-1.35
2022-02-06 21:37:19.3070,-0.261,-0.663,-0.684,-0.05,-0.79,1.27,-0.43,1.24,-1.38
2022-02-06 21:37:19.3180,-0.225,-0.67,-0.693,-0.46,-0.89,0.97,-0.43,1.24,-1.38
2022-02-06 21:37:19.3270,-0.182,-0.682,-0.708,-0.69,-0.78,1.07,-0.26,1.37,-1.27
2022-02-06 21:37:19.3380,-0.141,-0.688,-0.706,-0.69,-0.78,1.07,-0.06,1.24,-1.18
2022-02-06 21:37:19.3480,-0.112,-0.691,-0.708,-1.11,-0.72,1.01,0.16,1.01,-1.09
2022-02-06 21:37:19.3570,-0.099,-0.69,-0.702,-1.11,-0.72,1.01,0.37,0.74,-1.01
2022-02-06 21:37:19.3680,-0.09,-0.689,-0.676,-1.13,-0.76,1.0,0.54,0.48,-0.94
2022-02-06 21:37:19.3780,-0.09,-0.693,-0.644,-1.12,-0.82,0.79,0.66,0.27,-0.88
2022-02-06 21:37:19.3880,-0.095,-0.695,-0.604,-0.92,-0.88,0.21,0.75,0.17,-0.84
2022-02-06 21:37:19.3980,-0.102,-0.704,-0.557,-0.92,-0.88,0.21,0.79,0.13,-0.81
2022-02-06 21:37:19.4080,-0.112,-0.715,-0.532,-0.63,-0.81,-0.46,0.77,0.1,-0.79
2022-02-06 21:37:19.4180,-0.134,-0.716,-0.538,-0.63,-0.81,-0.46,0.68,0.03,-0.79
2022-02-06 21:37:19.4280,-0.158,-0.716,-0.546,-0.38,-0.83,-0.42,0.55,0.0,-0.81
2022-02-06 21:37:19.4380,-0.178,-0.73,-0.533,0.2,-0.83,-0.31,0.41,0.05,-0.85
2022-02-06 21:37:19.4480,-0.19,-0.749,-0.519,0.2,-0.83,-0.31,0.31,0.18,-0.91
2022-02-06 21:37:19.4580,-0.194,-0.761,-0.498,0.42,-0.67,-0.41,0.23,0.37,-0.99
2022-02-06 21:37:19.4680,-0.194,-0.762,-0.483,0.55,-0.56,-0.59,0.17,0.57,-1.06
2022-02-06 21:37:19.4780,-0.19,-0.762,-0.467,0.68,-0.55,-0.74,0.13,0.79,-1.1
2022-02-06 21:37:19.4880,-0.178,-0.773,-0.443,0.77,-0.58,-0.89,0.09,1.01,-1.08
2022-02-06 21:37:19.4980,-0.157,-0.789,-0.421,0.81,-0.52,-1.1,0.09,1.01,-1.08
2022-02-06 21:37:19.5080,-0.134,-0.8,-0.43,0.77,-0.37,-1.36,-0.06,1.17,-0.99
2022-02-06 21:37:19.5190,-0.119,-0.807,-0.45,0.68,-0.25,-1.36,-0.18,1.09,-0.94
2022-02-06 21:37:19.5280,-0.101,-0.819,-0.46,0.65,-0.18,-1.18,-0.3,0.99,-0.9
2022-02-06 21:37:19.5380,-0.079,-0.839,-0.458,0.54,0.13,-1.1,-0.38,0.93,-0.86
2022-02-06 21:37:19.5490,-0.062,-0.848,-0.461,0.54,0.13,-1.1,-0.42,0.91,-0.79
2022-02-06 21:37:19.5580,-0.051,-0.841,-0.464,0.47,0.29,-1.13,-0.43,0.92,-0.71
2022-02-06 21:37:19.5690,-0.042,-0.833,-0.462,0.48,0.21,-1.17,-0.41,0.96,-0.61
2022-02-06 21:37:19.5790,-0.035,-0.818,-0.467,0.51,0.11,-1.18,-0.36,0.99,-0.49
2022-02-06 21:37:19.5880,-0.028,-0.799,-0.474,0.51,0.11,-1.18,-0.3,1.02,-0.36
2022-02-06 21:37:19.5980,-0.025,-0.784,-0.472,0.53,-0.05,-1.13,-0.25,1.04,-0.21
2022-02-06 21:37:19.6080,-0.021,-0.782,-0.481,0.58,-0.21,-1.16,-0.21,1.02,-0.04
2022-02-06 21:37:19.6190,-0.007,-0.79,-0.496,0.62,-0.24,-1.12,-0.16,0.99,0.12
2022-02-06 21:37:19.6280,0.011,-0.79,-0.508,0.57,-0.17,-0.99,-0.1,0.92,0.27
2022-02-06 21:37:19.6380,0.025,-0.786,-0.529,0.43,-0.13,-0.88,-0.04,0.82,0.4
2022-02-06 21:37:19.6480,0.031,-0.785,-0.544,0.3,-0.16,-0.7,0.03,0.72,0.52
2022-02-06 21:37:19.6590,0.022,-0.777,-0.551,0.24,-0.18,-0.51,0.1,0.63,0.63
2022-02-06 21:37:19.6690,0.007,-0.766,-0.554,0.4,-0.36,-0.37,0.1,0.63,0.63
2022-02-06 21:37:19.6790,-0.006,-0.766,-0.546,0.5,-0.41,-0.41,0.15,0.58,0.84
2022-02-06 21:37:19.6890,-0.032,-0.771,-0.537,0.69,-0.36,-0.5,0.15,0.58,0.84
2022-02-06 21:37:19.6990,-0.058,-0.763,-0.536,0.69,-0.36,-0.5,0.17,0.68,0.97
2022-02-06 21:37:19.7090,-0.073,-0.751,-0.528,0.93,-0.41,-0.51,0.18,0.75,0.97
2022-02-06 21:37:19.7190,-0.081,-0.747,-0.517,1.06,-0.55,-0.55,0.18,0.8,0.96
2022-02-06 21:37:19.7290,-0.079,-0.745,-0.512,1.12,-0.62,-0.65,0.16,0.83,0.95
2022-02-06 21:37:19.7390,-0.068,-0.742,-0.507,1.1,-0.66,-0.69,0.16,0.83,0.95
2022-02-06 21:37:19.7490,-0.065,-0.739,-0.513,0.97,-0.69,-0.73,0.06,0.78,0.93
2022-02-06 21:37:19.7590,-0.067,-0.74,-0.505,0.89,-0.73,-0.68,-0.03,0.78,0.93
2022-02-06 21:37:19.7690,-0.068,-0.75,-0.5,0.85,-0.66,-0.81,-0.15,0.75,0.96
2022-02-06 21:37:19.7790,-0.078,-0.761,-0.519,0.85,-0.66,-0.81,-0.15,0.75,0.96
2022-02-06 21:37:19.7890,-0.1,-0.759,-0.548,0.88,-0.53,-0.7,-0.47,0.62,0.99
2022-02-06 21:37:19.7990,-0.133,-0.747,-0.577,1.03,-0.49,-0.45,-0.63,0.55,0.97
2022-02-06 21:37:19.8090,-0.168,-0.734,-0.61,1.28,-0.57,-0.21,-0.75,0.51,0.91
2022-02-06 21:37:19.8190,-0.203,-0.719,-0.66,1.89,-0.75,0.43,-0.8,0.46,0.82
2022-02-06 21:37:19.8290,-0.231,-0.697,-0.697,1.89,-0.75,0.43,-0.79,0.48,0.74
2022-02-06 21:37:19.8390,-0.249,-0.672,-0.699,2.33,-1.1,0.83,-0.74,0.58,0.69
2022-02-06 21:37:19.8490,-0.253,-0.658,-0.685,2.33,-1.1,0.83,-0.7,0.74,0.72
2022-02-06 21:37:19.8590,-0.25,-0.646,-0.673,2.39,-1.22,0.67,-0.7,0.74,0.72
2022-02-06 21:37:19.8700,-0.253,-0.623,-0.672,2.36,-1.44,0.39,-0.74,1.0,0.85
2022-02-06 21:37:19.8800,-0.252,-0.605,-0.671,2.37,-1.59,0.3,-0.86,1.06,0.92
2022-02-06 21:37:19.8890,-0.246,-0.61,-0.686,2.32,-1.54,0.33,-1.01,1.03,0.98
2022-02-06 21:37:19.9000,-0.239,-0.634,-0.709,2.32,-1.54,0.33,-1.12,0.95,1.04
2022-02-06 21:37:19.9090,-0.239,-0.66,-0.74,2.23,-1.28,0.48,-1.15,0.78,1.09
2022-02-06 21:37:19.9200,-0.245,-0.654,-0.79,2.2,-0.81,1.03,-1.07,0.5,1.11
2022-02-06 21:37:19.9300,-0.258,-0.628,-0.839,2.2,-0.81,1.03,-0.89,0.14,1.12
2022-02-06 21:37:19.9390,-0.278,-0.61,-0.876,2.35,-1.12,1.8,-0.66,-0.25,1.15
2022-02-06 21:37:19.9500,-0.297,-0.606,-0.9,2.44,-1.15,2.01,-0.39,-0.65,1.21
2022-02-06 21:37:19.9600,-0.307,-0.614,-0.923,2.44,-1.15,2.01,-0.13,-1.05,1.3
2022-02-06 21:37:19.9700,-0.306,-0.634,-0.937,2.42,-1.07,2.22,0.1,-1.42,1.39
2022-02-06 21:37:19.9800,-0.301,-0.66,-0.944,2.0,-0.64,2.49,0.3,-1.71,1.45
2022-02-06 21:37:19.9900,-0.308,-0.668,-0.929,2.0,-0.64,2.49,0.47,-1.86,1.46
2022-02-06 21:37:20.0000,-0.329,-0.653,-0.891,1.75,-0.62,2.18,0.62,-1.89,1.43
2022-02-06 21:37:20.0100,-0.359,-0.628,-0.852,1.75,-0.62,2.18,0.62,-1.89,1.43
2022-02-06 21:37:20.0200,-0.381,-0.608,-0.804,1.85,-1.12,1.51,0.8,-1.71,1.22
2022-02-06 21:37:20.0300,-0.388,-0.605,-0.761,1.85,-1.12,1.51,0.8,-1.71,1.22
2022-02-06 21:37:20.0400,-0.373,-0.633,-0.718,1.5,-1.06,0.83,0.72,-1.41,0.89
2022-02-06 21:37:20.0500,-0.352,-0.669,-0.681,1.15,-0.72,0.52,0.59,-1.26,0.73
2022-02-06 21:37:20.0600,-0.325,-0.696,-0.65,1.15,-0.72,0.52,0.41,-1.12,0.57
2022-02-06 21:37:20.0700,-0.3,-0.725,-0.622,0.42,-0.19,0.04,0.23,-0.98,0.42
2022-02-06 21:37:20.0810,-0.278,-0.757,-0.601,0.42,-0.19,0.04,0.06,-0.86,0.28
2022-02-06 21:37:20.0900,-0.261,-0.775,-0.593,0.11,0.13,-0.15,-0.11,-0.77,0.13
2022-02-06 21:37:20.1000,-0.245,-0.783,-0.593,-0.34,0.46,-0.24,-0.25,-0.72,-0.02
2022-02-06 21:37:20.1100,-0.234,-0.785,-0.594,-0.5,0.52,-0.25,-0.36,-0.71,-0.17
2022-02-06 21:37:20.1210,-0.22,-0.779,-0.599,-0.65,0.49,-0.21,-0.43,-0.7,-0.31
2022-02-06 21:37:20.1300,-0.205,-0.778,-0.602,-0.65,0.49,-0.21,-0.47,-0.73,-0.43
2022-02-06 21:37:20.1400,-0.19,-0.766,-0.617,-0.82,0.49,-0.2,-0.49,-0.78,-0.54
2022-02-06 21:37:20.1500,-0.172,-0.757,-0.63,-1.16,0.31,0.04,-0.49,-0.83,-0.62
2022-02-06 21:37:20.1600,-0.162,-0.766,-0.633,-1.29,0.37,0.07,-0.44,-0.88,-0.64
2022-02-06 21:37:20.1710,-0.159,-0.782,-0.645,-1.29,0.37,0.07,-0.44,-0.88,-0.64
2022-02-06 21:37:20.1800,-0.167,-0.783,-0.656,-1.34,0.54,0.16,-0.29,-0.97,-0.6
2022-02-06 21:37:20.1900,-0.181,-0.777,-0.657,-1.31,0.6,0.29,-0.17,-0.98,-0.59
2022-02-06 21:37:20.2010,-0.196,-0.771,-0.661,-1.2,0.55,0.33,-0.03,-0.97,-0.59
2022-02-06 21:37:20.2100,-0.209,-0.763,-0.656,-1.07,0.48,0.3875394201278687,0.09,-0.95,-0.61
2022-02-06 21:37:20.2210,-0.213,-0.752,-0.645,-0.95,0.39,0.38,0.18,-0.91,-0.65
2022-02-06 21:37:20.2310,-0.203,-0.745,-0.628,-0.96,0.14,0.21,0.22,-0.86,-0.7
2022-02-06 21:37:20.2400,-0.181,-0.745,-0.61,-0.96,0.14,0.21,0.2,-0.8,-0.72
2022-02-06 21:37:20.2500,-0.158,-0.746,-0.593,-1.38,0.08,-0.06,0.15,-0.71,-0.73
2022-02-06 21:37:20.2600,-0.138,-0.747,-0.575,-1.38,0.08,-0.06,0.1,-0.6,-0.73
2022-02-06 21:37:20.2710,-0.123,-0.753,-0.563,-1.72,0.08,-0.33,0.07,-0.49,-0.71
2022-02-06 21:37:20.2820,-0.113,-0.758,-0.567,-1.8,0.1,-0.31,0.07,-0.39,-0.66
2022-02-06 21:37:20.2910,-0.116,-0.773,-0.572,-1.8,0.1,-0.31,0.14,-0.29,-0.57
2022-02-06 21:37:20.3010,-0.125,-0.792,-0.57,-1.66,0.36,-0.21,0.28,-0.15,-0.46
2022-02-06 21:37:20.3110,-0.121,-0.798,-0.55,-1.66,0.36,-0.21,0.47,0.01,-0.37
2022-02-06 21:37:20.3210,-0.1,-0.8,-0.538,-1.65,0.43,-0.34,0.62,0.1,-0.29
2022-02-06 21:37:20.3310,-0.069,-0.827,-0.538,-1.78,0.39,-0.47,0.62,0.1,-0.29
2022-02-06 21:37:20.3410,-0.05,-0.881,-0.52,-2.25,0.98,-0.5,0.64,0.17,-0.09
2022-02-06 21:37:20.3510,-0.027,-0.927,-0.505,-2.25,0.98,-0.5,0.53,0.14,0.01
2022-02-06 21:37:20.3610,-0.009,-0.959,-0.514,-2.45,1.44,-0.65,0.34,-0.01,0.05
2022-02-06 21:37:20.3710,0.006,-0.981,-0.539,-2.81,1.99,-0.35,0.11,-0.24,0.04
2022-02-06 21:37:20.3810,0.008,-0.993,-0.559,-2.89,2.14,-0.12,-0.14,-0.42,-0.03
2022-02-06 21:37:20.3910,-0.008,-0.976,-0.555,-2.89,2.14,-0.12,-0.34,-0.48,-0.12
2022-02-06 21:37:20.4010,-0.034,-0.939,-0.531,-2.55,1.73,-0.32,-0.45,-0.41,-0.21
2022-02-06 21:37:20.4120,-0.04,-0.909,-0.535,-2.55,1.73,-0.32,-0.5,-0.32,-0.28
2022-02-06 21:37:20.4220,-0.04,-0.89,-0.562,-2.45,1.44,-0.41,-0.45,-0.26,-0.31
2022-02-06 21:37:20.4310,-0.03,-0.88,-0.585,-2.44,1.25,-0.21,-0.32,-0.21,-0.31
2022-02-06 21:37:20.4410,-0.014,-0.873,-0.6,-2.49,1.15,0.02,-0.32,-0.21,-0.31
2022-02-06 21:37:20.4510,0.004,-0.866,-0.607,-2.63,1.08,0.17,0.14,-0.2,-0.22
2022-02-06 21:37:20.4610,0.018,-0.848,-0.616,-2.96,0.86,0.36,0.37,-0.27,-0.17
2022-02-06 21:37:20.4720,0.029,-0.81,-0.613,-2.96,0.86,0.36,0.53,-0.38,-0.16
2022-02-06 21:37:20.4810,0.034,-0.774,-0.596,-3.14,0.08,0.33,0.6,-0.46,-0.17
2022-02-06 21:37:20.4910,0.04,-0.761,-0.567,-3.21,-0.14,0.13,0.59,-0.51,-0.19
2022-02-06 21:37:20.5020,0.045,-0.76,-0.54,-3.21,-0.14,0.13,0.53,-0.53,-0.23
2022-02-06 21:37:20.5120,0.055,-0.759,-0.529,-3.27,-0.19,-0.1,0.43,-0.52,-0.27
2022-02-06 21:37:20.5220,0.067,-0.769,-0.522,-3.49,-0.21,-0.22,0.34,-0.51,-0.3
2022-02-06 21:37:20.5320,0.079,-0.79,-0.527,-3.49,-0.21,-0.22,0.34,-0.51,-0.3
2022-02-06 21:37:20.5420,0.082,-0.81,-0.531,-3.61,-0.04,-0.17,0.23,-0.43,-0.27
2022-02-06 21:37:20.5510,0.076,-0.824,-0.528,-3.67,0.14,-0.07151846408843994,0.22,-0.37,-0.21
2022-02-06 21:37:20.5610,0.068,-0.835,-0.53,-3.63,0.27,-0.08,0.23,-0.28,-0.14
2022-02-06 21:37:20.5720,0.055,-0.842,-0.525,-3.46,0.42,-0.03,0.26,-0.17,-0.09
2022-02-06 21:37:20.5820,0.041,-0.858,-0.509,-3.46,0.42,-0.03,0.29,-0.04,-0.06
2022-02-06 21:37:20.5920,0.032,-0.873,-0.501,-3.32,0.54,-0.16,0.31,0.06,-0.06
2022-02-06 21:37:20.6020,0.022,-0.888,-0.491,-3.21,0.69,-0.23,0.31,0.13,-0.09
2022-02-06 21:37:20.6120,0.02,-0.906,-0.478,-3.1,0.81,-0.29,0.27,0.16,-0.14
2022-02-06 21:37:20.6220,0.024,-0.925,-0.475,-3.04,0.97,-0.42,0.18,0.15,-0.19
2022-02-06 21:37:20.6320,0.034,-0.955,-0.469,-3.05,1.13,-0.44,0.18,0.15,-0.19
2022-02-06 21:37:20.6420,0.039,-0.983,-0.473,-3.17,1.68,-0.49,-0.05,0.02,-0.24
2022-02-06 21:37:20.6520,0.034,-0.994,-0.485,-3.12,1.82,-0.39,-0.14,-0.07,-0.27
2022-02-06 21:37:20.6630,0.022,-0.996,-0.497,-3.12,1.82,-0.39,-0.2,-0.14,-0.3
2022-02-06 21:37:20.6730,-0.001,-0.996,-0.515,-2.79,1.87,-0.14,-0.22,-0.18,-0.33
2022-02-06 21:37:20.6820,-0.026,-0.994,-0.531,-2.79,1.87,-0.14,-0.2,-0.19,-0.36
2022-02-06 21:37:20.6920,-0.043,-0.993,-0.547,-2.52,1.85,0.02,-0.16,-0.19,-0.4
2022-02-06 21:37:20.7020,-0.06,-0.994,-0.564,-2.13,1.84,0.32,-0.1,-0.18,-0.45
2022-02-06 21:37:20.7130,-0.073,-0.994,-0.581,-1.96,1.84,0.48,-0.05,-0.18,-0.51
2022-02-06 21:37:20.7230,-0.083,-0.996,-0.595,-1.96,1.84,0.48,-0.01,-0.18,-0.57
2022-02-06 21:37:20.7320,-0.091,-1.005,-0.603,-1.82,1.83,0.63,-0.0,-0.17,-0.61
2022-02-06 21:37:20.7420,-0.099,-1.022,-0.61,-1.59,2.02,0.79,-0.02,-0.14,-0.63
2022-02-06 21:37:20.7520,-0.11,-1.049,-0.619,-1.44,2.25,0.88,-0.06,-0.08,-0.63
2022-02-06 21:37:20.7630,-0.125,-1.075,-0.623,-1.44,2.25,0.88,-0.09,-0.0,-0.64
2022-02-06 21:37:20.7730,-0.145,-1.074,-0.634,-1.26,2.53,0.92,-0.08,0.07,-0.7
2022-02-06 21:37:20.7830,-0.166,-1.055,-0.655,-0.76,2.4,1.17,-0.05,0.1,-0.81
2022-02-06 21:37:20.7920,-0.183,-1.036,-0.683,-0.76,2.4,1.17,0.0,0.07,-0.93
2022-02-06 21:37:20.8030,-0.199,-1.013,-0.709,-0.26,1.97,1.7,0.06,-0.02,-1.05
2022-02-06 21:37:20.8130,-0.201,-0.976,-0.725,-0.26,1.97,1.7,0.14,-0.1,-1.15
2022-02-06 21:37:20.8230,-0.187,-0.941,-0.72,-0.11,1.61,1.9,0.2,-0.15,-1.24
2022-02-06 21:37:20.8330,-0.165,-0.924,-0.711,-0.23,0.96,1.82,0.21,-0.16,-1.29
2022-02-06 21:37:20.8430,-0.143,-0.92,-0.702,-0.36,0.87,1.79,0.18,-0.1,-1.3
2022-02-06 21:37:20.8530,-0.127,-0.91,-0.684,-0.36,0.87,1.79,0.09,0.02,-1.27
2022-02-06 21:37:20.8630,-0.117,-0.906,-0.67,-0.44,0.67,1.48,-0.0,0.19,-1.2
2022-02-06 21:37:20.8730,-0.111,-0.911,-0.651,-0.44,0.67,1.48,-0.07,0.39,-1.08
2022-02-06 21:37:20.8830,-0.105,-0.911,-0.644,-0.4,0.69,1.29,-0.07,0.58,-0.95
2022-02-06 21:37:20.8930,-0.094,-0.908,-0.644,-0.32,0.66,1.15,0.01,0.71,-0.82
2022-02-06 21:37:20.9120,-0.082,-0.907,-0.652,-0.35,0.64,1.2,0.15,0.74,-0.69
2022-02-06 21:37:20.9160,-0.079,-0.899,-0.656,-0.32,0.57,1.27,0.32,0.68,-0.59
2022-02-06 21:37:20.9260,-0.086,-0.881,-0.647,-0.18,0.39,1.24,0.5,0.53,-0.5
Time,-0.095,-0.863,-0.628,-0.03,0.17,1.12,0.5,0.53,-0.5
2022-02-06 21:37:20.9460,-0.094,-0.858,-0.604,0.03,0.04,0.94,0.72,0.11,-0.35
2022-02-06 21:37:20.9560,-0.085,-0.864,-0.575,-0.02,0.05,0.72,0.74,-0.12,-0.26
2022-02-06 21:37:20.9660,-0.076,-0.866,-0.549,-0.1,0.05,0.52,0.72,-0.36,-0.18
2022-02-06 21:37:20.9760,-0.073,-0.859,-0.53,-0.15,-0.04,0.39,0.66,-0.55,-0.12
2022-02-06 21:37:20.9770,-0.077,-0.852,-0.506,-0.16,-0.14,0.22,0.58,-0.68,-0.06
2022-02-06 21:37:20.9870,-0.089,-0.843,-0.48,-0.09,-0.25,0.02,0.5,-0.72,-0.01
2022-02-06 21:37:21.0060,-0.1,-0.829,-0.456,0.0,-0.39,-0.18,0.4,-0.69,0.02
2022-02-06 21:37:21.0160,-0.106,-0.812,-0.439,0.03,-0.58,-0.33,0.31,-0.64,0.03
2022-02-06 21:37:21.0170,-0.124,-0.797,-0.442,0.13,-0.73,-0.32,0.22,-0.6,0.01
Time,-0.145,-0.775,-0.441,0.33,-0.94,-0.28,0.14,-0.56,-0.04
Time,-0.164,-0.754,-0.454,0.48,-1.17,-0.21,0.08,-0.57,-0.12
2022-02-06 21:37:21.0560,-0.185,-0.745,-0.475,0.68,-1.28,0.03,0.07,-0.6,-0.22
2022-02-06 21:37:21.0580,-0.193,-0.732,-0.494,0.79,-1.39,0.21,0.07,-0.7,-0.35
Time,-0.189,-0.718,-0.523,0.78,-1.55,0.5,0.07,-0.83,-0.49
2022-02-06 21:37:21.0780,-0.171,-0.72,-0.54,0.64,-1.58,0.72,0.03,-0.96,-0.62
2022-02-06 21:37:21.0880,-0.153,-0.725,-0.54,0.46,-1.53,0.77,-0.03,-1.0,-0.74
2022-02-06 21:37:21.0990,-0.14,-0.715,-0.528,0.34,-1.58,0.67,-0.12,-0.98,-0.88
2022-02-06 21:37:21.1090,-0.132,-0.693,-0.518,0.28,-1.79,0.56,-0.24,-0.88,-1.0
2022-02-06 21:37:21.1190,-0.141,-0.672,-0.503,0.39,-2.0,0.41,-0.36,-0.71,-1.07
Time,-0.148,-0.647,-0.491,0.53,-2.21,0.24,-0.46,-0.54,-1.11
2022-02-06 21:37:21.1380,-0.147,-0.618,-0.496,0.62,-2.48,0.2,-0.53,-0.43,-1.13
2022-02-06 21:37:21.1490,-0.133,-0.596,-0.518,0.6,-2.72,0.34,-0.58,-0.42,-1.15
2022-02-06 21:37:21.1590,-0.106,-0.595,-0.55,0.45,-2.75,0.58,-0.62,-0.53,-1.17
2022-02-06 21:37:21.1690,-0.064,-0.608,-0.593,0.13,-2.62,0.93,-0.67,-0.73,-1.24
2022-02-06 21:37:21.1790,-0.029,-0.628,-0.627,-0.18,-2.43,1.26,-0.72,-0.89,-1.3
2022-02-06 21:37:21.1890,-0.008,-0.659,-0.62,-0.34,-2.11,1.23,-0.72,-0.94,-1.32
2022-02-06 21:37:21.1990,0.011,-0.679,-0.603,-0.47,-1.83,0.99,-0.66,-0.93,-1.33
2022-02-06 21:37:21.2170,0.031,-0.676,-0.607,-0.59,-1.8,0.92,-0.57,-0.95,-1.32
2022-02-06 21:37:21.2270,0.056,-0.68,-0.626,-0.75,-1.77,1.05,-0.47,-1.05,-1.3
2022-02-06 21:37:21.2370,0.088,-0.686,-0.648,-1.01,-1.67,1.22,-0.36,-1.21,-1.29
2022-02-06 21:37:21.2380,0.11,-0.677,-0.664,-1.22,-1.7,1.38,-0.29,-1.36,-1.32
2022-02-06 21:37:21.2570,0.125,-0.65,-0.66,-1.34,-1.92,1.38,-0.28,-1.43,-1.38
2022-02-06 21:37:21.2670,0.134,-0.643,-0.624,-1.4,-2.07,1.08,-0.35,-1.29,-1.39
2022-02-06 21:37:21.2680,0.13,-0.674,-0.565,-1.35,-1.81,0.51,-0.47,-0.94,-1.32
Time,0.107,-0.698,-0.512,-1.09,-1.49,-0.1,-0.61,-0.47,-1.19
2022-02-06 21:37:21.2880,0.065,-0.702,-0.477,-0.66,-1.39,-0.55,-0.75,0.04,-0.99
Time,0.004,-0.721,-0.459,-0.01,-1.21,-0.82,-0.85,0.57,-0.75
2022-02-06 21:37:21.3090,-0.056,-0.751,-0.45,0.69,-0.88,-1.01,-0.89,0.99,-0.53
2022-02-06 21:37:21.3190,-0.097,-0.782,-0.475,1.26,-0.54,-0.93,-0.83,1.22,-0.39
Time,-0.113,-0.81,-0.517,1.57,-0.18,-0.59,-0.68,1.28,-0.35
2022-02-06 21:37:21.3390,-0.11,-0.822,-0.548,1.69,0.01,-0.3,-0.47,1.18,-0.41
2022-02-06 21:37:21.3580,-0.089,-0.835,-0.567,1.62,0.13,-0.09,-0.25,0.98,-0.53
2022-02-06 21:37:21.3590,-0.057,-0.853,-0.556,1.41,0.32,-0.12,-0.06,0.77,-0.62
2022-02-06 21:37:21.3700,-0.024,-0.879,-0.513,1.18,0.56,-0.49,0.04,0.59,-0.65
2022-02-06 21:37:21.3880,0.004,-0.91,-0.478,0.96,0.87,-0.86,0.04,0.44,-0.62
2022-02-06 21:37:21.3890,0.018,-0.926,-0.442,0.85,1.08,-1.2,-0.05,0.32,-0.55
2022-02-06 21:37:21.4080,0.019,-0.929,-0.43,0.87,1.15,-1.42,-0.21,0.18,-0.47
2022-02-06 21:37:21.4090,0.003,-0.909,-0.44,1.02,1.06,-1.37,-0.38,0.03,-0.42
2022-02-06 21:37:21.4190,-0.022,-0.86,-0.461,1.3,0.65,-1.23,-0.53,-0.13,-0.42
Time,-0.045,-0.811,-0.484,1.56,0.18,-1.03,-0.61,-0.26,-0.44
2022-02-06 21:37:21.4390,-0.047,-0.779,-0.502,1.67,-0.14,-0.9,-0.61,-0.35,-0.47
2022-02-06 21:37:21.4490,-0.018,-0.773,-0.514,1.47,-0.22,-0.83,-0.57,-0.4,-0.49
2022-02-06 21:37:21.4670,0.019,-0.78,-0.524,1.47,-0.22,-0.7659805727005006,-0.51,-0.41,-0.49
2022-02-06 21:37:21.4770,0.047,-0.786,-0.527,1.11,-0.12,-0.77,-0.48,-0.38,-0.45
2022-02-06 21:37:21.4860,0.059,-0.793,-0.533,0.83,-0.03,-0.77,-0.48,-0.32,-0.35
2022-02-06 21:37:21.4960,0.041,-0.799,-0.54,0.77,0.17,-0.73,-0.46,-0.22,-0.18
2022-02-06 21:37:21.5060,0.002,-0.795,-0.548,1.11,0.2,-0.7,-0.46,-0.22,-0.18
2022-02-06 21:37:21.5170,-0.042,-0.779,-0.559,1.11,0.2,-0.7,-0.24,0.03,0.21
2022-02-06 21:37:21.5260,-0.076,-0.765,-0.57,1.53,0.08,-0.62,-0.01,0.13,0.33
2022-02-06 21:37:21.5360,-0.09,-0.76,-0.595,1.89,-0.07,-0.55,-0.01,0.13,0.33
2022-02-06 21:37:21.5460,-0.092,-0.755,-0.619,2.07,-0.21,-0.03,0.43,0.03,0.3
2022-02-06 21:37:21.5560,-0.096,-0.749,-0.618,2.08,-0.29,0.06,0.53,-0.11,0.19
2022-02-06 21:37:21.5670,-0.099,-0.74,-0.599,2.08,-0.29,0.06,0.53,-0.24,0.06
2022-02-06 21:37:21.5760,-0.099,-0.734,-0.58,2.09,-0.41,-0.06,0.43,-0.36,-0.07
2022-02-06 21:37:21.5870,-0.098,-0.737,-0.563,2.08,-0.51,-0.23,0.25,-0.41,-0.19
2022-02-06 21:37:21.5970,-0.096,-0.744,-0.547,2.03,-0.45,-0.55,0.02,-0.4,-0.3
2022-02-06 21:37:21.6070,-0.091,-0.731,-0.565,2.0,-0.51,-0.47,-0.2,-0.37,-0.43
2022-02-06 21:37:21.6170,-0.084,-0.705,-0.593,2.0,-0.51,-0.47,-0.36,-0.29,-0.56
2022-02-06 21:37:21.6270,-0.066,-0.692,-0.603,1.95,-0.74,-0.2,-0.4,-0.16309651732444763,-0.56
2022-02-06 21:37:21.6370,-0.045,-0.687,-0.603,1.68,-0.91,-0.12,-0.33,-0.01,-0.67
2022-02-06 21:37:21.6470,-0.012,-0.697,-0.592,1.68,-0.91,-0.12,-0.23,0.16,-0.62
2022-02-06 21:37:21.6570,0.036,-0.736,-0.576,1.06,-0.51,-0.39,-0.15,0.3,-0.52
2022-02-06 21:37:21.6680,0.083,-0.801,-0.589,1.06,-0.51,-0.39,-0.14,0.34,-0.42
2022-02-06 21:37:21.6770,0.098,-0.852,-0.608,0.63,0.1,-0.35,-0.16,0.27,-0.35
2022-02-06 21:37:21.6870,0.089,-0.864,-0.615,0.53,0.92,-0.07,-0.21,0.1,-0.35
2022-02-06 21:37:21.6970,0.076,-0.862,-0.615,0.53,0.92,-0.07,-0.27,-0.1,-0.38
2022-02-06 21:37:21.7070,0.092,-0.912,-0.601,0.7,0.89,-0.06,-0.27,-0.252322256565094,-0.39
2022-02-06 21:37:21.7180,0.109,-0.988,-0.587,0.45,2.04,-0.38,-0.35,-0.35,-0.35
2022-02-06 21:37:21.7270,0.11,-1.024,-0.576,0.41,2.54,-0.52,-0.31,-0.4,-0.28
2022-02-06 21:37:21.7370,0.109,-1.024,-0.565,0.41,2.62,-0.65,-0.19,-0.4,-0.19
2022-02-06 21:37:21.7470,0.094,-1.011,-0.544,0.49,2.53,-0.85,-0.02,-0.36,-0.06
2022-02-06 21:37:21.7570,0.072,-1.003,-0.51,0.69,2.4,-1.14,0.18,-0.25,0.09
2022-02-06 21:37:21.7680,0.052,-1.016,-0.459,0.87,2.48,-1.62,0.34,-0.14,0.21
2022-02-06 21:37:21.7770,0.034,-1.031,-0.42,1.0285711339116097,2.6113097923994064,-1.99,0.43,-0.06,0.24
2022-02-06 21:37:21.7870,0.013,-1.035,-0.381,1.02,2.61,-1.99,0.42,-0.03,0.15
2022-02-06 21:37:21.7970,0.005,-1.034,-0.359,1.33,2.61,-2.58,0.32,-0.06,-0.05
2022-02-06 21:37:21.8070,0.02,-1.052,-0.337,1.23,2.72,-2.77,0.16,-0.1,-0.3
2022-02-06 21:37:21.8180,0.047,-1.079,-0.317,1.01,2.98,-2.98,-0.04,-0.12,-0.51
2022-02-06 21:37:21.8270,0.074,-1.087,-0.301,1.01,2.98,-2.98,-0.25,-0.08,-0.64
2022-02-06 21:37:21.8370,0.087,-1.068,-0.28,0.77,3.15,-3.15,-0.44,0.04,-0.65
2022-02-06 21:37:21.8470,0.098,-1.043,-0.265,0.65,3.05,-3.37,-0.58,0.24,-0.55
2022-02-06 21:37:21.8570,0.113,-1.03,-0.262,0.61,2.83,-3.57,-0.65,0.44,-0.35
2022-02-06 21:37:21.8680,0.117,-1.031,-0.278,0.51,2.73,-3.69,-0.63,0.6,-0.07
2022-02-06 21:37:21.8770,0.127,-1.042,-0.31,0.49,2.74,-3.3747655373811725,-0.53,0.64,0.18
2022-02-06 21:37:21.8880,0.152,-1.056,-0.351,0.47,2.88,-3.38,-0.37,0.56,0.35
2022-02-06 21:37:21.8980,0.168,-1.087,-0.391,0.08,3.31,-2.6,-0.18,0.41,0.45
2022-02-06 21:37:21.9070,0.181,-1.113,-0.408,0.08,3.31,-2.6,0.01,0.24,0.46
2022-02-06 21:37:21.9170,0.185,-1.123,-0.425,-0.15,3.72,-2.24,0.14,0.04,0.4
2022-02-06 21:37:21.9270,0.181,-1.118,-0.444,-0.15,3.68,-2.02,0.19,-0.17,0.29
2022-02-06 21:37:21.9370,0.178,-1.107,-0.445,-0.15,3.68,-2.02,0.16,-0.31,0.19
2022-02-06 21:37:21.9470,0.175,-1.099,-0.435,-0.16,3.47,-2.04,0.06,-0.33,0.15
2022-02-06 21:37:21.9570,0.17,-1.089,-0.432,-0.14,3.38,-2.11,-0.08,-0.27,0.17
2022-02-06 21:37:21.9680,0.167,-1.078,-0.439,-0.13,3.27,-2.08,-0.22,-0.17,0.23
2022-02-06 21:37:21.9780,0.166,-1.077,-0.452,-0.13,3.27,-2.08,-0.34,-0.01,0.34
2022-02-06 21:37:21.9880,0.167,-1.084,-0.471,-0.18,3.32,-1.84,-0.42,0.15,0.46
2022-02-06 21:37:21.9980,0.161,-1.09,-0.506,-0.18,3.32,-1.84,-0.42,0.15,0.46
2022-02-06 21:37:22.0080,0.137,-1.091,-0.55,-0.18,3.41,-1.57,-0.44,0.41,0.66
2022-02-06 21:37:22.0180,0.095,-1.086,-0.616,-0.01,3.45,-1.2,-0.31,0.46,0.7
2022-02-06 21:37:22.0280,0.051,-1.067,-0.661,0.77,3.3,-0.09,-0.1,0.49,0.71
2022-02-06 21:37:22.0380,0.023,-1.041,-0.7,0.77,3.3,-0.09,-0.1,0.49,0.71
2022-02-06 21:37:22.0480,0.002,-1.012,-0.741,1.26,2.74,0.72,0.32,0.3,0.73
2022-02-06 21:37:22.0580,-0.013,-0.981,-0.741,1.26,2.74,0.72,0.46,0.21,0.77
2022-02-06 21:37:22.0690,-0.025,-0.945,-0.718,1.37,2.42,0.86,0.46,0.21,0.77
2022-02-06 21:37:22.0790,-0.028,-0.91,-0.687,1.46,2.03,0.69,0.49,0.21,0.86
2022-02-06 21:37:22.0890,-0.018,-0.887,-0.65,1.34,1.34,0.12,0.38,0.32,0.87
2022-02-06 21:37:22.0990,-0.005,-0.861,-0.631,1.18,1.09,-0.1,0.2,0.48,0.83
2022-02-06 21:37:22.1080,0.01,-0.828,-0.63,1.18,1.09,-0.1,-0.01,0.67,0.74
2022-02-06 21:37:22.1190,0.028,-0.81,-0.633,1.0,0.74,-0.13,-0.2,0.9,0.65
2022-02-06 21:37:22.1290,0.041,-0.8,-0.644,0.83,0.51,-0.1,-0.3,1.08,0.59
2022-02-06 21:37:22.1380,0.051,-0.767,-0.666,0.7,0.44,-0.02,-0.32,1.19,0.53
2022-02-06 21:37:22.1490,0.059,-0.731,-0.679,0.59,-0.18,0.32,-0.29,1.26,0.5
2022-02-06 21:37:22.1590,0.075,-0.734,-0.676,0.59,-0.18,0.32,-0.23,1.32,0.55
2022-02-06 21:37:22.1690,0.097,-0.779,-0.662,0.49,-0.27,0.33,-0.17,1.31,0.64
2022-02-06 21:37:22.1790,0.124,-0.814,-0.673,0.12,0.53,0.23,-0.09,1.16,0.72
2022-02-06 21:37:22.1890,0.163,-0.827,-0.692,0.12,0.53,0.23,0.01,0.9,0.73
2022-02-06 21:37:22.1990,0.2,-0.832,-0.715,-0.22,0.69,0.42,0.1,0.55,0.71
2022-02-06 21:37:22.2090,0.214,-0.822,-0.729,-0.85,0.68,0.83,0.13,0.2,0.65
2022-02-06 21:37:22.2190,0.208,-0.799,-0.73,-0.87,0.45,0.88,0.1,-0.02,0.6
2022-02-06 21:37:22.2290,0.184,-0.786,-0.713,-0.71,0.27,0.78,0.06,-0.06,0.55
2022-02-06 21:37:22.2390,0.176,-0.793,-0.675,-0.71,0.27,0.78,0.01,0.13,0.5
2022-02-06 21:37:22.2490,0.18,-0.806,-0.638,-0.62,0.28,0.44,-0.05,0.43,0.46
2022-02-06 21:37:22.2590,0.2,-0.808,-0.623,-0.66,0.42,0.05,-0.11,0.77,0.43
2022-02-06 21:37:22.2690,0.231,-0.817,-0.606,-1.08,0.51,-0.28,-0.17,1.12,0.47
2022-02-06 21:37:22.2790,0.257,-0.839,-0.593,-1.08,0.51,-0.28,-0.23,1.39,0.6
2022-02-06 21:37:22.2880,0.28,-0.85,-0.604,-1.51,0.89,-0.39,-0.27,1.55,0.76
2022-02-06 21:37:22.2990,0.308,-0.858,-0.604,-1.51,0.89,-0.39,-0.28,1.6,0.91
2022-02-06 21:37:22.3090,0.336,-0.881,-0.614,-1.71,0.94,-0.35,-0.28,1.54,1.05
2022-02-06 21:37:22.3190,0.347,-0.903,-0.638,-1.98,1.15,-0.32,-0.26,1.42,1.16
2022-02-06 21:37:22.3290,0.345,-0.912,-0.647,-2.12,1.39,-0.08,-0.25,1.26,1.21
2022-02-06 21:37:22.3390,0.341,-0.915,-0.664,-2.13,1.5,0.03,-0.24,1.05,1.21
2022-02-06 21:37:22.3490,0.331,-0.911,-0.68,-2.06,1.53,0.33,-0.2,0.84,1.22
2022-02-06 21:37:22.3590,0.315,-0.903,-0.688,-1.95,1.45,0.43,-0.13,0.67,1.23
2022-02-06 21:37:22.3700,0.303,-0.887,-0.688,-1.876748648285866,1.32,0.44,-0.13,0.67,1.23
2022-02-06 21:37:22.3800,0.285,-0.858,-0.7,-1.88,1.32,0.44,0.04,0.4,1.35
2022-02-06 21:37:22.3890,0.259,-0.824,-0.714,-1.63,0.7,0.68,0.1,0.31,1.44
2022-02-06 21:37:22.3990,0.23,-0.786,-0.707,-1.63,0.7,0.68,0.15,0.3,1.54
2022-02-06 21:37:22.4090,0.2,-0.741,-0.692,-1.44,0.32,0.68,0.18,0.35,1.65
2022-02-06 21:37:22.4190,0.173,-0.684,-0.676,-1.07,-0.68,0.42,0.15,0.47,1.75
2022-02-06 21:37:22.4300,0.152,-0.64,-0.649,-1.07,-0.68,0.42,0.15,0.47,1.75
2022-02-06 21:37:22.4400,0.123,-0.613,-0.606,-0.8,-1.49,-0.19,-0.09,0.99,1.99
2022-02-06 21:37:22.4490,0.088,-0.583,-0.573,-0.55,-1.75,-0.59,-0.27,1.3,2.07
2022-02-06 21:37:22.4600,0.048,-0.547,-0.575,-0.55,-1.75,-0.59,-0.46,1.56,2.1
2022-02-06 21:37:22.4700,0.018,-0.515,-0.585,0.03,-2.39,-0.6,-0.64,1.76,2.06
2022-02-06 21:37:22.4800,0.0,-0.496,-0.606,0.03,-2.39,-0.6,-0.64,1.76,2.06
2022-02-06 21:37:22.4900,-0.02,-0.476,-0.649,0.35,-2.7,-0.16,-0.76,1.82,1.92
2022-02-06 21:37:22.5000,-0.034,-0.442,-0.693,0.49,-2.95,0.23,-0.68,1.68,1.82
2022-02-06 21:37:22.5100,-0.035,-0.405,-0.73,0.49,-2.95,0.23,-0.54,1.5,1.73
2022-02-06 21:37:22.5200,-0.026,-0.385,-0.74,0.4,-3.51,0.72,-0.33,1.34,1.7
2022-02-06 21:37:22.5300,-0.021,-0.386,-0.741,0.4,-3.51,0.72,-0.06,1.18,1.75
2022-02-06 21:37:22.5400,-0.027,-0.393,-0.738,0.26,-3.46,0.72,0.24,1.08,1.86
2022-02-06 21:37:22.5500,-0.047,-0.385,-0.709,0.35,-3.5,0.48,0.52,1.0,1.97
2022-02-06 21:37:22.5600,-0.062,-0.355,-0.697,0.45,-3.81,0.36,0.7,0.89,2.03
2022-02-06 21:37:22.5710,-0.068,-0.341,-0.708,0.41,-4.06,0.45,0.73,0.67,2.05
2022-02-06 21:37:22.5800,-0.075,-0.37,-0.737,0.41,-4.06,0.45,0.63,0.39,2.06
2022-02-06 21:37:22.5900,-0.075,-0.439,-0.757,0.36,-3.93,0.77,0.49,0.13,2.04
2022-02-06 21:37:22.6000,-0.066,-0.502,-0.775,0.03,-2.69,1.23,0.38,-0.1,1.97
2022-02-06 21:37:22.6110,-0.07,-0.525,-0.802,-0.13,-2.35,1.51,0.36,-0.26,1.82
2022-02-06 21:37:22.6200,-0.097,-0.499,-0.808,-0.13,-2.35,1.51,0.36,-0.26,1.82
2022-02-06 21:37:22.6310,-0.129,-0.449,-0.768,-0.07,-2.51,1.7,0.61,-0.08,1.39
2022-02-06 21:37:22.6400,-0.162,-0.404,-0.725,0.34,-3.49,1.02,0.73,0.17,1.22
2022-02-06 21:37:22.6500,-0.182,-0.392,-0.69,0.52,-3.73,0.74,0.76,0.46,1.14
2022-02-06 21:37:22.6600,-0.17,-0.42,-0.651,0.52,-3.73,0.74,0.72,0.73,1.12
2022-02-06 21:37:22.6700,-0.133,-0.475,-0.617,0.07,-3.12,0.09,0.62,0.94,1.14
2022-02-06 21:37:22.6800,-0.097,-0.537,-0.597,-0.32,-2.53,-0.11,0.5,1.05,1.18
2022-02-06 21:37:22.6900,-0.068,-0.577,-0.592,-0.66,-2.07,-0.18,0.37,1.05,1.18
2022-02-06 21:37:22.7010,-0.055,-0.592,-0.593,-0.66,-2.07,-0.18,0.27,0.98,1.16
2022-02-06 21:37:22.7100,-0.062,-0.601,-0.589,-0.87,-1.88,-0.15,0.2,0.87,1.11
2022-02-06 21:37:22.7210,-0.074,-0.604,-0.584,-0.87,-1.78,-0.18,0.18,0.71,1.07
2022-02-06 21:37:22.7310,-0.101,-0.605,-0.589,-0.62,-1.71,-0.2,0.22,0.53,1.04
2022-02-06 21:37:22.7410,-0.137,-0.597,-0.581,-0.62,-1.71,-0.2,0.29,0.37,0.98
2022-02-06 21:37:22.7500,-0.155,-0.582,-0.562,-0.32,-1.76,-0.21,0.29,0.37,0.98
2022-02-06 21:37:22.7600,-0.149,-0.579,-0.551,-0.19,-1.99,-0.49,0.38,0.06,0.75
2022-02-06 21:37:22.7710,-0.121,-0.607,-0.538,-0.19,-1.99,-0.49,0.32,-0.06,0.6
2022-02-06 21:37:22.7800,-0.089,-0.645,-0.509,-0.84,-1.43,-0.78,0.21,-0.07,0.48
2022-02-06 21:37:22.7910,-0.061,-0.67,-0.478,-1.17,-1.14,-1.1,0.09,0.01,0.38
2022-02-06 21:37:22.8010,-0.051,-0.678,-0.454,-1.34,-1.02,-1.33,-0.02,0.18,0.32
2022-02-06 21:37:22.8110,-0.05,-0.674,-0.427,-1.34,-1.02,-1.33,-0.11,0.42,0.31
2022-02-06 21:37:22.8210,-0.05,-0.665,-0.403,-1.37,-1.02,-1.6,-0.15,0.69,0.33
2022-02-06 21:37:22.8310,-0.045,-0.663,-0.383,-1.36,-1.09,-1.87,-0.15,0.94,0.36
2022-02-06 21:37:22.8410,-0.03,-0.677,-0.376,-1.46,-1.01,-2.25,-0.12,1.13,0.37
2022-02-06 21:37:22.8510,-0.013,-0.703,-0.386,-1.46,-1.01,-2.25,-0.12,1.26,0.38
2022-02-06 21:37:22.8610,0.006,-0.747,-0.379,-1.59,-0.78,-2.21,-0.13,1.42,0.41
2022-02-06 21:37:22.8710,0.036,-0.812,-0.367,-1.94,0.24,-2.46,-0.17,1.54,0.44
2022-02-06 21:37:22.8810,0.051,-0.863,-0.412,-2.07,0.83,-2.19,-0.23,1.57,0.44
2022-02-06 21:37:22.8910,0.058,-0.882,-0.479,-2.09,1.11,-1.61,-0.34,1.49,0.37
2022-02-06 21:37:22.9010,0.052,-0.89,-0.572,-2.09,1.11,-1.61,-0.5,1.32,0.26
2022-02-06 21:37:22.9110,0.036,-0.908,-0.667,-2.01,1.22,-0.83,-0.62,1.18,0.16
2022-02-06 21:37:22.9210,0.025,-0.912,-0.737,-1.79,1.42,0.1,-0.6,1.08,0.12
2022-02-06 21:37:22.9310,0.014,-0.898,-0.794,-1.61,1.55,0.76,-0.4,1.04,0.17
2022-02-06 21:37:22.9410,0.007,-0.861,-0.821,-1.3,1.2,1.62,-0.1,0.99,0.27
2022-02-06 21:37:22.9510,0.026,-0.836,-0.84,-1.39,0.88,1.79,0.12,0.88,0.44
2022-02-06 21:37:22.9620,0.043,-0.863,-0.844,-1.39,0.88,1.79,0.17,0.69,0.67
2022-02-06 21:37:22.9710,0.044,-0.909,-0.844,-1.64,1.47,1.88,0.05,0.46,0.9
2022-02-06 21:37:22.9810,0.036,-0.951,-0.828,-1.64,1.47,1.88,0.05,0.46,0.9
2022-02-06 21:37:22.9910,0.01,-0.988,-0.786,-1.64,1.9,1.79,-0.11,0.33,1.05
2022-02-06 21:37:23.0010,-0.027,-0.999,-0.777,-1.49,2.31,1.38,-0.25,0.29,1.05
2022-02-06 21:37:23.0110,-0.059,-0.988,-0.802,-0.92,2.48,1.33,-0.21,0.21,0.94
2022-02-06 21:37:23.0210,-0.073,-0.988,-0.801,-0.92,2.48,1.33,-0.21,0.21,0.94
2022-02-06 21:37:23.0310,-0.071,-1.003,-0.784,-0.78,2.46,1.4,-0.14,0.14,0.84
2022-02-06 21:37:23.0410,-0.05,-1.017,-0.768,-0.81,2.61,1.22,-0.03,-0.01,0.68
2022-02-06 21:37:23.0510,-0.02,-1.029,-0.74,-1.37,2.9,0.82,-0.01,-0.02,0.64
2022-02-06 21:37:23.0620,0.002,-1.033,-0.712,-1.37,2.9,0.82,0.01,0.02,0.61
2022-02-06 21:37:23.0720,0.008,-1.031,-0.687,-1.66,2.97,0.54,0.05,0.12,0.58
2022-02-06 21:37:23.0820,0.005,-1.012,-0.668,-1.81,2.85,0.09,0.12,0.24,0.53
2022-02-06 21:37:23.0920,-0.004,-0.987,-0.645,-1.75,2.6,-0.12,0.18,0.33,0.47
2022-02-06 21:37:23.1020,-0.003,-0.974,-0.635,-1.73,2.43,-0.27,0.22,0.3,0.39
2022-02-06 21:37:23.1130,0.008,-0.967,-0.654,-1.83,2.35,-0.13,0.23,0.12,0.3
2022-02-06 21:37:23.1220,0.021,-0.963,-0.664,-1.83,2.35,-0.13,0.2,-0.12,0.2
2022-02-06 21:37:23.1320,0.036,-0.963,-0.667,-2.15,2.28,0.07,0.17,-0.35,0.08
2022-02-06 21:37:23.1420,0.048,-0.969,-0.672,-2.3,2.32,0.15,0.13,-0.54,-0.04
2022-02-06 21:37:23.1520,0.055,-0.963,-0.672,-2.3,2.32,0.15,0.08,-0.65,-0.16
2022-02-06 21:37:23.1620,0.058,-0.949,-0.671,-2.41,2.3,0.17,0.02,-0.65,-0.25
2022-02-06 21:37:23.1720,0.054,-0.934,-0.66,-2.47,2.01,0.12,-0.03,-0.55,-0.32
2022-02-06 21:37:23.1820,0.047,-0.915,-0.644,-2.47,2.01,0.12,-0.04,-0.37,-0.35
2022-02-06 21:37:23.1930,0.027,-0.895,-0.63,-2.25,1.64,-0.17,-0.02,-0.15,-0.33
2022-02-06 21:37:23.2100,0.009,-0.875,-0.618,-2.06,1.42,-0.31,-0.02,-0.15,-0.33
2022-02-06 21:37:23.2120,-0.008,-0.869,-0.621,-2.06,1.42,-0.31,0.11,0.25,-0.22
2022-02-06 21:37:23.2210,-0.015,-0.877,-0.623,-1.72,1.35,-0.27,0.21,0.4,-0.18
2022-02-06 21:37:23.2310,-0.013,-0.88,-0.624,-1.68,1.38,-0.26,0.32,0.47,-0.18
2022-02-06 21:37:23.2410,-0.002,-0.896,-0.634,-1.68,1.38,-0.26,0.4,0.44,-0.2
2022-02-06 21:37:23.2510,0.002,-0.918,-0.639,-1.73,1.47,-0.16,0.43,0.35,-0.21
2022-02-06 21:37:23.2610,-0.009,-0.925,-0.63,-1.76,1.67,-0.07,0.43,0.24,-0.22
2022-02-06 21:37:23.2710,-0.03,-0.92,-0.625,-1.44,1.69,-0.14,0.43,0.24,-0.22
2022-02-06 21:37:23.2810,-0.05,-0.916,-0.625,-1.21,1.61,-0.13,0.41,-0.01,-0.28
2022-02-06 21:37:23.2930,-0.067,-0.908,-0.634,-1.01,1.51,-0.04,0.41,-0.14,-0.34
2022-02-06 21:37:23.3020,-0.076,-0.909,-0.646,-1.01,1.51,-0.04,0.38,-0.25,-0.41
2022-02-06 21:37:23.3120,-0.089,-0.918,-0.659,-0.89,1.46,0.11,0.34,-0.32,-0.47
2022-02-06 21:37:23.3230,-0.111,-0.917,-0.68,-0.77,1.51,0.26,0.29,-0.38,-0.51
2022-02-06 21:37:23.3330,-0.132,-0.899,-0.7,-0.56,1.51,0.48,0.27,-0.41,-0.56
2022-02-06 21:37:23.3430,-0.157,-0.872,-0.715,-0.34,1.35,0.72,0.24,-0.41,-0.59
2022-02-06 21:37:23.3530,-0.173,-0.847,-0.732,0.12,0.79,1.07,0.21,-0.39,-0.6
2022-02-06 21:37:23.3630,-0.183,-0.834,-0.74,0.26,0.62,1.21,0.15,-0.33,-0.59
2022-02-06 21:37:23.3730,-0.184,-0.823,-0.743,0.26,0.62,1.21,0.09,-0.24,-0.58
2022-02-06 21:37:23.3830,-0.178,-0.812,-0.75,0.31,0.51,1.25,0.02,-0.17,-0.6
2022-02-06 21:37:23.3930,-0.166,-0.806,-0.771,0.31,0.37,1.3,-0.05,-0.13,-0.66
2022-02-06 21:37:23.4030,-0.152,-0.801,-0.779,0.24,0.29,1.49,-0.07,-0.09,-0.71
2022-02-06 21:37:23.4140,-0.139,-0.784,-0.781,0.14,0.25,1.62,-0.03,-0.09,-0.77
2022-02-06 21:37:23.4230,-0.119,-0.754,-0.785,0.08,0.11,1.61,0.06,-0.12,-0.82
2022-02-06 21:37:23.4330,-0.096,-0.716,-0.783,-0.05,-0.15,1.67,0.15,-0.14,-0.85
2022-02-06 21:37:23.4430,-0.07,-0.688,-0.773,-0.4,-0.88,1.6,0.22,-0.14,-0.86
2022-02-06 21:37:23.4530,-0.044,-0.677,-0.765,-0.602300926744938,-1.04,1.53,0.28,-0.1,-0.84
2022-02-06 21:37:23.4630,-0.017,-0.675,-0.754,-0.8,-1.1,1.46,0.31,-0.03,-0.8
2022-02-06 21:37:23.4730,0.01,-0.683,-0.751,-1.02,-1.08,1.41,0.29,0.01,-0.74
2022-02-06 21:37:23.4830,0.03,-0.698,-0.768,-1.18,-0.96,1.57,0.26,-0.0,-0.68
2022-02-06 21:37:23.4930,0.038,-0.706,-0.786,-1.18,-0.96,1.57,0.23,-0.07,-0.64
2022-02-06 21:37:23.5030,0.03,-0.706,-0.797,-1.17,-0.8749077683687211,1.91,0.23,-0.14,-0.61
2022-02-06 21:37:23.5140,0.007,-0.705,-0.805,-1.17,-0.88,1.91,0.26,-0.22,-0.59
2022-02-06 21:37:23.5230,-0.018,-0.707,-0.808,-0.93,-0.91,2.0,0.32,-0.27,-0.55
2022-02-06 21:37:23.5340,-0.042,-0.712,-0.797,-0.65,-0.92,2.08,0.41,-0.28,-0.54
2022-02-06 21:37:23.5430,-0.059,-0.722,-0.777,-0.38,-0.85,1.89,0.51,-0.27,-0.52
2022-02-06 21:37:23.5640,-0.071,-0.736,-0.749,-0.02,-0.75,1.69,0.57,-0.2,-0.52
2022-02-06 21:37:23.5650,-0.079,-0.754,-0.707,-0.02,-0.75,1.69,0.58,-0.1,-0.52
2022-02-06 21:37:23.5740,-0.089,-0.766,-0.669,0.23,-0.51,1.0,0.53,0.01,-0.54
2022-02-06 21:37:23.5830,-0.108,-0.769,-0.636,0.43,-0.5,0.71,0.53,0.01,-0.54
2022-02-06 21:37:23.5920,-0.133,-0.762,-0.605,0.72,-0.56,0.42,0.38,0.23,-0.6
2022-02-06 21:37:23.6030,-0.149,-0.749,-0.591,0.99,-0.71,0.26,0.38,0.23,-0.6
2022-02-06 21:37:23.6130,-0.141,-0.741,-0.594,1.04,-0.83,0.28,0.22,0.23,-0.74
2022-02-06 21:37:23.6230,-0.122,-0.738,-0.596,1.04,-0.83,0.28,0.14,0.09,-0.84
2022-02-06 21:37:23.6330,-0.096,-0.728,-0.606,0.94,-0.86,0.33,0.04,-0.15,-0.96
2022-02-06 21:37:23.6440,-0.067,-0.722,-0.627,0.77,-0.94,0.39,-0.08,-0.46,-1.06
2022-02-06 21:37:23.6530,-0.044,-0.726,-0.65,0.36,-1.0,0.8,-0.08,-0.46,-1.06
2022-02-06 21:37:23.6630,-0.037,-0.72,-0.658,0.29,-1.0,0.91,-0.37,-0.96,-1.12
2022-02-06 21:37:23.6740,-0.045,-0.697,-0.649,0.37,-1.16,0.8,-0.47,-1.0,-1.09
2022-02-06 21:37:23.6840,-0.053,-0.655,-0.646,0.37,-1.16,0.8,-0.52,-0.93,-1.07
2022-02-06 21:37:23.6940,-0.054,-0.606,-0.655,0.5,-1.5,0.72,-0.52,-0.82,-1.06
2022-02-06 21:37:23.7040,-0.057,-0.566,-0.663,0.55,-1.96,0.73,-0.5,-0.69,-1.05
2022-02-06 21:37:23.7140,-0.069,-0.541,-0.679,0.61,-2.35,0.78,-0.5,-0.69,-1.05
2022-02-06 21:37:23.7240,-0.085,-0.522,-0.707,0.74,-2.6,0.86,-0.33,-0.66,-1.07
2022-02-06 21:37:23.7340,-0.079,-0.495,-0.746,0.96,-2.76,1.07,-0.26,-0.85,-1.14
2022-02-06 21:37:23.7450,-0.059,-0.487,-0.797,1.01,-2.99,1.4,-0.26,-1.16,-1.21
2022-02-06 21:37:23.7540,-0.026,-0.515,-0.836,0.62,-2.9,2.27,-0.29,-1.48,-1.27
2022-02-06 21:37:23.7640,0.012,-0.55,-0.85,0.62,-2.9,2.27,-0.3,-1.68,-1.28
2022-02-06 21:37:23.7740,0.018,-0.588,-0.849,0.08,-2.14,2.42,-0.22,-1.72,-1.22
2022-02-06 21:37:23.7840,0.01,-0.596,-0.834,0.08,-2.14,2.42,-0.05,-1.63,-1.11
2022-02-06 21:37:23.7940,-0.0,-0.579,-0.806,0.22,-2.09,2.05,0.18,-1.43,-0.98
2022-02-06 21:37:23.8040,0.002,-0.569,-0.769,0.22,-2.09,2.05,0.42,-1.21,-0.84
2022-02-06 21:37:23.8150,0.026,-0.578,-0.743,0.24,-2.23,1.71,0.64,-1.0,-0.7
2022-02-06 21:37:23.8250,0.058,-0.608,-0.72,-0.26,-2.01,1.31,0.84,-0.84,-0.62
2022-02-06 21:37:23.8340,0.093,-0.634,-0.675,-0.26,-2.01,1.31,0.99,-0.71,-0.58
2022-02-06 21:37:23.8440,0.118,-0.641,-0.621,-0.88,-1.71,0.55,1.05,-0.6,-0.55
2022-02-06 21:37:23.8540,0.12,-0.639,-0.561,-0.9369309389591217,-1.78,0.05,1.0,-0.49,-0.51
2022-02-06 21:37:23.8650,0.109,-0.643,-0.496,-0.94,-1.78,0.05,0.85,-0.39,-0.42
2022-02-06 21:37:23.8740,0.085,-0.661,-0.449,-0.85,-1.82,-0.51,0.63,-0.34,-0.3
2022-02-06 21:37:23.8850,0.063,-0.688,-0.431,-0.4,-1.5,-1.18,0.39,-0.36,-0.17
2022-02-06 21:37:23.8950,0.043,-0.73,-0.428,-0.4,-1.5,-1.18,0.21,-0.43,-0.05
2022-02-06 21:37:23.9050,0.031,-0.765,-0.44,-0.09,-0.76,-1.11,0.12,-0.57,-0.02
2022-02-06 21:37:23.9150,0.02,-0.77,-0.47,-0.09,-0.76,-1.11,0.12,-0.57,-0.02
2022-02-06 21:37:23.9250,0.009,-0.758,-0.497,-0.02,-0.64,-0.85,0.18,-0.99,-0.19
2022-02-06 21:37:23.9350,-0.005,-0.753,-0.5,0.06,-0.75,-0.55,0.18,-1.13,-0.29
2022-02-06 21:37:23.9450,-0.021,-0.756,-0.482,0.14,-0.83,-0.44,0.23,-1.18,-0.37
2022-02-06 21:37:23.9540,-0.032,-0.744,-0.465,0.35,-0.9,-0.74,0.16,-1.18,-0.42
2022-02-06 21:37:23.9650,-0.038,-0.728,-0.465,0.35,-0.9,-0.74,0.03,-1.16,-0.45
2022-02-06 21:37:23.9750,-0.033,-0.723,-0.474,0.35,-1.14,-0.7,-0.12,-1.15,-0.46
2022-02-06 21:37:23.9850,-0.035,-0.716,-0.497,0.35,-1.14,-0.7,-0.28,-1.16,-0.47
2022-02-06 21:37:23.9950,-0.049,-0.704,-0.527,0.4,-1.28,-0.26,-0.38,-1.15,-0.46
2022-02-06 21:37:24.0050,-0.067,-0.696,-0.54,0.4,-1.28,-0.26,-0.45,-1.1,-0.44
2022-02-06 21:37:24.0150,-0.087,-0.688,-0.565,0.71,-1.39,0.01,-0.49,-1.08,-0.42
2022-02-06 21:37:24.0250,-0.11,-0.669,-0.602,0.71,-1.39,0.01,-0.52,-1.08,-0.43
2022-02-06 21:37:24.0350,-0.132,-0.654,-0.625,0.91,-1.53,0.33,-0.52,-1.08,-0.43
2022-02-06 21:37:24.0450,-0.151,-0.644,-0.644,1.1,-1.67,0.55,-0.54,-1.08,-0.45
2022-02-06 21:37:24.0550,-0.166,-0.638,-0.655,1.41,-1.78,0.81,-0.51,-1.04,-0.43
2022-02-06 21:37:24.0660,-0.18,-0.642,-0.648,1.53,-1.74,0.72,-0.48,-0.97,-0.36
2022-02-06 21:37:24.0760,-0.193,-0.648,-0.636,1.53,-1.74,0.72,-0.48,-0.97,-0.36
2022-02-06 21:37:24.0860,-0.21,-0.65,-0.625,1.75,-1.59,0.43,-0.36,-0.71,-0.09
2022-02-06 21:37:24.0950,-0.233,-0.649,-0.608,1.75,-1.59,0.43,-0.27,-0.54,0.06
2022-02-06 21:37:24.1050,-0.266,-0.644,-0.59,2.18,-1.61,0.06,-0.17,-0.37,0.19
2022-02-06 21:37:24.1160,-0.294,-0.637,-0.574,2.18,-1.61,0.06,-0.08,-0.24,0.27
2022-02-06 21:37:24.1250,-0.301,-0.64,-0.566,2.54,-1.66,-0.22,-0.0,-0.16,0.28
2022-02-06 21:37:24.1360,-0.298,-0.65,-0.555,2.54,-1.66,-0.22,0.04,-0.13,0.25
2022-02-06 21:37:24.1450,-0.299,-0.654,-0.543,2.49,-1.57,-0.3,0.04,-0.16,0.18
2022-02-06 21:37:24.1640,-0.307,-0.643,-0.54,2.49,-1.57,-0.48,0.04,-0.16,0.18
2022-02-06 21:37:24.1660,-0.324,-0.616,-0.537,2.49,-1.57,-0.48,-0.09,-0.43,-0.03
2022-02-06 21:37:24.1750,-0.339,-0.593,-0.529,2.75,-2.05,-0.58,-0.21,-0.57,-0.13
2022-02-06 21:37:24.1850,-0.339,-0.585,-0.513,2.75,-2.05,-0.58,-0.21,-0.57,-0.13
2022-02-06 21:37:24.1960,-0.317,-0.594,-0.489,2.78,-2.15,-0.73,-0.51,-0.64,-0.23
2022-02-06 21:37:24.2050,-0.284,-0.614,-0.479,2.6,-2.08,-0.99,-0.67,-0.64,-0.22
2022-02-06 21:37:24.2160,-0.265,-0.626,-0.505,2.25,-1.86,-1.19,-0.84,-0.65,-0.19
2022-02-06 21:37:24.2260,-0.26,-0.649,-0.529,1.9,-1.45,-0.84,-0.99,-0.61,-0.13
2022-02-06 21:37:24.2360,-0.266,-0.69,-0.536,1.9,-1.45,-0.84,-1.08,-0.54,-0.06
2022-02-06 21:37:24.2460,-0.282,-0.724,-0.576,2.01,-0.58,-0.65,-1.11,-0.55,0.01
2022-02-06 21:37:24.2560,-0.302,-0.752,-0.638,2.16,-0.24,-0.13,-1.06,-0.63,0.05
2022-02-06 21:37:24.2660,-0.325,-0.778,-0.685,2.16,-0.24,-0.13,-0.95,-0.8,0.04
2022-02-06 21:37:24.2760,-0.363,-0.779,-0.756,2.61,0.26,0.85,-0.83,-1.05,-0.07
2022-02-06 21:37:24.2860,-0.389,-0.745,-0.82,2.86,0.05,1.49,-0.74,-1.34,-0.32
2022-02-06 21:37:24.2960,-0.385,-0.715,-0.858,2.82,-0.26,1.86,-0.76,-1.63,-0.62
2022-02-06 21:37:24.3060,-0.372,-0.716,-0.884,2.82,-0.26,1.86,-0.88,-1.84,-0.9
2022-02-06 21:37:24.3170,-0.348,-0.725,-0.882,2.4,-0.13,2.1,-1.06,-1.95,-1.13
2022-02-06 21:37:24.3260,-0.316,-0.729,-0.895,2.4,-0.13,2.1,-1.23,-1.97,-1.26
2022-02-06 21:37:24.3360,-0.294,-0.724,-0.915,2.03,0.0,2.11,-1.35,-1.93,-1.28
2022-02-06 21:37:24.3460,-0.287,-0.714,-0.953,1.6,0.02,2.48,-1.41,-1.87,-1.23
2022-02-06 21:37:24.3560,-0.289,-0.718,-0.987,1.56,0.09,2.77,-1.39,-1.78,-1.12
2022-02-06 21:37:24.3670,-0.297,-0.741,-1.013,1.56,0.09,2.77,-1.28,-1.7,-1.0
2022-02-06 21:37:24.3760,-0.315,-0.759,-1.032,1.58,0.36,2.95,-1.28,-1.7,-1.0
2022-02-06 21:37:24.3860,-0.34,-0.759,-1.033,1.87,0.74,3.12,-0.74,-1.54,-0.91
2022-02-06 21:37:24.3960,-0.356,-0.752,-1.021,1.87,0.74,3.12,-0.42,-1.53,-0.94
2022-02-06 21:37:24.4060,-0.355,-0.75,-0.991,2.0,0.68,2.76,-0.13,-1.6,-1.0
2022-02-06 21:37:24.4170,-0.333,-0.759,-0.962,2.0,0.68,2.76,0.05,-1.75,-1.08
2022-02-06 21:37:24.4260,-0.294,-0.774,-0.916,1.79,0.73,2.49,0.13,-1.91,-1.15
2022-02-06 21:37:24.4370,-0.253,-0.776,-0.857,1.38,0.85,2.14,0.09,-2.03,-1.21
2022-02-06 21:37:24.4460,-0.216,-0.766,-0.805,0.49,0.79,1.11,-0.03,-2.08,-1.28
2022-02-06 21:37:24.4570,-0.18,-0.751,-0.769,0.07,0.63,0.73,-0.18,-2.07,-1.35
2022-02-06 21:37:24.4670,-0.149,-0.746,-0.758,-0.29,0.54,0.58,-0.35,-2.06,-1.42
2022-02-06 21:37:24.4770,-0.125,-0.74,-0.77,-0.6,0.5,0.65,-0.52,-2.08,-1.5
2022-02-06 21:37:24.4860,-0.112,-0.724,-0.803,-0.78,0.37,0.93,-0.63,-2.14,-1.58
2022-02-06 21:37:24.4960,-0.106,-0.713,-0.83,-0.9,0.27,1.23,-0.69,-2.2,-1.64
2022-02-06 21:37:24.5050,-0.111,-0.696,-0.863,-0.92,0.14,1.5,-0.7,-2.29,-1.7
2022-02-06 21:37:24.5160,-0.12,-0.675,-0.91,-0.92,0.14,1.5,-0.66,-2.4,-1.76
2022-02-06 21:37:24.5260,-0.125,-0.648,-0.925,-0.88,-0.29,2.22,-0.55,-2.43,-1.79
2022-02-06 21:37:24.5360,-0.133,-0.62,-0.918,-0.88,-0.29,2.22,-0.55,-2.43,-1.79
2022-02-06 21:37:24.5460,-0.131,-0.586,-0.917,-0.84,-0.56,2.18,-0.2,-2.23,-1.73
2022-02-06 21:37:24.5560,-0.112,-0.555,-0.904,-1.04,-1.24,2.14,-0.01,-2.02,-1.64
2022-02-06 21:37:24.5670,-0.075,-0.534,-0.877,-1.38,-1.51,1.94,0.16,-1.78,-1.54
2022-02-06 21:37:24.5770,-0.032,-0.527,-0.853,-1.38,-1.51,1.94,0.25,-1.57,-1.44
2022-02-06 21:37:24.5880,0.016,-0.534,-0.823,-1.82,-1.67,1.74,0.25,-1.57,-1.44
2022-02-06 21:37:24.5970,0.053,-0.553,-0.791,-2.28,-1.68,1.54,0.21,-1.23,-1.22
2022-02-06 21:37:24.6070,0.082,-0.574,-0.764,-2.68,-1.56,1.025871766805649,0.15,-1.1,-1.09
2022-02-06 21:37:24.6170,0.105,-0.589,-0.74,-3.21,-1.26,0.79,0.12,-1.02,-0.99
2022-02-06 21:37:24.6270,0.119,-0.612,-0.725,-3.37,-1.09,0.67,0.16,-0.94,-0.88
2022-02-06 21:37:24.6370,0.128,-0.64,-0.7,-3.37,-1.09,0.67,0.16,-0.94,-0.88
2022-02-06 21:37:24.6470,0.142,-0.658,-0.681,-3.47,-0.85,0.48,0.33,-0.85,-0.72
2022-02-06 21:37:24.6580,0.169,-0.68,-0.666,-3.82,-0.53,0.21,0.37,-0.88,-0.69
2022-02-06 21:37:24.6680,0.2,-0.716,-0.649,-4.13,-0.25,0.09,0.35,-0.93,-0.68
2022-02-06 21:37:24.6780,0.229,-0.766,-0.624,-4.13,-0.25,0.09,0.27,-0.97,-0.66
2022-02-06 21:37:24.6880,0.253,-0.818,-0.595,-4.44,0.68,-0.33,0.27,-0.97,-0.66
2022-02-06 21:37:24.6970,0.272,-0.86,-0.576,-4.93,1.09,-0.53,-0.02,-1.05,-0.62
2022-02-06 21:37:24.7070,0.278,-0.9,-0.566,-4.93,1.09,-0.53,-0.19,-1.08,-0.59
2022-02-06 21:37:24.7180,0.273,-0.939,-0.559,-5.04,1.47,-0.62,-0.36,-1.12,-0.53
2022-02-06 21:37:24.7280,0.262,-0.966,-0.576,-5.04,1.87,-0.71,-0.47,-1.16,-0.47
2022-02-06 21:37:24.7370,0.241,-0.986,-0.586,-4.84,2.42,-0.47,-0.51,-1.15,-0.42
2022-02-06 21:37:24.7480,0.225,-0.999,-0.603,-4.84,2.42,-0.47,-0.51,-1.15,-0.42
2022-02-06 21:37:24.7580,0.218,-1.025,-0.634,-4.69,2.57,-0.36,-0.38,-1.19,-0.38
2022-02-06 21:37:24.7680,0.215,-1.06,-0.657,-4.67,3.16,0.17,-0.23,-1.22,-0.38
2022-02-06 21:37:24.7780,0.212,-1.077,-0.68,-4.67,3.16,0.17,-0.07,-1.22,-0.41
2022-02-06 21:37:24.7870,0.206,-1.078,-0.682,-4.68,3.41,0.54,0.09,-1.16,-0.46
2022-02-06 21:37:24.7980,0.201,-1.072,-0.687,-4.67,3.35,0.58,0.19,-1.08,-0.52
2022-02-06 21:37:24.8080,0.192,-1.06,-0.694,-4.67,3.35,0.58,0.22,-0.97,-0.59
2022-02-06 21:37:24.8180,0.183,-1.049,-0.702,-4.54,3.08,0.8,0.17,-0.88,-0.64
2022-02-06 21:37:24.8280,0.168,-1.033,-0.73,-4.41,2.91,1.07,0.07,-0.83,-0.7
2022-02-06 21:37:24.8380,0.155,-1.023,-0.762,-4.27,2.77,1.41,-0.04,-0.8,-0.75
2022-02-06 21:37:24.8480,0.144,-1.012,-0.795,-4.15,2.66,1.73,-0.1,-0.8,-0.79
2022-02-06 21:37:24.8580,0.139,-0.994,-0.838,-4.07,2.48,2.15,-0.07,-0.83,-0.84
2022-02-06 21:37:24.8680,0.142,-0.978,-0.873,-4.08,2.29,2.56,0.05,-0.84,-0.88
2022-02-06 21:37:24.8780,0.145,-0.962,-0.882,-4.08,2.29,2.56,0.22,-0.81,-0.88
2022-02-06 21:37:24.8880,0.151,-0.949,-0.878,-4.09,2.11,2.73,0.4,-0.7,-0.83
2022-02-06 21:37:24.9070,0.161,-0.948,-0.846,-4.18,1.84,2.56,0.56,-0.53,-0.74
2022-02-06 21:37:24.9090,0.17,-0.945,-0.813,-4.18,1.84,2.56,0.68,-0.31,-0.63
2022-02-06 21:37:24.9190,0.183,-0.937,-0.779,-4.34,1.64,2.02,0.73,-0.06,-0.51
2022-02-06 21:37:24.9220,0.193,-0.94,-0.74,-4.41,1.6,1.7,0.75,0.19,-0.39
2022-02-06 21:37:24.9320,0.2,-0.944,-0.711,-4.45,1.6,1.43,0.74,0.41,-0.28
2022-02-06 21:37:24.9420,0.205,-0.936,-0.69,-4.46,1.5,1.25,0.74,0.56,-0.19
2022-02-06 21:37:24.9520,0.207,-0.924,-0.674,-4.43,1.34,1.13,0.76,0.63,-0.12
2022-02-06 21:37:24.9620,0.21,-0.919,-0.655,-4.42,1.22,1.0,0.82,0.6,-0.05
2022-02-06 21:37:24.9730,0.22,-0.915,-0.639,-4.46,1.14,0.89,0.92,0.5,0.02
2022-02-06 21:37:24.9830,0.238,-0.913,-0.616,-4.6,1.06,0.75,1.03,0.37,0.08
2022-02-06 21:37:24.9930,0.26,-0.927,-0.585,-4.81,1.1,0.54,1.11,0.27,0.14
2022-02-06 21:37:25.0020,0.275,-0.95,-0.539,-4.98,1.27,0.22,1.13,0.25,0.2
2022-02-06 21:37:25.0130,0.278,-0.967,-0.49,-5.04,1.4,-0.2,1.1,0.31,0.24
2022-02-06 21:37:25.0220,0.272,-0.973,-0.457,-5.0,1.45,-0.49,1.03,0.42,0.25
2022-02-06 21:37:25.0320,0.261,-0.96,-0.438,-4.9,1.31,-0.64,0.89,0.55,0.23
2022-02-06 21:37:25.0420,0.25,-0.955,-0.427,-4.77,1.18,-0.71,0.7,0.71,0.2
2022-02-06 21:37:25.0520,0.238,-0.972,-0.428,-4.65,1.28,-0.7,0.49,0.88,0.18
2022-02-06 21:37:25.0630,0.219,-0.995,-0.436,-4.44,1.49,-0.62,0.31,1.08,0.16
2022-02-06 21:37:25.0720,0.207,-1.001,-0.452,-4.25,1.6,-0.5,0.22,1.25,0.13
2022-02-06 21:37:25.0830,0.208,-0.995,-0.492,-4.17,1.54,-0.19,0.2,1.33,0.07
2022-02-06 21:37:25.0920,0.222,-0.984,-0.546,-4.22,1.44,0.32,0.22,1.3,-0.01
2022-02-06 21:37:25.1020,0.244,-0.971,-0.59,-4.37,1.3,0.78,0.28,1.22,-0.08
2022-02-06 21:37:25.1120,0.257,-0.965,-0.611,-4.46,1.2,1.05,0.33,1.17,-0.1
2022-02-06 21:37:25.1220,0.253,-0.953,-0.617,-4.39,1.1,1.13,0.38,1.17,-0.08
2022-02-06 21:37:25.1330,0.24,-0.926,-0.625,-4.22,0.85,1.21,0.4,1.21,-0.03
2022-02-06 21:37:25.1510,0.222,-0.89,-0.639,-4.0,0.49,1.34,0.42,1.26,0.01
2022-02-06 21:37:25.1530,0.189,-0.852,-0.657,-3.66,0.09,1.54,0.45,1.35,0.06
2022-02-06 21:37:25.1630,0.146,-0.82,-0.657,-3.19,-0.26,1.59,0.5,1.46,0.13
2022-02-06 21:37:25.1810,0.103,-0.795,-0.65,-2.7,-0.54,1.55,0.59,1.56,0.22
2022-02-06 21:37:25.1910,0.075,-0.77,-0.638,-2.32,-0.8,1.48,0.7,1.66,0.31
Time,0.064,-0.751,-0.617,-2.13,-1.04,1.33,0.81,1.73,0.38
2022-02-06 21:37:25.2020,0.066,-0.742,-0.593,-2.07,-1.19,1.14,0.86,1.78,0.42
2022-02-06 21:37:25.2130,0.068,-0.734,-0.564,-2.05,-1.29,0.93,0.85,1.83,0.41
2022-02-06 21:37:25.2310,0.054,-0.719,-0.518,-1.91,-1.44,0.56,0.78,1.94,0.39
2022-02-06 21:37:25.2410,0.028,-0.694,-0.473,-1.61,-1.7,0.14,0.67,2.08,0.34
2022-02-06 21:37:25.2510,0.003,-0.664,-0.437,-1.29,-2.01,-0.22,0.55,2.22,0.28
2022-02-06 21:37:25.2610,-0.016,-0.641,-0.405,-1.0,-2.29,-0.51,0.41,2.34,0.25
2022-02-06 21:37:25.2710,-0.031,-0.64,-0.38,-0.77,-2.36,-0.79,0.29,2.38,0.28
2022-02-06 21:37:25.2810,-0.059,-0.642,-0.366,-0.45,-2.35,-0.95,0.18,2.31,0.38
2022-02-06 21:37:25.2910,-0.071,-0.646,-0.362,-0.19,-2.31,-1.02,0.12,2.15,0.5
2022-02-06 21:37:25.3010,-0.055,-0.659,-0.368,-0.23,-2.22,-1.0,0.09,1.93,0.57
2022-02-06 21:37:25.3110,-0.027,-0.675,-0.384,-0.48,-2.05,-0.87,0.1,1.67,0.57
2022-02-06 21:37:25.3210,-0.025,-0.668,-0.404,-0.56,-2.04,-0.69,0.16,1.43,0.49
2022-02-06 21:37:25.3310,-0.052,-0.625,-0.412,-0.34,-2.37,-0.55,0.23,1.28,0.36
2022-02-06 21:37:25.3410,-0.102,-0.565,-0.394,0.14,-2.96,-0.66,0.28,1.25,0.22
2022-02-06 21:37:25.3510,-0.151,-0.517,-0.369,0.69,-3.49,-0.89,0.26,1.29,0.1
Time,-0.19,-0.482,-0.353,1.16,-3.87,-1.07,0.16,1.35,0.02
2022-02-06 21:37:25.3630,-0.204,-0.466,-0.346,1.42,-4.08,-1.16,-0.0,1.41,-0.03
Time,-0.206,-0.47,-0.358,1.52,-4.09,-1.12,-0.2,1.45,-0.05
2022-02-06 21:37:25.3910,-0.197,-0.488,-0.391,1.54,-3.93,-0.86,-0.44,1.45,-0.04
2022-02-06 21:37:25.4020,-0.183,-0.519,-0.422,1.47,-3.62,-0.59,-0.66,1.44,0.0
2022-02-06 21:37:25.4120,-0.174,-0.539,-0.467,1.43,-3.33,-0.3,-0.86,1.36,0.05
2022-02-06 21:37:25.4130,-0.173,-0.524,-0.543,1.45,-3.35,0.32,-1.03,1.21,0.06
2022-02-06 21:37:25.4230,-0.182,-0.494,-0.606,1.57,-3.59,0.9,-1.15,1.08,0.05
2022-02-06 21:37:25.4420,-0.203,-0.492,-0.653,1.79,-3.64,1.29,-1.22,1.02,0.07
Time,-0.232,-0.518,-0.684,2.1,-3.37,1.54,-1.21,1.1,0.18
Time,-0.277,-0.542,-0.694,2.53,-3.03,1.57,-1.09,1.26,0.42
2022-02-06 21:37:25.4640,-0.328,-0.543,-0.713,3.07,-2.92,1.62,-0.9,1.44,0.7
2022-02-06 21:37:25.4820,-0.358,-0.528,-0.74,3.44,-2.98,1.83,-0.67,1.57,0.92
Time,-0.374,-0.493,-0.751,3.62,-3.25,1.92,-0.47,1.64,1.04
2022-02-06 21:37:25.4930,-0.387,-0.465,-0.748,3.62,-3.25,1.92,-0.39,1.67,1.06
2022-02-06 21:37:25.5070,-0.376,-0.473,-0.729,3.77,-3.56,1.91,-0.39,1.67,1.06
2022-02-06 21:37:25.5170,-0.349,-0.513,-0.717,3.51,-3.19,1.51,-0.65,1.58,0.84
2022-02-06 21:37:25.5270,-0.33,-0.573,-0.718,3.51,-3.19,1.51,-0.91,1.42,0.73
2022-02-06 21:37:25.5370,-0.346,-0.637,-0.726,3.29,-2.6,1.43,-0.91,1.42,0.73
2022-02-06 21:37:25.5460,-0.383,-0.66,-0.728,3.37,-1.89,1.41,-1.43,1.05,0.68
2022-02-06 21:37:25.5560,-0.424,-0.618,-0.733,3.72,-1.45,1.36,-1.59,0.9,0.66
2022-02-06 21:37:25.5670,-0.461,-0.576,-0.735,4.12,-1.65,1.26,-1.59,0.9,0.66
2022-02-06 21:37:25.5770,-0.474,-0.558,-0.737,4.7,-2.14,1.05,-1.69,0.77,0.57
2022-02-06 21:37:25.5870,-0.465,-0.55,-0.753,4.68,-2.13,1.04,-1.69,0.77,0.57
2022-02-06 21:37:25.5970,-0.439,-0.572,-0.776,4.47,-1.91,1.12,-1.75,0.79,0.47
2022-02-06 21:37:25.6070,-0.408,-0.626,-0.804,4.47,-1.91,1.12,-1.78,0.77,0.51
2022-02-06 21:37:25.6170,-0.392,-0.67,-0.833,4.18,-1.3,1.26,-1.78,0.77,0.51
2022-02-06 21:37:25.6270,-0.391,-0.688,-0.866,3.99,-0.7,1.42,-1.74,0.52,0.72
2022-02-06 21:37:25.6370,-0.398,-0.692,-0.899,3.97,-0.17,1.81,-1.65,0.31,0.83
2022-02-06 21:37:25.6470,-0.409,-0.686,-0.924,3.97,-0.17,1.81,-1.55,0.08,0.92
2022-02-06 21:37:25.6570,-0.43,-0.672,-0.95,4.14,-0.1,2.1,-1.55,0.08,0.92
2022-02-06 21:37:25.6670,-0.456,-0.659,-0.969,4.14,-0.1,2.1,-1.3,-0.4,1.01
2022-02-06 21:37:25.6770,-0.483,-0.662,-0.982,4.3,-0.14,2.23,-1.3,-0.4,1.01
2022-02-06 21:37:25.6870,-0.495,-0.679,-0.977,4.47,-0.07,2.28,-0.94,-0.74,1.17
2022-02-06 21:37:25.6970,-0.499,-0.694,-0.957,4.41,0.4,2.0,-0.75,-0.83,1.28
2022-02-06 21:37:25.7070,-0.503,-0.703,-0.934,4.3,0.56,1.73,-0.59,-0.88,1.37
2022-02-06 21:37:25.7180,-0.508,-0.715,-0.913,4.19,0.71,1.49,-0.51,-0.9,1.43
2022-02-06 21:37:25.7280,-0.514,-0.736,-0.896,4.09,0.95,1.29,-0.51,-0.88,1.44
2022-02-06 21:37:25.7370,-0.525,-0.755,-0.892,4.09,0.95,1.29,-0.51,-0.88,1.44
2022-02-06 21:37:25.7470,-0.541,-0.759,-0.904,4.04,1.36,1.23,-0.7,-0.79,1.21
2022-02-06 21:37:25.7570,-0.555,-0.752,-0.929,4.05,1.38,1.41,-0.84,-0.78,1.0
2022-02-06 21:37:25.7680,-0.564,-0.741,-0.963,4.05,1.38,1.41,-0.84,-0.78,1.0
2022-02-06 21:37:25.7770,-0.56,-0.741,-0.994,4.05,1.35,1.68,-0.95,-0.8,0.57
2022-02-06 21:37:25.7880,-0.539,-0.749,-0.998,3.94,1.4,1.97,-0.86,-0.74,0.47
2022-02-06 21:37:25.7980,-0.504,-0.741,-1.01,3.69,1.56,2.03,-0.7,-0.68,0.46
2022-02-06 21:37:25.8070,-0.468,-0.712,-1.039,3.28,1.61,2.05,-0.52,-0.65,0.47
2022-02-06 21:37:25.8180,-0.442,-0.692,-1.048,2.48,1.22,2.43,-0.34,-0.63,0.51
2022-02-06 21:37:25.8270,-0.431,-0.691,-1.062,2.48,1.22,2.43,-0.23,-0.65,0.55
2022-02-06 21:37:25.8380,-0.42,-0.693,-1.074,2.26,1.21,2.53,-0.17,-0.68,0.56
2022-02-06 21:37:25.8470,-0.426,-0.696,-1.077,1.99,1.32,2.72,-0.13,-0.71,0.57
2022-02-06 21:37:25.8570,-0.44,-0.692,-1.072,1.99,1.32,2.72,-0.13,-0.71,0.57
2022-02-06 21:37:25.8680,-0.439,-0.68,-1.06,2.0,1.24,2.61,0.11,-0.77,0.52
2022-02-06 21:37:25.8780,-0.419,-0.663,-1.055,1.75,1.07,2.57,0.31,-0.87,0.44
2022-02-06 21:37:25.8880,-0.396,-0.652,-1.05,1.75,1.07,2.57,0.49,-1.01,0.35
2022-02-06 21:37:25.8970,-0.378,-0.654,-1.03,1.42,0.93,2.58,0.64,-1.11,0.3
2022-02-06 21:37:25.9080,-0.372,-0.667,-0.993,1.12,0.87,2.5,0.74,-1.15,0.3
2022-02-06 21:37:25.9180,-0.379,-0.654,-0.979,0.87,0.86,2.07,0.82,-1.18,0.32
2022-02-06 21:37:25.9280,-0.389,-0.632,-0.967,0.87,0.86,2.07,0.91,-1.18,0.34
2022-02-06 21:37:25.9380,-0.397,-0.616,-0.956,0.84,0.36,2.01,1.03,-1.25,0.34
2022-02-06 21:37:25.9480,-0.406,-0.592,-0.966,0.84,0.36,2.01,1.16,-1.36,0.29
2022-02-06 21:37:25.9580,-0.419,-0.575,-0.949,0.81,-0.2,2.21,1.27,-1.48,0.19
2022-02-06 21:37:25.9680,-0.421,-0.556,-0.941,0.74,-0.44,2.2,1.32,-1.66,0.02
2022-02-06 21:37:25.9780,-0.418,-0.532,-0.936,0.61,-0.78,2.32,1.26,-1.83,-0.2
2022-02-06 21:37:25.9880,-0.409,-0.52,-0.909,0.61,-0.78,2.32,1.1,-1.94,-0.43
2022-02-06 21:37:25.9980,-0.403,-0.521,-0.882,0.25,-1.11,2.1,0.88,-1.96,-0.67
2022-02-06 21:37:26.0080,-0.393,-0.518,-0.856,0.25,-1.11,2.1,0.61,-1.87,-0.89
2022-02-06 21:37:26.0180,-0.377,-0.512,-0.837,-0.11,-1.34,1.85,0.37,-1.69,-1.1
2022-02-06 21:37:26.0280,-0.364,-0.506,-0.829,-0.11,-1.34,1.85,0.16,-1.45,-1.27
2022-02-06 21:37:26.0380,-0.358,-0.485,-0.834,-0.3419153505563736,-1.66,1.91,0.02,-1.17,-1.4
2022-02-06 21:37:26.0480,-0.34,-0.456,-0.835,-0.47,-2.0,1.97,-0.06,-0.86,-1.49
2022-02-06 21:37:26.0580,-0.319,-0.445,-0.83,-0.47,-2.0,1.97,-0.07,-0.52,-1.51
2022-02-06 21:37:26.0680,-0.293,-0.452,-0.826,-0.62,-2.23,1.96,-0.01,-0.21,-1.47
2022-02-06 21:37:26.0790,-0.268,-0.457,-0.837,-0.95,-2.23,1.99,0.09,0.0,-1.38
2022-02-06 21:37:26.0880,-0.239,-0.462,-0.849,-0.95,-2.23,1.99,0.22,0.12,-1.25
2022-02-06 21:37:26.0990,-0.212,-0.468,-0.853,-1.13,-2.23,2.13,0.37,0.15,-1.1
2022-02-06 21:37:26.1080,-0.198,-0.472,-0.848,-1.32,-2.23,2.2,0.51,0.12,-0.93
2022-02-06 21:37:26.1190,-0.196,-0.477,-0.845,-1.41,-2.26,2.19,0.64,0.04,-0.76
2022-02-06 21:37:26.1290,-0.205,-0.474,-0.827,-1.28,-2.34,2.12,0.74,-0.02,-0.62
2022-02-06 21:37:26.1390,-0.218,-0.472,-0.797,-1.28,-2.34,2.12,0.81,-0.08,-0.5
2022-02-06 21:37:26.1480,-0.229,-0.483,-0.788,-1.12,-2.44,1.87,0.86,-0.16,-0.39
2022-02-06 21:37:26.1590,-0.236,-0.508,-0.779,-0.97,-2.43,1.79,0.93,-0.25,-0.27
2022-02-06 21:37:26.1690,-0.239,-0.535,-0.767,-0.85,-2.06,1.73,0.99,-0.38,-0.17
2022-02-06 21:37:26.1790,-0.236,-0.555,-0.773,-0.85,-2.06,1.73,1.03,-0.53,-0.1
2022-02-06 21:37:26.1890,-0.231,-0.579,-0.762,-0.95,-1.76,1.91,1.03,-0.59,-0.06
2022-02-06 21:37:26.1990,-0.227,-0.615,-0.734,-0.95,-1.76,1.91,1.0,-0.57,-0.05
2022-02-06 21:37:26.2080,-0.227,-0.651,-0.717,-1.03,-1.5,1.74,0.93,-0.48,-0.07
2022-02-06 21:37:26.2190,-0.226,-0.671,-0.704,-1.08,-0.99,1.58,0.82,-0.32,-0.12
2022-02-06 21:37:26.2290,-0.226,-0.686,-0.689,-1.09,-0.89,1.49,0.68,-0.13,-0.18
2022-02-06 21:37:26.2390,-0.229,-0.704,-0.691,-1.06,-0.76,1.51,0.54,0.05,-0.24
2022-02-06 21:37:26.2490,-0.235,-0.714,-0.711,-0.97,-0.66,1.71,0.4,0.17,-0.3
2022-02-06 21:37:26.2590,-0.231,-0.719,-0.729,-0.97,-0.66,1.71,0.3,0.22,-0.34
2022-02-06 21:37:26.2700,-0.212,-0.727,-0.753,-0.95,-0.64,1.91,0.21001794934272766,0.22,-0.34
2022-02-06 21:37:26.2800,-0.185,-0.74,-0.781,-1.28,-0.5,2.43,0.15,0.14,-0.4
2022-02-06 21:37:26.2890,-0.167,-0.751,-0.792,-1.28,-0.5,2.43,0.11,0.11,-0.41
2022-02-06 21:37:26.2990,-0.163,-0.759,-0.781,-1.49,-0.33,2.54,0.11,0.16,-0.41
2022-02-06 21:37:26.3090,-0.175,-0.749,-0.758,-1.49,-0.33,2.54,0.12,0.28,-0.4
2022-02-06 21:37:26.3190,-0.197,-0.733,-0.72,-1.12,-0.57,2.01,0.14,0.51,-0.37
2022-02-06 21:37:26.3300,-0.219,-0.722,-0.665,-1.12,-0.57,2.01,0.17,0.83,-0.32
2022-02-06 21:37:26.3390,-0.234,-0.711,-0.604,-0.58,-0.83,0.89,0.22,1.23,-0.26
2022-02-06 21:37:26.3500,-0.225,-0.715,-0.539,-0.58,-0.83,0.89,0.29,1.68,-0.2
2022-02-06 21:37:26.3590,-0.191,-0.73,-0.499,-0.69,-0.73,-0.3,0.35,2.0,-0.19
2022-02-06 21:37:26.3700,-0.158,-0.723,-0.516,-0.93,-0.75,-0.27,0.38,2.12,-0.21
2022-02-06 21:37:26.3800,-0.141,-0.697,-0.516,-0.93,-0.75,-0.27,0.38,2.15,-0.25
2022-02-06 21:37:26.3890,-0.124,-0.681,-0.498,-0.99,-1.02,-0.18,0.34,2.11,-0.28
2022-02-06 21:37:26.4000,-0.112,-0.691,-0.489,-1.01,-1.24,-0.5,0.27,2.05,-0.29
2022-02-06 21:37:26.4090,-0.102,-0.719,-0.47,-1.01,-1.24,-0.5,0.17,1.97,-0.29
2022-02-06 21:37:26.4200,-0.088,-0.732,-0.465,-0.98,-0.82,-0.83,0.06,1.84,-0.32
2022-02-06 21:37:26.4300,-0.069,-0.729,-0.478,-0.98,-0.82,-0.83,-0.04,1.69,-0.38
2022-02-06 21:37:26.4400,-0.059,-0.728,-0.484,-1.06,-0.86,-0.7,-0.13,1.58,-0.41
2022-02-06 21:37:26.4490,-0.069,-0.732,-0.47,-0.87,-0.82,-0.84,-0.19,1.55,-0.38
2022-02-06 21:37:26.4600,-0.08,-0.736,-0.46,-0.87,-0.82,-0.84,-0.22,1.57,-0.3
2022-02-06 21:37:26.4700,-0.093,-0.733,-0.473,-0.64,-0.77,-1.01,-0.2,1.61,-0.21
2022-02-06 21:37:26.4800,-0.111,-0.717,-0.496,-0.42,-0.77,-0.98,-0.16,1.64,-0.11
2022-02-06 21:37:26.4890,-0.134,-0.7,-0.519,0.16,-1.06,-0.6,-0.09,1.67,-0.01
2022-02-06 21:37:26.5000,-0.161,-0.687,-0.544,0.51,-1.19,-0.39,-0.0,1.67,0.07
2022-02-06 21:37:26.5100,-0.173,-0.677,-0.576,0.51,-1.19,-0.39,0.1,1.62,0.14
2022-02-06 21:37:26.5200,-0.165,-0.674,-0.6,0.77,-1.29,-0.1,0.21,1.52,0.18
2022-02-06 21:37:26.5300,-0.152,-0.681,-0.605,0.75,-1.31,0.27,0.3,1.43,0.21
2022-02-06 21:37:26.5400,-0.146,-0.69,-0.59,0.72,-1.24,0.18,0.35,1.38,0.25
2022-02-06 21:37:26.5500,-0.153,-0.7,-0.56,0.72,-1.24,0.18,0.35,1.39,0.31
2022-02-06 21:37:26.5600,-0.163,-0.711,-0.53,0.83,-1.16,-0.07,0.31,1.43,0.37
2022-02-06 21:37:26.5710,-0.174,-0.714,-0.514,1.13,-1.03,-0.54,0.27,1.48,0.43
2022-02-06 21:37:26.5800,-0.184,-0.708,-0.5,1.27,-1.08,-0.66,0.21,1.53,0.48
2022-02-06 21:37:26.5900,-0.195,-0.702,-0.487,1.27,-1.08,-0.66,0.16,1.56,0.52
2022-02-06 21:37:26.6000,-0.199,-0.705,-0.481,1.54,-1.16,-0.86,0.11,1.56,0.55
2022-02-06 21:37:26.6110,-0.196,-0.71,-0.479,1.54,-1.16,-0.86,0.06,1.52,0.56
2022-02-06 21:37:26.6210,-0.198,-0.712,-0.488,1.55,-1.1,-0.9,0.02,1.43,0.57
2022-02-06 21:37:26.6300,-0.212,-0.711,-0.494,1.59,-1.08,-0.84,0.0,1.34,0.56
2022-02-06 21:37:26.6400,-0.222,-0.703,-0.491,1.74,-1.07,-0.76,-0.02,1.26,0.55
2022-02-06 21:37:26.6510,-0.23,-0.692,-0.487,1.88,-1.13,-0.78,-0.05,1.18,0.54
2022-02-06 21:37:26.6610,-0.234,-0.684,-0.483,1.99,-1.23,-0.83,-0.08,1.13,0.53
2022-02-06 21:37:26.6710,-0.228,-0.675,-0.476,2.07,-1.31,-0.87,-0.14,1.09,0.54
2022-02-06 21:37:26.6810,-0.225,-0.665,-0.476,2.02,-1.48,-0.99,-0.21,1.05,0.56
2022-02-06 21:37:26.6910,-0.219,-0.655,-0.474,2.02,-1.48,-0.99,-0.21,1.05,0.56
2022-02-06 21:37:26.7010,-0.22,-0.65,-0.479,1.98,-1.56,-1.02,-0.35,1.04,0.62
2022-02-06 21:37:26.7100,-0.227,-0.649,-0.512,1.98,-1.6,-1.04,-0.41,1.0,0.65
2022-02-06 21:37:26.7210,-0.234,-0.655,-0.542,2.04,-1.59,-0.8,-0.41,0.94,0.69
2022-02-06 21:37:26.7310,-0.247,-0.666,-0.572,2.12,-1.54,-0.52,-0.55,0.86,0.74
2022-02-06 21:37:26.7410,-0.266,-0.677,-0.586,2.22,-1.4,-0.28,-0.6,0.81,0.77
2022-02-06 21:37:26.7510,-0.286,-0.681,-0.579,2.39,-1.25,-0.12,-0.62,0.79,0.77
2022-02-06 21:37:26.7610,-0.296,-0.674,-0.58,2.69,-1.15,-0.3,-0.67,0.75,0.74
2022-02-06 21:37:26.7710,-0.299,-0.669,-0.607,2.69,-1.15,-0.3,-0.8,0.62,0.7
2022-02-06 21:37:26.7810,-0.307,-0.694,-0.648,2.74,-0.98,0.16,-0.98,0.47,0.69
2022-02-06 21:37:26.7910,-0.326,-0.745,-0.662,2.89,-0.44,0.32,-1.1,0.39,0.71
2022-02-06 21:37:26.8020,-0.344,-0.774,-0.663,3.04,0.02,0.2,-1.09,0.34,0.73
2022-02-06 21:37:26.8110,-0.357,-0.75,-0.701,3.04,0.02,0.2,-0.95,0.22,0.71
2022-02-06 21:37:26.8210,-0.351,-0.711,-0.748,3.15,-0.02,0.41,-0.7367965579032898,0.01,0.67
2022-02-06 21:37:26.8310,-0.328,-0.7,-0.774,2.85,-0.52,1.09,-0.53,-0.21,0.64
2022-02-06 21:37:26.8410,-0.304,-0.716,-0.78,2.85,-0.52,1.09,-0.53,-0.21,0.64
2022-02-06 21:37:26.8510,-0.285,-0.74,-0.778,2.53,-0.37,1.14,-0.38,-0.67,0.6
2022-02-06 21:37:26.8610,-0.263,-0.765,-0.767,2.27,-0.11,1.13,-0.45,-0.86,0.57
2022-02-06 21:37:26.8720,-0.247,-0.794,-0.769,1.68,0.48,0.94,-0.59,-1.06,0.52
2022-02-06 21:37:26.8820,-0.24,-0.817,-0.79,1.47,0.78,1.08,-0.7,-1.23,0.48
2022-02-06 21:37:26.8910,-0.251,-0.816,-0.803,1.47,0.78,1.08,-0.74,-1.35,0.44
2022-02-06 21:37:26.9010,-0.259,-0.794,-0.808,1.42,0.9,1.2,-0.7,-1.42,0.38
2022-02-06 21:37:26.9120,-0.263,-0.773,-0.807,1.32,0.58,1.2,-0.57,-1.43,0.33
2022-02-06 21:37:26.9220,-0.276,-0.769,-0.791,1.32,0.58,1.2,-0.44,-1.39,0.29
2022-02-06 21:37:26.9320,-0.292,-0.769,-0.776,1.31,0.55,1.06,-0.3,-1.31,0.25
2022-02-06 21:37:26.9410,-0.303,-0.777,-0.758,1.35,0.58,0.89,-0.3,-1.31,0.25
2022-02-06 21:37:26.9520,-0.297,-0.793,-0.733,1.38,0.65,0.73,-0.1,-1.03,0.13
2022-02-06 21:37:26.9620,-0.275,-0.817,-0.713,1.28,0.8,0.51,-0.08,-0.92,0.03
2022-02-06 21:37:26.9720,-0.245,-0.847,-0.706,1.02,1.03,0.28,-0.1,-0.86,-0.06
2022-02-06 21:37:26.9810,-0.219,-0.873,-0.698,0.35,1.61,0.15,-0.13,-0.84,-0.14
2022-02-06 21:37:26.9920,-0.206,-0.878,-0.689,0.14,1.72,0.06,-0.14,-0.83,-0.22
2022-02-06 21:37:27.0020,-0.202,-0.868,-0.682,0.04,1.65,-0.01,-0.12,-0.83,-0.28
2022-02-06 21:37:27.0120,-0.205,-0.85,-0.674,0.04,1.65,-0.01,-0.07,-0.82,-0.33
2022-02-06 21:37:27.0220,-0.202,-0.83,-0.67,0.03,1.49,-0.08,-0.07,-0.82,-0.33
2022-02-06 21:37:27.0320,-0.191,-0.819,-0.673,-0.01,1.3,-0.12,0.01,-0.84,-0.36
2022-02-06 21:37:27.0420,-0.177,-0.814,-0.676,-0.3,1.08,-0.02,0.18,-0.98,-0.43
2022-02-06 21:37:27.0520,-0.161,-0.808,-0.676,-0.3,1.08,-0.02,0.26,-1.07,-0.47
2022-02-06 21:37:27.0620,-0.149,-0.799,-0.676,-0.49,1.0,0.01,0.33,-1.15,-0.54
2022-02-06 21:37:27.0720,-0.138,-0.783,-0.665,-0.66,0.91,0.07,0.33,-1.15,-0.54
2022-02-06 21:37:27.0820,-0.131,-0.762,-0.65,-0.92,0.5,-0.06,0.4,-1.17,-0.7
2022-02-06 21:37:27.0920,-0.122,-0.732,-0.629,-1.01,0.18,-0.2,0.4,-1.17,-0.7
2022-02-06 21:37:27.1020,-0.103,-0.709,-0.609,-1.01,0.18,-0.2,0.34,-1.04,-0.86
2022-02-06 21:37:27.1130,-0.081,-0.708,-0.585,-1.4,-0.22,-0.53,0.27,-0.93,-0.9
2022-02-06 21:37:27.1220,-0.048,-0.717,-0.567,-1.4,-0.22,-0.53,0.27,-0.93,-0.9
2022-02-06 21:37:27.1320,-0.017,-0.728,-0.56,-1.69,-0.18,-0.7,0.11,-0.74,-0.88
2022-02-06 21:37:27.1420,0.017,-0.746,-0.561,-1.99,-0.12,-0.76,0.06,-0.69,-0.83
2022-02-06 21:37:27.1520,0.041,-0.758,-0.577,-2.3,0.02,-0.76,0.03,-0.7,-0.78
2022-02-06 21:37:27.1630,0.056,-0.767,-0.592,-2.56,0.15,-0.62,0.06,-0.69,-0.71
2022-02-06 21:37:27.1730,0.068,-0.781,-0.583,-2.71,0.21,-0.41,0.15,-0.66,-0.65
2022-02-06 21:37:27.1820,0.078,-0.788,-0.578,-2.92,0.4,-0.48,0.27,-0.62,-0.58
2022-02-06 21:37:27.1920,0.095,-0.792,-0.564,-2.92,0.4,-0.48,0.39,-0.61,-0.51
2022-02-06 21:37:27.2020,0.118,-0.818,-0.544,-3.27,0.55,-0.69,0.5,-0.66,-0.4
2022-02-06 21:37:27.2130,0.153,-0.861,-0.535,-3.27,0.55,-0.69,0.55,-0.85,-0.28
2022-02-06 21:37:27.2220,0.193,-0.899,-0.549,-4.04,1.27,-0.63,0.52,-1.17,-0.13
2022-02-06 21:37:27.2330,0.229,-0.932,-0.566,-4.04,1.27,-0.63,0.4,-1.53,-0.0
2022-02-06 21:37:27.2420,0.256,-0.969,-0.568,-4.47,1.56,-0.38,0.24,-1.82,0.14
2022-02-06 21:37:27.2530,0.262,-1.0,-0.549,-5.11,2.22,-0.34,0.07,-1.91,0.27
2022-02-06 21:37:27.2630,0.251,-1.021,-0.52,-5.11,2.22,-0.34,-0.07,-1.76,0.35
2022-02-06 21:37:27.2730,0.239,-1.031,-0.498,-5.16,2.46,-0.56,-0.17,-1.42,0.38
2022-02-06 21:37:27.2820,0.221,-1.031,-0.487,-5.1,2.65,-0.89,-0.24,-0.97,0.4
2022-02-06 21:37:27.2930,0.196,-1.037,-0.488,-5.1,2.65,-0.89,-0.29,-0.47,0.44
2022-02-06 21:37:27.3030,0.162,-1.043,-0.49,-4.96,2.71,-0.9,-0.3,0.05,0.52
2022-02-06 21:37:27.3130,0.118,-1.048,-0.495,-4.32,2.89,-0.87,-0.24,0.54,0.62
2022-02-06 21:37:27.3230,0.077,-1.055,-0.503,-4.32,2.89,-0.87,-0.12,0.95,0.72
2022-02-06 21:37:27.3330,0.055,-1.063,-0.516,-3.89,2.99,-0.85,0.05,1.25,0.79
2022-02-06 21:37:27.3420,0.049,-1.076,-0.533,-3.62,3.09,-0.77,0.23,1.41,0.82
2022-02-06 21:37:27.3530,0.042,-1.086,-0.551,-3.45,3.36,-0.48,0.43,1.46,0.81
2022-02-06 21:37:27.3630,0.017,-1.079,-0.542,-3.21,3.33,-0.49,0.43,1.46,0.81
2022-02-06 21:37:27.3730,-0.006,-1.058,-0.517,-3.21,3.33,-0.49,0.7,1.48,0.66
2022-02-06 21:37:27.3830,-0.016,-1.05,-0.498,-2.93,3.12,-0.74,0.72,1.44,0.56
2022-02-06 21:37:27.3920,-0.023,-1.055,-0.484,-2.76,2.97,-0.93,0.67,1.35,0.49
2022-02-06 21:37:27.4030,-0.028,-1.064,-0.482,-2.56,3.04,-1.11,0.59,1.23,0.43
2022-02-06 21:37:27.4130,-0.032,-1.07,-0.479,-2.47,3.09,-1.12,0.5,1.09,0.4
2022-02-06 21:37:27.4230,-0.035,-1.076,-0.48,-2.47,3.09,-1.12,0.44,0.96,0.38
2022-02-06 21:37:27.4330,-0.035,-1.077,-0.49,-2.4,3.13,-1.12,0.42,0.83,0.33
2022-02-06 21:37:27.4430,-0.039,-1.072,-0.505,-2.33,3.09,-0.88,0.43,0.75,0.27
2022-02-06 21:37:27.4530,-0.048,-1.066,-0.51,-2.33,3.09,-0.88,0.45,0.76,0.2
2022-02-06 21:37:27.4640,-0.055,-1.068,-0.501,-2.23,3.01,-0.8,0.47,0.87,0.1
2022-02-06 21:37:27.4730,-0.054,-1.069,-0.489,-2.05,2.99,-0.95,0.46,1.06,-0.0
2022-02-06 21:37:27.4840,-0.041,-1.064,-0.483,-2.05,2.99,-0.95,0.39,1.28,-0.13
2022-02-06 21:37:27.4930,-0.019,-1.06,-0.478,-2.19,2.84,-1.09,0.28,1.5,-0.24
2022-02-06 21:37:27.5030,0.01,-1.074,-0.489,-2.34,2.91,-1.05,0.12,1.66,-0.3
2022-02-06 21:37:27.5140,0.04,-1.097,-0.509,-2.53,3.13,-0.9,-0.02,1.79,-0.3
2022-02-06 21:37:27.5240,0.061,-1.114,-0.528,-2.63,3.31,-0.74,-0.13,1.92,-0.23
2022-02-06 21:37:27.5340,0.069,-1.126,-0.544,-2.63,3.31,-0.74,-0.15,2.04,-0.11
2022-02-06 21:37:27.5430,0.072,-1.126,-0.572,-2.6,3.44,-0.65,-0.08,2.1,0.04
2022-02-06 21:37:27.5540,0.067,-1.108,-0.601,-2.52,3.49,-0.44,-0.08,2.1,0.04
2022-02-06 21:37:27.5640,0.071,-1.08,-0.621,-2.26,3.1,0.0,0.29,2.07,0.26
2022-02-06 21:37:27.5740,0.085,-1.06,-0.641,-2.26,3.1,0.0,0.48,1.94,0.32
2022-02-06 21:37:27.5830,0.097,-1.047,-0.657,-2.28,2.85,0.19,0.48,1.94,0.32
2022-02-06 21:37:27.5940,0.1,-1.029,-0.662,-2.32,2.69,0.38,0.68,1.5,0.38
2022-02-06 21:37:27.6040,0.093,-0.997,-0.671,-2.21,2.19,0.58,0.68,1.28,0.39
2022-02-06 21:37:27.6140,0.077,-0.961,-0.659,-2.21,2.19,0.58,0.64,1.17,0.4
2022-02-06 21:37:27.6240,0.073,-0.932,-0.633,-1.9,1.46,0.35,0.55,1.17,0.4
2022-02-06 21:37:27.6340,0.081,-0.913,-0.621,-1.9,1.46,0.35,0.43,1.24,0.38
2022-02-06 21:37:27.6440,0.092,-0.881,-0.617,-1.91,1.24,0.22,0.31,1.34,0.32
2022-02-06 21:37:27.6530,0.108,-0.832,-0.612,-2.06,0.48,0.15,0.22,1.49,0.26
2022-02-06 21:37:27.6650,0.125,-0.783,-0.608,-2.17,-0.01,0.1,0.18,1.65,0.21
2022-02-06 21:37:27.6740,0.139,-0.745,-0.604,-2.2,-0.43,0.07,0.17,1.83,0.21
2022-02-06 21:37:27.6840,0.157,-0.722,-0.6,-2.2,-0.43,0.07,0.19,1.99,0.26
2022-02-06 21:37:27.6940,0.173,-0.7,-0.609,-2.36,-0.92,0.06,0.21,2.08,0.36
2022-02-06 21:37:27.7040,0.183,-0.687,-0.624,-2.36,-0.92,0.21451387703418734,0.23,2.11,0.48
2022-02-06 21:37:27.7150,0.189,-0.683,-0.639,-2.38,-1.08,0.21,0.24,2.05,0.61
2022-02-06 21:37:27.7240,0.199,-0.682,-0.662,-2.36,-1.14,0.35,0.23,1.91,0.71
2022-02-06 21:37:27.7340,0.207,-0.678,-0.688,-2.42,-1.21,0.83,0.23,1.72,0.77
2022-02-06 21:37:27.7440,0.21,-0.675,-0.71,-2.42,-1.21,0.83,0.25,1.5,0.78
2022-02-06 21:37:27.7550,0.206,-0.669,-0.72,-2.39,-1.3,1.22,0.3,1.33,0.77
2022-02-06 21:37:27.7640,0.194,-0.652,-0.717,-2.27,-1.46,1.25,0.39,1.25,0.74
2022-02-06 21:37:27.7740,0.183,-0.623,-0.699,-2.27,-1.46,1.25,0.5,1.27,0.71
2022-02-06 21:37:27.7850,0.176,-0.602,-0.673,-2.14,-2.012477141618729,0.9373004829883576,0.61,1.39,0.69
2022-02-06 21:37:27.7950,0.168,-0.592,-0.636,-1.94,-2.17,0.64,0.69,1.6,0.7
2022-02-06 21:37:27.8040,0.161,-0.577,-0.599,-1.83,-2.32,0.32,0.73,1.84,0.71
2022-02-06 21:37:27.8150,0.159,-0.555,-0.573,-1.74,-2.57,0.08,0.73,2.03,0.72
2022-02-06 21:37:27.8250,0.164,-0.544,-0.562,-1.74,-2.57,0.08,0.7,2.16,0.72
2022-02-06 21:37:27.8350,0.169,-0.55,-0.552,-1.72,-2.75,0.0,0.67,2.23,0.74
2022-02-06 21:37:27.8440,0.179,-0.57,-0.538,-1.73,-2.65,-0.12,0.65,2.27,0.78
2022-02-06 21:37:27.8550,0.186,-0.598,-0.532,-1.77,-2.42,-0.15,0.63,2.28,0.82
2022-02-06 21:37:27.8650,0.191,-0.621,-0.528,-1.77,-2.42,-0.15,0.63,2.25,0.83
2022-02-06 21:37:27.8750,0.196,-0.634,-0.534,-1.75,-2.2,-0.14,0.61,2.2,0.81
2022-02-06 21:37:27.8850,0.19,-0.638,-0.542,-1.77,-2.08,-0.06,0.61,2.2,0.81
2022-02-06 21:37:27.8950,0.177,-0.629,-0.542,-1.51,-2.14,0.15,0.61,2.09,0.64
2022-02-06 21:37:27.9050,0.162,-0.615,-0.534,-1.31,-2.32,0.15,0.6,2.05,0.56
2022-02-06 21:37:27.9150,0.157,-0.617,-0.525,-1.31,-2.32,0.15,0.55,1.99,0.54
2022-02-06 21:37:27.9250,0.167,-0.637,-0.525,-1.19,-2.24,0.13,0.46,1.88,0.56
2022-02-06 21:37:27.9350,0.182,-0.655,-0.542,-1.28,-2.07,0.3,0.3,1.73,0.59
2022-02-06 21:37:27.9450,0.198,-0.671,-0.563,-1.41,-1.93,0.54,0.08,1.58,0.61
2022-02-06 21:37:27.9550,0.211,-0.697,-0.577,-1.41,-1.93,0.54,-0.14,1.49,0.6
2022-02-06 21:37:27.9660,0.214,-0.716,-0.586,-1.53,-1.7,0.7,-0.33,1.49,0.57
2022-02-06 21:37:27.9750,0.221,-0.712,-0.594,-1.55,-1.46,0.78,-0.49,1.57,0.49
2022-02-06 21:37:27.9850,0.238,-0.708,-0.6,-1.57,-1.44,0.84,-0.63,1.68,0.42
2022-02-06 21:37:27.9950,0.262,-0.721,-0.614,-1.84,-1.36,0.93,-0.78,1.83,0.4
2022-02-06 21:37:28.0050,0.288,-0.752,-0.629,-1.84,-1.36,0.93,-0.95,2.0,0.44
2022-02-06 21:37:28.0160,0.323,-0.791,-0.66,-2.03,-1.06,1.01,-1.11,2.16,0.54
2022-02-06 21:37:28.0250,0.35,-0.81,-0.713,-2.28,-0.63,1.18,-1.2,2.34,0.67
2022-02-06 21:37:28.0350,0.36,-0.793,-0.77,-2.58,-0.34,2.07,-1.16,2.55,0.82
2022-02-06 21:37:28.0450,0.366,-0.764,-0.81,-2.58,-0.34,2.07,-1.16,2.55,0.82
2022-02-06 21:37:28.0550,0.359,-0.744,-0.818,-2.47,-0.75,2.57,-0.74,3.11,1.23
2022-02-06 21:37:28.0660,0.359,-0.725,-0.818,-2.47,-0.75,2.57,-0.49,3.34,1.49
2022-02-06 21:37:28.0750,0.365,-0.705,-0.794,-2.37,-1.1,2.41,-0.3,3.52,1.72
2022-02-06 21:37:28.0850,0.379,-0.687,-0.769,-2.43,-1.29,2.15,-0.25,3.6,1.91
2022-02-06 21:37:28.0960,0.389,-0.677,-0.76,-2.52,-1.43,2.05,-0.33,3.59,2.06
2022-02-06 21:37:28.1060,0.395,-0.675,-0.761,-2.52,-1.43,2.05,-0.53,3.51,2.16
2022-02-06 21:37:28.1160,0.4,-0.671,-0.777,-2.6,-1.49,2.14,-0.76,3.36,2.21
2022-02-06 21:37:28.1260,0.399,-0.666,-0.815,-2.6,-1.49,2.14,-0.95,3.14,2.21
2022-02-06 21:37:28.1350,0.388,-0.647,-0.867,-2.61,-1.51,2.45,-0.95,3.14,2.21
2022-02-06 21:37:28.1460,0.358,-0.615,-0.909,-2.55,-1.63,2.89,-1.13,2.7,2.22
2022-02-06 21:37:28.1550,0.33,-0.58,-0.947,-2.04,-2.19,3.6,-1.14,2.52,2.23
2022-02-06 21:37:28.1670,0.314,-0.547,-0.981,-1.9,-2.5,3.89,-1.14,2.39,2.23
2022-02-06 21:37:28.1760,0.31,-0.533,-0.997,-1.9,-2.5,3.89,-1.13,2.38,2.27
2022-02-06 21:37:28.1860,0.307,-0.522,-0.999,-1.89,-2.7,4.01,-1.11,2.49,2.35
2022-02-06 21:37:28.1960,0.31,-0.508,-1.016,-1.94,-2.8,4.07,-1.08,2.65,2.48
2022-02-06 21:37:28.2060,0.319,-0.498,-1.035,-2.06,-2.87,4.21,-1.02,2.81,2.64
2022-02-06 21:37:28.2170,0.328,-0.492,-1.051,-2.06,-2.87,4.21,-0.94,2.94,2.81
2022-02-06 21:37:28.2260,0.341,-0.497,-1.062,-2.36,-2.87,4.41,-0.84,3.03,2.99
2022-02-06 21:37:28.2360,0.346,-0.504,-1.066,-2.36,-2.87,4.41,-0.7,3.06,3.15
2022-02-06 21:37:28.2460,0.346,-0.5,-1.067,-2.49,-2.77,4.44,-0.59,3.04,3.27
2022-02-06 21:37:28.2560,0.337,-0.493,-1.061,-2.56,-2.83,4.36,-0.5,3.0,3.35
2022-02-06 21:37:28.2670,0.322,-0.488,-1.061,-2.56,-2.83,4.36,-0.44,2.93,3.37
2022-02-06 21:37:28.2760,0.301,-0.472,-1.065,-2.51,-2.87,4.31,-0.35,2.86,3.34
2022-02-06 21:37:28.2860,0.279,-0.45,-1.066,-2.4,-2.99,4.35,-0.22,2.79,3.28
2022-02-06 21:37:28.2960,0.267,-0.415,-1.066,-2.2,-3.5,4.37,-0.05,2.71,3.19
2022-02-06 21:37:28.3070,0.26,-0.368,-1.053,-2.21,-3.97,4.29,-0.05,2.71,3.19
2022-02-06 21:37:28.3170,0.254,-0.334,-1.026,-2.21,-3.97,4.29,0.16,2.72,3.11
2022-02-06 21:37:28.3270,0.243,-0.326,-0.994,-2.22,-4.37,4.06,0.12,2.83,3.17
2022-02-06 21:37:28.3360,0.221,-0.342,-0.967,-2.21,-4.53,3.77,0.0,2.99,3.28
2022-02-06 21:37:28.3460,0.18,-0.352,-0.964,-1.82,-4.29,3.4,-0.15,3.16,3.39
2022-02-06 21:37:28.3560,0.124,-0.346,-0.97,-1.82,-4.288218151330948,3.44,-0.26,3.3,3.43
2022-02-06 21:37:28.3670,0.08,-0.327,-0.973,-0.94,-4.44,3.45,-0.31,3.4,3.36
2022-02-06 21:37:28.3770,0.054,-0.314,-0.978,-0.69,-4.58,3.46,-0.31,3.42,3.21
