time,gFx,gFy,gFz,ax,ay,az,wx,wy,wz
,0.104,-0.073,-0.873,0.08,0.03,0.4,0.56,0.26,-0.58
2022-02-06 21:38:42.9130,0.128,-0.067,-0.939,0.45,-0.59,-0.96,0.6,0.25,-0.52
2022-02-06 21:38:42.9160,0.18,-0.104,-1.01,-0.32,-0.22,0.4,0.6,0.25,-0.52
2022-02-06 21:38:42.9270,0.211,-0.133,-1.02,-0.5357910414040089,-0.018295060694217682,0.34,0.55,-0.1,-0.41
2022-02-06 21:38:42.9370,0.219,-0.146,-0.984,-0.54,-0.02,0.34,0.52,-0.19,-0.36
2022-02-06 21:38:42.9470,0.224,-0.148,-0.966,-0.63,0.03,0.0,0.49,-0.25,-0.3
2022-02-06 21:38:42.9570,0.218,-0.152,-0.966,-0.67,0.0,-0.12,0.43,-0.31,-0.23
2022-02-06 21:38:42.9680,0.208,-0.165,-0.971,-0.62,0.02,-0.09,0.36,-0.34,-0.16
2022-02-06 21:38:42.9780,0.194,-0.184,-0.975,-0.54,0.14,-0.04,0.36,-0.31,-0.09
2022-02-06 21:38:42.9870,0.177,-0.192,-0.962,-0.42,0.29,-0.04,0.29,-0.2,-0.04
2022-02-06 21:38:42.9980,0.164,-0.195,-0.944,-0.27,0.31,-0.19,0.28,-0.04,0.01
2022-02-06 21:38:43.0080,0.158,-0.201,-0.929,-0.12,0.36,-0.48,0.28,0.15,0.04
2022-02-06 21:38:43.0180,0.155,-0.21,-0.922,-0.12,0.36,-0.48,0.29,0.34,0.06
2022-02-06 21:38:43.0280,0.156,-0.216,-0.909,-0.06,0.42,-0.53,0.29,0.55,0.07
2022-02-06 21:38:43.0380,0.158,-0.215,-0.897,0.0,0.39,-0.7,0.28,0.7,0.08
2022-02-06 21:38:43.0480,0.168,-0.215,-0.924,-0.033352810442447665,0.38,-0.38,0.25,0.71,0.05
2022-02-06 21:38:43.0580,0.176,-0.215,-0.942,-0.04,0.38,-0.38,0.21,0.66,0.03
2022-02-06 21:38:43.0680,0.179,-0.213,-0.943,-0.02,0.33,-0.2,0.21,0.66,0.03
2022-02-06 21:38:43.0790,0.188,-0.221,-0.966,-0.02,0.33,-0.2,0.17,0.55,0.03
2022-02-06 21:38:43.0880,0.2,-0.235,-0.992,-0.16,0.55,0.29,0.08,0.25,0.01
2022-02-06 21:38:43.0960,0.206,-0.244,-0.997,-0.2,0.6,0.28,0.06,0.1,-0.0
2022-02-06 21:38:43.1080,0.204,-0.244,-0.984,-0.16,0.59,0.15,0.03,-0.0,-0.0
2022-02-06 21:38:43.1180,0.198,-0.244,-0.979,-0.11,0.61,0.15,0.0,-0.11,-0.01
2022-02-06 21:38:43.1290,0.193,-0.253,-0.993,-0.06,0.71,0.28,-0.03,-0.21,-0.03
2022-02-06 21:38:43.1380,0.179,-0.257,-0.987,0.07,0.73,0.14,-0.04,-0.25,-0.04
2022-02-06 21:38:43.1480,0.161,-0.255,-0.957,0.21,0.71,-0.16,-0.04,-0.24,-0.04
2022-02-06 21:38:43.1580,0.15,-0.255,-0.946,0.21,0.71,-0.16,-0.04,-0.24,-0.05
2022-02-06 21:38:43.1680,0.15,-0.263,-0.957,0.27,0.74,-0.19,-0.01,-0.24,-0.06
2022-02-06 21:38:43.1790,0.148,-0.274,-0.96,0.24,0.94,-0.07,0.03,-0.26,-0.07
2022-02-06 21:38:43.1880,0.153,-0.279,-0.973,0.24,0.94,-0.07,0.09,-0.31,-0.09
2022-02-06 21:38:43.1980,0.16,-0.281,-0.986,0.14,0.97,0.08,0.16,-0.39,-0.12
2022-02-06 21:38:43.2080,0.159,-0.282,-0.986,0.06,0.97,0.17,0.22,-0.45,-0.15
2022-02-06 21:38:43.2190,0.156,-0.287,-0.986,0.04,1.0,0.17,0.28,-0.51,-0.18
2022-02-06 21:38:43.2290,0.149,-0.29,-0.988,0.05,0.99,0.16,0.32,-0.54,-0.2
2022-02-06 21:38:43.2390,0.144,-0.29,-0.99,0.048622083216905594,0.96,0.22,0.36,-0.57,-0.23
2022-02-06 21:38:43.2490,0.141,-0.289,-0.998,0.04,0.96,0.22,0.39,-0.56,-0.26
2022-02-06 21:38:43.2580,0.137,-0.285,-0.981,0.02,0.84,0.05,0.43,-0.5,-0.28
2022-02-06 21:38:43.2690,0.132,-0.282,-0.964,0.04,0.78,-0.08,0.46,-0.42,-0.27
2022-02-06 21:38:43.2790,0.124,-0.286,-0.959,0.04,0.8055381560325623,-0.11458379209041596,0.49,-0.33,-0.23
2022-02-06 21:38:43.2890,0.121,-0.294,-0.958,0.09,0.8,-0.12,0.51,-0.24,-0.19
2022-02-06 21:38:43.2980,0.125,-0.299,-0.97,0.08,0.83,-0.09,0.52,-0.18,-0.17
2022-02-06 21:38:43.3090,0.135,-0.303,-0.973,0.01,0.82,0.04,0.53,-0.13,-0.15
2022-02-06 21:38:43.3190,0.143,-0.307,-0.97,-0.09,0.81,0.04,0.54,-0.08,-0.12
2022-02-06 21:38:43.3290,0.146,-0.317,-0.958,-0.19,0.86,-0.11,0.54,-0.02,-0.08
2022-02-06 21:38:43.3390,0.141,-0.324,-0.948,-0.19,0.86,-0.11,0.53,0.01,-0.04
2022-02-06 21:38:43.3490,0.138,-0.331,-0.957,-0.1,0.91,-0.05,0.52,0.04,0.0
2022-02-06 21:38:43.3600,0.132,-0.338,-0.954,-0.1,0.91,-0.05,0.52,0.06,0.03
2022-02-06 21:38:43.3690,0.128,-0.338,-0.948,-0.02,0.92,-0.09,0.51,0.07,0.05
2022-02-06 21:38:43.3790,0.132,-0.335,-0.944,-0.04,0.78,-0.16,0.52,0.07,0.04
2022-02-06 21:38:43.3890,0.133,-0.337,-0.934,-0.04,0.76,-0.26,0.51,0.04,0.04
2022-02-06 21:38:43.4070,0.131,-0.343,-0.924,-0.01,0.79,-0.33,0.5,-0.01,0.05
2022-02-06 21:38:43.4090,0.124,-0.348,-0.921,0.061109396964311606,0.7874801999330521,-0.35,0.5,-0.01,0.05
2022-02-06 21:38:43.4180,0.117,-0.35,-0.918,0.11,0.75,-0.35,0.44,-0.16,0.04
2022-02-06 21:38:43.4280,0.115,-0.35,-0.924,0.09,0.71,-0.27,0.39,-0.27,0.01
2022-02-06 21:38:43.4380,0.114,-0.352,-0.925,0.09,0.71,-0.27,0.34,-0.38,-0.02
2022-02-06 21:38:43.4480,0.114,-0.357,-0.916,0.02,0.74,-0.38,0.33,-0.49,-0.04
2022-02-06 21:38:43.4580,0.111,-0.362,-0.902,0.02,0.74,-0.38,0.34,-0.58,-0.04
2022-02-06 21:38:43.4690,0.099,-0.367,-0.896,0.03,0.75,-0.53,0.39,-0.7,-0.0
2022-02-06 21:38:43.4790,0.09,-0.376,-0.9,0.08,0.82,-0.53,0.39,-0.7,-0.0
2022-02-06 21:38:43.4880,0.087,-0.38,-0.891,0.01,0.79,-0.58,0.57,-0.96,0.08
2022-02-06 21:38:43.4980,0.084,-0.381,-0.898,-0.06,0.75,-0.46,0.65,-1.12,0.08
2022-02-06 21:38:43.5090,0.077,-0.387,-0.915,-0.06,0.75,-0.46,0.69,-1.27,0.06
2022-02-06 21:38:43.5190,0.062,-0.393,-0.921,-0.09,0.76,-0.3,0.7,-1.38,0.03
2022-02-06 21:38:43.5290,0.037,-0.396,-0.919,0.07,0.7,-0.27,0.68,-1.44,0.01
2022-02-06 21:38:43.5400,0.01,-0.401,-0.912,0.07,0.7,-0.27,0.65,-1.42,0.01
2022-02-06 21:38:43.5500,-0.021,-0.406,-0.895,0.42,0.68,-0.5,0.62,-1.29,0.04
2022-02-06 21:38:43.5600,-0.059,-0.404,-0.89,0.42,0.68,-0.5,0.6,-1.1,0.11
2022-02-06 21:38:43.5700,-0.08,-0.406,-0.901,0.66,0.6,-0.48,0.61,-0.92,0.19
2022-02-06 21:38:43.5800,-0.08,-0.419,-0.924,0.72,0.6,-0.33,0.62,-0.76,0.23
2022-02-06 21:38:43.5900,-0.066,-0.434,-0.951,0.37,0.76,0.21,0.63,-0.6,0.21
2022-02-06 21:38:43.6000,-0.048,-0.442,-0.964,0.17,0.75,0.34,0.63,-0.4,0.14
2022-02-06 21:38:43.6100,-0.042,-0.438,-0.972,0.14,0.64,0.44,0.58,-0.17,0.07
2022-02-06 21:38:43.6200,-0.052,-0.424,-0.984,0.14,0.64,0.44,0.58,-0.17,0.07
2022-02-06 21:38:43.6290,-0.051,-0.408,-1.006,0.19,0.26,0.84,0.34,0.15,-0.03
2022-02-06 21:38:43.6400,-0.038,-0.394,-1.027,0.19,0.26,0.84,0.18,0.19,-0.07
2022-02-06 21:38:43.6500,-0.03,-0.377,-1.045,0.04,-0.06,1.21,0.03,0.17,-0.07
2022-02-06 21:38:43.6600,-0.032,-0.361,-1.059,0.09,-0.23,1.33,-0.06,0.11,-0.04
2022-02-06 21:38:43.6710,-0.036,-0.337,-1.069,0.14,-0.49,1.45,-0.09,0.02,-0.02
2022-02-06 21:38:43.6800,-0.042,-0.296,-1.091,0.14,-0.49,1.45,-0.08,-0.12,-0.03
2022-02-06 21:38:43.6900,-0.044,-0.258,-1.116,0.19,-0.9,1.68,-0.01,-0.26,-0.07
2022-02-06 21:38:43.7000,-0.043,-0.229,-1.119,0.17,-1.25,1.89,0.1,-0.34,-0.14
2022-02-06 21:38:43.7100,-0.047,-0.203,-1.113,0.15,-1.52,1.87,0.1,-0.34,-0.14
2022-02-06 21:38:43.7200,-0.044,-0.182,-1.104,0.15,-1.79,1.82,0.35,-0.37,-0.31
2022-02-06 21:38:43.7300,-0.039,-0.167,-1.084,0.03,-2.19,1.52,0.48,-0.28,-0.37
2022-02-06 21:38:43.7410,-0.038,-0.154,-1.054,0.02,-2.37,1.26,0.61,-0.16,-0.37
2022-02-06 21:38:43.7520,-0.037,-0.144,-1.03,0.02,-2.37,1.26,0.72,-0.02,-0.29
2022-02-06 21:38:43.7600,-0.037,-0.149,-1.017,0.02,-2.5,1.06,0.8,0.06,-0.17
2022-02-06 21:38:43.7700,-0.03,-0.164,-1.021,-0.07,-2.42,1.11,0.86,0.05,-0.03
2022-02-06 21:38:43.7810,-0.016,-0.18,-1.03,-0.17514822855591775,-2.34,1.21,0.9,-0.01,0.07
2022-02-06 21:38:43.7900,-0.014,-0.193,-1.029,-0.17,-2.32,1.23,0.92,-0.08,0.11
2022-02-06 21:38:43.8010,-0.028,-0.191,-1.022,-0.17,-2.32,1.23,0.94,-0.15,0.09
2022-02-06 21:38:43.8110,-0.046,-0.18,-1.005,-0.04,-2.46,1.18,0.95,-0.16,0.02
2022-02-06 21:38:43.8200,-0.062,-0.177,-0.981,0.25,-2.72,0.85,0.95,-0.15,-0.09
2022-02-06 21:38:43.8310,-0.069,-0.184,-0.966,0.3,-2.71,0.74,0.95,-0.11,-0.2
2022-02-06 21:38:43.8410,-0.067,-0.194,-0.945,0.3,-2.71,0.74,0.92,-0.08,-0.31
2022-02-06 21:38:43.8510,-0.059,-0.198,-0.934,0.27,-2.71,0.57,0.87,-0.07,-0.41
2022-02-06 21:38:43.8600,-0.048,-0.207,-0.927,0.2,-2.75,0.54,0.8,-0.07,-0.46
2022-02-06 21:38:43.8710,-0.032,-0.225,-0.913,0.08,-2.71,0.49,0.71,-0.07,-0.47
2022-02-06 21:38:43.8810,-0.016,-0.248,-0.904,-0.19,-2.41,0.34,0.62,-0.08,-0.45
2022-02-06 21:38:43.8910,-0.004,-0.263,-0.902,-0.28,-2.34,0.37,0.5,-0.1,-0.43
2022-02-06 21:38:43.9010,-0.001,-0.264,-0.9,-0.28,-2.34,0.37,0.5,-0.1,-0.43
2022-02-06 21:38:43.9110,-0.005,-0.259,-0.902,-0.22,-2.44,0.43,0.24,-0.09,-0.43
2022-02-06 21:38:43.9210,-0.01,-0.267,-0.918,-0.15,-2.33,0.6,0.11,-0.11,-0.42
2022-02-06 21:38:43.9310,-0.018,-0.284,-0.931,-0.15,-2.33,0.6,0.01,-0.12,-0.41
2022-02-06 21:38:43.9410,-0.02,-0.298,-0.94,-0.07,-2.18,0.7,-0.07,-0.13,-0.39
2022-02-06 21:38:43.9510,-0.025,-0.314,-0.951,0.02,-1.88,0.88,-0.1,-0.13,-0.36
2022-02-06 21:38:43.9610,-0.031,-0.32,-0.951,0.09,-1.82,0.86,-0.1,-0.11,-0.34
2022-02-06 21:38:43.9710,-0.041,-0.326,-0.945,0.09,-1.82,0.86,-0.08,-0.04,-0.31
2022-02-06 21:38:43.9810,-0.045,-0.337,-0.941,0.2,-1.74,0.79,-0.05,0.06,-0.27
2022-02-06 21:38:43.9910,-0.045,-0.349,-0.943,0.25,-1.63,0.76,-0.04,0.16,-0.23
2022-02-06 21:38:44.0010,-0.042,-0.36,-0.948,0.26,-1.38,0.84,-0.05,0.25,-0.17
2022-02-06 21:38:44.0110,-0.036,-0.379,-0.96,0.21,-1.17,0.98,-0.07,0.3,-0.09
2022-02-06 21:38:44.0210,-0.025,-0.398,-0.972,0.21,-1.17,0.98,-0.09,0.32,-0.03
2022-02-06 21:38:44.0310,-0.017,-0.403,-0.979,0.1,-0.97,1.12,-0.09,0.31,0.03
2022-02-06 21:38:44.0410,-0.02,-0.4,-0.982,0.1,-0.97,1.12,-0.08,0.27,0.09
2022-02-06 21:38:44.0520,-0.025,-0.401,-0.983,0.21,-0.96,1.15,-0.06,0.2,0.14
2022-02-06 21:38:44.0610,-0.029,-0.409,-0.986,0.21,-0.96,1.15,-0.04,0.12,0.17
2022-02-06 21:38:44.0710,-0.04,-0.418,-0.989,0.37,-0.78,1.21,-0.02,0.02,0.19
2022-02-06 21:38:44.0810,-0.05,-0.421,-0.992,0.37,-0.78,1.21,0.0,-0.05,0.18
2022-02-06 21:38:44.0910,-0.053,-0.421,-0.987,0.44,-0.77,1.22,0.0,-0.05,0.18
2022-02-06 21:38:44.1020,-0.055,-0.421,-0.982,0.46,-0.77,1.16,0.06,-0.09,0.11
2022-02-06 21:38:44.1120,-0.051,-0.421,-0.969,0.45,-0.78,1.11,0.11,-0.05,0.08
2022-02-06 21:38:44.1220,-0.048,-0.426,-0.948,0.36,-0.71,0.76,0.17,0.01,0.09
2022-02-06 21:38:44.1320,-0.043,-0.439,-0.937,0.36,-0.71,0.76,0.23,0.06,0.11
2022-02-06 21:38:44.1420,-0.041,-0.454,-0.931,0.31,-0.428962265253067,0.62,0.28,0.11,0.14
2022-02-06 21:38:44.1520,-0.051,-0.469,-0.93,0.31,-0.43,0.62,0.28,0.11,0.14
2022-02-06 21:38:44.1620,-0.056,-0.472,-0.946,0.44,-0.35,0.86,0.37,0.09,0.09
2022-02-06 21:38:44.1720,-0.046,-0.464,-0.958,0.44,-0.44110342383384704,0.94,0.42,0.05,0.02
2022-02-06 21:38:44.1820,-0.02,-0.474,-0.945,0.3,-0.45,0.94,0.51,0.06,-0.03
2022-02-06 21:38:44.1920,0.001,-0.503,-0.92,0.04,-0.32,0.78,0.6,0.06,-0.03
2022-02-06 21:38:44.2020,0.005,-0.518,-0.924,-0.13,-0.05,0.75,0.66,-0.03,0.01
2022-02-06 21:38:44.2120,0.002,-0.517,-0.936,-0.12,-0.12,0.83,0.7,-0.15,0.06
2022-02-06 21:38:44.2220,0.003,-0.523,-0.911,-0.12,-0.12,0.83,0.72,-0.2,0.13
2022-02-06 21:38:44.2320,-0.003,-0.541,-0.865,-0.08,0.04,0.12,0.73,-0.16,0.22
2022-02-06 21:38:44.2430,-0.022,-0.554,-0.824,0.1,0.08,-0.22,0.73,-0.04,0.29
2022-02-06 21:38:44.2530,-0.038,-0.558,-0.788,0.22,0.06,-0.54,0.72,0.15,0.34
2022-02-06 21:38:44.2620,-0.051,-0.564,-0.748,0.22,0.06,-0.54,0.72,0.42,0.36
2022-02-06 21:38:44.2720,-0.061,-0.576,-0.712,0.36,0.07,-0.91,0.65,0.68,0.37
2022-02-06 21:38:44.2820,-0.062,-0.601,-0.708,0.47,0.17,-1.17,0.55,0.85,0.36
2022-02-06 21:38:44.2920,-0.04,-0.629,-0.73,0.49,0.39,-1.1,0.4,0.89,0.33
2022-02-06 21:38:44.3020,-0.007,-0.656,-0.766,0.27,0.63,-0.8,0.24,0.82,0.3
2022-02-06 21:38:44.3120,0.012,-0.678,-0.785,0.02,0.87,-0.46,0.09,0.69,0.27
2022-02-06 21:38:44.3220,0.022,-0.684,-0.788,-0.15,1.07,-0.31,-0.03,0.56,0.25
2022-02-06 21:38:44.3330,0.025,-0.676,-0.787,-0.12,0.97,-0.34,-0.1,0.45,0.22
2022-02-06 21:38:44.3430,0.012,-0.655,-0.776,-0.12,0.97,-0.34,-0.12,0.4,0.18
2022-02-06 21:38:44.3530,-0.007,-0.62,-0.754,0.06,0.73,-0.48,-0.1,0.42,0.14
2022-02-06 21:38:44.3620,-0.023,-0.588,-0.736,0.27,0.38,-0.71,-0.08,0.46,0.13
2022-02-06 21:38:44.3730,-0.027,-0.579,-0.725,0.44,0.12,-0.87,-0.05,0.52,0.16
2022-02-06 21:38:44.3830,-0.02,-0.583,-0.715,0.43,0.15,-1.05,-0.04,0.56,0.22
2022-02-06 21:38:44.3930,-0.013,-0.587,-0.716,0.43,0.15,-1.05,-0.03,0.58,0.3
2022-02-06 21:38:44.4030,-0.005,-0.583,-0.719,0.34,0.13,-1.01,-0.01,0.57,0.37
2022-02-06 21:38:44.4120,0.002,-0.583,-0.723,0.34,0.13,-1.01,0.01,0.54,0.4
2022-02-06 21:38:44.4230,0.009,-0.583,-0.729,0.29,0.13,-0.95,0.05,0.49,0.41
2022-02-06 21:38:44.4320,0.017,-0.581,-0.728,0.19,0.09,-0.92,0.1,0.45,0.4
2022-02-06 21:38:44.4430,0.021,-0.58,-0.718,0.19,0.09,-0.92,0.15995317697525024,0.43,0.38
2022-02-06 21:38:44.4530,0.03,-0.577,-0.705,0.15,0.07,-1.03,0.21,0.43,0.36
2022-02-06 21:38:44.4630,0.042,-0.575,-0.695,0.06,0.02,-1.15,0.22,0.43,0.34
2022-02-06 21:38:44.4730,0.052,-0.573,-0.692,-0.04,-0.02,-1.22,0.21,0.43,0.32
2022-02-06 21:38:44.4830,0.054,-0.574,-0.691,-0.1,-0.04,-1.22,0.21,0.43,0.32
2022-02-06 21:38:44.4930,0.056,-0.57,-0.69,-0.11,-0.12,-1.21,0.14,0.43,0.35
2022-02-06 21:38:44.5030,0.059,-0.563,-0.7,-0.12336568873375654,-0.17875932276248932,-1.07,0.09,0.38,0.37
2022-02-06 21:38:44.5130,0.061,-0.562,-0.721,-0.13,-0.18,-1.07,0.03,0.3,0.41
2022-02-06 21:38:44.5230,0.056,-0.568,-0.736,-0.14,-0.18,-0.86,-0.01,0.21,0.45
2022-02-06 21:38:44.5330,0.043,-0.57,-0.753,-0.07,-0.12,-0.73,-0.06,0.12,0.49
2022-02-06 21:38:44.5440,0.023,-0.569,-0.772,0.06,-0.11,-0.55,-0.1,0.06,0.51
2022-02-06 21:38:44.5540,0.002,-0.561,-0.781,0.24,-0.12,-0.39,-0.12,0.03,0.5
2022-02-06 21:38:44.5640,-0.013,-0.54,-0.783,0.53,-0.44,-0.33,-0.13,0.06,0.45
2022-02-06 21:38:44.5740,-0.024,-0.516,-0.772,0.59,-0.65,-0.48,-0.13,0.16,0.4
2022-02-06 21:38:44.5840,-0.027,-0.498,-0.758,0.62,-0.79,-0.6,-0.14,0.28,0.36
2022-02-06 21:38:44.5920,-0.031,-0.489,-0.75,0.62,-0.79,-0.6,-0.17,0.41,0.36
2022-02-06 21:38:44.6030,-0.031,-0.485,-0.748,0.67,-0.86,-0.68,-0.17,0.5,0.4
2022-02-06 21:38:44.6130,-0.021,-0.486,-0.764,0.66,-0.87,-0.68,-0.3,0.51,0.46
2022-02-06 21:38:44.6230,-0.007,-0.486,-0.778,0.57,-0.83,-0.51,-0.36,0.48,0.52
2022-02-06 21:38:44.6330,0.007,-0.478,-0.784,0.43,-0.82,-0.43,-0.36,0.48,0.52
2022-02-06 21:38:44.6440,0.008,-0.47,-0.785,0.32,-0.87,-0.39,-0.38,0.43,0.669616162776947
2022-02-06 21:38:44.6540,0.008,-0.46,-0.76,0.33,-0.93,-0.44,-0.28,0.5,0.76
2022-02-06 21:38:44.6640,0.014,-0.455,-0.712,0.31,-1.0,-0.78,-0.18,0.66,0.85
2022-02-06 21:38:44.6740,0.018,-0.456,-0.679,0.26,-1.02,-1.26,-0.18,0.66,0.85
2022-02-06 21:38:44.6920,0.027,-0.463,-0.682,0.14,-0.9,-1.41,-0.06,0.86,1.0
2022-02-06 21:38:44.6920,0.041,-0.478,-0.698,0.01,-0.75,-1.27,-0.05,0.85,1.06
2022-02-06 21:38:44.7030,0.056,-0.494,-0.698,0.01,-0.75,-1.27,-0.06,0.84,1.11
2022-02-06 21:38:44.7130,0.074,-0.518,-0.692,-0.15,-0.58,-1.31,-0.08,0.81,1.16
2022-02-06 21:38:44.7230,0.084,-0.544,-0.702,-0.3,-0.31,-1.35,-0.12,0.69,1.22
2022-02-06 21:38:44.7340,0.094,-0.556,-0.74,-0.5,0.01,-0.77,-0.21,0.45,1.24
2022-02-06 21:38:44.7440,0.094,-0.563,-0.782,-0.5,0.01,-0.77,-0.21,0.45,1.24
2022-02-06 21:38:44.7540,0.09,-0.58,-0.791,-0.54,0.13,-0.45,-0.42,0.02,1.18
2022-02-06 21:38:44.7640,0.073,-0.593,-0.781,-0.42,0.47,-0.59,-0.49,-0.04,1.12
2022-02-06 21:38:44.7750,0.052,-0.59,-0.77,-0.42,0.47,-0.59,-0.52,-0.02,1.04
2022-02-06 21:38:44.7840,0.035,-0.584,-0.759,-0.17,0.47,-0.86,-0.52,0.08,0.99
2022-02-06 21:38:44.7940,0.022,-0.596,-0.746,-0.17,0.47,-0.86,-0.48,0.23,0.97
2022-02-06 21:38:44.8040,0.014,-0.612,-0.736,-0.08,0.65,-1.02,-0.4,0.38,0.98
2022-02-06 21:38:44.8140,0.013,-0.627,-0.744,-0.04,0.84,-1.1,-0.3,0.47,0.98
2022-02-06 21:38:44.8240,0.019,-0.651,-0.769,-0.06,1.02,-0.99,-0.3,0.47,0.98
2022-02-06 21:38:44.8340,0.028,-0.679,-0.797,-0.14,1.3,-0.74,-0.08,0.39,0.86
2022-02-06 21:38:44.8450,0.032,-0.701,-0.813,-0.24,1.58,-0.48,0.04,0.3,0.73
2022-02-06 21:38:44.8540,0.033,-0.711,-0.817,-0.29,1.76,-0.37,0.14,0.18,0.55
2022-02-06 21:38:44.8640,0.029,-0.715,-0.821,-0.3,1.83,-0.32,0.21,0.05,0.37
2022-02-06 21:38:44.8750,0.025,-0.718,-0.811,-0.27,1.84,-0.29,0.24,-0.05,0.2
2022-02-06 21:38:44.8850,0.025,-0.722,-0.786,-0.27,1.88,-0.68,0.24,-0.05,0.2
2022-02-06 21:38:44.8950,0.027,-0.725,-0.759,-0.27,1.88,-0.68,0.21,-0.11,-0.0
2022-02-06 21:38:44.9040,0.034,-0.733,-0.737,-0.31,1.9,-0.93,0.15,-0.07,-0.03
2022-02-06 21:38:44.9150,0.045,-0.743,-0.722,-0.39,1.97,-1.11,0.08,-0.02,-0.04
2022-02-06 21:38:44.9250,0.059,-0.752,-0.716,-0.51,2.06,-1.25,-0.01,0.03,-0.03
2022-02-06 21:38:44.9350,0.07,-0.762,-0.72,-0.64,2.16,-1.27,-0.1,0.08,-0.02
2022-02-06 21:38:44.9450,0.078,-0.767,-0.722,-0.73,2.25,-1.23,-0.17,0.14,-0.01
2022-02-06 21:38:44.9550,0.084,-0.77,-0.725,-0.79,2.31,-1.22,-0.23,0.21,-0.02
2022-02-06 21:38:44.9640,0.085,-0.767,-0.726,-0.83,2.35,-1.21,-0.27,0.3,-0.03
2022-02-06 21:38:44.9750,0.087,-0.763,-0.727,-0.81,2.33,-1.22,-0.3,0.38,-0.01
2022-02-06 21:38:44.9850,0.083,-0.762,-0.732,-0.7,2.35,-1.17,-0.31,0.44,0.02
2022-02-06 21:38:44.9950,0.077,-0.763,-0.737,-0.7,2.35,-1.17,-0.32,0.48,0.07
2022-02-06 21:38:45.0050,0.077,-0.762,-0.749,-0.62,2.38,-1.15,-0.31,0.45,0.12
2022-02-06 21:38:45.0150,0.072,-0.763,-0.775,-0.59,2.41,-1.0,-0.31,0.38,0.16
2022-02-06 21:38:45.0250,0.061,-0.764,-0.794,-0.49,2.45,-0.75,-0.27,0.27,0.18
2022-02-06 21:38:45.0350,0.051,-0.763,-0.806,-0.27,2.48,-0.51,-0.23,0.15,0.17
2022-02-06 21:38:45.0460,0.039,-0.759,-0.819,-0.15,2.46,-0.39,-0.17,0.03,0.15
2022-02-06 21:38:45.0550,0.029,-0.759,-0.827,-0.15,2.46,-0.39,-0.1,-0.07,0.12
2022-02-06 21:38:45.0650,0.023,-0.762,-0.827,-0.07,2.48,-0.35,-0.01,-0.15,0.07
2022-02-06 21:38:45.0760,0.015,-0.764,-0.833,-0.03,2.51,-0.34,0.09,-0.18,0.01
2022-02-06 21:38:45.0850,0.006,-0.757,-0.817,0.04,2.51,-0.31,0.09,-0.18,0.01
2022-02-06 21:38:45.0950,-0.002,-0.751,-0.805,0.11,2.43,-0.49,0.26,-0.12,-0.07
2022-02-06 21:38:45.1060,-0.007,-0.747,-0.807,0.18,2.35,-0.55,0.29,-0.1,-0.1
2022-02-06 21:38:45.1150,-0.006,-0.745,-0.804,0.21,2.3,-0.51,0.3,-0.08,-0.11
2022-02-06 21:38:45.1260,-0.004,-0.739,-0.795,0.18,2.16,-0.63,0.3,-0.06,-0.11
2022-02-06 21:38:45.1350,-0.005,-0.735,-0.788,0.19,2.11,-0.67,0.29,-0.04,-0.11
2022-02-06 21:38:45.1460,-0.008,-0.733,-0.784,0.19,2.11,-0.67,0.29,-0.03,-0.11
2022-02-06 21:38:45.1550,-0.011,-0.731,-0.777,0.22,2.07,-0.69,0.28,0.01,-0.11
2022-02-06 21:38:45.1650,-0.012,-0.73,-0.761,0.25,2.03,-0.78,0.3,0.05,-0.13
2022-02-06 21:38:45.1760,-0.012,-0.727,-0.75,0.28,1.94,-0.99,0.3,0.08,-0.15
2022-02-06 21:38:45.1860,-0.007,-0.725,-0.745,0.24,1.89,-1.01,0.3,0.07,-0.19
2022-02-06 21:38:45.1960,-0.001,-0.722,-0.743,0.24,1.89,-1.01,0.27,0.03,-0.23
2022-02-06 21:38:45.2060,0.009,-0.719,-0.744,0.18,1.85,-1.01,0.24,-0.03,-0.29
2022-02-06 21:38:45.2160,0.016,-0.714,-0.752,0.06,1.71,-0.87,0.19,-0.13,-0.35
2022-02-06 21:38:45.2260,0.019,-0.704,-0.767,0.06,1.71,-0.87,0.14,-0.26,-0.42
2022-02-06 21:38:45.2360,0.036,-0.698,-0.786,0.0,1.61,-0.7,0.09,-0.39,-0.5
2022-02-06 21:38:45.2460,0.049,-0.694,-0.801,-0.17,1.56,-0.37833941102027896,0.05,-0.51,-0.57
2022-02-06 21:38:45.2560,0.051,-0.682,-0.811,-0.31,1.36,-0.3,0.02,-0.6,-0.64
2022-02-06 21:38:45.2640,0.051,-0.659,-0.82,-0.33,1.13,-0.19,-0.02,-0.68,-0.7
2022-02-06 21:38:45.2760,0.049,-0.633,-0.835,-0.32,0.87,-0.07,-0.09,-0.73,-0.77
2022-02-06 21:38:45.2860,0.046,-0.606,-0.841,-0.3,0.63,-0.03,-0.18,-0.72,-0.83
2022-02-06 21:38:45.2960,0.036,-0.586,-0.851,-0.3,0.63,-0.03,-0.3,-0.68,-0.86
2022-02-06 21:38:45.3060,0.021,-0.583,-0.864,-0.21,0.5,0.08,-0.41,-0.59,-0.84
2022-02-06 21:38:45.3160,-0.001,-0.587,-0.877,0.19,0.61,0.28,-0.49,-0.46,-0.79
2022-02-06 21:38:45.3260,-0.024,-0.58,-0.877,0.19,0.61,0.28,-0.51,-0.25,-0.73
2022-02-06 21:38:45.3360,-0.045,-0.561,-0.853,0.66,0.39,-0.1,-0.45,0.01,-0.68
2022-02-06 21:38:45.3460,-0.066,-0.543,-0.837,0.66,0.39,-0.1,-0.33,0.25,-0.63
2022-02-06 21:38:45.3560,-0.071,-0.534,-0.847,0.89,0.26,-0.21,-0.19,0.36,-0.59
2022-02-06 21:38:45.3660,-0.053,-0.542,-0.866,0.94,0.22,-0.08,-0.05,0.35,-0.59
2022-02-06 21:38:45.3760,-0.027,-0.561,-0.881,0.78,0.35,0.1,0.08,0.24,-0.6
2022-02-06 21:38:45.3860,-0.008,-0.58,-0.898,0.6,0.55,0.25,0.18,0.05,-0.65
2022-02-06 21:38:45.3970,0.007,-0.591,-0.897,0.46,0.71,0.41,0.28,-0.15,-0.72
2022-02-06 21:38:45.4070,0.019,-0.595,-0.874,0.26,0.78,0.11,0.28,-0.15,-0.72
2022-02-06 21:38:45.4160,0.023,-0.595,-0.851,0.26,0.78,0.11,0.39,-0.46,-0.87
2022-02-06 21:38:45.4270,0.028,-0.595,-0.818,0.23,0.74,-0.1,0.38,-0.54,-0.91
2022-02-06 21:38:45.4360,0.036,-0.603,-0.78,0.18,0.74,-0.44,0.31,-0.55,-0.91
2022-02-06 21:38:45.4470,0.05,-0.618,-0.748,0.09,0.82,-0.79,0.18,-0.52,-0.89
2022-02-06 21:38:45.4560,0.066,-0.628,-0.728,-0.06,0.95,-1.06,0.01,-0.48,-0.85
2022-02-06 21:38:45.4670,0.081,-0.629,-0.717,-0.21,1.03,-1.24,-0.18,-0.43,-0.82
2022-02-06 21:38:45.4760,0.095,-0.625,-0.71,-0.47,1.03,-1.42,-0.38,-0.36,-0.8
2022-02-06 21:38:45.4870,0.105,-0.619,-0.71,-0.47,1.03,-1.42,-0.55,-0.3,-0.78
2022-02-06 21:38:45.4970,0.116,-0.612,-0.715,-0.55,1.01,-1.43,-0.68,-0.23,-0.76
2022-02-06 21:38:45.5070,0.132,-0.603,-0.723,-0.66,1.0,-1.42,-0.75,-0.18,-0.72
2022-02-06 21:38:45.5170,0.146,-0.593,-0.739,-0.79,0.98,-1.36,-0.78,-0.17,-0.67
2022-02-06 21:38:45.5270,0.159,-0.585,-0.759,-0.91,0.96,-1.22,-0.74,-0.19,-0.61
2022-02-06 21:38:45.5370,0.17,-0.576,-0.773,-1.11,0.92,-0.97,-0.65,-0.24,-0.53
2022-02-06 21:38:45.5470,0.176,-0.568,-0.789,-1.11,0.92,-0.97,-0.5,-0.31,-0.44
2022-02-06 21:38:45.5570,0.177,-0.565,-0.804,-1.16,0.9,-0.84,-0.33,-0.4,-0.34
2022-02-06 21:38:45.5670,0.18,-0.567,-0.812,-1.19,0.92,-0.72,-0.14,-0.46,-0.26
2022-02-06 21:38:45.5770,0.182,-0.575,-0.808,-1.24,0.97,-0.69,0.07,-0.49,-0.19
2022-02-06 21:38:45.5880,0.185,-0.586,-0.813,-1.37,1.15,-0.64,0.26,-0.53,-0.15
2022-02-06 21:38:45.5970,0.185,-0.6,-0.831,-1.37,1.15,-0.64,0.42,-0.59,-0.13
2022-02-06 21:38:45.6070,0.175,-0.614,-0.847,-1.33,1.34,-0.28,0.54,-0.65,-0.14
2022-02-06 21:38:45.6170,0.165,-0.621,-0.849,-1.33,1.34,-0.28,0.61,-0.69,-0.19
2022-02-06 21:38:45.6270,0.152,-0.616,-0.848,-1.2,1.2,-0.24,0.64,-0.71,-0.26
2022-02-06 21:38:45.6370,0.142,-0.604,-0.843,-1.16,1.04,-0.3,0.64,-0.67,-0.36
2022-02-06 21:38:45.6470,0.138,-0.594,-0.819,-1.16,1.04,-0.3,0.64,-0.55,-0.43
2022-02-06 21:38:45.6570,0.131,-0.576,-0.8,-1.15,0.88,-0.53,0.55,-0.38,-0.48
2022-02-06 21:38:45.6670,0.128,-0.552,-0.8,-1.1,0.63,-0.63,0.49,-0.17,-0.48
2022-02-06 21:38:45.6780,0.129,-0.531,-0.806,-1.07,0.36,-0.6,0.43,0.03,-0.43
2022-02-06 21:38:45.6870,0.134,-0.524,-0.827,-1.1,0.08,-0.21,0.39,0.18,-0.36
2022-02-06 21:38:45.6980,0.141,-0.528,-0.861,-1.1,0.08,-0.21,0.37,0.26,-0.28
2022-02-06 21:38:45.7070,0.135,-0.525,-0.897,-1.1,0.08,0.16,0.37,0.26,-0.28
2022-02-06 21:38:45.7180,0.121,-0.516,-0.911,-0.99,0.01,0.5,0.39,0.33,-0.21
2022-02-06 21:38:45.7270,0.105,-0.505,-0.896,-0.57,-0.29,0.43,0.62,0.72,-0.06
2022-02-06 21:38:45.7380,0.091,-0.489,-0.877,-0.57,-0.29,0.43,0.82,1.07,0.04
2022-02-06 21:38:45.7460,0.087,-0.469,-0.853,-0.27,-0.79,0.11,0.82,1.07,0.04
2022-02-06 21:38:45.7560,0.108,-0.465,-0.829,-0.27,-0.79,0.11,1.2,1.77,0.31
2022-02-06 21:38:45.7670,0.147,-0.48,-0.822,-0.41,-0.87,-0.04,1.28,1.92,0.46
2022-02-06 21:38:45.7780,0.183,-0.506,-0.847,-0.67,-0.79,0.06,1.28,1.92,0.46
2022-02-06 21:38:45.7880,0.209,-0.523,-0.884,-0.89,-0.65,0.45,1.1,1.57,0.65
2022-02-06 21:38:45.7980,0.217,-0.523,-0.917,-1.01,-0.62,0.88,0.9,1.19,0.64
2022-02-06 21:38:45.8080,0.211,-0.523,-0.945,-0.99,-0.72,1.25,0.9,0.7792800664901733,0.56
2022-02-06 21:38:45.8180,0.195,-0.529,-0.967,-0.88,-0.76,1.57,0.49,0.41,0.44
2022-02-06 21:38:45.8280,0.168,-0.515,-0.97,-0.68,-0.76,1.79,0.35,0.14,0.29
2022-02-06 21:38:45.8380,0.138,-0.473,-0.952,-0.11,-1.48,1.6,0.31,0.01,0.14
2022-02-06 21:38:45.8480,0.103,-0.428,-0.928,-0.11,-1.48,1.6,0.31,0.01,0.14
2022-02-06 21:38:45.8580,0.081,-0.397,-0.892,0.38,-2.2,1.03,0.42,0.17,0.01
2022-02-06 21:38:45.8680,0.083,-0.392,-0.862,0.38,-2.2,1.03,0.52,0.36,0.05
2022-02-06 21:38:45.8780,0.097,-0.409,-0.848,0.35,-2.23,0.8,0.58,0.5,0.14
2022-02-06 21:38:45.8880,0.113,-0.434,-0.857,0.22,-2.07,0.77,0.59,0.55,0.25
2022-02-06 21:38:45.8980,0.126,-0.461,-0.863,0.1,-1.6378700083494186,0.9938027125597001,0.57,0.55,0.34
2022-02-06 21:38:45.9080,0.132,-0.485,-0.859,0.0,-1.64,0.99,0.54,0.53,0.39
2022-02-06 21:38:45.9180,0.123,-0.498,-0.85,-0.01,-1.48,0.98,0.51,0.52,0.4
2022-02-06 21:38:45.9280,0.105,-0.5,-0.827,0.31,-1.46,0.68,0.49,0.52,0.39
2022-02-06 21:38:45.9380,0.094,-0.502,-0.8,0.42,-1.46,0.46,0.47,0.52,0.36
2022-02-06 21:38:45.9480,0.085,-0.51,-0.779,0.42,-1.46,0.46,0.45,0.52,0.34
2022-02-06 21:38:45.9590,0.081,-0.521,-0.765,0.51,-1.41,0.31,0.42,0.49,0.33
2022-02-06 21:38:45.9680,0.082,-0.538,-0.752,0.56,-1.32,0.21,0.39,0.44,0.32
2022-02-06 21:38:45.9780,0.086,-0.559,-0.752,0.55,-1.18,0.14,0.37,0.38,0.31
2022-02-06 21:38:45.9880,0.094,-0.582,-0.749,0.51,-0.99,0.19,0.34,0.34,0.29
2022-02-06 21:38:45.9980,0.106,-0.602,-0.745,0.32,-0.64,0.17,0.3,0.28,0.25
2022-02-06 21:38:46.0090,0.113,-0.616,-0.753,0.32,-0.64,0.17,0.23,0.17,0.19
2022-02-06 21:38:46.0190,0.117,-0.623,-0.766,0.25,-0.54,0.28,0.14,0.03,0.1
2022-02-06 21:38:46.0280,0.115,-0.62,-0.79,0.22,-0.51,0.43,0.01,-0.15,-0.02
2022-02-06 21:38:46.0380,0.106,-0.613,-0.825,0.34,-0.62,1.04,-0.13,-0.37,-0.16
2022-02-06 21:38:46.0490,0.093,-0.603,-0.86,0.44,-0.7,1.35,-0.29,-0.58,-0.31
2022-02-06 21:38:46.0590,0.084,-0.586,-0.888,0.44,-0.7,1.35,-0.42,-0.71,-0.44
2022-02-06 21:38:46.0690,0.083,-0.565,-0.899,0.49,-0.85,1.55,-0.52,-0.72,-0.54
2022-02-06 21:38:46.0790,0.078,-0.543,-0.9,0.48,-1.01,1.58,-0.55,-0.62,-0.57
2022-02-06 21:38:46.0890,0.062,-0.518,-0.899,0.55,-1.19,1.55,-0.51,-0.4,-0.54
2022-02-06 21:38:46.0990,0.048,-0.498,-0.881,0.72,-1.38,1.47,-0.43,-0.09,-0.45
2022-02-06 21:38:46.1090,0.043,-0.489,-0.872,0.91,-1.55,1.18,-0.31,0.2,-0.33
2022-02-06 21:38:46.1190,0.045,-0.489,-0.878,0.91,-1.52,1.26,-0.2,0.41,-0.17
2022-02-06 21:38:46.1300,0.057,-0.495,-0.898,0.91,-1.52,1.26,-0.1,0.49,-0.04
2022-02-06 21:38:46.1390,0.075,-0.511,-0.919,0.81,-1.26,1.66,-0.01,0.51,0.05
2022-02-06 21:38:46.1490,0.092,-0.523,-0.927,0.66,-1.1674644327163697,1.73,0.11,0.52,0.11
2022-02-06 21:38:46.1590,0.098,-0.526,-0.932,0.55,-1.17,1.73,0.23,0.54,0.14
2022-02-06 21:38:46.1690,0.104,-0.533,-0.935,0.48,-1.09,1.87,0.34,0.56,0.17
2022-02-06 21:38:46.1790,0.115,-0.548,-0.947,0.48,-1.09,1.87,0.34,0.56,0.17
2022-02-06 21:38:46.1890,0.124,-0.565,-0.963,0.34,-0.85,2.22,0.42,0.43,0.21
2022-02-06 21:38:46.1990,0.132,-0.576,-0.965,0.34,-0.85,2.22,0.42,0.43,0.21
2022-02-06 21:38:46.2080,0.129,-0.583,-0.955,0.29,-0.77,2.22,0.34,0.22,0.16
2022-02-06 21:38:46.2190,0.115,-0.57,-0.938,0.36,-0.77,2.13,0.29,0.14,0.09
2022-02-06 21:38:46.2290,0.094,-0.539,-0.908,0.52,-0.97,1.96,0.26,0.15,0.01
2022-02-06 21:38:46.2390,0.071,-0.516,-0.868,0.74,-1.3,1.65,0.25,0.23,-0.06
2022-02-06 21:38:46.2490,0.051,-0.507,-0.826,1.2,-1.59,0.89,0.25,0.23,-0.06
2022-02-06 21:38:46.2600,0.044,-0.501,-0.794,1.27,-1.65,0.64,0.26,0.55,-0.08
2022-02-06 21:38:46.2690,0.049,-0.501,-0.78,1.27,-1.65,0.64,0.26,0.55,-0.08
2022-02-06 21:38:46.2790,0.064,-0.51,-0.782,1.24,-1.65,0.57,0.2,0.7,-0.0
2022-02-06 21:38:46.2890,0.086,-0.523,-0.795,1.12,-1.56,0.65,0.14,0.67,0.04
2022-02-06 21:38:46.2990,0.103,-0.531,-0.808,0.83,-1.4,0.94,0.1,0.58,0.05
2022-02-06 21:38:46.3100,0.117,-0.53,-0.812,0.83,-1.4,0.94,0.08,0.48,0.05
2022-02-06 21:38:46.3210,0.119,-0.521,-0.813,0.78,-1.53,0.99,0.06,0.36,0.06
2022-02-06 21:38:46.3300,0.113,-0.512,-0.812,0.78,-1.53,0.99,0.07,0.26,0.1
2022-02-06 21:38:46.3390,0.104,-0.504,-0.804,0.86,-1.63,0.97,0.1,0.17,0.19
2022-02-06 21:38:46.3500,0.095,-0.498,-0.802,1.030188181400299,-1.7617514580488205,0.92,0.16,0.07,0.3
2022-02-06 21:38:46.3600,0.086,-0.5,-0.805,1.03,-1.77,0.92,0.24,-0.08,0.41
2022-02-06 21:38:46.3700,0.077,-0.503,-0.811,1.1,-1.77,1.05,0.32,-0.29,0.48
2022-02-06 21:38:46.3800,0.076,-0.489,-0.823,1.1,-1.77,1.05,0.31,-0.51,0.54
2022-02-06 21:38:46.3900,0.066,-0.526,-0.831,1.05,-1.94,1.22,0.32,-0.67,0.61
2022-02-06 21:38:46.4000,0.032,-0.578,-0.811,1.34,-1.16,1.07,0.39,-0.83,0.64
2022-02-06 21:38:46.4180,0.028,-0.539,-0.832,1.18,-1.7,1.39,0.39,-0.83,0.64
2022-02-06 21:38:46.4220,0.032,-0.502,-0.863,1.08,-1.97,1.59,0.48,-1.06,0.57
2022-02-06 21:38:46.4290,0.014,-0.511,-0.839,1.08,-1.97,1.59,0.64,-1.33,0.41
2022-02-06 21:38:46.4390,-0.003,-0.501,-0.813,1.16,-1.91,1.32,0.69,-1.31,0.36
2022-02-06 21:38:46.4500,-0.007,-0.48,-0.798,1.19,-2.13,1.14,0.66,-1.21,0.32
2022-02-06 21:38:46.4600,0.005,-0.486,-0.776,1.08,-2.34,1.01,0.56,-1.06,0.3
2022-02-06 21:38:46.4700,0.019,-0.509,-0.759,0.84,-2.26,0.82,0.41,-0.88,0.29
2022-02-06 21:38:46.4800,0.028,-0.527,-0.745,0.63,-2.06,0.7,0.26,-0.67,0.28
2022-02-06 21:38:46.4910,0.034,-0.536,-0.726,0.48,-1.93,0.55,0.12,-0.47,0.25
2022-02-06 21:38:46.5010,0.034,-0.551,-0.731,0.36777707375586033,-1.69,0.52,0.02,-0.35,0.24
2022-02-06 21:38:46.5100,0.026,-0.567,-0.755,0.36,-1.69,0.52,-0.05,-0.32,0.23
2022-02-06 21:38:46.5200,0.017,-0.574,-0.777,0.42,-1.54,0.75,-0.09,-0.34,0.21
2022-02-06 21:38:46.5310,0.012,-0.576,-0.787,0.45,-1.49,0.94,-0.11,-0.38,0.17
2022-02-06 21:38:46.5400,0.006,-0.579,-0.789,0.46,-1.47,0.99,-0.12,-0.4,0.14
2022-02-06 21:38:46.5510,0.002,-0.586,-0.774,0.49,-1.41,0.99,-0.13,-0.34,0.1
2022-02-06 21:38:46.5600,0.005,-0.583,-0.75,0.48,-1.36,0.77,-0.15,-0.21,0.06
2022-02-06 21:38:46.5710,0.007,-0.579,-0.739,0.42,-1.39,0.55,-0.2,-0.05,0.02
2022-02-06 21:38:46.5810,0.011,-0.584,-0.735,0.4,-1.39,0.45,-0.31,0.08,0.01
2022-02-06 21:38:46.5910,0.019,-0.604,-0.727,0.35,-1.3,0.4,-0.42,0.21,0.04
2022-02-06 21:38:46.6010,0.026,-0.634,-0.716,0.28,-1.04,0.26,-0.54,0.31,0.1
2022-02-06 21:38:46.6110,0.033,-0.66,-0.726,0.18,-0.44,0.27,-0.66,0.35,0.16
2022-02-06 21:38:46.6210,0.032,-0.665,-0.755,0.18,-0.44,0.27,-0.78,0.32,0.19
2022-02-06 21:38:46.6310,0.03,-0.653,-0.784,0.21,-0.39,0.52,-0.89,0.26,0.18
2022-02-06 21:38:46.6410,0.027,-0.635,-0.808,0.23,-0.47,0.73,-0.98,0.19,0.15
2022-02-06 21:38:46.6510,0.027,-0.618,-0.822,0.27,-0.59,0.88,-1.04,0.18,0.12
2022-02-06 21:38:46.6600,0.032,-0.606,-0.812,0.26,-0.66,0.88,-1.04,0.2,0.1
2022-02-06 21:38:46.6700,0.028,-0.58,-0.823,0.22,-0.72,0.73,-1.0,0.16,0.11
2022-02-06 21:38:46.6810,0.021,-0.548,-0.847,0.34,-1.15,0.97,-0.91,0.13,0.18
2022-02-06 21:38:46.6920,0.025,-0.542,-0.844,0.34,-1.15,0.97,-0.73,0.21,0.32
2022-02-06 21:38:46.7010,0.035,-0.566,-0.813,0.27,-1.05,0.81,-0.49,0.4,0.5
2022-02-06 21:38:46.7110,0.041,-0.574,-0.769,0.17,-0.79,0.42,-0.23,0.6,0.69
2022-02-06 21:38:46.7210,0.039,-0.571,-0.745,0.15,-0.75,-0.18,-0.03,0.72,0.83
2022-02-06 21:38:46.7310,0.042,-0.591,-0.734,0.15,-0.75,-0.18,0.1,0.71,0.94
2022-02-06 21:38:46.7420,0.054,-0.638,-0.727,0.09,-0.47,-0.26,0.13,0.62,0.97
2022-02-06 21:38:46.7510,0.071,-0.683,-0.717,-0.05,-0.01,-0.33,0.08,0.42,0.9
2022-02-06 21:38:46.7610,0.08,-0.709,-0.735,-0.24,0.39,-0.39,-0.03,0.09,0.74
2022-02-06 21:38:46.7710,0.075,-0.717,-0.767,-0.34,0.59,-0.15,-0.03,0.09,0.74
2022-02-06 21:38:46.7810,0.051,-0.717,-0.791,-0.31,0.66,0.34,-0.32,-0.68,0.34
2022-02-06 21:38:46.7910,0.017,-0.701,-0.805,0.15,0.49,0.39,-0.4,-0.92,0.17
2022-02-06 21:38:46.8020,-0.007,-0.676,-0.797,0.15,0.49,0.39,-0.4,-0.92,0.17
2022-02-06 21:38:46.8110,-0.019,-0.652,-0.783,0.27,0.27,0.26,-0.43,-0.88,-0.04
2022-02-06 21:38:46.8200,-0.022,-0.646,-0.778,0.3,0.1,0.1,-0.43,-0.68,-0.05
2022-02-06 21:38:46.8310,-0.019,-0.647,-0.776,0.26,0.1,0.05,-0.44,-0.45,-0.03
2022-02-06 21:38:46.8420,-0.007,-0.648,-0.774,0.17,0.14,-0.01,-0.47,-0.22,-0.01
2022-02-06 21:38:46.8510,0.011,-0.663,-0.782,-0.17,0.43,0.0,-0.54,-0.02,0.0
2022-02-06 21:38:46.8620,0.027,-0.682,-0.782,-0.17,0.43,0.0,-0.61,0.14,-0.01
2022-02-06 21:38:46.8720,0.029,-0.688,-0.785,-0.28,0.65,-0.04,-0.67,0.24,-0.03
2022-02-06 21:38:46.8810,0.031,-0.682,-0.803,-0.27,0.72,-0.02,-0.71,0.27,-0.07
2022-02-06 21:38:46.8910,0.032,-0.676,-0.823,-0.25,0.72,0.28,-0.71,0.27,-0.07
2022-02-06 21:38:46.9000,0.038,-0.67,-0.843,-0.32,0.71,0.42,-0.7,0.13,-0.15
2022-02-06 21:38:46.9000,0.051,-0.66,-0.854,-0.32,0.71,0.42,-0.66,0.0,-0.19
2022-02-06 21:38:46.9150,0.059,-0.653,-0.866,-0.43,0.66,0.47,-0.66,0.0,-0.19
2022-02-06 21:38:46.9250,0.056,-0.644,-0.894,-0.49,0.65,0.6,-0.47,-0.31,-0.17
2022-02-06 21:38:46.9350,0.05,-0.626,-0.911,-0.44,0.58,0.84,-0.32,-0.4,-0.12
2022-02-06 21:38:46.9450,0.043,-0.61,-0.91,-0.42,0.42,0.94,-0.14,-0.39,-0.05
2022-02-06 21:38:46.9550,0.034,-0.601,-0.904,-0.37,0.29,0.89,0.02,-0.35,0.04
2022-02-06 21:38:46.9650,0.024,-0.595,-0.901,-0.31,0.23,0.84,0.14,-0.28,0.1
2022-02-06 21:38:46.9750,0.012,-0.592,-0.894,-0.24,0.16,0.81,0.21,-0.23,0.13
2022-02-06 21:38:46.9850,-0.002,-0.593,-0.89,-0.14,0.12,0.74,0.22,-0.21,0.13
2022-02-06 21:38:46.9950,-0.025,-0.596,-0.898,-0.01,0.13,0.74,0.21,-0.24,0.09
2022-02-06 21:38:47.0050,-0.051,-0.588,-0.913,0.2,0.12,0.86,0.2,-0.3,-0.01
2022-02-06 21:38:47.0150,-0.069,-0.578,-0.918,0.43,0.01,1.01,0.21,-0.31,-0.14
2022-02-06 21:38:47.0250,-0.069,-0.566,-0.9,0.55,-0.1,1.01,0.25,-0.26,-0.3
2022-02-06 21:38:47.0350,-0.056,-0.551,-0.876,0.5,-0.25,0.82,0.29,-0.18,-0.42
2022-02-06 21:38:47.0450,-0.039,-0.539,-0.85,0.37,-0.41,0.6,0.3,-0.08,-0.49
2022-02-06 21:38:47.0550,-0.024,-0.526,-0.826,0.23,-0.55,0.36,0.28,0.03,-0.5
2022-02-06 21:38:47.0650,-0.005,-0.519,-0.808,0.1,-0.7,0.16,0.22,0.14,-0.47
2022-02-06 21:38:47.0750,0.015,-0.52,-0.805,-0.06,-0.76,0.01,0.15,0.2,-0.41
2022-02-06 21:38:47.0850,0.029,-0.528,-0.817,-0.21,-0.74,0.04,0.1,0.21,-0.36
2022-02-06 21:38:47.0950,0.034,-0.535,-0.832,-0.28,-0.65,0.17,0.1,0.15,-0.32
2022-02-06 21:38:47.1050,0.039,-0.527,-0.854,-0.29,-0.63,0.34,0.13,0.02,-0.32
2022-02-06 21:38:47.1150,0.044,-0.516,-0.863,-0.32,-0.74,0.56,0.2,-0.12,-0.33
2022-02-06 21:38:47.1250,0.045,-0.519,-0.859,-0.35,-0.84,0.61,0.29,-0.24,-0.34
2022-02-06 21:38:47.1360,0.057,-0.533,-0.848,-0.37,-0.79,0.57,0.38,-0.31,-0.34
2022-02-06 21:38:47.1450,0.073,-0.548,-0.828,-0.51,-0.67,0.45,0.45,-0.34,-0.34
2022-02-06 21:38:47.1560,0.083,-0.561,-0.811,-0.67,-0.57,0.28,0.47,-0.33,-0.32
2022-02-06 21:38:47.1660,0.087,-0.58,-0.794,-0.75,-0.46,0.16,0.46,-0.26,-0.26
2022-02-06 21:38:47.1760,0.091,-0.609,-0.773,-0.79,-0.3,-0.01,0.43,-0.16,-0.17
2022-02-06 21:38:47.1860,0.098,-0.656,-0.755,-0.84,0.0,-0.17,0.39,-0.04,-0.06
2022-02-06 21:38:47.1960,0.098,-0.699,-0.737,-0.92,0.46,-0.34,0.3,-0.0,0.01
2022-02-06 21:38:47.2050,0.081,-0.711,-0.754,-0.87,0.78,-0.44,0.15,-0.14,-0.02
2022-02-06 21:38:47.2150,0.068,-0.722,-0.81,-0.71,0.85,-0.16,-0.07,-0.48,-0.1
2022-02-06 21:38:47.2250,0.059,-0.751,-0.876,-0.61,1.01,0.45,-0.26,-0.89,-0.23
2022-02-06 21:38:47.2350,0.055,-0.767,-0.911,-0.6,1.32,1.04,-0.36,-1.22,-0.39
2022-02-06 21:38:47.2460,0.041,-0.744,-0.905,-0.61,1.41,1.26,-0.32,-1.34,-0.53
2022-02-06 21:38:47.2560,0.022,-0.709,-0.862,-0.53,1.16,1.08,-0.2,-1.21,-0.62
2022-02-06 21:38:47.2660,0.001,-0.681,-0.798,-0.39,0.83,0.57,-0.07,-0.91,-0.62
2022-02-06 21:38:47.2760,-0.011,-0.674,-0.734,-0.24,0.61,-0.07,0.04,-0.48,-0.51
2022-02-06 21:38:47.2860,-0.014,-0.693,-0.66,-0.14,0.6,-0.71,0.09,0.01,-0.33
2022-02-06 21:38:47.2960,-0.002,-0.724,-0.597,-0.14,0.82,-1.44,0.07,0.46,-0.14
2022-02-06 21:38:47.3060,0.025,-0.757,-0.565,-0.24,1.13,-1.98,-0.02,0.8,0.02
2022-02-06 21:38:47.3160,0.055,-0.79,-0.551,-0.49,1.47,-2.24,-0.09,0.98,0.13
2022-02-06 21:38:47.3260,0.069,-0.813,-0.558,-0.68,1.78,-2.33,-0.13,1.01,0.19
2022-02-06 21:38:47.3360,0.074,-0.826,-0.579,-0.72,1.99,-2.23,-0.13,0.9,0.19
2022-02-06 21:38:47.3460,0.079,-0.834,-0.604,-0.7,2.11,-2.02,-0.1,0.68,0.16
2022-02-06 21:38:47.3560,0.081,-0.84,-0.62,-0.71,2.19,-1.79,-0.05,0.43,0.12
2022-02-06 21:38:47.3660,0.076,-0.842,-0.619,-0.68,2.25,-1.68,0.03,0.17,0.09
2022-02-06 21:38:47.3770,0.063,-0.841,-0.614,-0.6,2.26,-1.71,0.1,-0.06,0.08
2022-02-06 21:38:47.3860,0.05,-0.837,-0.61,-0.48,2.24,-1.75,0.1,-0.06,0.08
2022-02-06 21:38:47.3960,0.041,-0.838,-0.605,-0.37,2.19,-1.78,0.23,-0.38,0.11
2022-02-06 21:38:47.4070,0.041,-0.847,-0.595,-0.34,2.2,-1.83,0.26,-0.46,0.11
2022-02-06 21:38:47.4130,0.044,-0.856,-0.585,-0.39,2.28,-1.92,0.25,-0.48,0.08
2022-02-06 21:38:47.4260,0.05,-0.857,-0.578,-0.48,2.33,-2.0,0.21,-0.47,0.02
2022-02-06 21:38:47.4370,0.056,-0.855,-0.58,-0.58,2.31,-2.04,0.14,-0.45,-0.04
2022-02-06 21:38:47.4470,0.066,-0.854,-0.59,-0.68,2.29,-1.98,0.04,-0.42,-0.12
2022-02-06 21:38:47.4610,0.076,-0.85,-0.602,-0.92,2.24,-1.75,-0.07,-0.39,-0.19
2022-02-06 21:38:47.4710,0.083,-0.848,-0.618,-0.92,2.24,-1.75,-0.17,-0.37,-0.23
2022-02-06 21:38:47.4810,0.087,-0.846,-0.642,-1.04,2.23,-1.34,-0.26,-0.37,-0.25
2022-02-06 21:38:47.4920,0.084,-0.844,-0.674,-1.04,2.23,-1.34,-0.32,-0.4,-0.25
2022-02-06 21:38:47.5010,0.081,-0.837,-0.7,-1.01,2.22,-1.05,-0.31,-0.41,-0.24
2022-02-06 21:38:47.5110,0.083,-0.832,-0.716,-1.0466495552659034,2.16276169359684,-0.700322772860527,-0.26,-0.42,-0.22
2022-02-06 21:38:47.5210,0.085,-0.829,-0.729,-1.05,2.16,-0.71,-0.2,-0.39,-0.19
2022-02-06 21:38:47.5310,0.088,-0.826,-0.725,-1.14,2.13,-0.7,-0.1,-0.31,-0.15
2022-02-06 21:38:47.5420,0.091,-0.822,-0.715,-1.14,2.13,-0.7,0.0,-0.19,-0.11
2022-02-06 21:38:47.5520,0.098,-0.814,-0.7,-1.19,2.08,-0.81,0.1,-0.07,-0.06
2022-02-06 21:38:47.5610,0.111,-0.807,-0.679,-1.27,2.0,-0.98,0.17,0.05,0.01
2022-02-06 21:38:47.5710,0.124,-0.802,-0.674,-1.41,1.92,-1.15,0.21,0.08,0.08
2022-02-06 21:38:47.5820,0.133,-0.799,-0.677,-1.51,1.86,-1.14,0.24,0.08,0.15
2022-02-06 21:38:47.5920,0.144,-0.795,-0.669,-1.61,1.82,-1.14,0.27,0.04,0.2
2022-02-06 21:38:47.6020,0.15,-0.789,-0.67,-1.73,1.76,-1.18,0.29,-0.03,0.24
2022-02-06 21:38:47.6120,0.151,-0.782,-0.67,-1.79,1.56,-1.15,0.33,-0.08,0.28
2022-02-06 21:38:47.6220,0.144,-0.769,-0.658,-1.79,1.56,-1.15,0.37,-0.1,0.3
2022-02-06 21:38:47.6320,0.134,-0.753,-0.642,-1.75,1.4,-1.26,0.4,-0.08,0.33
2022-02-06 21:38:47.6420,0.123,-0.74,-0.627,-1.67,1.22,-1.4,0.41,-0.03,0.36
2022-02-06 21:38:47.6520,0.119,-0.735,-0.613,-1.6,1.08,-1.52,0.39,0.04,0.4
2022-02-06 21:38:47.6620,0.126,-0.739,-0.602,-1.61,1.02,-1.64,0.35,0.12,0.45
2022-02-06 21:38:47.6720,0.14,-0.753,-0.595,-1.72,1.07,-1.7,0.29,0.2,0.51
2022-02-06 21:38:47.6820,0.145,-0.761,-0.591,-1.86,1.19,-1.76,0.2,0.25,0.54
2022-02-06 21:38:47.6920,0.144,-0.756,-0.601,-1.9,1.22,-1.76,0.07,0.23,0.54
2022-02-06 21:38:47.7020,0.132,-0.736,-0.635,-1.9,1.14,-1.6,-0.06,0.12,0.51
2022-02-06 21:38:47.7120,0.107,-0.698,-0.683,-1.52,0.52,-0.77,-0.16,-0.03,0.45
2022-02-06 21:38:47.7220,0.076,-0.659,-0.71,-1.28,0.18,-0.63,-0.18,-0.11,0.37
2022-02-06 21:38:47.7320,0.066,-0.626,-0.692,-1.26,-0.12,-0.88,-0.1,-0.05,0.3
2022-02-06 21:38:47.7420,0.071,-0.604,-0.659,-1.26,-0.12,-0.88,0.06,0.09,0.28
2022-02-06 21:38:47.7520,0.074,-0.589,-0.646,-1.3381880731880667,-0.46,-1.24,0.23,0.23,0.32
2022-02-06 21:38:47.7630,0.073,-0.579,-0.644,-1.34,-0.46,-1.24,0.4,0.36,0.44
2022-02-06 21:38:47.7730,0.072,-0.581,-0.635,-1.33,-0.56,-1.27,0.55,0.44,0.61
2022-02-06 21:38:47.7830,0.074,-0.595,-0.644,-1.39,-0.43,-1.15,0.65,0.42,0.79
2022-02-06 21:38:47.7930,0.082,-0.616,-0.656,-1.5,-0.26,-1.0,0.71,0.34,0.92
2022-02-06 21:38:47.8030,0.087,-0.635,-0.656,-1.5,-0.26,-1.0,0.77,0.26,0.99
2022-02-06 21:38:47.8130,0.076,-0.645,-0.641,-1.56,-0.14,-1.0,0.79,0.19,0.96
2022-02-06 21:38:47.8230,0.057,-0.646,-0.63,-1.33,-0.17,-1.15,0.79,0.19,0.96
2022-02-06 21:38:47.8310,0.035,-0.644,-0.62,-1.14,-0.23,-1.22,0.71,0.07,0.7
2022-02-06 21:38:47.8510,0.015,-0.646,-0.606,-1.0,-0.24,-1.31,0.58,0.03,0.52
2022-02-06 21:38:47.8510,0.004,-0.653,-0.595,-0.93,-0.18,-1.39,0.41,0.01,0.36
2022-02-06 21:38:47.8630,-0.002,-0.667,-0.587,-0.93,-0.18,-1.39,0.22,0.03,0.23
2022-02-06 21:38:47.8730,-0.001,-0.68,-0.585,-0.91,-0.04,-1.44,0.22,0.03,0.23
2022-02-06 21:38:47.8830,0.001,-0.685,-0.595,-0.94,0.11,-1.31,-0.15,0.14,0.06
2022-02-06 21:38:47.8930,-0.003,-0.69,-0.616,-0.94,0.11,-1.31,-0.27,0.18,0.03
2022-02-06 21:38:47.9030,-0.014,-0.696,-0.65,-0.86,0.2,-1.11,-0.27,0.18,0.03
2022-02-06 21:38:47.9130,-0.018,-0.687,-0.691,-0.75,0.25,-0.75,-0.36,0.22,-0.03
2022-02-06 21:38:47.9230,-0.022,-0.677,-0.706,-0.6381719867885113,0.11,-0.33,-0.32,0.27,-0.09
2022-02-06 21:38:47.9330,-0.021,-0.671,-0.722,-0.64,0.07,-0.19,-0.23,0.34,-0.15
2022-02-06 21:38:47.9430,-0.012,-0.662,-0.726,-0.64,0.07,-0.19,-0.12,0.43,-0.2
2022-02-06 21:38:47.9530,-0.004,-0.655,-0.716,-0.69,-0.02,-0.22,-0.03,0.5,-0.23
2022-02-06 21:38:47.9630,0.008,-0.654,-0.712,-0.79,-0.06,-0.36,0.02,0.52,-0.22
2022-02-06 21:38:47.9730,0.022,-0.664,-0.709,-0.79,-0.06,-0.36,0.03,0.49,-0.18
2022-02-06 21:38:47.9830,0.029,-0.679,-0.706,-0.87,0.06,-0.38,0.02,0.43,-0.15
2022-02-06 21:38:47.9930,0.028,-0.693,-0.712,-0.89,0.2,-0.4,0.02,0.35,-0.12
2022-02-06 21:38:48.0030,0.022,-0.706,-0.729,-0.72,0.46,-0.15,0.03,0.24,-0.1
2022-02-06 21:38:48.0140,0.007,-0.72,-0.743,-0.72,0.46,-0.15,0.07,0.14,-0.09
2022-02-06 21:38:48.0230,-0.008,-0.728,-0.758,-0.39,0.65,0.15,0.13,0.05,-0.11
2022-02-06 21:38:48.0340,-0.023,-0.732,-0.771,-0.39,0.65,0.2476132106781006,0.2,0.01,-0.16
2022-02-06 21:38:48.0440,-0.033,-0.742,-0.775,-0.24,0.67,0.24,0.24,-0.05,-0.23
2022-02-06 21:38:48.0530,-0.038,-0.757,-0.799,-0.15,0.77,0.35,0.24,-0.05,-0.23
2022-02-06 21:38:48.0630,-0.042,-0.77,-0.815,-0.09,0.9,0.6,0.19,-0.13,-0.4
2022-02-06 21:38:48.0740,-0.05,-0.769,-0.827,-0.03,0.99,0.75,0.19,-0.13,-0.4
2022-02-06 21:38:48.0830,-0.064,-0.758,-0.847,0.09,0.94,0.89,0.12,-0.13,-0.5
2022-02-06 21:38:48.0930,-0.083,-0.738,-0.863,0.27,0.81,1.09,0.02,-0.12,-0.64
2022-02-06 21:38:48.1030,-0.099,-0.702,-0.87,0.48,0.57,1.24,0.02,-0.12,-0.64
2022-02-06 21:38:48.1130,-0.105,-0.672,-0.846,0.67,0.2,1.25,0.14,0.15,-0.7
2022-02-06 21:38:48.1230,-0.097,-0.655,-0.792,0.74,-0.08,0.93,0.14,0.15,-0.7
2022-02-06 21:38:48.1340,-0.072,-0.647,-0.744,0.7,-0.23,0.4,0.43,0.62,-0.63
2022-02-06 21:38:48.1430,-0.033,-0.643,-0.727,0.5,-0.32,0.0,0.48,0.68,-0.59
2022-02-06 21:38:48.1530,-0.005,-0.644,-0.736,0.21,-0.39,-0.04,0.45,0.61,-0.55
2022-02-06 21:38:48.1630,0.012,-0.649,-0.74,0.05,-0.4,0.08,0.38,0.44,-0.52
2022-02-06 21:38:48.1740,0.029,-0.656,-0.748,-0.04,-0.37,0.14,0.28,0.2,-0.51
2022-02-06 21:38:48.1830,0.039,-0.663,-0.774,-0.15,-0.32,0.28,0.18,-0.06,-0.52
2022-02-06 21:38:48.1940,0.035,-0.661,-0.798,-0.18,-0.27,0.57,0.12,-0.27,-0.54
2022-02-06 21:38:48.2040,0.013,-0.641,-0.801,-0.08,-0.34,0.76,0.11,-0.42,-0.54
2022-02-06 21:38:48.2130,-0.015,-0.62,-0.809,0.18,-0.56,0.78,0.1,-0.5,-0.53
2022-02-06 21:38:48.2230,-0.023,-0.609,-0.805,0.42,-0.75,0.88,0.1,-0.5,-0.51
2022-02-06 21:38:48.2340,-0.021,-0.604,-0.783,0.46,-0.85,0.77,0.07,-0.41,-0.49
2022-02-06 21:38:48.2440,-0.008,-0.599,-0.761,0.41,-0.89,0.55,0.01,-0.24,-0.46
2022-02-06 21:38:48.2540,0.009,-0.599,-0.733,0.29,-0.94,0.33,-0.05,0.0,-0.39
2022-02-06 21:38:48.2640,0.026,-0.605,-0.706,0.14,-0.91,0.04,-0.12,0.27,-0.29
2022-02-06 21:38:48.2740,0.045,-0.612,-0.702,0.0,-0.84,-0.19,-0.19,0.48,-0.14
2022-02-06 21:38:48.2840,0.063,-0.617,-0.719,-0.14,-0.77,-0.18,-0.24,0.56,0.01
2022-02-06 21:38:48.2940,0.079,-0.63,-0.749,-0.27,-0.68,0.01,-0.27,0.52,0.15
2022-02-06 21:38:48.3040,0.09,-0.641,-0.775,-0.4,-0.53,0.29,-0.24,0.4,0.26
2022-02-06 21:38:48.3140,0.091,-0.648,-0.794,-0.46,-0.42,0.51,-0.17,0.22,0.32
2022-02-06 21:38:48.3250,0.087,-0.656,-0.81,-0.46,-0.33,0.68,-0.06,0.05,0.34
2022-02-06 21:38:48.3340,0.081,-0.658,-0.814,-0.39,-0.25,0.81,0.06,-0.1,0.32
2022-02-06 21:38:48.3440,0.072,-0.656,-0.803,-0.39,-0.25,0.81,0.17,-0.18,0.26
2022-02-06 21:38:48.3540,0.068,-0.654,-0.783,-0.34,-0.3,0.69,0.22,-0.22,0.21
2022-02-06 21:38:48.3650,0.066,-0.659,-0.772,-0.34,-0.31,0.51,0.2,-0.25,0.16
2022-02-06 21:38:48.3740,0.063,-0.665,-0.766,-0.35,-0.27,0.44,0.12,-0.24,0.11
2022-02-06 21:38:48.3840,0.061,-0.662,-0.757,-0.36,-0.27,0.29,-0.01,-0.2,0.05
2022-02-06 21:38:48.3950,0.063,-0.662,-0.751,-0.37,-0.25,0.23,-0.14,-0.12,-0.0
2022-02-06 21:38:48.4120,0.059,-0.662,-0.75,-0.33,-0.26,0.22,-0.14,-0.12,-0.0
2022-02-06 21:38:48.4180,0.058,-0.651,-0.753,-0.33,-0.26,0.22,-0.28,0.13,-0.08
2022-02-06 21:38:48.4230,0.059,-0.635,-0.75,-0.32,-0.37,0.23,-0.27,0.27,-0.11
2022-02-06 21:38:48.4340,0.065,-0.624,-0.74,-0.32,-0.49,0.15,-0.27,0.27,-0.11
2022-02-06 21:38:48.4440,0.074,-0.616,-0.734,-0.35,-0.57,0.05,-0.24,0.4,-0.12
2022-02-06 21:38:48.4540,0.083,-0.612,-0.733,-0.4,-0.63,-0.01,-0.22,0.47,-0.13
2022-02-06 21:38:48.4650,0.09,-0.617,-0.727,-0.45,-0.55,-0.12,-0.21,0.51,-0.14
2022-02-06 21:38:48.4750,0.091,-0.622,-0.72,-0.45,-0.55,-0.12,-0.22,0.5,-0.16
2022-02-06 21:38:48.4850,0.086,-0.62,-0.72,-0.4,-0.5,-0.19,-0.22,0.49,-0.19
2022-02-06 21:38:48.4950,0.081,-0.614,-0.729,-0.28,-0.51,-0.18,-0.22,0.49,-0.23
2022-02-06 21:38:48.5050,0.083,-0.607,-0.741,-0.22,-0.56,-0.09,-0.18,0.43,-0.27
2022-02-06 21:38:48.5150,0.08,-0.6,-0.748,-0.18,-0.61,0.01,-0.1,0.4,-0.29
2022-02-06 21:38:48.5250,0.08,-0.592,-0.759,-0.1,-0.67,0.07,-0.1,0.4,-0.29
2022-02-06 21:38:48.5350,0.081,-0.591,-0.775,-0.03,-0.73,0.36,0.01,0.36,-0.29
2022-02-06 21:38:48.5450,0.082,-0.599,-0.791,-0.03,-0.73,0.36,0.21,0.22,-0.27
2022-02-06 21:38:48.5550,0.083,-0.614,-0.81,-0.01,-0.64,0.54,0.28,0.13,-0.26
2022-02-06 21:38:48.5640,0.081,-0.635,-0.84,0.01,-0.31,1.09,0.34,0.02,-0.26
2022-02-06 21:38:48.5730,0.067,-0.649,-0.866,0.24,-0.23,1.33,0.4,-0.04,-0.27
2022-02-06 21:38:48.5850,0.052,-0.654,-0.875,0.4,-0.21,1.43,0.48,-0.02,-0.29
2022-02-06 21:38:48.5950,0.04,-0.658,-0.877,0.4,-0.21,1.43,0.54,0.05,-0.31
2022-02-06 21:38:48.6050,0.028,-0.658,-0.877,0.54,-0.22,1.47,0.57,0.11,-0.31
2022-02-06 21:38:48.6150,0.011,-0.653,-0.883,0.69,-0.26,1.52,0.55,0.14,-0.29
2022-02-06 21:38:48.6250,-0.012,-0.644,-0.887,0.9,-0.36,1.62,0.5,0.16,-0.27
2022-02-06 21:38:48.6340,-0.03,-0.639,-0.884,1.16,-0.49,1.67,0.45,0.19,-0.25
2022-02-06 21:38:48.6450,-0.037,-0.641,-0.876,1.34,-0.55,1.67,0.42,0.23,-0.26
2022-02-06 21:38:48.6550,-0.038,-0.648,-0.875,1.42,-0.53,1.6,0.38,0.24,-0.29
2022-02-06 21:38:48.6650,-0.04,-0.653,-0.895,1.46,-0.5,1.68,0.36,0.2,-0.33
2022-02-06 21:38:48.6750,-0.051,-0.66,-0.906,1.7,-0.42,1.99,0.36,0.16,-0.35
2022-02-06 21:38:48.6860,-0.069,-0.662,-0.898,1.7,-0.42,1.99,0.38,0.16,-0.34
2022-02-06 21:38:48.6960,-0.085,-0.66,-0.893,1.9,-0.44,1.93,0.41,0.16,-0.32
2022-02-06 21:38:48.7050,-0.098,-0.655,-0.889,2.1,-0.48,1.94,0.45,0.19,-0.29
2022-02-06 21:38:48.7150,-0.102,-0.641,-0.867,2.29,-0.74,1.67,0.47,0.25,-0.27
2022-02-06 21:38:48.7270,-0.096,-0.632,-0.832,2.235657761693001,-0.8148749899864197,1.34,0.45,0.35,-0.25
2022-02-06 21:38:48.7360,-0.075,-0.639,-0.793,2.23,-0.82,1.34,0.38,0.46,-0.21
2022-02-06 21:38:48.7450,-0.052,-0.655,-0.765,2.06,-0.75,1.01,0.38,0.46,-0.21
2022-02-06 21:38:48.7560,-0.033,-0.675,-0.744,1.88,-0.59,0.78,0.13,0.66,-0.04
2022-02-06 21:38:48.7650,-0.021,-0.695,-0.727,1.7,-0.22,0.49,0.01,0.72,0.07
2022-02-06 21:38:48.7760,-0.016,-0.706,-0.735,1.69,-0.12,0.63,-0.08,0.71,0.17
2022-02-06 21:38:48.7860,-0.015,-0.713,-0.757,1.69,-0.12,0.63,-0.13,0.62,0.27
2022-02-06 21:38:48.7960,-0.016,-0.722,-0.777,1.72,-0.04,0.85,-0.13,0.47,0.33
2022-02-06 21:38:48.8060,-0.018,-0.72,-0.796,1.74,0.03,1.03,-0.09,0.28,0.35
2022-02-06 21:38:48.8160,-0.03,-0.71,-0.814,1.77,-0.01,1.23,-0.02,0.09,0.34
2022-02-06 21:38:48.8260,-0.049,-0.695,-0.81,1.89,-0.13,1.36,0.03,-0.06,0.3
2022-02-06 21:38:48.8360,-0.072,-0.681,-0.808,2.26,-0.41,1.3,0.05,-0.18,0.26
2022-02-06 21:38:48.8460,-0.093,-0.672,-0.81,2.26,-0.41,1.3,0.04,-0.23,0.2
2022-02-06 21:38:48.8560,-0.112,-0.66,-0.803,2.44,-0.51,1.3,0.03,-0.21,0.14
2022-02-06 21:38:48.8660,-0.124,-0.639,-0.802,2.67,-0.87,1.24,0.0,-0.17,0.08
2022-02-06 21:38:48.8760,-0.127,-0.624,-0.814,2.67,-0.87,1.24,0.0,-0.17,0.08
2022-02-06 21:38:48.8860,-0.121,-0.628,-0.828,2.574161846637726,-0.9,1.48,-0.04,-0.1,0.04
2022-02-06 21:38:48.8960,-0.109,-0.633,-0.829,2.57,-0.9,1.48,-0.03,-0.05,0.03
2022-02-06 21:38:48.9060,-0.093,-0.629,-0.823,2.43,-0.87,1.46,0.01,-0.0,0.02
2022-02-06 21:38:48.9160,-0.076,-0.623,-0.812,2.11,-0.98,1.27,0.06,0.03,0.01
2022-02-06 21:38:48.9270,-0.061,-0.616,-0.793,2.11,-0.98,1.27,0.1,0.06,-0.0
2022-02-06 21:38:48.9360,-0.046,-0.613,-0.764,1.96,-1.05,1.06,0.13,0.09,-0.02
2022-02-06 21:38:48.9460,-0.038,-0.62,-0.742,1.83,-1.07,0.78,0.13,0.09,-0.02
2022-02-06 21:38:48.9560,-0.034,-0.637,-0.728,1.75,-0.98,0.6,0.17,0.07,0.01
2022-02-06 21:38:48.9660,-0.023,-0.652,-0.723,1.53,-0.66,0.45,0.19,0.01,0.02
2022-02-06 21:38:48.9760,-0.006,-0.665,-0.727,1.53,-0.66,0.45,0.22,-0.11,0.03
2022-02-06 21:38:48.9860,0.005,-0.677,-0.732,1.33,-0.54,0.49,0.24,-0.26,0.03
2022-02-06 21:38:48.9950,0.015,-0.686,-0.723,1.2,-0.44,0.53,0.3,-0.35,0.03
2022-02-06 21:38:49.0050,0.029,-0.7,-0.682,0.86,-0.21,-0.07,0.37,-0.34,0.05
2022-02-06 21:38:49.0150,0.043,-0.723,-0.637,0.69,-0.01,-0.47,0.45,-0.27,0.08
2022-02-06 21:38:49.0250,0.052,-0.741,-0.601,0.69,-0.01,-0.47,0.5,-0.19,0.12
2022-02-06 21:38:49.0350,0.048,-0.743,-0.577,0.58,0.11,-0.79,0.5,-0.19,0.12
2022-02-06 21:38:49.0450,0.017,-0.738,-0.594,0.64,0.07,-0.92,0.48,-0.19,0.15
2022-02-06 21:38:49.0550,-0.017,-0.753,-0.62,1.18,0.25,-0.46,0.22,-0.44,0.23
2022-02-06 21:38:49.0650,-0.023,-0.81,-0.599,1.17,0.83,-0.77,0.1,-0.41,0.23
2022-02-06 21:38:49.0750,-0.026,-0.853,-0.559,1.17,0.83,-0.77,0.023724237456917763,-0.31,0.17
2022-02-06 21:38:49.0850,-0.034,-0.847,-0.55,1.18,1.13,-1.12,-0.04,-0.25,0.07
2022-02-06 21:38:49.0950,-0.034,-0.835,-0.566,1.22,1.01,-1.13,-0.12,-0.27,-0.04
2022-02-06 21:38:49.1050,-0.023,-0.832,-0.579,1.18,0.93,-0.96,-0.12,-0.27,-0.04
2022-02-06 21:38:49.1150,-0.0,-0.833,-0.58,0.78,0.95,-0.91,-0.21,-0.32,-0.11
2022-02-06 21:38:49.1250,0.025,-0.83,-0.586,0.78,0.95,-0.91,-0.36,-0.41,-0.17
2022-02-06 21:38:49.1350,0.047,-0.821,-0.599,0.52,0.93,-0.85,-0.4,-0.41,-0.16
2022-02-06 21:38:49.1450,0.069,-0.82,-0.604,0.28,0.88,-0.78,-0.4,-0.38,-0.1
2022-02-06 21:38:49.1550,0.078,-0.82,-0.607,0.07,0.92,-0.76,-0.36,-0.31,-0.02
2022-02-06 21:38:49.1650,0.076,-0.806,-0.607,0.01,0.78,-0.81,-0.29,-0.2,0.05
2022-02-06 21:38:49.1760,0.072,-0.79,-0.603,0.01,0.78,-0.81,-0.22,-0.1,0.12
2022-02-06 21:38:49.1860,0.064,-0.783,-0.604,0.04,0.65,-0.86,-0.17,-0.04,0.18
2022-02-06 21:38:49.1960,0.06,-0.788,-0.606,0.1,0.62,-0.85,-0.14,-0.02,0.2
2022-02-06 21:38:49.2060,0.056,-0.789,-0.603,0.12,0.69,-0.85,-0.14,-0.02,0.2
2022-02-06 21:38:49.2160,0.049,-0.787,-0.608,0.21,0.69,-0.81,-0.16,-0.13,0.19
2022-02-06 21:38:49.2260,0.037,-0.793,-0.627,0.21,0.69,-0.81,-0.2,-0.25,0.17
2022-02-06 21:38:49.2360,0.024,-0.806,-0.636,0.3960313314199448,0.92,-0.61,-0.23,-0.34,0.15
2022-02-06 21:38:49.2460,0.012,-0.807,-0.638,0.39,0.92,-0.61,-0.23,-0.34,0.15
2022-02-06 21:38:49.2560,-0.001,-0.806,-0.646,0.47,0.92,-0.6,-0.25,-0.44,0.12
2022-02-06 21:38:49.2660,-0.014,-0.809,-0.654,0.65,0.98,-0.5,-0.24,-0.43,0.12
2022-02-06 21:38:49.2760,-0.03,-0.804,-0.646,0.65,0.98,-0.5,-0.22,-0.35,0.12
2022-02-06 21:38:49.2860,-0.047,-0.796,-0.637,0.79,0.93,-0.62,-0.18,-0.24,0.13
2022-02-06 21:38:49.2960,-0.063,-0.789,-0.625,1.05,0.82,-0.87,-0.14,-0.1,0.14
2022-02-06 21:38:49.3080,-0.075,-0.785,-0.609,1.05,0.82,-0.87,-0.14,-0.1,0.14
2022-02-06 21:38:49.3180,-0.077,-0.784,-0.602,1.14,0.79,-1.078066937327385,-0.14,0.15,0.17
2022-02-06 21:38:49.3280,-0.069,-0.794,-0.599,1.04,0.93,-1.13,-0.17,0.22,0.2
2022-02-06 21:38:49.3380,-0.057,-0.803,-0.592,0.93,1.03,-1.21,-0.22,0.25,0.24
2022-02-06 21:38:49.3480,-0.051,-0.808,-0.594,0.93,1.03,-1.21,-0.27,0.22,0.27
2022-02-06 21:38:49.3580,-0.046,-0.811,-0.61,0.88,1.09,-1.17,-0.31,0.15,0.3
2022-02-06 21:38:49.3680,-0.044,-0.815,-0.636,0.8,1.18,-0.76,-0.32,0.03,0.33
2022-02-06 21:38:49.3790,-0.048,-0.807,-0.657,0.8,1.18,-0.76,-0.3,-0.07,0.38
2022-02-06 21:38:49.3880,-0.054,-0.79,-0.663,0.83,0.94,-0.61,-0.24,-0.13,0.44
2022-02-06 21:38:49.3980,-0.056,-0.774,-0.662,0.79,0.8,-0.63,-0.15,-0.15,0.49
2022-02-06 21:38:49.4160,-0.05,-0.756,-0.658,0.68,0.62,-0.69,-0.15,-0.15,0.49
2022-02-06 21:38:49.4200,-0.044,-0.735,-0.647,0.68,0.62,-0.69,-0.0,-0.08,0.56
2022-02-06 21:38:49.4270,-0.04,-0.722,-0.632,0.49,0.32,-0.96,0.03,-0.02,0.6
2022-02-06 21:38:49.4390,-0.031,-0.719,-0.621,0.49,0.32,-0.96,0.05,0.03,0.64
2022-02-06 21:38:49.4490,-0.019,-0.716,-0.607,0.19,0.26,-1.2,0.03,0.08,0.69
2022-02-06 21:38:49.4590,-0.008,-0.712,-0.596,0.19,0.26,-1.2,0.01,0.11,0.74
2022-02-06 21:38:49.4680,0.005,-0.721,-0.589,-0.15,0.37,-1.37,-0.02,0.12,0.82
2022-02-06 21:38:49.4780,0.021,-0.744,-0.581,-0.15,0.37,-1.37,-0.07,0.11,0.91
2022-02-06 21:38:49.4880,0.028,-0.76,-0.584,-0.45,0.72,-1.38,-0.14,0.03,0.96
2022-02-06 21:38:49.4980,0.025,-0.746,-0.604,-0.45,0.72,-1.38,-0.23,-0.1,0.94
2022-02-06 21:38:49.5080,0.011,-0.714,-0.629,-0.46,0.53,-1.17,-0.23,-0.1,0.94
2022-02-06 21:38:49.5180,-0.006,-0.696,-0.641,-0.31,0.15,-0.92,-0.4,-0.37,0.79
2022-02-06 21:38:49.5290,-0.017,-0.685,-0.637,-0.31,0.15,-0.92,-0.43,-0.4,0.74
2022-02-06 21:38:49.5380,-0.019,-0.676,-0.642,-0.29,0.07,-0.98,-0.42,-0.36,0.71
2022-02-06 21:38:49.5480,-0.009,-0.674,-0.639,-0.38,0.04,-0.95,-0.36,-0.24,0.71
2022-02-06 21:38:49.5580,0.006,-0.679,-0.626,-0.57,0.07,-1.04,-0.26,-0.09,0.74
2022-02-06 21:38:49.5690,0.02,-0.692,-0.623,-0.96,0.33,-1.19,-0.18,0.01,0.78
2022-02-06 21:38:49.5790,0.036,-0.716,-0.632,-0.96,0.33,-1.19,-0.18,0.046185605227947235,0.8
2022-02-06 21:38:49.5890,0.047,-0.749,-0.639,-1.16,0.61,-1.11,-0.1,0.04,0.78
2022-02-06 21:38:49.5990,0.046,-0.777,-0.643,-1.32,1.22,-1.03,-0.07,0.01,0.73
2022-02-06 21:38:49.6090,0.04,-0.797,-0.645,-1.32,1.22,-1.03,-0.03,-0.03,0.64
2022-02-06 21:38:49.6190,0.033,-0.811,-0.65,-1.27,1.52,-0.95,-0.03,-0.03,0.64
2022-02-06 21:38:49.6290,0.03,-0.815,-0.654,-1.28,1.56,-0.93,0.05,-0.11,0.34
2022-02-06 21:38:49.6390,0.029,-0.814,-0.646,-1.3,1.53,-1.04,0.05,-0.1,0.18
2022-02-06 21:38:49.6490,0.029,-0.811,-0.63,-1.3,1.53,-1.04,0.01,-0.08,0.08
2022-02-06 21:38:49.6590,0.028,-0.81,-0.623,-1.31,1.51,-1.18,-0.07,-0.02,0.01
2022-02-06 21:38:49.6690,0.024,-0.801,-0.612,-1.24,1.38,-1.38,-0.07,-0.02,0.01
2022-02-06 21:38:49.6790,0.02,-0.781,-0.602,-1.19,1.22,-1.47,-0.23,0.19,-0.07
2022-02-06 21:38:49.6890,0.017,-0.769,-0.603,-1.14,1.14,-1.46,-0.31,0.29,-0.07
2022-02-06 21:38:49.6970,0.015,-0.762,-0.611,-1.14,1.14,-1.46,-0.35,0.38,-0.07
2022-02-06 21:38:49.7080,0.015,-0.756,-0.62,-1.09,1.1,-1.4,-0.35,0.44,-0.06
2022-02-06 21:38:49.7190,0.017,-0.749,-0.633,-1.04,1.03,-1.23,-0.32,0.48,-0.03
2022-02-06 21:38:49.7300,0.019,-0.749,-0.64,-1.04,1.03,-1.23,-0.26,0.49,0.02
2022-02-06 21:38:49.7390,0.02,-0.754,-0.642,-0.99,1.15,-1.2,-0.18,0.47,0.08
2022-02-06 21:38:49.7490,0.018,-0.764,-0.642,-0.99,1.15,-1.2,-0.09,0.45,0.15
2022-02-06 21:38:49.7590,0.013,-0.774,-0.64,-0.87,1.33,-1.24,-0.01,0.4,0.18
2022-02-06 21:38:49.7690,0.002,-0.772,-0.642,-0.74,1.3,-1.21,0.06,0.32,0.19
2022-02-06 21:38:49.7800,-0.01,-0.765,-0.646,-0.74,1.3,-1.21,0.14,0.24,0.17
2022-02-06 21:38:49.7890,-0.024,-0.759,-0.659,-0.61,1.22,-1.16,0.24,0.15,0.13
2022-02-06 21:38:49.7990,-0.029,-0.756,-0.662,-0.48,1.16,-1.01,0.38,0.08,0.12
2022-02-06 21:38:49.8090,-0.033,-0.757,-0.651,-0.45,1.11,-1.01,0.51,0.04,0.15
2022-02-06 21:38:49.8190,-0.035,-0.758,-0.635,-0.41,1.04,-1.22,0.51,0.04,0.15
2022-02-06 21:38:49.8300,-0.034,-0.753,-0.624,-0.44,0.94,-1.26,0.65,-0.01,0.21
2022-02-06 21:38:49.8390,-0.038,-0.742,-0.623,-0.44,0.94,-1.26,0.64,-0.06,0.21
2022-02-06 21:38:49.8490,-0.039,-0.734,-0.627,-0.4,0.6822677403688431,-1.13,0.57,-0.1,0.18
2022-02-06 21:38:49.8590,-0.032,-0.735,-0.632,-0.44,0.68,-1.13,0.57,-0.1,0.18
2022-02-06 21:38:49.8690,-0.028,-0.733,-0.635,-0.56,0.57,-1.01,0.48,-0.1,0.12
2022-02-06 21:38:49.8800,-0.031,-0.711,-0.629,-0.55,0.3,-1.05,0.5,-0.05,0.13
2022-02-06 21:38:49.8900,-0.028,-0.691,-0.626,-0.61,0.09,-1.01,0.55,-0.01,0.16
2022-02-06 21:38:49.9000,-0.023,-0.679,-0.635,-0.66,-0.06,-0.85,0.61,-0.01,0.2
2022-02-06 21:38:49.9090,-0.021,-0.67,-0.657,-0.72,-0.17,-0.58,0.65,-0.06,0.22
2022-02-06 21:38:49.9200,-0.011,-0.676,-0.676,-0.72,-0.17,-0.58,0.67,-0.12,0.25
2022-02-06 21:38:49.9300,-0.006,-0.699,-0.7,-0.84,-0.1,-0.36,0.68,-0.2,0.28
2022-02-06 21:38:49.9390,-0.004,-0.719,-0.737,-0.95,0.2,0.38,0.68,-0.3,0.3
2022-02-06 21:38:49.9490,-0.016,-0.717,-0.762,-0.95,0.2,0.38,0.7,-0.37,0.27
2022-02-06 21:38:49.9600,-0.039,-0.698,-0.77,-0.64,-0.16,0.73,0.72,-0.39,0.22
2022-02-06 21:38:49.9690,-0.066,-0.682,-0.774,-0.64,-0.16,0.73,0.74,-0.39,0.14
2022-02-06 21:38:49.9800,-0.083,-0.665,-0.77,-0.42,-0.36,0.81,0.75,-0.35,0.04
2022-02-06 21:38:49.9890,-0.08,-0.665,-0.754,-0.32,-0.56,0.79,0.75,-0.35,0.04
2022-02-06 21:38:50.0000,-0.055,-0.685,-0.746,-0.43,-0.55,0.69,0.73,-0.3,-0.06
2022-02-06 21:38:50.0100,-0.019,-0.71,-0.743,-0.73,-0.37,0.69,0.65,-0.29,-0.14
2022-02-06 21:38:50.0200,0.01,-0.724,-0.732,-1.34,-0.11,0.59,0.38,-0.25,-0.26
2022-02-06 21:38:50.0300,0.029,-0.722,-0.716,-1.5,-0.16,0.45,0.25,-0.19,-0.29
2022-02-06 21:38:50.0400,0.043,-0.721,-0.699,-1.5,-0.16,0.45,0.15,-0.09,-0.31
2022-02-06 21:38:50.0500,0.061,-0.724,-0.678,-1.63,-0.18,0.3,0.06,0.03,-0.33
2022-02-06 21:38:50.0590,0.086,-0.734,-0.658,-1.8,-0.13,0.08,-0.01,0.14,-0.35
2022-02-06 21:38:50.0700,0.113,-0.743,-0.645,-2.01,-0.04,-0.1,-0.08,0.22,-0.38
2022-02-06 21:38:50.0800,0.14,-0.752,-0.64,-2.25,0.06,-0.22,-0.08,0.22,-0.38
2022-02-06 21:38:50.0900,0.167,-0.765,-0.646,-2.46,0.15,-0.26,-0.23,0.17,-0.39
2022-02-06 21:38:50.1000,0.188,-0.785,-0.666,-2.69,0.31,-0.18,-0.26,0.01,-0.37
2022-02-06 21:38:50.1100,0.209,-0.797,-0.682,-3.05,0.62,0.12,-0.23,-0.17,-0.35
2022-02-06 21:38:50.1200,0.231,-0.798,-0.687,-3.05,0.62,0.12,-0.19,-0.33,-0.35
2022-02-06 21:38:50.1300,0.239,-0.794,-0.685,-3.28,0.6,0.09,-0.16,-0.45,-0.35
2022-02-06 21:38:50.1400,0.232,-0.796,-0.674,-3.28,0.6,0.09,-0.16,-0.51,-0.34
2022-02-06 21:38:50.1500,0.223,-0.8,-0.66,-3.14,0.68,-0.18,-0.21,-0.52,-0.33
2022-02-06 21:38:50.1600,0.223,-0.805,-0.656,-3.16,0.76,-0.21,-0.29,-0.5,-0.32
2022-02-06 21:38:50.1700,0.222,-0.814,-0.667,-3.16,0.76,-0.21,-0.38,-0.47,-0.33
2022-02-06 21:38:50.1810,0.223,-0.818,-0.691,-3.16,0.87,-0.09,-0.44,-0.44,-0.34
2022-02-06 21:38:50.1900,0.221,-0.815,-0.71,-3.14,0.9,0.23,-0.45,-0.38,-0.36
2022-02-06 21:38:50.2010,0.218,-0.806,-0.71,-3.14,0.9,0.23,-0.4,-0.3,-0.36
2022-02-06 21:38:50.2100,0.22,-0.797,-0.718,-3.12,0.83,0.23,-0.35,-0.22,-0.35
2022-02-06 21:38:50.2210,0.221,-0.793,-0.714,-3.13,0.76,0.27,-0.29,-0.12,-0.33
2022-02-06 21:38:50.2310,0.23,-0.804,-0.699,-3.23,0.93,0.0,-0.27,0.02,-0.33
2022-02-06 21:38:50.2400,0.248,-0.824,-0.687,-3.23,0.93,0.0,-0.3,0.17,-0.33
2022-02-06 21:38:50.2510,0.261,-0.836,-0.684,-3.38,1.14,-0.12,-0.37,0.31,-0.36
2022-02-06 21:38:50.2610,0.257,-0.832,-0.693,-3.42,1.24,-0.16,-0.45,0.4,-0.38
2022-02-06 21:38:50.2710,0.244,-0.823,-0.707,-3.29,1.22,-0.08,-0.51,0.43,-0.37
2022-02-06 21:38:50.2810,0.23,-0.812,-0.726,-3.11,1.15,0.03,-0.51,0.38,-0.35
2022-02-06 21:38:50.2910,0.216,-0.801,-0.739,-2.92,1.09,0.18,-0.47,0.28,-0.32
2022-02-06 21:38:50.3010,0.207,-0.79,-0.743,-2.74,1.0,0.24,-0.38,0.15,-0.29
2022-02-06 21:38:50.3110,0.203,-0.788,-0.745,-2.64,0.94,0.25,-0.27,0.03,-0.27
2022-02-06 21:38:50.3210,0.193,-0.788,-0.735,-2.58,0.96,0.22,-0.15,-0.03,-0.28
2022-02-06 21:38:50.3310,0.178,-0.776,-0.718,-2.29,0.81,-0.1,-0.05,-0.03,-0.31
2022-02-06 21:38:50.3410,0.167,-0.765,-0.692,-2.17,0.72,-0.39,-0.01,0.05,-0.35
2022-02-06 21:38:50.3510,0.164,-0.761,-0.654,-2.17,0.72,-0.39,-0.02,0.21,-0.38
2022-02-06 21:38:50.3610,0.166,-0.754,-0.622,-2.12,0.68,-0.78,-0.09,0.37,-0.4
2022-02-06 21:38:50.3710,0.171,-0.748,-0.604,-2.08,0.58,-1.23,-0.2,0.52,-0.41
2022-02-06 21:38:50.3810,0.173,-0.741,-0.592,-2.01,0.51,-1.34,-0.32,0.6,-0.4
2022-02-06 21:38:50.3910,0.171,-0.728,-0.602,-2.01,0.51,-1.34,-0.42,0.58,-0.38
2022-02-06 21:38:50.4010,0.17,-0.717,-0.649,-1.85,0.35,-0.72,-0.45,0.44,-0.36
2022-02-06 21:38:50.4100,0.164,-0.705,-0.692,-1.74,0.24,-0.35,-0.43,0.26,-0.36
2022-02-06 21:38:50.4290,0.151,-0.684,-0.732,-1.57,0.05,0.02,-0.34,0.07,-0.38
2022-02-06 21:38:50.4310,0.137,-0.674,-0.764,-1.39,0.03,0.25,-0.24,-0.06,-0.41
2022-02-06 21:38:50.4410,0.117,-0.674,-0.777,-1.17,0.01,0.36,-0.13,-0.09,-0.44
2022-02-06 21:38:50.4500,0.096,-0.663,-0.782,-1.17,0.01,0.36,-0.02,0.01,-0.46
2022-02-06 21:38:50.4600,0.071,-0.658,-0.766,-0.93,-0.1,0.35,0.1,0.22,-0.45
2022-02-06 21:38:50.4700,0.044,-0.656,-0.757,-0.64,-0.12,0.19,0.22,0.45,-0.42
2022-02-06 21:38:50.4800,0.021,-0.631,-0.775,-0.31,-0.19,0.17,0.31,0.58,-0.38
2022-02-06 21:38:50.4900,0.022,-0.604,-0.816,-0.05,-0.51,0.44,0.4,0.61,-0.34
2022-02-06 21:38:50.5010,0.059,-0.623,-0.821,-0.09,-0.72,0.84,0.4,0.61,-0.34
2022-02-06 21:38:50.5100,0.105,-0.653,-0.809,-0.44,-0.47,0.81,0.63,0.58,-0.24
2022-02-06 21:38:50.5200,0.147,-0.644,-0.82,-0.82,-0.3,0.8,0.69,0.46,-0.22
2022-02-06 21:38:50.5320,0.172,-0.633,-0.819,-1.16,-0.49,0.96,0.69,0.33,-0.22
2022-02-06 21:38:50.5410,0.185,-0.648,-0.797,-1.33,-0.59,0.92,0.69,0.33,-0.22
2022-02-06 21:38:50.5520,0.18,-0.669,-0.785,-1.38,-0.44,0.76,0.45,0.14,-0.14
2022-02-06 21:38:50.5620,0.16,-0.677,-0.78,-1.28,-0.29,0.71,0.25,0.12,-0.1
2022-02-06 21:38:50.5720,0.121,-0.675,-0.775,-0.58,-0.32,0.65,0.04,0.17,-0.08
2022-02-06 21:38:50.5820,0.069,-0.658,-0.787,-0.58,-0.32,0.65,-0.13,0.21,-0.09
2022-02-06 21:38:50.5920,0.022,-0.638,-0.82,-0.05,-0.5,0.83,-0.27,0.23,-0.13
2022-02-06 21:38:50.6020,-0.008,-0.63,-0.854,0.4,-0.66,1.14,-0.35,0.23,-0.2
2022-02-06 21:38:50.6120,-0.029,-0.626,-0.881,0.92,-0.71,1.65,-0.39,0.25,-0.29
2022-02-06 21:38:50.6220,-0.044,-0.613,-0.89,0.92,-0.71,1.65,-0.39,0.29,-0.37
2022-02-06 21:38:50.6320,-0.045,-0.603,-0.889,1.09,-0.81,1.67,-0.39,0.29,-0.37
2022-02-06 21:38:50.6420,-0.03,-0.599,-0.878,1.0,-0.86,1.47,-0.32,0.43,-0.43
2022-02-06 21:38:50.6520,-0.01,-0.597,-0.856,1.0,-0.86,1.47,-0.27,0.49,-0.37
2022-02-06 21:38:50.6620,0.01,-0.588,-0.832,0.71,-0.95,0.99,-0.23,0.52,-0.25
2022-02-06 21:38:50.6720,0.028,-0.583,-0.82,0.6,-0.96,0.88,-0.19,0.48,-0.11
2022-02-06 21:38:50.6820,0.036,-0.582,-0.813,0.58,-0.95,0.83,-0.14,0.37,0.05
2022-02-06 21:38:50.6930,0.031,-0.583,-0.814,0.58,-0.95,0.83,-0.06,0.21,0.17
2022-02-06 21:38:50.7020,0.015,-0.581,-0.814,0.83,-0.98,0.83,0.05,0.03,0.23
2022-02-06 21:38:50.7120,-0.002,-0.578,-0.809,0.83,-0.98,0.83,0.17,-0.13,0.23
2022-02-06 21:38:50.7220,-0.01,-0.584,-0.797,0.95,-1.0,0.77,0.29,-0.28,0.17
2022-02-06 21:38:50.7330,-0.013,-0.592,-0.79,0.98,-0.89,0.63,0.35,-0.41,0.08
2022-02-06 21:38:50.7430,-0.019,-0.598,-0.784,0.98,-0.89,0.63,0.36,-0.51,-0.03
2022-02-06 21:38:50.7520,-0.029,-0.601,-0.774,1.09,-0.87,0.5,0.32,-0.59,-0.13
2022-02-06 21:38:50.7620,-0.048,-0.595,-0.775,1.09,-0.87,0.5,0.25,-0.67,-0.23
2022-02-06 21:38:50.7720,-0.07,-0.577,-0.796,1.26,-0.98,0.59,0.16,-0.76,-0.31
2022-02-06 21:38:50.7830,-0.086,-0.56,-0.815,1.43,-1.17,0.81,0.13,-0.8,-0.39
2022-02-06 21:38:50.7930,-0.099,-0.546,-0.813,1.56,-1.34,0.96,0.17,-0.78,-0.46
2022-02-06 21:38:50.8020,-0.102,-0.532,-0.806,1.63,-1.48,0.91,0.26,-0.73,-0.52
2022-02-06 21:38:50.8130,-0.1,-0.519,-0.795,1.63,-1.63,0.85,0.38,-0.66,-0.59
2022-02-06 21:38:50.8220,-0.091,-0.512,-0.767,1.59,-1.77,0.72,0.48,-0.54,-0.67
2022-02-06 21:38:50.8330,-0.077,-0.529,-0.733,1.49,-1.83,0.45,0.52,-0.41,-0.75
2022-02-06 21:38:50.8430,-0.062,-0.569,-0.712,1.36,-1.63,0.17,0.52,-0.3,-0.82
2022-02-06 21:38:50.8530,-0.049,-0.604,-0.689,1.25,-1.24,0.02,0.55,-0.17,-0.9
2022-02-06 21:38:50.8630,-0.042,-0.616,-0.669,1.19,-0.98,-0.2,0.6,-0.11,-1.01
2022-02-06 21:38:50.8730,-0.029,-0.616,-0.676,1.18,-0.93,-0.29,0.67,-0.19,-1.13
2022-02-06 21:38:50.8830,-0.025,-0.61,-0.704,1.17,-1.05,0.25,0.71,-0.45,-1.23
2022-02-06 21:38:50.9010,-0.027,-0.632,-0.745,1.2,-0.79,0.66,0.71,-0.45,-1.23
2022-02-06 21:38:50.9040,-0.017,-0.678,-0.758,1.2,-0.79,0.66,0.72,-1.08,-1.38
2022-02-06 21:38:50.9130,0.006,-0.718,-0.752,1.1,-0.36,0.75,0.69,-1.31,-1.5
2022-02-06 21:38:50.9190,0.034,-0.748,-0.754,0.88,-0.04,0.73,0.57,-1.47,-1.62
2022-02-06 21:38:50.9290,0.049,-0.777,-0.747,0.63,0.23,0.79,0.39,-1.46,-1.69
2022-02-06 21:38:50.9390,0.04,-0.786,-0.706,0.58,0.49,0.65,0.17,-1.24,-1.69
2022-02-06 21:38:50.9490,0.028,-0.77,-0.66,0.73,0.5,0.2,-0.04,-0.87,-1.64
2022-02-06 21:38:50.9590,0.029,-0.766,-0.617,0.88,0.36,-0.24,-0.04,-0.87,-1.64
2022-02-06 21:38:50.9690,0.039,-0.779,-0.576,0.92,0.41,-0.7,-0.34,0.12,-1.31
2022-02-06 21:38:50.9790,0.056,-0.792,-0.571,0.9,0.59,-1.06,-0.41,0.52,-1.07
2022-02-06 21:38:50.9890,0.088,-0.804,-0.589,0.82,0.75,-1.05,-0.43,0.73,-0.85
2022-02-06 21:38:50.9990,0.136,-0.831,-0.623,0.57,0.94,-0.85,-0.42,0.72,-0.64
2022-02-06 21:38:51.0090,0.175,-0.872,-0.67,0.19,1.29,-0.5,-0.42,0.72,-0.64
2022-02-06 21:38:51.0250,0.198,-0.9,-0.727,-0.09,1.71,-0.04,-0.35,0.14,-0.3
2022-02-06 21:38:51.0290,0.199,-0.901,-0.769,-0.23,1.95,0.49,-0.26,-0.27,-0.21
2022-02-06 21:38:51.0390,0.174,-0.879,-0.783,-0.18,1.93,0.81,-0.1,-0.6,-0.16
2022-02-06 21:38:51.0490,0.133,-0.838,-0.78,0.1,1.68,0.88,0.11,-0.82,-0.13
2022-02-06 21:38:51.0590,0.093,-0.794,-0.764,0.47,1.24,0.8,0.32,-0.94,-0.1
2022-02-06 21:38:51.0690,0.069,-0.764,-0.731,0.77,0.82,0.61,0.5,-0.98,-0.04
2022-02-06 21:38:51.0790,0.059,-0.751,-0.687,0.9,0.54,0.26,0.62,-0.97,0.04
2022-02-06 21:38:51.0890,0.059,-0.75,-0.646,0.91,0.39,-0.13,0.67,-0.93,0.17
2022-02-06 21:38:51.0990,0.057,-0.766,-0.61,0.82,0.38,-0.5,0.64,-0.88,0.31
2022-02-06 21:38:51.1090,0.041,-0.786,-0.58,0.79,0.52,-0.8,0.56,-0.83,0.44
2022-02-06 21:38:51.1190,0.026,-0.798,-0.556,0.87,0.66,-1.05,0.47,-0.75,0.51
2022-02-06 21:38:51.1290,0.014,-0.812,-0.53,0.92,0.74,-1.26,0.38,-0.62,0.54
2022-02-06 21:38:51.1390,-0.003,-0.826,-0.509,0.97,0.85,-1.49,0.27,-0.48,0.51
2022-02-06 21:38:51.1500,-0.019,-0.835,-0.5,1.07,0.95,-1.66,0.14,-0.33,0.44
2022-02-06 21:38:51.1600,-0.028,-0.844,-0.494,1.15,1.02,-1.72,0.0,-0.2,0.34
2022-02-06 21:38:51.1690,-0.03,-0.844,-0.494,1.19,1.09,-1.78,-0.15,-0.13,0.21
2022-02-06 21:38:51.1800,-0.019,-0.84,-0.513,1.15,1.08,-1.75,-0.29,-0.13,0.09
2022-02-06 21:38:51.1900,0.003,-0.837,-0.54,0.99,1.06,-1.55,-0.4,-0.2,0.01
2022-02-06 21:38:51.2000,0.02,-0.831,-0.562,0.76,1.06,-1.32,-0.48,-0.28,-0.02
2022-02-06 21:38:51.2100,0.029,-0.814,-0.577,0.61,1.0,-1.16,-0.52,-0.34,-0.01
2022-02-06 21:38:51.2190,0.03,-0.793,-0.597,0.51,0.86,-1.05,-0.53,-0.41,0.04
2022-02-06 21:38:51.2290,0.034,-0.771,-0.623,0.48,0.69,-0.88,-0.52,-0.48,0.08
2022-02-06 21:38:51.2390,0.04,-0.752,-0.644,0.39,0.5,-0.66,-0.5,-0.53,0.13
2022-02-06 21:38:51.2490,0.044,-0.735,-0.657,0.28,0.37,-0.52,-0.46,-0.54,0.16
2022-02-06 21:38:51.2590,0.045,-0.718,-0.668,0.2,0.23,-0.44,-0.42,-0.51,0.21
2022-02-06 21:38:51.2700,0.043,-0.704,-0.679,0.15,0.1,-0.37,-0.36,-0.44,0.25
2022-02-06 21:38:51.2800,0.046,-0.69,-0.68,0.12,-0.02,-0.3,-0.28,-0.32,0.32
2022-02-06 21:38:51.2900,0.053,-0.682,-0.663,0.03,-0.12,-0.36,-0.19,-0.17,0.43
2022-02-06 21:38:51.3000,0.065,-0.684,-0.647,-0.09,-0.16,-0.56,-0.12,-0.03,0.57
2022-02-06 21:38:51.3100,0.084,-0.684,-0.642,-0.26,-0.13,-0.7,-0.12,-0.03,0.57
2022-02-06 21:38:51.3200,0.101,-0.689,-0.64,-0.5,-0.12,-0.74,-0.07,0.06,0.83
2022-02-06 21:38:51.3300,0.11,-0.702,-0.631,-0.71,-0.05,-0.78,-0.07,0.01,0.93
2022-02-06 21:38:51.3400,0.104,-0.707,-0.628,-0.82,0.08,-0.88,-0.11,-0.07,0.99
2022-02-06 21:38:51.3500,0.092,-0.71,-0.636,-0.8,0.12,-0.88,-0.17,-0.18,0.99
2022-02-06 21:38:51.3600,0.086,-0.721,-0.634,-0.78,0.17,-0.82,-0.24,-0.24,0.93
2022-02-06 21:38:51.3700,0.081,-0.724,-0.627,-0.81,0.3,-0.88,-0.28,-0.24,0.81
2022-02-06 21:38:51.3800,0.073,-0.711,-0.62,-0.83,0.31,-0.96,-0.27,-0.18,0.68
2022-02-06 21:38:51.3910,0.07,-0.697,-0.6,-0.81,0.18,-1.07,-0.23,-0.05,0.6
2022-02-06 21:38:51.4000,0.074,-0.696,-0.575,-0.85,0.08,-1.32,-0.18,0.07,0.6
2022-02-06 21:38:51.4200,0.089,-0.707,-0.567,-1.17,0.28,-1.59,-0.11,0.15,0.67
2022-02-06 21:38:51.4220,0.117,-0.732,-0.57,-1.17,0.28,-1.59,-0.04,0.17,0.77
2022-02-06 21:38:51.4300,0.139,-0.767,-0.573,-1.48,0.56,-1.56,0.06,0.16,0.87
2022-02-06 21:38:51.4410,0.14,-0.792,-0.578,-1.7,0.9,-1.53,0.18,0.12,0.93
2022-02-06 21:38:51.4510,0.126,-0.796,-0.576,-1.72,1.08,-1.48,0.28,0.08,0.92
2022-02-06 21:38:51.4570,0.112,-0.799,-0.564,-1.62,1.08,-1.51,0.35,0.05,0.84
2022-02-06 21:38:51.4690,0.109,-0.812,-0.541,-1.62,1.08,-1.51,0.36,0.06,0.72
2022-02-06 21:38:51.4790,0.116,-0.829,-0.514,-1.56,1.12,-1.63,0.31,0.09,0.6
2022-02-06 21:38:51.4890,0.125,-0.851,-0.499,-1.72,1.4,-2.08,0.21,0.1,0.49
2022-02-06 21:38:51.4990,0.131,-0.874,-0.489,-1.72,1.4,-2.08,0.07,0.12,0.41
2022-02-06 21:38:51.5090,0.135,-0.897,-0.483,-1.84,1.6,-2.18,-0.08,0.15,0.35
2022-02-06 21:38:51.5190,0.137,-0.917,-0.496,-1.95,2.07,-2.31,-0.08,0.15,0.35
2022-02-06 21:38:51.5290,0.137,-0.923,-0.516,-1.95,2.07,-2.31,-0.31,0.19,0.22
2022-02-06 21:38:51.5390,0.125,-0.92,-0.537,-1.99,2.25,-2.16,-0.38,0.22,0.14
2022-02-06 21:38:51.5500,0.111,-0.911,-0.561,-1.96,2.3,-1.99,-0.41,0.26,0.04
2022-02-06 21:38:51.5590,0.106,-0.904,-0.581,-1.82,2.28,-1.8,-0.41,0.3,-0.06
2022-02-06 21:38:51.5700,0.105,-0.891,-0.6,-1.63,2.18,-1.44,-0.39,0.34,-0.15
2022-02-06 21:38:51.5800,0.106,-0.874,-0.609,-1.63,2.18,-1.44,-0.36,0.37,-0.22
2022-02-06 21:38:51.5900,0.114,-0.864,-0.622,-1.59,2.06,-1.29,-0.3,0.39,-0.26
2022-02-06 21:38:51.5990,0.13,-0.857,-0.635,-1.57,1.93,-1.24,-0.22,0.39,-0.27
2022-02-06 21:38:51.6100,0.145,-0.851,-0.645,-1.63,1.87,-1.13,-0.11,0.4,-0.24
2022-02-06 21:38:51.6200,0.157,-0.851,-0.64,-1.84,1.78,-0.96,-0.0,0.41,-0.17
2022-02-06 21:38:51.6290,0.16,-0.852,-0.633,-1.84,1.78,-0.96,0.09,0.43,-0.08
2022-02-06 21:38:51.6400,0.154,-0.851,-0.627,-1.9,1.8,-1.04,0.09,0.43,-0.08
2022-02-06 21:38:51.6490,0.141,-0.851,-0.618,-1.76,1.78,-1.16,0.17,0.46,0.07
2022-02-06 21:38:51.6590,0.124,-0.848,-0.612,-1.76,1.7590523833036424,-1.2200566291809083,0.32,0.45,0.09
2022-02-06 21:38:51.6690,0.108,-0.842,-0.607,-1.6,1.75,-1.23,0.37,0.43,0.08
2022-02-06 21:38:51.6800,0.097,-0.845,-0.599,-1.4,1.69,-1.26,0.42,0.4,0.04
2022-02-06 21:38:51.6900,0.085,-0.852,-0.59,-1.09,1.64,-1.35,0.44,0.37,-0.02
2022-02-06 21:38:51.7000,0.074,-0.852,-0.584,-1.09,1.64,-1.35,0.41,0.31,-0.08
2022-02-06 21:38:51.7090,0.07,-0.853,-0.585,-0.95,1.67,-1.41,0.35,0.24,-0.13
2022-02-06 21:38:51.7200,0.072,-0.859,-0.588,-0.78,1.63,-1.39,0.24,0.17,-0.17
2022-02-06 21:38:51.7300,0.079,-0.865,-0.591,-0.78,1.63,-1.39,0.12,0.14,-0.21
2022-02-06 21:38:51.7400,0.078,-0.869,-0.589,-0.82,1.73,-1.31,-0.0,0.15,-0.22
2022-02-06 21:38:51.7500,0.069,-0.869,-0.599,-0.82,1.73,-1.31,-0.12,0.18,-0.22
2022-02-06 21:38:51.7600,0.063,-0.869,-0.625,-0.76,1.75,-1.32,-0.21,0.18,-0.2
2022-02-06 21:38:51.7700,0.051,-0.865,-0.664,-0.65,1.75,-1.18,-0.28,0.15,-0.19
2022-02-06 21:38:51.7800,0.038,-0.853,-0.698,-0.56,1.78,-0.9,-0.32,0.09,-0.19
2022-02-06 21:38:51.7900,0.029,-0.856,-0.738,-0.26,1.65,-0.23,-0.33,0.01,-0.18
2022-02-06 21:38:51.8000,0.016,-0.857,-0.774,-0.26,1.65,-0.23,-0.33,-0.06314274668693542,-0.21
2022-02-06 21:38:51.8100,0.006,-0.835,-0.797,-0.16,1.74,0.14,-0.2,-0.1,-0.27
2022-02-06 21:38:51.8200,0.008,-0.81,-0.812,0.06,1.49,0.63,-0.11,-0.13,-0.35
2022-02-06 21:38:51.8300,0.016,-0.781,-0.822,0.06,1.49,0.63,-0.03,-0.15,-0.42
2022-02-06 21:38:51.8400,0.026,-0.75,-0.827,0.04,1.25,0.77,0.0,-0.18,-0.45
2022-02-06 21:38:51.8510,0.04,-0.738,-0.821,-0.03,0.95,0.84,-0.02,-0.18,-0.41
2022-02-06 21:38:51.8600,0.048,-0.742,-0.808,-0.25,0.62,0.78,-0.06,-0.14,-0.31
2022-02-06 21:38:51.8710,0.04,-0.742,-0.793,-0.25,0.62,0.78,-0.08,-0.04,-0.18
2022-02-06 21:38:51.8810,0.022,-0.731,-0.771,-0.28,0.67,0.65,-0.07,0.11,-0.07
2022-02-06 21:38:51.8910,0.003,-0.712,-0.757,0.04,0.53,0.25,-0.03,0.23,-0.01
2022-02-06 21:38:51.9000,-0.006,-0.691,-0.758,0.04,0.53,0.25,0.0,0.29,-0.0
2022-02-06 21:38:51.9110,-0.003,-0.693,-0.753,0.23,0.32,0.16,0.03,0.28,-0.02
2022-02-06 21:38:51.9210,-0.003,-0.696,-0.745,0.29,0.16,0.18,0.04,0.21,-0.08
2022-02-06 21:38:51.9300,-0.001,-0.686,-0.738,0.28,0.22,0.1,0.02,0.1,-0.14
2022-02-06 21:38:51.9410,0.01,-0.678,-0.729,0.31,0.21,0.03,-0.03,-0.04,-0.19
2022-02-06 21:38:51.9500,0.023,-0.682,-0.716,0.18,0.06,-0.14,-0.08,-0.13,-0.17
2022-02-06 21:38:51.9610,0.032,-0.682,-0.696,0.06,0.11,-0.29,-0.13,-0.18,-0.12
2022-02-06 21:38:51.9700,0.039,-0.673,-0.677,0.06,0.11,-0.29,-0.16,-0.17,-0.03
2022-02-06 21:38:51.9810,0.045,-0.667,-0.661,-0.03,0.09,-0.49,-0.19,-0.11,0.08
2022-02-06 21:38:51.9910,0.051,-0.67,-0.643,-0.1,0.01,-0.69,-0.2,-0.02,0.19
2022-02-06 21:38:52.0010,0.055,-0.676,-0.632,-0.17,-0.01,-0.86,-0.2,0.04,0.3
2022-02-06 21:38:52.0110,0.058,-0.685,-0.628,-0.25,0.04,-1.04,-0.19,0.05,0.39
2022-02-06 21:38:52.0210,0.056,-0.699,-0.628,-0.3,0.12,-1.14,-0.16,0.02,0.44
2022-02-06 21:38:52.0310,0.052,-0.709,-0.627,-0.34,0.24,-1.19,-0.11,-0.04,0.45
2022-02-06 21:38:52.0410,0.048,-0.717,-0.623,-0.34,0.38,-1.19,-0.06,-0.11,0.43
2022-02-06 21:38:52.0510,0.049,-0.729,-0.616,-0.33,0.48,-1.22,-0.01,-0.16,0.37
2022-02-06 21:38:52.0610,0.054,-0.746,-0.61,-0.34,0.57,-1.27,0.03,-0.2,0.28
2022-02-06 21:38:52.0790,0.063,-0.753,-0.601,-0.49,0.85,-1.4,0.06,-0.21,0.17
2022-02-06 21:38:52.0810,0.07,-0.746,-0.595,-0.49,0.85,-1.4,0.07,-0.21,0.06
2022-02-06 21:38:52.0910,0.074,-0.732,-0.592,-0.61,0.89,-1.49,0.08,-0.21,-0.03
2022-02-06 21:38:52.1010,0.078,-0.722,-0.586,-0.69,0.79,-1.53,0.09,-0.18,-0.08
2022-02-06 21:38:52.1110,0.083,-0.717,-0.578,-0.74,0.65,-1.57,0.11,-0.13,-0.08
2022-02-06 21:38:52.1210,0.089,-0.715,-0.581,-0.84,0.52,-1.68,0.15,-0.09,-0.06
2022-02-06 21:38:52.1310,0.097,-0.716,-0.587,-0.84,0.52,-1.68,0.19,-0.06,-0.04
2022-02-06 21:38:52.1420,0.099,-0.72,-0.591,-0.91,0.48,-1.62,0.24,-0.06,-0.03
2022-02-06 21:38:52.1510,0.095,-0.715,-0.602,-0.99,0.51,-1.55,0.26,-0.11,-0.03
2022-02-06 21:38:52.1610,0.08,-0.712,-0.621,-0.99,0.5,-1.5,0.26,-0.19,-0.03
2022-02-06 21:38:52.1710,0.06,-0.708,-0.635,-0.94,0.43,-1.34,0.26,-0.25,-0.03
2022-02-06 21:38:52.1900,0.037,-0.703,-0.643,-0.59,0.33,-1.01,0.28,-0.29,-0.02
2022-02-06 21:38:52.1920,0.012,-0.687,-0.646,-0.59,0.33,-1.01,0.31,-0.27,-0.04
2022-02-06 21:38:52.2010,-0.003,-0.661,-0.639,-0.37,0.25,-0.93,0.34,-0.21,-0.06
2022-02-06 21:38:52.2110,-0.01,-0.648,-0.623,-0.17,0.04,-0.89,0.37,-0.07,-0.08
2022-02-06 21:38:52.2220,-0.01,-0.649,-0.594,-0.01,-0.33,-1.13,0.37,0.11,-0.1
2022-02-06 21:38:52.2320,0.001,-0.644,-0.585,-0.01,-0.33,-1.13,0.33,0.24,-0.12
2022-02-06 21:38:52.2410,0.021,-0.645,-0.601,-0.01,-0.36,-1.38,0.28,0.29,-0.13
2022-02-06 21:38:52.2520,0.038,-0.649,-0.628,-0.13,-0.44,-1.36,0.22,0.24,-0.14
2022-02-06 21:38:52.2620,0.039,-0.64,-0.682,-0.3,-0.42,-1.16,0.19,0.14,-0.13
2022-02-06 21:38:52.2720,0.033,-0.628,-0.734,-0.37,-0.54,-0.25,0.21,0.09,-0.12
2022-02-06 21:38:52.2820,0.029,-0.615,-0.758,-0.29,-0.67,0.2,0.27,0.12,-0.12
2022-02-06 21:38:52.2920,0.04,-0.608,-0.784,-0.26,-0.83,0.43,0.34,0.18,-0.12
2022-02-06 21:38:52.3020,0.058,-0.615,-0.815,-0.26,-0.83,0.43,0.39,0.2,-0.09
2022-02-06 21:38:52.3120,0.071,-0.612,-0.867,-0.53,-0.84,1.07,0.35,0.06,-0.03
2022-02-06 21:38:52.3220,0.072,-0.61,-0.944,-0.53,-0.84,1.07,0.25,-0.17,0.1
2022-02-06 21:38:52.3320,0.056,-0.629,-0.978,-0.63,-0.91,1.71,0.2,-0.31,0.26
2022-02-06 21:38:52.3420,0.029,-0.624,-0.976,-0.62,-0.9,2.42,0.19,-0.35,0.33
2022-02-06 21:38:52.3510,0.009,-0.587,-0.985,-0.45,-0.73,2.65,0.19,-0.34,0.31
2022-02-06 21:38:52.3620,-0.023,-0.545,-0.998,-0.26,-0.89,2.63,0.2,-0.29,0.22
2022-02-06 21:38:52.3720,-0.054,-0.503,-0.986,0.21,-1.73,2.86,0.19,-0.16,0.11
2022-02-06 21:38:52.3900,-0.071,-0.478,-0.953,0.47,-2.13,2.7,0.14,0.04,0.02
2022-02-06 21:38:52.3920,-0.066,-0.478,-0.923,0.58,-2.32,2.36,0.05,0.25,-0.02
2022-02-06 21:38:52.4020,-0.055,-0.488,-0.917,0.58,-2.32,2.36,-0.08,0.42,-0.01
2022-02-06 21:38:52.4120,-0.037,-0.494,-0.923,0.43,-2.18,2.1,-0.21,0.55,0.01
2022-02-06 21:38:52.4220,-0.013,-0.499,-0.932,0.43,-2.18,2.1,-0.3,0.61,0.04
2022-02-06 21:38:52.4320,0.001,-0.5,-0.954,0.08,-2.04,2.25,-0.33,0.59,0.07
2022-02-06 21:38:52.4420,0.003,-0.491,-0.979,0.08,-2.04,2.25,-0.29,0.51,0.06
2022-02-06 21:38:52.4520,-0.001,-0.48,-0.991,0.01,-2.04,2.47,-0.19,0.42,0.03
2022-02-06 21:38:52.4620,-0.003,-0.477,-0.982,0.1,-2.19,2.72,-0.07,0.34,-0.01
2022-02-06 21:38:52.4720,-0.008,-0.484,-0.968,0.1,-2.19,2.72,0.05,0.28,-0.03
2022-02-06 21:38:52.4820,-0.021,-0.489,-0.944,0.23,-2.12,2.44,0.13,0.25,-0.02
2022-02-06 21:38:52.4920,-0.037,-0.489,-0.909,0.23,-2.12,2.44,0.19,0.26,0.02
2022-02-06 21:38:52.5020,-0.048,-0.496,-0.875,0.57,-2.09,1.84,0.23,0.27,0.09
2022-02-06 21:38:52.5120,-0.052,-0.518,-0.853,0.67,-2.01,1.56,0.3,0.29,0.18
2022-02-06 21:38:52.5220,-0.047,-0.539,-0.829,0.67,-2.01,1.56,0.37,0.27,0.25
2022-02-06 21:38:52.5330,-0.031,-0.553,-0.81,0.7,-1.8,1.37,0.42,0.2,0.27
2022-02-06 21:38:52.5420,-0.017,-0.574,-0.797,0.45338316142559054,-1.52,1.02,0.43,0.06,0.27
2022-02-06 21:38:52.5530,-0.017,-0.591,-0.788,0.34,-1.34,0.93,0.39,-0.09,0.24
2022-02-06 21:38:52.5620,-0.02,-0.603,-0.782,0.33,-1.22,0.87,0.29,-0.25,0.17
2022-02-06 21:38:52.5720,-0.027,-0.606,-0.782,0.33,-1.13,0.85,0.16,-0.41,0.07
2022-02-06 21:38:52.5830,-0.04,-0.598,-0.788,0.39,-1.15,0.87,0.0,-0.55,-0.06
2022-02-06 21:38:52.5930,-0.056,-0.592,-0.799,0.39,-1.15,0.87,-0.15,-0.62,-0.16
2022-02-06 21:38:52.6030,-0.075,-0.587,-0.814,0.49,-1.23,0.95,-0.28,-0.67,-0.25
2022-02-06 21:38:52.6130,-0.088,-0.572,-0.837,0.62,-1.26,1.05,-0.37,-0.67,-0.31
2022-02-06 21:38:52.6220,-0.092,-0.564,-0.856,0.86,-1.44,1.4,-0.42,-0.64,-0.35
2022-02-06 21:38:52.6330,-0.089,-0.568,-0.869,0.86,-1.44,1.4,-0.45,-0.56,-0.35
2022-02-06 21:38:52.6430,-0.087,-0.57,-0.874,0.81,-1.37,1.62,-0.46,-0.44,-0.34
2022-02-06 21:38:52.6530,-0.088,-0.562,-0.884,0.81,-1.37,1.62,-0.5,-0.33,-0.32
2022-02-06 21:38:52.6630,-0.086,-0.56,-0.907,0.78,-1.35,1.63,-0.5,-0.33,-0.32
2022-02-06 21:38:52.6730,-0.087,-0.564,-0.93,0.77,-1.35,1.93,-0.67,-0.18,-0.29
2022-02-06 21:38:52.6830,-0.081,-0.574,-0.949,0.78,-1.25,2.09,-0.76,-0.1,-0.29
2022-02-06 21:38:52.6930,-0.073,-0.581,-0.965,0.72,-1.1,2.22,-0.76,-0.1,-0.29
2022-02-06 21:38:52.7030,-0.067,-0.578,-0.977,0.66,-0.99,2.31,-0.83,0.06,-0.29
2022-02-06 21:38:52.7120,-0.067,-0.571,-0.989,0.66,-0.99,2.31,-0.81,0.11,-0.26
2022-02-06 21:38:52.7240,-0.06,-0.567,-0.995,0.65,-0.98,2.43,-0.76,0.16,-0.22
2022-02-06 21:38:52.7330,-0.051,-0.565,-0.994,0.61,-0.95,2.4,-0.69,0.15,-0.17
2022-02-06 21:38:52.7430,-0.043,-0.561,-1.006,0.54,-0.93,2.37,-0.63,0.09,-0.13
2022-02-06 21:38:52.7530,-0.036,-0.56,-1.012,0.48,-0.91,2.46,-0.56,0.01,-0.12
2022-02-06 21:38:52.7630,-0.033,-0.56,-1.008,0.48,-0.91,2.46,-0.5,-0.1,-0.12
2022-02-06 21:38:52.7730,-0.037,-0.558,-1.015,0.43,-0.87,2.44,-0.43,-0.21,-0.14
2022-02-06 21:38:52.7840,-0.043,-0.553,-1.011,0.45,-0.83,2.43,-0.35,-0.27,-0.15
2022-02-06 21:38:52.7930,-0.049,-0.55,-0.983,0.5,-0.84,2.3,-0.26,-0.27,-0.16
2022-02-06 21:38:52.8030,-0.05,-0.554,-0.951,0.55,-0.84,1.98,-0.17,-0.23,-0.15
2022-02-06 21:38:52.8130,-0.05,-0.559,-0.922,0.54,-0.78,1.66,-0.1,-0.2,-0.14
2022-02-06 21:38:52.8240,-0.051,-0.562,-0.896,0.54,-0.78,1.66,-0.07,-0.17,-0.12
2022-02-06 21:38:52.8330,-0.051,-0.581,-0.873,0.53,-0.67,1.13,-0.05,-0.13,-0.09
2022-02-06 21:38:52.8430,-0.04,-0.607,-0.848,0.53,-0.67,1.13,-0.03,-0.09,-0.08
2022-02-06 21:38:52.8540,-0.03,-0.613,-0.834,0.51,-0.44,0.9,-0.03,-0.12,-0.1
2022-02-06 21:38:52.8640,-0.023,-0.602,-0.853,0.39,-0.21,0.64,-0.06,-0.24,-0.13
2022-02-06 21:38:52.8730,-0.017,-0.599,-0.866,0.3,-0.21,0.59,-0.1,-0.35,-0.19
2022-02-06 21:38:52.8840,-0.016,-0.601,-0.853,0.23,-0.31,0.81,-0.12,-0.34,-0.25
2022-02-06 21:38:52.8940,-0.031,-0.592,-0.819,0.17,-0.29,0.68,-0.1,-0.18,-0.27
2022-02-06 21:38:52.9040,-0.033,-0.589,-0.765,0.31,-0.38,0.27,-0.02,0.12,-0.25
2022-02-06 21:38:52.9140,-0.028,-0.595,-0.713,0.31,-0.38,0.27,0.08,0.45,-0.18
2022-02-06 21:38:52.9240,-0.016,-0.591,-0.671,0.32,-0.37,-0.27,0.16,0.67,-0.09
2022-02-06 21:38:52.9340,0.01,-0.588,-0.656,0.31,-0.33,-0.77,0.2,0.74,0.01
2022-02-06 21:38:52.9520,0.029,-0.601,-0.658,0.21,-0.39,-1.11,0.18,0.65,0.09
2022-02-06 21:38:52.9550,0.038,-0.614,-0.667,0.0,-0.4,-1.19,0.12,0.48,0.11
2022-02-06 21:38:52.9640,0.055,-0.62,-0.673,-0.09,-0.26,-1.13,0.12,0.48,0.11
2022-02-06 21:38:52.9740,0.074,-0.627,-0.681,-0.17,-0.17,-1.04,-0.01,0.08,-0.05
2022-02-06 21:38:52.9850,0.085,-0.626,-0.689,-0.5,-0.04,-0.88,-0.01,0.08,-0.05
2022-02-06 21:38:52.9930,0.079,-0.609,-0.669,-0.5,-0.04,-0.88,-0.02,-0.08,-0.23
2022-02-06 21:38:53.0040,0.062,-0.586,-0.635,-0.56,-0.09,-0.86,0.01,0.0,-0.22
2022-02-06 21:38:53.0140,0.056,-0.57,-0.624,-0.28,-0.5,-1.43,0.02,0.1,-0.15
2022-02-06 21:38:53.0250,0.057,-0.566,-0.618,-0.24,-0.63,-1.49,0.02,0.2,-0.01
2022-02-06 21:38:53.0340,0.06,-0.566,-0.618,-0.24,-0.63,-1.49,0.03,0.26,0.12
2022-02-06 21:38:53.0440,0.066,-0.563,-0.635,-0.26,-0.66,-1.51,0.02,0.24,0.21
2022-02-06 21:38:53.0540,0.072,-0.571,-0.664,-0.26,-0.66,-1.51,0.02,0.18,0.27
2022-02-06 21:38:53.0640,0.07,-0.584,-0.689,-0.37,-0.57,-1.02,0.03,0.08,0.27
2022-02-06 21:38:53.0740,0.062,-0.586,-0.709,-0.37,-0.57,-1.02,0.03,-0.03,0.24
2022-02-06 21:38:53.0850,0.05,-0.582,-0.73,-0.27,-0.47,-0.59,0.03,-0.13,0.2
2022-02-06 21:38:53.0950,0.037,-0.579,-0.748,-0.27,-0.47,-0.59,0.02,-0.2,0.16
2022-02-06 21:38:53.1040,0.022,-0.575,-0.759,-0.17,-0.51,-0.39,0.01,-0.23,0.13
2022-02-06 21:38:53.1140,0.01,-0.569,-0.764,0.06,-0.58,-0.14,-0.02,-0.22,0.11
2022-02-06 21:38:53.1250,0.001,-0.56,-0.764,0.06,-0.58,-0.14,-0.06,-0.18,0.1
2022-02-06 21:38:53.1350,-0.002,-0.553,-0.764,0.2,-0.73,-0.11,-0.13,-0.11,0.09
2022-02-06 21:38:53.1450,-0.005,-0.55,-0.763,0.2,-0.73,-0.11,-0.2,-0.01,0.09
2022-02-06 21:38:53.1550,-0.01,-0.547,-0.761,0.21,-0.78,-0.12,-0.2,-0.01,0.09
2022-02-06 21:38:53.1640,-0.015,-0.542,-0.767,0.24,-0.78,-0.15,-0.35,0.22,0.14
2022-02-06 21:38:53.1750,-0.019,-0.539,-0.774,0.28,-0.8,-0.18,-0.4,0.33,0.18
2022-02-06 21:38:53.1850,-0.019,-0.542,-0.774,0.34,-0.83,-0.12,-0.41,0.42,0.23
2022-02-06 21:38:53.1940,-0.016,-0.537,-0.776,0.4,-0.75,-0.12,-0.38,0.49,0.26
2022-02-06 21:38:53.2050,-0.006,-0.526,-0.777,0.4,-0.75,-0.12,-0.32,0.51,0.29
2022-02-06 21:38:53.2150,0.006,-0.526,-0.776,0.37,-0.8,-0.12,-0.26,0.49,0.34
2022-02-06 21:38:53.2240,0.015,-0.532,-0.769,0.29,-0.86,-0.13,-0.2,0.44,0.4
2022-02-06 21:38:53.2350,0.02,-0.535,-0.765,0.12,-0.74,-0.25,-0.16,0.41,0.47
2022-02-06 21:38:53.2450,0.023,-0.539,-0.753,0.12,-0.74,-0.25,-0.16,0.41,0.47
2022-02-06 21:38:53.2550,0.024,-0.546,-0.744,0.08,-0.71,-0.32,-0.06,0.37,0.58
2022-02-06 21:38:53.2650,0.027,-0.563,-0.739,0.04,-0.56,-0.52,-0.05,0.35,0.65
2022-02-06 21:38:53.2760,0.021,-0.581,-0.745,0.04,-0.56,-0.52,-0.08,0.28,0.72
2022-02-06 21:38:53.2850,0.006,-0.595,-0.765,0.08,-0.21,-0.45,-0.16,0.18,0.77
2022-02-06 21:38:53.2960,-0.009,-0.612,-0.768,0.2,-0.05,-0.29,-0.27,0.1,0.78
2022-02-06 21:38:53.3060,-0.028,-0.616,-0.778,0.32,0.12,-0.3,-0.4,0.02,0.72
2022-02-06 21:38:53.3150,-0.046,-0.598,-0.804,0.32,0.12,-0.3,-0.54,-0.07,0.63
2022-02-06 21:38:53.3260,-0.063,-0.577,-0.826,0.46,0.14,-0.17,-0.67,-0.13,0.55
2022-02-06 21:38:53.3350,-0.072,-0.569,-0.839,0.6,-0.02,0.05,-0.74,-0.14,0.52
2022-02-06 21:38:53.3450,-0.074,-0.568,-0.861,0.73,-0.15,0.28,-0.78,-0.16,0.55
2022-02-06 21:38:53.3550,-0.065,-0.572,-0.903,0.69,-0.08,0.53,-0.72,-0.18,0.61
2022-02-06 21:38:53.3660,-0.056,-0.58,-0.922,0.53,0.03,0.87,-0.56,-0.17,0.71
2022-02-06 21:38:53.3760,-0.052,-0.582,-0.929,0.53,0.03,0.87,-0.29,-0.15,0.82
2022-02-06 21:38:53.3850,-0.048,-0.572,-0.932,0.41,0.15,0.97,-0.29,-0.15,0.82
2022-02-06 21:38:53.3960,-0.051,-0.568,-0.945,0.31,0.17,1.0,0.25,-0.38,0.99
2022-02-06 21:38:53.4050,-0.053,-0.579,-0.962,0.22,0.08,1.05,0.41,-0.63,1.0
2022-02-06 21:38:53.4160,-0.066,-0.592,-0.97,0.17,0.06,1.21,0.47,-0.89,0.91
2022-02-06 21:38:53.4260,-0.089,-0.595,-0.966,0.14,0.23,1.46,0.46,-1.07,0.76
2022-02-06 21:38:53.4360,-0.122,-0.594,-0.945,0.25,0.22,1.42,0.4,-1.11,0.59
2022-02-06 21:38:53.4460,-0.163,-0.586,-0.91,0.48,0.17,1.2,0.32,-1.02,0.42
2022-02-06 21:38:53.4560,-0.195,-0.577,-0.871,0.48,0.17,1.2,0.23,-0.81,0.27
2022-02-06 21:38:53.4650,-0.21,-0.578,-0.832,0.96,-0.02,0.5,0.13,-0.56,0.16
2022-02-06 21:38:53.4760,-0.21,-0.587,-0.806,1.01,0.0,0.16,0.02,-0.32,0.09
2022-02-06 21:38:53.4860,-0.196,-0.604,-0.791,0.94,0.1,-0.06,-0.08,-0.16,0.05
2022-02-06 21:38:53.4960,-0.183,-0.625,-0.779,0.78,0.3,-0.2,-0.17,-0.05,0.03
2022-02-06 21:38:53.5060,-0.178,-0.635,-0.762,0.78,0.3,-0.2,-0.21,0.05,-0.01
2022-02-06 21:38:53.5160,-0.187,-0.637,-0.747,0.64,0.59,-0.52,-0.23,0.12,-0.05
2022-02-06 21:38:53.5260,-0.195,-0.637,-0.736,0.64,0.59,-0.52,-0.22,0.16,-0.11
2022-02-06 21:38:53.5360,-0.197,-0.638,-0.722,0.83,0.63,-0.79,-0.2,0.17,-0.17
2022-02-06 21:38:53.5460,-0.195,-0.631,-0.707,0.87,0.65,-0.96,-0.16,0.1,-0.23
2022-02-06 21:38:53.5560,-0.188,-0.616,-0.708,0.87,0.65,-0.96,-0.13,-0.04,-0.3
2022-02-06 21:38:53.5660,-0.184,-0.601,-0.711,0.85,0.57,-1.07,-0.12,-0.25,-0.35
2022-02-06 21:38:53.5770,-0.179,-0.592,-0.712,0.76,0.3,-1.04,-0.12,-0.48,-0.38
2022-02-06 21:38:53.5870,-0.181,-0.582,-0.706,0.76,0.3,-1.04,-0.12,-0.7,-0.41
2022-02-06 21:38:53.5960,-0.189,-0.565,-0.695,0.7,0.22,-1.04,-0.11,-0.88,-0.42
2022-02-06 21:38:53.6070,-0.204,-0.544,-0.677,0.76,-0.06,-1.25,-0.1,-0.98,-0.44
2022-02-06 21:38:53.6160,-0.222,-0.525,-0.659,0.76,-0.06,-1.25,-0.1,-1.02,-0.46
2022-02-06 21:38:53.6270,-0.235,-0.509,-0.645,0.87,-0.26,-1.42,-0.12,-1.02,-0.5
2022-02-06 21:38:53.6360,-0.24,-0.495,-0.637,1.04,-0.58,-1.7,-0.16,-1.01,-0.56
2022-02-06 21:38:53.6460,-0.239,-0.489,-0.636,1.04,-0.58,-1.7,-0.21,-0.98,-0.63
2022-02-06 21:38:53.6560,-0.227,-0.488,-0.631,0.94,-0.73,-1.77,-0.28,-0.96,-0.7
2022-02-06 21:38:53.6670,-0.211,-0.492,-0.638,0.76,-0.71,-1.81,-0.35,-0.96,-0.77
2022-02-06 21:38:53.6770,-0.194,-0.494,-0.649,0.76,-0.71,-1.81,-0.35,-0.96,-0.77
2022-02-06 21:38:53.6870,-0.171,-0.498,-0.659,0.58,-0.65,-1.72,-0.41,-0.97,-0.84
2022-02-06 21:38:53.6970,-0.143,-0.5,-0.672,0.36,-0.61,-1.62,-0.48,-0.97,-0.91
2022-02-06 21:38:53.7070,-0.127,-0.497,-0.688,0.08,-0.55,-1.53,-0.55,-0.95,-1.0
2022-02-06 21:38:53.7160,-0.112,-0.492,-0.701,-0.36,-0.52,-1.27,-0.53,-0.93,-1.01
2022-02-06 21:38:53.7270,-0.097,-0.488,-0.716,-0.36,-0.52,-1.27,-0.46,-0.92,-0.99
2022-02-06 21:38:53.7370,-0.083,-0.491,-0.736,-0.53,-0.54,-1.16,-0.46,-0.92,-0.99
2022-02-06 21:38:53.7470,-0.058,-0.507,-0.734,-0.87,-0.48,-0.85,-0.14,-0.84,-0.88
2022-02-06 21:38:53.7560,-0.017,-0.541,-0.715,-0.87,-0.48,-0.85,0.06,-0.76,-0.81
2022-02-06 21:38:53.7670,0.019,-0.58,-0.705,-1.18,-0.28,-0.92,0.21,-0.74,-0.74
2022-02-06 21:38:53.7770,0.049,-0.621,-0.718,-1.61,0.07,-1.1,0.26,-0.79,-0.65
2022-02-06 21:38:53.7870,0.084,-0.686,-0.734,-1.96,0.42,-1.11,0.2,-0.91,-0.55
2022-02-06 21:38:53.7970,0.124,-0.772,-0.758,-2.29,0.84,-0.94,0.08,-1.1,-0.45
2022-02-06 21:38:53.8070,0.141,-0.834,-0.794,-2.7,1.52,-0.75,-0.05,-1.37,-0.37
2022-02-06 21:38:53.8170,0.121,-0.843,-0.828,-3.12,2.34,-0.46,-0.14,-1.68,-0.33
2022-02-06 21:38:53.8270,0.084,-0.826,-0.847,-3.13,2.8,0.25,-0.18,-1.94,-0.31
2022-02-06 21:38:53.8370,0.035,-0.821,-0.843,-3.13,2.8,0.25,-0.2,-2.04,-0.3
2022-02-06 21:38:53.8470,-0.013,-0.81,-0.828,-2.88,2.66,0.44,-0.2,-2.04,-0.3
2022-02-06 21:38:53.8570,-0.044,-0.803,-0.813,-2.52,2.63,0.36,-0.27,-1.92,-0.37
2022-02-06 21:38:53.8670,-0.056,-0.809,-0.788,-2.22,2.52,0.12979006111621857,-0.27,-1.92,-0.37
2022-02-06 21:38:53.8780,-0.052,-0.83,-0.765,-2.1,2.5,0.12,-0.51,-1.53,-0.4
2022-02-06 21:38:53.8870,-0.041,-0.855,-0.742,-2.15,2.61,-0.1,-0.69,-1.29,-0.35
2022-02-06 21:38:53.8970,-0.035,-0.871,-0.723,-2.31,2.87,-0.3,-0.85,-1.07,-0.28
2022-02-06 21:38:53.9070,-0.042,-0.873,-0.724,-2.5,3.14,-0.53,-0.85,-1.07,-0.28
2022-02-06 21:38:53.9170,-0.058,-0.865,-0.739,-2.61,3.33,-0.69,-1.1,-0.79,-0.22
2022-02-06 21:38:53.9280,-0.067,-0.865,-0.764,-2.56,3.38,-0.66,-1.14,-0.71,-0.3
2022-02-06 21:38:53.9380,-0.073,-0.87,-0.8,-2.46,3.39,-0.52,-1.1,-0.68,-0.43
2022-02-06 21:38:53.9480,-0.09,-0.854,-0.838,-2.39,3.59,0.07,-1.0,-0.68,-0.59
2022-02-06 21:38:53.9580,-0.109,-0.83,-0.863,-2.23,3.45,0.36,-0.86,-0.71,-0.77
2022-02-06 21:38:53.9680,-0.123,-0.815,-0.896,-2.07,3.28,0.6,-0.69,-0.76,-0.91
2022-02-06 21:38:53.9790,-0.129,-0.808,-0.91,-1.98,3.18,0.91,-0.49,-0.76,-1.01
2022-02-06 21:38:53.9880,-0.128,-0.807,-0.905,-1.94,3.14,0.97,-0.31,-0.74,-1.06
2022-02-06 21:38:53.9970,-0.116,-0.808,-0.904,-1.98,3.13,0.93,-0.19,-0.72,-1.07
2022-02-06 21:38:54.0080,-0.09,-0.815,-0.904,-1.98,3.13,0.93,-0.13,-0.71,-1.05
2022-02-06 21:38:54.0180,-0.063,-0.83,-0.9,-2.43,3.2,0.94,-0.13,-0.71,-1.01
2022-02-06 21:38:54.0290,-0.047,-0.841,-0.902,-2.67,3.33,0.93,-0.13,-0.71,-0.95
2022-02-06 21:38:54.0370,-0.038,-0.844,-0.907,-2.67,3.33,0.93,-0.08,-0.69,-0.89
2022-02-06 21:38:54.0470,-0.031,-0.843,-0.906,-2.82,3.4,0.98,-0.0,-0.66,-0.84
2022-02-06 21:38:54.0570,-0.021,-0.844,-0.907,-2.91,3.39,1.03,0.11,-0.63,-0.82
2022-02-06 21:38:54.0680,-0.014,-0.852,-0.909,-3.0,3.35,1.04,0.21,-0.57,-0.83
2022-02-06 21:38:54.0780,-0.008,-0.859,-0.899,-3.1,3.35,1.09,0.25,-0.5,-0.86
2022-02-06 21:38:54.0880,-0.001,-0.866,-0.892,-3.16,3.39,1.11,0.23,-0.41,-0.89
2022-02-06 21:38:54.0980,0.006,-0.874,-0.886,-3.23,3.41,1.03,0.15,-0.28,-0.93
2022-02-06 21:38:54.1080,0.01,-0.874,-0.876,-3.28,3.44,1.01,0.04,-0.11,-0.96
2022-02-06 21:38:54.1180,0.021,-0.87,-0.881,-3.32,3.41,0.88,-0.09,0.05,-0.97
2022-02-06 21:38:54.1290,0.048,-0.878,-0.893,-3.32,3.41,0.88,-0.2,0.19,-0.94
2022-02-06 21:38:54.1380,0.075,-0.886,-0.9,-3.42,3.37,0.96,-0.3,0.32,-0.87
2022-02-06 21:38:54.1480,0.098,-0.882,-0.912,-3.64,3.44,1.04,-0.35,0.41,-0.77
2022-02-06 21:38:54.1580,0.117,-0.872,-0.936,-3.97,3.44,1.2,-0.35,0.47,-0.66
2022-02-06 21:38:54.1680,0.13,-0.851,-0.965,-4.07,3.34,1.43,-0.27,0.52,-0.58
2022-02-06 21:38:54.1790,0.136,-0.822,-0.986,-4.07,3.34,1.43,-0.12,0.58,-0.51
2022-02-06 21:38:54.1890,0.132,-0.783,-0.995,-4.08,2.8,1.82,0.13,0.67,-0.46
2022-02-06 21:38:54.1980,0.124,-0.74,-0.99,-4.08,2.8,1.82,0.4,0.78,-0.4
2022-02-06 21:38:54.2080,0.122,-0.702,-0.989,-3.79,1.92,1.79,0.66,0.8,-0.33
2022-02-06 21:38:54.2190,0.119,-0.669,-1.001,-3.7,1.52,1.84,0.87,0.73,-0.22
2022-02-06 21:38:54.2290,0.106,-0.637,-1.002,-3.58,1.12,1.97,1.01,0.61,-0.13
2022-02-06 21:38:54.2390,0.086,-0.602,-1.007,-3.58,1.12,1.97,1.11,0.49,-0.03
2022-02-06 21:38:54.2490,0.057,-0.571,-1.003,-3.11,0.29,2.11,1.19,0.45,0.04
2022-02-06 21:38:54.2590,0.03,-0.554,-0.984,-2.78,-0.06,2.09,1.25,0.52,0.08
2022-02-06 21:38:54.2690,0.012,-0.534,-0.954,-2.51,-0.32,1.92,1.25,0.52,0.08
2022-02-06 21:38:54.2790,-0.007,-0.521,-0.928,-2.51,-0.32,1.92,1.31,0.98,0.12
2022-02-06 21:38:54.2890,-0.025,-0.512,-0.907,-2.29,-0.6,1.68,1.29,1.27,0.17
2022-02-06 21:38:54.2990,-0.037,-0.517,-0.89,-2.04,-0.82,1.5,1.29,1.27,0.17
2022-02-06 21:38:54.3090,-0.051,-0.526,-0.887,-1.8,-0.96,1.35,1.13,1.7,0.34
2022-02-06 21:38:54.3190,-0.065,-0.536,-0.885,-1.59,-0.98,1.25,1.05,1.85,0.43
2022-02-06 21:38:54.3290,-0.074,-0.544,-0.86,-1.33,-0.98,1.29,1.0,1.99,0.5
2022-02-06 21:38:54.3390,-0.078,-0.547,-0.826,-0.91,-0.94,0.99,1.0,2.12,0.53
2022-02-06 21:38:54.3490,-0.08,-0.547,-0.798,-0.91,-0.94,0.99,1.01,2.21,0.53
2022-02-06 21:38:54.3590,-0.082,-0.549,-0.77,-0.76,-0.99,0.7,1.02,2.25,0.52
2022-02-06 21:38:54.3690,-0.081,-0.552,-0.75,-0.46,-1.09,0.23,1.02,2.25,0.52
2022-02-06 21:38:54.3790,-0.081,-0.557,-0.74,-0.34,-1.13,0.11,0.92,2.09,0.5
2022-02-06 21:38:54.3890,-0.08,-0.569,-0.721,-0.34,-1.13,0.11,0.84,1.93,0.49
2022-02-06 21:38:54.3990,-0.077,-0.583,-0.696,-0.23,-1.12,0.04,0.75,1.78,0.47
2022-02-06 21:38:54.4090,-0.072,-0.587,-0.668,-0.07,-0.97,-0.35,0.67,1.65,0.45
2022-02-06 21:38:54.4190,-0.07,-0.579,-0.643,-0.07,-0.97,-0.35,0.61,1.55,0.41
2022-02-06 21:38:54.4290,-0.067,-0.571,-0.609,-0.03,-1.01,-0.59,0.59,1.49,0.38
2022-02-06 21:38:54.4390,-0.061,-0.564,-0.571,0.03,-1.14,-0.82,0.58,1.48,0.35
2022-02-06 21:38:54.4490,-0.051,-0.558,-0.541,0.09,-1.35,-1.47,0.57,1.48,0.33
2022-02-06 21:38:54.4590,-0.042,-0.551,-0.521,0.09,-1.35,-1.47,0.57,1.48,0.33
2022-02-06 21:38:54.4690,-0.038,-0.552,-0.515,0.07,-1.46,-1.71,0.5,1.4,0.36
2022-02-06 21:38:54.4800,-0.034,-0.56,-0.516,0.07,-1.56,-1.84,0.44,1.33,0.39
2022-02-06 21:38:54.4890,-0.032,-0.561,-0.513,0.13,-1.51,-1.81,0.39,1.28,0.42
2022-02-06 21:38:54.4990,-0.038,-0.551,-0.513,0.18,-1.55,-1.82,0.34,1.25,0.42
2022-02-06 21:38:54.5090,-0.043,-0.534,-0.514,0.31,-1.7,-1.79,0.3,1.24,0.41
2022-02-06 21:38:54.5190,-0.04,-0.527,-0.506,0.4,-1.87,-1.77,0.25,1.25,0.4
2022-02-06 21:38:54.5300,-0.036,-0.535,-0.501,0.42,-1.92,-1.84,0.21,1.24,0.39
2022-02-06 21:38:54.5400,-0.034,-0.542,-0.505,0.42,-1.92,-1.84,0.16,1.19,0.42
2022-02-06 21:38:54.5490,-0.034,-0.559,-0.524,0.47,-1.77,-1.77,0.09,1.08,0.46
2022-02-06 21:38:54.5600,-0.046,-0.58,-0.556,0.53,-1.59,-1.54,0.02,0.94,0.5
2022-02-06 21:38:54.5700,-0.065,-0.59,-0.577,0.53,-1.59,-1.54,-0.04,0.8,0.51
2022-02-06 21:38:54.5800,-0.083,-0.598,-0.588,0.71,-1.41,-1.23,-0.1,0.69,0.51
2022-02-06 21:38:54.5900,-0.093,-0.604,-0.595,0.92,-1.32,-1.06,-0.1,0.69,0.51
2022-02-06 21:38:54.6000,-0.106,-0.593,-0.59,1.09,-1.22,-0.96,-0.23,0.56,0.36
2022-02-06 21:38:54.6100,-0.11,-0.573,-0.588,1.19,-1.19,-0.94,-0.3,0.5,0.21
2022-02-06 21:38:54.6200,-0.151,-0.54,-0.617,1.32,-1.33,-1.0,-0.37,0.45,0.03
2022-02-06 21:38:54.6300,-0.131,-0.567,-0.618,1.84,-1.78,-0.74,-0.48,0.37,-0.04
2022-02-06 21:38:54.6400,-0.101,-0.654,-0.665,1.84,-1.78,-0.74,-0.48,0.37,-0.04
2022-02-06 21:38:54.6500,-0.119,-0.708,-0.741,1.5,-1.25,-0.75,-0.8,0.08,0.15
2022-02-06 21:38:54.6600,-0.16,-0.696,-0.761,1.34,-0.38,-0.17,-0.8,0.08,0.15
2022-02-06 21:38:54.6700,-0.189,-0.639,-0.778,2.0,-0.15,0.46,-0.87,0.09,0.25
2022-02-06 21:38:54.6800,-0.208,-0.594,-0.805,2.23,-0.66,0.64,-0.75,0.22,0.23
2022-02-06 21:38:54.6980,-0.222,-0.567,-0.789,2.4,-0.98,0.77,-0.55,0.46,0.19
2022-02-06 21:38:54.7000,-0.22,-0.549,-0.757,2.4,-0.98,0.77,-0.32,0.73,0.17
2022-02-06 21:38:54.7100,-0.188,-0.547,-0.742,2.49,-1.31,0.18,-0.13,0.9,0.18
2022-02-06 21:38:54.7200,-0.133,-0.574,-0.769,2.49,-1.31,0.18,-0.01,0.82,0.25
2022-02-06 21:38:54.7300,-0.087,-0.624,-0.82,2.15,-1.26,0.1,0.03,0.53,0.4
2022-02-06 21:38:54.7400,-0.074,-0.662,-0.85,1.65,-0.91,0.47,0.05,0.13,0.56
2022-02-06 21:38:54.7500,-0.073,-0.685,-0.86,1.19,-0.1,1.19,0.07,-0.28,0.66
2022-02-06 21:38:54.7610,-0.077,-0.692,-0.862,1.12,0.08,1.25,0.1,-0.64,0.68
2022-02-06 21:38:54.7700,-0.103,-0.685,-0.869,1.11,0.1,1.27,0.12,-0.95,0.61
2022-02-06 21:38:54.7810,-0.134,-0.677,-0.875,1.3,0.0,1.37,0.11,-1.18,0.47
2022-02-06 21:38:54.7910,-0.162,-0.665,-0.861,1.48,-0.08,1.38,0.07,-1.32,0.28
2022-02-06 21:38:54.8000,-0.183,-0.655,-0.849,1.48,-0.08,1.38,-0.03,-1.36,0.06
2022-02-06 21:38:54.8100,-0.192,-0.657,-0.832,1.71,-0.28,1.12,-0.17,-1.31,-0.15
2022-02-06 21:38:54.8200,-0.185,-0.664,-0.807,1.67,-0.23,0.93,-0.34,-1.16,-0.34
2022-02-06 21:38:54.8310,-0.16,-0.67,-0.767,1.49,-0.13,0.64,-0.54,-0.88,-0.48
2022-02-06 21:38:54.8410,-0.137,-0.669,-0.732,1.2,-0.05,0.17,-0.77,-0.59,-0.57
2022-02-06 21:38:54.8510,-0.1,-0.663,-0.733,0.95,-0.03,-0.12,-1.02,-0.33,-0.6
2022-02-06 21:38:54.8610,-0.059,-0.657,-0.74,0.56,-0.01,-0.15,-1.24,-0.14,-0.57
2022-02-06 21:38:54.8710,-0.028,-0.648,-0.757,0.56,-0.01,-0.15,-1.42,-0.05,-0.5
2022-02-06 21:38:54.8810,-0.005,-0.638,-0.79,-0.04,0.02,-0.02,-1.54,-0.03,-0.41
2022-02-06 21:38:54.8910,0.005,-0.633,-0.829,-0.22,0.05,0.23,-1.58,-0.06,-0.3
2022-02-06 21:38:54.9010,0.004,-0.622,-0.861,-0.26,0.12,0.52,-1.53,-0.13,-0.2
2022-02-06 21:38:54.9130,0.004,-0.603,-0.878,-0.25,0.11,0.69,-1.4,-0.22,-0.11
2022-02-06 21:38:54.9230,-0.003,-0.591,-0.891,-0.25,0.03,0.76,-1.2,-0.36,-0.0
2022-02-06 21:38:54.9330,-0.013,-0.583,-0.896,-0.2,0.04,0.81,-0.96,-0.54,0.1
2022-02-06 21:38:54.9430,-0.02,-0.565,-0.895,-0.14,0.02,0.77,-0.71,-0.74,0.18
2022-02-06 21:38:54.9530,-0.024,-0.545,-0.89,-0.16,-0.11,0.71,-0.48,-0.97,0.23
2022-02-06 21:38:54.9630,-0.029,-0.54,-0.889,-0.21,-0.24,0.64,-0.28,-1.16,0.24
2022-02-06 21:38:54.9730,-0.035,-0.534,-0.867,-0.27,-0.23,0.6,-0.13,-1.24,0.22
2022-02-06 21:38:54.9830,-0.04,-0.523,-0.82,-0.31,-0.3,0.3,-0.02,-1.2,0.18
2022-02-06 21:38:54.9930,-0.044,-0.518,-0.78,-0.38,-0.39,-0.16,0.03,-1.06,0.15
2022-02-06 21:38:55.0030,-0.047,-0.517,-0.75,-0.43,-0.42,-0.5,0.03,-0.89,0.16
2022-02-06 21:38:55.0130,-0.044,-0.521,-0.725,-0.5,-0.43,-0.78,-0.02,-0.7,0.19
2022-02-06 21:38:55.0230,-0.04,-0.532,-0.71,-0.62,-0.38,-1.0,-0.08,-0.5,0.23
2022-02-06 21:38:55.0330,-0.036,-0.548,-0.706,-0.7,-0.23,-1.12,-0.12,-0.3,0.25
2022-02-06 21:38:55.0430,-0.03,-0.55,-0.701,-0.78,-0.08,-1.15,-0.13,-0.11,0.22
2022-02-06 21:38:55.0530,-0.018,-0.552,-0.698,-0.87,-0.07,-1.22,-0.1,0.07,0.15
2022-02-06 21:38:55.0630,-0.003,-0.562,-0.698,-1.02,-0.02,-1.23,-0.05,0.25,0.08
2022-02-06 21:38:55.0730,0.014,-0.577,-0.681,-1.15,0.1,-1.26,0.06,0.46,0.05
2022-02-06 21:38:55.0830,0.03,-0.599,-0.652,-1.29,0.26,-1.48,0.2,0.65,0.05
2022-02-06 21:38:55.0940,0.041,-0.623,-0.65,-1.39,0.48,-1.74,0.32,0.7,0.1
2022-02-06 21:38:55.1030,0.051,-0.633,-0.683,-1.44,0.67,-1.65,0.42,0.58,0.16
2022-02-06 21:38:55.1130,0.053,-0.621,-0.731,-1.48,0.69,-1.25,0.47,0.26,0.2
2022-02-06 21:38:55.1230,0.048,-0.609,-0.792,-1.47,0.5,-0.73,0.46,-0.2,0.22
2022-02-06 21:38:55.1340,0.05,-0.612,-0.85,-1.44,0.39,-0.09,0.41,-0.66,0.18
2022-02-06 21:38:55.1440,0.064,-0.615,-0.873,-1.56,0.41,0.45,0.35,-0.97,0.07
2022-02-06 21:38:55.1540,0.077,-0.608,-0.882,-1.78,0.39,0.62,0.3,-1.08,-0.09
2022-02-06 21:38:55.1640,0.073,-0.582,-0.894,-1.97,0.26,0.76,0.25,-0.95,-0.25
2022-02-06 21:38:55.1740,0.062,-0.541,-0.897,-1.94,-0.07,0.86,0.19,-0.65,-0.37
2022-02-06 21:38:55.1840,0.063,-0.514,-0.921,-1.9,-0.48,0.95,0.12,-0.27,-0.39
2022-02-06 21:38:55.1940,0.065,-0.51,-0.972,-1.92,-0.7,1.26,0.03,0.09,-0.33
2022-02-06 21:38:55.2040,0.084,-0.518,-1.049,-1.94,-0.71,1.83,-0.04,0.37,-0.21
2022-02-06 21:38:55.2140,0.096,-0.531,-1.124,-2.12,-0.6,2.61,-0.07,0.58,-0.07
2022-02-06 21:38:55.2240,0.08,-0.526,-1.185,-2.11,-0.49,3.29,-0.03,0.73,0.03
2022-02-06 21:38:55.2340,0.041,-0.496,-1.242,-1.84,-0.61,3.86,0.07,0.84,0.12
2022-02-06 21:38:55.2440,-0.005,-0.465,-1.282,-1.37,-0.93,4.39,0.19,0.91,0.17
2022-02-06 21:38:55.2540,-0.048,-0.442,-1.31,-0.85,-1.23,4.74,0.31,0.95,0.19
2022-02-06 21:38:55.2640,-0.076,-0.431,-1.323,-0.39,-1.44,5.0,0.42,0.96,0.19
2022-02-06 21:38:55.2740,-0.092,-0.425,-1.318,-0.09,-1.56,5.09,0.49,0.95,0.14
2022-02-06 21:38:55.2840,-0.101,-0.424,-1.303,0.12,-1.64,5.03,0.52,0.94,0.07
2022-02-06 21:38:55.2940,-0.102,-0.427,-1.278,0.25,-1.68,4.88,0.5,0.98,-0.0
2022-02-06 21:38:55.3040,-0.098,-0.436,-1.241,0.32,-1.68,4.63,0.43,1.08,-0.04
2022-02-06 21:38:55.3140,-0.095,-0.442,-1.209,0.36,-1.62,4.28,0.34,1.21,-0.05
2022-02-06 21:38:55.3240,-0.093,-0.441,-1.178,0.44,-1.61,3.99,0.24,1.37,-0.04
2022-02-06 21:38:55.3340,-0.088,-0.435,-1.147,0.52,-1.65,3.68,0.16,1.5,-0.03
2022-02-06 21:38:55.3440,-0.086,-0.428,-1.126,0.59,-1.73,3.41,0.12,1.58,-0.02
2022-02-06 21:38:55.3540,-0.088,-0.424,-1.114,0.7,-1.8,3.23,0.11,1.6,0.0
2022-02-06 21:38:55.3640,-0.089,-0.42,-1.096,0.85,-1.84,3.11,0.14,1.57,0.02
2022-02-06 21:38:55.3740,-0.089,-0.412,-1.082,0.98,-1.9,2.94,0.21,1.47,0.03
2022-02-06 21:38:55.3840,-0.091,-0.405,-1.064,1.09,-2.0,2.83,0.3,1.34,0.06
2022-02-06 21:38:55.3950,-0.093,-0.404,-1.032,1.22,-2.06,2.63,0.41,1.2,0.1
2022-02-06 21:38:55.4040,-0.095,-0.401,-0.994,1.32,-2.11,2.32,0.41,1.2,0.1
2022-02-06 21:38:55.4140,-0.099,-0.4,-0.953,1.42,-2.18,1.99,0.63,0.96,0.23
2022-02-06 21:38:55.4250,-0.104,-0.405,-0.908,1.53,-2.22,1.61,0.73,0.88,0.29
2022-02-06 21:38:55.4350,-0.106,-0.413,-0.867,1.61,-2.22,1.22,0.81,0.79,0.34
2022-02-06 21:38:55.4450,-0.11,-0.423,-0.835,1.68,-2.2,0.89,0.86,0.7,0.38
2022-02-06 21:38:55.4550,-0.115,-0.446,-0.81,1.8233983603119852,-1.96,0.48,0.88,0.6,0.41
2022-02-06 21:38:55.4720,-0.124,-0.469,-0.794,1.82,-1.96,0.48,0.89,0.5,0.41
2022-02-06 21:38:55.4820,-0.144,-0.475,-0.783,1.95,-1.84,0.41,0.89,0.41,0.4
2022-02-06 21:38:55.4910,-0.161,-0.478,-0.775,2.31,-1.9,0.34,0.89,0.33,0.35
2022-02-06 21:38:55.5020,-0.171,-0.486,-0.753,2.4,-1.88,0.15,0.9,0.29,0.29
2022-02-06 21:38:55.5120,-0.175,-0.499,-0.724,2.42,-1.79,-0.08,0.88,0.31,0.21
2022-02-06 21:38:55.5210,-0.167,-0.52,-0.698,2.42,-1.79,-0.08,0.83,0.35,0.11
2022-02-06 21:38:55.5320,-0.146,-0.548,-0.675,2.12,-1.39,-0.42,0.73,0.37,0.01
2022-02-06 21:38:55.5420,-0.12,-0.584,-0.658,1.88,-1.06,-0.54,0.59,0.38,-0.08
2022-02-06 21:38:55.5520,-0.094,-0.62,-0.642,1.88,-1.06,-0.54,0.43,0.36,-0.15
2022-02-06 21:38:55.5620,-0.078,-0.64,-0.628,1.68,-0.77,-0.66,0.28,0.34,-0.2
2022-02-06 21:38:55.5710,-0.068,-0.647,-0.609,1.59,-0.63,-0.78,0.15,0.31,-0.25
2022-02-06 21:38:55.5820,-0.058,-0.648,-0.598,1.46,-0.59,-1.01,0.03,0.25,-0.29
2022-02-06 21:38:55.5920,-0.046,-0.648,-0.602,1.46,-0.59,-1.01,0.03,0.25,-0.29
2022-02-06 21:38:55.6020,-0.032,-0.658,-0.613,1.37,-0.55,-0.97,-0.2,0.01,-0.34
2022-02-06 21:38:55.6120,-0.02,-0.662,-0.642,1.15,-0.38,-0.55,-0.31,-0.2,-0.36
2022-02-06 21:38:55.6220,-0.007,-0.666,-0.673,1.15,-0.38,-0.55,-0.37,-0.42,-0.39
2022-02-06 21:38:55.6320,0.007,-0.667,-0.697,1.03,-0.32,-0.29,-0.39,-0.62,-0.44
2022-02-06 21:38:55.6420,0.023,-0.659,-0.719,0.87,-0.29,-0.09,-0.38,-0.77,-0.49
2022-02-06 21:38:55.6520,0.037,-0.645,-0.719,0.54,-0.47,-0.04,-0.35,-0.8,-0.54
2022-02-06 21:38:55.6620,0.053,-0.631,-0.699,0.54,-0.47,-0.04,-0.34,-0.67,-0.57
2022-02-06 21:38:55.6720,0.069,-0.618,-0.669,0.37,-0.57,-0.3,-0.36,-0.41,-0.56
2022-02-06 21:38:55.6820,0.09,-0.614,-0.646,0.22,-0.66,-0.62,-0.42,-0.07,-0.5
2022-02-06 21:38:55.6920,0.113,-0.609,-0.624,0.02,-0.64,-0.86,-0.5,0.28,-0.41
2022-02-06 21:38:55.7020,0.14,-0.602,-0.62,-0.17,-0.67,-1.09,-0.6,0.57,-0.28
2022-02-06 21:38:55.7130,0.167,-0.607,-0.637,-0.37,-0.67,-1.11,-0.65,0.74,-0.12
2022-02-06 21:38:55.7220,0.196,-0.615,-0.669,-0.59,-0.55,-0.93,-0.67,0.74,0.04
2022-02-06 21:38:55.7330,0.207,-0.625,-0.708,-0.79,-0.42,-0.62,-0.63,0.63,0.21
2022-02-06 21:38:55.7430,0.204,-0.631,-0.736,-0.82,-0.28,-0.29,-0.63,0.63,0.21
2022-02-06 21:38:55.7520,0.186,-0.625,-0.757,-0.54,-0.28,0.1,-0.32,0.26,0.5
2022-02-06 21:38:55.7630,0.16,-0.609,-0.769,-0.54,-0.28,0.1,-0.09,0.05,0.58
2022-02-06 21:38:55.7730,0.144,-0.601,-0.775,-0.26,-0.49,0.24,0.14,-0.15,0.61
2022-02-06 21:38:55.7830,0.134,-0.604,-0.773,-0.26,-0.49,0.24,0.14,-0.15,0.61
2022-02-06 21:38:55.7920,0.118,-0.604,-0.763,-0.21,-0.48,0.21,0.43,-0.41,0.57
2022-02-06 21:38:55.8020,0.101,-0.597,-0.748,-0.12,-0.54,0.12,0.43,-0.47,0.5
2022-02-06 21:38:55.8120,0.082,-0.591,-0.738,-0.01,-0.65,-0.01,0.36,-0.47,0.42
2022-02-06 21:38:55.8230,0.07,-0.583,-0.729,0.11,-0.73,-0.07,0.23,-0.42,0.33
2022-02-06 21:38:55.8330,0.064,-0.572,-0.726,0.15,-0.84,-0.14,0.07,-0.32,0.25
2022-02-06 21:38:55.8430,0.057,-0.559,-0.725,0.21,-1.08,-0.17,-0.09,-0.16,0.2
2022-02-06 21:38:55.8530,0.047,-0.546,-0.724,0.32,-1.21,-0.18,-0.22,0.04,0.19
2022-02-06 21:38:55.8630,0.033,-0.529,-0.733,0.32,-1.21,-0.18,-0.3,0.25,0.2
2022-02-06 21:38:55.8730,0.02,-0.511,-0.751,0.45,-1.36,-0.09,-0.35,0.43,0.23
2022-02-06 21:38:55.8830,0.011,-0.497,-0.766,0.59,-1.51,0.07,-0.39,0.54,0.29
2022-02-06 21:38:55.8930,0.007,-0.487,-0.785,0.74,-1.67,0.38,-0.4,0.58,0.35
2022-02-06 21:38:55.9030,0.003,-0.477,-0.805,0.79,-1.74,0.52,-0.39,0.54,0.41
2022-02-06 21:38:55.9130,0.004,-0.469,-0.807,0.77,-1.78,0.47,-0.38,0.47,0.45
2022-02-06 21:38:55.9230,0.008,-0.466,-0.797,0.77,-1.78,0.47,-0.38,0.39,0.49
2022-02-06 21:38:55.9330,0.01,-0.474,-0.788,0.73,-1.76,0.35,-0.38,0.31,0.53
2022-02-06 21:38:55.9440,0.008,-0.477,-0.774,0.7,-1.65,0.24,-0.4,0.24,0.58
2022-02-06 21:38:55.9530,-0.002,-0.471,-0.755,0.73,-1.62,0.05,-0.43,0.21,0.64
2022-02-06 21:38:55.9630,-0.011,-0.467,-0.728,0.81,-1.66,-0.17,-0.46,0.24,0.7
2022-02-06 21:38:55.9730,-0.018,-0.472,-0.695,0.9,-1.55,-0.86,-0.47,0.35,0.8
2022-02-06 21:38:55.9840,-0.022,-0.486,-0.653,0.92,-1.37,-1.27,-0.46,0.46,0.92
2022-02-06 21:38:55.9930,-0.032,-0.498,-0.643,1.02,-1.24,-1.29,-0.46,0.49,1.04
2022-02-06 21:38:56.0030,-0.052,-0.512,-0.657,1.02,-1.24,-1.29,-0.47,0.43,1.17
2022-02-06 21:38:56.0130,-0.073,-0.543,-0.668,1.36,-0.65,-1.09,-0.49,0.3,1.29
2022-02-06 21:38:56.0240,-0.101,-0.586,-0.683,1.36,-0.65,-1.09,-0.48,0.14,1.38
2022-02-06 21:38:56.0340,-0.12,-0.624,-0.7,1.61,0.16,-0.81,-0.43,-0.08,1.39
2022-02-06 21:38:56.0440,-0.13,-0.638,-0.73,1.61,0.16,-0.81,-0.36,-0.32,1.31
2022-02-06 21:38:56.0530,-0.149,-0.639,-0.752,1.72,0.29,-0.37,-0.31,-0.58,1.17
2022-02-06 21:38:56.0640,-0.175,-0.636,-0.77,1.72,0.29,-0.37,-0.3,-0.85,0.99
2022-02-06 21:38:56.0730,-0.194,-0.629,-0.782,1.86,0.25,-0.14,-0.37,-1.13,0.78
2022-02-06 21:38:56.0840,-0.197,-0.637,-0.789,1.86,0.25,-0.14,-0.54,-1.39,0.57
2022-02-06 21:38:56.0940,-0.193,-0.658,-0.803,1.72,0.42,-0.08,-0.76,-1.6,0.36
2022-02-06 21:38:56.1040,-0.193,-0.68,-0.81,1.41,0.95,0.01,-0.99,-1.67,0.17
2022-02-06 21:38:56.1140,-0.205,-0.679,-0.813,1.44,0.99,-0.02,-1.18,-1.57,-0.0
2022-02-06 21:38:56.1240,-0.226,-0.664,-0.818,1.44,0.99,-0.02,-1.3,-1.34,-0.14
2022-02-06 21:38:56.1340,-0.243,-0.647,-0.827,1.54,0.92,-0.03,-1.33,-1.03,-0.23
2022-02-06 21:38:56.1440,-0.256,-0.634,-0.837,1.69,0.87,0.03,-1.29,-0.7,-0.29
2022-02-06 21:38:56.1530,-0.26,-0.625,-0.85,1.69,0.87,0.03,-1.29,-0.7,-0.29
2022-02-06 21:38:56.1640,-0.249,-0.627,-0.872,1.66,0.89,0.12,-1.03,-0.33,-0.34
2022-02-06 21:38:56.1740,-0.218,-0.644,-0.882,1.5,1.03,0.29,-0.83,-0.32,-0.39
2022-02-06 21:38:56.1840,-0.178,-0.667,-0.887,0.76,1.57,0.34,-0.65,-0.43,-0.46
2022-02-06 21:38:56.1940,-0.147,-0.686,-0.899,0.44,1.78,0.43,-0.51,-0.67,-0.52
2022-02-06 21:38:56.2040,-0.122,-0.695,-0.902,0.44,1.78,0.43,-0.42,-0.94,-0.56
2022-02-06 21:38:56.2140,-0.109,-0.695,-0.894,0.18,1.88,0.41,-0.36,-1.17,-0.6
2022-02-06 21:38:56.2240,-0.103,-0.687,-0.874,0.0,1.89,0.29,-0.32,-1.31,-0.63
2022-02-06 21:38:56.2340,-0.099,-0.669,-0.858,-0.25,1.63,-0.06,-0.26,-1.36,-0.66
2022-02-06 21:38:56.2440,-0.096,-0.648,-0.838,-0.25,1.63,-0.06,-0.21,-1.32,-0.7
2022-02-06 21:38:56.2540,-0.092,-0.633,-0.82,-0.36,1.44,-0.25,-0.18,-1.22,-0.72
2022-02-06 21:38:56.2650,-0.083,-0.629,-0.806,-0.48,1.32,-0.41,-0.18,-1.13,-0.73
2022-02-06 21:38:56.2750,-0.065,-0.635,-0.796,-0.89,1.4,-0.61,-0.2,-1.03,-0.74
2022-02-06 21:38:56.2840,-0.04,-0.642,-0.801,-0.89,1.4,-0.61,-0.23,-0.99,-0.75
2022-02-06 21:38:56.2940,-0.02,-0.647,-0.818,-1.41,1.52,-0.33,-0.26,-0.99,-0.79
2022-02-06 21:38:56.3040,-0.007,-0.645,-0.831,-1.57,1.5,-0.21,-0.26,-1.02,-0.84
2022-02-06 21:38:56.3140,-0.001,-0.642,-0.842,-1.57,1.5,-0.21,-0.26,-1.04,-0.92
2022-02-06 21:38:56.3240,0.003,-0.64,-0.846,-1.75,1.47,-0.08,-0.24,-1.06,-0.97
2022-02-06 21:38:56.3350,0.009,-0.642,-0.852,-1.85,1.51,-0.01,-0.22,-1.05,-1.02
2022-02-06 21:38:56.3450,0.019,-0.647,-0.855,-1.85,1.51,-0.01,-0.2,-1.01,-1.03
2022-02-06 21:38:56.3540,0.03,-0.647,-0.857,-1.99,1.55,0.01,-0.2,-0.92,-1.02
2022-02-06 21:38:56.3640,0.04,-0.651,-0.856,-2.13,1.55,0.04,-0.13,-0.79,-0.99
2022-02-06 21:38:56.3750,0.048,-0.651,-0.855,-2.24,1.58,0.03,-0.1,-0.65,-0.96
2022-02-06 21:38:56.3850,0.059,-0.647,-0.86,-2.33,1.55,0.04,-0.07,-0.52,-0.93
2022-02-06 21:38:56.3950,0.074,-0.655,-0.863,-2.45,1.53,0.1,-0.04,-0.42,-0.93
2022-02-06 21:38:56.4050,0.089,-0.663,-0.869,-2.6,1.61,0.13,-0.04,-0.42,-0.93
2022-02-06 21:38:56.4150,0.106,-0.674,-0.879,-2.73,1.68,0.22,-0.02,-0.34,-0.97
2022-02-06 21:38:56.4250,0.124,-0.684,-0.882,-2.88,1.77,0.3,-0.0,-0.33,-0.98
2022-02-06 21:38:56.4350,0.139,-0.688,-0.88,-3.03,1.85,0.32,0.03,-0.34,-0.97
2022-02-06 21:38:56.4450,0.152,-0.682,-0.877,-3.16,1.84,0.3,0.1,-0.34,-0.95
2022-02-06 21:38:56.4550,0.161,-0.673,-0.874,-3.32,1.63,0.26,0.2,-0.34,-0.89
2022-02-06 21:38:56.4650,0.168,-0.668,-0.861,-3.32,1.63,0.26,0.2,-0.34,-0.89
2022-02-06 21:38:56.4760,0.167,-0.662,-0.839,-3.36,1.55,0.11,0.48,-0.25,-0.73
2022-02-06 21:38:56.4850,0.158,-0.653,-0.84,-3.31,1.43,-0.04,0.58,-0.25,-0.68
2022-02-06 21:38:56.4960,0.152,-0.66,-0.841,-3.2,1.3,0.03,0.65,-0.29,-0.66
2022-02-06 21:38:56.5060,0.154,-0.676,-0.857,-3.16,1.35,0.08,0.66,-0.39,-0.68
2022-02-06 21:38:56.5150,0.16,-0.679,-0.876,-3.25,1.37,0.53,0.61,-0.55,-0.72
2022-02-06 21:38:56.5260,0.163,-0.679,-0.891,-3.25,1.37,0.53,0.49,-0.66,-0.75
2022-02-06 21:38:56.5350,0.161,-0.695,-0.891,-3.29,1.35,0.7,0.35,-0.65,-0.71
2022-02-06 21:38:56.5450,0.146,-0.7,-0.868,-3.25,1.48,0.66,0.24,-0.46,-0.64
2022-02-06 21:38:56.5550,0.128,-0.684,-0.84,-3.09,1.43,0.44,0.19,-0.12,-0.55
2022-02-06 21:38:56.5660,0.11,-0.671,-0.809,-2.89,1.24,0.16,0.2,0.3,-0.44
2022-02-06 21:38:56.5760,0.103,-0.665,-0.784,-2.69,1.1,-0.13,0.22,0.7,-0.29
2022-02-06 21:38:56.5860,0.105,-0.673,-0.772,-2.53,1.16,-0.44,0.23,1.0,-0.14
2022-02-06 21:38:56.5960,0.117,-0.699,-0.769,-2.53,1.16,-0.44,0.23,1.14,0.01
2022-02-06 21:38:56.6050,0.131,-0.727,-0.77,-2.58,1.42,-0.46,0.23,1.12,0.12
2022-02-06 21:38:56.6160,0.142,-0.749,-0.783,-2.65,1.84,-0.3,0.27,0.99,0.17
2022-02-06 21:38:56.6260,0.151,-0.761,-0.78,-2.65,1.84,-0.3,0.33,0.8,0.17
2022-02-06 21:38:56.6350,0.166,-0.777,-0.774,-2.79,2.07,-0.42,0.41,0.6,0.17
2022-02-06 21:38:56.6460,0.169,-0.789,-0.757,-2.76,2.12,-0.6,0.49,0.43,0.18
2022-02-06 21:38:56.6560,0.16,-0.788,-0.733,-2.76,2.12,-0.6,0.53,0.31,0.24
2022-02-06 21:38:56.6650,0.139,-0.78,-0.711,-2.62,2.04,-0.8,0.56,0.29,0.35
2022-02-06 21:38:56.6760,0.12,-0.776,-0.688,-2.42,1.93,-1.0,0.56,0.29,0.35
2022-02-06 21:38:56.6860,0.099,-0.776,-0.678,-2.0076587435603144,1.838810158967972,-1.21,0.58,0.35,0.57
2022-02-06 21:38:56.6960,0.074,-0.778,-0.674,-2.01,1.83,-1.21,0.61,0.39,0.63
2022-02-06 21:38:56.7060,0.049,-0.779,-0.678,-1.55,1.78,-1.13,0.66,0.42,0.64
2022-02-06 21:38:56.7160,0.033,-0.784,-0.678,-1.55,1.78,-1.13,0.73,0.44,0.61
2022-02-06 21:38:56.7260,0.027,-0.795,-0.674,-1.38,1.87,-1.11,0.78,0.43,0.54
2022-02-06 21:38:56.7360,0.028,-0.811,-0.671,-1.38,1.87,-1.11,0.78,0.43,0.54
2022-02-06 21:38:56.7460,0.037,-0.831,-0.663,-1.41,1.98,-1.11,0.8,0.41,0.47
2022-02-06 21:38:56.7560,0.047,-0.848,-0.66,-1.59,2.23,-1.12,0.73,0.31,0.33
2022-02-06 21:38:56.7660,0.053,-0.866,-0.66,-1.64,2.36,-1.09,0.65,0.27,0.28
2022-02-06 21:38:56.7770,0.058,-0.88,-0.659,-1.69,2.45,-1.04,0.56,0.25,0.22
2022-02-06 21:38:56.7860,0.066,-0.891,-0.669,-1.69,2.45,-1.04,0.47,0.24,0.18
2022-02-06 21:38:56.7960,0.072,-0.906,-0.679,-1.81,2.64,-0.8,0.4,0.26,0.14
2022-02-06 21:38:56.8060,0.08,-0.915,-0.686,-1.81,2.64,-0.8,0.36,0.32,0.11
2022-02-06 21:38:56.8160,0.087,-0.912,-0.698,-1.92,2.59,-0.57,0.35,0.41,0.08
2022-02-06 21:38:56.8270,0.095,-0.9,-0.7,-1.92,2.59,-0.57,0.35,0.53,0.04
2022-02-06 21:38:56.8370,0.103,-0.892,-0.699,-2.0,2.36,-0.55,0.36,0.67,0.01
2022-02-06 21:38:56.8470,0.115,-0.888,-0.691,-2.07,2.31,-0.65,0.36,0.84,-0.02
2022-02-06 21:38:56.8560,0.134,-0.892,-0.677,-2.2,2.34,-0.75,0.35,0.99,-0.03
2022-02-06 21:38:56.8660,0.157,-0.903,-0.675,-2.2,2.34,-0.75,0.32,1.09,-0.02
2022-02-06 21:38:56.8770,0.183,-0.922,-0.678,-2.36,2.45,-0.73,0.27,1.11,0.01
2022-02-06 21:38:56.8870,0.2,-0.939,-0.691,-2.58,2.75,-0.51,0.22,1.06,0.05
2022-02-06 21:38:56.8960,0.204,-0.943,-0.722,-2.52,2.75,-0.17,0.17,0.93,0.07
2022-02-06 21:38:56.9060,0.198,-0.937,-0.751,-2.52,2.75,-0.17,0.15,0.79,0.06
2022-02-06 21:38:56.9170,0.189,-0.918,-0.765,-2.39,2.65,0.07,0.16,0.69,0.03
2022-02-06 21:38:56.9270,0.179,-0.889,-0.768,-2.25,2.43,0.2,0.18,0.66,-0.01
2022-02-06 21:38:56.9360,0.17,-0.851,-0.759,-2.11,2.11,0.2,0.18,0.66,-0.01
2022-02-06 21:38:56.9470,0.169,-0.814,-0.741,-1.93,1.35,-0.08,0.23,0.79,-0.04
2022-02-06 21:38:56.9570,0.177,-0.787,-0.725,-1.97,1.07,-0.2,0.21,0.89,-0.02
2022-02-06 21:38:56.9670,0.195,-0.757,-0.724,-1.97,1.07,-0.2,0.13,0.94,0.01
2022-02-06 21:38:56.9770,0.214,-0.738,-0.727,-2.19,0.65,-0.16,0.02,0.99,0.06
2022-02-06 21:38:56.9870,0.234,-0.739,-0.728,-2.19,0.65,-0.16,-0.08,1.04,0.11
2022-02-06 21:38:56.9970,0.256,-0.737,-0.728,-2.49,0.62,-0.16,-0.12,1.09,0.18
2022-02-06 21:38:57.0070,0.273,-0.715,-0.727,-2.49,0.62,-0.16,-0.08,1.13,0.24
2022-02-06 21:38:57.0160,0.285,-0.685,-0.733,-2.57,0.38,-0.15,0.02,1.14,0.31
2022-02-06 21:38:57.0270,0.293,-0.662,-0.735,-2.61,0.09,-0.09,0.16,1.12,0.4
2022-02-06 21:38:57.0370,0.299,-0.648,-0.727,-2.63,-0.11,-0.1,0.29,1.09,0.5
2022-02-06 21:38:57.0470,0.3,-0.637,-0.727,-2.63,-0.27,-0.14,0.29,1.09,0.5
2022-02-06 21:38:57.0570,0.303,-0.637,-0.719,-2.6,-0.38,-0.11,0.51,1.02,0.72
2022-02-06 21:38:57.0670,0.307,-0.642,-0.7,-2.62,-0.41,-0.33,0.51,1.02,0.72
2022-02-06 21:38:57.0780,0.306,-0.635,-0.685,-2.62,-0.41,-0.33,0.62,1.09,0.8
2022-02-06 21:38:57.0870,0.303,-0.62,-0.656,-2.5260135340690613,-0.74,-0.72,0.64,1.2,0.78
2022-02-06 21:38:57.0970,0.304,-0.61,-0.62,-2.49,-0.9,-1.03,0.64,1.36,0.75
2022-02-06 21:38:57.1070,0.303,-0.59,-0.583,-2.49,-0.9,-1.03,0.61,1.52,0.72
2022-02-06 21:38:57.1170,0.303,-0.561,-0.558,-2.43,-1.16,-1.32,0.61,1.52,0.72
2022-02-06 21:38:57.1280,0.298,-0.527,-0.555,-2.36,-1.51,-1.48,0.45,1.67,0.65
2022-02-06 21:38:57.1370,0.305,-0.512,-0.559,-2.3,-1.95,-1.37,0.33,1.66,0.63
2022-02-06 21:38:57.1480,0.331,-0.526,-0.557,-2.3,-1.95,-1.37,0.22,1.62,0.63
2022-02-06 21:38:57.1570,0.359,-0.536,-0.568,-2.5,-1.83,-1.33,0.14,1.58,0.62
2022-02-06 21:38:57.1680,0.388,-0.534,-0.568,-2.92,-1.82,-1.2,0.08,1.55,0.6
2022-02-06 21:38:57.1780,0.408,-0.521,-0.573,-2.92,-1.82,-1.2,0.07,1.56,0.58
2022-02-06 21:38:57.1880,0.422,-0.505,-0.574,-3.04,-1.97,-1.12,0.08,1.67,0.58
2022-02-06 21:38:57.1970,0.429,-0.495,-0.566,-3.08,-2.13,-1.12,0.09,1.86,0.63
2022-02-06 21:38:57.2080,0.438,-0.494,-0.565,-3.08,-2.24,-1.11,0.11,2.07,0.73
2022-02-06 21:38:57.2180,0.45,-0.491,-0.579,-3.08,-2.24,-1.11,0.1,2.23,0.85
2022-02-06 21:38:57.2280,0.463,-0.486,-0.592,-3.11,-2.29,-0.93,0.09,2.32,0.98
2022-02-06 21:38:57.2380,0.477,-0.482,-0.611,-3.21,-2.41,-0.51,0.06,2.32,1.09
2022-02-06 21:38:57.2480,0.481,-0.485,-0.634,-3.21,-2.41,-0.51,0.03,2.25,1.18
2022-02-06 21:38:57.2580,0.479,-0.493,-0.65,-3.08,-2.32,-0.08,-0.01,2.15,1.25
2022-02-06 21:38:57.2680,0.471,-0.503,-0.673,-2.96,-2.24,0.2,-0.06,2.03,1.3
2022-02-06 21:38:57.2790,0.466,-0.513,-0.7,-2.96,-2.24,0.2,-0.13,1.9,1.34
2022-02-06 21:38:57.2880,0.452,-0.526,-0.723,-2.88,-2.15,0.47,-0.23,1.75,1.39
2022-02-06 21:38:57.2980,0.438,-0.549,-0.757,-2.71,-2.01,0.74,-0.35,1.62,1.43
2022-02-06 21:38:57.3080,0.419,-0.563,-0.795,-2.36,-1.69,1.47,-0.49,1.51,1.46
2022-02-06 21:38:57.3180,0.385,-0.558,-0.842,-1.99,-1.74,1.9,-0.63,1.43,1.45
2022-02-06 21:38:57.3290,0.338,-0.548,-0.88,-1.54,-1.82,2.21,-0.75,1.47,1.43
2022-02-06 21:38:57.3380,0.3,-0.537,-0.903,-1.54,-1.82,2.21,-0.83,1.68,1.41
2022-02-06 21:38:57.3480,0.278,-0.522,-0.911,-0.99,-2.04,2.39,-0.84,2.02,1.38
2022-02-06 21:38:57.3590,0.268,-0.495,-0.913,-0.8654276776313782,-2.3,2.39,-0.81,2.4,1.36
2022-02-06 21:38:57.3680,0.276,-0.466,-0.91,-0.92,-2.53,2.32,-0.76,2.76,1.37
2022-02-06 21:38:57.3790,0.302,-0.448,-0.889,-0.92,-2.53,2.32,-0.74,3.04,1.45
2022-02-06 21:38:57.3880,0.333,-0.436,-0.87,-1.1,-2.67,2.09,-0.77,3.21,1.6
2022-02-06 21:38:57.3980,0.363,-0.428,-0.858,-1.51,-2.8,1.85,-0.83,3.25,1.79
2022-02-06 21:38:57.4090,0.394,-0.422,-0.857,-1.51,-2.8,1.85,-0.83,3.25,1.79
2022-02-06 21:38:57.4190,0.423,-0.404,-0.869,-1.96,-3.05,2.0,-1.05,2.92,2.13
2022-02-06 21:38:57.4290,0.433,-0.375,-0.889,-1.96,-3.05,2.0,-1.2,2.59,2.28
2022-02-06 21:38:57.4390,0.409,-0.34,-0.92,-1.68,-3.65,2.49,-1.37,2.24,2.43
2022-02-06 21:38:57.4480,0.369,-0.304,-0.956,-1.32,-3.94,2.76,-1.54,1.98,2.61
2022-02-06 21:38:57.4590,0.33,-0.273,-0.984,-1.02,-4.17,2.95,-1.7,1.86,2.81
2022-02-06 21:38:57.4690,0.301,-0.255,-1.01,-1.02,-4.17,2.95,-1.79,1.89,3.01
2022-02-06 21:38:57.4790,0.279,-0.236,-1.034,-0.83,-4.27,3.13,-1.79,1.89,3.01
2022-02-06 21:38:57.4890,0.266,-0.215,-1.053,-0.71,-4.4,3.26,-1.74,2.27,3.4
2022-02-06 21:38:57.4990,0.258,-0.2,-1.078,-0.67,-4.55,3.39,-1.64,2.5,3.57
2022-02-06 21:38:57.5090,0.261,-0.207,-1.103,-0.67,-4.61,3.57,-1.54,2.68,3.71
2022-02-06 21:38:57.5190,0.269,-0.225,-1.129,-0.9,-4.24,3.98,-1.45,2.78,3.79
2022-02-06 21:38:57.5290,0.272,-0.239,-1.151,-0.9,-4.24,3.98,-1.38,2.8,3.81
2022-02-06 21:38:57.5380,0.275,-0.258,-1.165,-0.96,-4.06,4.12,-1.32,2.73,3.79
2022-02-06 21:38:57.5490,0.28,-0.277,-1.175,-1.05,-3.84,4.22,-1.25,2.63,3.76
2022-02-06 21:38:57.5590,0.287,-0.289,-1.168,-1.15,-3.63,4.24,-1.18,2.54,3.73
2022-02-06 21:38:57.5690,0.296,-0.291,-1.148,-1.43,-3.47,3.84,-1.11,2.5,3.71
2022-02-06 21:38:57.5800,0.306,-0.286,-1.118,-1.43,-3.47,3.84,-1.06,2.55,3.73
2022-02-06 21:38:57.5890,0.306,-0.269,-1.086,-1.55,-3.53,3.52,-1.05,2.66,3.78
2022-02-06 21:38:57.5990,0.295,-0.243,-1.062,-1.56,-3.69,3.17,-1.09,2.82,3.87
2022-02-06 21:38:57.6090,0.282,-0.216,-1.056,-1.48,-3.94,2.96,-1.14,2.99,3.98
2022-02-06 21:38:57.6190,0.268,-0.192,-1.058,-1.38,-4.16,2.89,-1.19,3.15,4.1
2022-02-06 21:38:57.6290,0.26,-0.17,-1.074,-1.22,-4.53,3.05,-1.22,3.24,4.2
2022-02-06 21:38:57.6390,0.253,-0.152,-1.092,-1.22,-4.53,3.05,-1.22,3.26,4.27
2022-02-06 21:38:57.6490,0.245,-0.137,-1.103,-1.09,-4.77,3.25,-1.19,3.19,4.33
2022-02-06 21:38:57.6590,0.232,-0.12,-1.119,-0.98,-4.91,3.37,-1.14,3.06,4.37
2022-02-06 21:38:57.6690,0.211,-0.105,-1.121,-0.98,-4.91,3.37,-1.08,2.9,4.42
2022-02-06 21:38:57.6800,0.182,-0.091,-1.125,-0.79,-5.01,3.33,-1.02,2.74,4.46
2022-02-06 21:38:57.6890,0.15,-0.069,-1.13,-0.55,-5.14,3.36,-0.98,2.6,4.5
2022-02-06 21:38:57.6990,0.121,-0.041,-1.133,-0.11,-5.58,3.36,-0.95,2.55,4.55
2022-02-06 21:38:57.7090,0.097,-0.028,-1.138,0.05,-5.63,3.42,-0.93,2.52,4.61
2022-02-06 21:38:57.7190,0.071,-0.031,-1.158,0.05,-5.63,3.42,-0.93,2.52,4.61
2022-02-06 21:38:57.7290,0.044,-0.033,-1.18,0.22,-5.56,3.59,-0.91,2.49,4.74
2022-02-06 21:38:57.7390,0.012,-0.034,-1.203,0.42,-5.51,3.78,-0.88,2.43,4.76
2022-02-06 21:38:57.7500,-0.021,-0.031,-1.226,0.88,-5.47,4.17,-0.82,2.33,4.74
2022-02-06 21:38:57.7600,-0.052,-0.027,-1.249,0.88,-5.47,4.17,-0.73,2.23,4.66
2022-02-06 21:38:57.7690,-0.08,-0.024,-1.243,1.1,-5.48,4.33,-0.58,2.2,4.55
2022-02-06 21:38:57.7800,-0.099,-0.022,-1.211,1.27,-5.48,4.15,-0.42,2.23,4.44
2022-02-06 21:38:57.7900,-0.109,-0.036,-1.174,1.35,-5.46,3.8,-0.42,2.23,4.44
2022-02-06 21:38:57.8000,-0.116,-0.077,-1.143,1.35,-5.24,3.42,-0.14,2.3,4.37
2022-02-06 21:38:57.8100,-0.14,-0.126,-1.131,1.58,-4.33,3.08,-0.03,2.23,4.41
2022-02-06 21:38:57.8200,-0.162,-0.176,-1.122,1.58,-4.33,3.08,0.08,2.11,4.43
2022-02-06 21:38:57.8300,-0.181,-0.239,-1.098,1.69,-3.82,2.97,0.23,2.0,4.38
2022-02-06 21:38:57.8400,-0.203,-0.304,-1.08,1.81,-3.2,2.71,0.4,1.88,4.21
2022-02-06 21:38:57.8500,-0.214,-0.354,-1.071,1.91,-2.61,2.61,0.4,1.88,3.91
2022-02-06 21:38:57.8600,-0.211,-0.388,-1.055,1.77,-1.94,2.37,0.7,1.6,3.52
2022-02-06 21:38:57.8700,-0.199,-0.411,-1.019,1.77,-1.94,2.37,0.8,1.49,3.08
2022-02-06 21:38:57.8800,-0.172,-0.439,-0.973,1.2,-1.54,1.6,0.83,1.42,2.62
2022-02-06 21:38:57.8910,-0.136,-0.47,-0.924,1.2,-1.54,1.6,0.77,1.4,2.21
2022-02-06 21:38:57.9000,-0.104,-0.502,-0.889,0.83,-1.28,1.17,0.77,1.4,2.21
2022-02-06 21:38:57.9100,-0.088,-0.541,-0.881,0.42,-0.62,0.89,0.38,1.41,1.61
2022-02-06 21:38:57.9200,-0.082,-0.58,-0.867,0.42,-0.62,0.89,0.13,1.52,1.4
2022-02-06 21:38:57.9310,-0.093,-0.589,-0.857,0.62,-0.27,0.69,-0.11,1.66,1.23
2022-02-06 21:38:57.9410,-0.107,-0.579,-0.882,0.62,-0.27,0.69,-0.27,1.77,1.08
2022-02-06 21:38:57.9500,-0.111,-0.573,-0.927,0.8,-0.34,1.0,-0.31,1.84,0.97
2022-02-06 21:38:57.9600,-0.118,-0.566,-0.952,1.09,-0.43,1.58,-0.19,1.89,0.88
2022-02-06 21:38:57.9700,-0.126,-0.552,-0.969,1.09,-0.43,1.58,0.07,1.91,0.81
2022-02-06 21:38:57.9810,-0.127,-0.538,-0.956,1.26,-0.58,1.71,0.38,1.94,0.75
2022-02-06 21:38:57.9910,-0.113,-0.525,-0.919,1.34,-0.73,1.51,0.68,1.94,0.69
2022-02-06 21:38:58.0010,-0.085,-0.53,-0.893,1.28,-0.9,1.2,0.88,1.85,0.65
2022-02-06 21:38:58.0110,-0.055,-0.561,-0.869,1.09,-0.84,1.02,0.96,1.69,0.65
2022-02-06 21:38:58.0200,-0.036,-0.591,-0.845,0.81,-0.38,0.68,0.96,1.51,0.66
2022-02-06 21:38:58.0310,-0.023,-0.613,-0.818,0.77,-0.27,0.43,0.95,1.38,0.68
2022-02-06 21:38:58.0410,-0.02,-0.621,-0.776,0.81,-0.31,0.1,0.93,1.31,0.67
2022-02-06 21:38:58.0510,-0.021,-0.619,-0.749,0.88,-0.39,-0.06,0.91,1.26,0.64
2022-02-06 21:38:58.0610,-0.022,-0.62,-0.732,0.88,-0.39,-0.06,0.88,1.22,0.6
2022-02-06 21:38:58.0710,-0.018,-0.623,-0.717,0.93,-0.44,-0.16,0.83,1.17,0.55
2022-02-06 21:38:58.0810,-0.01,-0.623,-0.703,0.92,-0.48,-0.23,0.76,1.12,0.48
2022-02-06 21:38:58.0910,-0.0,-0.628,-0.69,0.88,-0.54,-0.31,0.64,1.06,0.43
2022-02-06 21:38:58.1000,0.004,-0.637,-0.683,0.85,-0.53,-0.37,0.49,0.98,0.39
2022-02-06 21:38:58.1110,0.002,-0.644,-0.683,0.93,-0.45,-0.34,0.32,0.89,0.36
2022-02-06 21:38:58.1210,-0.001,-0.64,-0.688,0.93,-0.45,-0.34,0.14,0.77,0.34
2022-02-06 21:38:58.1310,-0.007,-0.63,-0.7,1.0,-0.53,-0.26,-0.01,0.64,0.32
2022-02-06 21:38:58.1420,-0.008,-0.626,-0.705,1.08,-0.62,-0.14,-0.01,0.64,0.32
2022-02-06 21:38:58.1510,0.002,-0.63,-0.709,0.97,-0.57,-0.06,-0.14,0.46,0.3
2022-02-06 21:38:58.1610,0.014,-0.635,-0.715,0.97,-0.57,-0.06,-0.12,0.41,0.31
2022-02-06 21:38:58.1710,0.01,-0.63,-0.71,0.9,-0.53,-0.03,-0.02,0.4,0.31
2022-02-06 21:38:58.1810,0.005,-0.607,-0.701,0.97,-0.63,-0.1,0.08,0.38,0.31
2022-02-06 21:38:58.1920,0.009,-0.587,-0.699,1.0,-0.87,-0.16,0.17,0.4,0.28
2022-02-06 21:38:58.2010,0.025,-0.586,-0.675,0.95,-1.05,-0.2,0.21,0.45,0.23
2022-02-06 21:38:58.2110,0.044,-0.595,-0.651,0.62,-0.94,-0.64,0.19,0.5,0.18
2022-02-06 21:38:58.2210,0.057,-0.607,-0.631,0.55,-0.84,-0.83,0.12,0.53,0.15
2022-02-06 21:38:58.2310,0.063,-0.62,-0.618,0.51,-0.71,-0.9,0.02,0.5,0.11
2022-02-06 21:38:58.2420,0.069,-0.635,-0.62,0.51,-0.71,-0.9,-0.07,0.43,0.08
2022-02-06 21:38:58.2510,0.075,-0.657,-0.624,0.48,-0.55,-0.87,-0.11,0.33,0.07
2022-02-06 21:38:58.2610,0.075,-0.689,-0.635,0.45,-0.29,-0.82,-0.07,0.25,0.1
2022-02-06 21:38:58.2710,0.07,-0.709,-0.637,0.54,0.15,-0.73,0.04,0.24,0.12
2022-02-06 21:38:58.2820,0.057,-0.702,-0.628,0.54,0.15,-0.73,0.21,0.3,0.11
2022-02-06 21:38:58.2920,0.03,-0.695,-0.61,0.72,0.04,-0.83,0.35,0.41,0.1
2022-02-06 21:38:58.3020,0.002,-0.711,-0.599,1.02,0.17,-1.03,0.42,0.54,0.07
2022-02-06 21:38:58.3110,-0.017,-0.746,-0.594,1.51,0.52,-1.04,0.4,0.64,0.03
2022-02-06 21:38:58.3220,-0.022,-0.793,-0.597,1.51,0.52,-1.04,0.3,0.68,-0.01
2022-02-06 21:38:58.3320,-0.021,-0.833,-0.593,1.62,1.3,-1.01,0.21,0.67,-0.08
2022-02-06 21:38:58.3420,-0.014,-0.855,-0.598,1.57,1.49,-0.86,0.13,0.54,-0.15
2022-02-06 21:38:58.3520,-0.005,-0.876,-0.625,1.57,1.49,-0.86,0.07,0.34,-0.21
2022-02-06 21:38:58.3610,-0.008,-0.905,-0.634,1.54,1.72,-0.6,0.04,0.16,-0.23
