time,gFx,gFy,gFz,ax,ay,az,wx,wy,wz
2022-01-31 10:15:12.5500,0.011,-0.339,-1.028,0.46,0.76,-0.81,-0.55,-0.18,0.43
2022-01-31 10:17:33.9720,0.001,-0.327,-1.042,0.53,0.98,-0.01,-0.4,-0.36,0.32
2022-01-31 10:17:33.9820,-0.027,-0.306,-1.023,0.58,0.99,0.66,-0.25,-0.42,0.22
2022-01-31 10:17:33.9930,-0.053,-0.288,-1.007,0.58,0.99,0.66,-0.09,-0.39,0.14
2022-01-31 10:17:33.9990,-0.063,-0.282,-0.992,0.83,0.79,0.45,0.06,-0.31,0.09
2022-01-31 10:17:34.0120,-0.063,-0.285,-0.977,1.03,0.63,0.3,0.2,-0.24,0.07
2022-01-31 10:17:34.0220,-0.062,-0.28,-0.947,1.08,0.57,0.15,0.26,-0.22,0.02
2022-01-31 10:17:34.0320,-0.086,-0.264,-0.929,1.05,0.58,0.01,0.24,-0.27,-0.05
2022-01-31 10:17:34.0420,-0.093,-0.262,-0.925,1.04,0.49,-0.29,0.15,-0.29,-0.09
2022-01-31 10:17:34.0520,-0.071,-0.295,-0.889,1.26,0.31,-0.43,0.04,-0.18,-0.08
2022-01-31 10:17:34.0620,-0.046,-0.34,-0.859,1.26,0.32,-0.49,-0.05,0.01,-0.01
2022-01-31 10:17:34.0730,-0.039,-0.355,-0.887,1.02,0.68,-0.88,-0.09,0.2,0.08
2022-01-31 10:17:34.0830,-0.046,-0.323,-0.904,0.79,1.21,-0.8,-0.08,0.4,0.18
2022-01-31 10:17:34.0940,-0.024,-0.28,-0.903,0.79,1.21,-0.8,-0.03,0.58,0.28
2022-01-31 10:17:34.1040,0.003,-0.253,-0.906,0.88,0.86,-0.67,0.03,0.73,0.38
2022-01-31 10:17:34.1130,0.028,-0.253,-0.944,0.69,0.45,-0.69,0.11,0.8,0.5
2022-01-31 10:17:34.1230,0.042,-0.262,-0.958,0.5,0.2,-0.61,0.19,0.85,0.63
2022-01-31 10:17:34.1320,0.032,-0.261,-0.939,0.32,0.22,-0.22,0.27,0.92,0.73
2022-01-31 10:17:34.1430,0.017,-0.264,-0.927,0.28,0.26,-0.13,0.32,1.05,0.75
2022-01-31 10:17:34.1530,-0.017,-0.26,-0.941,0.48,0.23,-0.31,0.38,1.1,0.68
2022-01-31 10:17:34.1630,-0.061,-0.25,-1.002,0.7,0.22,-0.4,0.49,0.99,0.56
2022-01-31 10:17:34.1740,-0.075,-0.252,-1.094,1.16,0.11,-0.18,0.75,0.65,0.45
2022-01-31 10:17:34.1830,-0.061,-0.29,-1.191,1.76,-0.08,1.46,1.13,0.29,0.32
2022-01-31 10:17:34.1940,-0.046,-0.321,-1.208,1.76,-0.08,1.46,1.57,0.11,0.13
2022-01-31 10:17:34.2030,-0.055,-0.299,-1.174,1.63,0.18,2.37,1.98,0.05,-0.21
2022-01-31 10:17:34.2130,-0.086,-0.247,-1.151,1.5,0.27,2.51,2.24,-0.07,-0.68
2022-01-31 10:17:34.2240,-0.083,-0.228,-1.115,1.65,-0.2,2.21,2.25,-0.15,-1.17
2022-01-31 10:17:34.2340,-0.042,-0.255,-1.047,1.96,-0.9,2.1,2.09,-0.34,-1.43
2022-01-31 10:17:34.2440,0.014,-0.324,-1.027,1.89,-1.22,1.73,1.53,-0.83,-1.28
2022-01-31 10:17:34.2540,0.066,-0.407,-0.943,1.46,-1.06,1.17,1.05,-0.83,-0.97
2022-01-31 10:17:34.2630,0.006,-0.38,-0.778,0.86,-0.42,1.03,0.72,-0.39,-0.86
2022-01-31 10:17:34.2740,-0.061,-0.352,-0.739,0.4,0.24,0.05,0.37,-0.16,-0.85
2022-01-31 10:17:34.2840,-0.039,-0.432,-0.797,1.13,-0.18,-1.48,0.07,-0.2,-0.89
2022-01-31 10:17:34.2950,-0.026,-0.49,-0.815,1.68,-0.33,-1.67,-0.11,-0.25,-1.04
2022-01-31 10:17:34.3040,-0.034,-0.464,-0.8,1.45,0.52,-1.09,-0.25,-0.46,-1.24
2022-01-31 10:17:34.3140,-0.054,-0.399,-0.845,1.36,1.02,-1.01,-0.28,-0.92,-1.4
2022-01-31 10:17:34.3240,-0.073,-0.353,-0.958,1.46,0.72,-1.14,-0.15,-1.61,-1.51
2022-01-31 10:17:34.3340,-0.114,-0.296,-1.044,1.58,0.13,-0.62,0.17,-2.23,-1.63
2022-01-31 10:17:34.3450,-0.124,-0.262,-1.056,1.68,-0.3,0.5,0.49,-2.85,-1.73
2022-01-31 10:17:34.3540,-0.103,-0.25,-1.022,1.91,-0.89,1.24,0.57,-3.17,-1.84
2022-01-31 10:17:34.3650,-0.085,-0.235,-0.882,1.74,-1.21,1.31,0.7,-3.05,-1.98
2022-01-31 10:17:34.3750,-0.048,-0.247,-0.809,1.31,-1.37,0.83,0.85,-2.76,-1.97
2022-01-31 10:17:34.3860,0.022,-0.302,-0.752,0.95,-1.58,-0.5,0.89,-2.48,-1.81
2022-01-31 10:17:34.3950,0.075,-0.356,-0.724,0.37,-1.48,-1.12,0.78,-2.06,-1.58
2022-01-31 10:17:34.4040,0.113,-0.392,-0.636,-0.45,-1.0,-1.62,0.6,-1.16,-1.32
2022-01-31 10:17:34.4150,0.134,-0.419,-0.622,-1.03,-0.55,-1.87,0.52,-0.6,-1.0
2022-01-31 10:17:34.4240,0.147,-0.431,-0.7,-1.42,-0.27,-2.77,0.29,-0.43,-0.69
2022-01-31 10:17:34.4350,0.202,-0.467,-0.765,-1.62,-0.05,-2.68,0.03,-0.64,-0.36
2022-01-31 10:17:34.4450,0.342,-0.453,-0.878,-2.51,0.42,-1.24,-0.02,-0.94,-0.06
2022-01-31 10:17:34.4550,0.269,-0.338,-0.916,-2.51,0.42,-1.24,0.04,-1.18,0.15
2022-01-31 10:17:34.4650,0.057,-0.201,-0.9,-3.89,0.13,-0.13,0.18,-1.71,0.25
2022-01-31 10:17:34.4760,-0.08,-0.088,-0.921,-3.0,-1.05,0.11,0.29,-2.0,0.25
2022-01-31 10:17:34.4870,-0.082,-0.164,-0.848,-1.11,-2.45,0.04,0.4,-1.9,0.22
2022-01-31 10:17:34.4960,-0.084,-0.375,-0.871,-0.12,-3.42,0.19,0.6,-1.58,0.15
2022-01-31 10:17:34.5060,-0.151,-0.509,-0.921,-0.35,-2.47,-0.49,0.76,-1.25,-0.05
2022-01-31 10:17:34.5160,-0.213,-0.498,-0.906,-0.37,-0.44,-0.07,0.72,-1.12,-0.39
2022-01-31 10:17:34.5260,-0.272,-0.402,-0.888,0.23,0.63,0.38,0.57,-1.08,-0.71
2022-01-31 10:17:34.5360,-0.262,-0.355,-0.847,0.74,0.29,0.26,0.42,-1.03,-0.86
2022-01-31 10:17:34.5460,-0.165,-0.372,-0.806,1.25,-0.7,0.1,0.29,-0.93,-0.84
2022-01-31 10:17:34.5550,0.035,-0.471,-0.764,0.97,-1.12,-0.29,0.13,-0.76,-0.6
2022-01-31 10:17:34.5660,0.24,-0.561,-0.737,-0.13,-0.89,-0.66,-0.03,-0.57,-0.25
2022-01-31 10:17:34.5770,0.235,-0.535,-0.739,-2.23,0.13,-1.06,-0.03,-0.57,-0.25
2022-01-31 10:17:34.5870,0.151,-0.455,-0.782,-4.12,0.92,-1.28,-0.27,-0.41,0.43
2022-01-31 10:17:34.5980,0.098,-0.474,-0.871,-3.87,0.54,-1.24,-0.35,-0.61,0.57
2022-01-31 10:17:34.6060,-0.034,-0.495,-0.943,-3.17,-0.14,-0.75,-0.35,-0.61,0.57
2022-01-31 10:17:34.6170,-0.159,-0.461,-0.969,-2.68,0.19,0.13,-0.4,-0.75,0.51
2022-01-31 10:17:34.6270,-0.243,-0.472,-0.95,-1.41,0.34,0.79,-0.43,-0.5,0.42
2022-01-31 10:17:34.6370,-0.312,-0.466,-0.899,-0.32,0.07,0.98,-0.53,-0.17,0.34
2022-01-31 10:17:34.6470,-0.309,-0.453,-0.862,0.43,0.27,0.72,-0.72,0.17,0.35
2022-01-31 10:17:34.6570,-0.267,-0.441,-0.82,1.05,0.22,0.19,-0.96,0.49,0.41
2022-01-31 10:17:34.6670,-0.277,-0.384,-0.792,0.93,0.2,-0.2,-1.13,0.81,0.47
2022-01-31 10:17:34.6780,-0.28,-0.335,-0.81,0.59,0.14,-0.68,-1.18,1.07,0.51
2022-01-31 10:17:34.6880,-0.287,-0.266,-0.87,0.79,-0.35,-0.97,-1.09,1.3,0.49
2022-01-31 10:17:34.6980,-0.32,-0.194,-0.917,0.86,-0.67,-0.81,-0.93,1.5,0.52
2022-01-31 10:17:34.7070,-0.338,-0.224,-0.88,1.1,-1.35,-0.25,-0.95,1.16,0.44
2022-01-31 10:17:34.7180,-0.4,-0.232,-0.871,1.5,-1.82,0.06,-1.1,0.19,0.14
2022-01-31 10:17:34.7280,-0.462,-0.221,-0.917,1.76,-1.41,-0.4,-1.1,-0.69,-0.15
2022-01-31 10:17:34.7370,-0.425,-0.199,-1.026,2.4,-1.26,-0.43,-0.9,-1.23,-0.29
2022-01-31 10:17:34.7470,-0.42,-0.146,-1.103,2.83,-1.31,0.06,-0.62,-1.4,-0.36
2022-01-31 10:17:34.7570,-0.369,-0.121,-1.092,2.3,-1.47,1.18,-0.4,-1.23,-0.4
2022-01-31 10:17:34.7680,-0.351,-0.164,-1.038,2.18,-1.98,1.83,-0.29,-0.98,-0.44
2022-01-31 10:17:34.7780,-0.377,-0.137,-0.976,1.52,-2.09,1.64,-0.33,-0.66,-0.48
2022-01-31 10:17:34.7880,-0.338,-0.202,-0.911,1.57,-1.93,0.46,-0.33,-0.66,-0.48
2022-01-31 10:17:34.8000,-0.305,-0.269,-0.883,1.57,-1.93,0.46,-0.68,-0.49,-0.63
2022-01-31 10:17:34.8080,-0.275,-0.234,-0.83,1.11,-1.13,-0.13,-0.91,-0.5,-0.62
2022-01-31 10:17:34.8180,-0.18,-0.213,-0.801,0.83,-0.55,-0.42,-1.08,-0.56,-0.52
2022-01-31 10:17:34.8280,-0.165,-0.162,-0.85,0.39,-0.84,-1.0,-1.14,-0.63,-0.38
2022-01-31 10:17:34.8380,-0.16,-0.126,-0.901,-0.52,-0.96,-1.18,-1.09,-0.76,-0.21
2022-01-31 10:17:34.8480,-0.146,-0.092,-0.947,-0.66,-1.39,-0.68,-0.93,-1.08,-0.05
2022-01-31 10:17:34.8580,-0.149,-0.049,-0.973,-0.82,-1.62,-0.2,-0.66,-1.56,0.12
2022-01-31 10:17:34.8680,-0.161,-0.011,-0.968,-1.05,-1.9,0.24,-0.36,-2.07,0.26
2022-01-31 10:17:34.8790,-0.167,0.014,-0.907,-1.19,-2.26,0.51,-0.14,-2.51,0.45
2022-01-31 10:17:34.8890,-0.156,0.022,-0.805,-1.27,-2.6,0.45,-0.04,-2.76,0.71
2022-01-31 10:17:34.9000,-0.152,0.039,-0.692,-1.5,-2.79,-0.13,-0.06,-2.83,1.03
2022-01-31 10:17:34.9090,-0.175,0.049,-0.602,-1.88,-2.85,-1.07,-0.17,-2.93,1.34
2022-01-31 10:17:34.9190,-0.217,0.053,-0.553,-2.19,-2.95,-2.06,-0.35,-3.08,1.6
2022-01-31 10:17:34.9290,-0.285,0.086,-0.531,-2.21,-2.97,-2.8,-0.54,-3.36,1.71
2022-01-31 10:17:34.9390,-0.376,0.183,-0.585,-2.14,-2.89,-3.13,-0.64,-3.75,1.78
2022-01-31 10:17:34.9490,-0.432,0.253,-0.675,-1.72,-3.19,-3.12,-0.65,-4.08,1.85
2022-01-31 10:17:34.9590,-0.46,0.275,-0.737,-1.24,-4.0,-2.34,-0.69,-4.15,1.93
2022-01-31 10:17:34.9690,-0.529,0.346,-0.732,-1.1,-4.48,-1.26,-0.8,-3.93,1.94
2022-01-31 10:17:34.9800,-0.67,0.473,-0.701,-1.2,-4.51,-0.5,-0.93,-3.44,1.95
2022-01-31 10:17:34.9900,-0.599,0.415,-0.656,-0.73,-5.14,-0.41,-1.16,-3.03,2.16
2022-01-31 10:17:35.0000,-0.354,0.273,-0.693,0.34,-6.11,-0.54,-1.37,-3.17,2.63
2022-01-31 10:17:35.0100,-0.182,0.343,-0.765,-0.96,-5.04,-0.79,-1.59,-3.72,3.18
2022-01-31 10:17:35.0200,-0.435,0.606,-0.54,-3.79,-3.33,0.0,-2.13,-3.69,3.32
2022-01-31 10:17:35.0300,-0.655,0.321,-0.416,-5.23,-4.33,0.64,-2.72,-3.66,3.39
2022-01-31 10:17:35.0400,-0.701,0.251,-0.586,-2.76,-5.86,-1.42,-3.06,-4.07,3.48
2022-01-31 10:17:35.0500,-0.697,0.394,-0.868,-1.09,-2.46,-2.05,-3.06,-4.4,3.73
2022-01-31 10:17:35.0600,-0.71,0.442,-1.035,-1.0,-1.78,0.32,-2.91,-4.6,4.07
2022-01-31 10:17:35.0700,-0.746,0.494,-1.097,-1.24,-2.66,3.36,-2.56,-4.25,4.25
2022-01-31 10:17:35.0810,-0.804,0.563,-1.183,-1.26,-2.55,5.31,-1.97,-3.53,4.23
2022-01-31 10:17:35.0900,-0.999,0.6,-0.989,-0.96,-2.69,6.1,-1.61,-2.84,4.01
2022-01-31 10:17:35.1010,-1.245,0.647,-0.976,-0.41,-2.83,7.38,-1.29,-2.42,3.71
2022-01-31 10:17:35.1100,-1.278,0.622,-0.999,1.81,-2.9,5.34,-0.98,-1.9,3.33
2022-01-31 10:17:35.1210,-1.336,0.587,-0.915,3.97,-2.89,5.92,-0.73,-1.45,2.88
2022-01-31 10:17:35.1300,-1.378,0.546,-0.86,4.26,-2.34,6.01,-0.56,-0.97,2.44
2022-01-31 10:17:35.1400,-1.365,0.487,-0.776,4.94,-1.74,5.38,-0.53,-0.48,2.02
2022-01-31 10:17:35.1510,-1.345,0.411,-0.674,5.27,-0.33,4.1,-0.53,-0.48,2.02
2022-01-31 10:17:35.1610,-1.278,0.36,-0.579,5.27,-0.33,4.1,-1.02,0.22,1.4
2022-01-31 10:17:35.1710,-1.222,0.33,-0.531,5.09,0.55,3.11,-1.38,0.43,1.24
2022-01-31 10:17:35.1820,-1.173,0.328,-0.519,4.49,1.17,2.25,-1.7,0.64,1.18
2022-01-31 10:17:35.1920,-1.114,0.349,-0.545,4.04,1.57,1.87,-1.95,0.89,1.23
2022-01-31 10:17:35.2030,-1.071,0.393,-0.6,3.62,1.73,1.82,-2.09,1.17,1.34
2022-01-31 10:17:35.2110,-1.041,0.438,-0.678,3.15,1.65,2.14,-2.09,1.17,1.34
2022-01-31 10:17:35.2220,-1.027,0.441,-0.774,2.88,1.38,2.72,-2.02,1.58,1.51
2022-01-31 10:17:35.2310,-1.036,0.426,-0.863,2.71,1.16,3.51,-1.78,1.65,1.48
2022-01-31 10:17:35.2420,-1.067,0.425,-0.927,2.75,1.35,4.45,-1.36,1.67,1.33
2022-01-31 10:17:35.2520,-1.111,0.432,-0.987,3.0,1.64,5.26,-0.85,1.63,1.12
2022-01-31 10:17:35.2620,-1.125,0.436,-0.984,3.47,1.76,5.83,-0.35,1.6,0.9
2022-01-31 10:17:35.2710,-1.117,0.449,-0.921,3.99,1.78,6.3,0.06,1.56,0.67
2022-01-31 10:17:35.2830,-1.082,0.458,-0.85,4.2,1.8,6.06,0.38,1.49,0.5
2022-01-31 10:17:35.2920,-1.023,0.458,-0.77,4.19,1.7,5.3,0.65,1.44,0.42
2022-01-31 10:17:35.3020,-0.96,0.451,-0.692,3.89,1.64,4.47,0.88,1.4,0.39
2022-01-31 10:17:35.3120,-0.898,0.448,-0.633,3.37,1.64,3.53,1.04,1.26,0.38
2022-01-31 10:17:35.3220,-0.829,0.446,-0.595,2.84,1.7,2.64,1.17,1.08,0.41
2022-01-31 10:17:35.4080,-0.746,0.429,-0.538,2.3,1.7,1.95,0.95,-0.21,1.98
2022-01-31 10:17:35.4080,-0.66,0.404,-0.476,2.3,1.7,1.95,0.95,-0.21,1.98
2022-01-31 10:17:35.4080,-0.574,0.389,-0.424,2.3,1.7,1.95,0.95,-0.21,1.98
Time,-0.476,0.375,-0.388,2.3,1.7,1.95,0.95,-0.21,1.98
Time,-0.389,0.356,-0.386,2.3,1.7,1.95,0.95,-0.21,1.98
Time,-0.356,0.346,-0.41,2.3,1.7,1.95,0.95,-0.21,1.98
Time,-0.36,0.366,-0.428,2.3,1.7,1.95,0.95,-0.21,1.98
2022-01-31 10:17:35.4090,-0.397,0.407,-0.428,2.3,1.7,1.95,0.85,-0.45,2.06
2022-01-31 10:17:35.4150,-0.494,0.456,-0.374,1.67,1.7,1.43,0.72,-0.62,2.07
2022-01-31 10:17:35.4290,-0.545,0.503,-0.328,1.67,1.7,1.43,0.57,-0.76,2.06
2022-01-31 10:17:35.4390,-0.573,0.551,-0.305,0.92,1.88,0.72,0.41,-0.87,2.08
2022-01-31 10:17:35.4490,-0.573,0.608,-0.298,-2.31,2.8,-0.87,0.26,-0.88,2.12
2022-01-31 10:17:35.4600,-0.605,0.673,-0.309,0.34,1.15,-1.96,0.03,-0.84,2.28
2022-01-31 10:17:35.4640,-0.601,0.678,-0.226,0.44,0.69,-1.99,0.02,-0.58,2.23
2022-01-31 10:17:35.4730,-0.88,0.902,-0.455,0.88,0.21,-1.87,0.22,-0.34,2.02
2022-01-31 10:17:35.4840,-0.916,0.93,-0.586,1.19,0.12,-2.53,0.46,-0.21,1.8
2022-01-31 10:17:35.4940,-0.893,0.884,-0.654,4.02,-2.0,-0.15,0.69,-0.0,1.57
2022-01-31 10:17:35.5040,-0.878,0.843,-0.632,4.22,-1.98,0.95,0.85,0.26,1.33
2022-01-31 10:17:35.5210,-0.843,0.837,-0.601,4.16,-1.51,1.47,0.89,0.55,1.11
2022-01-31 10:17:35.5240,-0.779,0.85,-0.598,4.09,-1.12,1.1,0.82,0.83,0.93
2022-01-31 10:17:35.5310,-0.735,0.825,-0.6,4.09,-1.12,1.1,0.71,1.09,0.71
2022-01-31 10:17:35.5430,-0.721,0.799,-0.624,4.09,-1.12,1.1,0.63,1.35,0.45
2022-01-31 10:17:35.5510,-0.686,0.777,-0.653,4.09,-1.12,1.1,0.58,1.57,0.2
2022-01-31 10:17:35.5610,-0.637,0.732,-0.657,4.09,-1.12,1.1,0.55,1.76,-0.04
2022-01-31 10:17:35.5710,-0.592,0.692,-0.658,4.09,-1.12,1.1,0.6,1.9,-0.25
2022-01-31 10:17:35.5710,-0.506,0.671,-0.711,4.09,-1.12,1.1,0.82,2.04,-0.35
2022-01-31 10:17:35.6080,-0.391,0.669,-0.8,4.09,-1.12,1.1,1.02,2.02,-0.4
2022-01-31 10:17:35.5820,-0.306,0.609,-0.733,4.09,-1.12,1.1,0.98,1.83,-0.46
2022-01-31 10:17:35.6110,-0.216,0.503,-0.562,4.09,-1.12,1.1,0.65,1.43,-0.5
2022-01-31 10:17:35.6220,-0.173,0.39,-0.313,4.09,-1.12,1.1,0.65,1.43,-0.5
2022-01-31 10:17:35.6320,-0.169,0.3,-0.078,4.09,-1.12,1.1,-0.53,0.96,-0.53
2022-01-31 10:17:35.6540,-0.202,0.28,-0.064,4.09,-1.12,1.1,-0.96,0.52,-0.64
2022-01-31 10:17:35.6540,-0.245,0.328,-0.301,4.09,-1.12,1.1,-1.0,-0.12,-0.85
2022-01-31 10:17:35.6630,-0.281,0.407,-0.537,4.09,-1.12,1.1,-1.0,-0.12,-0.85
2022-01-31 10:17:35.6630,-0.263,0.466,-0.639,4.09,-1.12,1.1,-1.0,-0.12,-0.85
2022-01-31 10:17:35.6630,-0.174,0.532,-0.751,4.09,-1.12,1.1,-1.0,-0.12,-0.85
2022-01-31 10:17:35.6630,-0.623,0.442,-0.447,4.09,-1.12,1.1,-1.0,-0.12,-0.85
2022-01-31 10:17:35.6630,-0.569,0.579,-0.702,4.09,-1.12,1.1,-1.0,-0.12,-0.85
2022-01-31 10:17:35.6630,-0.563,0.759,-0.839,4.09,-1.12,1.1,-1.0,-0.12,-0.85
2022-01-31 10:17:35.6630,-0.447,0.838,-0.806,4.09,-1.12,1.1,-1.0,-0.12,-0.85
2022-01-31 10:17:35.6630,-0.212,0.846,-0.67,4.09,-1.12,1.1,-1.0,-0.12,-0.85
2022-01-31 10:17:35.6630,-0.169,0.782,-0.485,4.09,-1.12,1.1,-1.0,-0.12,-0.85
2022-01-31 10:17:35.6630,-0.363,0.673,-0.316,4.09,-1.12,1.1,-1.0,-0.12,-0.85
2022-01-31 10:17:35.6630,-0.64,0.553,0.005,4.09,-1.12,1.1,-1.0,-0.12,-0.85
2022-01-31 10:17:35.6630,-0.698,0.403,-0.005,4.09,-1.12,1.1,-1.0,-0.12,-0.85
2022-01-31 10:17:35.6630,-0.643,0.35,-0.073,4.09,-1.12,1.1,-1.0,-0.12,-0.85
2022-01-31 10:17:35.6630,-0.778,0.483,-0.005,4.09,-1.12,1.1,-1.0,-0.12,-0.85
2022-01-31 10:17:35.6630,-0.605,0.385,-0.07,4.09,-1.12,1.1,-1.0,-0.12,-0.85
2022-01-31 10:17:35.6630,-0.462,0.488,-0.1,4.09,-1.12,1.1,-1.0,-0.12,-0.85
2022-01-31 10:17:35.6630,-0.315,0.524,-0.204,4.09,-1.12,1.1,-1.0,-0.12,-0.85
2022-01-31 10:17:35.6630,-0.312,0.579,-0.39,4.09,-1.12,1.1,-1.0,-0.12,-0.85
2022-01-31 10:17:35.6630,-0.465,0.669,-0.623,4.09,-1.12,1.1,-1.0,-0.12,-0.85
2022-01-31 10:17:35.6630,-0.213,0.584,-0.816,4.09,-1.12,1.1,-1.0,-0.12,-0.85
2022-01-31 10:17:35.6630,-0.666,0.686,-0.777,4.09,-1.12,1.1,-1.0,-0.12,-0.85
2022-01-31 10:17:35.6630,-0.847,0.616,-0.817,4.09,-1.12,1.1,-1.0,-0.12,-0.85
2022-01-31 10:17:35.6630,-1.032,0.555,-0.767,4.09,-1.12,1.1,-1.0,-0.12,-0.85
2022-01-31 10:17:35.6630,-1.032,0.555,-0.767,4.09,-1.12,1.1,-1.0,-0.12,-0.85
2022-01-31 10:17:35.6630,-0.849,0.576,-0.376,4.09,-1.12,1.1,-1.0,-0.12,-0.85
2022-01-31 10:17:35.6630,-0.849,0.576,-0.376,4.09,-1.12,1.1,-1.0,-0.12,-0.85
2022-01-31 10:17:35.6630,-0.672,0.569,-0.22,4.09,-1.12,1.1,-1.0,-0.12,-0.85
2022-01-31 10:17:35.6630,-0.707,0.657,-0.252,4.09,-1.12,1.1,-1.0,-0.12,-0.85
2022-01-31 10:17:35.6630,-0.791,0.687,-0.372,4.09,-1.12,1.1,-1.0,-0.12,-0.85
2022-01-31 10:17:35.6630,-0.757,0.682,-0.321,4.09,-1.12,1.1,-1.0,-0.12,-0.85
2022-01-31 10:17:35.6630,-0.703,0.812,-0.109,4.09,-1.12,1.1,-1.0,-0.12,-0.85
2022-01-31 10:17:35.6630,-0.629,0.923,-0.05,4.09,-1.12,1.1,-1.0,-0.12,-0.85
2022-01-31 10:17:35.6630,-0.566,0.901,-0.148,4.09,-1.12,1.1,-1.0,-0.12,-0.85
2022-01-31 10:17:35.6630,-0.801,1.121,-0.166,4.09,-1.12,1.1,-1.0,-0.12,-0.85
2022-01-31 10:17:35.6630,-0.741,1.139,-0.307,4.09,-1.12,1.1,-1.0,-0.12,-0.85
2022-01-31 10:17:35.6630,-0.69,1.201,-0.324,4.09,-1.12,1.1,-1.0,-0.12,-0.85
2022-01-31 10:17:35.6630,-0.615,1.128,-0.222,4.09,-1.12,1.1,-1.0,-0.12,-0.85
2022-01-31 10:17:35.6630,-0.576,1.047,-0.121,4.09,-1.12,1.1,-1.0,-0.12,-0.85
2022-01-31 10:17:35.6630,-0.455,0.975,-0.011,4.09,-1.12,1.1,-1.0,-0.12,-0.85
2022-01-31 10:17:35.6630,-0.189,0.885,0.06,4.09,-1.12,1.1,-1.0,-0.12,-0.85
2022-01-31 10:17:35.6630,-0.224,0.833,0.03,4.09,-1.12,1.1,-1.0,-0.12,-0.85
2022-01-31 10:17:35.6630,-0.282,0.67,-0.078,4.09,-1.12,1.1,-1.0,-0.12,-0.85
2022-01-31 10:17:35.6630,-0.282,0.67,-0.078,4.09,-1.12,1.1,-1.0,-0.12,-0.85
2022-01-31 10:17:35.6630,-0.256,0.652,-0.079,4.09,-1.12,1.1,-1.0,-0.12,-0.85
2022-01-31 10:17:36.1890,-0.278,0.681,-0.097,4.09,-1.12,1.1,-0.06,0.61,0.95
2022-01-31 10:17:36.1900,-0.312,0.697,-0.086,4.09,-1.12,1.1,-0.12,0.99,0.87
2022-01-31 10:17:36.1930,-0.378,0.652,-0.091,4.09,-1.12,1.1,-0.02,1.25,0.74
2022-01-31 10:17:36.1930,-0.436,0.665,-0.145,4.09,-1.12,1.1,0.03,1.21,0.49
2022-01-31 10:17:36.1930,-0.403,0.741,-0.139,4.09,-1.12,1.1,-0.17,1.52,0.28
Time,-0.311,0.769,-0.051,4.09,-1.12,1.1,-0.41,1.84,0.5
2022-01-31 10:17:36.1970,-0.199,0.738,-0.045,4.09,-1.12,1.1,-0.73,2.23,0.95
2022-01-31 10:17:36.1960,-0.179,0.702,-0.115,4.09,-1.12,1.1,-1.03,2.64,1.23
2022-01-31 10:17:36.1990,-0.284,0.781,-0.273,4.09,-1.12,1.1,-0.98,2.18,1.15
2022-01-31 10:17:36.2020,-0.215,0.868,-0.859,4.09,-1.12,1.1,-0.32,0.98,0.76
2022-01-31 10:17:36.2060,-0.253,1.049,-1.023,4.09,-1.12,1.1,0.52,0.08,0.49
2022-01-31 10:17:36.2160,-0.272,1.183,-0.775,4.09,-1.12,1.1,0.97,-0.57,0.39
2022-01-31 10:17:36.2260,-0.272,1.074,-0.487,4.09,-1.12,1.1,0.94,-0.94,0.25
2022-01-31 10:17:36.2450,-0.359,0.977,-0.273,4.09,-1.12,1.1,0.59,-0.98,0.12
2022-01-31 10:17:36.2550,-0.389,0.954,-0.158,4.09,-1.12,1.1,0.18,-0.84,0.09
2022-01-31 10:17:36.2640,-0.382,0.964,-0.132,4.09,-1.12,1.1,-0.19,-0.6,0.05
2022-01-31 10:17:36.2750,-0.363,1.045,-0.21,4.09,-1.12,1.1,-0.47,-0.25,-0.05
2022-01-31 10:17:36.2850,-0.35,1.12,-0.33,4.09,-1.12,1.1,-0.7,0.17,-0.15
2022-01-31 10:17:36.2950,-0.286,1.234,-0.272,4.09,-1.12,1.1,-1.11,0.53,-0.13
2022-01-31 10:17:36.3060,-0.196,1.278,-0.101,4.09,-1.12,1.1,-1.52,0.72,-0.04
2022-01-31 10:17:36.3170,-0.189,1.235,0.021,4.09,-1.12,1.1,-1.73,0.72,0.04
2022-01-31 10:17:36.3190,-0.287,1.144,0.07,4.09,-1.12,1.1,-1.77,0.83,0.01
2022-01-31 10:17:36.3370,-0.324,1.096,0.069,4.09,-1.12,1.1,-1.81,0.78,-0.12
2022-01-31 10:17:36.3460,-0.267,1.048,0.076,4.09,-1.12,1.1,-1.83,0.7,-0.23
2022-01-31 10:17:36.3560,-0.227,0.955,0.154,4.09,-1.12,1.1,-1.66,0.83,-0.4
2022-01-31 10:17:36.3660,-0.264,0.832,0.064,4.09,-1.12,1.1,-1.17,0.88,-0.69
2022-01-31 10:17:36.3760,-0.359,0.794,-0.163,4.09,-1.12,1.1,-0.41,0.95,-0.99
2022-01-31 10:17:36.3860,-0.46,0.733,-0.304,2.71,-0.52,0.89,0.43,1.11,-1.18
2022-01-31 10:17:36.3960,-0.529,0.657,-0.281,0.13,0.29,1.83,1.12,1.15,-1.28
2022-01-31 10:17:36.4050,-0.529,0.607,-0.219,-1.43,3.99,-5.37,1.59,0.79,-1.22
2022-01-31 10:17:36.4100,-0.514,0.614,-0.089,-1.43,3.99,-5.37,1.81,0.59,-1.07
2022-01-31 10:17:36.4260,-0.549,0.61,0.066,-2.03,0.94,2.01,1.78,0.5,-0.8
2022-01-31 10:17:36.4370,-0.648,0.58,0.112,-1.74,-2.18,2.78,1.57,0.6,-0.44
2022-01-31 10:17:36.4470,-0.779,0.636,0.135,-0.31,2.66,-3.27,1.24,0.84,-0.04
2022-01-31 10:17:36.4570,-0.901,0.797,0.178,0.45,0.19,4.71,0.81,1.0,0.43
2022-01-31 10:17:36.4670,-0.9,0.936,0.18,0.81,0.65,0.35,0.26,0.84,0.89
2022-01-31 10:17:36.4770,-0.839,1.084,0.146,2.55,-3.14,0.35,-0.27,0.29,1.34
2022-01-31 10:17:36.4870,-0.691,1.256,0.011,-2.82,0.08,-1.2,-0.53,-0.4,1.95
2022-01-31 10:17:36.4970,-0.557,1.402,-0.22,-1.24,2.22,0.42,-0.53,-0.55,2.48
2022-01-31 10:17:36.5080,-0.588,1.469,-0.319,-1.7,1.94,-0.3,-0.63,-0.81,2.67
2022-01-31 10:17:36.5170,-0.628,1.527,-0.284,-0.61,-2.36,6.34,-0.91,-1.39,2.59
2022-01-31 10:17:36.5280,-0.551,1.511,-0.199,0.3,-1.15,1.41,-1.26,-1.76,2.35
2022-01-31 10:17:36.5380,-0.467,1.511,-0.073,-0.32,-1.89,-0.94,-1.43,-1.26,1.19
2022-01-31 10:17:36.5480,-0.58,2.22,0.451,0.14,1.4,2.01,-0.54,1.25,-1.62
2022-01-31 10:17:36.5580,-0.398,2.144,0.679,1.49,3.02,-1.41,-0.55,1.09,-2.55
2022-01-31 10:17:36.5670,-0.212,1.12,-0.165,4.46,-1.78,-2.36,-0.8,0.37,-2.51
2022-01-31 10:17:36.5780,-0.197,0.805,-0.218,2.01,-5.66,0.08,-0.72,0.31,-2.48
2022-01-31 10:17:36.5840,-0.232,0.752,0.005,-1.25,-1.0,1.99,-0.36,0.49,-2.6
2022-01-31 10:17:36.5920,-0.289,0.705,0.007,-1.56,1.38,1.61,-0.03,0.46,-2.43
2022-01-31 10:17:36.6030,-0.329,0.594,-0.093,-1.39,1.72,-0.35,0.19,0.32,-1.95
2022-01-31 10:17:36.6110,-0.333,0.464,-0.134,-1.05,2.16,-0.19,0.28,0.43,-1.56
2022-01-31 10:17:36.6220,-0.324,0.391,-0.093,-0.85,3.24,0.78,0.34,0.66,-1.32
2022-01-31 10:17:36.6330,-0.313,0.36,-0.09,-0.95,4.42,0.97,0.52,0.91,-1.19
2022-01-31 10:17:36.6420,-0.318,0.356,-0.076,-1.36,5.22,0.41,0.84,1.14,-1.15
2022-01-31 10:17:36.6530,-0.32,0.346,-0.116,-1.36,5.22,0.41,1.06,1.0,-1.07
2022-01-31 10:17:36.6620,-0.332,0.366,-0.256,-1.4,5.2,0.12,1.04,0.66,-0.89
2022-01-31 10:17:36.6730,-0.418,0.465,-0.341,-1.46,5.24,0.54,0.78,0.35,-0.68
2022-01-31 10:17:36.6820,-0.535,0.656,-0.364,-1.34,4.93,1.82,0.4,0.23,-0.55
2022-01-31 10:17:36.6940,-0.62,0.831,-0.371,-0.48,3.8,2.49,0.02,0.19,-0.49
2022-01-31 10:17:36.7040,-0.589,0.882,-0.381,0.64,1.83,2.64,-0.29,0.14,-0.33
2022-01-31 10:17:36.7120,-0.535,0.785,-0.412,1.31,0.22,2.72,-0.49,0.13,-0.12
2022-01-31 10:17:36.7230,-0.505,0.706,-0.424,0.9,-0.1,2.85,-0.62,0.13,0.09
2022-01-31 10:17:36.7340,-0.498,0.681,-0.459,0.39,0.95,3.21,-0.69,-0.12,0.31
2022-01-31 10:17:36.7430,-0.463,0.67,-0.489,0.16,1.64,3.35,-0.71,-0.54,0.46
2022-01-31 10:17:36.7530,-0.404,0.683,-0.427,0.11,1.89,3.84,-0.71,-1.02,0.58
2022-01-31 10:17:36.7640,-0.371,0.686,-0.341,-0.25,1.99,4.13,-0.71,-1.46,0.75
2022-01-31 10:17:36.7730,-0.337,0.692,-0.238,-0.76,1.9,3.56,-0.77,-1.83,1.01
2022-01-31 10:17:36.7840,-0.29,0.705,-0.094,-0.99,1.92,2.87,-0.91,-2.17,1.34
2022-01-31 10:17:36.7940,-0.257,0.761,0.064,-1.25,1.92,1.96,-1.04,-2.38,1.64
2022-01-31 10:17:36.8060,-0.246,0.854,0.238,-1.58,1.82,0.72,-0.93,-2.5,1.86
2022-01-31 10:17:36.8140,-0.184,0.949,0.335,-1.7,1.29,-0.68,-0.49,-2.36,2.01
2022-01-31 10:17:36.8230,-0.144,1.009,0.339,-1.66,0.43,-2.17,0.07,-2.0,1.93
2022-01-31 10:17:36.8340,-0.147,1.091,0.279,-2.12,-0.39,-2.9,0.5,-1.91,1.5
2022-01-31 10:17:36.8440,-0.121,1.134,0.187,-2.27,-0.89,-2.79,0.59,-2.35,1.18
2022-01-31 10:17:36.8540,-0.138,1.002,0.14,-2.11,-1.69,-2.13,0.43,-2.92,1.14
2022-01-31 10:17:36.8650,-0.245,0.857,0.242,-2.27,-1.88,-1.16,0.23,-3.31,1.22
2022-01-31 10:17:36.8740,-0.345,0.781,0.429,-1.85,-0.4,-0.8,-0.03,-3.4,1.38
2022-01-31 10:17:36.8850,-0.411,0.739,0.655,-0.6,0.97,-1.83,-0.36,-3.03,1.6
2022-01-31 10:17:36.8950,-0.459,0.73,0.82,0.49,1.71,-3.64,-0.72,-2.33,1.87
2022-01-31 10:17:36.9060,-0.422,0.719,0.763,1.31,2.12,-5.71,-1.02,-1.67,2.15
2022-01-31 10:17:36.9140,-0.297,0.736,0.492,1.92,2.24,-7.01,-1.19,-1.39,2.4
2022-01-31 10:17:36.9260,-0.157,0.801,0.192,1.67,2.38,-5.98,-1.24,-1.6,2.6
2022-01-31 10:17:36.9360,-0.096,0.904,-0.034,0.63,2.18,-3.03,-1.22,-2.11,2.75
2022-01-31 10:17:36.9450,-0.219,1.439,-0.076,-0.39,1.56,0.0,-0.38,-1.58,2.23
2022-01-31 10:17:36.9540,-0.21,1.387,-0.007,-0.59,0.39,2.21,-0.24,-1.93,1.76
2022-01-31 10:17:36.9660,-0.003,0.885,-0.031,1.04,-5.22,2.33,-0.51,-2.36,1.42
2022-01-31 10:17:36.9750,0.107,0.74,0.035,0.68,-3.28,1.89,-1.15,-2.54,1.14
2022-01-31 10:17:36.9860,0.142,0.773,0.064,-1.11,1.2,2.13,-1.68,-2.67,1.01
2022-01-31 10:17:36.9960,0.109,1.118,0.147,-1.94,2.39,1.65,-1.62,-2.37,1.01
2022-01-31 10:17:37.0070,0.071,1.402,0.364,-2.04,1.67,1.54,-1.31,-1.13,1.35
2022-01-31 10:17:37.0150,0.087,1.29,0.661,-1.5,-1.97,0.76,-1.07,1.19,1.77
2022-01-31 10:17:37.0270,0.08,1.256,0.817,-1.05,-4.32,-1.43,-0.92,2.6,1.95
2022-01-31 10:17:37.0380,0.303,1.321,0.649,-1.05,-3.04,-4.24,-0.91,2.1,2.13
2022-01-31 10:17:37.0450,0.457,1.428,0.111,-1.01,-2.97,-5.32,-0.64,0.91,2.09
2022-01-31 10:17:37.0570,0.369,1.698,-0.285,-3.23,-3.57,-3.19,-0.55,0.39,1.85
2022-01-31 10:17:37.0650,0.323,1.38,0.092,-4.23,-5.03,2.65,-0.09,0.48,1.69
2022-01-31 10:17:37.0770,0.315,1.125,0.359,-3.12,-7.19,5.32,0.1,0.92,1.53
2022-01-31 10:17:37.0850,0.341,1.1,0.667,-2.59,-3.68,1.54,-0.07,1.47,1.28
2022-01-31 10:17:37.0980,0.146,1.095,0.664,-2.52,-1.57,-1.05,-0.29,1.99,0.96
2022-01-31 10:17:37.1070,-0.081,1.035,0.473,-2.57,-1.46,-3.92,-0.56,2.11,0.6
2022-01-31 10:17:37.1160,-0.179,0.895,0.304,-0.38,-1.37,-3.38,-0.68,2.09,0.28
2022-01-31 10:17:37.1260,-0.209,0.807,0.178,1.63,-0.71,-1.43,-0.73,1.96,0.13
2022-01-31 10:17:37.1380,-0.183,0.787,0.144,2.47,0.68,0.28,-0.61,1.85,0.17
2022-01-31 10:17:37.1470,-0.258,0.777,0.105,2.61,1.38,1.49,-0.35,1.71,0.21
2022-01-31 10:17:37.1570,-0.399,0.792,0.072,2.35,1.55,1.81,0.05,1.58,0.18
2022-01-31 10:17:37.1680,-0.52,0.852,0.096,3.21,1.61,2.26,0.5,1.34,0.2
2022-01-31 10:17:37.1760,-0.549,0.659,0.027,4.56,1.42,2.51,1.26,0.89,0.41
2022-01-31 10:17:37.1880,-0.443,0.362,-0.374,5.69,0.94,2.17,2.57,0.04,0.24
2022-01-31 10:17:37.1990,-0.428,0.887,-0.751,5.79,3.33,2.95,1.9,-1.18,-0.03
2022-01-31 10:17:37.2080,-0.309,1.153,-0.428,4.77,5.75,7.1,1.28,-1.14,0.05
2022-01-31 10:17:37.2170,-0.056,0.603,0.191,4.74,-0.13,9.94,1.02,0.3,0.34
2022-01-31 10:17:37.2280,-0.086,0.12,0.557,3.28,-1.42,5.9,0.69,1.42,0.5
2022-01-31 10:17:37.2400,-0.345,0.514,0.641,0.99,4.36,-0.12,-0.05,1.82,0.04
2022-01-31 10:17:37.2470,-0.441,1.228,0.786,1.71,8.38,-3.33,-0.37,1.54,-0.38
2022-01-31 10:17:37.2590,-0.275,0.991,0.589,4.2,3.41,-4.0,-0.05,0.5,-0.33
2022-01-31 10:17:37.2680,-0.226,0.554,0.205,4.67,-2.8,-5.33,0.23,-0.86,-0.1
2022-01-31 10:17:37.2780,-0.381,0.519,0.088,2.96,0.42,-2.87,0.41,-1.63,-0.01
2022-01-31 10:17:37.2870,-0.491,0.519,0.161,2.82,4.32,0.7,0.67,-1.72,0.0
2022-01-31 10:17:37.2990,-0.473,0.472,0.138,4.46,4.34,1.39,0.85,-1.55,-0.21
2022-01-31 10:17:37.3090,-0.325,0.532,-0.018,5.42,4.53,0.6,0.72,-1.71,-0.66
2022-01-31 10:17:37.3180,-0.092,0.615,-0.189,5.08,4.87,0.91,0.19,-1.86,-0.99
2022-01-31 10:17:37.3280,0.22,0.86,-0.186,3.43,4.3,2.54,0.16,-1.69,-0.66
2022-01-31 10:17:37.3390,0.613,0.963,-0.288,1.03,3.28,3.99,0.48,-1.24,0.26
2022-01-31 10:17:37.3490,0.776,1.01,-0.36,-2.17,0.91,3.9,0.72,-1.09,0.98
2022-01-31 10:17:37.3580,0.629,1.099,-0.39,-5.86,0.1,4.93,0.95,-1.28,1.4
2022-01-31 10:17:37.3690,0.463,1.139,-0.425,-6.86,-0.41,5.46,1.21,-1.5,1.73
2022-01-31 10:17:37.3780,0.421,1.299,-0.437,-5.04,-1.25,5.63,1.42,-1.61,2.05
2022-01-31 10:17:37.3890,0.336,1.665,-0.374,-3.37,-1.66,5.83,1.72,-1.36,2.28
2022-01-31 10:17:37.4000,0.111,1.963,-0.226,-2.77,-3.47,5.71,1.84,-1.35,2.3
2022-01-31 10:17:37.4100,-0.2,2.018,-0.098,-1.53,-7.24,4.79,1.83,-1.66,1.93
2022-01-31 10:17:37.4200,-0.49,1.966,-0.003,1.03,-9.85,3.09,1.52,-2.39,0.98
2022-01-31 10:17:37.4300,-0.705,1.86,0.094,4.31,-10.2,1.67,0.87,-2.76,-0.18
2022-01-31 10:17:37.4410,-0.619,1.573,0.243,7.1,-9.64,0.66,0.02,-3.47,-0.93
2022-01-31 10:17:37.4490,-0.163,1.311,0.077,9.03,-8.39,-0.64,-0.79,-4.07,-1.11
2022-01-31 10:17:37.4590,0.228,1.195,-0.115,7.51,-5.44,-1.73,-1.14,-4.33,-0.96
2022-01-31 10:17:37.4680,0.369,1.173,-0.362,2.81,-3.01,0.02,-1.06,-4.47,-0.54
2022-01-31 10:17:37.4780,0.431,1.144,-0.504,-0.77,-2.04,2.01,-0.76,-4.57,-0.11
2022-01-31 10:17:37.4890,0.38,1.135,-0.552,-1.95,-1.85,4.41,-0.29,-4.68,0.13
2022-01-31 10:17:37.5010,0.268,1.109,-0.534,-2.48,-1.57,5.59,0.06,-4.57,0.37
2022-01-31 10:17:37.5110,0.174,1.121,-0.408,-1.74,-1.49,5.95,0.16,-4.36,0.48
2022-01-31 10:17:37.5190,0.08,1.209,-0.257,-0.62,-1.24,5.51,-0.1,-3.89,0.58
2022-01-31 10:17:37.5310,0.025,1.268,-0.092,0.39,-1.48,4.17,-0.69,-3.45,0.69
2022-01-31 10:17:37.5410,0.038,1.296,-0.068,1.35,-2.38,2.57,-1.57,-3.51,0.7
2022-01-31 10:17:37.5500,0.081,1.351,-0.202,1.88,-2.9,1.07,-2.49,-4.1,0.65
2022-01-31 10:17:37.5590,0.129,1.344,-0.352,1.78,-3.23,1.2,-3.24,-4.83,0.64
2022-01-31 10:17:37.5700,0.169,1.327,-0.461,1.43,-3.8,2.79,-3.57,-5.25,0.52
2022-01-31 10:17:37.5790,0.158,1.244,-0.513,1.03,-3.63,4.41,-3.54,-5.49,0.26
2022-01-31 10:17:37.5900,0.189,1.099,-0.612,0.81,-3.59,5.62,-3.25,-5.58,0.1
2022-01-31 10:17:37.6000,0.223,1.084,-0.736,0.99,-2.6,6.33,-2.77,-5.58,-0.06
2022-01-31 10:17:37.6120,0.189,1.071,-0.84,0.68,-1.34,7.47,-2.32,-5.41,-0.27
2022-01-31 10:17:37.6200,0.243,0.983,-0.84,0.52,-1.35,8.84,-2.07,-5.31,-0.53
2022-01-31 10:17:37.6300,0.401,0.881,-0.848,0.87,-1.12,9.77,-1.94,-5.57,-0.72
2022-01-31 10:17:37.6410,0.565,0.835,-0.898,0.2,-0.22,9.74,-1.91,-6.02,-0.77
2022-01-31 10:17:37.6510,0.651,0.792,-0.904,-1.38,0.72,9.93,-1.94,-6.35,-0.78
2022-01-31 10:17:37.6610,0.613,0.832,-0.932,-2.91,1.14,10.4,-1.89,-6.56,-0.79
2022-01-31 10:17:37.6700,0.578,0.922,-0.994,-3.6,1.5,10.41,-1.78,-6.74,-0.73
2022-01-31 10:17:37.6820,0.519,1.131,-1.06,-3.07,1.0,10.75,-1.56,-6.76,-0.69
2022-01-31 10:17:37.6900,0.295,1.288,-1.003,-2.79,0.04,11.33,-1.46,-6.97,-0.76
2022-01-31 10:17:37.7020,0.049,1.354,-0.857,-1.97,-2.14,11.84,-1.76,-7.49,-0.99
2022-01-31 10:17:37.7120,-0.011,1.374,-0.573,0.38,-3.49,11.08,-2.25,-7.37,-1.2
2022-01-31 10:17:37.7220,0.094,1.464,-0.404,2.69,-4.08,9.45,-2.81,-6.77,-1.26
2022-01-31 10:17:37.7310,0.111,1.418,-0.538,2.92,-4.28,6.63,-3.32,-6.62,-1.49
2022-01-31 10:17:37.7420,0.139,1.245,-0.911,1.88,-5.18,5.4,-3.42,-6.89,-1.62
2022-01-31 10:17:37.7510,0.177,1.169,-1.301,1.78,-4.46,7.2,-3.27,-7.51,-1.67
2022-01-31 10:17:37.7610,0.135,1.126,-1.465,1.34,-2.84,11.18,-3.01,-7.71,-1.94
2022-01-31 10:17:37.7710,0.252,1.046,-1.432,1.09,-2.16,14.84,-2.76,-7.75,-2.11
2022-01-31 10:17:37.7820,0.464,0.975,-1.374,1.37,-1.75,16.22,-2.58,-7.71,-2.25
2022-01-31 10:17:37.7910,0.672,0.936,-1.352,-0.06,-0.88,15.8,-2.26,-7.41,-2.27
2022-01-31 10:17:37.8040,0.844,0.895,-1.35,-2.19,-0.24,15.3,-1.9,-7.06,-2.19
2022-01-31 10:17:37.8120,0.892,0.841,-1.339,-4.35,0.12,15.15,-1.6,-7.0,-2.08
2022-01-31 10:17:37.8210,0.919,0.829,-1.305,-5.92,0.61,15.08,-1.47,-6.92,-1.93
2022-01-31 10:17:37.8310,0.932,0.806,-1.236,-6.38,1.11,14.96,-1.48,-6.84,-1.79
2022-01-31 10:17:37.8450,0.893,0.809,-1.212,-6.7,1.23,14.52,-1.54,-6.87,-1.76
2022-01-31 10:17:37.8520,0.841,0.791,-1.2,-6.8,1.47,13.87,-1.51,-7.21,-1.69
2022-01-31 10:17:37.8630,0.823,0.692,-1.164,-6.42,1.41,13.65,-1.34,-7.43,-1.47
2022-01-31 10:17:37.8720,0.782,0.679,-1.079,-5.95,1.73,13.49,-1.2,-7.72,-1.27
2022-01-31 10:17:37.8830,0.669,0.665,-0.914,-5.79,2.66,13.03,-1.06,-7.63,-1.2
2022-01-31 10:17:37.8920,0.536,0.706,-0.765,-5.31,2.76,12.05,-1.12,-7.74,-1.19
2022-01-31 10:17:37.9040,0.478,0.746,-0.661,-4.11,2.82,10.29,-1.25,-7.88,-1.22
2022-01-31 10:17:37.9140,0.488,0.847,-0.589,-2.86,2.47,8.83,-1.45,-7.85,-1.2
2022-01-31 10:17:37.9220,0.478,0.893,-0.559,-2.38,2.0,7.82,-1.66,-7.61,-1.23
2022-01-31 10:17:37.9320,0.433,0.936,-0.572,-2.52,1.01,7.1,-1.73,-7.08,-1.31
2022-01-31 10:17:37.9450,0.418,1.04,-0.642,-2.39,0.68,6.86,-1.75,-6.74,-1.39
2022-01-31 10:17:37.9520,0.507,1.163,-0.734,-1.96,0.14,7.06,-1.62,-6.64,-1.35
2022-01-31 10:17:37.9630,0.586,1.3,-0.791,-1.96,-0.84,7.83,-1.53,-6.8,-1.28
2022-01-31 10:17:37.9720,0.598,1.352,-0.778,-2.94,-2.19,8.72,-1.43,-7.18,-1.19
2022-01-31 10:17:37.9840,0.55,1.355,-0.719,-3.65,-3.35,9.16,-1.36,-7.48,-1.1
2022-01-31 10:17:37.9930,0.428,1.297,-0.56,-3.71,-3.84,8.97,-1.42,-7.41,-1.19
2022-01-31 10:17:38.0040,0.332,1.178,-0.359,-3.14,-3.78,8.26,-1.61,-7.1,-1.32
2022-01-31 10:17:38.0140,0.334,1.002,-0.237,-1.92,-3.14,6.57,-1.91,-6.61,-1.46
2022-01-31 10:17:38.0240,0.388,0.903,-0.202,-1.14,-1.87,4.67,-2.13,-5.98,-1.58
2022-01-31 10:17:38.0330,0.494,0.809,-0.272,-1.3,-0.17,3.65,-2.27,-5.39,-1.63
2022-01-31 10:17:38.0440,0.629,0.756,-0.376,-1.97,0.74,3.54,-2.3,-4.94,-1.56
2022-01-31 10:17:38.0530,0.749,0.749,-0.488,-3.12,1.65,4.42,-2.14,-4.67,-1.45
2022-01-31 10:17:38.0650,0.852,0.694,-0.577,-4.52,2.08,5.58,-1.91,-4.59,-1.29
2022-01-31 10:17:38.0740,0.949,0.64,-0.623,-5.71,2.14,6.79,-1.62,-4.62,-1.07
2022-01-31 10:17:38.0840,0.996,0.635,-0.634,-6.74,2.73,7.7,-1.16,-4.66,-0.78
2022-01-31 10:17:38.0940,0.963,0.684,-0.631,-7.66,3.18,8.15,-0.51,-4.7,-0.41
2022-01-31 10:17:38.1040,0.829,0.76,-0.607,-7.99,3.17,8.22,0.15,-4.85,-0.11
2022-01-31 10:17:38.1160,0.639,0.822,-0.517,-7.49,2.64,8.12,0.65,-5.15,0.09
2022-01-31 10:17:38.1240,0.48,0.879,-0.347,-5.95,1.89,7.68,0.92,-5.41,0.24
2022-01-31 10:17:38.1340,0.361,0.958,-0.081,-3.98,1.32,6.53,0.96,-5.37,0.32
2022-01-31 10:17:38.1450,0.256,1.039,0.217,-2.38,0.74,4.53,0.74,-5.11,0.34
2022-01-31 10:17:38.1540,0.181,1.125,0.445,-1.14,-0.04,1.63,0.28,-4.66,0.32
2022-01-31 10:17:38.1650,0.117,1.234,0.614,-0.04,-0.84,-1.41,-0.29,-4.14,0.29
2022-01-31 10:17:38.1760,0.026,1.215,0.704,0.72,-1.71,-3.66,-0.99,-3.84,0.21
2022-01-31 10:17:38.1840,0.004,1.086,0.714,1.46,-2.75,-5.29,-1.67,-3.67,0.15
2022-01-31 10:17:38.1940,-0.002,1.001,0.643,2.36,-2.35,-6.03,-2.23,-3.53,0.03
2022-01-31 10:17:38.2070,-0.07,0.942,0.518,2.54,-1.12,-5.94,-2.68,-3.3,-0.15
2022-01-31 10:17:38.2160,-0.137,0.852,0.385,2.7,-0.37,-5.0,-3.04,-3.07,-0.34
2022-01-31 10:17:38.2250,-0.158,0.751,0.249,4.04,1.12,-2.05,-3.23,-2.86,-0.57
2022-01-31 10:17:38.2350,-0.09,0.783,0.132,4.04,1.12,-2.05,-3.3,-2.64,-0.8
2022-01-31 10:17:38.2460,0.039,0.764,0.053,4.14,1.92,-0.47,-3.22,-2.59,-0.87
2022-01-31 10:17:38.2550,0.146,0.657,-0.035,3.33,1.51,0.84,-2.98,-2.78,-0.78
2022-01-31 10:17:38.2650,0.225,0.427,-0.07,2.04,1.78,1.85,-2.61,-3.12,-0.62
2022-01-31 10:17:38.2750,0.234,0.239,-0.033,1.04,2.9,2.85,-2.17,-3.45,-0.43
2022-01-31 10:17:38.2870,0.158,0.297,0.243,0.34,5.22,3.27,-1.78,-3.35,-0.35
2022-01-31 10:17:38.2960,0.105,0.464,0.644,0.43,6.76,2.81,-1.36,-3.18,-0.27
2022-01-31 10:17:38.3080,0.153,0.628,0.669,1.32,5.92,-0.2,-0.91,-3.5,-0.23
2022-01-31 10:17:38.3170,0.048,1.003,0.322,1.71,4.25,-3.87,-0.39,-3.88,-0.54
2022-01-31 10:17:38.3260,0.141,1.45,0.082,1.4,2.55,-3.63,-0.11,-4.27,-0.99
2022-01-31 10:17:38.3360,0.39,1.488,-0.004,2.56,-1.5,-0.09,-0.22,-5.42,-1.51
2022-01-31 10:17:38.3480,0.675,1.281,-0.19,1.18,-5.47,1.73,-0.23,-6.12,-1.45
2022-01-31 10:17:38.3570,1.043,0.941,-0.256,-1.16,-5.35,2.53,-0.4,-5.83,-0.99
2022-01-31 10:17:38.3670,1.194,0.681,0.057,-4.16,-3.12,4.22,-1.0,-4.42,-0.68
2022-01-31 10:17:38.3770,1.114,0.719,0.291,-7.58,0.33,4.38,-1.75,-2.27,-0.63
2022-01-31 10:17:38.3870,0.827,1.219,-0.147,-8.73,2.54,1.04,-2.11,-1.65,-0.94
2022-01-31 10:17:38.3970,0.366,2.046,-1.039,-7.73,1.73,-0.56,-2.07,-3.59,-1.55
2022-01-31 10:17:38.4070,-0.346,2.665,-1.486,-4.76,-3.87,4.84,-1.32,-4.18,-2.31
2022-01-31 10:17:38.4180,-0.811,3.005,-1.182,-0.01,-11.88,13.45,-0.39,-2.94,-2.87
2022-01-31 10:17:38.4260,-0.792,2.629,-0.872,6.91,-17.66,16.93,0.84,-1.66,-2.74
2022-01-31 10:17:38.4370,-0.373,2.051,-0.642,10.67,-20.17,13.31,1.87,-1.34,-1.89
2022-01-31 10:17:38.4480,-0.135,1.613,-0.416,9.65,-15.76,10.38,2.44,-2.08,-0.82
2022-01-31 10:17:38.4560,-0.228,1.399,0.015,5.33,-10.15,7.92,2.01,-3.43,-0.4
2022-01-31 10:17:38.4670,-0.177,1.298,0.538,3.48,-5.97,5.25,0.84,-5.0,-0.11
2022-01-31 10:17:38.4760,0.2,1.197,0.662,4.6,-4.14,0.58,-0.32,-6.83,0.18
2022-01-31 10:17:38.4880,0.278,1.148,0.367,3.63,-3.14,-4.59,-0.79,-7.13,0.59
2022-01-31 10:17:38.4980,0.41,1.371,-0.101,0.14,-2.16,-5.17,-0.87,-5.92,0.62
2022-01-31 10:17:38.5090,0.27,1.207,-0.555,-0.37,-2.12,-2.12,-0.41,-3.81,0.51
2022-01-31 10:17:38.5200,0.385,1.135,-1.273,-1.25,-4.0,2.46,0.17,-2.19,0.25
2022-01-31 10:17:38.5270,0.641,0.994,-1.513,0.07,-2.29,7.1,0.21,-1.89,-0.16
2022-01-31 10:17:38.5370,0.946,0.822,-1.281,-1.33,-1.64,13.97,0.04,-2.28,-0.55
2022-01-31 10:17:38.5490,1.265,0.561,-1.013,-3.93,-0.16,15.43,0.08,-3.08,-0.6
2022-01-31 10:17:38.5570,1.531,0.392,-0.812,-7.0,1.62,12.83,0.37,-3.87,-0.36
2022-01-31 10:17:38.5670,1.621,0.31,-0.532,-10.14,4.24,10.22,0.68,-4.3,0.01
2022-01-31 10:17:38.5790,1.536,0.236,-0.247,-12.6,5.69,8.05,0.99,-4.35,0.48
2022-01-31 10:17:38.5880,1.345,0.287,-0.013,-13.19,6.52,5.01,1.2,-4.04,0.87
2022-01-31 10:17:38.5980,1.036,0.406,0.232,-12.15,7.1,2.09,1.12,-3.61,1.04
2022-01-31 10:17:38.6080,0.7,0.538,0.436,-10.04,6.45,-0.44,0.69,-3.31,0.98
2022-01-31 10:17:38.6190,0.42,0.674,0.568,-6.82,5.2,-3.01,0.06,-3.26,0.86
2022-01-31 10:17:38.6270,0.191,0.795,0.51,-3.5,3.89,-5.07,-0.46,-3.4,0.67
2022-01-31 10:17:38.6390,0.006,0.859,0.357,-0.78,2.51,-6.3,-0.79,-3.36,0.37
2022-01-31 10:17:38.6490,-0.156,0.91,0.226,1.44,1.39,-5.52,-0.9,-3.19,0.17
2022-01-31 10:17:38.6590,-0.306,0.916,0.119,3.22,0.79,-4.07,-1.01,-2.84,0.26
2022-01-31 10:17:38.6680,-0.489,0.88,0.047,4.78,0.31,-2.8,-1.0,-2.32,0.24
2022-01-31 10:17:38.6790,-0.669,0.889,-0.061,6.27,0.34,-1.8,-0.9,-1.64,-0.08
2022-01-31 10:17:38.6880,-0.685,0.93,-0.094,8.12,0.67,-1.04,-0.88,-1.06,-0.44
2022-01-31 10:17:38.6980,-0.521,0.931,-0.104,9.71,0.53,0.05,-0.89,-0.81,-0.75
2022-01-31 10:17:38.7100,-0.225,0.964,-0.091,9.58,0.18,0.32,-1.06,-0.68,-0.99
2022-01-31 10:17:38.7190,0.078,0.994,-0.069,7.68,0.22,0.51,-1.29,-1.02,-1.1
2022-01-31 10:17:38.7280,0.344,1.055,-0.191,4.59,-0.13,0.38,-1.58,-1.94,-1.19
2022-01-31 10:17:38.7390,0.592,1.238,-0.404,1.56,-0.34,0.4,-1.78,-3.02,-1.23
2022-01-31 10:17:38.7490,0.795,1.402,-0.63,-1.16,-1.05,1.85,-1.54,-3.54,-1.17
2022-01-31 10:17:38.7600,0.979,1.351,-0.626,-3.66,-2.9,4.09,-0.97,-3.09,-0.89
2022-01-31 10:17:38.7690,1.166,1.164,-0.531,-5.71,-4.29,6.18,-0.28,-2.29,-0.31
2022-01-31 10:17:38.7790,1.231,0.972,-0.485,-7.59,-3.52,5.88,0.38,-1.7,0.31
2022-01-31 10:17:38.7890,1.0,0.851,-0.411,-9.38,-1.63,4.95,0.84,-1.4,0.75
2022-01-31 10:17:38.7990,0.645,0.86,-0.328,-9.67,0.2,4.42,1.03,-1.51,1.0
2022-01-31 10:17:38.8110,0.386,0.89,-0.276,-7.0,1.2,3.51,0.96,-1.88,1.12
2022-01-31 10:17:38.8200,0.225,0.907,-0.217,-3.47,0.99,2.59,0.7,-2.34,1.2
2022-01-31 10:17:38.8290,0.092,0.947,-0.169,-0.98,0.68,1.97,0.4,-2.86,1.21
2022-01-31 10:17:38.8390,-0.049,1.017,-0.139,0.62,0.48,1.26,0.19,-3.22,1.06
2022-01-31 10:17:38.8510,-0.131,1.087,-0.062,2.01,0.0,0.72,0.04,-3.21,0.74
2022-01-31 10:17:38.8610,-0.111,1.138,0.043,3.43,-0.72,0.29,-0.12,-2.82,0.44
2022-01-31 10:17:38.8700,0.003,1.13,0.142,4.14,-1.42,-0.61,-0.26,-2.17,0.3
2022-01-31 10:17:38.8810,0.106,1.027,0.201,3.82,-1.87,-1.71,-0.51,-1.57,0.2
2022-01-31 10:17:38.8900,0.148,0.869,0.239,2.64,-1.69,-2.66,-0.83,-1.09,0.23
2022-01-31 10:17:38.9010,0.246,0.741,0.271,1.74,-0.6,-3.16,-1.15,-0.66,0.43
2022-01-31 10:17:38.9110,0.301,0.714,0.307,1.31,1.01,-3.47,-1.51,-0.31,0.51
2022-01-31 10:17:38.9210,0.26,0.652,0.324,0.36,2.11,-3.66,-1.87,-0.18,0.4
2022-01-31 10:17:38.9300,0.222,0.629,0.274,0.01,2.34,-3.86,-2.05,-0.32,0.19
2022-01-31 10:17:38.9420,0.162,0.738,0.191,0.47,3.04,-3.79,-1.96,-0.25,-0.07
2022-01-31 10:17:38.9530,0.144,0.722,0.163,0.85,3.05,-3.02,-1.71,-0.06,-0.23
2022-01-31 10:17:38.9610,0.144,0.716,0.089,1.44,2.03,-2.11,-1.38,0.02,-0.39
2022-01-31 10:17:38.9700,0.107,0.787,-0.012,1.5,2.34,-1.68,-0.96,-0.06,-0.56
2022-01-31 10:17:38.9800,0.091,0.821,-0.11,1.51,2.26,-0.78,-0.49,-0.25,-0.72
2022-01-31 10:17:38.9920,0.119,0.904,-0.176,1.81,1.61,0.28,-0.02,-0.4,-0.8
2022-01-31 10:17:39.0010,0.172,0.933,-0.169,1.84,1.29,1.24,0.35,-0.47,-0.81
2022-01-31 10:17:39.0140,0.252,0.898,-0.121,1.45,0.47,1.78,0.57,-0.57,-0.77
2022-01-31 10:17:39.0220,0.323,0.847,-0.087,0.83,0.33,1.57,0.67,-0.73,-0.73
2022-01-31 10:17:39.0310,0.347,0.775,-0.071,-0.06,0.71,1.02,0.69,-0.9,-0.69
2022-01-31 10:17:39.0410,0.397,0.706,-0.103,-0.75,1.26,0.63,0.77,-1.03,-0.56
2022-01-31 10:17:39.0520,0.497,0.608,-0.164,-1.04,1.99,0.41,0.95,-0.95,-0.19
2022-01-31 10:17:39.0610,0.597,0.506,-0.229,-1.64,2.69,0.68,1.26,-0.78,0.35
2022-01-31 10:17:39.0720,0.632,0.523,-0.318,-2.66,3.67,1.15,1.72,-0.73,0.84
2022-01-31 10:17:39.0810,0.551,0.677,-0.421,-3.54,4.6,1.66,2.14,-0.76,1.13
2022-01-31 10:17:39.0910,0.342,0.817,-0.449,-3.67,4.16,2.36,2.19,-1.05,0.99
2022-01-31 10:17:39.1020,0.093,0.849,-0.465,-2.62,2.55,3.09,1.94,-1.68,0.54
2022-01-31 10:17:39.1130,-0.068,0.97,-0.523,-0.38,1.23,3.06,1.72,-2.5,0.08
2022-01-31 10:17:39.1230,-0.156,1.113,-0.52,1.98,0.92,3.03,1.55,-2.96,-0.22
2022-01-31 10:17:39.1330,-0.251,1.165,-0.402,3.41,-0.45,3.4,1.54,-2.7,-0.56
2022-01-31 10:17:39.1420,-0.382,1.24,-0.307,4.12,-1.75,2.97,1.53,-1.87,-0.93
2022-01-31 10:17:39.1530,-0.417,1.341,-0.228,5.01,-2.25,1.57,1.48,-0.6,-1.29
2022-01-31 10:17:39.1620,-0.309,1.447,-0.134,6.12,-3.04,0.53,1.47,0.83,-1.6
2022-01-31 10:17:39.1720,-0.134,1.531,-0.124,6.16,-4.07,-0.42,1.65,1.94,-1.74
2022-01-31 10:17:39.1820,0.169,1.578,-0.146,2.94,-5.88,-1.5,1.85,2.45,-1.64
2022-01-31 10:17:39.1930,0.506,1.606,-0.131,2.94,-5.88,-1.5,1.82,2.26,-1.29
2022-01-31 10:17:39.2020,0.671,1.51,-0.151,-0.28,-6.34,-1.46,1.47,1.43,-0.61
2022-01-31 10:17:39.2150,0.685,1.373,-0.133,-3.47,-6.57,-1.73,0.91,0.65,0.02
2022-01-31 10:17:39.2240,0.576,1.246,-0.124,-4.88,-5.47,-1.58,-1.07,-2.61,0.1
2022-01-31 10:17:39.2330,0.849,1.004,-0.5,-4.8,-4.28,-1.91,-1.43,-3.77,0.97
2022-01-31 10:17:39.2420,0.431,1.548,0.17,-4.05,-2.6,-1.45,-1.72,-2.51,1.25
2022-01-31 10:17:39.2540,-0.211,1.781,0.409,-6.71,-0.98,1.77,-2.42,-1.78,0.93
2022-01-31 10:17:39.2630,-0.355,1.737,0.136,-1.42,-6.63,-5.37,-3.24,-1.85,0.65
2022-01-31 10:17:39.2730,-0.353,1.804,0.013,4.22,-8.11,-6.3,-4.05,-2.16,0.51
2022-01-31 10:17:39.2830,-0.338,1.795,-0.013,5.35,-7.73,-3.32,-4.29,-2.17,0.25
2022-01-31 10:17:39.2940,-0.302,1.612,-0.059,5.23,-8.31,-1.99,-4.21,-2.08,-0.02
2022-01-31 10:17:39.3030,-0.225,1.368,-0.102,5.07,-7.96,-1.39,-4.02,-1.82,-0.27
2022-01-31 10:17:39.3160,-0.082,1.156,-0.097,4.62,-5.95,-0.51,-3.69,-1.5,-0.37
2022-01-31 10:17:39.3240,0.074,1.03,-0.13,3.76,-3.5,0.17,-3.3,-1.15,-0.36
2022-01-31 10:17:39.3330,0.149,0.873,-0.157,2.23,-1.5,0.45,-2.8,-0.87,-0.34
2022-01-31 10:17:39.3430,0.175,0.764,-0.267,0.73,-0.26,1.08,-2.14,-0.6,-0.28
2022-01-31 10:17:39.3550,0.116,0.695,-0.319,0.06,1.28,1.63,-1.44,-0.26,-0.24
2022-01-31 10:17:39.3650,-0.002,0.674,-0.323,-0.15,2.3,2.9,-0.7,0.07,-0.23
2022-01-31 10:17:39.3750,-0.147,0.646,-0.248,0.51,2.89,3.43,-0.1,0.52,-0.13
2022-01-31 10:17:39.3840,-0.267,0.642,-0.11,1.69,3.12,3.45,0.28,1.02,-0.13
2022-01-31 10:17:39.3950,-0.243,0.543,-0.006,3.12,3.37,2.59,0.49,1.37,-0.01
2022-01-31 10:17:39.4050,-0.148,0.412,-0.055,4.17,3.39,1.21,0.25,0.37,0.25
2022-01-31 10:17:39.4160,-0.164,0.526,-0.092,3.73,4.6,0.25,0.28,-0.33,0.16
2022-01-31 10:17:39.4250,-0.141,0.652,-0.004,2.94,5.63,1.0,0.33,-0.85,0.05
2022-01-31 10:17:39.4340,-0.055,0.714,0.023,3.14,4.32,0.95,0.21,-1.12,-0.06
2022-01-31 10:17:39.4450,0.028,0.798,0.064,2.82,3.2,0.19,-0.02,-1.19,-0.22
2022-01-31 10:17:39.4570,0.159,0.843,0.113,1.95,2.59,-0.16,-0.24,-0.98,-0.24
2022-01-31 10:17:39.4640,0.33,0.815,0.192,1.1,1.76,-0.53,-0.33,-0.56,-0.14
2022-01-31 10:17:39.4760,0.448,0.8,0.234,-0.3,1.44,-1.05,-0.34,-0.11,0.02
2022-01-31 10:17:39.4860,0.495,0.78,0.244,-1.95,1.73,-1.78,-0.55,-0.25,0.07
2022-01-31 10:17:39.4950,0.597,0.761,0.196,-3.0,1.84,-2.11,-0.74,-0.55,0.36
2022-01-31 10:17:39.5050,0.621,0.821,0.137,-3.45,2.08,-2.08,-0.77,-0.67,0.52
2022-01-31 10:17:39.5170,0.484,0.963,0.024,-4.43,2.19,-1.53,-0.64,-0.58,0.4
2022-01-31 10:17:39.5260,0.247,1.227,-0.092,-4.42,1.49,-0.84,-0.57,-0.54,0.09
2022-01-31 10:17:39.5350,0.055,1.421,-0.072,-2.85,-0.07,0.37,-0.42,-0.06,-0.13
2022-01-31 10:17:39.5450,-0.053,1.371,0.087,-0.54,-2.69,1.48,-0.25,0.66,-0.17
2022-01-31 10:17:39.5570,-0.007,1.23,0.202,1.25,-4.37,1.08,-0.1,0.97,-0.12
2022-01-31 10:17:39.5660,0.129,1.187,0.247,2.14,-3.6,-0.49,-0.07,0.88,-0.03
2022-01-31 10:17:39.5750,0.183,1.165,0.297,1.48,-2.31,-1.47,-0.14,0.63,0.04
2022-01-31 10:17:39.5850,0.153,1.156,0.292,0.17,-1.97,-1.88,-0.21,0.47,0.01
2022-01-31 10:17:39.5950,0.114,1.138,0.254,-0.23,-1.73,-2.32,-0.19,0.57,-0.03
2022-01-31 10:17:39.6070,0.102,1.07,0.199,0.12,-1.69,-2.17,-0.08,0.76,-0.05
2022-01-31 10:17:39.6180,0.098,0.988,0.122,0.45,-1.44,-1.75,0.09,0.88,-0.05
2022-01-31 10:17:39.6280,0.042,0.944,0.09,0.53,-0.72,-1.17,0.24,1.03,-0.09
2022-01-31 10:17:39.6360,0.003,0.866,0.15,0.62,0.03,-0.43,0.31,1.44,-0.15
2022-01-31 10:17:39.6460,-0.024,0.8,0.22,1.17,0.48,-0.23,0.3,2.0,-0.19
2022-01-31 10:17:39.6570,-0.04,0.793,0.199,1.49,1.27,-0.89,0.08,2.02,-0.1
2022-01-31 10:17:39.6660,-0.105,0.947,0.07,1.71,1.88,-1.53,-0.19,1.66,-0.21
2022-01-31 10:17:39.6770,-0.219,1.134,0.013,1.85,1.8,-1.1,-0.5,1.3,-0.39
2022-01-31 10:17:39.6870,-0.305,1.183,-0.041,2.55,0.1,0.21,-0.86,0.66,-0.78
2022-01-31 10:17:39.6970,-0.223,1.135,-0.233,3.61,-1.56,0.75,-1.07,-0.32,-1.09
2022-01-31 10:17:39.7060,0.132,0.892,-0.411,4.26,-1.97,1.52,-0.78,-0.89,-1.09
2022-01-31 10:17:39.7170,0.416,0.888,-0.445,2.99,-1.18,3.59,-0.22,-0.76,-0.92
2022-01-31 10:17:39.7270,0.529,0.87,-0.35,-0.72,1.1,5.25,0.29,-0.53,-0.88
2022-01-31 10:17:39.7370,0.68,0.712,-0.36,-3.32,0.92,5.35,0.78,-0.42,-0.6
2022-01-31 10:17:39.7460,0.772,0.818,-0.247,-4.43,1.34,4.38,1.14,-0.13,-0.26
2022-01-31 10:17:39.7580,0.584,1.064,0.135,-6.05,2.83,4.46,1.08,0.27,0.01
2022-01-31 10:17:39.7660,0.35,1.113,0.469,-6.65,1.36,2.88,0.74,0.76,0.09
2022-01-31 10:17:39.7780,0.154,1.154,0.569,-4.58,-0.84,-1.15,0.58,2.41,-0.33
2022-01-31 10:17:39.7880,0.022,1.125,0.813,-2.35,-1.21,-4.13,0.06,3.78,-0.56
2022-01-31 10:17:39.7970,0.029,0.958,0.658,-0.54,-1.63,-5.13,-0.97,3.12,-0.61
2022-01-31 10:17:39.8070,-0.003,1.174,0.492,0.5,-0.99,-7.39,-1.37,3.2,-0.9
2022-01-31 10:17:39.8180,-0.027,1.255,0.515,0.27,0.23,-5.2,-1.6,3.57,-1.27
2022-01-31 10:17:39.8290,0.105,1.203,0.395,0.56,-2.05,-3.83,-1.69,3.87,-1.35
2022-01-31 10:17:39.8370,0.283,1.133,0.258,0.44,-2.5,-3.78,-1.95,3.34,-0.93
2022-01-31 10:17:39.8480,0.476,0.876,-0.003,-1.13,-2.09,-2.32,-2.03,3.01,-0.5
2022-01-31 10:17:39.8590,0.322,0.989,0.141,-3.1,-1.12,-0.63,-2.0,3.4,-0.54
2022-01-31 10:17:39.8670,0.175,1.148,0.217,-4.77,1.14,1.85,-2.08,3.46,-0.54
2022-01-31 10:17:39.8770,0.287,1.017,0.036,-3.12,-0.41,0.34,-2.18,3.02,-0.29
2022-01-31 10:17:39.8880,0.315,0.96,-0.051,-2.09,-1.66,0.16,-2.29,2.46,-0.1
2022-01-31 10:17:39.8980,0.287,0.893,-0.041,-3.38,-0.3,2.25,-2.49,1.34,0.12
2022-01-31 10:17:39.9080,0.363,0.633,-0.27,-3.5,0.01,3.05,-2.41,0.12,0.35
2022-01-31 10:17:39.9200,0.39,0.604,-0.254,-3.34,0.91,3.39,-2.33,-0.44,0.48
2022-01-31 10:17:39.9300,0.393,0.541,-0.102,-4.07,3.28,5.89,-2.35,-0.67,0.58
2022-01-31 10:17:39.9380,0.407,0.533,-0.131,-4.18,3.29,5.53,-2.11,-0.72,0.75
2022-01-31 10:17:39.9500,0.363,0.801,-0.257,-4.14,4.0,4.4,-1.57,-0.73,0.83
2022-01-31 10:17:39.9610,0.158,1.014,-0.291,-4.18,3.66,5.07,-1.03,-0.81,0.79
2022-01-31 10:17:39.9700,-0.122,1.047,-0.218,-3.46,0.82,6.41,-0.7,-1.12,0.61
2022-01-31 10:17:39.9790,-0.301,0.965,-0.096,-1.19,-1.03,6.63,-0.56,-1.32,0.41
2022-01-31 10:17:39.9880,-0.27,0.781,-0.0,1.64,-1.24,5.92,-0.49,-1.55,0.33
2022-01-31 10:17:39.9980,-0.128,0.705,0.014,3.23,-0.29,4.72,-0.36,-1.77,0.39
2022-01-31 10:17:40.0110,-0.014,0.785,0.092,2.81,1.49,3.94,-0.34,-1.91,0.46
2022-01-31 10:17:40.0210,0.012,0.919,0.224,1.51,2.0,3.81,-0.34,-1.91,0.46
2022-01-31 10:17:40.0300,-0.022,0.926,0.174,0.6,1.04,2.97,-0.14,-2.69,0.49
2022-01-31 10:17:40.0390,-0.044,1.07,-0.028,0.6,-0.17,1.75,0.38,-3.14,0.17
2022-01-31 10:17:40.0490,-0.057,1.307,-0.039,1.1,-0.24,2.52,0.97,-3.44,-0.2
2022-01-31 10:17:40.0600,-0.045,1.446,0.073,1.44,-1.83,4.35,1.58,-3.87,-0.66
2022-01-31 10:17:40.0690,0.048,1.474,0.076,1.64,-4.1,4.0,2.27,-4.0,-1.05
2022-01-31 10:17:40.0800,0.22,1.617,0.163,1.53,-5.13,2.77,3.05,-3.75,-1.23
2022-01-31 10:17:40.0890,0.356,1.553,0.106,0.51,-5.42,2.45,3.73,-3.29,-1.29
2022-01-31 10:17:40.1000,0.402,1.542,0.145,-1.19,-6.61,1.26,4.16,-2.57,-1.42
2022-01-31 10:17:40.1090,0.368,1.543,0.208,-2.48,-5.74,1.49,4.3,-1.96,-1.56
2022-01-31 10:17:40.1220,0.331,1.378,0.211,-2.9,-5.62,0.52,4.29,-1.67,-1.55
2022-01-31 10:17:40.1300,0.335,1.085,0.243,-2.64,-5.43,-0.46,4.23,-1.92,-1.42
2022-01-31 10:17:40.1400,0.298,0.869,0.617,-2.45,-3.48,-0.86,3.7,-1.62,-1.21
2022-01-31 10:17:40.1500,0.237,0.718,1.335,-2.59,-0.55,-1.84,2.45,0.21,-0.85
2022-01-31 10:17:40.1610,0.242,0.433,1.88,-2.27,1.41,-6.3,1.31,1.45,-0.37
2022-01-31 10:17:40.1700,0.204,0.391,1.049,-1.75,3.03,-13.88,0.65,1.46,-0.2
2022-01-31 10:17:40.1810,0.149,0.413,0.436,-1.91,5.79,-17.83,0.17,0.92,-0.1
2022-01-31 10:17:40.1900,0.184,0.409,0.15,-1.42,5.87,-8.99,-0.5,-0.2,0.08
2022-01-31 10:17:40.2000,0.298,0.58,-0.07,-0.99,5.81,-3.7,-1.38,-1.49,0.36
2022-01-31 10:17:40.2100,0.385,0.736,-0.177,-1.42,5.63,-0.88,-2.02,-2.38,0.73
2022-01-31 10:17:40.2230,0.389,0.952,-0.236,-2.51,3.89,1.31,-2.04,-2.6,1.04
2022-01-31 10:17:40.2310,0.299,1.185,-0.271,-3.18,2.34,2.44,-1.42,-2.04,1.1
2022-01-31 10:17:40.2420,0.124,1.265,-0.226,-2.97,0.09,3.16,-0.64,-1.01,0.97
2022-01-31 10:17:40.2510,-0.057,1.165,-0.125,-1.86,-2.11,3.51,-0.15,-0.11,0.73
2022-01-31 10:17:40.2620,-0.144,1.071,-0.025,0.0,-2.64,3.0,0.07,0.58,0.53
2022-01-31 10:17:40.2700,-0.094,1.013,0.036,1.78,-1.57,2.0,0.18,1.09,0.46
2022-01-31 10:17:40.2810,0.061,0.901,0.035,2.5,-0.73,1.03,0.21,1.42,0.61
2022-01-31 10:17:40.2910,0.172,0.834,-0.014,1.89,-0.14,0.52,0.33,1.35,0.87
2022-01-31 10:17:40.3020,0.165,0.967,-0.015,0.4,1.01,0.56,0.4,1.17,0.99
2022-01-31 10:17:40.3110,0.108,1.145,0.1,-0.48,1.45,1.05,0.32,1.67,0.97
2022-01-31 10:17:40.3220,0.141,1.244,0.221,-0.2,-0.05,0.91,0.4,2.32,0.87
2022-01-31 10:17:40.3320,0.144,1.24,0.139,0.38,-1.74,-0.36,0.52,2.82,0.73
2022-01-31 10:17:40.3410,0.037,1.195,0.15,0.03,-2.59,-1.3,0.47,2.62,0.52
2022-01-31 10:17:40.3530,-0.085,1.167,0.089,0.19,-2.47,-0.5,0.22,1.98,0.35
2022-01-31 10:17:40.3620,-0.063,1.245,0.084,1.35,-2.01,-0.63,0.03,1.47,0.13
2022-01-31 10:17:40.3720,-0.045,1.236,0.094,2.45,-1.85,0.02,-0.3,1.14,-0.11
2022-01-31 10:17:40.3820,-0.067,1.085,0.189,2.09,-2.67,0.05,-0.69,0.95,-0.31
2022-01-31 10:17:40.3910,-0.008,1.053,0.172,1.99,-2.32,-0.07,-0.97,0.32,-0.47
2022-01-31 10:17:40.4010,0.136,1.095,0.081,2.09,-0.87,-0.92,-1.04,-0.08,-0.44
2022-01-31 10:17:40.4130,0.221,1.016,0.111,1.34,-0.76,-0.42,-0.91,0.0,-0.34
2022-01-31 10:17:40.4240,0.262,0.952,0.086,-0.11,-1.08,0.45,-0.75,-0.08,-0.14
2022-01-31 10:17:40.4330,0.3,0.909,-0.014,-0.85,-0.24,0.16,-0.71,-0.5,0.05
2022-01-31 10:17:40.4420,0.301,0.962,-0.052,-1.27,0.35,0.63,-0.74,-0.71,0.18
2022-01-31 10:17:40.4520,0.263,0.999,0.014,-1.59,0.66,1.68,-0.52,-0.2,0.28
2022-01-31 10:17:40.4640,0.22,1.014,0.047,-1.52,0.08,1.96,-0.39,0.04,0.33
2022-01-31 10:17:40.4720,0.192,0.965,-0.002,-1.08,-0.25,1.27,-0.38,0.06,0.37
2022-01-31 10:17:40.4820,0.154,0.914,0.012,-0.65,-0.36,1.17,-0.35,0.02,0.41
2022-01-31 10:17:40.4920,0.112,0.866,0.061,0.09,0.61,1.47,-0.24,0.15,0.42
2022-01-31 10:17:40.5030,0.103,0.852,0.1,0.09,0.61,1.47,-0.07,0.43,0.35
2022-01-31 10:17:40.5120,0.05,0.903,0.126,0.51,1.13,0.98,0.06,0.55,0.19
2022-01-31 10:17:40.5250,-0.06,0.876,0.077,0.61,1.1,0.64,0.15,0.09,-0.04
2022-01-31 10:17:40.5340,-0.185,0.912,-0.024,1.21,0.67,0.42,0.31,-0.86,-0.32
2022-01-31 10:17:40.5430,-0.177,1.02,-0.064,2.35,0.96,0.99,0.42,-1.87,-0.59
2022-01-31 10:17:40.5530,-0.063,1.041,0.086,3.48,0.5,1.89,0.32,-1.89,-0.77
2022-01-31 10:17:40.5640,0.111,1.052,0.303,3.14,-0.55,2.08,0.1,-1.13,-0.65
2022-01-31 10:17:40.5730,0.275,1.072,0.398,1.94,-0.6,0.31,-0.09,-0.34,-0.43
2022-01-31 10:17:40.5840,0.339,1.083,0.345,0.1,-0.76,-1.72,-0.2,0.11,-0.29
2022-01-31 10:17:40.5930,0.36,1.057,0.254,-1.42,-0.94,-2.45,-0.29,0.22,-0.16
2022-01-31 10:17:40.6040,0.381,1.011,0.214,-1.97,-1.03,-1.79,-0.3,0.25,-0.02
2022-01-31 10:17:40.6140,0.371,0.982,0.178,-2.18,-0.73,-0.9,-0.23,0.24,0.07
2022-01-31 10:17:40.6250,0.298,0.977,0.129,-2.39,-0.28,-0.52,-0.18,0.07,0.08
2022-01-31 10:17:40.6350,0.23,0.992,0.094,-2.2,-0.04,-0.13,-0.16,-0.11,-0.01
2022-01-31 10:17:40.6430,0.179,0.993,0.093,-1.45,-0.02,0.38,-0.14,-0.1,-0.08
2022-01-31 10:17:40.6550,0.209,0.908,0.104,-0.8,-0.18,0.69,-0.12,0.12,-0.03
2022-01-31 10:17:40.6650,0.294,0.828,0.13,-0.36,-0.12,0.68,0.01,0.67,0.12
2022-01-31 10:17:40.6750,0.305,0.815,0.13,-0.77,0.79,0.58,0.2,1.16,0.3
2022-01-31 10:17:40.6840,0.208,0.821,0.071,-1.6,1.49,0.31,0.38,1.38,0.35
2022-01-31 10:17:40.6940,0.054,0.922,0.039,-1.53,1.59,0.38,0.47,1.27,0.25
2022-01-31 10:17:40.7040,-0.025,0.971,0.009,-0.46,1.44,0.95,0.42,0.8,0.0
2022-01-31 10:17:40.7150,-0.072,1.049,0.011,1.01,0.44,1.21,0.32,0.28,-0.23
2022-01-31 10:17:40.7270,0.002,1.01,0.084,1.7,-0.03,1.47,0.29,0.03,-0.32
2022-01-31 10:17:40.7360,0.058,0.998,0.165,2.01,-0.71,1.34,0.28,-0.03,-0.37
2022-01-31 10:17:40.7440,0.085,1.031,0.201,1.19,-0.26,0.54,0.23,-0.02,-0.4
2022-01-31 10:17:40.7540,0.118,1.034,0.217,0.67,-0.21,-0.23,0.16,-0.06,-0.39
2022-01-31 10:17:40.7660,0.141,1.008,0.193,0.36,-0.53,-0.57,0.19,-0.1,-0.34
2022-01-31 10:17:40.7750,0.144,1.008,0.16,0.0,-0.48,-0.71,0.24,-0.13,-0.31
2022-01-31 10:17:40.7860,0.12,1.028,0.136,-0.22,-0.24,-0.46,0.34,-0.09,-0.26
2022-01-31 10:17:40.7960,0.112,1.035,0.116,-0.24,-0.27,-0.17,0.53,0.03,-0.26
2022-01-31 10:17:40.8060,0.075,1.04,0.1,-0.04,-0.45,0.0,0.77,0.18,-0.28
2022-01-31 10:17:40.8150,0.064,0.992,0.098,0.03,-0.5,0.14,0.98,0.38,-0.32
2022-01-31 10:17:40.8260,0.077,0.945,0.113,0.36,-0.5,0.2,1.14,0.69,-0.38
2022-01-31 10:17:40.8370,0.076,0.918,0.135,0.38,0.04,0.11,1.25,1.04,-0.47
2022-01-31 10:17:40.8450,0.063,0.931,0.128,0.2,0.48,-0.17,1.21,1.33,-0.56
2022-01-31 10:17:40.8550,0.029,1.002,0.1,0.18,0.75,-0.48,0.97,1.32,-0.7
2022-01-31 10:17:40.8670,0.01,1.017,0.043,0.24,0.53,-0.47,0.72,1.04,-0.8
2022-01-31 10:17:40.8750,0.041,0.948,0.006,0.52,-0.15,-0.24,0.54,0.77,-0.76
2022-01-31 10:17:40.8850,0.095,0.832,0.025,0.55,-0.17,0.28,0.56,0.75,-0.59
2022-01-31 10:17:40.8960,0.101,0.791,0.06,0.13,0.61,0.53,0.64,0.85,-0.45
2022-01-31 10:17:40.9050,0.061,0.847,0.075,-0.44,1.73,0.23,0.73,1.04,-0.41
2022-01-31 10:17:40.9210,-0.006,0.956,0.076,-0.03,1.35,-0.29,0.69,1.11,-0.48
2022-01-31 10:17:40.9310,-0.064,1.019,0.044,0.6,0.29,-0.33,0.55,0.86,-0.53
2022-01-31 10:17:40.9410,-0.083,1.009,0.003,1.06,-0.23,-0.03,0.38,0.46,-0.52
2022-01-31 10:17:40.9500,-0.07,0.959,0.01,1.16,-0.04,0.29,0.2,0.14,-0.46
2022-01-31 10:17:40.9600,-0.042,0.933,0.056,0.95,0.44,0.13,0.06,0.02,-0.39
2022-01-31 10:17:40.9710,-0.006,0.954,0.09,0.62,0.65,-0.35,-0.06,0.02,-0.29
2022-01-31 10:17:40.9800,0.012,0.993,0.096,0.24,0.39,-0.65,-0.06,0.02,-0.19
2022-01-31 10:17:40.9900,-0.016,1.016,0.077,0.08,0.03,-0.66,0.01,0.07,-0.2
2022-01-31 10:17:41.0010,-0.06,1.04,0.083,0.4,-0.2,-0.49,0.13,0.2,-0.28
2022-01-31 10:17:41.0100,-0.053,1.059,0.073,0.76,-0.43,-0.55,0.26,0.41,-0.36
2022-01-31 10:17:41.0210,-0.021,1.07,0.062,0.6,-0.61,-0.46,0.45,0.66,-0.4
2022-01-31 10:17:41.0310,-0.001,1.08,0.033,0.25,-0.69,-0.38,0.66,0.87,-0.44
2022-01-31 10:17:41.0420,-0.001,1.12,-0.003,0.03,-0.83,-0.13,0.87,1.02,-0.54
2022-01-31 10:17:41.0500,-0.021,1.142,-0.034,0.02,-1.23,0.14,1.04,1.08,-0.63
2022-01-31 10:17:41.0620,-0.027,1.126,-0.053,0.14,-1.4,0.35,1.09,1.06,-0.68
2022-01-31 10:17:41.0710,-0.057,1.077,-0.049,0.15,-1.19,0.4,0.99,0.95,-0.74
2022-01-31 10:17:41.0800,-0.093,1.022,-0.03,0.41,-0.7,0.23,0.76,0.84,-0.85
2022-01-31 10:17:41.0910,-0.125,0.975,-0.008,0.66,-0.16,-0.06,0.46,0.82,-1.02
2022-01-31 10:17:41.1020,-0.14,0.939,0.026,0.91,0.28,-0.36,0.23,0.88,-1.07
2022-01-31 10:17:41.1120,-0.105,0.929,0.011,0.86,0.6,-0.68,0.1,1.04,-1.04
2022-01-31 10:19:04.2540,-0.102,0.928,0.029,0.06,-1.26,0.38,0.08,1.28,-0.93
2022-01-31 10:19:04.2550,-0.087,1.0,-0.0,0.5,-1.41,0.34,0.17,1.3,-0.84
2022-01-31 10:17:41.1180,-0.087,1.113,-0.083,-3.22,1.55,-1.28,0.31,1.09,-0.93
2022-01-31 10:19:04.3050,-0.135,1.144,-0.098,0.16,-0.71,-1.21,0.32,0.97,-1.09
2022-01-31 10:19:04.3170,-0.169,1.07,-0.043,1.27,-0.44,-0.71,0.33,0.69,-0.99
Time,-0.246,0.918,-0.138,1.1,-0.14,-0.58,0.42,0.16,-0.95
2022-01-31 10:19:04.3270,-0.342,0.981,-0.135,1.1,-0.14,-0.58,0.28,0.0,-1.22
2022-01-31 10:19:04.2570,-0.301,1.116,-0.068,1.1,-0.14,-0.58,-0.01,-0.03,-1.56
2022-01-31 10:19:04.3280,-0.21,1.04,-0.008,1.1,-0.14,-0.58,-0.39,0.3,-1.62
2022-01-31 10:19:04.3280,-0.046,0.909,0.08,1.1,-0.14,-0.58,-0.64,0.65,-1.2
2022-01-31 10:19:04.3340,0.137,0.826,0.079,1.1,-0.14,-0.58,-0.62,0.61,-0.63
2022-01-31 10:19:04.3270,0.195,0.881,0.014,1.1,-0.14,-0.58,-0.56,0.39,-0.31
2022-01-31 10:19:04.3330,0.102,0.967,0.041,1.1,-0.14,-0.58,-0.66,0.54,-0.21
2022-01-31 10:19:04.3350,-0.071,1.008,0.1,1.1,-0.14,-0.58,-0.8,0.75,-0.18
2022-01-31 10:19:04.3380,-0.19,1.051,0.091,1.1,-0.14,-0.58,-0.93,0.82,-0.23
2022-01-31 10:19:04.3430,-0.272,1.039,0.078,1.1,-0.14,-0.58,-1.06,0.81,-0.27
2022-01-31 10:19:04.3410,-0.317,1.027,0.058,1.1,-0.14,-0.58,-1.11,0.73,-0.32
2022-01-31 10:19:04.3420,-0.309,1.001,0.049,1.1,-0.14,-0.58,-1.1,0.8,-0.36
2022-01-31 10:19:04.3620,-0.282,0.97,0.056,0.79,0.11,-0.52,-1.03,0.92,-0.44
2022-01-31 10:19:04.3570,-0.232,0.96,0.028,0.79,0.11,-0.52,-0.93,0.95,-0.45
2022-01-31 10:19:04.3560,-0.189,0.966,-0.021,0.79,0.11,-0.52,-0.76,0.63,-0.42
2022-01-31 10:19:04.3690,-0.162,1.018,-0.098,0.79,0.11,-0.52,-0.5,-0.06,-0.29
2022-01-31 10:19:04.3660,-0.144,1.043,-0.182,0.79,0.11,-0.52,-0.2,-0.96,-0.25
2022-01-31 10:19:04.3650,-0.121,1.052,-0.219,0.79,0.11,-0.52,-0.05,-1.62,-0.23
Time,-0.049,0.938,-0.106,0.79,0.11,-0.52,-0.58,-1.02,-0.05
Time,-0.071,0.742,0.12,0.79,0.11,-0.52,-0.99,-0.82,0.02
2022-01-31 10:19:04.3720,0.029,0.805,-0.091,0.79,0.11,-0.52,-1.03,-0.77,0.14
2022-01-31 10:19:04.3800,0.149,0.863,-0.172,0.79,0.11,-0.52,-0.89,-0.6,0.35
2022-01-31 10:19:04.3760,0.213,0.861,-0.233,0.79,0.11,-0.52,-0.66,-0.46,0.61
2022-01-31 10:19:04.3770,0.207,0.821,-0.307,0.79,0.11,-0.52,-0.38,-0.51,0.78
2022-01-31 10:19:04.3800,0.147,0.835,-0.379,0.79,0.11,-0.52,-0.04,-0.66,0.82
2022-01-31 10:19:04.3820,0.036,0.909,-0.419,0.79,0.11,-0.52,0.32,-0.76,0.7
2022-01-31 10:19:04.3820,-0.041,1.035,-0.444,0.79,0.11,-0.52,0.76,-0.94,0.43
2022-01-31 10:19:04.3870,-0.017,1.152,-0.482,0.79,0.11,-0.52,1.17,-1.13,0.23
Time,0.052,1.077,-0.455,0.79,0.11,-0.52,1.55,-1.27,0.2
2022-01-31 10:19:04.3930,0.128,0.995,-0.402,0.79,0.11,-0.52,1.93,-1.16,0.31
2022-01-31 10:19:04.3910,0.235,0.904,-0.307,0.79,0.11,-0.52,2.21,-1.03,0.6
2022-01-31 10:19:04.3940,0.343,0.885,-0.171,0.79,0.11,-0.52,2.27,-0.88,0.96
2022-01-31 10:19:04.3930,0.367,0.964,0.134,0.79,0.11,-0.52,1.84,-0.66,1.25
2022-01-31 10:19:04.3930,0.21,1.16,0.744,0.79,0.11,-0.52,1.02,-0.03,1.39
Time,0.01,1.325,1.027,0.79,0.11,-0.52,0.37,0.87,1.33
2022-01-31 10:19:04.4000,-0.099,1.317,0.833,0.79,0.11,-0.52,-0.01,1.34,1.27
Time,-0.162,1.115,0.483,0.79,0.11,-0.52,-0.2,1.28,1.36
2022-01-31 10:19:04.4050,-0.279,0.971,0.26,0.79,0.11,-0.52,-0.3,0.95,1.46
Time,-0.429,0.977,0.133,0.79,0.11,-0.52,-0.33,0.55,1.51
2022-01-31 10:19:04.4060,-0.562,1.061,0.034,0.79,0.11,-0.52,-0.25,0.23,1.51
2022-01-31 10:19:04.4090,-0.633,1.112,-0.068,0.79,0.11,-0.52,-0.03,0.04,1.52
2022-01-31 10:19:04.4120,-0.686,1.142,-0.179,0.79,0.11,-0.52,0.29,-0.07,1.42
2022-01-31 10:19:04.4140,-0.798,1.23,-0.322,0.79,0.11,-0.52,0.74,-0.3,1.07
2022-01-31 10:19:04.4160,-0.942,1.288,-0.503,0.79,0.11,-0.52,1.19,-0.56,0.59
2022-01-31 10:19:04.4180,-0.974,1.237,-0.53,0.79,0.11,-0.52,1.49,-0.94,0.13
2022-01-31 10:19:04.4210,-0.906,1.129,-0.439,0.79,0.11,-0.52,1.61,-1.38,-0.37
2022-01-31 10:19:04.4250,-0.754,1.0,-0.375,0.79,0.11,-0.52,1.54,-2.18,-0.92
2022-01-31 10:19:04.4240,-0.478,0.892,-0.357,0.79,0.11,-0.52,1.26,-2.65,-1.24
2022-01-31 10:19:04.4270,-0.131,0.891,-0.192,0.79,0.11,-0.52,0.82,-2.21,-1.08
2022-01-31 10:19:04.4320,0.05,1.029,-0.081,0.79,0.11,-0.52,0.45,-1.35,-0.85
2022-01-31 10:19:04.4350,0.137,1.147,-0.042,0.79,0.11,-0.52,0.19,-0.49,-0.65
Time,0.192,1.13,-0.061,0.79,0.11,-0.52,0.26,-0.13,-0.45
2022-01-31 10:19:04.4400,0.204,1.087,-0.08,0.79,0.11,-0.52,0.42,-0.29,-0.25
Time,0.209,1.074,0.003,0.79,0.11,-0.52,0.45,-0.75,-0.13
2022-01-31 10:19:04.4450,0.184,1.125,0.222,0.79,0.11,-0.52,0.13,-1.18,-0.18
Time,0.136,1.18,0.511,0.79,0.11,-0.52,-0.43,-1.2,-0.26
2022-01-31 10:19:04.4470,0.135,1.18,0.761,0.79,0.11,-0.52,-1.13,-1.01,-0.27
2022-01-31 10:19:04.4540,0.211,1.141,0.726,0.79,0.11,-0.52,-1.8,-0.81,-0.28
2022-01-31 10:19:04.4530,0.259,1.107,0.512,0.79,0.11,-0.52,-2.35,-0.54,-0.25
Time,0.275,1.058,0.268,0.79,0.11,-0.52,-2.64,-0.23,-0.15
2022-01-31 10:19:04.4550,0.294,1.016,0.043,0.79,0.11,-0.52,-2.68,0.06,0.02
2022-01-31 10:19:04.4550,0.332,0.99,-0.122,0.79,0.11,-0.52,-2.48,0.18,0.24
2022-01-31 10:19:04.4600,0.349,0.981,-0.266,0.79,0.11,-0.52,-2.17,0.05,0.46
Time,0.269,1.013,-0.379,0.79,0.11,-0.52,-1.72,-0.18,0.53
Time,0.111,1.094,-0.403,0.79,0.11,-0.52,-1.13,-0.27,0.46
Time,-0.067,1.17,-0.288,0.79,0.11,-0.52,-0.52,-0.1,0.26
2022-01-31 10:19:04.4680,-0.196,1.186,-0.068,0.79,0.11,-0.52,-0.09,0.32,0.01
2022-01-31 10:19:04.4680,-0.201,1.119,0.216,0.79,0.11,-0.52,0.02,0.77,-0.18
2022-01-31 10:19:04.4680,-0.021,1.04,0.348,0.79,0.11,-0.52,-0.14,0.99,-0.2
2022-01-31 10:19:04.4740,0.144,0.932,0.309,0.79,0.11,-0.52,-0.46,1.13,-0.15
2022-01-31 10:19:04.4740,0.175,0.904,0.22,0.79,0.11,-0.52,-0.6,1.14,-0.18
2022-01-31 10:19:04.4740,0.201,0.983,0.04,0.79,0.11,-0.52,-0.51,0.96,-0.23
2022-01-31 10:19:04.4780,0.221,1.022,-0.102,0.79,0.11,-0.52,-0.27,0.84,-0.3
2022-01-31 10:19:04.4800,0.187,1.036,-0.117,0.79,0.11,-0.52,0.01,1.08,-0.36
2022-01-31 10:19:04.4810,0.166,1.038,-0.056,0.79,0.11,-0.52,0.23,1.32,-0.34
2022-01-31 10:19:04.4830,0.21,1.032,0.001,0.79,0.11,-0.52,0.45,1.58,-0.26
2022-01-31 10:19:04.4850,0.226,0.988,-0.003,0.79,0.11,-0.52,0.64,1.7,-0.13
2022-01-31 10:19:04.4950,0.249,0.974,0.023,0.79,0.11,-0.52,0.69,1.75,0.01
2022-01-31 10:19:04.4910,0.258,0.968,0.116,0.79,0.11,-0.52,0.64,1.94,0.12
Time,0.241,1.006,0.252,0.79,0.11,-0.52,0.4,2.34,0.17
2022-01-31 10:19:04.4960,0.258,1.008,0.414,0.79,0.11,-0.52,-0.05,2.91,0.24
2022-01-31 10:19:04.4980,0.304,0.962,0.524,0.79,0.11,-0.52,-0.61,3.58,0.38
2022-01-31 10:19:04.4980,0.317,0.899,0.481,0.79,0.11,-0.52,-1.06,3.94,0.65
2022-01-31 10:19:04.5010,0.255,0.889,0.28,0.79,0.11,-0.52,-1.36,3.98,0.8
2022-01-31 10:19:04.5050,0.202,0.952,0.118,0.79,0.11,-0.52,-1.56,3.85,0.94
2022-01-31 10:19:04.5090,0.182,0.948,0.003,0.79,0.11,-0.52,-1.75,3.66,1.08
2022-01-31 10:19:04.5130,0.121,0.923,-0.065,0.79,0.11,-0.52,-1.94,3.38,1.19
2022-01-31 10:19:04.5090,0.036,0.918,-0.107,0.79,0.11,-0.52,-2.13,2.92,1.36
2022-01-31 10:19:04.5090,-0.065,0.91,-0.144,0.79,0.11,-0.52,-2.21,2.37,1.62
2022-01-31 10:19:04.5140,-0.169,0.906,-0.168,0.79,0.11,-0.52,-2.02,1.95,1.86
2022-01-31 10:19:04.5120,-0.246,0.89,-0.189,0.79,0.11,-0.52,-1.62,1.6,2.08
2022-01-31 10:19:04.5210,-0.339,0.82,-0.238,0.79,0.11,-0.52,-1.1,1.21,2.16
2022-01-31 10:19:04.5180,-0.499,0.792,-0.39,0.79,0.11,-0.52,-0.42,0.79,2.01
2022-01-31 10:19:04.5200,-0.654,0.797,-0.518,0.79,0.11,-0.52,0.46,1.02,1.62
2022-01-31 10:19:04.5220,-0.756,0.798,-0.536,0.79,0.11,-0.52,1.2,1.55,1.15
2022-01-31 10:19:04.5230,-0.671,0.775,-0.589,0.79,0.11,-0.52,1.61,1.76,0.65
2022-01-31 10:19:04.5260,-0.521,0.653,-0.585,0.79,0.11,-0.52,1.89,2.0,0.31
2022-01-31 10:19:04.5280,-0.262,0.524,-0.531,0.79,0.11,-0.52,2.2,2.46,0.17
2022-01-31 10:19:04.5290,0.058,0.48,-0.491,0.79,0.11,-0.52,2.5,2.86,0.2
2022-01-31 10:19:04.5310,0.363,0.492,-0.281,0.79,0.11,-0.52,2.21,2.84,0.22
2022-01-31 10:19:04.5330,0.515,0.777,-0.051,0.79,0.11,-0.52,1.78,1.99,0.65
2022-01-31 10:19:04.5350,0.457,1.063,-0.024,0.79,0.11,-0.52,1.4,1.05,0.85
2022-01-31 10:19:04.5350,0.542,1.214,-0.142,0.79,0.11,-0.52,1.39,-0.08,1.38
2022-01-31 10:19:04.5400,0.691,1.281,-0.219,0.79,0.11,-0.52,1.42,-0.73,1.7
2022-01-31 10:19:04.5410,0.594,1.334,-0.191,0.79,0.11,-0.52,1.44,-0.55,1.94
2022-01-31 10:19:04.5430,0.39,1.415,-0.226,0.79,0.11,-0.52,1.6,0.14,1.86
2022-01-31 10:19:04.5450,0.02,1.418,-0.395,0.79,0.11,-0.52,1.86,1.08,1.56
Time,-0.218,1.277,-0.482,0.79,0.11,-0.52,2.21,1.97,1.22
2022-01-31 10:19:04.5490,-0.486,1.075,-0.607,0.79,0.11,-0.52,2.69,2.58,0.68
2022-01-31 10:19:04.5520,-0.603,0.953,-0.614,0.79,0.11,-0.52,2.98,3.05,0.28
2022-01-31 10:19:04.5540,-0.405,0.906,-0.418,0.79,0.11,-0.52,2.84,3.27,0.14
2022-01-31 10:19:04.5550,-0.078,1.016,-0.084,0.79,0.11,-0.52,2.37,3.24,0.08
2022-01-31 10:19:04.5590,0.094,1.071,0.28,0.79,0.11,-0.52,1.65,3.05,0.15
2022-01-31 10:19:04.5600,0.145,1.074,0.496,0.79,0.11,-0.52,0.83,2.31,0.24
2022-01-31 10:19:04.5600,0.048,1.123,0.408,0.79,0.11,-0.52,0.09,1.29,0.19
2022-01-31 10:19:04.5650,-0.107,1.15,0.298,0.79,0.11,-0.52,-0.44,0.71,0.06
2022-01-31 10:19:04.5670,-0.152,1.146,0.214,0.79,0.11,-0.52,-0.7,0.66,-0.01
2022-01-31 10:19:04.5710,-0.138,1.135,0.063,0.79,0.11,-0.52,-0.68,0.59,-0.06
2022-01-31 10:19:04.5700,-0.096,1.155,-0.076,0.79,0.11,-0.52,-0.48,0.12,-0.15
2022-01-31 10:19:04.5720,-0.033,1.212,-0.153,0.79,0.11,-0.52,-0.36,-0.66,-0.23
2022-01-31 10:19:04.5730,0.005,1.155,-0.135,0.79,0.11,-0.52,-0.61,-1.25,-0.14
2022-01-31 10:19:04.5750,0.003,1.111,-0.029,0.79,0.11,-0.52,-1.09,-1.11,0.04
2022-01-31 10:19:04.5770,0.047,1.094,0.07,0.79,0.11,-0.52,-1.32,-0.65,0.24
2022-01-31 10:19:04.5790,0.043,1.022,-0.04,0.79,0.11,-0.52,-1.1,-0.37,0.38
2022-01-31 10:19:04.5810,0.01,1.046,-0.159,0.79,0.11,-0.52,-0.64,-0.19,0.34
2022-01-31 10:19:04.5830,0.023,1.132,-0.213,0.79,0.11,-0.52,-0.23,0.04,0.27
2022-01-31 10:19:04.5850,0.097,1.173,-0.139,0.79,0.11,-0.52,0.08,0.31,0.25
2022-01-31 10:19:04.5880,0.179,1.227,-0.108,0.79,0.11,-0.52,0.34,0.28,0.27
2022-01-31 10:19:04.5890,0.231,1.195,-0.103,0.79,0.11,-0.52,0.44,0.15,0.28
Time,0.23,1.177,-0.051,0.79,0.11,-0.52,0.48,-0.13,0.1
Time,0.243,1.156,-0.031,0.79,0.11,-0.52,0.49,-0.53,-0.03
2022-01-31 10:19:04.6000,0.272,1.068,0.025,0.79,0.11,-0.52,0.26,-0.53,-0.05
2022-01-31 10:19:04.6000,0.284,1.039,0.181,0.79,0.11,-0.52,-0.0,-0.3,-0.09
2022-01-31 10:19:04.6030,0.312,1.013,0.184,0.79,0.11,-0.52,-0.06,-0.0,-0.17
Time,0.379,0.967,0.178,0.79,0.11,-0.52,-0.16,0.43,-0.1
2022-01-31 10:19:04.6070,0.41,0.993,0.182,0.79,0.11,-0.52,-0.26,0.7,0.12
2022-01-31 10:19:04.6130,0.39,0.98,0.113,0.79,0.11,-0.52,-0.37,0.76,0.37
2022-01-31 10:19:04.6180,0.31,0.985,0.058,0.79,0.11,-0.52,-0.54,0.54,0.55
2022-01-31 10:19:04.6160,0.224,1.023,-0.007,0.79,0.11,-0.52,-0.77,0.12,0.61
2022-01-31 10:19:04.6220,0.154,1.029,-0.041,0.79,0.11,-0.52,-1.01,-0.24,0.68
2022-01-31 10:19:04.6280,0.081,1.019,-0.06,0.79,0.11,-0.52,-1.15,-0.48,0.68
2022-01-31 10:19:04.6260,-0.005,1.026,-0.086,0.79,0.11,-0.52,-1.19,-0.54,0.64
2022-01-31 10:19:04.6370,-0.072,0.992,-0.107,0.79,0.11,-0.52,-1.14,-0.54,0.62
2022-01-31 10:19:04.6360,-0.118,0.938,-0.125,0.79,0.11,-0.52,-1.08,-0.48,0.59
2022-01-31 10:19:04.6360,-0.167,0.913,-0.1,0.79,0.11,-0.52,-1.06,-0.37,0.5
2022-01-31 10:19:04.6450,-0.213,0.916,-0.067,0.79,0.11,-0.52,-1.0,-0.32,0.36
2022-01-31 10:19:04.6400,-0.268,0.924,-0.056,0.79,0.11,-0.52,-0.85,-0.31,0.12
2022-01-31 10:19:04.6440,-0.331,0.93,-0.041,0.79,0.11,-0.52,-0.63,-0.32,-0.16
2022-01-31 10:19:04.6440,-0.392,0.937,0.002,0.79,0.11,-0.52,-0.48,-0.4,-0.49
2022-01-31 10:19:04.6530,-0.44,0.957,0.069,0.79,0.11,-0.52,-0.64,-0.65,-0.82
2022-01-31 10:19:04.6520,-0.45,0.994,0.137,0.79,0.11,-0.52,-0.95,-1.18,-1.12
2022-01-31 10:19:04.6530,-0.428,1.066,0.108,0.79,0.11,-0.52,-1.23,-1.78,-1.46
2022-01-31 10:19:04.6610,-0.365,1.063,0.063,0.79,0.11,-0.52,-1.38,-2.14,-1.7
2022-01-31 10:19:04.6610,-0.247,0.983,0.076,0.79,0.11,-0.52,-1.39,-2.2,-1.85
2022-01-31 10:19:04.6580,-0.093,0.929,0.114,0.79,0.11,-0.52,-1.3,-2.13,-1.91
2022-01-31 10:19:04.6600,0.063,0.94,0.143,0.79,0.11,-0.52,-1.21,-2.0,-1.95
2022-01-31 10:19:04.6630,0.204,0.98,0.207,0.79,0.11,-0.52,-1.22,-1.91,-2.01
2022-01-31 10:19:04.6700,0.361,1.018,0.268,0.79,0.11,-0.52,-1.39,-1.79,-2.09
2022-01-31 10:19:04.6700,0.527,0.998,0.354,0.79,0.11,-0.52,-1.39,-1.79,-2.09
2022-01-31 10:19:04.6690,0.668,0.889,0.41,0.79,0.11,-0.52,-2.02,-1.24,-1.79
2022-01-31 10:19:04.6710,0.771,0.832,0.331,0.79,0.11,-0.52,-2.09,-1.01,-1.42
Time,0.8,0.808,0.256,0.79,0.11,-0.52,-1.95,-0.55,-1.07
2022-01-31 10:19:04.6740,0.794,0.752,0.216,0.79,0.11,-0.52,-1.6,0.06,-0.82
2022-01-31 10:19:04.6760,0.766,0.696,0.187,0.79,0.11,-0.52,-1.26,0.87,-0.66
2022-01-31 10:19:04.6790,0.761,0.662,0.221,0.79,0.11,-0.52,-0.9,1.51,-0.47
Time,0.766,0.645,0.166,0.79,0.11,-0.52,-0.54,1.85,-0.18
2022-01-31 10:19:04.6830,0.749,0.653,0.133,0.79,0.11,-0.52,-0.39,1.83,0.15
2022-01-31 10:19:04.6840,0.664,0.767,0.163,0.79,0.11,-0.52,-0.46,1.15,0.39
Time,0.498,0.905,0.206,0.79,0.11,-0.52,-0.73,0.1,0.54
2022-01-31 10:19:04.6930,0.333,0.935,0.383,0.79,0.11,-0.52,-1.17,-0.79,0.59
Time,0.239,0.846,0.602,0.79,0.11,-0.52,-1.64,-1.19,0.63
Time,0.208,0.771,0.729,0.79,0.11,-0.52,-1.81,-0.83,0.65
2022-01-31 10:19:04.6940,0.148,0.839,0.736,0.79,0.11,-0.52,-1.66,0.29,0.49
2022-01-31 10:19:04.7000,0.029,0.889,0.646,0.79,0.11,-0.52,-1.43,1.67,0.18
2022-01-31 10:19:04.7000,-0.026,0.869,0.415,0.79,0.11,-0.52,-1.01,2.67,-0.14
2022-01-31 10:19:04.7000,-0.031,0.904,0.091,0.79,0.11,-0.52,-0.57,3.2,-0.52
2022-01-31 10:19:04.7020,-0.052,1.002,-0.223,0.79,0.11,-0.52,-0.09,3.11,-0.97
2022-01-31 10:19:04.7050,-0.042,1.051,-0.473,0.79,0.11,-0.52,0.36,2.58,-1.27
2022-01-31 10:19:04.7050,0.018,1.016,-0.492,0.79,0.11,-0.52,0.79,1.82,-1.37
2022-01-31 10:19:04.7090,0.012,0.933,-0.35,0.79,0.11,-0.52,1.24,1.45,-1.33
Time,-0.091,0.835,-0.038,0.79,0.11,-0.52,1.67,1.85,-1.19
2022-01-31 10:19:04.7120,-0.213,0.955,0.331,0.79,0.11,-0.52,1.62,2.38,-1.03
2022-01-31 10:19:04.7160,-0.358,1.288,0.462,0.79,0.11,-0.52,1.08,2.35,-1.13
2022-01-31 10:19:04.7160,-0.574,1.506,0.433,0.79,0.11,-0.52,0.34,2.13,-1.57
2022-01-31 10:19:04.7180,-0.696,1.433,0.313,0.79,0.11,-0.52,-0.34,2.1,-2.18
2022-01-31 10:19:04.7210,-0.639,1.103,0.222,0.79,0.11,-0.52,-0.84,2.33,-2.62
2022-01-31 10:19:04.7200,-0.465,0.869,0.077,0.79,0.11,-0.52,-1.03,2.45,-2.76
2022-01-31 10:19:04.7230,-0.226,0.796,-0.117,0.79,0.11,-0.52,-0.9,2.4,-2.62
Time,0.002,0.724,-0.301,0.79,0.11,-0.52,-0.57,2.21,-2.14
2022-01-31 10:19:04.7260,0.198,0.683,-0.482,0.79,0.11,-0.52,-0.05,1.86,-1.54
2022-01-31 10:19:04.7290,0.32,0.755,-0.624,0.79,0.11,-0.52,0.45,1.45,-1.01
2022-01-31 10:19:04.7320,0.399,0.834,-0.667,0.79,0.11,-0.52,0.85,0.97,-0.53
2022-01-31 10:19:04.7370,0.485,0.925,-0.667,0.79,0.11,-0.52,1.13,0.43,-0.08
2022-01-31 10:19:04.7350,0.547,1.005,-0.631,0.79,0.11,-0.52,1.21,-0.29,0.3
Time,0.524,1.09,-0.515,0.79,0.11,-0.52,1.18,-0.98,0.64
2022-01-31 10:19:04.7380,0.49,1.155,-0.39,0.79,0.11,-0.52,1.28,-1.32,0.91
2022-01-31 10:19:04.7390,0.465,1.194,-0.323,0.79,0.11,-0.52,1.53,-1.26,1.09
2022-01-31 10:19:04.7400,0.418,1.22,-0.249,0.79,0.11,-0.52,1.74,-0.91,1.26
2022-01-31 10:19:04.7450,0.352,1.201,-0.185,0.79,0.11,-0.52,1.88,-0.65,1.47
2022-01-31 10:19:04.7460,0.27,1.164,-0.185,0.79,0.11,-0.52,2.0,-0.59,1.58
2022-01-31 10:19:04.7480,0.13,1.152,-0.197,0.79,0.11,-0.52,2.12,-0.63,1.6
2022-01-31 10:19:04.7520,0.036,1.183,-0.169,0.79,0.11,-0.52,2.12,-0.53,1.59
2022-01-31 10:19:04.7540,-0.007,1.2,-0.094,0.79,0.11,-0.52,2.07,-0.3,1.61
2022-01-31 10:19:04.7560,-0.01,1.258,-0.056,0.79,0.11,-0.52,1.99,0.01,1.66
2022-01-31 10:19:04.7580,-0.01,1.361,-0.066,0.79,0.11,-0.52,2.03,0.15,1.63
Time,-0.011,1.434,-0.086,0.79,0.11,-0.52,2.02,0.39,1.62
2022-01-31 10:19:04.7620,0.002,1.459,-0.063,0.79,0.11,-0.52,2.08,0.46,1.63
2022-01-31 10:19:04.7640,0.011,1.473,-0.122,0.79,0.11,-0.52,2.28,0.25,1.56
2022-01-31 10:19:04.7680,0.032,1.448,-0.166,0.79,0.11,-0.52,2.45,-0.02,1.52
2022-01-31 10:19:04.7680,0.151,1.421,-0.101,0.79,0.11,-0.52,2.43,0.08,1.62
2022-01-31 10:19:04.7700,0.246,1.38,0.02,0.79,0.11,-0.52,2.18,0.47,1.88
2022-01-31 10:19:04.7760,0.276,1.314,0.088,0.79,0.11,-0.52,1.82,0.79,2.17
2022-01-31 10:19:04.7720,0.271,1.274,0.077,0.79,0.11,-0.52,1.56,0.77,2.3
2022-01-31 10:19:04.7810,0.261,1.266,0.011,0.23,0.21,-0.16,1.43,0.52,2.36
2022-01-31 10:19:04.7760,0.296,1.299,-0.031,0.23,0.21,-0.16,1.39,0.22,2.41
2022-01-31 10:19:04.7790,0.315,1.348,-0.074,0.23,0.21,-0.16,1.46,-0.15,2.33
2022-01-31 10:19:04.7840,0.294,1.393,-0.125,0.23,0.21,-0.16,1.6,-0.57,2.2
2022-01-31 10:19:04.7840,0.275,1.45,-0.137,0.23,0.21,-0.16,1.76,-0.76,2.22
2022-01-31 10:19:04.7830,0.244,1.611,-0.102,0.23,0.21,-0.16,1.93,-0.82,2.25
2022-01-31 10:19:04.7860,0.162,1.863,-0.073,0.23,0.21,-0.16,2.07,-0.83,2.16
2022-01-31 10:19:04.7890,0.008,2.142,0.022,0.23,0.21,-0.16,2.19,-0.83,1.96
2022-01-31 10:19:04.7910,-0.244,2.326,0.256,0.23,0.21,-0.16,2.06,-0.64,1.67
Time,-0.564,2.234,0.655,0.23,0.21,-0.16,1.46,0.01,1.2
2022-01-31 10:19:04.7980,-0.737,1.853,0.934,0.23,0.21,-0.16,0.47,0.66,0.75
2022-01-31 10:19:04.7980,-0.593,1.479,0.865,0.23,0.21,-0.16,-0.56,0.75,0.43
2022-01-31 10:19:04.8060,-0.345,1.321,0.603,0.23,0.21,-0.16,-1.42,0.4,0.13
2022-01-31 10:19:04.8090,-0.179,1.32,0.348,0.23,0.21,-0.16,-1.92,-0.02,-0.17
2022-01-31 10:19:04.8040,-0.065,1.385,0.132,0.23,0.21,-0.16,-1.95,-0.32,-0.44
2022-01-31 10:19:04.8090,0.021,1.493,-0.002,0.23,0.21,-0.16,-1.64,-0.4,-0.51
2022-01-31 10:19:04.8130,0.113,1.559,-0.054,0.23,0.21,-0.16,-1.33,-0.21,-0.54
2022-01-31 10:19:04.8210,0.141,1.547,-0.016,0.23,0.21,-0.16,-1.18,0.11,-0.58
2022-01-31 10:19:04.8200,0.157,1.525,0.003,0.23,0.21,-0.16,-1.18,0.42,-0.61
2022-01-31 10:19:04.8200,0.168,1.485,-0.009,0.23,0.21,-0.16,-1.24,0.57,-0.57
2022-01-31 10:19:04.8290,0.169,1.394,-0.044,0.23,0.21,-0.16,-1.33,0.55,-0.47
2022-01-31 10:19:04.8290,0.175,1.302,-0.057,0.23,0.21,-0.16,-1.44,0.38,-0.39
2022-01-31 10:19:04.8280,0.165,1.196,-0.044,0.23,0.21,-0.16,-1.54,0.15,-0.36
2022-01-31 10:19:04.8310,0.144,1.059,-0.021,0.23,0.21,-0.16,-1.64,-0.03,-0.39
2022-01-31 10:19:04.8360,0.146,0.935,-0.011,0.23,0.21,-0.16,-1.71,-0.08,-0.43
2022-01-31 10:19:04.8370,0.174,0.85,-0.01,0.23,0.21,-0.16,-1.78,0.06,-0.38
2022-01-31 10:19:04.8370,0.231,0.82,-0.005,0.23,0.21,-0.16,-1.78,0.06,-0.38
2022-01-31 10:19:04.8460,0.282,0.793,-0.012,0.23,0.21,-0.16,-1.99,0.7,-0.0
2022-01-31 10:19:04.8460,0.286,0.76,-0.062,0.23,0.21,-0.16,-2.06,0.92,0.14
2022-01-31 10:19:04.8490,0.262,0.741,-0.085,0.23,0.21,-0.16,-2.12,1.02,0.13
2022-01-31 10:19:04.8480,0.251,0.744,-0.105,0.23,0.21,-0.16,-2.18,1.01,0.08
Time,0.27,0.754,-0.129,0.23,0.21,-0.16,-2.2,0.78,0.06
2022-01-31 10:19:04.8540,0.268,0.75,-0.178,0.23,0.21,-0.16,-2.19,0.24,0.02
2022-01-31 10:19:04.8610,0.24,0.723,-0.25,0.23,0.21,-0.16,-2.12,-0.66,0.04
2022-01-31 10:19:04.8570,0.201,0.648,-0.329,0.23,0.21,-0.16,-1.93,-1.94,0.13
2022-01-31 10:19:04.8610,0.151,0.571,-0.436,0.23,0.21,-0.16,-1.5,-3.63,0.31
2022-01-31 10:19:04.8620,0.096,0.48,-0.512,0.23,0.21,-0.16,-0.93,-5.23,0.67
2022-01-31 10:19:04.8640,-0.015,0.34,-0.464,0.23,0.21,-0.16,-0.43,-6.22,0.9
Time,-0.167,0.297,-0.366,0.23,0.21,-0.16,-0.03,-6.44,0.7
2022-01-31 10:19:04.8710,-0.335,0.365,-0.258,0.23,0.21,-0.16,0.02,-5.6,0.07
2022-01-31 10:19:04.8690,-0.465,0.422,-0.065,0.23,0.21,-0.16,-0.31,-3.74,-0.59
Time,-0.517,0.438,-0.002,0.23,0.21,-0.16,-0.54,-1.6,-0.89
2022-01-31 10:19:04.8750,-0.508,0.5,-0.178,0.23,0.21,-0.16,-0.39,0.33,-0.89
Time,-0.47,0.632,-0.367,0.23,0.21,-0.16,-0.21,2.03,-0.91
Time,-0.379,0.744,-0.466,0.23,0.21,-0.16,-0.12,3.16,-0.98
2022-01-31 10:19:04.8840,-0.262,0.802,-0.579,0.23,0.21,-0.16,-0.32,3.87,-1.11
2022-01-31 10:19:04.8840,-0.143,0.841,-0.667,0.23,0.21,-0.16,-0.1,2.87,-1.05
2022-01-31 10:19:04.8860,0.061,0.827,-1.034,0.23,0.21,-0.16,-0.22,1.58,-0.83
Time,0.163,0.865,-0.717,0.23,0.21,-0.16,-1.04,1.73,-0.79
Time,0.213,0.778,-0.542,0.23,0.21,-0.16,-1.05,1.31,-0.14
2022-01-31 10:19:04.8920,0.315,0.673,-0.712,0.23,0.21,-0.16,-1.16,1.69,0.33
2022-01-31 10:19:04.8940,0.246,0.633,-0.387,0.23,0.21,-0.16,-1.42,2.63,0.48
2022-01-31 10:19:04.8980,0.231,0.572,-0.29,0.23,0.21,-0.16,-1.4,3.12,0.85
2022-01-31 10:19:04.8980,0.306,0.493,-0.388,0.23,0.21,-0.16,-1.31,3.6,1.15
2022-01-31 10:19:04.9010,0.336,0.547,-0.403,0.23,0.21,-0.16,-1.01,3.75,1.62
Time,0.407,0.574,-0.393,0.23,0.21,-0.16,-0.63,3.79,2.01
2022-01-31 10:19:04.9030,0.395,0.725,-0.398,0.23,0.21,-0.16,-0.37,3.72,1.68
2022-01-31 10:19:04.9070,0.407,0.827,-0.359,0.23,0.21,-0.16,-0.06,3.41,1.76
Time,0.539,0.939,-0.339,0.23,0.21,-0.16,0.42,2.97,1.34
2022-01-31 10:19:04.9130,0.461,0.973,-0.428,0.23,0.21,-0.16,1.31,2.37,0.76
2022-01-31 10:19:04.9130,0.464,0.92,-0.276,0.23,0.21,-0.16,1.27,2.73,0.55
2022-01-31 10:19:04.9170,0.508,0.843,-0.044,0.23,0.21,-0.16,0.96,1.62,0.06
Time,0.457,0.927,-0.564,0.23,0.21,-0.16,1.4,-1.55,-0.37
2022-01-31 10:19:04.9190,0.65,0.763,-0.677,0.23,0.21,-0.16,1.48,-4.02,0.1
2022-01-31 10:19:04.9190,0.702,0.843,-0.45,0.23,0.21,-0.16,1.68,-5.82,-0.07
2022-01-31 10:19:04.9210,0.828,0.911,-0.292,0.23,0.21,-0.16,1.97,-6.54,0.39
2022-01-31 10:19:04.9230,0.966,0.94,-0.158,0.23,0.21,-0.16,2.98,-5.5,0.34
2022-01-31 10:19:04.9260,0.95,1.042,0.184,0.23,0.21,-0.16,3.73,-3.28,0.45
Time,0.949,0.899,0.215,0.23,0.21,-0.16,4.14,-1.6,1.02
2022-01-31 10:19:04.9310,0.888,1.048,0.285,0.23,0.21,-0.16,3.93,-1.87,0.98
2022-01-31 10:19:04.9340,0.844,0.98,1.182,0.23,0.21,-0.16,1.54,-2.25,1.29
Time,0.431,1.133,2.537,0.23,0.21,-0.16,0.48,-1.82,0.65
2022-01-31 10:19:04.9390,0.102,1.167,1.704,0.23,0.21,-0.16,-0.18,-0.66,0.49
Time,0.172,1.066,1.287,0.23,0.21,-0.16,-0.66,-0.1,0.32
2022-01-31 10:19:04.9430,0.233,1.053,0.766,0.23,0.21,-0.16,-0.65,-0.36,0.32
2022-01-31 10:19:04.9450,0.307,1.039,0.33,0.23,0.21,-0.16,-0.29,-0.54,0.34
2022-01-31 10:19:04.9450,0.322,1.059,0.293,0.23,0.21,-0.16,-0.07,-0.6,0.44
2022-01-31 10:19:04.9470,0.303,1.082,0.28,0.23,0.21,-0.16,0.23,-1.05,0.58
2022-01-31 10:19:04.9500,0.213,1.192,0.338,0.23,0.21,-0.16,0.29,-1.55,0.62
2022-01-31 10:19:04.9500,0.09,1.331,0.704,0.23,0.21,-0.16,-0.14,-1.72,0.57
Time,0.051,1.44,0.765,0.23,0.21,-0.16,-0.23,-2.46,0.53
2022-01-31 10:19:04.9560,0.05,1.506,0.738,0.23,0.21,-0.16,-0.35,-2.49,0.38
2022-01-31 10:19:04.9570,0.042,1.508,0.749,0.23,0.21,-0.16,-0.28,-2.17,0.16
2022-01-31 10:19:04.9590,0.029,1.499,0.595,0.23,0.21,-0.16,-0.07,-1.62,-0.15
2022-01-31 10:19:04.9620,0.04,1.48,0.41,0.23,0.21,-0.16,0.23,-1.05,-0.48
2022-01-31 10:19:04.9640,0.083,1.478,0.252,0.23,0.21,-0.16,0.5,-0.5,-0.81
2022-01-31 10:19:04.9690,0.166,1.499,0.185,0.23,0.21,-0.16,0.62,-0.01,-1.11
2022-01-31 10:19:04.9670,0.302,1.482,0.176,0.23,0.21,-0.16,0.84,0.37,-1.26
2022-01-31 10:19:04.9710,0.493,1.386,0.285,0.23,0.21,-0.16,0.74,0.79,-1.37
2022-01-31 10:19:04.9740,0.742,1.433,0.538,0.23,0.21,-0.16,0.23,0.86,-1.03
2022-01-31 10:19:04.9740,0.815,1.354,0.81,0.23,0.21,-0.16,-0.61,1.23,-1.27
2022-01-31 10:19:04.9730,0.698,1.349,1.002,0.23,0.21,-0.16,-1.31,1.2,-1.52
2022-01-31 10:19:04.9760,0.751,1.385,0.733,0.23,0.21,-0.16,-1.16,0.26,-1.18
2022-01-31 10:19:04.9800,0.603,1.196,0.605,0.23,0.21,-0.16,-2.17,1.35,-1.61
2022-01-31 10:19:04.9830,0.448,1.383,0.802,0.23,0.21,-0.16,-2.02,0.8,-1.05
2022-01-31 10:19:04.9840,0.601,1.11,0.449,0.23,0.21,-0.16,-1.9,0.64,-0.31
2022-01-31 10:19:04.9840,0.339,0.925,0.571,0.23,0.21,-0.16,-1.98,1.03,0.08
2022-01-31 10:19:04.9890,0.027,0.831,0.667,0.23,0.21,-0.16,-1.97,1.33,0.16
2022-01-31 10:19:04.9890,-0.175,0.97,0.479,0.23,0.21,-0.16,-1.67,1.33,-0.01
Time,-0.259,1.118,0.208,0.23,0.21,-0.16,-1.16,1.57,-0.26
2022-01-31 10:19:04.9930,-0.269,1.059,-0.048,0.23,0.21,-0.16,-0.86,2.02,0.03
2022-01-31 10:19:04.9970,-0.142,1.109,-0.192,0.23,0.21,-0.16,-0.74,1.47,-0.35
2022-01-31 10:19:04.9970,-0.177,1.417,-0.52,0.23,0.21,-0.16,-0.37,0.36,-1.6
Time,-0.039,0.877,-0.536,0.23,0.21,-0.16,-1.18,1.35,-0.73
2022-01-31 10:19:04.9850,-0.029,0.361,-0.255,0.23,0.21,-0.16,-1.64,1.25,-0.11
2022-01-31 10:19:05.0020,-0.129,0.849,-0.613,0.23,0.21,-0.16,-1.57,0.84,-0.44
2022-01-31 10:19:05.0020,0.042,1.084,-0.525,0.23,0.21,-0.16,-1.57,0.84,-0.44
2022-01-31 10:19:05.0060,0.21,0.871,-0.474,0.23,0.21,-0.16,-1.07,0.24,-0.3
2022-01-31 10:19:05.0090,0.219,0.743,-0.519,0.23,0.21,-0.16,-1.15,-0.14,-0.15
2022-01-31 10:19:05.0100,0.289,0.728,-0.223,0.23,0.21,-0.16,-1.84,0.1,0.18
Time,0.325,0.804,-0.181,0.23,0.21,-0.16,-1.85,-0.73,0.03
2022-01-31 10:19:05.0160,0.303,0.914,-0.38,0.23,0.21,-0.16,-2.19,-1.63,0.19
2022-01-31 10:19:05.0200,0.296,0.919,-0.436,0.23,0.21,-0.16,-2.26,-3.0,0.16
2022-01-31 10:19:05.0200,0.285,0.918,-0.419,0.23,0.21,-0.16,-2.04,-4.01,0.15
2022-01-31 10:19:05.0200,0.285,0.765,-0.19,0.23,0.21,-0.16,-1.98,-3.18,0.17
2022-01-31 10:19:05.0240,0.218,0.56,-0.058,0.23,0.21,-0.16,-1.06,-1.8,0.24
Time,0.16,0.365,0.163,0.23,0.21,-0.16,-0.35,0.15,0.39
Time,0.076,0.397,0.205,0.23,0.21,-0.16,-0.08,1.0,0.5
2022-01-31 10:19:05.0300,0.118,0.519,0.036,0.23,0.21,-0.16,-0.12,0.57,0.63
2022-01-31 10:19:05.0320,0.18,0.777,-0.102,0.23,0.21,-0.16,-0.36,-0.26,0.76
2022-01-31 10:19:05.0230,0.233,1.001,-0.13,0.23,0.21,-0.16,-0.5,-1.17,0.78
2022-01-31 10:19:05.0370,0.181,1.192,-0.347,0.23,0.21,-0.16,-0.59,-2.34,0.73
2022-01-31 10:19:05.0380,0.16,1.348,-0.553,0.23,0.21,-0.16,-0.32,-3.08,0.41
2022-01-31 10:19:05.0380,0.166,1.529,-0.446,0.23,0.21,-0.16,0.23,-2.7,0.22
2022-01-31 10:19:05.0380,-0.001,1.721,-0.103,0.23,0.21,-0.16,1.61,0.11,-2.18
Time,-0.106,1.609,0.193,0.23,0.21,-0.16,2.77,2.8,-2.85
2022-01-31 10:19:05.0420,0.222,0.63,-0.005,0.23,0.21,-0.16,3.29,4.56,-1.75
2022-01-31 10:19:05.0430,0.269,0.462,0.113,0.23,0.21,-0.16,3.41,6.0,2.64
2022-01-31 10:19:05.0490,0.209,0.409,0.383,0.23,0.21,-0.16,1.22,7.99,3.14
2022-01-31 10:19:05.0390,-0.595,1.406,0.514,0.23,0.21,-0.16,0.31,5.34,1.46
2022-01-31 10:19:05.0550,-0.456,1.781,-0.612,0.23,0.21,-0.16,-0.68,-1.15,-0.25
2022-01-31 10:19:05.0570,-0.319,2.433,-0.496,0.23,0.21,-0.16,-2.92,-4.92,-1.7
2022-01-31 10:19:05.0590,0.101,2.257,0.093,0.23,0.21,-0.16,-5.81,-5.29,-0.93
2022-01-31 10:19:05.0620,0.257,1.935,0.096,0.23,0.21,-0.16,-5.41,-6.16,-1.94
2022-01-31 10:19:05.0450,0.959,1.611,-1.277,0.23,0.21,-0.16,-2.93,-5.79,-1.44
2022-01-31 10:19:05.0650,1.75,1.183,-1.215,0.23,0.21,-0.16,-1.26,-4.42,-0.6
2022-01-31 10:19:05.0660,1.996,0.715,-1.569,0.23,0.21,-0.16,-0.07,-6.82,0.37
2022-01-31 10:19:05.0660,2.054,0.312,-1.554,0.23,0.21,-0.16,1.43,-7.18,1.27
2022-01-31 10:19:05.0700,1.575,0.614,-0.026,0.23,0.21,-0.16,2.09,-4.29,1.78
2022-01-31 10:19:05.0720,0.78,1.174,1.755,0.23,0.21,-0.16,1.31,-0.98,1.88
2022-01-31 10:19:05.0750,0.232,1.541,1.978,0.23,0.21,-0.16,0.06,-0.31,1.67
2022-01-31 10:19:05.0690,-0.044,1.864,0.823,0.23,0.21,-0.16,-0.34,-0.65,1.3
2022-01-31 10:19:05.0710,-0.208,2.192,-0.021,0.23,0.21,-0.16,-0.21,-1.2,0.83
2022-01-31 10:19:05.0780,-0.233,2.161,-0.243,0.23,0.21,-0.16,-0.07,-1.73,0.44
2022-01-31 10:19:05.0800,-0.008,1.744,-0.023,0.23,0.21,-0.16,-0.12,-2.02,0.39
2022-01-31 10:19:05.0810,0.389,1.329,0.271,0.23,0.21,-0.16,-0.22,-2.03,0.55
2022-01-31 10:19:05.0830,0.695,1.107,0.375,0.23,0.21,-0.16,-0.35,-1.9,0.82
2022-01-31 10:19:05.0850,0.84,1.058,0.275,0.23,0.21,-0.16,-0.4,-1.67,1.11
2022-01-31 10:19:05.0880,0.844,1.059,0.116,0.23,0.21,-0.16,-0.39,-1.49,1.37
2022-01-31 10:19:05.0890,0.799,0.941,-0.024,0.23,0.21,-0.16,-0.32,-1.23,1.55
2022-01-31 10:19:05.0910,0.639,0.946,-0.079,0.23,0.21,-0.16,-0.28,-1.01,1.55
2022-01-31 10:19:05.0930,0.457,0.978,-0.12,0.23,0.21,-0.16,-0.33,-0.88,1.49
2022-01-31 10:19:05.0930,0.379,0.888,-0.154,0.23,0.21,-0.16,-0.44,-0.83,1.43
2022-01-31 10:19:05.1000,0.349,0.74,-0.178,0.23,0.21,-0.16,-0.55,-0.79,1.37
2022-01-31 10:19:05.1030,0.319,0.588,-0.223,0.23,0.21,-0.16,-0.6,-0.75,1.31
2022-01-31 10:19:05.1030,0.28,0.447,-0.248,0.23,0.21,-0.16,-0.61,-0.69,1.21
2022-01-31 10:19:05.1040,0.24,0.326,-0.232,0.23,0.21,-0.16,-0.59,-0.57,1.06
2022-01-31 10:19:05.1050,0.2,0.231,-0.219,0.23,0.21,-0.16,-0.54,-0.48,0.87
2022-01-31 10:19:05.1050,0.167,0.158,-0.224,0.23,0.21,-0.16,-0.44,-0.39,0.68
2022-01-31 10:19:05.1110,0.161,0.1,-0.212,0.23,0.21,-0.16,-0.31,-0.3,0.5
2022-01-31 10:19:05.1100,0.16,0.077,-0.145,0.23,0.21,-0.16,-0.21,-0.17,0.35
2022-01-31 10:19:05.1120,0.129,0.102,-0.073,0.23,0.21,-0.16,-0.16,-0.05,0.21
2022-01-31 10:19:05.1190,0.071,0.156,-0.051,0.23,0.21,-0.16,-0.09,0.01,0.07
2022-01-31 10:19:05.1200,0.028,0.208,-0.05,0.23,0.21,-0.16,0.03,0.04,-0.1
Time,-0.015,0.273,-0.062,0.23,0.21,-0.16,0.19,-0.01,-0.33
2022-01-31 10:19:05.1220,-0.033,0.305,-0.088,0.23,0.21,-0.16,0.36,-0.11,-0.6
Time,-0.041,0.347,-0.087,0.23,0.21,-0.16,0.56,-0.09,-0.95
2022-01-31 10:19:05.1280,-0.025,0.415,-0.064,0.23,0.21,-0.16,0.82,0.14,-1.3
2022-01-31 10:19:05.1290,0.078,0.437,-0.051,0.23,0.21,-0.16,1.24,0.56,-1.57
2022-01-31 10:19:05.1320,0.201,0.46,-0.074,0.23,0.21,-0.16,1.78,0.97,-1.73
2022-01-31 10:19:05.1350,0.331,0.468,-0.123,0.23,0.21,-0.16,2.46,1.43,-1.74
2022-01-31 10:19:05.1350,0.402,0.534,-0.131,0.23,0.21,-0.16,3.14,1.83,-1.73
2022-01-31 10:19:05.1400,0.419,0.59,-0.134,0.23,0.21,-0.16,3.81,2.02,-1.68
2022-01-31 10:19:05.1380,0.44,0.662,-0.132,0.23,0.21,-0.16,4.49,1.9,-1.54
2022-01-31 10:19:05.1400,0.485,0.788,-0.065,0.23,0.21,-0.16,5.0,1.57,-1.3
2022-01-31 10:19:05.1440,0.492,1.014,0.299,0.23,0.21,-0.16,5.31,1.9,-1.05
2022-01-31 10:19:05.1460,0.419,1.348,0.9,0.23,0.21,-0.16,5.1,2.05,-0.92
2022-01-31 10:19:05.1460,0.292,1.666,1.327,0.23,0.21,-0.16,5.1,2.05,-0.92
2022-01-31 10:19:05.1500,0.191,1.715,1.133,0.23,0.21,-0.16,3.27,1.25,-1.17
2022-01-31 10:19:05.1500,0.235,1.558,0.735,0.23,0.21,-0.16,2.2,0.5,-1.27
2022-01-31 10:19:05.1520,0.358,1.517,0.378,0.23,0.21,-0.16,1.16,-0.58,-1.15
2022-01-31 10:19:05.1560,0.507,1.629,0.167,0.23,0.21,-0.16,0.09,-1.64,-0.66
2022-01-31 10:19:05.1560,0.651,1.755,0.049,0.23,0.21,-0.16,-0.84,-2.6,0.18
2022-01-31 10:19:05.1560,0.718,1.879,-0.054,0.23,0.21,-0.16,-1.59,-2.96,1.12
2022-01-31 10:19:05.1620,0.622,2.025,0.007,0.23,0.21,-0.16,-1.86,-2.48,1.76
2022-01-31 10:19:05.1620,0.305,2.201,0.051,0.23,0.21,-0.16,-1.81,-1.59,1.71
2022-01-31 10:19:05.1630,0.014,2.188,-0.018,0.23,0.21,-0.16,-1.98,-0.82,1.18
Time,-0.088,1.986,-0.159,0.23,0.21,-0.16,-2.42,-0.5,0.72
2022-01-31 10:19:05.1670,-0.04,1.661,-0.325,0.23,0.21,-0.16,-3.0,-0.77,0.53
2022-01-31 10:19:05.1670,0.038,1.301,-0.49,0.23,0.21,-0.16,-3.0,-0.77,0.53
2022-01-31 10:19:05.1730,0.07,1.06,-0.592,0.23,0.21,-0.16,-3.47,-1.75,0.85
2022-01-31 10:19:05.1750,0.077,0.919,-0.581,0.23,0.21,-0.16,-3.39,-1.9,1.08
2022-01-31 10:19:05.1820,0.049,0.829,-0.514,0.23,0.21,-0.16,-3.18,-1.88,1.2
2022-01-31 10:19:05.1780,0.013,0.734,-0.463,0.23,0.21,-0.16,-2.88,-1.78,1.17
Time,-0.023,0.633,-0.433,0.23,0.21,-0.16,-2.49,-1.53,0.96
2022-01-31 10:19:05.1810,-0.056,0.538,-0.411,0.23,0.21,-0.16,-1.96,-0.98,0.59
2022-01-31 10:19:05.1850,-0.103,0.478,-0.424,0.23,0.21,-0.16,-1.23,-0.01,0.08
Time,-0.164,0.431,-0.51,0.23,0.21,-0.16,-0.25,1.38,-0.49
2022-01-31 10:19:05.1880,-0.183,0.335,-0.595,0.23,0.21,-0.16,0.69,2.66,-0.97
2022-01-31 10:19:05.1910,-0.135,0.195,-0.545,0.23,0.21,-0.16,1.43,3.59,-1.34
2022-01-31 10:19:05.1940,-0.084,0.082,-0.468,0.23,0.21,-0.16,2.0,4.07,-1.57
2022-01-31 10:19:05.1940,-0.046,-0.021,-0.448,0.23,0.21,-0.16,2.48,4.16,-1.72
2022-01-31 10:19:05.1970,-0.04,-0.083,-0.44,0.23,0.21,-0.16,2.82,3.63,-1.79
Time,0.001,-0.138,-0.476,0.23,0.21,-0.16,3.12,2.38,-1.71
2022-01-31 10:19:05.1990,0.019,-0.102,-0.494,0.23,0.21,-0.16,3.33,0.48,-1.95
2022-01-31 10:19:05.2030,-0.012,0.288,-0.468,0.23,0.21,-0.16,2.99,-5.64,-2.88
2022-01-31 10:19:05.2040,0.704,1.546,-0.287,0.23,0.21,-0.16,1.4,-14.03,-3.81
2022-01-31 10:19:05.2050,1.683,2.901,1.404,0.23,0.21,-0.16,-1.27,-10.22,-3.57
2022-01-31 10:19:05.2090,1.961,3.475,3.572,0.23,0.21,-0.16,-2.35,-2.09,-1.39
2022-01-31 10:19:05.2100,1.828,2.822,1.99,0.23,0.21,-0.16,-2.27,2.11,1.03
2022-01-31 10:19:05.2100,1.067,1.706,0.283,0.23,0.21,-0.16,-2.27,2.11,1.03
2022-01-31 10:19:05.2170,0.344,1.107,-0.594,0.23,0.21,-0.16,-1.77,1.58,1.7
2022-01-31 10:19:05.2180,-0.035,0.847,-0.938,0.23,0.21,-0.16,-1.18,0.5,1.12
2022-01-31 10:19:05.2220,-0.146,0.677,-1.138,0.23,0.21,-0.16,-0.59,-0.5,0.49
2022-01-31 10:19:05.2200,-0.093,0.74,-1.05,0.23,0.21,-0.16,-0.55,-1.61,-0.06
2022-01-31 10:19:05.2230,0.03,0.936,-0.766,0.23,0.21,-0.16,-0.7,-2.71,-0.34
2022-01-31 10:19:05.2270,0.307,1.091,-0.462,0.23,0.21,-0.16,-0.74,-3.23,-0.41
Time,0.633,1.077,0.122,0.23,0.21,-0.16,-1.01,-2.28,-0.64
2022-01-31 10:19:05.2270,0.912,0.951,0.713,0.23,0.21,-0.16,-1.11,-0.36,-0.84
2022-01-31 10:19:05.2270,1.268,0.754,0.763,0.23,0.21,-0.16,-1.11,-0.36,-0.84
2022-01-31 10:19:05.2310,1.574,0.571,0.468,0.23,0.21,-0.16,-0.03,2.7,0.1
2022-01-31 10:19:05.2350,1.528,0.521,0.193,0.23,0.21,-0.16,0.41,3.49,0.82
2022-01-31 10:19:05.2340,1.003,0.665,0.062,0.23,0.21,-0.16,0.31,3.5,1.12
2022-01-31 10:19:05.2390,0.58,0.788,-0.188,0.23,0.21,-0.16,0.08,3.01,1.27
2022-01-31 10:19:05.2450,0.33,0.815,-0.471,0.23,0.21,-0.16,-0.13,2.29,1.3
Time,0.126,0.746,-0.669,0.23,0.21,-0.16,-0.39,1.43,1.17
2022-01-31 10:19:05.2430,-0.014,0.674,-0.779,0.23,0.21,-0.16,-0.73,0.52,0.98
Time,-0.086,0.666,-0.776,0.23,0.21,-0.16,-1.11,-0.2,0.87
2022-01-31 10:19:05.2500,-0.101,0.674,-0.673,0.23,0.21,-0.16,-1.51,-0.75,0.89
2022-01-31 10:19:05.2510,-0.094,0.733,-0.604,0.23,0.21,-0.16,-1.73,-1.16,1.07
2022-01-31 10:19:05.2540,-0.143,0.845,-0.501,0.23,0.21,-0.16,-1.24,-1.06,1.21
Time,-0.291,1.124,-0.32,0.23,0.21,-0.16,0.08,-0.42,0.81
2022-01-31 10:19:05.2570,-0.441,1.426,-0.211,0.23,0.21,-0.16,1.42,0.29,-0.15
2022-01-31 10:19:05.2610,-0.358,1.371,-0.177,0.23,0.21,-0.16,2.2,0.67,-0.93
2022-01-31 10:19:05.2620,-0.112,1.001,-0.155,0.23,0.21,-0.16,2.47,0.82,-1.22
2022-01-31 10:19:05.2640,0.028,0.703,-0.134,0.23,0.21,-0.16,2.53,0.8,-1.29
2022-01-31 10:19:05.2640,0.05,0.492,-0.165,0.23,0.21,-0.16,2.66,0.56,-1.3
2022-01-31 10:19:05.2670,0.04,0.336,-0.243,0.23,0.21,-0.16,3.03,0.22,-1.31
2022-01-31 10:19:05.2690,0.001,0.213,-0.365,0.23,0.21,-0.16,3.74,-0.03,-1.36
2022-01-31 10:19:05.2710,-0.036,0.157,-0.418,0.23,0.21,-0.16,4.51,-0.26,-1.42
2022-01-31 10:19:05.2710,-0.021,0.172,-0.366,0.23,0.21,-0.16,5.33,-0.34,-1.5
2022-01-31 10:19:05.2710,-0.07,-0.784,-0.628,0.23,0.21,-0.16,5.33,-0.34,-1.5
2022-01-31 10:19:05.2750,-0.06,-0.808,-0.579,0.23,0.21,-0.16,0.58,0.1,-0.22
Time,-0.048,-0.827,-0.562,0.23,0.21,-0.16,0.53,0.09,-0.23
Time,-0.033,-0.85,-0.548,0.23,0.21,-0.16,0.53,0.09,-0.23
2022-01-31 10:19:05.2790,-0.014,-0.872,-0.546,0.23,0.21,-0.16,0.36,-0.02,-0.17
2022-01-31 10:19:05.2830,-0.008,-0.88,-0.54,0.23,0.21,-0.16,0.26,-0.07,-0.14
2022-01-31 10:19:05.2850,-0.011,-0.875,-0.526,0.23,0.21,-0.16,0.17,-0.1,-0.12
2022-01-31 10:19:05.2840,-0.015,-0.864,-0.518,0.23,0.21,-0.16,0.11,-0.12,-0.1
Time,-0.018,-0.856,-0.518,0.23,0.21,-0.16,0.07,-0.12,-0.08
Time,-0.02,-0.86,-0.524,0.23,0.21,-0.16,0.05,-0.12,-0.07
2022-01-31 10:19:05.2910,-0.023,-0.867,-0.522,0.23,0.21,-0.16,0.02,-0.1,-0.04
2022-01-31 10:19:05.2940,-0.025,-0.874,-0.518,0.23,0.21,-0.16,-0.02,-0.08,-0.01
Time,-0.025,-0.876,-0.521,0.23,0.21,-0.16,-0.06,-0.08,0.01
Time,-0.019,-0.866,-0.534,0.23,0.21,-0.16,-0.1,-0.1,-0.02
2022-01-31 10:19:05.3000,-0.01,-0.848,-0.551,0.23,0.21,-0.16,-0.16,-0.18,-0.07
2022-01-31 10:19:05.3020,-0.005,-0.849,-0.564,0.23,0.21,-0.16,-0.23,-0.24,-0.08
2022-01-31 10:19:05.3030,-0.009,-0.865,-0.565,0.23,0.21,-0.16,-0.31,-0.28,-0.03
2022-01-31 10:19:05.3090,-0.009,-0.884,-0.562,0.23,0.21,-0.16,-0.37,-0.33,0.05
2022-01-31 10:19:05.3080,-0.013,-0.883,-0.566,0.23,0.21,-0.16,-0.39,-0.35,0.12
2022-01-31 10:19:05.3090,-0.023,-0.865,-0.567,0.23,0.21,-0.16,-0.39,-0.36,0.16
2022-01-31 10:19:05.3130,-0.034,-0.85,-0.556,0.23,0.21,-0.16,-0.38,-0.33,0.17
2022-01-31 10:19:05.3150,-0.051,-0.827,-0.542,0.23,0.21,-0.16,-0.35,-0.3,0.12
Time,-0.064,-0.813,-0.538,0.23,0.21,-0.16,-0.31,-0.27,0.09
2022-01-31 10:19:05.3140,-0.067,-0.819,-0.539,0.23,0.21,-0.16,-0.27,-0.23,0.08
2022-01-31 10:19:05.3180,-0.065,-0.829,-0.533,0.23,0.21,-0.16,-0.24,-0.17,0.09
2022-01-31 10:19:05.3210,-0.067,-0.836,-0.529,0.23,0.21,-0.16,-0.21,-0.13,0.11
2022-01-31 10:19:05.3220,-0.068,-0.831,-0.531,0.23,0.21,-0.16,-0.21,-0.1,0.09
Time,-0.071,-0.81,-0.526,0.23,0.21,-0.16,-0.22,-0.07,0.07
2022-01-31 10:19:05.3280,-0.082,-0.807,-0.526,0.23,0.21,-0.16,-0.23,-0.01,0.05
2022-01-31 10:19:05.3290,-0.094,-0.819,-0.526,0.23,0.21,-0.16,-0.23,0.05,0.07
2022-01-31 10:19:05.3340,-0.094,-0.829,-0.519,0.23,0.21,-0.16,-0.25,0.11,0.11
2022-01-31 10:19:05.3340,-0.089,-0.828,-0.521,0.23,0.21,-0.16,-0.29,0.12,0.14
2022-01-31 10:19:05.3350,-0.084,-0.818,-0.531,0.23,0.21,-0.16,-0.34,0.13,0.14
2022-01-31 10:19:05.3350,-0.079,-0.809,-0.545,0.23,0.21,-0.16,-0.4,0.11,0.12
Time,-0.079,-0.799,-0.563,0.23,0.21,-0.16,-0.45,0.09,0.08
Time,-0.084,-0.79,-0.576,0.23,0.21,-0.16,-0.5,0.07,0.03
2022-01-31 10:19:05.3440,-0.085,-0.789,-0.585,0.23,0.21,-0.16,-0.53,0.07,0.01
2022-01-31 10:19:05.3460,-0.087,-0.79,-0.59,0.23,0.21,-0.16,-0.52,0.08,0.01
2022-01-31 10:19:05.3470,-0.084,-0.789,-0.6,0.23,0.21,-0.16,-0.49,0.11,0.02
2022-01-31 10:19:05.3490,-0.08,-0.779,-0.616,0.23,0.21,-0.16,-0.45,0.1,0.01
Time,-0.07,-0.77,-0.642,0.23,0.21,-0.16,-0.38,0.08,-0.01
Time,-0.059,-0.772,-0.658,0.23,0.21,-0.16,-0.34,0.06,-0.02
2022-01-31 10:19:05.3560,-0.052,-0.783,-0.652,0.23,0.21,-0.16,-0.3,0.04,-0.02
2022-01-31 10:19:05.3580,-0.053,-0.799,-0.644,0.23,0.21,-0.16,-0.28,0.04,0.01
2022-01-31 10:19:05.3620,-0.053,-0.806,-0.633,0.23,0.21,-0.16,-0.28,0.04,0.04
Time,-0.055,-0.803,-0.623,0.23,0.21,-0.16,-0.29,0.05,0.06
2022-01-31 10:19:05.3630,-0.05,-0.796,-0.615,0.23,0.21,-0.16,-0.3,0.06,0.07
2022-01-31 10:19:05.3660,-0.049,-0.789,-0.622,0.23,0.21,-0.16,-0.3,0.06,0.06
2022-01-31 10:19:05.3660,-0.048,-0.787,-0.623,0.23,0.21,-0.16,-0.32,0.09,0.05
2022-01-31 10:19:05.3700,-0.047,-0.797,-0.609,0.23,0.21,-0.16,-0.37,0.1,0.05
Time,-0.053,-0.806,-0.602,0.23,0.21,-0.16,-0.42,0.12,0.07
2022-01-31 10:19:05.3710,-0.05,-0.808,-0.595,0.23,0.21,-0.16,-0.47,0.15,0.1
2022-01-31 10:19:05.3710,-0.045,-0.798,-0.599,0.23,0.21,-0.16,-0.5,0.2,0.13
Time,-0.045,-0.78,-0.619,0.23,0.21,-0.16,-0.48,0.21,0.16
2022-01-31 10:19:05.3760,-0.048,-0.768,-0.651,0.23,0.21,-0.16,-0.43,0.21,0.19
2022-01-31 10:19:05.3800,-0.055,-0.764,-0.67,0.23,0.21,-0.16,-0.38,0.21,0.21
2022-01-31 10:19:05.3670,-0.065,-0.76,-0.677,0.23,0.21,-0.16,-0.32,0.2,0.22
Time,-0.064,-0.756,-0.691,0.23,0.21,-0.16,-0.26,0.16,0.23
2022-01-31 10:19:05.3760,-0.06,-0.75,-0.707,0.23,0.21,-0.16,-0.22,0.12,0.24
2022-01-31 10:19:05.3910,-0.061,-0.738,-0.703,0.23,0.21,-0.16,-0.18,0.1,0.23
2022-01-31 10:19:05.3930,-0.073,-0.733,-0.687,0.23,0.21,-0.16,-0.14,0.11,0.22
2022-01-31 10:19:05.3950,-0.088,-0.728,-0.671,0.23,0.21,-0.16,0.19,0.31,0.14
Time,-0.122,-0.672,-0.691,0.23,0.21,-0.16,0.35,0.14,0.09
2022-01-31 10:19:05.4000,-0.114,-0.676,-0.657,0.23,0.21,-0.16,0.37,0.25,0.06
2022-01-31 10:19:05.4000,-0.107,-0.704,-0.649,0.23,0.21,-0.16,0.37,0.25,0.06
2022-01-31 10:19:05.4010,-0.095,-0.746,-0.635,0.23,0.21,-0.16,0.06,0.24,0.05
2022-01-31 10:19:05.4010,-0.059,-0.779,-0.638,0.23,0.21,-0.16,-0.18,0.11,0.1
Time,-0.04,-0.812,-0.654,0.23,0.21,-0.16,-0.4,-0.03,0.16
2022-01-31 10:19:05.4070,-0.036,-0.819,-0.663,0.23,0.21,-0.16,-0.57,-0.13,0.21
2022-01-31 10:19:05.3990,-0.051,-0.775,-0.647,0.23,0.21,-0.16,-0.64,-0.16,0.2
2022-01-31 10:19:05.3990,-0.078,-0.733,-0.629,0.23,0.21,-0.16,-0.64,-0.16,0.2
2022-01-31 10:19:05.4120,-0.102,-0.71,-0.641,0.23,0.21,-0.16,-0.56,-0.15,0.04
2022-01-31 10:19:05.4040,-0.104,-0.69,-0.667,0.23,0.21,-0.16,-0.48,-0.11,-0.03
2022-01-31 10:19:05.4150,-0.101,-0.696,-0.69,0.23,0.21,-0.16,-0.4,-0.07,-0.07
Time,-0.097,-0.705,-0.704,0.23,0.21,-0.16,-0.31,-0.06,-0.07
2022-01-31 10:19:05.4220,-0.089,-0.712,-0.712,0.23,0.21,-0.16,-0.24,-0.05,-0.04
2022-01-31 10:19:05.4220,-0.087,-0.713,-0.71,0.23,0.21,-0.16,-0.17,-0.03,-0.02
2022-01-31 10:19:05.4240,-0.081,-0.703,-0.709,0.23,0.21,-0.16,-0.13,-0.02,-0.01
2022-01-31 10:19:05.4260,-0.084,-0.696,-0.704,0.23,0.21,-0.16,-0.1,-0.0,-0.03
2022-01-31 10:19:05.4260,-0.089,-0.697,-0.691,0.23,0.21,-0.16,-0.08,0.03,-0.05
Time,-0.086,-0.701,-0.681,0.23,0.21,-0.16,-0.05,0.05,-0.06
Time,-0.078,-0.705,-0.685,0.23,0.21,-0.16,-0.03,0.03,-0.08
2022-01-31 10:19:05.4330,-0.064,-0.701,-0.691,0.23,0.21,-0.16,-0.01,0.05,-0.09
2022-01-31 10:19:05.4380,-0.051,-0.704,-0.676,0.23,0.21,-0.16,-0.02,0.07,-0.1
2022-01-31 10:19:05.4380,-0.054,-0.727,-0.674,0.23,0.21,-0.16,-0.04,0.06,-0.11
2022-01-31 10:19:05.4270,-0.067,-0.73,-0.688,0.23,0.21,-0.16,-0.06,0.05,-0.11
2022-01-31 10:19:05.4420,-0.061,-0.73,-0.691,0.23,0.21,-0.16,-0.1,0.06,-0.1
2022-01-31 10:19:05.4420,-0.058,-0.732,-0.687,0.23,0.21,-0.16,-0.12,0.07,-0.1
2022-01-31 10:19:05.4450,-0.061,-0.726,-0.685,0.23,0.21,-0.16,-0.13,0.07,-0.09
2022-01-31 10:19:05.4470,-0.056,-0.721,-0.689,0.23,0.21,-0.16,-0.12,0.09,-0.09
2022-01-31 10:19:05.4470,-0.052,-0.722,-0.689,0.23,0.21,-0.16,-0.11,0.11,-0.07
2022-01-31 10:19:05.4510,-0.058,-0.725,-0.693,0.23,0.21,-0.16,-0.1,0.14,-0.06
Time,-0.061,-0.723,-0.697,0.23,0.21,-0.16,-0.1,0.17,-0.04
2022-01-31 10:19:05.4550,-0.053,-0.715,-0.708,0.23,0.21,-0.16,-0.08,0.16,-0.02
2022-01-31 10:19:05.4580,-0.038,-0.708,-0.741,0.23,0.21,-0.16,-0.03,0.11,-0.02
2022-01-31 10:19:05.4580,-0.027,-0.705,-0.756,0.23,0.21,-0.16,0.02,0.06,-0.01
2022-01-31 10:19:05.4610,-0.026,-0.706,-0.752,0.23,0.21,-0.16,0.06,-0.01,-0.01
2022-01-31 10:19:05.4620,-0.026,-0.706,-0.753,0.23,0.21,-0.16,0.07,-0.07,-0.02
2022-01-31 10:19:05.4660,-0.029,-0.697,-0.744,0.23,0.21,-0.16,0.06,-0.1,-0.06
2022-01-31 10:19:05.4580,-0.039,-0.691,-0.734,0.23,0.21,-0.16,0.04,-0.12,-0.1
Time,-0.05,-0.688,-0.724,0.23,0.21,-0.16,0.03,-0.1,-0.12
2022-01-31 10:19:05.4680,-0.058,-0.689,-0.712,0.23,0.21,-0.16,0.03,-0.07,-0.12
2022-01-31 10:19:05.4630,-0.055,-0.695,-0.711,0.23,0.21,-0.16,0.06,-0.04,-0.11
2022-01-31 10:19:05.4730,-0.045,-0.702,-0.724,0.23,0.21,-0.16,0.08,-0.03,-0.09
2022-01-31 10:19:05.4740,-0.039,-0.71,-0.733,0.23,0.21,-0.16,0.09,-0.04,-0.09
2022-01-31 10:19:05.4760,-0.042,-0.71,-0.729,0.23,0.21,-0.16,0.06,-0.06,-0.09
2022-01-31 10:19:05.4800,-0.041,-0.704,-0.723,0.23,0.21,-0.16,0.02,-0.07,-0.09
2022-01-31 10:19:05.4820,-0.033,-0.707,-0.718,0.23,0.21,-0.16,-0.02,-0.06,-0.06
2022-01-31 10:19:05.4820,-0.033,-0.712,-0.719,0.23,0.21,-0.16,-0.06,-0.05,-0.02
2022-01-31 10:19:05.4830,-0.015,-0.699,-0.73,0.23,0.21,-0.16,-0.06,-0.03,0.03
2022-01-31 10:19:05.4890,0.024,-0.662,-0.733,0.23,0.21,-0.16,-0.04,0.02,0.09
2022-01-31 10:19:05.4910,0.031,-0.645,-0.739,0.23,0.21,-0.16,-0.01,0.08,0.15
2022-01-31 10:19:05.4910,0.024,-0.66,-0.744,0.23,0.21,-0.16,0.03,0.12,0.2
2022-01-31 10:19:05.4850,0.017,-0.672,-0.725,0.23,0.21,-0.16,0.04,0.16,0.25
2022-01-31 10:19:05.4990,0.009,-0.665,-0.706,0.23,0.21,-0.16,0.03,0.21,0.27
2022-01-31 10:19:05.4950,0.004,-0.651,-0.695,0.23,0.21,-0.16,-0.01,0.27,0.28
2022-01-31 10:19:05.4950,0.008,-0.65,-0.673,0.23,0.21,-0.16,-0.08,0.35,0.3
2022-01-31 10:19:05.5020,0.01,-0.665,-0.662,0.23,0.21,-0.16,-0.16,0.44,0.33
2022-01-31 10:19:05.5050,0.01,-0.678,-0.665,0.23,0.21,-0.16,-0.22,0.48,0.37
2022-01-31 10:19:05.5080,0.022,-0.678,-0.67,0.23,0.21,-0.16,-0.26,0.52,0.41
2022-01-31 10:19:05.5010,0.039,-0.677,-0.678,0.23,0.21,-0.16,-0.29,0.57,0.43
2022-01-31 10:19:05.5010,0.033,-0.671,-0.689,0.23,0.21,-0.16,-0.29,0.59,0.45
2022-01-31 10:19:05.5140,0.024,-0.669,-0.694,0.23,0.21,-0.16,-0.29,0.6,0.46
2022-01-31 10:19:05.5090,0.027,-0.665,-0.685,0.23,0.21,-0.16,-0.28,0.62,0.48
2022-01-31 10:19:05.5090,0.033,-0.652,-0.681,0.23,0.21,-0.16,-0.29,0.61,0.47
2022-01-31 10:19:05.5210,0.021,-0.632,-0.694,0.23,0.21,-0.16,-0.31,0.6,0.45
2022-01-31 10:19:05.5180,0.006,-0.625,-0.681,0.23,0.21,-0.16,-0.34,0.63,0.44
2022-01-31 10:19:05.5240,0.004,-0.647,-0.662,0.23,0.21,-0.16,-0.36,0.69,0.46
Time,-0.004,-0.682,-0.659,0.23,0.21,-0.16,-0.36,0.74,0.49
2022-01-31 10:19:05.5450,-0.002,-0.705,-0.668,0.23,0.21,-0.16,-0.37,0.77,0.53
2022-01-31 10:19:05.5560,0.013,-0.711,-0.686,0.23,0.21,-0.16,-0.38,0.8,0.56
2022-01-31 10:19:05.5660,0.027,-0.711,-0.703,0.23,0.21,-0.16,-0.41,0.83,0.6
2022-01-31 10:19:05.5750,0.048,-0.72,-0.726,0.23,0.21,-0.16,-0.41,0.81,0.66
2022-01-31 10:19:05.5870,0.066,-0.727,-0.751,0.23,0.21,-0.16,-0.42,0.75,0.73
2022-01-31 10:19:05.5960,0.057,-0.708,-0.756,0.23,0.21,-0.16,-0.44,0.7,0.76
2022-01-31 10:19:05.6060,0.035,-0.686,-0.748,0.23,0.21,-0.16,-0.44,0.68,0.73
2022-01-31 10:19:05.6170,0.016,-0.674,-0.75,0.23,0.21,-0.16,-0.42,0.71,0.67
