time,gFx,gFy,gFz,ax,ay,az,wx,wy,wz
,0.01,-0.367,-0.854,0.71,0.04,-0.22,0.26,-0.23,-0.47
2022-02-07 22:12:39.6680,-0.006,-0.319,-0.883,1.05,-0.11,-0.62,0.27,-0.21,-0.52
2022-02-07 22:12:39.6750,0.005,-0.262,-0.901,1.15,-0.7,-0.3,0.29,-0.19,-0.6
2022-02-07 22:12:39.6850,0.046,-0.25,-0.901,0.89,-1.15,-0.22,0.29,-0.19,-0.6
2022-02-07 22:12:39.6950,0.079,-0.277,-0.921,0.51,-1.11,-0.17,0.36,-0.07,-0.67
2022-02-07 22:12:39.7050,0.092,-0.303,-0.954,0.26,-0.84,0.12,0.42,-0.02,-0.67
2022-02-07 22:12:39.7150,0.084,-0.317,-0.976,0.26,-0.65,0.44,0.5,0.01,-0.65
2022-02-07 22:12:39.7250,0.098,-0.295,-0.971,0.33,-0.65,0.6,0.57,0.06,-0.59
2022-02-07 22:12:39.7350,0.075,-0.286,-0.929,0.22,-0.99,0.42,0.62,0.21,-0.57
2022-02-07 22:12:39.7450,0.044,-0.313,-0.906,0.68,-0.92,0.02,0.66,0.31,-0.53
2022-02-07 22:12:39.7560,0.075,-0.336,-0.934,0.78,-0.72,0.01,0.75,0.32,-0.41
2022-02-07 22:12:39.7650,0.101,-0.353,-0.966,0.46,-0.57,0.43,0.83,0.2,-0.27
2022-02-07 22:12:39.7760,0.091,-0.336,-0.949,0.36,-0.56,0.61,0.87,0.02,-0.17
2022-02-07 22:12:39.7870,0.056,-0.297,-0.892,0.57,-0.94,0.34,0.8,-0.12,-0.16
2022-02-07 22:12:39.7960,0.005,-0.291,-0.782,1.0,-1.32,-0.42,0.64,-0.14,-0.22
2022-02-07 22:12:39.8060,-0.032,-0.321,-0.727,1.46,-1.27,-1.42,0.49,-0.1,-0.33
2022-02-07 22:12:39.8160,-0.059,-0.357,-0.746,1.78,-0.96,-1.59,0.37,-0.06,-0.46
2022-02-07 22:12:39.8270,-0.079,-0.386,-0.794,2.05,-0.65,-1.26,0.29,-0.09,-0.59
2022-02-07 22:12:39.8360,-0.087,-0.392,-0.829,2.2,-0.46,-0.75,0.21,-0.11,-0.73
2022-02-07 22:12:39.8460,-0.079,-0.407,-0.84,2.28,-0.44,-0.55,0.17,-0.06,-0.81
2022-02-07 22:12:39.8560,-0.022,-0.443,-0.886,2.05,-0.16,-0.32,0.14,-0.12,-0.8
2022-02-07 22:12:39.8660,0.03,-0.428,-0.892,1.45,0.06,0.09,0.1,-0.28,-0.82
2022-02-07 22:12:39.8760,0.029,-0.386,-0.872,1.12,-0.27,-0.03,0.0,-0.45,-0.91
2022-02-07 22:12:39.8860,-0.003,-0.377,-0.862,1.32,-0.58,-0.19,-0.13,-0.54,-1.06
2022-02-07 22:12:39.8970,-0.01,-0.402,-0.869,1.57,-0.49,-0.25,-0.26,-0.58,-1.2
2022-02-07 22:12:39.9070,-0.003,-0.417,-0.881,1.55,-0.18,-0.17,-0.39,-0.7,-1.31
2022-02-07 22:12:39.9170,0.002,-0.392,-0.883,1.48,-0.11,-0.09,-0.48,-0.75,-1.43
2022-02-07 22:12:39.9270,0.005,-0.336,-0.885,1.44,-0.47,-0.16,-0.53,-0.7,-1.51
2022-02-07 22:12:39.9370,0.016,-0.319,-0.918,1.38,-0.85,-0.05,-0.54,-0.62,-1.55
2022-02-07 22:12:39.9470,0.025,-0.317,-0.961,1.28,-0.83,0.3,-0.53,-0.55,-1.56
2022-02-07 22:12:39.9570,0.056,-0.302,-0.978,1.17,-0.82,0.69,-0.59,-0.43,-1.48
2022-02-07 22:12:39.9670,0.126,-0.269,-0.903,0.7,-0.96,0.46,-0.76,-0.3,-1.37
2022-02-07 22:12:39.9770,0.095,-0.26,-0.903,0.24,-1.17,-0.24,-0.94,-0.21,-1.36
2022-02-07 22:12:39.9870,0.049,-0.274,-0.936,0.87,-1.02,0.03,-1.14,-0.19,-1.42
2022-02-07 22:12:39.9980,0.043,-0.281,-1.007,1.13,-0.78,0.26,-1.13,-0.2,-1.52
2022-02-07 22:12:40.0070,0.033,-0.288,-1.191,1.26,-0.58,1.45,-0.9,-0.37,-1.63
2022-02-07 22:12:40.0170,0.066,-0.267,-1.236,1.25,-0.47,2.97,-0.62,-0.58,-1.69
2022-02-07 22:12:40.0280,0.105,-0.229,-1.222,0.82,-0.7,2.85,-0.25,-0.65,-1.68
2022-02-07 22:12:40.0380,0.114,-0.206,-1.251,0.55,-0.99,3.0,0.09,-0.64,-1.64
2022-02-07 22:12:40.0480,0.12,-0.184,-1.163,0.49,-1.14,2.89,0.34,-0.57,-1.61
2022-02-07 22:12:40.0580,0.131,-0.132,-1.119,0.42,-1.48,1.94,0.58,-0.49,-1.58
2022-02-07 22:12:40.0680,0.142,-0.123,-1.102,0.3,-1.97,1.82,0.74,-0.49,-1.57
2022-02-07 22:12:40.0780,0.171,-0.186,-1.028,0.17,-1.8,1.45,0.75,-0.49,-1.48
2022-02-07 22:12:40.0880,0.191,-0.246,-0.941,-0.18,-1.14,0.63,0.65,-0.46,-1.37
2022-02-07 22:12:40.0980,0.142,-0.267,-0.875,-0.11,-0.74,-0.15,0.43,-0.52,-1.35
2022-02-07 22:12:40.1090,0.094,-0.266,-0.84,0.47,-0.65,-0.7,0.21,-0.53,-1.36
2022-02-07 22:12:40.1180,0.086,-0.257,-0.874,0.77,-0.68,-0.82,0.06,-0.56,-1.39
2022-02-07 22:12:40.1280,0.097,-0.232,-0.932,0.76,-0.81,-0.32,-0.01,-0.61,-1.44
2022-02-07 22:12:40.1390,0.109,-0.218,-0.959,0.64,-1.03,0.16,-0.05,-0.63,-1.46
2022-02-07 22:12:40.1480,0.148,-0.199,-0.986,0.42,-1.12,0.33,-0.01,-0.59,-1.46
2022-02-07 22:12:40.1580,0.172,-0.195,-1.028,0.03,-1.3,0.68,0.12,-0.55,-1.39
2022-02-07 22:12:40.1690,0.19,-0.236,-1.067,-0.15,-1.14,1.11,0.29,-0.45,-1.22
2022-02-07 22:12:40.1790,0.216,-0.264,-1.026,-0.33,-0.71,1.31,0.38,-0.17,-0.97
2022-02-07 22:12:40.1890,0.241,-0.258,-0.935,-0.69,-0.63,0.53,0.46,0.15,-0.77
2022-02-07 22:12:40.1990,0.175,-0.28,-0.938,-0.49,-0.63,-0.04,0.53,0.29,-0.67
2022-02-07 22:12:40.2090,0.173,-0.233,-0.985,0.01,-0.56,0.24,0.54,0.18,-0.78
2022-02-07 22:12:40.2190,0.075,-0.156,-1.021,0.26,-1.35,0.79,0.47,-0.01,-1.02
2022-02-07 22:12:40.2290,0.047,-0.154,-0.968,1.34,-1.87,0.85,0.46,-0.11,-1.24
2022-02-07 22:12:40.2390,0.068,-0.163,-0.899,1.22,-1.78,0.18,0.56,-0.04,-1.38
2022-02-07 22:12:40.2490,0.1,-0.164,-0.773,1.1,-1.78,-0.57,0.7,0.3,-1.4
2022-02-07 22:12:40.2600,0.157,-0.178,-0.61,0.73,-1.75,-2.05,0.89,0.79,-1.33
2022-02-07 22:12:40.2690,0.194,-0.178,-0.515,0.36,-1.7,-3.42,1.08,1.21,-1.21
2022-02-07 22:12:40.2790,0.253,-0.19,-0.481,0.07,-1.77,-4.01,1.16,1.39,-1.11
2022-02-07 22:12:40.2900,0.268,-0.182,-0.45,-0.27,-1.72,-4.19,1.12,1.4,-1.12
2022-02-07 22:12:40.3000,0.241,-0.128,-0.412,-0.04,-2.05,-4.47,1.01,1.29,-1.27
2022-02-07 22:12:40.3100,0.212,-0.067,-0.365,0.43,-2.72,-4.79,0.88,1.15,-1.47
2022-02-07 22:12:40.3200,0.194,-0.021,-0.327,0.82,-3.29,-5.18,0.83,1.06,-1.7
2022-02-07 22:12:40.3300,0.164,0.046,-0.284,1.17,-3.8,-5.47,0.88,1.17,-1.95
2022-02-07 22:12:40.3400,0.131,0.112,-0.191,1.7,-4.53,-5.96,1.0,1.57,-2.18
2022-02-07 22:12:40.3510,0.093,0.19,-0.062,2.22,-5.17,-6.99,1.21,2.19,-2.41
2022-02-07 22:12:40.3600,0.078,0.28,0.028,2.83,-6.06,-8.04,1.5,2.92,-2.62
2022-02-07 22:12:40.3700,0.075,0.35,0.078,3.25,-6.88,-8.59,1.85,3.72,-2.86
2022-02-07 22:12:40.3800,0.077,0.431,0.122,3.67,-7.58,-8.75,2.2,4.55,-3.22
2022-02-07 22:12:40.3900,0.08,0.545,0.193,4.13,-8.55,-9.0,2.51,5.35,-3.68
2022-02-07 22:12:40.4010,0.131,0.636,0.246,4.56,-9.62,-9.32,2.75,5.92,-4.09
2022-02-07 22:12:40.4100,0.265,0.714,0.293,4.3,-10.41,-9.28,2.81,6.31,-4.41
2022-02-07 22:12:40.4200,0.331,0.681,0.351,3.58,-10.81,-9.38,2.86,6.86,-4.79
2022-02-07 22:12:40.4310,0.393,0.674,0.313,3.82,-10.06,-9.02,2.92,7.29,-5.14
2022-02-07 22:12:40.4410,0.553,0.81,0.273,3.36,-10.4,-7.9,2.91,7.43,-5.52
2022-02-07 22:12:40.4510,0.721,0.911,0.228,2.18,-11.51,-6.84,2.89,7.39,-5.87
2022-02-07 22:12:40.4610,0.857,0.885,0.145,1.16,-11.65,-5.57,2.81,7.14,-6.14
2022-02-07 22:12:40.4710,1.049,0.858,0.011,0.08,-10.67,-3.85,2.61,6.58,-6.45
2022-02-07 22:12:40.4810,1.223,0.959,-0.11,-1.64,-10.33,-1.79,2.32,5.84,-6.83
2022-02-07 22:12:40.4910,1.309,1.088,-0.15,-2.75,-11.01,-0.31,2.11,5.17,-7.17
2022-02-07 22:12:40.5010,1.432,1.132,-0.143,-3.46,-11.33,0.4,2.24,4.91,-7.32
2022-02-07 22:12:40.5110,1.647,1.092,-0.12,-4.95,-10.76,0.7,2.7,5.04,-7.16
2022-02-07 22:12:40.5220,1.959,0.996,-0.076,-7.46,-9.36,0.96,3.29,5.27,-6.79
2022-02-07 22:12:40.5310,2.221,0.948,0.029,-10.7,-7.86,0.76,3.8,5.37,-6.37
2022-02-07 22:12:40.5430,2.304,0.901,0.127,-12.79,-6.88,0.06,4.21,5.26,-5.93
2022-02-07 22:12:40.5520,2.294,0.795,0.174,-13.3,-5.6,-0.28,4.5,5.06,-5.46
2022-02-07 22:12:40.5620,2.31,0.72,0.233,-13.48,-3.94,-0.4,4.65,4.76,-5.13
2022-02-07 22:12:40.5720,2.302,0.734,0.287,-13.91,-3.04,-0.77,4.62,4.22,-4.93
2022-02-07 22:12:40.5820,2.323,0.747,0.368,-14.09,-2.77,-1.11,4.44,3.61,-4.67
2022-02-07 22:12:40.5920,2.372,0.688,0.494,-14.8,-2.22,-2.1,4.21,3.0,-4.22
2022-02-07 22:12:40.6020,2.427,0.536,0.571,-15.51,-0.84,-3.14,3.93,2.43,-3.5
2022-02-07 22:12:40.6120,2.497,0.394,0.642,-16.47,1.12,-3.87,3.59,1.9,-2.67
2022-02-07 22:12:40.6220,2.414,0.317,0.658,-16.96,2.53,-4.53,3.22,1.37,-1.95
2022-02-07 22:12:40.6330,2.215,0.306,0.651,-15.69,3.29,-4.56,2.79,0.89,-1.43
2022-02-07 22:12:40.6430,2.021,0.324,0.662,-13.74,3.31,-4.72,2.32,0.52,-1.02
2022-02-07 22:12:40.6530,1.924,0.287,0.653,-12.22,3.43,-4.9,1.91,0.19,-0.6
2022-02-07 22:12:40.6620,1.89,0.241,0.597,-11.64,3.99,-4.74,1.55,-0.18,-0.21
2022-02-07 22:12:40.6720,1.839,0.21,0.536,-11.31,4.38,-4.27,1.28,-0.46,0.2
2022-02-07 22:12:40.6830,1.796,0.161,0.488,-10.74,4.76,-3.81,1.09,-0.64,0.72
2022-02-07 22:12:40.6920,1.838,0.095,0.414,-10.48,5.23,-3.45,1.01,-0.77,1.4
2022-02-07 22:12:40.7030,1.956,0.003,0.319,-11.2,5.92,-2.69,1.01,-0.94,2.19
2022-02-07 22:12:40.7130,1.976,-0.02,0.26,-12.03,6.55,-1.97,0.96,-1.18,2.89
2022-02-07 22:12:40.7230,1.826,0.06,0.268,-11.43,6.12,-1.79,0.85,-1.38,3.33
2022-02-07 22:12:40.7330,1.605,0.132,0.265,-9.24,4.98,-2.12,0.82,-1.43,3.65
2022-02-07 22:12:40.7530,1.512,0.124,0.233,-6.57,4.31,-2.02,0.89,-1.27,4.03
2022-02-07 22:12:40.8180,1.529,0.038,0.249,-4.59,4.5,-3.29,0.09,0.72,5.62
2022-02-07 22:12:40.8180,1.531,-0.053,0.292,-4.59,4.5,-3.29,0.09,0.72,5.62
2022-02-07 22:12:40.8180,1.437,-0.065,0.322,-4.59,4.5,-3.29,0.09,0.72,5.62
2022-02-07 22:12:40.8180,1.274,-0.024,0.344,-4.59,4.5,-3.29,0.09,0.72,5.62
2022-02-07 22:12:40.8180,1.131,0.015,0.366,-4.59,4.5,-3.29,0.09,0.72,5.62
2022-02-07 22:12:40.8180,1.018,0.056,0.475,-4.59,4.5,-3.29,0.09,0.72,5.62
2022-02-07 22:12:40.8190,0.929,0.13,0.573,-4.59,4.5,-3.29,-0.62,0.75,5.34
2022-02-07 22:12:40.8170,0.697,0.221,0.547,-4.59,4.5,-3.29,-1.19,0.66,4.75
2022-02-07 22:12:40.8370,0.55,0.238,0.453,-4.59,4.5,-3.29,-1.49,0.51,4.07
Time,0.525,0.184,0.26,1.18,0.29,-5.46,-1.43,0.32,3.46
2022-02-07 22:12:40.8550,0.492,0.191,-0.161,4.52,-0.95,-1.14,-0.59,0.42,2.88
2022-02-07 22:12:40.8640,0.596,0.235,-0.313,5.11,-1.74,3.4,0.19,0.43,2.71
2022-02-07 22:12:40.8740,0.778,0.254,-0.074,2.91,-2.24,2.79,0.61,0.35,2.66
2022-02-07 22:12:40.8840,0.724,0.215,0.188,2.25,-2.56,0.09,0.7,0.35,2.54
2022-02-07 22:12:40.8940,0.644,0.18,0.34,2.96,-2.31,-1.97,0.45,0.41,2.22
2022-02-07 22:12:40.9040,0.436,0.279,0.466,3.92,-2.41,-3.25,-0.2,0.16,1.4
2022-02-07 22:12:40.9140,0.338,0.365,0.589,6.49,-4.25,-4.58,-1.08,-0.03,0.81
2022-02-07 22:12:40.9240,0.709,0.099,0.509,5.26,-3.51,-5.15,-1.8,0.38,0.64
2022-02-07 22:12:40.9410,0.806,0.105,0.368,1.94,-1.4,-3.94,-2.29,0.37,0.54
2022-02-07 22:12:40.9630,0.738,0.304,0.177,1.94,-1.4,-3.94,-2.5,0.06,0.31
2022-02-07 22:12:40.9630,0.676,0.345,-0.111,1.94,-1.4,-3.94,-1.95,-0.42,-0.06
2022-02-07 22:12:40.9640,0.547,0.25,-0.662,1.94,-1.4,-3.94,-1.08,-0.6,-0.5
2022-02-07 22:12:40.9700,0.495,0.317,-0.49,1.94,-1.4,-3.94,-0.17,-0.68,-0.71
2022-02-07 22:12:40.9790,0.595,0.335,-0.462,1.94,-1.4,-3.94,0.52,-0.52,-0.8
2022-02-07 22:12:40.9890,0.563,0.471,-0.154,1.94,-1.4,-3.94,0.63,0.08,-1.11
2022-02-07 22:12:40.9890,0.408,0.564,0.065,1.94,-1.4,-3.94,0.4,0.46,-1.65
2022-02-07 22:12:41.0120,0.295,0.535,0.062,1.94,-1.4,-3.94,0.1,0.6,-2.35
2022-02-07 22:12:41.0300,0.336,0.522,0.008,1.94,-1.4,-3.94,-0.09,0.73,-3.16
2022-02-07 22:12:41.0300,0.56,0.585,-0.05,1.94,-1.4,-3.94,-0.08,0.78,-3.79
2022-02-07 22:12:41.0400,0.876,0.585,-0.197,1.94,-1.4,-3.94,0.21,0.81,-3.96
2022-02-07 22:12:41.0500,1.212,0.564,-0.373,1.94,-1.4,-3.94,0.75,1.05,-3.81
2022-02-07 22:12:41.0600,1.498,0.601,-0.441,1.94,-1.4,-3.94,1.18,0.87,-3.53
2022-02-07 22:12:41.0700,1.724,0.583,-0.2,1.94,-1.4,-3.94,1.41,0.9,-3.22
Time,1.484,0.435,-0.133,-1.09,1.15,-0.9,-3.75,0.24,-2.74
Time,0.555,0.211,-0.555,-1.09,1.15,-0.9,-3.75,0.24,-2.74
Time,2.016,0.054,0.065,-1.09,1.15,-0.9,-3.75,0.24,-2.74
Time,2.738,0.065,0.592,-1.09,1.15,-0.9,-3.75,0.24,-2.74
Time,2.494,0.204,0.964,-1.09,1.15,-0.9,-3.75,0.24,-2.74
Time,1.885,0.324,1.399,-1.09,1.15,-0.9,-3.75,0.24,-2.74
Time,0.98,0.522,1.538,-1.09,1.15,-0.9,-3.75,0.24,-2.74
Time,0.559,0.697,0.936,-1.09,1.15,-0.9,-3.75,0.24,-2.74
Time,0.783,0.734,0.755,-1.09,1.15,-0.9,-3.75,0.24,-2.74
Time,0.867,0.924,0.57,-1.09,1.15,-0.9,-3.75,0.24,-2.74
Time,0.82,0.864,0.458,-1.09,1.15,-0.9,-3.75,0.24,-2.74
Time,0.892,0.706,0.364,-1.09,1.15,-0.9,-3.75,0.24,-2.74
Time,0.933,0.625,0.328,-1.09,1.15,-0.9,-3.75,0.24,-2.74
Time,0.914,0.595,0.299,-1.09,1.15,-0.9,-3.75,0.24,-2.74
Time,0.903,0.491,0.293,-1.09,1.15,-0.9,-3.75,0.24,-2.74
Time,0.961,0.356,0.226,-1.09,1.15,-0.9,-3.75,0.24,-2.74
Time,1.05,0.298,0.057,-1.09,1.15,-0.9,-3.75,0.24,-2.74
Time,1.101,0.284,-0.029,-1.09,1.15,-0.9,-3.75,0.24,-2.74
2022-02-07 22:12:41.5680,1.124,0.255,0.042,-1.09,1.15,-0.9,-3.75,0.24,-2.74
2022-02-07 22:12:41.5680,1.107,0.217,0.002,-1.09,1.15,-0.9,-3.75,0.24,-2.74
2022-02-07 22:12:41.5680,1.06,0.15,-0.085,-1.09,1.15,-0.9,-3.75,0.24,-2.74
2022-02-07 22:12:41.5680,0.982,0.106,-0.133,-1.09,1.15,-0.9,-3.75,0.24,-2.74
2022-02-07 22:12:41.5680,0.955,0.19,0.359,-1.09,1.15,-0.9,-3.75,0.24,-2.74
2022-02-07 22:12:41.5680,0.841,0.442,0.715,-1.09,1.15,-0.9,-3.75,0.24,-2.74
2022-02-07 22:12:41.5680,0.562,0.757,0.068,-1.09,1.15,-0.9,-3.75,0.24,-2.74
2022-02-07 22:12:41.5680,0.266,0.957,-0.499,-1.09,1.15,-0.9,-3.75,0.24,-2.74
2022-02-07 22:12:41.5680,-0.024,0.945,-0.651,-1.09,1.15,-0.9,-3.75,0.24,-2.74
2022-02-07 22:12:41.5680,-0.166,1.2,-0.397,-1.09,1.15,-0.9,-3.75,0.24,-2.74
2022-02-07 22:12:41.5680,-0.572,1.931,-0.876,-1.09,1.15,-0.9,-3.75,0.24,-2.74
2022-02-07 22:12:41.5680,-0.85,2.22,-1.616,-1.09,1.15,-0.9,-3.75,0.24,-2.74
2022-02-07 22:12:41.5680,-0.63,1.883,-1.339,-1.09,1.15,-0.9,-3.75,0.24,-2.74
2022-02-07 22:12:41.5680,-0.349,1.423,-1.068,-1.09,1.15,-0.9,-3.75,0.24,-2.74
2022-02-07 22:12:41.5680,-0.048,0.966,-0.829,-1.09,1.15,-0.9,-3.75,0.24,-2.74
2022-02-07 22:12:41.5680,0.106,0.841,-0.637,-1.09,1.15,-0.9,-3.75,0.24,-2.74
2022-02-07 22:12:41.5680,0.21,0.789,-0.426,-1.09,1.15,-0.9,-3.75,0.24,-2.74
2022-02-07 22:12:41.5680,0.258,0.901,-0.295,-1.09,1.15,-0.9,-3.75,0.24,-2.74
2022-02-07 22:12:41.5680,0.367,0.944,-0.168,-1.09,1.15,-0.9,-3.75,0.24,-2.74
2022-02-07 22:12:41.5680,0.841,0.867,1.011,-1.09,1.15,-0.9,-3.75,0.24,-2.74
2022-02-07 22:12:41.5680,1.985,1.567,3.824,-1.09,1.15,-0.9,-3.75,0.24,-2.74
2022-02-07 22:12:41.5680,1.391,2.988,1.744,-1.09,1.15,-0.9,-3.75,0.24,-2.74
2022-02-07 22:12:41.5680,1.742,1.087,0.81,-1.09,1.15,-0.9,-3.75,0.24,-2.74
2022-02-07 22:12:41.5680,1.964,-0.049,0.664,-1.09,1.15,-0.9,-3.75,0.24,-2.74
2022-02-07 22:12:41.5680,1.853,-0.183,0.401,-1.09,1.15,-0.9,-3.75,0.24,-2.74
Time,1.76,-0.373,0.291,-1.09,1.15,-0.9,-3.05,-0.95,-2.36
2022-02-07 22:12:41.5690,1.654,-0.469,0.337,-1.09,1.15,-0.9,-2.36,-1.81,-1.92
2022-02-07 22:12:41.5760,1.493,-0.338,0.407,-1.09,1.15,-0.9,-1.6,-2.24,-1.41
2022-02-07 22:12:41.5780,1.261,-0.156,0.484,-1.09,1.15,-0.9,-0.83,-2.44,-1.03
2022-02-07 22:12:41.5770,1.037,0.076,0.53,-1.09,1.15,-0.9,-0.03,-2.47,-1.0
2022-02-07 22:12:41.5800,0.929,0.365,0.542,-1.09,1.15,-0.9,0.66,-2.37,-1.43
2022-02-07 22:12:41.5840,0.851,0.775,0.59,-1.09,1.15,-0.9,1.17,-1.84,-2.16
2022-02-07 22:12:41.5820,0.749,1.229,0.664,-1.09,1.15,-0.9,1.53,-0.8,-2.89
2022-02-07 22:12:41.5850,0.584,1.499,0.711,-1.09,1.15,-0.9,1.71,0.43,-3.26
2022-02-07 22:12:41.5920,0.379,1.427,0.62,-1.09,1.15,-0.9,1.79,1.25,-3.13
Time,0.167,0.996,0.452,-1.09,1.15,-0.9,1.79,2.0,-2.44
2022-02-07 22:12:41.6330,0.015,0.71,0.377,-1.09,1.15,-0.9,1.77,2.52,-1.71
2022-02-07 22:12:41.6400,-0.082,0.613,0.258,-1.09,1.15,-0.9,1.75,2.89,-1.25
2022-02-07 22:12:41.6450,-0.167,0.551,0.184,-1.09,1.15,-0.9,1.68,3.11,-0.96
2022-02-07 22:12:41.6560,-0.194,0.518,0.157,-1.09,1.15,-0.9,1.54,3.02,-0.7
Time,-0.139,0.493,0.143,-1.09,1.15,-0.9,1.3,2.32,-0.43
2022-02-07 22:12:41.6790,-0.039,0.48,0.101,-1.09,1.15,-0.9,1.07,1.23,-0.06
Time,0.069,0.467,0.022,-1.09,1.15,-0.9,0.94,0.17,0.38
2022-02-07 22:12:41.6950,0.143,0.43,-0.015,-1.92,2.45,0.16,1.17,-0.11,0.2
2022-02-07 22:12:41.7090,0.072,1.001,0.204,-1.92,2.45,0.16,1.59,-0.29,-1.65
2022-02-07 22:12:41.7150,0.31,0.958,-0.061,-1.92,2.45,0.16,1.64,-1.5,-3.22
2022-02-07 22:12:41.7250,0.596,0.664,-0.238,-1.92,2.45,0.16,1.53,-2.65,-4.06
2022-02-07 22:12:41.7370,0.568,0.546,-0.179,-1.92,2.45,0.16,1.46,-3.12,-3.95
2022-02-07 22:12:41.7460,0.392,0.352,-0.175,-1.92,2.45,0.16,1.05,-4.07,-3.28
2022-02-07 22:12:41.7530,0.361,0.166,-0.251,-1.92,2.45,0.16,0.58,-5.02,-2.78
2022-02-07 22:12:41.7530,0.363,0.166,-0.238,-1.92,2.45,0.16,0.16,-5.68,-2.46
2022-02-07 22:12:41.7810,0.296,0.387,-0.171,-1.92,2.45,0.16,-0.18,-5.89,-2.38
2022-02-07 22:12:41.7880,0.205,0.648,-0.116,-1.92,2.45,0.16,-0.5,-5.86,-2.18
2022-02-07 22:12:41.7960,0.235,0.716,-0.134,-1.92,2.45,0.16,-0.66,-5.53,-1.57
2022-02-07 22:12:41.8090,0.275,0.747,-0.148,-1.92,2.45,0.16,-0.63,-4.87,-0.57
2022-02-07 22:12:41.8160,0.302,0.787,-0.116,-1.92,2.45,0.16,-0.39,-3.91,0.74
2022-02-07 22:12:41.8280,0.339,0.953,-0.068,-1.92,2.45,0.16,-0.0,-2.83,2.29
Time,0.384,1.277,-0.052,-1.92,2.45,0.16,0.42,-1.8,3.9
2022-02-07 22:12:41.8470,0.42,1.585,-0.059,-1.92,2.45,0.16,0.69,-0.93,5.11
2022-02-07 22:12:41.8620,0.446,1.814,-0.017,-1.92,2.45,0.16,1.17,-1.07,5.6
2022-02-07 22:12:41.8660,0.508,1.95,-0.222,-1.92,2.45,0.16,1.62,-2.11,5.32
2022-02-07 22:12:41.8810,0.47,1.898,-0.227,-1.92,2.45,0.16,1.66,-3.1,4.54
2022-02-07 22:12:41.8870,0.458,1.708,-0.068,-1.92,2.45,0.16,1.47,-3.61,4.05
2022-02-07 22:12:41.9000,0.57,1.255,0.134,-1.92,2.45,0.16,0.99,-3.4,3.67
2022-02-07 22:12:41.9070,0.563,1.28,0.493,-1.92,2.45,0.16,-0.31,-2.88,2.97
2022-02-07 22:12:41.9200,0.538,1.3,0.605,-1.92,2.45,0.16,-2.18,-2.81,1.73
2022-02-07 22:12:41.9260,0.575,1.226,0.418,-1.92,2.45,0.16,-3.47,-2.27,0.61
2022-02-07 22:12:41.9410,0.7,1.114,0.24,-1.92,2.45,0.16,-4.41,-1.57,-0.14
2022-02-07 22:12:41.9470,0.9,1.049,0.131,-1.92,2.45,0.16,-5.04,-1.07,-0.47
Time,1.115,1.001,0.023,-1.92,2.45,0.16,-5.36,-1.0,-0.52
2022-02-07 22:12:41.9680,1.273,0.941,-0.103,-1.92,2.45,0.16,-5.2,-1.49,-0.42
Time,1.349,0.865,-0.314,-1.92,2.45,0.16,-4.44,-2.33,-0.3
2022-02-07 22:12:41.9880,1.363,0.754,-0.421,-2.95,2.92,2.08,-3.51,-3.05,-0.18
2022-02-07 22:12:42.0010,1.342,0.645,-0.362,-2.95,2.92,2.08,-2.57,-3.2,-0.02
2022-02-07 22:12:42.0080,1.296,0.544,-0.304,-2.95,2.92,2.08,-1.72,-2.98,0.2
2022-02-07 22:12:42.0180,1.21,0.445,-0.258,-2.95,2.92,2.08,-1.72,-2.98,0.2
Time,1.093,0.377,-0.197,-2.95,2.92,2.08,-0.28,-2.07,0.59
2022-02-07 22:12:42.0380,0.947,0.337,-0.153,-2.95,2.92,2.08,0.38,-1.64,0.5
2022-02-07 22:12:42.0480,0.804,0.317,-0.147,-2.95,2.92,2.08,1.02,-1.38,0.2
2022-02-07 22:12:42.0610,0.727,0.304,-0.153,-2.95,2.92,2.08,1.66,-1.36,-0.15
2022-02-07 22:12:42.0680,0.725,0.293,-0.157,-2.95,2.92,2.08,2.24,-1.64,-0.4
2022-02-07 22:12:42.0780,0.812,0.288,-0.124,-2.95,2.92,2.08,2.65,-2.24,-0.37
2022-02-07 22:12:42.0900,0.953,0.312,-0.038,-2.95,2.92,2.08,2.73,-3.25,-0.09
2022-02-07 22:12:42.0980,1.058,0.344,0.122,-2.95,2.92,2.08,2.22,-4.69,0.28
2022-02-07 22:12:42.1110,1.067,0.362,0.694,-2.95,2.92,2.08,0.25,-5.16,0.61
2022-02-07 22:12:42.1180,1.014,0.313,2.162,-2.95,2.92,2.08,-2.71,-2.33,1.05
2022-02-07 22:12:42.1300,0.823,0.332,2.174,-2.95,2.92,2.08,-4.05,0.16,1.38
2022-02-07 22:12:42.1390,0.684,0.46,0.711,-2.95,2.92,2.08,-4.04,-0.08,1.68
2022-02-07 22:12:42.1510,0.772,0.528,0.007,-2.95,2.92,2.08,-2.99,-1.71,2.03
2022-02-07 22:12:42.1590,0.735,0.578,-0.006,-2.95,2.92,2.08,-2.41,-1.23,2.23
2022-02-07 22:12:42.1690,0.559,0.701,0.666,-2.95,2.92,2.08,-2.53,0.59,2.13
2022-02-07 22:12:42.1790,0.458,0.815,0.969,-2.95,2.92,2.08,-2.49,1.9,2.07
2022-02-07 22:12:42.1910,0.572,0.813,0.478,-2.95,2.92,2.08,-2.21,2.33,2.12
2022-02-07 22:12:42.1990,0.669,0.814,0.113,-2.95,2.92,2.08,-1.86,2.57,2.13
2022-02-07 22:12:42.2090,0.717,0.861,-0.034,-3.41,3.32,2.1,-1.5,2.99,2.03
2022-02-07 22:12:42.2230,0.778,0.916,-0.117,-3.41,3.32,2.1,-1.11,3.63,1.88
2022-02-07 22:12:42.2320,0.846,0.94,-0.181,-3.41,3.32,2.1,-0.71,4.41,1.7
2022-02-07 22:12:42.2460,0.906,0.974,-0.216,-3.41,3.32,2.1,-0.33,5.15,1.47
2022-02-07 22:12:42.2560,0.975,1.054,-0.262,-3.41,3.32,2.1,-0.07,5.61,1.22
2022-02-07 22:12:42.2630,1.062,1.168,-0.326,-3.41,3.32,2.1,0.04,5.85,0.88
2022-02-07 22:12:42.2700,1.14,1.314,-0.363,-3.41,3.32,2.1,0.05,5.94,0.44
2022-02-07 22:12:42.2830,1.209,1.43,-0.399,-3.41,3.32,2.1,0.02,5.89,0.13
2022-02-07 22:12:42.2900,1.268,1.445,-0.426,-3.41,3.32,2.1,-0.04,5.62,0.12
2022-02-07 22:12:42.3010,1.261,1.373,-0.444,-3.41,3.32,2.1,-0.12,4.99,0.27
Time,1.136,1.305,-0.459,-3.41,3.32,2.1,-0.21,3.99,0.39
2022-02-07 22:12:42.3200,0.993,1.228,-0.47,-3.78,3.8,1.77,-0.28,2.77,0.49
2022-02-07 22:12:42.3350,0.863,1.114,-0.463,-3.78,3.8,1.77,-0.31,1.59,0.6
2022-02-07 22:12:42.3400,0.751,1.005,-0.427,-3.78,3.8,1.77,-0.26,0.59,0.69
2022-02-07 22:12:42.3500,0.665,0.933,-0.394,-3.78,3.8,1.77,-0.15,-0.23,0.77
2022-02-07 22:12:42.3620,0.606,0.904,-0.367,-3.78,3.8,1.77,-0.0,-0.9,0.81
2022-02-07 22:12:42.3750,0.577,0.92,-0.345,-3.78,3.8,1.77,0.2,-1.45,0.81
2022-02-07 22:12:42.3800,0.555,0.962,-0.324,-3.78,3.8,1.77,0.43,-1.91,0.75
2022-02-07 22:12:42.3940,0.543,0.997,-0.295,-3.78,3.8,1.77,0.66,-2.26,0.66
Time,0.537,1.016,-0.259,-3.6,4.45,2.75,0.88,-2.5,0.56
2022-02-07 22:12:42.4120,0.533,1.014,-0.222,-3.6,4.45,2.75,1.09,-2.62,0.46
2022-02-07 22:12:42.4250,0.515,0.999,-0.195,-3.6,4.45,2.75,1.29,-2.65,0.36
2022-02-07 22:12:42.4310,0.498,0.977,-0.173,-3.6,4.45,2.75,1.47,-2.59,0.27
2022-02-07 22:12:42.4430,0.484,0.954,-0.151,-3.6,4.45,2.75,1.63,-2.47,0.2
2022-02-07 22:12:42.4510,0.467,0.928,-0.135,-3.6,4.45,2.75,1.77,-2.32,0.15
2022-02-07 22:12:42.4630,0.445,0.892,-0.123,-3.33,5.25,3.53,1.9,-2.14,0.1
2022-02-07 22:12:42.4710,0.416,0.851,-0.106,-3.33,5.25,3.53,2.0,-1.93,0.04
2022-02-07 22:12:42.4820,0.382,0.812,-0.087,-3.33,5.25,3.53,2.1,-1.67,-0.03
Time,0.348,0.779,-0.069,-3.33,5.25,3.53,2.17,-1.38,-0.1
2022-02-07 22:12:42.5010,0.313,0.747,-0.054,-2.54,5.37,3.31,2.23,-1.08,-0.2
2022-02-07 22:12:42.5150,0.285,0.724,-0.041,-2.54,5.37,3.31,2.26,-0.77,-0.31
2022-02-07 22:12:42.5220,0.259,0.714,-0.028,-2.54,5.37,3.31,2.28,-0.44,-0.44
2022-02-07 22:12:42.5340,0.232,0.72,-0.002,-2.66,4.01,-3.4,2.26,-0.07,-0.6
2022-02-07 22:12:42.5410,0.206,0.725,0.035,-2.66,4.01,-3.4,2.2,0.38,-0.78
Time,0.145,0.774,0.278,-2.66,4.01,-3.4,1.93,1.53,-1.04
2022-02-07 22:12:42.5630,0.07,0.943,0.902,-0.61,0.96,-1.85,1.61,2.52,-1.24
2022-02-07 22:12:42.5720,0.292,1.032,0.773,-0.61,0.96,-1.85,1.49,2.08,-1.26
2022-02-07 22:12:42.5850,0.485,0.959,0.229,1.92,-1.88,5.24,1.4,1.31,-1.3
2022-02-07 22:12:42.5920,0.533,0.915,0.01,1.92,-1.88,5.24,1.27,0.86,-1.34
Time,0.63,0.931,-0.031,1.92,-1.88,5.24,1.16,0.53,-1.33
2022-02-07 22:12:42.6130,0.76,0.934,-0.056,5.26,-3.33,9.54,1.1,0.06,-1.23
2022-02-07 22:12:42.6230,0.893,0.875,-0.057,5.26,-3.33,9.54,1.02,-0.53,-1.09
2022-02-07 22:12:42.6330,0.984,0.788,-0.024,5.26,-3.33,9.54,0.89,-1.05,-0.91
2022-02-07 22:12:42.6480,1.021,0.71,0.044,7.43,-3.09,9.39,0.73,-1.3,-0.75
2022-02-07 22:12:42.6540,1.023,0.638,0.128,7.43,-3.09,9.39,0.54,-1.34,-0.61
2022-02-07 22:12:42.6630,1.043,0.581,0.261,9.49,-8.4,8.24,0.27,-1.41,-0.49
2022-02-07 22:12:42.6760,1.11,0.577,0.437,9.49,-8.4,8.24,-0.08,-1.36,-0.36
2022-02-07 22:12:42.6830,1.195,0.609,0.56,9.49,-8.4,8.24,-0.44,-1.03,-0.24
2022-02-07 22:12:42.6970,1.233,0.644,0.533,14.22,-14.99,15.82,-0.71,-0.56,-0.15
Time,1.18,0.665,0.372,6.26,3.49,0.58,-0.81,-0.11,-0.16
Time,1.088,0.663,0.191,-1.5,4.23,2.47,-0.75,0.12,-0.19
Time,1.053,0.647,0.056,-2.01,2.58,-0.05,-0.57,0.14,-0.15
2022-02-07 22:13:14.8090,1.029,0.637,-0.018,-0.82,1.81,-2.94,-0.32,0.08,-0.1
Time,0.972,0.616,-0.038,-5.62,-7.55,7.17,-0.1,0.06,-0.08
2022-02-07 22:13:14.8100,0.905,0.595,-0.008,-5.62,-7.55,7.17,0.05,0.15,-0.11
2022-02-07 22:12:42.7030,0.876,0.587,0.035,-6.23,-7.34,7.74,0.13,0.34,-0.16
2022-02-07 22:13:14.7900,0.897,0.577,0.069,-6.23,-7.34,7.74,0.17,0.54,-0.21
2022-02-07 22:13:14.8090,0.95,0.56,0.092,-6.23,-7.34,7.74,0.17,0.75,-0.23
2022-02-07 22:13:14.7800,1.007,0.53,0.111,-6.23,-7.34,7.74,0.16,0.97,-0.22
2022-02-07 22:13:14.8180,1.044,0.495,0.118,-5.88,-6.55,8.24,0.14,1.27,-0.21
2022-02-07 22:13:14.8180,1.059,0.46,0.11,-4.57,-5.98,8.62,0.12,1.61,-0.23
2022-02-07 22:13:14.8200,1.055,0.424,0.082,-4.57,-5.98,8.62,0.13,1.93,-0.27
2022-02-07 22:13:14.8190,1.073,0.39,0.05,-3.33,-5.11,8.89,0.16,2.25,-0.3
2022-02-07 22:13:14.8210,1.104,0.371,0.02,-3.33,-5.11,8.89,0.23,2.6,-0.31
2022-02-07 22:13:14.8210,1.134,0.35,-0.012,-1.12,-3.1,8.48,0.34,3.01,-0.3
2022-02-07 22:13:14.8240,1.149,0.326,-0.043,2.3,-2.93,4.08,0.46,3.44,-0.26
2022-02-07 22:13:14.8250,1.146,0.293,-0.068,2.3,-2.93,4.08,0.58,3.77,-0.19
2022-02-07 22:13:14.8250,1.125,0.26,-0.091,2.3,-2.93,4.08,0.67,3.9,-0.07
2022-02-07 22:13:14.8250,1.097,0.233,-0.106,2.3,-2.93,4.08,0.72,3.84,0.11
2022-02-07 22:13:14.8380,1.06,0.216,-0.115,2.3,-2.93,4.08,0.72,3.67,0.36
2022-02-07 22:13:14.8320,1.011,0.222,-0.118,2.55,-2.6,3.66,0.67,3.37,0.63
2022-02-07 22:13:14.8320,0.951,0.256,-0.141,2.55,-2.6,3.66,0.56,2.88,0.89
2022-02-07 22:13:14.8440,0.896,0.309,-0.175,2.84,-2.19,3.26,0.39,2.13,1.11
2022-02-07 22:13:14.8390,0.87,0.371,-0.216,2.84,-2.19,3.26,0.21,1.22,1.29
2022-02-07 22:13:14.8390,0.856,0.445,-0.267,2.84,-2.19,3.26,0.21,1.22,1.29
2022-02-07 22:13:14.8400,0.886,0.495,-0.316,5.15,-0.37,-0.23,0.06,-0.76,1.62
2022-02-07 22:13:14.8440,0.97,0.49,-0.371,2.95,-2.89,-4.93,0.09,-1.79,1.95
2022-02-07 22:13:14.8440,1.096,0.437,-0.333,2.95,-2.89,-4.93,-0.04,-2.46,2.5
2022-02-07 22:13:14.8450,1.352,0.271,0.358,2.95,-2.89,-4.93,-0.95,-1.31,3.45
2022-02-07 22:13:14.8490,1.462,0.193,0.79,2.95,-2.89,-4.93,-1.25,-0.06,4.1
2022-02-07 22:13:14.8460,1.31,0.443,0.172,2.95,-2.89,-4.93,-0.76,0.51,4.11
2022-02-07 22:13:14.8580,1.166,0.821,-0.233,1.73,-1.99,-0.54,0.37,0.76,3.52
2022-02-07 22:13:14.8530,0.993,1.166,-0.368,1.73,-1.99,-0.54,1.53,1.1,2.66
2022-02-07 22:13:14.8580,0.753,1.35,-0.292,1.73,-1.99,-0.54,2.37,1.65,1.87
2022-02-07 22:13:14.8570,0.596,1.335,-0.162,1.73,-1.99,-0.54,2.84,2.38,1.34
2022-02-07 22:13:14.8600,0.532,1.235,-0.115,1.07,-1.75,0.59,3.02,3.01,1.05
2022-02-07 22:13:14.8690,0.504,1.112,-0.138,1.07,-1.75,0.59,2.99,3.35,0.92
Time,0.51,1.014,-0.217,1.07,-1.75,0.59,2.79,3.1,0.84
2022-02-07 22:13:14.8640,0.513,0.95,-0.337,1.07,-1.75,0.59,2.5,2.3,0.76
2022-02-07 22:13:14.8620,0.519,0.888,-0.433,1.07,-1.75,0.59,2.29,1.35,0.74
2022-02-07 22:13:14.8640,0.56,0.826,-0.463,1.07,-1.75,0.59,2.17,0.58,0.75
2022-02-07 22:13:14.8690,0.548,0.81,-0.386,1.07,-1.75,0.59,2.12,0.14,0.71
2022-02-07 22:13:14.8710,0.553,0.81,-0.288,1.07,-1.75,0.59,2.08,-0.05,0.62
2022-02-07 22:13:14.8700,0.511,0.828,-0.216,-0.15,-1.86,0.83,2.03,-0.18,0.41
2022-02-07 22:13:14.8720,0.419,0.834,-0.186,-0.15,-1.86,0.83,2.04,-0.29,0.14
2022-02-07 22:13:14.8720,0.322,0.807,-0.162,-0.15,-1.86,0.83,2.08,-0.41,-0.11
2022-02-07 22:13:14.8710,0.222,0.743,-0.105,-0.15,-1.86,0.83,2.03,-0.5,-0.33
2022-02-07 22:13:14.8750,0.118,0.662,-0.021,-0.15,-1.86,0.83,1.93,-0.66,-0.53
2022-02-07 22:13:14.8780,0.052,0.598,0.042,-0.15,-1.86,0.83,1.75,-0.88,-0.67
Time,0.023,0.551,0.117,-0.15,-1.86,0.83,1.55,-1.11,-0.76
2022-02-07 22:13:14.8780,0.034,0.498,0.166,-0.15,-1.86,0.83,1.36,-1.28,-0.78
2022-02-07 22:13:14.8790,0.064,0.443,0.214,-0.15,-1.86,0.83,1.14,-1.3,-0.75
2022-02-07 22:13:14.8800,0.124,0.409,0.281,-0.15,-1.86,0.83,0.88,-1.27,-0.65
2022-02-07 22:13:14.8850,0.19,0.395,0.411,-0.15,-1.86,0.83,0.48,-1.17,-0.54
2022-02-07 22:13:14.8830,0.273,0.423,0.639,-0.15,-1.86,0.83,-0.05,-1.2,-0.36
2022-02-07 22:13:14.8850,0.547,0.523,0.715,-0.15,-1.86,0.83,-0.44,-1.48,-0.07
2022-02-07 22:13:14.8860,0.933,0.693,0.433,-0.15,-1.86,0.83,-0.54,-1.57,0.14
2022-02-07 22:13:14.8860,1.196,1.037,0.081,-1.58,-1.59,0.94,-0.51,-0.87,-0.0
2022-02-07 22:13:14.8880,1.219,1.517,-0.138,-1.58,-1.59,0.94,-0.55,0.79,-0.63
2022-02-07 22:13:14.8880,1.224,1.799,-0.152,-1.58,-1.59,0.94,-0.55,0.79,-0.63
2022-02-07 22:13:14.8920,1.48,1.777,-0.156,-1.58,-1.59,0.94,-0.4,2.58,-0.96
2022-02-07 22:13:14.8940,1.797,1.52,-0.274,-1.58,-1.59,0.94,0.09,-0.96,-0.29
2022-02-07 22:13:14.8920,1.799,1.224,-0.236,-1.58,-1.59,0.94,0.3,-3.87,0.43
2022-02-07 22:13:14.8930,1.421,1.031,0.373,-1.58,-1.59,0.94,-0.14,-3.76,0.89
2022-02-07 22:13:14.8950,0.899,1.023,1.017,-1.58,-1.59,0.94,-0.75,-1.51,0.94
2022-02-07 22:13:14.9010,0.521,1.035,0.777,-1.58,-1.59,0.94,-0.77,0.87,0.8
2022-02-07 22:13:14.8980,0.395,1.007,0.012,-1.58,-1.59,0.94,-0.41,2.32,0.53
2022-02-07 22:13:14.9030,0.347,1.044,-0.312,-1.58,-1.59,0.94,-0.1,2.95,0.26
2022-02-07 22:13:14.9000,0.355,1.062,-0.354,-1.58,-1.59,0.94,0.06,3.03,0.09
2022-02-07 22:13:14.9000,0.405,1.053,-0.352,-1.58,-1.59,0.94,0.13,2.86,0.05
Time,0.46,1.071,-0.348,-1.58,-1.59,0.94,0.13,2.48,0.08
2022-02-07 22:13:14.9050,0.51,1.127,-0.351,-1.58,-1.59,0.94,0.06,1.94,0.1
2022-02-07 22:13:14.9050,0.552,1.189,-0.346,-1.58,-1.59,0.94,-0.07,1.29,0.1
2022-02-07 22:13:14.9050,0.57,1.223,-0.344,-1.58,-1.59,0.94,-0.23,0.57,0.08
2022-02-07 22:13:14.9070,0.552,1.181,-0.322,-1.58,-1.59,0.94,-0.35,-0.08,0.05
2022-02-07 22:13:14.9060,0.513,1.074,-0.271,-1.58,-1.59,0.94,-0.41,-0.58,-0.0
2022-02-07 22:13:14.9100,0.472,0.955,-0.217,-1.58,-1.59,0.94,-0.39,-1.04,-0.06
2022-02-07 22:13:14.9110,0.436,0.86,-0.18,-1.58,-1.59,0.94,-0.34,-1.57,-0.12
Time,0.409,0.796,-0.136,-1.58,-1.59,0.94,-0.32,-2.13,-0.14
2022-02-07 22:13:14.9120,0.4,0.762,-0.063,-1.58,-1.59,0.94,-0.39,-2.58,-0.11
2022-02-07 22:13:14.9130,0.411,0.763,0.042,-1.58,-1.59,0.94,-0.58,-2.79,-0.04
2022-02-07 22:13:14.9140,0.422,0.786,0.192,-1.58,-1.59,0.94,-0.97,-2.63,0.04
2022-02-07 22:13:14.9180,0.421,0.816,0.364,-1.58,-1.59,0.94,-1.5,-2.13,0.11
2022-02-07 22:13:14.9180,0.414,0.839,0.435,-2.84,-0.77,0.71,-2.05,-1.51,0.17
2022-02-07 22:13:14.9170,0.413,0.854,0.333,-2.84,-0.77,0.71,-2.48,-1.1,0.23
2022-02-07 22:13:14.9200,0.424,0.883,0.166,-2.84,-0.77,0.71,-2.76,-1.03,0.26
2022-02-07 22:13:14.9190,0.435,0.922,0.045,-2.84,-0.77,0.71,-2.92,-1.35,0.24
2022-02-07 22:13:14.9200,0.452,0.949,-0.04,-2.84,-0.77,0.71,-2.97,-1.92,0.17
2022-02-07 22:13:14.9250,0.477,0.94,-0.087,-2.84,-0.77,0.71,-2.93,-2.49,0.11
2022-02-07 22:13:14.9240,0.505,0.906,-0.094,-2.84,-0.77,0.71,-2.8,-2.79,0.06
2022-02-07 22:13:14.9260,0.525,0.868,-0.094,-2.84,-0.77,0.71,-2.65,-2.78,-0.01
2022-02-07 22:13:14.9250,0.537,0.809,-0.077,-2.84,-0.77,0.71,-2.54,-2.55,-0.09
2022-02-07 22:13:14.9260,0.556,0.737,-0.045,-2.84,-0.77,0.71,-2.48,-2.21,-0.17
2022-02-07 22:13:14.9280,0.592,0.657,-0.011,-2.84,-0.77,0.71,-2.48,-1.85,-0.23
2022-02-07 22:13:14.9300,0.643,0.571,0.027,-2.84,-0.77,0.71,-2.55,-1.59,-0.27
2022-02-07 22:13:14.9310,0.722,0.477,0.047,-2.84,-0.77,0.71,-2.68,-1.41,-0.28
2022-02-07 22:13:14.9300,0.828,0.399,0.042,-2.84,-0.77,0.71,-2.84,-1.31,-0.24
2022-02-07 22:13:14.9330,0.948,0.353,0.004,-2.84,-0.77,0.71,-2.95,-1.27,-0.15
2022-02-07 22:13:14.9310,1.064,0.294,-0.085,-2.84,-0.77,0.71,-3.0,-1.29,-0.05
2022-02-07 22:13:14.9350,1.138,0.257,-0.132,-2.84,-0.77,0.71,-2.93,-1.29,-0.0
2022-02-07 22:13:14.9370,1.147,0.248,-0.173,-2.84,-0.77,0.71,-2.72,-1.23,0.01
2022-02-07 22:13:14.9380,1.111,0.253,-0.192,-2.84,-0.77,0.71,-2.45,-1.09,-0.08
2022-02-07 22:13:14.9390,1.024,0.293,-0.16,-2.84,-0.77,0.71,-2.17,-0.96,-0.2
2022-02-07 22:13:14.9380,0.97,0.33,-0.122,-2.84,-0.77,0.71,-1.93,-0.94,-0.35
2022-02-07 22:13:14.9390,0.92,0.405,-0.074,-2.84,-0.77,0.71,-1.72,-1.11,-0.52
2022-02-07 22:13:14.9420,0.896,0.495,-0.031,-2.84,-0.77,0.71,-1.49,-1.44,-0.63
2022-02-07 22:13:14.9430,0.906,0.572,-0.002,-2.84,-0.77,0.71,-1.24,-1.79,-0.67
2022-02-07 22:13:14.9440,0.911,0.634,0.024,-2.84,-0.77,0.71,-0.98,-2.03,-0.67
2022-02-07 22:13:14.9450,0.884,0.691,0.063,-2.84,-0.77,0.71,-0.77,-2.04,-0.67
2022-02-07 22:13:14.9450,0.821,0.734,0.113,-2.84,-0.77,0.71,-0.61,-1.82,-0.71
2022-02-07 22:13:14.9460,0.728,0.763,0.153,-2.84,-0.77,0.71,-0.52,-1.38,-0.8
2022-02-07 22:13:14.9480,0.639,0.772,0.186,-2.84,-0.77,0.71,-0.47,-0.8,-0.87
Time,0.572,0.758,0.189,-2.84,-0.77,0.71,-0.44,-0.23,-0.93
2022-02-07 22:13:14.9520,0.515,0.75,0.144,-2.84,-0.77,0.71,-0.41,0.18,-1.01
2022-02-07 22:13:14.9540,0.475,0.747,0.089,-2.84,-0.77,0.71,-0.36,0.4,-1.11
2022-02-07 22:13:14.9540,0.481,0.731,0.01,-2.84,-0.77,0.71,-0.36,0.4,-1.11
2022-02-07 22:13:14.9530,0.513,0.717,-0.071,-2.84,-0.77,0.71,-0.07,0.18,-1.18
2022-02-07 22:13:14.9550,0.545,0.701,-0.128,-2.84,-0.77,0.71,0.15,-0.17,-1.18
2022-02-07 22:13:14.9570,0.555,0.674,-0.145,-2.84,-0.77,0.71,0.35,-0.53,-1.19
2022-02-07 22:13:14.9570,0.548,0.64,-0.126,-2.84,-0.77,0.71,0.53,-0.76,-1.21
2022-02-07 22:13:14.9590,0.542,0.607,-0.089,-2.84,-0.77,0.71,0.65,-0.79,-1.24
2022-02-07 22:13:14.9650,0.542,0.597,-0.053,-2.84,-0.77,0.71,0.74,-0.74,-1.27
2022-02-07 22:13:14.9610,0.568,0.632,-0.046,-2.84,-0.77,0.71,0.8,-0.86,-1.29
2022-02-07 22:13:14.9620,0.618,0.704,-0.045,-2.84,-0.77,0.71,0.81,-1.03,-1.27
2022-02-07 22:13:14.9620,0.683,0.761,-0.012,-2.84,-0.77,0.71,0.81,-1.03,-1.27
2022-02-07 22:13:14.9640,0.711,0.764,0.008,-3.61,0.13,0.11,0.61,-0.46,-1.34
2022-02-07 22:13:14.9670,0.714,0.719,0.002,-3.61,0.13,0.11,0.48,0.17,-1.37
2022-02-07 22:13:14.9670,0.707,0.635,-0.018,-3.61,0.13,0.11,0.29,0.83,-1.38
2022-02-07 22:13:14.9660,0.689,0.557,-0.044,-3.61,0.13,0.11,0.1,1.44,-1.34
2022-02-07 22:13:14.9690,0.711,0.51,-0.092,-3.61,0.13,0.11,-0.14,1.86,-1.25
2022-02-07 22:13:14.9690,0.824,0.478,-0.196,-3.61,0.13,0.11,-0.14,1.86,-1.25
2022-02-07 22:13:14.9710,1.023,0.385,-0.354,-3.61,0.13,0.11,-1.39,0.96,-0.87
2022-02-07 22:13:14.9730,1.237,0.359,-0.417,-3.61,0.13,0.11,-2.09,0.04,-0.6
2022-02-07 22:13:14.9730,1.454,0.429,-0.453,-3.61,0.13,0.11,-2.48,-0.76,-0.5
2022-02-07 22:13:14.9730,1.591,0.585,-0.405,-3.61,0.13,0.11,-2.4,-1.47,-0.61
2022-02-07 22:13:14.9770,1.688,0.719,-0.487,-3.61,0.13,0.11,-1.31,-4.0,-0.75
2022-02-07 22:13:14.9770,1.774,0.703,-0.927,-3.61,0.13,0.11,0.32,-6.71,-0.49
2022-02-07 22:13:14.9770,1.758,0.598,-0.544,-3.61,0.13,0.11,1.37,-6.46,0.16
2022-02-07 22:13:14.9790,1.566,0.622,-0.073,-3.61,0.13,0.11,2.03,-5.11,0.53
2022-02-07 22:13:14.9800,1.218,0.674,0.026,-3.61,0.13,0.11,2.46,-3.93,0.56
Time,0.982,0.715,0.03,-3.61,0.13,0.11,2.79,-3.63,0.48
Time,0.876,0.778,0.052,-3.61,0.13,0.11,2.77,-4.55,0.41
2022-02-07 22:13:14.9830,0.856,0.883,0.888,-3.61,0.13,0.11,0.19,-2.73,0.27
2022-02-07 22:13:14.9840,0.83,0.913,2.964,-3.61,0.13,0.11,-1.46,0.25,0.53
2022-02-07 22:13:14.9860,0.845,0.818,0.962,-3.61,0.13,0.11,-1.48,0.67,0.68
2022-02-07 22:13:14.9870,0.815,0.783,-0.092,-3.61,0.13,0.11,-0.94,0.23,0.6
2022-02-07 22:13:14.9870,0.796,0.667,-0.196,-3.61,0.13,0.11,-0.36,0.34,0.45
2022-02-07 22:13:14.9910,0.767,0.566,-0.141,-3.61,0.13,0.11,0.12,0.84,0.38
2022-02-07 22:13:14.9910,0.783,0.509,-0.098,-3.61,0.13,0.11,0.51,1.25,0.41
2022-02-07 22:13:14.9900,0.808,0.476,-0.104,-3.61,0.13,0.11,0.82,1.21,0.49
2022-02-07 22:13:14.9920,0.868,0.467,-0.093,-3.61,0.13,0.11,0.94,0.5,0.68
2022-02-07 22:13:14.9930,0.959,0.475,0.072,-3.61,0.13,0.11,0.47,-0.44,0.99
2022-02-07 22:13:14.9950,0.981,0.471,0.895,-3.61,0.13,0.11,-1.36,0.29,1.3
2022-02-07 22:13:14.9960,0.791,0.507,1.605,-3.61,0.13,0.11,-2.74,1.36,1.42
2022-02-07 22:13:14.9970,0.615,0.619,0.771,-3.61,0.13,0.11,-3.27,1.7,1.47
2022-02-07 22:13:14.9980,0.614,0.685,0.261,-3.61,0.13,0.11,-3.32,1.54,1.59
2022-02-07 22:13:15.0000,0.614,0.702,0.097,-3.61,0.13,0.11,-3.11,0.95,1.78
2022-02-07 22:13:14.9990,0.585,0.727,0.048,-3.61,0.13,0.11,-2.83,0.46,1.91
2022-02-07 22:13:15.0010,0.557,0.796,0.095,-3.61,0.13,0.11,-2.58,0.54,1.89
2022-02-07 22:13:15.0030,0.567,0.9,0.117,-3.61,0.13,0.11,-2.33,1.15,1.74
2022-02-07 22:13:15.0040,0.629,1.01,0.067,-3.61,0.13,0.11,-2.02,1.98,1.56
2022-02-07 22:13:15.0050,0.731,1.116,-0.052,-3.61,0.13,0.11,-1.16,3.62,1.23
2022-02-07 22:13:15.0050,0.836,1.197,-0.186,-3.61,0.13,0.11,-1.16,3.62,1.23
2022-02-07 22:13:15.0070,0.915,1.249,-0.309,-3.61,0.13,0.11,-0.76,4.12,1.0
2022-02-07 22:13:15.0080,0.975,1.328,-0.398,-3.61,0.13,0.11,-0.47,4.32,0.66
2022-02-07 22:13:15.0090,0.995,1.443,-0.476,-3.61,0.13,0.11,-0.27,4.36,0.23
2022-02-07 22:13:15.0120,0.995,1.482,-0.541,-3.61,0.13,0.11,-0.09,4.44,-0.07
2022-02-07 22:13:15.0120,0.986,1.392,-0.567,-3.61,0.13,0.11,0.07,4.56,-0.18
2022-02-07 22:13:15.0130,0.953,1.252,-0.558,-3.61,0.13,0.11,0.16,4.6,-0.16
2022-02-07 22:13:15.0120,0.902,1.117,-0.52,-3.61,0.13,0.11,0.17,4.44,-0.09
2022-02-07 22:13:15.0150,0.835,0.978,-0.495,-3.61,0.13,0.11,0.18,4.0,-0.0
2022-02-07 22:13:15.0160,0.768,0.834,-0.486,-3.61,0.13,0.11,0.27,3.45,0.11
2022-02-07 22:13:15.0170,0.725,0.683,-0.454,-3.61,0.13,0.11,0.51,3.03,0.28
2022-02-07 22:13:15.0200,0.733,0.559,-0.412,-3.61,0.13,0.11,0.89,2.76,0.47
2022-02-07 22:13:15.0200,0.733,0.49,-0.389,-3.61,0.13,0.11,1.3,2.51,0.57
2022-02-07 22:13:15.0210,0.704,0.471,-0.333,-3.61,0.13,0.11,1.68,2.25,0.54
2022-02-07 22:13:15.0210,0.673,0.483,-0.266,-3.61,0.13,0.11,2.05,2.02,0.43
2022-02-07 22:13:15.0220,0.667,0.497,-0.216,-3.61,0.13,0.11,2.41,1.82,0.3
2022-02-07 22:13:15.0230,0.692,0.496,-0.175,-3.61,0.13,0.11,2.73,1.64,0.27
2022-02-07 22:13:15.0260,0.715,0.484,-0.146,-3.61,0.13,0.11,3.02,1.46,0.35
2022-02-07 22:13:15.0270,0.719,0.476,-0.125,-3.61,0.13,0.11,3.24,1.24,0.5
2022-02-07 22:13:15.0280,0.688,0.491,-0.119,-3.61,0.13,0.11,3.41,0.94,0.64
2022-02-07 22:13:15.0270,0.63,0.534,-0.111,-3.61,0.13,0.11,3.49,0.59,0.73
2022-02-07 22:13:15.0290,0.581,0.598,-0.108,-3.61,0.13,0.11,3.51,0.2,0.76
2022-02-07 22:13:15.0310,0.541,0.651,-0.105,-3.61,0.13,0.11,3.46,-0.19,0.73
2022-02-07 22:13:15.0320,0.496,0.685,-0.099,-3.61,0.13,0.11,3.33,-0.56,0.64
2022-02-07 22:13:15.0330,0.46,0.704,-0.094,-3.61,0.13,0.11,3.14,-0.89,0.53
2022-02-07 22:13:15.0330,0.444,0.709,-0.091,-3.61,0.13,0.11,2.89,-1.19,0.48
2022-02-07 22:13:15.0330,0.45,0.713,-0.104,-3.61,0.13,0.11,2.63,-1.42,0.47
2022-02-07 22:13:15.0370,0.48,0.75,-0.115,-3.61,0.13,0.11,2.34,-1.58,0.47
2022-02-07 22:13:15.0370,0.547,0.842,-0.131,-3.61,0.13,0.11,2.0,-1.63,0.47
2022-02-07 22:13:15.0390,0.646,0.972,-0.142,-3.61,0.13,0.11,1.61,-1.57,0.46
2022-02-07 22:13:15.0400,0.726,1.117,-0.167,-3.61,0.13,0.11,1.2,-1.52,0.44
2022-02-07 22:13:15.0400,0.76,1.222,-0.209,-3.61,0.13,0.11,0.81,-1.53,0.47
Time,0.731,1.217,-0.24,-3.61,0.13,0.11,0.54,-1.67,0.58
2022-02-07 22:13:15.0420,0.648,1.114,-0.261,-3.61,0.13,0.11,0.44,-1.85,0.73
2022-02-07 22:13:15.0420,0.541,0.992,-0.258,-3.61,0.13,0.11,0.47,-2.0,0.81
Time,0.434,0.892,-0.238,-3.84,0.91,-0.75,0.58,-2.15,0.78
2022-02-07 22:13:15.0460,0.333,0.83,-0.214,-3.84,0.91,-0.75,0.71,-2.28,0.63
2022-02-07 22:13:15.0470,0.246,0.804,-0.189,-3.84,0.91,-0.75,0.88,-2.37,0.37
2022-02-07 22:13:15.0470,0.166,0.825,-0.163,-3.84,0.91,-0.75,1.19,-2.34,-0.02
2022-02-07 22:13:15.0490,0.136,0.945,-0.195,-3.84,0.91,-0.75,3.08,-2.17,-0.64
2022-02-07 22:13:15.0490,0.228,1.331,0.814,-3.84,0.91,-0.75,4.22,2.14,-1.31
2022-02-07 22:13:15.0520,0.4,1.376,1.571,-3.84,0.91,-0.75,4.17,4.44,-1.61
2022-02-07 22:13:15.0510,0.489,1.251,0.8,-3.84,0.91,-0.75,3.49,3.8,-1.78
2022-02-07 22:13:15.0530,0.657,1.297,0.54,-3.84,0.91,-0.75,2.29,1.75,-1.81
2022-02-07 22:13:15.0520,0.923,1.266,0.641,-3.84,0.91,-0.75,0.84,0.16,-1.58
2022-02-07 22:13:15.0560,1.124,1.121,0.795,-3.84,0.91,-0.75,-0.42,-0.3,-1.18
2022-02-07 22:13:15.0560,1.184,0.97,0.698,-3.84,0.91,-0.75,-1.21,-0.24,-0.82
2022-02-07 22:13:15.0580,1.107,0.835,0.35,-3.84,0.91,-0.75,-1.58,-0.22,-0.59
2022-02-07 22:13:15.0580,0.991,0.703,0.059,-3.84,0.91,-0.75,-1.69,-0.1,-0.47
2022-02-07 22:13:15.0580,0.909,0.594,-0.062,-3.84,0.91,-0.75,-1.66,0.27,-0.43
2022-02-07 22:13:15.0580,0.863,0.525,-0.129,-3.84,0.91,-0.75,-1.51,0.87,-0.45
2022-02-07 22:13:15.0620,0.862,0.485,-0.177,-3.84,0.91,-0.75,-1.27,1.52,-0.54
2022-02-07 22:13:15.0620,0.909,0.455,-0.207,-3.84,0.91,-0.75,-0.96,2.06,-0.63
2022-02-07 22:13:15.0640,0.995,0.419,-0.237,-3.84,0.91,-0.75,-0.62,2.27,-0.67
2022-02-07 22:13:15.0640,1.099,0.381,-0.248,-3.84,0.91,-0.75,-0.27,2.17,-0.65
2022-02-07 22:13:15.0650,1.209,0.361,-0.24,-3.84,0.91,-0.75,0.05,1.9,-0.56
2022-02-07 22:13:15.0640,1.309,0.353,-0.199,-3.84,0.91,-0.75,0.35,1.72,-0.41
2022-02-07 22:13:15.0670,1.365,0.338,-0.141,-3.84,0.91,-0.75,0.58,1.65,-0.22
2022-02-07 22:13:15.0670,1.372,0.305,-0.087,-3.84,0.91,-0.75,0.73,1.6,-0.03
Time,1.322,0.257,-0.036,-3.84,0.91,-0.75,0.81,1.49,0.15
2022-02-07 22:13:15.0710,1.239,0.208,0.019,-3.84,0.91,-0.75,0.81,1.32,0.31
2022-02-07 22:13:15.0700,1.167,0.17,0.09,-3.84,0.91,-0.75,0.7,1.1,0.5
2022-02-07 22:13:15.0700,1.118,0.144,0.178,-3.84,0.91,-0.75,0.44,0.83,0.75
2022-02-07 22:13:15.0720,1.089,0.127,0.309,-3.84,0.91,-0.75,-0.06,0.61,1.11
2022-02-07 22:13:15.0790,1.089,0.136,0.538,-3.84,0.91,-0.75,-0.91,0.59,1.57
2022-02-07 22:13:15.0760,1.104,0.176,0.846,-3.84,0.91,-0.75,-2.01,0.71,2.15
2022-02-07 22:13:15.0780,1.101,0.279,0.779,-3.84,0.91,-0.75,-2.82,0.62,2.66
2022-02-07 22:13:15.0780,1.021,0.507,0.38,-3.84,0.91,-0.75,-3.33,0.33,2.95
2022-02-07 22:13:15.0780,0.93,0.771,0.066,-3.84,0.91,-0.75,-3.59,0.0,3.05
2022-02-07 22:13:15.0790,0.843,1.001,-0.189,-3.84,0.91,-0.75,-3.41,-0.12,3.02
2022-02-07 22:13:15.0810,0.786,1.132,-0.47,-3.84,0.91,-0.75,-2.8,-0.34,2.86
2022-02-07 22:13:15.0830,0.736,1.129,-0.657,-3.84,0.91,-0.75,-1.69,-0.5,2.7
2022-02-07 22:13:15.0880,0.7,1.064,-0.801,-3.84,0.91,-0.75,-0.37,-0.71,2.54
2022-02-07 22:13:15.0840,0.653,0.974,-0.813,-3.84,0.91,-0.75,0.91,-1.06,2.28
2022-02-07 22:13:15.0850,0.6,0.93,-0.743,-3.84,0.91,-0.75,2.0,-0.9,1.99
Time,0.597,0.842,-0.413,-3.84,0.91,-0.75,2.61,-0.13,1.66
2022-02-07 22:13:15.0860,0.548,0.791,-0.111,-3.84,0.91,-0.75,2.76,0.88,1.28
2022-02-07 22:13:15.0900,0.516,0.721,0.001,-3.84,0.91,-0.75,2.67,1.7,1.07
2022-02-07 22:13:15.0900,0.599,0.604,-0.0,-3.84,0.91,-0.75,2.52,2.26,1.01
2022-02-07 22:13:15.0900,0.718,0.565,-0.071,-3.84,0.91,-0.75,2.32,2.43,0.96
2022-02-07 22:13:15.0920,0.786,0.611,-0.14,-3.84,0.91,-0.75,2.11,2.21,0.83
2022-02-07 22:13:15.0930,0.851,0.684,-0.19,-3.84,0.91,-0.75,1.89,1.8,0.71
2022-02-07 22:13:15.1000,0.937,0.727,-0.185,-3.84,0.91,-0.75,1.67,1.25,0.68
2022-02-07 22:13:15.0960,0.995,0.756,-0.145,-3.84,0.91,-0.75,1.46,0.59,0.74
2022-02-07 22:13:15.0960,1.012,0.775,-0.102,-3.84,0.91,-0.75,1.28,-0.19,0.75
2022-02-07 22:13:15.0970,0.821,0.827,-0.065,-3.84,0.91,-0.75,1.25,-0.86,0.51
Time,0.573,0.868,-0.04,-3.84,0.91,-0.75,1.25,-0.86,0.51
2022-02-07 22:13:15.1000,0.427,0.895,0.0,-3.84,0.91,-0.75,1.46,-1.76,-0.04
2022-02-07 22:13:15.1010,0.327,0.909,0.048,-3.84,0.91,-0.75,1.57,-1.83,-0.24
2022-02-07 22:13:15.1020,0.242,0.896,0.097,-3.84,0.91,-0.75,1.66,-1.62,-0.43
2022-02-07 22:13:15.1030,0.165,0.858,0.156,-3.84,0.91,-0.75,1.65,-1.17,-0.62
2022-02-07 22:13:15.1030,0.098,0.775,0.228,-3.84,0.91,-0.75,1.51,-0.75,-0.78
2022-02-07 22:13:15.1040,0.06,0.671,0.28,-3.84,0.91,-0.75,1.26,-0.48,-0.91
2022-02-07 22:13:15.1060,0.056,0.573,0.275,-3.84,0.91,-0.75,1.0,-0.4,-0.98
2022-02-07 22:13:15.1080,0.071,0.494,0.224,-3.84,0.91,-0.75,0.77,-0.49,-1.03
2022-02-07 22:13:15.1100,0.102,0.452,0.189,-3.84,0.91,-0.75,0.54,-0.63,-1.07
2022-02-07 22:13:15.1090,0.149,0.452,0.204,-3.84,0.91,-0.75,0.26,-0.69,-1.09
2022-02-07 22:13:15.1100,0.224,0.492,0.269,-3.84,0.91,-0.75,-0.09,-0.69,-1.05
2022-02-07 22:13:15.1110,0.397,0.603,0.401,-3.84,0.91,-0.75,-0.56,-0.9,-0.84
2022-02-07 22:13:15.1110,0.814,0.791,0.496,-3.84,0.91,-0.75,-1.01,-1.38,-0.41
2022-02-07 22:13:15.1140,1.233,0.971,0.354,-3.84,0.91,-0.75,-1.37,-1.24,-0.1
2022-02-07 22:13:15.1160,1.327,1.121,0.187,-3.84,0.91,-0.75,-1.69,-0.27,-0.2
2022-02-07 22:13:15.1150,1.354,1.309,0.095,-3.84,0.91,-0.75,-1.9,1.09,-0.58
2022-02-07 22:13:15.1170,1.491,1.381,0.005,-3.84,0.91,-0.75,-1.88,1.21,-0.71
2022-02-07 22:13:15.1180,1.735,1.178,-0.139,-3.84,0.91,-0.75,-1.44,-1.16,-0.41
2022-02-07 22:13:15.1190,1.731,0.809,-0.214,-3.84,0.91,-0.75,-0.87,-3.07,0.14
2022-02-07 22:13:15.1220,1.413,0.574,0.017,-3.84,0.91,-0.75,-0.57,-3.33,0.67
Time,1.05,0.509,0.322,-3.84,0.91,-0.75,-0.56,-2.2,1.07
2022-02-07 22:13:15.1220,0.751,0.516,0.537,-3.84,0.91,-0.75,-0.64,-0.19,1.19
2022-02-07 22:13:15.1240,0.52,0.615,0.434,-3.84,0.91,-0.75,-0.48,1.82,1.03
2022-02-07 22:13:15.1250,0.415,0.747,0.041,-3.84,0.91,-0.75,-0.13,3.18,0.67
2022-02-07 22:13:15.1250,0.404,0.873,-0.197,-3.84,0.91,-0.75,0.15,3.79,0.24
2022-02-07 22:13:15.1320,0.444,0.986,-0.264,-3.84,0.91,-0.75,0.36,3.96,-0.12
2022-02-07 22:13:15.1280,0.532,1.061,-0.282,-3.84,0.91,-0.75,0.54,3.89,-0.29
Time,0.643,1.126,-0.307,-3.84,0.91,-0.75,0.63,3.46,-0.32
2022-02-07 22:13:15.1310,0.74,1.207,-0.333,-3.84,0.91,-0.75,0.65,2.77,-0.27
2022-02-07 22:13:15.1290,0.797,1.259,-0.352,-3.84,0.91,-0.75,0.6,1.83,-0.21
2022-02-07 22:13:15.1310,0.815,1.282,-0.367,-3.84,0.91,-0.75,0.48,0.77,-0.18
2022-02-07 22:13:15.1340,0.804,1.26,-0.349,-3.84,0.91,-0.75,0.3,-0.26,-0.2
2022-02-07 22:13:15.1340,0.762,1.164,-0.299,-3.84,0.91,-0.75,0.08,-1.1,-0.21
2022-02-07 22:13:15.1350,0.714,1.027,-0.226,-3.84,0.91,-0.75,-0.1,-1.63,-0.16
2022-02-07 22:13:15.1360,0.682,0.912,-0.158,-3.84,0.91,-0.75,-0.24,-1.95,-0.07
2022-02-07 22:13:15.1360,0.646,0.845,-0.112,-3.84,0.91,-0.75,-0.36,-2.3,0.02
Time,0.594,0.809,-0.068,-3.84,0.91,-0.75,-0.5,-2.8,0.1
2022-02-07 22:13:15.1400,0.542,0.8,0.037,-3.84,0.91,-0.75,-1.23,-3.65,0.27
2022-02-07 22:13:15.1400,0.503,0.826,0.269,-3.84,0.91,-0.75,-1.23,-3.65,0.27
2022-02-07 22:13:15.1420,0.438,0.879,0.696,-3.84,0.91,-0.75,-2.08,-2.85,0.3
2022-02-07 22:13:15.1430,0.327,0.927,1.089,-3.84,0.91,-0.75,-2.92,-1.57,0.31
2022-02-07 22:13:15.1430,0.301,0.938,0.866,-3.84,0.91,-0.75,-3.4,-0.9,0.34
2022-02-07 22:13:15.1440,0.326,0.953,0.456,-3.84,0.91,-0.75,-3.54,-1.05,0.32
2022-02-07 22:13:15.1450,0.331,0.967,0.18,-3.84,0.91,-0.75,-3.42,-1.61,0.18
Time,0.358,0.942,0.036,-3.84,0.91,-0.75,-3.22,-2.08,0.02
2022-02-07 22:13:15.1480,0.433,0.867,0.031,-3.84,0.91,-0.75,-3.07,-2.13,-0.09
2022-02-07 22:13:15.1490,0.526,0.779,0.143,-3.84,0.91,-0.75,-3.06,-1.76,-0.12
2022-02-07 22:13:15.1500,0.615,0.694,0.275,-3.84,0.91,-0.75,-3.14,-1.19,-0.12
2022-02-07 22:13:15.1490,0.704,0.599,0.311,-3.84,0.91,-0.75,-3.23,-0.7,-0.15
2022-02-07 22:13:15.1510,0.791,0.516,0.246,-3.84,0.91,-0.75,-3.21,-0.37,-0.2
2022-02-07 22:13:15.1530,0.921,0.431,0.112,-3.84,0.91,-0.75,-3.06,-0.2,-0.24
2022-02-07 22:13:15.1540,1.105,0.321,0.003,-3.84,0.91,-0.75,-2.87,-0.15,-0.2
2022-02-07 22:13:15.1570,1.305,0.195,-0.011,-3.84,0.91,-0.75,-2.75,-0.18,-0.1
2022-02-07 22:13:15.1570,1.403,0.117,-0.026,-3.84,0.91,-0.75,-2.65,-0.18,-0.03
2022-02-07 22:13:15.1560,1.384,0.093,-0.051,-3.84,0.91,-0.75,-2.47,-0.01,-0.03
2022-02-07 22:13:15.1570,1.232,0.133,-0.072,-3.84,0.91,-0.75,-2.11,0.4,-0.15
2022-02-07 22:13:15.1590,1.067,0.198,-0.11,-3.84,0.91,-0.75,-1.65,0.65,-0.33
2022-02-07 22:13:15.1600,0.926,0.253,-0.143,-3.84,0.91,-0.75,-1.18,0.69,-0.52
Time,0.828,0.303,-0.11,-3.84,0.91,-0.75,-0.78,0.52,-0.66
2022-02-07 22:13:15.1620,0.748,0.347,-0.065,-3.84,0.91,-0.75,-0.43,0.25,-0.75
2022-02-07 22:13:15.1640,0.66,0.412,-0.029,-3.84,0.91,-0.75,-0.17,-0.05,-0.86
2022-02-07 22:13:15.1640,0.597,0.491,0.003,-3.84,0.91,-0.75,0.04,-0.32,-0.97
2022-02-07 22:13:15.1650,0.576,0.571,0.036,-3.84,0.91,-0.75,0.21,-0.53,-1.05
2022-02-07 22:13:15.1670,0.569,0.651,0.068,-3.84,0.91,-0.75,0.32,-0.66,-1.12
2022-02-07 22:13:15.1690,0.575,0.738,0.102,-3.84,0.91,-0.75,0.37,-0.72,-1.21
2022-02-07 22:13:15.1700,0.569,0.813,0.131,-3.84,0.91,-0.75,0.36,-0.69,-1.3
2022-02-07 22:13:15.1690,0.566,0.842,0.149,-3.84,0.91,-0.75,0.33,-0.55,-1.4
2022-02-07 22:13:15.1690,0.571,0.824,0.153,-3.84,0.91,-0.75,0.31,-0.37,-1.48
2022-02-07 22:13:15.1720,0.581,0.771,0.121,-3.84,0.91,-0.75,0.31,-0.22,-1.53
2022-02-07 22:13:15.1710,0.6,0.709,0.064,-3.84,0.91,-0.75,0.35,-0.1,-1.52
2022-02-07 22:13:15.1740,0.633,0.654,0.005,-3.84,0.91,-0.75,0.44,-0.07,-1.43
2022-02-07 22:13:15.1760,0.67,0.615,-0.065,-3.84,0.91,-0.75,0.58,-0.17,-1.29
2022-02-07 22:13:15.1770,0.685,0.591,-0.118,-3.84,0.91,-0.75,0.76,-0.34,-1.14
2022-02-07 22:13:15.1770,0.64,0.555,-0.134,-3.84,0.91,-0.75,0.95,-0.58,-1.05
2022-02-07 22:13:15.1760,0.572,0.516,-0.137,-3.84,0.91,-0.75,1.17,-0.87,-1.03
2022-02-07 22:13:15.1800,0.505,0.48,-0.13,-3.84,0.91,-0.75,1.4,-1.16,-1.06
2022-02-07 22:13:15.1790,0.455,0.453,-0.125,-3.84,0.91,-0.75,1.64,-1.5,-1.08
2022-02-07 22:13:15.1820,0.445,0.452,-0.126,-3.84,0.91,-0.75,1.9,-1.99,-1.06
2022-02-07 22:13:15.1830,0.496,0.518,-0.135,-3.84,0.91,-0.75,2.17,-2.72,-0.95
2022-02-07 22:13:15.1840,0.628,0.661,-0.119,-3.84,0.91,-0.75,2.33,-3.38,-0.78
2022-02-07 22:13:15.1840,0.77,0.836,0.03,-3.84,0.91,-0.75,2.2,-3.29,-0.74
2022-02-07 22:13:15.1850,0.834,1.004,0.262,-3.84,0.91,-0.75,1.73,-2.4,-0.81
2022-02-07 22:13:15.1850,0.839,1.125,0.523,-3.84,0.91,-0.75,1.02,-0.99,-0.89
2022-02-07 22:13:15.1890,0.821,1.065,0.439,-3.92,1.63,-1.84,0.5,-0.05,-0.79
2022-02-07 22:13:15.1900,0.785,0.888,0.102,-3.92,1.63,-1.84,0.11,0.33,-0.64
Time,0.691,0.745,-0.05,-3.92,1.63,-1.84,-0.22,0.44,-0.59
2022-02-07 22:13:15.1920,0.604,0.629,-0.103,-3.92,1.63,-1.84,-0.47,0.5,-0.61
2022-02-07 22:13:15.1910,0.602,0.564,-0.142,-3.92,1.63,-1.84,-0.65,0.62,-0.6
2022-02-07 22:13:15.1930,0.692,0.555,-0.174,-3.92,1.63,-1.84,-0.83,0.68,-0.57
2022-02-07 22:13:15.1960,0.881,0.554,-0.215,-3.92,1.63,-1.84,-1.07,0.46,-0.48
Time,1.101,0.563,-0.283,-3.92,1.63,-1.84,-1.4,-0.23,-0.36
2022-02-07 22:13:15.1960,1.31,0.608,-0.359,-3.92,1.63,-1.84,-1.67,-1.17,-0.26
2022-02-07 22:13:15.1980,1.448,0.655,-0.395,-3.92,1.63,-1.84,-1.79,-2.14,-0.24
2022-02-07 22:13:15.1980,1.502,0.689,-0.369,-3.92,1.63,-1.84,-1.68,-2.93,-0.27
2022-02-07 22:13:15.2000,1.501,0.668,-0.342,-3.92,1.63,-1.84,-1.32,-3.53,-0.28
2022-02-07 22:13:15.2030,1.446,0.59,-0.321,-3.92,1.63,-1.84,-0.75,-3.85,-0.16
2022-02-07 22:13:15.2040,1.326,0.522,-0.259,-3.92,1.63,-1.84,-0.06,-3.87,0.01
2022-02-07 22:13:15.2050,1.186,0.512,-0.179,-3.92,1.63,-1.84,0.54,-3.6,0.03
2022-02-07 22:13:15.2050,1.057,0.525,-0.067,-3.92,1.63,-1.84,0.94,-3.04,-0.04
2022-02-07 22:13:15.2060,1.007,0.534,0.023,-3.92,1.63,-1.84,1.16,-2.38,-0.1
2022-02-07 22:13:15.2060,1.014,0.54,0.105,-3.92,1.63,-1.84,1.23,-1.74,-0.1
2022-02-07 22:13:15.2110,1.031,0.54,0.233,-3.92,1.63,-1.84,1.09,-1.0,-0.04
Time,1.028,0.534,0.442,-3.92,1.63,-1.84,0.72,0.08,0.04
2022-02-07 22:13:15.2110,1.0,0.514,0.635,-3.92,1.63,-1.84,0.37,1.11,0.15
2022-02-07 22:13:15.2090,0.96,0.487,0.421,-3.92,1.63,-1.84,0.36,1.44,0.22
2022-02-07 22:13:15.2120,0.933,0.469,0.13,-3.92,1.63,-1.84,0.57,1.2,0.29
2022-02-07 22:13:15.2120,0.926,0.438,0.041,-3.92,1.63,-1.84,0.78,0.83,0.4
2022-02-07 22:13:15.2160,0.898,0.409,0.094,-3.92,1.63,-1.84,0.83,0.64,0.51
Time,0.862,0.386,0.25,-3.92,1.63,-1.84,0.61,0.66,0.65
2022-02-07 22:13:15.2210,0.828,0.367,0.473,-3.92,1.63,-1.84,0.1,0.95,0.82
2022-02-07 22:13:15.2180,0.787,0.379,0.687,-3.92,1.63,-1.84,-0.5,1.37,1.05
2022-02-07 22:13:15.2170,0.742,0.425,0.655,-3.92,1.63,-1.84,-0.93,1.61,1.32
2022-02-07 22:13:15.2190,0.707,0.51,0.47,-3.92,1.63,-1.84,-1.25,1.56,1.52
2022-02-07 22:13:15.2230,0.62,0.601,0.391,-3.92,1.63,-1.84,-1.53,1.29,1.6
2022-02-07 22:13:15.2210,0.533,0.687,0.333,-3.92,1.63,-1.84,-1.69,1.03,1.6
2022-02-07 22:13:15.2240,0.507,0.747,0.207,-3.92,1.63,-1.84,-1.7,1.03,1.58
2022-02-07 22:13:15.2230,0.513,0.769,0.057,-3.92,1.63,-1.84,-1.58,1.37,1.54
2022-02-07 22:13:15.2240,0.508,0.773,-0.066,-3.92,1.63,-1.84,-1.43,1.86,1.45
2022-02-07 22:13:15.2250,0.5,0.77,-0.142,-3.92,1.63,-1.84,-1.28,2.38,1.33
2022-02-07 22:13:15.2280,0.488,0.796,-0.184,-3.92,1.63,-1.84,-1.15,2.82,1.2
2022-02-07 22:13:15.2300,0.5,0.836,-0.228,-3.92,1.63,-1.84,-1.05,3.16,1.12
2022-02-07 22:13:15.2280,0.565,0.905,-0.283,-3.92,1.63,-1.84,-0.95,3.48,1.05
2022-02-07 22:13:15.2290,0.667,1.046,-0.35,-3.92,1.63,-1.84,-0.84,3.8,0.97
Time,0.792,1.242,-0.412,-3.92,1.63,-1.84,-0.78,4.03,0.82
2022-02-07 22:13:15.2320,0.922,1.492,-0.486,-3.92,1.63,-1.84,-0.81,3.94,0.57
2022-02-07 22:13:15.2340,1.052,1.751,-0.568,-3.92,1.63,-1.84,-0.94,3.35,0.35
2022-02-07 22:13:15.2350,1.159,1.93,-0.663,-3.92,1.63,-1.84,-1.1,2.28,0.29
2022-02-07 22:13:15.2360,1.199,1.965,-0.73,-3.92,1.63,-1.84,-1.16,0.98,0.43
2022-02-07 22:13:15.2360,1.124,1.833,-0.741,-3.92,1.63,-1.84,-1.08,-0.32,0.61
2022-02-07 22:13:15.2380,0.941,1.615,-0.675,-3.92,1.63,-1.84,-0.84,-1.33,0.68
2022-02-07 22:13:15.2420,0.786,1.38,-0.533,-3.92,1.63,-1.84,-0.5,-1.82,0.63
2022-02-07 22:13:15.2410,0.687,1.204,-0.362,-3.92,1.63,-1.84,-0.13,-1.87,0.49
2022-02-07 22:13:15.2420,0.615,1.069,-0.239,-3.92,1.63,-1.84,0.2,-1.67,0.34
2022-02-07 22:13:15.2430,0.564,0.963,-0.165,-3.92,1.63,-1.84,0.48,-1.35,0.19
2022-02-07 22:13:15.2420,0.528,0.893,-0.12,-3.92,1.63,-1.84,0.7,-0.97,0.05
Time,0.505,0.854,-0.088,-3.92,1.63,-1.84,0.89,-0.59,-0.08
2022-02-07 22:13:15.2450,0.499,0.839,-0.077,-3.92,1.63,-1.84,1.06,-0.28,-0.16
2022-02-07 22:13:15.2450,0.505,0.832,-0.081,-3.92,1.63,-1.84,1.19,-0.07,-0.19
2022-02-07 22:13:15.2470,0.504,0.828,-0.094,-3.92,1.63,-1.84,1.31,0.04,-0.2
2022-02-07 22:13:15.2480,0.489,0.826,-0.091,-3.92,1.63,-1.84,1.39,0.11,-0.21
2022-02-07 22:13:15.2480,0.465,0.812,-0.082,-3.92,1.63,-1.84,1.45,0.12,-0.23
2022-02-07 22:13:15.2510,0.439,0.789,-0.078,-3.92,1.63,-1.84,1.48,0.07,-0.26
2022-02-07 22:13:15.2530,0.415,0.761,-0.082,-3.92,1.63,-1.84,1.5,-0.09,-0.29
2022-02-07 22:13:15.2530,0.392,0.734,-0.078,-3.92,1.63,-1.84,1.49,-0.29,-0.34
2022-02-07 22:13:15.2530,0.377,0.71,-0.059,-3.92,1.63,-1.84,1.43,-0.46,-0.4
2022-02-07 22:13:15.2550,0.364,0.683,-0.038,-3.92,1.63,-1.84,1.34,-0.58,-0.46
2022-02-07 22:13:15.2540,0.352,0.654,-0.011,-3.92,1.63,-1.84,1.21,-0.66,-0.5
2022-02-07 22:13:15.2570,0.349,0.637,0.029,-3.92,1.63,-1.84,1.05,-0.64,-0.55
2022-02-07 22:13:15.2580,0.367,0.649,0.074,-3.92,1.63,-1.84,0.84,-0.42,-0.6
2022-02-07 22:13:15.2590,0.415,0.669,0.072,-3.92,1.63,-1.84,0.6,-0.03,-0.7
2022-02-07 22:13:15.2590,0.468,0.686,0.04,-3.92,1.63,-1.84,0.35,0.49,-0.83
2022-02-07 22:13:15.2610,0.531,0.708,0.008,-3.92,1.63,-1.84,0.14,1.04,-0.93
2022-02-07 22:13:15.2610,0.61,0.729,-0.023,-3.92,1.63,-1.84,-0.0,1.6,-0.99
Time,0.69,0.739,-0.054,-3.92,1.63,-1.84,-0.02,2.0,-0.98
2022-02-07 22:13:15.2650,0.755,0.731,-0.125,-3.92,1.63,-1.84,0.21,1.77,-0.97
2022-02-07 22:13:15.2650,0.809,0.699,-0.269,-3.92,1.63,-1.84,0.75,0.62,-0.99
2022-02-07 22:13:15.2700,0.837,0.642,-0.409,-3.92,1.63,-1.84,1.44,-0.96,-1.03
2022-02-07 22:13:15.2670,0.851,0.584,-0.374,-3.92,1.63,-1.84,1.92,-1.94,-1.0
2022-02-07 22:13:15.2680,0.865,0.552,-0.208,-3.92,1.63,-1.84,2.15,-2.26,-0.93
2022-02-07 22:13:15.2690,0.877,0.537,-0.094,-3.92,1.63,-1.84,2.19,-2.52,-0.9
2022-02-07 22:13:15.2690,0.931,0.504,0.066,-3.92,1.63,-1.84,1.9,-2.78,-0.84
2022-02-07 22:13:15.2710,1.071,0.456,0.646,-3.92,1.63,-1.84,0.78,-1.69,-0.57
2022-02-07 22:13:15.2710,1.228,0.384,1.543,-3.92,1.63,-1.84,-0.53,0.18,-0.21
2022-02-07 22:13:15.2770,1.194,0.417,1.063,-3.92,1.63,-1.84,-1.14,0.77,-0.06
2022-02-07 22:13:15.2740,1.144,0.548,0.25,-3.92,1.63,-1.84,-1.14,0.46,-0.1
2022-02-07 22:13:15.2750,1.131,0.622,-0.063,-3.92,1.63,-1.84,-0.78,0.04,-0.2
2022-02-07 22:13:15.2750,1.141,0.634,-0.164,-3.92,1.63,-1.84,-0.26,-0.27,-0.26
2022-02-07 22:13:15.2780,1.186,0.605,-0.164,-3.92,1.63,-1.84,0.24,-0.39,-0.22
2022-02-07 22:13:15.2770,1.171,0.561,-0.072,-3.92,1.63,-1.84,0.57,-0.3,-0.18
2022-02-07 22:13:15.2790,1.079,0.522,0.07,-3.92,1.63,-1.84,0.65,-0.04,-0.17
2022-02-07 22:13:15.2800,0.997,0.5,0.2,-3.92,1.63,-1.84,0.52,0.45,-0.19
2022-02-07 22:13:15.2810,0.965,0.484,0.238,-3.92,1.63,-1.84,0.33,1.09,-0.21
2022-02-07 22:13:15.2820,0.96,0.473,0.192,-3.92,1.63,-1.84,0.17,1.7,-0.22
2022-02-07 22:13:15.2840,0.985,0.46,0.118,-3.92,1.63,-1.84,0.1,2.11,-0.2
2022-02-07 22:13:15.2840,1.021,0.449,0.05,-3.92,1.63,-1.84,0.1,2.26,-0.14
2022-02-07 22:13:15.2860,1.033,0.44,-0.001,-3.92,1.63,-1.84,0.16,2.18,-0.07
2022-02-07 22:13:15.2870,1.021,0.432,-0.027,-3.92,1.63,-1.84,0.25,2.08,-0.01
2022-02-07 22:13:15.2870,0.987,0.42,-0.02,-3.92,1.63,-1.84,0.33,2.11,0.03
2022-02-07 22:13:15.2890,0.942,0.403,-0.005,-3.92,1.63,-1.84,0.41,2.22,0.07
2022-02-07 22:13:15.2900,0.908,0.379,0.002,-3.92,1.63,-1.84,0.47,2.32,0.11
2022-02-07 22:13:15.2920,0.888,0.357,0.002,-3.92,1.63,-1.84,0.52,2.34,0.18
2022-02-07 22:13:15.2910,0.892,0.333,0.01,-3.92,1.63,-1.84,0.53,2.2,0.27
2022-02-07 22:13:15.2930,0.916,0.316,0.022,-3.92,1.63,-1.84,0.48,1.87,0.39
2022-02-07 22:13:15.2940,0.954,0.297,0.042,-3.92,1.63,-1.84,0.4,1.46,0.56
2022-02-07 22:13:15.2960,0.976,0.27,0.079,-3.92,1.63,-1.84,0.21,0.99,0.77
2022-02-07 22:13:15.2970,0.98,0.254,0.138,-3.92,1.63,-1.84,-0.05,0.65,1.02
Time,0.968,0.246,0.215,-3.92,1.63,-1.84,-0.41,0.63,1.32
2022-02-07 22:13:15.2970,0.941,0.248,0.314,-3.92,1.63,-1.84,-0.83,1.0,1.65
2022-02-07 22:13:15.2970,0.91,0.274,0.378,-3.92,1.63,-1.84,-0.83,1.0,1.65
2022-02-07 22:13:15.3030,0.874,0.359,0.168,-3.92,1.63,-1.84,-1.09,2.34,2.1
2022-02-07 22:13:15.3000,0.808,0.484,-0.262,-3.92,1.63,-1.84,-0.65,2.47,2.14
2022-02-07 22:13:15.3010,0.725,0.561,-0.623,-3.92,1.63,-1.84,-0.08,2.01,2.04
2022-02-07 22:13:15.3020,0.642,0.612,-0.831,-3.92,1.63,-1.84,0.51,1.21,1.9
2022-02-07 22:13:15.3100,0.602,0.644,-0.961,-3.92,1.63,-1.84,1.19,0.44,1.85
2022-02-07 22:13:15.3060,0.625,0.652,-1.092,-3.92,1.63,-1.84,2.0,-0.09,1.85
2022-02-07 22:13:15.3070,0.683,0.675,-1.147,-3.92,1.63,-1.84,2.85,-0.28,1.86
2022-02-07 22:13:15.3090,0.809,0.704,-1.032,-3.92,1.63,-1.84,3.26,-0.12,1.9
2022-02-07 22:13:15.3090,1.073,0.671,-0.516,-3.92,1.63,-1.84,3.06,0.74,2.07
2022-02-07 22:13:15.3080,1.35,0.628,-0.117,-3.92,1.63,-1.84,2.75,1.59,2.2
2022-02-07 22:13:15.3120,1.499,0.68,-0.165,-3.92,1.63,-1.84,2.58,1.92,2.15
2022-02-07 22:13:15.3110,1.562,0.789,-0.398,-3.92,1.63,-1.84,2.73,1.83,2.02
2022-02-07 22:13:15.3130,1.617,0.879,-0.566,-3.92,1.63,-1.84,2.99,1.6,1.87
2022-02-07 22:13:15.3140,1.658,0.959,-0.536,-3.92,1.63,-1.84,3.12,1.41,1.73
2022-02-07 22:13:15.3150,1.638,0.989,-0.415,-3.92,1.63,-1.84,3.11,1.39,1.65
2022-02-07 22:13:15.3150,1.551,0.955,-0.339,-3.92,1.63,-1.84,3.03,1.34,1.49
2022-02-07 22:13:15.3180,1.293,0.961,-0.318,-3.92,1.63,-1.84,3.0,1.26,1.19
2022-02-07 22:13:15.3190,1.031,0.977,-0.308,-3.92,1.63,-1.84,3.06,1.09,0.9
2022-02-07 22:13:15.3180,0.842,0.983,-0.291,-3.92,1.63,-1.84,3.2,0.9,0.69
2022-02-07 22:13:15.3210,0.677,0.982,-0.271,-3.92,1.63,-1.84,3.4,0.76,0.52
2022-02-07 22:13:15.3210,0.506,0.958,-0.235,-3.92,1.63,-1.84,3.58,0.7,0.34
2022-02-07 22:13:15.3210,0.348,0.93,-0.172,-3.92,1.63,-1.84,3.69,0.75,0.11
2022-02-07 22:13:15.3230,0.248,0.859,-0.087,-3.92,1.63,-1.84,3.7,0.86,-0.09
2022-02-07 22:13:15.3250,0.197,0.733,-0.01,-3.92,1.63,-1.84,3.66,0.97,-0.22
2022-02-07 22:13:15.3260,0.169,0.613,0.035,-3.92,1.63,-1.84,3.56,1.04,-0.29
2022-02-07 22:13:15.3270,0.168,0.558,0.024,-3.92,1.63,-1.84,3.46,1.07,-0.34
2022-02-07 22:13:15.3270,0.182,0.543,-0.02,-3.92,1.63,-1.84,3.37,1.07,-0.43
2022-02-07 22:13:15.3280,0.168,0.521,-0.067,-3.92,1.63,-1.84,3.25,1.02,-0.62
2022-02-07 22:13:15.3290,0.145,0.5,-0.111,-3.92,1.63,-1.84,3.1,0.89,-0.92
2022-02-07 22:13:15.3310,0.133,0.48,-0.105,-3.92,1.63,-1.84,2.89,0.75,-1.23
Time,0.154,0.448,-0.027,-3.92,1.63,-1.84,2.57,0.74,-1.47
2022-02-07 22:13:15.3320,0.22,0.394,0.178,-3.92,1.63,-1.84,2.06,1.1,-1.52
2022-02-07 22:13:15.3330,0.335,0.352,0.454,-3.92,1.63,-1.84,1.39,1.72,-1.39
Time,0.48,0.386,0.641,-3.92,1.63,-1.84,1.39,1.72,-1.39
2022-02-07 22:13:15.3350,0.601,0.508,0.693,-3.92,1.63,-1.84,0.02,2.06,-0.97
2022-02-07 22:13:15.3350,0.156,-0.379,-0.822,-3.92,1.63,-1.84,0.02,2.06,-0.97
2022-02-07 22:13:15.3370,0.085,-0.397,-0.803,-3.92,1.63,-1.84,0.29,-2.09,-0.37
2022-02-07 22:13:15.3390,0.036,-0.437,-0.804,-3.92,1.63,-1.84,0.15,-1.85,-0.52
2022-02-07 22:13:15.3390,-0.009,-0.487,-0.815,-3.92,1.63,-1.84,0.1,-1.54,-0.6
2022-02-07 22:13:15.3390,-0.067,-0.547,-0.843,-3.92,1.63,-1.84,0.14,-1.15,-0.63
2022-02-07 22:13:15.3400,-0.069,-0.606,-0.843,-3.92,1.63,-1.84,0.27,-0.79,-0.62
2022-02-07 22:13:15.3400,-0.027,-0.649,-0.816,-3.92,1.63,-1.84,0.44,-0.49,-0.57
2022-02-07 22:13:15.3420,0.022,-0.679,-0.787,-3.92,1.63,-1.84,0.58,-0.22,-0.45
2022-02-07 22:13:15.3450,0.064,-0.715,-0.779,-3.92,1.63,-1.84,0.62,0.02,-0.27
2022-02-07 22:13:15.3450,0.059,-0.752,-0.784,-3.92,1.63,-1.84,0.5,0.26,-0.07
2022-02-07 22:13:15.3460,0.032,-0.757,-0.807,-3.92,1.63,-1.84,0.27,0.5,0.05
2022-02-07 22:13:15.3470,0.043,-0.733,-0.833,-3.92,1.63,-1.84,-0.0,0.63,0.08
2022-02-07 22:13:15.3470,0.076,-0.687,-0.863,-3.92,1.63,-1.84,-0.25,0.65,0.08
2022-02-07 22:13:15.3510,0.116,-0.632,-0.895,-3.92,1.63,-1.84,-0.43,0.56,0.09
2022-02-07 22:13:15.3480,0.134,-0.607,-0.926,-3.92,1.63,-1.84,-0.53,0.39,0.09
2022-02-07 22:13:15.3500,0.117,-0.607,-0.951,-3.92,1.63,-1.84,-0.58,0.18,0.08
2022-02-07 22:13:15.3510,0.1,-0.617,-0.983,-3.92,1.63,-1.84,-0.56,0.0,0.03
2022-02-07 22:13:15.3530,0.117,-0.625,-0.967,-3.92,1.63,-1.84,-0.49,-0.08,0.01
2022-02-07 22:13:15.3570,0.124,-0.637,-0.932,-3.92,1.63,-1.84,-0.44,-0.1,0.02
2022-02-07 22:13:15.3550,0.126,-0.641,-0.887,-3.92,1.63,-1.84,-0.42,-0.08,0.03
2022-02-07 22:13:15.3540,0.127,-0.632,-0.848,-3.92,1.63,-1.84,-0.47,-0.06,0.03
2022-02-07 22:13:15.3560,0.123,-0.621,-0.819,-3.92,1.63,-1.84,-0.53,-0.04,0.04
2022-02-07 22:13:15.3570,0.116,-0.606,-0.802,-3.92,1.63,-1.84,-0.57,0.05,0.06
2022-02-07 22:13:15.3580,0.1,-0.603,-0.807,-3.92,1.63,-1.84,-0.6,0.18,0.08
2022-02-07 22:13:15.3600,0.085,-0.602,-0.816,-3.92,1.63,-1.84,-0.61,0.29,0.09
2022-02-07 22:13:15.3600,0.076,-0.588,-0.829,-3.92,1.63,-1.84,-0.63,0.32,0.05
2022-02-07 22:13:15.3620,0.086,-0.569,-0.829,-3.92,1.63,-1.84,-0.67,0.27,-0.01
2022-02-07 22:13:15.3620,0.102,-0.553,-0.835,-3.92,1.63,-1.84,-0.74,0.18,-0.03
2022-02-07 22:13:15.3640,0.112,-0.538,-0.861,-3.92,1.63,-1.84,-0.8,0.06,-0.02
2022-02-07 22:13:15.3640,0.108,-0.538,-0.891,-3.92,1.63,-1.84,-0.83,-0.1,-0.0
2022-02-07 22:13:15.3690,0.091,-0.545,-0.911,-3.92,1.63,-1.84,-0.8,-0.3,0.01
2022-02-07 22:13:15.3660,0.073,-0.541,-0.9,-3.92,1.63,-1.84,-0.73,-0.46,0.0
2022-02-07 22:13:15.3690,0.058,-0.527,-0.859,-3.92,1.63,-1.84,-0.66,-0.52,-0.01
2022-02-07 22:13:15.3690,0.041,-0.521,-0.801,-3.92,1.63,-1.84,-0.61,-0.47,-0.02
2022-02-07 22:13:15.3690,0.035,-0.522,-0.754,-3.92,1.63,-1.84,-0.6,-0.33,-0.03
2022-02-07 22:13:15.3690,0.067,-0.527,-0.768,-3.92,1.63,-1.84,-0.66,-0.18,-0.09
2022-02-07 22:13:15.3720,0.099,-0.562,-0.809,-3.92,1.63,-1.84,-0.66,0.02,-0.08
2022-02-07 22:13:15.3720,0.069,-0.563,-0.894,-3.92,1.63,-1.84,-0.52,0.17,0.05
Time,0.033,-0.544,-0.945,-3.92,1.63,-1.84,-0.3,0.15,0.13
2022-02-07 22:13:15.3760,0.032,-0.511,-0.944,-3.92,1.63,-1.84,-0.09,0.04,0.15
2022-02-07 22:13:15.3760,0.025,-0.476,-0.896,-3.92,1.63,-1.84,0.07,-0.08,0.14
2022-02-07 22:13:15.3770,0.01,-0.473,-0.827,-3.92,1.63,-1.84,0.14,-0.1,0.12
2022-02-07 22:13:15.3780,-0.016,-0.479,-0.778,-3.92,1.63,-1.84,0.13,-0.02,0.08
2022-02-07 22:13:15.3790,-0.032,-0.476,-0.778,-3.92,1.63,-1.84,0.09,0.11,0.04
2022-02-07 22:13:15.3810,-0.026,-0.471,-0.792,-3.92,1.63,-1.84,0.07,0.19,-0.0
2022-02-07 22:13:15.3820,-0.023,-0.47,-0.795,-3.92,1.63,-1.84,0.06,0.2,-0.02
2022-02-07 22:13:15.3830,-0.018,-0.467,-0.782,-3.92,1.63,-1.84,0.01,0.21,-0.11
2022-02-07 22:13:15.3830,-0.008,-0.458,-0.772,-3.92,1.63,-1.84,-0.08,0.23,-0.11
2022-02-07 22:13:15.3840,0.001,-0.458,-0.785,-3.92,1.63,-1.84,-0.19,0.28,-0.17
2022-02-07 22:13:15.3850,0.011,-0.472,-0.828,-3.92,1.63,-1.84,-0.27,0.32,-0.22
2022-02-07 22:13:15.3860,0.043,-0.491,-0.867,-3.92,1.63,-1.84,-0.3,0.32,-0.24
2022-02-07 22:13:15.3900,0.068,-0.497,-0.894,-3.92,1.63,-1.84,-0.3,0.24,-0.22
2022-02-07 22:13:15.3880,0.061,-0.479,-0.914,-3.92,1.63,-1.84,-0.29,0.17,-0.21
2022-02-07 22:13:15.3890,0.04,-0.457,-0.936,-3.92,1.63,-1.84,-0.23,0.14,-0.22
2022-02-07 22:13:15.3890,0.034,-0.432,-0.948,-3.92,1.63,-1.84,-0.16,0.11,-0.25
2022-02-07 22:13:15.3900,0.036,-0.421,-0.953,-3.92,1.63,-1.84,-0.06,0.11,-0.27
2022-02-07 22:13:15.3920,0.038,-0.425,-0.965,-3.92,1.63,-1.84,0.04,0.1,-0.29
2022-02-07 22:13:15.3950,0.039,-0.427,-0.972,-3.92,1.63,-1.84,0.11,0.04,-0.3
2022-02-07 22:13:15.3950,0.045,-0.438,-0.96,-3.92,1.63,-1.84,0.17,-0.09,-0.31
2022-02-07 22:13:15.3990,0.047,-0.454,-0.922,-3.92,1.63,-1.84,0.2,-0.21,-0.29
2022-02-07 22:13:15.3950,0.042,-0.471,-0.865,-3.92,1.63,-1.84,0.17,-0.31,-0.27
2022-02-07 22:13:15.3960,0.029,-0.492,-0.818,-3.92,1.63,-1.84,0.1,-0.36,-0.24
Time,0.012,-0.505,-0.792,-3.92,1.63,-1.84,0.0,-0.34,-0.2
Time,-0.007,-0.505,-0.801,-3.92,1.63,-1.84,-0.11,-0.24,-0.15
2022-02-07 22:13:15.4260,-0.019,-0.489,-0.846,-4.32,2.05,-3.46,-0.17,-0.14,-0.12
2022-02-07 22:13:15.4360,-0.02,-0.465,-0.892,-4.32,2.05,-3.46,-0.18,-0.09,-0.1
2022-02-07 22:13:15.4460,-0.015,-0.447,-0.929,-4.32,2.05,-3.46,-0.15,-0.09,-0.09
2022-02-07 22:13:15.4560,0.001,-0.446,-0.945,-4.32,2.05,-3.46,-0.12,-0.14,-0.08
2022-02-07 22:13:15.4660,0.009,-0.449,-0.943,-4.32,2.05,-3.46,-0.1,-0.21,-0.08
2022-02-07 22:13:15.4770,0.007,-0.441,-0.931,-4.32,2.05,-3.46,-0.09,-0.29,-0.08
2022-02-07 22:13:15.4870,-0.01,-0.424,-0.918,-4.32,2.05,-3.46,-0.07,-0.31,-0.08
2022-02-07 22:13:15.4970,-0.042,-0.407,-0.921,-4.32,2.05,-3.46,-0.09,-0.35,-0.12
2022-02-07 22:13:15.5070,-0.06,-0.401,-0.924,-5.15,1.93,-5.22,-0.09,-0.36,-0.18
Time,-0.057,-0.401,-0.93,-5.45,4.57,0.87,-0.08,-0.39,-0.24
2022-02-07 22:13:15.5270,-0.048,-0.412,-0.89,2.61,-3.29,5.66,-0.04,-0.39,-0.28
2022-02-07 22:13:15.5370,-0.023,-0.491,-0.851,-9.21,-4.62,0.34,0.24,-0.09,-0.18
2022-02-07 22:13:15.5470,-0.007,-0.485,-0.815,3.54,-2.31,-2.56,0.36,0.17,-0.12
2022-02-07 22:13:15.5570,-0.005,-0.459,-0.811,-0.98,-0.67,-0.28,0.38,0.29,-0.08
2022-02-07 22:13:15.5670,-0.008,-0.442,-0.814,-7.4,4.39,4.62,0.34,0.33,-0.08
2022-02-07 22:13:15.5770,-0.019,-0.44,-0.833,1.02,-0.14,-0.84,0.28,0.29,-0.11
2022-02-07 22:13:15.5880,-0.015,-0.441,-0.855,-0.21,1.73,4.41,0.17,0.13,-0.15
2022-02-07 22:13:15.5980,-0.008,-0.437,-0.877,-3.78,-4.47,-8.35,-0.02,-0.13,-0.21
2022-02-07 22:13:15.6080,-0.011,-0.423,-0.895,-1.1,-3.7,4.56,-0.24,-0.48,-0.28
2022-02-07 22:13:15.6180,-0.037,-0.396,-0.904,7.43,0.33,-2.73,-0.42,-0.78,-0.4
2022-02-07 22:13:15.6280,-0.051,-0.429,-0.893,-0.13,-6.08,4.49,-0.45,-0.92,-0.47
2022-02-07 22:13:15.6380,-0.056,-0.458,-0.868,-2.15,3.51,3.15,-0.39,-0.85,-0.44
