time,gFx,gFy,gFz,ax,ay,az,wx,wy,wz
2022-02-07 22:23:23.7750,-0.093,-0.269,-0.877,0.34,-1.09,0.51,-0.7,-0.38,0.53
2022-02-07 22:23:23.7850,-0.09,-0.273,-0.872,0.65,-1.71,-0.21,-0.56,-0.27,0.5
2022-02-07 22:23:23.7960,-0.102,-0.285,-0.839,0.6,-1.58,-0.29,-0.47,-0.2,0.48
2022-02-07 22:23:23.8050,-0.118,-0.288,-0.793,0.68,-1.44,-0.67,-0.42,-0.11,0.47
2022-02-07 22:23:23.8150,-0.136,-0.289,-0.762,0.82,-1.38,-1.13,-0.38,0.01,0.45
2022-02-07 22:23:23.8260,-0.15,-0.283,-0.77,0.98,-1.34,-1.43,-0.32,0.1,0.43
2022-02-07 22:23:23.8360,-0.149,-0.277,-0.815,1.08,-1.38,-1.3,-0.21,0.13,0.41
2022-02-07 22:23:23.8460,-0.152,-0.281,-0.853,1.07,-1.4,-0.85,-0.09,0.13,0.38
2022-02-07 22:23:23.8560,-0.168,-0.282,-0.856,1.1,-1.35,-0.51,0.04,0.14,0.34
2022-02-07 22:23:23.8660,-0.201,-0.277,-0.846,1.29,-1.35,-0.52,0.13,0.15,0.28
2022-02-07 22:23:23.8760,-0.204,-0.287,-0.823,1.6,-1.41,-0.62,0.17,0.19,0.23
2022-02-07 22:23:23.8860,-0.193,-0.316,-0.805,1.59,-1.3,-0.85,0.15,0.29,0.22
2022-02-07 22:23:23.8960,-0.185,-0.363,-0.794,1.51,-1.0,-1.02,0.09,0.44,0.26
2022-02-07 22:23:23.9060,-0.189,-0.394,-0.813,1.46,-0.55,-1.09,-0.0,0.56,0.3
2022-02-07 22:23:23.9160,-0.215,-0.404,-0.873,1.58,-0.27,-0.87,-0.1,0.65,0.3
2022-02-07 22:23:23.9260,-0.211,-0.4,-0.964,1.86,-0.18,-0.22,-0.15,0.69,0.28
2022-02-07 22:23:23.9360,-0.201,-0.388,-1.036,1.83,-0.22,0.66,-0.2,0.65,0.23
2022-02-07 22:23:23.9470,-0.195,-0.38,-1.075,1.82,-0.32,1.31,-0.26,0.6,0.19
Time,-0.156,-0.381,-1.102,1.77,-0.36,1.65,-0.32,0.55,0.17
2022-02-07 22:23:23.9670,-0.104,-0.379,-1.132,1.4,-0.32,1.91,-0.35,0.48,0.19
2022-02-07 22:23:23.9770,-0.061,-0.368,-1.153,0.92,-0.32,2.19,-0.34,0.36,0.22
2022-02-07 22:23:23.9870,-0.029,-0.349,-1.162,0.53,-0.4,2.37,-0.31,0.19,0.27
2022-02-07 22:23:23.9970,0.009,-0.324,-1.138,0.22,-0.58,2.42,-0.28,0.0,0.32
2022-02-07 22:23:24.0070,0.042,-0.325,-1.075,-0.17,-0.78,2.11,-0.25,-0.13,0.36
2022-02-07 22:23:24.0170,0.036,-0.351,-1.006,-0.49,-0.71,1.46,-0.22,-0.25,0.39
2022-02-07 22:23:24.0270,-0.022,-0.367,-0.931,-0.41,-0.42,0.78,-0.22,-0.33,0.41
2022-02-07 22:23:24.0370,-0.083,-0.376,-0.832,0.16,-0.28,0.01,-0.15,-0.19,0.35
Time,-0.109,-0.392,-0.741,0.68,-0.16,-0.99,-0.06,0.11,0.25
2022-02-07 22:23:24.0570,-0.163,-0.405,-0.687,0.95,-0.01,-1.84,0.03,0.47,0.15
2022-02-07 22:23:24.0670,-0.187,-0.442,-0.699,1.53,0.14,-2.3,0.11,0.78,0.07
2022-02-07 22:23:24.0720,-0.163,-0.452,-0.756,1.77,0.49,-2.12,0.18,1.01,-0.01
2022-02-07 22:23:24.0880,-0.154,-0.459,-0.825,1.61,0.53,-1.51,0.23,1.16,-0.13
2022-02-07 22:23:24.0980,-0.138,-0.45,-0.88,1.66,0.59,-0.83,0.23,1.22,-0.28
2022-02-07 22:23:24.1030,-0.106,-0.42,-0.908,1.59,0.43,-0.3,0.23,1.25,-0.45
2022-02-07 22:23:24.1180,-0.079,-0.422,-0.933,1.4,0.15,-0.04,0.26,1.22,-0.62
2022-02-07 22:23:24.1280,-0.06,-0.417,-0.913,1.29,0.17,0.21,0.31,1.26,-0.83
2022-02-07 22:23:24.1380,-0.035,-0.406,-0.867,1.25,0.07,-0.03,0.4,1.4,-1.06
Time,-0.004,-0.424,-0.848,1.17,-0.04,-0.45,0.48,1.48,-1.31
2022-02-07 22:23:24.1580,0.051,-0.42,-0.849,1.03,0.12,-0.55,0.54,1.46,-1.52
2022-02-07 22:23:24.1680,0.113,-0.399,-0.837,0.66,-0.01,-0.5,0.58,1.33,-1.7
2022-02-07 22:23:24.1780,0.167,-0.404,-0.748,0.25,-0.21,-0.64,0.6,1.24,-1.82
2022-02-07 22:23:24.1880,0.194,-0.409,-0.64,-0.07,-0.18,-1.55,0.61,1.2,-1.88
2022-02-07 22:23:24.1980,0.21,-0.419,-0.571,-0.11,-0.15,-2.53,0.57,1.13,-1.89
2022-02-07 22:23:24.2090,0.252,-0.421,-0.512,-0.13,-0.06,-3.13,0.52,1.11,-1.84
2022-02-07 22:23:24.2190,0.289,-0.424,-0.452,-0.37,-0.05,-3.68,0.45,1.12,-1.74
2022-02-07 22:23:24.2290,0.321,-0.417,-0.428,-0.56,-0.02,-4.19,0.32,1.02,-1.6
Time,0.335,-0.434,-0.431,-0.72,-0.08,-4.34,0.16,0.79,-1.45
2022-02-07 22:23:24.2490,0.349,-0.457,-0.441,-0.71,0.15,-4.27,0.01,0.6,-1.31
2022-02-07 22:23:24.2590,0.36,-0.452,-0.447,-0.76,0.37,-4.15,-0.13,0.55,-1.21
2022-02-07 22:23:24.2690,0.34,-0.452,-0.461,-0.73,0.36,-4.1,-0.22,0.63,-1.15
2022-02-07 22:23:24.2790,0.313,-0.42,-0.476,-0.4,0.4,-3.93,-0.19,0.76,-1.12
2022-02-07 22:23:24.2900,0.314,-0.367,-0.522,-0.05,0.08,-3.76,-0.05,0.82,-1.13
2022-02-07 22:23:24.2990,0.332,-0.362,-0.583,0.02,-0.37,-3.22,0.17,0.85,-1.17
Time,0.311,-0.373,-0.597,-0.02,-0.34,-2.64,0.41,0.95,-1.23
2022-02-07 22:23:24.3190,0.283,-0.366,-0.597,0.37,-0.25,-2.5,0.56,1.06,-1.31
2022-02-07 22:23:24.3300,0.339,-0.289,-0.672,0.72,-0.37,-2.4,0.61,1.02,-1.42
2022-02-07 22:23:24.3400,0.403,-0.251,-0.738,0.21,-1.18,-1.51,0.59,0.98,-1.6
2022-02-07 22:23:24.3500,0.428,-0.322,-0.784,-0.18,-1.39,-0.9,0.51,0.89,-1.68
2022-02-07 22:23:24.3600,0.537,-0.348,-0.914,-0.35,-0.61,-0.3,0.33,0.54,-1.66
Time,0.602,-0.249,-1.019,-1.39,-0.5,1.02,0.11,0.39,-1.85
2022-02-07 22:23:24.3800,0.54,-0.219,-1.092,-1.71,-1.41,2.05,0.05,0.58,-2.2
2022-02-07 22:23:24.3900,0.485,-0.253,-1.185,-0.97,-1.49,2.74,0.13,0.68,-2.51
Time,0.515,-0.322,-1.338,-0.27,-1.02,3.82,0.33,0.68,-2.61
2022-02-07 22:23:24.4100,0.663,-0.413,-1.343,-0.67,-0.22,5.28,0.58,0.7,-2.49
2022-02-07 22:23:24.4200,0.722,-0.495,-1.209,-1.9,0.76,5.16,0.75,0.73,-2.24
Time,0.695,-0.502,-1.057,-2.26,1.55,3.82,0.8,0.73,-2.05
2022-02-07 22:23:24.4410,0.625,-0.449,-0.929,-1.76,1.53,2.42,0.82,0.75,-1.99
2022-02-07 22:23:24.4500,0.589,-0.427,-0.836,-0.97,1.07,1.26,0.84,0.66,-1.96
2022-02-07 22:23:24.4600,0.596,-0.383,-0.762,-0.57,0.9,0.46,0.8,0.42,-1.93
2022-02-07 22:23:24.4710,0.52,-0.282,-0.689,-0.52,0.45,-0.23,0.78,0.13,-2.07
2022-02-07 22:23:24.4810,0.406,-0.167,-0.604,0.42,-0.54,-0.92,0.79,-0.12,-2.37
2022-02-07 22:23:24.4910,0.299,-0.055,-0.547,1.57,-1.56,-1.74,0.87,-0.41,-2.84
2022-02-07 22:23:24.5010,0.148,0.136,-0.48,2.73,-2.65,-2.24,0.99,-0.66,-3.56
2022-02-07 22:23:24.5110,0.015,0.318,-0.263,4.29,-4.46,-3.02,1.07,-0.55,-4.46
2022-02-07 22:23:24.5210,-0.003,0.372,0.101,5.59,-5.95,-5.39,1.03,0.07,-5.25
2022-02-07 22:23:24.5310,0.102,0.34,0.309,5.74,-6.1,-8.94,1.0,0.81,-5.76
2022-02-07 22:23:24.5410,0.22,0.318,0.318,4.85,-5.5,-10.54,0.96,1.4,-5.95
2022-02-07 22:23:24.5510,0.349,0.279,0.321,3.91,-4.98,-10.46,1.0,1.96,-5.88
Time,0.411,0.269,0.323,2.93,-4.3,-10.35,1.11,2.48,-5.75
2022-02-07 22:23:24.5710,0.389,0.373,0.334,2.69,-3.99,-10.18,1.14,2.9,-5.78
2022-02-07 22:23:24.5820,0.333,0.519,0.329,3.27,-4.83,-10.09,1.03,3.22,-5.99
Time,0.329,0.604,0.243,4.06,-5.83,-9.72,0.87,3.36,-6.26
2022-02-07 22:23:24.6020,0.374,0.696,0.132,4.25,-6.22,-8.54,0.73,3.35,-6.5
2022-02-07 22:23:24.6120,0.416,0.782,0.053,4.0,-6.68,-7.22,0.61,3.33,-6.73
2022-02-07 22:23:24.6220,0.491,0.846,-0.005,3.75,-7.0,-6.22,0.51,3.38,-6.9
2022-02-07 22:23:24.6320,0.651,0.904,-0.123,3.03,-7.08,-5.37,0.58,3.53,-6.97
2022-02-07 22:23:24.6420,0.805,0.951,-0.293,1.48,-7.11,-3.82,0.77,3.6,-6.97
2022-02-07 22:23:24.6520,0.917,0.993,-0.439,0.09,-7.03,-1.9,0.98,3.54,-6.92
2022-02-07 22:23:24.6630,1.051,1.066,-0.562,-1.01,-6.93,-0.21,0.97,3.04,-6.73
2022-02-07 22:23:24.6720,1.198,1.227,-0.539,-2.51,-7.25,1.08,0.56,2.25,-6.51
2022-02-07 22:23:24.6820,1.179,1.339,-0.364,-3.84,-8.35,0.86,0.02,2.45,-6.6
2022-02-07 22:23:24.6930,1.326,1.389,-0.255,-3.92,-8.8,-0.94,-0.25,2.89,-6.7
2022-02-07 22:23:24.7020,1.523,1.454,-0.711,-5.7,-8.8,-0.97,-0.36,2.38,-6.67
2022-02-07 22:23:24.7120,1.606,1.433,-0.663,-7.85,-8.86,3.59,-0.44,2.41,-6.52
2022-02-07 22:23:24.7220,1.632,1.383,-0.596,-8.78,-8.09,2.76,-0.31,2.6,-6.21
2022-02-07 22:23:24.7330,1.654,1.305,-0.679,-9.33,-7.15,2.63,-0.12,2.77,-5.76
2022-02-07 22:23:24.7430,1.678,1.238,-0.86,-9.83,-5.97,3.69,0.06,2.59,-5.23
2022-02-07 22:23:24.7530,1.663,1.27,-1.04,-10.34,-5.08,5.76,0.19,2.03,-4.77
2022-02-07 22:23:24.7630,1.597,1.33,-1.064,-10.4,-5.21,7.46,0.15,1.32,-4.4
2022-02-07 22:23:24.7730,1.507,1.349,-0.988,-10.01,-5.52,7.6,-0.08,0.74,-4.12
2022-02-07 22:23:24.7830,1.435,1.341,-0.908,-9.41,-5.42,6.83,-0.36,0.38,-3.87
Time,1.422,1.368,-0.882,-9.06,-5.15,6.15,-0.5,0.16,-3.67
2022-02-07 22:23:24.8030,1.456,1.401,-0.881,-9.31,-5.27,5.99,-0.43,0.03,-3.54
2022-02-07 22:23:24.8130,1.44,1.349,-0.876,-9.94,-5.36,6.02,-0.18,0.05,-3.38
Time,1.356,1.199,-0.85,-9.95,-4.57,5.98,0.22,0.25,-3.1
2022-02-07 22:23:24.8340,1.29,1.004,-0.792,-9.36,-2.9,5.67,0.72,0.64,-2.66
2022-02-07 22:23:24.8430,1.297,0.804,-0.74,-8.98,-0.89,5.04,1.28,1.06,-2.07
2022-02-07 22:23:24.8540,1.398,0.609,-0.714,-9.31,1.1,4.47,1.83,1.37,-1.34
Time,1.551,0.401,-0.759,-10.48,3.0,4.17,2.37,1.51,-0.43
2022-02-07 22:23:24.8740,1.68,0.192,-0.76,-11.96,5.01,4.48,2.79,1.35,0.61
2022-02-07 22:23:24.8840,1.709,0.04,-0.685,-13.04,6.9,4.19,3.0,1.08,1.7
2022-02-07 22:23:24.8940,1.653,-0.058,-0.463,-12.99,8.14,3.11,2.76,0.89,2.78
2022-02-07 22:23:24.8990,1.55,-0.151,-0.206,-12.11,8.87,0.57,2.11,0.95,3.83
2022-02-07 22:23:24.9140,1.424,-0.225,-0.031,-10.67,9.53,-1.95,1.27,0.98,4.76
2022-02-07 22:23:24.9240,1.471,-0.294,0.146,-9.11,9.96,-3.72,0.39,0.79,5.64
2022-02-07 22:23:24.9340,1.609,-0.343,0.186,-9.37,10.35,-5.31,-0.4,0.52,6.55
2022-02-07 22:23:24.9440,1.63,-0.287,0.227,-10.13,10.38,-5.58,-1.14,0.38,7.49
2022-02-07 22:23:24.9440,1.564,-0.073,0.113,-10.13,10.38,-5.58,-1.14,0.38,7.49
2022-02-07 22:23:24.9440,1.485,0.207,-0.073,-10.13,10.38,-5.58,-1.14,0.38,7.49
2022-02-07 22:23:24.9440,1.37,0.38,-0.135,-10.13,10.38,-5.58,-1.14,0.38,7.49
2022-02-07 22:23:24.9440,1.174,0.511,-0.017,-10.13,10.38,-5.58,-1.14,0.38,7.49
2022-02-07 22:23:24.9440,1.033,0.633,-0.058,-10.13,10.38,-5.58,-1.14,0.38,7.49
2022-02-07 22:23:25.0090,0.955,0.778,-0.267,-10.13,10.38,-5.58,-1.52,-0.02,7.9
2022-02-07 22:23:25.0090,0.728,0.884,-0.444,-10.13,10.38,-5.58,-1.15,-0.6,6.85
Time,0.35,0.859,-0.472,-10.13,10.38,-5.58,-0.89,-0.97,5.34
2022-02-07 22:23:25.0380,0.073,0.723,-0.205,-9.65,9.25,-5.82,-0.93,-0.77,3.97
2022-02-07 22:23:25.0480,0.17,0.498,0.071,-3.04,-0.9,-3.1,-1.12,-0.38,3.24
2022-02-07 22:23:25.0580,0.345,0.269,0.263,7.29,-3.23,-4.18,-1.32,-0.03,3.12
2022-02-07 22:23:25.0650,0.463,0.195,0.392,5.68,-1.33,-5.89,-1.54,0.49,3.33
2022-02-07 22:23:25.0750,0.464,0.366,0.339,4.58,-1.12,-7.0,-1.61,1.19,3.45
2022-02-07 22:23:25.0850,0.141,0.788,0.202,5.07,-3.45,-6.07,-1.62,1.67,3.04
2022-02-07 22:23:25.0960,-0.051,1.23,0.159,8.39,-7.96,-4.7,-1.66,1.87,2.24
2022-02-07 22:23:25.1050,0.021,1.496,0.036,10.03,-12.34,-4.08,-1.75,2.0,1.14
2022-02-07 22:23:25.1160,0.304,1.616,-0.211,6.33,-15.78,0.14,-1.85,2.16,-0.44
2022-02-07 22:23:25.1160,0.462,1.706,-0.37,6.33,-15.78,0.14,-2.03,2.4,-2.48
2022-02-07 22:23:25.1380,0.798,1.429,-0.617,6.33,-15.78,0.14,-1.96,2.62,-4.17
2022-02-07 22:23:25.1490,1.292,1.129,-0.673,6.33,-15.78,0.14,-1.81,2.68,-5.14
2022-02-07 22:23:25.1560,1.604,0.907,-0.529,6.33,-15.78,0.14,-1.7,3.21,-5.43
2022-02-07 22:23:25.1660,1.564,0.744,-0.299,6.33,-15.78,0.14,-1.4,5.04,-6.24
2022-02-07 22:23:25.1760,1.366,0.713,-0.192,6.33,-15.78,0.14,-0.61,6.88,-7.72
2022-02-07 22:23:25.1860,1.817,1.134,0.044,6.33,-15.78,0.14,-0.03,6.46,-8.84
2022-02-07 22:23:25.1980,1.495,1.274,-0.551,6.33,-15.78,0.14,0.8,5.31,-9.78
2022-02-07 22:23:25.2070,3.082,0.591,0.554,6.33,-15.78,0.14,1.14,5.71,-8.05
2022-02-07 22:23:25.2180,4.133,0.289,0.424,6.33,-15.78,0.14,1.41,3.31,-5.66
2022-02-07 22:23:25.2270,2.7,0.435,1.085,6.33,-15.78,0.14,0.78,-1.03,-4.07
2022-02-07 22:23:25.2370,1.492,-0.141,0.746,6.33,-15.78,0.14,1.26,1.31,-3.33
2022-02-07 22:23:25.2460,1.62,-0.664,0.867,6.33,-15.78,0.14,0.78,1.51,-1.95
2022-02-07 22:23:25.2570,1.612,-0.258,0.768,6.33,-15.78,0.14,0.57,1.23,-0.86
2022-02-07 22:23:25.2670,1.001,0.279,0.63,6.33,-15.78,0.14,0.44,1.19,-0.57
2022-02-07 22:23:25.7110,0.805,0.432,0.577,0.1,3.06,-0.97,0.45,1.26,-0.85
2022-02-07 22:23:25.7110,0.643,0.442,0.3,0.33,4.38,-0.04,0.45,1.26,-0.85
2022-02-07 22:23:25.7110,0.748,0.475,0.413,0.33,4.38,-0.04,0.45,1.26,-0.85
2022-02-07 22:23:25.7110,0.584,0.333,0.198,0.33,4.38,-0.04,0.45,1.26,-0.85
2022-02-07 22:23:25.7110,0.648,0.169,0.24,0.33,4.38,-0.04,0.45,1.26,-0.85
2022-02-07 22:23:25.7110,0.772,-0.001,0.393,0.33,4.38,-0.04,0.45,1.26,-0.85
2022-02-07 22:23:25.7110,0.856,-0.137,0.419,0.33,4.38,-0.04,0.45,1.26,-0.85
2022-02-07 22:23:25.7110,0.87,-0.27,0.369,0.33,4.38,-0.04,0.45,1.26,-0.85
2022-02-07 22:23:25.7110,0.87,-0.27,0.369,0.33,4.38,-0.04,0.45,1.26,-0.85
2022-02-07 22:23:25.7110,0.834,-0.179,0.341,0.33,4.38,-0.04,0.45,1.26,-0.85
2022-02-07 22:23:25.7110,0.834,-0.179,0.341,0.33,4.38,-0.04,0.45,1.26,-0.85
2022-02-07 22:23:25.7110,0.453,0.294,-0.095,0.33,4.38,-0.04,0.45,1.26,-0.85
2022-02-07 22:23:25.7110,0.168,0.584,-0.093,0.33,4.38,-0.04,0.45,1.26,-0.85
2022-02-07 22:23:25.7110,0.168,0.584,-0.093,0.33,4.38,-0.04,0.45,1.26,-0.85
2022-02-07 22:23:25.7110,-0.251,0.653,-0.16,0.33,4.38,-0.04,0.45,1.26,-0.85
2022-02-07 22:23:25.7110,-0.251,0.653,-0.16,0.33,4.38,-0.04,0.45,1.26,-0.85
2022-02-07 22:23:25.7110,-0.448,0.937,-0.684,0.33,4.38,-0.04,0.45,1.26,-0.85
2022-02-07 22:23:25.7110,-0.448,0.937,-0.684,0.33,4.38,-0.04,0.45,1.26,-0.85
2022-02-07 22:23:25.7110,0.191,2.399,-1.414,0.33,4.38,-0.04,0.45,1.26,-0.85
2022-02-07 22:23:25.7110,0.525,2.92,-1.283,0.33,4.38,-0.04,0.45,1.26,-0.85
2022-02-07 22:23:25.7120,0.944,2.821,-0.785,0.33,4.38,-0.04,0.45,1.26,-0.85
2022-02-07 22:23:25.7120,1.187,2.191,-0.59,0.33,4.38,-0.04,0.45,1.26,-0.85
2022-02-07 22:23:25.7120,1.038,1.21,-0.045,0.33,4.38,-0.04,0.45,1.26,-0.85
2022-02-07 22:23:25.7120,0.936,0.998,0.365,0.33,4.38,-0.04,0.45,1.26,-0.85
2022-02-07 22:23:25.7120,1.144,0.79,0.523,0.33,4.38,-0.04,0.45,1.26,-0.85
2022-02-07 22:23:25.7120,1.144,1.509,0.494,0.33,4.38,-0.04,0.45,1.26,-0.85
2022-02-07 22:23:25.7120,1.389,0.567901611328125,0.576,0.33,4.38,-0.04,0.45,1.26,-0.85
2022-02-07 22:23:25.7120,1.458,0.568,0.576,0.33,4.38,-0.04,0.45,1.26,-0.85
2022-02-07 22:23:25.7120,1.634,0.692,1.11,0.33,4.38,-0.04,0.45,1.26,-0.85
2022-02-07 22:23:25.7130,1.735,0.835,1.843,0.33,4.38,-0.04,0.45,1.26,-0.85
2022-02-07 22:23:25.7130,1.735,0.835,1.843,0.33,4.38,-0.04,0.45,1.26,-0.85
2022-02-07 22:23:25.7130,1.127,0.433,0.323,0.33,4.38,-0.04,0.45,1.26,-0.85
2022-02-07 22:23:25.7130,1.191,0.293,0.323,0.33,4.38,-0.04,0.45,1.26,-0.85
2022-02-07 22:23:25.7130,1.197,0.339,0.134,0.33,4.38,-0.04,0.45,1.26,-0.85
2022-02-07 22:23:25.7130,0.883,0.477,0.283,0.33,4.38,-0.04,0.45,1.26,-0.85
2022-02-07 22:23:25.7130,0.883,0.477,0.283,0.33,4.38,-0.04,0.45,1.26,-0.85
2022-02-07 22:23:25.7130,0.718,0.365,-0.001,0.33,4.38,-0.04,0.45,1.26,-0.85
2022-02-07 22:23:25.7130,0.651,0.241,-0.091,0.33,4.38,-0.04,0.45,1.26,-0.85
2022-02-07 22:23:25.7130,0.651,0.241,-0.091,0.33,4.38,-0.04,0.45,1.26,-0.85
2022-02-07 22:23:25.7130,0.437,0.297,0.07,0.33,4.38,-0.04,0.45,1.26,-0.85
2022-02-07 22:23:25.7130,-0.082,0.547,-0.041,0.33,4.38,-0.04,0.45,1.26,-0.85
2022-02-07 22:23:25.7130,-0.082,0.547,-0.041,0.33,4.38,-0.04,0.45,1.26,-0.85
2022-02-07 22:23:25.7130,0.02,0.54,0.068,0.33,4.38,-0.04,0.45,1.26,-0.85
2022-02-07 22:23:25.7590,-0.141,0.481,-0.108,0.33,4.38,-0.04,0.69,-0.25,-0.36
2022-02-07 22:23:25.7600,-0.089,0.537,-0.084,0.33,4.38,-0.04,0.32,0.12,0.8
2022-02-07 22:23:25.7650,-0.195,0.875,-0.384,0.33,4.38,-0.04,0.18,-0.17,1.16
2022-02-07 22:23:25.7650,-0.407,1.204,-0.552,0.33,4.38,-0.04,0.09,-0.14,1.19
2022-02-07 22:23:25.7680,-0.641,1.386,-0.696,0.33,4.38,-0.04,0.21,0.11,0.63
2022-02-07 22:23:25.7690,-0.716,1.399,-0.735,0.33,4.38,-0.04,0.61,0.58,-0.17
2022-02-07 22:23:25.7840,-0.498,1.274,-0.525,0.33,4.38,-0.04,1.08,1.4,-0.72
2022-02-07 22:23:25.7900,-0.173,1.132,-0.293,0.33,4.38,-0.04,1.62,2.46,-1.1
2022-02-07 22:23:25.7910,0.046,1.106,-0.255,0.33,4.38,-0.04,2.13,3.23,-1.46
2022-02-07 22:23:25.7910,0.232,1.053,-0.26,0.33,4.38,-0.04,2.44,3.52,-1.65
2022-02-07 22:23:25.8010,0.271,1.106,-0.231,0.33,4.38,-0.04,2.54,3.44,-1.96
2022-02-07 22:23:25.8110,0.224,1.225,-0.219,0.33,4.38,-0.04,2.5,3.12,-2.45
2022-02-07 22:23:25.8290,0.16,1.293,-0.147,-0.62,6.18,-0.64,2.33,2.7,-3.07
2022-02-07 22:23:25.8390,0.156,1.436,-0.059,-0.62,6.18,-0.64,1.99,2.2,-3.76
2022-02-07 22:23:25.8490,0.418,1.604,0.292,-0.62,6.18,-0.64,0.56,-1.27,-3.98
2022-02-07 22:23:25.8540,1.312,1.906,1.144,-0.62,6.18,-0.64,-1.49,-6.74,-3.25
2022-02-07 22:23:25.8700,0.94,2.101,1.327,-0.62,6.18,-0.64,-2.02,-6.25,-3.33
2022-02-07 22:23:25.8760,0.532,2.024,1.118,-0.62,6.18,-0.64,-1.83,-2.92,-3.84
Time,0.777,1.855,0.374,-0.62,6.18,-0.64,-1.23,-1.67,-3.79
2022-02-07 22:23:25.8980,1.23,1.538,-0.294,-0.62,6.18,-0.64,0.04,-2.15,-3.17
2022-02-07 22:23:25.9100,1.391,1.304,-0.183,-0.62,6.18,-0.64,1.54,-1.68,-2.34
2022-02-07 22:23:25.9160,1.357,1.115,0.133,-0.62,6.18,-0.64,2.66,-0.27,-1.6
2022-02-07 22:23:25.9300,1.243,1.023,0.273,-0.62,6.18,-0.64,3.2,0.73,-1.11
2022-02-07 22:23:25.9360,1.119,1.006,0.373,-0.62,6.18,-0.64,3.14,0.4,-1.02
Time,1.002,0.953,0.641,-0.62,6.18,-0.64,2.41,-0.76,-1.16
2022-02-07 22:23:25.9580,0.875,0.858,0.842,-0.62,6.18,-0.64,1.42,-1.26,-1.34
2022-02-07 22:23:25.9710,0.784,0.647,0.791,-0.62,6.18,-0.64,0.51,-0.54,-1.24
2022-02-07 22:23:25.9780,0.608,0.267,0.729,-0.62,6.18,-0.64,-0.32,0.56,-0.83
2022-02-07 22:23:25.9830,0.576,0.356,0.419,-0.62,6.18,-0.64,-0.74,0.87,-0.31
2022-02-07 22:23:25.9990,0.524,0.477,0.385,-0.62,6.18,-0.64,-1.17,1.15,0.1
2022-02-07 22:23:26.0050,0.438,0.526,0.401,-0.62,6.18,-0.64,-1.48,1.46,0.34
2022-02-07 22:23:26.0190,0.385,0.502,0.413,-0.62,6.18,-0.64,-1.76,1.67,0.47
2022-02-07 22:23:26.0310,0.349,0.478,0.433,-0.62,6.18,-0.64,-2.06,1.75,0.48
2022-02-07 22:23:26.0380,0.334,0.439,0.48,-0.62,6.18,-0.64,-2.41,1.81,0.43
2022-02-07 22:23:26.0380,0.333,0.431,0.488,-0.62,6.18,-0.64,-2.78,1.68,0.38
Time,0.31,0.486,0.431,-0.62,6.18,-0.64,-3.04,1.19,0.48
2022-02-07 22:23:26.0720,0.252,0.603,0.4,-0.62,6.18,-0.64,-3.2,0.59,0.68
2022-02-07 22:23:26.0780,0.16,0.753,0.396,-2.06,7.95,-2.01,-3.27,0.14,0.84
2022-02-07 22:23:26.0920,0.063,0.936,0.351,-2.06,7.95,-2.01,-3.28,-0.31,0.82
2022-02-07 22:23:26.0980,-0.008,1.102,0.266,-2.06,7.95,-2.01,-3.16,-0.64,0.67
2022-02-07 22:23:26.1120,-0.014,1.17,0.224,-2.06,7.95,-2.01,-2.82,-0.59,0.58
2022-02-07 22:23:26.1180,0.028,1.194,0.16,-2.06,7.95,-2.01,-2.32,-0.25,0.57
2022-02-07 22:23:26.1310,0.095,1.169,0.131,-2.06,7.95,-2.01,-1.86,0.23,0.68
2022-02-07 22:23:26.1370,0.139,1.174,0.118,-2.06,7.95,-2.01,-1.54,0.69,0.73
2022-02-07 22:23:26.1510,0.142,1.363,0.001,-2.06,7.95,-2.01,-1.44,0.78,0.5
2022-02-07 22:23:26.1620,0.148,1.459,-0.05,-2.06,7.95,-2.01,-1.42,0.76,0.17
2022-02-07 22:23:26.1680,0.184,1.564,-0.149,-2.06,7.95,-2.01,-1.38,0.48,-0.22
2022-02-07 22:23:26.1820,0.218,1.596,-0.279,-2.06,7.95,-2.01,-1.22,-0.25,-0.59
2022-02-07 22:23:26.1880,0.201,1.557,-0.365,-2.06,7.95,-2.01,-0.82,-1.32,-0.87
2022-02-07 22:23:26.2020,0.189,1.426,-0.391,-2.06,7.95,-2.01,-0.11,-2.51,-0.98
2022-02-07 22:23:26.2120,0.204,1.321,-0.355,-2.06,7.95,-2.01,0.82,-3.48,-0.95
2022-02-07 22:23:26.2190,0.221,1.306,-0.245,-2.06,7.95,-2.01,1.77,-3.9,-0.99
2022-02-07 22:23:26.2320,0.21,1.365,-0.125,-2.06,7.95,-2.01,2.6,-3.82,-1.23
2022-02-07 22:23:26.2380,0.195,1.385,-0.035,-2.06,7.95,-2.01,3.22,-3.41,-1.63
2022-02-07 22:23:26.2520,0.217,1.294,0.028,-3.0,9.38,-1.92,3.67,-2.79,-1.9
2022-02-07 22:23:26.2580,0.247,1.16,0.087,-3.0,9.38,-1.92,4.06,-2.1,-1.98
Time,0.266,1.062,0.118,-3.0,9.38,-1.92,4.37,-1.58,-1.92
2022-02-07 22:23:26.2800,0.268,0.976,0.167,-3.0,9.38,-1.92,4.5,-1.17,-1.81
2022-02-07 22:23:26.2930,0.25,0.841,0.265,-3.0,9.38,-1.92,4.42,-0.8,-1.61
2022-02-07 22:23:26.2990,0.217,0.683,0.408,-3.0,9.38,-1.92,4.13,-0.52,-1.15
2022-02-07 22:23:26.3130,0.146,0.528,0.667,-3.0,9.38,-1.92,3.52,-0.27,-0.48
2022-02-07 22:23:26.3190,0.015,0.436,0.97,-3.0,9.38,-1.92,2.44,0.01,0.08
2022-02-07 22:23:26.3330,-0.119,0.432,1.089,-3.0,9.38,-1.92,1.19,0.59,0.2
2022-02-07 22:23:26.3380,-0.057,0.369,0.942,-3.0,9.38,-1.92,0.18,1.56,-0.09
2022-02-07 22:23:26.3520,0.087,0.272,0.8,-3.0,9.38,-1.92,-0.57,2.83,-0.58
2022-02-07 22:23:26.3570,0.182,0.243,0.683,-3.0,9.38,-1.92,-1.09,4.35,-0.87
2022-02-07 22:23:26.3730,0.2,0.282,0.674,-3.22,10.68,-1.31,-1.47,6.1,-0.85
2022-02-07 22:23:26.3810,0.198,0.37,0.732,-3.22,10.68,-1.31,-1.86,7.84,-0.7
Time,0.171,0.479,0.83,-3.22,10.68,-1.31,-2.27,9.44,-0.47
2022-02-07 22:23:26.3960,0.078,0.667,0.758,-3.22,10.68,-1.31,-2.55,10.77,-0.06
2022-02-07 22:23:26.4090,-0.093,0.997,0.477,-3.22,10.68,-1.31,-2.71,10.41,0.36
Time,-0.428,1.378,-0.088,-3.22,10.68,-1.31,-2.46,8.04,0.52
2022-02-07 22:23:26.4320,-0.445,1.519,-0.459,-3.22,10.68,-1.31,-1.75,6.13,0.19
2022-02-07 22:23:26.4440,-0.331,1.726,-0.58,-3.22,10.68,-1.31,-0.73,5.26,-0.74
2022-02-07 22:23:26.4500,-0.463,2.183,-0.883,-3.22,10.68,-1.31,0.02,4.28,-1.73
2022-02-07 22:23:26.4630,-0.641,2.445,-1.227,-3.22,10.68,-1.31,0.44,2.56,-2.43
Time,-0.451,2.184,-1.122,-3.25,10.97,-1.46,0.42,1.3,-2.25
2022-02-07 22:23:26.4830,-0.029,1.531,-0.624,-3.25,10.97,-1.46,0.33,1.48,-1.37
2022-02-07 22:23:26.4890,-0.013,1.196,-0.483,-3.25,10.97,-1.46,0.12,1.3,-0.55
2022-02-07 22:23:26.5040,-0.186,1.046,-0.602,-3.25,10.97,-1.46,-0.03,0.18,-0.14
2022-02-07 22:23:26.5090,-0.098,0.847,-0.622,-3.25,10.97,-1.46,-0.08,-3.0,0.06
Time,0.026,0.775,-0.416,9.63,-4.15,7.6,-0.03,-5.93,0.43
2022-02-07 22:24:19.0960,0.067,0.895,-0.124,-2.01,4.72,-2.42,0.24,-7.11,0.96
2022-02-07 22:24:19.0960,-0.069,1.215,-0.037,-2.01,4.72,-2.42,0.69,-7.06,1.26
2022-02-07 22:24:19.0970,-0.256,1.527,-0.055,-2.01,4.72,-2.42,1.13,-6.52,1.2
2022-02-07 22:24:19.0970,-0.299,1.652,-0.04,-2.01,4.72,-2.42,1.31,-6.23,0.92
2022-02-07 22:24:19.0980,-0.239,1.647,0.193,0.02,-5.64,4.59,1.12,-5.94,0.65
2022-02-07 22:24:19.0970,-0.183,1.611,0.58,-0.73,-6.93,7.11,0.68,-5.36,0.43
2022-02-07 22:24:19.0520,-0.137,1.477,0.843,-0.61,-4.01,6.13,0.16,-4.38,0.26
2022-02-07 22:24:19.0980,-0.107,1.21,0.887,-0.61,-4.01,6.13,-0.33,-3.14,0.16
2022-02-07 22:24:19.1110,-0.112,0.944,0.749,-0.46,-4.45,4.67,-0.67,-1.93,0.09
2022-02-07 22:24:19.0970,-0.135,0.772,0.537,-0.46,-4.45,4.67,-0.85,-0.93,0.01
2022-02-07 22:24:19.1180,-0.16,0.677,0.359,1.97,5.56,-10.53,-0.95,-0.18,-0.05
2022-02-07 22:24:19.1050,-0.182,0.64,0.237,1.97,5.56,-10.53,-0.98,0.32,-0.09
Time,-0.208,0.62,0.147,-0.33,7.19,-7.54,-0.96,0.6,-0.12
2022-02-07 22:24:19.1090,-0.224,0.586,0.078,-0.33,7.19,-7.54,-0.89,0.6,-0.17
Time,-0.248,0.561,0.013,-1.24,7.38,-6.36,-0.8,0.24,-0.25
2022-02-07 22:24:19.1110,-0.252,0.545,-0.012,-1.47,6.92,-6.19,-0.76,-0.54,-0.34
2022-02-07 22:24:19.1190,-0.217,0.536,0.027,-1.55,6.03,-6.62,-0.85,-1.8,-0.37
2022-02-07 22:24:19.1220,-0.134,0.53,0.089,-1.55,6.03,-6.62,-1.07,-3.32,-0.26
2022-02-07 22:24:19.1230,-0.033,0.502,0.167,-1.55,6.03,-6.62,-1.29,-4.61,-0.02
2022-02-07 22:24:19.1190,0.036,0.489,0.24,-1.55,6.03,-6.62,-1.36,-5.35,0.24
2022-02-07 22:24:19.1300,0.079,0.525,0.272,-1.33,4.88,-7.23,-1.24,-5.54,0.41
2022-02-07 22:24:19.1250,0.109,0.565,0.319,-1.33,4.88,-7.23,-1.01,-5.13,0.5
2022-02-07 22:24:19.1290,0.115,0.614,0.436,-0.52,2.88,-5.99,-0.86,-4.03,0.5
2022-02-07 22:24:19.1290,0.118,0.636,0.546,4.03,-5.38,6.53,-0.88,-2.68,0.44
2022-02-07 22:24:19.1290,0.144,0.646,0.549,2.95,-7.83,7.91,-1.0,-1.55,0.36
Time,0.136,0.694,0.549,5.44,-14.39,14.08,-1.26,-0.54,0.24
2022-02-07 22:24:19.1320,0.105,0.825,0.54,-1.3,-4.72,7.32,-1.54,0.27,0.03
2022-02-07 22:24:19.1350,0.085,1.021,0.456,-1.3,-4.72,7.32,-1.73,0.63,-0.29
2022-02-07 22:24:19.1320,0.075,1.27,0.286,-1.3,-4.72,7.32,-1.72,0.4,-0.75
2022-02-07 22:24:19.1380,0.094,1.494,0.133,-0.9,-2.03,6.64,-1.51,-0.29,-1.24
2022-02-07 22:24:19.1420,0.214,1.611,0.15,-0.9,-2.03,6.64,-1.2,-0.9,-1.58
2022-02-07 22:24:19.1400,0.289,1.674,0.248,-0.9,-2.03,6.64,-0.83,-1.13,-1.8
2022-02-07 22:24:19.1440,0.303,1.685,0.34,-0.9,-2.03,6.64,-0.4,-1.02,-1.89
2022-02-07 22:24:19.1460,0.311,1.6,0.405,-1.44,1.92,5.53,0.06,-0.67,-1.84
2022-02-07 22:24:19.1460,0.33,1.456,0.447,-1.44,1.92,5.53,0.55,-0.2,-1.64
2022-02-07 22:24:19.1480,0.351,1.294,0.434,-1.44,1.92,5.53,1.11,0.2,-1.35
2022-02-07 22:24:19.1480,0.345,1.163,0.4,-1.46,0.53,2.87,1.69,0.51,-1.08
2022-02-07 22:24:19.1490,0.329,1.068,0.381,-1.46,0.53,2.87,2.11,0.73,-0.83
2022-02-07 22:24:19.1480,0.286,1.026,0.353,-1.46,0.53,2.87,2.31,0.91,-0.67
2022-02-07 22:24:19.1540,0.211,1.024,0.286,-1.46,0.53,2.87,2.35,1.04,-0.61
2022-02-07 22:24:19.1540,0.124,1.018,0.203,-1.46,0.53,2.87,2.32,1.09,-0.63
2022-02-07 22:24:19.1560,0.032,1.004,0.115,-1.46,0.53,2.87,2.31,1.07,-0.72
2022-02-07 22:24:19.1570,-0.056,0.981,0.044,-1.46,0.53,2.87,2.35,1.01,-0.81
Time,-0.132,0.948,-0.001,-1.46,0.53,2.87,2.43,0.94,-0.88
2022-02-07 22:24:19.1570,-0.164,0.858,-0.013,0.36,-2.79,2.25,2.54,0.81,-0.88
2022-02-07 22:24:19.1600,-0.166,0.742,-0.001,0.36,-2.79,2.25,2.66,0.62,-0.79
2022-02-07 22:24:19.1610,-0.176,0.638,0.022,0.36,-2.79,2.25,2.77,0.4,-0.65
2022-02-07 22:24:19.1690,-0.195,0.557,0.055,0.36,-2.79,2.25,2.85,0.15,-0.5
2022-02-07 22:24:19.1650,-0.229,0.499,0.091,0.36,-2.79,2.25,2.85,-0.11,-0.4
2022-02-07 22:24:19.1650,-0.257,0.468,0.111,0.36,-2.79,2.25,2.78,-0.36,-0.36
2022-02-07 22:24:19.1650,-0.26,0.46,0.124,0.36,-2.79,2.25,2.61,-0.58,-0.36
2022-02-07 22:24:19.1700,-0.275,0.453,0.175,2.28,-5.59,2.34,2.33,-0.74,-0.4
Time,-0.314,0.461,0.256,2.28,-5.59,2.34,1.9,-0.84,-0.48
2022-02-07 22:24:19.1690,-0.358,0.484,0.314,2.28,-5.59,2.34,1.41,-0.86,-0.58
2022-02-07 22:24:19.1720,-0.36,0.531,0.285,2.28,-5.59,2.34,0.96,-0.81,-0.67
2022-02-07 22:24:19.1730,-0.315,0.582,0.18,2.28,-5.59,2.34,0.59,-0.79,-0.72
2022-02-07 22:24:19.1730,-0.26,0.622,0.055,2.28,-5.59,2.34,0.3,-0.85,-0.78
2022-02-07 22:24:19.1770,-0.211,0.679,-0.031,2.28,-5.59,2.34,0.03,-0.96,-0.89
2022-02-07 22:24:19.1760,-0.152,0.753,-0.03,2.28,-5.59,2.34,-0.28,-1.03,-1.0
2022-02-07 22:24:19.1750,-0.079,0.857,-0.025,2.28,-5.59,2.34,-0.61,-1.22,-1.08
2022-02-07 22:24:19.1780,0.003,1.027,-0.07,2.28,-5.59,2.34,-0.85,-1.73,-1.11
2022-02-07 22:24:19.1780,0.099,1.261,-0.143,2.28,-5.59,2.34,-0.94,-2.48,-1.07
2022-02-07 22:24:19.1790,0.163,1.517,-0.168,2.28,-5.59,2.34,-0.92,-3.03,-0.91
2022-02-07 22:24:19.1810,0.199,1.783,-0.208,2.28,-5.59,2.34,-0.76,-3.24,-0.7
2022-02-07 22:24:19.1810,0.223,2.038,-0.27,2.28,-5.59,2.34,-0.48,-3.28,-0.58
2022-02-07 22:24:19.1820,0.28,2.129,-0.305,2.28,-5.59,2.34,-0.15,-3.15,-0.51
2022-02-07 22:24:19.1840,0.385,2.008,-0.259,2.73,-6.59,1.96,0.15,-2.9,-0.46
2022-02-07 22:24:19.1840,0.385,1.807,-0.146,2.73,-6.59,1.96,0.35,-2.6,-0.55
2022-02-07 22:24:19.1850,0.363,1.639,-0.086,2.73,-6.59,1.96,0.51,-2.4,-0.73
2022-02-07 22:24:19.1870,0.367,1.497,-0.07,2.73,-6.59,1.96,0.68,-2.36,-0.85
2022-02-07 22:24:19.1870,0.405,1.368,-0.062,2.73,-6.59,1.96,0.89,-2.52,-0.84
2022-02-07 22:24:19.1880,0.466,1.252,-0.031,2.73,-6.59,1.96,1.07,-2.74,-0.65
2022-02-07 22:24:19.1890,0.509,1.155,0.026,2.73,-6.59,1.96,1.18,-2.91,-0.35
2022-02-07 22:24:19.1910,0.53,1.082,0.074,2.73,-6.59,1.96,1.29,-3.13,-0.05
2022-02-07 22:24:19.1930,0.539,1.011,0.125,2.73,-6.59,1.96,1.41,-3.41,0.25
2022-02-07 22:24:19.1920,0.54,0.942,0.225,2.73,-6.59,1.96,1.54,-3.56,0.59
2022-02-07 22:24:19.1950,0.534,0.879,0.394,2.73,-6.59,1.96,1.64,-3.37,0.98
2022-02-07 22:24:19.1940,0.492,0.832,0.608,2.73,-6.59,1.96,1.53,-2.81,1.35
2022-02-07 22:24:19.1940,0.412,0.801,0.812,2.73,-6.59,1.96,1.14,-2.01,1.62
2022-02-07 22:24:19.1970,0.304,0.76,0.978,2.73,-6.59,1.96,0.51,-1.12,1.75
2022-02-07 22:24:19.1990,0.18,0.718,1.081,2.73,-6.59,1.96,-0.29,-0.28,1.77
2022-02-07 22:24:19.1990,0.065,0.684,1.102,2.73,-6.59,1.96,-1.05,0.48,1.69
2022-02-07 22:24:19.2000,-0.029,0.655,1.02,2.73,-6.59,1.96,-1.63,1.07,1.62
2022-02-07 22:24:19.2010,-0.088,0.654,0.863,2.73,-6.59,1.96,-2.0,1.48,1.6
2022-02-07 22:24:19.2020,-0.134,0.667,0.702,2.73,-6.59,1.96,-2.19,1.71,1.59
2022-02-07 22:24:19.2020,-0.18,0.704,0.545,2.73,-6.59,1.96,-2.26,1.79,1.54
2022-02-07 22:24:19.2060,-0.234,0.748,0.366,2.73,-6.59,1.96,-2.27,1.71,1.39
2022-02-07 22:24:19.2050,-0.293,0.807,0.172,2.73,-6.59,1.96,-2.24,1.5,1.16
2022-02-07 22:24:19.2060,-0.308,0.848,0.121,2.26,-6.45,-0.77,-2.28,1.46,0.91
2022-02-07 22:24:19.2070,-0.308,0.858,0.07,2.26,-6.45,-0.77,-2.32,1.54,0.68
2022-02-07 22:24:19.2090,-0.316,0.864,-0.014,2.26,-6.45,-0.77,-2.32,1.68,0.44
2022-02-07 22:24:19.2100,-0.311,0.84,-0.092,2.26,-6.45,-0.77,-2.32,1.81,0.27
2022-02-07 22:24:19.2120,-0.289,0.831,-0.131,2.26,-6.45,-0.77,-2.36,1.97,0.18
2022-02-07 22:24:19.2110,-0.268,0.882,-0.159,2.26,-6.45,-0.77,-2.42,2.22,0.19
2022-02-07 22:24:19.2130,-0.236,1.002,-0.194,2.26,-6.45,-0.77,-2.45,2.73,0.28
2022-02-07 22:24:19.2150,-0.216,1.203,-0.25,2.26,-6.45,-0.77,-2.37,3.42,0.32
2022-02-07 22:24:19.2140,-0.233,1.472,-0.331,2.26,-6.45,-0.77,-2.17,4.11,0.24
2022-02-07 22:24:19.2160,-0.313,1.813,-0.473,2.26,-6.45,-0.77,-1.75,4.64,-0.03
2022-02-07 22:24:19.2180,-0.428,2.149,-0.728,2.26,-6.45,-0.77,-1.05,4.69,-0.46
Time,-0.497,2.308,-1.03,2.26,-6.45,-0.77,-0.13,4.03,-0.85
2022-02-07 22:24:19.2200,-0.433,2.179,-1.145,2.26,-6.45,-0.77,0.75,3.04,-0.9
2022-02-07 22:24:19.2190,-0.263,1.91,-0.925,2.26,-6.45,-0.77,1.29,2.26,-0.54
2022-02-07 22:24:19.2200,-0.128,1.73,-0.61,2.26,-6.45,-0.77,1.47,1.85,0.03
2022-02-07 22:24:19.2230,-0.103,1.639,-0.387,2.26,-6.45,-0.77,1.45,1.65,0.44
2022-02-07 22:24:19.2240,-0.111,1.542,-0.269,2.26,-6.45,-0.77,1.4,1.4,0.56
Time,-0.084,1.423,-0.184,2.26,-6.45,-0.77,1.38,1.07,0.52
2022-02-07 22:24:19.2240,-0.043,1.299,-0.117,2.26,-6.45,-0.77,1.36,0.73,0.5
2022-02-07 22:24:19.2250,-0.034,1.205,-0.081,2.26,-6.45,-0.77,1.34,0.5,0.54
2022-02-07 22:24:19.2250,-0.07,1.143,-0.078,2.26,-6.45,-0.77,1.33,0.42,0.59
2022-02-07 22:24:19.2260,-0.133,1.094,-0.098,2.26,-6.45,-0.77,1.36,0.47,0.6
2022-02-07 22:24:19.2300,-0.189,1.039,-0.119,2.26,-6.45,-0.77,1.43,0.6,0.54
2022-02-07 22:24:19.2300,-0.22,0.961,-0.123,2.26,-6.45,-0.77,1.54,0.79,0.45
2022-02-07 22:24:19.2300,-0.234,0.877,-0.121,2.26,-6.45,-0.77,1.66,0.97,0.35
Time,-0.246,0.799,-0.115,2.26,-6.45,-0.77,1.79,1.14,0.26
2022-02-07 22:24:19.2330,-0.253,0.731,-0.106,2.26,-6.45,-0.77,1.91,1.27,0.21
2022-02-07 22:24:19.2330,-0.268,0.682,-0.1,2.26,-6.45,-0.77,2.02,1.37,0.17
2022-02-07 22:24:19.2370,-0.282,0.641,-0.099,2.26,-6.45,-0.77,2.09,1.42,0.14
2022-02-07 22:24:19.2380,-0.288,0.592,-0.096,2.26,-6.45,-0.77,2.11,1.45,0.08
2022-02-07 22:24:19.2380,-0.291,0.544,-0.097,2.26,-6.45,-0.77,2.09,1.41,-0.0
2022-02-07 22:24:19.2380,-0.296,0.494,-0.11,2.26,-6.45,-0.77,1.99,1.24,-0.1
2022-02-07 22:24:19.2390,-0.336,0.457,-0.124,2.26,-6.45,-0.77,1.79,0.89,-0.26
2022-02-07 22:24:19.2400,-0.494,0.436,0.098,2.26,-6.45,-0.77,1.23,0.7,-0.61
2022-02-07 22:24:19.2440,-0.732,0.418,0.583,2.26,-6.45,-0.77,0.24,0.93,-1.19
2022-02-07 22:24:19.2440,-0.676,0.379,0.466,2.26,-6.45,-0.77,-0.52,1.09,-1.63
2022-02-07 22:24:19.2440,-0.509,0.333,0.117,2.26,-6.45,-0.77,-0.88,1.03,-1.78
2022-02-07 22:24:19.2450,-0.354,0.385,0.022,2.26,-6.45,-0.77,-0.9,1.08,-1.66
2022-02-07 22:24:19.2460,-0.227,0.577,0.258,2.26,-6.45,-0.77,-0.65,1.6,-1.36
2022-02-07 22:24:19.2480,-0.154,0.852,0.585,2.26,-6.45,-0.77,-0.13,2.46,-1.0
2022-02-07 22:24:19.2480,-0.073,1.041,0.497,2.26,-6.45,-0.77,0.56,2.89,-0.61
2022-02-07 22:24:19.2490,0.002,1.116,0.208,2.26,-6.45,-0.77,1.05,2.6,-0.31
2022-02-07 22:24:19.2500,0.108,1.095,0.142,2.26,-6.45,-0.77,1.01,1.92,-0.16
2022-02-07 22:24:19.2510,0.222,1.077,0.239,2.26,-6.45,-0.77,0.47,1.05,-0.14
2022-02-07 22:24:19.2520,0.302,1.223,0.367,1.86,-6.04,-4.6,-0.27,0.13,-0.26
2022-02-07 22:24:19.2530,0.34,1.383,0.37,1.86,-6.04,-4.6,-0.85,-0.62,-0.36
2022-02-07 22:24:19.2560,0.334,1.486,0.252,1.86,-6.04,-4.6,-1.04,-0.89,-0.31
2022-02-07 22:24:19.2550,0.275,1.563,0.097,1.86,-6.04,-4.6,-0.98,-0.77,-0.14
2022-02-07 22:24:19.2570,0.202,1.636,-0.019,1.86,-6.04,-4.6,-0.83,-0.41,0.04
Time,0.127,1.754,-0.068,1.86,-6.04,-4.6,-0.68,-0.03,0.14
2022-02-07 22:24:19.2600,0.085,1.891,-0.094,1.86,-6.04,-4.6,-0.49,0.21,0.08
2022-02-07 22:24:19.2580,0.112,1.962,-0.058,1.86,-6.04,-4.6,-0.32,0.22,-0.11
2022-02-07 22:24:19.2620,0.226,1.834,0.056,1.86,-6.04,-4.6,-0.28,0.05,-0.27
2022-02-07 22:24:19.2630,0.345,1.524,0.179,1.86,-6.04,-4.6,-0.43,-0.09,-0.27
2022-02-07 22:24:19.2640,0.391,1.27,0.237,1.86,-6.04,-4.6,-0.74,-0.06,-0.13
2022-02-07 22:24:19.2630,0.395,1.124,0.221,1.86,-6.04,-4.6,-1.06,0.09,0.03
2022-02-07 22:24:19.2670,0.368,1.06,0.168,1.86,-6.04,-4.6,-1.34,0.3,0.15
2022-02-07 22:24:19.2660,0.334,1.022,0.122,1.86,-6.04,-4.6,-1.54,0.52,0.18
2022-02-07 22:24:19.2690,0.3,0.989,0.093,1.86,-6.04,-4.6,-1.65,0.72,0.15
2022-02-07 22:24:19.2690,0.282,0.939,0.079,1.86,-6.04,-4.6,-1.7,0.9,0.07
2022-02-07 22:24:19.2680,0.277,0.862,0.081,1.86,-6.04,-4.6,-1.68,1.07,0.03
2022-02-07 22:24:19.2700,0.285,0.76,0.081,1.86,-6.04,-4.6,-1.62,1.23,0.05
2022-02-07 22:24:19.2730,0.293,0.665,0.093,1.86,-6.04,-4.6,-1.54,1.37,0.16
2022-02-07 22:24:19.2730,0.382,0.508,-0.515,1.86,-6.04,-4.6,-2.49,-3.07,0.38
2022-02-07 22:24:19.2740,0.373,0.407,-0.379,1.86,-6.04,-4.6,-1.94,-3.19,0.74
2022-02-07 22:24:19.2760,0.274,0.421,0.301,1.86,-6.04,-4.6,-1.33,-2.93,1.27
2022-02-07 22:24:19.2770,0.282,0.42,0.316,1.86,-6.04,-4.6,-0.72,-1.89,1.72
2022-02-07 22:24:19.2760,0.328,0.373,0.689,1.86,-6.04,-4.6,-0.61,-0.41,2.14
2022-02-07 22:24:19.2790,0.304,0.377,0.877,1.86,-6.04,-4.6,-0.92,1.03,2.49
2022-02-07 22:24:19.2810,0.249,0.434,0.877,1.86,-6.04,-4.6,-1.44,2.12,2.68
2022-02-07 22:24:19.2870,0.185,0.541,0.686,1.86,-6.04,-4.6,-2.16,2.58,2.57
2022-02-07 22:24:19.2870,0.151,0.705,0.383,1.86,-6.04,-4.6,-2.16,2.58,2.57
2022-02-07 22:24:19.2830,0.158,0.893,0.017,1.86,-6.04,-4.6,-2.0,1.81,2.4
2022-02-07 22:24:19.2840,0.225,1.103,-0.296,1.86,-6.04,-4.6,-1.37,1.1,2.38
2022-02-07 22:24:19.2820,0.251,1.313,-0.535,1.86,-6.04,-4.6,-0.57,0.31,2.44
Time,0.259,1.532,-0.651,1.86,-6.04,-4.6,0.18,-0.18,2.59
2022-02-07 22:24:19.2890,0.272,1.651,-0.656,1.86,-6.04,-4.6,0.61,-0.14,2.8
2022-02-07 22:24:19.2890,0.224,1.629,-0.347,1.86,-6.04,-4.6,0.46,0.86,2.98
2022-02-07 22:24:19.2890,0.106,1.537,-0.149,1.86,-6.04,-4.6,0.05,2.13,2.99
2022-02-07 22:24:19.2890,-0.065,1.542,-0.237,1.86,-6.04,-4.6,-0.13,2.94,2.68
2022-02-07 22:24:19.2890,-0.225,1.582,-0.376,1.86,-6.04,-4.6,0.05,3.23,2.11
2022-02-07 22:24:19.2950,-0.283,1.586,-0.379,1.86,-6.04,-4.6,0.43,3.28,1.52
2022-02-07 22:24:19.2960,-0.254,1.574,-0.262,1.86,-6.04,-4.6,0.8,3.19,1.06
2022-02-07 22:24:19.2940,-0.158,1.592,-0.101,1.86,-6.04,-4.6,1.02,2.98,0.85
2022-02-07 22:24:19.2960,-0.065,1.644,0.082,1.86,-6.04,-4.6,0.98,2.5,0.83
2022-02-07 22:24:19.2970,-0.043,1.721,0.202,1.86,-6.04,-4.6,0.78,1.89,0.9
2022-02-07 22:24:19.2960,-0.059,1.723,0.278,1.86,-6.04,-4.6,0.61,1.43,0.92
2022-02-07 22:24:19.3000,-0.111,1.634,0.306,1.86,-6.04,-4.6,0.57,1.09,0.81
2022-02-07 22:24:19.3050,-0.196,1.493,0.265,1.86,-6.04,-4.6,0.7,0.83,0.57
2022-02-07 22:24:19.3010,-0.254,1.345,0.241,1.86,-6.04,-4.6,0.95,0.76,0.32
Time,-0.274,1.212,0.236,1.86,-6.04,-4.6,1.22,0.88,0.15
2022-02-07 22:24:19.3030,-0.275,1.091,0.218,1.86,-6.04,-4.6,1.47,1.15,0.1
2022-02-07 22:24:19.3090,-0.279,0.96,0.178,1.86,-6.04,-4.6,1.67,1.42,0.13
2022-02-07 22:24:19.3070,-0.304,0.829,0.136,1.86,-6.04,-4.6,1.79,1.6,0.19
2022-02-07 22:24:19.3060,-0.317,0.682,0.063,1.86,-6.04,-4.6,1.84,1.58,0.23
2022-02-07 22:24:19.3080,-0.329,0.554,-0.053,1.86,-6.04,-4.6,1.88,1.29,0.2
2022-02-07 22:24:19.3090,-0.324,0.451,-0.141,1.86,-6.04,-4.6,1.88,0.89,0.12
2022-02-07 22:24:19.3090,-0.291,0.357,-0.173,1.86,-6.04,-4.6,1.86,0.48,0.03
Time,-0.241,0.279,-0.163,1.86,-6.04,-4.6,1.83,0.15,-0.05
2022-02-07 22:24:19.3140,-0.196,0.213,-0.125,1.86,-6.04,-4.6,1.83,-0.09,-0.14
2022-02-07 22:24:19.3140,-0.16,0.156,-0.082,1.86,-6.04,-4.6,1.82,-0.24,-0.21
2022-02-07 22:24:19.3150,-0.143,0.113,-0.044,1.86,-6.04,-4.6,1.78,-0.32,-0.28
2022-02-07 22:24:19.3150,-0.356,0.068,0.623,1.86,-6.04,-4.6,0.65,0.46,-0.71
2022-02-07 22:24:19.3200,-0.91,0.053,2.104,1.86,-6.04,-4.6,-1.8,2.43,-1.74
2022-02-07 22:24:19.3170,-0.832,0.208,2.163,1.86,-6.04,-4.6,-4.16,4.23,-2.65
2022-02-07 22:24:19.3220,-0.485,0.518,1.877,1.86,-6.04,-4.6,-5.71,5.75,-3.21
2022-02-07 22:24:19.3220,-0.315,0.991,1.837,1.86,-6.04,-4.6,-5.82,7.05,-3.56
2022-02-07 22:24:19.3240,-0.072,1.31,0.772,1.86,-6.04,-4.6,-4.04,6.14,-3.4
2022-02-07 22:24:19.3250,0.043,1.122,-0.486,1.86,-6.04,-4.6,-1.9,3.93,-2.74
2022-02-07 22:24:19.3270,-0.003,1.156,-0.703,1.86,-6.04,-4.6,-0.62,1.8,-1.64
2022-02-07 22:24:19.3310,-0.058,1.448,-0.763,1.86,-6.04,-4.6,-0.02,0.05,-0.54
2022-02-07 22:24:19.3310,-0.246,1.921,-0.991,1.86,-6.04,-4.6,0.22,-1.49,0.0
2022-02-07 22:24:19.3300,-0.439,2.407,-1.187,1.86,-6.04,-4.6,0.29,-2.79,-0.15
2022-02-07 22:24:19.3350,-0.481,2.616,-1.248,1.86,-6.04,-4.6,0.32,-3.72,-0.56
2022-02-07 22:24:19.3310,-0.383,2.383,-0.973,1.86,-6.04,-4.6,0.13,-3.75,-0.65
2022-02-07 22:24:19.3320,-0.23,1.884,-0.658,1.49,-4.52,-6.95,0.02,-3.2,-0.41
2022-02-07 22:24:19.3330,-0.158,1.473,-0.556,1.49,-4.52,-6.95,0.19,-2.67,-0.14
2022-02-07 22:24:19.3330,-0.156,1.235,-0.472,1.49,-4.52,-6.95,0.46,-2.25,-0.02
2022-02-07 22:24:19.3360,-0.146,1.102,-0.354,1.49,-4.52,-6.95,0.68,-1.9,-0.03
2022-02-07 22:24:19.3360,-0.142,1.031,-0.248,1.49,-4.52,-6.95,0.79,-1.62,-0.13
2022-02-07 22:24:19.3370,-0.132,1.025,-0.17,1.49,-4.52,-6.95,0.81,-1.35,-0.26
2022-02-07 22:24:19.3440,-0.122,1.097,-0.128,1.49,-4.52,-6.95,0.81,-1.12,-0.37
2022-02-07 22:24:19.3400,-0.002,1.303,-0.299,1.49,-4.52,-6.95,1.42,-2.65,-0.39
2022-02-07 22:24:19.3410,0.146,1.49,-0.338,1.49,-4.52,-6.95,2.11,-4.69,-0.07
2022-02-07 22:24:19.3420,0.114,1.415,-0.097,1.49,-4.52,-6.95,2.48,-6.44,0.42
2022-02-07 22:24:19.3430,0.048,1.309,0.11,1.49,-4.52,-6.95,2.53,-7.58,0.79
2022-02-07 22:24:19.3440,-0.001,1.208,0.302,1.49,-4.52,-6.95,2.34,-8.07,0.99
2022-02-07 22:24:19.3450,-0.044,1.106,0.499,1.49,-4.52,-6.95,1.96,-7.93,1.08
2022-02-07 22:24:19.3460,-0.106,1.014,0.678,1.49,-4.52,-6.95,1.46,-7.24,1.07
2022-02-07 22:24:19.3470,-0.173,0.927,0.803,1.49,-4.52,-6.95,0.86,-6.14,0.95
2022-02-07 22:24:19.3480,-0.215,0.849,0.817,1.49,-4.52,-6.95,0.21,-4.92,0.75
2022-02-07 22:24:19.3500,-0.231,0.78,0.724,1.49,-4.52,-6.95,-0.39,-3.77,0.46
2022-02-07 22:24:19.3500,-0.211,0.745,0.559,1.49,-4.52,-6.95,-0.84,-2.81,0.16
2022-02-07 22:24:19.3510,-0.152,0.708,0.369,1.49,-4.52,-6.95,-1.11,-2.06,-0.1
2022-02-07 22:24:19.3520,-0.087,0.666,0.199,1.49,-4.52,-6.95,-1.2,-1.51,-0.26
2022-02-07 22:24:19.3520,0.001,0.62,0.04,1.49,-4.52,-6.95,-1.11,-1.19,-0.3
2022-02-07 22:24:19.3530,0.091,0.585,-0.074,1.49,-4.52,-6.95,-0.94,-1.18,-0.25
2022-02-07 22:24:19.3550,0.153,0.556,-0.074,1.49,-4.52,-6.95,-0.83,-1.48,-0.17
2022-02-07 22:24:19.3550,0.211,0.526,-0.009,1.49,-4.52,-6.95,-0.88,-2.05,-0.08
2022-02-07 22:24:19.3570,0.295,0.509,0.059,1.49,-4.52,-6.95,-1.07,-2.81,0.07
2022-02-07 22:24:19.3580,0.352,0.522,0.157,1.49,-4.52,-6.95,-1.39,-3.6,0.24
2022-02-07 22:24:19.3590,0.371,0.553,0.252,1.49,-4.52,-6.95,-1.71,-4.22,0.44
2022-02-07 22:24:19.3590,0.366,0.615,0.323,1.49,-4.52,-6.95,-1.89,-4.51,0.61
2022-02-07 22:24:19.3610,0.326,0.722,0.406,1.49,-4.52,-6.95,-1.94,-4.36,0.69
2022-02-07 22:24:19.3620,0.253,0.876,0.504,1.49,-4.52,-6.95,-1.93,-3.74,0.62
2022-02-07 22:24:19.3640,0.183,1.06,0.55,1.49,-4.52,-6.95,-1.93,-2.78,0.42
2022-02-07 22:24:19.3650,0.126,1.27,0.506,1.49,-4.52,-6.95,-1.95,-1.67,0.07
Time,0.043,1.541,0.343,1.49,-4.52,-6.95,-1.87,-0.66,-0.43
2022-02-07 22:24:19.3670,-0.055,1.846,0.053,1.49,-4.52,-6.95,-1.52,0.02,-1.03
2022-02-07 22:24:19.3660,-0.114,1.981,-0.203,1.49,-4.52,-6.95,-0.96,0.12,-1.6
2022-02-07 22:24:19.3690,-0.027,1.851,-0.214,1.49,-4.52,-6.95,-0.48,-0.21,-1.84
2022-02-07 22:24:19.3700,0.167,1.591,-0.096,1.49,-4.52,-6.95,-0.2,-0.76,-1.65
2022-02-07 22:24:19.3720,0.227,1.357,-0.006,1.49,-4.52,-6.95,-0.05,-1.31,-1.3
2022-02-07 22:24:19.3720,0.125,1.24,0.047,1.49,-4.52,-6.95,0.07,-1.85,-1.09
2022-02-07 22:24:19.3730,0.01,1.187,0.067,1.49,-4.52,-6.95,0.27,-2.27,-1.09
2022-02-07 22:24:19.3730,-0.019,1.14,0.168,1.49,-4.52,-6.95,0.43,-2.41,-1.18
2022-02-07 22:24:19.3770,-0.01,1.109,0.31,1.49,-4.52,-6.95,0.51,-2.26,-1.29
2022-02-07 22:24:19.3750,-0.002,1.111,0.37,1.49,-4.52,-6.95,0.53,-2.01,-1.44
2022-02-07 22:24:19.3790,0.012,1.127,0.373,1.49,-4.52,-6.95,0.47,-1.79,-1.62
2022-02-07 22:24:19.3810,0.04,1.128,0.362,1.49,-4.52,-6.95,0.34,-1.67,-1.76
2022-02-07 22:24:19.3790,0.086,1.089,0.339,1.49,-4.52,-6.95,0.18,-1.66,-1.84
2022-02-07 22:24:19.3850,0.113,1.016,0.32,1.49,-4.52,-6.95,0.01,-1.67,-1.83
Time,0.111,0.937,0.29,1.49,-4.52,-6.95,-0.17,-1.64,-1.78
2022-02-07 22:24:19.3830,0.075,0.856,0.221,1.49,-4.52,-6.95,-0.32,-1.51,-1.73
2022-02-07 22:24:19.3840,0.024,0.783,0.137,1.49,-4.52,-6.95,-0.44,-1.27,-1.71
2022-02-07 22:24:19.3860,-0.029,0.742,0.073,1.49,-4.52,-6.95,-0.46,-0.94,-1.69
2022-02-07 22:24:19.3870,-0.049,0.7,0.03,1.49,-4.52,-6.95,-0.34,-0.62,-1.7
2022-02-07 22:24:19.3870,-0.044,0.634,0.004,1.49,-4.52,-6.95,-0.06,-0.33,-1.7
2022-02-07 22:24:19.3890,-0.027,0.566,-0.013,1.49,-4.52,-6.95,0.28,-0.07,-1.66
2022-02-07 22:24:19.3910,-0.012,0.508,-0.012,1.49,-4.52,-6.95,0.57,0.18,-1.61
2022-02-07 22:24:19.3890,-0.001,0.465,0.002,1.49,-4.52,-6.95,0.72,0.44,-1.55
2022-02-07 22:24:19.3920,0.013,0.427,0.015,1.49,-4.52,-6.95,0.73,0.69,-1.51
2022-02-07 22:24:19.3920,0.026,0.388,0.021,1.49,-4.52,-6.95,0.65,0.92,-1.46
2022-02-07 22:24:19.3940,0.035,0.344,0.015,1.49,-4.52,-6.95,0.55,1.11,-1.41
2022-02-07 22:24:19.3950,0.035,0.305,-0.0,1.49,-4.52,-6.95,0.45,1.25,-1.34
2022-02-07 22:24:19.3960,0.03,0.281,-0.023,1.49,-4.52,-6.95,0.37,1.34,-1.27
Time,0.021,0.285,-0.068,1.49,-4.52,-6.95,0.33,1.35,-1.19
2022-02-07 22:24:19.3990,0.002,0.339,-0.148,1.49,-4.52,-6.95,0.36,1.25,-1.09
2022-02-07 22:24:19.4000,-0.018,0.445,-0.235,1.49,-4.52,-6.95,0.46,1.09,-0.97
2022-02-07 22:24:19.4000,-0.045,0.601,-0.329,1.49,-4.52,-6.95,0.62,0.82,-0.83
2022-02-07 22:24:19.4030,-0.082,0.81,-0.452,1.49,-4.52,-6.95,0.89,0.38,-0.71
2022-02-07 22:24:19.4120,-0.112,1.069,-0.607,1.49,-4.52,-6.95,1.38,-0.35,-0.58
2022-02-07 22:24:19.4060,-0.08,1.35,-0.63,1.49,-4.52,-6.95,1.96,-1.17,-0.47
2022-02-07 22:24:19.4060,0.08,1.672,-0.614,1.49,-4.52,-6.95,2.52,-2.34,-0.29
2022-02-07 22:24:19.4080,0.361,1.977,-0.61,1.49,-4.52,-6.95,2.87,-3.86,-0.09
2022-02-07 22:24:19.4070,0.535,2.212,-0.503,1.49,-4.52,-6.95,2.77,-4.77,0.05
2022-02-07 22:24:19.4140,0.531,2.325,-0.234,1.49,-4.52,-6.95,2.21,-4.78,0.07
2022-02-07 22:24:19.4130,0.44,2.312,-0.028,1.49,-4.52,-6.95,0.97,-5.3,-0.53
2022-02-07 22:24:19.4130,0.462,2.217,-0.055,1.49,-4.52,-6.95,0.97,-5.3,-0.53
2022-02-07 22:24:19.4140,0.559,2.128,-0.201,1.49,-4.52,-6.95,1.04,-6.67,-1.07
2022-02-07 22:24:19.4170,0.615,2.047,-0.161,1.49,-4.52,-6.95,1.35,-7.48,-1.5
2022-02-07 22:24:19.4170,0.671,1.888,0.071,1.49,-4.52,-6.95,1.8,-6.96,-1.55
2022-02-07 22:24:19.4230,0.704,1.704,0.421,1.49,-4.52,-6.95,2.66,-4.57,-1.34
2022-02-07 22:24:19.4250,0.729,1.427,0.842,1.49,-4.52,-6.95,3.1,-1.11,-0.68
2022-02-07 22:24:19.4240,0.673,1.157,1.03,1.49,-4.52,-6.95,2.68,0.45,0.12
2022-02-07 22:24:19.4240,0.482,0.961,1.208,1.49,-4.52,-6.95,1.09,-0.91,0.75
2022-02-07 22:24:19.4360,0.208,0.808,1.459,1.49,-4.52,-6.95,-0.8,-1.13,1.1
2022-02-07 22:24:19.4310,0.14,0.786,1.287,1.49,-4.52,-6.95,-1.88,0.59,1.3
2022-02-07 22:24:19.4360,0.12,0.877,0.806,1.49,-4.52,-6.95,-2.26,2.19,1.21
2022-02-07 22:24:19.4350,0.09,0.926,0.367,1.49,-4.52,-6.95,-2.26,2.97,1.03
2022-02-07 22:24:19.4350,0.095,0.888,0.146,1.49,-4.52,-6.95,-2.12,3.3,0.93
2022-02-07 22:24:19.4370,0.124,0.806,0.034,1.49,-4.52,-6.95,-1.9,3.4,0.97
2022-02-07 22:24:19.4380,0.137,0.722,-0.052,1.49,-4.52,-6.95,-1.65,3.34,1.08
2022-02-07 22:24:19.4430,0.137,0.637,-0.104,1.49,-4.52,-6.95,-1.39,3.15,1.26
2022-02-07 22:24:19.4400,0.124,0.559,-0.11,1.49,-4.52,-6.95,-1.14,2.93,1.45
2022-02-07 22:24:19.4410,0.099,0.497,-0.102,1.49,-4.52,-6.95,-0.92,2.67,1.62
2022-02-07 22:24:19.4410,0.057,0.449,-0.101,1.49,-4.52,-6.95,-0.71,2.36,1.75
2022-02-07 22:24:19.4430,0.008,0.426,-0.11,1.49,-4.52,-6.95,-0.51,2.0,1.83
2022-02-07 22:24:19.4450,-0.048,0.424,-0.107,1.49,-4.52,-6.95,-0.31,1.56,1.83
Time,-0.115,0.454,-0.1,1.49,-4.52,-6.95,-0.12,1.08,1.74
2022-02-07 22:24:19.4480,-0.186,0.504,-0.094,1.49,-4.52,-6.95,0.07,0.63,1.59
2022-02-07 22:24:19.4480,-0.253,0.562,-0.112,1.49,-4.52,-6.95,0.26,0.23,1.37
2022-02-07 22:24:19.4480,-0.314,0.61,-0.127,1.49,-4.52,-6.95,0.44,-0.12,1.13
2022-02-07 22:24:19.4510,-0.347,0.639,-0.112,1.49,-4.52,-6.95,0.62,-0.35,0.94
2022-02-07 22:24:19.4490,-0.369,0.648,-0.075,1.49,-4.52,-6.95,0.72,-0.52,0.85
2022-02-07 22:24:19.4540,-0.379,0.653,0.008,1.3,-1.83,-7.08,0.66,-0.6,0.96
2022-02-07 22:24:19.4540,-0.404,0.738,0.126,1.3,-1.83,-7.08,0.35,-0.6,1.23
2022-02-07 22:24:19.4590,-0.449,0.935,0.232,1.3,-1.83,-7.08,-0.2,-0.35,1.47
2022-02-07 22:24:19.4560,-0.523,1.239,0.236,1.3,-1.83,-7.08,-0.92,0.28,1.49
2022-02-07 22:24:19.4540,-0.67,1.665,0.113,1.3,-1.83,-7.08,-1.65,1.26,1.1
2022-02-07 22:24:19.4570,-0.881,2.209,-0.115,1.3,-1.83,-7.08,-2.16,2.16,0.11
2022-02-07 22:24:19.4590,-0.996,2.575,-0.324,1.3,-1.83,-7.08,-2.35,2.95,-1.28
2022-02-07 22:24:19.4600,-0.819,2.577,-0.389,1.3,-1.83,-7.08,-2.36,3.73,-2.33
2022-02-07 22:24:19.4610,-0.382,2.256,-0.279,1.3,-1.83,-7.08,-2.25,4.49,-2.51
2022-02-07 22:24:19.4620,-0.024,1.987,-0.271,1.3,-1.83,-7.08,-1.76,4.68,-2.11
2022-02-07 22:24:19.4640,0.199,1.801,-0.412,1.3,-1.83,-7.08,-0.78,3.81,-1.49
2022-02-07 22:24:19.4620,0.299,1.603,-0.431,1.3,-1.83,-7.08,0.11,2.47,-0.92
2022-02-07 22:24:19.4700,0.304,1.406,-0.262,1.3,-1.83,-7.08,0.58,1.25,-0.46
2022-02-07 22:24:19.4650,0.295,1.229,-0.116,1.3,-1.83,-7.08,0.68,0.33,-0.04
2022-02-07 22:24:19.4670,0.275,1.092,-0.031,1.3,-1.83,-7.08,0.56,-0.29,0.34
2022-02-07 22:24:19.4680,0.234,1.01,0.015,1.3,-1.83,-7.08,0.35,-0.64,0.71
2022-02-07 22:24:19.4690,0.155,0.972,0.018,1.3,-1.83,-7.08,0.16,-0.76,1.0
2022-02-07 22:24:19.4730,0.039,0.977,-0.013,1.3,-1.83,-7.08,0.05,-0.68,1.16
2022-02-07 22:24:19.4730,-0.083,0.981,-0.052,1.3,-1.83,-7.08,0.04,-0.45,1.15
2022-02-07 22:24:19.4700,-0.171,0.943,-0.094,1.3,-1.83,-7.08,0.1,-0.21,1.03
2022-02-07 22:24:19.4740,-0.213,0.844,-0.125,1.3,-1.83,-7.08,0.21,-0.02,0.84
2022-02-07 22:24:19.4730,-0.198,0.689,-0.111,1.3,-1.83,-7.08,0.31,0.14,0.67
2022-02-07 22:24:19.4750,-0.158,0.532,-0.083,1.3,-1.83,-7.08,0.38,0.3,0.57
Time,-0.126,0.41,-0.066,1.3,-1.83,-7.08,0.41,0.42,0.49
2022-02-07 22:24:19.4790,-0.108,0.33,-0.058,1.3,-1.83,-7.08,0.42,0.52,0.43
2022-02-07 22:24:19.4780,-0.097,0.281,-0.056,1.3,-1.83,-7.08,0.41,0.58,0.37
2022-02-07 22:24:19.4790,-0.091,0.252,-0.063,1.3,-1.83,-7.08,0.37,0.6,0.32
2022-02-07 22:24:19.4810,-0.089,0.241,-0.086,1.3,-1.83,-7.08,0.32,0.56,0.28
2022-02-07 22:24:19.4830,-0.094,0.26,-0.111,1.3,-1.83,-7.08,0.26,0.48,0.24
2022-02-07 22:24:19.4850,-0.109,0.311,-0.13,1.3,-1.83,-7.08,0.19,0.42,0.21
2022-02-07 22:24:19.4850,-0.141,0.397,-0.145,1.3,-1.83,-7.08,0.15,0.45,0.2
2022-02-07 22:24:19.4870,-0.181,0.513,-0.153,1.3,-1.83,-7.08,0.13,0.6,0.17
2022-02-07 22:24:19.4850,-0.224,0.648,-0.158,1.3,-1.83,-7.08,0.14,0.85,0.12
2022-02-07 22:24:19.4850,-0.257,0.781,-0.166,1.3,-1.83,-7.08,0.16,1.18,0.06
2022-02-07 22:24:19.4910,-0.281,0.907,-0.176,1.3,-1.83,-7.08,0.21,1.54,-0.02
2022-02-07 22:24:19.4900,-0.289,1.015,-0.189,1.3,-1.83,-7.08,0.3,1.93,-0.11
2022-02-07 22:24:19.4920,-0.297,1.128,-0.187,1.3,-1.83,-7.08,0.45,2.34,-0.21
2022-02-07 22:24:19.4910,-0.321,1.275,-0.173,1.3,-1.83,-7.08,0.67,2.8,-0.36
2022-02-07 22:24:19.4920,-0.356,1.44,-0.153,1.3,-1.83,-7.08,1.0,3.3,-0.56
2022-02-07 22:24:19.4930,-0.354,1.791,-0.306,1.3,-1.83,-7.08,3.32,2.98,-0.86
2022-02-07 22:24:19.4980,-0.124,2.148,-0.221,1.3,-1.83,-7.08,5.54,0.85,-0.87
2022-02-07 22:24:19.4980,0.318,2.179,0.579,1.3,-1.83,-7.08,5.7,-3.26,-0.38
2022-02-07 22:24:19.4990,0.659,1.979,1.601,1.3,-1.83,-7.08,3.28,-6.39,0.37
2022-02-07 22:24:19.4970,0.559,1.629,1.653,1.3,-1.83,-7.08,0.43,-6.05,1.1
2022-02-07 22:24:19.4980,0.107,1.491,0.879,1.3,-1.83,-7.08,-1.46,-3.95,1.26
2022-02-07 22:24:19.5000,-0.251,1.466,0.484,1.3,-1.83,-7.08,-2.64,-2.1,0.75
2022-02-07 22:24:19.5080,-0.317,1.464,0.398,1.3,-1.83,-7.08,-2.76,-0.35,-0.26
2022-02-07 22:24:19.5040,-0.236,1.461,0.422,1.3,-1.83,-7.08,-1.7,2.0,-1.52
2022-02-07 22:24:19.5050,0.0,1.277,0.368,1.3,-1.83,-7.08,-1.06,4.01,-2.04
2022-02-07 22:24:19.5060,0.239,1.129,0.32,1.3,-1.83,-7.08,-0.83,5.59,-1.88
2022-02-07 22:24:19.5060,0.348,1.098,0.222,1.3,-1.83,-7.08,-0.62,6.46,-1.6
2022-02-07 22:24:19.5050,0.401,1.083,0.072,1.3,-1.83,-7.08,-0.32,6.18,-1.42
2022-02-07 22:24:19.5100,0.458,1.039,-0.054,1.3,-1.83,-7.08,-0.16,4.72,-1.25
2022-02-07 22:24:19.5110,0.493,0.962,-0.045,1.3,-1.83,-7.08,-0.35,3.01,-1.01
2022-02-07 22:24:19.5110,0.472,0.872,0.038,1.3,-1.83,-7.08,-0.8,1.69,-0.72
2022-02-07 22:24:19.5130,0.431,0.797,0.095,1.3,-1.83,-7.08,-1.31,0.91,-0.39
2022-02-07 22:24:19.5120,0.388,0.75,0.089,1.3,-1.83,-7.08,-1.69,0.45,-0.08
2022-02-07 22:24:19.5120,0.348,0.704,0.059,1.3,-1.83,-7.08,-1.89,0.16,0.17
2022-02-07 22:24:19.5160,0.314,0.657,0.036,1.3,-1.83,-7.08,-1.96,-0.02,0.36
2022-02-07 22:24:19.5180,0.296,0.616,0.026,1.3,-1.83,-7.08,-1.96,-0.05,0.52
2022-02-07 22:24:19.5190,0.291,0.581,0.028,1.3,-1.83,-7.08,-1.93,0.07,0.71
2022-02-07 22:24:19.5190,0.287,0.555,0.026,1.3,-1.83,-7.08,-1.92,0.24,0.91
2022-02-07 22:24:19.5240,0.277,0.531,0.003,1.3,-1.83,-7.08,-1.92,0.41,1.12
2022-02-07 22:24:19.5190,0.272,0.5,-0.04,1.3,-1.83,-7.08,-1.89,0.47,1.35
2022-02-07 22:24:19.5230,0.258,0.464,-0.106,1.3,-1.83,-7.08,-1.85,0.35,1.59
2022-02-07 22:24:19.5250,0.257,0.433,-0.181,1.3,-1.83,-7.08,-1.76,0.09,1.86
2022-02-07 22:24:19.5240,0.27,0.421,-0.278,1.3,-1.83,-7.08,-1.53,-0.2,2.15
2022-02-07 22:24:19.5250,0.319,0.41,-0.451,1.3,-1.83,-7.08,-1.0,-0.43,2.51
2022-02-07 22:24:19.5260,0.369,0.423,-0.607,1.3,-1.83,-7.08,-0.24,-0.82,2.87
2022-02-07 22:24:19.5270,0.396,0.499,-0.711,1.3,-1.83,-7.08,0.7,-1.5,3.18
2022-02-07 22:24:19.5290,0.492,0.659,-0.713,1.3,-1.83,-7.08,1.67,-2.42,3.51
2022-02-07 22:24:19.5290,0.509,0.913,-0.412,1.3,-1.83,-7.08,2.31,-3.27,3.84
2022-02-07 22:24:19.5330,0.394,1.186,0.015,1.3,-1.83,-7.08,1.85,-2.59,4.23
2022-02-07 22:24:19.5330,0.258,1.43,0.426,1.3,-1.83,-7.08,1.85,-2.59,4.23
2022-02-07 22:24:19.5330,0.073,1.84,0.662,1.3,-1.83,-7.08,1.01,-1.25,3.94
2022-02-07 22:24:19.5340,-0.275,2.584,0.566,1.3,-1.83,-7.08,0.51,0.26,2.9
2022-02-07 22:24:19.5350,-0.645,3.308,0.274,1.3,-1.83,-7.08,0.69,1.69,1.23
2022-02-07 22:24:19.5360,-0.702,3.272,0.246,1.3,-1.83,-7.08,0.96,3.13,-0.04
2022-02-07 22:24:19.5410,-0.538,2.581,0.362,1.3,-1.83,-7.08,1.04,4.22,-0.57
2022-02-07 22:24:19.5390,-0.434,1.924,0.288,1.3,-1.83,-7.08,1.09,4.51,-0.77
Time,-0.327,1.468,0.189,1.3,-1.83,-7.08,1.11,4.16,-0.75
2022-02-07 22:24:19.5400,-0.184,1.067,0.138,1.3,-1.83,-7.08,1.08,3.37,-0.57
2022-02-07 22:24:19.5410,-0.066,0.774,0.091,1.3,-1.83,-7.08,1.07,2.39,-0.33
2022-02-07 22:24:19.5430,-0.017,0.612,0.018,1.3,-1.83,-7.08,1.18,1.41,-0.16
2022-02-07 22:24:19.5430,-0.083,0.6,-0.028,1.3,-1.83,-7.08,1.38,0.54,-0.19
2022-02-07 22:24:19.5450,-0.16,0.63,-0.015,1.3,-1.83,-7.08,1.57,-0.16,-0.36
2022-02-07 22:24:19.5470,-0.174,0.655,0.027,1.3,-1.83,-7.08,1.65,-0.63,-0.5
2022-02-07 22:24:19.5460,-0.162,0.693,0.078,1.3,-1.83,-7.08,1.6,-0.82,-0.51
2022-02-07 22:24:19.5480,-0.164,0.705,0.107,1.3,-1.83,-7.08,1.48,-0.74,-0.46
2022-02-07 22:24:19.5500,-0.174,0.659,0.119,1.3,-1.83,-7.08,1.36,-0.52,-0.43
2022-02-07 22:24:19.5500,-0.182,0.59,0.127,1.3,-1.83,-7.08,1.24,-0.24,-0.46
2022-02-07 22:24:19.5530,-0.182,0.514,0.142,1.3,-1.83,-7.08,1.11,0.03,-0.56
2022-02-07 22:24:19.5520,-0.184,0.433,0.193,1.3,-1.83,-7.08,0.96,0.25,-0.68
2022-02-07 22:24:19.5520,-0.213,0.356,0.304,1.3,-1.83,-7.08,0.71,0.34,-0.81
2022-02-07 22:24:19.5550,-0.292,0.282,0.542,1.3,-1.83,-7.08,0.32,0.34,-0.93
2022-02-07 22:24:19.5560,-0.433,0.255,0.954,1.3,-1.83,-7.08,-0.26,0.41,-1.0
2022-02-07 22:24:19.5560,-0.463,0.462,1.297,1.3,-1.83,-7.08,-0.88,0.51,-0.94
2022-02-07 22:24:19.5590,-0.244,0.828,1.153,1.3,-1.83,-7.08,-1.45,0.56,-0.73
2022-02-07 22:24:19.5590,-0.034,1.093,0.708,1.3,-1.83,-7.08,-2.14,0.63,-0.46
2022-02-07 22:24:19.5640,0.051,1.26,0.269,1.3,-1.83,-7.08,-2.92,0.94,-0.43
2022-02-07 22:24:19.5620,0.005,1.39,0.048,1.3,-1.83,-7.08,-3.6,1.57,-0.76
2022-02-07 22:24:19.5630,-0.089,1.585,-0.055,1.3,-1.83,-7.08,-3.86,2.15,-1.31
2022-02-07 22:24:19.5630,-0.119,1.763,-0.268,1.3,-1.83,-7.08,-3.09,2.13,-1.62
2022-02-07 22:24:19.5650,-0.07,1.749,-0.452,1.3,-1.83,-7.08,-1.52,1.83,-1.35
2022-02-07 22:24:19.5640,-0.047,1.518,-0.418,1.3,-1.83,-7.08,0.14,1.55,-0.69
2022-02-07 22:24:19.5660,-0.126,1.307,-0.373,1.3,-1.83,-7.08,1.26,1.28,-0.17
2022-02-07 22:24:19.5680,-0.241,1.259,-0.362,1.3,-1.83,-7.08,1.8,1.0,-0.03
2022-02-07 22:24:19.5700,-0.256,1.222,-0.352,1.3,-1.83,-7.08,1.96,0.72,-0.11
2022-02-07 22:24:19.5700,-0.189,1.116,-0.253,1.3,-1.83,-7.08,1.87,0.35,-0.18
2022-02-07 22:24:19.5710,-0.087,1.054,-0.173,1.3,-1.83,-7.08,1.74,-0.51,-0.18
2022-02-07 22:24:19.5720,-0.021,1.106,-0.101,1.3,-1.83,-7.08,1.5,-1.59,-0.04
2022-02-07 22:24:19.5720,-0.007,1.2,0.006,1.3,-1.83,-7.08,1.09,-2.36,0.18
Time,-0.032,1.316,0.087,1.3,-1.83,-7.08,0.56,-2.73,0.35
2022-02-07 22:24:19.5750,-0.09,1.437,0.116,1.3,-1.83,-7.08,0.09,-2.91,0.36
2022-02-07 22:24:19.5780,-0.139,1.515,0.114,1.3,-1.83,-7.08,-0.19,-3.12,0.27
2022-02-07 22:24:19.5760,-0.152,1.507,0.12,1.3,-1.83,-7.08,-0.18,-3.37,0.17
2022-02-07 22:24:19.5770,-0.128,1.381,0.175,1.3,-1.83,-7.08,0.03,-3.39,0.17
Time,-0.091,1.189,0.267,1.3,-1.83,-7.08,0.27,-3.04,0.26
2022-02-07 22:24:19.5830,-0.08,1.029,0.334,1.3,-1.83,-7.08,0.45,-2.42,0.39
2022-02-07 22:24:19.5820,-0.102,0.916,0.374,1.3,-1.83,-7.08,0.52,-1.65,0.49
2022-02-07 22:24:19.5810,-0.148,0.848,0.378,1.3,-1.83,-7.08,0.51,-0.94,0.54
2022-02-07 22:24:19.5840,-0.205,0.815,0.347,1.3,-1.83,-7.08,0.45,-0.41,0.52
2022-02-07 22:24:19.5830,-0.258,0.801,0.302,1.3,-1.83,-7.08,0.34,-0.09,0.46
2022-02-07 22:24:19.5860,-0.3,0.799,0.251,1.3,-1.83,-7.08,0.18,-0.0,0.36
2022-02-07 22:24:19.5900,-0.326,0.797,0.19,1.3,-1.83,-7.08,0.02,-0.16,0.27
2022-02-07 22:24:19.5880,-0.324,0.788,0.127,1.3,-1.83,-7.08,-0.15,-0.55,0.22
2022-02-07 22:24:19.5900,-0.275,0.763,0.098,1.3,-1.83,-7.08,-0.36,-1.09,0.23
2022-02-07 22:24:19.5890,-0.206,0.725,0.108,1.3,-1.83,-7.08,-0.6,-1.66,0.29
2022-02-07 22:24:19.5890,-0.094,0.718,0.125,1.3,-1.83,-7.08,-0.8,-2.14,0.39
2022-02-07 22:24:19.5920,0.044,0.751,0.118,1.3,-1.83,-7.08,-0.93,-2.49,0.51
2022-02-07 22:24:19.5940,0.173,0.808,0.128,1.3,-1.83,-7.08,-1.06,-2.76,0.66
2022-02-07 22:24:19.5960,0.296,0.854,0.204,1.3,-1.83,-7.08,-1.28,-2.9,0.83
2022-02-07 22:24:19.5960,0.387,0.884,0.309,1.3,-1.83,-7.08,-1.63,-2.87,0.99
2022-02-07 22:24:19.5960,0.441,0.9,0.354,1.3,-1.83,-7.08,-2.0,-2.7,1.11
2022-02-07 22:24:19.5960,-0.152,-0.556,-0.889,1.3,-1.83,-7.08,-2.29,-2.39,1.16
2022-02-07 22:24:19.5960,-0.025,-0.78,-0.747,1.3,-1.83,-7.08,-2.29,-2.39,1.16
2022-02-07 22:24:19.5970,-0.061,-0.756,-0.664,1.3,-1.83,-7.08,0.11,-0.5,-0.34
2022-02-07 22:24:19.6000,-0.088,-0.709,-0.636,1.3,-1.83,-7.08,-0.05,0.09,-0.12
Time,-0.078,-0.679,-0.677,1.3,-1.83,-7.08,-0.37,0.82,0.09
2022-02-07 22:24:19.6020,-0.059,-0.658,-0.744,1.3,-1.83,-7.08,-0.37,0.82,0.09
2022-02-07 22:24:19.6020,-0.045,-0.629,-0.809,1.3,-1.83,-7.08,-0.51,0.91,0.1
2022-02-07 22:24:19.6030,-0.031,-0.601,-0.843,1.3,-1.83,-7.08,-0.63,0.89,0.07
2022-02-07 22:24:19.6050,-0.022,-0.577,-0.875,1.3,-1.83,-7.08,-0.71,0.84,0.05
2022-02-07 22:24:19.6080,-0.013,-0.558,-0.905,1.3,-1.83,-7.08,-0.72,0.79,0.05
2022-02-07 22:24:19.6090,0.005,-0.541,-0.907,1.3,-1.83,-7.08,-0.67,0.71,0.06
2022-02-07 22:24:19.6080,0.014,-0.533,-0.881,1.3,-1.83,-7.08,-0.62,0.6,0.09
2022-02-07 22:24:19.6090,0.007,-0.524,-0.862,1.3,-1.83,-7.08,-0.59,0.55,0.1
2022-02-07 22:24:19.6090,-0.005,-0.52,-0.85,1.3,-1.83,-7.08,-0.59,0.52,0.1
2022-02-07 22:24:19.6110,-0.007,-0.518,-0.843,1.3,-1.83,-7.08,-0.6,0.49,0.1
2022-02-07 22:24:19.6140,-0.003,-0.511,-0.848,1.3,-1.83,-7.08,-0.63,0.43,0.11
2022-02-07 22:24:19.6130,0.002,-0.495,-0.869,1.3,-1.83,-7.08,-0.65,0.38,0.12
Time,-0.0,-0.47,-0.894,1.3,-1.83,-7.08,-0.65,0.3,0.1
2022-02-07 22:24:19.6170,-0.003,-0.459,-0.914,1.3,-1.83,-7.08,-0.61,0.2,0.06
2022-02-07 22:24:19.6160,0.009,-0.469,-0.912,1.3,-1.83,-7.08,-0.55,0.11,0.03
2022-02-07 22:24:19.6180,0.023,-0.49,-0.89,1.3,-1.83,-7.08,-0.5,0.02,0.02
2022-02-07 22:24:19.6200,0.023,-0.503,-0.858,1.3,-1.83,-7.08,-0.48,-0.04,0.04
2022-02-07 22:24:19.6200,0.005,-0.501,-0.846,1.3,-1.83,-7.08,-0.48,-0.0,0.07
2022-02-07 22:24:19.6220,0.003,-0.496,-0.87,1.3,-1.83,-7.08,-0.48,0.11,0.07
2022-02-07 22:24:19.6220,0.017,-0.489,-0.914,1.3,-1.83,-7.08,-0.47,0.19,0.09
2022-02-07 22:24:19.6270,0.025,-0.48,-0.961,1.3,-1.83,-7.08,-0.4,0.21,0.12
2022-02-07 22:24:19.6230,0.032,-0.473,-0.981,1.3,-1.83,-7.08,-0.29,0.17,0.15
2022-02-07 22:24:19.6260,0.031,-0.464,-0.972,1.3,-1.83,-7.08,-0.18,0.09,0.17
2022-02-07 22:24:19.6270,0.023,-0.457,-0.939,1.3,-1.83,-7.08,-0.12,0.03,0.17
2022-02-07 22:24:19.6270,0.019,-0.462,-0.901,1.3,-1.83,-7.08,-0.09,0.06,0.17
2022-02-07 22:24:19.6270,0.012,-0.468,-0.889,1.3,-1.83,-7.08,-0.07,0.11,0.17
2022-02-07 22:24:19.6290,0.01,-0.472,-0.877,1.3,-1.83,-7.08,-0.08,0.15,0.19
2022-02-07 22:24:19.6300,0.005,-0.471,-0.865,1.3,-1.83,-7.08,-0.12,0.16,0.2
2022-02-07 22:24:19.6310,-0.005,-0.464,-0.876,1.3,-1.83,-7.08,-0.19,0.18,0.2
2022-02-07 22:24:19.6320,-0.01,-0.445,-0.899,1.3,-1.83,-7.08,-0.25,0.18,0.19
2022-02-07 22:24:19.6320,-0.004,-0.432,-0.911,1.3,-1.83,-7.08,-0.29,0.13,0.16
2022-02-07 22:24:19.6330,0.003,-0.43,-0.909,1.3,-1.83,-7.08,-0.31,0.08,0.15
2022-02-07 22:24:19.6340,-0.003,-0.432,-0.915,1.3,-1.83,-7.08,-0.32,0.07,0.13
2022-02-07 22:24:19.6360,-0.012,-0.438,-0.946,1.3,-1.83,-7.08,-0.3,0.11,0.11
2022-02-07 22:24:19.6420,-0.008,-0.434,-0.979,1.3,-1.83,-7.08,-0.21,0.13,0.1
2022-02-07 22:24:19.6380,0.008,-0.427,-0.977,1.3,-1.83,-7.08,-0.09,0.08,0.09
2022-02-07 22:24:19.6370,0.02,-0.425,-0.946,1.3,-1.83,-7.08,0.0,0.03,0.1
2022-02-07 22:24:19.6440,0.014,-0.426,-0.905,1.3,-1.83,-7.08,0.04,0.01,0.09
2022-02-07 22:24:19.6390,0.006,-0.432,-0.879,1.3,-1.83,-7.08,0.02,0.04,0.09
2022-02-07 22:24:19.6430,0.009,-0.443,-0.874,1.3,-1.83,-7.08,-0.02,0.09,0.08
2022-02-07 22:24:19.6440,0.017,-0.452,-0.889,1.3,-1.83,-7.08,-0.05,0.13,0.09
2022-02-07 22:24:19.6450,0.03,-0.453,-0.899,1.3,-1.83,-7.08,-0.04,0.13,0.1
2022-02-07 22:24:19.6440,0.04,-0.448,-0.891,1.3,-1.83,-7.08,-0.06,0.1,0.13
2022-02-07 22:24:19.6450,0.028,-0.445,-0.889,1.3,-1.83,-7.08,-0.09,0.06,0.14
2022-02-07 22:24:19.6450,0.006,-0.439,-0.902,1.3,-1.83,-7.08,-0.13,0.03,0.11
2022-02-07 22:24:19.6480,-0.005,-0.433,-0.927,1.3,-1.83,-7.08,-0.14,0.01,0.07
2022-02-07 22:24:19.6490,-0.008,-0.423,-0.939,1.3,-1.83,-7.08,-0.11,-0.02,0.04
2022-02-07 22:24:19.6500,0.003,-0.415,-0.935,1.42,0.68,-5.5,-0.06,-0.07,0.01
2022-02-07 22:24:19.6500,0.01,-0.427,-0.927,1.42,0.68,-5.5,-0.04,-0.09,-0.0
2022-02-07 22:24:19.6520,-0.002,-0.431,-0.933,1.42,0.68,-5.5,-0.01,-0.11,-0.01
2022-02-07 22:24:19.6510,-0.012,-0.423,-0.934,1.42,0.68,-5.5,0.02,-0.13,-0.03
2022-02-07 22:24:19.6580,-0.018,-0.416,-0.922,1.42,0.68,-5.5,0.04,-0.17,-0.05
2022-02-07 22:24:19.6570,-0.019,-0.422,-0.901,1.42,0.68,-5.5,0.07,-0.19,-0.07
2022-02-07 22:24:19.6540,-0.012,-0.434,-0.87,1.42,0.68,-5.5,0.06,-0.18,-0.07
2022-02-07 22:24:19.6570,-0.014,-0.436,-0.849,1.42,0.68,-5.5,0.01,-0.15,-0.05
2022-02-07 22:24:19.6620,-0.016,-0.434,-0.844,1.42,0.68,-5.5,-0.05,-0.13,-0.06
2022-02-07 22:24:19.6730,-0.01,-0.432,-0.849,1.42,0.68,-5.5,-0.12,-0.1,-0.06
2022-02-07 22:24:19.6830,-0.008,-0.433,-0.869,1.42,0.68,-5.5,-0.16,-0.08,-0.05
2022-02-07 22:24:19.6930,-0.012,-0.429,-0.896,1.42,0.68,-5.5,-0.18,-0.09,-0.05
2022-02-07 22:24:19.7030,-0.011,-0.427,-0.912,1.42,0.68,-5.5,-0.18,-0.11,-0.06
2022-02-07 22:24:19.7130,-0.008,-0.424,-0.915,1.42,0.68,-5.5,-0.14,-0.13,-0.06
2022-02-07 22:24:19.7230,-0.011,-0.429,-0.906,1.42,0.68,-5.5,-0.09,-0.12,-0.05
Time,-0.02,-0.43,-0.896,1.42,0.68,-5.5,-0.04,-0.08,-0.03
2022-02-07 22:24:19.7420,-0.02,-0.424,-0.885,1.67,2.23,-3.35,-0.01,-0.02,-0.03
2022-02-07 22:24:19.7530,-0.013,-0.425,-0.88,2.26,4.29,1.94,0.01,0.05,-0.03
2022-02-07 22:24:19.7630,-0.002,-0.436,-0.873,-2.78,-0.73,-0.36,0.01,0.1,-0.02
2022-02-07 22:24:19.7730,0.007,-0.441,-0.873,-3.6,-5.58,1.6,-0.01,0.12,-0.0
2022-02-07 22:24:19.7840,0.013,-0.437,-0.881,1.62,2.34,-2.47,-0.05,0.12,0.02
2022-02-07 22:24:19.7940,0.005,-0.426,-0.899,0.5,-0.51,2.63,-0.08,0.12,0.03
Time,-0.007,-0.422,-0.914,-5.56,-5.2,-3.07,-0.09,0.13,0.04
2022-02-07 22:24:19.8140,-0.036,-0.382,-0.877,-2.22,2.42,-1.19,0.06,0.36,0.01
2022-02-07 22:24:19.8240,-0.043,-0.373,-0.916,4.64,5.33,2.46,0.32,0.5,0.04
2022-02-07 22:24:19.8340,-0.032,-0.379,-0.899,0.79,-4.64,7.94,0.44,0.6,-0.0
2022-02-07 22:24:19.8440,-0.02,-0.4,-0.906,-2.56,4.12,-0.91,0.43,0.53,-0.05
2022-02-07 22:24:19.8540,0.029,-0.428,-0.896,-0.04,2.22,1.88,0.3,0.36,-0.08
2022-02-07 22:24:19.8640,0.071,-0.462,-0.908,-8.58,-10.49,2.31,0.08,0.09,-0.05
2022-02-07 22:24:19.8740,0.087,-0.49,-0.917,2.83,3.42,2.27,-0.17,-0.23,-0.01
2022-02-07 22:24:19.8840,0.064,-0.442,-0.925,0.77,4.53,2.75,-0.4,-0.51,-0.03
2022-02-07 22:24:19.8940,0.015,-0.38,-0.926,1.86,-4.59,-4.39,-0.5,-0.67,-0.12
2022-02-07 22:24:19.9040,-0.018,-0.399,-0.933,-4.77,2.8,9.08,-0.47,-0.64,-0.16
