
time,gFx,gFy,gFz,ax,ay,az,wx,wy,wz,
0.071877,0.2742,0.4319,1.1649,0.0000,0.0000,0.0000,0.0000,0.0000,0.0000,
0.072277,0.2007,0.4091,1.0900,0.0000,0.0000,0.0000,0.0000,0.0000,0.0000,
0.072638,0.0806,0.3920,1.0461,0.0000,0.0000,0.0000,0.0000,0.0000,0.0000,
0.097288,0.0297,0.3672,1.0602,0.0000,0.0000,0.0000,0.0000,0.0000,0.0000,
0.105444,0.0344,0.3895,1.1795,0.0000,0.0000,0.0000,0.0000,0.0000,0.0000,
0.106419,0.0344,0.3895,1.1795,0.0657,0.7434,2.2508,0.0000,0.0000,0.0000,
0.123102,0.0886,0.4048,1.1866,0.0657,0.7434,2.2508,0.0000,0.0000,0.0000,
0.124513,0.0886,0.4048,1.1866,0.1769,0.8087,2.3703,0.0000,0.0000,0.0000,
0.134927,0.0886,0.4048,1.1866,0.1769,0.8087,2.3703,0.0595,1.1076,-0.7123,
0.142873,0.0820,0.3972,1.0385,0.1769,0.8087,2.3703,0.0595,1.1076,-0.7123,
0.144612,0.0820,0.3972,1.0385,0.0823,0.3990,1.0431,0.0595,1.1076,-0.7123,
0.145792,0.0820,0.3972,1.0385,0.0823,0.3990,1.0431,0.0204,1.3574,-0.7478,
0.154810,0.0820,0.3972,1.0385,0.0823,0.3990,1.0431,-0.0168,1.5572,-0.7496,
0.162744,-0.1416,0.4439,0.9804,0.0823,0.3990,1.0431,-0.0168,1.5572,-0.7496,
0.163757,-0.1416,0.4439,0.9804,-0.1084,0.3399,0.7507,-0.0168,1.5572,-0.7496,
0.164897,-0.1416,0.4439,0.9804,-0.1084,0.3399,0.7507,-0.0639,1.6824,-0.6628,
0.174801,-0.1416,0.4439,0.9804,-0.1084,0.3399,0.7507,-0.1256,1.7282,-0.4716,
0.182788,-0.3673,0.4484,0.9436,-0.1084,0.3399,0.7507,-0.1256,1.7282,-0.4716,
0.184061,-0.3673,0.4484,0.9436,-0.3471,0.4237,0.8916,-0.1256,1.7282,-0.4716,
0.185084,-0.3673,0.4484,0.9436,-0.3471,0.4237,0.8916,-0.1665,1.6849,-0.2090,
0.195266,-0.3673,0.4484,0.9436,-0.3471,0.4237,0.8916,-0.1677,1.5902,0.0250,
0.202691,-0.2588,0.4121,0.9588,-0.3471,0.4237,0.8916,-0.1677,1.5902,0.0250,
0.203866,-0.2588,0.4121,0.9588,-0.1759,0.2801,0.6515,-0.1677,1.5902,0.0250,
0.207365,-0.2588,0.4121,0.9588,-0.1759,0.2801,0.6515,-0.1188,1.4478,0.1661,
0.215423,-0.2588,0.4121,0.9588,-0.1759,0.2801,0.6515,-0.0351,1.2322,0.2370,
0.227903,-0.2562,0.4196,0.9428,-0.1759,0.2801,0.6515,-0.0351,1.2322,0.2370,
0.229742,-0.2562,0.4196,0.9428,-0.1477,0.2420,0.5437,-0.0351,1.2322,0.2370,
0.231146,-0.2562,0.4196,0.9428,-0.1477,0.2420,0.5437,0.0424,0.9799,0.2608,
0.238872,-0.2562,0.4196,0.9428,-0.1477,0.2420,0.5437,0.0821,0.6910,0.2736,
0.243101,-0.3429,0.3881,0.8767,-0.1477,0.2420,0.5437,0.0821,0.6910,0.2736,
0.244702,-0.3429,0.3881,0.8767,-0.0579,0.0655,0.1480,0.0821,0.6910,0.2736,
0.246884,-0.3429,0.3881,0.8767,-0.0579,0.0655,0.1480,0.0736,0.3800,0.3005,
0.254977,-0.3429,0.3881,0.8767,-0.0579,0.0655,0.1480,0.0272,0.0648,0.3518,
0.263365,-0.3338,0.3513,0.8904,-0.0579,0.0655,0.1480,0.0272,0.0648,0.3518,
0.265239,-0.3338,0.3513,0.8904,-0.0421,0.0443,0.1123,0.0272,0.0648,0.3518,
0.266276,-0.3338,0.3513,0.8904,-0.0421,0.0443,0.1123,-0.0327,-0.2082,0.4251,
0.275125,-0.3338,0.3513,0.8904,-0.0421,0.0443,0.1123,-0.1017,-0.3475,0.4929,
0.282839,-0.2389,0.3535,0.8972,-0.0421,0.0443,0.1123,-0.1017,-0.3475,0.4929,
0.284118,-0.2389,0.3535,0.8972,0.0169,-0.0250,-0.0635,-0.1017,-0.3475,0.4929,
0.285181,-0.2389,0.3535,0.8972,0.0169,-0.0250,-0.0635,-0.1793,-0.3530,0.5277,
0.295673,-0.2389,0.3535,0.8972,0.0169,-0.0250,-0.0635,-0.2392,-0.3279,0.5271,
0.303510,-0.1925,0.3523,0.9427,0.0169,-0.0250,-0.0635,-0.2392,-0.3279,0.5271,
0.304749,-0.1925,0.3523,0.9427,-0.0440,0.0805,0.2155,-0.2392,-0.3279,0.5271,
0.305838,-0.1925,0.3523,0.9427,-0.0440,0.0805,0.2155,-0.2441,-0.3286,0.4850,
0.314814,-0.1925,0.3523,0.9427,-0.0440,0.0805,0.2155,-0.2441,-0.3286,0.4850,
0.323114,-0.1898,0.3224,0.9579,-0.0440,0.0805,0.2155,-0.2441,-0.3286,0.4850,
0.324413,-0.1898,0.3224,0.9579,-0.0501,0.0851,0.2529,-0.2441,-0.3286,0.4850,
0.329712,-0.1898,0.3224,0.9579,-0.0501,0.0851,0.2529,-0.1280,-0.4807,0.4856,
0.334858,-0.1898,0.3224,0.9579,-0.0501,0.0851,0.2529,-0.0577,-0.5613,0.4954,
0.342936,-0.1812,0.3014,0.9347,-0.0501,0.0851,0.2529,-0.0577,-0.5613,0.4954,
0.344475,-0.1812,0.3014,0.9347,0.0036,-0.0060,-0.0185,-0.0577,-0.5613,0.4954,
0.345358,-0.1812,0.3014,0.9347,0.0036,-0.0060,-0.0185,0.0040,-0.6273,0.4947,
0.354841,-0.1812,0.3014,0.9347,0.0036,-0.0060,-0.0185,0.0461,-0.6706,0.4758,
0.362676,-0.1204,0.3049,0.9042,0.0036,-0.0060,-0.0185,0.0461,-0.6706,0.4758,
0.364006,-0.1204,0.3049,0.9042,0.0477,-0.1209,-0.3585,0.0461,-0.6706,0.4758,
0.364937,-0.1204,0.3049,0.9042,0.0477,-0.1209,-0.3585,0.0528,-0.7018,0.4355,
0.374798,-0.1204,0.3049,0.9042,0.0477,-0.1209,-0.3585,0.0302,-0.7336,0.3823,
0.382834,-0.0996,0.3055,0.9097,0.0477,-0.1209,-0.3585,0.0302,-0.7336,0.3823,
0.384002,-0.0996,0.3055,0.9097,0.0364,-0.1115,-0.3319,0.0302,-0.7336,0.3823,
0.384966,-0.0996,0.3055,0.9097,0.0364,-0.1115,-0.3319,-0.0058,-0.7873,0.3286,
0.398910,-0.0996,0.3055,0.9097,0.0364,-0.1115,-0.3319,-0.0498,-0.8423,0.2754,
0.402700,-0.0634,0.3115,0.9361,0.0364,-0.1115,-0.3319,-0.0498,-0.8423,0.2754,
0.403706,-0.0634,0.3115,0.9361,0.0076,-0.0374,-0.1124,-0.0498,-0.8423,0.2754,
0.414879,-0.0634,0.3115,0.9361,0.0076,-0.0374,-0.1124,-0.1225,-1.0164,0.1753,
0.423599,-0.0981,0.2785,0.9302,0.0076,-0.0374,-0.1124,-0.1225,-1.0164,0.1753,
0.425044,-0.0981,0.2785,0.9302,0.0244,-0.0692,-0.2311,-0.1225,-1.0164,0.1753,
0.426255,-0.0981,0.2785,0.9302,0.0244,-0.0692,-0.2311,-0.1378,-1.2381,0.1386,
0.434790,-0.0981,0.2785,0.9302,0.0244,-0.0692,-0.2311,-0.1268,-1.4776,0.1142,
0.443490,-0.0719,0.2613,0.9866,0.0244,-0.0692,-0.2311,-0.1268,-1.4776,0.1142,
0.444733,-0.0719,0.2613,0.9866,-0.0155,0.0563,0.2126,-0.1268,-1.4776,0.1142,
0.447913,-0.0719,0.2613,0.9866,-0.0155,0.0563,0.2126,-0.0999,-1.6438,0.0842,
0.454785,-0.0719,0.2613,0.9866,-0.0155,0.0563,0.2126,-0.0492,-1.7360,0.0433,
0.464013,0.0340,0.2825,1.0522,-0.0155,0.0563,0.2126,-0.0492,-1.7360,0.0433,
0.465289,0.0340,0.2825,1.0522,0.0273,0.2270,0.8453,-0.0492,-1.7360,0.0433,
0.466220,0.0340,0.2825,1.0522,0.0273,0.2270,0.8453,0.0247,-1.7684,-0.0141,
0.474879,0.0340,0.2825,1.0522,0.0273,0.2270,0.8453,0.1231,-1.7549,-0.1021,
0.482826,0.1287,0.3139,0.9670,0.0273,0.2270,0.8453,0.1231,-1.7549,-0.1021,
0.484915,0.1287,0.3139,0.9670,0.0297,0.0723,0.2228,0.1231,-1.7549,-0.1021,
0.487262,0.1287,0.3139,0.9670,0.0297,0.0723,0.2228,0.1719,-1.7336,-0.4148,
0.496636,0.1287,0.3139,0.9670,0.0297,0.0723,0.2228,0.1719,-1.7336,-0.4148,
0.503088,0.0858,0.2960,0.8521,0.0297,0.0723,0.2228,0.1719,-1.7336,-0.4148,
0.504334,0.0858,0.2960,0.8521,-0.0877,-0.3026,-0.8712,0.1719,-1.7336,-0.4148,
0.506178,0.0858,0.2960,0.8521,-0.0877,-0.3026,-0.8712,-0.1036,-1.8221,-0.7148,
0.516024,0.0858,0.2960,0.8521,-0.0877,-0.3026,-0.8712,-0.2453,-1.8227,-0.6390,
0.522744,-0.0657,0.2127,0.8170,-0.0877,-0.3026,-0.8712,-0.2453,-1.8227,-0.6390,
0.523955,-0.0657,0.2127,0.8170,0.1171,-0.3789,-1.4555,-0.2453,-1.8227,-0.6390,
0.524935,-0.0657,0.2127,0.8170,0.1171,-0.3789,-1.4555,-0.3467,-1.7403,-0.4484,
0.536485,-0.0657,0.2127,0.8170,0.1171,-0.3789,-1.4555,-0.3992,-1.6425,-0.2084,
0.542737,-0.0247,0.2430,0.7653,0.1171,-0.3789,-1.4555,-0.3992,-1.6425,-0.2084,
0.543800,-0.0247,0.2430,0.7653,0.0594,-0.5850,-1.8427,-0.3992,-1.6425,-0.2084,
0.544900,-0.0247,0.2430,0.7653,0.0594,-0.5850,-1.8427,-0.4285,-1.4910,0.0403,
0.555062,-0.0247,0.2430,0.7653,0.0594,-0.5850,-1.8427,-0.4805,-1.2119,0.3005,
0.562775,0.3398,0.3626,0.5113,0.0594,-0.5850,-1.8427,-0.4805,-1.2119,0.3005,
0.564076,0.3398,0.3626,0.5113,-1.3436,-1.4335,-2.0217,-0.4805,-1.2119,0.3005,
0.565314,0.3398,0.3626,0.5113,-1.3436,-1.4335,-2.0217,-0.5727,-0.7971,0.5448,
0.575356,0.3398,0.3626,0.5113,-1.3436,-1.4335,-2.0217,-0.6759,-0.1777,0.7311,
0.584926,0.0520,0.3417,0.8054,-1.3436,-1.4335,-2.0217,-0.6759,-0.1777,0.7311,
0.586259,0.0520,0.3417,0.8054,-0.0723,-0.4749,-1.1194,-0.6759,-0.1777,0.7311,
0.587569,0.0520,0.3417,0.8054,-0.0723,-0.4749,-1.1194,-0.7004,0.5932,0.9242,
0.594956,0.0520,0.3417,0.8054,-0.0723,-0.4749,-1.1194,-0.5733,1.0068,1.1679,
0.604666,0.0814,0.1915,1.0890,-0.0723,-0.4749,-1.1194,-0.5733,1.0068,1.1679,
0.606512,0.0814,0.1915,1.0890,0.0777,0.1829,1.0398,-0.5733,1.0068,1.1679,
0.607971,0.0814,0.1915,1.0890,0.0777,0.1829,1.0398,-0.3601,0.9701,1.3377,
0.615347,0.0814,0.1915,1.0890,0.0777,0.1829,1.0398,-0.1677,0.8443,1.3078,
0.623504,0.0869,-0.0244,1.1834,0.0777,0.1829,1.0398,-0.1677,0.8443,1.3078,
0.624661,0.0869,-0.0244,1.1834,0.1335,-0.0376,1.8192,-0.1677,0.8443,1.3078,
0.625582,0.0869,-0.0244,1.1834,0.1335,-0.0376,1.8192,0.0174,0.5419,1.1203,
0.636095,0.0869,-0.0244,1.1834,0.1335,-0.0376,1.8192,0.2923,0.1174,0.1307,
0.642951,0.5972,0.1485,1.3160,0.1335,-0.0376,1.8192,0.2923,0.1174,0.1307,
0.644384,0.5972,0.1485,1.3160,1.8212,0.4530,4.0131,0.2923,0.1174,0.1307,
0.645518,0.5972,0.1485,1.3160,1.8212,0.4530,4.0131,0.7339,-0.3145,-1.2187,
0.655260,0.5972,0.1485,1.3160,1.8212,0.4530,4.0131,1.4383,-0.4953,-2.2065,
0.665485,0.0481,-0.0418,1.1950,1.8212,0.4530,4.0131,1.4383,-0.4953,-2.2065,
0.666799,0.0481,-0.0418,1.1950,0.0773,-0.0671,1.9185,1.4383,-0.4953,-2.2065,
0.667800,0.0481,-0.0418,1.1950,0.0773,-0.0671,1.9185,2.2220,-0.6896,-2.5040,
0.675295,0.0481,-0.0418,1.1950,0.0773,-0.0671,1.9185,2.3766,-0.5265,-1.6305,
0.683529,-0.3573,0.1970,0.1401,0.0773,-0.0671,1.9185,2.3766,-0.5265,-1.6305,
0.685867,-0.3573,0.1970,0.1401,4.6204,-2.5480,-1.8118,2.3766,-0.5265,-1.6305,
0.687598,-0.3573,0.1970,0.1401,4.6204,-2.5480,-1.8118,1.5067,-0.9516,-0.4252,
0.697077,-0.3573,0.1970,0.1401,4.6204,-2.5480,-1.8118,-0.3974,-2.3414,0.4013,
0.703061,-0.1339,0.0109,0.3050,4.6204,-2.5480,-1.8118,-0.3974,-2.3414,0.4013,
0.704886,-0.1339,0.0109,0.3050,2.6273,-0.2133,-5.9858,-0.3974,-2.3414,0.4013,
0.706545,-0.1339,0.0109,0.3050,2.6273,-0.2133,-5.9858,-1.1628,-2.7897,0.8594,
0.714727,-0.1339,0.0109,0.3050,2.6273,-0.2133,-5.9858,-1.5983,-3.0781,1.3188,
0.723047,-0.0476,-0.0164,0.7054,2.6273,-0.2133,-5.9858,-1.5983,-3.0781,1.3188,
0.724023,-0.0476,-0.0164,0.7054,0.1937,0.0666,-2.8685,-1.5983,-3.0781,1.3188,
0.725101,-0.0476,-0.0164,0.7054,0.1937,0.0666,-2.8685,-1.7902,-3.1960,1.6267,
0.734673,-0.0476,-0.0164,0.7054,0.1937,0.0666,-2.8685,-1.8567,-3.2008,1.7214,
0.742647,0.3994,-0.1981,0.8018,0.1937,0.0666,-2.8685,-1.8567,-3.2008,1.7214,
0.743608,0.3994,-0.1981,0.8018,-0.3551,0.1761,-0.7128,-1.8567,-3.2008,1.7214,
0.746009,0.3994,-0.1981,0.8018,-0.3551,0.1761,-0.7128,-1.9001,-3.0542,1.5644,
0.754696,0.3994,-0.1981,0.8018,-0.3551,0.1761,-0.7128,-1.9581,-2.9510,1.2608,
0.762752,0.1739,-0.3755,0.7671,-0.3551,0.1761,-0.7128,-1.9581,-2.9510,1.2608,
0.763936,0.1739,-0.3755,0.7671,-0.2524,0.5448,-1.1131,-1.9581,-2.9510,1.2608,
0.764831,0.1739,-0.3755,0.7671,-0.2524,0.5448,-1.1131,-2.0260,-2.9681,0.9944,
0.775085,0.1739,-0.3755,0.7671,-0.2524,0.5448,-1.1131,-2.0748,-2.9712,0.9321,
0.783075,0.0261,-0.4575,0.6861,-0.2524,0.5448,-1.1131,-2.0748,-2.9712,0.9321,
0.784346,0.0261,-0.4575,0.6861,-0.0545,0.9542,-1.4312,-2.0748,-2.9712,0.9321,
0.785541,0.0261,-0.4575,0.6861,-0.0545,0.9542,-1.4312,-2.1212,-3.0524,1.1551,
0.796197,0.0261,-0.4575,0.6861,-0.0545,0.9542,-1.4312,-2.1652,-3.0451,1.4966,
0.802889,0.1461,-0.5872,0.5921,-0.0545,0.9542,-1.4312,-2.1652,-3.0451,1.4966,
0.804013,0.1461,-0.5872,0.5921,-0.2606,1.0475,-1.0562,-2.1652,-3.0451,1.4966,
0.805008,0.1461,-0.5872,0.5921,-0.2606,1.0475,-1.0562,-2.2648,-3.0139,1.7812,
0.814838,0.1461,-0.5872,0.5921,-0.2606,1.0475,-1.0562,-2.4780,-3.0915,2.0518,
0.822697,0.2400,-0.5218,0.6158,-0.2606,1.0475,-1.0562,-2.4780,-3.0915,2.0518,
0.823927,0.2400,-0.5218,0.6158,-0.4430,0.9631,-1.1365,-2.4780,-3.0915,2.0518,
0.825457,0.2400,-0.5218,0.6158,-0.4430,0.9631,-1.1365,-2.7401,-2.9669,2.3139,
0.834956,0.2400,-0.5218,0.6158,-0.4430,0.9631,-1.1365,-3.0101,-2.5387,2.4648,
0.842852,0.7363,-0.4482,0.7516,-0.4430,0.9631,-1.1365,-3.0101,-2.5387,2.4648,
0.844178,0.7363,-0.4482,0.7516,0.9022,-0.5491,0.9209,-3.0101,-2.5387,2.4648,
0.847811,0.7363,-0.4482,0.7516,0.9022,-0.5491,0.9209,-3.4951,-1.2003,1.9865,
0.863556,0.9403,-0.5585,0.8256,0.9022,-0.5491,0.9209,-3.4951,-1.2003,1.9865,
0.865079,0.9403,-0.5585,0.8256,2.4858,-1.4764,2.1826,-3.4951,-1.2003,1.9865,
0.866676,0.9403,-0.5585,0.8256,2.4858,-1.4764,2.1826,-3.6643,-0.5204,1.5063,
0.875136,0.9403,-0.5585,0.8256,2.4858,-1.4764,2.1826,-3.8909,0.2854,0.7941,
0.883286,0.9056,-0.6236,0.7493,2.4858,-1.4764,2.1826,-3.8909,0.2854,0.7941,
0.886583,0.9056,-0.6236,0.7493,2.2006,-1.5153,1.8207,-3.8909,0.2854,0.7941,
0.890189,0.9056,-0.6236,0.7493,2.2006,-1.5153,1.8207,-3.9905,0.3171,0.7000,
0.897442,0.9056,-0.6236,0.7493,2.2006,-1.5153,1.8207,-4.1066,0.0251,0.7690,
0.902731,0.9511,-0.6191,0.7189,2.2006,-1.5153,1.8207,-4.1066,0.0251,0.7690,
0.903658,0.9511,-0.6191,0.7189,2.3776,-1.5476,1.7971,-4.1066,0.0251,0.7690,
0.904703,0.9511,-0.6191,0.7189,2.3776,-1.5476,1.7971,-4.1988,-0.4996,0.9718,
0.914671,0.9511,-0.6191,0.7189,2.3776,-1.5476,1.7971,-4.2526,-1.1337,1.1972,
0.922745,1.2975,-0.4685,0.8772,2.3776,-1.5476,1.7971,-4.2526,-1.1337,1.1972,
0.923601,1.2975,-0.4685,0.8772,4.9320,-1.7807,3.3343,-4.2526,-1.1337,1.1972,
0.924720,1.2975,-0.4685,0.8772,4.9320,-1.7807,3.3343,-4.2440,-1.7336,1.3640,
0.934622,1.2975,-0.4685,0.8772,4.9320,-1.7807,3.3343,-4.1780,-2.2577,1.4575,
0.942805,1.3676,-0.3977,0.9010,4.9320,-1.7807,3.3343,-4.1780,-2.2577,1.4575,
0.943870,1.3676,-0.3977,0.9010,5.4448,-1.5835,3.5871,-4.1780,-2.2577,1.4575,
0.944976,1.3676,-0.3977,0.9010,5.4448,-1.5835,3.5871,-4.0907,-2.7433,1.4685,
0.954763,1.3676,-0.3977,0.9010,5.4448,-1.5835,3.5871,-3.9746,-3.1001,1.4556,
0.962673,1.2898,-0.3282,0.8819,5.4448,-1.5835,3.5871,-3.9746,-3.1001,1.4556,
0.964009,1.2898,-0.3282,0.8819,4.7180,-1.2006,3.2260,-3.9746,-3.1001,1.4556,
0.965107,1.2898,-0.3282,0.8819,4.7180,-1.2006,3.2260,-3.8298,-3.3310,1.4483,
0.974936,1.2898,-0.3282,0.8819,4.7180,-1.2006,3.2260,-3.6582,-3.4012,1.3842,
0.982864,1.3803,-0.3225,0.8549,4.7180,-1.2006,3.2260,-3.6582,-3.4012,1.3842,
0.984129,1.3803,-0.3225,0.8549,5.3500,-1.2499,3.3137,-3.6582,-3.4012,1.3842,
0.985360,1.3803,-0.3225,0.8549,5.3500,-1.2499,3.3137,-3.4755,-3.3297,1.2485,
0.996230,1.3803,-0.3225,0.8549,5.3500,-1.2499,3.3137,-3.2843,-3.1453,1.0934,
1.002763,1.4402,-0.1545,0.7898,5.3500,-1.2499,3.3137,-3.2843,-3.1453,1.0934,
1.004108,1.4402,-0.1545,0.7898,5.5532,-0.5958,3.0455,-3.2843,-3.1453,1.0934,
1.005320,1.4402,-0.1545,0.7898,5.5532,-0.5958,3.0455,-3.1084,-2.8209,0.9474,
1.014877,1.4402,-0.1545,0.7898,5.5532,-0.5958,3.0455,-2.9612,-2.4922,0.8234,
1.022725,1.4970,-0.0737,0.7554,5.5532,-0.5958,3.0455,-2.9612,-2.4922,0.8234,
1.023863,1.4970,-0.0737,0.7554,5.9238,-0.2915,2.9892,-2.9612,-2.4922,0.8234,
1.025234,1.4970,-0.0737,0.7554,5.9238,-0.2915,2.9892,-2.8366,-2.3218,0.7134,
1.034626,1.4970,-0.0737,0.7554,5.9238,-0.2915,2.9892,-2.7113,-2.3591,0.5913,
1.042604,1.5064,-0.1071,0.7155,5.9238,-0.2915,2.9892,-2.7113,-2.3591,0.5913,
1.043542,1.5064,-0.1071,0.7155,5.9226,-0.4212,2.8129,-2.7113,-2.3591,0.5913,
1.046082,1.5064,-0.1071,0.7155,5.9226,-0.4212,2.8129,-2.5580,-2.5228,0.4966,
1.054690,1.5064,-0.1071,0.7155,5.9226,-0.4212,2.8129,-2.3540,-2.7629,0.4068,
1.063273,1.3548,-0.2613,0.6433,5.9226,-0.4212,2.8129,-2.3540,-2.7629,0.4068,
1.064758,1.3548,-0.2613,0.6433,4.5497,-0.8774,2.1602,-2.3540,-2.7629,0.4068,
1.066169,1.3548,-0.2613,0.6433,4.5497,-0.8774,2.1602,-1.9698,-3.1086,0.1612,
1.082081,1.1215,-0.2478,0.5061,4.5497,-0.8774,2.1602,-1.9698,-3.1086,0.1612,
1.083858,1.1215,-0.2478,0.5061,2.2279,-0.4924,1.0054,-1.9698,-3.1086,0.1612,
1.085203,1.1215,-0.2478,0.5061,2.2279,-0.4924,1.0054,-1.8335,-2.9962,0.0836,
1.094939,1.1215,-0.2478,0.5061,2.2279,-0.4924,1.0054,-1.8085,-2.2687,-0.0532,
1.102704,1.1559,-0.2800,0.4766,2.2279,-0.4924,1.0054,-1.8085,-2.2687,-0.0532,
1.104099,1.1559,-0.2800,0.4766,2.4811,-0.6009,1.0231,-1.8085,-2.2687,-0.0532,
1.105484,1.1559,-0.2800,0.4766,2.4811,-0.6009,1.0231,-1.8659,-1.7788,-0.2798,
1.114807,1.1559,-0.2800,0.4766,2.4811,-0.6009,1.0231,-1.8519,-1.4550,-0.5847,
1.122889,1.1381,-0.3748,0.4643,2.4811,-0.6009,1.0231,-1.8519,-1.4550,-0.5847,
1.123924,1.1381,-0.3748,0.4643,2.1772,-1.4752,1.2685,-1.8519,-1.4550,-0.5847,
1.125026,1.1381,-0.3748,0.4643,2.1772,-1.4752,1.2685,-1.7492,-1.2583,-0.8479,
1.134682,1.1381,-0.3748,0.4643,2.1772,-1.4752,1.2685,-1.5702,-1.1441,-0.9976,
1.142615,0.8812,-0.4261,0.6964,2.1772,-1.4752,1.2685,-1.5702,-1.1441,-0.9976,
1.143602,0.8812,-0.4261,0.6964,-0.4369,-2.0215,3.7890,-1.5702,-1.1441,-0.9976,
1.144726,0.8812,-0.4261,0.6964,-0.4369,-2.0215,3.7890,-1.2935,-1.1380,-1.0086,
1.154754,0.8812,-0.4261,0.6964,-0.4369,-2.0215,3.7890,-0.8091,-1.2949,-0.9029,
1.162774,0.8142,-0.3650,0.7912,-0.4369,-2.0215,3.7890,-0.8091,-1.2949,-0.9029,
1.163628,0.8142,-0.3650,0.7912,-1.1708,-1.5039,4.8969,-0.8091,-1.2949,-0.9029,
1.164589,0.8142,-0.3650,0.7912,-1.1708,-1.5039,4.8969,-0.2160,-1.5008,-0.7807,
1.174552,0.8142,-0.3650,0.7912,-1.1708,-1.5039,4.8969,0.2349,-1.6016,-0.7239,
1.182605,0.8779,-0.2890,0.4186,-1.1708,-1.5039,4.8969,0.2349,-1.6016,-0.7239,
1.183463,0.8779,-0.2890,0.4186,-0.6277,-0.8614,1.4436,0.2349,-1.6016,-0.7239,
1.184601,0.8779,-0.2890,0.4186,-0.6277,-0.8614,1.4436,0.4358,-1.4409,-0.7233,
1.194918,0.8779,-0.2890,0.4186,-0.6277,-0.8614,1.4436,0.4261,-1.1007,-0.7777,
1.202933,0.7621,-0.2613,0.3567,-0.6277,-0.8614,1.4436,0.4261,-1.1007,-0.7777,
1.204474,0.7621,-0.2613,0.3567,-1.8242,-0.7083,0.9696,0.4261,-1.1007,-0.7777,
1.205795,0.7621,-0.2613,0.3567,-1.8242,-0.7083,0.9696,0.4456,-0.7659,-0.8253,
1.214680,0.7621,-0.2613,0.3567,-1.8242,-0.7083,0.9696,0.4878,-0.3884,-0.7343,
1.222661,0.6325,-0.5215,0.0232,-1.8242,-0.7083,0.9696,0.4878,-0.3884,-0.7343,
1.223517,0.6325,-0.5215,0.0232,-3.1218,-3.3445,-2.2590,0.4878,-0.3884,-0.7343,
1.224646,0.6325,-0.5215,0.0232,-3.1218,-3.3445,-2.2590,0.4041,0.0154,-0.4973,
1.234798,0.6325,-0.5215,0.0232,-3.1218,-3.3445,-2.2590,0.2911,0.2823,-0.2560,
1.242638,1.0200,-0.6144,0.0483,-3.1218,-3.3445,-2.2590,0.2911,0.2823,-0.2560,
1.243640,1.0200,-0.6144,0.0483,0.6917,-4.2406,-2.0633,0.2911,0.2823,-0.2560,
1.244743,1.0200,-0.6144,0.0483,0.6917,-4.2406,-2.0633,0.3076,0.5572,-0.3281,
1.254761,1.0200,-0.6144,0.0483,0.6917,-4.2406,-2.0633,0.2452,1.0037,-0.4949,
1.263876,0.8918,-0.5738,-0.1598,0.6917,-4.2406,-2.0633,0.2452,1.0037,-0.4949,
1.264954,0.8918,-0.5738,-0.1598,-0.5267,-3.8126,-4.2154,0.2452,1.0037,-0.4949,
1.265937,0.8918,-0.5738,-0.1598,-0.5267,-3.8126,-4.2154,0.0748,1.4203,-0.6018,
1.274647,0.8918,-0.5738,-0.1598,-0.5267,-3.8126,-4.2154,-0.0193,1.7068,-0.5798,
1.282625,0.5807,-0.4586,-0.0395,-0.5267,-3.8126,-4.2154,-0.0193,1.7068,-0.5798,
1.283583,0.5807,-0.4586,-0.0395,-3.5039,-2.6582,-3.2596,-0.0193,1.7068,-0.5798,
1.284610,0.5807,-0.4586,-0.0395,-3.5039,-2.6582,-3.2596,-0.0419,1.9121,-0.4216,
1.294750,0.5807,-0.4586,-0.0395,-3.5039,-2.6582,-3.2596,-0.0070,2.1424,-0.1662,
1.302784,0.1754,-0.3855,0.1549,-3.5039,-2.6582,-3.2596,-0.0070,2.1424,-0.1662,
1.303679,0.1754,-0.3855,0.1549,-7.3499,-1.8314,-1.6657,-0.0070,2.1424,-0.1662,
1.304638,0.1754,-0.3855,0.1549,-7.3499,-1.8314,-1.6657,0.0913,2.5559,0.1942,
1.315064,0.1754,-0.3855,0.1549,-7.3499,-1.8314,-1.6657,0.2226,3.1931,0.6719,
1.323544,-0.1344,-0.4851,0.1114,-7.3499,-1.8314,-1.6657,0.2226,3.1931,0.6719,
1.325747,-0.1344,-0.4851,0.1114,-10.1376,-2.5135,-2.5613,0.2226,3.1931,0.6719,
1.328160,-0.1344,-0.4851,0.1114,-10.1376,-2.5135,-2.5613,0.1475,3.7807,1.2308,
1.344128,-0.1344,-0.4851,0.1114,-10.1376,-2.5135,-2.5613,-0.0803,4.2065,1.8374,
1.346438,0.1809,-0.9458,0.1528,-10.1376,-2.5135,-2.5613,-0.0803,4.2065,1.8374,
1.348574,0.1809,-0.9458,0.1528,-6.6012,-6.4917,-2.7838,-0.0803,4.2065,1.8374,
1.350577,0.1809,-0.9458,0.1528,-6.6012,-6.4917,-2.7838,-0.3076,4.2700,2.3224,
1.365099,0.1809,-0.9458,0.1528,-6.6012,-6.4917,-2.7838,-0.7810,4.1527,2.3322,
1.367912,0.9034,-1.3824,-0.1374,-6.6012,-6.4917,-2.7838,-0.7810,4.1527,2.3322,
1.369819,0.9034,-1.3824,-0.1374,1.0331,-10.0867,-6.1458,-0.7810,4.1527,2.3322,
1.371989,0.9034,-1.3824,-0.1374,1.0331,-10.0867,-6.1458,-1.4530,4.0978,1.8942,
1.386824,0.9034,-1.3824,-0.1374,1.0331,-10.0867,-6.1458,-1.9417,4.1491,1.2467,
1.389043,1.0471,-1.3789,0.5203,1.0331,-10.0867,-6.1458,-1.9417,4.1491,1.2467,
1.391590,1.0471,-1.3789,0.5203,2.9984,-9.4382,-0.0798,-1.9417,4.1491,1.2467,
1.393240,1.0471,-1.3789,0.5203,2.9984,-9.4382,-0.0798,-1.9429,4.0550,0.5864,
1.395205,1.0471,-1.3789,0.5203,2.9984,-9.4382,-0.0798,-1.5544,3.1002,0.2852,
1.408254,0.5286,-1.1050,0.3374,2.9984,-9.4382,-0.0798,-1.5544,3.1002,0.2852,
1.411383,0.5286,-1.1050,0.3374,-1.6360,-6.3156,-2.1106,-1.5544,3.1002,0.2852,
1.413941,0.5286,-1.1050,0.3374,-1.6360,-6.3156,-2.1106,-1.2141,1.8058,0.5784,
1.415741,0.5286,-1.1050,0.3374,-1.6360,-6.3156,-2.1106,-0.9802,0.8999,1.0806,
1.423175,0.5485,-1.0002,0.5080,-1.6360,-6.3156,-2.1106,-0.9802,0.8999,1.0806,
1.424744,0.5485,-1.0002,0.5080,-1.1775,-4.8940,-0.4202,-0.9802,0.8999,1.0806,
1.426531,0.5485,-1.0002,0.5080,-1.1775,-4.8940,-0.4202,-0.5397,0.8205,1.4220,
1.435030,0.5485,-1.0002,0.5080,-1.1775,-4.8940,-0.4202,-0.2263,-0.8099,0.8704,
1.442949,0.4665,-0.4884,0.3016,-1.1775,-4.8940,-0.4202,-0.2263,-0.8099,0.8704,
1.445477,0.4665,-0.4884,0.3016,-1.8340,0.4419,-2.3175,-0.2263,-0.8099,0.8704,
1.447189,0.4665,-0.4884,0.3016,-1.8340,0.4419,-2.3175,-0.6894,-1.2314,0.4428,
1.455000,0.4665,-0.4884,0.3016,-1.8340,0.4419,-2.3175,-0.8464,-1.3347,0.2076,
1.466197,0.4377,-0.5882,0.2808,-1.8340,0.4419,-2.3175,-0.8464,-1.3347,0.2076,
1.470074,0.4377,-0.5882,0.2808,-2.1781,-0.3041,-2.2010,-0.8464,-1.3347,0.2076,
1.473044,0.4377,-0.5882,0.2808,-2.1781,-0.3041,-2.2010,-0.6839,-1.4807,0.1832,
1.475884,0.4377,-0.5882,0.2808,-2.1781,-0.3041,-2.2010,-0.4786,-1.3713,0.4343,
1.483266,0.5243,-0.8403,0.1567,-2.1781,-0.3041,-2.2010,-0.4786,-1.3713,0.4343,
1.485346,0.5243,-0.8403,0.1567,-1.3936,-2.5687,-3.0905,-0.4786,-1.3713,0.4343,
1.487270,0.5243,-0.8403,0.1567,-1.3936,-2.5687,-3.0905,-0.2923,-1.0598,0.8802,
1.495158,0.5243,-0.8403,0.1567,-1.3936,-2.5687,-3.0905,-0.0089,-0.9119,1.2687,
1.503321,0.5156,-0.7319,0.1091,-1.3936,-2.5687,-3.0905,-0.0089,-0.9119,1.2687,
1.505930,0.5156,-0.7319,0.1091,-1.4116,-1.2540,-3.3292,-0.0089,-0.9119,1.2687,
1.507584,0.5156,-0.7319,0.1091,-1.4116,-1.2540,-3.3292,0.3479,-0.9529,1.5289,
1.515127,0.5156,-0.7319,0.1091,-1.4116,-1.2540,-3.3292,0.6564,-1.0366,1.6499,
1.523029,0.4577,-0.4578,0.0107,-1.4116,-1.2540,-3.3292,0.6564,-1.0366,1.6499,
1.525051,0.4577,-0.4578,0.0107,-1.8600,1.6737,-4.1318,0.6564,-1.0366,1.6499,
1.526642,0.4577,-0.4578,0.0107,-1.8600,1.6737,-4.1318,0.8360,-1.2510,1.6236,
1.534884,0.4577,-0.4578,0.0107,-1.8600,1.6737,-4.1318,0.8854,-1.7586,1.4752,
1.542843,0.4262,-0.2298,-0.1130,-1.8600,1.6737,-4.1318,0.8854,-1.7586,1.4752,
1.544102,0.4262,-0.2298,-0.1130,-2.1180,4.0904,-5.1477,0.8854,-1.7586,1.4752,
1.545462,0.4262,-0.2298,-0.1130,-2.1180,4.0904,-5.1477,0.8103,-2.6150,1.2290,
1.554815,0.4262,-0.2298,-0.1130,-2.1180,4.0904,-5.1477,0.6118,-3.5625,0.9431,
1.564959,0.2294,-0.5960,0.0938,-2.1180,4.0904,-5.1477,0.6118,-3.5625,0.9431,
1.565989,0.2294,-0.5960,0.0938,-4.1321,0.6546,-2.7240,0.6118,-3.5625,0.9431,
1.566735,0.2294,-0.5960,0.0938,-4.1321,0.6546,-2.7240,0.2593,-3.9290,0.8252,
1.574790,0.2294,-0.5960,0.0938,-4.1321,0.6546,-2.7240,-0.3387,-3.1001,1.3261,
1.582910,0.1776,-0.9748,0.1650,-4.1321,0.6546,-2.7240,-0.3387,-3.1001,1.3261,
1.584069,0.1776,-0.9748,0.1650,-4.6705,-2.8197,-1.5025,-0.3387,-3.1001,1.3261,
1.585617,0.1776,-0.9748,0.1650,-4.6705,-2.8197,-1.5025,-0.6478,-2.5313,2.1636,
1.594750,0.1776,-0.9748,0.1650,-4.6705,-2.8197,-1.5025,-0.5159,-2.7488,2.8893,
1.602690,0.2130,-1.1652,0.2503,-4.6705,-2.8197,-1.5025,-0.5159,-2.7488,2.8893,
1.603843,0.2130,-1.1652,0.2503,-4.0312,-4.2354,-0.2160,-0.5159,-2.7488,2.8893,
1.605045,0.2130,-1.1652,0.2503,-4.0312,-4.2354,-0.2160,-0.1720,-2.9834,3.4971,
1.614664,0.2130,-1.1652,0.2503,-4.0312,-4.2354,-0.2160,0.4584,-2.7073,4.0439,
1.622637,0.3454,-1.1658,0.0721,-4.0312,-4.2354,-0.2160,0.4584,-2.7073,4.0439,
1.623613,0.3454,-1.1658,0.0721,-2.2283,-3.7245,-1.6082,0.4584,-2.7073,4.0439,
1.624671,0.3454,-1.1658,0.0721,-2.2283,-3.7245,-1.6082,0.4132,-2.4049,3.9107,
1.634908,0.3454,-1.1658,0.0721,-2.2283,-3.7245,-1.6082,0.1109,-2.1379,3.5955,
1.643208,0.3922,-1.2587,-0.1193,-2.2283,-3.7245,-1.6082,0.1109,-2.1379,3.5955,
1.644308,0.3922,-1.2587,-0.1193,-1.2046,-4.1817,-3.2208,0.1109,-2.1379,3.5955,
1.645355,0.3922,-1.2587,-0.1193,-1.2046,-4.1817,-3.2208,-0.2819,-1.8857,3.2155,
1.654774,0.3922,-1.2587,-0.1193,-1.2046,-4.1817,-3.2208,-0.6662,-1.5362,2.7916,
1.664259,0.5785,-1.5147,-0.0448,-1.2046,-4.1817,-3.2208,-0.6662,-1.5362,2.7916,
1.665523,0.5785,-1.5147,-0.0448,1.1034,-6.3429,-2.1862,-0.6662,-1.5362,2.7916,
1.666699,0.5785,-1.5147,-0.0448,1.1034,-6.3429,-2.1862,-0.9630,-1.0732,2.3304,
1.674843,0.5785,-1.5147,-0.0448,1.1034,-6.3429,-2.1862,-1.1329,-0.5717,1.8967,
1.682904,0.6503,-1.5126,0.0625,1.1034,-6.3429,-2.1862,-1.1329,-0.5717,1.8967,
1.684348,0.6503,-1.5126,0.0625,2.1699,-6.0832,-0.8382,-1.1329,-0.5717,1.8967,
1.686018,0.6503,-1.5126,0.0625,2.1699,-6.0832,-0.8382,-1.1720,-0.0970,1.5094,
1.694963,0.6503,-1.5126,0.0625,2.1699,-6.0832,-0.8382,-1.0730,0.2738,1.2821,
1.703082,0.6483,-1.3290,0.1345,2.1699,-6.0832,-0.8382,-1.0730,0.2738,1.2821,
1.704427,0.6483,-1.3290,0.1345,2.4022,-4.1354,0.0747,-1.0730,0.2738,1.2821,
1.705587,0.6483,-1.3290,0.1345,2.4022,-4.1354,0.0747,-0.8934,0.4918,1.2705,
1.715640,0.6483,-1.3290,0.1345,2.4022,-4.1354,0.0747,-0.7273,0.5529,1.3634,
1.722776,0.5310,-1.0065,0.1186,2.4022,-4.1354,0.0747,-0.7273,0.5529,1.3634,
1.723973,0.5310,-1.0065,0.1186,1.4974,-0.8554,0.0328,-0.7273,0.5529,1.3634,
1.725452,0.5310,-1.0065,0.1186,1.4974,-0.8554,0.0328,-0.6185,0.4894,1.5069,
1.734947,0.5310,-1.0065,0.1186,1.4974,-0.8554,0.0328,-0.5672,0.3971,1.7214,
1.749588,0.3749,-0.9069,0.0873,1.4974,-0.8554,0.0328,-0.5672,0.3971,1.7214,
1.750974,0.3749,-0.9069,0.0873,0.2616,0.2468,-0.1909,-0.5672,0.3971,1.7214,
1.752127,0.3749,-0.9069,0.0873,0.2616,0.2468,-0.1909,-0.3418,-0.3279,2.1288,
1.756652,0.3749,-0.9069,0.0873,0.2616,0.2468,-0.1909,-0.3418,-0.3279,2.1288,
1.765680,0.2233,-0.9584,0.0646,0.2616,0.2468,-0.1909,-0.3418,-0.3279,2.1288,
1.766768,0.2233,-0.9584,0.0646,-0.8464,-0.1165,-0.3245,-0.3418,-0.3279,2.1288,
1.767616,0.2233,-0.9584,0.0646,-0.8464,-0.1165,-0.3245,-0.1891,-0.6914,2.1661,
1.774848,0.2233,-0.9584,0.0646,-0.8464,-0.1165,-0.3245,-0.0968,-0.7635,2.0726,
1.782815,0.2386,-0.8409,-0.0261,-0.8464,-0.1165,-0.3245,-0.0968,-0.7635,2.0726,
1.784961,0.2386,-0.8409,-0.0261,-0.3291,1.1550,-1.1366,-0.0968,-0.7635,2.0726,
1.786082,0.2386,-0.8409,-0.0261,-0.3291,1.1550,-1.1366,-0.0095,-0.7794,1.7635,
1.794850,0.2386,-0.8409,-0.0261,-0.3291,1.1550,-1.1366,0.0736,-0.8252,1.3102,
1.802736,0.1412,-0.8794,-0.1267,-0.3291,1.1550,-1.1366,0.0736,-0.8252,1.3102,
1.804263,0.1412,-0.8794,-0.1267,-1.0197,0.8537,-2.0666,0.0736,-0.8252,1.3102,
1.805356,0.1412,-0.8794,-0.1267,-1.0197,0.8537,-2.0666,0.0681,-0.6291,0.6908,
1.814854,0.1412,-0.8794,-0.1267,-1.0197,0.8537,-2.0666,0.0156,-0.4226,0.6450,
1.822772,0.0558,-0.9687,-0.1560,-1.0197,0.8537,-2.0666,0.0156,-0.4226,0.6450,
1.823899,0.0558,-0.9687,-0.1560,-1.7394,0.0121,-2.3009,0.0156,-0.4226,0.6450,
1.824958,0.0558,-0.9687,-0.1560,-1.7394,0.0121,-2.3009,-0.0559,-0.2033,0.7318,
1.834853,0.0558,-0.9687,-0.1560,-1.7394,0.0121,-2.3009,-0.1995,0.0960,0.8949,
1.842741,-0.0239,-1.1319,-0.0950,-1.7394,0.0121,-2.3009,-0.1995,0.0960,0.8949,
1.843680,-0.0239,-1.1319,-0.0950,-2.3482,-1.5419,-1.6335,-0.1995,0.0960,0.8949,
1.844724,-0.0239,-1.1319,-0.0950,-2.3482,-1.5419,-1.6335,-0.3778,0.4808,1.1148,
1.854889,-0.0239,-1.1319,-0.0950,-2.3482,-1.5419,-1.6335,-0.4731,0.7588,1.2614,
1.864530,0.2488,-1.0802,-0.0678,-2.3482,-1.5419,-1.6335,-0.4731,0.7588,1.2614,
1.866446,0.2488,-1.0802,-0.0678,0.5635,-0.9796,-1.2745,-0.4731,0.7588,1.2614,
1.867795,0.2488,-1.0802,-0.0678,0.5635,-0.9796,-1.2745,-0.5458,0.9103,1.1288,
1.874874,0.2488,-1.0802,-0.0678,0.5635,-0.9796,-1.2745,-0.5849,1.0257,0.8490,
1.882729,0.2981,-1.0167,0.0138,0.5635,-0.9796,-1.2745,-0.5849,1.0257,0.8490,
1.884039,0.2981,-1.0167,0.0138,1.2386,-0.3158,-0.3780,-0.5849,1.0257,0.8490,
1.885223,0.2981,-1.0167,0.0138,1.2386,-0.3158,-0.3780,-0.5666,1.0270,0.5864,
1.894795,0.2981,-1.0167,0.0138,1.2386,-0.3158,-0.3780,-0.4878,0.9561,0.3225,
1.902923,0.2172,-0.8815,0.0641,1.2386,-0.3158,-0.3780,-0.4878,0.9561,0.3225,
1.904510,0.2172,-0.8815,0.0641,0.5328,1.0280,0.1959,-0.4878,0.9561,0.3225,
1.905798,0.2172,-0.8815,0.0641,0.5328,1.0280,0.1959,-0.3913,0.8651,-0.0306,
1.915468,0.2172,-0.8815,0.0641,0.5328,1.0280,0.1959,-0.3259,0.7655,-0.3819,
1.922706,-0.0602,-0.8827,0.0183,0.5328,1.0280,0.1959,-0.3259,0.7655,-0.3819,
1.923752,-0.0602,-0.8827,0.0183,-2.2171,1.0129,-0.2035,-0.3259,0.7655,-0.3819,
1.924820,-0.0602,-0.8827,0.0183,-2.2171,1.0129,-0.2035,-0.3113,0.6904,-0.5926,
1.934873,-0.0602,-0.8827,0.0183,-2.2171,1.0129,-0.2035,-0.3339,0.6360,-0.7184,
1.942676,-0.0691,-0.9428,-0.0138,-2.2171,1.0129,-0.2035,-0.3339,0.6360,-0.7184,
1.943531,-0.0691,-0.9428,-0.0138,-2.4029,0.4087,-0.4689,-0.3339,0.6360,-0.7184,
1.944827,-0.0691,-0.9428,-0.0138,-2.4029,0.4087,-0.4689,-0.3522,0.5883,-0.8064,
1.954733,-0.0691,-0.9428,-0.0138,-2.4029,0.4087,-0.4689,-0.3394,0.5040,-0.8980,
1.965225,0.0314,-0.9237,-0.0671,-2.4029,0.4087,-0.4689,-0.3394,0.5040,-0.8980,
1.966462,0.0314,-0.9237,-0.0671,-1.5426,0.5742,-0.9276,-0.3394,0.5040,-0.8980,
1.968071,0.0314,-0.9237,-0.0671,-1.5426,0.5742,-0.9276,-0.2948,0.3758,-1.0110,
1.974855,0.0314,-0.9237,-0.0671,-1.5426,0.5742,-0.9276,-0.2483,0.2133,-1.1552,
1.983321,0.1432,-0.8625,-0.1373,-1.5426,0.5742,-0.9276,-0.2483,0.2133,-1.1552,
1.984763,0.1432,-0.8625,-0.1373,-0.6176,1.1413,-1.5487,-0.2483,0.2133,-1.1552,
1.985783,0.1432,-0.8625,-0.1373,-0.6176,1.1413,-1.5487,-0.1927,-0.1758,-1.5474,
1.994789,0.1432,-0.8625,-0.1373,-0.6176,1.1413,-1.5487,-0.1732,-0.4110,-1.7783,
2.002761,0.2446,-0.8229,-0.1702,-0.6176,1.1413,-1.5487,-0.1732,-0.4110,-1.7783,
2.003905,0.2446,-0.8229,-0.1702,0.0875,1.4653,-1.7860,-0.1732,-0.4110,-1.7783,
2.005157,0.2446,-0.8229,-0.1702,0.0875,1.4653,-1.7860,-0.1488,-0.6322,-2.0202,
2.014890,0.2446,-0.8229,-0.1702,0.0875,1.4653,-1.7860,-0.1249,-0.8270,-2.2578,
2.022717,0.3160,-0.9902,-0.1437,0.0875,1.4653,-1.7860,-0.1249,-0.8270,-2.2578,
2.023716,0.3160,-0.9902,-0.1437,0.4079,-0.2729,-1.4265,-0.1249,-0.8270,-2.2578,
2.025567,0.3160,-0.9902,-0.1437,0.4079,-0.2729,-1.4265,-0.1139,-0.9956,-2.4221,
2.034721,0.3160,-0.9902,-0.1437,0.4079,-0.2729,-1.4265,-0.0895,-1.1306,-2.4258,
2.042689,0.3836,-1.1339,-0.0473,0.4079,-0.2729,-1.4265,-0.0895,-1.1306,-2.4258,
2.043571,0.3836,-1.1339,-0.0473,0.6399,-1.8157,-0.3784,-0.0895,-1.1306,-2.4258,
2.044661,0.3836,-1.1339,-0.0473,0.6399,-1.8157,-0.3784,-0.0199,-1.2278,-2.2590,
2.054647,0.3836,-1.1339,-0.0473,0.6399,-1.8157,-0.3784,0.0870,-1.2662,-1.9732,
2.062769,0.5185,-1.1123,0.0202,0.6399,-1.8157,-0.3784,0.0870,-1.2662,-1.9732,
2.063878,0.5185,-1.1123,0.0202,1.5872,-1.7394,0.3663,0.0870,-1.2662,-1.9732,
2.066172,0.5185,-1.1123,0.0202,1.5872,-1.7394,0.3663,0.2361,-1.2223,-1.5871,
2.074739,0.5185,-1.1123,0.0202,1.5872,-1.7394,0.3663,0.3845,-1.0970,-1.1888,
2.082952,0.6822,-0.9477,-0.0026,1.5872,-1.7394,0.3663,0.3845,-1.0970,-1.1888,
2.084841,0.6822,-0.9477,-0.0026,2.9386,-0.2268,0.1747,0.3845,-1.0970,-1.1888,
2.086594,0.6822,-0.9477,-0.0026,2.9386,-0.2268,0.1747,0.4969,-0.9003,-0.8351,
2.094824,0.6822,-0.9477,-0.0026,2.9386,-0.2268,0.1747,0.5336,-0.6786,-0.5578,
2.102807,0.7275,-0.7510,-0.0826,2.9386,-0.2268,0.1747,0.5336,-0.6786,-0.5578,
2.104131,0.7275,-0.7510,-0.0826,3.2411,1.6411,-0.6345,0.5336,-0.6786,-0.5578,
2.105412,0.7275,-0.7510,-0.0826,3.2411,1.6411,-0.6345,0.4749,-0.4300,-0.3214,
2.114838,0.7275,-0.7510,-0.0826,3.2411,1.6411,-0.6345,0.3302,-0.1936,-0.0984,
2.122693,0.7115,-0.6667,-0.1628,3.2411,1.6411,-0.6345,0.3302,-0.1936,-0.0984,
2.123741,0.7115,-0.6667,-0.1628,2.9885,2.4255,-1.4421,0.3302,-0.1936,-0.0984,
2.124746,0.7115,-0.6667,-0.1628,2.9885,2.4255,-1.4421,0.1164,0.0019,0.0702,
2.134783,0.7115,-0.6667,-0.1628,2.9885,2.4255,-1.4421,-0.1054,0.0709,0.0604,
2.142837,0.5198,-0.8306,-0.1606,2.9885,2.4255,-1.4421,-0.1054,0.0709,0.0604,
2.144008,0.5198,-0.8306,-0.1606,1.0656,0.7990,-1.3898,-0.1054,0.0709,0.0604,
2.144908,0.5198,-0.8306,-0.1606,1.0656,0.7990,-1.3898,-0.2715,0.0111,-0.0440,
2.154894,0.5198,-0.8306,-0.1606,1.0656,0.7990,-1.3898,-0.3479,-0.1025,-0.0648,
2.164666,0.3695,-0.9249,-0.1097,1.0656,0.7990,-1.3898,-0.3479,-0.1025,-0.0648,
2.165824,0.3695,-0.9249,-0.1097,-0.4415,-0.1429,-0.8080,-0.3479,-0.1025,-0.0648,
2.166744,0.3695,-0.9249,-0.1097,-0.4415,-0.1429,-0.8080,-0.3497,-0.2088,0.0360,
2.174822,0.3695,-0.9249,-0.1097,-0.4415,-0.1429,-0.8080,-0.2447,-0.2681,0.0775,
2.182926,0.3017,-0.9615,-0.0391,-0.4415,-0.1429,-0.8080,-0.2447,-0.2681,0.0775,
2.184360,0.3017,-0.9615,-0.0391,-1.0995,-0.5008,-0.0349,-0.2447,-0.2681,0.0775,
2.185301,0.3017,-0.9615,-0.0391,-1.0995,-0.5008,-0.0349,-0.1787,-0.1997,0.1056,
2.194703,0.3017,-0.9615,-0.0391,-1.0995,-0.5008,-0.0349,-0.1170,-0.1001,0.1203,
2.203088,0.2700,-0.9825,0.0142,-1.0995,-0.5008,-0.0349,-0.1170,-0.1001,0.1203,
2.205405,0.2700,-0.9825,0.0142,-1.3881,-0.6981,0.5274,-0.1170,-0.1001,0.1203,
2.206706,0.2700,-0.9825,0.0142,-1.3881,-0.6981,0.5274,-0.0657,-0.0042,0.1142,
2.215063,0.2700,-0.9825,0.0142,-1.3881,-0.6981,0.5274,-0.0315,0.0752,0.0848,
2.222842,0.3476,-0.9417,0.0450,-1.3881,-0.6981,0.5274,-0.0315,0.0752,0.0848,
2.224336,0.3476,-0.9417,0.0450,-0.6065,-0.2893,0.8340,-0.0315,0.0752,0.0848,
2.225432,0.3476,-0.9417,0.0450,-0.6065,-0.2893,0.8340,-0.0046,0.1504,0.0598,
2.234941,0.3476,-0.9417,0.0450,-0.6065,-0.2893,0.8340,0.0357,0.2072,0.0739,
2.242801,0.4765,-0.8951,0.0374,-0.6065,-0.2893,0.8340,0.0357,0.2072,0.0739,
2.243619,0.4765,-0.8951,0.0374,0.6671,0.1724,0.7403,0.0357,0.2072,0.0739,
2.244517,0.4765,-0.8951,0.0374,0.6671,0.1724,0.7403,0.0864,0.2457,0.0745,
2.254650,0.4765,-0.8951,0.0374,0.6671,0.1724,0.7403,0.1414,0.2866,0.0458,
2.262876,0.5001,-0.8753,-0.0144,0.6671,0.1724,0.7403,0.1414,0.2866,0.0458,
2.264044,0.5001,-0.8753,-0.0144,0.9043,0.3708,0.1888,0.1414,0.2866,0.0458,
2.265155,0.5001,-0.8753,-0.0144,0.9043,0.3708,0.1888,0.2013,0.3220,0.0079,
2.274823,0.5001,-0.8753,-0.0144,0.9043,0.3708,0.1888,0.2605,0.3300,-0.0392,
2.282774,0.4538,-0.8613,-0.0800,0.9043,0.3708,0.1888,0.2605,0.3300,-0.0392,
2.284063,0.4538,-0.8613,-0.0800,0.4420,0.5068,-0.5210,0.2605,0.3300,-0.0392,
2.285782,0.4538,-0.8613,-0.0800,0.4420,0.5068,-0.5210,0.3137,0.3122,-0.0880,
2.294795,0.4538,-0.8613,-0.0800,0.4420,0.5068,-0.5210,0.3668,0.2774,-0.1345,
2.302804,0.3976,-0.8256,-0.0737,0.4420,0.5068,-0.5210,0.3668,0.2774,-0.1345,
2.304253,0.3976,-0.8256,-0.0737,-0.1334,0.8473,-0.5401,0.3668,0.2774,-0.1345,
2.305864,0.3976,-0.8256,-0.0737,-0.1334,0.8473,-0.5401,0.4273,0.2524,-0.1864,
2.314855,0.3976,-0.8256,-0.0737,-0.1334,0.8473,-0.5401,0.5055,0.2640,-0.2517,
2.322747,0.3960,-0.8102,0.0235,-0.1334,0.8473,-0.5401,0.5055,0.2640,-0.2517,
2.323856,0.3960,-0.8102,0.0235,-0.1913,0.9804,0.3093,0.5055,0.2640,-0.2517,
2.324638,0.3960,-0.8102,0.0235,-0.1913,0.9804,0.3093,0.6167,0.3055,-0.3458,
2.334756,0.3960,-0.8102,0.0235,-0.1913,0.9804,0.3093,0.7639,0.3519,-0.4613,
2.343020,0.3542,-0.8625,0.0901,-0.1913,0.9804,0.3093,0.7639,0.3519,-0.4613,
2.344031,0.3542,-0.8625,0.0901,-0.6725,0.4350,0.8131,0.7639,0.3519,-0.4613,
2.345179,0.3542,-0.8625,0.0901,-0.6725,0.4350,0.8131,0.9355,0.3776,-0.5724,
2.354739,0.3542,-0.8625,0.0901,-0.6725,0.4350,0.8131,1.2917,0.2383,-0.7026,
2.362754,0.3066,-0.9664,0.1110,-0.6725,0.4350,0.8131,1.2917,0.2383,-0.7026,
2.363818,0.3066,-0.9664,0.1110,-1.2451,-0.6372,0.7938,1.2917,0.2383,-0.7026,
2.364966,0.3066,-0.9664,0.1110,-1.2451,-0.6372,0.7938,1.4517,0.0416,-0.7300,
2.374720,0.3066,-0.9664,0.1110,-1.2451,-0.6372,0.7938,1.5855,-0.2339,-0.7600,
2.382859,0.3356,-1.1232,0.1388,-1.2451,-0.6372,0.7938,1.5855,-0.2339,-0.7600,
2.383730,0.3356,-1.1232,0.1388,-1.0725,-2.2412,0.8050,1.5855,-0.2339,-0.7600,
2.384686,0.3356,-1.1232,0.1388,-1.0725,-2.2412,0.8050,1.6814,-0.5338,-0.8088,
2.394855,0.3356,-1.1232,0.1388,-1.0725,-2.2412,0.8050,1.7382,-0.8001,-0.8773,
2.402879,0.4449,-1.2276,0.1813,-1.0725,-2.2412,0.8050,1.7382,-0.8001,-0.8773,
2.404033,0.4449,-1.2276,0.1813,-0.1268,-3.3471,0.9812,1.7382,-0.8001,-0.8773,
2.404877,0.4449,-1.2276,0.1813,-0.1268,-3.3471,0.9812,1.7468,-0.9553,-0.9591,
2.414840,0.4449,-1.2276,0.1813,-0.1268,-3.3471,0.9812,1.6912,-0.9608,-1.0385,
2.422665,0.4569,-1.1269,0.1038,-0.1268,-3.3471,0.9812,1.6912,-0.9608,-1.0385,
2.423457,0.4569,-1.1269,0.1038,-0.1637,-2.4622,0.0179,1.6912,-0.9608,-1.0385,
2.424660,0.4569,-1.1269,0.1038,-0.1637,-2.4622,0.0179,1.5690,-0.8612,-1.0825,
2.435521,0.4569,-1.1269,0.1038,-0.1637,-2.4622,0.0179,1.4157,-0.7366,-1.0703,
2.442868,0.4055,-1.0326,0.0249,-0.1637,-2.4622,0.0179,1.4157,-0.7366,-1.0703,
2.444229,0.4055,-1.0326,0.0249,-0.8205,-1.6436,-0.9157,1.4157,-0.7366,-1.0703,
2.445350,0.4055,-1.0326,0.0249,-0.8205,-1.6436,-0.9157,1.2422,-0.5802,-1.0165,
2.460549,0.4055,-1.0326,0.0249,-0.8205,-1.6436,-0.9157,0.7388,0.0117,-0.8693,
2.462687,0.3843,-0.9411,-0.0778,-0.8205,-1.6436,-0.9157,0.7388,0.0117,-0.8693,
2.463605,0.3843,-0.9411,-0.0778,-1.1819,-0.8551,-2.0571,0.7388,0.0117,-0.8693,
2.474799,0.3843,-0.9411,-0.0778,-1.1819,-0.8551,-2.0571,0.4444,0.3703,-0.7972,
2.482700,0.4356,-0.9031,-0.0718,-1.1819,-0.8551,-2.0571,0.4444,0.3703,-0.7972,
2.484010,0.4356,-0.9031,-0.0718,-0.7199,-0.5115,-2.0262,0.4444,0.3703,-0.7972,
2.484958,0.4356,-0.9031,-0.0718,-0.7199,-0.5115,-2.0262,0.1860,0.6781,-0.7245,
2.494879,0.4356,-0.9031,-0.0718,-0.7199,-0.5115,-2.0262,-0.0119,0.8913,-0.6512,
2.502718,0.5071,-0.8791,-0.0198,-0.7199,-0.5115,-2.0262,-0.0119,0.8913,-0.6512,
2.503757,0.5071,-0.8791,-0.0198,-0.0753,-0.3165,-1.5538,-0.0119,0.8913,-0.6512,
2.505070,0.5071,-0.8791,-0.0198,-0.0753,-0.3165,-1.5538,-0.1524,1.0172,-0.5865,
2.515168,0.5071,-0.8791,-0.0198,-0.0753,-0.3165,-1.5538,-0.2514,1.0886,-0.5291,
2.522620,0.5216,-0.8433,0.0285,-0.0753,-0.3165,-1.5538,-0.2514,1.0886,-0.5291,
2.523782,0.5216,-0.8433,0.0285,0.0307,0.0085,-1.1021,-0.2514,1.0886,-0.5291,
2.524657,0.5216,-0.8433,0.0285,0.0307,0.0085,-1.1021,-0.3332,1.1473,-0.4674,
2.534627,0.5216,-0.8433,0.0285,0.0307,0.0085,-1.1021,-0.4145,1.2230,-0.3880,
2.542873,0.4751,-0.8255,0.0726,0.0307,0.0085,-1.1021,-0.4145,1.2230,-0.3880,
2.544259,0.4751,-0.8255,0.0726,-0.4430,0.1693,-0.6885,-0.4145,1.2230,-0.3880,
2.545361,0.4751,-0.8255,0.0726,-0.4430,0.1693,-0.6885,-0.5916,1.5181,-0.1833,
2.554876,0.4751,-0.8255,0.0726,-0.4430,0.1693,-0.6885,-0.6747,1.6806,-0.0856,
2.563060,0.3964,-0.8188,0.1069,-0.4430,0.1693,-0.6885,-0.6747,1.6806,-0.0856,
2.564780,0.3964,-0.8188,0.1069,-1.1720,0.2561,-0.3804,-0.6747,1.6806,-0.0856,
2.566030,0.3964,-0.8188,0.1069,-1.1720,0.2561,-0.3804,-0.7450,1.8034,0.0036,
2.575109,0.3964,-0.8188,0.1069,-1.1720,0.2561,-0.3804,-0.7987,1.8687,0.0806,
2.582744,0.2885,-0.8002,0.1616,-1.1720,0.2561,-0.3804,-0.7987,1.8687,0.0806,
2.583989,0.2885,-0.8002,0.1616,-2.1448,0.4824,0.1185,-0.7987,1.8687,0.0806,
2.585177,0.2885,-0.8002,0.1616,-2.1448,0.4824,0.1185,-0.8378,1.8809,0.1447,
2.594722,0.2885,-0.8002,0.1616,-2.1448,0.4824,0.1185,-0.8623,1.8522,0.1918,
2.602932,0.2635,-0.8052,0.1711,-2.1448,0.4824,0.1185,-0.8623,1.8522,0.1918,
2.604037,0.2635,-0.8052,0.1711,-2.2772,0.4944,0.1816,-0.8623,1.8522,0.1918,
2.605098,0.2635,-0.8052,0.1711,-2.2772,0.4944,0.1816,-0.8781,1.7734,0.2284,
2.615203,0.2635,-0.8052,0.1711,-2.2772,0.4944,0.1816,-0.8989,1.6268,0.2504,
2.622744,0.2654,-0.7748,0.1887,-2.2772,0.4944,0.1816,-0.8989,1.6268,0.2504,
2.623820,0.2654,-0.7748,0.1887,-2.1351,0.8606,0.3430,-0.8989,1.6268,0.2504,
2.625125,0.2654,-0.7748,0.1887,-2.1351,0.8606,0.3430,-0.9282,1.3941,0.2534,
2.635367,0.2654,-0.7748,0.1887,-2.1351,0.8606,0.3430,-0.9588,1.1094,0.2308,
2.643491,0.3032,-0.7279,0.2282,-2.1351,0.8606,0.3430,-0.9588,1.1094,0.2308,
2.645892,0.3032,-0.7279,0.2282,-1.6606,1.3842,0.7645,-0.9588,1.1094,0.2308,
2.647465,0.3032,-0.7279,0.2282,-1.6606,1.3842,0.7645,-0.9893,0.8284,0.1997,
2.655228,0.3032,-0.7279,0.2282,-1.6606,1.3842,0.7645,-1.0107,0.5584,0.1838,
2.663515,0.3682,-0.7236,0.2608,-1.6606,1.3842,0.7645,-1.0107,0.5584,0.1838,
2.665245,0.3682,-0.7236,0.2608,-0.9522,1.4792,1.1718,-1.0107,0.5584,0.1838,
2.666753,0.3682,-0.7236,0.2608,-0.9522,1.4792,1.1718,-0.9966,0.3049,0.1808,
2.675088,0.3682,-0.7236,0.2608,-0.9522,1.4792,1.1718,-0.9374,0.0862,0.1771,
2.683165,0.4639,-0.7825,0.3302,-0.9522,1.4792,1.1718,-0.9374,0.0862,0.1771,
2.685318,0.4639,-0.7825,0.3302,0.0344,0.9445,1.9614,-0.9374,0.0862,0.1771,
2.687389,0.4639,-0.7825,0.3302,0.0344,0.9445,1.9614,-0.8134,-0.0836,0.1490,
2.695567,0.4639,-0.7825,0.3302,0.0344,0.9445,1.9614,-0.6142,-0.1795,0.0928,
2.703693,0.5013,-0.8747,0.4226,0.0344,0.9445,1.9614,-0.6142,-0.1795,0.0928,
2.706532,0.5013,-0.8747,0.4226,0.4259,0.0631,2.9317,-0.6142,-0.1795,0.0928,
2.708698,0.5013,-0.8747,0.4226,0.4259,0.0631,2.9317,-0.3271,-0.2082,0.0109,
2.716983,0.5013,-0.8747,0.4226,0.4259,0.0631,2.9317,0.0143,-0.2119,-0.0752,
2.723346,0.3630,-0.8018,0.2471,0.4259,0.0631,2.9317,0.0143,-0.2119,-0.0752,
2.725279,0.3630,-0.8018,0.2471,-0.9283,0.7752,1.1901,0.0143,-0.2119,-0.0752,
2.727031,0.3630,-0.8018,0.2471,-0.9283,0.7752,1.1901,0.3949,-0.3725,-0.1320,
2.735359,0.3630,-0.8018,0.2471,-0.9283,0.7752,1.1901,0.2587,-0.6047,-0.0312,
2.743355,0.0963,-0.6654,-0.1522,-0.9283,0.7752,1.1901,0.2587,-0.6047,-0.0312,
2.745119,0.0963,-0.6654,-0.1522,-3.5470,2.1063,-2.7504,0.2587,-0.6047,-0.0312,
2.746942,0.0963,-0.6654,-0.1522,-3.5470,2.1063,-2.7504,-0.0559,-0.8154,0.1569,
2.755277,0.0963,-0.6654,-0.1522,-3.5470,2.1063,-2.7504,-0.3980,-0.8637,0.3579,
2.763199,0.1157,-0.8793,0.0140,-3.5470,2.1063,-2.7504,-0.3980,-0.8637,0.3579,
2.764740,0.1157,-0.8793,0.0140,-3.2799,0.0645,-1.0144,-0.3980,-0.8637,0.3579,
2.766241,0.1157,-0.8793,0.0140,-3.2799,0.0645,-1.0144,-0.6607,-0.7158,0.5161,
2.775262,0.1157,-0.8793,0.0140,-3.2799,0.0645,-1.0144,-0.7590,-0.4831,0.5998,
2.783324,0.5967,-1.1518,0.0320,-3.2799,0.0645,-1.0144,-0.7590,-0.4831,0.5998,
2.784874,0.5967,-1.1518,0.0320,1.5343,-2.5347,-0.6622,-0.7590,-0.4831,0.5998,
2.786427,0.5967,-1.1518,0.0320,1.5343,-2.5347,-0.6622,-0.6533,-0.3157,0.4960,
2.794945,0.5967,-1.1518,0.0320,1.5343,-2.5347,-0.6622,-0.5550,-0.2650,0.2119,
2.803006,0.5816,-1.0724,-0.3281,1.5343,-2.5347,-0.6622,-0.5550,-0.2650,0.2119,
2.804285,0.5816,-1.0724,-0.3281,1.4505,-1.7086,-4.0310,-0.5550,-0.2650,0.2119,
2.805613,0.5816,-1.0724,-0.3281,1.4505,-1.7086,-4.0310,-0.6399,-0.2235,-0.0831,
2.817052,0.5816,-1.0724,-0.3281,1.4505,-1.7086,-4.0310,-0.7725,-0.0964,-0.2829,
2.822880,0.5083,-0.7492,0.1814,1.4505,-1.7086,-4.0310,-0.7725,-0.0964,-0.2829,
2.824232,0.5083,-0.7492,0.1814,0.6969,1.4537,1.1037,-0.7725,-0.0964,-0.2829,
2.825541,0.5083,-0.7492,0.1814,0.6969,1.4537,1.1037,-0.7199,0.0783,-0.4014,
2.834932,0.5083,-0.7492,0.1814,0.6969,1.4537,1.1037,-0.3247,0.2395,-0.4185,
2.842982,0.2734,-0.8674,0.1981,0.6969,1.4537,1.1037,-0.3247,0.2395,-0.4185,
2.844543,0.2734,-0.8674,0.1981,-1.6702,0.2684,1.3430,-0.3247,0.2395,-0.4185,
2.845984,0.2734,-0.8674,0.1981,-1.6702,0.2684,1.3430,0.2703,0.3452,-0.2163,
2.854967,0.2734,-0.8674,0.1981,-1.6702,0.2684,1.3430,0.5409,0.3031,0.0800,
2.863047,0.3928,-1.0990,-0.4156,-1.6702,0.2684,1.3430,0.5409,0.3031,0.0800,
2.865668,0.3928,-1.0990,-0.4156,-0.4893,-2.0004,-4.7290,0.5409,0.3031,0.0800,
2.866848,0.3928,-1.0990,-0.4156,-0.4893,-2.0004,-4.7290,0.3149,0.0196,0.2418,
2.875074,0.3928,-1.0990,-0.4156,-0.4893,-2.0004,-4.7290,-0.1372,-0.3597,0.2663,
2.883644,0.4183,-1.1611,-0.2442,-0.4893,-2.0004,-4.7290,-0.1372,-0.3597,0.2663,
2.886122,0.4183,-1.1611,-0.2442,-0.1736,-2.5713,-2.9853,-0.1372,-0.3597,0.2663,
2.887687,0.4183,-1.1611,-0.2442,-0.1736,-2.5713,-2.9853,-0.5214,-0.6254,0.2272,
2.895089,0.4183,-1.1611,-0.2442,-0.1736,-2.5713,-2.9853,-0.7236,-0.6804,0.1856,
2.903238,0.4195,-1.0250,-0.1153,-0.1736,-2.5713,-2.9853,-0.7236,-0.6804,0.1856,
2.905097,0.4195,-1.0250,-0.1153,-0.1117,-1.2018,-1.5049,-0.7236,-0.6804,0.1856,
2.906570,0.4195,-1.0250,-0.1153,-0.1117,-1.2018,-1.5049,-0.7602,-0.2571,0.2119,
2.916950,0.4195,-1.0250,-0.1153,-0.1117,-1.2018,-1.5049,-0.6564,0.0288,0.2308,
2.923420,0.4576,-0.8815,-0.1314,-0.1117,-1.2018,-1.5049,-0.6564,0.0288,0.2308,
2.925346,0.4576,-0.8815,-0.1314,0.3096,0.2332,-1.4855,-0.6564,0.0288,0.2308,
2.927202,0.4576,-0.8815,-0.1314,0.3096,0.2332,-1.4855,-0.5916,0.2347,0.2321,
2.935733,0.4576,-0.8815,-0.1314,0.3096,0.2332,-1.4855,-0.5263,0.3000,0.2247,
2.943561,0.5143,-0.9019,-0.1512,0.3096,0.2332,-1.4855,-0.5263,0.3000,0.2247,
2.946062,0.5143,-0.9019,-0.1512,0.9057,0.0541,-1.5625,-0.5263,0.3000,0.2247,
2.947653,0.5143,-0.9019,-0.1512,0.9057,0.0541,-1.5625,-0.4676,0.2084,0.2199,
2.955511,0.5143,-0.9019,-0.1512,0.9057,0.0541,-1.5625,-0.4444,0.0202,0.2260,
2.963577,0.5074,-0.9686,-0.1834,0.9057,0.0541,-1.5625,-0.4444,0.0202,0.2260,
2.966130,0.5074,-0.9686,-0.1834,0.8731,-0.5832,-1.7640,-0.4444,0.0202,0.2260,
2.967901,0.5074,-0.9686,-0.1834,0.8731,-0.5832,-1.7640,-0.4695,-0.2064,0.2418,
2.975439,0.5074,-0.9686,-0.1834,0.8731,-0.5832,-1.7640,-0.5086,-0.4568,0.2589,
2.984123,0.4766,-0.9886,-0.1579,0.8731,-0.5832,-1.7640,-0.5086,-0.4568,0.2589,
2.986158,0.4766,-0.9886,-0.1579,0.6108,-0.7634,-1.3665,-0.5086,-0.4568,0.2589,
2.988183,0.4766,-0.9886,-0.1579,0.6108,-0.7634,-1.3665,-0.5391,-0.6658,0.2534,
2.995983,0.4766,-0.9886,-0.1579,0.6108,-0.7634,-1.3665,-0.5568,-0.7598,0.2425,
3.003762,0.4146,-1.0074,-0.1327,0.6108,-0.7634,-1.3665,-0.5568,-0.7598,0.2425,
3.006056,0.4146,-1.0074,-0.1327,0.0487,-0.9324,-0.9399,-0.5568,-0.7598,0.2425,
3.008048,0.4146,-1.0074,-0.1327,0.0487,-0.9324,-0.9399,-0.5507,-0.7501,0.2492,
3.021117,0.4146,-1.0074,-0.1327,0.0487,-0.9324,-0.9399,-0.5324,-0.6810,0.2699,
3.024882,0.3988,-1.0094,-0.1076,0.0487,-0.9324,-0.9399,-0.5324,-0.6810,0.2699,
3.026586,0.3988,-1.0094,-0.1076,-0.0529,-0.9362,-0.5276,-0.5324,-0.6810,0.2699,
3.028349,0.3988,-1.0094,-0.1076,-0.0529,-0.9362,-0.5276,-0.5080,-0.5961,0.2938,
3.035296,0.3988,-1.0094,-0.1076,-0.0529,-0.9362,-0.5276,-0.4713,-0.5381,0.3041,
3.043270,0.4010,-0.9653,-0.0684,-0.0529,-0.9362,-0.5276,-0.4713,-0.5381,0.3041,
3.045381,0.4010,-0.9653,-0.0684,0.0287,-0.4868,-0.0066,-0.4713,-0.5381,0.3041,
3.046749,0.4010,-0.9653,-0.0684,0.0287,-0.4868,-0.0066,-0.4230,-0.5375,0.2999,
3.054873,0.4010,-0.9653,-0.0684,0.0287,-0.4868,-0.0066,-0.3736,-0.5656,0.2858,
3.062811,0.4014,-0.9118,-0.0349,0.0287,-0.4868,-0.0066,-0.3736,-0.5656,0.2858,
3.064147,0.4014,-0.9118,-0.0349,0.0924,0.0542,0.4362,-0.3736,-0.5656,0.2858,
3.065337,0.4014,-0.9118,-0.0349,0.0924,0.0542,0.4362,-0.3277,-0.6053,0.2748,
3.074700,0.4014,-0.9118,-0.0349,0.0924,0.0542,0.4362,-0.2838,-0.6419,0.2669,
3.082975,0.4093,-0.8623,-0.0250,0.0924,0.0542,0.4362,-0.2838,-0.6419,0.2669,
3.083945,0.4093,-0.8623,-0.0250,0.2272,0.5539,0.6340,-0.2838,-0.6419,0.2669,
3.085289,0.4093,-0.8623,-0.0250,0.2272,0.5539,0.6340,-0.2514,-0.6560,0.2486,
3.094750,0.4093,-0.8623,-0.0250,0.2272,0.5539,0.6340,-0.2111,-0.6829,0.1942,
3.102762,0.3976,-0.8214,-0.0028,0.2272,0.5539,0.6340,-0.2111,-0.6829,0.1942,
3.103661,0.3976,-0.8214,-0.0028,0.1594,0.9659,0.9373,-0.2111,-0.6829,0.1942,
3.104908,0.3976,-0.8214,-0.0028,0.1594,0.9659,0.9373,-0.1732,-0.6969,0.1679,
3.115768,0.3976,-0.8214,-0.0028,0.1594,0.9659,0.9373,-0.1109,-0.6548,0.1435,
3.122734,0.4189,-0.8189,-0.0110,0.1594,0.9659,0.9373,-0.1109,-0.6548,0.1435,
3.123877,0.4189,-0.8189,-0.0110,0.3994,0.9959,0.9203,-0.1109,-0.6548,0.1435,
3.125209,0.4189,-0.8189,-0.0110,0.3994,0.9959,0.9203,-0.0351,-0.5790,0.1246,
3.134910,0.4189,-0.8189,-0.0110,0.3994,0.9959,0.9203,0.0437,-0.5631,0.1026,
3.142807,0.5264,-0.8585,-0.0072,0.3994,0.9959,0.9203,0.0437,-0.5631,0.1026,
3.143948,0.5264,-0.8585,-0.0072,1.4636,0.6100,0.9788,0.0437,-0.5631,0.1026,
3.145206,0.5264,-0.8585,-0.0072,1.4636,0.6100,0.9788,0.1133,-0.6407,0.0641,
3.154675,0.5264,-0.8585,-0.0072,1.4636,0.6100,0.9788,0.1768,-0.6743,0.0103,
3.162906,0.4776,-0.8606,-0.0032,1.4636,0.6100,0.9788,0.1768,-0.6743,0.0103,
3.164209,0.4776,-0.8606,-0.0032,0.9800,0.5875,1.0160,0.1768,-0.6743,0.0103,
3.167136,0.4776,-0.8606,-0.0032,0.9800,0.5875,1.0160,0.2495,-0.5491,-0.0398,
3.174736,0.4776,-0.8606,-0.0032,0.9800,0.5875,1.0160,0.3528,-0.3493,-0.0734,
3.183301,0.3878,-0.8342,0.0255,0.9800,0.5875,1.0160,0.3528,-0.3493,-0.0734,
3.184727,0.3878,-0.8342,0.0255,0.0776,0.8420,1.2512,0.3528,-0.3493,-0.0734,
3.185956,0.3878,-0.8342,0.0255,0.0776,0.8420,1.2512,0.4853,-0.2650,-0.0941,
3.194810,0.3878,-0.8342,0.0255,0.0776,0.8420,1.2512,0.6209,-0.3854,-0.1064,
3.203090,0.3677,-0.8156,0.0443,0.0776,0.8420,1.2512,0.6209,-0.3854,-0.1064,
3.204237,0.3677,-0.8156,0.0443,-0.1493,1.0226,1.3328,0.6209,-0.3854,-0.1064,
3.205410,0.3677,-0.8156,0.0443,-0.1493,1.0226,1.3328,0.7486,-0.5888,-0.0996,
3.216765,0.3677,-0.8156,0.0443,-0.1493,1.0226,1.3328,0.8561,-0.7403,-0.0734,
3.223465,0.4540,-0.8109,0.0065,-0.1493,1.0226,1.3328,0.8561,-0.7403,-0.0734,
3.224643,0.4540,-0.8109,0.0065,0.6725,1.0701,0.8430,0.8561,-0.7403,-0.0734,
3.226107,0.4540,-0.8109,0.0065,0.6725,1.0701,0.8430,0.9374,-0.8350,-0.0404,
3.234723,0.4540,-0.8109,0.0065,0.6725,1.0701,0.8430,0.9716,-0.7806,-0.0037,
3.242748,0.5187,-0.7856,-0.0853,0.6725,1.0701,0.8430,0.9716,-0.7806,-0.0037,
3.243858,0.5187,-0.7856,-0.0853,1.2861,1.3195,-0.1801,0.9716,-0.7806,-0.0037,
3.244872,0.5187,-0.7856,-0.0853,1.2861,1.3195,-0.1801,0.9483,-0.5674,0.0256,
3.254895,0.5187,-0.7856,-0.0853,1.2861,1.3195,-0.1801,0.8836,-0.3127,0.0366,
3.262937,0.5734,-0.7288,-0.0930,1.2861,1.3195,-0.1801,0.8836,-0.3127,0.0366,
3.264170,0.5734,-0.7288,-0.0930,1.7861,1.8696,-0.3909,0.8836,-0.3127,0.0366,
3.267182,0.5734,-0.7288,-0.0930,1.7861,1.8696,-0.3909,0.6930,-0.0207,0.0122,
3.282948,0.6150,-0.7091,-0.0175,1.7861,1.8696,-0.3909,0.6930,-0.0207,0.0122,
3.284747,0.6150,-0.7091,-0.0175,2.1271,2.0376,0.2709,0.6930,-0.0207,0.0122,
3.285995,0.6150,-0.7091,-0.0175,2.1271,2.0376,0.2709,0.5525,-0.0311,-0.0398,
3.294929,0.6150,-0.7091,-0.0175,2.1271,2.0376,0.2709,0.5812,-0.0805,-0.1021,
3.302660,0.6959,-0.7672,0.1732,2.1271,2.0376,0.2709,0.5812,-0.0805,-0.1021,
3.303694,0.6959,-0.7672,0.1732,2.8239,1.4321,1.9824,0.5812,-0.0805,-0.1021,
3.304924,0.6959,-0.7672,0.1732,2.8239,1.4321,1.9824,0.7498,-0.1587,-0.2212,
3.316557,0.6959,-0.7672,0.1732,2.8239,1.4321,1.9824,1.0772,-0.2143,-0.3855,
3.322787,0.6012,-0.9504,0.3458,2.8239,1.4321,1.9824,1.0772,-0.2143,-0.3855,
3.323896,0.6012,-0.9504,0.3458,1.7759,-0.4129,3.4766,1.0772,-0.2143,-0.3855,
3.325356,0.6012,-0.9504,0.3458,1.7759,-0.4129,3.4766,1.4486,-0.1868,-0.5645,
3.334800,0.6012,-0.9504,0.3458,1.7759,-0.4129,3.4766,1.7626,-0.1642,-0.7319,
3.342776,0.4510,-1.1033,0.2803,1.7759,-0.4129,3.4766,1.7626,-0.1642,-0.7319,
3.343806,0.4510,-1.1033,0.2803,0.1567,-1.9836,2.5167,1.7626,-0.1642,-0.7319,
3.345146,0.4510,-1.1033,0.2803,0.1567,-1.9836,2.5167,2.0070,-0.2632,-0.8650,
3.354953,0.4510,-1.1033,0.2803,0.1567,-1.9836,2.5167,2.1237,-0.3970,-0.9475,
3.362709,0.3301,-1.1424,-0.0316,0.1567,-1.9836,2.5167,2.1237,-0.3970,-0.9475,
3.364198,0.3301,-1.1424,-0.0316,-1.1899,-2.4620,-0.8798,2.1237,-0.3970,-0.9475,
3.366286,0.3301,-1.1424,-0.0316,-1.1899,-2.4620,-0.8798,2.0296,-0.4025,-0.9933,
3.374819,0.3301,-1.1424,-0.0316,-1.1899,-2.4620,-0.8798,1.7529,-0.2717,-1.0220,
3.384853,0.2426,-1.1649,-0.1826,-1.1899,-2.4620,-0.8798,1.7529,-0.2717,-1.0220,
3.386313,0.2426,-1.1649,-0.1826,-2.2019,-2.7855,-2.6390,1.7529,-0.2717,-1.0220,
3.387463,0.2426,-1.1649,-0.1826,-2.2019,-2.7855,-2.6390,1.4053,-0.0940,-1.0226,
3.394873,0.2426,-1.1649,-0.1826,-2.2019,-2.7855,-2.6390,1.0772,0.0966,-0.9976,
3.402634,0.2024,-1.2326,-0.1550,-2.2019,-2.7855,-2.6390,1.0772,0.0966,-0.9976,
3.403886,0.2024,-1.2326,-0.1550,-2.7070,-3.5276,-2.5319,1.0772,0.0966,-0.9976,
3.405250,0.2024,-1.2326,-0.1550,-2.7070,-3.5276,-2.5319,0.8305,0.1974,-0.9390,
3.416805,0.2024,-1.2326,-0.1550,-2.7070,-3.5276,-2.5319,0.6820,0.1522,-0.8455,
3.422824,0.2519,-1.3602,-0.1011,-2.7070,-3.5276,-2.5319,0.6820,0.1522,-0.8455,
3.424367,0.2519,-1.3602,-0.1011,-2.2910,-4.8261,-2.0896,0.6820,0.1522,-0.8455,
3.425776,0.2519,-1.3602,-0.1011,-2.2910,-4.8261,-2.0896,0.5788,0.0771,-0.7343,
3.435311,0.2519,-1.3602,-0.1011,-2.2910,-4.8261,-2.0896,0.5146,0.0813,-0.6586,
3.442901,0.3378,-1.2925,0.0431,-2.2910,-4.8261,-2.0896,0.5146,0.0813,-0.6586,
3.443962,0.3378,-1.2925,0.0431,-1.4827,-4.1878,-0.7231,0.5146,0.0813,-0.6586,
3.445004,0.3378,-1.2925,0.0431,-1.4827,-4.1878,-0.7231,0.4829,0.1620,-0.6280,
3.454768,0.3378,-1.2925,0.0431,-1.4827,-4.1878,-0.7231,0.4389,0.2389,-0.5584,
3.462707,0.3191,-1.0708,0.0464,-1.4827,-4.1878,-0.7231,0.4389,0.2389,-0.5584,
3.464095,0.3191,-1.0708,0.0464,-1.6791,-2.0292,-0.7389,0.4389,0.2389,-0.5584,
3.465414,0.3191,-1.0708,0.0464,-1.6791,-2.0292,-0.7389,0.1799,0.3550,-0.3312,
3.474719,0.3191,-1.0708,0.0464,-1.6791,-2.0292,-0.7389,0.0046,0.4888,-0.2841,
3.483015,0.3710,-0.9146,0.0630,-1.6791,-2.0292,-0.7389,0.0046,0.4888,-0.2841,
3.484691,0.3710,-0.9146,0.0630,-1.1397,-0.4827,-0.5889,0.0046,0.4888,-0.2841,
3.485724,0.3710,-0.9146,0.0630,-1.1397,-0.4827,-0.5889,-0.1756,0.6397,-0.2872,
3.494841,0.3710,-0.9146,0.0630,-1.1397,-0.4827,-0.5889,-0.3436,0.7857,-0.3128,
3.502578,0.3367,-0.8806,0.0722,-1.1397,-0.4827,-0.5889,-0.3436,0.7857,-0.3128,
3.504104,0.3367,-0.8806,0.0722,-1.4435,-0.1298,-0.4864,-0.3436,0.7857,-0.3128,
3.505258,0.3367,-0.8806,0.0722,-1.4435,-0.1298,-0.4864,-0.4725,0.8736,-0.3342,
3.516288,0.3367,-0.8806,0.0722,-1.4435,-0.1298,-0.4864,-0.5568,0.8981,-0.3257,
3.522754,0.3093,-0.8917,0.0644,-1.4435,-0.1298,-0.4864,-0.5568,0.8981,-0.3257,
3.523567,0.3093,-0.8917,0.0644,-1.6827,-0.2178,-0.5282,-0.5568,0.8981,-0.3257,
3.524711,0.3093,-0.8917,0.0644,-1.6827,-0.2178,-0.5282,-0.6136,0.9036,-0.3000,
3.534771,0.3093,-0.8917,0.0644,-1.6827,-0.2178,-0.5282,-0.6527,0.9231,-0.2713,
3.542660,0.2943,-0.8777,0.0912,-1.6827,-0.2178,-0.5282,-0.6527,0.9231,-0.2713,
3.543595,0.2943,-0.8777,0.0912,-1.7950,-0.0549,-0.2195,-0.6527,0.9231,-0.2713,
3.544747,0.2943,-0.8777,0.0912,-1.7950,-0.0549,-0.2195,-0.6698,0.9420,-0.2462,
3.554616,0.2943,-0.8777,0.0912,-1.7950,-0.0549,-0.2195,-0.6747,0.9359,-0.2249,
3.562740,0.2437,-0.8139,0.1170,-1.7950,-0.0549,-0.2195,-0.6747,0.9359,-0.2249,
3.563901,0.2437,-0.8139,0.1170,-2.2462,0.5994,0.0738,-0.6747,0.9359,-0.2249,
3.565832,0.2437,-0.8139,0.1170,-2.2462,0.5994,0.0738,-0.6845,0.8865,-0.1968,
3.574723,0.2437,-0.8139,0.1170,-2.2462,0.5994,0.0738,-0.7108,0.8168,-0.1583,
3.583623,0.1975,-0.7051,0.1164,-2.2462,0.5994,0.0738,-0.7108,0.8168,-0.1583,
3.584988,0.1975,-0.7051,0.1164,-2.6456,1.6999,0.1129,-0.7108,0.8168,-0.1583,
3.586629,0.1975,-0.7051,0.1164,-2.6456,1.6999,0.1129,-0.7615,0.7460,-0.1198,
3.596039,0.1975,-0.7051,0.1164,-2.6456,1.6999,0.1129,-0.8171,0.7130,-0.0837,
3.602659,0.1877,-0.6793,0.1702,-2.6456,1.6999,0.1129,-0.8171,0.7130,-0.0837,
3.604048,0.1877,-0.6793,0.1702,-2.6783,1.9926,0.6988,-0.8171,0.7130,-0.0837,
3.605222,0.1877,-0.6793,0.1702,-2.6783,1.9926,0.6988,-0.8409,0.7612,-0.0367,
3.615224,0.1877,-0.6793,0.1702,-2.6783,1.9926,0.6988,-0.8128,0.8461,0.0189,
3.622657,0.2494,-0.7153,0.1575,-2.6783,1.9926,0.6988,-0.8128,0.8461,0.0189,
3.623747,0.2494,-0.7153,0.1575,-2.0002,1.6826,0.6205,-0.8128,0.8461,0.0189,
3.624860,0.2494,-0.7153,0.1575,-2.0002,1.6826,0.6205,-0.7450,0.8626,0.0665,
3.635494,0.2494,-0.7153,0.1575,-2.0002,1.6826,0.6205,-0.6546,0.7722,0.0958,
3.648305,0.3483,-0.7305,0.0971,-2.0002,1.6826,0.6205,-0.6546,0.7722,0.0958,
3.649663,0.3483,-0.7305,0.0971,-0.9679,1.5699,0.0628,-0.6546,0.7722,0.0958,
3.650912,0.3483,-0.7305,0.0971,-0.9679,1.5699,0.0628,-0.4829,0.4356,0.0861,
3.654732,0.3483,-0.7305,0.0971,-0.9679,1.5699,0.0628,-0.3662,0.2566,0.0305,
3.662701,0.4517,-0.7443,0.2187,-0.9679,1.5699,0.0628,-0.3662,0.2566,0.0305,
3.663738,0.4517,-0.7443,0.2187,0.0767,1.4523,1.2767,-0.3662,0.2566,0.0305,
3.665327,0.4517,-0.7443,0.2187,0.0767,1.4523,1.2767,-0.1714,0.1082,-0.0428,
3.674689,0.4517,-0.7443,0.2187,0.0767,1.4523,1.2767,0.0760,0.0160,-0.0941,
3.685322,0.3461,-0.7831,0.3458,0.0767,1.4523,1.2767,0.0760,0.0160,-0.0941,
3.686518,0.3461,-0.7831,0.3458,-0.9498,1.0711,2.4743,0.0760,0.0160,-0.0941,
3.687381,0.3461,-0.7831,0.3458,-0.9498,1.0711,2.4743,0.2984,-0.0005,-0.1308,
3.694759,0.3461,-0.7831,0.3458,-0.9498,1.0711,2.4743,0.4529,0.0141,-0.1772,
3.702993,0.2581,-0.7853,0.2322,-0.9498,1.0711,2.4743,0.4529,0.0141,-0.1772,
3.704506,0.2581,-0.7853,0.2322,-1.8089,1.0377,1.2418,0.4529,0.0141,-0.1772,
3.705499,0.2581,-0.7853,0.2322,-1.8089,1.0377,1.2418,0.5605,-0.0867,-0.2145,
3.715002,0.2581,-0.7853,0.2322,-1.8089,1.0377,1.2418,0.6594,-0.3829,-0.2389,
3.722756,0.2366,-0.8269,0.1443,-1.8089,1.0377,1.2418,0.6594,-0.3829,-0.2389,
3.724073,0.2366,-0.8269,0.1443,-2.0270,0.6113,0.2553,0.6594,-0.3829,-0.2389,
3.725553,0.2366,-0.8269,0.1443,-2.0270,0.6113,0.2553,0.7975,-0.8124,-0.2707,
3.735328,0.2366,-0.8269,0.1443,-2.0270,0.6113,0.2553,0.9856,-1.2241,-0.2939,
3.742627,0.2505,-0.8945,0.0104,-2.0270,0.6113,0.2553,0.9856,-1.2241,-0.2939,
3.743675,0.2505,-0.8945,0.0104,-1.9219,-0.0784,-1.1353,0.9856,-1.2241,-0.2939,
3.744852,0.2505,-0.8945,0.0104,-1.9219,-0.0784,-1.1353,1.1768,-1.5045,-0.2988,
3.755213,0.2505,-0.8945,0.0104,-1.9219,-0.0784,-1.1353,1.2739,-1.6315,-0.2951,
3.762750,0.3690,-1.0098,-0.2051,-1.9219,-0.0784,-1.1353,1.2739,-1.6315,-0.2951,
3.763690,0.3690,-1.0098,-0.2051,-0.8067,-1.2380,-3.2897,1.2739,-1.6315,-0.2951,
3.764835,0.3690,-1.0098,-0.2051,-0.8067,-1.2380,-3.2897,1.1915,-1.6260,-0.3006,
3.774691,0.3690,-1.0098,-0.2051,-0.8067,-1.2380,-3.2897,0.9093,-1.5228,-0.3055,
3.783013,0.4435,-1.1954,-0.5002,-0.8067,-1.2380,-3.2897,0.9093,-1.5228,-0.3055,
3.784338,0.4435,-1.1954,-0.5002,-0.1266,-3.0749,-6.1317,0.9093,-1.5228,-0.3055,
3.785362,0.4435,-1.1954,-0.5002,-0.1266,-3.0749,-6.1317,0.4193,-1.2455,-0.2621,
3.794811,0.4435,-1.1954,-0.5002,-0.1266,-3.0749,-6.1317,-0.1653,-0.6603,-0.1742,
3.802702,0.5768,-1.0892,-0.0961,-0.1266,-3.0749,-6.1317,-0.1653,-0.6603,-0.1742,
3.803970,0.5768,-1.0892,-0.0961,1.1477,-2.0314,-2.0248,-0.1653,-0.6603,-0.1742,
3.805169,0.5768,-1.0892,-0.0961,1.1477,-2.0314,-2.0248,-0.5208,-0.0372,-0.1204,
3.814914,0.5768,-1.0892,-0.0961,1.1477,-2.0314,-2.0248,-0.4096,0.3471,-0.1552,
3.822866,0.5392,-0.8436,0.0965,1.1477,-2.0314,-2.0248,-0.4096,0.3471,-0.1552,
3.824072,0.5392,-0.8436,0.0965,0.7710,0.3858,-0.0185,-0.4096,0.3471,-0.1552,
3.824968,0.5392,-0.8436,0.0965,0.7710,0.3858,-0.0185,-0.0125,0.4998,-0.2157,
3.834867,0.5392,-0.8436,0.0965,0.7710,0.3858,-0.0185,0.4639,0.3245,-0.1033,
3.842666,0.4547,-0.8625,-0.1135,0.7710,0.3858,-0.0185,0.4639,0.3245,-0.1033,
3.843511,0.4547,-0.8625,-0.1135,-0.0677,0.1937,-2.0869,0.4639,0.3245,-0.1033,
3.844722,0.4547,-0.8625,-0.1135,-0.0677,0.1937,-2.0869,0.4554,0.1424,-0.0098,
3.854720,0.4547,-0.8625,-0.1135,-0.0677,0.1937,-2.0869,0.3057,-0.0751,0.0354,
3.862753,0.4445,-1.0640,-0.2620,-0.0677,0.1937,-2.0869,0.3057,-0.0751,0.0354,
3.863666,0.4445,-1.0640,-0.2620,-0.1509,-1.7702,-3.5265,0.3057,-0.0751,0.0354,
3.865608,0.4445,-1.0640,-0.2620,-0.1509,-1.7702,-3.5265,0.1408,-0.3780,0.0299,
3.874775,0.4445,-1.0640,-0.2620,-0.1509,-1.7702,-3.5265,0.0174,-0.6810,0.0164,
3.883555,0.3418,-1.1649,-0.2017,-0.1509,-1.7702,-3.5265,0.0174,-0.6810,0.0164,
3.885150,0.3418,-1.1649,-0.2017,-1.1352,-2.7348,-2.8145,0.0174,-0.6810,0.0164,
3.886381,0.3418,-1.1649,-0.2017,-1.1352,-2.7348,-2.8145,-0.0926,-0.8765,0.0323,
3.894875,0.3418,-1.1649,-0.2017,-1.1352,-2.7348,-2.8145,-0.1726,-0.9077,0.0445,
3.902782,0.4071,-1.0487,-0.0203,-1.1352,-2.7348,-2.8145,-0.1726,-0.9077,0.0445,
3.904065,0.4071,-1.0487,-0.0203,-0.4717,-1.5697,-0.8660,-0.1726,-0.9077,0.0445,
3.905066,0.4071,-1.0487,-0.0203,-0.4717,-1.5697,-0.8660,-0.1653,-0.7598,0.0232,
3.915159,0.4071,-1.0487,-0.0203,-0.4717,-1.5697,-0.8660,-0.0816,-0.5167,0.0079,
3.922705,0.4273,-0.9389,-0.0545,-0.4717,-1.5697,-0.8660,-0.0816,-0.5167,0.0079,
3.923975,0.4273,-0.9389,-0.0545,-0.2544,-0.4743,-1.0683,-0.0816,-0.5167,0.0079,
3.925007,0.4273,-0.9389,-0.0545,-0.2544,-0.4743,-1.0683,-0.0101,-0.2968,0.0286,
3.934889,0.4273,-0.9389,-0.0545,-0.2544,-0.4743,-1.0683,0.0113,-0.1563,0.0842,
3.942817,0.4401,-0.9160,-0.1038,-0.2544,-0.4743,-1.0683,0.0113,-0.1563,0.0842,
3.943856,0.4401,-0.9160,-0.1038,-0.1030,-0.2334,-1.4816,0.0113,-0.1563,0.0842,
3.945174,0.4401,-0.9160,-0.1038,-0.1030,-0.2334,-1.4816,-0.0046,-0.1074,0.1594,
3.954804,0.4401,-0.9160,-0.1038,-0.1030,-0.2334,-1.4816,-0.0443,-0.1209,0.2290,
3.962764,0.4891,-0.9339,-0.0607,-0.1030,-0.2334,-1.4816,-0.0443,-0.1209,0.2290,
3.963979,0.4891,-0.9339,-0.0607,0.4188,-0.3845,-1.0057,-0.0443,-0.1209,0.2290,
3.966066,0.4891,-0.9339,-0.0607,0.4188,-0.3845,-1.0057,-0.0858,-0.1606,0.2754,
3.974713,0.4891,-0.9339,-0.0607,0.4188,-0.3845,-1.0057,-0.0932,-0.2278,0.3090,
3.985001,0.4926,-0.9359,0.0095,0.4188,-0.3845,-1.0057,-0.0932,-0.2278,0.3090,
3.986834,0.4926,-0.9359,0.0095,0.5057,-0.3766,-0.2625,-0.0932,-0.2278,0.3090,
3.987949,0.4926,-0.9359,0.0095,0.5057,-0.3766,-0.2625,-0.0669,-0.3292,0.3463,
3.994854,0.4926,-0.9359,0.0095,0.5057,-0.3766,-0.2625,-0.0614,-0.4306,0.3842,
4.002820,0.5220,-0.8879,-0.0287,0.5057,-0.3766,-0.2625,-0.0614,-0.4306,0.3842,
4.004487,0.5220,-0.8879,-0.0287,0.8514,0.1246,-0.5765,-0.0614,-0.4306,0.3842,
4.005478,0.5220,-0.8879,-0.0287,0.8514,0.1246,-0.5765,-0.1146,-0.4581,0.4013,
4.015064,0.5220,-0.8879,-0.0287,0.8514,0.1246,-0.5765,-0.2526,-0.2510,0.3280,
4.023096,0.5396,-0.8618,0.0288,0.8514,0.1246,-0.5765,-0.2526,-0.2510,0.3280,
4.025031,0.5396,-0.8618,0.0288,1.0781,0.4089,0.0595,-0.2526,-0.2510,0.3280,
4.026113,0.5396,-0.8618,0.0288,1.0781,0.4089,0.0595,-0.2520,-0.1019,0.2736,
4.035013,0.5396,-0.8618,0.0288,1.0781,0.4089,0.0595,-0.2056,0.0288,0.2400,
4.043166,0.5149,-0.8378,0.0689,1.0781,0.4089,0.0595,-0.2056,0.0288,0.2400,
4.044404,0.5149,-0.8378,0.0689,0.8702,0.6606,0.4997,-0.2056,0.0288,0.2400,
4.045576,0.5149,-0.8378,0.0689,0.8702,0.6606,0.4997,-0.1488,0.1363,0.2247,
4.054942,0.5149,-0.8378,0.0689,0.8702,0.6606,0.4997,-0.1072,0.2298,0.2131,
4.062680,0.4884,-0.8007,0.0916,0.8702,0.6606,0.4997,-0.1072,0.2298,0.2131,
4.063675,0.4884,-0.8007,0.0916,0.6344,1.0359,0.7286,-0.1072,0.2298,0.2131,
4.064745,0.4884,-0.8007,0.0916,0.6344,1.0359,0.7286,-0.0742,0.3006,0.1918,
4.074786,0.4884,-0.8007,0.0916,0.6344,1.0359,0.7286,-0.0260,0.3409,0.1569,
4.083984,0.4688,-0.7891,0.1165,0.6344,1.0359,0.7286,-0.0260,0.3409,0.1569,
4.085923,0.4688,-0.7891,0.1165,0.4567,1.1556,0.9482,-0.0260,0.3409,0.1569,
4.086967,0.4688,-0.7891,0.1165,0.4567,1.1556,0.9482,0.0314,0.3715,0.1142,
4.094858,0.4688,-0.7891,0.1165,0.4567,1.1556,0.9482,0.0687,0.4112,0.0598,
4.102794,0.4390,-0.7588,0.0657,0.4567,1.1556,0.9482,0.0687,0.4112,0.0598,
4.104115,0.4390,-0.7588,0.0657,0.1632,1.4506,0.4015,0.0687,0.4112,0.0598,
4.105052,0.4390,-0.7588,0.0657,0.1632,1.4506,0.4015,0.0797,0.4595,-0.0172,
4.114831,0.4390,-0.7588,0.0657,0.1632,1.4506,0.4015,0.0870,0.5065,-0.1057,
4.123310,0.4187,-0.7526,0.0039,0.1632,1.4506,0.4015,0.0870,0.5065,-0.1057,
4.125777,0.4187,-0.7526,0.0039,-0.0593,1.4988,-0.2617,0.0870,0.5065,-0.1057,
4.127286,0.4187,-0.7526,0.0039,-0.0593,1.4988,-0.2617,0.0980,0.5431,-0.1870,
4.135550,0.4187,-0.7526,0.0039,-0.0593,1.4988,-0.2617,0.1017,0.5651,-0.2615,
4.144133,0.4441,-0.7135,-0.0836,-0.0593,1.4988,-0.2617,0.1017,0.5651,-0.2615,
4.146591,0.4441,-0.7135,-0.0836,0.1362,1.8544,-1.1759,0.1017,0.5651,-0.2615,
4.149044,0.4441,-0.7135,-0.0836,0.1362,1.8544,-1.1759,0.0840,0.5938,-0.3421,
4.155609,0.4441,-0.7135,-0.0836,0.1362,1.8544,-1.1759,0.0492,0.6586,-0.4356,
4.163629,0.4768,-0.7462,-0.1355,0.1362,1.8544,-1.1759,0.0492,0.6586,-0.4356,
4.166523,0.4768,-0.7462,-0.1355,0.3697,1.4902,-1.7276,0.0492,0.6586,-0.4356,
4.169467,0.4768,-0.7462,-0.1355,0.3697,1.4902,-1.7276,0.0192,0.7679,-0.5450,
4.175522,0.4768,-0.7462,-0.1355,0.3697,1.4902,-1.7276,-0.0156,0.9231,-0.6512,
4.191870,0.4303,-0.8801,-0.1743,0.3697,1.4902,-1.7276,-0.0156,0.9231,-0.6512,
4.195643,0.4303,-0.8801,-0.1743,-0.1972,0.1209,-2.1428,-0.0156,0.9231,-0.6512,
4.198786,0.4303,-0.8801,-0.1743,-0.1972,0.1209,-2.1428,-0.0565,1.0856,-0.7294,
4.202408,0.4303,-0.8801,-0.1743,-0.1972,0.1209,-2.1428,0.0540,1.1284,-0.7722,
4.204268,0.3702,-1.0341,-0.0541,-0.1972,0.1209,-2.1428,0.0540,1.1284,-0.7722,
4.205946,0.3702,-1.0341,-0.0541,-0.9050,-1.4531,-1.0299,0.0540,1.1284,-0.7722,
4.207657,0.3702,-1.0341,-0.0541,-0.9050,-1.4531,-1.0299,0.2294,1.0037,-0.7496,
4.216287,0.3702,-1.0341,-0.0541,-0.9050,-1.4531,-1.0299,0.4267,0.8547,-0.7117,
4.222905,0.3221,-1.1762,0.0043,-0.9050,-1.4531,-1.0299,0.4267,0.8547,-0.7117,
4.224321,0.3221,-1.1762,0.0043,-1.4623,-2.8971,-0.5590,0.4267,0.8547,-0.7117,
4.225653,0.3221,-1.1762,0.0043,-1.4623,-2.8971,-0.5590,0.5916,0.7288,-0.6708,
4.234781,0.3221,-1.1762,0.0043,-1.4623,-2.8971,-0.5590,0.7009,0.6751,-0.6293,
4.242903,0.2320,-1.2782,0.0960,-1.4623,-2.8971,-0.5590,0.7009,0.6751,-0.6293,
4.243943,0.2320,-1.2782,0.0960,-2.3887,-3.9310,0.1969,0.7009,0.6751,-0.6293,
4.244886,0.2320,-1.2782,0.0960,-2.3887,-3.9310,0.1969,0.7816,0.6879,-0.5786,
4.254738,0.2320,-1.2782,0.0960,-2.3887,-3.9310,0.1969,0.8689,0.7136,-0.5248,
4.262790,0.1967,-1.2180,0.2200,-2.3887,-3.9310,0.1969,0.8689,0.7136,-0.5248,
4.263899,0.1967,-1.2180,0.2200,-2.7397,-3.3620,1.2231,0.8689,0.7136,-0.5248,
4.264968,0.1967,-1.2180,0.2200,-2.7397,-3.3620,1.2231,0.9508,0.7136,-0.4814,
4.274843,0.1967,-1.2180,0.2200,-2.7397,-3.3620,1.2231,0.9752,0.6641,-0.4521,
4.286753,0.2334,-1.0387,0.2356,-2.7397,-3.3620,1.2231,0.9752,0.6641,-0.4521,
4.289272,0.2334,-1.0387,0.2356,-2.3618,-1.6219,1.1559,0.9752,0.6641,-0.4521,
4.291693,0.2334,-1.0387,0.2356,-2.3618,-1.6219,1.1559,0.9025,0.5743,-0.4271,
4.295692,0.2334,-1.0387,0.2356,-2.3618,-1.6219,1.1559,0.7565,0.4741,-0.3867,
4.303804,0.3293,-0.8177,0.2046,-2.3618,-1.6219,1.1559,0.7565,0.4741,-0.3867,
4.307199,0.3293,-0.8177,0.2046,-1.4056,0.5253,0.6648,0.7565,0.4741,-0.3867,
4.309381,0.3293,-0.8177,0.2046,-1.4056,0.5253,0.6648,0.5916,0.3446,-0.3336,
4.315510,0.3293,-0.8177,0.2046,-1.4056,0.5253,0.6648,0.4603,0.1968,-0.2976,
4.324063,0.4333,-0.6586,0.1658,-1.4056,0.5253,0.6648,0.4603,0.1968,-0.2976,
4.326439,0.4333,-0.6586,0.1658,-0.3897,2.0637,0.1702,0.4603,0.1968,-0.2976,
4.327924,0.4333,-0.6586,0.1658,-0.3897,2.0637,0.1702,0.3686,0.0648,-0.2902,
4.335898,0.4333,-0.6586,0.1658,-0.3897,2.0637,0.1702,0.2941,-0.0439,-0.2927,
4.343450,0.4906,-0.6336,0.1058,-0.3897,2.0637,0.1702,0.2941,-0.0439,-0.2927,
4.345764,0.4906,-0.6336,0.1058,0.1358,2.2799,-0.4724,0.2941,-0.0439,-0.2927,
4.347278,0.4906,-0.6336,0.1058,0.1358,2.2799,-0.4724,0.2110,-0.1380,-0.2664,
4.355405,0.4906,-0.6336,0.1058,0.1358,2.2799,-0.4724,0.1035,-0.1905,-0.1913,
4.363358,0.5624,-0.7027,0.0810,0.1358,2.2799,-0.4724,0.1035,-0.1905,-0.1913,
4.365645,0.5624,-0.7027,0.0810,0.7970,1.5772,-0.7240,0.1035,-0.1905,-0.1913,
4.368737,0.5624,-0.7027,0.0810,0.7970,1.5772,-0.7240,0.1035,-0.1929,-0.0795,
4.375531,0.5624,-0.7027,0.0810,0.7970,1.5772,-0.7240,-0.1207,-0.1618,0.0433,
4.386295,0.5432,-0.8183,0.0810,0.7970,1.5772,-0.7240,-0.1207,-0.1618,0.0433,
4.388873,0.5432,-0.8183,0.0810,0.5991,0.4432,-0.7014,-0.1207,-0.1618,0.0433,
4.391285,0.5432,-0.8183,0.0810,0.5991,0.4432,-0.7014,-0.2654,-0.2583,0.2919,
4.395554,0.5432,-0.8183,0.0810,0.5991,0.4432,-0.7014,-0.3229,-0.3499,0.4086,
4.403664,0.4218,-0.8954,0.1005,0.5991,0.4432,-0.7014,-0.3229,-0.3499,0.4086,
4.407021,0.4218,-0.8954,0.1005,-0.5400,-0.2700,-0.4279,-0.3229,-0.3499,0.4086,
4.409236,0.4218,-0.8954,0.1005,-0.5400,-0.2700,-0.4279,-0.3839,-0.4122,0.5198,
4.415450,0.4218,-0.8954,0.1005,-0.5400,-0.2700,-0.4279,-0.4475,-0.4526,0.6285,
4.423415,0.3740,-0.8484,0.1018,-0.5400,-0.2700,-0.4279,-0.4475,-0.4526,0.6285,
4.426687,0.3740,-0.8484,0.1018,-0.9207,0.2563,-0.3029,-0.4475,-0.4526,0.6285,
4.428332,0.3740,-0.8484,0.1018,-0.9207,0.2563,-0.3029,-0.5043,-0.4672,0.7250,
4.435514,0.3740,-0.8484,0.1018,-0.9207,0.2563,-0.3029,-0.5739,-0.4465,0.8203,
4.443569,0.3189,-0.7989,0.0327,-0.9207,0.2563,-0.3029,-0.5739,-0.4465,0.8203,
4.445781,0.3189,-0.7989,0.0327,-1.3362,0.8261,-0.8418,-0.5739,-0.4465,0.8203,
4.447287,0.3189,-0.7989,0.0327,-1.3362,0.8261,-0.8418,-0.6741,-0.4355,0.9205,
4.455411,0.3189,-0.7989,0.0327,-1.3362,0.8261,-0.8418,-0.8158,-0.4471,1.0262,
4.463456,0.2119,-0.7953,-0.0501,-1.3362,0.8261,-0.8418,-0.8158,-0.4471,1.0262,
4.465481,0.2119,-0.7953,-0.0501,-2.2165,0.9673,-1.4764,-0.8158,-0.4471,1.0262,
4.467256,0.2119,-0.7953,-0.0501,-2.2165,0.9673,-1.4764,-0.9911,-0.4733,1.1404,
4.475750,0.2119,-0.7953,-0.0501,-2.2165,0.9673,-1.4764,-1.1823,-0.5124,1.2595,
4.486312,0.1027,-0.8606,-0.0765,-2.2165,0.9673,-1.4764,-1.1823,-0.5124,1.2595,
4.489062,0.1027,-0.8606,-0.0765,-3.0569,0.4612,-1.4847,-1.1823,-0.5124,1.2595,
4.491689,0.1027,-0.8606,-0.0765,-3.0569,0.4612,-1.4847,-1.3571,-0.5564,1.3799,
4.495694,0.1027,-0.8606,-0.0765,-3.0569,0.4612,-1.4847,-1.4902,-0.5986,1.4996,
4.507051,0.0423,-0.9903,-0.0481,-3.0569,0.4612,-1.4847,-1.4902,-0.5986,1.4996,
4.509699,0.0423,-0.9903,-0.0481,-3.3442,-0.6566,-0.8886,-1.4902,-0.5986,1.4996,
4.511853,0.0423,-0.9903,-0.0481,-3.3442,-0.6566,-0.8886,-1.5757,-0.6022,1.6065,
4.515649,0.0423,-0.9903,-0.0481,-3.3442,-0.6566,-0.8886,-1.6356,-0.5033,1.6914,
4.523420,0.0815,-1.0807,-0.0948,-3.3442,-0.6566,-0.8886,-1.6356,-0.5033,1.6914,
4.525561,0.0815,-1.0807,-0.0948,-2.5998,-1.3920,-0.9982,-1.6356,-0.5033,1.6914,
4.526931,0.0815,-1.0807,-0.0948,-2.5998,-1.3920,-0.9982,-1.7010,-0.2968,1.7207,
4.535309,0.0815,-1.0807,-0.0948,-2.5998,-1.3920,-0.9982,-1.7993,-0.0286,1.6658,
4.543180,0.1575,-1.1071,-0.1653,-2.5998,-1.3920,-0.9982,-1.7993,-0.0286,1.6658,
4.544871,0.1575,-1.1071,-0.1653,-1.4945,-1.5292,-1.3410,-1.7993,-0.0286,1.6658,
4.546339,0.1575,-1.1071,-0.1653,-1.4945,-1.5292,-1.3410,-1.9294,0.2377,1.5247,
4.555137,0.1575,-1.1071,-0.1653,-1.4945,-1.5292,-1.3410,-2.0400,0.4399,1.3359,
4.563132,0.1192,-1.0863,-0.0287,-1.4945,-1.5292,-1.3410,-2.0400,0.4399,1.3359,
4.564557,0.1192,-1.0863,-0.0287,-1.5662,-1.2491,0.3466,-2.0400,0.4399,1.3359,
4.566138,0.1192,-1.0863,-0.0287,-1.5662,-1.2491,0.3466,-2.0608,0.5541,1.1759,
4.575218,0.1192,-1.0863,-0.0287,-1.5662,-1.2491,0.3466,-1.6191,0.4540,1.1050,
4.583431,0.0646,-1.0977,0.2284,-1.5662,-1.2491,0.3466,-1.6191,0.4540,1.1050,
4.585761,0.0646,-1.0977,0.2284,-1.8445,-1.3117,3.1407,-1.6191,0.4540,1.1050,
4.587775,0.0646,-1.0977,0.2284,-1.8445,-1.3117,3.1407,-1.1610,0.1180,1.1435,
4.595549,0.0646,-1.0977,0.2284,-1.8445,-1.3117,3.1407,-0.7242,-0.3719,1.1203,
4.603305,0.2201,-1.1109,0.1026,-1.8445,-1.3117,3.1407,-0.7242,-0.3719,1.1203,
4.605860,0.2201,-1.1109,0.1026,-0.0721,-1.3919,2.0324,-0.7242,-0.3719,1.1203,
4.607643,0.2201,-1.1109,0.1026,-0.0721,-1.3919,2.0324,-0.4890,-0.7977,1.0152,
4.615357,0.2201,-1.1109,0.1026,-0.0721,-1.3919,2.0324,-0.4805,-1.1392,0.8894,
4.623478,0.4038,-1.1007,-0.1904,-0.0721,-1.3919,2.0324,-0.4805,-1.1392,0.8894,
4.625835,0.4038,-1.1007,-0.1904,1.9304,-1.2597,-0.7307,-0.4805,-1.1392,0.8894,
4.627482,0.4038,-1.1007,-0.1904,1.9304,-1.2597,-0.7307,-0.5776,-1.4782,0.7806,
4.635809,0.4038,-1.1007,-0.1904,1.9304,-1.2597,-0.7307,-0.6998,-1.6731,0.6694,
4.643785,0.4714,-1.0190,-0.0465,1.9304,-1.2597,-0.7307,-0.6998,-1.6731,0.6694,
4.646583,0.4714,-1.0190,-0.0465,2.7444,-0.4466,0.8284,-0.6998,-1.6731,0.6694,
4.648334,0.4714,-1.0190,-0.0465,2.7444,-0.4466,0.8284,-0.7566,-1.7109,0.5625,
4.655961,0.4714,-1.0190,-0.0465,2.7444,-0.4466,0.8284,-0.6814,-1.6719,0.4960,
4.663583,0.4599,-0.9103,0.1356,2.7444,-0.4466,0.8284,-0.6814,-1.6719,0.4960,
4.665953,0.4599,-0.9103,0.1356,2.7252,0.6173,2.7497,-0.6814,-1.6719,0.4960,
4.668515,0.4599,-0.9103,0.1356,2.7252,0.6173,2.7497,-0.4658,-1.6120,0.4685,
4.675532,0.4599,-0.9103,0.1356,2.7252,0.6173,2.7497,-0.1995,-1.5283,0.4831,
4.683495,0.4047,-0.9208,-0.0327,2.7252,0.6173,2.7497,-0.1995,-1.5283,0.4831,
4.685158,0.4047,-0.9208,-0.0327,2.2499,0.5183,1.1537,-0.1995,-1.5283,0.4831,
4.686615,0.4047,-0.9208,-0.0327,2.2499,0.5183,1.1537,-0.0235,-1.4238,0.5137,
4.695212,0.4047,-0.9208,-0.0327,2.2499,0.5183,1.1537,0.0009,-1.3518,0.4575,
4.703243,0.3022,-0.9297,-0.1556,2.2499,0.5183,1.1537,0.0009,-1.3518,0.4575,
4.706102,0.3022,-0.9297,-0.1556,1.3116,0.4421,-0.0474,0.0009,-1.3518,0.4575,
4.707575,0.3022,-0.9297,-0.1556,1.3116,0.4421,-0.0474,-0.0706,-1.3444,0.3353,
4.715134,0.3022,-0.9297,-0.1556,1.3116,0.4421,-0.0474,-0.1500,-1.3799,0.2498,
4.723392,0.1926,-0.8871,-0.1438,1.3116,0.4421,-0.0474,-0.1500,-1.3799,0.2498,
4.726060,0.1926,-0.8871,-0.1438,0.2790,0.8620,0.1001,-0.1500,-1.3799,0.2498,
4.727478,0.1926,-0.8871,-0.1438,0.2790,0.8620,0.1001,-0.1860,-1.4196,0.2137,
4.735338,0.1926,-0.8871,-0.1438,0.2790,0.8620,0.1001,-0.1628,-1.4538,0.1911,
4.743354,0.2207,-0.9129,-0.0530,0.2790,0.8620,0.1001,-0.1628,-1.4538,0.1911,
4.745064,0.2207,-0.9129,-0.0530,0.5897,0.6083,1.0332,-0.1628,-1.4538,0.1911,
4.746515,0.2207,-0.9129,-0.0530,0.5897,0.6083,1.0332,-0.0791,-1.5100,0.1539,
4.755232,0.2207,-0.9129,-0.0530,0.5897,0.6083,1.0332,0.1805,-1.5985,0.0604,
4.763201,0.4439,-0.9731,0.0083,0.5897,0.6083,1.0332,0.1805,-1.5985,0.0604,
4.765062,0.4439,-0.9731,0.0083,2.7782,0.0195,1.6270,0.1805,-1.5985,0.0604,
4.767056,0.4439,-0.9731,0.0083,2.7782,0.0195,1.6270,0.2721,-1.5552,0.0286,
4.775293,0.4439,-0.9731,0.0083,2.7782,0.0195,1.6270,0.2404,-1.2852,-0.0276,
4.783312,0.6358,-0.9949,-0.1735,2.7782,0.0195,1.6270,0.2404,-1.2852,-0.0276,
4.785590,0.6358,-0.9949,-0.1735,4.6079,-0.1976,-0.1894,0.2404,-1.2852,-0.0276,
4.787271,0.6358,-0.9949,-0.1735,4.6079,-0.1976,-0.1894,0.0809,-0.7727,-0.1210,
4.795268,0.6358,-0.9949,-0.1735,4.6079,-0.1976,-0.1894,-0.1280,-0.1942,-0.2395,
4.803362,0.9142,-1.0202,-0.1489,4.6079,-0.1976,-0.1894,-0.1280,-0.1942,-0.2395,
4.806167,0.9142,-1.0202,-0.1489,7.1855,-0.4717,0.0477,-0.1280,-0.1942,-0.2395,
4.807465,0.9142,-1.0202,-0.1489,7.1855,-0.4717,0.0477,-0.2740,0.1186,-0.3599,
4.815392,0.9142,-1.0202,-0.1489,7.1855,-0.4717,0.0477,-0.2538,-0.0017,-0.4289,
4.823461,0.9059,-0.9784,0.3200,7.1855,-0.4717,0.0477,-0.2538,-0.0017,-0.4289,
4.826481,0.9059,-0.9784,0.3200,6.8751,-0.1053,4.6280,-0.2538,-0.0017,-0.4289,
4.829087,0.9059,-0.9784,0.3200,6.8751,-0.1053,4.6280,-0.0333,-0.3108,-0.3727,
4.835933,0.9059,-0.9784,0.3200,6.8751,-0.1053,4.6280,0.3100,-0.5350,-0.1772,
4.843137,0.6805,-0.9077,0.0904,6.8751,-0.1053,4.6280,0.3100,-0.5350,-0.1772,
4.845116,0.6805,-0.9077,0.0904,4.4756,0.5570,2.3021,0.3100,-0.5350,-0.1772,
4.846728,0.6805,-0.9077,0.0904,4.4756,0.5570,2.3021,0.5592,-0.5039,0.0238,
4.855324,0.6805,-0.9077,0.0904,4.4756,0.5570,2.3021,0.5763,-0.3371,0.0293,
4.863238,0.5100,-0.8850,-0.1936,4.4756,0.5570,2.3021,0.5763,-0.3371,0.0293,
4.864882,0.5100,-0.8850,-0.1936,2.6850,0.7698,-0.6111,0.5763,-0.3371,0.0293,
4.867597,0.5100,-0.8850,-0.1936,2.6850,0.7698,-0.6111,0.4163,-0.1050,0.0293,
4.875821,0.5100,-0.8850,-0.1936,2.6850,0.7698,-0.6111,0.2080,0.1840,-0.0502,
4.883775,0.4698,-0.8336,-0.2245,2.6850,0.7698,-0.6111,0.2080,0.1840,-0.0502,
4.885203,0.4698,-0.8336,-0.2245,2.1650,1.2525,-0.9933,0.2080,0.1840,-0.0502,
4.886170,0.4698,-0.8336,-0.2245,2.1650,1.2525,-0.9933,0.0571,0.4662,-0.0318,
4.894898,0.4698,-0.8336,-0.2245,2.1650,1.2525,-0.9933,0.0033,0.6598,0.0036,
4.903121,0.4760,-0.7723,-0.1637,2.1650,1.2525,-0.9933,0.0033,0.6598,0.0036,
4.904974,0.4760,-0.7723,-0.1637,2.0952,1.8234,-0.4352,0.0033,0.6598,0.0036,
4.906131,0.4760,-0.7723,-0.1637,2.0952,1.8234,-0.4352,0.0259,0.6910,0.0274,
4.914959,0.4760,-0.7723,-0.1637,2.0952,1.8234,-0.4352,0.0773,0.4986,0.0244,
4.923053,0.5061,-0.8272,-0.0923,2.0952,1.8234,-0.4352,0.0773,0.4986,0.0244,
4.924619,0.5061,-0.8272,-0.0923,2.2721,1.2572,0.2188,0.0773,0.4986,0.0244,
4.925644,0.5061,-0.8272,-0.0923,2.2721,1.2572,0.2188,0.1267,0.1186,0.0042,
4.935092,0.5061,-0.8272,-0.0923,2.2721,1.2572,0.2188,0.1628,-0.2962,-0.0208,
4.943482,0.5174,-0.8678,-0.0750,2.2721,1.2572,0.2188,0.1628,-0.2962,-0.0208,
4.945878,0.5174,-0.8678,-0.0750,2.2815,0.8334,0.3600,0.1628,-0.2962,-0.0208,
4.947831,0.5174,-0.8678,-0.0750,2.2815,0.8334,0.3600,0.2092,-0.6511,-0.0709,
4.955640,0.5174,-0.8678,-0.0750,2.2815,0.8334,0.3600,0.2367,-0.5546,-0.0673,
4.963907,0.4660,-0.8816,-0.1057,2.2815,0.8334,0.3600,0.2367,-0.5546,-0.0673,
4.966742,0.4660,-0.8816,-0.1057,1.6866,0.6720,0.0467,0.2367,-0.5546,-0.0673,
4.968839,0.4660,-0.8816,-0.1057,1.6866,0.6720,0.0467,0.2697,-0.3597,-0.0514,
4.975494,0.4660,-0.8816,-0.1057,1.6866,0.6720,0.0467,0.2935,-0.1575,-0.0318,
4.983836,0.4097,-0.9238,-0.0181,1.6866,0.6720,0.0467,0.2935,-0.1575,-0.0318,
4.986750,0.4097,-0.9238,-0.0181,1.0568,0.2389,0.8557,0.2935,-0.1575,-0.0318,
4.988529,0.4097,-0.9238,-0.0181,1.0568,0.2389,0.8557,0.3088,-0.0506,-0.0062,
4.995809,0.4097,-0.9238,-0.0181,1.0568,0.2389,0.8557,0.3320,-0.1001,0.0329,
5.004011,0.4135,-0.9047,0.0998,1.0568,0.2389,0.8557,0.3320,-0.1001,0.0329,
5.007322,0.4135,-0.9047,0.0998,1.0318,0.4157,1.9279,0.3320,-0.1001,0.0329,
5.009574,0.4135,-0.9047,0.0998,1.0318,0.4157,1.9279,0.3760,-0.2369,0.0775,
5.015594,0.4135,-0.9047,0.0998,1.0318,0.4157,1.9279,0.4047,-0.2791,0.1123,
5.023596,0.4600,-0.8140,-0.0214,1.0318,0.4157,1.9279,0.4047,-0.2791,0.1123,
5.026396,0.4600,-0.8140,-0.0214,1.4430,1.2973,0.6585,0.4047,-0.2791,0.1123,
5.028406,0.4600,-0.8140,-0.0214,1.4430,1.2973,0.6585,0.3717,-0.0989,0.1288,
5.036649,0.4600,-0.8140,-0.0214,1.4430,1.2973,0.6585,0.2691,0.2573,0.1356,
5.043510,0.4769,-0.8567,-0.1104,1.4430,1.2973,0.6585,0.2691,0.2573,0.1356,
5.045884,0.4769,-0.8567,-0.1104,1.5647,0.8719,-0.2907,0.2691,0.2573,0.1356,
5.047838,0.4769,-0.8567,-0.1104,1.5647,0.8719,-0.2907,0.1408,0.6274,0.1459,
5.055724,0.4769,-0.8567,-0.1104,1.5647,0.8719,-0.2907,0.0125,0.9115,0.1569,
5.063965,0.4512,-0.9560,-0.1250,1.5647,0.8719,-0.2907,0.0125,0.9115,0.1569,
5.066941,0.4512,-0.9560,-0.1250,1.2762,-0.1087,-0.4967,0.0125,0.9115,0.1569,
5.069491,0.4512,-0.9560,-0.1250,1.2762,-0.1087,-0.4967,-0.0975,1.0575,0.1582,
5.079953,0.4512,-0.9560,-0.1250,1.2762,-0.1087,-0.4967,-0.1622,1.0581,0.1569,
5.087062,0.3742,-1.0301,-0.0872,1.2762,-0.1087,-0.4967,-0.1622,1.0581,0.1569,
5.090015,0.3742,-1.0301,-0.0872,0.5053,-0.8375,-0.1683,-0.1622,1.0581,0.1569,
5.091965,0.3742,-1.0301,-0.0872,0.5053,-0.8375,-0.1683,-0.1665,0.9420,0.1661,
5.094974,0.3742,-1.0301,-0.0872,0.5053,-0.8375,-0.1683,-0.1262,0.7686,0.1893,
5.103150,0.2955,-1.0394,-0.0871,0.5053,-0.8375,-0.1683,-0.1262,0.7686,0.1893,
5.106312,0.2955,-1.0394,-0.0871,-0.2557,-0.9232,-0.1925,-0.1262,0.7686,0.1893,
5.107689,0.2955,-1.0394,-0.0871,-0.2557,-0.9232,-0.1925,-0.0657,0.5945,0.2192,
5.114965,0.2955,-1.0394,-0.0871,-0.2557,-0.9232,-0.1925,-0.0089,0.4320,0.2565,
5.123161,0.2377,-0.9877,-0.0994,-0.2557,-0.9232,-0.1925,-0.0089,0.4320,0.2565,
5.125169,0.2377,-0.9877,-0.0994,-0.7873,-0.4035,-0.3370,-0.0089,0.4320,0.2565,
5.126372,0.2377,-0.9877,-0.0994,-0.7873,-0.4035,-0.3370,0.0363,0.1638,0.3176,
5.135758,0.2377,-0.9877,-0.0994,-0.7873,-0.4035,-0.3370,0.0082,0.1687,0.3151,
5.143417,0.2493,-0.9021,-0.1309,-0.7873,-0.4035,-0.3370,0.0082,0.1687,0.3151,
5.145234,0.2493,-0.9021,-0.1309,-0.6182,0.4549,-0.6566,0.0082,0.1687,0.3151,
5.146296,0.2493,-0.9021,-0.1309,-0.6182,0.4549,-0.6566,-0.0474,0.3269,0.3103,
5.155332,0.2493,-0.9021,-0.1309,-0.6182,0.4549,-0.6566,-0.1084,0.5731,0.3359,
5.163242,0.3464,-0.9544,-0.1399,-0.6182,0.4549,-0.6566,-0.1084,0.5731,0.3359,
5.165167,0.3464,-0.9544,-0.1399,0.3851,-0.0402,-0.7505,-0.1084,0.5731,0.3359,
5.166560,0.3464,-0.9544,-0.1399,0.3851,-0.0402,-0.7505,-0.1561,0.7710,0.3646,
5.175140,0.3464,-0.9544,-0.1399,0.3851,-0.0402,-0.7505,-0.1897,0.8742,0.3658,
5.183358,0.4242,-0.9534,-0.0540,0.3851,-0.0402,-0.7505,-0.1897,0.8742,0.3658,
5.185316,0.4242,-0.9534,-0.0540,1.1976,-0.0139,0.0793,-0.1897,0.8742,0.3658,
5.186702,0.4242,-0.9534,-0.0540,1.1976,-0.0139,0.0793,-0.1989,0.8944,0.3463,
5.195213,0.4242,-0.9534,-0.0540,1.1976,-0.0139,0.0793,-0.1653,0.8577,0.3145,
5.203559,0.4727,-0.8844,0.0419,1.1976,-0.0139,0.0793,-0.1653,0.8577,0.3145,
5.206288,0.4727,-0.8844,0.0419,1.7037,0.6734,1.0006,-0.1653,0.8577,0.3145,
5.208144,0.4727,-0.8844,0.0419,1.7037,0.6734,1.0006,-0.0926,0.7905,0.2718,
5.215349,0.4727,-0.8844,0.0419,1.7037,0.6734,1.0006,-0.0138,0.7252,0.2192,
5.223279,0.4854,-0.8442,0.0210,1.7037,0.6734,1.0006,-0.0138,0.7252,0.2192,
5.226136,0.4854,-0.8442,0.0210,1.8281,1.0696,0.7554,-0.0138,0.7252,0.2192,
5.227566,0.4854,-0.8442,0.0210,1.8281,1.0696,0.7554,0.0424,0.6885,0.1612,
5.236364,0.4854,-0.8442,0.0210,1.8281,1.0696,0.7554,0.0736,0.6910,0.0928,
5.243510,0.4705,-0.8287,-0.0316,1.8281,1.0696,0.7554,0.0736,0.6910,0.0928,
5.245710,0.4705,-0.8287,-0.0316,1.6493,1.2145,0.1830,0.0736,0.6910,0.0928,
5.247210,0.4705,-0.8287,-0.0316,1.6493,1.2145,0.1830,0.0925,0.7276,0.0177,
5.255472,0.4705,-0.8287,-0.0316,1.6493,1.2145,0.1830,0.1011,0.7881,-0.0599,
5.263465,0.4562,-0.7753,-0.0739,1.6493,1.2145,0.1830,0.1011,0.7881,-0.0599,
5.265832,0.4562,-0.7753,-0.0739,1.4405,1.7186,-0.2931,0.1011,0.7881,-0.0599,
5.268340,0.4562,-0.7753,-0.0739,1.4405,1.7186,-0.2931,0.0986,0.8614,-0.1436,
5.275661,0.4562,-0.7753,-0.0739,1.4405,1.7186,-0.2931,0.0944,0.9274,-0.2450,
5.283761,0.4801,-0.7113,-0.0293,1.4405,1.7186,-0.2931,0.0944,0.9274,-0.2450,
5.286097,0.4801,-0.7113,-0.0293,1.5627,2.3119,0.0745,0.0944,0.9274,-0.2450,
5.288146,0.4801,-0.7113,-0.0293,1.5627,2.3119,0.0745,0.1047,0.9714,-0.3623,
5.295812,0.4801,-0.7113,-0.0293,1.5627,2.3119,0.0745,0.1390,0.9982,-0.4888,
5.303685,0.5023,-0.6517,0.0070,1.5627,2.3119,0.0745,0.1390,0.9982,-0.4888,
5.306736,0.5023,-0.6517,0.0070,1.6194,2.8429,0.3460,0.1390,0.9982,-0.4888,
5.309113,0.5023,-0.6517,0.0070,1.6194,2.8429,0.3460,0.2391,1.0917,-0.7630,
5.315574,0.5023,-0.6517,0.0070,1.6194,2.8429,0.3460,0.3161,1.0941,-0.9115,
5.323988,0.5253,-0.6616,0.0371,1.6194,2.8429,0.3460,0.3161,1.0941,-0.9115,
5.326776,0.5253,-0.6616,0.0371,1.6075,2.6607,0.5154,0.3161,1.0941,-0.9115,
5.328766,0.5253,-0.6616,0.0371,1.6075,2.6607,0.5154,0.4242,1.0300,-1.0642,
5.337026,0.5253,-0.6616,0.0371,1.6075,2.6607,0.5154,0.5617,0.9109,-1.1870,
5.343390,0.4914,-0.8796,0.0887,1.6075,2.6607,0.5154,0.5617,0.9109,-1.1870,
5.345343,0.4914,-0.8796,0.0887,1.0135,0.4191,0.8536,0.5617,0.9109,-1.1870,
5.347371,0.4914,-0.8796,0.0887,1.0135,0.4191,0.8536,0.7242,0.7350,-1.2517,
5.355611,0.4914,-0.8796,0.0887,1.0135,0.4191,0.8536,0.8604,0.5615,-1.2688,
5.363643,0.3927,-1.2882,0.0807,1.0135,0.4191,0.8536,0.8604,0.5615,-1.2688,
5.366007,0.3927,-1.2882,0.0807,-0.1837,-3.6878,0.5810,0.8604,0.5615,-1.2688,
5.368701,0.3927,-1.2882,0.0807,-0.1837,-3.6878,0.5810,0.9441,0.4081,-1.2420,
5.375651,0.3927,-1.2882,0.0807,-0.1837,-3.6878,0.5810,0.9881,0.2200,-1.1601,
5.383664,0.2089,-1.2902,0.0503,-0.1837,-3.6878,0.5810,0.9881,0.2200,-1.1601,
5.386462,0.2089,-1.2902,0.0503,-2.1812,-3.8048,0.0869,0.9881,0.2200,-1.1601,
5.388459,0.2089,-1.2902,0.0503,-2.1812,-3.8048,0.0869,0.9826,0.0251,-1.0214,
5.395685,0.2089,-1.2902,0.0503,-2.1812,-3.8048,0.0869,0.8983,-0.1227,-0.8547,
5.403735,0.1427,-1.2566,-0.1040,-2.1812,-3.8048,0.0869,0.8983,-0.1227,-0.8547,
5.407023,0.1427,-1.2566,-0.1040,-2.9344,-3.5338,-1.5639,0.8983,-0.1227,-0.8547,
5.409466,0.1427,-1.2566,-0.1040,-2.9344,-3.5338,-1.5639,0.7223,-0.2094,-0.7038,
5.415568,0.1427,-1.2566,-0.1040,-2.9344,-3.5338,-1.5639,0.4254,-0.2516,-0.6396,
5.424083,0.2105,-1.0866,-0.2945,-2.9344,-3.5338,-1.5639,0.4254,-0.2516,-0.6396,
5.427283,0.2105,-1.0866,-0.2945,-2.3184,-1.8933,-3.4587,0.4254,-0.2516,-0.6396,
5.429264,0.2105,-1.0866,-0.2945,-2.3184,-1.8933,-3.4587,0.0088,-0.2259,-0.7026,
5.437286,0.2105,-1.0866,-0.2945,-2.3184,-1.8933,-3.4587,-0.4414,-0.0573,-0.8498,
5.443499,0.1931,-0.9192,-0.1491,-2.3184,-1.8933,-3.4587,-0.4414,-0.0573,-0.8498,
5.445962,0.1931,-0.9192,-0.1491,-2.5471,-0.2764,-1.9269,-0.4414,-0.0573,-0.8498,
5.448273,0.1931,-0.9192,-0.1491,-2.5471,-0.2764,-1.9269,-0.7914,0.1858,-1.0025,
5.455684,0.1931,-0.9192,-0.1491,-2.5471,-0.2764,-1.9269,-0.9081,0.3617,-1.0868,
5.463673,0.1451,-0.9460,0.1658,-2.5471,-0.2764,-1.9269,-0.9081,0.3617,-1.0868,
5.466004,0.1451,-0.9460,0.1658,-3.1055,-0.5773,1.3057,-0.9081,0.3617,-1.0868,
5.468739,0.1451,-0.9460,0.1658,-3.1055,-0.5773,1.3057,-0.7486,0.4338,-1.0636,
5.475264,0.1451,-0.9460,0.1658,-3.1055,-0.5773,1.3057,-0.4096,0.4430,-0.9200,
5.483109,0.1771,-1.0570,0.2873,-3.1055,-0.5773,1.3057,-0.4096,0.4430,-0.9200,
5.485121,0.1771,-1.0570,0.2873,-2.8603,-1.6998,2.5441,-0.4096,0.4430,-0.9200,
5.486935,0.1771,-1.0570,0.2873,-2.8603,-1.6998,2.5441,-0.0241,0.4472,-0.7081,
5.495424,0.1771,-1.0570,0.2873,-2.8603,-1.6998,2.5441,0.6405,0.5047,-0.4069,
5.503926,0.2210,-1.0523,0.3255,-2.8603,-1.6998,2.5441,0.6405,0.5047,-0.4069,
5.506762,0.2210,-1.0523,0.3255,-2.4237,-1.6559,2.7869,0.6405,0.5047,-0.4069,
5.508415,0.2210,-1.0523,0.3255,-2.4237,-1.6559,2.7869,0.7877,0.3397,-0.3428,
5.515290,0.2210,-1.0523,0.3255,-2.4237,-1.6559,2.7869,0.7083,0.0105,-0.3189,
5.522845,0.2433,-0.9562,0.2176,-2.4237,-1.6559,2.7869,0.7083,0.0105,-0.3189,
5.524949,0.2433,-0.9562,0.2176,-2.1651,-0.7033,1.5456,0.7083,0.0105,-0.3189,
5.526089,0.2433,-0.9562,0.2176,-2.1651,-0.7033,1.5456,0.4584,-0.2717,-0.2921,
5.535864,0.2433,-0.9562,0.2176,-2.1651,-0.7033,1.5456,0.1890,-0.3389,-0.2426,
5.542736,0.3287,-0.9322,0.1655,-2.1651,-0.7033,1.5456,0.1890,-0.3389,-0.2426,
5.543972,0.3287,-0.9322,0.1655,-1.2954,-0.4549,0.9712,0.1890,-0.3389,-0.2426,
5.547650,0.3287,-0.9322,0.1655,-1.2954,-0.4549,0.9712,0.0333,-0.2449,-0.1961,
5.562816,0.3793,-1.0135,0.1083,-1.2954,-0.4549,0.9712,0.0333,-0.2449,-0.1961,
5.564189,0.3793,-1.0135,0.1083,-0.7525,-1.2292,0.3919,0.0333,-0.2449,-0.1961,
5.565210,0.3793,-1.0135,0.1083,-0.7525,-1.2292,0.3919,0.0253,0.1155,-0.1094,
5.574770,0.3793,-1.0135,0.1083,-0.7525,-1.2292,0.3919,0.1121,0.2072,-0.0764,
5.582658,0.3950,-1.0304,0.0912,-0.7525,-1.2292,0.3919,0.1121,0.2072,-0.0764,
5.583580,0.3950,-1.0304,0.0912,-0.5587,-1.3785,0.1718,0.1121,0.2072,-0.0764,
5.585755,0.3950,-1.0304,0.0912,-0.5587,-1.3785,0.1718,0.2306,0.1754,-0.0544,
5.594777,0.3950,-1.0304,0.0912,-0.5587,-1.3785,0.1718,0.3631,0.0624,-0.0343,
5.602611,0.3263,-0.9955,0.1215,-0.5587,-1.3785,0.1718,0.3631,0.0624,-0.0343,
5.604302,0.3263,-0.9955,0.1215,-1.1839,-1.0195,0.3907,0.3631,0.0624,-0.0343,
5.605283,0.3263,-0.9955,0.1215,-1.1839,-1.0195,0.3907,0.4804,-0.0757,-0.0104,
5.614841,0.3263,-0.9955,0.1215,-1.1839,-1.0195,0.3907,0.5482,-0.1850,0.0103,
5.623030,0.3103,-0.9214,0.1610,-1.1839,-1.0195,0.3907,0.5482,-0.1850,0.0103,
5.625488,0.3103,-0.9214,0.1610,-1.2938,-0.2785,0.6836,0.5482,-0.1850,0.0103,
5.626490,0.3103,-0.9214,0.1610,-1.2938,-0.2785,0.6836,0.5611,-0.2785,0.0244,
5.636041,0.3103,-0.9214,0.1610,-1.2938,-0.2785,0.6836,0.5159,-0.4080,0.0366,
5.642874,0.3527,-0.8129,0.1207,-1.2938,-0.2785,0.6836,0.5159,-0.4080,0.0366,
5.644119,0.3527,-0.8129,0.1207,-0.8462,0.7924,0.2135,0.5159,-0.4080,0.0366,
5.645237,0.3527,-0.8129,0.1207,-0.8462,0.7924,0.2135,0.4175,-0.5570,0.0433,
5.655056,0.3527,-0.8129,0.1207,-0.8462,0.7924,0.2135,0.2941,-0.6798,0.0335,
5.663376,0.3743,-0.7533,0.0888,-0.8462,0.7924,0.2135,0.2941,-0.6798,0.0335,
5.665690,0.3743,-0.7533,0.0888,-0.6208,1.3815,-0.1142,0.2941,-0.6798,0.0335,
5.667558,0.3743,-0.7533,0.0888,-0.6208,1.3815,-0.1142,0.1768,-0.7464,0.0097,
5.675822,0.3743,-0.7533,0.0888,-0.6208,1.3815,-0.1142,-0.0009,-0.7024,-0.0123,
5.683326,0.3531,-0.7639,0.0357,-0.6208,1.3815,-0.1142,-0.0009,-0.7024,-0.0123,
5.685771,0.3531,-0.7639,0.0357,-0.8298,1.2814,-0.5899,-0.0009,-0.7024,-0.0123,
5.687792,0.3531,-0.7639,0.0357,-0.8298,1.2814,-0.5899,-0.0547,-0.6511,0.0177,
5.695641,0.3531,-0.7639,0.0357,-0.8298,1.2814,-0.5899,-0.0480,-0.6236,0.0641,
5.703620,0.3536,-0.7418,0.0705,-0.8298,1.2814,-0.5899,-0.0480,-0.6236,0.0641,
5.706115,0.3536,-0.7418,0.0705,-0.8214,1.5062,-0.1868,-0.0480,-0.6236,0.0641,
5.707944,0.3536,-0.7418,0.0705,-0.8214,1.5062,-0.1868,0.0266,-0.6548,0.0971,
5.715226,0.3536,-0.7418,0.0705,-0.8214,1.5062,-0.1868,0.1438,-0.7696,0.0928,
5.723586,0.4885,-0.6204,0.1502,-0.8214,1.5062,-0.1868,0.1438,-0.7696,0.0928,
5.726459,0.4885,-0.6204,0.1502,0.5036,2.7018,0.6362,0.1438,-0.7696,0.0928,
5.728072,0.4885,-0.6204,0.1502,0.5036,2.7018,0.6362,0.2507,-0.9229,0.0482,
5.737198,0.4885,-0.6204,0.1502,0.5036,2.7018,0.6362,0.3076,-1.0219,-0.0172,
5.743372,0.5943,-0.5893,0.2136,0.5036,2.7018,0.6362,0.3076,-1.0219,-0.0172,
5.745724,0.5943,-0.5893,0.2136,1.5030,2.9899,1.2693,0.3076,-1.0219,-0.0172,
5.747338,0.5943,-0.5893,0.2136,1.5030,2.9899,1.2693,0.3253,-1.0683,-0.0899,
5.755382,0.5943,-0.5893,0.2136,1.5030,2.9899,1.2693,0.3393,-1.1398,-0.1577,
5.763425,0.6539,-0.5879,0.2077,1.5030,2.9899,1.2693,0.3393,-1.1398,-0.1577,
5.765421,0.6539,-0.5879,0.2077,1.9903,2.9544,1.2082,0.3393,-1.1398,-0.1577,
5.767656,0.6539,-0.5879,0.2077,1.9903,2.9544,1.2082,0.3595,-1.2644,-0.2102,
5.775816,0.6539,-0.5879,0.2077,1.9903,2.9544,1.2082,0.3815,-1.3664,-0.2395,
5.783454,0.6695,-0.6040,0.1860,1.9903,2.9544,1.2082,0.3815,-1.3664,-0.2395,
5.785897,0.6695,-0.6040,0.1860,2.0116,2.7291,1.0049,0.3815,-1.3664,-0.2395,
5.787757,0.6695,-0.6040,0.1860,2.0116,2.7291,1.0049,0.4126,-1.3603,-0.2475,
5.795493,0.6695,-0.6040,0.1860,2.0116,2.7291,1.0049,0.4389,-1.2210,-0.2255,
5.803908,0.6260,-0.6568,0.0161,2.0116,2.7291,1.0049,0.4389,-1.2210,-0.2255,
5.806908,0.6260,-0.6568,0.0161,1.4500,2.1412,-0.6405,0.4389,-1.2210,-0.2255,
5.808779,0.6260,-0.6568,0.0161,1.4500,2.1412,-0.6405,0.4035,-0.9749,-0.1687,
5.815288,0.6260,-0.6568,0.0161,1.4500,2.1412,-0.6405,0.2507,-0.6664,-0.0886,
5.823549,0.6411,-0.7825,-0.2086,1.4500,2.1412,-0.6405,0.2507,-0.6664,-0.0886,
5.826060,0.6411,-0.7825,-0.2086,1.4934,0.8553,-2.8055,0.2507,-0.6664,-0.0886,
5.828138,0.6411,-0.7825,-0.2086,1.4934,0.8553,-2.8055,-0.0113,-0.3652,-0.0074,
5.837742,0.6411,-0.7825,-0.2086,1.4934,0.8553,-2.8055,-0.3210,-0.0751,0.0506,
5.843400,0.7686,-1.0316,-0.1439,1.4934,0.8553,-2.8055,-0.3210,-0.0751,0.0506,
5.845528,0.7686,-1.0316,-0.1439,2.6844,-1.6118,-2.0874,-0.3210,-0.0751,0.0506,
5.847572,0.7686,-1.0316,-0.1439,2.6844,-1.6118,-2.0874,-0.5886,0.2530,0.0561,
5.855544,0.7686,-1.0316,-0.1439,2.6844,-1.6118,-2.0874,-0.7389,0.6177,0.0036,
5.863620,0.7840,-1.0489,0.0175,2.6844,-1.6118,-2.0874,-0.7389,0.6177,0.0036,
5.866407,0.7840,-1.0489,0.0175,2.7957,-1.7973,-0.4099,-0.7389,0.6177,0.0036,
5.868514,0.7840,-1.0489,0.0175,2.7957,-1.7973,-0.4099,-0.6833,1.1955,-0.1644,
5.875703,0.7840,-1.0489,0.0175,2.7957,-1.7973,-0.4099,-0.5678,1.2053,-0.2078,
5.883525,0.4836,-0.8567,0.1168,2.7957,-1.7973,-0.4099,-0.5678,1.2053,-0.2078,
5.886388,0.4836,-0.8567,0.1168,-0.1895,0.0627,0.5609,-0.5678,1.2053,-0.2078,
5.888590,0.4836,-0.8567,0.1168,-0.1895,0.0627,0.5609,-0.4652,1.1265,-0.1235,
5.895508,0.4836,-0.8567,0.1168,-0.1895,0.0627,0.5609,-0.4035,0.9854,0.0775,
5.904553,0.1634,-0.9094,0.0253,-0.1895,0.0627,0.5609,-0.4035,0.9854,0.0775,
5.907169,0.1634,-0.9094,0.0253,-3.3179,-0.4510,-0.3622,-0.4035,0.9854,0.0775,
5.909767,0.1634,-0.9094,0.0253,-3.3179,-0.4510,-0.3622,-0.3992,0.7405,0.3078,
5.915463,0.1634,-0.9094,0.0253,-3.3179,-0.4510,-0.3622,-0.4957,0.5059,0.4624,
5.923786,0.3235,-0.9909,-0.2383,-3.3179,-0.4510,-0.3622,-0.4957,0.5059,0.4624,
5.927051,0.3235,-0.9909,-0.2383,-1.6639,-1.1971,-2.9007,-0.4957,0.5059,0.4624,
5.929099,0.3235,-0.9909,-0.2383,-1.6639,-1.1971,-2.9007,-0.6918,0.4729,0.5021,
5.937723,0.3235,-0.9909,-0.2383,-1.6639,-1.1971,-2.9007,-0.8959,0.6726,0.4563,
5.943681,0.4175,-1.0113,-0.2456,-1.6639,-1.1971,-2.9007,-0.8959,0.6726,0.4563,
5.945791,0.4175,-1.0113,-0.2456,-0.6351,-1.3293,-2.8386,-0.8959,0.6726,0.4563,
5.947775,0.4175,-1.0113,-0.2456,-0.6351,-1.3293,-2.8386,-1.0302,1.0324,0.3683,
5.955679,0.4175,-1.0113,-0.2456,-0.6351,-1.3293,-2.8386,-1.0926,1.4704,0.2834,
5.963775,0.4506,-0.9329,-0.2360,-0.6351,-1.3293,-2.8386,-1.0926,1.4704,0.2834,
5.966502,0.4506,-0.9329,-0.2360,-0.2281,-0.5102,-2.6123,-1.0926,1.4704,0.2834,
5.968562,0.4506,-0.9329,-0.2360,-0.2281,-0.5102,-2.6123,-1.0980,1.8712,0.2327,
5.975494,0.4506,-0.9329,-0.2360,-0.2281,-0.5102,-2.6123,-1.0657,2.1283,0.1850,
5.983391,0.4600,-0.9177,-0.2246,-0.2281,-0.5102,-2.6123,-1.0657,2.1283,0.1850,
5.987710,0.4600,-0.9177,-0.2246,-0.0757,-0.3274,-2.4260,-1.0657,2.1283,0.1850,
5.990730,0.4600,-0.9177,-0.2246,-0.0757,-0.3274,-2.4260,-1.0125,2.1717,0.1191,
5.996071,0.4600,-0.9177,-0.2246,-0.0757,-0.3274,-2.4260,-0.9459,1.9304,0.0403,
6.004272,0.3607,-0.9908,-0.1918,-0.0757,-0.3274,-2.4260,-0.9459,1.9304,0.0403,
6.006784,0.3607,-0.9908,-0.1918,-1.0048,-1.0188,-2.0484,-0.9459,1.9304,0.0403,
6.008988,0.3607,-0.9908,-0.1918,-1.0048,-1.0188,-2.0484,-0.8830,1.3977,-0.0471,
6.015330,0.3607,-0.9908,-0.1918,-1.0048,-1.0188,-2.0484,-0.8250,0.5859,-0.1033,
6.023538,0.2029,-1.0760,-0.1093,-1.0048,-1.0188,-2.0484,-0.8250,0.5859,-0.1033,
6.026384,0.2029,-1.0760,-0.1093,-2.5176,-1.8353,-1.1207,-0.8250,0.5859,-0.1033,
6.028101,0.2029,-1.0760,-0.1093,-2.5176,-1.8353,-1.1207,-0.7786,-0.3713,-0.0892,
6.038040,0.2029,-1.0760,-0.1093,-2.5176,-1.8353,-1.1207,-0.7285,-1.1172,-0.0159,
6.043364,0.1483,-1.0575,-0.0605,-2.5176,-1.8353,-1.1207,-0.7285,-1.1172,-0.0159,
6.046017,0.1483,-1.0575,-0.0605,-2.9971,-1.6267,-0.4015,-0.7285,-1.1172,-0.0159,
6.047896,0.1483,-1.0575,-0.0605,-2.9971,-1.6267,-0.4015,-0.6368,-1.3805,0.1661,
6.055261,0.1483,-1.0575,-0.0605,-2.9971,-1.6267,-0.4015,-0.3888,-1.0237,0.1893,
6.063079,0.1797,-0.9913,-0.1114,-2.9971,-1.6267,-0.4015,-0.3888,-1.0237,0.1893,
6.065050,0.1797,-0.9913,-0.1114,-2.5801,-0.9310,-0.6729,-0.3888,-1.0237,0.1893,
6.066619,0.1797,-0.9913,-0.1114,-2.5801,-0.9310,-0.6729,-0.3467,-0.4947,0.1918,
6.075162,0.1797,-0.9913,-0.1114,-2.5801,-0.9310,-0.6729,-0.3363,-0.0793,0.2351,
6.083427,0.2373,-0.9688,-0.1264,-2.5801,-0.9310,-0.6729,-0.3363,-0.0793,0.2351,
6.086504,0.2373,-0.9688,-0.1264,-1.9055,-0.6634,-0.7076,-0.3363,-0.0793,0.2351,
6.088375,0.2373,-0.9688,-0.1264,-1.9055,-0.6634,-0.7076,-0.3308,0.0319,0.3048,
6.095808,0.2373,-0.9688,-0.1264,-1.9055,-0.6634,-0.7076,-0.3412,-0.0909,0.3603,
6.105563,0.3783,-1.0142,-0.1342,-1.9055,-0.6634,-0.7076,-0.3412,-0.0909,0.3603,
6.108593,0.3783,-1.0142,-0.1342,-0.4128,-1.0618,-0.6996,-0.3412,-0.0909,0.3603,
6.111045,0.3783,-1.0142,-0.1342,-0.4128,-1.0618,-0.6996,-0.3479,-0.3176,0.4013,
6.115524,0.3783,-1.0142,-0.1342,-0.4128,-1.0618,-0.6996,-0.3381,-0.5112,0.4337,
6.123817,0.4532,-1.0144,-0.1410,-0.4128,-1.0618,-0.6996,-0.3381,-0.5112,0.4337,
6.127647,0.4532,-1.0144,-0.1410,0.4259,-1.0232,-0.6568,-0.3381,-0.5112,0.4337,
6.129422,0.4532,-1.0144,-0.1410,0.4259,-1.0232,-0.6568,-0.3332,-0.5692,0.4654,
6.137761,0.4532,-1.0144,-0.1410,0.4259,-1.0232,-0.6568,-0.3424,-0.5051,0.4954,
6.143537,0.5022,-0.9428,-0.1102,0.4259,-1.0232,-0.6568,-0.3424,-0.5051,0.4954,
6.145672,0.5022,-0.9428,-0.1102,1.0058,-0.2867,-0.2475,-0.3424,-0.5051,0.4954,
6.147478,0.5022,-0.9428,-0.1102,1.0058,-0.2867,-0.2475,-0.3534,-0.3970,0.5173,
6.155353,0.5022,-0.9428,-0.1102,1.0058,-0.2867,-0.2475,-0.3565,-0.3347,0.5338,
6.163238,0.5496,-0.8959,-0.0672,1.0058,-0.2867,-0.2475,-0.3565,-0.3347,0.5338,
6.165037,0.5496,-0.8959,-0.0672,1.5698,0.2067,0.2666,-0.3565,-0.3347,0.5338,
6.166369,0.5496,-0.8959,-0.0672,1.5698,0.2067,0.2666,-0.3485,-0.3524,0.5375,
6.175103,0.5496,-0.8959,-0.0672,1.5698,0.2067,0.2666,-0.3406,-0.4110,0.5259,
6.183100,0.5513,-0.8678,-0.0475,1.5698,0.2067,0.2666,-0.3406,-0.4110,0.5259,
6.184787,0.5513,-0.8678,-0.0475,1.6783,0.5110,0.5474,-0.3406,-0.4110,0.5259,
6.186425,0.5513,-0.8678,-0.0475,1.6783,0.5110,0.5474,-0.3229,-0.4483,0.5076,
6.195205,0.5513,-0.8678,-0.0475,1.6783,0.5110,0.5474,-0.2862,-0.3848,0.4935,
6.203195,0.4829,-0.8071,-0.0508,1.6783,0.5110,0.5474,-0.2862,-0.3848,0.4935,
6.205238,0.4829,-0.8071,-0.0508,1.0843,1.1281,0.5927,-0.2862,-0.3848,0.4935,
6.206388,0.4829,-0.8071,-0.0508,1.0843,1.1281,0.5927,-0.2202,-0.2430,0.4868,
6.214794,0.4829,-0.8071,-0.0508,1.0843,1.1281,0.5927,-0.1365,-0.0983,0.4685,
6.222602,0.4506,-0.7641,-0.1052,1.0843,1.1281,0.5927,-0.1365,-0.0983,0.4685,
6.223772,0.4506,-0.7641,-0.1052,0.8270,1.5684,0.0973,-0.1365,-0.0983,0.4685,
6.224663,0.4506,-0.7641,-0.1052,0.8270,1.5684,0.0973,-0.0553,0.0147,0.4361,
6.234677,0.4506,-0.7641,-0.1052,0.8270,1.5684,0.0973,0.0540,0.1693,0.3628,
6.242938,0.4961,-0.7886,-0.1627,0.8270,1.5684,0.0973,0.0540,0.1693,0.3628,
6.244546,0.4961,-0.7886,-0.1627,1.3005,1.3398,-0.4736,0.0540,0.1693,0.3628,
6.245457,0.4961,-0.7886,-0.1627,1.3005,1.3398,-0.4736,0.0681,0.1583,0.3206,
6.254774,0.4961,-0.7886,-0.1627,1.3005,1.3398,-0.4736,0.0461,0.0166,0.2669,
6.262813,0.5608,-0.8585,-0.1455,1.3005,1.3398,-0.4736,0.0461,0.0166,0.2669,
6.263637,0.5608,-0.8585,-0.1455,1.9322,0.6556,-0.3183,0.0461,0.0166,0.2669,
6.264668,0.5608,-0.8585,-0.1455,1.9322,0.6556,-0.3183,0.0101,-0.2149,0.2162,
6.274815,0.5608,-0.8585,-0.1455,1.9322,0.6556,-0.3183,-0.0022,-0.3603,0.1905,
6.282782,0.4813,-0.8063,-0.0641,1.9322,0.6556,-0.3183,-0.0022,-0.3603,0.1905,
6.283668,0.4813,-0.8063,-0.0641,1.1410,1.1600,0.4959,-0.0022,-0.3603,0.1905,
6.284741,0.4813,-0.8063,-0.0641,1.1410,1.1600,0.4959,0.0327,-0.3267,0.1856,
6.294725,0.4813,-0.8063,-0.0641,1.1410,1.1600,0.4959,0.0968,-0.1923,0.1850,
6.303051,0.4782,-0.7962,-0.0607,1.1410,1.1600,0.4959,0.0968,-0.1923,0.1850,
6.304691,0.4782,-0.7962,-0.0607,1.0945,1.2529,0.5293,0.0968,-0.1923,0.1850,
6.305627,0.4782,-0.7962,-0.0607,1.0945,1.2529,0.5293,0.1677,-0.0592,0.1783,
6.314697,0.4782,-0.7962,-0.0607,1.0945,1.2529,0.5293,0.2288,0.0221,0.1655,
6.323436,0.5299,-0.8177,-0.0481,1.0945,1.2529,0.5293,0.2288,0.0221,0.1655,
6.325877,0.5299,-0.8177,-0.0481,1.5700,1.0353,0.6076,0.2288,0.0221,0.1655,
6.327565,0.5299,-0.8177,-0.0481,1.5700,1.0353,0.6076,0.2795,0.0288,0.1447,
6.335390,0.5299,-0.8177,-0.0481,1.5700,1.0353,0.6076,0.3179,-0.0085,0.1093,
6.343325,0.5468,-0.8036,-0.0065,1.5700,1.0353,0.6076,0.3179,-0.0085,0.1093,
6.346465,0.5468,-0.8036,-0.0065,1.6914,1.1636,0.9448,0.3179,-0.0085,0.1093,
6.348248,0.5468,-0.8036,-0.0065,1.6914,1.1636,0.9448,0.3497,-0.0476,0.0677,
6.355332,0.5468,-0.8036,-0.0065,1.6914,1.1636,0.9448,0.3827,-0.1154,0.0225,
6.363416,0.5387,-0.7685,0.0678,1.6914,1.1636,0.9448,0.3827,-0.1154,0.0225,
6.365349,0.5387,-0.7685,0.0678,1.5524,1.4931,1.5850,0.3827,-0.1154,0.0225,
6.366979,0.5387,-0.7685,0.0678,1.5524,1.4931,1.5850,0.4175,-0.2705,-0.0343,
6.375320,0.5387,-0.7685,0.0678,1.5524,1.4931,1.5850,0.4700,-0.5265,-0.1033,
6.383390,0.4989,-0.7906,0.2926,1.5524,1.4931,1.5850,0.4700,-0.5265,-0.1033,
6.386104,0.4989,-0.7906,0.2926,1.0902,1.2570,3.6776,0.4700,-0.5265,-0.1033,
6.388027,0.4989,-0.7906,0.2926,1.0902,1.2570,3.6776,0.5824,-0.7873,-0.1790,
6.395665,0.4989,-0.7906,0.2926,1.0902,1.2570,3.6776,0.8555,-0.8851,-0.2493,
6.407366,0.4104,-0.7826,0.3494,1.0902,1.2570,3.6776,0.8555,-0.8851,-0.2493,
6.410013,0.4104,-0.7826,0.3494,0.1431,1.3130,4.0804,0.8555,-0.8851,-0.2493,
6.411659,0.4104,-0.7826,0.3494,0.1431,1.3130,4.0804,1.2697,-0.6877,-0.3116,
6.415330,0.4104,-0.7826,0.3494,0.1431,1.3130,4.0804,1.7761,0.1418,-0.4930,
6.423438,0.3917,-0.7878,0.1031,0.1431,1.3130,4.0804,1.7761,0.1418,-0.4930,
6.426067,0.3917,-0.7878,0.1031,-0.1492,1.2327,1.3434,1.7761,0.1418,-0.4930,
6.427825,0.3917,-0.7878,0.1031,-0.1492,1.2327,1.3434,1.8543,0.3526,-0.6128,
6.435451,0.3917,-0.7878,0.1031,-0.1492,1.2327,1.3434,1.9489,0.2951,-0.7392,
6.443385,0.4474,-0.8582,0.1925,-0.1492,1.2327,1.3434,1.9489,0.2951,-0.7392,
6.445953,0.4474,-0.8582,0.1925,0.2471,0.4796,1.7942,1.9489,0.2951,-0.7392,
6.447470,0.4474,-0.8582,0.1925,0.2471,0.4796,1.7942,2.1120,0.0410,-0.8773,
6.455285,0.4474,-0.8582,0.1925,0.2471,0.4796,1.7942,2.2843,-0.1771,-1.0269,
6.463547,0.5730,-1.2030,0.0817,0.2471,0.4796,1.7942,2.2843,-0.1771,-1.0269,
6.465483,0.5730,-1.2030,0.0817,1.3027,-2.9954,0.3094,2.2843,-0.1771,-1.0269,
6.467125,0.5730,-1.2030,0.0817,1.3027,-2.9954,0.3094,2.3711,-0.1893,-1.1613,
6.475859,0.5730,-1.2030,0.0817,1.3027,-2.9954,0.3094,2.3326,-0.0549,-1.2762,
6.483497,0.4652,-1.3583,-0.1134,1.3027,-2.9954,0.3094,2.3326,-0.0549,-1.2762,
6.486173,0.4652,-1.3583,-0.1134,0.0380,-4.6544,-1.9963,2.3326,-0.0549,-1.2762,
6.488328,0.4652,-1.3583,-0.1134,0.0380,-4.6544,-1.9963,2.1701,0.0832,-1.3507,
6.495673,0.4652,-1.3583,-0.1134,0.0380,-4.6544,-1.9963,1.9367,0.0600,-1.3464,
6.505781,0.3301,-1.3554,-0.2871,0.0380,-4.6544,-1.9963,1.9367,0.0600,-1.3464,
6.508487,0.3301,-1.3554,-0.2871,-1.4723,-4.7617,-3.9977,1.9367,0.0600,-1.3464,
6.511310,0.3301,-1.3554,-0.2871,-1.4723,-4.7617,-3.9977,1.6643,-0.0702,-1.2908,
6.515517,0.3301,-1.3554,-0.2871,-1.4723,-4.7617,-3.9977,1.3613,-0.2046,-1.2224,
6.523379,0.2624,-1.3489,-0.3909,-1.4723,-4.7617,-3.9977,1.3613,-0.2046,-1.2224,
6.525942,0.2624,-1.3489,-0.3909,-2.2858,-4.8048,-5.1610,1.3613,-0.2046,-1.2224,
6.528034,0.2624,-1.3489,-0.3909,-2.2858,-4.8048,-5.1610,1.0186,-0.2724,-1.1424,
6.536230,0.2624,-1.3489,-0.3909,-2.2858,-4.8048,-5.1610,0.6771,-0.2449,-1.0715,
6.543467,0.3159,-1.3784,-0.1639,-2.2858,-4.8048,-5.1610,0.6771,-0.2449,-1.0715,
6.546253,0.3159,-1.3784,-0.1639,-1.8748,-5.1627,-2.9551,0.6771,-0.2449,-1.0715,
6.547969,0.3159,-1.3784,-0.1639,-1.8748,-5.1627,-2.9551,0.4261,-0.1960,-1.0324,
6.555392,0.3159,-1.3784,-0.1639,-1.8748,-5.1627,-2.9551,0.3393,-0.1765,-1.0172,
6.563624,0.2608,-1.2276,0.1294,-1.8748,-5.1627,-2.9551,0.3393,-0.1765,-1.0172,
6.565656,0.2608,-1.2276,0.1294,-2.4985,-3.7313,-0.0517,0.3393,-0.1765,-1.0172,
6.567545,0.2608,-1.2276,0.1294,-2.4985,-3.7313,-0.0517,0.3980,-0.1429,-0.9750,
6.575523,0.2608,-1.2276,0.1294,-2.4985,-3.7313,-0.0517,0.5232,-0.0665,-0.8834,
6.583487,0.2022,-1.0312,0.1062,-2.4985,-3.7313,-0.0517,0.5232,-0.0665,-0.8834,
6.587033,0.2022,-1.0312,0.1062,-3.1290,-1.8416,-0.2852,0.5232,-0.0665,-0.8834,
6.589548,0.2022,-1.0312,0.1062,-3.1290,-1.8416,-0.2852,0.6026,0.0257,-0.7704,
6.595577,0.2022,-1.0312,0.1062,-3.1290,-1.8416,-0.2852,0.5562,0.1204,-0.6555,
6.605688,0.2180,-0.8788,-0.0006,-3.1290,-1.8416,-0.2852,0.5562,0.1204,-0.6555,
6.608980,0.2180,-0.8788,-0.0006,-2.9872,-0.3633,-1.3747,0.5562,0.1204,-0.6555,
6.611403,0.2180,-0.8788,-0.0006,-2.9872,-0.3633,-1.3747,0.1017,0.3507,-0.4814,
6.615281,0.2180,-0.8788,-0.0006,-2.9872,-0.3633,-1.3747,-0.2153,0.5034,-0.4203,
6.623233,0.2792,-0.8841,0.0242,-2.9872,-0.3633,-1.3747,-0.2153,0.5034,-0.4203,
6.626413,0.2792,-0.8841,0.0242,-2.3539,-0.3918,-1.1112,-0.2153,0.5034,-0.4203,
6.627965,0.2792,-0.8841,0.0242,-2.3539,-0.3918,-1.1112,-0.4695,0.5945,-0.3409,
6.635281,0.2792,-0.8841,0.0242,-2.3539,-0.3918,-1.1112,-0.6558,0.6384,-0.2304,
6.643246,0.1176,-0.9990,-0.1327,-2.3539,-0.3918,-1.1112,-0.6558,0.6384,-0.2304,
6.645353,0.1176,-0.9990,-0.1327,-3.8627,-1.4566,-2.5535,-0.6558,0.6384,-0.2304,
6.646883,0.1176,-0.9990,-0.1327,-3.8627,-1.4566,-2.5535,-0.8171,0.7154,-0.0801,
6.655205,0.1176,-0.9990,-0.1327,-3.8627,-1.4566,-2.5535,-0.9692,0.8113,0.0855,
6.663504,-0.0006,-0.9622,-0.1669,-3.8627,-1.4566,-2.5535,-0.9692,0.8113,0.0855,
6.665195,-0.0006,-0.9622,-0.1669,-4.8817,-0.9933,-2.7431,-0.9692,0.8113,0.0855,
6.666610,-0.0006,-0.9622,-0.1669,-4.8817,-0.9933,-2.7431,-1.1060,0.8968,0.2394,
6.676053,-0.0006,-0.9622,-0.1669,-4.8817,-0.9933,-2.7431,-1.1903,0.9457,0.3768,
6.683630,-0.0347,-0.9215,-0.0612,-4.8817,-0.9933,-2.7431,-1.1903,0.9457,0.3768,
6.686120,-0.0347,-0.9215,-0.0612,-5.0110,-0.4592,-1.5366,-1.1903,0.9457,0.3768,
6.688645,-0.0347,-0.9215,-0.0612,-5.0110,-0.4592,-1.5366,-1.1652,0.9298,0.4813,
6.695689,-0.0347,-0.9215,-0.0612,-5.0110,-0.4592,-1.5366,-1.0302,0.8926,0.5381,
6.706136,0.0313,-0.9290,-0.0950,-5.0110,-0.4592,-1.5366,-1.0302,0.8926,0.5381,
6.709671,0.0313,-0.9290,-0.0950,-4.1273,-0.3907,-1.7006,-1.0302,0.8926,0.5381,
6.711341,0.0313,-0.9290,-0.0950,-4.1273,-0.3907,-1.7006,-0.8470,0.8706,0.5296,
6.725666,0.0313,-0.9290,-0.0950,-4.1273,-0.3907,-1.7006,-0.7010,0.8535,0.4471,
6.727297,0.0823,-0.8964,-0.2167,-4.1273,-0.3907,-1.7006,-0.7010,0.8535,0.4471,
6.728621,0.0823,-0.8964,-0.2167,-3.4030,0.0500,-2.7583,-0.7010,0.8535,0.4471,
6.730218,0.0823,-0.8964,-0.2167,-3.4030,0.0500,-2.7583,-0.6252,0.7881,0.3249,
6.735342,0.0823,-0.8964,-0.2167,-3.4030,0.0500,-2.7583,-0.6032,0.7075,0.2480,
6.742827,0.0343,-0.8579,-0.2461,-3.4030,0.0500,-2.7583,-0.6032,0.7075,0.2480,
6.743920,0.0343,-0.8579,-0.2461,-3.6891,0.5210,-2.9143,-0.6032,0.7075,0.2480,
6.745277,0.0343,-0.8579,-0.2461,-3.6891,0.5210,-2.9143,-0.6295,0.6281,0.2754,
6.754983,0.0343,-0.8579,-0.2461,-3.6891,0.5210,-2.9143,-0.7059,0.5444,0.3579,
6.762761,0.0421,-0.7820,-0.2400,-3.6891,0.5210,-2.9143,-0.7059,0.5444,0.3579,
6.763676,0.0421,-0.7820,-0.2400,-3.4305,1.3520,-2.6880,-0.7059,0.5444,0.3579,
6.764648,0.0421,-0.7820,-0.2400,-3.4305,1.3520,-2.6880,-0.8201,0.4558,0.4404,
6.774753,0.0421,-0.7820,-0.2400,-3.4305,1.3520,-2.6880,-0.9429,0.3654,0.4923,
6.782784,0.0121,-0.7688,-0.1964,-3.4305,1.3520,-2.6880,-0.9429,0.3654,0.4923,
6.783625,0.0121,-0.7688,-0.1964,-3.5203,1.5712,-2.0421,-0.9429,0.3654,0.4923,
6.784667,0.0121,-0.7688,-0.1964,-3.5203,1.5712,-2.0421,-1.1200,0.2273,0.5387,
6.794672,0.0121,-0.7688,-0.1964,-3.5203,1.5712,-2.0421,-1.1310,0.1913,0.5589,
6.803455,-0.0088,-0.8862,-0.0241,-3.5203,1.5712,-2.0421,-1.1310,0.1913,0.5589,
6.805027,-0.0088,-0.8862,-0.0241,-3.5053,0.5054,-0.1019,-1.1310,0.1913,0.5589,
6.805897,-0.0088,-0.8862,-0.0241,-3.5053,0.5054,-0.1019,-1.0021,0.2047,0.5723,
6.814729,-0.0088,-0.8862,-0.0241,-3.5053,0.5054,-0.1019,-0.6937,0.2328,0.5546,
6.822649,0.2017,-1.1983,0.0331,-3.5053,0.5054,-0.1019,-0.6937,0.2328,0.5546,
6.823847,0.2017,-1.1983,0.0331,-1.2438,-2.4856,0.6263,-0.6937,0.2328,0.5546,
6.824765,0.2017,-1.1983,0.0331,-1.2438,-2.4856,0.6263,-0.3894,0.1552,0.4880,
6.834631,0.2017,-1.1983,0.0331,-1.2438,-2.4856,0.6263,-0.3009,-0.0824,0.4159,
6.843016,0.2438,-1.3019,-0.2417,-1.2438,-2.4856,0.6263,-0.3009,-0.0824,0.4159,
6.845480,0.2438,-1.3019,-0.2417,-0.6704,-3.4501,-1.9708,-0.3009,-0.0824,0.4159,
6.846684,0.2438,-1.3019,-0.2417,-0.6704,-3.4501,-1.9708,-0.4200,-0.3774,0.3787,
6.856798,0.2438,-1.3019,-0.2417,-0.6704,-3.4501,-1.9708,-0.5684,-0.6181,0.3414,
6.863093,0.3253,-1.2125,-0.0584,-0.6704,-3.4501,-1.9708,-0.5684,-0.6181,0.3414,
6.864816,0.3253,-1.2125,-0.0584,0.2493,-2.5419,-0.0344,-0.5684,-0.6181,0.3414,
6.866087,0.3253,-1.2125,-0.0584,0.2493,-2.5419,-0.0344,-0.5770,-0.7995,0.2547,
6.874969,0.3253,-1.2125,-0.0584,0.2493,-2.5419,-0.0344,-0.4029,-0.8942,0.1313,
6.883009,0.3115,-0.9527,0.0517,0.2493,-2.5419,-0.0344,-0.4029,-0.8942,0.1313,
6.884385,0.3115,-0.9527,0.0517,0.1828,0.0167,1.1833,-0.4029,-0.8942,0.1313,
6.885972,0.3115,-0.9527,0.0517,0.1828,0.0167,1.1833,-0.0932,-0.9394,0.0177,
6.894832,0.3115,-0.9527,0.0517,0.1828,0.0167,1.1833,0.2196,-0.9510,-0.0746,
6.904138,0.3347,-0.8476,-0.0737,0.1828,0.0167,1.1833,0.2196,-0.9510,-0.0746,
6.905596,0.3347,-0.8476,-0.0737,0.4257,1.0479,-0.0035,0.2196,-0.9510,-0.0746,
6.906855,0.3347,-0.8476,-0.0737,0.4257,1.0479,-0.0035,0.4407,-0.9345,-0.1479,
6.914743,0.3347,-0.8476,-0.0737,0.4257,1.0479,-0.0035,0.5769,-0.9364,-0.1986,
6.922990,0.4270,-0.8903,0.0083,0.4257,1.0479,-0.0035,0.5769,-0.9364,-0.1986,
6.924537,0.4270,-0.8903,0.0083,1.3115,0.6274,0.7564,0.5769,-0.9364,-0.1986,
6.925541,0.4270,-0.8903,0.0083,1.3115,0.6274,0.7564,0.6918,-1.0488,-0.2249,
6.934961,0.4270,-0.8903,0.0083,1.3115,0.6274,0.7564,0.8335,-1.3273,-0.2365,
6.942679,0.4830,-0.8761,0.0790,1.3115,0.6274,0.7564,0.8335,-1.3273,-0.2365,
6.944240,0.4830,-0.8761,0.0790,1.8223,0.7603,1.3666,0.8335,-1.3273,-0.2365,
6.945304,0.4830,-0.8761,0.0790,1.8223,0.7603,1.3666,0.9850,-1.6743,-0.2285,
6.957423,0.4830,-0.8761,0.0790,1.8223,0.7603,1.3666,1.0864,-1.9076,-0.1931,
6.964300,0.5119,-0.8431,-0.0127,1.8223,0.7603,1.3666,1.0864,-1.9076,-0.1931,
6.966016,0.5119,-0.8431,-0.0127,2.0610,1.0751,0.3687,1.0864,-1.9076,-0.1931,
6.968785,0.5119,-0.8431,-0.0127,2.0610,1.0751,0.3687,1.1017,-1.9455,-0.1454,
6.980050,0.5119,-0.8431,-0.0127,2.0610,1.0751,0.3687,0.9282,-1.7012,-0.0728,
6.984656,0.5742,-0.8492,-0.1094,2.0610,1.0751,0.3687,0.9282,-1.7012,-0.0728,
6.986372,0.5742,-0.8492,-0.1094,2.6179,1.0021,-0.6617,0.9282,-1.7012,-0.0728,
6.988651,0.5742,-0.8492,-0.1094,2.6179,1.0021,-0.6617,0.7455,-1.3982,-0.0508,
6.995335,0.5742,-0.8492,-0.1094,2.6179,1.0021,-0.6617,0.5085,-0.9388,-0.0330,
7.004308,0.6155,-0.8317,-0.1957,2.6179,1.0021,-0.6617,0.5085,-0.9388,-0.0330,
7.006717,0.6155,-0.8317,-0.1957,2.9512,1.1512,-1.5358,0.5085,-0.9388,-0.0330,
7.008122,0.6155,-0.8317,-0.1957,2.9512,1.1512,-1.5358,0.2758,-0.4526,-0.0269,
7.014862,0.6155,-0.8317,-0.1957,2.9512,1.1512,-1.5358,0.1249,-0.1343,-0.0447,
7.022894,0.7708,-0.7467,0.0261,2.9512,1.1512,-1.5358,0.1249,-0.1343,-0.0447,
7.024838,0.7708,-0.7467,0.0261,4.3678,1.9495,0.6253,0.1249,-0.1343,-0.0447,
7.026157,0.7708,-0.7467,0.0261,4.3678,1.9495,0.6253,0.0980,-0.1093,-0.0905,
7.034921,0.7708,-0.7467,0.0261,4.3678,1.9495,0.6253,0.1622,-0.3371,-0.1571,
7.042927,0.7869,-0.7372,0.0476,4.3678,1.9495,0.6253,0.1622,-0.3371,-0.1571,
7.044453,0.7869,-0.7372,0.0476,4.3856,1.9940,0.8221,0.1622,-0.3371,-0.1571,
7.045510,0.7869,-0.7372,0.0476,4.3856,1.9940,0.8221,0.2379,-0.6523,-0.2169,
7.054892,0.7869,-0.7372,0.0476,4.3856,1.9940,0.8221,0.2886,-0.9541,-0.2328,
7.063066,0.6163,-0.8174,0.0308,4.3856,1.9940,0.8221,0.2886,-0.9541,-0.2328,
7.064354,0.6163,-0.8174,0.0308,2.5663,1.1534,0.6519,0.2886,-0.9541,-0.2328,
7.065485,0.6163,-0.8174,0.0308,2.5663,1.1534,0.6519,0.2892,-1.1606,-0.1662,
7.074853,0.6163,-0.8174,0.0308,2.5663,1.1534,0.6519,0.2055,-1.1636,-0.0245,
7.083040,0.5127,-0.8721,0.0307,2.5663,1.1534,0.6519,0.2055,-1.1636,-0.0245,
7.084362,0.5127,-0.8721,0.0307,1.4481,0.5778,0.6708,0.2055,-1.1636,-0.0245,
7.085913,0.5127,-0.8721,0.0307,1.4481,0.5778,0.6708,0.0681,-0.9975,0.0897,
7.094896,0.5127,-0.8721,0.0307,1.4481,0.5778,0.6708,-0.0797,-0.7146,0.1496,
7.104689,0.4558,-0.8593,-0.0078,1.4481,0.5778,0.6708,-0.0797,-0.7146,0.1496,
7.106432,0.4558,-0.8593,-0.0078,0.8404,0.6806,0.3392,-0.0797,-0.7146,0.1496,
7.108090,0.4558,-0.8593,-0.0078,0.8404,0.6806,0.3392,-0.2184,-0.3554,0.1991,
7.115070,0.4558,-0.8593,-0.0078,0.8404,0.6806,0.3392,-0.3387,-0.0030,0.2498,
7.123279,0.4654,-0.8407,-0.0386,0.8404,0.6806,0.3392,-0.3387,-0.0030,0.2498,
7.126161,0.4654,-0.8407,-0.0386,0.9082,0.8506,0.0871,-0.3387,-0.0030,0.2498,
7.127424,0.4654,-0.8407,-0.0386,0.9082,0.8506,0.0871,-0.4365,0.2793,0.3023,
7.135107,0.4654,-0.8407,-0.0386,0.9082,0.8506,0.0871,-0.4921,0.4625,0.3555,
7.143357,0.4809,-0.8841,0.1289,0.9082,0.8506,0.0871,-0.4921,0.4625,0.3555,
7.145880,0.4809,-0.8841,0.1289,1.0538,0.4205,1.7545,-0.4921,0.4625,0.3555,
7.147518,0.4809,-0.8841,0.1289,1.0538,0.4205,1.7545,-0.4652,0.5267,0.3988,
7.155593,0.4809,-0.8841,0.1289,1.0538,0.4205,1.7545,0.0681,0.3110,0.4453,
7.163540,0.5843,-1.0107,0.4774,1.0538,0.4205,1.7545,0.0681,0.3110,0.4453,
7.165844,0.5843,-1.0107,0.4774,2.0785,-0.8114,5.0996,0.0681,0.3110,0.4453,
7.167487,0.5843,-1.0107,0.4774,2.0785,-0.8114,5.0996,0.5342,0.0997,0.4275,
7.175379,0.5843,-1.0107,0.4774,2.0785,-0.8114,5.0996,0.8879,-0.1062,0.3768,
7.183396,0.6694,-0.9499,0.1819,2.0785,-0.8114,5.0996,0.8879,-0.1062,0.3768,
7.185246,0.6694,-0.9499,0.1819,2.9174,-0.2064,2.0053,0.8879,-0.1062,0.3768,
7.186986,0.6694,-0.9499,0.1819,2.9174,-0.2064,2.0053,0.9508,-0.2375,0.3090,
7.195293,0.6694,-0.9499,0.1819,2.9174,-0.2064,2.0053,0.7064,-0.2033,0.2394,
7.203511,0.5635,-0.7206,-0.2951,2.9174,-0.2064,2.0053,0.7064,-0.2033,0.2394,
7.204975,0.5635,-0.7206,-0.2951,1.8532,2.0325,-2.8208,0.7064,-0.2033,0.2394,
7.206431,0.5635,-0.7206,-0.2951,1.8532,2.0325,-2.8208,0.3051,-0.0017,0.1832,
7.215027,0.5635,-0.7206,-0.2951,1.8532,2.0325,-2.8208,-0.0516,0.2505,0.1404,
7.223258,0.4994,-0.7506,-0.0638,1.8532,2.0325,-2.8208,-0.0516,0.2505,0.1404,
7.227069,0.4994,-0.7506,-0.0638,1.1792,1.7197,-0.5903,-0.0516,0.2505,0.1404,
7.228857,0.4994,-0.7506,-0.0638,1.1792,1.7197,-0.5903,-0.2416,0.4741,0.1093,
7.235092,0.4994,-0.7506,-0.0638,1.1792,1.7197,-0.5903,-0.2520,0.6207,0.0916,
7.243342,0.4852,-0.8172,-0.0154,1.1792,1.7197,-0.5903,-0.2520,0.6207,0.0916,
7.245399,0.4852,-0.8172,-0.0154,0.9906,1.0468,-0.1141,-0.2520,0.6207,0.0916,
7.246929,0.4852,-0.8172,-0.0154,0.9906,1.0468,-0.1141,-0.1714,0.6781,0.0745,
7.255207,0.4852,-0.8172,-0.0154,0.9906,1.0468,-0.1141,-0.0975,0.6940,0.0458,
7.263200,0.4683,-0.8718,-0.0718,0.9906,1.0468,-0.1141,-0.0975,0.6940,0.0458,
7.264506,0.4683,-0.8718,-0.0718,0.7833,0.4941,-0.6879,-0.0975,0.6940,0.0458,
7.265791,0.4683,-0.8718,-0.0718,0.7833,0.4941,-0.6879,-0.0657,0.6989,0.0091,
7.275171,0.4683,-0.8718,-0.0718,0.7833,0.4941,-0.6879,-0.0614,0.7026,-0.0233,
7.282792,0.4416,-0.9331,-0.0264,0.7833,0.4941,-0.6879,-0.0614,0.7026,-0.0233,
7.284300,0.4416,-0.9331,-0.0264,0.4875,-0.1211,-0.2775,-0.0614,0.7026,-0.0233,
7.287601,0.4416,-0.9331,-0.0264,0.4875,-0.1211,-0.2775,-0.0333,0.6672,-0.0495,
7.294886,0.4416,-0.9331,-0.0264,0.4875,-0.1211,-0.2775,-0.0015,0.6433,-0.0917,
7.302922,0.4301,-0.9894,-0.0404,0.4875,-0.1211,-0.2775,-0.0015,0.6433,-0.0917,
7.304252,0.4301,-0.9894,-0.0404,0.3458,-0.6856,-0.4550,-0.0015,0.6433,-0.0917,
7.305463,0.4301,-0.9894,-0.0404,0.3458,-0.6856,-0.4550,0.0095,0.6580,-0.1503,
7.314977,0.4301,-0.9894,-0.0404,0.3458,-0.6856,-0.4550,0.0143,0.7001,-0.2261,
7.323010,0.3617,-1.0073,-0.0421,0.3458,-0.6856,-0.4550,0.0143,0.7001,-0.2261,
7.324789,0.3617,-1.0073,-0.0421,-0.3628,-0.8773,-0.5204,0.0143,0.7001,-0.2261,
7.325854,0.3617,-1.0073,-0.0421,-0.3628,-0.8773,-0.5204,0.0180,0.7453,-0.3031,
7.334936,0.3617,-1.0073,-0.0421,-0.3628,-0.8773,-0.5204,0.0235,0.7838,-0.3531,
7.343042,0.2095,-0.9995,-0.0237,-0.3628,-0.8773,-0.5204,0.0235,0.7838,-0.3531,
7.344956,0.2095,-0.9995,-0.0237,-1.9064,-0.8244,-0.3965,0.0235,0.7838,-0.3531,
7.346038,0.2095,-0.9995,-0.0237,-1.9064,-0.8244,-0.3965,0.0638,0.7979,-0.3024,
7.355756,0.2095,-0.9995,-0.0237,-1.9064,-0.8244,-0.3965,0.1121,0.8058,-0.2236,
7.363402,0.0847,-0.9609,0.0248,-1.9064,-0.8244,-0.3965,0.1121,0.8058,-0.2236,
7.365840,0.0847,-0.9609,0.0248,-3.1437,-0.4538,0.0101,0.1121,0.8058,-0.2236,
7.367326,0.0847,-0.9609,0.0248,-3.1437,-0.4538,0.0101,0.1768,0.8260,-0.1326,
7.375563,0.0847,-0.9609,0.0248,-3.1437,-0.4538,0.0101,0.2630,0.8632,-0.0502,
7.383450,0.0640,-0.9761,0.1266,-3.1437,-0.4538,0.0101,0.2630,0.8632,-0.0502,
7.385916,0.0640,-0.9761,0.1266,-3.2940,-0.5838,0.9043,0.2630,0.8632,-0.0502,
7.387777,0.0640,-0.9761,0.1266,-3.2940,-0.5838,0.9043,0.3857,0.8999,-0.0007,
7.395561,0.0640,-0.9761,0.1266,-3.2940,-0.5838,0.9043,0.5543,0.9231,-0.0001,
7.404434,0.1573,-1.0128,0.1853,-3.2940,-0.5838,0.9043,0.5543,0.9231,-0.0001,
7.406592,0.1573,-1.0128,0.1853,-2.3020,-0.9171,1.3168,0.5543,0.9231,-0.0001,
7.408224,0.1573,-1.0128,0.1853,-2.3020,-0.9171,1.3168,0.7486,0.9310,-0.0599,
7.415533,0.1573,-1.0128,0.1853,-2.3020,-0.9171,1.3168,0.9416,0.9243,-0.1699,
7.423404,0.2970,-1.0028,0.2498,-2.3020,-0.9171,1.3168,0.9416,0.9243,-0.1699,
7.426352,0.2970,-1.0028,0.2498,-0.8829,-0.8139,1.7083,0.9416,0.9243,-0.1699,
7.428157,0.2970,-1.0028,0.2498,-0.8829,-0.8139,1.7083,1.0888,0.9512,-0.2847,
7.435392,0.2970,-1.0028,0.2498,-0.8829,-0.8139,1.7083,1.1505,0.9958,-0.3715,
7.443434,0.4816,-0.9094,0.2978,-0.8829,-0.8139,1.7083,1.1505,0.9958,-0.3715,
7.446168,0.4816,-0.9094,0.2978,0.9102,0.0648,1.8869,1.1505,0.9958,-0.3715,
7.447672,0.4816,-0.9094,0.2978,0.9102,0.0648,1.8869,1.1322,0.9934,-0.4454,
7.455933,0.4816,-0.9094,0.2978,0.9102,0.0648,1.8869,1.0656,0.9121,-0.5120,
7.463620,0.6259,-0.7858,0.2729,0.9102,0.0648,1.8869,1.0656,0.9121,-0.5120,
7.466497,0.6259,-0.7858,0.2729,2.2617,1.2128,1.3624,1.0656,0.9121,-0.5120,
7.468288,0.6259,-0.7858,0.2729,2.2617,1.2128,1.3624,0.9838,0.7514,-0.5749,
7.475510,0.6259,-0.7858,0.2729,2.2617,1.2128,1.3624,0.8720,0.5444,-0.6195,
7.483472,0.6525,-0.7134,0.1140,2.2617,1.2128,1.3624,0.8720,0.5444,-0.6195,
7.486289,0.6525,-0.7134,0.1140,2.4225,1.8433,-0.4143,0.8720,0.5444,-0.6195,
7.488221,0.6525,-0.7134,0.1140,2.4225,1.8433,-0.4143,0.6814,0.2890,-0.5969,
7.495560,0.6525,-0.7134,0.1140,2.4225,1.8433,-0.4143,0.4322,-0.0671,-0.4955,
7.503489,0.5911,-0.7355,-0.0134,2.4225,1.8433,-0.4143,0.4322,-0.0671,-0.4955,
7.505981,0.5911,-0.7355,-0.0134,1.6998,1.5542,-1.7588,0.4322,-0.0671,-0.4955,
7.508053,0.5911,-0.7355,-0.0134,1.6998,1.5542,-1.7588,0.1799,-0.5137,-0.3165,
7.515892,0.5911,-0.7355,-0.0134,1.6998,1.5542,-1.7588,-0.0229,-0.9797,-0.0679,
7.527554,0.5024,-0.8378,0.0310,1.6998,1.5542,-1.7588,-0.0229,-0.9797,-0.0679,
7.532027,0.5024,-0.8378,0.0310,0.7467,0.5227,-1.2603,-0.0229,-0.9797,-0.0679,
7.533846,0.5024,-0.8378,0.0310,0.7467,0.5227,-1.2603,-0.1689,-1.6022,0.4178,
7.535743,0.5024,-0.8378,0.0310,0.7467,0.5227,-1.2603,-0.1634,-1.6181,0.5564,
7.544891,0.4092,-0.9144,0.0937,0.7467,0.5227,-1.2603,-0.1634,-1.6181,0.5564,
7.547123,0.4092,-0.9144,0.0937,-0.1421,-0.1872,-0.4745,-0.1634,-1.6181,0.5564,
7.548462,0.4092,-0.9144,0.0937,-0.1421,-0.1872,-0.4745,-0.1469,-1.4342,0.6316,
7.555530,0.4092,-0.9144,0.0937,-0.1421,-0.1872,-0.4745,-0.1201,-1.1190,0.6572,
7.563241,0.3109,-0.9215,0.1818,-0.1421,-0.1872,-0.4745,-0.1201,-1.1190,0.6572,
7.565176,0.3109,-0.9215,0.1818,-1.0288,-0.2011,0.5181,-0.1201,-1.1190,0.6572,
7.566599,0.3109,-0.9215,0.1818,-1.0288,-0.2011,0.5181,-0.0858,-0.7494,0.6505,
7.575433,0.3109,-0.9215,0.1818,-1.0288,-0.2011,0.5181,-0.0632,-0.3848,0.6267,
7.584636,0.2780,-0.8808,0.1896,-1.0288,-0.2011,0.5181,-0.0632,-0.3848,0.6267,
7.590356,0.2780,-0.8808,0.1896,-1.2511,0.2508,0.6521,-0.0632,-0.3848,0.6267,
7.594759,0.2780,-0.8808,0.1896,-1.2511,0.2508,0.6521,-0.0712,-0.0879,0.6041,
7.596242,0.2780,-0.8808,0.1896,-1.2511,0.2508,0.6521,-0.1414,0.0679,0.5998,
7.602956,0.2921,-0.8675,0.1195,-1.2511,0.2508,0.6521,-0.1414,0.0679,0.5998,
7.605213,0.2921,-0.8675,0.1195,-1.0055,0.4313,-0.0170,-0.1414,0.0679,0.5998,
7.606412,0.2921,-0.8675,0.1195,-1.0055,0.4313,-0.0170,-0.2935,0.0819,0.6291,
7.614881,0.2921,-0.8675,0.1195,-1.0055,0.4313,-0.0170,-0.5018,0.0447,0.6664,
7.623002,0.3585,-0.8672,0.0690,-1.0055,0.4313,-0.0170,-0.5018,0.0447,0.6664,
7.626229,0.3585,-0.8672,0.0690,-0.2366,0.4934,-0.4455,-0.5018,0.0447,0.6664,
7.627494,0.3585,-0.8672,0.0690,-0.2366,0.4934,-0.4455,-0.7291,0.0050,0.6725,
7.634938,0.3585,-0.8672,0.0690,-0.2366,0.4934,-0.4455,-0.9313,-0.0476,0.6304,
7.643132,0.3617,-0.8706,0.0442,-0.2366,0.4934,-0.4455,-0.9313,-0.0476,0.6304,
7.644922,0.3617,-0.8706,0.0442,-0.0889,0.5251,-0.5372,-0.9313,-0.0476,0.6304,
7.646034,0.3617,-0.8706,0.0442,-0.0889,0.5251,-0.5372,-1.0761,-0.1233,0.5619,
7.655423,0.3617,-0.8706,0.0442,-0.0889,0.5251,-0.5372,-1.1671,-0.2235,0.5021,
7.663247,0.3327,-0.9177,-0.0180,-0.0889,0.5251,-0.5372,-1.1671,-0.2235,0.5021,
7.664946,0.3327,-0.9177,-0.0180,-0.2793,0.1205,-0.9290,-1.1671,-0.2235,0.5021,
7.666591,0.3327,-0.9177,-0.0180,-0.2793,0.1205,-0.9290,-1.2276,-0.3322,0.4630,
7.675498,0.3327,-0.9177,-0.0180,-0.2793,0.1205,-0.9290,-1.2801,-0.3939,0.4446,
7.683595,0.2998,-0.9693,-0.1225,-0.2793,0.1205,-0.9290,-1.2801,-0.3939,0.4446,
7.685447,0.2998,-0.9693,-0.1225,-0.5238,-0.3369,-1.6952,-1.2801,-0.3939,0.4446,
7.687460,0.2998,-0.9693,-0.1225,-0.5238,-0.3369,-1.6952,-1.3418,-0.3573,0.4453,
7.695366,0.2998,-0.9693,-0.1225,-0.5238,-0.3369,-1.6952,-1.4114,-0.2363,0.4630,
7.703767,0.2502,-1.0094,-0.1093,-0.5238,-0.3369,-1.6952,-1.4114,-0.2363,0.4630,
7.705783,0.2502,-1.0094,-0.1093,-0.9251,-0.6872,-1.2868,-1.4114,-0.2363,0.4630,
7.708084,0.2502,-1.0094,-0.1093,-0.9251,-0.6872,-1.2868,-1.4682,-0.0903,0.4850,
7.715613,0.2502,-1.0094,-0.1093,-0.9251,-0.6872,-1.2868,-1.3699,0.1601,0.5283,
7.724087,0.1747,-1.0085,0.0816,-0.9251,-0.6872,-1.2868,-1.3699,0.1601,0.5283,
7.727571,0.1747,-1.0085,0.0816,-1.5623,-0.6394,0.8417,-1.3699,0.1601,0.5283,
7.730056,0.1747,-1.0085,0.0816,-1.5623,-0.6394,0.8417,-1.1799,0.2450,0.5607,
7.735527,0.1747,-1.0085,0.0816,-1.5623,-0.6394,0.8417,-0.9789,0.3165,0.5894,
7.743573,0.1416,-0.9819,0.1182,-1.5623,-0.6394,0.8417,-0.9789,0.3165,0.5894,
7.747323,0.1416,-0.9819,0.1182,-1.7608,-0.3371,1.3672,-0.9789,0.3165,0.5894,
7.749164,0.1416,-0.9819,0.1182,-1.7608,-0.3371,1.3672,-0.8287,0.3238,0.5998,
7.756271,0.1416,-0.9819,0.1182,-1.7608,-0.3371,1.3672,-0.7462,0.2194,0.5803,
7.763548,0.1406,-0.9673,0.0776,-1.7608,-0.3371,1.3672,-0.7462,0.2194,0.5803,
7.765326,0.1406,-0.9673,0.0776,-1.6340,-0.1524,1.0730,-0.7462,0.2194,0.5803,
7.766855,0.1406,-0.9673,0.0776,-1.6340,-0.1524,1.0730,-0.7224,0.0038,0.5497,
7.775734,0.1406,-0.9673,0.0776,-1.6340,-0.1524,1.0730,-0.7358,-0.2363,0.5155,
7.783450,0.1511,-0.9578,0.0224,-1.6340,-0.1524,1.0730,-0.7358,-0.2363,0.5155,
7.785933,0.1511,-0.9578,0.0224,-1.4007,-0.0225,0.6473,-0.7358,-0.2363,0.5155,
7.788820,0.1511,-0.9578,0.0224,-1.4007,-0.0225,0.6473,-0.7578,-0.3909,0.4856,
7.795544,0.1511,-0.9578,0.0224,-1.4007,-0.0225,0.6473,-0.7425,-0.4507,0.4825,
7.803565,0.1437,-0.9253,-0.0244,-1.4007,-0.0225,0.6473,-0.7425,-0.4507,0.4825,
7.806095,0.1437,-0.9253,-0.0244,-1.3497,0.3259,0.3275,-0.7425,-0.4507,0.4825,
7.807795,0.1437,-0.9253,-0.0244,-1.3497,0.3259,0.3275,-0.6863,-0.4544,0.5002,
7.815581,0.1437,-0.9253,-0.0244,-1.3497,0.3259,0.3275,-0.6179,-0.4416,0.5180,
7.823562,0.1554,-0.8780,-0.1262,-1.3497,0.3259,0.3275,-0.6179,-0.4416,0.5180,
7.825981,0.1554,-0.8780,-0.1262,-1.1116,0.8155,-0.5364,-0.6179,-0.4416,0.5180,
7.827885,0.1554,-0.8780,-0.1262,-1.1116,0.8155,-0.5364,-0.5666,-0.4385,0.5222,
7.835359,0.1554,-0.8780,-0.1262,-1.1116,0.8155,-0.5364,-0.5342,-0.4807,0.5106,
7.843370,0.1753,-0.8541,-0.1405,-1.1116,0.8155,-0.5364,-0.5342,-0.4807,0.5106,
7.846185,0.1753,-0.8541,-0.1405,-0.7985,1.0725,-0.5549,-0.5342,-0.4807,0.5106,
7.847850,0.1753,-0.8541,-0.1405,-0.7985,1.0725,-0.5549,-0.5067,-0.5668,0.4899,
7.856861,0.1753,-0.8541,-0.1405,-0.7985,1.0725,-0.5549,-0.4682,-0.7042,0.4697,
