
time,gFx,gFy,gFz,ax,ay,az,wx,wy,wz,
0.066359,0.1220,0.5453,1.0938,0.0000,0.0000,0.0000,0.0000,0.0000,0.0000,
0.066859,0.0877,0.5559,0.9451,0.0000,0.0000,0.0000,0.0000,0.0000,0.0000,
0.067261,-0.1726,0.4407,0.7128,0.0000,0.0000,0.0000,0.0000,0.0000,0.0000,
0.092441,-0.3128,0.3618,0.7774,0.0000,0.0000,0.0000,0.0000,0.0000,0.0000,
0.094592,-0.2522,0.3683,0.8430,0.0000,0.0000,0.0000,0.0000,0.0000,0.0000,
0.095566,-0.2522,0.3683,0.8430,0.1213,-0.1771,-0.4053,0.0000,0.0000,0.0000,
0.114752,-0.1198,0.4365,0.8084,0.1213,-0.1771,-0.4053,0.0000,0.0000,0.0000,
0.115815,-0.1198,0.4365,0.8084,0.0940,-0.3425,-0.6344,0.0000,0.0000,0.0000,
0.131441,-0.1198,0.4365,0.8084,0.0940,-0.3425,-0.6344,-0.0755,-0.1801,0.2363,
0.134530,-0.0144,0.4613,0.7424,0.0940,-0.3425,-0.6344,-0.0755,-0.1801,0.2363,
0.135492,-0.0144,0.4613,0.7424,0.0204,-0.6541,-1.0529,-0.0755,-0.1801,0.2363,
0.141302,-0.0144,0.4613,0.7424,0.0204,-0.6541,-1.0529,-0.2099,-0.1502,0.1704,
0.151439,-0.0144,0.4613,0.7424,0.0204,-0.6541,-1.0529,-0.3174,-0.1190,0.1123,
0.154762,-0.0428,0.4721,0.7486,0.0204,-0.6541,-1.0529,-0.3174,-0.1190,0.1123,
0.155709,-0.0428,0.4721,0.7486,0.0542,-0.5986,-0.9492,-0.3174,-0.1190,0.1123,
0.162298,-0.0428,0.4721,0.7486,0.0542,-0.5986,-0.9492,-0.3894,-0.1203,0.0787,
0.171643,-0.0428,0.4721,0.7486,0.0542,-0.5986,-0.9492,-0.4334,-0.1679,0.0848,
0.174998,-0.1073,0.4503,0.7635,0.0542,-0.5986,-0.9492,-0.4334,-0.1679,0.0848,
0.176184,-0.1073,0.4503,0.7635,0.1270,-0.5331,-0.9040,-0.4334,-0.1679,0.0848,
0.181680,-0.1073,0.4503,0.7635,0.1270,-0.5331,-0.9040,-0.4408,-0.3292,0.1307,
0.191500,-0.1073,0.4503,0.7635,0.1270,-0.5331,-0.9040,-0.4102,-0.6364,0.2168,
0.194988,-0.1709,0.4001,0.7365,0.1270,-0.5331,-0.9040,-0.4102,-0.6364,0.2168,
0.196354,-0.1709,0.4001,0.7365,0.2845,-0.6661,-1.2263,-0.4102,-0.6364,0.2168,
0.201700,-0.1709,0.4001,0.7365,0.2845,-0.6661,-1.2263,-0.3711,-0.9804,0.3445,
0.211699,-0.1709,0.4001,0.7365,0.2845,-0.6661,-1.2263,-0.3296,-1.2852,0.4984,
0.215528,-0.1647,0.4071,0.7424,0.2845,-0.6661,-1.2263,-0.3296,-1.2852,0.4984,
0.216933,-0.1647,0.4071,0.7424,0.2583,-0.6386,-1.1646,-0.3296,-1.2852,0.4984,
0.221608,-0.1647,0.4071,0.7424,0.2583,-0.6386,-1.1646,-0.3027,-1.4477,0.6120,
0.231711,-0.1647,0.4071,0.7424,0.2583,-0.6386,-1.1646,-0.2807,-1.1740,0.5002,
0.234799,0.3337,0.6390,0.7897,0.2583,-0.6386,-1.1646,-0.2807,-1.1740,0.5002,
0.236113,0.3337,0.6390,0.7897,0.2098,0.4017,0.4964,-0.2807,-1.1740,0.5002,
0.241628,0.3337,0.6390,0.7897,0.2098,0.4017,0.4964,-0.2734,-0.6621,0.2131,
0.251619,0.3337,0.6390,0.7897,0.2098,0.4017,0.4964,-0.3607,-0.5466,-0.0605,
0.254791,0.1732,0.6021,0.7295,0.2098,0.4017,0.4964,-0.3607,-0.5466,-0.0605,
0.255880,0.1732,0.6021,0.7295,-0.0690,-0.2398,-0.2905,-0.3607,-0.5466,-0.0605,
0.261588,0.1732,0.6021,0.7295,-0.0690,-0.2398,-0.2905,-0.4988,-0.6688,-0.2719,
0.271674,0.1732,0.6021,0.7295,-0.0690,-0.2398,-0.2905,-0.6301,-0.8765,-0.3916,
0.274861,-0.1339,0.4837,0.7599,-0.0690,-0.2398,-0.2905,-0.6301,-0.8765,-0.3916,
0.276224,-0.1339,0.4837,0.7599,0.1296,-0.4683,-0.7357,-0.6301,-0.8765,-0.3916,
0.281618,-0.1339,0.4837,0.7599,0.1296,-0.4683,-0.7357,-0.7609,-1.1129,-0.3678,
0.291591,-0.1339,0.4837,0.7599,0.1296,-0.4683,-0.7357,-1.0333,-1.3114,0.0641,
0.294902,-0.2213,0.4167,0.8003,0.1296,-0.4683,-0.7357,-1.0333,-1.3114,0.0641,
0.296360,-0.2213,0.4167,0.8003,0.1672,-0.3148,-0.6046,-1.0333,-1.3114,0.0641,
0.301726,-0.2213,0.4167,0.8003,0.1672,-0.3148,-0.6046,-1.1390,-1.4104,0.3909,
0.311726,-0.2213,0.4167,0.8003,0.1672,-0.3148,-0.6046,-1.2025,-1.5228,0.6945,
0.315601,-0.0800,0.4018,0.8515,0.1672,-0.3148,-0.6046,-1.2025,-1.5228,0.6945,
0.317098,-0.0800,0.4018,0.8515,0.0463,-0.2322,-0.4922,-1.2025,-1.5228,0.6945,
0.321661,-0.0800,0.4018,0.8515,0.0463,-0.2322,-0.4922,-1.2337,-1.5912,0.8906,
0.331663,-0.0800,0.4018,0.8515,0.0463,-0.2322,-0.4922,-1.2404,-1.6260,0.9572,
0.334839,0.1554,0.3971,0.8900,0.0463,-0.2322,-0.4922,-1.2404,-1.6260,0.9572,
0.336410,0.1554,0.3971,0.8900,-0.0213,-0.0544,-0.1218,-1.2404,-1.6260,0.9572,
0.341650,0.1554,0.3971,0.8900,-0.0213,-0.0544,-0.1218,-1.2111,-1.6676,0.9168,
0.351679,0.1554,0.3971,0.8900,-0.0213,-0.0544,-0.1218,-1.1329,-1.6828,0.8191,
0.354857,0.2295,0.3948,0.9719,-0.0213,-0.0544,-0.1218,-1.1329,-1.6828,0.8191,
0.356152,0.2295,0.3948,0.9719,0.1532,0.2635,0.6485,-1.1329,-1.6828,0.8191,
0.361864,0.2295,0.3948,0.9719,0.1532,0.2635,0.6485,-0.9991,-1.5967,0.7189,
0.371605,0.2295,0.3948,0.9719,0.1532,0.2635,0.6485,-0.8036,-1.4293,0.6707,
0.375096,0.1835,0.3406,1.0930,0.1532,0.2635,0.6485,-0.8036,-1.4293,0.6707,
0.376416,0.1835,0.3406,1.0930,0.2462,0.4571,1.4669,-0.8036,-1.4293,0.6707,
0.381711,0.1835,0.3406,1.0930,0.2462,0.4571,1.4669,-0.5660,-1.2766,0.6786,
0.391593,0.1835,0.3406,1.0930,0.2462,0.4571,1.4669,-0.3180,-1.1771,0.7085,
0.394959,0.2083,0.3276,1.1038,0.2462,0.4571,1.4669,-0.3180,-1.1771,0.7085,
0.396289,0.2083,0.3276,1.1038,0.2954,0.4647,1.5659,-0.3180,-1.1771,0.7085,
0.401639,0.2083,0.3276,1.1038,0.2954,0.4647,1.5659,-0.0950,-1.1361,0.7440,
0.411681,0.2083,0.3276,1.1038,0.2954,0.4647,1.5659,0.0858,-1.1490,0.7788,
0.415408,0.2623,0.3988,0.9694,0.2954,0.4647,1.5659,0.0858,-1.1490,0.7788,
0.416815,0.2623,0.3988,0.9694,0.1900,0.2889,0.7023,0.0858,-1.1490,0.7788,
0.421574,0.2623,0.3988,0.9694,0.1900,0.2889,0.7023,0.2220,-1.2113,0.7996,
0.431610,0.2623,0.3988,0.9694,0.1900,0.2889,0.7023,0.3167,-1.2326,0.8136,
0.434990,0.2312,0.4140,0.9036,0.1900,0.2889,0.7023,0.3167,-1.2326,0.8136,
0.436322,0.2312,0.4140,0.9036,0.0439,0.0785,0.1714,0.3167,-1.2326,0.8136,
0.441621,0.2312,0.4140,0.9036,0.0439,0.0785,0.1714,0.3839,-1.1343,0.8735,
0.452273,0.2312,0.4140,0.9036,0.0439,0.0785,0.1714,0.4163,-0.9351,0.9828,
0.455325,0.3408,0.5023,0.7718,0.0439,0.0785,0.1714,0.4163,-0.9351,0.9828,
0.457484,0.3408,0.5023,0.7718,-0.0640,-0.0943,-0.1449,0.4163,-0.9351,0.9828,
0.462221,0.3408,0.5023,0.7718,-0.0640,-0.0943,-0.1449,0.3931,-0.7177,1.0732,
0.472292,0.3408,0.5023,0.7718,-0.0640,-0.0943,-0.1449,0.1854,-0.4361,1.0873,
0.475425,0.3271,0.4796,0.7914,-0.0640,-0.0943,-0.1449,0.1854,-0.4361,1.0873,
0.477596,0.3271,0.4796,0.7914,-0.0626,-0.0918,-0.1515,0.1854,-0.4361,1.0873,
0.483739,0.3271,0.4796,0.7914,-0.0626,-0.0918,-0.1515,0.0742,-0.3872,1.1117,
0.492061,0.3271,0.4796,0.7914,-0.0626,-0.0918,-0.1515,-0.0370,-0.3554,1.2412,
0.495521,0.1140,0.3153,0.9793,-0.0626,-0.0918,-0.1515,-0.0370,-0.3554,1.2412,
0.497869,0.1140,0.3153,0.9793,0.0371,0.1027,0.3191,-0.0370,-0.3554,1.2412,
0.503343,0.1140,0.3153,0.9793,0.0371,0.1027,0.3191,-0.1695,-0.5100,1.4062,
0.512371,0.1140,0.3153,0.9793,0.0371,0.1027,0.3191,-0.0364,-0.5387,1.2400,
0.517754,0.3539,0.4648,1.0006,0.0371,0.1027,0.3191,-0.0364,-0.5387,1.2400,
0.520174,0.3539,0.4648,1.0006,0.4727,0.6209,1.3366,-0.0364,-0.5387,1.2400,
0.522465,0.3539,0.4648,1.0006,0.4727,0.6209,1.3366,0.3253,-0.8472,1.0189,
0.533068,0.3539,0.4648,1.0006,0.4727,0.6209,1.3366,0.4627,-1.2363,0.8808,
0.536296,0.4109,0.5487,0.8966,0.4727,0.6209,1.3366,0.4627,-1.2363,0.8808,
0.538785,0.4109,0.5487,0.8966,0.4566,0.6097,0.9962,0.4627,-1.2363,0.8808,
0.542168,0.4109,0.5487,0.8966,0.4566,0.6097,0.9962,0.4096,-1.2394,0.8881,
0.552195,0.4109,0.5487,0.8966,0.4566,0.6097,0.9962,0.2165,-1.1019,0.8167,
0.555024,0.3806,0.5259,0.7123,0.4566,0.6097,0.9962,0.2165,-1.1019,0.8167,
0.556701,0.3806,0.5259,0.7123,-0.1431,-0.1976,-0.2677,0.2165,-1.1019,0.8167,
0.561925,0.3806,0.5259,0.7123,-0.1431,-0.1976,-0.2677,0.0211,-0.8716,0.7122,
0.571883,0.3806,0.5259,0.7123,-0.1431,-0.1976,-0.2677,-0.1598,-0.8173,0.5375,
0.574807,0.4602,0.4252,0.7383,-0.1431,-0.1976,-0.2677,-0.1598,-0.8173,0.5375,
0.576487,0.4602,0.4252,0.7383,-0.1507,-0.1393,-0.2419,-0.1598,-0.8173,0.5375,
0.582800,0.4602,0.4252,0.7383,-0.1507,-0.1393,-0.2419,-0.3216,-0.8508,0.2339,
0.591971,0.4602,0.4252,0.7383,-0.1507,-0.1393,-0.2419,-0.3803,-0.7898,-0.1949,
0.594894,0.3475,0.2945,0.7556,-0.1507,-0.1393,-0.2419,-0.3803,-0.7898,-0.1949,
0.596740,0.3475,0.2945,0.7556,-0.4568,-0.3871,-0.9933,-0.3803,-0.7898,-0.1949,
0.601957,0.3475,0.2945,0.7556,-0.4568,-0.3871,-0.9933,-0.3510,-0.5931,-0.5370,
0.612000,0.3475,0.2945,0.7556,-0.4568,-0.3871,-0.9933,-0.3186,-0.4501,-0.7264,
0.616995,0.2923,0.0981,0.6390,-0.4568,-0.3871,-0.9933,-0.3186,-0.4501,-0.7264,
0.618452,0.2923,0.0981,0.6390,-1.1757,-0.3945,-2.5701,-0.3186,-0.4501,-0.7264,
0.621773,0.2923,0.0981,0.6390,-1.1757,-0.3945,-2.5701,-0.3125,-0.4892,-0.8492,
0.633052,0.2923,0.0981,0.6390,-1.1757,-0.3945,-2.5701,-0.3149,-0.6633,-0.9029,
0.634637,0.1736,-0.0386,0.5173,-1.1757,-0.3945,-2.5701,-0.3149,-0.6633,-0.9029,
0.635652,0.1736,-0.0386,0.5173,-1.4107,0.3137,-4.2043,-0.3149,-0.6633,-0.9029,
0.641471,0.1736,-0.0386,0.5173,-1.4107,0.3137,-4.2043,-0.3400,-0.9895,-0.8418,
0.651417,0.1736,-0.0386,0.5173,-1.4107,0.3137,-4.2043,-0.4292,-1.3218,-0.5278,
0.654589,-0.0017,-0.1302,0.5124,-1.4107,0.3137,-4.2043,-0.4292,-1.3218,-0.5278,
0.655501,-0.0017,-0.1302,0.5124,0.0150,1.1391,-4.4827,-0.4292,-1.3218,-0.5278,
0.661267,-0.0017,-0.1302,0.5124,0.0150,1.1391,-4.4827,-0.7260,-1.8368,0.7739,
0.671332,-0.0017,-0.1302,0.5124,0.0150,1.1391,-4.4827,-0.9398,-2.2125,1.3738,
0.674369,0.2168,-0.1858,0.4950,0.0150,1.1391,-4.4827,-0.9398,-2.2125,1.3738,
0.675186,0.2168,-0.1858,0.4950,-1.5962,1.3678,-3.6439,-0.9398,-2.2125,1.3738,
0.681378,0.2168,-0.1858,0.4950,-1.5962,1.3678,-3.6439,-1.1671,-2.6419,1.8191,
0.691246,0.2168,-0.1858,0.4950,-1.5962,1.3678,-3.6439,-1.3644,-2.9822,2.1648,
0.694614,0.3040,-0.2557,0.5650,-1.5962,1.3678,-3.6439,-1.3644,-2.9822,2.1648,
0.695648,0.3040,-0.2557,0.5650,-1.3376,1.1248,-2.4855,-1.3644,-2.9822,2.1648,
0.701317,0.3040,-0.2557,0.5650,-1.3376,1.1248,-2.4855,-1.4682,-3.1721,2.4422,
0.711250,0.3040,-0.2557,0.5650,-1.3376,1.1248,-2.4855,-1.5819,-3.2479,2.6236,
0.715128,0.3690,-0.2981,0.5580,-1.3376,1.1248,-2.4855,-1.5819,-3.2479,2.6236,
0.716944,0.3690,-0.2981,0.5580,-1.3249,1.0701,-2.0033,-1.5819,-3.2479,2.6236,
0.721313,0.3690,-0.2981,0.5580,-1.3249,1.0701,-2.0033,-1.7028,-3.2112,2.7061,
0.731310,0.3690,-0.2981,0.5580,-1.3249,1.0701,-2.0033,-1.8097,-3.0658,2.7268,
0.734386,0.4052,-0.3329,0.6374,-1.3249,1.0701,-2.0033,-1.8097,-3.0658,2.7268,
0.735425,0.4052,-0.3329,0.6374,-0.8434,0.6928,-1.3267,-1.8097,-3.0658,2.7268,
0.741251,0.4052,-0.3329,0.6374,-0.8434,0.6928,-1.3267,-1.8494,-2.7708,2.7653,
0.751270,0.4052,-0.3329,0.6374,-0.8434,0.6928,-1.3267,-1.8476,-2.3902,2.8118,
0.754569,0.4798,-0.2944,0.6231,-0.8434,0.6928,-1.3267,-1.8476,-2.3902,2.8118,
0.755449,0.4798,-0.2944,0.6231,-0.9013,0.5530,-1.1704,-1.8476,-2.3902,2.8118,
0.761250,0.4798,-0.2944,0.6231,-0.9013,0.5530,-1.1704,-1.8940,-1.9748,2.8289,
0.771314,0.4798,-0.2944,0.6231,-0.9013,0.5530,-1.1704,-2.0492,-1.5906,2.7733,
0.774453,0.8089,-0.4233,0.5099,-0.9013,0.5530,-1.1704,-2.0492,-1.5906,2.7733,
0.775359,0.8089,-0.4233,0.5099,0.3411,-0.1785,0.2150,-2.0492,-1.5906,2.7733,
0.781334,0.8089,-0.4233,0.5099,0.3411,-0.1785,0.2150,-2.3070,-1.2400,2.6059,
0.791199,0.8089,-0.4233,0.5099,0.3411,-0.1785,0.2150,-2.6142,-0.8655,2.3567,
0.794461,1.1907,-0.4233,0.5210,0.3411,-0.1785,0.2150,-2.6142,-0.8655,2.3567,
0.795445,1.1907,-0.4233,0.5210,3.1266,-1.1114,1.3679,-2.6142,-0.8655,2.3567,
0.801376,1.1907,-0.4233,0.5210,3.1266,-1.1114,1.3679,-2.9368,-0.5503,2.0854,
0.811334,1.1907,-0.4233,0.5210,3.1266,-1.1114,1.3679,-3.2379,-0.3579,1.8643,
0.814499,1.1845,-0.4285,0.6089,3.1266,-1.1114,1.3679,-3.2379,-0.3579,1.8643,
0.815573,1.1845,-0.4285,0.6089,3.3057,-1.1959,1.6994,-3.2379,-0.3579,1.8643,
0.821193,1.1845,-0.4285,0.6089,3.3057,-1.1959,1.6994,-3.4920,-0.2693,1.7537,
0.831436,1.1845,-0.4285,0.6089,3.3057,-1.1959,1.6994,-3.6948,-0.3017,1.7672,
0.835022,1.3445,-0.4333,0.6909,3.3057,-1.1959,1.6994,-3.6948,-0.3017,1.7672,
0.837310,1.3445,-0.4333,0.6909,4.7916,-1.5441,2.4622,-3.6948,-0.3017,1.7672,
0.841826,1.3445,-0.4333,0.6909,4.7916,-1.5441,2.4622,-3.9972,-0.7849,1.9113,
0.851931,1.3445,-0.4333,0.6909,4.7916,-1.5441,2.4622,-4.0504,-1.0928,1.9871,
0.855053,1.4761,-0.3514,0.7929,4.7916,-1.5441,2.4622,-4.0504,-1.0928,1.9871,
0.856712,1.4761,-0.3514,0.7929,6.0106,-1.4310,3.2286,-4.0504,-1.0928,1.9871,
0.861854,1.4761,-0.3514,0.7929,6.0106,-1.4310,3.2286,-4.0546,-1.4666,2.0555,
0.871990,1.4761,-0.3514,0.7929,6.0106,-1.4310,3.2286,-4.0155,-1.8881,2.1435,
0.875240,1.5639,-0.3204,0.8325,6.0106,-1.4310,3.2286,-4.0155,-1.8881,2.1435,
0.877412,1.5639,-0.3204,0.8325,6.8080,-1.3948,3.6239,-4.0155,-1.8881,2.1435,
0.883128,1.5639,-0.3204,0.8325,6.8080,-1.3948,3.6239,-3.9380,-2.2332,2.2510,
0.892158,1.5639,-0.3204,0.8325,6.8080,-1.3948,3.6239,-3.8476,-2.5203,2.2797,
0.895198,1.7806,-0.2568,0.7769,6.8080,-1.3948,3.6239,-3.8476,-2.5203,2.2797,
0.897575,1.7806,-0.2568,0.7769,8.5393,-1.2314,3.7257,-3.8476,-2.5203,2.2797,
0.903065,1.7806,-0.2568,0.7769,8.5393,-1.2314,3.7257,-3.7437,-2.7555,2.1716,
0.912230,1.7806,-0.2568,0.7769,8.5393,-1.2314,3.7257,-3.5684,-2.8404,1.9608,
0.917803,1.8869,-0.0274,0.8237,8.5393,-1.2314,3.7257,-3.5684,-2.8404,1.9608,
0.920060,1.8869,-0.0274,0.8237,9.5048,-0.1378,4.1491,-3.5684,-2.8404,1.9608,
0.922449,1.8869,-0.0274,0.8237,9.5048,-0.1378,4.1491,-3.3222,-2.7592,1.6810,
0.933194,1.8869,-0.0274,0.8237,9.5048,-0.1378,4.1491,-3.0479,-2.6492,1.3658,
0.935717,1.7582,0.1412,0.8302,9.5048,-0.1378,4.1491,-3.0479,-2.6492,1.3658,
0.937617,1.7582,0.1412,0.8302,8.3853,0.6735,3.9593,-3.0479,-2.6492,1.3658,
0.942055,1.7582,0.1412,0.8302,8.3853,0.6735,3.9593,-2.7559,-2.6657,1.0665,
0.952227,1.7582,0.1412,0.8302,8.3853,0.6735,3.9593,-2.4505,-2.8343,0.8448,
0.955324,1.5325,0.0518,0.7746,8.3853,0.6735,3.9593,-2.4505,-2.8343,0.8448,
0.957104,1.5325,0.0518,0.7746,6.2705,0.2119,3.1693,-2.4505,-2.8343,0.8448,
0.962500,1.5325,0.0518,0.7746,6.2705,0.2119,3.1693,-2.1292,-3.0481,0.7366,
0.972478,1.5325,0.0518,0.7746,6.2705,0.2119,3.1693,-1.8592,-3.2570,0.7299,
0.975293,1.3680,0.0574,0.4846,6.2705,0.2119,3.1693,-1.8592,-3.2570,0.7299,
0.977109,1.3680,0.0574,0.4846,4.1697,0.1750,1.4770,-1.8592,-3.2570,0.7299,
0.984533,1.3680,0.0574,0.4846,4.1697,0.1750,1.4770,-1.6662,-3.3554,0.7605,
0.992191,1.3680,0.0574,0.4846,4.1697,0.1750,1.4770,-1.5257,-3.2742,0.7470,
0.995468,1.2527,0.0894,0.3439,4.1697,0.1750,1.4770,-1.5257,-3.2742,0.7470,
0.999445,1.2527,0.0894,0.3439,2.8418,0.2028,0.7801,-1.5257,-3.2742,0.7470,
1.002348,1.2527,0.0894,0.3439,2.8418,0.2028,0.7801,-1.4462,-3.0426,0.6780,
1.012320,1.2527,0.0894,0.3439,2.8418,0.2028,0.7801,-1.4267,-2.7989,0.5693,
1.018292,1.1298,0.0325,0.3076,2.8418,0.2028,0.7801,-1.4267,-2.7989,0.5693,
1.020621,1.1298,0.0325,0.3076,1.6134,0.0464,0.4392,-1.4267,-2.7989,0.5693,
1.023450,1.1298,0.0325,0.3076,1.6134,0.0464,0.4392,-1.3882,-2.5203,0.4605,
1.033461,1.1298,0.0325,0.3076,1.6134,0.0464,0.4392,-1.2544,-2.1129,0.2596,
1.036566,1.1226,-0.1769,0.2194,1.6134,0.0464,0.4392,-1.2544,-2.1129,0.2596,
1.038961,1.1226,-0.1769,0.2194,1.4898,-0.2347,0.2912,-1.2544,-2.1129,0.2596,
1.042349,1.1226,-0.1769,0.2194,1.4898,-0.2347,0.2912,-1.2312,-1.9730,0.1368,
1.052330,1.1226,-0.1769,0.2194,1.4898,-0.2347,0.2912,-1.2654,-1.7696,-0.0062,
1.055365,1.1912,-0.2614,0.1808,1.4898,-0.2347,0.2912,-1.2654,-1.7696,-0.0062,
1.057289,1.1912,-0.2614,0.1808,2.1989,-0.4825,0.3337,-1.2654,-1.7696,-0.0062,
1.062518,1.1912,-0.2614,0.1808,2.1989,-0.4825,0.3337,-1.3571,-1.5045,-0.2047,
1.072286,1.1912,-0.2614,0.1808,2.1989,-0.4825,0.3337,-1.4890,-1.1697,-0.4552,
1.075390,1.2066,-0.1255,0.1485,2.1989,-0.4825,0.3337,-1.4890,-1.1697,-0.4552,
1.077553,1.2066,-0.1255,0.1485,2.1432,-0.2228,0.2638,-1.4890,-1.1697,-0.4552,
1.084166,1.2066,-0.1255,0.1485,2.1432,-0.2228,0.2638,-1.6338,-0.8600,-0.6738,
1.092162,1.2066,-0.1255,0.1485,2.1432,-0.2228,0.2638,-1.7340,-0.6523,-0.7917,
1.095595,0.9364,-0.2156,0.1744,2.1432,-0.2228,0.2638,-1.7340,-0.6523,-0.7917,
1.098079,0.9364,-0.2156,0.1744,-0.5344,-1.2058,0.6916,-1.7340,-0.6523,-0.7917,
1.103826,0.9364,-0.2156,0.1744,-0.5344,-1.2058,0.6916,-1.7443,-0.4452,-0.7563,
1.112326,0.9364,-0.2156,0.1744,-0.5344,-1.2058,0.6916,-1.6393,-0.0744,-0.6293,
1.118692,0.7823,-0.2935,0.2470,-0.5344,-1.2058,0.6916,-1.6393,-0.0744,-0.6293,
1.121723,0.7823,-0.2935,0.2470,-2.0578,-2.0440,1.4609,-1.6393,-0.0744,-0.6293,
1.123820,0.7823,-0.2935,0.2470,-2.0578,-2.0440,1.4609,-1.4823,0.3709,-0.5364,
1.132856,0.7823,-0.2935,0.2470,-2.0578,-2.0440,1.4609,-1.3473,0.7307,-0.5260,
1.135239,0.8636,-0.3865,0.2163,-2.0578,-2.0440,1.4609,-1.3473,0.7307,-0.5260,
1.137358,0.8636,-0.3865,0.2163,-1.2495,-2.9677,1.0449,-1.3473,0.7307,-0.5260,
1.142081,0.8636,-0.3865,0.2163,-1.2495,-2.9677,1.0449,-1.1512,0.9579,-0.5657,
1.152066,0.8636,-0.3865,0.2163,-1.2495,-2.9677,1.0449,-0.7260,0.8889,-0.5779,
1.155097,0.8596,-0.5195,0.5824,-1.2495,-2.9677,1.0449,-0.7260,0.8889,-0.5779,
1.156768,0.8596,-0.5195,0.5824,-1.2606,-4.2687,4.4034,-0.7260,0.8889,-0.5779,
1.161850,0.8596,-0.5195,0.5824,-1.2606,-4.2687,4.4034,-0.1127,0.5914,-0.5358,
1.172644,0.8596,-0.5195,0.5824,-1.2606,-4.2687,4.4034,0.5269,0.3220,-0.4307,
1.175258,0.9545,-0.3138,0.1556,-1.2606,-4.2687,4.4034,0.5269,0.3220,-0.4307,
1.177250,0.9545,-0.3138,0.1556,-0.3118,-2.2591,0.0851,0.5269,0.3220,-0.4307,
1.183780,0.9545,-0.3138,0.1556,-0.3118,-2.2591,0.0851,0.9086,0.2035,-0.3507,
1.192204,0.9545,-0.3138,0.1556,-0.3118,-2.2591,0.0851,0.9502,0.2004,-0.3446,
1.195341,0.6900,-0.3457,0.1292,-0.3118,-2.2591,0.0851,0.9502,0.2004,-0.3446,
1.198042,0.6900,-0.3457,0.1292,-2.8892,-2.5607,-0.2605,0.9502,0.2004,-0.3446,
1.204867,0.6900,-0.3457,0.1292,-2.8892,-2.5607,-0.2605,0.8732,0.3581,-0.2682,
1.212118,0.6900,-0.3457,0.1292,-2.8892,-2.5607,-0.2605,0.7956,1.0960,0.1930,
1.216643,0.3834,-0.3247,0.1942,-2.8892,-2.5607,-0.2605,0.7956,1.0960,0.1930,
1.218462,0.3834,-0.3247,0.1942,-5.8537,-2.2652,0.1854,0.7956,1.0960,0.1930,
1.221875,0.3834,-0.3247,0.1942,-5.8537,-2.2652,0.1854,0.8195,1.8730,0.5717,
1.232810,0.3834,-0.3247,0.1942,-5.8537,-2.2652,0.1854,0.7236,2.4277,0.9046,
1.235160,0.4325,-0.3588,0.1785,-5.8537,-2.2652,0.1854,0.7236,2.4277,0.9046,
1.237042,0.4325,-0.3588,0.1785,-5.2541,-2.3533,-0.4193,0.7236,2.4277,0.9046,
1.241900,0.4325,-0.3588,0.1785,-5.2541,-2.3533,-0.4193,0.4456,2.0691,0.9938,
1.252036,0.4325,-0.3588,0.1785,-5.2541,-2.3533,-0.4193,0.3228,1.7233,1.0457,
1.254715,0.5449,-0.6133,0.2447,-5.2541,-2.3533,-0.4193,0.3228,1.7233,1.0457,
1.255838,0.5449,-0.6133,0.2447,-4.0090,-4.5124,-0.1549,0.3228,1.7233,1.0457,
1.261485,0.5449,-0.6133,0.2447,-4.0090,-4.5124,-0.1549,0.2141,1.9182,1.1795,
1.271629,0.5449,-0.6133,0.2447,-4.0090,-4.5124,-0.1549,-0.0975,2.2407,1.2522,
1.274622,0.6827,-0.7206,-0.0275,-4.0090,-4.5124,-0.1549,-0.0975,2.2407,1.2522,
1.275582,0.6827,-0.7206,-0.0275,-2.4815,-5.1622,-3.1738,-0.0975,2.2407,1.2522,
1.281537,0.6827,-0.7206,-0.0275,-2.4815,-5.1622,-3.1738,-0.5440,2.6011,1.2357,
1.291468,0.6827,-0.7206,-0.0275,-2.4815,-5.1622,-3.1738,-1.0956,3.0526,1.2345,
1.294753,0.6525,-0.8936,-0.1608,-2.4815,-5.1622,-3.1738,-1.0956,3.0526,1.2345,
1.295807,0.6525,-0.8936,-0.1608,-2.5313,-6.3796,-4.8682,-1.0956,3.0526,1.2345,
1.301401,0.6525,-0.8936,-0.1608,-2.5313,-6.3796,-4.8682,-1.4053,3.1796,1.4501,
1.311429,0.6525,-0.8936,-0.1608,-2.5313,-6.3796,-4.8682,-1.5513,3.3928,1.6279,
1.314760,0.8027,-1.0638,-0.2515,-2.5313,-6.3796,-4.8682,-1.5513,3.3928,1.6279,
1.315828,0.8027,-1.0638,-0.2515,-0.7389,-7.4660,-6.1206,-1.5513,3.3928,1.6279,
1.321291,0.8027,-1.0638,-0.2515,-0.7389,-7.4660,-6.1206,-2.0131,3.7074,1.4917,
1.331274,0.8027,-1.0638,-0.2515,-0.7389,-7.4660,-6.1206,-2.6093,3.5529,1.2211,
1.334430,1.0079,-1.4453,-0.3051,-0.7389,-7.4660,-6.1206,-2.6093,3.5529,1.2211,
1.335843,1.0079,-1.4453,-0.3051,1.6445,-10.5876,-6.9402,-2.6093,3.5529,1.2211,
1.341373,1.0079,-1.4453,-0.3051,1.6445,-10.5876,-6.9402,-3.1915,3.1857,0.9248,
1.354308,1.0079,-1.4453,-0.3051,1.6445,-10.5876,-6.9402,-3.3198,2.8333,0.6664,
1.355598,0.7389,-1.2636,0.8000,1.6445,-10.5876,-6.9402,-3.3198,2.8333,0.6664,
1.356697,0.7389,-1.2636,0.8000,-0.6466,-8.2300,3.7525,-3.3198,2.8333,0.6664,
1.361259,0.7389,-1.2636,0.8000,-0.6466,-8.2300,3.7525,-2.4933,2.1491,0.4966,
1.371440,0.7389,-1.2636,0.8000,-0.6466,-8.2300,3.7525,-1.1726,0.7062,0.5760,
1.374548,0.4708,-0.9709,0.6765,-0.6466,-8.2300,3.7525,-1.1726,0.7062,0.5760,
1.375378,0.4708,-0.9709,0.6765,-3.0471,-4.9638,2.5340,-1.1726,0.7062,0.5760,
1.382272,0.4708,-0.9709,0.6765,-3.0471,-4.9638,2.5340,-0.0150,-0.4342,0.8521,
1.391508,0.4708,-0.9709,0.6765,-3.0471,-4.9638,2.5340,0.8793,-0.0824,1.1820,
1.394911,0.2924,-0.4687,0.4893,-3.0471,-4.9638,2.5340,0.8793,-0.0824,1.1820,
1.396076,0.2924,-0.4687,0.4893,-4.6491,0.2171,0.7266,0.8793,-0.0824,1.1820,
1.401717,0.2924,-0.4687,0.4893,-4.6491,0.2171,0.7266,1.3643,-0.4452,1.9730,
1.411715,0.2924,-0.4687,0.4893,-4.6491,0.2171,0.7266,1.1096,-1.0659,2.5014,
1.415529,0.3425,-0.5133,0.2976,-4.6491,0.2171,0.7266,1.1096,-1.0659,2.5014,
1.416963,0.3425,-0.5133,0.2976,-3.9281,0.1305,-1.1421,1.1096,-1.0659,2.5014,
1.421630,0.3425,-0.5133,0.2976,-3.9281,0.1305,-1.1421,0.8176,-1.4849,2.8154,
1.432348,0.3425,-0.5133,0.2976,-3.9281,0.1305,-1.1421,0.5317,-1.4128,2.7983,
1.435225,0.4731,-0.4614,0.2774,-3.9281,0.1305,-1.1421,0.5317,-1.4128,2.7983,
1.437119,0.4731,-0.4614,0.2774,-2.4074,1.0721,-1.1887,0.5317,-1.4128,2.7983,
1.441774,0.4731,-0.4614,0.2774,-2.4074,1.0721,-1.1887,0.2581,-1.0268,2.5027,
1.452074,0.4731,-0.4614,0.2774,-2.4074,1.0721,-1.1887,-0.0193,-0.5699,2.1154,
1.455066,0.4698,-0.4570,0.2158,-2.4074,1.0721,-1.1887,-0.0193,-0.5699,2.1154,
1.456739,0.4698,-0.4570,0.2158,-2.1955,1.4832,-1.6790,-0.0193,-0.5699,2.1154,
1.462094,0.4698,-0.4570,0.2158,-2.1955,1.4832,-1.6790,-0.2978,-0.1648,1.7269,
1.472021,0.4698,-0.4570,0.2158,-2.1955,1.4832,-1.6790,-0.5025,-0.0885,1.3029,
1.474999,0.4969,-0.3156,0.1537,-2.1955,1.4832,-1.6790,-0.5025,-0.0885,1.3029,
1.476647,0.4969,-0.3156,0.1537,-1.7483,3.1159,-2.2111,-0.5025,-0.0885,1.3029,
1.483065,0.4969,-0.3156,0.1537,-1.7483,3.1159,-2.2111,-0.5312,-0.6053,0.7996,
1.491930,0.4969,-0.3156,0.1537,-1.7483,3.1159,-2.2111,-0.3968,-1.5747,0.3915,
1.495373,0.2260,-0.7156,0.0610,-1.7483,3.1159,-2.2111,-0.3968,-1.5747,0.3915,
1.497206,0.2260,-0.7156,0.0610,-4.3681,-0.6317,-2.8843,-0.3968,-1.5747,0.3915,
1.501985,0.2260,-0.7156,0.0610,-4.3681,-0.6317,-2.8843,-0.4279,-2.0720,0.6016,
1.511973,0.2260,-0.7156,0.0610,-4.3681,-0.6317,-2.8843,-0.7688,-1.6089,1.7708,
1.517293,0.1220,-1.4214,-0.0180,-4.3681,-0.6317,-2.8843,-0.7688,-1.6089,1.7708,
1.519206,0.1220,-1.4214,-0.0180,-5.2613,-7.2336,-3.2809,-0.7688,-1.6089,1.7708,
1.522077,0.1220,-1.4214,-0.0180,-5.2613,-7.2336,-3.2809,-0.9240,-1.6047,2.7256,
1.533915,0.1220,-1.4214,-0.0180,-5.2613,-7.2336,-3.2809,-0.8897,-1.7995,3.2223,
1.536411,0.5628,-1.3605,0.0563,-5.2613,-7.2336,-3.2809,-0.8897,-1.7995,3.2223,
1.538222,0.5628,-1.3605,0.0563,-0.5489,-6.1164,-2.1530,-0.8897,-1.7995,3.2223,
1.541977,0.5628,-1.3605,0.0563,-0.5489,-6.1164,-2.1530,-0.6912,-2.0475,3.4116,
1.552029,0.5628,-1.3605,0.0563,-0.5489,-6.1164,-2.1530,-0.3296,-2.5228,3.3597,
1.555475,0.4671,-1.0095,0.2377,-0.5489,-6.1164,-2.1530,-0.3296,-2.5228,3.3597,
1.557011,0.4671,-1.0095,0.2377,-1.0302,-2.1910,0.0052,-0.3296,-2.5228,3.3597,
1.562025,0.4671,-1.0095,0.2377,-1.0302,-2.1910,0.0052,0.0730,-3.1593,2.9797,
1.571945,0.4671,-1.0095,0.2377,-1.0302,-2.1910,0.0052,0.3430,-2.9425,2.7519,
1.575123,0.5143,-0.9600,0.0603,-1.0302,-2.1910,0.0052,0.3430,-2.9425,2.7519,
1.576917,0.5143,-0.9600,0.0603,-0.2041,-1.3639,-1.3996,0.3430,-2.9425,2.7519,
1.583383,0.5143,-0.9600,0.0603,-0.2041,-1.3639,-1.3996,-0.0113,-1.3542,2.7152,
1.592107,0.5143,-0.9600,0.0603,-0.2041,-1.3639,-1.3996,-0.3314,-0.8545,2.8453,
1.595152,0.4704,-1.0765,-0.0467,-0.2041,-1.3639,-1.3996,-0.3314,-0.8545,2.8453,
1.597201,0.4704,-1.0765,-0.0467,-0.1939,-2.1944,-2.2671,-0.3314,-0.8545,2.8453,
1.601932,0.4704,-1.0765,-0.0467,-0.1939,-2.1944,-2.2671,-0.6338,-0.6945,3.1447,
1.611880,0.4704,-1.0765,-0.0467,-0.1939,-2.1944,-2.2671,-0.8274,-0.8710,3.6395,
1.616850,0.4796,-1.1441,-0.1219,-0.1939,-2.1944,-2.2671,-0.8274,-0.8710,3.6395,
1.618765,0.4796,-1.1441,-0.1219,0.4555,-2.5112,-2.7604,-0.8274,-0.8710,3.6395,
1.621856,0.4796,-1.1441,-0.1219,0.4555,-2.5112,-2.7604,-0.8995,-1.3872,4.3102,
1.633795,0.4796,-1.1441,-0.1219,0.4555,-2.5112,-2.7604,-0.7737,-2.1923,5.0151,
1.636426,0.5049,-1.1906,-0.0817,0.4555,-2.5112,-2.7604,-0.7737,-2.1923,5.0151,
1.638386,0.5049,-1.1906,-0.0817,1.4673,-2.5835,-2.0364,-0.7737,-2.1923,5.0151,
1.642145,0.5049,-1.1906,-0.0817,1.4673,-2.5835,-2.0364,-0.4713,-2.9913,5.6071,
1.652348,0.5049,-1.1906,-0.0817,1.4673,-2.5835,-2.0364,-0.0425,-3.5240,5.9944,
1.655650,0.3342,-1.2908,0.1220,1.4673,-2.5835,-2.0364,-0.0425,-3.5240,5.9944,
1.657752,0.3342,-1.2908,0.1220,0.7654,-3.2196,0.2244,-0.0425,-3.5240,5.9944,
1.662124,0.3342,-1.2908,0.1220,0.7654,-3.2196,0.2244,0.4792,-3.7464,5.9937,
1.672277,0.3342,-1.2908,0.1220,0.7654,-3.2196,0.2244,0.9367,-3.5649,5.4116,
1.675506,0.3538,-0.9183,0.3308,0.7654,-3.2196,0.2244,0.9367,-3.5649,5.4116,
1.677459,0.3538,-0.9183,0.3308,1.8970,0.6325,2.2802,0.9367,-3.5649,5.4116,
1.684347,0.3538,-0.9183,0.3308,1.8970,0.6325,2.2802,0.8488,-2.4538,4.1563,
1.692041,0.3538,-0.9183,0.3308,1.8970,0.6325,2.2802,0.1732,-0.8454,2.5057,
1.695371,0.2470,-0.8448,0.0303,1.8970,0.6325,2.2802,0.1732,-0.8454,2.5057,
1.697742,0.2470,-0.8448,0.0303,1.3637,1.4179,-0.7130,0.1732,-0.8454,2.5057,
1.703726,0.2470,-0.8448,0.0303,1.3637,1.4179,-0.7130,-0.2166,-0.4434,1.3921,
1.712112,0.2470,-0.8448,0.0303,1.3637,1.4179,-0.7130,-0.3931,-0.5564,0.7018,
1.718318,-0.2099,-0.9118,0.0525,1.3637,1.4179,-0.7130,-0.3931,-0.5564,0.7018,
1.720445,-0.2099,-0.9118,0.0525,-2.9538,0.7853,-0.4218,-0.3931,-0.5564,0.7018,
1.722861,-0.2099,-0.9118,0.0525,-2.9538,0.7853,-0.4218,-0.6106,-0.3267,0.2125,
1.735029,-0.2099,-0.9118,0.0525,-2.9538,0.7853,-0.4218,-0.7944,0.1644,-0.0819,
1.737194,-0.4962,-0.9083,0.1950,-2.9538,0.7853,-0.4218,-0.7944,0.1644,-0.0819,
1.739525,-0.4962,-0.9083,0.1950,-5.7337,0.8330,1.1054,-0.7944,0.1644,-0.0819,
1.742344,-0.4962,-0.9083,0.1950,-5.7337,0.8330,1.1054,-0.8836,0.7117,-0.2194,
1.752332,-0.4962,-0.9083,0.1950,-5.7337,0.8330,1.1054,-0.8623,1.1632,-0.1852,
1.757985,-0.3540,-0.8912,0.2199,-5.7337,0.8330,1.1054,-0.8623,1.1632,-0.1852,
1.760255,-0.3540,-0.8912,0.2199,-4.2951,1.0138,1.4706,-0.8623,1.1632,-0.1852,
1.762976,-0.3540,-0.8912,0.2199,-4.2951,1.0138,1.4706,-0.7822,1.4320,0.0146,
1.773089,-0.3540,-0.8912,0.2199,-4.2951,1.0138,1.4706,-0.6857,1.1516,0.0506,
1.775486,-0.1358,-0.9822,0.0796,-4.2951,1.0138,1.4706,-0.6857,1.1516,0.0506,
1.777236,-0.1358,-0.9822,0.0796,-2.0624,0.1356,0.1899,-0.6857,1.1516,0.0506,
1.784459,-0.1358,-0.9822,0.0796,-2.0624,0.1356,0.1899,-0.7193,0.6305,0.0629,
1.791938,-0.1358,-0.9822,0.0796,-2.0624,0.1356,0.1899,-0.7773,0.0227,-0.0153,
1.794823,0.0818,-0.9687,0.0470,-2.0624,0.1356,0.1899,-0.7773,0.0227,-0.0153,
1.796452,0.0818,-0.9687,0.0470,0.1194,0.2786,-0.0083,-0.7773,0.0227,-0.0153,
1.801798,0.0818,-0.9687,0.0470,0.1194,0.2786,-0.0083,-0.7981,-0.5430,-0.2010,
1.811715,0.0818,-0.9687,0.0470,0.1194,0.2786,-0.0083,-0.7822,-0.9871,-0.4845,
1.816675,0.2432,-0.9435,0.0458,0.1194,0.2786,-0.0083,-0.7822,-0.9871,-0.4845,
1.818245,0.2432,-0.9435,0.0458,1.6368,0.5267,0.1335,-0.7822,-0.9871,-0.4845,
1.821654,0.2432,-0.9435,0.0458,1.6368,0.5267,0.1335,-0.7706,-1.2442,-0.8449,
1.834493,0.2432,-0.9435,0.0458,1.6368,0.5267,0.1335,-0.8018,-1.3279,-1.2462,
1.836899,0.3174,-0.9457,0.0169,1.6368,0.5267,0.1335,-0.8018,-1.3279,-1.2462,
1.839912,0.3174,-0.9457,0.0169,2.1508,0.4905,0.0161,-0.8018,-1.3279,-1.2462,
1.842359,0.3174,-0.9457,0.0169,2.1508,0.4905,0.0161,-0.8733,-1.3047,-1.6909,
1.851923,0.3174,-0.9457,0.0169,2.1508,0.4905,0.0161,-0.9331,-1.1984,-2.1601,
1.855186,0.3505,-0.9237,0.0125,2.1508,0.4905,0.0161,-0.9331,-1.1984,-2.1601,
1.856885,0.3505,-0.9237,0.0125,2.0896,0.6614,0.1657,-0.9331,-1.1984,-2.1601,
1.862157,0.3505,-0.9237,0.0125,2.0896,0.6614,0.1657,-0.9313,-1.0616,-2.6268,
1.872075,0.3505,-0.9237,0.0125,2.0896,0.6614,0.1657,-0.8684,-0.9003,-3.0990,
1.875337,0.4302,-0.8205,0.0180,2.0896,0.6614,0.1657,-0.8684,-0.9003,-3.0990,
1.877033,0.4302,-0.8205,0.0180,2.3042,1.5747,0.4082,-0.8684,-0.9003,-3.0990,
1.884046,0.4302,-0.8205,0.0180,2.3042,1.5747,0.4082,-0.7590,-0.6609,-3.5761,
1.891898,0.4302,-0.8205,0.0180,2.3042,1.5747,0.4082,-0.6094,-0.3677,-3.9487,
1.895261,0.2503,-1.1063,-0.0151,2.3042,1.5747,0.4082,-0.6094,-0.3677,-3.9487,
1.897060,0.2503,-1.1063,-0.0151,-0.1690,-1.3998,0.2247,-0.6094,-0.3677,-3.9487,
1.901929,0.2503,-1.1063,-0.0151,-0.1690,-1.3998,0.2247,-0.4682,-0.0989,-4.0929,
1.911945,0.2503,-1.1063,-0.0151,-0.1690,-1.3998,0.2247,-0.3418,0.1833,-3.9267,
1.916945,0.2456,-1.3535,-0.1275,-0.1690,-1.3998,0.2247,-0.3418,0.1833,-3.9267,
1.918885,0.2456,-1.3535,-0.1275,-0.9294,-4.0527,-0.8134,-0.3418,0.1833,-3.9267,
1.921967,0.2456,-1.3535,-0.1275,-0.9294,-4.0527,-0.8134,-0.2202,0.4918,-3.4600,
1.934828,0.2456,-1.3535,-0.1275,-0.9294,-4.0527,-0.8134,-0.0669,0.7753,-2.7135,
1.936960,0.4118,-1.2217,-0.1303,-0.9294,-4.0527,-0.8134,-0.0669,0.7753,-2.7135,
1.939202,0.4118,-1.2217,-0.1303,0.1822,-2.9639,-0.8617,-0.0669,0.7753,-2.7135,
1.942005,0.4118,-1.2217,-0.1303,0.1822,-2.9639,-0.8617,0.0718,1.0111,-1.7923,
1.952084,0.4118,-1.2217,-0.1303,0.1822,-2.9639,-0.8617,0.0583,0.9262,-0.0135,
1.955169,0.6555,-0.7363,-0.1394,0.1822,-2.9639,-0.8617,0.0583,0.9262,-0.0135,
1.956864,0.6555,-0.7363,-0.1394,2.4093,1.7251,-1.0336,0.0583,0.9262,-0.0135,
1.961899,0.6555,-0.7363,-0.1394,2.4093,1.7251,-1.0336,-0.1390,0.5737,0.4563,
1.972018,0.6555,-0.7363,-0.1394,2.4093,1.7251,-1.0336,-0.4047,0.3177,0.4648,
1.975343,0.7035,-0.6841,-0.1645,2.4093,1.7251,-1.0336,-0.4047,0.3177,0.4648,
1.977172,0.7035,-0.6841,-0.1645,2.9468,2.2662,-1.2542,-0.4047,0.3177,0.4648,
1.984676,0.7035,-0.6841,-0.1645,2.9468,2.2662,-1.2542,-0.6466,0.2640,0.2327,
1.991922,0.7035,-0.6841,-0.1645,2.9468,2.2662,-1.2542,-0.8109,0.2744,0.0574,
1.995188,0.3434,-0.8928,-0.1737,2.9468,2.2662,-1.2542,-0.8109,0.2744,0.0574,
1.997242,0.3434,-0.8928,-0.1737,-0.5650,0.2222,-1.2211,-0.8109,0.2744,0.0574,
2.002107,0.3434,-0.8928,-0.1737,-0.5650,0.2222,-1.2211,-0.8781,0.2224,0.0335,
2.012114,0.3434,-0.8928,-0.1737,-0.5650,0.2222,-1.2211,-0.8494,0.0477,0.1301,
2.017273,0.1456,-1.0511,-0.1495,-0.5650,0.2222,-1.2211,-0.8494,0.0477,0.1301,
2.019199,0.1456,-1.0511,-0.1495,-2.4805,-1.3291,-0.8278,-0.8494,0.0477,0.1301,
2.022272,0.1456,-1.0511,-0.1495,-2.4805,-1.3291,-0.8278,-0.7401,-0.2302,0.2510,
2.034271,0.1456,-1.0511,-0.1495,-2.4805,-1.3291,-0.8278,-0.5977,-0.4862,0.3347,
2.036256,0.1060,-1.0935,-0.1308,-2.4805,-1.3291,-0.8278,-0.5977,-0.4862,0.3347,
2.037937,0.1060,-1.0935,-0.1308,-2.7779,-1.7184,-0.4839,-0.5977,-0.4862,0.3347,
2.041919,0.1060,-1.0935,-0.1308,-2.7779,-1.7184,-0.4839,-0.4701,-0.6364,0.3738,
2.051869,0.1060,-1.0935,-0.1308,-2.7779,-1.7184,-0.4839,-0.3717,-0.6706,0.3439,
2.055077,0.0741,-1.0520,-0.1007,-2.7779,-1.7184,-0.4839,-0.3717,-0.6706,0.3439,
2.056615,0.0741,-1.0520,-0.1007,-2.9555,-1.2683,-0.0540,-0.3717,-0.6706,0.3439,
2.061821,0.0741,-1.0520,-0.1007,-2.9555,-1.2683,-0.0540,-0.2929,-0.5870,0.2498,
2.071872,0.0741,-1.0520,-0.1007,-2.9555,-1.2683,-0.0540,-0.2111,-0.4019,0.1032,
2.075152,0.1309,-0.9281,-0.0574,-2.9555,-1.2683,-0.0540,-0.2111,-0.4019,0.1032,
2.076802,0.1309,-0.9281,-0.0574,-2.2926,-0.0206,0.4517,-0.2111,-0.4019,0.1032,
2.084559,0.1309,-0.9281,-0.0574,-2.2926,-0.0206,0.4517,-0.1042,-0.1813,-0.0886,
2.092018,0.1309,-0.9281,-0.0574,-2.2926,-0.0206,0.4517,0.0382,-0.0378,-0.2536,
2.095422,0.1603,-0.9352,-0.1250,-2.2926,-0.0206,0.4517,0.0382,-0.0378,-0.2536,
2.097817,0.1603,-0.9352,-0.1250,-1.9673,-0.0770,-0.1940,0.0382,-0.0378,-0.2536,
2.103370,0.1603,-0.9352,-0.1250,-1.9673,-0.0770,-0.1940,0.2013,-0.0030,-0.2884,
2.112117,0.1603,-0.9352,-0.1250,-1.9673,-0.0770,-0.1940,0.3534,-0.0702,-0.2670,
2.117873,0.2806,-0.9524,-0.2031,-1.9673,-0.0770,-0.1940,0.3534,-0.0702,-0.2670,
2.120277,0.2806,-0.9524,-0.2031,-0.7852,-0.2408,-0.9948,0.3534,-0.0702,-0.2670,
2.122689,0.2806,-0.9524,-0.2031,-0.7852,-0.2408,-0.9948,0.4676,-0.1997,-0.2603,
2.135565,0.2806,-0.9524,-0.2031,-0.7852,-0.2408,-0.9948,0.5348,-0.3359,-0.2976,
2.138041,0.3722,-1.0526,-0.2535,-0.7852,-0.2408,-0.9948,0.5348,-0.3359,-0.2976,
2.140370,0.3722,-1.0526,-0.2535,0.1026,-1.2209,-1.5385,0.5348,-0.3359,-0.2976,
2.142862,0.3722,-1.0526,-0.2535,0.1026,-1.2209,-1.5385,0.5476,-0.5424,-0.3171,
2.152134,0.3722,-1.0526,-0.2535,0.1026,-1.2209,-1.5385,0.5104,-0.6603,-0.3232,
2.156144,0.4416,-1.1542,-0.2388,0.1026,-1.2209,-1.5385,0.5104,-0.6603,-0.3232,
2.158376,0.4416,-1.1542,-0.2388,0.7581,-2.2233,-1.4259,0.5104,-0.6603,-0.3232,
2.162280,0.4416,-1.1542,-0.2388,0.7581,-2.2233,-1.4259,0.4584,-0.8331,-0.3079,
2.172273,0.4416,-1.1542,-0.2388,0.7581,-2.2233,-1.4259,0.4016,-1.0866,-0.2737,
2.175502,0.5173,-1.1338,-0.1233,0.7581,-2.2233,-1.4259,0.4016,-1.0866,-0.2737,
2.177302,0.5173,-1.1338,-0.1233,1.4732,-2.0342,-0.2920,0.4016,-1.0866,-0.2737,
2.185085,0.5173,-1.1338,-0.1233,1.4732,-2.0342,-0.2920,0.3473,-1.3683,-0.2322,
2.192158,0.5173,-1.1338,-0.1233,1.4732,-2.0342,-0.2920,0.3002,-1.5423,-0.1894,
2.195765,0.5758,-1.0333,-0.0094,1.4732,-2.0342,-0.2920,0.3002,-1.5423,-0.1894,
2.197493,0.5758,-1.0333,-0.0094,2.0355,-1.0583,0.8706,0.3002,-1.5423,-0.1894,
2.203312,0.5758,-1.0333,-0.0094,2.0355,-1.0583,0.8706,0.2703,-1.4580,-0.1467,
2.212164,0.5758,-1.0333,-0.0094,2.0355,-1.0583,0.8706,0.2593,-1.0995,-0.1009,
2.218605,0.5888,-0.9461,-0.0100,2.0355,-1.0583,0.8706,0.2593,-1.0995,-0.1009,
2.221575,0.5888,-0.9461,-0.0100,2.1581,-0.2097,0.9060,0.2593,-1.0995,-0.1009,
2.224256,0.5888,-0.9461,-0.0100,2.1581,-0.2097,0.9060,0.2599,-0.6022,-0.0599,
2.235284,0.5888,-0.9461,-0.0100,2.1581,-0.2097,0.9060,0.2605,-0.1337,-0.0288,
2.237567,0.6248,-0.9347,-0.0340,2.1581,-0.2097,0.9060,0.2605,-0.1337,-0.0288,
2.239605,0.6248,-0.9347,-0.0340,2.4897,-0.1040,0.6433,0.2605,-0.1337,-0.0288,
2.242176,0.6248,-0.9347,-0.0340,2.4897,-0.1040,0.6433,0.2514,0.1583,0.0073,
2.252471,0.6248,-0.9347,-0.0340,2.4897,-0.1040,0.6433,0.2226,0.2017,0.0604,
2.255571,0.5918,-0.9508,0.0176,2.4897,-0.1040,0.6433,0.2226,0.2017,0.0604,
2.257825,0.5918,-0.9508,0.0176,2.1378,-0.2663,1.0787,0.2226,0.2017,0.0604,
2.262076,0.5918,-0.9508,0.0176,2.1378,-0.2663,1.0787,0.1774,0.0661,0.1154,
2.272214,0.5918,-0.9508,0.0176,2.1378,-0.2663,1.0787,0.1322,-0.1038,0.1325,
2.275437,0.4073,-0.8833,0.1148,2.1378,-0.2663,1.0787,0.1322,-0.1038,0.1325,
2.277414,0.4073,-0.8833,0.1148,0.3235,0.3985,1.9797,0.1322,-0.1038,0.1325,
2.285235,0.4073,-0.8833,0.1148,0.3235,0.3985,1.9797,0.1182,-0.2626,0.1129,
2.292156,0.4073,-0.8833,0.1148,0.3235,0.3985,1.9797,0.1597,-0.3848,0.0873,
2.295418,0.3044,-0.7906,0.2431,0.3235,0.3985,1.9797,0.1597,-0.3848,0.0873,
2.297651,0.3044,-0.7906,0.2431,-0.6875,1.3110,3.1802,0.1597,-0.3848,0.0873,
2.303525,0.3044,-0.7906,0.2431,-0.6875,1.3110,3.1802,0.2850,-0.4275,0.0708,
2.312128,0.3044,-0.7906,0.2431,-0.6875,1.3110,3.1802,0.5116,-0.3334,0.0476,
2.318462,0.3433,-0.7013,0.2696,-0.6875,1.3110,3.1802,0.5116,-0.3334,0.0476,
2.320900,0.3433,-0.7013,0.2696,-0.3183,2.1915,3.3170,0.5116,-0.3334,0.0476,
2.323868,0.3433,-0.7013,0.2696,-0.3183,2.1915,3.3170,1.1169,0.2377,-0.1198,
2.335646,0.3433,-0.7013,0.2696,-0.3183,2.1915,3.3170,1.3332,0.5456,-0.2719,
2.337955,0.4529,-0.6670,0.0726,-0.3183,2.1915,3.3170,1.3332,0.5456,-0.2719,
2.341437,0.4529,-0.6670,0.0726,0.6803,2.5144,1.0727,1.3332,0.5456,-0.2719,
2.343900,0.4529,-0.6670,0.0726,0.6803,2.5144,1.0727,1.4401,0.7661,-0.4313,
2.352095,0.4529,-0.6670,0.0726,0.6803,2.5144,1.0727,1.4713,0.8596,-0.5938,
2.355721,0.4983,-0.6430,-0.0153,0.6803,2.5144,1.0727,1.4713,0.8596,-0.5938,
2.357805,0.4983,-0.6430,-0.0153,0.9874,2.6982,-0.1436,1.4713,0.8596,-0.5938,
2.362274,0.4983,-0.6430,-0.0153,0.9874,2.6982,-0.1436,1.5000,0.7710,-0.7612,
2.372444,0.4983,-0.6430,-0.0153,0.9874,2.6982,-0.1436,1.6105,0.4778,-0.9206,
2.375363,0.4081,-0.6937,0.1396,0.9874,2.6982,-0.1436,1.6105,0.4778,-0.9206,
2.377336,0.4081,-0.6937,0.1396,-0.0739,2.1156,1.0235,1.6105,0.4778,-0.9206,
2.385570,0.4081,-0.6937,0.1396,-0.0739,2.1156,1.0235,1.8011,0.0990,-1.0324,
2.392095,0.4081,-0.6937,0.1396,-0.0739,2.1156,1.0235,1.9703,-0.2210,-1.0599,
2.395578,0.1716,-0.9263,0.0530,-0.0739,2.1156,1.0235,1.9703,-0.2210,-1.0599,
2.397791,0.1716,-0.9263,0.0530,-2.5756,-0.2693,-0.1561,1.9703,-0.2210,-1.0599,
2.402965,0.1716,-0.9263,0.0530,-2.5756,-0.2693,-0.1561,2.0088,-0.4355,-1.0025,
2.412112,0.1716,-0.9263,0.0530,-2.5756,-0.2693,-0.1561,1.8537,-0.5369,-0.9035,
2.415354,0.0632,-1.2038,-0.2405,-2.5756,-0.2693,-0.1561,1.8537,-0.5369,-0.9035,
2.417581,0.0632,-1.2038,-0.2405,-3.7559,-3.0701,-3.2870,1.8537,-0.5369,-0.9035,
2.422902,0.0632,-1.2038,-0.2405,-3.7559,-3.0701,-3.2870,1.5342,-0.5863,-0.7924,
2.436436,0.0632,-1.2038,-0.2405,-3.7559,-3.0701,-3.2870,1.1634,-0.7268,-0.6977,
2.438880,0.0807,-1.5042,-0.3254,-3.7559,-3.0701,-3.2870,1.1634,-0.7268,-0.6977,
2.441584,0.0807,-1.5042,-0.3254,-3.6353,-6.0511,-4.2183,1.1634,-0.7268,-0.6977,
2.443920,0.0807,-1.5042,-0.3254,-3.6353,-6.0511,-4.2183,0.8231,-0.9559,-0.6439,
2.452192,0.0807,-1.5042,-0.3254,-3.6353,-6.0511,-4.2183,0.6081,-1.2186,-0.6262,
2.455622,0.2924,-1.6044,0.1140,-3.6353,-6.0511,-4.2183,0.6081,-1.2186,-0.6262,
2.457502,0.2924,-1.6044,0.1140,-1.5961,-7.0477,0.1142,0.6081,-1.2186,-0.6262,
2.462231,0.2924,-1.6044,0.1140,-1.5961,-7.0477,0.1142,0.5635,-1.2888,-0.6781,
2.472497,0.2924,-1.6044,0.1140,-1.5961,-7.0477,0.1142,0.6289,-0.9755,-0.7679,
2.475511,0.4042,-1.1993,0.1277,-1.5961,-7.0477,0.1142,0.6289,-0.9755,-0.7679,
2.477414,0.4042,-1.1993,0.1277,-0.5606,-3.1050,0.2844,0.6289,-0.9755,-0.7679,
2.485193,0.4042,-1.1993,0.1277,-0.5606,-3.1050,0.2844,0.6557,-0.3341,-0.8229,
2.492212,0.4042,-1.1993,0.1277,-0.5606,-3.1050,0.2844,0.5733,0.4711,-0.8382,
2.495315,0.4722,-1.0015,0.0357,-0.5606,-3.1050,0.2844,0.5733,0.4711,-0.8382,
2.497341,0.4722,-1.0015,0.0357,0.0367,-1.2124,-0.6921,0.5733,0.4711,-0.8382,
2.503131,0.4722,-1.0015,0.0357,0.0367,-1.2124,-0.6921,0.1530,1.8027,-0.7190,
2.512140,0.4722,-1.0015,0.0357,0.0367,-1.2124,-0.6921,-0.1005,2.1900,-0.6054,
2.515470,0.5437,-0.8469,0.0695,0.0367,-1.2124,-0.6921,-0.1005,2.1900,-0.6054,
2.517650,0.5437,-0.8469,0.0695,0.7171,0.2728,-0.5117,-0.1005,2.1900,-0.6054,
2.522994,0.5437,-0.8469,0.0695,0.7171,0.2728,-0.5117,-0.3113,2.3256,-0.4918,
2.535671,0.5437,-0.8469,0.0695,0.7171,0.2728,-0.5117,-0.4591,2.2914,-0.3855,
2.538111,0.4755,-0.7754,0.0608,0.7171,0.2728,-0.5117,-0.4591,2.2914,-0.3855,
2.540331,0.4755,-0.7754,0.0608,0.0584,0.9612,-0.7120,-0.4591,2.2914,-0.3855,
2.542934,0.4755,-0.7754,0.0608,0.0584,0.9612,-0.7120,-0.5330,2.2218,-0.2548,
2.552129,0.4755,-0.7754,0.0608,0.0584,0.9612,-0.7120,-0.5422,2.1797,-0.1332,
2.555331,0.3126,-0.7712,0.0610,0.0584,0.9612,-0.7120,-0.5422,2.1797,-0.1332,
2.557588,0.3126,-0.7712,0.0610,-1.4871,1.0183,-0.7892,-0.5422,2.1797,-0.1332,
2.562016,0.3126,-0.7712,0.0610,-1.4871,1.0183,-0.7892,-0.5244,2.1632,-0.0404,
2.571969,0.3126,-0.7712,0.0610,-1.4871,1.0183,-0.7892,-0.5171,2.1369,0.0653,
2.575396,0.1103,-0.7771,0.0083,-1.4871,1.0183,-0.7892,-0.5171,2.1369,0.0653,
2.577202,0.1103,-0.7771,0.0083,-3.3587,1.0076,-1.3658,-0.5171,2.1369,0.0653,
2.582190,0.1103,-0.7771,0.0083,-3.3587,1.0076,-1.3658,-0.5483,2.0825,0.2027,
2.591998,0.1103,-0.7771,0.0083,-3.3587,1.0076,-1.3658,-0.6320,2.0196,0.3414,
2.595476,0.0027,-0.7093,-0.0443,-3.3587,1.0076,-1.3658,-0.6320,2.0196,0.3414,
2.597058,0.0027,-0.7093,-0.0443,-4.2391,1.7554,-1.9059,-0.6320,2.0196,0.3414,
2.602264,0.0027,-0.7093,-0.0443,-4.2391,1.7554,-1.9059,-0.7718,1.9921,0.4508,
2.611922,0.0027,-0.7093,-0.0443,-4.2391,1.7554,-1.9059,-0.9545,2.0159,0.5228,
2.615165,-0.0673,-0.6312,-0.0352,-4.2391,1.7554,-1.9059,-0.9545,2.0159,0.5228,
2.617073,-0.0673,-0.6312,-0.0352,-4.6935,2.6379,-1.7756,-0.9545,2.0159,0.5228,
2.621818,-0.0673,-0.6312,-0.0352,-4.6935,2.6379,-1.7756,-1.1304,2.0660,0.5742,
2.631885,-0.0673,-0.6312,-0.0352,-4.6935,2.6379,-1.7756,-1.2288,2.0569,0.6151,
2.636355,-0.0790,-0.6709,0.1543,-4.6935,2.6379,-1.7756,-1.2288,2.0569,0.6151,
2.638239,-0.0790,-0.6709,0.1543,-4.5398,2.3788,0.1587,-1.2288,2.0569,0.6151,
2.641779,-0.0790,-0.6709,0.1543,-4.5398,2.3788,0.1587,-1.2153,1.9237,0.6194,
2.651922,-0.0790,-0.6709,0.1543,-4.5398,2.3788,0.1587,-1.1420,1.6867,0.5601,
2.655317,0.0540,-0.6998,0.0628,-4.5398,2.3788,0.1587,-1.1420,1.6867,0.5601,
2.656741,0.0540,-0.6998,0.0628,-2.9834,2.2120,-0.6353,-1.1420,1.6867,0.5601,
2.662129,0.0540,-0.6998,0.0628,-2.9834,2.2120,-0.6353,-1.0577,1.3623,0.4343,
2.672219,0.0540,-0.6998,0.0628,-2.9834,2.2120,-0.6353,-0.9472,0.9512,0.2718,
2.675321,0.2489,-0.8234,0.3170,-2.9834,2.2120,-0.6353,-0.9472,0.9512,0.2718,
2.677268,0.2489,-0.8234,0.3170,-0.9083,1.0739,1.9420,-0.9472,0.9512,0.2718,
2.682221,0.2489,-0.8234,0.3170,-0.9083,1.0739,1.9420,-0.7382,0.4601,0.1087,
2.692191,0.2489,-0.8234,0.3170,-0.9083,1.0739,1.9420,0.2697,-0.5857,-0.2114,
2.695266,0.4395,-0.9555,0.8760,-0.9083,1.0739,1.9420,0.2697,-0.5857,-0.2114,
2.697398,0.4395,-0.9555,0.8760,0.9870,-0.2169,7.3665,0.2697,-0.5857,-0.2114,
2.703549,0.4395,-0.9555,0.8760,0.9870,-0.2169,7.3665,0.8555,-1.0054,-0.3953,
2.712269,0.4395,-0.9555,0.8760,0.9870,-0.2169,7.3665,1.0931,-1.2412,-0.5627,
2.715514,0.4863,-0.9083,0.4059,0.9870,-0.2169,7.3665,1.0931,-1.2412,-0.5627,
2.717885,0.4863,-0.9083,0.4059,1.3458,0.1802,2.5652,1.0931,-1.2412,-0.5627,
2.723143,0.4863,-0.9083,0.4059,1.3458,0.1802,2.5652,0.9025,-1.2888,-0.6567,
2.732242,0.4863,-0.9083,0.4059,1.3458,0.1802,2.5652,0.3583,-1.1288,-0.6103,
2.738252,0.2151,-0.8914,-0.5665,1.3458,0.1802,2.5652,0.3583,-1.1288,-0.6103,
2.740563,0.2151,-0.8914,-0.5665,-1.4473,0.2909,-6.9870,0.3583,-1.1288,-0.6103,
2.743468,0.2151,-0.8914,-0.5665,-1.4473,0.2909,-6.9870,-0.4035,-0.8942,-0.3831,
2.752170,0.2151,-0.8914,-0.5665,-1.4473,0.2909,-6.9870,-1.0418,-0.6206,-0.0892,
2.755464,0.1429,-1.0533,-0.4099,-1.4473,0.2909,-6.9870,-1.0418,-0.6206,-0.0892,
2.757804,0.1429,-1.0533,-0.4099,-2.1734,-1.2675,-5.2012,-1.0418,-0.6206,-0.0892,
2.762071,0.1429,-1.0533,-0.4099,-2.1734,-1.2675,-5.2012,-1.3119,-0.2809,0.1166,
2.772227,0.1429,-1.0533,-0.4099,-2.1734,-1.2675,-5.2012,-1.2300,0.0709,0.2162,
2.775419,0.1230,-1.1371,0.1649,-2.1734,-1.2675,-5.2012,-1.2300,0.0709,0.2162,
2.777411,0.1230,-1.1371,0.1649,-2.2811,-2.0236,0.7016,-1.2300,0.0709,0.2162,
2.782344,0.1230,-1.1371,0.1649,-2.2811,-2.0236,0.7016,-0.7266,0.3526,0.2278,
2.792694,0.1230,-1.1371,0.1649,-2.2811,-2.0236,0.7016,-0.0834,0.4008,0.0800,
2.795307,0.2788,-0.9673,-0.0329,-2.2811,-2.0236,0.7016,-0.0834,0.4008,0.0800,
2.797265,0.2788,-0.9673,-0.0329,-0.6752,-0.3221,-1.1578,-0.0834,0.4008,0.0800,
2.803074,0.2788,-0.9673,-0.0329,-0.6752,-0.3221,-1.1578,0.1060,0.2658,-0.1387,
2.811918,0.2788,-0.9673,-0.0329,-0.6752,-0.3221,-1.1578,-0.0358,0.1827,-0.2352,
2.816243,0.2708,-0.7532,-0.1684,-0.6752,-0.3221,-1.1578,-0.0358,0.1827,-0.2352,
2.818298,0.2708,-0.7532,-0.1684,-0.7468,1.7814,-2.4567,-0.0358,0.1827,-0.2352,
2.822789,0.2708,-0.7532,-0.1684,-0.7468,1.7814,-2.4567,-0.2178,0.1998,-0.2328,
2.832474,0.2708,-0.7532,-0.1684,-0.7468,1.7814,-2.4567,-0.3326,0.2261,-0.2133,
2.837692,0.4261,-0.8087,0.0478,-0.7468,1.7814,-2.4567,-0.3326,0.2261,-0.2133,
2.840711,0.4261,-0.8087,0.0478,0.7471,1.2328,-0.2764,-0.3326,0.2261,-0.2133,
2.842828,0.4261,-0.8087,0.0478,0.7471,1.2328,-0.2764,-0.3387,0.1284,-0.2175,
2.852138,0.4261,-0.8087,0.0478,0.7471,1.2328,-0.2764,-0.2801,-0.1105,-0.2462,
2.859594,0.5078,-0.9471,-0.0566,0.7471,1.2328,-0.2764,-0.2801,-0.1105,-0.2462,
2.861227,0.5078,-0.9471,-0.0566,1.5035,-0.1340,-1.2178,-0.2801,-0.1105,-0.2462,
2.862768,0.5078,-0.9471,-0.0566,1.5035,-0.1340,-1.2178,-0.2502,-0.3420,-0.2829,
2.872103,0.5078,-0.9471,-0.0566,1.5035,-0.1340,-1.2178,-0.4340,-0.3805,-0.3043,
2.881857,0.5078,-0.9471,-0.0566,1.5035,-0.1340,-1.2178,-0.5977,-0.1746,-0.2652,
2.886143,0.4693,-1.0721,-0.2070,1.5035,-0.1340,-1.2178,-0.5977,-0.1746,-0.2652,
2.887731,0.4693,-1.0721,-0.2070,1.0388,-1.3818,-2.5037,-0.5977,-0.1746,-0.2652,
2.891744,0.4693,-1.0721,-0.2070,1.0388,-1.3818,-2.5037,-0.7633,0.0923,-0.2065,
2.901796,0.4693,-1.0721,-0.2070,1.0388,-1.3818,-2.5037,-0.8983,0.3208,-0.1509,
2.905176,0.4573,-1.0674,-0.2213,1.0388,-1.3818,-2.5037,-0.8983,0.3208,-0.1509,
2.906593,0.4573,-1.0674,-0.2213,0.8853,-1.3415,-2.4570,-0.8983,0.3208,-0.1509,
2.911661,0.4573,-1.0674,-0.2213,0.8853,-1.3415,-2.4570,-1.0003,0.4967,-0.0954,
2.921953,0.4573,-1.0674,-0.2213,0.8853,-1.3415,-2.4570,-1.0816,0.6562,-0.0330,
2.925187,0.4510,-1.0967,-0.2129,0.8853,-1.3415,-2.4570,-1.0816,0.6562,-0.0330,
2.926886,0.4510,-1.0967,-0.2129,0.8093,-1.6302,-2.1760,-1.0816,0.6562,-0.0330,
2.931948,0.4510,-1.0967,-0.2129,0.8093,-1.6302,-2.1760,-1.1353,0.7808,0.0396,
2.941951,0.4510,-1.0967,-0.2129,0.8093,-1.6302,-2.1760,-1.1420,0.8150,0.1221,
2.945063,0.4440,-1.0846,-0.1512,0.8093,-1.6302,-2.1760,-1.1420,0.8150,0.1221,
2.946666,0.4440,-1.0846,-0.1512,0.7522,-1.5073,-1.3842,-1.1420,0.8150,0.1221,
2.951977,0.4440,-1.0846,-0.1512,0.7522,-1.5073,-1.3842,-1.1133,0.7472,0.1948,
2.961989,0.4440,-1.0846,-0.1512,0.7522,-1.5073,-1.3842,-1.0699,0.5554,0.2504,
2.966344,0.3908,-1.0874,-0.0722,0.7522,-1.5073,-1.3842,-1.0699,0.5554,0.2504,
2.968157,0.3908,-1.0874,-0.0722,0.2680,-1.5235,-0.4378,-1.0699,0.5554,0.2504,
2.972645,0.3908,-1.0874,-0.0722,0.2680,-1.5235,-0.4378,-1.0156,0.2090,0.2785,
2.982108,0.3908,-1.0874,-0.0722,0.2680,-1.5235,-0.4378,-0.9557,-0.1917,0.2730,
2.987464,0.3139,-1.0884,-0.0257,0.2680,-1.5235,-0.4378,-0.9557,-0.1917,0.2730,
2.989363,0.3139,-1.0884,-0.0257,-0.4323,-1.5201,0.2033,-0.9557,-0.1917,0.2730,
2.992038,0.3139,-1.0884,-0.0257,-0.4323,-1.5201,0.2033,-0.8922,-0.4929,0.2669,
3.002147,0.3139,-1.0884,-0.0257,-0.4323,-1.5201,0.2033,-0.8079,-0.6364,0.2815,
3.005255,0.2138,-1.0780,-0.0087,-0.4323,-1.5201,0.2033,-0.8079,-0.6364,0.2815,
3.007204,0.2138,-1.0780,-0.0087,-1.3503,-1.4058,0.5638,-0.8079,-0.6364,0.2815,
3.012106,0.2138,-1.0780,-0.0087,-1.3503,-1.4058,0.5638,-0.6992,-0.6523,0.3011,
3.022071,0.2138,-1.0780,-0.0087,-1.3503,-1.4058,0.5638,-0.5788,-0.5808,0.3182,
3.025355,0.2375,-1.0307,0.0012,-1.3503,-1.4058,0.5638,-0.5788,-0.5808,0.3182,
3.027105,0.2375,-1.0307,0.0012,-1.0401,-0.9256,0.8132,-0.5788,-0.5808,0.3182,
3.033098,0.2375,-1.0307,0.0012,-1.0401,-0.9256,0.8132,-0.4652,-0.4746,0.3304,
3.042061,0.2375,-1.0307,0.0012,-1.0401,-0.9256,0.8132,-0.3668,-0.3970,0.3365,
3.045408,0.3175,-0.9717,-0.0186,-1.0401,-0.9256,0.8132,-0.3668,-0.3970,0.3365,
3.047096,0.3175,-0.9717,-0.0186,-0.1784,-0.3281,0.7147,-0.3668,-0.3970,0.3365,
3.052063,0.3175,-0.9717,-0.0186,-0.1784,-0.3281,0.7147,-0.2972,-0.3811,0.3414,
3.061990,0.3175,-0.9717,-0.0186,-0.1784,-0.3281,0.7147,-0.2288,-0.4764,0.3732,
3.065284,0.3702,-0.8981,-0.0117,-0.1784,-0.3281,0.7147,-0.2288,-0.4764,0.3732,
3.067167,0.3702,-0.8981,-0.0117,0.4150,0.4142,0.8458,-0.2288,-0.4764,0.3732,
3.072261,0.3702,-0.8981,-0.0117,0.4150,0.4142,0.8458,-0.2086,-0.5601,0.3891,
3.082877,0.3702,-0.8981,-0.0117,0.4150,0.4142,0.8458,-0.1830,-0.5735,0.4013,
3.085102,0.3700,-0.7807,-0.0250,0.4150,0.4142,0.8458,-0.1830,-0.5735,0.4013,
3.086873,0.3700,-0.7807,-0.0250,0.4921,1.5858,0.7727,-0.1830,-0.5735,0.4013,
3.092046,0.3700,-0.7807,-0.0250,0.4921,1.5858,0.7727,-0.1439,-0.4709,0.3970,
3.102255,0.3700,-0.7807,-0.0250,0.4921,1.5858,0.7727,-0.0981,-0.3261,0.3775,
3.105514,0.3214,-0.6615,-0.0882,0.4921,1.5858,0.7727,-0.0981,-0.3261,0.3775,
3.107705,0.3214,-0.6615,-0.0882,0.0850,2.7734,0.1893,-0.0981,-0.3261,0.3775,
3.111869,0.3214,-0.6615,-0.0882,0.0850,2.7734,0.1893,-0.0706,-0.2101,0.3481,
3.122110,0.3214,-0.6615,-0.0882,0.0850,2.7734,0.1893,-0.0736,-0.1539,0.3182,
3.125475,0.2818,-0.5949,-0.1619,0.0850,2.7734,0.1893,-0.0736,-0.1539,0.3182,
3.127315,0.2818,-0.5949,-0.1619,-0.2512,3.4404,-0.5114,-0.0736,-0.1539,0.3182,
3.132138,0.2818,-0.5949,-0.1619,-0.2512,3.4404,-0.5114,-0.0871,-0.1594,0.2913,
3.141995,0.2818,-0.5949,-0.1619,-0.2512,3.4404,-0.5114,-0.0975,-0.2155,0.2657,
3.145388,0.3434,-0.7457,-0.1634,-0.2512,3.4404,-0.5114,-0.0975,-0.2155,0.2657,
3.147164,0.3434,-0.7457,-0.1634,0.3883,1.9700,-0.4965,-0.0975,-0.2155,0.2657,
3.152114,0.3434,-0.7457,-0.1634,0.3883,1.9700,-0.4965,-0.0920,-0.3267,0.2357,
3.161917,0.3434,-0.7457,-0.1634,0.3883,1.9700,-0.4965,-0.0675,-0.4764,0.2199,
3.165295,0.4114,-0.8961,-0.1065,0.3883,1.9700,-0.4965,-0.0675,-0.4764,0.2199,
3.167336,0.4114,-0.8961,-0.1065,1.0815,0.5001,0.1002,-0.0675,-0.4764,0.2199,
3.172236,0.4114,-0.8961,-0.1065,1.0815,0.5001,0.1002,-0.0278,-0.6096,0.2192,
3.182124,0.4114,-0.8961,-0.1065,1.0815,0.5001,0.1002,0.0204,-0.6755,0.2223,
3.186686,0.4079,-0.7533,-0.0276,1.0815,0.5001,0.1002,0.0204,-0.6755,0.2223,
3.188601,0.4079,-0.7533,-0.0276,1.0630,1.9010,0.9036,0.0204,-0.6755,0.2223,
3.191842,0.4079,-0.7533,-0.0276,1.0630,1.9010,0.9036,0.0742,-0.6444,0.2235,
3.202319,0.4079,-0.7533,-0.0276,1.0630,1.9010,0.9036,0.1347,-0.5460,0.2119,
3.205614,0.3881,-0.7005,0.0094,1.0630,1.9010,0.9036,0.1347,-0.5460,0.2119,
3.207765,0.3881,-0.7005,0.0094,0.8692,2.4187,1.2616,0.1347,-0.5460,0.2119,
3.211883,0.3881,-0.7005,0.0094,0.8692,2.4187,1.2616,0.2123,-0.4727,0.1832,
3.222221,0.3881,-0.7005,0.0094,0.8692,2.4187,1.2616,0.3204,-0.5356,0.1386,
3.225528,0.3320,-0.7260,0.1323,0.8692,2.4187,1.2616,0.3204,-0.5356,0.1386,
3.227187,0.3320,-0.7260,0.1323,0.3044,2.1728,2.4012,0.3204,-0.5356,0.1386,
3.232111,0.3320,-0.7260,0.1323,0.3044,2.1728,2.4012,0.4908,-0.7470,0.0952,
3.242101,0.3320,-0.7260,0.1323,0.3044,2.1728,2.4012,0.9483,-0.9022,0.0659,
3.245295,0.2403,-0.8255,-0.0596,0.3044,2.1728,2.4012,0.9483,-0.9022,0.0659,
3.246997,0.2403,-0.8255,-0.0596,-0.5902,1.2110,0.4107,0.9483,-0.9022,0.0659,
3.252342,0.2403,-0.8255,-0.0596,-0.5902,1.2110,0.4107,1.0180,-0.6957,0.0586,
3.262110,0.2403,-0.8255,-0.0596,-0.5902,1.2110,0.4107,0.9856,-0.5027,0.0567,
3.265434,0.1479,-0.8921,-0.2213,-0.5902,1.2110,0.4107,0.9856,-0.5027,0.0567,
3.267598,0.1479,-0.8921,-0.2213,-1.4760,0.5795,-1.3249,0.9856,-0.5027,0.0567,
3.272499,0.1479,-0.8921,-0.2213,-1.4760,0.5795,-1.3249,0.9086,-0.4019,0.0574,
3.282391,0.1479,-0.8921,-0.2213,-1.4760,0.5795,-1.3249,0.8280,-0.4013,0.0378,
3.288236,0.1419,-0.9991,-0.2770,-1.4760,0.5795,-1.3249,0.8280,-0.4013,0.0378,
3.290371,0.1419,-0.9991,-0.2770,-1.5137,-0.4522,-1.9951,0.8280,-0.4013,0.0378,
3.293527,0.1419,-0.9991,-0.2770,-1.5137,-0.4522,-1.9951,0.7565,-0.4947,-0.0037,
3.303954,0.1419,-0.9991,-0.2770,-1.5137,-0.4522,-1.9951,0.7009,-0.7049,-0.0532,
3.306937,0.1725,-1.3204,-0.3497,-1.5137,-0.4522,-1.9951,0.7009,-0.7049,-0.0532,
3.309289,0.1725,-1.3204,-0.3497,-1.1857,-3.5867,-2.7755,0.7009,-0.7049,-0.0532,
3.312073,0.1725,-1.3204,-0.3497,-1.1857,-3.5867,-2.7755,0.6564,-1.0085,-0.1296,
3.322158,0.1725,-1.3204,-0.3497,-1.1857,-3.5867,-2.7755,0.5922,-1.2620,-0.2511,
3.325226,0.2124,-1.4669,-0.3594,-1.1857,-3.5867,-2.7755,0.5922,-1.2620,-0.2511,
3.327049,0.2124,-1.4669,-0.3594,-0.7743,-5.0179,-2.8589,0.5922,-1.2620,-0.2511,
3.331960,0.2124,-1.4669,-0.3594,-0.7743,-5.0179,-2.8589,0.4908,-1.3047,-0.3794,
3.341956,0.2124,-1.4669,-0.3594,-0.7743,-5.0179,-2.8589,0.3870,-1.1514,-0.4460,
3.345297,0.0517,-1.3410,-0.2088,-0.7743,-5.0179,-2.8589,0.3870,-1.1514,-0.4460,
3.346965,0.0517,-1.3410,-0.2088,-2.3519,-3.7871,-1.3453,0.3870,-1.1514,-0.4460,
3.352317,0.0517,-1.3410,-0.2088,-2.3519,-3.7871,-1.3453,0.3491,-0.9376,-0.4271,
3.361966,0.0517,-1.3410,-0.2088,-2.3519,-3.7871,-1.3453,0.4175,-0.7739,-0.3452,
3.365223,-0.0851,-1.3333,-0.0382,-2.3519,-3.7871,-1.3453,0.4175,-0.7739,-0.3452,
3.367172,-0.0851,-1.3333,-0.0382,-3.6713,-3.7058,0.3334,0.4175,-0.7739,-0.3452,
3.371844,-0.0851,-1.3333,-0.0382,-3.6713,-3.7058,0.3334,0.5623,-0.7317,-0.2139,
3.382269,-0.0851,-1.3333,-0.0382,-3.6713,-3.7058,0.3334,0.6936,-0.8075,-0.0575,
3.387474,-0.1733,-1.3328,-0.0644,-3.6713,-3.7058,0.3334,0.6936,-0.8075,-0.0575,
3.389932,-0.1733,-1.3328,-0.0644,-4.4481,-3.6711,0.0249,0.6936,-0.8075,-0.0575,
3.392300,-0.1733,-1.3328,-0.0644,-4.4481,-3.6711,0.0249,0.7730,-0.9180,0.0867,
3.405289,-0.1733,-1.3328,-0.0644,-4.4481,-3.6711,0.0249,0.8353,-1.0109,0.1777,
3.407673,-0.1328,-1.1829,0.0298,-4.4481,-3.6711,0.0249,0.8353,-1.0109,0.1777,
3.409872,-0.1328,-1.1829,0.0298,-3.9036,-2.1547,0.8591,0.8353,-1.0109,0.1777,
3.412493,-0.1328,-1.1829,0.0298,-3.9036,-2.1547,0.8591,0.9154,-1.0628,0.2009,
3.422389,-0.1328,-1.1829,0.0298,-3.9036,-2.1547,0.8591,0.9997,-1.0903,0.1649,
3.425841,0.0015,-1.0706,-0.0493,-3.9036,-2.1547,0.8591,0.9997,-1.0903,0.1649,
3.427577,0.0015,-1.0706,-0.0493,-2.4392,-1.0074,-0.0312,0.9997,-1.0903,0.1649,
3.432362,0.0015,-1.0706,-0.0493,-2.4392,-1.0074,-0.0312,0.9361,-1.1209,-0.0221,
3.442511,0.0015,-1.0706,-0.0493,-2.4392,-1.0074,-0.0312,0.7736,-1.1037,-0.0593,
3.445917,0.1051,-1.0550,-0.1502,-2.4392,-1.0074,-0.0312,0.7736,-1.1037,-0.0593,
3.447820,0.1051,-1.0550,-0.1502,-1.3338,-0.8288,-1.1065,0.7736,-1.1037,-0.0593,
3.453845,0.1051,-1.0550,-0.1502,-1.3338,-0.8288,-1.1065,0.5727,-1.0048,-0.0648,
3.462273,0.1051,-1.0550,-0.1502,-1.3338,-0.8288,-1.1065,0.3589,-0.7885,-0.0434,
3.465270,0.1592,-1.0476,-0.1835,-1.3338,-0.8288,-1.1065,0.3589,-0.7885,-0.0434,
3.467573,0.1592,-1.0476,-0.1835,-0.7347,-0.7384,-1.4472,0.3589,-0.7885,-0.0434,
3.472625,0.1592,-1.0476,-0.1835,-0.7347,-0.7384,-1.4472,0.1652,-0.4709,0.0146,
3.482271,0.1592,-1.0476,-0.1835,-0.7347,-0.7384,-1.4472,0.0168,-0.1123,0.0958,
3.486221,0.1819,-0.9765,-0.1472,-0.7347,-0.7384,-1.4472,0.0168,-0.1123,0.0958,
3.488905,0.1819,-0.9765,-0.1472,-0.4431,-0.0264,-1.0627,0.0168,-0.1123,0.0958,
3.492077,0.1819,-0.9765,-0.1472,-0.4431,-0.0264,-1.0627,-0.0773,0.2066,0.1618,
3.502436,0.1819,-0.9765,-0.1472,-0.4431,-0.0264,-1.0627,-0.1103,0.4521,0.1875,
3.505299,0.2292,-0.8799,-0.0927,-0.4431,-0.0264,-1.0627,-0.1103,0.4521,0.1875,
3.507108,0.2292,-0.8799,-0.0927,0.0799,0.9332,-0.5028,-0.1103,0.4521,0.1875,
3.511952,0.2292,-0.8799,-0.0927,0.0799,0.9332,-0.5028,-0.0932,0.6006,0.1881,
3.522382,0.2292,-0.8799,-0.0927,0.0799,0.9332,-0.5028,-0.0596,0.6305,0.1765,
3.525147,0.2377,-0.8342,-0.1075,0.0799,0.9332,-0.5028,-0.0596,0.6305,0.1765,
3.526820,0.2377,-0.8342,-0.1075,0.2070,1.3903,-0.6412,-0.0596,0.6305,0.1765,
3.531974,0.2377,-0.8342,-0.1075,0.2070,1.3903,-0.6412,-0.0443,0.5474,0.1520,
3.542024,0.2377,-0.8342,-0.1075,0.2070,1.3903,-0.6412,-0.0718,0.3880,0.1154,
3.545121,0.2432,-0.8360,-0.1681,0.2070,1.3903,-0.6412,-0.0718,0.3880,0.1154,
3.546795,0.2432,-0.8360,-0.1681,0.2883,1.3778,-1.2209,-0.0718,0.3880,0.1154,
3.552342,0.2432,-0.8360,-0.1681,0.2883,1.3778,-1.2209,-0.1451,0.2249,0.0769,
3.561969,0.2432,-0.8360,-0.1681,0.2883,1.3778,-1.2209,-0.2459,0.1198,0.0451,
3.565130,0.1863,-0.8266,-0.1499,0.2883,1.3778,-1.2209,-0.2459,0.1198,0.0451,
3.567297,0.1863,-0.8266,-0.1499,-0.2556,1.4704,-0.9880,-0.2459,0.1198,0.0451,
3.571898,0.1863,-0.8266,-0.1499,-0.2556,1.4704,-0.9880,-0.3510,0.1082,0.0225,
3.581878,0.1863,-0.8266,-0.1499,-0.2556,1.4704,-0.9880,-0.4371,0.1876,0.0042,
3.586385,0.1272,-0.8265,-0.1041,-0.2556,1.4704,-0.9880,-0.4371,0.1876,0.0042,
3.588999,0.1272,-0.8265,-0.1041,-0.8281,1.4683,-0.4516,-0.4371,0.1876,0.0042,
3.592127,0.1272,-0.8265,-0.1041,-0.8281,1.4683,-0.4516,-0.4927,0.3269,-0.0129,
3.602312,0.1272,-0.8265,-0.1041,-0.8281,1.4683,-0.4516,-0.5092,0.4931,-0.0208,
3.605931,0.0983,-0.8353,-0.0634,-0.8281,1.4683,-0.4516,-0.5092,0.4931,-0.0208,
3.607855,0.0983,-0.8353,-0.0634,-1.1105,1.3764,0.0366,-0.5092,0.4931,-0.0208,
3.611941,0.0983,-0.8353,-0.0634,-1.1105,1.3764,0.0366,-0.4218,0.7765,-0.0440,
3.622475,0.0983,-0.8353,-0.0634,-1.1105,1.3764,0.0366,-0.3259,0.8028,-0.0648,
3.625449,0.0767,-0.8442,-0.0380,-1.1105,1.3764,0.0366,-0.3259,0.8028,-0.0648,
3.627105,0.0767,-0.8442,-0.0380,-1.3310,1.2840,0.3303,-0.3259,0.8028,-0.0648,
3.631971,0.0767,-0.8442,-0.0380,-1.3310,1.2840,0.3303,-0.2135,0.7313,-0.0831,
3.641953,0.0767,-0.8442,-0.0380,-1.3310,1.2840,0.3303,-0.1078,0.5926,-0.0740,
3.645222,-0.0247,-0.8628,-0.0854,-1.3310,1.2840,0.3303,-0.1078,0.5926,-0.0740,
3.646893,-0.0247,-0.8628,-0.0854,-2.3167,1.1029,-0.1226,-0.1078,0.5926,-0.0740,
3.652346,-0.0247,-0.8628,-0.0854,-2.3167,1.1029,-0.1226,-0.0174,0.4008,-0.0263,
3.661930,-0.0247,-0.8628,-0.0854,-2.3167,1.1029,-0.1226,0.0602,0.1552,0.0378,
3.665195,-0.0996,-0.9438,-0.1675,-2.3167,1.1029,-0.1226,0.0602,0.1552,0.0378,
3.667254,-0.0996,-0.9438,-0.1675,-2.9871,0.3223,-0.9216,0.0602,0.1552,0.0378,
3.672189,-0.0996,-0.9438,-0.1675,-2.9871,0.3223,-0.9216,0.1200,-0.1258,0.0977,
3.682207,-0.0996,-0.9438,-0.1675,-2.9871,0.3223,-0.9216,0.1579,-0.3982,0.1307,
3.687762,-0.1065,-0.9987,-0.2498,-2.9871,0.3223,-0.9216,0.1579,-0.3982,0.1307,
3.690591,-0.1065,-0.9987,-0.2498,-2.9504,-0.1964,-1.7091,0.1579,-0.3982,0.1307,
3.693115,-0.1065,-0.9987,-0.2498,-2.9504,-0.1964,-1.7091,0.1664,-0.5760,0.1197,
3.701932,-0.1065,-0.9987,-0.2498,-2.9504,-0.1964,-1.7091,0.1451,-0.5760,0.0567,
3.705120,-0.0536,-0.9587,-0.2488,-2.9504,-0.1964,-1.7091,0.1451,-0.5760,0.0567,
3.706546,-0.0536,-0.9587,-0.2488,-2.3261,0.2138,-1.6629,0.1451,-0.5760,0.0567,
3.711775,-0.0536,-0.9587,-0.2488,-2.3261,0.2138,-1.6629,0.1054,-0.3591,-0.0367,
3.721883,-0.0536,-0.9587,-0.2488,-2.3261,0.2138,-1.6629,0.0510,0.0172,-0.0892,
3.725138,-0.0401,-0.8983,-0.2184,-2.3261,0.2138,-1.6629,0.0510,0.0172,-0.0892,
3.726384,-0.0401,-0.8983,-0.2184,-2.1220,0.8150,-1.3247,0.0510,0.0172,-0.0892,
3.731797,-0.0401,-0.8983,-0.2184,-2.1220,0.8150,-1.3247,-0.0272,0.4081,-0.0929,
3.741695,-0.0401,-0.8983,-0.2184,-2.1220,0.8150,-1.3247,-0.1439,0.7179,-0.0935,
3.744578,0.1098,-0.9693,-0.2410,-2.1220,0.8150,-1.3247,-0.1439,0.7179,-0.0935,
3.745682,0.1098,-0.9693,-0.2410,-0.6165,0.1218,-1.4979,-0.1439,0.7179,-0.0935,
3.751911,0.1098,-0.9693,-0.2410,-0.6165,0.1218,-1.4979,-0.2850,0.9353,-0.1173,
3.761445,0.1098,-0.9693,-0.2410,-0.6165,0.1218,-1.4979,-0.4169,1.0807,-0.1638,
3.764522,0.1915,-0.9968,-0.1813,-0.6165,0.1218,-1.4979,-0.4169,1.0807,-0.1638,
3.765159,0.1915,-0.9968,-0.1813,0.1799,-0.1553,-0.8393,-0.4169,1.0807,-0.1638,
3.781015,0.1915,-0.9968,-0.1813,0.1799,-0.1553,-0.8393,-0.5025,1.1870,-0.2090,
3.782291,0.1915,-0.9968,-0.1813,0.1799,-0.1553,-0.8393,-0.5306,1.2615,-0.2536,
3.784873,0.2669,-0.9488,-0.1214,0.1799,-0.1553,-0.8393,-0.5306,1.2615,-0.2536,
3.785693,0.2669,-0.9488,-0.1214,0.8646,0.2978,-0.1768,-0.5306,1.2615,-0.2536,
3.792120,0.2669,-0.9488,-0.1214,0.8646,0.2978,-0.1768,-0.5177,1.2701,-0.3000,
3.803208,0.2669,-0.9488,-0.1214,0.8646,0.2978,-0.1768,-0.4322,0.8596,-0.3837,
3.804878,0.3301,-0.8630,-0.0450,0.8646,0.2978,-0.1768,-0.4322,0.8596,-0.3837,
3.805773,0.3301,-0.8630,-0.0450,1.3962,1.1156,0.6301,-0.4322,0.8596,-0.3837,
3.811442,0.3301,-0.8630,-0.0450,1.3962,1.1156,0.6301,-0.3693,0.4326,-0.4075,
3.822078,0.3301,-0.8630,-0.0450,1.3962,1.1156,0.6301,-0.2807,-0.0476,-0.4222,
3.824468,0.3792,-0.8574,0.0795,1.3962,1.1156,0.6301,-0.2807,-0.0476,-0.4222,
3.825529,0.3792,-0.8574,0.0795,1.7859,1.1469,1.9002,-0.2807,-0.0476,-0.4222,
3.831532,0.3792,-0.8574,0.0795,1.7859,1.1469,1.9002,-0.1549,-0.4226,-0.4344,
3.841340,0.3792,-0.8574,0.0795,1.7859,1.1469,1.9002,-0.0223,-0.5228,-0.4399,
3.845308,0.3911,-0.9471,0.0600,1.7859,1.1469,1.9002,-0.0223,-0.5228,-0.4399,
3.846434,0.3911,-0.9471,0.0600,1.8081,0.2466,1.7245,-0.0223,-0.5228,-0.4399,
3.852152,0.3911,-0.9471,0.0600,1.8081,0.2466,1.7245,0.0498,-0.3469,-0.4246,
3.861424,0.3911,-0.9471,0.0600,1.8081,0.2466,1.7245,0.0485,-0.0671,-0.3794,
3.864650,0.3778,-1.0012,-0.0386,1.8081,0.2466,1.7245,0.0485,-0.0671,-0.3794,
3.865783,0.3778,-1.0012,-0.0386,1.5790,-0.3026,0.7366,0.0485,-0.0671,-0.3794,
3.871409,0.3778,-1.0012,-0.0386,1.5790,-0.3026,0.7366,0.0107,0.0960,-0.3195,
3.881440,0.3778,-1.0012,-0.0386,1.5790,-0.3026,0.7366,-0.0284,0.0563,-0.2688,
3.885216,0.4346,-1.0566,-0.0344,1.5790,-0.3026,0.7366,-0.0284,0.0563,-0.2688,
3.887201,0.4346,-1.0566,-0.0344,2.0443,-0.8641,0.7525,-0.0284,0.0563,-0.2688,
3.891510,0.4346,-1.0566,-0.0344,2.0443,-0.8641,0.7525,-0.0559,-0.0592,-0.2322,
3.901639,0.4346,-1.0566,-0.0344,2.0443,-0.8641,0.7525,-0.0694,-0.0915,-0.2090,
3.904991,0.4841,-1.0859,-0.0533,2.0443,-0.8641,0.7525,-0.0694,-0.0915,-0.2090,
3.906392,0.4841,-1.0859,-0.0533,2.4465,-1.1700,0.5593,-0.0694,-0.0915,-0.2090,
3.911258,0.4841,-1.0859,-0.0533,2.4465,-1.1700,0.5593,-0.0565,-0.0720,-0.2035,
3.921279,0.4841,-1.0859,-0.0533,2.4465,-1.1700,0.5593,0.0021,-0.1074,-0.2194,
3.924582,0.6483,-1.3246,0.1246,2.4465,-1.1700,0.5593,0.0021,-0.1074,-0.2194,
3.925375,0.6483,-1.3246,0.1246,3.9587,-3.5292,2.2675,0.0021,-0.1074,-0.2194,
3.931286,0.6483,-1.3246,0.1246,3.9587,-3.5292,2.2675,0.1280,-0.2791,-0.2578,
3.941365,0.6483,-1.3246,0.1246,3.9587,-3.5292,2.2675,0.3222,-0.5326,-0.2908,
3.944720,0.5933,-1.1104,0.0788,3.9587,-3.5292,2.2675,0.3222,-0.5326,-0.2908,
3.945532,0.5933,-1.1104,0.0788,3.3114,-1.4501,1.7477,0.3222,-0.5326,-0.2908,
3.951269,0.5933,-1.1104,0.0788,3.3114,-1.4501,1.7477,0.5159,-0.6823,-0.2731,
3.961303,0.5933,-1.1104,0.0788,3.3114,-1.4501,1.7477,0.6014,-0.5925,-0.2096,
3.964732,0.4003,-0.7874,-0.0826,3.3114,-1.4501,1.7477,0.6014,-0.5925,-0.2096,
3.965608,0.4003,-0.7874,-0.0826,1.3217,1.6989,0.0592,0.6014,-0.5925,-0.2096,
3.971231,0.4003,-0.7874,-0.0826,1.3217,1.6989,0.0592,0.5348,-0.3554,-0.1057,
3.981318,0.4003,-0.7874,-0.0826,1.3217,1.6989,0.0592,0.1316,0.0826,0.1600,
3.984622,0.3742,-0.6982,-0.1478,1.3217,1.6989,0.0592,0.1316,0.0826,0.1600,
3.986051,0.3742,-0.6982,-0.1478,1.0064,2.5625,-0.6507,0.1316,0.0826,0.1600,
3.991322,0.3742,-0.6982,-0.1478,1.0064,2.5625,-0.6507,-0.0840,0.3538,0.2260,
4.001980,0.3742,-0.6982,-0.1478,1.0064,2.5625,-0.6507,-0.2380,0.6665,0.2522,
4.005220,0.4095,-0.7628,-0.1584,1.0064,2.5625,-0.6507,-0.2380,0.6665,0.2522,
4.006599,0.4095,-0.7628,-0.1584,1.3199,1.9198,-0.7529,-0.2380,0.6665,0.2522,
4.011642,0.4095,-0.7628,-0.1584,1.3199,1.9198,-0.7529,-0.3131,0.9170,0.2699,
4.021599,0.4095,-0.7628,-0.1584,1.3199,1.9198,-0.7529,-0.3058,0.9879,0.2822,
4.024892,0.4216,-0.8462,-0.0718,1.3199,1.9198,-0.7529,-0.3058,0.9879,0.2822,
4.025986,0.4216,-0.8462,-0.0718,1.4064,1.0937,0.1013,-0.3058,0.9879,0.2822,
4.032290,0.4216,-0.8462,-0.0718,1.4064,1.0937,0.1013,-0.2062,0.8125,0.2651,
4.041610,0.4216,-0.8462,-0.0718,1.4064,1.0937,0.1013,-0.0022,0.4680,0.2137,
4.044705,0.3762,-0.8724,0.1748,1.4064,1.0937,0.1013,-0.0022,0.4680,0.2137,
4.045997,0.3762,-0.8724,0.1748,0.9341,0.8318,2.4745,-0.0022,0.4680,0.2137,
4.052248,0.3762,-0.8724,0.1748,0.9341,0.8318,2.4745,0.2477,0.1760,0.1612,
4.061654,0.3762,-0.8724,0.1748,0.9341,0.8318,2.4745,0.4206,0.0575,0.1197,
4.065143,0.3186,-0.8868,0.0741,0.9341,0.8318,2.4745,0.4206,0.0575,0.1197,
4.066363,0.3186,-0.8868,0.0741,0.3461,0.6914,1.3873,0.4206,0.0575,0.1197,
4.071713,0.3186,-0.8868,0.0741,0.3461,0.6914,1.3873,0.4346,0.0685,0.0848,
4.081755,0.3186,-0.8868,0.0741,0.3461,0.6914,1.3873,0.3179,0.1339,0.0567,
4.086137,0.3100,-0.9096,-0.0880,0.3461,0.6914,1.3873,0.3179,0.1339,0.0567,
4.089153,0.3100,-0.9096,-0.0880,0.2460,0.4697,-0.2901,0.3179,0.1339,0.0567,
4.091906,0.3100,-0.9096,-0.0880,0.2460,0.4697,-0.2901,0.1671,0.1986,0.0482,
4.102997,0.3100,-0.9096,-0.0880,0.2460,0.4697,-0.2901,0.0748,0.2316,0.0598,
4.105192,0.3304,-0.9602,-0.0387,0.2460,0.4697,-0.2901,0.0748,0.2316,0.0598,
4.107269,0.3304,-0.9602,-0.0387,0.4344,-0.0280,0.1499,0.0748,0.2316,0.0598,
4.111827,0.3304,-0.9602,-0.0387,0.4344,-0.0280,0.1499,0.0638,0.2231,0.0702,
4.122103,0.3304,-0.9602,-0.0387,0.4344,-0.0280,0.1499,0.1200,0.1730,0.0647,
4.125170,0.3464,-0.9258,0.0156,0.4344,-0.0280,0.1499,0.1200,0.1730,0.0647,
4.126856,0.3464,-0.9258,0.0156,0.5842,0.3095,0.6451,0.1200,0.1730,0.0647,
4.132297,0.3464,-0.9258,0.0156,0.5842,0.3095,0.6451,0.2049,0.1595,0.0311,
4.142191,0.3464,-0.9258,0.0156,0.5842,0.3095,0.6451,0.3216,0.1809,-0.0263,
4.145621,0.3456,-0.8575,0.1234,0.5842,0.3095,0.6451,0.3216,0.1809,-0.0263,
4.147725,0.3456,-0.8575,0.1234,0.5538,0.9758,1.6234,0.3216,0.1809,-0.0263,
4.154333,0.3456,-0.8575,0.1234,0.5538,0.9758,1.6234,0.4810,0.1449,-0.0905,
4.162193,0.3456,-0.8575,0.1234,0.5538,0.9758,1.6234,0.6264,0.0563,-0.1626,
4.165745,0.3847,-0.8102,-0.0255,0.5538,0.9758,1.6234,0.6264,0.0563,-0.1626,
4.168034,0.3847,-0.8102,-0.0255,0.8889,1.4290,0.0434,0.6264,0.0563,-0.1626,
4.172611,0.3847,-0.8102,-0.0255,0.8889,1.4290,0.0434,0.6380,-0.0610,-0.3513,
4.182187,0.3847,-0.8102,-0.0255,0.8889,1.4290,0.0434,0.4988,-0.0311,-0.4949,
4.187495,0.4409,-0.7806,-0.1586,0.8889,1.4290,0.0434,0.4988,-0.0311,-0.4949,
4.190383,0.4409,-0.7806,-0.1586,1.3294,1.6879,-1.3589,0.4988,-0.0311,-0.4949,
4.193299,0.4409,-0.7806,-0.1586,1.3294,1.6879,-1.3589,0.3399,0.0196,-0.6855,
4.204842,0.4409,-0.7806,-0.1586,1.3294,1.6879,-1.3589,0.2171,0.0648,-0.9066,
4.207196,0.4422,-0.7952,-0.1678,1.3294,1.6879,-1.3589,0.2171,0.0648,-0.9066,
4.209464,0.4422,-0.7952,-0.1678,1.1585,1.4840,-1.4847,0.2171,0.0648,-0.9066,
4.212122,0.4422,-0.7952,-0.1678,1.1585,1.4840,-1.4847,0.1646,0.0942,-1.1069,
4.222091,0.4422,-0.7952,-0.1678,1.1585,1.4840,-1.4847,0.1933,0.0813,-1.2132,
4.225131,0.2465,-0.9197,-0.1138,1.1585,1.4840,-1.4847,0.1933,0.0813,-1.2132,
4.227022,0.2465,-0.9197,-0.1138,-0.9824,0.1851,-0.9779,0.1933,0.0813,-1.2132,
4.232026,0.2465,-0.9197,-0.1138,-0.9824,0.1851,-0.9779,0.2904,0.0202,-1.1680,
4.241922,0.2465,-0.9197,-0.1138,-0.9824,0.1851,-0.9779,0.4438,-0.0689,-0.9774,
4.245435,0.0117,-1.0392,-0.0224,-0.9824,0.1851,-0.9779,0.4438,-0.0689,-0.9774,
4.247133,0.0117,-1.0392,-0.0224,-3.4566,-1.0510,-0.1298,0.4438,-0.0689,-0.9774,
4.253698,0.0117,-1.0392,-0.0224,-3.4566,-1.0510,-0.1298,0.6325,-0.1300,-0.7038,
4.261920,0.0117,-1.0392,-0.0224,-3.4566,-1.0510,-0.1298,0.8213,-0.1117,-0.4240,
4.265475,-0.0137,-1.0930,0.0740,-3.4566,-1.0510,-0.1298,0.8213,-0.1117,-0.4240,
4.267203,-0.0137,-1.0930,0.0740,-3.7387,-1.5916,0.7036,0.8213,-0.1117,-0.4240,
4.272218,-0.0137,-1.0930,0.0740,-3.7387,-1.5916,0.7036,0.9868,0.0447,-0.1980,
4.281917,-0.0137,-1.0930,0.0740,-3.7387,-1.5916,0.7036,1.1157,0.3764,-0.0685,
4.286893,0.1390,-1.0597,0.1737,-3.7387,-1.5916,0.7036,1.1157,0.3764,-0.0685,
4.289361,0.1390,-1.0597,0.1737,-2.1916,-1.2477,1.4718,1.1157,0.3764,-0.0685,
4.291937,0.1390,-1.0597,0.1737,-2.1916,-1.2477,1.4718,1.1799,0.8431,-0.0337,
4.303970,0.1390,-1.0597,0.1737,-2.1916,-1.2477,1.4718,1.1560,1.2890,-0.0471,
4.308172,0.2913,-1.0126,0.0641,-2.1916,-1.2477,1.4718,1.1560,1.2890,-0.0471,
4.309873,0.2913,-1.0126,0.0641,-0.6394,-0.7755,0.1149,1.1560,1.2890,-0.0471,
4.312173,0.2913,-1.0126,0.0641,-0.6394,-0.7755,0.1149,1.0534,1.5266,-0.0599,
4.321969,0.2913,-1.0126,0.0641,-0.6394,-0.7755,0.1149,0.8805,1.4576,-0.0453,
4.325241,0.2493,-1.1468,-0.0283,-0.6394,-0.7755,0.1149,0.8805,1.4576,-0.0453,
4.327059,0.2493,-1.1468,-0.0283,-0.9859,-2.0833,-1.0490,0.8805,1.4576,-0.0453,
4.331885,0.2493,-1.1468,-0.0283,-0.9859,-2.0833,-1.0490,0.6411,1.0954,0.0238,
4.341935,0.2493,-1.1468,-0.0283,-0.9859,-2.0833,-1.0490,0.3448,0.5572,0.1392,
4.345391,0.2619,-1.2120,-0.0029,-0.9859,-2.0833,-1.0490,0.3448,0.5572,0.1392,
4.346931,0.2619,-1.2120,-0.0029,-0.7827,-2.7035,-0.9164,0.3448,0.5572,0.1392,
4.353800,0.2619,-1.2120,-0.0029,-0.7827,-2.7035,-0.9164,-0.2593,-0.4654,0.2797,
4.361870,0.2619,-1.2120,-0.0029,-0.7827,-2.7035,-0.9164,-0.4744,-0.7507,0.2363,
4.365438,0.3034,-1.0879,0.0966,-0.7827,-2.7035,-0.9164,-0.4744,-0.7507,0.2363,
4.367413,0.3034,-1.0879,0.0966,-0.3054,-1.4509,0.1810,-0.4744,-0.7507,0.2363,
4.372107,0.3034,-1.0879,0.0966,-0.3054,-1.4509,0.1810,-0.6118,-0.9101,0.1673,
4.382088,0.3034,-1.0879,0.0966,-0.3054,-1.4509,0.1810,-0.6998,-1.0115,0.1337,
4.387417,0.2664,-0.9596,0.0848,-0.3054,-1.4509,0.1810,-0.6998,-1.0115,0.1337,
4.390200,0.2664,-0.9596,0.0848,-0.6294,-0.1667,0.2525,-0.6998,-1.0115,0.1337,
4.392584,0.2664,-0.9596,0.0848,-0.6294,-0.1667,0.2525,-0.7792,-1.0683,0.1545,
4.404527,0.2664,-0.9596,0.0848,-0.6294,-0.1667,0.2525,-0.8733,-1.0500,0.2125,
4.407096,0.2299,-0.8747,0.0189,-0.6294,-0.1667,0.2525,-0.8733,-1.0500,0.2125,
4.409314,0.2299,-0.8747,0.0189,-0.9438,0.6916,-0.1730,-0.8733,-1.0500,0.2125,
4.412032,0.2299,-0.8747,0.0189,-0.9438,0.6916,-0.1730,-0.9679,-0.9156,0.2974,
4.422127,0.2299,-0.8747,0.0189,-0.9438,0.6916,-0.1730,-1.0418,-0.6823,0.4062,
4.425446,0.1812,-0.8397,0.0276,-0.9438,0.6916,-0.1730,-1.0418,-0.6823,0.4062,
4.427305,0.1812,-0.8397,0.0276,-1.3404,1.0688,0.1435,-1.0418,-0.6823,0.4062,
4.432067,0.1812,-0.8397,0.0276,-1.3404,1.0688,0.1435,-1.0754,-0.3951,0.5277,
4.442282,0.1812,-0.8397,0.0276,-1.3404,1.0688,0.1435,-1.0620,-0.0885,0.6481,
4.445519,0.1234,-0.8314,0.0726,-1.3404,1.0688,0.1435,-1.0620,-0.0885,0.6481,
4.447323,0.1234,-0.8314,0.0726,-1.7723,1.1947,0.7820,-1.0620,-0.0885,0.6481,
4.454540,0.1234,-0.8314,0.0726,-1.7723,1.1947,0.7820,-1.0046,0.1998,0.7654,
4.462186,0.1234,-0.8314,0.0726,-1.7723,1.1947,0.7820,-0.9068,0.4259,0.8723,
4.465332,0.0752,-0.8238,0.1270,-1.7723,1.1947,0.7820,-0.9068,0.4259,0.8723,
4.467207,0.0752,-0.8238,0.1270,-2.0565,1.3249,1.4434,-0.9068,0.4259,0.8723,
4.472331,0.0752,-0.8238,0.1270,-2.0565,1.3249,1.4434,-0.7773,0.5755,0.9657,
4.482164,0.0752,-0.8238,0.1270,-2.0565,1.3249,1.4434,-0.6295,0.6513,1.0512,
4.487522,0.0702,-0.9181,0.0704,-2.0565,1.3249,1.4434,-0.6295,0.6513,1.0512,
4.490098,0.0702,-0.9181,0.0704,-1.8793,0.4636,0.9496,-0.6295,0.6513,1.0512,
4.492646,0.0702,-0.9181,0.0704,-1.8793,0.4636,0.9496,-0.5104,0.6519,1.1184,
4.504355,0.0702,-0.9181,0.0704,-1.8793,0.4636,0.9496,-0.5135,0.5871,1.1355,
4.507151,0.1777,-0.9974,-0.1692,-1.8793,0.4636,0.9496,-0.5135,0.5871,1.1355,
4.509328,0.1777,-0.9974,-0.1692,-0.5981,-0.2562,-1.3398,-0.5135,0.5871,1.1355,
4.512085,0.1777,-0.9974,-0.1692,-0.5981,-0.2562,-1.3398,-0.6814,0.4851,1.0842,
4.522162,0.1777,-0.9974,-0.1692,-0.5981,-0.2562,-1.3398,-0.9624,0.3862,0.9804,
4.525422,0.1867,-0.9822,-0.2020,-0.5981,-0.2562,-1.3398,-0.9624,0.3862,0.9804,
4.527468,0.1867,-0.9822,-0.2020,-0.3092,-0.0661,-1.5231,-0.9624,0.3862,0.9804,
4.532051,0.1867,-0.9822,-0.2020,-0.3092,-0.0661,-1.5231,-1.2575,0.3409,0.8949,
4.542203,0.1867,-0.9822,-0.2020,-0.3092,-0.0661,-1.5231,-1.5562,0.5248,0.8778,
4.545198,0.1614,-0.9363,-0.1086,-0.3092,-0.0661,-1.5231,-1.5562,0.5248,0.8778,
4.546725,0.1614,-0.9363,-0.1086,-0.3889,0.4048,-0.3560,-1.5562,0.5248,0.8778,
4.553777,0.1614,-0.9363,-0.1086,-0.3889,0.4048,-0.3560,-1.5269,0.6769,0.9285,
4.561921,0.1614,-0.9363,-0.1086,-0.3889,0.4048,-0.3560,-1.4139,0.8351,0.9785,
4.565496,0.1820,-0.9179,-0.0523,-0.3889,0.4048,-0.3560,-1.4139,0.8351,0.9785,
4.567543,0.1820,-0.9179,-0.0523,-0.0158,0.5974,0.4458,-1.4139,0.8351,0.9785,
4.572373,0.1820,-0.9179,-0.0523,-0.0158,0.5974,0.4458,-1.2618,0.9695,1.0134,
4.581893,0.1820,-0.9179,-0.0523,-0.0158,0.5974,0.4458,-1.1194,0.9934,1.0262,
4.587042,0.2039,-0.9311,-0.0960,-0.0158,0.5974,0.4458,-1.1194,0.9934,1.0262,
4.589094,0.2039,-0.9311,-0.0960,0.3709,0.4780,0.2071,-1.1194,0.9934,1.0262,
4.591926,0.2039,-0.9311,-0.0960,0.3709,0.4780,0.2071,-1.0180,0.8364,0.9908,
4.605076,0.2039,-0.9311,-0.0960,0.3709,0.4780,0.2071,-0.9484,0.4588,0.8900,
4.607304,0.2242,-0.9322,-0.1820,0.3709,0.4780,0.2071,-0.9484,0.4588,0.8900,
4.609267,0.2242,-0.9322,-0.1820,0.7268,0.4716,-0.4712,-0.9484,0.4588,0.8900,
4.612002,0.2242,-0.9322,-0.1820,0.7268,0.4716,-0.4712,-0.9020,-0.1569,0.7745,
4.622180,0.2242,-0.9322,-0.1820,0.7268,0.4716,-0.4712,-0.8897,-0.8515,0.6688,
4.625159,0.2174,-1.0407,-0.2569,0.7268,0.4716,-0.4712,-0.8897,-0.8515,0.6688,
4.626871,0.2174,-1.0407,-0.2569,0.8032,-0.5990,-1.0200,-0.8897,-0.8515,0.6688,
4.632058,0.2174,-1.0407,-0.2569,0.8032,-0.5990,-1.0200,-0.9062,-1.3744,0.5888,
4.641999,0.2174,-1.0407,-0.2569,0.8032,-0.5990,-1.0200,-0.9062,-1.6755,0.5320,
4.645013,0.2428,-1.1314,-0.1462,0.8032,-0.5990,-1.0200,-0.9062,-1.6755,0.5320,
4.646705,0.2428,-1.1314,-0.1462,1.1903,-1.5032,0.2686,-0.9062,-1.6755,0.5320,
4.654008,0.2428,-1.1314,-0.1462,1.1903,-1.5032,0.2686,-0.8433,-1.8423,0.4471,
4.662040,0.2428,-1.1314,-0.1462,1.1903,-1.5032,0.2686,-0.5709,-2.1874,0.3023,
4.665339,0.4947,-0.9378,0.3204,1.1903,-1.5032,0.2686,-0.5709,-2.1874,0.3023,
4.667448,0.4947,-0.9378,0.3204,3.7336,0.3824,4.9550,-0.5709,-2.1874,0.3023,
4.673075,0.4947,-0.9378,0.3204,3.7336,0.3824,4.9550,0.0162,-2.8814,0.1111,
4.682121,0.4947,-0.9378,0.3204,3.7336,0.3824,4.9550,0.3411,-3.0213,-0.0385,
4.687872,0.4297,-0.7253,0.0793,3.7336,0.3824,4.9550,0.3411,-3.0213,-0.0385,
4.690808,0.4297,-0.7253,0.0793,3.1176,2.4753,2.5452,0.3411,-3.0213,-0.0385,
4.693813,0.4297,-0.7253,0.0793,3.1176,2.4753,2.5452,0.3118,-2.4861,-0.1192,
4.705166,0.4297,-0.7253,0.0793,3.1176,2.4753,2.5452,0.1652,-1.7128,-0.1784,
4.707604,0.5089,-0.7646,0.1108,3.1176,2.4753,2.5452,0.1652,-1.7128,-0.1784,
4.709620,0.5089,-0.7646,0.1108,3.8214,2.0976,2.7705,0.1652,-1.7128,-0.1784,
4.712265,0.5089,-0.7646,0.1108,3.8214,2.0976,2.7705,0.0095,-0.8698,-0.2242,
4.722114,0.5089,-0.7646,0.1108,3.8214,2.0976,2.7705,-0.2489,0.5883,-0.2023,
4.725773,0.6161,-0.9808,-0.0065,3.8214,2.0976,2.7705,-0.2489,0.5883,-0.2023,
4.727986,0.6161,-0.9808,-0.0065,4.7063,-0.0345,1.5727,-0.2489,0.5883,-0.2023,
4.732169,0.6161,-0.9808,-0.0065,4.7063,-0.0345,1.5727,-0.3106,0.9915,-0.1955,
4.742251,0.6161,-0.9808,-0.0065,4.7063,-0.0345,1.5727,-0.3192,1.0550,-0.2120,
4.745661,0.6801,-1.1110,-0.1107,4.7063,-0.0345,1.5727,-0.3192,1.0550,-0.2120,
4.747808,0.6801,-1.1110,-0.1107,5.1278,-1.3369,0.5249,-0.3192,1.0550,-0.2120,
4.754152,0.6801,-1.1110,-0.1107,5.1278,-1.3369,0.5249,-0.2709,0.8357,-0.2212,
4.762060,0.6801,-1.1110,-0.1107,5.1278,-1.3369,0.5249,-0.1610,0.5242,-0.1931,
4.765397,0.5909,-1.0982,-0.1611,5.1278,-1.3369,0.5249,-0.1610,0.5242,-0.1931,
4.767937,0.5909,-1.0982,-0.1611,4.0660,-1.2392,0.0066,-0.1610,0.5242,-0.1931,
4.773506,0.5909,-1.0982,-0.1611,4.0660,-1.2392,0.0066,-0.0125,0.2811,-0.1369,
4.782116,0.5909,-1.0982,-0.1611,4.0660,-1.2392,0.0066,0.1353,0.0960,-0.1326,
4.787847,0.4764,-1.0719,-0.1840,4.0660,-1.2392,0.0066,0.1353,0.0960,-0.1326,
4.790769,0.4764,-1.0719,-0.1840,2.8022,-1.0007,-0.2655,0.1353,0.0960,-0.1326,
4.793246,0.4764,-1.0719,-0.1840,2.8022,-1.0007,-0.2655,0.2526,-0.1300,-0.1778,
4.806329,0.4764,-1.0719,-0.1840,2.8022,-1.0007,-0.2655,0.3240,-0.4245,-0.2023,
4.809263,0.3470,-1.2037,-0.1777,2.8022,-1.0007,-0.2655,0.3240,-0.4245,-0.2023,
4.811646,0.3470,-1.2037,-0.1777,1.4232,-2.3046,-0.2695,0.3240,-0.4245,-0.2023,
4.813953,0.3470,-1.2037,-0.1777,1.4232,-2.3046,-0.2695,0.3436,-0.7293,-0.1992,
4.822712,0.3470,-1.2037,-0.1777,1.4232,-2.3046,-0.2695,0.3234,-0.9486,-0.1961,
4.827321,0.3010,-1.2519,-0.1388,1.4232,-2.3046,-0.2695,0.3234,-0.9486,-0.1961,
4.829409,0.3010,-1.2519,-0.1388,0.9033,-2.7849,0.0656,0.3234,-0.9486,-0.1961,
4.832129,0.3010,-1.2519,-0.1388,0.9033,-2.7849,0.0656,0.2819,-1.0097,-0.2126,
4.841750,0.3010,-1.2519,-0.1388,0.9033,-2.7849,0.0656,0.2373,-0.9187,-0.2371,
4.844928,0.2271,-1.0886,-0.0428,0.9033,-2.7849,0.0656,0.2373,-0.9187,-0.2371,
4.846266,0.2271,-1.0886,-0.0428,0.1334,-1.1903,0.9800,0.2373,-0.9187,-0.2371,
4.853392,0.2271,-1.0886,-0.0428,0.1334,-1.1903,0.9800,0.2025,-0.7213,-0.2432,
4.861746,0.2271,-1.0886,-0.0428,0.1334,-1.1903,0.9800,0.2049,-0.4593,-0.1998,
4.864783,0.2736,-0.9651,-0.0795,0.1334,-1.1903,0.9800,0.2049,-0.4593,-0.1998,
4.866419,0.2736,-0.9651,-0.0795,0.5410,0.0133,0.5911,0.2049,-0.4593,-0.1998,
4.871787,0.2736,-0.9651,-0.0795,0.5410,0.0133,0.5911,0.2489,-0.1789,-0.1290,
4.881445,0.2736,-0.9651,-0.0795,0.5410,0.0133,0.5911,0.2966,0.0349,-0.0776,
4.886492,0.3055,-0.9165,-0.1877,0.5410,0.0133,0.5911,0.2966,0.0349,-0.0776,
4.888416,0.3055,-0.9165,-0.1877,0.8162,0.4889,-0.5236,0.2966,0.0349,-0.0776,
4.891612,0.3055,-0.9165,-0.1877,0.8162,0.4889,-0.5236,0.3204,0.1308,-0.0477,
4.903254,0.3055,-0.9165,-0.1877,0.8162,0.4889,-0.5236,0.3173,-0.1050,-0.0477,
4.905258,0.2857,-0.9716,-0.2190,0.8162,0.4889,-0.5236,0.3173,-0.1050,-0.0477,
4.906688,0.2857,-0.9716,-0.2190,0.5977,-0.0486,-0.8894,0.3173,-0.1050,-0.0477,
4.911560,0.2857,-0.9716,-0.2190,0.5977,-0.0486,-0.8894,0.2636,-0.4019,-0.0392,
4.922689,0.2857,-0.9716,-0.2190,0.5977,-0.0486,-0.8894,0.2538,-0.7232,-0.0056,
4.924674,0.2461,-1.0092,-0.1057,0.5977,-0.0486,-0.8894,0.2538,-0.7232,-0.0056,
4.925622,0.2461,-1.0092,-0.1057,0.2101,-0.4141,0.1976,0.2538,-0.7232,-0.0056,
4.931445,0.2461,-1.0092,-0.1057,0.2101,-0.4141,0.1976,0.2782,-0.9926,0.0390,
4.941430,0.2461,-1.0092,-0.1057,0.2101,-0.4141,0.1976,0.3216,-1.1435,0.0873,
4.944552,0.2285,-0.9307,0.0391,0.2101,-0.4141,0.1976,0.3216,-1.1435,0.0873,
4.945456,0.2285,-0.9307,0.0391,0.0671,0.3646,1.5992,0.3216,-1.1435,0.0873,
4.952468,0.2285,-0.9307,0.0391,0.0671,0.3646,1.5992,0.3650,-1.1728,0.1386,
4.961326,0.2285,-0.9307,0.0391,0.0671,0.3646,1.5992,0.4083,-1.0750,0.1887,
4.964791,0.2757,-0.8011,0.0906,0.0671,0.3646,1.5992,0.4083,-1.0750,0.1887,
4.965694,0.2757,-0.8011,0.0906,0.5692,1.6496,2.0582,0.4083,-1.0750,0.1887,
4.971270,0.2757,-0.8011,0.0906,0.5692,1.6496,2.0582,0.4505,-0.8319,0.2363,
4.981313,0.2757,-0.8011,0.0906,0.5692,1.6496,2.0582,0.4713,-0.4911,0.2724,
4.985944,0.3656,-0.6958,-0.0338,0.5692,1.6496,2.0582,0.4713,-0.4911,0.2724,
4.987385,0.3656,-0.6958,-0.0338,1.4753,2.6969,0.7553,0.4713,-0.4911,0.2724,
4.991268,0.3656,-0.6958,-0.0338,1.4753,2.6969,0.7553,0.4487,-0.1490,0.2877,
5.004682,0.3656,-0.6958,-0.0338,1.4753,2.6969,0.7553,0.3760,0.1088,0.2828,
5.007389,0.4233,-0.6219,-0.1341,1.4753,2.6969,0.7553,0.3760,0.1088,0.2828,
5.009517,0.4233,-0.6219,-0.1341,2.0247,3.4274,-0.3162,0.3760,0.1088,0.2828,
5.012237,0.4233,-0.6219,-0.1341,2.0247,3.4274,-0.3162,0.2648,0.2444,0.2718,
5.022078,0.4233,-0.6219,-0.1341,2.0247,3.4274,-0.3162,0.1402,0.2609,0.2681,
5.025724,0.4755,-0.6280,-0.1125,2.0247,3.4274,-0.3162,0.1402,0.2609,0.2681,
5.027408,0.4755,-0.6280,-0.1125,2.4903,3.3622,-0.1546,0.1402,0.2609,0.2681,
5.031989,0.4755,-0.6280,-0.1125,2.4903,3.3622,-0.1546,0.0333,0.1876,0.2687,
5.042217,0.4755,-0.6280,-0.1125,2.4903,3.3622,-0.1546,-0.0413,0.0703,0.2602,
5.044932,0.5209,-0.6938,0.0243,2.4903,3.3622,-0.1546,-0.0413,0.0703,0.2602,
5.046678,0.5209,-0.6938,0.0243,2.8709,2.7040,1.1679,-0.0413,0.0703,0.2602,
5.054129,0.5209,-0.6938,0.0243,2.8709,2.7040,1.1679,-0.0858,-0.0054,0.2400,
5.061742,0.5209,-0.6938,0.0243,2.8709,2.7040,1.1679,-0.1048,0.0294,0.2101,
5.065187,0.4509,-0.6843,0.0498,2.8709,2.7040,1.1679,-0.1048,0.0294,0.2101,
5.066608,0.4509,-0.6843,0.0498,2.1114,2.7806,1.4096,-0.1048,0.0294,0.2101,
5.071753,0.4509,-0.6843,0.0498,2.1114,2.7806,1.4096,-0.0999,0.1833,0.1704,
5.081701,0.4509,-0.6843,0.0498,2.1114,2.7806,1.4096,-0.0828,0.4088,0.1282,
5.085028,0.3917,-0.7658,0.0007,2.1114,2.7806,1.4096,-0.0828,0.4088,0.1282,
5.086650,0.3917,-0.7658,0.0007,1.4487,1.9639,0.9038,-0.0828,0.4088,0.1282,
5.092029,0.3917,-0.7658,0.0007,1.4487,1.9639,0.9038,-0.0529,0.8113,0.0506,
5.104025,0.3917,-0.7658,0.0007,1.4487,1.9639,0.9038,-0.0370,0.9347,0.0170,
5.106321,0.3711,-0.8254,-0.0500,1.4487,1.9639,0.9038,-0.0370,0.9347,0.0170,
5.108102,0.3711,-0.8254,-0.0500,1.1461,1.3589,0.3514,-0.0370,0.9347,0.0170,
5.111856,0.3711,-0.8254,-0.0500,1.1461,1.3589,0.3514,-0.0070,1.0092,-0.0221,
5.121907,0.3711,-0.8254,-0.0500,1.1461,1.3589,0.3514,0.0400,1.0428,-0.0666,
5.125240,0.3309,-0.8112,-0.0500,1.1461,1.3589,0.3514,0.0400,1.0428,-0.0666,
5.126934,0.3309,-0.8112,-0.0500,0.6514,1.4767,0.2806,0.0400,1.0428,-0.0666,
5.131907,0.3309,-0.8112,-0.0500,0.6514,1.4767,0.2806,0.1029,1.0428,-0.1253,
5.142014,0.3309,-0.8112,-0.0500,0.6514,1.4767,0.2806,0.1713,1.0160,-0.2126,
5.145461,0.3563,-0.9076,-0.0226,0.6514,1.4767,0.2806,0.1713,1.0160,-0.2126,
5.147432,0.3563,-0.9076,-0.0226,0.7953,0.5098,0.4555,0.1713,1.0160,-0.2126,
5.152302,0.3563,-0.9076,-0.0226,0.7953,0.5098,0.4555,0.2495,0.9689,-0.3220,
5.162149,0.3563,-0.9076,-0.0226,0.7953,0.5098,0.4555,0.3638,0.8852,-0.4387,
5.165276,0.3902,-1.0749,0.0871,0.7953,0.5098,0.4555,0.3638,0.8852,-0.4387,
5.167413,0.3902,-1.0749,0.0871,1.0085,-1.1567,1.4036,0.3638,0.8852,-0.4387,
5.172765,0.3902,-1.0749,0.0871,1.0085,-1.1567,1.4036,0.5348,0.7380,-0.5584,
5.182037,0.3902,-1.0749,0.0871,1.0085,-1.1567,1.4036,0.7620,0.5554,-0.6830,
5.185565,0.3851,-1.0497,0.1890,1.0085,-1.1567,1.4036,0.7620,0.5554,-0.6830,
5.187725,0.3851,-1.0497,0.1890,0.8127,-0.9451,2.2159,0.7620,0.5554,-0.6830,
5.192330,0.3851,-1.0497,0.1890,0.8127,-0.9451,2.2159,1.0088,0.4045,-0.8040,
5.202206,0.3851,-1.0497,0.1890,0.8127,-0.9451,2.2159,1.2397,0.2994,-0.9200,
5.207726,0.2240,-0.9756,0.1576,0.8127,-0.9451,2.2159,1.2397,0.2994,-0.9200,
5.210551,0.2240,-0.9756,0.1576,-0.9334,-0.2678,1.6549,1.2397,0.2994,-0.9200,
5.213465,0.2240,-0.9756,0.1576,-0.9334,-0.2678,1.6549,1.4364,0.2017,-1.0104,
5.222167,0.2240,-0.9756,0.1576,-0.9334,-0.2678,1.6549,1.5891,0.0581,-1.0306,
5.225856,0.0606,-1.1491,0.1606,-0.9334,-0.2678,1.6549,1.5891,0.0581,-1.0306,
5.228066,0.0606,-1.1491,0.1606,-2.7007,-2.0266,1.3729,1.5891,0.0581,-1.0306,
5.232199,0.0606,-1.1491,0.1606,-2.7007,-2.0266,1.3729,1.7034,-0.1740,-0.9726,
5.242262,0.0606,-1.1491,0.1606,-2.7007,-2.0266,1.3729,1.7749,-0.4507,-0.8864,
5.245495,0.0644,-1.3405,0.0981,-2.7007,-2.0266,1.3729,1.7749,-0.4507,-0.8864,
5.247438,0.0644,-1.3405,0.0981,-2.7733,-3.9546,0.4452,1.7749,-0.4507,-0.8864,
5.255059,0.0644,-1.3405,0.0981,-2.7733,-3.9546,0.4452,1.7584,-0.6224,-0.8369,
5.262368,0.0644,-1.3405,0.0981,-2.7733,-3.9546,0.4452,1.6588,-0.6627,-0.8296,
5.265445,0.0213,-1.4344,0.0302,-2.7733,-3.9546,0.4452,1.6588,-0.6627,-0.8296,
5.267417,0.0213,-1.4344,0.0302,-3.2687,-4.9213,-0.4846,1.6588,-0.6627,-0.8296,
5.272867,0.0213,-1.4344,0.0302,-3.2687,-4.9213,-0.4846,1.5165,-0.7085,-0.8137,
5.282169,0.0213,-1.4344,0.0302,-3.2687,-4.9213,-0.4846,1.0296,-0.6242,-0.8205,
5.286984,0.1013,-1.4052,-0.0772,-3.2687,-4.9213,-0.4846,1.0296,-0.6242,-0.8205,
5.289265,0.1013,-1.4052,-0.0772,-2.5486,-4.6748,-1.6963,1.0296,-0.6242,-0.8205,
5.294416,0.1013,-1.4052,-0.0772,-2.5486,-4.6748,-1.6963,0.7278,-0.4324,-0.8516,
5.302294,0.1013,-1.4052,-0.0772,-2.5486,-4.6748,-1.6963,0.4499,-0.1367,-0.9133,
5.307003,0.3204,-1.1506,-0.0751,-2.5486,-4.6748,-1.6963,0.4499,-0.1367,-0.9133,
5.309550,0.3204,-1.1506,-0.0751,-0.4821,-2.2160,-1.7242,0.4499,-0.1367,-0.9133,
5.312007,0.3204,-1.1506,-0.0751,-0.4821,-2.2160,-1.7242,0.2483,0.1491,-1.0275,
5.321901,0.3204,-1.1506,-0.0751,-0.4821,-2.2160,-1.7242,0.1457,0.3648,-1.1809,
5.325381,0.4807,-1.0069,0.0316,-0.4821,-2.2160,-1.7242,0.1457,0.3648,-1.1809,
5.327326,0.4807,-1.0069,0.0316,0.9557,-0.8644,-0.6963,0.1457,0.3648,-1.1809,
5.331941,0.4807,-1.0069,0.0316,0.9557,-0.8644,-0.6963,0.1218,0.5047,-1.3122,
5.342015,0.4807,-1.0069,0.0316,0.9557,-0.8644,-0.6963,0.1402,0.6018,-1.3666,
5.345309,0.4703,-0.9743,0.0849,0.9557,-0.8644,-0.6963,0.1402,0.6018,-1.3666,
5.347232,0.4703,-0.9743,0.0849,0.6694,-0.6284,-0.2121,0.1402,0.6018,-1.3666,
5.352011,0.4703,-0.9743,0.0849,0.6694,-0.6284,-0.2121,0.1707,0.6922,-1.3201,
5.361936,0.4703,-0.9743,0.0849,0.6694,-0.6284,-0.2121,0.1994,0.7759,-1.1595,
5.365106,0.3457,-0.9506,0.1135,0.6694,-0.6284,-0.2121,0.1994,0.7759,-1.1595,
5.367089,0.3457,-0.9506,0.1135,-0.7128,-0.4775,-0.0014,0.1994,0.7759,-1.1595,
5.372282,0.3457,-0.9506,0.1135,-0.7128,-0.4775,-0.0014,0.2165,0.8412,-0.9157,
5.381922,0.3457,-0.9506,0.1135,-0.7128,-0.4775,-0.0014,0.2135,0.8645,-0.6971,
5.385728,0.3046,-0.9568,0.1200,-0.7128,-0.4775,-0.0014,0.2135,0.8645,-0.6971,
5.387605,0.3046,-0.9568,0.1200,-1.1912,-0.5860,-0.0268,0.2135,0.8645,-0.6971,
5.391927,0.3046,-0.9568,0.1200,-1.1912,-0.5860,-0.0268,0.1842,0.8376,-0.5669,
5.401932,0.3046,-0.9568,0.1200,-1.1912,-0.5860,-0.0268,0.1176,0.7722,-0.5004,
5.406146,0.2273,-0.9262,0.1108,-1.1912,-0.5860,-0.0268,0.1176,0.7722,-0.5004,
5.408348,0.2273,-0.9262,0.1108,-1.9660,-0.3042,-0.1912,0.1176,0.7722,-0.5004,
5.411799,0.2273,-0.9262,0.1108,-1.9660,-0.3042,-0.1912,0.0156,0.7007,-0.4649,
5.422004,0.2273,-0.9262,0.1108,-1.9660,-0.3042,-0.1912,-0.0950,0.6562,-0.4411,
5.424927,0.2052,-0.8528,0.1538,-1.9660,-0.3042,-0.1912,-0.0950,0.6562,-0.4411,
5.426514,0.2052,-0.8528,0.1538,-2.1822,0.4099,0.1923,-0.0950,0.6562,-0.4411,
5.431712,0.2052,-0.8528,0.1538,-2.1822,0.4099,0.1923,-0.1921,0.6500,-0.4154,
5.441829,0.2052,-0.8528,0.1538,-2.1822,0.4099,0.1923,-0.2697,0.6788,-0.3800,
5.444863,0.2057,-0.8102,0.1599,-2.1822,0.4099,0.1923,-0.2697,0.6788,-0.3800,
5.446065,0.2057,-0.8102,0.1599,-2.1654,0.8305,0.2407,-0.2697,0.6788,-0.3800,
5.452728,0.2057,-0.8102,0.1599,-2.1654,0.8305,0.2407,-0.3296,0.7325,-0.3263,
5.461974,0.2057,-0.8102,0.1599,-2.1654,0.8305,0.2407,-0.4065,0.8199,-0.1473,
5.465157,0.1841,-0.7930,0.1550,-2.1654,0.8305,0.2407,-0.4065,0.8199,-0.1473,
5.466915,0.1841,-0.7930,0.1550,-2.3321,1.0202,0.1900,-0.4065,0.8199,-0.1473,
5.472039,0.1841,-0.7930,0.1550,-2.3321,1.0202,0.1900,-0.4175,0.8144,-0.0398,
5.481908,0.1841,-0.7930,0.1550,-2.3321,1.0202,0.1900,-0.4206,0.7728,0.0451,
5.485368,0.2001,-0.7856,0.1349,-2.3321,1.0202,0.1900,-0.4206,0.7728,0.0451,
5.487206,0.2001,-0.7856,0.1349,-2.0898,1.1335,-0.0041,-0.4206,0.7728,0.0451,
5.491903,0.2001,-0.7856,0.1349,-2.0898,1.1335,-0.0041,-0.4310,0.7020,0.0885,
5.502248,0.2001,-0.7856,0.1349,-2.0898,1.1335,-0.0041,-0.4560,0.6067,0.0903,
5.507154,0.2789,-0.7473,0.1169,-2.0898,1.1335,-0.0041,-0.4560,0.6067,0.0903,
5.509672,0.2789,-0.7473,0.1169,-1.2416,1.5458,-0.1591,-0.4560,0.6067,0.0903,
5.511868,0.2789,-0.7473,0.1169,-1.2416,1.5458,-0.1591,-0.4890,0.5065,0.0684,
5.521976,0.2789,-0.7473,0.1169,-1.2416,1.5458,-0.1591,-0.5073,0.4088,0.0311,
5.525128,0.3924,-0.7173,0.1424,-1.2416,1.5458,-0.1591,-0.5073,0.4088,0.0311,
5.527017,0.3924,-0.7173,0.1424,-0.0939,1.8629,0.1380,-0.5073,0.4088,0.0311,
5.531848,0.3924,-0.7173,0.1424,-0.0939,1.8629,0.1380,-0.5000,0.3214,-0.0196,
5.548266,0.3924,-0.7173,0.1424,-0.0939,1.8629,0.1380,-0.4756,0.2194,-0.0813,
5.550717,0.5304,-0.7306,0.1578,-0.0939,1.8629,0.1380,-0.4756,0.2194,-0.0813,
5.553783,0.5304,-0.7306,0.1578,1.2562,1.7397,0.3498,-0.4756,0.2194,-0.0813,
5.555666,0.5304,-0.7306,0.1578,1.2562,1.7397,0.3498,-0.4481,0.0654,-0.1516,
5.561930,0.5304,-0.7306,0.1578,1.2562,1.7397,0.3498,-0.4175,-0.1514,-0.2102,
5.565134,0.6246,-0.7853,0.1676,1.2562,1.7397,0.3498,-0.4175,-0.1514,-0.2102,
5.566643,0.6246,-0.7853,0.1676,2.1308,1.1908,0.5149,-0.4175,-0.1514,-0.2102,
5.571941,0.6246,-0.7853,0.1676,2.1308,1.1908,0.5149,-0.4004,-0.4080,-0.2438,
5.581809,0.6246,-0.7853,0.1676,2.1308,1.1908,0.5149,-0.4078,-0.6144,-0.2603,
5.585160,0.6318,-0.7861,0.1660,2.1308,1.1908,0.5149,-0.4078,-0.6144,-0.2603,
5.586860,0.6318,-0.7861,0.1660,2.1112,1.1541,0.5933,-0.4078,-0.6144,-0.2603,
5.591775,0.6318,-0.7861,0.1660,2.1112,1.1541,0.5933,-0.4340,-0.6804,-0.2713,
5.601957,0.6318,-0.7861,0.1660,2.1112,1.1541,0.5933,-0.4450,-0.5699,-0.2627,
5.605965,0.5116,-0.7635,0.2471,2.1112,1.1541,0.5933,-0.4450,-0.5699,-0.2627,
5.607737,0.5116,-0.7635,0.2471,0.8357,1.3404,1.4818,-0.4450,-0.5699,-0.2627,
5.611833,0.5116,-0.7635,0.2471,0.8357,1.3404,1.4818,-0.4004,-0.3732,-0.2297,
5.622271,0.5116,-0.7635,0.2471,0.8357,1.3404,1.4818,-0.3186,-0.2595,-0.1876,
5.625495,0.3404,-0.7378,0.0923,0.8357,1.3404,1.4818,-0.3186,-0.2595,-0.1876,
5.627396,0.3404,-0.7378,0.0923,-0.9036,1.5689,0.0309,-0.3186,-0.2595,-0.1876,
5.632069,0.3404,-0.7378,0.0923,-0.9036,1.5689,0.0309,-0.2581,-0.3182,-0.1387,
5.642154,0.3404,-0.7378,0.0923,-0.9036,1.5689,0.0309,-0.2538,-0.7158,0.0189,
5.645127,0.1211,-0.7874,-0.1103,-0.9036,1.5689,0.0309,-0.2538,-0.7158,0.0189,
5.646639,0.1211,-0.7874,-0.1103,-3.0716,1.0825,-1.8674,-0.2538,-0.7158,0.0189,
5.652194,0.1211,-0.7874,-0.1103,-3.0716,1.0825,-1.8674,-0.3387,-0.8759,0.1551,
5.662003,0.1211,-0.7874,-0.1103,-3.0716,1.0825,-1.8674,-0.3681,-0.9144,0.3469,
5.665305,-0.0509,-0.9428,-0.0927,-3.0716,1.0825,-1.8674,-0.3681,-0.9144,0.3469,
5.666977,-0.0509,-0.9428,-0.0927,-4.6768,-0.3899,-1.5477,-0.3681,-0.9144,0.3469,
5.671944,-0.0509,-0.9428,-0.0927,-4.6768,-0.3899,-1.5477,-0.3064,-0.8722,0.5870,
5.681837,-0.0509,-0.9428,-0.0927,-4.6768,-0.3899,-1.5477,-0.0736,-0.8435,0.8148,
5.685262,-0.0443,-1.2092,0.4399,-4.6768,-0.3899,-1.5477,-0.0736,-0.8435,0.8148,
5.687080,-0.0443,-1.2092,0.4399,-4.4088,-2.9032,3.7366,-0.0736,-0.8435,0.8148,
5.692123,-0.0443,-1.2092,0.4399,-4.4088,-2.9032,3.7366,0.3027,-0.9694,0.9107,
5.702161,-0.0443,-1.2092,0.4399,-4.4088,-2.9032,3.7366,0.5641,-1.2998,0.7812,
5.706674,0.3870,-1.2202,0.2916,-4.4088,-2.9032,3.7366,0.5641,-1.2998,0.7812,
5.709174,0.3870,-1.2202,0.2916,0.0229,-2.9252,2.2463,0.5641,-1.2998,0.7812,
5.711885,0.3870,-1.2202,0.2916,0.0229,-2.9252,2.2463,0.3784,-1.6016,0.5540,
5.721907,0.3870,-1.2202,0.2916,0.0229,-2.9252,2.2463,-0.2489,-1.4892,0.3261,
5.725339,0.5463,-0.9089,-0.5179,0.0229,-2.9252,2.2463,-0.2489,-1.4892,0.3261,
5.727263,0.5463,-0.9089,-0.5179,1.6624,0.1645,-5.5694,-0.2489,-1.4892,0.3261,
5.731895,0.5463,-0.9089,-0.5179,1.6624,0.1645,-5.5694,-0.9044,-0.8625,0.0781,
5.742108,0.5463,-0.9089,-0.5179,1.6624,0.1645,-5.5694,-1.2844,0.0483,-0.1467,
5.745184,0.5181,-0.7949,-0.2564,1.6624,0.1645,-5.5694,-1.2844,0.0483,-0.1467,
5.746998,0.5181,-0.7949,-0.2564,1.3776,1.2895,-2.7523,-1.2844,0.0483,-0.1467,
5.752057,0.5181,-0.7949,-0.2564,1.3776,1.2895,-2.7523,-1.3406,0.9158,-0.2371,
5.762045,0.5181,-0.7949,-0.2564,1.3776,1.2895,-2.7523,-1.0565,1.4924,-0.1888,
5.765531,0.5193,-0.8238,0.5835,1.3776,1.2895,-2.7523,-1.0565,1.4924,-0.1888,
5.767358,0.5193,-0.8238,0.5835,1.3463,0.9902,5.5840,-1.0565,1.4924,-0.1888,
5.773321,0.5193,-0.8238,0.5835,1.3463,0.9902,5.5840,-0.2709,1.4417,-0.0709,
5.782425,0.5193,-0.8238,0.5835,1.3463,0.9902,5.5840,0.6160,0.7301,0.0824,
5.784918,0.5353,-0.9391,-0.3743,1.3463,0.9902,5.5840,0.6160,0.7301,0.0824,
5.786884,0.5353,-0.9391,-0.3743,1.4956,-0.1451,-3.9038,0.6160,0.7301,0.0824,
5.791742,0.5353,-0.9391,-0.3743,1.4956,-0.1451,-3.9038,0.7877,0.1320,0.2388,
5.802059,0.5353,-0.9391,-0.3743,1.4956,-0.1451,-3.9038,0.4169,-0.0604,0.2950,
5.806071,0.5045,-0.9832,-0.4220,1.4956,-0.1451,-3.9038,0.4169,-0.0604,0.2950,
5.808685,0.5045,-0.9832,-0.4220,1.2153,-0.5698,-4.4193,0.4169,-0.0604,0.2950,
5.811937,0.5045,-0.9832,-0.4220,1.2153,-0.5698,-4.4193,-0.0895,0.1607,0.2235,
5.822105,0.5045,-0.9832,-0.4220,1.2153,-0.5698,-4.4193,-0.5446,1.0667,0.0293,
5.825068,0.3413,-1.0531,-0.3364,1.2153,-0.5698,-4.4193,-0.5446,1.0667,0.0293,
5.826509,0.3413,-1.0531,-0.3364,-0.3693,-1.2461,-3.4873,-0.5446,1.0667,0.0293,
5.831832,0.3413,-1.0531,-0.3364,-0.3693,-1.2461,-3.4873,-1.0425,1.3000,0.0274,
5.841476,0.3413,-1.0531,-0.3364,-0.3693,-1.2461,-3.4873,-1.0699,1.2566,0.0885,
5.844605,0.2169,-1.1161,-0.2538,-0.3693,-1.2461,-3.4873,-1.0699,1.2566,0.0885,
5.845643,0.2169,-1.1161,-0.2538,-1.5619,-1.8512,-2.5037,-1.0699,1.2566,0.0885,
5.851410,0.2169,-1.1161,-0.2538,-1.5619,-1.8512,-2.5037,-0.9795,0.9677,0.1704,
5.861473,0.2169,-1.1161,-0.2538,-1.5619,-1.8512,-2.5037,-0.8225,0.5065,0.2406,
5.864859,0.1660,-1.1088,-0.2005,-1.5619,-1.8512,-2.5037,-0.8225,0.5065,0.2406,
5.865849,0.1660,-1.1088,-0.2005,-1.9929,-1.7534,-1.8010,-0.8225,0.5065,0.2406,
5.871403,0.1660,-1.1088,-0.2005,-1.9929,-1.7534,-1.8010,-0.6680,-0.0378,0.2730,
5.881403,0.1660,-1.1088,-0.2005,-1.9929,-1.7534,-1.8010,-0.5525,-0.5674,0.2669,
5.885571,0.1429,-1.0859,-0.1180,-1.9929,-1.7534,-1.8010,-0.5525,-0.5674,0.2669,
5.887188,0.1429,-1.0859,-0.1180,-2.1233,-1.4973,-0.8062,-0.5525,-0.5674,0.2669,
5.892123,0.1429,-1.0859,-0.1180,-2.1233,-1.4973,-0.8062,-0.4835,-0.9565,0.2302,
5.902267,0.1429,-1.0859,-0.1180,-2.1233,-1.4973,-0.8062,-0.4371,-1.0989,0.1985,
5.907380,0.1112,-1.0941,-0.0349,-2.1233,-1.4973,-0.8062,-0.4371,-1.0989,0.1985,
5.909989,0.1112,-1.0941,-0.0349,-2.3306,-1.5471,0.1942,-0.4371,-1.0989,0.1985,
5.912277,0.1112,-1.0941,-0.0349,-2.3306,-1.5471,0.1942,-0.3784,-1.0225,0.2260,
5.922649,0.1112,-1.0941,-0.0349,-2.3306,-1.5471,0.1942,-0.3088,-0.8325,0.3316,
5.925900,0.1302,-1.0768,-0.0199,-2.3306,-1.5471,0.1942,-0.3088,-0.8325,0.3316,
5.928133,0.1302,-1.0768,-0.0199,-2.0224,-1.3419,0.4800,-0.3088,-0.8325,0.3316,
5.932315,0.1302,-1.0768,-0.0199,-2.0224,-1.3419,0.4800,-0.2532,-0.6419,0.4416,
5.942266,0.1302,-1.0768,-0.0199,-2.0224,-1.3419,0.4800,-0.2208,-0.4813,0.4746,
5.945403,0.3213,-1.0058,-0.0563,-2.0224,-1.3419,0.4800,-0.2208,-0.4813,0.4746,
5.947477,0.3213,-1.0058,-0.0563,-0.0274,-0.6098,0.2066,-0.2208,-0.4813,0.4746,
5.952106,0.3213,-1.0058,-0.0563,-0.0274,-0.6098,0.2066,-0.2129,-0.3750,0.4355,
5.961881,0.3213,-1.0058,-0.0563,-0.0274,-0.6098,0.2066,-0.2153,-0.3506,0.3897,
5.965229,0.4174,-0.9552,-0.0646,-0.0274,-0.6098,0.2066,-0.2153,-0.3506,0.3897,
5.967052,0.4174,-0.9552,-0.0646,1.0039,-0.0893,0.1870,-0.2153,-0.3506,0.3897,
5.972059,0.4174,-0.9552,-0.0646,1.0039,-0.0893,0.1870,-0.2178,-0.3939,0.3677,
5.981759,0.4174,-0.9552,-0.0646,1.0039,-0.0893,0.1870,-0.2147,-0.4446,0.3652,
5.985112,0.4562,-0.9070,-0.0504,1.0039,-0.0893,0.1870,-0.2147,-0.4446,0.3652,
5.988014,0.4562,-0.9070,-0.0504,1.4591,0.4021,0.3902,-0.2147,-0.4446,0.3652,
5.991909,0.4562,-0.9070,-0.0504,1.4591,0.4021,0.3902,-0.2062,-0.4837,0.3695,
6.001759,0.4562,-0.9070,-0.0504,1.4591,0.4021,0.3902,-0.1982,-0.5185,0.3707,
6.005714,0.4658,-0.8568,-0.0365,1.4591,0.4021,0.3902,-0.1982,-0.5185,0.3707,
6.007792,0.4658,-0.8568,-0.0365,1.6195,0.9096,0.5880,-0.1982,-0.5185,0.3707,
6.011719,0.4658,-0.8568,-0.0365,1.6195,0.9096,0.5880,-0.1952,-0.6218,0.3573,
6.021799,0.4658,-0.8568,-0.0365,1.6195,0.9096,0.5880,-0.1885,-0.6542,0.3432,
6.025096,0.4368,-0.8244,0.0028,1.6195,0.9096,0.5880,-0.1885,-0.6542,0.3432,
6.026717,0.4368,-0.8244,0.0028,1.3873,1.2369,1.0309,-0.1885,-0.6542,0.3432,
6.032372,0.4368,-0.8244,0.0028,1.3873,1.2369,1.0309,-0.1683,-0.6089,0.3206,
6.042267,0.4368,-0.8244,0.0028,1.3873,1.2369,1.0309,-0.1347,-0.4794,0.2895,
6.045686,0.4125,-0.8088,0.0222,1.3873,1.2369,1.0309,-0.1347,-0.4794,0.2895,
6.047834,0.4125,-0.8088,0.0222,1.1770,1.3952,1.2543,-0.1347,-0.4794,0.2895,
6.053743,0.4125,-0.8088,0.0222,1.1770,1.3952,1.2543,-0.0926,-0.3078,0.2528,
6.062288,0.4125,-0.8088,0.0222,1.1770,1.3952,1.2543,-0.0400,-0.1453,0.2144,
6.065963,0.4064,-0.8243,0.0172,1.1770,1.3952,1.2543,-0.0400,-0.1453,0.2144,
6.067833,0.4064,-0.8243,0.0172,1.1169,1.2440,1.1968,-0.0400,-0.1453,0.2144,
6.072818,0.4064,-0.8243,0.0172,1.1169,1.2440,1.1968,0.0302,-0.0231,0.1771,
6.082229,0.4064,-0.8243,0.0172,1.1169,1.2440,1.1968,0.1176,0.0355,0.1453,
6.085242,0.3606,-0.8229,-0.0099,1.1169,1.2440,1.1968,0.1176,0.0355,0.1453,
6.087660,0.3606,-0.8229,-0.0099,0.6532,1.2575,0.8858,0.1176,0.0355,0.1453,
6.094783,0.3606,-0.8229,-0.0099,0.6532,1.2575,0.8858,0.2129,0.0062,0.1215,
6.102530,0.3606,-0.8229,-0.0099,0.6532,1.2575,0.8858,0.3057,-0.1209,0.1007,
6.107626,0.3170,-0.8096,-0.0211,0.6532,1.2575,0.8858,0.3057,-0.1209,0.1007,
6.110095,0.3170,-0.8096,-0.0211,0.2124,1.3909,0.7058,0.3057,-0.1209,0.1007,
6.112955,0.3170,-0.8096,-0.0211,0.2124,1.3909,0.7058,0.3967,-0.3053,0.0848,
6.122998,0.3170,-0.8096,-0.0211,0.2124,1.3909,0.7058,0.4914,-0.4739,0.0806,
6.126072,0.2774,-0.7680,-0.0125,0.2124,1.3909,0.7058,0.4914,-0.4739,0.0806,
6.128105,0.2774,-0.7680,-0.0125,-0.1796,1.8053,0.7109,0.4914,-0.4739,0.0806,
6.132187,0.2774,-0.7680,-0.0125,-0.1796,1.8053,0.7109,0.5916,-0.5717,0.0873,
6.142308,0.2774,-0.7680,-0.0125,-0.1796,1.8053,0.7109,0.6930,-0.6114,0.1056,
6.145426,0.2599,-0.6662,0.0360,-0.1796,1.8053,0.7109,0.6930,-0.6114,0.1056,
6.147378,0.2599,-0.6662,0.0360,-0.3482,2.8122,1.0794,0.6930,-0.6114,0.1056,
6.152278,0.2599,-0.6662,0.0360,-0.3482,2.8122,1.0794,0.7956,-0.6254,0.1307,
6.162176,0.2599,-0.6662,0.0360,-0.3482,2.8122,1.0794,0.9019,-0.6370,0.1508,
6.165347,0.3021,-0.6359,0.0849,-0.3482,2.8122,1.0794,0.9019,-0.6370,0.1508,
6.167111,0.3021,-0.6359,0.0849,0.0667,3.1202,1.4074,0.9019,-0.6370,0.1508,
6.173152,0.3021,-0.6359,0.0849,0.0667,3.1202,1.4074,1.0192,-0.6505,0.1551,
6.182145,0.3021,-0.6359,0.0849,0.0667,3.1202,1.4074,1.1432,-0.6682,0.1343,
6.185371,0.3375,-0.7290,0.0424,0.0667,3.1202,1.4074,1.1432,-0.6682,0.1343,
6.187777,0.3375,-0.7290,0.0424,0.4122,2.2172,0.8019,1.1432,-0.6682,0.1343,
6.193328,0.3375,-0.7290,0.0424,0.4122,2.2172,0.8019,1.2465,-0.6645,0.0794,
6.202239,0.3375,-0.7290,0.0424,0.4122,2.2172,0.8019,1.2843,-0.5980,-0.0801,
6.207879,0.3302,-0.8819,-0.0517,0.4122,2.2172,0.8019,1.2843,-0.5980,-0.0801,
6.210675,0.3302,-0.8819,-0.0517,0.3221,0.7190,-0.3266,1.2843,-0.5980,-0.0801,
6.213388,0.3302,-0.8819,-0.0517,0.3221,0.7190,-0.3266,1.2226,-0.5552,-0.1412,
6.223347,0.3302,-0.8819,-0.0517,0.3221,0.7190,-0.3266,1.1096,-0.4617,-0.1833,
6.226600,0.2845,-1.0118,-0.1518,0.3221,0.7190,-0.3266,1.1096,-0.4617,-0.1833,
6.228437,0.2845,-1.0118,-0.1518,-0.1637,-0.5637,-1.4896,1.1096,-0.4617,-0.1833,
6.232248,0.2845,-1.0118,-0.1518,-0.1637,-0.5637,-1.4896,0.9716,-0.3670,-0.2114,
6.242282,0.2845,-1.0118,-0.1518,-0.1637,-0.5637,-1.4896,0.8641,-0.3756,-0.2304,
6.245441,0.2284,-1.1565,-0.1446,-0.1637,-0.5637,-1.4896,0.8641,-0.3756,-0.2304,
6.247401,0.2284,-1.1565,-0.1446,-0.7536,-1.9961,-1.5509,0.8641,-0.3756,-0.2304,
6.252138,0.2284,-1.1565,-0.1446,-0.7536,-1.9961,-1.5509,0.8115,-0.5375,-0.2322,
6.262111,0.2284,-1.1565,-0.1446,-0.7536,-1.9961,-1.5509,0.8011,-0.7647,-0.2273,
6.265510,0.2155,-1.2311,-0.1754,-0.7536,-1.9961,-1.5509,0.8011,-0.7647,-0.2273,
6.267654,0.2155,-1.2311,-0.1754,-0.9106,-2.7374,-1.9285,0.8011,-0.7647,-0.2273,
6.273343,0.2155,-1.2311,-0.1754,-0.9106,-2.7374,-1.9285,0.7688,-0.9180,-0.2530,
6.282244,0.2155,-1.2311,-0.1754,-0.9106,-2.7374,-1.9285,0.6625,-0.8600,-0.3299,
6.285358,0.2697,-1.1947,-0.2464,-0.9106,-2.7374,-1.9285,0.6625,-0.8600,-0.3299,
6.287810,0.2697,-1.1947,-0.2464,-0.4127,-2.3921,-2.6442,0.6625,-0.8600,-0.3299,
6.293381,0.2697,-1.1947,-0.2464,-0.4127,-2.3921,-2.6442,0.4896,-0.5699,-0.4112,
6.302141,0.2697,-1.1947,-0.2464,-0.4127,-2.3921,-2.6442,0.3045,-0.1881,-0.4423,
6.306360,0.2436,-1.1501,-0.2020,-0.4127,-2.3921,-2.6442,0.3045,-0.1881,-0.4423,
6.308263,0.2436,-1.1501,-0.2020,-0.7180,-1.9711,-2.1949,0.3045,-0.1881,-0.4423,
6.313336,0.2436,-1.1501,-0.2020,-0.7180,-1.9711,-2.1949,0.1286,0.1754,-0.4350,
6.323316,0.2436,-1.1501,-0.2020,-0.7180,-1.9711,-2.1949,-0.0419,0.4503,-0.3959,
6.326480,0.1135,-1.1736,-0.1689,-0.7180,-1.9711,-2.1949,-0.0419,0.4503,-0.3959,
6.328312,0.1135,-1.1736,-0.1689,-2.0201,-2.2105,-1.8339,-0.0419,0.4503,-0.3959,
6.332179,0.1135,-1.1736,-0.1689,-2.0201,-2.2105,-1.8339,-0.2013,0.5694,-0.3128,
6.342408,0.1135,-1.1736,-0.1689,-2.0201,-2.2105,-1.8339,-0.3192,0.4918,-0.1852,
6.345553,0.0376,-1.1894,0.0237,-2.0201,-2.2105,-1.8339,-0.3192,0.4918,-0.1852,
6.347588,0.0376,-1.1894,0.0237,-2.7415,-2.3566,0.1125,-0.3192,0.4918,-0.1852,
6.352360,0.0376,-1.1894,0.0237,-2.7415,-2.3566,0.1125,-0.3387,0.2793,-0.0465,
6.362223,0.0376,-1.1894,0.0237,-2.7415,-2.3566,0.1125,-0.2441,0.0819,0.0439,
6.365483,0.1186,-1.1692,0.0472,-2.7415,-2.3566,0.1125,-0.2441,0.0819,0.0439,
6.367766,0.1186,-1.1692,0.0472,-1.8786,-2.1356,0.4109,-0.2441,0.0819,0.0439,
6.373593,0.1186,-1.1692,0.0472,-1.8786,-2.1356,0.4109,-0.1188,0.0349,0.0360,
6.382172,0.1186,-1.1692,0.0472,-1.8786,-2.1356,0.4109,-0.2099,0.4509,-0.2218,
6.385402,0.1711,-1.2131,-0.1471,-1.8786,-2.1356,0.4109,-0.2099,0.4509,-0.2218,
6.388028,0.1711,-1.2131,-0.1471,-1.3142,-2.5491,-1.4456,-0.2099,0.4509,-0.2218,
6.393619,0.1711,-1.2131,-0.1471,-1.3142,-2.5491,-1.4456,-0.4285,0.7215,-0.3391,
6.402354,0.1711,-1.2131,-0.1471,-1.3142,-2.5491,-1.4456,-0.6539,0.8981,-0.3745,
6.405628,0.1345,-1.2212,-0.1881,-1.3142,-2.5491,-1.4456,-0.6539,0.8981,-0.3745,
6.407832,0.1345,-1.2212,-0.1881,-1.6705,-2.6276,-1.7595,-0.6539,0.8981,-0.3745,
6.412907,0.1345,-1.2212,-0.1881,-1.6705,-2.6276,-1.7595,-0.8238,0.9799,-0.3531,
6.423570,0.1345,-1.2212,-0.1881,-1.6705,-2.6276,-1.7595,-0.9075,0.9952,-0.3128,
6.426954,0.0853,-1.1561,-0.1256,-1.6705,-2.6276,-1.7595,-0.9075,0.9952,-0.3128,
6.429398,0.0853,-1.1561,-0.1256,-2.1424,-1.9884,-1.0126,-0.9075,0.9952,-0.3128,
6.432095,0.0853,-1.1561,-0.1256,-2.1424,-1.9884,-1.0126,-0.8904,0.9310,-0.2731,
6.442166,0.0853,-1.1561,-0.1256,-2.1424,-1.9884,-1.0126,-0.7847,0.8070,-0.2352,
6.445643,0.0233,-1.0833,-0.0707,-2.1424,-1.9884,-1.0126,-0.7847,0.8070,-0.2352,
6.447855,0.0233,-1.0833,-0.0707,-2.7181,-1.2688,-0.3478,-0.7847,0.8070,-0.2352,
6.452009,0.0233,-1.0833,-0.0707,-2.7181,-1.2688,-0.3478,-0.6417,0.6733,-0.1870,
6.461856,0.0233,-1.0833,-0.0707,-2.7181,-1.2688,-0.3478,-0.5067,0.5664,-0.1283,
6.465353,-0.0252,-1.0345,-0.0666,-2.7181,-1.2688,-0.3478,-0.5067,0.5664,-0.1283,
6.467036,-0.0252,-1.0345,-0.0666,-3.1352,-0.7767,-0.2195,-0.5067,0.5664,-0.1283,
6.473322,-0.0252,-1.0345,-0.0666,-3.1352,-0.7767,-0.2195,-0.3992,0.5034,-0.0746,
6.482037,-0.0252,-1.0345,-0.0666,-3.1352,-0.7767,-0.2195,-0.3406,0.4863,-0.0410,
6.485326,-0.0160,-1.0210,-0.1235,-3.1352,-0.7767,-0.2195,-0.3406,0.4863,-0.0410,
6.487453,-0.0160,-1.0210,-0.1235,-2.9639,-0.6220,-0.7181,-0.3406,0.4863,-0.0410,
6.491977,-0.0160,-1.0210,-0.1235,-2.9639,-0.6220,-0.7181,-0.3601,0.5083,-0.0202,
6.502127,-0.0160,-1.0210,-0.1235,-2.9639,-0.6220,-0.7181,-0.4627,0.5602,0.0012,
6.506998,-0.0170,-1.0224,-0.2667,-2.9639,-0.6220,-0.7181,-0.4627,0.5602,0.0012,
6.509543,-0.0170,-1.0224,-0.2667,-2.8816,-0.6139,-2.0412,-0.4627,0.5602,0.0012,
6.511806,-0.0170,-1.0224,-0.2667,-2.8816,-0.6139,-2.0412,-0.6081,0.6250,0.0286,
6.522884,-0.0170,-1.0224,-0.2667,-2.8816,-0.6139,-2.0412,-0.7407,0.7020,0.0690,
6.525340,-0.0257,-0.9571,-0.2240,-2.8816,-0.6139,-2.0412,-0.7407,0.7020,0.0690,
6.527137,-0.0257,-0.9571,-0.2240,-2.8653,0.0466,-1.4949,-0.7407,0.7020,0.0690,
6.532658,-0.0257,-0.9571,-0.2240,-2.8653,0.0466,-1.4949,-0.8225,0.7869,0.1258,
6.542304,-0.0257,-0.9571,-0.2240,-2.8653,0.0466,-1.4949,-0.8415,0.8785,0.1997,
6.545445,0.0077,-0.8844,-0.1695,-2.8653,0.0466,-1.4949,-0.8415,0.8785,0.1997,
6.547323,0.0077,-0.8844,-0.1695,-2.4239,0.7778,-0.8132,-0.8415,0.8785,0.1997,
6.552139,0.0077,-0.8844,-0.1695,-2.4239,0.7778,-0.8132,-0.8103,0.9518,0.2730,
6.562277,0.0077,-0.8844,-0.1695,-2.4239,0.7778,-0.8132,-0.7511,0.9842,0.3170,
6.565638,0.0574,-0.8799,-0.1335,-2.4239,0.7778,-0.8132,-0.7511,0.9842,0.3170,
6.567402,0.0574,-0.8799,-0.1335,-1.8118,0.8421,-0.3337,-0.7511,0.9842,0.3170,
6.573837,0.0574,-0.8799,-0.1335,-1.8118,0.8421,-0.3337,-0.5984,0.9017,0.3622,
6.582134,0.0574,-0.8799,-0.1335,-1.8118,0.8421,-0.3337,-0.5208,0.7850,0.3830,
6.585414,0.1393,-0.8926,-0.1025,-1.8118,0.8421,-0.3337,-0.5208,0.7850,0.3830,
6.587717,0.1393,-0.8926,-0.1025,-0.8876,0.7384,0.0546,-0.5208,0.7850,0.3830,
6.594113,0.1393,-0.8926,-0.1025,-0.8876,0.7384,0.0546,-0.4493,0.6751,0.3720,
6.601938,0.1393,-0.8926,-0.1025,-0.8876,0.7384,0.0546,-0.3888,0.6024,0.3335,
6.606643,0.2077,-0.8978,-0.0544,-0.8876,0.7384,0.0546,-0.3888,0.6024,0.3335,
6.609116,0.2077,-0.8978,-0.0544,-0.1295,0.7010,0.5813,-0.3888,0.6024,0.3335,
6.611881,0.2077,-0.8978,-0.0544,-0.1295,0.7010,0.5813,-0.3149,0.5181,0.3029,
6.623272,0.2077,-0.8978,-0.0544,-0.1295,0.7010,0.5813,-0.2111,0.3855,0.2938,
6.625886,0.1958,-0.8593,0.0027,-0.1295,0.7010,0.5813,-0.2111,0.3855,0.2938,
6.627636,0.1958,-0.8593,0.0027,-0.1817,1.0894,1.1660,-0.2111,0.3855,0.2938,
6.631960,0.1958,-0.8593,0.0027,-0.1817,1.0894,1.1660,-0.0773,0.2255,0.2938,
6.642015,0.1958,-0.8593,0.0027,-0.1817,1.0894,1.1660,0.0736,0.0801,0.2681,
6.645149,0.1418,-0.8509,-0.0390,-0.1817,1.0894,1.1660,0.0736,0.0801,0.2681,
6.646766,0.1418,-0.8509,-0.0390,-0.6478,1.1872,0.7449,0.0736,0.0801,0.2681,
6.652133,0.1418,-0.8509,-0.0390,-0.6478,1.1872,0.7449,0.2245,-0.0665,0.2168,
6.662332,0.1418,-0.8509,-0.0390,-0.6478,1.1872,0.7449,0.3570,-0.2608,0.1789,
6.665519,0.0392,-0.8954,-0.1562,-0.6478,1.1872,0.7449,0.3570,-0.2608,0.1789,
6.667597,0.0392,-0.8954,-0.1562,-1.5927,0.7700,-0.4540,0.3570,-0.2608,0.1789,
6.673527,0.0392,-0.8954,-0.1562,-1.5927,0.7700,-0.4540,0.4664,-0.5112,0.1630,
6.682147,0.0392,-0.8954,-0.1562,-1.5927,0.7700,-0.4540,0.5452,-0.7812,0.1459,
6.685285,0.0153,-0.9181,-0.2529,-1.5927,0.7700,-0.4540,0.5452,-0.7812,0.1459,
6.687367,0.0153,-0.9181,-0.2529,-1.7536,0.5686,-1.4582,0.5452,-0.7812,0.1459,
6.692649,0.0153,-0.9181,-0.2529,-1.7536,0.5686,-1.4582,0.5904,-1.0219,0.0983,
6.701660,0.0153,-0.9181,-0.2529,-1.7536,0.5686,-1.4582,0.5922,-1.1367,0.0048,
6.706187,0.0645,-0.8319,-0.2692,-1.7536,0.5686,-1.4582,0.5922,-1.1367,0.0048,
6.707913,0.0645,-0.8319,-0.2692,-1.2052,1.4308,-1.6586,0.5922,-1.1367,0.0048,
6.711615,0.0645,-0.8319,-0.2692,-1.2052,1.4308,-1.6586,0.5513,-1.0170,-0.0837,
6.723138,0.0645,-0.8319,-0.2692,-1.2052,1.4308,-1.6586,0.4768,-0.7104,-0.1155,
6.725540,0.1247,-0.7444,-0.2922,-1.2052,1.4308,-1.6586,0.4768,-0.7104,-0.1155,
6.727145,0.1247,-0.7444,-0.2922,-0.5862,2.2946,-1.8956,0.4768,-0.7104,-0.1155,
6.732266,0.1247,-0.7444,-0.2922,-0.5862,2.2946,-1.8956,0.3723,-0.3481,-0.1296,
6.741384,0.1247,-0.7444,-0.2922,-0.5862,2.2946,-1.8956,0.2367,-0.0103,-0.1558,
6.744452,0.1924,-0.7472,-0.3154,-0.5862,2.2946,-1.8956,0.2367,-0.0103,-0.1558,
6.745516,0.1924,-0.7472,-0.3154,0.0716,2.2640,-2.1027,0.2367,-0.0103,-0.1558,
6.751356,0.1924,-0.7472,-0.3154,0.0716,2.2640,-2.1027,0.0937,0.5462,-0.2554,
6.761287,0.1924,-0.7472,-0.3154,0.0716,2.2640,-2.1027,-0.1396,0.7392,-0.3312,
6.764740,0.2538,-0.8466,-0.3171,0.0716,2.2640,-2.1027,-0.1396,0.7392,-0.3312,
6.765551,0.2538,-0.8466,-0.3171,0.6098,1.2710,-2.0611,-0.1396,0.7392,-0.3312,
6.771698,0.2538,-0.8466,-0.3171,0.6098,1.2710,-2.0611,-0.2062,0.8296,-0.4289,
6.781387,0.2538,-0.8466,-0.3171,0.6098,1.2710,-2.0611,-0.2215,0.8015,-0.5285,
6.784489,0.3011,-1.0224,-0.2839,0.6098,1.2710,-2.0611,-0.2215,0.8015,-0.5285,
6.785252,0.3011,-1.0224,-0.2839,0.9611,-0.4833,-1.6565,-0.2215,0.8015,-0.5285,
6.791285,0.3011,-1.0224,-0.2839,0.9611,-0.4833,-1.6565,-0.1872,0.6427,-0.5981,
6.801186,0.3011,-1.0224,-0.2839,0.9611,-0.4833,-1.6565,-0.1152,0.3061,-0.6274,
6.805356,0.3211,-1.2074,-0.1898,0.9611,-0.4833,-1.6565,-0.1152,0.3061,-0.6274,
6.806937,0.3211,-1.2074,-0.1898,1.0276,-2.3292,-0.6889,-0.1152,0.3061,-0.6274,
6.812159,0.3211,-1.2074,-0.1898,1.0276,-2.3292,-0.6889,0.0143,-0.3970,-0.6219,
6.824211,0.3211,-1.2074,-0.1898,1.0276,-2.3292,-0.6889,0.3271,-1.6266,-0.5999,
6.826844,0.2987,-1.2063,0.3241,1.0276,-2.3292,-0.6889,0.3271,-1.6266,-0.5999,
6.828640,0.2987,-1.2063,0.3241,0.7142,-2.3406,4.3548,0.3271,-1.6266,-0.5999,
6.831999,0.2987,-1.2063,0.3241,0.7142,-2.3406,4.3548,0.7828,-2.7525,-0.5535,
6.841902,0.2987,-1.2063,0.3241,0.7142,-2.3406,4.3548,1.0595,-3.0732,-0.4930,
6.845043,0.2180,-1.0061,0.0953,0.7142,-2.3406,4.3548,1.0595,-3.0732,-0.4930,
6.846644,0.2180,-1.0061,0.0953,-0.1073,-0.3786,2.0522,1.0595,-3.0732,-0.4930,
6.851832,0.2180,-1.0061,0.0953,-0.1073,-0.3786,2.0522,1.0522,-2.7549,-0.4393,
6.861806,0.2180,-1.0061,0.0953,-0.1073,-0.3786,2.0522,0.8909,-2.2436,-0.3873,
6.865089,0.3104,-0.8253,0.0566,-0.1073,-0.3786,2.0522,0.8909,-2.2436,-0.3873,
6.866716,0.3104,-0.8253,0.0566,0.7668,1.3963,1.5788,0.8909,-2.2436,-0.3873,
6.874156,0.3104,-0.8253,0.0566,0.7668,1.3963,1.5788,0.7077,-1.8124,-0.3556,
6.882030,0.3104,-0.8253,0.0566,0.7668,1.3963,1.5788,0.5659,-1.4959,-0.3586,
6.885343,0.6007,-0.8905,0.0825,0.7668,1.3963,1.5788,0.5659,-1.4959,-0.3586,
6.888100,0.6007,-0.8905,0.0825,3.5349,0.7471,1.7462,0.5659,-1.4959,-0.3586,
6.894066,0.6007,-0.8905,0.0825,3.5349,0.7471,1.7462,0.4658,-1.2455,-0.3849,
6.901816,0.6007,-0.8905,0.0825,3.5349,0.7471,1.7462,0.3747,-0.9932,-0.4191,
6.906902,0.7196,-0.9753,-0.0331,3.5349,0.7471,1.7462,0.3747,-0.9932,-0.4191,
6.909534,0.7196,-0.9753,-0.0331,4.5701,-0.1108,0.5512,0.3747,-0.9932,-0.4191,
6.912026,0.7196,-0.9753,-0.0331,4.5701,-0.1108,0.5512,0.2807,-0.7207,-0.4435,
6.924015,0.7196,-0.9753,-0.0331,4.5701,-0.1108,0.5512,0.1964,-0.4813,-0.4539,
6.926483,0.8023,-1.0037,-0.0639,4.5701,-0.1108,0.5512,0.1964,-0.4813,-0.4539,
6.928624,0.8023,-1.0037,-0.0639,5.2112,-0.4320,0.2071,0.1964,-0.4813,-0.4539,
6.932766,0.8023,-1.0037,-0.0639,5.2112,-0.4320,0.2071,0.1402,-0.3267,-0.4466,
6.942363,0.8023,-1.0037,-0.0639,5.2112,-0.4320,0.2071,0.1640,-0.3231,-0.3330,
6.946069,0.7895,-1.0010,-0.0590,5.2112,-0.4320,0.2071,0.1640,-0.3231,-0.3330,
6.947602,0.7895,-1.0010,-0.0590,4.9124,-0.4533,0.2217,0.1640,-0.3231,-0.3330,
6.952032,0.7895,-1.0010,-0.0590,4.9124,-0.4533,0.2217,0.2074,-0.4019,-0.2328,
6.961875,0.7895,-1.0010,-0.0590,4.9124,-0.4533,0.2217,0.2202,-0.4764,-0.1522,
6.965153,0.6365,-1.0373,-0.0688,4.9124,-0.4533,0.2217,0.2202,-0.4764,-0.1522,
6.966950,0.6365,-1.0373,-0.0688,3.2864,-0.8454,0.0936,0.2202,-0.4764,-0.1522,
6.973864,0.6365,-1.0373,-0.0688,3.2864,-0.8454,0.0936,0.2098,-0.4953,-0.1112,
6.982170,0.6365,-1.0373,-0.0688,3.2864,-0.8454,0.0936,0.1952,-0.4513,-0.0575,
6.985120,0.4268,-1.0395,-0.0566,3.2864,-0.8454,0.0936,0.1952,-0.4513,-0.0575,
6.988477,0.4268,-1.0395,-0.0566,1.1454,-0.8925,0.1888,0.1952,-0.4513,-0.0575,
6.993393,0.4268,-1.0395,-0.0566,1.1454,-0.8925,0.1888,0.1768,-0.3634,0.0067,
7.001917,0.4268,-1.0395,-0.0566,1.1454,-0.8925,0.1888,0.1738,-0.2705,0.0690,
7.007184,0.3218,-0.9771,-0.0056,1.1454,-0.8925,0.1888,0.1738,-0.2705,0.0690,
7.009477,0.3218,-0.9771,-0.0056,0.0767,-0.2914,0.6591,0.1738,-0.2705,0.0690,
7.011875,0.3218,-0.9771,-0.0056,0.0767,-0.2914,0.6591,0.2116,-0.2351,0.1148,
7.023663,0.3218,-0.9771,-0.0056,0.0767,-0.2914,0.6591,0.2581,-0.2595,0.1294,
7.025600,0.3632,-0.9602,-0.0261,0.0767,-0.2914,0.6591,0.2581,-0.2595,0.1294,
7.027054,0.3632,-0.9602,-0.0261,0.4743,-0.1259,0.4174,0.2581,-0.2595,0.1294,
7.031664,0.3632,-0.9602,-0.0261,0.4743,-0.1259,0.4174,0.2636,-0.2913,0.1294,
7.041795,0.3632,-0.9602,-0.0261,0.4743,-0.1259,0.4174,0.2275,-0.3005,0.1496,
7.044801,0.4969,-0.8766,-0.0939,0.4743,-0.1259,0.4174,0.2275,-0.3005,0.1496,
7.046025,0.4969,-0.8766,-0.0939,1.7713,0.6919,-0.2808,0.2275,-0.3005,0.1496,
7.051750,0.4969,-0.8766,-0.0939,1.7713,0.6919,-0.2808,0.1756,-0.2742,0.1508,
7.061582,0.4969,-0.8766,-0.0939,1.7713,0.6919,-0.2808,0.1206,-0.1972,0.1191,
7.064883,0.5984,-0.7075,-0.0735,1.7713,0.6919,-0.2808,0.1206,-0.1972,0.1191,
7.066164,0.5984,-0.7075,-0.0735,2.7203,2.3344,-0.0973,0.1206,-0.1972,0.1191,
7.073458,0.5984,-0.7075,-0.0735,2.7203,2.3344,-0.0973,0.0736,-0.0775,0.0720,
7.081677,0.5984,-0.7075,-0.0735,2.7203,2.3344,-0.0973,0.0357,0.0691,0.0274,
7.084787,0.5317,-0.6866,-0.0377,2.7203,2.3344,-0.0973,0.0357,0.0691,0.0274,
7.085974,0.5317,-0.6866,-0.0377,1.9923,2.5144,0.2399,0.0357,0.0691,0.0274,
7.091703,0.5317,-0.6866,-0.0377,1.9923,2.5144,0.2399,0.0088,0.2371,0.0024,
7.101632,0.5317,-0.6866,-0.0377,1.9923,2.5144,0.2399,-0.0138,0.4185,-0.0013,
7.106376,0.4327,-0.7159,-0.0137,1.9923,2.5144,0.2399,-0.0138,0.4185,-0.0013,
7.108180,0.4327,-0.7159,-0.0137,0.9384,2.1995,0.4488,-0.0138,0.4185,-0.0013,
7.112235,0.4327,-0.7159,-0.0137,0.9384,2.1995,0.4488,-0.0248,0.5548,0.0030,
7.123677,0.4327,-0.7159,-0.0137,0.9384,2.1995,0.4488,-0.0718,0.8376,-0.0001,
7.125869,0.3790,-0.7067,-0.0213,0.9384,2.1995,0.4488,-0.0718,0.8376,-0.0001,
7.127441,0.3790,-0.7067,-0.0213,0.3348,2.2648,0.3314,-0.0718,0.8376,-0.0001,
7.131896,0.3790,-0.7067,-0.0213,0.3348,2.2648,0.3314,-0.0865,0.9689,-0.0123,
7.141973,0.3790,-0.7067,-0.0213,0.3348,2.2648,0.3314,-0.0797,1.0251,-0.0361,
7.145172,0.3555,-0.7139,-0.0298,0.3348,2.2648,0.3314,-0.0797,1.0251,-0.0361,
7.146749,0.3555,-0.7139,-0.0298,0.0323,2.1707,0.1914,-0.0797,1.0251,-0.0361,
7.151919,0.3555,-0.7139,-0.0298,0.0323,2.1707,0.1914,-0.0718,1.0129,-0.0728,
7.162414,0.3555,-0.7139,-0.0298,0.0323,2.1707,0.1914,-0.0718,0.9762,-0.1192,
7.165123,0.3519,-0.7273,-0.0814,0.0323,2.1707,0.1914,-0.0718,0.9762,-0.1192,
7.166817,0.3519,-0.7273,-0.0814,-0.0697,2.0160,-0.3658,-0.0718,0.9762,-0.1192,
7.174054,0.3519,-0.7273,-0.0814,-0.0697,2.0160,-0.3658,-0.0865,0.9616,-0.1650,
7.181961,0.3519,-0.7273,-0.0814,-0.0697,2.0160,-0.3658,-0.1048,0.9628,-0.2133,
7.185169,0.3508,-0.6837,-0.1053,-0.0697,2.0160,-0.3658,-0.1048,0.9628,-0.2133,
7.187115,0.3508,-0.6837,-0.1053,-0.1561,2.4157,-0.6402,-0.1048,0.9628,-0.2133,
7.192039,0.3508,-0.6837,-0.1053,-0.1561,2.4157,-0.6402,-0.1249,1.0019,-0.2841,
7.201904,0.3508,-0.6837,-0.1053,-0.1561,2.4157,-0.6402,-0.1280,1.0801,-0.3916,
7.207493,0.4181,-0.5326,-0.0586,-0.1561,2.4157,-0.6402,-0.1280,1.0801,-0.3916,
7.209607,0.4181,-0.5326,-0.0586,0.3849,3.8503,-0.2196,-0.1280,1.0801,-0.3916,
7.211996,0.4181,-0.5326,-0.0586,0.3849,3.8503,-0.2196,-0.1078,1.1846,-0.5315,
7.223996,0.4181,-0.5326,-0.0586,0.3849,3.8503,-0.2196,-0.0846,1.3208,-0.6690,
7.226908,0.4157,-0.4203,-0.0611,0.3849,3.8503,-0.2196,-0.0846,1.3208,-0.6690,
7.228807,0.4157,-0.4203,-0.0611,0.1777,4.8753,-0.2987,-0.0846,1.3208,-0.6690,
7.231966,0.4157,-0.4203,-0.0611,0.1777,4.8753,-0.2987,-0.0626,1.4961,-0.7526,
7.241917,0.4157,-0.4203,-0.0611,0.1777,4.8753,-0.2987,-0.0272,1.7172,-0.7264,
7.245105,0.2675,-0.5882,-0.0257,0.1777,4.8753,-0.2987,-0.0272,1.7172,-0.7264,
7.246755,0.2675,-0.5882,-0.0257,-1.4494,3.1555,-0.0536,-0.0272,1.7172,-0.7264,
7.252067,0.2675,-0.5882,-0.0257,-1.4494,3.1555,-0.0536,0.0351,1.9518,-0.6140,
7.262031,0.2675,-0.5882,-0.0257,-1.4494,3.1555,-0.0536,0.1133,2.1601,-0.4704,
7.265105,0.2176,-1.1490,-0.0215,-1.4494,3.1555,-0.0536,0.1133,2.1601,-0.4704,
7.266622,0.2176,-1.1490,-0.0215,-2.0357,-2.3830,-0.1875,0.1133,2.1601,-0.4704,
7.273922,0.2176,-1.1490,-0.0215,-2.0357,-2.3830,-0.1875,0.2061,2.3024,-0.3177,
7.282172,0.2176,-1.1490,-0.0215,-2.0357,-2.3830,-0.1875,0.3057,2.3165,-0.1571,
7.285030,0.2586,-1.5042,-0.1057,-2.0357,-2.3830,-0.1875,0.3057,2.3165,-0.1571,
7.286534,0.2586,-1.5042,-0.1057,-1.6293,-5.8641,-1.2220,0.3057,2.3165,-0.1571,
7.291882,0.2586,-1.5042,-0.1057,-1.6293,-5.8641,-1.2220,0.3833,2.1607,-0.0092,
7.301949,0.2586,-1.5042,-0.1057,-1.6293,-5.8641,-1.2220,0.4047,1.8095,0.0757,
7.307500,0.3563,-1.5230,-0.1164,-1.6293,-5.8641,-1.2220,0.4047,1.8095,0.0757,
7.309886,0.3563,-1.5230,-0.1164,-0.5989,-6.0209,-1.5204,0.4047,1.8095,0.0757,
7.312346,0.3563,-1.5230,-0.1164,-0.5989,-6.0209,-1.5204,0.3589,0.6531,-0.0709,
7.324339,0.3563,-1.5230,-0.1164,-0.5989,-6.0209,-1.5204,0.3747,0.2249,-0.2505,
7.326467,0.3331,-1.2508,0.1448,-0.5989,-6.0209,-1.5204,0.3747,0.2249,-0.2505,
7.328411,0.3331,-1.2508,0.1448,-0.7964,-3.3437,0.9614,0.3747,0.2249,-0.2505,
7.331999,0.3331,-1.2508,0.1448,-0.7964,-3.3437,0.9614,0.4047,0.0801,-0.3458,
7.342340,0.3331,-1.2508,0.1448,-0.7964,-3.3437,0.9614,0.4254,0.1113,-0.2945,
7.346163,0.2256,-1.1757,0.2542,-0.7964,-3.3437,0.9614,0.4254,0.1113,-0.2945,
7.347835,0.2256,-1.1757,0.2542,-1.8409,-2.6078,1.9546,0.4254,0.1113,-0.2945,
7.352327,0.2256,-1.1757,0.2542,-1.8409,-2.6078,1.9546,0.3992,0.1516,-0.1216,
7.362359,0.2256,-1.1757,0.2542,-1.8409,-2.6078,1.9546,0.2880,0.1003,0.1062,
7.365433,0.2035,-1.1712,0.2172,-1.8409,-2.6078,1.9546,0.2880,0.1003,0.1062,
7.367329,0.2035,-1.1712,0.2172,-1.9872,-2.5371,1.5105,0.2880,0.1003,0.1062,
7.374835,0.2035,-1.1712,0.2172,-1.9872,-2.5371,1.5105,0.1139,0.0001,0.3194,
7.382005,0.2035,-1.1712,0.2172,-1.9872,-2.5371,1.5105,-0.0639,-0.0873,0.4587,
7.385325,0.1841,-1.1528,0.2047,-1.9872,-2.5371,1.5105,-0.0639,-0.0873,0.4587,
7.387492,0.1841,-1.1528,0.2047,-2.0365,-2.2963,1.3687,-0.0639,-0.0873,0.4587,
7.392934,0.1841,-1.1528,0.2047,-2.0365,-2.2963,1.3687,-0.1793,-0.1673,0.5106,
7.402103,0.1841,-1.1528,0.2047,-2.0365,-2.2963,1.3687,-0.2294,-0.2534,0.5222,
7.408056,0.1529,-1.1170,0.1736,-2.0365,-2.2963,1.3687,-0.2294,-0.2534,0.5222,
7.411551,0.1529,-1.1170,0.1736,-2.1779,-1.8754,1.0917,-0.2294,-0.2534,0.5222,
7.414016,0.1529,-1.1170,0.1736,-2.1779,-1.8754,1.0917,-0.2606,-0.3585,0.5210,
7.425123,0.1529,-1.1170,0.1736,-2.1779,-1.8754,1.0917,-0.3192,-0.4758,0.5161,
7.427951,0.1490,-1.0321,0.0381,-2.1779,-1.8754,1.0917,-0.3192,-0.4758,0.5161,
7.430112,0.1490,-1.0321,0.0381,-2.0549,-0.9756,-0.1715,-0.3192,-0.4758,0.5161,
7.432623,0.1490,-1.0321,0.0381,-2.0549,-0.9756,-0.1715,-0.4243,-0.5662,0.5198,
7.442868,0.1490,-1.0321,0.0381,-2.0549,-0.9756,-0.1715,-0.5660,-0.5937,0.5454,
7.446182,0.1871,-0.8833,-0.0839,-2.0549,-0.9756,-0.1715,-0.5660,-0.5937,0.5454,
7.448254,0.1871,-0.8833,-0.0839,-1.5276,0.5467,-1.2418,-0.5660,-0.5937,0.5454,
7.452112,0.1871,-0.8833,-0.0839,-1.5276,0.5467,-1.2418,-0.7144,-0.5356,0.5876,
7.462200,0.1871,-0.8833,-0.0839,-1.5276,0.5467,-1.2418,-0.8372,-0.3933,0.6328,
7.465600,0.2145,-0.8216,-0.0965,-1.5276,0.5467,-1.2418,-0.8372,-0.3933,0.6328,
7.467951,0.2145,-0.8216,-0.0965,-1.1093,1.2110,-1.1885,-0.8372,-0.3933,0.6328,
7.475476,0.2145,-0.8216,-0.0965,-1.1093,1.2110,-1.1885,-0.9246,-0.1820,0.6780,
7.481979,0.2145,-0.8216,-0.0965,-1.1093,1.2110,-1.1885,-0.9716,0.0703,0.7275,
7.485228,0.2160,-0.8282,-0.0944,-1.1093,1.2110,-1.1885,-0.9716,0.0703,0.7275,
7.487166,0.2160,-0.8282,-0.0944,-0.9393,1.2019,-0.9832,-0.9716,0.0703,0.7275,
7.493016,0.2160,-0.8282,-0.0944,-0.9393,1.2019,-0.9832,-0.9582,0.5993,0.8448,
7.501687,0.2160,-0.8282,-0.0944,-0.9393,1.2019,-0.9832,-0.9203,0.8278,0.8851,
7.507882,0.2256,-0.8578,-0.0948,-0.9393,1.2019,-0.9832,-0.9203,0.8278,0.8851,
7.509902,0.2256,-0.8578,-0.0948,-0.6692,0.9678,-0.8477,-0.9203,0.8278,0.8851,
7.511933,0.2256,-0.8578,-0.0948,-0.6692,0.9678,-0.8477,-0.8800,0.9891,0.8967,
7.525056,0.2256,-0.8578,-0.0948,-0.6692,0.9678,-0.8477,-0.8403,1.0312,0.8833,
7.527225,0.1954,-0.8686,-0.0633,-0.6692,0.9678,-0.8477,-0.8403,1.0312,0.8833,
7.528655,0.1954,-0.8686,-0.0633,-0.7914,0.9112,-0.4291,-0.8403,1.0312,0.8833,
7.531716,0.1954,-0.8686,-0.0633,-0.7914,0.9112,-0.4291,-0.7902,0.9365,0.8613,
7.541694,0.1954,-0.8686,-0.0633,-0.7914,0.9112,-0.4291,-0.7114,0.7062,0.8527,
7.544915,0.1234,-0.8795,0.0313,-0.7914,0.9112,-0.4291,-0.7114,0.7062,0.8527,
7.546262,0.1234,-0.8795,0.0313,-1.3301,0.8487,0.5953,-0.7114,0.7062,0.8527,
7.551888,0.1234,-0.8795,0.0313,-1.3301,0.8487,0.5953,-0.6069,0.3556,0.8533,
7.561751,0.1234,-0.8795,0.0313,-1.3301,0.8487,0.5953,-0.5244,-0.0341,0.8374,
7.564848,0.1242,-0.9067,0.0115,-1.3301,0.8487,0.5953,-0.5244,-0.0341,0.8374,
7.566271,0.1242,-0.9067,0.0115,-1.1515,0.6224,0.4966,-0.5244,-0.0341,0.8374,
7.574947,0.1242,-0.9067,0.0115,-1.1515,0.6224,0.4966,-0.4939,-0.3512,0.7977,
7.582264,0.1242,-0.9067,0.0115,-1.1515,0.6224,0.4966,-0.5049,-0.5020,0.7592,
7.585451,0.1328,-0.9396,-0.0584,-1.1515,0.6224,0.4966,-0.5049,-0.5020,0.7592,
7.587897,0.1328,-0.9396,-0.0584,-0.9070,0.3339,-0.0775,-0.5049,-0.5020,0.7592,
7.594018,0.1328,-0.9396,-0.0584,-0.9070,0.3339,-0.0775,-0.5464,-0.4379,0.7177,
7.602027,0.1328,-0.9396,-0.0584,-0.9070,0.3339,-0.0775,-0.6026,-0.2217,0.6792,
7.607711,0.1369,-0.9650,-0.1081,-0.9070,0.3339,-0.0775,-0.6026,-0.2217,0.6792,
7.610352,0.1369,-0.9650,-0.1081,-0.7223,0.1100,-0.4425,-0.6026,-0.2217,0.6792,
7.612460,0.1369,-0.9650,-0.1081,-0.7223,0.1100,-0.4425,-0.6454,0.0245,0.6511,
7.622189,0.1369,-0.9650,-0.1081,-0.7223,0.1100,-0.4425,-0.6643,0.1675,0.6285,
7.626633,0.1083,-0.9451,-0.2007,-0.7223,0.1100,-0.4425,-0.6643,0.1675,0.6285,
7.628911,0.1083,-0.9451,-0.2007,-0.8735,0.3232,-1.2250,-0.6643,0.1675,0.6285,
7.631866,0.1083,-0.9451,-0.2007,-0.8735,0.3232,-1.2250,-0.6656,0.1113,0.6053,
7.642172,0.1083,-0.9451,-0.2007,-0.8735,0.3232,-1.2250,-0.6539,-0.1404,0.5778,
7.644977,0.0933,-0.9414,-0.2657,-0.8735,0.3232,-1.2250,-0.6539,-0.1404,0.5778,
7.646816,0.0933,-0.9414,-0.2657,-0.8972,0.3716,-1.7240,-0.6539,-0.1404,0.5778,
7.652004,0.0933,-0.9414,-0.2657,-0.8972,0.3716,-1.7240,-0.6478,-0.5033,0.5461,
7.661913,0.0933,-0.9414,-0.2657,-0.8972,0.3716,-1.7240,-0.6576,-0.8649,0.4996,
7.665176,0.1120,-0.9306,-0.2669,-0.8972,0.3716,-1.7240,-0.6576,-0.8649,0.4996,
7.666964,0.1120,-0.9306,-0.2669,-0.5909,0.4839,-1.5701,-0.6576,-0.8649,0.4996,
7.674528,0.1120,-0.9306,-0.2669,-0.5909,0.4839,-1.5701,-0.6784,-1.1355,0.3506,
7.681924,0.1120,-0.9306,-0.2669,-0.5909,0.4839,-1.5701,-0.7059,-1.3279,0.2528,
7.685377,0.1652,-0.9689,-0.1793,-0.5909,0.4839,-1.5701,-0.7059,-1.3279,0.2528,
7.686988,0.1652,-0.9689,-0.1793,0.0197,0.1018,-0.5290,-0.7059,-1.3279,0.2528,
7.692182,0.1652,-0.9689,-0.1793,0.0197,0.1018,-0.5290,-0.7156,-1.2082,0.1655,
7.701727,0.1652,-0.9689,-0.1793,0.0197,0.1018,-0.5290,-0.6674,-1.1404,0.0928,
7.705212,0.3704,-1.1338,0.2988,0.0197,0.1018,-0.5290,-0.6674,-1.1404,0.0928,
7.706883,0.3704,-1.1338,0.2988,2.0764,-1.5265,4.3012,-0.6674,-1.1404,0.0928,
7.711695,0.3704,-1.1338,0.2988,2.0764,-1.5265,4.3012,-0.2685,-1.6462,-0.0520,
7.721976,0.3704,-1.1338,0.2988,2.0764,-1.5265,4.3012,0.3644,-2.4910,-0.3092,
7.725721,0.6168,-1.2089,0.2342,2.0764,-1.5265,4.3012,0.3644,-2.4910,-0.3092,
7.727787,0.6168,-1.2089,0.2342,4.4626,-2.2655,3.6551,0.3644,-2.4910,-0.3092,
7.731814,0.6168,-1.2089,0.2342,4.4626,-2.2655,3.6551,0.4493,-2.4214,-0.4222,
7.741786,0.6168,-1.2089,0.2342,4.4626,-2.2655,3.6551,0.2251,-1.5753,-0.3696,
7.744976,0.5235,-0.9709,-0.0586,4.4626,-2.2655,3.6551,0.2251,-1.5753,-0.3696,
7.746212,0.5235,-0.9709,-0.0586,3.4568,0.0598,0.7288,0.2251,-1.5753,-0.3696,
7.751986,0.5235,-0.9709,-0.0586,3.4568,0.0598,0.7288,0.0125,-0.7892,-0.3098,
7.762675,0.5235,-0.9709,-0.0586,3.4568,0.0598,0.7288,-0.0358,-0.5063,-0.3189,
7.765212,0.6823,-0.6753,0.3213,3.4568,0.0598,0.7288,-0.0358,-0.5063,-0.3189,
7.766981,0.6823,-0.6753,0.3213,4.8611,2.9373,4.3898,-0.0358,-0.5063,-0.3189,
7.775213,0.6823,-0.6753,0.3213,4.8611,2.9373,4.3898,0.1121,-0.5472,-0.3495,
7.782050,0.6823,-0.6753,0.3213,4.8611,2.9373,4.3898,0.2336,-0.4214,-0.3287,
7.785359,0.6417,-0.7074,0.1073,4.8611,2.9373,4.3898,0.2336,-0.4214,-0.3287,
7.787518,0.6417,-0.7074,0.1073,4.2803,2.5983,2.1931,0.2336,-0.4214,-0.3287,
7.793777,0.6417,-0.7074,0.1073,4.2803,2.5983,2.1931,0.1732,0.0166,-0.2505,
7.801823,0.6417,-0.7074,0.1073,4.2803,2.5983,2.1931,0.0504,0.3428,-0.2114,
7.805311,0.6847,-1.0491,-0.0269,4.2803,2.5983,2.1931,0.0504,0.3428,-0.2114,
7.807247,0.6847,-1.0491,-0.0269,4.5259,-0.7779,0.7844,0.0504,0.3428,-0.2114,
7.811914,0.6847,-1.0491,-0.0269,4.5259,-0.7779,0.7844,-0.0229,0.3538,-0.2750,
