
time,gFx,gFy,gFz,ax,ay,az,wx,wy,wz,
0.055859,0.0000,0.0000,0.0000,0.0000,0.0000,0.0000,0.0539,-0.2979,0.1635,
0.056939,0.0000,0.0000,0.0000,0.0000,0.0000,0.0000,-0.0457,-0.2252,0.1916,
0.057831,-0.1836,0.4445,0.8723,0.0000,0.0000,0.0000,-0.0457,-0.2252,0.1916,
0.058668,-0.1836,0.4445,0.8723,-0.0989,-0.2268,0.0470,-0.0457,-0.2252,0.1916,
0.059500,-0.1836,0.4445,0.8723,-0.0989,-0.2268,0.0470,-0.0866,-0.2112,0.1892,
0.060103,-0.1836,0.4445,0.8723,-0.0989,-0.2268,0.0470,-0.1208,-0.2491,0.1714,
0.060579,-0.1836,0.4445,0.8723,0.1046,-0.2818,-0.5228,-0.1208,-0.2491,0.1714,
0.061188,-0.1628,0.4389,0.8142,0.1046,-0.2818,-0.5228,-0.1208,-0.2491,0.1714,
0.061916,-0.1628,0.4389,0.8142,0.1046,-0.2818,-0.5228,-0.1379,-0.3560,0.1495,
0.062756,-0.1742,0.4236,0.8465,0.1046,-0.2818,-0.5228,-0.1379,-0.3560,0.1495,
0.064270,-0.1742,0.4236,0.8465,0.0677,-0.1647,-0.3291,-0.1379,-0.3560,0.1495,
0.067994,-0.1742,0.4236,0.8465,0.0677,-0.1647,-0.3291,-0.1245,-0.4812,0.1305,
0.077856,-0.1742,0.4236,0.8465,0.0677,-0.1647,-0.3291,-0.0866,-0.5667,0.1207,
0.079484,-0.1854,0.4151,0.8604,0.0677,-0.1647,-0.3291,-0.0866,-0.5667,0.1207,
0.081104,-0.1854,0.4151,0.8604,0.0514,-0.1150,-0.2384,-0.0866,-0.5667,0.1207,
0.087962,-0.1854,0.4151,0.8604,0.0514,-0.1150,-0.2384,-0.0445,-0.6871,0.1036,
0.098776,-0.1854,0.4151,0.8604,0.0514,-0.1150,-0.2384,-0.0487,-0.8984,0.0511,
0.100677,-0.0980,0.4277,0.7989,0.0514,-0.1150,-0.2384,-0.0487,-0.8984,0.0511,
0.102230,-0.0980,0.4277,0.7989,0.0940,-0.4104,-0.7667,-0.0487,-0.8984,0.0511,
0.107929,-0.0980,0.4277,0.7989,0.0940,-0.4104,-0.7667,-0.0756,-0.9369,-0.0057,
0.118040,-0.0980,0.4277,0.7989,0.0940,-0.4104,-0.7667,-0.0897,-0.7378,-0.0338,
0.119558,-0.0958,0.4664,0.9045,0.0940,-0.4104,-0.7667,-0.0897,-0.7378,-0.0338,
0.120545,-0.0958,0.4664,0.9045,-0.0198,0.0962,0.1866,-0.0897,-0.7378,-0.0338,
0.127938,-0.0958,0.4664,0.9045,-0.0198,0.0962,0.1866,-0.1110,-0.4665,-0.0552,
0.137930,-0.0958,0.4664,0.9045,-0.0198,0.0962,0.1866,-0.1061,-0.3468,-0.0796,
0.139463,-0.0905,0.4097,0.9097,-0.0198,0.0962,0.1866,-0.1061,-0.3468,-0.0796,
0.141062,-0.0905,0.4097,0.9097,-0.0010,0.0044,0.0098,-0.1061,-0.3468,-0.0796,
0.148917,-0.0905,0.4097,0.9097,-0.0010,0.0044,0.0098,-0.0548,-0.3993,-0.1181,
0.157913,-0.0905,0.4097,0.9097,-0.0010,0.0044,0.0098,0.0166,-0.4671,-0.1578,
0.159317,-0.1286,0.4229,0.9617,-0.0010,0.0044,0.0098,0.0166,-0.4671,-0.1578,
0.160684,-0.1286,0.4229,0.9617,-0.0688,0.2261,0.5142,0.0166,-0.4671,-0.1578,
0.167946,-0.1286,0.4229,0.9617,-0.0688,0.2261,0.5142,0.1125,-0.5069,-0.1731,
0.178052,-0.1286,0.4229,0.9617,-0.0688,0.2261,0.5142,0.1901,-0.4879,-0.2055,
0.180045,-0.0847,0.4291,0.9411,-0.0688,0.2261,0.5142,0.1901,-0.4879,-0.2055,
0.181522,-0.0847,0.4291,0.9411,-0.0296,0.1502,0.3294,0.1901,-0.4879,-0.2055,
0.188136,-0.0847,0.4291,0.9411,-0.0296,0.1502,0.3294,0.2304,-0.4488,-0.2720,
0.198944,-0.0847,0.4291,0.9411,-0.0296,0.1502,0.3294,0.2463,-0.3981,-0.3392,
0.200023,-0.0719,0.4393,0.8360,-0.0296,0.1502,0.3294,0.2463,-0.3981,-0.3392,
0.201316,-0.0719,0.4393,0.8360,0.0399,-0.2434,-0.4632,0.2463,-0.3981,-0.3392,
0.207930,-0.0719,0.4393,0.8360,0.0399,-0.2434,-0.4632,0.2317,-0.2955,-0.4559,
0.217950,-0.0719,0.4393,0.8360,0.0399,-0.2434,-0.4632,0.0857,-0.1257,-0.5072,
0.219257,-0.1064,0.4167,0.7782,0.0399,-0.2434,-0.4632,0.0857,-0.1257,-0.5072,
0.220449,-0.1064,0.4167,0.7782,0.1308,-0.5122,-0.9567,0.0857,-0.1257,-0.5072,
0.227883,-0.1064,0.4167,0.7782,0.1308,-0.5122,-0.9567,-0.0041,-0.1049,-0.5213,
0.237863,-0.1064,0.4167,0.7782,0.1308,-0.5122,-0.9567,-0.0927,-0.1428,-0.5017,
0.239154,-0.1538,0.4004,0.7510,0.1308,-0.5122,-0.9567,-0.0927,-0.1428,-0.5017,
0.240292,-0.1538,0.4004,0.7510,0.2367,-0.6162,-1.1558,-0.0927,-0.1428,-0.5017,
0.249282,-0.1538,0.4004,0.7510,0.2367,-0.6162,-1.1558,-0.1758,-0.2595,-0.4541,
0.258285,-0.1538,0.4004,0.7510,0.2367,-0.6162,-1.1558,-0.2436,-0.4244,-0.4009,
0.260306,-0.1557,0.3713,0.7595,0.2367,-0.6162,-1.1558,-0.2436,-0.4244,-0.4009,
0.261888,-0.1557,0.3713,0.7595,0.2503,-0.5968,-1.2207,-0.2436,-0.4244,-0.4009,
0.267984,-0.1557,0.3713,0.7595,0.2503,-0.5968,-1.2207,-0.3016,-0.5997,-0.3594,
0.278007,-0.1557,0.3713,0.7595,0.2503,-0.5968,-1.2207,-0.3554,-0.7579,-0.3252,
0.280625,-0.1149,0.3678,0.8421,0.2503,-0.5968,-1.2207,-0.3554,-0.7579,-0.3252,
0.282269,-0.1149,0.3678,0.8421,0.0907,-0.2903,-0.6646,-0.3554,-0.7579,-0.3252,
0.288280,-0.1149,0.3678,0.8421,0.0907,-0.2903,-0.6646,-0.3823,-0.8752,-0.2849,
0.299412,-0.1149,0.3678,0.8421,0.0907,-0.2903,-0.6646,-0.3725,-0.9253,-0.2641,
0.301949,-0.0529,0.3898,0.9527,0.0907,-0.2903,-0.6646,-0.3725,-0.9253,-0.2641,
0.303384,-0.0529,0.3898,0.9527,-0.0151,0.1112,0.2718,-0.3725,-0.9253,-0.2641,
0.307783,-0.0529,0.3898,0.9527,-0.0151,0.1112,0.2718,-0.3554,-0.8691,-0.2708,
0.317830,-0.0529,0.3898,0.9527,-0.0151,0.1112,0.2718,-0.3401,-0.7213,-0.2855,
0.319279,-0.0165,0.3836,1.0268,-0.0151,0.1112,0.2718,-0.3401,-0.7213,-0.2855,
0.320441,-0.0165,0.3836,1.0268,-0.0141,0.3277,0.8772,-0.3401,-0.7213,-0.2855,
0.327660,-0.0165,0.3836,1.0268,-0.0141,0.3277,0.8772,-0.3053,-0.5447,-0.2971,
0.337704,-0.0165,0.3836,1.0268,-0.0141,0.3277,0.8772,-0.2375,-0.3737,-0.3124,
0.338952,0.0525,0.4284,1.0894,-0.0141,0.3277,0.8772,-0.2375,-0.3737,-0.3124,
0.340163,0.0525,0.4284,1.0894,0.0752,0.6129,1.5586,-0.2375,-0.3737,-0.3124,
0.348215,0.0525,0.4284,1.0894,0.0752,0.6129,1.5586,-0.1416,-0.1526,-0.3716,
0.357804,0.0525,0.4284,1.0894,0.0752,0.6129,1.5586,-0.0487,-0.0108,-0.4913,
0.358950,0.1099,0.4797,0.9947,0.0752,0.6129,1.5586,-0.0487,-0.0108,-0.4913,
0.359922,0.1099,0.4797,0.9947,0.1059,0.4621,0.9583,-0.0487,-0.0108,-0.4913,
0.368003,0.1099,0.4797,0.9947,0.1059,0.4621,0.9583,0.0240,-0.0670,-0.6153,
0.377895,0.1099,0.4797,0.9947,0.1059,0.4621,0.9583,0.0875,-0.2478,-0.7174,
0.379135,0.0040,0.4933,0.9034,0.1059,0.4621,0.9583,0.0875,-0.2478,-0.7174,
0.380903,0.0040,0.4933,0.9034,0.0011,0.1346,0.2465,0.0875,-0.2478,-0.7174,
0.387857,0.0040,0.4933,0.9034,0.0011,0.1346,0.2465,0.1681,-0.4109,-0.7986,
0.399207,0.0040,0.4933,0.9034,0.0011,0.1346,0.2465,0.3190,-0.8019,-0.9385,
0.401013,-0.0395,0.4512,0.8502,0.0011,0.1346,0.2465,0.3190,-0.8019,-0.9385,
0.402399,-0.0395,0.4512,0.8502,0.0150,-0.1715,-0.3231,0.3190,-0.8019,-0.9385,
0.407930,-0.0395,0.4512,0.8502,0.0150,-0.1715,-0.3231,0.3239,-1.0157,-0.9696,
0.418005,-0.0395,0.4512,0.8502,0.0150,-0.1715,-0.3231,0.2530,-1.1293,-0.9593,
0.419563,-0.0804,0.4241,0.8304,0.0150,-0.1715,-0.3231,0.2530,-1.1293,-0.9593,
0.420580,-0.0804,0.4241,0.8304,0.0545,-0.2877,-0.5633,0.2530,-1.1293,-0.9593,
0.427890,-0.0804,0.4241,0.8304,0.0545,-0.2877,-0.5633,0.1052,-1.1843,-0.9281,
0.437875,-0.0804,0.4241,0.8304,0.0545,-0.2877,-0.5633,-0.1532,-1.3303,-0.9580,
0.439442,-0.0726,0.4380,0.6993,0.0545,-0.2877,-0.5633,-0.1532,-1.3303,-0.9580,
0.440492,-0.0726,0.4380,0.6993,0.1479,-0.8929,-1.4255,-0.1532,-1.3303,-0.9580,
0.448956,-0.0726,0.4380,0.6993,0.1479,-0.8929,-1.4255,-0.5069,-1.6754,-1.0265,
0.458192,-0.0726,0.4380,0.6993,0.1479,-0.8929,-1.4255,-0.8080,-1.9980,-0.9055,
0.460208,-0.1258,0.3891,0.7531,0.1479,-0.8929,-1.4255,-0.8080,-1.9980,-0.9055,
0.461996,-0.1258,0.3891,0.7531,0.2068,-0.6396,-1.2381,-0.8080,-1.9980,-0.9055,
0.468171,-0.1258,0.3891,0.7531,0.2068,-0.6396,-1.2381,-1.0450,-2.0536,-0.6465,
0.478145,-0.1258,0.3891,0.7531,0.2068,-0.6396,-1.2381,-1.2552,-1.7982,-0.3930,
0.480348,-0.0127,0.3839,0.8204,0.2068,-0.6396,-1.2381,-1.2552,-1.7982,-0.3930,
0.482035,-0.0127,0.3839,0.8204,0.0130,-0.3938,-0.8415,-1.2552,-1.7982,-0.3930,
0.488684,-0.0127,0.3839,0.8204,0.0130,-0.3938,-0.8415,-1.4427,-1.4525,-0.2458,
0.500781,-0.0127,0.3839,0.8204,0.0130,-0.3938,-0.8415,-1.5820,-1.2216,-0.2317,
0.503212,0.1107,0.4391,0.9302,0.0130,-0.3938,-0.8415,-1.5820,-1.2216,-0.2317,
0.505113,0.1107,0.4391,0.9302,0.0355,0.1410,0.2987,-1.5820,-1.2216,-0.2317,
0.508353,0.1107,0.4391,0.9302,0.0355,0.1410,0.2987,-1.6584,-1.1226,-0.3050,
0.518311,0.1107,0.4391,0.9302,0.0355,0.1410,0.2987,-1.6761,-1.1348,-0.3820,
0.520968,0.1189,0.4018,1.0759,0.0355,0.1410,0.2987,-1.6761,-1.1348,-0.3820,
0.522961,0.1189,0.4018,1.0759,0.1553,0.5249,1.4058,-1.6761,-1.1348,-0.3820,
0.528345,0.1189,0.4018,1.0759,0.1553,0.5249,1.4058,-1.6333,-1.2136,-0.3820,
0.538531,0.1189,0.4018,1.0759,0.1553,0.5249,1.4058,-1.5319,-1.2790,-0.2806,
0.540909,0.0875,0.3798,1.1573,0.1553,0.5249,1.4058,-1.5319,-1.2790,-0.2806,
0.542421,0.0875,0.3798,1.1573,0.1547,0.6719,2.0475,-1.5319,-1.2790,-0.2806,
0.549930,0.0875,0.3798,1.1573,0.1547,0.6719,2.0475,-1.3633,-1.3236,-0.1267,
0.558556,0.0875,0.3798,1.1573,0.1547,0.6719,2.0475,-1.1416,-1.3144,0.0169,
0.560644,0.1296,0.3435,1.1225,0.1547,0.6719,2.0475,-1.1416,-1.3144,0.0169,
0.562375,0.1296,0.3435,1.1225,0.1939,0.5139,1.6794,-1.1416,-1.3144,0.0169,
0.568370,0.1296,0.3435,1.1225,0.1939,0.5139,1.6794,-0.8862,-1.1238,0.1354,
0.578288,0.1296,0.3435,1.1225,0.1939,0.5139,1.6794,-0.6229,-0.2173,0.3003,
0.580629,0.2060,0.3666,1.1259,0.1939,0.5139,1.6794,-0.6229,-0.2173,0.3003,
0.582429,0.2060,0.3666,1.1259,0.3378,0.6013,1.8468,-0.6229,-0.2173,0.3003,
0.588231,0.2060,0.3666,1.1259,0.3378,0.6013,1.8468,-0.1678,0.1327,0.3706,
0.600967,0.2060,0.3666,1.1259,0.3378,0.6013,1.8468,-0.0139,0.2127,0.4268,
0.602971,0.2190,0.3491,1.1325,0.3378,0.6013,1.8468,-0.0139,0.2127,0.4268,
0.604744,0.2190,0.3491,1.1325,0.3642,0.5804,1.8829,-0.0139,0.2127,0.4268,
0.607963,0.2190,0.3491,1.1325,0.3642,0.5804,1.8829,0.0765,0.1364,0.4524,
0.618050,0.2190,0.3491,1.1325,0.3642,0.5804,1.8829,0.1125,0.0173,0.4427,
0.619866,0.1998,0.3010,1.1350,0.3642,0.5804,1.8829,0.1125,0.0173,0.4427,
0.621487,0.1998,0.3010,1.1350,0.3132,0.4717,1.7788,0.1125,0.0173,0.4427,
0.628284,0.1998,0.3010,1.1350,0.3132,0.4717,1.7788,0.1846,-0.1263,0.2423,
0.637987,0.1998,0.3010,1.1350,0.3132,0.4717,1.7788,0.4357,-0.1177,-0.1596,
0.639664,0.2001,0.2660,1.1909,0.3132,0.4717,1.7788,0.4357,-0.1177,-0.1596,
0.641489,0.2001,0.2660,1.1909,0.3740,0.4973,2.2260,0.4357,-0.1177,-0.1596,
0.649534,0.2001,0.2660,1.1909,0.3740,0.4973,2.2260,0.7552,-0.3755,-0.3710,
0.657972,0.2001,0.2660,1.1909,0.3740,0.4973,2.2260,1.0441,-0.4617,-0.3789,
0.659585,0.2232,0.3097,1.2336,0.3740,0.4973,2.2260,1.0441,-0.4617,-0.3789,
0.660987,0.2232,0.3097,1.2336,0.4923,0.6831,2.7211,1.0441,-0.4617,-0.3789,
0.668615,0.2232,0.3097,1.2336,0.4923,0.6831,2.7211,1.2555,-0.3938,-0.3722,
0.679020,0.2232,0.3097,1.2336,0.4923,0.6831,2.7211,1.3544,-0.3664,-0.4284,
0.681740,0.2099,0.2972,0.9798,0.4923,0.6831,2.7211,1.3544,-0.3664,-0.4284,
0.684743,0.2099,0.2972,0.9798,0.0875,0.1240,0.4086,1.3544,-0.3664,-0.4284,
0.690414,0.2099,0.2972,0.9798,0.0875,0.1240,0.4086,1.3459,-0.4299,-0.5598,
0.701510,0.2099,0.2972,0.9798,0.0875,0.1240,0.4086,1.2390,-0.4843,-0.7528,
0.704293,0.2024,0.2552,0.8402,0.0875,0.1240,0.4086,1.2390,-0.4843,-0.7528,
0.706564,0.2024,0.2552,0.8402,-0.2192,-0.2764,-0.9100,1.2390,-0.4843,-0.7528,
0.708972,0.2024,0.2552,0.8402,-0.2192,-0.2764,-0.9100,1.0667,-0.4574,-0.9006,
0.718637,0.2024,0.2552,0.8402,-0.2192,-0.2764,-0.9100,0.8926,-0.4617,-0.9544,
0.721031,0.1622,0.4388,0.8503,-0.2192,-0.2764,-0.9100,0.8926,-0.4617,-0.9544,
0.722878,0.1622,0.4388,0.8503,-0.0494,-0.1337,-0.2592,0.8926,-0.4617,-0.9544,
0.728492,0.1622,0.4388,0.8503,-0.0494,-0.1337,-0.2592,0.7759,-0.4562,-0.9287,
0.738542,0.1622,0.4388,0.8503,-0.0494,-0.1337,-0.2592,0.6727,-0.4445,-0.8316,
0.740485,0.1285,0.4973,0.8697,-0.0494,-0.1337,-0.2592,0.6727,-0.4445,-0.8316,
0.741873,0.1285,0.4973,0.8697,0.0117,0.0453,0.0792,0.6727,-0.4445,-0.8316,
0.750321,0.1285,0.4973,0.8697,0.0117,0.0453,0.0792,0.5646,-0.5789,-0.7259,
0.758614,0.1285,0.4973,0.8697,0.0117,0.0453,0.0792,0.4149,-0.8911,-0.6715,
0.760883,0.0836,0.3687,0.7602,0.0117,0.0453,0.0792,0.4149,-0.8911,-0.6715,
0.763870,0.0836,0.3687,0.7602,-0.1463,-0.6457,-1.3313,0.4149,-0.8911,-0.6715,
0.768960,0.0836,0.3687,0.7602,-0.1463,-0.6457,-1.3313,0.0881,-1.2173,-0.5420,
0.778604,0.0836,0.3687,0.7602,-0.1463,-0.6457,-1.3313,0.0124,-1.0383,-0.4730,
0.781042,0.0487,0.3337,0.7686,-0.1463,-0.6457,-1.3313,0.0124,-1.0383,-0.4730,
0.782728,0.0487,0.3337,0.7686,-0.0918,-0.6287,-1.4480,0.0124,-1.0383,-0.4730,
0.788600,0.0487,0.3337,0.7686,-0.0918,-0.6287,-1.4480,0.0227,-0.7573,-0.5066,
0.801293,0.0487,0.3337,0.7686,-0.0918,-0.6287,-1.4480,0.0588,-0.5655,-0.6856,
0.803245,0.2031,0.2599,0.7301,-0.0918,-0.6287,-1.4480,0.0588,-0.5655,-0.6856,
0.805393,0.2031,0.2599,0.7301,-0.4957,-0.6343,-1.7816,0.0588,-0.5655,-0.6856,
0.808481,0.2031,0.2599,0.7301,-0.4957,-0.6343,-1.7816,0.0667,-0.4274,-0.9617,
0.819337,0.2031,0.2599,0.7301,-0.4957,-0.6343,-1.7816,0.0252,-0.3248,-1.3105,
0.821424,0.2155,0.1777,0.6630,-0.4957,-0.6343,-1.7816,0.0252,-0.3248,-1.3105,
0.823993,0.2155,0.1777,0.6630,-0.8253,-0.6808,-2.5396,0.0252,-0.3248,-1.3105,
0.828165,0.2155,0.1777,0.6630,-0.8253,-0.6808,-2.5396,-0.0805,-0.2240,-1.6624,
0.838043,0.2155,0.1777,0.6630,-0.8253,-0.6808,-2.5396,-0.2650,-0.0988,-1.9000,
0.839900,0.0573,-0.0982,0.5498,-0.8253,-0.6808,-2.5396,-0.2650,-0.0988,-1.9000,
0.841296,0.0573,-0.0982,0.5498,-0.4392,0.7530,-4.2153,-0.2650,-0.0988,-1.9000,
0.849944,0.0573,-0.0982,0.5498,-0.4392,0.7530,-4.2153,-0.4531,-0.1104,-1.6856,
0.858811,0.0573,-0.0982,0.5498,-0.4392,0.7530,-4.2153,-0.6529,-0.4592,-1.1541,
0.861243,-0.2178,-0.0689,0.4473,-0.4392,0.7530,-4.2153,-0.6529,-0.4592,-1.1541,
0.863320,-0.2178,-0.0689,0.4473,2.1180,0.6700,-4.3500,-0.6529,-0.4592,-1.1541,
0.868028,-0.2178,-0.0689,0.4473,2.1180,0.6700,-4.3500,-0.8166,-1.1067,-0.7528,
0.878099,-0.2178,-0.0689,0.4473,2.1180,0.6700,-4.3500,-0.8429,-1.7591,-0.1963,
0.879794,-0.3949,-0.1656,0.7118,2.1180,0.6700,-4.3500,-0.8429,-1.7591,-0.1963,
0.881736,-0.3949,-0.1656,0.7118,0.7920,0.3322,-1.4275,-0.8429,-1.7591,-0.1963,
0.887746,-0.3949,-0.1656,0.7118,0.7920,0.3322,-1.4275,-0.7879,-2.4971,0.5233,
0.899398,-0.3949,-0.1656,0.7118,0.7920,0.3322,-1.4275,-0.6236,-3.3303,1.2618,
0.900856,-0.3397,-0.1052,0.9030,0.7920,0.3322,-1.4275,-0.6236,-3.3303,1.2618,
0.902092,-0.3397,-0.1052,0.9030,0.1037,0.0321,-0.2755,-0.6236,-3.3303,1.2618,
0.907725,-0.3397,-0.1052,0.9030,0.1037,0.0321,-0.2755,-0.2741,-4.0829,1.9411,
0.920561,-0.3397,-0.1052,0.9030,0.1037,0.0321,-0.2755,0.2139,-4.6308,2.5007,
0.921728,-0.1062,-0.0325,0.9423,0.1037,0.0321,-0.2755,0.2139,-4.6308,2.5007,
0.923096,-0.1062,-0.0325,0.9423,0.0569,0.0174,-0.5049,0.2139,-4.6308,2.5007,
0.927779,-0.1062,-0.0325,0.9423,0.0569,0.0174,-0.5049,0.7601,-4.8342,2.8861,
0.937543,-0.1062,-0.0325,0.9423,0.0569,0.0174,-0.5049,1.2219,-4.7762,3.0963,
0.938889,0.5669,-0.0961,0.4918,0.0569,0.0174,-0.5049,1.2219,-4.7762,3.0963,
0.939525,0.5669,-0.0961,0.4918,-1.7920,0.3039,-1.5545,1.2219,-4.7762,3.0963,
0.948979,0.5669,-0.0961,0.4918,-1.7920,0.3039,-1.5545,1.4522,-4.4720,2.7212,
0.957679,0.5669,-0.0961,0.4918,-1.7920,0.3039,-1.5545,1.1083,-4.2557,2.4604,
0.958758,0.4128,-0.2751,0.3946,-1.7920,0.3039,-1.5545,1.1083,-4.2557,2.4604,
0.959646,0.4128,-0.2751,0.3946,-2.3414,1.5605,-2.2381,1.1083,-4.2557,2.4604,
0.967593,0.4128,-0.2751,0.3946,-2.3414,1.5605,-2.2381,0.7326,-4.1018,2.4317,
0.977566,0.4128,-0.2751,0.3946,-2.3414,1.5605,-2.2381,0.3703,-3.8465,2.7084,
0.978566,0.1099,-0.3441,0.4994,-2.3414,1.5605,-2.2381,0.3703,-3.8465,2.7084,
0.979406,0.1099,-0.3441,0.4994,-0.6719,2.1030,-3.0518,0.3703,-3.8465,2.7084,
0.987473,0.1099,-0.3441,0.4994,-0.6719,2.1030,-3.0518,0.0557,-3.4848,3.1500,
0.998930,0.1099,-0.3441,0.4994,-0.6719,2.1030,-3.0518,-0.2424,-3.0536,3.5373,
1.000050,0.4181,-0.3487,0.4642,-0.6719,2.1030,-3.0518,-0.2424,-3.0536,3.5373,
1.000994,0.4181,-0.3487,0.4642,-1.6333,1.3623,-1.8132,-0.2424,-3.0536,3.5373,
1.007660,0.4181,-0.3487,0.4642,-1.6333,1.3623,-1.8132,-0.5997,-2.6247,3.7224,
1.017652,0.4181,-0.3487,0.4642,-1.6333,1.3623,-1.8132,-1.0799,-2.1403,3.6540,
1.018745,0.9557,-0.3832,0.3075,-1.6333,1.3623,-1.8132,-1.0799,-2.1403,3.6540,
1.019470,0.9557,-0.3832,0.3075,0.6444,-0.2584,0.2073,-1.0799,-2.1403,3.6540,
1.027524,0.9557,-0.3832,0.3075,0.6444,-0.2584,0.2073,-1.6681,-1.7261,3.3736,
1.037542,0.9557,-0.3832,0.3075,0.6444,-0.2584,0.2073,-2.2723,-1.4568,2.9546,
1.038587,1.4347,-0.4741,0.3673,0.6444,-0.2584,0.2073,-2.2723,-1.4568,2.9546,
1.039436,1.4347,-0.4741,0.3673,5.0120,-1.6562,1.2832,-2.2723,-1.4568,2.9546,
1.048915,1.4347,-0.4741,0.3673,5.0120,-1.6562,1.2832,-2.7726,-1.0756,2.4872,
1.057558,1.4347,-0.4741,0.3673,5.0120,-1.6562,1.2832,-3.1544,-0.6022,2.0334,
1.058653,1.4425,-0.3949,0.5775,5.0120,-1.6562,1.2832,-3.1544,-0.6022,2.0334,
1.059558,1.4425,-0.3949,0.5775,5.1992,-0.3479,3.6881,-3.1544,-0.6022,2.0334,
1.067664,1.4425,-0.3949,0.5775,5.1992,-0.3479,3.6881,-3.4012,-0.2326,1.6662,
1.077567,1.4425,-0.3949,0.5775,5.1992,-0.3479,3.6881,-3.5166,0.0979,1.4249,
1.078574,1.3015,-0.3917,0.7134,5.1992,-0.3479,3.6881,-3.5166,0.0979,1.4249,
1.079378,1.3015,-0.3917,0.7134,3.9303,0.0849,5.2898,-3.5166,0.0979,1.4249,
1.088239,1.3015,-0.3917,0.7134,3.9303,0.0849,5.2898,-3.5777,0.3099,1.2967,
1.100956,1.3015,-0.3917,0.7134,3.9303,0.0849,5.2898,-3.6650,0.2726,1.2502,
1.103126,1.3773,-0.4055,0.6964,3.9303,0.0849,5.2898,-3.6650,0.2726,1.2502,
1.105168,1.3773,-0.4055,0.6964,4.7861,0.2879,5.3693,-3.6650,0.2726,1.2502,
1.108355,1.3773,-0.4055,0.6964,4.7861,0.2879,5.3693,-3.7567,0.0509,1.2735,
1.118704,1.3773,-0.4055,0.6964,4.7861,0.2879,5.3693,-3.7866,-0.3089,1.3632,
1.121615,1.4413,-0.2234,0.8696,4.7861,0.2879,5.3693,-3.7866,-0.3089,1.3632,
1.123388,1.4413,-0.2234,0.8696,5.5271,2.3979,7.4226,-3.7866,-0.3089,1.3632,
1.128598,1.4413,-0.2234,0.8696,5.5271,2.3979,7.4226,-3.7151,-0.7567,1.7640,
1.138451,1.4413,-0.2234,0.8696,5.5271,2.3979,7.4226,-3.2442,-1.6260,1.9869,
1.140667,1.4595,-0.1052,0.9558,5.5271,2.3979,7.4226,-3.2442,-1.6260,1.9869,
1.142097,1.4595,-0.1052,0.9558,5.8658,3.9357,8.8024,-3.2442,-1.6260,1.9869,
1.150652,1.4595,-0.1052,0.9558,5.8658,3.9357,8.8024,-2.8825,-2.0187,2.1928,
1.158353,1.4595,-0.1052,0.9558,5.8658,3.9357,8.8024,-2.5172,-2.2906,2.3632,
1.160429,1.4569,-0.1605,0.8576,5.8658,3.9357,8.8024,-2.5172,-2.2906,2.3632,
1.161995,1.4569,-0.1605,0.8576,6.0657,3.7868,8.4771,-2.5172,-2.2906,2.3632,
1.168291,1.4569,-0.1605,0.8576,6.0657,3.7868,8.4771,-2.2448,-2.4482,2.4378,
1.178457,1.4569,-0.1605,0.8576,6.0657,3.7868,8.4771,-2.1367,-2.5416,2.4017,
1.181726,1.5780,-0.1256,0.5993,6.0657,3.7868,8.4771,-2.1367,-2.5416,2.4017,
1.184313,1.5780,-0.1256,0.5993,7.5409,4.5031,6.5919,-2.1367,-2.5416,2.4017,
1.189810,1.5780,-0.1256,0.5993,7.5409,4.5031,6.5919,-2.1758,-2.5801,2.2832,
1.202136,1.5780,-0.1256,0.5993,7.5409,4.5031,6.5919,-2.3010,-2.5691,2.0969,
1.204829,1.6498,-0.0752,0.5227,7.5409,4.5031,6.5919,-2.3010,-2.5691,2.0969,
1.207011,1.6498,-0.0752,0.5227,8.5566,5.2895,6.5050,-2.3010,-2.5691,2.0969,
1.209628,1.6498,-0.0752,0.5227,8.5566,5.2895,6.5050,-2.4329,-2.5649,1.8471,
1.218943,1.6498,-0.0752,0.5227,8.5566,5.2895,6.5050,-2.4623,-2.4989,1.5471,
1.221980,1.5898,0.0292,0.6556,8.5566,5.2895,6.5050,-2.4623,-2.4989,1.5471,
1.224295,1.5898,0.0292,0.6556,8.2629,6.4819,8.4838,-2.4623,-2.4989,1.5471,
1.228762,1.5898,0.0292,0.6556,8.2629,6.4819,8.4838,-2.3676,-2.3743,1.2783,
1.239048,1.5898,0.0292,0.6556,8.2629,6.4819,8.4838,-2.2081,-2.2973,1.1140,
1.242141,1.3845,0.0407,0.6409,8.2629,6.4819,8.4838,-2.2081,-2.2973,1.1140,
1.243844,1.3845,0.0407,0.6409,6.5113,6.6582,8.9629,-2.2081,-2.2973,1.1140,
1.251492,1.3845,0.0407,0.6409,6.5113,6.6582,8.9629,-2.0713,-2.2668,0.9784,
1.258448,1.3845,0.0407,0.6409,6.5113,6.6582,8.9629,-1.9626,-2.2038,0.8067,
1.260871,1.4164,-0.0034,0.5965,6.5113,6.6582,8.9629,-1.9626,-2.2038,0.8067,
1.265597,1.4164,-0.0034,0.5965,7.0674,6.2305,9.0882,-1.9626,-2.2038,0.8067,
1.271080,1.4164,-0.0034,0.5965,7.0674,6.2305,9.0882,-1.8868,-2.0927,0.6113,
1.278398,1.4164,-0.0034,0.5965,7.0674,6.2305,9.0882,-1.8740,-2.0059,0.4134,
1.280876,1.3300,-0.0362,0.4731,7.0674,6.2305,9.0882,-1.8740,-2.0059,0.4134,
1.283294,1.3300,-0.0362,0.4731,6.4283,5.8469,8.3886,-1.8740,-2.0059,0.4134,
1.288744,1.3300,-0.0362,0.4731,6.4283,5.8469,8.3886,-1.9186,-1.9577,0.2557,
1.302149,1.3300,-0.0362,0.4731,6.4283,5.8469,8.3886,-1.9436,-1.8782,0.1330,
1.304555,1.1339,0.1153,0.7140,6.4283,5.8469,8.3886,-1.9436,-1.8782,0.1330,
1.306921,1.1339,0.1153,0.7140,4.6547,7.1901,11.2090,-1.9436,-1.8782,0.1330,
1.309571,1.1339,0.1153,0.7140,4.6547,7.1901,11.2090,-1.8850,-1.7463,-0.0075,
1.318508,1.1339,0.1153,0.7140,4.6547,7.1901,11.2090,-1.4391,-1.5618,-0.2830,
1.321240,0.9350,0.1242,0.8595,4.6547,7.1901,11.2090,-1.4391,-1.5618,-0.2830,
1.324002,0.9350,0.1242,0.8595,2.5726,7.0226,12.7866,-1.4391,-1.5618,-0.2830,
1.328603,0.9350,0.1242,0.8595,2.5726,7.0226,12.7866,-1.0585,-1.5349,-0.3356,
1.338611,0.9350,0.1242,0.8595,2.5726,7.0226,12.7866,-0.6431,-1.5050,-0.3753,
1.341482,0.9144,0.0428,0.8376,2.5726,7.0226,12.7866,-0.6431,-1.5050,-0.3753,
1.343555,0.9144,0.0428,0.8376,2.1573,6.0006,12.5350,-0.6431,-1.5050,-0.3753,
1.348853,0.9144,0.0428,0.8376,2.1573,6.0006,12.5350,-0.2570,-1.4396,-0.4742,
1.359316,0.9144,0.0428,0.8376,2.1573,6.0006,12.5350,0.0380,-1.4720,-0.6355,
1.362034,0.9758,-0.0818,0.6588,2.1573,6.0006,12.5350,0.0380,-1.4720,-0.6355,
1.364574,0.9758,-0.0818,0.6588,2.5362,4.6005,10.6530,0.0380,-1.4720,-0.6355,
1.370742,0.9758,-0.0818,0.6588,2.5362,4.6005,10.6530,0.2463,-1.4995,-0.7980,
1.378805,0.9758,-0.0818,0.6588,2.5362,4.6005,10.6530,0.4253,-1.3804,-0.8548,
1.381536,0.8077,-0.2257,0.5494,2.5362,4.6005,10.6530,0.4253,-1.3804,-0.8548,
1.383981,0.8077,-0.2257,0.5494,0.6639,3.0244,9.4052,0.4253,-1.3804,-0.8548,
1.388458,0.8077,-0.2257,0.5494,0.6639,3.0244,9.4052,0.5927,-1.1696,-0.7687,
1.401217,0.8077,-0.2257,0.5494,0.6639,3.0244,9.4052,0.7313,-0.9546,-0.6337,
1.403263,0.7604,-0.2402,0.3512,0.6639,3.0244,9.4052,0.7313,-0.9546,-0.6337,
1.405331,0.7604,-0.2402,0.3512,-0.0132,2.7641,7.2169,0.7313,-0.9546,-0.6337,
1.408177,0.7604,-0.2402,0.3512,-0.0132,2.7641,7.2169,0.8199,-0.7091,-0.5255,
1.418735,0.7604,-0.2402,0.3512,-0.0132,2.7641,7.2169,0.8431,-0.2265,-0.4388,
1.421512,0.6988,-0.3169,0.1070,-0.0132,2.7641,7.2169,0.8431,-0.2265,-0.4388,
1.423222,0.6988,-0.3169,0.1070,-0.8162,1.9388,4.5097,0.8431,-0.2265,-0.4388,
1.428480,0.6988,-0.3169,0.1070,-0.8162,1.9388,4.5097,0.7521,0.5005,-0.3380,
1.438709,0.6988,-0.3169,0.1070,-0.8162,1.9388,4.5097,0.4742,1.1492,-0.3142,
1.440832,0.8513,-0.4482,-0.2161,-0.8162,1.9388,4.5097,0.4742,1.1492,-0.3142,
1.442415,0.8513,-0.4482,-0.2161,0.4603,0.5844,0.9277,0.4742,1.1492,-0.3142,
1.448350,0.8513,-0.4482,-0.2161,0.4603,0.5844,0.9277,0.0117,1.4711,-0.4724,
1.458280,0.8513,-0.4482,-0.2161,0.4603,0.5844,0.9277,-0.4849,1.4021,-0.7766,
1.460529,1.3161,-0.5187,-0.1728,0.4603,0.5844,0.9277,-0.4849,1.4021,-0.7766,
1.462245,1.3161,-0.5187,-0.1728,4.7816,-0.2747,0.9861,-0.4849,1.4021,-0.7766,
1.468211,1.3161,-0.5187,-0.1728,4.7816,-0.2747,0.9861,-0.8080,1.4076,-1.1004,
1.478295,1.3161,-0.5187,-0.1728,4.7816,-0.2747,0.9861,-0.9559,1.4809,-1.2922,
1.480295,1.1718,-0.5035,-0.0351,4.7816,-0.2747,0.9861,-0.9559,1.4809,-1.2922,
1.482317,1.1718,-0.5035,-0.0351,3.1198,-0.4090,2.0510,-0.9559,1.4809,-1.2922,
1.488271,1.1718,-0.5035,-0.0351,3.1198,-0.4090,2.0510,-0.9785,1.4565,-1.3197,
1.499226,1.1718,-0.5035,-0.0351,3.1198,-0.4090,2.0510,-0.8923,1.3887,-1.2073,
1.501408,0.7815,-0.5041,0.6345,3.1198,-0.4090,2.0510,-0.8923,1.3887,-1.2073,
1.503339,0.7815,-0.5041,0.6345,-0.9285,-0.6779,8.2805,-0.8923,1.3887,-1.2073,
1.508197,0.7815,-0.5041,0.6345,-0.9285,-0.6779,8.2805,0.0075,1.2188,-0.9202,
1.519283,0.7815,-0.5041,0.6345,-0.9285,-0.6779,8.2805,0.5395,1.2671,-0.8469,
1.521803,0.8115,-0.3343,0.2511,-0.9285,-0.6779,8.2805,0.5395,1.2671,-0.8469,
1.523690,0.8115,-0.3343,0.2511,-0.7926,0.8393,4.1217,0.5395,1.2671,-0.8469,
1.528215,0.8115,-0.3343,0.2511,-0.7926,0.8393,4.1217,0.5585,1.3428,-0.7705,
1.538636,0.8115,-0.3343,0.2511,-0.7926,0.8393,4.1217,0.2347,1.4620,-0.6263,
1.540976,0.7951,-0.3266,0.0693,-0.7926,0.8393,4.1217,0.2347,1.4620,-0.6263,
1.542248,0.7951,-0.3266,0.0693,-1.0737,0.8005,1.9275,0.2347,1.4620,-0.6263,
1.548231,0.7951,-0.3266,0.0693,-1.0737,0.8005,1.9275,-0.0493,1.5041,-0.4779,
1.558354,0.7951,-0.3266,0.0693,-1.0737,0.8005,1.9275,-0.1141,1.3624,-0.3814,
1.560362,0.8239,-0.3424,0.3566,-1.0737,0.8005,1.9275,-0.1141,1.3624,-0.3814,
1.561881,0.8239,-0.3424,0.3566,-0.8724,0.5661,4.3582,-0.1141,1.3624,-0.3814,
1.568359,0.8239,-0.3424,0.3566,-0.8724,0.5661,4.3582,-0.0365,1.2695,-0.2421,
1.578935,0.8239,-0.3424,0.3566,-0.8724,0.5661,4.3582,0.0466,1.1480,-0.0802,
1.581190,0.8503,-0.5415,0.2514,-0.8724,0.5661,4.3582,0.0466,1.1480,-0.0802,
1.583406,0.8503,-0.5415,0.2514,-0.6462,-1.3990,2.9873,0.0466,1.1480,-0.0802,
1.588847,0.8503,-0.5415,0.2514,-0.6462,-1.3990,2.9873,0.0869,0.9342,-0.0075,
1.598953,0.8503,-0.5415,0.2514,-0.6462,-1.3990,2.9873,0.0319,0.7937,0.0395,
1.601563,0.6822,-0.8595,-0.0162,-0.6462,-1.3990,2.9873,0.0319,0.7937,0.0395,
1.603679,0.6822,-0.8595,-0.0162,-2.2759,-4.4505,0.1213,0.0319,0.7937,0.0395,
1.608961,0.6822,-0.8595,-0.0162,-2.2759,-4.4505,0.1213,-0.1672,0.7020,0.1641,
1.619011,0.6822,-0.8595,-0.0162,-2.2759,-4.4505,0.1213,-0.4409,0.7466,0.1831,
1.621850,0.7723,-0.9794,-0.0600,-2.2759,-4.4505,0.1213,-0.4409,0.7466,0.1831,
1.624448,0.7723,-0.9794,-0.0600,-1.3413,-5.5023,-0.4610,-0.4409,0.7466,0.1831,
1.628651,0.7723,-0.9794,-0.0600,-1.3413,-5.5023,-0.4610,-0.7188,0.8926,0.0340,
1.638620,0.7723,-0.9794,-0.0600,-1.3413,-5.5023,-0.4610,-0.8789,1.1064,-0.1572,
1.641348,0.7895,-0.9357,0.2414,-1.3413,-5.5023,-0.4610,-0.8789,1.1064,-0.1572,
1.643569,0.7895,-0.9357,0.2414,-1.1278,-4.9762,2.3261,-0.8789,1.1064,-0.1572,
1.649564,0.7895,-0.9357,0.2414,-1.1278,-4.9762,2.3261,-0.9192,1.3428,-0.2806,
1.659186,0.7895,-0.9357,0.2414,-1.1278,-4.9762,2.3261,-0.8618,1.4785,-0.3301,
1.662017,0.7826,-0.6453,0.5005,-1.1278,-4.9762,2.3261,-0.8618,1.4785,-0.3301,
1.663898,0.7826,-0.6453,0.5005,-1.1671,-2.0826,4.6086,-0.8618,1.4785,-0.3301,
1.670809,0.7826,-0.6453,0.5005,-1.1671,-2.0826,4.6086,-0.7708,1.4082,-0.3093,
1.678465,0.7826,-0.6453,0.5005,-1.1671,-2.0826,4.6086,-0.7011,1.0857,-0.1798,
1.680830,0.7788,-0.5042,0.5328,-1.1671,-2.0826,4.6086,-0.7011,1.0857,-0.1798,
1.683126,0.7788,-0.5042,0.5328,-1.1705,-0.6562,4.6657,-0.7011,1.0857,-0.1798,
1.688775,0.7788,-0.5042,0.5328,-1.1705,-0.6562,4.6657,-0.4311,0.4125,0.2667,
1.699483,0.7788,-0.5042,0.5328,-1.1705,-0.6562,4.6657,-0.2479,0.1401,0.4598,
1.701793,0.8313,-0.4577,0.4959,-1.1705,-0.6562,4.6657,-0.2479,0.1401,0.4598,
1.704322,0.8313,-0.4577,0.4959,-0.5856,-0.0756,4.1690,-0.2479,0.1401,0.4598,
1.710217,0.8313,-0.4577,0.4959,-0.5856,-0.0756,4.1690,-0.0744,0.0197,0.6137,
1.719257,0.8313,-0.4577,0.4959,-0.5856,-0.0756,4.1690,0.0380,-0.1019,0.7402,
1.721280,0.7738,-0.3904,0.3895,-0.5856,-0.0756,4.1690,0.0380,-0.1019,0.7402,
1.723802,0.7738,-0.3904,0.3895,-1.0602,0.7363,3.0169,0.0380,-0.1019,0.7402,
1.728532,0.7738,-0.3904,0.3895,-1.0602,0.7363,3.0169,0.1003,-0.2051,0.8623,
1.738268,0.7738,-0.3904,0.3895,-1.0602,0.7363,3.0169,0.1718,-0.0292,1.0572,
1.739842,0.6621,-0.2700,0.3558,-1.0602,0.7363,3.0169,0.1718,-0.0292,1.0572,
1.741457,0.6621,-0.2700,0.3558,-2.0503,2.0900,2.5723,0.1718,-0.0292,1.0572,
1.748258,0.6621,-0.2700,0.3558,-2.0503,2.0900,2.5723,0.2127,0.2286,1.2979,
1.758050,0.6621,-0.2700,0.3558,-2.0503,2.0900,2.5723,0.1620,0.1107,1.3822,
1.759567,0.9209,-0.3613,0.3186,-2.0503,2.0900,2.5723,0.1620,0.1107,1.3822,
1.761998,0.9209,-0.3613,0.3186,0.6226,1.4017,2.0542,0.1620,0.1107,1.3822,
1.768629,0.9209,-0.3613,0.3186,0.6226,1.4017,2.0542,0.1614,0.0496,1.3712,
1.778190,0.9209,-0.3613,0.3186,0.6226,1.4017,2.0542,0.2072,0.1791,1.3907,
1.780297,0.9965,-0.3319,0.3194,0.6226,1.4017,2.0542,0.2072,0.1791,1.3907,
1.781691,0.9965,-0.3319,0.3194,1.4932,1.8756,1.9325,0.2072,0.1791,1.3907,
1.787872,0.9965,-0.3319,0.3194,1.4932,1.8756,1.9325,0.1681,0.2109,1.4366,
1.797833,0.9965,-0.3319,0.3194,1.4932,1.8756,1.9325,0.0429,0.1260,1.5386,
1.801251,0.9345,-0.3849,0.2628,1.4932,1.8756,1.9325,0.0429,0.1260,1.5386,
1.802752,0.9345,-0.3849,0.2628,1.0219,1.5432,1.2613,0.0429,0.1260,1.5386,
1.807790,0.9345,-0.3849,0.2628,1.0219,1.5432,1.2613,-0.1391,-0.0426,1.6675,
1.817599,0.9345,-0.3849,0.2628,1.0219,1.5432,1.2613,-0.3224,-0.1831,1.7646,
1.818819,0.8273,-0.4345,0.2664,1.0219,1.5432,1.2613,-0.3224,-0.1831,1.7646,
1.820592,0.8273,-0.4345,0.2664,0.1277,1.2815,1.2693,-0.3224,-0.1831,1.7646,
1.827706,0.8273,-0.4345,0.2664,0.1277,1.2815,1.2693,-0.4617,-0.1495,1.8361,
1.837660,0.8273,-0.4345,0.2664,0.1277,1.2815,1.2693,-0.5063,0.0356,1.8984,
1.838821,0.6043,-0.5383,0.2840,0.1277,1.2815,1.2693,-0.5063,0.0356,1.8984,
1.839836,0.6043,-0.5383,0.2840,-1.8688,0.5250,1.4319,-0.5063,0.0356,1.8984,
1.847576,0.6043,-0.5383,0.2840,-1.8688,0.5250,1.4319,-0.3871,0.3025,1.9595,
1.857612,0.6043,-0.5383,0.2840,-1.8688,0.5250,1.4319,-0.1801,0.6342,1.9485,
1.858698,0.5409,-0.8729,0.2305,-1.8688,0.5250,1.4319,-0.1801,0.6342,1.9485,
1.859680,0.5409,-0.8729,0.2305,-2.2426,-2.4568,0.8145,-0.1801,0.6342,1.9485,
1.867610,0.5409,-0.8729,0.2305,-2.2426,-2.4568,0.8145,0.0295,0.9250,1.8342,
1.877678,0.5409,-0.8729,0.2305,-2.2426,-2.4568,0.8145,0.2579,1.1523,1.2832,
1.878773,0.7646,-0.8685,0.1837,-2.2426,-2.4568,0.8145,0.2579,1.1523,1.2832,
1.879568,0.7646,-0.8685,0.1837,0.1783,-2.1872,0.1646,0.2579,1.1523,1.2832,
1.888461,0.7646,-0.8685,0.1837,0.1783,-2.1872,0.1646,0.2555,1.1333,0.9491,
1.898839,0.7646,-0.8685,0.1837,0.1783,-2.1872,0.1646,0.1956,1.1437,0.7224,
1.901399,0.6624,-0.7168,0.2298,0.1783,-2.1872,0.1646,0.1956,1.1437,0.7224,
1.903357,0.6624,-0.7168,0.2298,-0.6729,-0.5862,0.4121,0.1956,1.1437,0.7224,
1.908558,0.6624,-0.7168,0.2298,-0.6729,-0.5862,0.4121,0.0844,1.1022,0.6687,
1.918217,0.6624,-0.7168,0.2298,-0.6729,-0.5862,0.4121,-0.0573,0.9360,0.7878,
1.920713,0.4553,-0.5972,0.2965,-0.6729,-0.5862,0.4121,-0.0573,0.9360,0.7878,
1.923015,0.4553,-0.5972,0.2965,-2.5619,0.6922,0.9038,-0.0573,0.9360,0.7878,
1.928245,0.4553,-0.5972,0.2965,-2.5619,0.6922,0.9038,-0.2259,0.6623,1.0700,
1.938354,0.4553,-0.5972,0.2965,-2.5619,0.6922,0.9038,-0.4018,0.4430,1.4469,
1.940645,0.5016,-0.6428,0.3178,-2.5619,0.6922,0.9038,-0.4018,0.4430,1.4469,
1.942308,0.5016,-0.6428,0.3178,-1.9086,0.4362,1.0557,-0.4018,0.4430,1.4469,
1.948893,0.5016,-0.6428,0.3178,-1.9086,0.4362,1.0557,-0.5515,0.3508,1.8202,
1.958554,0.5016,-0.6428,0.3178,-1.9086,0.4362,1.0557,-0.6541,0.2879,2.0896,
1.960915,0.8261,-0.7443,0.3386,-1.9086,0.4362,1.0557,-0.6541,0.2879,2.0896,
1.962355,0.8261,-0.7443,0.3386,1.5528,-0.2802,1.2777,-0.6541,0.2879,2.0896,
1.968869,0.8261,-0.7443,0.3386,1.5528,-0.2802,1.2777,-0.8001,0.2024,2.1739,
1.978352,0.8261,-0.7443,0.3386,1.5528,-0.2802,1.2777,-1.0457,-0.0200,2.1012,
1.980345,1.0491,-0.7660,0.2183,1.5528,-0.2802,1.2777,-1.0457,-0.0200,2.1012,
1.983279,1.0491,-0.7660,0.2183,4.0196,-0.2126,0.1999,-1.0457,-0.0200,2.1012,
1.988802,1.0491,-0.7660,0.2183,4.0196,-0.2126,0.1999,-1.3645,-0.3774,1.9265,
1.998706,1.0491,-0.7660,0.2183,4.0196,-0.2126,0.1999,-1.6498,-0.9381,1.7689,
2.001801,0.9325,-0.8657,0.1523,4.0196,-0.2126,0.1999,-1.6498,-0.9381,1.7689,
2.004051,0.9325,-0.8657,0.1523,3.0852,-0.9478,-0.1603,-1.6498,-0.9381,1.7689,
2.009390,0.9325,-0.8657,0.1523,3.0852,-0.9478,-0.1603,-1.7995,-1.6076,1.7194,
2.019189,0.9325,-0.8657,0.1523,3.0852,-0.9478,-0.1603,-1.8044,-2.1476,1.7072,
2.021857,0.7992,-0.9800,0.2606,3.0852,-0.9478,-0.1603,-1.8044,-2.1476,1.7072,
2.023902,0.7992,-0.9800,0.2606,1.9494,-1.8492,1.3637,-1.8044,-2.1476,1.7072,
2.027975,0.7992,-0.9800,0.2606,1.9494,-1.8492,1.3637,-1.6730,-2.4964,1.6088,
2.038218,0.7992,-0.9800,0.2606,1.9494,-1.8492,1.3637,-1.4470,-2.7127,1.3138,
2.040016,0.8703,-0.9174,0.2670,1.9494,-1.8492,1.3637,-1.4470,-2.7127,1.3138,
2.041379,0.8703,-0.9174,0.2670,2.7819,-1.0752,1.9169,-1.4470,-2.7127,1.3138,
2.048296,0.8703,-0.9174,0.2670,2.7819,-1.0752,1.9169,-1.1574,-2.8361,0.8373,
2.058067,0.8703,-0.9174,0.2670,2.7819,-1.0752,1.9169,-0.5313,-2.6192,-0.0924,
2.059840,0.6098,-0.6225,0.2163,2.7819,-1.0752,1.9169,-0.5313,-2.6192,-0.0924,
2.061171,0.6098,-0.6225,0.2163,0.2152,1.8290,1.7905,-0.5313,-2.6192,-0.0924,
2.068487,0.6098,-0.6225,0.2163,0.2152,1.8290,1.7905,-0.3884,-2.4952,-0.0540,
2.078069,0.6098,-0.6225,0.2163,0.2152,1.8290,1.7905,-0.3566,-2.6931,0.2655,
2.079587,0.3539,-0.5984,0.0866,0.2152,1.8290,1.7905,-0.3566,-2.6931,0.2655,
2.080958,0.3539,-0.5984,0.0866,-2.3162,2.0545,0.7977,-0.3566,-2.6931,0.2655,
2.088376,0.3539,-0.5984,0.0866,-2.3162,2.0545,0.7977,-0.3242,-3.0749,0.6766,
2.098460,0.3539,-0.5984,0.0866,-2.3162,2.0545,0.7977,-0.2864,-3.4225,1.1336,
2.100514,0.2041,-0.5764,0.0230,-2.3162,2.0545,0.7977,-0.2864,-3.4225,1.1336,
2.102438,0.2041,-0.5764,0.0230,-3.6450,2.3645,0.5122,-0.2864,-3.4225,1.1336,
2.108329,0.2041,-0.5764,0.0230,-3.6450,2.3645,0.5122,-0.2497,-3.6620,1.5544,
2.119011,0.2041,-0.5764,0.0230,-3.6450,2.3645,0.5122,-0.1917,-3.6901,1.8837,
2.121509,0.2145,-0.3756,0.0721,-3.6450,2.3645,0.5122,-0.1917,-3.6901,1.8837,
2.123647,0.2145,-0.3756,0.0721,-3.2503,4.5118,1.3370,-0.1917,-3.6901,1.8837,
2.128399,0.2145,-0.3756,0.0721,-3.2503,4.5118,1.3370,-0.0817,-3.3743,2.1018,
2.138384,0.2145,-0.3756,0.0721,-3.2503,4.5118,1.3370,0.1913,-2.6363,2.1812,
2.140849,0.2577,-0.2338,0.3908,-3.2503,4.5118,1.3370,0.1913,-2.6363,2.1812,
2.142483,0.2577,-0.2338,0.3908,-2.4741,6.1092,4.6059,0.1913,-2.6363,2.1812,
2.148932,0.2577,-0.2338,0.3908,-2.4741,6.1092,4.6059,0.6043,-1.6522,2.1488,
2.158862,0.2577,-0.2338,0.3908,-2.4741,6.1092,4.6059,0.9836,-0.7176,2.0890,
2.161411,0.2240,-0.2618,0.2598,-2.4741,6.1092,4.6059,0.9836,-0.7176,2.0890,
2.163236,0.2240,-0.2618,0.2598,-2.4877,6.0309,3.1318,0.9836,-0.7176,2.0890,
2.170401,0.2240,-0.2618,0.2598,-2.4877,6.0309,3.1318,1.2524,0.0258,2.1079,
2.178416,0.2240,-0.2618,0.2598,-2.4877,6.0309,3.1318,1.4149,0.5817,2.2093,
2.180785,0.1728,-0.3304,0.1998,-2.4877,6.0309,3.1318,1.4149,0.5817,2.2093,
2.183263,0.1728,-0.3304,0.1998,-2.6462,5.5524,2.2055,1.4149,0.5817,2.2093,
2.188818,0.1728,-0.3304,0.1998,-2.6462,5.5524,2.2055,1.5401,1.0649,2.3816,
2.198682,0.1728,-0.3304,0.1998,-2.6462,5.5524,2.2055,1.6556,1.4962,2.6308,
2.202042,0.1088,-0.4741,0.2671,-2.6462,5.5524,2.2055,1.6556,1.4962,2.6308,
2.204234,0.1088,-0.4741,0.2671,-2.8447,4.3445,2.4081,1.6556,1.4962,2.6308,
2.209549,0.1088,-0.4741,0.2671,-2.8447,4.3445,2.4081,1.6929,2.1357,3.1335,
2.219619,0.1088,-0.4741,0.2671,-2.8447,4.3445,2.4081,1.5426,3.1620,4.0993,
2.222349,-0.1035,-0.8163,0.3710,-2.8447,4.3445,2.4081,1.5426,3.1620,4.0993,
2.224680,-0.1035,-0.8163,0.3710,-4.2168,1.2305,2.7950,1.5426,3.1620,4.0993,
2.228546,-0.1035,-0.8163,0.3710,-4.2168,1.2305,2.7950,1.3679,3.6073,5.0816,
2.238573,-0.1035,-0.8163,0.3710,-4.2168,1.2305,2.7950,0.9671,2.2769,5.8708,
2.241283,0.1116,-1.5261,0.2477,-4.2168,1.2305,2.7950,0.9671,2.2769,5.8708,
2.243198,0.1116,-1.5261,0.2477,-1.0026,-5.4631,1.1355,0.9671,2.2769,5.8708,
2.248938,0.1116,-1.5261,0.2477,-1.0026,-5.4631,1.1355,0.0997,-2.0151,6.2453,
2.258710,0.1116,-1.5261,0.2477,-1.0026,-5.4631,1.1355,0.1095,-2.6119,5.3937,
2.261224,0.5085,-2.5133,0.3666,-1.0026,-5.4631,1.1355,0.1095,-2.6119,5.3937,
2.264711,0.5085,-2.5133,0.3666,3.9258,-14.9639,2.3235,0.1095,-2.6119,5.3937,
2.268923,0.5085,-2.5133,0.3666,3.9258,-14.9639,2.3235,0.0820,-2.1880,4.1011,
2.288228,0.5085,-2.5133,0.3666,3.9258,-14.9639,2.3235,0.1107,-1.2820,2.6455,
2.290609,0.4647,-2.4547,0.1418,3.9258,-14.9639,2.3235,0.1107,-1.2820,2.6455,
2.293247,0.4647,-2.4547,0.1418,4.1042,-14.3409,0.1285,0.1107,-1.2820,2.6455,
2.295363,0.4647,-2.4547,0.1418,4.1042,-14.3409,0.1285,0.1461,-0.7585,1.2716,
2.298658,0.4647,-2.4547,0.1418,4.1042,-14.3409,0.1285,0.2427,-0.4250,0.4286,
2.301255,0.6619,-1.2780,0.0563,4.1042,-14.3409,0.1285,0.2427,-0.4250,0.4286,
2.303717,0.6619,-1.2780,0.0563,6.1878,-2.8079,-0.7429,0.2427,-0.4250,0.4286,
2.320818,0.6619,-1.2780,0.0563,6.1878,-2.8079,-0.7429,0.3581,-0.5062,0.0554,
2.323503,0.6619,-1.2780,0.0563,6.1878,-2.8079,-0.7429,0.3123,-0.8294,-0.2873,
2.325096,0.2877,-0.5832,-0.0750,6.1878,-2.8079,-0.7429,0.3123,-0.8294,-0.2873,
2.326445,0.2877,-0.5832,-0.0750,2.3817,3.9899,-2.0745,0.3123,-0.8294,-0.2873,
2.327962,0.2877,-0.5832,-0.0750,2.3817,3.9899,-2.0745,0.0521,-0.9204,-0.6404,
2.338266,0.2877,-0.5832,-0.0750,2.3817,3.9899,-2.0745,-0.2796,-0.8477,-0.7729,
2.340063,-0.2960,-0.7236,0.0009,2.3817,3.9899,-2.0745,-0.2796,-0.8477,-0.7729,
2.341420,-0.2960,-0.7236,0.0009,-3.5283,2.6091,-1.2849,-0.2796,-0.8477,-0.7729,
2.348128,-0.2960,-0.7236,0.0009,-3.5283,2.6091,-1.2849,-0.4818,-0.7145,-0.5488,
2.358115,-0.2960,-0.7236,0.0009,-3.5283,2.6091,-1.2849,-0.5032,-0.5362,-0.2391,
2.359917,-0.1131,-0.8967,0.1797,-3.5283,2.6091,-1.2849,-0.5032,-0.5362,-0.2391,
2.361411,-0.1131,-0.8967,0.1797,-1.8308,0.9197,0.5730,-0.5032,-0.5362,-0.2391,
2.368336,-0.1131,-0.8967,0.1797,-1.8308,0.9197,0.5730,-0.4269,-0.3920,-0.0882,
2.378511,-0.1131,-0.8967,0.1797,-1.8308,0.9197,0.5730,-0.3994,-0.2717,-0.1132,
2.381026,0.0684,-1.0102,0.1005,-1.8308,0.9197,0.5730,-0.3994,-0.2717,-0.1132,
2.382881,0.0684,-1.0102,0.1005,-0.0801,-0.1844,-0.1169,-0.3994,-0.2717,-0.1132,
2.388360,0.0684,-1.0102,0.1005,-0.0801,-0.1844,-0.1169,-0.4806,-0.1605,-0.2714,
2.398600,0.0684,-1.0102,0.1005,-0.0801,-0.1844,-0.1169,-0.6388,-0.0689,-0.4168,
2.400534,-0.0722,-0.9766,0.0569,-0.0801,-0.1844,-0.1169,-0.6388,-0.0689,-0.4168,
2.402149,-0.0722,-0.9766,0.0569,-1.5232,0.1515,-0.4329,-0.6388,-0.0689,-0.4168,
2.408505,-0.0722,-0.9766,0.0569,-1.5232,0.1515,-0.4329,-0.8435,0.1022,-0.4779,
2.420060,-0.0722,-0.9766,0.0569,-1.5232,0.1515,-0.4329,-1.0542,0.3887,-0.4883,
2.422170,-0.2257,-0.9164,0.0812,-1.5232,0.1515,-0.4329,-1.0542,0.3887,-0.4883,
2.424087,-0.2257,-0.9164,0.0812,-3.0845,0.7532,-0.0172,-1.0542,0.3887,-0.4883,
2.428426,-0.2257,-0.9164,0.0812,-3.0845,0.7532,-0.0172,-1.4012,1.1968,-0.4657,
2.438742,-0.2257,-0.9164,0.0812,-3.0845,0.7532,-0.0172,-1.4830,1.5463,-0.4712,
2.441526,-0.1163,-0.8672,0.0668,-3.0845,0.7532,-0.0172,-1.4830,1.5463,-0.4712,
2.443113,-0.1163,-0.8672,0.0668,-2.0331,1.2511,0.0867,-1.4830,1.5463,-0.4712,
2.448486,-0.1163,-0.8672,0.0668,-2.0331,1.2511,0.0867,-1.5136,1.7625,-0.6111,
2.458380,-0.1163,-0.8672,0.0668,-2.0331,1.2511,0.0867,-1.5466,1.8572,-0.8597,
2.460547,-0.0683,-0.8518,-0.0342,-2.0331,1.2511,0.0867,-1.5466,1.8572,-0.8597,
2.462111,-0.0683,-0.8518,-0.0342,-1.6295,1.4071,-0.6486,-1.5466,1.8572,-0.8597,
2.469641,-0.0683,-0.8518,-0.0342,-1.6295,1.4071,-0.6486,-1.5912,1.7753,-1.1352,
2.478232,-0.0683,-0.8518,-0.0342,-1.6295,1.4071,-0.6486,-1.6443,1.4950,-1.3649,
2.480162,0.0031,-0.8702,-0.1003,-1.6295,1.4071,-0.6486,-1.6443,1.4950,-1.3649,
2.481754,0.0031,-0.8702,-0.1003,-1.1060,1.2124,-1.0195,-1.6443,1.4950,-1.3649,
2.488406,0.0031,-0.8702,-0.1003,-1.1060,1.2124,-1.0195,-1.7011,1.0924,-1.5048,
2.498487,0.0031,-0.8702,-0.1003,-1.1060,1.2124,-1.0195,-1.7029,0.6630,-1.5964,
2.501060,0.0964,-1.0030,-0.0357,-1.1060,1.2124,-1.0195,-1.7029,0.6630,-1.5964,
2.502888,0.0964,-1.0030,-0.0357,-0.4436,-0.1251,-0.0860,-1.7029,0.6630,-1.5964,
2.508495,0.0964,-1.0030,-0.0357,-0.4436,-0.1251,-0.0860,-1.6290,0.2653,-1.6532,
2.520249,0.0964,-1.0030,-0.0357,-0.4436,-0.1251,-0.0860,-1.4843,-0.1092,-1.6770,
2.522766,0.2003,-1.0323,0.0299,-0.4436,-0.1251,-0.0860,-1.4843,-0.1092,-1.6770,
2.525311,0.2003,-1.0323,0.0299,0.2903,-0.4690,0.8354,-1.4843,-0.1092,-1.6770,
2.528547,0.2003,-1.0323,0.0299,0.2903,-0.4690,0.8354,-1.2906,-0.3987,-1.6587,
2.541250,0.2003,-1.0323,0.0299,0.2903,-0.4690,0.8354,-1.0725,-0.5875,-1.5976,
2.544022,0.2940,-0.9990,0.0938,0.2903,-0.4690,0.8354,-1.0725,-0.5875,-1.5976,
2.546492,0.2940,-0.9990,0.0938,0.9270,-0.2094,1.6716,-1.0725,-0.5875,-1.5976,
2.548561,0.2940,-0.9990,0.0938,0.9270,-0.2094,1.6716,-0.8239,-0.7036,-1.5090,
2.558580,0.2940,-0.9990,0.0938,0.9270,-0.2094,1.6716,-0.5655,-0.7775,-1.3918,
2.560498,0.3994,-0.9865,0.1902,0.9270,-0.2094,1.6716,-0.5655,-0.7775,-1.3918,
2.561896,0.3994,-0.9865,0.1902,1.7060,-0.1511,2.7156,-0.5655,-0.7775,-1.3918,
2.568613,0.3994,-0.9865,0.1902,1.7060,-0.1511,2.7156,-0.3138,-0.8031,-1.2342,
2.578234,0.3994,-0.9865,0.1902,1.7060,-0.1511,2.7156,-0.0964,-0.7689,-1.0472,
2.580022,0.4879,-1.0013,0.1582,1.7060,-0.1511,2.7156,-0.0964,-0.7689,-1.0472,
2.581303,0.4879,-1.0013,0.1582,2.3598,-0.3480,2.4033,-0.0964,-0.7689,-1.0472,
2.588309,0.4879,-1.0013,0.1582,2.3598,-0.3480,2.4033,0.0398,-0.6755,-0.8438,
2.598009,0.4879,-1.0013,0.1582,2.3598,-0.3480,2.4033,0.0631,-0.5093,-0.6392,
2.600552,0.5777,-1.0238,-0.0227,2.3598,-0.3480,2.4033,0.0631,-0.5093,-0.6392,
2.602282,0.5777,-1.0238,-0.0227,3.0783,-0.6077,0.5928,0.0631,-0.5093,-0.6392,
2.608363,0.5777,-1.0238,-0.0227,3.0783,-0.6077,0.5928,0.0093,-0.2772,-0.4474,
2.619202,0.5777,-1.0238,-0.0227,3.0783,-0.6077,0.5928,-0.1562,0.2934,-0.1352,
2.620203,0.5747,-0.9326,-0.0231,3.0783,-0.6077,0.5928,-0.1562,0.2934,-0.1352,
2.621164,0.5747,-0.9326,-0.0231,2.9442,0.2588,0.5548,-0.1562,0.2934,-0.1352,
2.627694,0.5747,-0.9326,-0.0231,2.9442,0.2588,0.5548,-0.2411,0.6446,-0.0210,
2.637736,0.5747,-0.9326,-0.0231,2.9442,0.2588,0.5548,-0.3059,0.9556,0.0169,
2.638869,0.5328,-0.8937,-0.0500,2.9442,0.2588,0.5548,-0.3059,0.9556,0.0169,
2.639951,0.5328,-0.8937,-0.0500,2.4596,0.6215,0.2626,-0.3059,0.9556,0.0169,
2.647781,0.5328,-0.8937,-0.0500,2.4596,0.6215,0.2626,-0.3401,1.1193,-0.0106,
2.657630,0.5328,-0.8937,-0.0500,2.4596,0.6215,0.2626,-0.3462,1.0930,-0.0350,
2.658884,0.4179,-0.9802,0.0062,2.4596,0.6215,0.2626,-0.3462,1.0930,-0.0350,
2.659977,0.4179,-0.9802,0.0062,1.2606,-0.2453,0.7829,-0.3462,1.0930,-0.0350,
2.668011,0.4179,-0.9802,0.0062,1.2606,-0.2453,0.7829,-0.3297,0.9311,-0.0424,
2.677632,0.4179,-0.9802,0.0062,1.2606,-0.2453,0.7829,-0.3096,0.7546,-0.0326,
2.679042,0.3230,-1.0054,-0.0421,1.2606,-0.2453,0.7829,-0.3096,0.7546,-0.0326,
2.680186,0.3230,-1.0054,-0.0421,0.2826,-0.5070,0.2996,-0.3096,0.7546,-0.0326,
2.687531,0.3230,-1.0054,-0.0421,0.2826,-0.5070,0.2996,-0.3077,0.6458,-0.0088,
2.697562,0.3230,-1.0054,-0.0421,0.2826,-0.5070,0.2996,-0.3120,0.5976,0.0096,
2.698820,0.3323,-0.9927,-0.1697,0.2826,-0.5070,0.2996,-0.3120,0.5976,0.0096,
2.699992,0.3323,-0.9927,-0.1697,0.3494,-0.3913,-0.9342,-0.3120,0.5976,0.0096,
2.707620,0.3323,-0.9927,-0.1697,0.3494,-0.3913,-0.9342,-0.2943,0.5915,0.0041,
2.717715,0.3323,-0.9927,-0.1697,0.3494,-0.3913,-0.9342,-0.2491,0.6190,-0.0161,
2.719085,0.3572,-1.0323,-0.1066,0.3494,-0.3913,-0.9342,-0.2491,0.6190,-0.0161,
2.720074,0.3572,-1.0323,-0.1066,0.5736,-0.7864,-0.3037,-0.2491,0.6190,-0.0161,
2.728438,0.3572,-1.0323,-0.1066,0.5736,-0.7864,-0.3037,-0.1911,0.6581,-0.0204,
2.738182,0.3572,-1.0323,-0.1066,0.5736,-0.7864,-0.3037,-0.1452,0.6495,0.0035,
2.739765,0.3775,-1.0221,-0.0203,0.5736,-0.7864,-0.3037,-0.1452,0.6495,0.0035,
2.741728,0.3775,-1.0221,-0.0203,0.7520,-0.6913,0.5314,-0.1452,0.6495,0.0035,
2.748232,0.3775,-1.0221,-0.0203,0.7520,-0.6913,0.5314,-0.1196,0.5524,0.0316,
2.758209,0.3775,-1.0221,-0.0203,0.7520,-0.6913,0.5314,-0.1104,0.3710,0.0523,
2.759730,0.4197,-1.0014,-0.0169,0.7520,-0.6913,0.5314,-0.1104,0.3710,0.0523,
2.762168,0.4197,-1.0014,-0.0169,1.1554,-0.4915,0.5526,-0.1104,0.3710,0.0523,
2.769996,0.4197,-1.0014,-0.0169,1.1554,-0.4915,0.5526,-0.1061,0.1663,0.0664,
2.778550,0.4197,-1.0014,-0.0169,1.1554,-0.4915,0.5526,-0.0884,0.0136,0.0584,
2.780274,0.4038,-0.9877,0.0531,1.1554,-0.4915,0.5526,-0.0884,0.0136,0.0584,
2.782310,0.4038,-0.9877,0.0531,0.9949,-0.3589,1.2381,-0.0884,0.0136,0.0584,
2.788403,0.4038,-0.9877,0.0531,0.9949,-0.3589,1.2381,-0.0481,-0.0328,0.0316,
2.798514,0.4038,-0.9877,0.0531,0.9949,-0.3589,1.2381,0.0948,0.0985,0.0206,
2.801176,0.3997,-0.9083,0.1302,0.9949,-0.3589,1.2381,0.0948,0.0985,0.0206,
2.803667,0.3997,-0.9083,0.1302,0.9362,0.4160,1.9597,0.0948,0.0985,0.0206,
2.808930,0.3997,-0.9083,0.1302,0.9362,0.4160,1.9597,0.1773,0.1694,0.0364,
2.820585,0.3997,-0.9083,0.1302,0.9362,0.4160,1.9597,0.2365,0.2298,0.0419,
2.822901,0.4173,-0.8027,0.0379,0.9362,0.4160,1.9597,0.2365,0.2298,0.0419,
2.825373,0.4173,-0.8027,0.0379,1.0829,1.4487,0.9753,0.2365,0.2298,0.0419,
2.828577,0.4173,-0.8027,0.0379,1.0829,1.4487,0.9753,0.2640,0.3044,0.0340,
2.838648,0.4173,-0.8027,0.0379,1.0829,1.4487,0.9753,0.2738,0.3997,0.0102,
2.840624,0.4290,-0.7355,-0.0503,1.0829,1.4487,0.9753,0.2738,0.3997,0.0102,
2.842262,0.4290,-0.7355,-0.0503,1.1592,2.1000,0.0204,0.2738,0.3997,0.0102,
2.848452,0.4290,-0.7355,-0.0503,1.1592,2.1000,0.0204,0.2848,0.4992,-0.0375,
2.858596,0.4290,-0.7355,-0.0503,1.1592,2.1000,0.0204,0.3092,0.5933,-0.1077,
2.860794,0.4747,-0.7723,-0.0357,1.1592,2.1000,0.0204,0.3092,0.5933,-0.1077,
2.862409,0.4747,-0.7723,-0.0357,1.5384,1.7221,0.0622,0.3092,0.5933,-0.1077,
2.869346,0.4747,-0.7723,-0.0357,1.5384,1.7221,0.0622,0.3551,0.6593,-0.1920,
2.878728,0.4747,-0.7723,-0.0357,1.5384,1.7221,0.0622,0.4216,0.6758,-0.2751,
2.880729,0.4780,-0.8653,0.0093,1.5384,1.7221,0.0622,0.4216,0.6758,-0.2751,
2.882184,0.4780,-0.8653,0.0093,1.4735,0.7814,0.3787,0.4216,0.6758,-0.2751,
2.888284,0.4780,-0.8653,0.0093,1.4735,0.7814,0.3787,0.5017,0.6318,-0.3484,
2.898214,0.4780,-0.8653,0.0093,1.4735,0.7814,0.3787,0.6098,0.5463,-0.4028,
2.899804,0.3795,-0.8558,0.1424,1.4735,0.7814,0.3787,0.6098,0.5463,-0.4028,
2.901627,0.3795,-0.8558,0.1424,0.4018,0.8406,1.5257,0.6098,0.5463,-0.4028,
2.908401,0.3795,-0.8558,0.1424,0.4018,0.8406,1.5257,0.7784,0.4626,-0.4296,
2.920946,0.3795,-0.8558,0.1424,0.4018,0.8406,1.5257,1.0185,0.4070,-0.4364,
2.923583,0.2944,-0.8034,0.3131,0.4018,0.8406,1.5257,1.0185,0.4070,-0.4364,
2.925907,0.2944,-0.8034,0.3131,-0.5366,1.3165,2.9662,1.0185,0.4070,-0.4364,
2.928942,0.2944,-0.8034,0.3131,-0.5366,1.3165,2.9662,1.3001,0.4046,-0.4443,
2.938959,0.2944,-0.8034,0.3131,-0.5366,1.3165,2.9662,1.5401,0.4357,-0.4547,
2.941369,0.2138,-0.8205,0.1553,-0.5366,1.3165,2.9662,1.5401,0.4357,-0.4547,
2.943434,0.2138,-0.8205,0.1553,-1.4118,1.1079,1.1061,1.5401,0.4357,-0.4547,
2.948032,0.2138,-0.8205,0.1553,-1.4118,1.1079,1.1061,1.6483,0.4589,-0.4516,
2.958051,0.2138,-0.8205,0.1553,-1.4118,1.1079,1.1061,1.6257,0.4443,-0.4351,
2.960253,0.1345,-0.8911,-0.0766,-1.4118,1.1079,1.1061,1.6257,0.4443,-0.4351,
2.961624,0.1345,-0.8911,-0.0766,-2.2573,0.3683,-1.4966,1.6257,0.4443,-0.4351,
2.969795,0.1345,-0.8911,-0.0766,-2.2573,0.3683,-1.4966,1.5444,0.3746,-0.4174,
2.978256,0.1345,-0.8911,-0.0766,-2.2573,0.3683,-1.4966,1.4681,0.2922,-0.4131,
2.980412,0.1559,-1.0712,0.0224,-2.2573,0.3683,-1.4966,1.4681,0.2922,-0.4131,
2.981850,0.1559,-1.0712,0.0224,-2.0864,-1.4393,-0.8109,1.4681,0.2922,-0.4131,
2.987924,0.1559,-1.0712,0.0224,-2.0864,-1.4393,-0.8109,1.4442,0.2598,-0.4907,
2.997770,0.1559,-1.0712,0.0224,-2.0864,-1.4393,-0.8109,1.4955,0.2097,-0.5445,
2.998863,0.1468,-1.1899,0.0413,-2.0864,-1.4393,-0.8109,1.4955,0.2097,-0.5445,
3.000887,0.1468,-1.1899,0.0413,-2.2029,-2.6462,-0.8768,1.4955,0.2097,-0.5445,
3.007685,0.1468,-1.1899,0.0413,-2.2029,-2.6462,-0.8768,1.4919,0.1657,-0.5848,
3.019048,0.1468,-1.1899,0.0413,-2.2029,-2.6462,-0.8768,1.3721,0.2085,-0.6129,
3.020401,0.1445,-1.2538,-0.0386,-2.2029,-2.6462,-0.8768,1.3721,0.2085,-0.6129,
3.021866,0.1445,-1.2538,-0.0386,-2.2544,-3.3180,-1.8794,1.3721,0.2085,-0.6129,
3.027721,0.1445,-1.2538,-0.0386,-2.2544,-3.3180,-1.8794,1.1486,0.3422,-0.6410,
3.037678,0.1445,-1.2538,-0.0386,-2.2544,-3.3180,-1.8794,0.8792,0.4076,-0.6459,
3.039156,0.1099,-1.2622,0.0451,-2.2544,-3.3180,-1.8794,0.8792,0.4076,-0.6459,
3.040333,0.1099,-1.2622,0.0451,-2.6109,-3.4350,-1.2131,0.8792,0.4076,-0.6459,
3.047653,0.1099,-1.2622,0.0451,-2.6109,-3.4350,-1.2131,0.5908,0.3508,-0.6343,
3.057936,0.1099,-1.2622,0.0451,-2.6109,-3.4350,-1.2131,0.2848,0.2940,-0.6056,
3.059248,0.1575,-1.1564,0.0564,-2.6109,-3.4350,-1.2131,0.2848,0.2940,-0.6056,
3.060232,0.1575,-1.1564,0.0564,-2.1569,-2.4120,-1.1493,0.2848,0.2940,-0.6056,
3.068454,0.1575,-1.1564,0.0564,-2.1569,-2.4120,-1.1493,-0.0206,0.2977,-0.5445,
3.077630,0.1575,-1.1564,0.0564,-2.1569,-2.4120,-1.1493,-0.2851,0.3416,-0.4724,
3.078741,0.2596,-1.0078,0.0640,-2.1569,-2.4120,-1.1493,-0.2851,0.3416,-0.4724,
3.079693,0.2596,-1.0078,0.0640,-1.1578,-0.9459,-1.0219,-0.2851,0.3416,-0.4724,
3.087520,0.2596,-1.0078,0.0640,-1.1578,-0.9459,-1.0219,-0.4666,0.3936,-0.4162,
3.097533,0.2596,-1.0078,0.0640,-1.1578,-0.9459,-1.0219,-0.5423,0.4473,-0.3765,
3.098678,0.3445,-0.8994,0.1444,-1.1578,-0.9459,-1.0219,-0.5423,0.4473,-0.3765,
3.099799,0.3445,-0.8994,0.1444,-0.3216,0.1346,-0.1398,-0.5423,0.4473,-0.3765,
3.107619,0.3445,-0.8994,0.1444,-0.3216,0.1346,-0.1398,-0.5209,0.5005,-0.3301,
3.120561,0.3445,-0.8994,0.1444,-0.3216,0.1346,-0.1398,-0.4598,0.5548,-0.2726,
3.122195,0.4026,-0.8465,0.1488,-0.3216,0.1346,-0.1398,-0.4598,0.5548,-0.2726,
3.123967,0.4026,-0.8465,0.1488,0.2429,0.6622,-0.0291,-0.4598,0.5548,-0.2726,
3.128120,0.4026,-0.8465,0.1488,0.2429,0.6622,-0.0291,-0.4201,0.6788,-0.2091,
3.138197,0.4026,-0.8465,0.1488,0.2429,0.6622,-0.0291,-0.4116,0.8212,-0.1431,
3.140071,0.4444,-0.8464,0.1391,0.2429,0.6622,-0.0291,-0.4116,0.8212,-0.1431,
3.141770,0.4444,-0.8464,0.1391,0.6534,0.6684,-0.0963,-0.4116,0.8212,-0.1431,
3.148190,0.4444,-0.8464,0.1391,0.6534,0.6684,-0.0963,-0.4415,0.9171,-0.0857,
3.158082,0.4444,-0.8464,0.1391,0.6534,0.6684,-0.0963,-0.5283,0.9684,-0.0320,
3.159877,0.4433,-0.8530,0.0950,0.6534,0.6684,-0.0963,-0.5283,0.9684,-0.0320,
3.161343,0.4433,-0.8530,0.0950,0.6615,0.6153,-0.5052,-0.5283,0.9684,-0.0320,
3.170812,0.4433,-0.8530,0.0950,0.6615,0.6153,-0.5052,-0.8655,1.1119,0.0383,
3.178323,0.4433,-0.8530,0.0950,0.6615,0.6153,-0.5052,-1.0579,1.2188,0.0517,
3.180316,0.3430,-0.8447,0.1044,0.6615,0.6153,-0.5052,-1.0579,1.2188,0.0517,
3.182243,0.3430,-0.8447,0.1044,-0.2799,0.7276,-0.3221,-1.0579,1.2188,0.0517,
3.188673,0.3430,-0.8447,0.1044,-0.2799,0.7276,-0.3221,-1.2204,1.3331,0.0529,
3.199083,0.3430,-0.8447,0.1044,-0.2799,0.7276,-0.3221,-1.3205,1.4125,0.0584,
3.201786,0.1694,-0.8005,0.1772,-0.2799,0.7276,-0.3221,-1.3205,1.4125,0.0584,
3.204060,0.1694,-0.8005,0.1772,-1.9303,1.1996,0.5204,-1.3205,1.4125,0.0584,
3.209972,0.1694,-0.8005,0.1772,-1.9303,1.1996,0.5204,-1.3346,1.3288,0.0914,
3.222415,0.1694,-0.8005,0.1772,-1.9303,1.1996,0.5204,-1.2582,1.0307,0.1611,
3.225052,0.0176,-0.7356,0.2769,-1.9303,1.1996,0.5204,-1.2582,1.0307,0.1611,
3.228021,0.0176,-0.7356,0.2769,-3.3365,1.8832,1.6228,-1.2582,1.0307,0.1611,
3.230327,0.0176,-0.7356,0.2769,-3.3365,1.8832,1.6228,-1.1171,0.5866,0.2521,
3.239103,0.0176,-0.7356,0.2769,-3.3365,1.8832,1.6228,-0.9406,0.1083,0.3016,
3.242016,0.0526,-0.6651,0.3891,-3.3365,1.8832,1.6228,-0.9406,0.1083,0.3016,
3.245168,0.0526,-0.6651,0.3891,-2.8834,2.6261,2.8148,-0.9406,0.1083,0.3016,
3.248514,0.0526,-0.6651,0.3891,-2.8834,2.6261,2.8148,-0.7860,-0.3340,0.2729,
3.258598,0.0526,-0.6651,0.3891,-2.8834,2.6261,2.8148,-0.7133,-0.6510,0.1953,
3.260806,0.1772,-0.7413,0.3447,-2.8834,2.6261,2.8148,-0.7133,-0.6510,0.1953,
3.263585,0.1772,-0.7413,0.3447,-1.5810,1.9174,2.4607,-0.7133,-0.6510,0.1953,
3.270839,0.1772,-0.7413,0.3447,-1.5810,1.9174,2.4607,-0.7457,-0.7817,0.1482,
3.278571,0.1772,-0.7413,0.3447,-1.5810,1.9174,2.4607,-0.8349,-0.7048,0.1073,
3.280806,0.4217,-0.9043,0.2615,-1.5810,1.9174,2.4607,-0.8349,-0.7048,0.1073,
3.282695,0.4217,-0.9043,0.2615,0.8465,0.3421,1.7530,-0.8349,-0.7048,0.1073,
3.288429,0.4217,-0.9043,0.2615,0.8465,0.3421,1.7530,-0.9223,-0.4403,0.0126,
3.298578,0.4217,-0.9043,0.2615,0.8465,0.3421,1.7530,-1.0218,-0.1183,-0.1315,
3.300551,0.5733,-0.9653,-0.0173,0.8465,0.3421,1.7530,-1.0218,-0.1183,-0.1315,
3.302425,0.5733,-0.9653,-0.0173,2.3092,-0.2512,-0.8257,-1.0218,-0.1183,-0.1315,
3.308292,0.5733,-0.9653,-0.0173,2.3092,-0.2512,-0.8257,-1.2069,0.1126,-0.2629,
3.322263,0.5733,-0.9653,-0.0173,2.3092,-0.2512,-0.8257,-1.4629,0.3325,-0.3185,
3.326977,0.5161,-1.0953,-0.2899,2.3092,-0.2512,-0.8257,-1.4629,0.3325,-0.3185,
3.332277,0.5161,-1.0953,-0.2899,1.6921,-1.5333,-3.2674,-1.4629,0.3325,-0.3185,
3.336439,0.5161,-1.0953,-0.2899,1.6921,-1.5333,-3.2674,-1.6315,0.6074,-0.2867,
3.339273,0.5161,-1.0953,-0.2899,1.6921,-1.5333,-3.2674,-1.6278,0.8871,-0.1987,
3.341597,0.4400,-1.0012,-0.0478,1.6921,-1.5333,-3.2674,-1.6278,0.8871,-0.1987,
3.344146,0.4400,-1.0012,-0.0478,0.9000,-0.6192,-0.6463,-1.6278,0.8871,-0.1987,
3.349683,0.4400,-1.0012,-0.0478,0.9000,-0.6192,-0.6463,-1.2692,1.2066,-0.1578,
3.358298,0.4400,-1.0012,-0.0478,0.9000,-0.6192,-0.6463,-1.0615,1.1968,-0.2391,
3.360814,0.2889,-0.8449,-0.0106,0.9000,-0.6192,-0.6463,-1.0615,1.1968,-0.2391,
3.362226,0.2889,-0.8449,-0.0106,-0.6170,0.9000,-0.1486,-1.0615,1.1968,-0.2391,
3.369493,0.2889,-0.8449,-0.0106,-0.6170,0.9000,-0.1486,-0.8655,1.1089,-0.2745,
3.378060,0.2889,-0.8449,-0.0106,-0.6170,0.9000,-0.1486,-0.6639,0.9708,-0.2317,
3.379490,0.0599,-0.9975,0.1572,-0.6170,0.9000,-0.1486,-0.6639,0.9708,-0.2317,
3.380640,0.0599,-0.9975,0.1572,-2.8927,-0.6068,1.5503,-0.6639,0.9708,-0.2317,
3.388238,0.0599,-0.9975,0.1572,-2.8927,-0.6068,1.5503,-0.3743,0.7717,-0.1028,
3.398185,0.0599,-0.9975,0.1572,-2.8927,-0.6068,1.5503,-0.0054,0.4412,0.0560,
3.399571,-0.0197,-1.1758,0.2519,-2.8927,-0.6068,1.5503,-0.0054,0.4412,0.0560,
3.401493,-0.0197,-1.1758,0.2519,-3.6161,-2.3336,2.4289,-0.0054,0.4412,0.0560,
3.408758,-0.0197,-1.1758,0.2519,-3.6161,-2.3336,2.4289,0.1999,-0.1092,0.1476,
3.420722,-0.0197,-1.1758,0.2519,-3.6161,-2.3336,2.4289,0.1657,-0.7970,0.1104,
3.423210,0.1494,-1.0743,-0.1542,-3.6161,-2.3336,2.4289,0.1657,-0.7970,0.1104,
3.425192,0.1494,-1.0743,-0.1542,-1.8723,-1.3070,-1.5653,0.1657,-0.7970,0.1104,
3.428386,0.1494,-1.0743,-0.1542,-1.8723,-1.3070,-1.5653,0.0582,-1.3883,-0.0246,
3.438273,0.1494,-1.0743,-0.1542,-1.8723,-1.3070,-1.5653,0.0136,-1.7078,-0.1438,
3.440897,0.1947,-0.9015,-0.1540,-1.8723,-1.3070,-1.5653,0.0136,-1.7078,-0.1438,
3.442492,0.1947,-0.9015,-0.1540,-1.3892,0.4010,-1.4634,0.0136,-1.7078,-0.1438,
3.448574,0.1947,-0.9015,-0.1540,-1.3892,0.4010,-1.4634,0.0582,-1.7854,-0.1865,
3.458583,0.1947,-0.9015,-0.1540,-1.3892,0.4010,-1.4634,0.1773,-1.7219,-0.1884,
3.461030,0.2570,-0.8332,-0.1064,-1.3892,0.4010,-1.4634,0.1773,-1.7219,-0.1884,
3.462799,0.2570,-0.8332,-0.1064,-0.7720,1.0714,-0.8934,0.1773,-1.7219,-0.1884,
3.471571,0.2570,-0.8332,-0.1064,-0.7720,1.0714,-0.8934,0.3325,-1.5850,-0.1725,
3.479038,0.2570,-0.8332,-0.1064,-0.7720,1.0714,-0.8934,0.4717,-1.4085,-0.1389,
3.481452,0.3591,-0.8881,-0.1810,-0.7720,1.0714,-0.8934,0.4717,-1.4085,-0.1389,
3.483285,0.3591,-0.8881,-0.1810,0.2247,0.5317,-1.5840,0.4717,-1.4085,-0.1389,
3.489055,0.3591,-0.8881,-0.1810,0.2247,0.5317,-1.5840,0.5463,-1.2136,-0.0918,
3.498876,0.3591,-0.8881,-0.1810,0.2247,0.5317,-1.5840,0.5432,-1.0395,-0.0350,
3.501566,0.4687,-0.9885,-0.2923,0.2247,0.5317,-1.5840,0.5432,-1.0395,-0.0350,
3.504145,0.4687,-0.9885,-0.2923,1.2986,-0.4524,-2.6660,0.5432,-1.0395,-0.0350,
3.510872,0.4687,-0.9885,-0.2923,1.2986,-0.4524,-2.6660,0.4913,-0.9259,0.0206,
3.520896,0.4687,-0.9885,-0.2923,1.2986,-0.4524,-2.6660,0.4204,-0.8642,0.0652,
3.523602,0.5797,-0.9830,-0.2873,1.2986,-0.4524,-2.6660,0.4204,-0.8642,0.0652,
3.525883,0.5797,-0.9830,-0.2873,2.3850,-0.3999,-2.5868,0.4204,-0.8642,0.0652,
3.528843,0.5797,-0.9830,-0.2873,2.3850,-0.3999,-2.5868,0.3489,-0.8312,0.1049,
3.538938,0.5797,-0.9830,-0.2873,2.3850,-0.3999,-2.5868,0.2286,-0.8557,0.1714,
3.541595,0.6029,-0.9396,-0.2452,2.3850,-0.3999,-2.5868,0.2286,-0.8557,0.1714,
3.543977,0.6029,-0.9396,-0.2452,2.6074,0.0214,-2.1084,0.2286,-0.8557,0.1714,
3.548228,0.6029,-0.9396,-0.2452,2.6074,0.0214,-2.1084,0.1889,-0.8990,0.1849,
3.558595,0.6029,-0.9396,-0.2452,2.6074,0.0214,-2.1084,0.1657,-0.9571,0.1849,
3.561011,0.6091,-0.9585,-0.1840,2.6074,0.0214,-2.1084,0.1657,-0.9571,0.1849,
3.563236,0.6091,-0.9585,-0.1840,2.6588,-0.1703,-1.4232,0.1657,-0.9571,0.1849,
3.571091,0.6091,-0.9585,-0.1840,2.6588,-0.1703,-1.4232,0.1681,-1.0408,0.1543,
3.578047,0.6091,-0.9585,-0.1840,2.6588,-0.1703,-1.4232,0.1999,-1.1764,0.1128,
3.580427,0.5779,-0.9662,-0.0837,2.6588,-0.1703,-1.4232,0.1999,-1.1764,0.1128,
3.581956,0.5779,-0.9662,-0.0837,2.3324,-0.2570,-0.3594,0.1999,-1.1764,0.1128,
3.589114,0.5779,-0.9662,-0.0837,2.3324,-0.2570,-0.3594,0.2598,-1.4720,0.0945,
3.598043,0.5779,-0.9662,-0.0837,2.3324,-0.2570,-0.3594,0.3208,-2.0401,0.0835,
3.599725,0.5474,-0.9521,0.0035,2.3324,-0.2570,-0.3594,0.3208,-2.0401,0.0835,
3.603139,0.5474,-0.9521,0.0035,2.0122,-0.1303,0.5787,0.3208,-2.0401,0.0835,
3.610109,0.5474,-0.9521,0.0035,2.0122,-0.1303,0.5787,0.3563,-2.5765,0.0548,
3.619649,0.5474,-0.9521,0.0035,2.0122,-0.1303,0.5787,0.3929,-2.7738,0.0285,
3.621081,0.4847,-0.9831,0.0021,2.0122,-0.1303,0.5787,0.3929,-2.7738,0.0285,
3.622184,0.4847,-0.9831,0.0021,1.3947,-0.4431,0.6799,0.3929,-2.7738,0.0285,
3.627856,0.4847,-0.9831,0.0021,1.3947,-0.4431,0.6799,0.4601,-2.6626,0.0175,
3.637562,0.4847,-0.9831,0.0021,1.3947,-0.4431,0.6799,0.5646,-2.4360,0.0310,
3.638766,0.4240,-0.9424,0.0591,1.3947,-0.4431,0.6799,0.5646,-2.4360,0.0310,
3.639566,0.4240,-0.9424,0.0591,0.8033,-0.0481,1.3034,0.5646,-2.4360,0.0310,
3.647598,0.4240,-0.9424,0.0591,0.8033,-0.0481,1.3034,0.7057,-2.3205,0.0700,
3.657566,0.4240,-0.9424,0.0591,0.8033,-0.0481,1.3034,0.8590,-2.3944,0.1214,
3.658811,0.4269,-0.8396,0.0976,0.8033,-0.0481,1.3034,0.8590,-2.3944,0.1214,
3.659601,0.4269,-0.8396,0.0976,0.8438,0.9650,1.6707,0.8590,-2.3944,0.1214,
3.669006,0.4269,-0.8396,0.0976,0.8438,0.9650,1.6707,1.0007,-2.5178,0.1562,
3.677750,0.4269,-0.8396,0.0976,0.8438,0.9650,1.6707,1.1217,-2.5264,0.1818,
3.678695,0.4705,-0.7682,0.0436,0.8438,0.9650,1.6707,1.1217,-2.5264,0.1818,
3.679507,0.4705,-0.7682,0.0436,1.2838,1.6729,1.0839,1.1217,-2.5264,0.1818,
3.687722,0.4705,-0.7682,0.0436,1.2838,1.6729,1.0839,1.2164,-2.4299,0.1898,
3.697760,0.4705,-0.7682,0.0436,1.2838,1.6729,1.0839,1.2848,-2.2778,0.1666,
3.698984,0.5448,-0.7246,0.0524,1.2838,1.6729,1.0839,1.2848,-2.2778,0.1666,
3.700045,0.5448,-0.7246,0.0524,2.0032,2.1042,1.0639,1.2848,-2.2778,0.1666,
3.708214,0.5448,-0.7246,0.0524,2.0032,2.1042,1.0639,1.3349,-2.1330,0.1165,
3.720760,0.5448,-0.7246,0.0524,2.0032,2.1042,1.0639,1.3764,-2.2863,-0.0222,
3.722865,0.5718,-0.6188,0.2696,2.0032,2.1042,1.0639,1.3764,-2.2863,-0.0222,
3.724554,0.5718,-0.6188,0.2696,2.2101,3.1279,3.0345,1.3764,-2.2863,-0.0222,
3.728448,0.5718,-0.6188,0.2696,2.2101,3.1279,3.0345,1.5969,-2.6217,-0.0882,
3.738154,0.5718,-0.6188,0.2696,2.2101,3.1279,3.0345,1.8608,-2.7768,-0.1438,
3.740520,0.4258,-0.5803,0.4675,2.2101,3.1279,3.0345,1.8608,-2.7768,-0.1438,
3.741949,0.4258,-0.5803,0.4675,0.6887,3.4779,4.7436,1.8608,-2.7768,-0.1438,
3.748563,0.4258,-0.5803,0.4675,0.6887,3.4779,4.7436,2.0869,-2.4531,-0.1914,
3.758998,0.4258,-0.5803,0.4675,0.6887,3.4779,4.7436,2.1644,-1.7744,-0.2329,
3.762261,0.3677,-0.6396,0.2257,0.6887,3.4779,4.7436,2.1644,-1.7744,-0.2329,
3.765229,0.3677,-0.6396,0.2257,0.0082,2.8544,2.0436,2.1644,-1.7744,-0.2329,
3.771290,0.3677,-0.6396,0.2257,0.0082,2.8544,2.0436,2.1143,-1.0585,-0.2843,
3.778464,0.3677,-0.6396,0.2257,0.0082,2.8544,2.0436,1.9818,-0.6028,-0.3722,
3.780559,0.5193,-0.8007,0.0766,0.0082,2.8544,2.0436,1.9818,-0.6028,-0.3722,
3.782349,0.5193,-0.8007,0.0766,1.3611,1.2076,0.2132,1.9818,-0.6028,-0.3722,
3.788496,0.5193,-0.8007,0.0766,1.3611,1.2076,0.2132,1.7521,-0.4562,-0.5060,
3.798483,0.5193,-0.8007,0.0766,1.3611,1.2076,0.2132,1.4033,-0.4586,-0.6789,
3.801691,0.6565,-0.9817,-0.1557,1.3611,1.2076,0.2132,1.4033,-0.4586,-0.6789,
3.803994,0.6565,-0.9817,-0.1557,2.5290,-0.6598,-2.3151,1.4033,-0.4586,-0.6789,
3.808965,0.6565,-0.9817,-0.1557,2.5290,-0.6598,-2.3151,0.9610,-0.4336,-0.8585,
3.822265,0.6565,-0.9817,-0.1557,2.5290,-0.6598,-2.3151,0.4778,-0.2558,-1.0094,
3.825085,0.6651,-1.1506,-0.2491,2.5290,-0.6598,-2.3151,0.4778,-0.2558,-1.0094,
3.827178,0.6651,-1.1506,-0.2491,2.3957,-2.4184,-3.2934,0.4778,-0.2558,-1.0094,
3.829707,0.6651,-1.1506,-0.2491,2.3957,-2.4184,-3.2934,0.0179,0.0918,-1.0851,
3.839016,0.6651,-1.1506,-0.2491,2.3957,-2.4184,-3.2934,-0.3572,0.5432,-1.0539,
3.842155,0.5735,-1.2136,-0.1792,2.3957,-2.4184,-3.2934,-0.3572,0.5432,-1.0539,
3.844318,0.5735,-1.2136,-0.1792,1.2929,-3.1296,-2.5584,-0.3572,0.5432,-1.0539,
3.848653,0.5735,-1.2136,-0.1792,1.2929,-3.1296,-2.5584,-0.6022,0.9537,-0.9397,
3.858614,0.5735,-1.2136,-0.1792,1.2929,-3.1296,-2.5584,-0.6969,1.1920,-0.8163,
3.861143,0.6334,-1.2388,0.0501,1.2929,-3.1296,-2.5584,-0.6969,1.1920,-0.8163,
3.863139,0.6334,-1.2388,0.0501,1.7347,-3.4452,-0.2660,-0.6969,1.1920,-0.8163,
3.869051,0.6334,-1.2388,0.0501,1.7347,-3.4452,-0.2660,-0.6266,1.1859,-0.7216,
3.879117,0.6334,-1.2388,0.0501,1.7347,-3.4452,-0.2660,-0.4281,0.9684,-0.6605,
3.882277,0.5367,-1.0983,0.2685,1.7347,-3.4452,-0.2660,-0.4281,0.9684,-0.6605,
3.884804,0.5367,-1.0983,0.2685,0.6835,-2.1232,1.8720,-0.4281,0.9684,-0.6605,
3.890659,0.5367,-1.0983,0.2685,0.6835,-2.1232,1.8720,-0.2576,0.8316,-0.5921,
3.898932,0.5367,-1.0983,0.2685,0.6835,-2.1232,1.8720,-0.2247,0.8975,-0.4846,
3.902453,0.2446,-1.0167,0.0829,0.6835,-2.1232,1.8720,-0.2247,0.8975,-0.4846,
3.905037,0.2446,-1.0167,0.0829,-2.2485,-1.3632,0.0206,-0.2247,0.8975,-0.4846,
3.910367,0.2446,-1.0167,0.0829,-2.2485,-1.3632,0.0206,-0.5612,1.3679,-0.2653,
3.918857,0.2446,-1.0167,0.0829,-2.2485,-1.3632,0.0206,-0.8276,1.6012,-0.2513,
3.921468,0.3365,-0.9898,0.0470,-2.2485,-1.3632,0.0206,-0.8276,1.6012,-0.2513,
3.923992,0.3365,-0.9898,0.0470,-1.3481,-1.1014,-0.3428,-0.8276,1.6012,-0.2513,
3.928533,0.3365,-0.9898,0.0470,-1.3481,-1.1014,-0.3428,-1.0676,1.7692,-0.2940,
3.938518,0.3365,-0.9898,0.0470,-1.3481,-1.1014,-0.3428,-1.2546,1.8535,-0.2977,
3.941748,0.4055,-0.9771,-0.0123,-1.3481,-1.1014,-0.3428,-1.2546,1.8535,-0.2977,
3.943633,0.4055,-0.9771,-0.0123,-0.6726,-0.9735,-0.8826,-1.2546,1.8535,-0.2977,
3.948473,0.4055,-0.9771,-0.0123,-0.6726,-0.9735,-0.8826,-1.3969,1.9336,-0.2311,
3.958252,0.4055,-0.9771,-0.0123,-0.6726,-0.9735,-0.8826,-1.5069,2.0741,-0.1315,
3.960563,0.3792,-0.9157,-0.1027,-0.6726,-0.9735,-0.8826,-1.5069,2.0741,-0.1315,
3.962219,0.3792,-0.9157,-0.1027,-0.9098,-0.3529,-1.6849,-1.5069,2.0741,-0.1315,
3.971232,0.3792,-0.9157,-0.1027,-0.9098,-0.3529,-1.6849,-1.5783,2.3031,-0.0234,
3.978761,0.3792,-0.9157,-0.1027,-0.9098,-0.3529,-1.6849,-1.6089,2.6208,0.0762,
3.981180,0.2852,-0.7560,-0.1270,-0.9098,-0.3529,-1.6849,-1.6089,2.6208,0.0762,
3.983156,0.2852,-0.7560,-0.1270,-1.7670,1.2513,-1.8433,-1.6089,2.6208,0.0762,
3.989074,0.2852,-0.7560,-0.1270,-1.7670,1.2513,-1.8433,-1.6254,2.9659,0.1574,
3.998943,0.2852,-0.7560,-0.1270,-1.7670,1.2513,-1.8433,-1.6541,3.2915,0.1879,
4.002660,0.2057,-0.6787,-0.1518,-1.7670,1.2513,-1.8433,-1.6541,3.2915,0.1879,
4.005643,0.2057,-0.6787,-0.1518,-2.4439,2.0657,-2.0340,-1.6541,3.2915,0.1879,
4.008639,0.2057,-0.6787,-0.1518,-2.4439,2.0657,-2.0340,-1.6987,3.6037,0.1812,
4.018897,0.2057,-0.6787,-0.1518,-2.4439,2.0657,-2.0340,-1.7408,3.8779,0.1953,
4.021901,0.0441,-0.7526,-0.1485,-2.4439,2.0657,-2.0340,-1.7408,3.8779,0.1953,
4.023678,0.0441,-0.7526,-0.1485,-3.8958,1.4096,-1.9691,-1.7408,3.8779,0.1953,
4.028456,0.0441,-0.7526,-0.1485,-3.8958,1.4096,-1.9691,-1.7188,3.9714,0.2649,
4.038074,0.0441,-0.7526,-0.1485,-3.8958,1.4096,-1.9691,-1.5869,3.8602,0.3828,
4.040651,-0.0952,-0.9624,0.0142,-3.8958,1.4096,-1.9691,-1.5869,3.8602,0.3828,
4.042091,-0.0952,-0.9624,0.0142,-5.0689,-0.5549,-0.3697,-1.5869,3.8602,0.3828,
4.048716,-0.0952,-0.9624,0.0142,-5.0689,-0.5549,-0.3697,-1.1403,3.5951,0.5264,
4.058951,-0.0952,-0.9624,0.0142,-5.0689,-0.5549,-0.3697,0.6171,3.4320,0.7817,
4.061871,-0.3937,-1.0949,1.5983,-5.0689,-0.5549,-0.3697,0.6171,3.4320,0.7817,
4.063883,-0.3937,-1.0949,1.5983,-7.6955,-1.7477,14.7845,0.6171,3.4320,0.7817,
4.068262,-0.3937,-1.0949,1.5983,-7.6955,-1.7477,14.7845,2.1993,2.6501,0.9295,
4.077638,-0.3937,-1.0949,1.5983,-7.6955,-1.7477,14.7845,2.1577,1.2292,0.7469,
4.079250,-0.2255,-0.8788,-0.8856,-7.6955,-1.7477,14.7845,2.1577,1.2292,0.7469,
4.080373,-0.2255,-0.8788,-0.8856,-5.6937,0.4503,-10.0606,2.1577,1.2292,0.7469,
4.095747,-0.2255,-0.8788,-0.8856,-5.6937,0.4503,-10.0606,1.4540,-0.2100,0.4787,
4.097551,-0.2255,-0.8788,-0.8856,-5.6937,0.4503,-10.0606,0.1620,-2.1067,0.2863,
4.098665,-0.2347,-1.0530,-0.7126,-5.6937,0.4503,-10.0606,0.1620,-2.1067,0.2863,
4.099725,-0.2347,-1.0530,-0.7126,-5.5821,-1.1740,-8.3120,0.1620,-2.1067,0.2863,
4.108501,-0.2347,-1.0530,-0.7126,-5.5821,-1.1740,-8.3120,-0.2864,-2.2075,0.2881,
4.117803,-0.2347,-1.0530,-0.7126,-5.5821,-1.1740,-8.3120,-0.5057,-1.7365,0.2863,
4.118814,0.0292,-0.9711,-0.3029,-5.5821,-1.1740,-8.3120,-0.5057,-1.7365,0.2863,
4.119721,0.0292,-0.9711,-0.3029,-2.8459,-0.2780,-3.9705,-0.5057,-1.7365,0.2863,
4.127566,0.0292,-0.9711,-0.3029,-2.8459,-0.2780,-3.9705,-0.4604,-0.8813,0.2118,
4.137638,0.0292,-0.9711,-0.3029,-2.8459,-0.2780,-3.9705,-0.2790,0.1211,0.0383,
4.138727,0.3672,-0.9210,-0.1466,-2.8459,-0.2780,-3.9705,-0.2790,0.1211,0.0383,
4.139607,0.3672,-0.9210,-0.1466,0.5790,0.2699,-2.2345,-0.2790,0.1211,0.0383,
4.147682,0.3672,-0.9210,-0.1466,0.5790,0.2699,-2.2345,-0.0793,1.0368,-0.2122,
4.157596,0.3672,-0.9210,-0.1466,0.5790,0.2699,-2.2345,0.0942,1.6874,-0.4871,
4.158906,0.5795,-1.0163,-0.1479,0.5790,0.2699,-2.2345,0.0942,1.6874,-0.4871,
4.159715,0.5795,-1.0163,-0.1479,2.6588,-0.6624,-2.2278,0.0942,1.6874,-0.4871,
4.167819,0.5795,-1.0163,-0.1479,2.6588,-0.6624,-2.2278,0.2152,2.0417,-0.7308,
4.177639,0.5795,-1.0163,-0.1479,2.6588,-0.6624,-2.2278,0.2830,2.1467,-0.8682,
4.178893,0.6106,-1.1911,-0.1460,2.6588,-0.6624,-2.2278,0.2830,2.1467,-0.8682,
4.179651,0.6106,-1.1911,-0.1460,2.8617,-2.4161,-2.2854,0.2830,2.1467,-0.8682,
4.187629,0.6106,-1.1911,-0.1460,2.8617,-2.4161,-2.2854,0.3361,2.0490,-0.8469,
4.197789,0.6106,-1.1911,-0.1460,2.8617,-2.4161,-2.2854,0.4027,1.7778,-0.7113,
4.198792,0.6113,-1.2335,-0.0501,2.8617,-2.4161,-2.2854,0.4027,1.7778,-0.7113,
4.199506,0.6113,-1.2335,-0.0501,2.7538,-2.8808,-1.4482,0.4027,1.7778,-0.7113,
4.208072,0.6113,-1.2335,-0.0501,2.7538,-2.8808,-1.4482,0.4589,1.3948,-0.5200,
4.218439,0.6113,-1.2335,-0.0501,2.7538,-2.8808,-1.4482,0.4607,0.4296,-0.2885,
4.220150,0.5624,-0.9968,0.0899,2.7538,-2.8808,-1.4482,0.4607,0.4296,-0.2885,
4.221555,0.5624,-0.9968,0.0899,2.1991,-0.5960,-0.1515,0.4607,0.4296,-0.2885,
4.228484,0.5624,-0.9968,0.0899,2.1991,-0.5960,-0.1515,0.3477,-1.7304,-0.0515,
4.238030,0.5624,-0.9968,0.0899,2.1991,-0.5960,-0.1515,0.2084,-3.0157,0.0749,
4.240234,0.5502,-0.8751,0.0656,2.1991,-0.5960,-0.1515,0.2084,-3.0157,0.0749,
4.241602,0.5502,-0.8751,0.0656,2.0060,0.5853,-0.2388,0.2084,-3.0157,0.0749,
4.248320,0.5502,-0.8751,0.0656,2.0060,0.5853,-0.2388,0.1028,-2.8288,0.0768,
4.258213,0.5502,-0.8751,0.0656,2.0060,0.5853,-0.2388,0.0050,-2.0994,0.0047,
4.260461,0.4873,-0.9589,-0.0373,2.0060,0.5853,-0.2388,0.0050,-2.0994,0.0047,
4.262946,0.4873,-0.9589,-0.0373,1.3304,-0.2415,-1.0551,0.0050,-2.0994,0.0047,
4.268662,0.4873,-0.9589,-0.0373,1.3304,-0.2415,-1.0551,-0.0945,-1.2240,-0.1010,
4.278263,0.4873,-0.9589,-0.0373,1.3304,-0.2415,-1.0551,-0.2583,0.2451,-0.2470,
4.280580,0.4482,-1.0538,-0.0988,1.3304,-0.2415,-1.0551,-0.2583,0.2451,-0.2470,
4.282002,0.4482,-1.0538,-0.0988,0.8886,-1.1870,-1.5584,-0.2583,0.2451,-0.2470,
4.288416,0.4482,-1.0538,-0.0988,0.8886,-1.1870,-1.5584,-0.2796,0.6868,-0.2500,
4.298544,0.4482,-1.0538,-0.0988,0.8886,-1.1870,-1.5584,-0.2485,0.9195,-0.2146,
4.300629,0.4433,-1.0834,-0.1024,0.8886,-1.1870,-1.5584,-0.2485,0.9195,-0.2146,
4.303308,0.4433,-1.0834,-0.1024,0.7928,-1.4934,-1.5652,-0.2485,0.9195,-0.2146,
4.308686,0.4433,-1.0834,-0.1024,0.7928,-1.4934,-1.5652,-0.1782,0.9702,-0.1651,
4.318672,0.4433,-1.0834,-0.1024,0.7928,-1.4934,-1.5652,-0.0878,0.8633,-0.1236,
4.320999,0.4175,-1.0738,-0.1029,0.7928,-1.4934,-1.5652,-0.0878,0.8633,-0.1236,
4.323332,0.4175,-1.0738,-0.1029,0.5141,-1.4103,-1.5713,-0.0878,0.8633,-0.1236,
4.328836,0.4175,-1.0738,-0.1029,0.5141,-1.4103,-1.5713,0.0044,0.6373,-0.0931,
4.339227,0.4175,-1.0738,-0.1029,0.5141,-1.4103,-1.5713,0.0887,0.3374,-0.0546,
4.342313,0.3180,-1.0068,-0.0696,0.5141,-1.4103,-1.5713,0.0887,0.3374,-0.0546,
4.344470,0.3180,-1.0068,-0.0696,-0.4716,-0.7574,-1.2503,0.0887,0.3374,-0.0546,
4.348686,0.3180,-1.0068,-0.0696,-0.4716,-0.7574,-1.2503,0.1663,-0.0395,-0.0100,
4.358534,0.3180,-1.0068,-0.0696,-0.4716,-0.7574,-1.2503,0.2304,-0.5484,0.0236,
4.361279,0.2244,-0.9031,0.0503,-0.4716,-0.7574,-1.2503,0.2304,-0.5484,0.0236,
4.363142,0.2244,-0.9031,0.0503,-1.3849,0.2610,-0.0659,0.2304,-0.5484,0.0236,
4.368989,0.2244,-0.9031,0.0503,-1.3849,0.2610,-0.0659,0.2720,-1.1758,0.0401,
4.378495,0.2244,-0.9031,0.0503,-1.3849,0.2610,-0.0659,0.3196,-1.7243,0.0536,
4.381352,0.1472,-0.8517,0.2127,-1.3849,0.2610,-0.0659,0.3196,-1.7243,0.0536,
4.383174,0.1472,-0.8517,0.2127,-2.1365,0.7701,1.5796,0.3196,-1.7243,0.0536,
4.388936,0.1472,-0.8517,0.2127,-2.1365,0.7701,1.5796,0.4363,-1.9815,0.0786,
4.398588,0.1472,-0.8517,0.2127,-2.1365,0.7701,1.5796,0.6599,-1.8715,0.1214,
4.400831,0.0765,-0.9113,0.3875,-2.1365,0.7701,1.5796,0.6599,-1.8715,0.1214,
4.403370,0.0765,-0.9113,0.3875,-2.7902,0.2018,3.3026,0.6599,-1.8715,0.1214,
4.408696,0.0765,-0.9113,0.3875,-2.7902,0.2018,3.3026,0.9519,-1.4629,0.1794,
4.418813,0.0765,-0.9113,0.3875,-2.7902,0.2018,3.3026,1.2023,-0.9296,0.2338,
4.421445,0.0719,-0.9903,0.2135,-2.7902,0.2018,3.3026,1.2023,-0.9296,0.2338,
4.424031,0.0719,-0.9903,0.2135,-2.7484,-0.5490,1.4497,1.2023,-0.9296,0.2338,
4.429164,0.0719,-0.9903,0.2135,-2.7484,-0.5490,1.4497,1.3184,-0.4604,0.2674,
4.439165,0.0719,-0.9903,0.2135,-2.7484,-0.5490,1.4497,1.3025,-0.1904,0.2661,
4.442040,0.1389,-0.9892,-0.0688,-2.7484,-0.5490,1.4497,1.3025,-0.1904,0.2661,
4.444221,0.1389,-0.9892,-0.0688,-1.9856,-0.5166,-1.5365,1.3025,-0.1904,0.2661,
4.448603,0.1389,-0.9892,-0.0688,-1.9856,-0.5166,-1.5365,1.2097,-0.1947,0.2417,
4.458682,0.1389,-0.9892,-0.0688,-1.9856,-0.5166,-1.5365,1.1119,-0.4806,0.2069,
4.461258,0.1973,-0.8734,-0.0586,-1.9856,-0.5166,-1.5365,1.1119,-0.4806,0.2069,
4.463346,0.1973,-0.8734,-0.0586,-1.3266,0.6318,-1.6073,1.1119,-0.4806,0.2069,
4.468957,0.1973,-0.8734,-0.0586,-1.3266,0.6318,-1.6073,1.0899,-1.4568,0.2191,
4.478625,0.1973,-0.8734,-0.0586,-1.3266,0.6318,-1.6073,1.1791,-1.8111,0.2393,
4.481523,0.2426,-0.8502,0.0418,-1.3266,0.6318,-1.6073,1.1791,-1.8111,0.2393,
4.483908,0.2426,-0.8502,0.0418,-0.8384,0.8653,-0.7046,1.1791,-1.8111,0.2393,
4.489328,0.2426,-0.8502,0.0418,-0.8384,0.8653,-0.7046,1.3269,-2.0035,0.2356,
4.498526,0.2426,-0.8502,0.0418,-0.8384,0.8653,-0.7046,1.5243,-2.0468,0.2081,
4.500737,0.2756,-0.7876,0.2168,-0.8384,0.8653,-0.7046,1.5243,-2.0468,0.2081,
4.503271,0.2756,-0.7876,0.2168,-0.5023,1.4666,0.8848,1.5243,-2.0468,0.2081,
4.508701,0.2756,-0.7876,0.2168,-0.5023,1.4666,0.8848,1.7741,-1.9986,0.1714,
4.518803,0.2756,-0.7876,0.2168,-0.5023,1.4666,0.8848,2.0136,-1.9125,0.1214,
4.521234,0.3036,-0.6861,0.1749,-0.5023,1.4666,0.8848,2.0136,-1.9125,0.1214,
4.523393,0.3036,-0.6861,0.1749,-0.2464,2.4227,0.2551,2.0136,-1.9125,0.1214,
4.528607,0.3036,-0.6861,0.1749,-0.2464,2.4227,0.2551,2.1021,-1.7897,0.0652,
4.538980,0.3036,-0.6861,0.1749,-0.2464,2.4227,0.2551,1.9629,-1.6504,0.0163,
4.541981,0.3150,-0.6850,-0.1595,-0.2464,2.4227,0.2551,1.9629,-1.6504,0.0163,
4.544448,0.3150,-0.6850,-0.1595,-0.1768,2.3801,-3.2441,1.9629,-1.6504,0.0163,
4.548473,0.3150,-0.6850,-0.1595,-0.1768,2.3801,-3.2441,1.6250,-1.5252,-0.0033,
4.558698,0.3150,-0.6850,-0.1595,-0.1768,2.3801,-3.2441,1.1706,-1.4256,0.0212,
4.561416,0.3484,-0.7219,-0.3125,-0.1768,2.3801,-3.2441,1.1706,-1.4256,0.0212,
4.563522,0.3484,-0.7219,-0.3125,0.0914,1.9864,-4.8008,1.1706,-1.4256,0.0212,
4.568903,0.3484,-0.7219,-0.3125,0.0914,1.9864,-4.8008,0.6745,-1.2973,0.0664,
4.580900,0.3484,-0.7219,-0.3125,0.0914,1.9864,-4.8008,0.1981,-1.0414,0.1152,
4.583808,0.4399,-0.7980,-0.2806,0.0914,1.9864,-4.8008,0.1981,-1.0414,0.1152,
4.585463,0.4399,-0.7980,-0.2806,0.9395,1.2451,-4.3675,0.1981,-1.0414,0.1152,
4.590536,0.4399,-0.7980,-0.2806,0.9395,1.2451,-4.3675,-0.2198,-0.6620,0.1800,
4.598508,0.4399,-0.7980,-0.2806,0.9395,1.2451,-4.3675,-0.5362,-0.2759,0.2771,
4.600194,0.5111,-0.9777,-0.1488,0.9395,1.2451,-4.3675,-0.5362,-0.2759,0.2771,
4.603429,0.5111,-0.9777,-0.1488,1.6312,-0.4826,-2.8619,-0.5362,-0.2759,0.2771,
4.608487,0.5111,-0.9777,-0.1488,1.6312,-0.4826,-2.8619,-0.7439,0.0252,0.3901,
4.619281,0.5111,-0.9777,-0.1488,1.6312,-0.4826,-2.8619,-0.8563,0.2182,0.4848,
4.620756,0.5547,-1.0378,-0.0186,1.6312,-0.4826,-2.8619,-0.8563,0.2182,0.4848,
4.622610,0.5547,-1.0378,-0.0186,2.1000,-1.0244,-1.3601,-0.8563,0.2182,0.4848,
4.628703,0.5547,-1.0378,-0.0186,2.1000,-1.0244,-1.3601,-0.9009,0.2781,0.5380,
4.642329,0.5547,-1.0378,-0.0186,2.1000,-1.0244,-1.3601,-0.9021,0.2335,0.5520,
4.644399,0.4297,-0.9507,0.2062,2.1000,-1.0244,-1.3601,-0.9021,0.2335,0.5520,
4.645547,0.4297,-0.9507,0.2062,0.9442,-0.1236,1.0327,-0.9021,0.2335,0.5520,
4.648769,0.4297,-0.9507,0.2062,0.9442,-0.1236,1.0327,-0.7750,-0.2686,0.5068,
4.657655,0.4297,-0.9507,0.2062,0.9442,-0.1236,1.0327,-0.6626,-0.8257,0.4830,
4.658881,0.2802,-0.9849,0.3578,0.9442,-0.1236,1.0327,-0.6626,-0.8257,0.4830,
4.659779,0.2802,-0.9849,0.3578,-0.4496,-0.4174,2.6851,-0.6626,-0.8257,0.4830,
4.667653,0.2802,-0.9849,0.3578,-0.4496,-0.4174,2.6851,-0.5643,-1.5282,0.4983,
4.677811,0.2802,-0.9849,0.3578,-0.4496,-0.4174,2.6851,-0.5588,-2.0743,0.5520,
4.679133,0.1477,-0.9963,0.2353,-0.4496,-0.4174,2.6851,-0.5588,-2.0743,0.5520,
4.680069,0.1477,-0.9963,0.2353,-1.6770,-0.4883,1.6907,-0.5588,-2.0743,0.5520,
4.687646,0.1477,-0.9963,0.2353,-1.6770,-0.4883,1.6907,-0.7146,-2.2533,0.6302,
4.697900,0.1477,-0.9963,0.2353,-1.6770,-0.4883,1.6907,-0.9724,-2.1745,0.6937,
4.699062,0.1092,-0.9595,0.1074,-1.6770,-0.4883,1.6907,-0.9724,-2.1745,0.6937,
4.699948,0.1092,-0.9595,0.1074,-1.9419,-0.0770,0.7083,-0.9724,-2.1745,0.6937,
4.707617,0.1092,-0.9595,0.1074,-1.9419,-0.0770,0.7083,-1.2534,-1.8373,0.7328,
4.717678,0.1092,-0.9595,0.1074,-1.9419,-0.0770,0.7083,-1.5319,-1.2283,0.7738,
4.718924,0.0672,-0.9554,0.0046,-1.9419,-0.0770,0.7083,-1.5319,-1.2283,0.7738,
4.720155,0.0672,-0.9554,0.0046,-2.1964,0.0194,0.0256,-1.5319,-1.2283,0.7738,
4.727689,0.0672,-0.9554,0.0046,-2.1964,0.0194,0.0256,-1.8001,-0.4000,0.8458,
4.737619,0.0672,-0.9554,0.0046,-2.1964,0.0194,0.0256,-2.0249,0.5096,0.9387,
4.739080,0.0606,-0.9357,-0.0663,-2.1964,0.0194,0.0256,-2.0249,0.5096,0.9387,
4.740295,0.0606,-0.9357,-0.0663,-2.0648,0.2645,-0.3388,-2.0249,0.5096,0.9387,
4.747778,0.0606,-0.9357,-0.0663,-2.0648,0.2645,-0.3388,-2.1861,1.3581,1.0114,
4.759330,0.0606,-0.9357,-0.0663,-2.0648,0.2645,-0.3388,-2.2863,2.0496,1.0474,
4.762318,0.1066,-0.8766,-0.1116,-2.0648,0.2645,-0.3388,-2.2863,2.0496,1.0474,
4.764993,0.1066,-0.8766,-0.1116,-1.4105,0.8830,-0.4659,-2.2863,2.0496,1.0474,
4.768952,0.1066,-0.8766,-0.1116,-1.4105,0.8830,-0.4659,-2.3114,2.4540,1.0401,
4.779182,0.1066,-0.8766,-0.1116,-1.4105,0.8830,-0.4659,-2.2472,2.4870,0.9778,
4.782467,0.2030,-0.8961,-0.1490,-1.4105,0.8830,-0.4659,-2.2472,2.4870,0.9778,
4.784928,0.2030,-0.8961,-0.1490,-0.3018,0.7076,-0.5283,-2.2472,2.4870,0.9778,
4.789640,0.2030,-0.8961,-0.1490,-0.3018,0.7076,-0.5283,-2.0927,2.1199,0.8660,
4.798613,0.2030,-0.8961,-0.1490,-0.3018,0.7076,-0.5283,-1.8691,1.3581,0.7414,
4.800812,0.2402,-0.9854,-0.2416,-0.3018,0.7076,-0.5283,-1.8691,1.3581,0.7414,
4.803042,0.2402,-0.9854,-0.2416,0.1806,-0.1730,-1.1419,-1.8691,1.3581,0.7414,
4.809071,0.2402,-0.9854,-0.2416,0.1806,-0.1730,-1.1419,-1.6107,0.3001,0.6107,
4.818263,0.2402,-0.9854,-0.2416,0.1806,-0.1730,-1.1419,-1.3615,-0.7420,0.4390,
4.820872,0.3362,-1.0653,-0.1192,0.1806,-0.1730,-1.1419,-1.3615,-0.7420,0.4390,
4.822883,0.3362,-1.0653,-0.1192,1.2254,-0.9734,0.3402,-1.3615,-0.7420,0.4390,
4.828445,0.3362,-1.0653,-0.1192,1.2254,-0.9734,0.3402,-1.1513,-1.6321,0.1055,
4.839466,0.3362,-1.0653,-0.1192,1.2254,-0.9734,0.3402,-0.8038,-1.7353,-0.0039,
4.842473,0.5033,-1.1358,0.0602,1.2254,-0.9734,0.3402,-0.8038,-1.7353,-0.0039,
4.844298,0.5033,-1.1358,0.0602,2.8995,-1.6922,2.3090,-0.8038,-1.7353,-0.0039,
4.848476,0.5033,-1.1358,0.0602,2.8995,-1.6922,2.3090,-0.6119,-2.0151,-0.1077,
4.858239,0.5033,-1.1358,0.0602,2.8995,-1.6922,2.3090,-0.3639,-2.5630,-0.2250,
4.860580,0.7249,-1.2080,0.3723,2.8995,-1.6922,2.3090,-0.3639,-2.5630,-0.2250,
4.862333,0.7249,-1.2080,0.3723,5.0554,-2.4197,5.4569,-0.3639,-2.5630,-0.2250,
4.868316,0.7249,-1.2080,0.3723,5.0554,-2.4197,5.4569,-0.0542,-2.9412,-0.3142,
4.878275,0.7249,-1.2080,0.3723,5.0554,-2.4197,5.4569,0.2866,-2.8874,-0.3221,
4.880538,0.6944,-1.0664,0.4411,5.0554,-2.4197,5.4569,0.2866,-2.8874,-0.3221,
4.882042,0.6944,-1.0664,0.4411,4.7152,-1.0356,6.0997,0.2866,-2.8874,-0.3221,
4.888420,0.6944,-1.0664,0.4411,4.7152,-1.0356,6.0997,0.6159,-2.4543,-0.2647,
4.898425,0.6944,-1.0664,0.4411,4.7152,-1.0356,6.0997,0.8590,-1.7359,-0.1957,
4.900524,0.5844,-0.7865,0.1834,4.7152,-1.0356,6.0997,0.8590,-1.7359,-0.1957,
4.902637,0.5844,-0.7865,0.1834,3.5604,1.7214,3.3969,0.8590,-1.7359,-0.1957,
4.908354,0.5844,-0.7865,0.1834,3.5604,1.7214,3.3969,0.9378,-0.9082,-0.1389,
4.918590,0.5844,-0.7865,0.1834,3.5604,1.7214,3.3969,0.8456,-0.2210,-0.1108,
4.920796,0.4890,-0.6566,-0.1200,3.5604,1.7214,3.3969,0.8456,-0.2210,-0.1108,
4.922484,0.4890,-0.6566,-0.1200,2.5057,3.0037,0.1903,0.8456,-0.2210,-0.1108,
4.928489,0.4890,-0.6566,-0.1200,2.5057,3.0037,0.1903,0.6568,0.1462,-0.1499,
4.938999,0.4890,-0.6566,-0.1200,2.5057,3.0037,0.1903,0.4644,0.2079,-0.2586,
4.941065,0.5275,-0.8573,-0.1123,2.5057,3.0037,0.1903,0.4644,0.2079,-0.2586,
4.943155,0.5275,-0.8573,-0.1123,2.7299,1.0223,0.0900,0.4644,0.2079,-0.2586,
4.948475,0.5275,-0.8573,-0.1123,2.7299,1.0223,0.0900,0.3318,0.0674,-0.3441,
4.958442,0.5275,-0.8573,-0.1123,2.7299,1.0223,0.0900,0.2744,-0.0829,-0.3557,
4.961016,0.5871,-1.0028,-0.0739,2.7299,1.0223,0.0900,0.2744,-0.0829,-0.3557,
4.963277,0.5871,-1.0028,-0.0739,3.1461,-0.4360,0.3633,0.2744,-0.0829,-0.3557,
4.968547,0.5871,-1.0028,-0.0739,3.1461,-0.4360,0.3633,0.2927,-0.1183,-0.3264,
4.979285,0.5871,-1.0028,-0.0739,3.1461,-0.4360,0.3633,0.3777,-0.0878,-0.2983,
4.982022,0.6335,-1.0128,-0.0217,3.1461,-0.4360,0.3633,0.3777,-0.0878,-0.2983,
4.984757,0.6335,-1.0128,-0.0217,3.4457,-0.5679,0.7777,0.3777,-0.0878,-0.2983,
4.990562,0.6335,-1.0128,-0.0217,3.4457,-0.5679,0.7777,0.4998,-0.0750,-0.2708,
4.998811,0.6335,-1.0128,-0.0217,3.4457,-0.5679,0.7777,0.6202,-0.1080,-0.2348,
5.001174,0.4997,-0.9435,0.0060,3.4457,-0.5679,0.7777,0.6202,-0.1080,-0.2348,
5.003375,0.4997,-0.9435,0.0060,2.0017,0.0838,0.9150,0.6202,-0.1080,-0.2348,
5.008636,0.4997,-0.9435,0.0060,2.0017,0.0838,0.9150,0.7008,-0.1709,-0.1914,
5.019056,0.4997,-0.9435,0.0060,2.0017,0.0838,0.9150,0.6690,-0.3425,-0.0998,
5.021929,0.4713,-0.9240,-0.0458,2.0017,0.0838,0.9150,0.6690,-0.3425,-0.0998,
5.024138,0.4713,-0.9240,-0.0458,1.6219,0.2551,0.2697,0.6690,-0.3425,-0.0998,
5.029144,0.4713,-0.9240,-0.0458,1.6219,0.2551,0.2697,0.5823,-0.3212,-0.0558,
5.039396,0.4713,-0.9240,-0.0458,1.6219,0.2551,0.2697,0.4870,-0.1422,-0.0161,
5.041834,0.5148,-0.9457,-0.1046,1.6219,0.2551,0.2697,0.4870,-0.1422,-0.0161,
5.044443,0.5148,-0.9457,-0.1046,1.9718,0.0241,-0.4030,0.4870,-0.1422,-0.0161,
5.048530,0.5148,-0.9457,-0.1046,1.9718,0.0241,-0.4030,0.4100,0.1016,0.0236,
5.058602,0.5148,-0.9457,-0.1046,1.9718,0.0241,-0.4030,0.3606,0.2732,0.0639,
5.061732,0.5756,-1.0184,-0.0448,1.9718,0.0241,-0.4030,0.3606,0.2732,0.0639,
5.063728,0.5756,-1.0184,-0.0448,2.5032,-0.7043,0.0923,0.3606,0.2732,0.0639,
5.068806,0.5756,-1.0184,-0.0448,2.5032,-0.7043,0.0923,0.3471,0.2189,0.1000,
5.078630,0.5756,-1.0184,-0.0448,2.5032,-0.7043,0.0923,0.3795,-0.0799,0.1238,
5.081417,0.6076,-1.0142,0.1401,2.5032,-0.7043,0.0923,0.3795,-0.0799,0.1238,
5.083578,0.6076,-1.0142,0.1401,2.7647,-0.6765,1.8112,0.3795,-0.0799,0.1238,
5.089439,0.6076,-1.0142,0.1401,2.7647,-0.6765,1.8112,0.4394,-0.4140,0.1531,
5.098444,0.6076,-1.0142,0.1401,2.7647,-0.6765,1.8112,0.4626,-0.5075,0.1922,
5.100533,0.5867,-0.9203,0.0752,2.7647,-0.6765,1.8112,0.4626,-0.5075,0.1922,
5.102786,0.5867,-0.9203,0.0752,2.5200,0.2337,1.0965,0.4626,-0.5075,0.1922,
5.108883,0.5867,-0.9203,0.0752,2.5200,0.2337,1.0965,0.4204,-0.2607,0.2154,
5.118361,0.5867,-0.9203,0.0752,2.5200,0.2337,1.0965,0.3227,0.2512,0.2087,
5.121071,0.5869,-0.8365,-0.0785,2.5200,0.2337,1.0965,0.3227,0.2512,0.2087,
5.123328,0.5869,-0.8365,-0.0785,2.4803,1.0428,-0.4900,0.3227,0.2512,0.2087,
5.128096,0.5869,-0.8365,-0.0785,2.4803,1.0428,-0.4900,0.1895,0.8413,0.1916,
5.138352,0.5869,-0.8365,-0.0785,2.4803,1.0428,-0.4900,0.0398,1.3428,0.1861,
5.140163,0.5614,-0.8118,-0.1264,2.4803,1.0428,-0.4900,0.0398,1.3428,0.1861,
5.142037,0.5614,-0.8118,-0.1264,2.1758,1.2674,-1.0457,0.0398,1.3428,0.1861,
5.148243,0.5614,-0.8118,-0.1264,2.1758,1.2674,-1.0457,-0.0970,1.6397,0.1971,
5.158166,0.5614,-0.8118,-0.1264,2.1758,1.2674,-1.0457,-0.1886,1.7026,0.2008,
5.160286,0.5267,-0.8083,-0.0559,2.1758,1.2674,-1.0457,-0.1886,1.7026,0.2008,
5.161593,0.5267,-0.8083,-0.0559,1.7845,1.2847,-0.4277,-0.1886,1.7026,0.2008,
5.168099,0.5267,-0.8083,-0.0559,1.7845,1.2847,-0.4277,-0.2222,1.6135,0.1824,
5.177939,0.5267,-0.8083,-0.0559,1.7845,1.2847,-0.4277,-0.2082,1.4864,0.1562,
5.179855,0.4314,-0.7986,-0.0425,1.7845,1.2847,-0.4277,-0.2082,1.4864,0.1562,
5.181146,0.4314,-0.7986,-0.0425,0.8052,1.3630,-0.3464,-0.2082,1.4864,0.1562,
5.189094,0.4314,-0.7986,-0.0425,0.8052,1.3630,-0.3464,-0.1703,1.3954,0.1433,
5.198385,0.4314,-0.7986,-0.0425,0.8052,1.3630,-0.3464,-0.0878,1.3850,0.1055,
5.200006,0.4275,-0.8337,-0.0590,0.8052,1.3630,-0.3464,-0.0878,1.3850,0.1055,
5.201744,0.4275,-0.8337,-0.0590,0.7242,1.0036,-0.5606,-0.0878,1.3850,0.1055,
5.208245,0.4275,-0.8337,-0.0590,0.7242,1.0036,-0.5606,-0.0634,1.4198,0.0865,
5.218364,0.4275,-0.8337,-0.0590,0.7242,1.0036,-0.5606,-0.0634,1.4638,0.0823,
5.220666,0.4959,-0.8168,-0.1292,0.7242,1.0036,-0.5606,-0.0634,1.4638,0.0823,
5.222450,0.4959,-0.8168,-0.1292,1.3468,1.1506,-1.3064,-0.0634,1.4638,0.0823,
5.228496,0.4959,-0.8168,-0.1292,1.3468,1.1506,-1.3064,-0.0909,1.5530,0.0774,
5.240037,0.4959,-0.8168,-0.1292,1.3468,1.1506,-1.3064,-0.1459,1.7155,0.0493,
5.242980,0.5339,-0.7570,-0.1886,1.3468,1.1506,-1.3064,-0.1459,1.7155,0.0493,
5.245113,0.5339,-0.7570,-0.1886,1.6639,1.7155,-1.9342,-0.1459,1.7155,0.0493,
5.248457,0.5339,-0.7570,-0.1886,1.6639,1.7155,-1.9342,-0.2167,1.9171,0.0041,
5.258426,0.5339,-0.7570,-0.1886,1.6639,1.7155,-1.9342,-0.2919,2.1131,-0.0540,
5.261356,0.5632,-0.7009,-0.1863,1.6639,1.7155,-1.9342,-0.2919,2.1131,-0.0540,
5.264167,0.5632,-0.7009,-0.1863,1.8741,2.2340,-1.9496,-0.2919,2.1131,-0.0540,
5.268463,0.5632,-0.7009,-0.1863,1.8741,2.2340,-1.9496,-0.3615,2.2891,-0.1328,
5.279416,0.5632,-0.7009,-0.1863,1.8741,2.2340,-1.9496,-0.4097,2.4314,-0.2323,
5.282168,0.5934,-0.6558,-0.1264,1.8741,2.2340,-1.9496,-0.4097,2.4314,-0.2323,
5.283875,0.5934,-0.6558,-0.1264,2.0573,2.6292,-1.4035,-0.4097,2.4314,-0.2323,
5.290057,0.5934,-0.6558,-0.1264,2.0573,2.6292,-1.4035,-0.4030,2.4943,-0.3569,
5.298501,0.5934,-0.6558,-0.1264,2.0573,2.6292,-1.4035,-0.2405,2.3557,-0.5152,
5.300767,0.6347,-0.5713,0.2304,2.0573,2.6292,-1.4035,-0.2405,2.3557,-0.5152,
5.302699,0.6347,-0.5713,0.2304,2.2933,3.3833,1.9913,-0.2405,2.3557,-0.5152,
5.308495,0.6347,-0.5713,0.2304,2.2933,3.3833,1.9913,0.1455,1.9940,-0.7045,
5.318663,0.6347,-0.5713,0.2304,2.2933,3.3833,1.9913,0.5731,1.6532,-0.8902,
5.321638,0.5273,-0.6635,0.1681,2.2933,3.3833,1.9913,0.5731,1.6532,-0.8902,
5.323959,0.5273,-0.6635,0.1681,1.0218,2.3721,1.1779,0.5731,1.6532,-0.8902,
5.328767,0.5273,-0.6635,0.1681,1.0218,2.3721,1.1779,0.8254,1.4925,-1.0405,
5.340151,0.5273,-0.6635,0.1681,1.0218,2.3721,1.1779,0.8657,1.5047,-1.1272,
5.343056,0.3407,-0.9799,-0.0893,1.0218,2.3721,1.1779,0.8657,1.5047,-1.1272,
5.345474,0.3407,-0.9799,-0.0893,-1.0154,-0.8455,-1.5937,0.8657,1.5047,-1.1272,
5.348416,0.3407,-0.9799,-0.0893,-1.0154,-0.8455,-1.5937,0.8065,1.5921,-1.1376,
5.358472,0.3407,-0.9799,-0.0893,-1.0154,-0.8455,-1.5937,0.7503,1.6104,-1.1040,
5.361704,0.2612,-1.1926,-0.0757,-1.0154,-0.8455,-1.5937,0.7503,1.6104,-1.1040,
5.363910,0.2612,-1.1926,-0.0757,-1.9564,-3.0350,-1.6997,0.7503,1.6104,-1.1040,
5.368529,0.2612,-1.1926,-0.0757,-1.9564,-3.0350,-1.6997,0.7246,1.5194,-1.0882,
5.378893,0.2612,-1.1926,-0.0757,-1.9564,-3.0350,-1.6997,0.7087,1.3685,-1.1150,
5.382110,0.2210,-1.1853,-0.0329,-1.9564,-3.0350,-1.6997,0.7087,1.3685,-1.1150,
5.384001,0.2210,-1.1853,-0.0329,-2.4663,-3.0491,-1.4773,0.7087,1.3685,-1.1150,
5.389752,0.2210,-1.1853,-0.0329,-2.4663,-3.0491,-1.4773,0.6544,1.1633,-1.2403,
5.398786,0.2210,-1.1853,-0.0329,-2.4663,-3.0491,-1.4773,0.6489,1.1852,-1.2812,
5.401352,0.1962,-1.3977,0.1695,-2.4663,-3.0491,-1.4773,0.6489,1.1852,-1.2812,
5.403424,0.1962,-1.3977,0.1695,-2.8192,-5.2172,0.3292,0.6489,1.1852,-1.2812,
5.408628,0.1962,-1.3977,0.1695,-2.8192,-5.2172,0.3292,0.6721,1.2152,-1.2983,
5.418378,0.1962,-1.3977,0.1695,-2.8192,-5.2172,0.3292,0.6336,1.0673,-1.3044,
5.421313,0.2660,-1.4079,0.2113,-2.8192,-5.2172,0.3292,0.6336,1.0673,-1.3044,
5.423497,0.2660,-1.4079,0.2113,-2.2300,-5.4032,0.5536,0.6336,1.0673,-1.3044,
5.428792,0.2660,-1.4079,0.2113,-2.2300,-5.4032,0.5536,0.4412,0.7265,-1.2842,
5.440734,0.2660,-1.4079,0.2113,-2.2300,-5.4032,0.5536,0.1229,0.4681,-1.1865,
5.443639,0.2271,-1.0974,0.1222,-2.2300,-5.4032,0.5536,0.1229,0.4681,-1.1865,
5.446535,0.2271,-1.0974,0.1222,-2.7009,-2.4258,-0.3935,0.1229,0.4681,-1.1865,
5.449233,0.2271,-1.0974,0.1222,-2.7009,-2.4258,-0.3935,-0.2124,0.4088,-1.0069,
5.458438,0.2271,-1.0974,0.1222,-2.7009,-2.4258,-0.3935,-0.4299,0.4186,-0.7925,
5.461462,0.1666,-0.9187,0.2277,-2.7009,-2.4258,-0.3935,-0.4299,0.4186,-0.7925,
5.463758,0.1666,-0.9187,0.2277,-3.3241,-0.6874,0.6684,-0.4299,0.4186,-0.7925,
5.468512,0.1666,-0.9187,0.2277,-3.3241,-0.6874,0.6684,-0.4916,0.4070,-0.5720,
5.478619,0.1666,-0.9187,0.2277,-3.3241,-0.6874,0.6684,-0.4867,0.4424,-0.3478,
5.481373,0.0716,-0.9124,0.2006,-3.3241,-0.6874,0.6684,-0.4867,0.4424,-0.3478,
5.483267,0.0716,-0.9124,0.2006,-4.2024,-0.5859,0.4448,-0.4867,0.4424,-0.3478,
5.490191,0.0716,-0.9124,0.2006,-4.2024,-0.5859,0.4448,-0.4904,0.5872,-0.1322,
5.498563,0.0716,-0.9124,0.2006,-4.2024,-0.5859,0.4448,-0.5136,0.7851,0.0438,
5.500677,0.0876,-0.9208,0.1557,-4.2024,-0.5859,0.4448,-0.5136,0.7851,0.0438,
5.503022,0.0876,-0.9208,0.1557,-3.9118,-0.5885,0.0219,-0.5136,0.7851,0.0438,
5.508560,0.0876,-0.9208,0.1557,-3.9118,-0.5885,0.0219,-0.5423,0.9049,0.1507,
5.518511,0.0876,-0.9208,0.1557,-3.9118,-0.5885,0.0219,-0.5661,0.8688,0.1941,
5.521406,0.1886,-0.8846,0.1085,-3.9118,-0.5885,0.0219,-0.5661,0.8688,0.1941,
5.523785,0.1886,-0.8846,0.1085,-2.7548,-0.1398,-0.4293,-0.5661,0.8688,0.1941,
5.528624,0.1886,-0.8846,0.1085,-2.7548,-0.1398,-0.4293,-0.6034,0.7613,0.2197,
5.541549,0.1886,-0.8846,0.1085,-2.7548,-0.1398,-0.4293,-0.6743,0.7173,0.2661,
5.544719,0.1669,-0.8651,0.0997,-2.7548,-0.1398,-0.4293,-0.6743,0.7173,0.2661,
5.547325,0.1669,-0.8651,0.0997,-2.8002,0.1479,-0.4702,-0.6743,0.7173,0.2661,
5.550521,0.1669,-0.8651,0.0997,-2.8002,0.1479,-0.4702,-0.7280,0.7656,0.3407,
5.558393,0.1669,-0.8651,0.0997,-2.8002,0.1479,-0.4702,-0.7121,0.8670,0.4360,
5.561414,-0.0081,-0.8994,0.4417,-2.8002,0.1479,-0.4702,-0.7121,0.8670,0.4360,
5.563532,-0.0081,-0.8994,0.4417,-4.3086,-0.0827,2.8999,-0.7121,0.8670,0.4360,
5.568441,-0.0081,-0.8994,0.4417,-4.3086,-0.0827,2.8999,-0.4104,0.9953,0.6461,
5.578642,-0.0081,-0.8994,0.4417,-4.3086,-0.0827,2.8999,-0.2216,0.8346,0.7353,
5.581622,-0.0607,-0.8386,0.4042,-4.3086,-0.0827,2.8999,-0.2216,0.8346,0.7353,
5.583658,-0.0607,-0.8386,0.4042,-4.5525,0.6272,2.4547,-0.2216,0.8346,0.7353,
5.590181,-0.0607,-0.8386,0.4042,-4.5525,0.6272,2.4547,-0.1495,0.3893,0.7774,
5.598250,-0.0607,-0.8386,0.4042,-4.5525,0.6272,2.4547,-0.2277,-0.2454,0.7640,
5.600246,0.0188,-0.7846,0.0919,-4.5525,0.6272,2.4547,-0.2277,-0.2454,0.7640,
5.602368,0.0188,-0.7846,0.0919,-3.5135,1.2659,-0.6185,-0.2277,-0.2454,0.7640,
5.609150,0.0188,-0.7846,0.0919,-3.5135,1.2659,-0.6185,-0.3798,-0.8642,0.7090,
5.618153,0.0188,-0.7846,0.0919,-3.5135,1.2659,-0.6185,-0.5301,-1.3529,0.6479,
5.620394,0.0883,-0.8337,-0.0002,-3.5135,1.2659,-0.6185,-0.5301,-1.3529,0.6479,
5.622172,0.0883,-0.8337,-0.0002,-2.6330,0.8873,-1.3778,-0.5301,-1.3529,0.6479,
5.628166,0.0883,-0.8337,-0.0002,-2.6330,0.8873,-1.3778,-0.6492,-1.7029,0.5917,
5.639064,0.0883,-0.8337,-0.0002,-2.6330,0.8873,-1.3778,-0.7103,-1.9027,0.5477,
5.641139,0.1821,-0.9374,-0.0227,-2.6330,0.8873,-1.3778,-0.7103,-1.9027,0.5477,
5.643024,0.1821,-0.9374,-0.0227,-1.5640,-0.0391,-1.3536,-0.7103,-1.9027,0.5477,
5.648212,0.1821,-0.9374,-0.0227,-1.5640,-0.0391,-1.3536,-0.7225,-1.9772,0.5215,
5.658482,0.1821,-0.9374,-0.0227,-1.5640,-0.0391,-1.3536,-0.7213,-1.9766,0.4928,
5.660755,0.3149,-0.9944,-0.0931,-1.5640,-0.0391,-1.3536,-0.7213,-1.9766,0.4928,
5.662138,0.3149,-0.9944,-0.0931,-0.1457,-0.5264,-1.7677,-0.7213,-1.9766,0.4928,
5.668411,0.3149,-0.9944,-0.0931,-0.1457,-0.5264,-1.7677,-0.7476,-1.9235,0.4451,
5.678435,0.3149,-0.9944,-0.0931,-0.1457,-0.5264,-1.7677,-0.8013,-1.8532,0.3517,
5.681162,0.5570,-1.1116,-0.1098,-0.1457,-0.5264,-1.7677,-0.8013,-1.8532,0.3517,
5.682495,0.5570,-1.1116,-0.1098,2.2851,-1.6329,-1.6565,-0.8013,-1.8532,0.3517,
5.689527,0.5570,-1.1116,-0.1098,2.2851,-1.6329,-1.6565,-0.8270,-1.8159,0.1629,
5.698128,0.5570,-1.1116,-0.1098,2.2851,-1.6329,-1.6565,-0.7799,-1.7750,-0.1053,
5.699832,0.8293,-1.3343,-0.0382,2.2851,-1.6329,-1.6565,-0.7799,-1.7750,-0.1053,
5.701424,0.8293,-1.3343,-0.0382,4.9361,-3.8082,-0.6868,-0.7799,-1.7750,-0.1053,
5.708243,0.8293,-1.3343,-0.0382,4.9361,-3.8082,-0.6868,-0.6767,-1.6223,-0.3521,
5.718218,0.8293,-1.3343,-0.0382,4.9361,-3.8082,-0.6868,-0.5625,-1.3046,-0.4840,
5.720298,0.7698,-1.1230,-0.0673,4.9361,-3.8082,-0.6868,-0.5625,-1.3046,-0.4840,
5.722178,0.7698,-1.1230,-0.0673,4.2442,-1.7707,-0.7552,-0.5625,-1.3046,-0.4840,
5.728236,0.7698,-1.1230,-0.0673,4.2442,-1.7707,-0.7552,-0.4782,-0.9284,-0.5176,
5.740944,0.7698,-1.1230,-0.0673,4.2442,-1.7707,-0.7552,-0.2955,-0.6956,-0.5029,
5.743393,0.1697,-0.4169,0.8689,4.2442,-1.7707,-0.7552,-0.2955,-0.6956,-0.5029,
5.745400,0.1697,-0.4169,0.8689,-1.7620,5.1033,8.4575,-0.2955,-0.6956,-0.5029,
5.748351,0.1697,-0.4169,0.8689,-1.7620,5.1033,8.4575,0.3062,-0.8715,-0.2953,
5.758290,0.1697,-0.4169,0.8689,-1.7620,5.1033,8.4575,0.9745,-1.8123,0.2893,
5.760971,0.3760,-0.7647,-0.2520,-1.7620,5.1033,8.4575,0.9745,-1.8123,0.2893,
5.763236,0.3760,-0.7647,-0.2520,0.2348,1.6853,-2.5778,0.9745,-1.8123,0.2893,
5.768374,0.3760,-0.7647,-0.2520,0.2348,1.6853,-2.5778,0.4290,-1.5918,0.2967,
5.778328,0.3760,-0.7647,-0.2520,0.2348,1.6853,-2.5778,-0.1367,-0.9894,0.2258,
5.780598,0.5713,-1.0393,-0.3127,0.2348,1.6853,-2.5778,-0.1367,-0.9894,0.2258,
5.782178,0.5713,-1.0393,-0.3127,2.1685,-0.9979,-3.1052,-0.1367,-0.9894,0.2258,
5.789656,0.5713,-1.0393,-0.3127,2.1685,-0.9979,-3.1052,-0.4806,-0.4061,0.1085,
5.798278,0.5713,-1.0393,-0.3127,2.1685,-0.9979,-3.1052,-0.5710,-0.0646,0.0132,
5.800270,0.6023,-1.0026,-0.1264,2.1685,-0.9979,-3.1052,-0.5710,-0.0646,0.0132,
5.801701,0.6023,-1.0026,-0.1264,2.4459,-0.6491,-1.1551,-0.5710,-0.0646,0.0132,
5.808307,0.6023,-1.0026,-0.1264,2.4459,-0.6491,-1.1551,-0.4647,0.0545,-0.0173,
5.818364,0.6023,-1.0026,-0.1264,2.4459,-0.6491,-1.1551,-0.2485,0.0551,0.0010,
5.820309,0.5845,-0.8342,-0.0544,2.4459,-0.6491,-1.1551,-0.2485,0.0551,0.0010,
5.822598,0.5845,-0.8342,-0.0544,2.2154,0.9796,-0.3750,-0.2485,0.0551,0.0010,
5.836844,0.5845,-0.8342,-0.0544,2.2154,0.9796,-0.3750,-0.0047,-0.0078,0.0279,
5.842112,0.5849,-0.7716,-0.0988,2.2154,0.9796,-0.3750,-0.0047,-0.0078,0.0279,
5.844065,0.5849,-0.7716,-0.0988,2.1534,1.5667,-0.7919,-0.0047,-0.0078,0.0279,
5.845634,0.5849,-0.7716,-0.0988,2.1534,1.5667,-0.7919,0.2011,-0.1495,0.0206,
5.848380,0.5849,-0.7716,-0.0988,2.1534,1.5667,-0.7919,0.3434,-0.3780,-0.0369,
5.858386,0.5849,-0.7716,-0.0988,2.1534,1.5667,-0.7919,0.4174,-0.6730,-0.0894,
5.861120,0.5239,-0.8591,-0.1616,2.1534,1.5667,-0.7919,0.4174,-0.6730,-0.0894,
5.863255,0.5239,-0.8591,-0.1616,1.4849,0.6817,-1.4226,0.4174,-0.6730,-0.0894,
5.868129,0.5239,-0.8591,-0.1616,1.4849,0.6817,-1.4226,0.4375,-0.9583,-0.1114,
5.878486,0.5239,-0.8591,-0.1616,1.4849,0.6817,-1.4226,0.4314,-1.1727,-0.1181,
5.880873,0.4720,-0.9600,-0.1566,1.4849,0.6817,-1.4226,0.4314,-1.1727,-0.1181,
5.882343,0.4720,-0.9600,-0.1566,0.9103,-0.3345,-1.3412,0.4314,-1.1727,-0.1181,
5.889936,0.4720,-0.9600,-0.1566,0.9103,-0.3345,-1.3412,0.4149,-1.3444,-0.1199,
5.898556,0.4720,-0.9600,-0.1566,0.9103,-0.3345,-1.3412,0.4033,-1.5441,-0.1047,
5.900598,0.4289,-1.0156,-0.0941,0.9103,-0.3345,-1.3412,0.4033,-1.5441,-0.1047,
5.902176,0.4289,-1.0156,-0.0941,0.4472,-0.8972,-0.6729,0.4033,-1.5441,-0.1047,
5.909033,0.4289,-1.0156,-0.0941,0.4472,-0.8972,-0.6729,0.4088,-1.7096,-0.0582,
5.918308,0.4289,-1.0156,-0.0941,0.4472,-0.8972,-0.6729,0.4223,-1.6663,0.0010,
5.921092,0.3930,-0.9635,-0.1010,0.4472,-0.8972,-0.6729,0.4223,-1.6663,0.0010,
5.923217,0.3930,-0.9635,-0.1010,0.0848,-0.3937,-0.6737,0.4223,-1.6663,0.0010,
5.931493,0.3930,-0.9635,-0.1010,0.0848,-0.3937,-0.6737,0.4351,-1.4268,0.0450,
5.938991,0.3930,-0.9635,-0.1010,0.0848,-0.3937,-0.6737,0.4076,-1.0524,0.1372,
5.941248,0.3503,-0.8957,-0.1063,0.0848,-0.3937,-0.6737,0.4076,-1.0524,0.1372,
5.943413,0.3503,-0.8957,-0.1063,-0.3170,0.2762,-0.6944,0.4076,-1.0524,0.1372,
5.948417,0.3503,-0.8957,-0.1063,-0.3170,0.2762,-0.6944,0.3703,-1.1477,0.2020,
5.958268,0.3503,-0.8957,-0.1063,-0.3170,0.2762,-0.6944,0.3306,-1.3413,0.2667,
5.960521,0.3880,-0.8822,-0.0811,-0.3170,0.2762,-0.6944,0.3306,-1.3413,0.2667,
5.962076,0.3880,-0.8822,-0.0811,0.0955,0.4255,-0.4075,0.3306,-1.3413,0.2667,
5.968321,0.3880,-0.8822,-0.0811,0.0955,0.4255,-0.4075,0.3025,-1.5087,0.3284,
5.978733,0.3880,-0.8822,-0.0811,0.0955,0.4255,-0.4075,0.2976,-1.6064,0.3810,
5.981590,0.5129,-0.9118,-0.0465,0.0955,0.4255,-0.4075,0.2976,-1.6064,0.3810,
5.982994,0.5129,-0.9118,-0.0465,1.3832,0.1582,-0.0012,0.2976,-1.6064,0.3810,
5.990267,0.5129,-0.9118,-0.0465,1.3832,0.1582,-0.0012,0.3172,-1.6822,0.4103,
5.998678,0.5129,-0.9118,-0.0465,1.3832,0.1582,-0.0012,0.3496,-1.7927,0.4103,
6.000796,0.6423,-0.8750,0.0099,1.3832,0.1582,-0.0012,0.3496,-1.7927,0.4103,
6.002215,0.6423,-0.8750,0.0099,2.7035,0.5359,0.6172,0.3496,-1.7927,0.4103,
6.008470,0.6423,-0.8750,0.0099,2.7035,0.5359,0.6172,0.3923,-1.9509,0.3834,
6.018608,0.6423,-0.8750,0.0099,2.7035,0.5359,0.6172,0.4510,-2.0756,0.3339,
6.020801,0.7016,-0.7854,0.0685,2.7035,0.5359,0.6172,0.4510,-2.0756,0.3339,
6.022819,0.7016,-0.7854,0.0685,3.2993,1.4158,1.2436,0.4510,-2.0756,0.3339,
6.028497,0.7016,-0.7854,0.0685,3.2993,1.4158,1.2436,0.5322,-2.0921,0.2674,
6.040921,0.7016,-0.7854,0.0685,3.2993,1.4158,1.2436,0.6391,-2.0065,0.1886,
6.043283,0.7024,-0.6849,0.1295,3.2993,1.4158,1.2436,0.6391,-2.0065,0.1886,
6.045339,0.7024,-0.6849,0.1295,3.2765,2.3887,1.8484,0.6391,-2.0065,0.1886,
6.048196,0.7024,-0.6849,0.1295,3.2765,2.3887,1.8484,0.7686,-1.8385,0.0865,
6.058736,0.7024,-0.6849,0.1295,3.2765,2.3887,1.8484,0.9244,-1.6412,-0.0460,
6.061874,0.7297,-0.5972,0.2262,3.2765,2.3887,1.8484,0.9244,-1.6412,-0.0460,
6.064196,0.7297,-0.5972,0.2262,3.4512,3.2154,2.7160,0.9244,-1.6412,-0.0460,
6.068708,0.7297,-0.5972,0.2262,3.4512,3.2154,2.7160,1.1418,-1.5398,-0.2012,
6.078935,0.7297,-0.5972,0.2262,3.4512,3.2154,2.7160,1.5053,-1.6522,-0.3857,
6.081602,0.8243,-0.5179,0.5596,3.4512,3.2154,2.7160,1.5053,-1.6522,-0.3857,
6.083596,0.8243,-0.5179,0.5596,4.2001,3.9273,5.7633,1.5053,-1.6522,-0.3857,
6.090796,0.8243,-0.5179,0.5596,4.2001,3.9273,5.7633,2.0325,-1.9259,-0.6080,
6.098596,0.8243,-0.5179,0.5596,4.2001,3.9273,5.7633,2.5346,-2.1788,-0.8353,
6.100869,0.8173,-0.5658,0.1534,4.2001,3.9273,5.7633,2.5346,-2.1788,-0.8353,
6.102962,0.8173,-0.5658,0.1534,3.8656,3.3429,1.4556,2.5346,-2.1788,-0.8353,
6.108595,0.8173,-0.5658,0.1534,3.8656,3.3429,1.4556,2.7820,-2.2026,-1.0051,
6.118462,0.8173,-0.5658,0.1534,3.8656,3.3429,1.4556,2.7099,-2.0236,-1.0717,
6.121262,0.6080,-0.7233,0.0265,3.8656,3.3429,1.4556,2.7099,-2.0236,-1.0717,
6.123997,0.6080,-0.7233,0.0265,1.5061,1.6407,-0.1412,2.7099,-2.0236,-1.0717,
6.128824,0.6080,-0.7233,0.0265,1.5061,1.6407,-0.1412,2.0594,-1.2955,-1.0765,
6.141010,0.6080,-0.7233,0.0265,1.5061,1.6407,-0.1412,1.6861,-0.6467,-1.1786,
6.144025,0.6638,-0.9187,0.1068,1.5061,1.6407,-0.1412,1.6861,-0.6467,-1.1786,
6.146302,0.6638,-0.9187,0.1068,1.7641,-0.4448,0.3800,1.6861,-0.6467,-1.1786,
6.148636,0.6638,-0.9187,0.1068,1.7641,-0.4448,0.3800,1.2732,0.1993,-1.3276,
6.160651,0.6638,-0.9187,0.1068,1.7641,-0.4448,0.3800,0.8273,1.0918,-1.4461,
6.163478,0.6310,-1.1205,0.0421,1.7641,-0.4448,0.3800,0.8273,1.0918,-1.4461,
6.165389,0.6310,-1.1205,0.0421,1.1830,-2.5948,-0.4975,0.8273,1.0918,-1.4461,
6.168553,0.6310,-1.1205,0.0421,1.1830,-2.5948,-0.4975,0.4168,1.7863,-1.4577,
6.178210,0.6310,-1.1205,0.0421,1.1830,-2.5948,-0.4975,0.0649,2.2970,-1.3728,
6.181187,0.5108,-1.0731,-0.0204,1.1830,-2.5948,-0.4975,0.0649,2.2970,-1.3728,
6.183332,0.5108,-1.0731,-0.0204,-0.1940,-2.2822,-1.3504,0.0649,2.2970,-1.3728,
6.189861,0.5108,-1.0731,-0.0204,-0.1940,-2.2822,-1.3504,-0.2302,2.7210,-1.2598,
6.198161,0.5108,-1.0731,-0.0204,-0.1940,-2.2822,-1.3504,-0.4788,3.0966,-1.1450,
6.199721,0.4628,-1.0147,-0.0564,-0.1940,-2.2822,-1.3504,-0.4788,3.0966,-1.1450,
6.201035,0.4628,-1.0147,-0.0564,-0.7833,-1.8204,-1.9239,-0.4788,3.0966,-1.1450,
6.208132,0.4628,-1.0147,-0.0564,-0.7833,-1.8204,-1.9239,-0.6932,3.4180,-1.0442,
6.218127,0.4628,-1.0147,-0.0564,-0.7833,-1.8204,-1.9239,-0.8600,3.6055,-0.9568,
6.219750,0.4672,-1.0561,-0.0828,-0.7833,-1.8204,-1.9239,-0.8600,3.6055,-0.9568,
6.221658,0.4672,-1.0561,-0.0828,-0.7783,-2.2854,-2.3709,-0.8600,3.6055,-0.9568,
6.228348,0.4672,-1.0561,-0.0828,-0.7783,-2.2854,-2.3709,-0.9632,3.5725,-0.8792,
6.241545,0.4672,-1.0561,-0.0828,-0.7783,-2.2854,-2.3709,-0.9907,3.2677,-0.8072,
6.244042,0.4598,-1.1602,-0.1247,-0.7783,-2.2854,-2.3709,-0.9907,3.2677,-0.8072,
6.245865,0.4598,-1.1602,-0.1247,-0.8427,-3.3261,-2.9126,-0.9907,3.2677,-0.8072,
6.248612,0.4598,-1.1602,-0.1247,-0.8427,-3.3261,-2.9126,-0.9675,2.7784,-0.7314,
6.258726,0.4598,-1.1602,-0.1247,-0.8427,-3.3261,-2.9126,-0.9357,2.2347,-0.6648,
6.261314,0.4283,-1.1772,-0.1344,-0.8427,-3.3261,-2.9126,-0.9357,2.2347,-0.6648,
6.263593,0.4283,-1.1772,-0.1344,-1.1347,-3.4868,-3.0332,-0.9357,2.2347,-0.6648,
6.268399,0.4283,-1.1772,-0.1344,-1.1347,-3.4868,-3.0332,-0.9113,1.7020,-0.6459,
6.279512,0.4283,-1.1772,-0.1344,-1.1347,-3.4868,-3.0332,-0.8899,1.2030,-0.6697,
6.283302,0.3604,-1.0363,-0.0630,-1.1347,-3.4868,-3.0332,-0.8899,1.2030,-0.6697,
6.285373,0.3604,-1.0363,-0.0630,-1.8054,-2.0939,-2.2574,-0.8899,1.2030,-0.6697,
6.289747,0.3604,-1.0363,-0.0630,-1.8054,-2.0939,-2.2574,-0.8752,0.8175,-0.6893,
6.298541,0.3604,-1.0363,-0.0630,-1.8054,-2.0939,-2.2574,-0.8545,0.5732,-0.6636,
6.301120,0.2670,-0.8998,0.1371,-1.8054,-2.0939,-2.2574,-0.8545,0.5732,-0.6636,
6.302812,0.2670,-0.8998,0.1371,-2.7423,-0.7454,-0.1690,-0.8545,0.5732,-0.6636,
6.308770,0.2670,-0.8998,0.1371,-2.7423,-0.7454,-0.1690,-0.7946,0.4101,-0.5219,
6.318289,0.2670,-0.8998,0.1371,-2.7423,-0.7454,-0.1690,-0.8190,0.5023,-0.4339,
6.320154,0.2766,-0.8515,0.1468,-2.7423,-0.7454,-0.1690,-0.8190,0.5023,-0.4339,
6.322122,0.2766,-0.8515,0.1468,-2.6422,-0.2460,0.0500,-0.8190,0.5023,-0.4339,
6.328122,0.2766,-0.8515,0.1468,-2.6422,-0.2460,0.0500,-0.9131,0.6477,-0.3325,
6.340003,0.2766,-0.8515,0.1468,-2.6422,-0.2460,0.0500,-1.0646,0.7356,-0.2274,
6.341594,0.2696,-0.7977,0.1616,-2.6422,-0.2460,0.0500,-1.0646,0.7356,-0.2274,
6.342906,0.2696,-0.7977,0.1616,-2.6638,0.3303,0.3035,-1.0646,0.7356,-0.2274,
6.347569,0.2696,-0.7977,0.1616,-2.6638,0.3303,0.3035,-1.2442,0.7699,-0.1358,
6.357860,0.2696,-0.7977,0.1616,-2.6638,0.3303,0.3035,-1.3914,0.8688,-0.0588,
6.359523,0.2428,-0.7501,0.2172,-2.6638,0.3303,0.3035,-1.3914,0.8688,-0.0588,
6.360560,0.2428,-0.7501,0.2172,-2.8470,0.8656,0.9747,-1.3914,0.8688,-0.0588,
6.367608,0.2428,-0.7501,0.2172,-2.8470,0.8656,0.9747,-1.4690,1.1290,0.0029,
6.377712,0.2428,-0.7501,0.2172,-2.8470,0.8656,0.9747,-1.4714,1.5249,0.0432,
6.379199,0.1532,-0.7764,0.2150,-2.8470,0.8656,0.9747,-1.4714,1.5249,0.0432,
6.380058,0.1532,-0.7764,0.2150,-3.6091,0.6925,1.0369,-1.4714,1.5249,0.0432,
6.388988,0.1532,-0.7764,0.2150,-3.6091,0.6925,1.0369,-1.4213,1.9171,0.0792,
6.397686,0.1532,-0.7764,0.2150,-3.6091,0.6925,1.0369,-1.3218,2.1498,0.1501,
6.398695,0.0354,-0.8587,0.2635,-3.6091,0.6925,1.0369,-1.3218,2.1498,0.1501,
6.399552,0.0354,-0.8587,0.2635,-4.5984,-0.0171,1.4973,-1.3218,2.1498,0.1501,
6.407655,0.0354,-0.8587,0.2635,-4.5984,-0.0171,1.4973,-1.1293,2.1064,0.2570,
6.417875,0.0354,-0.8587,0.2635,-4.5984,-0.0171,1.4973,-0.7738,1.7497,0.3657,
6.419028,0.0255,-1.0834,0.6684,-4.5984,-0.0171,1.4973,-0.7738,1.7497,0.3657,
6.419639,0.0255,-1.0834,0.6684,-4.4819,-2.1117,5.3526,-0.7738,1.7497,0.3657,
6.427590,0.0255,-1.0834,0.6684,-4.4819,-2.1117,5.3526,-0.2711,1.2054,0.4250,
6.439068,0.0255,-1.0834,0.6684,-4.4819,-2.1117,5.3526,0.1547,0.6068,0.3822,
6.440340,0.1454,-0.9515,0.2675,-4.4819,-2.1117,5.3526,0.1547,0.6068,0.3822,
6.441305,0.1454,-0.9515,0.2675,-3.1023,-0.7296,1.2763,0.1547,0.6068,0.3822,
6.448427,0.1454,-0.9515,0.2675,-3.1023,-0.7296,1.2763,0.1962,0.1388,0.2942,
6.459036,0.1454,-0.9515,0.2675,-3.1023,-0.7296,1.2763,-0.1251,0.0026,0.2655,
6.461912,0.1738,-0.7319,-0.3294,-3.1023,-0.7296,1.2763,-0.1251,0.0026,0.2655,
6.464309,0.1738,-0.7319,-0.3294,-2.6704,1.4980,-4.5895,-0.1251,0.0026,0.2655,
6.468603,0.1738,-0.7319,-0.3294,-2.6704,1.4980,-4.5895,-0.5032,0.1425,0.3022,
6.479107,0.1738,-0.7319,-0.3294,-2.6704,1.4980,-4.5895,-0.8056,0.4485,0.3950,
6.481862,0.3404,-1.1481,-0.2704,-2.6704,1.4980,-4.5895,-0.8056,0.4485,0.3950,
6.483751,0.3404,-1.1481,-0.2704,-0.8865,-2.4866,-3.8806,-0.8056,0.4485,0.3950,
6.488915,0.3404,-1.1481,-0.2704,-0.8865,-2.4866,-3.8806,-1.0145,0.8230,0.4940,
6.498940,0.3404,-1.1481,-0.2704,-0.8865,-2.4866,-3.8806,-1.1825,1.4968,0.4763,
6.502012,0.5233,-1.3465,-0.1782,-0.8865,-2.4866,-3.8806,-1.1825,1.4968,0.4763,
6.503726,0.5233,-1.3465,-0.1782,1.0737,-4.3315,-2.8222,-1.1825,1.4968,0.4763,
6.509372,0.5233,-1.3465,-0.1782,1.0737,-4.3315,-2.8222,-1.1550,1.7100,0.4647,
6.518821,0.5233,-1.3465,-0.1782,1.0737,-4.3315,-2.8222,-1.0591,1.7662,0.4274,
6.522144,0.5505,-0.8275,-0.0344,1.0737,-4.3315,-2.8222,-1.0591,1.7662,0.4274,
6.524629,0.5505,-0.8275,-0.0344,1.4745,0.8271,-1.3079,-1.0591,1.7662,0.4274,
6.529758,0.5505,-0.8275,-0.0344,1.4745,0.8271,-1.3079,-0.9217,1.6110,0.3095,
6.539043,0.5505,-0.8275,-0.0344,1.4745,0.8271,-1.3079,-0.7054,1.0759,0.2148,
6.541556,0.3717,-0.5912,0.3376,1.4745,0.8271,-1.3079,-0.7054,1.0759,0.2148,
6.543512,0.3717,-0.5912,0.3376,-0.2045,3.1788,2.3823,-0.7054,1.0759,0.2148,
6.548454,0.3717,-0.5912,0.3376,-0.2045,3.1788,2.3823,-0.3438,0.1260,0.2252,
6.558859,0.3717,-0.5912,0.3376,-0.2045,3.1788,2.3823,-0.0890,-0.2986,0.2002,
6.562102,0.3920,-0.8885,0.0186,-0.2045,3.1788,2.3823,-0.0890,-0.2986,0.2002,
6.564134,0.3920,-0.8885,0.0186,0.0310,0.2857,-0.6954,-0.0890,-0.2986,0.2002,
6.568606,0.3920,-0.8885,0.0186,0.0310,0.2857,-0.6954,-0.0060,-0.1770,0.1214,
6.578617,0.3920,-0.8885,0.0186,0.0310,0.2857,-0.6954,0.0264,-0.0151,0.0364,
6.581350,0.3751,-1.1265,-0.1665,0.0310,0.2857,-0.6954,0.0264,-0.0151,0.0364,
6.583475,0.3751,-1.1265,-0.1665,-0.1171,-2.0363,-2.4807,0.0264,-0.0151,0.0364,
6.588780,0.3751,-1.1265,-0.1665,-0.1171,-2.0363,-2.4807,0.0386,-0.0084,-0.0381,
6.598505,0.3751,-1.1265,-0.1665,-0.1171,-2.0363,-2.4807,0.0521,-0.1984,-0.1010,
6.600734,0.3169,-1.1613,-0.2212,-0.1171,-2.0363,-2.4807,0.0521,-0.1984,-0.1010,
6.602865,0.3169,-1.1613,-0.2212,-0.6844,-2.3711,-2.9641,0.0521,-0.1984,-0.1010,
6.608775,0.3169,-1.1613,-0.2212,-0.6844,-2.3711,-2.9641,0.0875,-0.5270,-0.1346,
6.618384,0.3169,-1.1613,-0.2212,-0.6844,-2.3711,-2.9641,0.1480,-0.8880,-0.1224,
6.620638,0.2157,-1.0396,-0.1847,-0.6844,-2.3711,-2.9641,0.1480,-0.8880,-0.1224,
6.623339,0.2157,-1.0396,-0.1847,-1.6765,-1.1710,-2.5072,0.1480,-0.8880,-0.1224,
6.628287,0.2157,-1.0396,-0.1847,-1.6765,-1.1710,-2.5072,0.2317,-1.1477,-0.0582,
6.638299,0.2157,-1.0396,-0.1847,-1.6765,-1.1710,-2.5072,0.3343,-1.2564,0.0285,
6.640022,0.2525,-0.9510,-0.1471,-1.6765,-1.1710,-2.5072,0.3343,-1.2564,0.0285,
6.641987,0.2525,-0.9510,-0.1471,-1.2980,-0.2866,-2.0301,0.3343,-1.2564,0.0285,
6.648303,0.2525,-0.9510,-0.1471,-1.2980,-0.2866,-2.0301,0.4394,-1.2405,0.0920,
6.658642,0.2525,-0.9510,-0.1471,-1.2980,-0.2866,-2.0301,0.5212,-1.1599,0.1189,
6.660990,0.3760,-1.0023,-0.1732,-1.2980,-0.2866,-2.0301,0.5212,-1.1599,0.1189,
6.662708,0.3760,-1.0023,-0.1732,-0.0540,-0.7708,-2.2116,0.5212,-1.1599,0.1189,
6.668490,0.3760,-1.0023,-0.1732,-0.0540,-0.7708,-2.2116,0.5634,-1.1147,0.1250,
6.678257,0.3760,-1.0023,-0.1732,-0.0540,-0.7708,-2.2116,0.5261,-1.3266,0.1708,
6.680904,0.4059,-0.9886,-0.2028,-0.0540,-0.7708,-2.2116,0.5261,-1.3266,0.1708,
6.682451,0.4059,-0.9886,-0.2028,0.2726,-0.6194,-2.4332,0.5261,-1.3266,0.1708,
6.688618,0.4059,-0.9886,-0.2028,0.2726,-0.6194,-2.4332,0.4589,-1.4745,0.2197,
6.698500,0.4059,-0.9886,-0.2028,0.2726,-0.6194,-2.4332,0.3807,-1.5435,0.2606,
6.700877,0.4732,-0.9258,-0.1845,0.2726,-0.6194,-2.4332,0.3807,-1.5435,0.2606,
6.702971,0.4732,-0.9258,-0.1845,0.9668,0.0147,-2.1433,0.3807,-1.5435,0.2606,
6.709177,0.4732,-0.9258,-0.1845,0.9668,0.0147,-2.1433,0.3074,-1.5435,0.2875,
6.718272,0.4732,-0.9258,-0.1845,0.9668,0.0147,-2.1433,0.2555,-1.5447,0.3028,
6.720118,0.5449,-0.8764,-0.1062,0.9668,0.0147,-2.1433,0.2555,-1.5447,0.3028,
6.722347,0.5449,-0.8764,-0.1062,1.6982,0.5136,-1.2509,0.2555,-1.5447,0.3028,
6.728737,0.5449,-0.8764,-0.1062,1.6982,0.5136,-1.2509,0.2335,-1.5991,0.3058,
6.738879,0.5449,-0.8764,-0.1062,1.6982,0.5136,-1.2509,0.2384,-1.7261,0.2979,
6.740846,0.5967,-0.8297,-0.0244,1.6982,0.5136,-1.2509,0.2384,-1.7261,0.2979,
6.742371,0.5967,-0.8297,-0.0244,2.2217,0.9805,-0.3293,0.2384,-1.7261,0.2979,
6.748553,0.5967,-0.8297,-0.0244,2.2217,0.9805,-0.3293,0.2604,-1.8990,0.2802,
6.758331,0.5967,-0.8297,-0.0244,2.2217,0.9805,-0.3293,0.2952,-2.0853,0.2570,
6.761639,0.5695,-0.7705,0.0572,2.2217,0.9805,-0.3293,0.2952,-2.0853,0.2570,
6.763876,0.5695,-0.7705,0.0572,1.9543,1.5601,0.5861,0.2952,-2.0853,0.2570,
6.768423,0.5695,-0.7705,0.0572,1.9543,1.5601,0.5861,0.3471,-2.2894,0.2319,
6.778748,0.5695,-0.7705,0.0572,1.9543,1.5601,0.5861,0.4223,-2.4708,0.2026,
6.781150,0.4903,-0.6985,0.1406,1.9543,1.5601,0.5861,0.4223,-2.4708,0.2026,
6.782450,0.4903,-0.6985,0.1406,1.1641,2.2598,1.5037,0.4223,-2.4708,0.2026,
6.788625,0.4903,-0.6985,0.1406,1.1641,2.2598,1.5037,0.5188,-2.5600,0.1647,
6.798303,0.4903,-0.6985,0.1406,1.1641,2.2598,1.5037,0.6336,-2.4952,0.1195,
6.800397,0.4809,-0.6437,0.1785,1.1641,2.2598,1.5037,0.6336,-2.4952,0.1195,
6.801924,0.4809,-0.6437,0.1785,1.0379,2.7815,1.9268,0.6336,-2.4952,0.1195,
6.808528,0.4809,-0.6437,0.1785,1.0379,2.7815,1.9268,0.7601,-2.2814,0.0664,
6.818549,0.4809,-0.6437,0.1785,1.0379,2.7815,1.9268,0.8896,-2.0132,0.0096,
6.820860,0.5018,-0.6188,0.2095,1.0379,2.7815,1.9268,0.8896,-2.0132,0.0096,
6.823097,0.5018,-0.6188,0.2095,1.1811,3.0013,2.1919,0.8896,-2.0132,0.0096,
6.828510,0.5018,-0.6188,0.2095,1.1811,3.0013,2.1919,1.0514,-1.8532,-0.0375,
6.838722,0.5018,-0.6188,0.2095,1.1811,3.0013,2.1919,1.2842,-1.8880,-0.0760,
6.841079,0.2998,-0.7296,0.4394,1.1811,3.0013,2.1919,1.2842,-1.8880,-0.0760,
6.842472,0.2998,-0.7296,0.4394,-0.8588,1.8917,4.2869,1.2842,-1.8880,-0.0760,
6.848397,0.2998,-0.7296,0.4394,-0.8588,1.8917,4.2869,1.5853,-2.0670,-0.1108,
6.858673,0.2998,-0.7296,0.4394,-0.8588,1.8917,4.2869,1.8963,-2.1641,-0.1254,
6.861423,0.2145,-0.8258,0.2403,-0.8588,1.8917,4.2869,1.8963,-2.1641,-0.1254,
6.863075,0.2145,-0.8258,0.2403,-1.7412,0.9261,2.0985,1.8963,-2.1641,-0.1254,
6.868430,0.2145,-0.8258,0.2403,-1.7412,0.9261,2.0985,2.2548,-1.6907,-0.1376,
6.878618,0.2145,-0.8258,0.2403,-1.7412,0.9261,2.0985,2.3361,-1.3303,-0.1438,
6.881063,0.1290,-0.8758,0.1846,-1.7412,0.9261,2.0985,2.3361,-1.3303,-0.1438,
6.882684,0.1290,-0.8758,0.1846,-2.6033,0.4074,1.1900,2.3361,-1.3303,-0.1438,
6.888474,0.1290,-0.8758,0.1846,-2.6033,0.4074,1.1900,2.4204,-1.0634,-0.1309,
6.898553,0.1290,-0.8758,0.1846,-2.6033,0.4074,1.1900,2.5322,-0.9583,-0.1022,
6.900767,0.0844,-0.9865,0.2166,-2.6033,0.4074,1.1900,2.5322,-0.9583,-0.1022,
6.902084,0.0844,-0.9865,0.2166,-3.0312,-0.7114,1.0894,2.5322,-0.9583,-0.1022,
6.908390,0.0844,-0.9865,0.2166,-3.0312,-0.7114,1.0894,2.5865,-0.9742,-0.1053,
6.918701,0.0844,-0.9865,0.2166,-3.0312,-0.7114,1.0894,2.4778,-1.0078,-0.1590,
6.920699,0.2794,-1.1778,-0.0876,-3.0312,-0.7114,1.0894,2.4778,-1.0078,-0.1590,
6.922793,0.2794,-1.1778,-0.0876,-1.1244,-2.6381,-2.2606,2.4778,-1.0078,-0.1590,
6.929305,0.2794,-1.1778,-0.0876,-1.1244,-2.6381,-2.2606,2.2420,-1.0047,-0.2476,
6.938934,0.2794,-1.1778,-0.0876,-1.1244,-2.6381,-2.2606,1.9665,-1.0597,-0.3600,
6.941526,0.6510,-1.3481,-0.1652,-1.1244,-2.6381,-2.2606,1.9665,-1.0597,-0.3600,
6.943586,0.6510,-1.3481,-0.1652,2.4562,-4.3757,-3.2658,1.9665,-1.0597,-0.3600,
6.948956,0.6510,-1.3481,-0.1652,2.4562,-4.3757,-3.2658,1.6489,-1.0689,-0.4675,
6.959090,0.6510,-1.3481,-0.1652,2.4562,-4.3757,-3.2658,1.2359,-0.8147,-0.5396,
6.961909,0.8388,-1.1596,-0.3209,2.4562,-4.3757,-3.2658,1.2359,-0.8147,-0.5396,
6.964363,0.8388,-1.1596,-0.3209,4.1705,-2.6030,-4.8802,1.2359,-0.8147,-0.5396,
6.968428,0.8388,-1.1596,-0.3209,4.1705,-2.6030,-4.8802,0.6703,-0.2570,-0.5011,
6.979041,0.8388,-1.1596,-0.3209,4.1705,-2.6030,-4.8802,-0.0292,0.3758,-0.3508,
6.981838,0.7058,-0.8298,-0.3993,4.1705,-2.6030,-4.8802,-0.0292,0.3758,-0.3508,
6.983746,0.7058,-0.8298,-0.3993,2.7646,0.5928,-5.5891,-0.0292,0.3758,-0.3508,
6.988817,0.7058,-0.8298,-0.3993,2.7646,0.5928,-5.5891,-0.7121,0.7686,-0.1822,
6.998854,0.7058,-0.8298,-0.3993,2.7646,0.5928,-5.5891,-1.3004,0.9415,-0.1187,
7.002064,0.7085,-0.7131,-0.2673,2.7646,0.5928,-5.5891,-1.3004,0.9415,-0.1187,
7.004105,0.7085,-0.7131,-0.2673,2.7395,1.7525,-4.0652,-1.3004,0.9415,-0.1187,
7.009304,0.7085,-0.7131,-0.2673,2.7395,1.7525,-4.0652,-1.7598,1.0869,-0.1737,
7.018486,0.7085,-0.7131,-0.2673,2.7395,1.7525,-4.0652,-2.0988,1.2268,-0.2629,
7.020857,0.5996,-0.9193,-0.1619,2.7395,1.7525,-4.0652,-2.0988,1.2268,-0.2629,
7.024232,0.5996,-0.9193,-0.1619,1.6160,-0.2449,-2.6823,-2.0988,1.2268,-0.2629,
7.029285,0.5996,-0.9193,-0.1619,1.6160,-0.2449,-2.6823,-2.3047,1.2066,-0.3185,
7.038552,0.5996,-0.9193,-0.1619,1.6160,-0.2449,-2.6823,-2.3095,0.9024,-0.2726,
7.040667,0.1862,-1.3107,0.0782,1.6160,-0.2449,-2.6823,-2.3095,0.9024,-0.2726,
7.042584,0.1862,-1.3107,0.0782,-2.4647,-4.0548,0.0524,-2.3095,0.9024,-0.2726,
7.048303,0.1862,-1.3107,0.0782,-2.4647,-4.0548,0.0524,-2.1025,0.4876,0.0865,
7.058878,0.1862,-1.3107,0.0782,-2.4647,-4.0548,0.0524,-2.1855,0.9659,0.2612,
7.062010,0.0536,-1.3273,-0.2030,-2.4647,-4.0548,0.0524,-2.1855,0.9659,0.2612,
7.064233,0.0536,-1.3273,-0.2030,-3.6802,-4.1551,-2.3278,-2.1855,0.9659,0.2612,
7.068271,0.0536,-1.3273,-0.2030,-3.6802,-4.1551,-2.3278,-2.3474,1.5469,0.4048,
7.078314,0.0536,-1.3273,-0.2030,-3.6802,-4.1551,-2.3278,-2.4678,1.9537,0.5355,
7.080694,-0.1036,-1.1972,-0.1334,-3.6802,-4.1551,-2.3278,-2.4678,1.9537,0.5355,
7.082254,-0.1036,-1.1972,-0.1334,-5.0505,-2.7949,-1.3165,-2.4678,1.9537,0.5355,
7.088499,-0.1036,-1.1972,-0.1334,-5.0505,-2.7949,-1.3165,-2.5295,2.1907,0.6608,
7.098449,-0.1036,-1.1972,-0.1334,-5.0505,-2.7949,-1.3165,-2.5356,2.2646,0.7664,
7.101018,-0.2202,-1.0596,0.0911,-5.0505,-2.7949,-1.3165,-2.5356,2.2646,0.7664,
7.102673,-0.2202,-1.0596,0.0911,-5.9602,-1.3484,1.1758,-2.5356,2.2646,0.7664,
7.108376,-0.2202,-1.0596,0.0911,-5.9602,-1.3484,1.1758,-2.4048,2.1657,0.8379,
7.118262,-0.2202,-1.0596,0.0911,-5.9602,-1.3484,1.1758,-2.0059,1.8572,0.8061,
7.119929,-0.0261,-1.0506,0.5126,-5.9602,-1.3484,1.1758,-2.0059,1.8572,0.8061,
7.121983,-0.0261,-1.0506,0.5126,-3.8117,-1.1695,5.5030,-2.0059,1.8572,0.8061,
7.128471,-0.0261,-1.0506,0.5126,-3.8117,-1.1695,5.5030,-1.5857,1.4858,0.5557,
7.138555,-0.0261,-1.0506,0.5126,-3.8117,-1.1695,5.5030,-1.4421,1.3410,0.2496,
7.140653,0.1524,-1.0079,-0.1082,-3.8117,-1.1695,5.5030,-1.4421,1.3410,0.2496,
7.142353,0.1524,-1.0079,-0.1082,-1.9036,-0.6989,-0.4415,-1.4421,1.3410,0.2496,
7.148371,0.1524,-1.0079,-0.1082,-1.9036,-0.6989,-0.4415,-1.4427,1.4265,0.1220,
7.158171,0.1524,-1.0079,-0.1082,-1.9036,-0.6989,-0.4415,-1.2589,1.5176,0.1287,
7.160938,0.2366,-0.8043,0.4106,-1.9036,-0.6989,-0.4415,-1.2589,1.5176,0.1287,
7.162620,0.2366,-0.8043,0.4106,-0.9976,1.3218,4.7069,-1.2589,1.5176,0.1287,
7.168184,0.2366,-0.8043,0.4106,-0.9976,1.3218,4.7069,-0.6633,1.3819,0.1684,
7.178920,0.2366,-0.8043,0.4106,-0.9976,1.3218,4.7069,0.1162,0.9256,0.1959,
7.181978,0.4003,-0.6634,0.5005,-0.9976,1.3218,4.7069,0.1162,0.9256,0.1959,
7.183892,0.4003,-0.6634,0.5005,0.6650,2.7328,5.4386,0.1162,0.9256,0.1959,
7.188931,0.4003,-0.6634,0.5005,0.6650,2.7328,5.4386,0.6031,0.3038,0.2167,
7.198797,0.4003,-0.6634,0.5005,0.6650,2.7328,5.4386,0.6532,-0.1990,0.2160,
7.201539,0.4845,-0.6866,-0.0605,0.6650,2.7328,5.4386,0.6532,-0.1990,0.2160,
7.203595,0.4845,-0.6866,-0.0605,1.5326,2.5298,-0.2619,0.6532,-0.1990,0.2160,
7.210730,0.4845,-0.6866,-0.0605,1.5326,2.5298,-0.2619,0.4510,-0.4311,0.1476,
7.218261,0.4845,-0.6866,-0.0605,1.5326,2.5298,-0.2619,0.2451,-0.5038,-0.0136,
7.220021,0.8922,-0.8635,0.2582,1.5326,2.5298,-0.2619,0.2451,-0.5038,-0.0136,
7.221906,0.8922,-0.8635,0.2582,5.4870,0.7854,2.7411,0.2451,-0.5038,-0.0136,
7.228236,0.8922,-0.8635,0.2582,5.4870,0.7854,2.7411,0.2139,-0.6009,-0.2513,
7.238074,0.8922,-0.8635,0.2582,5.4870,0.7854,2.7411,0.4992,-0.6687,-0.5958,
7.239881,0.8487,-0.9249,0.1223,5.4870,0.7854,2.7411,0.4992,-0.6687,-0.5958,
7.241510,0.8487,-0.9249,0.1223,4.9035,0.1280,1.3144,0.4992,-0.6687,-0.5958,
7.248192,0.8487,-0.9249,0.1223,4.9035,0.1280,1.3144,0.4894,-0.3505,-0.5317,
7.258182,0.8487,-0.9249,0.1223,4.9035,0.1280,1.3144,0.4100,0.0112,-0.3130,
7.260711,0.6817,-0.8215,0.1212,4.9035,0.1280,1.3144,0.4100,0.0112,-0.3130,
7.262440,0.6817,-0.8215,0.1212,3.1027,1.0800,1.1729,0.4100,0.0112,-0.3130,
7.268122,0.6817,-0.8215,0.1212,3.1027,1.0800,1.1729,0.3532,0.2274,-0.0136,
7.278043,0.6817,-0.8215,0.1212,3.1027,1.0800,1.1729,0.2854,0.4015,0.2038,
7.280113,0.6428,-0.7873,0.0853,3.1027,1.0800,1.1729,0.2854,0.4015,0.2038,
7.281363,0.6428,-0.7873,0.0853,2.6467,1.3847,0.6925,0.2854,0.4015,0.2038,
7.288067,0.6428,-0.7873,0.0853,2.6467,1.3847,0.6925,0.1791,0.6373,0.2588,
7.298279,0.6428,-0.7873,0.0853,2.6467,1.3847,0.6925,0.0655,0.8761,0.2295,
7.300813,0.5493,-0.8001,0.0568,2.6467,1.3847,0.6925,0.0655,0.8761,0.2295,
7.302216,0.5493,-0.8001,0.0568,1.6907,1.2403,0.3010,0.0655,0.8761,0.2295,
7.308579,0.5493,-0.8001,0.0568,1.6907,1.2403,0.3010,-0.0390,1.0777,0.1971,
7.318322,0.5493,-0.8001,0.0568,1.6907,1.2403,0.3010,-0.1324,1.2347,0.1892,
7.320115,0.4864,-0.8586,-0.0363,1.6907,1.2403,0.3010,-0.1324,1.2347,0.1892,
7.321947,0.4864,-0.8586,-0.0363,1.0403,0.6502,-0.6962,-0.1324,1.2347,0.1892,
7.328336,0.4864,-0.8586,-0.0363,1.0403,0.6502,-0.6962,-0.2057,1.3404,0.2118,
7.338494,0.4864,-0.8586,-0.0363,1.0403,0.6502,-0.6962,-0.2466,1.3746,0.2490,
7.340539,0.5256,-0.9898,-0.0945,1.0403,0.6502,-0.6962,-0.2466,1.3746,0.2490,
7.342183,0.5256,-0.9898,-0.0945,1.4123,-0.6427,-1.3211,-0.2466,1.3746,0.2490,
7.348516,0.5256,-0.9898,-0.0945,1.4123,-0.6427,-1.3211,-0.2528,1.2830,0.2649,
7.358845,0.5256,-0.9898,-0.0945,1.4123,-0.6427,-1.3211,-0.2350,1.0527,0.2356,
7.361036,0.5788,-0.9866,-0.1480,1.4123,-0.6427,-1.3211,-0.2350,1.0527,0.2356,
7.363231,0.5788,-0.9866,-0.1480,1.9273,-0.6148,-1.8628,-0.2350,1.0527,0.2356,
7.368291,0.5788,-0.9866,-0.1480,1.9273,-0.6148,-1.8628,-0.2112,0.7857,0.1684,
7.378365,0.5788,-0.9866,-0.1480,1.9273,-0.6148,-1.8628,-0.2033,0.6342,0.0994,
7.381245,0.5228,-0.8361,-0.1235,1.9273,-0.6148,-1.8628,-0.2033,0.6342,0.0994,
7.383396,0.5228,-0.8361,-0.1235,1.3489,0.8484,-1.6023,-0.2033,0.6342,0.0994,
7.388746,0.5228,-0.8361,-0.1235,1.3489,0.8484,-1.6023,-0.2283,0.6208,0.0615,
7.398650,0.5228,-0.8361,-0.1235,1.3489,0.8484,-1.6023,-0.2717,0.5903,0.0413,
7.401181,0.4556,-0.8258,-0.0228,1.3489,0.8484,-1.6023,-0.2717,0.5903,0.0413,
7.402818,0.4556,-0.8258,-0.0228,0.6526,0.9355,-0.5855,-0.2717,0.5903,0.0413,
7.409514,0.4556,-0.8258,-0.0228,0.6526,0.9355,-0.5855,-0.3035,0.4730,0.0175,
7.418372,0.4556,-0.8258,-0.0228,0.6526,0.9355,-0.5855,-0.3016,0.3429,-0.0375,
7.420344,0.4153,-0.9027,0.0018,0.6526,0.9355,-0.5855,-0.3016,0.3429,-0.0375,
7.422594,0.4153,-0.9027,0.0018,0.2272,0.1701,-0.3009,-0.3016,0.3429,-0.0375,
7.428806,0.4153,-0.9027,0.0018,0.2272,0.1701,-0.3009,-0.2491,0.3361,-0.0521,
7.439224,0.4153,-0.9027,0.0018,0.2272,0.1701,-0.3009,-0.1245,0.2470,-0.0576,
7.441778,0.3676,-1.0012,0.1264,0.2272,0.1701,-0.3009,-0.1245,0.2470,-0.0576,
7.444096,0.3676,-1.0012,0.1264,-0.2588,-0.8019,0.9346,-0.1245,0.2470,-0.0576,
7.448891,0.3676,-1.0012,0.1264,-0.2588,-0.8019,0.9346,0.0753,0.0490,-0.0454,
7.459267,0.3676,-1.0012,0.1264,-0.2588,-0.8019,0.9346,0.2842,-0.1587,-0.0136,
7.462011,0.2739,-0.9744,0.1146,-0.2588,-0.8019,0.9346,0.2842,-0.1587,-0.0136,
7.464435,0.2739,-0.9744,0.1146,-1.1831,-0.5434,0.7900,0.2842,-0.1587,-0.0136,
7.468401,0.2739,-0.9744,0.1146,-1.1831,-0.5434,0.7900,0.4235,-0.2613,0.0193,
7.478527,0.2739,-0.9744,0.1146,-1.1831,-0.5434,0.7900,0.4668,-0.2607,0.0401,
7.481173,0.2466,-0.8510,-0.0336,-1.1831,-0.5434,0.7900,0.4668,-0.2607,0.0401,
7.483333,0.2466,-0.8510,-0.0336,-1.4444,0.6658,-0.7201,0.4668,-0.2607,0.0401,
7.488476,0.2466,-0.8510,-0.0336,-1.4444,0.6658,-0.7201,0.4436,-0.1886,0.0303,
7.498351,0.2466,-0.8510,-0.0336,-1.4444,0.6658,-0.7201,0.3942,-0.0603,-0.0124,
7.501322,0.3032,-0.7686,-0.1060,-1.4444,0.6658,-0.7201,0.3942,-0.0603,-0.0124,
7.503314,0.3032,-0.7686,-0.1060,-0.8857,1.4731,-1.4850,0.3942,-0.0603,-0.0124,
7.509319,0.3032,-0.7686,-0.1060,-0.8857,1.4731,-1.4850,0.3355,0.1602,-0.0863,
7.519016,0.3032,-0.7686,-0.1060,-0.8857,1.4731,-1.4850,0.2915,0.4314,-0.1590,
7.521128,0.3660,-0.8355,-0.0718,-0.8857,1.4731,-1.4850,0.2915,0.4314,-0.1590,
7.523477,0.3660,-0.8355,-0.0718,-0.2864,0.8071,-1.2105,0.2915,0.4314,-0.1590,
7.528815,0.3660,-0.8355,-0.0718,-0.2864,0.8071,-1.2105,0.3166,0.5542,-0.1963,
7.538514,0.3660,-0.8355,-0.0718,-0.2864,0.8071,-1.2105,0.4198,0.4119,-0.1969,
7.541352,0.4091,-0.9141,-0.0567,-0.2864,0.8071,-1.2105,0.4198,0.4119,-0.1969,
7.543711,0.4091,-0.9141,-0.0567,0.1083,0.0205,-1.1409,0.4198,0.4119,-0.1969,
7.548477,0.4091,-0.9141,-0.0567,0.1083,0.0205,-1.1409,0.4681,0.2372,-0.2164,
7.559388,0.4091,-0.9141,-0.0567,0.1083,0.0205,-1.1409,0.3221,0.3685,-0.3081,
7.562390,0.5154,-0.8873,-0.2599,0.1083,0.0205,-1.1409,0.3221,0.3685,-0.3081,
7.564763,0.5154,-0.8873,-0.2599,1.0978,0.2580,-3.1618,0.3221,0.3685,-0.3081,
7.568583,0.5154,-0.8873,-0.2599,1.0978,0.2580,-3.1618,0.0930,0.6636,-0.4180,
7.578919,0.5154,-0.8873,-0.2599,1.0978,0.2580,-3.1618,-0.0445,0.8884,-0.4932,
7.581756,0.5773,-0.7035,-0.0695,1.0978,0.2580,-3.1618,-0.0445,0.8884,-0.4932,
7.584024,0.5773,-0.7035,-0.0695,1.6043,2.0144,-1.2974,-0.0445,0.8884,-0.4932,
7.589272,0.5773,-0.7035,-0.0695,1.6043,2.0144,-1.2974,-0.0903,1.0722,-0.5628,
7.598284,0.5773,-0.7035,-0.0695,1.6043,2.0144,-1.2974,-0.1080,1.2671,-0.7510,
7.600535,0.6087,-0.7697,-0.0028,1.6043,2.0144,-1.2974,-0.1080,1.2671,-0.7510,
7.602262,0.6087,-0.7697,-0.0028,1.7703,1.2981,-0.6673,-0.1080,1.2671,-0.7510,
7.608984,0.6087,-0.7697,-0.0028,1.7703,1.2981,-0.6673,-0.0548,1.5377,-0.8475,
7.618293,0.6087,-0.7697,-0.0028,1.7703,1.2981,-0.6673,-0.0952,1.7271,-0.9244,
7.620056,0.5658,-1.0598,-0.1345,1.7703,1.2981,-0.6673,-0.0952,1.7271,-0.9244,
7.621683,0.5658,-1.0598,-0.1345,1.1901,-1.6275,-2.0207,-0.0952,1.7271,-0.9244,
7.628562,0.5658,-1.0598,-0.1345,1.1901,-1.6275,-2.0207,-0.1892,1.9348,-0.9470,
7.639651,0.5658,-1.0598,-0.1345,1.1901,-1.6275,-2.0207,-0.2369,2.0056,-0.9079,
7.641537,0.4672,-1.3063,-0.1203,1.1901,-1.6275,-2.0207,-0.2369,2.0056,-0.9079,
7.643877,0.4672,-1.3063,-0.1203,0.0937,-4.1154,-1.9539,-0.2369,2.0056,-0.9079,
7.648304,0.4672,-1.3063,-0.1203,0.0937,-4.1154,-1.9539,-0.2552,1.8969,-0.8279,
7.658855,0.4672,-1.3063,-0.1203,0.0937,-4.1154,-1.9539,-0.2521,1.6648,-0.7369,
7.661515,0.3259,-1.2176,-0.0954,0.0937,-4.1154,-1.9539,-0.2521,1.6648,-0.7369,
7.663289,0.3259,-1.2176,-0.0954,-1.3708,-3.2925,-1.7598,-0.2521,1.6648,-0.7369,
7.668256,0.3259,-1.2176,-0.0954,-1.3708,-3.2925,-1.7598,-0.1672,1.3569,-0.6257,
7.678736,0.3259,-1.2176,-0.0954,-1.3708,-3.2925,-1.7598,0.0069,1.0796,-0.4828,
7.681088,0.1551,-1.1079,0.0622,-1.3708,-3.2925,-1.7598,0.0069,1.0796,-0.4828,
7.682343,0.1551,-1.1079,0.0622,-3.0653,-2.2329,-0.2594,0.0069,1.0796,-0.4828,
7.688425,0.1551,-1.1079,0.0622,-3.0653,-2.2329,-0.2594,0.2280,0.9201,-0.3374,
7.698437,0.1551,-1.1079,0.0622,-3.0653,-2.2329,-0.2594,0.4540,0.8578,-0.2476,
7.700681,0.1782,-1.0971,0.1769,-3.0653,-2.2329,-0.2594,0.4540,0.8578,-0.2476,
7.702316,0.1782,-1.0971,0.1769,-2.8034,-2.1186,0.7599,0.4540,0.8578,-0.2476,
7.708947,0.1782,-1.0971,0.1769,-2.8034,-2.1186,0.7599,0.6880,0.7851,-0.2470,
7.718579,0.1782,-1.0971,0.1769,-2.8034,-2.1186,0.7599,0.9073,0.6397,-0.3490,
7.720965,0.2753,-1.0874,0.3031,-2.8034,-2.1186,0.7599,0.9073,0.6397,-0.3490,
7.722946,0.2753,-1.0874,0.3031,-1.8150,-2.0281,1.8085,0.9073,0.6397,-0.3490,
7.728372,0.2753,-1.0874,0.3031,-1.8150,-2.0281,1.8085,1.0685,0.4229,-0.5292,
7.738581,0.2753,-1.0874,0.3031,-1.8150,-2.0281,1.8085,1.1388,0.2268,-0.7143,
7.740957,0.3149,-0.9368,0.4086,-1.8150,-2.0281,1.8085,1.1388,0.2268,-0.7143,
7.742734,0.3149,-0.9368,0.4086,-1.4548,-0.6005,2.6143,1.1388,0.2268,-0.7143,
7.749119,0.3149,-0.9368,0.4086,-1.4548,-0.6005,2.6143,1.0991,0.1303,-0.8224,
7.760489,0.3149,-0.9368,0.4086,-1.4548,-0.6005,2.6143,0.9525,0.1236,-0.8249,
7.763244,0.3020,-0.6606,0.3997,-1.4548,-0.6005,2.6143,0.9525,0.1236,-0.8249,
