
time,gFx,gFy,gFz,ax,ay,az,wx,wy,wz,
0.067208,-0.3452,0.2634,0.9609,0.0000,0.0000,0.0000,0.0000,0.0000,0.0000,
0.067882,-0.2471,0.2094,0.9176,0.0000,0.0000,0.0000,0.0000,0.0000,0.0000,
0.068439,-0.2471,0.2094,0.9176,-0.0020,0.3285,-0.3533,0.0000,0.0000,0.0000,
0.068890,-0.2415,0.1720,0.9328,-0.0020,0.3285,-0.3533,0.0000,0.0000,0.0000,
0.069313,-0.2415,0.1720,0.9328,0.0530,-0.0378,-0.2048,0.0000,0.0000,0.0000,
0.096414,-0.2575,0.1275,0.9941,0.0530,-0.0378,-0.2048,0.0000,0.0000,0.0000,
0.097650,-0.2575,0.1275,0.9941,-0.0832,0.0412,0.3210,0.0000,0.0000,0.0000,
0.100864,-0.2514,0.1075,1.0137,-0.0832,0.0412,0.3210,0.0000,0.0000,0.0000,
0.102202,-0.2514,0.1075,1.0137,-0.1157,0.0494,0.4664,0.0000,0.0000,0.0000,
0.122113,-0.2641,0.1016,0.9999,-0.1157,0.0494,0.4664,0.0000,0.0000,0.0000,
0.123575,-0.2641,0.1016,0.9999,-0.0960,0.0369,0.3634,0.0000,0.0000,0.0000,
0.132351,-0.2641,0.1016,0.9999,-0.0960,0.0369,0.3634,0.0809,-0.5576,-0.6176,
0.141062,-0.2674,0.0844,0.9196,-0.0960,0.0369,0.3634,0.0809,-0.5576,-0.6176,
0.142550,-0.2674,0.0844,0.9196,0.1072,-0.0338,-0.3685,0.0809,-0.5576,-0.6176,
0.143607,-0.2674,0.0844,0.9196,0.1072,-0.0338,-0.3685,0.2294,-0.5149,-0.6268,
0.154294,-0.2674,0.0844,0.9196,0.1072,-0.0338,-0.3685,0.3295,-0.4520,-0.6140,
0.161188,-0.2606,0.0616,0.7936,0.1072,-0.0338,-0.3685,0.3295,-0.4520,-0.6140,
0.162556,-0.2606,0.0616,0.7936,0.4973,-0.1175,-1.5146,0.3295,-0.4520,-0.6140,
0.163737,-0.2606,0.0616,0.7936,0.4973,-0.1175,-1.5146,0.3558,-0.4000,-0.5773,
0.172454,-0.2606,0.0616,0.7936,0.4973,-0.1175,-1.5146,0.3063,-0.3689,-0.5388,
0.181245,-0.2218,0.0322,0.7015,0.4973,-0.1175,-1.5146,0.3063,-0.3689,-0.5388,
0.182882,-0.2218,0.0322,0.7015,0.7799,-0.1134,-2.4664,0.3063,-0.3689,-0.5388,
0.183988,-0.2218,0.0322,0.7015,0.7799,-0.1134,-2.4664,0.1927,-0.3457,-0.5248,
0.192273,-0.2218,0.0322,0.7015,0.7799,-0.1134,-2.4664,0.0217,-0.3964,-0.6115,
0.200978,-0.1848,-0.0002,0.6690,0.7799,-0.1134,-2.4664,0.0217,-0.3964,-0.6115,
0.202693,-0.1848,-0.0002,0.6690,0.8000,0.0011,-2.8961,0.0217,-0.3964,-0.6115,
0.204159,-0.1848,-0.0002,0.6690,0.8000,0.0011,-2.8961,-0.4224,-0.4990,-0.7099,
0.212354,-0.1848,-0.0002,0.6690,0.8000,0.0011,-2.8961,-0.6607,-0.6743,-0.8284,
0.221179,-0.1181,-0.0944,0.7312,0.8000,0.0011,-2.8961,-0.6607,-0.6743,-0.8284,
0.223230,-0.1181,-0.0944,0.7312,0.3938,0.3148,-2.4376,-0.6607,-0.6743,-0.8284,
0.224976,-0.1181,-0.0944,0.7312,0.3938,0.3148,-2.4376,-0.8904,-0.8906,-0.9616,
0.232445,-0.1181,-0.0944,0.7312,0.3938,0.3148,-2.4376,-1.0846,-1.0879,-1.1100,
0.241053,-0.0432,-0.1450,0.7848,0.3938,0.3148,-2.4376,-1.0846,-1.0879,-1.1100,
0.242948,-0.0432,-0.1450,0.7848,0.1068,0.3580,-1.9380,-1.0846,-1.0879,-1.1100,
0.244025,-0.0432,-0.1450,0.7848,0.1068,0.3580,-1.9380,-1.2141,-1.2406,-1.2872,
0.254374,-0.0432,-0.1450,0.7848,0.1068,0.3580,-1.9380,-1.2679,-1.3182,-1.4881,
0.261225,-0.0318,-0.1649,0.7638,0.1068,0.3580,-1.9380,-1.2679,-1.3182,-1.4881,
0.262693,-0.0318,-0.1649,0.7638,0.0870,0.4517,-2.0924,-1.2679,-1.3182,-1.4881,
0.264070,-0.0318,-0.1649,0.7638,0.0870,0.4517,-2.0924,-1.2660,-1.3206,-1.6983,
0.272352,-0.0318,-0.1649,0.7638,0.0870,0.4517,-2.0924,-1.2624,-1.2668,-1.8913,
0.280993,-0.1256,-0.1386,0.7346,0.0870,0.4517,-2.0924,-1.2624,-1.2668,-1.8913,
0.282369,-0.1256,-0.1386,0.7346,0.3938,0.4348,-2.3040,-1.2624,-1.2668,-1.8913,
0.283532,-0.1256,-0.1386,0.7346,0.3938,0.4348,-2.3040,-1.3235,-1.1581,-2.0251,
0.292515,-0.1256,-0.1386,0.7346,0.3938,0.4348,-2.3040,-1.4682,-1.0219,-2.0550,
0.301005,-0.2614,-0.1051,0.8001,0.3938,0.4348,-2.3040,-1.4682,-1.0219,-2.0550,
0.303968,-0.2614,-0.1051,0.8001,0.4603,0.1850,-1.4090,-1.4682,-1.0219,-2.0550,
0.305321,-0.2614,-0.1051,0.8001,0.4603,0.1850,-1.4090,-1.6503,-0.8160,-1.9780,
0.312431,-0.2614,-0.1051,0.8001,0.4603,0.1850,-1.4090,-1.8067,-0.5637,-1.8064,
0.321304,-0.2612,-0.1311,0.9048,0.4603,0.1850,-1.4090,-1.8067,-0.5637,-1.8064,
0.322692,-0.2612,-0.1311,0.9048,0.1343,0.0674,-0.4651,-1.8067,-0.5637,-1.8064,
0.324171,-0.2612,-0.1311,0.9048,0.1343,0.0674,-0.4651,-1.9062,-0.3151,-1.5688,
0.332208,-0.2612,-0.1311,0.9048,0.1343,0.0674,-0.4651,-1.9520,-0.0989,-1.3311,
0.340703,-0.1036,-0.2419,0.9607,0.1343,0.0674,-0.4651,-1.9520,-0.0989,-1.3311,
0.341797,-0.1036,-0.2419,0.9607,0.0047,0.0109,-0.0432,-1.9520,-0.0989,-1.3311,
0.342694,-0.1036,-0.2419,0.9607,0.0047,0.0109,-0.0432,-1.9722,0.0465,-1.1625,
0.352132,-0.1036,-0.2419,0.9607,0.0047,0.0109,-0.0432,-2.0021,0.1571,-1.1204,
0.360664,0.0706,-0.3226,0.9322,0.0047,0.0109,-0.0432,-2.0021,0.1571,-1.1204,
0.361658,0.0706,-0.3226,0.9322,-0.0082,0.0376,-0.1086,-2.0021,0.1571,-1.1204,
0.362499,0.0706,-0.3226,0.9322,-0.0082,0.0376,-0.1086,-2.0565,0.2640,-1.2016,
0.372204,0.0706,-0.3226,0.9322,-0.0082,0.0376,-0.1086,-2.1408,0.3409,-1.3647,
0.380759,0.1125,-0.3937,0.8806,-0.0082,0.0376,-0.1086,-2.1408,0.3409,-1.3647,
0.381578,0.1125,-0.3937,0.8806,-0.0335,0.1173,-0.2625,-2.1408,0.3409,-1.3647,
0.382322,0.1125,-0.3937,0.8806,-0.0335,0.1173,-0.2625,-2.4487,0.2890,-1.7386,
0.392006,0.1125,-0.3937,0.8806,-0.0335,0.1173,-0.2625,-2.6674,0.2298,-1.9292,
0.400746,0.1287,-0.4945,0.9489,-0.0335,0.1173,-0.2625,-2.6674,0.2298,-1.9292,
0.401767,0.1287,-0.4945,0.9489,0.0902,-0.3464,0.6647,-2.6674,0.2298,-1.9292,
0.402731,0.1287,-0.4945,0.9489,0.0902,-0.3464,0.6647,-2.8610,0.2035,-2.1326,
0.412014,0.1287,-0.4945,0.9489,0.0902,-0.3464,0.6647,-2.9630,0.1925,-2.3342,
0.420740,0.0264,-0.5086,1.0398,0.0902,-0.3464,0.6647,-2.9630,0.1925,-2.3342,
0.421980,0.0264,-0.5086,1.0398,0.0351,-0.6765,1.3829,-2.9630,0.1925,-2.3342,
0.422924,0.0264,-0.5086,1.0398,0.0351,-0.6765,1.3829,-2.9642,0.1888,-2.4930,
0.432074,0.0264,-0.5086,1.0398,0.0351,-0.6765,1.3829,-2.8940,0.1943,-2.5730,
0.440569,-0.0335,-0.4915,0.9897,0.0351,-0.6765,1.3829,-2.8940,0.1943,-2.5730,
0.441665,-0.0335,-0.4915,0.9897,-0.0311,-0.4569,0.9199,-2.8940,0.1943,-2.5730,
0.442542,-0.0335,-0.4915,0.9897,-0.0311,-0.4569,0.9199,-2.7969,0.1540,-2.5742,
0.452632,-0.0335,-0.4915,0.9897,-0.0311,-0.4569,0.9199,-2.7352,0.0319,-2.5278,
0.461246,-0.0077,-0.5003,0.8199,-0.0311,-0.4569,0.9199,-2.7352,0.0319,-2.5278,
0.463292,-0.0077,-0.5003,0.8199,0.0032,0.2049,-0.3358,-2.7352,0.0319,-2.5278,
0.464563,-0.0077,-0.5003,0.8199,0.0032,0.2049,-0.3358,-2.7761,-0.1441,-2.4429,
0.472649,-0.0077,-0.5003,0.8199,0.0032,0.2049,-0.3358,-2.9410,-0.3414,-2.3207,
0.481474,0.0948,-0.5345,0.7495,0.0032,0.2049,-0.3358,-2.9410,-0.3414,-2.3207,
0.483519,0.0948,-0.5345,0.7495,-0.0755,0.4256,-0.5968,-2.9410,-0.3414,-2.3207,
0.484733,0.0948,-0.5345,0.7495,-0.0755,0.4256,-0.5968,-3.1939,-0.5753,-2.1735,
0.492879,0.0948,-0.5345,0.7495,-0.0755,0.4256,-0.5968,-3.4743,-0.8185,-2.0300,
0.501428,0.3117,-0.6269,0.7980,-0.0755,0.4256,-0.5968,-3.4743,-0.8185,-2.0300,
0.504235,0.3117,-0.6269,0.7980,0.1753,-0.3526,0.4489,-3.4743,-0.8185,-2.0300,
0.506139,0.3117,-0.6269,0.7980,0.1753,-0.3526,0.4489,-3.7284,-1.0231,-1.9249,
0.512899,0.3117,-0.6269,0.7980,0.1753,-0.3526,0.4489,-3.9147,-1.1422,-1.9029,
0.522945,0.5129,-0.6844,0.9489,0.1753,-0.3526,0.4489,-3.9147,-1.1422,-1.9029,
0.525318,0.5129,-0.6844,0.9489,1.0891,-1.4533,2.0148,-3.9147,-1.1422,-1.9029,
0.527974,0.5129,-0.6844,0.9489,1.0891,-1.4533,2.0148,-4.0100,-1.1844,-1.9567,
0.532931,0.5129,-0.6844,0.9489,1.0891,-1.4533,2.0148,-4.0168,-1.2253,-2.0636,
0.541666,0.7203,-0.7350,1.1330,1.0891,-1.4533,2.0148,-4.0168,-1.2253,-2.0636,
0.544260,0.7203,-0.7350,1.1330,2.4440,-2.4938,3.8441,-4.0168,-1.2253,-2.0636,
0.546424,0.7203,-0.7350,1.1330,2.4440,-2.4938,3.8441,-3.9416,-1.3310,-2.2395,
0.554016,0.7203,-0.7350,1.1330,2.4440,-2.4938,3.8441,-3.8207,-1.5350,-2.4887,
0.561616,0.8557,-0.6954,1.1363,2.4440,-2.4938,3.8441,-3.8207,-1.5350,-2.4887,
0.564207,0.8557,-0.6954,1.1363,3.0858,-2.5079,4.0977,-3.8207,-1.5350,-2.4887,
0.566374,0.8557,-0.6954,1.1363,3.0858,-2.5079,4.0977,-3.6796,-1.9474,-3.0923,
0.573166,0.8557,-0.6954,1.1363,3.0858,-2.5079,4.0977,-3.6765,-2.0518,-3.2254,
0.582180,0.7777,-0.4929,1.3045,3.0858,-2.5079,4.0977,-3.6765,-2.0518,-3.2254,
0.584234,0.7777,-0.4929,1.3045,2.8452,-1.8031,4.7720,-3.6765,-2.0518,-3.2254,
0.586295,0.7777,-0.4929,1.3045,2.8452,-1.8031,4.7720,-3.6344,-2.1605,-3.1283,
0.593073,0.7777,-0.4929,1.3045,2.8452,-1.8031,4.7720,-3.4548,-2.3053,-2.8510,
0.602260,0.8910,-0.1366,1.4832,2.8452,-1.8031,4.7720,-3.4548,-2.3053,-2.8510,
0.604435,0.8910,-0.1366,1.4832,3.6974,-0.5667,6.1548,-3.4548,-2.3053,-2.8510,
0.606670,0.8910,-0.1366,1.4832,3.6974,-0.5667,6.1548,-3.1231,-2.4678,-2.5168,
0.613188,0.8910,-0.1366,1.4832,3.6974,-0.5667,6.1548,-2.7291,-2.6175,-2.2401,
0.623631,0.9896,-0.1968,1.3699,3.6974,-0.5667,6.1548,-2.7291,-2.6175,-2.2401,
0.626064,0.9896,-0.1968,1.3699,3.9940,-0.7943,5.5292,-2.7291,-2.6175,-2.2401,
0.628582,0.9896,-0.1968,1.3699,3.9940,-0.7943,5.5292,-2.3796,-2.7299,-2.0752,
0.632868,0.9896,-0.1968,1.3699,3.9940,-0.7943,5.5292,-2.0999,-2.7561,-1.9951,
0.641608,0.9324,-0.2862,1.2896,3.9940,-0.7943,5.5292,-2.0999,-2.7561,-1.9951,
0.644459,0.9324,-0.2862,1.2896,3.4823,-1.0689,4.8163,-2.0999,-2.7561,-1.9951,
0.646875,0.9324,-0.2862,1.2896,3.4823,-1.0689,4.8163,-1.8574,-2.7170,-1.9561,
0.653088,0.9324,-0.2862,1.2896,3.4823,-1.0689,4.8163,-1.6417,-2.6450,-1.9280,
0.661575,0.8714,-0.3232,1.2258,3.4823,-1.0689,4.8163,-1.6417,-2.6450,-1.9280,
0.664227,0.8714,-0.3232,1.2258,2.9848,-1.1071,4.1986,-1.6417,-2.6450,-1.9280,
0.666334,0.8714,-0.3232,1.2258,2.9848,-1.1071,4.1986,-1.4536,-2.5429,-1.8962,
0.673685,0.8714,-0.3232,1.2258,2.9848,-1.1071,4.1986,-1.2660,-2.4269,-1.8388,
0.681463,0.7753,-0.2315,1.2120,2.9848,-1.1071,4.1986,-1.2660,-2.4269,-1.8388,
0.683774,0.7753,-0.2315,1.2120,2.3806,-0.7108,3.7215,-1.2660,-2.4269,-1.8388,
0.685947,0.7753,-0.2315,1.2120,2.3806,-0.7108,3.7215,-1.0412,-2.3560,-1.7496,
0.692960,0.7753,-0.2315,1.2120,2.3806,-0.7108,3.7215,-0.7786,-2.3041,-1.6439,
0.701517,0.8215,-0.1176,1.3300,2.3806,-0.7108,3.7215,-0.7786,-2.3041,-1.6439,
0.703966,0.8215,-0.1176,1.3300,2.9117,-0.4169,4.7141,-0.7786,-2.3041,-1.6439,
0.706414,0.8215,-0.1176,1.3300,2.9117,-0.4169,4.7141,-0.4884,-2.1752,-1.5315,
0.715501,0.8215,-0.1176,1.3300,2.9117,-0.4169,4.7141,-0.0522,-2.1092,-1.3415,
0.724128,0.8187,-0.2913,0.7872,2.9117,-0.4169,4.7141,-0.0522,-2.1092,-1.3415,
0.726536,0.8187,-0.2913,0.7872,1.1756,-0.4184,1.1303,-0.0522,-2.1092,-1.3415,
0.729125,0.8187,-0.2913,0.7872,1.1756,-0.4184,1.1303,0.3613,-2.6291,-1.1955,
0.734396,0.8187,-0.2913,0.7872,1.1756,-0.4184,1.1303,0.3827,-2.8863,-1.2438,
0.742383,0.8023,-0.3092,0.5854,1.1756,-0.4184,1.1303,0.3827,-2.8863,-1.2438,
0.743882,0.8023,-0.3092,0.5854,0.2984,-0.1150,0.2177,0.3827,-2.8863,-1.2438,
0.745387,0.8023,-0.3092,0.5854,0.2984,-0.1150,0.2177,0.3192,-2.7867,-1.2945,
0.752674,0.8023,-0.3092,0.5854,0.2984,-0.1150,0.2177,0.4468,-2.1838,-1.3018,
0.761310,0.8003,-0.2703,0.4871,0.2984,-0.1150,0.2177,0.4468,-2.1838,-1.3018,
0.762770,0.8003,-0.2703,0.4871,-0.2052,0.0693,-0.1249,0.4468,-2.1838,-1.3018,
0.763605,0.8003,-0.2703,0.4871,-0.2052,0.0693,-0.1249,0.5214,-1.7232,-1.2597,
0.772624,0.8003,-0.2703,0.4871,-0.2052,0.0693,-0.1249,0.5495,-1.4006,-1.1668,
0.781667,0.7367,-0.2653,0.3152,-0.2052,0.0693,-0.1249,0.5495,-1.4006,-1.1668,
0.783593,0.7367,-0.2653,0.3152,-1.3396,0.4824,-0.5731,0.5495,-1.4006,-1.1668,
0.785157,0.7367,-0.2653,0.3152,-1.3396,0.4824,-0.5731,0.5275,-1.1972,-1.0306,
0.792761,0.7367,-0.2653,0.3152,-1.3396,0.4824,-0.5731,0.4554,-1.1270,-0.8919,
0.801370,0.8005,-0.3369,0.2345,-1.3396,0.4824,-0.5731,0.4554,-1.1270,-0.8919,
0.803725,0.8005,-0.3369,0.2345,-0.8815,0.3710,-0.2583,0.4554,-1.1270,-0.8919,
0.805801,0.8005,-0.3369,0.2345,-0.8815,0.3710,-0.2583,0.3876,-1.1880,-0.7759,
0.812989,0.8005,-0.3369,0.2345,-0.8815,0.3710,-0.2583,0.2746,-1.1795,-0.6946,
0.823810,0.8582,-0.3960,0.1845,-0.8815,0.3710,-0.2583,0.2746,-1.1795,-0.6946,
0.826051,0.8582,-0.3960,0.1845,-0.3287,0.1517,-0.0706,0.2746,-1.1795,-0.6946,
0.829214,0.8582,-0.3960,0.1845,-0.3287,0.1517,-0.0706,0.1335,-1.0824,-0.6286,
0.832866,0.8582,-0.3960,0.1845,-0.3287,0.1517,-0.0706,0.0754,-1.0482,-0.5755,
0.841873,0.9461,-0.4042,0.2929,-0.3287,0.1517,-0.0706,0.0754,-1.0482,-0.5755,
0.844589,0.9461,-0.4042,0.2929,0.5982,-0.2556,0.1852,0.0754,-1.0482,-0.5755,
0.846494,0.9461,-0.4042,0.2929,0.5982,-0.2556,0.1852,0.0467,-1.0133,-0.5761,
0.853354,0.9461,-0.4042,0.2929,0.5982,-0.2556,0.1852,0.0363,-0.9938,-0.5914,
0.861996,0.9346,-0.3489,0.3496,0.5982,-0.2556,0.1852,0.0363,-0.9938,-0.5914,
0.864051,0.9346,-0.3489,0.3496,0.4886,-0.1824,0.1828,0.0363,-0.9938,-0.5914,
0.866023,0.9346,-0.3489,0.3496,0.4886,-0.1824,0.1828,0.0327,-1.0262,-0.5260,
0.873452,0.9346,-0.3489,0.3496,0.4886,-0.1824,0.1828,0.0259,-1.1062,-0.3947,
0.882190,1.0517,-0.5123,0.3040,0.4886,-0.1824,0.1828,0.0259,-1.1062,-0.3947,
0.884380,1.0517,-0.5123,0.3040,1.7742,-0.8642,0.5129,0.0259,-1.1062,-0.3947,
0.886255,1.0517,-0.5123,0.3040,1.7742,-0.8642,0.5129,-0.0718,-1.3035,-0.3330,
0.893065,1.0517,-0.5123,0.3040,1.7742,-0.8642,0.5129,-0.2025,-1.5576,-0.4020,
0.901481,0.9623,-0.3800,0.3474,1.7742,-0.8642,0.5129,-0.2025,-1.5576,-0.4020,
0.904367,0.9623,-0.3800,0.3474,0.7840,-0.3096,0.2830,-0.2025,-1.5576,-0.4020,
0.906574,0.9623,-0.3800,0.3474,0.7840,-0.3096,0.2830,-0.2685,-1.7659,-0.4112,
0.912929,0.9623,-0.3800,0.3474,0.7840,-0.3096,0.2830,-0.2783,-1.9309,-0.3525,
0.923915,0.8471,-0.5138,0.0423,0.7840,-0.3096,0.2830,-0.2783,-1.9309,-0.3525,
0.926103,0.8471,-0.5138,0.0423,-0.0755,0.0458,-0.0038,-0.2783,-1.9309,-0.3525,
0.928457,0.8471,-0.5138,0.0423,-0.0755,0.0458,-0.0038,-0.3235,-1.8875,-0.2591,
0.932758,0.8471,-0.5138,0.0423,-0.0755,0.0458,-0.0038,-0.3168,-1.0042,-0.1296,
0.941318,0.9230,-0.4970,0.1371,-0.0755,0.0458,-0.0038,-0.3168,-1.0042,-0.1296,
0.943359,0.9230,-0.4970,0.1371,0.4839,-0.2606,0.0718,-0.3168,-1.0042,-0.1296,
0.945072,0.9230,-0.4970,0.1371,0.4839,-0.2606,0.0718,-0.0736,-0.3524,-0.1412,
0.952606,0.9230,-0.4970,0.1371,0.4839,-0.2606,0.0718,0.1554,0.2976,-0.1448,
0.961417,0.7019,-0.5399,0.2160,0.4839,-0.2606,0.0718,0.1554,0.2976,-0.1448,
0.963217,0.7019,-0.5399,0.2160,-0.6731,0.5178,-0.2071,0.1554,0.2976,-0.1448,
0.964473,0.7019,-0.5399,0.2160,-0.6731,0.5178,-0.2071,0.3259,0.9555,-0.1265,
0.972566,0.7019,-0.5399,0.2160,-0.6731,0.5178,-0.2071,0.5018,1.3177,-0.0190,
0.981198,0.6721,-0.4448,0.3142,-0.6731,0.5178,-0.2071,0.5018,1.3177,-0.0190,
0.982607,0.6721,-0.4448,0.3142,-1.0331,0.6837,-0.4830,0.5018,1.3177,-0.0190,
0.983707,0.6721,-0.4448,0.3142,-1.0331,0.6837,-0.4830,0.6551,1.3727,0.1759,
0.992478,0.6721,-0.4448,0.3142,-1.0331,0.6837,-0.4830,0.8005,1.1546,0.3946,
1.000929,0.6671,-0.4644,0.2271,-1.0331,0.6837,-0.4830,0.8005,1.1546,0.3946,
1.002358,0.6671,-0.4644,0.2271,-1.2140,0.8452,-0.4133,0.8005,1.1546,0.3946,
1.004050,0.6671,-0.4644,0.2271,-1.2140,0.8452,-0.4133,0.8689,0.8131,0.5851,
1.012362,0.6671,-0.4644,0.2271,-1.2140,0.8452,-0.4133,0.8512,0.3965,0.7385,
1.022333,0.7955,-0.5060,0.0872,-1.2140,0.8452,-0.4133,0.8512,0.3965,0.7385,
1.023725,0.7955,-0.5060,0.0872,-0.4439,0.2824,-0.0487,0.8512,0.3965,0.7385,
1.025040,0.7955,-0.5060,0.0872,-0.4439,0.2824,-0.0487,0.7571,-0.0091,0.8319,
1.033030,0.7955,-0.5060,0.0872,-0.4439,0.2824,-0.0487,0.6209,-0.3597,0.8759,
1.041791,0.9837,-0.5943,0.0553,-0.4439,0.2824,-0.0487,0.6209,-0.3597,0.8759,
1.044245,0.9837,-0.5943,0.0553,1.2561,-0.7589,0.0707,0.6209,-0.3597,0.8759,
1.046513,0.9837,-0.5943,0.0553,1.2561,-0.7589,0.0707,0.4835,-0.5650,0.8973,
1.053327,0.9837,-0.5943,0.0553,1.2561,-0.7589,0.0707,0.3754,-0.5308,0.8497,
1.062231,1.0355,-0.6033,0.1181,1.2561,-0.7589,0.0707,0.3754,-0.5308,0.8497,
1.064887,1.0355,-0.6033,0.1181,1.8472,-0.7078,0.7313,0.3754,-0.5308,0.8497,
1.066900,1.0355,-0.6033,0.1181,1.8472,-0.7078,0.7313,0.3442,-0.1820,0.7629,
1.073559,1.0355,-0.6033,0.1181,1.8472,-0.7078,0.7313,0.3845,0.3318,0.7226,
1.081790,0.8841,-0.5948,0.1864,1.8472,-0.7078,0.7313,0.3845,0.3318,0.7226,
1.083999,0.8841,-0.5948,0.1864,0.4418,-0.5067,1.3453,0.3845,0.3318,0.7226,
1.086758,0.8841,-0.5948,0.1864,0.4418,-0.5067,1.3453,0.4151,0.8571,0.7134,
1.092876,0.8841,-0.5948,0.1864,0.4418,-0.5067,1.3453,0.4542,1.2884,0.7153,
1.101647,0.7146,-0.4617,0.2604,0.4418,-0.5067,1.3453,0.4542,1.2884,0.7153,
1.104503,0.7146,-0.4617,0.2604,-1.1330,0.9030,1.8367,0.4542,1.2884,0.7153,
1.106641,0.7146,-0.4617,0.2604,-1.1330,0.9030,1.8367,0.5128,1.5169,0.7373,
1.112846,0.7146,-0.4617,0.2604,-1.1330,0.9030,1.8367,0.5214,1.3733,0.8515,
1.124245,0.5651,-0.3960,0.0938,-1.1330,0.9030,1.8367,0.5214,1.3733,0.8515,
1.126487,0.5651,-0.3960,0.0938,-2.4888,1.6618,-0.0911,0.5214,1.3733,0.8515,
1.128739,0.5651,-0.3960,0.0938,-2.4888,1.6618,-0.0911,0.2978,0.0868,1.6016,
1.132871,0.5651,-0.3960,0.0938,-2.4888,1.6618,-0.0911,0.1787,-0.4080,1.9016,
1.141851,1.0745,-0.8532,0.0079,-2.4888,1.6618,-0.0911,0.1787,-0.4080,1.9016,
1.144273,1.0745,-0.8532,0.0079,2.6965,-2.5489,-0.9331,0.1787,-0.4080,1.9016,
1.146632,1.0745,-0.8532,0.0079,2.6965,-2.5489,-0.9331,0.0528,-0.6590,1.8722,
1.153197,1.0745,-0.8532,0.0079,2.6965,-2.5489,-0.9331,-0.0119,-0.5387,1.5485,
1.162206,1.1299,-0.9143,0.2294,2.6965,-2.5489,-0.9331,-0.0119,-0.5387,1.5485,
1.164556,1.1299,-0.9143,0.2294,3.4290,-2.8870,1.3252,-0.0119,-0.5387,1.5485,
1.166534,1.1299,-0.9143,0.2294,3.4290,-2.8870,1.3252,0.0418,-0.0488,1.1429,
1.174417,1.1299,-0.9143,0.2294,3.4290,-2.8870,1.3252,0.1579,0.6067,0.8625,
1.181800,0.7702,-0.5662,0.3920,3.4290,-2.8870,1.3252,0.1579,0.6067,0.8625,
1.184040,0.7702,-0.5662,0.3920,0.0241,0.6619,2.8440,0.1579,0.6067,0.8625,
1.185738,0.7702,-0.5662,0.3920,0.0241,0.6619,2.8440,0.2049,1.1558,0.7537,
1.192904,0.7702,-0.5662,0.3920,0.0241,0.6619,2.8440,0.1707,1.4411,0.7684,
1.201686,0.4777,-0.2855,0.5024,0.0241,0.6619,2.8440,0.1707,1.4411,0.7684,
1.204267,0.4777,-0.2855,0.5024,-2.7336,3.4909,3.6445,0.1707,1.4411,0.7684,
1.206568,0.4777,-0.2855,0.5024,-2.7336,3.4909,3.6445,0.1597,1.4356,0.8869,
1.213089,0.4777,-0.2855,0.5024,-2.7336,3.4909,3.6445,0.2037,1.2084,1.1392,
1.224133,0.2057,-0.1233,0.3713,-2.7336,3.4909,3.6445,0.2037,1.2084,1.1392,
1.226583,0.2057,-0.1233,0.3713,-5.2514,5.1827,2.0528,0.2037,1.2084,1.1392,
1.229055,0.2057,-0.1233,0.3713,-5.2514,5.1827,2.0528,0.2312,0.8620,1.5228,
1.232913,0.2057,-0.1233,0.3713,-5.2514,5.1827,2.0528,0.2721,0.6177,2.0482,
1.241663,0.0154,-0.2500,0.2178,-5.2514,5.1827,2.0528,0.2721,0.6177,2.0482,
1.243770,0.0154,-0.2500,0.2178,-6.8602,4.1583,0.3067,0.2721,0.6177,2.0482,
1.246077,0.0154,-0.2500,0.2178,-6.8602,4.1583,0.3067,0.2758,0.4350,2.6810,
1.252833,0.0154,-0.2500,0.2178,-6.8602,4.1583,0.3067,0.2275,0.3660,3.4043,
1.261747,0.0481,-0.7008,0.1340,-6.8602,4.1583,0.3067,0.2275,0.3660,3.4043,
1.264312,0.0481,-0.7008,0.1340,-6.0670,0.1639,-0.6795,0.2275,0.3660,3.4043,
1.266065,0.0481,-0.7008,0.1340,-6.0670,0.1639,-0.6795,0.1664,0.3550,4.1080,
1.273964,0.0481,-0.7008,0.1340,-6.0670,0.1639,-0.6795,0.1109,0.3862,4.5949,
1.281788,0.5606,-1.1663,0.1055,-6.0670,0.1639,-0.6795,0.1109,0.3862,4.5949,
1.283851,0.5606,-1.1663,0.1055,-0.3691,-3.8466,-1.0381,0.1109,0.3862,4.5949,
1.285813,0.5606,-1.1663,0.1055,-0.3691,-3.8466,-1.0381,0.0119,0.3367,4.7598,
1.292912,0.5606,-1.1663,0.1055,-0.3691,-3.8466,-1.0381,-0.0834,0.3397,4.5362,
1.301766,0.9011,-1.3912,0.3321,-0.3691,-3.8466,-1.0381,-0.0834,0.3397,4.5362,
1.304199,0.9011,-1.3912,0.3321,3.7126,-5.5380,1.1500,-0.0834,0.3397,4.5362,
1.306509,0.9011,-1.3912,0.3321,3.7126,-5.5380,1.1500,0.2019,0.1125,3.4208,
1.313097,0.9011,-1.3912,0.3321,3.7126,-5.5380,1.1500,0.4743,0.0490,3.0133,
1.324556,0.7285,-1.1907,0.3323,3.7126,-5.5380,1.1500,0.4743,0.0490,3.0133,
1.327178,0.7285,-1.1907,0.3323,2.5475,-3.2804,1.0859,0.4743,0.0490,3.0133,
1.330759,0.7285,-1.1907,0.3323,2.5475,-3.2804,1.0859,0.5721,-0.2449,2.6713,
1.333215,0.7285,-1.1907,0.3323,2.5475,-3.2804,1.0859,0.3723,-0.8130,2.3224,
1.341495,0.2391,-1.1072,0.1914,2.5475,-3.2804,1.0859,0.3723,-0.8130,2.3224,
1.343626,0.2391,-1.1072,0.1914,-1.8490,-2.2632,-0.3282,0.3723,-0.8130,2.3224,
1.345601,0.2391,-1.1072,0.1914,-1.8490,-2.2632,-0.3282,0.0858,-1.2504,2.2302,
1.352675,0.2391,-1.1072,0.1914,-1.8490,-2.2632,-0.3282,-0.2013,-1.3450,2.3927,
1.361889,0.0809,-0.9383,0.2209,-1.8490,-2.2632,-0.3282,-0.2013,-1.3450,2.3927,
1.363811,0.0809,-0.9383,0.2209,-3.0485,-0.4173,0.0739,-0.2013,-1.3450,2.3927,
1.365096,0.0809,-0.9383,0.2209,-3.0485,-0.4173,0.0739,-0.4017,-1.0830,2.5802,
1.373718,0.0809,-0.9383,0.2209,-3.0485,-0.4173,0.0739,-0.5580,-0.6841,2.7409,
1.381864,0.0768,-1.0404,0.0908,-3.0485,-0.4173,0.0739,-0.5580,-0.6841,2.7409,
1.383511,0.0768,-1.0404,0.0908,-2.6399,-1.2013,-1.0495,-0.5580,-0.6841,2.7409,
1.385152,0.0768,-1.0404,0.0908,-2.6399,-1.2013,-1.0495,-0.7718,-0.3444,2.8313,
1.392781,0.0768,-1.0404,0.0908,-2.6399,-1.2013,-1.0495,-1.1225,0.0178,2.8368,
1.401417,0.6850,-1.2511,0.4726,-2.6399,-1.2013,-1.0495,-1.1225,0.0178,2.8368,
1.403658,0.6850,-1.2511,0.4726,3.8196,-3.0588,2.8650,-1.1225,0.0178,2.8368,
1.405620,0.6850,-1.2511,0.4726,3.8196,-3.0588,2.8650,-1.4096,0.4570,2.6432,
1.412834,0.6850,-1.2511,0.4726,3.8196,-3.0588,2.8650,-1.3485,0.8577,2.0561,
1.423348,0.5375,-1.2122,0.5327,3.8196,-3.0588,2.8650,-1.3485,0.8577,2.0561,
1.425090,0.5375,-1.2122,0.5327,2.7878,-2.5267,3.6277,-1.3485,0.8577,2.0561,
1.426724,0.5375,-1.2122,0.5327,2.7878,-2.5267,3.6277,-0.9722,1.0789,1.3060,
1.432481,0.5375,-1.2122,0.5327,2.7878,-2.5267,3.6277,-0.7040,0.8254,0.7751,
1.441160,0.6017,-1.1413,0.1213,2.7878,-2.5267,3.6277,-0.7040,0.8254,0.7751,
1.443338,0.6017,-1.1413,0.1213,3.5784,-1.7765,-0.3225,-0.7040,0.8254,0.7751,
1.444733,0.6017,-1.1413,0.1213,3.5784,-1.7765,-0.3225,-0.6509,0.5859,0.5491,
1.452544,0.6017,-1.1413,0.1213,3.5784,-1.7765,-0.3225,-0.6992,0.1711,0.3133,
1.462179,0.3240,-0.6500,-0.0462,3.5784,-1.7765,-0.3225,-0.6992,0.1711,0.3133,
1.464008,0.3240,-0.6500,-0.0462,0.8787,3.0587,-1.8676,-0.6992,0.1711,0.3133,
1.465217,0.3240,-0.6500,-0.0462,0.8787,3.0587,-1.8676,-0.7273,-0.3793,-0.0697,
1.473295,0.3240,-0.6500,-0.0462,0.8787,3.0587,-1.8676,-0.6967,-0.9901,-0.5181,
1.481855,0.2262,-0.4775,-0.0270,0.8787,3.0587,-1.8676,-0.6967,-0.9901,-0.5181,
1.483832,0.2262,-0.4775,-0.0270,-0.2189,4.7366,-1.5194,-0.6967,-0.9901,-0.5181,
1.485770,0.2262,-0.4775,-0.0270,-0.2189,4.7366,-1.5194,-0.6320,-1.5051,-0.8314,
1.493086,0.2262,-0.4775,-0.0270,-0.2189,4.7366,-1.5194,-0.4298,-2.5374,-1.2291,
1.501988,0.2133,-0.4168,-0.0493,-0.2189,4.7366,-1.5194,-0.4298,-2.5374,-1.2291,
1.504646,0.2133,-0.4168,-0.0493,-0.6372,5.2766,-1.5334,-0.4298,-2.5374,-1.2291,
1.506740,0.2133,-0.4168,-0.0493,-0.6372,5.2766,-1.5334,-0.5086,-2.8013,-1.2145,
1.513051,0.2133,-0.4168,-0.0493,-0.6372,5.2766,-1.5334,-0.7810,-3.0707,-0.9457,
1.525235,0.1614,-0.3773,-0.2536,-0.6372,5.2766,-1.5334,-0.7810,-3.0707,-0.9457,
1.527905,0.1614,-0.3773,-0.2536,-1.4395,5.6032,-3.2163,-0.7810,-3.0707,-0.9457,
1.531414,0.1614,-0.3773,-0.2536,-1.4395,5.6032,-3.2163,-1.1255,-3.7512,-0.6262,
1.533750,0.1614,-0.3773,-0.2536,-1.4395,5.6032,-3.2163,-1.4670,-4.7097,-0.3580,
1.541626,0.3847,-0.2615,0.1065,-1.4395,5.6032,-3.2163,-1.4670,-4.7097,-0.3580,
1.544272,0.3847,-0.2615,0.1065,0.5404,6.6937,0.8092,-1.4670,-4.7097,-0.3580,
1.546726,0.3847,-0.2615,0.1065,0.5404,6.6937,0.8092,-1.6411,-5.6468,-0.2102,
1.552580,0.3847,-0.2615,0.1065,0.5404,6.6937,0.8092,-1.4010,-6.3047,-0.2725,
1.561504,0.2079,-0.2841,0.5112,0.5404,6.6937,0.8092,-1.4010,-6.3047,-0.2725,
1.563714,0.2079,-0.2841,0.5112,-1.2749,6.4392,5.3606,-1.4010,-6.3047,-0.2725,
1.565262,0.2079,-0.2841,0.5112,-1.2749,6.4392,5.3606,-0.7786,-6.3108,-0.3861,
1.573762,0.2079,-0.2841,0.5112,-1.2749,6.4392,5.3606,-0.1427,-5.5197,-0.3269,
1.581312,-0.0948,-0.8098,0.8330,-1.2749,6.4392,5.3606,-0.1427,-5.5197,-0.3269,
1.583185,-0.0948,-0.8098,0.8330,-4.2309,1.2794,8.7563,-0.1427,-5.5197,-0.3269,
1.584822,-0.0948,-0.8098,0.8330,-4.2309,1.2794,8.7563,0.3521,-3.3566,0.1563,
1.592718,-0.0948,-0.8098,0.8330,-4.2309,1.2794,8.7563,0.7712,-0.9431,1.1074,
1.601608,-0.1474,-1.0670,0.2949,-4.2309,1.2794,8.7563,0.7712,-0.9431,1.1074,
1.603845,-0.1474,-1.0670,0.2949,-4.5368,-1.1604,3.3245,0.7712,-0.9431,1.1074,
1.605853,-0.1474,-1.0670,0.2949,-4.5368,-1.1604,3.3245,1.0870,0.4753,2.3872,
1.612855,-0.1474,-1.0670,0.2949,-4.5368,-1.1604,3.3245,1.1725,0.5297,3.6230,
1.624735,0.2882,-0.6554,-0.2327,-4.5368,-1.1604,3.3245,1.1725,0.5297,3.6230,
1.626827,0.2882,-0.6554,-0.2327,0.3105,3.0562,-2.1890,1.1725,0.5297,3.6230,
1.628978,0.2882,-0.6554,-0.2327,0.3105,3.0562,-2.1890,1.0449,-0.4941,4.3933,
1.632782,0.2882,-0.6554,-0.2327,0.3105,3.0562,-2.1890,0.7229,-1.9364,4.5613,
1.641453,1.1011,-1.8388,-0.3832,0.3105,3.0562,-2.1890,0.7229,-1.9364,4.5613,
1.643830,1.1011,-1.8388,-0.3832,9.0509,-8.3689,-3.7922,0.7229,-1.9364,4.5613,
1.645771,1.1011,-1.8388,-0.3832,9.0509,-8.3689,-3.7922,0.2740,-3.2790,4.2137,
1.652833,1.1011,-1.8388,-0.3832,9.0509,-8.3689,-3.7922,-0.2893,-3.6987,3.2131,
1.661694,1.2831,-2.9653,-0.4174,9.0509,-8.3689,-3.7922,-0.2893,-3.6987,3.2131,
1.663983,1.2831,-2.9653,-0.4174,11.5575,-19.3060,-4.0316,-0.2893,-3.6987,3.2131,
1.666355,1.2831,-2.9653,-0.4174,11.5575,-19.3060,-4.0316,-0.8665,-3.1960,2.0977,
1.685939,1.2831,-2.9653,-0.4174,11.5575,-19.3060,-4.0316,-1.0754,-3.4171,-0.2438,
1.688706,0.5381,-2.3837,0.4334,11.5575,-19.3060,-4.0316,-1.0754,-3.4171,-0.2438,
1.691065,0.5381,-2.3837,0.4334,4.4485,-13.5931,4.5525,-1.0754,-3.4171,-0.2438,
1.693409,0.5381,-2.3837,0.4334,4.4485,-13.5931,4.5525,-0.4786,-3.1495,-0.7807,
1.695213,0.5381,-2.3837,0.4334,4.4485,-13.5931,4.5525,0.0895,-2.3798,-0.2505,
1.701252,-0.0238,-0.8100,0.5095,4.4485,-13.5931,4.5525,0.0895,-2.3798,-0.2505,
1.703975,-0.0238,-0.8100,0.5095,-1.1388,1.8189,5.3846,0.0895,-2.3798,-0.2505,
1.705668,-0.0238,-0.8100,0.5095,-1.1388,1.8189,5.3846,0.6118,-1.7177,0.6169,
1.719417,-0.0238,-0.8100,0.5095,-1.1388,1.8189,5.3846,1.1591,-1.3957,1.3567,
1.722377,-0.0050,-0.6227,0.2353,-1.1388,1.8189,5.3846,1.1591,-1.3957,1.3567,
1.723997,-0.0050,-0.6227,0.2353,-0.8197,3.6719,2.4834,1.1591,-1.3957,1.3567,
1.725533,-0.0050,-0.6227,0.2353,-0.8197,3.6719,2.4834,1.4639,-1.0140,1.8130,
1.732476,-0.0050,-0.6227,0.2353,-0.8197,3.6719,2.4834,1.3625,-0.3279,2.0726,
1.740976,-0.0203,-0.7102,0.0349,-0.8197,3.6719,2.4834,1.3625,-0.3279,2.0726,
1.742419,-0.0203,-0.7102,0.0349,-0.6513,2.8353,0.2044,1.3625,-0.3279,2.0726,
1.744031,-0.0203,-0.7102,0.0349,-0.6513,2.8353,0.2044,1.0027,0.3226,2.2223,
1.752369,-0.0203,-0.7102,0.0349,-0.6513,2.8353,0.2044,0.5269,0.7081,2.1093,
1.761172,-0.0768,-0.9323,-0.0072,-0.6513,2.8353,0.2044,0.5269,0.7081,2.1093,
1.762591,-0.0768,-0.9323,-0.0072,-0.8218,0.6651,-0.3843,0.5269,0.7081,2.1093,
1.763897,-0.0768,-0.9323,-0.0072,-0.8218,0.6651,-0.3843,0.0424,0.9634,1.6248,
1.773790,-0.0768,-0.9323,-0.0072,-0.8218,0.6651,-0.3843,-0.3436,1.1668,0.9089,
1.781350,-0.2024,-0.8227,0.0279,-0.8218,0.6651,-0.3843,-0.3436,1.1668,0.9089,
1.783314,-0.2024,-0.8227,0.0279,-1.8128,1.7383,-0.0215,-0.3436,1.1668,0.9089,
1.784602,-0.2024,-0.8227,0.0279,-1.8128,1.7383,-0.0215,-0.7010,1.5389,0.1026,
1.792710,-0.2024,-0.8227,0.0279,-1.8128,1.7383,-0.0215,-0.9453,1.7826,-0.5285,
1.801544,-0.3487,-0.8386,0.1058,-1.8128,1.7383,-0.0215,-0.9453,1.7826,-0.5285,
1.803204,-0.3487,-0.8386,0.1058,-3.2703,1.5864,0.8906,-0.9453,1.7826,-0.5285,
1.804993,-0.3487,-0.8386,0.1058,-3.2703,1.5864,0.8906,-1.0150,1.8101,-0.7850,
1.813129,-0.3487,-0.8386,0.1058,-3.2703,1.5864,0.8906,-0.9655,1.5932,-0.7673,
1.825490,-0.1871,-0.8543,0.0944,-3.2703,1.5864,0.8906,-0.9655,1.5932,-0.7673,
1.827850,-0.1871,-0.8543,0.0944,-1.8031,1.4341,0.9417,-0.9655,1.5932,-0.7673,
1.831417,-0.1871,-0.8543,0.0944,-1.8031,1.4341,0.9417,-0.8470,1.1650,-0.6897,
1.834167,-0.1871,-0.8543,0.0944,-1.8031,1.4341,0.9417,-0.6723,0.6672,-0.6616,
1.842530,0.0165,-0.8326,0.0376,-1.8031,1.4341,0.9417,-0.6723,0.6672,-0.6616,
1.844881,0.0165,-0.8326,0.0376,0.0830,1.6460,0.5030,-0.6723,0.6672,-0.6616,
1.846970,0.0165,-0.8326,0.0376,0.0830,1.6460,0.5030,-0.4908,0.1730,-0.7136,
1.852682,0.0165,-0.8326,0.0376,0.0830,1.6460,0.5030,-0.3436,-0.2663,-0.8528,
1.862076,0.1504,-0.8089,-0.0588,0.0830,1.6460,0.5030,-0.3436,-0.2663,-0.8528,
1.864150,0.1504,-0.8089,-0.0588,1.2471,1.8747,-0.3719,-0.3436,-0.2663,-0.8528,
1.865709,0.1504,-0.8089,-0.0588,1.2471,1.8747,-0.3719,-0.2483,-0.8173,-1.3311,
1.874670,0.1504,-0.8089,-0.0588,1.2471,1.8747,-0.3719,-0.2917,-0.8997,-1.5828,
1.881486,0.1719,-0.8204,-0.1003,1.2471,1.8747,-0.3719,-0.2917,-0.8997,-1.5828,
1.884909,0.1719,-0.8204,-0.1003,1.1773,1.7504,-0.7227,-0.2917,-0.8997,-1.5828,
1.889000,0.1719,-0.8204,-0.1003,1.1773,1.7504,-0.7227,-0.3766,-0.9260,-1.7789,
1.893988,0.1719,-0.8204,-0.1003,1.1773,1.7504,-0.7227,-0.4750,-0.9284,-1.8766,
1.901246,0.2034,-1.1325,0.0122,1.1773,1.7504,-0.7227,-0.4750,-0.9284,-1.8766,
1.902955,0.2034,-1.1325,0.0122,1.1329,-1.3358,0.4710,-0.4750,-0.9284,-1.8766,
1.905060,0.2034,-1.1325,0.0122,1.1329,-1.3358,0.4710,-0.5428,-0.9309,-1.8730,
1.914439,0.2034,-1.1325,0.0122,1.1329,-1.3358,0.4710,-0.5287,-0.9419,-1.7875,
1.924269,0.3622,-1.3360,0.2536,1.1329,-1.3358,0.4710,-0.5287,-0.9419,-1.7875,
1.926101,0.3622,-1.3360,0.2536,2.3323,-3.3719,2.9268,-0.5287,-0.9419,-1.7875,
1.928003,0.3622,-1.3360,0.2536,2.3323,-3.3719,2.9268,-0.3980,-0.9492,-1.6353,
1.932415,0.3622,-1.3360,0.2536,2.3323,-3.3719,2.9268,-0.1573,-0.9193,-1.4393,
1.941108,0.4317,-1.2014,0.1483,2.3323,-3.3719,2.9268,-0.1573,-0.9193,-1.4393,
1.943391,0.4317,-1.2014,0.1483,2.7042,-2.0980,1.9277,-0.1573,-0.9193,-1.4393,
1.944855,0.4317,-1.2014,0.1483,2.7042,-2.0980,1.9277,0.1060,-0.7653,-1.1919,
1.952437,0.4317,-1.2014,0.1483,2.7042,-2.0980,1.9277,0.2709,-0.4923,-0.8944,
1.961023,0.4052,-0.9136,-0.0504,2.7042,-2.0980,1.9277,0.2709,-0.4923,-0.8944,
1.962958,0.4052,-0.9136,-0.0504,2.2217,0.6867,-0.0654,0.2709,-0.4923,-0.8944,
1.964186,0.4052,-0.9136,-0.0504,2.2217,0.6867,-0.0654,0.3069,-0.1801,-0.5822,
1.973860,0.4052,-0.9136,-0.0504,2.2217,0.6867,-0.0654,0.2428,0.0881,-0.2951,
1.981178,0.4140,-0.7776,-0.1134,2.2217,0.6867,-0.0654,0.2428,0.0881,-0.2951,
1.982707,0.4140,-0.7776,-0.1134,2.1833,1.9984,-0.7480,0.2428,0.0881,-0.2951,
1.983991,0.4140,-0.7776,-0.1134,2.1833,1.9984,-0.7480,0.1176,0.2964,-0.0526,
1.992617,0.4140,-0.7776,-0.1134,2.1833,1.9984,-0.7480,-0.0400,0.5273,0.1136,
2.000678,0.5413,-0.8030,-0.1652,2.1833,1.9984,-0.7480,-0.0400,0.5273,0.1136,
2.001794,0.5413,-0.8030,-0.1652,3.3577,1.7357,-1.2763,-0.0400,0.5273,0.1136,
2.002826,0.5413,-0.8030,-0.1652,3.3577,1.7357,-1.2763,-0.1879,0.8028,0.1239,
2.012139,0.5413,-0.8030,-0.1652,3.3577,1.7357,-1.2763,-0.3027,1.0966,-0.0227,
2.021002,0.4808,-0.8840,-0.2124,3.3577,1.7357,-1.2763,-0.3027,1.0966,-0.0227,
2.022417,0.4808,-0.8840,-0.2124,2.6844,0.9241,-1.7091,-0.3027,1.0966,-0.0227,
2.023456,0.4808,-0.8840,-0.2124,2.6844,0.9241,-1.7091,-0.3760,1.3519,-0.1986,
2.032192,0.4808,-0.8840,-0.2124,2.6844,0.9241,-1.7091,-0.4285,1.4735,-0.3122,
2.040870,0.3170,-0.9280,-0.2658,2.6844,0.9241,-1.7091,-0.4285,1.4735,-0.3122,
2.042469,0.3170,-0.9280,-0.2658,0.9512,0.4628,-2.1752,-0.4285,1.4735,-0.3122,
2.043334,0.3170,-0.9280,-0.2658,0.9512,0.4628,-2.1752,-0.5574,1.2334,-0.3757,
2.052178,0.3170,-0.9280,-0.2658,0.9512,0.4628,-2.1752,-0.6210,0.9176,-0.3409,
2.061201,0.1688,-0.9970,-0.2217,0.9512,0.4628,-2.1752,-0.6210,0.9176,-0.3409,
2.063422,0.1688,-0.9970,-0.2217,-0.6122,-0.2445,-1.6408,-0.6210,0.9176,-0.3409,
2.064892,0.1688,-0.9970,-0.2217,-0.6122,-0.2445,-1.6408,-0.6729,0.4876,-0.2841,
2.074265,0.1688,-0.9970,-0.2217,-0.6122,-0.2445,-1.6408,-0.6998,-0.0280,-0.2316,
2.081241,0.0892,-1.0162,0.0283,-0.6122,-0.2445,-1.6408,-0.6998,-0.0280,-0.2316,
2.083226,0.0892,-1.0162,0.0283,-1.4476,-0.4535,0.9356,-0.6998,-0.0280,-0.2316,
2.084687,0.0892,-1.0162,0.0283,-1.4476,-0.4535,0.9356,-0.6588,-0.5289,-0.1943,
2.092650,0.0892,-1.0162,0.0283,-1.4476,-0.4535,0.9356,-0.5269,-0.7708,-0.1723,
2.101478,0.1007,-0.9963,-0.0026,-1.4476,-0.4535,0.9356,-0.5269,-0.7708,-0.1723,
2.103259,0.1007,-0.9963,-0.0026,-1.3584,-0.2751,0.7756,-0.5269,-0.7708,-0.1723,
2.105107,0.1007,-0.9963,-0.0026,-1.3584,-0.2751,0.7756,-0.3345,-0.6517,-0.1467,
2.113104,0.1007,-0.9963,-0.0026,-1.3584,-0.2751,0.7756,-0.1372,-0.3279,-0.1057,
2.122207,0.1329,-0.9598,-0.1542,-1.3584,-0.2751,0.7756,-0.1372,-0.3279,-0.1057,
2.125014,0.1329,-0.9598,-0.1542,-1.0519,0.0744,-0.6406,-0.1372,-0.3279,-0.1057,
2.127545,0.1329,-0.9598,-0.1542,-1.0519,0.0744,-0.6406,0.0027,-0.0402,-0.0453,
2.133271,0.1329,-0.9598,-0.1542,-1.0519,0.0744,-0.6406,0.0492,0.0942,0.0201,
2.142427,0.2336,-0.8661,-0.2593,-1.0519,0.0744,-0.6406,0.0492,0.0942,0.0201,
2.144984,0.2336,-0.8661,-0.2593,-0.0634,0.9927,-1.6669,0.0492,0.0942,0.0201,
2.147136,0.2336,-0.8661,-0.2593,-0.0634,0.9927,-1.6669,0.0058,0.1003,0.0696,
2.152788,0.2336,-0.8661,-0.2593,-0.0634,0.9927,-1.6669,-0.1072,0.0630,0.0922,
2.161721,0.3188,-0.8435,-0.3012,-0.0634,0.9927,-1.6669,-0.1072,0.0630,0.0922,
2.164342,0.3188,-0.8435,-0.3012,0.7840,1.2140,-2.0452,-0.1072,0.0630,0.0922,
2.166333,0.3188,-0.8435,-0.3012,0.7840,1.2140,-2.0452,-0.2581,0.0679,0.0965,
2.174987,0.3188,-0.8435,-0.3012,0.7840,1.2140,-2.0452,-0.4145,0.1522,0.0946,
2.181692,0.3680,-0.8509,-0.2955,0.7840,1.2140,-2.0452,-0.4145,0.1522,0.0946,
2.183968,0.3680,-0.8509,-0.2955,1.2670,1.1311,-1.8891,-0.4145,0.1522,0.0946,
2.185877,0.3680,-0.8509,-0.2955,1.2670,1.1311,-1.8891,-0.5556,0.3055,0.1007,
2.192938,0.3680,-0.8509,-0.2955,1.2670,1.1311,-1.8891,-0.6686,0.4992,0.1111,
2.201741,0.4329,-0.9446,-0.2436,1.2670,1.1311,-1.8891,-0.6686,0.4992,0.1111,
2.204012,0.4329,-0.9446,-0.2436,1.8854,0.1931,-1.2443,-0.6686,0.4992,0.1111,
2.206564,0.4329,-0.9446,-0.2436,1.8854,0.1931,-1.2443,-0.7474,0.6959,0.1246,
2.213148,0.4329,-0.9446,-0.2436,1.8854,0.1931,-1.2443,-0.7883,0.8241,0.1258,
2.222011,0.5049,-1.1039,-0.1722,1.8854,0.1931,-1.2443,-0.7883,0.8241,0.1258,
2.224226,0.5049,-1.1039,-0.1722,2.5598,-1.3927,-0.4121,-0.7883,0.8241,0.1258,
2.226427,0.5049,-1.1039,-0.1722,2.5598,-1.3927,-0.4121,-0.8183,0.6134,0.0458,
2.232863,0.5049,-1.1039,-0.1722,2.5598,-1.3927,-0.4121,-0.8073,0.2432,-0.0159,
2.241876,0.4925,-1.2080,-0.0447,2.5598,-1.3927,-0.4121,-0.8073,0.2432,-0.0159,
2.244187,0.4925,-1.2080,-0.0447,2.3969,-2.4424,0.9711,-0.8073,0.2432,-0.0159,
2.246553,0.4925,-1.2080,-0.0447,2.3969,-2.4424,0.9711,-0.7572,-0.1624,-0.0660,
2.252818,0.4925,-1.2080,-0.0447,2.3969,-2.4424,0.9711,-0.6478,-0.4397,-0.0837,
2.261893,0.3457,-1.1868,0.1224,2.3969,-2.4424,0.9711,-0.6478,-0.4397,-0.0837,
2.264178,0.3457,-1.1868,0.1224,0.9263,-2.2628,2.7316,-0.6478,-0.4397,-0.0837,
2.266254,0.3457,-1.1868,0.1224,0.9263,-2.2628,2.7316,-0.4744,-0.4959,-0.0660,
2.275615,0.3457,-1.1868,0.1224,0.9263,-2.2628,2.7316,-0.2667,-0.3518,-0.0276,
2.281479,0.3065,-1.0564,0.0750,0.9263,-2.2628,2.7316,-0.2667,-0.3518,-0.0276,
2.283777,0.3065,-1.0564,0.0750,0.5213,-0.9977,2.3148,-0.2667,-0.3518,-0.0276,
2.285698,0.3065,-1.0564,0.0750,0.5213,-0.9977,2.3148,-0.0681,-0.1154,0.0091,
2.293202,0.3065,-1.0564,0.0750,0.5213,-0.9977,2.3148,0.0766,0.1284,0.0311,
2.301039,0.3253,-0.9114,-0.0501,0.5213,-0.9977,2.3148,0.0766,0.1284,0.0311,
2.302665,0.3253,-0.9114,-0.0501,0.6845,0.4243,1.0489,0.0766,0.1284,0.0311,
2.303893,0.3253,-0.9114,-0.0501,0.6845,0.4243,1.0489,0.1506,0.3428,0.0403,
2.312619,0.3253,-0.9114,-0.0501,0.6845,0.4243,1.0489,0.1726,0.4979,0.0421,
2.321513,0.3638,-0.8521,-0.1364,0.6845,0.4243,1.0489,0.1726,0.4979,0.0421,
2.323344,0.3638,-0.8521,-0.1364,1.0313,1.0089,0.1272,0.1726,0.4979,0.0421,
2.325729,0.3638,-0.8521,-0.1364,1.0313,1.0089,0.1272,0.1603,0.5926,0.0390,
2.332538,0.3638,-0.8521,-0.1364,1.0313,1.0089,0.1272,0.1218,0.6329,0.0329,
2.341047,0.3277,-0.8711,-0.1476,1.0313,1.0089,0.1272,0.1218,0.6329,0.0329,
2.342335,0.3277,-0.8711,-0.1476,0.6462,0.8254,-0.0524,0.1218,0.6329,0.0329,
2.343339,0.3277,-0.8711,-0.1476,0.6462,0.8254,-0.0524,0.0644,0.5761,0.0244,
2.352094,0.3277,-0.8711,-0.1476,0.6462,0.8254,-0.0524,0.0064,0.3984,0.0060,
2.360595,0.2427,-0.9107,-0.0894,0.6462,0.8254,-0.0524,0.0064,0.3984,0.0060,
2.361591,0.2427,-0.9107,-0.0894,-0.2091,0.4375,0.4764,0.0064,0.3984,0.0060,
2.362540,0.2427,-0.9107,-0.0894,-0.2091,0.4375,0.4764,-0.0217,0.1693,-0.0098,
2.373147,0.2427,-0.9107,-0.0894,-0.2091,0.4375,0.4764,0.0046,-0.0231,-0.0007,
2.380619,0.1885,-0.9118,-0.0649,-0.2091,0.4375,0.4764,0.0046,-0.0231,-0.0007,
2.381767,0.1885,-0.9118,-0.0649,-0.7478,0.4262,0.7066,0.0046,-0.0231,-0.0007,
2.382725,0.1885,-0.9118,-0.0649,-0.7478,0.4262,0.7066,0.0785,-0.1496,0.0170,
2.392143,0.1885,-0.9118,-0.0649,-0.7478,0.4262,0.7066,0.1732,-0.2320,0.0335,
2.400873,0.1459,-0.8928,-0.0580,-0.7478,0.4262,0.7066,0.1732,-0.2320,0.0335,
2.401812,0.1459,-0.8928,-0.0580,-1.1548,0.6179,0.7514,0.1732,-0.2320,0.0335,
2.402674,0.1459,-0.8928,-0.0580,-1.1548,0.6179,0.7514,0.2685,-0.3011,0.0513,
2.412095,0.1459,-0.8928,-0.0580,-1.1548,0.6179,0.7514,0.4383,-0.4825,0.0751,
2.421455,0.1401,-0.8170,-0.0013,-1.1548,0.6179,0.7514,0.4383,-0.4825,0.0751,
2.423397,0.1401,-0.8170,-0.0013,-1.1843,1.3768,1.2476,0.4383,-0.4825,0.0751,
2.425026,0.1401,-0.8170,-0.0013,-1.1843,1.3768,1.2476,0.5275,-0.6071,0.0720,
2.432684,0.1401,-0.8170,-0.0013,-1.1843,1.3768,1.2476,0.6417,-0.7067,0.0433,
2.441223,0.3756,-0.7224,0.1184,-1.1843,1.3768,1.2476,0.6417,-0.7067,0.0433,
2.443254,0.3756,-0.7224,0.1184,1.1400,2.3215,2.3138,0.6417,-0.7067,0.0433,
2.444839,0.3756,-0.7224,0.1184,1.1400,2.3215,2.3138,0.7895,-0.6853,-0.0489,
2.453900,0.3756,-0.7224,0.1184,1.1400,2.3215,2.3138,0.9728,-0.5155,-0.2126,
2.463060,0.4979,-0.7532,0.1358,1.1400,2.3215,2.3138,0.9728,-0.5155,-0.2126,
2.468785,0.4979,-0.7532,0.1358,2.2827,2.0260,2.2954,0.9728,-0.5155,-0.2126,
2.470377,0.4979,-0.7532,0.1358,2.2827,2.0260,2.2954,1.1707,-0.2870,-0.4075,
2.474462,0.4979,-0.7532,0.1358,2.2827,2.0260,2.2954,1.3692,-0.1123,-0.6042,
2.480995,0.5314,-0.7901,0.1636,2.2827,2.0260,2.2954,1.3692,-0.1123,-0.6042,
2.482359,0.5314,-0.7901,0.1636,2.4551,1.6456,2.2753,1.3692,-0.1123,-0.6042,
2.483658,0.5314,-0.7901,0.1636,2.4551,1.6456,2.2753,1.5824,-0.0934,-0.7820,
2.492700,0.5314,-0.7901,0.1636,2.4551,1.6456,2.2753,1.8060,-0.2852,-0.9292,
2.501204,0.3577,-0.9402,0.1251,2.4551,1.6456,2.2753,1.8060,-0.2852,-0.9292,
2.502824,0.3577,-0.9402,0.1251,0.5540,0.1324,1.5479,1.8060,-0.2852,-0.9292,
2.503986,0.3577,-0.9402,0.1251,0.5540,0.1324,1.5479,2.0058,-0.6499,-1.0440,
2.512556,0.3577,-0.9402,0.1251,0.5540,0.1324,1.5479,2.1127,-1.0213,-1.0770,
2.521552,0.0776,-1.1418,-0.0442,0.5540,0.1324,1.5479,2.1127,-1.0213,-1.0770,
2.523264,0.0776,-1.1418,-0.0442,-2.3841,-1.9004,-0.4518,2.1127,-1.0213,-1.0770,
2.524886,0.0776,-1.1418,-0.0442,-2.3841,-1.9004,-0.4518,2.1011,-1.3035,-1.0037,
2.532970,0.0776,-1.1418,-0.0442,-2.3841,-1.9004,-0.4518,1.9551,-1.4281,-0.8486,
2.541985,0.0072,-1.3268,-0.2794,-2.3841,-1.9004,-0.4518,1.9551,-1.4281,-0.8486,
2.543941,0.0072,-1.3268,-0.2794,-3.2021,-3.7627,-3.0176,1.9551,-1.4281,-0.8486,
2.545873,0.0072,-1.3268,-0.2794,-3.2021,-3.7627,-3.0176,1.6631,-1.3695,-0.6763,
2.552711,0.0072,-1.3268,-0.2794,-3.2021,-3.7627,-3.0176,1.2709,-1.1954,-0.5370,
2.562043,0.0418,-1.4992,-0.2571,-3.2021,-3.7627,-3.0176,1.2709,-1.1954,-0.5370,
2.564115,0.0418,-1.4992,-0.2571,-2.9085,-5.4729,-2.9330,1.2709,-1.1954,-0.5370,
2.565742,0.0418,-1.4992,-0.2571,-2.9085,-5.4729,-2.9330,0.8757,-0.9901,-0.4435,
2.575857,0.0418,-1.4992,-0.2571,-2.9085,-5.4729,-2.9330,0.5965,-0.8832,-0.4087,
2.581706,0.1505,-1.3822,-0.0165,-2.9085,-5.4729,-2.9330,0.5965,-0.8832,-0.4087,
2.583640,0.1505,-1.3822,-0.0165,-1.8489,-4.3296,-0.6034,0.5965,-0.8832,-0.4087,
2.585641,0.1505,-1.3822,-0.0165,-1.8489,-4.3296,-0.6034,0.4988,-0.8961,-0.4600,
2.592906,0.1505,-1.3822,-0.0165,-1.8489,-4.3296,-0.6034,0.5470,-0.8869,-0.5816,
2.601684,0.2132,-1.0736,0.0299,-1.8489,-4.3296,-0.6034,0.5470,-0.8869,-0.5816,
2.603556,0.2132,-1.0736,0.0299,-1.2623,-1.3157,-0.1499,0.5470,-0.8869,-0.5816,
2.605851,0.2132,-1.0736,0.0299,-1.2623,-1.3157,-0.1499,0.6472,-0.4031,-0.7869,
2.612876,0.2132,-1.0736,0.0299,-1.2623,-1.3157,-0.1499,0.5586,-0.1435,-0.7893,
2.621708,0.2140,-0.9333,-0.0878,-1.2623,-1.3157,-0.1499,0.5586,-0.1435,-0.7893,
2.624280,0.2140,-0.9333,-0.0878,-1.3289,0.0295,-1.3543,0.5586,-0.1435,-0.7893,
2.626456,0.2140,-0.9333,-0.0878,-1.3289,0.0295,-1.3543,0.3943,0.0832,-0.7117,
2.632983,0.2140,-0.9333,-0.0878,-1.3289,0.0295,-1.3543,0.2257,0.2793,-0.6158,
2.642901,0.3033,-0.9522,0.0530,-1.3289,0.0295,-1.3543,0.2257,0.2793,-0.6158,
2.644989,0.3033,-0.9522,0.0530,-0.5123,-0.1802,-0.0111,0.2257,0.2793,-0.6158,
2.646930,0.3033,-0.9522,0.0530,-0.5123,-0.1802,-0.0111,0.1383,0.3623,-0.5364,
2.653005,0.3033,-0.9522,0.0530,-0.5123,-0.1802,-0.0111,0.1102,0.3196,-0.4588,
2.662351,0.3461,-1.0031,0.0133,-0.5123,-0.1802,-0.0111,0.1102,0.3196,-0.4588,
2.665074,0.3461,-1.0031,0.0133,-0.1360,-0.6969,-0.4208,0.1102,0.3196,-0.4588,
2.666882,0.3461,-1.0031,0.0133,-0.1360,-0.6969,-0.4208,0.0608,0.2377,-0.3782,
2.675535,0.3461,-1.0031,0.0133,-0.1360,-0.6969,-0.4208,-0.0364,0.1974,-0.3012,
2.681872,0.3735,-1.0265,0.0079,-0.1360,-0.6969,-0.4208,-0.0364,0.1974,-0.3012,
2.684056,0.3735,-1.0265,0.0079,0.1030,-0.9372,-0.4712,-0.0364,0.1974,-0.3012,
2.685950,0.3735,-1.0265,0.0079,0.1030,-0.9372,-0.4712,-0.1708,0.2738,-0.2322,
2.692932,0.3735,-1.0265,0.0079,0.1030,-0.9372,-0.4712,-0.3314,0.4601,-0.1680,
2.702114,0.3822,-0.9274,0.0589,0.1030,-0.9372,-0.4712,-0.3314,0.4601,-0.1680,
2.704158,0.3822,-0.9274,0.0589,0.1709,0.0287,0.0574,-0.3314,0.4601,-0.1680,
2.705859,0.3822,-0.9274,0.0589,0.1709,0.0287,0.0574,-0.4896,0.6898,-0.1345,
2.713097,0.3822,-0.9274,0.0589,0.1709,0.0287,0.0574,-0.6204,0.9469,-0.1381,
2.721908,0.2852,-0.8633,0.1035,0.1709,0.0287,0.0574,-0.6204,0.9469,-0.1381,
2.724420,0.2852,-0.8633,0.1035,-0.7840,0.6579,0.5395,-0.6204,0.9469,-0.1381,
2.726595,0.2852,-0.8633,0.1035,-0.7840,0.6579,0.5395,-0.7382,1.2102,-0.1296,
2.733072,0.2852,-0.8633,0.1035,-0.7840,0.6579,0.5395,-0.8488,1.3904,-0.0666,
2.742529,0.1716,-0.8314,0.1275,-0.7840,0.6579,0.5395,-0.8488,1.3904,-0.0666,
2.744570,0.1716,-0.8314,0.1275,-1.8829,0.9783,0.8225,-0.8488,1.3904,-0.0666,
2.746715,0.1716,-0.8314,0.1275,-1.8829,0.9783,0.8225,-0.9209,1.4161,0.0225,
2.752801,0.1716,-0.8314,0.1275,-1.8829,0.9783,0.8225,-0.9380,1.3220,0.1093,
2.761505,0.1548,-0.7941,0.1347,-1.8829,0.9783,0.8225,-0.9380,1.3220,0.1093,
2.764297,0.1548,-0.7941,0.1347,-1.9959,1.3662,0.9509,-0.9380,1.3220,0.1093,
2.766372,0.1548,-0.7941,0.1347,-1.9959,1.3662,0.9509,-0.9014,1.1632,0.1844,
2.775745,0.1548,-0.7941,0.1347,-1.9959,1.3662,0.9509,-0.8225,0.9353,0.2321,
2.781626,0.2108,-0.7395,0.0932,-1.9959,1.3662,0.9509,-0.8225,0.9353,0.2321,
2.783693,0.2108,-0.7395,0.0932,-1.3758,1.9305,0.6101,-0.8225,0.9353,0.2321,
2.785599,0.2108,-0.7395,0.0932,-1.3758,1.9305,0.6101,-0.5782,0.4039,0.2406,
2.793216,0.2108,-0.7395,0.0932,-1.3758,1.9305,0.6101,-0.4029,0.1809,0.2125,
2.801685,0.2911,-0.7016,0.2642,-1.3758,1.9305,0.6101,-0.4029,0.1809,0.2125,
2.803941,0.2911,-0.7016,0.2642,-0.5275,2.3254,2.3124,-0.4029,0.1809,0.2125,
2.806185,0.2911,-0.7016,0.2642,-0.5275,2.3254,2.3124,-0.1628,-0.0335,0.1655,
2.812789,0.2911,-0.7016,0.2642,-0.5275,2.3254,2.3124,0.0773,-0.2400,0.1313,
2.821790,0.3250,-0.7190,0.2156,-0.5275,2.3254,2.3124,0.0773,-0.2400,0.1313,
2.824015,0.3250,-0.7190,0.2156,-0.1608,2.1665,1.7952,0.0773,-0.2400,0.1313,
2.827465,0.3250,-0.7190,0.2156,-0.1608,2.1665,1.7952,0.2031,-0.3774,0.1160,
2.833103,0.3250,-0.7190,0.2156,-0.1608,2.1665,1.7952,0.1787,-0.3402,0.0989,
2.842957,0.2762,-0.6446,0.0785,-0.1608,2.1665,1.7952,0.1787,-0.3402,0.0989,
2.845220,0.2762,-0.6446,0.0785,-0.6218,2.9000,0.3990,0.1787,-0.3402,0.0989,
2.847546,0.2762,-0.6446,0.0785,-0.6218,2.9000,0.3990,0.0699,-0.1343,0.0604,
2.852923,0.2762,-0.6446,0.0785,-0.6218,2.9000,0.3990,-0.0315,0.0648,0.0158,
2.862155,0.1873,-0.6105,-0.1813,-0.6218,2.9000,0.3990,-0.0315,0.0648,0.0158,
2.864470,0.1873,-0.6105,-0.1813,-1.4855,3.2366,-2.1510,-0.0315,0.0648,0.0158,
2.866696,0.1873,-0.6105,-0.1813,-1.4855,3.2366,-2.1510,-0.1029,0.1223,-0.0007,
2.875905,0.1873,-0.6105,-0.1813,-1.4855,3.2366,-2.1510,-0.1970,0.0929,0.0219,
2.881574,0.1468,-0.6172,-0.2515,-1.4855,3.2366,-2.1510,-0.1970,0.0929,0.0219,
2.883884,0.1468,-0.6172,-0.2515,-1.8721,3.1758,-2.8003,-0.1970,0.0929,0.0219,
2.885894,0.1468,-0.6172,-0.2515,-1.8721,3.1758,-2.8003,-0.3161,0.0972,0.0702,
2.892888,0.1468,-0.6172,-0.2515,-1.8721,3.1758,-2.8003,-0.4047,0.1638,0.1282,
2.901681,0.1802,-0.8411,-0.1650,-1.8721,3.1758,-2.8003,-0.4047,0.1638,0.1282,
2.903932,0.1802,-0.8411,-0.1650,-1.5081,0.9977,-1.8572,-0.4047,0.1638,0.1282,
2.905941,0.1802,-0.8411,-0.1650,-1.5081,0.9977,-1.8572,-0.4475,0.2951,0.1771,
2.912849,0.1802,-0.8411,-0.1650,-1.5081,0.9977,-1.8572,-0.4731,0.4216,0.1991,
2.921430,0.3022,-1.3276,-0.1864,-1.5081,0.9977,-1.8572,-0.4731,0.4216,0.1991,
2.924335,0.3022,-1.3276,-0.1864,-0.2506,-3.7454,-1.9610,-0.4731,0.4216,0.1991,
2.926671,0.3022,-1.3276,-0.1864,-0.2506,-3.7454,-1.9610,-0.5037,0.4564,0.1930,
2.932967,0.3022,-1.3276,-0.1864,-0.2506,-3.7454,-1.9610,-0.5037,0.3892,0.1808,
2.942659,0.5212,-1.2664,0.0202,-0.2506,-3.7454,-1.9610,-0.5037,0.3892,0.1808,
2.944924,0.5212,-1.2664,0.0202,1.9360,-3.1310,0.1439,-0.5037,0.3892,0.1808,
2.947229,0.5212,-1.2664,0.0202,1.9360,-3.1310,0.1439,-0.4047,0.2701,0.1459,
2.952918,0.5212,-1.2664,0.0202,1.9360,-3.1310,0.1439,-0.1659,0.0685,0.0170,
2.962205,0.5314,-0.8414,0.3128,1.9360,-3.1310,0.1439,-0.1659,0.0685,0.0170,
2.964603,0.5314,-0.8414,0.3128,2.0439,1.0368,3.0491,-0.1659,0.0685,0.0170,
2.966745,0.5314,-0.8414,0.3128,2.0439,1.0368,3.0491,0.2330,-0.4025,-0.2701,
2.975857,0.5314,-0.8414,0.3128,2.0439,1.0368,3.0491,0.7345,-1.5869,-0.1198,
2.981810,0.1932,-0.8839,-0.0994,2.0439,1.0368,3.0491,0.7345,-1.5869,-0.1198,
2.983819,0.1932,-0.8839,-0.0994,-1.3066,0.6074,-1.0172,0.7345,-1.5869,-0.1198,
2.985764,0.1932,-0.8839,-0.0994,-1.3066,0.6074,-1.0172,0.4859,-1.6016,0.1020,
2.993025,0.1932,-0.8839,-0.0994,-1.3066,0.6074,-1.0172,0.1078,-1.0311,0.2767,
3.001872,0.3968,-1.0148,-0.2680,-1.3066,0.6074,-1.0172,0.1078,-1.0311,0.2767,
3.004107,0.3968,-1.0148,-0.2680,0.7191,-0.6650,-2.6258,0.1078,-1.0311,0.2767,
3.006339,0.3968,-1.0148,-0.2680,0.7191,-0.6650,-2.6258,-0.2447,-0.0836,0.3420,
3.013475,0.3968,-1.0148,-0.2680,0.7191,-0.6650,-2.6258,-0.5281,0.7820,0.3041,
3.022050,0.4775,-1.0666,-0.3101,0.7191,-0.6650,-2.6258,-0.5281,0.7820,0.3041,
3.024775,0.4775,-1.0666,-0.3101,1.5568,-1.1573,-2.9501,-0.5281,0.7820,0.3041,
3.026995,0.4775,-1.0666,-0.3101,1.5568,-1.1573,-2.9501,-0.7535,1.4265,0.2308,
3.033129,0.4775,-1.0666,-0.3101,1.5568,-1.1573,-2.9501,-0.9356,1.8632,0.1545,
3.041602,0.5156,-1.0797,-0.3153,1.5568,-1.1573,-2.9501,-0.9356,1.8632,0.1545,
3.043676,0.5156,-1.0797,-0.3153,1.9373,-1.2848,-2.8863,-0.9356,1.8632,0.1545,
3.045160,0.5156,-1.0797,-0.3153,1.9373,-1.2848,-2.8863,-1.0822,2.1118,0.0824,
3.052476,0.5156,-1.0797,-0.3153,1.9373,-1.2848,-2.8863,-1.1787,2.1687,0.0372,
3.061226,0.4703,-1.0015,-0.2569,1.9373,-1.2848,-2.8863,-1.1787,2.1687,0.0372,
3.063552,0.4703,-1.0015,-0.2569,1.4650,-0.5322,-2.1757,-1.1787,2.1687,0.0372,
3.065076,0.4703,-1.0015,-0.2569,1.4650,-0.5322,-2.1757,-1.2141,2.0117,0.0323,
3.072649,0.4703,-1.0015,-0.2569,1.4650,-0.5322,-2.1757,-1.1927,1.6629,0.0708,
3.081217,0.3754,-0.9613,-0.1887,1.4650,-0.5322,-2.1757,-1.1927,1.6629,0.0708,
3.083586,0.3754,-0.9613,-0.1887,0.5083,-0.1545,-1.3513,-1.1927,1.6629,0.0708,
3.084930,0.3754,-0.9613,-0.1887,0.5083,-0.1545,-1.3513,-1.1402,1.1479,0.1301,
3.092494,0.3754,-0.9613,-0.1887,0.5083,-0.1545,-1.3513,-1.0718,0.4521,0.1637,
3.101198,0.2921,-1.0416,-0.1196,0.5083,-0.1545,-1.3513,-1.0718,0.4521,0.1637,
3.103326,0.2921,-1.0416,-0.1196,-0.2973,-0.9487,-0.4949,-1.0718,0.4521,0.1637,
3.105097,0.2921,-1.0416,-0.1196,-0.2973,-0.9487,-0.4949,-0.9918,-0.2681,0.1649,
3.112911,0.2921,-1.0416,-0.1196,-0.2973,-0.9487,-0.4949,-0.8965,-0.7720,0.1667,
3.121612,0.1934,-1.1153,-0.0724,-0.2973,-0.9487,-0.4949,-0.8965,-0.7720,0.1667,
3.123901,0.1934,-1.1153,-0.0724,-1.2230,-1.6746,0.1815,-0.8965,-0.7720,0.1667,
3.125842,0.1934,-1.1153,-0.0724,-1.2230,-1.6746,0.1815,-0.7902,-0.9950,0.2015,
3.132661,0.1934,-1.1153,-0.0724,-1.2230,-1.6746,0.1815,-0.6845,-1.0201,0.2528,
3.142946,0.1753,-1.0620,-0.0440,-1.2230,-1.6746,0.1815,-0.6845,-1.0201,0.2528,
3.144888,0.1753,-1.0620,-0.0440,-1.3317,-1.1510,0.6585,-0.6845,-1.0201,0.2528,
3.146846,0.1753,-1.0620,-0.0440,-1.3317,-1.1510,0.6585,-0.6026,-0.9003,0.2852,
3.152623,0.1753,-1.0620,-0.0440,-1.3317,-1.1510,0.6585,-0.5281,-0.4636,0.3494,
3.161594,0.1656,-0.9343,-0.0148,-1.3317,-1.1510,0.6585,-0.5281,-0.4636,0.3494,
3.163753,0.1656,-0.9343,-0.0148,-1.3402,0.1105,1.0833,-0.5281,-0.4636,0.3494,
3.165446,0.1656,-0.9343,-0.0148,-1.3402,0.1105,1.0833,-0.5086,-0.2785,0.3976,
3.172800,0.1656,-0.9343,-0.0148,-1.3402,0.1105,1.0833,-0.4774,-0.1746,0.4172,
3.181785,0.3224,-0.9082,-0.0089,-1.3402,0.1105,1.0833,-0.4774,-0.1746,0.4172,
3.183622,0.3224,-0.9082,-0.0089,0.2821,0.3813,1.2324,-0.4774,-0.1746,0.4172,
3.185065,0.3224,-0.9082,-0.0089,0.2821,0.3813,1.2324,-0.4328,-0.1392,0.4080,
3.192751,0.3224,-0.9082,-0.0089,0.2821,0.3813,1.2324,-0.3711,-0.1447,0.3848,
3.201484,0.3549,-0.9300,-0.0408,0.2821,0.3813,1.2324,-0.3711,-0.1447,0.3848,
3.203270,0.3549,-0.9300,-0.0408,0.6770,0.1820,0.9859,-0.3711,-0.1447,0.3848,
3.204703,0.3549,-0.9300,-0.0408,0.6770,0.1820,0.9859,-0.2972,-0.1563,0.3689,
3.212851,0.3549,-0.9300,-0.0408,0.6770,0.1820,0.9859,-0.2325,-0.1459,0.3610,
3.221532,0.3597,-0.9166,-0.0828,0.6770,0.1820,0.9859,-0.2325,-0.1459,0.3610,
3.223731,0.3597,-0.9166,-0.0828,0.7896,0.3257,0.6143,-0.2325,-0.1459,0.3610,
3.225507,0.3597,-0.9166,-0.0828,0.7896,0.3257,0.6143,-0.1970,-0.1410,0.3561,
3.232783,0.3597,-0.9166,-0.0828,0.7896,0.3257,0.6143,-0.1934,-0.1661,0.3512,
3.243178,0.3268,-0.8932,-0.0908,0.7896,0.3257,0.6143,-0.1934,-0.1661,0.3512,
3.245672,0.3268,-0.8932,-0.0908,0.5259,0.5685,0.5644,-0.1934,-0.1661,0.3512,
3.248050,0.3268,-0.8932,-0.0908,0.5259,0.5685,0.5644,-0.2147,-0.1984,0.3359,
3.252919,0.3268,-0.8932,-0.0908,0.5259,0.5685,0.5644,-0.2477,-0.2498,0.3103,
3.261787,0.2778,-0.8946,-0.0621,0.5259,0.5685,0.5644,-0.2477,-0.2498,0.3103,
3.264483,0.2778,-0.8946,-0.0621,0.1018,0.5643,0.8820,-0.2477,-0.2498,0.3103,
3.266473,0.2778,-0.8946,-0.0621,0.1018,0.5643,0.8820,-0.2734,-0.3328,0.2864,
3.273247,0.2778,-0.8946,-0.0621,0.1018,0.5643,0.8820,-0.2795,-0.4330,0.2803,
3.281833,0.2474,-0.8609,-0.0277,0.1018,0.5643,0.8820,-0.2795,-0.4330,0.2803,
3.284543,0.2474,-0.8609,-0.0277,-0.1429,0.9019,1.2651,-0.2795,-0.4330,0.2803,
3.286537,0.2474,-0.8609,-0.0277,-0.1429,0.9019,1.2651,-0.2642,-0.5363,0.2907,
3.293638,0.2474,-0.8609,-0.0277,-0.1429,0.9019,1.2651,-0.2257,-0.6297,0.3041,
3.302134,0.2431,-0.8091,-0.0078,-0.1429,0.9019,1.2651,-0.2257,-0.6297,0.3041,
3.304187,0.2431,-0.8091,-0.0078,-0.1249,1.4188,1.5019,-0.2257,-0.6297,0.3041,
3.306323,0.2431,-0.8091,-0.0078,-0.1249,1.4188,1.5019,-0.1579,-0.7158,0.3035,
3.313059,0.2431,-0.8091,-0.0078,-0.1249,1.4188,1.5019,-0.0565,-0.8454,0.2858,
3.322522,0.2240,-0.7648,-0.0255,-0.1249,1.4188,1.5019,-0.0565,-0.8454,0.2858,
3.324758,0.2240,-0.7648,-0.0255,-0.2466,1.8669,1.3497,-0.0565,-0.8454,0.2858,
3.328542,0.2240,-0.7648,-0.0255,-0.2466,1.8669,1.3497,0.0650,-1.0072,0.2547,
3.334171,0.2240,-0.7648,-0.0255,-0.2466,1.8669,1.3497,0.2092,-1.1514,0.2015,
3.343588,0.2014,-0.6969,-0.0535,-0.2466,1.8669,1.3497,0.2092,-1.1514,0.2015,
3.345046,0.2014,-0.6969,-0.0535,-0.4056,2.5498,1.0685,0.2092,-1.1514,0.2015,
3.347192,0.2014,-0.6969,-0.0535,-0.4056,2.5498,1.0685,0.5488,-1.3365,0.1899,
3.352621,0.2014,-0.6969,-0.0535,-0.4056,2.5498,1.0685,0.7449,-1.4312,0.1704,
3.361287,0.1665,-0.5838,0.1306,-0.4056,2.5498,1.0685,0.7449,-1.4312,0.1704,
3.363733,0.1665,-0.5838,0.1306,-0.6922,3.6916,2.7539,0.7449,-1.4312,0.1704,
3.365491,0.1665,-0.5838,0.1306,-0.6922,3.6916,2.7539,0.9936,-1.6407,0.1459,
3.372826,0.1665,-0.5838,0.1306,-0.6922,3.6916,2.7539,1.3833,-1.9712,0.1343,
3.382128,0.1842,-0.5818,0.1027,-0.6922,3.6916,2.7539,1.3833,-1.9712,0.1343,
3.383943,0.1842,-0.5818,0.1027,-0.4674,3.7538,2.2704,1.3833,-1.9712,0.1343,
3.385789,0.1842,-0.5818,0.1027,-0.4674,3.7538,2.2704,1.8537,-2.1337,0.1111,
3.392865,0.1842,-0.5818,0.1027,-0.4674,3.7538,2.2704,2.1603,-1.9394,-0.0086,
3.401841,0.3479,-0.7534,0.0194,-0.4674,3.7538,2.2704,2.1603,-1.9394,-0.0086,
3.403319,0.3479,-0.7534,0.0194,1.1508,2.1147,1.1115,2.1603,-1.9394,-0.0086,
3.404770,0.3479,-0.7534,0.0194,1.1508,2.1147,1.1115,2.3106,-1.6951,-0.2352,
3.412723,0.3479,-0.7534,0.0194,1.1508,2.1147,1.1115,2.3741,-1.6401,-0.5175,
3.421727,0.4870,-0.8972,-0.3218,1.1508,2.1147,1.1115,2.3741,-1.6401,-0.5175,
3.424277,0.4870,-0.8972,-0.3218,2.4155,0.7098,-2.5923,2.3741,-1.6401,-0.5175,
3.426036,0.4870,-0.8972,-0.3218,2.4155,0.7098,-2.5923,2.2037,-1.5210,-0.7734,
3.433053,0.4870,-0.8972,-0.3218,2.4155,0.7098,-2.5923,1.7651,-1.0543,-0.9463,
3.443939,0.5735,-0.9359,-0.2905,2.4155,0.7098,-2.5923,1.7651,-1.0543,-0.9463,
3.447139,0.5735,-0.9359,-0.2905,3.0416,0.2848,-2.5540,1.7651,-1.0543,-0.9463,
3.450176,0.5735,-0.9359,-0.2905,3.0416,0.2848,-2.5540,1.2672,-0.3780,-1.0440,
3.452947,0.5735,-0.9359,-0.2905,3.0416,0.2848,-2.5540,0.9203,0.1546,-1.0953,
3.462289,0.7671,-0.9799,0.0930,3.0416,0.2848,-2.5540,0.9203,0.1546,-1.0953,
3.465385,0.7671,-0.9799,0.0930,4.6513,-0.2255,1.0264,0.9203,0.1546,-1.0953,
3.467592,0.7671,-0.9799,0.0930,4.6513,-0.2255,1.0264,0.8433,0.2463,-1.1515,
3.472511,0.7671,-0.9799,0.0930,4.6513,-0.2255,1.0264,0.8378,0.1907,-1.1986,
3.481256,0.5827,-1.1376,-0.1621,4.6513,-0.2255,1.0264,0.8378,0.1907,-1.1986,
3.483274,0.5827,-1.1376,-0.1621,2.5559,-1.8631,-1.6064,0.8378,0.1907,-1.1986,
3.484511,0.5827,-1.1376,-0.1621,2.5559,-1.8631,-1.6064,0.6368,0.4222,-1.1540,
3.492580,0.5827,-1.1376,-0.1621,2.5559,-1.8631,-1.6064,0.3094,0.7643,-1.0874,
3.501324,0.3528,-1.2469,-0.0954,2.5559,-1.8631,-1.6064,0.3094,0.7643,-1.0874,
3.502981,0.3528,-1.2469,-0.0954,0.0735,-3.0163,-1.0497,0.3094,0.7643,-1.0874,
3.504326,0.3528,-1.2469,-0.0954,0.0735,-3.0163,-1.0497,0.0534,0.9133,-1.0721,
3.512505,0.3528,-1.2469,-0.0954,0.0735,-3.0163,-1.0497,-0.0419,0.8565,-1.0281,
3.521244,0.1236,-1.3091,-0.0237,0.0735,-3.0163,-1.0497,-0.0419,0.8565,-1.0281,
3.522950,0.1236,-1.3091,-0.0237,-2.3532,-3.6949,-0.3909,-0.0419,0.8565,-1.0281,
3.524687,0.1236,-1.3091,-0.0237,-2.3532,-3.6949,-0.3909,0.0418,0.5071,-0.7777,
3.532779,0.1236,-1.3091,-0.0237,-2.3532,-3.6949,-0.3909,0.0614,0.3355,-0.6451,
3.542494,0.0534,-1.3521,-0.1224,-2.3532,-3.6949,-0.3909,0.0614,0.3355,-0.6451,
3.544789,0.0534,-1.3521,-0.1224,-3.1182,-4.1466,-1.3621,0.0614,0.3355,-0.6451,
3.546725,0.0534,-1.3521,-0.1224,-3.1182,-4.1466,-1.3621,0.0266,0.2127,-0.5327,
3.552676,0.0534,-1.3521,-0.1224,-3.1182,-4.1466,-1.3621,-0.0364,0.0850,-0.4374,
3.561265,0.0347,-1.5363,-0.1864,-3.1182,-4.1466,-1.3621,-0.0364,0.0850,-0.4374,
3.563678,0.0347,-1.5363,-0.1864,-3.3098,-5.9547,-1.9575,-0.0364,0.0850,-0.4374,
3.565451,0.0347,-1.5363,-0.1864,-3.3098,-5.9547,-1.9575,-0.0895,-0.0708,-0.3788,
3.572750,0.0347,-1.5363,-0.1864,-3.3098,-5.9547,-1.9575,-0.1029,-0.2241,-0.3513,
3.581755,0.0528,-1.5719,-0.1069,-3.3098,-5.9547,-1.9575,-0.1029,-0.2241,-0.3513,
3.584093,0.0528,-1.5719,-0.1069,-3.1048,-6.2913,-1.1132,-0.1029,-0.2241,-0.3513,
3.585742,0.0528,-1.5719,-0.1069,-3.1048,-6.2913,-1.1132,-0.0639,-0.3139,-0.3660,
3.593643,0.0528,-1.5719,-0.1069,-3.1048,-6.2913,-1.1132,0.0198,-0.2070,-0.4264,
3.601396,0.0057,-1.4148,-0.0162,-3.1048,-6.2913,-1.1132,0.0198,-0.2070,-0.4264,
3.603478,0.0057,-1.4148,-0.0162,-3.5317,-4.7381,-0.1755,0.0198,-0.2070,-0.4264,
3.605080,0.0057,-1.4148,-0.0162,-3.5317,-4.7381,-0.1755,0.1249,0.1449,-0.4906,
3.612906,0.0057,-1.4148,-0.0162,-3.5317,-4.7381,-0.1755,0.2135,0.6061,-0.5138,
3.621921,-0.0687,-1.3742,-0.1577,-3.5317,-4.7381,-0.1755,0.2135,0.6061,-0.5138,
3.623854,-0.0687,-1.3742,-0.1577,-4.2320,-4.3295,-1.5865,0.2135,0.6061,-0.5138,
3.625848,-0.0687,-1.3742,-0.1577,-4.2320,-4.3295,-1.5865,0.2245,0.9848,-0.4839,
3.632877,-0.0687,-1.3742,-0.1577,-4.2320,-4.3295,-1.5865,0.1420,1.1901,-0.3953,
3.643699,-0.0420,-1.3954,-0.2498,-4.2320,-4.3295,-1.5865,0.1420,1.1901,-0.3953,
3.646031,-0.0420,-1.3954,-0.2498,-3.9227,-4.5184,-2.5532,0.1420,1.1901,-0.3953,
3.648825,-0.0420,-1.3954,-0.2498,-3.9227,-4.5184,-2.5532,0.0033,1.2090,-0.2847,
3.652970,-0.0420,-1.3954,-0.2498,-3.9227,-4.5184,-2.5532,-0.1463,1.0722,-0.2023,
3.661897,0.0172,-1.3542,-0.2679,-3.9227,-4.5184,-2.5532,-0.1463,1.0722,-0.2023,
3.664759,0.0172,-1.3542,-0.2679,-3.2585,-4.0835,-2.7396,-0.1463,1.0722,-0.2023,
3.666761,0.0172,-1.3542,-0.2679,-3.2585,-4.0835,-2.7396,-0.2807,0.8333,-0.1509,
3.673023,0.0172,-1.3542,-0.2679,-3.2585,-4.0835,-2.7396,-0.3730,0.5413,-0.1021,
3.682304,0.0100,-1.1620,-0.2119,-3.2585,-4.0835,-2.7396,-0.3730,0.5413,-0.1021,
3.685209,0.0100,-1.1620,-0.2119,-3.2281,-2.1628,-2.1183,-0.3730,0.5413,-0.1021,
3.687190,0.0100,-1.1620,-0.2119,-3.2281,-2.1628,-2.1183,-0.4114,0.2872,-0.0373,
3.693852,0.0100,-1.1620,-0.2119,-3.2281,-2.1628,-2.1183,-0.4182,0.1516,0.0293,
3.701673,0.0129,-0.9136,-0.1223,-3.2281,-2.1628,-2.1183,-0.4182,0.1516,0.0293,
3.703552,0.0129,-0.9136,-0.1223,-3.0808,0.3138,-1.1228,-0.4182,0.1516,0.0293,
3.705491,0.0129,-0.9136,-0.1223,-3.0808,0.3138,-1.1228,-0.4127,0.3177,0.1349,
3.713002,0.0129,-0.9136,-0.1223,-3.0808,0.3138,-1.1228,-0.4249,0.5651,0.1594,
3.721641,0.0333,-0.7268,-0.0781,-3.0808,0.3138,-1.1228,-0.4249,0.5651,0.1594,
3.723996,0.0333,-0.7268,-0.0781,-2.7419,2.1898,-0.5917,-0.4249,0.5651,0.1594,
3.726543,0.0333,-0.7268,-0.0781,-2.7419,2.1898,-0.5917,-0.4744,0.8553,0.1856,
3.733007,0.0333,-0.7268,-0.0781,-2.7419,2.1898,-0.5917,-0.5556,1.1522,0.2467,
3.744020,0.0078,-0.5545,-0.0679,-2.7419,2.1898,-0.5917,-0.5556,1.1522,0.2467,
3.746974,0.0078,-0.5545,-0.0679,-2.8476,3.9235,-0.4133,-0.5556,1.1522,0.2467,
3.749362,0.0078,-0.5545,-0.0679,-2.8476,3.9235,-0.4133,-0.6539,1.4399,0.3414,
3.752853,0.0078,-0.5545,-0.0679,-2.8476,3.9235,-0.4133,-0.7541,1.6861,0.4428,
3.761658,0.0612,-0.5529,-0.0655,-2.8476,3.9235,-0.4133,-0.7541,1.6861,0.4428,
3.764934,0.0612,-0.5529,-0.0655,-2.1636,3.9853,-0.3083,-0.7541,1.6861,0.4428,
3.767333,0.0612,-0.5529,-0.0655,-2.1636,3.9853,-0.3083,-0.8342,1.8565,0.5143,
3.773361,0.0612,-0.5529,-0.0655,-2.1636,3.9853,-0.3083,-0.8684,1.9115,0.5192,
3.782467,0.1145,-0.6744,-0.0484,-2.1636,3.9853,-0.3083,-0.8684,1.9115,0.5192,
3.785169,0.1145,-0.6744,-0.0484,-1.4799,2.8367,-0.0527,-0.8684,1.9115,0.5192,
3.787169,0.1145,-0.6744,-0.0484,-1.4799,2.8367,-0.0527,-0.8360,1.8693,0.4581,
3.793790,0.1145,-0.6744,-0.0484,-1.4799,2.8367,-0.0527,-0.7340,1.7337,0.3640,
3.801252,0.0977,-0.7478,-0.0607,-1.4799,2.8367,-0.0527,-0.7340,1.7337,0.3640,
3.802897,0.0977,-0.7478,-0.0607,-1.5152,2.1479,-0.0945,-0.7340,1.7337,0.3640,
3.804530,0.0977,-0.7478,-0.0607,-1.5152,2.1479,-0.0945,-0.5813,1.5083,0.2644,
3.812662,0.0977,-0.7478,-0.0607,-1.5152,2.1479,-0.0945,-0.4151,1.2218,0.1710,
3.821255,0.0148,-0.8471,-0.0872,-1.5152,2.1479,-0.0945,-0.4151,1.2218,0.1710,
3.823673,0.0148,-0.8471,-0.0872,-2.2302,1.1970,-0.3065,-0.4151,1.2218,0.1710,
3.826671,0.0148,-0.8471,-0.0872,-2.2302,1.1970,-0.3065,-0.2703,0.8919,0.0995,
3.832761,0.0148,-0.8471,-0.0872,-2.2302,1.1970,-0.3065,-0.1463,0.5132,0.0848,
3.843699,-0.0514,-0.8758,-0.0417,-2.2302,1.1970,-0.3065,-0.1463,0.5132,0.0848,
3.845947,-0.0514,-0.8758,-0.0417,-2.7877,0.9369,0.1594,-0.1463,0.5132,0.0848,
3.847803,-0.0514,-0.8758,-0.0417,-2.7877,0.9369,0.1594,-0.0180,0.1015,0.1007,
3.852721,-0.0514,-0.8758,-0.0417,-2.7877,0.9369,0.1594,0.1280,-0.2559,0.1068,
3.861525,-0.0107,-0.8668,0.0542,-2.7877,0.9369,0.1594,0.1280,-0.2559,0.1068,
3.864610,-0.0107,-0.8668,0.0542,-2.2863,1.0502,1.0880,0.1280,-0.2559,0.1068,
3.866733,-0.0107,-0.8668,0.0542,-2.2863,1.0502,1.0880,0.3051,-0.5063,0.0885,
3.873132,-0.0107,-0.8668,0.0542,-2.2863,1.0502,1.0880,0.4658,-0.6364,0.0225,
3.881782,0.0948,-0.9088,-0.1614,-2.2863,1.0502,1.0880,0.4658,-0.6364,0.0225,
3.884282,0.0948,-0.9088,-0.1614,-1.1665,0.6596,-1.0608,0.4658,-0.6364,0.0225,
3.886066,0.0948,-0.9088,-0.1614,-1.1665,0.6596,-1.0608,0.4768,-0.5906,-0.0227,
3.893842,0.0948,-0.9088,-0.1614,-1.1665,0.6596,-1.0608,0.2880,-0.2162,-0.0605,
3.901700,0.2433,-0.9429,-0.1570,-1.1665,0.6596,-1.0608,0.2880,-0.2162,-0.0605,
3.903983,0.2433,-0.9429,-0.1570,0.3168,0.3336,-1.0561,0.2880,-0.2162,-0.0605,
3.905786,0.2433,-0.9429,-0.1570,0.3168,0.3336,-1.0561,0.2007,0.0074,-0.1228,
3.912949,0.2433,-0.9429,-0.1570,0.3168,0.3336,-1.0561,0.1127,0.2420,-0.2133,
3.921935,0.4670,-1.0252,-0.1182,0.3168,0.3336,-1.0561,0.1127,0.2420,-0.2133,
3.924542,0.4670,-1.0252,-0.1182,2.4765,-0.4790,-0.7016,0.1127,0.2420,-0.2133,
3.926732,0.4670,-1.0252,-0.1182,2.4765,-0.4790,-0.7016,0.0375,0.4570,-0.3079,
3.932866,0.4670,-1.0252,-0.1182,2.4765,-0.4790,-0.7016,0.0528,0.5205,-0.4100,
3.944073,1.0530,-1.1728,0.5609,2.4765,-0.4790,-0.7016,0.0528,0.5205,-0.4100,
3.946889,1.0530,-1.1728,0.5609,8.0743,-1.9547,5.8788,0.0528,0.5205,-0.4100,
3.949330,1.0530,-1.1728,0.5609,8.0743,-1.9547,5.8788,0.5067,-0.1355,-0.6635,
3.952845,1.0530,-1.1728,0.5609,8.0743,-1.9547,5.8788,1.2770,-1.4978,-1.0978,
3.962242,0.7142,-1.1893,-0.1211,8.0743,-1.9547,5.8788,1.2770,-1.4978,-1.0978,
3.965266,0.7142,-1.1893,-0.1211,4.5140,-2.1714,-0.9543,1.2770,-1.4978,-1.0978,
3.967239,0.7142,-1.1893,-0.1211,4.5140,-2.1714,-0.9543,1.5281,-2.3188,-1.3366,
3.972839,0.7142,-1.1893,-0.1211,4.5140,-2.1714,-0.9543,1.3259,-2.5075,-1.1992,
3.982105,0.3369,-0.8658,-0.0329,4.5140,-2.1714,-0.9543,1.3259,-2.5075,-1.1992,
3.984950,0.3369,-0.8658,-0.0329,0.5320,0.9220,-0.2400,1.3259,-2.5075,-1.1992,
3.986778,0.3369,-0.8658,-0.0329,0.5320,0.9220,-0.2400,1.0100,-2.4568,-0.7704,
3.993523,0.3369,-0.8658,-0.0329,0.5320,0.9220,-0.2400,0.7284,-2.2015,-0.2609,
4.001271,0.6053,-0.8600,-0.0017,0.5320,0.9220,-0.2400,0.7284,-2.2015,-0.2609,
4.002953,0.6053,-0.8600,-0.0017,2.9985,0.9300,0.0294,0.7284,-2.2015,-0.2609,
4.004738,0.6053,-0.8600,-0.0017,2.9985,0.9300,0.0294,0.4719,-1.5326,0.0897,
4.013663,0.6053,-0.8600,-0.0017,2.9985,0.9300,0.0294,0.2440,-0.6480,0.1795,
4.021744,0.8111,-0.9864,-0.0006,2.9985,0.9300,0.0294,0.2440,-0.6480,0.1795,
4.025103,0.8111,-0.9864,-0.0006,4.9508,-0.3295,0.0337,0.2440,-0.6480,0.1795,
4.027656,0.8111,-0.9864,-0.0006,4.9508,-0.3295,0.0337,0.0785,0.0740,0.1172,
4.032863,0.8111,-0.9864,-0.0006,4.9508,-0.3295,0.0337,-0.0303,0.4821,0.0317,
4.043902,0.7737,-0.9786,-0.0937,4.9508,-0.3295,0.0337,-0.0303,0.4821,0.0317,
4.046629,0.7737,-0.9786,-0.0937,4.4969,-0.2814,-0.8926,-0.0303,0.4821,0.0317,
4.048677,0.7737,-0.9786,-0.0937,4.4969,-0.2814,-0.8926,-0.1298,0.6940,-0.0343,
4.052679,0.7737,-0.9786,-0.0937,4.4969,-0.2814,-0.8926,-0.2331,0.8052,-0.0489,
4.061728,0.5796,-0.9180,-0.1127,4.4969,-0.2814,-0.8926,-0.2331,0.8052,-0.0489,
4.064029,0.5796,-0.9180,-0.1127,2.4919,0.2776,-1.0760,-0.2331,0.8052,-0.0489,
4.065897,0.5796,-0.9180,-0.1127,2.4919,0.2776,-1.0760,-0.3247,0.8327,-0.0086,
4.072282,0.5796,-0.9180,-0.1127,2.4919,0.2776,-1.0760,-0.3931,0.7979,0.0482,
4.080862,0.4302,-0.9210,-0.0866,2.4919,0.2776,-1.0760,-0.3931,0.7979,0.0482,
4.082834,0.4302,-0.9210,-0.0866,0.9531,0.2215,-0.7863,-0.3931,0.7979,0.0482,
4.083968,0.4302,-0.9210,-0.0866,0.9531,0.2215,-0.7863,-0.4285,0.5804,0.0848,
4.093095,0.4302,-0.9210,-0.0866,0.9531,0.2215,-0.7863,-0.4035,0.3990,0.1343,
4.100957,0.3078,-0.9642,-0.0942,0.9531,0.2215,-0.7863,-0.4035,0.3990,0.1343,
4.102073,0.3078,-0.9642,-0.0942,-0.2747,-0.2118,-0.7969,-0.4035,0.3990,0.1343,
4.103156,0.3078,-0.9642,-0.0942,-0.2747,-0.2118,-0.7969,-0.3742,0.2096,0.1820,
4.112099,0.3078,-0.9642,-0.0942,-0.2747,-0.2118,-0.7969,-0.3510,0.0459,0.2162,
4.120866,0.2615,-0.9270,-0.0854,-0.2747,-0.2118,-0.7969,-0.3510,0.0459,0.2162,
4.121827,0.2615,-0.9270,-0.0854,-0.7135,0.1562,-0.6392,-0.3510,0.0459,0.2162,
4.122593,0.2615,-0.9270,-0.0854,-0.7135,0.1562,-0.6392,-0.3357,-0.0873,0.2351,
4.132067,0.2615,-0.9270,-0.0854,-0.7135,0.1562,-0.6392,-0.3253,-0.1771,0.2412,
4.141945,0.2162,-0.8269,-0.0483,-0.7135,0.1562,-0.6392,-0.3253,-0.1771,0.2412,
4.143050,0.2162,-0.8269,-0.0483,-1.1215,1.1486,-0.1987,-0.3253,-0.1771,0.2412,
4.143996,0.2162,-0.8269,-0.0483,-1.1215,1.1486,-0.1987,-0.3155,-0.2039,0.2425,
4.152673,0.2162,-0.8269,-0.0483,-1.1215,1.1486,-0.1987,-0.2923,-0.1734,0.2480,
4.161211,0.1863,-0.7716,0.0380,-1.1215,1.1486,-0.1987,-0.2923,-0.1734,0.2480,
4.163791,0.1863,-0.7716,0.0380,-1.3698,1.7030,0.7154,-0.2923,-0.1734,0.2480,
4.165292,0.1863,-0.7716,0.0380,-1.3698,1.7030,0.7154,-0.2392,-0.1319,0.2559,
4.172536,0.1863,-0.7716,0.0380,-1.3698,1.7030,0.7154,-0.1482,-0.1264,0.2589,
4.181434,0.2301,-0.8204,0.0629,-1.3698,1.7030,0.7154,-0.1482,-0.1264,0.2589,
4.183209,0.2301,-0.8204,0.0629,-0.8920,1.2402,1.0010,-0.1482,-0.1264,0.2589,
4.184754,0.2301,-0.8204,0.0629,-0.8920,1.2402,1.0010,-0.0388,-0.1618,0.2418,
4.193426,0.2301,-0.8204,0.0629,-0.8920,1.2402,1.0010,0.0577,-0.2076,0.2156,
4.201567,0.2866,-0.8460,0.0534,-0.8920,1.2402,1.0010,0.0577,-0.2076,0.2156,
4.203644,0.2866,-0.8460,0.0534,-0.2964,1.0030,0.9106,0.0577,-0.2076,0.2156,
4.205530,0.2866,-0.8460,0.0534,-0.2964,1.0030,0.9106,0.1396,-0.2363,0.2046,
4.212965,0.2866,-0.8460,0.0534,-0.2964,1.0030,0.9106,0.2294,-0.2424,0.1936,
4.221807,0.3820,-0.8173,0.0818,-0.2964,1.0030,0.9106,0.2294,-0.2424,0.1936,
4.223870,0.3820,-0.8173,0.0818,0.6692,1.2958,1.1562,0.2294,-0.2424,0.1936,
4.226264,0.3820,-0.8173,0.0818,0.6692,1.2958,1.1562,0.3399,-0.2088,0.1710,
4.232893,0.3820,-0.8173,0.0818,0.6692,1.2958,1.1562,0.4688,-0.1355,0.1166,
4.244170,0.5352,-0.7956,0.0739,0.6692,1.2958,1.1562,0.4688,-0.1355,0.1166,
4.246911,0.5352,-0.7956,0.0739,2.1658,1.5103,0.9910,0.4688,-0.1355,0.1166,
4.249296,0.5352,-0.7956,0.0739,2.1658,1.5103,0.9910,0.6014,-0.0408,0.0177,
4.252853,0.5352,-0.7956,0.0739,2.1658,1.5103,0.9910,0.7119,0.0435,-0.1241,
4.261643,0.6584,-0.7591,0.0195,2.1658,1.5103,0.9910,0.7119,0.0435,-0.1241,
4.264855,0.6584,-0.7591,0.0195,3.2932,1.8442,0.3152,0.7119,0.0435,-0.1241,
4.266760,0.6584,-0.7591,0.0195,3.2932,1.8442,0.3152,0.8414,0.0887,-0.5486,
4.272822,0.6584,-0.7591,0.0195,3.2932,1.8442,0.3152,0.8720,0.0654,-0.7972,
4.281963,0.6511,-0.7244,0.0385,3.2932,1.8442,0.3152,0.8720,0.0654,-0.7972,
4.284691,0.6511,-0.7244,0.0385,3.0124,2.1112,0.3242,0.8720,0.0654,-0.7972,
4.286567,0.6511,-0.7244,0.0385,3.0124,2.1112,0.3242,0.9154,0.0581,-1.0031,
4.294790,0.6511,-0.7244,0.0385,3.0124,2.1112,0.3242,0.9771,0.1131,-1.1124,
4.301574,0.2271,-0.8399,-0.0258,3.0124,2.1112,0.3242,0.9771,0.1131,-1.1124,
4.303669,0.2271,-0.8399,-0.0258,-1.3694,0.8898,-0.4847,0.9771,0.1131,-1.1124,
4.305660,0.2271,-0.8399,-0.0258,-1.3694,0.8898,-0.4847,1.0235,0.2243,-1.1076,
4.313059,0.2271,-0.8399,-0.0258,-1.3694,0.8898,-0.4847,1.0528,0.2951,-1.0312,
4.321697,-0.0024,-0.9627,-0.0325,-1.3694,0.8898,-0.4847,1.0528,0.2951,-1.0312,
4.323958,-0.0024,-0.9627,-0.0325,-3.8044,-0.3961,-0.7515,1.0528,0.2951,-1.0312,
4.327709,-0.0024,-0.9627,-0.0325,-3.8044,-0.3961,-0.7515,1.0607,0.3550,-0.8913,
4.333035,-0.0024,-0.9627,-0.0325,-3.8044,-0.3961,-0.7515,1.0736,0.3684,-0.6690,
4.344625,-0.1488,-1.0192,0.0117,-3.8044,-0.3961,-0.7515,1.0736,0.3684,-0.6690,
4.347674,-0.1488,-1.0192,0.0117,-5.3016,-0.9886,-0.5155,1.0736,0.3684,-0.6690,
4.350159,-0.1488,-1.0192,0.0117,-5.3016,-0.9886,-0.5155,1.0992,0.2799,-0.3861,
4.353662,-0.1488,-1.0192,0.0117,-5.3016,-0.9886,-0.5155,1.1157,0.0636,-0.1186,
4.361780,0.0452,-1.0616,-0.0062,-5.3016,-0.9886,-0.5155,1.1157,0.0636,-0.1186,
4.364633,0.0452,-1.0616,-0.0062,-3.3547,-1.3997,-0.8799,1.1157,0.0636,-0.1186,
4.366907,0.0452,-1.0616,-0.0062,-3.3547,-1.3997,-0.8799,1.0858,-0.2119,0.0250,
4.373001,0.0452,-1.0616,-0.0062,-3.3547,-1.3997,-0.8799,0.9844,-0.4495,-0.0166,
4.381607,0.3152,-1.1470,0.0869,-3.3547,-1.3997,-0.8799,0.9844,-0.4495,-0.0166,
4.384293,0.3152,-1.1470,0.0869,-0.6398,-2.2200,-0.0952,0.9844,-0.4495,-0.0166,
4.386309,0.3152,-1.1470,0.0869,-0.6398,-2.2200,-0.0952,0.8347,-0.6297,-0.2041,
4.394715,0.3152,-1.1470,0.0869,-0.6398,-2.2200,-0.0952,0.6674,-0.7409,-0.4118,
4.401706,0.3941,-1.0906,0.0635,-0.6398,-2.2200,-0.0952,0.6674,-0.7409,-0.4118,
4.403741,0.3941,-1.0906,0.0635,0.1216,-1.6780,-0.3803,0.6674,-0.7409,-0.4118,
4.405504,0.3941,-1.0906,0.0635,0.1216,-1.6780,-0.3803,0.4768,-0.7947,-0.5395,
4.412982,0.3941,-1.0906,0.0635,0.1216,-1.6780,-0.3803,0.2269,-0.7366,-0.5627,
4.421831,0.3235,-0.9629,-0.0623,0.1216,-1.6780,-0.3803,0.2269,-0.7366,-0.5627,
4.424440,0.3235,-0.9629,-0.0623,-0.6341,-0.4503,-1.5824,0.2269,-0.7366,-0.5627,
4.426808,0.3235,-0.9629,-0.0623,-0.6341,-0.4503,-1.5824,-0.0773,-0.5424,-0.4631,
4.432966,0.3235,-0.9629,-0.0623,-0.6341,-0.4503,-1.5824,-0.3601,-0.3536,-0.2316,
4.445108,0.2441,-0.9325,0.0022,-0.6341,-0.4503,-1.5824,-0.3601,-0.3536,-0.2316,
4.448202,0.2441,-0.9325,0.0022,-1.4321,-0.1499,-0.8444,-0.3601,-0.3536,-0.2316,
4.450660,0.2441,-0.9325,0.0022,-1.4321,-0.1499,-0.8444,-0.5990,-0.1422,0.4501,
4.453383,0.2441,-0.9325,0.0022,-1.4321,-0.1499,-0.8444,-0.5226,-0.1477,0.7916,
4.461703,0.2183,-1.0023,0.1277,-1.4321,-0.1499,-0.8444,-0.5226,-0.1477,0.7916,
4.464407,0.2183,-1.0023,0.1277,-1.5313,-0.7587,0.5091,-0.5226,-0.1477,0.7916,
4.466550,0.2183,-1.0023,0.1277,-1.5313,-0.7587,0.5091,-0.3827,-0.1758,1.0598,
4.472880,0.2183,-1.0023,0.1277,-1.5313,-0.7587,0.5091,-0.2233,-0.1703,1.2583,
4.482022,0.1388,-1.0381,0.2586,-1.5313,-0.7587,0.5091,-0.2233,-0.1703,1.2583,
4.484529,0.1388,-1.0381,0.2586,-2.0549,-1.0055,1.8505,-0.2233,-0.1703,1.2583,
4.486492,0.1388,-1.0381,0.2586,-2.0549,-1.0055,1.8505,-0.0675,-0.1270,1.4043,
4.494699,0.1388,-1.0381,0.2586,-2.0549,-1.0055,1.8505,0.0669,-0.1001,1.5234,
4.501583,0.0790,-1.0271,0.2604,-2.0549,-1.0055,1.8505,0.0669,-0.1001,1.5234,
4.503491,0.0790,-1.0271,0.2604,-2.3197,-0.7861,1.8493,0.0669,-0.1001,1.5234,
4.505546,0.0790,-1.0271,0.2604,-2.3197,-0.7861,1.8493,0.1567,-0.1679,1.6236,
4.513027,0.0790,-1.0271,0.2604,-2.3197,-0.7861,1.8493,0.1365,-0.3457,1.6908,
4.521460,0.1405,-0.9914,-0.0050,-2.3197,-0.7861,1.8493,0.1365,-0.3457,1.6908,
4.523612,0.1405,-0.9914,-0.0050,-1.3781,-0.3317,-0.7726,0.1365,-0.3457,1.6908,
4.526097,0.1405,-0.9914,-0.0050,-1.3781,-0.3317,-0.7726,-0.0791,-0.4849,1.7067,
4.533045,0.1405,-0.9914,-0.0050,-1.3781,-0.3317,-0.7726,-0.5116,-0.3787,1.6609,
4.541757,0.2763,-0.9987,-0.2902,-1.3781,-0.3317,-0.7726,-0.5116,-0.3787,1.6609,
4.544199,0.2763,-0.9987,-0.2902,0.2767,-0.3079,-3.4739,-0.5116,-0.3787,1.6609,
4.546006,0.2763,-0.9987,-0.2902,0.2767,-0.3079,-3.4739,-1.0968,0.0551,1.5534,
4.553058,0.2763,-0.9987,-0.2902,0.2767,-0.3079,-3.4739,-1.6936,0.7325,1.4031,
4.561560,0.2492,-0.9880,-0.2256,0.2767,-0.3079,-3.4739,-1.6936,0.7325,1.4031,
4.564463,0.2492,-0.9880,-0.2256,0.2981,-0.1194,-2.5671,-1.6936,0.7325,1.4031,
4.566739,0.2492,-0.9880,-0.2256,0.2981,-0.1194,-2.5671,-2.1597,1.4436,1.2742,
4.572810,0.2492,-0.9880,-0.2256,0.2981,-0.1194,-2.5671,-2.4352,2.0251,1.2333,
4.581646,0.1081,-0.9626,-0.1068,0.2981,-0.1194,-2.5671,-2.4352,2.0251,1.2333,
4.584526,0.1081,-0.9626,-0.1068,-0.8365,0.1884,-1.0170,-2.4352,2.0251,1.2333,
4.586377,0.1081,-0.9626,-0.1068,-0.8365,0.1884,-1.0170,-2.5201,2.3415,1.3029,
4.594403,0.1081,-0.9626,-0.1068,-0.8365,0.1884,-1.0170,-2.4609,2.3342,1.4257,
4.601386,0.1480,-0.8933,-0.1125,-0.8365,0.1884,-1.0170,-2.4609,2.3342,1.4257,
4.603483,0.1480,-0.8933,-0.1125,-0.1940,0.9036,-0.6699,-2.4609,2.3342,1.4257,
4.605453,0.1480,-0.8933,-0.1125,-0.1940,0.9036,-0.6699,-2.3277,2.0978,1.5082,
4.612973,0.1480,-0.8933,-0.1125,-0.1940,0.9036,-0.6699,-2.1927,1.6647,1.4587,
4.621792,0.2817,-0.8348,-0.1454,-0.1940,0.9036,-0.6699,-2.1927,1.6647,1.4587,
4.624060,0.2817,-0.8348,-0.1454,1.3659,1.4914,-0.6060,-2.1927,1.6647,1.4587,
4.626309,0.2817,-0.8348,-0.1454,1.3659,1.4914,-0.6060,-2.0437,1.0337,1.2614,
4.632877,0.2817,-0.8348,-0.1454,1.3659,1.4914,-0.6060,-1.7388,-0.3719,0.7452,
4.642737,0.2405,-0.8479,-0.1957,1.3659,1.4914,-0.6060,-1.7388,-0.3719,0.7452,
4.645326,0.2405,-0.8479,-0.1957,1.1232,1.3480,-0.7395,-1.7388,-0.3719,0.7452,
4.647064,0.2405,-0.8479,-0.1957,1.1232,1.3480,-0.7395,-1.6570,-0.8838,0.5051,
4.652925,0.2405,-0.8479,-0.1957,1.1232,1.3480,-0.7395,-1.6100,-1.1935,0.3145,
4.661596,0.1669,-0.8997,-0.2017,1.1232,1.3480,-0.7395,-1.6100,-1.1935,0.3145,
4.664362,0.1669,-0.8997,-0.2017,0.4842,0.8031,-0.4578,-1.6100,-1.1935,0.3145,
4.666651,0.1669,-0.8997,-0.2017,0.4842,0.8031,-0.4578,-1.5800,-1.3713,0.2113,
4.673000,0.1669,-0.8997,-0.2017,0.4842,0.8031,-0.4578,-1.5568,-1.4947,0.1826,
4.681439,0.2223,-1.0776,-0.2095,0.4842,0.8031,-0.4578,-1.5568,-1.4947,0.1826,
4.684074,0.2223,-1.0776,-0.2095,1.0888,-0.9916,-0.2058,-1.5568,-1.4947,0.1826,
4.685500,0.2223,-1.0776,-0.2095,1.0888,-0.9916,-0.2058,-1.5507,-1.5747,0.1814,
4.694238,0.2223,-1.0776,-0.2095,1.0888,-0.9916,-0.2058,-1.5525,-1.5802,0.1966,
4.701798,0.3710,-1.3150,0.1803,1.0888,-0.9916,-0.2058,-1.5525,-1.5802,0.1966,
4.703597,0.3710,-1.3150,0.1803,2.5923,-3.3679,3.8819,-1.5525,-1.5802,0.1966,
4.705152,0.3710,-1.3150,0.1803,2.5923,-3.3679,3.8819,-1.4859,-1.5430,0.2107,
4.712860,0.3710,-1.3150,0.1803,2.5923,-3.3679,3.8819,-0.9734,-2.0995,0.1447,
4.721983,0.6695,-1.2686,0.6992,2.5923,-3.3679,3.8819,-0.9734,-2.0995,0.1447,
4.723850,0.6695,-1.2686,0.6992,5.5445,-2.9406,9.0998,-0.9734,-2.0995,0.1447,
4.725853,0.6695,-1.2686,0.6992,5.5445,-2.9406,9.0998,0.1897,-3.6590,-0.1033,
4.733001,0.6695,-1.2686,0.6992,5.5445,-2.9406,9.0998,0.5922,-4.0677,-0.2249,
4.741737,0.3473,-0.8691,0.3070,5.5445,-2.9406,9.0998,0.5922,-4.0677,-0.2249,
4.744302,0.3473,-0.8691,0.3070,2.4325,1.0133,5.1045,0.5922,-4.0677,-0.2249,
4.746434,0.3473,-0.8691,0.3070,2.4325,1.0133,5.1045,0.2898,-3.0145,-0.0935,
4.752956,0.3473,-0.8691,0.3070,2.4325,1.0133,5.1045,0.1078,-1.5961,0.0910,
4.761740,0.4081,-0.7153,0.6062,2.4325,1.0133,5.1045,0.1078,-1.5961,0.0910,
4.764764,0.4081,-0.7153,0.6062,3.0126,2.5575,7.8528,0.1078,-1.5961,0.0910,
4.766989,0.4081,-0.7153,0.6062,3.0126,2.5575,7.8528,0.3998,-0.5167,0.1362,
4.772962,0.4081,-0.7153,0.6062,3.0126,2.5575,7.8528,0.7840,-0.0109,0.0042,
4.782145,0.4085,-0.9568,-0.1963,3.0126,2.5575,7.8528,0.7840,-0.0109,0.0042,
4.784987,0.4085,-0.9568,-0.1963,2.9276,0.2261,-0.2516,0.7840,-0.0109,0.0042,
4.787366,0.4085,-0.9568,-0.1963,2.9276,0.2261,-0.2516,0.8311,0.0795,-0.1277,
4.794737,0.4085,-0.9568,-0.1963,2.9276,0.2261,-0.2516,0.6802,0.0496,-0.1766,
4.801814,0.4802,-1.1002,-0.3318,2.9276,0.2261,-0.2516,0.6802,0.0496,-0.1766,
4.804132,0.4802,-1.1002,-0.3318,3.4900,-1.1609,-1.7952,0.6802,0.0496,-0.1766,
4.806030,0.4802,-1.1002,-0.3318,3.4900,-1.1609,-1.7952,0.5079,0.0209,-0.1949,
4.812911,0.4802,-1.1002,-0.3318,3.4900,-1.1609,-1.7952,0.2404,-0.1282,-0.1546,
4.821696,0.5786,-1.0923,-0.2403,3.4900,-1.1609,-1.7952,0.2404,-0.1282,-0.1546,
4.823797,0.5786,-1.0923,-0.2403,4.3094,-1.0868,-1.0065,0.2404,-0.1282,-0.1546,
4.828026,0.5786,-1.0923,-0.2403,4.3094,-1.0868,-1.0065,0.1396,-0.2730,-0.1290,
4.833254,0.5786,-1.0923,-0.2403,4.3094,-1.0868,-1.0065,0.0693,-0.3921,-0.1338,
4.841905,0.6640,-0.9447,-0.1030,4.3094,-1.0868,-1.0065,0.0693,-0.3921,-0.1338,
4.844532,0.6640,-0.9447,-0.1030,5.0013,0.3433,0.2982,0.0693,-0.3921,-0.1338,
4.846644,0.6640,-0.9447,-0.1030,5.0013,0.3433,0.2982,0.0589,-0.3933,-0.1680,
4.852840,0.6640,-0.9447,-0.1030,5.0013,0.3433,0.2982,0.1084,-0.2968,-0.1986,
4.862309,0.6205,-1.0796,-0.1237,5.0013,0.3433,0.2982,0.1084,-0.2968,-0.1986,
4.865586,0.6205,-1.0796,-0.1237,4.4217,-0.9997,0.0659,0.1084,-0.2968,-0.1986,
4.868532,0.6205,-1.0796,-0.1237,4.4217,-0.9997,0.0659,0.1738,-0.2650,-0.2102,
4.872663,0.6205,-1.0796,-0.1237,4.4217,-0.9997,0.0659,0.2123,-0.3939,-0.2291,
4.881430,0.4599,-1.1385,-0.1197,4.4217,-0.9997,0.0659,0.2123,-0.3939,-0.2291,
4.884263,0.4599,-1.1385,-0.1197,2.7047,-1.5967,0.0609,0.2123,-0.3939,-0.2291,
4.885829,0.4599,-1.1385,-0.1197,2.7047,-1.5967,0.0609,0.2049,-0.5753,-0.2554,
4.894549,0.4599,-1.1385,-0.1197,2.7047,-1.5967,0.0609,0.1603,-0.6688,-0.2578,
4.901226,0.3794,-1.0567,-0.0282,2.7047,-1.5967,0.0609,0.1603,-0.6688,-0.2578,
4.903035,0.3794,-1.0567,-0.0282,1.7900,-0.8159,0.9221,0.1603,-0.6688,-0.2578,
4.904636,0.3794,-1.0567,-0.0282,1.7900,-0.8159,0.9221,0.1047,-0.6743,-0.2499,
4.912805,0.3794,-1.0567,-0.0282,1.7900,-0.8159,0.9221,0.0773,-0.6535,-0.2493,
4.921507,0.3509,-0.9759,0.0247,1.7900,-0.8159,0.9221,0.0773,-0.6535,-0.2493,
4.923289,0.3509,-0.9759,0.0247,1.4004,-0.0436,1.4176,0.0773,-0.6535,-0.2493,
4.925164,0.3509,-0.9759,0.0247,1.4004,-0.0436,1.4176,0.1023,-0.5955,-0.2548,
4.932704,0.3509,-0.9759,0.0247,1.4004,-0.0436,1.4176,0.1738,-0.4648,-0.2591,
4.941319,0.3218,-0.9546,-0.0680,1.4004,-0.0436,1.4176,0.1738,-0.4648,-0.2591,
4.943660,0.3218,-0.9546,-0.0680,1.0115,0.1460,0.4770,0.1738,-0.4648,-0.2591,
4.945534,0.3218,-0.9546,-0.0680,1.0115,0.1460,0.4770,0.2471,-0.3347,-0.2517,
4.953007,0.3218,-0.9546,-0.0680,1.0115,0.1460,0.4770,0.2740,-0.3096,-0.2310,
4.962655,0.2972,-0.9792,-0.1405,1.0115,0.1460,0.4770,0.2740,-0.3096,-0.2310,
4.965583,0.2972,-0.9792,-0.1405,0.6882,-0.1078,-0.2821,0.2740,-0.3096,-0.2310,
4.967790,0.2972,-0.9792,-0.1405,0.6882,-0.1078,-0.2821,0.2532,-0.3799,-0.1876,
4.972996,0.2972,-0.9792,-0.1405,0.6882,-0.1078,-0.2821,0.2190,-0.4507,-0.1351,
4.981338,0.2758,-0.9307,-0.1772,0.6882,-0.1078,-0.2821,0.2190,-0.4507,-0.1351,
4.983592,0.2758,-0.9307,-0.1772,0.4286,0.3588,-0.6711,0.2190,-0.4507,-0.1351,
4.985160,0.2758,-0.9307,-0.1772,0.4286,0.3588,-0.6711,0.1939,-0.4654,-0.0929,
4.994669,0.2758,-0.9307,-0.1772,0.4286,0.3588,-0.6711,0.1701,-0.4611,-0.0630,
5.001488,0.2248,-0.8628,-0.1886,0.4286,0.3588,-0.6711,0.1701,-0.4611,-0.0630,
5.003696,0.2248,-0.8628,-0.1886,-0.0946,1.0199,-0.7916,0.1701,-0.4611,-0.0630,
5.005337,0.2248,-0.8628,-0.1886,-0.0946,1.0199,-0.7916,0.0950,-0.5570,0.0024,
5.012790,0.2248,-0.8628,-0.1886,-0.0946,1.0199,-0.7916,0.0577,-0.6364,0.0458,
5.021860,0.1996,-0.8778,-0.0960,-0.0946,1.0199,-0.7916,0.0577,-0.6364,0.0458,
5.023522,0.1996,-0.8778,-0.0960,-0.3337,0.8728,0.1306,0.0577,-0.6364,0.0458,
5.025081,0.1996,-0.8778,-0.0960,-0.3337,0.8728,0.1306,0.0333,-0.6926,0.0995,
5.032799,0.1996,-0.8778,-0.0960,-0.3337,0.8728,0.1306,0.0223,-0.7067,0.1655,
5.041582,0.3037,-0.8850,-0.0683,-0.3337,0.8728,0.1306,0.0223,-0.7067,0.1655,
5.044032,0.3037,-0.8850,-0.0683,0.7133,0.8057,0.4282,0.0223,-0.7067,0.1655,
5.046096,0.3037,-0.8850,-0.0683,0.7133,0.8057,0.4282,0.0278,-0.6487,0.2345,
5.053027,0.3037,-0.8850,-0.0683,0.7133,0.8057,0.4282,0.0357,-0.4923,0.2980,
5.062599,0.4289,-0.8918,-0.1439,0.7133,0.8057,0.4282,0.0357,-0.4923,0.2980,
5.065681,0.4289,-0.8918,-0.1439,1.9719,0.7437,-0.2918,0.0357,-0.4923,0.2980,
5.067959,0.4289,-0.8918,-0.1439,1.9719,0.7437,-0.2918,0.0211,-0.2699,0.3335,
5.072950,0.4289,-0.8918,-0.1439,1.9719,0.7437,-0.2918,-0.0241,-0.0567,0.3530,
5.081745,0.4713,-0.9249,-0.1722,1.9719,0.7437,-0.2918,-0.0241,-0.0567,0.3530,
5.084513,0.4713,-0.9249,-0.1722,2.4016,0.4210,-0.5554,-0.0241,-0.0567,0.3530,
5.086500,0.4713,-0.9249,-0.1722,2.4016,0.4210,-0.5554,-0.0883,0.0587,0.3762,
5.095278,0.4713,-0.9249,-0.1722,2.4016,0.4210,-0.5554,-0.1420,0.0251,0.3988,
5.101391,0.4434,-0.8780,-0.1145,2.4016,0.4210,-0.5554,-0.1420,0.0251,0.3988,
5.103655,0.4434,-0.8780,-0.1145,2.1319,0.8785,0.0354,-0.1420,0.0251,0.3988,
5.105457,0.4434,-0.8780,-0.1145,2.1319,0.8785,0.0354,-0.1549,-0.0842,0.4043,
5.113065,0.4434,-0.8780,-0.1145,2.1319,0.8785,0.0354,-0.1219,-0.1606,0.4013,
5.121127,0.4768,-0.8674,-0.1005,2.1319,0.8785,0.0354,-0.1219,-0.1606,0.4013,
5.122493,0.4768,-0.8674,-0.1005,2.4582,0.9785,0.2042,-0.1219,-0.1606,0.4013,
5.123779,0.4768,-0.8674,-0.1005,2.4582,0.9785,0.2042,-0.0590,-0.1777,0.3976,
5.132397,0.4768,-0.8674,-0.1005,2.4582,0.9785,0.2042,-0.0077,-0.1282,0.3884,
5.142126,0.5177,-0.8480,-0.1142,2.4582,0.9785,0.2042,-0.0077,-0.1282,0.3884,
5.144357,0.5177,-0.8480,-0.1142,2.8455,1.1640,0.0829,-0.0077,-0.1282,0.3884,
5.145764,0.5177,-0.8480,-0.1142,2.8455,1.1640,0.0829,0.0070,-0.0201,0.3713,
5.152414,0.5177,-0.8480,-0.1142,2.8455,1.1640,0.0829,0.0070,0.1015,0.3561,
5.161308,0.5167,-0.7968,-0.0892,2.8455,1.1640,0.0829,0.0070,0.1015,0.3561,
5.164722,0.5167,-0.7968,-0.0892,2.8018,1.6582,0.3229,0.0070,0.1015,0.3561,
5.166431,0.5167,-0.7968,-0.0892,2.8018,1.6582,0.3229,-0.0602,0.2004,0.3432,
5.172476,0.5167,-0.7968,-0.0892,2.8018,1.6582,0.3229,-0.1072,0.2890,0.3286,
5.181428,0.4784,-0.7593,-0.0537,2.8018,1.6582,0.3229,-0.1072,0.2890,0.3286,
5.183996,0.4784,-0.7593,-0.0537,2.3765,2.0141,0.6674,-0.1072,0.2890,0.3286,
5.185495,0.4784,-0.7593,-0.0537,2.3765,2.0141,0.6674,-0.1335,0.5584,0.2577,
5.195125,0.4784,-0.7593,-0.0537,2.3765,2.0141,0.6674,-0.1139,0.6354,0.1942,
5.201038,0.3932,-0.7257,-0.0310,2.3765,2.0141,0.6674,-0.1139,0.6354,0.1942,
5.202944,0.3932,-0.7257,-0.0310,1.4679,2.3270,0.8729,-0.1139,0.6354,0.1942,
5.204606,0.3932,-0.7257,-0.0310,1.4679,2.3270,0.8729,-0.0810,0.6146,0.1252,
5.212642,0.3932,-0.7257,-0.0310,1.4679,2.3270,0.8729,-0.0223,0.5572,0.0696,
5.221374,0.2746,-0.6937,0.0331,1.4679,2.3270,0.8729,-0.0223,0.5572,0.0696,
5.222760,0.2746,-0.6937,0.0331,0.2223,2.6244,1.4592,-0.0223,0.5572,0.0696,
5.223985,0.2746,-0.6937,0.0331,0.2223,2.6244,1.4592,0.0711,0.5383,0.0299,
5.232499,0.2746,-0.6937,0.0331,0.2223,2.6244,1.4592,0.1958,0.5639,-0.0049,
5.241099,0.2565,-0.6380,0.1179,0.2223,2.6244,1.4592,0.1958,0.5639,-0.0049,
5.242794,0.2565,-0.6380,0.1179,-0.0410,3.1582,2.1960,0.1958,0.5639,-0.0049,
5.244359,0.2565,-0.6380,0.1179,-0.0410,3.1582,2.1960,0.3485,0.5932,-0.0508,
5.252459,0.2565,-0.6380,0.1179,-0.0410,3.1582,2.1960,0.5519,0.6085,-0.1271,
5.262201,0.3509,-0.7184,0.2090,-0.0410,3.1582,2.1960,0.5519,0.6085,-0.1271,
5.264822,0.3509,-0.7184,0.2090,0.7836,2.3606,2.9103,0.5519,0.6085,-0.1271,
5.266944,0.3509,-0.7184,0.2090,0.7836,2.3606,2.9103,0.8097,0.6549,-0.2640,
5.272909,0.3509,-0.7184,0.2090,0.7836,2.3606,2.9103,1.0681,0.7527,-0.4674,
5.282557,0.3837,-0.9242,0.2101,0.7836,2.3606,2.9103,1.0681,0.7527,-0.4674,
5.285185,0.3837,-0.9242,0.2101,0.9668,0.3254,2.6369,1.0681,0.7527,-0.4674,
5.287066,0.3837,-0.9242,0.2101,0.9668,0.3254,2.6369,1.2917,0.7985,-0.6873,
5.295215,0.3837,-0.9242,0.2101,0.9668,0.3254,2.6369,1.4774,0.6855,-0.8705,
5.301533,0.3117,-1.0317,0.1112,0.9668,0.3254,2.6369,1.4774,0.6855,-0.8705,
5.303424,0.3117,-1.0317,0.1112,0.0792,-0.7692,1.3146,1.4774,0.6855,-0.8705,
5.305335,0.3117,-1.0317,0.1112,0.0792,-0.7692,1.3146,1.5806,0.5181,-0.9891,
5.313341,0.3117,-1.0317,0.1112,0.0792,-0.7692,1.3146,1.5653,0.4650,-1.0446,
5.321697,0.2141,-1.0214,0.0343,0.0792,-0.7692,1.3146,1.5653,0.4650,-1.0446,
5.323750,0.2141,-1.0214,0.0343,-1.0722,-0.7310,0.2172,1.5653,0.4650,-1.0446,
5.326825,0.2141,-1.0214,0.0343,-1.0722,-0.7310,0.2172,1.4706,0.5034,-1.0660,
5.332980,0.2141,-1.0214,0.0343,-1.0722,-0.7310,0.2172,1.3668,0.5370,-1.0850,
5.342412,0.1940,-1.0304,0.0831,-1.0722,-0.7310,0.2172,1.3668,0.5370,-1.0850,
5.344800,0.1940,-1.0304,0.0831,-1.4517,-0.8913,0.3961,1.3668,0.5370,-1.0850,
5.346794,0.1940,-1.0304,0.0831,-1.4517,-0.8913,0.3961,1.3033,0.5279,-1.1137,
5.352955,0.1940,-1.0304,0.0831,-1.4517,-0.8913,0.3961,1.2855,0.4851,-1.1803,
5.363065,0.2509,-1.2052,0.0702,-1.4517,-0.8913,0.3961,1.2855,0.4851,-1.1803,
5.365695,0.2509,-1.2052,0.0702,-1.0720,-2.6878,-0.0029,1.2855,0.4851,-1.1803,
5.367898,0.2509,-1.2052,0.0702,-1.0720,-2.6878,-0.0029,1.2843,0.4362,-1.3733,
5.372916,0.2509,-1.2052,0.0702,-1.0720,-2.6878,-0.0029,1.3204,0.2499,-1.3983,
5.381939,0.2253,-1.4651,0.0435,-1.0720,-2.6878,-0.0029,1.3204,0.2499,-1.3983,
5.384545,0.2253,-1.4651,0.0435,-1.5071,-5.3307,-0.5119,1.3204,0.2499,-1.3983,
5.386560,0.2253,-1.4651,0.0435,-1.5071,-5.3307,-0.5119,1.3344,0.0703,-1.3556,
5.395474,0.2253,-1.4651,0.0435,-1.5071,-5.3307,-0.5119,1.2910,-0.1294,-1.2413,
5.401593,0.0969,-1.6035,-0.0770,-1.5071,-5.3307,-0.5119,1.2910,-0.1294,-1.2413,
5.403890,0.0969,-1.6035,-0.0770,-2.9114,-6.7713,-1.8888,1.2910,-0.1294,-1.2413,
5.405835,0.0969,-1.6035,-0.0770,-2.9114,-6.7713,-1.8888,1.1774,-0.3267,-1.0648,
5.412979,0.0969,-1.6035,-0.0770,-2.9114,-6.7713,-1.8888,1.0192,-0.4074,-0.8760,
5.421673,0.1157,-1.4938,0.0274,-2.9114,-6.7713,-1.8888,1.0192,-0.4074,-0.8760,
5.423776,0.1157,-1.4938,0.0274,-2.8080,-5.7485,-0.9910,1.0192,-0.4074,-0.8760,
5.426061,0.1157,-1.4938,0.0274,-2.8080,-5.7485,-0.9910,0.8573,-0.3108,-0.7129,
5.432907,0.1157,-1.4938,0.0274,-2.8080,-5.7485,-0.9910,0.7052,-0.1209,-0.6054,
5.441959,0.2409,-1.2263,0.0117,-2.8080,-5.7485,-0.9910,0.7052,-0.1209,-0.6054,
5.444190,0.2409,-1.2263,0.0117,-1.6074,-3.1495,-1.2194,0.7052,-0.1209,-0.6054,
5.446375,0.2409,-1.2263,0.0117,-1.6074,-3.1495,-1.2194,0.5348,0.1033,-0.5749,
5.452951,0.2409,-1.2263,0.0117,-1.6074,-3.1495,-1.2194,0.3338,0.2921,-0.5932,
5.462642,0.3338,-1.0366,-0.0410,-1.6074,-3.1495,-1.2194,0.3338,0.2921,-0.5932,
5.465531,0.3338,-1.0366,-0.0410,-0.7114,-1.3032,-1.7757,0.3338,0.2921,-0.5932,
5.468033,0.3338,-1.0366,-0.0410,-0.7114,-1.3032,-1.7757,0.1121,0.4876,-0.6183,
5.473107,0.3338,-1.0366,-0.0410,-0.7114,-1.3032,-1.7757,-0.1292,0.7606,-0.6439,
5.481684,0.4025,-0.9475,-0.0164,-0.7114,-1.3032,-1.7757,-0.1292,0.7606,-0.6439,
5.484933,0.4025,-0.9475,-0.0164,-0.0673,-0.4423,-1.5271,-0.1292,0.7606,-0.6439,
5.487435,0.4025,-0.9475,-0.0164,-0.0673,-0.4423,-1.5271,-0.3491,1.0172,-0.6745,
5.493070,0.4025,-0.9475,-0.0164,-0.0673,-0.4423,-1.5271,-0.4884,1.1296,-0.6891,
5.501533,0.3105,-0.9485,0.0250,-0.0673,-0.4423,-1.5271,-0.4884,1.1296,-0.6891,
5.503868,0.3105,-0.9485,0.0250,-0.9995,-0.4601,-1.0828,-0.4884,1.1296,-0.6891,
5.505539,0.3105,-0.9485,0.0250,-0.9995,-0.4601,-1.0828,-0.5458,1.1332,-0.6396,
5.512778,0.3105,-0.9485,0.0250,-0.9995,-0.4601,-1.0828,-0.5617,1.1015,-0.5162,
5.521619,0.1686,-0.9998,0.0243,-0.9995,-0.4601,-1.0828,-0.5617,1.1015,-0.5162,
5.523622,0.1686,-0.9998,0.0243,-2.3940,-0.9565,-1.0359,-0.5617,1.1015,-0.5162,
5.525231,0.1686,-0.9998,0.0243,-2.3940,-0.9565,-1.0359,-0.5580,1.0648,-0.3568,
5.532833,0.1686,-0.9998,0.0243,-2.3940,-0.9565,-1.0359,-0.5580,1.0673,-0.1888,
5.541552,0.0296,-1.0068,0.0007,-2.3940,-0.9565,-1.0359,-0.5580,1.0673,-0.1888,
5.544788,0.0296,-1.0068,0.0007,-3.6913,-0.9872,-1.2090,-0.5580,1.0673,-0.1888,
5.546632,0.0296,-1.0068,0.0007,-3.6913,-0.9872,-1.2090,-0.5794,1.1277,-0.0166,
5.552810,0.0296,-1.0068,0.0007,-3.6913,-0.9872,-1.2090,-0.7034,1.4393,0.2901,
5.562224,-0.0399,-0.9107,0.0125,-3.6913,-0.9872,-1.2090,-0.7034,1.4393,0.2901,
5.564205,-0.0399,-0.9107,0.0125,-4.2163,0.0307,-1.0389,-0.7034,1.4393,0.2901,
5.566125,-0.0399,-0.9107,0.0125,-4.2163,0.0307,-1.0389,-0.7572,1.6201,0.3958,
5.572722,-0.0399,-0.9107,0.0125,-4.2163,0.0307,-1.0389,-0.7725,1.7459,0.4563,
5.581577,-0.0197,-0.6872,0.0733,-4.2163,0.0307,-1.0389,-0.7725,1.7459,0.4563,
5.583886,-0.0197,-0.6872,0.0733,-3.7971,2.3166,-0.3993,-0.7725,1.7459,0.4563,
5.585474,-0.0197,-0.6872,0.0733,-3.7971,2.3166,-0.3993,-0.7615,1.7948,0.4691,
5.592709,-0.0197,-0.6872,0.0733,-3.7971,2.3166,-0.3993,-0.7401,1.7569,0.4392,
5.601893,0.0475,-0.6469,0.0635,-3.7971,2.3166,-0.3993,-0.7401,1.7569,0.4392,
5.604505,0.0475,-0.6469,0.0635,-2.9173,2.8011,-0.4588,-0.7401,1.7569,0.4392,
5.606272,0.0475,-0.6469,0.0635,-2.9173,2.8011,-0.4588,-0.7285,1.6506,0.3775,
5.613203,0.0475,-0.6469,0.0635,-2.9173,2.8011,-0.4588,-0.7376,1.5126,0.3206,
5.621780,0.1314,-0.7892,0.0387,-2.9173,2.8011,-0.4588,-0.7376,1.5126,0.3206,
5.624011,0.1314,-0.7892,0.0387,-1.9123,1.4780,-0.6495,-0.7376,1.5126,0.3206,
5.626293,0.1314,-0.7892,0.0387,-1.9123,1.4780,-0.6495,-0.7712,1.3641,0.3023,
5.632946,0.1314,-0.7892,0.0387,-1.9123,1.4780,-0.6495,-0.8207,1.1546,0.2962,
5.641510,0.2136,-0.8901,0.0344,-1.9123,1.4780,-0.6495,-0.8207,1.1546,0.2962,
5.644098,0.2136,-0.8901,0.0344,-0.9607,0.5480,-0.6029,-0.8207,1.1546,0.2962,
5.646388,0.2136,-0.8901,0.0344,-0.9607,0.5480,-0.6029,-0.8726,0.8950,0.2870,
5.652890,0.2136,-0.8901,0.0344,-0.9607,0.5480,-0.6029,-0.9056,0.6500,0.2901,
5.663096,0.2343,-0.9204,0.1229,-0.9607,0.5480,-0.6029,-0.9056,0.6500,0.2901,
5.665787,0.2343,-0.9204,0.1229,-0.6518,0.2972,0.3870,-0.9056,0.6500,0.2901,
5.667985,0.2343,-0.9204,0.1229,-0.6518,0.2972,0.3870,-0.9032,0.4601,0.3023,
5.672938,0.2343,-0.9204,0.1229,-0.6518,0.2972,0.3870,-0.8806,0.3568,0.3139,
5.682260,0.2406,-0.8728,0.1586,-0.6518,0.2972,0.3870,-0.8806,0.3568,0.3139,
5.684787,0.2406,-0.8728,0.1586,-0.5036,0.8017,0.8719,-0.8806,0.3568,0.3139,
5.686527,0.2406,-0.8728,0.1586,-0.5036,0.8017,0.8719,-0.8531,0.3629,0.3139,
5.693053,0.2406,-0.8728,0.1586,-0.5036,0.8017,0.8719,-0.8158,0.4808,0.2962,
5.702081,0.2990,-0.8339,0.1496,-0.5036,0.8017,0.8719,-0.8158,0.4808,0.2962,
5.704791,0.2990,-0.8339,0.1496,0.1405,1.2120,0.9053,-0.8158,0.4808,0.2962,
5.706333,0.2990,-0.8339,0.1496,0.1405,1.2120,0.9053,-0.7547,0.6690,0.2406,
5.712954,0.2990,-0.8339,0.1496,0.1405,1.2120,0.9053,-0.6668,0.8089,0.1496,
5.721505,0.3133,-0.8565,0.1237,0.1405,1.2120,0.9053,-0.6668,0.8089,0.1496,
5.723603,0.3133,-0.8565,0.1237,0.3270,1.0086,0.7295,-0.6668,0.8089,0.1496,
5.725704,0.3133,-0.8565,0.1237,0.3270,1.0086,0.7295,-0.5532,0.8131,0.0665,
5.732858,0.3133,-0.8565,0.1237,0.3270,1.0086,0.7295,-0.4108,0.6256,0.0030,
5.741539,0.3313,-0.8950,0.0927,0.3270,1.0086,0.7295,-0.4108,0.6256,0.0030,
5.744195,0.3313,-0.8950,0.0927,0.5139,0.6365,0.4636,-0.4108,0.6256,0.0030,
5.746493,0.3313,-0.8950,0.0927,0.5139,0.6365,0.4636,-0.1292,-0.1728,-0.1290,
5.752974,0.3313,-0.8950,0.0927,0.5139,0.6365,0.4636,-0.0529,-0.5149,-0.1992,
5.763138,0.2849,-0.8225,0.0514,0.5139,0.6365,0.4636,-0.0529,-0.5149,-0.1992,
5.765977,0.2849,-0.8225,0.0514,0.0223,1.3381,0.0854,-0.0529,-0.5149,-0.1992,
5.768087,0.2849,-0.8225,0.0514,0.0223,1.3381,0.0854,-0.0052,-0.7348,-0.2621,
5.772924,0.2849,-0.8225,0.0514,0.0223,1.3381,0.0854,0.0363,-0.8808,-0.3134,
5.781692,0.2207,-0.7481,0.0608,0.0223,1.3381,0.0854,0.0363,-0.8808,-0.3134,
5.784337,0.2207,-0.7481,0.0608,-0.6680,2.0502,0.2113,0.0363,-0.8808,-0.3134,
5.786192,0.2207,-0.7481,0.0608,-0.6680,2.0502,0.2113,0.0968,-0.9816,-0.3415,
5.793174,0.2207,-0.7481,0.0608,-0.6680,2.0502,0.2113,0.1695,-1.0359,-0.3403,
5.802415,0.1235,-0.7393,-0.0326,-0.6680,2.0502,0.2113,0.1695,-1.0359,-0.3403,
5.805242,0.1235,-0.7393,-0.0326,-1.6882,2.1169,-0.6747,0.1695,-1.0359,-0.3403,
5.807594,0.1235,-0.7393,-0.0326,-1.6882,2.1169,-0.6747,0.1952,-1.0042,-0.3183,
5.812666,0.1235,-0.7393,-0.0326,-1.6882,2.1169,-0.6747,0.1261,-0.8380,-0.2872,
5.821591,0.0706,-0.8844,-0.1884,-1.6882,2.1169,-0.6747,0.1261,-0.8380,-0.2872,
5.823231,0.0706,-0.8844,-0.1884,-2.2470,0.6835,-2.1642,0.1261,-0.8380,-0.2872,
5.825538,0.0706,-0.8844,-0.1884,-2.2470,0.6835,-2.1642,-0.0327,-0.5430,-0.2475,
5.832745,0.0706,-0.8844,-0.1884,-2.2470,0.6835,-2.1642,-0.2208,-0.2088,-0.1907,
5.841507,0.0989,-1.2082,-0.1075,-2.2470,0.6835,-2.1642,-0.2208,-0.2088,-0.1907,
5.843800,0.0989,-1.2082,-0.1075,-1.9643,-2.4863,-1.3007,-0.2208,-0.2088,-0.1907,
5.845767,0.0989,-1.2082,-0.1075,-1.9643,-2.4863,-1.3007,-0.3583,0.0154,-0.1290,
5.852757,0.0989,-1.2082,-0.1075,-1.9643,-2.4863,-1.3007,-0.3705,-0.0134,-0.0966,
5.862477,0.2853,-1.3728,0.3420,-1.9643,-2.4863,-1.3007,-0.3705,-0.0134,-0.0966,
5.864821,0.2853,-1.3728,0.3420,-0.1220,-4.0926,3.1598,-0.3705,-0.0134,-0.0966,
5.866760,0.2853,-1.3728,0.3420,-0.1220,-4.0926,3.1598,-0.1158,-0.3927,-0.1320,
5.872712,0.2853,-1.3728,0.3420,-0.1220,-4.0926,3.1598,0.3094,-1.0188,-0.2548,
5.881430,0.2279,-1.0668,-0.2101,-0.1220,-4.0926,3.1598,0.3094,-1.0188,-0.2548,
5.883913,0.2279,-1.0668,-0.2101,-0.6915,-1.0955,-2.2200,0.3094,-1.0188,-0.2548,
5.885364,0.2279,-1.0668,-0.2101,-0.6915,-1.0955,-2.2200,0.4682,-1.4055,-0.3751,
5.892646,0.2279,-1.0668,-0.2101,-0.6915,-1.0955,-2.2200,0.3931,-1.3951,-0.4161,
5.901266,0.0864,-0.8936,-0.1108,-0.6915,-1.0955,-2.2200,0.3931,-1.3951,-0.4161,
5.903501,0.0864,-0.8936,-0.1108,-2.1093,0.5928,-1.2256,0.3931,-1.3951,-0.4161,
5.904993,0.0864,-0.8936,-0.1108,-2.1093,0.5928,-1.2256,0.3393,-1.2235,-0.3696,
5.913140,0.0864,-0.8936,-0.1108,-2.1093,0.5928,-1.2256,0.3894,-1.0964,-0.2517,
5.921836,0.0683,-0.8482,-0.0291,-2.1093,0.5928,-1.2256,0.3894,-1.0964,-0.2517,
5.923857,0.0683,-0.8482,-0.0291,-2.2862,1.0373,-0.4037,0.3894,-1.0964,-0.2517,
5.925414,0.0683,-0.8482,-0.0291,-2.2862,1.0373,-0.4037,0.6234,-1.2693,0.0079,
5.932935,0.0683,-0.8482,-0.0291,-2.2862,1.0373,-0.4037,0.5837,-1.2870,0.0451,
5.941811,0.2706,-0.8761,-0.2483,-2.2862,1.0373,-0.4037,0.5837,-1.2870,0.0451,
5.944194,0.2706,-0.8761,-0.2483,-0.2601,0.7781,-2.5473,0.5837,-1.2870,0.0451,
5.946496,0.2706,-0.8761,-0.2483,-0.2601,0.7781,-2.5473,0.4688,-1.1196,0.0109,
5.953159,0.2706,-0.8761,-0.2483,-0.2601,0.7781,-2.5473,0.3185,-0.7922,-0.0831,
5.963764,0.5299,-0.8034,-0.3301,-0.2601,0.7781,-2.5473,0.3185,-0.7922,-0.0831,
5.966949,0.5299,-0.8034,-0.3301,2.2750,1.4889,-3.2958,0.3185,-0.7922,-0.0831,
5.969583,0.5299,-0.8034,-0.3301,2.2750,1.4889,-3.2958,0.1383,-0.3634,-0.2230,
5.973031,0.5299,-0.8034,-0.3301,2.2750,1.4889,-3.2958,-0.0748,0.1198,-0.3892,
5.982307,0.6265,-0.8543,-0.3523,2.2750,1.4889,-3.2958,-0.0748,0.1198,-0.3892,
5.985354,0.6265,-0.8543,-0.3523,3.1333,0.9618,-3.4256,-0.0748,0.1198,-0.3892,
5.987635,0.6265,-0.8543,-0.3523,3.1333,0.9618,-3.4256,-0.3131,0.6018,-0.5437,
5.992867,0.6265,-0.8543,-0.3523,3.1333,0.9618,-3.4256,-0.5287,0.9695,-0.5999,
6.001038,0.6426,-0.9348,-0.3029,3.1333,0.9618,-3.4256,-0.5287,0.9695,-0.5999,
6.003468,0.6426,-0.9348,-0.3029,3.1355,0.1202,-2.8235,-0.5287,0.9695,-0.5999,
6.004852,0.6426,-0.9348,-0.3029,3.1355,0.1202,-2.8235,-0.6979,1.1491,-0.5333,
6.013107,0.6426,-0.9348,-0.3029,3.1355,0.1202,-2.8235,-0.8244,1.1479,-0.3849,
6.021145,0.7382,-1.0291,-0.1441,3.1355,0.1202,-2.8235,-0.8244,1.1479,-0.3849,
6.022806,0.7382,-1.0291,-0.1441,3.9184,-0.8608,-1.1302,-0.8244,1.1479,-0.3849,
6.024996,0.7382,-1.0291,-0.1441,3.9184,-0.8608,-1.1302,-0.9007,0.8168,-0.2010,
6.041062,0.6965,-1.0534,0.0977,3.9184,-0.8608,-1.1302,-0.9007,0.8168,-0.2010,
6.043592,0.6965,-1.0534,0.0977,3.4179,-1.1361,1.3360,-0.9007,0.8168,-0.2010,
6.045229,0.6965,-1.0534,0.0977,3.4179,-1.1361,1.3360,-0.7877,-1.8447,0.0775,
6.052189,0.6965,-1.0534,0.0977,3.4179,-1.1361,1.3360,-0.7034,-2.5295,0.0903,
6.061210,0.5181,-1.0930,0.0616,3.4179,-1.1361,1.3360,-0.7034,-2.5295,0.0903,
6.062828,0.5181,-1.0930,0.0616,1.6711,-1.5472,1.3667,-0.7034,-2.5295,0.0903,
6.063986,0.5181,-1.0930,0.0616,1.6711,-1.5472,1.3667,-0.7016,-2.1257,0.0781,
6.072058,0.5181,-1.0930,0.0616,1.6711,-1.5472,1.3667,-0.7266,-1.3279,0.0775,
6.080759,0.3266,-1.1929,0.1345,1.6711,-1.5472,1.3667,-0.7266,-1.3279,0.0775,
6.082835,0.3266,-1.1929,0.1345,-0.1843,-2.5401,2.3044,-0.7266,-1.3279,0.0775,
6.083897,0.3266,-1.1929,0.1345,-0.1843,-2.5401,2.3044,-0.7462,-0.6370,0.1099,
6.091987,0.3266,-1.1929,0.1345,-0.1843,-2.5401,2.3044,-0.7236,-0.3249,0.1893,
6.100607,0.2393,-1.1982,0.1846,-0.1843,-2.5401,2.3044,-0.7236,-0.3249,0.1893,
6.101838,0.2393,-1.1982,0.1846,-1.0109,-2.5940,2.9107,-0.7236,-0.3249,0.1893,
6.102680,0.2393,-1.1982,0.1846,-1.0109,-2.5940,2.9107,-0.6252,-0.3261,0.2870,
6.112597,0.2393,-1.1982,0.1846,-1.0109,-2.5940,2.9107,-0.3051,-0.0610,0.4092,
6.120602,0.2359,-1.0775,0.0713,-1.0109,-2.5940,2.9107,-0.3051,-0.0610,0.4092,
6.121505,0.2359,-1.0775,0.0713,-0.9735,-1.3902,1.8393,-0.3051,-0.0610,0.4092,
6.122402,0.2359,-1.0775,0.0713,-0.9735,-1.3902,1.8393,-0.1640,0.2389,0.4618,
6.131995,0.2359,-1.0775,0.0713,-0.9735,-1.3902,1.8393,-0.0675,0.4729,0.5204,
6.140596,0.3233,-0.9522,-0.0837,-0.9735,-1.3902,1.8393,-0.0675,0.4729,0.5204,
6.141355,0.3233,-0.9522,-0.0837,-0.0341,-0.1282,0.2813,-0.0675,0.4729,0.5204,
6.142136,0.3233,-0.9522,-0.0837,-0.0341,-0.1282,0.2813,-0.0211,0.5676,0.5570,
6.152003,0.3233,-0.9522,-0.0837,-0.0341,-0.1282,0.2813,-0.0058,0.5126,0.5729,
6.161433,0.3970,-0.9265,-0.0795,-0.0341,-0.1282,0.2813,-0.0058,0.5126,0.5729,
6.162780,0.3970,-0.9265,-0.0795,0.7741,0.1592,0.2672,-0.0058,0.5126,0.5729,
6.163899,0.3970,-0.9265,-0.0795,0.7741,0.1592,0.2672,0.0070,0.3581,0.5687,
6.172053,0.3970,-0.9265,-0.0795,0.7741,0.1592,0.2672,0.0308,0.1650,0.5424,
6.180566,0.3922,-0.9183,-0.0331,0.7741,0.1592,0.2672,0.0308,0.1650,0.5424,
6.181769,0.3922,-0.9183,-0.0331,0.8132,0.2723,0.6817,0.0308,0.1650,0.5424,
6.182535,0.3922,-0.9183,-0.0331,0.8132,0.2723,0.6817,0.0748,-0.0311,0.4996,
6.191987,0.3922,-0.9183,-0.0331,0.8132,0.2723,0.6817,0.1469,-0.1850,0.4648,
6.200667,0.3439,-0.8281,-0.0198,0.8132,0.2723,0.6817,0.1469,-0.1850,0.4648,
6.201971,0.3439,-0.8281,-0.0198,0.4148,1.1851,0.7775,0.1469,-0.1850,0.4648,
6.202791,0.3439,-0.8281,-0.0198,0.4148,1.1851,0.7775,0.2336,-0.2290,0.4520,
6.212117,0.3439,-0.8281,-0.0198,0.4148,1.1851,0.7775,0.3234,-0.1917,0.4501,
6.220777,0.3348,-0.6881,-0.0067,0.4148,1.1851,0.7775,0.3234,-0.1917,0.4501,
6.221616,0.3348,-0.6881,-0.0067,0.3896,2.5831,0.8440,0.3234,-0.1917,0.4501,
6.222406,0.3348,-0.6881,-0.0067,0.3896,2.5831,0.8440,0.4077,-0.1435,0.4373,
6.231951,0.3348,-0.6881,-0.0067,0.3896,2.5831,0.8440,0.4981,-0.1875,0.4037,
6.240631,0.3433,-0.5808,0.0567,0.3896,2.5831,0.8440,0.4981,-0.1875,0.4037,
6.241512,0.3433,-0.5808,0.0567,0.5094,3.6554,1.3587,0.4981,-0.1875,0.4037,
6.242449,0.3433,-0.5808,0.0567,0.5094,3.6554,1.3587,0.6160,-0.3817,0.3555,
6.252000,0.3433,-0.5808,0.0567,0.5094,3.6554,1.3587,0.7651,-0.6028,0.2980,
6.261373,0.3387,-0.5376,-0.0021,0.5094,3.6554,1.3587,0.7651,-0.6028,0.2980,
6.262590,0.3387,-0.5376,-0.0021,0.4726,4.0917,0.6524,0.7651,-0.6028,0.2980,
6.263463,0.3387,-0.5376,-0.0021,0.4726,4.0917,0.6524,0.9044,-0.6517,0.2388,
6.272091,0.3387,-0.5376,-0.0021,0.4726,4.0917,0.6524,0.9807,-0.4959,0.1814,
6.280698,0.3100,-0.4874,-0.0663,0.4726,4.0917,0.6524,0.9807,-0.4959,0.1814,
6.282185,0.3100,-0.4874,-0.0663,0.1683,4.5866,-0.1335,0.9807,-0.4959,0.1814,
6.282860,0.3100,-0.4874,-0.0663,0.1683,4.5866,-0.1335,0.9966,-0.2284,0.1374,
6.292003,0.3100,-0.4874,-0.0663,0.1683,4.5866,-0.1335,1.0247,0.0337,0.1215,
6.300788,0.2426,-0.4525,0.0064,0.1683,4.5866,-0.1335,1.0247,0.0337,0.1215,
6.302205,0.2426,-0.4525,0.0064,-0.5362,4.9241,0.3877,1.0247,0.0337,0.1215,
6.303233,0.2426,-0.4525,0.0064,-0.5362,4.9241,0.3877,1.1304,-0.1862,0.1441,
6.312144,0.2426,-0.4525,0.0064,-0.5362,4.9241,0.3877,1.2526,-0.4721,0.1508,
6.320615,0.3721,-0.5877,-0.1572,-0.5362,4.9241,0.3877,1.2526,-0.4721,0.1508,
6.321756,0.3721,-0.5877,-0.1572,0.6858,3.5887,-1.3952,1.2526,-0.4721,0.1508,
6.322581,0.3721,-0.5877,-0.1572,0.6858,3.5887,-1.3952,1.2556,-0.5234,0.0610,
6.331981,0.3721,-0.5877,-0.1572,0.6858,3.5887,-1.3952,1.1029,-0.2809,-0.1308,
6.340931,0.5045,-0.9738,-0.2640,0.6858,3.5887,-1.3952,1.1029,-0.2809,-0.1308,
6.342177,0.5045,-0.9738,-0.2640,1.9086,-0.2182,-2.5825,1.1029,-0.2809,-0.1308,
6.344028,0.5045,-0.9738,-0.2640,1.9086,-0.2182,-2.5825,0.8592,0.1278,-0.3397,
6.352207,0.5045,-0.9738,-0.2640,1.9086,-0.2182,-2.5825,0.6050,0.5028,-0.4863,
6.362528,0.4873,-1.3790,-0.2334,1.9086,-0.2182,-2.5825,0.6050,0.5028,-0.4863,
6.364003,0.4873,-1.3790,-0.2334,1.6236,-4.2281,-2.3760,0.6050,0.5028,-0.4863,
6.364875,0.4873,-1.3790,-0.2334,1.6236,-4.2281,-2.3760,0.4022,0.6537,-0.5376,
6.372025,0.4873,-1.3790,-0.2334,1.6236,-4.2281,-2.3760,0.2654,0.4735,-0.4888,
6.380603,0.2767,-1.4430,-0.1175,1.6236,-4.2281,-2.3760,0.2654,0.4735,-0.4888,
6.381951,0.2767,-1.4430,-0.1175,-0.5360,-4.8890,-1.2919,0.2654,0.4735,-0.4888,
6.382956,0.2767,-1.4430,-0.1175,-0.5360,-4.8890,-1.2919,0.2141,-0.0738,-0.3623,
6.392104,0.2767,-1.4430,-0.1175,-0.5360,-4.8890,-1.2919,0.2691,-0.7812,-0.2212,
6.400572,0.0948,-1.1917,0.1116,-0.5360,-4.8890,-1.2919,0.2691,-0.7812,-0.2212,
6.401831,0.0948,-1.1917,0.1116,-2.3551,-2.4395,0.9573,0.2691,-0.7812,-0.2212,
6.402679,0.0948,-1.1917,0.1116,-2.3551,-2.4395,0.9573,0.4248,-1.3133,-0.1290,
6.412030,0.0948,-1.1917,0.1116,-2.3551,-2.4395,0.9573,0.6796,-1.5607,-0.0795,
6.420653,-0.0110,-1.1768,0.2408,-2.3551,-2.4395,0.9573,0.6796,-1.5607,-0.0795,
6.421817,-0.0110,-1.1768,0.2408,-3.3635,-2.2836,2.2154,0.6796,-1.5607,-0.0795,
6.422870,-0.0110,-1.1768,0.2408,-3.3635,-2.2836,2.2154,0.9887,-1.5356,-0.0728,
6.432096,-0.0110,-1.1768,0.2408,-3.3635,-2.2836,2.2154,1.2342,-1.2895,-0.1216,
6.440876,0.0029,-1.2927,0.0175,-3.3635,-2.2836,2.2154,1.2342,-1.2895,-0.1216,
6.442036,0.0029,-1.2927,0.0175,-3.1734,-3.4032,-0.0816,1.2342,-1.2895,-0.1216,
6.443368,0.0029,-1.2927,0.0175,-3.1734,-3.4032,-0.0816,1.2959,-0.9547,-0.2511,
6.452089,0.0029,-1.2927,0.0175,-3.1734,-3.4032,-0.0816,1.1848,-0.6645,-0.4106,
6.460998,-0.1118,-1.3238,-0.1149,-3.1734,-3.4032,-0.0816,1.1848,-0.6645,-0.4106,
6.462445,-0.1118,-1.3238,-0.1149,-4.2637,-3.7012,-1.5334,1.1848,-0.6645,-0.4106,
6.463532,-0.1118,-1.3238,-0.1149,-4.2637,-3.7012,-1.5334,0.9819,-0.5356,-0.5126,
6.472270,-0.1118,-1.3238,-0.1149,-4.2637,-3.7012,-1.5334,0.7376,-0.5564,-0.4930,
6.481222,-0.1121,-1.2308,-0.1612,-4.2637,-3.7012,-1.5334,0.7376,-0.5564,-0.4930,
6.482822,-0.1121,-1.2308,-0.1612,-4.2495,-2.7882,-2.0725,0.7376,-0.5564,-0.4930,
6.483871,-0.1121,-1.2308,-0.1612,-4.2495,-2.7882,-2.0725,0.2257,-0.3664,-0.1925,
6.492326,-0.1121,-1.2308,-0.1612,-4.2495,-2.7882,-2.0725,0.0400,0.0453,-0.1027,
6.500845,0.2196,-1.0724,0.0099,-4.2495,-2.7882,-2.0725,0.0400,0.0453,-0.1027,
6.502439,0.2196,-1.0724,0.0099,-0.9305,-1.2120,-0.3768,0.0400,0.0453,-0.1027,
6.503685,0.2196,-1.0724,0.0099,-0.9305,-1.2120,-0.3768,-0.0785,0.5725,-0.0905,
6.512599,0.2196,-1.0724,0.0099,-0.9305,-1.2120,-0.3768,-0.1567,1.0459,-0.0911,
6.521361,0.2734,-1.0877,-0.0517,-0.9305,-1.2120,-0.3768,-0.1567,1.0459,-0.0911,
6.524054,0.2734,-1.0877,-0.0517,-0.3370,-1.3394,-0.9736,-0.1567,1.0459,-0.0911,
6.526566,0.2734,-1.0877,-0.0517,-0.3370,-1.3394,-0.9736,-0.2428,1.3306,-0.0728,
6.532077,0.2734,-1.0877,-0.0517,-0.3370,-1.3394,-0.9736,-0.3528,1.3556,-0.0404,
6.540622,0.3093,-1.0862,-0.1341,-0.3370,-1.3394,-0.9736,-0.3528,1.3556,-0.0404,
6.541595,0.3093,-1.0862,-0.1341,0.0741,-1.3052,-1.7645,-0.3528,1.3556,-0.0404,
6.542583,0.3093,-1.0862,-0.1341,0.0741,-1.3052,-1.7645,-0.4957,1.1204,-0.0373,
6.551991,0.3093,-1.0862,-0.1341,0.0741,-1.3052,-1.7645,-0.6729,0.7826,-0.0929,
6.562037,0.1991,-1.0903,-0.1619,0.0741,-1.3052,-1.7645,-0.6729,0.7826,-0.0929,
6.563349,0.1991,-1.0903,-0.1619,-0.9571,-1.3264,-1.9353,-0.6729,0.7826,-0.0929,
6.564504,0.1991,-1.0903,-0.1619,-0.9571,-1.3264,-1.9353,-0.8794,0.5969,-0.1442,
6.571996,0.1991,-1.0903,-0.1619,-0.9571,-1.3264,-1.9353,-1.0809,0.5945,-0.1241,
6.580591,0.0567,-1.1543,-0.1002,-0.9571,-1.3264,-1.9353,-1.0809,0.5945,-0.1241,
6.582364,0.0567,-1.1543,-0.1002,-2.3112,-1.9356,-1.1413,-1.0809,0.5945,-0.1241,
6.583061,0.0567,-1.1543,-0.1002,-2.3112,-1.9356,-1.1413,-1.2233,0.6806,-0.0343,
6.592334,0.0567,-1.1543,-0.1002,-2.3112,-1.9356,-1.1413,-1.2795,0.7600,0.0885,
6.601025,-0.0495,-1.2147,-0.0097,-2.3112,-1.9356,-1.1413,-1.2795,0.7600,0.0885,
6.602684,-0.0495,-1.2147,-0.0097,-3.2658,-2.5001,-0.0377,-1.2795,0.7600,0.0885,
6.603973,-0.0495,-1.2147,-0.0097,-3.2658,-2.5001,-0.0377,-1.2538,0.8022,0.2199,
6.612828,-0.0495,-1.2147,-0.0097,-3.2658,-2.5001,-0.0377,-1.1750,0.8241,0.3390,
6.621281,-0.0878,-1.2044,-0.0553,-3.2658,-2.5001,-0.0377,-1.1750,0.8241,0.3390,
6.622729,-0.0878,-1.2044,-0.0553,-3.4999,-2.3620,-0.2880,-1.1750,0.8241,0.3390,
6.623829,-0.0878,-1.2044,-0.0553,-3.4999,-2.3620,-0.2880,-1.1005,0.8504,0.4275,
6.632315,-0.0878,-1.2044,-0.0553,-3.4999,-2.3620,-0.2880,-1.0706,0.8810,0.4697,
6.640961,-0.0515,-1.1034,-0.1459,-3.4999,-2.3620,-0.2880,-1.0706,0.8810,0.4697,
6.642287,-0.0515,-1.1034,-0.1459,-2.9720,-1.3317,-1.0009,-1.0706,0.8810,0.4697,
6.643703,-0.0515,-1.1034,-0.1459,-2.9720,-1.3317,-1.0009,-1.0834,0.8999,0.4526,
6.652601,-0.0515,-1.1034,-0.1459,-2.9720,-1.3317,-1.0009,-1.1188,0.8724,0.3830,
6.663997,-0.0227,-0.9854,-0.1845,-2.9720,-1.3317,-1.0009,-1.1188,0.8724,0.3830,
6.666372,-0.0227,-0.9854,-0.1845,-2.5281,-0.1449,-1.1958,-1.1188,0.8724,0.3830,
6.668309,-0.0227,-0.9854,-0.1845,-2.5281,-0.1449,-1.1958,-1.1396,0.6061,0.1740,
6.672729,-0.0227,-0.9854,-0.1845,-2.5281,-0.1449,-1.1958,-1.0785,0.4845,0.0800,
6.681548,-0.0020,-0.9320,-0.1513,-2.5281,-0.1449,-1.1958,-1.0785,0.4845,0.0800,
6.684068,-0.0020,-0.9320,-0.1513,-2.2200,0.3879,-0.6699,-1.0785,0.4845,0.0800,
6.685624,-0.0020,-0.9320,-0.1513,-2.2200,0.3879,-0.6699,-0.9679,0.4277,0.0219,
6.692686,-0.0020,-0.9320,-0.1513,-2.2200,0.3879,-0.6699,-0.8183,0.4173,-0.0080,
6.701362,0.0151,-0.8764,-0.0967,-2.2200,0.3879,-0.6699,-0.8183,0.4173,-0.0080,
6.704049,0.0151,-0.8764,-0.0967,-1.9749,0.9353,0.0242,-0.8183,0.4173,-0.0080,
6.705506,0.0151,-0.8764,-0.0967,-1.9749,0.9353,0.0242,-0.6533,0.4259,-0.0153,
6.713738,0.0151,-0.8764,-0.0967,-1.9749,0.9353,0.0242,-0.4976,0.4204,-0.0159,
6.722094,0.0603,-0.8426,-0.0969,-1.9749,0.9353,0.0242,-0.4976,0.4204,-0.0159,
6.724305,0.0603,-0.8426,-0.0969,-1.4684,1.2707,0.1179,-0.4976,0.4204,-0.0159,
6.726022,0.0603,-0.8426,-0.0969,-1.4684,1.2707,0.1179,-0.3730,0.3978,-0.0288,
6.733257,0.0603,-0.8426,-0.0969,-1.4684,1.2707,0.1179,-0.2935,0.4014,-0.0752,
6.741841,0.0985,-0.7741,-0.1207,-1.4684,1.2707,0.1179,-0.2935,0.4014,-0.0752,
6.744387,0.0985,-0.7741,-0.1207,-1.0521,1.9455,-0.0641,-0.2935,0.4014,-0.0752,
6.746756,0.0985,-0.7741,-0.1207,-1.0521,1.9455,-0.0641,-0.2654,0.4503,-0.1442,
6.752813,0.0985,-0.7741,-0.1207,-1.0521,1.9455,-0.0641,-0.2709,0.5480,-0.1998,
6.764678,0.0848,-0.6525,-0.1009,-1.0521,1.9455,-0.0641,-0.2709,0.5480,-0.1998,
6.767447,0.0848,-0.6525,-0.1009,-1.1814,3.1334,0.1654,-0.2709,0.5480,-0.1998,
6.769847,0.0848,-0.6525,-0.1009,-1.1814,3.1334,0.1654,-0.2777,0.6898,-0.2200,
6.772975,0.0848,-0.6525,-0.1009,-1.1814,3.1334,0.1654,-0.2489,0.8272,-0.2047,
6.781903,0.0511,-0.5652,-0.0937,-1.1814,3.1334,0.1654,-0.2489,0.8272,-0.2047,
6.784710,0.0511,-0.5652,-0.0937,-1.5234,3.9838,0.2613,-0.2489,0.8272,-0.2047,
6.786870,0.0511,-0.5652,-0.0937,-1.5234,3.9838,0.2613,-0.1811,0.8956,-0.1699,
6.792927,0.0511,-0.5652,-0.0937,-1.5234,3.9838,0.2613,-0.0846,0.8394,-0.1399,
6.802129,0.0016,-0.5939,-0.1233,-1.5234,3.9838,0.2613,-0.0846,0.8394,-0.1399,
6.804655,0.0016,-0.5939,-0.1233,-2.0012,3.7037,-0.0260,-0.0846,0.8394,-0.1399,
6.806474,0.0016,-0.5939,-0.1233,-2.0012,3.7037,-0.0260,0.0394,0.6268,-0.1216,
6.816151,0.0016,-0.5939,-0.1233,-2.0012,3.7037,-0.0260,0.1915,0.2817,-0.1118,
6.822395,0.0021,-0.8173,-0.1816,-2.0012,3.7037,-0.0260,0.1915,0.2817,-0.1118,
6.824405,0.0021,-0.8173,-0.1816,-1.9634,1.5233,-0.6161,0.1915,0.2817,-0.1118,
6.827040,0.0021,-0.8173,-0.1816,-1.9634,1.5233,-0.6161,0.3460,-0.1190,-0.1149,
6.838004,0.0021,-0.8173,-0.1816,-1.9634,1.5233,-0.6161,0.4645,-0.4691,-0.1271,
6.841504,0.0719,-0.9574,-0.2399,-1.9634,1.5233,-0.6161,0.4645,-0.4691,-0.1271,
6.843781,0.0719,-0.9574,-0.2399,-1.2356,0.1630,-1.2193,0.4645,-0.4691,-0.1271,
6.851601,0.0719,-0.9574,-0.2399,-1.2356,0.1630,-1.2193,0.5336,-0.6511,-0.1351,
6.864063,0.1761,-0.9203,-0.2488,-1.2356,0.1630,-1.2193,0.5336,-0.6511,-0.1351,
6.866439,0.1761,-0.9203,-0.2488,-0.1868,0.5352,-1.3300,0.5336,-0.6511,-0.1351,
6.867946,0.1761,-0.9203,-0.2488,-0.1868,0.5352,-1.3300,0.3540,-0.1355,-0.1002,
6.872356,0.1761,-0.9203,-0.2488,-0.1868,0.5352,-1.3300,0.1964,0.2359,-0.1192,
6.881484,0.4229,-0.9192,-0.2110,-0.1868,0.5352,-1.3300,0.1964,0.2359,-0.1192,
6.884187,0.4229,-0.9192,-0.2110,2.2074,0.5457,-0.9988,0.1964,0.2359,-0.1192,
6.885897,0.4229,-0.9192,-0.2110,2.2074,0.5457,-0.9988,0.0247,0.6091,-0.1723,
6.894048,0.4229,-0.9192,-0.2110,2.2074,0.5457,-0.9988,-0.1420,0.8559,-0.2670,
6.900921,0.7806,-0.8964,-0.0359,2.2074,0.5457,-0.9988,-0.1420,0.8559,-0.2670,
6.904302,0.7806,-0.8964,-0.0359,5.5902,0.7437,0.7189,-0.1420,0.8559,-0.2670,
6.905652,0.7806,-0.8964,-0.0359,5.5902,0.7437,0.7189,-0.2544,0.6494,-0.4332,
6.912757,0.7806,-0.8964,-0.0359,5.5902,0.7437,0.7189,-0.2373,-0.2876,-0.7154,
6.921104,0.8585,-0.8961,-0.1467,5.5902,0.7437,0.7189,-0.2373,-0.2876,-0.7154,
6.922294,0.8585,-0.8961,-0.1467,6.1444,0.6926,-0.3167,-0.2373,-0.2876,-0.7154,
6.924011,0.8585,-0.8961,-0.1467,6.1444,0.6926,-0.3167,-0.2398,-1.1435,-1.0135,
6.932350,0.8585,-0.8961,-0.1467,6.1444,0.6926,-0.3167,-0.3516,-1.2461,-1.1167,
6.941116,0.6778,-0.8785,0.0861,6.1444,0.6926,-0.3167,-0.3516,-1.2461,-1.1167,
6.942902,0.6778,-0.8785,0.0861,4.0894,0.7802,2.0618,-0.3516,-1.2461,-1.1167,
6.944733,0.6778,-0.8785,0.0861,4.0894,0.7802,2.0618,-0.3913,-0.9987,-0.9652,
6.952245,0.6778,-0.8785,0.0861,4.0894,0.7802,2.0618,-0.1891,-1.0225,-0.6451,
6.961006,0.6254,-1.1085,0.1380,4.0894,0.7802,2.0618,-0.1891,-1.0225,-0.6451,
6.962692,0.6254,-1.1085,0.1380,3.3528,-1.5460,2.6345,-0.1891,-1.0225,-0.6451,
6.963886,0.6254,-1.1085,0.1380,3.3528,-1.5460,2.6345,0.1445,-1.3139,-0.2585,
6.972081,0.6254,-1.1085,0.1380,3.3528,-1.5460,2.6345,0.2526,-1.2424,-0.0330,
6.980888,0.5097,-1.2803,-0.0166,3.3528,-1.5460,2.6345,0.2526,-1.2424,-0.0330,
6.982771,0.5097,-1.2803,-0.0166,2.1495,-3.2488,1.1087,0.2526,-1.2424,-0.0330,
6.983886,0.5097,-1.2803,-0.0166,2.1495,-3.2488,1.1087,0.1206,-0.8686,0.0048,
6.992276,0.5097,-1.2803,-0.0166,2.1495,-3.2488,1.1087,-0.0547,-0.4856,0.0195,
7.000683,0.5066,-1.3978,0.1340,2.1495,-3.2488,1.1087,-0.0547,-0.4856,0.0195,
7.002147,0.5066,-1.3978,0.1340,2.0809,-4.4084,2.5591,-0.0547,-0.4856,0.0195,
7.003264,0.5066,-1.3978,0.1340,2.0809,-4.4084,2.5591,-0.1292,-0.2827,0.0415,
7.013401,0.5066,-1.3978,0.1340,2.0809,-4.4084,2.5591,-0.0529,-0.2473,0.0256,
7.020949,0.6602,-1.3593,0.1345,2.0809,-4.4084,2.5591,-0.0529,-0.2473,0.0256,
7.022229,0.6602,-1.3593,0.1345,3.5430,-4.0407,2.5305,-0.0529,-0.2473,0.0256,
7.025110,0.6602,-1.3593,0.1345,3.5430,-4.0407,2.5305,0.3082,-0.2974,0.0360,
7.040666,0.5184,-0.9267,-0.0701,3.5430,-4.0407,2.5305,0.3082,-0.2974,0.0360,
7.042224,0.5184,-0.9267,-0.0701,2.1020,0.1930,0.4474,0.3082,-0.2974,0.0360,
7.043324,0.5184,-0.9267,-0.0701,2.1020,0.1930,0.4474,0.2923,0.1424,0.1215,
7.052157,0.5184,-0.9267,-0.0701,2.1020,0.1930,0.4474,0.1609,0.4784,0.1520,
7.061249,0.4548,-0.7632,-0.2217,2.1020,0.1930,0.4474,0.1609,0.4784,0.1520,
7.062822,0.4548,-0.7632,-0.2217,1.4401,1.7950,-1.1461,0.1609,0.4784,0.1520,
7.064157,0.4548,-0.7632,-0.2217,1.4401,1.7950,-1.1461,0.0052,0.7869,0.1539,
7.072176,0.4548,-0.7632,-0.2217,1.4401,1.7950,-1.1461,-0.1335,0.9909,0.1343,
7.080767,0.5405,-0.9319,-0.2100,1.4401,1.7950,-1.1461,-0.1335,0.9909,0.1343,
7.082686,0.5405,-0.9319,-0.2100,2.2240,0.1285,-1.0800,-0.1335,0.9909,0.1343,
7.083875,0.5405,-0.9319,-0.2100,2.2240,0.1285,-1.0800,-0.2239,1.0318,0.1197,
7.092174,0.5405,-0.9319,-0.2100,2.2240,0.1285,-1.0800,-0.2709,0.8577,0.1123,
7.100669,0.4514,-0.9649,-0.1474,2.2240,0.1285,-1.0800,-0.2709,0.8577,0.1123,
7.102095,0.4514,-0.9649,-0.1474,1.3015,-0.2096,-0.4799,-0.2709,0.8577,0.1123,
7.103218,0.4514,-0.9649,-0.1474,1.3015,-0.2096,-0.4799,-0.2856,0.5144,0.0812,
7.112491,0.4514,-0.9649,-0.1474,1.3015,-0.2096,-0.4799,-0.2636,0.1699,0.0445,
7.120816,0.2549,-0.8896,-0.0369,1.3015,-0.2096,-0.4799,-0.2636,0.1699,0.0445,
7.122269,0.2549,-0.8896,-0.0369,-0.6433,0.5184,0.6284,-0.2636,0.1699,0.0445,
7.123290,0.2549,-0.8896,-0.0369,-0.6433,0.5184,0.6284,-0.1915,-0.0769,0.0445,
7.132200,0.2549,-0.8896,-0.0369,-0.6433,0.5184,0.6284,-0.0736,-0.2259,0.0855,
7.140906,0.1385,-0.7851,0.0128,-0.6433,0.5184,0.6284,-0.0736,-0.2259,0.0855,
7.142090,0.1385,-0.7851,0.0128,-1.7767,1.5428,1.1424,-0.0736,-0.2259,0.0855,
7.143244,0.1385,-0.7851,0.0128,-1.7767,1.5428,1.1424,0.0644,-0.2815,0.1404,
7.152221,0.1385,-0.7851,0.0128,-1.7767,1.5428,1.1424,0.1897,-0.2333,0.1789,
7.160985,0.1286,-0.7202,-0.0472,-1.7767,1.5428,1.1424,0.1897,-0.2333,0.1789,
7.162965,0.1286,-0.7202,-0.0472,-1.8398,2.1912,0.5421,0.1897,-0.2333,0.1789,
7.164068,0.1286,-0.7202,-0.0472,-1.8398,2.1912,0.5421,0.2727,-0.0995,0.1844,
7.172128,0.1286,-0.7202,-0.0472,-1.8398,2.1912,0.5421,0.3179,0.0679,0.1539,
7.181150,0.1893,-0.7296,-0.0699,-1.8398,2.1912,0.5421,0.3179,0.0679,0.1539,
7.183093,0.1893,-0.7296,-0.0699,-1.2126,2.1157,0.2631,0.3179,0.0679,0.1539,
7.184193,0.1893,-0.7296,-0.0699,-1.2126,2.1157,0.2631,0.3515,0.2084,0.0836,
7.192229,0.1893,-0.7296,-0.0699,-1.2126,2.1157,0.2631,0.4053,0.2847,-0.0208,
7.200715,0.2305,-0.7847,-0.0353,-1.2126,2.1157,0.2631,0.4053,0.2847,-0.0208,
7.202490,0.2305,-0.7847,-0.0353,-0.8064,1.5853,0.5142,0.4053,0.2847,-0.0208,
7.203498,0.2305,-0.7847,-0.0353,-0.8064,1.5853,0.5142,0.4988,0.2670,-0.1247,
7.212512,0.2305,-0.7847,-0.0353,-0.8064,1.5853,0.5142,0.6069,0.1632,-0.1833,
7.220881,0.2393,-0.8276,-0.0765,-0.8064,1.5853,0.5142,0.6069,0.1632,-0.1833,
7.221923,0.2393,-0.8276,-0.0765,-0.7502,1.1652,-0.0056,0.6069,0.1632,-0.1833,
7.222836,0.2393,-0.8276,-0.0765,-0.7502,1.1652,-0.0056,0.7138,-0.1337,-0.2218,
7.232085,0.2393,-0.8276,-0.0765,-0.7502,1.1652,-0.0056,0.6973,-0.2058,-0.2725,
7.240850,0.2323,-0.8374,0.0387,-0.7502,1.1652,-0.0056,0.6973,-0.2058,-0.2725,
7.241891,0.2323,-0.8374,0.0387,-0.8577,1.0653,0.9998,0.6973,-0.2058,-0.2725,
7.242949,0.2323,-0.8374,0.0387,-0.8577,1.0653,0.9998,0.7174,-0.2717,-0.3464,
7.252043,0.2323,-0.8374,0.0387,-0.8577,1.0653,0.9998,0.8195,-0.4031,-0.4405,
7.260874,0.3070,-0.7322,-0.0324,-0.8577,1.0653,0.9998,0.8195,-0.4031,-0.4405,
7.262463,0.3070,-0.7322,-0.0324,-0.1944,2.0801,0.1811,0.8195,-0.4031,-0.4405,
7.263596,0.3070,-0.7322,-0.0324,-0.1944,2.0801,0.1811,0.8964,-0.4697,-0.5914,
7.272157,0.3070,-0.7322,-0.0324,-0.1944,2.0801,0.1811,0.8909,-0.4110,-0.7728,
7.280917,0.3705,-0.6987,-0.0612,-0.1944,2.0801,0.1811,0.8909,-0.4110,-0.7728,
7.282860,0.3705,-0.6987,-0.0612,0.3047,2.3708,-0.2369,0.8909,-0.4110,-0.7728,
7.283898,0.3705,-0.6987,-0.0612,0.3047,2.3708,-0.2369,0.8647,-0.3127,-0.9384,
7.292226,0.3705,-0.6987,-0.0612,0.3047,2.3708,-0.2369,0.8524,-0.2595,-1.0459,
7.300656,0.2606,-0.9346,-0.1459,0.3047,2.3708,-0.2369,0.8524,-0.2595,-1.0459,
7.302156,0.2606,-0.9346,-0.1459,-0.9486,-0.0020,-1.1952,0.8524,-0.2595,-1.0459,
7.303193,0.2606,-0.9346,-0.1459,-0.9486,-0.0020,-1.1952,0.8170,-0.2491,-1.0501,
7.313286,0.2606,-0.9346,-0.1459,-0.9486,-0.0020,-1.1952,0.7437,-0.2363,-0.9396,
7.321113,0.2121,-1.1515,-0.2231,-0.9486,-0.0020,-1.1952,0.7437,-0.2363,-0.9396,
7.322242,0.2121,-1.1515,-0.2231,-1.5723,-2.1843,-2.0406,0.7437,-0.2363,-0.9396,
7.323296,0.2121,-1.1515,-0.2231,-1.5723,-2.1843,-2.0406,0.6338,-0.2217,-0.7667,
7.332206,0.2121,-1.1515,-0.2231,-1.5723,-2.1843,-2.0406,0.4969,-0.1966,-0.6060,
7.340858,0.3411,-1.1658,-0.1316,-1.5723,-2.1843,-2.0406,0.4969,-0.1966,-0.6060,
7.342205,0.3411,-1.1658,-0.1316,-0.3961,-2.3595,-1.1928,0.4969,-0.1966,-0.6060,
7.343235,0.3411,-1.1658,-0.1316,-0.3961,-2.3595,-1.1928,0.3735,-0.1465,-0.5205,
7.352112,0.3411,-1.1658,-0.1316,-0.3961,-2.3595,-1.1928,0.3204,-0.0726,-0.5346,
7.361281,0.4393,-1.0896,0.0480,-0.3961,-2.3595,-1.1928,0.3204,-0.0726,-0.5346,
7.362653,0.4393,-1.0896,0.0480,0.4921,-1.6432,0.5289,0.3204,-0.0726,-0.5346,
7.363768,0.4393,-1.0896,0.0480,0.4921,-1.6432,0.5289,0.3466,0.0050,-0.6128,
7.372073,0.4393,-1.0896,0.0480,0.4921,-1.6432,0.5289,0.4230,0.0648,-0.7019,
7.380773,0.3809,-1.0078,0.1457,0.4921,-1.6432,0.5289,0.4230,0.0648,-0.7019,
7.382890,0.3809,-1.0078,0.1457,-0.1817,-0.8845,1.4174,0.4230,0.0648,-0.7019,
7.383937,0.3809,-1.0078,0.1457,-0.1817,-0.8845,1.4174,0.5085,0.1155,-0.7386,
7.392094,0.3809,-1.0078,0.1457,-0.1817,-0.8845,1.4174,0.5879,0.1693,-0.6818,
7.400752,0.3128,-0.9875,0.2226,-0.1817,-0.8845,1.4174,0.5879,0.1693,-0.6818,
7.402480,0.3128,-0.9875,0.2226,-0.9509,-0.7320,2.0510,0.5879,0.1693,-0.6818,
7.403545,0.3128,-0.9875,0.2226,-0.9509,-0.7320,2.0510,0.6735,0.2982,-0.3623,
7.412841,0.3128,-0.9875,0.2226,-0.9509,-0.7320,2.0510,0.6356,0.3336,-0.1674,
7.420984,0.3138,-1.0119,0.1656,-0.9509,-0.7320,2.0510,0.6356,0.3336,-0.1674,
7.422031,0.3138,-1.0119,0.1656,-0.9582,-0.9827,1.3361,0.6356,0.3336,-0.1674,
7.423098,0.3138,-1.0119,0.1656,-0.9582,-0.9827,1.3361,0.5293,0.2371,0.0225,
7.432062,0.3138,-1.0119,0.1656,-0.9582,-0.9827,1.3361,0.3613,0.0172,0.2046,
7.440652,0.3050,-0.9017,0.1627,-0.9582,-0.9827,1.3361,0.3613,0.0172,0.2046,
7.441838,0.3050,-0.9017,0.1627,-0.9964,0.1145,1.1994,0.3613,0.0172,0.2046,
7.442843,0.3050,-0.9017,0.1627,-0.9964,0.1145,1.1994,0.1939,-0.2327,0.3616,
7.452222,0.3050,-0.9017,0.1627,-0.9964,0.1145,1.1994,0.0883,-0.4190,0.4776,
7.461085,0.2711,-0.8652,0.1349,-0.9964,0.1145,1.1994,0.0883,-0.4190,0.4776,
7.462788,0.2711,-0.8652,0.1349,-1.2313,0.5145,0.9062,0.0883,-0.4190,0.4776,
7.464139,0.2711,-0.8652,0.1349,-1.2313,0.5145,0.9062,0.0363,-0.5399,0.5613,
7.472204,0.2711,-0.8652,0.1349,-1.2313,0.5145,0.9062,-0.0132,-0.6346,0.6377,
7.482563,0.2053,-0.9192,0.0075,-1.2313,0.5145,0.9062,-0.0132,-0.6346,0.6377,
7.483574,0.2053,-0.9192,0.0075,-1.7446,0.0421,-0.3127,-0.0132,-0.6346,0.6377,
7.484490,0.2053,-0.9192,0.0075,-1.7446,0.0421,-0.3127,-0.0956,-0.7207,0.7220,
7.492053,0.2053,-0.9192,0.0075,-1.7446,0.0421,-0.3127,-0.2086,-0.7708,0.8209,
7.500751,0.1589,-1.0163,-0.0287,-1.7446,0.0421,-0.3127,-0.2086,-0.7708,0.8209,
7.502791,0.1589,-1.0163,-0.0287,-2.0292,-0.8379,-0.5913,-0.2086,-0.7708,0.8209,
7.503881,0.1589,-1.0163,-0.0287,-2.0292,-0.8379,-0.5913,-0.3290,-0.7611,0.9303,
7.513049,0.1589,-1.0163,-0.0287,-2.0292,-0.8379,-0.5913,-0.4188,-0.6774,1.0433,
7.520674,0.1631,-1.0856,0.0007,-2.0292,-0.8379,-0.5913,-0.4188,-0.6774,1.0433,
7.522038,0.1631,-1.0856,0.0007,-1.7718,-1.4313,-0.1895,-0.4188,-0.6774,1.0433,
7.523044,0.1631,-1.0856,0.0007,-1.7718,-1.4313,-0.1895,-0.4670,-0.5271,1.1465,
7.532351,0.1631,-1.0856,0.0007,-1.7718,-1.4313,-0.1895,-0.4908,-0.3237,1.2284,
7.541003,0.1984,-1.0787,-0.0311,-1.7718,-1.4313,-0.1895,-0.4908,-0.3237,1.2284,
7.542261,0.1984,-1.0787,-0.0311,-1.1770,-1.2752,-0.3888,-0.4908,-0.3237,1.2284,
7.543293,0.1984,-1.0787,-0.0311,-1.1770,-1.2752,-0.3888,-0.5196,-0.0763,1.2815,
7.552115,0.1984,-1.0787,-0.0311,-1.1770,-1.2752,-0.3888,-0.5715,0.2084,1.3133,
7.560690,0.2140,-1.0416,-0.0757,-1.1770,-1.2752,-0.3888,-0.5715,0.2084,1.3133,
7.562324,0.2140,-1.0416,-0.0757,-0.7624,-0.8273,-0.7266,-0.5715,0.2084,1.3133,
7.563612,0.2140,-1.0416,-0.0757,-0.7624,-0.8273,-0.7266,-0.6521,0.5126,1.3420,
7.572091,0.2140,-1.0416,-0.0757,-0.7624,-0.8273,-0.7266,-0.7529,0.8009,1.3707,
7.580849,0.2298,-1.0126,-0.0682,-0.7624,-0.8273,-0.7266,-0.7529,0.8009,1.3707,
7.582375,0.2298,-1.0126,-0.0682,-0.3449,-0.4680,-0.5541,-0.7529,0.8009,1.3707,
7.583400,0.2298,-1.0126,-0.0682,-0.3449,-0.4680,-0.5541,-0.8549,1.0392,1.3897,
7.592092,0.2298,-1.0126,-0.0682,-0.3449,-0.4680,-0.5541,-0.9911,1.2811,1.3701,
7.600825,0.2332,-1.0054,-0.0302,-0.3449,-0.4680,-0.5541,-0.9911,1.2811,1.3701,
7.602471,0.2332,-1.0054,-0.0302,-0.0513,-0.3320,-0.0636,-0.9911,1.2811,1.3701,
7.603382,0.2332,-1.0054,-0.0302,-0.0513,-0.3320,-0.0636,-1.0266,1.2298,1.3304,
7.613682,0.2332,-1.0054,-0.0302,-0.0513,-0.3320,-0.0636,-1.0296,1.0105,1.2815,
7.621016,0.1876,-1.0230,0.0226,-0.0513,-0.3320,-0.0636,-1.0296,1.0105,1.2815,
7.622324,0.1876,-1.0230,0.0226,-0.2541,-0.4524,0.5978,-1.0296,1.0105,1.2815,
7.623283,0.1876,-1.0230,0.0226,-0.2541,-0.4524,0.5978,-1.0040,0.6311,1.2321,
7.632034,0.1876,-1.0230,0.0226,-0.2541,-0.4524,0.5978,-0.9783,0.2004,1.1814,
7.640754,0.1814,-1.0142,-0.0487,-0.2541,-0.4524,0.5978,-0.9783,0.2004,1.1814,
7.641889,0.1814,-1.0142,-0.0487,-0.0885,-0.3276,0.0679,-0.9783,0.2004,1.1814,
7.642836,0.1814,-1.0142,-0.0487,-0.0885,-0.3276,0.0679,-0.9844,-0.1196,1.1276,
7.652030,0.1814,-1.0142,-0.0487,-0.0885,-0.3276,0.0679,-1.0278,-0.2088,1.0628,
7.660942,0.1713,-0.9501,-0.0751,-0.0885,-0.3276,0.0679,-1.0278,-0.2088,1.0628,
7.662682,0.1713,-0.9501,-0.0751,0.0220,0.3264,0.0035,-1.0278,-0.2088,1.0628,
7.663659,0.1713,-0.9501,-0.0751,0.0220,0.3264,0.0035,-1.0767,-0.1038,0.9950,
7.672149,0.1713,-0.9501,-0.0751,0.0220,0.3264,0.0035,-1.1164,0.1045,0.9401,
7.680700,0.1219,-0.8795,-0.0669,0.0220,0.3264,0.0035,-1.1164,0.1045,0.9401,
7.682474,0.1219,-0.8795,-0.0669,-0.2797,1.0301,0.2872,-1.1164,0.1045,0.9401,
7.683461,0.1219,-0.8795,-0.0669,-0.2797,1.0301,0.2872,-1.1396,0.2951,0.9046,
7.692049,0.1219,-0.8795,-0.0669,-0.2797,1.0301,0.2872,-1.1274,0.3849,0.8802,
7.700722,0.1162,-0.8305,-0.0754,-0.2797,1.0301,0.2872,-1.1274,0.3849,0.8802,
7.702281,0.1162,-0.8305,-0.0754,-0.1773,1.5116,0.4029,-1.1274,0.3849,0.8802,
7.703248,0.1162,-0.8305,-0.0754,-0.1773,1.5116,0.4029,-1.0809,0.3098,0.8423,
7.713396,0.1162,-0.8305,-0.0754,-0.1773,1.5116,0.4029,-1.0223,0.0563,0.7727,
7.720862,0.1634,-0.7925,-0.1548,-0.1773,1.5116,0.4029,-1.0223,0.0563,0.7727,
7.722246,0.1634,-0.7925,-0.1548,0.4262,1.8778,-0.1861,-1.0223,0.0563,0.7727,
7.723149,0.1634,-0.7925,-0.1548,0.4262,1.8778,-0.1861,-0.9765,-0.2748,0.6517,
7.732193,0.1634,-0.7925,-0.1548,0.4262,1.8778,-0.1861,-0.9545,-0.5540,0.5039,
7.740966,0.1643,-0.7404,-0.1793,0.4262,1.8778,-0.1861,-0.9545,-0.5540,0.5039,
7.742257,0.1643,-0.7404,-0.1793,0.5415,2.3735,-0.2380,-0.9545,-0.5540,0.5039,
7.743375,0.1643,-0.7404,-0.1793,0.5415,2.3735,-0.2380,-0.9349,-0.7128,0.3817,
7.752128,0.1643,-0.7404,-0.1793,0.5415,2.3735,-0.2380,-0.8922,-0.7843,0.3005,
7.760830,0.1876,-0.7147,-0.1457,0.5415,2.3735,-0.2380,-0.8922,-0.7843,0.3005,
7.762568,0.1876,-0.7147,-0.1457,0.8339,2.6012,0.2739,-0.8922,-0.7843,0.3005,
7.763857,0.1876,-0.7147,-0.1457,0.8339,2.6012,0.2739,-0.8280,-0.8105,0.2455,
7.772106,0.1876,-0.7147,-0.1457,0.8339,2.6012,0.2739,-0.6863,-0.8606,0.1710,
7.781463,0.2867,-0.7839,0.0033,0.8339,2.6012,0.2739,-0.6863,-0.8606,0.1710,
7.783371,0.2867,-0.7839,0.0033,1.8178,1.9013,1.8630,-0.6863,-0.8606,0.1710,
7.784492,0.2867,-0.7839,0.0033,1.8178,1.9013,1.8630,-0.5538,-1.1404,0.1081,
7.792216,0.2867,-0.7839,0.0033,1.8178,1.9013,1.8630,-0.3516,-1.6083,0.0128,
7.800708,0.4246,-0.8915,0.1543,1.8178,1.9013,1.8630,-0.3516,-1.6083,0.0128,
7.802416,0.4246,-0.8915,0.1543,3.1498,0.8356,3.3888,-0.3516,-1.6083,0.0128,
7.803573,0.4246,-0.8915,0.1543,3.1498,0.8356,3.3888,-0.1879,-1.8172,-0.0886,
