
time,gFx,gFy,gFz,ax,ay,az,wx,wy,wz,
0.069437,-0.1280,0.0322,0.9676,0.0000,0.0000,0.0000,0.0000,0.0000,0.0000,
0.070299,-0.2020,0.0633,0.9960,0.0000,0.0000,0.0000,0.0000,0.0000,0.0000,
0.070777,-0.2030,0.1322,1.0456,0.0000,0.0000,0.0000,0.0000,0.0000,0.0000,
0.096066,-0.1047,0.1385,1.0309,0.0000,0.0000,0.0000,0.0000,0.0000,0.0000,
0.103745,-0.0572,0.0894,0.8948,0.0000,0.0000,0.0000,0.0000,0.0000,0.0000,
0.105201,-0.0572,0.0894,0.8948,0.0619,-0.0969,-0.9696,0.0000,0.0000,0.0000,
0.123333,-0.0309,0.0285,0.7963,0.0619,-0.0969,-0.9696,0.0000,0.0000,0.0000,
0.124501,-0.0309,0.0285,0.7963,0.0772,-0.0711,-1.9891,0.0000,0.0000,0.0000,
0.134168,-0.0309,0.0285,0.7963,0.0772,-0.0711,-1.9891,-0.1836,0.4662,0.1801,
0.143095,-0.0139,0.0182,0.8178,0.0772,-0.0711,-1.9891,-0.1836,0.4662,0.1801,
0.144127,-0.0139,0.0182,0.8178,0.0304,-0.0398,-1.7882,-0.1836,0.4662,0.1801,
0.145000,-0.0139,0.0182,0.8178,0.0304,-0.0398,-1.7882,-0.3552,0.7405,0.1881,
0.156859,-0.0139,0.0182,0.8178,0.0304,-0.0398,-1.7882,-0.5226,0.9964,0.2021,
0.163319,-0.0075,0.0476,0.9165,0.0304,-0.0398,-1.7882,-0.5226,0.9964,0.2021,
0.164761,-0.0075,0.0476,0.9165,0.0066,-0.0422,-0.8113,-0.5226,0.9964,0.2021,
0.166068,-0.0075,0.0476,0.9165,0.0066,-0.0422,-0.8113,-0.6442,1.1876,0.2192,
0.174564,-0.0075,0.0476,0.9165,0.0066,-0.0422,-0.8113,-0.7004,1.2976,0.2406,
0.183272,-0.0195,0.0606,0.9836,0.0066,-0.0422,-0.8113,-0.7004,1.2976,0.2406,
0.184670,-0.0195,0.0606,0.9836,0.0029,-0.0091,-0.1471,-0.7004,1.2976,0.2406,
0.185721,-0.0195,0.0606,0.9836,0.0029,-0.0091,-0.1471,-0.6985,1.3183,0.2785,
0.194619,-0.0195,0.0606,0.9836,0.0029,-0.0091,-0.1471,-0.6625,1.2377,0.3274,
0.203527,0.0022,0.0373,0.9551,0.0029,-0.0091,-0.1471,-0.6625,1.2377,0.3274,
0.204964,0.0022,0.0373,0.9551,-0.0010,-0.0171,-0.4390,-0.6625,1.2377,0.3274,
0.206513,0.0022,0.0373,0.9551,-0.0010,-0.0171,-0.4390,-0.6246,1.0886,0.3689,
0.214492,0.0022,0.0373,0.9551,-0.0010,-0.0171,-0.4390,-0.6827,0.6940,0.4184,
0.223416,0.0176,0.0399,0.8822,-0.0010,-0.0171,-0.4390,-0.6827,0.6940,0.4184,
0.225180,0.0176,0.0399,0.8822,-0.0229,-0.0520,-1.1492,-0.6827,0.6940,0.4184,
0.226588,0.0176,0.0399,0.8822,-0.0229,-0.0520,-1.1492,-0.8268,0.4943,0.4550,
0.234539,0.0176,0.0399,0.8822,-0.0229,-0.0520,-1.1492,-1.0083,0.3703,0.4996,
0.243433,0.0551,0.1048,1.0216,-0.0229,-0.0520,-1.1492,-1.0083,0.3703,0.4996,
0.245067,0.0551,0.1048,1.0216,0.0146,0.0277,0.2699,-1.0083,0.3703,0.4996,
0.246310,0.0551,0.1048,1.0216,0.0146,0.0277,0.2699,-1.1585,0.3446,0.5418,
0.256585,0.0551,0.1048,1.0216,0.0146,0.0277,0.2699,-1.2330,0.4026,0.5760,
0.263346,0.0794,0.1430,1.1548,0.0146,0.0277,0.2699,-1.2330,0.4026,0.5760,
0.264784,0.0794,0.1430,1.1548,0.1105,0.1991,1.6077,-1.2330,0.4026,0.5760,
0.265667,0.0794,0.1430,1.1548,0.1105,0.1991,1.6077,-1.2221,0.5175,0.6132,
0.274685,0.0794,0.1430,1.1548,0.1105,0.1991,1.6077,-1.1445,0.6403,0.6536,
0.283398,0.0916,0.1564,1.1920,0.1105,0.1991,1.6077,-1.1445,0.6403,0.6536,
0.284828,0.0916,0.1564,1.1920,0.1526,0.2605,1.9861,-1.1445,0.6403,0.6536,
0.285865,0.0916,0.1564,1.1920,0.1526,0.2605,1.9861,-1.0345,0.7270,0.6896,
0.294405,0.0916,0.1564,1.1920,0.1526,0.2605,1.9861,-0.9374,0.7612,0.7226,
0.303355,0.0883,0.1493,1.1761,0.1526,0.2605,1.9861,-0.9374,0.7612,0.7226,
0.305129,0.0883,0.1493,1.1761,0.1370,0.2315,1.8240,-0.9374,0.7612,0.7226,
0.306581,0.0883,0.1493,1.1761,0.1370,0.2315,1.8240,-0.8714,0.7435,0.7476,
0.314336,0.0883,0.1493,1.1761,0.1370,0.2315,1.8240,-0.8390,0.6806,0.7690,
0.323511,0.0559,0.1374,1.1817,0.1370,0.2315,1.8240,-0.8390,0.6806,0.7690,
0.324954,0.0559,0.1374,1.1817,0.0876,0.2152,1.8505,-0.8390,0.6806,0.7690,
0.326408,0.0559,0.1374,1.1817,0.0876,0.2152,1.8505,-0.8372,0.5755,0.7971,
0.334455,0.0559,0.1374,1.1817,0.0876,0.2152,1.8505,-0.8494,0.4436,0.8435,
0.343384,0.0370,0.0732,1.2154,0.0876,0.2152,1.8505,-0.8494,0.4436,0.8435,
0.345101,0.0370,0.0732,1.2154,0.0648,0.1281,2.1267,-0.8494,0.4436,0.8435,
0.346246,0.0370,0.0732,1.2154,0.0648,0.1281,2.1267,-0.8525,0.2933,0.9004,
0.354512,0.0370,0.0732,1.2154,0.0648,0.1281,2.1267,-0.8317,0.1278,0.9443,
0.363786,0.0943,-0.0325,1.1987,0.0648,0.1281,2.1267,-0.8317,0.1278,0.9443,
0.365326,0.0943,-0.0325,1.1987,0.1553,-0.0535,1.9743,-0.8317,0.1278,0.9443,
0.366468,0.0943,-0.0325,1.1987,0.1553,-0.0535,1.9743,-0.7932,-0.0439,0.9425,
0.374426,0.0943,-0.0325,1.1987,0.1553,-0.0535,1.9743,-0.7431,-0.2052,0.8747,
0.383991,0.1428,-0.0792,1.1138,0.1553,-0.0535,1.9743,-0.7431,-0.2052,0.8747,
0.386187,0.1428,-0.0792,1.1138,0.1554,-0.0861,1.2122,-0.7431,-0.2052,0.8747,
0.388998,0.1428,-0.0792,1.1138,0.1554,-0.0861,1.2122,-0.6851,-0.3438,0.7403,
0.420872,0.1428,-0.0792,1.1138,0.1554,-0.0861,1.2122,-0.6234,-0.4458,0.3738,
0.422444,0.1204,-0.0861,1.0017,0.1554,-0.0861,1.2122,-0.6234,-0.4458,0.3738,
0.423448,0.1204,-0.0861,1.0017,0.0138,-0.0099,0.1150,-0.6234,-0.4458,0.3738,
0.424967,0.1204,-0.0861,1.0017,0.0138,-0.0099,0.1150,-0.4805,-0.5008,0.2113,
0.426306,0.1204,-0.0861,1.0017,0.0138,-0.0099,0.1150,-0.4169,-0.4587,0.0848,
0.427439,0.0563,-0.1379,0.8600,0.0138,-0.0099,0.1150,-0.4169,-0.4587,0.0848,
0.428807,0.0563,-0.1379,0.8600,-0.0809,0.1981,-1.2352,-0.4169,-0.4587,0.0848,
0.430638,0.0563,-0.1379,0.8600,-0.0809,0.1981,-1.2352,-0.3888,-0.4031,-0.0178,
0.434638,0.0563,-0.1379,0.8600,-0.0809,0.1981,-1.2352,-0.4090,-0.3487,-0.1118,
0.443637,0.0402,-0.1670,0.8093,-0.0809,0.1981,-1.2352,-0.4090,-0.3487,-0.1118,
0.445514,0.0402,-0.1670,0.8093,-0.0825,0.3430,-1.6622,-0.4090,-0.3487,-0.1118,
0.447182,0.0402,-0.1670,0.8093,-0.0825,0.3430,-1.6622,-0.4646,-0.3267,-0.2071,
0.459093,0.0402,-0.1670,0.8093,-0.0825,0.3430,-1.6622,-0.5397,-0.3548,-0.3012,
0.463244,0.0314,-0.1910,0.8117,-0.0825,0.3430,-1.6622,-0.5397,-0.3548,-0.3012,
0.465061,0.0314,-0.1910,0.8117,-0.0613,0.3729,-1.5843,-0.5397,-0.3548,-0.3012,
0.466198,0.0314,-0.1910,0.8117,-0.0613,0.3729,-1.5843,-0.6179,-0.4098,-0.3812,
0.474360,0.0314,-0.1910,0.8117,-0.0613,0.3729,-1.5843,-0.6772,-0.4697,-0.4460,
0.483139,0.0870,-0.2355,0.8349,-0.0613,0.3729,-1.5843,-0.6772,-0.4697,-0.4460,
0.484226,0.0870,-0.2355,0.8349,-0.1260,0.3411,-1.2091,-0.6772,-0.4697,-0.4460,
0.485207,0.0870,-0.2355,0.8349,-0.1260,0.3411,-1.2091,-0.7016,-0.5277,-0.5181,
0.494194,0.0870,-0.2355,0.8349,-0.1260,0.3411,-1.2091,-0.6863,-0.5662,-0.6293,
0.503610,0.1451,-0.2296,0.8067,-0.1260,0.3411,-1.2091,-0.6863,-0.5662,-0.6293,
0.505444,0.1451,-0.2296,0.8067,-0.2497,0.3952,-1.3882,-0.6863,-0.5662,-0.6293,
0.507129,0.1451,-0.2296,0.8067,-0.2497,0.3952,-1.3882,-0.6582,-0.6291,-0.7869,
0.514648,0.1451,-0.2296,0.8067,-0.2497,0.3952,-1.3882,-0.6668,-0.7067,-0.9475,
0.524118,0.0994,-0.1592,0.8267,-0.2497,0.3952,-1.3882,-0.6668,-0.7067,-0.9475,
0.526105,0.0994,-0.1592,0.8267,-0.1758,0.2813,-1.4614,-0.6668,-0.7067,-0.9475,
0.527801,0.0994,-0.1592,0.8267,-0.1758,0.2813,-1.4614,-0.7486,-0.7611,-1.0398,
0.534875,0.0994,-0.1592,0.8267,-0.1758,0.2813,-1.4614,-0.8952,-0.6945,-1.0330,
0.544590,-0.0307,-0.1025,0.9937,-0.1758,0.2813,-1.4614,-0.8952,-0.6945,-1.0330,
0.546735,-0.0307,-0.1025,0.9937,0.0004,0.0012,-0.0119,-0.8952,-0.6945,-1.0330,
0.548215,-0.0307,-0.1025,0.9937,0.0004,0.0012,-0.0119,-1.0504,-0.4654,-0.9524,
0.555041,-0.0307,-0.1025,0.9937,0.0004,0.0012,-0.0119,-1.1463,-0.2003,-0.8461,
0.564073,-0.0456,-0.0298,1.1947,0.0004,0.0012,-0.0119,-1.1463,-0.2003,-0.8461,
0.565675,-0.0456,-0.0298,1.1947,-0.0729,-0.0477,1.9112,-1.1463,-0.2003,-0.8461,
0.566905,-0.0456,-0.0298,1.1947,-0.0729,-0.0477,1.9112,-1.1542,0.0227,-0.7313,
0.574826,-0.0456,-0.0298,1.1947,-0.0729,-0.0477,1.9112,-1.0944,0.2004,-0.4545,
0.583437,-0.0434,0.0121,1.2848,-0.0729,-0.0477,1.9112,-1.0944,0.2004,-0.4545,
0.585175,-0.0434,0.0121,1.2848,-0.0942,0.0263,2.7905,-1.0944,0.2004,-0.4545,
0.586467,-0.0434,0.0121,1.2848,-0.0942,0.0263,2.7905,-0.9496,0.3556,-0.2994,
0.594677,-0.0434,0.0121,1.2848,-0.0942,0.0263,2.7905,-0.9282,0.2707,-0.1436,
0.603528,-0.0269,0.0481,1.2903,-0.0942,0.0263,2.7905,-0.9282,0.2707,-0.1436,
0.605426,-0.0269,0.0481,1.2903,-0.0593,0.1062,2.8473,-0.9282,0.2707,-0.1436,
0.606738,-0.0269,0.0481,1.2903,-0.0593,0.1062,2.8473,-0.9459,0.1253,0.0091,
0.614840,-0.0269,0.0481,1.2903,-0.0593,0.1062,2.8473,-0.9698,-0.0524,0.1533,
0.625095,0.0238,-0.0254,1.3477,-0.0593,0.1062,2.8473,-0.9698,-0.0524,0.1533,
0.627258,0.0238,-0.0254,1.3477,0.0602,-0.0642,3.4042,-0.9698,-0.0524,0.1533,
0.629208,0.0238,-0.0254,1.3477,0.0602,-0.0642,3.4042,-0.9637,-0.2834,0.2754,
0.634910,0.0238,-0.0254,1.3477,0.0602,-0.0642,3.4042,-0.9111,-0.5289,0.3494,
0.643971,0.1534,-0.1115,1.3458,0.0602,-0.0642,3.4042,-0.9111,-0.5289,0.3494,
0.646329,0.1534,-0.1115,1.3458,0.3965,-0.2882,3.4778,-0.9111,-0.5289,0.3494,
0.648480,0.1534,-0.1115,1.3458,0.3965,-0.2882,3.4778,-0.8171,-0.7146,0.3487,
0.655305,0.1534,-0.1115,1.3458,0.3965,-0.2882,3.4778,-0.6930,-0.8386,0.2651,
0.664452,0.2070,-0.1699,1.2223,0.3965,-0.2882,3.4778,-0.6930,-0.8386,0.2651,
0.666530,0.2070,-0.1699,1.2223,0.4064,-0.3335,2.3989,-0.6930,-0.8386,0.2651,
0.668326,0.2070,-0.1699,1.2223,0.4064,-0.3335,2.3989,-0.5635,-0.9284,0.1148,
0.675848,0.2070,-0.1699,1.2223,0.4064,-0.3335,2.3989,-0.4591,-0.9785,-0.0636,
0.683987,0.1956,-0.1956,1.0516,0.4064,-0.3335,2.3989,-0.4591,-0.9785,-0.0636,
0.686065,0.1956,-0.1956,1.0516,0.1528,-0.1528,0.8217,-0.4591,-0.9785,-0.0636,
0.687950,0.1956,-0.1956,1.0516,0.1528,-0.1528,0.8217,-0.3852,-1.0023,-0.2444,
0.695155,0.1956,-0.1956,1.0516,0.1528,-0.1528,0.8217,-0.3302,-1.0176,-0.4148,
0.704222,0.1623,-0.2145,0.8426,0.1528,-0.1528,0.8217,-0.3302,-1.0176,-0.4148,
0.707187,0.1623,-0.2145,0.8426,-0.2089,0.2761,-1.0845,-0.3302,-1.0176,-0.4148,
0.709203,0.1623,-0.2145,0.8426,-0.2089,0.2761,-1.0845,-0.2948,-0.9962,-0.5633,
0.715050,0.1623,-0.2145,0.8426,-0.2089,0.2761,-1.0845,-0.2941,-0.9125,-0.6824,
0.724764,0.1259,-0.2360,0.6576,-0.2089,0.2761,-1.0845,-0.2941,-0.9125,-0.6824,
0.726697,0.1259,-0.2360,0.6576,-0.5056,0.9474,-2.6398,-0.2941,-0.9125,-0.6824,
0.728460,0.1259,-0.2360,0.6576,-0.5056,0.9474,-2.6398,-0.3351,-0.7904,-0.7746,
0.734676,0.1259,-0.2360,0.6576,-0.5056,0.9474,-2.6398,-0.4279,-0.7006,-0.8369,
0.743924,0.0980,-0.2430,0.5578,-0.5056,0.9474,-2.6398,-0.4279,-0.7006,-0.8369,
0.745908,0.0980,-0.2430,0.5578,-0.5990,1.4856,-3.4103,-0.4279,-0.7006,-0.8369,
0.747701,0.0980,-0.2430,0.5578,-0.5990,1.4856,-3.4103,-0.5703,-0.6780,-0.8687,
0.754933,0.0980,-0.2430,0.5578,-0.5990,1.4856,-3.4103,-0.7401,-0.7531,-0.8693,
0.764498,0.1066,-0.2447,0.5716,-0.5990,1.4856,-3.4103,-0.7401,-0.7531,-0.8693,
0.766625,0.1066,-0.2447,0.5716,-0.6128,1.4060,-3.2843,-0.7401,-0.7531,-0.8693,
0.768547,0.1066,-0.2447,0.5716,-0.6128,1.4060,-3.2843,-0.9093,-1.1441,-0.8095,
0.775762,0.1066,-0.2447,0.5716,-0.6128,1.4060,-3.2843,-1.1665,-1.3505,-0.7630,
0.784437,0.1415,-0.2768,0.6736,-0.6128,1.4060,-3.2843,-1.1665,-1.3505,-0.7630,
0.786296,0.1415,-0.2768,0.6736,-0.4837,0.9466,-2.3033,-1.1665,-1.3505,-0.7630,
0.788619,0.1415,-0.2768,0.6736,-0.4837,0.9466,-2.3033,-1.2593,-1.4293,-0.7325,
0.795172,0.1415,-0.2768,0.6736,-0.4837,0.9466,-2.3033,-1.3173,-1.4049,-0.7300,
0.804324,0.1974,-0.2857,0.8613,-0.4837,0.9466,-2.3033,-1.3173,-1.4049,-0.7300,
0.806293,0.1974,-0.2857,0.8613,-0.1500,0.2171,-0.6544,-1.3173,-1.4049,-0.7300,
0.808004,0.1974,-0.2857,0.8613,-0.1500,0.2171,-0.6544,-1.3308,-1.3579,-0.7374,
0.814815,0.1974,-0.2857,0.8613,-0.1500,0.2171,-0.6544,-1.2770,-1.3701,-0.7502,
0.824980,0.2480,-0.3253,0.9545,-0.1500,0.2171,-0.6544,-1.2770,-1.3701,-0.7502,
0.826882,0.2480,-0.3253,0.9545,0.0884,-0.1159,0.3403,-1.2770,-1.3701,-0.7502,
0.828514,0.2480,-0.3253,0.9545,0.0884,-0.1159,0.3403,-1.1781,-1.5509,-0.7673,
0.834815,0.2480,-0.3253,0.9545,0.0884,-0.1159,0.3403,-1.0950,-1.8459,-0.7893,
0.844059,0.3602,-0.3324,0.9070,0.0884,-0.1159,0.3403,-1.0950,-1.8459,-0.7893,
0.847428,0.3602,-0.3324,0.9070,0.1037,-0.0957,0.2610,-1.0950,-1.8459,-0.7893,
0.849470,0.3602,-0.3324,0.9070,0.1037,-0.0957,0.2610,-1.0828,-2.1636,-0.8205,
0.855037,0.3602,-0.3324,0.9070,0.1037,-0.0957,0.2610,-1.1597,-2.4183,-0.8516,
0.864100,0.5378,-0.2944,0.9376,0.1037,-0.0957,0.2610,-1.1597,-2.4183,-0.8516,
0.866586,0.5378,-0.2944,0.9376,0.5629,-0.3081,0.9813,-1.1597,-2.4183,-0.8516,
0.868518,0.5378,-0.2944,0.9376,0.5629,-0.3081,0.9813,-1.2923,-2.5289,-0.8809,
0.875856,0.5378,-0.2944,0.9376,0.5629,-0.3081,0.9813,-1.4065,-2.5338,-0.9365,
0.883894,0.6450,-0.3318,1.0545,0.5629,-0.3081,0.9813,-1.4065,-2.5338,-0.9365,
0.886112,0.6450,-0.3318,1.0545,1.3789,-0.7093,2.2545,-1.4065,-2.5338,-0.9365,
0.888299,0.6450,-0.3318,1.0545,1.3789,-0.7093,2.2545,-1.4597,-2.5014,-1.0269,
0.895139,0.6450,-0.3318,1.0545,1.3789,-0.7093,2.2545,-1.4578,-2.4073,-1.1405,
0.903985,0.6902,-0.3266,1.1821,1.3789,-0.7093,2.2545,-1.4578,-2.4073,-1.1405,
0.906637,0.6902,-0.3266,1.1821,1.9541,-0.9248,3.3468,-1.4578,-2.4073,-1.1405,
0.908867,0.6902,-0.3266,1.1821,1.9541,-0.9248,3.3468,-1.3937,-2.2766,-1.2890,
0.915195,0.6902,-0.3266,1.1821,1.9541,-0.9248,3.3468,-1.2624,-2.1825,-1.4527,
0.925142,0.7152,-0.3222,1.1539,1.9541,-0.9248,3.3468,-1.2624,-2.1825,-1.4527,
0.927392,0.7152,-0.3222,1.1539,1.9821,-0.8931,3.1979,-1.2624,-2.1825,-1.4527,
0.929655,0.7152,-0.3222,1.1539,1.9821,-0.8931,3.1979,-1.1145,-2.0958,-1.5944,
0.935035,0.7152,-0.3222,1.1539,1.9821,-0.8931,3.1979,-1.0028,-1.9822,-1.6989,
0.944019,0.7594,-0.2830,1.0723,1.9821,-0.8931,3.1979,-1.0028,-1.9822,-1.6989,
0.946538,0.7594,-0.2830,1.0723,1.9015,-0.7087,2.6848,-1.0028,-1.9822,-1.6989,
0.948754,0.7594,-0.2830,1.0723,1.9015,-0.7087,2.6848,-0.9343,-1.8398,-1.7734,
0.955592,0.7594,-0.2830,1.0723,1.9015,-0.7087,2.6848,-0.8513,-1.5075,-1.9176,
0.964862,0.7572,-0.2266,1.1355,1.9015,-0.7087,2.6848,-0.8513,-1.5075,-1.9176,
0.967350,0.7572,-0.2266,1.1355,2.0535,-0.6145,3.0795,-0.8513,-1.5075,-1.9176,
0.969290,0.7572,-0.2266,1.1355,2.0535,-0.6145,3.0795,-0.7437,-1.2516,-1.9585,
0.975787,0.7572,-0.2266,1.1355,2.0535,-0.6145,3.0795,-0.4304,-0.9932,-1.9469,
0.983972,0.5496,-0.2773,1.1123,2.0535,-0.6145,3.0795,-0.4304,-0.9932,-1.9469,
0.986188,0.5496,-0.2773,1.1123,1.1464,-0.5784,2.3204,-0.4304,-0.9932,-1.9469,
0.989005,0.5496,-0.2773,1.1123,1.1464,-0.5784,2.3204,0.0070,-1.6108,-1.8265,
0.995308,0.5496,-0.2773,1.1123,1.1464,-0.5784,2.3204,0.1689,-2.5533,-1.6329,
1.003883,0.6213,-0.3467,0.8124,1.1464,-0.5784,2.3204,0.1689,-2.5533,-1.6329,
1.007688,0.6213,-0.3467,0.8124,0.4467,-0.2493,0.5842,0.1689,-2.5533,-1.6329,
1.009881,0.6213,-0.3467,0.8124,0.4467,-0.2493,0.5842,-0.0174,-2.9473,-1.5284,
1.015051,0.6213,-0.3467,0.8124,0.4467,-0.2493,0.5842,-0.2832,-2.8563,-1.5627,
1.025616,0.6514,-0.2770,0.8187,0.4467,-0.2493,0.5842,-0.2832,-2.8563,-1.5627,
1.028056,0.6514,-0.2770,0.8187,0.4814,-0.2047,0.6050,-0.2832,-2.8563,-1.5627,
1.030196,0.6514,-0.2770,0.8187,0.4814,-0.2047,0.6050,-0.4206,-2.6474,-1.6616,
1.034899,0.6514,-0.2770,0.8187,0.4814,-0.2047,0.6050,-0.4261,-2.3933,-1.7117,
1.043938,0.5297,-0.2516,0.7429,0.4814,-0.2047,0.6050,-0.4261,-2.3933,-1.7117,
1.046196,0.5297,-0.2516,0.7429,-0.2973,0.1412,-0.4170,-0.4261,-2.3933,-1.7117,
1.048714,0.5297,-0.2516,0.7429,-0.2973,0.1412,-0.4170,-0.3980,-2.0659,-1.6641,
1.055170,0.5297,-0.2516,0.7429,-0.2973,0.1412,-0.4170,-0.4072,-1.7488,-1.5346,
1.064975,0.5499,-0.2564,0.6707,-0.2973,0.1412,-0.4170,-0.4072,-1.7488,-1.5346,
1.066893,0.5499,-0.2564,0.6707,-0.5733,0.2673,-0.6992,-0.4072,-1.7488,-1.5346,
1.068502,0.5499,-0.2564,0.6707,-0.5733,0.2673,-0.6992,-0.4805,-1.4697,-1.3947,
1.075254,0.5499,-0.2564,0.6707,-0.5733,0.2673,-0.6992,-0.5568,-1.2607,-1.2597,
1.083715,0.4779,-0.2200,0.6470,-0.5733,0.2673,-0.6992,-0.5568,-1.2607,-1.2597,
1.085027,0.4779,-0.2200,0.6470,-0.9365,0.4311,-1.2680,-0.5568,-1.2607,-1.2597,
1.086560,0.4779,-0.2200,0.6470,-0.9365,0.4311,-1.2680,-0.5623,-1.2589,-1.1051,
1.094914,0.4779,-0.2200,0.6470,-0.9365,0.4311,-1.2680,-0.5532,-1.4025,-0.9072,
1.103726,0.4958,-0.2847,0.4503,-0.9365,0.4311,-1.2680,-0.5532,-1.4025,-0.9072,
1.105585,0.4958,-0.2847,0.4503,-1.8221,1.0464,-1.6547,-0.5532,-1.4025,-0.9072,
1.107514,0.4958,-0.2847,0.4503,-1.8221,1.0464,-1.6547,-0.6045,-1.6303,-0.6873,
1.114854,0.4958,-0.2847,0.4503,-1.8221,1.0464,-1.6547,-0.7321,-1.8099,-0.4863,
1.125733,0.6135,-0.3337,0.3920,-1.8221,1.0464,-1.6547,-0.7321,-1.8099,-0.4863,
1.128111,0.6135,-0.3337,0.3920,-0.9176,0.5663,-1.9406,-0.7321,-1.8099,-0.4863,
1.130916,0.6135,-0.3337,0.3920,-0.9176,0.5663,-1.9406,-0.8678,-1.9761,-0.3263,
1.134908,0.6135,-0.3337,0.3920,-0.9176,0.5663,-1.9406,-1.0779,-2.1459,-0.1809,
1.143984,0.6962,-0.4033,0.3808,-0.9176,0.5663,-1.9406,-1.0779,-2.1459,-0.1809,
1.146326,0.6962,-0.4033,0.3808,-0.3578,-0.0415,-1.6833,-1.0779,-2.1459,-0.1809,
1.148545,0.6962,-0.4033,0.3808,-0.3578,-0.0415,-1.6833,-1.1530,-2.0677,-0.1589,
1.155063,0.6962,-0.4033,0.3808,-0.3578,-0.0415,-1.6833,-1.2153,-1.9021,-0.1308,
1.164026,0.6511,-0.3755,0.4130,-0.3578,-0.0415,-1.6833,-1.2153,-1.9021,-0.1308,
1.166470,0.6511,-0.3755,0.4130,-1.0173,0.3351,-0.9847,-1.2153,-1.9021,-0.1308,
1.168464,0.6511,-0.3755,0.4130,-1.0173,0.3351,-0.9847,-1.2324,-1.7030,-0.0343,
1.175686,0.6511,-0.3755,0.4130,-1.0173,0.3351,-0.9847,-1.2092,-1.5332,0.1209,
1.184116,0.7184,-0.3594,0.4511,-1.0173,0.3351,-0.9847,-1.2092,-1.5332,0.1209,
1.186059,0.7184,-0.3594,0.4511,-0.5099,0.6173,-0.2732,-1.2092,-1.5332,0.1209,
1.187697,0.7184,-0.3594,0.4511,-0.5099,0.6173,-0.2732,-1.1878,-1.3261,0.3158,
1.194878,0.7184,-0.3594,0.4511,-0.5099,0.6173,-0.2732,-1.1811,-1.0689,0.5289,
1.204175,0.7966,-0.4294,0.4824,-0.5099,0.6173,-0.2732,-1.1811,-1.0689,0.5289,
1.206550,0.7966,-0.4294,0.4824,0.1853,0.0995,0.3072,-1.1811,-1.0689,0.5289,
1.208536,0.7966,-0.4294,0.4824,0.1853,0.0995,0.3072,-1.1787,-0.8728,0.7305,
1.215374,0.7966,-0.4294,0.4824,0.1853,0.0995,0.3072,-1.1811,-0.7965,0.9181,
1.225109,0.7558,-0.4435,0.5195,0.1853,0.0995,0.3072,-1.1811,-0.7965,0.9181,
1.226402,0.7558,-0.4435,0.5195,-0.2094,0.1792,0.8859,-1.1811,-0.7965,0.9181,
1.227673,0.7558,-0.4435,0.5195,-0.2094,0.1792,0.8859,-1.1469,-0.8295,1.0916,
1.234320,0.7558,-0.4435,0.5195,-0.2094,0.1792,0.8859,-1.1048,-0.9559,1.2809,
1.244060,0.7357,-0.3892,0.5690,-0.2094,0.1792,0.8859,-1.1048,-0.9559,1.2809,
1.245636,0.7357,-0.3892,0.5690,-0.3624,0.9602,1.5718,-1.1048,-0.9559,1.2809,
1.246776,0.7357,-0.3892,0.5690,-0.3624,0.9602,1.5718,-1.0840,-1.0543,1.5039,
1.254213,0.7357,-0.3892,0.5690,-0.3624,0.9602,1.5718,-1.0046,-1.0011,1.7256,
1.263451,0.7561,-0.4049,0.6720,-0.3624,0.9602,1.5718,-1.0046,-1.0011,1.7256,
1.264672,0.7561,-0.4049,0.6720,-0.0767,1.0869,2.7692,-1.0046,-1.0011,1.7256,
1.265587,0.7561,-0.4049,0.6720,-0.0767,1.0869,2.7692,-0.8018,-0.8441,1.9492,
1.274820,0.7561,-0.4049,0.6720,-0.0767,1.0869,2.7692,-0.5684,-0.6633,2.2553,
1.283346,0.8431,-0.5276,0.4631,-0.0767,1.0869,2.7692,-0.5684,-0.6633,2.2553,
1.284568,0.8431,-0.5276,0.4631,0.9363,0.2034,0.8473,-0.5684,-0.6633,2.2553,
1.285404,0.8431,-0.5276,0.4631,0.9363,0.2034,0.8473,-0.3858,-0.5986,2.6059,
1.294231,0.8431,-0.5276,0.4631,0.9363,0.2034,0.8473,-0.2770,-0.7513,2.9162,
1.303121,1.1200,-0.7764,0.2163,0.9363,0.2034,0.8473,-0.2770,-0.7513,2.9162,
1.304267,1.1200,-0.7764,0.2163,3.8878,-1.8484,-1.4498,-0.2770,-0.7513,2.9162,
1.305719,1.1200,-0.7764,0.2163,3.8878,-1.8484,-1.4498,-0.2526,-0.9993,3.0921,
1.314202,1.1200,-0.7764,0.2163,3.8878,-1.8484,-1.4498,-0.3149,-1.1746,3.0787,
1.324084,1.0256,-0.7597,0.1617,3.8878,-1.8484,-1.4498,-0.3149,-1.1746,3.0787,
1.325437,1.0256,-0.7597,0.1617,3.2177,-1.2743,-1.7920,-0.3149,-1.1746,3.0787,
1.326679,1.0256,-0.7597,0.1617,3.2177,-1.2743,-1.7920,-0.4963,-1.1966,2.7183,
1.334324,1.0256,-0.7597,0.1617,3.2177,-1.2743,-1.7920,-0.5073,-1.0848,2.6493,
1.343503,0.3087,-0.5306,0.3006,3.2177,-1.2743,-1.7920,-0.5073,-1.0848,2.6493,
1.345658,0.3087,-0.5306,0.3006,-3.5622,1.3379,-0.2210,-0.5073,-1.0848,2.6493,
1.347063,0.3087,-0.5306,0.3006,-3.5622,1.3379,-0.2210,-0.4560,-1.0463,2.7745,
1.354449,0.3087,-0.5306,0.3006,-3.5622,1.3379,-0.2210,-0.3681,-1.2131,3.1172,
1.363786,0.0970,-0.5592,0.3224,-3.5622,1.3379,-0.2210,-0.3681,-1.2131,3.1172,
1.365614,0.0970,-0.5592,0.3224,-5.3125,1.4488,0.1704,-0.3681,-1.2131,3.1172,
1.366969,0.0970,-0.5592,0.3224,-5.3125,1.4488,0.1704,-0.2471,-1.2888,3.5008,
1.375759,0.0970,-0.5592,0.3224,-5.3125,1.4488,0.1704,-0.2013,-1.1978,3.7342,
1.383352,0.1687,-0.4630,0.1062,-5.3125,1.4488,0.1704,-0.2013,-1.1978,3.7342,
1.385142,0.1687,-0.4630,0.1062,-4.1661,2.8345,-1.7823,-0.2013,-1.1978,3.7342,
1.386582,0.1687,-0.4630,0.1062,-4.1661,2.8345,-1.7823,-0.2416,-1.2577,3.7329,
1.395229,0.1687,-0.4630,0.1062,-4.1661,2.8345,-1.7823,-0.1854,-1.6383,3.6437,
1.403834,0.2130,-0.4333,0.3220,-4.1661,2.8345,-1.7823,-0.1854,-1.6383,3.6437,
1.405709,0.2130,-0.4333,0.3220,-3.2565,3.5270,0.4745,-0.1854,-1.6383,3.6437,
1.407284,0.2130,-0.4333,0.3220,-3.2565,3.5270,0.4745,0.0876,-1.9803,3.4593,
1.414410,0.2130,-0.4333,0.3220,-3.2565,3.5270,0.4745,0.5360,-2.0762,3.1514,
1.424372,0.2078,-0.3265,0.3382,-3.2565,3.5270,0.4745,0.5360,-2.0762,3.1514,
1.425622,0.2078,-0.3265,0.3382,-2.9027,4.8607,0.7062,0.5360,-2.0762,3.1514,
1.426811,0.2078,-0.3265,0.3382,-2.9027,4.8607,0.7062,0.9801,-1.9999,2.7843,
1.434184,0.2078,-0.3265,0.3382,-2.9027,4.8607,0.7062,1.3399,-1.7091,2.4324,
1.443191,0.0711,-0.3527,0.2608,-2.9027,4.8607,0.7062,1.3399,-1.7091,2.4324,
1.444158,0.0711,-0.3527,0.2608,-3.9126,4.7685,-0.1427,1.3399,-1.7091,2.4324,
1.444978,0.0711,-0.3527,0.2608,-3.9126,4.7685,-0.1427,1.5580,-1.1123,2.3053,
1.454214,0.0711,-0.3527,0.2608,-3.9126,4.7685,-0.1427,1.5446,-0.3151,2.4947,
1.463024,0.0923,-0.4362,0.2693,-3.9126,4.7685,-0.1427,1.5446,-0.3151,2.4947,
1.464385,0.0923,-0.4362,0.2693,-3.3379,4.0617,-0.3050,1.5446,-0.3151,2.4947,
1.465274,0.0923,-0.4362,0.2693,-3.3379,4.0617,-0.3050,1.3900,0.5767,2.7733,
1.474367,0.0923,-0.4362,0.2693,-3.3379,4.0617,-0.3050,1.3295,1.2224,2.9474,
1.483199,0.1986,-1.3361,0.0071,-3.3379,4.0617,-0.3050,1.3295,1.2224,2.9474,
1.484340,0.1986,-1.3361,0.0071,-1.7323,-4.5976,-3.1631,1.3295,1.2224,2.9474,
1.485228,0.1986,-1.3361,0.0071,-1.7323,-4.5976,-3.1631,0.7474,0.3941,3.0524,
1.494196,0.1986,-1.3361,0.0071,-1.7323,-4.5976,-3.1631,-0.4084,-1.2033,3.0634,
1.503548,0.5545,-2.4936,-0.0594,-1.7323,-4.5976,-3.1631,-0.4084,-1.2033,3.0634,
1.505531,0.5545,-2.4936,-0.0594,2.2766,-15.7046,-3.7341,-0.4084,-1.2033,3.0634,
1.507732,0.5545,-2.4936,-0.0594,2.2766,-15.7046,-3.7341,-2.1860,-2.2393,2.1117,
1.520396,0.5545,-2.4936,-0.0594,2.2766,-15.7046,-3.7341,-2.4658,-1.6199,0.9364,
1.525784,1.3985,-2.6643,0.8291,2.2766,-15.7046,-3.7341,-2.4658,-1.6199,0.9364,
1.527584,1.3985,-2.6643,0.8291,10.7060,-17.1490,5.5028,-2.4658,-1.6199,0.9364,
1.529457,1.3985,-2.6643,0.8291,10.7060,-17.1490,5.5028,-2.2727,-0.2571,-0.3153,
1.534485,1.3985,-2.6643,0.8291,10.7060,-17.1490,5.5028,-1.6924,0.5859,-0.9848,
1.543585,0.7073,-1.3267,0.5235,10.7060,-17.1490,5.5028,-1.6924,0.5859,-0.9848,
1.545794,0.7073,-1.3267,0.5235,3.8227,-3.9829,2.8574,-1.6924,0.5859,-0.9848,
1.546952,0.7073,-1.3267,0.5235,3.8227,-3.9829,2.8574,-0.8702,0.2945,-0.7533,
1.554392,0.7073,-1.3267,0.5235,3.8227,-3.9829,2.8574,-0.1329,-0.3029,-0.1387,
1.566349,0.5515,-0.4815,0.2777,3.8227,-3.9829,2.8574,-0.1329,-0.3029,-0.1387,
1.567845,0.5515,-0.4815,0.2777,2.1905,4.2837,0.5324,-0.1329,-0.3029,-0.1387,
1.569218,0.5515,-0.4815,0.2777,2.1905,4.2837,0.5324,0.3332,-0.6144,0.3866,
1.574750,0.5515,-0.4815,0.2777,2.1905,4.2837,0.5324,0.5696,-0.7293,0.8289,
1.583502,0.3706,-0.4526,0.1087,2.1905,4.2837,0.5324,0.5696,-0.7293,0.8289,
1.585014,0.3706,-0.4526,0.1087,0.4474,4.5672,-1.1671,0.5696,-0.7293,0.8289,
1.586113,0.3706,-0.4526,0.1087,0.4474,4.5672,-1.1671,0.6234,-0.7458,1.2736,
1.594575,0.3706,-0.4526,0.1087,0.4474,4.5672,-1.1671,0.5226,-0.6877,1.8276,
1.603895,0.1700,-0.6639,0.1511,0.4474,4.5672,-1.1671,0.5226,-0.6877,1.8276,
1.605547,0.1700,-0.6639,0.1511,-1.3080,2.5527,-0.8126,0.5226,-0.6877,1.8276,
1.606975,0.1700,-0.6639,0.1511,-1.3080,2.5527,-0.8126,0.4206,-0.6871,2.4990,
1.614456,0.1700,-0.6639,0.1511,-1.3080,2.5527,-0.8126,0.4334,-0.7598,3.2632,
1.625573,0.1198,-0.8843,0.2095,-1.3080,2.5527,-0.8126,0.4334,-0.7598,3.2632,
1.626980,0.1198,-0.8843,0.2095,-1.3338,0.5235,-0.2785,0.4334,-0.7598,3.2632,
1.628366,0.1198,-0.8843,0.2095,-1.3338,0.5235,-0.2785,0.5446,-0.7232,4.0964,
1.634232,0.1198,-0.8843,0.2095,-1.3338,0.5235,-0.2785,0.6710,-0.5802,4.7977,
1.643358,0.2274,-0.6794,0.0039,-1.3338,0.5235,-0.2785,0.6710,-0.5802,4.7977,
1.644852,0.2274,-0.6794,0.0039,0.4471,2.6830,-2.3567,0.6710,-0.5802,4.7977,
1.645727,0.2274,-0.6794,0.0039,0.4471,2.6830,-2.3567,0.7529,-0.7220,5.0096,
1.654342,0.2274,-0.6794,0.0039,0.4471,2.6830,-2.3567,0.6228,-1.2131,4.6590,
1.663486,0.3706,-0.3858,-0.1255,0.4471,2.6830,-2.3567,0.6228,-1.2131,4.6590,
1.664726,0.3706,-0.3858,-0.1255,2.5797,5.6568,-3.6792,0.6228,-1.2131,4.6590,
1.665634,0.3706,-0.3858,-0.1255,2.5797,5.6568,-3.6792,0.2257,-1.6022,3.7781,
1.674383,0.3706,-0.3858,-0.1255,2.5797,5.6568,-3.6792,-0.3449,-1.6700,2.4727,
1.683266,0.2201,-0.6969,-0.1388,2.5797,5.6568,-3.6792,-0.3449,-1.6700,2.4727,
1.684681,0.2201,-0.6969,-0.1388,1.4808,2.6706,-3.6969,-0.3449,-1.6700,2.4727,
1.685620,0.2201,-0.6969,-0.1388,1.4808,2.6706,-3.6969,-0.9594,-1.5857,-0.0996,
1.694494,0.2201,-0.6969,-0.1388,1.4808,2.6706,-3.6969,-1.8366,-1.3609,-0.8864,
1.703457,-0.2074,-1.2077,-0.0239,1.4808,2.6706,-3.6969,-1.8366,-1.3609,-0.8864,
1.705059,-0.2074,-1.2077,-0.0239,-2.9094,-2.2702,-2.2102,-1.8366,-1.3609,-0.8864,
1.706762,-0.2074,-1.2077,-0.0239,-2.9094,-2.2702,-2.2102,-2.0308,-1.1056,-0.6683,
1.714520,-0.2074,-1.2077,-0.0239,-2.9094,-2.2702,-2.2102,-2.0058,-0.6511,0.0494,
1.726018,-0.0793,-1.2974,0.3748,-2.9094,-2.2702,-2.2102,-2.0058,-0.6511,0.0494,
1.727629,-0.0793,-1.2974,0.3748,-1.7446,-3.0820,2.1071,-2.0058,-0.6511,0.0494,
1.729303,-0.0793,-1.2974,0.3748,-1.7446,-3.0820,2.1071,-1.6924,-0.1209,0.6181,
1.735261,-0.0793,-1.2974,0.3748,-1.7446,-3.0820,2.1071,-1.2709,0.4045,0.8668,
1.745282,0.2116,-1.0907,0.2116,-1.7446,-3.0820,2.1071,-1.2709,0.4045,0.8668,
1.746924,0.2116,-1.0907,0.2116,1.2480,-1.0015,0.7916,-1.2709,0.4045,0.8668,
1.748427,0.2116,-1.0907,0.2116,1.2480,-1.0015,0.7916,-0.9398,0.9268,0.6707,
1.754336,0.2116,-1.0907,0.2116,1.2480,-1.0015,0.7916,-0.7584,1.2615,0.1795,
1.763441,0.1460,-0.9499,0.0022,1.2480,-1.0015,0.7916,-0.7584,1.2615,0.1795,
1.765269,0.1460,-0.9499,0.0022,0.7074,0.4058,-1.1082,-0.7584,1.2615,0.1795,
1.766317,0.1460,-0.9499,0.0022,0.7074,0.4058,-1.1082,-0.7413,1.2524,-0.3073,
1.774901,0.1460,-0.9499,0.0022,0.7074,0.4058,-1.1082,-0.8751,1.0404,-0.7282,
1.783240,0.1876,-0.8559,0.0252,0.7074,0.4058,-1.1082,-0.8751,1.0404,-0.7282,
1.784184,0.1876,-0.8559,0.0252,1.0272,1.3349,-0.7406,-0.8751,1.0404,-0.7282,
1.785064,0.1876,-0.8559,0.0252,1.0272,1.3349,-0.7406,-1.0883,0.7741,-1.1241,
1.794436,0.1876,-0.8559,0.0252,1.0272,1.3349,-0.7406,-1.2648,0.5297,-1.5034,
1.803187,0.3005,-0.8350,0.0893,1.0272,1.3349,-0.7406,-1.2648,0.5297,-1.5034,
1.804242,0.3005,-0.8350,0.0893,1.8676,1.5333,0.1024,-1.2648,0.5297,-1.5034,
1.805121,0.3005,-0.8350,0.0893,1.8676,1.5333,0.1024,-1.3656,0.3122,-1.8968,
1.814324,0.3005,-0.8350,0.0893,1.8676,1.5333,0.1024,-1.3955,0.1113,-2.3073,
1.824678,0.3009,-0.8448,0.0618,1.8676,1.5333,0.1024,-1.3955,0.1113,-2.3073,
1.825812,0.3009,-0.8448,0.0618,1.4466,1.3980,0.0885,-1.3955,0.1113,-2.3073,
1.826874,0.3009,-0.8448,0.0618,1.4466,1.3980,0.0885,-1.3699,-0.1044,-2.6885,
1.834365,0.3009,-0.8448,0.0618,1.4466,1.3980,0.0885,-1.2538,-0.2815,-2.9664,
1.843538,0.2333,-0.9598,0.1476,1.4466,1.3980,0.0885,-1.2538,-0.2815,-2.9664,
1.845857,0.2333,-0.9598,0.1476,0.2336,0.1799,1.1729,-1.2538,-0.2815,-2.9664,
1.846766,0.2333,-0.9598,0.1476,0.2336,0.1799,1.1729,-1.0290,-0.4269,-3.0678,
1.855058,0.2333,-0.9598,0.1476,0.2336,0.1799,1.1729,-0.7150,-0.5595,-2.9524,
1.864167,0.2438,-1.0609,0.1810,0.2336,0.1799,1.1729,-0.7150,-0.5595,-2.9524,
1.866766,0.2438,-1.0609,0.1810,-0.2300,-0.9472,1.6593,-0.7150,-0.5595,-2.9524,
1.868575,0.2438,-1.0609,0.1810,-0.2300,-0.9472,1.6593,-0.3455,-0.6340,-2.6329,
1.877263,0.2438,-1.0609,0.1810,-0.2300,-0.9472,1.6593,0.2630,-0.6871,-1.4979,
1.884104,0.3037,-1.0730,0.0177,-0.2300,-0.9472,1.6593,0.2630,-0.6871,-1.4979,
1.886386,0.3037,-1.0730,0.0177,-0.0173,-1.1771,0.0838,0.2630,-0.6871,-1.4979,
1.888554,0.3037,-1.0730,0.0177,-0.0173,-1.1771,0.0838,0.3674,-0.6566,-0.8492,
1.894954,0.3037,-1.0730,0.0177,-0.0173,-1.1771,0.0838,0.2972,-0.4911,-0.2523,
1.904061,0.5044,-0.9799,-0.2818,-0.0173,-1.1771,0.0838,0.2972,-0.4911,-0.2523,
1.906573,0.5044,-0.9799,-0.2818,1.8464,-0.2989,-2.8764,0.2972,-0.4911,-0.2523,
1.909126,0.5044,-0.9799,-0.2818,1.8464,-0.2989,-2.8764,0.0901,-0.1288,0.2480,
1.914985,0.5044,-0.9799,-0.2818,1.8464,-0.2989,-2.8764,-0.1750,0.3055,0.5393,
1.926668,0.6025,-0.8662,-0.3864,1.8464,-0.2989,-2.8764,-0.1750,0.3055,0.5393,
1.929266,0.6025,-0.8662,-0.3864,2.8557,0.8319,-3.8581,-0.1750,0.3055,0.5393,
1.931558,0.6025,-0.8662,-0.3864,2.8557,0.8319,-3.8581,-0.4230,0.6323,0.5778,
1.934818,0.6025,-0.8662,-0.3864,2.8557,0.8319,-3.8581,-0.6155,0.8156,0.4984,
1.944041,0.5687,-0.8272,-0.3925,2.8557,0.8319,-3.8581,-0.6155,0.8156,0.4984,
1.947029,0.5687,-0.8272,-0.3925,2.5728,1.2293,-3.7919,-0.6155,0.8156,0.4984,
1.949274,0.5687,-0.8272,-0.3925,2.5728,1.2293,-3.7919,-0.7218,0.8339,0.4184,
1.954734,0.5687,-0.8272,-0.3925,2.5728,1.2293,-3.7919,-0.7236,0.6916,0.3408,
1.963779,0.6154,-0.8282,-0.2795,2.5728,1.2293,-3.7919,-0.7236,0.6916,0.3408,
1.965694,0.6154,-0.8282,-0.2795,3.0276,1.2165,-2.5188,-0.7236,0.6916,0.3408,
1.967271,0.6154,-0.8282,-0.2795,3.0276,1.2165,-2.5188,-0.6326,0.4949,0.2486,
1.976545,0.6154,-0.8282,-0.2795,3.0276,1.2165,-2.5188,-0.4878,0.3739,0.1459,
1.983737,0.6341,-0.8752,-0.1860,3.0276,1.2165,-2.5188,-0.4878,0.3739,0.1459,
1.985506,0.6341,-0.8752,-0.1860,3.1616,0.7351,-1.4585,-0.4878,0.3739,0.1459,
1.987081,0.6341,-0.8752,-0.1860,3.1616,0.7351,-1.4585,-0.3369,0.3788,0.0464,
1.994722,0.6341,-0.8752,-0.1860,3.1616,0.7351,-1.4585,-0.2233,0.4491,-0.0495,
2.003819,0.6053,-0.9216,-0.1583,3.1616,0.7351,-1.4585,-0.2233,0.4491,-0.0495,
2.005867,0.6053,-0.9216,-0.1583,2.7911,0.2472,-1.1037,-0.2233,0.4491,-0.0495,
2.007804,0.6053,-0.9216,-0.1583,2.7911,0.2472,-1.1037,-0.1665,0.5028,-0.1522,
2.014914,0.6053,-0.9216,-0.1583,2.7911,0.2472,-1.1037,-0.1549,0.4637,-0.2377,
2.026598,0.4722,-0.8970,-0.0950,2.7911,0.2472,-1.1037,-0.1549,0.4637,-0.2377,
2.028786,0.4722,-0.8970,-0.0950,1.3737,0.4475,-0.4395,-0.1549,0.4637,-0.2377,
2.031134,0.4722,-0.8970,-0.0950,1.3737,0.4475,-0.4395,-0.1763,0.2939,-0.2890,
2.034619,0.4722,-0.8970,-0.0950,1.3737,0.4475,-0.4395,-0.2050,0.0111,-0.3128,
2.043758,0.3801,-0.8646,-0.0320,1.3737,0.4475,-0.4395,-0.2050,0.0111,-0.3128,
2.045527,0.3801,-0.8646,-0.0320,0.3572,0.7208,0.2325,-0.2050,0.0111,-0.3128,
2.047930,0.3801,-0.8646,-0.0320,0.3572,0.7208,0.2325,-0.2074,-0.5173,-0.3110,
2.054814,0.3801,-0.8646,-0.0320,0.3572,0.7208,0.2325,-0.1524,-0.5876,-0.2847,
2.064335,0.3428,-0.8664,0.0117,0.3572,0.7208,0.2325,-0.1524,-0.5876,-0.2847,
2.065831,0.3428,-0.8664,0.0117,-0.0876,0.6686,0.7411,-0.1524,-0.5876,-0.2847,
2.066993,0.3428,-0.8664,0.0117,-0.0876,0.6686,0.7411,-0.0614,-0.5595,-0.2414,
2.076075,0.3428,-0.8664,0.0117,-0.0876,0.6686,0.7411,0.0479,-0.4911,-0.1894,
2.083490,0.3530,-0.9131,0.0265,-0.0876,0.6686,0.7411,0.0479,-0.4911,-0.1894,
2.085228,0.3530,-0.9131,0.0265,-0.0341,0.1909,0.9214,0.0479,-0.4911,-0.1894,
2.086591,0.3530,-0.9131,0.0265,-0.0341,0.1909,0.9214,0.1512,-0.4239,-0.1363,
2.094641,0.3530,-0.9131,0.0265,-0.0341,0.1909,0.9214,0.2239,-0.3805,-0.0844,
2.103527,0.4205,-0.9098,0.0249,-0.0341,0.1909,0.9214,0.2239,-0.3805,-0.0844,
2.105012,0.4205,-0.9098,0.0249,0.5981,0.2132,0.8936,0.2239,-0.3805,-0.0844,
2.107560,0.4205,-0.9098,0.0249,0.5981,0.2132,0.8936,0.2636,-0.3744,-0.0379,
2.115990,0.4205,-0.9098,0.0249,0.5981,0.2132,0.8936,0.2666,-0.3762,-0.0007,
2.126447,0.5112,-0.8745,0.0170,0.5981,0.2132,0.8936,0.2666,-0.3762,-0.0007,
2.128288,0.5112,-0.8745,0.0170,1.4657,0.5530,0.7832,0.2666,-0.3762,-0.0007,
2.130238,0.5112,-0.8745,0.0170,1.4657,0.5530,0.7832,0.2459,-0.3744,0.0115,
2.134397,0.5112,-0.8745,0.0170,1.4657,0.5530,0.7832,0.2153,-0.3273,0.0030,
2.143992,0.5597,-0.8741,0.0154,1.4657,0.5530,0.7832,0.2153,-0.3273,0.0030,
2.146767,0.5597,-0.8741,0.0154,1.9105,0.5468,0.7351,0.2153,-0.3273,0.0030,
2.148754,0.5597,-0.8741,0.0154,1.9105,0.5468,0.7351,0.1805,-0.2107,-0.0141,
2.154423,0.5597,-0.8741,0.0154,1.9105,0.5468,0.7351,0.1506,-0.0616,-0.0141,
2.163529,0.5481,-0.8788,0.0320,1.9105,0.5468,0.7351,0.1506,-0.0616,-0.0141,
2.165259,0.5481,-0.8788,0.0320,1.7514,0.4858,0.8577,0.1506,-0.0616,-0.0141,
2.166426,0.5481,-0.8788,0.0320,1.7514,0.4858,0.8577,0.1273,0.0667,-0.0483,
2.175789,0.5481,-0.8788,0.0320,1.7514,0.4858,0.8577,0.1151,0.1406,-0.0703,
2.183530,0.4313,-0.8497,0.0899,1.7514,0.4858,0.8577,0.1151,0.1406,-0.0703,
2.185020,0.4313,-0.8497,0.0899,0.5575,0.7541,1.3700,0.1151,0.1406,-0.0703,
2.186129,0.4313,-0.8497,0.0899,0.5575,0.7541,1.3700,0.1188,0.1766,-0.0856,
2.194671,0.4313,-0.8497,0.0899,0.5575,0.7541,1.3700,0.1457,0.1998,-0.0862,
2.203530,0.4184,-0.8618,0.1022,0.5575,0.7541,1.3700,0.1457,0.1998,-0.0862,
2.204863,0.4184,-0.8618,0.1022,0.3826,0.6194,1.4236,0.1457,0.1998,-0.0862,
2.206405,0.4184,-0.8618,0.1022,0.3826,0.6194,1.4236,0.1988,0.2145,-0.0783,
2.215060,0.4184,-0.8618,0.1022,0.3826,0.6194,1.4236,0.2788,0.2279,-0.0905,
2.227078,0.4311,-0.8545,0.0746,0.3826,0.6194,1.4236,0.2788,0.2279,-0.0905,
2.229166,0.4311,-0.8545,0.0746,0.4643,0.6772,1.0656,0.2788,0.2279,-0.0905,
2.232296,0.4311,-0.8545,0.0746,0.4643,0.6772,1.0656,0.3888,0.2628,-0.1235,
2.234964,0.4311,-0.8545,0.0746,0.4643,0.6772,1.0656,0.5330,0.3379,-0.1680,
2.244016,0.5041,-0.8405,0.0551,0.4643,0.6772,1.0656,0.5330,0.3379,-0.1680,
2.246368,0.5041,-0.8405,0.0551,1.1239,0.7939,0.7445,0.5330,0.3379,-0.1680,
2.248618,0.5041,-0.8405,0.0551,1.1239,0.7939,0.7445,0.9038,0.5102,-0.3043,
2.254891,0.5041,-0.8405,0.0551,1.1239,0.7939,0.7445,1.0986,0.5554,-0.4258,
2.264691,0.6514,-0.9944,0.1148,1.1239,0.7939,0.7445,1.0986,0.5554,-0.4258,
2.266774,0.6514,-0.9944,0.1148,2.4680,-0.7549,1.0887,1.0986,0.5554,-0.4258,
2.268711,0.6514,-0.9944,0.1148,2.4680,-0.7549,1.0887,1.3002,0.5951,-0.5853,
2.277925,0.6514,-0.9944,0.1148,2.4680,-0.7549,1.0887,1.5354,0.6421,-0.7508,
2.284124,0.6854,-1.1557,0.2843,2.4680,-0.7549,1.0887,1.5354,0.6421,-0.7508,
2.286179,0.6854,-1.1557,0.2843,2.6550,-2.4074,2.4206,1.5354,0.6421,-0.7508,
2.288077,0.6854,-1.1557,0.2843,2.6550,-2.4074,2.4206,1.8249,0.6696,-0.9005,
2.294887,0.6854,-1.1557,0.2843,2.6550,-2.4074,2.4206,2.1389,0.6116,-1.0190,
2.304010,0.6860,-1.1765,0.3081,2.6550,-2.4074,2.4206,2.1389,0.6116,-1.0190,
2.307361,0.6860,-1.1765,0.3081,2.4804,-2.7229,2.2323,2.1389,0.6116,-1.0190,
2.309820,0.6860,-1.1765,0.3081,2.4804,-2.7229,2.2323,2.4346,0.4259,-1.1131,
2.315278,0.6860,-1.1765,0.3081,2.4804,-2.7229,2.2323,2.6997,0.1241,-1.2114,
2.324536,0.4726,-1.1304,0.2056,2.4804,-2.7229,2.2323,2.6997,0.1241,-1.2114,
2.326919,0.4726,-1.1304,0.2056,0.1899,-2.4263,0.7531,2.6997,0.1241,-1.2114,
2.328758,0.4726,-1.1304,0.2056,0.1899,-2.4263,0.7531,2.8848,-0.2785,-1.2536,
2.334894,0.4726,-1.1304,0.2056,0.1899,-2.4263,0.7531,2.9575,-0.6945,-1.1656,
2.344440,0.1484,-1.2147,0.1537,0.1899,-2.4263,0.7531,2.9575,-0.6945,-1.1656,
2.348024,0.1484,-1.2147,0.1537,-3.1819,-3.4332,-0.2033,2.9575,-0.6945,-1.1656,
2.350443,0.1484,-1.2147,0.1537,-3.1819,-3.4332,-0.2033,2.9135,-0.8857,-0.9701,
2.355285,0.1484,-1.2147,0.1537,-3.1819,-3.4332,-0.2033,2.7376,-0.6505,-0.7264,
2.364089,0.0290,-1.1652,-0.1074,-3.1819,-3.4332,-0.2033,2.7376,-0.6505,-0.7264,
2.366407,0.0290,-1.1652,-0.1074,-4.4503,-3.0822,-3.1148,2.7376,-0.6505,-0.7264,
2.368492,0.0290,-1.1652,-0.1074,-4.4503,-3.0822,-3.1148,2.4010,-0.0689,-0.4985,
2.377686,0.0290,-1.1652,-0.1074,-4.4503,-3.0822,-3.1148,1.9392,0.5676,-0.3446,
2.384064,0.1648,-1.0651,-0.2007,-4.4503,-3.0822,-3.1148,1.9392,0.5676,-0.3446,
2.386314,0.1648,-1.0651,-0.2007,-3.0957,-2.1686,-4.3345,1.9392,0.5676,-0.3446,
2.388232,0.1648,-1.0651,-0.2007,-3.0957,-2.1686,-4.3345,1.5024,1.0147,-0.2853,
2.395253,0.1648,-1.0651,-0.2007,-3.0957,-2.1686,-4.3345,1.2086,1.1332,-0.3354,
2.403989,0.4212,-0.9798,-0.0794,-3.0957,-2.1686,-4.3345,1.2086,1.1332,-0.3354,
2.406069,0.4212,-0.9798,-0.0794,-0.5162,-1.3576,-3.3542,1.2086,1.1332,-0.3354,
2.408654,0.4212,-0.9798,-0.0794,-0.5162,-1.3576,-3.3542,1.0681,0.9665,-0.4894,
2.415002,0.4212,-0.9798,-0.0794,-0.5162,-1.3576,-3.3542,1.0247,0.7154,-0.6622,
2.424244,0.5818,-0.9324,0.1099,-0.5162,-1.3576,-3.3542,1.0247,0.7154,-0.6622,
2.426452,0.5818,-0.9324,0.1099,1.0484,-0.9466,-1.6478,1.0247,0.7154,-0.6622,
2.428626,0.5818,-0.9324,0.1099,1.0484,-0.9466,-1.6478,0.9819,0.5548,-0.9292,
2.435145,0.5818,-0.9324,0.1099,1.0484,-0.9466,-1.6478,0.8830,0.5627,-0.9756,
2.444472,0.5739,-0.8837,0.0795,1.0484,-0.9466,-1.6478,0.8830,0.5627,-0.9756,
2.446752,0.5739,-0.8837,0.0795,0.8706,-0.5626,-2.0511,0.8830,0.5627,-0.9756,
2.449096,0.5739,-0.8837,0.0795,0.8706,-0.5626,-2.0511,0.6918,0.6397,-0.9390,
2.455167,0.5739,-0.8837,0.0795,0.8706,-0.5626,-2.0511,0.4389,0.8058,-0.8321,
2.464186,0.4362,-0.7438,0.0694,0.8706,-0.5626,-2.0511,0.4389,0.8058,-0.8321,
2.466269,0.4362,-0.7438,0.0694,-0.5608,0.7370,-2.2127,0.4389,0.8058,-0.8321,
2.468327,0.4362,-0.7438,0.0694,-0.5608,0.7370,-2.2127,0.1774,1.0056,-0.7038,
2.477577,0.4362,-0.7438,0.0694,-0.5608,0.7370,-2.2127,-0.0443,1.1687,-0.6109,
2.483882,0.3571,-0.6769,0.1054,-0.5608,0.7370,-2.2127,-0.0443,1.1687,-0.6109,
2.486166,0.3571,-0.6769,0.1054,-1.3605,1.3694,-1.8846,-0.0443,1.1687,-0.6109,
2.488059,0.3571,-0.6769,0.1054,-1.3605,1.3694,-1.8846,-0.1995,1.2139,-0.5529,
2.494922,0.3571,-0.6769,0.1054,-1.3605,1.3694,-1.8846,-0.2972,1.1565,-0.4943,
2.503879,0.2886,-0.6619,0.1630,-1.3605,1.3694,-1.8846,-0.2972,1.1565,-0.4943,
2.506109,0.2886,-0.6619,0.1630,-2.0224,1.5213,-1.3190,-0.2972,1.1565,-0.4943,
2.508952,0.2886,-0.6619,0.1630,-2.0224,1.5213,-1.3190,-0.3662,1.1100,-0.4252,
2.515126,0.2886,-0.6619,0.1630,-2.0224,1.5213,-1.3190,-0.4267,1.1522,-0.3403,
2.524171,0.2637,-0.6705,0.2486,-2.0224,1.5213,-1.3190,-0.4267,1.1522,-0.3403,
2.526406,0.2637,-0.6705,0.2486,-2.2317,1.4618,-0.4709,-0.4267,1.1522,-0.3403,
2.528541,0.2637,-0.6705,0.2486,-2.2317,1.4618,-0.4709,-0.4976,1.2847,-0.2340,
2.534951,0.2637,-0.6705,0.2486,-2.2317,1.4618,-0.4709,-0.5910,1.4753,-0.1064,
2.544359,0.3203,-0.6758,0.3280,-2.2317,1.4618,-0.4709,-0.5910,1.4753,-0.1064,
2.546583,0.3203,-0.6758,0.3280,-1.6021,1.4470,0.2851,-0.5910,1.4753,-0.1064,
2.548843,0.3203,-0.6758,0.3280,-1.6021,1.4470,0.2851,-0.7126,1.6574,0.0293,
2.554892,0.3203,-0.6758,0.3280,-1.6021,1.4470,0.2851,-0.8671,1.7582,0.1527,
2.565471,0.4367,-0.6606,0.3744,-1.6021,1.4470,0.2851,-0.8671,1.7582,0.1527,
2.568017,0.4367,-0.6606,0.3744,-0.3413,1.6540,0.7103,-0.8671,1.7582,0.1527,
2.570145,0.4367,-0.6606,0.3744,-0.3413,1.6540,0.7103,-1.0541,1.7649,0.2467,
2.578409,0.4367,-0.6606,0.3744,-0.3413,1.6540,0.7103,-1.2410,1.7050,0.3035,
2.583969,0.4948,-0.6571,0.4543,-0.3413,1.6540,0.7103,-1.2410,1.7050,0.3035,
2.585424,0.4948,-0.6571,0.4543,0.3759,1.7791,1.5166,-1.2410,1.7050,0.3035,
2.586902,0.4948,-0.6571,0.4543,0.3759,1.7791,1.5166,-1.3662,1.5951,0.3200,
2.594857,0.4948,-0.6571,0.4543,0.3759,1.7791,1.5166,-1.4346,1.4601,0.3145,
2.603944,0.5106,-0.6601,0.4709,0.3759,1.7791,1.5166,-1.4346,1.4601,0.3145,
2.605663,0.5106,-0.6601,0.4709,0.6547,1.8385,1.7448,-1.4346,1.4601,0.3145,
2.607238,0.5106,-0.6601,0.4709,0.6547,1.8385,1.7448,-1.4750,1.3073,0.2956,
2.614578,0.5106,-0.6601,0.4709,0.6547,1.8385,1.7448,-1.4224,0.8248,0.1942,
2.623702,0.5795,-0.6738,0.5277,0.6547,1.8385,1.7448,-1.4224,0.8248,0.1942,
2.626521,0.5795,-0.6738,0.5277,1.3957,1.7684,2.3896,-1.4224,0.8248,0.1942,
2.628111,0.5795,-0.6738,0.5277,1.3957,1.7684,2.3896,-1.3235,0.4759,0.1294,
2.635281,0.5795,-0.6738,0.5277,1.3957,1.7684,2.3896,-1.2404,0.1400,0.0751,
2.644693,0.6240,-0.7037,0.4931,1.3957,1.7684,2.3896,-1.2404,0.1400,0.0751,
2.646285,0.6240,-0.7037,0.4931,1.8200,1.5071,2.1673,-1.2404,0.1400,0.0751,
2.648143,0.6240,-0.7037,0.4931,1.8200,1.5071,2.1673,-1.1732,-0.1123,0.0305,
2.654342,0.6240,-0.7037,0.4931,1.8200,1.5071,2.1673,-1.0675,-0.2455,-0.0031,
2.663354,0.5455,-0.7179,0.4806,1.8200,1.5071,2.1673,-1.0675,-0.2455,-0.0031,
2.665765,0.5455,-0.7179,0.4806,1.0005,1.3802,2.1671,-1.0675,-0.2455,-0.0031,
2.666802,0.5455,-0.7179,0.4806,1.0005,1.3802,2.1671,-0.9007,-0.2754,-0.0098,
2.676051,0.5455,-0.7179,0.4806,1.0005,1.3802,2.1671,-0.6979,-0.1820,0.0146,
2.683128,0.3808,-0.7499,0.2237,1.0005,1.3802,2.1671,-0.6979,-0.1820,0.0146,
2.684167,0.3808,-0.7499,0.2237,-0.6563,1.0714,-0.2608,-0.6979,-0.1820,0.0146,
2.685159,0.3808,-0.7499,0.2237,-0.6563,1.0714,-0.2608,-0.5538,0.0013,0.0470,
2.694369,0.3808,-0.7499,0.2237,-0.6563,1.0714,-0.2608,-0.5324,0.1424,0.0806,
2.703210,0.1021,-0.8150,-0.1168,-0.6563,1.0714,-0.2608,-0.5324,0.1424,0.0806,
2.704261,0.1021,-0.8150,-0.1168,-3.3717,0.4643,-3.5164,-0.5324,0.1424,0.0806,
2.705148,0.1021,-0.8150,-0.1168,-3.3717,0.4643,-3.5164,-0.6478,0.1595,0.1643,
2.714189,0.1021,-0.8150,-0.1168,-3.3717,0.4643,-3.5164,-0.9160,0.0569,0.3402,
2.723089,-0.0260,-1.0742,0.2857,-3.3717,0.4643,-3.5164,-0.9160,0.0569,0.3402,
2.724507,-0.0260,-1.0742,0.2857,-4.5280,-1.9971,0.5312,-0.9160,0.0569,0.3402,
2.725491,-0.0260,-1.0742,0.2857,-4.5280,-1.9971,0.5312,-1.1946,-0.0488,0.5742,
2.734274,-0.0260,-1.0742,0.2857,-4.5280,-1.9971,0.5312,-1.2795,-0.0060,0.7873,
2.743065,0.3406,-1.2505,0.4543,-4.5280,-1.9971,0.5312,-1.2795,-0.0060,0.7873,
2.744218,0.3406,-1.2505,0.4543,-0.7646,-3.5957,2.3631,-1.2795,-0.0060,0.7873,
2.745340,0.3406,-1.2505,0.4543,-0.7646,-3.5957,2.3631,-1.1213,0.1216,0.8374,
2.754120,0.3406,-1.2505,0.4543,-0.7646,-3.5957,2.3631,-0.8916,0.1259,0.6053,
2.763446,0.5424,-1.1205,-0.1280,-0.7646,-3.5957,2.3631,-0.8916,0.1259,0.6053,
2.764954,0.5424,-1.1205,-0.1280,1.3570,-2.2167,-3.1756,-0.8916,0.1259,0.6053,
2.767680,0.5424,-1.1205,-0.1280,1.3570,-2.2167,-3.1756,-0.7951,-0.6768,-0.2786,
2.783078,0.2500,-0.8655,-0.0377,1.3570,-2.2167,-3.1756,-0.7951,-0.6768,-0.2786,
2.784143,0.2500,-0.8655,-0.0377,-1.5337,0.3013,-2.1474,-0.7951,-0.6768,-0.2786,
2.785080,0.2500,-0.8655,-0.0377,-1.5337,0.3013,-2.1474,-0.8280,-1.0225,-0.5040,
2.794228,0.2500,-0.8655,-0.0377,-1.5337,0.3013,-2.1474,-0.7749,-0.9700,-0.3073,
2.803082,0.1008,-0.8481,0.1687,-1.5337,0.3013,-2.1474,-0.7749,-0.9700,-0.3073,
2.804232,0.1008,-0.8481,0.1687,-3.0893,0.4845,0.1768,-0.7749,-0.9700,-0.3073,
2.805010,0.1008,-0.8481,0.1687,-3.0893,0.4845,0.1768,-0.4493,-0.7843,-0.0978,
2.814172,0.1008,-0.8481,0.1687,-3.0893,0.4845,0.1768,-0.4548,-0.7336,0.0122,
2.823014,0.3844,-1.0183,-0.2257,-3.0893,0.4845,0.1768,-0.4548,-0.7336,0.0122,
2.824293,0.3844,-1.0183,-0.2257,-0.2957,-1.1487,-3.5115,-0.4548,-0.7336,0.0122,
2.825300,0.3844,-1.0183,-0.2257,-0.2957,-1.1487,-3.5115,-0.6124,-0.8093,0.0146,
2.834241,0.3844,-1.0183,-0.2257,-0.2957,-1.1487,-3.5115,-0.8189,-0.8539,-0.0288,
2.844603,0.4275,-0.9700,-0.1300,-0.2957,-1.1487,-3.5115,-0.8189,-0.8539,-0.0288,
2.845489,0.4275,-0.9700,-0.1300,0.1347,-0.6407,-2.3368,-0.8189,-0.8539,-0.0288,
2.846925,0.4275,-0.9700,-0.1300,0.1347,-0.6407,-2.3368,-0.9698,-0.7928,-0.0715,
2.854064,0.4275,-0.9700,-0.1300,0.1347,-0.6407,-2.3368,-1.0003,-0.6206,-0.0752,
2.863067,0.4503,-0.8495,0.1301,0.1347,-0.6407,-2.3368,-1.0003,-0.6206,-0.0752,
2.864122,0.4503,-0.8495,0.1301,0.3405,0.5588,0.4546,-1.0003,-0.6206,-0.0752,
2.865064,0.4503,-0.8495,0.1301,0.3405,0.5588,0.4546,-0.8714,-0.3609,-0.0392,
2.875796,0.4503,-0.8495,0.1301,0.3405,0.5588,0.4546,-0.5843,-0.1068,0.0183,
2.883037,0.4841,-0.8381,0.0366,0.3405,0.5588,0.4546,-0.5843,-0.1068,0.0183,
2.884104,0.4841,-0.8381,0.0366,0.6682,0.6813,-0.3067,-0.5843,-0.1068,0.0183,
2.884910,0.4841,-0.8381,0.0366,0.6682,0.6813,-0.3067,-0.2679,-0.0384,0.0696,
2.896227,0.4841,-0.8381,0.0366,0.6682,0.6813,-0.3067,-0.0755,-0.2278,0.0775,
2.903188,0.4900,-0.8994,-0.1964,0.6682,0.6813,-0.3067,-0.0755,-0.2278,0.0775,
2.904592,0.4900,-0.8994,-0.1964,0.7341,0.0887,-2.5282,-0.0755,-0.2278,0.0775,
2.905426,0.4900,-0.8994,-0.1964,0.7341,0.0887,-2.5282,-0.0718,-0.5436,0.0311,
2.914284,0.4900,-0.8994,-0.1964,0.7341,0.0887,-2.5282,-0.2172,-0.8014,-0.0428,
2.923141,0.4663,-0.9350,-0.2245,0.7341,0.0887,-2.5282,-0.2172,-0.8014,-0.0428,
2.924708,0.4663,-0.9350,-0.2245,0.4877,-0.2587,-2.6800,-0.2172,-0.8014,-0.0428,
2.927326,0.4663,-0.9350,-0.2245,0.4877,-0.2587,-2.6800,-0.4157,-0.9229,-0.1271,
2.934066,0.4663,-0.9350,-0.2245,0.4877,-0.2587,-2.6800,-0.5904,-0.9278,-0.2053,
2.943003,0.3972,-0.9129,-0.1553,0.4877,-0.2587,-2.6800,-0.5904,-0.9278,-0.2053,
2.944089,0.3972,-0.9129,-0.1553,-0.2268,-0.0508,-1.7944,-0.5904,-0.9278,-0.2053,
2.945215,0.3972,-0.9129,-0.1553,-0.2268,-0.0508,-1.7944,-0.7187,-0.8246,-0.2444,
2.954123,0.3972,-0.9129,-0.1553,-0.2268,-0.0508,-1.7944,-0.7627,-0.7213,-0.2224,
2.962997,0.3786,-0.8773,-0.0281,-0.2268,-0.0508,-1.7944,-0.7627,-0.7213,-0.2224,
2.964258,0.3786,-0.8773,-0.0281,-0.4522,0.2819,-0.3318,-0.7627,-0.7213,-0.2224,
2.965111,0.3786,-0.8773,-0.0281,-0.4522,0.2819,-0.3318,-0.7199,-0.6847,-0.1644,
2.974161,0.3786,-0.8773,-0.0281,-0.4522,0.2819,-0.3318,-0.6136,-0.7421,-0.1070,
2.982996,0.3899,-0.9048,0.0848,-0.4522,0.2819,-0.3318,-0.6136,-0.7421,-0.1070,
2.984026,0.3899,-0.9048,0.0848,-0.3627,0.0016,0.9545,-0.6136,-0.7421,-0.1070,
2.984802,0.3899,-0.9048,0.0848,-0.3627,0.0016,0.9545,-0.3308,-1.0811,-0.0349,
2.994232,0.3899,-0.9048,0.0848,-0.3627,0.0016,0.9545,-0.2221,-1.2546,0.0024,
3.003067,0.4062,-0.8888,-0.0159,-0.3627,0.0016,0.9545,-0.2221,-1.2546,0.0024,
3.004265,0.4062,-0.8888,-0.0159,-0.2006,0.1565,0.1153,-0.2221,-1.2546,0.0024,
3.005028,0.4062,-0.8888,-0.0159,-0.2006,0.1565,0.1153,-0.1604,-1.3432,0.0488,
3.014042,0.4062,-0.8888,-0.0159,-0.2006,0.1565,0.1153,-0.1286,-1.3481,0.0965,
3.023035,0.4476,-0.8495,-0.1509,-0.2006,0.1565,0.1153,-0.1286,-1.3481,0.0965,
3.024335,0.4476,-0.8495,-0.1509,0.2271,0.5469,-1.0677,-0.1286,-1.3481,0.0965,
3.025318,0.4476,-0.8495,-0.1509,0.2271,0.5469,-1.0677,-0.1341,-1.2271,0.1417,
3.034228,0.4476,-0.8495,-0.1509,0.2271,0.5469,-1.0677,-0.1842,-0.9602,0.1777,
3.043170,0.4593,-0.8040,-0.2005,0.2271,0.5469,-1.0677,-0.1842,-0.9602,0.1777,
3.044788,0.4593,-0.8040,-0.2005,0.3771,1.0018,-1.4268,-0.1842,-0.9602,0.1777,
3.045805,0.4593,-0.8040,-0.2005,0.3771,1.0018,-1.4268,-0.2544,-0.6358,0.2101,
3.054163,0.4593,-0.8040,-0.2005,0.3771,1.0018,-1.4268,-0.3192,-0.4013,0.2321,
3.063037,0.5254,-0.7969,-0.1524,0.3771,1.0018,-1.4268,-0.3192,-0.4013,0.2321,
3.063969,0.5254,-0.7969,-0.1524,1.0581,1.0797,-0.8513,-0.3192,-0.4013,0.2321,
3.064750,0.5254,-0.7969,-0.1524,1.0581,1.0797,-0.8513,-0.3858,-0.3432,0.2400,
3.074196,0.5254,-0.7969,-0.1524,1.0581,1.0797,-0.8513,-0.4646,-0.4898,0.2351,
3.084049,0.5900,-0.8592,-0.0321,1.0581,1.0797,-0.8513,-0.4646,-0.4898,0.2351,
3.086424,0.5900,-0.8592,-0.0321,1.7179,0.4723,0.4417,-0.4646,-0.4898,0.2351,
3.088308,0.5900,-0.8592,-0.0321,1.7179,0.4723,0.4417,-0.5409,-0.8008,0.2205,
3.094993,0.5900,-0.8592,-0.0321,1.7179,0.4723,0.4417,-0.5617,-1.1520,0.1966,
3.104057,0.5468,-0.9055,0.0402,1.7179,0.4723,0.4417,-0.5617,-1.1520,0.1966,
3.105930,0.5468,-0.9055,0.0402,1.3211,0.0152,1.3172,-0.5617,-1.1520,0.1966,
3.108118,0.5468,-0.9055,0.0402,1.3211,0.0152,1.3172,-0.5006,-1.3059,0.1649,
3.114821,0.5468,-0.9055,0.0402,1.3211,0.0152,1.3172,-0.3534,-1.1899,0.1429,
3.124394,0.5019,-0.9008,0.0580,1.3211,0.0152,1.3172,-0.3534,-1.1899,0.1429,
3.126848,0.5019,-0.9008,0.0580,0.9036,0.0551,1.6405,-0.3534,-1.1899,0.1429,
3.128950,0.5019,-0.9008,0.0580,0.9036,0.0551,1.6405,-0.1365,-0.9834,0.1441,
3.135761,0.5019,-0.9008,0.0580,0.9036,0.0551,1.6405,0.1109,-0.8954,0.1514,
3.144862,0.5192,-0.8381,0.0454,0.9036,0.0551,1.6405,0.1109,-0.8954,0.1514,
3.147152,0.5192,-0.8381,0.0454,1.0806,0.6683,1.5550,0.1109,-0.8954,0.1514,
3.149443,0.5192,-0.8381,0.0454,1.0806,0.6683,1.5550,0.3466,-0.9859,0.1459,
3.154896,0.5192,-0.8381,0.0454,1.0806,0.6683,1.5550,0.5550,-1.2155,0.1191,
3.164555,0.5476,-0.8236,0.0083,1.0806,0.6683,1.5550,0.5550,-1.2155,0.1191,
3.167186,0.5476,-0.8236,0.0083,1.3605,0.8155,1.1559,0.5550,-1.2155,0.1191,
3.169282,0.5476,-0.8236,0.0083,1.3605,0.8155,1.1559,0.8812,-1.6169,0.0250,
3.175174,0.5476,-0.8236,0.0083,1.3605,0.8155,1.1559,1.0052,-1.6743,-0.0221,
3.184671,0.5717,-0.7966,-0.0335,1.3605,0.8155,1.1559,1.0052,-1.6743,-0.0221,
3.187102,0.5717,-0.7966,-0.0335,1.5769,1.0798,0.6731,1.0052,-1.6743,-0.0221,
3.189045,0.5717,-0.7966,-0.0335,1.5769,1.0798,0.6731,1.1060,-1.6389,-0.0569,
3.195269,0.5717,-0.7966,-0.0335,1.5769,1.0798,0.6731,1.1866,-1.5271,-0.0795,
3.203833,0.5689,-0.6601,-0.0161,1.5769,1.0798,0.6731,1.1866,-1.5271,-0.0795,
3.205603,0.5689,-0.6601,-0.0161,1.5023,2.4071,0.7348,1.1866,-1.5271,-0.0795,
3.207320,0.5689,-0.6601,-0.0161,1.5023,2.4071,0.7348,1.2532,-1.3823,-0.1002,
3.214818,0.5689,-0.6601,-0.0161,1.5023,2.4071,0.7348,1.3106,-1.2552,-0.1393,
3.223789,0.6772,-0.6102,0.0459,1.5023,2.4071,0.7348,1.3106,-1.2552,-0.1393,
3.225789,0.6772,-0.6102,0.0459,2.4803,2.8718,1.1909,1.3106,-1.2552,-0.1393,
3.227683,0.6772,-0.6102,0.0459,2.4803,2.8718,1.1909,1.3625,-1.1874,-0.2236,
3.235010,0.6772,-0.6102,0.0459,2.4803,2.8718,1.1909,1.4303,-1.2168,-0.3739,
3.245007,0.7556,-0.7553,0.2998,2.4803,2.8718,1.1909,1.4303,-1.2168,-0.3739,
3.247075,0.7556,-0.7553,0.2998,3.1195,1.4026,3.4738,1.4303,-1.2168,-0.3739,
3.249059,0.7556,-0.7553,0.2998,3.1195,1.4026,3.4738,1.5733,-1.3499,-0.5749,
3.254837,0.7556,-0.7553,0.2998,3.1195,1.4026,3.4738,1.8469,-1.4037,-0.7526,
3.264165,0.5006,-1.0208,0.3483,3.1195,1.4026,3.4738,1.8469,-1.4037,-0.7526,
3.266770,0.5006,-1.0208,0.3483,0.4585,-1.2684,3.6935,1.8469,-1.4037,-0.7526,
3.268919,0.5006,-1.0208,0.3483,0.4585,-1.2684,3.6935,2.1841,-1.2546,-0.8314,
3.275077,0.5006,-1.0208,0.3483,0.4585,-1.2684,3.6935,2.4780,-1.0091,-0.8235,
3.285309,0.2838,-1.1732,0.2242,0.4585,-1.2684,3.6935,2.4780,-1.0091,-0.8235,
3.287459,0.2838,-1.1732,0.2242,-1.8134,-2.8335,2.1129,2.4780,-1.0091,-0.8235,
3.289407,0.2838,-1.1732,0.2242,-1.8134,-2.8335,2.1129,2.6887,-0.8307,-0.7911,
3.295487,0.2838,-1.1732,0.2242,-1.8134,-2.8335,2.1129,2.8011,-0.8240,-0.7557,
3.303869,0.1429,-1.2122,0.0066,-1.8134,-2.8335,2.1129,2.8011,-0.8240,-0.7557,
3.305750,0.1429,-1.2122,0.0066,-3.2994,-3.2877,-0.4367,2.8011,-0.8240,-0.7557,
3.307976,0.1429,-1.2122,0.0066,-3.2994,-3.2877,-0.4367,2.7846,-0.9871,-0.7245,
3.315160,0.1429,-1.2122,0.0066,-3.2994,-3.2877,-0.4367,2.6203,-1.2229,-0.6946,
3.324243,0.1324,-1.2296,-0.2325,-3.2994,-3.2877,-0.4367,2.6203,-1.2229,-0.6946,
3.326573,0.1324,-1.2296,-0.2325,-3.4673,-3.5196,-3.1135,2.6203,-1.2229,-0.6946,
3.328821,0.1324,-1.2296,-0.2325,-3.4673,-3.5196,-3.1135,2.3362,-1.4116,-0.6574,
3.335097,0.1324,-1.2296,-0.2325,-3.4673,-3.5196,-3.1135,1.9911,-1.5289,-0.5975,
3.346376,0.2806,-1.2581,-0.3461,-3.4673,-3.5196,-3.1135,1.9911,-1.5289,-0.5975,
3.348878,0.2806,-1.2581,-0.3461,-2.0685,-3.8456,-4.3850,1.9911,-1.5289,-0.5975,
3.353275,0.2806,-1.2581,-0.3461,-2.0685,-3.8456,-4.3850,1.6081,-1.5106,-0.5254,
3.355880,0.2806,-1.2581,-0.3461,-2.0685,-3.8456,-4.3850,0.8140,-0.7788,-0.4674,
3.364789,0.5031,-1.2574,-0.2651,-2.0685,-3.8456,-4.3850,0.8140,-0.7788,-0.4674,
3.367474,0.5031,-1.2574,-0.2651,0.0751,-3.8622,-3.6017,0.8140,-0.7788,-0.4674,
3.369278,0.5031,-1.2574,-0.2651,0.0751,-3.8622,-3.6017,0.5000,-0.2015,-0.4888,
3.375080,0.5031,-1.2574,-0.2651,0.0751,-3.8622,-3.6017,0.2923,0.3544,-0.5089,
3.383795,0.5356,-1.1377,-0.0737,0.0751,-3.8622,-3.6017,0.2923,0.3544,-0.5089,
3.385873,0.5356,-1.1377,-0.0737,0.3693,-2.7026,-1.7225,0.2923,0.3544,-0.5089,
3.387459,0.5356,-1.1377,-0.0737,0.3693,-2.7026,-1.7225,0.1719,0.8040,-0.4839,
3.396297,0.5356,-1.1377,-0.0737,0.3693,-2.7026,-1.7225,0.0779,1.1204,-0.3959,
3.403875,0.4797,-1.0046,-0.0246,0.3693,-2.7026,-1.7225,0.0779,1.1204,-0.3959,
3.405460,0.4797,-1.0046,-0.0246,-0.1826,-1.4051,-1.2843,0.0779,1.1204,-0.3959,
3.407087,0.4797,-1.0046,-0.0246,-0.1826,-1.4051,-1.2843,-0.0174,1.3122,-0.2988,
3.414816,0.4797,-1.0046,-0.0246,-0.1826,-1.4051,-1.2843,-0.0981,1.3800,-0.2713,
3.424178,0.3919,-0.9357,0.0469,-0.1826,-1.4051,-1.2843,-0.0981,1.3800,-0.2713,
3.426385,0.3919,-0.9357,0.0469,-1.0143,-0.7206,-0.6423,-0.0981,1.3800,-0.2713,
3.428156,0.3919,-0.9357,0.0469,-1.0143,-0.7206,-0.6423,-0.1634,1.3177,-0.3128,
3.435266,0.3919,-0.9357,0.0469,-1.0143,-0.7206,-0.6423,-0.2691,1.1418,-0.3806,
3.444577,0.2494,-0.9268,-0.0655,-1.0143,-0.7206,-0.6423,-0.2691,1.1418,-0.3806,
3.447187,0.2494,-0.9268,-0.0655,-2.3846,-0.6209,-1.7609,-0.2691,1.1418,-0.3806,
3.449124,0.2494,-0.9268,-0.0655,-2.3846,-0.6209,-1.7609,-0.4542,0.8999,-0.4313,
3.454848,0.2494,-0.9268,-0.0655,-2.3846,-0.6209,-1.7609,-0.7083,0.6598,-0.4381,
3.463972,0.1620,-0.9308,-0.1609,-2.3846,-0.6209,-1.7609,-0.7083,0.6598,-0.4381,
3.466493,0.1620,-0.9308,-0.1609,-3.2274,-0.6400,-2.5992,-0.7083,0.6598,-0.4381,
3.468095,0.1620,-0.9308,-0.1609,-3.2274,-0.6400,-2.5992,-0.9728,0.4900,-0.4087,
3.475127,0.1620,-0.9308,-0.1609,-3.2274,-0.6400,-2.5992,-1.2068,0.4424,-0.3647,
3.483866,0.1491,-0.9659,-0.1395,-3.2274,-0.6400,-2.5992,-1.2068,0.4424,-0.3647,
3.486292,0.1491,-0.9659,-0.1395,-3.3259,-0.9454,-2.1779,-1.2068,0.4424,-0.3647,
3.487908,0.1491,-0.9659,-0.1395,-3.3259,-0.9454,-2.1779,-1.3870,0.5053,-0.3232,
3.495163,0.1491,-0.9659,-0.1395,-3.3259,-0.9454,-2.1779,-1.4945,0.6427,-0.2951,
3.504333,0.1881,-1.0734,0.0391,-3.3259,-0.9454,-2.1779,-1.4945,0.6427,-0.2951,
3.506260,0.1881,-1.0734,0.0391,-2.8956,-1.9526,-0.1907,-1.4945,0.6427,-0.2951,
3.508477,0.1881,-1.0734,0.0391,-2.8956,-1.9526,-0.1907,-1.5006,0.8351,-0.2829,
3.515208,0.1881,-1.0734,0.0391,-2.8956,-1.9526,-0.1907,-1.3607,1.0337,-0.2750,
3.524125,0.1823,-1.0620,0.2588,-2.8956,-1.9526,-0.1907,-1.3607,1.0337,-0.2750,
3.526563,0.1823,-1.0620,0.2588,-2.8930,-1.7990,2.1254,-1.3607,1.0337,-0.2750,
3.528672,0.1823,-1.0620,0.2588,-2.8930,-1.7990,2.1254,-1.0663,1.1986,-0.2456,
3.534908,0.1823,-1.0620,0.2588,-2.8930,-1.7990,2.1254,-0.4145,1.1650,-0.0807,
3.544941,0.0630,-0.9265,0.0375,-2.8930,-1.7990,2.1254,-0.4145,1.1650,-0.0807,
3.547375,0.0630,-0.9265,0.0375,-3.9711,-0.4220,-0.0236,-0.4145,1.1650,-0.0807,
3.549307,0.0630,-0.9265,0.0375,-3.9711,-0.4220,-0.0236,-0.2978,0.8858,0.0476,
3.554678,0.0630,-0.9265,0.0375,-3.9711,-0.4220,-0.0236,-0.3149,0.4778,0.1771,
3.564496,-0.0347,-0.8923,-0.1781,-3.9711,-0.4220,-0.0236,-0.3149,0.4778,0.1771,
3.567304,-0.0347,-0.8923,-0.1781,-4.7809,-0.0094,-2.1202,-0.3149,0.4778,0.1771,
3.569263,-0.0347,-0.8923,-0.1781,-4.7809,-0.0094,-2.1202,-0.3943,0.0215,0.2889,
3.575239,-0.0347,-0.8923,-0.1781,-4.7809,-0.0094,-2.1202,-0.4805,-0.3964,0.3756,
3.584477,-0.0054,-0.8791,-0.1990,-4.7809,-0.0094,-2.1202,-0.4805,-0.3964,0.3756,
3.587065,-0.0054,-0.8791,-0.1990,-4.3078,0.2166,-2.1900,-0.4805,-0.3964,0.3756,
3.588837,-0.0054,-0.8791,-0.1990,-4.3078,0.2166,-2.1900,-0.5293,-0.7262,0.4294,
3.595680,-0.0054,-0.8791,-0.1990,-4.3078,0.2166,-2.1900,-0.5080,-0.9217,0.4282,
3.604461,0.1384,-0.8485,-0.1346,-4.3078,0.2166,-2.1900,-0.5080,-0.9217,0.4282,
3.606681,0.1384,-0.8485,-0.1346,-2.7092,0.6091,-1.3558,-0.5080,-0.9217,0.4282,
3.608832,0.1384,-0.8485,-0.1346,-2.7092,0.6091,-1.3558,-0.4102,-0.9016,0.3640,
3.615392,0.1384,-0.8485,-0.1346,-2.7092,0.6091,-1.3558,-0.2734,-0.6163,0.2498,
3.624518,0.2536,-0.8496,-0.1357,-2.7092,0.6091,-1.3558,-0.2734,-0.6163,0.2498,
3.627089,0.2536,-0.8496,-0.1357,-1.4312,0.6639,-1.2027,-0.2734,-0.6163,0.2498,
3.629467,0.2536,-0.8496,-0.1357,-1.4312,0.6639,-1.2027,-0.1537,-0.1429,0.1368,
3.635290,0.2536,-0.8496,-0.1357,-1.4312,0.6639,-1.2027,-0.0926,0.3379,0.0610,
3.646303,0.3451,-0.8265,-0.1823,-1.4312,0.6639,-1.2027,-0.0926,0.3379,0.0610,
3.649532,0.3451,-0.8265,-0.1823,-0.4498,0.9255,-1.5954,-0.0926,0.3379,0.0610,
3.651990,0.3451,-0.8265,-0.1823,-0.4498,0.9255,-1.5954,-0.1036,0.7203,0.0048,
3.655107,0.3451,-0.8265,-0.1823,-0.4498,0.9255,-1.5954,-0.1824,0.9701,-0.0477,
3.663786,0.4766,-0.9161,-0.1466,-0.4498,0.9255,-1.5954,-0.1824,0.9701,-0.0477,
3.666748,0.4766,-0.9161,-0.1466,0.8678,0.0587,-1.2392,-0.1824,0.9701,-0.0477,
3.668765,0.4766,-0.9161,-0.1466,0.8678,0.0587,-1.2392,-0.2978,1.0923,-0.1039,
3.675150,0.4766,-0.9161,-0.1466,0.8678,0.0587,-1.2392,-0.3980,1.1247,-0.1680,
3.684242,0.6594,-1.1449,0.0077,0.8678,0.0587,-1.2392,-0.3980,1.1247,-0.1680,
3.686158,0.6594,-1.1449,0.0077,2.6345,-2.1935,0.2648,-0.3980,1.1247,-0.1680,
3.687451,0.6594,-1.1449,0.0077,2.6345,-2.1935,0.2648,-0.4408,1.0648,-0.2242,
3.697387,0.6594,-1.1449,0.0077,2.6345,-2.1935,0.2648,-0.3882,0.8364,-0.2517,
3.703798,0.8193,-1.1027,0.5906,2.6345,-2.1935,0.2648,-0.3882,0.8364,-0.2517,
3.705298,0.8193,-1.1027,0.5906,4.1397,-1.8052,5.9499,-0.3882,0.8364,-0.2517,
3.706515,0.8193,-1.1027,0.5906,4.1397,-1.8052,5.9499,-0.1256,0.3208,-0.2450,
3.714729,0.8193,-1.1027,0.5906,4.1397,-1.8052,5.9499,0.2984,-0.3328,0.1154,
3.723434,0.4959,-0.8816,0.0319,4.1397,-1.8052,5.9499,0.2984,-0.3328,0.1154,
3.725094,0.4959,-0.8816,0.0319,0.9432,0.3501,0.4369,0.2984,-0.3328,0.1154,
3.726616,0.4959,-0.8816,0.0319,0.9432,0.3501,0.4369,0.4261,-0.4367,0.3066,
3.734479,0.4959,-0.8816,0.0319,0.9432,0.3501,0.4369,0.1866,-0.0928,0.3365,
3.745212,0.5547,-0.7627,-0.1273,0.9432,0.3501,0.4369,0.1866,-0.0928,0.3365,
3.747367,0.5547,-0.7627,-0.1273,1.5503,1.5289,-1.1653,0.1866,-0.0928,0.3365,
3.749237,0.5547,-0.7627,-0.1273,1.5503,1.5289,-1.1653,-0.0376,0.2444,0.2846,
3.754993,0.5547,-0.7627,-0.1273,1.5503,1.5289,-1.1653,-0.1927,0.5431,0.2278,
3.764393,0.6240,-0.7471,0.0090,1.5503,1.5289,-1.1653,-0.1927,0.5431,0.2278,
3.766169,0.6240,-0.7471,0.0090,2.2215,1.6790,0.1520,-0.1927,0.5431,0.2278,
3.767514,0.6240,-0.7471,0.0090,2.2215,1.6790,0.1520,-0.2697,0.7441,0.1899,
3.774553,0.6240,-0.7471,0.0090,2.2215,1.6790,0.1520,-0.2581,0.7252,0.1520,
3.783415,0.7357,-0.7661,0.2853,2.2215,1.6790,0.1520,-0.2581,0.7252,0.1520,
3.785631,0.7357,-0.7661,0.2853,3.2702,1.4722,2.8135,-0.2581,0.7252,0.1520,
3.787066,0.7357,-0.7661,0.2853,3.2702,1.4722,2.8135,-0.1353,0.4014,0.0952,
3.795473,0.7357,-0.7661,0.2853,3.2702,1.4722,2.8135,0.0547,-0.0799,0.0458,
3.803526,0.6095,-0.8029,0.1746,3.2702,1.4722,2.8135,0.0547,-0.0799,0.0458,
3.805048,0.6095,-0.8029,0.1746,1.9698,1.0835,1.6781,0.0547,-0.0799,0.0458,
3.806339,0.6095,-0.8029,0.1746,1.9698,1.0835,1.6781,0.1976,-0.3848,0.0348,
3.814413,0.6095,-0.8029,0.1746,1.9698,1.0835,1.6781,0.2275,-0.3689,0.0201,
3.823594,0.4945,-0.8012,0.0483,1.9698,1.0835,1.6781,0.2275,-0.3689,0.0201,
3.824898,0.4945,-0.8012,0.0483,0.7800,1.0720,0.3963,0.2275,-0.3689,0.0201,
3.827016,0.4945,-0.8012,0.0483,0.7800,1.0720,0.3963,0.1787,-0.2125,-0.0111,
3.834089,0.4945,-0.8012,0.0483,0.7800,1.0720,0.3963,0.1225,-0.1545,-0.0153,
3.843211,0.4317,-0.8240,0.0832,0.7800,1.0720,0.3963,0.1225,-0.1545,-0.0153,
3.844771,0.4317,-0.8240,0.0832,0.1111,0.8230,0.6940,0.1225,-0.1545,-0.0153,
3.846157,0.4317,-0.8240,0.0832,0.1111,0.8230,0.6940,0.1017,-0.2394,0.0213,
3.854228,0.4317,-0.8240,0.0832,0.1111,0.8230,0.6940,0.1365,-0.3695,0.0714,
3.863155,0.4808,-0.8353,0.1375,0.1111,0.8230,0.6940,0.1365,-0.3695,0.0714,
3.864536,0.4808,-0.8353,0.1375,0.5581,0.6965,1.1961,0.1365,-0.3695,0.0714,
3.865224,0.4808,-0.8353,0.1375,0.5581,0.6965,1.1961,0.2196,-0.4575,0.1087,
3.874178,0.4808,-0.8353,0.1375,0.5581,0.6965,1.1961,0.3100,-0.4678,0.1423,
3.883122,0.5722,-0.8111,0.0591,0.5581,0.6965,1.1961,0.3100,-0.4678,0.1423,
3.884711,0.5722,-0.8111,0.0591,1.4285,0.9210,0.3905,0.3100,-0.4678,0.1423,
3.885849,0.5722,-0.8111,0.0591,1.4285,0.9210,0.3905,0.3631,-0.4141,0.1795,
3.895756,0.5722,-0.8111,0.0591,1.4285,0.9210,0.3905,0.3521,-0.3206,0.2046,
3.903885,0.6656,-0.7621,-0.0481,1.4285,0.9210,0.3905,0.3521,-0.3206,0.2046,
3.905736,0.6656,-0.7621,-0.0481,2.3138,1.3855,-0.7063,0.3521,-0.3206,0.2046,
3.907454,0.6656,-0.7621,-0.0481,2.3138,1.3855,-0.7063,0.1328,0.0587,0.1838,
3.914793,0.6656,-0.7621,-0.0481,2.3138,1.3855,-0.7063,-0.0186,0.2652,0.1728,
3.923766,0.6731,-0.7395,-0.0050,2.3138,1.3855,-0.7063,-0.0186,0.2652,0.1728,
3.925424,0.6731,-0.7395,-0.0050,2.3452,1.5863,-0.3122,-0.0186,0.2652,0.1728,
3.927405,0.6731,-0.7395,-0.0050,2.3452,1.5863,-0.3122,-0.1598,0.3617,0.1850,
3.936044,0.6731,-0.7395,-0.0050,2.3452,1.5863,-0.3122,-0.2612,0.3422,0.2064,
3.946938,0.6180,-0.7519,0.0633,2.3452,1.5863,-0.3122,-0.2612,0.3422,0.2064,
3.951398,0.6180,-0.7519,0.0633,1.7658,1.4463,0.3565,-0.2612,0.3422,0.2064,
3.952595,0.6180,-0.7519,0.0633,1.7658,1.4463,0.3565,-0.3064,0.3440,0.2107,
3.954378,0.6180,-0.7519,0.0633,1.7658,1.4463,0.3565,-0.3106,0.4369,0.1795,
3.963869,0.5228,-0.8214,0.0674,1.7658,1.4463,0.3565,-0.3106,0.4369,0.1795,
3.965407,0.5228,-0.8214,0.0674,0.8044,0.7513,0.4075,-0.3106,0.4369,0.1795,
3.966531,0.5228,-0.8214,0.0674,0.8044,0.7513,0.4075,-0.2868,0.5248,0.1417,
3.974235,0.5228,-0.8214,0.0674,0.8044,0.7513,0.4075,-0.2343,0.5279,0.1093,
3.983140,0.4044,-0.8849,0.0589,0.8044,0.7513,0.4075,-0.2343,0.5279,0.1093,
3.984599,0.4044,-0.8849,0.0589,-0.3644,0.1243,0.3156,-0.2343,0.5279,0.1093,
3.985517,0.4044,-0.8849,0.0589,-0.3644,0.1243,0.3156,-0.1591,0.4576,0.0800,
3.994497,0.4044,-0.8849,0.0589,-0.3644,0.1243,0.3156,-0.0797,0.3403,0.0580,
4.003141,0.2775,-0.9154,0.0099,-0.3644,0.1243,0.3156,-0.0797,0.3403,0.0580,
4.004278,0.2775,-0.9154,0.0099,-1.5996,-0.1713,-0.1800,-0.0797,0.3403,0.0580,
4.005241,0.2775,-0.9154,0.0099,-1.5996,-0.1713,-0.1800,-0.0052,0.1846,0.0415,
4.014312,0.2775,-0.9154,0.0099,-1.5996,-0.1713,-0.1800,0.0547,0.0190,0.0323,
4.023215,0.1882,-0.9712,0.0410,-1.5996,-0.1713,-0.1800,0.0547,0.0190,0.0323,
4.024312,0.1882,-0.9712,0.0410,-2.4632,-0.7132,0.1104,0.0547,0.0190,0.0323,
4.025615,0.1882,-0.9712,0.0410,-2.4632,-0.7132,0.1104,0.1145,-0.1032,0.0305,
4.034847,0.1882,-0.9712,0.0410,-2.4632,-0.7132,0.1104,0.2007,-0.1300,0.0299,
4.046299,0.2563,-1.0211,0.0767,-2.4632,-0.7132,0.1104,0.2007,-0.1300,0.0299,
4.048964,0.2563,-1.0211,0.0767,-1.7743,-1.1916,0.4378,0.2007,-0.1300,0.0299,
4.051475,0.2563,-1.0211,0.0767,-1.7743,-1.1916,0.4378,0.3027,-0.0421,-0.0043,
4.054918,0.2563,-1.0211,0.0767,-1.7743,-1.1916,0.4378,0.3717,0.1363,-0.0703,
4.063839,0.3348,-1.0293,0.0646,-1.7743,-1.1916,0.4378,0.3717,0.1363,-0.0703,
4.066387,0.3348,-1.0293,0.0646,-0.9879,-1.2664,0.2518,0.3717,0.1363,-0.0703,
4.068765,0.3348,-1.0293,0.0646,-0.9879,-1.2664,0.2518,0.4077,0.4595,-0.0831,
4.075063,0.3348,-1.0293,0.0646,-0.9879,-1.2664,0.2518,0.4077,0.4595,-0.0831,
4.084319,0.4323,-0.9343,0.1289,-0.9879,-1.2664,0.2518,0.4077,0.4595,-0.0831,
4.086764,0.4323,-0.9343,0.1289,-0.0287,-0.3401,0.7655,0.4077,0.4595,-0.0831,
4.088783,0.4323,-0.9343,0.1289,-0.0287,-0.3401,0.7655,0.4462,0.5285,-0.0624,
4.095898,0.4323,-0.9343,0.1289,-0.0287,-0.3401,0.7655,0.6331,0.6720,-0.1296,
4.104131,0.4594,-0.8204,0.1109,-0.0287,-0.3401,0.7655,0.6331,0.6720,-0.1296,
4.106299,0.4594,-0.8204,0.1109,0.2322,0.7648,0.4407,0.6331,0.6720,-0.1296,
4.108802,0.4594,-0.8204,0.1109,0.2322,0.7648,0.4407,0.7174,0.7655,-0.1992,
4.114858,0.4594,-0.8204,0.1109,0.2322,0.7648,0.4407,0.8115,0.8791,-0.2737,
4.124009,0.3290,-0.7845,0.1783,0.2322,0.7648,0.4407,0.8115,0.8791,-0.2737,
4.126655,0.3290,-0.7845,0.1783,-1.0686,1.0880,0.8923,0.8115,0.8791,-0.2737,
4.129276,0.3290,-0.7845,0.1783,-1.0686,1.0880,0.8923,0.9154,1.0221,-0.3299,
4.134883,0.3290,-0.7845,0.1783,-1.0686,1.0880,0.8923,1.0009,1.1858,-0.3354,
4.145945,0.2453,-0.8997,0.1047,-1.0686,1.0880,0.8923,1.0009,1.1858,-0.3354,
4.148824,0.2453,-0.8997,0.1047,-1.9067,-0.0794,-0.0926,1.0009,1.1858,-0.3354,
4.150926,0.2453,-0.8997,0.1047,-1.9067,-0.0794,-0.0926,1.0449,1.2689,-0.2701,
4.154939,0.2453,-0.8997,0.1047,-1.9067,-0.0794,-0.0926,0.9929,1.1442,-0.1668,
4.164199,0.3727,-1.1034,-0.1200,-1.9067,-0.0794,-0.0926,0.9929,1.1442,-0.1668,
4.166946,0.3727,-1.1034,-0.1200,-0.6367,-2.1013,-2.5445,0.9929,1.1442,-0.1668,
4.169176,0.3727,-1.1034,-0.1200,-0.6367,-2.1013,-2.5445,0.8115,0.8076,-0.0776,
4.174973,0.3727,-1.1034,-0.1200,-0.6367,-2.1013,-2.5445,0.5501,0.3629,-0.0355,
4.184426,0.5007,-1.2270,-0.1041,-0.6367,-2.1013,-2.5445,0.5501,0.3629,-0.0355,
4.187099,0.5007,-1.2270,-0.1041,0.6535,-3.3133,-2.4992,0.5501,0.3629,-0.0355,
4.188906,0.5007,-1.2270,-0.1041,0.6535,-3.3133,-2.4992,0.2813,-0.0683,-0.0318,
4.196109,0.5007,-1.2270,-0.1041,0.6535,-3.3133,-2.4992,0.0614,-0.3579,-0.0276,
4.204383,0.5112,-1.0296,0.0881,0.6535,-3.3133,-2.4992,0.0614,-0.3579,-0.0276,
4.206430,0.5112,-1.0296,0.0881,0.7607,-1.3718,-0.5867,0.0614,-0.3579,-0.0276,
4.208340,0.5112,-1.0296,0.0881,0.7607,-1.3718,-0.5867,-0.0687,-0.4367,-0.0025,
4.215103,0.5112,-1.0296,0.0881,0.7607,-1.3718,-0.5867,-0.0968,-0.3304,0.0299,
4.224384,0.4849,-0.8617,0.2497,0.7607,-1.3718,-0.5867,-0.0968,-0.3304,0.0299,
4.226693,0.4849,-0.8617,0.2497,0.4990,0.2816,1.0551,-0.0968,-0.3304,0.0299,
4.228990,0.4849,-0.8617,0.2497,0.4990,0.2816,1.0551,-0.0406,-0.1343,0.0561,
4.235116,0.4849,-0.8617,0.2497,0.4990,0.2816,1.0551,0.0583,0.0606,0.0671,
4.246756,0.4746,-0.7576,0.3235,0.4990,0.2816,1.0551,0.0583,0.0606,0.0671,
4.249541,0.4746,-0.7576,0.3235,0.4069,1.3063,1.7793,0.0583,0.0606,0.0671,
4.251898,0.4746,-0.7576,0.3235,0.4069,1.3063,1.7793,0.1579,0.2059,0.0629,
4.255057,0.4746,-0.7576,0.3235,0.4069,1.3063,1.7793,0.2336,0.2695,0.0451,
4.264152,0.4784,-0.7075,0.3167,0.4069,1.3063,1.7793,0.2336,0.2695,0.0451,
4.267207,0.4784,-0.7075,0.3167,0.4551,1.7923,1.6504,0.2336,0.2695,0.0451,
4.269233,0.4784,-0.7075,0.3167,0.4551,1.7923,1.6504,0.2367,0.0667,-0.0049,
4.274793,0.4784,-0.7075,0.3167,0.4551,1.7923,1.6504,0.1200,-0.2033,-0.0166,
4.284708,0.4218,-0.6998,0.1509,0.4551,1.7923,1.6504,0.1200,-0.2033,-0.0166,
4.287295,0.4218,-0.6998,0.1509,-0.1099,1.8568,-0.0092,0.1200,-0.2033,-0.0166,
4.289225,0.4218,-0.6998,0.1509,-0.1099,1.8568,-0.0092,-0.0706,-0.5491,-0.0166,
4.296018,0.4218,-0.6998,0.1509,-0.1099,1.8568,-0.0092,-0.2978,-0.9144,-0.0068,
4.303991,0.2442,-0.7332,-0.0132,-0.1099,1.8568,-0.0092,-0.2978,-0.9144,-0.0068,
4.306016,0.2442,-0.7332,-0.0132,-1.8739,1.5341,-1.5223,-0.2978,-0.9144,-0.0068,
4.307930,0.2442,-0.7332,-0.0132,-1.8739,1.5341,-1.5223,-0.5104,-1.2192,0.0219,
4.315167,0.2442,-0.7332,-0.0132,-1.8739,1.5341,-1.5223,-0.6759,-1.4092,0.0775,
4.324070,0.1608,-0.7793,0.0254,-1.8739,1.5341,-1.5223,-0.6759,-1.4092,0.0775,
4.326758,0.1608,-0.7793,0.0254,-2.7075,1.1056,-0.9281,-0.6759,-1.4092,0.0775,
4.329304,0.1608,-0.7793,0.0254,-2.7075,1.1056,-0.9281,-0.7804,-1.4752,0.1630,
4.334873,0.1608,-0.7793,0.0254,-2.7075,1.1056,-0.9281,-0.8238,-1.4397,0.2681,
4.346453,0.1058,-0.8297,0.0336,-2.7075,1.1056,-0.9281,-0.8238,-1.4397,0.2681,
4.349182,0.1058,-0.8297,0.0336,-3.2035,0.6646,-0.5845,-0.8238,-1.4397,0.2681,
4.352654,0.1058,-0.8297,0.0336,-3.2035,0.6646,-0.5845,-0.8250,-1.3438,0.3836,
4.355106,0.1058,-0.8297,0.0336,-3.2035,0.6646,-0.5845,-0.8091,-1.2009,0.4978,
4.364073,0.1075,-0.8948,-0.0081,-3.2035,0.6646,-0.5845,-0.8091,-1.2009,0.4978,
4.367148,0.1075,-0.8948,-0.0081,-3.0665,0.1058,-0.7417,-0.8091,-1.2009,0.4978,
4.369263,0.1075,-0.8948,-0.0081,-3.0665,0.1058,-0.7417,-0.7926,-1.0140,0.5986,
4.374850,0.1075,-0.8948,-0.0081,-3.0665,0.1058,-0.7417,-0.7987,-0.8252,0.6713,
4.383860,0.1637,-0.9589,-0.0955,-3.0665,0.1058,-0.7417,-0.7987,-0.8252,0.6713,
4.386491,0.1637,-0.9589,-0.0955,-2.3465,-0.4321,-1.3718,-0.7987,-0.8252,0.6713,
4.387955,0.1637,-0.9589,-0.0955,-2.3465,-0.4321,-1.3718,-0.8311,-0.6548,0.7049,
4.395876,0.1637,-0.9589,-0.0955,-2.3465,-0.4321,-1.3718,-0.9026,-0.5253,0.7012,
4.403543,0.2281,-1.0074,-0.1945,-2.3465,-0.4321,-1.3718,-0.9026,-0.5253,0.7012,
4.405117,0.2281,-1.0074,-0.1945,-1.5322,-0.8206,-2.1126,-0.9026,-0.5253,0.7012,
4.406344,0.2281,-1.0074,-0.1945,-1.5322,-0.8206,-2.1126,-1.0101,-0.4562,0.6731,
4.414541,0.2281,-1.0074,-0.1945,-1.5322,-0.8206,-2.1126,-1.1353,-0.4434,0.6371,
4.423419,0.2825,-0.9951,-0.1837,-1.5322,-0.8206,-2.1126,-1.1353,-0.4434,0.6371,
4.424926,0.2825,-0.9951,-0.1837,-0.8348,-0.6312,-1.7497,-1.1353,-0.4434,0.6371,
4.426637,0.2825,-0.9951,-0.1837,-0.8348,-0.6312,-1.7497,-1.2422,-0.4678,0.6053,
4.434454,0.2825,-0.9951,-0.1837,-0.8348,-0.6312,-1.7497,-1.3027,-0.5069,0.5833,
4.445875,0.3411,-0.9370,-0.0921,-0.8348,-0.6312,-1.7497,-1.3027,-0.5069,0.5833,
4.447206,0.3411,-0.9370,-0.0921,-0.1297,-0.0175,-0.5713,-1.3027,-0.5069,0.5833,
4.448373,0.3411,-0.9370,-0.0921,-0.1297,-0.0175,-0.5713,-1.2996,-0.5381,0.5723,
4.454168,0.3411,-0.9370,-0.0921,-0.1297,-0.0175,-0.5713,-1.2330,-0.5387,0.5662,
4.463594,0.3893,-0.8951,-0.0089,-0.1297,-0.0175,-0.5713,-1.2330,-0.5387,0.5662,
4.465102,0.3893,-0.8951,-0.0089,0.4570,0.4218,0.5136,-1.2330,-0.5387,0.5662,
4.465798,0.3893,-0.8951,-0.0089,0.4570,0.4218,0.5136,-0.9728,-0.3921,0.5583,
4.474123,0.3893,-0.8951,-0.0089,0.4570,0.4218,0.5136,-0.8134,-0.2968,0.5619,
4.483023,0.3569,-0.9215,-0.0035,0.4570,0.4218,0.5136,-0.8134,-0.2968,0.5619,
4.484425,0.3569,-0.9215,-0.0035,0.2487,0.1884,0.7500,-0.8134,-0.2968,0.5619,
4.485260,0.3569,-0.9215,-0.0035,0.2487,0.1884,0.7500,-0.6649,-0.2760,0.5760,
4.494278,0.3569,-0.9215,-0.0035,0.2487,0.1884,0.7500,-0.5697,-0.4061,0.5790,
4.503084,0.3514,-0.9152,-0.1559,0.2487,0.1884,0.7500,-0.5697,-0.4061,0.5790,
4.504154,0.3514,-0.9152,-0.1559,0.3067,0.2770,-0.6079,-0.5697,-0.4061,0.5790,
4.504977,0.3514,-0.9152,-0.1559,0.3067,0.2770,-0.6079,-0.5837,-0.6413,0.5491,
4.514116,0.3514,-0.9152,-0.1559,0.3067,0.2770,-0.6079,-0.7181,-0.8851,0.4923,
4.523722,0.3451,-0.8764,-0.2358,0.3067,0.2770,-0.6079,-0.7181,-0.8851,0.4923,
4.525532,0.3451,-0.8764,-0.2358,0.3526,0.6742,-1.2223,-0.7181,-0.8851,0.4923,
4.527447,0.3451,-0.8764,-0.2358,0.3526,0.6742,-1.2223,-0.9178,-1.0805,0.4294,
4.535175,0.3451,-0.8764,-0.2358,0.3526,0.6742,-1.2223,-1.0724,-1.2229,0.3793,
4.545827,0.3690,-0.8648,-0.1564,0.3526,0.6742,-1.2223,-1.0724,-1.2229,0.3793,
4.548120,0.3690,-0.8648,-0.1564,0.6819,0.7852,-0.1914,-1.0724,-1.2229,0.3793,
4.550259,0.3690,-0.8648,-0.1564,0.6819,0.7852,-0.1914,-1.1292,-1.2864,0.3402,
4.554656,0.3690,-0.8648,-0.1564,0.6819,0.7852,-0.1914,-1.0816,-1.2577,0.3048,
4.563715,0.5072,-0.9528,-0.0287,0.6819,0.7852,-0.1914,-1.0816,-1.2577,0.3048,
4.566168,0.5072,-0.9528,-0.0287,2.1047,-0.0965,1.3202,-1.0816,-1.2577,0.3048,
4.568032,0.5072,-0.9528,-0.0287,2.1047,-0.0965,1.3202,-0.9356,-1.1630,0.2553,
4.574999,0.5072,-0.9528,-0.0287,2.1047,-0.0965,1.3202,-0.7218,-1.0610,0.1771,
4.583990,0.6428,-1.0516,0.0728,2.1047,-0.0965,1.3202,-0.7218,-1.0610,0.1771,
4.586802,0.6428,-1.0516,0.0728,3.4509,-1.0897,2.4798,-0.7218,-1.0610,0.1771,
4.588773,0.6428,-1.0516,0.0728,3.4509,-1.0897,2.4798,-0.4854,-0.9889,0.0885,
4.596489,0.6428,-1.0516,0.0728,3.4509,-1.0897,2.4798,-0.2722,-0.9742,0.0134,
4.603931,0.6856,-1.0951,0.0250,3.4509,-1.0897,2.4798,-0.2722,-0.9742,0.0134,
4.606002,0.6856,-1.0951,0.0250,3.8427,-1.5370,2.0748,-0.2722,-0.9742,0.0134,
4.607950,0.6856,-1.0951,0.0250,3.8427,-1.5370,2.0748,-0.1347,-0.9706,-0.0269,
4.615055,0.6856,-1.0951,0.0250,3.8427,-1.5370,2.0748,-0.0889,-0.9229,-0.0196,
4.623934,0.6401,-1.0978,-0.0690,3.8427,-1.5370,2.0748,-0.0889,-0.9229,-0.0196,
4.626812,0.6401,-1.0978,-0.0690,3.3503,-1.5807,1.1678,-0.0889,-0.9229,-0.0196,
4.630021,0.6401,-1.0978,-0.0690,3.3503,-1.5807,1.1678,-0.1164,-0.8570,0.0225,
4.635186,0.6401,-1.0978,-0.0690,3.3503,-1.5807,1.1678,-0.1500,-0.8124,0.0543,
4.647253,0.5363,-0.9841,0.1537,3.3503,-1.5807,1.1678,-0.1500,-0.8124,0.0543,
4.649881,0.5363,-0.9841,0.1537,2.2945,-0.4775,3.3449,-0.1500,-0.8124,0.0543,
4.652155,0.5363,-0.9841,0.1537,2.2945,-0.4775,3.3449,0.0351,-0.5356,0.0567,
4.654923,0.5363,-0.9841,0.1537,2.2945,-0.4775,3.3449,0.2043,-0.3133,0.0928,
4.664217,0.2651,-0.7730,0.2306,2.2945,-0.4775,3.3449,0.2043,-0.3133,0.0928,
4.667133,0.2651,-0.7730,0.2306,-0.3966,1.5987,4.0045,0.2043,-0.3133,0.0928,
4.669779,0.2651,-0.7730,0.2306,-0.3966,1.5987,4.0045,0.3448,-0.1722,0.1496,
4.674979,0.2651,-0.7730,0.2306,-0.3966,1.5987,4.0045,0.4230,-0.1801,0.1997,
4.684269,0.3304,-0.8247,0.0746,-0.3966,1.5987,4.0045,0.4230,-0.1801,0.1997,
4.686590,0.3304,-0.8247,0.0746,0.2279,1.1151,2.3219,0.4230,-0.1801,0.1997,
4.688321,0.3304,-0.8247,0.0746,0.2279,1.1151,2.3219,0.4145,-0.3023,0.2388,
4.696758,0.3304,-0.8247,0.0746,0.2279,1.1151,2.3219,0.3448,-0.4153,0.2748,
4.704001,0.5695,-0.9832,-0.0842,0.2279,1.1151,2.3219,0.3448,-0.4153,0.2748,
4.705946,0.5695,-0.9832,-0.0842,2.5667,-0.4201,0.6457,0.3448,-0.4153,0.2748,
4.707523,0.5695,-0.9832,-0.0842,2.5667,-0.4201,0.6457,0.2550,-0.4220,0.2938,
4.714656,0.5695,-0.9832,-0.0842,2.5667,-0.4201,0.6457,0.1909,-0.2962,0.2614,
4.723649,0.7573,-1.1348,-0.1397,2.5667,-0.4201,0.6457,0.1909,-0.2962,0.2614,
4.725531,0.7573,-1.1348,-0.1397,4.3935,-1.8994,0.0303,0.1909,-0.2962,0.2614,
4.727427,0.7573,-1.1348,-0.1397,4.3935,-1.8994,0.0303,0.1726,-0.0586,0.1759,
4.734737,0.7573,-1.1348,-0.1397,4.3935,-1.8994,0.0303,0.1884,0.2279,0.0702,
4.745797,0.8664,-1.2599,-0.1498,4.3935,-1.8994,0.0303,0.1884,0.2279,0.0702,
4.747868,0.8664,-1.2599,-0.1498,5.3981,-3.1356,-0.1425,0.1884,0.2279,0.0702,
4.749621,0.8664,-1.2599,-0.1498,5.3981,-3.1356,-0.1425,0.2055,0.4778,-0.0239,
4.754489,0.8664,-1.2599,-0.1498,5.3981,-3.1356,-0.1425,0.2129,0.5688,-0.0770,
4.765786,0.9252,-1.0359,0.0054,5.3981,-3.1356,-0.1425,0.2129,0.5688,-0.0770,
4.767775,0.9252,-1.0359,0.0054,5.8499,-0.9677,1.2698,0.2129,0.5688,-0.0770,
4.769259,0.9252,-1.0359,0.0054,5.8499,-0.9677,1.2698,0.2049,0.3807,-0.0831,
4.774517,0.9252,-1.0359,0.0054,5.8499,-0.9677,1.2698,0.2116,-0.0726,-0.0972,
4.783476,0.8597,-0.5653,0.0888,5.8499,-0.9677,1.2698,0.2116,-0.0726,-0.0972,
4.785581,0.8597,-0.5653,0.0888,5.0584,3.6014,1.9956,0.2116,-0.0726,-0.0972,
4.786870,0.8597,-0.5653,0.0888,5.0584,3.6014,1.9956,0.2556,-0.4507,-0.1790,
4.795741,0.8597,-0.5653,0.0888,5.0584,3.6014,1.9956,0.2575,-0.4287,-0.2774,
4.803933,0.5927,-0.4398,-0.0864,5.0584,3.6014,1.9956,0.2575,-0.4287,-0.2774,
4.806184,0.5927,-0.4398,-0.0864,2.2711,4.7734,0.2295,0.2575,-0.4287,-0.2774,
4.808078,0.5927,-0.4398,-0.0864,2.2711,4.7734,0.2295,0.1664,-0.1056,-0.3232,
4.815088,0.5927,-0.4398,-0.0864,2.2711,4.7734,0.2295,0.0186,0.2408,-0.2829,
4.823968,0.5343,-0.7400,-0.1726,2.2711,4.7734,0.2295,0.0186,0.2408,-0.2829,
4.827711,0.5343,-0.7400,-0.1726,1.5230,1.7648,-0.6523,0.0186,0.2408,-0.2829,
4.830314,0.5343,-0.7400,-0.1726,1.5230,1.7648,-0.6523,-0.2868,0.4808,-0.1424,
4.835159,0.5343,-0.7400,-0.1726,1.5230,1.7648,-0.6523,-0.4145,0.5602,-0.1112,
4.844599,0.5370,-0.9243,-0.2686,1.5230,1.7648,-0.6523,-0.4145,0.5602,-0.1112,
4.847096,0.5370,-0.9243,-0.2686,1.4223,-0.0984,-1.5641,-0.4145,0.5602,-0.1112,
4.849528,0.5370,-0.9243,-0.2686,1.4223,-0.0984,-1.5641,-0.4902,0.6580,-0.1112,
4.855008,0.5370,-0.9243,-0.2686,1.4223,-0.0984,-1.5641,-0.5116,0.6794,-0.1131,
4.863841,0.3672,-0.9502,-0.2614,1.4223,-0.0984,-1.5641,-0.5116,0.6794,-0.1131,
4.867073,0.3672,-0.9502,-0.2614,-0.3350,-0.3996,-1.4383,-0.5116,0.6794,-0.1131,
4.869278,0.3672,-0.9502,-0.2614,-0.3350,-0.3996,-1.4383,-0.4963,0.5566,-0.0960,
4.875125,0.3672,-0.9502,-0.2614,-0.3350,-0.3996,-1.4383,-0.4695,0.3092,-0.0587,
4.884466,0.2438,-0.9284,-0.2134,-0.3350,-0.3996,-1.4383,-0.4695,0.3092,-0.0587,
4.886726,0.2438,-0.9284,-0.2134,-1.5827,-0.2107,-0.9039,-0.4695,0.3092,-0.0587,
4.888549,0.2438,-0.9284,-0.2134,-1.5827,-0.2107,-0.9039,-0.4518,0.0025,-0.0153,
4.897013,0.2438,-0.9284,-0.2134,-1.5827,-0.2107,-0.9039,-0.4554,-0.3127,0.0323,
4.904031,0.1233,-0.9245,-0.0033,-1.5827,-0.2107,-0.9039,-0.4554,-0.3127,0.0323,
4.906273,0.1233,-0.9245,-0.0033,-2.7574,-0.1823,1.2481,-0.4554,-0.3127,0.0323,
4.908007,0.1233,-0.9245,-0.0033,-2.7574,-0.1823,1.2481,-0.4585,-0.5906,0.0867,
4.915179,0.1233,-0.9245,-0.0033,-2.7574,-0.1823,1.2481,-0.3943,-0.7482,0.1539,
4.924016,0.0815,-0.9262,0.1898,-2.7574,-0.1823,1.2481,-0.3943,-0.7482,0.1539,
4.926627,0.0815,-0.9262,0.1898,-3.0999,-0.1838,3.2366,-0.3943,-0.7482,0.1539,
4.929019,0.0815,-0.9262,0.1898,-3.0999,-0.1838,3.2366,-0.2282,-0.6853,0.2260,
4.934883,0.0815,-0.9262,0.1898,-3.0999,-0.1838,3.2366,-0.0541,-0.5063,0.2797,
4.944402,0.2318,-0.9129,-0.0754,-3.0999,-0.1838,3.2366,-0.0541,-0.5063,0.2797,
4.946644,0.2318,-0.9129,-0.0754,-1.5335,-0.0195,0.6781,-0.0541,-0.5063,0.2797,
4.948586,0.2318,-0.9129,-0.0754,-1.5335,-0.0195,0.6781,0.0430,-0.3927,0.3335,
4.955125,0.2318,-0.9129,-0.0754,-1.5335,-0.0195,0.6781,0.0656,-0.4049,0.4080,
4.963945,0.4289,-0.9131,-0.1498,-1.5335,-0.0195,0.6781,0.0656,-0.4049,0.4080,
4.966289,0.4289,-0.9131,-0.1498,0.4855,0.0141,-0.0446,0.0656,-0.4049,0.4080,
4.968528,0.4289,-0.9131,-0.1498,0.4855,0.0141,-0.0446,0.0602,-0.4446,0.4666,
4.974937,0.4289,-0.9131,-0.1498,0.4855,0.0141,-0.0446,0.0540,-0.4177,0.4874,
4.983930,0.5640,-0.8630,-0.0724,0.4855,0.0141,-0.0446,0.0540,-0.4177,0.4874,
4.986896,0.5640,-0.8630,-0.0724,1.9020,0.5414,0.7214,0.0540,-0.4177,0.4874,
4.988715,0.5640,-0.8630,-0.0724,1.9020,0.5414,0.7214,0.0650,-0.3328,0.4801,
4.997056,0.5640,-0.8630,-0.0724,1.9020,0.5414,0.7214,0.0950,-0.2345,0.4532,
5.003886,0.6633,-0.7675,0.0087,1.9020,0.5414,0.7214,0.0950,-0.2345,0.4532,
5.006095,0.6633,-0.7675,0.0087,2.9277,1.5026,1.4906,0.0950,-0.2345,0.4532,
5.007805,0.6633,-0.7675,0.0087,2.9277,1.5026,1.4906,0.1414,-0.1471,0.4092,
5.015025,0.6633,-0.7675,0.0087,2.9277,1.5026,1.4906,0.2782,0.0514,0.2712,
5.024523,0.7319,-0.7316,0.0222,2.9277,1.5026,1.4906,0.2782,0.0514,0.2712,
5.026939,0.7319,-0.7316,0.0222,3.5852,1.8599,1.5483,0.2782,0.0514,0.2712,
5.029258,0.7319,-0.7316,0.0222,3.5852,1.8599,1.5483,0.3564,0.2102,0.1924,
5.035019,0.7319,-0.7316,0.0222,3.5852,1.8599,1.5483,0.4242,0.3935,0.1093,
5.044655,0.8061,-0.8170,-0.0013,3.5852,1.8599,1.5483,0.4242,0.3935,0.1093,
5.047129,0.8061,-0.8170,-0.0013,4.2342,1.0102,1.1862,0.4242,0.3935,0.1093,
5.049218,0.8061,-0.8170,-0.0013,4.2342,1.0102,1.1862,0.4627,0.5810,0.0170,
5.055106,0.8061,-0.8170,-0.0013,4.2342,1.0102,1.1862,0.4566,0.7478,-0.0892,
5.064670,0.8409,-0.9139,0.0059,4.2342,1.0102,1.1862,0.4566,0.7478,-0.0892,
5.068054,0.8409,-0.9139,0.0059,4.4498,0.0285,1.0892,0.4566,0.7478,-0.0892,
5.070265,0.8409,-0.9139,0.0059,4.4498,0.0285,1.0892,0.4138,0.8919,-0.2010,
5.074743,0.8409,-0.9139,0.0059,4.4498,0.0285,1.0892,0.3466,1.0441,-0.3098,
5.083854,0.8873,-1.0966,0.0053,4.4498,0.0285,1.0892,0.3466,1.0441,-0.3098,
5.086196,0.8873,-1.0966,0.0053,4.7434,-1.8126,0.9101,0.3466,1.0441,-0.3098,
5.087771,0.8873,-1.0966,0.0053,4.7434,-1.8126,0.9101,0.2709,1.2456,-0.4289,
5.096506,0.8873,-1.0966,0.0053,4.7434,-1.8126,0.9101,0.2214,1.4869,-0.5596,
5.103776,0.7779,-1.2380,0.1423,4.7434,-1.8126,0.9101,0.2214,1.4869,-0.5596,
5.105562,0.7779,-1.2380,0.1423,3.4848,-3.2669,2.0611,0.2214,1.4869,-0.5596,
5.107000,0.7779,-1.2380,0.1423,3.4848,-3.2669,2.0611,0.2514,1.7221,-0.6775,
5.114766,0.7779,-1.2380,0.1423,3.4848,-3.2669,2.0611,0.4016,1.8889,-0.7557,
5.123818,0.5413,-1.0585,0.2930,3.4848,-3.2669,2.0611,0.4016,1.8889,-0.7557,
5.125685,0.5413,-1.0585,0.2930,0.9691,-1.5860,3.2788,0.4016,1.8889,-0.7557,
5.127876,0.5413,-1.0585,0.2930,0.9691,-1.5860,3.2788,0.6612,1.9542,-0.8015,
5.134796,0.5413,-1.0585,0.2930,0.9691,-1.5860,3.2788,0.9764,1.9090,-0.8486,
5.144283,0.4318,-0.8567,0.2995,0.9691,-1.5860,3.2788,0.9764,1.9090,-0.8486,
5.146271,0.4318,-0.8567,0.2995,-0.2885,0.3074,2.9731,0.9764,1.9090,-0.8486,
5.148071,0.4318,-0.8567,0.2995,-0.2885,0.3074,2.9731,1.3155,1.7832,-0.9237,
5.154791,0.4318,-0.8567,0.2995,-0.2885,0.3074,2.9731,1.6423,1.6494,-0.9903,
5.163942,0.2863,-0.8453,0.0873,-0.2885,0.3074,2.9731,1.6423,1.6494,-0.9903,
5.166893,0.2863,-0.8453,0.0873,-1.8768,0.3234,0.4604,1.6423,1.6494,-0.9903,
5.168621,0.2863,-0.8453,0.0873,-1.8768,0.3234,0.4604,1.9001,1.5059,-0.9945,
5.174710,0.2863,-0.8453,0.0873,-1.8768,0.3234,0.4604,2.0510,1.3171,-0.9396,
5.183751,0.1667,-0.9130,-0.0915,-1.8768,0.3234,0.4604,2.0510,1.3171,-0.9396,
5.186026,0.1667,-0.9130,-0.0915,-3.1805,-0.4475,-1.7607,2.0510,1.3171,-0.9396,
5.187618,0.1667,-0.9130,-0.0915,-3.1805,-0.4475,-1.7607,2.0858,1.1100,-0.8541,
5.196830,0.1667,-0.9130,-0.0915,-3.1805,-0.4475,-1.7607,1.9746,0.7050,-0.6305,
5.203738,0.0467,-1.0260,-0.1515,-3.1805,-0.4475,-1.7607,1.9746,0.7050,-0.6305,
5.205660,0.0467,-1.0260,-0.1515,-4.3971,-1.6257,-2.7342,1.9746,0.7050,-0.6305,
5.207273,0.0467,-1.0260,-0.1515,-4.3971,-1.6257,-2.7342,1.8640,0.5260,-0.4955,
5.214858,0.0467,-1.0260,-0.1515,-4.3971,-1.6257,-2.7342,1.7260,0.4216,-0.3935,
5.223639,0.0575,-1.1655,-0.1009,-4.3971,-1.6257,-2.7342,1.7260,0.4216,-0.3935,
5.225745,0.0575,-1.1655,-0.1009,-4.2589,-3.0207,-2.5180,1.7260,0.4216,-0.3935,
5.229030,0.0575,-1.1655,-0.1009,-4.2589,-3.0207,-2.5180,1.6209,0.3617,-0.3373,
5.234794,0.0575,-1.1655,-0.1009,-4.2589,-3.0207,-2.5180,1.5220,0.4112,-0.3263,
5.244137,0.1380,-1.1738,-0.0828,-4.2589,-3.0207,-2.5180,1.5220,0.4112,-0.3263,
5.246134,0.1380,-1.1738,-0.0828,-3.4098,-3.1102,-2.5582,1.5220,0.4112,-0.3263,
5.248100,0.1380,-1.1738,-0.0828,-3.4098,-3.1102,-2.5582,1.3766,0.6256,-0.3617,
5.254734,0.1380,-1.1738,-0.0828,-3.4098,-3.1102,-2.5582,1.1927,0.9317,-0.4521,
5.264857,0.3666,-1.1135,-0.0125,-3.4098,-3.1102,-2.5582,1.1927,0.9317,-0.4521,
5.267727,0.3666,-1.1135,-0.0125,-1.1195,-2.5357,-2.0695,1.1927,0.9317,-0.4521,
5.270275,0.3666,-1.1135,-0.0125,-1.1195,-2.5357,-2.0695,0.9783,1.2395,-0.5999,
5.274913,0.3666,-1.1135,-0.0125,-1.1195,-2.5357,-2.0695,0.7492,1.4833,-0.7661,
5.284509,0.5584,-1.0030,0.0558,-1.1195,-2.5357,-2.0695,0.7492,1.4833,-0.7661,
5.287110,0.5584,-1.0030,0.0558,0.7648,-1.4948,-1.5855,0.7492,1.4833,-0.7661,
5.288858,0.5584,-1.0030,0.0558,0.7648,-1.4948,-1.5855,0.5256,1.6470,-0.9274,
5.297101,0.5584,-1.0030,0.0558,0.7648,-1.4948,-1.5855,0.3570,1.6714,-1.0837,
5.303705,0.6931,-0.9532,0.1149,0.7648,-1.4948,-1.5855,0.3570,1.6714,-1.0837,
5.306110,0.6931,-0.9532,0.1149,2.0258,-1.0798,-1.1546,0.3570,1.6714,-1.0837,
5.308003,0.6931,-0.9532,0.1149,2.0258,-1.0798,-1.1546,0.2514,1.5615,-1.2248,
5.314629,0.6931,-0.9532,0.1149,2.0258,-1.0798,-1.1546,0.1506,1.4246,-1.3067,
5.324063,0.6552,-0.9108,0.0594,2.0258,-1.0798,-1.1546,0.1506,1.4246,-1.3067,
5.325778,0.6552,-0.9108,0.0594,1.5343,-0.7616,-1.7924,0.1506,1.4246,-1.3067,
5.327534,0.6552,-0.9108,0.0594,1.5343,-0.7616,-1.7924,0.0040,1.3171,-1.2853,
5.334864,0.6552,-0.9108,0.0594,1.5343,-0.7616,-1.7924,-0.1860,1.2658,-1.1497,
5.344635,0.5406,-0.8153,0.0744,1.5343,-0.7616,-1.7924,-0.1860,1.2658,-1.1497,
5.346925,0.5406,-0.8153,0.0744,0.2871,0.0892,-1.6779,-0.1860,1.2658,-1.1497,
5.348826,0.5406,-0.8153,0.0744,0.2871,0.0892,-1.6779,-0.3760,1.2487,-0.9151,
5.354603,0.5406,-0.8153,0.0744,0.2871,0.0892,-1.6779,-0.5183,1.1980,-0.6574,
5.363582,0.4347,-0.7541,0.1312,0.2871,0.0892,-1.6779,-0.5183,1.1980,-0.6574,
5.366000,0.4347,-0.7541,0.1312,-0.8063,0.6597,-1.1029,-0.5183,1.1980,-0.6574,
5.367634,0.4347,-0.7541,0.1312,-0.8063,0.6597,-1.1029,-0.5990,1.1363,-0.4662,
5.374755,0.4347,-0.7541,0.1312,-0.8063,0.6597,-1.1029,-0.6430,1.1064,-0.3287,
5.384074,0.3141,-0.7346,0.1688,-0.8063,0.6597,-1.1029,-0.6430,1.1064,-0.3287,
5.386399,0.3141,-0.7346,0.1688,-1.9794,0.8678,-0.6943,-0.6430,1.1064,-0.3287,
5.387892,0.3141,-0.7346,0.1688,-1.9794,0.8678,-0.6943,-0.6985,1.2224,-0.1277,
5.397255,0.3141,-0.7346,0.1688,-1.9794,0.8678,-0.6943,-0.7254,1.3819,-0.0624,
5.404164,0.2373,-0.6437,0.2492,-1.9794,0.8678,-0.6943,-0.7254,1.3819,-0.0624,
5.406262,0.2373,-0.6437,0.2492,-2.6618,1.8044,0.1033,-0.7254,1.3819,-0.0624,
5.407988,0.2373,-0.6437,0.2492,-2.6618,1.8044,0.1033,-0.7670,1.5749,-0.0343,
5.414876,0.2373,-0.6437,0.2492,-2.6618,1.8044,0.1033,-0.8458,1.7490,-0.0367,
5.423851,0.2204,-0.6093,0.1877,-2.6618,1.8044,0.1033,-0.8458,1.7490,-0.0367,
5.426103,0.2204,-0.6093,0.1877,-2.7297,2.1970,-0.5154,-0.8458,1.7490,-0.0367,
5.428454,0.2204,-0.6093,0.1877,-2.7297,2.1970,-0.5154,-0.9942,1.7985,-0.0459,
5.434724,0.2204,-0.6093,0.1877,-2.7297,2.1970,-0.5154,-1.1927,1.6280,-0.0159,
5.444427,0.1572,-0.6532,0.1895,-2.7297,2.1970,-0.5154,-1.1927,1.6280,-0.0159,
5.449481,0.1572,-0.6532,0.1895,-3.2326,1.8420,-0.4758,-1.1927,1.6280,-0.0159,
5.451308,0.1572,-0.6532,0.1895,-3.2326,1.8420,-0.4758,-1.3571,1.3171,0.1026,
5.458643,0.1572,-0.6532,0.1895,-3.2326,1.8420,-0.4758,-1.4181,1.0037,0.2724,
5.466701,0.1935,-0.7038,0.2566,-3.2326,1.8420,-0.4758,-1.4181,1.0037,0.2724,
5.468830,0.1935,-0.7038,0.2566,-2.7443,1.4519,0.2969,-1.4181,1.0037,0.2724,
5.470403,0.1935,-0.7038,0.2566,-2.7443,1.4519,0.2969,-1.3662,0.7386,0.4147,
5.474288,0.1935,-0.7038,0.2566,-2.7443,1.4519,0.2969,-1.2434,0.5273,0.4899,
5.483106,0.2659,-0.7326,0.2574,-2.7443,1.4519,0.2969,-1.2434,0.5273,0.4899,
5.484842,0.2659,-0.7326,0.2574,-1.8894,1.2858,0.4467,-1.2434,0.5273,0.4899,
5.485789,0.2659,-0.7326,0.2574,-1.8894,1.2858,0.4467,-1.0877,0.3477,0.5015,
5.496050,0.2659,-0.7326,0.2574,-1.8894,1.2858,0.4467,-0.9117,0.2011,0.4862,
5.503198,0.3453,-0.7174,0.2992,-1.8894,1.2858,0.4467,-0.9117,0.2011,0.4862,
5.504184,0.3453,-0.7174,0.2992,-0.9883,1.5261,0.9735,-0.9117,0.2011,0.4862,
5.505062,0.3453,-0.7174,0.2992,-0.9883,1.5261,0.9735,-0.7346,0.0502,0.4691,
5.514464,0.3453,-0.7174,0.2992,-0.9883,1.5261,0.9735,-0.5868,-0.1850,0.4300,
5.523150,0.4168,-0.7035,0.2643,-0.9883,1.5261,0.9735,-0.5868,-0.1850,0.4300,
5.524256,0.4168,-0.7035,0.2643,-0.2015,1.7262,0.7220,-0.5868,-0.1850,0.4300,
5.525066,0.4168,-0.7035,0.2643,-0.2015,1.7262,0.7220,-0.5141,-0.4819,0.3750,
5.534134,0.4168,-0.7035,0.2643,-0.2015,1.7262,0.7220,-0.5159,-0.7415,0.3249,
5.543214,0.4356,-0.6951,0.2447,-0.2015,1.7262,0.7220,-0.5159,-0.7415,0.3249,
5.544756,0.4356,-0.6951,0.2447,0.0224,1.8510,0.6373,-0.5159,-0.7415,0.3249,
5.545880,0.4356,-0.6951,0.2447,0.0224,1.8510,0.6373,-0.5562,-0.8814,0.2797,
5.554032,0.4356,-0.6951,0.2447,0.0224,1.8510,0.6373,-0.6149,-0.9889,0.2284,
5.563125,0.4152,-0.7280,0.1473,0.0224,1.8510,0.6373,-0.6149,-0.9889,0.2284,
5.564665,0.4152,-0.7280,0.1473,-0.1683,1.5625,-0.1609,-0.6149,-0.9889,0.2284,
5.565319,0.4152,-0.7280,0.1473,-0.1683,1.5625,-0.1609,-0.7462,-1.3151,0.0537,
5.574037,0.4152,-0.7280,0.1473,-0.1683,1.5625,-0.1609,-0.8219,-1.4361,-0.0202,
5.583048,0.3183,-0.8990,-0.1275,-0.1683,1.5625,-0.1609,-0.8219,-1.4361,-0.0202,
5.584432,0.3183,-0.8990,-0.1275,-1.1539,-0.0882,-2.6012,-0.8219,-1.4361,-0.0202,
5.585260,0.3183,-0.8990,-0.1275,-1.1539,-0.0882,-2.6012,-0.9563,-1.5821,-0.0062,
5.595480,0.3183,-0.8990,-0.1275,-1.1539,-0.0882,-2.6012,-1.1610,-1.8062,0.0934,
5.603724,0.6146,-1.6412,0.1217,-1.1539,-0.0882,-2.6012,-1.1610,-1.8062,0.0934,
5.605336,0.6146,-1.6412,0.1217,1.7240,-7.3293,0.1708,-1.1610,-1.8062,0.0934,
5.606623,0.6146,-1.6412,0.1217,1.7240,-7.3293,0.1708,-1.3265,-2.0652,0.1691,
5.614831,0.6146,-1.6412,0.1217,1.7240,-7.3293,0.1708,-1.1011,-1.9871,0.0598,
5.623713,0.8414,-1.3055,0.5543,1.7240,-7.3293,0.1708,-1.1011,-1.9871,0.0598,
5.625323,0.8414,-1.3055,0.5543,3.9335,-4.0115,4.7590,-1.1011,-1.9871,0.0598,
5.626639,0.8414,-1.3055,0.5543,3.9335,-4.0115,4.7590,-0.2581,-1.2797,-0.3354,
5.634897,0.8414,-1.3055,0.5543,3.9335,-4.0115,4.7590,0.4126,-0.6676,-0.7087,
5.643879,0.3016,-0.7806,-0.2425,3.9335,-4.0115,4.7590,0.4126,-0.6676,-0.7087,
5.645880,0.3016,-0.7806,-0.2425,-1.4569,1.0873,-2.9831,0.4126,-0.6676,-0.7087,
5.647540,0.3016,-0.7806,-0.2425,-1.4569,1.0873,-2.9831,0.4835,-0.4599,-0.7972,
5.654934,0.3016,-0.7806,-0.2425,-1.4569,1.0873,-2.9831,0.2825,-0.3481,-0.6677,
5.664367,-0.1239,-0.5639,0.5972,-1.4569,1.0873,-2.9831,0.2825,-0.3481,-0.6677,
5.666753,-0.1239,-0.5639,0.5972,-5.7080,3.1614,5.1416,0.2825,-0.3481,-0.6677,
5.668837,-0.1239,-0.5639,0.5972,-5.7080,3.1614,5.1416,0.3344,-0.1215,-0.3538,
5.674770,-0.1239,-0.5639,0.5972,-5.7080,3.1614,5.1416,0.6460,-0.1331,0.0861,
5.684384,-0.0012,-0.8668,-0.0224,-5.7080,3.1614,5.1416,0.6460,-0.1331,0.0861,
5.686734,-0.0012,-0.8668,-0.0224,-4.4512,0.2106,-1.0454,0.6460,-0.1331,0.0861,
5.688339,-0.0012,-0.8668,-0.0224,-4.4512,0.2106,-1.0454,0.7248,-0.7079,0.4459,
5.697262,-0.0012,-0.8668,-0.0224,-4.4512,0.2106,-1.0454,0.4328,-1.4819,0.5766,
5.703639,0.4708,-0.9657,-0.4682,-4.4512,0.2106,-1.0454,0.4328,-1.4819,0.5766,
5.705565,0.4708,-0.9657,-0.4682,0.2964,-0.6951,-5.3843,0.4328,-1.4819,0.5766,
5.706988,0.4708,-0.9657,-0.4682,0.2964,-0.6951,-5.3843,-0.0058,-2.0072,0.4660,
5.714857,0.4708,-0.9657,-0.4682,0.2964,-0.6951,-5.3843,-0.3876,-2.1807,0.2345,
5.724515,0.5895,-0.9577,-0.3304,0.2964,-0.6951,-5.3843,-0.3876,-2.1807,0.2345,
5.726665,0.5895,-0.9577,-0.3304,1.5133,-0.5696,-3.7613,-0.3876,-2.1807,0.2345,
5.729367,0.5895,-0.9577,-0.3304,1.5133,-0.5696,-3.7613,-0.6051,-2.0384,0.0409,
5.735183,0.5895,-0.9577,-0.3304,1.5133,-0.5696,-3.7613,-0.6515,-1.6731,-0.0630,
5.744673,0.6886,-0.8364,-0.0570,1.5133,-0.5696,-3.7613,-0.6515,-1.6731,-0.0630,
5.747171,0.6886,-0.8364,-0.0570,2.4619,0.6210,-0.7842,-0.6515,-1.6731,-0.0630,
5.749384,0.6886,-0.8364,-0.0570,2.4619,0.6210,-0.7842,-0.5312,-1.1697,-0.1100,
5.755045,0.6886,-0.8364,-0.0570,2.4619,0.6210,-0.7842,0.0522,-0.1881,-0.1601,
5.765065,0.7697,-0.7889,0.0300,2.4619,0.6210,-0.7842,0.0522,-0.1881,-0.1601,
5.767867,0.7697,-0.7889,0.0300,3.2029,1.0625,0.1890,0.0522,-0.1881,-0.1601,
5.770638,0.7697,-0.7889,0.0300,3.2029,1.0625,0.1890,0.2984,0.1143,-0.1247,
5.774870,0.7697,-0.7889,0.0300,3.2029,1.0625,0.1890,0.3809,0.2194,-0.0227,
5.787529,0.7536,-0.8581,-0.0585,3.2029,1.0625,0.1890,0.3809,0.2194,-0.0227,
5.790689,0.7536,-0.8581,-0.0585,2.9828,0.3521,-0.7269,0.3809,0.2194,-0.0227,
5.792238,0.7536,-0.8581,-0.0585,2.9828,0.3521,-0.7269,0.3008,-0.0683,0.0885,
5.794905,0.7536,-0.8581,-0.0585,2.9828,0.3521,-0.7269,0.0760,-0.7684,0.1600,
5.803432,0.6649,-0.9194,-0.1069,2.9828,0.3521,-0.7269,0.0760,-0.7684,0.1600,
5.805589,0.6649,-0.9194,-0.1069,2.0826,-0.2640,-1.1673,0.0760,-0.7684,0.1600,
5.806974,0.6649,-0.9194,-0.1069,2.0826,-0.2640,-1.1673,-0.2514,-1.3902,0.1447,
5.814639,0.6649,-0.9194,-0.1069,2.0826,-0.2640,-1.1673,-0.5855,-1.5100,0.0757,
5.823265,0.5251,-0.9532,-0.1397,2.0826,-0.2640,-1.1673,-0.5855,-1.5100,0.0757,
5.824363,0.5251,-0.9532,-0.1397,0.6989,-0.6014,-1.2646,-0.5855,-1.5100,0.0757,
5.825321,0.5251,-0.9532,-0.1397,0.6989,-0.6014,-1.2646,-0.8397,-1.2009,0.0280,
5.834150,0.5251,-0.9532,-0.1397,0.6989,-0.6014,-1.2646,-0.9728,-0.7317,0.0280,
5.843165,0.4142,-0.9407,-0.1554,0.6989,-0.6014,-1.2646,-0.9728,-0.7317,0.0280,
5.844432,0.4142,-0.9407,-0.1554,-0.3928,-0.4887,-1.1589,-0.9728,-0.7317,0.0280,
5.845898,0.4142,-0.9407,-0.1554,-0.3928,-0.4887,-1.1589,-0.9905,-0.2882,0.0732,
5.854175,0.4142,-0.9407,-0.1554,-0.3928,-0.4887,-1.1589,-0.9294,0.0557,0.1343,
5.865250,0.3597,-0.9114,-0.1749,-0.3928,-0.4887,-1.1589,-0.9294,0.0557,0.1343,
5.868206,0.3597,-0.9114,-0.1749,-0.9118,-0.2037,-1.1606,-0.9294,0.0557,0.1343,
5.870524,0.3597,-0.9114,-0.1749,-0.9118,-0.2037,-1.1606,-0.8397,0.2542,0.1759,
5.874848,0.3597,-0.9114,-0.1749,-0.9118,-0.2037,-1.1606,-0.7444,0.2395,0.2064,
5.883849,0.3082,-0.9094,-0.1308,-0.9118,-0.2037,-1.1606,-0.7444,0.2395,0.2064,
5.886398,0.3082,-0.9094,-0.1308,-1.3843,-0.1769,-0.6030,-0.7444,0.2395,0.2064,
5.888047,0.3082,-0.9094,-0.1308,-1.3843,-0.1769,-0.6030,-0.6485,-0.0079,0.2492,
5.895034,0.3082,-0.9094,-0.1308,-1.3843,-0.1769,-0.6030,-0.5599,-0.3646,0.2809,
5.903773,0.3310,-0.9551,-0.0739,-1.3843,-0.1769,-0.6030,-0.5599,-0.3646,0.2809,
5.906149,0.3310,-0.9551,-0.0739,-1.1058,-0.6080,0.0811,-0.5599,-0.3646,0.2809,
5.907771,0.3310,-0.9551,-0.0739,-1.1058,-0.6080,0.0811,-0.4994,-0.6804,0.2968,
5.914838,0.3310,-0.9551,-0.0739,-1.1058,-0.6080,0.0811,-0.4603,-0.8918,0.3023,
5.923878,0.3734,-0.9264,-0.0045,-1.1058,-0.6080,0.0811,-0.4603,-0.8918,0.3023,
5.925585,0.3734,-0.9264,-0.0045,-0.6187,-0.3064,0.9110,-0.4603,-0.8918,0.3023,
5.927081,0.3734,-0.9264,-0.0045,-0.6187,-0.3064,0.9110,-0.4292,-0.9687,0.2974,
5.934766,0.3734,-0.9264,-0.0045,-0.6187,-0.3064,0.9110,-0.2960,-0.8606,0.3115,
5.943919,0.4150,-0.8557,0.0305,-0.6187,-0.3064,0.9110,-0.2960,-0.8606,0.3115,
5.946260,0.4150,-0.8557,0.0305,-0.1362,0.4079,1.3853,-0.2960,-0.8606,0.3115,
5.948235,0.4150,-0.8557,0.0305,-0.1362,0.4079,1.3853,-0.2135,-0.7507,0.3176,
5.954878,0.4150,-0.8557,0.0305,-0.1362,0.4079,1.3853,-0.1329,-0.7073,0.3255,
5.964631,0.4902,-0.8293,0.0501,-0.1362,0.4079,1.3853,-0.1329,-0.7073,0.3255,
5.967055,0.4902,-0.8293,0.0501,0.6705,0.6905,1.6458,-0.1329,-0.7073,0.3255,
5.968902,0.4902,-0.8293,0.0501,0.6705,0.6905,1.6458,-0.0522,-0.7647,0.3371,
5.974779,0.4902,-0.8293,0.0501,0.6705,0.6905,1.6458,0.0198,-0.8160,0.3542,
5.984350,0.5162,-0.7752,-0.0118,0.6705,0.6905,1.6458,0.0198,-0.8160,0.3542,
5.986654,0.5162,-0.7752,-0.0118,0.9891,1.2452,1.0776,0.0198,-0.8160,0.3542,
5.988307,0.5162,-0.7752,-0.0118,0.9891,1.2452,1.0776,0.0742,-0.7494,0.3689,
5.995137,0.5162,-0.7752,-0.0118,0.9891,1.2452,1.0776,0.1182,-0.5601,0.3756,
6.003816,0.5468,-0.7291,-0.0739,0.9891,1.2452,1.0776,0.1182,-0.5601,0.3756,
6.005881,0.5468,-0.7291,-0.0739,1.3383,1.7183,0.4775,0.1182,-0.5601,0.3756,
6.007455,0.5468,-0.7291,-0.0739,1.3383,1.7183,0.4775,0.1530,-0.3322,0.3732,
6.015208,0.5468,-0.7291,-0.0739,1.3383,1.7183,0.4775,0.1732,-0.1447,0.3542,
6.024064,0.5856,-0.6881,-0.1060,1.3383,1.7183,0.4775,0.1732,-0.1447,0.3542,
6.026276,0.5856,-0.6881,-0.1060,1.7338,2.1317,0.1293,0.1732,-0.1447,0.3542,
6.028632,0.5856,-0.6881,-0.1060,1.7338,2.1317,0.1293,0.1732,-0.0482,0.3176,
6.035028,0.5856,-0.6881,-0.1060,1.7338,2.1317,0.1293,0.1579,-0.0732,0.2669,
6.044104,0.5531,-0.6252,-0.0690,1.7338,2.1317,0.1293,0.1579,-0.0732,0.2669,
6.046665,0.5531,-0.6252,-0.0690,1.3985,2.7462,0.4477,0.1579,-0.0732,0.2669,
6.048879,0.5531,-0.6252,-0.0690,1.3985,2.7462,0.4477,0.1408,-0.2027,0.2119,
6.054972,0.5531,-0.6252,-0.0690,1.3985,2.7462,0.4477,0.1408,-0.3701,0.1618,
6.065527,0.4609,-0.5706,-0.0071,1.3985,2.7462,0.4477,0.1408,-0.3701,0.1618,
6.068334,0.4609,-0.5706,-0.0071,0.4594,3.2685,1.0288,0.1408,-0.3701,0.1618,
6.070580,0.4609,-0.5706,-0.0071,0.4594,3.2685,1.0288,0.1750,-0.5082,0.1136,
6.074878,0.4609,-0.5706,-0.0071,0.4594,3.2685,1.0288,0.2544,-0.5607,0.0677,
6.084300,0.4234,-0.5421,0.0316,0.4594,3.2685,1.0288,0.2544,-0.5607,0.0677,
6.087125,0.4234,-0.5421,0.0316,0.0436,3.5285,1.3818,0.2544,-0.5607,0.0677,
6.089032,0.4234,-0.5421,0.0316,0.0436,3.5285,1.3818,0.3778,-0.4978,0.0232,
6.095230,0.4234,-0.5421,0.0316,0.0436,3.5285,1.3818,0.5336,-0.3188,-0.0477,
6.104424,0.5736,-0.7366,0.0704,0.0436,3.5285,1.3818,0.5336,-0.3188,-0.0477,
6.107171,0.5736,-0.7366,0.0704,1.4461,1.6001,1.6729,0.5336,-0.3188,-0.0477,
6.109078,0.5736,-0.7366,0.0704,1.4461,1.6001,1.6729,0.7174,-0.0683,-0.1974,
6.115339,0.5736,-0.7366,0.0704,1.4461,1.6001,1.6729,0.9447,0.1265,-0.4051,
6.124349,0.5706,-1.0874,0.0992,1.4461,1.6001,1.6729,0.9447,0.1265,-0.4051,
6.126546,0.5706,-1.0874,0.0992,1.3119,-1.8685,1.7617,0.9447,0.1265,-0.4051,
6.128989,0.5706,-1.0874,0.0992,1.3119,-1.8685,1.7617,1.4682,0.1528,-0.6604,
6.134916,0.5706,-1.0874,0.0992,1.3119,-1.8685,1.7617,1.6753,0.0410,-0.6360,
6.144493,0.4314,-1.2532,0.2100,1.3119,-1.8685,1.7617,1.6753,0.0410,-0.6360,
6.146993,0.4314,-1.2532,0.2100,-0.1767,-3.5318,2.5249,1.6753,0.0410,-0.6360,
6.149248,0.4314,-1.2532,0.2100,-0.1767,-3.5318,2.5249,1.8506,-0.1239,-0.5657,
6.154920,0.4314,-1.2532,0.2100,-0.1767,-3.5318,2.5249,1.9868,-0.2925,-0.5132,
6.165113,0.4553,-1.0847,0.0589,-0.1767,-3.5318,2.5249,1.9868,-0.2925,-0.5132,
6.167747,0.4553,-1.0847,0.0589,-0.0349,-1.9163,0.7104,1.9868,-0.2925,-0.5132,
6.170012,0.4553,-1.0847,0.0589,-0.0349,-1.9163,0.7104,2.0174,-0.3560,-0.5333,
6.174974,0.4553,-1.0847,0.0589,-0.0349,-1.9163,0.7104,1.9099,-0.2632,-0.6323,
6.183851,0.4512,-1.0465,-0.1097,-0.0349,-1.9163,0.7104,1.9099,-0.2632,-0.6323,
6.186749,0.4512,-1.0465,-0.1097,-0.1719,-1.5934,-1.2551,1.9099,-0.2632,-0.6323,
6.188821,0.4512,-1.0465,-0.1097,-0.1719,-1.5934,-1.2551,1.7229,-0.1196,-0.7685,
6.194992,0.4512,-1.0465,-0.1097,-0.1719,-1.5934,-1.2551,1.5110,-0.1196,-0.8748,
6.204129,0.4051,-1.1481,-0.2012,-0.1719,-1.5934,-1.2551,1.5110,-0.1196,-0.8748,
6.206797,0.4051,-1.1481,-0.2012,-0.7460,-2.6636,-2.3976,1.5110,-0.1196,-0.8748,
6.208739,0.4051,-1.1481,-0.2012,-0.7460,-2.6636,-2.3976,1.2868,0.1235,-0.9139,
6.215393,0.4051,-1.1481,-0.2012,-0.7460,-2.6636,-2.3976,1.0675,0.1888,-0.9066,
6.223803,0.3694,-1.2454,-0.2553,-0.7460,-2.6636,-2.3976,1.0675,0.1888,-0.9066,
6.225672,0.3694,-1.2454,-0.2553,-1.2028,-3.6857,-3.0861,1.0675,0.1888,-0.9066,
6.227308,0.3694,-1.2454,-0.2553,-1.2028,-3.6857,-3.0861,0.8586,0.1772,-0.8705,
6.234871,0.3694,-1.2454,-0.2553,-1.2028,-3.6857,-3.0861,0.6704,0.1033,-0.8021,
6.243743,0.3431,-1.3265,-0.1904,-1.2028,-3.6857,-3.0861,0.6704,0.1033,-0.8021,
6.245912,0.3431,-1.3265,-0.1904,-1.5377,-4.5305,-2.5258,0.6704,0.1033,-0.8021,
6.248080,0.3431,-1.3265,-0.1904,-1.5377,-4.5305,-2.5258,0.5311,-0.0195,-0.7160,
6.254843,0.3431,-1.3265,-0.1904,-1.5377,-4.5305,-2.5258,0.4804,-0.1636,-0.6396,
6.265747,0.3112,-1.3185,0.0065,-1.5377,-4.5305,-2.5258,0.4804,-0.1636,-0.6396,
6.269290,0.3112,-1.3185,0.0065,-1.8904,-4.4776,-0.6161,0.4804,-0.1636,-0.6396,
6.271873,0.3112,-1.3185,0.0065,-1.8904,-4.4776,-0.6161,0.5421,-0.2766,-0.5865,
6.275141,0.3112,-1.3185,0.0065,-1.8904,-4.4776,-0.6161,0.6869,-0.2717,-0.5480,
6.283756,0.2295,-1.1708,0.1196,-1.8904,-4.4776,-0.6161,0.6869,-0.2717,-0.5480,
6.286304,0.2295,-1.1708,0.1196,-2.7039,-3.0407,0.4561,0.6869,-0.2717,-0.5480,
6.287932,0.2295,-1.1708,0.1196,-2.7039,-3.0407,0.4561,0.8616,-0.1251,-0.4863,
6.294983,0.2295,-1.1708,0.1196,-2.7039,-3.0407,0.4561,1.0131,0.0661,-0.3996,
6.303707,0.2314,-1.0192,-0.0331,-2.7039,-3.0407,0.4561,1.0131,0.0661,-0.3996,
6.306145,0.2314,-1.0192,-0.0331,-2.6696,-1.5556,-1.1501,1.0131,0.0661,-0.3996,
6.307744,0.2314,-1.0192,-0.0331,-2.6696,-1.5556,-1.1501,0.9575,0.1803,-0.2035,
6.314969,0.2314,-1.0192,-0.0331,-2.6696,-1.5556,-1.1501,0.6906,0.0935,-0.0917,
6.324071,0.2950,-0.8727,-0.3014,-2.6696,-1.5556,-1.1501,0.6906,0.0935,-0.0917,
6.326044,0.2950,-0.8727,-0.3014,-1.9861,-0.0922,-3.8564,0.6906,0.0935,-0.0917,
6.328107,0.2950,-0.8727,-0.3014,-1.9861,-0.0922,-3.8564,0.2874,0.0343,0.0073,
6.335017,0.2950,-0.8727,-0.3014,-1.9861,-0.0922,-3.8564,-0.1982,0.0954,0.0714,
6.343550,0.2963,-0.8115,-0.2715,-1.9861,-0.0922,-3.8564,-0.1982,0.0954,0.0714,
6.345411,0.2963,-0.8115,-0.2715,-1.8922,0.5615,-3.4862,-0.1982,0.0954,0.0714,
6.347489,0.2963,-0.8115,-0.2715,-1.8922,0.5615,-3.4862,-0.6961,0.3226,0.1209,
6.354776,0.2963,-0.8115,-0.2715,-1.8922,0.5615,-3.4862,-1.1237,0.6525,0.1856,
6.365566,0.2571,-0.7691,-0.1502,-1.8922,0.5615,-3.4862,-1.1237,0.6525,0.1856,
6.368045,0.2571,-0.7691,-0.1502,-2.1750,1.0499,-2.1007,-1.1237,0.6525,0.1856,
6.369924,0.2571,-0.7691,-0.1502,-2.1750,1.0499,-2.1007,-1.4499,1.0105,0.2602,
6.374578,0.2571,-0.7691,-0.1502,-2.1750,1.0499,-2.1007,-1.6692,1.3464,0.3274,
6.383639,0.2036,-0.7885,-0.0837,-2.1750,1.0499,-2.1007,-1.6692,1.3464,0.3274,
6.385966,0.2036,-0.7885,-0.0837,-2.5678,0.9439,-1.2161,-1.6692,1.3464,0.3274,
6.387418,0.2036,-0.7885,-0.0837,-2.5678,0.9439,-1.2161,-1.7969,1.6122,0.3860,
6.394606,0.2036,-0.7885,-0.0837,-2.5678,0.9439,-1.2161,-1.8500,1.7979,0.4404,
6.403868,0.1583,-0.8421,-0.0241,-2.5678,0.9439,-1.2161,-1.8500,1.7979,0.4404,
6.406541,0.1583,-0.8421,-0.0241,-2.8564,0.5056,-0.4157,-1.8500,1.7979,0.4404,
6.408315,0.1583,-0.8421,-0.0241,-2.8564,0.5056,-0.4157,-1.8354,1.9005,0.4831,
6.415592,0.1583,-0.8421,-0.0241,-2.8564,0.5056,-0.4157,-1.7376,1.9054,0.5247,
6.424320,0.1231,-0.8835,-0.0029,-2.8564,0.5056,-0.4157,-1.7376,1.9054,0.5247,
6.426581,0.1231,-0.8835,-0.0029,-3.0292,0.1860,-0.0266,-1.7376,1.9054,0.5247,
6.428412,0.1231,-0.8835,-0.0029,-3.0292,0.1860,-0.0266,-1.5586,1.8070,0.5644,
6.435118,0.1231,-0.8835,-0.0029,-3.0292,0.1860,-0.0266,-1.3656,1.5975,0.5809,
6.444386,0.1692,-0.9367,-0.1952,-3.0292,0.1860,-0.0266,-1.3656,1.5975,0.5809,
6.446839,0.1692,-0.9367,-0.1952,-2.4000,-0.2531,-1.7522,-1.3656,1.5975,0.5809,
6.449202,0.1692,-0.9367,-0.1952,-2.4000,-0.2531,-1.7522,-1.2410,1.2927,0.5430,
6.455295,0.1692,-0.9367,-0.1952,-2.4000,-0.2531,-1.7522,-1.2001,0.9396,0.4465,
6.465384,0.1181,-0.9771,-0.2856,-2.4000,-0.2531,-1.7522,-1.2001,0.9396,0.4465,
6.468527,0.1181,-0.9771,-0.2856,-2.7346,-0.5810,-2.4552,-1.2001,0.9396,0.4465,
6.471086,0.1181,-0.9771,-0.2856,-2.7346,-0.5810,-2.4552,-1.2086,0.5938,0.3377,
6.475068,0.1181,-0.9771,-0.2856,-2.7346,-0.5810,-2.4552,-1.2263,0.2939,0.2681,
6.484433,0.0221,-0.9701,-0.2844,-2.7346,-0.5810,-2.4552,-1.2263,0.2939,0.2681,
6.487047,0.0221,-0.9701,-0.2844,-3.5308,-0.4640,-2.2003,-1.2263,0.2939,0.2681,
6.489107,0.0221,-0.9701,-0.2844,-3.5308,-0.4640,-2.2003,-1.2245,0.0777,0.2870,
6.495219,0.0221,-0.9701,-0.2844,-3.5308,-0.4640,-2.2003,-1.1121,-0.1936,0.3371,
6.504026,-0.0247,-1.0024,-0.2941,-3.5308,-0.4640,-2.2003,-1.1121,-0.1936,0.3371,
6.506655,-0.0247,-1.0024,-0.2941,-3.8262,-0.7359,-2.0223,-1.1121,-0.1936,0.3371,
6.508777,-0.0247,-1.0024,-0.2941,-3.8262,-0.7359,-2.0223,-1.0107,-0.3267,0.3897,
6.516025,-0.0247,-1.0024,-0.2941,-3.8262,-0.7359,-2.0223,-0.8940,-0.4972,0.4422,
6.524377,-0.0610,-1.0757,-0.3613,-3.8262,-0.7359,-2.0223,-0.8940,-0.4972,0.4422,
6.526620,-0.0610,-1.0757,-0.3613,-3.9829,-1.4067,-2.4179,-0.8940,-0.4972,0.4422,
6.528417,-0.0610,-1.0757,-0.3613,-3.9829,-1.4067,-2.4179,-0.7694,-0.7177,0.4813,
6.535069,-0.0610,-1.0757,-0.3613,-3.9829,-1.4067,-2.4179,-0.6442,-0.9584,0.4905,
6.544417,-0.0227,-1.1090,-0.3302,-3.9829,-1.4067,-2.4179,-0.6442,-0.9584,0.4905,
6.546415,-0.0227,-1.1090,-0.3302,-3.3841,-1.6859,-1.8734,-0.6442,-0.9584,0.4905,
6.548819,-0.0227,-1.1090,-0.3302,-3.3841,-1.6859,-1.8734,-0.5263,-1.1270,0.4538,
6.554898,-0.0227,-1.1090,-0.3302,-3.3841,-1.6859,-1.8734,-0.4157,-1.1227,0.3445,
6.566451,-0.0138,-1.0105,-0.2417,-3.3841,-1.6859,-1.8734,-0.4157,-1.1227,0.3445,
6.569602,-0.0138,-1.0105,-0.2417,-3.0795,-0.6794,-0.8076,-0.4157,-1.1227,0.3445,
6.571985,-0.0138,-1.0105,-0.2417,-3.0795,-0.6794,-0.8076,-0.3082,-0.9419,0.1875,
6.575048,-0.0138,-1.0105,-0.2417,-3.0795,-0.6794,-0.8076,-0.1982,-0.6975,0.0940,
6.584350,0.0215,-0.9991,-0.2582,-3.0795,-0.6794,-0.8076,-0.1982,-0.6975,0.0940,
6.587059,0.0215,-0.9991,-0.2582,-2.5759,-0.5423,-0.8382,-0.1982,-0.6975,0.0940,
6.589043,0.0215,-0.9991,-0.2582,-2.5759,-0.5423,-0.8382,-0.0889,-0.5265,0.0879,
6.594992,0.0215,-0.9991,-0.2582,-2.5759,-0.5423,-0.8382,0.0033,-0.4831,0.0995,
6.604094,0.1915,-1.0488,-0.2596,-2.5759,-0.5423,-0.8382,0.0033,-0.4831,0.0995,
6.606820,0.1915,-1.0488,-0.2596,-0.7916,-1.0071,-0.7849,0.0033,-0.4831,0.0995,
6.608755,0.1915,-1.0488,-0.2596,-0.7916,-1.0071,-0.7849,0.0766,-0.5063,0.0873,
6.615804,0.1915,-1.0488,-0.2596,-0.7916,-1.0071,-0.7849,0.1481,-0.5295,0.0384,
6.623875,0.3401,-1.0351,-0.1617,-0.7916,-1.0071,-0.7849,0.1481,-0.5295,0.0384,
6.626164,0.3401,-1.0351,-0.1617,0.7385,-0.8560,0.1952,0.1481,-0.5295,0.0384,
6.627883,0.3401,-1.0351,-0.1617,0.7385,-0.8560,0.1952,0.2342,-0.5234,-0.0343,
6.634985,0.3401,-1.0351,-0.1617,0.7385,-0.8560,0.1952,0.3418,-0.4807,-0.1149,
6.644381,0.4709,-0.9562,-0.0050,0.7385,-0.8560,0.1952,0.3418,-0.4807,-0.1149,
6.646728,0.4709,-0.9562,-0.0050,2.0303,-0.0744,1.7018,0.3418,-0.4807,-0.1149,
6.649224,0.4709,-0.9562,-0.0050,2.0303,-0.0744,1.7018,0.4609,-0.4440,-0.1894,
6.654979,0.4709,-0.9562,-0.0050,2.0303,-0.0744,1.7018,0.6069,-0.5625,-0.2591,
6.666007,0.5940,-0.8785,0.0941,2.0303,-0.0744,1.7018,0.6069,-0.5625,-0.2591,
6.668753,0.5940,-0.8785,0.0941,3.1998,0.6931,2.5825,0.6069,-0.5625,-0.2591,
6.671022,0.5940,-0.8785,0.0941,3.1998,0.6931,2.5825,0.7712,-0.9223,-0.3147,
6.674898,0.5940,-0.8785,0.0941,3.1998,0.6931,2.5825,0.8793,-1.4654,-0.2817,
6.684950,0.5421,-0.8625,-0.1660,3.1998,0.6931,2.5825,0.8793,-1.4654,-0.2817,
6.687535,0.5421,-0.8625,-0.1660,2.6417,0.8537,-0.0694,0.8793,-1.4654,-0.2817,
6.689475,0.5421,-0.8625,-0.1660,2.6417,0.8537,-0.0694,0.7938,-1.2424,-0.1919,
6.694943,0.5421,-0.8625,-0.1660,2.6417,0.8537,-0.0694,0.6704,-0.8631,-0.1082,
6.704055,0.5767,-0.7679,-0.1978,2.6417,0.8537,-0.0694,0.6704,-0.8631,-0.1082,
6.706536,0.5767,-0.7679,-0.1978,2.9178,1.7770,-0.4645,0.6704,-0.8631,-0.1082,
6.708491,0.5767,-0.7679,-0.1978,2.9178,1.7770,-0.4645,0.5776,-0.5900,-0.0978,
6.715698,0.5767,-0.7679,-0.1978,2.9178,1.7770,-0.4645,0.5714,-0.5075,-0.1497,
6.723929,0.6534,-0.7359,0.0849,2.9178,1.7770,-0.4645,0.5714,-0.5075,-0.1497,
6.725945,0.6534,-0.7359,0.0849,3.5703,2.0763,2.2051,0.5714,-0.5075,-0.1497,
6.727875,0.6534,-0.7359,0.0849,3.5703,2.0763,2.2051,0.6955,-0.6334,-0.2273,
6.734919,0.6534,-0.7359,0.0849,3.5703,2.0763,2.2051,0.9306,-0.9669,-0.3085,
6.743925,0.6525,-0.7069,0.2353,3.5703,2.0763,2.2051,0.9306,-0.9669,-0.3085,
6.746175,0.6525,-0.7069,0.2353,3.4233,2.3385,3.5216,0.9306,-0.9669,-0.3085,
6.748584,0.6525,-0.7069,0.2353,3.4233,2.3385,3.5216,1.1762,-1.4275,-0.3886,
6.755166,0.6525,-0.7069,0.2353,3.4233,2.3385,3.5216,1.3503,-1.9180,-0.4649,
6.766307,0.6602,-0.7685,0.1973,3.4233,2.3385,3.5216,1.3503,-1.9180,-0.4649,
6.768860,0.6602,-0.7685,0.1973,3.3414,1.7074,2.9497,1.3503,-1.9180,-0.4649,
6.771219,0.6602,-0.7685,0.1973,3.3414,1.7074,2.9497,1.3845,-2.3579,-0.5193,
6.774878,0.6602,-0.7685,0.1973,3.3414,1.7074,2.9497,1.2538,-2.5692,-0.5364,
6.783815,0.8258,-0.9942,0.2402,3.3414,1.7074,2.9497,1.2538,-2.5692,-0.5364,
6.787179,0.8258,-0.9942,0.2402,4.7957,-0.5467,3.2057,1.2538,-2.5692,-0.5364,
6.789582,0.8258,-0.9942,0.2402,4.7957,-0.5467,3.2057,1.0687,-2.4171,-0.5315,
6.794962,0.8258,-0.9942,0.2402,4.7957,-0.5467,3.2057,1.0021,-1.8979,-0.5278,
6.805482,0.9420,-1.0190,0.2709,4.7957,-0.5467,3.2057,1.0021,-1.8979,-0.5278,
6.807508,0.9420,-1.0190,0.2709,5.7521,-0.8463,3.3775,1.0021,-1.8979,-0.5278,
6.809465,0.9420,-1.0190,0.2709,5.7521,-0.8463,3.3775,1.1096,-1.1899,-0.5193,
6.815949,0.9420,-1.0190,0.2709,5.7521,-0.8463,3.3775,1.2379,-0.5662,-0.4729,
6.823678,0.8109,-0.7360,-0.0658,5.7521,-0.8463,3.3775,1.2379,-0.5662,-0.4729,
6.825960,0.8109,-0.7360,-0.0658,4.2605,1.8605,-0.1302,1.2379,-0.5662,-0.4729,
6.827640,0.8109,-0.7360,-0.0658,4.2605,1.8605,-0.1302,1.2165,-0.2314,-0.4197,
6.834571,0.8109,-0.7360,-0.0658,4.2605,1.8605,-0.1302,1.0485,-0.1954,-0.3965,
6.843718,0.5817,-0.6646,0.0292,4.2605,1.8605,-0.1302,1.0485,-0.1954,-0.3965,
6.845609,0.5817,-0.6646,0.0292,1.8250,2.4904,0.5707,1.0485,-0.1954,-0.3965,
6.847657,0.5817,-0.6646,0.0292,1.8250,2.4904,0.5707,0.8414,-0.3622,-0.3574,
6.854438,0.5817,-0.6646,0.0292,1.8250,2.4904,0.5707,0.6496,-0.4507,-0.1021,
6.866073,0.4969,-0.7729,-0.0149,1.8250,2.4904,0.5707,0.6496,-0.4507,-0.1021,
6.868365,0.4969,-0.7729,-0.0149,0.8571,1.3727,0.0093,0.6496,-0.4507,-0.1021,
6.869957,0.4969,-0.7729,-0.0149,0.8571,1.3727,0.0093,0.2031,-0.1746,0.0286,
6.874483,0.4969,-0.7729,-0.0149,0.8571,1.3727,0.0093,-0.0962,0.1601,0.1056,
6.883575,0.6331,-0.8936,-0.2034,0.8571,1.3727,0.0093,-0.0962,0.1601,0.1056,
6.885673,0.6331,-0.8936,-0.2034,2.1170,0.1562,-1.8456,-0.0962,0.1601,0.1056,
6.886970,0.6331,-0.8936,-0.2034,2.1170,0.1562,-1.8456,-0.3852,0.4650,0.1343,
6.894648,0.6331,-0.8936,-0.2034,2.1170,0.1562,-1.8456,-0.5996,0.7154,0.1484,
6.903522,0.6511,-0.8762,-0.1218,2.1170,0.1562,-1.8456,-0.5996,0.7154,0.1484,
6.905298,0.6511,-0.8762,-0.1218,2.2348,0.2983,-0.9960,-0.5996,0.7154,0.1484,
6.906503,0.6511,-0.8762,-0.1218,2.2348,0.2983,-0.9960,-0.7138,0.9109,0.1618,
6.915179,0.6511,-0.8762,-0.1218,2.2348,0.2983,-0.9960,-0.7340,1.0764,0.1667,
6.923535,0.6095,-0.8400,-0.0435,2.2348,0.2983,-0.9960,-0.7340,1.0764,0.1667,
6.924993,0.6095,-0.8400,-0.0435,1.7765,0.6271,-0.1744,-0.7340,1.0764,0.1667,
6.926230,0.6095,-0.8400,-0.0435,1.7765,0.6271,-0.1744,-0.6784,1.2182,0.1569,
6.934759,0.6095,-0.8400,-0.0435,1.7765,0.6271,-0.1744,-0.5892,1.3110,0.1325,
6.943859,0.5224,-0.8569,-0.0915,1.7765,0.6271,-0.1744,-0.5892,1.3110,0.1325,
6.945220,0.5224,-0.8569,-0.0915,0.8779,0.4399,-0.6264,-0.5892,1.3110,0.1325,
6.946925,0.5224,-0.8569,-0.0915,0.8779,0.4399,-0.6264,-0.5165,1.3391,0.1093,
6.955120,0.5224,-0.8569,-0.0915,0.8779,0.4399,-0.6264,-0.4835,1.3061,0.1044,
6.965899,0.4152,-0.8859,-0.0784,0.8779,0.4399,-0.6264,-0.4835,1.3061,0.1044,
6.968585,0.4152,-0.8859,-0.0784,-0.1965,0.1453,-0.5104,-0.4835,1.3061,0.1044,
6.971109,0.4152,-0.8859,-0.0784,-0.1965,0.1453,-0.5104,-0.4713,1.2353,0.1233,
6.975203,0.4152,-0.8859,-0.0784,-0.1965,0.1453,-0.5104,-0.4499,1.1583,0.1618,
6.984536,0.3255,-0.8926,0.0053,-0.1965,0.1453,-0.5104,-0.4499,1.1583,0.1618,
6.987197,0.3255,-0.8926,0.0053,-1.0671,0.0838,0.2930,-0.4499,1.1583,0.1618,
6.989029,0.3255,-0.8926,0.0053,-1.0671,0.0838,0.2930,-0.4011,1.0978,0.2107,
6.994789,0.3255,-0.8926,0.0053,-1.0671,0.0838,0.2930,-0.3320,1.0453,0.2559,
7.003950,0.2978,-0.8790,0.0462,-1.0671,0.0838,0.2930,-0.3320,1.0453,0.2559,
7.006302,0.2978,-0.8790,0.0462,-1.3041,0.2340,0.6678,-0.3320,1.0453,0.2559,
7.007863,0.2978,-0.8790,0.0462,-1.3041,0.2340,0.6678,-0.2544,0.9793,0.2828,
7.015967,0.2978,-0.8790,0.0462,-1.3041,0.2340,0.6678,-0.1854,0.8871,0.2767,
7.023836,0.3632,-0.8262,0.0261,-1.3041,0.2340,0.6678,-0.1854,0.8871,0.2767,
7.025701,0.3632,-0.8262,0.0261,-0.6187,0.7734,0.4314,-0.1854,0.8871,0.2767,
7.026966,0.3632,-0.8262,0.0261,-0.6187,0.7734,0.4314,-0.1378,0.7771,0.2339,
7.034909,0.3632,-0.8262,0.0261,-0.6187,0.7734,0.4314,-0.1115,0.6733,0.1630,
7.043924,0.4868,-0.7690,0.0363,-0.6187,0.7734,0.4314,-0.1115,0.6733,0.1630,
7.047309,0.4868,-0.7690,0.0363,0.6199,1.3482,0.4898,-0.1115,0.6733,0.1630,
7.049453,0.4868,-0.7690,0.0363,0.6199,1.3482,0.4898,-0.0132,0.5486,-0.0227,
7.054950,0.4868,-0.7690,0.0363,0.6199,1.3482,0.4898,0.0974,0.5376,-0.1699,
7.066492,0.6666,-0.7176,0.0225,0.6199,1.3482,0.4898,0.0974,0.5376,-0.1699,
7.069200,0.6666,-0.7176,0.0225,2.3337,1.8290,0.2969,0.0974,0.5376,-0.1699,
7.071646,0.6666,-0.7176,0.0225,2.3337,1.8290,0.2969,0.2202,0.5615,-0.3696,
7.075038,0.6666,-0.7176,0.0225,2.3337,1.8290,0.2969,0.2984,0.6055,-0.6030,
7.084412,0.5673,-0.8093,-0.1404,2.3337,1.8290,0.2969,0.2984,0.6055,-0.6030,
7.087084,0.5673,-0.8093,-0.1404,1.2434,0.8751,-1.3834,0.2984,0.6055,-0.6030,
7.089149,0.5673,-0.8093,-0.1404,1.2434,0.8751,-1.3834,0.2874,0.6708,-0.8070,
7.094754,0.5673,-0.8093,-0.1404,1.2434,0.8751,-1.3834,0.1964,0.7179,-0.9182,
7.104276,0.4197,-0.9287,-0.2420,1.2434,0.8751,-1.3834,0.1964,0.7179,-0.9182,
7.106541,0.4197,-0.9287,-0.2420,-0.3672,-0.3787,-2.4542,0.1964,0.7179,-0.9182,
7.108124,0.4197,-0.9287,-0.2420,-0.3672,-0.3787,-2.4542,0.0180,0.8755,-0.9585,
7.116270,0.4197,-0.9287,-0.2420,-0.3672,-0.3787,-2.4542,-0.1469,1.1045,-0.9280,
7.123810,0.2631,-1.0737,-0.2002,-0.3672,-0.3787,-2.4542,-0.1469,1.1045,-0.9280,
7.125745,0.2631,-1.0737,-0.2002,-2.0492,-1.8772,-2.0791,-0.1469,1.1045,-0.9280,
7.127389,0.2631,-1.0737,-0.2002,-2.0492,-1.8772,-2.0791,-0.2465,1.3312,-0.8125,
7.134744,0.2631,-1.0737,-0.2002,-2.0492,-1.8772,-2.0791,-0.2880,1.5175,-0.6256,
7.143791,0.2029,-1.2218,-0.1779,-2.0492,-1.8772,-2.0791,-0.2880,1.5175,-0.6256,
7.146034,0.2029,-1.2218,-0.1779,-2.7077,-3.3655,-1.8894,-0.2880,1.5175,-0.6256,
7.148060,0.2029,-1.2218,-0.1779,-2.7077,-3.3655,-1.8894,-0.2679,1.6012,-0.3983,
7.154728,0.2029,-1.2218,-0.1779,-2.7077,-3.3655,-1.8894,-0.2153,1.6164,-0.1864,
7.166113,0.2432,-1.2508,-0.0960,-2.7077,-3.3655,-1.8894,-0.2153,1.6164,-0.1864,
7.168584,0.2432,-1.2508,-0.0960,-2.2885,-3.6384,-1.1436,-0.2153,1.6164,-0.1864,
7.170704,0.2432,-1.2508,-0.0960,-2.2885,-3.6384,-1.1436,-0.1225,1.5731,-0.0373,
7.174665,0.2432,-1.2508,-0.0960,-2.2885,-3.6384,-1.1436,0.0290,1.4808,0.0232,
7.183928,0.2673,-1.1215,0.0867,-2.2885,-3.6384,-1.1436,0.0290,1.4808,0.0232,
7.186306,0.2673,-1.1215,0.0867,-1.9733,-2.3310,0.5494,0.0290,1.4808,0.0232,
7.187967,0.2673,-1.1215,0.0867,-1.9733,-2.3310,0.5494,0.2459,1.4124,0.0024,
7.194727,0.2673,-1.1215,0.0867,-1.9733,-2.3310,0.5494,0.5195,1.4368,-0.0709,
7.203756,0.2416,-0.9088,0.2669,-1.9733,-2.3310,0.5494,0.5195,1.4368,-0.0709,
7.205954,0.2416,-0.9088,0.2669,-2.1472,-0.2146,2.1289,0.5195,1.4368,-0.0709,
7.207540,0.2416,-0.9088,0.2669,-2.1472,-0.2146,2.1289,0.8286,1.6128,-0.1577,
7.216016,0.2416,-0.9088,0.2669,-2.1472,-0.2146,2.1289,1.1237,1.9213,-0.2096,
7.223771,0.2013,-0.7164,0.2686,-2.1472,-0.2146,2.1289,1.1237,1.9213,-0.2096,
7.225666,0.2013,-0.7164,0.2686,-2.4805,1.6776,1.8120,1.1237,1.9213,-0.2096,
7.227254,0.2013,-0.7164,0.2686,-2.4805,1.6776,1.8120,1.5482,2.3067,-0.1699,
7.235021,0.2013,-0.7164,0.2686,-2.4805,1.6776,1.8120,1.5946,2.0636,-0.0721,
7.243789,0.1598,-0.6546,0.0789,-2.4805,1.6776,1.8120,1.5946,2.0636,-0.0721,
7.245735,0.1598,-0.6546,0.0789,-2.7926,2.2764,-0.5029,1.5946,2.0636,-0.0721,
7.247885,0.1598,-0.6546,0.0789,-2.7926,2.2764,-0.5029,1.3643,1.2542,0.0934,
7.254949,0.1598,-0.6546,0.0789,-2.7926,2.2764,-0.5029,0.7248,-0.0940,0.2950,
7.266956,0.2146,-0.9742,0.1683,-2.7926,2.2764,-0.5029,0.7248,-0.0940,0.2950,
7.269527,0.2146,-0.9742,0.1683,-2.1345,-0.8303,0.1551,0.7248,-0.0940,0.2950,
7.271874,0.2146,-0.9742,0.1683,-2.1345,-0.8303,0.1551,0.0406,-1.2943,0.4550,
7.274966,0.2146,-0.9742,0.1683,-2.1345,-0.8303,0.1551,-0.3216,-1.8893,0.5393,
7.287816,0.2927,-1.0627,0.2489,-2.1345,-0.8303,0.1551,-0.3216,-1.8893,0.5393,
7.290529,0.2927,-1.0627,0.2489,-1.2619,-1.6224,1.0956,-0.3216,-1.8893,0.5393,
7.292519,0.2927,-1.0627,0.2489,-1.2619,-1.6224,1.0956,-0.4701,-2.1062,0.5577,
7.294962,0.2927,-1.0627,0.2489,-1.2619,-1.6224,1.0956,-0.5067,-2.1257,0.5180,
7.304060,0.3283,-0.9833,0.1852,-1.2619,-1.6224,1.0956,-0.5067,-2.1257,0.5180,
7.306767,0.3283,-0.9833,0.1852,-0.8168,-0.7666,0.7129,-0.5067,-2.1257,0.5180,
7.308674,0.3283,-0.9833,0.1852,-0.8168,-0.7666,0.7129,-0.4860,-2.0420,0.4446,
7.316961,0.3283,-0.9833,0.1852,-0.8168,-0.7666,0.7129,-0.4450,-1.8991,0.3811,
7.324031,0.2686,-0.8642,0.0680,-0.8168,-0.7666,0.7129,-0.4450,-1.8991,0.3811,
7.326122,0.2686,-0.8642,0.0680,-1.3246,0.4604,-0.2101,-0.4450,-1.8991,0.3811,
7.327908,0.2686,-0.8642,0.0680,-1.3246,0.4604,-0.2101,-0.4145,-1.7329,0.3573,
7.334956,0.2686,-0.8642,0.0680,-1.3246,0.4604,-0.2101,-0.4114,-1.5747,0.3909,
7.344012,0.2271,-0.8076,-0.0222,-1.3246,0.4604,-0.2101,-0.4114,-1.5747,0.3909,
7.345875,0.2271,-0.8076,-0.0222,-1.6532,1.0671,-0.9002,-0.4114,-1.5747,0.3909,
7.349012,0.2271,-0.8076,-0.0222,-1.6532,1.0671,-0.9002,-0.4273,-1.4513,0.4691,
7.354973,0.2271,-0.8076,-0.0222,-1.6532,1.0671,-0.9002,-0.4548,-1.3689,0.5797,
7.367086,0.2212,-0.8435,-0.0674,-1.6532,1.0671,-0.9002,-0.4548,-1.3689,0.5797,
7.370257,0.2212,-0.8435,-0.0674,-1.5995,0.7746,-1.1554,-0.4548,-1.3689,0.5797,
7.372638,0.2212,-0.8435,-0.0674,-1.5995,0.7746,-1.1554,-0.4835,-1.3169,0.7079,
7.374797,0.2212,-0.8435,-0.0674,-1.5995,0.7746,-1.1554,-0.5025,-1.2723,0.8319,
7.383848,0.2503,-0.9207,-0.0689,-1.5995,0.7746,-1.1554,-0.5025,-1.2723,0.8319,
7.386514,0.2503,-0.9207,-0.0689,-1.1595,0.0894,-0.9810,-0.5025,-1.2723,0.8319,
7.388394,0.2503,-0.9207,-0.0689,-1.1595,0.0894,-0.9810,-0.5073,-1.2137,0.9364,
7.394773,0.2503,-0.9207,-0.0689,-1.1595,0.0894,-0.9810,-0.5012,-1.1373,1.0066,
7.403498,0.3120,-0.9857,-0.0439,-1.1595,0.0894,-0.9810,-0.5012,-1.1373,1.0066,
7.405434,0.3120,-0.9857,-0.0439,-0.3686,-0.4715,-0.5577,-0.5012,-1.1373,1.0066,
7.406714,0.3120,-0.9857,-0.0439,-0.3686,-0.4715,-0.5577,-0.4915,-1.0304,1.0183,
7.415829,0.3120,-0.9857,-0.0439,-0.3686,-0.4715,-0.5577,-0.4548,-0.6835,0.9077,
7.423517,0.3227,-0.9925,0.0213,-0.3686,-0.4715,-0.5577,-0.4548,-0.6835,0.9077,
7.424959,0.3227,-0.9925,0.0213,-0.0803,-0.4716,0.2244,-0.4548,-0.6835,0.9077,
7.426203,0.3227,-0.9925,0.0213,-0.0803,-0.4716,0.2244,-0.4182,-0.4636,0.8405,
7.434639,0.3227,-0.9925,0.0213,-0.0803,-0.4716,0.2244,-0.3711,-0.2388,0.7977,
7.443222,0.3076,-0.8813,0.0225,-0.0803,-0.4716,0.2244,-0.3711,-0.2388,0.7977,
7.444329,0.3076,-0.8813,0.0225,-0.0751,0.6696,0.3296,-0.3711,-0.2388,0.7977,
7.445182,0.3076,-0.8813,0.0225,-0.0751,0.6696,0.3296,-0.3442,-0.0415,0.7757,
7.454188,0.3076,-0.8813,0.0225,-0.0751,0.6696,0.3296,-0.3791,0.0917,0.7537,
7.463261,0.3345,-0.8286,-0.0854,-0.0751,0.6696,0.3296,-0.3791,0.0917,0.7537,
7.464696,0.3345,-0.8286,-0.0854,0.3294,1.2314,-0.6615,-0.3791,0.0917,0.7537,
7.465579,0.3345,-0.8286,-0.0854,0.3294,1.2314,-0.6615,-0.4866,0.1430,0.7177,
7.474137,0.3345,-0.8286,-0.0854,0.3294,1.2314,-0.6615,-0.6338,0.1143,0.6835,
7.483208,0.3054,-0.8421,-0.0606,0.3294,1.2314,-0.6615,-0.6338,0.1143,0.6835,
7.484733,0.3054,-0.8421,-0.0606,0.1708,1.1351,-0.3207,-0.6338,0.1143,0.6835,
7.485468,0.3054,-0.8421,-0.0606,0.1708,1.1351,-0.3207,-0.7541,-0.0256,0.6652,
7.494168,0.3054,-0.8421,-0.0606,0.1708,1.1351,-0.3207,-0.8452,-0.1868,0.6432,
7.503033,0.2858,-0.8645,-0.0592,0.1708,1.1351,-0.3207,-0.8452,-0.1868,0.6432,
7.504470,0.2858,-0.8645,-0.0592,0.0967,0.9447,-0.1519,-0.8452,-0.1868,0.6432,
7.505156,0.2858,-0.8645,-0.0592,0.0967,0.9447,-0.1519,-0.9178,-0.2815,0.6181,
7.515295,0.2858,-0.8645,-0.0592,0.0967,0.9447,-0.1519,-0.9679,-0.3053,0.5961,
7.523649,0.2853,-0.8493,-0.1108,0.0967,0.9447,-0.1519,-0.9679,-0.3053,0.5961,
7.525851,0.2853,-0.8493,-0.1108,0.2012,1.1130,-0.4626,-0.9679,-0.3053,0.5961,
7.527294,0.2853,-0.8493,-0.1108,0.2012,1.1130,-0.4626,-0.9930,-0.3347,0.5742,
7.534804,0.2853,-0.8493,-0.1108,0.2012,1.1130,-0.4626,-0.9924,-0.4159,0.5454,
7.543660,0.2955,-0.8300,-0.0800,0.2012,1.1130,-0.4626,-0.9924,-0.4159,0.5454,
7.545253,0.2955,-0.8300,-0.0800,0.3976,1.3128,0.0417,-0.9924,-0.4159,0.5454,
7.546856,0.2955,-0.8300,-0.0800,0.3976,1.3128,0.0417,-0.9545,-0.5540,0.5063,
7.554867,0.2955,-0.8300,-0.0800,0.3976,1.3128,0.0417,-0.8604,-0.7519,0.4501,
7.563606,0.3464,-0.8755,0.0222,0.3976,1.3128,0.0417,-0.8604,-0.7519,0.4501,
7.565563,0.3464,-0.8755,0.0222,0.9740,0.8694,1.2305,-0.8604,-0.7519,0.4501,
7.567109,0.3464,-0.8755,0.0222,0.9740,0.8694,1.2305,-0.7163,-0.9388,0.3695,
7.575120,0.3464,-0.8755,0.0222,0.9740,0.8694,1.2305,-0.5813,-1.0176,0.2779,
7.584166,0.4795,-1.0591,0.0761,0.9740,0.8694,1.2305,-0.5813,-1.0176,0.2779,
7.587420,0.4795,-1.0591,0.0761,2.3120,-0.9356,1.8853,-0.5813,-1.0176,0.2779,
7.589422,0.4795,-1.0591,0.0761,2.3120,-0.9356,1.8853,-0.4902,-1.0396,0.1746,
7.594912,0.4795,-1.0591,0.0761,2.3120,-0.9356,1.8853,-0.4603,-1.2901,-0.0770,
7.604512,0.6397,-1.2355,0.1539,2.3120,-0.9356,1.8853,-0.4603,-1.2901,-0.0770,
7.606971,0.6397,-1.2355,0.1539,3.8559,-2.6811,2.7291,-0.4603,-1.2901,-0.0770,
7.608923,0.6397,-1.2355,0.1539,3.8559,-2.6811,2.7291,-0.4786,-1.4874,-0.1760,
7.617767,0.6397,-1.2355,0.1539,3.8559,-2.6811,2.7291,-0.4756,-1.5967,-0.2004,
7.624235,0.6160,-0.9545,0.2207,3.8559,-2.6811,2.7291,-0.4756,-1.5967,-0.2004,
7.626311,0.6160,-0.9545,0.2207,3.5483,0.0419,3.4639,-0.4756,-1.5967,-0.2004,
7.628218,0.6160,-0.9545,0.2207,3.5483,0.0419,3.4639,-0.4340,-1.5320,-0.1497,
7.634976,0.6160,-0.9545,0.2207,3.5483,0.0419,3.4639,-0.3742,-1.3243,-0.0837,
7.644374,0.5086,-0.7147,0.0860,3.5483,0.0419,3.4639,-0.3742,-1.3243,-0.0837,
7.646576,0.5086,-0.7147,0.0860,2.4212,2.3635,2.2011,-0.3742,-1.3243,-0.0837,
7.648786,0.5086,-0.7147,0.0860,2.4212,2.3635,2.2011,-0.3277,-1.0604,-0.0410,
7.655034,0.5086,-0.7147,0.0860,2.4212,2.3635,2.2011,-0.2599,-0.7519,-0.0233,
7.665052,0.4108,-0.6610,-0.0202,2.4212,2.3635,2.2011,-0.2599,-0.7519,-0.0233,
7.667266,0.4108,-0.6610,-0.0202,1.3877,2.8663,1.1823,-0.2599,-0.7519,-0.0233,
7.669318,0.4108,-0.6610,-0.0202,1.3877,2.8663,1.1823,-0.1628,-0.4080,-0.0288,
7.674949,0.4108,-0.6610,-0.0202,1.3877,2.8663,1.1823,-0.0712,-0.1123,-0.0587,
7.684208,0.3927,-0.7839,-0.2036,1.3877,2.8663,1.1823,-0.0712,-0.1123,-0.0587,
7.687186,0.3927,-0.7839,-0.2036,1.1248,1.6394,-0.6296,-0.0712,-0.1123,-0.0587,
7.689375,0.3927,-0.7839,-0.2036,1.1248,1.6394,-0.6296,-0.0132,0.0667,-0.0795,
7.694920,0.3927,-0.7839,-0.2036,1.1248,1.6394,-0.6296,0.0101,0.1620,-0.0911,
7.704414,0.7361,-1.3400,-0.2152,1.1248,1.6394,-0.6296,0.0101,0.1620,-0.0911,
7.707317,0.7361,-1.3400,-0.2152,4.3904,-3.8356,-0.7779,0.0101,0.1620,-0.0911,
7.709232,0.7361,-1.3400,-0.2152,4.3904,-3.8356,-0.7779,-0.0046,0.2188,-0.1552,
7.717758,0.7361,-1.3400,-0.2152,4.3904,-3.8356,-0.7779,-0.0345,0.1540,-0.2750,
7.724833,1.1145,-1.9180,-0.0358,4.3904,-3.8356,-0.7779,-0.0345,0.1540,-0.2750,
7.727020,1.1145,-1.9180,-0.0358,7.9805,-9.5316,0.9414,-0.0345,0.1540,-0.2750,
7.729347,1.1145,-1.9180,-0.0358,7.9805,-9.5316,0.9414,-0.0675,-0.1667,-0.3843,
7.735977,1.1145,-1.9180,-0.0358,7.9805,-9.5316,0.9414,-0.0810,-0.7446,-0.3837,
7.743655,0.8971,-1.0389,0.3880,7.9805,-9.5316,0.9414,-0.0810,-0.7446,-0.3837,
7.745574,0.8971,-1.0389,0.3880,5.6945,-0.9628,5.0656,-0.0810,-0.7446,-0.3837,
7.747732,0.8971,-1.0389,0.3880,5.6945,-0.9628,5.0656,0.1383,-1.0842,-0.2157,
7.754710,0.8971,-1.0389,0.3880,5.6945,-0.9628,5.0656,0.4871,-0.7995,-0.0624,
7.763990,0.4880,-0.5006,-0.3141,5.6945,-0.9628,5.0656,0.4871,-0.7995,-0.0624,
7.766007,0.4880,-0.5006,-0.3141,1.5811,4.2819,-1.8489,0.4871,-0.7995,-0.0624,
7.767806,0.4880,-0.5006,-0.3141,1.5811,4.2819,-1.8489,0.5146,-0.1190,-0.0080,
7.775272,0.4880,-0.5006,-0.3141,1.5811,4.2819,-1.8489,0.3082,0.4674,-0.0300,
7.784299,0.2419,-0.3264,-0.3754,1.5811,4.2819,-1.8489,0.3082,0.4674,-0.0300,
7.787109,0.2419,-0.3264,-0.3754,-0.9351,5.9622,-2.5285,0.3082,0.4674,-0.0300,
7.789087,0.2419,-0.3264,-0.3754,-0.9351,5.9622,-2.5285,-0.1176,0.6928,-0.0899,
7.794737,0.2419,-0.3264,-0.3754,-0.9351,5.9622,-2.5285,-0.1879,0.3104,-0.1766,
7.803678,0.4212,-0.7239,-0.2191,-0.9351,5.9622,-2.5285,-0.1879,0.3104,-0.1766,
7.805786,0.4212,-0.7239,-0.2191,0.7026,2.0210,-0.9831,-0.1879,0.3104,-0.1766,
7.807491,0.4212,-0.7239,-0.2191,0.7026,2.0210,-0.9831,-0.1488,-0.1936,-0.2804,
7.817905,0.4212,-0.7239,-0.2191,0.7026,2.0210,-0.9831,-0.0333,-0.5454,-0.3250,
7.823522,0.5654,-0.9849,-0.0597,0.7026,2.0210,-0.9831,-0.0333,-0.5454,-0.3250,
7.825372,0.5654,-0.9849,-0.0597,1.9974,-0.5888,0.6251,-0.0333,-0.5454,-0.3250,
7.826959,0.5654,-0.9849,-0.0597,1.9974,-0.5888,0.6251,0.0889,-0.6798,-0.3287,
