time,gFx,gFy,gFz,ax,ay,az,wx,wy,wz
,0.164,-0.351,-0.707,-0.53,-0.06,-0.21,-0.44,0.92,0.55
2022-01-30 16:28:10.1140,0.127,-0.324,-0.66,-0.61,-0.7,-1.26,-0.44,0.92,0.55
2022-01-30 16:28:10.1220,0.215,-0.244,-0.628,-0.95,-1.49,-2.79,0.26,0.55,0.5
2022-01-30 16:28:10.1270,0.265,-0.259,-0.729,-1.7,-1.89,-2.12,0.59,0.23,0.58
2022-01-30 16:28:10.1380,0.236,-0.398,-0.866,-1.67,-0.88,-0.87,0.88,-0.04,0.78
2022-01-30 16:28:10.1480,0.151,-0.493,-1.023,-0.15,0.41,1.84,0.97,-0.39,1.03
Time,0.064,-0.473,-1.048,0.33,0.09,0.32,0.9,-0.34,1.23
2022-01-30 16:28:10.1690,0.008,-0.481,-0.838,0.33,0.09,0.32,0.72,0.09,1.53
2022-01-30 16:28:10.1790,0.034,-0.479,-0.653,-0.42,-0.32,-3.13,0.47,0.72,1.76
2022-01-30 16:28:10.1890,0.136,-0.411,-0.538,-0.42,-0.32,-3.13,0.47,0.72,1.76
2022-01-30 16:28:10.1990,0.219,-0.382,-0.667,-1.35,-0.88,-2.9,-0.11,1.1,1.89
2022-01-30 16:28:10.2170,0.248,-0.431,-1.004,-1.88,0.23,3.23,-0.41,0.35,1.86
2022-01-30 16:28:10.2190,0.235,-0.536,-1.304,-1.88,0.23,3.23,-0.65,-0.72,1.81
2022-01-30 16:28:10.2290,0.172,-0.623,-1.366,-1.6,1.27,4.83,-0.76,-1.56,1.8
2022-01-30 16:28:10.2390,0.063,-0.676,-1.199,-0.88,1.96,3.81,-0.72,-1.89,1.87
2022-01-30 16:28:10.2480,-0.043,-0.666,-0.998,0.0,2.25,1.69,-0.72,-1.89,1.87
2022-01-30 16:28:10.2590,-0.085,-0.569,-0.888,0.45,1.59,0.27,-0.64,-1.84,1.95
2022-01-30 16:28:10.2690,-0.029,-0.492,-0.724,-0.93,0.29,-2.67,-0.86,0.12,1.97
2022-01-30 16:28:10.2790,0.047,-0.447,-0.672,-0.93,0.29,-2.67,-0.8,0.89,1.97
2022-01-30 16:28:10.2890,0.029,-0.406,-0.824,-0.59,-0.25,-0.65,-0.69,1.63,1.97
2022-01-30 16:28:10.2990,-0.019,-0.385,-0.868,-0.59,-0.25,-0.65,-0.57,2.19,1.94
2022-01-30 16:28:10.3180,-0.061,-0.35,-0.962,0.34,-0.98,1.28,-0.45,2.39,1.85
2022-01-30 16:28:10.3200,-0.076,-0.282,-1.11,0.34,-0.98,1.28,-0.3,2.05,1.91
2022-01-30 16:28:10.3290,-0.127,-0.331,-1.19,0.81,-1.01,2.64,-0.22,1.77,1.97
2022-01-30 16:28:10.3390,-0.122,-0.335,-1.074,1.19,-0.41,2.1,-0.2,1.6,1.9
2022-01-30 16:28:10.3490,-0.071,-0.315,-0.923,0.81,-0.86,0.52,-0.14,1.38,1.8
2022-01-30 16:28:10.3590,0.012,-0.335,-0.825,0.26,-0.55,-0.57,-0.07,1.19,1.58
2022-01-30 16:28:10.3690,0.134,-0.286,-0.764,-0.86,-0.83,-1.5,-0.07,1.19,1.58
2022-01-30 16:28:10.3790,0.15,-0.247,-0.903,-0.72,-1.49,0.43,-0.49,0.2,0.97
2022-01-30 16:28:10.3890,0.022,-0.23,-0.95,-0.72,-1.49,0.43,-0.68,-0.26,0.87
2022-01-30 16:28:10.4000,-0.111,-0.202,-0.793,0.67,-1.59,-0.68,-0.63,-0.2,0.77
2022-01-30 16:28:10.4100,-0.189,-0.131,-0.691,1.58,-2.12,-2.08,-0.44,0.1,0.6
2022-01-30 16:28:10.4190,-0.208,-0.088,-0.682,1.98,-2.68,-2.46,-0.44,0.1,0.6
2022-01-30 16:28:10.4300,-0.189,-0.093,-0.709,1.89,-2.75,-2.31,0.02,0.46,0.41
2022-01-30 16:28:10.4400,-0.151,-0.128,-0.715,1.64,-2.52,-2.03,0.02,0.46,0.41
2022-01-30 16:28:10.4500,-0.089,-0.194,-0.654,1.13,-1.95,-2.49,0.47,0.46,0.68
2022-01-30 16:28:10.4590,-0.016,-0.229,-0.664,0.43,-1.5,-2.75,0.6,0.21,0.77
2022-01-30 16:28:10.4700,0.005,-0.25,-0.696,-0.03,-1.35,-2.23,0.69,0.07,0.73
2022-01-30 16:28:10.4790,-0.016,-0.284,-0.651,0.07,-1.11,-2.67,0.73,-0.14,0.58
2022-01-30 16:28:10.4900,-0.002,-0.306,-0.767,0.12,-0.94,-1.98,0.77,-0.44,0.35
2022-01-30 16:28:10.4990,0.012,-0.364,-0.824,-0.23,-0.55,-1.04,0.77,-0.76,0.15
2022-01-30 16:28:10.5090,-0.028,-0.402,-0.881,-0.05,-0.14,-0.6,0.71,-1.08,0.03
2022-01-30 16:28:10.5200,-0.068,-0.414,-0.952,0.6642917914688587,-0.04,0.44,0.56,-1.12,-0.03
2022-01-30 16:28:10.5300,-0.13,-0.407,-0.954,0.66,-0.04,0.44,0.47,-0.99,-0.05
2022-01-30 16:28:10.5400,-0.182,-0.341,-0.964,1.18,-0.46,0.57,0.42,-0.64,-0.11
2022-01-30 16:28:10.5490,-0.256,-0.267,-0.969,1.71,-1.37,0.52,0.35,-0.29,-0.14
2022-01-30 16:28:10.5600,-0.3,-0.238,-1.041,2.35,-1.73,1.08,0.26,-0.1,-0.17
2022-01-30 16:28:10.5700,-0.296,-0.204,-1.092,2.24,-2.36,2.1,0.2,-0.09,-0.27
2022-01-30 16:28:10.5800,-0.27,-0.18,-1.128,2.24,-2.36,2.1,0.2,-0.23,-0.44
2022-01-30 16:28:10.5900,-0.244,-0.139,-1.146,1.95,-2.75,2.39,0.33,-0.38,-0.62
2022-01-30 16:28:10.6000,-0.231,-0.118,-1.1,1.77,-3.11,2.23,0.59,-0.4,-0.76
2022-01-30 16:28:10.6100,-0.218,-0.134,-1.012,1.68,-3.09,1.47,0.59,-0.4,-0.76
2022-01-30 16:28:10.6200,-0.182,-0.15,-0.947,1.41,-3.0,0.72,1.03,-0.3,-0.88
2022-01-30 16:28:10.6300,-0.154,-0.186,-0.93,1.08,-2.85,0.46,1.06,-0.35,-0.9
2022-01-30 16:28:10.6400,-0.143,-0.23,-0.905,0.93,-2.49,0.33,0.95,-0.47,-0.94
2022-01-30 16:28:10.6500,-0.148,-0.279,-0.905,0.95,-1.7,0.64,0.71,-0.73,-0.97
2022-01-30 16:28:10.6610,-0.144,-0.325,-0.966,0.95,-1.7,0.64,0.44,-1.09,-1.01
2022-01-30 16:28:10.6700,-0.133,-0.366,-1.038,0.78,-1.4,1.38,0.21,-1.48,-1.0
2022-01-30 16:28:10.6800,-0.145,-0.403,-1.101,0.73,-0.96,2.07,0.06,-1.78,-0.98
2022-01-30 16:28:10.6900,-0.165,-0.423,-1.136,0.82,-0.76,2.52,0.01,-1.97,-0.96
2022-01-30 16:28:10.7000,-0.179,-0.444,-1.16,0.87,-0.58,2.84,0.03,-1.97,-0.97
2022-01-30 16:28:10.7110,-0.192,-0.485,-1.127,0.86,-0.27,2.76,0.03,-1.97,-0.97
2022-01-30 16:28:10.7200,-0.199,-0.551,-1.082,0.89,0.26,2.33,-0.01,-1.52,-0.93
2022-01-30 16:28:10.7300,-0.176,-0.641,-1.02,0.66,1.06,1.79,-0.18,-1.23,-0.89
2022-01-30 16:28:10.7400,-0.148,-0.733,-1.013,0.35,2.0,1.44,-0.52,-1.13,-0.86
2022-01-30 16:28:10.7510,-0.093,-0.791,-1.039,-0.15,2.74,1.67,-0.52,-1.13,-0.86
2022-01-30 16:28:10.7600,-0.043,-0.81,-1.045,-0.75,3.16,1.77,-1.34,-1.32,-1.02
2022-01-30 16:28:10.7700,-0.01,-0.771,-1.055,-1.19,3.09,1.79,-1.63,-1.52,-1.15
2022-01-30 16:28:10.7800,0.016,-0.694,-1.072,-1.77,1.82,2.06,-1.74,-1.71,-1.32
2022-01-30 16:28:10.7900,0.018,-0.598,-1.097,-1.77,1.82,2.06,-1.64,-1.82,-1.54
2022-01-30 16:28:10.8010,0.021,-0.485,-1.077,-2.07,0.01,1.65,-1.32,-1.74,-1.83
2022-01-30 16:28:10.8110,0.038,-0.414,-1.058,-2.07,0.01,1.65,-0.95,-1.7,-2.0672106742858887
2022-01-30 16:28:10.8210,0.033,-0.397,-1.089,-2.13,-0.22,1.93,-0.61,-1.69,-2.18
2022-01-30 16:28:10.8300,0.039,-0.376,-0.997,-2.28,-0.46,0.32,-0.3,-1.58,-2.22
2022-01-30 16:28:10.8400,0.039,-0.381,-0.877,-2.28,-0.46,0.32,0.02,-1.41,-2.16
2022-01-30 16:28:10.8510,0.06,-0.404,-0.761,-2.41,-0.35,-1.997718769311905,0.39,-1.09,-2.01
2022-01-30 16:28:10.8610,0.093,-0.441,-0.622,-2.74,-0.08,-2.0,0.8,-0.67,-1.78
2022-01-30 16:28:10.8710,0.121,-0.477,-0.512,-3.03,0.19,-3.25,1.22,-0.38,-1.46
2022-01-30 16:28:10.8810,0.138,-0.504,-0.499,-3.2,0.37,-3.67,1.64,-0.31,-1.08
2022-01-30 16:28:10.8910,0.148,-0.546,-0.541,-3.46,0.92,-2.62,2.02,-0.41,-0.7
2022-01-30 16:28:10.9010,0.173,-0.6,-0.592,-3.46,0.92,-2.62,2.02,-0.41,-0.7
2022-01-30 16:28:10.9110,0.211,-0.608,-0.509,-3.82,0.94,-2.8,2.63,-0.37,-0.39
2022-01-30 16:28:10.9210,0.233,-0.62,-0.404,-4.11,0.78,-4.25,2.84,-0.2,-0.42
2022-01-30 16:28:10.9310,0.205,-0.653,-0.376,-4.11,0.78,-4.25,2.95,-0.14,-0.45
2022-01-30 16:28:10.9410,0.137,-0.724,-0.461,-3.45,2.0540596157312394,-1.3739378035068512,2.82,-0.5,-0.38
2022-01-30 16:28:10.9510,0.125,-0.869,-0.764,-3.07,2.05,-1.38,2.24,-1.38,-0.19
2022-01-30 16:28:10.9610,0.201,-0.893,-0.819,-3.62,2.83,1.12,1.69,-1.74,-0.1
2022-01-30 16:28:10.9710,0.23,-0.775,-0.557,-4.082394990921021,0.9959574115276337,-2.03,1.33,-1.61,-0.11
2022-01-30 16:28:10.9820,0.165,-0.754,-0.539,-3.56,1.26,-1.55,1.07,-1.29,-0.09
2022-01-30 16:28:10.9920,0.107,-0.8,-0.562,-3.56,1.26,-1.55,1.07,-1.29,-0.09
2022-01-30 16:28:11.0020,0.057,-0.832,-0.552,-3.06,1.57,-1.56,0.75,-0.21,-0.18
2022-01-30 16:28:11.0110,0.031,-0.885,-0.567,-2.75,1.9,-1.44,0.75,-0.21,-0.18
2022-01-30 16:28:11.0220,0.012,-0.965,-0.607,-2.5,2.58,-1.13,0.44,0.65,-0.42
2022-01-30 16:28:11.0310,0.026,-1.041,-0.719,-2.41,3.32,-0.35,0.32,0.64,-0.52
2022-01-30 16:28:11.0410,0.06,-1.098,-0.858,-2.74,4.26,1.86,0.33,0.59,-0.54
2022-01-30 16:28:11.0520,0.061,-1.122,-0.892,-2.74,4.26,1.86,0.33,0.59,-0.54
2022-01-30 16:28:11.0610,0.041,-1.127,-0.886,-2.51,4.3,1.89,0.73,1.12,-0.19
2022-01-30 16:28:11.0720,0.021,-1.133,-0.848,-2.2,4.31,1.66,0.87,1.58,0.0
2022-01-30 16:28:11.0810,0.019,-1.1,-0.828,-1.87,3.37,0.97,0.85,2.05,0.09
2022-01-30 16:28:11.0920,0.016,-1.03,-0.765,-1.72,3.58,1.12,0.68,2.44,0.21
2022-01-30 16:28:11.1020,0.01,-1.125,-0.857,-1.26,4.61,2.16,0.43,2.54,0.45
2022-01-30 16:28:11.1120,-0.028,-1.173,-0.91,-1.26,4.61,2.16,0.27,2.62,0.59
2022-01-30 16:28:11.1220,-0.043,-1.093,-0.903,-0.93,4.04,2.09,0.27,2.75,0.61
2022-01-30 16:28:11.1320,-0.082,-1.061,-0.857,-0.46,3.48,1.83,0.33,2.92,0.58
2022-01-30 16:28:11.1420,-0.084,-1.047,-0.814,-0.07,3.12,1.02,0.31,2.94,0.53
2022-01-30 16:28:11.1520,-0.071,-1.023,-0.784,-0.07,3.12,1.02,0.31,2.94,0.53
2022-01-30 16:28:11.1620,-0.081,-0.978,-0.738,0.03,2.77,0.55,0.16,2.87,0.45
2022-01-30 16:28:11.1730,-0.084,-0.896,-0.751,0.45,2.04,0.43,-0.38,2.48,0.32
2022-01-30 16:28:11.1820,-0.063,-0.892,-0.747,0.6,1.48,0.39,-0.53,2.32,0.54
2022-01-30 16:28:11.1920,-0.099,-0.815,-0.745,0.6,1.48,0.39,-0.58,2.2,0.77
2022-01-30 16:28:11.2020,-0.142,-0.703,-0.735,1.14,0.31,0.26,-0.54,2.08,0.93
2022-01-30 16:28:11.2120,-0.161,-0.651,-0.756,1.51,-0.31,0.3,-0.4,1.93,0.98
2022-01-30 16:28:11.2220,-0.173,-0.592,-0.746,1.68,-0.8,0.4,-0.23,1.79,0.93
2022-01-30 16:28:11.2320,-0.194,-0.529,-0.709,2.15,-1.91,-0.27,-0.1,1.6,0.86
2022-01-30 16:28:11.2430,-0.206,-0.488,-0.675,2.15,-1.91,-0.27,-0.02,1.4,0.81
2022-01-30 16:28:11.2520,-0.218,-0.463,-0.604,2.43,-2.44,-1.43,0.01,1.22,0.78
2022-01-30 16:28:11.2630,-0.223,-0.437,-0.569,2.43,-2.44,-1.43,0.01,1.22,0.78
2022-01-30 16:28:11.2720,-0.213,-0.399,-0.579,2.41,-2.72,-1.42,-0.06,0.84,0.56
2022-01-30 16:28:11.2820,-0.197,-0.333,-0.571,2.27,-3.29,-1.41,-0.11,0.78,0.41
2022-01-30 16:28:11.2920,-0.185,-0.289,-0.539,2.19,-3.85,-1.64,-0.07,0.89,0.29
2022-01-30 16:28:11.3030,-0.157,-0.274,-0.504,1.74,-4.1,-2.24,-0.07,1.09,0.19
2022-01-30 16:28:11.3210,-0.12,-0.278,-0.489,1.34,-3.92,-2.3,-0.09,1.26,0.17
2022-01-30 16:28:11.3240,-0.06,-0.306,-0.492,0.667698233127594,-3.42,-2.04,-0.12,1.27,0.18
2022-01-30 16:28:11.3330,0.021,-0.368,-0.538,0.66,-3.42,-2.04,-0.12,1.27,0.18
2022-01-30 16:28:11.3430,0.07,-0.422,-0.617,0.05,-2.76,-1.33,-0.0,0.66,0.29
2022-01-30 16:28:11.3520,0.073,-0.442,-0.663,-0.07,-2.51,-0.66,0.2,0.38,0.35
2022-01-30 16:28:11.3620,0.069,-0.497,-0.675,-0.004487080201506615,-1.51,-0.24,0.36,0.12,0.41
2022-01-30 16:28:11.3730,0.067,-0.561,-0.701,-0.01,-1.51,-0.24,0.43,-0.09,0.47
2022-01-30 16:28:11.3820,0.058,-0.603,-0.708,0.12,-0.8,0.11,0.4,-0.29,0.51
2022-01-30 16:28:11.3930,0.035,-0.622,-0.74,0.32,-0.8,0.55,0.25,-0.54,0.51
2022-01-30 16:28:11.4030,0.003,-0.616,-0.783,0.65,-1.02,0.9,0.05,-0.81,0.41
2022-01-30 16:28:11.4130,-0.043,-0.582,-0.811,0.65,-1.02,0.9,-0.16,-1.01,0.22
2022-01-30 16:28:11.4230,-0.085,-0.537,-0.828,1.0,-1.45,1.07,-0.29,-1.09,0.01
2022-01-30 16:28:11.4330,-0.113,-0.495,-0.832,1.35,-2.22,0.92,-0.27,-0.97,-0.18
2022-01-30 16:28:11.4430,-0.122,-0.455,-0.787,1.35,-2.22,0.92,-0.14,-0.6,-0.31
2022-01-30 16:28:11.4530,-0.127,-0.416,-0.697,1.39,-2.62,0.12,0.01,-0.07,-0.35
2022-01-30 16:28:11.4630,-0.121,-0.398,-0.631,1.38,-2.89,-0.66,0.13,0.47,-0.24
2022-01-30 16:28:11.4730,-0.108,-0.413,-0.581,1.33,-2.87,-1.19,0.13,0.47,-0.24
2022-01-30 16:28:11.4830,-0.079,-0.451,-0.575,0.86,-2.12,-1.13,0.3,0.91,0.15
2022-01-30 16:28:11.4930,-0.04,-0.505,-0.618,0.86,-2.12,-1.13,0.34,0.72,0.25
2022-01-30 16:28:11.5030,-0.003,-0.554,-0.666,0.13,-1.24,-0.15,0.4,0.35,0.25
2022-01-30 16:28:11.5140,0.042,-0.593,-0.71,-0.36,-0.81,0.25,0.5,-0.1,0.16
2022-01-30 16:28:11.5230,0.09,-0.655,-0.738,-0.36,-0.81,0.25,0.6,-0.44,0.06
2022-01-30 16:28:11.5330,0.144,-0.754,-0.732,-0.86,0.01,0.34,0.62,-0.6,-0.02
2022-01-30 16:28:11.5430,0.207,-0.873,-0.735,-1.53,1.07,0.3,0.45,-0.67,-0.02
2022-01-30 16:28:11.5530,0.245,-1.012,-0.777,-2.21,3.59,1.21,0.08,-0.69,0.1
2022-01-30 16:28:11.5640,0.228,-1.117,-0.851,-2.21,3.59,1.21,-0.36,-0.69,0.24
2022-01-30 16:28:11.5730,0.134,-1.118,-0.964,-1.61,4.06,2.2,-0.65,-0.65,0.31
2022-01-30 16:28:11.5830,0.026,-1.02,-1.067,0.24,2.44,3.98,-0.7,-0.57,0.26
2022-01-30 16:28:11.5930,-0.048,-0.934,-1.123,0.65,2.08,3.95,-0.5,-0.41,0.16
2022-01-30 16:28:11.6040,-0.078,-0.921,-1.091,0.65,2.08,3.95,-0.15,-0.12,0.1
2022-01-30 16:28:11.6130,-0.075,-0.951,-0.993,0.71,2.29,3.17,-0.15,-0.12,0.1
2022-01-30 16:28:11.6240,-0.052,-0.991,-0.899,0.55,2.66,2.15,0.12,0.2,0.08
2022-01-30 16:28:11.6340,-0.024,-1.028,-0.83,0.09,3.33,0.78,0.03,0.45,0.19
2022-01-30 16:28:11.6440,-0.006,-1.052,-0.772,0.09,3.33,0.78,-0.23,0.32,0.29
2022-01-30 16:28:11.6540,-0.005,-1.052,-0.751,0.02,3.43,0.44,-0.51,0.08,0.35
2022-01-30 16:28:11.6640,-0.014,-1.037,-0.744,0.06,3.38,0.31,-0.76,-0.2,0.35
2022-01-30 16:28:11.6740,-0.033,-0.995,-0.739,0.17,3.13,0.2,-0.9,-0.45,0.28
2022-01-30 16:28:11.6830,-0.059,-0.928,-0.744,0.36,2.61,0.15,-0.97,-0.67,0.2
2022-01-30 16:28:11.6930,-0.092,-0.856,-0.754,0.6,1.98,0.18,-1.01,-0.85,0.1
2022-01-30 16:28:11.7030,-0.127,-0.778,-0.752,0.87,1.31,0.16,-1.02,-0.93,0.01
2022-01-30 16:28:11.7140,-0.159,-0.705,-0.732,1.14,0.64,-0.06,-1.01,-0.88,-0.1
2022-01-30 16:28:11.7240,-0.181,-0.639,-0.71,1.42,-0.51,-0.62,-0.97,-0.73,-0.19
2022-01-30 16:28:11.7340,-0.189,-0.577,-0.687,1.42,-0.51,-0.62,-0.88,-0.53,-0.27
2022-01-30 16:28:11.7440,-0.176,-0.53,-0.665,1.1242143326997758,-1.31,-1.21,-0.88,-0.53,-0.27
2022-01-30 16:28:11.7540,-0.15,-0.491,-0.634,1.12,-1.31,-1.21,-0.54,-0.19,-0.34
2022-01-30 16:28:11.7640,-0.112,-0.457,-0.611,0.81,-1.63,-1.52,-0.35,-0.19,-0.36
2022-01-30 16:28:11.7750,-0.058,-0.451,-0.604,0.33,-1.79,-1.67,-0.35,-0.19,-0.36
2022-01-30 16:28:11.7840,-0.017,-0.475,-0.606,-0.16,-1.62,-1.68,-0.18,-0.31,-0.36
2022-01-30 16:28:11.7940,0.003,-0.502,-0.605,-0.44,-1.34,-1.66,0.17,-0.77,-0.24
2022-01-30 16:28:11.8040,0.003,-0.523,-0.59,-0.56,-1.13,-1.75,0.37,-0.91,-0.18
2022-01-30 16:28:11.8140,-0.0,-0.558,-0.565,-0.71,-0.4,-2.17,0.6,-0.88,-0.14
2022-01-30 16:28:11.8250,0.018,-0.626,-0.541,-1.04,0.31,-2.18,0.83,-0.8,-0.11
2022-01-30 16:28:11.8350,0.049,-0.701,-0.551,-1.04,0.31,-2.18,1.03,-0.85,-0.09
2022-01-30 16:28:11.8440,0.068,-0.723,-0.614,-1.35,0.7,-1.67,1.08,-1.14,-0.1
2022-01-30 16:28:11.8540,0.069,-0.706,-0.723,-1.51,0.51,-0.68,0.91,-1.58,-0.12
2022-01-30 16:28:11.8650,0.035,-0.732,-0.789,-0.97,0.79,0.32,0.67,-1.81,-0.12
2022-01-30 16:28:11.8750,-0.034,-0.752,-0.743,-0.38,0.55,-0.24,0.47,-1.69,-0.16
2022-01-30 16:28:11.8850,-0.1,-0.711,-0.687,-0.38,0.55,-0.24,0.35,-1.31,-0.28
2022-01-30 16:28:11.8940,-0.131,-0.662,-0.642,-0.01,-0.01,-0.64,0.31,-0.81,-0.43
2022-01-30 16:28:11.9050,-0.124,-0.645,-0.591,-0.24,-0.35,-1.54,0.26,-0.28,-0.56
2022-01-30 16:28:11.9150,-0.088,-0.652,-0.549,-0.24,-0.35,-1.54,0.16475673019886017,-0.28,-0.56
2022-01-30 16:28:11.9250,-0.053,-0.669,-0.534,-0.58,-0.22,-1.8,0.16,0.14,-0.6
2022-01-30 16:28:11.9350,-0.039,-0.683,-0.551,-0.72,-0.07,-1.73,-0.19,0.49,-0.48
2022-01-30 16:28:11.9450,-0.037,-0.686,-0.576,-0.71,0.01,-1.54,-0.35,0.46,-0.4
2022-01-30 16:28:11.9550,-0.034,-0.677,-0.623,-0.65,-0.16,-0.77,-0.43,0.36,-0.38
2022-01-30 16:28:11.9650,-0.03,-0.654,-0.662,-0.65,-0.16,-0.77,-0.38,0.24,-0.4
2022-01-30 16:28:11.9750,-0.027,-0.62,-0.7,-0.64,-0.43,-0.43,-0.38,0.24,-0.4
2022-01-30 16:28:11.9850,-0.018,-0.578,-0.716,-0.66,-0.81,-0.19,0.1,0.06,-0.39
2022-01-30 16:28:11.9950,-0.013,-0.544,-0.707,-0.73,-1.43,-0.42,0.4,0.06,-0.29
2022-01-30 16:28:12.0050,-0.008,-0.535,-0.669,-0.73,-1.43,-0.42,0.67,0.13,-0.1
2022-01-30 16:28:12.0150,-0.002,-0.561,-0.638,-0.87,-0.97,-0.75,0.88,0.18,0.13
2022-01-30 16:28:12.0250,0.016,-0.615,-0.649,-1.13,-0.39,-0.49,0.99,0.18,0.35
2022-01-30 16:28:12.0350,0.036,-0.686,-0.68,-1.13,-0.39,-0.49,0.97,0.05,0.53
2022-01-30 16:28:12.0450,0.019,-0.766,-0.749,-1.12,0.31,0.16,0.84,-0.15,0.63
2022-01-30 16:28:12.0550,-0.018,-0.843,-0.79,-0.87,1.04,0.78,0.7,-0.29,0.65
2022-01-30 16:28:12.0650,-0.068,-0.902,-0.815,-0.49,1.66,1.07,0.58,-0.34,0.54
2022-01-30 16:28:12.0750,-0.124,-0.934,-0.844,-0.01,2.04,1.42,0.58,-0.34,0.54
2022-01-30 16:28:12.0850,-0.169,-0.958,-0.857,0.76,2.43,1.8,0.46,-0.14,0.14
2022-01-30 16:28:12.0950,-0.196,-0.976,-0.873,0.76,2.43,1.8,0.46,-0.14,0.14
2022-01-30 16:28:12.1050,-0.199,-0.982,-0.871,0.88,2.51,1.91,0.38,0.13,-0.29
2022-01-30 16:28:12.1160,-0.18,-0.984,-0.857,0.79,2.49,1.81,0.2,0.16,-0.46
2022-01-30 16:28:12.1250,-0.162,-0.994,-0.839,0.58,2.59,1.4,-0.12,0.2,-0.6
2022-01-30 16:28:12.1350,-0.157,-0.99,-0.808,0.58,2.59,1.4,-0.54,0.31,-0.7
2022-01-30 16:28:12.1450,-0.16,-0.966,-0.785,0.66,2.45,1.08,-0.54,0.31,-0.7
2022-01-30 16:28:12.1550,-0.164,-0.915,-0.781,0.78,2.13,0.92,-1.34,0.74,-0.83
2022-01-30 16:28:12.1650,-0.167,-0.831,-0.78,0.93,1.48,0.8,-1.56,1.02,-0.83
2022-01-30 16:28:12.1760,-0.165,-0.747,-0.785,1.04,0.74,0.71,-1.58,1.24,-0.76
2022-01-30 16:28:12.1850,-0.163,-0.656,-0.784,1.17,-0.01,0.64,-1.41,1.41,-0.63
2022-01-30 16:28:12.1960,-0.146,-0.578,-0.758,1.21,-0.76,0.38,-1.09,1.53,-0.47
2022-01-30 16:28:12.2060,-0.124,-0.523,-0.708,1.14,-1.29,-0.1,-0.68,1.56,-0.32
2022-01-30 16:28:12.2150,-0.101,-0.476,-0.641,1.06,-1.72,-0.76,-0.25,1.48,-0.18
2022-01-30 16:28:12.2260,-0.073,-0.442,-0.569,0.92,-2.09,-1.49,-0.25,1.48,-0.18
2022-01-30 16:28:12.2360,-0.043,-0.425,-0.516,0.73,-2.32,-2.09,0.43,0.95,0.05
2022-01-30 16:28:12.2460,-0.011,-0.424,-0.474,0.49,-2.41,-2.5,0.68,0.63,0.15
2022-01-30 16:28:12.2560,0.019,-0.438,-0.434,0.22,-2.38,-2.86,0.68,0.63,0.15
2022-01-30 16:28:12.2660,0.039,-0.471,-0.404,-0.1408202487230301,-1.82,-3.37,1.02,0.14,0.4
2022-01-30 16:28:12.2760,0.051,-0.52,-0.37,-0.15,-1.82,-3.37,1.12,0.08,0.55
2022-01-30 16:28:12.2850,0.07,-0.574,-0.346,-0.34,-1.4,-3.6,1.14,0.17,0.67
2022-01-30 16:28:12.2960,0.089,-0.65,-0.338,-0.56,-0.83,-3.63,1.08,0.36,0.75
2022-01-30 16:28:12.3060,0.114,-0.736,-0.34,-0.81,-0.07,-3.61,1.08,0.36,0.75
2022-01-30 16:28:12.3160,0.145,-0.805,-0.389,-1.12,0.64,-3.29,0.68,0.47,0.71
2022-01-30 16:28:12.3260,0.163,-0.849,-0.506,-1.4,1.09,-2.3,0.36,0.15,0.62
2022-01-30 16:28:12.3360,0.145,-0.878,-0.635,-1.4,1.42,-1.0,0.0,-0.32,0.53
2022-01-30 16:28:12.3460,0.09,-0.856,-0.769,-1.05,1.44,0.28,-0.36,-0.81,0.4
2022-01-30 16:28:12.3560,-0.003,-0.786,-0.874,-0.34,0.89,1.48,-0.65,-1.08,0.22
2022-01-30 16:28:12.3660,-0.101,-0.703,-0.929,0.55,0.16,2.11,-0.74,-1.09,0.01
2022-01-30 16:28:12.3760,-0.183,-0.602,-0.951,1.36,-0.71,2.45,-0.62,-0.78,-0.22
2022-01-30 16:28:12.3860,-0.226,-0.499,-0.895,2.11,-2.57,1.27,-0.62,-0.78,-0.22
2022-01-30 16:28:12.3970,-0.234,-0.417,-0.8,2.11,-2.57,1.27,-0.07,0.46,-0.44
2022-01-30 16:28:12.4060,-0.203,-0.375,-0.702,1.99,-3.15,0.27,0.15,1.05,-0.33
2022-01-30 16:28:12.4160,-0.146,-0.39,-0.632,1.6,-3.22,-0.54,0.3,1.39,-0.12
2022-01-30 16:28:12.4250,-0.082,-0.426,-0.593,0.56,-2.67,-1.29,0.42,1.46,0.1
2022-01-30 16:28:12.4360,-0.021,-0.445,-0.563,0.56,-2.67,-1.29,0.51,1.26,0.23
2022-01-30 16:28:12.4450,0.025,-0.464,-0.554,0.11,-2.54,-1.42,0.57,0.87,0.29
2022-01-30 16:28:12.4560,0.059,-0.499,-0.552,-0.5,-1.91,-1.34,0.64,0.39,0.29
2022-01-30 16:28:12.4660,0.088,-0.55,-0.556,-0.5,-1.91,-1.34,0.7,-0.06,0.27
2022-01-30 16:28:12.4760,0.112,-0.624,-0.564,-0.77,-1.32,-1.24,0.75,-0.41,0.28
2022-01-30 16:28:12.4860,0.128,-0.715,-0.577,-1.01,-0.51,-1.07,0.78,-0.63,0.33
2022-01-30 16:28:12.4970,0.135,-0.793,-0.618,-1.17,0.27,-0.79,0.71,-0.84,0.4
2022-01-30 16:28:12.5070,0.127,-0.857,-0.694,-1.25,0.89,-0.02,0.57,-0.98,0.52
2022-01-30 16:28:12.5170,0.102,-0.914,-0.739,-1.16,1.45,0.55,0.57,-0.98,0.52
2022-01-30 16:28:12.5280,0.057,-0.956,-0.795,-0.51,2.21,1.54,0.22,-0.97,0.69
2022-01-30 16:28:12.5370,0.005,-0.985,-0.822,-0.51,2.21,1.54,0.12,-0.73,0.68
2022-01-30 16:28:12.5470,-0.038,-1.002,-0.824,-0.15,2.41,1.59,0.03,-0.42,0.61
2022-01-30 16:28:12.5580,-0.068,-1.014,-0.822,0.13,2.52,1.63,-0.11,-0.13,0.52
2022-01-30 16:28:12.5680,-0.083,-1.036,-0.8,0.27,2.72,1.47,-0.34,0.08,0.44
2022-01-30 16:28:12.5780,-0.087,-1.053,-0.777,0.32,2.94,1.19,-0.34,0.08,0.44
2022-01-30 16:28:12.5870,-0.078,-1.06,-0.754,0.27,3.09,0.94,-0.89,0.22,0.3
2022-01-30 16:28:12.5970,-0.05,-1.056,-0.739,-0.29,3.15,0.54,-1.12,0.13,0.21
2022-01-30 16:28:12.6070,-0.017,-1.047,-0.738,-0.29,3.15,0.54,-1.32,-0.06,0.13
2022-01-30 16:28:12.6170,0.002,-1.019,-0.747,-0.55,3.06,0.49,-1.32,-0.06,0.13
2022-01-30 16:28:12.6280,-0.005,-0.966,-0.773,-0.61,2.73,0.58,-1.77,-0.57,0.07
2022-01-30 16:28:12.6370,-0.042,-0.897,-0.807,-0.4,2.23,0.79,-1.93,-0.74,0.07
2022-01-30 16:28:12.6480,-0.091,-0.806,-0.839,0.02,1.57,0.99,-1.98,-0.83,0.05
2022-01-30 16:28:12.6580,-0.133,-0.702,-0.875,0.76,-0.11,1.51,-1.98,-0.83,0.05
2022-01-30 16:28:12.6680,-0.179,-0.61,-0.918,0.76,-0.11,1.51,-1.62,-0.87,-0.08
2022-01-30 16:28:12.6770,-0.216,-0.516,-0.912,1.29,-1.77,1.25,-1.21,-0.76,-0.17
2022-01-30 16:28:12.6870,-0.227,-0.415,-0.885,1.13,-2.59,0.82,-0.72,-0.62,-0.27
2022-01-30 16:28:12.6960,-0.2,-0.34,-0.835,1.13,-2.59,0.82,-0.23,-0.43,-0.37
2022-01-30 16:28:12.7060,-0.147,-0.32,-0.766,0.67,-2.98,0.16,0.19,-0.26,-0.39
2022-01-30 16:28:12.7160,-0.088,-0.342,-0.701,0.1,-2.89,-0.49,0.53,-0.18,-0.32
2022-01-30 16:28:12.7270,-0.028,-0.375,-0.661,-1.05,-2.19,-1.14,0.78,-0.25,-0.22
2022-01-30 16:28:12.7370,0.027,-0.445,-0.648,-1.05,-2.19,-1.14,0.97,-0.45,-0.06
2022-01-30 16:28:12.7460,0.063,-0.562,-0.651,-1.81,-0.15,-0.94,0.97,-0.45,-0.06
2022-01-30 16:28:12.7580,0.082,-0.671,-0.66,-2.03,0.51,-0.73,1.25,-1.17,0.17
2022-01-30 16:28:12.7670,0.087,-0.729,-0.673,-2.03,0.51,-0.73,1.3,-1.59,0.19
2022-01-30 16:28:12.7780,0.048,-0.762,-0.679,-1.42,0.96,-0.33,1.25,-1.97,0.17
2022-01-30 16:28:12.7880,-0.035,-0.781,-0.697,-1.42,0.96,-0.33,1.06,-2.21,0.1
2022-01-30 16:28:12.7980,-0.126,-0.778,-0.706,-0.69,0.93,-0.03,0.81,-2.19,-0.02
2022-01-30 16:28:12.8080,-0.203,-0.776,-0.684,-0.01,0.83,-0.08,0.81,-2.19,-0.02
2022-01-30 16:28:12.8170,-0.244,-0.768,-0.663,0.43,0.76,-0.24,0.35,-1.38,-0.44
2022-01-30 16:28:12.8280,-0.244,-0.75,-0.658,0.33,0.41,-0.3,0.12,-0.84,-0.67
2022-01-30 16:28:12.8380,-0.224,-0.743,-0.651,0.33,0.41,-0.3,-0.11,-0.29,-0.8
2022-01-30 16:28:12.8480,-0.186,-0.756,-0.623,0.06,0.46,-0.5,-0.32,0.23,-0.81
2022-01-30 16:28:12.8580,-0.143,-0.782,-0.6,-0.3,0.69,-0.8,-0.45,0.59,-0.73
2022-01-30 16:28:12.8680,-0.102,-0.804,-0.603,-0.63,0.96,-0.93,-0.52,0.71,-0.61
2022-01-30 16:28:12.8780,-0.085,-0.796,-0.636,-0.82,1.05,-0.75,-0.54,0.51,-0.51
2022-01-30 16:28:12.8880,-0.092,-0.752,-0.67,-0.75,0.76,-0.4,-0.49,0.18,-0.47
2022-01-30 16:28:12.8980,-0.108,-0.709,-0.651,-0.55,0.32,-0.41,-0.36,-0.1,-0.48
2022-01-30 16:28:12.9080,-0.107,-0.674,-0.617,-0.54,-0.45,-1.04,-0.15,-0.33,-0.51
2022-01-30 16:28:12.9180,-0.096,-0.622,-0.592,-0.62,-1.01,-1.39,0.11,-0.47,-0.55
2022-01-30 16:28:12.9290,-0.089,-0.567,-0.551,-0.62,-1.01,-1.39,0.35,-0.52,-0.54
2022-01-30 16:28:12.9380,-0.088,-0.523,-0.516,-0.66,-1.53,-1.73,0.51,-0.44,-0.47
2022-01-30 16:28:12.9490,-0.099,-0.51,-0.48,-0.59,-1.82,-2.06,0.59,-0.27,-0.33
2022-01-30 16:28:12.9590,-0.112,-0.53,-0.476,-0.39,-1.41,-2.03,0.6,-0.08,-0.17
2022-01-30 16:28:12.9690,-0.112,-0.586,-0.492,-0.39,-1.41,-2.03,0.62,0.06,-0.03
2022-01-30 16:28:12.9780,-0.111,-0.643,-0.518,-0.42,-0.84,-1.79,0.7,0.11,0.07
2022-01-30 16:28:12.9890,-0.123,-0.685,-0.549,-0.34,-0.44,-1.42,0.84,0.09,0.08
2022-01-30 16:28:12.9990,-0.133,-0.742,-0.566,-0.17,0.68,-0.94,1.02,0.05,0.02
2022-01-30 16:28:13.0090,-0.135,-0.832,-0.584,-0.14,1.5,-0.58,1.15,-0.03,-0.11
2022-01-30 16:28:13.0190,-0.14,-0.915,-0.621,-0.04,2.08,0.0,1.14,-0.21,-0.27
2022-01-30 16:28:13.0290,-0.155,-0.975,-0.673,-0.04,2.08,0.0,1.14,-0.43,-0.4
2022-01-30 16:28:13.0390,-0.182,-1.03,-0.712,0.48,2.95,0.94,0.85,-0.59,-0.45
2022-01-30 16:28:13.0490,-0.212,-1.066,-0.748,0.48,2.95,0.94,0.75,-0.62,-0.43
2022-01-30 16:28:13.0590,-0.241,-1.074,-0.766,0.78,3.07,1.28,0.77,-0.52,-0.39
2022-01-30 16:28:13.0680,-0.255,-1.063,-0.771,0.96,2.97,1.42,0.86,-0.32,-0.4
2022-01-30 16:28:13.0790,-0.262,-1.041,-0.749,1.07,2.73,1.42,0.91,-0.01,-0.45
2022-01-30 16:28:13.0890,-0.26,-1.024,-0.687,1.12,2.46,0.99,0.83,0.39,-0.53
2022-01-30 16:28:13.0990,-0.249,-1.032,-0.61,1.03,2.52,-0.46,0.6,0.85,-0.59
2022-01-30 16:28:13.1100,-0.228,-1.052,-0.524,1.03,2.52,-0.46,0.6,0.85,-0.59
2022-01-30 16:28:13.1190,-0.192,-1.062,-0.468,0.59,2.68,-1.51,-0.18,1.6,-0.66
2022-01-30 16:28:13.1290,-0.15,-1.062,-0.443,0.59,2.68,-1.51,-0.61,1.75,-0.67
2022-01-30 16:28:13.1400,-0.112,-1.046,-0.436,0.34,2.6,-1.7,-0.96,1.76,-0.64
2022-01-30 16:28:13.1490,-0.081,-1.012,-0.449,0.17,2.4,-1.75,-1.18,1.64,-0.57
2022-01-30 16:28:13.1590,-0.057,-0.948,-0.481,0.05,1.96,-1.56,-1.26,1.41,-0.47
2022-01-30 16:28:13.1690,-0.042,-0.871,-0.493,0.0,1.29,-1.46,-1.26,1.41,-0.47
2022-01-30 16:28:13.1800,-0.03,-0.796,-0.494,-0.03,0.62,-1.53,-1.01,0.78,-0.19
2022-01-30 16:28:13.1900,-0.024,-0.728,-0.483,-0.05,0.0,-1.65,-0.81,0.46,-0.03
2022-01-30 16:28:13.2000,-0.028,-0.654,-0.452,0.0,-0.64,-1.94,-0.59,0.21,0.13
2022-01-30 16:28:13.2090,-0.035,-0.58,-0.399,0.13,-1.96,-3.05,-0.41,0.06,0.27
2022-01-30 16:28:13.2190,-0.045,-0.52,-0.341,0.13,-1.96,-3.05,-0.29,-0.02,0.38
2022-01-30 16:28:13.2290,-0.051,-0.471,-0.292,0.19,-2.45,-3.58,-0.23,-0.03,0.46
2022-01-30 16:28:13.2400,-0.058,-0.428,-0.252,0.21,-2.88,-4.03,-0.22,0.02,0.53
2022-01-30 16:28:13.2490,-0.074,-0.395,-0.226,0.45,-3.5,-4.54,-0.24,0.1,0.56
2022-01-30 16:28:13.2600,-0.093,-0.366,-0.215,0.56,-3.71,-4.62,-0.28,0.25,0.55
2022-01-30 16:28:13.2700,-0.101,-0.347,-0.209,0.56,-3.71,-4.62,-0.31,0.45,0.49
2022-01-30 16:28:13.2790,-0.097,-0.344,-0.208,0.55,-3.77,-4.69,-0.35,0.69,0.4
2022-01-30 16:28:13.2900,-0.078,-0.346,-0.213,0.44,-3.75,-4.67,-0.43,0.93,0.3
2022-01-30 16:28:13.3000,-0.051,-0.367,-0.202,0.22,-3.59,-4.75,-0.55,1.13,0.26
2022-01-30 16:28:13.3100,-0.023,-0.401,-0.21,0.02,-3.24,-4.84,-0.74,1.19,0.27
2022-01-30 16:28:13.3200,0.008,-0.43,-0.247,-0.23,-2.88,-4.59,-0.96,1.16,0.35
2022-01-30 16:28:13.3300,0.023,-0.447,-0.283,-0.29,-2.4,-3.94,-1.2,1.05,0.48
2022-01-30 16:28:13.3410,0.002,-0.456,-0.339,-0.29,-2.4,-3.94,-1.42,0.88,0.62
2022-01-30 16:28:13.3510,-0.025,-0.447,-0.398,0.03,-2.3,-3.43,-1.42,0.88,0.62
2022-01-30 16:28:13.3600,-0.048,-0.411,-0.44,0.57,-2.87,-2.79,-1.55,0.68,0.67
2022-01-30 16:28:13.3710,-0.088,-0.343,-0.479,0.57,-2.87,-2.79,-1.6,0.44,0.57
2022-01-30 16:28:13.3800,-0.131,-0.252,-0.515,1.38,-4.37,-2.21,-1.65,-0.18,0.03
2022-01-30 16:28:13.3910,-0.168,-0.161,-0.562,1.38,-4.37,-2.21,-1.89,-0.48,-0.3
2022-01-30 16:28:13.4000,-0.178,-0.101,-0.575,1.55,-4.97,-2.02,-2.26,-0.56,-0.54
2022-01-30 16:28:13.4100,-0.171,-0.074,-0.567,1.32,-5.15,-2.31,-2.66,-0.43,-0.65
2022-01-30 16:28:13.4210,-0.139,-0.054,-0.587,1.32,-5.15,-2.31,-2.99,-0.19,-0.66
2022-01-30 16:28:13.4310,-0.093,-0.033,-0.632,0.91,-5.11,-2.1,-3.18,0.11,-0.63
2022-01-30 16:28:13.4400,-0.066,-0.014,-0.695,0.58,-5.06,-1.74,-3.18,0.38,-0.59
2022-01-30 16:28:13.4510,-0.059,-0.008,-0.778,0.53,-4.89,-1.14,-3.0,0.58,-0.56
2022-01-30 16:28:13.4600,-0.057,-0.01,-0.852,0.57,-4.64,-0.48,-3.0,0.58,-0.56
2022-01-30 16:28:13.4710,-0.05,-0.013,-0.888,0.63,-4.37,-0.12,-2.34,0.76,-0.46
2022-01-30 16:28:13.4800,-0.014,-0.028,-0.936,0.48,-4.07,0.11,-2.07,0.62,-0.33
2022-01-30 16:28:13.4910,0.036,-0.056,-1.026,0.07,-3.66,0.81,-1.86,0.26,-0.18
2022-01-30 16:28:13.5010,0.083,-0.099,-1.118,-0.78,-2.49,2.53,-1.72,-0.23,-0.04
2022-01-30 16:28:13.5110,0.116,-0.148,-1.222,-1.0,-1.91,3.53,-1.62,-0.72,0.08
2022-01-30 16:28:13.5210,0.124,-0.183,-1.332,-1.09,-1.59,4.53,-1.61,-1.19,0.17
2022-01-30 16:28:13.5310,0.113,-0.193,-1.435,-1.09,-1.59,4.53,-1.69,-1.59,0.23
2022-01-30 16:28:13.5410,0.068,-0.187,-1.529,-0.92,-1.42,5.39,-1.82,-2.01,0.24
2022-01-30 16:28:13.5510,-0.004,-0.163,-1.651,-0.49,-1.44,6.44,-1.9,-2.43,0.22
2022-01-30 16:28:13.5610,-0.073,-0.145,-1.74,0.01,-1.47,7.46,-1.83,-2.7,0.18
2022-01-30 16:28:13.5710,-0.125,-0.123,-1.79,0.31,-1.46,8.03,-1.66,-2.68,0.15
2022-01-30 16:28:13.5800,-0.171,-0.084,-1.795,0.53,-1.65,8.23,-1.57,-2.25,0.12
2022-01-30 16:28:13.5910,-0.204,-0.074,-1.771,0.82,-1.38,7.68,-1.67,-1.5,0.1
2022-01-30 16:28:13.6010,-0.23,-0.111,-1.729,0.82,-1.38,7.68,-1.85,-0.6,0.05
2022-01-30 16:28:13.6110,-0.23,-0.137,-1.703,0.67,-0.53,7.12,-2.01,0.18,-0.07
2022-01-30 16:28:13.6210,-0.199,-0.148,-1.692,0.67,-0.53,7.12,-2.06,0.66,-0.25
2022-01-30 16:28:13.6310,-0.152,-0.163,-1.686,-0.15,0.11,6.87,-1.95,0.75,-0.41
2022-01-30 16:28:13.6410,-0.092,-0.172,-1.667,-0.15,0.11,6.87,-1.95,0.75,-0.41
2022-01-30 16:28:13.6520,-0.03,-0.175,-1.61,-0.72,0.3,6.39,-1.71,0.51,-0.53
2022-01-30 16:28:13.6610,0.012,-0.19,-1.537,-1.2,0.54,5.68,-1.2,-0.54,-0.52
2022-01-30 16:28:13.6710,0.026,-0.203,-1.457,-1.47,0.81,4.95,-1.2,-0.54,-0.52
2022-01-30 16:28:13.6810,0.025,-0.219,-1.333,-1.56,1.32,2.58,-1.07,-0.97,-0.43
2022-01-30 16:28:13.6920,0.004,-0.234,-1.201,-1.38,1.49,1.43,-1.02,-1.02,-0.33
2022-01-30 16:28:13.7020,-0.019,-0.241,-1.096,-1.23,1.71,0.6,-1.07,-0.12,-0.23
2022-01-30 16:28:13.7120,-0.032,-0.257,-1.025,-1.23,1.71,0.6,-1.06,0.48,-0.28
2022-01-30 16:28:13.7220,-0.027,-0.272,-0.99,-1.16,1.98,0.13,-0.97,0.93,-0.36
2022-01-30 16:28:13.7310,-0.01,-0.29,-0.976,-1.21,2.21,-0.1,-0.76,1.13,-0.43
2022-01-30 16:28:13.7410,0.01,-0.308,-0.978,-1.4,2.65,-0.18,-0.44,1.05,-0.49
2022-01-30 16:28:13.7510,0.034,-0.318,-0.968,-1.64,2.74,-0.45,-0.07,0.81,-0.55
2022-01-30 16:28:13.7620,0.072,-0.328,-0.931,-1.98,2.89,-0.89,0.25,0.53,-0.56
2022-01-30 16:28:13.7720,0.112,-0.353,-0.883,-1.98,2.89,-0.89,0.49,0.33,-0.49
2022-01-30 16:28:13.7810,0.146,-0.39,-0.832,-2.3,3.19,-1.45,0.63,0.15,-0.35
2022-01-30 16:28:13.7920,0.164,-0.422,-0.824,-2.5,3.6,-1.52,0.73,-0.03,-0.12
2022-01-30 16:28:13.8020,0.145,-0.43,-0.857,-2.5,3.6,-1.52,0.73,-0.03,-0.12
2022-01-30 16:28:13.8120,0.103,-0.404,-0.909,-2.19,3.37,-1.0,0.91,-0.73,0.31
2022-01-30 16:28:13.8220,0.046,-0.376,-0.958,-1.74,2.98,-0.53,0.94,-1.21,0.4
2022-01-30 16:28:13.8310,-0.013,-0.366,-1.033,-0.89,2.72,0.95,0.86,-1.77,0.37
2022-01-30 16:28:13.8420,-0.064,-0.384,-1.104,-0.89,2.72,0.95,0.86,-1.77,0.37
2022-01-30 16:28:13.8520,-0.102,-0.42,-1.132,-0.58,3.23,1.6,0.56,-2.5,0.05
2022-01-30 16:28:13.8620,-0.139,-0.442,-1.143,-0.58,3.23,1.6,0.47,-2.48,-0.2
2022-01-30 16:28:13.8720,-0.172,-0.426,-1.146,-0.46,3.13,1.7,0.42,-2.22,-0.47
2022-01-30 16:28:13.8820,-0.192,-0.412,-1.14,-0.45,2.78,1.64,0.4,-1.71,-0.72
2022-01-30 16:28:13.8920,-0.203,-0.406,-1.122,-0.45,2.78,1.64,0.4,-1.71,-0.72
2022-01-30 16:28:13.9020,-0.209,-0.4,-1.111,-0.47,2.66,1.53,0.38,-0.22,-1.07
2022-01-30 16:28:13.9120,-0.217,-0.402,-1.089,-0.42,2.57,1.38,0.41,0.59,-1.14
2022-01-30 16:28:13.9230,-0.22,-0.419,-1.094,-0.3,2.63,1.26,0.5,1.21,-1.12
2022-01-30 16:28:13.9320,-0.214,-0.444,-1.116,-0.19,2.78,1.46,0.66,1.56,-1.04
2022-01-30 16:28:13.9420,-0.195,-0.473,-1.131,-0.17,2.96,1.59,0.88,1.63,-0.94
2022-01-30 16:28:13.9520,-0.162,-0.518,-1.136,-0.27,3.24,1.7,1.1,1.51,-0.83
2022-01-30 16:28:13.9620,-0.125,-0.566,-1.105,-0.49,3.61,1.51,1.27,1.33,-0.71
2022-01-30 16:28:13.9720,-0.1,-0.591,-1.069,-0.65,3.83,1.12,1.36,1.16,-0.6
2022-01-30 16:28:13.9820,-0.088,-0.586,-1.049,-0.68,3.73,0.88,1.35,1.02,-0.47
2022-01-30 16:28:13.9920,-0.078,-0.588,-1.076,-0.67,3.55,0.91,1.23,0.79,-0.36
2022-01-30 16:28:14.0020,-0.07,-0.595,-1.154,-0.67,3.52,1.58,1.1,0.48,-0.27
2022-01-30 16:28:14.0120,-0.065,-0.594,-1.242,-0.68,3.42,2.42,1.03,0.13,-0.18
2022-01-30 16:28:14.0230,-0.072,-0.583,-1.328,-0.51,2.89,4.04,1.11,-0.14,-0.1
2022-01-30 16:28:14.0330,-0.09,-0.541,-1.384,-0.51,2.89,4.04,1.31,-0.27,-0.08
2022-01-30 16:28:14.0430,-0.123,-0.473,-1.401,-0.26,2.16,4.39,1.5,-0.19,-0.11
2022-01-30 16:28:14.0530,-0.16,-0.415,-1.383,0.09,1.39,4.37,1.5,0.039619848132133484,-0.16
2022-01-30 16:28:14.0620,-0.19,-0.379,-1.348,0.42,0.81,4.13,1.57,0.38,-0.2
2022-01-30 16:28:14.0730,-0.198,-0.354,-1.298,0.65,0.06,3.31,1.43,0.71,-0.23
2022-01-30 16:28:14.0830,-0.187,-0.341,-1.259,0.65,0.06,3.31,1.22,0.94,-0.24
2022-01-30 16:28:14.1010,-0.17,-0.347,-1.222,0.51,-0.06,2.62,1.0,1.07,-0.25
2022-01-30 16:28:14.1040,-0.151,-0.353,-1.182,0.51,-0.06,2.62,0.8,1.07,-0.24
2022-01-30 16:28:14.1040,-0.131,-0.356,-1.147,0.51,-0.06,2.62,0.64,0.96,-0.2
2022-01-30 16:28:14.1160,-0.113,-0.353,-1.112,0.52,-0.16,2.3,0.53,0.76,-0.13
2022-01-30 16:28:14.1260,-0.101,-0.348,-1.064,0.41,-0.22,1.98,0.47,0.53,-0.03
2022-01-30 16:28:14.1360,-0.094,-0.343,-1.004,0.32,-0.31,1.58,0.46,0.3,0.1
2022-01-30 16:28:14.1460,-0.093,-0.337,-0.941,0.25,-0.4,1.05,0.46,0.3,0.1
2022-01-30 16:28:14.1560,-0.098,-0.33,-0.879,0.22,-0.49,0.45,0.53,-0.18,0.38
2022-01-30 16:28:14.1660,-0.114,-0.315,-0.81,0.22,-0.6,-0.15,0.62,-0.33,0.5
2022-01-30 16:28:14.1760,-0.141,-0.281,-0.718,0.28,-0.74,-0.74,0.72,-0.36,0.62
2022-01-30 16:28:14.1860,-0.169,-0.247,-0.621,0.46,-1.08,-1.54,0.82,-0.28,0.73
2022-01-30 16:28:14.1960,-0.185,-0.223,-0.537,0.69,-1.5,-2.47,0.82,-0.28,0.73
2022-01-30 16:28:14.2060,-0.185,-0.215,-0.462,0.86,-1.85,-3.3,0.96,0.05,0.88
2022-01-30 16:28:14.2160,-0.185,-0.209,-0.412,0.87,-2.06,-4.04,1.0,0.22,0.92
2022-01-30 16:28:14.2260,-0.187,-0.195,-0.375,0.84,-2.18,-4.6,1.0,0.22,0.92
2022-01-30 16:28:14.2360,-0.194,-0.165,-0.342,0.84,-2.35,-4.94,0.99,0.56,0.93
2022-01-30 16:28:14.2460,-0.203,-0.128,-0.329,0.9,-2.67,-5.25,0.91,0.7,0.86
2022-01-30 16:28:14.2560,-0.209,-0.094,-0.313,1.0,-3.09,-5.43,0.81,0.92,0.77
2022-01-30 16:28:14.2660,-0.211,-0.074,-0.278,1.12,-3.51,-5.49,0.71,1.15,0.68
2022-01-30 16:28:14.2760,-0.197,-0.063,-0.292,1.23,-3.82,-5.79,0.6,1.26,0.6
2022-01-30 16:28:14.2870,-0.163,-0.07,-0.344,1.24,-4.0,-5.88,0.46,1.24,0.61
2022-01-30 16:28:14.2960,-0.128,-0.103,-0.389,1.04,-4.06,-5.41,0.28,1.1,0.7
2022-01-30 16:28:14.3070,-0.104,-0.143,-0.442,0.75,-3.84,-4.94,0.09,0.87,0.82
2022-01-30 16:28:14.3170,-0.087,-0.171,-0.507,0.51,-3.45,-4.47,-0.11,0.55,0.89
2022-01-30 16:28:14.3270,-0.067,-0.192,-0.587,0.34,-3.11,-3.9,-0.29,0.18,0.87
2022-01-30 16:28:14.3370,-0.059,-0.212,-0.657,0.13,-2.86,-3.14,-0.44,-0.24,0.77
2022-01-30 16:28:14.3470,-0.071,-0.209,-0.75,-0.06,-2.61,-2.46,-0.57,-0.65,0.59
2022-01-30 16:28:14.3570,-0.111,-0.181,-0.837,-0.11,-2.48,-1.67,-0.69,-0.92,0.35
2022-01-30 16:28:14.3670,-0.154,-0.144,-0.885,0.09,-2.61,-0.75,-0.73,-0.93,0.11
2022-01-30 16:28:14.3770,-0.179,-0.107,-0.895,0.45,-2.89,-0.15,-0.73,-0.93,0.11
2022-01-30 16:28:14.3870,-0.179,-0.083,-0.873,0.72,-3.2,0.05,-0.59,-0.09,-0.27
2022-01-30 16:28:14.3970,-0.156,-0.081,-0.827,0.81,-3.45,-0.08,-0.42,0.63,-0.34
2022-01-30 16:28:14.4070,-0.119,-0.085,-0.777,0.73,-3.5,-0.49,-0.23,1.37,-0.33
2022-01-30 16:28:14.4170,-0.061,-0.088,-0.741,0.54,-3.44,-1.01,-0.08,1.9,-0.26
2022-01-30 16:28:14.4280,0.015,-0.111,-0.746,0.23,-3.42,-1.46,-0.0,2.11,-0.18
2022-01-30 16:28:14.4370,0.088,-0.177,-0.762,-0.28,-3.3,-1.58,0.03,1.97,-0.08
2022-01-30 16:28:14.4470,0.146,-0.263,-0.794,-0.86,-2.81,-1.43,-0.01,1.48,-0.0
2022-01-30 16:28:14.4570,0.206,-0.346,-0.851,-1.32,-2.0,-1.21,-0.18,0.7,0.02
2022-01-30 16:28:14.4670,0.255,-0.449,-0.935,-1.83,-1.16,-0.74,-0.51,-0.21,0.01
2022-01-30 16:28:14.4770,0.272,-0.567,-1.022,-2.4,-0.21,-0.03,-0.93,-1.05,0.0
2022-01-30 16:28:14.4870,0.25,-0.621,-1.111,-2.78,1.03,0.8,-1.31,-1.67,0.02
2022-01-30 16:28:14.4970,0.178,-0.562,-1.211,-2.86,2.01,1.6,-1.55,-1.98,0.07
2022-01-30 16:28:14.5070,0.071,-0.455,-1.31,-2.51,1.96,2.49,-1.56,-1.9,0.16
2022-01-30 16:28:14.5170,-0.049,-0.349,-1.383,-1.74,1.14,3.45,-1.38,-1.43,0.27
2022-01-30 16:28:14.5270,-0.146,-0.279,-1.413,-0.72,0.2,4.24,-1.09,-0.7,0.33
2022-01-30 16:28:14.5370,-0.189,-0.264,-1.429,0.27,-0.56,4.66,-0.84,0.02,0.28
2022-01-30 16:28:14.5470,-0.182,-0.284,-1.437,0.89,-0.8,4.78,-0.71,0.61,0.13
2022-01-30 16:28:14.5570,-0.147,-0.325,-1.388,1.03,-0.65,4.92,-0.78,1.01,-0.06
2022-01-30 16:28:14.5670,-0.106,-0.372,-1.336,0.84,-0.24,4.61,-1.03,1.17,-0.25
2022-01-30 16:28:14.5770,-0.072,-0.409,-1.296,0.57,0.3,4.01,-1.38,1.04,-0.44
2022-01-30 16:28:14.5880,-0.043,-0.425,-1.293,0.3,0.86,3.52,-1.73,0.61,-0.62
2022-01-30 16:28:14.5980,-0.005,-0.441,-1.325,0.11,1.23,3.27,-1.98,-0.04,-0.81
2022-01-30 16:28:14.6080,0.035,-0.453,-1.354,-0.21,1.55,3.44,-2.05,-0.7,-0.96
2022-01-30 16:28:14.6180,0.057,-0.443,-1.342,-0.64,1.9,3.73,-1.95,-1.29,-1.02
2022-01-30 16:28:14.6280,0.059,-0.421,-1.323,-1.04,2.08,3.72,-1.71,-1.74,-0.95
2022-01-30 16:28:14.6380,0.052,-0.409,-1.267,-1.26,2.04,3.51,-1.37,-1.93,-0.82
2022-01-30 16:28:14.6480,0.037,-0.41,-1.196,-1.38,1.99,3.13,-0.95,-1.88,-0.66
2022-01-30 16:28:14.6580,0.008,-0.402,-1.112,-1.44,2.07,2.42,-0.48,-1.58,-0.53
2022-01-30 16:28:14.6680,-0.026,-0.377,-0.996,-1.35,2.1,1.7,0.04,-1.05,-0.42
2022-01-30 16:28:14.6780,-0.044,-0.355,-0.851,-1.11,1.9,0.69,0.55,-0.36,-0.35
2022-01-30 16:28:14.6890,-0.039,-0.351,-0.703,-0.89,1.6,-0.64,1.01,0.37,-0.3
2022-01-30 16:28:14.7000,-0.016,-0.369,-0.567,-0.9,1.36,-3.47,1.37,0.99,-0.26
2022-01-30 16:28:14.7100,0.005,-0.397,-0.468,-1.02,1.47,-4.59,1.6,1.38,-0.21
2022-01-30 16:28:14.7200,0.008,-0.427,-0.425,-1.02,1.47,-4.59,1.69,1.5,-0.18
2022-01-30 16:28:14.7300,-0.002,-0.452,-0.412,-0.78,1.71,-5.35,1.67,1.41,-0.17
2022-01-30 16:28:14.7400,-0.029,-0.47,-0.421,-0.78,1.71,-5.35,1.6,1.16,-0.21
2022-01-30 16:28:14.7500,-0.047,-0.487,-0.465,-0.12,1.77,-4.98,1.55,0.76,-0.28
2022-01-30 16:28:14.7610,-0.052,-0.51,-0.526,0.0,1.84,-4.39,1.57,0.28,-0.39
2022-01-30 16:28:14.7700,-0.053,-0.518,-0.609,0.0,1.84,-4.39,1.67,-0.24,-0.54
2022-01-30 16:28:14.7810,-0.039,-0.496,-0.693,0.03,1.85,-3.61,1.78,-0.7,-0.76
2022-01-30 16:28:14.7900,-0.024,-0.47,-0.76,-0.08,1.57,-2.68,1.84,-0.97,-0.99
2022-01-30 16:28:14.8010,-0.024,-0.461,-0.782,-0.31,1.11,-1.88,1.8,-0.88,-1.17
2022-01-30 16:28:14.8190,-0.033,-0.46,-0.778,-0.32,0.62,-1.34,1.62,-0.43,-1.3
2022-01-30 16:28:14.8210,-0.03,-0.465,-0.79,-0.32,0.62,-1.34,1.3,0.22,-1.35
2022-01-30 16:28:14.8310,-0.013,-0.489,-0.837,-0.23,0.5,-1.27,0.92,0.9,-1.36
2022-01-30 16:28:14.8410,0.009,-0.516,-0.919,-0.22,0.56,-0.9,0.59,1.43,-1.34
2022-01-30 16:28:14.8500,0.035,-0.524,-1.023,-0.2767675741016865,0.91,0.77,0.36,1.7,-1.32
2022-01-30 16:28:14.8610,0.071,-0.532,-1.129,-0.4,0.94,1.85,0.26,1.72,-1.25
2022-01-30 16:28:14.8710,0.103,-0.549,-1.205,-0.4,0.94,1.85,0.26,1.72,-1.09893798828125
2022-01-30 16:28:14.8800,0.133,-0.57,-1.231,-0.55,1.06,2.75,0.32,1.35,-0.86
2022-01-30 16:28:14.8910,0.166,-0.592,-1.239,-0.68,1.23,3.21,0.32,1.35,-0.86
2022-01-30 16:28:14.9010,0.201,-0.63,-1.251,-0.87,1.41,3.32,0.4,0.7,-0.26
2022-01-30 16:28:14.9110,0.224,-0.675,-1.266,-1.13,1.68,3.45,0.39,0.32,0.04
2022-01-30 16:28:14.9210,0.225,-0.709,-1.265,-1.4,2.09,3.61,0.4,0.01,0.32
2022-01-30 16:28:14.9310,0.215,-0.726,-1.233,-1.46,2.63,3.53,0.43,-0.18,0.57
2022-01-30 16:28:14.9410,0.195,-0.733,-1.181,-1.46,2.63,3.53,0.45,-0.3,0.75
2022-01-30 16:28:14.9510,0.173,-0.746,-1.131,-1.35,2.68,3.07,0.46,-0.35,0.88
2022-01-30 16:28:14.9600,0.16,-0.754,-1.074,-1.110578918159008,2.81,2.08,0.4,-0.36,0.95
2022-01-30 16:28:14.9710,0.147,-0.753,-1.013,-1.12,2.81,2.08,0.29,-0.33,0.97
2022-01-30 16:28:14.9810,0.132,-0.746,-0.947,-0.99,2.74,0.88,0.13,-0.27,0.97
2022-01-30 16:28:14.9910,0.13,-0.732,-0.881,-0.99,2.74,0.88,-0.06,-0.2,0.95
2022-01-30 16:28:15.0010,0.139,-0.723,-0.833,-0.98,2.61,0.21,-0.26,-0.15,0.93
2022-01-30 16:28:15.0110,0.143,-0.709,-0.797,-1.22,2.47,-0.74,-0.26,-0.15,0.93
2022-01-30 16:28:15.0220,0.142,-0.672,-0.765,-1.22,2.47,-0.74,-0.57,-0.09,0.96
2022-01-30 16:28:15.0310,0.138,-0.622,-0.739,-1.27,2.23,-1.11,-0.61,-0.07,1.01
2022-01-30 16:28:15.0410,0.134,-0.566,-0.713,-1.32,1.34,-1.68,-0.59,-0.1,1.09
2022-01-30 16:28:15.0510,0.13,-0.513,-0.687,-1.32,1.34,-1.68,-0.51,-0.17,1.2
2022-01-30 16:28:15.0610,0.124,-0.461,-0.66,-1.34,0.86,-1.96,-0.37,-0.28,1.33
2022-01-30 16:28:15.0710,0.114,-0.417,-0.629,-1.37,0.38,-2.23,-0.18,-0.43,1.47
2022-01-30 16:28:15.0810,0.102,-0.368,-0.599,-1.39,-0.06,-2.54,-0.18,-0.43,1.47
2022-01-30 16:28:15.0910,0.089,-0.323,-0.57,-1.39,-0.97,-3.12,-0.0,-0.57,1.58
2022-01-30 16:28:15.1020,0.059,-0.3,-0.527,-1.39,-0.97,-3.12,-0.0,-0.42,1.58
2022-01-30 16:28:15.1110,0.017,-0.275,-0.491,-1.28,-1.27,-3.48,-0.01,-0.13,1.54
2022-01-30 16:28:15.1220,-0.015,-0.235,-0.473,-0.97,-1.45,-3.9,-0.0,0.22,1.48
2022-01-30 16:28:15.1310,-0.039,-0.207,-0.468,-0.41,-2.14,-4.23,0.04,0.58,1.4
2022-01-30 16:28:15.1420,-0.055,-0.209,-0.494,-0.41,-2.14,-4.23,0.12,0.83,1.37
2022-01-30 16:28:15.1520,-0.069,-0.228,-0.559,-0.05,-2.11,-3.6,0.27,0.94,1.38
2022-01-30 16:28:15.1620,-0.075,-0.262,-0.625,0.09341467872262002,-1.84,-2.91,0.52,0.93,1.42
2022-01-30 16:28:15.1720,-0.056,-0.294,-0.695,0.09,-1.84,-2.91,0.82,0.85,1.41
2022-01-30 16:28:15.1820,-0.028,-0.339,-0.762,0.0,-1.57,-2.22,1.05,0.75,1.36
2022-01-30 16:28:15.1910,-0.007,-0.42,-0.846,-0.5,-0.74,-0.71,1.2,0.67,1.28
2022-01-30 16:28:15.2020,0.006,-0.519,-0.909,-0.6247640289366245,0.13,0.1,1.27,0.69,1.16
2022-01-30 16:28:15.2120,0.019,-0.584,-0.963,-0.75,0.82,0.63,1.21,0.78,0.98
2022-01-30 16:28:15.2220,0.017,-0.63,-1.048,-0.78,1.21,1.39,1.02,0.87,0.85
2022-01-30 16:28:15.2320,-0.01,-0.682,-1.171,-0.56,1.64,2.47,0.79,0.85,0.8
2022-01-30 16:28:15.2420,-0.041,-0.722,-1.31,-0.21,2.03,3.89,0.69,0.76,0.81
2022-01-30 16:28:15.2520,-0.052,-0.759,-1.398,0.02,2.32,5.03,0.8,0.74,0.83
2022-01-30 16:28:15.2620,-0.014,-0.797,-1.42,0.02,2.32,5.03,1.09,0.78,0.83
2022-01-30 16:28:15.2720,0.054,-0.829,-1.395,-0.13,2.63,5.5,1.43,0.86,0.88
2022-01-30 16:28:15.2820,0.088,-0.853,-1.313,-0.73,2.83,5.52,1.61,0.92,1.04
2022-01-30 16:28:15.2920,0.065,-0.825,-1.194,-1.22,3.02,4.99,1.52,0.92,1.3
2022-01-30 16:28:15.3020,0.025,-0.814,-1.045,-1.17,2.82,4.02,1.23,0.9,1.57
2022-01-30 16:28:15.3120,-0.014,-0.836,-0.908,-0.82,2.44,2.71,0.87,0.71,1.76
2022-01-30 16:28:15.3220,-0.031,-0.864,-0.823,-0.28,2.76,0.28,0.45,0.26,1.82
2022-01-30 16:28:15.3330,-0.041,-0.879,-0.797,-0.28,2.76,0.28,0.02,-0.43,1.74
2022-01-30 16:28:15.3420,-0.082,-0.832,-0.781,-0.31,3.0,-0.17,-0.37,-1.16,1.57
2022-01-30 16:28:15.3520,-0.185,-0.689,-0.735,-0.25,2.87,-0.3,-0.64,-1.76,1.33
2022-01-30 16:28:15.3620,-0.304,-0.5,-0.672,0.33,1.88,-0.65,-0.8,-2.12,1.06
2022-01-30 16:28:15.3720,-0.376,-0.33,-0.596,1.3,0.18,-1.25,-0.89,-2.17,0.81
2022-01-30 16:28:15.3830,-0.405,-0.192,-0.516,2.21,-2.89,-2.78,-0.97,-1.89,0.57
2022-01-30 16:28:15.3920,-0.41,-0.064,-0.445,2.21,-2.89,-2.78,-1.07,-1.33,0.31
2022-01-30 16:28:15.4030,-0.407,0.059,-0.385,2.2,-4.06,-3.53,-1.21,-0.57,0.05
2022-01-30 16:28:15.4120,-0.399,0.143,-0.345,2.09,-6.11,-4.78,-1.34,0.28,-0.19
2022-01-30 16:28:15.4230,-0.39,0.182,-0.344,2.09,-6.11,-4.78,-1.39,1.08,-0.4
2022-01-30 16:28:15.4320,-0.387,0.188,-0.352,2.09,-6.53,-5.02,-1.23,1.74,-0.58
2022-01-30 16:28:15.4430,-0.38,0.166,-0.34,2.22,-6.61,-5.0,-0.87,2.17,-0.71
2022-01-30 16:28:15.4520,-0.363,0.138,-0.33,2.38,-6.42,-5.12,-0.48,2.29,-0.87
2022-01-30 16:28:15.4630,-0.333,0.123,-0.346,2.49,-6.08,-5.33,-0.19,2.19,-1.09
2022-01-30 16:28:15.4730,-0.313,0.084,-0.324,2.47,-5.9,-5.28,-0.19,2.05,-1.31
2022-01-30 16:28:15.4840,-0.29,0.014,-0.261,2.53,-5.07,-5.86,0.11,1.94,-1.52
2022-01-30 16:28:15.4930,-0.243,-0.052,-0.235,2.38,-4.39,-6.29,0.11,1.81,-1.7
2022-01-30 16:28:15.5030,-0.193,-0.111,-0.238,2.38,-4.39,-6.29,0.03,1.65,-1.84
2022-01-30 16:28:15.5130,-0.147,-0.171,-0.245,2.11,-3.8,-6.32,-0.06,1.48,-1.92
2022-01-30 16:28:15.5230,-0.122,-0.219,-0.285,1.85,-3.21,-6.27,-0.13,1.25,-1.95
2022-01-30 16:28:15.5330,-0.118,-0.235,-0.371,1.79,-2.33,-5.35,-0.14,0.96,-1.96
2022-01-30 16:28:15.5430,-0.127,-0.218,-0.459,1.79,-2.33,-5.35,-0.08,0.67,-1.99
2022-01-30 16:28:15.5530,-0.133,-0.196,-0.559,2.01,-2.38,-4.43,0.06,0.34,-2.01
2022-01-30 16:28:15.5630,-0.161,-0.184,-0.688,2.17,-2.59,-3.58,0.3,0.0,-2.06
2022-01-30 16:28:15.5730,-0.192,-0.176,-0.811,2.86,-2.86,-1.09,0.62,-0.35,-2.14
2022-01-30 16:28:15.5830,-0.203,-0.176,-0.904,2.86,-2.86,-1.09,0.92,-0.66,-2.23
2022-01-30 16:28:15.5930,-0.163,-0.204,-0.986,3.13,-2.95,0.03,0.98,-1.09,-2.3
2022-01-30 16:28:15.6030,-0.093,-0.283,-1.151,2.96,-2.87,0.77,0.74,-1.65,-2.29
2022-01-30 16:28:15.6130,-0.051,-0.39,-1.324,1.66,-1.31,3.85,0.27,-2.22,-2.27
2022-01-30 16:28:15.6240,-0.037,-0.458,-1.509,1.66,-1.31,3.85,-0.32,-2.61,-2.35
2022-01-30 16:28:15.6330,-0.053,-0.47,-1.703,1.32,-0.41,5.52,-0.83,-2.64,-2.6
2022-01-30 16:28:15.6430,-0.069,-0.446,-1.849,1.42,-0.02,8.95,-1.13,-2.26,-2.88
2022-01-30 16:28:15.6540,-0.052,-0.419,-1.979,1.34,-0.17,10.22,-1.16,-1.58,-3.02
2022-01-30 16:28:15.6640,-0.011,-0.403,-2.018,1.12,-0.28,11.0,-1.16,-1.58,-3.02
2022-01-30 16:28:15.6760,0.085,-0.41,-2.008,0.5,-0.24,10.87,-0.55,0.1,-2.69
2022-01-30 16:28:15.6860,0.218,-0.482,-2.013,-0.56,0.23,10.92,-0.55,0.1,-2.69
2022-01-30 16:28:15.6960,0.35,-0.627,-2.002,-0.56,0.23,10.92,-0.24,0.41,-2.21
2022-01-30 16:28:15.7060,0.457,-0.794,-1.975,-1.78,1.47,10.84,-0.27,-0.13,-2.04
2022-01-30 16:28:15.7160,0.554,-0.917,-1.902,-2.83,3.15,10.68,-0.34,-1.02,-1.88
2022-01-30 16:28:15.7240,0.616,-0.978,-1.851,-3.84,4.65,10.06,-0.47,-2.06,-1.72
2022-01-30 16:28:15.7340,0.621,-0.987,-1.794,-4.7,5.51,9.39,-0.61,-2.95,-1.62
2022-01-30 16:28:15.7440,0.567,-0.913,-1.706,-5.18,5.88,8.87,-0.7,-3.46,-1.67
2022-01-30 16:28:15.7540,0.506,-0.811,-1.563,-4.685376241207123,4.64,6.84,-0.75,-3.52,-1.81
2022-01-30 16:28:15.7640,0.462,-0.714,-1.378,-4.43,3.75,5.1,-0.78,-3.2,-1.95
2022-01-30 16:28:15.7740,0.433,-0.625,-1.169,-4.43,3.75,5.1,-0.78,-3.2,-1.95
2022-01-30 16:28:15.7820,0.436,-0.558,-0.964,-4.27,2.24,0.98,-0.91,-1.97,-2.08
2022-01-30 16:28:15.7930,0.46,-0.526,-0.799,-4.27,2.24,0.98,-1.01,-1.4,-2.04
2022-01-30 16:28:15.8040,0.494,-0.529,-0.674,-4.51,1.87,-0.83,-1.01,-1.4,-2.04
2022-01-30 16:28:15.8140,0.531,-0.546,-0.581,-5.22,2.14,-3.28,-1.22,-0.72,-1.82
2022-01-30 16:28:15.8250,0.559,-0.567,-0.51,-5.56,2.47,-4.1,-1.34,-0.58,-1.67
2022-01-30 16:28:15.8340,0.564,-0.587,-0.458,-5.56,2.47,-4.1,-1.47,-0.5,-1.49
2022-01-30 16:28:15.8450,0.55,-0.597,-0.433,-5.62,3.11,-5.1,-1.59,-0.39,-1.28
2022-01-30 16:28:15.8540,0.519,-0.592,-0.418,-5.62,3.11,-5.1,-1.59,-0.39,-1.28
2022-01-30 16:28:15.8650,0.475,-0.568,-0.403,-4.97,3.25,-5.5,-1.52,-0.11,-0.76
2022-01-30 16:28:15.8740,0.434,-0.527,-0.393,-4.53,3.01,-5.66,-1.3,0.0,-0.49
2022-01-30 16:28:15.8840,0.4,-0.5,-0.384,-4.53,3.01,-5.66,-0.98,0.07,-0.22
2022-01-30 16:28:15.8940,0.375,-0.496,-0.369,-3.89,2.71,-5.92,-0.62,0.06,0.06
2022-01-30 16:28:15.9040,0.349,-0.507,-0.373,-3.89,2.71,-5.92,-0.28,0.0,0.31
2022-01-30 16:28:15.9140,0.325,-0.532,-0.354,-3.64,2.8,-5.95,-0.01,-0.02,0.53
2022-01-30 16:28:15.9240,0.299,-0.566,-0.32,-3.18,3.31,-6.34,0.16,0.03,0.73
2022-01-30 16:28:15.9350,0.267,-0.593,-0.301,-3.18,3.31,-6.34,0.23,0.13,0.91
2022-01-30 16:28:15.9440,0.234,-0.608,-0.286,-2.89,3.6,-6.55,0.28,0.26,1.08
2022-01-30 16:28:15.9550,0.2,-0.612,-0.294,-2.57,3.75,-6.74,0.36,0.38,1.23
2022-01-30 16:28:15.9650,0.17,-0.585,-0.327,-2.23,3.82,-6.74,0.48,0.39,1.35
2022-01-30 16:28:15.9750,0.145,-0.545,-0.381,-1.9,3.65,-6.5,0.64,0.29,1.46
2022-01-30 16:28:15.9850,0.125,-0.531,-0.448,-1.45,2.87,-5.4,0.85,0.09,1.59
2022-01-30 16:28:15.9950,0.115,-0.539,-0.526,-1.39,2.78,-4.64,1.13,-0.15,1.75
2022-01-30 16:28:16.0050,0.098,-0.537,-0.603,-1.33,2.72,-3.81,1.48,-0.31,1.87
2022-01-30 16:28:16.0150,0.08,-0.507,-0.678,-1.33,2.72,-3.81,1.92,-0.35,1.91
2022-01-30 16:28:16.0250,0.078,-0.512,-0.731,-1.22,2.33,-3.07,2.42,-0.05,1.88
2022-01-30 16:28:16.0350,0.117,-0.552,-0.738,-1.43,2.04,-2.12,2.78,0.35,1.83
2022-01-30 16:28:16.0450,0.178,-0.617,-0.833,-1.99,2.29,-1.41,2.89,0.64,1.82
2022-01-30 16:28:16.0550,0.239,-0.705,-0.93,-2.61,2.9,-0.32,2.7,0.65,1.81
2022-01-30 16:28:16.0650,0.268,-0.724,-1.116,-2.61,2.9,-0.32,2.23,0.16,1.69
2022-01-30 16:28:16.0750,0.237,-0.671,-1.398,-3.12,3.24,1.1,1.6,-0.63,1.42
2022-01-30 16:28:16.0850,0.202,-0.645,-1.606,-3.11,2.74,3.74,1.14,-1.1,1.08
2022-01-30 16:28:16.0950,0.167,-0.613,-1.66,-2.67,1.99,7.33,1.01,-1.09,0.73
2022-01-30 16:28:16.1050,0.132,-0.485,-1.729,-2.38,0.99,7.95,1.15,-0.62,0.45
2022-01-30 16:28:16.1150,0.115,-0.343,-1.74,-2.38,0.99,7.95,1.42,0.19,0.35
2022-01-30 16:28:16.1250,0.108,-0.279,-1.719,-2.16,-0.63,8.41,1.42,0.19,0.35
2022-01-30 16:28:16.1350,0.105,-0.267,-1.693,-1.85,-2.12,8.16,1.81,1.68,0.74
2022-01-30 16:28:16.1460,0.111,-0.301,-1.654,-1.85,-2.12,8.16,1.78,1.94,0.98
2022-01-30 16:28:16.1550,0.116,-0.372,-1.642,-1.7390068124234677,-1.64,7.68,1.65,1.77,1.1
2022-01-30 16:28:16.1660,0.096,-0.426,-1.648,-1.74,-1.64,7.68,1.51,1.26,1.08
2022-01-30 16:28:16.1750,0.056,-0.447,-1.608,-1.24,-0.92,7.71,1.42,0.63,0.96
2022-01-30 16:28:16.1860,0.024,-0.466,-1.528,-0.9,-0.86,7.1,1.35,0.08,0.79
2022-01-30 16:28:16.1950,-0.001,-0.482,-1.429,-0.9,-0.86,7.1,1.21,-0.26,0.61
2022-01-30 16:28:16.2050,-0.038,-0.46,-1.297,-0.71,-0.74,6.25,1.0,-0.21,0.47
2022-01-30 16:28:16.2150,-0.084,-0.412,-1.13,-0.45,-0.88,5.18,0.7,0.23,0.38
2022-01-30 16:28:16.2260,-0.125,-0.368,-0.994,0.44,-1.85,2.15,0.31,0.9,0.37
2022-01-30 16:28:16.2360,-0.159,-0.333,-0.909,0.44,-1.85,2.15,-0.11,1.62,0.43
2022-01-30 16:28:16.2450,-0.172,-0.304,-0.864,0.92,-2.21,1.13,-0.49,2.21,0.52
2022-01-30 16:28:16.2560,-0.16,-0.291,-0.856,1.28,-2.48,0.52,-0.49,2.21,0.52
2022-01-30 16:28:16.2660,-0.137,-0.293,-0.867,1.39,-2.56,0.28,-0.97,2.66,0.66
2022-01-30 16:28:16.2760,-0.124,-0.288,-0.876,1.39,-2.56,0.28,-1.07,2.53,0.71
2022-01-30 16:28:16.2860,-0.133,-0.252,-0.891,1.38,-2.46,0.31,-1.11,2.21,0.78
2022-01-30 16:28:16.2960,-0.166,-0.205,-0.902,1.88,-2.97,0.48,-1.1,1.79,0.88
2022-01-30 16:28:16.3060,-0.205,-0.156,-0.896,1.88,-2.97,0.48,-1.02,1.36,0.97
2022-01-30 16:28:16.3160,-0.247,-0.083,-0.873,2.32,-3.33,0.43,-0.88,1.04,0.99
2022-01-30 16:28:16.3260,-0.275,-0.005,-0.813,3.14,-4.61,-0.24,-0.71,0.86,0.95
2022-01-30 16:28:16.3360,-0.296,0.064,-0.749,3.14,-4.61,-0.24,-0.55,0.8,0.9
2022-01-30 16:28:16.3460,-0.304,0.118,-0.689,3.56,-5.85,-1.53,-0.45,0.79,0.85
2022-01-30 16:28:16.3560,-0.293,0.137,-0.634,3.540056968331337,-6.116058349013329,-2.12,-0.38,0.78,0.79
2022-01-30 16:28:16.3660,-0.272,0.142,-0.585,3.39,-6.18,-2.62,-0.35,0.74,0.71
2022-01-30 16:28:16.3760,-0.253,0.142,-0.54,3.2,-6.17,-3.1,-0.32,0.67,0.61
2022-01-30 16:28:16.3860,-0.245,0.134,-0.502,3.12,-6.1,-3.5,-0.29,0.61,0.5
2022-01-30 16:28:16.3960,-0.242,0.124,-0.471,3.12,-6.1,-3.5,-0.24,0.59,0.38
2022-01-30 16:28:16.4060,-0.248,0.116,-0.446,3.1,-5.97,-3.84,-0.14,0.63,0.25
2022-01-30 16:28:16.4160,-0.259,0.104,-0.416,3.16,-5.89,-4.11,-0.0,0.72,0.11
2022-01-30 16:28:16.4270,-0.266,0.098,-0.398,3.47,-5.7,-4.61,0.16,0.8,-0.04
2022-01-30 16:28:16.4360,-0.269,0.089,-0.389,3.47,-5.7,-4.61,0.31,0.86,-0.2
2022-01-30 16:28:16.4460,-0.263,0.075,-0.376,3.6,-5.66,-4.68,0.43,0.88,-0.35
2022-01-30 16:28:16.4560,-0.249,0.055,-0.373,3.66,-5.44,-4.83,0.47,0.86,-0.47
2022-01-30 16:28:16.4670,-0.233,0.013,-0.389,3.59,-5.16,-4.72,0.44,0.76,-0.54
2022-01-30 16:28:16.4760,-0.22,-0.056,-0.429,3.59,-5.16,-4.72,0.39,0.59,-0.55
2022-01-30 16:28:16.4860,-0.215,-0.136,-0.489,3.53,-4.6,-3.83835033595562,0.35,0.35,-0.52
2022-01-30 16:28:16.4960,-0.219,-0.197,-0.568,3.49,-3.84,-3.84,0.36,0.01,-0.52
2022-01-30 16:28:16.5070,-0.221,-0.234,-0.684,3.55,-3.17,-3.14,0.44,-0.4,-0.55
2022-01-30 16:28:16.5170,-0.231,-0.271,-0.798,3.6,-2.46,-0.89,0.65,-0.81,-0.6
2022-01-30 16:28:16.5270,-0.243,-0.296,-0.878,3.66,-2.21,0.02,0.92,-1.17,-0.67
2022-01-30 16:28:16.5360,-0.235,-0.308,-0.953,3.6,-2.16,0.79,1.11,-1.46,-0.8
2022-01-30 16:28:16.5470,-0.206,-0.354,-1.027,3.6,-2.16,0.79,1.15,-1.63,-0.94
2022-01-30 16:28:16.5560,-0.162,-0.451,-1.085,3.29,-1.97,1.58,1.02,-1.66,-1.07
2022-01-30 16:28:16.5670,-0.098,-0.572,-1.18,2.86,-1.26,2.21,0.74,-1.6,-1.19
2022-01-30 16:28:16.5770,-0.023,-0.696,-1.315,2.21,-0.18,3.0,0.34,-1.57,-1.3
2022-01-30 16:28:16.5870,0.035,-0.808,-1.498,1.45,1.02,4.15,-0.09,-1.56,-1.32
2022-01-30 16:28:16.5970,0.061,-0.845,-1.645,0.29,2.99,7.42,-0.49,-1.39,-1.26
2022-01-30 16:28:16.6070,0.042,-0.795,-1.726,0.29,2.99,7.42,-0.77,-0.88,-1.1
2022-01-30 16:28:16.6170,0.018,-0.741,-1.74,0.61,2.31,8.7,-0.9,-0.16,-0.83
2022-01-30 16:28:16.6270,0.036,-0.719,-1.785,0.61,2.31,8.7,-0.9,0.5,-0.45
2022-01-30 16:28:16.6370,0.107,-0.749,-1.808,0.67,2.04,8.95,-0.92,0.82,-0.02
2022-01-30 16:28:16.6470,0.182,-0.808,-1.875,-0.55,2.81,9.6,-1.0,0.54,0.35
2022-01-30 16:28:16.6580,0.204,-0.851,-1.943,-1.03,3.45,10.39,-1.06,-0.15,0.6
2022-01-30 16:28:16.6680,0.167,-0.826,-1.932,-0.94,3.55,10.52,-1.0,-0.97,0.68
2022-01-30 16:28:16.6780,0.132,-0.768,-1.838,-0.94,3.55,10.52,-0.85,-1.68,0.65
2022-01-30 16:28:16.6870,0.113,-0.704,-1.681,-0.69,2.56,8.43,-0.71,-2.25,0.61
2022-01-30 16:28:16.6970,0.094,-0.639,-1.508,-0.69,2.56,8.43,-0.67,-2.65,0.58
2022-01-30 16:28:16.7070,0.074,-0.583,-1.315,-0.77,1.97,6.75,-0.7,-2.87,0.56
2022-01-30 16:28:16.7170,0.05,-0.514,-1.126,-0.85,1.46,4.88,-0.78,-2.9,0.51
2022-01-30 16:28:16.7270,0.014,-0.415,-0.954,-0.88,0.15,1.18,-0.91,-2.71,0.43
2022-01-30 16:28:16.7370,-0.024,-0.311,-0.8,-0.88,0.15,1.18,-1.11,-2.26,0.3
2022-01-30 16:28:16.7470,-0.044,-0.235,-0.677,-0.7,-0.8,-0.44,-1.39,-1.61,0.13
2022-01-30 16:28:16.7570,-0.056,-0.191,-0.59,-0.59,-1.55,-1.82,-1.68,-0.87,-0.07
2022-01-30 16:28:16.7680,-0.065,-0.155,-0.53,-0.54,-1.93,-2.86,-1.89,-0.15,-0.28
2022-01-30 16:28:16.7780,-0.054,-0.132,-0.503,-0.45,-2.12,-3.6,-1.99,0.42,-0.45
2022-01-30 16:28:16.7880,-0.021,-0.137,-0.514,-0.41,-2.26,-4.09,-1.99,0.42,-0.45
2022-01-30 16:28:16.7980,0.005,-0.151,-0.525,-0.6,-2.12,-4.17,-1.73,0.89,-0.47
2022-01-30 16:28:16.8080,0.014,-0.142,-0.515,-0.8616692335903645,-1.67,-4.16,-1.37,0.81,-0.35
2022-01-30 16:28:16.8180,0.008,-0.095,-0.498,-0.87,-1.67,-4.16,-0.9565600752830505,0.56,-0.23
2022-01-30 16:28:16.8270,-0.014,-0.041,-0.469,-0.81,-1.91,-4.36,-0.55,0.22,-0.13
2022-01-30 16:28:16.8380,-0.041,-0.024,-0.445,-0.6,-2.41,-4.58,-0.18,-0.2,-0.02
2022-01-30 16:28:16.8480,-0.083,-0.036,-0.439,-0.38,-2.72,-4.93,0.14,-0.62,0.07
2022-01-30 16:28:16.8580,-0.123,-0.035,-0.444,0.24,-2.61,-5.05,0.36,-1.07,0.08
2022-01-30 16:28:16.8680,-0.162,-0.009,-0.493,0.49,-2.86,-4.63,0.48,-1.51,-0.01
2022-01-30 16:28:16.8780,-0.201,0.005,-0.534,0.49,-2.86,-4.63,0.55,-1.85,-0.17
2022-01-30 16:28:16.8880,-0.233,0.017,-0.572,0.71,-3.1,-4.16,0.58,-2.04,-0.39
2022-01-30 16:28:16.8980,-0.261,0.049,-0.605,0.88,-3.26,-3.73,0.59,-2.02,-0.66
2022-01-30 16:28:16.9080,-0.29,0.097,-0.628,1.1576576288044453,-4.039089634716511,-3.03,0.59,-1.79,-0.99
2022-01-30 16:28:16.9180,-0.309,0.147,-0.648,1.15,-4.04,-3.03,0.57,-1.37,-1.33
2022-01-30 16:28:16.9280,-0.316,0.192,-0.669,1.28,-4.61,-2.8,0.54,-0.83,-1.66
2022-01-30 16:28:16.9380,-0.304,0.21,-0.705,1.39,-5.17,-2.54,0.42,-0.37,-1.91
2022-01-30 16:28:16.9480,-0.279,0.192,-0.821,1.36,-5.51,-2.31,0.17,-0.15,-2.08
2022-01-30 16:28:16.9580,-0.239,0.127,-0.975,0.94,-5.1,-0.04,-0.15,-0.22,-2.15
2022-01-30 16:28:16.9680,-0.173,0.027,-1.155,0.94,-5.1,-0.04,-0.4,-0.52,-2.16
2022-01-30 16:28:16.9780,-0.104,-0.1,-1.326,0.43,-4.24,1.62,-0.4,-0.52,-2.16
2022-01-30 16:28:16.9880,-0.059,-0.195,-1.437,-0.3,-3.05,3.42,-0.21,-1.16,-2.07
2022-01-30 16:28:16.9980,-0.034,-0.217,-1.486,-0.84,-1.93,4.74,0.04,-1.19,-2.06
2022-01-30 16:28:17.0170,-0.035,-0.231,-1.472,-1.29,-1.46,5.53,0.08,-1.01,-2.06
2022-01-30 16:28:17.0180,-0.034,-0.289,-1.456,-1.29,-1.46,5.53,-0.14,-0.68,-2.03
2022-01-30 16:28:17.0280,-0.007,-0.388,-1.442,-1.25,-1.1,5.38,-0.48,-0.37,-1.99
2022-01-30 16:28:17.0380,0.064,-0.51,-1.462,-1.85,0.93,5.22,-0.83,-0.23,-1.93
2022-01-30 16:28:17.0490,0.166,-0.645,-1.537,-1.85,0.93,5.22,-1.1,-0.37,-1.82
2022-01-30 16:28:17.0590,0.26,-0.775,-1.619,-3.73,3.72,6.56,-1.1,-0.37,-1.82
2022-01-30 16:28:17.0690,0.321,-0.846,-1.654,-4.470102226138115,4.77,7.04,-1.36,-0.86,-1.57
2022-01-30 16:28:17.0790,0.349,-0.876,-1.631,-4.48,4.77,7.04,-1.45,-0.84,-1.46
2022-01-30 16:28:17.0880,0.374,-0.921,-1.555,-5.11,5.74,6.37,-1.57,-0.62,-1.36
2022-01-30 16:28:17.0990,0.418,-0.962,-1.485,-5.11,5.74,6.37,-1.7,-0.3,-1.3
2022-01-30 16:28:17.1090,0.473,-0.975,-1.421,-5.95,6.72,4.89,-1.8,-0.01,-1.26
2022-01-30 16:28:17.1190,0.532,-0.964,-1.369,-5.95,6.72,4.89,-1.8,-0.01,-1.26
2022-01-30 16:28:17.1290,0.584,-0.958,-1.332,-6.47,6.84,4.27,-1.77,0.07,-0.95
2022-01-30 16:28:17.1390,0.622,-0.956,-1.301,-6.99,6.89,3.81,-1.62,-0.22,-0.59
2022-01-30 16:28:17.1480,0.645,-0.949,-1.282,-7.41,7.01,3.45,-1.34,-0.69,-0.11
2022-01-30 16:28:17.1580,0.635,-0.915,-1.247,-7.76,7.11,3.19,-1.34,-0.69,-0.11
2022-01-30 16:28:17.1680,0.582,-0.842,-1.169,-7.93,7.0,2.97,-0.91,-1.21,0.42
2022-01-30 16:28:17.1790,0.492,-0.744,-1.064,-7.73,6.48,2.37,0.24,-1.94,1.47
2022-01-30 16:28:17.1890,0.396,-0.642,-0.937,-6.45,4.56,0.35,0.83,-2.02,1.89
2022-01-30 16:28:17.1990,0.303,-0.554,-0.799,-6.45,4.56,0.35,1.37,-1.86,2.17
2022-01-30 16:28:17.2090,0.216,-0.472,-0.669,-5.74,3.57,-0.91,1.85,-1.49,2.3
2022-01-30 16:28:17.2190,0.138,-0.388,-0.535,-4.39,1.69,-3.36,2.24,-0.96,2.27
2022-01-30 16:28:17.2290,0.081,-0.319,-0.408,-3.84,0.78,-4.57,2.52,-0.33,2.1
2022-01-30 16:28:17.2390,0.049,-0.271,-0.295,-3.84,0.78,-4.57,2.66,0.32,1.8
2022-01-30 16:28:17.2490,0.037,-0.239,-0.213,-3.25,-0.52,-6.54,2.69,0.92,1.44
2022-01-30 16:28:17.2600,0.035,-0.217,-0.151,-3.25,-0.52,-6.54,2.69,0.92,1.44
2022-01-30 16:28:17.2690,0.036,-0.199,-0.106,-3.12,-0.97,-7.18,2.51,1.79,0.74
2022-01-30 16:28:17.2790,0.046,-0.187,-0.088,-2.99,-1.35,-7.65,2.33,1.98,0.45
2022-01-30 16:28:17.2890,0.063,-0.185,-0.114,-2.89,-1.7,-7.92,2.09,2.01,0.23
2022-01-30 16:28:17.3000,0.078,-0.191,-0.157,-2.87,-1.94,-7.79,1.82,1.95,0.08
2022-01-30 16:28:17.3100,0.094,-0.205,-0.206,-2.86,-2.07,-7.37,1.59,1.85,-0.01
2022-01-30 16:28:17.3190,0.113,-0.208,-0.296,-2.85,-2.09,-6.9,1.59,1.67,-0.08
2022-01-30 16:28:17.3290,0.118,-0.195,-0.415,-2.86,-2.33,-5.01,1.38,1.5,-0.13
2022-01-30 16:28:17.3400,0.11,-0.196,-0.504,-2.86,-2.33,-5.01,1.45,1.41,-0.14
2022-01-30 16:28:17.3500,0.088,-0.22,-0.619,-2.69,-2.53,-4.0,1.45,1.41,-0.14
2022-01-30 16:28:17.3600,0.052,-0.247,-0.746,-2.42,-2.5,-2.99,1.68,1.33,-0.16
2022-01-30 16:28:17.3700,0.028,-0.277,-0.858,-1.55,-2.24,-0.48,1.64,1.31,-0.23
2022-01-30 16:28:17.3800,-0.002,-0.325,-0.989,-1.55,-2.24,-0.48,1.48,1.35,-0.27
2022-01-30 16:28:17.3900,-0.04,-0.402,-1.104,-1.19,-1.99,0.83,1.36,1.47,-0.25
2022-01-30 16:28:17.4000,-0.049,-0.488,-1.215,-0.31,-0.72,3.21,1.33,1.64,-0.16
2022-01-30 16:28:17.4100,-0.032,-0.569,-1.325,-0.24,-0.01,4.38,1.34,1.8,-0.06
2022-01-30 16:28:17.4200,-0.002,-0.631,-1.392,-0.24,-0.01,4.38,1.27,2.01,0.04
2022-01-30 16:28:17.4300,-0.01,-0.677,-1.393,-0.31,0.97,5.61,1.03,2.33,0.19
2022-01-30 16:28:17.4400,-0.065,-0.738,-1.335,-0.31,0.97,5.61,0.64,2.73,0.42
2022-01-30 16:28:17.4500,-0.11,-0.82,-1.288,0.3,1.44,5.24,0.14,3.01,0.65
2022-01-30 16:28:17.4600,-0.116,-0.909,-1.304,1.45,3.06,4.55,-0.4,2.96,0.8
2022-01-30 16:28:17.4700,-0.111,-0.995,-1.398,1.54,3.98,5.14,-0.87,2.5,0.82
2022-01-30 16:28:17.4800,-0.135,-1.056,-1.518,1.54,3.98,5.14,-1.13,1.82,0.74
2022-01-30 16:28:17.4900,-0.186,-1.055,-1.561,1.77,4.8,6.31,-1.21,1.2,0.65
2022-01-30 16:28:17.5000,-0.27,-1.003,-1.522,2.98,4.87,6.84,-1.21,0.8,0.66
2022-01-30 16:28:17.5100,-0.358,-0.923,-1.43,3.91,4.29,6.07,-1.18,0.68,0.75
2022-01-30 16:28:17.5200,-0.401,-0.808,-1.3,4.56,3.38,4.84,-1.14,0.76,0.81
2022-01-30 16:28:17.5310,-0.389,-0.676,-1.157,4.56,3.38,4.84,-1.08,0.92,0.82
2022-01-30 16:28:17.5400,-0.346,-0.538,-1.02,4.66,2.22,3.42,-1.05,0.97,0.8
2022-01-30 16:28:17.5510,-0.295,-0.447,-0.914,3.91,-0.1,0.8,-1.06,0.83,0.83
2022-01-30 16:28:17.5600,-0.258,-0.41,-0.815,3.91,-0.1,0.8,-1.1,0.49,0.95
2022-01-30 16:28:17.5710,-0.24,-0.38,-0.735,3.1838065838813785,-0.72,-1.17,-1.14,-0.0,1.1
2022-01-30 16:28:17.5800,-0.243,-0.342,-0.665,3.18,-0.72,-1.17,-1.15,-0.6,1.25
2022-01-30 16:28:17.5900,-0.253,-0.307,-0.616,3.04,-0.98,-1.94,-1.11,-1.18,1.34
2022-01-30 16:28:17.6010,-0.285,-0.275,-0.576,2.97,-1.48,-3.02,-1.01,-1.63,1.34
2022-01-30 16:28:17.6110,-0.325,-0.224,-0.539,2.97,-1.48,-3.02,-0.92,-1.85,1.17
2022-01-30 16:28:17.6200,-0.335,-0.167,-0.508,3.19,-1.81,-3.45,-0.92,-1.85,1.17
2022-01-30 16:28:17.6300,-0.331,-0.144,-0.477,3.2,-2.31,-3.8,-1.13,-1.26,0.4
2022-01-30 16:28:17.6410,-0.329,-0.138,-0.418,3.06,-2.58,-4.15,-1.32,-0.38,0.02
2022-01-30 16:28:17.6500,-0.334,-0.095,-0.363,2.96,-2.52,-4.64,-1.45,0.67,-0.28
2022-01-30 16:28:17.6610,-0.32,-0.022,-0.372,3.18,-3.19,-5.56,-1.42,1.6,-0.52
2022-01-30 16:28:17.6710,-0.272,0.007,-0.42,3.18,-3.19,-5.56,-1.2,2.17,-0.69
2022-01-30 16:28:17.6810,-0.207,-0.026,-0.484,2.69,-3.39,-4.67,-0.81,2.3,-0.77
2022-01-30 16:28:17.6920,-0.135,-0.096,-0.544,2.69,-3.39,-4.67,-0.39,2.02,-0.81
2022-01-30 16:28:17.7010,-0.079,-0.153,-0.572,1.76,-2.08,-3.62,-0.06,1.5,-0.84
2022-01-30 16:28:17.7110,-0.04,-0.201,-0.571,1.43,-1.59,-3.55,0.13,0.85,-0.84
2022-01-30 16:28:17.7210,-0.016,-0.243,-0.573,1.43,-1.59,-3.55,0.17,0.17,-0.82
2022-01-30 16:28:17.7310,0.01,-0.27,-0.585,1.2,-1.16,-3.55,0.14,-0.43,-0.76
2022-01-30 16:28:17.7410,0.031,-0.277,-0.6,0.64,-0.69,-3.31,0.13,-0.87,-0.62
2022-01-30 16:28:17.7510,0.027,-0.251,-0.62,0.64,-0.69,-3.31,0.14,-1.19,-0.42
2022-01-30 16:28:17.7600,0.017,-0.195,-0.71,0.48,-1.31,-2.63,0.14,-1.19,-0.42
2022-01-30 16:28:17.7720,-0.002,-0.156,-0.853,0.46,-1.79,-1.37,0.12,-1.82,0.0
2022-01-30 16:28:17.7800,-0.028,-0.14,-1.004,0.5,-2.06,0.14,0.19,-2.13,0.14
2022-01-30 16:28:17.7900,-0.038,-0.158,-1.099,0.5,-2.06,0.14,0.38,-2.23,0.19
2022-01-30 16:28:17.8000,-0.019,-0.192,-1.117,0.49,-2.04,1.34,0.6,-2.03,0.22
2022-01-30 16:28:17.8100,-0.0,-0.225,-1.081,0.18,-1.77,1.81,0.6,-2.03,0.22
2022-01-30 16:28:17.8200,0.026,-0.269,-1.049,-0.17,-1.51,1.63,0.6,-1.13,0.38
2022-01-30 16:28:17.8310,0.049,-0.333,-1.017,-0.52,-1.2,1.28,0.25,-0.75,0.47
2022-01-30 16:28:17.8400,0.066,-0.399,-1.038,-0.86,-0.65,1.0,0.25,-0.75,0.47
2022-01-30 16:28:17.8520,0.074,-0.478,-1.114,-1.12,0.01,0.91,-0.94,-0.74,0.25
2022-01-30 16:28:17.8610,0.048,-0.521,-1.24,-1.31,1.61,2.46,-1.64,-1.11,-0.13
2022-01-30 16:28:17.8720,0.005,-0.503,-1.421,-1.31,1.61,2.46,-2.34,-1.62,-0.69
2022-01-30 16:28:17.8810,-0.034,-0.464,-1.608,-0.79,1.72,5.83,-2.86,-2.02,-1.24
2022-01-30 16:28:17.8920,-0.078,-0.409,-1.732,-0.52,1.58,7.25,-3.04,-2.16,-1.65
2022-01-30 16:28:17.9010,-0.102,-0.307,-1.757,-0.52,1.58,7.25,-2.78,-1.89,-1.85
2022-01-30 16:28:17.9120,-0.105,-0.191,-1.692,-0.32,0.04,7.41,-2.17,-1.29,-1.86
2022-01-30 16:28:17.9220,-0.122,-0.069,-1.574,-0.23,-1.02,6.53,-1.39,-0.36,-1.67
2022-01-30 16:28:17.9320,-0.13,0.028,-1.328,-0.23,-1.02,6.53,-0.62,0.78,-1.38
2022-01-30 16:28:17.9420,-0.089,0.034,-1.075,0.03,-2.08,4.52,-0.07,1.77,-1.07
2022-01-30 16:28:17.9520,-0.002,-0.047,-0.918,0.01,-2.53,1.86,0.2,2.33,-0.84
2022-01-30 16:28:17.9620,0.085,-0.174,-0.818,-0.48,-2.02,-0.07,0.2,2.33,-0.84
2022-01-30 16:28:17.9730,0.13,-0.32,-0.73,-1.55,0.44,-2.09,0.31,2.12,-0.41
2022-01-30 16:28:17.9820,0.145,-0.441,-0.652,-1.55,0.44,-2.09,0.31,2.12,-0.41
2022-01-30 16:28:17.9920,0.158,-0.551,-0.615,-1.6,1.71,-2.9,0.27,0.78,0.11
2022-01-30 16:28:18.0020,0.185,-0.685,-0.634,-1.85,3.93,-3.45,0.13,-0.11,0.34
2022-01-30 16:28:18.0130,0.216,-0.855,-0.68,-1.85,3.93,-3.45,0.13,-0.11,0.34
2022-01-30 16:28:18.0220,0.231,-0.983,-0.767,-2.66,7.06,-2.41,-0.28,-1.88,0.55
2022-01-30 16:28:18.0320,0.229,-1.025,-0.893,-2.66,7.06,-2.41,-0.45,-2.67,0.43
2022-01-30 16:28:18.0420,0.204,-0.985,-1.018,-2.95,7.84,-1.29,-0.45,-3.15,0.14
2022-01-30 16:28:18.0520,0.167,-0.894,-1.067,-3.11,7.78,0.05,-0.34,-3.17,-0.33
2022-01-30 16:28:18.0620,0.178,-0.809,-1.076,-3.18,6.13,1.06,-0.29,-2.75,-0.84
2022-01-30 16:28:18.0730,0.218,-0.791,-1.073,-3.18,6.13,1.06,-0.29,-2.75,-0.84
2022-01-30 16:28:18.0820,0.268,-0.804,-1.1,-3.68,5.7,1.09,-0.81,-1.19,-1.51
2022-01-30 16:28:18.0920,0.333,-0.801,-1.197,-4.85,5.98,1.88,-0.81,-1.19,-1.51
2022-01-30 16:28:18.1110,0.366,-0.757,-1.268,-5.3,5.84,2.78,-1.16,0.33,-1.38
2022-01-30 16:28:18.1120,0.364,-0.637,-1.322,-5.3,5.84,2.78,-0.79,0.84,-1.05
2022-01-30 16:28:18.1200,0.372,-0.499,-1.348,-5.25,5.0,3.24,-0.14,1.11,-0.63
2022-01-30 16:28:18.1300,0.372,-0.409,-1.312,-5.17,3.6,3.69,0.58,1.1,-0.16
2022-01-30 16:28:18.1400,0.345,-0.345,-1.249,-5.13,2.48,3.5,1.2,0.88,0.28
2022-01-30 16:28:18.1500,0.296,-0.3,-1.147,-4.88,1.7,2.98,1.64,0.66,0.59
2022-01-30 16:28:18.1600,0.23,-0.285,-1.011,-4.42,1.02,2.18,1.64,0.66,0.59
2022-01-30 16:28:18.1700,0.168,-0.274,-0.89,-3.78,0.6,0.94,1.95,0.56,0.79
2022-01-30 16:28:18.1800,0.115,-0.248,-0.776,-3.1,0.33,-0.28,2.33,0.65,0.71
2022-01-30 16:28:18.1910,0.071,-0.216,-0.691,-2.51,-0.08,-1.37,2.42,0.74,0.54
2022-01-30 16:28:18.2000,0.031,-0.177,-0.648,-1.99,-0.59,-2.29,2.42,0.74,0.54
2022-01-30 16:28:18.2110,-0.009,-0.149,-0.625,-1.52,-1.18,-2.79,2.41,0.86,0.33
2022-01-30 16:28:18.2210,-0.051,-0.136,-0.634,-1.05,-1.73,-3.0,2.15,1.22,0.04
2022-01-30 16:28:18.2310,-0.08,-0.136,-0.677,-0.53,-2.1,-3.01,2.01,1.36,-0.03
2022-01-30 16:28:18.2410,-0.081,-0.153,-0.743,-0.04,-2.33,-2.62,1.92,1.38,-0.06
2022-01-30 16:28:18.2510,-0.065,-0.204,-0.857,0.2,-2.42,-2.02,1.87,1.25,-0.08
2022-01-30 16:28:18.2610,-0.046,-0.257,-0.975,0.2,-2.21,-1.02,1.84,1.06,-0.13
2022-01-30 16:28:18.2710,-0.058,-0.285,-1.084,0.1,-1.81,0.28,1.8,0.87,-0.2
2022-01-30 16:28:18.2810,-0.103,-0.303,-1.2,0.15,-1.6,1.4,1.79,0.81,-0.26
2022-01-30 16:28:18.2910,-0.132,-0.333,-1.245,0.6,-1.58,2.66,1.83,0.93,-0.28
2022-01-30 16:28:18.3010,-0.129,-0.359,-1.284,1.08,-1.48,3.46,1.92,1.11,-0.26
2022-01-30 16:28:18.3110,-0.112,-0.374,-1.318,1.27,-1.36,3.87,1.99,1.23,-0.23
2022-01-30 16:28:18.3210,-0.083,-0.379,-1.353,1.25,-1.34,4.35,1.98,1.25,-0.21
2022-01-30 16:28:18.3310,-0.07,-0.397,-1.366,1.12,-1.43,4.78,1.84,1.25,-0.22
2022-01-30 16:28:18.3410,-0.076,-0.438,-1.356,1.01,-1.49,5.12,1.59,1.28,-0.25
2022-01-30 16:28:18.3510,-0.083,-0.489,-1.321,1.14,-1.29,5.18,1.59,1.28,-0.25
2022-01-30 16:28:18.3610,-0.076,-0.534,-1.241,1.36,-0.91,5.05,0.94,1.63,-0.32
2022-01-30 16:28:18.3710,-0.061,-0.571,-1.166,1.49,-0.51,4.46,0.56,1.82,-0.33
2022-01-30 16:28:18.3810,-0.043,-0.608,-1.118,1.53,-0.18,3.69,0.14,1.89,-0.3
2022-01-30 16:28:18.3910,-0.035,-0.624,-1.072,1.51,0.18,3.17,-0.27,1.87,-0.22
2022-01-30 16:28:18.4020,-0.029,-0.602,-1.018,1.55,0.47,2.74,-0.27,1.87,-0.22
2022-01-30 16:28:18.4110,-0.019,-0.562,-0.959,1.66,0.43,2.24,-0.62,1.78,-0.14
2022-01-30 16:28:18.4210,-0.007,-0.512,-0.899,1.71,0.16,1.64,-0.87,1.65,-0.04
2022-01-30 16:28:18.4310,0.007,-0.466,-0.836,1.72,-0.23,1.03,-1.16,1.3,0.2
2022-01-30 16:28:18.4410,0.014,-0.421,-0.774,1.68,-0.61,0.38,-1.22,1.08,0.36
2022-01-30 16:28:18.4510,0.016,-0.38,-0.711,1.64,-0.96,-0.28,-1.23,0.83,0.54
2022-01-30 16:28:18.4610,0.017,-0.34,-0.657,1.66,-1.29,-0.94,-1.23,0.83,0.54
2022-01-30 16:28:18.4710,0.008,-0.295,-0.614,1.65,-1.59,-1.58,-1.17,0.19,0.91
2022-01-30 16:28:18.4810,-0.01,-0.247,-0.57,1.68,-1.92,-2.09,-1.12,-0.12,1.07
2022-01-30 16:28:18.4920,-0.033,-0.208,-0.525,1.76,-2.31,-2.57,-1.06,-0.37,1.19
2022-01-30 16:28:18.5020,-0.066,-0.175,-0.489,1.88,-2.67,-3.07,-0.97,-0.52,1.28
2022-01-30 16:28:18.5120,-0.11,-0.145,-0.458,2.06,-2.95,-3.51,-0.87,-0.57,1.34
2022-01-30 16:28:18.5220,-0.156,-0.117,-0.434,2.34,-3.2,-3.88,-0.73,-0.5,1.37
2022-01-30 16:28:18.5320,-0.196,-0.086,-0.404,2.69,-3.42,-4.18,-0.55,-0.3,1.35
2022-01-30 16:28:18.5420,-0.222,-0.061,-0.376,3.03,-3.69,-4.48,-0.35,-0.0,1.31
2022-01-30 16:28:18.5520,-0.237,-0.046,-0.35,3.28,-3.95,-4.78,-0.13,0.36,1.27
2022-01-30 16:28:18.5620,-0.242,-0.036,-0.33,3.42,-4.13,-5.06,0.03,0.7,1.21
2022-01-30 16:28:18.5720,-0.238,-0.032,-0.335,3.51,-4.25,-5.28,0.13,0.95,1.15
2022-01-30 16:28:18.5820,-0.222,-0.059,-0.335,3.52,-4.36,-5.31,0.23,1.08,1.1
2022-01-30 16:28:18.5920,-0.192,-0.109,-0.334,3.46,-4.26,-5.22,0.33,1.06,1.07
2022-01-30 16:28:18.6020,-0.157,-0.176,-0.359,3.24,-3.87,-5.27,0.42,0.86,1.05
2022-01-30 16:28:18.6120,-0.107,-0.258,-0.382,2.96,-3.33,-5.06,0.46,0.53,1.05
2022-01-30 16:28:18.6220,-0.061,-0.342,-0.408,2.51,-2.61,-4.78,0.4,0.1,1.07
2022-01-30 16:28:18.6320,-0.028,-0.421,-0.444,1.98,-1.84,-4.53,0.22,-0.39,1.08
2022-01-30 16:28:18.6420,-0.013,-0.478,-0.504,1.53,-1.06,-4.23,-0.08,-0.86,1.05
2022-01-30 16:28:18.6520,-0.038,-0.517,-0.569,1.17,-0.41,-3.72,-0.08,-0.86,1.05
2022-01-30 16:28:18.6620,-0.088,-0.503,-0.656,1.11,0.05,-3.13,-0.69,-1.47,0.69
2022-01-30 16:28:18.6690,-0.121,-0.425,-0.764,1.82,-0.36,-1.42,-1.02,-1.68,0.25
2022-01-30 16:28:18.6820,-0.14,-0.366,-0.882,1.88,-1.02,-0.34,-1.38,-1.81,-0.26
2022-01-30 16:28:18.6920,-0.148,-0.363,-0.978,1.86,-1.11,0.64,-1.68,-1.75,-0.73
2022-01-30 16:28:18.7020,-0.139,-0.358,-1.037,1.71,-0.92,1.28,-1.89,-1.41,-1.08
2022-01-30 16:28:18.7120,-0.119,-0.311,-1.062,1.71,-0.92,1.28,-1.95,-0.8,-1.23
2022-01-30 16:28:18.7220,-0.114,-0.252,-1.097,1.45,-1.06,1.54,-1.86,-0.08,-1.17
2022-01-30 16:28:18.7320,-0.099,-0.21,-1.168,1.28,-1.81,2.17,-1.71,0.47,-0.98
2022-01-30 16:28:18.7420,-0.069,-0.21,-1.288,1.08,-1.83,3.11,-1.59,0.62,-0.79
2022-01-30 16:28:18.7520,-0.042,-0.282,-1.439,1.08,-1.83,3.11,-1.49,0.3,-0.69
2022-01-30 16:28:18.7620,-0.038,-0.379,-1.601,0.88,-1.25,4.46,-1.38,-0.46,-0.72
2022-01-30 16:28:18.7720,-0.044,-0.437,-1.736,0.79,-0.15,5.96,-1.21,-1.45,-0.82
2022-01-30 16:28:18.7820,-0.052,-0.465,-1.806,0.79,1.2,8.3,-1.03,-2.37,-0.9
2022-01-30 16:28:18.7930,-0.078,-0.471,-1.811,0.8,1.44,8.52,-0.88,-3.06,-0.9
2022-01-30 16:28:18.8020,-0.116,-0.454,-1.761,0.8,1.44,8.52,-0.82,-3.35,-0.73
2022-01-30 16:28:18.8120,-0.15,-0.427,-1.653,0.9,1.45,8.22,-0.88,-3.16,-0.59
2022-01-30 16:28:18.8230,-0.178,-0.423,-1.538,0.97,1.19,6.14,-1.08,-2.61,-0.49
2022-01-30 16:28:18.8330,-0.202,-0.441,-1.444,0.97,1.19,6.14,-1.34,-1.89,-0.49
2022-01-30 16:28:18.8420,-0.217,-0.466,-1.367,1.01,1.76,4.29,-1.59,-1.19,-0.58
2022-01-30 16:28:18.8530,-0.222,-0.489,-1.334,1.01,1.76,4.29,-1.78,-0.63,-0.77
2022-01-30 16:28:18.8620,-0.206,-0.525,-1.307,0.87,2.59,3.51,-1.88,-0.25,-1.0
2022-01-30 16:28:18.8730,-0.176,-0.553,-1.262,0.87,2.59,3.51,-1.9,-0.07,-1.21
2022-01-30 16:28:18.8820,-0.132,-0.578,-1.213,0.62,3.09,3.09,-1.85,-0.12,-1.33
2022-01-30 16:28:18.8930,-0.097,-0.612,-1.175,0.24,3.47,2.55,-1.74,-0.39,-1.32
2022-01-30 16:28:18.9020,-0.081,-0.622,-1.133,-0.14,3.98,2.1,-1.57,-0.78,-1.22
2022-01-30 16:28:18.9120,-0.077,-0.616,-1.085,-0.37,4.33,1.7,-1.34,-1.22,-1.08
2022-01-30 16:28:18.9230,-0.082,-0.598,-1.03,-0.5,4.44,1.22,-1.09,-1.59,-0.96
2022-01-30 16:28:18.9330,-0.086,-0.565,-0.956,-0.58,4.44,0.72,-0.82,-1.78,-0.89
2022-01-30 16:28:18.9430,-0.081,-0.532,-0.879,-0.66,4.26,0.07,-0.53,-1.8,-0.87
2022-01-30 16:28:18.9520,-0.075,-0.503,-0.825,-1.06,3.74,-1.29,-0.19,-1.69,-0.87
2022-01-30 16:28:18.9630,-0.067,-0.473,-0.784,-1.06,3.74,-1.29,0.25,-1.49,-0.89
2022-01-30 16:28:18.9730,-0.046,-0.437,-0.748,-1.56,3.1,-2.07,0.76,-1.29,-0.87
2022-01-30 16:28:18.9830,-0.02,-0.398,-0.754,-1.56,3.1,-2.07,1.29,-1.21,-0.82
2022-01-30 16:28:18.9930,0.006,-0.371,-0.758,-1.92,2.63,-2.12,1.81,-1.23,-0.74
2022-01-30 16:28:19.0030,0.03,-0.353,-0.737,-2.62,1.79,-2.03,2.3,-1.35,-0.66
2022-01-30 16:28:19.0130,0.06,-0.335,-0.698,-2.62,1.79,-2.03,2.73,-1.56,-0.61
2022-01-30 16:28:19.0230,0.102,-0.318,-0.652,-2.99,1.41,-2.28,2.73,-1.56,-0.61
2022-01-30 16:28:19.0330,0.146,-0.329,-0.596,-3.5,0.96,-2.61,3.0,-1.92,-0.61
2022-01-30 16:28:19.0430,0.176,-0.366,-0.555,-4.08,0.64,-3.02,2.76,-2.02,-0.62
2022-01-30 16:28:19.0530,0.194,-0.389,-0.568,-4.59,0.68,-3.38,2.2,-2.1,-0.68
2022-01-30 16:28:19.0630,0.201,-0.442,-0.651,-4.96,0.69,-3.36,2.2,-2.1,-0.68
2022-01-30 16:28:19.0740,0.178,-0.536,-0.747,-5.26,0.8,-2.63,0.82,-1.88,-0.74
2022-01-30 16:28:19.0830,0.14,-0.587,-0.852,-5.3,1.49,-1.55,0.49,-1.49,-0.77
2022-01-30 16:28:19.0940,0.102,-0.562,-0.984,-5.1,2.13,-0.52,0.54,-0.96,-0.89
2022-01-30 16:28:19.1030,0.089,-0.516,-1.065,-4.621452140808105,1.52,1.93,0.82,-0.29,-1.06
2022-01-30 16:28:19.1130,0.09,-0.513,-1.089,-4.59,1.2,2.38,1.1,0.48,-1.16
2022-01-30 16:28:19.1240,0.094,-0.558,-1.073,-4.56,1.35,2.4,1.19,1.31,-1.14
2022-01-30 16:28:19.1340,0.099,-0.633,-1.019,-4.56,1.35,2.4,1.06,2.04,-1.0
2022-01-30 16:28:19.1430,0.117,-0.725,-1.019,-4.35,2.58,1.63,0.81,2.42,-0.8
2022-01-30 16:28:19.1540,0.16,-0.842,-1.077,-4.35,2.58,1.63,0.52,2.35,-0.55
2022-01-30 16:28:19.1640,0.195,-0.958,-1.173,-4.66,4.68,2.77,0.3,1.87,-0.27
2022-01-30 16:28:19.1740,0.203,-1.018,-1.276,-4.66,5.48,3.79,0.23,1.16,0.03
2022-01-30 16:28:19.1830,0.178,-1.013,-1.346,-4.45,5.66,4.58,0.31,0.44,0.31
2022-01-30 16:28:19.1940,0.123,-0.952,-1.372,-3.96,5.22,5.03,0.5,-0.09,0.58
2022-01-30 16:28:19.2040,0.052,-0.867,-1.342,-3.34,4.43,4.94,0.72,-0.34,0.84
2022-01-30 16:28:19.2130,-0.02,-0.762,-1.281,-3.34,4.43,4.94,0.91,-0.31,1.08
2022-01-30 16:28:19.2240,-0.079,-0.66,-1.206,-2.68,3.42,4.46,1.06,-0.04,1.3
2022-01-30 16:28:19.2330,-0.128,-0.574,-1.106,-2.12,2.33,3.82,1.16,0.43,1.47
2022-01-30 16:28:19.2440,-0.156,-0.497,-0.996,-1.67,1.38,3.0,1.16,0.43,1.47
2022-01-30 16:28:19.2540,-0.167,-0.448,-0.908,-1.35,0.54,1.94,1.05,1.39,1.65
2022-01-30 16:28:19.2640,-0.162,-0.424,-0.822,-1.18,-0.12,1.04,0.86,1.77,1.67
2022-01-30 16:28:19.2740,-0.156,-0.401,-0.751,-1.15,-0.68,-0.58,0.63,2.05,1.64
2022-01-30 16:28:19.2840,-0.153,-0.365,-0.698,-1.1,-1.0,-1.17,0.4,2.22,1.56
2022-01-30 16:28:19.2940,-0.151,-0.325,-0.655,-1.1,-1.0,-1.17,0.21,2.3,1.44
2022-01-30 16:28:19.3040,-0.153,-0.277,-0.628,-1.02,-1.38,-1.68,0.06,2.29,1.31
2022-01-30 16:28:19.3140,-0.164,-0.217,-0.612,-0.9,-1.79,-2.03,-0.04,2.21,1.2
2022-01-30 16:28:19.3240,-0.18,-0.153,-0.609,-0.423601830303669,-2.9,-2.41,-0.09,2.04,1.12
2022-01-30 16:28:19.3340,-0.198,-0.089,-0.614,-0.13,-3.5,-2.45,-0.07,1.75,1.05
2022-01-30 16:28:19.3440,-0.207,-0.019,-0.631,-0.13,-3.5,-2.45,0.02,1.38,0.98
2022-01-30 16:28:19.3550,-0.207,0.051,-0.654,0.11,-4.13,-2.35,0.18,1.03,0.9
2022-01-30 16:28:19.3650,-0.199,0.096,-0.681,0.21,-4.82,-2.17,0.18,1.03,0.9
2022-01-30 16:28:19.3750,-0.186,0.114,-0.691,0.21,-5.38,-1.93,0.43,0.76,0.83
2022-01-30 16:28:19.3840,-0.177,0.141,-0.694,0.12,-5.64,-1.74,0.94,0.67,0.64
2022-01-30 16:28:19.3950,-0.187,0.192,-0.679,0.02,-5.88,-1.69,1.11,0.84,0.53
2022-01-30 16:28:19.4040,-0.204,0.252,-0.629,0.08,-6.36,-1.7,1.21,1.15,0.43
2022-01-30 16:28:19.4150,-0.219,0.308,-0.577,0.28,-7.02,-2.04,1.2,1.5,0.39
2022-01-30 16:28:19.4250,-0.229,0.344,-0.547,0.51,-7.69,-2.55,1.06,1.76,0.39
2022-01-30 16:28:19.4350,-0.229,0.349,-0.568,0.74,-8.23,-2.91,0.82,1.82,0.41
2022-01-30 16:28:19.4440,-0.221,0.316,-0.636,0.9,-8.48,-2.89,0.48,1.68,0.42
2022-01-30 16:28:19.4550,-0.211,0.242,-0.731,0.98,-8.37,-2.35,0.1,1.39,0.41
2022-01-30 16:28:19.4640,-0.208,0.126,-0.827,0.99,-7.84,-1.5,-0.21,1.11,0.37
2022-01-30 16:28:19.4750,-0.22,0.028,-0.877,1.16,-5.68,0.13,-0.37,0.9,0.29
2022-01-30 16:28:19.4840,-0.252,0.023,-0.949,1.16,-5.68,0.13,-0.39,0.66,0.1
2022-01-30 16:28:19.4950,-0.306,0.089,-1.037,1.45,-5.21,0.63,-0.31,0.46,-0.12
2022-01-30 16:28:19.5050,-0.367,0.131,-1.048,1.97,-5.67,1.53,-0.13,0.45,-0.26
2022-01-30 16:28:19.5150,-0.415,0.135,-1.002,3.21,-6.34,1.6,0.0,0.57,-0.31
2022-01-30 16:28:19.5250,-0.424,0.138,-0.98,3.21,-6.34,1.6,0.0,0.57,-0.31
2022-01-30 16:28:19.5350,-0.398,0.103,-0.984,3.43,-6.22,1.21,-0.31,0.9,-0.19
2022-01-30 16:28:19.5450,-0.377,0.022,-0.996,3.2393127402663233,-5.52,1.23,-0.71,0.99,-0.07
2022-01-30 16:28:19.5550,-0.378,-0.059,-1.085,3.23,-5.52,1.23,-1.17,0.86,0.0
2022-01-30 16:28:19.5650,-0.382,-0.137,-1.187,3.27,-4.64,1.75,-1.53,0.61,-0.01
2022-01-30 16:28:19.5750,-0.401,-0.204,-1.249,3.55,-2.92,3.44,-1.74,0.31,-0.08
2022-01-30 16:28:19.5850,-0.422,-0.235,-1.31,3.82,-2.3,3.9,-1.86,-0.1,-0.23
2022-01-30 16:28:19.5950,-0.433,-0.22,-1.376,3.82,-2.3,3.9,-1.96,-0.52,-0.42
2022-01-30 16:28:19.6050,-0.434,-0.207,-1.383,3.99,-2.17,4.75,-2.08,-0.81,-0.59
2022-01-30 16:28:19.6150,-0.414,-0.216,-1.364,3.85,-1.96,4.51,-2.27,-0.92,-0.75
2022-01-30 16:28:19.6250,-0.366,-0.232,-1.346,3.41,-1.62,4.24,-2.55,-0.87,-0.89
2022-01-30 16:28:19.6350,-0.319,-0.249,-1.34,2.87,-1.22,4.03,-2.87,-0.67,-1.02
2022-01-30 16:28:19.6450,-0.286,-0.259,-1.358,2.47,-0.85,3.99,-3.17,-0.42,-1.14
2022-01-30 16:28:19.6550,-0.255,-0.271,-1.414,2.47,-0.85,3.99,-3.36,-0.2,-1.27
2022-01-30 16:28:19.6650,-0.223,-0.288,-1.474,1.88,0.0,4.83,-3.4,-0.12,-1.39
2022-01-30 16:28:19.6750,-0.183,-0.32,-1.547,1.53,0.57,5.38,-3.4,-0.12,-1.39
2022-01-30 16:28:19.6860,-0.148,-0.373,-1.612,1.16,1.32,6.04,-2.95,-0.7,-1.38
2022-01-30 16:28:19.6960,-0.112,-0.441,-1.617,1.16,1.32,6.04,-2.42,-1.16,-1.22
2022-01-30 16:28:19.7060,-0.078,-0.541,-1.565,0.79,2.21,6.3,-1.77,-1.64,-0.99
2022-01-30 16:28:19.7150,-0.056,-0.658,-1.495,0.35,3.29,5.9,-1.1,-2.03,-0.78
2022-01-30 16:28:19.7260,-0.042,-0.742,-1.366,-0.05,4.61,5.28,-0.52,-2.26,-0.64
2022-01-30 16:28:19.7360,-0.042,-0.796,-1.214,-0.4,5.71,4.26,-0.1,-2.34,-0.57
2022-01-30 16:28:19.7460,-0.041,-0.863,-1.08,-0.66,6.35,2.77,-0.1,-2.34,-0.57
2022-01-30 16:28:19.7550,-0.039,-0.93,-0.957,-1.11,7.63,0.21,0.35,-2.04,-0.58
2022-01-30 16:28:19.7660,-0.044,-0.958,-0.853,-1.27,8.04,-0.87,0.5,-1.74,-0.69
2022-01-30 16:28:19.7750,-0.055,-0.946,-0.792,-1.35,7.99,-1.61,0.64,-1.47,-0.87
2022-01-30 16:28:19.7840,-0.062,-0.907,-0.776,-1.38,7.62,-1.87,0.83,-1.3,-1.07
2022-01-30 16:28:19.7950,-0.051,-0.86,-0.769,-1.53,7.08,-1.88,1.09,-1.21,-1.25
2022-01-30 16:28:19.8050,-0.038,-0.803,-0.75,-1.76,6.43,-1.98,1.37,-1.16,-1.4
2022-01-30 16:28:19.8150,-0.015,-0.748,-0.729,-1.76,6.43,-1.98,1.56,-1.15,-1.51
2022-01-30 16:28:19.8250,0.02,-0.722,-0.722,-2.01,5.71,-2.17,1.59,-1.14,-1.56
2022-01-30 16:28:19.8350,0.045,-0.717,-0.744,-2.78,4.87,-2.1,1.44,-1.15,-1.6
2022-01-30 16:28:19.8450,0.061,-0.709,-0.815,-2.78,4.87,-2.1,1.17,-1.23,-1.63
2022-01-30 16:28:19.8550,0.075,-0.687,-0.932,-3.03,4.65,-1.54,0.91,-1.37,-1.66
2022-01-30 16:28:19.8660,0.096,-0.666,-1.054,-3.5,3.96,0.82,0.79,-1.46,-1.66
2022-01-30 16:28:19.8770,0.123,-0.654,-1.144,-3.5,3.96,0.82,0.79,-1.37,-1.63
2022-01-30 16:28:19.8860,0.154,-0.622,-1.186,-3.83,3.72,1.94,1.25,-1.13,-1.58
2022-01-30 16:28:19.8960,0.176,-0.554,-1.201,-4.5258753079175955,2.69,2.88,1.66,-0.77,-1.5
2022-01-30 16:28:19.9060,0.188,-0.483,-1.163,-4.7,1.76,2.82,1.98,-0.21,-1.37
2022-01-30 16:28:19.9160,0.195,-0.451,-1.072,-4.7,1.76,2.82,2.09,0.48,-1.14
2022-01-30 16:28:19.9260,0.196,-0.471,-1.005,-4.72,0.86,1.38,1.95,1.12,-0.84
2022-01-30 16:28:19.9360,0.197,-0.528,-0.989,-4.72,0.86,1.38,1.64,1.53,-0.52
2022-01-30 16:28:19.9460,0.199,-0.6,-1.038,-4.6,1.13,1.04,1.31,1.66,-0.24
2022-01-30 16:28:19.9560,0.188,-0.667,-1.092,-4.27,2.24,1.94,1.12,1.58,-0.03
2022-01-30 16:28:19.9670,0.166,-0.677,-1.131,-4.27,2.24,2.3678492742776873,1.1,1.37,0.04
2022-01-30 16:28:19.9770,0.13,-0.637,-1.16,-3.95,2.48,2.36,1.2,1.14,0.06
2022-01-30 16:28:19.9870,0.08,-0.58,-1.152,-3.54,2.13,2.73,1.31,1.03,0.05
2022-01-30 16:28:19.9970,0.023,-0.51,-1.092,-2.99,1.52,2.84,1.29,1.12,0.04
2022-01-30 16:28:20.0060,-0.034,-0.446,-1.005,-1.71,-0.02,1.72,1.15,1.44,0.06
2022-01-30 16:28:20.0170,-0.096,-0.393,-0.912,-1.71,-0.02,1.72,1.15,1.95,0.13
2022-01-30 16:28:20.0270,-0.136,-0.346,-0.84,-1.0,-0.65,0.84,0.64,2.49,0.23
2022-01-30 16:28:20.0370,-0.151,-0.332,-0.798,0.08,-1.57,-0.47,0.35,2.95,0.34
2022-01-30 16:28:20.0480,-0.151,-0.346,-0.778,0.08,-1.57,-0.47,0.1,3.26,0.41
2022-01-30 16:28:20.0570,-0.153,-0.357,-0.767,0.35,-1.53,-0.77,-0.09,3.39,0.44
2022-01-30 16:28:20.0670,-0.166,-0.336,-0.756,0.95,-1.44,-1.06,-0.09,3.39,0.44
2022-01-30 16:28:20.0770,-0.189,-0.295,-0.751,1.4,-1.79,-1.16,-0.25,3.35,0.41
2022-01-30 16:28:20.0860,-0.217,-0.257,-0.742,1.93,-2.15,-1.24,-0.56,2.84,0.23
2022-01-30 16:28:20.0970,-0.234,-0.229,-0.731,2.39,-2.41,-1.38,-0.56,2.84,0.23
2022-01-30 16:28:20.1060,-0.242,-0.205,-0.721,2.69,-2.59,-1.52,-1.05,2.07,-0.02
2022-01-30 16:28:20.1160,-0.251,-0.188,-0.707,2.69,-2.59,-1.52,-1.37,1.75,-0.1
2022-01-30 16:28:20.1260,-0.265,-0.163,-0.683,2.95,-2.69,-1.66,-1.68,1.58,-0.11
2022-01-30 16:28:20.1360,-0.277,-0.121,-0.663,3.24,-2.77,-1.91,-1.92,1.52,-0.06
2022-01-30 16:28:20.1460,-0.276,-0.084,-0.674,3.51,-2.98,-2.3,-2.02,1.49,0.06
2022-01-30 16:28:20.1560,-0.268,-0.065,-0.71,3.7,-3.23,-2.3,-1.94,1.38,0.2
2022-01-30 16:28:20.1660,-0.262,-0.039,-0.754,3.76,-3.27,-2.09,-1.67,1.18,0.31
2022-01-30 16:28:20.1760,-0.255,-0.017,-0.773,3.81,-3.33,-1.72,-1.31,0.97,0.38
2022-01-30 16:28:20.1870,-0.233,-0.025,-0.762,3.77,-3.38,-1.51,-0.96,0.81,0.43
2022-01-30 16:28:20.1980,-0.215,-0.07,-0.728,3.6238203790783885,-2.96,-1.78,-0.7,0.78,0.5
2022-01-30 16:28:20.2070,-0.202,-0.11,-0.677,3.54,-2.43,-2.25,-0.55,0.88,0.59
2022-01-30 16:28:20.2170,-0.19,-0.135,-0.629,3.54,-2.43,-2.25,-0.44,1.01,0.72
2022-01-30 16:28:20.2270,-0.176,-0.155,-0.604,3.49,-2.11,-3.0994733619689945,-0.32,1.06,0.87
2022-01-30 16:28:20.2380,-0.167,-0.161,-0.608,3.41,-1.86,-3.1,-0.17,0.93,1.02
2022-01-30 16:28:20.2480,-0.16,-0.15,-0.641,3.37,-1.73,-3.16,-0.03,0.54,1.12
2022-01-30 16:28:20.2570,-0.167,-0.13,-0.701,3.34,-1.76,-2.95,0.05,-0.02,1.14
2022-01-30 16:28:20.2670,-0.182,-0.121,-0.76,3.38,-1.97,-2.43,0.07,-0.68,1.07
2022-01-30 16:28:20.2780,-0.203,-0.116,-0.838,3.46,-2.12,-1.83,0.01,-1.33,0.91
2022-01-30 16:28:20.2880,-0.214,-0.104,-0.918,3.57,-2.19,-1.18,-0.08,-1.81,0.68
2022-01-30 16:28:20.2980,-0.21,-0.105,-0.96,3.58,-2.31,-0.34,-0.15,-2.02,0.43
2022-01-30 16:28:20.3080,-0.214,-0.108,-0.97,3.4,-2.37,0.19,-0.14,-1.91,0.23
2022-01-30 16:28:20.3180,-0.221,-0.074,-0.946,3.09,-2.46,0.23,-0.07,-1.49,0.06
2022-01-30 16:28:20.3280,-0.209,-0.016,-0.916,3.09,-2.46,0.23,-0.02,-0.92,-0.02
2022-01-30 16:28:20.3380,-0.17,0.009,-0.891,2.92,-2.98,-0.1,-0.02,-0.34,-0.03
2022-01-30 16:28:20.3480,-0.118,-0.029,-0.896,2.03,-3.25,-0.47,-0.11,0.07,0.02
2022-01-30 16:28:20.3580,-0.054,-0.096,-0.919,1.44,-2.65,-0.29,-0.27,0.26,0.06
2022-01-30 16:28:20.3680,-0.001,-0.172,-0.96,1.44,-2.65,-0.29,-0.45,0.21,0.1
2022-01-30 16:28:20.3790,0.022,-0.246,-1.022,0.54,-1.11,0.57,-0.6,-0.03,0.15
2022-01-30 16:28:20.3880,0.034,-0.304,-1.073,0.54,-1.11,1.1017083996534347,-0.68,-0.39,0.16
2022-01-30 16:28:20.3980,0.046,-0.344,-1.126,0.42,-0.42,1.1,-0.72,-0.83,0.12
2022-01-30 16:28:20.4080,0.048,-0.357,-1.174,0.1,0.41,2.05,-0.77,-1.3,0.08
2022-01-30 16:28:20.4180,0.043,-0.334,-1.219,0.1,0.41,2.05,-0.88,-1.71,0.09
2022-01-30 16:28:20.4280,0.028,-0.289,-1.276,-0.042013560086488724,0.08,2.93,-1.07,-2.05,0.14
2022-01-30 16:28:20.4380,0.008,-0.253,-1.345,-0.02,-0.23,3.53,-1.32,-2.34,0.18
2022-01-30 16:28:20.4480,-0.011,-0.229,-1.418,-0.02,-0.23,3.53,-1.56,-2.53,0.18
2022-01-30 16:28:20.4590,-0.048,-0.209,-1.488,-0.1,-0.38,4.22,-1.56,-2.53,0.18
2022-01-30 16:28:20.4680,-0.086,-0.193,-1.56,0.09,-0.45,5.54,-1.92,-2.76,-0.01
2022-01-30 16:28:20.4790,-0.125,-0.175,-1.614,0.09,-0.45,5.54,-2.0,-2.77,-0.16
2022-01-30 16:28:20.4890,-0.16,-0.147,-1.639,0.22,-0.41,6.15,-2.04,-2.66,-0.32
2022-01-30 16:28:20.4980,-0.174,-0.138,-1.637,0.31,-0.48,6.55,-2.05,-2.46,-0.44
2022-01-30 16:28:20.5080,-0.16,-0.167,-1.613,0.03,-0.13,6.39,-2.01,-2.16,-0.5
2022-01-30 16:28:20.5190,-0.135,-0.198,-1.559,-0.39,0.41,6.0,-1.91,-1.81,-0.53
2022-01-30 16:28:20.5290,-0.102,-0.213,-1.481,-0.39,0.41,6.0,-1.78,-1.45,-0.54
2022-01-30 16:28:20.5390,-0.069,-0.242,-1.392,-0.85,0.76,5.3,-1.64,-1.11,-0.48
2022-01-30 16:28:20.5480,-0.047,-0.29,-1.295,-1.32,1.13,4.48,-1.45,-0.83,-0.35
2022-01-30 16:28:20.5590,-0.036,-0.32,-1.194,-1.7,1.71,3.56,-1.21,-0.66,-0.17
2022-01-30 16:28:20.5690,-0.035,-0.337,-1.102,-1.92,2.24,2.57,-1.21,-0.66,-0.17
2022-01-30 16:28:20.5800,-0.038,-0.366,-1.006,-2.03,2.53,1.64,-0.66,-0.56,0.17
2022-01-30 16:28:20.5880,-0.048,-0.404,-0.913,-2.06,2.85,0.73,-0.35,-0.54,0.3
2022-01-30 16:28:20.5990,-0.07,-0.436,-0.824,-2.06,3.27,-0.19,-0.06,-0.53,0.39
2022-01-30 16:28:20.6090,-0.093,-0.452,-0.753,-1.76,3.91,-1.83,0.22,-0.52,0.43
2022-01-30 16:28:20.6190,-0.116,-0.469,-0.694,-1.76,3.91,-1.83,0.47,-0.56,0.43
2022-01-30 16:28:20.6290,-0.137,-0.486,-0.674,-1.42,4.21,-2.79,0.68,-0.66,0.38
2022-01-30 16:28:20.6390,-0.143,-0.494,-0.672,-1.42,4.21,-2.79,0.89,-0.74,0.29
2022-01-30 16:28:20.6490,-0.141,-0.488,-0.655,-1.43,4.2,-2.86,1.12,-0.76,0.14
2022-01-30 16:28:20.6590,-0.136,-0.47,-0.625,-1.43,4.2,-2.86,1.31,-0.72,-0.07
2022-01-30 16:28:20.6690,-0.119,-0.467,-0.626,-1.72,3.72,-3.26,1.36,-0.73,-0.34
2022-01-30 16:28:20.6790,-0.103,-0.48,-0.664,-1.72,3.72,-3.26,1.28,-0.72,-0.6
2022-01-30 16:28:20.6890,-0.101,-0.486,-0.683,-2.11,3.65,-2.64,1.1,-0.74,-0.85
2022-01-30 16:28:20.6990,-0.104,-0.468,-0.766,-2.11,3.65,-2.64,0.82,-0.91,-1.09
2022-01-30 16:28:20.7090,-0.088,-0.449,-0.887,-2.13,3.43,-2.11,0.82,-0.91,-1.09
2022-01-30 16:28:20.7190,-0.051,-0.473,-0.96,-2.27,3.09,-0.89,0.4,-1.17,-1.4
2022-01-30 16:28:20.7290,-0.012,-0.501,-1.001,-3.131441551744938,3.32,0.58,0.37,-1.04,-1.46
2022-01-30 16:28:20.7390,0.017,-0.488,-1.042,-3.14,3.32,0.58,0.41,-0.69,-1.52
2022-01-30 16:28:20.7490,0.034,-0.456,-1.065,-3.52,3.26,1.04,0.41,-0.69,-1.52
2022-01-30 16:28:20.7590,0.04,-0.423,-1.09,-3.78,2.89,1.36,0.43,0.4,-1.57
2022-01-30 16:28:20.7690,0.046,-0.409,-1.104,-3.86,2.15,1.8,0.36,1.02,-1.5
2022-01-30 16:28:20.7800,0.065,-0.423,-1.108,-3.86,2.15,1.8,0.27001070976257324,1.56,-1.37
2022-01-30 16:28:20.7890,0.1,-0.464,-1.142,-3.87,2.09,1.81,0.21,1.93,-1.18
2022-01-30 16:28:20.8000,0.136,-0.52,-1.18,-4.0,2.33,1.99,0.21,1.93,-1.18
2022-01-30 16:28:20.8090,0.15,-0.548,-1.217,-4.17,2.8,2.32,0.19,2.18,-0.68
2022-01-30 16:28:20.8190,0.133,-0.528,-1.249,-3.93,3.12,2.92,0.21,2.15,-0.4
2022-01-30 16:28:20.8300,0.091,-0.494,-1.251,-3.38,2.77,3.02,0.25,2.11,-0.1
2022-01-30 16:28:20.8400,0.045,-0.466,-1.234,-2.72,2.44,2.85,0.32,2.09,0.21
2022-01-30 16:28:20.8490,0.013,-0.444,-1.211,-2.72,2.44,2.85,0.45,2.04,0.52
2022-01-30 16:28:20.8600,-0.01,-0.42,-1.189,-2.15,2.18,2.62,0.45,2.04,0.52
2022-01-30 16:28:20.8700,-0.022,-0.401,-1.159,-1.4,1.68,2.09,0.81,1.79,1.12
2022-01-30 16:28:20.8800,-0.038,-0.374,-1.128,-1.4,1.68,2.09,0.97,1.55,1.39
2022-01-30 16:28:20.8890,-0.073,-0.319,-1.093,-0.75,0.91,1.46,1.07,1.31,1.6
2022-01-30 16:28:20.9000,-0.118,-0.255,-1.045,-0.75,0.91,1.46,1.07,1.04,1.72
2022-01-30 16:28:20.9100,-0.168,-0.205,-1.019,-0.24,0.2,1.01,1.0,0.76,1.75
2022-01-30 16:28:20.9200,-0.214,-0.166,-0.998,0.29,-0.43,0.68,0.87,0.5,1.68
2022-01-30 16:28:20.9300,-0.249,-0.127,-0.971,1.19,-1.36,0.28,0.71,0.34,1.49
2022-01-30 16:28:20.9400,-0.278,-0.098,-0.932,1.19,-1.36,0.28,0.51,0.31,1.26
2022-01-30 16:28:20.9500,-0.3,-0.077,-0.884,1.72,-2.0,-0.49,0.29,0.39,1.01
2022-01-30 16:28:20.9600,-0.317,-0.056,-0.862,1.72,-2.0,-0.49,0.05,0.55,0.77
2022-01-30 16:28:20.9700,-0.33,-0.027,-0.853,1.9,-2.21,-0.83,-0.19,0.77,0.56
2022-01-30 16:28:20.9800,-0.344,0.006,-0.842,2.25,-2.76,-1.05,-0.4,1.04,0.37
2022-01-30 16:28:20.9910,-0.36,0.031,-0.837,2.49,-3.01,-1.15,-0.4,1.04,0.37
2022-01-30 16:28:21.0000,-0.38,0.046,-0.839,2.49,-3.01,-1.1690572142601015,-0.54,1.29,0.21
2022-01-30 16:28:21.0100,-0.4,0.064,-0.843,3.12,-3.22,-1.15,-0.67,1.58,0.0
2022-01-30 16:28:21.0190,-0.411,0.076,-0.835,3.12,-3.22,-1.15,-0.67,1.58,0.0
2022-01-30 16:28:21.0290,-0.409,0.078,-0.826,3.6,-3.3,-1.34,-0.52,1.56,-0.16
2022-01-30 16:28:21.0400,-0.396,0.083,-0.82,3.66,-3.28,-1.42,-0.52,1.56,-0.16
2022-01-30 16:28:21.0490,-0.37,0.088,-0.807,3.6,-3.3,-1.54,-0.14,1.23,-0.38
2022-01-30 16:28:21.0590,-0.33,0.081,-0.789,3.38,-3.27,-1.69,0.04,1.09,-0.48
2022-01-30 16:28:21.0690,-0.288,0.059,-0.746,3.08,-3.09,-2.01,0.2,1.07,-0.51
2022-01-30 16:28:21.0790,-0.254,0.057,-0.688,2.83,-2.98,-2.53,0.34,1.16,-0.46
2022-01-30 16:28:21.0890,-0.227,0.087,-0.623,2.6508463257551194,-3.1822889390587807,-3.15,0.45,1.37,-0.32
2022-01-30 16:28:21.0990,-0.229,0.138,-0.568,2.69,-3.68,-3.71,0.52,1.62,-0.12
2022-01-30 16:28:21.1090,-0.237,0.179,-0.529,2.69,-3.68,-3.71,0.56,1.79,0.08
2022-01-30 16:28:21.1190,-0.229,0.188,-0.529,3.09,-4.47,-4.29,0.57,1.73,0.23
2022-01-30 16:28:21.1290,-0.207,0.165,-0.575,3.08,-4.4,-3.98,0.51,1.34,0.29
2022-01-30 16:28:21.1390,-0.171,0.12,-0.662,2.9,-4.08,-3.23,0.36,0.61,0.26
2022-01-30 16:28:21.1510,-0.135,0.064,-0.76,2.59,-3.6,-2.26,0.13,-0.32,0.17
2022-01-30 16:28:21.1600,-0.12,0.016,-0.853,2.3,-3.08,-1.3,-0.11,-1.22,0.07
2022-01-30 16:28:21.1710,-0.129,0.002,-0.91,2.23,-2.8,-0.61,-0.29,-1.91,-0.03
2022-01-30 16:28:21.1810,-0.139,0.019,-0.964,2.16,-2.82,-0.15,-0.35,-2.36,-0.07
2022-01-30 16:28:21.1910,-0.168,0.066,-1.02,2.16,-2.82,-0.15,-0.29,-2.5,-0.05
2022-01-30 16:28:21.2010,-0.204,0.127,-1.034,2.13,-3.15,0.43,-0.29,-2.5,-0.05
2022-01-30 16:28:21.2100,-0.247,0.179,-1.048,2.41,-4.24,0.75,0.03,-1.97,0.12
2022-01-30 16:28:21.2210,-0.296,0.207,-1.069,2.7,-4.61,0.98,0.21,-1.52,0.16
2022-01-30 16:28:21.2310,-0.308,0.205,-1.069,2.7,-4.61,0.98,0.31,-1.08,0.05
2022-01-30 16:28:21.2410,-0.263,0.157,-1.078,2.87,-4.72,1.06,0.21,-0.78,-0.14
2022-01-30 16:28:21.2510,-0.209,0.068,-1.106,2.5,-4.48,1.08,-0.1,-0.67,-0.34
2022-01-30 16:28:21.2610,-0.156,-0.021,-1.135,1.87,-3.73,1.31,-0.54,-0.77,-0.51
2022-01-30 16:28:21.2710,-0.117,-0.082,-1.184,1.31,-2.82,1.6,-1.03,-1.06,-0.66
2022-01-30 16:28:21.2810,-0.112,-0.104,-1.265,0.53,-1.61,2.62,-1.5,-1.47,-0.79
2022-01-30 16:28:21.2910,-0.124,-0.104,-1.356,0.53,-1.61,2.62,-1.84,-1.86,-0.93
2022-01-30 16:28:21.3010,-0.142,-0.079,-1.434,0.51,-1.38,4.26,-2.04,-2.17,-1.12
2022-01-30 16:28:21.3110,-0.165,-0.032,-1.484,0.51,-1.6,4.93,-2.09,-2.19,-1.34
2022-01-30 16:28:21.3210,-0.181,0.004,-1.475,0.55,-1.83,4.96,-2.05,-1.89,-1.56
2022-01-30 16:28:21.3310,-0.176,0.022,-1.456,0.42,-1.9,4.83,-1.97,-1.31,-1.74
2022-01-30 16:28:21.3420,-0.138,0.011,-1.401,0.42,-1.9,4.83,-1.92,-0.6,-1.88
2022-01-30 16:28:21.3510,-0.072,-0.026,-1.347,0.08,-1.74,4.39,-1.96,0.06,-1.97
2022-01-30 16:28:21.3610,-0.002,-0.081,-1.288,-0.53,-1.31,3.8,-1.96,0.06,-1.97
2022-01-30 16:28:21.3720,0.061,-0.14,-1.221,-1.2,-0.65,3.25,-2.07,0.59,-2.03
2022-01-30 16:28:21.3820,0.12,-0.201,-1.169,-2.25,0.87,1.94,-2.23,1.04,-2.07
2022-01-30 16:28:21.3920,0.177,-0.266,-1.143,-2.25,0.87,1.94,-2.22,0.88,-2.06
2022-01-30 16:28:21.4020,0.219,-0.332,-1.135,-2.71,1.68,1.55,-2.15,0.5,-1.99
2022-01-30 16:28:21.4120,0.247,-0.375,-1.126,-3.08,2.53,1.41,-2.02,-0.03,-1.88
2022-01-30 16:28:21.4220,0.262,-0.396,-1.108,-3.54,3.69,1.17,-1.82,-0.59,-1.73
2022-01-30 16:28:21.4320,0.264,-0.411,-1.092,-3.54,3.69,1.17,-1.57,-1.13,-1.56
2022-01-30 16:28:21.4420,0.267,-0.427,-1.07,-3.64,4.03,1.01,-1.28,-1.54,-1.38
2022-01-30 16:28:21.4510,0.263,-0.444,-1.037,-3.92,4.58,0.58,-0.98,-1.76,-1.19
2022-01-30 16:28:21.4620,0.252,-0.46,-1.007,-3.92,4.58,0.58,-0.69,-1.78,-0.99
2022-01-30 16:28:21.4720,0.234,-0.467,-0.981,-4.027089101672173,5.0,0.06,-0.41,-1.62,-0.78
2022-01-30 16:28:21.4830,0.205,-0.462,-0.959,-4.03,5.0,0.06,-0.1,-1.31,-0.58
2022-01-30 16:28:21.4920,0.171,-0.441,-0.961,-3.76,4.88,-0.21,0.24,-0.93,-0.42
2022-01-30 16:28:21.5020,0.147,-0.432,-0.958,-3.55,4.69,-0.16,0.65,-0.56,-0.3
2022-01-30 16:28:21.5120,0.145,-0.439,-0.948,-3.55,4.69,-0.16,1.07,-0.29,-0.23
2022-01-30 16:28:21.5220,0.139,-0.429,-0.927,-3.53,4.67,-0.25,1.4433214664459229,-0.29,-0.23
2022-01-30 16:28:21.5320,0.131,-0.41,-0.881,-3.54,4.55,-0.36,1.73,0.01,-0.14
2022-01-30 16:28:21.5420,0.125,-0.406,-0.841,-3.46,4.22,-0.75,1.88,0.01,-0.14
2022-01-30 16:28:21.5520,0.118,-0.404,-0.851,-3.33,3.77,-1.32,1.85,-0.15,-0.2
2022-01-30 16:28:21.5630,0.113,-0.402,-0.889,-3.33,3.77,-1.32,1.65,-0.37,-0.34
2022-01-30 16:28:21.5720,0.106,-0.405,-0.929,-3.29,3.56,-1.0,1.4,-0.53,-0.49
2022-01-30 16:28:21.5820,0.106,-0.409,-0.949,-3.26,3.41,-0.57,1.19,-0.5,-0.6
2022-01-30 16:28:21.5920,0.123,-0.427,-0.968,-3.26,3.3,-0.28,1.13,-0.29,-0.65
2022-01-30 16:28:21.6020,0.14,-0.43,-0.995,-3.43,3.29,-0.1,1.19,0.05,-0.66
2022-01-30 16:28:21.6100,0.152,-0.388,-1.012,-3.76,2.93,0.4,1.19,0.05,-0.66
2022-01-30 16:28:21.6210,0.15,-0.344,-1.003,-3.76,2.93,0.4,1.35,1.01,-0.61
2022-01-30 16:28:21.6320,0.145,-0.339,-0.99,-3.59,1.97,0.25,1.35,1.49,-0.52
2022-01-30 16:28:21.6420,0.149,-0.353,-0.998,-3.44,1.92,0.25,1.3,1.85,-0.42
2022-01-30 16:28:21.6520,0.166,-0.375,-1.021,-3.4,1.98,0.4,1.2,2.0,-0.32
2022-01-30 16:28:21.6630,0.181,-0.396,-1.076,-3.37,2.08,0.8,1.09,1.97,-0.21
2022-01-30 16:28:21.6720,0.191,-0.411,-1.13,-3.37,2.08,0.8,1.02,1.82,-0.07
2022-01-30 16:28:21.6830,0.198,-0.41,-1.174,-3.29,2.15,1.38,0.96,1.6,0.09
2022-01-30 16:28:21.6930,0.198,-0.393,-1.219,-3.08,1.9,2.28,0.91,1.39,0.27
2022-01-30 16:28:21.7030,0.188,-0.364,-1.251,-3.08,1.9,2.28,0.85,1.23,0.47
2022-01-30 16:28:21.7130,0.161,-0.322,-1.292,-2.88,1.59,2.6,0.79,1.13,0.69
2022-01-30 16:28:21.7230,0.119,-0.271,-1.338,-2.11,0.59,3.42,0.77,1.05,0.91
2022-01-30 16:28:21.7330,0.074,-0.226,-1.407,-2.11,0.59,3.42,0.79,0.95,1.11
2022-01-30 16:28:21.7430,0.024,-0.199,-1.458,-1.59,0.04,4.67583475470543,0.88,0.89,1.25
2022-01-30 16:28:21.7540,-0.029,-0.183,-1.461,-1.06,-0.35,4.67,0.99,0.92,1.33
2022-01-30 16:28:21.7620,-0.075,-0.179,-1.422,0.05,-0.79,4.66,1.06,1.03,1.36
2022-01-30 16:28:21.7730,-0.114,-0.183,-1.355,0.05,-0.79,4.66,1.04,1.2,1.35
2022-01-30 16:28:21.7830,-0.15,-0.188,-1.282,0.52,-0.86,4.11,0.94,1.4,1.3
2022-01-30 16:28:21.7930,-0.179,-0.188,-1.192,1.37,-0.96,2.63,0.77,1.61,1.21
2022-01-30 16:28:21.8030,-0.203,-0.187,-1.105,1.37,-0.96,2.63,0.57,1.75,1.12
2022-01-30 16:28:21.8130,-0.225,-0.188,-1.025,2.08,-1.09,0.97,0.34,1.82,1.01
2022-01-30 16:28:21.8230,-0.233,-0.19,-0.951,2.08,-1.09,0.97,0.1,1.83,0.87
2022-01-30 16:28:21.8330,-0.232,-0.199,-0.885,2.37,-1.13,0.23,-0.15,1.79,0.72
2022-01-30 16:28:21.8440,-0.236,-0.196,-0.826,2.7,-1.01,-1.03,-0.41,1.76,0.53
2022-01-30 16:28:21.8540,-0.239,-0.172,-0.773,2.7,-1.01,-1.03,-0.68,1.75,0.37
2022-01-30 16:28:21.8640,-0.255,-0.143,-0.729,3.12,-1.36,-2.05,-0.92,1.78,0.25
2022-01-30 16:28:21.8730,-0.27,-0.103,-0.7,3.44,-1.62,-2.43,-1.11,1.83,0.19
2022-01-30 16:28:21.8840,-0.285,-0.057,-0.697,3.44,-1.62,-2.43,-1.11,1.8607362508773804,0.16
2022-01-30 16:28:21.8930,-0.285,-0.03,-0.71,4.0,-2.21,-2.5,-1.12,1.8,0.17
2022-01-30 16:28:21.9040,-0.26,-0.02,-0.737,4.0,-2.21,-2.5,-0.95,1.65,0.23
2022-01-30 16:28:21.9140,-0.219,-0.026,-0.756,4.01,-2.27,-2.28,-0.71,1.45,0.32
2022-01-30 16:28:21.9240,-0.17,-0.034,-0.744,3.81,-2.17,-2.02,-0.71,1.45,0.32
2022-01-30 16:28:21.9330,-0.124,-0.038,-0.715,3.1,-1.92,-2.26,-0.15,1.14,0.61
2022-01-30 16:28:21.9440,-0.092,-0.03,-0.693,3.1,-1.92,-2.26,0.11,0.96,0.83
2022-01-30 16:28:21.9530,-0.058,-0.016,-0.691,2.85,-1.94,-2.5,0.35,0.67,1.08
2022-01-30 16:28:21.9630,-0.028,-0.007,-0.701,2.61,-2.1,-2.59,0.57,0.33,1.36
2022-01-30 16:28:21.9740,-0.004,-0.003,-0.705,2.33,-2.25,-2.48,0.76,-0.03,1.65
2022-01-30 16:28:21.9840,0.016,-0.012,-0.717,1.83,-2.47,-2.32,0.91,-0.36,1.87
2022-01-30 16:28:21.9940,0.033,-0.042,-0.737,1.83,-2.47,-2.32,0.99,-0.62,2.01
2022-01-30 16:28:22.0040,0.041,-0.081,-0.783,1.57,-2.36,-2.12,0.95,-0.89,2.06
2022-01-30 16:28:22.0140,0.034,-0.101,-0.86,1.21,-1.94,-1.08,0.83,-1.13,2.01
2022-01-30 16:28:22.0240,0.003,-0.101,-0.918,1.27,-1.97,-0.43,0.69,-1.31,1.85
2022-01-30 16:28:22.0340,-0.035,-0.073,-0.99,1.27,-1.97,-0.43,0.62,-1.43,1.56
2022-01-30 16:28:22.0440,-0.061,-0.043,-1.045,1.47,-2.24,0.2,0.62,-1.43,1.56
2022-01-30 16:28:22.0540,-0.051,-0.042,-1.072,1.61,-2.65,0.87,0.71,-1.28,0.75
2022-01-30 16:28:22.0640,-0.024,-0.065,-1.054,1.1,-2.77,1.26,0.74,-0.86,0.43
2022-01-30 16:28:22.0740,0.009,-0.099,-1.008,0.69,-2.51,0.85,0.62,-0.29,0.21
2022-01-30 16:28:22.0840,0.039,-0.115,-0.973,0.69,-2.51,0.4995422512292862,0.33,0.37,0.06
2022-01-30 16:28:22.0940,0.07,-0.138,-0.946,0.07,-2.22,0.17,-0.06,0.97,-0.04
2022-01-30 16:28:22.1020,0.103,-0.187,-0.972,-0.15,-1.84,0.22,-0.45,1.35,-0.12
2022-01-30 16:28:22.1150,0.155,-0.26,-1.021,-0.03,-1.8,0.22,-0.73,1.46,-0.19
2022-01-30 16:28:22.1240,0.215,-0.329,-1.084,-0.33,-1.08,0.66,-0.92,1.25,-0.28
2022-01-30 16:28:22.1350,0.261,-0.392,-1.15,-0.78,-0.28,1.19,-1.03,0.78,-0.34
2022-01-30 16:28:22.1450,0.286,-0.441,-1.196,-1.22,0.45,1.84,-1.1,0.19,-0.39
2022-01-30 16:28:22.1550,0.297,-0.467,-1.21,-1.5,1.11,2.36,-1.21,-0.4,-0.42
2022-01-30 16:28:22.1650,0.297,-0.485,-1.216,-1.67,1.56,2.55,-1.37,-0.85,-0.42
2022-01-30 16:28:22.1750,0.29,-0.502,-1.19,-1.77,1.88,2.6,-1.55,-1.06,-0.41
2022-01-30 16:28:22.1850,0.279,-0.508,-1.176,-1.81,2.2,2.4,-1.76,-1.08,-0.39
2022-01-30 16:28:22.1950,0.262,-0.496,-1.177,-1.8,2.49,2.12,-1.96,-0.96,-0.36
2022-01-30 16:28:22.2050,0.241,-0.496,-1.195,-1.74,2.61,2.02,-2.08,-0.75,-0.29
2022-01-30 16:28:22.2150,0.216,-0.501,-1.217,-1.62,2.74,2.09,-2.06,-0.58,-0.2
2022-01-30 16:28:22.2250,0.189,-0.504,-1.251,-1.44,3.0,2.25,-1.87,-0.47,-0.1
2022-01-30 16:28:22.2350,0.17,-0.506,-1.262,-1.22,3.21,2.51,-1.53,-0.41,0.02
2022-01-30 16:28:22.2450,0.165,-0.508,-1.227,-1.03,3.4,2.73,-1.1,-0.38,0.16
2022-01-30 16:28:22.2550,0.168,-0.522,-1.17,-0.98,3.52,2.52,-0.67,-0.42,0.35
2022-01-30 16:28:22.2660,0.173,-0.545,-1.092,-1.02,3.68,2.01,-0.27,-0.48,0.57
2022-01-30 16:28:22.2750,0.168,-0.554,-0.994,-1.13,3.92,1.33,0.09,-0.56,0.79
2022-01-30 16:28:22.2850,0.155,-0.55,-0.899,-1.2,4.07,0.41,0.43,-0.64,0.97
2022-01-30 16:28:22.2950,0.145,-0.541,-0.816,-1.16,4.02,-0.55,0.72,-0.7,1.09
2022-01-30 16:28:22.3050,0.126,-0.522,-0.749,-1.13,3.88,-1.4,0.96,-0.73,1.13
2022-01-30 16:28:22.3150,0.1,-0.485,-0.696,-1.08,3.66,-2.11,1.15,-0.76,1.12
2022-01-30 16:28:22.3250,0.08,-0.451,-0.661,-0.93,3.24,-2.66,1.32,-0.78,1.05
2022-01-30 16:28:22.3350,0.077,-0.43,-0.633,-0.78,2.74,-3.06,1.5,-0.79,0.94
2022-01-30 16:28:22.3460,0.089,-0.412,-0.615,-0.78,2.35,-3.3,1.64,-0.82,0.82
2022-01-30 16:28:22.3550,0.113,-0.399,-0.631,-0.94,2.02,-3.53,1.71,-0.87,0.7
2022-01-30 16:28:22.3660,0.128,-0.392,-0.656,-1.25,1.7,-3.44,1.69,-0.89,0.59
2022-01-30 16:28:22.3760,0.122,-0.365,-0.701,-1.55,1.47,-3.18,1.59,-0.9,0.47
2022-01-30 16:28:22.3860,0.096,-0.327,-0.77,-1.67,1.14,-2.79,1.59,-0.9,0.47
2022-01-30 16:28:22.3960,0.075,-0.293,-0.832,-1.56,0.65,-2.13,1.31,-0.75,0.15
2022-01-30 16:28:22.4060,0.066,-0.261,-0.879,-1.4,0.18,-1.43,1.23,-0.52,-0.02
2022-01-30 16:28:22.4160,0.076,-0.245,-0.896,-1.31,-0.27,-0.88,1.23,-0.11,-0.12
2022-01-30 16:28:22.4260,0.094,-0.247,-0.877,-1.35,-0.62,-0.52,1.41,0.43,-0.12
2022-01-30 16:28:22.4360,0.117,-0.251,-0.861,-1.47,-0.78,-0.58,1.53,0.96,-0.05
2022-01-30 16:28:22.4450,0.135,-0.236,-0.851,-1.61,-0.85,-0.74,1.54,1.42,0.07
2022-01-30 16:28:22.4560,0.145,-0.241,-0.839,-1.68,-1.08,-0.78,1.42,1.77,0.22
2022-01-30 16:28:22.4650,0.141,-0.282,-0.842,-1.66,-1.3,-0.86,1.2,1.96,0.39
2022-01-30 16:28:22.4760,0.135,-0.334,-0.888,-1.52,-1.11,-0.88,0.96,1.92,0.52
2022-01-30 16:28:22.4860,0.134,-0.394,-0.964,-1.27,-0.71,-0.56,0.77,1.62,0.62
2022-01-30 16:28:22.4960,0.13,-0.458,-1.056,-1.14,-0.23,0.13,0.63,1.17,0.65
2022-01-30 16:28:22.5060,0.118,-0.503,-1.136,-1.03,0.34,1.02,0.54,0.66,0.61
2022-01-30 16:28:22.5160,0.081,-0.498,-1.203,-0.92,0.84,1.9,0.48,0.23,0.52
2022-01-30 16:28:22.5260,0.031,-0.456,-1.239,-0.64,0.95,2.62,0.43,-0.02,0.43
2022-01-30 16:28:22.5360,-0.021,-0.414,-1.253,-0.2,0.59,3.13,0.33,-0.12,0.37
2022-01-30 16:28:22.5460,-0.061,-0.383,-1.28,0.29,0.11,3.32,0.12,-0.13,0.31
2022-01-30 16:28:22.5560,-0.097,-0.368,-1.32,0.71,-0.24,3.52,-0.11,-0.06,0.28
2022-01-30 16:28:22.5660,-0.128,-0.371,-1.35,1.05,-0.45,3.88,-0.27,0.06,0.28
2022-01-30 16:28:22.5760,-0.158,-0.368,-1.364,1.37,-0.45,4.22,-0.3,0.19,0.3
2022-01-30 16:28:22.5860,-0.18,-0.358,-1.361,1.66,-0.4,4.41,-0.24,0.31,0.33
2022-01-30 16:28:22.5960,-0.194,-0.356,-1.339,1.93,-0.47,4.43,-0.13,0.38,0.36
2022-01-30 16:28:22.6070,-0.209,-0.365,-1.296,2.11,-0.53,4.27,-0.02,0.4,0.37
2022-01-30 16:28:22.6160,-0.224,-0.371,-1.225,2.26,-0.45,3.95,0.05,0.41,0.36
2022-01-30 16:28:22.6260,-0.233,-0.376,-1.15,2.45,-0.38,3.34,0.09,0.35,0.33
2022-01-30 16:28:22.6360,-0.237,-0.383,-1.087,2.57,-0.34,2.59,0.13,0.21,0.29
2022-01-30 16:28:22.6470,-0.244,-0.379,-1.035,2.64,-0.29,1.93,0.22,-0.0,0.24
2022-01-30 16:28:22.6570,-0.254,-0.351,-0.971,2.67,-0.28,1.41,0.36,-0.25,0.21
2022-01-30 16:28:22.6670,-0.255,-0.316,-0.897,2.74,-0.5,0.84,0.53,-0.51,0.2
2022-01-30 16:28:22.6770,-0.249,-0.298,-0.812,2.75,-0.9,0.18,0.73,-0.71,0.23
2022-01-30 16:28:22.6870,-0.234,-0.283,-0.718,2.64,-1.21,-0.59,0.92,-0.85,0.27
2022-01-30 16:28:22.6930,-0.224,-0.258,-0.623,2.64,-1.21,-0.59,1.08,-0.92,0.31
2022-01-30 16:28:22.7070,-0.207,-0.229,-0.521,2.08,-2.0,-3.32,1.18,-0.92,0.35
2022-01-30 16:28:22.7180,-0.193,-0.211,-0.432,2.08,-2.0,-3.32,1.23,-0.86,0.38
2022-01-30 16:28:22.7270,-0.176,-0.202,-0.353,1.83,-2.33,-4.2,1.19,-0.74,0.38
2022-01-30 16:28:22.7380,-0.16,-0.201,-0.289,1.59,-2.55,-4.95,1.09,-0.58,0.36
2022-01-30 16:28:22.7470,-0.152,-0.208,-0.243,1.33,-2.69,-5.59,0.94,-0.39,0.32
2022-01-30 16:28:22.7580,-0.148,-0.21,-0.214,1.0622705380618573,-2.77,-6.36,0.76,-0.2,0.27
2022-01-30 16:28:22.7680,-0.146,-0.21,-0.216,1.06,-2.77,-6.428877369761468,0.57,-0.07,0.22
2022-01-30 16:28:22.7780,-0.151,-0.207,-0.257,0.99,-2.84,-6.43,0.43,-0.06,0.18
2022-01-30 16:28:22.7880,-0.138,-0.211,-0.325,1.0,-2.89,-6.14,0.35,-0.18,0.12
2022-01-30 16:28:22.7980,-0.098,-0.236,-0.406,0.97,-2.94,-5.53,0.31,-0.42,0.06
2022-01-30 16:28:22.8080,-0.053,-0.294,-0.518,0.14,-2.39,-3.78,0.26,-0.71,0.01
2022-01-30 16:28:22.8180,-0.029,-0.369,-0.611,0.14,-2.39,-3.78,0.24,-0.85,-0.02
2022-01-30 16:28:22.8270,-0.008,-0.419,-0.666,-0.23,-1.7,-2.66,0.21,-0.85,-0.08
2022-01-30 16:28:22.8380,0.005,-0.442,-0.767,-0.5,-1.09,-2.07,0.11,-0.79,-0.15
2022-01-30 16:28:22.8480,0.01,-0.482,-0.922,-0.74,-0.83,-1.28,-0.06,-0.81,-0.19
2022-01-30 16:28:22.8580,-0.002,-0.563,-1.153,-0.89,0.08,2.06,-0.25,-0.9,-0.17
2022-01-30 16:28:22.8680,-0.034,-0.675,-1.36,-0.7,1.14,4.34,-0.28,-0.84,-0.14
2022-01-30 16:28:22.8780,-0.052,-0.732,-1.472,-0.7,1.14,4.34,-0.06,-0.58,-0.19
2022-01-30 16:28:22.8880,-0.032,-0.737,-1.51,-0.58,2.17,6.42,0.3,-0.1,-0.33
2022-01-30 16:28:22.8980,0.022,-0.767,-1.478,-0.58,2.17,6.42,0.57,0.39,-0.46
2022-01-30 16:28:22.9080,0.082,-0.831,-1.448,-1.56,2.79,5.97,0.57,0.72,-0.48
2022-01-30 16:28:22.9180,0.131,-0.891,-1.425,-1.56,2.79,5.97,0.35,0.84,-0.4
2022-01-30 16:28:22.9290,0.174,-0.933,-1.389,-2.0,3.38,5.77,0.10256791859865189,0.81,-0.3
2022-01-30 16:28:22.9380,0.221,-0.957,-1.367,-2.33,3.82,5.48,-0.06,0.59,-0.25
2022-01-30 16:28:22.9480,0.256,-0.929,-1.372,-2.71,4.0780271208286285,5.12,-0.18,0.16,-0.28
2022-01-30 16:28:22.9580,0.264,-0.869,-1.393,-3.05,4.07,5.12,-0.33,-0.35,-0.3
2022-01-30 16:28:22.9680,0.23,-0.797,-1.375,-3.04,2.95,5.3,-0.54,-0.73,-0.26
2022-01-30 16:28:22.9790,0.177,-0.68,-1.326,-3.04,2.95,5.3,-0.7871524095535278,-0.73,-0.26
2022-01-30 16:28:22.9890,0.129,-0.575,-1.303,-2.6,2.0,4.83,-0.96,-1.12,-0.05
2022-01-30 16:28:22.9990,0.081,-0.508,-1.257,-2.16,0.91,4.48,-0.95,-1.07,0.11
2022-01-30 16:28:23.0090,0.022,-0.432,-1.185,-1.36,-0.36,3.44,-0.75,-0.94,0.28
2022-01-30 16:28:23.0170,-0.031,-0.343,-1.113,-1.36,-0.36,3.44,-0.75,-0.94,0.28
2022-01-30 16:28:23.0270,-0.078,-0.283,-1.026,-0.9,-1.16,2.71,-0.09,-0.76,0.64
2022-01-30 16:28:23.0380,-0.13,-0.264,-0.923,-0.13,-2.14,0.95,0.22,-0.72,0.82
2022-01-30 16:28:23.0490,-0.173,-0.259,-0.815,0.25,-2.21,-0.1,0.44,-0.7,0.91
2022-01-30 16:28:23.0590,-0.205,-0.253,-0.723,0.25,-2.21,-0.1,0.59,-0.65,0.87
2022-01-30 16:28:23.0690,-0.226,-0.244,-0.638,0.64,-2.39,-1.84,0.7,-0.52,0.7
2022-01-30 16:28:23.0790,-0.24,-0.225,-0.547,0.64,-2.39,-1.84,0.86,-0.26,0.46
2022-01-30 16:28:23.0890,-0.237,-0.201,-0.453,0.73,-2.59,-2.67,1.09,0.1,0.17
2022-01-30 16:28:23.0990,-0.215,-0.182,-0.368,0.57,-3.17,-4.39,1.34,0.47,-0.08
2022-01-30 16:28:23.1090,-0.178,-0.169,-0.311,0.29,-3.42,-4.97,1.34,0.47,-0.08
2022-01-30 16:28:23.1190,-0.142,-0.168,-0.262,-0.03,-3.62,-5.41,1.69,1.03,-0.35
2022-01-30 16:28:23.1290,-0.128,-0.175,-0.222,-0.03,-3.62,-5.41,1.73,1.2,-0.36
2022-01-30 16:28:23.1380,-0.124,-0.187,-0.214,-0.08,-3.75,-5.93,1.64,1.23,-0.37
2022-01-30 16:28:23.1500,-0.108,-0.222,-0.232,-0.08,-3.75,-5.93,1.47,1.18,-0.4
2022-01-30 16:28:23.1590,-0.086,-0.287,-0.259,-0.07,-3.66,-5.72,1.32,1.04,-0.46
2022-01-30 16:28:23.1690,-0.077,-0.332,-0.327,-0.21,-2.75,-4.87,1.23,0.8,-0.53
2022-01-30 16:28:23.1790,-0.078,-0.325,-0.408,-0.21,-2.75,-4.87,1.21,0.49,-0.64
2022-01-30 16:28:23.1890,-0.078,-0.306,-0.485,-0.02,-3.05,-3.14,1.3,0.24,-0.75
2022-01-30 16:28:23.1990,-0.076,-0.324,-0.503,-0.02,-3.05,-3.14,1.44,0.14,-0.83
2022-01-30 16:28:23.2090,-0.066,-0.369,-0.525,0.02,-3.14,-2.64,1.51,0.08,-0.91
2022-01-30 16:28:23.2200,-0.05,-0.427,-0.588,-0.06,-2.48,-1.84,1.43,0.07,-0.97
2022-01-30 16:28:23.2300,-0.041,-0.499,-0.62,-0.06,-2.48,-1.84,1.22,0.12,-0.99
2022-01-30 16:28:23.2390,-0.053,-0.565,-0.694,-0.02,-1.33,-0.79,0.96,0.06,-0.96
2022-01-30 16:28:23.2580,-0.075,-0.639,-0.806,0.27,-0.76,0.4,0.96,0.06,-0.96
2022-01-30 16:28:23.2590,-0.091,-0.753,-0.845,0.5,0.16,1.09,0.83,0.11,-0.75
2022-01-30 16:28:23.2690,-0.104,-0.868,-0.915,0.7,1.29,1.6,0.93,0.07,-0.66
2022-01-30 16:28:23.2790,-0.1,-0.955,-0.99,0.79,2.18,2.53,0.93,0.07,-0.66
2022-01-30 16:28:23.2890,-0.092,-1.038,-1.006,0.73,2.9,2.93,0.83,-0.21,-0.69
2022-01-30 16:28:23.2990,-0.112,-1.129,-1.002,0.73,3.72,3.0,0.56,-0.27,-0.69
2022-01-30 16:28:23.3090,-0.151,-1.207,-0.976,0.84,3.72,3.0,0.19,-0.25,-0.67
2022-01-30 16:28:23.3190,-0.185,-1.253,-0.973,1.22,4.52,2.86,-0.2,-0.24,-0.62
2022-01-30 16:28:23.3290,-0.215,-1.297,-1.007,1.6,5.07,2.71,-0.2,-0.24,-0.62
2022-01-30 16:28:23.3400,-0.232,-1.349,-1.05,1.95,5.47,2.9,-0.67,-0.41,-0.32
2022-01-30 16:28:23.3500,-0.242,-1.367,-1.075,2.18,6.04,3.31,-0.66,-0.55,-0.12
2022-01-30 16:28:23.3600,-0.255,-1.363,-1.072,2.29,6.4,3.59,-0.55,-0.68,0.05
2022-01-30 16:28:23.3700,-0.27,-1.342,-1.034,2.36,6.46,3.63,-0.44,-0.76,0.12
2022-01-30 16:28:23.3800,-0.262,-1.315,-0.959,2.49,6.36,3.34,-0.36,-0.75,0.08
2022-01-30 16:28:23.3900,-0.23,-1.276,-0.868,2.16,5.84,1.8,-0.37,-0.75,-0.05
2022-01-30 16:28:23.4000,-0.176,-1.22,-0.806,2.16,5.84,1.8,-0.5,-0.86,-0.21
2022-01-30 16:28:23.4090,-0.106,-1.164,-0.783,0.96,4.84,0.63,-0.75,-1.1,-0.35
2022-01-30 16:28:23.4200,-0.041,-1.105,-0.772,0.96,4.84,0.63,-1.03,-1.3,-0.45
2022-01-30 16:28:23.4300,0.006,-1.026,-0.731,-0.38,3.73,0.15,-1.26,-1.32,-0.5
2022-01-30 16:28:23.4410,0.018,-0.924,-0.679,-0.38,3.73,0.15,-1.26,-1.32,-0.5
2022-01-30 16:28:23.4500,0.012,-0.823,-0.629,-0.72,1.97,-1.01,-1.44,-0.89,-0.41
2022-01-30 16:28:23.4600,0.013,-0.732,-0.589,-0.74,1.14,-1.53,-1.4,-0.6,-0.31
2022-01-30 16:28:23.4700,0.015,-0.657,-0.554,-0.74,1.14,-1.53,-1.3,-0.31,-0.2
2022-01-30 16:28:23.4800,0.013,-0.604,-0.524,-0.79,0.44,-1.97,-1.14,-0.1,-0.08
2022-01-30 16:28:23.4900,0.013,-0.552,-0.514,-0.79,-0.06,-2.39,-0.93,-0.0,0.02
2022-01-30 16:28:23.5000,0.013,-0.499,-0.506,-0.79,-0.46,-2.62,-0.69,-0.02,0.06
2022-01-30 16:28:23.5100,0.014,-0.445,-0.493,-0.8,-0.9,-2.75,-0.44,-0.12,0.07
2022-01-30 16:28:23.5200,0.012,-0.399,-0.477,-0.8,-1.37,-2.9,-0.44,-0.12,0.07
2022-01-30 16:28:23.5300,0.014,-0.363,-0.434,-0.82,-1.83,-3.06,0.08,-0.21,0.11
2022-01-30 16:28:23.5400,0.031,-0.336,-0.389,-0.98,-2.49,-3.86,0.28,-0.16,0.16
2022-01-30 16:28:23.5510,0.037,-0.31,-0.347,-1.11,-2.76,-4.24,0.45,-0.09,0.25
2022-01-30 16:28:23.5600,0.042,-0.28,-0.312,-1.16,-3.08,-4.62,0.57,-0.03,0.34
2022-01-30 16:28:23.5710,0.05,-0.265,-0.295,-1.16,-3.08,-4.62,0.66,-0.04,0.44
2022-01-30 16:28:23.5800,0.058,-0.265,-0.305,-1.26,-3.34,-4.82,0.71,-0.13,0.52
2022-01-30 16:28:23.5910,0.062,-0.272,-0.33,-1.47,-3.43,-4.53,0.75,-0.27,0.57
2022-01-30 16:28:23.6010,0.051,-0.28,-0.355,-1.47,-3.43,-4.53,0.8103349208831787,-0.27,0.57
2022-01-30 16:28:23.6110,0.022,-0.271,-0.372,-1.49,-3.39,-4.23,0.89,-0.4,0.54
2022-01-30 16:28:23.6210,-0.002,-0.255,-0.383,-1.32,-3.46,-3.97,1.01,-0.34,0.44
2022-01-30 16:28:23.6310,-0.0,-0.263,-0.391,-1.1,-3.69,-3.8,1.13,-0.16,0.34
2022-01-30 16:28:23.6410,0.016,-0.311,-0.371,-1.07,-3.8,-3.62,1.13,-0.16,0.34
2022-01-30 16:28:23.6510,0.038,-0.384,-0.358,-1.45,-2.97,-3.79,1.21,0.38,0.35
2022-01-30 16:28:23.6610,0.056,-0.462,-0.385,-1.45,-2.97,-3.79,1.06,0.54,0.4
2022-01-30 16:28:23.6710,0.053,-0.549,-0.431,-1.71,-1.55,-3.12,0.8,0.6,0.46
2022-01-30 16:28:23.6810,0.02,-0.635,-0.492,-1.71,-1.55,-3.12,0.8,0.6,0.46
2022-01-30 16:28:23.6910,-0.006,-0.703,-0.56,-1.13,-0.04,-1.84,0.42,0.49,0.44
2022-01-30 16:28:23.7010,0.001,-0.761,-0.641,-1.13,-0.04,-1.84,0.42,0.49,0.44
2022-01-30 16:28:23.7110,0.017,-0.81,-0.731,-1.06,0.53,-1.12,0.46,0.1,0.19
2022-01-30 16:28:23.7210,0.02,-0.85,-0.743,-1.25,1.02,-0.12,0.56,0.05,0.08
2022-01-30 16:28:23.7310,0.018,-0.882,-0.742,-1.32,1.43,0.29,0.61,0.1,0.03
2022-01-30 16:28:23.7410,0.009,-0.926,-0.741,-1.24,2.03,0.33,0.55,0.21,0.04
2022-01-30 16:28:23.7510,0.002,-0.998,-0.758,-1.24,2.03,0.33,0.41,0.29,0.12
2022-01-30 16:28:23.7620,-0.015,-1.062,-0.796,-1.16,2.62,0.44,0.24,0.33,0.21
2022-01-30 16:28:23.7710,-0.039,-1.1,-0.835,-1.04,3.28,0.78,0.13,0.35,0.29
2022-01-30 16:28:23.7810,-0.053,-1.117,-0.865,-0.79,3.75,1.2,0.13,0.35,0.29
2022-01-30 16:28:23.7910,-0.064,-1.131,-0.885,-0.51,4.11,1.76,0.08,0.36,0.32
2022-01-30 16:28:23.8010,-0.075,-1.138,-0.883,-0.39,4.21,1.86,0.05,0.49,0.29
2022-01-30 16:28:23.8110,-0.082,-1.137,-0.852,-0.39,4.21,1.86,0.05,0.49,0.29
2022-01-30 16:28:23.8220,-0.08,-1.139,-0.812,-0.24,4.21,1.26,-0.09,0.92,0.12
2022-01-30 16:28:23.8320,-0.067,-1.153,-0.774,-0.24,4.21,1.26,-0.22,1.16,0.05
2022-01-30 16:28:23.8420,-0.047,-1.158,-0.754,-0.28,4.33,0.84,-0.36,1.38,0.05
2022-01-30 16:28:23.8520,-0.026,-1.163,-0.743,-0.5,4.496887736320496,0.37,-0.46,1.52,0.12
2022-01-30 16:28:23.8620,-0.009,-1.162,-0.748,-0.5,4.49,0.37,-0.51,1.59,0.25
2022-01-30 16:28:23.8720,0.001,-1.139,-0.761,-0.62,4.47,0.38,-0.47,1.57,0.4
2022-01-30 16:28:23.8820,0.002,-1.1,-0.775,-0.62,4.47,0.38,-0.37,1.46,0.55
2022-01-30 16:28:23.8910,-0.001,-1.058,-0.779,-0.58,4.16,0.48,-0.22,1.3,0.68
2022-01-30 16:28:23.9020,-0.004,-1.016,-0.779,-0.41,3.39,0.51,-0.03,1.1,0.75
2022-01-30 16:28:23.9120,-0.009,-0.971,-0.762,-0.34,2.97,0.41,0.15,0.91,0.77
2022-01-30 16:28:23.9220,-0.013,-0.929,-0.737,-0.34,2.97,0.41,0.32,0.77,0.76
2022-01-30 16:28:23.9320,-0.012,-0.891,-0.694,-0.28,2.54,0.2,0.42,0.69,0.74
2022-01-30 16:28:23.9420,-0.008,-0.85,-0.659,-0.26,2.14,-0.15,0.43,0.64,0.7
2022-01-30 16:28:23.9520,-0.008,-0.816,-0.628,-0.32,1.33,-0.79,0.39,0.65,0.67
2022-01-30 16:28:23.9620,-0.016,-0.777,-0.594,-0.27,0.96,-1.11,0.31,0.7,0.65
2022-01-30 16:28:23.9720,-0.021,-0.729,-0.583,-0.2,0.48,-1.3,0.21,0.73,0.63
2022-01-30 16:28:23.9820,-0.031,-0.689,-0.591,-0.2,0.48,-1.3,0.12,0.74,0.6
2022-01-30 16:28:23.9920,-0.045,-0.653,-0.605,-0.13,0.04,-1.27,0.06,0.7,0.55
2022-01-30 16:28:24.0020,-0.054,-0.613,-0.617,0.02,-0.32,-1.13,0.04,0.63,0.49
2022-01-30 16:28:24.0120,-0.06,-0.571,-0.622,0.22,-1.11,-0.93,0.03,0.53,0.42
2022-01-30 16:28:24.0230,-0.065,-0.536,-0.635,0.22,-1.11,-0.8346362400054932,0.02,0.39,0.36
2022-01-30 16:28:24.0320,-0.075,-0.511,-0.64,0.28,-1.49,-0.84,-0.01,0.24,0.31
2022-01-30 16:28:24.0420,-0.084,-0.486,-0.633,0.36,-1.76,-0.73,-0.05,0.12,0.24
2022-01-30 16:28:24.0520,-0.093,-0.456,-0.625,0.53,-2.27,-0.86,-0.12,0.02,0.17
2022-01-30 16:28:24.0620,-0.101,-0.428,-0.632,0.53,-2.27,-0.86,-0.23,-0.09,0.09
2022-01-30 16:28:24.0720,-0.112,-0.4,-0.654,0.6,-2.55,-0.89,-0.34,-0.19,0.0
2022-01-30 16:28:24.0830,-0.12,-0.373,-0.675,0.69,-2.8,-0.71,-0.43,-0.29,-0.08
2022-01-30 16:28:24.0920,-0.135,-0.35,-0.707,0.76,-3.05,-0.53,-0.44,-0.38,-0.15
2022-01-30 16:28:24.1020,-0.162,-0.327,-0.727,1.06,-3.45,-0.05,-0.35,-0.46,-0.18
2022-01-30 16:28:24.1120,-0.204,-0.302,-0.741,1.38,-3.65,0.07,-0.18,-0.58,-0.18
2022-01-30 16:28:24.1230,-0.259,-0.266,-0.744,1.38,-3.65,0.07,0.04,-0.66,-0.19
2022-01-30 16:28:24.1330,-0.303,-0.231,-0.72,2.33,-4.31,-0.01,0.26,-0.72,-0.22
2022-01-30 16:28:24.1430,-0.34,-0.207,-0.701,2.33,-4.31,-0.01,0.26,-0.72,-0.22
2022-01-30 16:28:24.1530,-0.369,-0.206,-0.648,2.66,-4.62,-0.16,0.62,-0.55,-0.34
2022-01-30 16:28:24.1620,-0.376,-0.214,-0.621,2.96,-4.75,-0.55,0.71,-0.42,-0.47
2022-01-30 16:28:24.1730,-0.36,-0.232,-0.602,3.11,-4.72,-0.91,0.79,-0.29,-0.62
2022-01-30 16:28:24.1830,-0.325,-0.275,-0.563,2.76,-4.39,-1.28,0.88,-0.17,-0.74
2022-01-30 16:28:24.1930,-0.282,-0.337,-0.52,2.76,-4.39,-1.28,1.0,-0.1,-0.82
2022-01-30 16:28:24.2030,-0.229,-0.39,-0.481,2.4,-3.9,-1.65,1.06,-0.09,-0.87
2022-01-30 16:28:24.2130,-0.161,-0.447,-0.447,1.41,-2.97,-2.26,1.02,-0.14,-0.89
2022-01-30 16:28:24.2230,-0.091,-0.534,-0.427,0.77,-2.28,-2.45,0.86,-0.25,-0.88
2022-01-30 16:28:24.2330,-0.025,-0.639,-0.437,0.77,-2.28,-2.45,0.59,-0.43,-0.84
2022-01-30 16:28:24.2430,0.026,-0.759,-0.479,0.15,-1.38,-2.41,0.27,-0.64,-0.79
2022-01-30 16:28:24.2530,0.06,-0.869,-0.538,-0.39,-0.28,-2.06,-0.0,-0.85,-0.71
2022-01-30 16:28:24.2630,0.072,-0.918,-0.591,-0.75,0.86,-1.5,-0.18,-1.01,-0.66
2022-01-30 16:28:24.2730,0.058,-0.91,-0.653,-0.93,1.68,-0.42,-0.29,-1.15,-0.64
2022-01-30 16:28:24.2830,0.034,-0.902,-0.736,-0.93,1.68,-0.42,-0.35,-1.22,-0.65
2022-01-30 16:28:24.2940,0.011,-0.9,-0.793,-0.76,1.59,1.0167793464660646,-0.43,-1.13,-0.67
2022-01-30 16:28:24.3030,0.001,-0.904,-0.831,-0.54,1.57,1.01,-0.55,-0.91,-0.69
2022-01-30 16:28:24.3130,0.006,-0.921,-0.864,-0.4120301905274391,1.76,1.7,-0.71,-0.59,-0.66
2022-01-30 16:28:24.3240,0.031,-0.946,-0.898,-0.59,2.03,1.96,-0.84,-0.26,-0.56
2022-01-30 16:28:24.3330,0.065,-0.969,-0.954,-0.88,2.33,2.36,-0.91,0.0,-0.42
2022-01-30 16:28:24.3440,0.098,-0.986,-1.013,-0.88,2.33,2.36,-0.88,0.2,-0.23
2022-01-30 16:28:24.3530,0.124,-1.012,-1.062,-1.18,2.57,2.91,-0.8,0.29,-0.03
2022-01-30 16:28:24.3640,0.133,-1.04,-1.107,-1.46,2.84,3.34,-0.7,0.23,0.17
2022-01-30 16:28:24.3730,0.126,-1.063,-1.157,-1.59,3.18,3.74,-0.58,-0.01,0.36
2022-01-30 16:28:24.3840,0.111,-1.084,-1.191,-1.56,3.47,4.16,-0.43,-0.34,0.53
2022-01-30 16:28:24.3930,0.08,-1.083,-1.199,-1.28,3.87,4.67,-0.26,-0.7,0.64
2022-01-30 16:28:24.4040,0.039,-1.068,-1.195,-1.0,3.76,4.66,-0.09,-1.02,0.7
2022-01-30 16:28:24.4140,-0.012,-1.05,-1.167,-1.0,3.76,4.66,0.08,-1.19,0.64
2022-01-30 16:28:24.4230,-0.062,-1.016,-1.104,-0.27,3.35,4.02,0.19,-1.14,0.47
2022-01-30 16:28:24.4340,-0.098,-0.982,-1.015,-0.27,3.35,4.02,0.21,-0.9,0.25
2022-01-30 16:28:24.4440,-0.114,-0.96,-0.923,0.04,2.98,3.22,0.15,-0.54,0.0
2022-01-30 16:28:24.4540,-0.101,-0.944,-0.842,0.19,2.71,2.34,0.0,-0.15,-0.23
2022-01-30 16:28:24.4640,-0.067,-0.932,-0.772,0.13,2.53,1.5,-0.19,0.23,-0.41
2022-01-30 16:28:24.4730,-0.028,-0.906,-0.71,-0.48,2.22,0.12,-0.38,0.56,-0.54
2022-01-30 16:28:24.4840,0.016,-0.874,-0.673,-0.48,2.22,0.12,-0.56,0.79,-0.61
2022-01-30 16:28:24.4940,0.057,-0.841,-0.654,-1.15,1.66,-0.65,-0.72,0.92,-0.65
2022-01-30 16:28:24.5040,0.087,-0.799,-0.646,-1.15,1.66,-0.65,-0.87,0.97,-0.68
2022-01-30 16:28:24.5140,0.106,-0.752,-0.624,-1.39,1.33,-0.8,-1.0,1.0,-0.72
2022-01-30 16:28:24.5240,0.118,-0.705,-0.6,-1.5,0.94,-1.01,-1.13,1.0,-0.75
2022-01-30 16:28:24.5340,0.126,-0.661,-0.583,-1.52,0.54,-1.35,-1.21,1.0,-0.77
2022-01-30 16:28:24.5440,0.12,-0.617,-0.562,-1.49,0.18,-1.61,-1.24,1.0,-0.77
2022-01-30 16:28:24.5540,0.108,-0.56,-0.531,-1.37,-0.15,-1.86,-1.22,0.97,-0.74
2022-01-30 16:28:24.5640,0.097,-0.5,-0.508,-1.12,-0.56,-2.22,-1.18,0.91,-0.66
2022-01-30 16:28:24.5740,0.087,-0.456,-0.479,-0.6814292496442795,-1.48,-2.88,-1.13,0.83,-0.53
2022-01-30 16:28:24.5840,0.07,-0.433,-0.456,-0.69,-1.48,-2.88,-1.07,0.63,-0.25
2022-01-30 16:28:24.5940,-0.015,-0.385,-0.496,-0.48,-1.69,-3.23,-1.07,0.63,-0.25
2022-01-30 16:28:24.6040,0.099,-0.308,-0.478,0.22,-1.84,-3.17,-1.02,0.31,0.08
2022-01-30 16:28:24.6140,0.192,-0.415,-0.343,-1.37,-2.21,-4.09,-0.85,0.46,0.2
2022-01-30 16:28:24.6240,0.133,-0.469,-0.345,-1.14,-1.02,-4.88,-0.85,0.46,0.2
2022-01-30 16:28:24.6350,0.073,-0.343,-0.438,-1.14,-1.02,-4.88,-0.59,0.32,0.38
2022-01-30 16:28:24.6440,0.032,-0.25,-0.402,-0.45,-1.73,-3.97,-0.42,0.41,0.44
2022-01-30 16:28:24.6540,0.017,-0.231,-0.358,0.02,-2.89,-3.88,-0.26,0.53,0.48
2022-01-30 16:28:24.6640,0.026,-0.23,-0.367,0.28,-3.24,-4.5,-0.13,0.63,0.51
2022-01-30 16:28:24.6740,0.043,-0.228,-0.371,0.15,-3.25,-4.48,-0.05,0.69,0.53
2022-01-30 16:28:24.6850,0.056,-0.216,-0.386,0.15,-3.25,-4.48,0.02,0.69,0.56
2022-01-30 16:28:24.6940,0.066,-0.206,-0.418,0.02,-3.34,-4.4,0.09,0.63,0.62
2022-01-30 16:28:24.7050,0.077,-0.196,-0.467,-0.14,-3.55,-3.72,0.17,0.54,0.71
2022-01-30 16:28:24.7150,0.082,-0.184,-0.533,-0.14,-3.682382290363312,-3.102441993355751,0.3,0.44,0.83
2022-01-30 16:28:24.7250,0.087,-0.192,-0.587,-0.21,-3.69,-3.11,0.49,0.4,0.99
2022-01-30 16:28:24.7350,0.09,-0.235,-0.616,-0.25,-3.75,-2.48,0.56,0.78,1.21
2022-01-30 16:28:24.7450,0.086,-0.238,-0.562,-0.34,-3.46,-2.07,0.56,1.46,1.48
2022-01-30 16:28:24.7550,0.024,-0.317,-0.701,-0.3,-3.3,-2.23,0.64,1.21,1.69
2022-01-30 16:28:24.7650,0.001,-0.321,-0.938,0.66,-2.46,0.53,0.55,0.67,1.55
2022-01-30 16:28:24.7750,0.032,-0.328,-1.128,0.26,-2.81,2.43,0.45,-0.18,1.23
2022-01-30 16:28:24.7850,0.008,-0.428,-1.273,0.26,-2.81,2.43,0.44,-0.83,0.89
2022-01-30 16:28:24.7950,-0.018,-0.455,-1.321,0.41,-1.43,4.95,0.48,-1.2,0.58
2022-01-30 16:28:24.8050,-0.053,-0.442,-1.35,0.41,-1.43,4.95,0.56,-1.2,0.34
2022-01-30 16:28:24.8150,-0.072,-0.454,-1.316,0.62,-1.56,5.39,0.59,-0.83,0.16
2022-01-30 16:28:24.8250,-0.085,-0.487,-1.279,0.76,-1.61,5.29,0.5,-0.28,0.03
2022-01-30 16:28:24.8350,-0.096,-0.529,-1.256,0.82,-1.37,4.91,0.29,0.28,-0.05
2022-01-30 16:28:24.8450,-0.092,-0.583,-1.255,0.96,-0.58,4.58,0.02,0.69,-0.11
2022-01-30 16:28:24.8550,-0.066,-0.652,-1.269,0.83,0.05,4.68,-0.24,0.9,-0.16
2022-01-30 16:28:24.8650,-0.021,-0.724,-1.308,0.83,0.05,4.68,-0.24,0.9,-0.16
2022-01-30 16:28:24.8750,0.026,-0.775,-1.38,0.13,1.43,5.5,-0.65,0.43,-0.26
2022-01-30 16:28:24.8850,0.048,-0.785,-1.444,-0.16,1.74,6.2,-0.82,-0.13,-0.35
2022-01-30 16:28:24.8960,0.035,-0.762,-1.481,-0.16,1.74,6.2,-1.01,-0.67,-0.44
2022-01-30 16:28:24.9050,-0.009,-0.738,-1.511,-0.14,1.66,6.58,-1.22,-1.08,-0.54
2022-01-30 16:28:24.9160,-0.055,-0.723,-1.534,0.6,1.41,7.0,-1.41,-1.31,-0.67
2022-01-30 16:28:24.9260,-0.097,-0.703,-1.56,0.6,1.41,7.0,-1.53,-1.34,-0.81
2022-01-30 16:28:24.9350,-0.134,-0.695,-1.562,1.295590668618679,1.34,7.22,-1.56,-1.13,-0.93
2022-01-30 16:28:24.9450,-0.144,-0.693,-1.546,1.44,1.42,7.03,-1.46,-0.77,-1.0
2022-01-30 16:28:24.9550,-0.137,-0.69,-1.515,1.44,1.42,7.03,-1.3,-0.35,-1.02
2022-01-30 16:28:24.9650,-0.113,-0.664,-1.454,1.42,1.55,6.71,-1.07,0.05,-0.98
2022-01-30 16:28:24.9760,-0.077,-0.626,-1.357,0.99,1.24,5.29,-0.81,0.34,-0.91
2022-01-30 16:28:24.9860,-0.032,-0.583,-1.236,0.99,1.24,5.29,-0.53,0.47,-0.84
2022-01-30 16:28:24.9960,0.021,-0.545,-1.11,0.24,0.56,2.86,-0.29,0.39,-0.78
2022-01-30 16:28:25.0060,0.067,-0.518,-0.99,0.24,0.56,2.86,-0.29,0.39,-0.78
2022-01-30 16:28:25.0160,0.102,-0.491,-0.873,-0.51,0.05,0.47,0.13,-0.16,-0.67
2022-01-30 16:28:25.0260,0.127,-0.461,-0.772,-0.51,0.05,0.47,0.34,-0.54,-0.62
2022-01-30 16:28:25.0360,0.141,-0.428,-0.678,-0.96,-0.58,-1.5,0.58,-0.91,-0.54
2022-01-30 16:28:25.0460,0.15,-0.398,-0.582,-0.96,-0.58,-1.5,0.85,-1.18,-0.44
2022-01-30 16:28:25.0560,0.157,-0.381,-0.484,-1.26,-1.22,-3.33,1.12,-1.33,-0.33
2022-01-30 16:28:25.0660,0.16,-0.369,-0.391,-1.26,-1.22,-3.33,1.37,-1.35,-0.24
2022-01-30 16:28:25.0750,0.156,-0.348,-0.309,-1.48,-1.72,-5.0,1.58,-1.27,-0.18
2022-01-30 16:28:25.0860,0.147,-0.327,-0.243,-1.48,-1.72,-5.0,1.73,-1.12,-0.15
2022-01-30 16:28:25.0960,0.135,-0.311,-0.196,-1.48,-2.37,-6.06,1.83,-0.91,-0.15
2022-01-30 16:28:25.1060,0.125,-0.299,-0.148,-1.48,-2.37,-6.06,1.89,-0.64,-0.16
2022-01-30 16:28:25.1160,0.124,-0.299,-0.106,-1.43,-2.85,-6.78,1.91,-0.37,-0.18
2022-01-30 16:28:25.1260,0.132,-0.308,-0.099,-1.43,-2.85,-6.78,1.87,-0.15,-0.18
2022-01-30 16:28:25.1360,0.143,-0.345,-0.104,-1.61,-2.86,-6.72,1.82,-0.01,-0.16
2022-01-30 16:28:25.1460,0.149,-0.393,-0.127,-1.69,-2.52,-6.48,1.7,0.02,-0.14
2022-01-30 16:28:25.1570,0.152,-0.425,-0.19,-1.69,-2.52,-6.48,1.7,0.02,-0.14
2022-01-30 16:28:25.1660,0.155,-0.469,-0.272,-1.72,-2.27,-5.9,1.28,-0.23,-0.22
2022-01-30 16:28:25.1760,0.158,-0.537,-0.374,-1.74,-2.05,-5.03,1.0,-0.45,-0.29
2022-01-30 16:28:25.1860,0.159,-0.601,-0.489,-1.77,-1.54,-4.06,0.73,-0.63,-0.35
2022-01-30 16:28:25.1960,0.147,-0.662,-0.588,-1.81,-0.96,-1.7919172435998918,0.5,-0.76,-0.4
2022-01-30 16:28:25.2070,0.118,-0.691,-0.716,-1.77,0.018702903985977175,-0.65,0.31,-0.91,-0.48
2022-01-30 16:28:25.2170,0.066,-0.68,-0.852,-1.58,0.01,-0.65,0.14,-0.96,-0.58
2022-01-30 16:28:25.2260,0.004,-0.681,-0.916,-1.19,-0.01,0.77,0.06,-0.73,-0.67
2022-01-30 16:28:25.2360,-0.036,-0.709,-0.935,-0.62,-0.11,1.73,0.03,-0.29,-0.77
2022-01-30 16:28:25.2460,-0.04,-0.764,-0.96,-0.11,0.07,1.99,-0.03,0.3,-0.77
2022-01-30 16:28:25.2570,-0.019,-0.849,-0.98,0.08,0.49,2.22,-0.23,0.89,-0.82
2022-01-30 16:28:25.2660,0.001,-0.937,-1.022,-0.1,2.14,2.71,-0.57,1.37,-0.75
2022-01-30 16:28:25.2770,-0.002,-1.002,-1.072,-0.02,2.9,3.2,-0.97,1.74,-0.62
2022-01-30 16:28:25.2860,-0.009,-1.058,-1.113,-0.02,2.9,3.2,-1.31,1.98,-0.43
2022-01-30 16:28:25.2970,-0.008,-1.114,-1.169,0.23,3.53,3.53,-1.31,1.98,-0.43
2022-01-30 16:28:25.3070,-0.004,-1.133,-1.217,0.54,4.67,4.39,-1.44,1.92,-0.04
2022-01-30 16:28:25.3170,-0.005,-1.107,-1.25,0.54,4.67,4.39,-1.23,1.67,0.08
2022-01-30 16:28:25.3270,-0.009,-1.078,-1.249,0.68,4.65,4.7,-1.23,1.67,0.08
2022-01-30 16:28:25.3370,-0.015,-1.054,-1.212,0.83,4.44,4.76,-0.69,0.96,0.25
2022-01-30 16:28:25.3470,-0.017,-1.025,-1.164,0.98,4.28,4.45,-0.52,0.55,0.35
2022-01-30 16:28:25.3570,-0.017,-0.992,-1.119,1.08,4.06,3.96,-0.4,0.13,0.45
2022-01-30 16:28:25.3670,-0.015,-0.953,-1.078,1.11,3.79,3.48,-0.29,-0.23,0.56
2022-01-30 16:28:25.3770,-0.015,-0.913,-1.02,1.08,3.46,3.04,-0.18,-0.42,0.64
2022-01-30 16:28:25.3870,-0.026,-0.867,-0.944,1.02,3.08,2.55,-0.08,-0.44,0.68
2022-01-30 16:28:25.3970,-0.045,-0.805,-0.867,1.11,2.13,1.05,-0.03,-0.33,0.67
2022-01-30 16:28:25.4070,-0.062,-0.734,-0.796,1.24,1.46,0.33,-0.04,-0.14,0.61
2022-01-30 16:28:25.4170,-0.061,-0.668,-0.723,1.24,1.46,0.33,-0.1,0.11,0.51
2022-01-30 16:28:25.4270,-0.054,-0.609,-0.651,1.16,0.19,-1.11,-0.2,0.37,0.41
2022-01-30 16:28:25.4370,-0.04,-0.55,-0.591,1.05,-0.38,-1.76,-0.31,0.6,0.31
2022-01-30 16:28:25.4480,-0.023,-0.498,-0.548,1.05,-0.38,-1.76,-0.41,0.79,0.27
2022-01-30 16:28:25.4670,-0.012,-0.456,-0.521,0.81,-1.31,-2.6,-0.47,0.91,0.27
2022-01-30 16:28:25.4750,-0.012,-0.418,-0.512,0.82,-1.65,-2.76,-0.45,0.98,0.3
