time,gFx,gFy,gFz,ax,ay,az,wx,wy,wz
,-0.083,-0.481,-0.747,0.74,-0.02,-0.56,-1.48,-1.03,-0.16
2022-01-30 16:30:11.4720,-0.126,-0.45,-0.741,1.3,0.43,-1.59,-1.33,-0.75,-0.26
2022-01-30 16:30:11.4790,-0.155,-0.361,-0.528,1.88,-0.25,-3.33,-1.18,-0.19,-0.21
2022-01-30 16:30:11.4880,-0.195,-0.341,-0.423,2.51,-0.36,-4.71,-1.13,0.61,-0.18
2022-01-30 16:30:11.4980,-0.107,-0.278,-0.436,1.78,-0.86,-4.99,-1.04,1.2,-0.19
2022-01-30 16:30:11.5080,-0.103,-0.265,-0.657,1.71,-1.01,-3.38,-0.83,1.2,-0.16
2022-01-30 16:30:11.5180,-0.043,-0.284,-0.985,0.66,-0.27,2.04,-0.55,0.73,-0.14
2022-01-30 16:30:11.5290,0.038,-0.342,-1.161,0.66,-0.27,2.04,-0.28,0.25,-0.11
2022-01-30 16:30:11.5390,0.067,-0.375,-1.148,0.27,0.21,2.23,-0.06,-0.05,-0.11
2022-01-30 16:30:11.5490,0.055,-0.37,-1.143,0.33,0.2,1.98,0.12,-0.25,-0.17
2022-01-30 16:30:11.5590,0.092,-0.362,-1.236,0.11,0.14,2.68,0.3,-0.49,-0.26
2022-01-30 16:30:11.5690,0.114,-0.329,-1.367,-0.29,-0.14,3.95,0.47,-0.8,-0.39
2022-01-30 16:30:11.5790,0.07,-0.299,-1.448,-0.03,-0.53,4.97,0.62,-1.03,-0.47
2022-01-30 16:30:11.5890,0.017,-0.299,-1.426,0.43,-0.64,5.0,0.71,-1.02,-0.51
2022-01-30 16:30:11.5990,-0.028,-0.294,-1.351,0.81,-0.7,4.35,0.69,-0.79,-0.52
2022-01-30 16:30:11.6090,-0.05,-0.278,-1.279,1.05,-0.91,3.64,0.56,-0.42,-0.53
2022-01-30 16:30:11.6280,-0.041,-0.266,-1.22,0.81,-1.1,2.61,0.32,-0.03,-0.55
2022-01-30 16:30:11.6300,-0.016,-0.274,-1.181,0.81,-1.1,2.61,0.32,-0.03,-0.55
2022-01-30 16:30:11.6390,0.01,-0.298,-1.157,0.42649561733007435,-0.63,2.01,-0.26,0.5,-0.54
2022-01-30 16:30:11.6500,0.033,-0.32,-1.114,0.42,-0.63,2.01,-0.52,0.69,-0.53
2022-01-30 16:30:11.6600,0.058,-0.334,-1.045,0.27,-0.41,1.35,-0.52,0.69,-0.53
2022-01-30 16:30:11.6690,0.087,-0.333,-0.976,0.1,-0.3,0.64,-0.91,1.01,-0.67
2022-01-30 16:30:11.6800,0.118,-0.309,-0.925,-0.31,-0.5,-0.35,-1.0,1.06,-0.82
2022-01-30 16:30:11.6890,0.155,-0.291,-0.891,-0.31,-0.5,-0.35,-1.0,1.06,-0.82
2022-01-30 16:30:11.6990,0.203,-0.269,-0.921,-0.63,-0.59,-0.28,-0.92,0.47,-1.23
2022-01-30 16:30:11.7090,0.263,-0.243,-0.997,-1.12,-0.75,0.41,-0.73,-0.26,-1.44
2022-01-30 16:30:11.7190,0.304,-0.224,-1.03,-1.58,-0.86,0.88,-0.43,-1.05,-1.6
2022-01-30 16:30:11.7300,0.301,-0.201,-0.984,-1.71,-1.0,0.57,-0.09,-1.7,-1.7
2022-01-30 16:30:11.7390,0.267,-0.177,-0.91,-1.26,-1.34,-0.95,0.26,-2.08,-1.71
2022-01-30 16:30:11.7500,0.224,-0.171,-0.83,-1.04,-1.35,-1.46,0.54,-2.12,-1.65
2022-01-30 16:30:11.7600,0.188,-0.176,-0.794,-0.81,-1.28,-1.62,0.78,-2.07,-1.56
2022-01-30 16:30:11.7700,0.15,-0.19,-0.772,-0.81,-1.28,-1.62,0.97,-1.93,-1.45
2022-01-30 16:30:11.7790,0.122,-0.191,-0.734,-0.64,-1.3,-2.0,0.97,-1.93,-1.45
2022-01-30 16:30:11.7900,0.101,-0.19,-0.738,-0.55,-1.44,-2.04,1.22,-1.55,-1.3
2022-01-30 16:30:11.8000,0.077,-0.21,-0.745,-0.2,-1.31,-1.99,1.28,-1.26,-1.24
2022-01-30 16:30:11.8100,0.046,-0.225,-0.729,-0.2,-1.31,-1.99,1.31,-0.95,-1.2
2022-01-30 16:30:11.8200,0.024,-0.233,-0.754,-0.04,-1.25,-1.28,1.31,-0.95,-1.2
2022-01-30 16:30:11.8300,0.036,-0.259,-0.81,-0.04,-1.25,-1.28,1.31,-0.61,-1.23
2022-01-30 16:30:11.8400,0.052,-0.277,-0.866,-0.4,-1.09,-0.15,1.32,-0.6,-1.24
2022-01-30 16:30:11.8490,0.072,-0.3,-0.909,-0.4,-1.09,-0.15,1.4,-0.57,-1.18
2022-01-30 16:30:11.8590,0.1,-0.344,-0.92,-0.67,-0.82,0.12,1.55,-0.43,-1.06
2022-01-30 16:30:11.8690,0.131,-0.387,-0.88,-1.17,-0.29,-0.59,1.75,-0.14,-0.91
2022-01-30 16:30:11.8790,0.148,-0.422,-0.824,-1.17,-0.29,-0.59,1.88,0.17,-0.77
2022-01-30 16:30:11.8900,0.123,-0.427,-0.83,-0.97,-0.32,-0.68,1.82,0.25,-0.74
2022-01-30 16:30:11.8990,0.107,-0.44,-0.94,-0.75,-0.07,1.65,1.59,0.03,-0.83
2022-01-30 16:30:11.9100,0.126,-0.499,-1.063,-0.75,-0.07,1.65,1.24,-0.36,-1.0
2022-01-30 16:30:11.9200,0.148,-0.544,-1.08,-1.02,0.25,1.64,0.88,-0.7,-1.22
2022-01-30 16:30:11.9310,0.145,-0.523,-1.007,-1.02,0.25,1.64,0.55,-0.89,-1.42
2022-01-30 16:30:11.9410,0.117,-0.473,-0.934,-0.79,-0.27,0.9,0.26,-0.93,-1.54
2022-01-30 16:30:11.9510,0.092,-0.451,-0.87,-0.25,-0.64,-0.24,-0.03,-0.86,-1.58
2022-01-30 16:30:11.9600,0.062,-0.445,-0.827,-0.25,-0.64,-0.24,-0.03,-0.74,-1.56
2022-01-30 16:30:11.9710,0.03,-0.429,-0.818,0.1,-0.74,-0.42,-0.67,-0.59,-1.49
2022-01-30 16:30:11.9810,0.018,-0.421,-0.803,0.29,-0.77,-0.55,-0.94,-0.33,-1.39
2022-01-30 16:30:11.9900,0.023,-0.409,-0.768,0.29,-0.87,-1.41,-1.13,0.03,-1.23
2022-01-30 16:30:12.0010,0.035,-0.387,-0.718,0.1,-0.93,-1.92,-1.23,0.42,-1.04
2022-01-30 16:30:12.0110,0.066,-0.375,-0.677,0.1,-0.93,-1.92,-1.25,0.75,-0.81
2022-01-30 16:30:12.0200,0.093,-0.389,-0.654,-0.09,-0.73,-2.21,-1.25,1.01,-0.52
2022-01-30 16:30:12.0310,0.107,-0.412,-0.614,-0.15,-0.4,-2.6,-1.16,1.01,-0.52
2022-01-30 16:30:12.0400,0.097,-0.426,-0.558,0.01,-0.14,-3.11,-0.63,1.58,0.36
2022-01-30 16:30:12.0510,0.129,-0.437,-0.455,-0.3,0.14,-4.54,-0.34,2.11,0.62
2022-01-30 16:30:12.0610,0.166,-0.446,-0.44,-0.3,0.14,-4.54,-0.12,2.39,0.82
2022-01-30 16:30:12.0710,0.198,-0.462,-0.5,-0.4,0.23,-3.99,0.01,2.4,0.92
2022-01-30 16:30:12.0810,0.229,-0.502,-0.565,-0.86,0.81,-2.52,0.1,2.12,0.93
2022-01-30 16:30:12.0910,0.282,-0.52,-0.649,-0.86,0.81,-2.52,0.1,2.12,0.93
2022-01-30 16:30:12.1010,0.324,-0.521,-0.728,-1.25,0.82,-1.65,0.51,1.06,0.7
2022-01-30 16:30:12.1110,0.331,-0.511,-0.771,-1.33,0.69,-1.09,0.51,1.06,0.7
2022-01-30 16:30:12.1210,0.325,-0.501,-0.783,-1.24,0.47,-0.86,0.89,0.65,0.58
2022-01-30 16:30:12.1310,0.323,-0.514,-0.769,-1.18,0.52,-0.89,1.64,0.58,0.56
2022-01-30 16:30:12.1410,0.329,-0.541,-0.766,-1.18,0.52,-0.89,1.75,0.89,0.62
2022-01-30 16:30:12.1510,0.36,-0.592,-0.787,-1.77,1.31,-0.19,1.76,1.19,0.73
2022-01-30 16:30:12.1610,0.412,-0.664,-0.832,-1.77,1.31,-0.19,1.62,1.35,0.82
2022-01-30 16:30:12.1710,0.488,-0.732,-0.941,-2.45,1.85,0.89,1.45,1.27,0.89
2022-01-30 16:30:12.1810,0.534,-0.78,-1.044,-2.93,2.24,2.06,1.3,1.05,0.9
2022-01-30 16:30:12.1920,0.552,-0.83,-1.112,-3.13,2.58,2.94,1.24,0.83,0.85
2022-01-30 16:30:12.2020,0.554,-0.878,-1.14,-3.16,2.97,3.35,1.23,0.6,0.7
2022-01-30 16:30:12.2120,0.552,-0.89,-1.157,-3.14,3.07,3.64,1.23,0.6,0.7
2022-01-30 16:30:12.2210,0.543,-0.878,-1.157,-3.07,2.91,3.75,0.99,0.1,0.13
2022-01-30 16:30:12.2320,0.527,-0.845,-1.132,-2.92,2.55,3.63,0.65,-0.06,-0.17
2022-01-30 16:30:12.2410,0.51,-0.808,-1.079,-2.75,2.13,3.22,0.14,-0.04,-0.35
2022-01-30 16:30:12.2510,0.488,-0.785,-1.015,-2.53,1.86,2.58,-0.46,0.17,-0.41
2022-01-30 16:30:12.2620,0.47,-0.77,-0.977,-2.31,1.76,2.12,-0.46,0.47924914956092834,-0.36
2022-01-30 16:30:12.2720,0.453,-0.755,-0.966,-2.08,1.69,1.88,-1.48,0.75,-0.23
2022-01-30 16:30:12.2820,0.428,-0.74,-0.996,-1.81,1.69,2.02,-1.48,0.85,-0.04
2022-01-30 16:30:12.2920,0.378,-0.696,-1.036,-0.7,1.05,2.54,-1.66,0.72,0.12
2022-01-30 16:30:12.3020,0.321,-0.642,-1.056,-0.7,1.05,2.54,-1.41,0.42,0.25
2022-01-30 16:30:12.3120,0.262,-0.597,-1.051,0.44,0.34,2.17,-0.98,0.01,0.34
2022-01-30 16:30:12.3220,0.206,-0.554,-1.016,0.44,0.34,2.17,-0.49,-0.4,0.38
2022-01-30 16:30:12.3320,0.158,-0.507,-0.942,0.88,-0.08,1.51,-0.04,-0.73,0.39
2022-01-30 16:30:12.3430,0.123,-0.461,-0.838,1.19,-0.54,0.52,0.27,-0.91,0.38
2022-01-30 16:30:12.3520,0.106,-0.418,-0.719,1.3,-1.0,-0.63,0.34,-0.91,0.34
2022-01-30 16:30:12.3620,0.091,-0.383,-0.602,1.35,-1.41,-1.8,0.34,-0.91,0.34
2022-01-30 16:30:12.3720,0.07,-0.358,-0.506,1.46,-1.67,-2.83,-0.0,-0.38,0.3
2022-01-30 16:30:12.3820,0.04,-0.311,-0.416,1.69,-2.1,-3.71,-0.24,0.09,0.32
2022-01-30 16:30:12.3920,0.014,-0.296,-0.363,2.17,-2.24,-4.55,-0.44,0.57,0.4
2022-01-30 16:30:12.4020,-0.002,-0.307,-0.355,2.26,-2.1,-4.37,-0.53,0.96,0.52
2022-01-30 16:30:12.4120,-0.002,-0.318,-0.384,2.26,-2.1,-4.37,-0.5,1.17,0.6
2022-01-30 16:30:12.4220,0.016,-0.332,-0.442,2.18,-1.94,-3.86,-0.33,1.15,0.61
2022-01-30 16:30:12.4320,0.039,-0.339,-0.522,2.01,-1.83,-3.11,-0.33,1.15,0.61
2022-01-30 16:30:12.4420,0.061,-0.334,-0.58,1.84,-1.88,-2.38,-0.09,0.89,0.56
2022-01-30 16:30:12.4510,0.086,-0.363,-0.572,1.62,-1.72,-2.35,0.19,0.59,0.49
2022-01-30 16:30:12.4610,0.113,-0.404,-0.584,0.95,-1.09,-2.09,0.46,0.33,0.47
2022-01-30 16:30:12.4720,0.161,-0.437,-0.596,0.95,-1.09,-2.09,0.87,-0.12,0.56
2022-01-30 16:30:12.4820,0.229,-0.485,-0.626,0.27,-0.76,-1.83,0.99,-0.36,0.69
2022-01-30 16:30:12.4920,0.288,-0.555,-0.658,-0.9037716713547707,0.32230963647365574,-1.27,1.08,-0.54,0.87
2022-01-30 16:30:12.5030,0.324,-0.609,-0.667,-0.91,0.32,-1.27,1.08,-0.69,1.04
2022-01-30 16:30:12.5130,0.356,-0.626,-0.702,-1.34,0.42,-0.96,0.97,-0.88,1.14
2022-01-30 16:30:12.5220,0.379,-0.668,-0.734,-1.74,0.65,-0.56,0.72,-1.05,1.17
2022-01-30 16:30:12.5320,0.379,-0.706,-0.757,-1.91,1.03,0.07,0.36,-1.18,1.1
2022-01-30 16:30:12.5420,0.351,-0.699,-0.802,-1.91,1.03,0.07,0.36,-1.18,1.1
2022-01-30 16:30:12.5530,0.273,-0.633,-0.839,-1.42,0.52,0.46,-0.6,-1.25,0.74
2022-01-30 16:30:12.5630,0.174,-0.534,-0.855,-0.6,-0.38,0.59,-1.15,-1.08,0.56
2022-01-30 16:30:12.5730,0.079,-0.442,-0.878,0.23,-1.24,0.7,-1.69,-0.79,0.44
2022-01-30 16:30:12.5820,-0.006,-0.372,-0.908,1.02,-1.85,0.89,-2.1,-0.36,0.37
2022-01-30 16:30:12.5930,-0.067,-0.331,-0.933,1.63,-2.16,1.03,-2.31,0.16,0.37
2022-01-30 16:30:12.6030,-0.101,-0.31,-0.961,2.03,-2.22,1.15,-2.27,0.63,0.43
2022-01-30 16:30:12.6130,-0.106,-0.305,-0.991,2.16,-2.12,1.36,-1.95,0.98,0.53
2022-01-30 16:30:12.6230,-0.1,-0.3,-0.994,2.17,-2.0,1.38,-1.46,1.16,0.64
2022-01-30 16:30:12.6330,-0.087,-0.294,-0.963,2.12,-1.94,1.1,-0.96,1.19,0.72
2022-01-30 16:30:12.6430,-0.081,-0.291,-0.923,2.1,-1.91,0.67,-0.59,1.1,0.74
2022-01-30 16:30:12.6530,-0.087,-0.306,-0.878,2.18,-1.78,0.24,-0.59,1.1,0.74
2022-01-30 16:30:12.6630,-0.106,-0.323,-0.834,2.39,-1.56,-0.24,-0.17,0.77,0.69
2022-01-30 16:30:12.6730,-0.131,-0.318,-0.822,2.66,-1.55,-0.43,0.05,0.52,0.66
2022-01-30 16:30:12.6830,-0.152,-0.298,-0.831,2.89,-1.74,-0.38,0.3,0.27,0.67
2022-01-30 16:30:12.6940,-0.169,-0.291,-0.857,3.07,-1.9,-0.13,0.3,0.27,0.67
2022-01-30 16:30:12.7030,-0.17,-0.3,-0.873,3.09,-1.89,0.1,1.05,0.04,0.84
2022-01-30 16:30:12.7130,-0.162,-0.306,-0.858,2.99,-1.93,0.1,1.05,0.04,0.84
2022-01-30 16:30:12.7230,-0.143,-0.331,-0.831,2.8,-1.89,-0.13,1.66,0.22,0.96
2022-01-30 16:30:12.7330,-0.126,-0.398,-0.842,2.57,-1.49,-0.02,1.66,0.22,0.96
2022-01-30 16:30:12.7430,-0.127,-0.474,-0.88,2.51,-0.84,0.36,1.23,0.04,0.83
2022-01-30 16:30:12.7530,-0.124,-0.529,-0.959,2.46,-0.38,1.11,0.85,-0.3,0.63
2022-01-30 16:30:12.7630,-0.115,-0.59,-1.043,2.34,0.12,2.0,0.63,-0.7,0.41
2022-01-30 16:30:12.7740,-0.083,-0.647,-1.112,2.01,0.65,2.75,0.64,-1.05,0.17
2022-01-30 16:30:12.7830,-0.023,-0.689,-1.159,0.7,1.32,3.52,0.84,-1.33,-0.01
2022-01-30 16:30:12.7930,0.03,-0.721,-1.164,0.7,1.32,3.52,1.06,-1.48,-0.1
2022-01-30 16:30:12.8030,0.055,-0.737,-1.113,0.3,1.43,3.17,1.15,-1.52,-0.1
2022-01-30 16:30:12.8130,0.088,-0.753,-1.049,-0.1,1.47,2.59,1.15,-1.52,-0.1
2022-01-30 16:30:12.8240,0.131,-0.788,-0.995,-1.13,2.02,1.73,0.8,-1.56,-0.08
2022-01-30 16:30:12.8340,0.166,-0.826,-0.96,-1.13,2.02,1.73,0.8,-1.56,-0.08
2022-01-30 16:30:12.8440,0.17,-0.847,-0.946,-1.38,2.27,1.54,-0.09,-1.8,-0.25
2022-01-30 16:30:12.8530,0.143,-0.821,-0.954,-1.29,2.14,1.58,-0.66,-1.91,-0.42
2022-01-30 16:30:12.8640,0.098,-0.773,-0.973,-1.02,1.74,1.69,-1.28,-1.95,-0.61
2022-01-30 16:30:12.8740,0.04,-0.727,-1.004,-0.59,1.38,1.88,-1.82,-1.87,-0.83
2022-01-30 16:30:12.8840,-0.017,-0.685,-1.04,-0.12,1.1,2.16,-2.16,-1.65,-1.05
2022-01-30 16:30:12.8940,-0.06,-0.64,-1.063,0.28,0.86,2.26,-2.22,-1.39,-1.24
2022-01-30 16:30:12.9040,-0.083,-0.577,-1.102,0.5,0.45,2.52,-2.01,-1.15,-1.34
2022-01-30 16:30:12.9140,-0.095,-0.528,-1.078,0.66,-0.03,1.72,-1.67,-0.92,-1.28
2022-01-30 16:30:12.9240,-0.099,-0.509,-1.018,0.66,-0.03,1.72,-1.3,-0.75,-1.07
2022-01-30 16:30:12.9340,-0.096,-0.482,-0.969,0.51,-0.42,0.6,-0.99,-0.65,-0.86
2022-01-30 16:30:12.9440,-0.083,-0.446,-0.919,0.51,-0.42,0.6,-0.99,-0.65,-0.86
2022-01-30 16:30:12.9540,-0.083,-0.435,-0.907,0.44,-0.54,0.35,-0.85,-0.67,-0.66
2022-01-30 16:30:12.9640,-0.11,-0.438,-0.9,0.63,-0.43,0.26,-0.92,-0.67,-0.69
2022-01-30 16:30:12.9740,-0.142,-0.431,-0.907,1.09,-0.41,0.33,-0.91,-0.64,-0.78
2022-01-30 16:30:12.9840,-0.155,-0.422,-0.922,1.09,-0.41,0.33,-0.91,-0.64,-0.78
2022-01-30 16:30:12.9940,-0.145,-0.405,-0.952,1.01,-0.49,0.54,-0.36,-0.6,-0.96
2022-01-30 16:30:13.0040,-0.129,-0.382,-0.971,0.87,-0.69,0.81,0.22,-0.59,-0.97
2022-01-30 16:30:13.0140,-0.102,-0.361,-0.953,0.62,-0.91,0.68,0.22,-0.59,-0.97
2022-01-30 16:30:13.0240,-0.078,-0.336,-0.948,0.35,-1.23,0.63,1.53,-0.68,-0.8
2022-01-30 16:30:13.0350,-0.06,-0.313,-0.927,0.15,-1.61,0.59,2.05,-0.76,-0.69
2022-01-30 16:30:13.0440,-0.039,-0.305,-0.885,-0.08,-1.91,0.3,2.4195430278778076,-0.81,-0.63
2022-01-30 16:30:13.0550,-0.008,-0.31,-0.834,-0.39,-2.09,-0.05,2.61,-0.83,-0.62
2022-01-30 16:30:13.0640,0.032,-0.331,-0.774,-0.8,-2.16,-0.49,2.63,-0.79,-0.63
2022-01-30 16:30:13.0740,0.082,-0.39,-0.722,-1.3,-1.89,-0.88,2.52,-0.75,-0.62
2022-01-30 16:30:13.0840,0.134,-0.46,-0.703,-1.84,-1.39,-1.03,2.52,-0.75,-0.62
2022-01-30 16:30:13.0950,0.174,-0.5,-0.738,-2.31,-1.11,-0.68,2.29,-0.85,-0.58
2022-01-30 16:30:13.1040,0.201,-0.54,-0.785,-2.66,-0.9,-0.06,1.41,-1.58,-0.56
2022-01-30 16:30:13.1150,0.223,-0.593,-0.811,-3.21,-0.23,0.53,0.84,-1.93,-0.62
2022-01-30 16:30:13.1250,0.231,-0.615,-0.82,-3.21,-0.23,0.53,0.84,-1.93,-0.62
2022-01-30 16:30:13.1340,0.203,-0.583,-0.823,-3.13,-0.46,0.61,-0.19,-2.15,-0.86
2022-01-30 16:30:13.1440,0.177,-0.546,-0.804,-2.85,-0.99,0.13,-0.6,-1.9,-1.0
2022-01-30 16:30:13.1550,0.162,-0.532,-0.765,-2.85,-0.99,0.13,-0.97,-1.41,-1.1
2022-01-30 16:30:13.1650,0.157,-0.506,-0.731,-2.81,-1.15,-0.26,-0.97,-1.41,-1.1
2022-01-30 16:30:13.1750,0.167,-0.483,-0.705,-2.86,-1.33,-0.62,-1.63,-0.1,-1.17
2022-01-30 16:30:13.1850,0.187,-0.467,-0.697,-2.97,-1.37,-0.85,-1.87,0.52,-1.11
2022-01-30 16:30:13.1950,0.211,-0.446,-0.708,-3.1,-1.44,-0.89,-1.87,0.52,-1.11
2022-01-30 16:30:13.2050,0.22,-0.446,-0.731,-3.12,-1.38,-0.81,-1.81,1.23,-0.62
2022-01-30 16:30:13.2150,0.197,-0.472,-0.751,-2.85,-1.01,-0.7,-1.41,1.34,-0.16
2022-01-30 16:30:13.2250,0.148,-0.47,-0.738,-2.3,-0.8,-0.81,-0.82,1.39,0.3
2022-01-30 16:30:13.2350,0.094,-0.436,-0.682,-1.65,-1.04,-1.32,-0.18,1.48,0.66
2022-01-30 16:30:13.2450,0.057,-0.434,-0.614,-1.17,-1.16,-2.02,0.42,1.58,0.89
2022-01-30 16:30:13.2550,0.02,-0.454,-0.552,-0.74,-0.99,-2.6,0.92,1.7,0.98
2022-01-30 16:30:13.2650,-0.017,-0.462,-0.473,-0.27,-0.95,-3.31,1.29,1.8,0.95
2022-01-30 16:30:13.2750,-0.027,-0.48,-0.421,-0.02,-0.76,-3.96,1.48,1.76,0.78
2022-01-30 16:30:13.2850,-0.01,-0.511,-0.412,-0.02,-0.76,-3.96,1.48,1.76,0.78
2022-01-30 16:30:13.2950,0.009,-0.549,-0.424,-0.13,-0.51,-3.8,1.5,1.16,0.3
2022-01-30 16:30:13.3050,0.022,-0.588,-0.439,-0.2,-0.25,-3.54,1.2,0.83,0.08
2022-01-30 16:30:13.3150,0.028,-0.644,-0.43,-0.25,0.62,-3.45,1.04,0.65,-0.07
2022-01-30 16:30:13.3260,0.039,-0.693,-0.437,-0.25,0.62,-3.45,0.95,0.64,-0.14
2022-01-30 16:30:13.3350,0.054,-0.72,-0.471,-0.33,0.84,-3.14,0.89,0.69,-0.17
2022-01-30 16:30:13.3460,0.075,-0.771,-0.557,-0.45,1.16,-2.39,0.82,0.66,-0.16
2022-01-30 16:30:13.3550,0.081,-0.864,-0.686,-0.53,1.96,-1.11,0.75,0.58,-0.13
2022-01-30 16:30:13.3660,0.059,-0.933,-0.787,-0.3,2.69,0.01,0.73,0.51,-0.15
2022-01-30 16:30:13.3760,0.042,-0.981,-0.869,-0.05,3.09,0.9,0.78,0.42,-0.18
2022-01-30 16:30:13.3850,0.042,-1.057,-0.947,-0.06,4.42,2.68,0.89,0.22,-0.2
2022-01-30 16:30:13.3960,0.055,-1.13,-1.045,-0.06,4.42,2.68,0.89,0.22,-0.2
2022-01-30 16:30:13.4050,0.05,-1.15,-1.121,-0.07,4.71,3.58,1.23,-0.61,-0.22
2022-01-30 16:30:13.4160,0.03,-1.131,-1.163,0.08,4.46,4.15,1.23,-0.61,-0.22
2022-01-30 16:30:13.4250,0.016,-1.149,-1.167,0.18,4.42,4.38,1.27,-1.64,-0.15
2022-01-30 16:30:13.4360,0.021,-1.193,-1.142,0.07,4.74,4.24,1.01,-1.93,-0.1
2022-01-30 16:30:13.4460,0.024,-1.218,-1.117,-0.04,4.91,3.8,0.59,-1.92,-0.08
2022-01-30 16:30:13.4560,-0.007,-1.203,-1.082,-0.04,4.91,3.8,0.59,-1.92,-0.08
2022-01-30 16:30:13.4660,-0.068,-1.161,-1.023,0.9580773943662644,4.14,2.58,-0.35,-0.87,0.02
2022-01-30 16:30:13.4760,-0.126,-1.122,-0.954,0.95,4.14,2.58,-0.63,-0.08,0.13
2022-01-30 16:30:13.4860,-0.145,-1.081,-0.915,1.24,3.82,2.06,-0.63,-0.08,0.13
2022-01-30 16:30:13.4960,-0.114,-1.038,-0.909,1.05,3.43,1.88,-0.72,0.54,0.26
2022-01-30 16:30:13.5060,-0.067,-0.996,-0.908,0.22,2.55,1.69,-0.45,0.7,0.53
2022-01-30 16:30:13.5160,-0.028,-0.932,-0.894,0.22,2.55,1.69,-0.3,0.29,0.66
2022-01-30 16:30:13.5260,-0.009,-0.857,-0.887,-0.03,1.83,1.59,-0.28,-0.26,0.81
2022-01-30 16:30:13.5360,-0.004,-0.8,-0.861,-0.19,1.26,1.38,-0.3,-0.76,0.95
2022-01-30 16:30:13.5460,-0.019,-0.727,-0.835,-0.21,0.64,1.07,-0.31,-1.08,1.04
2022-01-30 16:30:13.5560,-0.051,-0.639,-0.809,-0.08,-0.19,0.84,-0.25,-1.18,1.1
2022-01-30 16:30:13.5660,-0.096,-0.546,-0.777,0.17,-1.05,0.48,-0.25,-1.18,1.1
2022-01-30 16:30:13.5760,-0.147,-0.458,-0.751,0.52,-1.94,0.27,0.22,-0.85,1.08
2022-01-30 16:30:13.5860,-0.185,-0.4,-0.683,0.81,-2.6,-0.29,0.22,-0.85,1.08
2022-01-30 16:30:13.5960,-0.207,-0.367,-0.62,0.96,-3.01,-0.91,1.04,0.08,1.06
2022-01-30 16:30:13.6060,-0.209,-0.345,-0.557,0.97,-3.3,-1.44,1.38,0.54,1.05
2022-01-30 16:30:13.6160,-0.195,-0.331,-0.485,0.83,-3.54,-2.03,1.58,0.9,0.96
2022-01-30 16:30:13.6270,-0.171,-0.333,-0.417,0.6,-3.67,-2.63,1.62,1.16,0.81
2022-01-30 16:30:13.6360,-0.147,-0.349,-0.357,0.4,-3.63,-3.13,1.57,1.35,0.61
2022-01-30 16:30:13.6470,-0.101,-0.376,-0.293,0.07,-3.51,-3.65,1.45,1.55,0.37
2022-01-30 16:30:13.6570,-0.025,-0.441,-0.243,-1.27,-2.26,-4.15,1.45,1.55,0.37
2022-01-30 16:30:13.6660,0.058,-0.538,-0.248,-1.86,-1.35,-3.75,1.07,1.8,0.04
2022-01-30 16:30:13.6770,0.126,-0.636,-0.285,-1.86,-1.35,-3.75,0.84,1.86,0.03
2022-01-30 16:30:13.6860,0.178,-0.732,-0.31,-2.31,-0.46,-3.44,0.59,1.9,0.14
2022-01-30 16:30:13.6960,0.193,-0.801,-0.383,-2.44,0.3,-2.89,0.32,1.78,0.28
2022-01-30 16:30:13.7070,0.168,-0.825,-0.525,-1.62,0.82,-0.05,0.09,1.54,0.43
2022-01-30 16:30:13.7170,0.107,-0.853,-0.685,-1.62,0.82,-0.05,0.02,1.24,0.55
2022-01-30 16:30:13.7270,0.038,-0.883,-0.823,-0.34,1.22,2.27,0.24,1.05,0.58
2022-01-30 16:30:13.7370,-0.007,-0.885,-0.893,-0.34,1.22,2.27,0.24,1.05,0.58
2022-01-30 16:30:13.7470,-0.02,-0.883,-0.917,-0.11,1.15,2.69,1.07,0.87,0.43
2022-01-30 16:30:13.7560,-0.0,-0.881,-0.888,-0.47,0.93,2.13,1.24,0.74,0.32
2022-01-30 16:30:13.7670,0.026,-0.872,-0.824,-0.47,0.93,2.13,1.15,0.57,0.25
2022-01-30 16:30:13.7770,0.043,-0.852,-0.727,-0.64,0.7,1.32,0.84,0.4,0.2
2022-01-30 16:30:13.7870,0.058,-0.822,-0.646,-0.89,0.02,-0.05,0.42,0.23,0.15
2022-01-30 16:30:13.7970,0.067,-0.787,-0.593,-0.89,0.02,-0.05,-0.07,0.09,0.09
2022-01-30 16:30:13.8060,0.058,-0.747,-0.566,-0.87,-0.36,-0.38,-0.53,0.03,0.07
2022-01-30 16:30:13.8170,0.02,-0.697,-0.555,-0.56,-0.79,-0.55,-0.9,0.08,0.09
2022-01-30 16:30:13.8270,-0.028,-0.638,-0.553,-0.1,-1.29,-0.67,-1.12,0.2,0.15
2022-01-30 16:30:13.8370,-0.074,-0.571,-0.579,0.36,-1.86,-0.59,-1.16,0.31,0.19
2022-01-30 16:30:13.8470,-0.128,-0.502,-0.621,1.37,-3.06,-0.27,-0.99,0.47,0.17
2022-01-30 16:30:13.8570,-0.171,-0.435,-0.614,1.64,-3.63,-0.39,-0.68,0.66,0.11
2022-01-30 16:30:13.8670,-0.191,-0.377,-0.611,1.64,-3.63,-0.39,-0.29,0.81,0.06
2022-01-30 16:30:13.8770,-0.192,-0.344,-0.584,1.75,-4.0,-0.57,0.08,0.94,0.05
2022-01-30 16:30:13.8870,-0.178,-0.329,-0.512,1.69,-4.18,-1.2,0.34,1.06,0.09
2022-01-30 16:30:13.8970,-0.162,-0.325,-0.447,1.59,-4.26,-1.87,0.46,1.09,0.13
2022-01-30 16:30:13.9070,-0.142,-0.334,-0.408,1.47,-4.25,-2.27,0.47,1.02,0.16
2022-01-30 16:30:13.9170,-0.112,-0.371,-0.378,1.25,-3.99,-2.55,0.44,0.89,0.19
2022-01-30 16:30:13.9270,-0.086,-0.421,-0.379,0.8102451646327973,-3.15,-2.31,0.43,0.68,0.21
2022-01-30 16:30:13.9370,-0.061,-0.459,-0.41,0.81,-3.15,-2.31,0.48,0.44,0.21
2022-01-30 16:30:13.9470,-0.031,-0.51,-0.436,0.53,-2.74,-2.0,0.58,0.22,0.23
2022-01-30 16:30:13.9570,-0.0,-0.586,-0.474,0.22,-2.08,-1.65,0.66,-0.01,0.28
2022-01-30 16:30:13.9680,0.031,-0.682,-0.538,-0.1,-1.24,-1.0,0.69,-0.2,0.37
2022-01-30 16:30:13.9770,0.056,-0.807,-0.583,-0.42,-0.12,-0.45,0.67,-0.29,0.49
2022-01-30 16:30:13.9880,0.058,-0.934,-0.639,-0.56,1.13,0.07,0.6,-0.32,0.59
2022-01-30 16:30:13.9980,0.04,-1.024,-0.711,-0.3271142935752869,2.66,1.49,0.56,-0.3,0.64
2022-01-30 16:30:14.0080,0.019,-1.08,-0.772,-0.3015926773287356,3.14,2.17,0.53,-0.31,0.64
2022-01-30 16:30:14.0180,0.013,-1.136,-0.839,-0.31,3.14,2.17,0.47,-0.37,0.61
2022-01-30 16:30:14.0280,0.017,-1.213,-0.896,-0.4,3.84,2.82,0.41,-0.43,0.56
2022-01-30 16:30:14.0380,0.005,-1.267,-0.912,-0.42,4.45,3.12,0.33,-0.44,0.49
2022-01-30 16:30:14.0470,-0.033,-1.265,-0.899,-0.16,4.55,3.07,0.22,-0.39,0.4
2022-01-30 16:30:14.0580,-0.072,-1.233,-0.866,0.36,4.09,2.28,0.08,-0.31,0.32
2022-01-30 16:30:14.0680,-0.086,-1.225,-0.804,0.18624342989176512,4.272422482967377,1.58,-0.1,-0.19,0.29
2022-01-30 16:30:14.0780,-0.062,-1.25,-0.74,0.18,4.27,1.58,-0.35,-0.16,0.27
2022-01-30 16:30:14.0880,-0.025,-1.268,-0.729,-0.21,4.55,1.33,-0.65,-0.29,0.23
2022-01-30 16:30:14.0980,0.001,-1.236,-0.728,-0.65,3.88,1.06,-0.95,-0.48,0.15
2022-01-30 16:30:14.1080,-0.001,-1.172,-0.707,-0.41,3.16,0.74,-1.19,-0.64,0.06
2022-01-30 16:30:14.1180,-0.036,-1.084,-0.685,-0.03,2.24,0.46,-1.37,-0.73,0.01
2022-01-30 16:30:14.1280,-0.08,-0.98,-0.669,-0.03,2.24,0.46,-1.48,-0.76,-0.03
2022-01-30 16:30:14.1380,-0.115,-0.869,-0.664,0.3,1.26,0.29,-1.48,-0.76,-0.03
2022-01-30 16:30:14.1480,-0.14,-0.753,-0.66,0.53,0.22,0.15,-1.49,-0.69,-0.17
2022-01-30 16:30:14.1590,-0.149,-0.653,-0.645,0.63,-0.74,-0.08,-1.38,-0.6,-0.25
2022-01-30 16:30:14.1680,-0.149,-0.584,-0.63,0.58,-1.86,-0.63,-1.21,-0.52,-0.28
2022-01-30 16:30:14.1780,-0.146,-0.531,-0.602,0.58,-1.86,-0.63,-0.96,-0.41,-0.26
2022-01-30 16:30:14.1880,-0.137,-0.483,-0.558,0.51,-2.27,-1.12,-0.7,-0.28,-0.22
2022-01-30 16:30:14.1970,-0.12,-0.449,-0.513,0.14,-2.77,-2.05,-0.45,-0.14,-0.16
2022-01-30 16:30:14.2070,-0.096,-0.433,-0.473,0.14,-2.77,-2.05,-0.25,0.0,-0.12
2022-01-30 16:30:14.2170,-0.077,-0.424,-0.439,-0.19,-2.93,-2.67,-0.08,0.1,-0.12
2022-01-30 16:30:14.2360,-0.064,-0.415,-0.418,-0.3,-2.97,-2.74,0.05,0.16,-0.16
2022-01-30 16:30:14.2370,-0.051,-0.415,-0.415,-0.3,-2.97,-2.74,0.18,0.14,-0.23
2022-01-30 16:30:14.2470,-0.037,-0.428,-0.43,-0.41,-2.88,-2.62,0.33,0.08,-0.3
2022-01-30 16:30:14.2580,-0.029,-0.446,-0.448,-0.47,-2.74,-2.42,0.49,-0.0,-0.39
2022-01-30 16:30:14.2690,-0.017,-0.468,-0.466,-0.54,-2.57,-2.23,0.63,-0.1,-0.46
2022-01-30 16:30:14.2780,-0.006,-0.499,-0.491,-0.64,-2.34,-1.93,0.74,-0.19,-0.49
2022-01-30 16:30:14.2890,0.01,-0.56,-0.506,-0.95,-1.08,-1.59,0.82,-0.22,-0.47
2022-01-30 16:30:14.2990,0.033,-0.652,-0.513,-0.95,-1.08,-1.59,0.82,-0.25,-0.41
2022-01-30 16:30:14.3090,0.053,-0.727,-0.571,-1.14,-0.33,-1.13,0.62,-0.43,-0.4
2022-01-30 16:30:14.3190,0.065,-0.774,-0.697,-1.3,0.13,0.02,0.24,-0.78,-0.4
2022-01-30 16:30:14.3290,0.045,-0.828,-0.827,-1.22,0.61,1.4,-0.12,-1.11,-0.36
2022-01-30 16:30:14.3390,-0.009,-0.875,-0.882,-0.79,1.13,2.12,-0.12,-1.25,-0.3
2022-01-30 16:30:14.3490,-0.059,-0.89,-0.918,-0.32,1.38,2.41,-0.31,-1.29,-0.25
2022-01-30 16:30:14.3590,-0.101,-0.884,-0.981,0.02,1.38,3.0,-0.19,-1.28,-0.24
2022-01-30 16:30:14.3690,-0.154,-0.858,-0.994,0.45,1.19,3.32,-0.19,-1.28,-0.24
2022-01-30 16:30:14.3790,-0.203,-0.826,-0.926,0.9,0.86,2.83,0.06,-0.85,-0.16
2022-01-30 16:30:14.3890,-0.223,-0.818,-0.815,1.15,0.7,1.82,0.05,-0.41,-0.07
2022-01-30 16:30:14.3990,-0.2,-0.835,-0.708,1.01,0.82,0.72,-0.07,0.03,0.01
2022-01-30 16:30:14.4090,-0.148,-0.847,-0.636,0.52,0.99,-0.08,-0.3,0.37,0.05
2022-01-30 16:30:14.4190,-0.105,-0.83,-0.584,0.1,0.92,-0.66,-0.54,0.59,0.04
2022-01-30 16:30:14.4290,-0.077,-0.791,-0.544,-0.18,0.61,-1.11,-0.73,0.71,0.0
2022-01-30 16:30:14.4390,-0.069,-0.749,-0.512,-0.27,0.24,-1.51,-0.73,0.73,-0.03
2022-01-30 16:30:14.4490,-0.073,-0.706,-0.489,-0.2,-0.12,-1.82,-0.76,0.69,-0.03
2022-01-30 16:30:14.4600,-0.076,-0.665,-0.47,-0.11,-0.48,-2.07,-0.63,0.61,-0.02
2022-01-30 16:30:14.4690,-0.086,-0.639,-0.45,-0.01,-0.74,-2.32,-0.48,0.53,0.04
2022-01-30 16:30:14.4790,-0.109,-0.619,-0.429,0.23,-0.9,-2.55,-0.32,0.45,0.11
2022-01-30 16:30:14.4900,-0.134,-0.584,-0.407,0.51,-1.17,-2.81,-0.21,0.38,0.16
2022-01-30 16:30:14.5000,-0.151,-0.549,-0.405,0.71,-1.53,-2.91,-0.13,0.29,0.17
2022-01-30 16:30:14.5100,-0.159,-0.543,-0.423,0.84,-1.53,-2.53,-0.08,0.17,0.14
2022-01-30 16:30:14.5200,-0.16,-0.556,-0.456,0.84,-1.53,-2.53,-0.05,-0.01,0.1
2022-01-30 16:30:14.5290,-0.157,-0.556,-0.532,0.8,-1.49,-1.88,-0.02,-0.22,0.03
2022-01-30 16:30:14.5400,-0.166,-0.559,-0.606,0.84,-1.5,-1.09,0.06,-0.34,-0.05
2022-01-30 16:30:14.5490,-0.174,-0.585,-0.655,0.92,-1.3,-0.57,0.21,-0.34,-0.12
2022-01-30 16:30:14.5600,-0.163,-0.629,-0.704,0.85,-0.93,-0.08,0.39,-0.17,-0.19
2022-01-30 16:30:14.5700,-0.138,-0.693,-0.741,0.64,-0.36,0.35,0.52,0.14,-0.26
2022-01-30 16:30:14.5800,-0.107,-0.761,-0.79,0.15186622381210327,0.82,1.56,0.54,0.43,-0.31
2022-01-30 16:30:14.5900,-0.083,-0.815,-0.87,0.15,0.82,1.56,0.47,0.61,-0.38
2022-01-30 16:30:14.6000,-0.069,-0.834,-0.946,-0.01,1.04,3.2,0.37,0.6,-0.46
2022-01-30 16:30:14.6100,-0.054,-0.833,-1.033,0.01,1.1,3.88,0.31,0.43,-0.51
2022-01-30 16:30:14.6210,-0.054,-0.846,-1.085,0.01,1.1,3.88,0.33,0.24,-0.5
2022-01-30 16:30:14.6300,-0.06,-0.861,-1.079,0.12,1.24,3.95,0.41,0.07,-0.43
2022-01-30 16:30:14.6400,-0.058,-0.879,-1.053,0.17,1.35,3.76,0.49,-0.06,-0.34
2022-01-30 16:30:14.6500,-0.043,-0.914,-1.005,0.06,1.64,3.38,0.51,-0.17,-0.26
2022-01-30 16:30:14.6600,-0.045,-0.931,-0.944,0.23,1.85,2.12,0.46,-0.23,-0.21
2022-01-30 16:30:14.6700,-0.072,-0.935,-0.86,0.6,1.92,1.31,0.35,-0.27,-0.16
2022-01-30 16:30:14.6800,-0.114,-0.944,-0.781,0.6,1.92,1.31,0.16,-0.36,-0.15
2022-01-30 16:30:14.6900,-0.157,-0.935,-0.73,1.3,1.61,0.38,-0.13,-0.52,-0.21
2022-01-30 16:30:14.7010,-0.181,-0.901,-0.695,1.42,1.2,0.02,-0.49,-0.7,-0.4
2022-01-30 16:30:14.7100,-0.194,-0.853,-0.661,1.51,0.72,-0.41,-0.88,-0.8,-0.66
2022-01-30 16:30:14.7210,-0.202,-0.795,-0.624,1.56,0.09,-0.8,-1.24,-0.81,-0.97
2022-01-30 16:30:14.7310,-0.203,-0.718,-0.595,1.55,-0.72,-1.08,-1.54,-0.7,-1.26
2022-01-30 16:30:14.7400,-0.196,-0.621,-0.583,1.46,-1.56,-1.16,-1.79,-0.52,-1.53
2022-01-30 16:30:14.7590,-0.177,-0.526,-0.593,1.36,-2.26,-1.11,-1.97,-0.36,-1.72
2022-01-30 16:30:14.7600,-0.159,-0.443,-0.615,1.35,-2.9,-0.87,-2.07,-0.25,-1.81
2022-01-30 16:30:14.7690,-0.149,-0.366,-0.658,1.35,-2.9,-0.87,-2.03,-0.22,-1.79
2022-01-30 16:30:14.7790,-0.14,-0.314,-0.692,1.38,-3.33,-0.62,-1.81,-0.25,-1.68
2022-01-30 16:30:14.7890,-0.115,-0.281,-0.715,1.26,-3.56,-0.5,-1.43,-0.31,-1.53
2022-01-30 16:30:14.7990,-0.077,-0.26,-0.722,0.6,-3.59,-0.64,-0.93,-0.36,-1.37
2022-01-30 16:30:14.8110,-0.031,-0.272,-0.704,0.6,-3.59,-0.64,-0.39,-0.4,-1.19
2022-01-30 16:30:14.8190,0.001,-0.308,-0.683,0.15,-3.05,-1.11,0.11,-0.45,-1.0
2022-01-30 16:30:14.8310,0.013,-0.317,-0.657,0.15,-3.05,-1.11,0.52,-0.52,-0.85
2022-01-30 16:30:14.8400,0.009,-0.306,-0.608,0.17,-3.18,-1.51,0.82,-0.59,-0.73
2022-01-30 16:30:14.8500,0.0,-0.324,-0.558,0.2,-2.8,-2.32,0.82,-0.59,-0.73
2022-01-30 16:30:14.8610,0.013,-0.377,-0.519,0.2,-2.8,-2.32,1.16,-0.76,-0.49
2022-01-30 16:30:14.8710,0.072,-0.468,-0.497,-0.3,-2.1,-2.5,1.16,-0.76,-0.49
2022-01-30 16:30:14.8800,0.141,-0.584,-0.495,-1.03,-1.06,-2.51,1.25,-1.08,-0.31
2022-01-30 16:30:14.8910,0.19,-0.672,-0.522,-2.02,0.3,-1.7,1.12,-1.39,-0.3
2022-01-30 16:30:14.9010,0.215,-0.721,-0.577,-2.02,0.3,-1.7,0.85,-1.83,-0.35
2022-01-30 16:30:14.9110,0.21,-0.739,-0.67,-2.14,0.49,-0.82,0.85,-1.83,-0.35
2022-01-30 16:30:14.9210,0.19,-0.751,-0.765,-2.12,0.54,0.21,0.17,-2.67,-0.52
2022-01-30 16:30:14.9310,0.173,-0.812,-0.801,-2.07,0.99,0.74,0.06,-2.67,-0.53
2022-01-30 16:30:14.9410,0.159,-0.892,-0.802,-2.09,1.78,0.82,0.15,-2.34,-0.49
2022-01-30 16:30:14.9510,0.157,-0.941,-0.785,-2.16,2.33,0.69,0.25,-1.82,-0.44
2022-01-30 16:30:14.9610,0.167,-0.968,-0.79,-2.58,2.77,0.87,0.25,-1.82,-0.44
2022-01-30 16:30:14.9710,0.189,-0.981,-0.802,-2.58,2.77,0.87,-0.1,-0.77,-0.44
2022-01-30 16:30:14.9810,0.22,-0.998,-0.77,-2.9,2.89,0.67,-0.58,-0.16,-0.5
2022-01-30 16:30:14.9920,0.245,-1.035,-0.728,-3.14,3.26,0.18,-1.18,0.47,-0.56
2022-01-30 16:30:15.0020,0.255,-1.063,-0.727,-3.02,3.84,0.26,-1.79,1.01,-0.6
2022-01-30 16:30:15.0200,0.238,-1.056,-0.786,-2.51,3.48,0.95,-2.27,1.37,-0.61
2022-01-30 16:30:15.0300,0.196,-0.988,-0.872,-1.93,2.82,1.53,-2.53,1.59,-0.62
2022-01-30 16:30:15.0320,0.154,-0.903,-0.947,-1.93,2.82,1.53,-2.48,1.65,-0.6
2022-01-30 16:30:15.0410,0.108,-0.831,-1.009,-1.33,2.28,2.06,-2.14,1.59,-0.53
2022-01-30 16:30:15.0510,0.067,-0.756,-1.019,-0.3,1.09,1.88,-1.59,1.44,-0.39
2022-01-30 16:30:15.0620,0.039,-0.68,-0.994,-0.04,0.56,1.46,-0.96,1.2,-0.2
2022-01-30 16:30:15.0720,0.028,-0.624,-0.953,-0.01355808511376381,0.16676434457302095,0.89,-0.36,0.91,0.01
2022-01-30 16:30:15.0820,0.039,-0.582,-0.892,-0.02,0.16,0.89,0.13,0.61,0.2
2022-01-30 16:30:15.0910,0.055,-0.543,-0.828,-0.16,-0.23,0.26,0.45,0.34,0.31
2022-01-30 16:30:15.1020,0.049,-0.509,-0.756,-0.15,-0.62,-0.37,0.62,0.2,0.36
2022-01-30 16:30:15.1120,0.036,-0.484,-0.663,-0.02,-0.94,-1.22,0.62,0.2,0.36
2022-01-30 16:30:15.1220,0.027,-0.465,-0.582,0.09,-1.44,-2.58,0.65,0.34,0.24
2022-01-30 16:30:15.1320,0.031,-0.445,-0.528,0.09,-1.44,-2.58,0.56,0.56,0.06
2022-01-30 16:30:15.1420,0.042,-0.434,-0.488,0.04,-1.62,-2.97,0.56,0.56,0.06
2022-01-30 16:30:15.1520,0.063,-0.433,-0.468,-0.06,-1.67,-3.2,0.33,1.06,-0.38
2022-01-30 16:30:15.1620,0.108,-0.446,-0.488,-0.78,-1.28,-2.64,0.23,1.23,-0.56
2022-01-30 16:30:15.1720,0.169,-0.491,-0.533,-0.78,-1.28,-2.64,0.22,1.37,-0.65
2022-01-30 16:30:15.1820,0.241,-0.564,-0.557,-1.32,-0.63,-2.34,0.31,1.53,-0.62
2022-01-30 16:30:15.1920,0.313,-0.65,-0.586,-1.89,0.18,-2.05,0.49,1.66,-0.62
2022-01-30 16:30:15.2020,0.368,-0.726,-0.629,-2.33,0.93,-1.61,0.71,1.72,-0.32
2022-01-30 16:30:15.2120,0.393,-0.785,-0.676,-2.5,1.49,-1.08,0.92,1.69,-0.13
2022-01-30 16:30:15.2220,0.395,-0.847,-0.734,-2.41,2.02,-0.49,1.01,1.53,0.05
2022-01-30 16:30:15.2320,0.381,-0.907,-0.814,-2.23,2.56,0.33,1.02,1.24,0.19
2022-01-30 16:30:15.2420,0.338,-0.945,-0.895,-1.79,2.9,1.26,1.05,1.0,0.21
2022-01-30 16:30:15.2520,0.298,-0.978,-0.926,-1.28,3.15,1.77,1.15,0.86,0.1
2022-01-30 16:30:15.2620,0.289,-1.011,-0.937,-1.06,3.39,1.99,1.25,0.78,-0.09
2022-01-30 16:30:15.2720,0.304,-1.038,-0.935,-1.1,3.59,2.12,1.25,0.72,-0.28
2022-01-30 16:30:15.2820,0.328,-1.045,-0.912,-1.27,3.64,2.01,1.11,0.66,-0.43
2022-01-30 16:30:15.2920,0.334,-1.021,-0.883,-1.31,3.42,1.83,0.86,0.6,-0.48
2022-01-30 16:30:15.3020,0.318,-0.969,-0.84,-1.13,2.91,1.53,0.51,0.6,-0.43
2022-01-30 16:30:15.3120,0.3,-0.926,-0.786,-0.86,2.41,1.04,0.13,0.66,-0.28
2022-01-30 16:30:15.3230,0.294,-0.906,-0.75,-0.71,2.15,0.65,-0.29,0.72,-0.07
2022-01-30 16:30:15.3330,0.294,-0.904,-0.743,-0.66,2.12,0.51,-0.29,0.72,-0.07
2022-01-30 16:30:15.3430,0.275,-0.896,-0.749,-0.51,2.14,0.51,-1.09,0.76,0.42
2022-01-30 16:30:15.3520,0.22,-0.859,-0.764,-0.03,1.91,0.6,-1.09,0.76,0.42
2022-01-30 16:30:15.3620,0.153,-0.804,-0.765,0.65,1.48,0.59,-1.33,0.79,0.65
2022-01-30 16:30:15.3730,0.103,-0.744,-0.761,1.2,0.98,0.46,-1.36,0.92,0.84
2022-01-30 16:30:15.3830,0.068,-0.673,-0.747,1.58,0.39,0.31,-1.19,0.95,0.82
2022-01-30 16:30:15.3920,0.04,-0.595,-0.72,2.07,-0.95,-0.3,-0.99,0.88,0.74
2022-01-30 16:30:15.4030,0.027,-0.528,-0.694,2.07,-0.95,-0.3,-0.8,0.72,0.66
2022-01-30 16:30:15.4130,0.031,-0.476,-0.665,2.08,-1.44,-0.62,-0.66,0.47,0.57
2022-01-30 16:30:15.4230,0.045,-0.433,-0.636,1.77,-2.2,-1.25,-0.53,0.18,0.5
2022-01-30 16:30:15.4330,0.063,-0.397,-0.605,1.77,-2.2,-1.25,-0.41,-0.1,0.46
2022-01-30 16:30:15.4430,0.082,-0.38,-0.573,1.55,-2.4,-1.6,-0.28,-0.29,0.46
2022-01-30 16:30:15.4520,0.095,-0.368,-0.541,1.19,-2.6,-2.21,-0.15,-0.4,0.51
Time,0.106,-0.359,-0.517,1.04,-2.67,-2.48,-0.02,-0.4,0.58
2022-01-30 16:30:15.4720,0.113,-0.353,-0.49,1.04,-2.67,-2.48,0.1,-0.31,0.68
2022-01-30 16:30:15.4740,0.118,-0.343,-0.467,0.97,-2.69,-2.48,0.2,-0.17,0.78
2022-01-30 16:30:15.4870,0.122,-0.339,-0.459,0.86,-2.81,-2.72,0.26,-0.04,0.85
2022-01-30 16:30:15.4980,0.126,-0.343,-0.467,0.76,-2.91,-2.82,0.32,0.07,0.87
2022-01-30 16:30:15.5080,0.148,-0.364,-0.489,0.68,-2.93,-2.76,0.36,0.09,0.84
2022-01-30 16:30:15.5180,0.182,-0.405,-0.529,0.48,-2.81,-2.56,0.39,0.02,0.8
2022-01-30 16:30:15.5280,0.226,-0.476,-0.567,0.12,-2.5,-2.18,0.43,-0.08,0.82
2022-01-30 16:30:15.5380,0.267,-0.572,-0.6,-0.36,-1.94,-1.76,0.51,-0.19,0.93
2022-01-30 16:30:15.5480,0.301,-0.671,-0.624,-0.85,-1.09,-1.4,0.61,-0.32,1.12
2022-01-30 16:30:15.5580,0.326,-0.764,-0.655,-1.3,-0.17,-1.1,0.68,-0.57,1.31
2022-01-30 16:30:15.5680,0.328,-0.817,-0.761,-1.71,0.71,-0.84,0.61,-1.08,1.42
2022-01-30 16:30:15.5780,0.297,-0.844,-0.898,-1.97,1.29,0.02,0.45,-1.7,1.41
2022-01-30 16:30:15.5880,0.245,-0.884,-0.994,-1.96,1.52,1.39,0.32,-2.15,1.29
2022-01-30 16:30:15.5980,0.196,-0.926,-1.025,-1.72,1.84,2.46,0.22,-2.27,1.08
2022-01-30 16:30:15.6080,0.152,-0.931,-1.018,-1.45,2.26,2.93,0.14,-2.07,0.83
2022-01-30 16:30:15.6180,0.105,-0.898,-1.003,-1.22,2.41,2.89,-0.01,-1.61,0.61
2022-01-30 16:30:15.6280,0.064,-0.856,-0.953,-0.92,2.16,2.78,-0.01,-1.61,0.61
2022-01-30 16:30:15.6380,0.04,-0.83,-0.898,-0.59,1.76,2.36,-0.48,-0.36,0.54
2022-01-30 16:30:15.6480,0.037,-0.82,-0.875,-0.38,1.48,1.76,-0.73,0.15,0.67
2022-01-30 16:30:15.6580,0.043,-0.807,-0.871,-0.33,1.42,1.39,-0.87,0.51,0.83
2022-01-30 16:30:15.6680,0.049,-0.786,-0.865,-0.4,1.37,1.28,-0.86,0.72,0.96
2022-01-30 16:30:15.6780,0.044,-0.763,-0.862,-0.48,1.23,1.16,-0.66,0.78,1.05
2022-01-30 16:30:15.6880,0.025,-0.718,-0.844,-0.48,1.07,1.1,-0.32,0.72,1.09
2022-01-30 16:30:15.6980,-0.006,-0.649,-0.811,-0.34,0.73,0.94,-0.32,0.72,1.09
2022-01-30 16:30:15.7080,-0.036,-0.579,-0.753,-0.08,0.08,0.66,0.1,0.61,1.06
2022-01-30 16:30:15.7180,-0.058,-0.519,-0.686,0.2,-0.65,0.18,0.81,0.38,0.95
2022-01-30 16:30:15.7280,-0.074,-0.463,-0.632,0.39,-1.32,-0.42,0.94,0.26,0.88
2022-01-30 16:30:15.7380,-0.092,-0.416,-0.603,0.52,-1.94,-0.95,0.93,0.19,0.82
2022-01-30 16:30:15.7480,-0.118,-0.377,-0.567,0.65,-2.5,-1.2,0.87,0.24,0.76
2022-01-30 16:30:15.7580,-0.147,-0.337,-0.546,0.84,-2.95,-1.48,0.82,0.4,0.7
2022-01-30 16:30:15.7680,-0.168,-0.309,-0.545,1.11,-3.4,-1.7,0.82,0.65,0.65
2022-01-30 16:30:15.7790,-0.17,-0.3,-0.56,1.35,-3.76,-1.68,0.87,0.92,0.61
2022-01-30 16:30:15.7890,-0.169,-0.317,-0.605,1.44,-3.97,-1.54,0.93,1.13,0.61
2022-01-30 16:30:15.7990,-0.169,-0.346,-0.641,1.45,-3.93,-1.1,0.99,1.29,0.61
2022-01-30 16:30:15.8090,-0.164,-0.375,-0.665,1.5,-3.72,-0.61,0.99,1.35,0.6
2022-01-30 16:30:15.8190,-0.148,-0.431,-0.71,1.52,-3.5,-0.32,0.9,1.29,0.58
2022-01-30 16:30:15.8280,-0.109,-0.535,-0.776,1.44,-3.12,0.13,0.75,1.05,0.58
2022-01-30 16:30:15.8390,-0.05,-0.652,-0.872,1.16,-2.26,0.77,0.61,0.62,0.57
2022-01-30 16:30:15.8480,-0.001,-0.735,-0.972,0.59,-1.13,1.68,0.51,0.09,0.53
2022-01-30 16:30:15.8590,0.027,-0.778,-1.038,0.04,-0.24,2.73,0.51,0.09,0.53
2022-01-30 16:30:15.8690,0.029,-0.809,-1.057,-0.35,0.23,3.52,0.41,-0.62,0.41
2022-01-30 16:30:15.8790,0.006,-0.842,-1.041,-0.5,0.52,3.84,0.41,-0.62,0.41
2022-01-30 16:30:15.8890,-0.03,-0.879,-1.012,-0.4,0.81,3.78,0.3,-0.4,0.36
2022-01-30 16:30:15.8990,-0.059,-0.905,-0.973,-0.12,1.16,3.54,0.19,-0.08,0.36
2022-01-30 16:30:15.9090,-0.064,-0.951,-0.92,0.17,1.44,3.2,0.04,0.28,0.41
2022-01-30 16:30:15.9190,-0.039,-1.035,-0.877,0.27,1.79,2.71,-0.15,0.49,0.49
2022-01-30 16:30:15.9290,-0.008,-1.114,-0.86,0.1,2.56,2.22,-0.15,0.49,0.49
2022-01-30 16:30:15.9390,-0.005,-1.139,-0.861,-0.25,3.42,1.95,-0.62,0.26,0.57
2022-01-30 16:30:15.9490,-0.033,-1.118,-0.873,-0.38,3.86,1.88,-0.93,-0.14,0.5
2022-01-30 16:30:15.9590,-0.085,-1.074,-0.891,-0.22,3.81,1.91,-1.27,-0.54,0.35
2022-01-30 16:30:15.9690,-0.156,-1.007,-0.875,0.17,3.52,2.0,-1.53,-0.78,0.12
2022-01-30 16:30:15.9790,-0.21,-0.918,-0.825,0.78,3.02,1.85,-1.67,-0.79,-0.16
2022-01-30 16:30:15.9890,-0.229,-0.808,-0.78,1.34,2.32,1.3,-1.69,-0.68,-0.47
2022-01-30 16:30:15.9990,-0.208,-0.715,-0.732,1.6,1.38,0.71,-1.62,-0.5,-0.71
2022-01-30 16:30:16.0090,-0.159,-0.659,-0.687,1.5,0.51,0.16,-1.49,-0.34,-0.8
2022-01-30 16:30:16.0200,-0.116,-0.628,-0.652,1.09,-0.02,-0.42,-1.3,-0.24,-0.69
2022-01-30 16:30:16.0290,-0.095,-0.618,-0.608,0.66,-0.3,-0.83,-1.02,-0.21,-0.43
2022-01-30 16:30:16.0390,-0.098,-0.587,-0.577,0.41,-0.35,-1.32,-0.67,-0.26,-0.13
2022-01-30 16:30:16.0490,-0.114,-0.51,-0.56,0.37,-0.51,-1.72,-0.32,-0.38,0.1
2022-01-30 16:30:16.0540,-0.14,-0.428,-0.544,0.37,-0.51,-1.72,-0.01,-0.56,0.2
2022-01-30 16:30:16.0690,-0.173,-0.368,-0.552,0.7,-1.97,-2.1,0.21,-0.74,0.2
2022-01-30 16:30:16.0790,-0.204,-0.35,-0.553,0.96,-2.62,-2.08,0.39,-0.83,0.09
2022-01-30 16:30:16.0890,-0.226,-0.359,-0.535,1.4,-2.9,-2.12,0.58,-0.81,-0.12
2022-01-30 16:30:16.0990,-0.223,-0.366,-0.536,1.4,-2.9,-2.12,0.79,-0.77,-0.4
2022-01-30 16:30:16.1090,-0.199,-0.372,-0.562,1.37,-2.86,-2.14,0.79,-0.77,-0.4
2022-01-30 16:30:16.1190,-0.171,-0.39,-0.605,1.15,-2.87,-1.87,1.18,-0.92,-0.84
2022-01-30 16:30:16.1290,-0.145,-0.423,-0.646,0.85,-2.81,-1.42,1.37,-1.06,-0.87
2022-01-30 16:30:16.1390,-0.118,-0.464,-0.651,0.58,-2.61,-0.88,1.59,-1.14,-0.76
2022-01-30 16:30:16.1490,-0.095,-0.509,-0.619,0.04,-2.01,-0.75,1.75,-1.07,-0.58
2022-01-30 16:30:16.1590,-0.067,-0.571,-0.585,0.04,-2.01,-0.75,1.75,-1.07,-0.58
2022-01-30 16:30:16.1690,-0.046,-0.658,-0.597,-0.5297188541293144,-0.9,-0.89,1.45,-0.96,-0.17
2022-01-30 16:30:16.1790,-0.046,-0.758,-0.64,-0.53,-0.9,-0.89,1.02,-0.98,-0.05
2022-01-30 16:30:16.1890,-0.077,-0.837,-0.651,-0.66,-0.03,-0.37,0.55,-0.99,-0.07
2022-01-30 16:30:16.2000,-0.119,-0.858,-0.653,-0.13,1.07,-0.03,0.14,-0.95,-0.22
2022-01-30 16:30:16.2100,-0.153,-0.864,-0.65,-0.13,1.07,-0.03,-0.17,-0.84,-0.45
2022-01-30 16:30:16.2190,-0.175,-0.85,-0.634,0.19,1.12,0.0,-0.44,-0.68,-0.68
2022-01-30 16:30:16.2300,-0.18,-0.82,-0.623,0.42,1.08,-0.14,-0.44,-0.68,-0.68
2022-01-30 16:30:16.2400,-0.167,-0.82,-0.603,0.47,0.74,-0.5,-0.99,-0.3,-0.91
2022-01-30 16:30:16.2500,-0.142,-0.829,-0.585,0.28,0.92,-0.78,-1.26,-0.1,-0.9
2022-01-30 16:30:16.2600,-0.12,-0.81,-0.586,0.09,0.87,-0.92,-1.53,0.06,-0.83
2022-01-30 16:30:16.2700,-0.118,-0.782,-0.618,0.09,0.87,-0.92,-1.53,0.06,-0.83
2022-01-30 16:30:16.2800,-0.123,-0.744,-0.65,0.09,0.69,-0.78,-1.72,0.18,-0.73
2022-01-30 16:30:16.2900,-0.117,-0.683,-0.683,0.2,0.47,-0.56,-1.67,0.36,-0.49
2022-01-30 16:30:16.2990,-0.089,-0.62,-0.714,0.25,0.04,-0.38,-1.67,0.36,-0.49
2022-01-30 16:30:16.3100,-0.045,-0.568,-0.737,-0.27,-0.91,-0.03,-1.05,0.3,-0.28
2022-01-30 16:30:16.3200,0.003,-0.528,-0.73,-0.27,-0.91,-0.03,-0.65,0.29,-0.15
2022-01-30 16:30:16.3300,0.037,-0.505,-0.691,-0.7,-1.28,-0.07,-0.29,0.34,0.01
2022-01-30 16:30:16.3400,0.05,-0.484,-0.641,-1.2053328285366298,-1.6594263535737992,-0.94,0.03,0.46,0.2
2022-01-30 16:30:16.3500,0.044,-0.46,-0.598,-1.21,-1.66,-0.94,0.31,0.6,0.39
2022-01-30 16:30:16.3600,0.029,-0.443,-0.566,-1.17,-1.9,-1.39,0.59,0.67,0.56
2022-01-30 16:30:16.3700,0.016,-0.436,-0.568,-1.02,-2.1,-1.74,0.87,0.62,0.67
2022-01-30 16:30:16.3800,0.011,-0.442,-0.585,-0.86,-2.24,-1.77,1.14,0.49,0.69
2022-01-30 16:30:16.3900,0.0,-0.461,-0.595,-0.72,-2.2,-1.38,1.37,0.31,0.6
2022-01-30 16:30:16.4000,-0.014,-0.501,-0.623,-0.72,-2.2,-1.0583051025867463,1.52,0.12,0.44
2022-01-30 16:30:16.4100,-0.016,-0.577,-0.636,-0.6,-1.96,-1.06,1.59,0.01,0.22
2022-01-30 16:30:16.4200,0.009,-0.671,-0.639,-0.55,-1.41,-0.76,1.52,-0.04,-0.04
2022-01-30 16:30:16.4300,0.035,-0.773,-0.664,-0.76,-0.61,-0.65,1.28,-0.0,-0.27
2022-01-30 16:30:16.4410,0.032,-0.865,-0.711,-1.04,0.26,-0.34,0.89,0.09,-0.43
2022-01-30 16:30:16.4500,-0.012,-0.912,-0.787,-0.72,1.67,0.87,0.42,0.2,-0.55
2022-01-30 16:30:16.4610,-0.084,-0.933,-0.878,-0.72,1.67,0.87,0.06,0.42,-0.6
2022-01-30 16:30:16.4700,-0.146,-1.005,-0.925,0.01,1.83,1.82,0.06,0.42,-0.6
2022-01-30 16:30:16.4800,-0.169,-1.074,-0.952,0.74,2.4,2.4,0.12,1.24,-0.64
2022-01-30 16:30:16.4900,-0.155,-1.098,-0.998,1.17,3.17,2.66,0.12,1.49,-0.73
2022-01-30 16:30:16.5000,-0.122,-1.108,-1.048,1.24,3.48,3.05,0.42,1.53,-0.8
2022-01-30 16:30:16.5110,-0.098,-1.13,-1.002,1.09,3.56,3.62,0.42,1.53,-0.8
2022-01-30 16:30:16.5200,-0.075,-1.158,-0.901,0.97,3.71,3.49,0.03,1.51,-0.79
2022-01-30 16:30:16.5310,-0.033,-1.182,-0.834,0.73,4.21,1.79,-0.42,1.4,-0.76
2022-01-30 16:30:16.5400,0.031,-1.224,-0.781,0.73,4.21,1.79,-0.94,1.27,-0.73
2022-01-30 16:30:16.5510,0.104,-1.283,-0.74,0.3,4.58,1.23,-1.47,1.14,-0.71
2022-01-30 16:30:16.5610,0.151,-1.294,-0.744,-0.28,5.23,0.71,-1.92,1.02,-0.7
2022-01-30 16:30:16.5710,0.147,-1.226,-0.774,-0.71,5.63,0.52,-1.92,1.02,-0.7
2022-01-30 16:30:16.5810,0.118,-1.13,-0.791,-0.68,5.26,0.68,-2.4,0.93,-0.63
2022-01-30 16:30:16.5910,0.101,-1.048,-0.819,-0.3,4.49,0.73,-2.39,0.86,-0.5
2022-01-30 16:30:16.6010,0.095,-0.97,-0.869,0.19,3.25,1.1,-2.39,0.86,-0.5
2022-01-30 16:30:16.6110,0.092,-0.88,-0.903,0.19,3.25,1.1,-2.19,0.71,-0.33
2022-01-30 16:30:16.6210,0.092,-0.793,-0.911,0.35,1.82,1.39,-1.32,0.19,0.08
2022-01-30 16:30:16.6310,0.097,-0.709,-0.902,0.35,1.82,1.39,-0.76,-0.12,0.3
2022-01-30 16:30:16.6400,0.101,-0.622,-0.868,0.32,1.1,1.27,-0.18,-0.41,0.49
2022-01-30 16:30:16.6510,0.098,-0.541,-0.802,0.24,0.31,0.96,-0.18,-0.41,0.49
2022-01-30 16:30:16.6610,0.095,-0.467,-0.725,0.19,-0.5,0.37,0.82,-0.83,0.82
2022-01-30 16:30:16.6710,0.094,-0.405,-0.646,0.13,-1.28,-0.36,1.19,-0.95,0.95
2022-01-30 16:30:16.6810,0.088,-0.35,-0.566,0.04,-1.99,-1.1,1.45,-1.0,1.04
2022-01-30 16:30:16.6910,0.078,-0.302,-0.492,-0.1,-3.24,-2.49,1.58,-0.96,1.1
2022-01-30 16:30:16.7010,0.064,-0.267,-0.425,-0.1,-3.24,-2.49,1.58,-0.96,1.1
2022-01-30 16:30:16.7110,0.046,-0.252,-0.36,-0.11,-3.75,-3.06,1.59,-0.8,1.12
2022-01-30 16:30:16.7220,0.031,-0.249,-0.311,-0.08,-4.06,-3.61,1.4,-0.24,1.05
2022-01-30 16:30:16.7310,0.015,-0.247,-0.294,-0.04,-4.23,-4.04,1.25,0.04,0.94
2022-01-30 16:30:16.7420,-0.0,-0.251,-0.305,0.03,-4.34,-4.21,1.09,0.26,0.79
2022-01-30 16:30:16.7520,-0.014,-0.269,-0.323,0.12,-4.42,-3.8280101197957994,0.96,0.41,0.63
2022-01-30 16:30:16.7620,-0.017,-0.297,-0.354,0.27,-4.16,-3.49,0.87,0.48,0.48
2022-01-30 16:30:16.7710,-0.007,-0.333,-0.394,0.2,-3.9,-3.05,0.87,0.48,0.48
2022-01-30 16:30:16.7820,0.021,-0.395,-0.425,0.2,-3.9,-3.05,0.76,0.46,0.28
2022-01-30 16:30:16.7910,0.058,-0.485,-0.448,-0.01,-3.43,-2.65,0.65,0.43,0.26
2022-01-30 16:30:16.8020,0.088,-0.574,-0.492,-0.67,-1.79,-1.95,0.46,0.38,0.28
2022-01-30 16:30:16.8120,0.111,-0.664,-0.541,-0.67,-1.79,-1.95,0.46,0.38,0.28
2022-01-30 16:30:16.8220,0.119,-0.755,-0.622,-0.92,-0.96,-1.45,-0.03,0.03,0.33
2022-01-30 16:30:16.8310,0.122,-0.798,-0.737,-1.04,-0.04,-0.76,-0.26,-0.3,0.24
2022-01-30 16:30:16.8410,0.114,-0.818,-0.815,-1.09,0.74,1.23,-0.4,-0.56,0.09
2022-01-30 16:30:16.8520,0.108,-0.84,-0.844,-1.09,0.74,1.23,-0.47,-0.67,-0.09
2022-01-30 16:30:16.8620,0.109,-0.849,-0.845,-1.08,1.15,1.62,-0.47,-0.62,-0.25
2022-01-30 16:30:16.8720,0.118,-0.845,-0.815,-1.08,1.15,1.62,-0.47,-0.62,-0.25
2022-01-30 16:30:16.8820,0.141,-0.844,-0.754,-1.17,1.16,1.37,-0.61,-0.08,-0.35
2022-01-30 16:30:16.8920,0.171,-0.841,-0.704,-1.36,1.17,0.8,-0.88,0.22,-0.28
2022-01-30 16:30:16.9020,0.199,-0.835,-0.681,-1.64,1.2,0.18,-1.27,0.47,-0.19
2022-01-30 16:30:16.9120,0.22,-0.829,-0.666,-1.88,1.2,-0.16,-1.72,0.65,-0.09
2022-01-30 16:30:16.9220,0.223,-0.83,-0.676,-2.1,1.35,-0.52,-2.11,0.71,0.0
2022-01-30 16:30:16.9330,0.21,-0.812,-0.734,-2.1,1.35,-0.52,-2.37,0.62,0.06
2022-01-30 16:30:16.9420,0.172,-0.758,-0.817,-1.62,1.12,0.41,-2.41,0.37,0.1
2022-01-30 16:30:16.9530,0.113,-0.688,-0.908,-1.62,1.12,0.41,-2.41,0.37,0.1
2022-01-30 16:30:16.9620,0.056,-0.61,-0.966,-0.49,0.06,1.73,-1.8,-0.22,0.1
2022-01-30 16:30:16.9730,-0.004,-0.527,-0.953,-0.49,0.06,1.73,-1.22,-0.36,0.08
2022-01-30 16:30:16.9820,-0.055,-0.431,-0.903,0.08,-0.59,1.64,-0.62,-0.34,0.06
2022-01-30 16:30:16.9920,-0.082,-0.36,-0.828,0.58,-1.42,1.14,-0.62,-0.34,0.06
2022-01-30 16:30:17.0020,-0.08,-0.328,-0.727,0.89,-2.17,0.44,0.32,0.23,0.12
2022-01-30 16:30:17.0120,-0.058,-0.325,-0.633,0.92,-2.56,-0.51,0.59,0.65,0.21
2022-01-30 16:30:17.0220,-0.02,-0.334,-0.568,0.45,-2.64,-2.14,0.74,1.03,0.3
2022-01-30 16:30:17.0330,0.02,-0.349,-0.523,0.45,-2.64,-2.14,0.83,1.35,0.34
2022-01-30 16:30:17.0430,0.042,-0.381,-0.491,0.11,-2.57,-2.58,0.87,1.57,0.4
2022-01-30 16:30:17.0520,0.054,-0.425,-0.479,-0.08,-2.37,-2.87,0.93,1.69,0.46
2022-01-30 16:30:17.0620,0.058,-0.477,-0.478,-0.11,-2.03,-2.99,0.93,1.69,0.46
2022-01-30 16:30:17.0720,0.053,-0.525,-0.492,-0.07,-1.6,-2.95,1.19,1.6,0.53
2022-01-30 16:30:17.0830,0.051,-0.567,-0.522,0.06,-1.19,-2.79,1.3,1.39,0.51
2022-01-30 16:30:17.0930,0.056,-0.631,-0.544,0.18,-0.88,-2.43,1.36,1.11,0.45
2022-01-30 16:30:17.1030,0.065,-0.708,-0.584,0.19,0.24,-1.7,1.31,0.71,0.31
2022-01-30 16:30:17.1130,0.08,-0.758,-0.665,0.19,0.24,-1.7,1.31,0.18,0.1
2022-01-30 16:30:17.1230,0.098,-0.807,-0.747,0.1,0.72,-0.9,0.85,-0.33,-0.1
2022-01-30 16:30:17.1330,0.099,-0.888,-0.769,-0.16,1.76,0.48,0.6,-0.58,-0.25
2022-01-30 16:30:17.1430,0.093,-0.942,-0.747,-0.16,1.76,0.48,0.4,-0.56,-0.32
2022-01-30 16:30:17.1530,0.073,-0.948,-0.757,-0.13,2.35,0.35,0.4,-0.56,-0.32
2022-01-30 16:30:17.1630,0.038,-0.926,-0.807,-0.01,2.5,0.33,-0.08,-0.35,-0.29
2022-01-30 16:30:17.1720,0.009,-0.921,-0.826,0.62,2.17,1.09,-0.39,-0.11,-0.19
2022-01-30 16:30:17.1830,-0.004,-0.963,-0.815,0.81,2.52,0.96,-0.76,0.15,-0.07
2022-01-30 16:30:17.1930,0.012,-1.016,-0.842,0.72,3.1,1.06,-1.17,0.32,0.04
2022-01-30 16:30:17.2030,0.036,-1.07,-0.892,0.72,3.1,1.06,-1.6,0.42,0.09
2022-01-30 16:30:17.2130,0.061,-1.098,-0.942,0.51,3.72,1.46,-1.6,0.42,0.09
2022-01-30 16:30:17.2230,0.071,-1.086,-1.008,0.15,4.31,2.32,-2.34,0.36,0.07
2022-01-30 16:30:17.2340,0.044,-1.062,-1.074,0.15,4.31,2.32,-2.55,0.25,0.16
2022-01-30 16:30:17.2430,-0.017,-1.013,-1.154,0.34,4.27,2.82,-2.62,0.04,0.35
2022-01-30 16:30:17.2530,-0.095,-0.931,-1.247,1.59,3.53,4.14,-2.49,-0.24,0.58
2022-01-30 16:30:17.2630,-0.187,-0.833,-1.313,1.59,3.53,4.14,-2.12,-0.45,0.75
2022-01-30 16:30:17.2730,-0.269,-0.731,-1.322,3.2,1.95,4.86,-1.56,-0.55,0.83
2022-01-30 16:30:17.2830,-0.309,-0.647,-1.295,3.63,1.18,4.58,-0.93,-0.58,0.79
2022-01-30 16:30:17.2940,-0.289,-0.601,-1.241,3.63,1.18,4.58,-0.36,-0.6,0.68
2022-01-30 16:30:17.3030,-0.225,-0.589,-1.156,2.85,0.55,3.28,0.03,-0.66,0.57
2022-01-30 16:30:17.3140,-0.156,-0.584,-1.058,2.85,0.55,3.28,0.22,-0.73,0.47
2022-01-30 16:30:17.3230,-0.107,-0.564,-0.944,2.07,0.51,2.34,0.27,-0.75,0.38
2022-01-30 16:30:17.3340,-0.077,-0.536,-0.829,1.45,0.34,1.27,0.24,-0.7,0.31
2022-01-30 16:30:17.3440,-0.068,-0.512,-0.735,1.03,0.04,0.13,0.17,-0.59,0.26
2022-01-30 16:30:17.3530,-0.077,-0.496,-0.669,0.82,-0.22,-0.85,0.13,-0.45,0.26
2022-01-30 16:30:17.3630,-0.098,-0.487,-0.616,0.8,-0.42,-1.55,0.14,-0.28,0.27
2022-01-30 16:30:17.3740,-0.117,-0.471,-0.584,0.93,-0.53,-2.09,0.21,-0.15,0.25
2022-01-30 16:30:17.3840,-0.133,-0.45,-0.576,1.1,-0.66,-2.46,0.21,-0.15,0.25
2022-01-30 16:30:17.3940,-0.14,-0.442,-0.574,1.24,-0.89,-2.57,0.51,-0.08,0.11
2022-01-30 16:30:17.4040,-0.139,-0.451,-0.573,1.32,-1.04,-2.57,0.51,-0.08,0.11
2022-01-30 16:30:17.4140,-0.131,-0.466,-0.567,1.24,-0.93,-2.57,0.89,-0.19,-0.08
2022-01-30 16:30:17.4240,-0.116,-0.481,-0.557,1.24,-0.93,-2.57,0.89,-0.19,-0.08
2022-01-30 16:30:17.4340,-0.1,-0.491,-0.549,1.09,-0.87,-2.62,1.14,-0.35,-0.25
2022-01-30 16:30:17.4440,-0.078,-0.5,-0.539,0.92,-0.84,-2.64,1.18,-0.44,-0.32
2022-01-30 16:30:17.4530,-0.044,-0.519,-0.542,0.72,-0.84,-2.67,1.2,-0.58,-0.35
2022-01-30 16:30:17.4640,-0.004,-0.567,-0.551,0.38,-0.79,-2.62,1.21,-0.72,-0.3
2022-01-30 16:30:17.4740,0.043,-0.631,-0.562,-0.02,-0.48,-2.46,1.21,-0.88,-0.18
2022-01-30 16:30:17.4840,0.077,-0.698,-0.583,-0.51,0.02,-2.29,1.21,-0.88,-0.0407990962266922
2022-01-30 16:30:17.4940,0.095,-0.748,-0.634,-0.94,0.6,-2.05,1.15,-1.09,-0.04
2022-01-30 16:30:17.5040,0.091,-0.783,-0.669,-1.25,1.05,-1.54,0.91,-1.69,0.16
2022-01-30 16:30:17.5140,0.069,-0.781,-0.68,-1.37,1.35,-1.04,0.74,-1.98,0.15
2022-01-30 16:30:17.5240,0.036,-0.74,-0.694,-1.33,1.39,-0.84,0.48,-2.23,0.05
2022-01-30 16:30:17.5340,-0.011,-0.68,-0.711,-0.92,0.41,-0.45,0.12,-2.39,-0.15
2022-01-30 16:30:17.5440,-0.055,-0.613,-0.723,-0.92,0.41,-0.45,-0.37,-2.43,-0.43
2022-01-30 16:30:17.5540,-0.093,-0.556,-0.736,-0.64,-0.24,-0.28,-0.37,-2.43,-0.43
2022-01-30 16:30:17.5640,-0.123,-0.52,-0.752,-0.20263745114207268,-1.15,-0.05,-1.5,-2.01,-1.0
2022-01-30 16:30:17.5750,-0.153,-0.476,-0.786,-0.02,-1.45,0.17,-1.92,-1.6,-1.22
2022-01-30 16:30:17.5840,-0.186,-0.419,-0.828,-0.02,-1.45,0.17,-2.12,-1.11,-1.36
2022-01-30 16:30:17.5940,-0.209,-0.359,-0.885,0.51,-2.3,0.89,-2.04,-0.6,-1.41
2022-01-30 16:30:17.6040,-0.231,-0.316,-0.917,0.51,-2.3,0.89,-1.71,-0.08,-1.31
2022-01-30 16:30:17.6150,-0.253,-0.297,-0.911,0.77,-2.65,1.2,-1.71,-0.08,-1.31
2022-01-30 16:30:17.6240,-0.275,-0.286,-0.894,1.05,-2.77,1.1,-0.6,0.76,-0.75
2022-01-30 16:30:17.6350,-0.296,-0.275,-0.86,1.67,-2.87,0.56,0.01,0.97,-0.39
2022-01-30 16:30:17.6450,-0.297,-0.264,-0.806,1.67,-2.87,0.56,0.56,1.01,-0.09
2022-01-30 16:30:17.6550,-0.275,-0.26,-0.767,1.85,-2.98,0.05,0.56,1.01,-0.09
2022-01-30 16:30:17.6650,-0.244,-0.267,-0.741,1.76,-3.09,-0.38,1.29,0.5,0.13
2022-01-30 16:30:17.6750,-0.2,-0.284,-0.713,1.53,-3.13,-0.58,1.4,0.05,0.03
2022-01-30 16:30:17.6850,-0.148,-0.316,-0.693,1.17,-3.08,-0.8,1.36,-0.43,-0.18
2022-01-30 16:30:17.6950,-0.093,-0.37,-0.662,0.68,-2.92,-0.92,1.2,-0.84,-0.44
2022-01-30 16:30:17.7040,-0.042,-0.438,-0.608,0.11,-2.56,-1.1,1.2,-0.84,-0.44
2022-01-30 16:30:17.7150,-0.001,-0.508,-0.556,-0.91,-1.4,-1.97,0.82,-1.18,-0.79
2022-01-30 16:30:17.7250,0.044,-0.577,-0.53,-0.91,-1.4,-1.97,0.66,-1.2,-0.79
2022-01-30 16:30:17.7350,0.096,-0.658,-0.548,-1.36,-0.79,-2.25,0.51,-1.26,-0.64
2022-01-30 16:30:17.7450,0.161,-0.767,-0.599,-1.9,-0.11,-2.13,0.51,-1.26,-0.64
2022-01-30 16:30:17.7550,0.232,-0.891,-0.651,-2.55,0.85,-1.62,0.34,-1.58,-0.06
2022-01-30 16:30:17.7650,0.29,-1.004,-0.703,-3.34,2.02,-1.07,0.24,-1.78,0.17
2022-01-30 16:30:17.7750,0.326,-1.083,-0.73,-4.06,3.16,-0.5,0.24,-1.78,0.17
2022-01-30 16:30:17.7850,0.332,-1.121,-0.746,-4.61,4.02,-0.14,-0.23,-2.1,0.29
2022-01-30 16:30:17.7950,0.296,-1.117,-0.753,-4.92,4.48,0.06,-0.69,-2.14,0.23
2022-01-30 16:30:17.8060,0.237,-1.079,-0.77,-4.46,4.32,0.28,-1.34,-2.11,0.14
2022-01-30 16:30:17.8150,0.16,-1.036,-0.848,-3.92,3.99,0.8,-2.15,-2.07,0.02
2022-01-30 16:30:17.8250,0.056,-1.009,-0.979,-3.12,3.85,1.97,-2.89,-1.9,-0.12
2022-01-30 16:30:17.8360,-0.062,-0.965,-1.057,-3.12,3.85,1.97,-3.29,-1.48,-0.35
2022-01-30 16:30:17.8450,-0.154,-0.851,-1.135,-2.1,3.73,2.77,-3.25,-0.99,-0.63
2022-01-30 16:30:17.8550,-0.219,-0.706,-1.239,-1.2,3.03,3.25,-2.83,-0.45,-0.83
2022-01-30 16:30:17.8660,-0.261,-0.598,-1.216,-0.07,0.85,4.17,-2.23,0.19,-0.82
2022-01-30 16:30:17.8760,-0.279,-0.55,-1.162,0.23493849366903305,0.41624457120895386,3.45,-1.67,0.71,-0.6
2022-01-30 16:30:17.8850,-0.276,-0.521,-1.148,0.23,0.41,3.45,-1.3,1.04,-0.28
2022-01-30 16:30:17.8950,-0.261,-0.494,-1.105,0.32,0.24,3.16,-1.1,1.29,-0.01
2022-01-30 16:30:17.9050,-0.247,-0.486,-1.052,0.3,0.06,2.76,-1.02,1.43,0.14
2022-01-30 16:30:17.9160,-0.249,-0.483,-1.036,0.24,0.03,2.1,-0.96,1.47,0.12
2022-01-30 16:30:17.9260,-0.264,-0.489,-1.014,0.57,0.21,1.56,-0.77,1.46,0.0
2022-01-30 16:30:17.9360,-0.281,-0.479,-0.995,0.57,0.21,1.56,-0.77,1.46,0.0
2022-01-30 16:30:17.9450,-0.292,-0.458,-0.992,0.87,0.24,1.25,0.12,1.03,-0.3
2022-01-30 16:30:17.9560,-0.293,-0.438,-0.956,1.11,0.07,1.19,0.71,0.7,-0.41
2022-01-30 16:30:17.9660,-0.283,-0.425,-0.913,1.26,-0.15,0.92,1.3,0.32,-0.47
2022-01-30 16:30:17.9760,-0.268,-0.409,-0.881,1.26,-0.35,0.49,1.3,0.32,-0.47
2022-01-30 16:30:17.9860,-0.255,-0.396,-0.836,1.04,-0.92,-0.08,2.23,-0.43,-0.47
2022-01-30 16:30:17.9960,-0.245,-0.388,-0.784,1.04,-0.92,-0.08,2.54,-0.65,-0.43
2022-01-30 16:30:18.0060,-0.243,-0.386,-0.744,0.86,-1.44,-0.77,2.78,-0.79,-0.41
2022-01-30 16:30:18.0140,-0.241,-0.39,-0.709,0.86,-1.44,-0.77,2.78,-0.79,-0.41
2022-01-30 16:30:18.0260,-0.235,-0.405,-0.674,0.72,-1.78,-1.12,3.04,-0.89,-0.44
2022-01-30 16:30:18.0360,-0.205,-0.444,-0.634,0.44,-1.71,-1.31,3.05,-0.89,-0.5
2022-01-30 16:30:18.0460,-0.165,-0.506,-0.599,0.44,-1.71,-1.31,2.91,-0.98,-0.57
2022-01-30 16:30:18.0560,-0.131,-0.556,-0.624,-0.38,-1.04,-1.27,2.52,-1.34,-0.71
2022-01-30 16:30:18.0670,-0.115,-0.586,-0.727,-0.38,-1.04,-1.27,2.52,-1.34,-0.71
2022-01-30 16:30:18.0760,-0.107,-0.647,-0.778,-0.63,-0.94,-0.18,1.12,-2.47,-1.06
2022-01-30 16:30:18.0860,-0.111,-0.725,-0.76,-0.8,-0.58,0.71,0.38,-2.78,-1.23
2022-01-30 16:30:18.0960,-0.146,-0.722,-0.76,-0.9,0.12,0.74,-0.28,-2.9,-1.42
2022-01-30 16:30:18.1060,-0.204,-0.636,-0.791,-0.75,0.31,0.73,-0.81,-2.81,-1.61
2022-01-30 16:30:18.1170,-0.252,-0.558,-0.798,0.14,-1.24,1.21,-1.19,-2.45,-1.76
2022-01-30 16:30:18.1270,-0.295,-0.501,-0.778,0.14,-1.24,1.21,-1.45,-1.86,-1.84
2022-01-30 16:30:18.1360,-0.341,-0.45,-0.757,0.51,-1.79,1.01,-1.64,-1.06,-1.87
2022-01-30 16:30:18.1460,-0.377,-0.417,-0.721,1.4,-2.56,0.34,-1.8,-0.15,-1.82
2022-01-30 16:30:18.1570,-0.405,-0.407,-0.695,1.81,-2.63,-0.06,-1.89,0.77,-1.69
2022-01-30 16:30:18.1670,-0.416,-0.404,-0.665,2.13,-2.55,-0.46,-1.92,1.63,-1.49
2022-01-30 16:30:18.1760,-0.412,-0.392,-0.634,2.13,-2.55,-0.46,-1.92,1.63,-1.49
2022-01-30 16:30:18.1860,-0.399,-0.389,-0.645,2.33,-2.54,-0.95,-1.82,2.58,-1.03
2022-01-30 16:30:18.1960,-0.384,-0.415,-0.691,2.47,-2.5,-1.14,-1.82,2.58,-1.03
2022-01-30 16:30:18.2060,-0.367,-0.454,-0.717,2.58,-2.19,-0.87,-1.73,2.58,-0.82
2022-01-30 16:30:18.2170,-0.356,-0.48,-0.726,2.65,-1.69,-0.68,-1.18,2.0,-0.54
2022-01-30 16:30:18.2270,-0.335,-0.486,-0.751,2.76,-1.27,-0.68,-0.73,1.41,-0.47
2022-01-30 16:30:18.2370,-0.3,-0.492,-0.795,2.78,-1.08,-0.58,-0.23,0.69,-0.42
2022-01-30 16:30:18.2470,-0.262,-0.51,-0.802,2.31,-0.82,-0.04,0.28,0.0,-0.34
2022-01-30 16:30:18.2570,-0.221,-0.534,-0.781,2.31,-0.82,-0.04,0.28,0.0,-0.34
2022-01-30 16:30:18.2670,-0.178,-0.535,-0.765,1.49,-0.59,-0.33,1.13,-1.09,-0.08
2022-01-30 16:30:18.2770,-0.125,-0.541,-0.73,1.49,-0.59,-0.33,1.46,-1.37,0.11
2022-01-30 16:30:18.2860,-0.064,-0.593,-0.681,0.91,-0.68,-0.53,1.7,-1.47,0.36
2022-01-30 16:30:18.2970,0.011,-0.692,-0.651,0.22,-0.4,-0.92,1.84,-1.45,0.67
2022-01-30 16:30:18.3070,0.088,-0.815,-0.633,-0.62,0.32,-1.15,1.84,-1.45,0.67
2022-01-30 16:30:18.3170,0.162,-0.908,-0.658,-1.54,1.4,-1.23,1.9,-1.42,0.99
2022-01-30 16:30:18.3270,0.232,-0.977,-0.738,-2.43,2.28,-1.01,1.58,-1.91,1.18
2022-01-30 16:30:18.3370,0.273,-1.048,-0.793,-3.34,2.85,-0.17,1.28,-2.24,1.02
2022-01-30 16:30:18.3470,0.284,-1.086,-0.802,-4.04,3.47,0.62,0.97,-2.38,0.71
2022-01-30 16:30:18.3570,0.265,-1.105,-0.789,-4.44,3.87,0.92,0.7,-2.24,0.35
2022-01-30 16:30:18.3670,0.236,-1.099,-0.772,-4.43,4.0,0.86,0.45,-1.85,-0.03
2022-01-30 16:30:18.3770,0.22,-1.083,-0.764,-4.43,4.0,0.86,0.19,-1.33,-0.37
2022-01-30 16:30:18.3870,0.227,-1.083,-0.78,-4.35,3.8,0.81,-0.13,-0.84,-0.64
2022-01-30 16:30:18.3970,0.247,-1.094,-0.818,-4.42,3.74,0.93,-0.48,-0.37,-0.84
2022-01-30 16:30:18.4070,0.254,-1.084,-0.825,-4.62,3.83,1.29,-0.74,0.16,-0.97
2022-01-30 16:30:18.4180,0.242,-1.026,-0.805,-4.7,3.85,1.46,-0.92,0.7,-1.07
2022-01-30 16:30:18.4270,0.22,-0.949,-0.8,-4.55,3.41,1.21,-0.92,0.7,-1.07
2022-01-30 16:30:18.4370,0.198,-0.89,-0.78,-3.85,2.12,0.82,-1.03,1.63,-1.12
2022-01-30 16:30:18.4470,0.175,-0.831,-0.763,-3.85,2.12,0.82,-0.99,1.9,-1.1
2022-01-30 16:30:18.4570,0.148,-0.763,-0.761,-2.99,1.01,0.38,-0.91,1.97,-1.07
2022-01-30 16:30:18.4680,0.128,-0.71,-0.759,-2.99,1.01,0.38,-0.79,1.82,-1.05
2022-01-30 16:30:18.4770,0.116,-0.665,-0.775,-2.22,0.09,0.29,-0.65,1.49,-1.04
2022-01-30 16:30:18.4880,0.106,-0.633,-0.793,-2.22,0.09,0.29,-0.46,1.08,-1.03
2022-01-30 16:30:18.4980,0.103,-0.619,-0.783,-1.93,-0.23,0.45,-0.23,0.74,-1.02
2022-01-30 16:30:18.5080,0.099,-0.606,-0.765,-1.75,-0.37,0.38,0.03,0.51,-0.99
2022-01-30 16:30:18.5170,0.088,-0.581,-0.736,-1.6,-0.47,0.18,0.33,0.45,-0.94
2022-01-30 16:30:18.5280,0.074,-0.563,-0.674,-1.4,-0.7,-0.05,0.66,0.61,-0.85
2022-01-30 16:30:18.5370,0.061,-0.553,-0.604,-1.17,-0.94,-0.57,0.66,0.61,-0.85
2022-01-30 16:30:18.5480,0.05,-0.544,-0.559,-0.72,-1.25,-1.69,1.21,1.18,-0.58
2022-01-30 16:30:18.5580,0.041,-0.528,-0.547,-0.72,-1.25,-1.69,1.21,1.18,-0.58
2022-01-30 16:30:18.5670,0.028,-0.517,-0.556,-0.5,-1.48,-1.81,1.4,1.35,-0.45
2022-01-30 16:30:18.5780,0.02,-0.527,-0.576,-0.26,-1.72,-1.66,1.6,1.2,-0.22
2022-01-30 16:30:18.5880,0.013,-0.542,-0.615,-0.05,-1.78,-1.39,1.65,0.89,-0.12
2022-01-30 16:30:18.5980,0.017,-0.568,-0.653,0.12,-1.73,-0.93,1.68,0.54,-0.03
2022-01-30 16:30:18.6080,0.031,-0.613,-0.675,0.1,-1.34,-0.05,1.64,0.21,0.06
2022-01-30 16:30:18.6180,0.038,-0.651,-0.701,0.1,-1.34,-0.05,1.5,-0.06,0.14
2022-01-30 16:30:18.6280,0.023,-0.667,-0.73,0.01,-1.03,0.29,1.5,-0.06,0.14
2022-01-30 16:30:18.6380,-0.012,-0.685,-0.725,0.07,-0.93,0.71,1.12,-0.11,0.26
2022-01-30 16:30:18.6480,-0.045,-0.691,-0.686,0.36,-0.84,0.87,0.96,0.17,0.26
2022-01-30 16:30:18.6590,-0.06,-0.674,-0.647,0.88,-0.98,0.28,0.76,0.47,0.19
2022-01-30 16:30:18.6680,-0.058,-0.651,-0.63,0.9082272496819497,-1.27,0.13,0.48,0.71,0.13
2022-01-30 16:30:18.6790,-0.05,-0.654,-0.602,0.87,-1.35,-0.04,0.11,0.94,0.12
2022-01-30 16:30:18.6880,-0.026,-0.68,-0.542,0.87,-1.35,-0.04,-0.33,1.21,0.15
2022-01-30 16:30:18.6980,0.016,-0.712,-0.489,0.72,-1.13,-0.56,-0.33,1.21,0.15
2022-01-30 16:30:18.7090,0.057,-0.746,-0.472,0.41,-0.82,-1.15,-1.4,1.65,0.22
2022-01-30 16:30:18.7180,0.077,-0.759,-0.487,0.06,-0.42,-1.48,-1.96,1.77,0.25
2022-01-30 16:30:18.7280,0.065,-0.746,-0.515,-0.12,-0.14,-1.49,-2.43,1.83,0.31
2022-01-30 16:30:18.7380,0.018,-0.71,-0.568,0.0,-0.08,-1.38,-2.7,1.79,0.39
2022-01-30 16:30:18.7480,-0.034,-0.666,-0.669,1.12,-0.49,-0.42,-2.71,1.57,0.48
2022-01-30 16:30:18.7580,-0.063,-0.633,-0.772,1.12,-0.49,-0.42,-2.41,1.21,0.59
2022-01-30 16:30:18.7680,-0.077,-0.624,-0.828,1.53,-0.67,0.48,-1.86,0.83,0.73
2022-01-30 16:30:18.7790,-0.077,-0.639,-0.835,1.78,-0.43,1.05,-1.21,0.53,0.86
2022-01-30 16:30:18.7890,-0.066,-0.644,-0.829,1.78,-0.43,1.05,-0.68,0.37,0.97
2022-01-30 16:30:18.7990,-0.066,-0.653,-0.801,1.67,-0.25,0.94,-0.33,0.42,1.08
2022-01-30 16:30:18.8090,-0.1,-0.676,-0.742,1.58,-0.17,0.68,-0.08,0.73,1.21
2022-01-30 16:30:18.8180,-0.136,-0.671,-0.665,2.16,0.1,-0.6,-0.08,0.73,1.21
2022-01-30 16:30:18.8290,-0.157,-0.668,-0.639,2.16,0.1,-0.6,0.13,1.17,1.3
2022-01-30 16:30:18.8380,-0.175,-0.691,-0.652,2.4,-0.01,-0.99,0.47,1.67,1.42
2022-01-30 16:30:18.8490,-0.199,-0.714,-0.671,2.58,0.14,-0.88,0.65,1.66,1.4
2022-01-30 16:30:18.8590,-0.218,-0.735,-0.682,2.83,0.34,-0.65,0.87,1.57,1.28
2022-01-30 16:30:18.8690,-0.231,-0.751,-0.685,3.07,0.47,-0.45,1.12,1.38,1.07
2022-01-30 16:30:18.8780,-0.233,-0.728,-0.699,3.22,0.61,-0.35,1.12,1.38,1.07
2022-01-30 16:30:18.8890,-0.222,-0.704,-0.693,3.31,0.38,-0.14,1.48,0.86,0.55
2022-01-30 16:30:18.8990,-0.193,-0.707,-0.634,3.03,-0.14,-0.34,1.58,0.76,0.43
2022-01-30 16:30:18.9090,-0.157,-0.72,-0.547,3.03,-0.14,-0.34,1.61,0.78,0.43
2022-01-30 16:30:18.9190,-0.117,-0.734,-0.474,2.7,-0.13,-1.05,1.56,0.87,0.5
2022-01-30 16:30:18.9290,-0.068,-0.774,-0.426,2.36,-0.11,-1.7,1.4,0.97,0.62
2022-01-30 16:30:18.9390,-0.04,-0.86,-0.41,1.88,0.07,-2.11,1.18,0.97,0.77
2022-01-30 16:30:18.9490,-0.031,-0.928,-0.44,1.57,0.74,-2.24,0.95,0.8,0.87
2022-01-30 16:30:18.9590,-0.04,-0.931,-0.497,1.43,1.45,-1.98,0.95,0.8,0.87
2022-01-30 16:30:18.9690,-0.049,-0.922,-0.54,1.47,1.55,-1.35,0.59,0.04,0.79
2022-01-30 16:30:18.9790,-0.039,-0.908,-0.563,1.54,1.39,-0.82,0.51,-0.39,0.61
2022-01-30 16:30:18.9890,-0.023,-0.869,-0.573,1.2,0.89,-0.34,0.43,-0.79,0.39
2022-01-30 16:30:18.9990,-0.004,-0.82,-0.558,1.2,0.89,-0.34,0.28,-1.08,0.18
2022-01-30 16:30:19.0090,0.016,-0.768,-0.536,0.96,0.39,-0.38,-0.01,-1.3,-0.0
2022-01-30 16:30:19.0200,0.022,-0.709,-0.558,0.4968303126096726,-0.7,-0.54,-0.48,-1.47,-0.13
2022-01-30 16:30:19.0290,0.017,-0.669,-0.588,0.49,-0.7,-0.54,-0.48,-1.47,-0.13
2022-01-30 16:30:19.0390,0.004,-0.665,-0.601,0.45,-1.14,-0.25,-1.04,-1.53,-0.14
2022-01-30 16:30:19.0500,-0.023,-0.655,-0.638,0.46,-1.19,-0.21,-2.06,-1.48,0.14
2022-01-30 16:30:19.0590,-0.053,-0.583,-0.71,0.61,-1.09,-0.07,-2.4,-1.55,0.28
2022-01-30 16:30:19.0700,-0.114,-0.534,-0.794,1.17,-1.99,1.02,-2.56,-1.78,0.39
2022-01-30 16:30:19.0800,-0.17,-0.477,-0.906,1.17,-1.99,1.02,-2.49,-2.16,0.42
2022-01-30 16:30:19.0900,-0.196,-0.414,-0.969,1.65,-2.3,1.89,-2.28,-2.51,0.39
2022-01-30 16:30:19.0990,-0.205,-0.386,-0.966,1.78,-2.8,2.52,-2.03,-2.62,0.37
2022-01-30 16:30:19.1100,-0.198,-0.367,-0.931,1.46,-3.03,2.05,-1.87,-2.4,0.37
2022-01-30 16:30:19.1200,-0.179,-0.352,-0.878,1.46,-3.03,2.05,-1.87,-1.83,0.37
2022-01-30 16:30:19.1290,-0.157,-0.347,-0.814,1.1,-3.04,1.46,-2.0,-0.93,0.38
2022-01-30 16:30:19.1400,-0.143,-0.374,-0.747,0.48,-2.67,-0.06,-2.16,0.11,0.44
2022-01-30 16:30:19.1500,-0.124,-0.397,-0.679,0.48,-2.67,-0.06,-2.26,1.21,0.47
2022-01-30 16:30:19.1600,-0.089,-0.42,-0.624,0.04,-1.89,-1.63,-2.26,1.21,0.47
2022-01-30 16:30:19.1700,-0.059,-0.49,-0.642,0.04,-1.89,-1.63,-2.080193519592285,2.5,0.62
2022-01-30 16:30:19.1800,-0.031,-0.513,-0.666,-0.13,-1.04,-1.72,-1.73,2.43,0.66
2022-01-30 16:30:19.1900,-0.011,-0.506,-0.718,-0.25,-0.5,-1.64,-1.24,1.95,0.64
2022-01-30 16:30:19.2000,0.0,-0.509,-0.74,-0.32,-0.3,-1.03,-0.73,1.24,0.61
2022-01-30 16:30:19.2100,0.006,-0.514,-0.725,-0.31,-0.17,-1.13,-0.28,0.53,0.61
2022-01-30 16:30:19.2200,0.01,-0.512,-0.668,-0.31,-0.17,-1.13,-0.28,0.53,0.61
2022-01-30 16:30:19.2300,0.032,-0.506,-0.588,-0.53,-0.21,-2.38,0.08,0.01,0.67
2022-01-30 16:30:19.2410,0.061,-0.502,-0.544,-0.87,-0.29,-2.92,0.34,-0.29,0.81
2022-01-30 16:30:19.2500,0.096,-0.519,-0.547,-1.31,-0.22,-2.96,0.49,-0.6,1.29
2022-01-30 16:30:19.2590,0.105,-0.548,-0.59,-1.6046478831768036,0.04107493579387665,-2.6220996594429016,0.4,-0.76,1.52
2022-01-30 16:30:19.2690,0.073,-0.571,-0.684,-1.54,0.25,-1.79,0.22,-1.0,1.64
2022-01-30 16:30:19.2790,0.008,-0.585,-0.805,-1.54,0.25,-1.79,-0.05,-1.31,1.66
2022-01-30 16:30:19.2890,-0.097,-0.56,-0.975,-1.15,0.42,-0.63,-0.49,-1.78,1.59
2022-01-30 16:30:19.2990,-0.228,-0.489,-1.206,-0.42,0.34,0.86,-0.97,-2.12,1.46
2022-01-30 16:30:19.3100,-0.349,-0.417,-1.312,1.6,-0.85,4.49,-1.27,-2.09,1.23
2022-01-30 16:30:19.3190,-0.439,-0.335,-1.402,1.6,-0.85,4.49,-1.27,-1.86,0.88
2022-01-30 16:30:19.3300,-0.467,-0.267,-1.489,2.58,-2.11,6.21,-1.38,-1.34,0.47
2022-01-30 16:30:19.3400,-0.461,-0.231,-1.453,2.43,-2.4,6.1,-1.52,-0.46,0.14
2022-01-30 16:30:19.3490,-0.434,-0.228,-1.351,2.43,-2.4,6.1,-1.82,0.59,-0.03
2022-01-30 16:30:19.3610,-0.371,-0.263,-1.297,1.7,-1.96,4.27,-2.2,1.42,-0.09
2022-01-30 16:30:19.3690,-0.318,-0.303,-1.315,1.24,-1.38,4.22,-2.5,1.85,-0.11
2022-01-30 16:30:19.3800,-0.29,-0.336,-1.338,1.24,-1.38,4.22,-2.62,1.86,-0.09
2022-01-30 16:30:19.3910,-0.293,-0.343,-1.38,1.07,-0.81,4.29,-2.52,1.55,-0.03
2022-01-30 16:30:19.4010,-0.324,-0.345,-1.377,1.17,-0.44,4.56,-2.24,1.07,0.14
2022-01-30 16:30:19.4100,-0.37,-0.361,-1.335,1.57,-0.23,4.56,-2.24,1.07,0.14
2022-01-30 16:30:19.4210,-0.417,-0.382,-1.264,2.59,0.48,3.4,-1.39,0.04,0.75
2022-01-30 16:30:19.4310,-0.469,-0.398,-1.203,2.59,0.48,3.4,-1.39,-0.45,1.05
2022-01-30 16:30:19.4410,-0.524,-0.377,-1.141,3.05,0.83,2.71,-0.19,-0.8,1.24
2022-01-30 16:30:19.4510,-0.558,-0.332,-1.053,3.54,0.83,2.13,-0.19,-0.8,1.24
2022-01-30 16:30:19.4700,-0.566,-0.319,-0.978,3.83,0.16,0.56,0.43,-0.98,1.29
2022-01-30 16:30:19.4720,-0.57,-0.352,-0.92,3.83,0.16,0.56,1.28,-1.06,1.15
2022-01-30 16:30:19.4820,-0.574,-0.37,-0.886,3.59,0.27,0.05,1.54,-1.08,1.02
2022-01-30 16:30:19.4910,-0.58,-0.357,-0.85,3.51,0.4,-0.27,1.73,-1.09,0.87
2022-01-30 16:30:19.5010,-0.578,-0.316,-0.822,3.43,0.21,-0.51,1.89,-1.17,0.69
2022-01-30 16:30:19.5120,-0.553,-0.268,-0.84,3.33,-0.28,-0.77,1.89,-1.17,0.69
2022-01-30 16:30:19.5210,-0.526,-0.248,-0.859,2.99,-0.94,-0.58,2.02,-1.54,0.16
2022-01-30 16:30:19.5320,-0.484,-0.268,-0.905,2.59,-1.39,-0.26,2.0,-1.82,-0.16
2022-01-30 16:30:19.5420,-0.434,-0.298,-0.953,2.07,-1.46,0.2,1.92,-2.06,-0.5
2022-01-30 16:30:19.5520,-0.399,-0.331,-0.984,1.42,-1.32,0.91,1.66,-2.23,-0.74
2022-01-30 16:30:19.5620,-0.375,-0.376,-1.036,0.88,-1.2,1.33,1.23,-2.47,-0.86
2022-01-30 16:30:19.5720,-0.354,-0.367,-1.22,0.46,-0.85,1.83,0.83,-2.77,-0.89
2022-01-30 16:30:19.5820,-0.338,-0.372,-1.327,0.07,-0.92,3.5,0.83,-2.77,-0.89
2022-01-30 16:30:19.5920,-0.308,-0.356,-1.347,-0.28,-1.03,5.05,0.72,-2.62,-0.81
2022-01-30 16:30:19.6020,-0.249,-0.353,-1.325,-0.67,-1.17,5.47,0.94,-2.15,-0.7
2022-01-30 16:30:19.6120,-0.193,-0.405,-1.265,-1.33,-1.43,5.52,1.12,-1.61,-0.51
2022-01-30 16:30:19.6220,-0.165,-0.43,-1.231,-2.02,-1.08,5.07,1.09,-1.15,-0.3
2022-01-30 16:30:19.6320,-0.158,-0.436,-1.17,-2.45,-0.82,4.78,0.84,-0.81,-0.11
2022-01-30 16:30:19.6430,-0.154,-0.481,-1.106,-2.59,-0.84,4.37,0.47,-0.67,0.0
2022-01-30 16:30:19.6520,-0.162,-0.513,-1.071,-2.69,-0.54,3.73,0.02,-0.79,0.03
2022-01-30 16:30:19.6630,-0.187,-0.5,-1.081,-2.71,-0.11,3.35,-0.53,-1.14,-0.01
2022-01-30 16:30:19.6720,-0.224,-0.497,-1.113,-2.59,-0.13,3.35,-1.13,-1.56,-0.06
2022-01-30 16:30:19.6830,-0.274,-0.51,-1.158,-2.36,-0.13,3.66,-1.62,-1.88,-0.12
2022-01-30 16:30:19.6920,-0.334,-0.514,-1.186,-2.03,0.08,4.07,-1.87,-1.93,-0.18
2022-01-30 16:30:19.7020,-0.392,-0.481,-1.149,-1.6,0.31,4.44,-1.84,-1.65,-0.26
2022-01-30 16:30:19.7120,-0.425,-0.448,-1.067,-1.09,0.18,4.24,-1.64,-1.12,-0.33
2022-01-30 16:30:19.7230,-0.436,-0.43,-0.977,-0.78,-0.08,3.48,-1.37,-0.5,-0.39
2022-01-30 16:30:19.7330,-0.42,-0.417,-0.892,-0.64,-0.2,2.56,-1.37,-0.5,-0.39
2022-01-30 16:30:19.7430,-0.397,-0.392,-0.811,-0.7,-0.27,1.66,-0.83,0.54,-0.54
2022-01-30 16:30:19.7530,-0.381,-0.363,-0.718,-0.88,-0.44,0.8,-0.54,0.83,-0.62
2022-01-30 16:30:19.7630,-0.356,-0.36,-0.619,-0.95,-0.73,-0.13,-0.24,0.97,-0.69
2022-01-30 16:30:19.7730,-0.327,-0.37,-0.546,-1.07,-0.85,-1.18,0.1,0.98,-0.77
2022-01-30 16:30:19.7830,-0.305,-0.357,-0.472,-1.25,-0.78,-2.0,0.48,0.92,-0.89
2022-01-30 16:30:19.7930,-0.293,-0.314,-0.395,-1.37,-0.91,-2.71,0.85,0.84,-1.06
2022-01-30 16:30:19.8030,-0.295,-0.252,-0.337,-1.41,-1.37,-3.49,1.11,0.76,-1.26
2022-01-30 16:30:19.8130,-0.299,-0.197,-0.3,-1.3,-2.1,-4.09,1.23,0.72,-1.46
2022-01-30 16:30:19.8230,-0.301,-0.155,-0.269,-1.14,-2.81,-4.47,1.25,0.76,-1.65
2022-01-30 16:30:19.8330,-0.294,-0.138,-0.265,-0.97,-3.42,-4.76,1.19,0.81,-1.84
2022-01-30 16:30:19.8430,-0.272,-0.153,-0.306,-0.85,-3.83,-4.88,1.07,0.83,-2.0
2022-01-30 16:30:19.8530,-0.25,-0.203,-0.366,-0.88,-3.9,-4.54,0.96,0.85,-2.08
2022-01-30 16:30:19.8630,-0.224,-0.29,-0.43,-0.92,-3.65,-3.95,0.9,0.83,-2.08
2022-01-30 16:30:19.8730,-0.2,-0.377,-0.507,-0.99,-2.99,-3.33,0.93,0.83,-2.02
2022-01-30 16:30:19.8830,-0.162,-0.481,-0.543,-1.05,-2.26,-2.54,0.97,0.86,-1.92
2022-01-30 16:30:19.8930,-0.11,-0.594,-0.606,-1.2,-1.43,-2.05,0.91,0.78,-1.82
2022-01-30 16:30:19.9030,-0.053,-0.679,-0.693,-1.52,-0.43,-1.55,0.91,0.78,-1.82
2022-01-30 16:30:19.9130,-0.006,-0.714,-0.733,-1.93,0.4,-0.64,0.57,0.49,-1.66
2022-01-30 16:30:19.9230,0.034,-0.745,-0.706,-2.28,0.78,-0.07,0.35,0.51,-1.55
2022-01-30 16:30:19.9330,0.065,-0.777,-0.692,-2.56,0.98,-0.2,0.09,0.61,-1.44
2022-01-30 16:30:19.9430,0.082,-0.781,-0.681,-2.76,1.31,-0.44,-0.21,0.73,-1.29
2022-01-30 16:30:19.9530,0.087,-0.779,-0.67,-2.83,1.39,-0.54,-0.21,0.73,-1.29
2022-01-30 16:30:19.9630,0.096,-0.785,-0.697,-2.76,1.39,-0.74,-0.88,0.73,-0.88
2022-01-30 16:30:19.9730,0.105,-0.794,-0.747,-2.73,1.46,-0.65,-1.09,0.53,-0.65
2022-01-30 16:30:19.9830,0.095,-0.781,-0.788,-2.76,1.63,-0.25,-1.11,0.27,-0.42
2022-01-30 16:30:19.9940,0.06,-0.738,-0.813,-2.67,1.66,0.12,-0.94,0.03,-0.17
2022-01-30 16:30:20.0040,0.013,-0.694,-0.804,-2.37,1.36,0.35,-0.62,-0.11,0.08
2022-01-30 16:30:20.0140,-0.032,-0.652,-0.751,-1.94,0.97,0.33,-0.62,-0.11,0.08
2022-01-30 16:30:20.0240,-0.053,-0.61,-0.67,-1.51,0.57,-0.1,0.3,-0.1,0.55
2022-01-30 16:30:20.0340,-0.051,-0.575,-0.58,-1.28,0.14,-0.84,0.77,-0.02,0.73
2022-01-30 16:30:20.0440,-0.034,-0.534,-0.499,-1.29,-0.26,-1.66,1.1202811002731323,0.08,0.81
2022-01-30 16:30:20.0530,-0.02,-0.494,-0.42,-1.47,-0.7,-2.43,1.33,0.24,0.78
2022-01-30 16:30:20.0650,-0.014,-0.464,-0.343,-1.66,-1.2,-3.11,1.41,0.47,0.65
2022-01-30 16:30:20.0750,-0.016,-0.454,-0.28,-1.71,-1.86,-4.4,1.4,0.74,0.46
2022-01-30 16:30:20.0860,-0.013,-0.471,-0.249,-1.71,-1.86,-4.4,1.33,0.97,0.23
2022-01-30 16:30:20.0960,0.011,-0.513,-0.266,-1.66,-1.86,-4.74,1.25,1.11,-0.01
2022-01-30 16:30:20.1050,0.037,-0.567,-0.319,-1.76,-1.58,-4.63,1.25,1.11,-0.01
2022-01-30 16:30:20.1160,0.052,-0.63,-0.392,-1.94,-1.15,-4.12,1.19,1.15,-0.23
2022-01-30 16:30:20.1260,0.053,-0.722,-0.488,-2.01,-0.66,-3.41,1.06,1.13,-0.53
2022-01-30 16:30:20.1360,0.044,-0.811,-0.594,-1.74,0.95,-1.39,0.95,1.19,-0.71
2022-01-30 16:30:20.1460,0.032,-0.848,-0.72,-1.74,0.95,-1.39,0.76,1.29,-0.96
2022-01-30 16:30:20.1560,0.007,-0.843,-0.857,-1.48,1.39,-0.18,0.55,1.5,-1.17
2022-01-30 16:30:20.1660,0.003,-0.84,-0.951,-1.07,1.36,1.21,0.44,1.83,-1.22
2022-01-30 16:30:20.1760,0.052,-0.875,-0.989,-0.72,1.24,2.29,0.46,2.2,-1.12
2022-01-30 16:30:20.1860,0.127,-0.926,-1.025,-1.33,1.92,3.12,0.5,2.42,-0.92
2022-01-30 16:30:20.1960,0.184,-0.957,-1.078,-1.33,1.92,3.12,0.49,2.43,-0.67
2022-01-30 16:30:20.2060,0.202,-0.974,-1.079,-1.84,2.41,3.88,0.41,2.38,-0.38
2022-01-30 16:30:20.2160,0.188,-0.979,-1.029,-1.61,2.48,3.47,0.23,2.26,-0.1
2022-01-30 16:30:20.2270,0.165,-0.993,-0.985,-1.61,2.48,3.47,0.23,2.26,-0.1
2022-01-30 16:30:20.2370,0.14,-1.013,-0.961,-1.24,2.57,3.02,-0.41,1.8,0.27
2022-01-30 16:30:20.2460,0.119,-1.01,-0.973,-0.91,2.81,2.68,-0.41,1.8,0.27
2022-01-30 16:30:20.2560,0.104,-1.005,-0.998,-0.40282725781202317,2.919445778131485,2.84,-1.14,1.01,0.27
2022-01-30 16:30:20.2660,0.086,-0.978,-1.008,-0.21,2.85,2.9,-1.4,0.74,0.25
2022-01-30 16:30:20.2770,0.063,-0.897,-1.004,-0.21,2.85,2.9,-1.56,0.62,0.25
2022-01-30 16:30:20.2860,0.035,-0.79,-0.987,0.03,2.28,2.78,-1.65,0.67,0.33
2022-01-30 16:30:20.2970,0.007,-0.689,-0.954,0.32,1.37,2.55,-1.7,0.83,0.51
2022-01-30 16:30:20.3060,-0.017,-0.591,-0.919,0.63,0.48,2.15,-1.7,1.0,0.76
2022-01-30 16:30:20.3160,-0.034,-0.512,-0.886,1.1,-1.08,1.28,-1.71,1.0,0.76
2022-01-30 16:30:20.3260,-0.044,-0.458,-0.845,1.2170596387982369,-1.5623315834999085,0.81,-1.49,1.17,1.41
2022-01-30 16:30:20.3370,-0.058,-0.427,-0.799,1.21,-1.57,0.81,-1.25,1.08,1.75
2022-01-30 16:30:20.3470,-0.084,-0.413,-0.753,1.3,-1.85,0.29,-0.95,0.91,2.05
2022-01-30 16:30:20.3560,-0.121,-0.39,-0.696,1.47,-1.95,-0.2,-0.95,0.91,2.05
2022-01-30 16:30:20.3670,-0.162,-0.365,-0.635,1.73,-2.12,-0.77,-0.25,0.41,2.47
2022-01-30 16:30:20.3770,-0.204,-0.341,-0.577,2.28,-2.6,-1.96,0.04,0.17,2.54
2022-01-30 16:30:20.3870,-0.241,-0.322,-0.532,2.28,-2.6,-1.96,0.22,0.03,2.5
2022-01-30 16:30:20.3960,-0.277,-0.316,-0.483,2.5,-2.84,-2.42,0.31,0.02,2.35
2022-01-30 16:30:20.4070,-0.298,-0.316,-0.429,2.73,-2.95,-2.85,0.36,0.14,2.15
2022-01-30 16:30:20.4170,-0.294,-0.323,-0.38,2.87,-3.0,-3.36,0.36,0.35,1.92
2022-01-30 16:30:20.4270,-0.27,-0.325,-0.347,2.8,-2.97,-3.83,0.44,0.58,1.72
2022-01-30 16:30:20.4370,-0.234,-0.334,-0.344,2.54,-2.96,-4.19,0.44,0.58,1.72
2022-01-30 16:30:20.4470,-0.201,-0.366,-0.345,2.17,-2.94,-4.27,0.46,1.04,1.51
2022-01-30 16:30:20.4570,-0.173,-0.421,-0.329,1.81,-2.72,-4.19,0.42,1.26,1.54
2022-01-30 16:30:20.4670,-0.151,-0.472,-0.376,1.52,-2.24,-4.35,0.27,1.31,1.57
2022-01-30 16:30:20.4770,-0.14,-0.552,-0.508,1.28,-1.75,-4.06,0.27,1.31,1.57
2022-01-30 16:30:20.4870,-0.149,-0.63,-0.727,1.13,-1.04,-3.01,-0.02,1.0,1.56
2022-01-30 16:30:20.4970,-0.187,-0.689,-0.961,1.08,-0.2,-1.05,-0.62,-0.64,1.28
2022-01-30 16:30:20.5070,-0.233,-0.722,-1.188,1.26,0.47,1.23,-0.62,-0.64,1.28
2022-01-30 16:30:20.5170,-0.266,-0.713,-1.373,1.54,0.94,3.44,-0.81,-1.65,1.08
2022-01-30 16:30:20.5270,-0.291,-0.646,-1.454,1.65,1.05,5.4,-0.71,-2.69,0.75
2022-01-30 16:30:20.5370,-0.313,-0.556,-1.438,1.66,0.6,6.44,-0.5,-2.34,0.7
2022-01-30 16:30:20.5470,-0.334,-0.505,-1.344,1.71,-0.82,5.74,-0.33,-1.44,0.74
2022-01-30 16:30:20.5570,-0.339,-0.479,-1.214,1.71,-0.82,5.74,-0.31,-0.28,0.81
2022-01-30 16:30:20.5680,-0.304,-0.491,-1.113,1.75,-1.08,4.5,-0.31,-0.28,0.81
2022-01-30 16:30:20.5770,-0.244,-0.541,-1.067,1.52,-1.04,3.32,-0.71,1.29,0.82
2022-01-30 16:30:20.5870,-0.199,-0.582,-1.039,1.01,-0.52,2.72,-0.92,1.45,0.7
2022-01-30 16:30:20.5970,-0.178,-0.602,-1.018,0.59,0.0,2.34,-1.02,1.18,0.54
2022-01-30 16:30:20.6080,-0.185,-0.606,-1.009,0.38,0.34,2.03,-1.0,0.65,0.37
2022-01-30 16:30:20.6170,-0.218,-0.591,-0.981,0.41,0.5,1.87,-0.89,0.08,0.25
2022-01-30 16:30:20.6270,-0.264,-0.555,-0.916,0.67,0.49,1.62,-0.71,-0.39,0.15
2022-01-30 16:30:20.6370,-0.292,-0.511,-0.832,1.07,0.24,1.04,-0.71,-0.39,0.15
2022-01-30 16:30:20.6480,-0.295,-0.467,-0.726,1.36,-0.15,0.23,-0.29,-0.78,-0.01
2022-01-30 16:30:20.6580,-0.282,-0.426,-0.617,1.37,-0.55,-0.76,-0.14,-0.71,-0.08
2022-01-30 16:30:20.6680,-0.266,-0.384,-0.517,1.23,-0.95,-1.84,-0.14,-0.71,-0.08
2022-01-30 16:30:20.6780,-0.255,-0.352,-0.434,1.03,-1.35,-2.85,-0.1,-0.51,-0.15
2022-01-30 16:30:20.6880,-0.242,-0.335,-0.387,0.9,-1.69,-3.72,-0.2,-0.06,-0.3
2022-01-30 16:30:20.6980,-0.234,-0.326,-0.374,0.79,-1.88,-4.3,-0.24,0.04,-0.4
2022-01-30 16:30:20.7090,-0.233,-0.336,-0.375,0.72,-1.98,-4.49,-0.21,0.01,-0.5
2022-01-30 16:30:20.7180,-0.236,-0.359,-0.403,0.71,-1.91,-4.54,-0.13,-0.17,-0.6
2022-01-30 16:30:20.7280,-0.238,-0.386,-0.446,0.76,-1.71,-4.33,-0.03,-0.46,-0.69
2022-01-30 16:30:20.7380,-0.247,-0.41,-0.501,0.77,-1.46,-3.93,0.08,-0.78,-0.75
2022-01-30 16:30:20.7480,-0.258,-0.428,-0.553,0.82,-1.22,-3.4,0.13,-1.1,-0.8
2022-01-30 16:30:20.7580,-0.262,-0.448,-0.641,0.88,-1.07,-2.86,0.07,-1.42,-0.79
2022-01-30 16:30:20.7680,-0.279,-0.482,-0.757,0.86,-0.6,-0.99,-0.09,-1.72,-0.72
2022-01-30 16:30:20.7780,-0.315,-0.5,-0.91,0.86,-0.6,-0.99,-0.31,-2.09,-0.64
2022-01-30 16:30:20.7880,-0.348,-0.509,-1.12,1.05,-0.34,0.42,-0.56,-2.53,-0.6
2022-01-30 16:30:20.7980,-0.377,-0.534,-1.329,1.22,-0.22,2.36,-0.78,-2.87,-0.61
2022-01-30 16:30:20.8080,-0.398,-0.556,-1.47,1.32,0.03,4.55,-0.89,-2.93,-0.67
2022-01-30 16:30:20.8180,-0.412,-0.565,-1.549,1.34,0.34,6.11,-0.89,-2.93,-0.67
2022-01-30 16:30:20.8290,-0.412,-0.565,-1.57,1.32,0.5,7.08,-0.82,-2.04,-0.83
2022-01-30 16:30:20.8380,-0.398,-0.556,-1.557,1.24,0.58,7.41,-0.77,-1.29,-0.91
2022-01-30 16:30:20.8480,-0.377,-0.543,-1.528,0.89,0.46,7.06,-0.83,-0.57,-1.0
2022-01-30 16:30:20.8590,-0.351,-0.526,-1.501,0.89,0.46,7.06,-0.83,-0.57,-1.0
2022-01-30 16:30:20.8680,-0.316,-0.539,-1.48,0.69,0.33,6.73,-1.25,0.16,-1.12
2022-01-30 16:30:20.8780,-0.279,-0.553,-1.483,0.44,0.46,6.44,-1.43,0.09,-1.17
2022-01-30 16:30:20.8890,-0.259,-0.565,-1.487,0.12,0.7,6.32,-1.43,0.09,-1.17
2022-01-30 16:30:20.8990,-0.255,-0.558,-1.463,-0.08,0.91,6.35,-1.5,-0.18,-1.2
2022-01-30 16:30:20.9080,-0.265,-0.523,-1.405,-0.08,0.8,5.61,-1.35,-0.82,-1.19
2022-01-30 16:30:20.9190,-0.27,-0.492,-1.315,-0.08,0.8,5.61,-1.22,-1.02,-1.16
2022-01-30 16:30:20.9280,-0.258,-0.464,-1.213,-0.05,0.54,4.76,-1.08,-1.12,-1.13
2022-01-30 16:30:20.9390,-0.238,-0.443,-1.092,-0.16,0.32,3.77,-1.08,-1.12,-1.13
2022-01-30 16:30:20.9490,-0.205,-0.431,-0.962,-0.72,0.05,1.34,-0.86,-0.99,-1.12
2022-01-30 16:30:20.9590,-0.166,-0.425,-0.853,-0.72,0.05,1.34,-0.78,-0.88,-1.11
2022-01-30 16:30:20.9690,-0.132,-0.424,-0.764,-1.12,0.02,0.19,-0.72,-0.76,-1.09
2022-01-30 16:30:20.9790,-0.109,-0.43,-0.698,-1.49,0.02,-0.73,-0.64,-0.68,-1.01
2022-01-30 16:30:20.9890,-0.099,-0.441,-0.653,-1.92,0.21,-1.95,-0.52,-0.63,-0.9
2022-01-30 16:30:20.9990,-0.105,-0.445,-0.633,-1.92,0.21,-1.95,-0.35,-0.62,-0.78
2022-01-30 16:30:21.0090,-0.124,-0.441,-0.624,-1.92,0.28,-2.2,-0.13,-0.62,-0.65
2022-01-30 16:30:21.0190,-0.15,-0.441,-0.626,-1.58,0.21,-2.28,0.15,-0.68,-0.52
2022-01-30 16:30:21.0290,-0.181,-0.44,-0.647,-1.58,0.21,-2.28,0.15,-0.68,-0.52
2022-01-30 16:30:21.0390,-0.209,-0.432,-0.661,-1.33,0.17,-2.07,0.83,-0.92,-0.35
2022-01-30 16:30:21.0490,-0.231,-0.415,-0.656,-1.11,0.03,-1.82,1.12,-1.02,-0.33
2022-01-30 16:30:21.0590,-0.242,-0.4,-0.66,-0.95,-0.22,-1.78,1.2566546201705933,-1.11,-0.32
2022-01-30 16:30:21.0700,-0.239,-0.393,-0.642,-0.88,-0.5,-1.66,1.21,-1.11,-0.32
2022-01-30 16:30:21.0790,-0.225,-0.394,-0.633,-0.95,-0.69,-1.68,1.0,-1.09,-0.33
2022-01-30 16:30:21.0890,-0.212,-0.4,-0.661,-1.14,-0.79,-1.77,0.68,-1.06,-0.35
2022-01-30 16:30:21.0990,-0.209,-0.414,-0.689,-1.35,-0.8,-1.49,0.38,-1.0,-0.39
2022-01-30 16:30:21.1090,-0.201,-0.443,-0.71,-1.46,-0.75,-1.13,0.11,-0.9,-0.45
2022-01-30 16:30:21.1190,-0.178,-0.475,-0.741,-1.56,-0.5,-0.89,0.11,-0.9,-0.45
2022-01-30 16:30:21.1290,-0.151,-0.514,-0.785,-1.79,-0.22,-0.61,-0.34,-0.69,-0.59
2022-01-30 16:30:21.1400,-0.131,-0.541,-0.808,-2.09,0.18,-0.18,-0.52,-0.54,-0.62
2022-01-30 16:30:21.1500,-0.12,-0.566,-0.807,-2.45,0.76,0.14,-0.62,-0.31,-0.57
2022-01-30 16:30:21.1600,-0.111,-0.595,-0.796,-2.45,0.76,0.14,-0.65,-0.07,-0.45
2022-01-30 16:30:21.1700,-0.096,-0.619,-0.794,-2.61,1.36,-0.06,-0.6,0.12,-0.3
2022-01-30 16:30:21.1800,-0.075,-0.642,-0.787,-2.61,1.36,-0.06,-0.48,0.22,-0.11
2022-01-30 16:30:21.1890,-0.057,-0.669,-0.77,-2.97,1.9,-0.3,-0.31,0.25,0.09
2022-01-30 16:30:21.2000,-0.045,-0.698,-0.743,-2.97,1.9,-0.3,-0.12,0.19,0.3
2022-01-30 16:30:21.2100,-0.046,-0.724,-0.723,-3.11,2.21,-0.57,0.09,0.07,0.5
2022-01-30 16:30:21.2200,-0.055,-0.741,-0.697,-3.14,2.48,-0.79,0.32,-0.09,0.64
2022-01-30 16:30:21.2300,-0.07,-0.74,-0.665,-3.1,2.68,-0.99,0.57,-0.25,0.72
2022-01-30 16:30:21.2400,-0.087,-0.73,-0.624,-3.03,2.7,-1.27,0.57,-0.25,0.72
2022-01-30 16:30:21.2500,-0.096,-0.72,-0.574,-2.87,2.43,-2.01,0.81,-0.38,0.76
2022-01-30 16:30:21.2600,-0.088,-0.717,-0.517,-2.87,2.43,-2.01,1.14,-0.43,0.65
2022-01-30 16:30:21.2700,-0.069,-0.722,-0.465,-2.97,2.31,-2.47,1.2,-0.34,0.5
2022-01-30 16:30:21.2800,-0.043,-0.719,-0.435,-3.18,2.28,-2.95,1.21,-0.2,0.27
2022-01-30 16:30:21.2900,-0.013,-0.712,-0.421,-3.74,2.03,-3.35,1.21,-0.01611798256635666,-0.02
2022-01-30 16:30:21.3000,0.022,-0.709,-0.432,-4.04,1.9,-3.26,1.22,0.16,-0.34
2022-01-30 16:30:21.3090,0.063,-0.697,-0.48,-4.04,1.9,-2.8281736654043197,1.28,0.26,-0.68
2022-01-30 16:30:21.3200,0.106,-0.676,-0.542,-4.37,1.69,-2.83,1.39,0.38,-0.98
2022-01-30 16:30:21.3300,0.148,-0.651,-0.579,-4.72,1.37,-2.13,1.5,0.59,-1.21
2022-01-30 16:30:21.3400,0.186,-0.636,-0.616,-5.03,0.97,-1.67,1.58,0.94,-1.3
2022-01-30 16:30:21.3500,0.224,-0.65,-0.662,-5.47,0.53,-0.81,1.6,1.39,-1.27
2022-01-30 16:30:21.3600,0.262,-0.672,-0.731,-5.65,0.59,-0.17,1.57,1.88,-1.18
2022-01-30 16:30:21.3710,0.269,-0.701,-0.834,-5.6,0.73,0.76,1.49,2.25,-1.06
2022-01-30 16:30:21.3800,0.249,-0.723,-0.994,-5.6,0.73,0.76,1.36,2.37,-0.97
2022-01-30 16:30:21.3910,0.213,-0.745,-1.177,-4.68,0.92,4.04,1.31,2.27,-0.89
2022-01-30 16:30:21.4000,0.18,-0.784,-1.287,-4.12,1.14,5.4,1.4,2.13,-0.79
2022-01-30 16:30:21.4100,0.168,-0.827,-1.329,-4.12,1.14,5.4,1.55,2.03,-0.64
2022-01-30 16:30:21.4190,0.155,-0.859,-1.333,-3.78,1.45,5.97,1.6,2.02,-0.44
2022-01-30 16:30:21.4290,0.124,-0.88,-1.309,-3.51,1.68,6.17,1.48,2.1,-0.21
2022-01-30 16:30:21.4390,0.073,-0.884,-1.272,-3.09,1.81,6.04,1.24,2.29,0.01
2022-01-30 16:30:21.4490,0.016,-0.884,-1.204,-2.47,1.81,5.77,0.96,2.57,0.18
2022-01-30 16:30:21.4590,-0.031,-0.89,-1.125,-1.74,1.74,5.2,0.68,2.88,0.3
2022-01-30 16:30:21.4690,-0.063,-0.899,-1.051,-0.54,1.79,3.68,0.4,3.12,0.38
2022-01-30 16:30:21.4800,-0.086,-0.919,-0.99,-0.54,1.79,3.68,0.11,3.25,0.44
2022-01-30 16:30:21.4900,-0.099,-0.939,-0.951,0.23,2.2,2.53,-0.17,3.24,0.48
2022-01-30 16:30:21.5000,-0.115,-0.939,-0.939,0.23,2.2,2.53,-0.39,3.08,0.51
2022-01-30 16:30:21.5110,-0.14,-0.911,-0.94,0.54,2.28,2.3,-0.5,2.84,0.55
2022-01-30 16:30:21.5200,-0.168,-0.854,-0.945,1.34,1.67,2.24,-0.54,2.55,0.61
2022-01-30 16:30:21.5300,-0.19,-0.787,-0.948,1.34,1.67,2.24,-0.53,2.26,0.7
2022-01-30 16:30:21.5410,-0.206,-0.713,-0.94,1.68,1.06,2.26,-0.47,1.97,0.82
2022-01-30 16:30:21.5510,-0.224,-0.635,-0.927,1.93,0.39,2.16,-0.4,1.75,0.99
2022-01-30 16:30:21.5610,-0.25,-0.561,-0.902,2.15,-0.34,2.02,-0.4,1.75,0.99
2022-01-30 16:30:21.5710,-0.286,-0.501,-0.88,2.42,-1.07,1.78,-0.18,1.5286837816238403,1.45
2022-01-30 16:30:21.5810,-0.323,-0.451,-0.862,2.77,-1.68,1.53,0.01,1.47,1.68
2022-01-30 16:30:21.5910,-0.366,-0.422,-0.85,3.52,-2.55,1.25,0.25,1.41,1.81
2022-01-30 16:30:21.6010,-0.393,-0.4,-0.831,3.52,-2.55,1.25,0.53,1.34,1.82
2022-01-30 16:30:21.6110,-0.404,-0.387,-0.814,3.81,-2.8,1.1,0.53,1.34,1.82
2022-01-30 16:30:21.6210,-0.409,-0.384,-0.779,3.91,-3.02,1.0,0.99,1.23,1.58
2022-01-30 16:30:21.6310,-0.408,-0.368,-0.732,3.95,-3.12,0.76,0.99,1.23,1.58
2022-01-30 16:30:21.6410,-0.398,-0.362,-0.685,3.95,-3.33,0.4,1.1,1.28,1.26
2022-01-30 16:30:21.6510,-0.384,-0.358,-0.655,3.87,-3.49,0.0,1.11,1.32,1.13
2022-01-30 16:30:21.6610,-0.362,-0.354,-0.637,3.75,-3.6,-0.27,1.15,1.31,1.04
2022-01-30 16:30:21.6720,-0.34,-0.344,-0.639,3.35,-3.88,-0.33,1.23,1.23,1.0
2022-01-30 16:30:21.6810,-0.315,-0.343,-0.646,3.35,-3.88,-0.33,1.37,1.09,1.02
2022-01-30 16:30:21.6910,-0.288,-0.346,-0.643,2.83,-4.07,-0.05,1.54,0.92,1.08
2022-01-30 16:30:21.7020,-0.273,-0.351,-0.627,2.83,-4.07,-0.05,1.7,0.75,1.21
2022-01-30 16:30:21.7120,-0.273,-0.362,-0.588,2.58,-4.15,-0.04,1.7,0.62,1.36
2022-01-30 16:30:21.7220,-0.265,-0.368,-0.54,2.5,-4.15,-0.23,1.58,0.51,1.46
2022-01-30 16:30:21.7310,-0.242,-0.384,-0.518,2.38,-4.18,-0.59,1.22,0.36,1.46
2022-01-30 16:30:21.7410,-0.208,-0.426,-0.527,2.09,-4.12,-0.81,0.75,0.18,1.33
2022-01-30 16:30:21.7520,-0.158,-0.519,-0.501,1.69,-3.84,-0.69,0.23,0.04,1.09
2022-01-30 16:30:21.7610,-0.095,-0.606,-0.492,1.16,-3.04,-0.82,-0.33,-0.18,0.75
2022-01-30 16:30:21.7710,-0.062,-0.624,-0.566,0.48,-2.07,-1.09,-0.9,-0.47,0.39
2022-01-30 16:30:21.7820,-0.077,-0.591,-0.626,-0.01,-1.66,-0.6,-1.43,-0.53,0.1
2022-01-30 16:30:21.7920,-0.12,-0.547,-0.617,-0.02,-1.8,0.04,-1.86,-0.28,-0.11
2022-01-30 16:30:21.8010,-0.156,-0.508,-0.637,0.36,-2.13,-0.09,-2.14,0.08,-0.25
2022-01-30 16:30:21.8120,-0.176,-0.483,-0.689,0.77,-2.4,-0.19,-2.27,0.48,-0.32
2022-01-30 16:30:21.8220,-0.188,-0.467,-0.716,1.28,-2.56,0.32,-2.22,0.92,-0.31
2022-01-30 16:30:21.8320,-0.194,-0.461,-0.713,1.46,-2.51,0.18,-2.03,1.34,-0.23
2022-01-30 16:30:21.8420,-0.192,-0.462,-0.711,1.46,-2.51,0.18,-1.75,1.63,-0.07
2022-01-30 16:30:21.8510,-0.189,-0.465,-0.706,1.65,-2.25,-0.1,-1.41,1.77,0.13
2022-01-30 16:30:21.8610,-0.182,-0.463,-0.676,1.65,-2.25,-0.1,-1.03,1.72,0.33
2022-01-30 16:30:21.8710,-0.181,-0.459,-0.63,1.7,-2.19,-0.41,-0.65,1.52,0.52
2022-01-30 16:30:21.8810,-0.181,-0.457,-0.588,1.78,-2.18,-1.35,-0.3,1.15,0.69
2022-01-30 16:30:21.8910,-0.188,-0.454,-0.551,1.81,-2.2,-1.71,-0.01,0.68,0.82
2022-01-30 16:30:21.9010,-0.205,-0.446,-0.522,1.9,-2.29,-2.01,0.23,0.15,0.89
2022-01-30 16:30:21.9120,-0.227,-0.444,-0.496,2.02,-2.36,-2.24,0.43,-0.38,0.91
2022-01-30 16:30:21.9220,-0.25,-0.445,-0.474,2.02,-2.36,-2.24,0.61,-0.85,0.87
2022-01-30 16:30:21.9320,-0.264,-0.437,-0.464,2.13,-2.38,-2.44,0.72,-1.23,0.76
2022-01-30 16:30:21.9430,-0.271,-0.434,-0.452,2.16,-2.49,-2.49,0.77,-1.49,0.61
2022-01-30 16:30:21.9520,-0.27,-0.43,-0.462,2.1,-2.59,-2.56,0.73,-1.66,0.42
2022-01-30 16:30:21.9620,-0.274,-0.42,-0.496,1.96,-2.65,-2.48,0.58,-1.76,0.22
2022-01-30 16:30:21.9720,-0.279,-0.437,-0.531,1.84,-2.8,-2.12,0.37,-1.77,0.05
2022-01-30 16:30:21.9820,-0.28,-0.48,-0.584,1.77,-2.74,-1.74,0.09,-1.79,-0.05
2022-01-30 16:30:21.9920,-0.269,-0.538,-0.667,1.67,-2.38,-1.27,-0.26,-1.79,-0.07
2022-01-30 16:30:22.0020,-0.255,-0.604,-0.763,1.48,-1.82,-0.52,-0.65,-1.77,-0.04
2022-01-30 16:30:22.0120,-0.259,-0.659,-0.891,1.21,-1.13,0.37,-0.65,-1.73,0.0
2022-01-30 16:30:22.0230,-0.285,-0.711,-1.043,1.08,-0.48,1.48,-1.32,-1.63,0.01
2022-01-30 16:30:22.0330,-0.334,-0.762,-1.16,1.16,0.11,2.88,-1.32,-1.63,0.01
2022-01-30 16:30:22.0420,-0.384,-0.781,-1.23,1.5,0.75,4.1,-1.48,-0.99,-0.07
2022-01-30 16:30:22.0530,-0.415,-0.792,-1.252,1.95,1.11,4.79,-1.48,-0.99,-0.07
2022-01-30 16:30:22.0630,-0.425,-0.814,-1.225,2.27,1.32,5.07,-1.67,-0.09,-0.08
2022-01-30 16:30:22.0730,-0.412,-0.845,-1.221,2.43,1.63,4.75,-1.87,0.14,-0.03
2022-01-30 16:30:22.0830,-0.397,-0.862,-1.247,2.19,2.45,4.55,-2.12,0.04,0.02
2022-01-30 16:30:22.0930,-0.392,-0.856,-1.343,2.19,2.45,4.55,-2.4,-0.48,0.03
2022-01-30 16:30:22.1020,-0.391,-0.851,-1.488,2.08,2.62,5.14,-2.66,-1.33,0.03
2022-01-30 16:30:22.1130,-0.399,-0.865,-1.606,1.96,2.74,6.39,-2.76,-2.22,0.04
2022-01-30 16:30:22.1230,-0.423,-0.861,-1.653,1.78,3.34,8.12,-2.66,-2.92,0.07
2022-01-30 16:30:22.1330,-0.454,-0.826,-1.662,1.78,3.34,8.12,-2.38,-3.38,0.1
2022-01-30 16:30:22.1430,-0.466,-0.785,-1.622,1.81,3.24,8.24,-2.02,-3.55,0.1
2022-01-30 16:30:22.1530,-0.457,-0.744,-1.527,1.71,3.01,7.99,-1.71,-3.4,0.07
2022-01-30 16:30:22.1630,-0.443,-0.696,-1.393,1.37,2.75,7.2,-1.54,-2.99,-0.01
2022-01-30 16:30:22.1730,-0.428,-0.653,-1.252,0.67,2.09,4.61,-1.51,-2.42,-0.15
2022-01-30 16:30:22.1830,-0.401,-0.626,-1.123,0.67,2.09,4.61,-1.55,-1.8,-0.36
2022-01-30 16:30:22.1930,-0.354,-0.609,-1.016,0.32,1.9,3.3,-1.59,-1.24,-0.65
2022-01-30 16:30:22.2030,-0.299,-0.599,-0.933,-0.17,1.82,2.17,-1.57,-0.78,-0.96
2022-01-30 16:30:22.2130,-0.251,-0.594,-0.865,-0.73,1.79,1.27,-1.46,-0.45,-1.26
2022-01-30 16:30:22.2230,-0.209,-0.578,-0.802,-1.21,1.82,0.53,-1.25,-0.21,-1.49
2022-01-30 16:30:22.2340,-0.164,-0.561,-0.726,-1.59,1.73,-0.13,-1.25,-0.21,-1.49
2022-01-30 16:30:22.2440,-0.121,-0.536,-0.641,-1.96,1.59,-0.87,-0.66,0.15,-1.73
2022-01-30 16:30:22.2530,-0.084,-0.506,-0.56,-2.59,1.04,-2.56,-0.34,0.3,-1.74
2022-01-30 16:30:22.2630,-0.05,-0.473,-0.47,-2.59,1.04,-2.56,-0.05,0.46,-1.69
2022-01-30 16:30:22.2730,-0.021,-0.441,-0.384,-3.01,0.28,-4.32,0.2,0.62,-1.6
2022-01-30 16:30:22.2840,0.004,-0.426,-0.315,-3.14,0.01,-5.06,0.37,0.75,-1.48
2022-01-30 16:30:22.2930,0.018,-0.421,-0.284,-3.14,0.01,-5.06,0.48,0.77,-1.4
2022-01-30 16:30:22.3030,0.023,-0.425,-0.296,-3.18,-0.14,-5.48,0.58,0.66,-1.36
2022-01-30 16:30:22.3140,0.027,-0.444,-0.329,-3.13,-0.22,-5.43,0.68,0.4,-1.35
2022-01-30 16:30:22.3240,0.031,-0.464,-0.421,-3.09,-0.16,-5.17,0.8,-0.06,-1.35
2022-01-30 16:30:22.3330,0.033,-0.481,-0.534,-3.06,-0.06,-4.39,0.95,-0.58,-1.36
2022-01-30 16:30:22.3440,0.023,-0.483,-0.615,-3.1,0.01,-3.19,1.14,-1.04,-1.36
2022-01-30 16:30:22.3540,0.004,-0.477,-0.698,-3.04,-0.07,-2.26,1.14,-1.04,-1.36
2022-01-30 16:30:22.3640,-0.026,-0.433,-0.8,-2.92,-0.23,-1.35,1.3,-1.62,-1.38
2022-01-30 16:30:22.3740,-0.052,-0.352,-0.979,-2.7,-0.69,-0.34,1.3,-1.62,-1.38
2022-01-30 16:30:22.3840,-0.067,-0.325,-1.209,-2.51,-1.55,1.31,0.62,-2.26,-1.3
2022-01-30 16:30:22.3940,-0.07,-0.391,-1.327,-2.43,-2.14,3.64,0.29,-2.28,-1.25
2022-01-30 16:30:22.4040,-0.067,-0.431,-1.328,-2.59,-1.2,5.47,0.06,-2.07,-1.29
2022-01-30 16:30:22.4140,-0.057,-0.418,-1.395,-2.73,-1.29,6.02,-0.1,-1.76,-1.42
2022-01-30 16:30:22.4240,-0.053,-0.398,-1.406,-2.8,-1.51,6.45,-0.24,-1.12,-1.53
2022-01-30 16:30:22.4340,-0.062,-0.376,-1.285,-2.66,-1.73,5.51,-0.46,-0.1,-1.57
2022-01-30 16:30:22.4440,-0.058,-0.373,-1.138,-2.66,-1.73,5.51,-0.46,-0.1,-1.57
2022-01-30 16:30:22.4540,-0.02,-0.42,-1.047,-2.47,-1.85,3.93,-1.19,2.05,-1.4
2022-01-30 16:30:22.4640,0.052,-0.496,-0.98,-2.88,-0.67,1.94,-1.44,2.77,-1.23
2022-01-30 16:30:22.4740,0.121,-0.587,-0.93,-3.31,0.29,1.25,-1.47,3.12,-0.99
2022-01-30 16:30:22.4840,0.156,-0.679,-0.88,-3.47,1.28,0.64,-1.27,3.14,-0.66
2022-01-30 16:30:22.4940,0.15,-0.773,-0.819,-3.25,2.27,-0.03,-0.92,2.89,-0.26
2022-01-30 16:30:22.5040,0.123,-0.852,-0.756,-3.25,2.27,-0.03,-0.51,2.41,0.14
2022-01-30 16:30:22.5150,0.087,-0.91,-0.704,-2.83,3.15,-0.72,-0.11,1.79,0.51
2022-01-30 16:30:22.5240,0.049,-0.954,-0.648,-2.37,3.77,-1.29,0.27,1.15,0.76
2022-01-30 16:30:22.5340,0.003,-0.961,-0.582,-1.94,4.25,-1.82,0.59,0.59,0.89
2022-01-30 16:30:22.5440,-0.039,-0.933,-0.5,-1.5,4.38,-2.42,0.79,0.17,0.87
2022-01-30 16:30:22.5540,-0.053,-0.896,-0.428,-1.08,4.13,-3.15,0.87,-0.07,0.68
2022-01-30 16:30:22.5640,-0.05,-0.873,-0.376,-0.91,3.69,-3.86,0.86,-0.09,0.32
2022-01-30 16:30:22.5740,-0.048,-0.836,-0.354,-0.95,3.38,-4.38,0.82,0.08,-0.16
2022-01-30 16:30:22.5850,-0.051,-0.781,-0.355,-0.88,2.41,-4.64,0.78,0.41,-0.65
2022-01-30 16:30:22.5950,-0.052,-0.73,-0.368,-0.72,1.82,-4.5,0.8,0.81,-1.05
2022-01-30 16:30:22.6050,-0.037,-0.684,-0.414,-0.72,1.82,-4.5,0.88,1.14,-1.35
2022-01-30 16:30:22.6150,-0.01,-0.637,-0.498,-0.66,1.29,-4.14,1.03,1.35,-1.51
2022-01-30 16:30:22.6250,0.021,-0.597,-0.573,-0.71,0.72,-3.31,1.23,1.51,-1.56
2022-01-30 16:30:22.6340,0.043,-0.554,-0.631,-0.8,0.21,-2.48,1.43,1.69,-1.49
2022-01-30 16:30:22.6450,0.052,-0.529,-0.681,-0.83,-0.33,-1.8,1.59,1.91,-1.29
2022-01-30 16:30:22.6550,0.043,-0.525,-0.728,-0.46,-0.97,-0.66,1.68,2.08,-0.99
2022-01-30 16:30:22.6650,0.028,-0.53,-0.801,-0.46,-0.97,-0.66,1.68,2.09,-0.63
2022-01-30 16:30:22.6750,0.025,-0.562,-0.897,-0.11,-1.08,0.08,1.68,2.09,-0.63
2022-01-30 16:30:22.6850,0.03,-0.595,-1.001,0.1,-0.96,1.11,1.65,1.38,0.02
2022-01-30 16:30:22.6950,0.032,-0.632,-1.093,0.17,-0.55,3.32,1.7,0.82,0.26
2022-01-30 16:30:22.7050,0.019,-0.711,-1.097,0.17,-0.55,3.32,1.8,0.44,0.44
2022-01-30 16:30:22.7150,-0.014,-0.766,-1.047,0.53,0.56,3.42,1.84,0.28,0.52
2022-01-30 16:30:22.7250,-0.048,-0.772,-1.004,0.85,0.58,3.06,1.71,0.27,0.5
2022-01-30 16:30:22.7350,-0.085,-0.77,-0.969,0.85,0.58,3.06,1.37,0.38,0.43
2022-01-30 16:30:22.7450,-0.12,-0.78,-0.903,1.58,0.45,2.33,0.87,0.6,0.35
2022-01-30 16:30:22.7550,-0.136,-0.814,-0.849,1.58,0.45,2.33,0.28635373711586,0.84,0.23
2022-01-30 16:30:22.7650,-0.121,-0.865,-0.815,1.84,0.71,1.76,-0.31,1.02,0.07
2022-01-30 16:30:22.7750,-0.087,-0.919,-0.821,1.82,1.2,1.35,-0.84,1.11,-0.14
2022-01-30 16:30:22.7850,-0.049,-0.97,-0.836,1.61,1.78,1.27,-1.22,1.13,-0.33
2022-01-30 16:30:22.7960,-0.028,-0.982,-0.868,1.32,2.41,1.33,-1.44,1.09,-0.44
2022-01-30 16:30:22.8050,-0.029,-0.953,-0.905,1.17,2.74,1.5,-1.54,0.99,-0.43
2022-01-30 16:30:22.8150,-0.041,-0.902,-0.938,1.22,2.65,1.77,-1.54,0.79,-0.29
2022-01-30 16:30:22.8250,-0.049,-0.853,-0.972,1.4,2.31,2.0,-1.44,0.41,-0.03
2022-01-30 16:30:22.8360,-0.04,-0.823,-1.005,1.46,1.64,2.5,-1.21,-0.12,0.33
2022-01-30 16:30:22.8460,-0.023,-0.793,-1.009,1.46,1.64,2.5,-0.86,-0.72,0.75
2022-01-30 16:30:22.8550,-0.003,-0.76,-0.983,1.2,1.42,2.57,-0.44,-1.3,1.13
2022-01-30 16:30:22.8660,0.004,-0.731,-0.926,0.84,1.12,2.33,-0.04,-1.72,1.44
2022-01-30 16:30:22.8750,-0.017,-0.713,-0.845,0.49,0.82,1.84,0.25,-1.91,1.69
2022-01-30 16:30:22.8860,-0.059,-0.701,-0.765,0.39,0.58,1.09,0.25,-1.91,1.69
2022-01-30 16:30:22.8950,-0.101,-0.669,-0.691,0.5,0.44,0.32,0.57,-1.78,1.88
2022-01-30 16:30:22.9050,-0.137,-0.633,-0.622,0.67,0.14,-0.38,0.66,-1.53,1.83
2022-01-30 16:30:22.9160,-0.167,-0.611,-0.557,0.81,-0.26,-1.02,0.66,-1.53,1.83
2022-01-30 16:30:22.9260,-0.183,-0.6,-0.507,0.93,-0.56,-1.63,0.77,-0.92,1.53
2022-01-30 16:30:22.9350,-0.18,-0.584,-0.468,0.94,-0.73,-2.1,0.82,-0.63,1.28
2022-01-30 16:30:22.9460,-0.164,-0.576,-0.438,0.83,-0.91,-2.45,0.87,-0.37,0.99
2022-01-30 16:30:22.9550,-0.142,-0.574,-0.413,0.61,-1.08,-2.7,0.92,-0.15,0.71
2022-01-30 16:30:22.9650,-0.12,-0.559,-0.397,0.34,-1.14,-2.89,0.99,0.02,0.44
2022-01-30 16:30:22.9760,-0.096,-0.534,-0.384,0.1,-1.32,-3.02,1.07,0.17,0.19
2022-01-30 16:30:22.9860,-0.075,-0.503,-0.369,-0.34,-1.98,-3.14,1.11,0.3,-0.01
2022-01-30 16:30:22.9960,-0.056,-0.473,-0.365,-0.34,-1.98,-3.14,1.11,0.4,-0.16
2022-01-30 16:30:23.0060,-0.041,-0.448,-0.379,-0.48,-2.36,-3.15,1.06,0.44,-0.27
2022-01-30 16:30:23.0160,-0.022,-0.438,-0.407,-0.72,-2.92,-2.67,1.04,0.37,-0.32
2022-01-30 16:30:23.0270,0.012,-0.452,-0.457,-0.72,-2.92,-2.67,1.06,0.2,-0.27
2022-01-30 16:30:23.0360,0.052,-0.491,-0.508,-0.98,-2.92,-2.16,1.12,-0.06,-0.16
2022-01-30 16:30:23.0460,0.09,-0.537,-0.551,-1.37,-2.65,-1.56,1.16,-0.31,0.01
2022-01-30 16:30:23.0560,0.122,-0.596,-0.593,-1.76,-2.29,-1.02,1.11,-0.53,0.19
2022-01-30 16:30:23.0660,0.135,-0.648,-0.646,-2.4,-1.31,0.01,0.9,-0.68,0.33
2022-01-30 16:30:23.0770,0.111,-0.691,-0.72,-2.34,-0.91,0.76,0.57,-0.73,0.43
2022-01-30 16:30:23.0870,0.061,-0.738,-0.752,-1.96,-0.47,1.25,0.17,-0.53,0.51
2022-01-30 16:30:23.0960,0.012,-0.778,-0.764,-1.52,0.0,1.29,-0.25,-0.24,0.54
2022-01-30 16:30:23.1060,-0.041,-0.762,-0.829,-1.05,0.06,1.76,-0.69,0.05,0.45
2022-01-30 16:30:23.1250,-0.091,-0.719,-0.89,-0.54,-0.3,2.34,-1.09,0.36,0.29
2022-01-30 16:30:23.1260,-0.136,-0.699,-0.922,-0.54,-0.3,2.34,-1.43,0.68,0.13
2022-01-30 16:30:23.1370,-0.164,-0.695,-0.943,0.34,-0.41,2.69,-1.66,0.98,-0.01
2022-01-30 16:30:23.1470,-0.167,-0.683,-0.956,0.51,-0.38,2.7,-1.77,1.21,-0.11
2022-01-30 16:30:23.1570,-0.155,-0.664,-0.959,0.51,-0.38,2.7,-1.78,1.32,-0.14
2022-01-30 16:30:23.1670,-0.136,-0.66,-0.966,0.53,-0.45,2.59,-1.78,1.32,-0.14
2022-01-30 16:30:23.1770,-0.128,-0.666,-0.941,0.44,-0.43,2.55,-1.26,1.27,0.12
2022-01-30 16:30:23.1870,-0.135,-0.647,-0.889,0.49,-0.33,1.78,-0.77,1.14,0.41
2022-01-30 16:30:23.1970,-0.15,-0.614,-0.814,0.49,-0.33,1.78,-0.22,0.97,0.75
2022-01-30 16:30:23.2070,-0.158,-0.583,-0.732,0.64,-0.61,1.07,0.33,0.81,1.02
2022-01-30 16:30:23.2170,-0.153,-0.562,-0.65,0.74,-0.95,0.28,0.33,0.81,1.02
2022-01-30 16:30:23.2270,-0.158,-0.535,-0.573,0.65,-1.53,-1.17,1.13,0.56,1.23
2022-01-30 16:30:23.2370,-0.162,-0.503,-0.499,0.65,-1.53,-1.17,1.3,0.46,1.13
2022-01-30 16:30:23.2470,-0.163,-0.482,-0.464,0.66,-1.91,-1.83,1.31,0.27,0.92
2022-01-30 16:30:23.2570,-0.166,-0.493,-0.487,0.61,-2.31,-2.03,1.26,-0.05,0.63
2022-01-30 16:30:23.2680,-0.149,-0.524,-0.515,0.61,-2.31,-2.03,1.22,-0.39,0.27
2022-01-30 16:30:23.2770,-0.109,-0.562,-0.537,0.47,-2.1,-1.64,1.22,-0.39,0.27
2022-01-30 16:30:23.2870,-0.067,-0.628,-0.516,0.09,-1.84,-1.31,1.1,-0.52,-0.45
2022-01-30 16:30:23.2970,-0.042,-0.702,-0.48,-0.35,-1.34,-1.28,0.88,-0.18,-0.67
2022-01-30 16:30:23.3070,-0.026,-0.763,-0.534,-0.6,-0.66,-1.65,0.52,0.22,-0.76
2022-01-30 16:30:23.3170,-0.032,-0.826,-0.65,-0.71,-0.08,-1.34,0.09,0.61,-0.7
2022-01-30 16:30:23.3270,-0.049,-0.89,-0.786,-0.36,1.18,0.97,-0.26,0.83,-0.55
2022-01-30 16:30:23.3370,-0.039,-0.925,-0.975,-0.3,1.63,2.63,-0.42,0.75,-0.41
2022-01-30 16:30:23.3470,-0.008,-0.955,-1.172,-0.3,1.63,2.63,-0.3,0.49,-0.3
2022-01-30 16:30:23.3560,0.001,-1.016,-1.279,-0.6551778826117516,2.46,5.94,0.05,0.25,-0.22
2022-01-30 16:30:23.3670,-0.015,-1.024,-1.295,-0.66,2.46,5.94,0.05,0.25,-0.22
2022-01-30 16:30:23.3770,-0.055,-0.979,-1.227,-0.18,2.26,5.93,0.48,0.12,-0.16
2022-01-30 16:30:23.3870,-0.085,-0.972,-1.079,-0.18,2.26,5.93,0.8,0.37,0.11
2022-01-30 16:30:23.3980,-0.072,-1.026,-0.943,0.2,1.98,4.69,0.53,0.54,0.31
2022-01-30 16:30:23.4070,-0.034,-1.088,-0.88,0.2,2.37,3.25,0.09,0.58,0.45
2022-01-30 16:30:23.4180,-0.023,-1.129,-0.864,-0.17,3.01,2.47,-0.34,0.51,0.52
2022-01-30 16:30:23.4270,-0.043,-1.155,-0.848,-0.37,3.48,2.21,-0.34,0.51,0.52
2022-01-30 16:30:23.4380,-0.077,-1.141,-0.842,-0.25,3.82,2.02,-0.75,0.29,0.53
2022-01-30 16:30:23.4480,-0.121,-1.082,-0.864,0.04,3.86,1.84,-0.76,0.16,0.49
2022-01-30 16:30:23.4580,-0.179,-1.003,-0.853,0.42,3.41,1.96,-0.7065214514732361,0.14,0.41
2022-01-30 16:30:23.4760,-0.232,-0.899,-0.796,1.49,1.82,1.39,-0.64,0.21,0.29
2022-01-30 16:30:23.4790,-0.249,-0.805,-0.739,1.49,1.82,1.39,-0.64,0.21,0.29
2022-01-30 16:30:23.4860,-0.226,-0.74,-0.693,1.76,0.87,0.77,-0.52,0.37,0.07
2022-01-30 16:30:23.4960,-0.175,-0.688,-0.646,1.65,0.22,0.26,-0.42,0.39,0.01
2022-01-30 16:30:23.5060,-0.13,-0.667,-0.618,1.22,-0.31,-0.24,-0.32,0.35,0.02
2022-01-30 16:30:23.5160,-0.118,-0.649,-0.6,0.75,-0.56,-0.6,-0.2,0.27,0.07
2022-01-30 16:30:23.5260,-0.129,-0.609,-0.578,0.56,-0.7,-0.79,-0.07,0.2,0.1
2022-01-30 16:30:23.5360,-0.143,-0.561,-0.558,0.64,-1.03,-1.01,0.07,0.18,0.07
2022-01-30 16:30:23.5460,-0.161,-0.52,-0.548,0.79,-1.51,-1.21,0.24,0.18,-0.02
2022-01-30 16:30:23.5560,-0.18,-0.473,-0.539,0.95,-1.94,-1.32,0.45,0.18,-0.14
2022-01-30 16:30:23.5660,-0.184,-0.422,-0.526,1.18,-2.4,-1.37,0.64,0.18,-0.3
2022-01-30 16:30:23.5760,-0.172,-0.389,-0.522,1.3,-2.95,-1.45,0.82,0.14,-0.44
2022-01-30 16:30:23.5860,-0.149,-0.385,-0.512,1.25,-3.39,-1.46,1.0,0.14,-0.54
2022-01-30 16:30:23.5960,-0.115,-0.395,-0.494,1.11,-3.58,-1.43,1.15,0.12,-0.61
2022-01-30 16:30:23.6060,-0.09,-0.396,-0.498,0.83,-3.54,-1.58,1.27,0.13,-0.64
2022-01-30 16:30:23.6160,-0.06,-0.424,-0.484,0.63,-3.62,-1.44,1.36,0.17,-0.61
2022-01-30 16:30:23.6260,-0.036,-0.484,-0.477,0.4,-3.51,-1.46,1.4,0.23,-0.5
2022-01-30 16:30:23.6360,-0.017,-0.56,-0.468,0.2,-3.09,-1.44,1.43,0.28,-0.34
2022-01-30 16:30:23.6470,-0.005,-0.641,-0.463,0.04,-2.44,-1.41,1.45,0.29,-0.16
2022-01-30 16:30:23.6560,0.002,-0.726,-0.453,-0.07,-1.76,-1.35,1.46,0.2,0.03
2022-01-30 16:30:23.6670,0.009,-0.8,-0.461,-0.14,-1.0,-1.34,1.4,-0.06,0.13
2022-01-30 16:30:23.6760,0.009,-0.843,-0.511,-0.22,-0.31,-1.22,1.2,-0.57,0.12
2022-01-30 16:30:23.6860,-0.004,-0.872,-0.595,-0.29,0.14,-0.75,0.88,-1.2,0.04
2022-01-30 16:30:23.6960,-0.033,-0.939,-0.612,-0.27,0.34,0.13,0.57,-1.67,-0.05
2022-01-30 16:30:23.7070,-0.065,-0.984,-0.56,-0.1,0.88,0.59,0.34,-1.93,-0.2
2022-01-30 16:30:23.7170,-0.103,-0.938,-0.531,0.12,1.46,0.19,0.13,-2.04,-0.39
2022-01-30 16:30:23.7260,-0.144,-0.85,-0.51,0.39,1.22,-0.17,-0.08,-1.98,-0.55
2022-01-30 16:30:23.7370,-0.163,-0.794,-0.442,0.74,0.38,-0.33,-0.28,-1.69,-0.65
2022-01-30 16:30:23.7470,-0.157,-0.784,-0.36,0.97,-0.28,-0.89,-0.49,-1.26,-0.67
2022-01-30 16:30:23.7570,-0.128,-0.788,-0.313,0.94,-0.44,-1.75,-0.7,-0.77,-0.65
2022-01-30 16:30:23.7670,-0.1,-0.758,-0.268,0.71,-0.36,-2.36,-0.87,-0.22,-0.62
2022-01-30 16:30:23.7770,-0.046,-0.725,-0.221,0.47,-0.52,-2.83,-1.02,0.31,-0.56
2022-01-30 16:30:23.7870,-0.01,-0.712,-0.236,0.08,-0.83,-3.43,-1.13,0.67,-0.49
2022-01-30 16:30:23.7960,0.009,-0.688,-0.287,-0.31,-0.91,-3.55,-1.18,0.91,-0.44
2022-01-30 16:30:23.8070,0.045,-0.649,-0.314,-0.38,-1.03,-3.15,-1.13,0.99,-0.42
2022-01-30 16:30:23.8170,0.063,-0.609,-0.353,-0.63,-1.33,-2.95,-0.97,0.93,-0.39
2022-01-30 16:30:23.8270,0.067,-0.583,-0.374,-0.78,-1.67,-2.67,-0.75,0.8,-0.31
2022-01-30 16:30:23.8370,0.064,-0.577,-0.384,-0.77,-1.94,-2.45,-0.75,0.8,-0.31
2022-01-30 16:30:23.8470,0.045,-0.57,-0.412,-0.71,-2.0,-2.4,-0.15,0.35,0.01
2022-01-30 16:30:23.8570,0.027,-0.552,-0.424,-0.54,-2.03,-2.18,0.18,0.12,0.16
2022-01-30 16:30:23.8670,0.025,-0.543,-0.415,-0.34,-2.21,-1.98,0.48,-0.02,0.25
2022-01-30 16:30:23.8770,0.024,-0.556,-0.408,-0.32,-2.36,-2.0,0.73,-0.09,0.29
2022-01-30 16:30:23.8870,0.023,-0.568,-0.412,-0.34,-2.32,-2.03,0.89,-0.11,0.25
2022-01-30 16:30:23.8970,0.014,-0.577,-0.45,-0.35,-2.23,-1.97,1.01,-0.14,0.17
2022-01-30 16:30:23.9070,-0.01,-0.609,-0.5,-0.32,-2.22,-1.6,1.11,-0.11,0.05
2022-01-30 16:30:23.9170,-0.028,-0.672,-0.528,-0.12,-2.05,-1.02,1.22,0.01,-0.07
2022-01-30 16:30:23.9280,-0.039,-0.744,-0.53,0.08,-1.56,-0.58,1.31,0.24,-0.14
2022-01-30 16:30:23.9370,-0.046,-0.813,-0.524,0.23,-0.93,-0.4,1.34,0.48,-0.19
2022-01-30 16:30:23.9480,-0.044,-0.865,-0.535,0.35,-0.32,-0.35,1.25,0.65,-0.22
2022-01-30 16:30:23.9570,-0.04,-0.91,-0.568,0.41,0.18,-0.2,1.25,0.65,-0.22
2022-01-30 16:30:23.9670,-0.045,-0.955,-0.629,0.41,0.56,0.15,0.72,0.5,-0.23
2022-01-30 16:30:23.9780,-0.056,-1.024,-0.698,0.49,0.97,0.73,0.41,0.27,-0.22
2022-01-30 16:30:23.9870,-0.069,-1.111,-0.731,0.62,1.54,1.47,0.18,0.08,-0.21
2022-01-30 16:30:23.9970,-0.078,-1.164,-0.742,0.77,2.38,1.91,0.02,-0.03,-0.22
2022-01-30 16:30:24.0080,-0.106,-1.17,-0.74,0.87,3.02,2.03,-0.11,-0.05,-0.2
2022-01-30 16:30:24.0180,-0.15,-1.158,-0.687,1.09,3.18,2.08,-0.11,-0.05,-0.2
2022-01-30 16:30:24.0230,-0.167,-1.173,-0.605,1.79,3.15,0.89,-0.41,0.23,-0.03
2022-01-30 16:30:24.0380,-0.152,-1.209,-0.549,1.79,3.15,0.1993087774515152,-0.71,0.29,0.07
2022-01-30 16:30:24.0480,-0.118,-1.264,-0.545,1.73,3.48,0.19,-0.71,0.29,0.07
2022-01-30 16:30:24.0590,-0.089,-1.327,-0.572,1.11,4.7,0.09,-1.63,0.06,0.13
2022-01-30 16:30:24.0680,-0.103,-1.357,-0.613,1.11,4.7,0.09,-2.08,-0.14,0.1
2022-01-30 16:30:24.0780,-0.179,-1.308,-0.678,1.7,5.05,0.73,-2.36,-0.34,0.01
2022-01-30 16:30:24.0890,-0.273,-1.213,-0.756,2.59,4.32,1.3,-2.46,-0.52,-0.15
2022-01-30 16:30:24.0990,-0.347,-1.107,-0.826,2.59,4.32,1.3,-2.37,-0.68,-0.38
2022-01-30 16:30:24.1080,-0.373,-0.996,-0.877,3.38,3.44,1.83,-2.37,-0.68,-0.38
2022-01-30 16:30:24.1190,-0.341,-0.885,-0.904,3.75,2.51,2.2,-1.94,-1.01,-0.76
2022-01-30 16:30:24.1290,-0.279,-0.777,-0.901,3.57,1.56,2.36,-1.7,-1.16,-0.81
2022-01-30 16:30:24.1380,-0.224,-0.671,-0.858,2.97,0.63,2.28,-1.48,-1.26,-0.74
2022-01-30 16:30:24.1490,-0.179,-0.596,-0.799,2.39,-0.32,1.82,-1.27,-1.31,-0.55
2022-01-30 16:30:24.1580,-0.154,-0.551,-0.753,1.52,-1.44,0.55,-1.04,-1.32,-0.27
2022-01-30 16:30:24.1690,-0.152,-0.508,-0.716,1.39,-1.79,0.12,-0.77,-1.3,0.01
2022-01-30 16:30:24.1790,-0.167,-0.466,-0.672,1.41,-2.15,-0.35,-0.46,-1.23,0.24
2022-01-30 16:30:24.1890,-0.187,-0.432,-0.623,1.5,-2.48,-0.85,-0.15,-1.1,0.38
2022-01-30 16:30:24.1990,-0.192,-0.423,-0.579,1.5,-2.48,-0.85,0.11,-0.94,0.44
2022-01-30 16:30:24.2090,-0.189,-0.443,-0.546,1.49,-2.64,-1.31,0.32,-0.82,0.43
2022-01-30 16:30:24.2190,-0.179,-0.474,-0.53,1.37,-2.5,-1.66,0.45,-0.73,0.34
2022-01-30 16:30:24.2290,-0.145,-0.525,-0.509,1.22,-2.23,-1.83,0.53,-0.65,0.2
2022-01-30 16:30:24.2390,-0.091,-0.597,-0.489,0.32,-1.18,-2.17,0.58,-0.61,0.05
2022-01-30 16:30:24.2490,-0.032,-0.653,-0.517,-0.31,-0.6,-1.98,0.61,-0.69,-0.11
2022-01-30 16:30:24.2590,0.019,-0.694,-0.569,-0.87,-0.25,-1.43,0.64,-0.82,-0.21
2022-01-30 16:30:24.2700,0.059,-0.746,-0.588,-0.87,-0.25,-1.43,0.72,-0.87,-0.24
2022-01-30 16:30:24.2790,0.093,-0.798,-0.591,-1.71,0.67,-1.02,0.8,-0.84,-0.2
2022-01-30 16:30:24.2900,0.136,-0.851,-0.614,-1.71,0.67,-1.02,0.83,-0.78,-0.1
2022-01-30 16:30:24.2990,0.177,-0.917,-0.654,-2.62,1.68,-0.35,0.82,-0.75,-0.01
2022-01-30 16:30:24.3100,0.203,-0.967,-0.709,-2.62,1.68,-0.35,0.77,-0.82,0.05
2022-01-30 16:30:24.3190,0.217,-0.985,-0.767,-2.97,2.2,0.22,0.7,-0.95,0.06
2022-01-30 16:30:24.3290,0.217,-0.991,-0.792,-3.19,2.39,0.87,0.59,-1.03,0.03
2022-01-30 16:30:24.3400,0.201,-0.987,-0.768,-3.3,2.42,1.29,0.42,-0.91,-0.02
2022-01-30 16:30:24.3490,0.191,-0.954,-0.715,-3.18,2.11,0.77,0.18,-0.63,-0.09
2022-01-30 16:30:24.3600,0.18,-0.896,-0.67,-3.18,2.11,0.77,-0.13,-0.24,-0.16
2022-01-30 16:30:24.3700,0.165,-0.832,-0.637,-3.11,1.58,0.31,-0.48,0.18,-0.2
2022-01-30 16:30:24.3800,0.139,-0.78,-0.619,-2.73,0.44,-0.31,-0.83,0.55,-0.18
2022-01-30 16:30:24.3900,0.101,-0.72,-0.628,-2.73,0.44,-0.31,-1.12,0.76,-0.13
2022-01-30 16:30:24.4000,0.054,-0.652,-0.668,-2.34,-0.04,-0.37,-1.12,0.76,-0.13
2022-01-30 16:30:24.4100,0.016,-0.606,-0.699,-1.84,-0.66,-0.11,-1.25,0.69,0.01
2022-01-30 16:30:24.4200,-0.019,-0.553,-0.731,-1.37,-1.08,0.13,-1.06,0.47,0.08
2022-01-30 16:30:24.4300,-0.063,-0.468,-0.74,-0.56,-2.13,0.43,-0.77,0.18,0.12
2022-01-30 16:30:24.4400,-0.116,-0.363,-0.735,-0.05,-3.09,0.32,-0.48,-0.17,0.18
2022-01-30 16:30:24.4500,-0.173,-0.274,-0.736,0.48,-3.99,0.31,-0.23,-0.55,0.26
2022-01-30 16:30:24.4600,-0.226,-0.216,-0.722,0.48,-3.99,0.31,-0.23,-0.55,0.26
2022-01-30 16:30:24.4700,-0.271,-0.176,-0.71,0.96,-4.62,0.18,0.08,-1.12,0.44
2022-01-30 16:30:24.4800,-0.308,-0.149,-0.676,1.34,-5.03,0.08,0.19,-1.18,0.46
2022-01-30 16:30:24.4900,-0.331,-0.139,-0.627,1.6,-5.33,-0.17,0.29,-1.05,0.43
2022-01-30 16:30:24.5000,-0.345,-0.132,-0.566,1.76,-5.48,-0.6,0.41,-0.78,0.34
2022-01-30 16:30:24.5100,-0.354,-0.128,-0.512,1.8,-5.54,-1.15,0.52,-0.41,0.19
2022-01-30 16:30:24.5200,-0.341,-0.134,-0.469,1.85,-5.62,-1.66,0.59,-0.02,-0.02
2022-01-30 16:30:24.5300,-0.309,-0.157,-0.444,1.74,-5.63,-2.08,0.57,0.31,-0.25
2022-01-30 16:30:24.5400,-0.273,-0.193,-0.439,1.14,-5.19,-2.41,0.47,0.51,-0.48
2022-01-30 16:30:24.5500,-0.227,-0.238,-0.475,0.79,-4.82,-2.13,0.34,0.57,-0.71
2022-01-30 16:30:24.5600,-0.171,-0.303,-0.517,0.79,-4.82,-2.13,0.23,0.56,-0.9
2022-01-30 16:30:24.5700,-0.102,-0.39,-0.543,0.36,-4.28,-1.68,0.21,0.57,-1.03
2022-01-30 16:30:24.5800,-0.035,-0.495,-0.538,-0.19,-3.49,-1.36,0.21,0.57,-1.03
2022-01-30 16:30:24.5900,0.034,-0.633,-0.538,-0.76,-2.55,-1.34,0.36,0.65,-0.95
2022-01-30 16:30:24.6000,0.117,-0.791,-0.566,-1.98,0.18,-1.15,0.39,0.61,-0.78
2022-01-30 16:30:24.6110,0.195,-0.967,-0.607,-1.98,0.18,-1.15,0.27,0.46,-0.6
2022-01-30 16:30:24.6210,0.266,-1.138,-0.693,-2.67,1.84,-0.76,0.0,0.13,-0.49
2022-01-30 16:30:24.6310,0.316,-1.269,-0.824,-3.31,3.54,-0.06,-0.25,-0.32,-0.43
2022-01-30 16:30:24.6400,0.333,-1.364,-0.92,-3.83,4.93,1.19,-0.35,-0.69,-0.39
2022-01-30 16:30:24.6500,0.326,-1.417,-0.976,-4.07,5.95,2.24,-0.3,-0.92,-0.37
2022-01-30 16:30:24.6610,0.309,-1.424,-1.018,-3.95,6.79,3.27,-0.24,-0.97,-0.35
2022-01-30 16:30:24.6710,0.288,-1.426,-1.027,-3.95,6.79,3.27,-0.29,-0.85,-0.33
2022-01-30 16:30:24.6810,0.275,-1.415,-1.049,-3.77,6.82,3.43,-0.59,-0.77,-0.34
2022-01-30 16:30:24.6900,0.267,-1.393,-1.158,-3.62,6.58,4.34,-1.12,-0.77,-0.41
2022-01-30 16:30:24.7010,0.234,-1.397,-1.257,-3.4,6.64,5.4,-1.61,-0.64,-0.48
2022-01-30 16:30:24.7110,0.18,-1.381,-1.268,-3.4,6.64,5.4,-1.96,-0.18,-0.54
2022-01-30 16:30:24.7200,0.095,-1.322,-1.194,-2.92,6.321930626034737,4.874025544524193,-2.25,0.52,-0.52
2022-01-30 16:30:24.7310,0.01,-1.25,-1.251,-2.14,6.32,4.87,-2.43,1.04,-0.44
2022-01-30 16:30:24.7410,-0.084,-1.079,-1.34,-1.2,5.87,4.8,-2.34,1.45,-0.36
2022-01-30 16:30:24.7510,-0.177,-0.909,-1.291,-0.23,4.59,5.72,-2.0,1.79,-0.25
2022-01-30 16:30:24.7610,-0.226,-0.799,-1.211,0.86,2.97,4.430855129957199,-1.5,1.94,-0.12
2022-01-30 16:30:24.7710,-0.214,-0.717,-1.149,1.63,1.91,4.43,-0.93,1.77,-0.04
2022-01-30 16:30:24.7810,-0.164,-0.656,-1.077,1.81,1.19,3.68,-0.38,1.35,-0.02
2022-01-30 16:30:24.7910,-0.09,-0.619,-0.978,1.53,0.6,2.98,0.09,0.74,-0.06
2022-01-30 16:30:24.8010,-0.018,-0.589,-0.907,0.96,0.22,2.02,0.38,-0.06,-0.15
2022-01-30 16:30:24.8110,0.028,-0.543,-0.9,0.28,-0.07,1.19,0.45,-0.97,-0.25
2022-01-30 16:30:24.8210,0.043,-0.502,-0.899,-0.25,-0.52,1.01,0.39,-1.74,-0.31
2022-01-30 16:30:24.8310,0.013,-0.457,-0.84,-0.49,-1.42,0.69,0.33,-2.12,-0.26
2022-01-30 16:30:24.8410,-0.067,-0.396,-0.756,0.06,-2.0,-0.1,0.35,-2.08,-0.13
2022-01-30 16:30:24.8520,-0.155,-0.314,-0.693,0.79,-2.79,-0.77,0.42,-1.72,0.03
2022-01-30 16:30:24.8610,-0.22,-0.24,-0.664,0.79,-2.79,-0.77,0.53,-1.21,0.16
2022-01-30 16:30:24.8710,-0.262,-0.195,-0.669,1.36,-3.6,-1.1,0.69,-0.68,0.22
2022-01-30 16:30:24.8810,-0.286,-0.175,-0.688,1.94,-4.46,-0.87,0.87,-0.21,0.17
2022-01-30 16:30:24.8920,-0.283,-0.178,-0.703,1.94,-4.46,-0.87,0.87,-0.21,0.17
2022-01-30 16:30:24.9010,-0.253,-0.2,-0.695,1.96,-4.54,-0.64,1.22,0.41,-0.25
2022-01-30 16:30:24.9120,-0.208,-0.246,-0.68,1.73,-4.45,-0.6,1.33,0.56,-0.5
2022-01-30 16:30:24.9220,-0.164,-0.307,-0.67,1.36,-4.15,-0.68,1.35,0.59,-0.7
2022-01-30 16:30:24.9320,-0.134,-0.366,-0.658,0.98,-3.67,-0.7,1.33,0.55,-0.79
2022-01-30 16:30:24.9420,-0.118,-0.418,-0.642,0.6410958869755269,-2.75,-0.79,1.27,0.48,-0.75
2022-01-30 16:30:24.9520,-0.111,-0.465,-0.625,0.64,-2.75,-0.79,1.2,0.42,-0.58
2022-01-30 16:30:24.9620,-0.105,-0.519,-0.62,0.64,-2.38,-0.87,1.11,0.32,-0.36
2022-01-30 16:30:24.9720,-0.089,-0.573,-0.66,0.57,-1.48,-0.57,0.96,0.04,-0.19
2022-01-30 16:30:24.9820,-0.084,-0.598,-0.751,0.57,-1.48,-0.57,0.74,-0.44,-0.12
2022-01-30 16:30:24.9920,-0.102,-0.62,-0.811,0.59,-1.11,1.11,0.53,-0.94,-0.14
2022-01-30 16:30:25.0020,-0.12,-0.674,-0.795,0.74,-0.67,1.16,0.33,-1.33,-0.23
2022-01-30 16:30:25.0120,-0.129,-0.705,-0.753,0.74,-0.67,1.16,0.15,-1.6,-0.41
2022-01-30 16:30:25.0220,-0.147,-0.669,-0.707,0.76,-0.25,0.79,-0.03,-1.75,-0.62
2022-01-30 16:30:25.0320,-0.173,-0.616,-0.65,0.83,-0.47,0.38,-0.23,-1.78,-0.8
2022-01-30 16:30:25.0420,-0.177,-0.587,-0.59,1.0,-1.02,-0.15,-0.5,-1.66,-0.93
2022-01-30 16:30:25.0520,-0.141,-0.584,-0.536,1.07,-1.36,-0.75,-0.86,-1.34,-1.0
2022-01-30 16:30:25.0620,-0.093,-0.612,-0.471,0.77,-1.41,-1.32,-1.2,-0.82,-0.98
2022-01-30 16:30:25.0720,-0.067,-0.623,-0.424,-0.02,-0.87,-2.62,-1.49,-0.21,-0.92
2022-01-30 16:30:25.0830,-0.038,-0.584,-0.436,-0.02,-0.87,-2.62,-1.7,0.34,-0.84
2022-01-30 16:30:25.0920,-0.021,-0.52,-0.492,-0.27,-1.05,-2.74,-1.76,0.7,-0.76
2022-01-30 16:30:25.1020,-0.006,-0.46,-0.557,-0.41,-2.02,-1.85,-1.63,0.91,-0.65
2022-01-30 16:30:25.1120,0.016,-0.426,-0.573,-0.41,-2.02,-1.85,-1.31,1.08,-0.51
2022-01-30 16:30:25.1220,0.039,-0.438,-0.533,-0.63,-2.25,-2.02,-0.84,1.31,-0.27
2022-01-30 16:30:25.1320,0.056,-0.491,-0.47,-0.7,-1.72,-2.69,-0.34,1.54,0.02
2022-01-30 16:30:25.1430,0.059,-0.535,-0.442,-0.7,-1.72,-2.69,0.08,1.61,0.29
2022-01-30 16:30:25.1520,0.052,-0.546,-0.453,-0.66,-1.2,-3.11,0.34,1.5,0.47
2022-01-30 16:30:25.1630,0.044,-0.549,-0.472,-0.33,-1.03,-2.86,0.48,1.23,0.56
2022-01-30 16:30:25.1720,0.033,-0.561,-0.497,-0.18,-0.96,-2.61,0.52,0.86,0.55
2022-01-30 16:30:25.1830,0.031,-0.593,-0.537,-0.1,-0.76,-2.21,0.53,0.46,0.48
2022-01-30 16:30:25.1930,0.045,-0.655,-0.571,-0.2,-0.26,-1.81,0.57,0.15,0.4
2022-01-30 16:30:25.2020,0.063,-0.735,-0.595,-0.2,-0.26,-1.81,0.64,-0.06,0.33
2022-01-30 16:30:25.2120,0.089,-0.824,-0.634,-0.64,1.26,-1.16,0.68,-0.17,0.28
2022-01-30 16:30:25.2230,0.106,-0.906,-0.703,-0.64,1.26,-1.16,0.62,-0.25,0.23
2022-01-30 16:30:25.2330,0.088,-0.949,-0.81,-0.89,2.06,-0.53,0.62,-0.25,0.23
2022-01-30 16:30:25.2430,0.022,-0.931,-0.899,-0.35,2.49,1.5,0.49,-0.33,0.16
2022-01-30 16:30:25.2510,-0.057,-0.907,-0.924,-0.35,2.49,1.5,0.38,-0.06,0.03
2022-01-30 16:30:25.2630,-0.103,-0.925,-0.911,0.97,2.22,1.87,0.37,-0.06,0.03
2022-01-30 16:30:25.2730,-0.101,-0.97,-0.918,0.97,2.22,1.87,0.41,0.61,-0.12
2022-01-30 16:30:25.2830,-0.066,-1.014,-0.947,0.85,3.01,2.18,0.36,0.81,-0.24
2022-01-30 16:30:25.2930,-0.032,-1.037,-0.951,0.85,3.01,2.18,0.22,0.91,-0.37
2022-01-30 16:30:25.3020,-0.011,-1.031,-0.932,0.56,3.29,2.33,-0.0,0.95,-0.49
2022-01-30 16:30:25.3130,0.006,-1.015,-0.902,0.41,3.28,2.2,-0.3,0.98,-0.59
2022-01-30 16:30:25.3230,0.04,-1.017,-0.865,0.37,3.12,1.92,-0.69,1.03,-0.63
2022-01-30 16:30:25.3330,0.091,-1.043,-0.828,0.19,3.11,1.56,-1.14,1.13,-0.59
2022-01-30 16:30:25.3430,0.136,-1.07,-0.81,-0.17,3.37,1.13,-1.6,1.24,-0.47
2022-01-30 16:30:25.3530,0.156,-1.069,-0.804,-0.68,3.94,0.66,-1.99,1.38,-0.28
2022-01-30 16:30:25.3630,0.151,-1.041,-0.813,-0.68,3.94,0.66,-2.26,1.47,-0.06
2022-01-30 16:30:25.3730,0.126,-0.99,-0.843,-0.25,3.59,0.69,-2.35,1.47,0.14
2022-01-30 16:30:25.3830,0.092,-0.913,-0.889,0.16,3.08,1.0,-2.25,1.37,0.29
2022-01-30 16:30:25.3930,0.054,-0.825,-0.924,0.63,2.39,1.26,-1.96,1.16,0.38
2022-01-30 16:30:25.4030,0.025,-0.746,-0.942,0.63,2.39,1.26,-1.52,0.87,0.42
2022-01-30 16:30:25.4130,0.01,-0.676,-0.94,1.01,1.73,1.39,-1.01,0.54,0.42
2022-01-30 16:30:25.4240,0.014,-0.608,-0.913,1.27,0.55,1.1,-0.51,0.24,0.38
2022-01-30 16:30:25.4340,0.031,-0.545,-0.852,1.12,-0.05,0.55,-0.09,0.02,0.35
2022-01-30 16:30:25.4440,0.046,-0.494,-0.78,0.94,-0.58,-0.16,0.23,-0.11,0.35
2022-01-30 16:30:25.4530,0.053,-0.452,-0.705,0.83,-1.02,-0.87,0.48,-0.16,0.38
2022-01-30 16:30:25.4640,0.061,-0.398,-0.628,0.83,-1.02,-0.87,0.65,-0.12,0.43
2022-01-30 16:30:25.4740,0.075,-0.347,-0.561,0.72,-1.56,-1.61,0.77,-0.02,0.51
2022-01-30 16:30:25.4840,0.092,-0.328,-0.508,0.56,-2.15,-2.26,0.82,0.1,0.6
2022-01-30 16:30:25.4940,0.117,-0.335,-0.488,0.38,-2.49,-2.78,0.8,0.2,0.69
2022-01-30 16:30:25.5040,0.149,-0.348,-0.495,-0.2,-2.48,-2.96,0.72,0.28,0.76
2022-01-30 16:30:25.5140,0.176,-0.365,-0.507,-0.2,-2.48,-2.96,0.63,0.36,0.79
2022-01-30 16:30:25.5240,0.19,-0.375,-0.522,-0.51,-2.39,-2.79,0.55,0.45,0.79
2022-01-30 16:30:25.5340,0.203,-0.385,-0.545,-0.82,-2.3,-2.38,0.5,0.56,0.79
2022-01-30 16:30:25.5440,0.218,-0.42,-0.564,-0.98,-2.07,-2.14,0.51,0.69,0.83
2022-01-30 16:30:25.5540,0.227,-0.461,-0.596,-1.09,-1.69,-1.85,0.53,0.76,0.92
2022-01-30 16:30:25.5640,0.228,-0.487,-0.657,-1.09,-1.69,-1.85,0.55,0.75,1.05
2022-01-30 16:30:25.5740,0.214,-0.521,-0.714,-1.04,-1.22,-0.63,0.59,0.7,1.23
2022-01-30 16:30:25.5840,0.18,-0.569,-0.762,-0.78,-0.83,-0.1,0.65,0.63,1.46
2022-01-30 16:30:25.5930,0.143,-0.603,-0.809,-0.78,-0.83,-0.1,0.73,0.54,1.63
2022-01-30 16:30:25.6040,0.115,-0.617,-0.865,-0.2,-0.4,0.99,0.83,0.43,1.67
2022-01-30 16:30:25.6150,0.105,-0.637,-0.897,-0.2,-0.4,0.99,0.94,0.36,1.55
2022-01-30 16:30:25.6240,0.123,-0.678,-0.883,-0.31,-0.04,1.47,1.01,0.34,1.31
2022-01-30 16:30:25.6340,0.166,-0.732,-0.862,-0.31,-0.04,1.47,0.97,0.29,1.0
2022-01-30 16:30:25.6440,0.202,-0.773,-0.847,-1.2,0.78,1.23,0.78,0.21,0.68
2022-01-30 16:30:25.6540,0.211,-0.772,-0.821,-1.39,0.83,1.09,0.45,0.19,0.38
2022-01-30 16:30:25.6640,0.202,-0.729,-0.76,-1.39,0.83,1.09,0.02,0.33,0.12
2022-01-30 16:30:25.6740,0.181,-0.673,-0.684,-1.34,0.45,0.62,-0.49,0.62,-0.05
2022-01-30 16:30:25.6840,0.153,-0.629,-0.633,-0.84,-0.52,-0.75,-1.05,1.02,-0.12
2022-01-30 16:30:25.6940,0.127,-0.585,-0.611,-0.49,-0.87,-1.08,-1.61,1.45,-0.1
2022-01-30 16:30:25.7050,0.104,-0.547,-0.615,-0.15,-1.15,-1.22,-2.06,1.83,-0.01
2022-01-30 16:30:25.7140,0.081,-0.511,-0.66,-0.15,-1.15,-1.22,-2.31,2.12,0.11
2022-01-30 16:30:25.7250,0.063,-0.465,-0.722,0.5573805695772172,-1.59,-0.51,-2.31,2.28,0.21
2022-01-30 16:30:25.7340,0.05,-0.412,-0.774,0.55,-1.59,-0.51,-2.04,2.31,0.27
2022-01-30 16:30:25.7450,0.029,-0.357,-0.804,0.84,-1.93,-0.08,-2.04,2.31,0.27
2022-01-30 16:30:25.7540,0.004,-0.307,-0.776,1.18,-2.32,0.2,-0.93,2.26,0.43
2022-01-30 16:30:25.7650,-0.019,-0.265,-0.71,1.58,-2.71,0.03,-0.29,2.21,0.53
2022-01-30 16:30:25.7750,-0.034,-0.227,-0.66,1.95,-3.08,-0.6,0.25,2.07,0.61
2022-01-30 16:30:25.7850,-0.035,-0.209,-0.628,2.28,-3.45,-1.12,0.25,2.07,0.61
2022-01-30 16:30:25.7950,-0.026,-0.228,-0.593,2.47,-3.69,-1.66,0.97,1.51,0.76
2022-01-30 16:30:25.8050,-0.015,-0.262,-0.558,2.47,-3.69,-1.66,1.17,1.12,0.8
2022-01-30 16:30:25.8150,0.007,-0.296,-0.536,2.29,-3.24,-2.08,1.29,0.69,0.79
2022-01-30 16:30:25.8250,0.044,-0.341,-0.529,2.29,-3.24,-2.08,1.32,0.23,0.72
2022-01-30 16:30:25.8350,0.094,-0.41,-0.532,1.97,-2.95,-2.1,1.27,-0.18,0.63
2022-01-30 16:30:25.8450,0.141,-0.497,-0.543,1.47,-2.44,-2.0,1.15,-0.53,0.52
2022-01-30 16:30:25.8550,0.173,-0.581,-0.564,0.93,-1.72,-1.83,1.0,-0.78,0.42
2022-01-30 16:30:25.8650,0.186,-0.65,-0.591,0.26,-0.32,-1.28,0.82,-0.93,0.34
2022-01-30 16:30:25.8760,0.192,-0.705,-0.614,0.10646727204322816,0.18,-1.03,0.62,-0.98,0.27
2022-01-30 16:30:25.8850,0.2,-0.76,-0.66,0.1,0.18,-1.03,0.42,-0.99,0.26
2022-01-30 16:30:25.8950,0.21,-0.823,-0.728,-0.06,0.66,-0.63,0.42,-0.99,0.26
2022-01-30 16:30:25.9050,0.216,-0.885,-0.799,-0.24,1.22,0.01,0.16,-0.96,0.38
2022-01-30 16:30:25.9150,0.218,-0.938,-0.865,-0.4,1.82,0.71,0.13,-0.9,0.44
2022-01-30 16:30:25.9250,0.219,-0.979,-0.923,-0.52,2.35,1.37,0.09,-0.85,0.47
2022-01-30 16:30:25.9350,0.225,-1.016,-0.96,-0.62,2.76,1.96,0.09,-0.85,0.47
2022-01-30 16:30:25.9450,0.22,-1.049,-0.957,-0.83,3.45,2.43,-0.29,-0.63,0.5
2022-01-30 16:30:25.9550,0.216,-1.074,-0.956,-0.83,3.45,2.43,-0.68,-0.55,0.5
2022-01-30 16:30:25.9650,0.206,-1.072,-0.989,-0.86,3.75,2.33,-1.16,-0.6,0.47
2022-01-30 16:30:25.9750,0.179,-1.029,-1.043,-0.86,3.86,2.52,-1.69,-0.75,0.38
2022-01-30 16:30:25.9850,0.13,-0.96,-1.112,-0.38,3.1,3.46,-2.21,-0.94,0.25
2022-01-30 16:30:26.0040,0.061,-0.877,-1.188,0.18,2.47,4.03,-2.63,-1.13,0.09
2022-01-30 16:30:26.0040,-0.007,-0.799,-1.268,0.77,1.88,4.65,-2.89,-1.26,-0.08
2022-01-30 16:30:26.0140,-0.068,-0.726,-1.32,0.77,1.88,4.65,-2.89,-1.26,-0.08
2022-01-30 16:30:26.0240,-0.12,-0.663,-1.342,1.75,0.96,5.16,-2.77,-1.18,-0.41
2022-01-30 16:30:26.0340,-0.158,-0.604,-1.334,2.08,0.61,5.01,-2.44,-0.94,-0.5
2022-01-30 16:30:26.0530,-0.177,-0.543,-1.279,2.27,0.22,4.45,-2.0,-0.63,-0.53
2022-01-30 16:30:26.0540,-0.177,-0.484,-1.202,2.28,-0.19,3.61,-1.54,-0.32,-0.49
2022-01-30 16:30:26.0650,-0.164,-0.434,-1.117,2.18,-0.58,2.71,-1.09,-0.06,-0.4
2022-01-30 16:30:26.0750,-0.144,-0.401,-1.02,2.18,-0.58,2.71,-0.67,0.1,-0.29
2022-01-30 16:30:26.0840,-0.127,-0.369,-0.931,1.85,-1.09,0.77,-0.32,0.12,-0.19
2022-01-30 16:30:26.0950,-0.119,-0.331,-0.877,1.76,-1.42,0.14,-0.08,-0.03,-0.15
2022-01-30 16:30:26.1060,-0.119,-0.298,-0.84,1.760723956078291,-1.7441209334135057,-0.25,0.06,-0.29,-0.17
2022-01-30 16:30:26.1160,-0.12,-0.273,-0.812,1.76,-1.75,-0.25,0.12,-0.6,-0.28
2022-01-30 16:30:26.1260,-0.124,-0.249,-0.789,1.74,-2.01,-0.55,0.17,-0.92,-0.46
2022-01-30 16:30:26.1360,-0.128,-0.229,-0.771,1.72,-2.48,-0.96,0.24,-1.19,-0.67
2022-01-30 16:30:26.1460,-0.133,-0.212,-0.764,1.72,-2.48,-0.96,0.36,-1.43,-0.91
2022-01-30 16:30:26.1560,-0.141,-0.185,-0.764,1.69,-2.92,-1.05,0.55,-1.61,-1.15
2022-01-30 16:30:26.1660,-0.143,-0.15,-0.757,1.69,-2.92,-1.05,0.75,-1.71,-1.38
2022-01-30 16:30:26.1760,-0.138,-0.115,-0.751,1.64,-3.3,-1.08,0.92,-1.7,-1.54
2022-01-30 16:30:26.1860,-0.129,-0.1,-0.756,1.39,-3.99,-1.08,1.05,-1.64,-1.63
2022-01-30 16:30:26.1970,-0.121,-0.11,-0.793,1.39,-3.99,-1.08,1.12,-1.58,-1.62
2022-01-30 16:30:26.2060,-0.109,-0.146,-0.829,1.25,-4.05,-0.73,1.14,-1.51,-1.56
2022-01-30 16:30:26.2160,-0.084,-0.193,-0.855,0.84,-3.48,0.03,1.13,-1.46,-1.47
2022-01-30 16:30:26.2260,-0.046,-0.234,-0.894,0.84,-3.48,0.03,1.05,-1.51,-1.42
2022-01-30 16:30:26.2360,0.006,-0.274,-0.935,0.46,-3.16,0.43,0.93,-1.65,-1.4
2022-01-30 16:30:26.2460,0.059,-0.322,-0.943,-0.66,-2.48,1.17,0.77,-1.78,-1.4
2022-01-30 16:30:26.2560,0.105,-0.376,-0.892,-1.2,-2.03,0.86,0.59,-1.77,-1.4
2022-01-30 16:30:26.2660,0.139,-0.431,-0.808,-1.63,-1.53,0.09,0.33,-1.65,-1.38
2022-01-30 16:30:26.2770,0.169,-0.47,-0.749,-1.63,-1.53,0.09,-0.05,-1.46,-1.39
2022-01-30 16:30:26.2860,0.201,-0.488,-0.716,-2.310617750734091,-0.91,-0.91,-0.52,-1.24,-1.47
2022-01-30 16:30:26.2970,0.239,-0.499,-0.679,-2.32,-0.91,-0.91,-1.08,-0.96,-1.63
2022-01-30 16:30:26.3070,0.278,-0.5,-0.646,-3.07,-0.63,-1.69,-1.68,-0.65,-1.86
2022-01-30 16:30:26.3170,0.307,-0.491,-0.624,-3.07,-0.63,-1.69,-1.68,-0.65,-1.86
2022-01-30 16:30:26.3270,0.326,-0.501,-0.606,-3.34,-0.57,-2.01,-2.73,0.1,-2.15
2022-01-30 16:30:26.3360,0.34,-0.54,-0.623,-3.45,-0.37,-2.32,-3.03,0.39,-2.05
2022-01-30 16:30:26.3470,0.356,-0.597,-0.688,-3.5,0.97,-2.02,-3.12,0.5,-1.76
2022-01-30 16:30:26.3570,0.373,-0.648,-0.771,-3.5,0.97,-2.02,-2.96,0.39,-1.33
2022-01-30 16:30:26.3670,0.381,-0.69,-0.847,-3.56,1.77,-1.39,-2.53,0.19,-0.8
2022-01-30 16:30:26.3770,0.37,-0.707,-0.87,-3.47,2.94,-0.44,-1.88,0.05,-0.26
2022-01-30 16:30:26.3870,0.329,-0.693,-0.858,-3.47,2.94,-0.44,-1.13,0.03,0.22
2022-01-30 16:30:26.3970,0.274,-0.668,-0.836,-3.12,3.03,-0.58,-0.37,0.1,0.64
2022-01-30 16:30:26.4070,0.223,-0.644,-0.81,-2.6,2.9,-0.82,0.31,0.22,0.94
2022-01-30 16:30:26.4170,0.195,-0.624,-0.779,-2.09,2.69,-1.08,0.88,0.3,1.11
2022-01-30 16:30:26.4270,0.193,-0.603,-0.766,-1.76,2.46,-1.38,1.34,0.29,1.15
2022-01-30 16:30:26.4380,0.202,-0.592,-0.745,-1.79,1.9,-1.64,1.68,0.22,1.08
2022-01-30 16:30:26.4470,0.216,-0.593,-0.726,-1.79,1.9,-1.64,1.9,0.08,0.92
2022-01-30 16:30:26.4570,0.22,-0.575,-0.733,-1.94,1.76,-1.79,1.97,-0.17,0.68
2022-01-30 16:30:26.4670,0.203,-0.527,-0.769,-2.06,1.49,-1.72,1.91,-0.48,0.39
2022-01-30 16:30:26.4770,0.175,-0.484,-0.806,-1.7717667151987553,0.26,-0.86,1.78,-0.76,0.1
2022-01-30 16:30:26.4880,0.164,-0.487,-0.827,-1.78,0.26,-0.86,1.63,-0.92,-0.15
2022-01-30 16:30:26.4970,0.171,-0.514,-0.864,-1.68,0.01,-0.55,1.47,-1.03,-0.37
2022-01-30 16:30:26.5070,0.187,-0.523,-0.94,-1.78,0.12,-0.17,1.27,-1.11,-0.59
2022-01-30 16:30:26.5180,0.181,-0.501,-1.028,-2.09,-0.11,1.51,1.04,-1.08,-0.76
2022-01-30 16:30:26.5260,0.149,-0.48,-1.065,-1.87,-0.44,2.09,1.04,-1.08,-0.76
2022-01-30 16:30:26.5370,0.114,-0.493,-1.047,-1.87,-0.44,2.09,0.69,-0.1,-0.75
2022-01-30 16:30:26.5470,0.088,-0.523,-1.049,-1.23,-0.25,1.97,0.52,0.61,-0.54
2022-01-30 16:30:26.5580,0.068,-0.538,-1.103,-1.23,-0.25,1.97,0.3,1.25,-0.24
2022-01-30 16:30:26.5670,0.052,-0.554,-1.141,-0.94,-0.1,2.45,0.06,1.75,0.09
2022-01-30 16:30:26.5760,0.05,-0.595,-1.158,-0.45552104964852336,0.3440729731321335,3.1,-0.16,2.04,0.37
2022-01-30 16:30:26.5880,0.058,-0.649,-1.191,-0.37,0.88,3.36,-0.37,2.05,0.54
2022-01-30 16:30:26.5980,0.078,-0.695,-1.224,-0.39362724870443344,1.38,3.71,-0.56,1.87,0.55
2022-01-30 16:30:26.6080,0.098,-0.733,-1.225,-0.4,1.38,3.71,-0.73,1.57,0.46
2022-01-30 16:30:26.6180,0.098,-0.759,-1.203,-0.49,1.82,3.78,-0.89,1.25,0.32
2022-01-30 16:30:26.6280,0.076,-0.766,-1.163,-0.44,2.17,3.58,-1.04,1.0,0.24
2022-01-30 16:30:26.6380,0.039,-0.756,-1.105,-0.19,2.36,3.19,-1.17,0.84,0.23
2022-01-30 16:30:26.6480,0.0,-0.731,-1.052,0.66,2.27,2.0,-1.23,0.71,0.3
2022-01-30 16:30:26.6580,-0.033,-0.696,-1.012,1.05,2.05,1.53,-1.23,0.71,0.3
2022-01-30 16:30:26.6680,-0.061,-0.655,-0.977,1.05,2.05,1.53,-1.12,0.44,0.55
2022-01-30 16:30:26.6780,-0.09,-0.613,-0.931,1.66,1.45,0.66,-0.94,0.29,0.68
2022-01-30 16:30:26.6880,-0.113,-0.562,-0.886,1.66,1.45,0.66,-0.68,0.15,0.78
2022-01-30 16:30:26.6970,-0.123,-0.508,-0.833,2.01,0.58,-0.35,-0.38,0.05,0.83
2022-01-30 16:30:26.7080,-0.12,-0.455,-0.772,2.01,0.58,-0.35,-0.09,0.01,0.82
2022-01-30 16:30:26.7180,-0.105,-0.405,-0.703,1.98,0.08,-0.95,0.13,0.05,0.77
2022-01-30 16:30:26.7280,-0.088,-0.369,-0.633,1.82,-0.42,-1.62,0.13,0.05,0.77
2022-01-30 16:30:26.7380,-0.076,-0.34,-0.571,1.47,-1.14,-2.93,0.29,0.33,0.64
2022-01-30 16:30:26.7480,-0.065,-0.303,-0.527,1.47,-1.14,-2.93,0.24,0.5,0.57
2022-01-30 16:30:26.7580,-0.061,-0.271,-0.498,1.31,-1.88,-3.69,0.13,0.65,0.54
2022-01-30 16:30:26.7680,-0.063,-0.252,-0.483,1.31,-1.88,-3.69,0.01,0.75,0.55
2022-01-30 16:30:26.7780,-0.054,-0.256,-0.491,1.36,-2.15,-3.85,-0.07,0.8,0.59
2022-01-30 16:30:26.7880,-0.018,-0.289,-0.515,1.36,-2.15,-3.85,-0.06,0.8,0.64
2022-01-30 16:30:26.7980,0.035,-0.324,-0.552,0.65,-1.51,-3.31,0.03,0.73,0.64
2022-01-30 16:30:26.8090,0.086,-0.347,-0.608,0.65,-1.51,-3.31,0.17,0.57,0.62
2022-01-30 16:30:26.8180,0.128,-0.386,-0.67,-0.24,-0.98,-2.18,0.17,0.57,0.62
2022-01-30 16:30:26.8280,0.157,-0.431,-0.746,-0.57,-0.54,-1.48,0.42,0.02,0.6
2022-01-30 16:30:26.8380,0.167,-0.45,-0.848,-0.57,-0.54,-1.48,0.42,-0.3505114018917084,0.62
2022-01-30 16:30:26.8480,0.165,-0.455,-0.969,-0.73,-0.32,-0.5,0.4,-0.74,0.67
