
time,gFx,gFy,gFz,ax,ay,az,wx,wy,wz,
0.057435,0.0000,0.0000,0.0000,0.0000,0.0000,0.0000,0.2704,-1.7119,0.1899,
0.091530,-0.0126,0.3307,0.9880,0.0000,0.0000,0.0000,0.2704,-1.7119,0.1899,
0.092829,-0.0909,0.2958,0.9758,0.0000,0.0000,0.0000,0.2704,-1.7119,0.1899,
0.093452,-0.0879,0.2945,0.9829,0.0000,0.0000,0.0000,0.2704,-1.7119,0.1899,
0.094120,-0.0550,0.3151,1.0322,0.0000,0.0000,0.0000,0.2704,-1.7119,0.1899,
0.094779,0.0083,0.3066,1.0166,0.0000,0.0000,0.0000,0.2704,-1.7119,0.1899,
0.095572,-0.0010,0.3097,0.9708,0.0000,0.0000,0.0000,0.2704,-1.7119,0.1899,
0.096609,0.0467,0.3415,0.9300,0.0000,0.0000,0.0000,0.2704,-1.7119,0.1899,
0.097795,0.0246,0.3668,0.8954,0.0000,0.0000,0.0000,0.2704,-1.7119,0.1899,
0.098644,0.1176,0.3390,0.7855,0.0000,0.0000,0.0000,0.2704,-1.7119,0.1899,
0.099727,0.1740,0.2956,0.7343,0.0000,0.0000,0.0000,0.2704,-1.7119,0.1899,
0.100600,0.1740,0.2956,0.7343,0.0000,0.0000,-0.0000,0.2704,-1.7119,0.1899,
0.101187,0.1740,0.2956,0.7343,0.0000,0.0000,-0.0000,0.0499,-1.1707,0.1696,
0.137837,0.1740,0.2956,0.7343,0.0000,0.0000,-0.0000,-0.2538,0.0288,0.1100,
0.139963,0.1740,0.2956,0.7343,0.0000,0.0000,-0.0000,-0.2538,0.0288,0.1100,
0.177276,0.1935,0.3612,0.9024,0.0000,0.0000,-0.0000,-0.2538,0.0288,0.1100,
0.179344,0.1074,0.3842,1.1483,0.0000,0.0000,-0.0000,-0.2538,0.0288,0.1100,
0.182768,0.2545,0.3834,1.1545,0.0000,0.0000,-0.0000,-0.2538,0.0288,0.1100,
0.184080,0.2545,0.3834,1.1545,0.0000,0.0000,-0.0000,0.5750,-0.5454,-0.2139,
0.185524,0.2545,0.3834,1.1545,0.3607,0.0337,0.8588,0.5750,-0.5454,-0.2139,
0.217905,0.2545,0.3834,1.1545,0.3607,0.0337,0.8588,0.9692,-0.5198,-0.8605,
0.220254,0.2545,0.3834,1.1545,0.3963,-0.3146,-0.8371,0.9692,-0.5198,-0.8605,
0.254248,0.3182,0.3696,0.9993,0.3963,-0.3146,-0.8371,0.9692,-0.5198,-0.8605,
0.256821,0.1288,0.3448,0.4911,0.3963,-0.3146,-0.8371,0.9692,-0.5198,-0.8605,
0.258349,-0.0349,0.3491,0.4846,0.3963,-0.3146,-0.8371,0.9692,-0.5198,-0.8605,
0.259858,-0.0884,0.4089,0.7098,0.3963,-0.3146,-0.8371,0.9692,-0.5198,-0.8605,
0.260856,0.0343,0.3085,1.0506,0.3963,-0.3146,-0.8371,0.9692,-0.5198,-0.8605,
0.262270,0.0343,0.3085,1.0506,0.3963,-0.3146,-0.8371,-1.0985,0.4623,-0.4088,
0.263635,0.0343,0.3085,1.0506,0.4077,0.0200,-0.6807,-1.0985,0.4623,-0.4088,
0.297452,0.0343,0.3085,1.0506,0.4077,0.0200,-0.6807,-1.0154,-0.0383,-0.0274,
0.300105,0.0343,0.3085,1.0506,0.2660,0.2343,-0.5406,-1.0154,-0.0383,-0.0274,
0.333269,0.1781,0.1548,1.0872,0.2660,0.2343,-0.5406,-1.0154,-0.0383,-0.0274,
0.336471,0.2316,0.2296,1.0649,0.2660,0.2343,-0.5406,-1.0154,-0.0383,-0.0274,
0.338281,0.1768,0.2811,0.8649,0.2660,0.2343,-0.5406,-1.0154,-0.0383,-0.0274,
0.340433,0.2290,0.2324,0.7200,0.2660,0.2343,-0.5406,-1.0154,-0.0383,-0.0274,
0.342262,0.2290,0.2324,0.7200,-0.1196,-0.8895,1.1226,-1.0154,-0.0383,-0.0274,
0.343612,0.2290,0.2324,0.7200,-0.1196,-0.8895,1.1226,0.3044,-1.5840,-0.3342,
0.376165,0.2290,0.2324,0.7200,-0.1196,-0.8895,1.1226,0.0861,-1.4200,-0.7816,
0.379061,0.2290,0.2324,0.7200,-0.3818,-0.7910,1.0097,0.0861,-1.4200,-0.7816,
0.416791,0.2480,0.3368,0.7695,-0.3818,-0.7910,1.0097,0.0861,-1.4200,-0.7816,
0.418435,0.1630,0.3543,0.8030,-0.3818,-0.7910,1.0097,0.0861,-1.4200,-0.7816,
0.419745,0.1744,0.3138,0.7910,-0.3818,-0.7910,1.0097,0.0861,-1.4200,-0.7816,
0.420777,0.1744,0.3138,0.7910,-0.3818,-0.7910,1.0097,-0.3049,-1.1579,-0.6123,
0.421821,0.1744,0.3138,0.7910,-0.4978,0.1448,-0.3166,-0.3049,-1.1579,-0.6123,
0.454632,0.1744,0.3138,0.7910,-0.4978,0.1448,-0.3166,-0.8237,-1.6533,0.2772,
0.456652,0.1744,0.3138,0.7910,0.0961,0.5127,-2.0377,-0.8237,-1.6533,0.2772,
0.492784,0.0395,0.3398,0.5148,0.0961,0.5127,-2.0377,-0.8237,-1.6533,0.2772,
0.494439,0.4246,0.4143,0.5690,0.0961,0.5127,-2.0377,-0.8237,-1.6533,0.2772,
0.495880,0.8735,0.2254,0.7901,0.0961,0.5127,-2.0377,-0.8237,-1.6533,0.2772,
0.496856,0.6912,0.1065,0.9500,0.0961,0.5127,-2.0377,-0.8237,-1.6533,0.2772,
0.498048,0.6480,0.0589,0.7082,0.0961,0.5127,-2.0377,-0.8237,-1.6533,0.2772,
0.498932,0.6480,0.0589,0.7082,-0.6163,0.5139,-1.4447,-0.8237,-1.6533,0.2772,
0.499892,0.6480,0.0589,0.7082,-0.6163,0.5139,-1.4447,-0.3784,-2.7942,-0.1840,
0.534297,0.6480,0.0589,0.7082,-0.6163,0.5139,-1.4447,0.1265,-3.0477,-0.3332,
0.536443,0.6480,0.0589,0.7082,-1.2085,0.3631,-0.7842,0.1265,-3.0477,-0.3332,
0.571638,0.7070,0.1495,0.6144,-1.2085,0.3631,-0.7842,0.1265,-3.0477,-0.3332,
0.574076,0.7263,0.1503,0.7337,-1.2085,0.3631,-0.7842,0.1265,-3.0477,-0.3332,
0.575746,0.7476,0.1831,0.8468,-1.2085,0.3631,-0.7842,0.1265,-3.0477,-0.3332,
0.577362,0.7811,0.2207,0.8899,-1.2085,0.3631,-0.7842,0.1265,-3.0477,-0.3332,
0.581919,0.7811,0.2207,0.8899,-1.2085,0.3631,-0.7842,0.2214,-3.4482,-0.2533,
0.584141,0.7811,0.2207,0.8899,1.7472,-1.1605,1.6905,0.2214,-3.4482,-0.2533,
0.613216,0.7811,0.2207,0.8899,1.7472,-1.1605,1.6905,0.6986,-3.3417,-0.0690,
0.615133,0.7811,0.2207,0.8899,0.9046,-1.1812,2.2650,0.6986,-3.3417,-0.0690,
0.649122,0.8162,0.2159,0.8753,0.9046,-1.1812,2.2650,0.6986,-3.3417,-0.0690,
0.650734,0.8940,0.2224,0.7217,0.9046,-1.1812,2.2650,0.6986,-3.3417,-0.0690,
0.651664,1.0437,0.1671,0.4834,0.9046,-1.1812,2.2650,0.6986,-3.3417,-0.0690,
0.652657,1.1810,0.4456,0.6835,0.9046,-1.1812,2.2650,0.6986,-3.3417,-0.0690,
0.654761,1.1810,0.4456,0.6835,1.6232,-0.9262,2.4018,0.6986,-3.3417,-0.0690,
0.655987,1.1810,0.4456,0.6835,1.6232,-0.9262,2.4018,0.3055,-2.3372,-0.1851,
0.692279,1.1810,0.4456,0.6835,1.6232,-0.9262,2.4018,0.1692,-2.0304,-1.5412,
0.694118,1.1810,0.4456,0.6835,1.2927,-1.2515,2.6919,0.1692,-2.0304,-1.5412,
0.726788,1.2146,0.5948,0.8473,1.2927,-1.2515,2.6919,0.1692,-2.0304,-1.5412,
0.728973,0.9792,0.5449,0.7630,1.2927,-1.2515,2.6919,0.1692,-2.0304,-1.5412,
0.731096,0.4506,0.5112,0.3675,1.2927,-1.2515,2.6919,0.1692,-2.0304,-1.5412,
0.732736,0.2425,0.5385,0.3507,1.2927,-1.2515,2.6919,0.1692,-2.0304,-1.5412,
0.734142,0.2425,0.5385,0.3507,1.2927,-1.2515,2.6919,-0.3347,-0.6253,-1.9556,
0.735618,0.2425,0.5385,0.3507,3.8060,0.7826,2.3563,-0.3347,-0.6253,-1.9556,
0.771572,0.2425,0.5385,0.3507,3.8060,0.7826,2.3563,-1.7078,-0.3728,-0.0072,
0.773246,0.2425,0.5385,0.3507,3.3971,1.0121,2.0130,-1.7078,-0.3728,-0.0072,
0.801461,0.3131,0.5126,0.5472,3.3971,1.0121,2.0130,-1.7078,-0.3728,-0.0072,
0.804257,0.6380,0.5622,0.6467,3.3971,1.0121,2.0130,-1.7078,-0.3728,-0.0072,
0.805739,0.7322,0.4888,0.7459,3.3971,1.0121,2.0130,-1.7078,-0.3728,-0.0072,
0.810703,0.7322,0.4888,0.7459,3.3971,1.0121,2.0130,-1.8208,0.4602,0.7300,
0.812598,0.7322,0.4888,0.7459,-3.4818,1.8690,-1.1595,-1.8208,0.4602,0.7300,
0.851780,0.7322,0.4888,0.7459,-1.3188,2.0737,0.9422,-1.8208,0.4602,0.7300,
0.853561,0.7322,0.4888,0.7459,-1.3188,2.0737,0.9422,-0.9451,-0.0458,0.1963,
0.878333,0.6907,0.4717,0.6493,-1.3188,2.0737,0.9422,-0.9451,-0.0458,0.1963,
0.881045,0.6335,0.2501,0.6052,-1.3188,2.0737,0.9422,-0.9451,-0.0458,0.1963,
0.882534,0.4720,0.0425,0.7387,-1.3188,2.0737,0.9422,-0.9451,-0.0458,0.1963,
0.883880,0.5514,0.2741,0.7243,-1.3188,2.0737,0.9422,-0.9451,-0.0458,0.1963,
0.891211,0.5514,0.2741,0.7243,-1.3188,2.0737,0.9422,0.3705,-0.9523,1.2168,
0.893488,0.5514,0.2741,0.7243,-2.1400,-0.7218,1.2095,0.3705,-0.9523,1.2168,
0.930398,0.5514,0.2741,0.7243,-2.1400,-0.7218,1.2095,0.7870,-0.9236,1.2637,
0.931842,0.5514,0.2741,0.7243,0.5065,0.9788,0.1861,0.7870,-0.9236,1.2637,
0.956324,0.8498,0.4043,0.5852,0.5065,0.9788,0.1861,0.7870,-0.9236,1.2637,
0.958381,1.0023,0.3691,0.4540,0.5065,0.9788,0.1861,0.7870,-0.9236,1.2637,
0.960117,0.8741,0.2702,0.4448,0.5065,0.9788,0.1861,0.7870,-0.9236,1.2637,
0.961899,0.7227,0.2072,0.4514,0.5065,0.9788,0.1861,0.7870,-0.9236,1.2637,
0.969441,0.7227,0.2072,0.4514,0.5065,0.9788,0.1861,0.7305,-0.8629,0.6884,
0.971396,0.7227,0.2072,0.4514,0.2525,0.9896,0.5030,0.7305,-0.8629,0.6884,
1.009507,0.7227,0.2072,0.4514,-0.7497,-0.4548,-0.5177,0.7305,-0.8629,0.6884,
1.010956,0.7227,0.2072,0.4514,-0.7497,-0.4548,-0.5177,0.4909,-0.4751,1.0197,
1.039244,0.7739,0.1362,0.3994,-0.7497,-0.4548,-0.5177,0.4909,-0.4751,1.0197,
1.040741,0.9257,0.2232,0.2540,-0.7497,-0.4548,-0.5177,0.4909,-0.4751,1.0197,
1.041786,0.9645,0.1103,0.2026,-0.7497,-0.4548,-0.5177,0.4909,-0.4751,1.0197,
1.044162,1.0478,0.0279,0.3130,-0.7497,-0.4548,-0.5177,0.4909,-0.4751,1.0197,
1.052230,1.0478,0.0279,0.3130,-0.7497,-0.4548,-0.5177,0.2150,-0.9907,0.7513,
1.054029,1.0478,0.0279,0.3130,1.1633,-1.0233,-1.3456,0.2150,-0.9907,0.7513,
1.088588,1.0478,0.0279,0.3130,1.1633,-1.0233,-1.3456,0.7348,-0.8096,0.0493,
1.090063,1.0478,0.0279,0.3130,0.9527,-0.1270,0.0215,0.7348,-0.8096,0.0493,
1.111006,1.1175,0.0803,0.4240,0.9527,-0.1270,0.0215,0.7348,-0.8096,0.0493,
1.111998,1.0491,0.1464,0.4604,0.9527,-0.1270,0.0215,0.7348,-0.8096,0.0493,
1.112634,0.9606,0.2544,0.3801,0.9527,-0.1270,0.0215,0.7348,-0.8096,0.0493,
1.113202,0.8500,0.2952,0.1358,0.9527,-0.1270,0.0215,0.7348,-0.8096,0.0493,
1.127094,0.8500,0.2952,0.1358,0.9527,-0.1270,0.0215,1.0235,-0.3174,-0.2128,
1.128193,0.8500,0.2952,0.1358,0.8742,-0.3294,0.2110,1.0235,-0.3174,-0.2128,
1.167390,0.8500,0.2952,0.1358,0.8742,-0.3294,0.2110,0.5889,-0.4996,0.9398,
1.168647,0.8500,0.2952,0.1358,-2.8596,-0.7358,-1.9683,0.5889,-0.4996,0.9398,
1.180464,0.6591,0.2252,0.0522,-2.8596,-0.7358,-1.9683,0.5889,-0.4996,0.9398,
1.181769,0.5386,0.0596,0.1454,-2.8596,-0.7358,-1.9683,0.5889,-0.4996,0.9398,
1.182680,0.6318,-0.1157,0.2380,-2.8596,-0.7358,-1.9683,0.5889,-0.4996,0.9398,
1.183759,0.8352,-0.1915,0.1265,-2.8596,-0.7358,-1.9683,0.5889,-0.4996,0.9398,
1.207580,0.8352,-0.1915,0.1265,-2.8596,-0.7358,-1.9683,0.7508,0.1694,2.2032,
1.209405,0.8352,-0.1915,0.1265,-2.8253,-0.0357,-1.8756,0.7508,0.1694,2.2032,
1.246973,0.8352,-0.1915,0.1265,-1.2300,-2.7051,-2.1404,0.7508,0.1694,2.2032,
1.249635,0.8352,-0.1915,0.1265,-1.2300,-2.7051,-2.1404,0.7785,-0.0479,2.3971,
1.259272,0.8019,-0.2709,0.0389,-1.2300,-2.7051,-2.1404,0.7785,-0.0479,2.3971,
1.261512,0.7673,-0.3870,-0.0816,-1.2300,-2.7051,-2.1404,0.7785,-0.0479,2.3971,
1.263331,0.6143,-0.5091,-0.0527,-1.2300,-2.7051,-2.1404,0.7785,-0.0479,2.3971,
1.264562,0.6001,-0.6174,-0.0879,-1.2300,-2.7051,-2.1404,0.7785,-0.0479,2.3971,
1.290934,0.6001,-0.6174,-0.0879,-1.2300,-2.7051,-2.1404,0.3087,-0.6434,3.6818,
1.297262,0.6001,-0.6174,-0.0879,-1.2029,-1.3518,-1.8152,0.3087,-0.6434,3.6818,
1.327309,0.6001,-0.6174,-0.0879,-1.2029,-1.3518,-1.8152,0.6230,-2.4746,4.4030,
1.329242,0.6001,-0.6174,-0.0879,-2.2319,-2.6099,-2.5347,0.6230,-2.4746,4.4030,
1.330548,0.9019,-0.4691,-0.1735,-2.2319,-2.6099,-2.5347,0.6230,-2.4746,4.4030,
1.331872,1.0130,-0.5557,-0.0917,-2.2319,-2.6099,-2.5347,0.6230,-2.4746,4.4030,
1.333578,1.1856,-0.5505,0.2112,-2.2319,-2.6099,-2.5347,0.6230,-2.4746,4.4030,
1.366282,1.1856,-0.5505,0.2112,-2.2319,-2.6099,-2.5347,1.5561,-2.9454,4.2038,
1.368285,1.1856,-0.5505,0.2112,2.3157,-1.1649,-0.3807,1.5561,-2.9454,4.2038,
1.405909,1.1856,-0.5505,0.2112,2.3157,-1.1649,-0.3807,1.3196,-1.1334,3.0213,
1.407911,1.3248,-0.5085,0.2345,2.3157,-1.1649,-0.3807,1.3196,-1.1334,3.0213,
1.409388,1.6033,-0.3457,0.2676,2.3157,-1.1649,-0.3807,1.3196,-1.1334,3.0213,
1.410708,1.6598,-0.1819,0.2422,2.3157,-1.1649,-0.3807,1.3196,-1.1334,3.0213,
1.412143,1.4533,-0.2226,0.1906,2.3157,-1.1649,-0.3807,1.3196,-1.1334,3.0213,
1.413280,1.4533,-0.2226,0.1906,7.1091,2.0425,1.6300,1.3196,-1.1334,3.0213,
1.444440,1.4533,-0.2226,0.1906,7.1091,2.0425,1.6300,0.7604,-0.1193,1.6195,
1.446507,1.4533,-0.2226,0.1906,7.1113,2.4306,1.4490,0.7604,-0.1193,1.6195,
1.475988,1.3662,-0.3086,0.1520,7.1113,2.4306,1.4490,0.7604,-0.1193,1.6195,
1.477511,1.3381,-0.3503,0.1355,7.1113,2.4306,1.4490,0.7604,-0.1193,1.6195,
1.478202,1.3309,-0.3503,0.0987,7.1113,2.4306,1.4490,0.7604,-0.1193,1.6195,
1.485461,1.3309,-0.3503,0.0987,5.0010,2.3394,0.3981,0.7604,-0.1193,1.6195,
1.486893,1.3309,-0.3503,0.0987,5.0010,2.3394,0.3981,0.3779,-0.1907,1.0474,
1.524477,1.3309,-0.3503,0.0987,5.0010,2.3394,0.3981,0.1478,-0.1246,0.2836,
1.526341,1.3309,-0.3503,0.0987,3.5584,1.7503,0.2734,0.1478,-0.1246,0.2836,
1.554697,1.2842,-0.3572,0.1079,3.5584,1.7503,0.2734,0.1478,-0.1246,0.2836,
1.557031,1.1783,-0.3927,0.1543,3.5584,1.7503,0.2734,0.1478,-0.1246,0.2836,
1.558349,1.0182,-0.4699,0.1668,3.5584,1.7503,0.2734,0.1478,-0.1246,0.2836,
1.559679,0.8691,-0.5693,0.2308,3.5584,1.7503,0.2734,0.1478,-0.1246,0.2836,
1.561040,0.7814,-0.6437,0.1590,3.5584,1.7503,0.2734,0.1478,-0.1246,0.2836,
1.564562,0.7814,-0.6437,0.1590,3.5584,1.7503,0.2734,0.5207,0.2972,-0.2096,
1.566112,0.7814,-0.6437,0.1590,3.3852,1.5915,0.0593,0.5207,0.2972,-0.2096,
1.603509,0.7814,-0.6437,0.1590,3.3852,1.5915,0.0593,1.3409,0.3558,-0.3971,
1.605224,0.7814,-0.6437,0.1590,3.1896,1.3257,-0.3265,1.3409,0.3558,-0.3971,
1.633787,0.6918,-0.6359,0.0501,3.1896,1.3257,-0.3265,1.3409,0.3558,-0.3971,
1.636319,0.6223,-0.5386,-0.2275,3.1896,1.3257,-0.3265,1.3409,0.3558,-0.3971,
1.638637,0.6675,-0.5363,-0.1343,3.1896,1.3257,-0.3265,1.3409,0.3558,-0.3971,
1.643342,0.6675,-0.5363,-0.1343,3.1896,1.3257,-0.3265,1.4443,-0.7957,-0.5952,
1.646993,0.6675,-0.5363,-0.1343,-2.4359,-0.6731,-2.6115,1.4443,-0.7957,-0.5952,
1.683589,0.6675,-0.5363,-0.1343,-2.4359,-0.6731,-2.6115,1.4155,-0.9087,-0.6336,
1.685300,0.6675,-0.5363,-0.1343,-0.6937,-0.9603,-0.6493,1.4155,-0.9087,-0.6336,
1.710404,0.7230,-0.5859,0.0697,-0.6937,-0.9603,-0.6493,1.4155,-0.9087,-0.6336,
1.712139,0.8434,-0.5512,0.0803,-0.6937,-0.9603,-0.6493,1.4155,-0.9087,-0.6336,
1.713013,0.8806,-0.5397,0.0502,-0.6937,-0.9603,-0.6493,1.4155,-0.9087,-0.6336,
1.713883,0.8868,-0.5988,0.1339,-0.6937,-0.9603,-0.6493,1.4155,-0.9087,-0.6336,
1.723074,0.8868,-0.5988,0.1339,-0.6937,-0.9603,-0.6493,1.1844,-0.7073,-0.7124,
1.725248,0.8868,-0.5988,0.1339,-0.8253,-1.2356,-0.5792,1.1844,-0.7073,-0.7124,
1.763425,0.8868,-0.5988,0.1339,-0.8253,-1.2356,-0.5792,1.1481,-0.8341,-0.7859,
1.765928,0.8868,-0.5988,0.1339,1.2008,-1.8228,1.7486,1.1481,-0.8341,-0.7859,
1.790608,1.0511,-0.6113,0.1954,1.2008,-1.8228,1.7486,1.1481,-0.8341,-0.7859,
1.792851,1.1222,-0.5959,0.4107,1.2008,-1.8228,1.7486,1.1481,-0.8341,-0.7859,
1.794545,1.2371,-0.4598,0.4061,1.2008,-1.8228,1.7486,1.1481,-0.8341,-0.7859,
1.796080,1.2029,-0.3359,-0.2098,1.2008,-1.8228,1.7486,1.1481,-0.8341,-0.7859,
1.804544,1.2029,-0.3359,-0.2098,0.9164,-2.2992,1.9536,1.1481,-0.8341,-0.7859,
1.806886,1.2029,-0.3359,-0.2098,0.9164,-2.2992,1.9536,1.5295,-1.3273,-1.2940,
1.841326,1.2029,-0.3359,-0.2098,0.9164,-2.2992,1.9536,1.1343,-1.2357,-0.3705,
1.843702,1.2029,-0.3359,-0.2098,0.7925,-2.3975,2.1974,1.1343,-1.2357,-0.3705,
1.881854,0.8716,-0.3978,0.1361,0.7925,-2.3975,2.1974,1.1343,-1.2357,-0.3705,
1.886224,0.8716,-0.3978,0.1361,0.7925,-2.3975,2.1974,0.6762,-0.0106,1.2243,
1.889003,0.8716,-0.3978,0.1361,0.9346,-1.8846,2.0345,0.6762,-0.0106,1.2243,
1.920520,0.8716,-0.3978,0.1361,0.9346,-1.8846,2.0345,0.6112,-0.5145,1.7057,
1.922129,0.8716,-0.3978,0.1361,1.1585,-1.2254,2.0520,0.6112,-0.5145,1.7057,
1.960405,0.8716,-0.3978,0.1361,1.1585,-1.2254,2.0520,0.0296,-0.0724,0.5542,
1.962558,1.0155,-0.5341,0.0848,1.1585,-1.2254,2.0520,0.0296,-0.0724,0.5542,
1.963941,1.1364,-0.4865,-0.0427,1.1585,-1.2254,2.0520,0.0296,-0.0724,0.5542,
1.965001,0.7738,-0.3721,0.0421,1.1585,-1.2254,2.0520,0.0296,-0.0724,0.5542,
1.966568,0.5677,-0.2583,-0.0239,1.1585,-1.2254,2.0520,0.0296,-0.0724,0.5542,
1.967565,0.5677,-0.2583,-0.0239,0.5916,0.1334,-0.3681,0.0296,-0.0724,0.5542,
2.009171,0.5677,-0.2583,-0.0239,0.5916,0.1334,-0.3681,-0.2719,0.8820,0.3209,
2.010916,0.5677,-0.2583,-0.0239,0.6678,0.2537,-0.6165,-0.2719,0.8820,0.3209,
2.040162,0.5677,-0.2583,-0.0239,0.6678,0.2537,-0.6165,0.2586,0.2940,0.4850,
2.042460,0.5677,-0.2583,-0.0239,-1.9156,1.6088,-0.9054,0.2586,0.2940,0.4850,
2.043607,0.8379,-0.4063,0.1107,-1.9156,1.6088,-0.9054,0.2586,0.2940,0.4850,
2.044609,0.7357,-0.5747,0.1581,-1.9156,1.6088,-0.9054,0.2586,0.2940,0.4850,
2.045743,0.6207,-0.5918,0.0411,-1.9156,1.6088,-0.9054,0.2586,0.2940,0.4850,
2.046652,0.6732,-0.6492,0.2131,-1.9156,1.6088,-0.9054,0.2586,0.2940,0.4850,
2.078907,0.6732,-0.6492,0.2131,-1.9156,1.6088,-0.9054,1.0043,-1.2336,0.5116,
2.080363,0.6732,-0.6492,0.2131,-2.2878,-0.7765,0.2504,1.0043,-1.2336,0.5116,
2.120609,0.6732,-0.6492,0.2131,-2.2878,-0.7765,0.2504,1.6872,-0.3547,0.3646,
2.123095,0.6732,-0.6492,0.2131,0.3827,-1.5436,3.1580,1.6872,-0.3547,0.3646,
2.124212,0.8000,-0.7239,0.4159,0.3827,-1.5436,3.1580,1.6872,-0.3547,0.3646,
2.125210,0.9326,-0.6956,0.2812,0.3827,-1.5436,3.1580,1.6872,-0.3547,0.3646,
2.126362,1.1000,-0.6609,0.7034,0.3827,-1.5436,3.1580,1.6872,-0.3547,0.3646,
2.127235,0.8288,-0.4762,0.8615,0.3827,-1.5436,3.1580,1.6872,-0.3547,0.3646,
2.158935,0.8288,-0.4762,0.8615,0.4283,-1.5584,2.5676,1.6872,-0.3547,0.3646,
2.161248,0.8288,-0.4762,0.8615,0.4283,-1.5584,2.5676,1.5157,0.5603,0.1004,
2.198284,0.1445,0.0002,-1.4081,0.4283,-1.5584,2.5676,1.5157,0.5603,0.1004,
2.199987,0.2691,-0.2084,-0.0994,0.4283,-1.5584,2.5676,1.5157,0.5603,0.1004,
2.201037,0.4008,-0.4227,0.2431,0.4283,-1.5584,2.5676,1.5157,0.5603,0.1004,
2.204239,0.4008,-0.4227,0.2431,0.4283,-1.5584,2.5676,-0.6777,-0.3291,0.6266,
2.205749,0.4008,-0.4227,0.2431,-4.5207,3.1737,-3.7446,-0.6777,-0.3291,0.6266,
2.239078,0.4008,-0.4227,0.2431,-4.5207,3.1737,-3.7446,-0.2591,-1.3795,1.6599,
2.240443,0.4008,-0.4227,0.2431,-3.5988,1.8009,-1.1214,-0.2591,-1.3795,1.6599,
2.277448,0.4008,-0.4227,0.2431,-3.5988,1.8009,-1.1214,-0.4348,-1.0429,2.1319,
2.279258,0.4008,-0.4227,0.2431,-3.0163,2.4145,-0.6649,-0.4348,-1.0429,2.1319,
2.280309,0.3089,-0.4014,-0.2506,-3.0163,2.4145,-0.6649,-0.4348,-1.0429,2.1319,
2.281148,0.6905,-0.4388,-0.0044,-3.0163,2.4145,-0.6649,-0.4348,-1.0429,2.1319,
2.281957,0.7990,-0.5830,0.2720,-3.0163,2.4145,-0.6649,-0.4348,-1.0429,2.1319,
2.283015,0.9551,-0.5871,0.5656,-3.0163,2.4145,-0.6649,-0.4348,-1.0429,2.1319,
2.283957,0.9055,-0.5737,0.0044,-3.0163,2.4145,-0.6649,-0.4348,-1.0429,2.1319,
2.316996,0.9055,-0.5737,0.0044,-3.0163,2.4145,-0.6649,-0.2878,-0.2120,1.8410,
2.322783,0.9055,-0.5737,0.0044,1.5457,1.3475,2.2020,-0.2878,-0.2120,1.8410,
2.357217,0.9055,-0.5737,0.0044,1.5457,1.3475,2.2020,-0.4753,-0.0192,1.9540,
2.359378,0.9055,-0.5737,0.0044,-0.7769,0.0262,-0.6218,-0.4753,-0.0192,1.9540,
2.360828,0.5777,-0.6125,-0.2814,-0.7769,0.0262,-0.6218,-0.4753,-0.0192,1.9540,
2.362722,0.3798,-0.7503,0.0645,-0.7769,0.0262,-0.6218,-0.4753,-0.0192,1.9540,
2.364278,0.8112,-0.9506,0.1452,-0.7769,0.0262,-0.6218,-0.4753,-0.0192,1.9540,
2.366265,1.0111,-1.4862,-0.1583,-0.7769,0.0262,-0.6218,-0.4753,-0.0192,1.9540,
2.395983,1.0111,-1.4862,-0.1583,-0.7769,0.0262,-0.6218,-0.1174,-0.8011,1.0453,
2.397745,1.0111,-1.4862,-0.1583,-0.4529,0.2848,-0.3742,-0.1174,-0.8011,1.0453,
2.439487,0.8630,-1.4908,-0.3266,-0.4529,0.2848,-0.3742,-0.1174,-0.8011,1.0453,
2.442657,0.8647,-1.0476,-0.1741,-0.4529,0.2848,-0.3742,-0.1174,-0.8011,1.0453,
2.444379,0.5576,-1.0235,-0.1412,-0.4529,0.2848,-0.3742,-0.1174,-0.8011,1.0453,
2.445828,0.5576,-1.0235,-0.1412,-0.4529,0.2848,-0.3742,-0.1866,-1.1867,0.1952,
2.447259,0.5576,-1.0235,-0.1412,2.7055,-5.1188,-1.8929,-0.1866,-1.1867,0.1952,
2.475812,0.5576,-1.0235,-0.1412,2.7055,-5.1188,-1.8929,-1.3744,-1.0983,0.9388,
2.477515,0.5576,-1.0235,-0.1412,0.7743,0.8321,-1.1415,-1.3744,-1.0983,0.9388,
2.515163,0.5576,-1.0235,-0.1412,0.7743,0.8321,-1.1415,-1.2444,-0.4016,1.2978,
2.517086,0.5576,-1.0235,-0.1412,1.1898,1.0363,-0.6231,-1.2444,-0.4016,1.2978,
2.517923,0.8410,-0.6328,-0.2685,1.1898,1.0363,-0.6231,-1.2444,-0.4016,1.2978,
2.518882,0.6549,-0.5986,-0.2455,1.1898,1.0363,-0.6231,-1.2444,-0.4016,1.2978,
2.520368,0.4726,-0.7019,-0.2135,1.1898,1.0363,-0.6231,-1.2444,-0.4016,1.2978,
2.521076,0.6966,-0.7796,-0.1783,1.1898,1.0363,-0.6231,-1.2444,-0.4016,1.2978,
2.521727,0.6942,-0.7498,-0.1392,1.1898,1.0363,-0.6231,-1.2444,-0.4016,1.2978,
2.554919,0.6942,-0.7498,-0.1392,1.1898,1.0363,-0.6231,0.6943,0.4123,0.8610,
2.556800,0.6942,-0.7498,-0.1392,0.8156,1.3002,-0.5267,0.6943,0.4123,0.8610,
2.598151,0.6942,-0.7498,-0.1392,0.8156,1.3002,-0.5267,0.9276,0.7074,1.2743,
2.600181,0.5014,-0.8397,-0.2597,0.8156,1.3002,-0.5267,0.9276,0.7074,1.2743,
2.601402,0.4357,-0.7696,-0.1873,0.8156,1.3002,-0.5267,0.9276,0.7074,1.2743,
2.602770,0.3576,-0.7083,-0.1695,0.8156,1.3002,-0.5267,0.9276,0.7074,1.2743,
2.604173,0.2019,-0.7967,-0.1429,0.8156,1.3002,-0.5267,0.9276,0.7074,1.2743,
2.605635,0.2019,-0.7967,-0.1429,-0.6127,1.2785,-1.2384,0.9276,0.7074,1.2743,
2.634118,0.2019,-0.7967,-0.1429,-0.6127,1.2785,-1.2384,0.0775,0.6328,0.8280,
2.635877,0.2019,-0.7967,-0.1429,-0.3286,1.4002,-1.3493,0.0775,0.6328,0.8280,
2.674267,0.2019,-0.7967,-0.1429,-0.3286,1.4002,-1.3493,-0.2548,0.0980,-0.9159,
2.677317,0.2019,-0.7967,-0.1429,-2.2149,4.2053,-0.4653,-0.2548,0.0980,-0.9159,
2.679068,0.2264,-0.4674,-0.1336,-2.2149,4.2053,-0.4653,-0.2548,0.0980,-0.9159,
2.680524,0.3720,-0.1088,-0.0950,-2.2149,4.2053,-0.4653,-0.2548,0.0980,-0.9159,
2.681772,0.1851,-0.3084,-0.0288,-2.2149,4.2053,-0.4653,-0.2548,0.0980,-0.9159,
2.683223,0.2007,-0.1818,-0.0669,-2.2149,4.2053,-0.4653,-0.2548,0.0980,-0.9159,
2.713401,0.2007,-0.1818,-0.0669,-2.2149,4.2053,-0.4653,0.8531,-0.4208,-0.3758,
2.714924,0.2007,-0.1818,-0.0669,-2.2775,4.0554,-0.6595,0.8531,-0.4208,-0.3758,
2.755162,0.2007,-0.1818,-0.0669,-2.2465,6.6070,0.1909,0.8531,-0.4208,-0.3758,
2.757536,0.1902,-0.1716,0.1222,-2.2465,6.6070,0.1909,0.8531,-0.4208,-0.3758,
2.758615,-0.1450,-0.5727,0.0225,-2.2465,6.6070,0.1909,0.8531,-0.4208,-0.3758,
2.759850,-0.5019,-0.8717,-0.4011,-2.2465,6.6070,0.1909,0.8531,-0.4208,-0.3758,
2.761487,-0.5019,-0.8717,-0.4011,-2.2465,6.6070,0.1909,0.8967,0.7596,2.0765,
2.793620,-0.5019,-0.8717,-0.4011,-2.2465,6.6070,0.1909,-0.8727,-0.2983,5.1988,
2.796096,-0.5019,-0.8717,-0.4011,-5.5585,0.9689,-2.3278,-0.8727,-0.2983,5.1988,
2.834826,-0.5019,-0.8717,-0.4011,-3.4331,1.1374,-1.7824,-0.8727,-0.2983,5.1988,
2.837159,-0.5019,-0.8717,-0.4011,-3.4331,1.1374,-1.7824,-1.0676,-2.6642,5.1945,
2.838561,-0.4071,-1.1351,-0.4898,-3.4331,1.1374,-1.7824,-1.0676,-2.6642,5.1945,
2.839986,-0.0211,-1.2570,-0.5113,-3.4331,1.1374,-1.7824,-1.0676,-2.6642,5.1945,
2.841265,-0.3619,-3.8227,-0.2973,-3.4331,1.1374,-1.7824,-1.0676,-2.6642,5.1945,
2.842623,-0.0539,-2.0473,-0.2882,-3.4331,1.1374,-1.7824,-1.0676,-2.6642,5.1945,
2.843975,0.1533,-1.4847,-0.3105,-3.4331,1.1374,-1.7824,-1.0676,-2.6642,5.1945,
2.872810,0.1533,-1.4847,-0.3105,-3.4331,1.1374,-1.7824,-0.9568,-2.7345,2.8935,
2.875531,0.1533,-1.4847,-0.3105,-0.1902,-13.5262,-2.1933,-0.9568,-2.7345,2.8935,
2.911983,0.1533,-1.4847,-0.3105,-0.1902,-13.5262,-2.1933,-0.0034,0.5092,0.5606,
2.914622,0.1533,-1.4847,-0.3105,3.8079,-3.9720,0.4020,-0.0034,0.5092,0.5606,
2.915948,0.1821,-1.6848,0.1606,3.8079,-3.9720,0.4020,-0.0034,0.5092,0.5606,
2.916892,0.4201,-1.0506,-0.1595,3.8079,-3.9720,0.4020,-0.0034,0.5092,0.5606,
2.917842,0.1164,-0.9030,-0.2706,3.8079,-3.9720,0.4020,-0.0034,0.5092,0.5606,
2.918892,-0.1181,-0.8187,-0.1932,3.8079,-3.9720,0.4020,-0.0034,0.5092,0.5606,
2.951323,-0.1181,-0.8187,-0.1932,3.8079,-3.9720,0.4020,0.1692,0.5870,0.0855,
2.952821,-0.1181,-0.8187,-0.1932,3.7258,-3.8810,0.3598,0.1692,0.5870,0.0855,
2.982477,-0.0631,-0.6673,-0.1734,3.7258,-3.8810,0.3598,0.1692,0.5870,0.0855,
2.984349,0.0422,-0.6817,0.0211,3.7258,-3.8810,0.3598,0.1692,0.5870,0.0855,
2.985530,-0.0431,-0.8151,0.0174,3.7258,-3.8810,0.3598,0.1692,0.5870,0.0855,
2.990980,-0.0431,-0.8151,0.0174,3.7258,-3.8810,0.3598,0.1329,-0.4378,0.1792,
2.992744,-0.0431,-0.8151,0.0174,1.1148,2.0537,-0.7695,0.1329,-0.4378,0.1792,
3.032186,-0.0431,-0.8151,0.0174,1.1148,2.0537,-0.7695,0.2608,-0.3867,-0.1702,
3.034698,-0.0431,-0.8151,0.0174,0.8632,1.9462,0.6101,0.2608,-0.3867,-0.1702,
3.069549,-0.0431,-0.8151,0.0174,0.8632,1.9462,0.6101,-0.8162,0.4751,-0.1563,
3.071800,-0.1208,-0.9191,-0.2120,0.8632,1.9462,0.6101,-0.8162,0.4751,-0.1563,
3.073309,-0.0866,-1.2971,-0.5052,0.8632,1.9462,0.6101,-0.8162,0.4751,-0.1563,
3.074590,-0.2095,-1.8426,-1.2342,0.8632,1.9462,0.6101,-0.8162,0.4751,-0.1563,
3.076077,0.2999,-1.4068,-0.8257,0.8632,1.9462,0.6101,-0.8162,0.4751,-0.1563,
3.077360,0.2535,-0.7706,0.2294,0.8632,1.9462,0.6101,-0.8162,0.4751,-0.1563,
3.078543,0.2535,-0.7706,0.2294,1.1627,-4.9466,-6.7216,-0.8162,0.4751,-0.1563,
3.110282,0.2535,-0.7706,0.2294,1.1627,-4.9466,-6.7216,-1.6301,-0.6604,-0.2703,
3.112747,0.2535,-0.7706,0.2294,1.0875,-4.9582,-5.9898,-1.6301,-0.6604,-0.2703,
3.149691,0.2535,-0.7706,0.2294,1.0875,-4.9582,-5.9898,-0.1760,-1.2080,-0.2831,
3.151759,0.2535,-0.7706,0.2294,1.9800,3.4796,6.3183,-0.1760,-1.2080,-0.2831,
3.153325,0.0321,-0.5734,0.7625,1.9800,3.4796,6.3183,-0.1760,-1.2080,-0.2831,
3.154526,0.0018,-0.5962,0.2448,1.9800,3.4796,6.3183,-0.1760,-1.2080,-0.2831,
3.156118,0.0668,-1.0095,-0.2474,1.9800,3.4796,6.3183,-0.1760,-1.2080,-0.2831,
3.157209,-0.0810,-1.3198,-0.3681,1.9800,3.4796,6.3183,-0.1760,-1.2080,-0.2831,
3.190603,-0.0810,-1.3198,-0.3681,1.9800,3.4796,6.3183,0.1393,0.0096,-0.3044,
3.192721,-0.0810,-1.3198,-0.3681,1.8237,3.4339,6.1387,0.1393,0.0096,-0.3044,
3.229202,-0.0810,-1.3198,-0.3681,1.8237,3.4339,6.1387,-0.1291,-0.9087,-0.1808,
3.231252,-0.0810,-1.3198,-0.3681,1.0174,-1.8394,-0.4460,-0.1291,-0.9087,-0.1808,
3.232832,0.0593,-1.2350,-0.1717,1.0174,-1.8394,-0.4460,-0.1291,-0.9087,-0.1808,
3.233928,0.3258,-1.0071,-0.1197,1.0174,-1.8394,-0.4460,-0.1291,-0.9087,-0.1808,
3.235296,0.1843,-0.9717,-0.1952,1.0174,-1.8394,-0.4460,-0.1291,-0.9087,-0.1808,
3.236668,-0.0644,-1.0569,-0.1763,1.0174,-1.8394,-0.4460,-0.1291,-0.9087,-0.1808,
3.268190,-0.0644,-1.0569,-0.1763,1.0174,-1.8394,-0.4460,-0.0471,-1.1942,-0.2202,
3.270542,-0.0644,-1.0569,-0.1763,2.2958,-0.1066,0.4885,-0.0471,-1.1942,-0.2202,
3.308877,-0.0644,-1.0569,-0.1763,2.2958,-0.1066,0.4885,0.1170,-1.1068,-0.1158,
3.310625,-0.1364,-1.0909,-0.1241,2.2958,-0.1066,0.4885,0.1170,-1.1068,-0.1158,
3.312341,-0.0951,-1.0454,-0.0857,2.2958,-0.1066,0.4885,0.1170,-1.1068,-0.1158,
3.313825,-0.0617,-0.9866,-0.0593,2.2958,-0.1066,0.4885,0.1170,-1.1068,-0.1158,
3.315272,-0.0172,-0.9655,-0.0559,2.2958,-0.1066,0.4885,0.1170,-1.1068,-0.1158,
3.316972,-0.0172,-0.9655,-0.0559,-0.0718,-0.3710,1.1094,0.1170,-1.1068,-0.1158,
3.347455,-0.0172,-0.9655,-0.0559,-0.0718,-0.3710,1.1094,0.3044,-1.3092,-0.0860,
3.349695,-0.0172,-0.9655,-0.0559,-0.0061,-0.3384,0.9251,0.3044,-1.3092,-0.0860,
3.387594,-0.0172,-0.9655,-0.0559,-0.0061,-0.3384,0.9251,0.5143,-1.0759,-0.0892,
3.390094,-0.0172,-0.9655,-0.0559,0.8851,0.2321,1.2729,0.5143,-1.0759,-0.0892,
3.391887,0.0050,-0.9831,-0.0190,0.8851,0.2321,1.2729,0.5143,-1.0759,-0.0892,
3.393066,-0.0145,-1.0098,-0.0061,0.8851,0.2321,1.2729,0.5143,-1.0759,-0.0892,
3.394167,0.0097,-0.9880,-0.0356,0.8851,0.2321,1.2729,0.5143,-1.0759,-0.0892,
3.395264,0.0055,-0.9497,-0.0754,0.8851,0.2321,1.2729,0.5143,-1.0759,-0.0892,
3.426849,0.0055,-0.9497,-0.0754,0.8851,0.2321,1.2729,0.4962,-0.9790,0.0301,
3.428998,0.0055,-0.9497,-0.0754,0.9344,0.2540,1.0200,0.4962,-0.9790,0.0301,
3.469752,0.0055,-0.9497,-0.0754,0.9344,0.2540,1.0200,0.2863,-1.0322,0.2165,
3.473345,0.0055,-0.9497,-0.0754,0.9435,0.5333,0.4258,0.2863,-1.0322,0.2165,
3.474511,-0.0749,-0.9335,-0.1013,0.9435,0.5333,0.4258,0.2863,-1.0322,0.2165,
3.476166,-0.1017,-0.9230,-0.0911,0.9435,0.5333,0.4258,0.2863,-1.0322,0.2165,
3.477435,-0.0829,-0.9404,-0.0654,0.9435,0.5333,0.4258,0.2863,-1.0322,0.2165,
3.478726,-0.0951,-0.9702,-0.0723,0.9435,0.5333,0.4258,0.2863,-1.0322,0.2165,
3.506575,-0.0951,-0.9702,-0.0723,0.9435,0.5333,0.4258,0.0200,-0.6743,0.3252,
3.510238,-0.0951,-0.9702,-0.0723,0.3745,0.6300,0.3262,0.0200,-0.6743,0.3252,
3.546170,-0.0951,-0.9702,-0.0723,0.3745,0.6300,0.3262,-0.4668,-0.2162,0.3134,
3.548800,-0.0951,-0.9702,-0.0723,0.2318,0.2074,0.2901,-0.4668,-0.2162,0.3134,
3.550133,-0.1069,-0.9809,-0.1197,0.2318,0.2074,0.2901,-0.4668,-0.2162,0.3134,
3.551082,-0.1254,-0.9914,-0.1341,0.2318,0.2074,0.2901,-0.4668,-0.2162,0.3134,
3.552461,-0.1303,-0.9778,-0.0368,0.2318,0.2074,0.2901,-0.4668,-0.2162,0.3134,
3.553690,-0.0741,-0.9355,0.0355,0.2318,0.2074,0.2901,-0.4668,-0.2162,0.3134,
3.585807,-0.0741,-0.9355,0.0355,0.2318,0.2074,0.2901,-0.7459,0.5241,0.0152,
3.588355,-0.0741,-0.9355,0.0355,0.2045,0.1623,0.5993,-0.7459,0.5241,0.0152,
3.625463,-0.0741,-0.9355,0.0355,0.2045,0.1623,0.5993,-0.5158,1.4562,-0.8690,
3.627951,-0.0741,-0.9355,0.0355,0.2992,0.6861,2.2520,-0.5158,1.4562,-0.8690,
3.629358,-0.0443,-0.9274,0.0333,0.2992,0.6861,2.2520,-0.5158,1.4562,-0.8690,
3.630840,-0.0802,-0.9250,0.0765,0.2992,0.6861,2.2520,-0.5158,1.4562,-0.8690,
3.632230,-0.4970,-0.9682,0.0452,0.2992,0.6861,2.2520,-0.5158,1.4562,-0.8690,
3.633671,-0.9703,-1.1576,-0.3891,0.2992,0.6861,2.2520,-0.5158,1.4562,-0.8690,
3.664838,-0.9703,-1.1576,-0.3891,0.2992,0.6861,2.2520,-0.1099,1.6373,-0.8956,
3.667378,-0.9703,-1.1576,-0.3891,-0.1652,0.6915,2.3006,-0.1099,1.6373,-0.8956,
3.704971,-0.9703,-1.1576,-0.3891,-0.1652,0.6915,2.3006,-0.1909,1.1303,-0.4482,
3.707875,-0.9703,-1.1576,-0.3891,-6.7609,-0.7102,-1.0206,-0.1909,1.1303,-0.4482,
3.709272,-0.7074,-1.0926,-0.5604,-6.7609,-0.7102,-1.0206,-0.1909,1.1303,-0.4482,
3.710583,-0.3145,-1.0266,-0.4544,-6.7609,-0.7102,-1.0206,-0.1909,1.1303,-0.4482,
3.711918,-0.0531,-1.1153,-0.3664,-6.7609,-0.7102,-1.0206,-0.1909,1.1303,-0.4482,
3.713101,-0.0238,-1.2055,-0.4268,-6.7609,-0.7102,-1.0206,-0.1909,1.1303,-0.4482,
3.744856,-0.0238,-1.2055,-0.4268,-6.7609,-0.7102,-1.0206,-0.1547,1.0685,-0.8754,
3.747500,-0.0238,-1.2055,-0.4268,-1.3366,-1.1202,-2.0410,-0.1547,1.0685,-0.8754,
3.783720,-0.0238,-1.2055,-0.4268,-1.3366,-1.1202,-2.0410,0.0861,1.0440,-1.2099,
3.785658,-0.0238,-1.2055,-0.4268,-2.1877,1.5771,0.6105,0.0861,1.0440,-1.2099,
3.786695,-0.1176,-1.0489,-0.3821,-2.1877,1.5771,0.6105,0.0861,1.0440,-1.2099,
3.787554,-0.1824,-0.8099,-0.1199,-2.1877,1.5771,0.6105,0.0861,1.0440,-1.2099,
3.788444,-0.1938,-0.6519,0.0836,-2.1877,1.5771,0.6105,0.0861,1.0440,-1.2099,
3.789843,-0.2901,-0.5998,-0.0132,-2.1877,1.5771,0.6105,0.0861,1.0440,-1.2099,
3.822624,-0.2901,-0.5998,-0.0132,-2.1877,1.5771,0.6105,0.6688,1.1207,-1.1587,
3.824655,-0.2901,-0.5998,-0.0132,-2.6738,1.5605,0.3083,0.6688,1.1207,-1.1587,
3.862678,-0.2901,-0.5998,-0.0132,-2.6738,1.5605,0.3083,0.4014,0.7574,-0.5036,
3.864742,-0.2901,-0.5998,-0.0132,-4.6787,2.2086,0.2203,0.4014,0.7574,-0.5036,
3.865846,-0.3739,-0.7146,-0.1209,-4.6787,2.2086,0.2203,0.4014,0.7574,-0.5036,
3.866760,-0.3937,-0.9868,-0.2516,-4.6787,2.2086,0.2203,0.4014,0.7574,-0.5036,
3.867648,-0.2383,-1.1009,-0.3860,-4.6787,2.2086,0.2203,0.4014,0.7574,-0.5036,
3.868462,-0.1203,-1.1134,-0.6261,-4.6787,2.2086,0.2203,0.4014,0.7574,-0.5036,
3.902386,-0.1203,-1.1134,-0.6261,-4.6787,2.2086,0.2203,-0.9078,-0.0650,-0.0636,
3.905139,-0.1203,-1.1134,-0.6261,-4.6198,2.1103,0.5626,-0.9078,-0.0650,-0.0636,
3.942782,-0.0798,-1.1947,-0.8760,-4.6198,2.1103,0.5626,-0.9078,-0.0650,-0.0636,
3.945160,-0.0749,-1.2912,-0.6503,-4.6198,2.1103,0.5626,-0.9078,-0.0650,-0.0636,
3.946546,-0.2256,-1.2064,-0.3596,-4.6198,2.1103,0.5626,-0.9078,-0.0650,-0.0636,
3.947859,-0.2256,-1.2064,-0.3596,-4.6198,2.1103,0.5626,-1.7973,-0.3473,0.2165,
3.949124,-0.2256,-1.2064,-0.3596,-2.4432,-1.6258,-3.5883,-1.7973,-0.3473,0.2165,
3.980979,-0.2256,-1.2064,-0.3596,-2.4432,-1.6258,-3.5883,-1.3361,0.8650,0.9185,
3.983137,-0.2256,-1.2064,-0.3596,-2.8940,-1.8787,-1.7314,-1.3361,0.8650,0.9185,
4.022327,-0.2256,-1.2064,-0.3596,-2.8940,-1.8787,-1.7314,-0.9046,0.7830,1.4576,
4.024323,-0.2256,-1.2064,-0.3596,-2.4126,-1.9332,-1.3877,-0.9046,0.7830,1.4576,
4.025729,-0.3658,-0.9626,-0.4629,-2.4126,-1.9332,-1.3877,-0.9046,0.7830,1.4576,
4.026645,-0.4912,-0.8314,-0.4534,-2.4126,-1.9332,-1.3877,-0.9046,0.7830,1.4576,
4.027553,-0.4579,-0.8549,-0.1976,-2.4126,-1.9332,-1.3877,-0.9046,0.7830,1.4576,
4.028572,-0.2701,-0.9863,-0.0432,-2.4126,-1.9332,-1.3877,-0.9046,0.7830,1.4576,
4.029865,-0.0172,-1.0794,-0.2110,-2.4126,-1.9332,-1.3877,-0.9046,0.7830,1.4576,
4.060281,-0.0172,-1.0794,-0.2110,-2.4126,-1.9332,-1.3877,-0.1110,0.2077,1.5311,
4.062547,-0.0172,-1.0794,-0.2110,-3.6184,0.6126,1.1761,-0.1110,0.2077,1.5311,
4.099977,-0.0172,-1.0794,-0.2110,-3.6184,0.6126,1.1761,0.2735,-0.4911,1.2466,
4.101743,-0.0172,-1.0794,-0.2110,1.1758,-1.1847,0.2887,0.2735,-0.4911,1.2466,
4.102842,0.0866,-1.1109,-0.3317,1.1758,-1.1847,0.2887,0.2735,-0.4911,1.2466,
4.103740,0.0236,-1.0406,-0.3865,1.1758,-1.1847,0.2887,0.2735,-0.4911,1.2466,
4.104515,-0.0671,-0.9072,-0.3950,1.1758,-1.1847,0.2887,0.2735,-0.4911,1.2466,
4.105311,-0.1272,-0.8092,-0.3425,1.1758,-1.1847,0.2887,0.2735,-0.4911,1.2466,
4.144635,-0.1272,-0.8092,-0.3425,1.5915,-1.1300,0.0324,0.2735,-0.4911,1.2466,
4.148413,-0.1272,-0.8092,-0.3425,1.5915,-1.1300,0.0324,0.6134,-0.6264,0.9760,
4.180481,-0.1272,-0.8092,-0.3425,1.5915,-1.1300,0.0324,1.0160,-0.4719,0.5734,
4.182984,-0.1272,-0.8092,-0.3425,0.4889,1.3702,-0.6900,1.0160,-0.4719,0.5734,
4.184281,-0.1301,-0.7674,-0.2917,0.4889,1.3702,-0.6900,1.0160,-0.4719,0.5734,
4.185646,-0.1162,-0.7188,-0.2875,0.4889,1.3702,-0.6900,1.0160,-0.4719,0.5734,
4.186948,-0.2256,-0.6687,-0.3271,0.4889,1.3702,-0.6900,1.0160,-0.4719,0.5734,
4.188291,-0.4364,-0.6868,-0.4089,0.4889,1.3702,-0.6900,1.0160,-0.4719,0.5734,
4.219550,-0.4364,-0.6868,-0.4089,0.4889,1.3702,-0.6900,0.6656,-1.2794,0.2666,
4.221835,-0.4364,-0.6868,-0.4089,-0.7549,2.7107,-0.9908,0.6656,-1.2794,0.2666,
4.258803,-0.4364,-0.6868,-0.4089,-0.7549,2.7107,-0.9908,-0.1717,-0.9214,0.2495,
4.261501,-0.4364,-0.6868,-0.4089,-0.0591,0.0656,-0.8393,-0.1717,-0.9214,0.2495,
4.262817,-0.4660,-0.7923,-0.5741,-0.0591,0.0656,-0.8393,-0.1717,-0.9214,0.2495,
4.264098,-0.2109,-1.0029,-0.3410,-0.0591,0.0656,-0.8393,-0.1717,-0.9214,0.2495,
4.265225,0.0568,-1.0779,-0.0652,-0.0591,0.0656,-0.8393,-0.1717,-0.9214,0.2495,
4.266684,0.1076,-1.1094,-0.3442,-0.0591,0.0656,-0.8393,-0.1717,-0.9214,0.2495,
4.298219,0.1076,-1.1094,-0.3442,-0.0591,0.0656,-0.8393,-0.0109,-0.1566,-0.1798,
4.300126,0.1076,-1.1094,-0.3442,-0.1099,0.0771,-0.8334,-0.0109,-0.1566,-0.1798,
4.338737,0.1076,-1.1094,-0.3442,-0.1099,0.0771,-0.8334,0.0882,0.2834,-0.4663,
4.341088,0.1076,-1.1094,-0.3442,3.2963,-2.8267,-0.1605,0.0882,0.2834,-0.4663,
4.344027,0.1076,-1.2839,-0.3359,3.2963,-2.8267,-0.1605,0.0882,0.2834,-0.4663,
4.345331,0.2862,-1.3963,-0.0911,3.2963,-2.8267,-0.1605,0.0882,0.2834,-0.4663,
4.346626,0.4294,-1.1832,0.0233,3.2963,-2.8267,-0.1605,0.0882,0.2834,-0.4663,
4.347870,0.0781,-0.8346,-0.0132,3.2963,-2.8267,-0.1605,0.0882,0.2834,-0.4663,
4.377920,0.0781,-0.8346,-0.0132,3.2963,-2.8267,-0.1605,-0.1344,-0.1555,-0.4866,
4.380538,0.0781,-0.8346,-0.0132,3.0745,-2.7622,-0.1170,-0.1344,-0.1555,-0.4866,
4.418149,0.0781,-0.8346,-0.0132,3.0745,-2.7622,-0.1170,0.0371,-0.0554,-0.1819,
4.420540,0.0781,-0.8346,-0.0132,2.3253,0.5045,1.9524,0.0371,-0.0554,-0.1819,
4.421984,-0.2036,-0.7733,-0.1324,2.3253,0.5045,1.9524,0.0371,-0.0554,-0.1819,
4.424034,-0.0543,-0.9250,0.0516,2.3253,0.5045,1.9524,0.0371,-0.0554,-0.1819,
4.425517,0.0136,-1.0982,0.1114,2.3253,0.5045,1.9524,0.0371,-0.0554,-0.1819,
4.426672,-0.0827,-1.1786,-0.1585,2.3253,0.5045,1.9524,0.0371,-0.0554,-0.1819,
4.457566,-0.0827,-1.1786,-0.1585,2.3253,0.5045,1.9524,0.4727,0.3643,-0.2224,
4.459361,-0.0827,-1.1786,-0.1585,0.7983,-0.7702,2.1674,0.4727,0.3643,-0.2224,
4.496658,-0.0827,-1.1786,-0.1585,0.7983,-0.7702,2.1674,0.2000,-0.4122,-0.0189,
4.498762,-0.0827,-1.1786,-0.1585,1.7797,0.0141,-0.6045,0.2000,-0.4122,-0.0189,
4.500047,-0.0470,-1.0745,-0.3298,1.7797,0.0141,-0.6045,0.2000,-0.4122,-0.0189,
4.502377,0.0856,-0.9487,-0.2697,1.7797,0.0141,-0.6045,0.2000,-0.4122,-0.0189,
4.503611,0.1394,-0.9438,-0.2181,1.7797,0.0141,-0.6045,0.2000,-0.4122,-0.0189,
4.504702,0.0788,-1.0032,-0.2259,1.7797,0.0141,-0.6045,0.2000,-0.4122,-0.0189,
4.536424,0.0788,-1.0032,-0.2259,1.7797,0.0141,-0.6045,0.1617,-0.8149,-0.0338,
4.539667,0.0788,-1.0032,-0.2259,1.8011,0.0282,-0.6944,0.1617,-0.8149,-0.0338,
4.576519,0.0788,-1.0032,-0.2259,1.8011,0.0282,-0.6944,0.2650,-0.7776,-0.1073,
4.579472,0.0788,-1.0032,-0.2259,1.5089,-0.1185,0.0770,0.2650,-0.7776,-0.1073,
4.580737,0.0238,-1.0213,-0.1825,1.5089,-0.1185,0.0770,0.2650,-0.7776,-0.1073,
4.581866,-0.0116,-0.9958,-0.1297,1.5089,-0.1185,0.0770,0.2650,-0.7776,-0.1073,
4.582916,-0.0438,-0.9714,-0.1307,1.5089,-0.1185,0.0770,0.2650,-0.7776,-0.1073,
4.584199,-0.0478,-0.9780,-0.1483,1.5089,-0.1185,0.0770,0.2650,-0.7776,-0.1073,
4.616018,-0.0478,-0.9780,-0.1483,1.5089,-0.1185,0.0770,0.3002,-0.9182,-0.0413,
4.618535,-0.0478,-0.9780,-0.1483,1.5308,-0.0941,-0.0825,0.3002,-0.9182,-0.0413,
4.640469,-0.0038,-1.0027,-0.1238,1.5308,-0.0941,-0.0825,0.3002,-0.9182,-0.0413,
4.642841,0.0382,-1.0364,-0.1082,1.5308,-0.0941,-0.0825,0.3002,-0.9182,-0.0413,
4.644171,0.0649,-1.0276,-0.0894,1.5308,-0.0941,-0.0825,0.3002,-0.9182,-0.0413,
4.654927,0.0649,-1.0276,-0.0894,1.5308,-0.0941,-0.0825,0.3108,-1.0290,0.0482,
4.656597,0.0649,-1.0276,-0.0894,0.9886,0.1433,0.1841,0.3108,-1.0290,0.0482,
4.695685,0.0649,-1.0276,-0.0894,0.9886,0.1433,0.1841,0.3119,-0.9768,-0.0083,
4.698170,0.0649,-1.0276,-0.0894,1.7621,-0.2142,0.4924,0.3119,-0.9768,-0.0083,
4.729284,0.0316,-1.0041,-0.0554,1.7621,-0.2142,0.4924,0.3119,-0.9768,-0.0083,
4.731785,-0.0258,-0.9670,-0.0320,1.7621,-0.2142,0.4924,0.3119,-0.9768,-0.0083,
4.733580,-0.0424,-0.9372,-0.0571,1.7621,-0.2142,0.4924,0.3119,-0.9768,-0.0083,
4.734962,-0.0297,-0.9265,-0.0676,1.7621,-0.2142,0.4924,0.3119,-0.9768,-0.0083,
4.736500,-0.0297,-0.9265,-0.0676,1.0437,0.5674,0.6071,0.3119,-0.9768,-0.0083,
4.737622,-0.0297,-0.9265,-0.0676,1.0437,0.5674,0.6071,0.3684,-0.8629,0.0439,
4.774011,-0.0297,-0.9265,-0.0676,1.0437,0.5674,0.6071,0.3268,-0.7297,0.0993,
4.776481,-0.0297,-0.9265,-0.0676,0.8827,0.5563,0.0940,0.3268,-0.7297,0.0993,
4.814260,-0.0297,-0.9265,-0.0676,0.8827,0.5563,0.0940,0.0669,-0.3132,0.0802,
4.817068,-0.0297,-0.9265,-0.0676,0.9099,0.5449,0.0493,0.0669,-0.3132,0.0802,
4.818105,-0.0394,-0.9299,-0.0486,0.9099,0.5449,0.0493,0.0669,-0.3132,0.0802,
4.819410,-0.0768,-0.9399,-0.0806,0.9099,0.5449,0.0493,0.0669,-0.3132,0.0802,
4.820525,-0.0473,-0.9638,-0.1329,0.9099,0.5449,0.0493,0.0669,-0.3132,0.0802,
4.821729,0.0133,-1.0012,-0.1248,0.9099,0.5449,0.0493,0.0669,-0.3132,0.0802,
4.823093,0.0590,-1.0027,-0.0828,0.9099,0.5449,0.0493,0.0669,-0.3132,0.0802,
4.853488,0.0590,-1.0027,-0.0828,0.9099,0.5449,0.0493,-0.3187,-0.0042,-0.2437,
4.856218,0.0590,-1.0027,-0.0828,0.8016,0.5371,0.1700,-0.3187,-0.0042,-0.2437,
4.893192,0.0590,-1.0027,-0.0828,0.8016,0.5371,0.1700,-0.2058,0.6594,-0.8722,
4.896035,0.0590,-1.0027,-0.0828,1.2091,0.1648,0.4706,-0.2058,0.6594,-0.8722,
4.897390,0.0077,-0.9524,0.0064,1.2091,0.1648,0.4706,-0.2058,0.6594,-0.8722,
4.898363,-0.1982,-0.9182,0.0741,1.2091,0.1648,0.4706,-0.2058,0.6594,-0.8722,
4.899517,-0.5046,-0.9980,-0.0068,1.2091,0.1648,0.4706,-0.2058,0.6594,-0.8722,
4.900484,-0.8075,-1.1070,-0.1900,1.2091,0.1648,0.4706,-0.2058,0.6594,-0.8722,
4.932957,-0.8075,-1.1070,-0.1900,1.2091,0.1648,0.4706,-0.0205,0.9428,-0.7550,
4.936099,-0.8075,-1.1070,-0.1900,-4.2514,-0.0309,0.7507,-0.0205,0.9428,-0.7550,
4.972075,-0.8075,-1.1070,-0.1900,-4.2514,-0.0309,0.7507,-0.6799,0.3761,0.0631,
4.974660,-0.8075,-1.1070,-0.1900,-7.1810,-0.4963,-2.6920,-0.6799,0.3761,0.0631,
4.976284,-0.9532,-1.1339,-0.4360,-7.1810,-0.4963,-2.6920,-0.6799,0.3761,0.0631,
4.977423,-0.8527,-1.0337,-0.4842,-7.1810,-0.4963,-2.6920,-0.6799,0.3761,0.0631,
4.978644,-0.6404,-0.9895,-0.3544,-7.1810,-0.4963,-2.6920,-0.6799,0.3761,0.0631,
4.980280,-0.5500,-0.9721,-0.2347,-7.1810,-0.4963,-2.6920,-0.6799,0.3761,0.0631,
5.011911,-0.5500,-0.9721,-0.2347,-7.1810,-0.4963,-2.6920,-1.0378,0.6285,0.3092,
5.014518,-0.5500,-0.9721,-0.2347,-6.9848,-0.5664,-2.2308,-1.0378,0.6285,0.3092,
5.041653,-0.4543,-0.9521,-0.2357,-6.9848,-0.5664,-2.2308,-1.0378,0.6285,0.3092,
5.044693,-0.3534,-0.9321,-0.2189,-6.9848,-0.5664,-2.2308,-1.0378,0.6285,0.3092,
5.046335,-0.4101,-0.9792,-0.1688,-6.9848,-0.5664,-2.2308,-1.0378,0.6285,0.3092,
5.051570,-0.4101,-0.9792,-0.1688,-6.9848,-0.5664,-2.2308,-0.8684,0.9609,0.2549,
5.053391,-0.4101,-0.9792,-0.1688,-3.3550,0.3273,0.0535,-0.8684,0.9609,0.2549,
5.092655,-0.4101,-0.9792,-0.1688,-3.3550,0.3273,0.0535,-0.4242,1.3092,0.3113,
5.095128,-0.4101,-0.9792,-0.1688,-2.9783,-0.2450,0.9259,-0.4242,1.3092,0.3113,
5.096833,-0.4824,-1.0288,-0.1536,-2.9783,-0.2450,0.9259,-0.4242,1.3092,0.3113,
5.098055,-0.3632,-1.0083,-0.1617,-2.9783,-0.2450,0.9259,-0.4242,1.3092,0.3113,
5.099363,-0.2398,-0.9660,-0.1290,-2.9783,-0.2450,0.9259,-0.4242,1.3092,0.3113,
5.130951,-0.2398,-0.9660,-0.1290,-2.9783,-0.2450,0.9259,-0.0141,1.2879,0.3731,
5.133457,-0.2398,-0.9660,-0.1290,-2.9172,-0.2587,0.9724,-0.0141,1.2879,0.3731,
5.170905,-0.2398,-0.9660,-0.1290,-2.9172,-0.2587,0.9724,0.2682,0.6946,0.4807,
5.173561,-0.2398,-0.9660,-0.1290,-1.4202,0.4042,0.5476,0.2682,0.6946,0.4807,
5.174792,-0.2835,-0.9335,-0.2010,-1.4202,0.4042,0.5476,0.2682,0.6946,0.4807,
5.176769,-0.3160,-0.9128,-0.2604,-1.4202,0.4042,0.5476,0.2682,0.6946,0.4807,
5.177769,-0.2420,-0.8622,-0.2362,-1.4202,0.4042,0.5476,0.2682,0.6946,0.4807,
5.179296,-0.2307,-0.7972,-0.1983,-1.4202,0.4042,0.5476,0.2682,0.6946,0.4807,
5.210523,-0.2307,-0.7972,-0.1983,-1.4202,0.4042,0.5476,0.5303,0.0788,0.5393,
5.212976,-0.2307,-0.7972,-0.1983,-1.2026,0.4169,0.3441,0.5303,0.0788,0.5393,
5.251720,-0.2307,-0.7972,-0.1983,-1.2026,0.4169,0.3441,0.7114,-0.5145,0.5350,
5.254376,-0.2307,-0.7972,-0.1983,-0.6827,1.7958,-0.0120,0.7114,-0.5145,0.5350,
5.255839,-0.2864,-0.7291,-0.1715,-0.6827,1.7958,-0.0120,0.7114,-0.5145,0.5350,
5.257125,-0.3231,-0.6914,-0.1614,-0.6827,1.7958,-0.0120,0.7114,-0.5145,0.5350,
5.258418,-0.3138,-0.7242,-0.2687,-0.6827,1.7958,-0.0120,0.7114,-0.5145,0.5350,
5.259963,-0.2769,-0.8226,-0.4207,-0.6827,1.7958,-0.0120,0.7114,-0.5145,0.5350,
5.289641,-0.2769,-0.8226,-0.4207,-0.6827,1.7958,-0.0120,0.4344,-0.9790,0.4125,
5.292261,-0.2769,-0.8226,-0.4207,-0.9437,2.2492,-1.0341,0.4344,-0.9790,0.4125,
5.319060,-0.1772,-0.9397,-0.4148,-0.9437,2.2492,-1.0341,0.4344,-0.9790,0.4125,
5.321693,-0.0363,-0.9922,-0.2721,-0.9437,2.2492,-1.0341,0.4344,-0.9790,0.4125,
5.322924,-0.0087,-1.0906,-0.0872,-0.9437,2.2492,-1.0341,0.4344,-0.9790,0.4125,
5.333156,-0.0087,-1.0906,-0.0872,-0.9437,2.2492,-1.0341,0.1393,-0.4943,0.0940,
5.335981,-0.0087,-1.0906,-0.0872,1.3613,-0.3057,-0.8624,0.1393,-0.4943,0.0940,
5.368340,-0.0087,-1.0906,-0.0872,1.3613,-0.3057,-0.8624,0.1958,-0.4048,0.1952,
5.370360,-0.0087,-1.0906,-0.0872,6.0073,-4.8798,0.1354,0.1958,-0.4048,0.1952,
5.406834,-0.0553,-1.5692,-0.3266,6.0073,-4.8798,0.1354,0.1958,-0.4048,0.1952,
5.409349,0.4140,-1.7657,-0.0581,6.0073,-4.8798,0.1354,0.1958,-0.4048,0.1952,
5.411039,0.8420,-1.1119,-0.0500,6.0073,-4.8798,0.1354,0.1958,-0.4048,0.1952,
5.412363,0.3275,-0.7530,-0.2504,6.0073,-4.8798,0.1354,0.1958,-0.4048,0.1952,
5.413493,0.3275,-0.7530,-0.2504,6.0073,-4.8798,0.1354,0.1138,-0.2290,-0.1989,
5.414736,0.3275,-0.7530,-0.2504,5.8459,-4.7757,0.0719,0.1138,-0.2290,-0.1989,
5.448155,0.3275,-0.7530,-0.2504,5.8459,-4.7757,0.0719,0.2405,-1.2431,-0.1872,
5.450703,0.3275,-0.7530,-0.2504,2.4080,1.5424,-1.7901,0.2405,-1.2431,-0.1872,
5.489126,0.3275,-0.7530,-0.2504,2.4080,1.5424,-1.7901,-0.0631,-0.8554,0.1814,
5.491226,0.3275,-0.7530,-0.2504,2.4801,1.4998,-1.8003,-0.0631,-0.8554,0.1814,
5.492459,-0.1083,-0.7696,-0.4810,2.4801,1.4998,-1.8003,-0.0631,-0.8554,0.1814,
5.493599,-0.0573,-0.9905,-0.2252,2.4801,1.4998,-1.8003,-0.0631,-0.8554,0.1814,
5.495945,0.0395,-1.1261,0.0983,2.4801,1.4998,-1.8003,-0.0631,-0.8554,0.1814,
5.497081,-0.0609,-0.9868,0.1149,2.4801,1.4998,-1.8003,-0.0631,-0.8554,0.1814,
5.498157,-0.0646,-0.8304,-0.0535,2.4801,1.4998,-1.8003,-0.0631,-0.8554,0.1814,
5.527365,-0.0646,-0.8304,-0.0535,2.4801,1.4998,-1.8003,0.1383,-0.8543,0.2953,
5.530011,-0.0646,-0.8304,-0.0535,1.7963,0.0762,1.6955,0.1383,-0.8543,0.2953,
5.566629,-0.0646,-0.8304,-0.0535,1.7963,0.0762,1.6955,-0.9824,-0.8692,0.2527,
5.569536,-0.0646,-0.8304,-0.0535,4.1119,-0.3278,-3.4942,-0.9824,-0.8692,0.2527,
5.571062,0.0553,-0.8600,-0.3439,4.1119,-0.3278,-3.4942,-0.9824,-0.8692,0.2527,
5.572951,0.2225,-1.0076,-0.5968,4.1119,-0.3278,-3.4942,-0.9824,-0.8692,0.2527,
5.574142,0.3231,-1.1788,-0.5988,4.1119,-0.3278,-3.4942,-0.9824,-0.8692,0.2527,
5.575262,0.4203,-1.3042,-0.5748,4.1119,-0.3278,-3.4942,-0.9824,-0.8692,0.2527,
5.606585,0.4203,-1.3042,-0.5748,4.1119,-0.3278,-3.4942,-3.0969,-1.5233,-0.6282,
5.609706,0.4203,-1.3042,-0.5748,3.9310,-0.5191,-2.4103,-3.0969,-1.5233,-0.6282,
5.646353,0.4203,-1.3042,-0.5748,3.9310,-0.5191,-2.4103,-4.0621,-1.5904,-1.2876,
5.649244,0.4203,-1.3042,-0.5748,2.8412,-4.0335,0.0653,-4.0621,-1.5904,-1.2876,
5.650545,0.3190,-1.3169,-0.3557,2.8412,-4.0335,0.0653,-4.0621,-1.5904,-1.2876,
5.651758,-0.3766,-1.3880,-0.2699,2.8412,-4.0335,0.0653,-4.0621,-1.5904,-1.2876,
5.653221,-0.7729,-1.4090,-0.4456,2.8412,-4.0335,0.0653,-4.0621,-1.5904,-1.2876,
5.654428,-0.1978,-1.0594,0.0555,2.8412,-4.0335,0.0653,-4.0621,-1.5904,-1.2876,
5.687640,-0.1978,-1.0594,0.0555,2.8412,-4.0335,0.0653,-3.1300,0.0139,-1.3963,
5.690090,-0.1978,-1.0594,0.0555,2.3062,-4.4408,1.1393,-3.1300,0.0139,-1.3963,
5.719264,0.4384,-0.8414,0.4637,2.3062,-4.4408,1.1393,-3.1300,0.0139,-1.3963,
5.721600,0.4013,-0.9682,0.2250,2.3062,-4.4408,1.1393,-3.1300,0.0139,-1.3963,
5.723748,0.1907,-1.1400,-0.1873,2.3062,-4.4408,1.1393,-3.1300,0.0139,-1.3963,
5.725291,0.1907,-1.1400,-0.1873,2.3062,-4.4408,1.1393,-0.8354,0.2397,-2.6150,
5.726691,0.1907,-1.1400,-0.1873,-1.5295,-2.2237,5.4984,-0.8354,0.2397,-2.6150,
5.765101,0.1907,-1.1400,-0.1873,-1.5295,-2.2237,5.4984,-0.8578,-1.2506,-2.5074,
5.767816,0.1907,-1.1400,-0.1873,1.4374,-2.2462,4.2206,-0.8578,-1.2506,-2.5074,
5.804542,0.1907,-1.1400,-0.1873,1.4374,-2.2462,4.2206,-0.4743,-1.3689,-1.6626,
5.807298,0.1907,-1.1400,-0.1873,1.1697,-2.3462,4.3339,-0.4743,-1.3689,-1.6626,
5.809188,-0.0324,-1.1605,-0.4243,1.1697,-2.3462,4.3339,-0.4743,-1.3689,-1.6626,
5.810380,-0.1777,-1.0281,-0.4441,1.1697,-2.3462,4.3339,-0.4743,-1.3689,-1.6626,
5.811660,-0.4377,-0.9020,-0.3244,1.1697,-2.3462,4.3339,-0.4743,-1.3689,-1.6626,
5.813485,-0.5246,-0.8600,-0.2081,1.1697,-2.3462,4.3339,-0.4743,-1.3689,-1.6626,
5.814744,-0.3040,-0.7723,-0.2040,1.1697,-2.3462,4.3339,-0.4743,-1.3689,-1.6626,
5.843998,-0.3040,-0.7723,-0.2040,1.1697,-2.3462,4.3339,1.0778,-0.7041,-1.1534,
5.846160,-0.3040,-0.7723,-0.2040,-4.5357,-0.5761,2.0334,1.0778,-0.7041,-1.1534,
5.883046,-0.3040,-0.7723,-0.2040,-4.5357,-0.5761,2.0334,1.4848,0.2152,-0.5462,
5.885087,-0.3040,-0.7723,-0.2040,-2.2570,2.3353,2.5660,1.4848,0.2152,-0.5462,
5.886097,-0.0956,-0.6301,-0.2325,-2.2570,2.3353,2.5660,1.4848,0.2152,-0.5462,
5.887279,0.0153,-0.5678,-0.2049,-2.2570,2.3353,2.5660,1.4848,0.2152,-0.5462,
5.887910,0.0497,-0.6382,-0.1275,-2.2570,2.3353,2.5660,1.4848,0.2152,-0.5462,
5.888546,-0.0089,-0.6846,-0.0449,-2.2570,2.3353,2.5660,1.4848,0.2152,-0.5462,
5.922912,-0.0089,-0.6846,-0.0449,-2.2570,2.3353,2.5660,1.7596,0.6807,-0.0764,
5.924388,-0.0089,-0.6846,-0.0449,-2.3598,2.5909,1.8823,1.7596,0.6807,-0.0764,
5.963796,-0.0089,-0.6846,-0.0449,-2.3598,2.5909,1.8823,1.9343,0.8522,-0.3449,
5.966567,-0.0089,-0.6846,-0.0449,-1.3627,2.8548,2.3403,1.9343,0.8522,-0.3449,
5.967887,-0.0514,-0.6313,-0.0891,-1.3627,2.8548,2.3403,1.9343,0.8522,-0.3449,
5.969815,0.0844,-0.5304,-0.2069,-1.3627,2.8548,2.3403,1.9343,0.8522,-0.3449,
5.970961,0.2987,-0.6067,-0.5570,-1.3627,2.8548,2.3403,1.9343,0.8522,-0.3449,
5.972783,0.1838,-1.0814,-1.0563,-1.3627,2.8548,2.3403,1.9343,0.8522,-0.3449,
6.002984,0.1838,-1.0814,-1.0563,-1.3627,2.8548,2.3403,0.8552,0.7766,-0.4610,
6.005744,0.1838,-1.0814,-1.0563,0.2579,2.0325,-3.0590,0.8552,0.7766,-0.4610,
6.042215,0.1838,-1.0814,-1.0563,0.2579,2.0325,-3.0590,-0.6618,-0.9374,0.3060,
6.044425,0.1838,-1.0814,-1.0563,-7.8128,-5.4506,-1.3128,-0.6618,-0.9374,0.3060,
6.045875,-0.3460,-1.7776,-0.9393,-7.8128,-5.4506,-1.3128,-0.6618,-0.9374,0.3060,
6.047220,-0.6641,-1.6801,-0.2758,-7.8128,-5.4506,-1.3128,-0.6618,-0.9374,0.3060,
6.048477,-1.0027,-1.0608,-0.1685,-7.8128,-5.4506,-1.3128,-0.6618,-0.9374,0.3060,
6.050171,-1.5507,-0.9052,-0.2379,-7.8128,-5.4506,-1.3128,-0.6618,-0.9374,0.3060,
6.081770,-1.5507,-0.9052,-0.2379,-7.8128,-5.4506,-1.3128,-0.4274,-0.1790,0.2272,
6.084375,-1.5507,-0.9052,-0.2379,-7.5777,-5.4042,-1.1278,-0.4274,-0.1790,0.2272,
6.122345,-1.5507,-0.9052,-0.2379,-7.5777,-5.4042,-1.1278,0.6730,3.7753,0.0695,
6.124943,-1.5507,-0.9052,-0.2379,-6.9071,-1.3089,3.8474,0.6730,3.7753,0.0695,
6.126402,-0.6800,-1.0020,0.5368,-6.9071,-1.3089,3.8474,0.6730,3.7753,0.0695,
6.127820,0.5256,-1.3914,-0.0066,-6.9071,-1.3089,3.8474,0.6730,3.7753,0.0695,
6.129006,0.8716,-1.7205,-0.2059,-6.9071,-1.3089,3.8474,0.6730,3.7753,0.0695,
6.129977,0.5393,-1.5196,-0.2069,-6.9071,-1.3089,3.8474,0.6730,3.7753,0.0695,
6.161523,0.5393,-1.5196,-0.2069,-6.9071,-1.3089,3.8474,0.5218,0.8661,0.1111,
6.164154,0.5393,-1.5196,-0.2069,-6.8460,-1.2249,3.5437,0.5218,0.8661,0.1111,
6.201037,0.5393,-1.5196,-0.2069,-6.8460,-1.2249,3.5437,0.5846,0.0479,0.1398,
6.203587,0.5393,-1.5196,-0.2069,3.9949,-4.8925,0.7378,0.5846,0.0479,0.1398,
6.204894,0.2088,-1.2262,-0.0813,3.9949,-4.8925,0.7378,0.5846,0.0479,0.1398,
6.206310,-0.1030,-1.0647,-0.0383,3.9949,-4.8925,0.7378,0.5846,0.0479,0.1398,
6.207432,-0.3045,-0.9441,-0.2179,3.9949,-4.8925,0.7378,0.5846,0.0479,0.1398,
6.208630,-0.4213,-0.8813,-0.3437,3.9949,-4.8925,0.7378,0.5846,0.0479,0.1398,
6.240603,-0.4213,-0.8813,-0.3437,3.9949,-4.8925,0.7378,0.4706,1.0227,0.3198,
6.243172,-0.4213,-0.8813,-0.3437,-3.9037,0.3094,0.1564,0.4706,1.0227,0.3198,
6.280490,-0.4213,-0.8813,-0.3437,-3.9037,0.3094,0.1564,-0.4732,1.6959,0.6980,
6.283163,-0.4213,-0.8813,-0.3437,-5.7476,0.5707,-2.1295,-0.4732,1.6959,0.6980,
6.284548,-0.4873,-0.8400,-0.3906,-5.7476,0.5707,-2.1295,-0.4732,1.6959,0.6980,
6.285871,-0.5241,-0.8967,-0.4678,-5.7476,0.5707,-2.1295,-0.4732,1.6959,0.6980,
6.287121,-0.4501,-1.0677,-0.4849,-5.7476,0.5707,-2.1295,-0.4732,1.6959,0.6980,
6.288338,-0.1118,-1.2160,-0.4644,-5.7476,0.5707,-2.1295,-0.4732,1.6959,0.6980,
6.319814,-0.1118,-1.2160,-0.4644,-5.7476,0.5707,-2.1295,-2.2309,1.9857,1.0751,
6.322722,-0.1118,-1.2160,-0.4644,-5.4492,0.3675,-1.3237,-2.2309,1.9857,1.0751,
6.359231,-0.1118,-1.2160,-0.4644,-5.4492,0.3675,-1.3237,-3.6786,1.5329,1.3446,
6.361901,-0.1118,-1.2160,-0.4644,-0.1092,-2.9819,-0.9953,-3.6786,1.5329,1.3446,
6.363858,0.1496,-1.2846,-0.4969,-0.1092,-2.9819,-0.9953,-3.6786,1.5329,1.3446,
6.364956,0.0509,-1.1869,-0.6911,-0.1092,-2.9819,-0.9953,-3.6786,1.5329,1.3446,
6.366295,-0.1169,-0.9028,-0.8677,-0.1092,-2.9819,-0.9953,-3.6786,1.5329,1.3446,
6.367508,-0.0663,-0.6052,-0.5118,-0.1092,-2.9819,-0.9953,-3.6786,1.5329,1.3446,
6.399198,-0.0663,-0.6052,-0.5118,-0.1092,-2.9819,-0.9953,-3.6498,0.4027,2.3194,
6.401499,-0.0663,-0.6052,-0.5118,0.6038,-3.6438,0.2575,-3.6498,0.4027,2.3194,
6.439410,-0.0663,-0.6052,-0.5118,0.6038,-3.6438,0.2575,-1.3371,-0.2418,2.7146,
6.442391,-0.0663,-0.6052,-0.5118,0.5220,0.9997,1.1313,-1.3371,-0.2418,2.7146,
6.443663,-0.0370,-0.6321,-0.1302,0.5220,0.9997,1.1313,-1.3371,-0.2418,2.7146,
6.445020,-0.0487,-0.9482,-0.0974,0.5220,0.9997,1.1313,-1.3371,-0.2418,2.7146,
6.446507,-0.0233,-1.1454,-0.4385,0.5220,0.9997,1.1313,-1.3371,-0.2418,2.7146,
6.447777,0.0744,-0.8971,-0.4998,0.5220,0.9997,1.1313,-1.3371,-0.2418,2.7146,
6.477704,0.0744,-0.8971,-0.4998,0.5220,0.9997,1.1313,-0.1440,-0.7617,2.4067,
6.480471,0.0744,-0.8971,-0.4998,2.1474,-1.9430,2.6275,-0.1440,-0.7617,2.4067,
6.518142,0.0744,-0.8971,-0.4998,0.3743,3.0811,3.6930,-0.1440,-0.7617,2.4067,
6.521019,0.0744,-0.8971,-0.4998,0.3743,3.0811,3.6930,1.3942,-0.4368,1.8538,
6.522306,-0.0414,-0.5466,-0.1724,0.3743,3.0811,3.6930,1.3942,-0.4368,1.8538,
6.523416,-0.2671,-0.4347,-0.1382,0.3743,3.0811,3.6930,1.3942,-0.4368,1.8538,
6.524618,-0.4377,-0.4972,-0.2335,0.3743,3.0811,3.6930,1.3942,-0.4368,1.8538,
6.526046,-0.4428,-0.5778,-0.3183,0.3743,3.0811,3.6930,1.3942,-0.4368,1.8538,
6.557252,-0.4428,-0.5778,-0.3183,0.3743,3.0811,3.6930,2.5106,0.0096,1.4288,
6.559850,-0.4428,-0.5778,-0.3183,0.8159,3.3561,2.8430,2.5106,0.0096,1.4288,
6.597846,-0.4428,-0.5778,-0.3183,0.8159,3.3561,2.8430,2.8046,0.0597,0.6277,
6.600402,-0.4428,-0.5778,-0.3183,-0.1061,2.2626,0.9021,2.8046,0.0597,0.6277,
6.601743,-0.3585,-0.6594,-0.2848,-0.1061,2.2626,0.9021,2.8046,0.0597,0.6277,
6.603067,-0.2881,-0.6802,-0.2482,-0.1061,2.2626,0.9021,2.8046,0.0597,0.6277,
6.604278,-0.3524,-0.5717,-0.2821,-0.1061,2.2626,0.9021,2.8046,0.0597,0.6277,
6.606031,-0.3395,-0.4706,-0.4742,-0.1061,2.2626,0.9021,2.8046,0.0597,0.6277,
6.637002,-0.3395,-0.4706,-0.4742,-0.1061,2.2626,0.9021,2.3402,-0.2418,0.2559,
6.639637,-0.3395,-0.4706,-0.4742,0.0117,2.4883,0.0635,2.3402,-0.2418,0.2559,
6.676924,-0.3395,-0.4706,-0.4742,0.0117,2.4883,0.0635,0.7369,-0.5305,0.5073,
6.679721,-0.3395,-0.4706,-0.4742,0.8434,3.5877,-2.0527,0.7369,-0.5305,0.5073,
6.680909,-0.2095,-0.5214,-0.6513,0.8434,3.5877,-2.0527,0.7369,-0.5305,0.5073,
6.682270,-0.3302,-1.1102,-0.7668,0.8434,3.5877,-2.0527,0.7369,-0.5305,0.5073,
6.683552,-0.2491,-1.8553,-0.9789,0.8434,3.5877,-2.0527,0.7369,-0.5305,0.5073,
6.684823,-0.1311,-1.7864,-1.1045,0.8434,3.5877,-2.0527,0.7369,-0.5305,0.5073,
6.715815,-0.1311,-1.7864,-1.1045,0.8434,3.5877,-2.0527,-0.6703,-0.4985,-0.3108,
6.718209,-0.1311,-1.7864,-1.1045,1.3881,-6.7358,-6.4992,-0.6703,-0.4985,-0.3108,
6.754577,-0.1311,-1.7864,-1.1045,1.3881,-6.7358,-6.4992,-0.1185,1.9431,-0.9776,
6.756606,-0.1311,-1.7864,-1.1045,9.4482,-2.3896,1.7382,-0.1185,1.9431,-0.9776,
6.759524,-0.3170,-1.8604,-1.6801,9.4482,-2.3896,1.7382,-0.1185,1.9431,-0.9776,
6.760991,1.4310,-1.2294,0.9111,9.4482,-2.3896,1.7382,-0.1185,1.9431,-0.9776,
6.762293,0.8674,-0.3807,0.3565,9.4482,-2.3896,1.7382,-0.1185,1.9431,-0.9776,
6.763620,-0.7240,-0.7537,-0.4231,9.4482,-2.3896,1.7382,-0.1185,1.9431,-0.9776,
6.794441,-0.7240,-0.7537,-0.4231,9.4482,-2.3896,1.7382,0.5345,-1.3284,-0.4748,
6.796912,-0.7240,-0.7537,-0.4231,9.2741,-2.2346,1.3702,0.5345,-1.3284,-0.4748,
6.834279,-0.7240,-0.7537,-0.4231,9.2741,-2.2346,1.3702,1.3047,-0.3877,-0.0594,
6.836525,-0.7240,-0.7537,-0.4231,1.4624,-1.5416,-0.1567,1.3047,-0.3877,-0.0594,
6.837963,0.0778,-1.1116,-0.1578,1.4624,-1.5416,-0.1567,1.3047,-0.3877,-0.0594,
6.839291,0.2383,-1.4417,-0.1417,1.4624,-1.5416,-0.1567,1.3047,-0.3877,-0.0594,
6.840412,-0.1829,-1.5731,-0.0747,1.4624,-1.5416,-0.1567,1.3047,-0.3877,-0.0594,
6.841661,-0.1640,-1.3144,-0.2220,1.4624,-1.5416,-0.1567,1.3047,-0.3877,-0.0594,
6.873870,-0.1640,-1.3144,-0.2220,1.4624,-1.5416,-0.1567,1.9439,-0.5955,-0.0402,
6.876221,-0.1640,-1.3144,-0.2220,1.4654,-1.3742,-0.9270,1.9439,-0.5955,-0.0402,
6.913909,-0.1640,-1.3144,-0.2220,1.4654,-1.3742,-0.9270,1.4645,-0.3941,0.3113,
6.915965,-0.1640,-1.3144,-0.2220,2.1461,-2.9308,-1.5243,1.4645,-0.3941,0.3113,
6.917289,0.1174,-0.9206,-0.4351,2.1461,-2.9308,-1.5243,1.4645,-0.3941,0.3113,
6.918519,0.2879,-0.8151,-0.6178,2.1461,-2.9308,-1.5243,1.4645,-0.3941,0.3113,
6.919673,0.3573,-0.9907,-0.7211,2.1461,-2.9308,-1.5243,1.4645,-0.3941,0.3113,
6.920766,0.3617,-1.2551,-0.7536,2.1461,-2.9308,-1.5243,1.4645,-0.3941,0.3113,
6.952909,0.3617,-1.2551,-0.7536,2.1461,-2.9308,-1.5243,-0.2516,-1.2687,0.2410,
6.954702,0.3617,-1.2551,-0.7536,6.2104,-0.5166,-5.9239,-0.2516,-1.2687,0.2410,
6.992927,0.3617,-1.2551,-0.7536,6.2104,-0.5166,-5.9239,-2.8061,-2.0038,-0.0828,
6.995311,0.3617,-1.2551,-0.7536,5.7514,-0.5568,-4.8887,-2.8061,-2.0038,-0.0828,
6.996845,0.3292,-1.2846,-0.8145,5.7514,-0.5568,-4.8887,-2.8061,-2.0038,-0.0828,
6.997959,0.2413,-0.9993,-0.7827,5.7514,-0.5568,-4.8887,-2.8061,-2.0038,-0.0828,
6.999101,0.3043,-0.7506,-0.4527,5.7514,-0.5568,-4.8887,-2.8061,-2.0038,-0.0828,
7.000328,0.3996,-0.7928,-0.2074,5.7514,-0.5568,-4.8887,-2.8061,-2.0038,-0.0828,
7.032297,0.3996,-0.7928,-0.2074,5.7514,-0.5568,-4.8887,-4.3678,-2.4852,-0.9851,
7.034426,0.3996,-0.7928,-0.2074,5.5395,-0.8579,-3.5154,-4.3678,-2.4852,-0.9851,
7.072203,0.3996,-0.7928,-0.2074,5.5395,-0.8579,-3.5154,-3.6445,-4.0501,-1.7404,
7.074204,0.3996,-0.7928,-0.2074,5.0107,-1.0025,5.7379,-3.6445,-4.0501,-1.7404,
7.076008,0.2229,-1.0254,0.1139,5.0107,-1.0025,5.7379,-3.6445,-4.0501,-1.7404,
7.077135,0.1230,-1.1612,0.6440,5.0107,-1.0025,5.7379,-3.6445,-4.0501,-1.7404,
7.078270,0.0527,-1.4688,0.7909,5.0107,-1.0025,5.7379,-3.6445,-4.0501,-1.7404,
7.079627,0.1018,-1.8582,0.1532,5.0107,-1.0025,5.7379,-3.6445,-4.0501,-1.7404,
7.111422,0.1018,-1.8582,0.1532,5.0107,-1.0025,5.7379,-2.3161,-2.6877,-2.0365,
7.113661,0.1018,-1.8582,0.1532,4.6837,-1.1693,6.1613,-2.3161,-2.6877,-2.0365,
7.152107,0.1018,-1.8582,0.1532,4.6837,-1.1693,6.1613,-2.2841,-1.0898,-2.7225,
7.154405,0.1018,-1.8582,0.1532,2.1080,-8.8294,6.6732,-2.2841,-1.0898,-2.7225,
7.155987,0.0319,-1.9765,-0.4099,2.1080,-8.8294,6.6732,-2.2841,-1.0898,-2.7225,
7.157258,-0.2307,-1.5387,-0.4524,2.1080,-8.8294,6.6732,-2.2841,-1.0898,-2.7225,
7.158389,-0.2244,-1.2089,-0.0459,2.1080,-8.8294,6.6732,-2.2841,-1.0898,-2.7225,
7.160182,-0.2244,-1.0107,0.2270,2.1080,-8.8294,6.6732,-2.2841,-1.0898,-2.7225,
7.190993,-0.2244,-1.0107,0.2270,2.1080,-8.8294,6.6732,-1.4618,-2.1348,-2.6991,
7.193155,-0.2244,-1.0107,0.2270,-1.1633,-3.8797,4.3520,-1.4618,-2.1348,-2.6991,
7.230233,-0.2244,-1.0107,0.2270,-1.1633,-3.8797,4.3520,0.3534,-1.4232,-1.6083,
7.232917,-0.2244,-1.0107,0.2270,-4.5342,3.6099,7.7995,0.3534,-1.4232,-1.6083,
7.234229,-0.4467,-0.7962,0.2673,-4.5342,3.6099,7.7995,0.3534,-1.4232,-1.6083,
7.235162,-0.6040,-0.4965,0.2888,-4.5342,3.6099,7.7995,0.3534,-1.4232,-1.6083,
7.236174,-0.6097,-0.1943,0.3208,-4.5342,3.6099,7.7995,0.3534,-1.4232,-1.6083,
7.237483,-0.5198,-0.0430,0.5483,-4.5342,3.6099,7.7995,0.3534,-1.4232,-1.6083,
7.269612,-0.5198,-0.0430,0.5483,-4.5342,3.6099,7.7995,2.2539,1.2890,-0.3971,
7.270992,-0.5198,-0.0430,0.5483,-4.8164,3.9632,6.9387,2.2539,1.2890,-0.3971,
7.309316,-0.5198,-0.0430,0.5483,-4.8164,3.9632,6.9387,3.2041,2.9913,0.1686,
7.311008,-0.5198,-0.0430,0.5483,-4.4047,8.2312,8.1203,3.2041,2.9913,0.1686,
7.311949,-0.4281,-0.0675,0.7745,-4.4047,8.2312,8.1203,3.2041,2.9913,0.1686,
7.312809,-0.5009,-0.1637,0.2952,-4.4047,8.2312,8.1203,3.2041,2.9913,0.1686,
7.313729,-0.6426,-0.5014,-0.4922,-4.4047,8.2312,8.1203,3.2041,2.9913,0.1686,
7.314535,-0.3209,-1.7407,-1.3104,-4.4047,8.2312,8.1203,3.2041,2.9913,0.1686,
7.348764,-0.3209,-1.7407,-1.3104,-4.4047,8.2312,8.1203,2.2155,2.4512,-0.4940,
7.350439,-0.3209,-1.7407,-1.3104,-4.7417,8.3064,7.1999,2.2155,2.4512,-0.4940,
7.389321,-0.3209,-1.7407,-1.3104,-4.7417,8.3064,7.1999,1.1897,2.7793,-0.1883,
7.391451,-0.3209,-1.7407,-1.3104,-1.5675,-8.3255,-4.7487,1.1897,2.7793,-0.1883,
7.392819,0.5552,-3.1909,-0.1233,-1.5675,-8.3255,-4.7487,1.1897,2.7793,-0.1883,
7.394318,0.1208,-1.9008,-0.1441,-1.5675,-8.3255,-4.7487,1.1897,2.7793,-0.1883,
7.396004,-0.3175,-0.8212,-0.8528,-1.5675,-8.3255,-4.7487,1.1897,2.7793,-0.1883,
7.397484,-0.7037,-0.9120,-0.5795,-1.5675,-8.3255,-4.7487,1.1897,2.7793,-0.1883,
7.428887,-0.7037,-0.9120,-0.5795,-1.5675,-8.3255,-4.7487,-0.6958,-0.0831,0.5819,
7.431125,-0.7037,-0.9120,-0.5795,-2.9010,-2.4499,-3.2933,-0.6958,-0.0831,0.5819,
7.460336,-1.0345,-1.1107,0.3765,-2.9010,-2.4499,-3.2933,-0.6958,-0.0831,0.5819,
7.462578,-1.0010,-1.1534,0.6790,-2.9010,-2.4499,-3.2933,-0.6958,-0.0831,0.5819,
7.464235,-0.5315,-1.2118,0.3377,-2.9010,-2.4499,-3.2933,-0.6958,-0.0831,0.5819,
7.472978,-0.5315,-1.2118,0.3377,-2.9010,-2.4499,-3.2933,-0.1920,3.4600,1.0954,
7.474916,-0.5315,-1.2118,0.3377,-8.0638,-1.9209,6.3888,-0.1920,3.4600,1.0954,
7.507456,-0.5315,-1.2118,0.3377,-8.0638,-1.9209,6.3888,0.7412,5.0824,0.9750,
7.508823,-0.5315,-1.2118,0.3377,0.2412,-1.1852,4.0076,0.7412,5.0824,0.9750,
7.547334,0.1130,-1.2712,0.3057,0.2412,-1.1852,4.0076,0.7412,5.0824,0.9750,
7.549189,0.0062,-1.0943,0.3457,0.2412,-1.1852,4.0076,0.7412,5.0824,0.9750,
7.550315,-0.1462,-0.9030,0.0978,0.2412,-1.1852,4.0076,0.7412,5.0824,0.9750,
7.551412,-0.1462,-0.9030,0.0978,0.2412,-1.1852,4.0076,1.0267,4.5902,0.9324,
7.552662,-0.1462,-0.9030,0.0978,0.3301,-1.1229,3.6269,1.0267,4.5902,0.9324,
7.587084,-0.1462,-0.9030,0.0978,0.3301,-1.1229,3.6269,0.6134,3.3833,0.9302,
7.589885,-0.1462,-0.9030,0.0978,7.9321,0.1134,-1.3366,0.6134,3.3833,0.9302,
7.627007,0.2430,-0.9665,-0.1126,7.9321,0.1134,-1.3366,0.6134,3.3833,0.9302,
7.629291,0.8650,-1.0269,-0.1717,7.9321,0.1134,-1.3366,0.6134,3.3833,0.9302,
7.630383,1.1701,-0.8984,-0.4426,7.9321,0.1134,-1.3366,0.6134,3.3833,0.9302,
7.631609,1.1264,-0.8605,-0.7036,7.9321,0.1134,-1.3366,0.6134,3.3833,0.9302,
7.632909,0.9077,-1.0875,-0.5997,7.9321,0.1134,-1.3366,0.6134,3.3833,0.9302,
7.634145,0.3158,-1.2875,-0.2939,7.9321,0.1134,-1.3366,0.6134,3.3833,0.9302,
7.635654,0.3158,-1.2875,-0.2939,7.9321,0.1134,-1.3366,0.5015,1.9665,-0.2927,
7.636874,0.3158,-1.2875,-0.2939,7.8470,-0.9697,-4.2629,0.5015,1.9665,-0.2927,
7.666005,0.3158,-1.2875,-0.2939,7.8470,-0.9697,-4.2629,-0.0716,0.0330,-0.3193,
7.667834,0.3158,-1.2875,-0.2939,7.5957,-0.9550,-4.1642,-0.0716,0.0330,-0.3193,
7.691077,-0.1330,-1.2558,-0.2203,7.5957,-0.9550,-4.1642,-0.0716,0.0330,-0.3193,
7.693223,-0.1315,-1.0618,-0.1514,7.5957,-0.9550,-4.1642,-0.0716,0.0330,-0.3193,
7.694398,-0.0793,-0.9343,0.0968,7.5957,-0.9550,-4.1642,-0.0716,0.0330,-0.3193,
7.705983,-0.0793,-0.9343,0.0968,7.5957,-0.9550,-4.1642,-0.5680,-2.5353,0.4104,
7.708108,-0.0793,-0.9343,0.0968,-0.9151,-1.0183,0.3606,-0.5680,-2.5353,0.4104,
7.745866,-0.0793,-0.9343,0.0968,-0.9151,-1.0183,0.3606,0.0275,-2.2850,0.2091,
7.747870,-0.0793,-0.9343,0.0968,-0.6192,-0.2358,0.3409,0.0275,-2.2850,0.2091,
7.779317,-0.0568,-0.9685,0.0650,-0.6192,-0.2358,0.3409,0.0275,-2.2850,0.2091,
7.781645,-0.0624,-1.0286,-0.0703,-0.6192,-0.2358,0.3409,0.0275,-2.2850,0.2091,
7.783148,-0.1965,-1.0161,-0.2621,-0.6192,-0.2358,0.3409,0.0275,-2.2850,0.2091,
7.784403,-0.2581,-0.9340,-0.3928,-0.6192,-0.2358,0.3409,0.0275,-2.2850,0.2091,
7.789898,-0.2581,-0.9340,-0.3928,-0.6789,-0.2103,0.1753,0.0275,-2.2850,0.2091,
7.792609,-0.2581,-0.9340,-0.3928,-0.6789,-0.2103,0.1753,0.3950,-0.7467,-0.2778,
7.824689,-0.2581,-0.9340,-0.3928,-0.6789,-0.2103,0.1753,0.0701,-0.3622,0.0439,
7.826789,-0.2581,-0.9340,-0.3928,-1.5626,1.0510,-1.7926,0.0701,-0.3622,0.0439,
7.856789,-0.2061,-0.8488,-0.3061,-1.5626,1.0510,-1.7926,0.0701,-0.3622,0.0439,
7.858901,-0.1399,-0.8395,-0.1705,-1.5626,1.0510,-1.7926,0.0701,-0.3622,0.0439,
7.860043,-0.0170,-0.8385,-0.2018,-1.5626,1.0510,-1.7926,0.0701,-0.3622,0.0439,
7.861163,0.0595,-0.8612,-0.2247,-1.5626,1.0510,-1.7926,0.0701,-0.3622,0.0439,
7.864532,0.0595,-0.8612,-0.2247,-1.5626,1.0510,-1.7926,-0.4050,-0.1118,0.3475,
7.865852,0.0595,-0.8612,-0.2247,-1.4018,1.0093,-1.6131,-0.4050,-0.1118,0.3475,
7.904170,0.0595,-0.8612,-0.2247,-1.4018,1.0093,-1.6131,-1.0271,0.5081,0.2847,
7.906338,0.0595,-0.8612,-0.2247,0.7667,0.9819,-0.3089,-1.0271,0.5081,0.2847,
7.916510,-0.0028,-0.9059,-0.1680,0.7667,0.9819,-0.3089,-1.0271,0.5081,0.2847,
7.917755,-0.1516,-0.8842,-0.0144,0.7667,0.9819,-0.3089,-1.0271,0.5081,0.2847,
7.919008,-0.3966,-0.8444,0.1092,0.7667,0.9819,-0.3089,-1.0271,0.5081,0.2847,
7.943855,-0.3966,-0.8444,0.1092,0.7667,0.9819,-0.3089,-0.8737,0.6051,0.0301,
7.945606,-0.3966,-0.8444,0.1092,0.7223,0.9033,0.0331,-0.8737,0.6051,0.0301,
7.983214,-0.3966,-0.8444,0.1092,0.7223,0.9033,0.0331,-0.1483,1.1782,0.1803,
7.985532,-0.3966,-0.8444,0.1092,-3.1424,0.8923,3.0979,-0.1483,1.1782,0.1803,
8.006152,-0.6028,-0.8710,0.2397,-3.1424,0.8923,3.0979,-0.1483,1.1782,0.1803,
8.007841,-0.6365,-1.0039,0.1095,-3.1424,0.8923,3.0979,-0.1483,1.1782,0.1803,
8.009249,-0.3363,-1.1265,-0.1189,-3.1424,0.8923,3.0979,-0.1483,1.1782,0.1803,
8.010240,-0.1052,-1.1542,-0.1656,-3.1424,0.8923,3.0979,-0.1483,1.1782,0.1803,
8.011500,-0.1697,-1.1358,-0.2115,-3.1424,0.8923,3.0979,-0.1483,1.1782,0.1803,
8.023061,-0.1697,-1.1358,-0.2115,-3.1424,0.8923,3.0979,-0.1078,1.5468,0.2165,
8.024948,-0.1697,-1.1358,-0.2115,-2.8995,-1.3367,1.4846,-0.1078,1.5468,0.2165,
8.062604,-0.1697,-1.1358,-0.2115,-2.8995,-1.3367,1.4846,0.2597,1.3966,0.2272,
8.064535,-0.1697,-1.1358,-0.2115,-2.4857,-1.2263,-0.2032,0.2597,1.3966,0.2272,
8.092939,-0.3487,-1.1368,-0.2201,-2.4857,-1.2263,-0.2032,0.2597,1.3966,0.2272,
8.095022,-0.4372,-0.9892,-0.2418,-2.4857,-1.2263,-0.2032,0.2597,1.3966,0.2272,
8.096981,-0.4506,-0.7865,-0.1766,-2.4857,-1.2263,-0.2032,0.2597,1.3966,0.2272,
8.098312,-0.5271,-0.6282,-0.0776,-2.4857,-1.2263,-0.2032,0.2597,1.3966,0.2272,
8.103000,-0.5271,-0.6282,-0.0776,-2.4857,-1.2263,-0.2032,0.6262,2.1028,0.2932,
8.104964,-0.5271,-0.6282,-0.0776,-2.4928,-1.1663,-0.3804,0.6262,2.1028,0.2932,
8.141864,-0.5271,-0.6282,-0.0776,-2.4928,-1.1663,-0.3804,0.9638,2.9806,0.2037,
8.143918,-0.5271,-0.6282,-0.0776,-4.5093,2.8391,0.2921,0.9638,2.9806,0.2037,
8.181128,-0.5271,-0.6282,-0.0776,-4.5093,2.8391,0.2921,1.0267,3.7029,-0.1308,
8.183127,-0.5271,-0.6282,-0.0776,0.3470,-3.0381,-0.6749,1.0267,3.7029,-0.1308,
8.184329,-0.5816,-0.6245,-0.1211,0.3470,-3.0381,-0.6749,1.0267,3.7029,-0.1308,
8.185638,-0.4142,-0.9345,-0.3310,0.3470,-3.0381,-0.6749,1.0267,3.7029,-0.1308,
8.186653,0.0104,-1.4151,-0.3034,0.3470,-3.0381,-0.6749,1.0267,3.7029,-0.1308,
8.187815,0.4091,-1.5221,0.0572,0.3470,-3.0381,-0.6749,1.0267,3.7029,-0.1308,
8.189417,0.2662,-1.0088,-0.1067,0.3470,-3.0381,-0.6749,1.0267,3.7029,-0.1308,
8.220503,0.2662,-1.0088,-0.1067,0.3470,-3.0381,-0.6749,0.6379,3.7881,-0.2927,
8.222680,0.2662,-1.0088,-0.1067,0.0699,-2.9579,-0.8743,0.6379,3.7881,-0.2927,
8.262236,0.2662,-1.0088,-0.1067,0.0699,-2.9579,-0.8743,0.6549,3.9042,0.2069,
8.264283,0.2662,-1.0088,-0.1067,0.6407,1.9301,-0.0863,0.6549,3.9042,0.2069,
8.267089,-0.1098,-0.6690,-0.3369,0.6407,1.9301,-0.0863,0.6549,3.9042,0.2069,
8.268432,0.0446,-0.6946,0.1840,0.6407,1.9301,-0.0863,0.6549,3.9042,0.2069,
8.269526,0.1216,-0.9235,0.2536,0.6407,1.9301,-0.0863,0.6549,3.9042,0.2069,
8.270589,0.2049,-1.1869,-0.0904,0.6407,1.9301,-0.0863,0.6549,3.9042,0.2069,
8.300208,0.2049,-1.1869,-0.0904,0.6407,1.9301,-0.0863,1.3037,2.1380,0.6053,
8.301830,0.2049,-1.1869,-0.0904,0.8116,1.9224,-0.5739,1.3037,2.1380,0.6053,
8.339766,0.2049,-1.1869,-0.0904,0.8116,1.9224,-0.5739,1.1780,0.5305,0.2964,
8.341300,0.2049,-1.1869,-0.0904,3.0794,-1.7243,-1.1808,1.1780,0.5305,0.2964,
8.342328,0.5510,-1.3872,-0.4778,3.0794,-1.7243,-1.1808,1.1780,0.5305,0.2964,
8.343111,0.6456,-1.3682,-0.4837,3.0794,-1.7243,-1.1808,1.1780,0.5305,0.2964,
8.343997,0.4843,-1.0723,-0.2076,3.0794,-1.7243,-1.1808,1.1780,0.5305,0.2964,
8.344869,0.2735,-0.8502,-0.1397,3.0794,-1.7243,-1.1808,1.1780,0.5305,0.2964,
8.379101,0.2735,-0.8502,-0.1397,3.0794,-1.7243,-1.1808,1.2621,-0.3419,-0.0530,
8.380640,0.2735,-0.8502,-0.1397,4.6911,-1.0500,-3.2998,1.2621,-0.3419,-0.0530,
8.418851,0.2735,-0.8502,-0.1397,4.6911,-1.0500,-3.2998,1.3537,0.3526,0.0343,
8.420614,0.2735,-0.8502,-0.1397,-1.0141,0.4546,-4.6580,1.3537,0.3526,0.0343,
8.421483,0.1088,-0.8011,-0.2807,-1.0141,0.4546,-4.6580,1.3537,0.3526,0.0343,
8.422304,-0.1108,-0.8734,-0.3784,-1.0141,0.4546,-4.6580,1.3537,0.3526,0.0343,
8.423121,-0.3544,-1.1393,-0.4534,-1.0141,0.4546,-4.6580,1.3537,0.3526,0.0343,
8.423836,-0.1054,-1.3042,-0.6461,-1.0141,0.4546,-4.6580,1.3537,0.3526,0.0343,
8.458792,-0.1054,-1.3042,-0.6461,-1.0141,0.4546,-4.6580,0.6837,1.3177,0.7470,
8.461817,-0.1054,-1.3042,-0.6461,-0.6566,0.4071,-4.8204,0.6837,1.3177,0.7470,
8.483146,0.4467,-1.2875,-0.9850,-0.6566,0.4071,-4.8204,0.6837,1.3177,0.7470,
8.484522,0.6622,-1.3059,-0.8142,-0.6566,0.4071,-4.8204,0.6837,1.3177,0.7470,
8.485694,0.5765,-1.3115,-0.4409,-0.6566,0.4071,-4.8204,0.6837,1.3177,0.7470,
8.497943,0.5765,-1.3115,-0.4409,-0.6566,0.4071,-4.8204,-1.9369,0.6456,0.4562,
8.499110,0.5765,-1.3115,-0.4409,3.9173,-3.0309,-8.2802,-1.9369,0.6456,0.4562,
8.538134,0.5765,-1.3115,-0.4409,3.9173,-3.0309,-8.2802,-5.1614,-2.9934,0.3997,
8.539835,0.5765,-1.3115,-0.4409,4.9449,-1.9198,-1.8399,-5.1614,-2.9934,0.3997,
8.569126,0.4709,-1.0823,-0.3879,4.9449,-1.9198,-1.8399,-5.1614,-2.9934,0.3997,
8.570866,0.2222,-1.1287,-0.2316,4.9449,-1.9198,-1.8399,-5.1614,-2.9934,0.3997,
8.571793,0.1887,-1.1532,0.3711,4.9449,-1.9198,-1.8399,-5.1614,-2.9934,0.3997,
8.572743,0.0119,-1.1947,0.9501,4.9449,-1.9198,-1.8399,-5.1614,-2.9934,0.3997,
8.577155,0.0119,-1.1947,0.9501,4.9449,-1.9198,-1.8399,-5.5130,-4.7276,0.5350,
8.578943,0.0119,-1.1947,0.9501,5.5382,-2.4623,-0.0098,-5.5130,-4.7276,0.5350,
8.616845,0.0119,-1.1947,0.9501,5.5382,-2.4623,-0.0098,-2.2362,-0.7702,-0.4003,
8.619346,0.0119,-1.1947,0.9501,0.2135,-4.1805,10.1894,-2.2362,-0.7702,-0.4003,
8.656845,0.0119,-1.1947,0.9501,0.2135,-4.1805,10.1894,-0.7118,-0.9001,-1.4805,
8.659201,0.0119,-1.1947,0.9501,-0.1481,-4.1572,10.2204,-0.7118,-0.9001,-1.4805,
8.660597,-0.5508,-1.6259,0.5661,-0.1481,-4.1572,10.2204,-0.7118,-0.9001,-1.4805,
8.661823,-0.1364,-1.6450,0.2211,-0.1481,-4.1572,10.2204,-0.7118,-0.9001,-1.4805,
8.662995,0.8278,-1.5118,0.2246,-0.1481,-4.1572,10.2204,-0.7118,-0.9001,-1.4805,
8.664096,1.2024,-1.3902,0.1066,-0.1481,-4.1572,10.2204,-0.7118,-0.9001,-1.4805,
8.665268,0.6085,-0.9988,0.0272,-0.1481,-4.1572,10.2204,-0.7118,-0.9001,-1.4805,
8.696267,0.6085,-0.9988,0.0272,-0.1481,-4.1572,10.2204,-0.0897,-3.7700,-1.6179,
8.698135,0.6085,-0.9988,0.0272,7.0954,-5.8815,5.6477,-0.0897,-3.7700,-1.6179,
8.736716,0.6085,-0.9988,0.0272,7.0954,-5.8815,5.6477,0.8893,-4.7617,-1.1715,
8.738800,0.6085,-0.9988,0.0272,4.3425,1.6060,7.2513,0.8893,-4.7617,-1.1715,
8.740073,0.2686,-0.6782,0.4332,4.3425,1.6060,7.2513,0.8893,-4.7617,-1.1715,
8.741279,0.1162,-0.6225,0.7777,4.3425,1.6060,7.2513,0.8893,-4.7617,-1.1715,
8.742569,-0.0751,-0.5590,0.8070,4.3425,1.6060,7.2513,0.8893,-4.7617,-1.1715,
8.743817,-0.2974,-0.4537,0.8642,4.3425,1.6060,7.2513,0.8893,-4.7617,-1.1715,
8.776077,-0.2974,-0.4537,0.8642,4.3425,1.6060,7.2513,1.0523,-4.5785,-0.9414,
8.777967,-0.2974,-0.4537,0.8642,4.4531,1.7422,6.5397,1.0523,-4.5785,-0.9414,
8.815539,-0.2974,-0.4537,0.8642,4.4531,1.7422,6.5397,0.4855,-6.6824,-0.3491,
8.817521,-0.2974,-0.4537,0.8642,-1.1365,4.7998,9.9122,0.4855,-6.6824,-0.3491,
8.819458,-0.4907,-0.3450,0.8212,-1.1365,4.7998,9.9122,0.4855,-6.6824,-0.3491,
8.820714,-0.5141,-0.4212,0.4786,-1.1365,4.7998,9.9122,0.4855,-6.6824,-0.3491,
8.821932,-1.0777,-1.1028,-0.9994,-1.1365,4.7998,9.9122,0.4855,-6.6824,-0.3491,
8.823328,-1.0042,-1.9049,-1.2181,-1.1365,4.7998,9.9122,0.4855,-6.6824,-0.3491,
8.855214,-1.0042,-1.9049,-1.2181,-1.1365,4.7998,9.9122,-0.1888,-7.2480,0.1579,
8.857507,-1.0042,-1.9049,-1.2181,-6.1977,-1.9563,-4.3210,-0.1888,-7.2480,0.1579,
8.894779,-0.2124,-1.7063,-0.0026,-6.1977,-1.9563,-4.3210,-0.1888,-7.2480,0.1579,
8.896954,0.0326,-1.5106,-0.2865,-6.1977,-1.9563,-4.3210,-0.1888,-7.2480,0.1579,
8.898138,0.3033,-1.2880,0.0289,-6.1977,-1.9563,-4.3210,-0.1888,-7.2480,0.1579,
8.899429,0.3033,-1.2880,0.0289,-6.1977,-1.9563,-4.3210,-0.7661,-0.9470,-0.2107,
8.900735,0.3033,-1.2880,0.0289,2.6132,-5.4028,0.6905,-0.7661,-0.9470,-0.2107,
8.934233,0.3033,-1.2880,0.0289,2.6132,-5.4028,0.6905,-0.5616,-2.2946,-0.7529,
8.936353,0.3033,-1.2880,0.0289,3.2253,0.7971,4.4353,-0.5616,-2.2946,-0.7529,
8.973923,0.3033,-1.2880,0.0289,3.2253,0.7971,4.4353,0.7039,-2.2988,-0.7880,
8.977516,0.3033,-1.2880,0.0289,3.0000,0.8770,3.9307,0.7039,-2.2988,-0.7880,
8.979315,0.2154,-1.0640,-0.1119,3.0000,0.8770,3.9307,0.7039,-2.2988,-0.7880,
8.980564,0.2141,-0.8019,0.4139,3.0000,0.8770,3.9307,0.7039,-2.2988,-0.7880,
8.981768,-0.0602,-0.7459,0.6032,3.0000,0.8770,3.9307,0.7039,-2.2988,-0.7880,
8.983068,-0.5681,-1.1312,0.0523,3.0000,0.8770,3.9307,0.7039,-2.2988,-0.7880,
8.984378,-0.3099,-1.2394,-0.3000,3.0000,0.8770,3.9307,0.7039,-2.2988,-0.7880,
9.013707,-0.3099,-1.2394,-0.3000,3.0000,0.8770,3.9307,0.9159,-0.7318,-0.2756,
9.015811,-0.3099,-1.2394,-0.3000,2.8728,0.9086,3.4781,0.9159,-0.7318,-0.2756,
9.053446,-0.3099,-1.2394,-0.3000,2.8728,0.9086,3.4781,0.5015,-0.8170,0.0280,
9.055315,-0.3099,-1.2394,-0.3000,-1.0364,-1.4626,-0.4934,0.5015,-0.8170,0.0280,
9.056678,0.0382,-0.9765,0.0086,-1.0364,-1.4626,-0.4934,0.5015,-0.8170,0.0280,
9.058011,-0.0372,-0.8348,0.2055,-1.0364,-1.4626,-0.4934,0.5015,-0.8170,0.0280,
9.059346,-0.0715,-0.8705,0.0279,-1.0364,-1.4626,-0.4934,0.5015,-0.8170,0.0280,
9.060468,-0.1279,-0.8886,-0.0349,-1.0364,-1.4626,-0.4934,0.5015,-0.8170,0.0280,
9.093197,-0.1279,-0.8886,-0.0349,-1.0364,-1.4626,-0.4934,0.1713,-0.7861,0.2421,
9.095084,-0.1279,-0.8886,-0.0349,1.0144,0.9662,0.8036,0.1713,-0.7861,0.2421,
9.132921,-0.1279,-0.8886,-0.0349,1.0144,0.9662,0.8036,-0.3986,-0.0799,0.5531,
9.135319,-0.1279,-0.8886,-0.0349,-0.6317,0.8377,1.7566,-0.3986,-0.0799,0.5531,
9.136817,-0.2114,-0.8537,0.0721,-0.6317,0.8377,1.7566,-0.3986,-0.0799,0.5531,
9.138106,-0.2706,-0.8537,0.1950,-0.6317,0.8377,1.7566,-0.3986,-0.0799,0.5531,
9.139050,-0.3250,-0.9079,0.1884,-0.6317,0.8377,1.7566,-0.3986,-0.0799,0.5531,
9.140312,-0.3974,-1.0388,0.3494,-0.6317,0.8377,1.7566,-0.3986,-0.0799,0.5531,
9.172375,-0.3974,-1.0388,0.3494,-0.6317,0.8377,1.7566,-0.5946,1.8653,0.5063,
9.174272,-0.3974,-1.0388,0.3494,-0.4706,0.7722,2.0970,-0.5946,1.8653,0.5063,
9.212320,-0.3974,-1.0388,0.3494,-0.4706,0.7722,2.0970,-0.2932,4.0395,0.4530,
9.214302,-0.3974,-1.0388,0.3494,-4.3662,-1.4019,6.0573,-0.2932,4.0395,0.4530,
9.215745,-0.6571,-1.1075,0.6509,-4.3662,-1.4019,6.0573,-0.2932,4.0395,0.4530,
9.217000,-0.9771,-1.1268,0.5583,-4.3662,-1.4019,6.0573,-0.2932,4.0395,0.4530,
9.218242,-1.1110,-1.2731,-0.0466,-4.3662,-1.4019,6.0573,-0.2932,4.0395,0.4530,
9.219726,-1.0289,-1.5294,-0.4585,-4.3662,-1.4019,6.0573,-0.2932,4.0395,0.4530,
9.251547,-1.0289,-1.5294,-0.4585,-4.3662,-1.4019,6.0573,-1.8229,3.7583,1.0804,
9.253537,-1.0289,-1.5294,-0.4585,-4.1145,-1.5846,6.9541,-1.8229,3.7583,1.0804,
9.291360,-1.0289,-1.5294,-0.4585,-4.1145,-1.5846,6.9541,-1.7078,4.5007,1.5034,
9.293274,-1.0289,-1.5294,-0.4585,-5.9050,-5.0334,0.1514,-1.7078,4.5007,1.5034,
9.294581,-0.5022,-1.4559,-0.3447,-5.9050,-5.0334,0.1514,-1.7078,4.5007,1.5034,
9.296099,-0.2215,-0.9800,-0.2389,-5.9050,-5.0334,0.1514,-1.7078,4.5007,1.5034,
9.297343,-0.2097,-0.5620,-0.2521,-5.9050,-5.0334,0.1514,-1.7078,4.5007,1.5034,
9.298466,-0.0719,-0.4308,-0.1869,-5.9050,-5.0334,0.1514,-1.7078,4.5007,1.5034,
9.330697,-0.0719,-0.4308,-0.1869,-5.9050,-5.0334,0.1514,0.0296,3.9980,1.4245,
9.332491,-0.0719,-0.4308,-0.1869,1.0548,2.2475,1.1166,0.0296,3.9980,1.4245,
9.370203,-0.0719,-0.4308,-0.1869,1.0548,2.2475,1.1166,1.5657,3.1841,0.5681,
9.372269,-0.0719,-0.4308,-0.1869,2.5637,4.5967,5.2007,1.5657,3.1841,0.5681,
9.373587,0.0143,-0.4254,-0.0552,2.5637,4.5967,5.2007,1.5657,3.1841,0.5681,
9.374827,-0.0060,-0.4041,0.2250,2.5637,4.5967,5.2007,1.5657,3.1841,0.5681,
9.375774,0.0304,-0.4440,0.4950,2.5637,4.5967,5.2007,1.5657,3.1841,0.5681,
9.376885,0.1384,-0.4860,0.4124,2.5637,4.5967,5.2007,1.5657,3.1841,0.5681,
9.410096,0.1384,-0.4860,0.4124,2.5637,4.5967,5.2007,3.4757,4.4912,-0.1276,
9.412106,0.1384,-0.4860,0.4124,2.0126,4.8858,4.2843,3.4757,4.4912,-0.1276,
9.450534,0.1384,-0.4860,0.4124,2.0126,4.8858,4.2843,4.6667,5.7279,-0.1414,
9.452637,0.3185,-0.5866,0.2881,2.0126,4.8858,4.2843,4.6667,5.7279,-0.1414,
9.453992,0.2457,-0.8121,0.0926,2.0126,4.8858,4.2843,4.6667,5.7279,-0.1414,
9.456519,0.1492,-1.2089,-0.1321,2.0126,4.8858,4.2843,4.6667,5.7279,-0.1414,
9.457724,0.0573,-1.7368,-0.6332,2.0126,4.8858,4.2843,4.6667,5.7279,-0.1414,
9.459089,0.0573,-1.7368,-0.6332,3.7331,3.1161,3.3237,4.6667,5.7279,-0.1414,
9.489332,0.0573,-1.7368,-0.6332,3.7331,3.1161,3.3237,2.8280,4.0075,0.3433,
9.491267,0.0573,-1.7368,-0.6332,3.7472,3.0801,2.4705,2.8280,4.0075,0.3433,
9.528986,0.0573,-1.7368,-0.6332,3.7472,3.0801,2.4705,0.1617,1.8237,0.0557,
9.530719,0.0573,-1.7368,-0.6332,1.9858,-7.6675,-6.0112,0.1617,1.8237,0.0557,
9.532261,-0.0429,-2.2675,-1.0837,1.9858,-7.6675,-6.0112,0.1617,1.8237,0.0557,
9.533526,-0.1015,-2.0056,-0.9557,1.9858,-7.6675,-6.0112,0.1617,1.8237,0.0557,
9.534677,-0.0282,-1.1498,-1.0190,1.9858,-7.6675,-6.0112,0.1617,1.8237,0.0557,
9.536017,0.1252,-1.0083,-0.6383,1.9858,-7.6675,-6.0112,0.1617,1.8237,0.0557,
9.568155,0.1252,-1.0083,-0.6383,1.9858,-7.6675,-6.0112,-0.8301,2.4704,0.7800,
9.570151,0.1252,-1.0083,-0.6383,1.6740,-4.2253,-7.9119,-0.8301,2.4704,0.7800,
9.608208,0.1252,-1.0083,-0.6383,1.6740,-4.2253,-7.9119,0.6539,-1.1015,1.0187,
9.610585,0.1252,-1.0083,-0.6383,7.9265,-0.8550,1.1227,0.6539,-1.1015,1.0187,
9.611899,0.3756,-0.8583,0.2429,7.9265,-0.8550,1.1227,0.6539,-1.1015,1.0187,
9.613259,0.6209,-0.9453,0.2243,7.9265,-0.8550,1.1227,0.6539,-1.1015,1.0187,
9.614516,0.8327,-1.3132,-0.2081,7.9265,-0.8550,1.1227,0.6539,-1.1015,1.0187,
9.615774,0.8804,-1.4295,-0.6010,7.9265,-0.8550,1.1227,0.6539,-1.1015,1.0187,
9.647530,0.8804,-1.4295,-0.6010,7.9265,-0.8550,1.1227,1.5412,-2.1699,0.0045,
9.649438,0.8804,-1.4295,-0.6010,7.7885,-0.8468,0.3761,1.5412,-2.1699,0.0045,
9.687648,0.8804,-1.4295,-0.6010,7.7885,-0.8468,0.3761,1.1194,-1.8642,-0.5292,
9.689685,0.8804,-1.4295,-0.6010,5.7802,-2.3291,-6.0624,1.1194,-1.8642,-0.5292,
9.690971,0.5022,-1.1989,-0.6361,5.7802,-2.3291,-6.0624,1.1194,-1.8642,-0.5292,
9.692234,-0.0612,-0.9550,-0.3408,5.7802,-2.3291,-6.0624,1.1194,-1.8642,-0.5292,
9.693174,-0.1648,-0.7115,-0.2489,5.7802,-2.3291,-6.0624,1.1194,-1.8642,-0.5292,
9.694403,-0.0583,-0.6909,-0.3950,5.7802,-2.3291,-6.0624,1.1194,-1.8642,-0.5292,
9.726936,-0.0583,-0.6909,-0.3950,5.7802,-2.3291,-6.0624,1.2291,-1.0013,0.1419,
9.728864,-0.0583,-0.6909,-0.3950,5.6914,-2.3543,-6.4653,1.2291,-1.0013,0.1419,
9.766602,-0.0583,-0.6909,-0.3950,5.6914,-2.3543,-6.4653,-0.9377,-1.0248,0.4221,
9.768648,-0.0583,-0.6909,-0.3950,0.9737,2.0058,-5.5183,-0.9377,-1.0248,0.4221,
9.770156,0.0727,-0.8419,-0.7615,0.9737,2.0058,-5.5183,-0.9377,-1.0248,0.4221,
9.771456,0.1963,-1.0926,-0.9359,0.9737,2.0058,-5.5183,-0.9377,-1.0248,0.4221,
9.772543,0.1641,-1.4170,-0.7361,0.9737,2.0058,-5.5183,-0.9377,-1.0248,0.4221,
9.773804,0.2066,-1.4857,-0.4192,0.9737,2.0058,-5.5183,-0.9377,-1.0248,0.4221,
9.805945,0.2066,-1.4857,-0.4192,0.9737,2.0058,-5.5183,-3.9556,-3.3758,0.3134,
9.807828,0.2066,-1.4857,-0.4192,3.3362,-3.6249,-6.3832,-3.9556,-3.3758,0.3134,
9.845955,0.2066,-1.4857,-0.4192,3.3362,-3.6249,-6.3832,-5.4597,-3.4333,-0.0136,
9.847965,0.2066,-1.4857,-0.4192,2.9927,-5.7182,2.5095,-5.4597,-3.4333,-0.0136,
9.849360,0.3246,-1.3115,-0.2526,2.9927,-5.7182,2.5095,-5.4597,-3.4333,-0.0136,
9.850499,0.1599,-1.5084,-0.0950,2.9927,-5.7182,2.5095,-5.4597,-3.4333,-0.0136,
9.851658,-0.0605,-1.7566,0.4398,2.9927,-5.7182,2.5095,-5.4597,-3.4333,-0.0136,
9.853852,-0.2825,-1.7925,0.3704,2.9927,-5.7182,2.5095,-5.4597,-3.4333,-0.0136,
9.885272,-0.2825,-1.7925,0.3704,2.9927,-5.7182,2.5095,-3.8000,-1.5095,-0.5814,
9.887818,-0.2825,-1.7925,0.3704,2.9006,-6.0070,3.7127,-3.8000,-1.5095,-0.5814,
9.925079,-0.2825,-1.7925,0.3704,2.9006,-6.0070,3.7127,-1.4969,-1.8962,-1.3026,
9.927170,-0.2825,-1.7925,0.3704,1.0633,-5.9914,9.5858,-1.4969,-1.8962,-1.3026,
9.928466,-0.1181,-1.5155,0.6262,1.0633,-5.9914,9.5858,-1.4969,-1.8962,-1.3026,
9.929786,0.3224,-1.2514,0.8153,1.0633,-5.9914,9.5858,-1.4969,-1.8962,-1.3026,
9.931030,0.3578,-1.1432,0.4425,1.0633,-5.9914,9.5858,-1.4969,-1.8962,-1.3026,
9.932695,0.1172,-0.9692,0.1332,1.0633,-5.9914,9.5858,-1.4969,-1.8962,-1.3026,
9.964863,0.1172,-0.9692,0.1332,1.0633,-5.9914,9.5858,-1.0985,-3.0733,-1.3111,
9.966888,0.1172,-0.9692,0.1332,1.0491,-5.9872,9.6487,-1.0985,-3.0733,-1.3111,
10.005060,0.1172,-0.9692,0.1332,1.0491,-5.9872,9.6487,-0.4018,-4.3111,-0.7177,
10.007081,0.1172,-0.9692,0.1332,2.7268,-0.4058,5.8718,-0.4018,-4.3111,-0.7177,
10.008350,-0.1418,-0.7349,0.1442,2.7268,-0.4058,5.8718,-0.4018,-4.3111,-0.7177,
10.009751,-0.3827,-0.5116,0.2966,2.7268,-0.4058,5.8718,-0.4018,-4.3111,-0.7177,
10.011003,-0.5378,-0.3834,0.3944,2.7268,-0.4058,5.8718,-0.4018,-4.3111,-0.7177,
10.012304,-0.5811,-0.3919,0.2465,2.7268,-0.4058,5.8718,-0.4018,-4.3111,-0.7177,
10.043957,-0.5811,-0.3919,0.2465,2.7268,-0.4058,5.8718,0.7529,-4.1790,-0.7444,
10.046107,-0.5811,-0.3919,0.2465,-2.9384,4.7591,5.9190,0.7529,-4.1790,-0.7444,
10.083930,-0.5811,-0.3919,0.2465,-2.9384,4.7591,5.9190,1.3900,-1.3337,-0.7284,
10.086049,-0.5811,-0.3919,0.2465,-4.4301,1.8536,3.3350,1.3900,-1.3337,-0.7284,
10.087374,-0.6458,-0.4862,0.1879,-4.4301,1.8536,3.3350,1.3900,-1.3337,-0.7284,
10.088600,-0.7008,-0.7083,0.1630,-4.4301,1.8536,3.3350,1.3900,-1.3337,-0.7284,
10.089774,-0.5977,-1.0320,-0.0026,-4.4301,1.8536,3.3350,1.3900,-1.3337,-0.7284,
10.090988,-0.4474,-1.3899,-0.1751,-4.4301,1.8536,3.3350,1.3900,-1.3337,-0.7284,
10.122965,-0.4474,-1.3899,-0.1751,-4.4301,1.8536,3.3350,1.1758,0.8181,-0.6783,
10.124610,-0.4474,-1.3899,-0.1751,-4.6605,1.9614,2.9123,1.1758,0.8181,-0.6783,
10.163039,-0.4474,-1.3899,-0.1751,-4.6605,1.9614,2.9123,0.0094,1.1004,-0.6250,
10.164897,-0.4474,-1.3899,-0.1751,-2.6720,-3.6084,-0.1854,0.0094,1.1004,-0.6250,
10.166439,-0.4025,-1.4581,-0.2570,-2.6720,-3.6084,-0.1854,0.0094,1.1004,-0.6250,
10.167679,-0.4057,-1.1141,-0.1883,-2.6720,-3.6084,-0.1854,0.0094,1.1004,-0.6250,
10.169850,-0.3971,-0.8920,-0.3212,-2.6720,-3.6084,-0.1854,0.0094,1.1004,-0.6250,
10.171710,-0.4953,-0.8290,-0.6127,-2.6720,-3.6084,-0.1854,0.0094,1.1004,-0.6250,
10.202372,-0.4953,-0.8290,-0.6127,-2.6720,-3.6084,-0.1854,-0.6831,1.0525,0.1728,
10.204604,-0.4953,-0.8290,-0.6127,-2.6459,-3.6109,0.1228,-0.6831,1.0525,0.1728,
10.242158,-0.4953,-0.8290,-0.6127,-2.6459,-3.6109,0.1228,-0.5339,0.6243,0.8972,
10.244242,-0.4953,-0.8290,-0.6127,-3.3941,1.1941,-1.2821,-0.5339,0.6243,0.8972,
10.246054,-0.6937,-0.7320,-0.1952,-3.3941,1.1941,-1.2821,-0.5339,0.6243,0.8972,
10.247040,-0.5364,-0.8287,0.0504,-3.3941,1.1941,-1.2821,-0.5339,0.6243,0.8972,
10.248284,-0.1956,-1.0098,-0.0539,-3.3941,1.1941,-1.2821,-0.5339,0.6243,0.8972,
10.249317,0.1198,-1.1510,-0.0779,-3.3941,1.1941,-1.2821,-0.5339,0.6243,0.8972,
10.281596,0.1198,-1.1510,-0.0779,-3.3941,1.1941,-1.2821,-0.2900,0.1257,0.9100,
10.283483,0.1198,-1.1510,-0.0779,0.1042,-0.6460,2.2169,-0.2900,0.1257,0.9100,
10.321720,0.1198,-1.1510,-0.0779,0.1042,-0.6460,2.2169,0.6017,0.3846,0.5840,
10.323629,0.1198,-1.1510,-0.0779,1.8067,0.4438,2.4944,0.6017,0.3846,0.5840,
10.324819,0.1450,-1.0884,0.0599,1.8067,0.4438,2.4944,0.6017,0.3846,0.5840,
10.326128,-0.0419,-0.8363,0.0491,1.8067,0.4438,2.4944,0.6017,0.3846,0.5840,
10.327246,-0.2381,-0.7308,-0.0364,1.8067,0.4438,2.4944,0.6017,0.3846,0.5840,
10.328404,-0.3553,-0.7616,-0.0742,1.8067,0.4438,2.4944,0.6017,0.3846,0.5840,
10.361359,-0.3553,-0.7616,-0.0742,1.8067,0.4438,2.4944,1.3409,-0.4314,0.5936,
10.363266,-0.3553,-0.7616,-0.0742,2.0205,0.4860,1.9348,1.3409,-0.4314,0.5936,
10.400676,-0.3553,-0.7616,-0.0742,2.0205,0.4860,1.9348,1.6999,-1.1036,0.6426,
10.402872,-0.3553,-0.7616,-0.0742,-0.1643,1.2553,0.5257,1.6999,-1.1036,0.6426,
10.404261,-0.3338,-0.8165,-0.0425,-0.1643,1.2553,0.5257,1.6999,-1.1036,0.6426,
10.405482,-0.2046,-0.8427,-0.0149,-0.1643,1.2553,0.5257,1.6999,-1.1036,0.6426,
10.406771,-0.0358,-0.8791,-0.0806,-0.1643,1.2553,0.5257,1.6999,-1.1036,0.6426,
10.407927,0.0258,-1.0247,-0.1705,-0.1643,1.2553,0.5257,1.6999,-1.1036,0.6426,
10.440607,0.0258,-1.0247,-0.1705,-0.1643,1.2553,0.5257,1.3665,-0.8170,0.0194,
10.442952,0.0258,-1.0247,-0.1705,-0.1335,1.2676,-0.0608,1.3665,-0.8170,0.0194,
10.479661,0.0258,-1.0247,-0.1705,-0.1335,1.2676,-0.0608,0.7891,0.1918,-0.1286,
10.481620,0.0258,-1.0247,-0.1705,1.6191,-1.4081,-1.8738,0.7891,0.1918,-0.1286,
10.482928,-0.3243,-1.3498,-0.3637,1.6191,-1.4081,-1.8738,0.7891,0.1918,-0.1286,
10.484181,-0.7885,-1.6652,-0.5431,1.6191,-1.4081,-1.8738,0.7891,0.1918,-0.1286,
10.485505,-0.5202,-1.3533,-0.3417,1.6191,-1.4081,-1.8738,0.7891,0.1918,-0.1286,
10.486823,-0.1763,-0.9404,-0.1487,1.6191,-1.4081,-1.8738,0.7891,0.1918,-0.1286,
10.519454,-0.1763,-0.9404,-0.1487,1.6191,-1.4081,-1.8738,0.2810,1.7630,0.2517,
10.521342,-0.1763,-0.9404,-0.1487,-2.0245,-3.6757,-3.0998,0.2810,1.7630,0.2517,
10.559235,-0.1763,-0.9404,-0.1487,-2.0245,-3.6757,-3.0998,0.1894,0.0980,0.3529,
10.561106,-0.1763,-0.9404,-0.1487,1.2764,0.7134,0.0975,0.1894,0.0980,0.3529,
10.562352,-0.1528,-0.8436,-0.0605,1.2764,0.7134,0.0975,0.1894,0.0980,0.3529,
10.563488,-0.2520,-0.8324,0.1114,1.2764,0.7134,0.0975,0.1894,0.0980,0.3529,
10.564582,-0.1022,-0.9238,-0.0872,1.2764,0.7134,0.0975,0.1894,0.0980,0.3529,
10.565779,0.1250,-1.0713,-0.4360,1.2764,0.7134,0.0975,0.1894,0.0980,0.3529,
10.598847,0.1250,-1.0713,-0.4360,1.2764,0.7134,0.0975,0.0626,-0.5774,0.5702,
10.600626,0.1250,-1.0713,-0.4360,1.4625,0.6345,0.0048,0.0626,-0.5774,0.5702,
10.638332,0.1250,-1.0713,-0.4360,1.4625,0.6345,0.0048,-1.1827,-0.1949,0.3880,
10.641261,0.1250,-1.0713,-0.4360,5.7429,-1.5555,-5.9608,-1.1827,-0.1949,0.3880,
10.643654,0.2762,-1.0923,-0.7984,5.7429,-1.5555,-5.9608,-1.1827,-0.1949,0.3880,
10.645581,0.3886,-1.0950,-0.7820,5.7429,-1.5555,-5.9608,-1.1827,-0.1949,0.3880,
10.647214,0.4260,-1.1603,-0.7148,5.7429,-1.5555,-5.9608,-1.1827,-0.1949,0.3880,
10.648899,0.3839,-1.2238,-0.7998,5.7429,-1.5555,-5.9608,-1.1827,-0.1949,0.3880,
10.677464,0.3839,-1.2238,-0.7998,5.7429,-1.5555,-5.9608,-2.8594,-0.3824,-0.1233,
10.679087,0.3839,-1.2238,-0.7998,5.6205,-1.6386,-4.9019,-2.8594,-0.3824,-0.1233,
10.716883,0.3839,-1.2238,-0.7998,5.6205,-1.6386,-4.9019,-4.3827,-0.8714,-0.7571,
10.718209,0.3839,-1.2238,-0.7998,6.1654,-2.9413,-4.4490,-4.3827,-0.8714,-0.7571,
10.718838,0.2342,-1.1876,-0.8262,6.1654,-2.9413,-4.4490,-4.3827,-0.8714,-0.7571,
10.719296,-0.0932,-1.2858,-0.5953,6.1654,-2.9413,-4.4490,-4.3827,-0.8714,-0.7571,
10.719828,-0.2364,-1.4783,-0.0044,6.1654,-2.9413,-4.4490,-4.3827,-0.8714,-0.7571,
10.720323,0.0441,-1.3469,0.4474,6.1654,-2.9413,-4.4490,-4.3827,-0.8714,-0.7571,
10.757714,0.0441,-1.3469,0.4474,6.1654,-2.9413,-4.4490,-3.7223,-0.4538,-1.3995,
10.759763,0.0441,-1.3469,0.4474,1.3940,-5.0376,3.8461,-3.7223,-0.4538,-1.3995,
10.796591,0.0441,-1.3469,0.4474,1.3940,-5.0376,3.8461,-1.9337,0.9449,-2.8078,
10.798737,0.0441,-1.3469,0.4474,3.6647,-4.9092,3.1426,-1.9337,0.9449,-2.8078,
10.800257,0.2960,-1.1300,0.1383,3.6647,-4.9092,3.1426,-1.9337,0.9449,-2.8078,
10.801240,0.3053,-1.3428,-0.2176,3.6647,-4.9092,3.1426,-1.9337,0.9449,-2.8078,
10.802570,0.1650,-1.5756,-0.4864,3.6647,-4.9092,3.1426,-1.9337,0.9449,-2.8078,
10.803822,0.0255,-1.4268,-0.3740,3.6647,-4.9092,3.1426,-1.9337,0.9449,-2.8078,
10.836400,0.0255,-1.4268,-0.3740,3.6647,-4.9092,3.1426,-1.6503,-1.2996,-3.3915,
10.838458,0.0255,-1.4268,-0.3740,2.7908,-5.0711,3.5870,-1.6503,-1.2996,-3.3915,
10.876537,0.0255,-1.4268,-0.3740,2.7908,-5.0711,3.5870,-0.1068,-1.8919,-1.9662,
10.879360,-0.2688,-0.9489,0.0794,2.7908,-5.0711,3.5870,-0.1068,-1.8919,-1.9662,
10.880792,-0.4049,-0.3621,0.0924,2.7908,-5.0711,3.5870,-0.1068,-1.8919,-1.9662,
10.881929,-0.3534,-0.0992,0.0797,2.7908,-5.0711,3.5870,-0.1068,-1.8919,-1.9662,
10.883126,-0.2320,-0.1970,0.2265,2.7908,-5.0711,3.5870,-0.1068,-1.8919,-1.9662,
10.884367,-0.2320,-0.1970,0.2265,-2.0171,-0.7890,4.7198,-0.1068,-1.8919,-1.9662,
10.915775,-0.2320,-0.1970,0.2265,-2.0171,-0.7890,4.7198,1.7010,-0.9822,-0.5899,
10.917907,-0.2320,-0.1970,0.2265,-1.9740,-0.4358,4.0854,1.7010,-0.9822,-0.5899,
10.955708,-0.2320,-0.1970,0.2265,-1.9740,-0.4358,4.0854,2.6225,0.3846,-0.3513,
10.958368,-0.2320,-0.1970,0.2265,-2.6113,6.7328,6.0245,2.6225,0.3846,-0.3513,
10.960740,-0.2156,-0.3492,0.3944,-2.6113,6.7328,6.0245,2.6225,0.3846,-0.3513,
10.961942,-0.2388,-0.3707,0.4503,-2.6113,6.7328,6.0245,2.6225,0.3846,-0.3513,
10.963102,-0.2620,-0.4462,0.0621,-2.6113,6.7328,6.0245,2.6225,0.3846,-0.3513,
10.964203,-0.0700,-0.7662,-0.4873,-2.6113,6.7328,6.0245,2.6225,0.3846,-0.3513,
10.994918,-0.0700,-0.7662,-0.4873,-2.6113,6.7328,6.0245,2.6342,1.0706,-1.4272,
10.997139,-0.0700,-0.7662,-0.4873,-2.4653,3.9260,2.8153,2.6342,1.0706,-1.4272,
11.034845,-0.0700,-0.7662,-0.4873,-2.4653,3.9260,2.8153,1.7585,1.1686,-1.7244,
11.036961,-0.0700,-0.7662,-0.4873,-0.9274,-4.4108,-5.8888,1.7585,1.1686,-1.7244,
11.038259,0.4308,-1.2739,-0.7309,-0.9274,-4.4108,-5.8888,1.7585,1.1686,-1.7244,
11.039730,0.3580,-1.4038,-0.6320,-0.9274,-4.4108,-5.8888,1.7585,1.1686,-1.7244,
11.041016,-0.6685,-1.5111,-1.0981,-0.9274,-4.4108,-5.8888,1.7585,1.1686,-1.7244,
11.042374,-1.8075,-1.9445,-0.8887,-0.9274,-4.4108,-5.8888,1.7585,1.1686,-1.7244,
11.074009,-1.8075,-1.9445,-0.8887,-0.9274,-4.4108,-5.8888,-1.1422,-0.6743,0.8674,
11.076042,-1.8075,-1.9445,-0.8887,-0.5370,-4.4048,-5.3493,-1.1422,-0.6743,0.8674,
11.114103,-1.8075,-1.9445,-0.8887,-0.5370,-4.4048,-5.3493,-1.2200,0.4794,0.8312,
11.116279,-1.8075,-1.9445,-0.8887,-18.3686,-7.4033,0.6843,-1.2200,0.4794,0.8312,
11.118082,-2.1735,-2.0425,-0.0088,-18.3686,-7.4033,0.6843,-1.2200,0.4794,0.8312,
11.119505,-1.5282,-1.1231,0.1549,-18.3686,-7.4033,0.6843,-1.2200,0.4794,0.8312,
11.120895,-0.0052,-0.7095,0.4254,-18.3686,-7.4033,0.6843,-1.2200,0.4794,0.8312,
11.122328,0.7357,-1.0547,0.4899,-18.3686,-7.4033,0.6843,-1.2200,0.4794,0.8312,
11.152803,0.7357,-1.0547,0.4899,-18.3686,-7.4033,0.6843,0.8850,4.6478,0.2517,
11.154294,0.7357,-1.0547,0.4899,-18.5039,-7.1758,0.2457,0.8850,4.6478,0.2517,
11.193227,0.7357,-1.0547,0.4899,-18.5039,-7.1758,0.2457,1.0661,2.4597,0.2421,
11.195616,0.7357,-1.0547,0.4899,3.0626,-1.3508,4.7776,1.0661,2.4597,0.2421,
11.197090,0.4240,-1.6029,-0.1043,3.0626,-1.3508,4.7776,1.0661,2.4597,0.2421,
11.198203,0.4993,-1.8929,-0.2149,3.0626,-1.3508,4.7776,1.0661,2.4597,0.2421,
11.199546,0.5745,-1.4964,-0.1505,3.0626,-1.3508,4.7776,1.0661,2.4597,0.2421,
11.200794,0.0895,-1.0169,-0.2650,3.0626,-1.3508,4.7776,1.0661,2.4597,0.2421,
11.234502,0.0895,-1.0169,-0.2650,3.0626,-1.3508,4.7776,0.6048,1.1175,0.2762,
11.236380,0.0895,-1.0169,-0.2650,3.0567,-4.6112,-0.1913,0.6048,1.1175,0.2762,
11.271912,0.0895,-1.0169,-0.2650,3.0567,-4.6112,-0.1913,0.5143,1.6799,0.6799,
11.273722,0.0895,-1.0169,-0.2650,-5.5840,3.2939,-1.4020,0.5143,1.6799,0.6799,
11.274810,-0.2813,-0.7574,-0.2931,-5.5840,3.2939,-1.4020,0.5143,1.6799,0.6799,
11.276039,-0.5671,-0.6243,-0.2611,-5.5840,3.2939,-1.4020,0.5143,1.6799,0.6799,
11.277711,-0.7079,-0.6040,-0.3791,-5.5840,3.2939,-1.4020,0.5143,1.6799,0.6799,
11.278942,-0.5205,-0.7608,-0.4549,-5.5840,3.2939,-1.4020,0.5143,1.6799,0.6799,
11.312502,-0.5205,-0.7608,-0.4549,-5.5840,3.2939,-1.4020,0.1415,2.6057,0.5574,
11.314534,-0.5205,-0.7608,-0.4549,-5.4388,3.2580,-1.4797,0.1415,2.6057,0.5574,
11.352184,-0.5205,-0.7608,-0.4549,-5.4388,3.2580,-1.4797,-1.3403,3.2384,0.5361,
11.354268,-0.5205,-0.7608,-0.4549,-4.6658,0.5611,-1.7833,-1.3403,3.2384,0.5361,
11.356163,-0.3849,-0.9731,-0.4207,-4.6658,0.5611,-1.7833,-1.3403,3.2384,0.5361,
11.357656,-0.4323,-1.0474,-0.3039,-4.6658,0.5611,-1.7833,-1.3403,3.2384,0.5361,
11.360207,-0.4469,-1.0437,-0.3730,-4.6658,0.5611,-1.7833,-1.3403,3.2384,0.5361,
11.361792,-0.2686,-1.0711,-0.5120,-4.6658,0.5611,-1.7833,-1.3403,3.2384,0.5361,
11.390691,-0.2686,-1.0711,-0.5120,-4.6658,0.5611,-1.7833,-2.6389,2.6024,1.3489,
11.392628,-0.2686,-1.0711,-0.5120,-4.3406,0.2984,-0.7942,-2.6389,2.6024,1.3489,
11.431333,-0.2686,-1.0711,-0.5120,-4.3406,0.2984,-0.7942,-2.8498,2.0869,1.9412,
11.432731,-0.2686,-1.0711,-0.5120,-1.5091,-1.9645,-1.0820,-2.8498,2.0869,1.9412,
11.433444,0.1108,-1.2399,-0.7111,-1.5091,-1.9645,-1.0820,-2.8498,2.0869,1.9412,
11.434326,0.6414,-1.2709,-0.6295,-1.5091,-1.9645,-1.0820,-2.8498,2.0869,1.9412,
11.434977,0.5635,-1.0921,-0.3713,-1.5091,-1.9645,-1.0820,-2.8498,2.0869,1.9412,
11.435807,0.0485,-1.0059,-0.2044,-1.5091,-1.9645,-1.0820,-2.8498,2.0869,1.9412,
11.469807,0.0485,-1.0059,-0.2044,-1.5091,-1.9645,-1.0820,-1.7004,0.3260,1.8123,
11.470923,0.0485,-1.0059,-0.2044,5.0536,-2.3229,0.7824,-1.7004,0.3260,1.8123,
11.510093,0.0485,-1.0059,-0.2044,5.0536,-2.3229,0.7824,-0.7544,0.1555,1.7643,
11.511181,0.0485,-1.0059,-0.2044,2.7051,0.1686,0.2981,-0.7544,0.1555,1.7643,
11.511605,-0.0619,-1.0557,-0.4891,2.7051,0.1686,0.2981,-0.7544,0.1555,1.7643,
11.512095,0.2728,-0.8727,-0.4966,2.7051,0.1686,0.2981,-0.7544,0.1555,1.7643,
11.512465,0.1638,-0.6059,-0.4470,2.7051,0.1686,0.2981,-0.7544,0.1555,1.7643,
11.512926,-0.2454,-0.5358,-0.4922,2.7051,0.1686,0.2981,-0.7544,0.1555,1.7643,
11.549321,-0.2454,-0.5358,-0.4922,2.7051,0.1686,0.2981,0.0999,0.2408,1.6642,
11.550423,-0.2454,-0.5358,-0.4922,3.1574,0.0726,0.2771,0.0999,0.2408,1.6642,
11.588826,-0.2454,-0.5358,-0.4922,3.1574,0.0726,0.2771,0.9244,-0.3952,1.5587,
11.590587,-0.2454,-0.5358,-0.4922,0.2329,2.2884,1.1986,0.9244,-0.3952,1.5587,
11.591133,-0.3358,-0.6191,-0.3454,0.2329,2.2884,1.1986,0.9244,-0.3952,1.5587,
11.591673,-0.1191,-0.7010,-0.2020,0.2329,2.2884,1.1986,0.9244,-0.3952,1.5587,
11.592397,-0.0140,-0.6607,-0.2022,0.2329,2.2884,1.1986,0.9244,-0.3952,1.5587,
11.592837,0.0089,-0.5343,-0.2101,0.2329,2.2884,1.1986,0.9244,-0.3952,1.5587,
11.628526,0.0089,-0.5343,-0.2101,0.2329,2.2884,1.1986,1.7308,-0.3952,1.0772,
11.629618,0.0089,-0.5343,-0.2101,0.6490,2.4246,0.5671,1.7308,-0.3952,1.0772,
11.668552,0.0089,-0.5343,-0.2101,0.6490,2.4246,0.5671,2.2262,-0.9214,0.5159,
11.670033,0.0089,-0.5343,-0.2101,3.1896,3.5038,0.9862,2.2262,-0.9214,0.5159,
11.670683,0.0062,-0.3885,-0.2267,3.1896,3.5038,0.9862,2.2262,-0.9214,0.5159,
11.671242,-0.0934,-0.3594,-0.4182,3.1896,3.5038,0.9862,2.2262,-0.9214,0.5159,
11.672058,-0.2425,-0.6445,-0.9071,3.1896,3.5038,0.9862,2.2262,-0.9214,0.5159,
11.672656,-0.1508,-1.2753,-1.0522,3.1896,3.5038,0.9862,2.2262,-0.9214,0.5159,
11.707492,-0.1508,-1.2753,-1.0522,3.1896,3.5038,0.9862,1.1460,-1.1856,0.5382,
11.708592,-0.1508,-1.2753,-1.0522,1.8798,1.2659,-5.1587,1.1460,-1.1856,0.5382,
11.748490,-0.1508,-1.2753,-1.0522,1.8798,1.2659,-5.1587,-0.5318,-2.0560,-0.1212,
11.750566,-0.1508,-1.2753,-1.0522,3.5752,-5.8266,-2.2915,-0.5318,-2.0560,-0.1212,
11.751820,0.3827,-1.8358,-0.3796,3.5752,-5.8266,-2.2915,-0.5318,-2.0560,-0.1212,
11.753011,0.1721,-1.5585,-0.2399,3.5752,-5.8266,-2.2915,-0.5318,-2.0560,-0.1212,
11.754143,-0.5540,-1.0757,-0.8592,3.5752,-5.8266,-2.2915,-0.5318,-2.0560,-0.1212,
11.755606,-0.0416,-0.7733,-0.4600,3.5752,-5.8266,-2.2915,-0.5318,-2.0560,-0.1212,
11.787499,-0.0416,-0.7733,-0.4600,3.5752,-5.8266,-2.2915,0.2735,-2.3361,-0.5121,
11.789801,-0.0416,-0.7733,-0.4600,3.5533,-5.6336,-2.6758,0.2735,-2.3361,-0.5121,
11.827593,-0.0416,-0.7733,-0.4600,3.5533,-5.6336,-2.6758,1.0363,-0.0767,-0.4834,
11.829517,-0.0416,-0.7733,-0.4600,6.1027,-0.1394,0.7028,1.0363,-0.0767,-0.4834,
11.830797,0.5503,-0.7848,0.0965,6.1027,-0.1394,0.7028,1.0363,-0.0767,-0.4834,
11.832136,0.3546,-1.2756,0.0401,6.1027,-0.1394,0.7028,1.0363,-0.0767,-0.4834,
11.833374,-0.3966,-1.6264,-0.2992,6.1027,-0.1394,0.7028,1.0363,-0.0767,-0.4834,
11.834491,-0.2691,-1.5788,-0.6510,6.1027,-0.1394,0.7028,1.0363,-0.0767,-0.4834,
11.867199,-0.2691,-1.5788,-0.6510,6.1027,-0.1394,0.7028,0.9340,-1.9004,0.0940,
11.869100,-0.2691,-1.5788,-0.6510,6.1407,-0.0955,0.1109,0.9340,-1.9004,0.0940,
11.906894,0.4091,-1.2123,-0.4908,6.1407,-0.0955,0.1109,0.9340,-1.9004,0.0940,
11.908936,0.6368,-1.0520,-0.3442,6.1407,-0.0955,0.1109,0.9340,-1.9004,0.0940,
11.910083,0.5501,-1.0933,-0.4461,6.1407,-0.0955,0.1109,0.9340,-1.9004,0.0940,
11.911374,0.5501,-1.0933,-0.4461,6.1407,-0.0955,0.1109,0.3822,-1.5926,0.0312,
11.912839,0.5501,-1.0933,-0.4461,2.5128,-5.1705,-3.8262,0.3822,-1.5926,0.0312,
11.946282,0.5501,-1.0933,-0.4461,2.5128,-5.1705,-3.8262,-0.8578,-1.9579,-0.4823,
11.951920,0.5501,-1.0933,-0.4461,8.2728,-1.4599,-3.2410,-0.8578,-1.9579,-0.4823,
11.985875,0.5501,-1.0933,-0.4461,8.2728,-1.4599,-3.2410,-2.5387,-2.0804,-0.8381,
11.987908,0.3962,-1.1539,-0.5064,8.2728,-1.4599,-3.2410,-2.5387,-2.0804,-0.8381,
11.989288,0.2352,-1.1231,-0.3464,8.2728,-1.4599,-3.2410,-2.5387,-2.0804,-0.8381,
11.990419,0.0290,-0.9990,-0.3715,8.2728,-1.4599,-3.2410,-2.5387,-2.0804,-0.8381,
11.991638,-0.2327,-0.7625,-0.3471,8.2728,-1.4599,-3.2410,-2.5387,-2.0804,-0.8381,
11.992956,-0.4120,-0.5910,0.1720,8.2728,-1.4599,-3.2410,-2.5387,-2.0804,-0.8381,
11.994256,-0.4120,-0.5910,0.1720,7.9356,-1.4687,-2.5099,-2.5387,-2.0804,-0.8381,
12.025723,-0.4120,-0.5910,0.1720,2.7401,-0.3290,-0.7342,-2.5387,-2.0804,-0.8381,
12.027762,-0.4120,-0.5910,0.1720,2.7401,-0.3290,-0.7342,-3.5017,-2.5332,-0.8306,
12.064887,-0.4120,-0.5910,0.1720,2.7401,-0.3290,-0.7342,-3.0021,-2.7729,-0.8924,
12.067002,-0.4120,-0.5910,0.1720,0.7734,2.5399,7.4341,-3.0021,-2.7729,-0.8924,
12.068301,-0.1445,-0.5197,0.5893,0.7734,2.5399,7.4341,-3.0021,-2.7729,-0.8924,
12.070099,-0.0194,-0.7967,0.4752,0.7734,2.5399,7.4341,-3.0021,-2.7729,-0.8924,
12.071239,-0.0920,-1.3870,0.3057,0.7734,2.5399,7.4341,-3.0021,-2.7729,-0.8924,
12.072402,-0.0822,-1.9750,0.0110,0.7734,2.5399,7.4341,-3.0021,-2.7729,-0.8924,
12.104770,-0.0822,-1.9750,0.0110,0.7734,2.5399,7.4341,-2.1979,-1.4072,-1.6584,
12.107018,-0.0822,-1.9750,0.0110,0.4006,2.3421,7.9153,-2.1979,-1.4072,-1.6584,
12.144635,-0.0822,-1.9750,0.0110,0.4006,2.3421,7.9153,-1.4064,0.3899,-2.4861,
12.146660,-0.0822,-1.9750,0.0110,0.4371,-9.2964,3.4390,-1.4064,0.3899,-2.4861,
12.148073,-0.1103,-2.1421,-0.5856,0.4371,-9.2964,3.4390,-1.4064,0.3899,-2.4861,
12.149442,-0.1938,-1.4920,-0.4961,0.4371,-9.2964,3.4390,-1.4064,0.3899,-2.4861,
12.151039,-0.2278,-1.0806,0.0059,0.4371,-9.2964,3.4390,-1.4064,0.3899,-2.4861,
12.152251,-0.1677,-0.9277,0.0963,0.4371,-9.2964,3.4390,-1.4064,0.3899,-2.4861,
12.184204,-0.1677,-0.9277,0.0963,0.4371,-9.2964,3.4390,-0.2719,-0.7041,-1.8842,
12.186314,-0.1677,-0.9277,0.0963,-1.0671,-2.6715,3.0444,-0.2719,-0.7041,-1.8842,
12.224744,-0.1677,-0.9277,0.0963,-1.0671,-2.6715,3.0444,0.7636,-0.3441,-0.5920,
12.226912,-0.2537,-0.7335,0.1767,-1.0671,-2.6715,3.0444,0.7636,-0.3441,-0.5920,
12.228809,-0.3649,-0.3365,0.2507,-1.0671,-2.6715,3.0444,0.7636,-0.3441,-0.5920,
12.229915,-0.3397,-0.0494,0.5869,-1.0671,-2.6715,3.0444,0.7636,-0.3441,-0.5920,
12.231110,-0.3074,0.0547,0.6721,-1.0671,-2.6715,3.0444,0.7636,-0.3441,-0.5920,
12.232377,-0.3074,0.0547,0.6721,-2.3805,5.1641,7.2436,0.7636,-0.3441,-0.5920,
12.263516,-0.3074,0.0547,0.6721,-2.3805,5.1641,7.2436,2.3934,2.1763,0.0834,
12.266096,-0.3074,0.0547,0.6721,-2.6076,5.4059,6.3344,2.3934,2.1763,0.0834,
12.302955,-0.4093,0.0004,0.1427,-2.6076,5.4059,6.3344,2.3934,2.1763,0.0834,
12.305048,-0.4899,-0.2475,-0.4446,-2.6076,5.4059,6.3344,2.3934,2.1763,0.0834,
12.306776,-0.1142,-0.9966,-0.7248,-2.6076,5.4059,6.3344,2.3934,2.1763,0.0834,
12.308036,-0.1142,-0.9966,-0.7248,-2.6076,5.4059,6.3344,2.6161,2.0496,0.0099,
12.309356,-0.1142,-0.9966,-0.7248,-3.5645,8.5544,3.2556,2.6161,2.0496,0.0099,
12.342299,-0.1142,-0.9966,-0.7248,-3.5645,8.5544,3.2556,1.3846,2.0229,-0.6496,
12.344819,-0.1142,-0.9966,-0.7248,1.4742,-8.5293,-6.2109,1.3846,2.0229,-0.6496,
12.382098,-0.1142,-0.9966,-0.7248,1.4742,-8.5293,-6.2109,-0.5179,0.7734,0.1153,
12.384006,-0.1142,-0.9966,-0.7248,1.4415,-8.4223,-5.9192,-0.5179,0.7734,0.1153,
12.385544,0.5865,-2.2056,-0.7168,1.4415,-8.4223,-5.9192,-0.5179,0.7734,0.1153,
12.386783,-0.0126,-2.2958,-0.9681,1.4415,-8.4223,-5.9192,-0.5179,0.7734,0.1153,
12.387892,-0.9331,-1.8626,-0.5387,1.4415,-8.4223,-5.9192,-0.5179,0.7734,0.1153,
12.389164,-0.8144,-1.2221,0.0975,1.4415,-8.4223,-5.9192,-0.5179,0.7734,0.1153,
12.390259,-0.7821,-0.6458,0.5808,1.4415,-8.4223,-5.9192,-0.5179,0.7734,0.1153,
12.422710,-0.7821,-0.6458,0.5808,1.4415,-8.4223,-5.9192,-0.0354,1.5574,0.3507,
12.424818,-0.7821,-0.6458,0.5808,-8.1744,-2.6060,2.3782,-0.0354,1.5574,0.3507,
12.460973,-0.7821,-0.6458,0.5808,-8.1744,-2.6060,2.3782,0.2309,3.7934,1.1763,
12.462608,-0.7821,-0.6458,0.5808,-2.1036,-2.1867,2.2783,0.2309,3.7934,1.1763,
12.463579,-0.9385,-0.7164,0.4129,-2.1036,-2.1867,2.2783,0.2309,3.7934,1.1763,
12.464437,-0.2874,-1.2863,-0.2880,-2.1036,-2.1867,2.2783,0.2309,3.7934,1.1763,
12.465407,0.4941,-1.6137,0.0152,-2.1036,-2.1867,2.2783,0.2309,3.7934,1.1763,
12.466197,0.2757,-1.4068,0.1772,-2.1036,-2.1867,2.2783,0.2309,3.7934,1.1763,
12.500551,0.2757,-1.4068,0.1772,-2.1036,-2.1867,2.2783,0.2448,3.2810,0.6714,
12.501933,0.2757,-1.4068,0.1772,-2.0461,-2.1413,2.1882,0.2448,3.2810,0.6714,
12.540199,0.2757,-1.4068,0.1772,-2.0461,-2.1413,2.1882,0.9574,3.2991,0.3646,
12.542396,-0.0175,-0.9169,0.2644,-2.0461,-2.1413,2.1882,0.9574,3.2991,0.3646,
12.543452,-0.0265,-0.5962,0.2676,-2.0461,-2.1413,2.1882,0.9574,3.2991,0.3646,
12.544151,0.2611,-0.6734,-0.0493,-2.0461,-2.1413,2.1882,0.9574,3.2991,0.3646,
12.545056,0.6554,-1.1925,-0.7219,-2.0461,-2.1413,2.1882,0.9574,3.2991,0.3646,
12.546011,0.6554,-1.1925,-0.7219,1.0163,0.1858,3.6581,0.9574,3.2991,0.3646,
12.579882,0.6554,-1.1925,-0.7219,1.0163,0.1858,3.6581,0.8797,4.7596,-0.3779,
12.581883,0.6554,-1.1925,-0.7219,0.6379,0.2239,3.2800,0.8797,4.7596,-0.3779,
12.620415,0.6554,-1.1925,-0.7219,0.6379,0.2239,3.2800,-0.2069,2.2626,-0.3811,
12.622237,0.6554,-1.1925,-0.7219,5.6468,-1.5563,-3.4669,-0.2069,2.2626,-0.3811,
12.623621,0.9493,-1.6034,-0.6215,5.6468,-1.5563,-3.4669,-0.2069,2.2626,-0.3811,
12.624871,0.4047,-1.2016,-1.0180,5.6468,-1.5563,-3.4669,-0.2069,2.2626,-0.3811,
12.626197,-0.3211,-0.5536,-1.0783,5.6468,-1.5563,-3.4669,-0.2069,2.2626,-0.3811,
12.627778,0.0036,-0.3377,-0.2809,5.6468,-1.5563,-3.4669,-0.2069,2.2626,-0.3811,
12.659161,0.0036,-0.3377,-0.2809,5.6468,-1.5563,-3.4669,-0.7704,-0.4921,0.8184,
12.661451,0.0036,-0.3377,-0.2809,0.1767,2.8632,-6.2755,-0.7704,-0.4921,0.8184,
12.699242,0.3859,-0.7254,-0.2211,0.1767,2.8632,-6.2755,-0.7704,-0.4921,0.8184,
12.701432,0.5117,-1.0599,-0.2496,0.1767,2.8632,-6.2755,-0.7704,-0.4921,0.8184,
12.702863,0.4628,-1.2111,-0.2631,0.1767,2.8632,-6.2755,-0.7704,-0.4921,0.8184,
12.704115,0.4628,-1.2111,-0.2631,0.1767,2.8632,-6.2755,-0.7086,-1.0493,0.7353,
12.705515,0.4628,-1.2111,-0.2631,4.6081,-0.1333,-0.6280,-0.7086,-1.0493,0.7353,
12.738787,0.4628,-1.2111,-0.2631,4.6081,-0.1333,-0.6280,-0.6213,-1.6330,0.1473,
12.740945,0.4628,-1.2111,-0.2631,0.7589,-1.2058,1.2385,-0.6213,-1.6330,0.1473,
12.778934,0.4628,-1.2111,-0.2631,0.7589,-1.2058,1.2385,-0.4423,-1.4786,0.0876,
12.781136,0.4628,-1.2111,-0.2631,0.8969,-1.2223,1.3601,-0.4423,-1.4786,0.0876,
12.782731,0.2166,-1.1906,-0.1497,0.8969,-1.2223,1.3601,-0.4423,-1.4786,0.0876,
12.784041,-0.0157,-1.0977,-0.0684,0.8969,-1.2223,1.3601,-0.4423,-1.4786,0.0876,
12.785195,-0.0695,-1.0281,-0.0051,0.8969,-1.2223,1.3601,-0.4423,-1.4786,0.0876,
12.786305,-0.1003,-0.9963,0.0105,0.8969,-1.2223,1.3601,-0.4423,-1.4786,0.0876,
12.787413,-0.0964,-0.9853,0.0049,0.8969,-1.2223,1.3601,-0.4423,-1.4786,0.0876,
12.817895,-0.0964,-0.9853,0.0049,0.8969,-1.2223,1.3601,-0.2804,-1.0109,0.0493,
12.819919,-0.0964,-0.9853,0.0049,0.9844,-1.2262,1.4218,-0.2804,-1.0109,0.0493,
12.857516,-0.0964,-0.9853,0.0049,0.9844,-1.2262,1.4218,-0.0556,-0.8234,0.0077,
12.859589,-0.0964,-0.9853,0.0049,-0.4148,-0.2108,1.9727,-0.0556,-0.8234,0.0077,
12.860830,-0.1250,-1.0235,-0.0603,-0.4148,-0.2108,1.9727,-0.0556,-0.8234,0.0077,
12.861808,-0.1257,-1.0513,-0.1541,-0.4148,-0.2108,1.9727,-0.0556,-0.8234,0.0077,
12.863176,-0.1254,-1.0398,-0.1732,-0.4148,-0.2108,1.9727,-0.0556,-0.8234,0.0077,
12.864289,-0.2200,-0.9824,-0.1028,-0.4148,-0.2108,1.9727,-0.0556,-0.8234,0.0077,
12.897345,-0.2200,-0.9824,-0.1028,-0.4148,-0.2108,1.9727,-0.2495,-0.5177,0.2048,
12.900407,-0.2200,-0.9824,-0.1028,-0.7683,-0.4536,0.7817,-0.2495,-0.5177,0.2048,
12.936835,-0.2200,-0.9824,-0.1028,-0.7683,-0.4536,0.7817,-0.5147,0.3654,0.1313,
12.939765,-0.2200,-0.9824,-0.1028,-1.9552,1.1096,2.2752,-0.5147,0.3654,0.1313,
12.941116,-0.3028,-0.9382,-0.0610,-1.9552,1.1096,2.2752,-0.5147,0.3654,0.1313,
12.942593,-0.2681,-0.8827,-0.0307,-1.9552,1.1096,2.2752,-0.5147,0.3654,0.1313,
12.943932,-0.2786,-0.7528,0.0675,-1.9552,1.1096,2.2752,-0.5147,0.3654,0.1313,
12.945383,-0.3668,-0.7132,-0.0417,-1.9552,1.1096,2.2752,-0.5147,0.3654,0.1313,
12.976411,-0.3668,-0.7132,-0.0417,-1.9552,1.1096,2.2752,0.0040,1.5500,-0.3183,
12.978204,-0.3668,-0.7132,-0.0417,-2.1853,1.1000,2.2777,0.0040,1.5500,-0.3183,
13.016203,-0.3668,-0.7132,-0.0417,-2.1853,1.1000,2.2777,-0.0269,1.6895,0.1132,
13.018104,-0.3668,-0.7132,-0.0417,-2.9353,0.1934,-0.5594,-0.0269,1.6895,0.1132,
13.019477,-0.4159,-0.9604,-0.3554,-2.9353,0.1934,-0.5594,-0.0269,1.6895,0.1132,
13.020679,-0.2759,-1.1752,-0.5123,-2.9353,0.1934,-0.5594,-0.0269,1.6895,0.1132,
13.021930,-0.0634,-1.1358,-0.6171,-2.9353,0.1934,-0.5594,-0.0269,1.6895,0.1132,
13.023306,0.1103,-0.9675,-0.6080,-2.9353,0.1934,-0.5594,-0.0269,1.6895,0.1132,
13.056084,0.1103,-0.9675,-0.6080,-2.9353,0.1934,-0.5594,-0.2974,0.6594,0.4242,
13.057800,0.1103,-0.9675,-0.6080,-2.7926,0.1522,-0.4263,-0.2974,0.6594,0.4242,
13.095936,0.1103,-0.9675,-0.6080,-2.7926,0.1522,-0.4263,0.2022,0.6317,0.2282,
13.097877,0.1103,-0.9675,-0.6080,1.3361,0.0418,-2.8548,0.2022,0.6317,0.2282,
13.099250,0.1584,-0.7833,-0.4246,1.3361,0.0418,-2.8548,0.2022,0.6317,0.2282,
13.100501,-0.1039,-0.6333,-0.3202,1.3361,0.0418,-2.8548,0.2022,0.6317,0.2282,
13.101746,-0.2417,-0.5683,-0.2538,1.3361,0.0418,-2.8548,0.2022,0.6317,0.2282,
13.103398,-0.1948,-0.6269,-0.2831,1.3361,0.0418,-2.8548,0.2022,0.6317,0.2282,
13.134910,-0.1948,-0.6269,-0.2831,1.3361,0.0418,-2.8548,0.8296,1.5990,-0.0945,
13.136974,-0.1948,-0.6269,-0.2831,-1.2667,3.5194,-0.5328,0.8296,1.5990,-0.0945,
13.174418,-0.1948,-0.6269,-0.2831,-1.2667,3.5194,-0.5328,0.8296,2.6696,-0.5441,
13.176670,-0.1948,-0.6269,-0.2831,-0.0875,-2.8880,-4.7940,0.8296,2.6696,-0.5441,
13.178037,-0.0800,-0.8478,-0.4654,-0.0875,-2.8880,-4.7940,0.8296,2.6696,-0.5441,
13.179878,0.0602,-1.2638,-0.7641,-0.0875,-2.8880,-4.7940,0.8296,2.6696,-0.5441,
13.181140,-0.0287,-1.7165,-0.8704,-0.0875,-2.8880,-4.7940,0.8296,2.6696,-0.5441,
13.182496,-0.1357,-1.3281,-0.2579,-0.0875,-2.8880,-4.7940,0.8296,2.6696,-0.5441,
13.214318,-0.1357,-1.3281,-0.2579,-0.0875,-2.8880,-4.7940,0.5921,1.5755,-0.4322,
13.216597,-0.1357,-1.3281,-0.2579,-0.3688,-2.7961,-4.9407,0.5921,1.5755,-0.4322,
13.254869,-0.1357,-1.3281,-0.2579,-0.3688,-2.7961,-4.9407,0.2352,0.7372,0.4040,
13.257053,-0.1357,-1.3281,-0.2579,-3.8111,1.8534,-0.9761,0.2352,0.7372,0.4040,
13.258385,-0.4333,-0.5996,-0.1883,-3.8111,1.8534,-0.9761,0.2352,0.7372,0.4040,
13.259558,-0.5840,-0.4738,-0.4155,-3.8111,1.8534,-0.9761,0.2352,0.7372,0.4040,
13.260908,-0.2085,-0.6431,0.0958,-3.8111,1.8534,-0.9761,0.2352,0.7372,0.4040,
13.262491,-0.0052,-0.8710,0.2754,-3.8111,1.8534,-0.9761,0.2352,0.7372,0.4040,
13.293336,-0.0052,-0.8710,0.2754,-3.8111,1.8534,-0.9761,0.7263,3.1500,0.4946,
13.294818,-0.0052,-0.8710,0.2754,-3.7682,1.8715,-1.2411,0.7263,3.1500,0.4946,
13.333009,-0.0052,-0.8710,0.2754,-3.7682,1.8715,-1.2411,1.4102,3.7359,0.2144,
13.334560,-0.0052,-0.8710,0.2754,-0.9485,1.1516,2.1184,1.4102,3.7359,0.2144,
13.335753,-0.0468,-1.1241,-0.0241,-0.9485,1.1516,2.1184,1.4102,3.7359,0.2144,
13.336572,0.1172,-1.3728,-0.0222,-0.9485,1.1516,2.1184,1.4102,3.7359,0.2144,
13.337365,0.3390,-1.4727,-0.0940,-0.9485,1.1516,2.1184,1.4102,3.7359,0.2144,
13.338057,0.4582,-1.3325,-0.1519,-0.9485,1.1516,2.1184,1.4102,3.7359,0.2144,
13.372415,0.4582,-1.3325,-0.1519,-0.9485,1.1516,2.1184,1.1428,2.2019,0.1398,
13.373968,0.4582,-1.3325,-0.1519,2.8280,-3.7796,-0.3380,1.1428,2.2019,0.1398,
13.414176,0.4582,-1.3325,-0.1519,2.8280,-3.7796,-0.3380,1.0885,1.1888,0.1931,
13.415758,0.4582,-1.3325,-0.1519,1.7536,0.5263,-1.5203,1.0885,1.1888,0.1931,
13.416745,0.3717,-1.0755,-0.1004,1.7536,0.5263,-1.5203,1.0885,1.1888,0.1931,
13.417782,0.1550,-0.9338,-0.1624,1.7536,0.5263,-1.5203,1.0885,1.1888,0.1931,
13.418641,0.0497,-0.8524,-0.2428,1.7536,0.5263,-1.5203,1.0885,1.1888,0.1931,
13.419792,-0.0138,-0.8932,-0.2281,1.7536,0.5263,-1.5203,1.0885,1.1888,0.1931,
13.451546,-0.0138,-0.8932,-0.2281,1.7536,0.5263,-1.5203,1.1279,1.1100,0.3667,
13.453093,-0.0138,-0.8932,-0.2281,1.8693,0.5143,-1.9319,1.1279,1.1100,0.3667,
13.492970,-0.0138,-0.8932,-0.2281,1.8693,0.5143,-1.9319,1.1449,1.2219,0.5041,
13.494798,-0.0138,-0.8932,-0.2281,0.4824,0.7294,-3.1010,1.1449,1.2219,0.5041,
13.495973,0.0585,-0.9572,-0.2374,0.4824,0.7294,-3.1010,1.1449,1.2219,0.5041,
13.497413,0.0419,-0.9340,-0.2785,0.4824,0.7294,-3.1010,1.1449,1.2219,0.5041,
13.498214,-0.0035,-0.8783,-0.3654,0.4824,0.7294,-3.1010,1.1449,1.2219,0.5041,
13.499212,0.1098,-0.9015,-0.4243,0.4824,0.7294,-3.1010,1.1449,1.2219,0.5041,
13.530734,0.1098,-0.9015,-0.4243,0.4824,0.7294,-3.1010,0.8115,1.1622,0.7768,
13.532949,0.1098,-0.9015,-0.4243,0.8090,0.6801,-3.3434,0.8115,1.1622,0.7768,
13.570698,0.1098,-0.9015,-0.4243,0.8090,0.6801,-3.3434,-1.0346,1.5894,0.6469,
13.573910,0.1098,-0.9015,-0.4243,2.1442,0.7288,-4.9471,-1.0346,1.5894,0.6469,
13.575126,0.3092,-0.9892,-0.6068,2.1442,0.7288,-4.9471,-1.0346,1.5894,0.6469,
13.575892,0.4081,-1.1512,-0.8687,2.1442,0.7288,-4.9471,-1.0346,1.5894,0.6469,
13.576621,0.2689,-1.4134,-0.9027,2.1442,0.7288,-4.9471,-1.0346,1.5894,0.6469,
13.577360,0.2581,-1.5988,-0.7468,2.1442,0.7288,-4.9471,-1.0346,1.5894,0.6469,
13.609910,0.2581,-1.5988,-0.7468,2.1442,0.7288,-4.9471,-4.5510,-1.4679,0.6298,
13.611416,0.2581,-1.5988,-0.7468,4.0549,-3.8687,-6.7938,-4.5510,-1.4679,0.6298,
13.650058,0.3979,-1.4383,-0.2577,4.0549,-3.8687,-6.7938,-4.5510,-1.4679,0.6298,
13.651718,0.2163,-1.2463,0.4044,4.0549,-3.8687,-6.7938,-4.5510,-1.4679,0.6298,
13.652724,-0.0397,-1.2397,0.8817,4.0549,-3.8687,-6.7938,-4.5510,-1.4679,0.6298,
13.653604,-0.0397,-1.2397,0.8817,4.0549,-3.8687,-6.7938,-5.1316,-4.1044,0.3412,
13.654449,-0.0397,-1.2397,0.8817,3.3394,-3.5158,6.4137,-5.1316,-4.1044,0.3412,
13.690184,-0.0397,-1.2397,0.8817,3.3394,-3.5158,6.4137,-2.0370,-1.0301,-0.4834,
13.692087,-0.0397,-1.2397,0.8817,6.7825,-3.7497,4.9231,-2.0370,-1.0301,-0.4834,
13.729637,-0.0397,-1.2397,0.8817,6.7825,-3.7497,4.9231,-0.7619,-0.4431,-1.6839,
13.731696,-0.0397,-1.2397,0.8817,6.1387,-3.7306,5.0913,-0.7619,-0.4431,-1.6839,
13.732946,-0.0055,-1.3315,0.8529,6.1387,-3.7306,5.0913,-0.7619,-0.4431,-1.6839,
13.734051,0.7348,-1.2189,-0.0439,6.1387,-3.7306,5.0913,-0.7619,-0.4431,-1.6839,
13.735175,0.9466,-1.3899,-0.4192,6.1387,-3.7306,5.0913,-0.7619,-0.4431,-1.6839,
13.736255,0.4944,-1.5744,-0.4947,6.1387,-3.7306,5.0913,-0.7619,-0.4431,-1.6839,
13.737499,0.2476,-1.2917,0.1735,6.1387,-3.7306,5.0913,-0.7619,-0.4431,-1.6839,
13.769114,0.2476,-1.2917,0.1735,6.1387,-3.7306,5.0913,-0.7012,-4.2461,-1.2908,
13.771324,0.2476,-1.2917,0.1735,6.2250,-3.7400,5.1375,-0.7012,-4.2461,-1.2908,
13.808442,0.2476,-1.2917,0.1735,6.2250,-3.7400,5.1375,0.2906,-4.7308,-0.6293,
13.810788,0.2476,-1.2917,0.1735,3.6279,-2.5939,4.1504,0.2906,-4.7308,-0.6293,
13.811978,0.0119,-0.7569,0.5185,3.6279,-2.5939,4.1504,0.2906,-4.7308,-0.6293,
13.813309,-0.1750,-0.5839,0.4906,3.6279,-2.5939,4.1504,0.2906,-4.7308,-0.6293,
13.814563,-0.1086,-0.5744,0.4652,3.6279,-2.5939,4.1504,0.2906,-4.7308,-0.6293,
13.815980,0.0842,-0.5385,0.4452,3.6279,-2.5939,4.1504,0.2906,-4.7308,-0.6293,
13.848190,0.0842,-0.5385,0.4452,3.6279,-2.5939,4.1504,1.0065,-4.8107,-0.4503,
13.850358,0.0842,-0.5385,0.4452,0.9450,3.7853,7.3208,1.0065,-4.8107,-0.4503,
13.888148,0.1655,-0.5248,0.4503,0.9450,3.7853,7.3208,1.0065,-4.8107,-0.4503,
13.890384,0.1824,-0.5434,0.5334,0.9450,3.7853,7.3208,1.0065,-4.8107,-0.4503,
13.891636,0.1372,-0.5771,0.3626,0.9450,3.7853,7.3208,1.0065,-4.8107,-0.4503,
13.892983,0.1372,-0.5771,0.3626,0.9450,3.7853,7.3208,0.7114,-5.1047,-0.4695,
13.894103,0.1372,-0.5771,0.3626,3.4395,3.9881,6.4121,0.7114,-5.1047,-0.4695,
13.927700,0.1372,-0.5771,0.3626,3.4395,3.9881,6.4121,-0.0322,-5.8451,-1.0863,
13.929985,0.1372,-0.5771,0.3626,-3.9051,-1.3128,-2.6224,-0.0322,-5.8451,-1.0863,
13.967089,0.1372,-0.5771,0.3626,-3.9051,-1.3128,-2.6224,-0.9515,-3.7273,-0.6325,
13.969802,0.1372,-0.5771,0.3626,-3.8372,-1.3040,-2.5075,-0.9515,-3.7273,-0.6325,
13.971120,-0.2706,-0.8143,-0.3852,-3.8372,-1.3040,-2.5075,-0.9515,-3.7273,-0.6325,
13.972289,-0.9517,-1.3159,-0.8895,-3.8372,-1.3040,-2.5075,-0.9515,-3.7273,-0.6325,
13.973355,-0.5635,-1.1691,-0.0285,-3.8372,-1.3040,-2.5075,-0.9515,-3.7273,-0.6325,
13.974588,-0.1518,-1.2099,0.5419,-3.8372,-1.3040,-2.5075,-0.9515,-3.7273,-0.6325,
13.975808,-0.6573,-2.0625,0.2356,-3.8372,-1.3040,-2.5075,-0.9515,-3.7273,-0.6325,
14.006893,-0.6573,-2.0625,0.2356,-3.8372,-1.3040,-2.5075,-0.2058,-1.5563,-0.1872,
14.008495,-0.6573,-2.0625,0.2356,-3.7368,-1.2817,-2.5115,-0.2058,-1.5563,-0.1872,
14.046186,-0.6573,-2.0625,0.2356,-3.7368,-1.2817,-2.5115,-0.7960,-2.1390,-0.0136,
14.048396,-0.6573,-2.0625,0.2356,-0.6721,-6.5675,0.4508,-0.7960,-2.1390,-0.0136,
14.049817,-0.0868,-1.6621,-1.2068,-0.6721,-6.5675,0.4508,-0.7960,-2.1390,-0.0136,
14.051042,0.5007,-0.9387,0.2607,-0.6721,-6.5675,0.4508,-0.7960,-2.1390,-0.0136,
14.052429,0.2708,-0.9477,1.0146,-0.6721,-6.5675,0.4508,-0.7960,-2.1390,-0.0136,
14.053654,-0.1802,-1.1138,0.3907,-0.6721,-6.5675,0.4508,-0.7960,-2.1390,-0.0136,
14.086150,-0.1802,-1.1138,0.3907,-0.6721,-6.5675,0.4508,0.9745,-1.6298,-0.3001,
14.088214,-0.1802,-1.1138,0.3907,4.1101,-0.1589,6.6656,0.9745,-1.6298,-0.3001,
14.125859,-0.1802,-1.1138,0.3907,4.1101,-0.1589,6.6656,0.6879,-0.4506,0.0898,
14.127699,-0.1802,-1.1138,0.3907,1.0360,-1.8972,-0.1340,0.6879,-0.4506,0.0898,
14.129098,-0.3018,-1.1815,-0.1055,1.0360,-1.8972,-0.1340,0.6879,-0.4506,0.0898,
14.130352,-0.0822,-1.1906,-0.1741,1.0360,-1.8972,-0.1340,0.6879,-0.4506,0.0898,
14.131336,0.0231,-1.1766,-0.0439,1.0360,-1.8972,-0.1340,0.6879,-0.4506,0.0898,
14.132815,0.0402,-1.0374,-0.0947,1.0360,-1.8972,-0.1340,0.6879,-0.4506,0.0898,
14.165503,0.0402,-1.0374,-0.0947,1.0360,-1.8972,-0.1340,-0.0034,-1.0471,0.1856,
14.167420,0.0402,-1.0374,-0.0947,1.1238,-1.8819,-0.2231,-0.0034,-1.0471,0.1856,
14.187741,-0.0609,-0.8793,-0.2096,1.1238,-1.8819,-0.2231,-0.0034,-1.0471,0.1856,
14.189646,-0.1894,-0.7755,-0.2543,1.1238,-1.8819,-0.2231,-0.0034,-1.0471,0.1856,
14.191329,-0.2921,-0.7589,-0.1184,1.1238,-1.8819,-0.2231,-0.0034,-1.0471,0.1856,
14.204941,-0.2921,-0.7589,-0.1184,1.1238,-1.8819,-0.2231,-0.5137,-0.6264,0.1856,
14.206847,-0.2921,-0.7589,-0.1184,1.6807,0.8659,-0.8376,-0.5137,-0.6264,0.1856,
14.244446,-0.2921,-0.7589,-0.1184,1.6807,0.8659,-0.8376,-1.0410,0.0820,0.3678,
14.246581,-0.2921,-0.7589,-0.1184,-0.2630,1.7447,2.2610,-1.0410,0.0820,0.3678,
14.276542,-0.2943,-0.7796,0.1833,-0.2630,1.7447,2.2610,-1.0410,0.0820,0.3678,
14.278547,-0.2618,-0.8497,0.2128,-0.2630,1.7447,2.2610,-1.0410,0.0820,0.3678,
14.279843,-0.2715,-1.0000,0.0404,-0.2630,1.7447,2.2610,-1.0410,0.0820,0.3678,
14.281155,-0.4555,-1.2108,-0.0869,-0.2630,1.7447,2.2610,-1.0410,0.0820,0.3678,
14.289523,-0.4555,-1.2108,-0.0869,-0.2630,1.7447,2.2610,-1.2700,0.5582,0.2762,
14.291386,-0.4555,-1.2108,-0.0869,-0.1923,1.6082,2.7484,-1.2700,0.5582,0.2762,
14.323254,-0.4555,-1.2108,-0.0869,-0.1923,1.6082,2.7484,-1.9166,1.8142,0.1025,
14.324785,-0.4555,-1.2108,-0.0869,-2.3264,-2.2093,1.7893,-1.9166,1.8142,0.1025,
14.363388,-0.4555,-1.2108,-0.0869,-2.3264,-2.2093,1.7893,-1.8911,2.5716,0.1100,
14.366286,-0.4555,-1.2108,-0.0869,-2.5675,-2.4155,2.6691,-1.8911,2.5716,0.1100,
14.367626,-0.7472,-1.3012,-0.2325,-2.5675,-2.4155,2.6691,-1.8911,2.5716,0.1100,
14.368902,-0.8022,-1.1620,-0.2162,-2.5675,-2.4155,2.6691,-1.8911,2.5716,0.1100,
14.370032,-0.6651,-0.9655,-0.0886,-2.5675,-2.4155,2.6691,-1.8911,2.5716,0.1100,
14.370993,-0.6585,-0.8339,-0.0136,-2.5675,-2.4155,2.6691,-1.8911,2.5716,0.1100,
14.372275,-0.5373,-0.7440,-0.0818,-2.5675,-2.4155,2.6691,-1.8911,2.5716,0.1100,
14.402865,-0.5373,-0.7440,-0.0818,-2.5675,-2.4155,2.6691,-0.4572,2.8272,0.6245,
14.406149,-0.5373,-0.7440,-0.0818,-4.8211,-0.7243,2.8943,-0.4572,2.8272,0.6245,
14.442317,-0.5373,-0.7440,-0.0818,-4.8211,-0.7243,2.8943,0.6783,2.7708,0.7161,
14.443827,-0.5373,-0.7440,-0.0818,-2.0218,2.0636,2.6061,0.6783,2.7708,0.7161,
14.444604,-0.3724,-0.7317,-0.1421,-2.0218,2.0636,2.6061,0.6783,2.7708,0.7161,
14.445389,-0.3143,-0.6365,-0.1636,-2.0218,2.0636,2.6061,0.6783,2.7708,0.7161,
14.446080,-0.2322,-0.5783,-0.1311,-2.0218,2.0636,2.6061,0.6783,2.7708,0.7161,
14.446744,-0.1584,-0.6147,-0.0581,-2.0218,2.0636,2.6061,0.6783,2.7708,0.7161,
14.481732,-0.1584,-0.6147,-0.0581,-2.0218,2.0636,2.6061,1.5785,3.5484,0.2442,
14.483412,-0.1584,-0.6147,-0.0581,-2.4189,2.2409,2.2494,1.5785,3.5484,0.2442,
14.521732,-0.1584,-0.6147,-0.0581,-2.4189,2.2409,2.2494,2.8195,4.1300,-0.1649,
14.523889,-0.1584,-0.6147,-0.0581,-0.8620,3.4586,2.0065,2.8195,4.1300,-0.1649,
14.525178,-0.1853,-0.6374,-0.0080,-0.8620,3.4586,2.0065,2.8195,4.1300,-0.1649,
14.526381,-0.1772,-0.6716,0.0252,-0.8620,3.4586,2.0065,2.8195,4.1300,-0.1649,
14.527480,-0.0636,-0.7694,0.0091,-0.8620,3.4586,2.0065,2.8195,4.1300,-0.1649,
14.528441,0.1343,-0.8505,0.0448,-0.8620,3.4586,2.0065,2.8195,4.1300,-0.1649,
14.561402,0.1343,-0.8505,0.0448,-0.8620,3.4586,2.0065,3.7836,4.6084,-0.3246,
14.563695,0.1343,-0.8505,0.0448,0.1740,2.2261,1.5801,3.7836,4.6084,-0.3246,
14.601755,0.1343,-0.8505,0.0448,0.1740,2.2261,1.5801,3.4406,4.4613,0.1377,
14.604031,0.1343,-0.8505,0.0448,2.1621,0.4924,-0.0866,3.4406,4.4613,0.1377,
14.605041,0.2017,-0.9018,0.0342,2.1621,0.4924,-0.0866,3.4406,4.4613,0.1377,
14.606718,0.2229,-0.9455,0.0215,2.1621,0.4924,-0.0866,3.4406,4.4613,0.1377,
14.607694,0.1096,-1.0007,-0.1043,2.1621,0.4924,-0.0866,3.4406,4.4613,0.1377,
14.609416,-0.0700,-1.1964,-0.2907,2.1621,0.4924,-0.0866,3.4406,4.4613,0.1377,
14.640889,-0.0700,-1.1964,-0.2907,2.1621,0.4924,-0.0866,1.6115,2.4917,0.4903,
14.643073,-0.0700,-1.1964,-0.2907,2.3360,0.4605,-0.6520,1.6115,2.4917,0.4903,
14.680658,-0.0700,-1.1964,-0.2907,2.3360,0.4605,-0.6520,-0.0290,1.9835,0.3230,
14.683025,-0.0700,-1.1964,-0.2907,-0.0641,-4.5984,-7.3033,-0.0290,1.9835,0.3230,
14.684362,-0.1616,-1.6181,-0.9178,-0.0641,-4.5984,-7.3033,-0.0290,1.9835,0.3230,
14.685786,-0.0199,-1.6034,-0.9337,-0.0641,-4.5984,-7.3033,-0.0290,1.9835,0.3230,
14.686897,0.0817,-1.1705,-0.3671,-0.0641,-4.5984,-7.3033,-0.0290,1.9835,0.3230,
14.688132,0.0888,-1.1195,-0.3295,-0.0641,-4.5984,-7.3033,-0.0290,1.9835,0.3230,
14.720214,0.0888,-1.1195,-0.3295,-0.0641,-4.5984,-7.3033,0.0935,2.8815,0.4647,
14.722201,0.0888,-1.1195,-0.3295,0.1457,-4.5384,-7.1204,0.0935,2.8815,0.4647,
14.760577,0.2469,-1.5309,0.0208,0.1457,-4.5384,-7.1204,0.0935,2.8815,0.4647,
14.762819,0.9214,-1.8121,-0.1717,0.1457,-4.5384,-7.1204,0.0935,2.8815,0.4647,
14.763954,1.1992,-1.5262,-0.6906,0.1457,-4.5384,-7.1204,0.0935,2.8815,0.4647,
14.765253,1.1992,-1.5262,-0.6906,0.1457,-4.5384,-7.1204,0.1244,-0.3185,1.0549,
14.766691,1.1992,-1.5262,-0.6906,2.6954,-2.5937,-2.3580,0.1244,-0.3185,1.0549,
14.799495,1.1992,-1.5262,-0.6906,2.6954,-2.5937,-2.3580,0.3716,-2.9209,-0.0562,
14.801725,1.1992,-1.5262,-0.6906,10.0840,-4.1192,-4.3622,0.3716,-2.9209,-0.0562,
14.839343,1.1992,-1.5262,-0.6906,10.0840,-4.1192,-4.3622,1.5338,-1.2506,-0.2181,
14.841237,1.1992,-1.5262,-0.6906,9.8022,-4.0845,-4.9352,1.5338,-1.2506,-0.2181,
14.842760,0.6285,-0.9704,-0.3576,9.8022,-4.0845,-4.9352,1.5338,-1.2506,-0.2181,
14.843914,0.1103,-0.8199,0.0792,9.8022,-4.0845,-4.9352,1.5338,-1.2506,-0.2181,
14.844893,-0.3544,-0.9357,0.0562,9.8022,-4.0845,-4.9352,1.5338,-1.2506,-0.2181,
14.846047,-0.6490,-1.0498,-0.3461,9.8022,-4.0845,-4.9352,1.5338,-1.2506,-0.2181,
14.847311,-0.4650,-1.1419,-1.0771,9.8022,-4.0845,-4.9352,1.5338,-1.2506,-0.2181,
14.878498,-0.4650,-1.1419,-1.0771,9.8022,-4.0845,-4.9352,0.8104,-0.1342,0.9729,
14.880825,-0.4650,-1.1419,-1.0771,-1.6882,0.7389,-1.9293,0.8104,-0.1342,0.9729,
14.918446,-0.4650,-1.1419,-1.0771,-1.6882,0.7389,-1.9293,-2.5366,0.2163,1.1827,
14.921580,-0.4650,-1.1419,-1.0771,2.2801,-0.1454,-11.1040,-2.5366,0.2163,1.1827,
14.923398,0.1484,-1.0381,-1.4387,2.2801,-0.1454,-11.1040,-2.5366,0.2163,1.1827,
14.924851,0.5061,-0.8986,-0.8702,2.2801,-0.1454,-11.1040,-2.5366,0.2163,1.1827,
14.926528,0.5166,-1.0733,-0.5682,2.2801,-0.1454,-11.1040,-2.5366,0.2163,1.1827,
14.927972,0.5892,-1.3704,-0.6997,2.2801,-0.1454,-11.1040,-2.5366,0.2163,1.1827,
14.957875,0.5892,-1.3704,-0.6997,2.2801,-0.1454,-11.1040,-5.5194,-3.2352,0.6043,
14.960544,0.5892,-1.3704,-0.6997,2.6019,-0.3856,-9.0416,-5.5194,-3.2352,0.6043,
14.997473,0.5892,-1.3704,-0.6997,2.6019,-0.3856,-9.0416,-5.0741,-3.4749,-0.5984,
14.999684,0.5892,-1.3704,-0.6997,8.4050,-3.3390,-0.8310,-5.0741,-3.4749,-0.5984,
15.001158,0.8511,-1.3970,-0.1016,8.4050,-3.3390,-0.8310,-5.0741,-3.4749,-0.5984,
15.002741,0.5232,-1.4463,0.8632,8.4050,-3.3390,-0.8310,-5.0741,-3.4749,-0.5984,
15.004083,-0.3825,-1.8634,1.0220,8.4050,-3.3390,-0.8310,-5.0741,-3.4749,-0.5984,
15.005318,-0.5706,-1.9015,0.2954,8.4050,-3.3390,-0.8310,-5.0741,-3.4749,-0.5984,
15.037163,-0.5706,-1.9015,0.2954,8.4050,-3.3390,-0.8310,-2.2245,-1.4179,-0.9297,
15.039135,-0.5706,-1.9015,0.2954,0.4913,-7.9592,11.2609,-2.2245,-1.4179,-0.9297,
15.076853,-0.5706,-1.9015,0.2954,0.4913,-7.9592,11.2609,-1.4319,-2.5247,-1.6466,
15.079257,-0.5706,-1.9015,0.2954,8.0672,-3.1936,6.4656,-1.4319,-2.5247,-1.6466,
15.080581,0.2366,-1.3770,0.1828,8.0672,-3.1936,6.4656,-1.4319,-2.5247,-1.6466,
15.081924,0.8906,-1.1947,0.2795,8.0672,-3.1936,6.4656,-1.4319,-2.5247,-1.6466,
15.083726,0.8503,-1.1586,0.1833,8.0672,-3.1936,6.4656,-1.4319,-2.5247,-1.6466,
15.084859,0.3878,-0.8629,0.3064,8.0672,-3.1936,6.4656,-1.4319,-2.5247,-1.6466,
15.116371,0.3878,-0.8629,0.3064,8.0672,-3.1936,6.4656,-0.4828,-4.1641,-1.6743,
15.119554,0.3878,-0.8629,0.3064,8.0507,-3.1150,6.2592,-0.4828,-4.1641,-1.6743,
15.156379,0.3878,-0.8629,0.3064,8.0507,-3.1150,6.2592,0.7029,-5.5756,-1.1321,
15.158002,0.3878,-0.8629,0.3064,0.8310,3.2634,8.7742,0.7029,-5.5756,-1.1321,
15.158932,-0.1890,-0.5097,0.6900,0.8310,3.2634,8.7742,0.7029,-5.5756,-1.1321,
15.159749,-0.5627,-0.4447,0.6646,0.8310,3.2634,8.7742,0.7029,-5.5756,-1.1321,
15.160548,-0.6365,-0.5124,0.4166,0.8310,3.2634,8.7742,0.7029,-5.5756,-1.1321,
15.161250,-0.6783,-0.5246,0.2898,0.8310,3.2634,8.7742,0.7029,-5.5756,-1.1321,
15.195091,-0.6783,-0.5246,0.2898,0.8310,3.2634,8.7742,1.2429,-4.3218,-0.9542,
15.196307,-0.6783,-0.5246,0.2898,0.9711,3.4291,7.8205,1.2429,-4.3218,-0.9542,
15.235785,-0.6783,-0.5246,0.2898,0.9711,3.4291,7.8205,1.3867,-1.6256,-0.6613,
