
time,gFx,gFy,gFz,ax,ay,az,wx,wy,wz,
0.056100,0.0000,0.0000,0.0000,0.0000,0.0000,0.0000,-0.1206,-0.2003,0.1728,
0.084690,0.0000,0.0000,0.0000,0.0000,0.0000,0.0000,-0.1483,-0.4879,0.1430,
0.085947,-0.0669,0.3182,0.8803,0.0000,0.0000,0.0000,-0.1483,-0.4879,0.1430,
0.087111,-0.0498,0.3322,0.9056,0.0000,0.0000,0.0000,-0.1483,-0.4879,0.1430,
0.087910,-0.0572,0.3546,0.8433,0.0000,0.0000,0.0000,-0.1483,-0.4879,0.1430,
0.088657,-0.1086,0.3629,0.8016,0.0000,0.0000,0.0000,-0.1483,-0.4879,0.1430,
0.089731,-0.1169,0.3590,0.7892,0.0000,0.0000,0.0000,-0.1483,-0.4879,0.1430,
0.091127,-0.0638,0.3465,0.8359,0.0000,0.0000,0.0000,-0.1483,-0.4879,0.1430,
0.092402,-0.0266,0.3507,0.8659,0.0000,0.0000,0.0000,-0.1483,-0.4879,0.1430,
0.093960,-0.0360,0.3444,0.8778,0.0000,0.0000,0.0000,-0.1483,-0.4879,0.1430,
0.095217,-0.0203,0.3674,0.8221,0.0000,0.0000,0.0000,-0.1483,-0.4879,0.1430,
0.096516,0.0150,0.3960,0.8416,0.0000,0.0000,0.0000,-0.1483,-0.4879,0.1430,
0.126692,0.0150,0.3960,0.8416,0.0000,0.0000,0.0000,-0.4348,-0.6083,0.1750,
0.165267,0.0150,0.3960,0.8416,0.0000,0.0000,-0.0000,-0.4348,-0.6083,0.1750,
0.166799,0.0150,0.3960,0.8416,0.0000,0.0000,-0.0000,-0.3709,-0.0192,0.1643,
0.167848,0.0817,0.4004,0.8708,0.0000,0.0000,-0.0000,-0.3709,-0.0192,0.1643,
0.169560,0.1074,0.3977,0.9146,0.0000,0.0000,-0.0000,-0.3709,-0.0192,0.1643,
0.170613,0.0604,0.4246,0.9962,0.0000,0.0000,-0.0000,-0.3709,-0.0192,0.1643,
0.171787,0.0694,0.4127,1.0822,0.0000,0.0000,-0.0000,-0.3709,-0.0192,0.1643,
0.205208,0.0694,0.4127,1.0822,0.0000,0.0000,-0.0000,-0.1078,0.3111,0.1036,
0.207424,0.0694,0.4127,1.0822,0.5187,0.2050,0.3854,-0.1078,0.3111,0.1036,
0.243548,0.1382,0.3765,1.0945,0.5187,0.2050,0.3854,-0.1078,0.3111,0.1036,
0.245664,0.0865,0.3697,0.9684,0.5187,0.2050,0.3854,-0.1078,0.3111,0.1036,
0.247882,0.0386,0.3913,0.9462,0.5187,0.2050,0.3854,-0.1078,0.3111,0.1036,
0.249384,0.0386,0.3913,0.9462,0.5187,0.2050,0.3854,-0.0343,-0.1193,0.0045,
0.250452,0.0386,0.3913,0.9462,0.4151,0.0060,1.0462,-0.0343,-0.1193,0.0045,
0.284422,0.0386,0.3913,0.9462,0.4151,0.0060,1.0462,0.3524,-0.4346,-0.0040,
0.286574,0.0386,0.3913,0.9462,0.1714,-0.0818,0.7405,0.3524,-0.4346,-0.0040,
0.322933,0.0925,0.4690,1.0771,0.1714,-0.0818,0.7405,0.3524,-0.4346,-0.0040,
0.324962,0.1363,0.4691,0.9900,0.1714,-0.0818,0.7405,0.3524,-0.4346,-0.0040,
0.326576,0.1763,0.4869,0.9328,0.1714,-0.0818,0.7405,0.3524,-0.4346,-0.0040,
0.327979,0.1763,0.4869,0.9328,0.1714,-0.0818,0.7405,0.7369,-1.0908,-0.1478,
0.329463,0.1763,0.4869,0.9328,-0.2257,0.1449,0.3522,0.7369,-1.0908,-0.1478,
0.363811,0.1763,0.4869,0.9328,-0.2257,0.1449,0.3522,0.3066,-1.4179,-0.3918,
0.365649,0.1763,0.4869,0.9328,0.5519,0.3439,-1.2993,0.3066,-1.4179,-0.3918,
0.402545,0.2281,0.4689,0.7637,0.5519,0.3439,-1.2993,0.3066,-1.4179,-0.3918,
0.405274,0.2850,0.5025,0.6730,0.5519,0.3439,-1.2993,0.3066,-1.4179,-0.3918,
0.406865,0.2591,0.4806,0.4238,0.5519,0.3439,-1.2993,0.3066,-1.4179,-0.3918,
0.408140,0.1726,0.4854,0.3682,0.5519,0.3439,-1.2993,0.3066,-1.4179,-0.3918,
0.409451,0.1471,0.4834,0.7832,0.5519,0.3439,-1.2993,0.3066,-1.4179,-0.3918,
0.410606,0.1471,0.4834,0.7832,0.5519,0.3439,-1.2993,-0.8951,-1.5404,-0.3939,
0.411867,0.1471,0.4834,0.7832,-0.2464,0.5057,-3.2729,-0.8951,-1.5404,-0.3939,
0.442879,0.1471,0.4834,0.7832,-0.2464,0.5057,-3.2729,-1.2370,-1.3710,0.0248,
0.445168,0.1471,0.4834,0.7832,-0.5909,0.7693,-2.7848,-1.2370,-1.3710,0.0248,
0.480079,0.4465,0.2708,0.7402,-0.5909,0.7693,-2.7848,-1.2370,-1.3710,0.0248,
0.482183,0.4770,0.2118,0.5826,-0.5909,0.7693,-2.7848,-1.2370,-1.3710,0.0248,
0.483430,0.4046,0.2626,0.4987,-0.5909,0.7693,-2.7848,-1.2370,-1.3710,0.0248,
0.484721,0.3153,0.2223,0.6598,-0.5909,0.7693,-2.7848,-1.2370,-1.3710,0.0248,
0.486168,0.3153,0.2223,0.6598,0.8679,-1.0948,-1.5361,-1.2370,-1.3710,0.0248,
0.490282,0.3153,0.2223,0.6598,0.8679,-1.0948,-1.5361,-0.6809,-2.5385,0.3603,
0.521823,0.3153,0.2223,0.6598,-0.2002,-0.9313,-0.7913,-0.6809,-2.5385,0.3603,
0.523899,0.3153,0.2223,0.6598,-0.2002,-0.9313,-0.7913,0.3364,-3.5462,0.6394,
0.561011,0.6313,0.1484,0.4742,-0.2002,-0.9313,-0.7913,0.3364,-3.5462,0.6394,
0.564466,0.5459,0.0828,0.5812,-0.2002,-0.9313,-0.7913,0.3364,-3.5462,0.6394,
0.565600,0.5215,0.1697,0.4049,-0.2002,-0.9313,-0.7913,0.3364,-3.5462,0.6394,
0.566786,0.5215,0.1697,0.4049,-0.2002,-0.9313,-0.7913,1.5689,-4.6722,0.4370,
0.567665,0.5215,0.1697,0.4049,-0.7595,-1.9050,0.0311,1.5689,-4.6722,0.4370,
0.600473,0.5215,0.1697,0.4049,-0.7595,-1.9050,0.0311,1.4603,-6.3394,0.8131,
0.602709,0.5215,0.1697,0.4049,-1.9781,-2.4461,-1.8584,1.4603,-6.3394,0.8131,
0.639541,0.4938,0.0620,0.0735,-1.9781,-2.4461,-1.8584,1.4603,-6.3394,0.8131,
0.641247,0.4239,-0.0159,0.0410,-1.9781,-2.4461,-1.8584,1.4603,-6.3394,0.8131,
0.643010,0.4605,-0.0770,0.2698,-1.9781,-2.4461,-1.8584,1.4603,-6.3394,0.8131,
0.643918,0.5079,-0.0908,0.5137,-1.9781,-2.4461,-1.8584,1.4603,-6.3394,0.8131,
0.644887,0.5797,-0.0643,0.6476,-1.9781,-2.4461,-1.8584,1.4603,-6.3394,0.8131,
0.645698,0.5797,-0.0643,0.6476,-1.9781,-2.4461,-1.8584,1.6861,-6.0805,1.9912,
0.646776,0.5797,-0.0643,0.6476,-2.2369,-3.1640,2.7341,1.6861,-6.0805,1.9912,
0.680591,0.5797,-0.0643,0.6476,-2.2369,-3.1640,2.7341,2.7364,-3.8424,2.9532,
0.682121,0.5797,-0.0643,0.6476,-2.4031,-2.1657,3.6904,2.7364,-3.8424,2.9532,
0.717264,0.7985,-0.0043,0.4562,-2.4031,-2.1657,3.6904,2.7364,-3.8424,2.9532,
0.720655,0.8757,-0.0933,0.0876,-2.4031,-2.1657,3.6904,2.7364,-3.8424,2.9532,
0.723245,0.8754,-0.1232,-0.0532,-2.4031,-2.1657,3.6904,2.7364,-3.8424,2.9532,
0.724635,1.0405,-0.1410,0.3521,-2.4031,-2.1657,3.6904,2.7364,-3.8424,2.9532,
0.726702,1.0405,-0.1410,0.3521,-2.4031,-2.1657,3.6904,1.6552,-1.9324,3.5955,
0.728292,1.0405,-0.1410,0.3521,0.6268,-0.9902,1.1472,1.6552,-1.9324,3.5955,
0.759076,1.0405,-0.1410,0.3521,0.6268,-0.9902,1.1472,2.0195,-1.0791,3.6808,
0.760890,1.0405,-0.1410,0.3521,0.5958,0.1029,1.3212,2.0195,-1.0791,3.6808,
0.795975,1.4029,-0.0663,0.6045,0.5958,0.1029,1.3212,2.0195,-1.0791,3.6808,
0.798298,1.6130,-0.0461,0.4876,0.5958,0.1029,1.3212,2.0195,-1.0791,3.6808,
0.799896,1.3992,-0.1110,0.2033,0.5958,0.1029,1.3212,2.0195,-1.0791,3.6808,
0.801239,1.3992,-0.1110,0.2033,0.5958,0.1029,1.3212,2.9506,-0.3686,3.0320,
0.802626,1.3992,-0.1110,0.2033,5.1948,0.8111,4.0289,2.9506,-0.3686,3.0320,
0.838975,1.3992,-0.1110,0.2033,5.1948,0.8111,4.0289,2.6661,-0.0991,2.9755,
0.841309,1.3992,-0.1110,0.2033,5.3522,0.8086,0.1698,2.6661,-0.0991,2.9755,
0.868716,1.2815,-0.1582,0.0347,5.3522,0.8086,0.1698,2.6661,-0.0991,2.9755,
0.871789,1.4867,-0.2262,0.0862,5.3522,0.8086,0.1698,2.6661,-0.0991,2.9755,
0.873597,1.6029,-0.3275,0.2667,5.3522,0.8086,0.1698,2.6661,-0.0991,2.9755,
0.875080,1.6812,-0.3927,0.2296,5.3522,0.8086,0.1698,2.6661,-0.0991,2.9755,
0.877868,1.8015,-0.3710,0.0344,5.3522,0.8086,0.1698,2.6661,-0.0991,2.9755,
0.880373,1.8015,-0.3710,0.0344,5.3522,0.8086,0.1698,3.4417,-0.4815,2.4504,
0.881760,1.8015,-0.3710,0.0344,7.9863,-0.4497,0.5749,3.4417,-0.4815,2.4504,
0.919393,1.8015,-0.3710,0.0344,7.9863,-0.4497,0.5749,3.8443,-0.7148,1.3947,
0.921484,1.8015,-0.3710,0.0344,7.5497,-0.1611,0.2929,3.8443,-0.7148,1.3947,
0.947791,1.7160,-0.4167,-0.1162,7.5497,-0.1611,0.2929,3.8443,-0.7148,1.3947,
0.951771,1.5236,-0.4366,-0.1911,7.5497,-0.1611,0.2929,3.8443,-0.7148,1.3947,
0.953667,1.5071,-0.3492,-0.3244,7.5497,-0.1611,0.2929,3.8443,-0.7148,1.3947,
0.955630,1.6064,-0.1115,-1.1566,7.5497,-0.1611,0.2929,3.8443,-0.7148,1.3947,
0.957198,1.6064,-0.1115,-1.1566,7.5497,-0.1611,0.2929,2.3934,-0.1427,0.6362,
0.958638,1.6064,-0.1115,-1.1566,6.0867,-0.4156,-3.5290,2.3934,-0.1427,0.6362,
0.997582,1.6064,-0.1115,-1.1566,2.2554,0.8590,-9.1548,2.3934,-0.1427,0.6362,
0.999970,1.6064,-0.1115,-1.1566,2.2554,0.8590,-9.1548,-0.6234,0.3633,0.1984,
1.017396,1.0053,-0.2277,-1.3732,2.2554,0.8590,-9.1548,-0.6234,0.3633,0.1984,
1.019349,0.9930,-0.4898,0.0031,2.2554,0.8590,-9.1548,-0.6234,0.3633,0.1984,
1.020871,0.9494,-0.5328,0.2244,2.2554,0.8590,-9.1548,-0.6234,0.3633,0.1984,
1.037764,0.9494,-0.5328,0.2244,2.2178,0.9824,-8.8922,-0.6234,0.3633,0.1984,
1.039866,0.9494,-0.5328,0.2244,2.2178,0.9824,-8.8922,-0.3688,1.0227,0.4637,
1.076131,0.9494,-0.5328,0.2244,2.2178,0.9824,-8.8922,0.6070,-0.0863,0.8397,
1.077907,0.9494,-0.5328,0.2244,-0.7188,-0.2810,0.3254,0.6070,-0.0863,0.8397,
1.099775,0.8634,-0.4232,0.1261,-0.7188,-0.2810,0.3254,0.6070,-0.0863,0.8397,
1.101959,0.8409,-0.3567,-0.0306,-0.7188,-0.2810,0.3254,0.6070,-0.0863,0.8397,
1.103941,0.8087,-0.3194,0.2365,-0.7188,-0.2810,0.3254,0.6070,-0.0863,0.8397,
1.105172,0.8758,-0.2743,0.2661,-0.7188,-0.2810,0.3254,0.6070,-0.0863,0.8397,
1.107315,0.6942,-0.3108,0.0465,-0.7188,-0.2810,0.3254,0.6070,-0.0863,0.8397,
1.120586,0.6942,-0.3108,0.0465,-0.7188,-0.2810,0.3254,0.4493,-0.2471,1.3297,
1.122909,0.6942,-0.3108,0.0465,-1.3215,1.4461,1.0293,0.4493,-0.2471,1.3297,
1.154842,0.6942,-0.3108,0.0465,-1.3215,1.4461,1.0293,-0.0556,0.1140,2.1361,
1.156656,0.6942,-0.3108,0.0465,-0.8622,2.0793,0.9456,-0.0556,0.1140,2.1361,
1.194633,0.6942,-0.3108,0.0465,-0.8622,2.0793,0.9456,0.2288,-0.5710,1.9699,
1.197089,0.6942,-0.3108,0.0465,-0.4356,2.5787,1.0258,0.2288,-0.5710,1.9699,
1.234992,0.6942,-0.3108,0.0465,-0.4356,2.5787,1.0258,0.1180,0.1630,1.2541,
1.237831,0.6942,-0.3108,0.0465,-0.1377,2.8101,0.8952,0.1180,0.1630,1.2541,
1.254490,0.6981,-0.6470,0.0242,-0.1377,2.8101,0.8952,0.1180,0.1630,1.2541,
1.257173,0.5867,-0.5129,0.0416,-0.1377,2.8101,0.8952,0.1180,0.1630,1.2541,
1.259261,0.6072,-0.3045,0.0487,-0.1377,2.8101,0.8952,0.1180,0.1630,1.2541,
1.274143,0.6072,-0.3045,0.0487,-0.1377,2.8101,0.8952,0.0807,-0.2258,0.7950,
1.275632,0.6072,-0.3045,0.0487,-1.4685,1.1601,-0.4489,0.0807,-0.2258,0.7950,
1.313503,0.6072,-0.3045,0.0487,-1.4685,1.1601,-0.4489,-0.5861,-0.6019,0.5691,
1.314700,0.6072,-0.3045,0.0487,-1.5290,4.2189,-0.0329,-0.5861,-0.6019,0.5691,
1.341455,0.5593,-0.2114,0.0325,-1.5290,4.2189,-0.0329,-0.5861,-0.6019,0.5691,
1.342426,0.5464,-0.1799,0.1019,-1.5290,4.2189,-0.0329,-0.5861,-0.6019,0.5691,
1.342978,0.7064,-0.1256,0.0086,-1.5290,4.2189,-0.0329,-0.5861,-0.6019,0.5691,
1.343438,0.7695,-0.2820,0.0164,-1.5290,4.2189,-0.0329,-0.5861,-0.6019,0.5691,
1.352228,0.7695,-0.2820,0.0164,-1.5290,4.2189,-0.0329,-1.0879,-0.7979,0.4637,
1.353597,0.7695,-0.2820,0.0164,-1.3560,4.1473,0.4360,-1.0879,-0.7979,0.4637,
1.392415,0.7695,-0.2820,0.0164,-1.3560,4.1473,0.4360,-1.0208,-0.4069,0.2389,
1.393976,0.7695,-0.2820,0.0164,0.8688,-2.0493,0.3818,-1.0208,-0.4069,0.2389,
1.429966,0.7743,-0.8637,0.0035,0.8688,-2.0493,0.3818,-1.0208,-0.4069,0.2389,
1.432377,0.9451,-1.3186,0.0040,0.8688,-2.0493,0.3818,-1.0208,-0.4069,0.2389,
1.436161,0.7653,-1.6494,0.0870,0.8688,-2.0493,0.3818,-1.0208,-0.4069,0.2389,
1.437401,0.7050,-1.4432,0.1965,0.8688,-2.0493,0.3818,-1.0208,-0.4069,0.2389,
1.438733,0.7050,-1.4432,0.1965,0.8688,-2.0493,0.3818,-0.2165,-0.5028,0.2421,
1.439965,0.7050,-1.4432,0.1965,0.8904,-1.8886,0.5496,-0.2165,-0.5028,0.2421,
1.474738,0.7050,-1.4432,0.1965,0.8904,-1.8886,0.5496,0.1862,-0.9875,1.5438,
1.476879,0.7050,-1.4432,0.1965,-0.0116,-6.2113,1.7687,0.1862,-0.9875,1.5438,
1.513040,0.7050,-1.4432,0.1965,-0.0116,-6.2113,1.7687,-0.1174,-1.5095,3.9684,
1.515325,0.7050,-1.4432,0.1965,1.1455,-4.9976,2.0792,-0.1174,-1.5095,3.9684,
1.516762,0.6158,-0.9186,0.0694,1.1455,-4.9976,2.0792,-0.1174,-1.5095,3.9684,
1.517837,0.2769,-0.7066,-0.1143,1.1455,-4.9976,2.0792,-0.1174,-1.5095,3.9684,
1.518968,0.1885,-0.6597,-0.1016,1.1455,-4.9976,2.0792,-0.1174,-1.5095,3.9684,
1.520028,0.2872,-0.7677,0.0504,1.1455,-4.9976,2.0792,-0.1174,-1.5095,3.9684,
1.521330,0.1819,-0.9631,-0.0146,1.1455,-4.9976,2.0792,-0.1174,-1.5095,3.9684,
1.551916,0.1819,-0.9631,-0.0146,-2.0791,1.6977,0.3110,-0.1174,-1.5095,3.9684,
1.553213,0.1819,-0.9631,-0.0146,-2.0791,1.6977,0.3110,0.2895,-0.1608,3.0842,
1.580712,0.4103,-1.0818,-0.1866,-2.0791,1.6977,0.3110,0.2895,-0.1608,3.0842,
1.582794,0.4577,-1.2709,-0.1712,-2.0791,1.6977,0.3110,0.2895,-0.1608,3.0842,
1.583970,0.3427,-1.2724,-0.0378,-2.0791,1.6977,0.3110,0.2895,-0.1608,3.0842,
1.591571,0.3427,-1.2724,-0.0378,-2.0791,1.6977,0.3110,-0.7012,0.0330,0.5297,
1.593528,0.3427,-1.2724,-0.0378,-0.8876,-2.0096,-0.1220,-0.7012,0.0330,0.5297,
1.631833,0.3427,-1.2724,-0.0378,-0.8876,-2.0096,-0.1220,-0.8407,-0.1651,-0.4940,
1.633939,0.3427,-1.2724,-0.0378,-1.6713,-1.1993,0.2210,-0.8407,-0.1651,-0.4940,
1.669066,0.2887,-1.0112,-0.1045,-1.6713,-1.1993,0.2210,-0.8407,-0.1651,-0.4940,
1.671022,0.2073,-0.7603,-0.2206,-1.6713,-1.1993,0.2210,-0.8407,-0.1651,-0.4940,
1.672204,-0.1501,-0.3648,-0.3303,-1.6713,-1.1993,0.2210,-0.8407,-0.1651,-0.4940,
1.673353,-0.3697,0.0559,-0.1114,-1.6713,-1.1993,0.2210,-0.8407,-0.1651,-0.4940,
1.674669,-0.3697,0.0559,-0.1114,-1.6713,-1.1993,0.2210,-0.5062,0.0202,1.1486,
1.675994,-0.3697,0.0559,-0.1114,-1.2201,-0.9961,0.3785,-0.5062,0.0202,1.1486,
1.710618,-0.3697,0.0559,-0.1114,-1.2201,-0.9961,0.3785,0.4131,0.9556,2.4813,
1.713289,-0.3697,0.0559,-0.1114,-4.3868,8.1247,-0.6780,0.4131,0.9556,2.4813,
1.750125,-0.3697,0.0559,-0.1114,-4.3868,8.1247,-0.6780,-0.3081,0.1460,2.7359,
1.751473,-0.3697,0.0559,-0.1114,-3.2731,8.0524,-0.5604,-0.3081,0.1460,2.7359,
1.752293,0.0771,0.0429,-0.1663,-3.2731,8.0524,-0.5604,-0.3081,0.1460,2.7359,
1.752878,0.1638,-0.2053,-0.2538,-3.2731,8.0524,-0.5604,-0.3081,0.1460,2.7359,
1.753660,-0.1411,-0.9441,-0.3916,-3.2731,8.0524,-0.5604,-0.3081,0.1460,2.7359,
1.754312,-0.2537,-1.5988,-0.6290,-3.2731,8.0524,-0.5604,-0.3081,0.1460,2.7359,
1.755093,-0.0074,-3.8948,-0.5863,-3.2731,8.0524,-0.5604,-0.3081,0.1460,2.7359,
1.788417,-0.0074,-3.8948,-0.5863,-3.2731,8.0524,-0.5604,-1.1624,-1.1973,3.3569,
1.790224,-0.0074,-3.8948,-0.5863,-1.2588,0.0259,-2.1875,-1.1624,-1.1973,3.3569,
1.828805,-0.0074,-3.8948,-0.5863,-1.2588,0.0259,-2.1875,-0.5946,-1.7939,1.7111,
1.830806,-0.0074,-3.8948,-0.5863,2.2694,-10.9217,-1.4278,-0.5946,-1.7939,1.7111,
1.833056,0.2584,-1.8785,-0.3637,2.2694,-10.9217,-1.4278,-0.5946,-1.7939,1.7111,
1.834641,0.3915,-0.4378,-0.1741,2.2694,-10.9217,-1.4278,-0.5946,-1.7939,1.7111,
1.836063,0.3424,-1.1405,-0.2008,2.2694,-10.9217,-1.4278,-0.5946,-1.7939,1.7111,
1.837734,0.2676,-1.1007,-0.3737,2.2694,-10.9217,-1.4278,-0.5946,-1.7939,1.7111,
1.868945,0.2676,-1.1007,-0.3737,2.2694,-10.9217,-1.4278,-0.2570,0.3878,0.0589,
1.871121,0.2676,-1.1007,-0.3737,2.1747,-10.5548,-1.2816,-0.2570,0.3878,0.0589,
1.909568,0.2676,-1.1007,-0.3737,2.1747,-10.5548,-1.2816,-0.0215,0.2184,-0.1553,
1.912104,0.2676,-1.1007,-0.3737,2.1751,-0.5993,-0.4954,-0.0215,0.2184,-0.1553,
1.913624,0.0810,-0.9284,-0.3171,2.1751,-0.5993,-0.4954,-0.0215,0.2184,-0.1553,
1.914887,-0.0629,-0.8014,-0.2887,2.1751,-0.5993,-0.4954,-0.0215,0.2184,-0.1553,
1.916165,-0.1267,-0.6958,-0.2333,2.1751,-0.5993,-0.4954,-0.0215,0.2184,-0.1553,
1.918295,-0.1144,-0.6858,-0.1136,2.1751,-0.5993,-0.4954,-0.0215,0.2184,-0.1553,
1.947399,-0.1144,-0.6858,-0.1136,2.1751,-0.5993,-0.4954,0.3992,-0.4687,0.0450,
1.950709,-0.1144,-0.6858,-0.1136,-0.9808,2.5717,0.1812,0.3992,-0.4687,0.0450,
1.988882,-0.0949,-0.7139,0.0083,-0.9808,2.5717,0.1812,0.3992,-0.4687,0.0450,
1.991235,-0.1118,-0.8207,-0.0772,-0.9808,2.5717,0.1812,0.3992,-0.4687,0.0450,
1.992233,-0.2180,-1.0286,-0.2218,-0.9808,2.5717,0.1812,0.3992,-0.4687,0.0450,
1.993850,-0.2180,-1.0286,-0.2218,-0.9808,2.5717,0.1812,0.8286,-0.3707,-0.0274,
1.994781,-0.2180,-1.0286,-0.2218,-1.3108,1.3537,0.9560,0.8286,-0.3707,-0.0274,
2.027247,-0.2180,-1.0286,-0.2218,-1.3108,1.3537,0.9560,0.5825,-0.4548,-0.0935,
2.028986,-0.2180,-1.0286,-0.2218,-5.3404,-4.0431,-4.8419,0.5825,-0.4548,-0.0935,
2.067154,-0.2180,-1.0286,-0.2218,-5.3404,-4.0431,-4.8419,-1.0570,0.5635,0.5712,
2.070454,-0.4174,-1.2619,-0.4089,-5.3404,-4.0431,-4.8419,-1.0570,0.5635,0.5712,
2.071896,-0.7235,-1.4617,-0.7788,-5.3404,-4.0431,-4.8419,-1.0570,0.5635,0.5712,
2.073404,-0.5689,-1.5443,-0.8563,-5.3404,-4.0431,-4.8419,-1.0570,0.5635,0.5712,
2.074478,0.0341,-1.1759,-0.2088,-5.3404,-4.0431,-4.8419,-1.0570,0.5635,0.5712,
2.075653,0.5088,-0.6956,0.7579,-5.3404,-4.0431,-4.8419,-1.0570,0.5635,0.5712,
2.077105,0.5088,-0.6956,0.7579,-5.0017,-4.0072,-4.2831,-1.0570,0.5635,0.5712,
2.106859,0.5088,-0.6956,0.7579,-5.0017,-4.0072,-4.2831,-1.3020,0.5518,0.5404,
2.109050,0.5088,-0.6956,0.7579,-4.6969,-4.0284,-3.6425,-1.3020,0.5518,0.5404,
2.148846,0.5088,-0.6956,0.7579,-4.6969,-4.0284,-3.6425,-0.1046,0.1875,-0.3470,
2.151011,0.5088,-0.6956,0.7579,4.4083,2.0077,6.1208,-0.1046,0.1875,-0.3470,
2.152376,0.6256,-0.5290,0.4398,4.4083,2.0077,6.1208,-0.1046,0.1875,-0.3470,
2.153602,0.3588,-0.7171,-0.4952,4.4083,2.0077,6.1208,-0.1046,0.1875,-0.3470,
2.154718,0.2662,-0.9912,-0.3713,4.4083,2.0077,6.1208,-0.1046,0.1875,-0.3470,
2.156074,0.1487,-1.1620,-0.1639,4.4083,2.0077,6.1208,-0.1046,0.1875,-0.3470,
2.186930,0.1487,-1.1620,-0.1639,4.4083,2.0077,6.1208,-0.3219,-0.2802,-0.3726,
2.188635,0.1487,-1.1620,-0.1639,2.9178,0.4301,-0.3450,-0.3219,-0.2802,-0.3726,
2.225695,0.1487,-1.1620,-0.1639,2.9178,0.4301,-0.3450,-0.1728,-0.4900,-0.0146,
2.227681,0.1487,-1.1620,-0.1639,0.4213,-1.8452,1.3784,-0.1728,-0.4900,-0.0146,
2.230680,-0.0201,-1.2235,-0.2228,0.4213,-1.8452,1.3784,-0.1728,-0.4900,-0.0146,
2.232744,-0.0368,-1.1945,-0.1903,0.4213,-1.8452,1.3784,-0.1728,-0.4900,-0.0146,
2.234122,0.0536,-1.1590,-0.0955,0.4213,-1.8452,1.3784,-0.1728,-0.4900,-0.0146,
2.235269,0.1528,-1.1490,-0.0864,0.4213,-1.8452,1.3784,-0.1728,-0.4900,-0.0146,
2.265112,0.1528,-1.1490,-0.0864,0.4213,-1.8452,1.3784,0.2757,-0.9566,0.1941,
2.267124,0.1528,-1.1490,-0.0864,0.5929,-1.7648,1.2151,0.2757,-0.9566,0.1941,
2.305208,0.1465,-1.1239,-0.1338,0.5929,-1.7648,1.2151,0.2757,-0.9566,0.1941,
2.307450,0.0539,-1.0967,-0.0965,0.5929,-1.7648,1.2151,0.2757,-0.9566,0.1941,
2.308805,0.0211,-1.0613,-0.0202,0.5929,-1.7648,1.2151,0.2757,-0.9566,0.1941,
2.310443,0.0211,-1.0613,-0.0202,0.5929,-1.7648,1.2151,0.6272,-1.1611,0.1153,
2.311860,0.0211,-1.0613,-0.0202,1.8755,-0.9940,1.5188,0.6272,-1.1611,0.1153,
2.345265,0.0211,-1.0613,-0.0202,1.8755,-0.9940,1.5188,0.9340,-0.8192,0.0663,
2.347231,0.0211,-1.0613,-0.0202,0.8789,0.2346,1.8685,0.9340,-0.8192,0.0663,
2.384889,0.0211,-1.0613,-0.0202,0.8789,0.2346,1.8685,0.9521,-0.3973,0.1142,
2.386972,0.0211,-1.0613,-0.0202,0.9295,0.2945,1.4336,0.9521,-0.3973,0.1142,
2.388292,0.0165,-1.0110,-0.0039,0.9295,0.2945,1.4336,0.9521,-0.3973,0.1142,
2.389883,-0.0138,-0.9453,-0.0481,0.9295,0.2945,1.4336,0.9521,-0.3973,0.1142,
2.391249,-0.0087,-0.8861,-0.0923,0.9295,0.2945,1.4336,0.9521,-0.3973,0.1142,
2.392651,-0.0204,-0.8730,-0.1028,0.9295,0.2945,1.4336,0.9521,-0.3973,0.1142,
2.394004,-0.0016,-0.8659,-0.1321,0.9295,0.2945,1.4336,0.9521,-0.3973,0.1142,
2.424082,-0.0016,-0.8659,-0.1321,0.9295,0.2945,1.4336,0.7146,-0.4506,0.2783,
2.425579,-0.0016,-0.8659,-0.1321,0.8672,1.5674,0.2882,0.7146,-0.4506,0.2783,
2.463615,-0.0016,-0.8659,-0.1321,0.8672,1.5674,0.2882,0.3066,-0.4634,0.2645,
2.465686,-0.0016,-0.8659,-0.1321,1.7560,1.5444,-0.1775,0.3066,-0.4634,0.2645,
2.467276,0.0715,-0.8466,-0.1610,1.7560,1.5444,-0.1775,0.3066,-0.4634,0.2645,
2.468424,0.0915,-0.8671,-0.1443,1.7560,1.5444,-0.1775,0.3066,-0.4634,0.2645,
2.469807,0.0529,-0.9074,-0.1224,1.7560,1.5444,-0.1775,0.3066,-0.4634,0.2645,
2.471163,0.0251,-0.9404,-0.0615,1.7560,1.5444,-0.1775,0.3066,-0.4634,0.2645,
2.504302,0.0251,-0.9404,-0.0615,1.7560,1.5444,-0.1775,-0.0748,-0.0682,-0.1926,
2.506259,0.0251,-0.9404,-0.0615,1.6390,1.5088,-0.1465,-0.0748,-0.0682,-0.1926,
2.543545,0.0251,-0.9404,-0.0615,-0.1899,0.1491,0.9746,-0.0748,-0.0682,-0.1926,
2.545422,0.0251,-0.9404,-0.0615,-0.1899,0.1491,0.9746,-0.0396,0.9374,-0.9297,
2.548407,-0.0030,-1.0193,-0.0356,-0.1899,0.1491,0.9746,-0.0396,0.9374,-0.9297,
2.549805,-0.2393,-1.0840,0.0074,-0.1899,0.1491,0.9746,-0.0396,0.9374,-0.9297,
2.550925,-0.6873,-1.1143,-0.1404,-0.1899,0.1491,0.9746,-0.0396,0.9374,-0.9297,
2.552341,-1.0013,-1.1744,-0.4028,-0.1899,0.1491,0.9746,-0.0396,0.9374,-0.9297,
2.582758,-1.0013,-1.1744,-0.4028,-0.1899,0.1491,0.9746,-0.2154,1.3923,-0.6112,
2.585001,-1.0013,-1.1744,-0.4028,-0.4943,0.1430,1.0528,-0.2154,1.3923,-0.6112,
2.623179,-1.0013,-1.1744,-0.4028,-0.4943,0.1430,1.0528,-0.7363,1.2954,-0.2756,
2.627695,-1.0013,-1.1744,-0.4028,-7.8618,-1.0696,-1.8355,-0.7363,1.2954,-0.2756,
2.630359,-0.7873,-1.1214,-0.5365,-7.8618,-1.0696,-1.8355,-0.7363,1.2954,-0.2756,
2.631772,-0.4689,-1.0860,-0.4490,-7.8618,-1.0696,-1.8355,-0.7363,1.2954,-0.2756,
2.632895,-0.3981,-1.1715,-0.3227,-7.8618,-1.0696,-1.8355,-0.7363,1.2954,-0.2756,
2.633745,-0.2764,-1.1673,-0.3105,-7.8618,-1.0696,-1.8355,-0.7363,1.2954,-0.2756,
2.660968,-0.2764,-1.1673,-0.3105,-7.8618,-1.0696,-1.8355,-0.6032,1.2719,-0.3566,
2.663103,-0.2764,-1.1673,-0.3105,-3.6538,-1.1318,-1.5594,-0.6032,1.2719,-0.3566,
2.700996,-0.2764,-1.1673,-0.3105,-3.6538,-1.1318,-1.5594,-0.7278,1.4040,-0.5728,
2.702838,-0.2764,-1.1673,-0.3105,-2.3411,1.8120,-0.2514,-0.7278,1.4040,-0.5728,
2.703831,-0.1379,-0.9795,-0.3303,-2.3411,1.8120,-0.2514,-0.7278,1.4040,-0.5728,
2.704668,-0.1873,-0.8126,-0.2848,-2.3411,1.8120,-0.2514,-0.7278,1.4040,-0.5728,
2.705585,-0.3277,-0.6990,-0.1556,-2.3411,1.8120,-0.2514,-0.7278,1.4040,-0.5728,
2.706532,-0.3053,-0.6030,0.0323,-2.3411,1.8120,-0.2514,-0.7278,1.4040,-0.5728,
2.740722,-0.3053,-0.6030,0.0323,-2.3411,1.8120,-0.2514,-0.3741,1.0525,-0.3577,
2.742440,-0.3053,-0.6030,0.0323,-2.5194,1.7316,-0.1152,-0.3741,1.0525,-0.3577,
2.779956,-0.3053,-0.6030,0.0323,-2.5194,1.7316,-0.1152,0.3854,0.6498,-0.2320,
2.781509,-0.3053,-0.6030,0.0323,-2.2333,3.6522,3.1740,0.3854,0.6498,-0.2320,
2.782693,-0.1552,-0.5781,0.1537,-2.2333,3.6522,3.1740,0.3854,0.6498,-0.2320,
2.783687,-0.0744,-0.7056,0.1227,-2.2333,3.6522,3.1740,0.3854,0.6498,-0.2320,
2.784617,-0.1037,-0.8690,-0.0100,-2.2333,3.6522,3.1740,0.3854,0.6498,-0.2320,
2.785301,-0.1076,-0.9577,-0.2917,-2.2333,3.6522,3.1740,0.3854,0.6498,-0.2320,
2.821455,-0.1076,-0.9577,-0.2917,-2.2333,3.6522,3.1740,0.3034,0.4517,-0.3214,
2.823078,-0.1076,-0.9577,-0.2917,-2.3417,3.5868,2.9766,0.3034,0.4517,-0.3214,
2.860196,-0.1076,-0.9577,-0.2917,-2.3417,3.5868,2.9766,-0.9110,0.5518,-0.3310,
2.862572,-0.1076,-0.9577,-0.2917,-1.7023,0.2643,-1.3632,-0.9110,0.5518,-0.3310,
2.864755,-0.0866,-1.0489,-0.8304,-1.7023,0.2643,-1.3632,-0.9110,0.5518,-0.3310,
2.866528,-0.0412,-1.1918,-1.0204,-1.7023,0.2643,-1.3632,-0.9110,0.5518,-0.3310,
2.867792,-0.1174,-1.3086,-0.6552,-1.7023,0.2643,-1.3632,-0.9110,0.5518,-0.3310,
2.869659,-0.1535,-1.2565,-0.4815,-1.7023,0.2643,-1.3632,-0.9110,0.5518,-0.3310,
2.899495,-0.1535,-1.2565,-0.4815,-1.7023,0.2643,-1.3632,-1.1070,1.0429,-0.0359,
2.901393,-0.1535,-1.2565,-0.4815,-1.8268,-2.6672,-4.2295,-1.1070,1.0429,-0.0359,
2.938937,-0.3873,-1.0704,-0.6422,-1.8268,-2.6672,-4.2295,-1.1070,1.0429,-0.0359,
2.940815,-0.6944,-0.8485,-0.5076,-1.8268,-2.6672,-4.2295,-1.1070,1.0429,-0.0359,
2.941831,-0.6016,-0.8595,-0.1888,-1.8268,-2.6672,-4.2295,-1.1070,1.0429,-0.0359,
2.942790,-0.6016,-0.8595,-0.1888,-1.8268,-2.6672,-4.2295,-1.3382,0.6647,0.7119,
2.943671,-0.6016,-0.8595,-0.1888,-5.9874,0.3791,-1.0474,-1.3382,0.6647,0.7119,
2.978780,-0.6016,-0.8595,-0.1888,-5.9874,0.3791,-1.0474,-0.6926,0.3654,1.3318,
2.980802,-0.6016,-0.8595,-0.1888,-0.5312,-2.0481,0.9821,-0.6926,0.3654,1.3318,
3.018700,-0.6016,-0.8595,-0.1888,-0.5312,-2.0481,0.9821,0.0222,0.2674,1.0517,
3.020995,-0.6016,-0.8595,-0.1888,-0.1731,-2.0084,0.9551,0.0222,0.2674,1.0517,
3.022365,-0.2798,-1.0826,-0.1138,-0.1731,-2.0084,0.9551,0.0222,0.2674,1.0517,
3.023714,0.0145,-1.2311,-0.2611,-0.1731,-2.0084,0.9551,0.0222,0.2674,1.0517,
3.024852,0.1120,-1.1964,-0.4138,-0.1731,-2.0084,0.9551,0.0222,0.2674,1.0517,
3.027605,0.0729,-1.0835,-0.4483,-0.1731,-2.0084,0.9551,0.0222,0.2674,1.0517,
3.028915,0.0084,-0.9655,-0.4334,-0.1731,-2.0084,0.9551,0.0222,0.2674,1.0517,
3.058705,0.0084,-0.9655,-0.4334,-0.1731,-2.0084,0.9551,0.3641,-0.0522,0.7577,
3.061547,0.0084,-0.9655,-0.4334,0.1159,-1.9314,0.8000,0.3641,-0.0522,0.7577,
3.097898,0.0084,-0.9655,-0.4334,0.1159,-1.9314,0.8000,0.7785,-0.3068,0.6437,
3.101351,0.0084,-0.9655,-0.4334,1.0718,0.1285,-1.0354,0.7785,-0.3068,0.6437,
3.103206,-0.0219,-0.8541,-0.3823,1.0718,0.1285,-1.0354,0.7785,-0.3068,0.6437,
3.104512,-0.0028,-0.7479,-0.3078,1.0718,0.1285,-1.0354,0.7785,-0.3068,0.6437,
3.106313,0.0060,-0.6695,-0.2819,1.0718,0.1285,-1.0354,0.7785,-0.3068,0.6437,
3.107447,-0.0651,-0.6279,-0.3645,1.0718,0.1285,-1.0354,0.7785,-0.3068,0.6437,
3.136648,-0.0651,-0.6279,-0.3645,1.0718,0.1285,-1.0354,1.1545,-0.8234,0.3465,
3.138273,-0.0651,-0.6279,-0.3645,0.8828,2.9877,-0.4891,1.1545,-0.8234,0.3465,
3.177114,-0.0651,-0.6279,-0.3645,0.8828,2.9877,-0.4891,0.3439,-1.1718,0.1526,
3.179731,-0.0651,-0.6279,-0.3645,0.2764,2.4383,-1.4684,0.3439,-1.1718,0.1526,
3.181404,-0.1626,-0.6423,-0.6239,0.2764,2.4383,-1.4684,0.3439,-1.1718,0.1526,
3.182660,-0.1235,-0.7100,-0.6840,0.2764,2.4383,-1.4684,0.3439,-1.1718,0.1526,
3.183731,-0.0133,-0.8546,0.1022,0.2764,2.4383,-1.4684,0.3439,-1.1718,0.1526,
3.185104,-0.0939,-1.0249,0.3145,0.2764,2.4383,-1.4684,0.3439,-1.1718,0.1526,
3.216214,-0.0939,-1.0249,0.3145,0.2764,2.4383,-1.4684,0.4152,-0.7894,-0.0221,
3.217991,-0.0939,-1.0249,0.3145,0.3356,2.4298,-1.6352,0.4152,-0.7894,-0.0221,
3.257577,-0.0939,-1.0249,0.3145,0.3356,2.4298,-1.6352,0.3066,-0.5443,0.1846,
3.259206,-0.0939,-1.0249,0.3145,-0.3363,-1.3886,1.3066,0.3066,-0.5443,0.1846,
3.260864,-0.2271,-1.1353,-0.1307,-0.3363,-1.3886,1.3066,0.3066,-0.5443,0.1846,
3.262718,-0.2224,-1.2292,-0.4363,-0.3363,-1.3886,1.3066,0.3066,-0.5443,0.1846,
3.264117,0.0260,-1.2978,-0.2826,-0.3363,-1.3886,1.3066,0.3066,-0.5443,0.1846,
3.266084,0.3886,-1.2289,0.1926,-0.3363,-1.3886,1.3066,0.3066,-0.5443,0.1846,
3.295678,0.3886,-1.2289,0.1926,-0.3363,-1.3886,1.3066,-0.3699,-0.0064,0.0855,
3.297685,0.3886,-1.2289,0.1926,-0.2974,-1.3983,1.4201,-0.3699,-0.0064,0.0855,
3.336484,0.3886,-1.2289,0.1926,-0.2974,-1.3983,1.4201,-0.1962,-0.1853,-0.5984,
3.338631,0.3886,-1.2289,0.1926,4.3910,-1.8186,2.4383,-0.1962,-0.1853,-0.5984,
3.340001,0.5681,-1.0066,0.1437,4.3910,-1.8186,2.4383,-0.1962,-0.1853,-0.5984,
3.341123,0.4177,-0.8373,-0.3002,4.3910,-1.8186,2.4383,-0.1962,-0.1853,-0.5984,
3.342261,0.1467,-0.7928,-0.1224,4.3910,-1.8186,2.4383,-0.1962,-0.1853,-0.5984,
3.343261,0.0385,-0.8063,0.1828,4.3910,-1.8186,2.4383,-0.1962,-0.1853,-0.5984,
3.374722,0.0385,-0.8063,0.1828,2.7975,1.7572,1.4779,-0.1962,-0.1853,-0.5984,
3.376685,0.0385,-0.8063,0.1828,2.7975,1.7572,1.4779,-0.0673,0.0053,-0.7753,
3.415106,0.0385,-0.8063,0.1828,2.7975,1.7572,1.4779,0.0839,0.0884,-0.4109,
3.417589,0.0385,-0.8063,0.1828,-1.2145,-0.1846,-1.1820,0.0839,0.0884,-0.4109,
3.419027,-0.1623,-0.9086,0.0066,-1.2145,-0.1846,-1.1820,0.0839,0.0884,-0.4109,
3.420439,-0.2398,-1.0403,-0.5220,-1.2145,-0.1846,-1.1820,0.0839,0.0884,-0.4109,
3.421716,-0.1792,-1.0889,-0.5362,-1.2145,-0.1846,-1.1820,0.0839,0.0884,-0.4109,
3.423090,0.0197,-1.0384,-0.2494,-1.2145,-0.1846,-1.1820,0.0839,0.0884,-0.4109,
3.454959,0.0197,-1.0384,-0.2494,-1.2145,-0.1846,-1.1820,-0.4753,-1.1068,0.1398,
3.457589,0.0197,-1.0384,-0.2494,-1.0394,-0.2286,-1.0131,-0.4753,-1.1068,0.1398,
3.495643,0.0197,-1.0384,-0.2494,-1.0394,-0.2286,-1.0131,-0.3411,-1.3401,0.0088,
3.498604,0.0197,-1.0384,-0.2494,1.6915,-0.3382,0.1642,-0.3411,-1.3401,0.0088,
3.499930,0.1597,-0.9932,-0.2430,1.6915,-0.3382,0.1642,-0.3411,-1.3401,0.0088,
3.508216,0.0436,-1.0315,-0.2228,1.6915,-0.3382,0.1642,-0.3411,-1.3401,0.0088,
3.510099,-0.1064,-1.1014,-0.1023,1.6915,-0.3382,0.1642,-0.3411,-1.3401,0.0088,
3.511624,-0.1438,-1.0955,-0.0188,1.6915,-0.3382,0.1642,-0.3411,-1.3401,0.0088,
3.533782,-0.1438,-1.0955,-0.0188,1.6915,-0.3382,0.1642,-0.0109,-1.0482,-0.0764,
3.536268,-0.1438,-1.0955,-0.0188,1.7343,-0.3302,0.1244,-0.0109,-1.0482,-0.0764,
3.573572,-0.1438,-1.0955,-0.0188,1.7343,-0.3302,0.1244,0.3194,-0.9449,-0.0732,
3.575934,-0.1438,-1.0955,-0.0188,-0.0666,-0.9592,1.7638,0.3194,-0.9449,-0.0732,
3.577345,-0.0973,-1.0740,-0.0332,-0.0666,-0.9592,1.7638,0.3194,-0.9449,-0.0732,
3.578648,-0.0434,-1.1175,-0.0327,-0.0666,-0.9592,1.7638,0.3194,-0.9449,-0.0732,
3.580072,0.0192,-1.1876,-0.0488,-0.0666,-0.9592,1.7638,0.3194,-0.9449,-0.0732,
3.581201,0.0534,-1.2155,-0.0281,-0.0666,-0.9592,1.7638,0.3194,-0.9449,-0.0732,
3.612907,0.0534,-1.2155,-0.0281,-0.0666,-0.9592,1.7638,0.5463,-0.8991,-0.1297,
3.615395,0.0534,-1.2155,-0.0281,1.1700,-1.6932,1.6314,0.5463,-0.8991,-0.1297,
3.652094,0.0534,-1.2155,-0.0281,1.1700,-1.6932,1.6314,0.7614,-0.7489,-0.2458,
3.658295,0.0534,-1.2155,-0.0281,1.5755,-0.6321,2.0010,0.7614,-0.7489,-0.2458,
3.659675,0.0812,-1.1564,0.0406,1.5755,-0.6321,2.0010,0.7614,-0.7489,-0.2458,
3.660925,0.0680,-1.0664,0.0448,1.5755,-0.6321,2.0010,0.7614,-0.7489,-0.2458,
3.662047,0.0251,-0.9963,0.0294,1.5755,-0.6321,2.0010,0.7614,-0.7489,-0.2458,
3.663093,-0.0179,-0.9436,-0.0124,1.5755,-0.6321,2.0010,0.7614,-0.7489,-0.2458,
3.692709,-0.0179,-0.9436,-0.0124,1.5755,-0.6321,2.0010,0.8808,-0.7851,-0.2224,
3.697055,-0.0179,-0.9436,-0.0124,1.5070,-0.5635,1.5967,0.8808,-0.7851,-0.2224,
3.731745,-0.0920,-0.9189,-0.0860,1.5070,-0.5635,1.5967,0.8808,-0.7851,-0.2224,
3.734333,-0.1557,-0.8979,-0.1705,1.5070,-0.5635,1.5967,0.8808,-0.7851,-0.2224,
3.735691,-0.1372,-0.8791,-0.2093,1.5070,-0.5635,1.5967,0.8808,-0.7851,-0.2224,
3.737057,-0.1372,-0.8791,-0.2093,1.5070,-0.5635,1.5967,0.6698,-0.6977,-0.0051,
3.738426,-0.1372,-0.8791,-0.2093,0.0957,0.9480,0.0520,0.6698,-0.6977,-0.0051,
3.771023,-0.1372,-0.8791,-0.2093,0.0957,0.9480,0.0520,-0.0535,-0.1992,0.1782,
3.772868,-0.1372,-0.8791,-0.2093,-0.3735,1.8987,-0.8123,-0.0535,-0.1992,0.1782,
3.811765,-0.1372,-0.8791,-0.2093,-0.3735,1.8987,-0.8123,-0.6681,0.6541,0.1963,
3.814071,-0.1372,-0.8791,-0.2093,-0.3199,1.8302,-0.5135,-0.6681,0.6541,0.1963,
3.815498,-0.1135,-0.8295,-0.2135,-0.3199,1.8302,-0.5135,-0.6681,0.6541,0.1963,
3.816594,-0.1843,-0.7481,-0.1189,-0.3199,1.8302,-0.5135,-0.6681,0.6541,0.1963,
3.817831,-0.2982,-0.7090,-0.0083,-0.3199,1.8302,-0.5135,-0.6681,0.6541,0.1963,
3.819079,-0.4303,-0.7547,0.0396,-0.3199,1.8302,-0.5135,-0.6681,0.6541,0.1963,
3.820432,-0.5708,-0.8923,0.0362,-0.3199,1.8302,-0.5135,-0.6681,0.6541,0.1963,
3.850660,-0.5708,-0.8923,0.0362,-0.3199,1.8302,-0.5135,-0.6926,1.3678,0.0173,
3.852823,-0.5708,-0.8923,0.0362,-3.1606,2.0840,1.7748,-0.6926,1.3678,0.0173,
3.890184,-0.5708,-0.8923,0.0362,-3.1606,2.0840,1.7748,-0.5968,2.0581,0.0333,
3.892741,-0.5708,-0.8923,0.0362,-5.1553,-2.1872,-0.6791,-0.5968,2.0581,0.0333,
3.894149,-0.7057,-1.1016,-0.0794,-5.1553,-2.1872,-0.6791,-0.5968,2.0581,0.0333,
3.895458,-0.6724,-1.2614,-0.2914,-5.1553,-2.1872,-0.6791,-0.5968,2.0581,0.0333,
3.896681,-0.5195,-1.2990,-0.4126,-5.1553,-2.1872,-0.6791,-0.5968,2.0581,0.0333,
3.897761,-0.5649,-1.2946,-0.3835,-5.1553,-2.1872,-0.6791,-0.5968,2.0581,0.0333,
3.931609,-0.5649,-1.2946,-0.3835,-5.1553,-2.1872,-0.6791,-0.6703,2.0293,0.0003,
3.934046,-0.5649,-1.2946,-0.3835,-5.2312,-2.2043,-0.3367,-0.6703,2.0293,0.0003,
3.969667,-0.5649,-1.2946,-0.3835,-5.2312,-2.2043,-0.3367,-0.9046,0.8639,0.5233,
3.971844,-0.5649,-1.2946,-0.3835,-5.0817,-2.7568,-2.3226,-0.9046,0.8639,0.5233,
3.973591,-0.7460,-1.3178,-0.5120,-5.0817,-2.7568,-2.3226,-0.9046,0.8639,0.5233,
3.975260,-0.6040,-1.2001,-0.6246,-5.0817,-2.7568,-2.3226,-0.9046,0.8639,0.5233,
3.976732,-0.1538,-0.9443,-0.4822,-5.0817,-2.7568,-2.3226,-0.9046,0.8639,0.5233,
3.977856,0.0409,-0.7603,-0.4297,-5.0817,-2.7568,-2.3226,-0.9046,0.8639,0.5233,
4.008907,0.0409,-0.7603,-0.4297,-5.0817,-2.7568,-2.3226,-1.0921,0.6839,0.4860,
4.011525,0.0409,-0.7603,-0.4297,-4.8906,-2.8563,-1.8415,-1.0921,0.6839,0.4860,
4.048748,0.0148,-0.6658,-0.4409,-4.8906,-2.8563,-1.8415,-1.0921,0.6839,0.4860,
4.051534,0.0947,-0.6321,-0.1189,-4.8906,-2.8563,-1.8415,-1.0921,0.6839,0.4860,
4.052703,0.0622,-0.7137,-0.0112,-4.8906,-2.8563,-1.8415,-1.0921,0.6839,0.4860,
4.053869,0.0622,-0.7137,-0.0112,-4.8906,-2.8563,-1.8415,-0.5169,1.7247,-0.0136,
4.055166,0.0622,-0.7137,-0.0112,0.8009,1.7585,-0.9955,-0.5169,1.7247,-0.0136,
4.088660,0.0622,-0.7137,-0.0112,0.8009,1.7585,-0.9955,0.2405,1.2613,-0.2277,
4.091208,0.0622,-0.7137,-0.0112,1.2822,2.5406,1.8069,0.2405,1.2613,-0.2277,
4.129097,0.0622,-0.7137,-0.0112,1.2822,2.5406,1.8069,0.2448,-0.3345,0.1877,
4.131708,0.0622,-0.7137,-0.0112,1.3730,2.5232,1.6742,0.2448,-0.3345,0.1877,
4.133168,-0.0221,-0.7848,-0.3430,1.3730,2.5232,1.6742,0.2448,-0.3345,0.1877,
4.134154,-0.2144,-0.8182,-0.5118,1.3730,2.5232,1.6742,0.2448,-0.3345,0.1877,
4.135432,-0.4377,-0.7564,-0.4524,1.3730,2.5232,1.6742,0.2448,-0.3345,0.1877,
4.136961,-0.3250,-0.6428,-0.2726,1.3730,2.5232,1.6742,0.2448,-0.3345,0.1877,
4.138120,-0.2139,-0.6196,-0.1832,1.3730,2.5232,1.6742,0.2448,-0.3345,0.1877,
4.167681,-0.2139,-0.6196,-0.1832,1.3730,2.5232,1.6742,0.4493,-0.6818,0.5627,
4.170128,-0.2139,-0.6196,-0.1832,-1.9300,2.2327,-1.0019,0.4493,-0.6818,0.5627,
4.207105,-0.2139,-0.6196,-0.1832,-1.9300,2.2327,-1.0019,0.9117,-0.3004,0.4381,
4.210058,-0.2139,-0.6196,-0.1832,-1.0155,2.8442,0.7961,0.9117,-0.3004,0.4381,
4.211397,-0.2549,-0.6712,-0.1854,-1.0155,2.8442,0.7961,0.9117,-0.3004,0.4381,
4.212406,-0.2947,-0.7491,-0.2035,-1.0155,2.8442,0.7961,0.9117,-0.3004,0.4381,
4.213857,-0.2588,-0.7816,-0.2333,-1.0155,2.8442,0.7961,0.9117,-0.3004,0.4381,
4.214978,-0.2019,-0.7936,-0.3217,-1.0155,2.8442,0.7961,0.9117,-0.3004,0.4381,
4.247207,-0.2019,-0.7936,-0.3217,-0.8767,2.8940,0.3238,0.9117,-0.3004,0.4381,
4.250122,-0.2019,-0.7936,-0.3217,-0.8767,2.8940,0.3238,1.1705,-0.3803,0.2304,
4.286721,-0.2019,-0.7936,-0.3217,-0.8767,2.8940,0.3238,0.3066,-1.0706,0.1782,
4.288860,-0.2019,-0.7936,-0.3217,-0.6138,1.5480,-1.4442,0.3066,-1.0706,0.1782,
4.290776,-0.2730,-0.8730,-0.5081,-0.6138,1.5480,-1.4442,0.3066,-1.0706,0.1782,
4.291746,-0.4083,-1.0989,-1.1052,-0.6138,1.5480,-1.4442,0.3066,-1.0706,0.1782,
4.293456,-0.1301,-1.3459,-1.1795,-0.6138,1.5480,-1.4442,0.3066,-1.0706,0.1782,
4.294757,-0.0055,-1.2399,-0.1590,-0.6138,1.5480,-1.4442,0.3066,-1.0706,0.1782,
4.326059,-0.0055,-1.2399,-0.1590,-0.6138,1.5480,-1.4442,-0.3922,0.1204,-0.1137,
4.328539,-0.0055,-1.2399,-0.1590,-0.0465,-2.4746,-5.7009,-0.3922,0.1204,-0.1137,
4.366762,-0.0055,-1.2399,-0.1590,-0.0465,-2.4746,-5.7009,0.1542,-0.2546,0.0908,
4.369611,-0.0055,-1.2399,-0.1590,-1.6399,-1.0590,0.3117,0.1542,-0.2546,0.0908,
4.370988,-0.4528,-1.0733,-0.1658,-1.6399,-1.0590,0.3117,0.1542,-0.2546,0.0908,
4.372273,-0.4814,-0.9936,-0.1311,-1.6399,-1.0590,0.3117,0.1542,-0.2546,0.0908,
4.373674,-0.1235,-1.1923,-0.2812,-1.6399,-1.0590,0.3117,0.1542,-0.2546,0.0908,
4.374839,0.4814,-1.5079,0.0115,-1.6399,-1.0590,0.3117,0.1542,-0.2546,0.0908,
4.405417,0.4814,-1.5079,0.0115,-1.6399,-1.0590,0.3117,0.1468,-0.1289,0.2378,
4.407757,0.4814,-1.5079,0.0115,-1.5128,-1.0463,0.2423,0.1468,-0.1289,0.2378,
4.445326,0.4814,-1.5079,0.0115,-1.5128,-1.0463,0.2423,0.6357,-1.0205,-0.3214,
4.447987,0.4814,-1.5079,0.0115,7.0851,-2.9861,2.3185,0.6357,-1.0205,-0.3214,
4.450006,0.9226,-1.2521,0.3492,7.0851,-2.9861,2.3185,0.6357,-1.0205,-0.3214,
4.451720,0.2203,-1.1312,-0.1930,7.0851,-2.9861,2.3185,0.6357,-1.0205,-0.3214,
4.452910,-0.0929,-1.0718,-0.0271,7.0851,-2.9861,2.3185,0.6357,-1.0205,-0.3214,
4.454165,0.0402,-0.9704,0.2004,7.0851,-2.9861,2.3185,0.6357,-1.0205,-0.3214,
4.486302,0.0402,-0.9704,0.2004,7.0851,-2.9861,2.3185,0.9756,-1.3252,-0.0700,
4.488859,0.0402,-0.9704,0.2004,7.0199,-2.8731,1.8161,0.9756,-1.3252,-0.0700,
4.524520,0.0402,-0.9704,0.2004,7.0199,-2.8731,1.8161,1.1662,-1.0780,0.0429,
4.527327,0.0402,-0.9704,0.2004,1.5245,-0.1106,1.6814,1.1662,-1.0780,0.0429,
4.530198,-0.0157,-1.0171,0.1242,1.5245,-0.1106,1.6814,1.1662,-1.0780,0.0429,
4.531539,-0.0666,-1.0354,-0.0886,1.5245,-0.1106,1.6814,1.1662,-1.0780,0.0429,
4.532677,-0.0302,-0.9648,-0.2912,1.5245,-0.1106,1.6814,1.1662,-1.0780,0.0429,
4.534014,0.0702,-0.8998,-0.3654,1.5245,-0.1106,1.6814,1.1662,-1.0780,0.0429,
4.563837,0.0702,-0.8998,-0.3654,1.5245,-0.1106,1.6814,0.3726,-0.7574,0.1569,
4.566376,0.0702,-0.8998,-0.3654,1.7118,0.4010,-1.8921,0.3726,-0.7574,0.1569,
4.603511,0.0702,-0.8998,-0.3654,1.7118,0.4010,-1.8921,-0.4924,-0.8980,0.1835,
4.606151,0.0702,-0.8998,-0.3654,2.4083,1.0642,-2.6320,-0.4924,-0.8980,0.1835,
4.608277,0.1093,-0.8517,-0.2902,2.4083,1.0642,-2.6320,-0.4924,-0.8980,0.1835,
4.609969,0.0534,-0.8896,-0.3234,2.4083,1.0642,-2.6320,-0.4924,-0.8980,0.1835,
4.611007,0.0082,-0.9426,-0.4106,2.4083,1.0642,-2.6320,-0.4924,-0.8980,0.1835,
4.612220,0.0720,-0.9272,-0.5084,2.4083,1.0642,-2.6320,-0.4924,-0.8980,0.1835,
4.643305,0.0720,-0.9272,-0.5084,2.4083,1.0642,-2.6320,-1.6599,-1.1696,0.3380,
4.645461,0.0720,-0.9272,-0.5084,2.5412,0.9569,-2.0429,-1.6599,-1.1696,0.3380,
4.683340,0.0720,-0.9272,-0.5084,2.5412,0.9569,-2.0429,-3.6765,-0.9981,-0.2266,
4.685907,0.0720,-0.9272,-0.5084,4.2471,-0.1314,-4.4693,-3.6765,-0.9981,-0.2266,
4.687289,0.2242,-0.9497,-0.7321,4.2471,-0.1314,-4.4693,-3.6765,-0.9981,-0.2266,
4.688280,0.4225,-1.0589,-0.9537,4.2471,-0.1314,-4.4693,-3.6765,-0.9981,-0.2266,
4.690088,0.2984,-1.2003,-0.9674,4.2471,-0.1314,-4.4693,-3.6765,-0.9981,-0.2266,
4.691387,-0.0451,-1.3733,-0.1143,4.2471,-0.1314,-4.4693,-3.6765,-0.9981,-0.2266,
4.722153,-0.0451,-1.3733,-0.1143,4.2471,-0.1314,-4.4693,-4.6064,-1.5531,-0.9766,
4.725022,-0.0451,-1.3733,-0.1143,4.0398,-0.6865,-2.8545,-4.6064,-1.5531,-0.9766,
4.762131,-0.0451,-1.3733,-0.1143,4.0398,-0.6865,-2.8545,-2.4876,-1.0280,-1.3015,
4.765173,-0.0451,-1.3733,-0.1143,2.1910,-4.8719,3.7831,-2.4876,-1.0280,-1.3015,
4.766552,-0.0114,-1.5512,0.6958,2.1910,-4.8719,3.7831,-2.4876,-1.0280,-1.3015,
4.767922,0.3043,-1.3459,0.6343,2.1910,-4.8719,3.7831,-2.4876,-1.0280,-1.3015,
4.769036,0.3886,-1.1937,-0.0048,2.1910,-4.8719,3.7831,-2.4876,-1.0280,-1.3015,
4.770337,0.4357,-1.3618,-0.5787,2.1910,-4.8719,3.7831,-2.4876,-1.0280,-1.3015,
4.801990,0.4357,-1.3618,-0.5787,2.1910,-4.8719,3.7831,-1.2785,-0.0554,-2.2261,
4.805047,0.4357,-1.3618,-0.5787,4.2755,-4.2445,5.5420,-1.2785,-0.0554,-2.2261,
4.841381,0.4357,-1.3618,-0.5787,4.2755,-4.2445,5.5420,-0.8599,-0.5806,-3.0421,
4.843956,0.4027,-1.4038,-0.7373,4.2755,-4.2445,5.5420,-0.8599,-0.5806,-3.0421,
4.845272,0.3182,-1.2717,-0.0058,4.2755,-4.2445,5.5420,-0.8599,-0.5806,-3.0421,
4.846598,0.0087,-1.2555,0.1943,4.2755,-4.2445,5.5420,-0.8599,-0.5806,-3.0421,
4.847862,-0.4098,-1.1849,-0.0368,4.2755,-4.2445,5.5420,-0.8599,-0.5806,-3.0421,
4.849000,-0.4098,-1.1849,-0.0368,2.0515,-4.4373,3.8039,-0.8599,-0.5806,-3.0421,
4.880916,-0.4098,-1.1849,-0.0368,1.5120,-4.3211,3.6224,-0.8599,-0.5806,-3.0421,
4.883633,-0.4098,-1.1849,-0.0368,1.5120,-4.3211,3.6224,0.4813,-1.5787,-2.5873,
4.920570,-0.4098,-1.1849,-0.0368,1.5120,-4.3211,3.6224,0.8829,-1.4733,-1.4027,
4.923611,-0.4098,-1.1849,-0.0368,-6.4412,0.1200,4.6708,0.8829,-1.4733,-1.4027,
4.925117,-0.6519,-0.9326,-0.0530,-6.4412,0.1200,4.6708,0.8829,-1.4733,-1.4027,
4.926529,-0.6258,-0.4936,-0.0395,-6.4412,0.1200,4.6708,0.8829,-1.4733,-1.4027,
4.927628,-0.5036,-0.1642,0.0179,-6.4412,0.1200,4.6708,0.8829,-1.4733,-1.4027,
4.928892,-0.3705,-0.1327,0.1618,-6.4412,0.1200,4.6708,0.8829,-1.4733,-1.4027,
4.960392,-0.3705,-0.1327,0.1618,-6.4412,0.1200,4.6708,1.5199,0.3153,-0.4642,
4.962848,-0.3705,-0.1327,0.1618,-6.5481,0.3858,4.0588,1.5199,0.3153,-0.4642,
4.999878,-0.3705,-0.1327,0.1618,-6.5481,0.3858,4.0588,2.0312,0.8309,-0.3822,
5.002790,-0.3705,-0.1327,0.1618,-5.0879,7.2325,4.4663,2.0312,0.8309,-0.3822,
5.004241,-0.3096,-0.2764,0.0746,-5.0879,7.2325,4.4663,2.0312,0.8309,-0.3822,
5.005390,-0.2364,-0.4857,-0.2127,-5.0879,7.2325,4.4663,2.0312,0.8309,-0.3822,
5.007138,0.2750,-0.6704,-0.5580,-5.0879,7.2325,4.4663,2.0312,0.8309,-0.3822,
5.008625,0.6620,-0.9612,-0.5624,-5.0879,7.2325,4.4663,2.0312,0.8309,-0.3822,
5.039983,0.6620,-0.9612,-0.5624,-5.0879,7.2325,4.4663,1.4986,0.8181,-1.3452,
5.042115,0.6620,-0.9612,-0.5624,0.4620,2.2674,-1.2904,1.4986,0.8181,-1.3452,
5.079703,0.6620,-0.9612,-0.5624,0.4620,2.2674,-1.2904,-0.3123,-0.1022,-0.7444,
5.082369,0.2310,-1.3489,-0.8484,0.4620,2.2674,-1.2904,-0.3123,-0.1022,-0.7444,
5.083881,-0.2640,-1.6169,-0.9525,0.4620,2.2674,-1.2904,-0.3123,-0.1022,-0.7444,
5.085165,-1.1342,-1.8565,-0.7932,0.4620,2.2674,-1.2904,-0.3123,-0.1022,-0.7444,
5.086802,-1.6240,-1.7749,-0.4590,0.4620,2.2674,-1.2904,-0.3123,-0.1022,-0.7444,
5.088084,-1.6240,-1.7749,-0.4590,-5.7984,-6.5544,-5.2003,-0.3123,-0.1022,-0.7444,
5.118543,-1.6240,-1.7749,-0.4590,-5.7984,-6.5544,-5.2003,-1.5608,-0.3537,0.6906,
5.121076,-1.6240,-1.7749,-0.4590,-5.4080,-6.6130,-4.5340,-1.5608,-0.3537,0.6906,
5.158069,-1.6240,-1.7749,-0.4590,-5.4080,-6.6130,-4.5340,0.1606,2.6270,0.6075,
5.160775,-1.6240,-1.7749,-0.4590,-11.7037,0.2055,4.6756,0.1606,2.6270,0.6075,
5.162689,-1.0985,-0.7139,0.3853,-11.7037,0.2055,4.6756,0.1606,2.6270,0.6075,
5.164033,-0.3766,-0.2644,0.3941,-11.7037,0.2055,4.6756,0.1606,2.6270,0.6075,
5.165454,0.2564,-1.1104,-0.1263,-11.7037,0.2055,4.6756,0.1606,2.6270,0.6075,
5.167397,0.8584,-2.1893,-0.1526,-11.7037,0.2055,4.6756,0.1606,2.6270,0.6075,
5.198508,0.8584,-2.1893,-0.1526,-11.7037,0.2055,4.6756,0.7103,2.5183,0.2613,
5.201988,0.8584,-2.1893,-0.1526,-11.7515,0.3133,4.1750,0.7103,2.5183,0.2613,
5.238366,0.8584,-2.1893,-0.1526,-11.7515,0.3133,4.1750,0.7242,0.6967,-0.2224,
5.241042,0.8584,-2.1893,-0.1526,5.3763,-8.7205,0.8602,0.7242,0.6967,-0.2224,
5.242373,1.1081,-2.2855,-0.3146,5.3763,-8.7205,0.8602,0.7242,0.6967,-0.2224,
5.243623,0.5335,-1.3958,-0.2772,5.3763,-8.7205,0.8602,0.7242,0.6967,-0.2224,
5.245224,-0.1162,-0.9739,-0.1776,5.3763,-8.7205,0.8602,0.7242,0.6967,-0.2224,
5.246550,-0.3759,-0.9189,-0.2882,5.3763,-8.7205,0.8602,0.7242,0.6967,-0.2224,
5.277550,-0.3759,-0.9189,-0.2882,-1.6280,-1.0804,0.0010,0.7242,0.6967,-0.2224,
5.280367,-0.3759,-0.9189,-0.2882,-1.6280,-1.0804,0.0010,0.8658,0.5721,0.4040,
5.305255,-0.4562,-0.9756,-0.4453,-1.6280,-1.0804,0.0010,0.8658,0.5721,0.4040,
5.308464,-0.4939,-1.0601,-0.4566,-1.6280,-1.0804,0.0010,0.8658,0.5721,0.4040,
5.310279,-0.5117,-1.0987,-0.4282,-1.6280,-1.0804,0.0010,0.8658,0.5721,0.4040,
5.316906,-0.5117,-1.0987,-0.4282,-6.0403,-0.4715,-2.0206,0.8658,0.5721,0.4040,
5.319647,-0.5117,-1.0987,-0.4282,-6.0403,-0.4715,-2.0206,0.3076,0.3079,1.1017,
5.356700,-0.5117,-1.0987,-0.4282,-6.0403,-0.4715,-2.0206,-0.3091,1.2315,1.1614,
5.359403,-0.5117,-1.0987,-0.4282,-3.6193,0.3547,-2.3779,-0.3091,1.2315,1.1614,
5.393500,-0.4775,-1.0386,-0.4905,-3.6193,0.3547,-2.3779,-0.3091,1.2315,1.1614,
5.395926,-0.3172,-0.9387,-0.5313,-3.6193,0.3547,-2.3779,-0.3091,1.2315,1.1614,
5.397898,-0.0475,-0.9089,-0.4507,-3.6193,0.3547,-2.3779,-0.3091,1.2315,1.1614,
5.399370,0.1340,-0.9289,-0.5247,-3.6193,0.3547,-2.3779,-0.3091,1.2315,1.1614,
5.400658,0.1340,-0.9289,-0.5247,-3.6193,0.3547,-2.3779,-1.3457,2.5971,1.0751,
5.401721,0.1340,-0.9289,-0.5247,-3.4180,0.2424,-1.9055,-1.3457,2.5971,1.0751,
5.436990,0.1340,-0.9289,-0.5247,-3.4180,0.2424,-1.9055,-2.6676,2.3532,1.0986,
5.439602,0.1340,-0.9289,-0.5247,2.0684,0.5880,-0.9897,-2.6676,2.3532,1.0986,
5.475416,0.1340,-0.9289,-0.5247,2.0684,0.5880,-0.9897,-2.3459,0.9673,0.9878,
5.477946,0.1340,-0.9289,-0.5247,2.2279,0.2060,-0.1569,-2.3459,0.9673,0.9878,
5.479944,0.2564,-0.9250,-0.4842,2.2279,0.2060,-0.1569,-2.3459,0.9673,0.9878,
5.481035,0.4257,-0.8221,-0.4790,2.2279,0.2060,-0.1569,-2.3459,0.9673,0.9878,
5.482152,0.4374,-0.7860,-0.5426,2.2279,0.2060,-0.1569,-2.3459,0.9673,0.9878,
5.483631,0.1054,-1.0283,-0.2621,2.2279,0.2060,-0.1569,-2.3459,0.9673,0.9878,
5.484749,-0.2500,-1.0865,-0.2342,2.2279,0.2060,-0.1569,-2.3459,0.9673,0.9878,
5.515160,-0.2500,-1.0865,-0.2342,2.2279,0.2060,-0.1569,-0.9419,-0.5912,1.6834,
5.517855,-0.2500,-1.0865,-0.2342,1.2045,-0.6913,1.6130,-0.9419,-0.5912,1.6834,
5.555203,-0.2500,-1.0865,-0.2342,1.2045,-0.6913,1.6130,-0.3017,-1.0067,2.4227,
5.557886,-0.2500,-1.0865,-0.2342,0.0034,2.5622,1.7644,-0.3017,-1.0067,2.4227,
5.559674,-0.1428,-0.6812,-0.4571,0.0034,2.5622,1.7644,-0.3017,-1.0067,2.4227,
5.560946,-0.1245,-0.5307,-0.3351,0.0034,2.5622,1.7644,-0.3017,-1.0067,2.4227,
5.562164,-0.1254,-0.6387,-0.2137,0.0034,2.5622,1.7644,-0.3017,-1.0067,2.4227,
5.563620,-0.0929,-0.7427,-0.1270,0.0034,2.5622,1.7644,-0.3017,-1.0067,2.4227,
5.593932,-0.0929,-0.7427,-0.1270,0.9348,2.4970,1.4400,-0.3017,-1.0067,2.4227,
5.595994,-0.0929,-0.7427,-0.1270,0.9348,2.4970,1.4400,0.7252,-0.7702,2.3396,
5.633807,-0.0929,-0.7427,-0.1270,0.9348,2.4970,1.4400,1.7117,-0.3963,1.5098,
5.636305,-0.0605,-0.7359,-0.0830,0.9348,2.4970,1.4400,1.7117,-0.3963,1.5098,
5.637506,-0.1020,-0.7398,-0.1387,0.9348,2.4970,1.4400,1.7117,-0.3963,1.5098,
5.638818,-0.1452,-0.7100,-0.2125,0.9348,2.4970,1.4400,1.7117,-0.3963,1.5098,
5.640206,-0.1306,-0.5698,-0.1602,0.9348,2.4970,1.4400,1.7117,-0.3963,1.5098,
5.641554,-0.1306,-0.5698,-0.1602,1.9354,1.4200,2.9141,1.7117,-0.3963,1.5098,
5.674388,-0.1306,-0.5698,-0.1602,1.9354,1.4200,2.9141,2.1399,-0.7063,0.7481,
5.677484,-0.1306,-0.5698,-0.1602,2.2580,1.6144,2.0520,2.1399,-0.7063,0.7481,
5.705398,-0.0951,-0.4063,-0.2535,2.2580,1.6144,2.0520,2.1399,-0.7063,0.7481,
5.708784,-0.1535,-0.4838,-0.7080,2.2580,1.6144,2.0520,2.1399,-0.7063,0.7481,
5.710598,-0.3739,-0.9568,-0.7803,2.2580,1.6144,2.0520,2.1399,-0.7063,0.7481,
5.721014,-0.3739,-0.9568,-0.7803,2.2580,1.6144,2.0520,1.6744,-0.8416,0.1462,
5.723892,-0.3739,-0.9568,-0.7803,1.9924,3.4654,0.4380,1.6744,-0.8416,0.1462,
5.752198,-0.3739,-0.9568,-0.7803,1.9924,3.4654,0.4380,0.1798,-0.9278,0.2357,
5.753966,-0.3739,-0.9568,-0.7803,1.3040,-1.3758,-4.9502,0.1798,-0.9278,0.2357,
5.791321,-0.3739,-0.9568,-0.7803,1.3040,-1.3758,-4.9502,-0.0023,-1.3891,-0.4003,
5.793989,-0.3739,-0.9568,-0.7803,1.2654,-1.3006,-5.0486,-0.0023,-1.3891,-0.4003,
5.794949,-0.0995,-1.7307,-0.7566,1.2654,-1.3006,-5.0486,-0.0023,-1.3891,-0.4003,
5.796125,0.1135,-2.3031,-0.7551,1.2654,-1.3006,-5.0486,-0.0023,-1.3891,-0.4003,
5.796979,0.0197,-1.5619,-0.2010,1.2654,-1.3006,-5.0486,-0.0023,-1.3891,-0.4003,
5.797796,-0.0805,-0.7633,-0.2049,1.2654,-1.3006,-5.0486,-0.0023,-1.3891,-0.4003,
5.798722,0.3910,-0.6445,-0.0193,1.2654,-1.3006,-5.0486,-0.0023,-1.3891,-0.4003,
5.831889,0.3910,-0.6445,-0.0193,1.2654,-1.3006,-5.0486,0.7881,-0.5720,-0.5792,
5.834310,0.3910,-0.6445,-0.0193,3.2697,-5.8219,-1.8366,0.7881,-0.5720,-0.5792,
5.871797,0.3910,-0.6445,-0.0193,3.2697,-5.8219,-1.8366,1.7862,-0.4229,-0.8072,
5.874449,0.3910,-0.6445,-0.0193,6.8240,0.9287,4.2160,1.7862,-0.4229,-0.8072,
5.875947,0.7602,-0.7339,0.4916,6.8240,0.9287,4.2160,1.7862,-0.4229,-0.8072,
5.877264,0.1086,-1.2421,0.4606,6.8240,0.9287,4.2160,1.7862,-0.4229,-0.8072,
5.878510,-0.4015,-2.0283,-0.3188,6.8240,0.9287,4.2160,1.7862,-0.4229,-0.8072,
5.880010,0.1084,-1.6916,-1.1279,6.8240,0.9287,4.2160,1.7862,-0.4229,-0.8072,
5.910741,0.1084,-1.6916,-1.1279,6.8240,0.9287,4.2160,1.1396,-0.5039,-0.1627,
5.912578,0.1084,-1.6916,-1.1279,6.6677,0.9715,3.6702,1.1396,-0.5039,-0.1627,
5.950490,0.1084,-1.6916,-1.1279,6.6677,0.9715,3.6702,0.0285,-0.9055,0.0834,
5.953116,0.1084,-1.6916,-1.1279,2.0799,-6.1197,-6.5223,0.0285,-0.9055,0.0834,
5.954477,0.1438,-1.1009,-0.7429,2.0799,-6.1197,-6.5223,0.0285,-0.9055,0.0834,
5.955714,0.0619,-0.9169,-0.1431,2.0799,-6.1197,-6.5223,0.0285,-0.9055,0.0834,
5.957078,0.2215,-0.9206,-0.3002,2.0799,-6.1197,-6.5223,0.0285,-0.9055,0.0834,
5.958300,0.2794,-0.9724,-0.4009,2.0799,-6.1197,-6.5223,0.0285,-0.9055,0.0834,
5.990136,0.2794,-0.9724,-0.4009,2.0799,-6.1197,-6.5223,-0.4657,-1.2964,0.0376,
5.992732,0.2794,-0.9724,-0.4009,4.3793,0.4262,-2.0483,-0.4657,-1.2964,0.0376,
6.029809,0.1926,-0.9897,-0.4935,4.3793,0.4262,-2.0483,-0.4657,-1.2964,0.0376,
6.032266,0.1538,-0.9287,-0.9283,4.3793,0.4262,-2.0483,-0.4657,-1.2964,0.0376,
6.033760,0.2386,-0.8739,-0.9833,4.3793,0.4262,-2.0483,-0.4657,-1.2964,0.0376,
6.035047,0.2386,-0.8739,-0.9833,4.3793,0.4262,-2.0483,-2.1936,-1.2080,-0.2362,
6.036231,0.2386,-0.8739,-0.9833,4.3370,0.4086,-6.3288,-2.1936,-1.2080,-0.2362,
6.070116,0.2386,-0.8739,-0.9833,4.3370,0.4086,-6.3288,-4.3625,-1.6021,-0.6496,
6.072858,0.2386,-0.8739,-0.9833,1.5495,-0.6603,4.3952,-4.3625,-1.6021,-0.6496,
6.109776,0.2386,-0.8739,-0.9833,1.5495,-0.6603,4.3952,-3.7830,-2.1071,-1.0661,
6.112643,0.2386,-0.8739,-0.9833,1.4423,-1.0740,5.4639,-3.7830,-2.1071,-1.0661,
6.113805,-0.0201,-0.8590,-0.5528,1.4423,-1.0740,5.4639,-3.7830,-2.1071,-1.0661,
6.114887,-0.2481,-1.0132,0.2018,1.4423,-1.0740,5.4639,-3.7830,-2.1071,-1.0661,
6.116162,0.0385,-1.1495,0.8009,1.4423,-1.0740,5.4639,-3.7830,-2.1071,-1.0661,
6.117155,0.2452,-1.4095,0.9343,1.4423,-1.0740,5.4639,-3.7830,-2.1071,-1.0661,
6.118128,0.0053,-1.7078,-0.0046,1.4423,-1.0740,5.4639,-3.7830,-2.1071,-1.0661,
6.149454,0.0053,-1.7078,-0.0046,1.4423,-1.0740,5.4639,-1.4863,0.1939,-1.7478,
6.152002,0.0053,-1.7078,-0.0046,0.7887,-1.1721,5.8881,-1.4863,0.1939,-1.7478,
6.189370,0.0053,-1.7078,-0.0046,0.7887,-1.1721,5.8881,-1.3307,1.2357,-2.3625,
6.191790,0.0053,-1.7078,-0.0046,1.1950,-6.8371,5.1698,-1.3307,1.2357,-2.3625,
6.193918,-0.0316,-1.6284,-0.8269,1.1950,-6.8371,5.1698,-1.3307,1.2357,-2.3625,
6.195259,-0.0434,-1.1336,-0.6232,1.1950,-6.8371,5.1698,-1.3307,1.2357,-2.3625,
6.196567,0.1045,-0.8942,0.3362,1.1950,-6.8371,5.1698,-1.3307,1.2357,-2.3625,
6.197778,-0.0263,-0.8480,0.2746,1.1950,-6.8371,5.1698,-1.3307,1.2357,-2.3625,
6.228493,-0.0263,-0.8480,0.2746,1.1950,-6.8371,5.1698,-0.0364,-0.3036,-1.9502,
6.230719,-0.0263,-0.8480,0.2746,-0.0157,-0.7129,4.7277,-0.0364,-0.3036,-1.9502,
6.268005,-0.3045,-0.6521,0.0645,-0.0157,-0.7129,4.7277,-0.0364,-0.3036,-1.9502,
6.271275,-0.4772,-0.3184,0.2964,-0.0157,-0.7129,4.7277,-0.0364,-0.3036,-1.9502,
6.272733,-0.4477,0.0486,0.6697,-0.0157,-0.7129,4.7277,-0.0364,-0.3036,-1.9502,
6.273937,-0.4477,0.0486,0.6697,-0.0157,-0.7129,4.7277,1.3026,-0.4996,-0.3971,
6.275160,-0.4477,0.0486,0.6697,-4.1223,5.8033,7.5565,1.3026,-0.4996,-0.3971,
6.308054,-0.4477,0.0486,0.6697,-4.1223,5.8033,7.5565,2.6587,1.0727,0.2314,
6.310522,-0.4477,0.0486,0.6697,-4.8567,7.6781,1.7957,2.6587,1.0727,0.2314,
6.347069,-0.4477,0.0486,0.6697,-4.8567,7.6781,1.7957,2.9079,2.4182,-0.3033,
6.348986,-0.4477,0.0486,0.6697,-5.1324,7.8482,0.6933,2.9079,2.4182,-0.3033,
6.350220,-0.4555,0.1758,0.4865,-5.1324,7.8482,0.6933,2.9079,2.4182,-0.3033,
6.350985,-0.5833,0.0535,-0.3217,-5.1324,7.8482,0.6933,2.9079,2.4182,-0.3033,
6.351794,-0.4189,-0.6577,-0.5956,-5.1324,7.8482,0.6933,2.9079,2.4182,-0.3033,
6.353405,0.5786,-2.5316,-0.3271,-5.1324,7.8482,0.6933,2.9079,2.4182,-0.3033,
6.354327,0.2882,-3.3397,-0.7185,-5.1324,7.8482,0.6933,2.9079,2.4182,-0.3033,
6.386593,0.2882,-3.3397,-0.7185,-5.1324,7.8482,0.6933,1.3750,1.8376,-0.1936,
6.388548,0.2882,-3.3397,-0.7185,-5.2459,7.8122,0.1492,1.3750,1.8376,-0.1936,
6.425705,0.2882,-3.3397,-0.7185,-5.2459,7.8122,0.1492,-0.9334,-0.9704,-0.1840,
6.427658,0.2882,-3.3397,-0.7185,3.0135,-16.0345,-6.7454,-0.9334,-0.9704,-0.1840,
6.429260,0.2195,-1.9196,-1.6407,3.0135,-16.0345,-6.7454,-0.9334,-0.9704,-0.1840,
6.430375,-0.4496,-0.9807,-0.4351,3.0135,-16.0345,-6.7454,-0.9334,-0.9704,-0.1840,
6.431463,-0.8168,-0.8395,0.4403,3.0135,-16.0345,-6.7454,-0.9334,-0.9704,-0.1840,
6.432416,-0.9705,-0.8534,0.6027,3.0135,-16.0345,-6.7454,-0.9334,-0.9704,-0.1840,
6.465726,-0.9705,-0.8534,0.6027,-7.8098,0.6829,3.8608,-0.9334,-0.9704,-0.1840,
6.468084,-0.9705,-0.8534,0.6027,-7.8098,0.6829,3.8608,0.0882,2.4309,0.2527,
6.505096,-0.9695,-0.8998,0.2700,-7.8098,0.6829,3.8608,0.0882,2.4309,0.2527,
6.506938,-0.5989,-1.1371,-0.4089,-7.8098,0.6829,3.8608,0.0882,2.4309,0.2527,
6.508501,-0.0482,-1.3975,-0.1710,-7.8098,0.6829,3.8608,0.0882,2.4309,0.2527,
6.509455,-0.0482,-1.3975,-0.1710,-7.8098,0.6829,3.8608,0.4514,3.7380,1.3191,
6.510728,-0.0482,-1.3975,-0.1710,-5.4587,-1.7209,0.6226,0.4514,3.7380,1.3191,
6.546419,-0.0482,-1.3975,-0.1710,-5.4587,-1.7209,0.6226,0.3577,3.4003,1.3191,
6.548516,-0.0482,-1.3975,-0.1710,4.4941,-0.6099,3.3851,0.3577,3.4003,1.3191,
6.585044,-0.0482,-1.3975,-0.1710,4.4941,-0.6099,3.3851,1.0821,2.9678,0.5830,
6.587593,-0.0482,-1.3975,-0.1710,4.4899,-0.5493,2.9354,1.0821,2.9678,0.5830,
6.588926,0.3646,-1.3239,0.3355,4.4899,-0.5493,2.9354,1.0821,2.9678,0.5830,
6.590223,0.4956,-0.9956,0.2976,4.4899,-0.5493,2.9354,1.0821,2.9678,0.5830,
6.591484,0.5054,-0.7853,-0.0368,4.4899,-0.5493,2.9354,1.0821,2.9678,0.5830,
6.592764,0.5532,-0.7598,-0.4138,4.4899,-0.5493,2.9354,1.0821,2.9678,0.5830,
6.593821,0.6854,-0.8803,-0.5983,4.4899,-0.5493,2.9354,1.0821,2.9678,0.5830,
6.624881,0.6854,-0.8803,-0.5983,4.4899,-0.5493,2.9354,0.7891,2.1774,0.1313,
6.627136,0.6854,-0.8803,-0.5983,4.3930,-0.5145,2.5934,0.7891,2.1774,0.1313,
6.664481,0.6854,-0.8803,-0.5983,4.3930,-0.5145,2.5934,0.1042,0.5753,-0.1510,
6.667198,0.6854,-0.8803,-0.5983,6.2058,0.7445,-4.1110,0.1042,0.5753,-0.1510,
6.668537,0.7360,-1.0760,-0.4527,6.2058,0.7445,-4.1110,0.1042,0.5753,-0.1510,
6.669934,0.5386,-1.1436,-0.2579,6.2058,0.7445,-4.1110,0.1042,0.5753,-0.1510,
6.671200,0.3346,-1.0542,-0.2406,6.2058,0.7445,-4.1110,0.1042,0.5753,-0.1510,
6.672535,0.0710,-1.0298,-0.2631,6.2058,0.7445,-4.1110,0.1042,0.5753,-0.1510,
6.704464,0.0710,-1.0298,-0.2631,6.2058,0.7445,-4.1110,-0.2697,-1.1665,-0.2277,
6.706857,0.0710,-1.0298,-0.2631,2.7402,-0.9213,-1.6702,-0.2697,-1.1665,-0.2277,
6.743632,0.0710,-1.0298,-0.2631,2.7402,-0.9213,-1.6702,0.0051,-0.9577,0.1153,
6.745618,0.0710,-1.0298,-0.2631,-4.3395,-0.0373,0.4409,0.0051,-0.9577,0.1153,
6.747097,-0.3074,-1.0213,-0.0982,-4.3395,-0.0373,0.4409,0.0051,-0.9577,0.1153,
6.747903,-0.4777,-0.9827,0.0157,-4.3395,-0.0373,0.4409,0.0051,-0.9577,0.1153,
6.749094,-0.4836,-0.9538,-0.0337,-4.3395,-0.0373,0.4409,0.0051,-0.9577,0.1153,
6.750408,-0.2798,-0.9379,-0.0962,-4.3395,-0.0373,0.4409,0.0051,-0.9577,0.1153,
6.782444,-0.2798,-0.9379,-0.0962,-4.3395,-0.0373,0.4409,0.0733,-0.9225,0.5638,
6.783976,-0.2798,-0.9379,-0.0962,-4.0267,-0.0328,0.4093,0.0733,-0.9225,0.5638,
6.821809,-0.2798,-0.9379,-0.0962,-4.0267,-0.0328,0.4093,0.0179,-0.9630,0.3252,
6.823911,-0.2798,-0.9379,-0.0962,0.4217,-0.1675,0.1197,0.0179,-0.9630,0.3252,
6.825062,0.0392,-1.0183,-0.0994,0.4217,-0.1675,0.1197,0.0179,-0.9630,0.3252,
6.826204,0.2887,-1.0430,-0.0041,0.4217,-0.1675,0.1197,0.0179,-0.9630,0.3252,
6.827184,0.3175,-0.9729,0.1168,0.4217,-0.1675,0.1197,0.0179,-0.9630,0.3252,
6.828288,0.1216,-0.9089,0.0360,0.4217,-0.1675,0.1197,0.0179,-0.9630,0.3252,
6.861750,0.1216,-0.9089,0.0360,0.4217,-0.1675,0.1197,0.1042,-0.2269,-0.2703,
6.863531,0.1216,-0.9089,0.0360,0.3200,-0.1594,0.0763,0.1042,-0.2269,-0.2703,
6.901951,0.1216,-0.9089,0.0360,0.3200,-0.1594,0.0763,-0.1483,0.4283,-0.0700,
6.903744,0.1216,-0.9089,0.0360,1.0354,0.5652,1.0644,-0.1483,0.4283,-0.0700,
6.904912,-0.1545,-0.8915,-0.0625,1.0354,0.5652,1.0644,-0.1483,0.4283,-0.0700,
6.906196,-0.3292,-0.8820,-0.1346,1.0354,0.5652,1.0644,-0.1483,0.4283,-0.0700,
6.907428,-0.3485,-0.8309,-0.1624,1.0354,0.5652,1.0644,-0.1483,0.4283,-0.0700,
6.908655,-0.2312,-0.8085,-0.1881,1.0354,0.5652,1.0644,-0.1483,0.4283,-0.0700,
6.941113,-0.2312,-0.8085,-0.1881,1.0354,0.5652,1.0644,-0.7885,1.2762,0.2399,
6.942896,-0.2312,-0.8085,-0.1881,-2.7713,1.3353,-0.4998,-0.7885,1.2762,0.2399,
6.981504,-0.2312,-0.8085,-0.1881,-2.7713,1.3353,-0.4998,-0.8152,2.1497,-0.1148,
6.984778,-0.2312,-0.8085,-0.1881,-1.6386,0.3824,1.5067,-0.8152,2.1497,-0.1148,
6.985981,-0.0832,-0.8945,-0.1514,-1.6386,0.3824,1.5067,-0.8152,2.1497,-0.1148,
6.987287,-0.1399,-0.9687,0.0474,-1.6386,0.3824,1.5067,-0.8152,2.1497,-0.1148,
6.989398,-0.3016,-0.9357,0.1430,-1.6386,0.3824,1.5067,-0.8152,2.1497,-0.1148,
6.990424,-0.3675,-0.9194,-0.0364,-1.6386,0.3824,1.5067,-0.8152,2.1497,-0.1148,
7.021078,-0.3675,-0.9194,-0.0364,-1.6386,0.3824,1.5067,-0.1994,2.0475,-0.0402,
7.023333,-0.3675,-0.9194,-0.0364,-1.7408,0.3651,1.5561,-0.1994,2.0475,-0.0402,
7.060380,-0.3675,-0.9194,-0.0364,-1.7408,0.3651,1.5561,0.1340,2.3702,0.0450,
7.062190,-0.3675,-0.9194,-0.0364,-3.0332,0.3689,0.2489,0.1340,2.3702,0.0450,
7.063652,-0.2872,-0.9316,-0.1294,-3.0332,0.3689,0.2489,0.1340,2.3702,0.0450,
7.064899,-0.2459,-0.9472,-0.1761,-3.0332,0.3689,0.2489,0.1340,2.3702,0.0450,
7.066077,-0.3175,-1.0142,-0.1380,-3.0332,0.3689,0.2489,0.1340,2.3702,0.0450,
7.067183,-0.2320,-0.9978,0.0819,-3.0332,0.3689,0.2489,0.1340,2.3702,0.0450,
7.099527,-0.2320,-0.9978,0.0819,-3.0332,0.3689,0.2489,0.8637,2.9284,-0.1851,
7.101420,-0.2320,-0.9978,0.0819,-3.1897,0.4013,-0.0982,0.8637,2.9284,-0.1851,
7.139804,-0.1855,-0.9687,0.2448,-3.1897,0.4013,-0.0982,0.8637,2.9284,-0.1851,
7.142202,-0.3380,-1.0156,0.2001,-3.1897,0.4013,-0.0982,0.8637,2.9284,-0.1851,
7.143868,-0.5105,-1.2130,-0.4998,-3.1897,0.4013,-0.0982,0.8637,2.9284,-0.1851,
7.145355,-0.5105,-1.2130,-0.4998,-3.1897,0.4013,-0.0982,1.1449,3.3897,-0.0402,
7.147827,-0.5105,-1.2130,-0.4998,-2.7232,-0.1572,1.1395,1.1449,3.3897,-0.0402,
7.178400,-0.5105,-1.2130,-0.4998,-2.7232,-0.1572,1.1395,-0.3091,3.8776,0.5265,
7.180241,-0.5105,-1.2130,-0.4998,-3.8718,-2.7579,-3.3826,-0.3091,3.8776,0.5265,
7.218055,-0.5105,-1.2130,-0.4998,-3.8718,-2.7579,-3.3826,-0.0993,4.1109,0.3497,
7.219532,-0.5105,-1.2130,-0.4998,-3.7836,-2.7129,-3.3077,-0.0993,4.1109,0.3497,
7.220227,-0.2952,-1.5621,-0.9364,-3.7836,-2.7129,-3.3077,-0.0993,4.1109,0.3497,
7.220867,0.0805,-1.1419,-0.0671,-3.7836,-2.7129,-3.3077,-0.0993,4.1109,0.3497,
7.221426,0.1555,-0.6355,0.3868,-3.7836,-2.7129,-3.3077,-0.0993,4.1109,0.3497,
7.221961,0.3075,-0.7542,0.4869,-3.7836,-2.7129,-3.3077,-0.0993,4.1109,0.3497,
7.222775,0.3050,-1.0508,0.4945,-3.7836,-2.7129,-3.3077,-0.0993,4.1109,0.3497,
7.258433,0.3050,-1.0508,0.4945,-3.7836,-2.7129,-3.3077,0.8030,3.1202,0.6831,
7.260919,0.3050,-1.0508,0.4945,1.8821,1.3940,3.0091,0.8030,3.1202,0.6831,
7.298589,0.3050,-1.0508,0.4945,1.8821,1.3940,3.0091,1.6488,1.4520,0.4413,
7.301570,0.3050,-1.0508,0.4945,6.1490,-3.4632,2.2007,1.6488,1.4520,0.4413,
7.303209,0.4985,-1.3447,0.4339,6.1490,-3.4632,2.2007,1.6488,1.4520,0.4413,
7.304494,1.0289,-1.6413,-0.1676,6.1490,-3.4632,2.2007,1.6488,1.4520,0.4413,
7.305739,0.9175,-1.3728,-0.7150,6.1490,-3.4632,2.2007,1.6488,1.4520,0.4413,
7.307031,0.3470,-1.0743,-0.4363,6.1490,-3.4632,2.2007,1.6488,1.4520,0.4413,
7.337499,0.3470,-1.0743,-0.4363,6.1490,-3.4632,2.2007,1.0672,0.7702,-0.5824,
7.340136,0.3470,-1.0743,-0.4363,5.8405,-3.4244,1.7634,1.0672,0.7702,-0.5824,
7.377858,-0.0375,-1.0855,-0.1629,5.8405,-3.4244,1.7634,1.0672,0.7702,-0.5824,
7.380278,-0.2588,-1.1275,-0.3112,5.8405,-3.4244,1.7634,1.0672,0.7702,-0.5824,
7.381711,-0.3170,-1.0051,-0.4822,5.8405,-3.4244,1.7634,1.0672,0.7702,-0.5824,
7.383354,-0.3170,-1.0051,-0.4822,5.8405,-3.4244,1.7634,0.8328,1.1910,-0.2288,
7.384393,-0.3170,-1.0051,-0.4822,3.7535,-1.7779,-5.2568,0.8328,1.1910,-0.2288,
7.418207,-0.3170,-1.0051,-0.4822,3.7535,-1.7779,-5.2568,0.5196,1.0163,0.8663,
7.420678,-0.3170,-1.0051,-0.4822,-1.9771,-0.1363,-5.4006,0.5196,1.0163,0.8663,
7.457426,-0.3170,-1.0051,-0.4822,-1.9771,-0.1363,-5.4006,-0.5893,0.3920,0.9792,
7.460665,-0.3170,-1.0051,-0.4822,-1.5563,-0.1256,-5.0821,-0.5893,0.3920,0.9792,
7.462027,-0.0773,-0.8920,-0.5301,-1.5563,-0.1256,-5.0821,-0.5893,0.3920,0.9792,
7.463612,0.2493,-0.8141,-0.4612,-1.5563,-0.1256,-5.0821,-0.5893,0.3920,0.9792,
7.465145,0.5151,-0.7342,-0.4622,-1.5563,-0.1256,-5.0821,-0.5893,0.3920,0.9792,
7.466399,0.4440,-0.8805,-0.6283,-1.5563,-0.1256,-5.0821,-0.5893,0.3920,0.9792,
7.467516,0.1174,-1.1776,-0.7395,-1.5563,-0.1256,-5.0821,-0.5893,0.3920,0.9792,
7.496798,0.1174,-1.1776,-0.7395,-1.5563,-0.1256,-5.0821,-2.8061,-1.7971,0.8855,
7.499386,0.1174,-1.1776,-0.7395,4.7724,1.7913,-4.7165,-2.8061,-1.7971,0.8855,
7.536704,0.1174,-1.1776,-0.7395,4.7724,1.7913,-4.7165,-4.1920,-2.1806,0.7396,
7.539011,0.1174,-1.1776,-0.7395,2.5375,-2.2687,-1.3002,-4.1920,-2.1806,0.7396,
7.540494,0.0087,-1.2985,-0.2611,2.5375,-2.2687,-1.3002,-4.1920,-2.1806,0.7396,
7.541476,0.2960,-1.1417,0.0247,2.5375,-2.2687,-1.3002,-4.1920,-2.1806,0.7396,
7.542631,0.2931,-1.2103,0.1974,2.5375,-2.2687,-1.3002,-4.1920,-2.1806,0.7396,
7.543953,0.1511,-1.6269,0.6181,2.5375,-2.2687,-1.3002,-4.1920,-2.1806,0.7396,
7.575088,0.1511,-1.6269,0.6181,2.5375,-2.2687,-1.3002,-3.0501,0.2780,-0.3790,
7.577880,0.1511,-1.6269,0.6181,2.3211,-2.5069,-0.1481,-3.0501,0.2780,-0.3790,
7.615602,0.4115,-1.7222,0.4835,2.3211,-2.5069,-0.1481,-3.0501,0.2780,-0.3790,
7.618371,0.6153,-1.4698,0.3653,2.3211,-2.5069,-0.1481,-3.0501,0.2780,-0.3790,
7.619808,0.5794,-1.2949,0.6216,2.3211,-2.5069,-0.1481,-3.0501,0.2780,-0.3790,
7.621077,0.5794,-1.2949,0.6216,2.3211,-2.5069,-0.1481,-1.5022,-1.3412,-1.3015,
7.622232,0.5794,-1.2949,0.6216,3.3859,-5.6430,7.6619,-1.5022,-1.3412,-1.3015,
7.655392,0.5794,-1.2949,0.6216,5.6587,-3.7862,7.8871,-1.5022,-1.3412,-1.3015,
7.668252,0.5794,-1.2949,0.6216,5.6587,-3.7862,7.8871,-0.1813,-2.5662,-1.3707,
7.694331,0.5794,-1.2949,0.6216,5.6587,-3.7862,7.8871,0.1660,-4.5540,-0.7294,
7.697851,0.5794,-1.2949,0.6216,5.8740,-3.6898,7.6110,0.1660,-4.5540,-0.7294,
7.699474,0.4318,-1.2467,0.4173,5.8740,-3.6898,7.6110,0.1660,-4.5540,-0.7294,
7.700751,0.2019,-1.1715,0.1205,5.8740,-3.6898,7.6110,0.1660,-4.5540,-0.7294,
7.701870,-0.0392,-1.0557,0.2143,5.8740,-3.6898,7.6110,0.1660,-4.5540,-0.7294,
7.703331,-0.1489,-0.8612,0.4381,5.8740,-3.6898,7.6110,0.1660,-4.5540,-0.7294,
7.704319,-0.0607,-0.6010,0.5490,5.8740,-3.6898,7.6110,0.1660,-4.5540,-0.7294,
7.734467,-0.0607,-0.6010,0.5490,5.8740,-3.6898,7.6110,0.0413,-5.5479,-0.3566,
7.736909,-0.0607,-0.6010,0.5490,1.0992,-0.6482,5.2666,0.0413,-5.5479,-0.3566,
7.773775,-0.0607,-0.6010,0.5490,1.0992,-0.6482,5.2666,0.3726,-5.3252,-0.2937,
7.776410,-0.0607,-0.6010,0.5490,1.8607,4.8389,8.7967,0.3726,-5.3252,-0.2937,
7.777705,0.0082,-0.4349,0.6387,1.8607,4.8389,8.7967,0.3726,-5.3252,-0.2937,
7.778849,0.1777,-0.3636,0.8365,1.8607,4.8389,8.7967,0.3726,-5.3252,-0.2937,
7.780232,0.2628,-0.4789,0.6731,1.8607,4.8389,8.7967,0.3726,-5.3252,-0.2937,
7.781520,0.2271,-0.6748,0.3154,1.8607,4.8389,8.7967,0.3726,-5.3252,-0.2937,
7.813643,0.2271,-0.6748,0.3154,1.8607,4.8389,8.7967,0.8030,-4.8896,-0.9169,
7.816270,0.2271,-0.6748,0.3154,1.8543,4.8704,8.0686,0.8030,-4.8896,-0.9169,
7.854032,0.2271,-0.6748,0.3154,1.8543,4.8704,8.0686,0.5676,-5.1559,-1.0437,
7.856764,0.2271,-0.6748,0.3154,2.8913,2.4435,4.6064,0.5676,-5.1559,-1.0437,
7.858141,0.0131,-1.0020,0.1515,2.8913,2.4435,4.6064,0.5676,-5.1559,-1.0437,
7.859420,-0.7416,-1.5695,-0.2653,2.8913,2.4435,4.6064,0.5676,-5.1559,-1.0437,
7.860700,-1.1720,-1.6425,-0.2621,2.8913,2.4435,4.6064,0.5676,-5.1559,-1.0437,
7.861813,-0.7841,-1.2812,0.2204,2.8913,2.4435,4.6064,0.5676,-5.1559,-1.0437,
7.892442,-0.7841,-1.2812,0.2204,2.8913,2.4435,4.6064,-0.2868,-2.1316,-0.0083,
7.895033,-0.7841,-1.2812,0.2204,-7.3711,-5.1151,-0.1164,-0.2868,-2.1316,-0.0083,
7.932339,-0.7841,-1.2812,0.2204,-7.3711,-5.1151,-0.1164,0.2288,-1.5627,0.2059,
7.935152,-0.7841,-1.2812,0.2204,-0.6082,-2.7302,0.5464,0.2288,-1.5627,0.2059,
7.936583,-0.5285,-1.2199,0.1141,-0.6082,-2.7302,0.5464,0.2288,-1.5627,0.2059,
7.937736,-0.2163,-1.2775,-0.1184,-0.6082,-2.7302,0.5464,0.2288,-1.5627,0.2059,
7.939013,0.0749,-1.2783,-0.0420,-0.6082,-2.7302,0.5464,0.2288,-1.5627,0.2059,
7.940283,-0.1162,-1.3459,0.1146,-0.6082,-2.7302,0.5464,0.2288,-1.5627,0.2059,
7.971493,-0.1162,-1.3459,0.1146,-0.6082,-2.7302,0.5464,0.2842,-1.0706,-0.0573,
7.974783,-0.1162,-1.3459,0.1146,-0.5939,-2.6744,0.3644,0.2842,-1.0706,-0.0573,
8.012315,-0.1162,-1.3459,0.1146,-0.5939,-2.6744,0.3644,0.1425,-0.4634,-0.0296,
8.015095,-0.2068,-1.2489,0.0853,-0.5939,-2.6744,0.3644,0.1425,-0.4634,-0.0296,
8.016626,-0.2166,-1.1050,0.0103,-0.5939,-2.6744,0.3644,0.1425,-0.4634,-0.0296,
8.017902,-0.2684,-0.9941,-0.0403,-0.5939,-2.6744,0.3644,0.1425,-0.4634,-0.0296,
8.019720,-0.1716,-0.7606,-0.0158,-0.5939,-2.6744,0.3644,0.1425,-0.4634,-0.0296,
8.021039,-0.1716,-0.7606,-0.0158,-0.1675,-2.3821,1.0999,0.1425,-0.4634,-0.0296,
8.051210,-0.1716,-0.7606,-0.0158,-0.1675,-2.3821,1.0999,-0.3699,-0.0458,0.4764,
8.053206,-0.1716,-0.7606,-0.0158,0.0157,-2.3807,1.2184,-0.3699,-0.0458,0.4764,
8.092074,0.1228,-0.5392,0.0052,0.0157,-2.3807,1.2184,-0.3699,-0.0458,0.4764,
8.095135,0.3544,-0.4760,0.0804,0.0157,-2.3807,1.2184,-0.3699,-0.0458,0.4764,
8.096586,0.3099,-0.5055,0.2241,0.0157,-2.3807,1.2184,-0.3699,-0.0458,0.4764,
8.097869,0.3099,-0.5055,0.2241,0.0157,-2.3807,1.2184,-0.8279,0.6647,0.4935,
8.099282,0.3099,-0.5055,0.2241,0.8969,2.1164,0.7201,-0.8279,0.6647,0.4935,
8.131026,0.3099,-0.5055,0.2241,0.8969,2.1164,0.7201,-0.7470,2.5140,-0.5302,
8.133977,0.3099,-0.5055,0.2241,3.2792,4.3573,3.5190,-0.7470,2.5140,-0.5302,
8.170748,0.3099,-0.5055,0.2241,3.2792,4.3573,3.5190,-1.0431,4.0981,-0.2607,
8.173956,0.3099,-0.5055,0.2241,2.8709,4.2340,4.0677,-1.0431,4.0981,-0.2607,
8.175257,-0.1386,-0.6052,0.3777,2.8709,4.2340,4.0677,-1.0431,4.0981,-0.2607,
8.176763,-0.7504,-0.7818,0.2693,2.8709,4.2340,4.0677,-1.0431,4.0981,-0.2607,
8.178095,-1.3690,-1.0525,-0.2760,2.8709,4.2340,4.0677,-1.0431,4.0981,-0.2607,
8.179414,-1.4542,-1.3535,-0.9024,2.8709,4.2340,4.0677,-1.0431,4.0981,-0.2607,
8.180726,-0.7272,-1.3880,-0.3293,2.8709,4.2340,4.0677,-1.0431,4.0981,-0.2607,
8.209479,-0.7272,-1.3880,-0.3293,2.8709,4.2340,4.0677,-1.7835,4.0374,0.5712,
8.211463,-0.7272,-1.3880,-0.3293,-10.4886,-1.1606,-0.2955,-1.7835,4.0374,0.5712,
8.249337,-0.7272,-1.3880,-0.3293,-10.4886,-1.1606,-0.2955,-0.7044,3.2405,0.5126,
8.252369,-0.7272,-1.3880,-0.3293,-1.7355,-3.3008,-0.3229,-0.7044,3.2405,0.5126,
8.254006,-0.1755,-1.2309,-0.0430,-1.7355,-3.3008,-0.3229,-0.7044,3.2405,0.5126,
8.255305,0.0566,-1.2101,-0.6686,-1.7355,-3.3008,-0.3229,-0.7044,3.2405,0.5126,
8.256840,0.3111,-1.1307,-0.7155,-1.7355,-3.3008,-0.3229,-0.7044,3.2405,0.5126,
8.257934,0.0414,-0.7855,-0.1651,-1.7355,-3.3008,-0.3229,-0.7044,3.2405,0.5126,
8.290237,0.0414,-0.7855,-0.1651,-1.7355,-3.3008,-0.3229,0.0552,2.4927,0.8663,
8.293132,0.0414,-0.7855,-0.1651,-1.7016,-3.2730,-0.2388,0.0552,2.4927,0.8663,
8.329325,0.0414,-0.7855,-0.1651,-1.7016,-3.2730,-0.2388,1.1641,2.9093,0.9153,
8.331730,0.0414,-0.7855,-0.1651,0.9855,1.4881,0.0097,1.1641,2.9093,0.9153,
8.333158,-0.3668,-0.4784,0.0098,0.9855,1.4881,0.0097,1.1641,2.9093,0.9153,
8.334408,-0.6028,-0.4623,-0.0105,0.9855,1.4881,0.0097,1.1641,2.9093,0.9153,
8.335656,-0.5427,-0.6010,0.0628,0.9855,1.4881,0.0097,1.1641,2.9093,0.9153,
8.336689,-0.0438,-0.6453,0.1821,0.9855,1.4881,0.0097,1.1641,2.9093,0.9153,
8.367474,-0.0438,-0.6453,0.1821,0.9855,1.4881,0.0097,2.1559,3.9234,0.6661,
8.368981,-0.0438,-0.6453,0.1821,-2.9508,3.8546,2.9164,2.1559,3.9234,0.6661,
8.409179,-0.0438,-0.6453,0.1821,-2.9508,3.8546,2.9164,3.0145,4.7159,0.2112,
8.411419,-0.0438,-0.6453,0.1821,2.8371,3.6381,1.7777,3.0145,4.7159,0.2112,
8.412804,0.2632,-0.6484,0.2622,2.8371,3.6381,1.7777,3.0145,4.7159,0.2112,
8.414169,0.2166,-0.6350,0.0907,2.8371,3.6381,1.7777,3.0145,4.7159,0.2112,
8.415496,0.1887,-0.5312,-0.1558,2.8371,3.6381,1.7777,3.0145,4.7159,0.2112,
8.416608,-0.0866,-0.9858,-0.5716,2.8371,3.6381,1.7777,3.0145,4.7159,0.2112,
8.447123,-0.0866,-0.9858,-0.5716,2.8371,3.6381,1.7777,2.1175,4.6275,0.2549,
8.448709,-0.0866,-0.9858,-0.5716,2.7478,3.6362,1.0674,2.1175,4.6275,0.2549,
8.487472,-0.4186,-2.1021,-0.3586,2.7478,3.6362,1.0674,2.1175,4.6275,0.2549,
8.490593,-0.3277,-2.4136,-0.0911,2.7478,3.6362,1.0674,2.1175,4.6275,0.2549,
8.492912,0.3522,-1.5687,-0.6667,2.7478,3.6362,1.0674,2.1175,4.6275,0.2549,
8.494056,0.3522,-1.5687,-0.6667,2.7478,3.6362,1.0674,0.6539,3.1021,0.9867,
8.495355,0.3522,-1.5687,-0.6667,-1.7902,-8.2870,-3.0241,0.6539,3.1021,0.9867,
8.527254,0.3522,-1.5687,-0.6667,-1.7902,-8.2870,-3.0241,0.1926,1.3167,1.1294,
8.529581,0.3522,-1.5687,-0.6667,6.8413,-1.0648,-2.4765,0.1926,1.3167,1.1294,
8.566449,0.3522,-1.5687,-0.6667,6.8413,-1.0648,-2.4765,0.9979,0.5753,0.7896,
8.568575,0.3522,-1.5687,-0.6667,7.0186,-1.0830,-2.7793,0.9979,0.5753,0.7896,
8.572028,0.6458,-0.8656,-0.4527,7.0186,-1.0830,-2.7793,0.9979,0.5753,0.7896,
8.573492,0.7191,-0.8468,0.2580,7.0186,-1.0830,-2.7793,0.9979,0.5753,0.7896,
8.574600,0.6659,-1.2521,0.2270,7.0186,-1.0830,-2.7793,0.9979,0.5753,0.7896,
8.575727,0.7914,-1.7547,-0.2396,7.0186,-1.0830,-2.7793,0.9979,0.5753,0.7896,
8.577044,0.8066,-1.6440,-0.7238,7.0186,-1.0830,-2.7793,0.9979,0.5753,0.7896,
8.606809,0.8066,-1.6440,-0.7238,7.0186,-1.0830,-2.7793,1.3218,-1.0226,0.0216,
8.608869,0.8066,-1.6440,-0.7238,8.6540,-5.4779,-2.8852,1.3218,-1.0226,0.0216,
8.646112,0.8066,-1.6440,-0.7238,8.6540,-5.4779,-2.8852,0.3407,-1.4424,-0.6005,
8.648619,0.8066,-1.6440,-0.7238,3.7692,1.5986,-5.3585,0.3407,-1.4424,-0.6005,
8.650113,0.5948,-1.0679,-0.7732,3.7692,1.5986,-5.3585,0.3407,-1.4424,-0.6005,
8.651405,0.3084,-0.7418,-0.4812,3.7692,1.5986,-5.3585,0.3407,-1.4424,-0.6005,
8.652813,-0.0336,-0.6724,-0.2069,3.7692,1.5986,-5.3585,0.3407,-1.4424,-0.6005,
8.654010,-0.3507,-0.7129,-0.2179,3.7692,1.5986,-5.3585,0.3407,-1.4424,-0.6005,
8.685112,-0.3507,-0.7129,-0.2179,3.7692,1.5986,-5.3585,0.3279,-0.5944,-0.0168,
8.686825,-0.3507,-0.7129,-0.2179,3.6851,1.5641,-5.4140,0.3279,-0.5944,-0.0168,
8.725659,-0.3507,-0.7129,-0.2179,3.6851,1.5641,-5.4140,0.1905,-1.1387,1.0613,
8.727787,-0.3507,-0.7129,-0.2179,-1.2204,2.7899,-4.3087,0.1905,-1.1387,1.0613,
8.729300,-0.3578,-0.7034,-0.4600,-1.2204,2.7899,-4.3087,0.1905,-1.1387,1.0613,
8.730426,-0.0443,-0.6611,-0.4312,-1.2204,2.7899,-4.3087,0.1905,-1.1387,1.0613,
8.731688,0.2122,-0.6846,-0.3740,-1.2204,2.7899,-4.3087,0.1905,-1.1387,1.0613,
8.733051,0.4120,-0.8158,-0.4341,-1.2204,2.7899,-4.3087,0.1905,-1.1387,1.0613,
8.763612,0.4120,-0.8158,-0.4341,-1.2204,2.7899,-4.3087,-0.8855,-1.2293,0.7917,
8.765427,0.4120,-0.8158,-0.4341,-0.9326,2.7202,-3.9730,-0.8855,-1.2293,0.7917,
8.803677,0.4504,-1.2003,-0.3791,-0.9326,2.7202,-3.9730,-0.8855,-1.2293,0.7917,
8.805436,0.4479,-1.5064,-0.4119,-0.9326,2.7202,-3.9730,-0.8855,-1.2293,0.7917,
8.806844,0.5703,-1.6083,-0.5091,-0.9326,2.7202,-3.9730,-0.8855,-1.2293,0.7917,
8.808112,0.5703,-1.6083,-0.5091,-0.9326,2.7202,-3.9730,-3.0032,-3.1681,0.3646,
8.809414,0.5703,-1.6083,-0.5091,5.1010,0.6370,-3.2463,-3.0032,-3.1681,0.3646,
8.843179,0.5703,-1.6083,-0.5091,5.1010,0.6370,-3.2463,-4.5180,-3.1883,-0.3268,
8.845025,0.5703,-1.6083,-0.5091,6.2823,-6.8966,-1.1820,-4.5180,-3.1883,-0.3268,
8.882355,0.5703,-1.6083,-0.5091,6.2823,-6.8966,-1.1820,-3.1864,-0.4431,-0.9063,
8.884543,0.5703,-1.6083,-0.5091,5.8900,-7.0650,-0.0455,-3.1864,-0.4431,-0.9063,
8.885988,0.4362,-1.8595,-0.0913,5.8900,-7.0650,-0.0455,-3.1864,-0.4431,-0.9063,
8.887296,0.0483,-1.8062,0.5441,5.8900,-7.0650,-0.0455,-3.1864,-0.4431,-0.9063,
8.888385,-0.4853,-1.5790,0.7408,5.8900,-7.0650,-0.0455,-3.1864,-0.4431,-0.9063,
8.889758,-0.4472,-1.2976,0.5167,5.8900,-7.0650,-0.0455,-3.1864,-0.4431,-0.9063,
8.890731,-0.0666,-0.9604,0.3746,5.8900,-7.0650,-0.0455,-3.1864,-0.4431,-0.9063,
8.922320,-0.0666,-0.9604,0.3746,5.8900,-7.0650,-0.0455,-1.3414,-2.4895,-0.6485,
8.924398,-0.0666,-0.9604,0.3746,-1.6075,-6.1631,9.3569,-1.3414,-2.4895,-0.6485,
8.962071,-0.0666,-0.9604,0.3746,-1.6075,-6.1631,9.3569,-0.3560,-4.8054,-0.6527,
8.964085,-0.0666,-0.9604,0.3746,3.6013,-0.1094,5.1526,-0.3560,-4.8054,-0.6527,
8.966340,0.1521,-0.8627,0.3655,3.6013,-0.1094,5.1526,-0.3560,-4.8054,-0.6527,
8.967577,0.5154,-1.0037,-0.1517,3.6013,-0.1094,5.1526,-0.3560,-4.8054,-0.6527,
8.968960,0.7067,-1.0173,-0.0647,3.6013,-0.1094,5.1526,-0.3560,-4.8054,-0.6527,
8.970392,0.3598,-0.8705,0.4439,3.6013,-0.1094,5.1526,-0.3560,-4.8054,-0.6527,
9.002268,0.3598,-0.8705,0.4439,3.6013,-0.1094,5.1526,0.0339,-3.4451,-1.6232,
9.004488,0.3598,-0.8705,0.4439,3.3803,-0.0029,4.8385,0.0339,-3.4451,-1.6232,
9.041535,0.3598,-0.8705,0.4439,3.3803,-0.0029,4.8385,0.5249,-2.5662,-1.5039,
9.043964,0.3598,-0.8705,0.4439,3.8743,0.5745,5.4770,0.5249,-2.5662,-1.5039,
9.045282,-0.2109,-0.8002,0.5326,3.8743,0.5745,5.4770,0.5249,-2.5662,-1.5039,
9.046452,-0.5745,-0.8329,0.4085,3.8743,0.5745,5.4770,0.5249,-2.5662,-1.5039,
9.047406,-0.8139,-0.9199,0.1085,3.8743,0.5745,5.4770,0.5249,-2.5662,-1.5039,
9.048556,-1.1420,-0.9724,-0.4321,3.8743,0.5745,5.4770,0.5249,-2.5662,-1.5039,
9.080810,-1.1420,-0.9724,-0.4321,3.8743,0.5745,5.4770,-0.3326,-3.4301,-0.2778,
9.082801,-1.1420,-0.9724,-0.4321,-6.8388,0.4254,2.6959,-0.3326,-3.4301,-0.2778,
9.122735,-1.1420,-0.9724,-0.4321,-6.8388,0.4254,2.6959,-1.4021,-0.1758,0.7001,
9.125128,-1.1420,-0.9724,-0.4321,-8.5698,1.1840,1.4334,-1.4021,-0.1758,0.7001,
9.126812,-1.4315,-0.8622,-0.5731,-8.5698,1.1840,1.4334,-1.4021,-0.1758,0.7001,
9.127816,-1.1173,-0.7425,0.0455,-8.5698,1.1840,1.4334,-1.4021,-0.1758,0.7001,
9.128939,-0.6382,-0.8234,0.0787,-8.5698,1.1840,1.4334,-1.4021,-0.1758,0.7001,
9.130460,-0.0372,-0.9621,0.1987,-8.5698,1.1840,1.4334,-1.4021,-0.1758,0.7001,
9.161070,-0.0372,-0.9621,0.1987,-8.5698,1.1840,1.4334,-0.8418,0.4272,0.5031,
9.163647,-0.0372,-0.9621,0.1987,-8.3016,1.0264,1.7383,-0.8418,0.4272,0.5031,
9.200784,-0.0372,-0.9621,0.1987,-8.3016,1.0264,1.7383,-0.2793,0.4815,-0.0413,
9.203485,-0.0372,-0.9621,0.1987,3.7432,-1.6520,4.0408,-0.2793,0.4815,-0.0413,
9.205486,0.3527,-1.1458,0.1635,3.7432,-1.6520,4.0408,-0.2793,0.4815,-0.0413,
9.207238,0.2278,-1.1385,-0.1277,3.7432,-1.6520,4.0408,-0.2793,0.4815,-0.0413,
9.208637,-0.1347,-1.0340,-0.3105,3.7432,-1.6520,4.0408,-0.2793,0.4815,-0.0413,
9.210076,-0.2635,-0.9585,-0.0710,3.7432,-1.6520,4.0408,-0.2793,0.4815,-0.0413,
9.239020,-0.2635,-0.9585,-0.0710,3.7432,-1.6520,4.0408,0.1457,-0.1278,0.1622,
9.241473,-0.2635,-0.9585,-0.0710,3.7536,-1.6187,3.9125,0.1457,-0.1278,0.1622,
9.278295,-0.2635,-0.9585,-0.0710,3.7536,-1.6187,3.9125,0.8552,-0.7276,0.4221,
9.280568,-0.2635,-0.9585,-0.0710,0.3464,-0.2153,2.0198,0.8552,-0.7276,0.4221,
9.283133,-0.1721,-0.8456,0.1591,0.3464,-0.2153,2.0198,0.8552,-0.7276,0.4221,
9.284417,-0.1469,-0.7506,0.1356,0.3464,-0.2153,2.0198,0.8552,-0.7276,0.4221,
9.285308,-0.2449,-0.6787,0.0802,0.3464,-0.2153,2.0198,0.8552,-0.7276,0.4221,
9.286513,-0.3084,-0.6716,0.0152,0.3464,-0.2153,2.0198,0.8552,-0.7276,0.4221,
9.317897,-0.3084,-0.6716,0.0152,0.3464,-0.2153,2.0198,1.5199,-0.8511,0.4019,
9.319311,-0.3084,-0.6716,0.0152,0.1470,2.2636,2.8256,1.5199,-0.8511,0.4019,
9.359613,-0.3084,-0.6716,0.0152,-0.3549,0.8174,0.6400,1.5199,-0.8511,0.4019,
9.361516,-0.3084,-0.6716,0.0152,-0.3549,0.8174,0.6400,1.7937,-0.6732,0.4211,
9.362533,-0.3155,-0.7376,-0.0051,-0.3549,0.8174,0.6400,1.7937,-0.6732,0.4211,
9.363355,-0.3404,-0.8385,-0.0698,-0.3549,0.8174,0.6400,1.7937,-0.6732,0.4211,
9.364263,-0.2608,-0.9875,-0.1397,-0.3549,0.8174,0.6400,1.7937,-0.6732,0.4211,
9.365084,-0.1501,-1.1121,-0.0481,-0.3549,0.8174,0.6400,1.7937,-0.6732,0.4211,
9.398248,-0.1501,-1.1121,-0.0481,-0.3549,0.8174,0.6400,1.6445,0.2056,0.2282,
9.400848,-0.1501,-1.1121,-0.0481,-0.2737,0.8468,0.0603,1.6445,0.2056,0.2282,
9.437605,-0.1122,-1.2976,-0.0266,-0.2737,0.8468,0.0603,1.6445,0.2056,0.2282,
9.439425,-0.2657,-1.5045,-0.1470,-0.2737,0.8468,0.0603,1.6445,0.2056,0.2282,
9.441010,-0.6566,-1.4446,-0.3469,-0.2737,0.8468,0.0603,1.6445,0.2056,0.2282,
9.442356,-0.6566,-1.4446,-0.3469,-0.2737,0.8468,0.0603,1.6563,0.8160,-0.3033,
9.443555,-0.6566,-1.4446,-0.3469,0.8552,-3.4421,-0.4761,1.6563,0.8160,-0.3033,
9.477855,-0.6566,-1.4446,-0.3469,0.8552,-3.4421,-0.4761,0.5889,0.8245,0.2059,
9.481244,-0.6566,-1.4446,-0.3469,-3.5669,-1.6926,-2.3725,0.5889,0.8245,0.2059,
9.517796,-0.6566,-1.4446,-0.3469,-3.5669,-1.6926,-2.3725,0.3961,0.3867,1.0623,
9.520569,-0.7765,-1.0745,-0.3745,-3.5669,-1.6926,-2.3725,0.3961,0.3867,1.0623,
9.521858,-0.4890,-0.8629,-0.0525,-3.5669,-1.6926,-2.3725,0.3961,0.3867,1.0623,
9.523072,-0.1259,-0.8793,0.1701,-3.5669,-1.6926,-2.3725,0.3961,0.3867,1.0623,
9.524337,0.2268,-1.0467,0.0609,-3.5669,-1.6926,-2.3725,0.3961,0.3867,1.0623,
9.525300,0.3304,-1.0310,-0.4512,-3.5669,-1.6926,-2.3725,0.3961,0.3867,1.0623,
9.526800,0.3304,-1.0310,-0.4512,-3.1241,-1.7831,-2.4339,0.3961,0.3867,1.0623,
9.557187,0.3304,-1.0310,-0.4512,-3.1241,-1.7831,-2.4339,0.9660,-0.3196,0.8525,
9.560013,0.3304,-1.0310,-0.4512,4.7916,-0.5015,-1.0032,0.9660,-0.3196,0.8525,
9.597379,0.3304,-1.0310,-0.4512,4.7916,-0.5015,-1.0032,-1.0218,-0.2141,0.4583,
9.600205,0.3304,-1.0310,-0.4512,8.4188,0.0783,-8.3376,-1.0218,-0.2141,0.4583,
9.601548,0.3468,-0.8077,-1.1089,8.4188,0.0783,-8.3376,-1.0218,-0.2141,0.4583,
9.602976,0.5899,-0.8341,-0.9515,8.4188,0.0783,-8.3376,-1.0218,-0.2141,0.4583,
9.604008,0.5984,-1.1195,-0.5523,8.4188,0.0783,-8.3376,-1.0218,-0.2141,0.4583,
9.605257,0.3969,-1.4446,-0.2592,8.4188,0.0783,-8.3376,-1.0218,-0.2141,0.4583,
9.636271,0.3969,-1.4446,-0.2592,8.4188,0.0783,-8.3376,-2.4120,-2.3042,0.0258,
9.638542,0.3969,-1.4446,-0.2592,8.3324,0.0282,-7.6550,-2.4120,-2.3042,0.0258,
9.676759,0.3969,-1.4446,-0.2592,5.6763,-5.1139,-1.7038,-2.4120,-2.3042,0.0258,
9.679916,0.3969,-1.4446,-0.2592,5.6763,-5.1139,-1.7038,-3.7350,-2.2924,-0.3907,
9.682635,0.2193,-1.5079,-0.3303,5.6763,-5.1139,-1.7038,-3.7350,-2.2924,-0.3907,
9.687997,0.1401,-1.3623,-0.5250,5.6763,-5.1139,-1.7038,-3.7350,-2.2924,-0.3907,
9.689704,-0.0927,-1.3374,-0.5658,5.6763,-5.1139,-1.7038,-3.7350,-2.2924,-0.3907,
9.691066,-0.5391,-1.3911,-0.2807,5.6763,-5.1139,-1.7038,-3.7350,-2.2924,-0.3907,
9.714614,-0.5391,-1.3911,-0.2807,5.6763,-5.1139,-1.7038,-3.9492,-0.3750,-1.0725,
9.717232,-0.5391,-1.3911,-0.2807,5.2417,-5.2996,-0.3600,-3.9492,-0.3750,-1.0725,
9.754816,-0.5391,-1.3911,-0.2807,5.2417,-5.2996,-0.3600,-2.2810,0.9268,-1.6381,
9.756781,-0.5391,-1.3911,-0.2807,-2.3337,-4.7379,1.9314,-2.2810,0.9268,-1.6381,
9.757646,-0.7269,-1.3848,0.1759,-2.3337,-4.7379,1.9314,-2.2810,0.9268,-1.6381,
9.758415,-0.0194,-1.1016,0.4271,-2.3337,-4.7379,1.9314,-2.2810,0.9268,-1.6381,
9.759009,0.9388,-1.0584,0.2331,-2.3337,-4.7379,1.9314,-2.2810,0.9268,-1.6381,
9.759764,0.9300,-1.5016,-0.2733,-2.3337,-4.7379,1.9314,-2.2810,0.9268,-1.6381,
9.794190,0.9300,-1.5016,-0.2733,-2.3337,-4.7379,1.9314,-1.0708,0.3270,-3.1838,
9.795779,0.9300,-1.5016,-0.2733,6.8774,-3.1998,5.6804,-1.0708,0.3270,-3.1838,
9.833720,0.9300,-1.5016,-0.2733,6.8774,-3.1998,5.6804,-1.3872,-2.6184,-3.1071,
9.835432,0.9300,-1.5016,-0.2733,0.7501,-4.3905,2.9881,-1.3872,-2.6184,-3.1071,
9.836245,0.2740,-1.6916,-0.6725,0.7501,-4.3905,2.9881,-1.3872,-2.6184,-3.1071,
9.836855,0.0378,-1.3232,-0.1702,0.7501,-4.3905,2.9881,-1.3872,-2.6184,-3.1071,
9.837443,-0.1552,-0.9746,0.2888,0.7501,-4.3905,2.9881,-1.3872,-2.6184,-3.1071,
9.837957,-0.3695,-0.8475,0.2429,0.7501,-4.3905,2.9881,-1.3872,-2.6184,-3.1071,
9.873948,-0.3695,-0.8475,0.2429,0.7501,-4.3905,2.9881,-0.4444,-2.8709,-1.9119,
9.876454,-0.3695,-0.8475,0.2429,0.6446,-4.3899,3.0703,-0.4444,-2.8709,-1.9119,
9.913161,-0.3695,-0.8475,0.2429,0.6446,-4.3899,3.0703,0.5835,-1.3475,-1.1108,
9.915359,-0.3695,-0.8475,0.2429,-4.4560,2.0115,7.5081,0.5835,-1.3475,-1.1108,
9.916751,-0.4936,-0.7264,0.2658,-4.4560,2.0115,7.5081,0.5835,-1.3475,-1.1108,
9.918107,-0.5268,-0.4804,0.3978,-4.4560,2.0115,7.5081,0.5835,-1.3475,-1.1108,
9.920133,-0.5386,-0.3106,0.5441,-4.4560,2.0115,7.5081,0.5835,-1.3475,-1.1108,
9.921340,-0.6131,-0.2983,0.5080,-4.4560,2.0115,7.5081,0.5835,-1.3475,-1.1108,
9.953035,-0.6131,-0.2983,0.5080,-4.4560,2.0115,7.5081,1.9769,1.1420,-0.7039,
9.954693,-0.6131,-0.2983,0.5080,-4.8078,2.2991,6.6893,1.9769,1.1420,-0.7039,
9.993394,-0.6131,-0.2983,0.5080,-4.8078,2.2991,6.6893,2.1814,0.8032,0.2708,
9.995970,-0.6131,-0.2983,0.5080,-6.0130,5.9237,7.1915,2.1814,0.8032,0.2708,
9.997429,-0.6360,-0.3941,0.2908,-6.0130,5.9237,7.1915,2.1814,0.8032,0.2708,
9.998566,-0.5232,-0.5004,-0.3957,-6.0130,5.9237,7.1915,2.1814,0.8032,0.2708,
9.999898,-0.0922,-0.5449,-0.6574,-6.0130,5.9237,7.1915,2.1814,0.8032,0.2708,
10.001043,0.4555,-0.5795,-0.2868,-6.0130,5.9237,7.1915,2.1814,0.8032,0.2708,
10.032969,0.4555,-0.5795,-0.2868,-6.0130,5.9237,7.1915,1.9247,-0.3249,-0.2405,
10.035143,0.4555,-0.5795,-0.2868,-0.7429,4.0097,-2.2403,1.9247,-0.3249,-0.2405,
10.073018,0.5618,-1.1942,-0.6557,-0.7429,4.0097,-2.2403,1.9247,-0.3249,-0.2405,
10.075738,0.0104,-2.3620,-1.0314,-0.7429,4.0097,-2.2403,1.9247,-0.3249,-0.2405,
10.077011,-0.8608,-2.3244,-0.9256,-0.7429,4.0097,-2.2403,1.9247,-0.3249,-0.2405,
10.078305,-0.8608,-2.3244,-0.9256,-0.7429,4.0097,-2.2403,0.1787,0.0160,-0.4173,
10.079407,-0.8608,-2.3244,-0.9256,-1.2972,-9.7179,-6.3569,0.1787,0.0160,-0.4173,
10.112015,-0.8608,-2.3244,-0.9256,-1.2972,-9.7179,-6.3569,-2.2352,-2.1476,0.7417,
10.114520,-0.8608,-2.3244,-0.9256,-10.9688,-1.9556,5.0210,-2.2352,-2.1476,0.7417,
10.152345,-0.8608,-2.3244,-0.9256,-10.9688,-1.9556,5.0210,-0.0631,1.5233,0.2080,
10.154882,-0.8608,-2.3244,-0.9256,-10.8906,-1.9330,4.9784,-0.0631,1.5233,0.2080,
10.156319,-1.3294,-1.8538,-0.7651,-10.8906,-1.9330,4.9784,-0.0631,1.5233,0.2080,
10.157245,-1.1374,-1.1825,0.1615,-10.8906,-1.9330,4.9784,-0.0631,1.5233,0.2080,
10.158130,-0.9915,-0.4085,1.2423,-10.8906,-1.9330,4.9784,-0.0631,1.5233,0.2080,
10.159042,-0.8053,-0.4232,0.8136,-10.8906,-1.9330,4.9784,-0.0631,1.5233,0.2080,
10.159944,-0.1389,-1.3440,0.1271,-10.8906,-1.9330,4.9784,-0.0631,1.5233,0.2080,
10.191860,-0.1389,-1.3440,0.1271,-10.8906,-1.9330,4.9784,1.4624,4.2014,0.6575,
10.194779,-0.1389,-1.3440,0.1271,-10.9049,-1.7575,4.4092,1.4624,4.2014,0.6575,
10.233893,-0.1389,-1.3440,0.1271,-10.9049,-1.7575,4.4092,0.6656,2.6024,0.1654,
10.237604,0.5315,-2.2963,-0.0368,-10.9049,-1.7575,4.4092,0.6656,2.6024,0.1654,
10.239076,0.7367,-2.1030,-0.1089,-10.9049,-1.7575,4.4092,0.6656,2.6024,0.1654,
10.240520,0.2310,-1.2917,0.0597,-10.9049,-1.7575,4.4092,0.6656,2.6024,0.1654,
10.241837,-0.2239,-0.9404,0.0697,-10.9049,-1.7575,4.4092,0.6656,2.6024,0.1654,
10.243181,-0.2239,-0.9404,0.0697,-1.1023,-3.6601,4.9727,0.6656,2.6024,0.1654,
10.271536,-0.2239,-0.9404,0.0697,2.3529,-4.4077,1.7353,0.6656,2.6024,0.1654,
10.273363,-0.2239,-0.9404,0.0697,2.3529,-4.4077,1.7353,0.8786,3.2011,-0.1212,
10.310823,-0.2239,-0.9404,0.0697,2.3529,-4.4077,1.7353,0.5377,3.7561,0.8961,
10.313566,-0.2239,-0.9404,0.0697,-5.2846,2.3343,-1.5372,0.5377,3.7561,0.8961,
10.314889,-0.4741,-0.8566,-0.1407,-5.2846,2.3343,-1.5372,0.5377,3.7561,0.8961,
10.316244,-0.6099,-0.7633,-0.4072,-5.2846,2.3343,-1.5372,0.5377,3.7561,0.8961,
10.317241,-0.5735,-0.6499,-0.3755,-5.2846,2.3343,-1.5372,0.5377,3.7561,0.8961,
10.318591,-0.2522,-0.5598,-0.1712,-5.2846,2.3343,-1.5372,0.5377,3.7561,0.8961,
10.350493,-0.2522,-0.5598,-0.1712,-5.2846,2.3343,-1.5372,-0.0279,3.3162,1.2839,
10.353208,-0.2522,-0.5598,-0.1712,-4.9003,2.2800,-1.4671,-0.0279,3.3162,1.2839,
10.389889,0.0671,-0.5214,-0.1277,-4.9003,2.2800,-1.4671,-0.0279,3.3162,1.2839,
10.392560,0.2396,-0.5400,-0.2130,-4.9003,2.2800,-1.4671,-0.0279,3.3162,1.2839,
10.393918,0.1919,-0.6455,-0.3972,-4.9003,2.2800,-1.4671,-0.0279,3.3162,1.2839,
10.395247,0.1919,-0.6455,-0.3972,0.6638,4.2984,0.0447,-0.0279,3.3162,1.2839,
10.397034,0.1919,-0.6455,-0.3972,0.6638,4.2984,0.0447,-0.2325,3.7572,0.5883,
10.429810,0.1919,-0.6455,-0.3972,0.6638,4.2984,0.0447,-1.7121,3.2810,0.4637,
10.432447,0.1919,-0.6455,-0.3972,1.9325,0.2989,-4.0696,-1.7121,3.2810,0.4637,
10.468640,0.1919,-0.6455,-0.3972,1.9325,0.2989,-4.0696,-3.7265,2.4629,1.0261,
10.471313,0.1919,-0.6455,-0.3972,1.9714,-0.1866,-2.6262,-3.7265,2.4629,1.0261,
10.472741,0.1504,-0.8666,-0.6733,1.9714,-0.1866,-2.6262,-3.7265,2.4629,1.0261,
10.474438,0.1372,-1.2861,-0.9381,1.9714,-0.1866,-2.6262,-3.7265,2.4629,1.0261,
10.475717,-0.0605,-1.6858,-1.1528,1.9714,-0.1866,-2.6262,-3.7265,2.4629,1.0261,
10.476977,-0.2461,-1.6120,-1.0788,1.9714,-0.1866,-2.6262,-3.7265,2.4629,1.0261,
10.478244,0.1496,-1.0635,-0.3625,1.9714,-0.1866,-2.6262,-3.7265,2.4629,1.0261,
10.508550,0.1496,-1.0635,-0.3625,1.9714,-0.1866,-2.6262,-2.6772,0.7404,1.6024,
10.511484,0.1496,-1.0635,-0.3625,0.3134,-5.7015,-3.5404,-2.6772,0.7404,1.6024,
10.548002,0.1496,-1.0635,-0.3625,0.3134,-5.7015,-3.5404,-1.0388,-0.8479,1.0261,
10.550411,0.1496,-1.0635,-0.3625,2.9889,-1.4901,3.9120,-1.0388,-0.8479,1.0261,
10.554329,0.2039,-0.9470,-0.0610,2.9889,-1.4901,3.9120,-1.0388,-0.8479,1.0261,
10.556265,0.0500,-1.2020,-0.1429,2.9889,-1.4901,3.9120,-1.0388,-0.8479,1.0261,
10.557574,0.2657,-0.8534,-0.1829,2.9889,-1.4901,3.9120,-1.0388,-0.8479,1.0261,
10.558703,-0.0277,-0.5798,-0.9747,2.9889,-1.4901,3.9120,-1.0388,-0.8479,1.0261,
10.587780,-0.0277,-0.5798,-0.9747,2.9889,-1.4901,3.9120,-0.3965,-0.0351,1.2072,
10.590613,-0.0277,-0.5798,-0.9747,3.3329,-1.6170,3.9733,-0.3965,-0.0351,1.2072,
10.627190,-0.5713,-0.6272,-0.7231,3.3329,-1.6170,3.9733,-0.3965,-0.0351,1.2072,
10.629524,-0.4650,-0.5541,0.1051,3.3329,-1.6170,3.9733,-0.3965,-0.0351,1.2072,
10.630886,-0.2623,-0.4598,0.0633,3.3329,-1.6170,3.9733,-0.3965,-0.0351,1.2072,
10.632188,-0.2623,-0.4598,0.0633,3.3329,-1.6170,3.9733,0.4099,-0.8884,1.5225,
10.633355,-0.2623,-0.4598,0.0633,-1.1466,2.3629,-0.1663,0.4099,-0.8884,1.5225,
10.666918,-0.2623,-0.4598,0.0633,-1.1466,2.3629,-0.1663,1.6328,-0.5465,1.5896,
10.669811,-0.2623,-0.4598,0.0633,0.7892,2.9869,3.7894,1.6328,-0.5465,1.5896,
10.706681,-0.2623,-0.4598,0.0633,0.7892,2.9869,3.7894,2.3828,-0.4357,0.9675,
10.709345,-0.2623,-0.4598,0.0633,1.1575,3.1876,2.8991,2.3828,-0.4357,0.9675,
10.710726,-0.2747,-0.5446,-0.0965,1.1575,3.1876,2.8991,2.3828,-0.4357,0.9675,
10.711853,-0.1198,-0.5930,-0.1497,1.1575,3.1876,2.8991,2.3828,-0.4357,0.9675,
10.713068,0.1565,-0.5549,-0.1456,1.1575,3.1876,2.8991,2.3828,-0.4357,0.9675,
10.714356,0.2865,-0.4850,-0.5528,1.1575,3.1876,2.8991,2.3828,-0.4357,0.9675,
10.715436,-0.0663,-0.7515,-1.2816,1.1575,3.1876,2.8991,2.3828,-0.4357,0.9675,
10.746627,-0.0663,-0.7515,-1.2816,1.1575,3.1876,2.8991,1.4176,-0.5124,0.1121,
10.749413,-0.0663,-0.7515,-1.2816,4.5582,2.6754,-3.4583,1.4176,-0.5124,0.1121,
10.780066,-0.1965,-1.5182,-0.7062,4.5582,2.6754,-3.4583,1.4176,-0.5124,0.1121,
10.782721,0.1599,-2.0349,-0.5162,4.5582,2.6754,-3.4583,1.4176,-0.5124,0.1121,
10.785097,-0.4086,-1.4933,-0.9794,4.5582,2.6754,-3.4583,1.4176,-0.5124,0.1121,
10.786674,-0.4086,-1.4933,-0.9794,4.5582,2.6754,-3.4583,-0.4221,-1.8290,0.0205,
10.787990,-0.4086,-1.4933,-0.9794,2.0569,-7.8747,-4.2187,-0.4221,-1.8290,0.0205,
10.825308,-0.4086,-1.4933,-0.9794,2.0569,-7.8747,-4.2187,-0.3837,-2.9486,-0.3747,
10.828108,-0.4086,-1.4933,-0.9794,10.0474,2.9053,4.1731,-0.3837,-2.9486,-0.3747,
10.865296,-0.4086,-1.4933,-0.9794,10.0474,2.9053,4.1731,1.1918,-1.2389,-1.3633,
10.868003,-0.4086,-1.4933,-0.9794,9.5333,3.1431,3.5311,1.1918,-1.2389,-1.3633,
10.869376,0.2542,-0.6929,-0.1683,9.5333,3.1431,3.5311,1.1918,-1.2389,-1.3633,
10.870643,1.1244,-0.4256,0.6619,9.5333,3.1431,3.5311,1.1918,-1.2389,-1.3633,
10.872071,0.6121,-0.6159,-0.0153,9.5333,3.1431,3.5311,1.1918,-1.2389,-1.3633,
10.873269,-0.9536,-1.7720,-0.5159,9.5333,3.1431,3.5311,1.1918,-1.2389,-1.3633,
10.874560,-0.6060,-2.3505,-0.5709,9.5333,3.1431,3.5311,1.1918,-1.2389,-1.3633,
10.904749,-0.6060,-2.3505,-0.5709,9.5333,3.1431,3.5311,1.3857,-2.1774,-0.5494,
10.908048,-0.6060,-2.3505,-0.5709,9.3188,3.2412,2.7396,1.3857,-2.1774,-0.5494,
10.945218,-0.6060,-2.3505,-0.5709,9.3188,3.2412,2.7396,1.4656,-2.2488,-0.8892,
10.948084,-0.6060,-2.3505,-0.5709,-0.8914,-9.1470,-4.3733,1.4656,-2.2488,-0.8892,
10.949558,0.4953,-1.4950,-0.4016,-0.8914,-9.1470,-4.3733,1.4656,-2.2488,-0.8892,
10.950680,0.3358,-0.9827,-0.1803,-0.8914,-9.1470,-4.3733,1.4656,-2.2488,-0.8892,
10.952952,-0.0214,-0.8927,-0.2758,-0.8914,-9.1470,-4.3733,1.4656,-2.2488,-0.8892,
10.954230,-0.3729,-1.0779,-0.4859,-0.8914,-9.1470,-4.3733,1.4656,-2.2488,-0.8892,
10.983339,-0.3729,-1.0779,-0.4859,-0.8914,-9.1470,-4.3733,1.5220,-1.5286,-0.6815,
10.985494,-0.3729,-1.0779,-0.4859,2.1181,-0.3635,-3.2408,1.5220,-1.5286,-0.6815,
11.023267,-0.3729,-1.0779,-0.4859,2.1181,-0.3635,-3.2408,-0.0982,-2.3276,0.4892,
11.025090,-0.3729,-1.0779,-0.4859,-0.8827,-1.0883,-8.1037,-0.0982,-2.3276,0.4892,
11.026968,-0.4435,-1.1708,-0.6488,-0.8827,-1.0883,-8.1037,-0.0982,-2.3276,0.4892,
11.028234,-0.3184,-1.0701,-0.8125,-0.8827,-1.0883,-8.1037,-0.0982,-2.3276,0.4892,
11.029474,-0.2662,-0.9265,-0.9557,-0.8827,-1.0883,-8.1037,-0.0982,-2.3276,0.4892,
11.030736,-0.1401,-0.7672,-0.8988,-0.8827,-1.0883,-8.1037,-0.0982,-2.3276,0.4892,
11.062214,-0.1401,-0.7672,-0.8988,-0.8827,-1.0883,-8.1037,-2.7198,-2.0986,1.4000,
11.064373,-0.1401,-0.7672,-0.8988,-0.3597,-1.2359,-7.2167,-2.7198,-2.0986,1.4000,
11.102684,-0.1401,-0.7672,-0.8988,-0.3597,-1.2359,-7.2167,-4.4104,-1.4487,0.9878,
11.104979,-0.1401,-0.7672,-0.8988,5.6079,1.8599,-3.2337,-4.4104,-1.4487,0.9878,
11.106845,0.2195,-0.6382,-0.5565,5.6079,1.8599,-3.2337,-4.4104,-1.4487,0.9878,
11.107840,0.6187,-0.6934,-0.1812,5.6079,1.8599,-3.2337,-4.4104,-1.4487,0.9878,
11.108956,0.6263,-0.9138,0.3147,5.6079,1.8599,-3.2337,-4.4104,-1.4487,0.9878,
11.110263,0.5936,-0.9682,0.9360,5.6079,1.8599,-3.2337,-4.4104,-1.4487,0.9878,
11.141394,0.5936,-0.9682,0.9360,5.6079,1.8599,-3.2337,-3.4591,-2.2552,-0.7497,
11.143611,0.5936,-0.9682,0.9360,5.4952,1.5803,-2.3178,-3.4591,-2.2552,-0.7497,
11.179021,0.4905,-1.0650,0.9265,5.4952,1.5803,-2.3178,-3.4591,-2.2552,-0.7497,
11.181214,0.3563,-1.5490,-0.0649,5.4952,1.5803,-2.3178,-3.4591,-2.2552,-0.7497,
11.182669,0.2857,-2.2381,-0.8462,5.4952,1.5803,-2.3178,-3.4591,-2.2552,-0.7497,
11.183983,0.2857,-2.2381,-0.8462,5.4952,1.5803,-2.3178,-2.3726,-2.9966,-1.8288,
11.185225,0.2857,-2.2381,-0.8462,8.4415,-1.2500,10.3815,-2.3726,-2.9966,-1.8288,
11.221028,0.2857,-2.2381,-0.8462,8.4415,-1.2500,10.3815,-2.1201,-0.0607,-2.6373,
11.223035,0.2857,-2.2381,-0.8462,5.1639,-9.7083,0.8621,-2.1201,-0.0607,-2.6373,
11.260276,0.2857,-2.2381,-0.8462,5.1639,-9.7083,0.8621,-1.1646,-1.0024,-2.7939,
11.262405,0.2857,-2.2381,-0.8462,4.3178,-9.5705,1.1762,-1.1646,-1.0024,-2.7939,
11.263802,0.3585,-1.7857,-0.0320,4.3178,-9.5705,1.1762,-1.1646,-1.0024,-2.7939,
11.265073,0.4157,-1.2133,0.4950,4.3178,-9.5705,1.1762,-1.1646,-1.0024,-2.7939,
11.266475,-0.0876,-1.3953,-0.0708,4.3178,-9.5705,1.1762,-1.1646,-1.0024,-2.7939,
11.267597,-0.4411,-1.6826,-0.3779,4.3178,-9.5705,1.1762,-1.1646,-1.0024,-2.7939,
11.268937,-0.3734,-1.5534,-0.1004,4.3178,-9.5705,1.1762,-1.1646,-1.0024,-2.7939,
11.300095,-0.3734,-1.5534,-0.1004,4.3178,-9.5705,1.1762,-1.1646,-2.6099,-1.8991,
11.301881,-0.3734,-1.5534,-0.1004,0.4844,-5.4270,4.6331,-1.1646,-2.6099,-1.8991,
11.339315,-0.3734,-1.5534,-0.1004,0.4844,-5.4270,4.6331,-0.2783,-1.1622,-1.0256,
11.341318,-0.3734,-1.5534,-0.1004,-3.6198,-1.6993,6.0891,-0.2783,-1.1622,-1.0256,
11.342282,-0.4093,-1.0711,0.1781,-3.6198,-1.6993,6.0891,-0.2783,-1.1622,-1.0256,
11.343258,-0.5625,-0.5290,0.4281,-3.6198,-1.6993,6.0891,-0.2783,-1.1622,-1.0256,
11.343951,-0.7343,-0.1237,0.5957,-3.6198,-1.6993,6.0891,-0.2783,-1.1622,-1.0256,
11.344836,-0.7944,0.0554,0.7225,-3.6198,-1.6993,6.0891,-0.2783,-1.1622,-1.0256,
11.378705,-0.7944,0.0554,0.7225,-3.6198,-1.6993,6.0891,1.6967,1.1505,-0.1872,
11.380326,-0.7944,0.0554,0.7225,-3.8070,-1.3906,5.4363,1.6967,1.1505,-0.1872,
11.418736,-0.8391,0.0505,0.6027,-3.8070,-1.3906,5.4363,1.6967,1.1505,-0.1872,
11.420317,-0.9273,-0.0856,-0.1536,-3.8070,-1.3906,5.4363,1.6967,1.1505,-0.1872,
11.421301,-0.6898,-0.5155,-0.3642,-3.8070,-1.3906,5.4363,1.6967,1.1505,-0.1872,
11.422246,-0.6898,-0.5155,-0.3642,-3.8070,-1.3906,5.4363,2.6661,1.2655,0.3710,
11.422988,-0.6898,-0.5155,-0.3642,-7.0607,9.0421,8.9741,2.6661,1.2655,0.3710,
11.458023,-0.6898,-0.5155,-0.3642,-7.0607,9.0421,8.9741,2.2347,2.1220,0.0237,
11.460537,-0.6898,-0.5155,-0.3642,-3.8170,2.1198,-0.4005,2.2347,2.1220,0.0237,
11.497995,-0.6898,-0.5155,-0.3642,-3.8170,2.1198,-0.4005,0.7316,1.8078,-0.2298,
11.499944,-0.6898,-0.5155,-0.3642,-3.9621,2.1401,-0.6266,0.7316,1.8078,-0.2298,
11.501255,0.2786,-1.5873,-0.1986,-3.9621,2.1401,-0.6266,0.7316,1.8078,-0.2298,
11.502362,0.6839,-2.4766,-0.1766,-3.9621,2.1401,-0.6266,0.7316,1.8078,-0.2298,
11.503588,0.2332,-1.9540,-0.6239,-3.9621,2.1401,-0.6266,0.7316,1.8078,-0.2298,
11.504684,0.1008,-1.4942,-1.6761,-3.9621,2.1401,-0.6266,0.7316,1.8078,-0.2298,
11.506011,-0.6104,-1.1436,-0.6691,-3.9621,2.1401,-0.6266,0.7316,1.8078,-0.2298,
11.538669,-0.6104,-1.1436,-0.6691,-3.9621,2.1401,-0.6266,-1.1816,-0.0256,-0.2362,
11.540513,-0.6104,-1.1436,-0.6691,3.5922,-9.9835,-5.8443,-1.1816,-0.0256,-0.2362,
11.577734,-0.6104,-1.1436,-0.6691,3.5922,-9.9835,-5.8443,-0.1557,2.4267,0.4402,
11.579652,-0.6104,-1.1436,-0.6691,-6.8710,-1.3585,4.2308,-0.1557,2.4267,0.4402,
11.580978,-0.8232,-1.0845,0.5837,-6.8710,-1.3585,4.2308,-0.1557,2.4267,0.4402,
11.582239,-0.7687,-1.0579,0.6905,-6.8710,-1.3585,4.2308,-0.1557,2.4267,0.4402,
11.583682,-0.7714,-1.0784,-0.0175,-6.8710,-1.3585,4.2308,-0.1557,2.4267,0.4402,
11.584936,-0.6883,-1.2983,-0.7018,-6.8710,-1.3585,4.2308,-0.1557,2.4267,0.4402,
11.617155,-0.6883,-1.2983,-0.7018,-6.8710,-1.3585,4.2308,0.1148,3.0680,1.3116,
11.619255,-0.6883,-1.2983,-0.7018,-6.5483,-1.3472,4.1674,0.1148,3.0680,1.3116,
11.656829,-0.6883,-1.2983,-0.7018,-6.5483,-1.3472,4.1674,0.6091,2.2744,1.2914,
11.658913,-0.6883,-1.2983,-0.7018,-4.5302,-2.8685,-0.0390,0.6091,2.2744,1.2914,
11.660349,-0.2366,-1.3933,0.0846,-4.5302,-2.8685,-0.0390,0.6091,2.2744,1.2914,
11.661588,0.1614,-1.2047,0.3313,-4.5302,-2.8685,-0.0390,0.6091,2.2744,1.2914,
11.663102,0.4284,-0.9587,0.0768,-4.5302,-2.8685,-0.0390,0.6091,2.2744,1.2914,
11.664294,0.8151,-0.8642,-0.1866,-4.5302,-2.8685,-0.0390,0.6091,2.2744,1.2914,
11.696226,0.8151,-0.8642,-0.1866,-4.5302,-2.8685,-0.0390,0.9457,1.1388,0.8482,
11.698213,0.8151,-0.8642,-0.1866,5.7344,-0.4033,2.4131,0.9457,1.1388,0.8482,
11.736183,0.8151,-0.8642,-0.1866,5.7344,-0.4033,2.4131,0.3311,-0.1172,0.1654,
11.738057,0.8151,-0.8642,-0.1866,6.8306,0.8333,-3.2126,0.3311,-0.1172,0.1654,
11.739567,0.9920,-0.8927,-0.4077,6.8306,0.8333,-3.2126,0.3311,-0.1172,0.1654,
11.741282,0.5933,-0.8654,-0.5462,6.8306,0.8333,-3.2126,0.3311,-0.1172,0.1654,
11.742685,0.1694,-0.8908,-0.5235,6.8306,0.8333,-3.2126,0.3311,-0.1172,0.1654,
11.743911,-0.1416,-1.0704,-0.3520,6.8306,0.8333,-3.2126,0.3311,-0.1172,0.1654,
11.775285,-0.1416,-1.0704,-0.3520,6.8306,0.8333,-3.2126,-0.1344,-0.9566,-0.1680,
11.777480,-0.1416,-1.0704,-0.3520,6.7146,0.8182,-3.1505,-0.1344,-0.9566,-0.1680,
11.815439,-0.1416,-1.0704,-0.3520,6.7146,0.8182,-3.1505,0.2022,-0.6711,-0.1457,
11.817469,-0.1416,-1.0704,-0.3520,-1.1806,-0.7035,0.1817,0.2022,-0.6711,-0.1457,
11.818727,-0.2305,-1.1168,-0.1072,-1.1806,-0.7035,0.1817,0.2022,-0.6711,-0.1457,
11.819850,-0.2928,-0.9370,0.0340,-1.1806,-0.7035,0.1817,0.2022,-0.6711,-0.1457,
11.821092,-0.4052,-0.7530,-0.0439,-1.1806,-0.7035,0.1817,0.2022,-0.6711,-0.1457,
11.822369,-0.4218,-0.7545,-0.2782,-1.1806,-0.7035,0.1817,0.2022,-0.6711,-0.1457,
11.854907,-0.4218,-0.7545,-0.2782,-1.1806,-0.7035,0.1817,0.6166,-0.0042,0.1047,
11.857017,-0.4218,-0.7545,-0.2782,-1.1214,-0.6610,-0.0500,0.6166,-0.0042,0.1047,
11.894475,-0.4218,-0.7545,-0.2782,-1.1214,-0.6610,-0.0500,0.4823,-0.1672,0.2091,
11.896533,-0.4218,-0.7545,-0.2782,-2.3714,1.7195,-1.1650,0.4823,-0.1672,0.2091,
11.897922,-0.2596,-0.8835,-0.3923,-2.3714,1.7195,-1.1650,0.4823,-0.1672,0.2091,
11.899028,0.0480,-0.9612,-0.3161,-2.3714,1.7195,-1.1650,0.4823,-0.1672,0.2091,
11.900070,0.2190,-0.9397,-0.1561,-2.3714,1.7195,-1.1650,0.4823,-0.1672,0.2091,
11.901070,0.1536,-0.8957,-0.0860,-2.3714,1.7195,-1.1650,0.4823,-0.1672,0.2091,
11.934135,0.1536,-0.8957,-0.0860,-2.3714,1.7195,-1.1650,0.4919,-0.4559,-0.1201,
11.936182,0.1536,-0.8957,-0.0860,2.4834,0.4141,-0.8472,0.4919,-0.4559,-0.1201,
11.974870,0.1536,-0.8957,-0.0860,2.4834,0.4141,-0.8472,0.3652,-0.7606,-0.1744,
11.976775,0.1536,-0.8957,-0.0860,0.2356,0.0381,-0.8891,0.3652,-0.7606,-0.1744,
11.978078,-0.0052,-0.9379,-0.1683,0.2356,0.0381,-0.8891,0.3652,-0.7606,-0.1744,
11.979016,-0.1186,-1.0068,-0.2057,0.2356,0.0381,-0.8891,0.3652,-0.7606,-0.1744,
11.980295,-0.1303,-0.9729,-0.1492,0.2356,0.0381,-0.8891,0.3652,-0.7606,-0.1744,
11.981369,-0.1465,-0.8712,-0.0444,0.2356,0.0381,-0.8891,0.3652,-0.7606,-0.1744,
12.013120,-0.1465,-0.8712,-0.0444,0.2356,0.0381,-0.8891,0.1841,-0.3015,-0.1606,
12.014987,-0.1465,-0.8712,-0.0444,0.1809,0.0495,-0.9553,0.1841,-0.3015,-0.1606,
12.053103,-0.1465,-0.8712,-0.0444,0.1809,0.0495,-0.9553,0.2842,0.3814,-0.0306,
12.054785,-0.1465,-0.8712,-0.0444,-1.0092,1.1689,0.5286,0.2842,0.3814,-0.0306,
12.056721,-0.1885,-0.8195,0.0027,-1.0092,1.1689,0.5286,0.2842,0.3814,-0.0306,
12.057902,-0.2820,-0.8810,0.0040,-1.0092,1.1689,0.5286,0.2842,0.3814,-0.0306,
12.058874,-0.3827,-0.9907,0.0044,-1.0092,1.1689,0.5286,0.2842,0.3814,-0.0306,
12.060242,-0.4467,-1.0452,-0.1050,-1.0092,1.1689,0.5286,0.2842,0.3814,-0.0306,
12.092861,-0.4467,-1.0452,-0.1050,-1.0092,1.1689,0.5286,0.1670,0.8544,0.2645,
12.094884,-0.4467,-1.0452,-0.1050,-0.9148,1.1428,0.4921,0.1670,0.8544,0.2645,
12.132741,-0.4467,-1.0452,-0.1050,-0.9148,1.1428,0.4921,-0.1643,1.8237,0.2794,
12.134898,-0.4467,-1.0452,-0.1050,-3.0555,-0.6281,-0.0289,-0.1643,1.8237,0.2794,
12.136392,-0.4760,-1.0760,-0.1409,-3.0555,-0.6281,-0.0289,-0.1643,1.8237,0.2794,
12.137406,-0.3610,-1.0081,0.0990,-3.0555,-0.6281,-0.0289,-0.1643,1.8237,0.2794,
12.138627,-0.2024,-0.9238,0.2817,-3.0555,-0.6281,-0.0289,-0.1643,1.8237,0.2794,
12.140305,-0.1672,-1.0296,0.2702,-3.0555,-0.6281,-0.0289,-0.1643,1.8237,0.2794,
12.171659,-0.1672,-1.0296,0.2702,-3.0555,-0.6281,-0.0289,0.1074,2.2115,0.0599,
12.173718,-0.1672,-1.0296,0.2702,-1.2048,-0.1337,2.9013,0.1074,2.2115,0.0599,
12.211326,-0.1672,-1.0296,0.2702,-1.2048,-0.1337,2.9013,0.0679,1.8834,-0.2426,
12.212844,-0.1672,-1.0296,0.2702,0.1517,0.5403,-1.0825,0.0679,1.8834,-0.2426,
12.214674,-0.1013,-1.0508,0.0394,0.1517,0.5403,-1.0825,0.0679,1.8834,-0.2426,
12.215457,-0.0612,-0.9213,-0.2132,0.1517,0.5403,-1.0825,0.0679,1.8834,-0.2426,
12.216353,-0.1057,-0.7840,-0.4180,0.1517,0.5403,-1.0825,0.0679,1.8834,-0.2426,
12.217247,-0.1684,-0.7208,-0.4197,0.1517,0.5403,-1.0825,0.0679,1.8834,-0.2426,
12.250999,-0.1684,-0.7208,-0.4197,0.1517,0.5403,-1.0825,-0.2271,2.5002,-0.4972,
12.252365,-0.1684,-0.7208,-0.4197,-0.1266,0.5401,-0.8930,-0.2271,2.5002,-0.4972,
12.290530,-0.1684,-0.7208,-0.4197,-0.1266,0.5401,-0.8930,-0.2346,2.7281,-0.3236,
12.292100,-0.1684,-0.7208,-0.4197,-2.5779,2.5190,-2.0549,-0.2346,2.7281,-0.3236,
12.293187,-0.3211,-0.7264,-0.3386,-2.5779,2.5190,-2.0549,-0.2346,2.7281,-0.3236,
12.294015,-0.4677,-0.6895,-0.2477,-2.5779,2.5190,-2.0549,-0.2346,2.7281,-0.3236,
12.294904,-0.4667,-0.6792,0.1361,-2.5779,2.5190,-2.0549,-0.2346,2.7281,-0.3236,
12.295841,-0.3619,-0.7474,0.2881,-2.5779,2.5190,-2.0549,-0.2346,2.7281,-0.3236,
12.329918,-0.3619,-0.7474,0.2881,-2.5779,2.5190,-2.0549,0.2352,2.4299,0.0205,
12.331203,-0.3619,-0.7474,0.2881,-2.6435,2.4879,-2.0620,0.2352,2.4299,0.0205,
12.370010,-0.3619,-0.7474,0.2881,-2.6435,2.4879,-2.0620,0.5846,3.7199,0.1718,
12.371992,-0.3619,-0.7474,0.2881,-3.0404,1.6787,2.8924,0.5846,3.7199,0.1718,
12.373803,-0.2337,-0.9563,0.1496,-3.0404,1.6787,2.8924,0.5846,3.7199,0.1718,
12.374984,-0.1621,-1.3237,0.1996,-3.0404,1.6787,2.8924,0.5846,3.7199,0.1718,
12.376697,-0.0639,-1.4637,0.3215,-3.0404,1.6787,2.8924,0.5846,3.7199,0.1718,
12.377951,0.2036,-1.3968,0.1195,-3.0404,1.6787,2.8924,0.5846,3.7199,0.1718,
12.409937,0.2036,-1.3968,0.1195,-3.0404,1.6787,2.8924,1.3239,3.8030,-0.0700,
12.411767,0.2036,-1.3968,0.1195,0.2036,-4.0932,2.6229,1.3239,3.8030,-0.0700,
12.449061,0.2036,-1.3968,0.1195,0.2036,-4.0932,2.6229,1.3165,2.9188,-0.3609,
12.451393,0.2036,-1.3968,0.1195,3.0803,-4.8847,-0.6341,1.3165,2.9188,-0.3609,
12.453474,0.4795,-1.3870,-0.0798,3.0803,-4.8847,-0.6341,1.3165,2.9188,-0.3609,
12.454744,0.4069,-1.5160,-0.0444,3.0803,-4.8847,-0.6341,1.3165,2.9188,-0.3609,
12.455909,0.0407,-1.5543,-0.0894,3.0803,-4.8847,-0.6341,1.3165,2.9188,-0.3609,
12.457108,-0.0456,-1.4058,-0.4712,3.0803,-4.8847,-0.6341,1.3165,2.9188,-0.3609,
12.488480,-0.0456,-1.4058,-0.4712,3.0803,-4.8847,-0.6341,0.9021,1.0898,0.0663,
12.490959,-0.0456,-1.4058,-0.4712,3.0570,-4.8072,-0.9617,0.9021,1.0898,0.0663,
12.528866,-0.1919,-1.2472,-0.7248,3.0570,-4.8072,-0.9617,0.9021,1.0898,0.0663,
12.530917,-0.3346,-1.1962,-0.3373,3.0570,-4.8072,-0.9617,0.9021,1.0898,0.0663,
12.532229,-0.1061,-1.1395,-0.0906,3.0570,-4.8072,-0.9617,0.9021,1.0898,0.0663,
12.533437,-0.1061,-1.1395,-0.0906,3.0570,-4.8072,-0.9617,0.2693,0.9247,0.4477,
12.534530,-0.1061,-1.1395,-0.0906,-1.6272,-2.7793,-5.2835,0.2693,0.9247,0.4477,
12.568170,-0.1061,-1.1395,-0.0906,-1.6272,-2.7793,-5.2835,0.5984,1.4243,0.6405,
12.575201,-0.1061,-1.1395,-0.0906,2.2516,0.1987,-2.7189,0.5984,1.4243,0.6405,
12.608124,-0.1061,-1.1395,-0.0906,2.2516,0.1987,-2.7189,0.0349,1.1857,0.6543,
12.610012,-0.1061,-1.1395,-0.0906,2.4839,0.1792,-2.6589,0.0349,1.1857,0.6543,
12.611333,0.2535,-0.9709,-0.1932,2.4839,0.1792,-2.6589,0.0349,1.1857,0.6543,
12.613035,0.3971,-0.8204,-0.4141,2.4839,0.1792,-2.6589,0.0349,1.1857,0.6543,
12.614313,0.2295,-0.7149,-0.5975,2.4839,0.1792,-2.6589,0.0349,1.1857,0.6543,
12.616502,-0.0661,-0.5778,-0.5018,2.4839,0.1792,-2.6589,0.0349,1.1857,0.6543,
12.618125,-0.1965,-0.6570,-0.4155,2.4839,0.1792,-2.6589,0.0349,1.1857,0.6543,
12.646700,-0.1965,-0.6570,-0.4155,2.4839,0.1792,-2.6589,-1.4991,0.3878,1.1731,
12.648180,-0.1965,-0.6570,-0.4155,1.0362,3.2898,-4.6572,-1.4991,0.3878,1.1731,
12.687240,-0.1965,-0.6570,-0.4155,1.0362,3.2898,-4.6572,-2.8487,-1.0290,1.3649,
12.688778,-0.1965,-0.6570,-0.4155,1.1374,0.6080,-1.0858,-2.8487,-1.0290,1.3649,
12.689843,-0.1423,-0.8383,-0.2692,1.1374,0.6080,-1.0858,-2.8487,-1.0290,1.3649,
12.690738,-0.0021,-0.8864,-0.1592,1.1374,0.6080,-1.0858,-2.8487,-1.0290,1.3649,
12.691650,-0.0216,-0.9914,-0.3114,1.1374,0.6080,-1.0858,-2.8487,-1.0290,1.3649,
12.692753,0.2290,-1.1292,-0.1993,1.1374,0.6080,-1.0858,-2.8487,-1.0290,1.3649,
12.726465,0.2290,-1.1292,-0.1993,1.1374,0.6080,-1.0858,-3.2610,0.0224,0.7502,
12.728073,0.2290,-1.1292,-0.1993,1.3862,0.2991,0.1210,-3.2610,0.0224,0.7502,
12.766135,0.2290,-1.1292,-0.1993,1.3862,0.2991,0.1210,-1.6801,-0.6264,-0.8935,
12.767680,0.2290,-1.1292,-0.1993,9.1507,-6.6137,5.6226,-1.6801,-0.6264,-0.8935,
12.768628,0.8579,-1.5301,0.3973,9.1507,-6.6137,5.6226,-1.6801,-0.6264,-0.8935,
12.769644,1.2476,-2.1692,0.6040,9.1507,-6.6137,5.6226,-1.6801,-0.6264,-0.8935,
12.770499,1.2451,-2.1866,0.4405,9.1507,-6.6137,5.6226,-1.6801,-0.6264,-0.8935,
12.771300,0.5437,-1.5052,0.2712,9.1507,-6.6137,5.6226,-1.6801,-0.6264,-0.8935,
12.806166,0.5437,-1.5052,0.2712,9.1507,-6.6137,5.6226,-0.6000,-2.5715,-2.0951,
12.808155,0.5437,-1.5052,0.2712,8.5592,-6.4695,5.6139,-0.6000,-2.5715,-2.0951,
12.847179,0.5437,-1.5052,0.2712,8.5592,-6.4695,5.6139,0.1383,-3.5420,-1.1577,
12.848659,0.5437,-1.5052,0.2712,6.6861,-5.6061,6.0990,0.1383,-3.5420,-1.1577,
12.849724,0.0121,-0.9189,0.3242,6.6861,-5.6061,6.0990,0.1383,-3.5420,-1.1577,
12.850507,-0.2471,-0.7017,0.3726,6.6861,-5.6061,6.0990,0.1383,-3.5420,-1.1577,
12.851113,-0.4680,-0.7095,0.3797,6.6861,-5.6061,6.0990,0.1383,-3.5420,-1.1577,
12.851784,-0.4430,-0.7205,0.3316,6.6861,-5.6061,6.0990,0.1383,-3.5420,-1.1577,
12.885000,-0.4430,-0.7205,0.3316,6.6861,-5.6061,6.0990,-0.2996,-5.1260,0.0067,
12.887105,-0.4430,-0.7205,0.3316,-2.3959,2.4171,6.0536,-0.2996,-5.1260,0.0067,
12.924787,-0.4430,-0.7205,0.3316,-2.3959,2.4171,6.0536,-0.5616,-5.4818,0.1547,
12.926863,-0.4430,-0.7205,0.3316,3.7988,3.3921,7.3688,-0.5616,-5.4818,0.1547,
12.928351,-0.1445,-0.6714,0.3313,3.7988,3.3921,7.3688,-0.5616,-5.4818,0.1547,
12.929789,0.2056,-0.5515,0.4962,3.7988,3.3921,7.3688,-0.5616,-5.4818,0.1547,
12.931878,0.5171,-0.5729,0.7452,3.7988,3.3921,7.3688,-0.5616,-5.4818,0.1547,
12.933358,0.5027,-0.7332,0.5153,3.7988,3.3921,7.3688,-0.5616,-5.4818,0.1547,
12.965021,0.5027,-0.7332,0.5153,3.7988,3.3921,7.3688,-0.1355,-4.3899,-0.5526,
12.967475,0.5027,-0.7332,0.5153,3.8941,3.3681,6.9492,-0.1355,-4.3899,-0.5526,
13.003954,0.5027,-0.7332,0.5153,3.8941,3.3681,6.9492,0.5814,-4.8597,-1.6115,
13.005415,0.5027,-0.7332,0.5153,3.9821,1.5716,4.8540,0.5814,-4.8597,-1.6115,
13.007591,0.3383,-0.6934,0.3738,3.9821,1.5716,4.8540,0.5814,-4.8597,-1.6115,
13.008550,-0.1237,-0.9582,0.2448,3.9821,1.5716,4.8540,0.5814,-4.8597,-1.6115,
13.009337,-1.2216,-1.5424,0.0391,3.9821,1.5716,4.8540,0.5814,-4.8597,-1.6115,
13.009941,-1.6033,-1.4891,0.0494,3.9821,1.5716,4.8540,0.5814,-4.8597,-1.6115,
13.043118,-1.6033,-1.4891,0.0494,3.9821,1.5716,4.8540,0.2853,-2.4703,-0.3470,
13.044289,-1.6033,-1.4891,0.0494,3.8869,1.5784,4.5150,0.2853,-2.4703,-0.3470,
13.083330,-1.6033,-1.4891,0.0494,3.8869,1.5784,4.5150,-0.7992,-1.0173,0.7651,
13.085343,-1.6033,-1.4891,0.0494,-11.5416,-5.2072,0.2755,-0.7992,-1.0173,0.7651,
13.087241,-1.3379,-1.4329,-0.3212,-11.5416,-5.2072,0.2755,-0.7992,-1.0173,0.7651,
13.088693,-0.6246,-1.3721,-0.5902,-11.5416,-5.2072,0.2755,-0.7992,-1.0173,0.7651,
13.090097,0.0666,-1.2372,-0.1385,-11.5416,-5.2072,0.2755,-0.7992,-1.0173,0.7651,
13.091618,0.2750,-1.3616,0.3709,-11.5416,-5.2072,0.2755,-0.7992,-1.0173,0.7651,
13.122240,0.2750,-1.3616,0.3709,-11.5416,-5.2072,0.2755,-0.6234,-0.8533,0.2495,
13.123847,0.2750,-1.3616,0.3709,1.2419,-3.5828,0.0253,-0.6234,-0.8533,0.2495,
13.162835,0.2750,-1.3616,0.3709,1.2419,-3.5828,0.0253,0.3843,-0.0884,-0.2767,
13.164761,0.2750,-1.3616,0.3709,2.4165,-2.7483,1.9017,0.3843,-0.0884,-0.2767,
13.166278,0.1663,-1.3567,0.3577,2.4165,-2.7483,1.9017,0.3843,-0.0884,-0.2767,
13.167416,0.0277,-1.2299,0.0641,2.4165,-2.7483,1.9017,0.3843,-0.0884,-0.2767,
13.168645,-0.0746,-1.1554,-0.1490,2.4165,-2.7483,1.9017,0.3843,-0.0884,-0.2767,
13.170065,-0.2439,-1.0427,-0.1854,2.4165,-2.7483,1.9017,0.3843,-0.0884,-0.2767,
13.202031,-0.2439,-1.0427,-0.1854,2.4165,-2.7483,1.9017,0.0381,0.1886,-0.0296,
13.203910,-0.2439,-1.0427,-0.1854,2.3580,-2.6986,1.8707,0.0381,0.1886,-0.0296,
13.232363,-0.2972,-0.8783,-0.1529,2.3580,-2.6986,1.8707,0.0381,0.1886,-0.0296,
13.234581,-0.1596,-0.6465,-0.0732,2.3580,-2.6986,1.8707,0.0381,0.1886,-0.0296,
13.235695,0.0842,-0.4994,0.0450,2.3580,-2.6986,1.8707,0.0381,0.1886,-0.0296,
13.241847,0.0842,-0.4994,0.0450,2.3580,-2.6986,1.8707,-0.3230,0.2450,0.4242,
13.243589,0.0842,-0.4994,0.0450,-0.1687,1.0717,-0.2197,-0.3230,0.2450,0.4242,
13.281692,0.0842,-0.4994,0.0450,-0.1687,1.0717,-0.2197,-0.3486,0.6083,0.3326,
13.283959,0.0842,-0.4994,0.0450,3.6009,4.1970,2.4922,-0.3486,0.6083,0.3326,
13.319966,0.2420,-0.5070,0.1730,3.6009,4.1970,2.4922,-0.3486,0.6083,0.3326,
13.322093,0.1167,-0.5688,0.1576,3.6009,4.1970,2.4922,-0.3486,0.6083,0.3326,
13.323321,-0.2781,-0.6804,0.1476,3.6009,4.1970,2.4922,-0.3486,0.6083,0.3326,
13.324542,-0.9549,-0.9145,-0.0916,3.6009,4.1970,2.4922,-0.3486,0.6083,0.3326,
13.326043,-0.9549,-0.9145,-0.0916,3.6009,4.1970,2.4922,-0.3326,2.0464,-0.2266,
13.327036,-0.9549,-0.9145,-0.0916,3.3451,4.1269,2.7368,-0.3326,2.0464,-0.2266,
13.361015,-0.9549,-0.9145,-0.0916,3.3451,4.1269,2.7368,-1.0729,2.7068,0.1185,
13.363198,-0.9549,-0.9145,-0.0916,-7.1814,-0.3233,-0.1106,-1.0729,2.7068,0.1185,
13.400711,-0.9549,-0.9145,-0.0916,-7.1814,-0.3233,-0.1106,-1.4181,3.5761,0.2069,
13.402811,-0.9549,-0.9145,-0.0916,-7.3343,-0.4692,0.6380,-1.4181,3.5761,0.2069,
13.404164,-1.5383,-1.3181,-0.7326,-7.3343,-0.4692,0.6380,-1.4181,3.5761,0.2069,
13.405428,-1.0365,-1.5487,-0.6078,-7.3343,-0.4692,0.6380,-1.4181,3.5761,0.2069,
13.406862,-0.3847,-1.2663,-0.2726,-7.3343,-0.4692,0.6380,-1.4181,3.5761,0.2069,
13.407962,-0.3460,-0.8444,-0.4109,-7.3343,-0.4692,0.6380,-1.4181,3.5761,0.2069,
13.409019,-0.4487,-0.6787,-0.4627,-7.3343,-0.4692,0.6380,-1.4181,3.5761,0.2069,
13.439945,-0.4487,-0.6787,-0.4627,-7.3343,-0.4692,0.6380,-0.6926,3.2097,0.2751,
13.441739,-0.4487,-0.6787,-0.4627,-4.2772,-2.9582,-0.9077,-0.6926,3.2097,0.2751,
13.479907,-0.4487,-0.6787,-0.4627,-4.2772,-2.9582,-0.9077,0.1734,2.3010,0.7204,
13.481994,-0.4487,-0.6787,-0.4627,-2.1069,1.2423,-0.0589,0.1734,2.3010,0.7204,
13.483250,-0.3263,-0.7989,-0.4424,-2.1069,1.2423,-0.0589,0.1734,2.3010,0.7204,
13.484355,-0.3231,-0.8840,-0.1483,-2.1069,1.2423,-0.0589,0.1734,2.3010,0.7204,
13.485464,-0.5195,-0.6844,0.0865,-2.1069,1.2423,-0.0589,0.1734,2.3010,0.7204,
13.486494,-0.5962,-0.4537,0.1779,-2.1069,1.2423,-0.0589,0.1734,2.3010,0.7204,
13.518776,-0.5962,-0.4537,0.1779,-2.1069,1.2423,-0.0589,1.0693,2.6163,0.9292,
13.521327,-0.5962,-0.4537,0.1779,-2.0817,1.3049,-0.2829,1.0693,2.6163,0.9292,
13.558515,-0.5962,-0.4537,0.1779,-2.0817,1.3049,-0.2829,2.3338,3.1575,0.6565,
13.561709,-0.5962,-0.4537,0.1779,-3.7535,4.3634,4.1553,2.3338,3.1575,0.6565,
13.563077,-0.4768,-0.3333,0.2656,-3.7535,4.3634,4.1553,2.3338,3.1575,0.6565,
13.564318,-0.2036,-0.4217,0.2531,-3.7535,4.3634,4.1553,2.3338,3.1575,0.6565,
13.565552,0.1697,-0.5705,0.2026,-3.7535,4.3634,4.1553,2.3338,3.1575,0.6565,
13.566671,0.4064,-0.7110,0.2131,-3.7535,4.3634,4.1553,2.3338,3.1575,0.6565,
13.598203,0.4064,-0.7110,0.2131,-3.7535,4.3634,4.1553,3.4949,3.7082,0.0525,
13.600250,0.4064,-0.7110,0.2131,2.3646,3.7995,3.4558,3.4949,3.7082,0.0525,
13.637876,0.4064,-0.7110,0.2131,2.3646,3.7995,3.4558,3.9200,3.5878,-0.3630,
13.640099,0.4064,-0.7110,0.2131,5.3041,0.7308,0.4130,3.9200,3.5878,-0.3630,
13.641422,0.4592,-0.8024,0.1493,5.3041,0.7308,0.4130,3.9200,3.5878,-0.3630,
13.642768,0.5188,-0.8070,0.0699,5.3041,0.7308,0.4130,3.9200,3.5878,-0.3630,
13.644047,0.3910,-1.0633,-0.0759,5.3041,0.7308,0.4130,3.9200,3.5878,-0.3630,
13.645247,-0.0658,-1.8690,-0.5919,5.3041,0.7308,0.4130,3.9200,3.5878,-0.3630,
13.677423,-0.0658,-1.8690,-0.5919,5.3041,0.7308,0.4130,1.7244,1.6703,0.1430,
13.679489,-0.0658,-1.8690,-0.5919,5.2915,0.6902,-0.1738,1.7244,1.6703,0.1430,
13.717684,-0.0658,-1.8690,-0.5919,5.2915,0.6902,-0.1738,-0.5116,0.9556,0.5681,
13.719524,-0.0658,-1.8690,-0.5919,-0.5313,-11.4761,-12.8626,-0.5116,0.9556,0.5681,
13.721242,-0.1401,-2.7548,-2.0670,-0.5313,-11.4761,-12.8626,-0.5116,0.9556,0.5681,
13.722753,-0.2823,-1.8294,-1.2178,-0.5313,-11.4761,-12.8626,-0.5116,0.9556,0.5681,
13.724434,-0.1469,-0.9792,0.0289,-0.5313,-11.4761,-12.8626,-0.5116,0.9556,0.5681,
13.725936,0.2261,-0.9387,0.3001,-0.5313,-11.4761,-12.8626,-0.5116,0.9556,0.5681,
13.756437,0.2261,-0.9387,0.3001,-0.5313,-11.4761,-12.8626,0.1287,-0.3611,0.9686,
13.758093,0.2261,-0.9387,0.3001,-0.1638,-11.3331,-12.7151,0.1287,-0.3611,0.9686,
13.796763,0.2261,-0.9387,0.3001,-0.1638,-11.3331,-12.7151,1.8597,-0.4399,0.3912,
13.799474,0.2261,-0.9387,0.3001,3.1810,-0.6648,1.4777,1.8597,-0.4399,0.3912,
13.800884,0.4289,-1.2563,0.3741,3.1810,-0.6648,1.4777,1.8597,-0.4399,0.3912,
13.802206,0.5701,-1.7483,0.0042,3.1810,-0.6648,1.4777,1.8597,-0.4399,0.3912,
13.803534,0.5826,-1.8192,-0.5804,3.1810,-0.6648,1.4777,1.8597,-0.4399,0.3912,
13.804669,0.3764,-1.3005,-0.9488,3.1810,-0.6648,1.4777,1.8597,-0.4399,0.3912,
13.836084,0.3764,-1.3005,-0.9488,3.1810,-0.6648,1.4777,1.1630,-1.3135,-0.3140,
13.838194,0.3764,-1.3005,-0.9488,6.2313,-6.1257,-6.2173,1.1630,-1.3135,-0.3140,
13.875514,0.0119,-0.9221,-0.7177,6.2313,-6.1257,-6.2173,1.1630,-1.3135,-0.3140,
13.877650,-0.3016,-0.8107,-0.4180,6.2313,-6.1257,-6.2173,1.1630,-1.3135,-0.3140,
13.878675,-0.3404,-0.6890,-0.3843,6.2313,-6.1257,-6.2173,1.1630,-1.3135,-0.3140,
13.879924,-0.3404,-0.6890,-0.3843,6.2313,-6.1257,-6.2173,0.1095,-0.9268,-0.1904,
13.881191,-0.3404,-0.6890,-0.3843,-0.9281,1.8377,-6.1813,0.1095,-0.9268,-0.1904,
13.915086,-0.3404,-0.6890,-0.3843,-0.9281,1.8377,-6.1813,-0.5094,-0.3547,0.5670,
13.917665,-0.3404,-0.6890,-0.3843,0.1663,3.5069,-6.6308,-0.5094,-0.3547,0.5670,
13.954913,-0.3404,-0.6890,-0.3843,0.1663,3.5069,-6.6308,-2.1041,-0.2876,0.9803,
13.958367,-0.2056,-0.6084,-0.3860,0.1663,3.5069,-6.6308,-2.1041,-0.2876,0.9803,
13.959944,-0.1396,-0.6062,-0.5118,0.1663,3.5069,-6.6308,-2.1041,-0.2876,0.9803,
13.961675,-0.0111,-0.6765,-0.8494,0.1663,3.5069,-6.6308,-2.1041,-0.2876,0.9803,
13.963030,0.1005,-0.8331,-0.8883,0.1663,3.5069,-6.6308,-2.1041,-0.2876,0.9803,
13.964262,0.1584,-1.1214,-0.3894,0.1663,3.5069,-6.6308,-2.1041,-0.2876,0.9803,
13.965387,0.1584,-1.1214,-0.3894,0.5269,3.4340,-5.7429,-2.1041,-0.2876,0.9803,
13.994524,0.1584,-1.1214,-0.3894,0.5269,3.4340,-5.7429,-4.5691,-1.8951,0.7566,
13.996543,0.1584,-1.1214,-0.3894,0.8593,3.1858,-4.0879,-4.5691,-1.8951,0.7566,
14.035486,0.1584,-1.1214,-0.3894,0.8593,3.1858,-4.0879,-3.9907,-3.2757,-0.3310,
14.037902,0.1584,-1.1214,-0.3894,4.5142,-2.2632,-1.2000,-3.9907,-3.2757,-0.3310,
14.039349,0.4729,-1.5172,0.0472,4.5142,-2.2632,-1.2000,-3.9907,-3.2757,-0.3310,
14.040614,0.5659,-2.0483,0.5742,4.5142,-2.2632,-1.2000,-3.9907,-3.2757,-0.3310,
14.041754,0.0004,-2.1131,0.8493,4.5142,-2.2632,-1.2000,-3.9907,-3.2757,-0.3310,
14.043122,-0.0981,-1.5736,0.1642,4.5142,-2.2632,-1.2000,-3.9907,-3.2757,-0.3310,
14.073748,-0.0981,-1.5736,0.1642,4.5142,-2.2632,-1.2000,-2.2053,-0.2759,-0.7486,
14.075671,-0.0981,-1.5736,0.1642,3.3588,-9.7095,8.6185,-2.2053,-0.2759,-0.7486,
14.113841,0.0153,-1.4727,-0.2670,3.3588,-9.7095,8.6185,-2.2053,-0.2759,-0.7486,
14.115861,0.2137,-1.5976,0.1224,3.3588,-9.7095,8.6185,-2.2053,-0.2759,-0.7486,
14.117132,0.3632,-1.6706,0.0655,3.3588,-9.7095,8.6185,-2.2053,-0.2759,-0.7486,
14.118369,0.3632,-1.6706,0.0655,3.3588,-9.7095,8.6185,-1.6738,-1.5787,-0.9233,
14.119577,0.3632,-1.6706,0.0655,3.6090,-6.5311,3.5953,-1.6738,-1.5787,-0.9233,
14.153677,0.3632,-1.6706,0.0655,3.6090,-6.5311,3.5953,-0.7779,-4.1098,-1.2887,
14.155647,0.3632,-1.6706,0.0655,2.7820,1.2727,8.4947,-0.7779,-4.1098,-1.2887,
14.192604,0.3632,-1.6706,0.0655,2.7820,1.2727,8.4947,0.2789,-3.5857,-1.3846,
14.194458,0.3876,-1.2250,0.1935,2.7820,1.2727,8.4947,0.2789,-3.5857,-1.3846,
14.195309,0.0854,-0.7068,0.6162,2.7820,1.2727,8.4947,0.2789,-3.5857,-1.3846,
14.196149,-0.1741,-0.4041,0.6582,2.7820,1.2727,8.4947,0.2789,-3.5857,-1.3846,
14.196937,-0.2767,-0.2341,0.5893,2.7820,1.2727,8.4947,0.2789,-3.5857,-1.3846,
14.197583,-0.4369,-0.1713,0.4967,2.7820,1.2727,8.4947,0.2789,-3.5857,-1.3846,
14.198308,-0.4369,-0.1713,0.4967,2.7486,1.3874,8.0001,0.2789,-3.5857,-1.3846,
14.231964,-0.4369,-0.1713,0.4967,2.7486,1.3874,8.0001,1.0714,-3.1106,-0.9872,
14.233644,-0.4369,-0.1713,0.4967,2.7079,1.5531,7.2706,1.0714,-3.1106,-0.9872,
14.272536,-0.4369,-0.1713,0.4967,2.7079,1.5531,7.2706,0.5292,-2.6301,-0.2661,
14.274484,-0.4369,-0.1713,0.4967,-2.3494,7.0902,6.1987,0.5292,-2.6301,-0.2661,
14.275968,-0.5906,-0.2192,0.2021,-2.3494,7.0902,6.1987,0.5292,-2.6301,-0.2661,
14.277218,-0.4753,-0.5207,-0.1167,-2.3494,7.0902,6.1987,0.5292,-2.6301,-0.2661,
14.278341,-0.3211,-0.9585,-0.3542,-2.3494,7.0902,6.1987,0.5292,-2.6301,-0.2661,
14.279422,-0.2710,-1.2641,-0.4685,-2.3494,7.0902,6.1987,0.5292,-2.6301,-0.2661,
14.311744,-0.2710,-1.2641,-0.4685,-2.3494,7.0902,6.1987,-0.5819,-1.1643,-0.5537,
14.314234,-0.2710,-1.2641,-0.4685,-1.6563,0.1608,-0.9386,-0.5819,-1.1643,-0.5537,
14.351277,-0.2710,-1.2641,-0.4685,-1.6563,0.1608,-0.9386,-0.8002,0.0831,-0.6027,
14.353097,-0.2710,-1.2641,-0.4685,-3.9159,-2.3779,2.2664,-0.8002,0.0831,-0.6027,
14.354302,-0.3617,-1.3112,-0.3122,-3.9159,-2.3779,2.2664,-0.8002,0.0831,-0.6027,
14.355531,-0.5823,-1.1695,0.0435,-3.9159,-2.3779,2.2664,-0.8002,0.0831,-0.6027,
14.357218,-0.7663,-1.0425,0.2321,-3.9159,-2.3779,2.2664,-0.8002,0.0831,-0.6027,
14.358510,-0.6321,-0.8830,0.0147,-3.9159,-2.3779,2.2664,-0.8002,0.0831,-0.6027,
14.391114,-0.6321,-0.8830,0.0147,-3.9159,-2.3779,2.2664,-0.4391,-0.0554,0.0812,
14.392993,-0.6321,-0.8830,0.0147,-3.8165,-2.3857,2.3809,-0.4391,-0.0554,0.0812,
14.430665,-0.6321,-0.8830,0.0147,-3.8165,-2.3857,2.3809,-0.4551,0.1364,0.5755,
14.433447,-0.6321,-0.8830,0.0147,-2.2016,-0.0096,1.4536,-0.4551,0.1364,0.5755,
14.435148,-0.3934,-0.8798,-0.1785,-2.2016,-0.0096,1.4536,-0.4551,0.1364,0.5755,
14.443120,-0.2608,-1.0059,-0.2022,-2.2016,-0.0096,1.4536,-0.4551,0.1364,0.5755,
14.444489,-0.2486,-1.1588,-0.1998,-2.2016,-0.0096,1.4536,-0.4551,0.1364,0.5755,
14.446123,-0.2452,-1.2355,-0.1895,-2.2016,-0.0096,1.4536,-0.4551,0.1364,0.5755,
14.455259,-0.1831,-1.1490,-0.2147,-2.2016,-0.0096,1.4536,-0.4551,0.1364,0.5755,
14.469680,-0.1831,-1.1490,-0.2147,-2.2016,-0.0096,1.4536,-0.1419,0.1236,0.8322,
14.471145,-0.1831,-1.1490,-0.2147,0.0718,-2.5822,0.7251,-0.1419,0.1236,0.8322,
14.509368,-0.1831,-1.1490,-0.2147,0.0718,-2.5822,0.7251,0.2949,-0.6551,0.8642,
14.510477,-0.1831,-1.1490,-0.2147,1.2089,0.2605,2.1104,0.2949,-0.6551,0.8642,
14.542430,-0.1416,-0.9978,-0.1563,1.2089,0.2605,2.1104,0.2949,-0.6551,0.8642,
14.543391,-0.1423,-0.8771,-0.0224,1.2089,0.2605,2.1104,0.2949,-0.6551,0.8642,
14.543866,-0.1533,-0.7804,0.0616,1.2089,0.2605,2.1104,0.2949,-0.6551,0.8642,
14.544400,-0.1582,-0.7376,0.0892,1.2089,0.2605,2.1104,0.2949,-0.6551,0.8642,
14.549761,-0.1582,-0.7376,0.0892,1.2089,0.2605,2.1104,1.2216,-1.1803,0.5936,
14.550670,-0.1582,-0.7376,0.0892,1.4984,0.2968,1.5192,1.2216,-1.1803,0.5936,
14.588747,-0.1582,-0.7376,0.0892,1.4984,0.2968,1.5192,1.9098,-0.9395,0.2964,
14.591253,-0.1582,-0.7376,0.0892,1.4204,1.6087,1.1944,1.9098,-0.9395,0.2964,
14.629902,-0.1658,-0.7344,0.0152,1.4204,1.6087,1.1944,1.9098,-0.9395,0.2964,
14.630874,-0.1797,-0.7972,-0.0715,1.4204,1.6087,1.1944,1.9098,-0.9395,0.2964,
14.631362,-0.1951,-0.9922,-0.2995,1.4204,1.6087,1.1944,1.9098,-0.9395,0.2964,
14.631814,-0.1951,-0.9922,-0.2995,1.4204,1.6087,1.1944,1.4283,-0.4868,-0.0807,
14.632272,-0.1951,-0.9922,-0.2995,1.3839,1.6360,0.6128,1.4283,-0.4868,-0.0807,
14.667644,-0.1951,-0.9922,-0.2995,1.3839,1.6360,0.6128,0.8839,-0.0106,0.2826,
14.668646,-0.1951,-0.9922,-0.2995,-2.1686,-3.5050,-2.1288,0.8839,-0.0106,0.2826,
14.707336,-0.6016,-1.3567,-0.3256,-2.1686,-3.5050,-2.1288,0.8839,-0.0106,0.2826,
14.708302,-0.8369,-1.5055,-0.0950,-2.1686,-3.5050,-2.1288,0.8839,-0.0106,0.2826,
14.708972,-0.4081,-1.3137,-0.4668,-2.1686,-3.5050,-2.1288,0.8839,-0.0106,0.2826,
14.709593,-0.3871,-1.0413,-0.6264,-2.1686,-3.5050,-2.1288,0.8839,-0.0106,0.2826,
14.710096,-0.1384,-0.7359,-0.3022,-2.1686,-3.5050,-2.1288,0.8839,-0.0106,0.2826,
14.710559,0.1902,-0.6181,-0.0803,-2.1686,-3.5050,-2.1288,0.8839,-0.0106,0.2826,
14.711066,0.1902,-0.6181,-0.0803,-2.1686,-3.5050,-2.1288,0.0243,1.2155,0.7119,
14.711480,0.1902,-0.6181,-0.0803,0.3540,-1.0857,-4.1150,0.0243,1.2155,0.7119,
14.746752,0.1902,-0.6181,-0.0803,0.3540,-1.0857,-4.1150,-0.2985,1.1143,0.7907,
14.748003,0.1902,-0.6181,-0.0803,0.5994,-1.1832,-3.7893,-0.2985,1.1143,0.7907,
14.786670,0.1902,-0.6181,-0.0803,0.5994,-1.1832,-3.7893,-0.0780,-0.1022,0.4509,
14.787640,0.1902,-0.6181,-0.0803,7.9599,1.9335,-0.5512,-0.0780,-0.1022,0.4509,
14.788889,0.4401,-0.6162,-0.0439,7.9599,1.9335,-0.5512,-0.0780,-0.1022,0.4509,
14.790061,0.6810,-0.8712,-0.2863,7.9599,1.9335,-0.5512,-0.0780,-0.1022,0.4509,
14.791239,0.7511,-1.3166,-0.7756,7.9599,1.9335,-0.5512,-0.0780,-0.1022,0.4509,
14.792368,0.5422,-1.7239,-1.2410,7.9599,1.9335,-0.5512,-0.0780,-0.1022,0.4509,
14.826864,0.5422,-1.7239,-1.2410,7.9599,1.9335,-0.5512,-2.0839,-0.6647,-0.2810,
14.828684,0.5422,-1.7239,-1.2410,7.7596,1.8516,0.0769,-2.0839,-0.6647,-0.2810,
14.867022,-0.0116,-1.7617,-1.3949,7.7596,1.8516,0.0769,-2.0839,-0.6647,-0.2810,
14.868918,-0.6309,-1.3384,-0.6857,7.7596,1.8516,0.0769,-2.0839,-0.6647,-0.2810,
14.870348,-0.4731,-1.0149,0.2192,7.7596,1.8516,0.0769,-2.0839,-0.6647,-0.2810,
14.871608,-0.4731,-1.0149,0.2192,7.7596,1.8516,0.0769,-4.5383,-1.6362,-0.1606,
14.872847,-0.4731,-1.0149,0.2192,7.6146,-7.1881,-8.2707,-4.5383,-1.6362,-0.1606,
14.906106,-0.4731,-1.0149,0.2192,7.6146,-7.1881,-8.2707,-3.6360,-0.1182,-0.2618,
14.908200,-0.4731,-1.0149,0.2192,-0.1389,-2.2192,3.8527,-3.6360,-0.1182,-0.2618,
14.946045,-0.4731,-1.0149,0.2192,-0.1389,-2.2192,3.8527,-1.5981,1.6522,-1.6125,
14.950345,-0.4731,-1.0149,0.2192,-0.9243,-2.2639,4.4767,-1.5981,1.6522,-1.6125,
14.951683,0.0346,-0.7982,0.4264,-0.9243,-2.2639,4.4767,-1.5981,1.6522,-1.6125,
14.953109,0.2811,-0.6538,-0.0745,-0.9243,-2.2639,4.4767,-1.5981,1.6522,-1.6125,
14.954364,0.3734,-0.8632,-0.2772,-0.9243,-2.2639,4.4767,-1.5981,1.6522,-1.6125,
14.955465,0.5830,-1.2570,-0.2775,-0.9243,-2.2639,4.4767,-1.5981,1.6522,-1.6125,
14.956902,0.6966,-1.4915,-0.1170,-0.9243,-2.2639,4.4767,-1.5981,1.6522,-1.6125,
14.985407,0.6966,-1.4915,-0.1170,-0.9243,-2.2639,4.4767,-0.9686,-0.0980,-2.9580,
14.987652,0.6966,-1.4915,-0.1170,5.5936,-0.9539,2.8109,-0.9686,-0.0980,-2.9580,
15.026447,0.6966,-1.4915,-0.1170,5.5936,-0.9539,2.8109,0.0392,-1.4413,-3.8858,
15.028395,0.6966,-1.4915,-0.1170,5.4045,-5.2858,4.0414,0.0392,-1.4413,-3.8858,
15.029758,0.5860,-1.4170,-0.0146,5.4045,-5.2858,4.0414,0.0392,-1.4413,-3.8858,
15.030845,0.2261,-1.2704,-0.0786,5.4045,-5.2858,4.0414,0.0392,-1.4413,-3.8858,
15.031960,-0.1706,-1.2878,-0.2621,5.4045,-5.2858,4.0414,0.0392,-1.4413,-3.8858,
15.033281,-0.4367,-1.3445,-0.2777,5.4045,-5.2858,4.0414,0.0392,-1.4413,-3.8858,
15.064450,-0.4367,-1.3445,-0.2777,5.4045,-5.2858,4.0414,0.9713,-2.7377,-3.5620,
15.066793,-0.4367,-1.3445,-0.2777,4.6280,-5.0101,3.6451,0.9713,-2.7377,-3.5620,
15.104634,-0.4367,-1.3445,-0.2777,4.6280,-5.0101,3.6451,1.1119,-2.7622,-2.8248,
15.106845,-0.4367,-1.3445,-0.2777,-3.9028,-3.8007,1.5523,1.1119,-2.7622,-2.8248,
15.108128,-0.3573,-1.2331,-0.2049,-3.9028,-3.8007,1.5523,1.1119,-2.7622,-2.8248,
15.109403,-0.1208,-0.9548,-0.1038,-3.9028,-3.8007,1.5523,1.1119,-2.7622,-2.8248,
15.110655,-0.0441,-0.6374,0.0169,-3.9028,-3.8007,1.5523,1.1119,-2.7622,-2.8248,
15.111879,-0.2288,-0.4830,0.0264,-3.9028,-3.8007,1.5523,1.1119,-2.7622,-2.8248,
15.144463,-0.2288,-0.4830,0.0264,-3.9028,-3.8007,1.5523,1.2983,-1.7694,-1.6988,
15.146624,-0.2288,-0.4830,0.0264,-2.3286,2.1438,3.3382,1.2983,-1.7694,-1.6988,
15.183959,-0.2288,-0.4830,0.0264,-2.3286,2.1438,3.3382,1.4603,-0.5806,-0.4972,
15.185367,-0.2288,-0.4830,0.0264,-5.8927,3.0842,1.0377,1.4603,-0.5806,-0.4972,
15.186777,-0.4477,-0.5390,-0.0427,-5.8927,3.0842,1.0377,1.4603,-0.5806,-0.4972,
15.187878,-0.5200,-0.6181,-0.2328,-5.8927,3.0842,1.0377,1.4603,-0.5806,-0.4972,
15.188977,-0.5173,-0.6660,-0.3320,-5.8927,3.0842,1.0377,1.4603,-0.5806,-0.4972,
15.190313,-0.4882,-0.7418,-0.4324,-5.8927,3.0842,1.0377,1.4603,-0.5806,-0.4972,
