
time,gFx,gFy,gFz,ax,ay,az,wx,wy,wz,
0.064964,0.0000,0.0000,0.0000,0.0000,0.0000,0.0000,-0.3230,0.0352,0.1611,
0.090014,-0.0070,0.3873,0.8732,0.0000,0.0000,0.0000,-0.3230,0.0352,0.1611,
0.091328,-0.0123,0.3675,0.9084,0.0000,0.0000,0.0000,-0.3230,0.0352,0.1611,
0.092307,-0.0043,0.3531,0.9221,0.0000,0.0000,0.0000,-0.3230,0.0352,0.1611,
0.093107,-0.0056,0.3294,0.9219,0.0000,0.0000,0.0000,-0.3230,0.0352,0.1611,
0.104362,-0.0056,0.3294,0.9219,0.0000,0.0000,0.0000,-0.2463,-0.0224,0.1324,
0.105543,-0.0056,0.3294,0.9219,0.0000,0.0000,-0.0000,-0.2463,-0.0224,0.1324,
0.145642,-0.0056,0.3294,0.9219,0.0000,0.0000,-0.0000,-0.0577,-0.6413,0.0429,
0.147693,-0.0056,0.3294,0.9219,0.1840,0.1193,-0.2531,-0.0577,-0.6413,0.0429,
0.168141,0.0549,0.3750,0.9009,0.1840,0.1193,-0.2531,-0.0577,-0.6413,0.0429,
0.170238,0.0771,0.4173,0.8066,0.1840,0.1193,-0.2531,-0.0577,-0.6413,0.0429,
0.171442,0.0786,0.3813,0.7749,0.1840,0.1193,-0.2531,-0.0577,-0.6413,0.0429,
0.172758,0.0987,0.3762,0.7785,0.1840,0.1193,-0.2531,-0.0577,-0.6413,0.0429,
0.185906,0.0987,0.3762,0.7785,0.1840,0.1193,-0.2531,-0.2878,-0.7009,0.0205,
0.188591,0.0987,0.3762,0.7785,-0.0296,0.1092,-0.1404,-0.2878,-0.7009,0.0205,
0.224594,0.0987,0.3762,0.7785,-0.0296,0.1092,-0.1404,-0.6362,-0.6083,-0.0370,
0.226797,0.0987,0.3762,0.7785,0.2722,0.0983,-0.6111,-0.6362,-0.6083,-0.0370,
0.246271,0.1194,0.3525,0.7892,0.2722,0.0983,-0.6111,-0.6362,-0.6083,-0.0370,
0.248110,0.2151,0.3531,0.8125,0.2722,0.0983,-0.6111,-0.6362,-0.6083,-0.0370,
0.249745,0.1871,0.3765,0.8968,0.2722,0.0983,-0.6111,-0.6362,-0.6083,-0.0370,
0.250943,0.2002,0.3335,0.8966,0.2722,0.0983,-0.6111,-0.6362,-0.6083,-0.0370,
0.265817,0.2002,0.3335,0.8966,0.2722,0.0983,-0.6111,-0.5893,-1.0312,-0.1638,
0.268146,0.2002,0.3335,0.8966,-0.0304,0.1903,-0.4310,-0.5893,-1.0312,-0.1638,
0.306608,0.2002,0.3335,0.8966,-0.0304,0.1903,-0.4310,-0.8407,-0.7308,-0.0210,
0.308713,0.2002,0.3335,0.8966,0.4567,0.2072,0.3495,-0.8407,-0.7308,-0.0210,
0.342180,0.2603,0.2863,0.8736,0.4567,0.2072,0.3495,-0.8407,-0.7308,-0.0210,
0.343132,0.3137,0.2676,0.8403,0.4567,0.2072,0.3495,-0.8407,-0.7308,-0.0210,
0.343680,0.3142,0.2359,0.8386,0.4567,0.2072,0.3495,-0.8407,-0.7308,-0.0210,
0.344107,0.3142,0.2359,0.8386,0.4567,0.2072,0.3495,-1.0932,0.2749,0.2240,
0.344618,0.3142,0.2359,0.8386,0.3915,0.4379,0.1522,-1.0932,0.2749,0.2240,
0.382091,0.3142,0.2359,0.8386,0.3915,0.4379,0.1522,-0.7480,-0.5635,-0.2501,
0.382938,0.3142,0.2359,0.8386,0.9994,-0.1790,-0.1705,-0.7480,-0.5635,-0.2501,
0.421434,0.3874,0.2691,0.9058,0.9994,-0.1790,-0.1705,-0.7480,-0.5635,-0.2501,
0.423993,0.4429,0.4500,0.9233,0.9994,-0.1790,-0.1705,-0.7480,-0.5635,-0.2501,
0.425731,0.2619,0.3469,0.7950,0.9994,-0.1790,-0.1705,-0.7480,-0.5635,-0.2501,
0.426906,0.2722,0.1771,0.8610,0.9994,-0.1790,-0.1705,-0.7480,-0.5635,-0.2501,
0.428039,0.4351,0.2592,0.7899,0.9994,-0.1790,-0.1705,-0.7480,-0.5635,-0.2501,
0.429685,0.4351,0.2592,0.7899,0.8759,0.8192,-0.0028,-0.7480,-0.5635,-0.2501,
0.430828,0.4351,0.2592,0.7899,0.8759,0.8192,-0.0028,-1.1060,-0.8192,-0.3736,
0.462079,0.4351,0.2592,0.7899,0.8759,0.8192,-0.0028,-0.8205,-1.2069,0.1345,
0.463940,0.4351,0.2592,0.7899,0.3804,0.9260,0.0413,-0.8205,-1.2069,0.1345,
0.490725,0.4708,0.1413,0.7398,0.3804,0.9260,0.0413,-0.8205,-1.2069,0.1345,
0.492870,0.6323,0.1085,0.5987,0.3804,0.9260,0.0413,-0.8205,-1.2069,0.1345,
0.493716,0.5289,0.0048,0.4568,0.3804,0.9260,0.0413,-0.8205,-1.2069,0.1345,
0.501488,0.5289,0.0048,0.4568,0.3804,0.9260,0.0413,-0.1451,-3.2469,0.3167,
0.503325,0.5289,0.0048,0.4568,0.3686,-0.3469,-0.5285,-0.1451,-3.2469,0.3167,
0.542862,0.5289,0.0048,0.4568,0.3686,-0.3469,-0.5285,-0.0503,-4.6626,0.4871,
0.544752,0.5289,0.0048,0.4568,-0.5312,-1.6896,-2.7646,-0.0503,-4.6626,0.4871,
0.569009,0.3477,-0.0096,0.3183,-0.5312,-1.6896,-2.7646,-0.0503,-4.6626,0.4871,
0.570528,0.6914,0.0637,0.2428,-0.5312,-1.6896,-2.7646,-0.0503,-4.6626,0.4871,
0.571889,0.8688,0.1780,0.2450,-0.5312,-1.6896,-2.7646,-0.0503,-4.6626,0.4871,
0.573023,1.0349,0.1274,0.3864,-0.5312,-1.6896,-2.7646,-0.0503,-4.6626,0.4871,
0.573774,0.8199,-0.0001,0.3347,-0.5312,-1.6896,-2.7646,-0.0503,-4.6626,0.4871,
0.581441,0.8199,-0.0001,0.3347,-0.5312,-1.6896,-2.7646,0.4802,-6.3053,-0.2895,
0.583274,0.8199,-0.0001,0.3347,1.7462,-0.7475,-1.7952,0.4802,-6.3053,-0.2895,
0.619833,0.8199,-0.0001,0.3347,1.7462,-0.7475,-1.7952,1.2653,-8.0449,-0.0093,
0.621167,0.8199,-0.0001,0.3347,-2.6067,-2.9996,0.7347,1.2653,-8.0449,-0.0093,
0.646958,0.5335,-0.1116,0.2582,-2.6067,-2.9996,0.7347,1.2653,-8.0449,-0.0093,
0.649257,0.4697,-0.1497,0.3308,-2.6067,-2.9996,0.7347,1.2653,-8.0449,-0.0093,
0.650743,0.6340,-0.1556,0.4090,-2.6067,-2.9996,0.7347,1.2653,-8.0449,-0.0093,
0.652630,0.8541,-0.0851,0.4668,-2.6067,-2.9996,0.7347,1.2653,-8.0449,-0.0093,
0.660858,0.8541,-0.0851,0.4668,-2.6871,-2.2903,3.4990,1.2653,-8.0449,-0.0093,
0.668414,0.8541,-0.0851,0.4668,-2.6871,-2.2903,3.4990,2.8675,-9.0228,1.6035,
0.699165,0.8541,-0.0851,0.4668,-2.6871,-2.2903,3.4990,3.2936,-4.8853,2.8008,
0.700984,0.8541,-0.0851,0.4668,0.4657,-0.7520,4.9942,3.2936,-4.8853,2.8008,
0.725732,0.8915,-0.0558,0.4051,0.4657,-0.7520,4.9942,3.2936,-4.8853,2.8008,
0.727835,1.0139,-0.0733,-0.0524,0.4657,-0.7520,4.9942,3.2936,-4.8853,2.8008,
0.729195,1.1557,-0.1031,0.1693,0.4657,-0.7520,4.9942,3.2936,-4.8853,2.8008,
0.730346,1.3456,-0.1512,0.2332,0.4657,-0.7520,4.9942,3.2936,-4.8853,2.8008,
0.739834,1.3456,-0.1512,0.2332,0.4657,-0.7520,4.9942,2.9111,-0.9694,3.2951,
0.742393,1.3456,-0.1512,0.2332,0.5621,0.4394,4.7506,2.9111,-0.9694,3.2951,
0.779447,1.3456,-0.1512,0.2332,0.5621,0.4394,4.7506,3.8358,0.6850,3.2269,
0.781712,1.3456,-0.1512,0.2332,4.2403,0.9496,2.0785,3.8358,0.6850,3.2269,
0.819446,1.5104,-0.2705,0.0781,4.2403,0.9496,2.0785,3.8358,0.6850,3.2269,
0.821322,1.5776,-0.3402,-0.1469,4.2403,0.9496,2.0785,3.8358,0.6850,3.2269,
0.822816,1.4731,-0.3769,-0.4216,4.2403,0.9496,2.0785,3.8358,0.6850,3.2269,
0.825120,1.4731,-0.3769,-0.4216,4.2403,0.9496,2.0785,4.2800,0.1513,2.4099,
0.826477,1.4731,-0.3769,-0.4216,4.1230,1.6236,1.4322,4.2800,0.1513,2.4099,
0.859885,1.4731,-0.3769,-0.4216,4.1230,1.6236,1.4322,2.9665,0.0533,1.8229,
0.862035,1.4731,-0.3769,-0.4216,6.4893,-0.0645,-2.9633,2.9665,0.0533,1.8229,
0.897427,1.5231,-0.4806,-0.6408,6.4893,-0.0645,-2.9633,2.9665,0.0533,1.8229,
0.900663,1.4451,-0.4867,-0.6460,6.4893,-0.0645,-2.9633,2.9665,0.0533,1.8229,
0.902077,1.4473,-0.4834,-0.5174,6.4893,-0.0645,-2.9633,2.9665,0.0533,1.8229,
0.903447,1.6569,-0.4624,-0.3344,6.4893,-0.0645,-2.9633,2.9665,0.0533,1.8229,
0.905208,1.6552,-0.4990,-0.2884,6.4893,-0.0645,-2.9633,2.9665,0.0533,1.8229,
0.906092,1.6552,-0.4990,-0.2884,6.4893,-0.0645,-2.9633,1.8704,1.1356,1.1955,
0.906994,1.6552,-0.4990,-0.2884,5.8833,-0.7431,-5.7837,1.8704,1.1356,1.1955,
0.937597,1.6552,-0.4990,-0.2884,5.8833,-0.7431,-5.7837,1.1183,0.6157,0.2304,
0.939277,1.6552,-0.4990,-0.2884,5.5097,-0.6394,-5.7332,1.1183,0.6157,0.2304,
0.974604,1.4307,-0.5428,-0.5506,5.5097,-0.6394,-5.7332,1.1183,0.6157,0.2304,
0.976940,1.2504,-0.4302,-0.9143,5.5097,-0.6394,-5.7332,1.1183,0.6157,0.2304,
0.977959,1.0776,-0.5078,-0.2848,5.5097,-0.6394,-5.7332,1.1183,0.6157,0.2304,
0.979144,1.0514,-0.5466,0.1897,5.5097,-0.6394,-5.7332,1.1183,0.6157,0.2304,
0.980091,1.0514,-0.5466,0.1897,5.5097,-0.6394,-5.7332,0.2139,0.9651,0.1483,
0.980800,1.0514,-0.5466,0.1897,0.9220,-0.9254,-2.0138,0.2139,0.9651,0.1483,
1.016384,1.0514,-0.5466,0.1897,0.9220,-0.9254,-2.0138,0.9074,0.3473,0.3848,
1.018366,1.0514,-0.5466,0.1897,0.9336,-0.7624,-2.1483,0.9074,0.3473,0.3848,
1.057260,0.7383,-0.5428,-0.1858,0.9336,-0.7624,-2.1483,0.9074,0.3473,0.3848,
1.060039,0.7434,-0.5070,0.0341,0.9336,-0.7624,-2.1483,0.9074,0.3473,0.3848,
1.061238,0.6909,-0.4957,0.1500,0.9336,-0.7624,-2.1483,0.9074,0.3473,0.3848,
1.063076,0.6909,-0.4957,0.1500,0.9336,-0.7624,-2.1483,1.4358,-1.6053,0.9792,
1.064382,0.6909,-0.4957,0.1500,-2.3995,-0.2795,-0.0483,1.4358,-1.6053,0.9792,
1.096651,0.6909,-0.4957,0.1500,-2.9945,1.4971,-0.3173,1.4358,-1.6053,0.9792,
1.099354,0.6909,-0.4957,0.1500,-2.9945,1.4971,-0.3173,0.6773,-0.6146,1.7867,
1.137777,0.3479,-0.5148,-0.0064,-2.9945,1.4971,-0.3173,0.6773,-0.6146,1.7867,
1.140631,0.5565,-0.4025,0.0125,-2.9945,1.4971,-0.3173,0.6773,-0.6146,1.7867,
1.142421,0.6468,-0.3211,0.0230,-2.9945,1.4971,-0.3173,0.6773,-0.6146,1.7867,
1.143788,0.4538,-0.3319,-0.1213,-2.9945,1.4971,-0.3173,0.6773,-0.6146,1.7867,
1.145266,0.3612,-0.4668,-0.1790,-2.9945,1.4971,-0.3173,0.6773,-0.6146,1.7867,
1.146316,0.3612,-0.4668,-0.1790,-2.9945,1.4971,-0.3173,0.0839,0.7787,1.8613,
1.147611,0.3612,-0.4668,-0.1790,-2.4318,1.9777,-0.5503,0.0839,0.7787,1.8613,
1.177297,0.3612,-0.4668,-0.1790,-2.4318,1.9777,-0.5503,-0.0588,0.8298,1.6418,
1.179249,0.3612,-0.4668,-0.1790,-1.9126,2.3322,-0.7402,-0.0588,0.8298,1.6418,
1.213424,0.9822,-0.5993,-0.1296,-1.9126,2.3322,-0.7402,-0.0588,0.8298,1.6418,
1.216363,1.1222,-0.5253,0.3602,-1.9126,2.3322,-0.7402,-0.0588,0.8298,1.6418,
1.217805,0.7971,-0.7354,0.0956,-1.9126,2.3322,-0.7402,-0.0588,0.8298,1.6418,
1.219379,0.5854,-0.4440,-0.0122,-1.9126,2.3322,-0.7402,-0.0588,0.8298,1.6418,
1.221195,0.5854,-0.4440,-0.0122,-1.9126,2.3322,-0.7402,0.3226,0.3931,1.2807,
1.223802,0.5854,-0.4440,-0.0122,0.2014,0.5328,-0.2146,0.3226,0.3931,1.2807,
1.255706,0.5854,-0.4440,-0.0122,0.2014,0.5328,-0.2146,-0.2197,-0.5880,1.5449,
1.258047,0.5854,-0.4440,-0.0122,0.5565,0.9026,-0.0014,-0.2197,-0.5880,1.5449,
1.293963,0.5051,-0.5892,-0.0205,0.5565,0.9026,-0.0014,-0.2197,-0.5880,1.5449,
1.295568,0.5027,-0.7377,0.2384,0.5565,0.9026,-0.0014,-0.2197,-0.5880,1.5449,
1.296635,0.5668,-0.8318,0.1704,0.5565,0.9026,-0.0014,-0.2197,-0.5880,1.5449,
1.297522,0.5668,-0.8318,0.1704,0.5565,0.9026,-0.0014,-0.9856,-1.4019,1.8474,
1.298338,0.5668,-0.8318,0.1704,-0.5169,-0.2046,1.0469,-0.9856,-1.4019,1.8474,
1.334050,0.5668,-0.8318,0.1704,-0.5169,-0.2046,1.0469,-1.4202,-0.8011,1.2839,
1.336311,0.5668,-0.8318,0.1704,2.7880,1.3149,0.8557,-1.4202,-0.8011,1.2839,
1.374055,0.7362,-0.8796,-0.2020,2.7880,1.3149,0.8557,-1.4202,-0.8011,1.2839,
1.376524,0.7757,-0.6107,0.0858,2.7880,1.3149,0.8557,-1.4202,-0.8011,1.2839,
1.377807,1.0311,-0.4508,0.0886,2.7880,1.3149,0.8557,-1.4202,-0.8011,1.2839,
1.379226,0.8543,-0.8831,0.0986,2.7880,1.3149,0.8557,-1.4202,-0.8011,1.2839,
1.380375,0.8967,-1.7187,-0.0504,2.7880,1.3149,0.8557,-1.4202,-0.8011,1.2839,
1.381723,0.8967,-1.7187,-0.0504,2.7880,1.3149,0.8557,-0.4551,-0.1768,-0.1638,
1.382635,0.8967,-1.7187,-0.0504,2.6191,1.2097,0.9832,-0.4551,-0.1768,-0.1638,
1.412717,0.8967,-1.7187,-0.0504,2.6191,1.2097,0.9832,0.1617,-0.2343,-0.9159,
1.414454,0.8967,-1.7187,-0.0504,2.2552,0.9481,0.9484,0.1617,-0.2343,-0.9159,
1.451344,0.9198,-1.6089,0.1486,2.2552,0.9481,0.9484,0.1617,-0.2343,-0.9159,
1.453556,0.6330,-1.0418,0.1952,2.2552,0.9481,0.9484,0.1617,-0.2343,-0.9159,
1.454787,0.1528,-0.7120,-0.1469,2.2552,0.9481,0.9484,0.1617,-0.2343,-0.9159,
1.456284,0.4009,-0.6657,-0.0322,2.2552,0.9481,0.9484,0.1617,-0.2343,-0.9159,
1.457614,0.4009,-0.6657,-0.0322,2.2552,0.9481,0.9484,0.2064,-1.4583,0.8067,
1.458882,0.4009,-0.6657,-0.0322,-2.4470,0.0034,0.5537,0.2064,-1.4583,0.8067,
1.492848,0.4009,-0.6657,-0.0322,-2.4470,0.0034,0.5537,0.9383,-1.7129,2.3204,
1.495732,0.4009,-0.6657,-0.0322,-1.6209,0.5253,0.6249,0.9383,-1.7129,2.3204,
1.529294,0.4828,-0.7219,0.0586,-1.6209,0.5253,0.6249,0.9383,-1.7129,2.3204,
1.538381,0.4889,-0.7749,0.1166,-1.6209,0.5253,0.6249,0.9383,-1.7129,2.3204,
1.540241,0.4290,-0.9124,-0.1513,-1.6209,0.5253,0.6249,0.9383,-1.7129,2.3204,
1.541697,0.3361,-1.1137,-0.1729,-1.6209,0.5253,0.6249,0.9383,-1.7129,2.3204,
1.543275,0.3361,-1.1137,-0.1729,-1.6209,0.5253,0.6249,1.1353,-0.9949,1.4011,
1.545599,0.3361,-1.1137,-0.1729,-0.1938,-0.2951,0.4228,1.1353,-0.9949,1.4011,
1.572145,0.3361,-1.1137,-0.1729,-0.1938,-0.2951,0.4228,-0.1270,0.0458,0.4882,
1.574097,0.3361,-1.1137,-0.1729,-0.0359,-0.2026,0.4384,-0.1270,0.0458,0.4882,
1.601319,0.4185,-1.1356,-0.1785,-0.0359,-0.2026,0.4384,-0.1270,0.0458,0.4882,
1.603553,0.5132,-0.9591,-0.0531,-0.0359,-0.2026,0.4384,-0.1270,0.0458,0.4882,
1.604646,0.1974,-0.5088,-0.2026,-0.0359,-0.2026,0.4384,-0.1270,0.0458,0.4882,
1.606312,0.1593,-0.2933,0.0446,-0.0359,-0.2026,0.4384,-0.1270,0.0458,0.4882,
1.613181,0.1593,-0.2933,0.0446,-0.0359,-0.2026,0.4384,-0.6692,0.2876,0.0716,
1.614458,0.1593,-0.2933,0.0446,-0.2912,-1.7077,-0.3294,-0.6692,0.2876,0.0716,
1.650344,0.1593,-0.2933,0.0446,-0.2912,-1.7077,-0.3294,-0.3283,0.0938,1.2988,
1.652066,0.1593,-0.2933,0.0446,0.1311,-1.4447,-0.2279,-0.3283,0.0938,1.2988,
1.691129,0.1593,-0.2933,0.0446,0.1311,-1.4447,-0.2279,0.0083,-0.8501,1.6887,
1.693449,0.1593,-0.2933,0.0446,0.7179,-1.1499,-0.1034,0.0083,-0.8501,1.6887,
1.730201,0.1593,-0.2933,0.0446,0.7179,-1.1499,-0.1034,-0.6692,-0.2322,1.9007,
1.733481,0.1593,-0.2933,0.0446,1.3462,-0.9153,0.1568,-0.6692,-0.2322,1.9007,
1.749739,0.2053,-1.3230,-0.0786,1.3462,-0.9153,0.1568,-0.6692,-0.2322,1.9007,
1.751127,0.1040,-1.4476,0.2839,1.3462,-0.9153,0.1568,-0.6692,-0.2322,1.9007,
1.752272,0.0932,-1.4488,0.4061,1.3462,-0.9153,0.1568,-0.6692,-0.2322,1.9007,
1.769434,0.0932,-1.4488,0.4061,1.3462,-0.9153,0.1568,0.0317,-0.7478,2.3779,
1.773470,0.0932,-1.4488,0.4061,-0.5583,-4.3374,3.3294,0.0317,-0.7478,2.3779,
1.810713,0.0932,-1.4488,0.4061,-0.5583,-4.3374,3.3294,0.7082,-0.4453,2.1809,
1.812584,0.0932,-1.4488,0.4061,3.5792,-7.7752,0.6293,0.7082,-0.4453,2.1809,
1.838085,0.1941,-1.5714,0.0257,3.5792,-7.7752,0.6293,0.7082,-0.4453,2.1809,
1.839764,0.4076,-2.2303,-0.1683,3.5792,-7.7752,0.6293,0.7082,-0.4453,2.1809,
1.840713,0.8496,-1.6069,0.0083,3.5792,-7.7752,0.6293,0.7082,-0.4453,2.1809,
1.841450,0.6270,-0.9142,0.0083,3.5792,-7.7752,0.6293,0.7082,-0.4453,2.1809,
1.849173,0.6270,-0.9142,0.0083,3.5792,-7.7752,0.6293,0.4717,-0.4090,0.5031,
1.850636,0.6270,-0.9142,0.0083,3.6571,-7.4594,0.4438,0.4717,-0.4090,0.5031,
1.889105,0.6270,-0.9142,0.0083,3.6571,-7.4594,0.4438,0.4312,0.2514,-0.4919,
1.891144,0.6270,-0.9142,0.0083,0.0307,1.2900,0.5900,0.4312,0.2514,-0.4919,
1.929935,0.0145,-0.9621,-0.0266,0.0307,1.2900,0.5900,0.4312,0.2514,-0.4919,
1.933684,-0.2368,-0.8368,-0.0078,0.0307,1.2900,0.5900,0.4312,0.2514,-0.4919,
1.935271,-0.1140,-0.7041,-0.0009,0.0307,1.2900,0.5900,0.4312,0.2514,-0.4919,
1.936459,0.0922,-0.8578,-0.0754,0.0307,1.2900,0.5900,0.4312,0.2514,-0.4919,
1.937599,0.0922,-0.8578,-0.0754,0.0307,1.2900,0.5900,0.4461,0.0938,0.3816,
1.938806,0.0922,-0.8578,-0.0754,0.1761,1.2732,0.3914,0.4461,0.0938,0.3816,
1.968410,0.0922,-0.8578,-0.0754,0.1761,1.2732,0.3914,0.1947,0.0938,0.5276,
1.970438,0.0922,-0.8578,-0.0754,-0.4039,1.8900,-0.4517,0.1947,0.0938,0.5276,
2.008673,0.0922,-0.8578,-0.0754,-0.4039,1.8900,-0.4517,-0.3965,0.1555,0.2975,
2.010336,0.0922,-0.8578,-0.0754,-0.2782,1.8294,-0.2884,-0.3965,0.1555,0.2975,
2.011921,0.1802,-0.9502,-0.1873,-0.2782,1.8294,-0.2884,-0.3965,0.1555,0.2975,
2.013242,0.1831,-0.9807,-0.2369,-0.2782,1.8294,-0.2884,-0.3965,0.1555,0.2975,
2.014370,0.1294,-1.0244,-0.1956,-0.2782,1.8294,-0.2884,-0.3965,0.1555,0.2975,
2.019571,0.1330,-1.0176,-0.0901,-0.2782,1.8294,-0.2884,-0.3965,0.1555,0.2975,
2.020974,0.1626,-0.9695,0.0323,-0.2782,1.8294,-0.2884,-0.3965,0.1555,0.2975,
2.047174,0.1626,-0.9695,0.0323,-0.2782,1.8294,-0.2884,-0.6404,-0.0309,-0.0530,
2.048815,0.1626,-0.9695,0.0323,0.6189,0.1374,-0.8506,-0.6404,-0.0309,-0.0530,
2.087615,0.1626,-0.9695,0.0323,0.6189,0.1374,-0.8506,0.0445,0.4527,-0.7049,
2.090284,0.1626,-0.9695,0.0323,-0.8156,-0.0189,2.6989,0.0445,0.4527,-0.7049,
2.091818,0.1819,-0.9504,0.2407,-0.8156,-0.0189,2.6989,0.0445,0.4527,-0.7049,
2.093978,-0.2559,-1.1429,0.3284,-0.8156,-0.0189,2.6989,0.0445,0.4527,-0.7049,
2.095362,-1.0423,-1.3694,-0.2406,-0.8156,-0.0189,2.6989,0.0445,0.4527,-0.7049,
2.096677,-0.7985,-1.2441,-0.6501,-0.8156,-0.0189,2.6989,0.0445,0.4527,-0.7049,
2.127177,-0.7985,-1.2441,-0.6501,-0.8156,-0.0189,2.6989,-0.1771,0.7031,-0.1052,
2.129558,-0.7985,-1.2441,-0.6501,-0.8506,-0.0280,2.6512,-0.1771,0.7031,-0.1052,
2.166435,-0.7985,-1.2441,-0.6501,-0.8506,-0.0280,2.6512,-0.9430,1.3849,-0.1766,
2.169133,-0.7985,-1.2441,-0.6501,-7.8320,-2.0421,-3.4754,-0.9430,1.3849,-0.1766,
2.173146,-0.2473,-1.0733,-0.5106,-7.8320,-2.0421,-3.4754,-0.9430,1.3849,-0.1766,
2.175944,-0.1618,-0.9971,-0.2279,-7.8320,-2.0421,-3.4754,-0.9430,1.3849,-0.1766,
2.177038,-0.1719,-1.0027,-0.1150,-7.8320,-2.0421,-3.4754,-0.9430,1.3849,-0.1766,
2.178280,-0.1748,-1.0203,-0.1842,-7.8320,-2.0421,-3.4754,-0.9430,1.3849,-0.1766,
2.209648,-0.1748,-1.0203,-0.1842,-7.8320,-2.0421,-3.4754,-0.6639,1.1931,-0.5121,
2.211926,-0.1748,-1.0203,-0.1842,-2.8453,0.0784,-0.3986,-0.6639,1.1931,-0.5121,
2.248627,-0.1748,-1.0203,-0.1842,-2.8453,0.0784,-0.3986,-0.6127,1.0205,-0.5601,
2.253023,-0.1748,-1.0203,-0.1842,-3.1999,1.2531,-1.1851,-0.6127,1.0205,-0.5601,
2.254735,-0.1628,-0.9438,-0.2780,-3.1999,1.2531,-1.1851,-0.6127,1.0205,-0.5601,
2.257898,-0.1843,-0.8639,-0.2968,-3.1999,1.2531,-1.1851,-0.6127,1.0205,-0.5601,
2.259949,-0.2139,-0.8219,-0.2611,-3.1999,1.2531,-1.1851,-0.6127,1.0205,-0.5601,
2.261778,-0.1704,-0.7760,-0.1969,-3.1999,1.2531,-1.1851,-0.6127,1.0205,-0.5601,
2.284808,-0.1704,-0.7760,-0.1969,-3.1999,1.2531,-1.1851,-0.6266,0.9364,-0.4141,
2.286512,-0.1704,-0.7760,-0.1969,-3.3240,1.1542,-0.9679,-0.6266,0.9364,-0.4141,
2.324709,-0.1704,-0.7760,-0.1969,-3.3240,1.1542,-0.9679,-0.2175,0.7489,-0.3513,
2.326599,-0.1704,-0.7760,-0.1969,-2.5357,1.9702,0.6527,-0.2175,0.7489,-0.3513,
2.327592,-0.0722,-0.7523,-0.0767,-2.5357,1.9702,0.6527,-0.2175,0.7489,-0.3513,
2.328565,-0.0416,-0.8229,-0.0718,-2.5357,1.9702,0.6527,-0.2175,0.7489,-0.3513,
2.329528,-0.0109,-0.9179,-0.1402,-2.5357,1.9702,0.6527,-0.2175,0.7489,-0.3513,
2.330333,0.0637,-0.9761,-0.2809,-2.5357,1.9702,0.6527,-0.2175,0.7489,-0.3513,
2.364165,0.0637,-0.9761,-0.2809,-2.5357,1.9702,0.6527,-0.1355,0.3707,-0.3001,
2.366060,0.0637,-0.9761,-0.2809,-2.6023,1.8867,0.6610,-0.1355,0.3707,-0.3001,
2.404655,0.0637,-0.9761,-0.2809,-2.6023,1.8867,0.6610,-0.5659,0.3515,-0.4141,
2.406805,0.0637,-0.9761,-0.2809,-1.2591,0.1257,-0.7738,-0.5659,0.3515,-0.4141,
2.408370,0.1194,-0.9734,-0.4280,-1.2591,0.1257,-0.7738,-0.5659,0.3515,-0.4141,
2.409623,0.0886,-0.9812,-0.5391,-1.2591,0.1257,-0.7738,-0.5659,0.3515,-0.4141,
2.410832,-0.0925,-1.0889,-0.4917,-1.2591,0.1257,-0.7738,-0.5659,0.3515,-0.4141,
2.412469,-0.3140,-1.2458,-0.6031,-1.2591,0.1257,-0.7738,-0.5659,0.3515,-0.4141,
2.443480,-0.3140,-1.2458,-0.6031,-1.2591,0.1257,-0.7738,-0.9462,0.4559,-0.0509,
2.445416,-0.3140,-1.2458,-0.6031,-2.8412,-1.3867,-2.9383,-0.9462,0.4559,-0.0509,
2.483180,-0.3140,-1.2458,-0.6031,-2.8412,-1.3867,-2.9383,-1.3425,0.3590,0.6543,
2.485488,-0.4176,-1.2228,-0.7321,-2.8412,-1.3867,-2.9383,-1.3425,0.3590,0.6543,
2.486997,-0.3724,-1.1146,-0.5946,-2.8412,-1.3867,-2.9383,-1.3425,0.3590,0.6543,
2.487892,-0.1714,-1.1436,-0.2804,-2.8412,-1.3867,-2.9383,-1.3425,0.3590,0.6543,
2.489174,0.0434,-1.0762,-0.0114,-2.8412,-1.3867,-2.9383,-1.3425,0.3590,0.6543,
2.490112,0.0434,-1.0762,-0.0114,-4.6156,-1.9703,-2.3145,-1.3425,0.3590,0.6543,
2.522300,0.0434,-1.0762,-0.0114,-4.6156,-1.9703,-2.3145,-0.6522,0.7723,0.7012,
2.523914,0.0434,-1.0762,-0.0114,-4.3348,-1.9589,-2.0599,-0.6522,0.7723,0.7012,
2.564417,0.0434,-1.0762,-0.0114,-4.3348,-1.9589,-2.0599,0.3321,0.2333,0.5393,
2.565785,0.0434,-1.0762,-0.0114,-0.5608,-0.3659,2.0415,0.3321,0.2333,0.5393,
2.566844,0.1052,-0.9819,-0.0520,-0.5608,-0.3659,2.0415,0.3321,0.2333,0.5393,
2.567755,-0.0118,-0.9580,-0.2308,-0.5608,-0.3659,2.0415,0.3321,0.2333,0.5393,
2.568817,-0.0812,-0.9660,-0.2528,-0.5608,-0.3659,2.0415,0.3321,0.2333,0.5393,
2.570778,-0.0478,-0.9081,-0.3100,-0.5608,-0.3659,2.0415,0.3321,0.2333,0.5393,
2.602700,-0.0478,-0.9081,-0.3100,-0.5608,-0.3659,2.0415,0.7220,-0.2897,0.6330,
2.604537,-0.0478,-0.9081,-0.3100,-0.2816,-0.2552,1.7336,0.7220,-0.2897,0.6330,
2.642295,-0.0478,-0.9081,-0.3100,-0.2816,-0.2552,1.7336,0.8190,-0.3846,0.6000,
2.643889,-0.0478,-0.9081,-0.3100,-0.8838,0.8606,-0.7511,0.8190,-0.3846,0.6000,
2.645278,-0.0074,-0.8234,-0.4048,-0.8838,0.8606,-0.7511,0.8190,-0.3846,0.6000,
2.646530,0.0187,-0.7603,-0.3503,-0.8838,0.8606,-0.7511,0.8190,-0.3846,0.6000,
2.647784,0.0101,-0.7244,-0.2518,-0.8838,0.8606,-0.7511,0.8190,-0.3846,0.6000,
2.649379,-0.0802,-0.7496,-0.3317,-0.8838,0.8606,-0.7511,0.8190,-0.3846,0.6000,
2.681811,-0.0802,-0.7496,-0.3317,-0.8838,0.8606,-0.7511,0.9670,-0.9246,0.5169,
2.683859,-0.0802,-0.7496,-0.3317,-0.3179,2.4067,-0.9792,0.9670,-0.9246,0.5169,
2.721979,-0.0802,-0.7496,-0.3317,-0.3179,2.4067,-0.9792,0.3396,-1.1814,0.5041,
2.724457,-0.0802,-0.7496,-0.3317,-0.9170,-0.8460,-1.9534,0.3396,-1.1814,0.5041,
2.726365,-0.1958,-0.8722,-0.5963,-0.9170,-0.8460,-1.9534,0.3396,-1.1814,0.5041,
2.727763,-0.1919,-1.1600,-0.4957,-0.9170,-0.8460,-1.9534,0.3396,-1.1814,0.5041,
2.728986,0.0583,-1.2123,-0.1143,-0.9170,-0.8460,-1.9534,0.3396,-1.1814,0.5041,
2.730348,0.1325,-1.0134,-0.1194,-0.9170,-0.8460,-1.9534,0.3396,-1.1814,0.5041,
2.760625,0.1325,-1.0134,-0.1194,-0.9170,-0.8460,-1.9534,0.0008,0.0021,0.2399,
2.762446,0.1325,-1.0134,-0.1194,-0.8053,-0.8283,-1.9079,0.0008,0.0021,0.2399,
2.797724,0.1580,-1.0638,-0.2868,-0.8053,-0.8283,-1.9079,0.0008,0.0021,0.2399,
2.799418,0.3971,-1.0577,0.1581,-0.8053,-0.8283,-1.9079,0.0008,0.0021,0.2399,
2.800164,0.7247,-0.9098,0.4889,-0.8053,-0.8283,-1.9079,0.0008,0.0021,0.2399,
2.802456,0.7247,-0.9098,0.4889,-0.8053,-0.8283,-1.9079,-0.3848,0.3569,0.0333,
2.803863,0.7247,-0.9098,0.4889,2.4433,-0.4910,1.3434,-0.3848,0.3569,0.0333,
2.840126,0.7247,-0.9098,0.4889,2.4433,-0.4910,1.3434,0.1692,0.0490,-0.5643,
2.841813,0.7247,-0.9098,0.4889,4.3424,1.2407,1.4778,0.1692,0.0490,-0.5643,
2.881101,0.7247,-0.9098,0.4889,4.3424,1.2407,1.4778,-0.0695,-0.6061,-0.3672,
2.883258,0.7247,-0.9098,0.4889,4.1558,1.2050,1.4756,-0.0695,-0.6061,-0.3672,
2.884601,0.5337,-0.8209,-0.2228,4.1558,1.2050,1.4756,-0.0695,-0.6061,-0.3672,
2.886054,0.1088,-0.8703,-0.4429,4.1558,1.2050,1.4756,-0.0695,-0.6061,-0.3672,
2.887418,0.1518,-0.9565,-0.0283,4.1558,1.2050,1.4756,-0.0695,-0.6061,-0.3672,
2.888968,0.2154,-1.0645,-0.0024,4.1558,1.2050,1.4756,-0.0695,-0.6061,-0.3672,
2.890231,0.1426,-1.1126,-0.2137,4.1558,1.2050,1.4756,-0.0695,-0.6061,-0.3672,
2.918688,0.1426,-1.1126,-0.2137,4.1558,1.2050,1.4756,0.0957,-0.9342,-0.1446,
2.920665,0.1426,-1.1126,-0.2137,1.3448,-0.5174,1.2025,0.0957,-0.9342,-0.1446,
2.959015,0.1426,-1.1126,-0.2137,1.3448,-0.5174,1.2025,0.3662,-1.1888,0.0003,
2.960612,0.1426,-1.1126,-0.2137,1.4200,-0.8475,1.5092,0.3662,-1.1888,0.0003,
2.965493,0.1013,-1.1324,-0.1854,1.4200,-0.8475,1.5092,0.3662,-1.1888,0.0003,
2.967053,0.2259,-1.0655,0.1188,1.4200,-0.8475,1.5092,0.3662,-1.1888,0.0003,
2.968531,0.1870,-1.0511,-0.0346,1.4200,-0.8475,1.5092,0.3662,-1.1888,0.0003,
2.969605,-0.0018,-1.0611,-0.2037,1.4200,-0.8475,1.5092,0.3662,-1.1888,0.0003,
2.999340,-0.0018,-1.0611,-0.2037,1.4200,-0.8475,1.5092,0.5601,-0.7095,-0.0668,
3.001648,-0.0018,-1.0611,-0.2037,1.4127,-0.7924,1.2713,0.5601,-0.7095,-0.0668,
3.041287,-0.0018,-1.0611,-0.2037,1.4127,-0.7924,1.2713,0.6283,-0.4612,-0.0530,
3.045640,0.0060,-1.0220,-0.1224,1.4127,-0.7924,1.2713,0.6283,-0.4612,-0.0530,
3.047380,0.1074,-0.9829,-0.0515,1.4127,-0.7924,1.2713,0.6283,-0.4612,-0.0530,
3.050073,0.1088,-0.9629,-0.0669,1.4127,-0.7924,1.2713,0.6283,-0.4612,-0.0530,
3.051828,0.0387,-0.9441,-0.0928,1.4127,-0.7924,1.2713,0.6283,-0.4612,-0.0530,
3.053330,0.0387,-0.9441,-0.0928,0.1020,-0.1550,0.1259,0.6283,-0.4612,-0.0530,
3.076872,0.0387,-0.9441,-0.0928,0.1020,-0.1550,0.1259,0.7646,-0.4176,-0.1308,
3.078953,0.0387,-0.9441,-0.0928,0.0695,-0.1172,-0.1654,0.7646,-0.4176,-0.1308,
3.118594,0.0387,-0.9441,-0.0928,0.0695,-0.1172,-0.1654,0.5761,-0.3451,-0.0999,
3.120130,0.0387,-0.9441,-0.0928,-0.0412,0.6004,-0.1027,0.5761,-0.3451,-0.0999,
3.121229,-0.0622,-0.9419,-0.1314,-0.0412,0.6004,-0.1027,0.5761,-0.3451,-0.0999,
3.122313,-0.1049,-0.9587,-0.1744,-0.0412,0.6004,-0.1027,0.5761,-0.3451,-0.0999,
3.123041,-0.0824,-0.9902,-0.1368,-0.0412,0.6004,-0.1027,0.5761,-0.3451,-0.0999,
3.123751,-0.0680,-0.9919,-0.0979,-0.0412,0.6004,-0.1027,0.5761,-0.3451,-0.0999,
3.156511,-0.0680,-0.9919,-0.0979,-0.0412,0.6004,-0.1027,0.3023,-0.0543,-0.2373,
3.157917,-0.0680,-0.9919,-0.0979,-1.2210,0.2994,-0.5941,0.3023,-0.0543,-0.2373,
3.199520,-0.0680,-0.9919,-0.0979,-1.2210,0.2994,-0.5941,0.1148,0.1492,-0.4045,
3.201657,-0.0680,-0.9919,-0.0979,-3.6807,-0.4344,-0.7484,0.1148,0.1492,-0.4045,
3.203505,-0.1333,-0.9993,-0.1314,-3.6807,-0.4344,-0.7484,0.1148,0.1492,-0.4045,
3.204666,-0.3275,-1.0562,-0.1370,-3.6807,-0.4344,-0.7484,0.1148,0.1492,-0.4045,
3.206450,-0.5202,-1.1114,-0.1778,-3.6807,-0.4344,-0.7484,0.1148,0.1492,-0.4045,
3.207827,-0.6334,-1.1441,-0.3386,-3.6807,-0.4344,-0.7484,0.1148,0.1492,-0.4045,
3.239306,-0.6334,-1.1441,-0.3386,-3.6807,-0.4344,-0.7484,-0.3315,0.2131,-0.0115,
3.241269,-0.6334,-1.1441,-0.3386,-3.6193,-0.4360,-0.6102,-0.3315,0.2131,-0.0115,
3.275905,-0.6334,-1.1441,-0.3386,-3.6193,-0.4360,-0.6102,-1.0548,0.3526,0.3028,
3.277781,-0.6334,-1.1441,-0.3386,-4.8502,-0.8336,-2.8294,-1.0548,0.3526,0.3028,
3.279173,-0.5298,-1.0985,-0.4966,-4.8502,-0.8336,-2.8294,-1.0548,0.3526,0.3028,
3.280555,-0.2557,-1.0388,-0.4324,-4.8502,-0.8336,-2.8294,-1.0548,0.3526,0.3028,
3.281700,-0.1110,-1.0398,-0.2655,-4.8502,-0.8336,-2.8294,-1.0548,0.3526,0.3028,
3.282894,-0.0470,-1.0200,-0.1773,-4.8502,-0.8336,-2.8294,-1.0548,0.3526,0.3028,
3.320103,-0.0470,-1.0200,-0.1773,-4.7215,-0.8716,-2.4141,-1.0548,0.3526,0.3028,
3.321833,-0.0470,-1.0200,-0.1773,-4.7215,-0.8716,-2.4141,-0.9483,0.3270,0.1419,
3.355244,-0.0470,-1.0200,-0.1773,-4.7215,-0.8716,-2.4141,-0.4210,0.3526,-0.0466,
3.356676,-0.0470,-1.0200,-0.1773,-0.5692,-0.0510,-0.0424,-0.4210,0.3526,-0.0466,
3.357369,0.0204,-0.9614,-0.1487,-0.5692,-0.0510,-0.0424,-0.4210,0.3526,-0.0466,
3.358004,0.0326,-0.8642,0.0057,-0.5692,-0.0510,-0.0424,-0.4210,0.3526,-0.0466,
3.358749,-0.1250,-0.8595,0.0335,-0.5692,-0.0510,-0.0424,-0.4210,0.3526,-0.0466,
3.359331,-0.3321,-0.8952,-0.1500,-0.5692,-0.0510,-0.0424,-0.4210,0.3526,-0.0466,
3.395085,-0.3321,-0.8952,-0.1500,-0.5692,-0.0510,-0.0424,0.0062,-0.3782,0.0823,
3.397621,-0.3321,-0.8952,-0.1500,-1.4188,1.2407,1.4988,0.0062,-0.3782,0.0823,
3.434742,-0.3321,-0.8952,-0.1500,-1.4188,1.2407,1.4988,0.0914,-0.5241,0.3486,
3.437504,-0.3321,-0.8952,-0.1500,-1.8148,1.4371,0.1805,0.0914,-0.5241,0.3486,
3.438797,-0.3404,-0.8840,-0.1646,-1.8148,1.4371,0.1805,0.0914,-0.5241,0.3486,
3.439934,-0.1802,-0.8471,-0.1395,-1.8148,1.4371,0.1805,0.0914,-0.5241,0.3486,
3.441365,-0.0886,-0.8214,-0.1981,-1.8148,1.4371,0.1805,0.0914,-0.5241,0.3486,
3.443243,-0.0888,-0.8126,-0.2443,-1.8148,1.4371,0.1805,0.0914,-0.5241,0.3486,
3.474017,-0.0888,-0.8126,-0.2443,-1.8148,1.4371,0.1805,0.1244,-0.2556,0.2527,
3.476278,-0.0888,-0.8126,-0.2443,-1.6677,1.4174,0.1276,0.1244,-0.2556,0.2527,
3.514474,-0.0888,-0.8126,-0.2443,-1.6677,1.4174,0.1276,0.2735,-0.3302,0.0141,
3.517004,-0.0888,-0.8126,-0.2443,-0.4223,1.9564,-0.6281,0.2735,-0.3302,0.0141,
3.518436,-0.0871,-0.7972,-0.2445,-0.4223,1.9564,-0.6281,0.2735,-0.3302,0.0141,
3.519574,-0.0629,-0.7723,-0.2145,-0.4223,1.9564,-0.6281,0.2735,-0.3302,0.0141,
3.520810,-0.0661,-0.7813,-0.1976,-0.4223,1.9564,-0.6281,0.2735,-0.3302,0.0141,
3.522406,-0.1711,-0.8778,-0.2814,-0.4223,1.9564,-0.6281,0.2735,-0.3302,0.0141,
3.553681,-0.1711,-0.8778,-0.2814,-0.4223,1.9564,-0.6281,0.4983,-0.6317,-0.1979,
3.556177,-0.1711,-0.8778,-0.2814,-0.4513,1.9546,-0.8146,0.4983,-0.6317,-0.1979,
3.593504,-0.1711,-0.8778,-0.2814,-0.4513,1.9546,-0.8146,-0.3486,-0.6008,-0.1020,
3.597021,-0.1711,-0.8778,-0.2814,-1.5858,0.5034,-2.1806,-0.3486,-0.6008,-0.1020,
3.598555,-0.3566,-1.1583,-0.6931,-1.5858,0.5034,-2.1806,-0.3486,-0.6008,-0.1020,
3.600016,-0.4140,-1.7657,-1.2616,-1.5858,0.5034,-2.1806,-0.3486,-0.6008,-0.1020,
3.601334,-0.2444,-2.0928,-0.9388,-1.5858,0.5034,-2.1806,-0.3486,-0.6008,-0.1020,
3.603115,0.3409,-1.1063,-0.0439,-1.5858,0.5034,-2.1806,-0.3486,-0.6008,-0.1020,
3.632515,0.3409,-1.1063,-0.0439,-1.5858,0.5034,-2.1806,-1.6620,0.6967,0.1856,
3.635583,0.3409,-1.1063,-0.0439,-0.6568,-6.5287,-4.9514,-1.6620,0.6967,0.1856,
3.672298,0.3409,-1.1063,-0.0439,-0.6568,-6.5287,-4.9514,0.5164,-0.4495,0.1750,
3.675372,0.3409,-1.1063,-0.0439,2.4939,4.0200,9.6095,0.5164,-0.4495,0.1750,
3.676955,0.2391,-0.4051,1.3269,2.4939,4.0200,9.6095,0.5164,-0.4495,0.1750,
3.678075,0.1013,-0.4215,1.0210,2.4939,4.0200,9.6095,0.5164,-0.4495,0.1750,
3.679456,0.2867,-0.9011,-0.0207,2.4939,4.0200,9.6095,0.5164,-0.4495,0.1750,
3.681129,0.2212,-1.3533,-0.4571,2.4939,4.0200,9.6095,0.5164,-0.4495,0.1750,
3.712347,0.2212,-1.3533,-0.4571,2.4939,4.0200,9.6095,0.9468,0.1246,-0.0871,
3.716552,0.2212,-1.3533,-0.4571,2.4104,4.0207,9.0908,0.9468,0.1246,-0.0871,
3.751311,0.2212,-1.3533,-0.4571,2.4104,4.0207,9.0908,0.4642,1.0685,-0.1659,
3.754213,0.2212,-1.3533,-0.4571,1.7763,-2.5835,-0.4286,0.4642,1.0685,-0.1659,
3.755994,0.1003,-1.3281,-0.1666,1.7763,-2.5835,-0.4286,0.4642,1.0685,-0.1659,
3.757112,0.1580,-1.0899,0.0851,1.7763,-2.5835,-0.4286,0.4642,1.0685,-0.1659,
3.758099,0.1851,-0.9665,0.0614,1.7763,-2.5835,-0.4286,0.4642,1.0685,-0.1659,
3.759160,0.1289,-0.9743,-0.0036,1.7763,-2.5835,-0.4286,0.4642,1.0685,-0.1659,
3.790924,0.1289,-0.9743,-0.0036,1.7763,-2.5835,-0.4286,0.7593,0.6903,-0.0455,
3.793421,0.1289,-0.9743,-0.0036,1.6968,-2.5050,-0.7053,0.7593,0.6903,-0.0455,
3.831239,0.1289,-0.9743,-0.0036,1.6968,-2.5050,-0.7053,0.6890,-0.0788,0.2602,
3.833659,0.1289,-0.9743,-0.0036,1.2281,0.1415,0.5626,0.6890,-0.0788,0.2602,
3.835205,-0.0033,-1.0266,-0.1228,1.2281,0.1415,0.5626,0.6890,-0.0788,0.2602,
3.836321,-0.0343,-1.0098,-0.2281,1.2281,0.1415,0.5626,0.6890,-0.0788,0.2602,
3.837414,0.0786,-0.9536,-0.2147,1.2281,0.1415,0.5626,0.6890,-0.0788,0.2602,
3.838575,0.1218,-0.9169,-0.2071,1.2281,0.1415,0.5626,0.6890,-0.0788,0.2602,
3.870245,0.1218,-0.9169,-0.2071,1.2281,0.1415,0.5626,0.1265,-0.0149,0.3454,
3.872864,0.1218,-0.9169,-0.2071,0.8759,0.4193,-1.3742,0.1265,-0.0149,0.3454,
3.909975,0.1218,-0.9169,-0.2071,0.8759,0.4193,-1.3742,-0.4029,0.4847,0.2751,
3.912247,0.1218,-0.9169,-0.2071,1.6062,0.3779,-0.8986,-0.4029,0.4847,0.2751,
3.913614,0.0915,-0.9111,-0.1781,1.6062,0.3779,-0.8986,-0.4029,0.4847,0.2751,
3.915327,0.1186,-0.9660,-0.1807,1.6062,0.3779,-0.8986,-0.4029,0.4847,0.2751,
3.916683,0.1599,-1.0085,-0.2005,1.6062,0.3779,-0.8986,-0.4029,0.4847,0.2751,
3.917730,0.2278,-0.9770,-0.2025,1.6062,0.3779,-0.8986,-0.4029,0.4847,0.2751,
3.949415,0.2278,-0.9770,-0.2025,1.6062,0.3779,-0.8986,-0.7289,0.5667,0.3294,
3.951952,0.2278,-0.9770,-0.2025,1.6815,0.3353,-0.5959,-0.7289,0.5667,0.3294,
3.990453,0.2278,-0.9770,-0.2025,1.6815,0.3353,-0.5959,-0.8897,-0.1129,0.3763,
3.993474,0.3216,-0.9338,-0.1878,1.6815,0.3353,-0.5959,-0.8897,-0.1129,0.3763,
3.994793,0.3856,-0.9042,-0.2518,1.6815,0.3353,-0.5959,-0.8897,-0.1129,0.3763,
3.996077,0.4694,-0.9406,-0.3625,1.6815,0.3353,-0.5959,-0.8897,-0.1129,0.3763,
3.997413,0.5642,-1.1202,-0.3603,1.6815,0.3353,-0.5959,-0.8897,-0.1129,0.3763,
4.000247,0.5642,-1.1202,-0.3603,3.6183,0.4998,-0.5171,-0.8897,-0.1129,0.3763,
4.028475,0.5642,-1.1202,-0.3603,3.6183,0.4998,-0.5171,-1.2988,-1.5052,0.1771,
4.030317,0.5642,-1.1202,-0.3603,3.7324,0.3954,-0.0588,-1.2988,-1.5052,0.1771,
4.068753,0.5642,-1.1202,-0.3603,3.7324,0.3954,-0.0588,-2.2469,-2.3830,-0.6357,
4.071250,0.5642,-1.1202,-0.3603,6.0644,-1.7683,-0.7219,-2.2469,-2.3830,-0.6357,
4.072682,0.6497,-1.3647,-0.3652,6.0644,-1.7683,-0.7219,-2.2469,-2.3830,-0.6357,
4.074411,0.5703,-1.4419,-0.5611,6.0644,-1.7683,-0.7219,-2.2469,-2.3830,-0.6357,
4.075830,0.1912,-1.3379,-0.6388,6.0644,-1.7683,-0.7219,-2.2469,-2.3830,-0.6357,
4.077119,0.0751,-1.1261,-0.6139,6.0644,-1.7683,-0.7219,-2.2469,-2.3830,-0.6357,
4.107678,0.0751,-1.1261,-0.6139,6.0644,-1.7683,-0.7219,-3.0256,-1.0652,-1.1619,
4.109777,0.0751,-1.1261,-0.6139,2.9599,-3.6599,-1.9721,-3.0256,-1.0652,-1.1619,
4.149372,0.0751,-1.1261,-0.6139,2.9599,-3.6599,-1.9721,-1.4479,-0.3196,-1.5444,
4.152112,0.0751,-1.1261,-0.6139,2.3576,1.1878,6.9868,-1.4479,-0.3196,-1.5444,
4.153323,0.1369,-0.8986,-0.0217,2.3576,1.1878,6.9868,-1.4479,-0.3196,-1.5444,
4.154288,0.2308,-0.6477,0.6135,2.3576,1.1878,6.9868,-1.4479,-0.3196,-1.5444,
4.155522,0.4484,-0.7953,0.2158,2.3576,1.1878,6.9868,-1.4479,-0.3196,-1.5444,
4.156783,0.6742,-1.1290,-0.1238,2.3576,1.1878,6.9868,-1.4479,-0.3196,-1.5444,
4.187445,0.6742,-1.1290,-0.1238,2.3576,1.1878,6.9868,-0.0194,-0.7095,-2.2943,
4.189985,0.6742,-1.1290,-0.1238,1.6539,1.1067,6.8956,-0.0194,-0.7095,-2.2943,
4.226751,0.6742,-1.1290,-0.1238,1.6539,1.1067,6.8956,0.4941,-1.2922,-3.4171,
4.229716,0.6742,-1.1290,-0.1238,6.2113,-3.7284,2.8979,0.4941,-1.2922,-3.4171,
4.231102,0.9468,-1.3117,-0.1128,6.2113,-3.7284,2.8979,0.4941,-1.2922,-3.4171,
4.233024,0.9173,-1.3635,-0.1360,6.2113,-3.7284,2.8979,0.4941,-1.2922,-3.4171,
4.234315,0.3060,-1.3904,-0.0053,6.2113,-3.7284,2.8979,0.4941,-1.2922,-3.4171,
4.235907,-0.2386,-1.3731,0.0604,6.2113,-3.7284,2.8979,0.4941,-1.2922,-3.4171,
4.266903,-0.2386,-1.3731,0.0604,6.2113,-3.7284,2.8979,1.1545,-2.5140,-3.0986,
4.269414,-0.2386,-1.3731,0.0604,5.4605,-3.7779,2.7024,1.1545,-2.5140,-3.0986,
4.306592,-0.2386,-1.3731,0.0604,5.4605,-3.7779,2.7024,1.1897,-2.5971,-2.0387,
4.309236,-0.2386,-1.3731,0.0604,-4.1538,-4.4196,3.7683,1.1897,-2.5971,-2.0387,
4.310567,-0.4027,-1.2419,-0.0525,-4.1538,-4.4196,3.7683,1.1897,-2.5971,-2.0387,
4.312013,-0.3825,-0.9414,-0.0938,-4.1538,-4.4196,3.7683,1.1897,-2.5971,-2.0387,
4.313310,-0.3837,-0.6924,0.0445,-4.1538,-4.4196,3.7683,1.1897,-2.5971,-2.0387,
4.314680,-0.4592,-0.6453,0.0528,-4.1538,-4.4196,3.7683,1.1897,-2.5971,-2.0387,
4.345947,-0.4592,-0.6453,0.0528,-4.1538,-4.4196,3.7683,1.2451,-0.9619,-1.2887,
4.348524,-0.4592,-0.6453,0.0528,-7.2410,1.2145,3.4071,1.2451,-0.9619,-1.2887,
4.384773,-0.4592,-0.6453,0.0528,-7.2410,1.2145,3.4071,1.0650,0.3750,-0.4557,
4.387933,-0.4592,-0.6453,0.0528,-8.2415,2.9045,0.3044,1.0650,0.3750,-0.4557,
4.389070,-0.5151,-0.6521,-0.0561,-8.2415,2.9045,0.3044,1.0650,0.3750,-0.4557,
4.389793,-0.5347,-0.5678,-0.3395,-8.2415,2.9045,0.3044,1.0650,0.3750,-0.4557,
4.390471,-0.4626,-0.5497,-0.4211,-8.2415,2.9045,0.3044,1.0650,0.3750,-0.4557,
4.391177,0.0033,-0.5566,-0.4214,-8.2415,2.9045,0.3044,1.0650,0.3750,-0.4557,
4.423782,0.0033,-0.5566,-0.4214,-8.2415,2.9045,0.3044,0.7178,-0.4250,-0.0232,
4.424811,0.0033,-0.5566,-0.4214,-8.0651,2.9333,0.1099,0.7178,-0.4250,-0.0232,
4.465320,0.3339,-0.8261,-0.5284,-8.0651,2.9333,0.1099,0.7178,-0.4250,-0.0232,
4.467817,0.3448,-1.3496,-0.2333,-8.0651,2.9333,0.1099,0.7178,-0.4250,-0.0232,
4.469248,-0.1096,-1.6660,0.2077,-8.0651,2.9333,0.1099,0.7178,-0.4250,-0.0232,
4.470580,-0.1096,-1.6660,0.2077,-8.0651,2.9333,0.1099,0.2980,0.0011,-0.2181,
4.471967,-0.1096,-1.6660,0.2077,-0.9560,-0.2028,-1.1698,0.2980,0.0011,-0.2181,
4.504607,-0.1096,-1.6660,0.2077,-0.9560,-0.2028,-1.1698,0.4557,0.3675,-0.0434,
4.507460,-0.1096,-1.6660,0.2077,-7.4473,-8.4701,1.8980,0.4557,0.3675,-0.0434,
4.544553,-0.1096,-1.6660,0.2077,-7.4473,-8.4701,1.8980,-0.0982,2.0048,0.2985,
4.546817,-0.1096,-1.6660,0.2077,-7.4019,-8.3008,1.6541,-0.0982,2.0048,0.2985,
4.548367,-0.4990,-1.7979,0.0775,-7.4019,-8.3008,1.6541,-0.0982,2.0048,0.2985,
4.549559,-0.7191,-1.8558,-0.4566,-7.4019,-8.3008,1.6541,-0.0982,2.0048,0.2985,
4.550818,-0.8669,-1.2809,-0.2030,-7.4019,-8.3008,1.6541,-0.0982,2.0048,0.2985,
4.552134,-0.7948,-1.2113,0.3474,-7.4019,-8.3008,1.6541,-0.0982,2.0048,0.2985,
4.554503,-0.3094,-1.4402,0.2685,-7.4019,-8.3008,1.6541,-0.0982,2.0048,0.2985,
4.582848,-0.3094,-1.4402,0.2685,-7.4019,-8.3008,1.6541,-0.0247,1.9132,1.0464,
4.584547,-0.3094,-1.4402,0.2685,-9.1300,-3.5876,3.2901,-0.0247,1.9132,1.0464,
4.623464,-0.3094,-1.4402,0.2685,-9.1300,-3.5876,3.2901,0.2096,1.0120,0.8834,
4.626732,-0.3094,-1.4402,0.2685,2.8664,-4.5168,1.5623,0.2096,1.0120,0.8834,
4.628590,0.4423,-1.4964,0.0716,2.8664,-4.5168,1.5623,0.2096,1.0120,0.8834,
4.629744,0.7643,-1.4529,-0.0395,2.8664,-4.5168,1.5623,0.2096,1.0120,0.8834,
4.631141,0.4326,-1.3232,-0.0845,2.8664,-4.5168,1.5623,0.2096,1.0120,0.8834,
4.632374,-0.0563,-1.0752,-0.1290,2.8664,-4.5168,1.5623,0.2096,1.0120,0.8834,
4.664510,-0.0563,-1.0752,-0.1290,2.8664,-4.5168,1.5623,-0.0119,2.1369,0.2517,
4.667145,-0.0563,-1.0752,-0.1290,2.7761,-4.4179,1.3336,-0.0119,2.1369,0.2517,
4.702750,-0.4039,-0.9150,-0.2750,2.7761,-4.4179,1.3336,-0.0119,2.1369,0.2517,
4.705498,-0.5796,-0.8177,-0.3845,2.7761,-4.4179,1.3336,-0.0119,2.1369,0.2517,
4.706842,-0.5777,-0.7948,-0.2206,2.7761,-4.4179,1.3336,-0.0119,2.1369,0.2517,
4.707840,-0.5777,-0.7948,-0.2206,2.7761,-4.4179,1.3336,-0.7502,2.3255,0.6266,
4.709257,-0.5777,-0.7948,-0.2206,-5.7793,0.3782,-1.0041,-0.7502,2.3255,0.6266,
4.742490,-0.5777,-0.7948,-0.2206,-5.7793,0.3782,-1.0041,-1.4053,2.3340,1.3052,
4.745192,-0.5777,-0.7948,-0.2206,-5.7814,0.1297,-0.4940,-1.4053,2.3340,1.3052,
4.781760,-0.5777,-0.7948,-0.2206,-5.7814,0.1297,-0.4940,-2.1393,2.6014,1.6674,
4.785580,-0.5777,-0.7948,-0.2206,-5.2885,0.0563,0.1321,-2.1393,2.6014,1.6674,
4.786793,-0.4562,-0.9487,-0.2259,-5.2885,0.0563,0.1321,-2.1393,2.6014,1.6674,
4.787941,-0.1396,-1.1456,-0.2882,-5.2885,0.0563,0.1321,-2.1393,2.6014,1.6674,
4.789428,0.3343,-1.1715,-0.1522,-5.2885,0.0563,0.1321,-2.1393,2.6014,1.6674,
4.790557,0.6527,-1.0376,-0.2181,-5.2885,0.0563,0.1321,-2.1393,2.6014,1.6674,
4.791505,0.7841,-0.8732,-0.3376,-5.2885,0.0563,0.1321,-2.1393,2.6014,1.6674,
4.821117,0.7841,-0.8732,-0.3376,-5.2885,0.0563,0.1321,-2.4077,2.8102,1.0741,
4.824018,0.7841,-0.8732,-0.3376,4.3344,-0.7796,0.9459,-2.4077,2.8102,1.0741,
4.862360,0.7841,-0.8732,-0.3376,4.3344,-0.7796,0.9459,-1.3393,2.2275,0.7726,
4.865403,0.7841,-0.8732,-0.3376,2.0810,-1.6818,2.0601,-1.3393,2.2275,0.7726,
4.866865,0.7438,-0.9443,-0.0581,2.0810,-1.6818,2.0601,-1.3393,2.2275,0.7726,
4.868161,0.3397,-1.1669,0.0201,2.0810,-1.6818,2.0601,-1.3393,2.2275,0.7726,
4.869551,0.0158,-1.2138,-0.4285,2.0810,-1.6818,2.0601,-1.3393,2.2275,0.7726,
4.870709,-0.0925,-0.8771,-0.5667,2.0810,-1.6818,2.0601,-1.3393,2.2275,0.7726,
4.900997,-0.0925,-0.8771,-0.5667,2.5862,-1.6888,2.2913,-1.3393,2.2275,0.7726,
4.904190,-0.0925,-0.8771,-0.5667,2.5862,-1.6888,2.2913,-0.8695,0.8458,1.8538,
4.940586,-0.0925,-0.8771,-0.5667,2.5862,-1.6888,2.2913,-0.4583,-0.4154,2.7039,
4.943959,-0.0925,-0.8771,-0.5667,-2.2873,2.7897,-0.1248,-0.4583,-0.4154,2.7039,
4.945472,-0.2813,-0.5453,-0.4661,-2.2873,2.7897,-0.1248,-0.4583,-0.4154,2.7039,
4.946742,-0.3512,-0.5116,-0.2262,-2.2873,2.7897,-0.1248,-0.4583,-0.4154,2.7039,
4.947991,-0.1789,-0.7181,-0.0813,-2.2873,2.7897,-0.1248,-0.4583,-0.4154,2.7039,
4.949477,0.0588,-0.8971,-0.1092,-2.2873,2.7897,-0.1248,-0.4583,-0.4154,2.7039,
4.980418,0.0588,-0.8971,-0.1092,-2.2873,2.7897,-0.1248,0.5335,0.1289,2.7156,
4.982785,0.0588,-0.8971,-0.1092,-1.3037,2.7640,-0.3078,0.5335,0.1289,2.7156,
5.019998,0.0588,-0.8971,-0.1092,-1.3037,2.7640,-0.3078,1.1279,0.5284,1.9561,
5.022892,0.0588,-0.8971,-0.1092,1.9341,0.7739,2.0816,1.1279,0.5284,1.9561,
5.024277,0.2036,-0.9406,-0.2110,1.9341,0.7739,2.0816,1.1279,0.5284,1.9561,
5.025588,0.1323,-0.8363,-0.2814,1.9341,0.7739,2.0816,1.1279,0.5284,1.9561,
5.026576,-0.0878,-0.5859,-0.2064,1.9341,0.7739,2.0816,1.1279,0.5284,1.9561,
5.027690,-0.1975,-0.4200,-0.4981,1.9341,0.7739,2.0816,1.1279,0.5284,1.9561,
5.059466,-0.1975,-0.4200,-0.4981,1.9341,0.7739,2.0816,1.3750,-0.2908,1.4554,
5.062559,-0.1975,-0.4200,-0.4981,1.6956,3.1118,-0.3445,1.3750,-0.2908,1.4554,
5.099197,-0.1975,-0.4200,-0.4981,1.6956,3.1118,-0.3445,0.2469,0.2535,0.9803,
5.101410,-0.1975,-0.4200,-0.4981,2.6910,-2.7265,-4.2000,0.2469,0.2535,0.9803,
5.102851,-0.2427,-0.6597,-0.9977,2.6910,-2.7265,-4.2000,0.2469,0.2535,0.9803,
5.103994,0.1088,-1.2284,-0.7646,2.6910,-2.7265,-4.2000,0.2469,0.2535,0.9803,
5.105253,0.1997,-1.7358,-0.4057,2.6910,-2.7265,-4.2000,0.2469,0.2535,0.9803,
5.106364,-0.0170,-1.6320,-0.9591,2.6910,-2.7265,-4.2000,0.2469,0.2535,0.9803,
5.138840,-0.0170,-1.6320,-0.9591,2.6910,-2.7265,-4.2000,-0.2942,0.5625,0.0972,
5.141185,-0.0170,-1.6320,-0.9591,2.6159,-2.7246,-3.9713,-0.2942,0.5625,0.0972,
5.179257,-0.0170,-1.6320,-0.9591,2.6159,-2.7246,-3.9713,-0.3177,0.4176,-0.5334,
5.181754,-0.0170,-1.6320,-0.9591,6.0398,-4.6742,-2.6341,-0.3177,0.4176,-0.5334,
5.183136,0.0830,-1.4556,-1.1533,6.0398,-4.6742,-2.6341,-0.3177,0.4176,-0.5334,
5.184451,1.1545,-1.1598,0.2932,6.0398,-4.6742,-2.6341,-0.3177,0.4176,-0.5334,
5.185830,1.1699,-0.5478,0.9641,6.0398,-4.6742,-2.6341,-0.3177,0.4176,-0.5334,
5.187110,0.1523,-0.9233,0.2507,6.0398,-4.6742,-2.6341,-0.3177,0.4176,-0.5334,
5.217970,0.1523,-0.9233,0.2507,6.0398,-4.6742,-2.6341,0.9127,-0.4879,-0.8679,
5.220729,0.1523,-0.9233,0.2507,5.6844,-4.4204,-2.9566,0.9127,-0.4879,-0.8679,
5.258517,0.1523,-0.9233,0.2507,5.6844,-4.4204,-2.9566,1.1822,-0.8799,-0.4653,
5.261127,0.1523,-0.9233,0.2507,5.9287,0.3868,4.5646,1.1822,-0.8799,-0.4653,
5.263185,0.0285,-1.3513,-0.5536,5.9287,0.3868,4.5646,1.1822,-0.8799,-0.4653,
5.264568,-0.0986,-1.4354,-0.1505,5.9287,0.3868,4.5646,1.1822,-0.8799,-0.4653,
5.266056,-0.2295,-1.2929,0.0213,5.9287,0.3868,4.5646,1.1822,-0.8799,-0.4653,
5.267332,-0.1181,-1.1158,-0.0605,5.9287,0.3868,4.5646,1.1822,-0.8799,-0.4653,
5.296868,-0.1181,-1.1158,-0.0605,5.9287,0.3868,4.5646,1.5934,-0.5891,0.1579,
5.298954,-0.1181,-1.1158,-0.0605,0.1663,-2.7823,1.1192,1.5934,-0.5891,0.1579,
5.336317,-0.1181,-1.1158,-0.0605,0.1663,-2.7823,1.1192,1.4837,-1.3582,0.4242,
5.338467,-0.1181,-1.1158,-0.0605,5.5921,0.0046,-2.4800,1.4837,-1.3582,0.4242,
5.339619,0.1396,-1.0352,-0.2054,5.5921,0.0046,-2.4800,1.4837,-1.3582,0.4242,
5.340583,0.4861,-0.9892,-0.3821,5.5921,0.0046,-2.4800,1.4837,-1.3582,0.4242,
5.341514,0.5449,-0.9829,-0.5115,5.5921,0.0046,-2.4800,1.4837,-1.3582,0.4242,
5.342522,0.4516,-1.0278,-0.7243,5.5921,0.0046,-2.4800,1.4837,-1.3582,0.4242,
5.375888,0.4516,-1.0278,-0.7243,5.5921,0.0046,-2.4800,0.4376,-1.9313,0.0876,
5.377602,0.4516,-1.0278,-0.7243,5.6015,0.0152,-2.7442,0.4376,-1.9313,0.0876,
5.415648,0.4516,-1.0278,-0.7243,5.4741,0.2386,-5.7453,0.4376,-1.9313,0.0876,
5.417901,0.4516,-1.0278,-0.7243,5.4741,0.2386,-5.7453,-1.3531,-2.0336,-0.0296,
5.419106,0.3849,-0.9934,-0.8506,5.4741,0.2386,-5.7453,-1.3531,-2.0336,-0.0296,
5.419848,0.3028,-0.9003,-0.5890,5.4741,0.2386,-5.7453,-1.3531,-2.0336,-0.0296,
5.420690,0.2427,-0.8065,-0.4756,5.4741,0.2386,-5.7453,-1.3531,-2.0336,-0.0296,
5.421694,0.2757,-0.7953,-0.4646,5.4741,0.2386,-5.7453,-1.3531,-2.0336,-0.0296,
5.455611,0.2757,-0.7953,-0.4646,5.4741,0.2386,-5.7453,-2.9489,-2.9092,-0.2884,
5.457612,0.2757,-0.7953,-0.4646,5.4742,0.0498,-4.7392,-2.9489,-2.9092,-0.2884,
5.497562,0.2757,-0.7953,-0.4646,4.7512,1.0417,-0.7501,-2.9489,-2.9092,-0.2884,
5.500830,0.2757,-0.7953,-0.4646,4.7512,1.0417,-0.7501,-3.6498,-3.7060,-1.2077,
5.503559,0.4323,-0.9084,-0.3459,4.7512,1.0417,-0.7501,-3.6498,-3.7060,-1.2077,
5.505090,0.4291,-1.1371,-0.1763,4.7512,1.0417,-0.7501,-3.6498,-3.7060,-1.2077,
5.506521,0.1990,-1.3225,0.2380,4.7512,1.0417,-0.7501,-3.6498,-3.7060,-1.2077,
5.507651,0.1191,-1.3753,0.9313,4.7512,1.0417,-0.7501,-3.6498,-3.7060,-1.2077,
5.535335,0.1191,-1.3753,0.9313,4.7512,1.0417,-0.7501,-2.5228,-2.7569,-1.5582,
5.540361,0.1191,-1.3753,0.9313,3.8779,-3.5102,7.3073,-2.5228,-2.7569,-1.5582,
5.575327,0.1191,-1.3753,0.9313,3.8779,-3.5102,7.3073,-0.8610,-1.0652,-1.7297,
5.578924,0.1191,-1.3753,0.9313,2.0394,-6.1172,5.1043,-0.8610,-1.0652,-1.7297,
5.580364,-0.0214,-1.4366,1.0562,2.0394,-6.1172,5.1043,-0.8610,-1.0652,-1.7297,
5.581882,-0.0309,-1.5780,0.0086,2.0394,-6.1172,5.1043,-0.8610,-1.0652,-1.7297,
5.583051,0.3813,-1.6323,-0.7966,2.0394,-6.1172,5.1043,-0.8610,-1.0652,-1.7297,
5.584170,0.7587,-1.4825,-0.3085,2.0394,-6.1172,5.1043,-0.8610,-1.0652,-1.7297,
5.614126,0.7587,-1.4825,-0.3085,2.0394,-6.1172,5.1043,-1.0080,-0.8692,-2.9441,
5.616744,0.7587,-1.4825,-0.3085,1.1205,-6.1281,5.3539,-1.0080,-0.8692,-2.9441,
5.654592,0.7587,-1.4825,-0.3085,1.1205,-6.1281,5.3539,0.6293,-1.4796,-3.3883,
5.657205,0.7587,-1.4825,-0.3085,4.2477,-4.6744,5.8831,0.6293,-1.4796,-3.3883,
5.658583,0.6947,-1.3818,0.4202,4.2477,-4.6744,5.8831,0.6293,-1.4796,-3.3883,
5.659726,0.1484,-1.3772,0.4100,4.2477,-4.6744,5.8831,0.6293,-1.4796,-3.3883,
5.660977,-0.2950,-1.1732,0.1315,4.2477,-4.6744,5.8831,0.6293,-1.4796,-3.3883,
5.662481,-0.4936,-0.7586,0.1618,4.2477,-4.6744,5.8831,0.6293,-1.4796,-3.3883,
5.693088,-0.4936,-0.7586,0.1618,4.2477,-4.6744,5.8831,1.2877,-1.9185,-1.9822,
5.695770,-0.4936,-0.7586,0.1618,3.7640,-4.4902,5.4154,1.2877,-1.9185,-1.9822,
5.732454,-0.4936,-0.7586,0.1618,3.7640,-4.4902,5.4154,1.4038,-0.0373,-0.6400,
5.735146,-0.4936,-0.7586,0.1618,-6.5348,2.0004,4.9693,1.4038,-0.0373,-0.6400,
5.736625,-0.7257,-0.3592,0.2781,-6.5348,2.0004,4.9693,1.4038,-0.0373,-0.6400,
5.737865,-0.8146,-0.1818,0.2927,-6.5348,2.0004,4.9693,1.4038,-0.0373,-0.6400,
5.739490,-0.8735,-0.1454,0.1339,-6.5348,2.0004,4.9693,1.4038,-0.0373,-0.6400,
5.740853,-0.9593,-0.1654,-0.5438,-6.5348,2.0004,4.9693,1.4038,-0.0373,-0.6400,
5.773041,-0.9593,-0.1654,-0.5438,-10.1112,7.9347,1.9834,1.4038,-0.0373,-0.6400,
5.776467,-0.9593,-0.1654,-0.5438,-10.1112,7.9347,1.9834,1.8214,0.1768,-0.0732,
5.811289,-0.9593,-0.1654,-0.5438,-10.1112,7.9347,1.9834,1.6414,0.7574,0.3316,
5.813300,-0.9593,-0.1654,-0.5438,-3.4731,-0.2073,-0.9356,1.6414,0.7574,0.3316,
5.814277,-0.7780,-0.3734,-0.7720,-3.4731,-0.2073,-0.9356,1.6414,0.7574,0.3316,
5.815886,-0.0463,-0.9057,-0.2228,-3.4731,-0.2073,-0.9356,1.6414,0.7574,0.3316,
5.817061,0.1704,-1.7534,0.1840,-3.4731,-0.2073,-0.9356,1.6414,0.7574,0.3316,
5.817789,-0.2315,-2.2638,0.1266,-3.4731,-0.2073,-0.9356,1.6414,0.7574,0.3316,
5.851633,-0.2315,-2.2638,0.1266,-3.4731,-0.2073,-0.9356,0.5910,0.7936,0.8663,
5.853419,-0.2315,-2.2638,0.1266,-3.1338,-0.1269,-1.1817,0.5910,0.7936,0.8663,
5.891794,-0.2315,-2.2638,0.1266,-3.1338,-0.1269,-1.1817,-0.2197,1.1377,0.1909,
5.893851,-0.2315,-2.2638,0.1266,-6.1193,-13.5559,-1.1597,-0.2197,1.1377,0.1909,
5.895705,-0.8706,-2.9112,-0.0486,-6.1193,-13.5559,-1.1597,-0.2197,1.1377,0.1909,
5.897232,-0.5000,-2.0371,-0.9007,-6.1193,-13.5559,-1.1597,-0.2197,1.1377,0.1909,
5.898758,-0.2994,-0.4647,0.2873,-6.1193,-13.5559,-1.1597,-0.2197,1.1377,0.1909,
5.900201,-0.7802,-0.4684,0.6189,-6.1193,-13.5559,-1.1597,-0.2197,1.1377,0.1909,
5.933210,-0.7802,-0.4684,0.6189,-6.1193,-13.5559,-1.1597,-0.7789,4.9759,-0.2842,
5.936627,-0.7802,-0.4684,0.6189,-6.4345,-13.3904,-1.0487,-0.7789,4.9759,-0.2842,
5.971383,-0.7802,-0.4684,0.6189,-6.4345,-13.3904,-1.0487,-0.1302,3.8914,2.0200,
5.974351,-0.7802,-0.4684,0.6189,-7.2772,4.1647,5.2482,-0.1302,3.8914,2.0200,
5.975803,-0.9927,-0.9040,0.2578,-7.2772,4.1647,5.2482,-0.1302,3.8914,2.0200,
5.976925,-0.6531,-1.3498,0.8212,-7.2772,4.1647,5.2482,-0.1302,3.8914,2.0200,
5.978591,0.1606,-1.5907,0.7955,-7.2772,4.1647,5.2482,-0.1302,3.8914,2.0200,
5.979628,0.7228,-1.2978,0.2871,-7.2772,4.1647,5.2482,-0.1302,3.8914,2.0200,
6.010458,0.7228,-1.2978,0.2871,-7.2772,4.1647,5.2482,1.4219,4.0299,1.6759,
6.014032,0.7228,-1.2978,0.2871,0.7215,-3.5382,6.9303,1.4219,4.0299,1.6759,
6.051015,0.7228,-1.2978,0.2871,0.7215,-3.5382,6.9303,1.1194,5.3306,0.5989,
6.053354,0.7228,-1.2978,0.2871,5.4712,5.9337,0.9211,1.1194,5.3306,0.5989,
6.054662,0.6627,-0.6443,0.0648,5.4712,5.9337,0.9211,1.1194,5.3306,0.5989,
6.056438,0.5183,-0.3130,0.0870,5.4712,5.9337,0.9211,1.1194,5.3306,0.5989,
6.057642,0.4870,-0.3570,0.0523,5.4712,5.9337,0.9211,1.1194,5.3306,0.5989,
6.059113,0.5701,-0.8678,-0.2396,5.4712,5.9337,0.9211,1.1194,5.3306,0.5989,
6.090071,0.5701,-0.8678,-0.2396,5.4712,5.9337,0.9211,0.8978,5.6203,0.3869,
6.092498,0.5701,-0.8678,-0.2396,5.5187,5.8362,0.5684,0.8978,5.6203,0.3869,
6.129929,0.5701,-0.8678,-0.2396,5.5187,5.8362,0.5684,-0.0205,2.4320,-0.1766,
6.132725,0.5701,-0.8678,-0.2396,10.5913,-5.2953,-4.8494,-0.0205,2.4320,-0.1766,
6.134094,1.1789,-1.8492,-0.5843,10.5913,-5.2953,-4.8494,-0.0205,2.4320,-0.1766,
6.135758,1.5449,-2.0324,-0.6601,10.5913,-5.2953,-4.8494,-0.0205,2.4320,-0.1766,
6.137073,0.9151,-1.0628,-0.5890,10.5913,-5.2953,-4.8494,-0.0205,2.4320,-0.1766,
6.138442,0.1824,-0.4054,-1.0927,10.5913,-5.2953,-4.8494,-0.0205,2.4320,-0.1766,
6.169147,0.1824,-0.4054,-1.0927,10.5913,-5.2953,-4.8494,-0.9749,-2.3840,-0.0786,
6.171672,0.1824,-0.4054,-1.0927,10.4056,-5.2153,-4.3631,-0.9749,-2.3840,-0.0786,
6.208716,0.1824,-0.4054,-1.0927,10.4056,-5.2153,-4.3631,-0.8077,-3.4940,0.2943,
6.211392,0.1824,-0.4054,-1.0927,3.7822,3.1484,-5.5877,-0.8077,-3.4940,0.2943,
6.212839,0.1228,-0.6990,-0.3180,3.7822,3.1484,-5.5877,-0.8077,-3.4940,0.2943,
6.213999,0.2994,-1.1219,0.5023,3.7822,3.1484,-5.5877,-0.8077,-3.4940,0.2943,
6.215263,0.2044,-1.4178,0.5441,3.7822,3.1484,-5.5877,-0.8077,-3.4940,0.2943,
6.216405,0.0666,-1.3200,0.2988,3.7822,3.1484,-5.5877,-0.8077,-3.4940,0.2943,
6.248610,0.0666,-1.3200,0.2988,3.7822,3.1484,-5.5877,0.4440,-2.9135,-0.3396,
6.251007,0.0666,-1.3200,0.2988,1.5997,-2.3285,5.0954,0.4440,-2.9135,-0.3396,
6.288797,0.0666,-1.3200,0.2988,1.5997,-2.3285,5.0954,0.4099,-1.3390,-0.6538,
6.291341,0.0666,-1.3200,0.2988,-2.8672,1.5820,0.3180,0.4099,-1.3390,-0.6538,
6.292825,-0.0404,-0.9934,0.0460,-2.8672,1.5820,0.3180,0.4099,-1.3390,-0.6538,
6.293954,-0.2513,-0.8466,-0.0772,-2.8672,1.5820,0.3180,0.4099,-1.3390,-0.6538,
6.295216,-0.4491,-0.8146,-0.0388,-2.8672,1.5820,0.3180,0.4099,-1.3390,-0.6538,
6.296418,-0.5366,-0.7948,0.0008,-2.8672,1.5820,0.3180,0.4099,-1.3390,-0.6538,
6.327737,-0.5366,-0.7948,0.0008,-2.8597,1.5504,0.3738,0.4099,-1.3390,-0.6538,
6.332430,-0.5366,-0.7948,0.0008,-2.8597,1.5504,0.3738,-0.1121,-0.8671,-0.1478,
6.368162,-0.5366,-0.7948,0.0008,-2.8597,1.5504,0.3738,-0.6468,-0.3824,0.3646,
6.370549,-0.5366,-0.7948,0.0008,-4.9552,1.5471,0.6858,-0.6468,-0.3824,0.3646,
6.372423,-0.5102,-0.8493,-0.0180,-4.9552,1.5471,0.6858,-0.6468,-0.3824,0.3646,
6.373717,-0.4096,-0.9993,-0.0356,-4.9552,1.5471,0.6858,-0.6468,-0.3824,0.3646,
6.374839,-0.2073,-1.0159,0.0027,-4.9552,1.5471,0.6858,-0.6468,-0.3824,0.3646,
6.375897,-0.1118,-1.0112,0.1703,-4.9552,1.5471,0.6858,-0.6468,-0.3824,0.3646,
6.407185,-0.1118,-1.0112,0.1703,-4.9552,1.5471,0.6858,-0.7821,0.9406,0.0972,
6.409516,-0.1118,-1.0112,0.1703,-4.8724,1.4911,0.9776,-0.7821,0.9406,0.0972,
6.446865,-0.1401,-0.9423,0.2822,-4.8724,1.4911,0.9776,-0.7821,0.9406,0.0972,
6.449454,-0.2950,-0.8940,0.2805,-4.8724,1.4911,0.9776,-0.7821,0.9406,0.0972,
6.450609,-0.4528,-0.8627,0.0978,-4.8724,1.4911,0.9776,-0.7821,0.9406,0.0972,
6.452037,-0.4528,-0.8627,0.0978,-1.8335,0.4084,2.6321,-0.7821,0.9406,0.0972,
6.453713,-0.4528,-0.8627,0.0978,-1.8335,0.4084,2.6321,-0.1483,2.2275,-0.3598,
6.485968,-0.4528,-0.8627,0.0978,-1.8335,0.4084,2.6321,0.1596,2.4160,-0.2373,
6.487919,-0.4528,-0.8627,0.0978,-4.4387,1.7973,1.6607,0.1596,2.4160,-0.2373,
6.525913,-0.4528,-0.8627,0.0978,-4.4387,1.7973,1.6607,0.1638,2.7260,-0.0658,
6.528912,-0.4528,-0.8627,0.0978,-4.4914,1.7722,1.5123,0.1638,2.7260,-0.0658,
6.530271,-0.4704,-0.7791,-0.1793,-4.4914,1.7722,1.5123,0.1638,2.7260,-0.0658,
6.531704,-0.3504,-0.7769,-0.2460,-4.4914,1.7722,1.5123,0.1638,2.7260,-0.0658,
6.533008,-0.2281,-0.8774,-0.1013,-4.4914,1.7722,1.5123,0.1638,2.7260,-0.0658,
6.534098,-0.0456,-0.9108,0.1613,-4.4914,1.7722,1.5123,0.1638,2.7260,-0.0658,
6.536281,0.0661,-0.8915,0.1449,-4.4914,1.7722,1.5123,0.1638,2.7260,-0.0658,
6.565618,0.0661,-0.8915,0.1449,-2.6567,1.6580,0.0014,0.1638,2.7260,-0.0658,
6.567966,0.0661,-0.8915,0.1449,-2.6567,1.6580,0.0014,0.4408,3.3215,-0.1340,
6.605353,0.0661,-0.8915,0.1449,-2.6567,1.6580,0.0014,0.3684,3.7529,-0.0594,
6.607578,0.0661,-0.8915,0.1449,-0.7256,0.4814,0.4158,0.3684,3.7529,-0.0594,
6.609120,-0.0155,-0.9575,0.0081,-0.7256,0.4814,0.4158,0.3684,3.7529,-0.0594,
6.610258,-0.0580,-1.0755,-0.1346,-0.7256,0.4814,0.4158,0.3684,3.7529,-0.0594,
6.611581,-0.0368,-1.2658,-0.1260,-0.7256,0.4814,0.4158,0.3684,3.7529,-0.0594,
6.612888,-0.0326,-1.3569,0.1161,-0.7256,0.4814,0.4158,0.3684,3.7529,-0.0594,
6.644644,-0.0326,-1.3569,0.1161,-0.7256,0.4814,0.4158,0.4440,3.6997,0.1750,
6.646984,-0.0326,-1.3569,0.1161,-0.6766,0.4818,0.1351,0.4440,3.6997,0.1750,
6.684435,-0.0326,-1.3569,0.1161,-0.6766,0.4818,0.1351,0.4493,3.3268,0.1973,
6.686861,-0.0326,-1.3569,0.1161,-0.4076,-2.7306,-0.0959,0.4493,3.3268,0.1973,
6.688440,0.1159,-1.3005,0.0367,-0.4076,-2.7306,-0.0959,0.4493,3.3268,0.1973,
6.689755,0.2012,-1.2668,-0.0684,-0.4076,-2.7306,-0.0959,0.4493,3.3268,0.1973,
6.691022,0.2012,-1.3264,0.0606,-0.4076,-2.7306,-0.0959,0.4493,3.3268,0.1973,
6.692255,0.1929,-1.3733,0.0743,-0.4076,-2.7306,-0.0959,0.4493,3.3268,0.1973,
6.723274,0.1929,-1.3733,0.0743,1.4577,-2.8315,-0.3123,0.4493,3.3268,0.1973,
6.725093,0.1929,-1.3733,0.0743,1.4577,-2.8315,-0.3123,0.7497,2.5705,0.1569,
6.763636,0.1929,-1.3733,0.0743,1.4577,-2.8315,-0.3123,0.9990,2.1337,0.0376,
6.766652,0.1929,-1.3733,0.0743,1.7777,-1.4576,-2.2167,0.9990,2.1337,0.0376,
6.768321,0.2327,-1.3120,-0.0329,1.7777,-1.4576,-2.2167,0.9990,2.1337,0.0376,
6.769685,0.2447,-1.1644,-0.1233,1.7777,-1.4576,-2.2167,0.9990,2.1337,0.0376,
6.770933,0.2014,-1.0682,-0.2374,1.7777,-1.4576,-2.2167,0.9990,2.1337,0.0376,
6.772226,0.1003,-1.0806,-0.3146,1.7777,-1.4576,-2.2167,0.9990,2.1337,0.0376,
6.802395,0.1003,-1.0806,-0.3146,1.7777,-1.4576,-2.2167,0.9063,1.8046,0.1664,
6.804741,0.1003,-1.0806,-0.3146,1.8927,-1.4707,-2.5630,0.9063,1.8046,0.1664,
6.842372,0.1003,-1.0806,-0.3146,1.8927,-1.4707,-2.5630,0.6645,1.2165,0.6778,
6.844262,0.1003,-1.0806,-0.3146,0.8690,0.2499,-5.1069,0.6645,1.2165,0.6778,
6.845507,0.0466,-1.0655,-0.3762,0.8690,0.2499,-5.1069,0.6645,1.2165,0.6778,
6.846339,0.1194,-0.8603,-0.4241,0.8690,0.2499,-5.1069,0.6645,1.2165,0.6778,
6.847175,0.1626,-0.6919,-0.3395,0.8690,0.2499,-5.1069,0.6645,1.2165,0.6778,
6.847901,0.2410,-0.7181,-0.4177,0.8690,0.2499,-5.1069,0.6645,1.2165,0.6778,
6.881994,0.2410,-0.7181,-0.4177,0.8690,0.2499,-5.1069,-0.0812,1.2048,1.0272,
6.884011,0.2410,-0.7181,-0.4177,1.3262,0.2406,-4.9793,-0.0812,1.2048,1.0272,
6.921882,0.2410,-0.7181,-0.4177,1.3262,0.2406,-4.9793,-2.0487,-0.3718,0.9558,
6.924791,0.2410,-0.7181,-0.4177,3.4338,3.1709,-4.8126,-2.0487,-0.3718,0.9558,
6.926171,0.4118,-0.6985,-0.5790,3.4338,3.1709,-4.8126,-2.0487,-0.3718,0.9558,
6.927107,0.3505,-0.8155,-0.7143,3.4338,3.1709,-4.8126,-2.0487,-0.3718,0.9558,
6.927942,0.1328,-1.0804,-0.7944,3.4338,3.1709,-4.8126,-2.0487,-0.3718,0.9558,
6.928909,0.3781,-1.2030,-0.4844,3.4338,3.1709,-4.8126,-2.0487,-0.3718,0.9558,
6.960805,0.3781,-1.2030,-0.4844,3.4338,3.1709,-4.8126,-4.0536,-3.2778,1.2040,
6.962936,0.3781,-1.2030,-0.4844,4.0393,-0.1585,-5.3921,-4.0536,-3.2778,1.2040,
7.002607,0.3781,-1.2030,-0.4844,4.0393,-0.1585,-5.3921,-3.8565,-2.5577,-0.2916,
7.005284,0.3781,-1.2030,-0.4844,11.9179,-7.6409,6.2401,-3.8565,-2.5577,-0.2916,
7.006799,0.9554,-1.2959,-0.0383,11.9179,-7.6409,6.2401,-3.8565,-2.5577,-0.2916,
7.008072,1.2461,-1.8685,0.3106,11.9179,-7.6409,6.2401,-3.8565,-2.5577,-0.2916,
7.009327,1.1127,-2.1849,0.9074,11.9179,-7.6409,6.2401,-3.8565,-2.5577,-0.2916,
7.010446,0.3998,-1.7048,0.8480,11.9179,-7.6409,6.2401,-3.8565,-2.5577,-0.2916,
7.040399,0.3998,-1.7048,0.8480,11.9179,-7.6409,6.2401,-1.8005,-1.7747,-1.7777,
7.042620,0.3998,-1.7048,0.8480,11.2339,-7.6437,6.7582,-1.8005,-1.7747,-1.7777,
7.080682,0.3998,-1.7048,0.8480,11.2339,-7.6437,6.7582,-0.5158,-3.4642,-1.2493,
7.082796,0.3998,-1.7048,0.8480,1.6699,-3.9626,8.5930,-0.5158,-3.4642,-1.2493,
7.086226,-0.0600,-1.3188,0.5666,1.6699,-3.9626,8.5930,-0.5158,-3.4642,-1.2493,
7.087698,0.0764,-1.2057,0.3240,1.6699,-3.9626,8.5930,-0.5158,-3.4642,-1.2493,
7.088701,0.3952,-1.2494,0.1391,1.6699,-3.9626,8.5930,-0.5158,-3.4642,-1.2493,
7.089524,0.2203,-1.2172,0.4720,1.6699,-3.9626,8.5930,-0.5158,-3.4642,-1.2493,
7.119679,0.2203,-1.2172,0.4720,1.6699,-3.9626,8.5930,-0.5414,-5.1814,-0.8498,
7.121592,0.2203,-1.2172,0.4720,1.9194,-3.9460,8.5709,-0.5414,-5.1814,-0.8498,
7.159502,0.2203,-1.2172,0.4720,1.9194,-3.9460,8.5709,-0.1653,-5.3913,-0.5675,
7.162290,0.2203,-1.2172,0.4720,2.9557,-1.4020,7.1358,-0.1653,-5.3913,-0.5675,
7.163599,0.0141,-0.9905,0.7542,2.9557,-1.4020,7.1358,-0.1653,-5.3913,-0.5675,
7.164337,-0.1325,-0.6756,0.7124,2.9557,-1.4020,7.1358,-0.1653,-5.3913,-0.5675,
7.165462,-0.1592,-0.4464,0.6726,2.9557,-1.4020,7.1358,-0.1653,-5.3913,-0.5675,
7.166361,-0.0712,-0.4063,0.6504,2.9557,-1.4020,7.1358,-0.1653,-5.3913,-0.5675,
7.199238,-0.0712,-0.4063,0.6504,2.9557,-1.4020,7.1358,0.2491,-4.6818,-0.2160,
7.201290,-0.0712,-0.4063,0.6504,0.1002,4.8501,8.8747,0.2491,-4.6818,-0.2160,
7.239504,-0.0712,-0.4063,0.6504,0.1002,4.8501,8.8747,0.1692,-4.0714,-0.6101,
7.242037,-0.0712,-0.4063,0.6504,1.1133,4.5855,6.2864,0.1692,-4.0714,-0.6101,
7.243433,0.0011,-0.4655,0.5529,1.1133,4.5855,6.2864,0.1692,-4.0714,-0.6101,
7.244579,0.0182,-0.5363,0.4513,1.1133,4.5855,6.2864,0.1692,-4.0714,-0.6101,
7.246200,-0.0961,-0.5981,0.3587,1.1133,4.5855,6.2864,0.1692,-4.0714,-0.6101,
7.247341,-0.6639,-0.9367,-0.0620,1.1133,4.5855,6.2864,0.1692,-4.0714,-0.6101,
7.278898,-0.6639,-0.9367,-0.0620,1.1133,4.5855,6.2864,0.3279,-5.9165,-0.6666,
7.281397,-0.6639,-0.9367,-0.0620,1.2098,4.5665,5.7268,0.3279,-5.9165,-0.6666,
7.319701,-0.6639,-0.9367,-0.0620,1.2098,4.5665,5.7268,-0.5318,-3.9564,0.2442,
7.322617,-0.6639,-0.9367,-0.0620,-4.0178,-1.5863,0.1901,-0.5318,-3.9564,0.2442,
7.324232,-0.9742,-1.3103,-0.5206,-4.0178,-1.5863,0.1901,-0.5318,-3.9564,0.2442,
7.325667,-0.1474,-1.2318,0.2639,-4.0178,-1.5863,0.1901,-0.5318,-3.9564,0.2442,
7.326918,-0.0712,-1.8108,0.3807,-4.0178,-1.5863,0.1901,-0.5318,-3.9564,0.2442,
7.328035,0.2418,-1.9528,-1.0988,-4.0178,-1.5863,0.1901,-0.5318,-3.9564,0.2442,
7.358862,0.2418,-1.9528,-1.0988,-4.0178,-1.5863,0.1901,-0.6926,-2.6908,-0.0423,
7.361509,0.2418,-1.9528,-1.0988,-3.8358,-1.5905,0.2531,-0.6926,-2.6908,-0.0423,
7.399026,0.2418,-1.9528,-1.0988,-3.8358,-1.5905,0.2531,0.4248,-1.4594,-1.2120,
7.401516,0.2418,-1.9528,-1.0988,4.8449,-5.6805,-0.6166,0.4248,-1.4594,-1.2120,
7.403035,0.8496,-1.0291,0.2138,4.8449,-5.6805,-0.6166,0.4248,-1.4594,-1.2120,
7.404132,0.2579,-0.7440,1.7649,4.8449,-5.6805,-0.6166,0.4248,-1.4594,-1.2120,
7.405702,-0.6131,-0.9597,0.8348,4.8449,-5.6805,-0.6166,0.4248,-1.4594,-1.2120,
7.407168,-1.1855,-1.1554,0.0372,4.8449,-5.6805,-0.6166,0.4248,-1.4594,-1.2120,
7.437654,-1.1855,-1.1554,0.0372,4.8449,-5.6805,-0.6166,1.6222,-1.7555,-0.4269,
7.440491,-1.1855,-1.1554,0.0372,-3.5810,0.6911,8.7529,1.6222,-1.7555,-0.4269,
7.476154,-1.1855,-1.1554,0.0372,-3.5810,0.6911,8.7529,0.2416,-0.6328,0.5116,
7.479537,-1.1855,-1.1554,0.0372,-0.3661,-0.0891,-2.3940,0.2416,-0.6328,0.5116,
7.481004,-0.7242,-1.1087,-0.2706,-0.3661,-0.0891,-2.3940,0.2416,-0.6328,0.5116,
7.482521,-0.0715,-1.0660,-0.2785,-0.3661,-0.0891,-2.3940,0.2416,-0.6328,0.5116,
7.483819,0.1748,-0.9142,-0.1978,-0.3661,-0.0891,-2.3940,0.2416,-0.6328,0.5116,
7.485088,0.4091,-0.7728,-0.2426,-0.3661,-0.0891,-2.3940,0.2416,-0.6328,0.5116,
7.516262,0.4091,-0.7728,-0.2426,-0.3661,-0.0891,-2.3940,-0.7992,-0.7723,0.6309,
7.518896,0.4091,-0.7728,-0.2426,-0.1104,-0.1369,-2.0974,-0.7992,-0.7723,0.6309,
7.555564,0.4091,-0.7728,-0.2426,-0.1104,-0.1369,-2.0974,-1.3020,-0.3228,0.0738,
7.559288,0.4091,-0.7728,-0.2426,5.6004,3.0070,0.8256,-1.3020,-0.3228,0.0738,
7.560583,0.5435,-0.6416,-0.0513,5.6004,3.0070,0.8256,-1.3020,-0.3228,0.0738,
7.562308,0.1929,-0.6856,0.2966,5.6004,3.0070,0.8256,-1.3020,-0.3228,0.0738,
7.563435,-0.7311,-0.9453,0.2253,5.6004,3.0070,0.8256,-1.3020,-0.3228,0.0738,
7.564664,-1.7606,-1.4842,-0.1825,5.6004,3.0070,0.8256,-1.3020,-0.3228,0.0738,
7.595231,-1.7606,-1.4842,-0.1825,5.6004,3.0070,0.8256,-1.9198,2.7090,0.0013,
7.597766,-1.7606,-1.4842,-0.1825,5.3663,2.8612,1.7369,-1.9198,2.7090,0.0013,
7.636097,-1.7606,-1.4842,-0.1825,5.3663,2.8612,1.7369,-2.3939,3.3023,0.2868,
7.638715,-1.7606,-1.4842,-0.1825,-11.6964,-4.3716,1.3201,-2.3939,3.3023,0.2868,
7.640747,-1.5886,-1.8355,-0.5015,-11.6964,-4.3716,1.3201,-2.3939,3.3023,0.2868,
7.642591,-0.5625,-1.7261,-0.3833,-11.6964,-4.3716,1.3201,-2.3939,3.3023,0.2868,
7.643996,-0.4929,-1.3027,-0.2868,-11.6964,-4.3716,1.3201,-2.3939,3.3023,0.2868,
7.645485,-0.5090,-0.6800,-0.2467,-11.6964,-4.3716,1.3201,-2.3939,3.3023,0.2868,
7.673396,-0.5090,-0.6800,-0.2467,-11.6964,-4.3716,1.3201,-1.7377,2.0698,0.7161,
7.676023,-0.5090,-0.6800,-0.2467,-3.4153,-2.7746,0.5961,-1.7377,2.0698,0.7161,
7.714127,-0.5090,-0.6800,-0.2467,-3.4153,-2.7746,0.5961,-0.4114,2.1870,1.0890,
7.716090,-0.5090,-0.6800,-0.2467,-0.4565,3.7587,3.0785,-0.4114,2.1870,1.0890,
7.717079,-0.2278,-0.4589,-0.1676,-0.4565,3.7587,3.0785,-0.4114,2.1870,1.0890,
7.718003,-0.1824,-0.5541,-0.0686,-0.4565,3.7587,3.0785,-0.4114,2.1870,1.0890,
7.718975,-0.2728,-0.6350,0.0032,-0.4565,3.7587,3.0785,-0.4114,2.1870,1.0890,
7.719875,-0.2483,-0.6345,-0.0417,-0.4565,3.7587,3.0785,-0.4114,2.1870,1.0890,
7.754185,-0.2483,-0.6345,-0.0417,-0.4565,3.7587,3.0785,0.9053,3.7220,0.7673,
7.756616,-0.2483,-0.6345,-0.0417,-0.7304,3.7809,2.9427,0.9053,3.7220,0.7673,
7.793994,-0.2483,-0.6345,-0.0417,-0.7304,3.7809,2.9427,1.8235,5.0472,0.2623,
7.796634,-0.2483,-0.6345,-0.0417,-1.5964,3.4834,3.3709,1.8235,5.0472,0.2623,
7.798308,-0.2376,-0.6028,-0.0063,-1.5964,3.4834,3.3709,1.8235,5.0472,0.2623,
7.799884,-0.2847,-0.5571,0.0951,-1.5964,3.4834,3.3709,1.8235,5.0472,0.2623,
7.801356,-0.2838,-0.4979,0.1066,-1.5964,3.4834,3.3709,1.8235,5.0472,0.2623,
7.802741,-0.2579,-0.5158,0.1496,-1.5964,3.4834,3.3709,1.8235,5.0472,0.2623,
7.833662,-0.2579,-0.5158,0.1496,-1.5964,3.4834,3.3709,2.8664,5.2890,0.0610,
7.836310,-0.2579,-0.5158,0.1496,-2.1215,3.7317,2.3822,2.8664,5.2890,0.0610,
7.874120,-0.2579,-0.5158,0.1496,-2.1215,3.7317,2.3822,3.2829,4.9247,0.2634,
7.876248,-0.2579,-0.5158,0.1496,-2.2165,4.5620,2.3236,3.2829,4.9247,0.2634,
7.877602,-0.2022,-0.5668,0.1562,-2.2165,4.5620,2.3236,3.2829,4.9247,0.2634,
7.879016,-0.0228,-0.6895,0.0660,-2.2165,4.5620,2.3236,3.2829,4.9247,0.2634,
7.880263,0.3226,-0.8908,-0.2408,-2.2165,4.5620,2.3236,3.2829,4.9247,0.2634,
7.881398,0.3856,-1.2250,-0.4654,-2.2165,4.5620,2.3236,3.2829,4.9247,0.2634,
7.912636,0.3856,-1.2250,-0.4654,-2.2165,4.5620,2.3236,1.7372,3.8531,0.2985,
7.915206,0.3856,-1.2250,-0.4654,2.4313,0.5939,-1.7245,1.7372,3.8531,0.2985,
7.952518,0.3856,-1.2250,-0.4654,2.4313,0.5939,-1.7245,-0.1366,2.9955,0.3443,
7.954811,0.3856,-1.2250,-0.4654,3.3251,-10.4671,-8.9697,-0.1366,2.9955,0.3443,
7.956916,0.3075,-1.5902,-0.1881,3.3251,-10.4671,-8.9697,-0.1366,2.9955,0.3443,
7.958544,0.3952,-1.9259,-1.0082,3.3251,-10.4671,-8.9697,-0.1366,2.9955,0.3443,
7.959929,0.2454,-2.7277,-1.7331,3.3251,-10.4671,-8.9697,-0.1366,2.9955,0.3443,
7.962660,0.1956,-1.2336,0.1618,3.3251,-10.4671,-8.9697,-0.1366,2.9955,0.3443,
7.991454,0.1956,-1.2336,0.1618,3.3251,-10.4671,-8.9697,-0.5840,2.3361,0.5648,
7.993616,0.1956,-1.2336,0.1618,3.4236,-10.3160,-8.5677,-0.5840,2.3361,0.5648,
8.031832,0.1956,-1.2336,0.1618,3.4236,-10.3160,-8.5677,1.2802,-0.7276,1.7484,
8.034827,0.1956,-1.2336,0.1618,2.3446,1.5176,2.9933,1.2802,-0.7276,1.7484,
8.036546,-0.0500,-0.4738,0.5104,2.3446,1.5176,2.9933,1.2802,-0.7276,1.7484,
8.038300,0.2650,-0.9033,0.1176,2.3446,1.5176,2.9933,1.2802,-0.7276,1.7484,
8.039491,0.8393,-1.3958,-0.1927,2.3446,1.5176,2.9933,1.2802,-0.7276,1.7484,
8.040779,1.1188,-1.5937,-0.4153,2.3446,1.5176,2.9933,1.2802,-0.7276,1.7484,
8.071898,1.1188,-1.5937,-0.4153,2.3446,1.5176,2.9933,2.1410,-2.6972,0.6341,
8.074954,1.1188,-1.5937,-0.4153,2.5434,1.4584,1.9817,2.1410,-2.6972,0.6341,
8.111016,1.1188,-1.5937,-0.4153,2.5434,1.4584,1.9817,1.6350,-2.0794,-0.8456,
8.113351,1.1188,-1.5937,-0.4153,9.7168,-3.9126,-5.1356,1.6350,-2.0794,-0.8456,
8.114647,0.8254,-1.2766,-0.5834,9.7168,-3.9126,-5.1356,1.6350,-2.0794,-0.8456,
8.115847,0.2432,-0.9655,-0.5711,9.7168,-3.9126,-5.1356,1.6350,-2.0794,-0.8456,
8.117095,-0.2215,-0.8625,-0.8450,9.7168,-3.9126,-5.1356,1.6350,-2.0794,-0.8456,
8.118558,-0.5303,-0.8246,-1.1199,9.7168,-3.9126,-5.1356,1.6350,-2.0794,-0.8456,
8.150022,-0.5303,-0.8246,-1.1199,9.7168,-3.9126,-5.1356,0.1500,-0.4634,-0.0764,
8.152267,-0.5303,-0.8246,-1.1199,-1.0734,1.3295,-9.4385,0.1500,-0.4634,-0.0764,
8.189960,-0.5303,-0.8246,-1.1199,-1.0734,1.3295,-9.4385,-2.5366,-0.8842,1.0900,
8.192308,-0.5303,-0.8246,-1.1199,1.5360,1.0068,-8.8982,-2.5366,-0.8842,1.0900,
8.193643,-0.3778,-0.8605,-1.0778,1.5360,1.0068,-8.8982,-2.5366,-0.8842,1.0900,
8.195345,0.0436,-0.8979,-0.9193,1.5360,1.0068,-8.8982,-2.5366,-0.8842,1.0900,
8.196641,0.5076,-0.9978,-0.7199,1.5360,1.0068,-8.8982,-2.5366,-0.8842,1.0900,
8.197865,0.6280,-1.1041,-0.4795,1.5360,1.0068,-8.8982,-2.5366,-0.8842,1.0900,
8.228463,0.6280,-1.1041,-0.4795,1.5360,1.0068,-8.8982,-4.9590,-3.6283,0.6575,
8.229800,0.6280,-1.1041,-0.4795,1.8955,0.7910,-6.9967,-4.9590,-3.6283,0.6575,
8.269299,0.6280,-1.1041,-0.4795,1.8955,0.7910,-6.9967,-4.8259,-4.0768,-0.2522,
8.271355,0.6280,-1.1041,-0.4795,7.4895,-1.9535,3.2963,-4.8259,-4.0768,-0.2522,
8.272708,0.6006,-1.1092,-0.0938,7.4895,-1.9535,3.2963,-4.8259,-4.0768,-0.2522,
8.273865,0.5911,-1.2409,0.5390,7.4895,-1.9535,3.2963,-4.8259,-4.0768,-0.2522,
8.275379,0.3309,-1.7258,1.1351,7.4895,-1.9535,3.2963,-4.8259,-4.0768,-0.2522,
8.276607,0.0028,-2.1487,0.8671,7.4895,-1.9535,3.2963,-4.8259,-4.0768,-0.2522,
8.308525,0.0028,-2.1487,0.8671,7.4895,-1.9535,3.2963,-2.0466,-0.6274,-1.0043,
8.310744,0.0028,-2.1487,0.8671,7.0919,-2.1634,3.9365,-2.0466,-0.6274,-1.0043,
8.348085,0.0028,-2.1487,0.8671,7.0919,-2.1634,3.9365,-0.5691,-1.2911,-1.2493,
8.350519,0.0028,-2.1487,0.8671,1.5137,-9.5979,12.0291,-0.5691,-1.2911,-1.2493,
8.351923,-0.1416,-1.8922,0.4564,1.5137,-9.5979,12.0291,-0.5691,-1.2911,-1.2493,
8.353193,-0.2007,-1.5099,0.0013,1.5137,-9.5979,12.0291,-0.5691,-1.2911,-1.2493,
8.354287,0.1540,-1.2541,-0.2037,1.5137,-9.5979,12.0291,-0.5691,-1.2911,-1.2493,
8.355285,0.4484,-0.9174,0.0782,1.5137,-9.5979,12.0291,-0.5691,-1.2911,-1.2493,
8.388798,0.4484,-0.9174,0.0782,1.5137,-9.5979,12.0291,-0.0300,-3.0562,-0.7997,
8.390559,0.4484,-0.9174,0.0782,2.3457,-2.7149,3.4295,-0.0300,-3.0562,-0.7997,
8.427957,0.4484,-0.9174,0.0782,2.3457,-2.7149,3.4295,0.4365,-4.5668,-0.8136,
8.430334,0.3297,-0.5979,0.3892,2.3457,-2.7149,3.4295,0.4365,-4.5668,-0.8136,
8.431725,-0.0971,-0.4310,0.5163,2.3457,-2.7149,3.4295,0.4365,-4.5668,-0.8136,
8.432870,-0.3634,-0.3680,0.5573,2.3457,-2.7149,3.4295,0.4365,-4.5668,-0.8136,
8.434155,-0.5708,-0.3523,0.5158,2.3457,-2.7149,3.4295,0.4365,-4.5668,-0.8136,
8.435336,-0.5708,-0.3523,0.5158,0.9507,4.7688,8.0951,0.4365,-4.5668,-0.8136,
8.467728,-0.5708,-0.3523,0.5158,0.9507,4.7688,8.0951,1.1119,-4.4336,-0.7859,
8.470434,-0.5708,-0.3523,0.5158,1.1654,4.8640,7.2914,1.1119,-4.4336,-0.7859,
8.507237,-0.5708,-0.3523,0.5158,1.1654,4.8640,7.2914,1.2451,-3.2810,-0.0562,
8.510068,-0.5708,-0.3523,0.5158,-5.7574,5.0424,4.9955,1.2451,-3.2810,-0.0562,
8.511480,-0.8334,-0.4190,0.3531,-5.7574,5.0424,4.9955,1.2451,-3.2810,-0.0562,
8.512604,-0.9563,-0.5783,0.1283,-5.7574,5.0424,4.9955,1.2451,-3.2810,-0.0562,
8.513864,-0.6568,-0.9221,-0.1810,-5.7574,5.0424,4.9955,1.2451,-3.2810,-0.0562,
8.515924,-0.2495,-1.2844,-0.3520,-5.7574,5.0424,4.9955,1.2451,-3.2810,-0.0562,
8.547259,-0.2495,-1.2844,-0.3520,-5.7574,5.0424,4.9955,0.0083,-0.3164,0.0652,
8.549821,-0.2495,-1.2844,-0.3520,-5.6165,4.9539,4.8850,0.0083,-0.3164,0.0652,
8.587422,-0.2495,-1.2844,-0.3520,-5.6165,4.9539,4.8850,0.1478,1.5351,-0.4844,
8.590088,-0.2495,-1.2844,-0.3520,-2.0018,-2.6034,0.0008,0.1478,1.5351,-0.4844,
8.591420,-0.2720,-1.4847,0.0154,-2.0018,-2.6034,0.0008,0.1478,1.5351,-0.4844,
8.593173,-0.4665,-1.4048,0.1737,-2.0018,-2.6034,0.0008,0.1478,1.5351,-0.4844,
8.594603,-0.7882,-1.0369,-0.1612,-2.0018,-2.6034,0.0008,0.1478,1.5351,-0.4844,
8.595983,-1.0611,-0.8041,-0.2841,-2.0018,-2.6034,0.0008,0.1478,1.5351,-0.4844,
8.626147,-1.0611,-0.8041,-0.2841,-2.0018,-2.6034,0.0008,0.0285,1.4605,0.4296,
8.628799,-1.0611,-0.8041,-0.2841,-5.5631,-1.1586,0.8858,0.0285,1.4605,0.4296,
8.665838,-1.0611,-0.8041,-0.2841,-5.5631,-1.1586,0.8858,0.2150,-0.2045,1.4831,
8.668513,-1.0611,-0.8041,-0.2841,-3.1297,-1.6151,2.8990,0.2150,-0.2045,1.4831,
8.669911,-0.9339,-0.9125,0.1083,-3.1297,-1.6151,2.8990,0.2150,-0.2045,1.4831,
8.671359,-0.6771,-1.1200,0.1799,-3.1297,-1.6151,2.8990,0.2150,-0.2045,1.4831,
8.672921,-0.1494,-1.3249,0.1027,-3.1297,-1.6151,2.8990,0.2150,-0.2045,1.4831,
8.673915,0.3045,-1.3032,0.1447,-3.1297,-1.6151,2.8990,0.2150,-0.2045,1.4831,
8.705571,0.3045,-1.3032,0.1447,-3.1297,-1.6151,2.8990,1.1929,0.4091,1.1870,
8.708003,0.3045,-1.3032,0.1447,-2.6691,-1.6530,2.4641,1.1929,0.4091,1.1870,
8.747398,0.3045,-1.3032,0.1447,-2.6691,-1.6530,2.4641,1.5678,0.7563,0.1196,
8.750121,0.3045,-1.3032,0.1447,6.9048,-0.5197,1.4015,1.5678,0.7563,0.1196,
8.751418,0.4971,-1.0183,0.0853,6.9048,-0.5197,1.4015,1.5678,0.7563,0.1196,
8.753148,0.3998,-0.7051,-0.0085,6.9048,-0.5197,1.4015,1.5678,0.7563,0.1196,
8.754122,0.1692,-0.6304,0.0069,6.9048,-0.5197,1.4015,1.5678,0.7563,0.1196,
8.755281,-0.1584,-0.8341,-0.0061,6.9048,-0.5197,1.4015,1.5678,0.7563,0.1196,
8.784398,-0.1584,-0.8341,-0.0061,6.9048,-0.5197,1.4015,1.4453,-0.3622,-0.6389,
8.787311,-0.1584,-0.8341,-0.0061,6.5586,-0.4173,0.8081,1.4453,-0.3622,-0.6389,
8.825057,-0.1584,-0.8341,-0.0061,6.5586,-0.4173,0.8081,1.3090,-0.5475,-0.2970,
8.827592,-0.1584,-0.8341,-0.0061,0.8645,1.0296,-1.0546,1.3090,-0.5475,-0.2970,
8.828940,-0.5124,-1.1202,-0.1873,0.8645,1.0296,-1.0546,1.3090,-0.5475,-0.2970,
8.829938,-0.6282,-1.2553,-0.4067,0.8645,1.0296,-1.0546,1.3090,-0.5475,-0.2970,
8.831079,-0.0868,-1.0831,-0.2452,0.8645,1.0296,-1.0546,1.3090,-0.5475,-0.2970,
8.832430,0.1929,-1.0660,-0.2233,0.8645,1.0296,-1.0546,1.3090,-0.5475,-0.2970,
8.863742,0.1929,-1.0660,-0.2233,0.8645,1.0296,-1.0546,0.7061,2.5364,-0.0423,
8.866298,0.1929,-1.0660,-0.2233,0.8177,-1.6300,-3.2617,0.7061,2.5364,-0.0423,
8.903481,0.1929,-1.0660,-0.2233,0.8177,-1.6300,-3.2617,0.3407,-0.2631,0.6000,
8.907362,0.1929,-1.0660,-0.2233,1.1554,-1.2671,-7.1248,0.3407,-0.2631,0.6000,
8.909248,-0.1592,-1.1395,-0.2421,1.1554,-1.2671,-7.1248,0.3407,-0.2631,0.6000,
8.910404,-0.2974,-1.1092,-0.5030,1.1554,-1.2671,-7.1248,0.3407,-0.2631,0.6000,
8.911926,-0.0231,-1.0300,-1.3016,1.1554,-1.2671,-7.1248,0.3407,-0.2631,0.6000,
8.913323,0.5615,-1.1072,-0.9681,1.1554,-1.2671,-7.1248,0.3407,-0.2631,0.6000,
8.942945,0.5615,-1.1072,-0.9681,1.1554,-1.2671,-7.1248,-1.5960,-1.5595,1.1284,
8.945858,0.5615,-1.1072,-0.9681,1.5340,-1.3599,-6.6009,-1.5960,-1.5595,1.1284,
8.984134,0.5615,-1.1072,-0.9681,1.5340,-1.3599,-6.6009,-2.4418,-1.4818,-0.1404,
8.986906,0.5615,-1.1072,-0.9681,11.1034,-3.5327,-4.3453,-2.4418,-1.4818,-0.1404,
8.988509,0.9818,-1.3762,-0.4153,11.1034,-3.5327,-4.3453,-2.4418,-1.4818,-0.1404,
8.989674,0.9725,-1.4710,-0.2157,11.1034,-3.5327,-4.3453,-2.4418,-1.4818,-0.1404,
8.990926,0.4445,-1.1972,-0.3759,11.1034,-3.5327,-4.3453,-2.4418,-1.4818,-0.1404,
8.992248,0.0837,-0.9323,-0.8868,11.1034,-3.5327,-4.3453,-2.4418,-1.4818,-0.1404,
9.022549,0.0837,-0.9323,-0.8868,11.1034,-3.5327,-4.3453,-3.1822,-0.9044,-0.8850,
9.026009,0.0837,-0.9323,-0.8868,10.6431,-3.5539,-3.2118,-3.1822,-0.9044,-0.8850,
9.062294,0.0837,-0.9323,-0.8868,10.6431,-3.5539,-3.2118,-3.4250,-1.1057,-1.0522,
9.065637,0.0837,-0.9323,-0.8868,3.6364,-0.8404,-3.3245,-3.4250,-1.1057,-1.0522,
9.067034,-0.0553,-0.9201,-0.7419,3.6364,-0.8404,-3.3245,-3.4250,-1.1057,-1.0522,
9.068398,-0.1108,-1.1112,0.1525,3.6364,-0.8404,-3.3245,-3.4250,-1.1057,-1.0522,
9.069686,0.1399,-1.0552,0.5214,3.6364,-0.8404,-3.3245,-3.4250,-1.1057,-1.0522,
9.070824,0.3717,-0.9795,0.3963,3.6364,-0.8404,-3.3245,-3.4250,-1.1057,-1.0522,
9.102157,0.3717,-0.9795,0.3963,3.6364,-0.8404,-3.3245,-2.0264,-0.3867,-1.6424,
9.104765,0.3717,-0.9795,0.3963,2.8200,-1.3001,7.2920,-2.0264,-0.3867,-1.6424,
9.141927,0.3717,-0.9795,0.3963,2.8200,-1.3001,7.2920,-0.7022,0.3548,-2.2837,
9.145062,0.3717,-0.9795,0.3963,1.9899,-5.7953,3.7162,-0.7022,0.3548,-2.2837,
9.146555,0.2464,-1.2118,0.1781,1.9899,-5.7953,3.7162,-0.7022,0.3548,-2.2837,
9.147809,0.0365,-1.6198,-0.0552,1.9899,-5.7953,3.7162,-0.7022,0.3548,-2.2837,
9.149052,0.1396,-1.7170,-0.2086,1.9899,-5.7953,3.7162,-0.7022,0.3548,-2.2837,
9.150208,0.4421,-1.5414,-0.1182,1.9899,-5.7953,3.7162,-0.7022,0.3548,-2.2837,
9.181296,0.4421,-1.5414,-0.1182,0.8782,-5.6657,3.5954,-0.7022,0.3548,-2.2837,
9.183744,0.4421,-1.5414,-0.1182,0.8782,-5.6657,3.5954,0.1702,-0.4005,-3.2222,
9.220576,0.4421,-1.5414,-0.1182,0.8782,-5.6657,3.5954,0.8690,-2.0836,-2.7130,
9.224387,0.4421,-1.5414,-0.1182,0.5460,-5.0399,3.2662,0.8690,-2.0836,-2.7130,
9.226362,0.3277,-1.4290,0.0978,0.5460,-5.0399,3.2662,0.8690,-2.0836,-2.7130,
9.227644,-0.2378,-1.4239,-0.0752,0.5460,-5.0399,3.2662,0.8690,-2.0836,-2.7130,
9.229244,-0.5063,-1.1906,-0.2364,0.5460,-5.0399,3.2662,0.8690,-2.0836,-2.7130,
9.230531,-0.4882,-0.7879,-0.0090,0.5460,-5.0399,3.2662,0.8690,-2.0836,-2.7130,
9.260198,-0.4882,-0.7879,-0.0090,0.5460,-5.0399,3.2662,0.5708,-2.5758,-1.0256,
9.262998,-0.4882,-0.7879,-0.0090,0.5182,-4.9276,3.1308,0.5708,-2.5758,-1.0256,
9.299957,-0.5535,-0.5412,0.1518,0.5182,-4.9276,3.1308,0.5708,-2.5758,-1.0256,
9.302509,-0.6759,-0.3843,0.1056,0.5182,-4.9276,3.1308,0.5708,-2.5758,-1.0256,
9.303528,-0.7245,-0.3382,-0.0452,0.5182,-4.9276,3.1308,0.5708,-2.5758,-1.0256,
9.304798,-0.7245,-0.3382,-0.0452,0.5182,-4.9276,3.1308,0.8701,-0.6402,-0.4503,
9.306529,-0.7245,-0.3382,-0.0452,-6.2535,1.2662,2.7945,0.8701,-0.6402,-0.4503,
9.339487,-0.7245,-0.3382,-0.0452,-6.2535,1.2662,2.7945,1.0107,1.4850,0.3103,
9.342874,-0.7245,-0.3382,-0.0452,-7.6122,5.9048,2.1934,1.0107,1.4850,0.3103,
9.379699,-0.7245,-0.3382,-0.0452,-7.6122,5.9048,2.1934,0.3811,1.3827,0.6810,
9.382800,-0.7245,-0.3382,-0.0452,-7.3655,5.8719,1.9574,0.3811,1.3827,0.6810,
9.384465,-0.5882,-0.3865,-0.1873,-7.3655,5.8719,1.9574,0.3811,1.3827,0.6810,
9.386125,-0.4054,-0.3435,-0.2235,-7.3655,5.8719,1.9574,0.3811,1.3827,0.6810,
9.387184,-0.4110,-0.3631,-0.5240,-7.3655,5.8719,1.9574,0.3811,1.3827,0.6810,
9.388574,-0.5679,-0.6589,-0.5167,-7.3655,5.8719,1.9574,0.3811,1.3827,0.6810,
9.389881,-0.3719,-1.1270,-0.2040,-7.3655,5.8719,1.9574,0.3811,1.3827,0.6810,
9.418694,-0.3719,-1.1270,-0.2040,-4.9259,4.9756,-1.7234,0.3811,1.3827,0.6810,
9.420627,-0.3719,-1.1270,-0.2040,-4.9259,4.9756,-1.7234,-0.0045,-0.1917,0.9665,
9.459270,-0.3719,-1.1270,-0.2040,-4.9259,4.9756,-1.7234,-0.3155,2.1785,0.9015,
9.461732,-0.3719,-1.1270,-0.2040,-4.0883,-8.0796,3.5652,-0.3155,2.1785,0.9015,
9.463135,-0.1980,-1.8431,0.1713,-4.0883,-8.0796,3.5652,-0.3155,2.1785,0.9015,
9.464379,-0.6175,-2.4280,0.3780,-4.0883,-8.0796,3.5652,-0.3155,2.1785,0.9015,
9.465850,-0.3873,-1.9408,0.2639,-4.0883,-8.0796,3.5652,-0.3155,2.1785,0.9015,
9.466979,-0.1723,-0.9663,0.3228,-4.0883,-8.0796,3.5652,-0.3155,2.1785,0.9015,
9.497524,-0.1723,-0.9663,0.3228,-4.0883,-8.0796,3.5652,0.3396,3.4067,0.0791,
9.499734,-0.1723,-0.9663,0.3228,-4.3055,-7.9136,3.3353,0.3396,3.4067,0.0791,
9.537979,-0.3175,-0.8339,0.3997,-4.3055,-7.9136,3.3353,0.3396,3.4067,0.0791,
9.541949,-0.3971,-1.4561,0.4887,-4.3055,-7.9136,3.3353,0.3396,3.4067,0.0791,
9.543392,0.0265,-1.8108,0.5446,-4.3055,-7.9136,3.3353,0.3396,3.4067,0.0791,
9.544531,0.0265,-1.8108,0.5446,-4.3055,-7.9136,3.3353,0.4003,3.7412,0.5414,
9.546158,0.0265,-1.8108,0.5446,-3.3370,-2.4154,5.1149,0.4003,3.7412,0.5414,
9.577292,0.0265,-1.8108,0.5446,-3.3370,-2.4154,5.1149,0.6911,4.2067,0.3816,
9.579725,0.0265,-1.8108,0.5446,-0.4763,-5.9443,6.1877,0.6911,4.2067,0.3816,
9.617093,0.0265,-1.8108,0.5446,-0.4763,-5.9443,6.1877,0.3332,5.4787,-0.1585,
9.620210,0.0265,-1.8108,0.5446,-0.8013,-5.8336,5.7930,0.3332,5.4787,-0.1585,
9.621611,0.4091,-1.6020,0.4237,-0.8013,-5.8336,5.7930,0.3332,5.4787,-0.1585,
9.622760,0.3177,-1.1945,0.2412,-0.8013,-5.8336,5.7930,0.3332,5.4787,-0.1585,
9.623973,0.2271,-0.8336,-0.3593,-0.8013,-5.8336,5.7930,0.3332,5.4787,-0.1585,
9.625265,-0.3182,-0.6392,-0.8807,-0.8013,-5.8336,5.7930,0.3332,5.4787,-0.1585,
9.626539,-0.6519,-0.4813,-0.1949,-0.8013,-5.8336,5.7930,0.3332,5.4787,-0.1585,
9.656503,-0.6519,-0.4813,-0.1949,-0.8013,-5.8336,5.7930,-0.5669,5.4403,0.2325,
9.659453,-0.6519,-0.4813,-0.1949,-0.3069,1.3228,-2.1822,-0.5669,5.4403,0.2325,
9.696784,-0.6519,-0.4813,-0.1949,-0.3069,1.3228,-2.1822,-0.3294,4.2334,0.4839,
9.699324,-0.6519,-0.4813,-0.1949,-3.1364,6.6755,2.3639,-0.3294,4.2334,0.4839,
9.700600,-0.2867,-0.2676,0.3172,-3.1364,6.6755,2.3639,-0.3294,4.2334,0.4839,
9.701937,0.2784,-0.2470,0.2969,-3.1364,6.6755,2.3639,-0.3294,4.2334,0.4839,
9.703167,0.7521,-0.3912,0.1381,-3.1364,6.6755,2.3639,-0.3294,4.2334,0.4839,
9.704280,0.5503,-0.6936,-0.4014,-3.1364,6.6755,2.3639,-0.3294,4.2334,0.4839,
9.736005,0.5503,-0.6936,-0.4014,-3.1364,6.6755,2.3639,-1.3414,3.0925,-0.0509,
9.738164,0.5503,-0.6936,-0.4014,-3.2418,6.5001,2.7168,-1.3414,3.0925,-0.0509,
9.775393,0.5503,-0.6936,-0.4014,-3.2418,6.5001,2.7168,-2.8498,2.5705,1.1529,
9.778384,0.5503,-0.6936,-0.4014,3.3329,2.5685,-1.3075,-2.8498,2.5705,1.1529,
9.780199,-0.0126,-1.0513,-0.8602,3.3329,2.5685,-1.3075,-2.8498,2.5705,1.1529,
9.781879,-0.1782,-1.5673,-0.8997,3.3329,2.5685,-1.3075,-2.8498,2.5705,1.1529,
9.783142,-0.0575,-2.0266,-0.8653,3.3329,2.5685,-1.3075,-2.8498,2.5705,1.1529,
9.784357,0.3588,-1.4796,-1.0497,3.3329,2.5685,-1.3075,-2.8498,2.5705,1.1529,
9.815944,0.3588,-1.4796,-1.0497,3.3329,2.5685,-1.3075,-3.0682,1.5297,2.3960,
9.818606,0.3588,-1.4796,-1.0497,0.2370,-7.2083,-5.6300,-3.0682,1.5297,2.3960,
9.855533,0.3588,-1.4796,-1.0497,0.2370,-7.2083,-5.6300,-1.3595,0.0927,1.2967,
9.858635,0.3588,-1.4796,-1.0497,7.8873,-0.2747,0.6583,-1.3595,0.0927,1.2967,
9.859965,0.6764,-0.7931,-0.6564,7.8873,-0.2747,0.6583,-1.3595,0.0927,1.2967,
9.861596,0.8635,-0.8336,-0.3527,7.8873,-0.2747,0.6583,-1.3595,0.0927,1.2967,
9.862768,0.8239,-1.2619,-0.0295,7.8873,-0.2747,0.6583,-1.3595,0.0927,1.2967,
9.864214,0.8999,-1.1410,-0.0442,7.8873,-0.2747,0.6583,-1.3595,0.0927,1.2967,
9.893965,0.8999,-1.1410,-0.0442,8.0747,-0.3293,0.7535,-1.3595,0.0927,1.2967,
9.896516,0.8999,-1.1410,-0.0442,8.0747,-0.3293,0.7535,-0.3369,-0.9566,0.4615,
9.934747,0.8999,-1.1410,-0.0442,8.0747,-0.3293,0.7535,-0.2857,-2.8847,0.8120,
9.937289,0.8999,-1.1410,-0.0442,5.4702,-0.9512,-3.4706,-0.2857,-2.8847,0.8120,
9.938747,0.5332,-0.9069,-1.0402,5.4702,-0.9512,-3.4706,-0.2857,-2.8847,0.8120,
9.940029,-0.0734,-1.0144,-1.2708,5.4702,-0.9512,-3.4706,-0.2857,-2.8847,0.8120,
9.941268,-0.0038,-0.8292,-0.2917,5.4702,-0.9512,-3.4706,-0.2857,-2.8847,0.8120,
9.942774,0.1448,-0.5490,0.2680,5.4702,-0.9512,-3.4706,-0.2857,-2.8847,0.8120,
9.973394,0.1448,-0.5490,0.2680,5.4702,-0.9512,-3.4706,0.5132,-3.5867,0.6224,
9.976523,0.1448,-0.5490,0.2680,6.1664,-0.8892,-3.7960,0.5132,-3.5867,0.6224,
10.013056,0.1448,-0.5490,0.2680,6.1664,-0.8892,-3.7960,1.5284,-2.8240,-0.0647,
10.016113,0.1448,-0.5490,0.2680,2.6315,3.1261,3.7519,1.5284,-2.8240,-0.0647,
10.017410,0.0358,-0.5053,0.2358,2.6315,3.1261,3.7519,1.5284,-2.8240,-0.0647,
10.019326,-0.0942,-0.5879,-0.0603,2.6315,3.1261,3.7519,1.5284,-2.8240,-0.0647,
10.020453,-0.1914,-0.6145,-0.1016,2.6315,3.1261,3.7519,1.5284,-2.8240,-0.0647,
10.022010,-0.3651,-0.4689,-0.0762,2.6315,3.1261,3.7519,1.5284,-2.8240,-0.0647,
10.053420,-0.3651,-0.4689,-0.0762,0.1513,3.9307,1.4449,1.5284,-2.8240,-0.0647,
10.055846,-0.3651,-0.4689,-0.0762,0.1513,3.9307,1.4449,1.5700,-2.6472,-0.1446,
10.092571,-0.3651,-0.4689,-0.0762,0.1513,3.9307,1.4449,-0.2527,-1.9366,0.4274,
10.096246,-0.3651,-0.4689,-0.0762,-4.5963,0.4569,-5.3149,-0.2527,-1.9366,0.4274,
10.097441,-0.6671,-0.4383,-0.5235,-4.5963,0.4569,-5.3149,-0.2527,-1.9366,0.4274,
10.099414,-0.8508,-0.9035,-1.0852,-4.5963,0.4569,-5.3149,-0.2527,-1.9366,0.4274,
10.100688,-0.7084,-1.3713,-0.6982,-4.5963,0.4569,-5.3149,-0.2527,-1.9366,0.4274,
10.102001,-0.3661,-1.2981,0.2001,-4.5963,0.4569,-5.3149,-0.2527,-1.9366,0.4274,
10.132510,-0.3661,-1.2981,0.2001,-4.3670,0.3807,-5.1311,-0.2527,-1.9366,0.4274,
10.135044,-0.3661,-1.2981,0.2001,-4.3670,0.3807,-5.1311,-0.6671,-1.3571,0.0929,
10.172227,-0.5303,-1.0559,-0.3237,-4.3670,0.3807,-5.1311,-0.6671,-1.3571,0.0929,
10.174644,0.3593,-0.7691,0.1136,-4.3670,0.3807,-5.1311,-0.6671,-1.3571,0.0929,
10.176113,0.6842,-0.9910,-0.4781,-4.3670,0.3807,-5.1311,-0.6671,-1.3571,0.0929,
10.177399,0.6842,-0.9910,-0.4781,-4.3670,0.3807,-5.1311,-0.2719,-1.1313,-0.1382,
10.178782,0.6842,-0.9910,-0.4781,1.1877,-0.9520,2.3009,-0.2719,-1.1313,-0.1382,
10.211056,0.6842,-0.9910,-0.4781,1.1877,-0.9520,2.3009,0.0999,0.5241,-0.4290,
10.213690,0.6842,-0.9910,-0.4781,6.8664,-4.7114,1.0602,0.0999,0.5241,-0.4290,
10.252300,0.6842,-0.9910,-0.4781,6.8664,-4.7114,1.0602,1.0981,-0.8618,-0.5143,
10.254955,0.6842,-0.9910,-0.4781,6.6317,-4.4922,0.5522,1.0981,-0.8618,-0.5143,
10.256325,0.5535,-1.6569,-0.0803,6.6317,-4.4922,0.5522,1.0981,-0.8618,-0.5143,
10.257589,0.0624,-1.6682,0.1676,6.6317,-4.4922,0.5522,1.0981,-0.8618,-0.5143,
10.258920,-0.3118,-1.2954,0.1288,6.6317,-4.4922,0.5522,1.0981,-0.8618,-0.5143,
10.260169,0.0578,-0.9641,-0.1343,6.6317,-4.4922,0.5522,1.0981,-0.8618,-0.5143,
10.261763,-0.2171,-1.1608,-0.2983,6.6317,-4.4922,0.5522,1.0981,-0.8618,-0.5143,
10.290643,-0.2171,-1.1608,-0.2983,6.6317,-4.4922,0.5522,2.0515,-0.0106,-0.3896,
10.293438,-0.2171,-1.1608,-0.2983,0.6874,-1.3902,0.0461,2.0515,-0.0106,-0.3896,
10.330181,-0.2171,-1.1608,-0.2983,0.6874,-1.3902,0.0461,2.2081,-0.1353,0.1654,
10.332963,-0.2171,-1.1608,-0.2983,1.3401,-2.6182,-4.0303,2.2081,-0.1353,0.1654,
10.334309,-0.2881,-1.3110,-0.2504,1.3401,-2.6182,-4.0303,2.2081,-0.1353,0.1654,
10.335885,-0.0905,-1.2778,-0.4092,1.3401,-2.6182,-4.0303,2.2081,-0.1353,0.1654,
10.337050,0.0937,-1.2326,-0.6466,1.3401,-2.6182,-4.0303,2.2081,-0.1353,0.1654,
10.338790,0.2637,-1.1695,-0.9098,1.3401,-2.6182,-4.0303,2.2081,-0.1353,0.1654,
10.369656,0.2637,-1.1695,-0.9098,1.3401,-2.6182,-4.0303,1.0224,-2.4757,0.5691,
10.372617,0.2637,-1.1695,-0.9098,1.5216,-2.6288,-4.5853,1.0224,-2.4757,0.5691,
10.410376,0.2637,-1.1695,-0.9098,1.5216,-2.6288,-4.5853,-1.1156,-2.6930,0.6682,
10.413432,0.2637,-1.1695,-0.9098,4.9858,-0.3662,-9.8758,-1.1156,-2.6930,0.6682,
10.416205,0.2782,-1.0503,-1.2046,4.9858,-0.3662,-9.8758,-1.1156,-2.6930,0.6682,
10.417483,0.1897,-0.8937,-0.9117,4.9858,-0.3662,-9.8758,-1.1156,-2.6930,0.6682,
10.418694,0.1027,-0.7357,-0.7295,4.9858,-0.3662,-9.8758,-1.1156,-2.6930,0.6682,
10.419837,0.1533,-0.6807,-0.7558,4.9858,-0.3662,-9.8758,-1.1156,-2.6930,0.6682,
10.448775,0.1533,-0.6807,-0.7558,5.2356,-0.5070,-8.7208,-1.1156,-2.6930,0.6682,
10.450699,0.1533,-0.6807,-0.7558,5.2356,-0.5070,-8.7208,-3.2589,-2.3010,0.7747,
10.492002,0.1533,-0.6807,-0.7558,5.2356,-0.5070,-8.7208,-4.2016,-2.1774,0.2378,
10.494577,0.3715,-0.7059,-0.4187,5.2356,-0.5070,-8.7208,-4.2016,-2.1774,0.2378,
10.496236,0.4255,-0.8046,0.1344,5.2356,-0.5070,-8.7208,-4.2016,-2.1774,0.2378,
10.499367,0.4843,-0.8414,0.6653,5.2356,-0.5070,-8.7208,-4.2016,-2.1774,0.2378,
10.500367,0.5278,-0.9570,1.1111,5.2356,-0.5070,-8.7208,-4.2016,-2.1774,0.2378,
10.501658,0.5278,-0.9570,1.1111,5.0554,2.3594,-3.6658,-4.2016,-2.1774,0.2378,
10.529524,0.5278,-0.9570,1.1111,5.0554,2.3594,-3.6658,-3.0810,-2.2360,-1.0938,
10.531468,0.5278,-0.9570,1.1111,7.4472,0.5428,9.4904,-3.0810,-2.2360,-1.0938,
10.568767,0.5278,-0.9570,1.1111,7.4472,0.5428,9.4904,-1.0388,-2.3042,-1.2088,
10.570817,0.5278,-0.9570,1.1111,-0.6074,-7.5253,4.7700,-1.0388,-2.3042,-1.2088,
10.571936,0.0505,-1.3960,1.0425,-0.6074,-7.5253,4.7700,-1.0388,-2.3042,-1.2088,
10.572870,-0.4863,-1.7845,0.4085,-0.6074,-7.5253,4.7700,-1.0388,-2.3042,-1.2088,
10.573815,-0.5574,-1.9286,-0.9989,-0.6074,-7.5253,4.7700,-1.0388,-2.3042,-1.2088,
10.574712,-0.4360,-1.6384,-0.9063,-0.6074,-7.5253,4.7700,-1.0388,-2.3042,-1.2088,
10.607155,-0.4360,-1.6384,-0.9063,-0.6074,-7.5253,4.7700,-2.3353,0.0724,-1.3015,
10.609735,-0.4360,-1.6384,-0.9063,-1.0744,-7.6134,5.5186,-2.3353,0.0724,-1.3015,
10.647504,-0.4360,-1.6384,-0.9063,-1.0744,-7.6134,5.5186,-0.9206,0.7063,-2.0909,
10.649733,-0.4360,-1.6384,-0.9063,0.5828,-5.3004,3.1617,-0.9206,0.7063,-2.0909,
10.650671,-0.0903,-1.3669,0.1432,0.5828,-5.3004,3.1617,-0.9206,0.7063,-2.0909,
10.651791,0.3099,-1.4202,0.3944,0.5828,-5.3004,3.1617,-0.9206,0.7063,-2.0909,
10.652706,0.6656,-1.5712,0.2864,0.5828,-5.3004,3.1617,-0.9206,0.7063,-2.0909,
10.653532,0.4279,-1.5807,-0.1634,0.5828,-5.3004,3.1617,-0.9206,0.7063,-2.0909,
10.687073,0.4279,-1.5807,-0.1634,0.5828,-5.3004,3.1617,0.7891,-1.2804,-2.8429,
10.689774,0.4279,-1.5807,-0.1634,-0.2426,-4.9882,2.7849,0.7891,-1.2804,-2.8429,
10.726397,0.4279,-1.5807,-0.1634,-0.2426,-4.9882,2.7849,0.3108,-2.7079,-1.7681,
10.728648,0.4279,-1.5807,-0.1634,3.5988,-4.7058,3.1638,0.3108,-2.7079,-1.7681,
10.729946,-0.0392,-1.2328,-0.3144,3.5988,-4.7058,3.1638,0.3108,-2.7079,-1.7681,
10.731236,-0.3917,-0.7838,-0.0491,3.5988,-4.7058,3.1638,0.3108,-2.7079,-1.7681,
10.732954,-0.5899,-0.3858,0.2773,3.5988,-4.7058,3.1638,0.3108,-2.7079,-1.7681,
10.734029,-0.7799,-0.1654,0.4750,3.5988,-4.7058,3.1638,0.3108,-2.7079,-1.7681,
10.766385,-0.7799,-0.1654,0.4750,3.5988,-4.7058,3.1638,0.5814,-0.4943,-0.5153,
10.768805,-0.7799,-0.1654,0.4750,-5.6274,5.2543,5.7634,0.5814,-0.4943,-0.5153,
10.805812,-0.7799,-0.1654,0.4750,-7.9975,9.2927,4.0207,0.5814,-0.4943,-0.5153,
10.808721,-0.7799,-0.1654,0.4750,-7.9975,9.2927,4.0207,1.8288,1.1303,-0.1936,
10.810064,-0.8432,-0.0460,0.4144,-7.9975,9.2927,4.0207,1.8288,1.1303,-0.1936,
10.811209,-0.8479,-0.0294,0.1840,-7.9975,9.2927,4.0207,1.8288,1.1303,-0.1936,
10.812394,-0.7726,-0.0445,-0.1917,-7.9975,9.2927,4.0207,1.8288,1.1303,-0.1936,
10.813641,-0.7726,-0.1596,-0.5164,-7.9975,9.2927,4.0207,1.8288,1.1303,-0.1936,
10.845169,-0.7726,-0.1596,-0.5164,-7.7073,9.2716,3.4044,1.8288,1.1303,-0.1936,
10.847113,-0.7726,-0.1596,-0.5164,-7.7073,9.2716,3.4044,1.4475,0.2983,0.4892,
10.884631,-0.7726,-0.1596,-0.5164,-7.7073,9.2716,3.4044,1.0096,1.1718,0.7396,
10.887440,-0.7726,-0.1596,-0.5164,-2.7045,2.1966,-1.4998,1.0096,1.1718,0.7396,
10.891186,-0.4528,-0.6240,-0.4356,-2.7045,2.1966,-1.4998,1.0096,1.1718,0.7396,
10.892814,0.2185,-1.5099,-0.0381,-2.7045,2.1966,-1.4998,1.0096,1.1718,0.7396,
10.893905,0.1624,-2.2726,-0.0671,-2.7045,2.1966,-1.4998,1.0096,1.1718,0.7396,
10.895214,-0.1843,-2.1580,0.0196,-2.7045,2.1966,-1.4998,1.0096,1.1718,0.7396,
10.924396,-0.1843,-2.1580,0.0196,-2.7045,2.1966,-1.4998,0.3268,0.9896,0.2122,
10.926583,-0.1843,-2.1580,0.0196,-2.6434,2.1764,-1.5748,0.3268,0.9896,0.2122,
10.964744,-0.1843,-2.1580,0.0196,-2.6434,2.1764,-1.5748,0.2128,2.7399,-0.4003,
10.967529,-0.1843,-2.1580,0.0196,-1.4415,-10.2547,2.3238,0.2128,2.7399,-0.4003,
10.969731,-0.5229,-1.7280,0.2717,-1.4415,-10.2547,2.3238,0.2128,2.7399,-0.4003,
10.971125,-0.7399,-1.5201,-0.4893,-1.4415,-10.2547,2.3238,0.2128,2.7399,-0.4003,
10.972737,-0.5403,-0.8524,-0.1160,-1.4415,-10.2547,2.3238,0.2128,2.7399,-0.4003,
10.974244,-0.3788,-0.5666,0.4415,-1.4415,-10.2547,2.3238,0.2128,2.7399,-0.4003,
11.004019,-0.3788,-0.5666,0.4415,-5.3800,0.2567,1.0800,0.2128,2.7399,-0.4003,
11.007723,-0.3788,-0.5666,0.4415,-5.3800,0.2567,1.0800,-0.0364,5.2060,-0.1478,
11.044764,-0.3788,-0.5666,0.4415,-5.3800,0.2567,1.0800,-0.0205,3.2885,1.1987,
11.047360,-0.3788,-0.5666,0.4415,-1.6392,-1.0463,3.8781,-0.0205,3.2885,1.1987,
11.048361,-0.3206,-0.7335,0.1891,-1.6392,-1.0463,3.8781,-0.0205,3.2885,1.1987,
11.049358,-0.2776,-1.1749,0.2751,-1.6392,-1.0463,3.8781,-0.0205,3.2885,1.1987,
11.050101,-0.0026,-1.4327,0.2422,-1.6392,-1.0463,3.8781,-0.0205,3.2885,1.1987,
11.050781,0.3825,-1.4082,-0.5001,-1.6392,-1.0463,3.8781,-0.0205,3.2885,1.1987,
11.083273,0.3825,-1.4082,-0.5001,-1.6392,-1.0463,3.8781,0.4717,3.2022,1.0421,
11.085726,0.3825,-1.4082,-0.5001,-1.4008,-1.0186,3.6862,0.4717,3.2022,1.0421,
11.122799,0.3825,-1.4082,-0.5001,-1.4008,-1.0186,3.6862,0.5740,3.0307,0.3284,
11.125490,0.3825,-1.4082,-0.5001,4.8528,1.0496,-2.5598,0.5740,3.0307,0.3284,
11.126882,0.4704,-0.8637,-0.5814,4.8528,1.0496,-2.5598,0.5740,3.0307,0.3284,
11.128133,0.4944,-0.4374,-0.0894,4.8528,1.0496,-2.5598,0.5740,3.0307,0.3284,
11.129553,0.5259,-0.4244,-0.0105,4.8528,1.0496,-2.5598,0.5740,3.0307,0.3284,
11.130830,0.5789,-0.6695,-0.0434,4.8528,1.0496,-2.5598,0.5740,3.0307,0.3284,
11.162427,0.5789,-0.6695,-0.0434,4.8528,1.0496,-2.5598,1.0331,1.1345,0.0333,
11.164569,0.5789,-0.6695,-0.0434,4.7342,1.0748,-2.8973,1.0331,1.1345,0.0333,
11.202221,0.5789,-0.6695,-0.0434,4.7342,1.0748,-2.8973,0.4621,0.2376,-0.1297,
11.204759,0.5789,-0.6695,-0.0434,6.0684,2.3267,-0.0254,0.4621,0.2376,-0.1297,
11.206346,0.7006,-1.2252,-0.1832,6.0684,2.3267,-0.0254,0.4621,0.2376,-0.1297,
11.207555,0.6832,-1.8563,-0.3078,6.0684,2.3267,-0.0254,0.4621,0.2376,-0.1297,
11.208971,0.4775,-1.6955,-0.3532,6.0684,2.3267,-0.0254,0.4621,0.2376,-0.1297,
11.210220,0.0641,-0.9206,-0.6672,6.0684,2.3267,-0.0254,0.4621,0.2376,-0.1297,
11.241811,0.0641,-0.9206,-0.6672,6.0684,2.3267,-0.0254,-0.4828,-1.4402,-0.5974,
11.244290,0.0641,-0.9206,-0.6672,3.9189,-4.6430,-3.3475,-0.4828,-1.4402,-0.5974,
11.281054,0.0641,-0.9206,-0.6672,3.9189,-4.6430,-3.3475,-0.8120,-0.7798,-0.0083,
11.283434,0.0641,-0.9206,-0.6672,-5.8994,1.4413,2.0436,-0.8120,-0.7798,-0.0083,
11.284838,-0.6097,-0.7391,-0.5118,-5.8994,1.4413,2.0436,-0.8120,-0.7798,-0.0083,
11.286252,-0.6632,-0.8761,0.2825,-5.8994,1.4413,2.0436,-0.8120,-0.7798,-0.0083,
11.287553,-0.5481,-0.9758,0.4632,-5.8994,1.4413,2.0436,-0.8120,-0.7798,-0.0083,
11.289098,-0.4125,-0.9543,0.2976,-5.8994,1.4413,2.0436,-0.8120,-0.7798,-0.0083,
11.320868,-0.4125,-0.9543,0.2976,-5.8994,1.4413,2.0436,0.1021,-0.9800,0.5478,
11.323178,-0.4125,-0.9543,0.2976,-5.5404,1.4183,1.9638,0.1021,-0.9800,0.5478,
11.361187,-0.4125,-0.9543,0.2976,-5.5404,1.4183,1.9638,0.2608,-0.9843,0.3625,
11.363763,-0.4125,-0.9543,0.2976,-0.5575,0.3389,1.7632,0.2608,-0.9843,0.3625,
11.365386,-0.1267,-0.9536,0.0917,-0.5575,0.3389,1.7632,0.2608,-0.9843,0.3625,
11.366582,0.1836,-1.0132,-0.1702,-0.5575,0.3389,1.7632,0.2608,-0.9843,0.3625,
11.368008,0.2645,-0.9973,-0.3569,-0.5575,0.3389,1.7632,0.2608,-0.9843,0.3625,
11.369898,0.0869,-0.9438,-0.2008,-0.5575,0.3389,1.7632,0.2608,-0.9843,0.3625,
11.400816,0.0869,-0.9438,-0.2008,-0.5575,0.3389,1.7632,-0.4434,0.0384,-0.0519,
11.403236,0.0869,-0.9438,-0.2008,-0.5704,0.3149,1.9051,-0.4434,0.0384,-0.0519,
11.440166,0.0869,-0.9438,-0.2008,-0.5704,0.3149,1.9051,-0.5659,-0.2471,0.0056,
11.442553,0.0869,-0.9438,-0.2008,1.5500,0.5336,-0.5058,-0.5659,-0.2471,0.0056,
11.443839,-0.0543,-0.9013,-0.0298,1.5500,0.5336,-0.5058,-0.5659,-0.2471,0.0056,
11.445179,-0.1020,-0.9445,-0.0259,1.5500,0.5336,-0.5058,-0.5659,-0.2471,0.0056,
11.446299,-0.1926,-1.0625,-0.0300,1.5500,0.5336,-0.5058,-0.5659,-0.2471,0.0056,
11.447431,-0.2383,-1.0144,0.0853,1.5500,0.5336,-0.5058,-0.5659,-0.2471,0.0056,
11.479619,-0.2383,-1.0144,0.0853,1.5500,0.5336,-0.5058,-0.4114,0.4687,-0.1031,
11.482087,-0.2383,-1.0144,0.0853,-1.2089,-0.0723,1.6513,-0.4114,0.4687,-0.1031,
11.519229,-0.2383,-1.0144,0.0853,-1.2089,-0.0723,1.6513,-0.1771,1.6842,-0.1233,
11.521810,-0.2383,-1.0144,0.0853,-2.5772,1.6458,0.0566,-0.1771,1.6842,-0.1233,
11.523219,-0.2833,-0.8678,0.1356,-2.5772,1.6458,0.0566,-0.1771,1.6842,-0.1233,
11.524611,-0.3517,-0.7987,-0.1153,-2.5772,1.6458,0.0566,-0.1771,1.6842,-0.1233,
11.526033,-0.2825,-0.8177,-0.5091,-2.5772,1.6458,0.0566,-0.1771,1.6842,-0.1233,
11.527115,-0.1982,-0.8278,-0.4771,-2.5772,1.6458,0.0566,-0.1771,1.6842,-0.1233,
11.558749,-0.1982,-0.8278,-0.4771,-2.5772,1.6458,0.0566,-0.3880,1.8461,-0.0051,
11.563258,-0.1982,-0.8278,-0.4771,-2.6611,1.5921,0.2285,-0.3880,1.8461,-0.0051,
11.598798,-0.1982,-0.8278,-0.4771,-2.6611,1.5921,0.2285,0.0871,1.7620,-0.0967,
11.600927,-0.1982,-0.8278,-0.4771,-2.6404,2.5677,-1.4795,0.0871,1.7620,-0.0967,
11.602260,-0.3250,-0.7354,-0.2626,-2.6404,2.5677,-1.4795,0.0871,1.7620,-0.0967,
11.603146,-0.3509,-0.6113,-0.2748,-2.6404,2.5677,-1.4795,0.0871,1.7620,-0.0967,
11.604027,-0.3294,-0.6856,-0.1033,-2.6404,2.5677,-1.4795,0.0871,1.7620,-0.0967,
11.604823,-0.4206,-1.0542,-0.0779,-2.6404,2.5677,-1.4795,0.0871,1.7620,-0.0967,
11.637467,-0.4206,-1.0542,-0.0779,-2.6404,2.5677,-1.4795,0.7455,2.7377,-0.1638,
11.639448,-0.4206,-1.0542,-0.0779,-2.8409,2.5749,-1.7272,0.7455,2.7377,-0.1638,
11.676894,-0.1875,-1.6310,-0.5081,-2.8409,2.5749,-1.7272,0.7455,2.7377,-0.1638,
11.678529,0.2361,-1.7185,-0.1544,-2.8409,2.5749,-1.7272,0.7455,2.7377,-0.1638,
11.679099,-0.0426,-0.9895,-0.1634,-2.8409,2.5749,-1.7272,0.7455,2.7377,-0.1638,
11.679588,-0.0426,-0.9895,-0.1634,-2.8409,2.5749,-1.7272,0.2672,3.3876,-0.1020,
11.680020,-0.0426,-0.9895,-0.1634,-3.2350,-1.2954,-0.7692,0.2672,3.3876,-0.1020,
11.716725,-0.0426,-0.9895,-0.1634,-3.2350,-1.2954,-0.7692,0.1830,1.7566,0.0120,
11.719368,-0.0426,-0.9895,-0.1634,-0.7609,-0.8020,-1.0679,0.1830,1.7566,0.0120,
11.758029,-0.0426,-0.9895,-0.1634,-0.7609,-0.8020,-1.0679,0.7305,3.4110,0.5095,
11.760545,-0.0426,-0.9895,-0.1634,-0.7221,-0.7479,-1.3618,0.7305,3.4110,0.5095,
11.762078,-0.3482,-0.5192,-0.4422,-0.7221,-0.7479,-1.3618,0.7305,3.4110,0.5095,
11.763369,-0.1814,-0.6724,0.2441,-0.7221,-0.7479,-1.3618,0.7305,3.4110,0.5095,
11.764663,-0.1132,-1.0772,0.5957,-0.7221,-0.7479,-1.3618,0.7305,3.4110,0.5095,
11.766091,-0.0622,-1.4439,0.6675,-0.7221,-0.7479,-1.3618,0.7305,3.4110,0.5095,
11.767219,0.4389,-1.6604,0.2380,-0.7221,-0.7479,-1.3618,0.7305,3.4110,0.5095,
11.798305,0.4389,-1.6604,0.2380,-1.3072,-0.5672,5.1162,0.7305,3.4110,0.5095,
11.800735,0.4389,-1.6604,0.2380,-1.3072,-0.5672,5.1162,2.0994,2.9859,0.3646,
11.826319,0.6331,-1.5873,-0.3794,-1.3072,-0.5672,5.1162,2.0994,2.9859,0.3646,
11.829007,0.3886,-1.1590,-0.6325,-1.3072,-0.5672,5.1162,2.0994,2.9859,0.3646,
11.830124,0.1968,-0.8837,-0.2787,-1.3072,-0.5672,5.1162,2.0994,2.9859,0.3646,
11.842444,0.1968,-0.8837,-0.2787,-1.3072,-0.5672,5.1162,1.3079,1.8280,-0.1617,
11.845359,0.1968,-0.8837,-0.2787,4.4951,-4.4595,-2.8100,1.3079,1.8280,-0.1617,
11.875248,0.1968,-0.8837,-0.2787,4.4951,-4.4595,-2.8100,0.7039,1.5500,-0.2937,
11.876965,0.1968,-0.8837,-0.2787,-0.1797,1.3447,-0.9790,0.7039,1.5500,-0.2937,
11.913850,0.0338,-0.8153,0.0814,-0.1797,1.3447,-0.9790,0.7039,1.5500,-0.2937,
11.916801,-0.1750,-0.9191,0.0697,-0.1797,1.3447,-0.9790,0.7039,1.5500,-0.2937,
11.918145,-0.3311,-0.9968,-0.1145,-0.1797,1.3447,-0.9790,0.7039,1.5500,-0.2937,
11.919460,-0.2312,-0.8634,-0.2848,-0.1797,1.3447,-0.9790,0.7039,1.5500,-0.2937,
11.920457,-0.2312,-0.8634,-0.2848,-0.1797,1.3447,-0.9790,1.2046,2.2605,0.0514,
11.921777,-0.2312,-0.8634,-0.2848,-0.0856,1.2846,-1.4560,1.2046,2.2605,0.0514,
11.954810,-0.2312,-0.8634,-0.2848,-0.0856,1.2846,-1.4560,1.0011,2.0059,0.9238,
11.956993,-0.2312,-0.8634,-0.2848,-1.5509,1.1548,-3.8318,1.0011,2.0059,0.9238,
11.994389,-0.2312,-0.8634,-0.2848,-1.5509,1.1548,-3.8318,-0.3986,1.3721,0.9174,
11.997177,-0.2312,-0.8634,-0.2848,-1.1044,1.1398,-3.5938,-0.3986,1.3721,0.9174,
11.998632,0.0211,-0.7769,-0.3544,-1.1044,1.1398,-3.5938,-0.3986,1.3721,0.9174,
11.999843,0.3637,-0.9333,-0.4434,-1.1044,1.1398,-3.5938,-0.3986,1.3721,0.9174,
12.002360,0.7506,-1.2961,-0.6398,-1.1044,1.1398,-3.5938,-0.3986,1.3721,0.9174,
12.003647,0.8198,-1.4493,-0.8509,-1.1044,1.1398,-3.5938,-0.3986,1.3721,0.9174,
12.005110,0.3734,-1.2797,-0.7004,-1.1044,1.1398,-3.5938,-0.3986,1.3721,0.9174,
12.033776,0.3734,-1.2797,-0.7004,-1.1044,1.1398,-3.5938,-2.9276,-1.1313,0.4317,
12.037677,0.3734,-1.2797,-0.7004,7.0098,-2.1713,-6.2430,-2.9276,-1.1313,0.4317,
12.073928,0.3734,-1.2797,-0.7004,2.0857,-1.6107,-2.8240,-2.9276,-1.1313,0.4317,
12.075960,0.3734,-1.2797,-0.7004,2.0857,-1.6107,-2.8240,-4.5255,-1.8898,0.6831,
12.076967,-0.0060,-1.1561,-0.5098,2.0857,-1.6107,-2.8240,-4.5255,-1.8898,0.6831,
12.077803,-0.0324,-1.0217,-0.2093,2.0857,-1.6107,-2.8240,-4.5255,-1.8898,0.6831,
12.078794,0.0358,-0.9541,0.2829,2.0857,-1.6107,-2.8240,-4.5255,-1.8898,0.6831,
12.079609,-0.2916,-1.4434,0.4738,2.0857,-1.6107,-2.8240,-4.5255,-1.8898,0.6831,
12.113463,-0.2916,-1.4434,0.4738,2.0857,-1.6107,-2.8240,-3.2621,0.1513,0.1462,
12.115567,-0.2916,-1.4434,0.4738,2.0830,-1.8986,-1.5580,-3.2621,0.1513,0.1462,
12.152209,-0.2916,-1.4434,0.4738,2.0830,-1.8986,-1.5580,-1.7302,-1.2197,-0.1041,
12.155569,-0.2916,-1.4434,0.4738,-0.5549,-4.8324,6.8343,-1.7302,-1.2197,-0.1041,
12.156575,-0.2593,-1.9137,0.2492,-0.5549,-4.8324,6.8343,-1.7302,-1.2197,-0.1041,
12.157501,0.2804,-1.7507,0.2541,-0.5549,-4.8324,6.8343,-1.7302,-1.2197,-0.1041,
12.158457,0.5896,-1.3689,0.2544,-0.5549,-4.8324,6.8343,-1.7302,-1.2197,-0.1041,
12.159355,0.7106,-1.0259,-0.0864,-0.5549,-4.8324,6.8343,-1.7302,-1.2197,-0.1041,
12.192164,0.7106,-1.0259,-0.0864,-0.5549,-4.8324,6.8343,-0.8215,-2.2605,-0.6687,
12.194736,0.7106,-1.0259,-0.0864,6.2713,-4.3062,5.0356,-0.8215,-2.2605,-0.6687,
12.232969,0.4978,-0.8583,-0.1114,6.2713,-4.3062,5.0356,-0.8215,-2.2605,-0.6687,
12.235993,0.2163,-0.7843,0.0645,6.2713,-4.3062,5.0356,-0.8215,-2.2605,-0.6687,
12.237315,0.1284,-0.6753,0.2605,6.2713,-4.3062,5.0356,-0.8215,-2.2605,-0.6687,
12.238629,0.1284,-0.6753,0.2605,6.2713,-4.3062,5.0356,-0.3603,-3.6123,-0.8402,
12.239826,0.1284,-0.6753,0.2605,4.0086,1.6246,4.2412,-0.3603,-3.6123,-0.8402,
12.272618,0.1284,-0.6753,0.2605,4.0086,1.6246,4.2412,-0.0854,-5.0770,-0.4194,
12.275360,0.1284,-0.6753,0.2605,3.7853,4.2221,10.3308,-0.0854,-5.0770,-0.4194,
12.312148,0.1284,-0.6753,0.2605,3.7853,4.2221,10.3308,0.1798,-5.1346,-0.4333,
12.315950,0.1284,-0.6753,0.2605,4.1437,4.2045,9.7039,0.1798,-5.1346,-0.4333,
12.317416,0.1291,-0.5817,0.5065,4.1437,4.2045,9.7039,0.1798,-5.1346,-0.4333,
12.319150,0.1792,-0.4906,0.7440,4.1437,4.2045,9.7039,0.1798,-5.1346,-0.4333,
12.320477,0.3214,-0.4322,0.9646,4.1437,4.2045,9.7039,0.1798,-5.1346,-0.4333,
12.321999,0.2828,-0.4708,0.9482,4.1437,4.2045,9.7039,0.1798,-5.1346,-0.4333,
12.323264,0.0417,-0.5175,0.7083,4.1437,4.2045,9.7039,0.1798,-5.1346,-0.4333,
12.351338,0.0417,-0.5175,0.7083,4.1437,4.2045,9.7039,1.1844,-4.6488,-1.6669,
12.353941,0.0417,-0.5175,0.7083,3.8543,4.3592,8.7475,1.1844,-4.6488,-1.6669,
12.391385,0.0417,-0.5175,0.7083,3.8543,4.3592,8.7475,1.0001,-5.6928,-0.6922,
12.394123,0.0417,-0.5175,0.7083,0.6424,2.4609,6.3160,1.0001,-5.6928,-0.6922,
12.395709,-0.6734,-1.1134,0.0829,0.6424,2.4609,6.3160,1.0001,-5.6928,-0.6922,
12.396958,-1.8637,-2.2122,-0.8489,0.6424,2.4609,6.3160,1.0001,-5.6928,-0.6922,
12.398292,-1.3931,-1.4928,-0.7578,0.6424,2.4609,6.3160,1.0001,-5.6928,-0.6922,
12.399559,-0.0531,-0.8998,0.0245,0.6424,2.4609,6.3160,1.0001,-5.6928,-0.6922,
12.430726,-0.0531,-0.8998,0.0245,0.6424,2.4609,6.3160,-1.0985,-1.4882,0.9281,
12.433341,-0.0531,-0.8998,0.0245,-8.5082,-5.7243,-4.1687,-1.0985,-1.4882,0.9281,
12.470581,-0.0531,-0.8998,0.0245,-8.5082,-5.7243,-4.1687,-0.8322,-1.9175,0.3561,
12.473112,-0.0531,-0.8998,0.0245,4.8866,-3.5254,0.1881,-0.8322,-1.9175,0.3561,
12.474749,0.0702,-1.5301,0.0772,4.8866,-3.5254,0.1881,-0.8322,-1.9175,0.3561,
12.476337,0.0932,-1.4774,-0.6396,4.8866,-3.5254,0.1881,-0.8322,-1.9175,0.3561,
12.477474,0.5872,-0.9213,0.2776,4.8866,-3.5254,0.1881,-0.8322,-1.9175,0.3561,
12.479202,0.5576,-0.7669,0.7308,4.8866,-3.5254,0.1881,-0.8322,-1.9175,0.3561,
12.509528,0.5576,-0.7669,0.7308,4.8866,-3.5254,0.1881,0.1617,-1.6831,-0.4152,
12.512310,0.5576,-0.7669,0.7308,4.7224,-3.4220,-0.0325,0.1617,-1.6831,-0.4152,
12.549862,0.5576,-0.7669,0.7308,4.7224,-3.4220,-0.0325,0.4472,-1.3177,-0.3768,
12.552593,0.5576,-0.7669,0.7308,2.8227,-0.5365,2.1182,0.4472,-1.3177,-0.3768,
12.554005,0.0014,-1.0193,0.0506,2.8227,-0.5365,2.1182,0.4472,-1.3177,-0.3768,
12.555369,-0.3443,-1.2763,-0.3100,2.8227,-0.5365,2.1182,0.4472,-1.3177,-0.3768,
12.556482,-0.3460,-1.2294,-0.1634,2.8227,-0.5365,2.1182,0.4472,-1.3177,-0.3768,
12.557566,-0.2053,-0.9003,0.0242,2.8227,-0.5365,2.1182,0.4472,-1.3177,-0.3768,
12.589195,-0.2053,-0.9003,0.0242,2.8227,-0.5365,2.1182,-0.2697,-1.2826,0.0322,
12.591615,-0.2053,-0.9003,0.0242,2.8152,-0.5361,2.0760,-0.2697,-1.2826,0.0322,
12.629736,-0.2053,-0.9003,0.0242,2.8152,-0.5361,2.0760,-0.4466,-1.3497,0.1686,
12.632445,-0.2053,-0.9003,0.0242,0.0887,-0.1171,0.5222,-0.4466,-1.3497,0.1686,
12.633796,-0.0966,-0.7977,0.1217,0.0887,-0.1171,0.5222,-0.4466,-1.3497,0.1686,
12.635562,-0.1516,-0.8673,0.0763,0.0887,-0.1171,0.5222,-0.4466,-1.3497,0.1686,
12.637007,-0.1763,-0.8690,-0.0439,0.0887,-0.1171,0.5222,-0.4466,-1.3497,0.1686,
12.637977,-0.0187,-0.7848,0.1095,0.0887,-0.1171,0.5222,-0.4466,-1.3497,0.1686,
12.667961,-0.0187,-0.7848,0.1095,0.0887,-0.1171,0.5222,-0.8194,-1.4125,0.5212,
12.670049,-0.0187,-0.7848,0.1095,1.2831,1.1215,1.1986,-0.8194,-1.4125,0.5212,
12.708478,-0.0187,-0.7848,0.1095,1.2831,1.1215,1.1986,-0.7012,-0.1299,0.2229,
12.711233,-0.0187,-0.7848,0.1095,2.3059,-0.6227,4.3794,-0.7012,-0.1299,0.2229,
12.715752,0.1768,-0.7743,0.3357,2.3059,-0.6227,4.3794,-0.7012,-0.1299,0.2229,
12.716922,0.1641,-0.9619,0.4535,2.3059,-0.6227,4.3794,-0.7012,-0.1299,0.2229,
12.717911,-0.3886,-1.3083,0.2734,2.3059,-0.6227,4.3794,-0.7012,-0.1299,0.2229,
12.719432,-1.0360,-1.4771,-0.3049,2.3059,-0.6227,4.3794,-0.7012,-0.1299,0.2229,
12.747970,-1.0360,-1.4771,-0.3049,2.3059,-0.6227,4.3794,-0.7843,2.8038,-0.5079,
12.750667,-1.0360,-1.4771,-0.3049,1.9509,-0.6024,4.8442,-0.7843,2.8038,-0.5079,
12.787060,-1.0360,-1.4771,-0.3049,-8.6802,-3.4371,-1.8241,-0.7843,2.8038,-0.5079,
12.789781,-1.0360,-1.4771,-0.3049,-8.6802,-3.4371,-1.8241,-1.1646,4.4976,-0.5590,
12.791130,-1.1413,-1.3176,-0.3989,-8.6802,-3.4371,-1.8241,-1.1646,4.4976,-0.5590,
12.793088,-1.0106,-1.1231,-0.5172,-8.6802,-3.4371,-1.8241,-1.1646,4.4976,-0.5590,
12.794462,-0.7775,-0.8466,-0.3559,-8.6802,-3.4371,-1.8241,-1.1646,4.4976,-0.5590,
12.795761,-0.6099,-0.5488,0.0662,-8.6802,-3.4371,-1.8241,-1.1646,4.4976,-0.5590,
12.826826,-0.6099,-0.5488,0.0662,-8.6802,-3.4371,-1.8241,-0.8663,3.7849,0.2208,
12.829598,-0.6099,-0.5488,0.0662,-8.8168,-3.4750,-1.2475,-0.8663,3.7849,0.2208,
12.866087,-0.6099,-0.5488,0.0662,-8.8168,-3.4750,-1.2475,0.4717,3.1340,0.5915,
12.868583,-0.6099,-0.5488,0.0662,-4.4847,3.2261,2.0103,0.4717,3.1340,0.5915,
12.869536,-0.4582,-0.4596,0.0721,-4.4847,3.2261,2.0103,0.4717,3.1340,0.5915,
12.870310,-0.1587,-0.6020,0.0049,-4.4847,3.2261,2.0103,0.4717,3.1340,0.5915,
12.871844,0.1467,-0.7523,-0.0132,-4.4847,3.2261,2.0103,0.4717,3.1340,0.5915,
12.872561,0.2603,-0.7330,-0.0310,-4.4847,3.2261,2.0103,0.4717,3.1340,0.5915,
12.905834,0.2603,-0.7330,-0.0310,-4.4847,3.2261,2.0103,1.4805,3.1905,-0.2607,
12.908406,0.2603,-0.7330,-0.0310,1.9014,2.5856,2.1777,1.4805,3.1905,-0.2607,
12.946365,0.2603,-0.7330,-0.0310,1.9014,2.5856,2.1777,2.3103,3.5612,-0.7049,
12.948819,0.2603,-0.7330,-0.0310,3.2215,4.5235,-0.2617,2.3103,3.5612,-0.7049,
12.950165,0.2151,-0.5962,-0.0564,3.2215,4.5235,-0.2617,2.3103,3.5612,-0.7049,
12.951315,0.2019,-0.4826,-0.1986,3.2215,4.5235,-0.2617,2.3103,3.5612,-0.7049,
12.952745,0.4179,-0.4530,-0.3014,3.2215,4.5235,-0.2617,2.3103,3.5612,-0.7049,
12.954206,0.3918,-0.5839,-0.1573,3.2215,4.5235,-0.2617,2.3103,3.5612,-0.7049,
12.985938,0.3918,-0.5839,-0.1573,3.2215,4.5235,-0.2617,2.2773,3.8456,-0.6677,
12.989583,0.3918,-0.5839,-0.1573,2.7468,4.5572,-1.0686,2.2773,3.8456,-0.6677,
13.026792,0.3918,-0.5839,-0.1573,2.7468,4.5572,-1.0686,0.8914,2.0975,-0.1297,
13.030157,0.3918,-0.5839,-0.1573,0.4167,0.1090,-4.6273,0.8914,2.0975,-0.1297,
13.031882,-0.0040,-0.8395,-0.4734,0.4167,0.1090,-4.6273,0.8914,2.0975,-0.1297,
13.033245,-0.2346,-1.4757,-0.9344,0.4167,0.1090,-4.6273,0.8914,2.0975,-0.1297,
13.034487,-0.2471,-1.8888,-0.4568,0.4167,0.1090,-4.6273,0.8914,2.0975,-0.1297,
13.035723,-0.4013,-1.8778,-0.9777,0.4167,0.1090,-4.6273,0.8914,2.0975,-0.1297,
13.064518,-0.4013,-1.8778,-0.9777,0.5468,0.0988,-4.4045,0.8914,2.0975,-0.1297,
13.066790,-0.4013,-1.8778,-0.9777,0.5468,0.0988,-4.4045,-0.3954,0.9609,0.4178,
13.104649,-0.4013,-1.8778,-0.9777,0.5468,0.0988,-4.4045,-0.5456,1.3177,0.9036,
13.107274,-0.4013,-1.8778,-0.9777,-3.3307,-8.5791,-8.4067,-0.5456,1.3177,0.9036,
13.108764,-0.4946,-1.8260,-1.4658,-3.3307,-8.5791,-8.4067,-0.5456,1.3177,0.9036,
13.110041,0.0869,-0.9597,0.3145,-3.3307,-8.5791,-8.4067,-0.5456,1.3177,0.9036,
13.110920,0.2110,-0.6523,0.5715,-3.3307,-8.5791,-8.4067,-0.5456,1.3177,0.9036,
13.112636,0.2447,-1.1168,0.2380,-3.3307,-8.5791,-8.4067,-0.5456,1.3177,0.9036,
13.143907,0.2447,-1.1168,0.2380,-3.3307,-8.5791,-8.4067,1.0203,-0.8810,1.3425,
13.146623,0.2447,-1.1168,0.2380,2.6740,0.7620,4.2485,1.0203,-0.8810,1.3425,
13.183099,0.2447,-1.1168,0.2380,2.6740,0.7620,4.2485,1.8192,-2.0464,0.2772,
13.186163,0.2447,-1.1168,0.2380,6.7695,-5.1687,-3.3381,1.8192,-2.0464,0.2772,
13.187641,0.5496,-1.5824,0.0404,6.7695,-5.1687,-3.3381,1.8192,-2.0464,0.2772,
13.189006,0.7497,-1.7117,-0.3442,6.7695,-5.1687,-3.3381,1.8192,-2.0464,0.2772,
13.190158,0.4951,-1.2780,-0.6735,6.7695,-5.1687,-3.3381,1.8192,-2.0464,0.2772,
13.191298,0.0070,-0.8852,-0.4991,6.7695,-5.1687,-3.3381,1.8192,-2.0464,0.2772,
13.223390,0.0070,-0.8852,-0.4991,6.7695,-5.1687,-3.3381,1.1002,-1.5041,-0.7571,
13.226331,0.0070,-0.8852,-0.4991,6.3453,-5.0769,-3.7480,1.1002,-1.5041,-0.7571,
13.263421,-0.3978,-0.7620,-0.2785,6.3453,-5.0769,-3.7480,1.1002,-1.5041,-0.7571,
13.265948,-0.6717,-0.7176,-0.7180,6.3453,-5.0769,-3.7480,1.1002,-1.5041,-0.7571,
13.267280,-0.3392,-0.8871,-1.1155,6.3453,-5.0769,-3.7480,1.1002,-1.5041,-0.7571,
13.268750,-0.3392,-0.8871,-1.1155,6.3453,-5.0769,-3.7480,0.5782,-0.2855,0.3262,
13.270118,-0.3392,-0.8871,-1.1155,-2.8191,2.0761,-5.5772,0.5782,-0.2855,0.3262,
13.303080,-0.3392,-0.8871,-1.1155,-2.8191,2.0761,-5.5772,-1.8762,-0.8969,1.1486,
13.306097,-0.3392,-0.8871,-1.1155,3.0007,0.0635,-8.3215,-1.8762,-0.8969,1.1486,
13.342483,-0.3392,-0.8871,-1.1155,3.0007,0.0635,-8.3215,-3.7617,-1.8120,0.3656,
13.345327,-0.3392,-0.8871,-1.1155,3.1488,-0.0757,-6.8379,-3.7617,-1.8120,0.3656,
13.346696,0.3492,-1.0503,-0.9205,3.1488,-0.0757,-6.8379,-3.7617,-1.8120,0.3656,
13.347709,0.5921,-1.0388,-0.5565,3.1488,-0.0757,-6.8379,-3.7617,-1.8120,0.3656,
13.348843,0.3827,-0.8058,-0.4060,3.1488,-0.0757,-6.8379,-3.7617,-1.8120,0.3656,
13.350042,0.2029,-0.6687,-0.3102,3.1488,-0.0757,-6.8379,-3.7617,-1.8120,0.3656,
13.351182,0.0302,-0.8915,-0.0732,3.1488,-0.0757,-6.8379,-3.7617,-1.8120,0.3656,
13.381119,0.0302,-0.8915,-0.0732,3.1488,-0.0757,-6.8379,-4.2133,-2.1923,0.2666,
13.383679,0.0302,-0.8915,-0.0732,3.4418,1.4831,0.5070,-4.2133,-2.1923,0.2666,
13.421458,0.0302,-0.8915,-0.0732,3.4418,1.4831,0.5070,-2.7188,-0.8064,-0.4642,
13.424559,0.0302,-0.8915,-0.0732,3.4964,-7.0275,7.8107,-2.7188,-0.8064,-0.4642,
13.426239,0.1504,-1.3415,0.1476,3.4964,-7.0275,7.8107,-2.7188,-0.8064,-0.4642,
13.427345,0.4174,-1.6946,0.2700,3.4964,-7.0275,7.8107,-2.7188,-0.8064,-0.4642,
13.428771,0.0996,-1.8626,0.7852,3.4964,-7.0275,7.8107,-2.7188,-0.8064,-0.4642,
13.429982,-0.1711,-1.6178,0.8595,3.4964,-7.0275,7.8107,-2.7188,-0.8064,-0.4642,
13.460854,-0.1711,-1.6178,0.8595,3.4964,-7.0275,7.8107,-0.1515,-0.5454,-1.2056,
13.463627,-0.1711,-1.6178,0.8595,3.1017,-6.8794,7.7080,-0.1515,-0.5454,-1.2056,
13.501911,-0.1711,-1.6178,0.8595,3.1017,-6.8794,7.7080,0.6613,-2.7484,-0.8530,
13.505400,-0.1711,-1.6178,0.8595,0.5647,-3.1841,4.9987,0.6613,-2.7484,-0.8530,
13.506811,-0.0023,-1.2079,0.0792,0.5647,-3.1841,4.9987,0.6613,-2.7484,-0.8530,
13.508080,0.0414,-0.9968,-0.4343,0.5647,-3.1841,4.9987,0.6613,-2.7484,-0.8530,
13.509421,0.0263,-0.7760,-0.2687,0.5647,-3.1841,4.9987,0.6613,-2.7484,-0.8530,
13.510548,-0.0922,-0.5839,0.1596,0.5647,-3.1841,4.9987,0.6613,-2.7484,-0.8530,
13.540573,-0.0922,-0.5839,0.1596,0.5647,-3.1841,4.9987,0.7657,-4.1481,-0.4109,
13.543642,-0.0922,-0.5839,0.1596,0.9088,-3.0199,4.4480,0.7657,-4.1481,-0.4109,
13.580884,-0.0922,-0.5839,0.1596,0.9088,-3.0199,4.4480,0.8658,-4.2621,0.0450,
13.583579,-0.0922,-0.5839,0.1596,0.5646,3.4079,2.4132,0.8658,-4.2621,0.0450,
13.585041,-0.3038,-0.5026,0.1835,0.5646,3.4079,2.4132,0.8658,-4.2621,0.0450,
13.586471,-0.4921,-0.4222,0.2153,0.5646,3.4079,2.4132,0.8658,-4.2621,0.0450,
13.587783,-0.4140,-0.4083,0.3150,0.5646,3.4079,2.4132,0.8658,-4.2621,0.0450,
13.589051,-0.1985,-0.5405,0.2996,0.5646,3.4079,2.4132,0.8658,-4.2621,0.0450,
13.620106,-0.1985,-0.5405,0.2996,0.5646,3.4079,2.4132,1.0736,-3.5303,0.2037,
13.622887,-0.1985,-0.5405,0.2996,-1.4754,4.9908,4.1342,1.0736,-3.5303,0.2037,
13.659111,-0.1985,-0.5405,0.2996,-1.4754,4.9908,4.1342,0.8147,-2.2924,-0.6794,
13.661510,-0.1985,-0.5405,0.2996,2.2572,-2.2490,0.8782,0.8147,-2.2924,-0.6794,
13.662866,-0.0377,-0.8287,0.1662,2.2572,-2.2490,0.8782,0.8147,-2.2924,-0.6794,
13.664002,0.1115,-1.2897,-0.0891,2.2572,-2.2490,0.8782,0.8147,-2.2924,-0.6794,
13.665838,0.0216,-1.5091,-0.0869,2.2572,-2.2490,0.8782,0.8147,-2.2924,-0.6794,
13.667160,-0.3517,-1.6017,0.0655,2.2572,-2.2490,0.8782,0.8147,-2.2924,-0.6794,
13.698063,-0.3517,-1.6017,0.0655,2.2572,-2.2490,0.8782,0.7018,-0.4826,-1.2546,
13.700212,-0.3517,-1.6017,0.0655,1.7630,-2.1070,0.5641,0.7018,-0.4826,-1.2546,
13.729414,-0.6527,-1.3347,-0.0950,1.7630,-2.1070,0.5641,0.7018,-0.4826,-1.2546,
13.732043,-0.9446,-0.9365,-0.3713,1.7630,-2.1070,0.5641,0.7018,-0.4826,-1.2546,
13.733357,-1.0391,-0.8595,-0.2440,1.7630,-2.1070,0.5641,0.7018,-0.4826,-1.2546,
13.737928,-1.0391,-0.8595,-0.2440,1.7630,-2.1070,0.5641,0.2927,0.0970,-0.5185,
13.740190,-1.0391,-0.8595,-0.2440,-5.0323,-2.8263,-0.8076,0.2927,0.0970,-0.5185,
13.777514,-1.0391,-0.8595,-0.2440,-5.0323,-2.8263,-0.8076,-0.4764,-0.2663,0.6969,
13.779550,-1.0391,-0.8595,-0.2440,-6.2074,-0.3510,1.2002,-0.4764,-0.2663,0.6969,
13.818379,-0.8403,-1.0584,0.1361,-6.2074,-0.3510,1.2002,-0.4764,-0.2663,0.6969,
13.820778,-0.5461,-1.1832,0.2761,-6.2074,-0.3510,1.2002,-0.4764,-0.2663,0.6969,
13.822511,-0.1794,-1.1510,0.2781,-6.2074,-0.3510,1.2002,-0.4764,-0.2663,0.6969,
13.823675,-0.1794,-1.1510,0.2781,-6.2074,-0.3510,1.2002,0.2160,-0.0202,0.8855,
13.825086,-0.1794,-1.1510,0.2781,-5.7669,-0.4053,1.0971,0.2160,-0.0202,0.8855,
13.857408,-0.1794,-1.1510,0.2781,-5.7669,-0.4053,1.0971,0.6581,0.5955,0.5478,
13.859755,-0.1794,-1.1510,0.2781,1.9274,-0.4235,0.9653,0.6581,0.5955,0.5478,
13.897450,0.0426,-1.0420,0.0345,1.9274,-0.4235,0.9653,0.6581,0.5955,0.5478,
13.900244,0.0153,-0.9045,-0.1187,1.9274,-0.4235,0.9653,0.6581,0.5955,0.5478,
13.901614,-0.0710,-0.8080,0.0083,1.9274,-0.4235,0.9653,0.6581,0.5955,0.5478,
13.902783,-0.1401,-0.7234,0.1029,1.9274,-0.4235,0.9653,0.6581,0.5955,0.5478,
13.904011,-0.2293,-0.6736,0.1095,1.9274,-0.4235,0.9653,0.6581,0.5955,0.5478,
13.905466,-0.3417,-0.7613,0.1816,1.9274,-0.4235,0.9653,0.6581,0.5955,0.5478,
13.907128,-0.3417,-0.7613,0.1816,1.9274,-0.4235,0.9653,0.6304,0.1172,0.5009,
13.908476,-0.3417,-0.7613,0.1816,1.0587,2.4085,0.8086,0.6304,0.1172,0.5009,
13.936581,-0.3417,-0.7613,0.1816,1.0587,2.4085,0.8086,0.7742,-0.4357,0.3571,
13.939006,-0.3417,-0.7613,0.1816,1.1727,2.3303,0.4620,0.7742,-0.4357,0.3571,
13.976528,-0.3417,-0.7613,0.1816,1.1727,2.3303,0.4620,1.1247,-0.1534,0.4211,
13.978955,-0.3417,-0.7613,0.1816,-1.0821,0.2470,0.3797,1.1247,-0.1534,0.4211,
13.980222,-0.4435,-0.9311,0.1554,-1.0821,0.2470,0.3797,1.1247,-0.1534,0.4211,
13.982532,-0.3988,-1.1287,-0.0048,-1.0821,0.2470,0.3797,1.1247,-0.1534,0.4211,
13.983814,0.0856,-1.1759,0.0218,-1.0821,0.2470,0.3797,1.1247,-0.1534,0.4211,
13.985335,0.3541,-1.1898,-0.0882,-1.0821,0.2470,0.3797,1.1247,-0.1534,0.4211,
14.015680,0.3541,-1.1898,-0.0882,-1.0821,0.2470,0.3797,0.9234,1.2155,-0.1457,
14.018665,0.3541,-1.1898,-0.0882,-1.0775,0.2290,0.1656,0.9234,1.2155,-0.1457,
14.055869,0.3541,-1.1898,-0.0882,-1.0775,0.2290,0.1656,0.7401,0.7681,-0.3193,
14.058468,0.3541,-1.1898,-0.0882,4.5521,-1.8612,-1.3119,0.7401,0.7681,-0.3193,
14.059841,0.1504,-1.1065,-0.0014,4.5521,-1.8612,-1.3119,0.7401,0.7681,-0.3193,
14.060827,0.0285,-0.9682,-0.0386,4.5521,-1.8612,-1.3119,0.7401,0.7681,-0.3193,
14.061981,0.0177,-0.9233,-0.0486,4.5521,-1.8612,-1.3119,0.7401,0.7681,-0.3193,
14.062980,-0.0094,-0.9196,-0.0539,4.5521,-1.8612,-1.3119,0.7401,0.7681,-0.3193,
14.095207,-0.0094,-0.9196,-0.0539,4.5521,-1.8612,-1.3119,0.8914,-0.5039,-0.0477,
14.097299,-0.0094,-0.9196,-0.0539,2.6546,0.2540,-1.9052,0.8914,-0.5039,-0.0477,
14.135565,-0.0094,-0.9196,-0.0539,2.6546,0.2540,-1.9052,0.2938,-0.6637,0.5009,
14.138266,-0.0094,-0.9196,-0.0539,-0.0284,-1.5481,-5.8638,0.2938,-0.6637,0.5009,
14.139822,-0.2354,-0.9646,-0.1981,-0.0284,-1.5481,-5.8638,0.2938,-0.6637,0.5009,
14.140994,-0.3680,-1.0975,-0.4461,-0.0284,-1.5481,-5.8638,0.2938,-0.6637,0.5009,
14.142177,-0.2259,-1.2875,-0.6847,-0.0284,-1.5481,-5.8638,0.2938,-0.6637,0.5009,
14.143176,0.1760,-1.3750,-0.7580,-0.0284,-1.5481,-5.8638,0.2938,-0.6637,0.5009,
14.176352,0.1760,-1.3750,-0.7580,-0.0284,-1.5481,-5.8638,-1.3393,-1.1441,0.8546,
14.178779,0.1760,-1.3750,-0.7580,0.2232,-1.5456,-5.4019,-1.3393,-1.1441,0.8546,
14.213952,0.1760,-1.3750,-0.7580,0.2232,-1.5456,-5.4019,-3.0991,-0.5273,-0.0477,
14.217018,0.1760,-1.3750,-0.7580,6.2980,-4.4492,-6.9064,-3.0991,-0.5273,-0.0477,
14.218488,0.4756,-1.4248,-0.7387,6.2980,-4.4492,-6.9064,-3.0991,-0.5273,-0.0477,
14.219719,0.4213,-1.4830,-0.6645,6.2980,-4.4492,-6.9064,-3.0991,-0.5273,-0.0477,
14.220959,0.2010,-1.3762,-0.6422,6.2980,-4.4492,-6.9064,-3.0991,-0.5273,-0.0477,
14.222234,-0.1291,-1.2243,-0.3894,6.2980,-4.4492,-6.9064,-3.0991,-0.5273,-0.0477,
14.253633,-0.1291,-1.2243,-0.3894,6.2980,-4.4492,-6.9064,-4.2453,0.5625,-0.8743,
14.256012,-0.1291,-1.2243,-0.3894,5.8421,-4.4475,-5.1585,-4.2453,0.5625,-0.8743,
14.293090,-0.1291,-1.2243,-0.3894,5.8421,-4.4475,-5.1585,-2.8296,0.8011,-0.6996,
14.295464,-0.1291,-1.2243,-0.3894,0.7441,-2.9183,0.6111,-2.8296,0.8011,-0.6996,
14.298609,-0.4509,-1.1632,0.2944,0.7441,-2.9183,0.6111,-2.8296,0.8011,-0.6996,
14.300261,-0.3627,-1.1566,0.6181,0.7441,-2.9183,0.6111,-2.8296,0.8011,-0.6996,
14.301636,0.1347,-1.1449,0.2590,0.7441,-2.9183,0.6111,-2.8296,0.8011,-0.6996,
14.302762,0.3964,-1.4310,-0.2594,0.7441,-2.9183,0.6111,-2.8296,0.8011,-0.6996,
14.332890,0.3964,-1.4310,-0.2594,0.7441,-2.9183,0.6111,-1.3382,1.4349,-1.5358,
14.335446,0.3964,-1.4310,-0.2594,1.7439,-2.8456,5.5295,-1.3382,1.4349,-1.5358,
14.364415,0.4914,-1.5297,-0.1624,1.7439,-2.8456,5.5295,-1.3382,1.4349,-1.5358,
14.367013,0.6901,-1.3037,0.2241,1.7439,-2.8456,5.5295,-1.3382,1.4349,-1.5358,
14.368124,0.5613,-1.1612,0.1508,1.7439,-2.8456,5.5295,-1.3382,1.4349,-1.5358,
14.372248,0.5613,-1.1612,0.1508,1.7439,-2.8456,5.5295,-0.3549,1.2346,-3.1295,
14.374128,0.5613,-1.1612,0.1508,5.4562,-3.6270,4.2932,-0.3549,1.2346,-3.1295,
14.411335,0.5613,-1.1612,0.1508,5.4562,-3.6270,4.2932,0.8275,-1.4700,-2.7204,
14.413172,0.5613,-1.1612,0.1508,-1.8638,2.2963,1.5921,0.8275,-1.4700,-2.7204,
14.451191,0.5613,-1.1612,0.1508,-1.8638,2.2963,1.5921,0.5335,-3.0275,-1.0544,
14.453408,0.5613,-1.1612,0.1508,-1.8358,2.2811,1.4983,0.5335,-3.0275,-1.0544,
14.454644,0.0693,-1.0232,-0.1859,-1.8358,2.2811,1.4983,0.5335,-3.0275,-1.0544,
14.456118,-0.1765,-0.7515,-0.3251,-1.8358,2.2811,1.4983,0.5335,-3.0275,-1.0544,
14.457401,-0.1506,-0.4071,-0.0149,-1.8358,2.2811,1.4983,0.5335,-3.0275,-1.0544,
14.458793,-0.2361,-0.1439,0.2622,-1.8358,2.2811,1.4983,0.5335,-3.0275,-1.0544,
14.460426,-0.4970,-0.2424,0.1403,-1.8358,2.2811,1.4983,0.5335,-3.0275,-1.0544,
14.491498,-0.4970,-0.2424,0.1403,-1.8358,2.2811,1.4983,1.1620,-0.1939,-0.6964,
14.494111,-0.4970,-0.2424,0.1403,-2.0350,2.3501,1.0508,1.1620,-0.1939,-0.6964,
14.530407,-0.4970,-0.2424,0.1403,-2.0350,2.3501,1.0508,0.8051,1.2219,-0.0583,
14.533042,-0.4970,-0.2424,0.1403,-5.6681,6.7476,3.5716,0.8051,1.2219,-0.0583,
14.534415,-0.6219,-0.4388,-0.0261,-5.6681,6.7476,3.5716,0.8051,1.2219,-0.0583,
14.536202,-0.6426,-0.5395,-0.4639,-5.6681,6.7476,3.5716,0.8051,1.2219,-0.0583,
14.537435,-0.6148,-0.6015,-0.4888,-5.6681,6.7476,3.5716,0.8051,1.2219,-0.0583,
14.539053,-0.4943,-0.7261,-0.0740,-5.6681,6.7476,3.5716,0.8051,1.2219,-0.0583,
14.570860,-0.4943,-0.7261,-0.0740,-5.6681,6.7476,3.5716,0.1415,-0.9438,0.6810,
14.573075,-0.4943,-0.7261,-0.0740,-6.5119,3.3295,-1.0085,0.1415,-0.9438,0.6810,
14.610517,-0.4943,-0.7261,-0.0740,-6.5119,3.3295,-1.0085,-0.3443,-0.4985,1.0165,
14.613058,-0.4943,-0.7261,-0.0740,-8.6601,-10.2440,4.0328,-0.3443,-0.4985,1.0165,
14.615038,-0.5395,-1.2277,-0.2013,-8.6601,-10.2440,4.0328,-0.3443,-0.4985,1.0165,
14.617666,-0.8584,-2.1937,0.0416,-8.6601,-10.2440,4.0328,-0.3443,-0.4985,1.0165,
14.619159,-1.1872,-2.6510,0.6541,-8.6601,-10.2440,4.0328,-0.3443,-0.4985,1.0165,
14.620630,-0.9104,-1.9657,0.2969,-8.6601,-10.2440,4.0328,-0.3443,-0.4985,1.0165,
14.650164,-0.9104,-1.9657,0.2969,-8.6601,-10.2440,4.0328,0.1265,3.2949,0.3454,
14.653213,-0.9104,-1.9657,0.2969,-8.6932,-10.0586,3.8832,0.1265,3.2949,0.3454,
14.689449,-0.9104,-1.9657,0.2969,-8.6932,-10.0586,3.8832,-0.4913,3.8275,0.8887,
14.691666,-0.9104,-1.9657,0.2969,-5.3576,-1.1701,3.3278,-0.4913,3.8275,0.8887,
14.692556,-0.3910,-0.6888,-0.2780,-5.3576,-1.1701,3.3278,-0.4913,3.8275,0.8887,
14.693274,-0.2877,-0.6919,0.2768,-5.3576,-1.1701,3.3278,-0.4913,3.8275,0.8887,
14.693932,-0.0871,-1.1651,0.4530,-5.3576,-1.1701,3.3278,-0.4913,3.8275,0.8887,
14.694578,0.3715,-1.5922,0.8974,-5.3576,-1.1701,3.3278,-0.4913,3.8275,0.8887,
14.729426,0.3715,-1.5922,0.8974,-5.3576,-1.1701,3.3278,-0.1430,1.4999,1.3105,
14.732180,0.3715,-1.5922,0.8974,-4.9098,-1.1636,3.3231,-0.1430,1.4999,1.3105,
14.764013,0.4873,-1.6032,0.8260,-4.9098,-1.1636,3.3231,-0.1430,1.4999,1.3105,
14.767403,0.2874,-1.2682,0.4637,-4.9098,-1.1636,3.3231,-0.1430,1.4999,1.3105,
14.768964,0.2674,-0.9191,0.1833,-4.9098,-1.1636,3.3231,-0.1430,1.4999,1.3105,
14.770159,0.2674,-0.9191,0.1833,-4.9098,-1.1636,3.3231,1.5263,3.5527,0.1313,
14.771383,0.2674,-0.9191,0.1833,2.5139,-4.2801,8.7505,1.5263,3.5527,0.1313,
14.808576,0.2674,-0.9191,0.1833,2.5139,-4.2801,8.7505,1.4272,6.2659,-0.7646,
14.810853,0.2674,-0.9191,0.1833,1.1573,0.4474,2.4401,1.4272,6.2659,-0.7646,
14.834542,-0.0001,-0.7435,-0.1925,1.1573,0.4474,2.4401,1.4272,6.2659,-0.7646,
14.837768,-0.4951,-0.6538,-0.5914,1.1573,0.4474,2.4401,1.4272,6.2659,-0.7646,
14.839094,-0.5596,-0.4816,-0.4233,1.1573,0.4474,2.4401,1.4272,6.2659,-0.7646,
14.840419,-0.1787,-0.3680,-0.0718,1.1573,0.4474,2.4401,1.4272,6.2659,-0.7646,
14.849696,-0.1787,-0.3680,-0.0718,1.1573,0.4474,2.4401,0.0509,5.6427,-0.1372,
14.851414,-0.1787,-0.3680,-0.0718,-4.8384,5.0240,-2.7460,0.0509,5.6427,-0.1372,
14.887888,-0.1787,-0.3680,-0.0718,-4.8384,5.0240,-2.7460,-0.5329,4.0267,-0.0274,
14.890576,-0.1787,-0.3680,-0.0718,1.3789,0.4013,-0.6722,-0.5329,4.0267,-0.0274,
14.920410,0.3168,-0.5339,0.1642,1.3789,0.4013,-0.6722,-0.5329,4.0267,-0.0274,
14.923364,0.4990,-0.9597,-0.0945,1.3789,0.4013,-0.6722,-0.5329,4.0267,-0.0274,
14.926112,-0.0956,-1.4173,-0.5460,1.3789,0.4013,-0.6722,-0.5329,4.0267,-0.0274,
14.928003,-0.6119,-1.6513,-0.5677,1.3789,0.4013,-0.6722,-0.5329,4.0267,-0.0274,
14.929413,-0.6119,-1.6513,-0.5677,1.3789,0.4013,-0.6722,-1.4639,3.4227,-0.0956,
14.930562,-0.6119,-1.6513,-0.5677,1.1774,0.3283,-0.2382,-1.4639,3.4227,-0.0956,
14.967187,-0.6119,-1.6513,-0.5677,1.1774,0.3283,-0.2382,-2.7028,3.7721,1.6525,
14.969922,-0.6119,-1.6513,-0.5677,0.4219,-3.7755,-3.8768,-2.7028,3.7721,1.6525,
15.006067,-0.6119,-1.6513,-0.5677,0.4219,-3.7755,-3.8768,-2.5270,2.6088,1.5598,
15.009131,-0.6119,-1.6513,-0.5677,0.7283,-3.9419,-2.9265,-2.5270,2.6088,1.5598,
15.010491,0.0346,-1.4060,-0.5272,0.7283,-3.9419,-2.9265,-2.5270,2.6088,1.5598,
15.011864,0.9515,-1.0916,-0.7893,0.7283,-3.9419,-2.9265,-2.5270,2.6088,1.5598,
15.013095,1.3524,-1.1158,-0.4114,0.7283,-3.9419,-2.9265,-2.5270,2.6088,1.5598,
15.014056,1.0401,-1.2946,-0.0285,0.7283,-3.9419,-2.9265,-2.5270,2.6088,1.5598,
15.015436,0.6172,-1.2861,-0.4263,0.7283,-3.9419,-2.9265,-2.5270,2.6088,1.5598,
15.046821,0.6172,-1.2861,-0.4263,0.7283,-3.9419,-2.9265,-0.8162,-0.5049,0.5617,
15.049492,0.6172,-1.2861,-0.4263,9.4622,-2.5216,0.7006,-0.8162,-0.5049,0.5617,
15.088147,0.6172,-1.2861,-0.4263,2.5862,0.9728,-4.7459,-0.8162,-0.5049,0.5617,
15.090639,0.6172,-1.2861,-0.4263,2.5862,0.9728,-4.7459,-1.3627,-1.8738,1.4288,
15.092054,0.4069,-0.9541,-0.6479,2.5862,0.9728,-4.7459,-1.3627,-1.8738,1.4288,
15.093206,0.1966,-0.7850,-1.0923,2.5862,0.9728,-4.7459,-1.3627,-1.8738,1.4288,
15.094478,0.0646,-0.8195,-0.9733,2.5862,0.9728,-4.7459,-1.3627,-1.8738,1.4288,
15.095811,-0.0719,-0.7728,-0.0916,2.5862,0.9728,-4.7459,-1.3627,-1.8738,1.4288,
15.125745,-0.0719,-0.7728,-0.0916,2.5862,0.9728,-4.7459,-0.9025,-3.6134,2.1276,
15.128052,-0.0719,-0.7728,-0.0916,3.9052,0.7174,-4.4980,-0.9025,-3.6134,2.1276,
15.165832,-0.0719,-0.7728,-0.0916,3.9052,0.7174,-4.4980,0.5537,-2.9827,1.5342,
15.168454,-0.0719,-0.7728,-0.0916,3.1255,1.8271,4.9889,0.5537,-2.9827,1.5342,
15.169854,-0.0018,-0.7528,0.3523,3.1255,1.8271,4.9889,0.5537,-2.9827,1.5342,
15.170998,0.1995,-0.6695,0.0983,3.1255,1.8271,4.9889,0.5537,-2.9827,1.5342,
15.172272,0.2774,-0.6773,-0.0058,3.1255,1.8271,4.9889,0.5537,-2.9827,1.5342,
15.173396,0.1961,-0.6247,-0.0022,3.1255,1.8271,4.9889,0.5537,-2.9827,1.5342,
15.205302,0.1961,-0.6247,-0.0022,3.1255,1.8271,4.9889,1.3686,-2.3414,0.1004,
15.208118,0.1961,-0.6247,-0.0022,3.4248,1.9689,4.1537,1.3686,-2.3414,0.1004,
15.244689,0.1961,-0.6247,-0.0022,4.5674,3.5932,1.7519,1.3686,-2.3414,0.1004,
15.247366,0.1961,-0.6247,-0.0022,4.5674,3.5932,1.7519,1.2397,-2.6823,-0.4386,
15.248807,-0.0092,-0.4327,-0.1197,4.5674,3.5932,1.7519,1.2397,-2.6823,-0.4386,
15.250050,-0.4079,-0.4655,-0.4180,4.5674,3.5932,1.7519,1.2397,-2.6823,-0.4386,
15.251173,-0.6971,-0.8673,-0.9615,4.5674,3.5932,1.7519,1.2397,-2.6823,-0.4386,
15.252370,-0.0346,-1.4375,-1.0712,4.5674,3.5932,1.7519,1.2397,-2.6823,-0.4386,
15.283870,-0.0346,-1.4375,-1.0712,4.5674,3.5932,1.7519,-0.5414,-1.7843,-0.2139,
