
time,gFx,gFy,gFz,ax,ay,az,wx,wy,wz,
0.080044,0.0000,0.0000,0.0000,0.0000,0.0000,0.0000,1.0011,-0.7276,0.3667,
0.093973,0.1452,0.1755,1.0143,0.0000,0.0000,0.0000,1.0011,-0.7276,0.3667,
0.095124,0.1200,0.2184,0.9268,0.0000,0.0000,0.0000,1.0011,-0.7276,0.3667,
0.095657,0.1332,0.2352,0.8886,0.0000,0.0000,0.0000,1.0011,-0.7276,0.3667,
0.096425,0.1468,0.2406,0.8780,0.0000,0.0000,0.0000,1.0011,-0.7276,0.3667,
0.097095,0.1158,0.2046,0.9556,0.0000,0.0000,0.0000,1.0011,-0.7276,0.3667,
0.097712,0.1137,0.1556,0.9861,0.0000,0.0000,0.0000,1.0011,-0.7276,0.3667,
0.098306,0.1572,0.1661,1.0012,0.0000,0.0000,0.0000,1.0011,-0.7276,0.3667,
0.098804,0.1700,0.1926,0.8412,0.0000,0.0000,0.0000,1.0011,-0.7276,0.3667,
0.099389,0.1439,0.2548,0.7105,0.0000,0.0000,0.0000,1.0011,-0.7276,0.3667,
0.100043,0.1274,0.3386,0.7194,0.0000,0.0000,0.0000,1.0011,-0.7276,0.3667,
0.120071,0.1274,0.3386,0.7194,0.0000,0.0000,0.0000,0.2831,-0.8075,0.2943,
0.159786,0.1274,0.3386,0.7194,0.0000,0.0000,0.0000,-0.4029,-0.5561,0.3071,
0.161898,0.1274,0.3386,0.7194,0.0000,0.0000,-0.0000,-0.4029,-0.5561,0.3071,
0.174476,0.1696,0.2808,0.6009,0.0000,0.0000,-0.0000,-0.4029,-0.5561,0.3071,
0.176593,0.1808,0.2803,0.7168,0.0000,0.0000,-0.0000,-0.4029,-0.5561,0.3071,
0.177783,0.1422,0.2082,0.7431,0.0000,0.0000,-0.0000,-0.4029,-0.5561,0.3071,
0.179198,0.1731,0.1771,0.6494,0.0000,0.0000,-0.0000,-0.4029,-0.5561,0.3071,
0.199546,0.1731,0.1771,0.6494,0.0000,0.0000,-0.0000,-0.1707,-1.6767,0.2921,
0.201415,0.1731,0.1771,0.6494,-0.1754,-0.1701,0.0454,-0.1707,-1.6767,0.2921,
0.237700,0.1731,0.1771,0.6494,-0.1754,-0.1701,0.0454,-0.6351,-1.8695,0.1366,
0.239586,0.1731,0.1771,0.6494,0.9362,-0.1708,-0.3487,-0.6351,-1.8695,0.1366,
0.244040,0.2703,0.2294,0.5164,0.9362,-0.1708,-0.3487,-0.6351,-1.8695,0.1366,
0.246540,0.4793,0.2068,0.6709,0.9362,-0.1708,-0.3487,-0.6351,-1.8695,0.1366,
0.247496,0.5168,0.1544,0.8444,0.9362,-0.1708,-0.3487,-0.6351,-1.8695,0.1366,
0.280553,0.5168,0.1544,0.8444,0.9362,-0.1708,-0.3487,-0.9771,-0.7861,0.0993,
0.282226,0.5168,0.1544,0.8444,0.4824,0.0630,-0.2269,-0.9771,-0.7861,0.0993,
0.319989,0.5168,0.1544,0.8444,-0.2046,-0.4064,1.2427,-0.9771,-0.7861,0.0993,
0.322087,0.5168,0.1544,0.8444,-0.2046,-0.4064,1.2427,-0.3773,-2.2211,0.3113,
0.324091,0.3988,0.1380,0.8440,-0.2046,-0.4064,1.2427,-0.3773,-2.2211,0.3113,
0.325403,0.2755,0.1164,0.7684,-0.2046,-0.4064,1.2427,-0.3773,-2.2211,0.3113,
0.326953,0.3545,0.1410,0.7014,-0.2046,-0.4064,1.2427,-0.3773,-2.2211,0.3113,
0.328084,0.2862,-0.0599,0.7413,-0.2046,-0.4064,1.2427,-0.3773,-2.2211,0.3113,
0.329354,0.4313,0.0223,0.9012,-0.2046,-0.4064,1.2427,-0.3773,-2.2211,0.3113,
0.357892,0.4313,0.0223,0.9012,-0.7788,-0.1972,1.3109,-0.3773,-2.2211,0.3113,
0.359428,0.4313,0.0223,0.9012,-0.7788,-0.1972,1.3109,0.0445,-3.0765,0.9366,
0.399417,0.4313,0.0223,0.9012,-0.7788,-0.1972,1.3109,0.2256,-3.5143,1.2807,
0.401300,0.4313,0.0223,0.9012,-1.0911,-2.2019,-0.7136,0.2256,-3.5143,1.2807,
0.403001,0.6684,0.0742,0.7126,-1.0911,-2.2019,-0.7136,0.2256,-3.5143,1.2807,
0.404703,0.3874,-0.0115,0.4728,-1.0911,-2.2019,-0.7136,0.2256,-3.5143,1.2807,
0.406705,0.2708,-0.2660,0.4199,-1.0911,-2.2019,-0.7136,0.2256,-3.5143,1.2807,
0.408453,0.4702,-0.3570,0.6374,-1.0911,-2.2019,-0.7136,0.2256,-3.5143,1.2807,
0.437771,0.4702,-0.3570,0.6374,-1.0911,-2.2019,-0.7136,1.2632,-4.8597,2.4781,
0.440116,0.4702,-0.3570,0.6374,-1.7971,-1.5936,0.3237,1.2632,-4.8597,2.4781,
0.476163,0.5841,-0.3658,0.6200,-1.7971,-1.5936,0.3237,1.2632,-4.8597,2.4781,
0.478945,0.6066,-0.4157,0.5645,-1.7971,-1.5936,0.3237,1.2632,-4.8597,2.4781,
0.480363,0.7305,-0.4394,0.3600,-1.7971,-1.5936,0.3237,1.2632,-4.8597,2.4781,
0.481611,0.7305,-0.4394,0.3600,-1.7971,-1.5936,0.3237,2.2762,-4.1172,3.7479,
0.483080,0.7305,-0.4394,0.3600,-0.4638,-3.1005,1.6712,2.2762,-4.1172,3.7479,
0.516749,0.7305,-0.4394,0.3600,-0.4638,-3.1005,1.6712,2.2667,-3.3950,4.3338,
0.519440,0.7305,-0.4394,0.3600,-0.6356,-1.9782,2.0882,2.2667,-3.3950,4.3338,
0.554335,0.9136,-0.3870,0.2260,-0.6356,-1.9782,2.0882,2.2667,-3.3950,4.3338,
0.556526,1.0725,-0.4668,0.2470,-0.6356,-1.9782,2.0882,2.2667,-3.3950,4.3338,
0.558772,1.3149,-0.5431,0.3216,-0.6356,-1.9782,2.0882,2.2667,-3.3950,4.3338,
0.560223,1.5352,-0.5104,0.3434,-0.6356,-1.9782,2.0882,2.2667,-3.3950,4.3338,
0.561569,1.5352,-0.5104,0.3434,-0.6356,-1.9782,2.0882,2.4371,-3.2192,4.3487,
0.562913,1.5352,-0.5104,0.3434,2.9383,-1.4290,-0.3131,2.4371,-3.2192,4.3487,
0.596269,1.5352,-0.5104,0.3434,2.9383,-1.4290,-0.3131,2.9335,-2.5950,3.8139,
0.598547,1.5352,-0.5104,0.3434,2.7633,-0.6249,0.0012,2.9335,-2.5950,3.8139,
0.633048,1.5988,-0.4308,0.2266,2.7633,-0.6249,0.0012,2.9335,-2.5950,3.8139,
0.635929,1.5802,-0.3869,0.0118,2.7633,-0.6249,0.0012,2.9335,-2.5950,3.8139,
0.638587,1.5676,-0.4030,-0.1837,2.7633,-0.6249,0.0012,2.9335,-2.5950,3.8139,
0.640377,1.7180,-0.3135,-0.1050,2.7633,-0.6249,0.0012,2.9335,-2.5950,3.8139,
0.643027,1.7180,-0.3135,-0.1050,2.7633,-0.6249,0.0012,2.7247,-1.9004,2.9020,
0.644482,1.7180,-0.3135,-0.1050,8.4503,0.8351,-3.1212,2.7247,-1.9004,2.9020,
0.676477,1.7180,-0.3135,-0.1050,7.8600,1.0710,-3.0494,2.7247,-1.9004,2.9020,
0.677906,1.7180,-0.3135,-0.1050,7.8600,1.0710,-3.0494,1.8501,-0.1704,1.7175,
0.715603,1.7192,-0.2208,0.0506,7.8600,1.0710,-3.0494,1.8501,-0.1704,1.7175,
0.717987,1.4324,-0.2494,0.0225,7.8600,1.0710,-3.0494,1.8501,-0.1704,1.7175,
0.720239,1.2208,-0.2026,-0.2257,7.8600,1.0710,-3.0494,1.8501,-0.1704,1.7175,
0.721771,1.2208,-0.2026,-0.2257,7.8600,1.0710,-3.0494,1.2589,0.5156,0.8994,
0.723161,1.2208,-0.2026,-0.2257,4.6119,2.1823,-3.2244,1.2589,0.5156,0.8994,
0.754826,1.2208,-0.2026,-0.2257,4.6119,2.1823,-3.2244,0.2501,-0.1044,0.9409,
0.757026,1.2208,-0.2026,-0.2257,-0.5374,0.1094,-3.7532,0.2501,-0.1044,0.9409,
0.792182,1.1254,-0.2328,-0.4165,-0.5374,0.1094,-3.7532,0.2501,-0.1044,0.9409,
0.793883,0.9229,-0.3775,-0.1763,-0.5374,0.1094,-3.7532,0.2501,-0.1044,0.9409,
0.794730,0.6567,-0.5780,-0.1046,-0.5374,0.1094,-3.7532,0.2501,-0.1044,0.9409,
0.795529,0.5162,-0.6214,-0.1584,-0.5374,0.1094,-3.7532,0.2501,-0.1044,0.9409,
0.796454,0.5940,-0.5808,-0.2415,-0.5374,0.1094,-3.7532,0.2501,-0.1044,0.9409,
0.797158,0.5940,-0.5808,-0.2415,-0.5374,0.1094,-3.7532,-0.1643,-0.3345,1.7015,
0.798009,0.5940,-0.5808,-0.2415,-0.2079,0.6200,-3.3102,-0.1643,-0.3345,1.7015,
0.834303,0.5940,-0.5808,-0.2415,-0.2079,0.6200,-3.3102,-0.3028,-0.5688,2.1042,
0.836138,0.5940,-0.5808,-0.2415,0.2047,1.1814,-2.8118,-0.3028,-0.5688,2.1042,
0.866614,0.6778,-0.6483,-0.0753,0.2047,1.1814,-2.8118,-0.3028,-0.5688,2.1042,
0.868207,0.5451,-0.6625,-0.0427,0.2047,1.1814,-2.8118,-0.3028,-0.5688,2.1042,
0.869120,0.5556,-0.7193,0.0706,0.2047,1.1814,-2.8118,-0.3028,-0.5688,2.1042,
0.872396,0.5556,-0.7193,0.0706,0.2047,1.1814,-2.8118,-0.4679,-0.7947,2.3225,
0.874024,0.5556,-0.7193,0.0706,-1.0512,0.2506,-1.6824,-0.4679,-0.7947,2.3225,
0.912698,0.5556,-0.7193,0.0706,-1.0512,0.2506,-1.6824,-0.9515,-0.4218,2.2426,
0.914335,0.5556,-0.7193,0.0706,0.8380,1.9297,1.0022,-0.9515,-0.4218,2.2426,
0.944792,0.8833,-0.3520,0.2668,0.8380,1.9297,1.0022,-0.9515,-0.4218,2.2426,
0.947734,0.8380,-0.3197,0.0142,0.8380,1.9297,1.0022,-0.9515,-0.4218,2.2426,
0.948875,0.4493,-0.3614,-0.1136,0.8380,1.9297,1.0022,-0.9515,-0.4218,2.2426,
0.950076,0.6003,-0.5775,-0.1331,0.8380,1.9297,1.0022,-0.9515,-0.4218,2.2426,
0.951966,0.7310,-0.4882,0.0003,0.8380,1.9297,1.0022,-0.9515,-0.4218,2.2426,
0.957257,0.7310,-0.4882,0.0003,0.8380,1.9297,1.0022,-1.5299,-0.6008,1.8474,
0.958768,0.7310,-0.4882,0.0003,-0.2514,2.6421,-0.5623,-1.5299,-0.6008,1.8474,
0.960531,0.4752,-1.4444,-0.1645,-0.2514,2.6421,-0.5623,-1.5299,-0.6008,1.8474,
0.992337,0.4752,-1.4444,-0.1645,-0.2514,2.6421,-0.5623,-1.0367,-0.5454,0.5915,
0.993965,0.4752,-1.4444,-0.1645,-0.0622,2.5661,-0.1308,-1.0367,-0.5454,0.5915,
1.032416,0.4752,-1.4444,-0.1645,-0.0622,2.5661,-0.1308,-0.0407,-0.4314,-0.4280,
1.034844,0.4752,-1.4444,-0.1645,-0.1521,2.3019,-0.0189,-0.0407,-0.4314,-0.4280,
1.073927,0.4752,-1.4444,-0.1645,-0.1521,2.3019,-0.0189,0.1606,-2.6429,1.6727,
1.076085,0.4752,-1.4444,-0.1645,0.4195,2.4989,0.4840,0.1606,-2.6429,1.6727,
1.111305,-0.0541,-0.7696,0.3128,0.4195,2.4989,0.4840,0.1606,-2.6429,1.6727,
1.112757,0.5161,-0.8483,-0.2958,0.4195,2.4989,0.4840,0.1606,-2.6429,1.6727,
1.113489,0.6940,-1.1243,-0.4128,0.4195,2.4989,0.4840,0.1606,-2.6429,1.6727,
1.114252,0.6940,-1.1243,-0.4128,0.4195,2.4989,0.4840,2.0366,-3.8339,3.5369,
1.115025,0.6940,-1.1243,-0.4128,-0.1963,-1.1302,0.3681,2.0366,-3.8339,3.5369,
1.150236,0.6940,-1.1243,-0.4128,-0.1963,-1.1302,0.3681,1.3399,-0.3249,1.1614,
1.152623,0.6940,-1.1243,-0.4128,0.1806,-0.8218,-0.0029,1.3399,-0.3249,1.1614,
1.190522,0.6940,-1.1243,-0.4128,0.1806,-0.8218,-0.0029,-1.0325,0.2930,-0.3587,
1.192423,0.6940,-1.1243,-0.4128,-1.1650,-6.3525,-1.3199,-1.0325,0.2930,-0.3587,
1.195126,0.4203,-1.4547,-0.4148,-1.1650,-6.3525,-1.3199,-1.0325,0.2930,-0.3587,
1.196912,0.1389,-1.6017,-0.2704,-1.1650,-6.3525,-1.3199,-1.0325,0.2930,-0.3587,
1.198199,0.2027,-1.4666,-0.2274,-1.1650,-6.3525,-1.3199,-1.0325,0.2930,-0.3587,
1.199531,-0.2610,-0.4195,-0.1649,-1.1650,-6.3525,-1.3199,-1.0325,0.2930,-0.3587,
1.228332,-0.2610,-0.4195,-0.1649,-1.1650,-6.3525,-1.3199,-0.8737,0.1119,1.3169,
1.229571,-0.2610,-0.4195,-0.1649,-0.6877,-5.8686,-0.9814,-0.8737,0.1119,1.3169,
1.266655,0.3446,-0.2566,0.1767,-0.6877,-5.8686,-0.9814,-0.8737,0.1119,1.3169,
1.268351,0.5112,-0.1630,-0.0999,-0.6877,-5.8686,-0.9814,-0.8737,0.1119,1.3169,
1.269861,0.4714,-0.2878,-0.1187,-0.6877,-5.8686,-0.9814,-0.8737,0.1119,1.3169,
1.273277,0.4714,-0.2878,-0.1187,-0.6877,-5.8686,-0.9814,0.5942,-1.3028,1.8954,
1.275010,0.4714,-0.2878,-0.1187,-0.4276,6.0652,1.5489,0.5942,-1.3028,1.8954,
1.308846,0.4714,-0.2878,-0.1187,-0.4276,6.0652,1.5489,0.8616,-1.3433,1.3542,
1.310477,0.4714,-0.2878,-0.1187,1.2771,2.9343,1.9384,0.8616,-1.3433,1.3542,
1.350107,0.4714,-0.2878,-0.1187,1.2771,2.9343,1.9384,1.1716,-0.0692,1.7292,
1.352140,0.4714,-0.2878,-0.1187,1.7924,2.9398,1.4517,1.1716,-0.0692,1.7292,
1.353890,0.3202,-0.5620,0.0404,1.7924,2.9398,1.4517,1.1716,-0.0692,1.7292,
1.355279,0.1721,-0.9504,0.2018,1.7924,2.9398,1.4517,1.1716,-0.0692,1.7292,
1.356760,-0.0482,-1.2287,0.1222,1.7924,2.9398,1.4517,1.1716,-0.0692,1.7292,
1.358165,-0.0016,-1.4092,-0.1695,1.7924,2.9398,1.4517,1.1716,-0.0692,1.7292,
1.360149,-0.1667,-2.9813,-0.3031,1.7924,2.9398,1.4517,1.1716,-0.0692,1.7292,
1.387792,-0.1667,-2.9813,-0.3031,1.7924,2.9398,1.4517,0.3652,0.1619,1.5492,
1.389367,-0.1667,-2.9813,-0.3031,-1.4488,-8.9820,-0.2195,0.3652,0.1619,1.5492,
1.428642,-0.1667,-2.9813,-0.3031,-1.4488,-8.9820,-0.2195,0.2661,-0.1406,0.4434,
1.431280,-0.1667,-2.9813,-0.3031,3.1961,-2.9936,-1.3544,0.2661,-0.1406,0.4434,
1.432738,0.3759,-2.0898,-0.2489,3.1961,-2.9936,-1.3544,0.2661,-0.1406,0.4434,
1.433882,0.5860,-0.8739,-0.1265,3.1961,-2.9936,-1.3544,0.2661,-0.1406,0.4434,
1.434845,0.2405,-0.8744,-0.3139,3.1961,-2.9936,-1.3544,0.2661,-0.1406,0.4434,
1.436030,0.2124,-0.7542,-0.4150,3.1961,-2.9936,-1.3544,0.2661,-0.1406,0.4434,
1.468032,0.2124,-0.7542,-0.4150,3.2239,-2.8543,-1.1407,0.2661,-0.1406,0.4434,
1.470161,0.2124,-0.7542,-0.4150,3.2239,-2.8543,-1.1407,-0.3954,-0.2802,0.4711,
1.507374,0.2124,-0.7542,-0.4150,3.2239,-2.8543,-1.1407,-0.7779,-1.1196,0.3529,
1.509494,0.2124,-0.7542,-0.4150,2.6833,0.5546,-0.1147,-0.7779,-1.1196,0.3529,
1.510911,0.3993,-0.8603,-0.1461,2.6833,0.5546,-0.1147,-0.7779,-1.1196,0.3529,
1.512178,0.4054,-1.1627,0.0848,2.6833,0.5546,-0.1147,-0.7779,-1.1196,0.3529,
1.513554,0.4355,-1.2265,-0.0158,2.6833,0.5546,-0.1147,-0.7779,-1.1196,0.3529,
1.514891,0.4841,-1.1507,-0.2970,2.6833,0.5546,-0.1147,-0.7779,-1.1196,0.3529,
1.547431,0.4841,-1.1507,-0.2970,2.6833,0.5546,-0.1147,-1.4660,-0.9715,-0.3417,
1.550332,0.4841,-1.1507,-0.2970,2.5004,0.4248,0.4452,-1.4660,-0.9715,-0.3417,
1.587112,0.4841,-1.1507,-0.2970,2.5004,0.4248,0.4452,-2.7901,-0.8756,-1.4101,
1.589270,0.4841,-1.1507,-0.2970,3.1977,-1.8359,0.5735,-2.7901,-0.8756,-1.4101,
1.590791,0.4887,-1.0139,-0.4429,3.1977,-1.8359,0.5735,-2.7901,-0.8756,-1.4101,
1.591958,0.4614,-0.9677,-0.2816,3.1977,-1.8359,0.5735,-2.7901,-0.8756,-1.4101,
1.593395,0.2010,-1.2893,-0.4610,3.1977,-1.8359,0.5735,-2.7901,-0.8756,-1.4101,
1.594542,-0.2361,-1.7713,-0.5643,3.1977,-1.8359,0.5735,-2.7901,-0.8756,-1.4101,
1.626058,-0.2361,-1.7713,-0.5643,3.1977,-1.8359,0.5735,-3.3036,-1.3199,-1.8991,
1.628002,-0.2361,-1.7713,-0.5643,-0.4707,-4.3346,0.0314,-3.3036,-1.3199,-1.8991,
1.668751,-0.2361,-1.7713,-0.5643,-0.4707,-4.3346,0.0314,-1.9358,-0.5763,-2.0141,
1.670595,-0.2361,-1.7713,-0.5643,0.6291,-3.6938,8.5625,-1.9358,-0.5763,-2.0141,
1.671946,-0.0866,-1.6391,0.0440,0.6291,-3.6938,8.5625,-1.9358,-0.5763,-2.0141,
1.673332,0.5005,-1.1151,0.7371,0.6291,-3.6938,8.5625,-1.9358,-0.5763,-2.0141,
1.674412,0.5335,-0.9634,0.4168,0.6291,-3.6938,8.5625,-1.9358,-0.5763,-2.0141,
1.675403,0.1506,-0.9575,-0.1478,0.6291,-3.6938,8.5625,-1.9358,-0.5763,-2.0141,
1.705531,0.1506,-0.9575,-0.1478,0.6291,-3.6938,8.5625,-0.4348,-1.7183,-2.1814,
1.707214,0.1506,-0.9575,-0.1478,0.2350,-3.8469,8.5348,-0.4348,-1.7183,-2.1814,
1.744931,-0.0131,-0.7696,-0.0667,0.2350,-3.8469,8.5348,-0.4348,-1.7183,-2.1814,
1.746986,-0.1213,-0.6308,0.1759,0.2350,-3.8469,8.5348,-0.4348,-1.7183,-2.1814,
1.748589,-0.3206,-0.6125,0.2099,0.2350,-3.8469,8.5348,-0.4348,-1.7183,-2.1814,
1.750870,-0.3206,-0.6125,0.2099,0.2350,-3.8469,8.5348,-0.0439,-2.2094,-1.3228,
1.753148,-0.3206,-0.6125,0.2099,-2.7111,0.4178,4.5808,-0.0439,-2.2094,-1.3228,
1.783523,-0.3206,-0.6125,0.2099,-2.7111,0.4178,4.5808,1.0863,-0.6541,-0.6815,
1.784986,-0.3206,-0.6125,0.2099,-6.2729,2.7922,5.8980,1.0863,-0.6541,-0.6815,
1.824478,-0.3206,-0.6125,0.2099,-6.2729,2.7922,5.8980,1.8800,0.5124,-0.2245,
1.826255,-0.3206,-0.6125,0.2099,-6.1847,2.9440,5.0330,1.8800,0.5124,-0.2245,
1.827428,-0.3812,-0.5654,0.1505,-6.1847,2.9440,5.0330,1.8800,0.5124,-0.2245,
1.828115,-0.4157,-0.4576,0.1593,-6.1847,2.9440,5.0330,1.8800,0.5124,-0.2245,
1.828902,-0.3829,-0.4242,0.0069,-6.1847,2.9440,5.0330,1.8800,0.5124,-0.2245,
1.829925,-0.1044,-0.4892,-0.3012,-6.1847,2.9440,5.0330,1.8800,0.5124,-0.2245,
1.830657,0.3510,-0.6993,-0.6606,-6.1847,2.9440,5.0330,1.8800,0.5124,-0.2245,
1.863235,0.3510,-0.6993,-0.6606,-6.1847,2.9440,5.0330,1.6776,0.3675,-0.5100,
1.864906,0.3510,-0.6993,-0.6606,-3.0792,3.0543,-0.3650,1.6776,0.3675,-0.5100,
1.902355,0.3510,-0.6993,-0.6606,-3.0792,3.0543,-0.3650,0.6730,-0.0053,-0.6517,
1.904400,0.3510,-0.6993,-0.6606,1.3819,-7.4685,-4.8403,0.6730,-0.0053,-0.6517,
1.905393,0.5879,-1.1302,-0.7893,1.3819,-7.4685,-4.8403,0.6730,-0.0053,-0.6517,
1.906205,0.4704,-1.7420,-0.7607,1.3819,-7.4685,-4.8403,0.6730,-0.0053,-0.6517,
1.906932,0.2518,-2.0432,-0.7600,1.3819,-7.4685,-4.8403,0.6730,-0.0053,-0.6517,
1.907738,-0.3632,-1.5976,-0.2626,1.3819,-7.4685,-4.8403,0.6730,-0.0053,-0.6517,
1.942841,-0.3632,-1.5976,-0.2626,1.3819,-7.4685,-4.8403,-0.7789,-1.6778,-0.5739,
1.944367,-0.3632,-1.5976,-0.2626,1.3342,-7.3630,-4.2325,-0.7789,-1.6778,-0.5739,
1.978099,-1.0504,-1.2949,-0.1724,1.3342,-7.3630,-4.2325,-0.7789,-1.6778,-0.5739,
1.979924,-1.3956,-0.9541,0.2864,1.3342,-7.3630,-4.2325,-0.7789,-1.6778,-0.5739,
1.981207,-1.3277,-0.7283,0.4679,1.3342,-7.3630,-4.2325,-0.7789,-1.6778,-0.5739,
1.986406,-1.3277,-0.7283,0.4679,-11.8543,-3.8207,2.8132,-0.7789,-1.6778,-0.5739,
1.989057,-1.3277,-0.7283,0.4679,-11.8543,-3.8207,2.8132,-0.5030,0.7489,-0.1158,
2.025410,-1.3277,-0.7283,0.4679,-11.8543,-3.8207,2.8132,0.6347,3.1585,1.0506,
2.027689,-1.3277,-0.7283,0.4679,-7.4802,-1.7620,6.8674,0.6347,3.1585,1.0506,
2.061810,-1.3277,-0.7283,0.4679,-7.4802,-1.7620,6.8674,0.5303,1.5457,0.6575,
2.063417,-1.3277,-0.7283,0.4679,-7.1503,-1.5971,6.3191,0.5303,1.5457,0.6575,
2.065259,-0.6426,-1.0278,0.3829,-7.1503,-1.5971,6.3191,0.5303,1.5457,0.6575,
2.066436,0.4277,-1.5355,0.4833,-7.1503,-1.5971,6.3191,0.5303,1.5457,0.6575,
2.067396,1.3961,-1.9848,-0.1744,-7.1503,-1.5971,6.3191,0.5303,1.5457,0.6575,
2.068195,0.9607,-1.6486,-0.4456,-7.1503,-1.5971,6.3191,0.5303,1.5457,0.6575,
2.069099,0.0839,-0.9353,-0.0469,-7.1503,-1.5971,6.3191,0.5303,1.5457,0.6575,
2.102215,0.0839,-0.9353,-0.0469,5.5778,-5.5786,-0.3745,0.5303,1.5457,0.6575,
2.104648,0.0839,-0.9353,-0.0469,5.5778,-5.5786,-0.3745,0.1372,1.4094,-0.0008,
2.141517,0.0839,-0.9353,-0.0469,5.5778,-5.5786,-0.3745,0.0637,1.8781,0.4157,
2.143103,0.0839,-0.9353,-0.0469,-6.8272,2.3934,-1.4441,0.0637,1.8781,0.4157,
2.143953,-0.2962,-0.6372,-0.0791,-6.8272,2.3934,-1.4441,0.0637,1.8781,0.4157,
2.144602,-0.5948,-0.6460,-0.4026,-6.8272,2.3934,-1.4441,0.0637,1.8781,0.4157,
2.145380,-0.5395,-0.8356,-0.4646,-6.8272,2.3934,-1.4441,0.0637,1.8781,0.4157,
2.146330,-0.2901,-1.1060,-0.5409,-6.8272,2.3934,-1.4441,0.0637,1.8781,0.4157,
2.180906,-0.2901,-1.1060,-0.5409,-6.8272,2.3934,-1.4441,-1.1688,1.9654,0.9931,
2.183723,-0.2901,-1.1060,-0.5409,-6.3964,2.3194,-1.1368,-1.1688,1.9654,0.9931,
2.220856,-0.0473,-1.2658,-0.5589,-6.3964,2.3194,-1.1368,-1.1688,1.9654,0.9931,
2.223278,0.2039,-1.2428,-0.3750,-6.3964,2.3194,-1.1368,-1.1688,1.9654,0.9931,
2.224792,0.2557,-1.1608,-0.5369,-6.3964,2.3194,-1.1368,-1.1688,1.9654,0.9931,
2.226604,0.2557,-1.1608,-0.5369,-6.3964,2.3194,-1.1368,-2.6336,2.0357,0.8610,
2.228253,0.2557,-1.1608,-0.5369,-1.9745,-2.6760,-1.9808,-2.6336,2.0357,0.8610,
2.262160,0.2557,-1.1608,-0.5369,-1.9745,-2.6760,-1.9808,-3.0895,1.7620,0.7790,
2.264064,0.2557,-1.1608,-0.5369,2.1634,-0.2808,-2.0217,-3.0895,1.7620,0.7790,
2.300929,0.2557,-1.1608,-0.5369,2.1634,-0.2808,-2.0217,-1.7047,1.2155,0.7886,
2.303286,0.2557,-1.1608,-0.5369,2.1692,-0.4985,-1.4672,-1.7047,1.2155,0.7886,
2.304526,0.2933,-0.9116,-0.7541,2.1692,-0.4985,-1.4672,-1.7047,1.2155,0.7886,
2.305701,0.5896,-0.7010,-0.5181,2.1692,-0.4985,-1.4672,-1.7047,1.2155,0.7886,
2.307230,0.6246,-0.8786,-0.3051,2.1692,-0.4985,-1.4672,-1.7047,1.2155,0.7886,
2.308546,0.1267,-1.0176,-0.2653,2.1692,-0.4985,-1.4672,-1.7047,1.2155,0.7886,
2.309766,-0.3412,-0.6379,0.0230,2.1692,-0.4985,-1.4672,-1.7047,1.2155,0.7886,
2.340423,-0.3412,-0.6379,0.0230,2.1692,-0.4985,-1.4672,-0.5446,-0.5912,1.8645,
2.346150,-0.3412,-0.6379,0.0230,0.5143,0.2661,2.7842,-0.5446,-0.5912,1.8645,
2.379376,-0.3412,-0.6379,0.0230,0.5143,0.2661,2.7842,0.4813,-0.4485,2.4046,
2.381518,-0.3412,-0.6379,0.0230,-1.8726,2.3104,1.4512,0.4813,-0.4485,2.4046,
2.383087,-0.2835,-0.3951,-0.0635,-1.8726,2.3104,1.4512,0.4813,-0.4485,2.4046,
2.384204,-0.1460,-0.6475,-0.4253,-1.8726,2.3104,1.4512,0.4813,-0.4485,2.4046,
2.385751,-0.1826,-0.8832,-0.4062,-1.8726,2.3104,1.4512,0.4813,-0.4485,2.4046,
2.387366,-0.1108,-0.8798,-0.1270,-1.8726,2.3104,1.4512,0.4813,-0.4485,2.4046,
2.419412,-0.1108,-0.8798,-0.1270,-1.8726,2.3104,1.4512,1.3441,-0.1406,2.1287,
2.421380,-0.1108,-0.8798,-0.1270,-1.0866,2.4209,0.9595,1.3441,-0.1406,2.1287,
2.459433,-0.1108,-0.8798,-0.1270,-1.0866,2.4209,0.9595,2.1026,-0.2567,1.2786,
2.463828,0.0431,-0.7535,-0.0877,-1.0866,2.4209,0.9595,2.1026,-0.2567,1.2786,
2.464933,0.0194,-0.6423,-0.1903,-1.0866,2.4209,0.9595,2.1026,-0.2567,1.2786,
2.466377,-0.1831,-0.5805,-0.2159,-1.0866,2.4209,0.9595,2.1026,-0.2567,1.2786,
2.467704,-0.2134,-0.6123,-0.5208,-1.0866,2.4209,0.9595,2.1026,-0.2567,1.2786,
2.468787,-0.2134,-0.6123,-0.5208,1.2050,1.4727,1.7645,2.1026,-0.2567,1.2786,
2.497869,-0.2134,-0.6123,-0.5208,1.2050,1.4727,1.7645,2.2741,-0.6402,0.7981,
2.500030,-0.2134,-0.6123,-0.5208,1.5152,1.6205,0.8893,2.2741,-0.6402,0.7981,
2.536972,-0.2134,-0.6123,-0.5208,1.5152,1.6205,0.8893,0.9415,-0.3867,0.8013,
2.539590,-0.2134,-0.6123,-0.5208,0.4046,2.4631,-3.2246,0.9415,-0.3867,0.8013,
2.540855,-0.0861,-0.8104,-0.8413,0.4046,2.4631,-3.2246,0.9415,-0.3867,0.8013,
2.543590,0.0969,-1.2829,-0.5465,0.4046,2.4631,-3.2246,0.9415,-0.3867,0.8013,
2.544456,0.2894,-1.7532,-0.2164,0.4046,2.4631,-3.2246,0.9415,-0.3867,0.8013,
2.545234,0.0673,-1.7168,-0.6921,0.4046,2.4631,-3.2246,0.9415,-0.3867,0.8013,
2.576775,0.0673,-1.7168,-0.6921,0.4046,2.4631,-3.2246,0.1979,-0.4101,-0.0807,
2.578521,0.0673,-1.7168,-0.6921,3.3775,-6.3355,-2.8525,0.1979,-0.4101,-0.0807,
2.615605,-0.2048,-1.4488,-0.8220,3.3775,-6.3355,-2.8525,0.1979,-0.4101,-0.0807,
2.617988,0.3619,-1.0467,0.0843,3.3775,-6.3355,-2.8525,0.1979,-0.4101,-0.0807,
2.618909,0.7470,-0.9040,0.4698,3.3775,-6.3355,-2.8525,0.1979,-0.4101,-0.0807,
2.619990,0.7470,-0.9040,0.4698,3.3775,-6.3355,-2.8525,-0.3198,0.7936,-0.0583,
2.621056,0.7470,-0.9040,0.4698,4.6492,-1.8879,1.1706,-0.3198,0.7936,-0.0583,
2.656758,0.7470,-0.9040,0.4698,4.6492,-1.8879,1.1706,0.5218,0.0543,-0.0509,
2.659094,0.7470,-0.9040,0.4698,5.6640,-2.3727,0.6123,0.5218,0.0543,-0.0509,
2.696543,0.7470,-0.9040,0.4698,5.6640,-2.3727,0.6123,1.1961,-0.8181,-0.0466,
2.698627,0.7470,-0.9040,0.4698,5.5623,-2.2395,0.1157,1.1961,-0.8181,-0.0466,
2.700321,0.3092,-1.1600,-0.4702,5.5623,-2.2395,0.1157,1.1961,-0.8181,-0.0466,
2.701640,0.4057,-1.2223,-0.1255,5.5623,-2.2395,0.1157,1.1961,-0.8181,-0.0466,
2.703125,0.5493,-1.1967,0.2189,5.5623,-2.2395,0.1157,1.1961,-0.8181,-0.0466,
2.704375,0.4318,-1.1827,-0.1905,5.5623,-2.2395,0.1157,1.1961,-0.8181,-0.0466,
2.705637,0.3820,-1.2052,-0.4832,5.5623,-2.2395,0.1157,1.1961,-0.8181,-0.0466,
2.736345,0.3820,-1.2052,-0.4832,5.5623,-2.2395,0.1157,1.1311,-1.3987,-0.0519,
2.738336,0.3820,-1.2052,-0.4832,5.4691,-2.1352,-0.3807,1.1311,-1.3987,-0.0519,
2.776115,0.3820,-1.2052,-0.4832,5.4691,-2.1352,-0.3807,-0.2271,-2.3148,0.0407,
2.778031,0.3820,-1.2052,-0.4832,5.1870,-2.0953,-3.3590,-0.2271,-2.3148,0.0407,
2.779639,0.3749,-1.1913,-0.6268,5.1870,-2.0953,-3.3590,-0.2271,-2.3148,0.0407,
2.780979,0.3131,-1.1251,-0.7404,5.1870,-2.0953,-3.3590,-0.2271,-2.3148,0.0407,
2.782749,0.1362,-1.0889,-0.7282,5.1870,-2.0953,-3.3590,-0.2271,-2.3148,0.0407,
2.784104,0.1362,-0.9707,-0.7883,5.1870,-2.0953,-3.3590,-0.2271,-2.3148,0.0407,
2.814997,0.1362,-0.9707,-0.7883,5.1870,-2.0953,-3.3590,-2.2490,-2.3308,0.1260,
2.816579,0.1362,-0.9707,-0.7883,3.2973,-0.9031,-5.6292,-2.2490,-2.3308,0.1260,
2.854872,0.1362,-0.9707,-0.7883,3.2973,-0.9031,-5.6292,-3.9811,-2.9934,-0.5398,
2.857373,0.1362,-0.9707,-0.7883,5.7580,0.4039,-0.3814,-3.9811,-2.9934,-0.5398,
2.858902,0.3312,-0.8893,-0.7920,5.7580,0.4039,-0.3814,-3.9811,-2.9934,-0.5398,
2.861210,0.4606,-0.8666,-0.5352,5.7580,0.4039,-0.3814,-3.9811,-2.9934,-0.5398,
2.863184,0.5618,-0.9194,0.2746,5.7580,0.4039,-0.3814,-3.9811,-2.9934,-0.5398,
2.864485,0.6964,-0.8639,1.1813,5.7580,0.4039,-0.3814,-3.9811,-2.9934,-0.5398,
2.894556,0.6964,-0.8639,1.1813,5.7580,0.4039,-0.3814,-3.0170,-3.2650,-1.8213,
2.896993,0.6964,-0.8639,1.1813,5.4473,0.0719,0.5172,-3.0170,-3.2650,-1.8213,
2.933712,0.6964,-0.8639,1.1813,5.4473,0.0719,0.5172,-0.6468,-1.2133,-2.7364,
2.935336,0.6964,-0.8639,1.1813,5.6231,-1.9374,13.4020,-0.6468,-1.2133,-2.7364,
2.937299,0.6273,-0.9313,1.2758,5.6231,-1.9374,13.4020,-0.6468,-1.2133,-2.7364,
2.938493,0.3529,-1.4991,0.4689,5.6231,-1.9374,13.4020,-0.6468,-1.2133,-2.7364,
2.939836,0.1562,-2.2064,-0.2909,5.6231,-1.9374,13.4020,-0.6468,-1.2133,-2.7364,
2.941076,0.0913,-1.8600,-0.7295,5.6231,-1.9374,13.4020,-0.6468,-1.2133,-2.7364,
2.973637,0.0913,-1.8600,-0.7295,5.6231,-1.9374,13.4020,-0.7981,-1.2645,-3.2552,
2.975557,0.0913,-1.8600,-0.7295,4.5914,-2.0590,13.3968,-0.7981,-1.2645,-3.2552,
3.011904,0.0913,-1.8600,-0.7295,4.5914,-2.0590,13.3968,-0.3060,-2.0922,-2.7854,
3.013827,0.0913,-1.8600,-0.7295,-0.6715,-7.9995,0.5826,-0.3060,-2.0922,-2.7854,
3.015135,0.0040,-1.0442,-0.0361,-0.6715,-7.9995,0.5826,-0.3060,-2.0922,-2.7854,
3.016812,-0.0565,-0.8414,0.2971,-0.6715,-7.9995,0.5826,-0.3060,-2.0922,-2.7854,
3.018143,-0.0732,-0.9900,0.1051,-0.6715,-7.9995,0.5826,-0.3060,-2.0922,-2.7854,
3.020110,-0.2921,-1.1129,0.1860,-0.6715,-7.9995,0.5826,-0.3060,-2.0922,-2.7854,
3.052026,-0.2921,-1.1129,0.1860,-0.6715,-7.9995,0.5826,0.1883,-2.0922,-1.4677,
3.053433,-0.2921,-1.1129,0.1860,-2.9727,-0.9651,5.8990,0.1883,-2.0922,-1.4677,
3.093631,-0.2921,-1.1129,0.1860,-10.0213,2.4220,7.0771,0.1883,-2.0922,-1.4677,
3.096470,-0.2921,-1.1129,0.1860,-10.0213,2.4220,7.0771,0.5612,0.2567,-0.3907,
3.098385,-0.6893,-0.9594,0.2781,-10.0213,2.4220,7.0771,0.5612,0.2567,-0.3907,
3.101006,-0.9036,-0.6172,0.2783,-10.0213,2.4220,7.0771,0.5612,0.2567,-0.3907,
3.102737,-0.9979,-0.3340,0.5023,-10.0213,2.4220,7.0771,0.5612,0.2567,-0.3907,
3.104427,-0.9663,-0.1342,0.4723,-10.0213,2.4220,7.0771,0.5612,0.2567,-0.3907,
3.132090,-0.9663,-0.1342,0.4723,-9.9087,2.6194,6.2211,0.5612,0.2567,-0.3907,
3.134062,-0.9663,-0.1342,0.4723,-9.9087,2.6194,6.2211,1.7276,1.9324,0.4434,
3.170870,-0.9663,-0.1342,0.4723,-9.9087,2.6194,6.2211,2.3924,1.3795,0.2474,
3.172644,-0.9663,-0.1342,0.4723,-9.0916,7.3585,0.6005,2.3924,1.3795,0.2474,
3.173764,-0.9483,-0.0528,-0.4268,-9.0916,7.3585,0.6005,2.3924,1.3795,0.2474,
3.174628,-0.4704,-0.2979,-0.4185,-9.0916,7.3585,0.6005,2.3924,1.3795,0.2474,
3.175600,1.0526,-1.5311,0.2358,-9.0916,7.3585,0.6005,2.3924,1.3795,0.2474,
3.176766,1.3189,-2.7480,-0.4385,-9.0916,7.3585,0.6005,2.3924,1.3795,0.2474,
3.211403,1.3189,-2.7480,-0.4385,-9.0916,7.3585,0.6005,0.9915,2.7037,0.1281,
3.214018,1.3189,-2.7480,-0.4385,-9.0242,7.2794,0.1000,0.9915,2.7037,0.1281,
3.251339,1.3189,-2.7480,-0.4385,6.7517,-13.2897,-3.3797,0.9915,2.7037,0.1281,
3.254345,1.3189,-2.7480,-0.4385,6.7517,-13.2897,-3.3797,-1.2178,-0.2056,0.3337,
3.256226,0.0734,-2.5660,-1.3893,6.7517,-13.2897,-3.3797,-1.2178,-0.2056,0.3337,
3.258144,-0.5136,-1.8192,-1.2586,6.7517,-13.2897,-3.3797,-1.2178,-0.2056,0.3337,
3.259793,-0.6461,-0.9313,0.0711,6.7517,-13.2897,-3.3797,-1.2178,-0.2056,0.3337,
3.261159,-1.0238,-0.4728,1.0923,6.7517,-13.2897,-3.3797,-1.2178,-0.2056,0.3337,
3.296406,-1.0238,-0.4728,1.0923,6.7517,-13.2897,-3.3797,-0.9014,3.7082,-0.1904,
3.299654,-1.0238,-0.4728,1.0923,-8.5503,-1.5079,1.5959,-0.9014,3.7082,-0.1904,
3.331619,-1.0238,-0.4728,1.0923,-8.5503,-1.5079,1.5959,0.7071,4.2291,2.3918,
3.333422,-1.2412,-0.4887,0.9174,-8.5503,-1.5079,1.5959,0.7071,4.2291,2.3918,
3.334288,-0.9277,-1.0247,0.4823,-8.5503,-1.5079,1.5959,0.7071,4.2291,2.3918,
3.334984,0.0294,-1.9288,-0.0259,-8.5503,-1.5079,1.5959,0.7071,4.2291,2.3918,
3.335636,1.0179,-2.0471,-0.5335,-8.5503,-1.5079,1.5959,0.7071,4.2291,2.3918,
3.336506,1.0179,-2.0471,-0.5335,-7.6837,-2.0281,5.8249,0.7071,4.2291,2.3918,
3.370694,1.0179,-2.0471,-0.5335,-7.0073,-1.9527,5.6239,0.7071,4.2291,2.3918,
3.371737,1.0179,-2.0471,-0.5335,-7.0073,-1.9527,5.6239,0.0914,3.5388,1.9646,
3.410641,1.0179,-2.0471,-0.5335,-7.0073,-1.9527,5.6239,0.0360,4.3218,0.6447,
3.413401,1.0179,-2.0471,-0.5335,7.1025,-3.2248,1.1237,0.0360,4.3218,0.6447,
3.414874,0.8484,-1.2362,0.0074,7.1025,-3.2248,1.1237,0.0360,4.3218,0.6447,
3.416244,0.3412,-0.5671,0.5304,7.1025,-3.2248,1.1237,0.0360,4.3218,0.6447,
3.417704,0.3419,-0.3616,0.1364,7.1025,-3.2248,1.1237,0.0360,4.3218,0.6447,
3.419015,0.7169,-0.5615,-0.1160,7.1025,-3.2248,1.1237,0.0360,4.3218,0.6447,
3.448545,0.7169,-0.5615,-0.1160,7.1025,-3.2248,1.1237,1.1258,3.2299,0.4679,
3.449921,0.7169,-0.5615,-0.1160,7.0234,-3.1244,0.6814,1.1258,3.2299,0.4679,
3.487701,0.7169,-0.5615,-0.1160,7.0234,-3.1244,0.6814,0.6176,0.8671,0.1036,
3.489562,0.7169,-0.5615,-0.1160,6.7480,3.3041,-0.3566,0.6176,0.8671,0.1036,
3.490411,1.0968,-0.9450,-0.2631,6.7480,3.3041,-0.3566,0.6176,0.8671,0.1036,
3.491175,0.9859,-1.3674,-0.5631,6.7480,3.3041,-0.3566,0.6176,0.8671,0.1036,
3.491922,0.6319,-1.4483,-0.7595,6.7480,3.3041,-0.3566,0.6176,0.8671,0.1036,
3.492783,0.3004,-1.1532,-0.5054,6.7480,3.3041,-0.3566,0.6176,0.8671,0.1036,
3.528546,0.3004,-1.1532,-0.5054,6.7480,3.3041,-0.3566,-0.4434,-1.1345,-0.1499,
3.532340,0.3004,-1.1532,-0.5054,5.8336,-3.5059,-5.2605,-0.4434,-1.1345,-0.1499,
3.568018,0.3004,-1.1532,-0.5054,5.8336,-3.5059,-5.2605,-0.0780,-0.9545,-0.0413,
3.570000,0.3004,-1.1532,-0.5054,-2.6348,0.4825,1.5230,-0.0780,-0.9545,-0.0413,
3.572855,-0.1171,-0.9541,-0.0163,-2.6348,0.4825,1.5230,-0.0780,-0.9545,-0.0413,
3.574272,-0.2899,-0.8832,0.1466,-2.6348,0.4825,1.5230,-0.0780,-0.9545,-0.0413,
3.575219,-0.2855,-0.9072,0.1127,-2.6348,0.4825,1.5230,-0.0780,-0.9545,-0.0413,
3.576164,-0.2498,-0.9426,-0.0095,-2.6348,0.4825,1.5230,-0.0780,-0.9545,-0.0413,
3.607039,-0.2498,-0.9426,-0.0095,-2.6348,0.4825,1.5230,0.5740,-0.1385,0.0088,
3.608646,-0.2498,-0.9426,-0.0095,-2.5813,0.4881,1.2871,0.5740,-0.1385,0.0088,
3.647009,-0.1071,-0.9328,-0.1214,-2.5813,0.4881,1.2871,0.5740,-0.1385,0.0088,
3.648854,0.0898,-0.9047,-0.1497,-2.5813,0.4881,1.2871,0.5740,-0.1385,0.0088,
3.649762,0.1890,-0.9025,-0.1434,-2.5813,0.4881,1.2871,0.5740,-0.1385,0.0088,
3.650576,0.1890,-0.9025,-0.1434,-2.5813,0.4881,1.2871,0.5100,0.0394,0.0343,
3.651492,0.1890,-0.9025,-0.1434,-1.1592,0.3735,-0.6041,0.5100,0.0394,0.0343,
3.686945,0.1890,-0.9025,-0.1434,-1.1592,0.3735,-0.6041,0.2746,-0.3515,-0.2171,
3.688878,0.1890,-0.9025,-0.1434,1.3274,0.7971,-1.1189,0.2746,-0.3515,-0.2171,
3.727347,0.1890,-0.9025,-0.1434,1.3274,0.7971,-1.1189,0.0552,-0.4197,-0.3012,
3.730369,0.1890,-0.9025,-0.1434,1.1977,0.7789,-1.1131,0.0552,-0.4197,-0.3012,
3.731537,0.2176,-0.8737,-0.1446,1.1977,0.7789,-1.1131,0.0552,-0.4197,-0.3012,
3.732793,0.1184,-0.8700,-0.1260,1.1977,0.7789,-1.1131,0.0552,-0.4197,-0.3012,
3.734158,-0.0306,-0.9111,-0.0896,1.1977,0.7789,-1.1131,0.0552,-0.4197,-0.3012,
3.735468,-0.1250,-0.9719,-0.1480,1.1977,0.7789,-1.1131,0.0552,-0.4197,-0.3012,
3.737528,-0.1728,-1.0369,-0.2115,1.1977,0.7789,-1.1131,0.0552,-0.4197,-0.3012,
3.765501,-0.1728,-1.0369,-0.2115,1.1977,0.7789,-1.1131,-0.2431,-0.2354,-0.0636,
3.767222,-0.1728,-1.0369,-0.2115,-1.5843,-0.1171,-1.1134,-0.2431,-0.2354,-0.0636,
3.806436,-0.1728,-1.0369,-0.2115,-1.5843,-0.1171,-1.1134,-0.5861,0.1129,0.1377,
3.808652,-0.1728,-1.0369,-0.2115,-1.6022,-0.0571,-0.1394,-0.5861,0.1129,0.1377,
3.810363,-0.1506,-1.0300,-0.1570,-1.6022,-0.0571,-0.1394,-0.5861,0.1129,0.1377,
3.811469,-0.1279,-0.9304,-0.0491,-1.6022,-0.0571,-0.1394,-0.5861,0.1129,0.1377,
3.812775,-0.0788,-0.9389,-0.0119,-1.6022,-0.0571,-0.1394,-0.5861,0.1129,0.1377,
3.813747,0.0048,-1.0447,0.1146,-1.6022,-0.0571,-0.1394,-0.5861,0.1129,0.1377,
3.845744,0.0048,-1.0447,0.1146,-1.6022,-0.0571,-0.1394,-0.5478,0.3004,-0.0711,
3.848238,0.0048,-1.0447,0.1146,-1.6096,-0.0718,0.0586,-0.5478,0.3004,-0.0711,
3.885336,0.0048,-1.0447,0.1146,-1.6096,-0.0718,0.0586,0.0019,0.4559,-0.2085,
3.888217,0.0048,-1.0447,0.1146,-1.1888,-1.0280,2.1436,0.0019,0.4559,-0.2085,
3.890251,-0.0072,-1.0677,0.1987,-1.1888,-1.0280,2.1436,0.0019,0.4559,-0.2085,
3.891580,-0.2041,-1.0838,0.1210,-1.1888,-1.0280,2.1436,0.0019,0.4559,-0.2085,
3.892930,-0.3495,-1.1033,-0.0789,-1.1888,-1.0280,2.1436,0.0019,0.4559,-0.2085,
3.894256,-0.4965,-1.1529,-0.2242,-1.1888,-1.0280,2.1436,0.0019,0.4559,-0.2085,
3.925170,-0.4965,-1.1529,-0.2242,-1.1888,-1.0280,2.1436,0.0584,0.7862,0.0642,
3.928003,-0.4965,-1.1529,-0.2242,-1.1671,-1.0080,2.0705,0.0584,0.7862,0.0642,
3.964711,-0.4965,-1.1529,-0.2242,-1.1671,-1.0080,2.0705,0.2192,1.2645,0.1675,
3.967088,-0.4965,-1.1529,-0.2242,-4.8582,-1.3400,-0.7569,0.2192,1.2645,0.1675,
3.968458,-0.5256,-1.0511,-0.0996,-4.8582,-1.3400,-0.7569,0.2192,1.2645,0.1675,
3.969754,-0.4215,-0.8688,0.0743,-4.8582,-1.3400,-0.7569,0.2192,1.2645,0.1675,
3.971063,-0.2256,-0.7530,0.1701,-4.8582,-1.3400,-0.7569,0.2192,1.2645,0.1675,
3.972527,-0.0495,-0.7713,0.2057,-4.8582,-1.3400,-0.7569,0.2192,1.2645,0.1675,
4.004046,-0.0495,-0.7713,0.2057,-4.8582,-1.3400,-0.7569,0.5260,2.0336,-0.0061,
4.006937,-0.0495,-0.7713,0.2057,-2.6466,1.6279,1.7702,0.5260,2.0336,-0.0061,
4.043829,-0.0495,-0.7713,0.2057,-2.6466,1.6279,1.7702,0.2533,3.7551,-0.3555,
4.047308,-0.0495,-0.7713,0.2057,0.9173,-2.5602,-0.2390,0.2533,3.7551,-0.3555,
4.048668,0.0732,-1.0222,0.0814,0.9173,-2.5602,-0.2390,0.2533,3.7551,-0.3555,
4.049715,0.1785,-1.4031,-0.1365,0.9173,-2.5602,-0.2390,0.2533,3.7551,-0.3555,
4.050974,0.1978,-1.2619,-0.0615,0.9173,-2.5602,-0.2390,0.2533,3.7551,-0.3555,
4.052106,0.0158,-0.8346,0.0303,0.9173,-2.5602,-0.2390,0.2533,3.7551,-0.3555,
4.083379,0.0158,-0.8346,0.0303,0.9173,-2.5602,-0.2390,0.3630,4.2824,-0.4876,
4.086204,0.0158,-0.8346,0.0303,0.7180,-2.5296,-0.4767,0.3630,4.2824,-0.4876,
4.123735,0.0158,-0.8346,0.0303,-0.7304,0.9666,-0.8442,0.3630,4.2824,-0.4876,
4.126367,0.0158,-0.8346,0.0303,-0.7304,0.9666,-0.8442,0.2128,3.4525,-0.0977,
4.127558,-0.0148,-0.8549,-0.1158,-0.7304,0.9666,-0.8442,0.2128,3.4525,-0.0977,
4.128674,0.0045,-0.9211,-0.0913,-0.7304,0.9666,-0.8442,0.2128,3.4525,-0.0977,
4.130424,-0.0084,-1.0264,0.1992,-0.7304,0.9666,-0.8442,0.2128,3.4525,-0.0977,
4.131568,0.2286,-1.1581,0.1625,-0.7304,0.9666,-0.8442,0.2128,3.4525,-0.0977,
4.162902,0.2286,-1.1581,0.1625,-0.7304,0.9666,-0.8442,0.5697,3.0605,0.1377,
4.165138,0.2286,-1.1581,0.1625,-0.6191,0.9448,-1.1253,0.5697,3.0605,0.1377,
4.196400,0.5420,-1.1329,-0.0921,-0.6191,0.9448,-1.1253,0.5697,3.0605,0.1377,
4.201575,0.6341,-1.0066,-0.2035,-0.6191,0.9448,-1.1253,0.5697,3.0605,0.1377,
4.202920,0.5078,-0.9756,-0.2997,-0.6191,0.9448,-1.1253,0.5697,3.0605,0.1377,
4.206020,0.5078,-0.9756,-0.2997,-0.6191,0.9448,-1.1253,0.8967,2.2232,-0.0179,
4.206973,0.5078,-0.9756,-0.2997,1.8777,-1.3677,-0.0560,0.8967,2.2232,-0.0179,
4.240970,0.5078,-0.9756,-0.2997,1.8777,-1.3677,-0.0560,0.6123,1.4051,-0.1510,
4.243070,0.5078,-0.9756,-0.2997,3.7656,-0.3938,-3.9229,0.6123,1.4051,-0.1510,
4.281405,0.5078,-0.9756,-0.2997,3.7656,-0.3938,-3.9229,0.4248,1.2251,0.3848,
4.283866,0.5078,-0.9756,-0.2997,3.9032,-0.3991,-4.0420,0.4248,1.2251,0.3848,
4.284825,0.2168,-1.0300,-0.3508,3.9032,-0.3991,-4.0420,0.4248,1.2251,0.3848,
4.285637,0.0155,-1.0017,-0.3303,3.9032,-0.3991,-4.0420,0.4248,1.2251,0.3848,
4.287305,-0.0851,-0.8544,-0.3559,3.9032,-0.3991,-4.0420,0.4248,1.2251,0.3848,
4.288346,-0.2166,-0.7962,-0.3391,3.9032,-0.3991,-4.0420,0.4248,1.2251,0.3848,
4.289306,-0.1184,-0.9580,-0.2985,3.9032,-0.3991,-4.0420,0.4248,1.2251,0.3848,
4.320419,-0.1184,-0.9580,-0.2985,3.9032,-0.3991,-4.0420,-0.1760,0.8544,1.3255,
4.322922,-0.1184,-0.9580,-0.2985,-0.9157,0.7854,-4.4703,-0.1760,0.8544,1.3255,
4.361761,-0.1184,-0.9580,-0.2985,-0.9157,0.7854,-4.4703,-1.9177,-1.6394,1.3904,
4.363721,-0.1184,-0.9580,-0.2985,1.8503,-3.4989,-3.7167,-1.9177,-1.6394,1.3904,
4.364661,0.1323,-1.3481,-0.3058,1.8503,-3.4989,-3.7167,-1.9177,-1.6394,1.3904,
4.366063,0.4111,-1.6894,-0.4236,1.8503,-3.4989,-3.7167,-1.9177,-1.6394,1.3904,
4.367273,0.9116,-1.6303,-0.4331,1.8503,-3.4989,-3.7167,-1.9177,-1.6394,1.3904,
4.368570,0.7712,-1.5196,-0.0911,1.8503,-3.4989,-3.7167,-1.9177,-1.6394,1.3904,
4.400856,0.7712,-1.5196,-0.0911,1.8503,-3.4989,-3.7167,-3.7041,-2.3297,0.0993,
4.403531,0.7712,-1.5196,-0.0911,1.8835,-3.4881,-2.3255,-3.7041,-2.3297,0.0993,
4.440488,0.7712,-1.5196,-0.0911,1.8835,-3.4881,-2.3255,-3.0746,1.1420,-0.4141,
4.442968,0.7712,-1.5196,-0.0911,5.8064,-5.5738,1.3310,-3.0746,1.1420,-0.4141,
4.444271,0.0475,-1.4547,0.2639,5.8064,-5.5738,1.3310,-3.0746,1.1420,-0.4141,
4.445244,-0.1990,-1.2494,0.4625,5.8064,-5.5738,1.3310,-3.0746,1.1420,-0.4141,
4.446676,-0.3136,-1.1722,0.3809,5.8064,-5.5738,1.3310,-3.0746,1.1420,-0.4141,
4.448893,-0.2449,-1.0269,0.1970,5.8064,-5.5738,1.3310,-3.0746,1.1420,-0.4141,
4.479007,-0.2449,-1.0269,0.1970,5.8064,-5.5738,1.3310,-1.5992,-0.8991,-0.1158,
4.481419,-0.2449,-1.0269,0.1970,-2.2318,-1.9213,6.0668,-1.5992,-0.8991,-0.1158,
4.519616,-0.2449,-1.0269,0.1970,-2.2318,-1.9213,6.0668,0.1564,-3.2586,0.1078,
4.522033,-0.2449,-1.0269,0.1970,5.9303,0.8357,8.9962,0.1564,-3.2586,0.1078,
4.523483,0.0480,-0.9968,0.6379,5.9303,0.8357,8.9962,0.1564,-3.2586,0.1078,
4.525692,0.6593,-0.8935,1.0190,5.9303,0.8357,8.9962,0.1564,-3.2586,0.1078,
4.527141,0.9471,-0.7142,0.3616,5.9303,0.8357,8.9962,0.1564,-3.2586,0.1078,
4.528326,0.7008,-0.6199,-0.0608,5.9303,0.8357,8.9962,0.1564,-3.2586,0.1078,
4.558736,0.7008,-0.6199,-0.0608,5.9303,0.8357,8.9962,0.8136,-3.1862,-0.4045,
4.561091,0.7008,-0.6199,-0.0608,5.9609,0.9016,8.4729,0.8136,-3.1862,-0.4045,
4.599077,0.7008,-0.6199,-0.0608,5.9609,0.9016,8.4729,0.2256,-4.3100,-0.6400,
4.601869,0.7008,-0.6199,-0.0608,4.0280,4.8066,3.1926,0.2256,-4.3100,-0.6400,
4.603320,0.3143,-0.4730,0.1789,4.0280,4.8066,3.1926,0.2256,-4.3100,-0.6400,
4.604567,0.0492,-0.3008,0.3575,4.0280,4.8066,3.1926,0.2256,-4.3100,-0.6400,
4.605676,-0.1899,-0.3702,0.2937,4.0280,4.8066,3.1926,0.2256,-4.3100,-0.6400,
4.606970,-0.2845,-0.5322,0.1984,4.0280,4.8066,3.1926,0.2256,-4.3100,-0.6400,
4.637951,-0.2845,-0.5322,0.1984,4.1041,4.7311,3.0564,0.2256,-4.3100,-0.6400,
4.640637,-0.2845,-0.5322,0.1984,4.1041,4.7311,3.0564,-0.1483,-5.6810,-0.5718,
4.678244,-0.2845,-0.5322,0.1984,4.1041,4.7311,3.0564,-0.9856,-4.4240,0.1728,
4.680775,-0.2845,-0.5322,0.1984,-2.8760,2.4852,1.8546,-0.9856,-4.4240,0.1728,
4.682117,-0.7174,-1.1449,-0.4441,-2.8760,2.4852,1.8546,-0.9856,-4.4240,0.1728,
4.683461,-0.9436,-1.8394,-1.2860,-2.8760,2.4852,1.8546,-0.9856,-4.4240,0.1728,
4.684700,-0.1140,-1.3865,0.1784,-2.8760,2.4852,1.8546,-0.9856,-4.4240,0.1728,
4.686003,0.6224,-0.9169,0.9758,-2.8760,2.4852,1.8546,-0.9856,-4.4240,0.1728,
4.717629,0.6224,-0.9169,0.9758,-2.8760,2.4852,1.8546,-0.4327,-1.7534,-0.1659,
4.720357,0.6224,-0.9169,0.9758,-0.3381,-4.3102,1.3278,-0.4327,-1.7534,-0.1659,
4.757364,0.6224,-0.9169,0.9758,-0.3381,-4.3102,1.3278,-0.5297,-2.2338,-0.4919,
4.759856,0.6224,-0.9169,0.9758,3.4434,-4.8499,-2.0472,-0.5297,-2.2338,-0.4919,
4.763456,0.2491,-1.3484,-0.2980,3.4434,-4.8499,-2.0472,-0.5297,-2.2338,-0.4919,
4.764958,0.1267,-1.7346,-1.3541,3.4434,-4.8499,-2.0472,-0.5297,-2.2338,-0.4919,
4.766228,0.3705,-1.2450,0.4466,3.4434,-4.8499,-2.0472,-0.5297,-2.2338,-0.4919,
4.767339,0.2562,-0.9333,0.9560,3.4434,-4.8499,-2.0472,-0.5297,-2.2338,-0.4919,
4.796965,0.2562,-0.9333,0.9560,3.4434,-4.8499,-2.0472,0.2480,-2.4117,-0.7113,
4.799531,0.2562,-0.9333,0.9560,3.2991,-4.7251,-2.1942,0.2480,-2.4117,-0.7113,
4.837220,0.2562,-0.9333,0.9560,3.2991,-4.7251,-2.1942,1.1215,-0.8064,-0.5707,
4.840365,0.2562,-0.9333,0.9560,-0.7559,-1.0013,4.7063,1.1215,-0.8064,-0.5707,
4.841780,-0.2808,-1.0630,0.2610,-0.7559,-1.0013,4.7063,1.1215,-0.8064,-0.5707,
4.843579,-0.4247,-1.2230,-0.1490,-0.7559,-1.0013,4.7063,1.1215,-0.8064,-0.5707,
4.844928,-0.1968,-1.0945,0.0074,-0.7559,-1.0013,4.7063,1.1215,-0.8064,-0.5707,
4.846307,0.0148,-0.9064,0.1244,-0.7559,-1.0013,4.7063,1.1215,-0.8064,-0.5707,
4.876038,0.0148,-0.9064,0.1244,-0.7559,-1.0013,4.7063,0.9031,-0.7382,-0.1638,
4.878726,0.0148,-0.9064,0.1244,-0.7744,-0.9437,4.2727,0.9031,-0.7382,-0.1638,
4.915480,0.0148,-0.9064,0.1244,-0.7744,-0.9437,4.2727,0.6411,-0.5486,0.0226,
4.918630,0.0148,-0.9064,0.1244,0.1736,0.2507,1.0146,0.6411,-0.5486,0.0226,
4.919956,0.0167,-0.8563,0.0233,0.1736,0.2507,1.0146,0.6411,-0.5486,0.0226,
4.921672,-0.1303,-0.8485,-0.0474,0.1736,0.2507,1.0146,0.6411,-0.5486,0.0226,
4.922912,-0.2757,-0.8414,-0.0806,0.1736,0.2507,1.0146,0.6411,-0.5486,0.0226,
4.924237,-0.3807,-0.8461,-0.0982,0.1736,0.2507,1.0146,0.6411,-0.5486,0.0226,
4.955514,-0.3807,-0.8461,-0.0982,0.1736,0.2507,1.0146,0.0275,-0.0820,0.4786,
4.958264,-0.3807,-0.8461,-0.0982,-1.6455,1.2640,-0.2391,0.0275,-0.0820,0.4786,
4.994603,-0.3807,-0.8461,-0.0982,-1.6455,1.2640,-0.2391,-0.6895,0.4783,0.7800,
4.997309,-0.3807,-0.8461,-0.0982,0.3725,0.6433,-0.1012,-0.6895,0.4783,0.7800,
4.998489,-0.2886,-0.8273,-0.0869,0.3725,0.6433,-0.1012,-0.6895,0.4783,0.7800,
4.999698,-0.0363,-0.8847,-0.0769,0.3725,0.6433,-0.1012,-0.6895,0.4783,0.7800,
5.000983,0.0715,-0.9954,-0.1065,0.3725,0.6433,-0.1012,-0.6895,0.4783,0.7800,
5.003131,-0.0438,-1.0784,0.1046,0.3725,0.6433,-0.1012,-0.6895,0.4783,0.7800,
5.034446,-0.0438,-1.0784,0.1046,0.3725,0.6433,-0.1012,-0.9845,1.2570,0.3252,
5.036906,-0.0438,-1.0784,0.1046,0.4369,0.5785,0.3252,-0.9845,1.2570,0.3252,
5.074228,-0.0438,-1.0784,0.1046,0.4369,0.5785,0.3252,-0.5680,2.4469,0.0290,
5.077166,-0.0438,-1.0784,0.1046,-1.7842,-0.7262,3.9399,-0.5680,2.4469,0.0290,
5.078551,-0.2869,-1.0308,0.4112,-1.7842,-0.7262,3.9399,-0.5680,2.4469,0.0290,
5.079870,-0.5737,-0.9914,0.2400,-1.7842,-0.7262,3.9399,-0.5680,2.4469,0.0290,
5.080991,-0.6773,-1.0801,-0.1282,-1.7842,-0.7262,3.9399,-0.5680,2.4469,0.0290,
5.082112,-0.5823,-1.1781,-0.2826,-1.7842,-0.7262,3.9399,-0.5680,2.4469,0.0290,
5.113657,-0.5823,-1.1781,-0.2826,-1.7842,-0.7262,3.9399,-0.9792,2.7953,0.2804,
5.116510,-0.5823,-1.1781,-0.2826,-1.8381,-0.7920,4.3540,-0.9792,2.7953,0.2804,
5.153784,-0.5823,-1.1781,-0.2826,-1.8381,-0.7920,4.3540,-1.1944,3.3449,0.7342,
5.156700,-0.5796,-1.2507,-0.3928,-1.8381,-0.7920,4.3540,-1.1944,3.3449,0.7342,
5.157910,-0.5266,-1.2766,-0.5670,-1.8381,-0.7920,4.3540,-1.1944,3.3449,0.7342,
5.159221,-0.4054,-1.1600,-0.5736,-1.8381,-0.7920,4.3540,-1.1944,3.3449,0.7342,
5.160337,-0.1775,-0.8087,-0.4331,-1.8381,-0.7920,4.3540,-1.1944,3.3449,0.7342,
5.161546,-0.1775,-0.8087,-0.4331,-4.8287,-2.2231,-0.1521,-1.1944,3.3449,0.7342,
5.193016,-0.1775,-0.8087,-0.4331,-4.8287,-2.2231,-0.1521,-0.5872,3.2970,0.8152,
5.195517,-0.1775,-0.8087,-0.4331,-2.4559,-1.4364,-2.2646,-0.5872,3.2970,0.8152,
5.233280,-0.1775,-0.8087,-0.4331,-2.4559,-1.4364,-2.2646,0.9798,4.5295,-0.2788,
5.236634,-0.1775,-0.8087,-0.4331,1.8189,5.0934,3.2028,0.9798,4.5295,-0.2788,
5.238033,0.0705,-0.4892,-0.3762,1.8189,5.0934,3.2028,0.9798,4.5295,-0.2788,
5.239342,0.1423,-0.4146,0.0961,1.8189,5.0934,3.2028,0.9798,4.5295,-0.2788,
5.240366,0.1824,-0.3519,0.4574,1.8189,5.0934,3.2028,0.9798,4.5295,-0.2788,
5.241928,-0.0018,-0.2441,0.4308,1.8189,5.0934,3.2028,0.9798,4.5295,-0.2788,
5.272223,-0.0018,-0.2441,0.4308,1.8189,5.0934,3.2028,2.5255,4.2952,-0.5420,
5.274970,-0.0018,-0.2441,0.4308,1.2169,5.2285,2.2715,2.5255,4.2952,-0.5420,
5.312109,-0.0018,-0.2441,0.4308,-2.1789,5.4054,2.0284,2.5255,4.2952,-0.5420,
5.315498,-0.0018,-0.2441,0.4308,-2.1789,5.4054,2.0284,2.6257,2.8805,0.5159,
5.316797,-0.3116,-0.3487,0.1513,-2.1789,5.4054,2.0284,2.6257,2.8805,0.5159,
5.317775,-0.3578,-0.6194,-0.1658,-2.1789,5.4054,2.0284,2.6257,2.8805,0.5159,
5.319016,-0.1636,-1.0584,-0.3711,-2.1789,5.4054,2.0284,2.6257,2.8805,0.5159,
5.320553,0.2249,-1.7158,-0.5079,-2.1789,5.4054,2.0284,2.6257,2.8805,0.5159,
5.352087,0.2249,-1.7158,-0.5079,-1.7134,5.3273,1.4587,2.6257,2.8805,0.5159,
5.354721,0.2249,-1.7158,-0.5079,-1.7134,5.3273,1.4587,1.5050,1.9409,1.2530,
5.406316,0.2249,-1.7158,-0.5079,3.1099,-7.3274,-5.0546,1.5050,1.9409,1.2530,
5.408393,0.2249,-1.7158,-0.5079,3.1099,-7.3274,-5.0546,-0.1281,1.1516,-0.0296,
5.409208,0.7646,-2.3498,-0.7466,3.1099,-7.3274,-5.0546,-0.1281,1.1516,-0.0296,
5.410274,0.9942,-2.8106,-1.8022,3.1099,-7.3274,-5.0546,-0.1281,1.1516,-0.0296,
5.411256,0.2735,-1.3750,-0.6491,3.1099,-7.3274,-5.0546,-0.1281,1.1516,-0.0296,
5.412021,0.0610,-0.0819,0.1256,3.1099,-7.3274,-5.0546,-0.1281,1.1516,-0.0296,
5.430330,0.0610,-0.0819,0.1256,4.9515,-4.4764,-7.0508,-0.1281,1.1516,-0.0296,
5.431911,0.0610,-0.0819,0.1256,4.9515,-4.4764,-7.0508,-0.5073,-0.7435,0.7310,
5.469325,0.0610,-0.0819,0.1256,4.9515,-4.4764,-7.0508,1.0927,-2.4352,1.3073,
5.471230,0.0610,-0.0819,0.1256,6.2392,0.5653,-0.0324,1.0927,-2.4352,1.3073,
5.472082,0.2474,-0.2786,0.1698,6.2392,0.5653,-0.0324,1.0927,-2.4352,1.3073,
5.472603,0.5640,-0.9509,-0.0874,6.2392,0.5653,-0.0324,1.0927,-2.4352,1.3073,
5.473154,0.7844,-1.4818,-0.1084,6.2392,0.5653,-0.0324,1.0927,-2.4352,1.3073,
5.473864,0.7553,-1.6010,-0.2245,6.2392,0.5653,-0.0324,1.0927,-2.4352,1.3073,
5.509087,0.7553,-1.6010,-0.2245,6.2392,0.5653,-0.0324,1.8416,-2.2892,0.0280,
5.511625,0.7553,-1.6010,-0.2245,6.1177,0.5300,-0.8023,1.8416,-2.2892,0.0280,
5.549121,0.7553,-1.6010,-0.2245,6.1177,0.5300,-0.8023,0.9830,-1.3475,-0.6293,
5.551518,0.7553,-1.6010,-0.2245,5.3590,-2.1528,-4.9207,0.9830,-1.3475,-0.6293,
5.553187,0.4929,-1.1566,-0.4045,5.3590,-2.1528,-4.9207,0.9830,-1.3475,-0.6293,
5.554318,0.2298,-0.7809,-0.5584,5.3590,-2.1528,-4.9207,0.9830,-1.3475,-0.6293,
5.555464,-0.1159,-0.7159,-0.7456,5.3590,-2.1528,-4.9207,0.9830,-1.3475,-0.6293,
5.556881,-0.2058,-0.7557,-0.8059,5.3590,-2.1528,-4.9207,0.9830,-1.3475,-0.6293,
5.588773,-0.2058,-0.7557,-0.8059,5.3590,-2.1528,-4.9207,-1.0357,-1.3167,-0.0115,
5.590593,-0.2058,-0.7557,-0.8059,5.2181,-2.0817,-4.4829,-1.0357,-1.3167,-0.0115,
5.628634,-0.2058,-0.7557,-0.8059,5.2181,-2.0817,-4.4829,-3.7915,-2.6770,0.3561,
5.631432,-0.2058,-0.7557,-0.8059,-0.8662,1.3659,-6.4050,-3.7915,-2.6770,0.3561,
5.632370,-0.1103,-0.9985,-0.6796,-0.8662,1.3659,-6.4050,-3.7915,-2.6770,0.3561,
5.633348,-0.1381,-1.3796,-0.9530,-0.8662,1.3659,-6.4050,-3.7915,-2.6770,0.3561,
5.634260,-0.0854,-1.4930,-1.0742,-0.8662,1.3659,-6.4050,-3.7915,-2.6770,0.3561,
5.635141,0.0282,-1.2900,-0.3168,-0.8662,1.3659,-6.4050,-3.7915,-2.6770,0.3561,
5.667656,0.0282,-1.2900,-0.3168,-0.8662,1.3659,-6.4050,-5.7324,-3.6315,0.1270,
5.669077,0.0282,-1.2900,-0.3168,0.2213,-4.5203,-4.6916,-5.7324,-3.6315,0.1270,
5.708311,0.0282,-1.2900,-0.3168,0.2213,-4.5203,-4.6916,-3.1396,-0.0320,-0.5665,
5.710690,0.0282,-1.2900,-0.3168,0.5601,-8.3187,13.4026,-3.1396,-0.0320,-0.5665,
5.711989,0.0468,-1.3789,0.6450,0.5601,-8.3187,13.4026,-3.1396,-0.0320,-0.5665,
5.713576,-0.1833,-1.8756,1.2751,0.5601,-8.3187,13.4026,-3.1396,-0.0320,-0.5665,
5.714840,0.1110,-1.9858,1.0073,0.5601,-8.3187,13.4026,-3.1396,-0.0320,-0.5665,
5.716573,0.3876,-1.4441,0.7066,0.5601,-8.3187,13.4026,-3.1396,-0.0320,-0.5665,
5.747670,0.3876,-1.4441,0.7066,0.5601,-8.3187,13.4026,-0.5371,0.2930,-1.6040,
5.749943,0.3876,-1.4441,0.7066,-0.0413,-8.2409,13.3663,-0.5371,0.2930,-1.6040,
5.788060,0.3876,-1.4441,0.7066,-0.0413,-8.2409,13.3663,-0.0780,-1.3891,-1.6424,
5.790559,0.3876,-1.4441,0.7066,2.4061,-3.0088,4.6085,-0.0780,-1.3891,-1.6424,
5.791899,0.3185,-1.1297,0.1000,2.4061,-3.0088,4.6085,-0.0780,-1.3891,-1.6424,
5.792964,0.1421,-1.0735,-0.5479,2.4061,-3.0088,4.6085,-0.0780,-1.3891,-1.6424,
5.794195,-0.1154,-0.9472,-0.5252,2.4061,-3.0088,4.6085,-0.0780,-1.3891,-1.6424,
5.795442,-0.1956,-0.5835,-0.0806,2.4061,-3.0088,4.6085,-0.0780,-1.3891,-1.6424,
5.826639,-0.1956,-0.5835,-0.0806,2.4061,-3.0088,4.6085,0.2032,-3.2714,-0.4525,
5.828220,-0.1956,-0.5835,-0.0806,2.6871,-2.9348,4.4921,0.2032,-3.2714,-0.4525,
5.867703,-0.1956,-0.5835,-0.0806,2.6871,-2.9348,4.4921,0.8967,-4.0895,0.1174,
5.869895,-0.1956,-0.5835,-0.0806,-1.9488,3.0542,2.3648,0.8967,-4.0895,0.1174,
5.871219,-0.4565,-0.3047,0.3343,-1.9488,3.0542,2.3648,0.8967,-4.0895,0.1174,
5.872341,-0.6502,-0.1970,0.3294,-1.9488,3.0542,2.3648,0.8967,-4.0895,0.1174,
5.873795,-0.7365,-0.1862,0.2209,-1.9488,3.0542,2.3648,0.8967,-4.0895,0.1174,
5.875664,-0.5830,-0.3133,0.0834,-1.9488,3.0542,2.3648,0.8967,-4.0895,0.1174,
5.906542,-0.5830,-0.3133,0.0834,-5.2360,6.7958,4.6685,0.8967,-4.0895,0.1174,
5.908865,-0.5830,-0.3133,0.0834,-5.2360,6.7958,4.6685,1.3601,-2.5737,0.6767,
5.945431,-0.5830,-0.3133,0.0834,-5.2360,6.7958,4.6685,1.4208,-0.5720,0.1004,
5.948754,-0.5830,-0.3133,0.0834,2.4420,-1.1287,1.1772,1.4208,-0.5720,0.1004,
5.954026,-0.2063,-0.7098,-0.0386,2.4420,-1.1287,1.1772,1.4208,-0.5720,0.1004,
5.955737,0.2530,-1.1329,-0.0569,2.4420,-1.1287,1.1772,1.4208,-0.5720,0.1004,
5.957042,0.3185,-1.3239,-0.1676,2.4420,-1.1287,1.1772,1.4208,-0.5720,0.1004,
5.958226,-0.0275,-1.4131,-0.1927,2.4420,-1.1287,1.1772,1.4208,-0.5720,0.1004,
5.983893,-0.0275,-1.4131,-0.1927,2.4420,-1.1287,1.1772,0.8882,-0.0192,-0.8637,
5.985418,-0.0275,-1.4131,-0.1927,2.0909,-1.0082,0.8354,0.8882,-0.0192,-0.8637,
6.024945,-0.0275,-1.4131,-0.1927,2.0909,-1.0082,0.8354,0.1585,-0.1821,-0.5697,
6.027884,-0.0275,-1.4131,-0.1927,-2.3831,-3.3672,-0.5836,0.1585,-0.1821,-0.5697,
6.029354,-0.3749,-1.3283,-0.1751,-2.3831,-3.3672,-0.5836,0.1585,-0.1821,-0.5697,
6.030648,-0.5535,-1.1735,-0.3129,-2.3831,-3.3672,-0.5836,0.1585,-0.1821,-0.5697,
6.031767,-0.8430,-1.0034,-0.5907,-2.3831,-3.3672,-0.5836,0.1585,-0.1821,-0.5697,
6.036666,-1.1484,-0.8576,-0.8340,-2.3831,-3.3672,-0.5836,0.1585,-0.1821,-0.5697,
6.063623,-1.1484,-0.8576,-0.8340,-2.3831,-3.3672,-0.5836,-0.9249,0.1875,0.8088,
6.065173,-1.1484,-0.8576,-0.8340,-2.0613,-3.4043,-0.2293,-0.9249,0.1875,0.8088,
6.104049,-1.1484,-0.8576,-0.8340,-2.0613,-3.4043,-0.2293,-0.4977,0.1364,1.2349,
6.106003,-1.1484,-0.8576,-0.8340,-7.3675,0.0706,-2.9484,-0.4977,0.1364,1.2349,
6.108810,-0.7633,-0.9580,-0.1622,-7.3675,0.0706,-2.9484,-0.4977,0.1364,1.2349,
6.110518,-0.2539,-1.1173,0.2649,-7.3675,0.0706,-2.9484,-0.4977,0.1364,1.2349,
6.111486,-0.0563,-1.1810,0.2829,-7.3675,0.0706,-2.9484,-0.4977,0.1364,1.2349,
6.112464,0.0473,-1.1182,-0.0803,-7.3675,0.0706,-2.9484,-0.4977,0.1364,1.2349,
6.143671,0.0473,-1.1182,-0.0803,-7.3675,0.0706,-2.9484,0.2693,-0.1821,0.7822,
6.146387,0.0473,-1.1182,-0.0803,1.0569,-1.8815,3.5897,0.2693,-0.1821,0.7822,
6.183808,0.0473,-1.1182,-0.0803,1.0569,-1.8815,3.5897,0.6517,0.0245,0.3667,
6.186308,0.0473,-1.1182,-0.0803,2.7319,0.8877,1.3311,0.6517,0.0245,0.3667,
6.187727,0.1809,-1.0024,-0.1712,2.7319,0.8877,1.3311,0.6517,0.0245,0.3667,
6.188959,0.1040,-0.8563,-0.0119,2.7319,0.8877,1.3311,0.6517,0.0245,0.3667,
6.190221,-0.0617,-0.7120,0.0389,2.7319,0.8877,1.3311,0.6517,0.0245,0.3667,
6.191227,-0.2952,-0.6917,-0.0224,2.7319,0.8877,1.3311,0.6517,0.0245,0.3667,
6.223543,-0.2952,-0.6917,-0.0224,2.7319,0.8877,1.3311,1.1567,0.1396,0.0226,
6.226619,-0.2952,-0.6917,-0.0224,2.6859,0.9430,0.8996,1.1567,0.1396,0.0226,
6.262404,-0.2952,-0.6917,-0.0224,2.6859,0.9430,0.8996,1.5892,0.3302,-0.0924,
6.264807,-0.2952,-0.6917,-0.0224,-1.6388,1.8704,0.6289,1.5892,0.3302,-0.0924,
6.266201,-0.4233,-0.7564,-0.0090,-1.6388,1.8704,0.6289,1.5892,0.3302,-0.0924,
6.267501,-0.3759,-0.8522,-0.0193,-1.6388,1.8704,0.6289,1.5892,0.3302,-0.0924,
6.268609,-0.3715,-1.0391,-0.1698,-1.6388,1.8704,0.6289,1.5892,0.3302,-0.0924,
6.269976,-0.3790,-1.3611,-0.5504,-1.6388,1.8704,0.6289,1.5892,0.3302,-0.0924,
6.302295,-0.3790,-1.3611,-0.5504,-1.6388,1.8704,0.6289,1.3559,-0.3547,-0.0796,
6.304786,-0.3790,-1.3611,-0.5504,-1.6345,1.8733,0.0952,1.3559,-0.3547,-0.0796,
6.343030,-0.3790,-1.3611,-0.5504,-1.6345,1.8733,0.0952,0.1702,1.2059,0.0557,
6.345314,-0.3790,-1.3611,-0.5504,-1.5319,-3.2578,-4.9963,0.1702,1.2059,0.0557,
6.346875,-0.3233,-1.4869,-0.9242,-1.5319,-3.2578,-4.9963,0.1702,1.2059,0.0557,
6.348160,0.2300,-1.2362,-0.2658,-1.5319,-3.2578,-4.9963,0.1702,1.2059,0.0557,
6.349345,0.2242,-1.0923,0.0868,-1.5319,-3.2578,-4.9963,0.1702,1.2059,0.0557,
6.350665,-0.1953,-1.0342,-0.1341,-1.5319,-3.2578,-4.9963,0.1702,1.2059,0.0557,
6.381705,-0.1953,-1.0342,-0.1341,-1.5319,-3.2578,-4.9963,0.2182,0.7510,0.0802,
6.383913,-0.1953,-1.0342,-0.1341,2.7932,-1.5224,-0.6591,0.2182,0.7510,0.0802,
6.421842,-0.1457,-0.9335,-0.4353,2.7932,-1.5224,-0.6591,0.2182,0.7510,0.0802,
6.424359,0.1804,-0.9155,-0.4820,2.7932,-1.5224,-0.6591,0.2182,0.7510,0.0802,
6.425689,0.3659,-0.8874,-0.4055,2.7932,-1.5224,-0.6591,0.2182,0.7510,0.0802,
6.427281,0.3659,-0.8874,-0.4055,2.7932,-1.5224,-0.6591,-0.4551,-0.2823,0.3060,
6.428604,0.3659,-0.8874,-0.4055,3.3196,0.4833,-3.7464,-0.4551,-0.2823,0.3060,
6.461476,0.3659,-0.8874,-0.4055,3.3196,0.4833,-3.7464,-1.4138,-0.9406,0.3177,
6.464143,0.3659,-0.8874,-0.4055,4.9880,-0.6493,-5.3655,-1.4138,-0.9406,0.3177,
6.501145,0.3659,-0.8874,-0.4055,4.9880,-0.6493,-5.3655,-2.9052,-2.0229,0.2357,
6.503889,0.3659,-0.8874,-0.4055,5.1136,-0.8354,-4.3984,-2.9052,-2.0229,0.2357,
6.505214,0.3700,-0.8661,-0.3554,5.1136,-0.8354,-4.3984,-2.9052,-2.0229,0.2357,
6.506965,0.3334,-0.9758,-0.5582,5.1136,-0.8354,-4.3984,-2.9052,-2.0229,0.2357,
6.509673,0.1885,-1.2228,-1.0698,5.1136,-0.8354,-4.3984,-2.9052,-2.0229,0.2357,
6.511248,0.1743,-1.4099,-1.2007,5.1136,-0.8354,-4.3984,-2.9052,-2.0229,0.2357,
6.512577,0.0553,-1.4141,-0.6686,5.1136,-0.8354,-4.3984,-2.9052,-2.0229,0.2357,
6.541872,0.0553,-1.4141,-0.6686,5.1136,-0.8354,-4.3984,-3.8831,0.0650,-0.4663,
6.552266,0.0553,-1.4141,-0.6686,4.8493,-1.2011,-2.9600,-3.8831,0.0650,-0.4663,
6.580830,0.0553,-1.4141,-0.6686,4.8493,-1.2011,-2.9600,-2.6730,0.9651,-0.9382,
6.583181,0.0553,-1.4141,-0.6686,1.5168,-5.1689,-0.5199,-2.6730,0.9651,-0.9382,
6.584495,-0.2039,-1.3716,0.3303,1.5168,-5.1689,-0.5199,-2.6730,0.9651,-0.9382,
6.585778,-0.2613,-1.0950,0.7843,1.5168,-5.1689,-0.5199,-2.6730,0.9651,-0.9382,
6.587106,-0.0964,-0.8285,0.1713,1.5168,-5.1689,-0.5199,-2.6730,0.9651,-0.9382,
6.588195,0.3878,-1.0296,-0.4844,1.5168,-5.1689,-0.5199,-2.6730,0.9651,-0.9382,
6.619499,0.3878,-1.0296,-0.4844,1.5168,-5.1689,-0.5199,-1.3574,0.4826,-1.5071,
6.621872,0.3878,-1.0296,-0.4844,0.9217,-1.2765,6.4148,-1.3574,0.4826,-1.5071,
6.659038,0.7072,-1.3237,-0.4075,0.9217,-1.2765,6.4148,-1.3574,0.4826,-1.5071,
6.661481,0.5071,-1.2304,-0.2619,0.9217,-1.2765,6.4148,-1.3574,0.4826,-1.5071,
6.662656,0.0878,-1.0176,-0.1407,0.9217,-1.2765,6.4148,-1.3574,0.4826,-1.5071,
6.663761,0.0878,-1.0176,-0.1407,0.9217,-1.2765,6.4148,-1.0655,-0.6072,-2.6874,
6.665028,0.0878,-1.0176,-0.1407,4.2452,-3.4072,2.5289,-1.0655,-0.6072,-2.6874,
6.698624,0.0878,-1.0176,-0.1407,4.2452,-3.4072,2.5289,-0.2016,-1.2964,-2.9111,
6.700594,0.0878,-1.0176,-0.1407,-3.4912,-1.8765,2.2397,-0.2016,-1.2964,-2.9111,
6.739315,0.0878,-1.0176,-0.1407,-3.4912,-1.8765,2.2397,0.2608,-1.7470,-2.0994,
6.742150,0.0878,-1.0176,-0.1407,-3.7484,-1.8582,2.1751,0.2608,-1.7470,-2.0994,
6.743768,-0.2222,-0.9951,-0.1140,-3.7484,-1.8582,2.1751,0.2608,-1.7470,-2.0994,
6.745001,-0.3395,-1.0879,-0.3527,-3.7484,-1.8582,2.1751,0.2608,-1.7470,-2.0994,
6.746363,-0.3153,-1.0044,-0.4463,-3.7484,-1.8582,2.1751,0.2608,-1.7470,-2.0994,
6.748146,-0.2652,-0.7476,-0.2130,-3.7484,-1.8582,2.1751,0.2608,-1.7470,-2.0994,
6.749521,-0.2195,-0.6443,-0.0110,-3.7484,-1.8582,2.1751,0.2608,-1.7470,-2.0994,
6.778118,-0.2195,-0.6443,-0.0110,-3.7484,-1.8582,2.1751,0.6475,-0.4879,-1.3313,
6.780639,-0.2195,-0.6443,-0.0110,-4.0167,-1.7531,1.9491,0.6475,-0.4879,-1.3313,
6.818320,-0.2195,-0.6443,-0.0110,-4.0167,-1.7531,1.9491,1.5551,0.1545,-0.6762,
6.820645,-0.2195,-0.6443,-0.0110,-3.4219,1.6718,3.7911,1.5551,0.1545,-0.6762,
6.822081,-0.1504,-0.7161,0.0565,-3.4219,1.6718,3.7911,1.5551,0.1545,-0.6762,
6.823382,-0.1577,-0.8102,0.0123,-3.4219,1.6718,3.7911,1.5551,0.1545,-0.6762,
6.824376,-0.2249,-0.7369,-0.0105,-3.4219,1.6718,3.7911,1.5551,0.1545,-0.6762,
6.825495,0.0248,-0.5510,0.0399,-3.4219,1.6718,3.7911,1.5551,0.1545,-0.6762,
6.857133,0.0248,-0.5510,0.0399,-3.4219,1.6718,3.7911,2.0248,-0.0905,-0.4983,
6.859791,0.0248,-0.5510,0.0399,-2.6295,1.9635,3.7176,2.0248,-0.0905,-0.4983,
6.897537,0.3610,-0.4420,-0.0122,-2.6295,1.9635,3.7176,2.0248,-0.0905,-0.4983,
6.900293,0.3627,-0.4488,-0.1663,-2.6295,1.9635,3.7176,2.0248,-0.0905,-0.4983,
6.901594,0.0969,-0.3663,-0.4979,-2.6295,1.9635,3.7176,2.0248,-0.0905,-0.4983,
6.903158,0.0969,-0.3663,-0.4979,-2.6295,1.9635,3.7176,2.5660,0.8437,-1.0256,
6.904414,0.0969,-0.3663,-0.4979,0.7417,4.8748,0.3982,2.5660,0.8437,-1.0256,
6.936278,0.0969,-0.3663,-0.4979,0.7417,4.8748,0.3982,0.8104,-0.6232,-0.4003,
6.938488,0.0969,-0.3663,-0.4979,-6.7938,-5.0509,-10.7615,0.8104,-0.6232,-0.4003,
6.975919,0.0969,-0.3663,-0.4979,-6.7938,-5.0509,-10.7615,-2.1403,-1.9260,1.4703,
6.979014,0.0969,-0.3663,-0.4979,-5.9404,-5.1301,-9.7104,-2.1403,-1.9260,1.4703,
6.980525,-0.1159,-0.3848,-1.1870,-5.9404,-5.1301,-9.7104,-2.1403,-1.9260,1.4703,
6.981648,-0.3224,-1.2472,-1.8408,-5.9404,-5.1301,-9.7104,-2.1403,-1.9260,1.4703,
6.982906,-1.0575,-2.7043,-1.0473,-5.9404,-5.1301,-9.7104,-2.1403,-1.9260,1.4703,
6.984477,-1.3137,-3.1264,0.1466,-5.9404,-5.1301,-9.7104,-2.1403,-1.9260,1.4703,
6.986261,-0.6483,-1.0303,0.2908,-5.9404,-5.1301,-9.7104,-2.1403,-1.9260,1.4703,
7.015101,-0.6483,-1.0303,0.2908,-5.8776,-5.2286,-9.1276,-2.1403,-1.9260,1.4703,
7.017099,-0.6483,-1.0303,0.2908,-5.8776,-5.2286,-9.1276,-1.3201,0.9960,0.3348,
7.045535,-0.7382,-0.1891,0.4344,-5.8776,-5.2286,-9.1276,-1.3201,0.9960,0.3348,
7.047738,-0.3057,-0.4427,0.1794,-5.8776,-5.2286,-9.1276,-1.3201,0.9960,0.3348,
7.048632,0.1079,-1.3305,0.4760,-5.8776,-5.2286,-9.1276,-1.3201,0.9960,0.3348,
7.054780,0.1079,-1.3305,0.4760,-5.8776,-5.2286,-9.1276,0.5846,2.5929,0.3933,
7.056430,0.1079,-1.3305,0.4760,-9.9223,-5.0639,6.5964,0.5846,2.5929,0.3933,
7.095724,0.1079,-1.3305,0.4760,-9.9223,-5.0639,6.5964,1.3889,2.2445,0.3774,
7.098652,0.1079,-1.3305,0.4760,-1.1177,-4.0554,5.4376,1.3889,2.2445,0.3774,
7.134366,0.2396,-2.3483,0.0782,-1.1177,-4.0554,5.4376,1.3889,2.2445,0.3774,
7.136667,0.5493,-2.3278,-0.3496,-1.1177,-4.0554,5.4376,1.3889,2.2445,0.3774,
7.137906,0.1953,-1.4454,-0.2814,-1.1177,-4.0554,5.4376,1.3889,2.2445,0.3774,
7.139484,0.1953,-1.4454,-0.2814,-1.1177,-4.0554,5.4376,0.8786,1.0791,-0.1702,
7.140661,0.1953,-1.4454,-0.2814,-1.2824,-3.8996,4.9673,0.8786,1.0791,-0.1702,
7.174585,0.1953,-1.4454,-0.2814,-1.2824,-3.8996,4.9673,0.5825,0.7532,0.5989,
7.177238,0.1953,-1.4454,-0.2814,-0.3148,-5.4506,-1.0303,0.5825,0.7532,0.5989,
7.214642,-0.4560,-0.8786,-0.3965,-0.3148,-5.4506,-1.0303,0.5825,0.7532,0.5989,
7.217242,-0.7040,-0.7410,-0.4856,-0.3148,-5.4506,-1.0303,0.5825,0.7532,0.5989,
7.218517,-0.5899,-0.7750,-0.5272,-0.3148,-5.4506,-1.0303,0.5825,0.7532,0.5989,
7.220100,-0.3529,-0.8522,-0.6129,-0.3148,-5.4506,-1.0303,0.5825,0.7532,0.5989,
7.221226,-0.1868,-0.9013,-0.5919,-0.3148,-5.4506,-1.0303,0.5825,0.7532,0.5989,
7.222342,-0.0228,-0.9074,-0.5269,-0.3148,-5.4506,-1.0303,0.5825,0.7532,0.5989,
7.223578,-0.0228,-0.9074,-0.5269,-0.3148,-5.4506,-1.0303,-0.0748,1.0631,0.8408,
7.224587,-0.0228,-0.9074,-0.5269,-6.3015,2.0063,-2.9539,-0.0748,1.0631,0.8408,
7.253349,-0.0228,-0.9074,-0.5269,-6.3015,2.0063,-2.9539,-1.2562,1.7151,0.8013,
7.255369,-0.0228,-0.9074,-0.5269,-6.0637,1.8737,-2.4864,-1.2562,1.7151,0.8013,
7.293304,-0.0228,-0.9074,-0.5269,-6.0637,1.8737,-2.4864,-2.2437,1.4648,0.7928,
7.295418,-0.0228,-0.9074,-0.5269,-0.5783,0.4424,-1.6537,-2.2437,1.4648,0.7928,
7.296519,0.2044,-0.9135,-0.5076,-0.5783,0.4424,-1.6537,-2.2437,1.4648,0.7928,
7.297413,0.3602,-0.7982,-0.5157,-0.5783,0.4424,-1.6537,-2.2437,1.4648,0.7928,
7.298293,0.5415,-0.7115,-0.4370,-0.5783,0.4424,-1.6537,-2.2437,1.4648,0.7928,
7.299963,0.3373,-0.8478,-0.1548,-0.5783,0.4424,-1.6537,-2.2437,1.4648,0.7928,
7.332768,0.3373,-0.8478,-0.1548,-0.5783,0.4424,-1.6537,-1.6226,1.0152,0.3731,
7.334880,0.3373,-0.8478,-0.1548,3.4064,1.3654,0.6009,-1.6226,1.0152,0.3731,
7.372776,-0.3954,-1.1490,-0.0842,3.4064,1.3654,0.6009,-1.6226,1.0152,0.3731,
7.374549,-0.6573,-1.2055,-0.4712,3.4064,1.3654,0.6009,-1.6226,1.0152,0.3731,
7.375433,-0.3961,-0.9025,-0.6049,3.4064,1.3654,0.6009,-1.6226,1.0152,0.3731,
7.376289,-0.3961,-0.9025,-0.6049,3.4064,1.3654,0.6009,-0.6522,0.7276,1.3414,
7.377208,-0.3961,-0.9025,-0.6049,-4.9369,-1.6320,0.6363,-0.6522,0.7276,1.3414,
7.412747,-0.3961,-0.9025,-0.6049,-4.9369,-1.6320,0.6363,-0.2804,0.7148,2.3481,
7.415293,-0.3961,-0.9025,-0.6049,-1.1233,2.4726,2.7613,-0.2804,0.7148,2.3481,
7.452641,-0.3961,-0.9025,-0.6049,-1.1233,2.4726,2.7613,0.4152,0.1555,2.8371,
7.455066,-0.3961,-0.9025,-0.6049,-0.1493,2.3922,2.5758,0.4152,0.1555,2.8371,
7.456593,-0.1919,-0.7046,-0.3552,-0.1493,2.3922,2.5758,0.4152,0.1555,2.8371,
7.457886,-0.1269,-0.6196,-0.1089,-0.1493,2.3922,2.5758,0.4152,0.1555,2.8371,
7.459010,-0.1851,-0.6440,-0.0630,-0.1493,2.3922,2.5758,0.4152,0.1555,2.8371,
7.460467,-0.2180,-0.7716,-0.1280,-0.1493,2.3922,2.5758,0.4152,0.1555,2.8371,
7.461710,-0.0680,-0.8813,-0.1165,-0.1493,2.3922,2.5758,0.4152,0.1555,2.8371,
7.491343,-0.0680,-0.8813,-0.1165,-0.1493,2.3922,2.5758,1.1364,-0.4783,2.6357,
7.494852,-0.0680,-0.8813,-0.1165,0.8339,2.3290,2.1034,1.1364,-0.4783,2.6357,
7.528445,0.0817,-0.8651,-0.0757,0.8339,2.3290,2.1034,1.1364,-0.4783,2.6357,
7.531181,0.0622,-0.7244,-0.1045,0.8339,2.3290,2.1034,1.1364,-0.4783,2.6357,
7.532438,-0.0475,-0.6142,-0.3342,0.8339,2.3290,2.1034,1.1364,-0.4783,2.6357,
7.533690,-0.0475,-0.6142,-0.3342,0.8339,2.3290,2.1034,1.9439,-0.6924,1.4565,
7.534956,-0.0475,-0.6142,-0.3342,2.3742,0.6283,1.9902,1.9439,-0.6924,1.4565,
7.571180,-0.0475,-0.6142,-0.3342,2.3742,0.6283,1.9902,1.9524,-0.4548,0.5968,
7.574270,-0.0475,-0.6142,-0.3342,3.6667,2.7673,-0.6295,1.9524,-0.4548,0.5968,
7.611736,-0.0475,-0.6142,-0.3342,3.6667,2.7673,-0.6295,0.8190,-0.6764,-0.1276,
7.614516,-0.0475,-0.6142,-0.3342,3.6153,2.8053,-0.9915,0.8190,-0.6764,-0.1276,
7.615900,0.1164,-0.5502,-0.4580,3.6153,2.8053,-0.9915,0.8190,-0.6764,-0.1276,
7.617032,0.1523,-0.7508,-0.4312,3.6153,2.8053,-0.9915,0.8190,-0.6764,-0.1276,
7.618152,0.0111,-1.4612,-0.6689,3.6153,2.8053,-0.9915,0.8190,-0.6764,-0.1276,
7.619841,-0.0886,-1.9738,-0.8511,3.6153,2.8053,-0.9915,0.8190,-0.6764,-0.1276,
7.621192,-0.3260,-1.6279,-0.8155,3.6153,2.8053,-0.9915,0.8190,-0.6764,-0.1276,
7.650502,-0.3260,-1.6279,-0.8155,3.6153,2.8053,-0.9915,0.3503,-1.0322,-0.5739,
7.652408,-0.3260,-1.6279,-0.8155,3.2448,-4.5251,-4.6108,0.3503,-1.0322,-0.5739,
7.690126,-0.3260,-1.6279,-0.8155,3.2448,-4.5251,-4.6108,0.1223,-0.5901,-0.3513,
7.692700,-0.3260,-1.6279,-0.8155,4.2218,-3.3879,-2.4327,0.1223,-0.5901,-0.3513,
7.694177,0.2046,-1.0972,-0.4246,4.2218,-3.3879,-2.4327,0.1223,-0.5901,-0.3513,
7.695324,0.5442,-1.1454,-0.0222,4.2218,-3.3879,-2.4327,0.1223,-0.5901,-0.3513,
7.696865,0.3878,-1.3943,-0.3823,4.2218,-3.3879,-2.4327,0.1223,-0.5901,-0.3513,
7.698066,-0.1526,-1.2895,-0.2665,4.2218,-3.3879,-2.4327,0.1223,-0.5901,-0.3513,
7.728732,-0.1526,-1.2895,-0.2665,4.2218,-3.3879,-2.4327,0.4568,-1.2645,-0.4344,
7.730342,-0.1526,-1.2895,-0.2665,4.0699,-3.2567,-2.6955,0.4568,-1.2645,-0.4344,
7.768929,-0.1526,-1.2895,-0.2665,4.0699,-3.2567,-2.6955,1.5551,-0.6306,-0.2426,
7.770853,-0.1526,-1.2895,-0.2665,3.7561,-2.0083,-0.4552,1.5551,-0.6306,-0.2426,
7.772403,0.1296,-0.8434,0.2685,3.7561,-2.0083,-0.4552,1.5551,-0.6306,-0.2426,
7.773575,0.1807,-0.9526,-0.0222,3.7561,-2.0083,-0.4552,1.5551,-0.6306,-0.2426,
7.774656,0.0600,-1.2597,-0.4676,3.7561,-2.0083,-0.4552,1.5551,-0.6306,-0.2426,
7.775962,0.2137,-1.3442,-0.7199,3.7561,-2.0083,-0.4552,1.5551,-0.6306,-0.2426,
7.808405,0.2137,-1.3442,-0.7199,3.7561,-2.0083,-0.4552,0.7891,-1.2815,0.2399,
7.811000,0.2137,-1.3442,-0.7199,4.0963,-2.0755,-3.5346,0.7891,-1.2815,0.2399,
7.848401,0.2137,-1.3442,-0.7199,4.0963,-2.0755,-3.5346,-1.2732,-2.8347,0.2293,
7.850946,0.2137,-1.3442,-0.7199,3.4723,-1.1532,-6.3082,-1.2732,-2.8347,0.2293,
7.852147,0.3172,-1.2296,-0.7361,3.4723,-1.1532,-6.3082,-1.2732,-2.8347,0.2293,
7.853487,0.1194,-1.0767,-0.6672,3.4723,-1.1532,-6.3082,-1.2732,-2.8347,0.2293,
7.854735,-0.1978,-0.9590,-0.7429,3.4723,-1.1532,-6.3082,-1.2732,-2.8347,0.2293,
7.855942,-0.3004,-0.7865,-0.7781,3.4723,-1.1532,-6.3082,-1.2732,-2.8347,0.2293,
7.887947,-0.3004,-0.7865,-0.7781,3.4723,-1.1532,-6.3082,-2.9766,-2.1209,0.3965,
7.890410,-0.3004,-0.7865,-0.7781,3.6482,-1.3084,-5.3389,-2.9766,-2.1209,0.3965,
7.929345,-0.3004,-0.7865,-0.7781,3.6482,-1.3084,-5.3389,-3.8362,-1.1782,0.3955,
7.931693,-0.3004,-0.7865,-0.7781,0.9373,1.4378,-3.0666,-3.8362,-1.1782,0.3955,
7.933177,-0.2855,-0.7232,-0.6777,0.9373,1.4378,-3.0666,-3.8362,-1.1782,0.3955,
7.934331,-0.0756,-0.7865,-0.3950,0.9373,1.4378,-3.0666,-3.8362,-1.1782,0.3955,
7.935278,0.2813,-0.7950,0.1952,0.9373,1.4378,-3.0666,-3.8362,-1.1782,0.3955,
7.936471,0.5032,-0.8180,0.8805,0.9373,1.4378,-3.0666,-3.8362,-1.1782,0.3955,
7.967078,0.5032,-0.8180,0.8805,0.9373,1.4378,-3.0666,-3.3164,-1.2911,-0.8722,
7.970314,0.5032,-0.8180,0.8805,0.8017,1.0673,-2.0374,-3.3164,-1.2911,-0.8722,
8.007028,0.4526,-1.1639,1.2643,0.8017,1.0673,-2.0374,-3.3164,-1.2911,-0.8722,
8.012726,0.0746,-1.8460,0.2636,0.8017,1.0673,-2.0374,-3.3164,-1.2911,-0.8722,
8.014065,0.0021,-2.1377,-1.1592,0.8017,1.0673,-2.0374,-3.3164,-1.2911,-0.8722,
8.015242,0.0021,-2.1377,-1.1592,0.8017,1.0673,-2.0374,-1.3659,-1.2229,-2.0621,
8.016993,0.0021,-2.1377,-1.1592,6.4022,-0.4987,11.7816,-1.3659,-1.2229,-2.0621,
8.047225,0.0021,-2.1377,-1.1592,6.4022,-0.4987,11.7816,-1.7995,0.1950,-2.2144,
8.049285,0.0021,-2.1377,-1.1592,0.5044,-9.0489,-1.9244,-1.7995,0.1950,-2.2144,
8.085275,0.0021,-2.1377,-1.1592,0.5044,-9.0489,-1.9244,-1.0516,0.0927,-2.4839,
8.087988,0.0021,-2.1377,-1.1592,-0.3473,-8.9916,-1.5382,-1.0516,0.0927,-2.4839,
8.088706,-0.4025,-1.4141,-1.1594,-0.3473,-8.9916,-1.5382,-1.0516,0.0927,-2.4839,
8.089438,-0.3011,-0.8959,0.1056,-0.3473,-8.9916,-1.5382,-1.0516,0.0927,-2.4839,
8.090007,0.1421,-0.9538,0.4149,-0.3473,-8.9916,-1.5382,-1.0516,0.0927,-2.4839,
8.090626,0.1731,-1.2702,-0.0324,-0.3473,-8.9916,-1.5382,-1.0516,0.0927,-2.4839,
8.091109,-0.1787,-1.2675,-0.3601,-0.3473,-8.9916,-1.5382,-1.0516,0.0927,-2.4839,
8.124842,-0.1787,-1.2675,-0.3601,-0.3473,-8.9916,-1.5382,0.0062,-1.3199,-1.7425,
8.126794,-0.1787,-1.2675,-0.3601,0.4300,-1.4881,6.6291,0.0062,-1.3199,-1.7425,
8.165085,-0.1787,-1.2675,-0.3601,0.4300,-1.4881,6.6291,0.0126,-1.2069,-0.4152,
8.167767,-0.1787,-1.2675,-0.3601,-2.4184,0.1484,2.6857,0.0126,-1.2069,-0.4152,
8.168980,-0.4142,-0.8969,-0.4272,-2.4184,0.1484,2.6857,0.0126,-1.2069,-0.4152,
8.170417,-0.3072,-0.4564,0.0892,-2.4184,0.1484,2.6857,0.0126,-1.2069,-0.4152,
8.171644,-0.3092,-0.2099,0.5368,-2.4184,0.1484,2.6857,0.0126,-1.2069,-0.4152,
8.172803,-0.4777,-0.1916,0.7356,-2.4184,0.1484,2.6857,0.0126,-1.2069,-0.4152,
8.204947,-0.4777,-0.1916,0.7356,-2.4184,0.1484,2.6857,1.7053,1.3678,0.1771,
8.207655,-0.4777,-0.1916,0.7356,-2.5634,0.4540,2.0740,1.7053,1.3678,0.1771,
8.245229,-0.6771,-0.2578,0.3338,-2.5634,0.4540,2.0740,1.7053,1.3678,0.1771,
8.248146,-0.5241,-0.4161,-0.0315,-2.5634,0.4540,2.0740,1.7053,1.3678,0.1771,
8.249602,0.4514,-0.8808,-0.2074,-2.5634,0.4540,2.0740,1.7053,1.3678,0.1771,
8.250686,0.4514,-0.8808,-0.2074,-2.5634,0.4540,2.0740,2.6906,1.5713,-0.3289,
8.251941,0.4514,-0.8808,-0.2074,-4.6893,7.1558,8.4856,2.6906,1.5713,-0.3289,
8.283688,0.4514,-0.8808,-0.2074,-4.6893,7.1558,8.4856,1.4113,3.3109,-1.3590,
8.285524,0.4514,-0.8808,-0.2074,2.5330,-0.0848,-1.3370,1.4113,3.3109,-1.3590,
8.324177,0.4514,-0.8808,-0.2074,2.5330,-0.0848,-1.3370,-1.5342,-0.4857,0.2890,
8.327146,0.4514,-0.8808,-0.2074,2.6575,-0.2528,-0.7403,-1.5342,-0.4857,0.2890,
8.328483,1.1046,-1.6242,-0.9940,2.6575,-0.2528,-0.7403,-1.5342,-0.4857,0.2890,
8.330000,0.0062,-1.9093,-1.3979,2.6575,-0.2528,-0.7403,-1.5342,-0.4857,0.2890,
8.331303,-0.9539,-1.7517,-1.5059,2.6575,-0.2528,-0.7403,-1.5342,-0.4857,0.2890,
8.332633,-1.2974,-1.2910,-0.1272,2.6575,-0.2528,-0.7403,-1.5342,-0.4857,0.2890,
8.333916,-1.1249,-0.7269,1.2204,2.6575,-0.2528,-0.7403,-1.5342,-0.4857,0.2890,
8.362706,-1.1249,-0.7269,1.2204,2.6575,-0.2528,-0.7403,-1.8346,0.2706,1.2317,
8.364391,-1.1249,-0.7269,1.2204,-7.5129,-7.0070,-5.8528,-1.8346,0.2706,1.2317,
8.402714,-1.1249,-0.7269,1.2204,-7.5129,-7.0070,-5.8528,0.6230,5.0898,0.3198,
8.404929,-1.1249,-0.7269,1.2204,-4.1124,4.2237,9.6046,0.6230,5.0898,0.3198,
8.406525,-0.3671,-0.2834,0.6961,-4.1124,4.2237,9.6046,0.6230,5.0898,0.3198,
8.407650,0.4751,-0.5121,-0.0659,-4.1124,4.2237,9.6046,0.6230,5.0898,0.3198,
8.408800,0.3798,-1.4278,-0.7749,-4.1124,4.2237,9.6046,0.6230,5.0898,0.3198,
8.410154,0.2090,-2.1521,-0.7287,-4.1124,4.2237,9.6046,0.6230,5.0898,0.3198,
8.442868,0.2090,-2.1521,-0.7287,-4.1124,4.2237,9.6046,0.0839,4.2280,-0.3353,
8.445509,0.2090,-2.1521,-0.7287,-4.7318,4.1487,9.2295,0.0839,4.2280,-0.3353,
8.482451,0.2090,-2.1521,-0.7287,-4.7318,4.1487,9.2295,-0.1749,1.2432,0.1313,
8.485174,0.2090,-2.1521,-0.7287,1.5313,-8.0807,-3.8805,-0.1749,1.2432,0.1313,
8.486877,0.3527,-1.7239,-0.6762,1.5313,-8.0807,-3.8805,-0.1749,1.2432,0.1313,
8.489082,0.4963,-0.7618,-0.5477,1.5313,-8.0807,-3.8805,-0.1749,1.2432,0.1313,
8.490467,0.5506,-0.4586,-0.4084,1.5313,-8.0807,-3.8805,-0.1749,1.2432,0.1313,
8.491726,0.3769,-0.7733,-0.4456,1.5313,-8.0807,-3.8805,-0.1749,1.2432,0.1313,
8.521765,0.3769,-0.7733,-0.4456,1.5313,-8.0807,-3.8805,0.2182,0.1683,0.4509,
8.524027,0.3769,-0.7733,-0.4456,3.1965,2.7400,-1.4056,0.2182,0.1683,0.4509,
8.544933,0.1765,-1.0320,-0.5357,3.1965,2.7400,-1.4056,0.2182,0.1683,0.4509,
8.547108,0.0461,-1.2355,-0.4082,3.1965,2.7400,-1.4056,0.2182,0.1683,0.4509,
8.548182,-0.0812,-1.2594,-0.2601,3.1965,2.7400,-1.4056,0.2182,0.1683,0.4509,
8.561340,-0.0812,-1.2594,-0.2601,3.1965,2.7400,-1.4056,0.0083,-0.1395,0.4157,
8.563688,-0.0812,-1.2594,-0.2601,-0.8086,-2.2076,-0.7430,0.0083,-0.1395,0.4157,
8.600455,-0.0812,-1.2594,-0.2601,-0.8086,-2.2076,-0.7430,0.1170,0.0096,0.3284,
8.602827,-0.0812,-1.2594,-0.2601,-1.8525,-0.0072,0.2679,0.1170,0.0096,0.3284,
8.632943,-0.1418,-1.0051,-0.3154,-1.8525,-0.0072,0.2679,0.1170,0.0096,0.3284,
8.635375,-0.0641,-0.8976,-0.2518,-1.8525,-0.0072,0.2679,0.1170,0.0096,0.3284,
8.637004,-0.0187,-0.9599,-0.3127,-1.8525,-0.0072,0.2679,0.1170,0.0096,0.3284,
8.638396,0.0881,-0.9536,-0.3857,-1.8525,-0.0072,0.2679,0.1170,0.0096,0.3284,
8.639924,0.0881,-0.9536,-0.3857,-1.7433,0.0346,0.1648,0.1170,0.0096,0.3284,
8.641261,0.0881,-0.9536,-0.3857,-1.7433,0.0346,0.1648,0.2352,0.3057,0.3156,
8.680564,0.0881,-0.9536,-0.3857,-1.7433,0.0346,0.1648,0.1745,-0.0415,0.3241,
8.682825,0.0881,-0.9536,-0.3857,0.8640,0.4392,-0.9732,0.1745,-0.0415,0.3241,
8.719884,0.0881,-0.9536,-0.3857,0.8640,0.4392,-0.9732,0.1138,-0.7435,0.3539,
8.721684,0.0881,-0.9536,-0.3857,1.0658,0.4560,-0.9762,0.1138,-0.7435,0.3539,
8.723359,0.2122,-0.9096,-0.4016,1.0658,0.4560,-0.9762,0.1138,-0.7435,0.3539,
8.724572,0.2393,-0.8835,-0.4265,1.0658,0.4560,-0.9762,0.1138,-0.7435,0.3539,
8.725702,0.2332,-0.9106,-0.4055,1.0658,0.4560,-0.9762,0.1138,-0.7435,0.3539,
8.727030,0.1716,-0.9428,-0.3557,1.0658,0.4560,-0.9762,0.1138,-0.7435,0.3539,
8.728312,0.0248,-0.9223,-0.3386,1.0658,0.4560,-0.9762,0.1138,-0.7435,0.3539,
8.759083,0.0248,-0.9223,-0.3386,1.0658,0.4560,-0.9762,0.1052,-0.7840,0.2208,
8.761424,0.0248,-0.9223,-0.3386,0.8672,0.3725,-0.6136,0.1052,-0.7840,0.2208,
8.799372,-0.1101,-0.8703,-0.3114,0.8672,0.3725,-0.6136,0.1052,-0.7840,0.2208,
8.801664,-0.1416,-0.8231,-0.3107,0.8672,0.3725,-0.6136,0.1052,-0.7840,0.2208,
8.803031,-0.1232,-0.8419,-0.3650,0.8672,0.3725,-0.6136,0.1052,-0.7840,0.2208,
8.804030,-0.1232,-0.8419,-0.3650,0.8672,0.3725,-0.6136,0.0903,-0.2567,0.2740,
8.805002,-0.1232,-0.8419,-0.3650,-1.6009,1.1539,-0.2700,0.0903,-0.2567,0.2740,
8.839323,-0.1232,-0.8419,-0.3650,-1.6009,1.1539,-0.2700,-0.0023,0.2344,0.4093,
8.841536,-0.1232,-0.8419,-0.3650,0.3497,0.6944,0.6014,-0.0023,0.2344,0.4093,
8.878540,-0.1232,-0.8419,-0.3650,0.3497,0.6944,0.6014,-0.0652,0.4314,0.2431,
8.881058,-0.1232,-0.8419,-0.3650,0.3836,0.6775,0.6115,-0.0652,0.4314,0.2431,
8.882382,-0.0084,-0.8888,-0.3051,0.3836,0.6775,0.6115,-0.0652,0.4314,0.2431,
8.883434,0.1023,-0.8876,-0.1998,0.3836,0.6775,0.6115,-0.0652,0.4314,0.2431,
8.884999,0.0917,-0.8974,-0.2118,0.3836,0.6775,0.6115,-0.0652,0.4314,0.2431,
8.886309,0.0199,-0.9387,-0.1602,0.3836,0.6775,0.6115,-0.0652,0.4314,0.2431,
8.887599,-0.0297,-0.9966,-0.0417,0.3836,0.6775,0.6115,-0.0652,0.4314,0.2431,
8.917896,-0.0297,-0.9966,-0.0417,0.3836,0.6775,0.6115,0.1756,0.7926,0.0130,
8.920182,-0.0297,-0.9966,-0.0417,0.2918,0.6862,0.5289,0.1756,0.7926,0.0130,
8.957472,-0.0297,-0.9966,-0.0417,0.2918,0.6862,0.5289,0.6304,1.0429,-0.0051,
8.959700,-0.0297,-0.9966,-0.0417,-0.9727,-0.3071,1.9347,0.6304,1.0429,-0.0051,
8.960919,-0.1614,-1.0652,0.0027,-0.9727,-0.3071,1.9347,0.6304,1.0429,-0.0051,
8.962177,-0.3717,-1.1847,-0.1512,-0.9727,-0.3071,1.9347,0.6304,1.0429,-0.0051,
8.963373,-0.5102,-1.2746,-0.3503,-0.9727,-0.3071,1.9347,0.6304,1.0429,-0.0051,
8.965134,-0.4030,-1.1703,-0.3899,-0.9727,-0.3071,1.9347,0.6304,1.0429,-0.0051,
8.998092,-0.4030,-1.1703,-0.3899,-0.9727,-0.3071,1.9347,0.2544,1.1079,0.6927,
9.000509,-0.4030,-1.1703,-0.3899,-4.3860,-2.2883,-0.4305,0.2544,1.1079,0.6927,
9.037648,-0.4030,-1.1703,-0.3899,-4.3860,-2.2883,-0.4305,0.1138,1.4317,0.9729,
9.039834,-0.4030,-1.1703,-0.3899,-2.0665,0.7936,-0.6866,0.1138,1.4317,0.9729,
9.041157,-0.2271,-1.0427,-0.3635,-2.0665,0.7936,-0.6866,0.1138,1.4317,0.9729,
9.042255,-0.1631,-0.9186,-0.3537,-2.0665,0.7936,-0.6866,0.1138,1.4317,0.9729,
9.043706,-0.2659,-0.7249,-0.2416,-2.0665,0.7936,-0.6866,0.1138,1.4317,0.9729,
9.044823,-0.4184,-0.4730,-0.0561,-2.0665,0.7936,-0.6866,0.1138,1.4317,0.9729,
9.076402,-0.4184,-0.4730,-0.0561,-2.0665,0.7936,-0.6866,0.4504,2.4331,0.9068,
9.078815,-0.4184,-0.4730,-0.0561,-1.9182,0.8168,-0.8294,0.4504,2.4331,0.9068,
9.115885,-0.4184,-0.4730,-0.0561,-1.9182,0.8168,-0.8294,1.2525,3.1788,0.5499,
9.118285,-0.4184,-0.4730,-0.0561,-3.2599,6.8910,2.4074,1.2525,3.1788,0.5499,
9.119695,-0.3817,-0.2224,0.0785,-3.2599,6.8910,2.4074,1.2525,3.1788,0.5499,
9.120826,-0.2671,-0.1259,0.1608,-3.2599,6.8910,2.4074,1.2525,3.1788,0.5499,
9.122072,-0.0023,-0.3384,0.1298,-3.2599,6.8910,2.4074,1.2525,3.1788,0.5499,
9.123308,0.4086,-0.8441,0.0189,-3.2599,6.8910,2.4074,1.2525,3.1788,0.5499,
9.156149,0.4086,-0.8441,0.0189,-3.2599,6.8910,2.4074,1.7180,4.3111,-0.2991,
9.158376,0.4086,-0.8441,0.0189,-3.5687,6.8758,1.7325,1.7180,4.3111,-0.2991,
9.196451,0.4086,-0.8441,0.0189,-3.5687,6.8758,1.7325,-0.0684,3.6816,-0.3651,
9.198789,0.4086,-0.8441,0.0189,3.9629,0.1041,-0.4285,-0.0684,3.6816,-0.3651,
9.200302,0.9432,-1.7092,-0.6271,3.9629,0.1041,-0.4285,-0.0684,3.6816,-0.3651,
9.201661,0.3417,-2.9860,-0.9557,3.9629,0.1041,-0.4285,-0.0684,3.6816,-0.3651,
9.204493,-0.3434,-1.7053,-0.6271,3.9629,0.1041,-0.4285,-0.0684,3.6816,-0.3651,
9.206215,-0.3077,-0.1945,-0.2470,3.9629,0.1041,-0.4285,-0.0684,3.6816,-0.3651,
9.234574,-0.3077,-0.1945,-0.2470,3.9629,0.1041,-0.4285,-0.4498,1.4871,0.4136,
9.236928,-0.3077,-0.1945,-0.2470,-1.3459,-6.3172,-4.6205,-0.4498,1.4871,0.4136,
9.274808,-0.3077,-0.1945,-0.2470,-1.3459,-6.3172,-4.6205,0.8914,3.9404,1.0666,
9.276542,-0.3077,-0.1945,-0.2470,-0.8817,2.5756,4.7916,0.8914,3.9404,1.0666,
9.277235,-0.1298,-0.2312,0.5395,-0.8817,2.5756,4.7916,0.8914,3.9404,1.0666,
9.277839,-0.0644,-0.7173,0.4298,-0.8817,2.5756,4.7916,0.8914,3.9404,1.0666,
9.278423,-0.0458,-1.2172,0.2226,-0.8817,2.5756,4.7916,0.8914,3.9404,1.0666,
9.279497,0.2874,-1.6652,0.3284,-0.8817,2.5756,4.7916,0.8914,3.9404,1.0666,
9.314403,0.2874,-1.6652,0.3284,-0.8817,2.5756,4.7916,1.8129,2.8176,0.6852,
9.317528,0.2874,-1.6652,0.3284,-0.6747,2.5716,4.0278,1.8129,2.8176,0.6852,
9.354281,0.2874,-1.6652,0.3284,-0.6747,2.5716,4.0278,1.4816,1.8376,-0.2778,
9.357039,0.2874,-1.6652,0.3284,5.9489,-5.4318,-2.5331,1.4816,1.8376,-0.2778,
9.358392,0.7883,-1.6814,-0.2631,5.9489,-5.4318,-2.5331,1.4816,1.8376,-0.2778,
9.359567,0.7724,-1.2949,-0.7238,5.9489,-5.4318,-2.5331,1.4816,1.8376,-0.2778,
9.360568,0.3739,-0.9787,-0.4856,5.9489,-5.4318,-2.5331,1.4816,1.8376,-0.2778,
9.361660,0.0751,-0.9059,-0.1988,5.9489,-5.4318,-2.5331,1.4816,1.8376,-0.2778,
9.393645,0.0751,-0.9059,-0.1988,5.9489,-5.4318,-2.5331,0.9756,0.5518,-0.2586,
9.397299,0.0751,-0.9059,-0.1988,5.7629,-5.3643,-2.8630,0.9756,0.5518,-0.2586,
9.434010,-0.0805,-0.9597,-0.2355,5.7629,-5.3643,-2.8630,0.9756,0.5518,-0.2586,
9.436860,-0.0512,-1.0887,-0.4683,5.7629,-5.3643,-2.8630,0.9756,0.5518,-0.2586,
9.438163,-0.0294,-1.1549,-0.7590,5.7629,-5.3643,-2.8630,0.9756,0.5518,-0.2586,
9.439718,-0.0294,-1.1549,-0.7590,5.7629,-5.3643,-2.8630,1.2568,0.2067,0.4147,
9.440994,-0.0294,-1.1549,-0.7590,1.0793,0.4540,-4.1359,1.2568,0.2067,0.4147,
9.473810,-0.0294,-1.1549,-0.7590,1.0793,0.4540,-4.1359,0.2597,0.8245,0.9483,
9.476162,-0.0294,-1.1549,-0.7590,0.3139,-1.0249,-7.8270,0.2597,0.8245,0.9483,
9.512618,-0.0294,-1.1549,-0.7590,0.3139,-1.0249,-7.8270,-1.7217,-0.1907,1.0677,
9.514941,-0.0294,-1.1549,-0.7590,0.7107,-0.9766,-7.0464,-1.7217,-0.1907,1.0677,
9.516473,0.0922,-1.0542,-0.8333,0.7107,-0.9766,-7.0464,-1.7217,-0.1907,1.0677,
9.517753,0.2872,-0.9164,-0.5799,0.7107,-0.9766,-7.0464,-1.7217,-0.1907,1.0677,
9.519035,0.2100,-0.9133,-0.4935,0.7107,-0.9766,-7.0464,-1.7217,-0.1907,1.0677,
9.520582,-0.0925,-1.0794,-0.4917,0.7107,-0.9766,-7.0464,-1.7217,-0.1907,1.0677,
9.521851,-0.0627,-1.0589,-0.3669,0.7107,-0.9766,-7.0464,-1.7217,-0.1907,1.0677,
9.552757,-0.0627,-1.0589,-0.3669,0.7107,-0.9766,-7.0464,-3.9257,-1.6586,1.1486,
9.555238,-0.0627,-1.0589,-0.3669,2.4281,0.1839,-3.9050,-3.9257,-1.6586,1.1486,
9.591273,-0.0627,-1.0589,-0.3669,2.4281,0.1839,-3.9050,-4.3113,-0.7521,0.6021,
9.593446,-0.0627,-1.0589,-0.3669,1.0613,-2.2082,1.8531,-4.3113,-0.7521,0.6021,
9.594745,0.0175,-1.0970,-0.0474,1.0613,-2.2082,1.8531,-4.3113,-0.7521,0.6021,
9.595966,-0.0495,-1.3831,0.1349,1.0613,-2.2082,1.8531,-4.3113,-0.7521,0.6021,
9.597105,0.2488,-1.8248,0.5004,1.0613,-2.2082,1.8531,-4.3113,-0.7521,0.6021,
9.598328,0.8205,-1.8986,0.6988,1.0613,-2.2082,1.8531,-4.3113,-0.7521,0.6021,
9.630776,0.8205,-1.8986,0.6988,1.0613,-2.2082,1.8531,-2.4013,-0.5028,-0.6005,
9.632810,0.8205,-1.8986,0.6988,0.8924,-2.4397,2.6586,-2.4013,-0.5028,-0.6005,
9.671495,0.8205,-1.8986,0.6988,0.8924,-2.4397,2.6586,-0.7960,-1.5105,-1.8000,
9.674150,0.8205,-1.8986,0.6988,6.7819,-8.1387,9.7236,-0.7960,-1.5105,-1.8000,
9.675497,0.8037,-1.5883,0.6650,6.7819,-8.1387,9.7236,-0.7960,-1.5105,-1.8000,
9.676856,0.5801,-1.3049,0.5575,6.7819,-8.1387,9.7236,-0.7960,-1.5105,-1.8000,
9.678399,0.3116,-1.0806,0.1227,6.7819,-8.1387,9.7236,-0.7960,-1.5105,-1.8000,
9.679708,0.0505,-0.9714,0.0467,6.7819,-8.1387,9.7236,-0.7960,-1.5105,-1.8000,
9.710708,0.0505,-0.9714,0.0467,6.7819,-8.1387,9.7236,0.2991,-2.3372,-1.3707,
9.713352,0.0505,-0.9714,0.0467,3.5118,-1.6528,5.7501,0.2991,-2.3372,-1.3707,
9.749993,0.0505,-0.9714,0.0467,3.5118,-1.6528,5.7501,0.6677,-3.3982,-0.5025,
9.751865,0.0505,-0.9714,0.0467,-2.2271,1.4288,7.2249,0.6677,-3.3982,-0.5025,
9.752868,-0.1787,-0.8720,0.3885,-2.2271,1.4288,7.2249,0.6677,-3.3982,-0.5025,
9.753556,-0.3419,-0.7972,0.5177,-2.2271,1.4288,7.2249,0.6677,-3.3982,-0.5025,
9.754223,-0.3815,-0.7660,0.4073,-2.2271,1.4288,7.2249,0.6677,-3.3982,-0.5025,
9.754952,-0.3182,-0.6963,0.2404,-2.2271,1.4288,7.2249,0.6677,-3.3982,-0.5025,
9.789791,-0.3182,-0.6963,0.2404,-1.6949,1.4018,6.9466,0.6677,-3.3982,-0.5025,
9.792031,-0.3182,-0.6963,0.2404,-1.6949,1.4018,6.9466,0.0136,-4.1044,0.1111,
9.829542,-0.3182,-0.6963,0.2404,-0.0540,2.6181,5.3805,0.0136,-4.1044,0.1111,
9.831839,-0.3182,-0.6963,0.2404,-0.0540,2.6181,5.3805,-0.0151,-4.4198,0.2421,
9.833317,-0.2168,-0.6582,0.2888,-0.0540,2.6181,5.3805,-0.0151,-4.4198,0.2421,
9.834479,-0.0282,-0.6897,0.4124,-0.0540,2.6181,5.3805,-0.0151,-4.4198,0.2421,
9.836021,0.0957,-0.8962,0.3990,-0.0540,2.6181,5.3805,-0.0151,-4.4198,0.2421,
9.837154,0.3898,-0.9985,0.3196,-0.0540,2.6181,5.3805,-0.0151,-4.4198,0.2421,
9.868790,0.3898,-0.9985,0.3196,-0.0540,2.6181,5.3805,0.5793,-3.6304,-0.5984,
9.870890,0.3898,-0.9985,0.3196,0.0242,2.6640,4.8169,0.5793,-3.6304,-0.5984,
9.909130,0.3898,-0.9985,0.3196,0.0242,2.6640,4.8169,0.9521,-3.0349,-1.5103,
9.911647,0.3898,-0.9985,0.3196,4.1258,-0.0776,3.9808,0.9521,-3.0349,-1.5103,
9.913272,0.3468,-1.0369,0.1598,4.1258,-0.0776,3.9808,0.9521,-3.0349,-1.5103,
9.914425,-0.5642,-1.1109,-0.0210,4.1258,-0.0776,3.9808,0.9521,-3.0349,-1.5103,
9.915666,-0.9468,-0.9365,-0.3901,4.1258,-0.0776,3.9808,0.9521,-3.0349,-1.5103,
9.917008,-0.7755,-1.0950,-0.4764,4.1258,-0.0776,3.9808,0.9521,-3.0349,-1.5103,
9.947756,-0.7755,-1.0950,-0.4764,4.1258,-0.0776,3.9808,-0.0940,-2.5811,-0.1627,
9.949679,-0.7755,-1.0950,-0.4764,-5.9184,-0.7483,-1.8626,-0.0940,-2.5811,-0.1627,
9.987471,-0.7755,-1.0950,-0.4764,-5.9184,-0.7483,-1.8626,-0.1962,-2.2456,0.1526,
9.991309,-0.7755,-1.0950,-0.4764,-0.1700,-3.0667,0.6496,-0.1962,-2.2456,0.1526,
9.992019,-0.5434,-1.3865,-0.0498,-0.1700,-3.0667,0.6496,-0.1962,-2.2456,0.1526,
9.992841,-0.1120,-1.3086,0.0247,-0.1700,-3.0667,0.6496,-0.1962,-2.2456,0.1526,
9.993579,0.0830,-1.1676,-0.0686,-0.1700,-3.0667,0.6496,-0.1962,-2.2456,0.1526,
9.994181,-0.1379,-1.1080,-0.0146,-0.1700,-3.0667,0.6496,-0.1962,-2.2456,0.1526,
10.026750,-0.1379,-1.1080,-0.0146,-0.1700,-3.0667,0.6496,0.0435,-1.2708,-0.3896,
10.028187,-0.1379,-1.1080,-0.0146,-0.2671,-2.9889,0.5396,0.0435,-1.2708,-0.3896,
10.068068,-0.1379,-1.1080,-0.0146,-0.2671,-2.9889,0.5396,-0.1302,-0.4154,-0.0466,
10.070384,-0.1379,-1.1080,-0.0146,-1.3871,-0.4269,0.8629,-0.1302,-0.4154,-0.0466,
10.071247,-0.3458,-1.0200,0.0176,-1.3871,-0.4269,0.8629,-0.1302,-0.4154,-0.0466,
10.072216,-0.4377,-0.9521,-0.0004,-1.3871,-0.4269,0.8629,-0.1302,-0.4154,-0.0466,
10.073176,-0.4064,-0.8991,-0.0017,-1.3871,-0.4269,0.8629,-0.1302,-0.4154,-0.0466,
10.073919,-0.2244,-0.7552,0.0320,-1.3871,-0.4269,0.8629,-0.1302,-0.4154,-0.0466,
10.106841,-0.2244,-0.7552,0.0320,-1.3871,-0.4269,0.8629,-0.5254,0.0501,0.8152,
10.109600,-0.2244,-0.7552,0.0320,-1.0612,-0.4959,1.0490,-0.5254,0.0501,0.8152,
10.146823,-0.2244,-0.7552,0.0320,-1.0612,-0.4959,1.0490,-0.8855,0.9481,0.9356,
10.149847,-0.2244,-0.7552,0.0320,0.2517,1.9385,1.8792,-0.8855,0.9481,0.9356,
10.151249,0.0192,-0.6333,0.1095,0.2517,1.9385,1.8792,-0.8855,0.9481,0.9356,
10.152215,0.2782,-0.6839,0.2678,0.2517,1.9385,1.8792,-0.8855,0.9481,0.9356,
10.153998,0.1580,-0.8346,0.4036,0.2517,1.9385,1.8792,-0.8855,0.9481,0.9356,
10.155128,-0.5647,-1.0655,0.2988,0.2517,1.9385,1.8792,-0.8855,0.9481,0.9356,
10.186851,-0.5647,-1.0655,0.2988,0.2517,1.9385,1.8792,-0.6458,3.7295,0.2538,
10.189290,-0.5647,-1.0655,0.2988,1.6405,0.8898,5.0712,-0.6458,3.7295,0.2538,
10.226167,-0.5647,-1.0655,0.2988,1.6405,0.8898,5.0712,-2.0178,4.4358,1.4682,
10.229839,-0.5647,-1.0655,0.2988,-12.6731,-6.4943,0.8685,-2.0178,4.4358,1.4682,
10.231765,-1.8002,-1.6318,-0.4180,-12.6731,-6.4943,0.8685,-2.0178,4.4358,1.4682,
10.233569,-2.2744,-1.8763,-0.5406,-12.6731,-6.4943,0.8685,-2.0178,4.4358,1.4682,
10.235133,-0.5347,-1.2719,0.3088,-12.6731,-6.4943,0.8685,-2.0178,4.4358,1.4682,
10.236923,0.6925,-0.7906,0.0149,-12.6731,-6.4943,0.8685,-2.0178,4.4358,1.4682,
10.265382,0.6925,-0.7906,0.0149,-12.3894,-6.7050,1.6446,-2.0178,4.4358,1.4682,
10.267844,0.6925,-0.7906,0.0149,-12.3894,-6.7050,1.6446,-1.2444,3.7753,1.6461,
10.304713,0.6925,-0.7906,0.0149,-12.3894,-6.7050,1.6446,0.1329,2.2179,0.6639,
10.307565,0.6925,-0.7906,0.0149,9.5680,3.6228,-0.0290,0.1329,2.2179,0.6639,
10.308859,0.9671,-0.4752,-0.5963,9.5680,3.6228,-0.0290,0.1329,2.2179,0.6639,
10.310254,0.5361,-0.3191,-0.6374,9.5680,3.6228,-0.0290,0.1329,2.2179,0.6639,
10.311511,-0.0871,-0.3626,-0.1912,9.5680,3.6228,-0.0290,0.1329,2.2179,0.6639,
10.312719,-0.5078,-0.4144,0.0675,9.5680,3.6228,-0.0290,0.1329,2.2179,0.6639,
10.344551,-0.5078,-0.4144,0.0675,9.5680,3.6228,-0.0290,1.1993,1.1015,0.5212,
10.347351,-0.5078,-0.4144,0.0675,9.4225,3.6920,-0.3402,1.1993,1.1015,0.5212,
10.385067,-0.5078,-0.4144,0.0675,9.4225,3.6920,-0.3402,2.7141,2.8986,0.1920,
10.387676,-0.5078,-0.4144,0.0675,-2.2720,5.1508,2.7280,2.7141,2.8986,0.1920,
10.388958,-0.7069,-0.4376,0.0821,-2.2720,5.1508,2.7280,2.7141,2.8986,0.1920,
10.390447,-0.4824,-0.5893,0.1928,-2.2720,5.1508,2.7280,2.7141,2.8986,0.1920,
10.391582,-0.1614,-0.7540,0.2710,-2.2720,5.1508,2.7280,2.7141,2.8986,0.1920,
10.393171,-0.0798,-0.9045,0.0132,-2.2720,5.1508,2.7280,2.7141,2.8986,0.1920,
10.424511,-0.0798,-0.9045,0.0132,-2.2720,5.1508,2.7280,4.3493,4.0043,-0.2575,
10.428111,-0.0798,-0.9045,0.0132,-0.8175,2.1380,3.0402,4.3493,4.0043,-0.2575,
10.463650,-0.0798,-0.9045,0.0132,-0.8175,2.1380,3.0402,3.8560,3.0882,-0.1414,
10.465798,-0.0798,-0.9045,0.0132,1.2580,-2.7552,-4.2001,3.8560,3.0882,-0.1414,
10.467229,-0.1267,-1.1068,-0.3305,1.2580,-2.7552,-4.2001,3.8560,3.0882,-0.1414,
10.469718,-0.0570,-1.2963,-0.4634,1.2580,-2.7552,-4.2001,3.8560,3.0882,-0.1414,
10.470979,0.1509,-1.3989,-0.5743,1.2580,-2.7552,-4.2001,3.8560,3.0882,-0.1414,
10.472184,-0.0497,-1.6156,-0.8543,1.2580,-2.7552,-4.2001,3.8560,3.0882,-0.1414,
10.502336,-0.0497,-1.6156,-0.8543,1.2580,-2.7552,-4.2001,1.5828,1.1537,0.1888,
10.504686,-0.0497,-1.6156,-0.8543,1.3077,-2.7197,-4.6644,1.5828,1.1537,0.1888,
10.542652,-0.0497,-1.6156,-0.8543,1.3077,-2.7197,-4.6644,0.3992,-0.4740,0.5286,
10.544723,-0.0497,-1.6156,-0.8543,0.5008,-6.6234,-7.6755,0.3992,-0.4740,0.5286,
10.546232,-0.1902,-1.8231,-0.7470,0.5008,-6.6234,-7.6755,0.3992,-0.4740,0.5286,
10.547552,-0.0973,-1.5817,-0.6725,0.5008,-6.6234,-7.6755,0.3992,-0.4740,0.5286,
10.548789,-0.1438,-1.1153,-0.5787,0.5008,-6.6234,-7.6755,0.3992,-0.4740,0.5286,
10.550084,0.0996,-0.9169,-0.3415,0.5008,-6.6234,-7.6755,0.3992,-0.4740,0.5286,
10.581866,0.0996,-0.9169,-0.3415,0.5008,-6.6234,-7.6755,0.1958,-0.1491,0.9526,
10.583751,0.0996,-0.9169,-0.3415,0.8526,-6.5816,-7.6319,0.1958,-0.1491,0.9526,
10.621512,0.0996,-0.9169,-0.3415,0.8526,-6.5816,-7.6319,0.5079,-0.3792,0.3593,
10.623886,0.0996,-0.9169,-0.3415,3.4217,-0.7416,-4.0671,0.5079,-0.3792,0.3593,
10.625172,0.4699,-1.1935,-0.2137,3.4217,-0.7416,-4.0671,0.5079,-0.3792,0.3593,
10.626351,0.6739,-1.5477,-0.4834,3.4217,-0.7416,-4.0671,0.5079,-0.3792,0.3593,
10.627586,0.4409,-1.3591,-0.3535,3.4217,-0.7416,-4.0671,0.5079,-0.3792,0.3593,
10.628808,0.2320,-0.9841,0.0623,3.4217,-0.7416,-4.0671,0.5079,-0.3792,0.3593,
10.661006,0.2320,-0.9841,0.0623,3.4217,-0.7416,-4.0671,1.2291,-1.2325,-0.1276,
10.662872,0.2320,-0.9841,0.0623,6.2432,-2.8874,-3.4100,1.2291,-1.2325,-0.1276,
10.701212,0.2320,-0.9841,0.0623,6.2432,-2.8874,-3.4100,1.3122,-0.0575,0.1984,
10.703550,0.2320,-0.9841,0.0623,2.4999,-0.5046,-7.8822,1.3122,-0.0575,0.1984,
10.704852,0.1660,-0.9677,-0.1778,2.4999,-0.5046,-7.8822,1.3122,-0.0575,0.1984,
10.706054,-0.0116,-1.1331,-0.7453,2.4999,-0.5046,-7.8822,1.3122,-0.0575,0.1984,
10.707711,0.0360,-1.0406,-1.1042,2.4999,-0.5046,-7.8822,1.3122,-0.0575,0.1984,
10.708922,0.2574,-0.8571,-0.9999,2.4999,-0.5046,-7.8822,1.3122,-0.0575,0.1984,
10.740630,0.2574,-0.8571,-0.9999,2.4999,-0.5046,-7.8822,-1.4170,-1.3081,0.6682,
10.742646,0.2574,-0.8571,-0.9999,2.6571,-0.4901,-7.3132,-1.4170,-1.3081,0.6682,
10.780326,0.2574,-0.8571,-0.9999,2.6571,-0.4901,-7.3132,-4.0056,-2.4725,0.2868,
10.782711,0.2574,-0.8571,-0.9999,4.6418,-0.6881,-5.5727,-4.0056,-2.4725,0.2868,
10.784056,0.2975,-1.0489,-0.4873,4.6418,-0.6881,-5.5727,-4.0056,-2.4725,0.2868,
10.785327,0.2344,-1.2934,-0.4483,4.6418,-0.6881,-5.5727,-4.0056,-2.4725,0.2868,
10.786743,0.1382,-1.1918,-0.4145,4.6418,-0.6881,-5.5727,-4.0056,-2.4725,0.2868,
10.788207,0.0221,-1.1273,0.1070,4.6418,-0.6881,-5.5727,-4.0056,-2.4725,0.2868,
10.819871,0.0221,-1.1273,0.1070,4.6418,-0.6881,-5.5727,-5.1263,-3.5345,-0.1286,
10.823015,0.0221,-1.1273,0.1070,4.7368,-0.9830,-3.8503,-5.1263,-3.5345,-0.1286,
10.859692,0.0221,-1.1273,0.1070,4.7368,-0.9830,-3.8503,-3.6200,-2.0602,-0.1233,
10.861943,0.0221,-1.1273,0.1070,2.1827,-3.0145,4.3109,-3.6200,-2.0602,-0.1233,
10.863409,-0.2031,-1.3875,0.5422,2.1827,-3.0145,4.3109,-3.6200,-2.0602,-0.1233,
10.864656,-0.5237,-1.7102,0.5370,2.1827,-3.0145,4.3109,-3.6200,-2.0602,-0.1233,
10.866079,-0.1560,-1.5314,0.2531,2.1827,-3.0145,4.3109,-3.6200,-2.0602,-0.1233,
10.867408,0.2439,-1.2946,0.3856,2.1827,-3.0145,4.3109,-3.6200,-2.0602,-0.1233,
10.899699,0.2439,-1.2946,0.3856,2.1827,-3.0145,4.3109,-2.2149,-0.9502,-0.8338,
10.902103,0.2439,-1.2946,0.3856,0.7374,-5.8916,7.9503,-2.2149,-0.9502,-0.8338,
10.939879,0.2439,-1.2946,0.3856,0.7374,-5.8916,7.9503,-1.3670,-2.0868,-1.2780,
10.942573,0.2439,-1.2946,0.3856,5.9384,-4.2652,4.4645,-1.3670,-2.0868,-1.2780,
10.943886,0.3490,-1.3985,0.2837,5.9384,-4.2652,4.4645,-1.3670,-2.0868,-1.2780,
10.945144,0.4802,-1.4732,-0.0305,5.9384,-4.2652,4.4645,-1.3670,-2.0868,-1.2780,
10.947001,0.3861,-1.1505,-0.2149,5.9384,-4.2652,4.4645,-1.3670,-2.0868,-1.2780,
10.948747,0.0014,-0.6492,0.3592,5.9384,-4.2652,4.4645,-1.3670,-2.0868,-1.2780,
10.978941,0.0014,-0.6492,0.3592,5.9384,-4.2652,4.4645,-0.6532,-3.8083,-1.0139,
10.981557,0.0014,-0.6492,0.3592,6.1323,-4.2225,4.3042,-0.6532,-3.8083,-1.0139,
11.018614,0.0014,-0.6492,0.3592,6.1323,-4.2225,4.3042,0.4547,-3.5100,-0.9787,
11.021441,-0.3277,-0.3304,0.6653,6.1323,-4.2225,4.3042,0.4547,-3.5100,-0.9787,
11.022830,-0.5332,-0.3064,0.5839,6.1323,-4.2225,4.3042,0.4547,-3.5100,-0.9787,
11.024137,-0.7069,-0.3294,0.5060,6.1323,-4.2225,4.3042,0.4547,-3.5100,-0.9787,
11.025256,-0.7408,-0.3817,0.3152,6.1323,-4.2225,4.3042,0.4547,-3.5100,-0.9787,
11.026782,-0.7408,-0.3817,0.3152,-0.4335,4.7927,8.8055,0.4547,-3.5100,-0.9787,
11.058425,-0.7408,-0.3817,0.3152,-0.4335,4.7927,8.8055,1.2579,-2.4927,-0.6453,
11.061524,-0.7408,-0.3817,0.3152,-0.3396,4.9297,7.9770,1.2579,-2.4927,-0.6453,
11.088647,-0.5110,-0.6492,-0.0285,-0.3396,4.9297,7.9770,1.2579,-2.4927,-0.6453,
11.091549,-0.1562,-1.0457,-0.1324,-0.3396,4.9297,7.9770,1.2579,-2.4927,-0.6453,
11.092953,-0.1958,-1.3899,-0.1136,-0.3396,4.9297,7.9770,1.2579,-2.4927,-0.6453,
11.097503,-0.1958,-1.3899,-0.1136,-0.3396,4.9297,7.9770,1.1066,-0.4889,-0.6091,
11.099057,-0.1958,-1.3899,-0.1136,-4.0331,4.7729,4.7797,1.1066,-0.4889,-0.6091,
11.137887,-0.1958,-1.3899,-0.1136,-4.0331,4.7729,4.7797,0.4451,0.0820,-0.7550,
11.140617,-0.1958,-1.3899,-0.1136,-0.5914,-3.6439,0.5680,0.4451,0.0820,-0.7550,
11.160658,-0.4692,-1.5519,-0.1998,-0.5914,-3.6439,0.5680,0.4451,0.0820,-0.7550,
11.163802,-0.3065,-1.2893,-0.6224,-0.5914,-3.6439,0.5680,0.4451,0.0820,-0.7550,
11.165216,-0.3355,-1.0552,-0.6361,-0.5914,-3.6439,0.5680,0.4451,0.0820,-0.7550,
11.167287,-0.6505,-0.9006,-0.2570,-0.5914,-3.6439,0.5680,0.4451,0.0820,-0.7550,
11.177463,-0.6505,-0.9006,-0.2570,-0.5914,-3.6439,0.5680,-0.4870,0.3441,-0.3246,
11.179655,-0.6505,-0.9006,-0.2570,-2.2424,-1.2131,-2.6731,-0.4870,0.3441,-0.3246,
11.216987,-0.6505,-0.9006,-0.2570,-2.2424,-1.2131,-2.6731,-0.6404,0.6157,0.5031,
11.219815,-0.6505,-0.9006,-0.2570,-3.6529,0.7173,1.1448,-0.6404,0.6157,0.5031,
11.248166,-0.7797,-0.8326,-0.1592,-3.6529,0.7173,1.1448,-0.6404,0.6157,0.5031,
11.250274,-0.6502,-0.8962,-0.1905,-3.6529,0.7173,1.1448,-0.6404,0.6157,0.5031,
11.251108,-0.3522,-0.8903,-0.0789,-3.6529,0.7173,1.1448,-0.6404,0.6157,0.5031,
11.252217,-0.1467,-0.8952,-0.0046,-3.6529,0.7173,1.1448,-0.6404,0.6157,0.5031,
11.256415,-0.1467,-0.8952,-0.0046,-3.6529,0.7173,1.1448,-0.5222,-0.1534,1.1816,
11.258007,-0.1467,-0.8952,-0.0046,-3.1526,0.5417,1.2977,-0.5222,-0.1534,1.1816,
11.294367,-0.1467,-0.8952,-0.0046,-3.1526,0.5417,1.2977,0.1702,-0.5784,1.0751,
11.295722,-0.1467,-0.8952,-0.0046,2.3113,-0.3800,1.4771,0.1702,-0.5784,1.0751,
11.334692,-0.1467,-0.8952,-0.0046,2.3113,-0.3800,1.4771,0.8925,-0.9491,0.5489,
11.337100,-0.1467,-0.8952,-0.0046,2.5515,-0.3616,1.0199,0.8925,-0.9491,0.5489,
11.338411,-0.0627,-0.9558,-0.1243,2.5515,-0.3616,1.0199,0.8925,-0.9491,0.5489,
11.339578,-0.0245,-1.0200,-0.1981,2.5515,-0.3616,1.0199,0.8925,-0.9491,0.5489,
11.340687,0.0597,-0.9814,-0.0456,2.5515,-0.3616,1.0199,0.8925,-0.9491,0.5489,
11.341805,0.1169,-0.8490,0.1178,2.5515,-0.3616,1.0199,0.8925,-0.9491,0.5489,
11.343090,-0.0602,-0.7398,0.1864,2.5515,-0.3616,1.0199,0.8925,-0.9491,0.5489,
11.374130,-0.0602,-0.7398,0.1864,2.5515,-0.3616,1.0199,1.7159,-1.2357,0.0301,
11.376152,-0.0602,-0.7398,0.1864,3.7271,0.7200,2.1149,1.7159,-1.2357,0.0301,
11.413893,-0.0602,-0.7398,0.1864,3.7271,0.7200,2.1149,1.9599,-1.5169,-0.1201,
11.416338,-0.2610,-0.7459,0.0780,3.7271,0.7200,2.1149,1.9599,-1.5169,-0.1201,
11.417348,-0.3404,-0.8793,-0.1346,3.7271,0.7200,2.1149,1.9599,-1.5169,-0.1201,
11.418573,-0.4237,-1.1265,-0.4505,3.7271,0.7200,2.1149,1.9599,-1.5169,-0.1201,
11.419871,-0.4333,-1.2656,-0.3325,3.7271,0.7200,2.1149,1.9599,-1.5169,-0.1201,
11.421111,-0.4333,-1.2656,-0.3325,0.0028,0.2029,-1.2782,1.9599,-1.5169,-0.1201,
11.453459,-0.4333,-1.2656,-0.3325,0.0028,0.2029,-1.2782,0.7923,-0.8256,-0.1787,
11.455999,-0.4333,-1.2656,-0.3325,-0.0561,0.2283,-1.6483,0.7923,-0.8256,-0.1787,
11.493787,-0.4333,-1.2656,-0.3325,-0.0561,0.2283,-1.6483,0.8168,0.7872,-0.0828,
11.496086,-0.4333,-1.2656,-0.3325,-1.8385,-2.7410,-0.7231,0.8168,0.7872,-0.0828,
11.497349,-0.5774,-1.2218,0.1007,-1.8385,-2.7410,-0.7231,0.8168,0.7872,-0.0828,
11.498562,-0.5618,-1.1898,0.0643,-1.8385,-2.7410,-0.7231,0.8168,0.7872,-0.0828,
11.499880,-0.4948,-1.0948,-0.4761,-1.8385,-2.7410,-0.7231,0.8168,0.7872,-0.0828,
11.501135,-0.5671,-1.0015,-0.5799,-1.8385,-2.7410,-0.7231,0.8168,0.7872,-0.0828,
11.532664,-0.5671,-1.0015,-0.5799,-1.8385,-2.7410,-0.7231,-0.1302,0.9832,0.5510,
11.534748,-0.5671,-1.0015,-0.5799,-1.6051,-2.7683,-0.5346,-0.1302,0.9832,0.5510,
11.571959,-0.5671,-1.0015,-0.5799,-1.6051,-2.7683,-0.5346,-1.3435,0.2844,0.7907,
11.574365,-0.5671,-1.0015,-0.5799,-0.2699,-1.1287,-4.2276,-1.3435,0.2844,0.7907,
11.575534,-0.1907,-1.0449,-0.4258,-0.2699,-1.1287,-4.2276,-1.3435,0.2844,0.7907,
11.576755,0.2444,-1.1783,-0.3791,-0.2699,-1.1287,-4.2276,-1.3435,0.2844,0.7907,
11.577989,0.4528,-1.3166,-0.4800,-0.2699,-1.1287,-4.2276,-1.3435,0.2844,0.7907,
11.579277,0.3918,-1.3166,-0.7153,-0.2699,-1.1287,-4.2276,-1.3435,0.2844,0.7907,
11.611732,0.3918,-1.3166,-0.7153,-0.2699,-1.1287,-4.2276,-2.2969,0.4293,0.1015,
11.613879,0.3918,-1.3166,-0.7153,7.2751,-3.3735,-3.5775,-2.2969,0.4293,0.1015,
11.651897,0.3918,-1.3166,-0.7153,7.2751,-3.3735,-3.5775,-3.5753,0.0884,-0.1585,
11.654061,0.3918,-1.3166,-0.7153,2.5772,-3.4058,-1.7164,-3.5753,0.0884,-0.1585,
11.655370,0.1145,-1.2558,-0.9105,2.5772,-3.4058,-1.7164,-3.5753,0.0884,-0.1585,
11.656791,-0.2669,-1.2682,-0.4568,2.5772,-3.4058,-1.7164,-3.5753,0.0884,-0.1585,
11.658044,-0.1643,-1.2262,-0.0381,2.5772,-3.4058,-1.7164,-3.5753,0.0884,-0.1585,
11.659519,0.1780,-1.0454,0.0088,2.5772,-3.4058,-1.7164,-3.5753,0.0884,-0.1585,
11.691151,0.1780,-1.0454,0.0088,2.5772,-3.4058,-1.7164,-3.3079,0.3366,-0.4919,
11.693610,0.1780,-1.0454,0.0088,2.3221,-3.7289,-0.5250,-3.3079,0.3366,-0.4919,
11.731114,0.1780,-1.0454,0.0088,2.3221,-3.7289,-0.5250,-1.8548,1.3806,-1.5465,
11.733689,0.1780,-1.0454,0.0088,4.2225,-1.0058,4.6924,-1.8548,1.3806,-1.5465,
11.734976,0.2466,-0.8957,0.0714,4.2225,-1.0058,4.6924,-1.8548,1.3806,-1.5465,
11.736386,0.0964,-0.9367,-0.1038,4.2225,-1.0058,4.6924,-1.8548,1.3806,-1.5465,
11.737708,0.0834,-1.1248,-0.1685,4.2225,-1.0058,4.6924,-1.8548,1.3806,-1.5465,
11.738805,0.2630,-1.1537,-0.1197,4.2225,-1.0058,4.6924,-1.8548,1.3806,-1.5465,
11.770162,0.2630,-1.1537,-0.1197,4.2225,-1.0058,4.6924,-1.2285,0.2248,-2.4435,
11.772248,0.2630,-1.1537,-0.1197,3.3130,-1.0306,5.0366,-1.2285,0.2248,-2.4435,
11.810909,0.2630,-1.1537,-0.1197,3.3130,-1.0306,5.0366,-0.4146,-1.0546,-2.7460,
11.813144,0.2630,-1.1537,-0.1197,2.7796,-2.3271,3.6771,-0.4146,-1.0546,-2.7460,
11.814440,0.2386,-1.0237,-0.1595,2.7796,-2.3271,3.6771,-0.4146,-1.0546,-2.7460,
11.815570,0.0265,-0.9160,-0.1123,2.7796,-2.3271,3.6771,-0.4146,-1.0546,-2.7460,
11.816911,-0.1372,-0.9160,-0.2049,2.7796,-2.3271,3.6771,-0.4146,-1.0546,-2.7460,
11.818042,-0.2378,-0.8485,-0.2709,2.7796,-2.3271,3.6771,-0.4146,-1.0546,-2.7460,
11.849895,-0.2378,-0.8485,-0.2709,2.7796,-2.3271,3.6771,0.4461,-1.8120,-1.7872,
11.851937,-0.2378,-0.8485,-0.2709,-0.5011,-0.1534,2.9666,0.4461,-1.8120,-1.7872,
11.889378,-0.2378,-0.8485,-0.2709,-0.5011,-0.1534,2.9666,0.8445,-0.8256,-0.9734,
11.891337,-0.2378,-0.8485,-0.2709,-1.5740,2.0067,5.0990,0.8445,-0.8256,-0.9734,
11.892704,-0.2439,-0.6731,-0.1119,-1.5740,2.0067,5.0990,0.8445,-0.8256,-0.9734,
11.893951,-0.1892,-0.6475,0.0812,-1.5740,2.0067,5.0990,0.8445,-0.8256,-0.9734,
11.895036,-0.1973,-0.7432,0.2165,-1.5740,2.0067,5.0990,0.8445,-0.8256,-0.9734,
11.896315,-0.3868,-0.7168,0.0963,-1.5740,2.0067,5.0990,0.8445,-0.8256,-0.9734,
11.928947,-0.3868,-0.7168,0.0963,-1.5740,2.0067,5.0990,1.4123,0.2131,-0.7582,
11.931191,-0.3868,-0.7168,0.0963,-1.8434,2.2173,4.5271,1.4123,0.2131,-0.7582,
11.969061,-0.3868,-0.7168,0.0963,-1.8434,2.2173,4.5271,2.1953,0.4165,-1.2227,
11.972045,-0.3868,-0.7168,0.0963,-2.7734,3.9494,2.7900,2.1953,0.4165,-1.2227,
11.973767,-0.4049,-0.5275,-0.0537,-2.7734,3.9494,2.7900,2.1953,0.4165,-1.2227,
11.975154,0.0153,-0.3621,-0.1311,-2.7734,3.9494,2.7900,2.1953,0.4165,-1.2227,
11.976442,0.4071,-0.5646,-0.6347,-2.7734,3.9494,2.7900,2.1953,0.4165,-1.2227,
11.977669,0.1968,-1.0452,-1.3825,-2.7734,3.9494,2.7900,2.1953,0.4165,-1.2227,
12.008110,0.1968,-1.0452,-1.3825,-2.7734,3.9494,2.7900,0.3183,-0.4240,-1.1374,
12.010041,0.1968,-1.0452,-1.3825,-3.0875,3.9020,2.6372,0.3183,-0.4240,-1.1374,
12.048153,0.1968,-1.0452,-1.3825,-3.0875,3.9020,2.6372,-2.5526,-2.2115,1.3883,
12.050621,0.1968,-1.0452,-1.3825,0.0479,-2.1714,-8.8567,-2.5526,-2.2115,1.3883,
12.051882,-0.6619,-1.7642,-1.9197,0.0479,-2.1714,-8.8567,-2.5526,-2.2115,1.3883,
12.053242,-1.8583,-2.6430,-0.7580,0.0479,-2.1714,-8.8567,-2.5526,-2.2115,1.3883,
12.054484,-1.4594,-1.9687,0.1933,0.0479,-2.1714,-8.8567,-2.5526,-2.2115,1.3883,
12.055853,-1.0198,-0.5331,0.5666,0.0479,-2.1714,-8.8567,-2.5526,-2.2115,1.3883,
12.087509,-1.0198,-0.5331,0.5666,0.0479,-2.1714,-8.8567,-1.2935,0.8757,0.7012,
12.089580,-1.0198,-0.5331,0.5666,-13.6111,-8.0458,4.3963,-1.2935,0.8757,0.7012,
12.128837,-0.4518,-0.1899,0.3980,-13.6111,-8.0458,4.3963,-1.2935,0.8757,0.7012,
12.130563,0.1379,-0.7234,0.1547,-13.6111,-8.0458,4.3963,-1.2935,0.8757,0.7012,
12.131302,0.2869,-1.5604,0.0851,-13.6111,-8.0458,4.3963,-1.2935,0.8757,0.7012,
12.132148,0.2869,-1.5604,0.0851,-13.6111,-8.0458,4.3963,0.7646,3.3034,0.4818,
12.132960,0.2869,-1.5604,0.0851,0.0700,0.7883,6.1511,0.7646,3.3034,0.4818,
12.166259,0.2869,-1.5604,0.0851,0.0700,0.7883,6.1511,0.9319,1.9803,0.3422,
12.167847,0.2869,-1.5604,0.0851,2.5097,-7.4853,2.4002,0.9319,1.9803,0.3422,
12.206021,0.2869,-1.5604,0.0851,2.5097,-7.4853,2.4002,0.8445,1.5233,-0.2096,
12.207716,0.2869,-1.5604,0.0851,2.1818,-7.2462,2.0454,0.8445,1.5233,-0.2096,
12.209226,0.3514,-2.1126,-0.2750,2.1818,-7.2462,2.0454,0.8445,1.5233,-0.2096,
12.210411,0.3705,-1.7959,-0.1507,2.1818,-7.2462,2.0454,0.8445,1.5233,-0.2096,
12.211509,0.0683,-1.1808,0.0274,2.1818,-7.2462,2.0454,0.8445,1.5233,-0.2096,
12.212940,-0.2811,-0.8937,-0.1333,2.1818,-7.2462,2.0454,0.8445,1.5233,-0.2096,
12.214194,-0.5962,-0.7982,-0.3894,2.1818,-7.2462,2.0454,0.8445,1.5233,-0.2096,
12.246220,-0.5962,-0.7982,-0.3894,2.1818,-7.2462,2.0454,0.8808,2.0954,0.1654,
12.248452,-0.5962,-0.7982,-0.3894,1.9486,-7.0133,1.6455,0.8808,2.0954,0.1654,
12.285471,-0.5962,-0.7982,-0.3894,1.9486,-7.0133,1.6455,-0.0940,2.3244,0.8461,
12.287465,-0.5962,-0.7982,-0.3894,-6.0389,1.5953,-0.5699,-0.0940,2.3244,0.8461,
12.288936,-0.8259,-0.7569,-0.5501,-6.0389,1.5953,-0.5699,-0.0940,2.3244,0.8461,
12.290142,-0.8373,-0.7085,-0.4864,-6.0389,1.5953,-0.5699,-0.0940,2.3244,0.8461,
12.291380,-0.7157,-0.6824,-0.3310,-6.0389,1.5953,-0.5699,-0.0940,2.3244,0.8461,
12.292730,-0.5842,-0.7374,-0.3007,-6.0389,1.5953,-0.5699,-0.0940,2.3244,0.8461,
12.324925,-0.5842,-0.7374,-0.3007,-6.0389,1.5953,-0.5699,-0.8695,2.8251,1.1252,
12.326904,-0.5842,-0.7374,-0.3007,-7.2501,2.5132,-0.4297,-0.8695,2.8251,1.1252,
12.364811,-0.3829,-0.8339,-0.3469,-7.2501,2.5132,-0.4297,-0.8695,2.8251,1.1252,
12.367026,-0.0526,-0.9116,-0.4277,-7.2501,2.5132,-0.4297,-0.8695,2.8251,1.1252,
12.368182,0.5215,-1.0039,-0.5514,-7.2501,2.5132,-0.4297,-0.8695,2.8251,1.1252,
12.369508,0.5215,-1.0039,-0.5514,-7.2501,2.5132,-0.4297,-1.3169,2.4629,1.4959,
12.370745,0.5215,-1.0039,-0.5514,0.2292,0.3087,-0.6255,-1.3169,2.4629,1.4959,
12.404532,0.5215,-1.0039,-0.5514,0.2292,0.3087,-0.6255,-1.5630,2.0538,1.8155,
12.406887,0.5215,-1.0039,-0.5514,5.8945,-1.3516,-2.7206,-1.5630,2.0538,1.8155,
12.444347,0.5215,-1.0039,-0.5514,5.8945,-1.3516,-2.7206,-1.1294,0.9566,1.5342,
12.446899,0.5215,-1.0039,-0.5514,6.1628,-1.5501,-2.2693,-1.1294,0.9566,1.5342,
12.448242,0.9024,-1.0513,-0.5621,6.1628,-1.5501,-2.2693,-1.1294,0.9566,1.5342,
12.449406,0.6405,-1.0298,-0.6750,6.1628,-1.5501,-2.2693,-1.1294,0.9566,1.5342,
12.451031,0.2051,-1.1053,-0.9207,6.1628,-1.5501,-2.2693,-1.1294,0.9566,1.5342,
12.452274,-0.1609,-1.0860,-0.8069,6.1628,-1.5501,-2.2693,-1.1294,0.9566,1.5342,
12.453615,-0.1088,-0.7181,-0.3737,6.1628,-1.5501,-2.2693,-1.1294,0.9566,1.5342,
12.483785,-0.1088,-0.7181,-0.3737,6.1628,-1.5501,-2.2693,-0.3326,-0.2439,1.6024,
12.485760,-0.1088,-0.7181,-0.3737,6.6560,-1.6330,-2.1265,-0.3326,-0.2439,1.6024,
12.523445,-0.1088,-0.7181,-0.3737,6.6560,-1.6330,-2.1265,0.5005,-0.0106,1.8336,
12.525340,-0.1088,-0.7181,-0.3737,0.3893,1.0330,-0.6737,0.5005,-0.0106,1.8336,
12.526940,-0.0944,-0.5620,-0.4827,0.3893,1.0330,-0.6737,0.5005,-0.0106,1.8336,
12.528062,-0.2000,-0.7117,-0.5997,0.3893,1.0330,-0.6737,0.5005,-0.0106,1.8336,
12.529353,-0.2889,-0.8556,-0.5064,0.3893,1.0330,-0.6737,0.5005,-0.0106,1.8336,
12.530592,-0.2794,-0.8710,-0.3632,0.3893,1.0330,-0.6737,0.5005,-0.0106,1.8336,
12.563423,-0.2794,-0.8710,-0.3632,0.3893,1.0330,-0.6737,1.1385,-0.5614,1.9167,
12.565655,-0.2794,-0.8710,-0.3632,-0.1596,0.8390,-0.4736,1.1385,-0.5614,1.9167,
12.602738,-0.2794,-0.8710,-0.3632,-0.1596,0.8390,-0.4736,1.6222,-0.7510,1.5055,
12.605214,-0.2794,-0.8710,-0.3632,1.1443,1.6796,0.8763,1.6222,-0.7510,1.5055,
12.606709,-0.2183,-0.8185,-0.3300,1.1443,1.6796,0.8763,1.6222,-0.7510,1.5055,
12.607837,-0.1802,-0.7396,-0.2885,1.1443,1.6796,0.8763,1.6222,-0.7510,1.5055,
12.609266,-0.1628,-0.6443,-0.2342,1.1443,1.6796,0.8763,1.6222,-0.7510,1.5055,
12.610404,-0.1472,-0.5429,-0.1983,1.1443,1.6796,0.8763,1.6222,-0.7510,1.5055,
12.643444,-0.1472,-0.5429,-0.1983,1.5502,1.7944,0.0507,1.6222,-0.7510,1.5055,
12.645548,-0.1472,-0.5429,-0.1983,1.5502,1.7944,0.0507,2.0131,-0.8746,0.9025,
12.683058,-0.1472,-0.5429,-0.1983,1.5502,1.7944,0.0507,1.9215,-0.9289,0.3742,
12.685271,-0.1472,-0.5429,-0.1983,2.1857,4.1314,-0.7808,1.9215,-0.9289,0.3742,
12.686718,-0.1264,-0.4650,-0.2088,2.1857,4.1314,-0.7808,1.9215,-0.9289,0.3742,
12.687941,-0.1501,-0.4984,-0.4534,2.1857,4.1314,-0.7808,1.9215,-0.9289,0.3742,
12.689222,-0.1941,-0.6983,-0.7761,2.1857,4.1314,-0.7808,1.9215,-0.9289,0.3742,
12.690594,-0.0277,-1.1180,-0.4942,2.1857,4.1314,-0.7808,1.9215,-0.9289,0.3742,
12.721667,-0.0277,-1.1180,-0.4942,2.1857,4.1314,-0.7808,0.8190,-0.9257,0.2304,
12.723708,-0.0277,-1.1180,-0.4942,2.2950,4.0883,-1.1887,0.8190,-0.9257,0.2304,
12.760906,-0.0277,-1.1180,-0.4942,2.2950,4.0883,-1.1887,0.0946,-1.4647,-0.4440,
12.763055,-0.0277,-1.1180,-0.4942,3.1034,-2.0717,-4.6842,0.0946,-1.4647,-0.4440,
12.764397,0.0842,-1.6081,-0.6093,3.1034,-2.0717,-4.6842,0.0946,-1.4647,-0.4440,
12.765646,-0.1753,-1.7744,-0.8841,3.1034,-2.0717,-4.6842,0.0946,-1.4647,-0.4440,
12.767104,-0.1191,-1.4605,-0.6246,3.1034,-2.0717,-4.6842,0.0946,-1.4647,-0.4440,
12.768328,0.1057,-1.1446,-0.2032,3.1034,-2.0717,-4.6842,0.0946,-1.4647,-0.4440,
12.800887,0.1057,-1.1446,-0.2032,3.1034,-2.0717,-4.6842,0.2608,-0.5358,-0.4120,
12.802705,0.1057,-1.1446,-0.2032,2.7699,-5.0357,-4.2341,0.2608,-0.5358,-0.4120,
12.840250,0.1057,-1.1446,-0.2032,2.7699,-5.0357,-4.2341,0.5889,-0.5561,-0.7188,
12.842130,0.1057,-1.1446,-0.2032,5.7881,-1.9462,0.9561,0.5889,-0.5561,-0.7188,
12.843607,0.7108,-0.9856,0.0926,5.7881,-1.9462,0.9561,0.5889,-0.5561,-0.7188,
12.844692,0.5014,-1.0347,0.0790,5.7881,-1.9462,0.9561,0.5889,-0.5561,-0.7188,
12.846107,-0.3739,-1.4608,-0.2010,5.7881,-1.9462,0.9561,0.5889,-0.5561,-0.7188,
12.847357,-0.2508,-1.3340,-0.3569,5.7881,-1.9462,0.9561,0.5889,-0.5561,-0.7188,
12.880285,-0.2508,-1.3340,-0.3569,5.7881,-1.9462,0.9561,1.0512,-1.0844,-0.4706,
12.882298,-0.2508,-1.3340,-0.3569,5.5513,-1.8267,0.4265,1.0512,-1.0844,-0.4706,
12.920189,-0.2508,-1.3340,-0.3569,5.5513,-1.8267,0.4265,0.9500,-1.2911,-0.0679,
12.921904,-0.2508,-1.3340,-0.3569,1.6924,-2.1883,-2.4865,0.9500,-1.2911,-0.0679,
12.924269,-0.0363,-1.1090,-0.1876,1.6924,-2.1883,-2.4865,0.9500,-1.2911,-0.0679,
12.925715,-0.0434,-1.1656,-0.2357,1.6924,-2.1883,-2.4865,0.9500,-1.2911,-0.0679,
12.926964,-0.0253,-1.2472,-0.4182,1.6924,-2.1883,-2.4865,0.9500,-1.2911,-0.0679,
12.929010,0.0092,-1.1620,-0.5316,1.6924,-2.1883,-2.4865,0.9500,-1.2911,-0.0679,
12.959482,0.0092,-1.1620,-0.5316,1.6924,-2.1883,-2.4865,0.3076,-1.8876,0.0578,
12.961452,0.0092,-1.1620,-0.5316,1.6767,-2.1588,-2.7645,0.3076,-1.8876,0.0578,
12.999304,0.0092,-1.1620,-0.5316,1.6767,-2.1588,-2.7645,-1.1156,-1.1803,0.3475,
13.001314,0.0092,-1.1620,-0.5316,2.5229,-1.6313,-4.8168,-1.1156,-1.1803,0.3475,
13.002821,-0.0807,-1.0357,-0.5736,2.5229,-1.6313,-4.8168,-1.1156,-1.1803,0.3475,
13.003910,-0.1777,-0.9763,-0.7363,2.5229,-1.6313,-4.8168,-1.1156,-1.1803,0.3475,
13.005155,-0.1193,-0.9116,-0.8152,2.5229,-1.6313,-4.8168,-1.1156,-1.1803,0.3475,
13.006450,0.0458,-0.8053,-0.5841,2.5229,-1.6313,-4.8168,-1.1156,-1.1803,0.3475,
13.038729,0.0458,-0.8053,-0.5841,2.5229,-1.6313,-4.8168,-3.3494,-0.4889,0.4211,
13.040658,0.0458,-0.8053,-0.5841,2.1524,0.6636,-5.5104,-3.3494,-0.4889,0.4211,
13.078316,0.0458,-0.8053,-0.5841,2.1524,0.6636,-5.5104,-4.0600,-1.5606,-0.4141,
13.080338,0.0458,-0.8053,-0.5841,3.7684,2.5806,4.7956,-4.0600,-1.5606,-0.4141,
13.081603,0.1887,-0.6646,-0.2413,3.7684,2.5806,4.7956,-4.0600,-1.5606,-0.4141,
13.082979,0.1247,-0.6372,0.2422,3.7684,2.5806,4.7956,-4.0600,-1.5606,-0.4141,
13.084074,-0.0453,-0.7010,0.6406,3.7684,2.5806,4.7956,-4.0600,-1.5606,-0.4141,
13.085193,0.0683,-0.7948,0.7144,3.7684,2.5806,4.7956,-4.0600,-1.5606,-0.4141,
13.117887,0.0683,-0.7948,0.7144,3.7684,2.5806,4.7956,-2.8988,-2.3095,-0.8711,
13.119900,0.0683,-0.7948,0.7144,3.6845,2.2847,5.4727,-2.8988,-2.3095,-0.8711,
13.157420,0.0683,-0.7948,0.7144,3.6845,2.2847,5.4727,-2.1968,-1.0163,-1.5635,
13.159921,0.0683,-0.7948,0.7144,3.8864,-6.0704,4.8027,-2.1968,-1.0163,-1.5635,
13.161215,0.2217,-1.3723,0.0819,3.8864,-6.0704,4.8027,-2.1968,-1.0163,-1.5635,
13.162422,0.1809,-2.3762,-0.5350,3.8864,-6.0704,4.8027,-2.1968,-1.0163,-1.5635,
13.163595,0.3038,-2.1236,-0.5167,3.8864,-6.0704,4.8027,-2.1968,-1.0163,-1.5635,
13.164848,0.4177,-1.2685,-0.1827,3.8864,-6.0704,4.8027,-2.1968,-1.0163,-1.5635,
13.197009,0.4177,-1.2685,-0.1827,3.8864,-6.0704,4.8027,-1.8900,-0.0074,-2.7865,
13.199228,0.4177,-1.2685,-0.1827,2.8745,-6.0795,5.3613,-1.8900,-0.0074,-2.7865,
13.236844,0.4177,-1.2685,-0.1827,2.8745,-6.0795,5.3613,-0.5211,-1.7992,-2.5340,
13.239262,0.4177,-1.2685,-0.1827,3.7909,-5.6422,2.3713,-0.5211,-1.7992,-2.5340,
13.240625,0.2181,-1.0493,0.0237,3.7909,-5.6422,2.3713,-0.5211,-1.7992,-2.5340,
13.241808,0.0351,-1.2062,0.0083,3.7909,-5.6422,2.3713,-0.5211,-1.7992,-2.5340,
13.242966,-0.1853,-1.2108,0.0758,3.7909,-5.6422,2.3713,-0.5211,-1.7992,-2.5340,
13.244329,-0.4824,-0.9152,0.2441,3.7909,-5.6422,2.3713,-0.5211,-1.7992,-2.5340,
13.276610,-0.4824,-0.9152,0.2441,-1.5163,-1.9042,5.4229,-0.5211,-1.7992,-2.5340,
13.278544,-0.4824,-0.9152,0.2441,-1.5163,-1.9042,5.4229,0.2458,-2.0868,-1.6232,
13.316987,-0.4824,-0.9152,0.2441,-1.5163,-1.9042,5.4229,1.3921,0.5848,-0.9148,
13.319084,-0.4824,-0.9152,0.2441,-6.2300,8.2846,9.9598,1.3921,0.5848,-0.9148,
13.320442,-0.5884,-0.4464,0.4669,-6.2300,8.2846,9.9598,1.3921,0.5848,-0.9148,
13.321659,-0.6404,-0.0062,0.6604,-6.2300,8.2846,9.9598,1.3921,0.5848,-0.9148,
13.322708,-0.7504,0.2088,0.7938,-6.2300,8.2846,9.9598,1.3921,0.5848,-0.9148,
13.323923,-1.0543,0.0835,-0.3405,-6.2300,8.2846,9.9598,1.3921,0.5848,-0.9148,
13.355274,-1.0543,0.0835,-0.3405,-6.2300,8.2846,9.9598,2.4019,1.0472,0.0557,
13.357450,-1.0543,0.0835,-0.3405,-6.2377,8.4508,8.9344,2.4019,1.0472,0.0557,
13.395124,-1.0804,-0.4735,-1.4023,-6.2377,8.4508,8.9344,2.4019,1.0472,0.0557,
13.397262,0.2234,-1.9911,-0.1390,-6.2377,8.4508,8.9344,2.4019,1.0472,0.0557,
13.398501,0.7765,-3.1492,0.0047,-6.2377,8.4508,8.9344,2.4019,1.0472,0.0557,
13.399790,0.7765,-3.1492,0.0047,-6.2377,8.4508,8.9344,1.8704,1.0919,0.2858,
13.400986,0.7765,-3.1492,0.0047,-5.9093,1.6105,-4.1009,1.8704,1.0919,0.2858,
13.434863,0.7765,-3.1492,0.0047,-5.9093,1.6105,-4.1009,0.4003,0.2940,-0.6027,
13.437046,0.7765,-3.1492,0.0047,3.1805,-9.6375,-2.8773,0.4003,0.2940,-0.6027,
13.474957,0.7765,-3.1492,0.0047,3.1805,-9.6375,-2.8773,-0.6618,-0.0959,-0.8083,
13.477114,0.7765,-3.1492,0.0047,2.8342,-9.5341,-2.5821,-0.6618,-0.0959,-0.8083,
13.478441,0.2657,-1.9762,-0.7373,2.8342,-9.5341,-2.5821,-0.6618,-0.0959,-0.8083,
13.479764,-0.0785,-0.7601,-0.7448,2.8342,-9.5341,-2.5821,-0.6618,-0.0959,-0.8083,
13.481045,-0.6639,-0.3707,-0.0588,2.8342,-9.5341,-2.5821,-0.6618,-0.0959,-0.8083,
13.482195,-0.8679,-0.3350,0.4999,2.8342,-9.5341,-2.5821,-0.6618,-0.0959,-0.8083,
13.483512,-0.9431,-0.9651,0.4122,2.8342,-9.5341,-2.5821,-0.6618,-0.0959,-0.8083,
13.513841,-0.9431,-0.9651,0.4122,2.8342,-9.5341,-2.5821,0.8552,1.4200,0.6682,
13.515683,-0.9431,-0.9651,0.4122,-8.1208,4.2393,4.6083,0.8552,1.4200,0.6682,
13.554149,-0.9431,-0.9651,0.4122,-8.1208,4.2393,4.6083,0.7092,2.5045,0.0770,
13.556118,-0.9431,-0.9651,0.4122,0.6084,-4.8121,-1.8079,0.7092,2.5045,0.0770,
13.557493,-0.3558,-1.6430,-0.2035,0.6084,-4.8121,-1.8079,0.7092,2.5045,0.0770,
13.558692,0.3813,-1.5756,-0.7502,0.6084,-4.8121,-1.8079,0.7092,2.5045,0.0770,
13.560030,0.2166,-1.2624,-0.0803,0.6084,-4.8121,-1.8079,0.7092,2.5045,0.0770,
13.561135,-0.0561,-1.0217,0.0750,0.6084,-4.8121,-1.8079,0.7092,2.5045,0.0770,
13.593141,-0.0561,-1.0217,0.0750,0.6084,-4.8121,-1.8079,0.5580,2.2690,-0.1201,
13.595097,-0.0561,-1.0217,0.0750,0.4241,-4.7017,-2.0153,0.5580,2.2690,-0.1201,
13.633166,-0.0561,-1.0217,0.0750,0.4241,-4.7017,-2.0153,0.4674,1.1569,0.6160,
13.635179,-0.0561,-1.0217,0.0750,-1.3578,0.8402,0.2546,0.4674,1.1569,0.6160,
13.636430,-0.1516,-0.8903,-0.1033,-1.3578,0.8402,0.2546,0.4674,1.1569,0.6160,
13.637561,-0.1594,-0.8774,-0.2487,-1.3578,0.8402,0.2546,0.4674,1.1569,0.6160,
13.638797,-0.0776,-0.9416,-0.4067,-1.3578,0.8402,0.2546,0.4674,1.1569,0.6160,
13.639975,0.1247,-0.9775,-0.3210,-1.3578,0.8402,0.2546,0.4674,1.1569,0.6160,
13.672665,0.1247,-0.9775,-0.3210,-1.3578,0.8402,0.2546,0.0999,0.4240,0.7460,
13.674566,0.1247,-0.9775,-0.3210,-1.0646,0.8314,0.2105,0.0999,0.4240,0.7460,
13.712066,0.1247,-0.9775,-0.3210,-1.0646,0.8314,0.2105,0.1361,-0.0234,0.2048,
13.714123,0.2679,-1.0374,-0.2145,-1.0646,0.8314,0.2105,0.1361,-0.0234,0.2048,
13.715156,0.2862,-1.0357,-0.0838,-1.0646,0.8314,0.2105,0.1361,-0.0234,0.2048,
13.716208,0.1484,-1.0049,-0.0532,-1.0646,0.8314,0.2105,0.1361,-0.0234,0.2048,
13.717448,0.0202,-1.0071,-0.1028,-1.0646,0.8314,0.2105,0.1361,-0.0234,0.2048,
13.720028,0.0202,-1.0071,-0.1028,1.2245,0.2851,-1.9830,0.1361,-0.0234,0.2048,
13.751938,0.0202,-1.0071,-0.1028,1.2245,0.2851,-1.9830,0.2789,-0.4591,0.0429,
13.754006,0.0202,-1.0071,-0.1028,1.6881,-0.0014,0.1942,0.2789,-0.4591,0.0429,
13.791751,0.0202,-1.0071,-0.1028,1.6881,-0.0014,0.1942,0.2032,-0.8852,0.2474,
13.793716,0.0202,-1.0071,-0.1028,-0.5883,0.4280,-1.3544,0.2032,-0.8852,0.2474,
13.794881,-0.0546,-1.0166,-0.1287,-0.5883,0.4280,-1.3544,0.2032,-0.8852,0.2474,
13.796229,-0.0995,-0.9770,-0.2416,-0.5883,0.4280,-1.3544,0.2032,-0.8852,0.2474,
13.797337,-0.1308,-0.9218,-0.3232,-0.5883,0.4280,-1.3544,0.2032,-0.8852,0.2474,
13.798444,-0.1184,-0.9111,-0.2621,-0.5883,0.4280,-1.3544,0.2032,-0.8852,0.2474,
13.831299,-0.1184,-0.9111,-0.2621,-0.5883,0.4280,-1.3544,-0.1792,-1.1057,0.3539,
13.833367,-0.1184,-0.9111,-0.2621,-0.4014,0.4083,-1.2809,-0.1792,-1.1057,0.3539,
13.870927,-0.1184,-0.9111,-0.2621,-0.4014,0.4083,-1.2809,-0.1930,-0.3739,0.0589,
13.872869,-0.1184,-0.9111,-0.2621,-0.0081,0.9082,-0.5401,-0.1930,-0.3739,0.0589,
13.874076,-0.0607,-0.9243,-0.1443,-0.0081,0.9082,-0.5401,-0.1930,-0.3739,0.0589,
13.875464,0.0028,-0.9196,-0.0838,-0.0081,0.9082,-0.5401,-0.1930,-0.3739,0.0589,
13.876618,0.0109,-0.9226,-0.1282,-0.0081,0.9082,-0.5401,-0.1930,-0.3739,0.0589,
13.877878,-0.0475,-0.9372,-0.2003,-0.0081,0.9082,-0.5401,-0.1930,-0.3739,0.0589,
13.910364,-0.0475,-0.9372,-0.2003,-0.0081,0.9082,-0.5401,-0.2048,0.0490,-0.1031,
13.912441,-0.0475,-0.9372,-0.2003,-0.0499,0.8865,-0.4510,-0.2048,0.0490,-0.1031,
13.950643,-0.0475,-0.9372,-0.2003,-0.0499,0.8865,-0.4510,-0.3326,-0.1971,0.0525,
13.953300,-0.0475,-0.9372,-0.2003,0.1798,0.7756,-0.5112,-0.3326,-0.1971,0.0525,
13.954584,-0.0776,-0.9199,-0.2213,0.1798,0.7756,-0.5112,-0.3326,-0.1971,0.0525,
13.955667,-0.0248,-0.9526,-0.1302,0.1798,0.7756,-0.5112,-0.3326,-0.1971,0.0525,
13.956735,-0.0167,-1.0000,-0.0750,0.1798,0.7756,-0.5112,-0.3326,-0.1971,0.0525,
13.957974,-0.0712,-0.9812,-0.0762,0.1798,0.7756,-0.5112,-0.3326,-0.1971,0.0525,
13.989644,-0.0712,-0.9812,-0.0762,0.1798,0.7756,-0.5112,-0.2868,-0.1481,0.0631,
13.991805,-0.0712,-0.9812,-0.0762,0.2135,0.2512,0.4666,-0.2868,-0.1481,0.0631,
14.029410,-0.0712,-0.9812,-0.0762,0.2135,0.2512,0.4666,-0.2207,0.4496,-0.0072,
14.031651,-0.0712,-0.9812,-0.0762,-0.7905,-0.6629,1.3648,-0.2207,0.4496,-0.0072,
14.033018,-0.0964,-0.9985,-0.1045,-0.7905,-0.6629,1.3648,-0.2207,0.4496,-0.0072,
14.033918,-0.1264,-1.0879,-0.0215,-0.7905,-0.6629,1.3648,-0.2207,0.4496,-0.0072,
14.034887,-0.1926,-1.1268,0.0973,-0.7905,-0.6629,1.3648,-0.2207,0.4496,-0.0072,
14.036164,-0.2901,-1.0980,0.1921,-0.7905,-0.6629,1.3648,-0.2207,0.4496,-0.0072,
14.069649,-0.2901,-1.0980,0.1921,-0.7905,-0.6629,1.3648,0.2043,0.7382,-0.0722,
14.071150,-0.2901,-1.0980,0.1921,-0.8464,-0.6390,1.2790,0.2043,0.7382,-0.0722,
14.109315,-0.2901,-1.0980,0.1921,-0.8464,-0.6390,1.2790,0.5069,1.0674,0.2037,
14.111543,-0.3959,-1.1085,0.1779,-0.8464,-0.6390,1.2790,0.5069,1.0674,0.2037,
14.113049,-0.4939,-1.1182,0.0601,-0.8464,-0.6390,1.2790,0.5069,1.0674,0.2037,
14.114150,-0.5386,-1.1253,-0.1558,-0.8464,-0.6390,1.2790,0.5069,1.0674,0.2037,
14.115278,-0.4543,-1.0662,-0.2829,-0.8464,-0.6390,1.2790,0.5069,1.0674,0.2037,
14.116602,-0.4543,-1.0662,-0.2829,-3.2631,-0.9650,2.5581,0.5069,1.0674,0.2037,
14.148102,-0.4543,-1.0662,-0.2829,-3.2631,-0.9650,2.5581,0.2469,1.3540,0.5574,
14.150348,-0.4543,-1.0662,-0.2829,-3.0523,-0.9526,2.4551,0.2469,1.3540,0.5574,
14.187898,-0.4543,-1.0662,-0.2829,-3.0523,-0.9526,2.4551,0.2395,2.1934,0.3049,
14.189756,-0.4543,-1.0662,-0.2829,-3.3521,-0.1906,-0.8210,0.2395,2.1934,0.3049,
14.191069,-0.3053,-0.9008,-0.1316,-3.3521,-0.1906,-0.8210,0.2395,2.1934,0.3049,
14.191948,-0.2166,-0.7261,-0.0266,-3.3521,-0.1906,-0.8210,0.2395,2.1934,0.3049,
14.192788,-0.2559,-0.6069,-0.0276,-3.3521,-0.1906,-0.8210,0.2395,2.1934,0.3049,
14.193707,-0.2588,-0.5602,-0.1641,-3.3521,-0.1906,-0.8210,0.2395,2.1934,0.3049,
14.227172,-0.2588,-0.5602,-0.1641,-3.3521,-0.1906,-0.8210,0.3662,2.9881,-0.0583,
14.228519,-0.2588,-0.5602,-0.1641,-1.6171,3.6805,0.2783,0.3662,2.9881,-0.0583,
14.266945,-0.2588,-0.5602,-0.1641,-1.6171,3.6805,0.2783,0.2192,2.9242,-0.1893,
14.268272,-0.2588,-0.5602,-0.1641,2.2034,3.4811,0.2662,0.2192,2.9242,-0.1893,
14.269275,-0.0788,-0.5808,-0.1942,2.2034,3.4811,0.2662,0.2192,2.9242,-0.1893,
14.269975,0.2185,-0.6189,-0.0625,2.2034,3.4811,0.2662,0.2192,2.9242,-0.1893,
14.270749,0.3676,-0.7408,0.0382,2.2034,3.4811,0.2662,0.2192,2.9242,-0.1893,
14.271521,0.3182,-0.9194,0.0570,2.2034,3.4811,0.2662,0.2192,2.9242,-0.1893,
14.306304,0.3182,-0.9194,0.0570,2.2034,3.4811,0.2662,0.5345,3.1884,-0.5430,
14.307971,0.3182,-0.9194,0.0570,1.8453,3.4499,0.1056,0.5345,3.1884,-0.5430,
14.346201,0.3182,-0.9194,0.0570,1.8453,3.4499,0.1056,1.0022,3.8669,-0.6549,
14.348154,0.3182,-0.9194,0.0570,1.2772,-1.9530,1.4868,1.0022,3.8669,-0.6549,
14.349549,0.1457,-1.1593,0.1381,1.2772,-1.9530,1.4868,1.0022,3.8669,-0.6549,
14.350796,-0.0160,-1.5336,0.1359,1.2772,-1.9530,1.4868,1.0022,3.8669,-0.6549,
14.352051,0.0979,-1.7569,-0.3075,1.2772,-1.9530,1.4868,1.0022,3.8669,-0.6549,
14.353554,0.1045,-1.2235,-0.2372,1.2772,-1.9530,1.4868,1.0022,3.8669,-0.6549,
14.386283,0.1045,-1.2235,-0.2372,1.2772,-1.9530,1.4868,0.9021,3.5900,-0.9350,
14.388497,0.1045,-1.2235,-0.2372,0.8684,-1.9273,1.0634,0.9021,3.5900,-0.9350,
14.425441,0.1045,-1.2235,-0.2372,0.8684,-1.9273,1.0634,0.6198,2.3170,-0.1851,
14.428525,0.1045,-1.2235,-0.2372,-0.2876,-2.6517,-2.0635,0.6198,2.3170,-0.1851,
14.430555,-0.0922,-0.8647,0.0000,-0.2876,-2.6517,-2.0635,0.6198,2.3170,-0.1851,
14.433343,-0.1858,-0.9800,-0.1463,-0.2876,-2.6517,-2.0635,0.6198,2.3170,-0.1851,
14.434967,-0.2337,-1.2228,-0.1324,-0.2876,-2.6517,-2.0635,0.6198,2.3170,-0.1851,
14.436326,0.0309,-1.3068,-0.0464,-0.2876,-2.6517,-2.0635,0.6198,2.3170,-0.1851,
14.464504,0.0309,-1.3068,-0.0464,-0.2876,-2.6517,-2.0635,0.6411,2.0986,0.3507,
14.465942,0.0309,-1.3068,-0.0464,-1.7136,-1.5333,-1.6187,0.6411,2.0986,0.3507,
14.504372,0.0309,-1.3068,-0.0464,-1.7136,-1.5333,-1.6187,0.6698,1.5777,0.4125,
14.505457,0.0309,-1.3068,-0.0464,1.3431,-0.2461,-2.4366,0.6698,1.5777,0.4125,
14.506155,0.1936,-1.1500,-0.0732,1.3431,-0.2461,-2.4366,0.6698,1.5777,0.4125,
14.506644,0.1357,-0.9880,-0.1915,1.3431,-0.2461,-2.4366,0.6698,1.5777,0.4125,
14.507173,0.1619,-0.9748,-0.2360,1.3431,-0.2461,-2.4366,0.6698,1.5777,0.4125,
14.507665,0.2234,-1.0801,-0.2631,1.3431,-0.2461,-2.4366,0.6698,1.5777,0.4125,
14.544187,0.2234,-1.0801,-0.2631,1.3431,-0.2461,-2.4366,0.5878,0.6275,0.5723,
14.546446,0.2234,-1.0801,-0.2631,1.5637,-0.2600,-2.6274,0.5878,0.6275,0.5723,
14.584761,0.2234,-1.0801,-0.2631,1.5637,-0.2600,-2.6274,0.5548,0.8437,0.4413,
14.586750,0.2234,-1.0801,-0.2631,2.0337,-0.3622,-4.0264,0.5548,0.8437,0.4413,
14.588050,0.2239,-1.0933,-0.3002,2.0337,-0.3622,-4.0264,0.5548,0.8437,0.4413,
14.589320,0.1340,-0.9648,-0.3207,2.0337,-0.3622,-4.0264,0.5548,0.8437,0.4413,
14.590502,-0.0241,-0.8600,-0.3391,2.0337,-0.3622,-4.0264,0.5548,0.8437,0.4413,
14.591722,-0.1633,-0.9201,-0.4255,2.0337,-0.3622,-4.0264,0.5548,0.8437,0.4413,
14.623139,-0.1633,-0.9201,-0.4255,2.0337,-0.3622,-4.0264,-0.1142,1.2826,0.6980,
14.624709,-0.1633,-0.9201,-0.4255,2.3253,-0.3594,-3.9003,-0.1142,1.2826,0.6980,
14.663021,-0.1633,-0.9201,-0.4255,2.3253,-0.3594,-3.9003,-1.5992,0.0938,1.0687,
14.664473,-0.1633,-0.9201,-0.4255,-0.1146,0.5092,-4.2657,-1.5992,0.0938,1.0687,
14.665447,-0.1088,-1.0948,-0.4458,-0.1146,0.5092,-4.2657,-1.5992,0.0938,1.0687,
14.666334,0.0754,-1.2052,-0.3606,-0.1146,0.5092,-4.2657,-1.5992,0.0938,1.0687,
14.667109,0.2772,-1.2453,-0.1930,-0.1146,0.5092,-4.2657,-1.5992,0.0938,1.0687,
14.667895,0.3038,-1.2946,-0.4329,-0.1146,0.5092,-4.2657,-1.5992,0.0938,1.0687,
14.702447,0.3038,-1.2946,-0.4329,-0.1146,0.5092,-4.2657,-3.5529,-1.6224,1.0495,
14.704208,0.3038,-1.2946,-0.4329,3.3766,-2.3870,-2.1789,-3.5529,-1.6224,1.0495,
14.742826,0.2620,-1.2182,-0.6178,3.3766,-2.3870,-2.1789,-3.5529,-1.6224,1.0495,
14.744461,0.0522,-1.3178,-0.2623,3.3766,-2.3870,-2.1789,-3.5529,-1.6224,1.0495,
14.745490,0.0502,-1.6110,0.1036,3.3766,-2.3870,-2.1789,-3.5529,-1.6224,1.0495,
14.746628,0.0502,-1.6110,0.1036,3.3766,-2.3870,-2.1789,-4.1920,-1.2943,0.6916,
14.747650,0.0502,-1.6110,0.1036,2.7332,-3.9725,0.0438,-4.1920,-1.2943,0.6916,
14.782323,0.0502,-1.6110,0.1036,2.7332,-3.9725,0.0438,-2.7550,-1.8994,-0.2160,
14.784384,0.0502,-1.6110,0.1036,6.3764,-4.2918,9.7626,-2.7550,-1.8994,-0.2160,
14.823392,0.0502,-1.6110,0.1036,6.3764,-4.2918,9.7626,-0.5286,-1.6725,-1.0011,
14.825776,0.0502,-1.6110,0.1036,6.1311,-4.2304,9.6907,-0.5286,-1.6725,-1.0011,
14.827326,0.5327,-1.6198,0.2502,6.1311,-4.2304,9.6907,-0.5286,-1.6725,-1.0011,
14.828666,0.6177,-1.4361,0.8385,6.1311,-4.2304,9.6907,-0.5286,-1.6725,-1.0011,
14.830747,0.3150,-1.1138,0.8837,6.1311,-4.2304,9.6907,-0.5286,-1.6725,-1.0011,
14.832246,0.3238,-0.9897,-0.1158,6.1311,-4.2304,9.6907,-0.5286,-1.6725,-1.0011,
14.833467,0.0998,-1.0621,-0.3943,6.1311,-4.2304,9.6907,-0.5286,-1.6725,-1.0011,
14.863108,0.0998,-1.0621,-0.3943,6.1311,-4.2304,9.6907,0.2022,-1.8290,-0.8988,
14.865086,0.0998,-1.0621,-0.3943,5.9260,-4.0901,9.3632,0.2022,-1.8290,-0.8988,
14.902889,0.0998,-1.0621,-0.3943,5.9260,-4.0901,9.3632,-0.0950,-4.3292,-0.3587,
14.905431,0.0998,-1.0621,-0.3943,2.8965,0.0469,1.6044,-0.0950,-4.3292,-0.3587,
14.906844,0.0226,-0.8534,0.1725,2.8965,0.0469,1.6044,-0.0950,-4.3292,-0.3587,
14.907972,0.0485,-0.5734,0.4637,2.8965,0.0469,1.6044,-0.0950,-4.3292,-0.3587,
14.909300,0.0966,-0.3616,0.5688,2.8965,0.0469,1.6044,-0.0950,-4.3292,-0.3587,
14.911500,0.0905,-0.2793,0.6479,2.8965,0.0469,1.6044,-0.0950,-4.3292,-0.3587,
14.941744,0.0905,-0.2793,0.6479,2.8965,0.0469,1.6044,0.0669,-4.8821,-0.1127,
14.944668,0.0905,-0.2793,0.6479,2.6143,5.4909,7.7188,0.0669,-4.8821,-0.1127,
14.981889,0.0905,-0.2793,0.6479,2.6143,5.4909,7.7188,0.8381,-5.3913,-0.9297,
14.984365,0.0905,-0.2793,0.6479,-0.3177,3.3902,5.8446,0.8381,-5.3913,-0.9297,
14.985698,0.0702,-0.3497,0.6421,-0.3177,3.3902,5.8446,0.8381,-5.3913,-0.9297,
14.987224,-0.0519,-0.5258,0.5180,-0.3177,3.3902,5.8446,0.8381,-5.3913,-0.9297,
14.988323,-0.6981,-1.0046,0.1987,-0.3177,3.3902,5.8446,0.8381,-5.3913,-0.9297,
14.989506,-1.5996,-1.7969,-0.8096,-0.3177,3.3902,5.8446,0.8381,-5.3913,-0.9297,
15.021323,-1.5996,-1.7969,-0.8096,-0.3177,3.3902,5.8446,0.8158,-4.7798,-0.3001,
15.024031,-1.5996,-1.7969,-0.8096,-0.2246,3.3901,5.0821,0.8158,-4.7798,-0.3001,
15.061026,-1.5996,-1.7969,-0.8096,-0.2246,3.3901,5.0821,-1.2423,-0.6754,0.8120,
15.065031,-1.5996,-1.7969,-0.8096,-6.4661,-5.7820,-5.5641,-1.2423,-0.6754,0.8120,
15.067067,-1.1361,-1.5042,-1.0493,-6.4661,-5.7820,-5.5641,-1.2423,-0.6754,0.8120,
15.068181,0.0138,-1.3831,-0.1971,-6.4661,-5.7820,-5.5641,-1.2423,-0.6754,0.8120,
15.069653,0.5066,-1.5455,-0.2728,-6.4661,-5.7820,-5.5641,-1.2423,-0.6754,0.8120,
15.070969,0.6695,-1.2389,-0.3447,-6.4661,-5.7820,-5.5641,-1.2423,-0.6754,0.8120,
15.100041,0.6695,-1.2389,-0.3447,-6.4661,-5.7820,-5.5641,-1.2956,-2.4608,-0.1957,
15.102827,0.6695,-1.2389,-0.3447,-6.3056,-5.7317,-5.2297,-1.2956,-2.4608,-0.1957,
15.129770,0.5857,-0.9064,0.5556,-6.3056,-5.7317,-5.2297,-1.2956,-2.4608,-0.1957,
15.132137,0.2210,-0.8204,0.7645,-6.3056,-5.7317,-5.2297,-1.2956,-2.4608,-0.1957,
15.133740,-0.5908,-1.0906,0.2671,-6.3056,-5.7317,-5.2297,-1.2956,-2.4608,-0.1957,
15.139637,-0.5908,-1.0906,0.2671,-6.3056,-5.7317,-5.2297,0.2597,-2.0474,-0.9308,
15.141218,-0.5908,-1.0906,0.2671,7.9641,-2.3431,0.9658,0.2597,-2.0474,-0.9308,
15.179467,-0.5908,-1.0906,0.2671,7.9641,-2.3431,0.9658,0.7167,-1.3731,-0.1617,
15.182033,-0.5908,-1.0906,0.2671,-1.6494,-0.5033,2.7779,0.7167,-1.3731,-0.1617,
15.220029,-0.5908,-1.0906,0.2671,3.6460,-0.0200,-1.0086,0.7167,-1.3731,-0.1617,
15.223677,-0.8173,-1.2318,-0.4033,3.6460,-0.0200,-1.0086,0.7167,-1.3731,-0.1617,
15.225039,-0.1443,-1.0811,-0.4468,3.6460,-0.0200,-1.0086,0.7167,-1.3731,-0.1617,
15.226541,0.2657,-0.9856,-0.1189,3.6460,-0.0200,-1.0086,0.7167,-1.3731,-0.1617,
