
time,gFx,gFy,gFz,ax,ay,az,wx,wy,wz,
0.054782,0.0000,0.0000,0.0000,0.0000,0.0000,0.0000,-0.0886,-1.6352,0.2666,
0.086441,0.0000,0.0000,0.0000,0.0000,0.0000,0.0000,-0.3890,-2.3564,0.4264,
0.087942,-0.1103,0.3387,0.8069,0.0000,0.0000,0.0000,-0.3890,-2.3564,0.4264,
0.088853,-0.0542,0.4217,0.6961,0.0000,0.0000,0.0000,-0.3890,-2.3564,0.4264,
0.089644,0.0235,0.4472,0.8631,0.0000,0.0000,0.0000,-0.3890,-2.3564,0.4264,
0.090278,0.0850,0.3737,0.7885,0.0000,0.0000,0.0000,-0.3890,-2.3564,0.4264,
0.090992,0.1730,0.2731,0.8160,0.0000,0.0000,0.0000,-0.3890,-2.3564,0.4264,
0.091735,0.0323,0.2969,0.8885,0.0000,0.0000,0.0000,-0.3890,-2.3564,0.4264,
0.092608,0.1130,0.3052,0.6941,0.0000,0.0000,0.0000,-0.3890,-2.3564,0.4264,
0.130318,0.1130,0.3052,0.6941,0.0000,0.0000,0.0000,-0.0428,-2.5300,0.4349,
0.166926,0.1130,0.3052,0.6941,0.0000,0.0000,0.0000,0.0957,-1.9899,-0.6804,
0.169294,0.4609,0.2970,0.5484,0.0000,0.0000,0.0000,0.0957,-1.9899,-0.6804,
0.170544,0.6843,0.3686,0.7069,0.0000,0.0000,0.0000,0.0957,-1.9899,-0.6804,
0.171814,0.0210,0.4214,0.4344,0.0000,0.0000,0.0000,0.0957,-1.9899,-0.6804,
0.173034,-0.0183,0.3593,0.6096,0.0000,0.0000,0.0000,0.0957,-1.9899,-0.6804,
0.174554,-0.0183,0.3593,0.6096,0.0000,0.0000,-0.0000,0.0957,-1.9899,-0.6804,
0.205209,-0.0183,0.3593,0.6096,0.0000,0.0000,-0.0000,-0.9909,-1.7065,0.1387,
0.207526,-0.0183,0.3593,0.6096,0.5385,0.5561,-0.8807,-0.9909,-1.7065,0.1387,
0.245451,0.3958,0.2767,0.7584,0.5385,0.5561,-0.8807,-0.9909,-1.7065,0.1387,
0.247896,0.6309,0.1721,0.9157,0.5385,0.5561,-0.8807,-0.9909,-1.7065,0.1387,
0.249531,0.6158,0.1895,0.8993,0.5385,0.5561,-0.8807,-0.9909,-1.7065,0.1387,
0.250750,0.6158,0.1895,0.8993,0.5385,0.5561,-0.8807,-0.9185,-0.8181,0.1451,
0.252001,0.6158,0.1895,0.8993,1.2260,-0.3662,1.0154,-0.9185,-0.8181,0.1451,
0.285155,0.6158,0.1895,0.8993,1.2260,-0.3662,1.0154,-1.1262,-0.4485,-0.1595,
0.287073,0.6158,0.1895,0.8993,1.3919,-0.0487,-1.4725,-1.1262,-0.4485,-0.1595,
0.325326,0.5995,0.2815,0.5728,1.3919,-0.0487,-1.4725,-1.1262,-0.4485,-0.1595,
0.327509,0.4854,0.2689,0.3753,1.3919,-0.0487,-1.4725,-1.1262,-0.4485,-0.1595,
0.328959,0.4134,0.0814,0.4471,1.3919,-0.0487,-1.4725,-1.1262,-0.4485,-0.1595,
0.330290,0.5650,0.0818,0.5010,1.3919,-0.0487,-1.4725,-1.1262,-0.4485,-0.1595,
0.331582,0.7784,0.0677,0.7828,1.3919,-0.0487,-1.4725,-1.1262,-0.4485,-0.1595,
0.332929,0.7784,0.0677,0.7828,1.3919,-0.0487,-1.4725,-1.3648,-2.3169,0.2836,
0.333867,0.7784,0.0677,0.7828,0.5791,0.2625,-0.9073,-1.3648,-2.3169,0.2836,
0.363935,0.7784,0.0677,0.7828,0.5791,0.2625,-0.9073,-0.7278,-2.4650,0.4413,
0.365689,0.7784,0.0677,0.7828,-0.0197,0.3895,-0.3590,-0.7278,-2.4650,0.4413,
0.401886,0.7436,0.0580,0.7931,-0.0197,0.3895,-0.3590,-0.7278,-2.4650,0.4413,
0.404216,0.5416,-0.0154,0.4951,-0.0197,0.3895,-0.3590,-0.7278,-2.4650,0.4413,
0.405661,0.6016,0.0294,0.3882,-0.0197,0.3895,-0.3590,-0.7278,-2.4650,0.4413,
0.407029,0.7544,0.1002,0.5749,-0.0197,0.3895,-0.3590,-0.7278,-2.4650,0.4413,
0.408363,0.7544,0.1002,0.5749,-0.0197,0.3895,-0.3590,-1.3851,-0.4623,1.1870,
0.410358,0.7544,0.1002,0.5749,0.5384,-0.9181,-0.4076,-1.3851,-0.4623,1.1870,
0.443858,0.7544,0.1002,0.5749,0.5384,-0.9181,-0.4076,-1.4756,-1.4402,1.0751,
0.446084,0.7544,0.1002,0.5749,0.1642,-0.3046,-0.1127,-1.4756,-1.4402,1.0751,
0.482329,0.7192,0.0377,0.6001,0.1642,-0.3046,-0.1127,-1.4756,-1.4402,1.0751,
0.483838,0.6197,-0.0178,0.5266,0.1642,-0.3046,-0.1127,-1.4756,-1.4402,1.0751,
0.484604,0.5862,-0.0575,0.4970,0.1642,-0.3046,-0.1127,-1.4756,-1.4402,1.0751,
0.485271,0.5862,-0.0575,0.4970,0.1642,-0.3046,-0.1127,-0.2005,-4.0373,0.9196,
0.486090,0.5862,-0.0575,0.4970,-0.0554,-0.1533,1.1722,-0.2005,-4.0373,0.9196,
0.522397,0.5862,-0.0575,0.4970,-0.0554,-0.1533,1.1722,0.6379,-5.1889,1.3009,
0.524372,0.5862,-0.0575,0.4970,-0.2821,-0.6629,1.4604,0.6379,-5.1889,1.3009,
0.561207,0.7152,-0.0164,0.4657,-0.2821,-0.6629,1.4604,0.6379,-5.1889,1.3009,
0.563762,0.7830,-0.0991,0.4314,-0.2821,-0.6629,1.4604,0.6379,-5.1889,1.3009,
0.564963,0.7498,-0.1855,0.4959,-0.2821,-0.6629,1.4604,0.6379,-5.1889,1.3009,
0.566447,0.7368,-0.2731,0.5759,-0.2821,-0.6629,1.4604,0.6379,-5.1889,1.3009,
0.567582,0.8131,-0.3548,0.6887,-0.2821,-0.6629,1.4604,0.6379,-5.1889,1.3009,
0.569200,0.8131,-0.3548,0.6887,-0.2821,-0.6629,1.4604,1.3111,-5.5969,1.8506,
0.570340,0.8131,-0.3548,0.6887,-0.6613,-0.1872,2.7489,1.3111,-5.5969,1.8506,
0.602604,0.8131,-0.3548,0.6887,-0.6613,-0.1872,2.7489,2.3593,-3.7561,3.0160,
0.604780,0.8131,-0.3548,0.6887,-0.6379,0.5607,3.3445,2.3593,-3.7561,3.0160,
0.637399,1.0447,-0.3762,0.5918,-0.6379,0.5607,3.3445,2.3593,-3.7561,3.0160,
0.640093,1.2586,-0.3892,0.4161,-0.6379,0.5607,3.3445,2.3593,-3.7561,3.0160,
0.641881,1.2799,-0.3950,0.1981,-0.6379,0.5607,3.3445,2.3593,-3.7561,3.0160,
0.643272,1.2799,-0.3950,0.1981,-0.6379,0.5607,3.3445,2.6970,-1.9675,3.3974,
0.644550,1.2799,-0.3950,0.1981,0.2851,-0.6691,4.6466,2.6970,-1.9675,3.3974,
0.681393,1.2799,-0.3950,0.1981,4.3220,-0.7374,1.9585,2.6970,-1.9675,3.3974,
0.684149,1.2799,-0.3950,0.1981,4.3220,-0.7374,1.9585,2.9719,-2.3372,3.2056,
0.715261,1.2687,-0.4970,0.1529,4.3220,-0.7374,1.9585,2.9719,-2.3372,3.2056,
0.717431,1.4468,-0.5646,0.2138,4.3220,-0.7374,1.9585,2.9719,-2.3372,3.2056,
0.719114,1.7203,-0.4826,0.1952,4.3220,-0.7374,1.9585,2.9719,-2.3372,3.2056,
0.720459,1.7108,-0.4022,0.0424,4.3220,-0.7374,1.9585,2.9719,-2.3372,3.2056,
0.722329,1.5216,-0.4425,-0.1602,4.3220,-0.7374,1.9585,2.9719,-2.3372,3.2056,
0.724248,1.5216,-0.4425,-0.1602,4.3220,-0.7374,1.9585,3.8006,-2.3500,2.3183,
0.725819,1.5216,-0.4425,-0.1602,7.0027,-1.0762,0.6550,3.8006,-2.3500,2.3183,
0.761054,1.5216,-0.4425,-0.1602,6.4924,-0.7501,0.4823,3.8006,-2.3500,2.3183,
0.762940,1.5216,-0.4425,-0.1602,6.4924,-0.7501,0.4823,3.7080,-1.4296,1.2690,
0.793103,1.4281,-0.5183,-0.3565,6.4924,-0.7501,0.4823,3.7080,-1.4296,1.2690,
0.795224,1.3343,-0.5943,-0.3250,6.4924,-0.7501,0.4823,3.7080,-1.4296,1.2690,
0.796875,1.3299,-0.6024,-0.2134,6.4924,-0.7501,0.4823,3.7080,-1.4296,1.2690,
0.798967,1.5327,-0.3029,-1.4414,6.4924,-0.7501,0.4823,3.7080,-1.4296,1.2690,
0.800676,1.5327,-0.3029,-1.4414,6.4924,-0.7501,0.4823,2.4478,-0.6051,0.8706,
0.802021,1.5327,-0.3029,-1.4414,5.3651,-0.3369,-3.4433,2.4478,-0.6051,0.8706,
0.840228,1.5327,-0.3029,-1.4414,5.3651,-0.3369,-3.4433,0.2320,0.0618,0.6053,
0.846941,1.5327,-0.3029,-1.4414,5.0196,-0.1174,-3.2132,0.2320,0.0618,0.6053,
0.863726,0.7841,-0.5418,-0.4886,5.0196,-0.1174,-3.2132,0.2320,0.0618,0.6053,
0.865941,0.6517,-0.6924,-0.1663,5.0196,-0.1174,-3.2132,0.2320,0.0618,0.6053,
0.867699,0.5248,-0.6911,0.3788,5.0196,-0.1174,-3.2132,0.2320,0.0618,0.6053,
0.879244,0.5248,-0.6911,0.3788,3.3054,0.3179,-7.5797,0.2320,0.0618,0.6053,
0.881571,0.5248,-0.6911,0.3788,3.3054,0.3179,-7.5797,0.3407,0.3846,1.1902,
0.919258,0.5248,-0.6911,0.3788,3.3054,0.3179,-7.5797,1.0533,-0.2727,1.1859,
0.921524,0.5248,-0.6911,0.3788,-3.0840,-0.8486,-0.1260,1.0533,-0.2727,1.1859,
0.940579,0.6336,-0.4521,-0.0003,-3.0840,-0.8486,-0.1260,1.0533,-0.2727,1.1859,
0.944128,0.7630,-0.2904,-0.0853,-3.0840,-0.8486,-0.1260,1.0533,-0.2727,1.1859,
0.946227,0.8824,-0.2445,0.0660,-3.0840,-0.8486,-0.1260,1.0533,-0.2727,1.1859,
0.947859,0.7089,-0.3845,0.0836,-3.0840,-0.8486,-0.1260,1.0533,-0.2727,1.1859,
0.961342,0.7089,-0.3845,0.0836,-1.1340,2.6213,-0.8465,1.0533,-0.2727,1.1859,
0.964135,0.7089,-0.3845,0.0836,-1.1340,2.6213,-0.8465,0.3257,0.4410,0.8844,
0.997770,0.7089,-0.3845,0.0836,-1.1340,2.6213,-0.8465,0.3524,0.2408,1.0442,
0.999556,0.7089,-0.3845,0.0836,-1.4685,2.2647,-0.6190,0.3524,0.2408,1.0442,
1.018939,0.8664,-0.2963,0.1353,-1.4685,2.2647,-0.6190,0.3524,0.2408,1.0442,
1.021089,0.6708,-0.4124,-0.0739,-1.4685,2.2647,-0.6190,0.3524,0.2408,1.0442,
1.022415,0.5938,-0.2619,0.0537,-1.4685,2.2647,-0.6190,0.3524,0.2408,1.0442,
1.024572,0.8372,-0.2826,-0.0290,-1.4685,2.2647,-0.6190,0.3524,0.2408,1.0442,
1.039219,0.8372,-0.2826,-0.0290,-1.4685,2.2647,-0.6190,0.5026,-0.4517,1.3350,
1.041310,0.8372,-0.2826,-0.0290,-1.0922,2.5184,-0.5543,0.5026,-0.4517,1.3350,
1.077169,0.8372,-0.2826,-0.0290,-1.0922,2.5184,-0.5543,0.3566,-0.9641,1.1433,
1.078889,0.8372,-0.2826,-0.0290,0.2547,2.5315,0.4792,0.3566,-0.9641,1.1433,
1.087207,0.8916,-0.4774,0.1728,0.2547,2.5315,0.4792,0.3566,-0.9641,1.1433,
1.088813,0.7839,-0.6166,0.1706,0.2547,2.5315,0.4792,0.3566,-0.9641,1.1433,
1.089919,0.8892,-0.5278,0.1706,0.2547,2.5315,0.4792,0.3566,-0.9641,1.1433,
1.116670,0.8892,-0.5278,0.1706,0.4430,2.6432,0.6338,0.3566,-0.9641,1.1433,
1.120296,0.8892,-0.5278,0.1706,0.4430,2.6432,0.6338,0.3098,-0.8905,0.9249,
1.158403,0.8892,-0.5278,0.1706,0.4430,2.6432,0.6338,-0.3283,-0.5379,0.7950,
1.161085,0.8399,-0.5467,0.1333,0.4430,2.6432,0.6338,-0.3283,-0.5379,0.7950,
1.162704,0.8049,-0.5662,0.1841,0.4430,2.6432,0.6338,-0.3283,-0.5379,0.7950,
1.163869,0.9264,-0.8312,0.3053,0.4430,2.6432,0.6338,-0.3283,-0.5379,0.7950,
1.165244,0.7067,-1.4773,0.1437,0.4430,2.6432,0.6338,-0.3283,-0.5379,0.7950,
1.166756,0.7067,-1.4773,0.1437,0.7147,0.9859,1.0355,-0.3283,-0.5379,0.7950,
1.195727,0.7067,-1.4773,0.1437,0.7147,0.9859,1.0355,-0.4327,-1.2016,0.8280,
1.197406,0.7067,-1.4773,0.1437,0.4302,-3.9051,2.1654,-0.4327,-1.2016,0.8280,
1.228946,0.6243,-1.5755,0.0656,0.4302,-3.9051,2.1654,-0.4327,-1.2016,0.8280,
1.231103,0.5433,-1.0939,0.1629,0.4302,-3.9051,2.1654,-0.4327,-1.2016,0.8280,
1.232536,0.3718,-0.8877,0.0141,0.4302,-3.9051,2.1654,-0.4327,-1.2016,0.8280,
1.233828,0.3451,-0.5677,-0.2763,0.4302,-3.9051,2.1654,-0.4327,-1.2016,0.8280,
1.237065,0.3451,-0.5677,-0.2763,0.4302,-3.9051,2.1654,0.1010,-2.4789,1.5982,
1.239026,0.3451,-0.5677,-0.2763,-2.2101,-2.5088,0.8365,0.1010,-2.4789,1.5982,
1.276716,0.3451,-0.5677,-0.2763,-2.2101,-2.5088,0.8365,0.9894,-4.1407,1.8730,
1.278819,0.3451,-0.5677,-0.2763,-1.3806,-1.8968,1.4842,0.9894,-4.1407,1.8730,
1.306262,0.3037,-0.6676,0.5459,-1.3806,-1.8968,1.4842,0.9894,-4.1407,1.8730,
1.307997,0.8398,-0.9737,-0.4738,-1.3806,-1.8968,1.4842,0.9894,-4.1407,1.8730,
1.309510,0.7685,-1.1024,-0.1909,-1.3806,-1.8968,1.4842,0.9894,-4.1407,1.8730,
1.310670,0.4225,-1.2002,-0.1515,-1.3806,-1.8968,1.4842,0.9894,-4.1407,1.8730,
1.317554,0.4225,-1.2002,-0.1515,-1.3806,-1.8968,1.4842,0.7519,-0.2322,0.0237,
1.319414,0.4225,-1.2002,-0.1515,-0.2136,0.4366,0.3791,0.7519,-0.2322,0.0237,
1.354783,0.4225,-1.2002,-0.1515,-0.2136,0.4366,0.3791,-0.7491,0.6488,-0.1510,
1.357126,0.4225,-1.2002,-0.1515,-0.2781,0.3501,0.4494,-0.7491,0.6488,-0.1510,
1.385237,0.3654,-0.9866,-0.0046,-0.2781,0.3501,0.4494,-0.7491,0.6488,-0.1510,
1.387681,0.4378,-0.7679,0.1413,-0.2781,0.3501,0.4494,-0.7491,0.6488,-0.1510,
1.389467,0.4596,-0.6051,0.0735,-0.2781,0.3501,0.4494,-0.7491,0.6488,-0.1510,
1.390717,0.4091,-0.4132,-0.1711,-0.2781,0.3501,0.4494,-0.7491,0.6488,-0.1510,
1.401696,0.4091,-0.4132,-0.1711,-0.2781,0.3501,0.4494,-0.4924,0.1268,-0.1063,
1.403489,0.4091,-0.4132,-0.1711,-1.4161,-2.1461,0.8101,-0.4924,0.1268,-0.1063,
1.433912,0.4091,-0.4132,-0.1711,-1.2105,-1.9676,0.8867,-0.4924,0.1268,-0.1063,
1.435727,0.4091,-0.4132,-0.1711,-1.2105,-1.9676,0.8867,-0.3613,-0.0042,0.4519,
1.474511,0.2740,-0.4703,-0.0132,-1.2105,-1.9676,0.8867,-0.3613,-0.0042,0.4519,
1.476837,0.3150,-0.4453,0.0311,-1.2105,-1.9676,0.8867,-0.3613,-0.0042,0.4519,
1.478075,0.3433,-0.1650,0.1260,-1.2105,-1.9676,0.8867,-0.3613,-0.0042,0.4519,
1.479274,0.3433,-0.1650,0.1260,-1.2105,-1.9676,0.8867,0.3950,0.1864,1.7505,
1.480521,0.3433,-0.1650,0.1260,-1.1574,3.3947,0.9536,0.3950,0.1864,1.7505,
1.507819,0.4492,-0.1512,-0.2466,-1.1574,3.3947,0.9536,0.3950,0.1864,1.7505,
1.509772,0.3009,-0.4746,-0.2507,-1.1574,3.3947,0.9536,0.3950,0.1864,1.7505,
1.511168,0.1448,-0.9139,-0.2233,-1.1574,3.3947,0.9536,0.3950,0.1864,1.7505,
1.513427,0.1448,-0.9139,-0.2233,-1.1574,3.3947,0.9536,0.2000,-0.3952,1.5566,
1.514613,0.1448,-0.9139,-0.2233,-0.9797,5.6892,1.3109,0.2000,-0.3952,1.5566,
1.552973,0.1448,-0.9139,-0.2233,-0.9797,5.6892,1.3109,-1.1560,0.1960,1.9390,
1.554472,0.1448,-0.9139,-0.2233,-0.2978,5.6978,1.6161,-1.1560,0.1960,1.9390,
1.592821,0.1448,-0.9139,-0.2233,-0.2978,5.6978,1.6161,-0.9174,0.9918,3.0128,
1.594911,0.1448,-0.9139,-0.2233,0.3662,0.0149,-0.8435,-0.9174,0.9918,3.0128,
1.633147,0.1448,-0.9139,-0.2233,0.3662,0.0149,-0.8435,-0.4082,-0.2844,1.7057,
1.635780,0.1448,-0.9139,-0.2233,0.9597,0.1465,-0.6455,-0.4082,-0.2844,1.7057,
1.653312,0.5212,-1.7034,-0.1693,0.9597,0.1465,-0.6455,-0.4082,-0.2844,1.7057,
1.655318,0.4330,-1.0181,-0.1988,0.9597,0.1465,-0.6455,-0.4082,-0.2844,1.7057,
1.656305,0.0023,-1.0401,-0.4363,0.9597,0.1465,-0.6455,-0.4082,-0.2844,1.7057,
1.671826,0.0023,-1.0401,-0.4363,0.9597,0.1465,-0.6455,-0.1909,0.0970,-0.2000,
1.673255,0.0023,-1.0401,-0.4363,0.8541,-3.0412,-0.7329,-0.1909,0.0970,-0.2000,
1.713704,0.0023,-1.0401,-0.4363,-3.5704,-0.1293,-0.4570,-0.1909,0.0970,-0.2000,
1.715926,0.0023,-1.0401,-0.4363,-3.5704,-0.1293,-0.4570,-0.4498,0.8916,-0.4429,
1.741311,-0.1587,-1.0134,-0.3764,-3.5704,-0.1293,-0.4570,-0.4498,0.8916,-0.4429,
1.743511,-0.1555,-0.9309,-0.2320,-3.5704,-0.1293,-0.4570,-0.4498,0.8916,-0.4429,
1.744275,-0.0553,-0.9040,-0.1412,-3.5704,-0.1293,-0.4570,-0.4498,0.8916,-0.4429,
1.745137,0.0307,-0.9817,-0.1077,-3.5704,-0.1293,-0.4570,-0.4498,0.8916,-0.4429,
1.749853,0.0307,-0.9817,-0.1077,-3.5704,-0.1293,-0.4570,-0.4444,0.5550,-0.0061,
1.751454,0.0307,-0.9817,-0.1077,-3.4835,-0.1597,-0.3357,-0.4444,0.5550,-0.0061,
1.790265,0.0307,-0.9817,-0.1077,-3.4835,-0.1597,-0.3357,-0.0705,0.3292,-0.0679,
1.792010,0.0307,-0.9817,-0.1077,-1.8249,-0.6497,0.2038,-0.0705,0.3292,-0.0679,
1.829166,0.0639,-0.9944,-0.1869,-1.8249,-0.6497,0.2038,-0.0705,0.3292,-0.0679,
1.831466,0.0390,-1.0259,-0.2863,-1.8249,-0.6497,0.2038,-0.0705,0.3292,-0.0679,
1.833145,-0.0416,-1.0562,-0.3227,-1.8249,-0.6497,0.2038,-0.0705,0.3292,-0.0679,
1.835274,-0.1171,-1.0418,-0.3027,-1.8249,-0.6497,0.2038,-0.0705,0.3292,-0.0679,
1.837338,-0.1171,-1.0418,-0.3027,-1.8249,-0.6497,0.2038,-0.0780,0.3004,-0.0775,
1.838669,-0.1171,-1.0418,-0.3027,-1.8109,-0.6395,0.1976,-0.0780,0.3004,-0.0775,
1.870299,-0.1171,-1.0418,-0.3027,-1.8109,-0.6395,0.1976,-0.0215,0.4858,0.0951,
1.872148,-0.1171,-1.0418,-0.3027,-3.1607,-0.9169,-0.7636,-0.0215,0.4858,0.0951,
1.910040,-0.1171,-1.0418,-0.3027,-3.1607,-0.9169,-0.7636,0.1308,0.7563,0.1814,
1.911538,-0.1171,-1.0418,-0.3027,-3.0466,-0.8603,-0.8453,0.1308,0.7563,0.1814,
1.912638,-0.1538,-1.0010,-0.2472,-3.0466,-0.8603,-0.8453,0.1308,0.7563,0.1814,
1.913599,-0.1614,-1.0139,-0.2206,-3.0466,-0.8603,-0.8453,0.1308,0.7563,0.1814,
1.914379,-0.1047,-1.0266,-0.2543,-3.0466,-0.8603,-0.8453,0.1308,0.7563,0.1814,
1.915038,-0.0241,-0.9401,-0.2560,-3.0466,-0.8603,-0.8453,0.1308,0.7563,0.1814,
1.915848,0.0409,-0.8168,-0.1839,-3.0466,-0.8603,-0.8453,0.1308,0.7563,0.1814,
1.948401,0.0409,-0.8168,-0.1839,-3.0466,-0.8603,-0.8453,0.2384,1.0909,0.1057,
1.949941,0.0409,-0.8168,-0.1839,-2.9167,-0.4325,-0.5399,0.2384,1.0909,0.1057,
1.989752,0.0409,-0.8168,-0.1839,-0.5236,1.8254,0.6531,0.2384,1.0909,0.1057,
1.991459,0.0409,-0.8168,-0.1839,-0.5236,1.8254,0.6531,0.5931,0.9896,0.0258,
1.992627,0.1431,-0.7388,-0.1001,-0.5236,1.8254,0.6531,0.5931,0.9896,0.0258,
1.993876,0.2708,-0.7281,0.0162,-0.5236,1.8254,0.6531,0.5931,0.9896,0.0258,
1.994840,0.4081,-0.8698,0.0418,-0.5236,1.8254,0.6531,0.5931,0.9896,0.0258,
1.995949,0.3781,-1.1300,-0.0884,-0.5236,1.8254,0.6531,0.5931,0.9896,0.0258,
2.030081,0.3781,-1.1300,-0.0884,-0.5359,1.8107,0.2829,0.5931,0.9896,0.0258,
2.032394,0.3781,-1.1300,-0.0884,-0.5359,1.8107,0.2829,0.9457,0.1502,-0.0573,
2.068559,0.3781,-1.1300,-0.0884,-0.5359,1.8107,0.2829,0.8818,-0.4410,-0.2639,
2.071531,0.3781,-1.1300,-0.0884,1.4506,-1.3707,0.0885,0.8818,-0.4410,-0.2639,
2.073776,0.3155,-1.2756,-0.1917,1.4506,-1.3707,0.0885,0.8818,-0.4410,-0.2639,
2.075272,0.3383,-1.1915,-0.3994,1.4506,-1.3707,0.0885,0.8818,-0.4410,-0.2639,
2.079185,0.2376,-0.9875,-0.6911,1.4506,-1.3707,0.0885,0.8818,-0.4410,-0.2639,
2.080431,-0.0490,-0.8554,-0.8370,1.4506,-1.3707,0.0885,0.8818,-0.4410,-0.2639,
2.107307,-0.0490,-0.8554,-0.8370,1.4506,-1.3707,0.0885,-0.6287,-0.6264,0.0035,
2.110182,-0.0490,-0.8554,-0.8370,-0.3897,-0.5905,-4.9880,-0.6287,-0.6264,0.0035,
2.141047,-0.1171,-0.7716,-0.2040,-0.3897,-0.5905,-4.9880,-0.6287,-0.6264,0.0035,
2.143414,0.2830,-0.8832,0.5180,-0.3897,-0.5905,-4.9880,-0.6287,-0.6264,0.0035,
2.145091,0.5344,-1.0332,0.4777,-0.3897,-0.5905,-4.9880,-0.6287,-0.6264,0.0035,
2.150050,0.5344,-1.0332,0.4777,-0.3897,-0.5905,-4.9880,-0.6660,-1.2431,0.5691,
2.152831,0.5344,-1.0332,0.4777,0.4471,0.5305,4.1135,-0.6660,-1.2431,0.5691,
2.186518,0.5344,-1.0332,0.4777,0.4471,0.5305,4.1135,0.7817,-1.3039,0.0024,
2.188294,0.5344,-1.0332,0.4777,2.1154,-0.5379,0.5793,0.7817,-1.3039,0.0024,
2.226727,0.5344,-1.0332,0.4777,2.1154,-0.5379,0.5793,0.5463,-0.9140,-0.2597,
2.229193,0.5344,-1.0332,0.4777,2.0050,-0.5148,0.4303,0.5463,-0.9140,-0.2597,
2.230535,0.5293,-1.0093,0.1254,2.0050,-0.5148,0.4303,0.5463,-0.9140,-0.2597,
2.231793,0.4145,-0.9831,-0.1094,2.0050,-0.5148,0.4303,0.5463,-0.9140,-0.2597,
2.233178,0.2628,-1.0413,-0.2406,2.0050,-0.5148,0.4303,0.5463,-0.9140,-0.2597,
2.234565,0.1482,-1.0486,-0.2255,2.0050,-0.5148,0.4303,0.5463,-0.9140,-0.2597,
2.237214,0.0930,-0.9846,-0.0378,2.0050,-0.5148,0.4303,0.5463,-0.9140,-0.2597,
2.266324,0.0930,-0.9846,-0.0378,2.0050,-0.5148,0.4303,0.1841,-0.9225,-0.0168,
2.269054,0.0930,-0.9846,-0.0378,1.9827,-0.4932,0.4199,0.1841,-0.9225,-0.0168,
2.306376,0.0930,-0.9846,-0.0378,1.9827,-0.4932,0.4199,0.5164,-0.9172,0.0184,
2.308971,0.0930,-0.9846,-0.0378,-0.6097,-0.2880,0.4317,0.5164,-0.9172,0.0184,
2.310792,0.1521,-0.9475,0.0836,-0.6097,-0.2880,0.4317,0.5164,-0.9172,0.0184,
2.311841,0.2276,-0.9448,0.0592,-0.6097,-0.2880,0.4317,0.5164,-0.9172,0.0184,
2.313209,0.1853,-0.9641,-0.0483,-0.6097,-0.2880,0.4317,0.5164,-0.9172,0.0184,
2.314207,0.0790,-0.9922,-0.1656,-0.6097,-0.2880,0.4317,0.5164,-0.9172,0.0184,
2.346622,0.0790,-0.9922,-0.1656,-0.6097,-0.2880,0.4317,0.5026,-0.8117,0.0407,
2.349777,0.0790,-0.9922,-0.1656,-0.2347,-0.0056,0.3746,0.5026,-0.8117,0.0407,
2.390134,0.0715,-1.0012,-0.1739,-0.2347,-0.0056,0.3746,0.5026,-0.8117,0.0407,
2.391547,0.1260,-1.0020,-0.1429,-0.2347,-0.0056,0.3746,0.5026,-0.8117,0.0407,
2.392403,0.2110,-0.9880,-0.1094,-0.2347,-0.0056,0.3746,0.5026,-0.8117,0.0407,
2.393192,0.2110,-0.9880,-0.1094,-0.2347,-0.0056,0.3746,0.1809,-0.8703,0.2751,
2.394260,0.2110,-0.9880,-0.1094,-0.3646,-0.2673,-0.5049,0.1809,-0.8703,0.2751,
2.425262,0.2110,-0.9880,-0.1094,-0.3646,-0.2673,-0.5049,0.0520,-0.8980,0.3039,
2.426977,0.2110,-0.9880,-0.1094,1.3694,0.3109,1.4326,0.0520,-0.8980,0.3039,
2.465735,0.2110,-0.9880,-0.1094,1.3694,0.3109,1.4326,0.2650,-0.7734,0.1249,
2.467323,0.2110,-0.9880,-0.1094,1.4062,0.3193,1.3445,0.2650,-0.7734,0.1249,
2.468261,0.2708,-0.9492,-0.0366,1.4062,0.3193,1.3445,0.2650,-0.7734,0.1249,
2.469296,0.3199,-0.9301,0.0790,1.4062,0.3193,1.3445,0.2650,-0.7734,0.1249,
2.470219,0.3146,-0.9389,0.1244,1.4062,0.3193,1.3445,0.2650,-0.7734,0.1249,
2.471528,0.2562,-0.9636,0.0611,1.4062,0.3193,1.3445,0.2650,-0.7734,0.1249,
2.472600,0.2078,-0.9841,-0.0405,1.4062,0.3193,1.3445,0.2650,-0.7734,0.1249,
2.504299,0.2078,-0.9841,-0.0405,1.4062,0.3193,1.3445,0.1883,-0.5688,-0.0072,
2.505729,0.2078,-0.9841,-0.0405,1.3847,0.3164,1.2745,0.1883,-0.5688,-0.0072,
2.543700,0.2078,-0.9841,-0.0405,1.3847,0.3164,1.2745,-0.3145,-0.4144,-0.0647,
2.545719,0.2078,-0.9841,-0.0405,0.5241,-0.0609,0.6326,-0.3145,-0.4144,-0.0647,
2.546531,0.1856,-0.9822,-0.0896,0.5241,-0.0609,0.6326,-0.3145,-0.4144,-0.0647,
2.547163,0.1516,-0.9543,-0.0882,0.5241,-0.0609,0.6326,-0.3145,-0.4144,-0.0647,
2.548849,0.1032,-0.9533,-0.0806,0.5241,-0.0609,0.6326,-0.3145,-0.4144,-0.0647,
2.549632,0.0605,-0.9927,-0.0720,0.5241,-0.0609,0.6326,-0.3145,-0.4144,-0.0647,
2.583895,0.0605,-0.9927,-0.0720,0.5241,-0.0609,0.6326,-0.7161,-0.3622,-0.1563,
2.586078,0.0605,-0.9927,-0.0720,-0.5973,-0.0028,0.3553,-0.7161,-0.3622,-0.1563,
2.623212,0.0605,-0.9927,-0.0720,-0.5973,-0.0028,0.3553,-0.7225,0.1332,-0.3321,
2.625332,0.0605,-0.9927,-0.0720,-1.9564,-1.2420,0.9393,-0.7225,0.1332,-0.3321,
2.626967,0.0365,-1.0095,-0.0527,-1.9564,-1.2420,0.9393,-0.7225,0.1332,-0.3321,
2.628391,-0.0021,-1.0581,0.0018,-1.9564,-1.2420,0.9393,-0.7225,0.1332,-0.3321,
2.629568,-0.1096,-1.2033,-0.0840,-1.9564,-1.2420,0.9393,-0.7225,0.1332,-0.3321,
2.631067,-0.2254,-1.3315,-0.3977,-1.9564,-1.2420,0.9393,-0.7225,0.1332,-0.3321,
2.662601,-0.2254,-1.3315,-0.3977,-1.9564,-1.2420,0.9393,-0.9568,0.1960,-0.3225,
2.664790,-0.2254,-1.3315,-0.3977,-2.0389,-1.2920,1.2514,-0.9568,0.1960,-0.3225,
2.703427,-0.2254,-1.3315,-0.3977,-2.0389,-1.2920,1.2514,-1.9443,-0.2439,-0.3364,
2.705769,-0.2254,-1.3315,-0.3977,-2.9258,-3.5052,-3.2347,-1.9443,-0.2439,-0.3364,
2.707269,-0.1381,-1.3342,-0.6454,-2.9258,-3.5052,-3.2347,-1.9443,-0.2439,-0.3364,
2.708684,0.0272,-1.2521,-0.7138,-2.9258,-3.5052,-3.2347,-1.9443,-0.2439,-0.3364,
2.710213,0.0869,-1.1077,-0.4385,-2.9258,-3.5052,-3.2347,-1.9443,-0.2439,-0.3364,
2.711382,0.0487,-0.9646,-0.0293,-2.9258,-3.5052,-3.2347,-1.9443,-0.2439,-0.3364,
2.741561,0.0487,-0.9646,-0.0293,-2.9258,-3.5052,-3.2347,-1.5576,0.7361,-0.4163,
2.743286,0.0487,-0.9646,-0.0293,-3.0866,-3.6217,-2.6611,-1.5576,0.7361,-0.4163,
2.781247,0.0487,-0.9646,-0.0293,-3.0866,-3.6217,-2.6611,-0.2996,0.6275,-0.3726,
2.783972,0.0487,-0.9646,-0.0293,-1.6640,-0.6624,1.7989,-0.2996,0.6275,-0.3726,
2.785788,0.0170,-0.9235,0.0716,-1.6640,-0.6624,1.7989,-0.2996,0.6275,-0.3726,
2.787844,-0.0658,-0.9411,0.0621,-1.6640,-0.6624,1.7989,-0.2996,0.6275,-0.3726,
2.789188,-0.0622,-0.8752,0.1478,-1.6640,-0.6624,1.7989,-0.2996,0.6275,-0.3726,
2.791140,-0.0888,-0.7276,0.1935,-1.6640,-0.6624,1.7989,-0.2996,0.6275,-0.3726,
2.821018,-0.0888,-0.7276,0.1935,-1.6640,-0.6624,1.7989,0.4035,-0.0618,-0.2341,
2.822735,-0.0888,-0.7276,0.1935,-2.8827,0.8231,4.1757,0.4035,-0.0618,-0.2341,
2.861501,-0.0888,-0.7276,0.1935,-2.8827,0.8231,4.1757,0.9511,-0.0831,0.0418,
2.863790,-0.0888,-0.7276,0.1935,-2.5855,2.3092,3.4666,0.9511,-0.0831,0.0418,
2.865191,-0.0903,-0.5971,0.1527,-2.5855,2.3092,3.4666,0.9511,-0.0831,0.0418,
2.866790,-0.0536,-0.6411,0.1437,-2.5855,2.3092,3.4666,0.9511,-0.0831,0.0418,
2.867936,-0.0070,-0.8671,0.0174,-2.5855,2.3092,3.4666,0.9511,-0.0831,0.0418,
2.869411,0.0529,-1.1065,-0.0146,-2.5855,2.3092,3.4666,0.9511,-0.0831,0.0418,
2.900554,0.0529,-1.1065,-0.0146,-2.5855,2.3092,3.4666,1.3367,-0.1385,0.2218,
2.902901,0.0529,-1.1065,-0.0146,-2.4378,2.3908,2.9225,1.3367,-0.1385,0.2218,
2.939851,0.0529,-1.1065,-0.0146,-2.4378,2.3908,2.9225,0.8381,-0.4463,0.1281,
2.941666,0.0529,-1.1065,-0.0146,-1.2827,-2.9549,-1.1171,0.8381,-0.4463,0.1281,
2.943255,0.1140,-1.2981,-0.1700,-1.2827,-2.9549,-1.1171,0.8381,-0.4463,0.1281,
2.944702,0.0036,-1.3777,-0.6613,-1.2827,-2.9549,-1.1171,0.8381,-0.4463,0.1281,
2.946493,-0.2273,-1.3462,-0.9386,-1.2827,-2.9549,-1.1171,0.8381,-0.4463,0.1281,
2.947809,-0.3495,-1.2932,-0.7265,-1.2827,-2.9549,-1.1171,0.8381,-0.4463,0.1281,
2.979719,-0.3495,-1.2932,-0.7265,-1.2827,-2.9549,-1.1171,-1.1315,0.5763,0.6405,
2.981393,-0.3495,-1.2932,-0.7265,-1.0633,-2.9294,-0.7200,-1.1315,0.5763,0.6405,
3.018914,-0.3495,-1.2932,-0.7265,-1.0633,-2.9294,-0.7200,-1.9678,1.1867,0.9270,
3.021408,-0.3495,-1.2932,-0.7265,-3.8520,-3.3583,-4.4280,-1.9678,1.1867,0.9270,
3.023033,-0.2026,-1.2563,-0.5467,-3.8520,-3.3583,-4.4280,-1.9678,1.1867,0.9270,
3.023953,-0.0309,-1.2233,-0.3405,-3.8520,-3.3583,-4.4280,-1.9678,1.1867,0.9270,
3.024796,0.0856,-1.0708,-0.1238,-3.8520,-3.3583,-4.4280,-1.9678,1.1867,0.9270,
3.025500,0.1301,-0.8905,0.0074,-3.8520,-3.3583,-4.4280,-1.9678,1.1867,0.9270,
3.058980,0.1301,-0.8905,0.0074,-3.8520,-3.3583,-4.4280,-1.4181,0.7798,0.6479,
3.060950,0.1301,-0.8905,0.0074,-0.5456,-1.1511,1.7527,-1.4181,0.7798,0.6479,
3.100412,0.1301,-0.8905,0.0074,-0.2045,1.0890,4.5790,-1.4181,0.7798,0.6479,
3.103214,0.1301,-0.8905,0.0074,-0.2045,1.0890,4.5790,-0.3571,0.7553,0.5169,
3.104762,0.0910,-0.7980,0.1369,-0.2045,1.0890,4.5790,-0.3571,0.7553,0.5169,
3.106300,0.0524,-0.8204,0.2082,-0.2045,1.0890,4.5790,-0.3571,0.7553,0.5169,
3.107661,0.1172,-0.8664,0.0619,-0.2045,1.0890,4.5790,-0.3571,0.7553,0.5169,
3.108907,0.2185,-0.8505,-0.1348,-0.2045,1.0890,4.5790,-0.3571,0.7553,0.5169,
3.138966,0.2185,-0.8505,-0.1348,-0.2045,1.0890,4.5790,0.3226,0.9779,0.3763,
3.140489,0.2185,-0.8505,-0.1348,-0.1867,1.1221,4.3321,0.3226,0.9779,0.3763,
3.178073,0.2185,-0.8505,-0.1348,-0.1867,1.1221,4.3321,0.7423,0.9619,0.2048,
3.180397,0.2185,-0.8505,-0.1348,0.6602,1.6067,1.3660,0.7423,0.9619,0.2048,
3.181819,0.1892,-0.7989,-0.1663,0.6602,1.6067,1.3660,0.7423,0.9619,0.2048,
3.183025,0.1264,-0.7054,-0.0957,0.6602,1.6067,1.3660,0.7423,0.9619,0.2048,
3.184206,0.1787,-0.6399,-0.0549,0.6602,1.6067,1.3660,0.7423,0.9619,0.2048,
3.185348,0.1426,-0.8004,-0.1443,0.6602,1.6067,1.3660,0.7423,0.9619,0.2048,
3.217683,0.1426,-0.8004,-0.1443,0.6613,1.7016,0.8556,0.7423,0.9619,0.2048,
3.220385,0.1426,-0.8004,-0.1443,0.6613,1.7016,0.8556,1.2866,0.3633,0.1356,
3.257948,0.0336,-1.0694,-0.2391,0.6613,1.7016,0.8556,1.2866,0.3633,0.1356,
3.260359,0.0964,-1.3049,-0.3877,0.6613,1.7016,0.8556,1.2866,0.3633,0.1356,
3.261610,0.2662,-1.3152,-0.7683,0.6613,1.7016,0.8556,1.2866,0.3633,0.1356,
3.263833,0.2662,-1.3152,-0.7683,0.6613,1.7016,0.8556,1.2664,0.0458,0.1963,
3.265162,0.2662,-1.3152,-0.7683,0.1422,1.2748,0.2393,1.2664,0.0458,0.1963,
3.299839,0.2662,-1.3152,-0.7683,0.1422,1.2748,0.2393,0.4227,0.6285,-0.1116,
3.301322,0.2662,-1.3152,-0.7683,1.0364,-2.6672,-4.3746,0.4227,0.6285,-0.1116,
3.336853,0.2662,-1.3152,-0.7683,1.0364,-2.6672,-4.3746,0.0818,0.2258,-0.1084,
3.339238,0.2662,-1.3152,-0.7683,0.9630,-2.6167,-4.3325,0.0818,0.2258,-0.1084,
3.340839,0.2967,-1.1187,-0.6640,0.9630,-2.6167,-4.3325,0.0818,0.2258,-0.1084,
3.342219,0.1426,-1.0193,-0.3522,0.9630,-2.6167,-4.3325,0.0818,0.2258,-0.1084,
3.343486,0.0226,-1.0120,-0.3720,0.9630,-2.6167,-4.3325,0.0818,0.2258,-0.1084,
3.344568,-0.0292,-0.9829,-0.4021,0.9630,-2.6167,-4.3325,0.0818,0.2258,-0.1084,
3.346114,-0.0521,-0.9094,-0.3273,0.9630,-2.6167,-4.3325,0.0818,0.2258,-0.1084,
3.376476,-0.0521,-0.9094,-0.3273,0.9630,-2.6167,-4.3325,-0.4093,-0.1321,0.1302,
3.378666,-0.0521,-0.9094,-0.3273,-0.6753,-0.2661,-1.8699,-0.4093,-0.1321,0.1302,
3.415500,-0.0521,-0.9094,-0.3273,-0.6753,-0.2661,-1.8699,-0.4711,0.5113,-0.0509,
3.417492,-0.0521,-0.9094,-0.3273,-0.6014,1.0158,0.0482,-0.4711,0.5113,-0.0509,
3.418684,0.0356,-0.8454,-0.2103,-0.6014,1.0158,0.0482,-0.4711,0.5113,-0.0509,
3.420045,0.1895,-0.8497,-0.0488,-0.6014,1.0158,0.0482,-0.4711,0.5113,-0.0509,
3.420998,0.2532,-0.8918,0.0609,-0.6014,1.0158,0.0482,-0.4711,0.5113,-0.0509,
3.422388,0.1961,-0.8854,-0.0317,-0.6014,1.0158,0.0482,-0.4711,0.5113,-0.0509,
3.456520,0.1961,-0.8854,-0.0317,-0.7764,0.9693,0.0638,-0.4711,0.5113,-0.0509,
3.459223,0.1961,-0.8854,-0.0317,-0.7764,0.9693,0.0638,-0.1440,0.7542,-0.3449,
3.495509,0.0673,-0.8698,-0.1829,-0.7764,0.9693,0.0638,-0.1440,0.7542,-0.3449,
3.497770,-0.0192,-0.8769,-0.1847,-0.7764,0.9693,0.0638,-0.1440,0.7542,-0.3449,
3.499352,-0.0204,-0.8466,-0.0728,-0.7764,0.9693,0.0638,-0.1440,0.7542,-0.3449,
3.500413,-0.0204,-0.8466,-0.0728,-0.7764,0.9693,0.0638,-0.2016,0.8554,-0.3651,
3.501689,-0.0204,-0.8466,-0.0728,0.1396,0.7795,1.4769,-0.2016,0.8554,-0.3651,
3.535252,-0.0204,-0.8466,-0.0728,0.1396,0.7795,1.4769,-0.0705,1.4541,-0.4567,
3.537799,-0.0204,-0.8466,-0.0728,-2.0098,1.1930,1.0321,-0.0705,1.4541,-0.4567,
3.575058,-0.0204,-0.8466,-0.0728,-2.0098,1.1930,1.0321,0.6485,1.7875,-0.5622,
3.578878,-0.0204,-0.8466,-0.0728,-2.2994,1.1718,0.6408,0.6485,1.7875,-0.5622,
3.580217,-0.0263,-0.7794,-0.0051,-2.2994,1.1718,0.6408,0.6485,1.7875,-0.5622,
3.581508,-0.0949,-0.7254,0.0961,-2.2994,1.1718,0.6408,0.6485,1.7875,-0.5622,
3.582997,-0.1284,-0.7317,0.2006,-2.2994,1.1718,0.6408,0.6485,1.7875,-0.5622,
3.584048,-0.1215,-0.9475,0.0575,-2.2994,1.1718,0.6408,0.6485,1.7875,-0.5622,
3.585164,-0.1570,-1.2695,-0.1414,-2.2994,1.1718,0.6408,0.6485,1.7875,-0.5622,
3.613860,-0.1570,-1.2695,-0.1414,-2.2994,1.1718,0.6408,1.0938,2.1241,-0.4898,
3.616793,-0.1570,-1.2695,-0.1414,-3.4342,1.4755,2.0258,1.0938,2.1241,-0.4898,
3.654221,-0.1570,-1.2695,-0.1414,-3.4342,1.4755,2.0258,0.0935,3.9692,-0.5004,
3.656799,-0.1570,-1.2695,-0.1414,-2.9245,-4.9123,-3.7599,0.0935,3.9692,-0.5004,
3.658120,-0.0922,-1.5538,-0.4607,-2.9245,-4.9123,-3.7599,0.0935,3.9692,-0.5004,
3.659576,0.1318,-1.5490,-0.7055,-2.9245,-4.9123,-3.7599,0.0935,3.9692,-0.5004,
3.660751,0.0656,-1.1520,-0.1627,-2.9245,-4.9123,-3.7599,0.0935,3.9692,-0.5004,
3.662412,-0.1643,-0.8493,0.0638,-2.9245,-4.9123,-3.7599,0.0935,3.9692,-0.5004,
3.693443,-0.1643,-0.8493,0.0638,-2.9245,-4.9123,-3.7599,-0.4146,3.8041,-0.3417,
3.696026,-0.1643,-0.8493,0.0638,-3.0550,-4.8697,-3.9364,-0.4146,3.8041,-0.3417,
3.733267,-0.1643,-0.8493,0.0638,-3.0550,-4.8697,-3.9364,-0.5840,2.1167,0.6021,
3.736076,-0.1643,-0.8493,0.0638,-3.7289,0.1225,-0.2424,-0.5840,2.1167,0.6021,
3.737357,-0.3053,-0.8588,-0.0789,-3.7289,0.1225,-0.2424,-0.5840,2.1167,0.6021,
3.738645,-0.2557,-1.1031,-0.0779,-3.7289,0.1225,-0.2424,-0.5840,2.1167,0.6021,
3.739838,-0.0121,-1.3252,0.0193,-3.7289,0.1225,-0.2424,-0.5840,2.1167,0.6021,
3.741226,0.5432,-1.1891,0.1698,-3.7289,0.1225,-0.2424,-0.5840,2.1167,0.6021,
3.772506,0.5432,-1.1891,0.1698,-3.7289,0.1225,-0.2424,-0.5361,2.8815,0.9324,
3.775262,0.5432,-1.1891,0.1698,-1.1743,-2.2371,0.6353,-0.5361,2.8815,0.9324,
3.812538,0.5432,-1.1891,0.1698,-1.1743,-2.2371,0.6353,0.0712,2.8176,0.0642,
3.815275,0.5432,-1.1891,0.1698,5.7714,0.5402,1.4438,0.0712,2.8176,0.0642,
3.816810,0.8660,-0.9568,0.2243,5.7714,0.5402,1.4438,0.0712,2.8176,0.0642,
3.817777,0.8782,-0.8864,0.1769,5.7714,0.5402,1.4438,0.0712,2.8176,0.0642,
3.819118,0.6857,-0.9228,0.0433,5.7714,0.5402,1.4438,0.0712,2.8176,0.0642,
3.820345,0.3339,-1.0300,0.0330,5.7714,0.5402,1.4438,0.0712,2.8176,0.0642,
3.850943,0.3339,-1.0300,0.0330,5.7714,0.5402,1.4438,0.3534,2.5662,-0.2746,
3.853509,0.3339,-1.0300,0.0330,5.5906,0.5048,1.0681,0.3534,2.5662,-0.2746,
3.891471,0.1941,-1.1112,-0.1766,5.5906,0.5048,1.0681,0.3534,2.5662,-0.2746,
3.893893,0.1724,-1.0862,-0.3894,5.5906,0.5048,1.0681,0.3534,2.5662,-0.2746,
3.895031,0.2022,-0.9792,-0.4268,5.5906,0.5048,1.0681,0.3534,2.5662,-0.2746,
3.897449,0.2022,-0.9792,-0.4268,5.5906,0.5048,1.0681,0.0339,1.6831,0.0823,
3.898959,0.2022,-0.9792,-0.4268,0.0040,-0.9791,-2.2549,0.0339,1.6831,0.0823,
3.931351,0.2022,-0.9792,-0.4268,0.0040,-0.9791,-2.2549,-0.4370,1.0781,0.4903,
3.934146,0.2022,-0.9792,-0.4268,-0.7562,0.4071,-3.0741,-0.4370,1.0781,0.4903,
3.971292,0.2022,-0.9792,-0.4268,-0.7562,0.4071,-3.0741,-0.3496,1.5841,0.8812,
3.974049,0.2022,-0.9792,-0.4268,-0.3890,0.4702,-3.0079,-0.3496,1.5841,0.8812,
3.975276,0.1230,-0.9252,-0.3051,-0.3890,0.4702,-3.0079,-0.3496,1.5841,0.8812,
3.976673,0.0749,-0.9120,-0.0899,-0.3890,0.4702,-3.0079,-0.3496,1.5841,0.8812,
3.977924,0.1565,-0.9509,-0.1055,-0.3890,0.4702,-3.0079,-0.3496,1.5841,0.8812,
3.979253,0.1807,-0.9404,-0.2636,-0.3890,0.4702,-3.0079,-0.3496,1.5841,0.8812,
3.980554,0.1760,-0.8651,-0.4160,-0.3890,0.4702,-3.0079,-0.3496,1.5841,0.8812,
4.010443,0.1760,-0.8651,-0.4160,-0.3890,0.4702,-3.0079,-0.7012,0.9992,1.0495,
4.013164,0.1760,-0.8651,-0.4160,0.3872,0.7224,-2.6338,-0.7012,0.9992,1.0495,
4.050770,0.1760,-0.8651,-0.4160,0.3872,0.7224,-2.6338,-1.9262,-0.0820,1.1326,
4.053905,0.1760,-0.8651,-0.4160,1.4173,0.7837,-4.5832,-1.9262,-0.0820,1.1326,
4.055849,0.2063,-0.8097,-0.4971,1.4173,0.7837,-4.5832,-1.9262,-0.0820,1.1326,
4.057136,0.2437,-0.8798,-0.5956,1.4173,0.7837,-4.5832,-1.9262,-0.0820,1.1326,
4.058397,0.2508,-1.0518,-0.5413,1.4173,0.7837,-4.5832,-1.9262,-0.0820,1.1326,
4.059554,0.4015,-1.1769,-0.2233,1.4173,0.7837,-4.5832,-1.9262,-0.0820,1.1326,
4.089898,0.4015,-1.1769,-0.2233,1.4173,0.7837,-4.5832,-3.2525,-0.7031,0.8290,
4.092836,0.4015,-1.1769,-0.2233,1.7459,0.6173,-3.2627,-3.2525,-0.7031,0.8290,
4.130346,0.4015,-1.1769,-0.2233,6.8230,-4.0299,5.0915,-3.2525,-0.7031,0.8290,
4.133180,0.4015,-1.1769,-0.2233,6.8230,-4.0299,5.0915,-2.3683,-0.2759,-0.3662,
4.134359,0.7709,-1.2797,0.2790,6.8230,-4.0299,5.0915,-2.3683,-0.2759,-0.3662,
4.135712,1.1515,-1.6530,0.6203,6.8230,-4.0299,5.0915,-2.3683,-0.2759,-0.3662,
4.138387,1.1838,-1.7534,0.5966,6.8230,-4.0299,5.0915,-2.3683,-0.2759,-0.3662,
4.139737,0.9077,-1.1031,0.2834,6.8230,-4.0299,5.0915,-2.3683,-0.2759,-0.3662,
4.169007,0.9077,-1.1031,0.2834,6.8230,-4.0299,5.0915,-0.3592,-2.2509,-0.9862,
4.171526,0.9077,-1.1031,0.2834,6.6187,-4.0356,5.2103,-0.3592,-2.2509,-0.9862,
4.208304,0.9077,-1.1031,0.2834,6.6187,-4.0356,5.2103,0.2863,-3.0967,-1.1140,
4.211658,0.9077,-1.1031,0.2834,7.8964,-2.3660,6.4563,0.2863,-3.0967,-1.1140,
4.213141,0.6776,-0.7513,0.2060,7.8964,-2.3660,6.4563,0.2863,-3.0967,-1.1140,
4.214897,0.4968,-0.7369,0.2417,7.8964,-2.3660,6.4563,0.2863,-3.0967,-1.1140,
4.216890,0.2559,-0.9076,0.4198,7.8964,-2.3660,6.4563,0.2863,-3.0967,-1.1140,
4.218406,-0.0973,-1.1686,0.4745,7.8964,-2.3660,6.4563,0.2863,-3.0967,-1.1140,
4.247755,-0.0973,-1.1686,0.4745,7.8964,-2.3660,6.4563,0.3737,-2.0996,-1.1151,
4.250254,-0.0973,-1.1686,0.4745,0.8028,0.2150,6.4715,0.3737,-2.0996,-1.1151,
4.287376,-0.0973,-1.1686,0.4745,0.8028,0.2150,6.4715,0.6560,-0.9278,-0.3523,
4.290657,-0.0973,-1.1686,0.4745,-5.3124,-1.6961,8.2092,0.6560,-0.9278,-0.3523,
4.292028,-0.3651,-1.2783,0.6834,-5.3124,-1.6961,8.2092,0.6560,-0.9278,-0.3523,
4.293238,-0.5251,-1.2184,0.7034,-5.3124,-1.6961,8.2092,0.6560,-0.9278,-0.3523,
4.294431,-0.3441,-0.9257,0.3834,-5.3124,-1.6961,8.2092,0.6560,-0.9278,-0.3523,
4.295590,-0.2024,-0.9499,0.1503,-5.3124,-1.6961,8.2092,0.6560,-0.9278,-0.3523,
4.327713,-0.2024,-0.9499,0.1503,-5.3124,-1.6961,8.2092,1.2845,-3.3950,-0.0914,
4.330305,-0.2024,-0.9499,0.1503,-4.9593,-1.5590,7.7473,1.2845,-3.3950,-0.0914,
4.367443,0.0338,-1.1163,0.2712,-4.9593,-1.5590,7.7473,1.2845,-3.3950,-0.0914,
4.370070,0.2557,-1.2023,0.1307,-4.9593,-1.5590,7.7473,1.2845,-3.3950,-0.0914,
4.371357,0.3654,-1.1617,-0.4006,-4.9593,-1.5590,7.7473,1.2845,-3.3950,-0.0914,
4.372524,0.3654,-1.1617,-0.4006,-4.9593,-1.5590,7.7473,2.4957,-3.7369,-0.4067,
4.373649,0.3654,-1.1617,-0.4006,-0.5550,-0.9011,2.8898,2.4957,-3.7369,-0.4067,
4.406510,0.3654,-1.1617,-0.4006,-0.5550,-0.9011,2.8898,1.0650,-2.0293,-0.8488,
4.408969,0.3654,-1.1617,-0.4006,1.3140,-0.4200,-6.6643,1.0650,-2.0293,-0.8488,
4.446435,0.3654,-1.1617,-0.4006,1.3140,-0.4200,-6.6643,-0.1717,-2.4714,-0.4727,
4.449288,0.3654,-1.1617,-0.4006,1.1998,-0.4414,-6.3742,-0.1717,-2.4714,-0.4727,
4.450711,0.3273,-1.0330,-1.1502,1.1998,-0.4414,-6.3742,-0.1717,-2.4714,-0.4727,
4.451729,0.0522,-0.9306,-0.7527,1.1998,-0.4414,-6.3742,-0.1717,-2.4714,-0.4727,
4.453198,-0.1091,-1.0701,-0.0046,1.1998,-0.4414,-6.3742,-0.1717,-2.4714,-0.4727,
4.454196,-0.0929,-1.2116,0.1146,1.1998,-0.4414,-6.3742,-0.1717,-2.4714,-0.4727,
4.455524,-0.1003,-1.0953,0.0022,1.1998,-0.4414,-6.3742,-0.1717,-2.4714,-0.4727,
4.485597,-0.1003,-1.0953,0.0022,1.1998,-0.4414,-6.3742,0.3897,-2.8410,-0.1702,
4.487927,-0.1003,-1.0953,0.0022,-2.1200,-1.2329,1.4776,0.3897,-2.8410,-0.1702,
4.520872,-0.1623,-0.8840,-0.0376,-2.1200,-1.2329,1.4776,0.3897,-2.8410,-0.1702,
4.523386,-0.2063,-0.8075,-0.0119,-2.1200,-1.2329,1.4776,0.3897,-2.8410,-0.1702,
4.524586,-0.1675,-0.8583,-0.0420,-2.1200,-1.2329,1.4776,0.3897,-2.8410,-0.1702,
4.526161,-0.1675,-0.8583,-0.0420,-2.1200,-1.2329,1.4776,0.5335,-2.2051,0.0322,
4.528903,-0.1675,-0.8583,-0.0420,-2.7319,1.4682,0.6878,0.5335,-2.2051,0.0322,
4.565292,-0.1675,-0.8583,-0.0420,-2.7319,1.4682,0.6878,0.4323,-1.5457,0.2932,
4.568081,-0.1675,-0.8583,-0.0420,-0.6627,1.8635,-0.1100,0.4323,-1.5457,0.2932,
4.604699,-0.1675,-0.8583,-0.0420,-0.6627,1.8635,-0.1100,0.0168,-1.5095,0.5712,
4.607137,-0.1675,-0.8583,-0.0420,-0.3816,1.8477,-0.0751,0.0168,-1.5095,0.5712,
4.610410,-0.0798,-0.9035,-0.0503,-0.3816,1.8477,-0.0751,0.0168,-1.5095,0.5712,
4.611714,-0.0021,-0.8454,-0.0776,-0.3816,1.8477,-0.0751,0.0168,-1.5095,0.5712,
4.612772,0.1233,-0.6782,-0.1739,-0.3816,1.8477,-0.0751,0.0168,-1.5095,0.5712,
4.614019,0.3580,-0.5778,-0.1964,-0.3816,1.8477,-0.0751,0.0168,-1.5095,0.5712,
4.615320,0.6561,-0.6648,-0.0207,-0.3816,1.8477,-0.0751,0.0168,-1.5095,0.5712,
4.643416,0.6561,-0.6648,-0.0207,-0.3816,1.8477,-0.0751,-0.5797,-1.9036,0.4051,
4.645511,0.6561,-0.6648,-0.0207,-0.1450,1.7997,0.1761,-0.5797,-1.9036,0.4051,
4.683717,0.6561,-0.6648,-0.0207,-0.1450,1.7997,0.1761,-0.9909,-0.6051,-0.4333,
4.685551,0.6561,-0.6648,-0.0207,4.8782,2.4760,1.1792,-0.9909,-0.6051,-0.4333,
4.686624,0.6319,-0.9465,0.1097,4.8782,2.4760,1.1792,-0.9909,-0.6051,-0.4333,
4.687447,0.0729,-1.1549,0.1447,4.8782,2.4760,1.1792,-0.9909,-0.6051,-0.4333,
4.688249,-0.5913,-1.2585,-0.0901,4.8782,2.4760,1.1792,-0.9909,-0.6051,-0.4333,
4.689195,-0.9082,-1.3169,-0.4509,4.8782,2.4760,1.1792,-0.9909,-0.6051,-0.4333,
4.723875,-0.9082,-1.3169,-0.4509,4.8782,2.4760,1.1792,-2.2202,1.3433,-0.6037,
4.726590,-0.9082,-1.3169,-0.4509,-5.4023,-2.6986,1.0210,-2.2202,1.3433,-0.6037,
4.752471,-0.8801,-1.5749,-0.5724,-5.4023,-2.6986,1.0210,-2.2202,1.3433,-0.6037,
4.754745,-0.4868,-1.7202,-0.3493,-5.4023,-2.6986,1.0210,-2.2202,1.3433,-0.6037,
4.756353,0.1489,-1.4046,-0.2037,-5.4023,-2.6986,1.0210,-2.2202,1.3433,-0.6037,
4.763148,0.1489,-1.4046,-0.2037,-4.9591,-6.0454,-0.4959,-2.2202,1.3433,-0.6037,
4.764677,0.1489,-1.4046,-0.2037,-4.9591,-6.0454,-0.4959,-2.5089,2.0485,-0.2629,
4.803372,0.1489,-1.4046,-0.2037,-4.9591,-6.0454,-0.4959,-1.0772,2.1582,-0.6421,
4.806073,0.1489,-1.4046,-0.2037,-3.8301,1.5400,2.6770,-1.0772,2.1582,-0.6421,
4.840764,0.2435,-0.9477,-0.1021,-3.8301,1.5400,2.6770,-1.0772,2.1582,-0.6421,
4.843650,-0.3082,-0.7037,-0.0210,-3.8301,1.5400,2.6770,-1.0772,2.1582,-0.6421,
4.844889,-0.6676,-0.6648,-0.1055,-3.8301,1.5400,2.6770,-1.0772,2.1582,-0.6421,
4.846009,-0.6487,-0.7645,-0.2110,-3.8301,1.5400,2.6770,-1.0772,2.1582,-0.6421,
4.847304,-0.6487,-0.7645,-0.2110,-3.8301,1.5400,2.6770,0.0147,1.8898,-0.2586,
4.848463,-0.6487,-0.7645,-0.2110,-4.1082,1.4999,2.5076,0.0147,1.8898,-0.2586,
4.882637,-0.6487,-0.7645,-0.2110,-4.1082,1.4999,2.5076,0.2938,1.7130,0.5350,
4.885466,-0.6487,-0.7645,-0.2110,-5.8503,2.2631,1.8615,0.2938,1.7130,0.5350,
4.921763,-0.6487,-0.7645,-0.2110,-5.8503,2.2631,1.8615,0.9947,3.3567,0.4008,
4.924402,-0.6487,-0.7645,-0.2110,-5.9643,2.3570,1.2469,0.9947,3.3567,0.4008,
4.925792,-0.3927,-0.7264,-0.1407,-5.9643,2.3570,1.2469,0.9947,3.3567,0.4008,
4.927080,-0.2481,-0.6025,0.0040,-5.9643,2.3570,1.2469,0.9947,3.3567,0.4008,
4.928220,-0.2471,-0.5124,-0.0290,-5.9643,2.3570,1.2469,0.9947,3.3567,0.4008,
4.929307,-0.3485,-0.5329,-0.1536,-5.9643,2.3570,1.2469,0.9947,3.3567,0.4008,
4.930586,-0.6690,-0.8427,-0.3166,-5.9643,2.3570,1.2469,0.9947,3.3567,0.4008,
4.961268,-0.6690,-0.8427,-0.3166,-5.9643,2.3570,1.2469,0.7252,4.0320,0.7225,
4.963220,-0.6690,-0.8427,-0.3166,-5.8535,3.0884,0.1951,0.7252,4.0320,0.7225,
5.001093,-0.7113,-1.5529,-0.3908,-5.8535,3.0884,0.1951,0.7252,4.0320,0.7225,
5.003464,0.2845,-1.8607,-0.1417,-5.8535,3.0884,0.1951,0.7252,4.0320,0.7225,
5.004783,0.8471,-1.4190,0.2754,-5.8535,3.0884,0.1951,0.7252,4.0320,0.7225,
5.006300,0.8471,-1.4190,0.2754,-5.8535,3.0884,0.1951,-0.0428,4.0427,1.5002,
5.007456,0.8471,-1.4190,0.2754,-0.0637,-6.3308,0.7321,-0.0428,4.0427,1.5002,
5.041157,0.8471,-1.4190,0.2754,-0.0637,-6.3308,0.7321,0.2842,2.7622,1.2402,
5.044960,0.8471,-1.4190,0.2754,3.5510,-0.7974,1.1045,0.2842,2.7622,1.2402,
5.080315,0.8471,-1.4190,0.2754,3.5510,-0.7974,1.1045,0.6528,1.5564,1.0037,
5.083055,0.5195,-1.1163,-0.0232,3.5510,-0.7974,1.1045,0.6528,1.5564,1.0037,
5.084250,0.3458,-1.0191,-0.0889,3.5510,-0.7974,1.1045,0.6528,1.5564,1.0037,
5.085263,0.5860,-1.0318,0.0509,3.5510,-0.7974,1.1045,0.6528,1.5564,1.0037,
5.086616,0.8227,-1.2565,0.1464,3.5510,-0.7974,1.1045,0.6528,1.5564,1.0037,
5.087740,0.8220,-1.3963,0.0430,3.5510,-0.7974,1.1045,0.6528,1.5564,1.0037,
5.089201,0.8220,-1.3963,0.0430,3.7956,-0.7144,0.7781,0.6528,1.5564,1.0037,
5.119972,0.8220,-1.3963,0.0430,3.7956,-0.7144,0.7781,1.4688,1.7897,0.3412,
5.122157,0.8220,-1.3963,0.0430,3.8128,-0.6526,0.1506,1.4688,1.7897,0.3412,
5.159992,0.8220,-1.3963,0.0430,3.8128,-0.6526,0.1506,1.3228,0.3068,0.0024,
5.162470,0.8220,-1.3963,0.0430,6.8080,-3.3690,-0.7798,1.3228,0.3068,0.0024,
5.163906,0.7597,-1.3647,-0.3806,6.8080,-3.3690,-0.7798,1.3228,0.3068,0.0024,
5.165255,0.5550,-1.2333,-0.8565,6.8080,-3.3690,-0.7798,1.3228,0.3068,0.0024,
5.166520,0.3558,-0.9998,-0.8137,6.8080,-3.3690,-0.7798,1.3228,0.3068,0.0024,
5.168501,0.2647,-0.7872,-0.4954,6.8080,-3.3690,-0.7798,1.3228,0.3068,0.0024,
5.199528,0.2647,-0.7872,-0.4954,6.8080,-3.3690,-0.7798,0.5835,-0.5625,0.1228,
5.202460,0.2647,-0.7872,-0.4954,2.7871,-0.1105,-7.3085,0.5835,-0.5625,0.1228,
5.239432,0.2647,-0.7872,-0.4954,2.7871,-0.1105,-7.3085,0.3790,-0.4602,0.3955,
5.241586,0.2647,-0.7872,-0.4954,1.6480,3.7490,-5.0992,0.3790,-0.4602,0.3955,
5.243008,0.2205,-0.6685,-0.5384,1.6480,3.7490,-5.0992,0.3790,-0.4602,0.3955,
5.244299,0.2684,-0.5576,-0.4935,1.6480,3.7490,-5.0992,0.3790,-0.4602,0.3955,
5.245619,0.3014,-0.5966,-0.4446,1.6480,3.7490,-5.0992,0.3790,-0.4602,0.3955,
5.246900,0.4123,-0.6387,-0.6308,1.6480,3.7490,-5.0992,0.3790,-0.4602,0.3955,
5.278172,0.4123,-0.6387,-0.6308,1.6480,3.7490,-5.0992,0.0115,-0.5443,0.8216,
5.280892,0.4123,-0.6387,-0.6308,1.9257,3.7113,-5.0019,0.0115,-0.5443,0.8216,
5.317783,0.4123,-0.6387,-0.6308,4.5226,2.3687,-7.3372,0.0115,-0.5443,0.8216,
5.320544,0.4123,-0.6387,-0.6308,4.5226,2.3687,-7.3372,-2.0786,-2.2275,0.8823,
5.322147,0.5496,-0.6692,-0.8777,4.5226,2.3687,-7.3372,-2.0786,-2.2275,0.8823,
5.323473,0.5371,-0.9125,-0.9774,4.5226,2.3687,-7.3372,-2.0786,-2.2275,0.8823,
5.324717,0.4685,-1.2428,-0.7453,4.5226,2.3687,-7.3372,-2.0786,-2.2275,0.8823,
5.326052,0.4961,-1.3555,-0.3271,4.5226,2.3687,-7.3372,-2.0786,-2.2275,0.8823,
5.357524,0.4961,-1.3555,-0.3271,4.5226,2.3687,-7.3372,-3.9971,-4.7713,0.2080,
5.360163,0.4961,-1.3555,-0.3271,4.8172,2.0880,-5.6971,-3.9971,-4.7713,0.2080,
5.396690,0.4961,-1.3555,-0.3271,4.8172,2.0880,-5.6971,-3.1747,-3.1713,-0.3832,
5.399199,0.4961,-1.3555,-0.3271,4.9384,-4.1532,0.4330,-3.1747,-3.1713,-0.3832,
5.400210,0.5249,-1.4390,0.1144,4.9384,-4.1532,0.4330,-3.1747,-3.1713,-0.3832,
5.401613,0.2862,-1.9821,0.4979,4.9384,-4.1532,0.4330,-3.1747,-3.1713,-0.3832,
5.404041,0.3177,-2.1824,0.3404,4.9384,-4.1532,0.4330,-3.1747,-3.1713,-0.3832,
5.405002,0.8955,-1.5223,-0.0752,4.9384,-4.1532,0.4330,-3.1747,-3.1713,-0.3832,
5.436094,0.8955,-1.5223,-0.0752,4.9384,-4.1532,0.4330,-2.1936,-2.1135,-0.7859,
5.437939,0.8955,-1.5223,-0.0752,4.9422,-9.7164,6.7033,-2.1936,-2.1135,-0.7859,
5.476199,0.8642,-1.2519,0.2243,4.9422,-9.7164,6.7033,-2.1936,-2.1135,-0.7859,
5.478339,0.6160,-1.2719,0.3132,4.9422,-9.7164,6.7033,-2.1936,-2.1135,-0.7859,
5.479344,0.5860,-1.1779,0.3511,4.9422,-9.7164,6.7033,-2.1936,-2.1135,-0.7859,
5.480179,0.5860,-1.1779,0.3511,4.9422,-9.7164,6.7033,-1.1859,-2.8102,-1.4911,
5.481121,0.5860,-1.1779,0.3511,6.6604,-3.3793,7.3956,-1.1859,-2.8102,-1.4911,
5.515669,0.5860,-1.1779,0.3511,6.6604,-3.3793,7.3956,0.1383,-4.5178,-1.6072,
5.517703,0.5860,-1.1779,0.3511,0.7817,2.2575,10.5596,0.1383,-4.5178,-1.6072,
5.547738,0.4438,-0.8976,0.4992,0.7817,2.2575,10.5596,0.1383,-4.5178,-1.6072,
5.550918,0.0656,-0.6206,0.7115,0.7817,2.2575,10.5596,0.1383,-4.5178,-1.6072,
5.552642,-0.3160,-0.4540,0.7173,0.7817,2.2575,10.5596,0.1383,-4.5178,-1.6072,
5.554524,-0.5588,-0.3841,0.5077,0.7817,2.2575,10.5596,0.1383,-4.5178,-1.6072,
5.556312,-0.5588,-0.3841,0.5077,0.7817,2.2575,10.5596,1.0267,-5.1974,-1.5039,
5.557198,-0.5588,-0.3841,0.5077,1.0803,2.3997,9.9696,1.0267,-5.1974,-1.5039,
5.595157,-0.5588,-0.3841,0.5077,1.0803,2.3997,9.9696,1.3878,-4.0555,-0.9840,
5.597189,-0.5588,-0.3841,0.5077,-3.4732,4.9186,5.9961,1.3878,-4.0555,-0.9840,
5.635004,-0.5588,-0.3841,0.5077,-3.4732,4.9186,5.9961,1.2823,-2.2669,-1.1321,
5.637654,-0.5588,-0.3841,0.5077,-3.5713,5.0015,5.3855,1.2823,-2.2669,-1.1321,
5.639113,-0.5132,-0.3821,0.2639,-3.5713,5.0015,5.3855,1.2823,-2.2669,-1.1321,
5.640384,-0.2075,-0.4728,0.1488,-3.5713,5.0015,5.3855,1.2823,-2.2669,-1.1321,
5.641721,0.0009,-0.6372,0.1281,-3.5713,5.0015,5.3855,1.2823,-2.2669,-1.1321,
5.643259,0.1306,-0.8539,0.1007,-3.5713,5.0015,5.3855,1.2823,-2.2669,-1.1321,
5.644526,0.1653,-1.3195,0.1767,-3.5713,5.0015,5.3855,1.2823,-2.2669,-1.1321,
5.675486,0.1653,-1.3195,0.1767,-3.5713,5.0015,5.3855,1.1375,-1.2655,-1.7585,
5.678161,0.1653,-1.3195,0.1767,1.0342,-0.0099,3.2172,1.1375,-1.2655,-1.7585,
5.714714,0.1653,-1.3195,0.1767,-4.0046,-8.9562,-0.7006,1.1375,-1.2655,-1.7585,
5.717245,0.1653,-1.3195,0.1767,-4.0046,-8.9562,-0.7006,0.9926,-1.9057,-1.8352,
5.718796,-0.0724,-2.0271,0.1515,-4.0046,-8.9562,-0.7006,0.9926,-1.9057,-1.8352,
5.720131,-0.4560,-2.1756,-0.1138,-4.0046,-8.9562,-0.7006,0.9926,-1.9057,-1.8352,
5.721256,-0.5725,-1.4092,-0.7295,-4.0046,-8.9562,-0.7006,0.9926,-1.9057,-1.8352,
5.723034,-0.8442,-0.8857,-0.8052,-4.0046,-8.9562,-0.7006,0.9926,-1.9057,-1.8352,
5.755796,-0.8442,-0.8857,-0.8052,-4.0046,-8.9562,-0.7006,-0.6266,-0.4293,-0.6709,
5.758283,-0.8442,-0.8857,-0.8052,-4.1564,-8.8615,-0.4528,-0.6266,-0.4293,-0.6709,
5.794497,-0.8442,-0.8857,-0.8052,-4.1564,-8.8615,-0.4528,-1.5576,1.4072,0.8472,
5.797653,-0.8442,-0.8857,-0.8052,-8.9498,2.0203,-1.1047,-1.5576,1.4072,0.8472,
5.799096,-1.0147,-0.6531,-0.1705,-8.9498,2.0203,-1.1047,-1.5576,1.4072,0.8472,
5.800457,-0.8163,-0.6968,-0.0913,-8.9498,2.0203,-1.1047,-1.5576,1.4072,0.8472,
5.801572,-0.4149,-0.9372,0.0731,-8.9498,2.0203,-1.1047,-1.5576,1.4072,0.8472,
5.803196,-0.0277,-1.2548,0.3626,-8.9498,2.0203,-1.1047,-1.5576,1.4072,0.8472,
5.833477,-0.0277,-1.2548,0.3626,-8.9498,2.0203,-1.1047,-0.6692,-0.1065,1.2179,
5.836201,-0.0277,-1.2548,0.3626,-8.3486,1.9210,-0.8463,-0.6692,-0.1065,1.2179,
5.873082,-0.0277,-1.2548,0.3626,-8.3486,1.9210,-0.8463,0.4131,0.4911,0.6256,
5.876060,-0.0277,-1.2548,0.3626,0.1841,-2.3491,4.6911,0.4131,0.4911,0.6256,
5.878606,0.3258,-1.3721,0.2600,0.1841,-2.3491,4.6911,0.4131,0.4911,0.6256,
5.880797,0.4570,-1.2805,-0.0530,0.1841,-2.3491,4.6911,0.4131,0.4911,0.6256,
5.882415,0.2527,-1.0342,-0.1548,0.1841,-2.3491,4.6911,0.4131,0.4911,0.6256,
5.884067,0.0187,-0.8952,0.0093,0.1841,-2.3491,4.6911,0.4131,0.4911,0.6256,
5.913020,0.0187,-0.8952,0.0093,0.1841,-2.3491,4.6911,0.9212,0.6413,0.3380,
5.915853,0.0187,-0.8952,0.0093,2.9625,-1.0990,1.4208,0.9212,0.6413,0.3380,
5.952128,0.0187,-0.8952,0.0093,2.9625,-1.0990,1.4208,1.6904,0.0362,0.5169,
5.953992,0.0187,-0.8952,0.0093,-1.4718,1.2250,2.9326,1.6904,0.0362,0.5169,
5.956348,-0.2019,-0.8615,0.1706,-1.4718,1.2250,2.9326,1.6904,0.0362,0.5169,
5.957377,-0.2710,-0.8275,0.1733,-1.4718,1.2250,2.9326,1.6904,0.0362,0.5169,
5.958250,-0.2217,-0.8348,0.1290,-1.4718,1.2250,2.9326,1.6904,0.0362,0.5169,
5.959063,-0.1689,-0.9609,0.0765,-1.4718,1.2250,2.9326,1.6904,0.0362,0.5169,
5.991136,-0.1689,-0.9609,0.0765,-1.4718,1.2250,2.9326,2.1367,0.0235,0.5137,
5.992639,-0.1689,-0.9609,0.0765,-1.2579,1.2688,2.0932,2.1367,0.0235,0.5137,
6.030341,-0.1689,-0.9609,0.0765,-1.2579,1.2688,2.0932,1.9322,0.1950,0.8056,
6.031997,-0.1689,-0.9609,0.0765,-0.2747,-3.5657,-2.3358,1.9322,0.1950,0.8056,
6.032782,-0.1408,-1.3384,-0.2135,-0.2747,-3.5657,-2.3358,1.9322,0.1950,0.8056,
6.033265,-0.1780,-1.7161,-0.5379,-0.2747,-3.5657,-2.3358,1.9322,0.1950,0.8056,
6.033660,0.3258,-1.4449,-0.4961,-0.2747,-3.5657,-2.3358,1.9322,0.1950,0.8056,
6.034149,0.7665,-0.8805,-0.3498,-0.2747,-3.5657,-2.3358,1.9322,0.1950,0.8056,
6.071138,0.7665,-0.8805,-0.3498,-0.2747,-3.5657,-2.3358,0.9670,1.5510,0.4509,
6.073271,0.7665,-0.8805,-0.3498,-0.0827,-3.5418,-2.5695,0.9670,1.5510,0.4509,
6.111297,0.7665,-0.8805,-0.3498,-0.0827,-3.5418,-2.5695,0.5154,-0.0415,0.1973,
6.113583,0.7665,-0.8805,-0.3498,6.5644,-0.1631,-4.4496,0.5154,-0.0415,0.1973,
6.114906,0.4665,-0.6499,-0.3669,6.5644,-0.1631,-4.4496,0.5154,-0.0415,0.1973,
6.116215,0.1760,-0.6631,-0.3024,6.5644,-0.1631,-4.4496,0.5154,-0.0415,0.1973,
6.117211,0.1922,-0.7721,-0.7194,6.5644,-0.1631,-4.4496,0.5154,-0.0415,0.1973,
6.118362,0.3104,-0.8808,-1.2198,6.5644,-0.1631,-4.4496,0.5154,-0.0415,0.1973,
6.150276,0.3104,-0.8808,-1.2198,6.5644,-0.1631,-4.4496,-0.9984,-1.4232,0.8429,
6.152911,0.3104,-0.8808,-1.2198,3.9208,1.9180,-7.3992,-0.9984,-1.4232,0.8429,
6.189833,0.3104,-0.8808,-1.2198,3.9208,1.9180,-7.3992,-2.6517,-2.6493,0.4072,
6.192415,0.3104,-0.8808,-1.2198,10.3155,-3.7211,-4.6436,-2.6517,-2.6493,0.4072,
6.193914,0.6209,-1.1246,-0.8763,10.3155,-3.7211,-4.6436,-2.6517,-2.6493,0.4072,
6.195220,0.9571,-1.4197,-0.4448,10.3155,-3.7211,-4.6436,-2.6517,-2.6493,0.4072,
6.196598,1.0548,-1.4979,-0.3471,10.3155,-3.7211,-4.6436,-2.6517,-2.6493,0.4072,
6.197855,0.5899,-1.1906,-0.4898,10.3155,-3.7211,-4.6436,-2.6517,-2.6493,0.4072,
6.229797,0.5899,-1.1906,-0.4898,10.3155,-3.7211,-4.6436,-3.4197,-1.6469,-1.0586,
6.232291,0.5899,-1.1906,-0.4898,9.8388,-3.7788,-3.4139,-3.4197,-1.6469,-1.0586,
6.269448,0.5899,-1.1906,-0.4898,9.8388,-3.7788,-3.4139,-3.5262,-0.0490,-1.2695,
6.271660,0.5899,-1.1906,-0.4898,1.3508,-2.9526,-1.3794,-3.5262,-0.0490,-1.2695,
6.273388,-0.0634,-1.1170,-0.6246,1.3508,-2.9526,-1.3794,-3.5262,-0.0490,-1.2695,
6.274611,-0.3417,-1.3980,-0.3339,1.3508,-2.9526,-1.3794,-3.5262,-0.0490,-1.2695,
6.275831,-0.1714,-1.4322,0.1276,1.3508,-2.9526,-1.3794,-3.5262,-0.0490,-1.2695,
6.276972,0.3202,-1.2582,0.4684,1.3508,-2.9526,-1.3794,-3.5262,-0.0490,-1.2695,
6.308663,0.3202,-1.2582,0.4684,1.3508,-2.9526,-1.3794,-2.4929,-0.7510,-1.2536,
6.311330,0.3202,-1.2582,0.4684,1.0038,-3.2437,-0.4996,-2.4929,-0.7510,-1.2536,
6.348914,0.3202,-1.2582,0.4684,1.0038,-3.2437,-0.4996,-1.0538,-0.9832,-2.2911,
6.351190,0.3202,-1.2582,0.4684,2.6334,-3.9577,8.2640,-1.0538,-0.9832,-2.2911,
6.355039,0.7387,-1.2003,0.5703,2.6334,-3.9577,8.2640,-1.0538,-0.9832,-2.2911,
6.356625,0.7988,-1.1796,0.1777,2.6334,-3.9577,8.2640,-1.0538,-0.9832,-2.2911,
6.357894,0.4628,-1.2143,-0.4141,2.6334,-3.9577,8.2640,-1.0538,-0.9832,-2.2911,
6.359280,0.1435,-1.2438,-0.4487,2.6334,-3.9577,8.2640,-1.0538,-0.9832,-2.2911,
6.388547,0.1435,-1.2438,-0.4487,2.6334,-3.9577,8.2640,-0.8013,-1.8844,-2.9505,
6.391603,0.1435,-1.2438,-0.4487,3.5984,-3.2928,2.4954,-0.8013,-1.8844,-2.9505,
6.427634,0.1435,-1.2438,-0.4487,3.5984,-3.2928,2.4954,0.0637,-1.9643,-2.5958,
6.430361,0.1435,-1.2438,-0.4487,-3.1111,-2.1870,6.0341,0.0637,-1.9643,-2.5958,
6.431720,-0.0402,-1.2238,0.1251,-3.1111,-2.1870,6.0341,0.0637,-1.9643,-2.5958,
6.433167,-0.1794,-1.1380,0.1759,-3.1111,-2.1870,6.0341,0.0637,-1.9643,-2.5958,
6.434428,-0.2911,-0.9130,0.1048,-3.1111,-2.1870,6.0341,0.0637,-1.9643,-2.5958,
6.435765,-0.3597,-0.6145,0.1713,-3.1111,-2.1870,6.0341,0.0637,-1.9643,-2.5958,
6.467439,-0.3597,-0.6145,0.1713,-3.1111,-2.1870,6.0341,1.0235,-0.9332,-1.7691,
6.470659,-0.3597,-0.6145,0.1713,-3.4792,-2.0816,5.6520,1.0235,-0.9332,-1.7691,
6.506782,-0.3597,-0.6145,0.1713,-3.4792,-2.0816,5.6520,1.6701,0.2695,-0.7582,
6.508930,-0.3597,-0.6145,0.1713,-6.8939,3.9475,5.0222,1.6701,0.2695,-0.7582,
6.509933,-0.4958,-0.4129,0.1772,-6.8939,3.9475,5.0222,1.6701,0.2695,-0.7582,
6.510744,-0.6439,-0.4452,0.0741,-6.8939,3.9475,5.0222,1.6701,0.2695,-0.7582,
6.512609,-0.5388,-0.6619,-0.0794,-6.8939,3.9475,5.0222,1.6701,0.2695,-0.7582,
6.513448,-0.2412,-0.8124,-0.2860,-6.8939,3.9475,5.0222,1.6701,0.2695,-0.7582,
6.546385,-0.2412,-0.8124,-0.2860,-6.8939,3.9475,5.0222,1.3591,0.7755,0.4445,
6.548340,-0.2412,-0.8124,-0.2860,-6.7255,4.0951,4.4087,1.3591,0.7755,0.4445,
6.586408,-0.2412,-0.8124,-0.2860,-6.7255,4.0951,4.4087,0.2863,1.0759,0.1398,
6.588341,-0.2412,-0.8124,-0.2860,-3.7797,1.6710,-0.2587,0.2863,1.0759,0.1398,
6.589494,0.1856,-0.7452,-0.5870,-3.7797,1.6710,-0.2587,0.2863,1.0759,0.1398,
6.590359,0.1860,-0.7391,-0.5499,-3.7797,1.6710,-0.2587,0.2863,1.0759,0.1398,
6.591277,-0.2723,-0.9306,-0.2264,-3.7797,1.6710,-0.2587,0.2863,1.0759,0.1398,
6.592160,-0.3353,-1.4273,-0.4424,-3.7797,1.6710,-0.2587,0.2863,1.0759,0.1398,
6.625584,-0.3353,-1.4273,-0.4424,-3.7797,1.6710,-0.2587,-0.0087,0.3196,0.3571,
6.627439,-0.3353,-1.4273,-0.4424,-3.0721,-1.1517,-1.1294,-0.0087,0.3196,0.3571,
6.665361,-0.3353,-1.4273,-0.4424,-3.0721,-1.1517,-1.1294,-0.9227,0.1619,0.6724,
6.667471,-0.3353,-1.4273,-0.4424,-1.4437,-6.6469,2.3867,-0.9227,0.1619,0.6724,
6.668957,0.0739,-1.9494,-0.4961,-1.4437,-6.6469,2.3867,-0.9227,0.1619,0.6724,
6.670099,0.1291,-1.6335,-0.0500,-1.4437,-6.6469,2.3867,-0.9227,0.1619,0.6724,
6.671212,-0.2007,-1.2101,0.3194,-1.4437,-6.6469,2.3867,-0.9227,0.1619,0.6724,
6.672680,-0.3390,-1.1163,0.0841,-1.4437,-6.6469,2.3867,-0.9227,0.1619,0.6724,
6.705143,-0.3390,-1.1163,0.0841,-1.4437,-6.6469,2.3867,-0.1163,0.7809,0.4328,
6.707473,-0.3390,-1.1163,0.0841,-1.3637,-6.5266,2.3450,-0.1163,0.7809,0.4328,
6.745114,-0.3390,-1.1163,0.0841,-1.3637,-6.5266,2.3450,0.1521,2.2158,0.4264,
6.747218,-0.3390,-1.1163,0.0841,-3.3991,-4.5662,3.2380,0.1521,2.2158,0.4264,
6.748587,-0.4264,-1.4720,-0.0014,-3.3991,-4.5662,3.2380,0.1521,2.2158,0.4264,
6.749954,0.1604,-1.6411,0.0357,-3.3991,-4.5662,3.2380,0.1521,2.2158,0.4264,
6.750947,0.6446,-1.2328,0.0357,-3.3991,-4.5662,3.2380,0.1521,2.2158,0.4264,
6.752096,0.4472,-0.9524,-0.0434,-3.3991,-4.5662,3.2380,0.1521,2.2158,0.4264,
6.784480,0.4472,-0.9524,-0.0434,-3.3991,-4.5662,3.2380,0.1734,1.7257,-0.0029,
6.787258,0.4472,-0.9524,-0.0434,-3.5299,-4.4718,3.0201,0.1734,1.7257,-0.0029,
6.824495,0.4472,-0.9524,-0.0434,-3.5299,-4.4718,3.0201,0.0584,1.6139,0.0652,
6.826949,0.4472,-0.9524,-0.0434,2.1097,-0.8762,2.0041,0.0584,1.6139,0.0652,
6.828277,0.0834,-0.9511,-0.1360,2.1097,-0.8762,2.0041,0.0584,1.6139,0.0652,
6.829708,-0.0925,-0.9431,-0.0828,2.1097,-0.8762,2.0041,0.0584,1.6139,0.0652,
6.831028,-0.1745,-0.9128,-0.1219,2.1097,-0.8762,2.0041,0.0584,1.6139,0.0652,
6.832338,-0.2544,-0.8989,-0.2829,2.1097,-0.8762,2.0041,0.0584,1.6139,0.0652,
6.863555,-0.2544,-0.8989,-0.2829,2.1097,-0.8762,2.0041,-0.4455,2.0112,0.1174,
6.866023,-0.2544,-0.8989,-0.2829,-3.5266,0.3295,0.8873,-0.4455,2.0112,0.1174,
6.903708,-0.2544,-0.8989,-0.2829,-3.5266,0.3295,0.8873,-1.4479,2.2413,0.8280,
6.906515,-0.2544,-0.8989,-0.2829,-6.8668,-0.7049,-2.9903,-1.4479,2.2413,0.8280,
6.907861,-0.4978,-0.9160,-0.5032,-6.8668,-0.7049,-2.9903,-1.4479,2.2413,0.8280,
6.909194,-0.6873,-1.0164,-0.6498,-6.8668,-0.7049,-2.9903,-1.4479,2.2413,0.8280,
6.910481,-0.4159,-1.1141,-0.6510,-6.8668,-0.7049,-2.9903,-1.4479,2.2413,0.8280,
6.911788,0.1450,-1.1972,-0.6975,-6.8668,-0.7049,-2.9903,-1.4479,2.2413,0.8280,
6.943064,0.1450,-1.1972,-0.6975,-6.8668,-0.7049,-2.9903,-2.4194,1.6842,2.0136,
6.945649,0.1450,-1.1972,-0.6975,-6.2472,-0.8938,-2.1718,-2.4194,1.6842,2.0136,
6.983075,0.1450,-1.1972,-0.6975,-6.2472,-0.8938,-2.1718,-2.4897,1.3444,1.9944,
6.985990,0.1450,-1.1972,-0.6975,4.4605,-2.4350,-1.6680,-2.4897,1.3444,1.9944,
6.987515,0.6251,-1.1695,-0.7297,4.4605,-2.4350,-1.6680,-2.4897,1.3444,1.9944,
6.988953,0.7819,-1.0579,-0.4871,4.4605,-2.4350,-1.6680,-2.4897,1.3444,1.9944,
6.990285,0.5491,-1.0357,-0.0222,4.4605,-2.4350,-1.6680,-2.4897,1.3444,1.9944,
6.991301,0.0514,-1.1043,-0.1158,4.4605,-2.4350,-1.6680,-2.4897,1.3444,1.9944,
7.022760,0.0514,-1.1043,-0.1158,4.6027,-2.4962,-1.4284,-2.4897,1.3444,1.9944,
7.025101,0.0514,-1.1043,-0.1158,4.6027,-2.4962,-1.4284,-0.7235,1.8088,1.6301,
7.061942,0.0514,-1.1043,-0.1158,4.6027,-2.4962,-1.4284,0.2991,1.2155,1.7835,
7.064712,0.0514,-1.1043,-0.1158,1.8072,-1.2531,2.8040,0.2991,1.2155,1.7835,
7.066690,-0.0128,-0.9340,-0.4299,1.8072,-1.2531,2.8040,0.2991,1.2155,1.7835,
7.067932,0.0893,-0.6716,-0.3244,1.8072,-1.2531,2.8040,0.2991,1.2155,1.7835,
7.069105,-0.0170,-0.6015,-0.1690,1.8072,-1.2531,2.8040,0.2991,1.2155,1.7835,
7.070391,-0.1860,-0.6528,-0.1646,1.8072,-1.2531,2.8040,0.2991,1.2155,1.7835,
7.101758,-0.1860,-0.6528,-0.1646,1.8072,-1.2531,2.8040,0.9074,0.2589,2.0488,
7.104648,-0.1860,-0.6528,-0.1646,0.1845,2.5979,2.1542,0.9074,0.2589,2.0488,
7.141307,-0.1860,-0.6528,-0.1646,0.1845,2.5979,2.1542,1.5710,0.4559,2.0882,
7.144032,-0.1860,-0.6528,-0.1646,-0.6035,1.5840,2.3213,1.5710,0.4559,2.0882,
7.145349,-0.2354,-0.6995,-0.1771,-0.6035,1.5840,2.3213,1.5710,0.4559,2.0882,
7.146767,-0.1423,-0.7728,-0.1341,-0.6035,1.5840,2.3213,1.5710,0.4559,2.0882,
7.148029,-0.1855,-0.8102,-0.1175,-0.6035,1.5840,2.3213,1.5710,0.4559,2.0882,
7.149094,-0.2190,-0.7396,0.0013,-0.6035,1.5840,2.3213,1.5710,0.4559,2.0882,
7.180424,-0.2190,-0.7396,0.0013,-0.6035,1.5840,2.3213,2.0472,0.7755,1.8815,
7.182965,-0.2190,-0.7396,0.0013,-0.0262,1.7149,1.6013,2.0472,0.7755,1.8815,
7.220433,-0.2190,-0.7396,0.0013,-0.0262,1.7149,1.6013,2.1761,0.5145,1.3777,
7.223186,-0.2190,-0.7396,0.0013,2.1131,2.5641,1.2419,2.1761,0.5145,1.3777,
7.224552,-0.0370,-0.6504,-0.0031,2.1131,2.5641,1.2419,2.1761,0.5145,1.3777,
7.226106,0.2210,-0.6545,-0.2992,2.1131,2.5641,1.2419,2.1761,0.5145,1.3777,
7.230315,0.2163,-0.9709,-0.9315,2.1131,2.5641,1.2419,2.1761,0.5145,1.3777,
7.231430,0.0612,-1.5873,-1.1817,2.1131,2.5641,1.2419,2.1761,0.5145,1.3777,
7.259553,0.0612,-1.5873,-1.1817,2.1131,2.5641,1.2419,0.5431,-0.3047,0.9100,
7.262256,0.0612,-1.5873,-1.1817,2.4294,2.4813,0.9959,0.5431,-0.3047,0.9100,
7.299642,0.0612,-1.5873,-1.1817,2.4294,2.4813,0.9959,-0.3315,-0.2333,0.1238,
7.301424,0.0612,-1.5873,-1.1817,3.7226,-5.9250,-8.7234,-0.3315,-0.2333,0.1238,
7.302440,0.0832,-2.0784,-1.2379,3.7226,-5.9250,-8.7234,-0.3315,-0.2333,0.1238,
7.303204,0.5041,-1.5477,-0.5941,3.7226,-5.9250,-8.7234,-0.3315,-0.2333,0.1238,
7.303984,0.8449,-0.6780,-0.1377,3.7226,-5.9250,-8.7234,-0.3315,-0.2333,0.1238,
7.304807,0.7621,-0.5153,-0.0112,3.7226,-5.9250,-8.7234,-0.3315,-0.2333,0.1238,
7.339270,0.7621,-0.5153,-0.0112,3.7226,-5.9250,-8.7234,0.5601,0.8085,-0.9084,
7.341099,0.7621,-0.5153,-0.0112,8.8866,0.3928,-0.3298,0.5601,0.8085,-0.9084,
7.379612,0.7621,-0.5153,-0.0112,8.8866,0.3928,-0.3298,0.7519,-0.3973,-1.0980,
7.381666,0.7621,-0.5153,-0.0112,6.5305,-2.0569,2.1600,0.7519,-0.3973,-1.0980,
7.383284,0.6544,-0.7618,-0.1365,6.5305,-2.0569,2.1600,0.7519,-0.3973,-1.0980,
7.384441,0.6725,-1.1251,0.0438,6.5305,-2.0569,2.1600,0.7519,-0.3973,-1.0980,
7.385616,0.2134,-1.6564,0.2172,6.5305,-2.0569,2.1600,0.7519,-0.3973,-1.0980,
7.386732,-0.4013,-1.8375,-0.2926,6.5305,-2.0569,2.1600,0.7519,-0.3973,-1.0980,
7.418246,-0.4013,-1.8375,-0.2926,6.5305,-2.0569,2.1600,1.3516,-1.3571,-0.7092,
7.421008,-0.4013,-1.8375,-0.2926,6.2338,-1.9071,1.5467,1.3516,-1.3571,-0.7092,
7.458063,-0.4013,-1.8375,-0.2926,6.2338,-1.9071,1.5467,0.8829,-0.7936,0.0865,
7.460938,-0.4013,-1.8375,-0.2926,-1.4945,-3.3450,-2.9675,0.8829,-0.7936,0.0865,
7.464780,-0.3544,-1.2604,-0.6342,-1.4945,-3.3450,-2.9675,0.8829,-0.7936,0.0865,
7.466822,-0.0971,-0.9118,-0.2306,-1.4945,-3.3450,-2.9675,0.8829,-0.7936,0.0865,
7.468111,0.1088,-0.9389,-0.2069,-1.4945,-3.3450,-2.9675,0.8829,-0.7936,0.0865,
7.469426,0.3143,-0.9699,-0.4810,-1.4945,-3.3450,-2.9675,0.8829,-0.7936,0.0865,
7.497804,0.3143,-0.9699,-0.4810,-1.4945,-3.3450,-2.9675,0.8509,-1.5329,0.4189,
7.500430,0.3143,-0.9699,-0.4810,-1.2748,-3.2917,-3.3246,0.8509,-1.5329,0.4189,
7.537725,0.3143,-0.9699,-0.4810,-1.2748,-3.2917,-3.3246,0.0893,-2.4213,0.3806,
7.540677,0.3143,-0.9699,-0.4810,4.5535,0.3903,-3.9448,0.0893,-2.4213,0.3806,
7.542298,0.4768,-0.9648,-0.6220,4.5535,0.3903,-3.9448,0.0893,-2.4213,0.3806,
7.543600,0.5193,-0.9106,-0.7126,4.5535,0.3903,-3.9448,0.0893,-2.4213,0.3806,
7.544861,0.4890,-0.8800,-0.8824,4.5535,0.3903,-3.9448,0.0893,-2.4213,0.3806,
7.546251,0.4663,-0.8119,-0.8570,4.5535,0.3903,-3.9448,0.0893,-2.4213,0.3806,
7.576898,0.4663,-0.8119,-0.8570,4.5535,0.3903,-3.9448,-1.7664,-2.5886,0.3273,
7.579182,0.4663,-0.8119,-0.8570,6.5015,1.1936,-7.0488,-1.7664,-2.5886,0.3273,
7.616340,0.4663,-0.8119,-0.8570,6.5015,1.1936,-7.0488,-3.8171,-2.1476,-0.4589,
7.618252,0.4663,-0.8119,-0.8570,7.3511,1.7513,0.4575,-3.8171,-2.1476,-0.4589,
7.619660,0.5410,-0.7613,-0.5123,7.3511,1.7513,0.4575,-3.8171,-2.1476,-0.4589,
7.620909,0.7792,-0.5067,-0.1392,7.3511,1.7513,0.4575,-3.8171,-2.1476,-0.4589,
7.622453,0.4660,-1.0894,0.0987,7.3511,1.7513,0.4575,-3.8171,-2.1476,-0.4589,
7.623814,0.5220,-1.0276,0.5920,7.3511,1.7513,0.4575,-3.8171,-2.1476,-0.4589,
7.655930,0.5220,-1.0276,0.5920,7.3511,1.7513,0.4575,-2.6367,-5.2848,-1.2077,
7.658111,0.5220,-1.0276,0.5920,7.3406,1.5263,1.0893,-2.6367,-5.2848,-1.2077,
7.695834,0.5220,-1.0276,0.5920,7.3406,1.5263,1.0893,-1.8304,-3.1936,-1.5849,
7.698177,0.5220,-1.0276,0.5920,4.3657,-3.2150,9.7857,-1.8304,-3.1936,-1.5849,
7.699550,0.3852,-1.1322,0.7618,4.3657,-3.2150,9.7857,-1.8304,-3.1936,-1.5849,
7.700775,0.0461,-1.6240,0.6594,4.3657,-3.2150,9.7857,-1.8304,-3.1936,-1.5849,
7.701880,-0.3888,-1.9210,0.3785,4.3657,-3.2150,9.7857,-1.8304,-3.1936,-1.5849,
7.703569,-0.4181,-1.7317,-0.4006,4.3657,-3.2150,9.7857,-1.8304,-3.1936,-1.5849,
7.734943,-0.4181,-1.7317,-0.4006,4.3657,-3.2150,9.7857,-1.3361,0.0032,-1.6147,
7.736829,-0.4181,-1.7317,-0.4006,3.7161,-3.2777,10.0897,-1.3361,0.0032,-1.6147,
7.775839,-0.4181,-1.7317,-0.4006,3.7161,-3.2777,10.0897,-1.1241,1.0589,-1.7691,
7.776897,-0.4181,-1.7317,-0.4006,-3.8274,-7.4823,1.2763,-1.1241,1.0589,-1.7691,
7.778296,-0.3272,-1.4109,-0.7810,-3.8274,-7.4823,1.2763,-1.1241,1.0589,-1.7691,
7.779086,-0.1733,-1.3418,-0.1116,-3.8274,-7.4823,1.2763,-1.1241,1.0589,-1.7691,
7.779543,0.3861,-1.3110,0.5517,-3.8274,-7.4823,1.2763,-1.1241,1.0589,-1.7691,
7.779963,0.5606,-1.1263,0.1222,-3.8274,-7.4823,1.2763,-1.1241,1.0589,-1.7691,
7.813813,0.5606,-1.1263,0.1222,-3.8274,-7.4823,1.2763,0.4578,-0.8479,-1.9865,
7.814980,0.5606,-1.1263,0.1222,1.7892,-3.1968,5.4971,0.4578,-0.8479,-1.9865,
7.853095,0.5606,-1.1263,0.1222,1.7892,-3.1968,5.4971,0.8690,-1.1356,-1.2759,
7.854247,0.5606,-1.1263,0.1222,-3.4615,2.7870,3.9265,0.8690,-1.1356,-1.2759,
7.854763,0.0160,-0.8896,-0.1219,-3.4615,2.7870,3.9265,0.8690,-1.1356,-1.2759,
7.855148,-0.2928,-0.6497,0.1073,-3.4615,2.7870,3.9265,0.8690,-1.1356,-1.2759,
7.855666,-0.4816,-0.4168,0.2006,-3.4615,2.7870,3.9265,0.8690,-1.1356,-1.2759,
7.856046,-0.5862,-0.2707,0.3396,-3.4615,2.7870,3.9265,0.8690,-1.1356,-1.2759,
7.893935,-0.5862,-0.2707,0.3396,-3.4615,2.7870,3.9265,1.2568,1.8035,-0.3598,
7.896361,-0.5862,-0.2707,0.3396,-3.7435,2.8750,3.3239,1.2568,1.8035,-0.3598,
7.934117,-0.5862,-0.2707,0.3396,-3.7435,2.8750,3.3239,1.3910,1.9058,0.2570,
7.936839,-0.5862,-0.2707,0.3396,-7.5159,6.9515,4.2402,1.3910,1.9058,0.2570,
7.938161,-0.5974,-0.2209,0.4413,-7.5159,6.9515,4.2402,1.3910,1.9058,0.2570,
7.939815,-0.7421,-0.2253,-0.1040,-7.5159,6.9515,4.2402,1.3910,1.9058,0.2570,
7.941435,-1.2434,-0.5001,-1.1758,-7.5159,6.9515,4.2402,1.3910,1.9058,0.2570,
7.942941,-0.6575,-0.9064,-0.3251,-7.5159,6.9515,4.2402,1.3910,1.9058,0.2570,
7.973808,-0.6575,-0.9064,-0.3251,-7.5159,6.9515,4.2402,0.8413,0.2993,1.2541,
7.976577,-0.6575,-0.9064,-0.3251,-6.9563,6.9463,3.8485,0.8413,0.2993,1.2541,
8.012104,-0.6575,-0.9064,-0.3251,-6.9563,6.9463,3.8485,-0.2250,2.2040,0.8716,
8.014788,-0.6575,-0.9064,-0.3251,-4.5470,0.1459,-3.5487,-0.2250,2.2040,0.8716,
8.016796,0.6344,-1.3928,-0.1160,-4.5470,0.1459,-3.5487,-0.2250,2.2040,0.8716,
8.018044,1.0946,-1.9223,-0.3439,-4.5470,0.1459,-3.5487,-0.2250,2.2040,0.8716,
8.019383,0.3016,-2.7119,-0.3789,-4.5470,0.1459,-3.5487,-0.2250,2.2040,0.8716,
8.020661,-0.2136,-2.0918,-0.5814,-4.5470,0.1459,-3.5487,-0.2250,2.2040,0.8716,
8.052449,-0.2136,-2.0918,-0.5814,-4.5470,0.1459,-3.5487,-1.1933,1.8717,-0.7444,
8.054750,-0.2136,-2.0918,-0.5814,2.9899,-12.5777,-2.0961,-1.1933,1.8717,-0.7444,
8.092278,-0.2136,-2.0918,-0.5814,2.9899,-12.5777,-2.0961,-0.6895,4.3932,0.1164,
8.094220,-0.2136,-2.0918,-0.5814,-6.3020,2.0867,7.5351,-0.6895,4.3932,0.1164,
8.095145,-0.5090,-0.7288,0.2070,-6.3020,2.0867,7.5351,-0.6895,4.3932,0.1164,
8.096113,-0.6038,-0.5686,0.8236,-6.3020,2.0867,7.5351,-0.6895,4.3932,0.1164,
8.096876,-0.4760,-0.9118,0.6313,-6.3020,2.0867,7.5351,-0.6895,4.3932,0.1164,
8.097568,-0.4841,-1.4163,0.4176,-6.3020,2.0867,7.5351,-0.6895,4.3932,0.1164,
8.131642,-0.4841,-1.4163,0.4176,-6.3020,2.0867,7.5351,0.3779,3.6816,1.4586,
8.134069,-0.4841,-1.4163,0.4176,-5.9516,2.1380,7.1222,0.3779,3.6816,1.4586,
8.171410,-0.4841,-1.4163,0.4176,-5.9516,2.1380,7.1222,0.3865,3.8424,1.8570,
8.173959,-0.4841,-1.4163,0.4176,-2.3788,-4.8136,2.7125,0.3865,3.8424,1.8570,
8.175298,-0.2684,-1.6152,0.2954,-2.3788,-4.8136,2.7125,0.3865,3.8424,1.8570,
8.176531,0.1069,-1.3503,-0.3173,-2.3788,-4.8136,2.7125,0.3865,3.8424,1.8570,
8.177666,0.4362,-0.9897,-0.4908,-2.3788,-4.8136,2.7125,0.3865,3.8424,1.8570,
8.178834,0.8322,-0.7283,0.1926,-2.3788,-4.8136,2.7125,0.3865,3.8424,1.8570,
8.212614,0.8322,-0.7283,0.1926,-2.3788,-4.8136,2.7125,-0.0194,4.6744,1.4235,
8.214808,0.8322,-0.7283,0.1926,-2.0663,-4.7277,2.6545,-0.0194,4.6744,1.4235,
8.251151,0.8322,-0.7283,0.1926,-2.0663,-4.7277,2.6545,1.3388,3.1393,0.1324,
8.253756,0.8322,-0.7283,0.1926,7.6771,2.4408,1.3074,1.3388,3.1393,0.1324,
8.255122,1.1379,-0.4745,0.4435,7.6771,2.4408,1.3074,1.3388,3.1393,0.1324,
8.256829,1.2551,-0.3394,-0.0405,7.6771,2.4408,1.3074,1.3388,3.1393,0.1324,
8.257981,1.4738,-0.4674,-0.5299,7.6771,2.4408,1.3074,1.3388,3.1393,0.1324,
8.259312,1.4550,-0.9721,-0.7351,7.6771,2.4408,1.3074,1.3388,3.1393,0.1324,
8.290929,1.4550,-0.9721,-0.7351,7.6771,2.4408,1.3074,1.0001,1.3188,-0.8754,
8.293433,1.4550,-0.9721,-0.7351,12.8966,3.7406,-3.7645,1.0001,1.3188,-0.8754,
8.330033,1.4550,-0.9721,-0.7351,12.8966,3.7406,-3.7645,-0.4870,-1.3923,-0.8392,
8.332491,1.4550,-0.9721,-0.7351,2.4555,-6.0084,-3.7761,-0.4870,-1.3923,-0.8392,
8.333863,0.9686,-1.6853,-0.6674,2.4555,-6.0084,-3.7761,-0.4870,-1.3923,-0.8392,
8.335169,0.3637,-1.8409,-0.4373,2.4555,-6.0084,-3.7761,-0.4870,-1.3923,-0.8392,
8.336422,-0.2449,-1.2553,-0.2965,2.4555,-6.0084,-3.7761,-0.4870,-1.3923,-0.8392,
8.337701,-0.8686,-0.7271,-0.1226,2.4555,-6.0084,-3.7761,-0.4870,-1.3923,-0.8392,
8.369795,-0.8686,-0.7271,-0.1226,2.4555,-6.0084,-3.7761,-0.2985,-3.0211,-0.2266,
8.372253,-0.8686,-0.7271,-0.1226,2.4399,-5.9287,-3.4709,-0.2985,-3.0211,-0.2266,
8.409302,-0.8686,-0.7271,-0.1226,-8.2393,2.4866,0.6443,-0.2985,-3.0211,-0.2266,
8.411940,-0.8686,-0.7271,-0.1226,-8.2393,2.4866,0.6443,0.1734,-0.7553,0.6980,
8.413383,-0.9644,-0.6643,-0.0737,-8.2393,2.4866,0.6443,0.1734,-0.7553,0.6980,
8.414480,-0.4841,-0.8114,0.0689,-8.2393,2.4866,0.6443,0.1734,-0.7553,0.6980,
8.416280,-0.1250,-1.0083,0.0484,-8.2393,2.4866,0.6443,0.1734,-0.7553,0.6980,
8.417465,0.2066,-1.1466,-0.0542,-8.2393,2.4866,0.6443,0.1734,-0.7553,0.6980,
8.448997,0.2066,-1.1466,-0.0542,-8.2393,2.4866,0.6443,0.4110,-0.8138,0.6969,
8.451448,0.2066,-1.1466,-0.0542,-7.8071,2.4751,0.4947,0.4110,-0.8138,0.6969,
8.488819,0.2066,-1.1466,-0.0542,-7.8071,2.4751,0.4947,0.3577,-1.5425,0.0493,
8.491643,0.2066,-1.1466,-0.0542,1.8320,-1.1708,0.2753,0.3577,-1.5425,0.0493,
8.493237,0.5400,-1.1739,-0.1487,1.8320,-1.1708,0.2753,0.3577,-1.5425,0.0493,
8.494544,0.6182,-1.0171,-0.2374,1.8320,-1.1708,0.2753,0.3577,-1.5425,0.0493,
8.496991,0.4396,-0.8400,-0.2667,1.8320,-1.1708,0.2753,0.3577,-1.5425,0.0493,
8.498242,0.2229,-0.8263,-0.0684,1.8320,-1.1708,0.2753,0.3577,-1.5425,0.0493,
8.527857,0.2229,-0.8263,-0.0684,3.8432,0.9232,-1.1091,0.3577,-1.5425,0.0493,
8.530478,0.2229,-0.8263,-0.0684,3.8432,0.9232,-1.1091,0.1329,-1.4978,-0.3161,
8.567884,0.2229,-0.8263,-0.0684,-0.4165,0.2015,0.8202,0.1329,-1.4978,-0.3161,
8.570755,0.2229,-0.8263,-0.0684,-0.4165,0.2015,0.8202,0.2427,-1.3369,-0.1553,
8.572245,0.0832,-0.8891,0.0577,-0.4165,0.2015,0.8202,0.2427,-1.3369,-0.1553,
8.573365,-0.0104,-0.9731,0.0164,-0.4165,0.2015,0.8202,0.2427,-1.3369,-0.1553,
8.574482,-0.0917,-1.0425,-0.0290,-0.4165,0.2015,0.8202,0.2427,-1.3369,-0.1553,
8.575727,-0.1359,-1.0318,-0.0378,-0.4165,0.2015,0.8202,0.2427,-1.3369,-0.1553,
8.607513,-0.1359,-1.0318,-0.0378,-0.4165,0.2015,0.8202,-0.1035,-0.6391,0.0631,
8.610109,-0.1359,-1.0318,-0.0378,-0.3687,0.1961,0.8541,-0.1035,-0.6391,0.0631,
8.642416,-0.1555,-0.9685,-0.0188,-0.3687,0.1961,0.8541,-0.1035,-0.6391,0.0631,
8.645049,-0.1975,-0.9284,-0.0215,-0.3687,0.1961,0.8541,-0.1035,-0.6391,0.0631,
8.646560,-0.2662,-0.8661,-0.0691,-0.3687,0.1961,0.8541,-0.1035,-0.6391,0.0631,
8.648063,-0.2662,-0.8661,-0.0691,-0.3687,0.1961,0.8541,-0.6660,0.7255,-0.0189,
8.649484,-0.2662,-0.8661,-0.0691,-1.9036,0.0941,0.6865,-0.6660,0.7255,-0.0189,
8.687128,-0.2662,-0.8661,-0.0691,-1.9036,0.0941,0.6865,-1.0815,1.3124,-0.0264,
8.689725,-0.2662,-0.8661,-0.0691,-4.3557,1.1130,0.4864,-1.0815,1.3124,-0.0264,
8.726621,-0.2662,-0.8661,-0.0691,-4.3557,1.1130,0.4864,-0.8631,1.0727,0.5169,
8.729333,-0.2662,-0.8661,-0.0691,-4.1526,1.0493,0.7896,-0.8631,1.0727,0.5169,
8.730730,-0.3981,-0.8344,-0.1114,-4.1526,1.0493,0.7896,-0.8631,1.0727,0.5169,
8.732013,-0.5767,-0.8954,-0.0774,-4.1526,1.0493,0.7896,-0.8631,1.0727,0.5169,
8.733684,-0.5532,-0.9397,0.0044,-4.1526,1.0493,0.7896,-0.8631,1.0727,0.5169,
8.734858,-0.3443,-1.0054,0.0005,-4.1526,1.0493,0.7896,-0.8631,1.0727,0.5169,
8.736203,-0.2860,-1.1810,0.0164,-4.1526,1.0493,0.7896,-0.8631,1.0727,0.5169,
8.766233,-0.2860,-1.1810,0.0164,-4.1526,1.0493,0.7896,-0.4380,2.8421,0.3294,
8.769014,-0.2860,-1.1810,0.0164,-3.9684,-0.6989,1.8225,-0.4380,2.8421,0.3294,
8.806210,-0.2860,-1.1810,0.0164,-3.9684,-0.6989,1.8225,0.3289,4.8289,-0.0882,
8.808617,-0.2860,-1.1810,0.0164,-2.6960,-1.1774,5.0987,0.3289,4.8289,-0.0882,
8.810178,-0.3382,-1.2575,0.2566,-2.6960,-1.1774,5.0987,0.3289,4.8289,-0.0882,
8.811622,-0.2400,-1.1046,0.4879,-2.6960,-1.1774,5.0987,0.3289,4.8289,-0.0882,
8.813604,-0.1206,-0.9228,0.3601,-2.6960,-1.1774,5.0987,0.3289,4.8289,-0.0882,
8.814674,-0.0431,-0.9221,0.0619,-2.6960,-1.1774,5.0987,0.3289,4.8289,-0.0882,
8.845791,-0.0431,-0.9221,0.0619,-2.6960,-1.1774,5.0987,0.5239,4.8097,0.3656,
8.848123,-0.0431,-0.9221,0.0619,-2.7681,-1.1232,4.7260,0.5239,4.8097,0.3656,
8.866563,0.0568,-1.1124,-0.2489,-2.7681,-1.1232,4.7260,0.5239,4.8097,0.3656,
8.868652,0.4184,-1.3005,-0.6322,-2.7681,-1.1232,4.7260,0.5239,4.8097,0.3656,
8.869975,0.4729,-1.1026,-0.2961,-2.7681,-1.1232,4.7260,0.5239,4.8097,0.3656,
8.884096,0.4729,-1.1026,-0.2961,-2.7681,-1.1232,4.7260,-0.6106,3.9330,0.7779,
8.885875,0.4729,-1.1026,-0.2961,1.0245,-1.2803,-1.3723,-0.6106,3.9330,0.7779,
8.923897,0.4729,-1.1026,-0.2961,1.0245,-1.2803,-1.3723,-0.4977,3.8680,0.5734,
8.926029,0.4729,-1.1026,-0.2961,3.8253,-0.4022,3.3454,-0.4977,3.8680,0.5734,
8.955085,0.3299,-0.9287,0.3724,3.8253,-0.4022,3.3454,-0.4977,3.8680,0.5734,
8.957343,0.5041,-1.0313,0.5255,3.8253,-0.4022,3.3454,-0.4977,3.8680,0.5734,
8.958187,0.6734,-1.1422,0.4527,3.8253,-0.4022,3.3454,-0.4977,3.8680,0.5734,
8.959131,0.7780,-1.1783,0.2636,3.8253,-0.4022,3.3454,-0.4977,3.8680,0.5734,
8.964445,0.7780,-1.1783,0.2636,3.8253,-0.4022,3.3454,0.7764,3.0318,0.3614,
8.966614,0.7780,-1.1783,0.2636,3.7491,-0.3530,2.9453,0.7764,3.0318,0.3614,
9.003884,0.7780,-1.1783,0.2636,3.7491,-0.3530,2.9453,1.3889,1.9835,-0.1947,
9.006495,0.7780,-1.1783,0.2636,6.3501,-1.7482,1.7400,1.3889,1.9835,-0.1947,
9.042668,0.7780,-1.1783,0.2636,6.3501,-1.7482,1.7400,0.7913,1.4296,-0.5441,
9.045308,0.7780,-1.1783,0.2636,0.7103,-0.8266,-4.1836,0.7913,1.4296,-0.5441,
9.046927,0.7252,-1.1884,-0.2978,0.7103,-0.8266,-4.1836,0.7913,1.4296,-0.5441,
9.047879,0.4494,-1.0706,-0.6452,0.7103,-0.8266,-4.1836,0.7913,1.4296,-0.5441,
9.049174,0.1421,-1.0310,-0.4109,0.7103,-0.8266,-4.1836,0.7913,1.4296,-0.5441,
9.050371,-0.0702,-1.1256,-0.2523,0.7103,-0.8266,-4.1836,0.7913,1.4296,-0.5441,
9.051486,-0.1692,-1.1197,-0.3452,0.7103,-0.8266,-4.1836,0.7913,1.4296,-0.5441,
9.083284,-0.1692,-1.1197,-0.3452,0.6945,-0.8149,-4.4021,0.7913,1.4296,-0.5441,
9.085699,-0.1692,-1.1197,-0.3452,0.6945,-0.8149,-4.4021,0.6102,1.4530,-0.0200,
9.122628,-0.1692,-1.1197,-0.3452,0.6945,-0.8149,-4.4021,0.1905,1.2528,0.7257,
9.124913,-0.1692,-1.1197,-0.3452,-1.2943,-0.1795,-4.8369,0.1905,1.2528,0.7257,
9.126472,-0.1059,-1.0010,-0.5023,-1.2943,-0.1795,-4.8369,0.1905,1.2528,0.7257,
9.127514,0.0920,-0.9201,-0.5831,-1.2943,-0.1795,-4.8369,0.1905,1.2528,0.7257,
9.128667,0.3087,-0.9487,-0.6159,-1.2943,-0.1795,-4.8369,0.1905,1.2528,0.7257,
9.130556,0.4736,-0.9138,-0.4827,-1.2943,-0.1795,-4.8369,0.1905,1.2528,0.7257,
9.161585,0.4736,-0.9138,-0.4827,-1.2943,-0.1795,-4.8369,-0.9131,0.2983,0.8738,
9.163336,0.4736,-0.9138,-0.4827,-0.9390,-0.1588,-4.4161,-0.9131,0.2983,0.8738,
9.202258,0.4736,-0.9138,-0.4827,-0.9390,-0.1588,-4.4161,-2.2011,-1.7076,1.0037,
9.204530,0.4736,-0.9138,-0.4827,3.9371,0.5362,-4.0008,-2.2011,-1.7076,1.0037,
9.206075,0.4137,-0.9460,-0.4881,3.9371,0.5362,-4.0008,-2.2011,-1.7076,1.0037,
9.207345,0.3260,-0.9870,-0.5626,3.9371,0.5362,-4.0008,-2.2011,-1.7076,1.0037,
9.208542,0.2821,-1.0537,-0.4036,3.9371,0.5362,-4.0008,-2.2011,-1.7076,1.0037,
9.209951,0.2237,-1.1019,-0.3439,3.9371,0.5362,-4.0008,-2.2011,-1.7076,1.0037,
9.241566,0.2237,-1.1019,-0.3439,3.9371,0.5362,-4.0008,-3.5135,-2.1028,0.8354,
9.244202,0.2237,-1.1019,-0.3439,3.1634,-0.8069,-1.7546,-3.5135,-2.1028,0.8354,
9.281576,0.3365,-1.1046,0.0242,3.1634,-0.8069,-1.7546,-3.5135,-2.1028,0.8354,
9.284034,0.4018,-1.2880,0.5231,3.1634,-0.8069,-1.7546,-3.5135,-2.1028,0.8354,
9.285347,0.5904,-1.6367,0.4046,3.1634,-0.8069,-1.7546,-3.5135,-2.1028,0.8354,
9.286534,0.5904,-1.6367,0.4046,3.1634,-0.8069,-1.7546,-2.7870,-0.7510,-0.0200,
9.287553,0.5904,-1.6367,0.4046,4.7856,-3.9702,6.5361,-2.7870,-0.7510,-0.0200,
9.320836,0.5904,-1.6367,0.4046,4.7856,-3.9702,6.5361,-1.2455,-1.8333,-0.8946,
9.323935,0.5904,-1.6367,0.4046,9.6946,-3.3323,8.4517,-1.2455,-1.8333,-0.8946,
9.360449,0.5904,-1.6367,0.4046,9.6946,-3.3323,8.4517,0.3865,-2.6962,-1.7787,
9.363272,0.5904,-1.6367,0.4046,9.2877,-3.2145,8.1614,0.3865,-2.6962,-1.7787,
9.364588,1.0118,-1.6616,0.3303,9.2877,-3.2145,8.1614,0.3865,-2.6962,-1.7787,
9.365904,1.0978,-1.2404,0.5820,9.2877,-3.2145,8.1614,0.3865,-2.6962,-1.7787,
9.367143,0.7883,-0.8989,0.5417,9.2877,-3.2145,8.1614,0.3865,-2.6962,-1.7787,
9.368242,0.4013,-0.8068,0.3648,9.2877,-3.2145,8.1614,0.3865,-2.6962,-1.7787,
9.369670,0.0998,-0.8033,0.4119,9.2877,-3.2145,8.1614,0.3865,-2.6962,-1.7787,
9.400194,0.0998,-0.8033,0.4119,9.2877,-3.2145,8.1614,1.1854,-3.7391,-1.4719,
9.403018,0.0998,-0.8033,0.4119,9.0716,-3.0255,7.6302,1.1854,-3.7391,-1.4719,
9.430624,-0.0221,-0.7364,0.5224,9.0716,-3.0255,7.6302,1.1854,-3.7391,-1.4719,
9.432643,-0.0629,-0.5771,0.8295,9.0716,-3.0255,7.6302,1.1854,-3.7391,-1.4719,
9.434036,-0.1701,-0.6990,0.8214,9.0716,-3.0255,7.6302,1.1854,-3.7391,-1.4719,
9.439371,-0.1701,-0.6990,0.8214,9.0716,-3.0255,7.6302,1.0288,-5.4499,-0.9404,
9.440890,-0.1701,-0.6990,0.8214,1.3801,1.7943,6.6901,1.0288,-5.4499,-0.9404,
9.479487,-0.1701,-0.6990,0.8214,1.3801,1.7943,6.6901,1.3473,-5.6299,-0.6357,
9.481918,-0.1701,-0.6990,0.8214,-0.7011,2.2802,8.8268,1.3473,-5.6299,-0.6357,
9.505927,-0.0065,-0.9453,0.4996,-0.7011,2.2802,8.8268,1.3473,-5.6299,-0.6357,
9.509423,0.0817,-1.2629,0.3379,-0.7011,2.2802,8.8268,1.3473,-5.6299,-0.6357,
9.510791,-0.1086,-1.2831,0.0076,-0.7011,2.2802,8.8268,1.3473,-5.6299,-0.6357,
9.511953,-0.4763,-1.0552,-0.1553,-0.7011,2.2802,8.8268,1.3473,-5.6299,-0.6357,
9.519152,-0.4763,-1.0552,-0.1553,-1.6538,-2.0870,1.7057,1.3473,-5.6299,-0.6357,
9.521440,-0.4763,-1.0552,-0.1553,-1.6538,-2.0870,1.7057,1.7809,-5.4435,-1.1492,
9.559242,-0.4763,-1.0552,-0.1553,-1.6538,-2.0870,1.7057,0.8115,-2.9454,-0.7241,
9.561851,-0.4763,-1.0552,-0.1553,-4.7940,-2.4515,-2.7520,0.8115,-2.9454,-0.7241,
9.591021,-0.5259,-0.9880,-0.2526,-4.7940,-2.4515,-2.7520,0.8115,-2.9454,-0.7241,
9.593645,-0.5075,-1.3450,-0.5015,-4.7940,-2.4515,-2.7520,0.8115,-2.9454,-0.7241,
9.595003,-0.4037,-1.4009,-0.3422,-4.7940,-2.4515,-2.7520,0.8115,-2.9454,-0.7241,
9.596462,0.0568,-1.1329,0.0269,-4.7940,-2.4515,-2.7520,0.8115,-2.9454,-0.7241,
9.602016,0.0568,-1.1329,0.0269,-4.5305,-2.4233,-2.5669,0.8115,-2.9454,-0.7241,
9.604593,0.0568,-1.1329,0.0269,-4.5305,-2.4233,-2.5669,-0.3560,-2.6834,0.2463,
9.638487,0.0568,-1.1329,0.0269,-4.5305,-2.4233,-2.5669,-0.1952,-2.3894,0.1686,
9.640992,0.0568,-1.1329,0.0269,2.0084,-1.6689,1.9163,-0.1952,-2.3894,0.1686,
9.678023,0.0568,-1.1329,0.0269,2.0084,-1.6689,1.9163,0.1510,-1.9867,-0.1158,
9.680197,0.0568,-1.1329,0.0269,2.0084,-1.6338,1.8018,0.1510,-1.9867,-0.1158,
9.681427,0.3124,-1.1415,0.1105,2.0084,-1.6338,1.8018,0.1510,-1.9867,-0.1158,
9.682874,0.1555,-1.2343,0.1327,2.0084,-1.6338,1.8018,0.1510,-1.9867,-0.1158,
9.684133,-0.0228,-1.1737,-0.0723,2.0084,-1.6338,1.8018,0.1510,-1.9867,-0.1158,
9.685480,-0.1259,-1.0413,-0.2115,2.0084,-1.6338,1.8018,0.1510,-1.9867,-0.1158,
9.686615,-0.1213,-0.8759,-0.0400,2.0084,-1.6338,1.8018,0.1510,-1.9867,-0.1158,
9.717486,-0.1213,-0.8759,-0.0400,2.0084,-1.6338,1.8018,-0.4743,-2.0741,0.2921,
9.720215,-0.1213,-0.8759,-0.0400,-0.3870,-0.2876,0.0150,-0.4743,-2.0741,0.2921,
9.757426,-0.1213,-0.8759,-0.0400,-0.3870,-0.2876,0.0150,-0.8620,-1.8333,0.4338,
9.759965,-0.1213,-0.8759,-0.0400,3.8826,2.0083,1.7145,-0.8620,-1.8333,0.4338,
9.761318,0.0895,-0.7374,0.0975,3.8826,2.0083,1.7145,-0.8620,-1.8333,0.4338,
9.762665,0.3668,-0.7269,0.0445,3.8826,2.0083,1.7145,-0.8620,-1.8333,0.4338,
9.763988,0.5225,-0.8974,-0.0254,3.8826,2.0083,1.7145,-0.8620,-1.8333,0.4338,
9.765102,0.1499,-1.1419,0.1369,3.8826,2.0083,1.7145,-0.8620,-1.8333,0.4338,
9.796386,0.1499,-1.1419,0.1369,3.8826,2.0083,1.7145,-1.2263,-0.5475,-0.5175,
9.798849,0.1499,-1.1419,0.1369,3.6538,1.9127,2.1346,-1.2263,-0.5475,-0.5175,
9.831031,-0.6949,-1.3511,0.3167,3.6538,1.9127,2.1346,-1.2263,-0.5475,-0.5175,
9.833557,-1.3123,-1.3946,-0.0322,3.6538,1.9127,2.1346,-1.2263,-0.5475,-0.5175,
9.834822,-1.2754,-1.1857,-0.4878,3.6538,1.9127,2.1346,-1.2263,-0.5475,-0.5175,
9.836473,-1.2754,-1.1857,-0.4878,-5.8218,-3.1131,3.5653,-1.2263,-0.5475,-0.5175,
9.837903,-1.2754,-1.1857,-0.4878,-5.8218,-3.1131,3.5653,-1.2413,2.1529,-0.3534,
9.875549,-1.2754,-1.1857,-0.4878,-5.8218,-3.1131,3.5653,-1.7227,2.8187,0.8546,
9.878173,-1.2754,-1.1857,-0.4878,-6.6060,-1.4789,0.7887,-1.7227,2.8187,0.8546,
9.915101,-1.2754,-1.1857,-0.4878,-6.6060,-1.4789,0.7887,-1.0357,3.2214,0.8141,
9.917526,-1.2754,-1.1857,-0.4878,-6.5873,-1.5893,1.1984,-1.0357,3.2214,0.8141,
9.918974,-0.6417,-1.0706,-0.2022,-6.5873,-1.5893,1.1984,-1.0357,3.2214,0.8141,
9.920120,-0.2266,-1.0833,0.0587,-6.5873,-1.5893,1.1984,-1.0357,3.2214,0.8141,
9.921247,-0.3333,-0.9763,-0.0872,-6.5873,-1.5893,1.1984,-1.0357,3.2214,0.8141,
9.922667,-0.3617,-0.7884,-0.4163,-6.5873,-1.5893,1.1984,-1.0357,3.2214,0.8141,
9.923808,-0.1934,-0.6873,-0.3449,-6.5873,-1.5893,1.1984,-1.0357,3.2214,0.8141,
9.955172,-0.1934,-0.6873,-0.3449,-6.5873,-1.5893,1.1984,-0.6021,2.1700,1.1476,
9.957843,-0.1934,-0.6873,-0.3449,-2.3182,1.1880,0.7376,-0.6021,2.1700,1.1476,
9.994276,-0.1934,-0.6873,-0.3449,-1.8828,3.5635,3.4145,-0.6021,2.1700,1.1476,
9.996910,-0.1934,-0.6873,-0.3449,-1.8828,3.5635,3.4145,0.0072,3.0392,1.1081,
9.998579,-0.1369,-0.6631,-0.1588,-1.8828,3.5635,3.4145,0.0072,3.0392,1.1081,
9.999774,-0.2625,-0.5734,-0.0114,-1.8828,3.5635,3.4145,0.0072,3.0392,1.1081,
10.001072,-0.3575,-0.4623,0.1383,-1.8828,3.5635,3.4145,0.0072,3.0392,1.1081,
10.002207,-0.2794,-0.4098,0.2490,-1.8828,3.5635,3.4145,0.0072,3.0392,1.1081,
10.034447,-0.2794,-0.4098,0.2490,-2.1950,3.6837,2.8980,0.0072,3.0392,1.1081,
10.036987,-0.2794,-0.4098,0.2490,-2.1950,3.6837,2.8980,1.4837,4.3548,0.6160,
10.074255,-0.2794,-0.4098,0.2490,-2.1950,3.6837,2.8980,2.9932,4.5647,0.1111,
10.077030,-0.2794,-0.4098,0.2490,-0.5092,4.7591,5.1773,2.9932,4.5647,0.1111,
10.079134,-0.0531,-0.4591,0.3372,-0.5092,4.7591,5.1773,2.9932,4.5647,0.1111,
10.080490,0.2151,-0.5651,0.4437,-0.5092,4.7591,5.1773,2.9932,4.5647,0.1111,
10.081620,0.3243,-0.7598,0.4960,-0.5092,4.7591,5.1773,2.9932,4.5647,0.1111,
10.083051,0.1367,-1.3313,0.0438,-0.5092,4.7591,5.1773,2.9932,4.5647,0.1111,
10.114649,0.1367,-1.3313,0.0438,-0.5092,4.7591,5.1773,2.7471,3.5527,0.0951,
10.116983,0.1367,-1.3313,0.0438,-0.6454,4.8179,4.0418,2.7471,3.5527,0.0951,
10.153915,0.1367,-1.3313,0.0438,-0.6454,4.8179,4.0418,0.2245,3.3705,0.1078,
10.156149,0.1367,-1.3313,0.0438,1.2299,-5.5525,-0.4977,0.2245,3.3705,0.1078,
10.157455,0.0116,-2.5484,-0.8648,1.2299,-5.5525,-0.4977,0.2245,3.3705,0.1078,
10.159143,0.6270,-2.9266,-1.0881,1.2299,-5.5525,-0.4977,0.2245,3.3705,0.1078,
10.160437,0.6610,-1.3408,-0.6290,1.2299,-5.5525,-0.4977,0.2245,3.3705,0.1078,
10.161719,-0.0993,-0.4366,-0.3654,1.2299,-5.5525,-0.4977,0.2245,3.3705,0.1078,
10.192732,-0.0993,-0.4366,-0.3654,1.2299,-5.5525,-0.4977,-0.2335,2.8528,0.1771,
10.195060,-0.0993,-0.4366,-0.3654,3.5119,-5.6702,-6.0827,-0.2335,2.8528,0.1771,
10.232852,-0.0993,-0.4366,-0.3654,3.5119,-5.6702,-6.0827,0.2661,2.4576,1.0133,
10.235279,-0.0993,-0.4366,-0.3654,0.6464,1.9717,2.1648,0.2661,2.4576,1.0133,
10.236901,-0.2720,-0.4735,-0.0366,0.6464,1.9717,2.1648,0.2661,2.4576,1.0133,
10.238018,0.1005,-0.6909,0.0882,0.6464,1.9717,2.1648,0.2661,2.4576,1.0133,
10.239219,0.3871,-1.1947,0.4403,0.6464,1.9717,2.1648,0.2661,2.4576,1.0133,
10.240479,0.7120,-1.7747,0.3983,0.6464,1.9717,2.1648,0.2661,2.4576,1.0133,
10.271580,0.7120,-1.7747,0.3983,0.6464,1.9717,2.1648,1.9130,1.7034,0.8131,
10.273967,0.7120,-1.7747,0.3983,0.9246,1.9505,1.4115,1.9130,1.7034,0.8131,
10.310668,0.9754,-1.7703,-0.2428,0.9246,1.9505,1.4115,1.9130,1.7034,0.8131,
10.312244,0.9800,-1.0120,-1.0412,0.9246,1.9505,1.4115,1.9130,1.7034,0.8131,
10.312940,0.6747,-0.4041,-1.3329,0.9246,1.9505,1.4115,1.9130,1.7034,0.8131,
10.313753,0.6747,-0.4041,-1.3329,0.9246,1.9505,1.4115,2.1559,0.0682,0.0365,
10.314429,0.6747,-0.4041,-1.3329,8.7962,-5.1930,-3.8466,2.1559,0.0682,0.0365,
10.350542,0.6747,-0.4041,-1.3329,8.7962,-5.1930,-3.8466,0.0094,-0.2386,-0.3321,
10.352388,0.6747,-0.4041,-1.3329,2.5231,3.8711,-9.6947,0.0094,-0.2386,-0.3321,
10.390880,0.6747,-0.4041,-1.3329,2.5231,3.8711,-9.6947,-0.7566,-0.0309,0.6629,
10.393335,0.6747,-0.4041,-1.3329,2.7291,3.8249,-9.2487,-0.7566,-0.0309,0.6629,
10.394656,0.2366,-0.4652,-0.8543,2.7291,3.8249,-9.2487,-0.7566,-0.0309,0.6629,
10.396014,-0.1091,-0.8927,-0.5379,2.7291,3.8249,-9.2487,-0.7566,-0.0309,0.6629,
10.397014,-0.1032,-1.1551,-0.6474,2.7291,3.8249,-9.2487,-0.7566,-0.0309,0.6629,
10.398263,0.0839,-1.1502,-1.1702,2.7291,3.8249,-9.2487,-0.7566,-0.0309,0.6629,
10.399700,0.2264,-1.1710,-1.2396,2.7291,3.8249,-9.2487,-0.7566,-0.0309,0.6629,
10.430617,0.2264,-1.1710,-1.2396,2.7291,3.8249,-9.2487,-3.5401,-2.2775,1.4416,
10.433542,0.2264,-1.1710,-1.2396,1.3392,-1.8103,-8.8772,-3.5401,-2.2775,1.4416,
10.470944,0.2264,-1.1710,-1.2396,1.3392,-1.8103,-8.8772,-5.2008,-4.1822,0.5137,
10.473477,0.2264,-1.1710,-1.2396,9.0149,-4.6961,1.3980,-5.2008,-4.1822,0.5137,
10.474804,0.4384,-1.2626,-0.7370,9.0149,-4.6961,1.3980,-5.2008,-4.1822,0.5137,
10.476272,0.8662,-1.3647,-0.1424,9.0149,-4.6961,1.3980,-5.2008,-4.1822,0.5137,
10.477757,1.1371,-1.6247,0.4325,9.0149,-4.6961,1.3980,-5.2008,-4.1822,0.5137,
10.479061,0.6446,-2.0640,0.8368,9.0149,-4.6961,1.3980,-5.2008,-4.1822,0.5137,
10.509377,0.6446,-2.0640,0.8368,9.0149,-4.6961,1.3980,-3.2823,-0.8863,-1.0235,
10.511942,0.6446,-2.0640,0.8368,8.6164,-5.0171,2.4891,-3.2823,-0.8863,-1.0235,
10.549457,0.4900,-1.7791,0.5439,8.6164,-5.0171,2.4891,-3.2823,-0.8863,-1.0235,
10.551922,0.4577,-1.3462,0.2228,8.6164,-5.0171,2.4891,-3.2823,-0.8863,-1.0235,
10.553081,0.4746,-1.2304,-0.1702,8.6164,-5.0171,2.4891,-3.2823,-0.8863,-1.0235,
10.554092,0.4746,-1.2304,-0.1702,8.6164,-5.0171,2.4891,-1.6450,-1.1867,-1.5369,
10.555467,0.4746,-1.2304,-0.1702,5.4199,-8.1863,9.5729,-1.6450,-1.1867,-1.5369,
10.590463,0.4746,-1.2304,-0.1702,5.4199,-8.1863,9.5729,-0.7278,-3.4472,-1.4091,
10.599250,0.4746,-1.2304,-0.1702,6.3170,-2.2025,5.0162,-0.7278,-3.4472,-1.4091,
10.619160,0.7279,-1.1898,-0.0662,6.3170,-2.2025,5.0162,-0.7278,-3.4472,-1.4091,
10.621425,0.6583,-0.9135,0.4046,6.3170,-2.2025,5.0162,-0.7278,-3.4472,-1.4091,
10.622522,0.2036,-0.6335,0.9563,6.3170,-2.2025,5.0162,-0.7278,-3.4472,-1.4091,
10.623492,-0.2276,-0.5177,0.9296,6.3170,-2.2025,5.0162,-0.7278,-3.4472,-1.4091,
10.628292,-0.2276,-0.5177,0.9296,6.3170,-2.2025,5.0162,0.4898,-5.4712,-1.6669,
10.630062,-0.2276,-0.5177,0.9296,6.5775,-2.0564,4.6762,0.4898,-5.4712,-1.6669,
10.667656,-0.2276,-0.5177,0.9296,6.5775,-2.0564,4.6762,1.6158,-5.1750,-1.7255,
10.669667,-0.2276,-0.5177,0.9296,-1.0541,3.7660,11.7855,1.6158,-5.1750,-1.7255,
10.707448,-0.2276,-0.5177,0.9296,-1.0541,3.7660,11.7855,2.1367,-4.1215,-1.1002,
10.709399,-0.2276,-0.5177,0.9296,-4.1223,3.6601,6.3334,2.1367,-4.1215,-1.1002,
10.710424,-0.5090,-0.4672,0.7337,-4.1223,3.6601,6.3334,2.1367,-4.1215,-1.1002,
10.711241,-0.6382,-0.4256,0.5595,-4.1223,3.6601,6.3334,2.1367,-4.1215,-1.1002,
10.712211,-0.5584,-0.5087,0.3812,-4.1223,3.6601,6.3334,2.1367,-4.1215,-1.1002,
10.713197,-0.3153,-0.7791,0.3172,-4.1223,3.6601,6.3334,2.1367,-4.1215,-1.1002,
10.714262,-0.0864,-1.2380,0.1298,-4.1223,3.6601,6.3334,2.1367,-4.1215,-1.1002,
10.746903,-0.0864,-1.2380,0.1298,-4.1223,3.6601,6.3334,2.1037,-2.6706,-1.0267,
10.749395,-0.0864,-1.2380,0.1298,-4.2375,3.7756,5.3831,2.1037,-2.6706,-1.0267,
10.787553,-0.1213,-1.7532,-0.0293,-4.2375,3.7756,5.3831,2.1037,-2.6706,-1.0267,
10.789753,-0.3685,-1.9718,0.1070,-4.2375,3.7756,5.3831,2.1037,-2.6706,-1.0267,
10.791075,-0.6060,-1.5895,-0.2633,-4.2375,3.7756,5.3831,2.1037,-2.6706,-1.0267,
10.792413,-0.6060,-1.5895,-0.2633,-1.6700,-6.6562,1.5206,2.1037,-2.6706,-1.0267,
10.793702,-0.6060,-1.5895,-0.2633,-1.6700,-6.6562,1.5206,1.0565,-0.4485,-1.4442,
10.827101,-0.6060,-1.5895,-0.2633,-1.6700,-6.6562,1.5206,-0.5733,0.0224,-0.5324,
10.829677,-0.6060,-1.5895,-0.2633,-10.5000,-0.6345,-6.3174,-0.5733,0.0224,-0.5324,
10.865825,-0.6060,-1.5895,-0.2633,-10.5000,-0.6345,-6.3174,-1.6993,1.0088,1.8219,
10.868262,-0.6060,-1.5895,-0.2633,-9.7115,-0.7583,-5.5650,-1.6993,1.0088,1.8219,
10.869391,-1.1914,-0.9037,-1.4399,-9.7115,-0.7583,-5.5650,-1.6993,1.0088,1.8219,
10.870188,-1.4743,-0.6238,-0.5878,-9.7115,-0.7583,-5.5650,-1.6993,1.0088,1.8219,
10.870972,-0.9422,-0.9333,0.2314,-9.7115,-0.7583,-5.5650,-1.6993,1.0088,1.8219,
10.872239,-0.4313,-1.3958,0.3360,-9.7115,-0.7583,-5.5650,-1.6993,1.0088,1.8219,
10.873043,0.1760,-1.4507,0.5761,-9.7115,-0.7583,-5.5650,-1.6993,1.0088,1.8219,
10.906442,0.1760,-1.4507,0.5761,-9.7115,-0.7583,-5.5650,-0.2921,-0.4623,1.7516,
10.908165,0.1760,-1.4507,0.5761,-2.2111,-2.9867,5.6402,-0.2921,-0.4623,1.7516,
10.946812,0.1760,-1.4507,0.5761,-2.2111,-2.9867,5.6402,0.9212,0.9385,0.4402,
10.949366,0.1760,-1.4507,0.5761,7.1138,-0.6799,2.0106,0.9212,0.9385,0.4402,
10.950723,0.7057,-1.2761,0.4926,7.1138,-0.6799,2.0106,0.9212,0.9385,0.4402,
10.951976,0.6202,-1.0276,-0.1727,7.1138,-0.6799,2.0106,0.9212,0.9385,0.4402,
10.953676,0.3383,-0.7838,-0.1930,7.1138,-0.6799,2.0106,0.9212,0.9385,0.4402,
10.954797,0.0387,-0.7342,0.1862,7.1138,-0.6799,2.0106,0.9212,0.9385,0.4402,
10.985144,0.0387,-0.7342,0.1862,7.1138,-0.6799,2.0106,1.2451,1.7140,0.0642,
10.987263,0.0387,-0.7342,0.1862,6.9244,-0.6040,1.6294,1.2451,1.7140,0.0642,
11.026357,0.0387,-0.7342,0.1862,6.9244,-0.6040,1.6294,1.7830,0.0021,0.2186,
11.028523,0.0387,-0.7342,0.1862,0.8593,3.2052,2.4570,1.7830,0.0021,0.2186,
11.030036,-0.0776,-0.6252,0.2935,0.8593,3.2052,2.4570,1.7830,0.0021,0.2186,
11.031154,-0.1733,-0.5605,0.1193,0.8593,3.2052,2.4570,1.7830,0.0021,0.2186,
11.032336,-0.3844,-0.7628,-0.1082,0.8593,3.2052,2.4570,1.7830,0.0021,0.2186,
11.033551,-0.3727,-1.2397,-0.2277,0.8593,3.2052,2.4570,1.7830,0.0021,0.2186,
11.063998,-0.3727,-1.2397,-0.2277,0.8593,3.2052,2.4570,1.5870,-0.7787,0.4839,
11.065825,-0.3727,-1.2397,-0.2277,1.0271,3.1320,1.7803,1.5870,-0.7787,0.4839,
11.104171,-0.3727,-1.2397,-0.2277,1.0271,3.1320,1.7803,1.1822,0.7947,0.1025,
11.106657,-0.3727,-1.2397,-0.2277,-0.7959,-2.1044,-2.0174,1.1822,0.7947,0.1025,
11.108045,-0.0333,-1.5238,-0.1206,-0.7959,-2.1044,-2.0174,1.1822,0.7947,0.1025,
11.109091,0.3732,-1.5450,-0.3051,-0.7959,-2.1044,-2.0174,1.1822,0.7947,0.1025,
11.110216,0.1059,-1.3108,-0.5802,-0.7959,-2.1044,-2.0174,1.1822,0.7947,0.1025,
11.111474,-0.3793,-0.9795,-0.7192,-0.7959,-2.1044,-2.0174,1.1822,0.7947,0.1025,
11.143902,-0.3793,-0.9795,-0.7192,-0.7959,-2.1044,-2.0174,0.3503,1.2538,0.0056,
11.146220,-0.3793,-0.9795,-0.7192,2.1072,-3.0702,-5.7117,0.3503,1.2538,0.0056,
11.183736,-0.3793,-0.9795,-0.7192,2.1072,-3.0702,-5.7117,-0.4966,1.3913,0.8514,
11.186193,-0.3793,-0.9795,-0.7192,3.1339,1.2580,-6.1676,-0.4966,1.3913,0.8514,
11.187544,-0.2168,-0.7791,-0.6997,3.1339,1.2580,-6.1676,-0.4966,1.3913,0.8514,
11.188677,0.1269,-0.7977,-0.5951,3.1339,1.2580,-6.1676,-0.4966,1.3913,0.8514,
11.190145,0.4169,-0.9086,-0.5707,3.1339,1.2580,-6.1676,-0.4966,1.3913,0.8514,
11.191423,0.8608,-1.1141,-0.3965,3.1339,1.2580,-6.1676,-0.4966,1.3913,0.8514,
11.223178,0.8608,-1.1141,-0.3965,3.1339,1.2580,-6.1676,-1.1070,-0.8405,0.9452,
11.226198,0.8608,-1.1141,-0.3965,3.4311,1.1499,-5.7380,-1.1070,-0.8405,0.9452,
11.263066,1.1684,-1.3694,-0.2247,3.4311,1.1499,-5.7380,-1.1070,-0.8405,0.9452,
11.265578,0.9825,-1.4754,-0.2059,3.4311,1.1499,-5.7380,-1.1070,-0.8405,0.9452,
11.266910,0.4751,-1.2788,-0.8025,3.4311,1.1499,-5.7380,-1.1070,-0.8405,0.9452,
11.268178,0.4751,-1.2788,-0.8025,3.4311,1.1499,-5.7380,-1.7291,-2.6333,-0.2511,
11.269559,0.4751,-1.2788,-0.8025,11.9652,-3.6165,-1.9272,-1.7291,-2.6333,-0.2511,
11.302477,0.4751,-1.2788,-0.8025,11.9652,-3.6165,-1.9272,-3.8266,-1.4807,-0.7358,
11.305014,0.4751,-1.2788,-0.8025,1.5000,-2.4479,-8.0201,-3.8266,-1.4807,-0.7358,
11.342720,0.4751,-1.2788,-0.8025,1.5000,-2.4479,-8.0201,-4.2453,-0.3664,-0.4844,
11.344980,0.4751,-1.2788,-0.8025,1.3411,-2.8578,-6.4254,-4.2453,-0.3664,-0.4844,
11.346472,-0.0702,-1.0772,-1.3693,1.3411,-2.8578,-6.4254,-4.2453,-0.3664,-0.4844,
11.347510,-0.5290,-1.2108,-0.9550,1.3411,-2.8578,-6.4254,-4.2453,-0.3664,-0.4844,
11.349106,-0.4640,-1.4380,0.0584,1.3411,-2.8578,-6.4254,-4.2453,-0.3664,-0.4844,
11.350239,0.2791,-1.2783,0.7503,1.3411,-2.8578,-6.4254,-4.2453,-0.3664,-0.4844,
11.351346,0.9517,-1.1385,0.8036,1.3411,-2.8578,-6.4254,-4.2453,-0.3664,-0.4844,
11.381040,0.9517,-1.1385,0.8036,3.9116,-4.0344,9.6304,-4.2453,-0.3664,-0.4844,
11.382935,0.9517,-1.1385,0.8036,3.9116,-4.0344,9.6304,-2.3374,-0.9704,-1.2834,
11.421372,0.9517,-1.1385,0.8036,3.9116,-4.0344,9.6304,-1.2945,-0.6807,-2.8802,
11.423792,0.9517,-1.1385,0.8036,8.7736,-4.8835,1.7716,-1.2945,-0.6807,-2.8802,
11.425138,1.1205,-1.1915,0.2282,8.7736,-4.8835,1.7716,-1.2945,-0.6807,-2.8802,
11.426401,0.9576,-1.3982,-0.5108,8.7736,-4.8835,1.7716,-1.2945,-0.6807,-2.8802,
11.427652,0.4812,-1.5133,-0.6264,8.7736,-4.8835,1.7716,-1.2945,-0.6807,-2.8802,
11.428956,0.1467,-1.4322,0.1992,8.7736,-4.8835,1.7716,-1.2945,-0.6807,-2.8802,
11.461049,0.1467,-1.4322,0.1992,8.7736,-4.8835,1.7716,-1.0186,-2.1710,-3.6973,
11.463849,0.1467,-1.4322,0.1992,7.8311,-4.9989,2.0806,-1.0186,-2.1710,-3.6973,
11.500284,0.1467,-1.4322,0.1992,7.8311,-4.9989,2.0806,0.0488,-3.3769,-2.9889,
11.501937,0.1467,-1.4322,0.1992,-2.4290,-4.4916,8.2934,0.0488,-3.3769,-2.9889,
11.502882,-0.1589,-1.3359,0.4334,-2.4290,-4.4916,8.2934,0.0488,-3.3769,-2.9889,
11.503662,-0.4887,-1.1801,0.3782,-2.4290,-4.4916,8.2934,0.0488,-3.3769,-2.9889,
11.504419,-0.4841,-0.8038,0.3746,-2.4290,-4.4916,8.2934,0.0488,-3.3769,-2.9889,
11.505024,-0.3255,-0.3917,0.2739,-2.4290,-4.4916,8.2934,0.0488,-3.3769,-2.9889,
11.539851,-0.3255,-0.3917,0.2739,-2.4290,-4.4916,8.2934,0.7913,-2.0357,-1.8085,
11.541732,-0.3255,-0.3917,0.2739,-2.5916,-4.3285,7.9658,0.7913,-2.0357,-1.8085,
11.579248,-0.3255,-0.3917,0.2739,-2.5916,-4.3285,7.9658,1.8342,0.5294,-0.8530,
11.581660,-0.3255,-0.3917,0.2739,-5.2591,3.9593,6.7346,1.8342,0.5294,-0.8530,
11.583275,-0.4191,-0.2803,0.2224,-5.2591,3.9593,6.7346,1.8342,0.5294,-0.8530,
11.584411,-0.5498,-0.4325,0.1728,-5.2591,3.9593,6.7346,1.8342,0.5294,-0.8530,
11.586069,-0.4961,-0.6345,0.1857,-5.2591,3.9593,6.7346,1.8342,0.5294,-0.8530,
11.587082,-0.4323,-0.7884,-0.2350,-5.2591,3.9593,6.7346,1.8342,0.5294,-0.8530,
11.619707,-0.4323,-0.7884,-0.2350,-5.2591,3.9593,6.7346,1.4166,1.4466,0.0077,
11.622026,-0.4323,-0.7884,-0.2350,-6.1704,2.8741,3.6539,1.4166,1.4466,0.0077,
11.659716,-0.4323,-0.7884,-0.2350,-6.1704,2.8741,3.6539,0.3886,0.3026,-0.4216,
11.662452,-0.4323,-0.7884,-0.2350,-5.5211,-1.3332,-5.0516,0.3886,0.3026,-0.4216,
11.663803,-0.2586,-0.8124,-0.7446,-5.5211,-1.3332,-5.0516,0.3886,0.3026,-0.4216,
11.664820,-0.2962,-1.0239,-0.5438,-5.5211,-1.3332,-5.0516,0.3886,0.3026,-0.4216,
11.666509,-0.6957,-1.3215,-1.2320,-5.5211,-1.3332,-5.0516,0.3886,0.3026,-0.4216,
11.667976,-0.8708,-1.7288,-0.4895,-5.5211,-1.3332,-5.0516,0.3886,0.3026,-0.4216,
11.698675,-0.8708,-1.7288,-0.4895,-5.5211,-1.3332,-5.0516,-0.6000,0.4730,1.0144,
11.701263,-0.8708,-1.7288,-0.4895,-5.1345,-1.3365,-4.7821,-0.6000,0.4730,1.0144,
11.738193,-0.8708,-1.7288,-0.4895,-5.1345,-1.3365,-4.7821,-1.0761,1.1122,1.1785,
11.740457,-0.8708,-1.7288,-0.4895,-7.6022,-11.9008,1.0023,-1.0761,1.1122,1.1785,
11.742361,-1.1183,-2.5279,0.0132,-7.6022,-11.9008,1.0023,-1.0761,1.1122,1.1785,
11.743855,-0.1350,-2.1626,-0.3725,-7.6022,-11.9008,1.0023,-1.0761,1.1122,1.1785,
11.745344,0.3554,-0.6374,0.5080,-7.6022,-11.9008,1.0023,-1.0761,1.1122,1.1785,
11.747003,0.1704,-0.5698,0.5866,-7.6022,-11.9008,1.0023,-1.0761,1.1122,1.1785,
11.778291,0.1704,-0.5698,0.5866,-7.6022,-11.9008,1.0023,0.3652,2.8400,0.1078,
11.781988,0.1704,-0.5698,0.5866,-7.8472,-11.6486,0.7654,0.3652,2.8400,0.1078,
11.817375,0.1704,-0.5698,0.5866,-7.8472,-11.6486,0.7654,0.6166,2.3926,0.6192,
11.819884,0.1704,-0.5698,0.5866,0.8458,1.3338,6.7874,0.6166,2.3926,0.6192,
11.820785,0.0436,-1.2636,0.0338,0.8458,1.3338,6.7874,0.6166,2.3926,0.6192,
11.821459,0.2669,-1.7923,-0.1407,0.8458,1.3338,6.7874,0.6166,2.3926,0.6192,
11.822301,0.6703,-1.7021,-0.2865,0.8458,1.3338,6.7874,0.6166,2.3926,0.6192,
11.823589,0.4155,-1.1964,-0.2553,0.8458,1.3338,6.7874,0.6166,2.3926,0.6192,
11.857950,0.4155,-1.1964,-0.2553,0.8458,1.3338,6.7874,0.3811,1.7215,0.2027,
11.861396,0.4155,-1.1964,-0.2553,3.2215,-5.7669,0.6458,0.3811,1.7215,0.2027,
11.896933,0.4155,-1.1964,-0.2553,3.2215,-5.7669,0.6458,0.5388,2.3415,0.2027,
11.900134,0.4155,-1.1964,-0.2553,-4.2194,2.8813,-0.0432,0.5388,2.3415,0.2027,
11.901671,-0.0597,-0.7828,-0.1678,-4.2194,2.8813,-0.0432,0.5388,2.3415,0.2027,
11.903243,-0.3424,-0.6455,-0.2357,-4.2194,2.8813,-0.0432,0.5388,2.3415,0.2027,
11.904395,-0.4914,-0.6211,-0.3908,-4.2194,2.8813,-0.0432,0.5388,2.3415,0.2027,
11.905580,-0.4294,-0.6304,-0.4167,-4.2194,2.8813,-0.0432,0.5388,2.3415,0.2027,
11.936516,-0.4294,-0.6304,-0.4167,-4.2194,2.8813,-0.0432,-0.1110,2.3841,0.7747,
11.939239,-0.4294,-0.6304,-0.4167,-4.0908,2.8615,-0.1207,-0.1110,2.3841,0.7747,
11.976295,-0.4294,-0.6304,-0.4167,-4.0908,2.8615,-0.1207,-1.6556,2.8304,1.1007,
11.979637,-0.4294,-0.6304,-0.4167,-4.5127,1.8678,-1.9030,-1.6556,2.8304,1.1007,
11.982423,-0.3131,-0.7432,-0.4861,-4.5127,1.8678,-1.9030,-1.6556,2.8304,1.1007,
11.983818,-0.3385,-0.9306,-0.5995,-4.5127,1.8678,-1.9030,-1.6556,2.8304,1.1007,
11.984970,-0.2987,-1.0486,-0.5076,-4.5127,1.8678,-1.9030,-1.6556,2.8304,1.1007,
11.986245,-0.0495,-1.0816,-0.4873,-4.5127,1.8678,-1.9030,-1.6556,2.8304,1.1007,
12.015672,-0.0495,-1.0816,-0.4873,-4.5127,1.8678,-1.9030,-2.7177,1.9942,1.6259,
12.018234,-0.0495,-1.0816,-0.4873,-4.1162,1.5223,-0.9584,-2.7177,1.9942,1.6259,
12.055766,-0.0495,-1.0816,-0.4873,-4.1162,1.5223,-0.9584,-2.3704,1.5692,1.8283,
12.058983,-0.0495,-1.0816,-0.4873,-0.5328,-2.1563,-0.7950,-2.3704,1.5692,1.8283,
12.060383,0.2476,-1.1950,-0.7087,-0.5328,-2.1563,-0.7950,-2.3704,1.5692,1.8283,
12.061851,0.5691,-1.3203,-0.6659,-0.5328,-2.1563,-0.7950,-2.3704,1.5692,1.8283,
12.063197,0.6517,-1.2423,-0.3967,-0.5328,-2.1563,-0.7950,-2.3704,1.5692,1.8283,
12.064320,0.4260,-0.9069,-0.1311,-0.5328,-2.1563,-0.7950,-2.3704,1.5692,1.8283,
12.095996,0.4260,-0.9069,-0.1311,-0.5328,-2.1563,-0.7950,-0.9590,0.9982,1.4789,
12.104368,0.4260,-0.9069,-0.1311,5.3913,-2.7653,1.1755,-0.9590,0.9982,1.4789,
12.134123,0.4260,-0.9069,-0.1311,5.3913,-2.7653,1.1755,0.1638,-0.0330,1.4703,
12.136295,0.4260,-0.9069,-0.1311,-1.8287,2.5780,1.9129,0.1638,-0.0330,1.4703,
12.137384,0.0158,-0.5761,-0.0786,-1.8287,2.5780,1.9129,0.1638,-0.0330,1.4703,
12.138097,-0.3407,-0.5295,-0.3322,-1.8287,2.5780,1.9129,0.1638,-0.0330,1.4703,
12.139336,-0.4027,-0.7205,-0.5296,-1.8287,2.5780,1.9129,0.1638,-0.0330,1.4703,
12.140325,-0.2295,-0.8280,-0.2621,-1.8287,2.5780,1.9129,0.1638,-0.0330,1.4703,
12.174071,-0.2295,-0.8280,-0.2621,-1.8287,2.5780,1.9129,0.9617,-0.2919,1.7665,
12.176383,-0.2295,-0.8280,-0.2621,-1.1513,2.6554,1.5480,0.9617,-0.2919,1.7665,
12.214059,-0.2295,-0.8280,-0.2621,-1.1513,2.6554,1.5480,1.8832,0.1747,1.5737,
12.216329,-0.2295,-0.8280,-0.2621,0.1100,0.7856,2.6050,1.8832,0.1747,1.5737,
12.217408,-0.1291,-0.8358,-0.1040,0.1100,0.7856,2.6050,1.8832,0.1747,1.5737,
12.218234,-0.1401,-0.8004,-0.0410,0.1100,0.7856,2.6050,1.8832,0.1747,1.5737,
12.219197,-0.2017,-0.6941,-0.0503,0.1100,0.7856,2.6050,1.8832,0.1747,1.5737,
12.220083,-0.3595,-0.6179,-0.2240,0.1100,0.7856,2.6050,1.8832,0.1747,1.5737,
12.253671,-0.3595,-0.6179,-0.2240,0.1100,0.7856,2.6050,2.3370,0.1726,1.5428,
12.255813,-0.3595,-0.6179,-0.2240,0.6216,0.9737,1.7608,2.3370,0.1726,1.5428,
12.293398,-0.3595,-0.6179,-0.2240,0.6216,0.9737,1.7608,1.5093,0.0724,1.1912,
12.296004,-0.3595,-0.6179,-0.2240,-0.0940,2.7790,0.4729,1.5093,0.0724,1.1912,
12.297118,-0.2855,-0.6013,-0.3610,-0.0940,2.7790,0.4729,1.5093,0.0724,1.1912,
12.298379,-0.1706,-0.7992,-0.5457,-0.0940,2.7790,0.4729,1.5093,0.0724,1.1912,
12.299690,-0.4951,-1.1866,-1.4084,-0.0940,2.7790,0.4729,1.5093,0.0724,1.1912,
12.301067,-0.0815,-1.5458,-1.3033,-0.0940,2.7790,0.4729,1.5093,0.0724,1.1912,
12.333072,-0.0815,-1.5458,-1.3033,-0.0940,2.7790,0.4729,-0.1579,0.9364,0.9057,
12.335808,-0.0815,-1.5458,-1.3033,0.4499,-2.5810,-7.8003,-0.1579,0.9364,0.9057,
12.372552,-0.0815,-1.5458,-1.3033,0.4499,-2.5810,-7.8003,-0.0045,-0.2418,-0.0647,
12.374660,-0.0815,-1.5458,-1.3033,5.8881,-2.8490,-1.0124,-0.0045,-0.2418,-0.0647,
12.377902,0.6725,-1.4615,0.1693,5.8881,-2.8490,-1.0124,-0.0045,-0.2418,-0.0647,
12.379514,0.3800,-1.1031,-0.3769,5.8881,-2.8490,-1.0124,-0.0045,-0.2418,-0.0647,
12.380741,-0.1057,-1.0660,-0.9691,5.8881,-2.8490,-1.0124,-0.0045,-0.2418,-0.0647,
12.382017,1.0077,-1.0034,-0.0078,5.8881,-2.8490,-1.0124,-0.0045,-0.2418,-0.0647,
12.411865,1.0077,-1.0034,-0.0078,5.8881,-2.8490,-1.0124,-0.5147,0.0650,-0.1734,
12.414606,1.0077,-1.0034,-0.0078,5.7216,-2.8415,-0.8081,-0.5147,0.0650,-0.1734,
12.451387,1.0077,-1.0034,-0.0078,5.7216,-2.8415,-0.8081,0.6464,-1.1079,-0.6549,
12.454192,1.0077,-1.0034,-0.0078,7.9781,-2.0562,3.2238,0.6464,-1.1079,-0.6549,
12.455613,1.0221,-1.0840,0.0545,7.9781,-2.0562,3.2238,0.6464,-1.1079,-0.6549,
12.456892,-0.3172,-1.3562,0.1334,7.9781,-2.0562,3.2238,0.6464,-1.1079,-0.6549,
12.458602,-0.2508,-1.2196,-0.1485,7.9781,-2.0562,3.2238,0.6464,-1.1079,-0.6549,
12.460530,0.1682,-1.2013,-0.5311,7.9781,-2.0562,3.2238,0.6464,-1.1079,-0.6549,
12.491682,0.1682,-1.2013,-0.5311,7.9781,-2.0562,3.2238,1.6200,-0.9406,-0.2256,
12.494408,0.1682,-1.2013,-0.5311,7.8493,-1.8566,2.4971,1.6200,-0.9406,-0.2256,
12.532498,0.1682,-1.2013,-0.5311,7.8493,-1.8566,2.4971,2.1889,-1.0770,-0.0349,
12.535230,0.1682,-1.2013,-0.5311,2.4235,-2.5528,-2.1715,2.1889,-1.0770,-0.0349,
12.536766,0.1316,-1.2885,-0.2995,2.4235,-2.5528,-2.1715,2.1889,-1.0770,-0.0349,
12.538041,0.2315,-1.2885,-0.2865,2.4235,-2.5528,-2.1715,2.1889,-1.0770,-0.0349,
12.539359,0.4267,-1.2553,-0.6354,2.4235,-2.5528,-2.1715,2.1889,-1.0770,-0.0349,
12.540559,0.6302,-1.1441,-1.1370,2.4235,-2.5528,-2.1715,2.1889,-1.0770,-0.0349,
12.570554,0.6302,-1.1441,-1.1370,2.4235,-2.5528,-2.1715,1.1439,-2.3627,0.0578,
12.573078,0.6302,-1.1441,-1.1370,6.4456,-2.4139,-6.2433,1.1439,-2.3627,0.0578,
12.610519,0.6302,-1.1441,-1.1370,6.4456,-2.4139,-6.2433,-1.1273,-3.0509,0.0130,
12.613674,0.6302,-1.1441,-1.1370,5.4887,0.2839,-6.9658,-1.1273,-3.0509,0.0130,
12.615045,0.5857,-1.0826,-1.1802,5.4887,0.2839,-6.9658,-1.1273,-3.0509,0.0130,
12.616463,0.3507,-1.0198,-0.7307,5.4887,0.2839,-6.9658,-1.1273,-3.0509,0.0130,
12.617639,0.0676,-0.7508,-0.4529,5.4887,0.2839,-6.9658,-1.1273,-3.0509,0.0130,
12.618965,-0.0856,-0.4923,-0.4947,5.4887,0.2839,-6.9658,-1.1273,-3.0509,0.0130,
12.649953,-0.0856,-0.4923,-0.4947,5.4887,0.2839,-6.9658,-2.7220,-2.4618,0.3454,
12.652726,-0.0856,-0.4923,-0.4947,5.6300,0.1263,-6.0600,-2.7220,-2.4618,0.3454,
12.689681,-0.0856,-0.4923,-0.4947,5.6300,0.1263,-6.0600,-3.7851,-3.3140,-0.0487,
12.692409,-0.0856,-0.4923,-0.4947,3.4401,3.4865,0.0996,-3.7851,-3.3140,-0.0487,
12.693727,0.1176,-0.4574,-0.2892,3.4401,3.4865,0.0996,-3.7851,-3.3140,-0.0487,
12.694999,0.2364,-0.7572,-0.0207,3.4401,3.4865,0.0996,-3.7851,-3.3140,-0.0487,
12.696136,0.2376,-0.8620,0.5302,3.4401,3.4865,0.0996,-3.7851,-3.3140,-0.0487,
12.697158,0.4631,-0.8050,1.0098,3.4401,3.4865,0.0996,-3.7851,-3.3140,-0.0487,
12.729287,0.4631,-0.8050,1.0098,3.4401,3.4865,0.0996,-2.5675,-3.7891,-0.8850,
12.731859,0.4631,-0.8050,1.0098,3.5230,3.2190,0.6023,-2.5675,-3.7891,-0.8850,
12.769277,0.4631,-0.8050,1.0098,3.5230,3.2190,0.6023,-1.1358,-0.7808,-1.7723,
12.771966,0.4631,-0.8050,1.0098,6.0600,-0.2362,10.7771,-1.1358,-0.7808,-1.7723,
12.773410,0.5335,-1.1046,0.7298,6.0600,-0.2362,10.7771,-1.1358,-0.7808,-1.7723,
12.774375,0.2354,-1.8749,-0.0623,6.0600,-0.2362,10.7771,-1.1358,-0.7808,-1.7723,
12.776000,-0.1785,-2.3420,-1.0673,6.0600,-0.2362,10.7771,-1.1358,-0.7808,-1.7723,
12.777298,-0.3246,-1.7674,-0.9124,6.0600,-0.2362,10.7771,-1.1358,-0.7808,-1.7723,
12.808207,-0.3246,-1.7674,-0.9124,6.0600,-0.2362,10.7771,-2.1574,0.1630,-2.1718,
12.810237,-0.3246,-1.7674,-0.9124,0.3686,-10.7267,-2.5094,-2.1574,0.1630,-2.1718,
12.847964,0.0258,-1.1143,0.0882,0.3686,-10.7267,-2.5094,-2.1574,0.1630,-2.1718,
12.850161,0.2264,-1.1593,0.4156,0.3686,-10.7267,-2.5094,-2.1574,0.1630,-2.1718,
12.851100,0.1179,-1.3633,0.1339,0.3686,-10.7267,-2.5094,-2.1574,0.1630,-2.1718,
12.852010,0.1179,-1.3633,0.1339,0.3686,-10.7267,-2.5094,-0.7534,-0.4900,-2.1633,
12.853110,0.1179,-1.3633,0.1339,1.7538,-3.0580,6.3827,-0.7534,-0.4900,-2.1633,
12.887491,0.1179,-1.3633,0.1339,1.7538,-3.0580,6.3827,0.0988,-2.0943,-1.6445,
12.889584,0.1179,-1.3633,0.1339,-3.1460,0.5046,5.9142,0.0988,-2.0943,-1.6445,
12.927546,0.1179,-1.3633,0.1339,-3.3589,0.5789,5.6500,0.0988,-2.0943,-1.6445,
12.930073,0.1179,-1.3633,0.1339,-3.3589,0.5789,5.6500,0.4568,-0.6115,-1.0469,
12.931262,-0.1289,-1.2211,-0.0615,-3.3589,0.5789,5.6500,0.4568,-0.6115,-1.0469,
12.932963,-0.4184,-0.8620,0.1635,-3.3589,0.5789,5.6500,0.4568,-0.6115,-1.0469,
12.934037,-0.5317,-0.4738,0.4435,-3.3589,0.5789,5.6500,0.4568,-0.6115,-1.0469,
12.935155,-0.5945,-0.2409,0.5720,-3.3589,0.5789,5.6500,0.4568,-0.6115,-1.0469,
12.936584,-0.5908,-0.1022,0.5927,-3.3589,0.5789,5.6500,0.4568,-0.6115,-1.0469,
12.967396,-0.5908,-0.1022,0.5927,-3.3589,0.5789,5.6500,1.5338,2.9540,-0.7635,
12.970475,-0.5908,-0.1022,0.5927,-3.9815,0.7798,4.9903,1.5338,2.9540,-0.7635,
13.008372,-0.5908,-0.1022,0.5927,-3.9815,0.7798,4.9903,1.3132,2.0666,-0.0850,
13.010866,-0.5908,-0.1022,0.5927,-7.2086,7.6516,6.1615,1.3132,2.0666,-0.0850,
13.012284,-0.8354,-0.1168,-0.0667,-7.2086,7.6516,6.1615,1.3132,2.0666,-0.0850,
13.013576,-1.3103,-0.3992,-1.0944,-7.2086,7.6516,6.1615,1.3132,2.0666,-0.0850,
13.014832,-0.6619,-0.7721,-0.5296,-7.2086,7.6516,6.1615,1.3132,2.0666,-0.0850,
13.015742,0.2938,-1.2788,0.2258,-7.2086,7.6516,6.1615,1.3132,2.0666,-0.0850,
13.046525,0.2938,-1.2788,0.2258,-7.2086,7.6516,6.1615,0.8477,2.0166,0.9910,
13.048902,0.2938,-1.2788,0.2258,-5.8203,1.2316,-2.3079,0.8477,2.0166,0.9910,
13.086157,0.2994,-2.1018,-0.2980,-5.8203,1.2316,-2.3079,0.8477,2.0166,0.9910,
13.088847,-0.2586,-3.5239,-0.7441,-5.8203,1.2316,-2.3079,0.8477,2.0166,0.9910,
13.090061,0.0607,-1.9098,-0.3562,-5.8203,1.2316,-2.3079,0.8477,2.0166,0.9910,
13.091362,0.0607,-1.9098,-0.3562,-5.8203,1.2316,-2.3079,-1.0133,2.5375,0.8418,
13.092619,0.0607,-1.9098,-0.3562,0.0614,-15.2108,-1.9350,-1.0133,2.5375,0.8418,
13.125917,0.0607,-1.9098,-0.3562,0.0614,-15.2108,-1.9350,-0.8652,4.3655,-0.0668,
13.128921,0.0607,-1.9098,-0.3562,-3.8739,4.7692,8.0171,-0.8652,4.3655,-0.0668,
13.165253,0.0607,-1.9098,-0.3562,-3.8739,4.7692,8.0171,0.4930,5.0099,1.4341,
13.167747,0.0607,-1.9098,-0.3562,-3.8005,4.7803,7.5588,0.4930,5.0099,1.4341,
13.169215,-0.1132,-0.2568,0.5072,-3.8005,4.7803,7.5588,0.4930,5.0099,1.4341,
13.170507,-0.5422,-0.3604,0.6267,-3.8005,4.7803,7.5588,0.4930,5.0099,1.4341,
13.172410,-0.3133,-0.7474,0.4838,-3.8005,4.7803,7.5588,0.4930,5.0099,1.4341,
13.173699,-0.0565,-1.2998,0.4435,-3.8005,4.7803,7.5588,0.4930,5.0099,1.4341,
13.174892,0.2735,-1.4327,0.1698,-3.8005,4.7803,7.5588,0.4930,5.0099,1.4341,
13.204742,0.2735,-1.4327,0.1698,-3.8005,4.7803,7.5588,1.1588,4.0576,1.3191,
13.207091,0.2735,-1.4327,0.1698,-3.5821,4.8205,6.9223,1.1588,4.0576,1.3191,
13.245017,0.2735,-1.4327,0.1698,-3.5821,4.8205,6.9223,1.0597,3.6698,0.2325,
13.247427,0.2735,-1.4327,0.1698,2.2943,-3.2809,2.5627,1.0597,3.6698,0.2325,
13.248962,0.6617,-1.1485,-0.1771,2.2943,-3.2809,2.5627,1.0597,3.6698,0.2325,
13.250118,0.9236,-0.8263,-0.2919,2.2943,-3.2809,2.5627,1.0597,3.6698,0.2325,
13.250945,1.1010,-0.6076,-0.4925,2.2943,-3.2809,2.5627,1.0597,3.6698,0.2325,
13.252279,1.2752,-0.7938,-0.7981,2.2943,-3.2809,2.5627,1.0597,3.6698,0.2325,
13.283895,1.2752,-0.7938,-0.7981,2.2943,-3.2809,2.5627,0.8595,1.9697,-0.4951,
13.286428,1.2752,-0.7938,-0.7981,9.7771,2.1021,-4.3311,0.8595,1.9697,-0.4951,
13.322900,1.2752,-0.7938,-0.7981,9.7771,2.1021,-4.3311,-0.2548,-1.1057,-0.3150,
13.324865,1.2752,-0.7938,-0.7981,3.3624,-3.2796,-4.2193,-0.2548,-1.1057,-0.3150,
13.326012,1.0343,-1.4295,-0.8418,3.3624,-3.2796,-4.2193,-0.2548,-1.1057,-0.3150,
13.327039,0.4614,-1.4542,-0.4514,3.3624,-3.2796,-4.2193,-0.2548,-1.1057,-0.3150,
13.328020,-0.1184,-1.0017,-0.3202,3.3624,-3.2796,-4.2193,-0.2548,-1.1057,-0.3150,
13.329127,-0.3702,-0.7427,-0.1812,3.3624,-3.2796,-4.2193,-0.2548,-1.1057,-0.3150,
13.362455,-0.3702,-0.7427,-0.1812,3.3624,-3.2796,-4.2193,-0.3251,-3.0605,0.4583,
13.364685,-0.3702,-0.7427,-0.1812,3.6153,-3.2224,-3.9107,-0.3251,-3.0605,0.4583,
13.404436,-0.3702,-0.7427,-0.1812,3.6153,-3.2224,-3.9107,0.3108,-1.9601,0.6501,
13.406841,-0.3702,-0.7427,-0.1812,-2.4569,1.5166,1.2344,0.3108,-1.9601,0.6501,
13.408175,-0.1589,-0.7620,0.0814,-2.4569,1.5166,1.2344,0.3108,-1.9601,0.6501,
13.409263,-0.0722,-0.9326,0.0863,-2.4569,1.5166,1.2344,0.3108,-1.9601,0.6501,
13.410580,-0.0165,-1.0352,-0.0732,-2.4569,1.5166,1.2344,0.3108,-1.9601,0.6501,
13.411698,0.1799,-1.0244,-0.3178,-2.4569,1.5166,1.2344,0.3108,-1.9601,0.6501,
13.442514,0.1799,-1.0244,-0.3178,-2.3006,1.5194,1.0311,0.3108,-1.9601,0.6501,
13.445105,0.1799,-1.0244,-0.3178,-2.3006,1.5194,1.0311,0.5441,-1.1356,0.1675,
13.481848,0.1799,-1.0244,-0.3178,-2.3006,1.5194,1.0311,0.1542,-0.7638,-0.1819,
13.484162,0.1799,-1.0244,-0.3178,1.1010,-0.3415,-1.4940,0.1542,-0.7638,-0.1819,
13.485351,0.2935,-0.9504,-0.3886,1.1010,-0.3415,-1.4940,0.1542,-0.7638,-0.1819,
13.487534,0.2207,-0.9147,-0.2870,1.1010,-0.3415,-1.4940,0.1542,-0.7638,-0.1819,
13.488954,0.1233,-0.8893,-0.2081,1.1010,-0.3415,-1.4940,0.1542,-0.7638,-0.1819,
13.490256,0.0656,-0.8649,-0.1671,1.1010,-0.3415,-1.4940,0.1542,-0.7638,-0.1819,
13.522297,0.0656,-0.8649,-0.1671,0.9494,0.7525,-1.0228,0.1542,-0.7638,-0.1819,
13.524968,0.0656,-0.8649,-0.1671,0.9494,0.7525,-1.0228,-0.1472,-0.9534,-0.0573,
13.561878,0.0656,-0.8649,-0.1671,0.9494,0.7525,-1.0228,-0.3049,-1.2112,0.1952,
13.564422,0.0656,-0.8649,-0.1671,0.0185,0.2345,-0.7914,-0.3049,-1.2112,0.1952,
13.566099,0.0407,-0.8673,-0.2284,0.0185,0.2345,-0.7914,-0.3049,-1.2112,0.1952,
13.567311,0.0255,-0.9414,-0.2384,0.0185,0.2345,-0.7914,-0.3049,-1.2112,0.1952,
13.568539,0.0185,-1.0139,-0.1685,0.0185,0.2345,-0.7914,-0.3049,-1.2112,0.1952,
13.569625,0.0424,-1.0022,-0.0713,0.0185,0.2345,-0.7914,-0.3049,-1.2112,0.1952,
13.600702,0.0424,-1.0022,-0.0713,0.0185,0.2345,-0.7914,-0.5318,-0.6977,0.0429,
13.602427,0.0424,-1.0022,-0.0713,0.0712,0.2022,-0.5763,-0.5318,-0.6977,0.0429,
13.640759,0.0424,-1.0022,-0.0713,0.0712,0.2022,-0.5763,-0.2335,0.7041,-0.5249,
13.642948,0.0424,-1.0022,-0.0713,-0.4432,-0.1765,1.8773,-0.2335,0.7041,-0.5249,
13.644303,0.0422,-0.9761,0.0687,-0.4432,-0.1765,1.8773,-0.2335,0.7041,-0.5249,
13.645675,-0.0864,-0.9548,0.1044,-0.4432,-0.1765,1.8773,-0.2335,0.7041,-0.5249,
13.646822,-0.1794,-0.9809,0.0985,-0.4432,-0.1765,1.8773,-0.2335,0.7041,-0.5249,
13.647935,-0.2500,-1.0041,0.0841,-0.4432,-0.1765,1.8773,-0.2335,0.7041,-0.5249,
13.680225,-0.2500,-1.0041,0.0841,-0.4432,-0.1765,1.8773,0.2927,0.8980,-0.6549,
13.682503,-0.2500,-1.0041,0.0841,-0.7282,-0.1716,1.7181,0.2927,0.8980,-0.6549,
13.719908,-0.2500,-1.0041,0.0841,-0.7282,-0.1716,1.7181,-0.0865,0.5433,-0.0828,
13.722391,-0.2500,-1.0041,0.0841,-3.5459,-0.4230,1.6759,-0.0865,0.5433,-0.0828,
13.723995,-0.4347,-1.0249,-0.0899,-3.5459,-0.4230,1.6759,-0.0865,0.5433,-0.0828,
13.725170,-0.6837,-1.0760,-0.4661,-3.5459,-0.4230,1.6759,-0.0865,0.5433,-0.0828,
13.726975,-0.7159,-1.0657,-0.4150,-3.5459,-0.4230,1.6759,-0.0865,0.5433,-0.0828,
13.728322,-0.4965,-1.0337,-0.0239,-3.5459,-0.4230,1.6759,-0.0865,0.5433,-0.0828,
13.759537,-0.4965,-1.0337,-0.0239,-3.5459,-0.4230,1.6759,-0.3709,1.8259,0.2399,
13.761874,-0.4965,-1.0337,-0.0239,-6.8144,-0.9609,-1.4734,-0.3709,1.8259,0.2399,
13.799188,-0.4965,-1.0337,-0.0239,-6.8144,-0.9609,-1.4734,-0.0844,3.2160,0.0716,
13.801345,-0.4965,-1.0337,-0.0239,-2.0462,-0.2471,1.6624,-0.0844,3.2160,0.0716,
13.803049,-0.3040,-1.0606,0.0797,-2.0462,-0.2471,1.6624,-0.0844,3.2160,0.0716,
13.804451,-0.1552,-1.0340,0.0289,-2.0462,-0.2471,1.6624,-0.0844,3.2160,0.0716,
13.805797,0.0612,-0.8627,-0.0276,-2.0462,-0.2471,1.6624,-0.0844,3.2160,0.0716,
13.807100,0.3700,-0.7371,-0.0579,-2.0462,-0.2471,1.6624,-0.0844,3.2160,0.0716,
13.839241,0.3700,-0.7371,-0.0579,-2.0462,-0.2471,1.6624,-0.0663,4.6403,-0.1404,
13.844898,0.3700,-0.7371,-0.0579,-2.3049,-0.2515,1.4977,-0.0663,4.6403,-0.1404,
13.878395,0.3700,-0.7371,-0.0579,-2.3049,-0.2515,1.4977,0.5292,5.0536,-0.7699,
13.880732,0.3700,-0.7371,-0.0579,2.9993,1.9254,1.6600,0.5292,5.0536,-0.7699,
13.881712,0.5415,-0.7100,0.1007,2.9993,1.9254,1.6600,0.5292,5.0536,-0.7699,
13.882741,0.4809,-0.8283,0.2329,2.9993,1.9254,1.6600,0.5292,5.0536,-0.7699,
13.883654,0.2608,-1.0684,0.2720,2.9993,1.9254,1.6600,0.5292,5.0536,-0.7699,
13.884434,0.1797,-1.3122,-0.0322,2.9993,1.9254,1.6600,0.5292,5.0536,-0.7699,
13.917661,0.1797,-1.3122,-0.0322,2.9993,1.9254,1.6600,0.6602,3.9777,-0.3257,
13.919767,0.1797,-1.3122,-0.0322,2.7503,1.8852,1.1330,0.6602,3.9777,-0.3257,
13.957809,0.1797,-1.3122,-0.0322,2.7503,1.8852,1.1330,-0.2900,2.4906,0.2176,
13.959838,0.1797,-1.3122,-0.0322,1.1739,-2.8783,-1.2432,-0.2900,2.4906,0.2176,
13.961695,0.4558,-1.3721,-0.6767,1.1739,-2.8783,-1.2432,-0.2900,2.4906,0.2176,
13.962858,0.3072,-1.2604,-0.7390,1.1739,-2.8783,-1.2432,-0.2900,2.4906,0.2176,
13.963726,-0.0653,-1.2096,-0.0642,1.1739,-2.8783,-1.2432,-0.2900,2.4906,0.2176,
13.964546,-0.0399,-1.1505,0.1339,1.1739,-2.8783,-1.2432,-0.2900,2.4906,0.2176,
13.997203,-0.0399,-1.1505,0.1339,1.1739,-2.8783,-1.2432,-0.1099,1.2261,0.6682,
13.999397,-0.0399,-1.1505,0.1339,-0.8392,-2.3639,-2.0083,-0.1099,1.2261,0.6682,
14.036360,-0.0399,-1.1505,0.1339,-0.8392,-2.3639,-2.0083,0.6688,0.8085,0.7864,
14.038861,-0.0399,-1.1505,0.1339,0.7888,-1.5715,-0.4751,0.6688,0.8085,0.7864,
14.040335,0.1091,-1.1297,0.0020,0.7888,-1.5715,-0.4751,0.6688,0.8085,0.7864,
14.041847,0.2838,-1.0765,0.0083,0.7888,-1.5715,-0.4751,0.6688,0.8085,0.7864,
14.043522,0.2217,-1.1930,-0.1224,0.7888,-1.5715,-0.4751,0.6688,0.8085,0.7864,
14.044758,0.0979,-1.2775,-0.4382,0.7888,-1.5715,-0.4751,0.6688,0.8085,0.7864,
14.076495,0.0979,-1.2775,-0.4382,0.7888,-1.5715,-0.4751,0.5058,1.4360,0.9462,
14.079245,0.0979,-1.2775,-0.4382,1.1418,-1.5117,-0.7129,0.5058,1.4360,0.9462,
14.117420,0.0979,-1.2775,-0.4382,1.1418,-1.5117,-0.7129,-1.4543,0.1864,1.2871,
14.120087,0.0979,-1.2775,-0.4382,0.8276,-0.8798,-6.5974,-1.4543,0.1864,1.2871,
14.121255,0.1130,-1.0767,-0.8123,0.8276,-0.8798,-6.5974,-1.4543,0.1864,1.2871,
14.122765,0.1606,-0.8671,-0.8648,0.8276,-0.8798,-6.5974,-1.4543,0.1864,1.2871,
14.123879,0.2022,-0.8600,-0.6171,0.8276,-0.8798,-6.5974,-1.4543,0.1864,1.2871,
14.125076,0.2601,-1.0278,-0.3588,0.8276,-0.8798,-6.5974,-1.4543,0.1864,1.2871,
14.155807,0.2601,-1.0278,-0.3588,0.8276,-0.8798,-6.5974,-3.0810,-1.5286,1.9444,
14.158374,0.2601,-1.0278,-0.3588,1.5992,-0.9739,-5.3373,-3.0810,-1.5286,1.9444,
14.195155,0.2601,-1.0278,-0.3588,1.5992,-0.9739,-5.3373,-3.4666,-2.0762,1.4501,
14.198294,0.2601,-1.0278,-0.3588,3.8671,-0.5146,-1.2474,-3.4666,-2.0762,1.4501,
14.200268,0.4025,-1.0904,-0.2694,3.8671,-0.5146,-1.2474,-3.4666,-2.0762,1.4501,
14.201632,0.6505,-0.8923,-0.2032,3.8671,-0.5146,-1.2474,-3.4666,-2.0762,1.4501,
14.203123,0.8007,-0.7777,0.0623,3.8671,-0.5146,-1.2474,-3.4666,-2.0762,1.4501,
14.204415,0.7555,-1.0288,0.3614,3.8671,-0.5146,-1.2474,-3.4666,-2.0762,1.4501,
14.236166,0.7555,-1.0288,0.3614,3.8671,-0.5146,-1.2474,-2.4471,-1.1888,-0.3779,
14.238478,0.7555,-1.0288,0.3614,8.1306,0.0996,4.2953,-2.4471,-1.1888,-0.3779,
14.276808,0.7555,-1.0288,0.3614,8.1306,0.0996,4.2953,-0.7171,-1.9441,-1.2791,
14.280725,0.7555,-1.0288,0.3614,7.9560,-5.7543,9.1895,-0.7171,-1.9441,-1.2791,
14.281973,0.6874,-1.4561,0.3995,7.9560,-5.7543,9.1895,-0.7171,-1.9441,-1.2791,
14.283201,0.8027,-1.6462,0.6313,7.9560,-5.7543,9.1895,-0.7171,-1.9441,-1.2791,
14.284090,0.7541,-1.3994,0.6785,7.9560,-5.7543,9.1895,-0.7171,-1.9441,-1.2791,
14.285011,0.7619,-1.1698,-0.1272,7.9560,-5.7543,9.1895,-0.7171,-1.9441,-1.2791,
14.316320,0.7619,-1.1698,-0.1272,7.9560,-5.7543,9.1895,1.0150,-1.8301,-1.8778,
14.318087,0.7619,-1.1698,-0.1272,7.4097,-5.4927,8.6472,1.0150,-1.8301,-1.8778,
14.353497,0.7619,-1.1698,-0.1272,7.4097,-5.4927,8.6472,0.3034,-4.2568,-1.4219,
14.355625,0.7619,-1.1698,-0.1272,3.0870,-2.0998,1.4471,0.3034,-4.2568,-1.4219,
14.356607,0.3290,-1.2213,-0.5252,3.0870,-2.0998,1.4471,0.3034,-4.2568,-1.4219,
14.357531,-0.1484,-1.0945,0.2009,3.0870,-2.0998,1.4471,0.3034,-4.2568,-1.4219,
14.358444,-0.2151,-0.8055,0.6079,3.0870,-2.0998,1.4471,0.3034,-4.2568,-1.4219,
14.359581,-0.0004,-0.4909,0.6062,3.0870,-2.0998,1.4471,0.3034,-4.2568,-1.4219,
14.393292,-0.0004,-0.4909,0.6062,3.0870,-2.0998,1.4471,0.4142,-5.8770,-0.4035,
14.395287,-0.0004,-0.4909,0.6062,3.5374,-2.0174,1.2193,0.4142,-5.8770,-0.4035,
14.433333,0.3238,-0.3912,0.7459,3.5374,-2.0174,1.2193,0.4142,-5.8770,-0.4035,
14.435266,0.3424,-0.5898,0.5165,3.5374,-2.0174,1.2193,0.4142,-5.8770,-0.4035,
14.436346,0.2874,-0.6563,0.2351,3.5374,-2.0174,1.2193,0.4142,-5.8770,-0.4035,
14.437223,0.2874,-0.6563,0.2351,3.5374,-2.0174,1.2193,0.5282,-4.8757,-0.4962,
14.438480,0.2874,-0.6563,0.2351,1.1014,3.8565,8.6336,0.5282,-4.8757,-0.4962,
14.472991,0.2874,-0.6563,0.2351,1.1014,3.8565,8.6336,1.2493,-5.8834,-1.8011,
14.475334,0.2874,-0.6563,0.2351,2.8503,2.5133,5.1257,1.2493,-5.8834,-1.8011,
14.512966,0.2874,-0.6563,0.2351,2.8503,2.5133,5.1257,0.1713,-3.6805,-0.1883,
14.515317,0.2874,-0.6563,0.2351,2.9371,2.4844,4.9056,0.1713,-3.6805,-0.1883,
14.516779,0.0974,-0.8832,0.3528,2.9371,2.4844,4.9056,0.1713,-3.6805,-0.1883,
14.517924,-1.0057,-1.7942,-0.2274,2.9371,2.4844,4.9056,0.1713,-3.6805,-0.1883,
14.519300,-1.8654,-1.8287,-0.8724,2.9371,2.4844,4.9056,0.1713,-3.6805,-0.1883,
14.520418,-0.3788,-0.9025,-0.4737,2.9371,2.4844,4.9056,0.1713,-3.6805,-0.1883,
14.521663,0.5857,-1.2177,-0.1006,2.9371,2.4844,4.9056,0.1713,-3.6805,-0.1883,
14.552463,0.5857,-1.2177,-0.1006,2.9371,2.4844,4.9056,-1.2359,-1.3934,0.5542,
14.554773,0.5857,-1.2177,-0.1006,-9.6080,-5.3420,-3.3608,-1.2359,-1.3934,0.5542,
14.594185,0.5857,-1.2177,-0.1006,-9.6080,-5.3420,-3.3608,-0.5456,-2.6642,-0.5004,
14.596544,0.5857,-1.2177,-0.1006,6.8411,-4.1489,1.5366,-0.5456,-2.6642,-0.5004,
14.598142,0.5735,-1.6156,-0.0202,6.8411,-4.1489,1.5366,-0.5456,-2.6642,-0.5004,
14.599703,0.6590,-1.3425,0.0257,6.8411,-4.1489,1.5366,-0.5456,-2.6642,-0.5004,
14.601268,0.4367,-1.0865,0.3589,6.8411,-4.1489,1.5366,-0.5456,-2.6642,-0.5004,
14.602884,-0.1728,-1.1219,0.4957,6.8411,-4.1489,1.5366,-0.5456,-2.6642,-0.5004,
14.631455,-0.1728,-1.1219,0.4957,6.8411,-4.1489,1.5366,0.4557,-1.6884,-0.8924,
14.634053,-0.1728,-1.1219,0.4957,6.5126,-4.0212,1.2876,0.4557,-1.6884,-0.8924,
14.671166,-0.1728,-1.1219,0.4957,6.5126,-4.0212,1.2876,0.6176,-1.7044,-0.2384,
14.673663,-0.1728,-1.1219,0.4957,-0.3040,-1.1805,4.3426,0.6176,-1.7044,-0.2384,
14.674864,-0.5364,-1.1165,0.0917,-0.3040,-1.1805,4.3426,0.6176,-1.7044,-0.2384,
14.676332,-0.2974,-0.9184,-0.1084,-0.3040,-1.1805,4.3426,0.6176,-1.7044,-0.2384,
14.677535,0.0414,-0.8041,0.0628,-0.3040,-1.1805,4.3426,0.6176,-1.7044,-0.2384,
14.678888,0.2093,-0.7347,0.0272,-0.3040,-1.1805,4.3426,0.6176,-1.7044,-0.2384,
14.711138,0.2093,-0.7347,0.0272,-0.3040,-1.1805,4.3426,0.4951,-1.5968,0.0951,
14.713438,0.2093,-0.7347,0.0272,0.5327,1.6461,0.9448,0.4951,-1.5968,0.0951,
14.750313,0.2093,-0.7347,0.0272,0.5327,1.6461,0.9448,0.2139,-1.3603,-0.0317,
14.752711,0.2093,-0.7347,0.0272,1.1541,1.3811,1.8625,0.2139,-1.3603,-0.0317,
14.754135,0.2505,-0.7244,-0.0205,1.1541,1.3811,1.8625,0.2139,-1.3603,-0.0317,
14.755458,0.1289,-0.8385,0.0899,1.1541,1.3811,1.8625,0.2139,-1.3603,-0.0317,
14.756756,-0.2417,-0.9709,0.2395,1.1541,1.3811,1.8625,0.2139,-1.3603,-0.0317,
14.758062,-0.6527,-1.0464,0.2566,1.1541,1.3811,1.8625,0.2139,-1.3603,-0.0317,
14.789328,-0.6527,-1.0464,0.2566,1.1541,1.3811,1.8625,-0.1557,0.1268,-0.0764,
14.791603,-0.6527,-1.0464,0.2566,1.1015,1.3548,1.8933,-0.1557,0.1268,-0.0764,
14.830473,-0.6527,-1.0464,0.2566,1.1015,1.3548,1.8933,-1.0474,2.3894,0.5489,
14.832992,-0.6527,-1.0464,0.2566,-8.1379,-2.1751,2.3029,-1.0474,2.3894,0.5489,
14.834347,-0.9639,-1.1798,0.1305,-8.1379,-2.1751,2.3029,-1.0474,2.3894,0.5489,
14.835598,-1.1479,-1.3806,-0.0833,-8.1379,-2.1751,2.3029,-1.0474,2.3894,0.5489,
14.836837,-1.1305,-1.5133,-0.2377,-8.1379,-2.1751,2.3029,-1.0474,2.3894,0.5489,
14.838048,-0.9226,-1.3777,-0.1402,-8.1379,-2.1751,2.3029,-1.0474,2.3894,0.5489,
14.869354,-0.9226,-1.3777,-0.1402,-8.1379,-2.1751,2.3029,-1.9688,3.6155,1.4064,
14.871519,-0.9226,-1.3777,-0.1402,-7.7267,-2.3306,3.1404,-1.9688,3.6155,1.4064,
14.908861,-0.9226,-1.3777,-0.1402,-7.7267,-2.3306,3.1404,-1.3009,3.7125,1.8464,
14.911325,-0.9226,-1.3777,-0.1402,-7.4410,-3.6217,2.0089,-1.3009,3.7125,1.8464,
14.912864,-0.7582,-1.0579,0.1325,-7.4410,-3.6217,2.0089,-1.3009,3.7125,1.8464,
14.913895,-0.4924,-0.7928,0.0834,-7.4410,-3.6217,2.0089,-1.3009,3.7125,1.8464,
14.914882,-0.2359,-0.7110,0.0233,-7.4410,-3.6217,2.0089,-1.3009,3.7125,1.8464,
14.916215,0.0395,-0.6956,0.0386,-7.4410,-3.6217,2.0089,-1.3009,3.7125,1.8464,
14.948323,0.0395,-0.6956,0.0386,-7.4410,-3.6217,2.0089,-0.3038,3.0946,1.7931,
14.950823,0.0395,-0.6956,0.0386,-0.2198,1.8923,3.5661,-0.3038,3.0946,1.7931,
14.988376,0.0395,-0.6956,0.0386,-0.2198,1.8923,3.5661,0.6730,4.0544,1.1944,
14.990994,0.0395,-0.6956,0.0386,3.3932,2.2679,3.8588,0.6730,4.0544,1.1944,
14.992528,0.2229,-0.7176,0.0560,3.3932,2.2679,3.8588,0.6730,4.0544,1.1944,
14.993702,0.1860,-0.7002,0.0645,3.3932,2.2679,3.8588,0.6730,4.0544,1.1944,
14.994829,0.0500,-0.6514,0.1090,3.3932,2.2679,3.8588,0.6730,4.0544,1.1944,
14.996374,0.0573,-0.5610,0.2351,3.3932,2.2679,3.8588,0.6730,4.0544,1.1944,
15.027279,0.0573,-0.5610,0.2351,3.3932,2.2679,3.8588,1.8746,5.0877,0.3188,
15.029234,0.0573,-0.5610,0.2351,2.8600,2.4240,3.4602,1.8746,5.0877,0.3188,
15.067141,0.0573,-0.5610,0.2351,2.8600,2.4240,3.4602,3.1295,5.6172,-0.3513,
15.069935,0.0573,-0.5610,0.2351,1.8063,3.4242,3.9160,3.1295,5.6172,-0.3513,
15.071260,0.1401,-0.5568,0.2744,1.8063,3.4242,3.9160,3.1295,5.6172,-0.3513,
15.072846,0.1445,-0.7176,0.1635,1.8063,3.4242,3.9160,3.1295,5.6172,-0.3513,
15.073888,0.1516,-0.8827,-0.0471,1.8063,3.4242,3.9160,3.1295,5.6172,-0.3513,
15.075053,0.3439,-0.8952,0.0198,1.8063,3.4242,3.9160,3.1295,5.6172,-0.3513,
15.107029,0.3439,-0.8952,0.0198,1.8063,3.4242,3.9160,3.1721,6.0401,-0.3150,
15.109614,0.3439,-0.8952,0.0198,1.3819,3.5194,2.7853,3.1721,6.0401,-0.3150,
15.147404,0.3439,-0.8952,0.0198,1.3819,3.5194,2.7853,1.9311,4.3452,-0.1712,
15.149853,0.3439,-0.8952,0.0198,3.0863,0.5451,0.2043,1.9311,4.3452,-0.1712,
15.151184,0.4159,-0.9712,0.1239,3.0863,0.5451,0.2043,1.9311,4.3452,-0.1712,
15.152610,0.0812,-1.3076,-0.0762,3.0863,0.5451,0.2043,1.9311,4.3452,-0.1712,
15.153623,-0.3006,-1.8355,-0.5186,3.0863,0.5451,0.2043,1.9311,4.3452,-0.1712,
15.154848,0.2378,-1.8573,-1.2159,3.0863,0.5451,0.2043,1.9311,4.3452,-0.1712,
15.187407,0.2378,-1.8573,-1.2159,3.0863,0.5451,0.2043,0.1692,3.6155,0.3380,
15.189477,0.2378,-1.8573,-1.2159,0.3183,-6.6991,-5.9649,0.1692,3.6155,0.3380,
15.225957,0.2378,-1.8573,-1.2159,5.3113,-3.4094,-4.6431,0.1692,3.6155,0.3380,
15.230338,0.2378,-1.8573,-1.2159,5.3113,-3.4094,-4.6431,-0.7715,3.3481,0.7417,
15.232600,0.5962,-1.1566,-0.5110,5.3113,-3.4094,-4.6431,-0.7715,3.3481,0.7417,
15.234322,0.3886,-1.2753,-0.8111,5.3113,-3.4094,-4.6431,-0.7715,3.3481,0.7417,
15.235890,0.5066,-1.5744,-0.2137,5.3113,-3.4094,-4.6431,-0.7715,3.3481,0.7417,
15.237533,1.0199,-1.2377,0.3995,5.3113,-3.4094,-4.6431,-0.7715,3.3481,0.7417,
15.264720,1.0199,-1.2377,0.3995,5.3113,-3.4094,-4.6431,0.2352,-0.6796,0.7811,
15.266604,1.0199,-1.2377,0.3995,5.5254,-3.3676,-4.6739,0.2352,-0.6796,0.7811,
15.292836,1.2053,-1.0743,0.0623,5.5254,-3.3676,-4.6739,0.2352,-0.6796,0.7811,
15.294761,0.8953,-0.9309,-0.1666,5.5254,-3.3676,-4.6739,0.2352,-0.6796,0.7811,
