
time,gFx,gFy,gFz,ax,ay,az,wx,wy,wz,
0.075832,0.0000,0.0000,0.0000,0.0000,0.0000,0.0000,1.3654,-4.7660,0.3731,
0.089579,0.3326,0.1854,0.1171,0.0000,0.0000,0.0000,1.3654,-4.7660,0.3731,
0.090642,0.3273,0.0515,0.0820,0.0000,0.0000,0.0000,1.3654,-4.7660,0.3731,
0.091453,0.4249,-0.0224,0.0070,0.0000,0.0000,0.0000,1.3654,-4.7660,0.3731,
0.092126,0.2773,-0.0740,-0.0050,0.0000,0.0000,0.0000,1.3654,-4.7660,0.3731,
0.115434,0.2773,-0.0740,-0.0050,0.0000,0.0000,0.0000,1.5636,-6.2073,0.8376,
0.155516,0.2773,-0.0740,-0.0050,0.0000,0.0000,0.0000,0.9202,-5.8238,2.3865,
0.158060,0.2773,-0.0740,-0.0050,0.0000,0.0000,-0.0000,0.9202,-5.8238,2.3865,
0.196083,0.2205,-0.2630,0.0509,0.0000,0.0000,-0.0000,0.9202,-5.8238,2.3865,
0.198094,0.3689,-0.3449,0.1709,0.0000,0.0000,-0.0000,0.9202,-5.8238,2.3865,
0.199251,0.5750,-0.3153,0.3622,0.0000,0.0000,-0.0000,0.9202,-5.8238,2.3865,
0.200783,0.5750,-0.3153,0.3622,0.0000,0.0000,-0.0000,0.6283,-3.9585,3.8480,
0.202230,0.5750,-0.3153,0.3622,0.2499,-1.1797,1.0750,0.6283,-3.9585,3.8480,
0.235829,0.5750,-0.3153,0.3622,0.2499,-1.1797,1.0750,1.0331,-2.4426,4.3018,
0.238289,0.5750,-0.3153,0.3622,4.4672,-0.0795,3.4690,1.0331,-2.4426,4.3018,
0.273244,0.7155,-0.3113,0.5414,4.4672,-0.0795,3.4690,1.0331,-2.4426,4.3018,
0.275622,0.9777,-0.2853,0.6223,4.4672,-0.0795,3.4690,1.0331,-2.4426,4.3018,
0.276871,1.3562,-0.1720,0.6090,4.4672,-0.0795,3.4690,1.0331,-2.4426,4.3018,
0.278455,1.5097,-0.1116,0.6340,4.4672,-0.0795,3.4690,1.0331,-2.4426,4.3018,
0.279804,1.5915,-0.1819,0.6958,4.4672,-0.0795,3.4690,1.0331,-2.4426,4.3018,
0.280910,1.7690,-0.1758,0.6335,4.4672,-0.0795,3.4690,1.0331,-2.4426,4.3018,
0.282297,1.7690,-0.1758,0.6335,4.4672,-0.0795,3.4690,1.7958,-2.0847,3.7788,
0.283648,1.7690,-0.1758,0.6335,7.9871,1.1629,3.2535,1.7958,-2.0847,3.7788,
0.314335,1.7690,-0.1758,0.6335,7.9871,1.1629,3.2535,2.7194,-1.2442,3.3676,
0.316654,1.7690,-0.1758,0.6335,6.1825,1.4036,2.4794,2.7194,-1.2442,3.3676,
0.350573,1.8410,-0.1959,0.4353,6.1825,1.4036,2.4794,2.7194,-1.2442,3.3676,
0.353428,1.9418,-0.1542,0.1518,6.1825,1.4036,2.4794,2.7194,-1.2442,3.3676,
0.354851,2.0142,-0.0770,-0.0851,6.1825,1.4036,2.4794,2.7194,-1.2442,3.3676,
0.356386,1.8133,-0.0862,-0.2797,6.1825,1.4036,2.4794,2.7194,-1.2442,3.3676,
0.358113,1.8133,-0.0862,-0.2797,6.1825,1.4036,2.4794,2.6555,-0.3121,2.5494,
0.359610,1.8133,-0.0862,-0.2797,7.5893,1.6720,-2.0128,2.6555,-0.3121,2.5494,
0.392791,1.8133,-0.0862,-0.2797,7.5893,1.6720,-2.0128,1.4879,0.2738,1.5129,
0.395012,1.8133,-0.0862,-0.2797,6.2628,1.6984,-1.8624,1.4879,0.2738,1.5129,
0.433848,1.5781,-0.1144,-0.4351,6.2628,1.6984,-1.8624,1.4879,0.2738,1.5129,
0.435629,1.3993,-0.1181,-0.4841,6.2628,1.6984,-1.8624,1.4879,0.2738,1.5129,
0.436467,1.2871,-0.2383,-0.3264,6.2628,1.6984,-1.8624,1.4879,0.2738,1.5129,
0.437156,1.2871,-0.2383,-0.3264,6.2628,1.6984,-1.8624,0.3055,0.1310,1.0591,
0.437914,1.2871,-0.2383,-0.3264,2.6113,2.1153,-6.2684,0.3055,0.1310,1.0591,
0.472785,1.2871,-0.2383,-0.3264,2.6113,2.1153,-6.2684,0.4749,-0.4368,1.0208,
0.474853,1.2871,-0.2383,-0.3264,-1.0463,-0.0294,-2.7640,0.4749,-0.4368,1.0208,
0.510960,1.2871,-0.2383,-0.3264,-1.0463,-0.0294,-2.7640,1.3931,-0.6285,0.9931,
0.512452,1.2871,-0.2383,-0.3264,-0.8025,0.3247,-2.2812,1.3931,-0.6285,0.9931,
0.513386,1.1999,-0.4001,-0.0884,-0.8025,0.3247,-2.2812,1.3931,-0.6285,0.9931,
0.514198,1.1005,-0.4860,0.0986,-0.8025,0.3247,-2.2812,1.3931,-0.6285,0.9931,
0.515070,1.1259,-0.4813,0.1647,-0.8025,0.3247,-2.2812,1.3931,-0.6285,0.9931,
0.516000,1.2608,-0.4347,0.1448,-0.8025,0.3247,-2.2812,1.3931,-0.6285,0.9931,
0.516858,1.2138,-0.4475,0.1125,-0.8025,0.3247,-2.2812,1.3931,-0.6285,0.9931,
0.550892,1.2138,-0.4475,0.1125,-0.8025,0.3247,-2.2812,1.9279,-0.6317,0.6650,
0.552889,1.2138,-0.4475,0.1125,-0.5973,-0.1946,0.1107,1.9279,-0.6317,0.6650,
0.589274,1.0709,-0.5074,0.0680,-0.5973,-0.1946,0.1107,1.9279,-0.6317,0.6650,
0.591850,1.0499,-0.4923,0.0700,-0.5973,-0.1946,0.1107,1.9279,-0.6317,0.6650,
0.593304,1.0499,-0.3754,-0.7328,-0.5973,-0.1946,0.1107,1.9279,-0.6317,0.6650,
0.594572,1.0499,-0.3754,-0.7328,-0.5973,-0.1946,0.1107,1.1417,-0.6093,0.6149,
0.595844,1.0499,-0.3754,-0.7328,-1.7103,0.0105,-2.7653,1.1417,-0.6093,0.6149,
0.630166,1.0499,-0.3754,-0.7328,-1.7103,0.0105,-2.7653,-0.2633,-0.1619,1.0133,
0.632013,1.0499,-0.3754,-0.7328,-3.4201,0.1223,-1.5799,-0.2633,-0.1619,1.0133,
0.668097,0.7500,-0.4509,-0.6904,-3.4201,0.1223,-1.5799,-0.2633,-0.1619,1.0133,
0.670389,0.8504,-0.5418,0.0053,-3.4201,0.1223,-1.5799,-0.2633,-0.1619,1.0133,
0.671934,0.8738,-0.4936,0.3600,-3.4201,0.1223,-1.5799,-0.2633,-0.1619,1.0133,
0.673319,0.6980,-0.3720,-0.0153,-3.4201,0.1223,-1.5799,-0.2633,-0.1619,1.0133,
0.674776,0.6500,-0.3312,-0.0056,-3.4201,0.1223,-1.5799,-0.2633,-0.1619,1.0133,
0.676384,0.6500,-0.3312,-0.0056,-3.4201,0.1223,-1.5799,0.5686,0.0884,1.1007,
0.677531,0.6500,-0.3312,-0.0056,-2.8711,0.5454,-1.5647,0.5686,0.0884,1.1007,
0.709635,0.6500,-0.3312,-0.0056,-2.8711,0.5454,-1.5647,0.4642,0.0341,1.1486,
0.711492,0.6500,-0.3312,-0.0056,-2.3523,0.9249,-1.5147,0.4642,0.0341,1.1486,
0.745675,0.7603,-0.2758,0.0862,-2.3523,0.9249,-1.5147,0.4642,0.0341,1.1486,
0.747591,0.7162,-0.2619,0.1489,-2.3523,0.9249,-1.5147,0.4642,0.0341,1.1486,
0.748694,0.4641,-0.4145,0.0429,-2.3523,0.9249,-1.5147,0.4642,0.0341,1.1486,
0.750691,0.3044,-0.4929,-0.1169,-2.3523,0.9249,-1.5147,0.4642,0.0341,1.1486,
0.752091,0.3044,-0.4929,-0.1169,-2.3523,0.9249,-1.5147,0.0722,0.4677,1.2903,
0.753257,0.3044,-0.4929,-0.1169,-4.8272,2.2763,-0.3796,0.0722,0.4677,1.2903,
0.789673,0.3044,-0.4929,-0.1169,-4.8272,2.2763,-0.3796,-0.3645,0.3228,2.1542,
0.791448,0.3044,-0.4929,-0.1169,-3.9084,2.8306,-0.3718,-0.3645,0.3228,2.1542,
0.823314,0.3598,-0.6790,-0.3156,-3.9084,2.8306,-0.3718,-0.3645,0.3228,2.1542,
0.825689,0.2281,-0.3939,0.0792,-3.9084,2.8306,-0.3718,-0.3645,0.3228,2.1542,
0.827324,1.1563,-0.3617,0.2381,-3.9084,2.8306,-0.3718,-0.3645,0.3228,2.1542,
0.829101,0.5694,-0.3616,-0.1243,-3.9084,2.8306,-0.3718,-0.3645,0.3228,2.1542,
0.830142,0.5694,-0.3616,-0.1243,-3.9084,2.8306,-0.3718,-0.0482,-0.8937,2.3311,
0.831226,0.5694,-0.3616,-0.1243,-2.2395,2.5343,-0.2787,-0.0482,-0.8937,2.3311,
0.868757,0.5694,-0.3616,-0.1243,-2.2395,2.5343,-0.2787,-0.8045,-0.1395,1.7462,
0.870696,0.5694,-0.3616,-0.1243,-1.5899,2.8338,0.0053,-0.8045,-0.1395,1.7462,
0.901537,0.6455,-0.6373,-0.1385,-1.5899,2.8338,0.0053,-0.8045,-0.1395,1.7462,
0.904140,0.5835,-0.7337,-0.0524,-1.5899,2.8338,0.0053,-0.8045,-0.1395,1.7462,
0.905467,0.6629,-1.0897,-0.1517,-1.5899,2.8338,0.0053,-0.8045,-0.1395,1.7462,
0.907056,0.4144,-1.1736,-0.2719,-1.5899,2.8338,0.0053,-0.8045,-0.1395,1.7462,
0.908426,0.4144,-1.1736,-0.2719,-1.5899,2.8338,0.0053,-1.7025,-0.0479,1.4213,
0.909829,0.4144,-1.1736,-0.2719,-0.9081,2.0802,-0.4590,-1.7025,-0.0479,1.4213,
0.948440,0.4144,-1.1736,-0.2719,-0.5899,2.1072,-0.0327,-1.7025,-0.0479,1.4213,
0.950589,0.4144,-1.1736,-0.2719,-0.5899,2.1072,-0.0327,-1.4969,0.1598,0.8951,
0.988532,0.3827,-1.6081,-0.4327,-0.5899,2.1072,-0.0327,-1.4969,0.1598,0.8951,
0.994902,1.3606,-1.6219,0.1304,-0.5899,2.1072,-0.0327,-1.4969,0.1598,0.8951,
0.996796,0.6874,-1.5217,0.1009,-0.5899,2.1072,-0.0327,-1.4969,0.1598,0.8951,
0.998225,0.6874,-1.5217,0.1009,-0.5899,2.1072,-0.0327,0.1510,0.3686,-0.4631,
0.999707,0.6874,-1.5217,0.1009,-1.7274,-4.6612,-1.8119,0.1510,0.3686,-0.4631,
1.027318,0.6874,-1.5217,0.1009,-1.7274,-4.6612,-1.8119,0.1926,-0.3132,1.0495,
1.029320,0.6874,-1.5217,0.1009,1.3829,-4.5111,0.9889,0.1926,-0.3132,1.0495,
1.057487,0.2854,-0.8566,-0.2151,1.3829,-4.5111,0.9889,0.1926,-0.3132,1.0495,
1.060551,-0.1101,-0.5254,-0.3199,1.3829,-4.5111,0.9889,0.1926,-0.3132,1.0495,
1.062267,-0.0139,-0.6201,-0.3739,1.3829,-4.5111,0.9889,0.1926,-0.3132,1.0495,
1.064487,0.0343,-0.7842,-0.2619,1.3829,-4.5111,0.9889,0.1926,-0.3132,1.0495,
1.066702,0.0343,-0.7842,-0.2619,1.3829,-4.5111,0.9889,-0.5680,-1.4722,4.1186,
1.067928,0.0343,-0.7842,-0.2619,-4.6876,2.9410,-1.5616,-0.5680,-1.4722,4.1186,
1.105722,0.0343,-0.7842,-0.2619,-4.6876,2.9410,-1.5616,0.7061,-2.4320,3.5007,
1.107300,0.0343,-0.7842,-0.2619,-3.0145,3.2918,-1.3968,0.7061,-2.4320,3.5007,
1.145984,0.0395,-0.8445,-0.1338,-3.0145,3.2918,-1.3968,0.7061,-2.4320,3.5007,
1.147635,0.0395,-0.8445,-0.1338,-3.0145,3.2918,-1.3968,-0.0077,-0.2322,0.1441,
1.148756,0.0395,-0.8445,-0.1338,-2.7707,3.1121,-1.2891,-0.0077,-0.2322,0.1441,
1.185474,0.0395,-0.8445,-0.1338,-2.7707,3.1121,-1.2891,-0.3187,0.4421,-0.2032,
1.187177,0.0395,-0.8445,-0.1338,-2.7096,2.8877,-1.1435,-0.3187,0.4421,-0.2032,
1.225661,0.0395,-0.8445,-0.1338,-2.7096,2.8877,-1.1435,0.3641,-0.2578,1.6919,
1.227605,0.0395,-0.8445,-0.1338,-2.8283,5.8829,1.3487,0.3641,-0.2578,1.6919,
1.228963,-0.2271,-0.3516,-0.3371,-2.8283,5.8829,1.3487,0.3641,-0.2578,1.6919,
1.229997,-0.1323,-0.3118,0.1681,-2.8283,5.8829,1.3487,0.3641,-0.2578,1.6919,
1.230813,-0.0135,-0.2949,0.0352,-2.8283,5.8829,1.3487,0.3641,-0.2578,1.6919,
1.232208,0.1584,-0.2138,-0.1387,-2.8283,5.8829,1.3487,0.3641,-0.2578,1.6919,
1.265584,0.1584,-0.2138,-0.1387,-2.8283,5.8829,1.3487,1.0405,-0.2237,1.0442,
1.267032,0.1584,-0.2138,-0.1387,-2.3034,5.6739,0.9321,1.0405,-0.2237,1.0442,
1.305707,0.1584,-0.2138,-0.1387,-2.3034,5.6739,0.9321,0.5473,-0.5678,-0.0083,
1.307350,0.1584,-0.2138,-0.1387,0.1948,4.3088,-0.5454,0.5473,-0.5678,-0.0083,
1.308547,0.1611,-0.3587,-0.1172,0.1948,4.3088,-0.5454,0.5473,-0.5678,-0.0083,
1.309467,0.0678,-0.7388,-0.2880,0.1948,4.3088,-0.5454,0.5473,-0.5678,-0.0083,
1.310491,-0.1511,-1.1844,-0.2702,0.1948,4.3088,-0.5454,0.5473,-0.5678,-0.0083,
1.312307,-0.3429,-1.2563,-0.2538,0.1948,4.3088,-0.5454,0.5473,-0.5678,-0.0083,
1.343827,-0.3429,-1.2563,-0.2538,0.1948,4.3088,-0.5454,-0.0066,-0.3643,1.0346,
1.346450,-0.3429,-1.2563,-0.2538,0.5360,4.1160,-0.5017,-0.0066,-0.3643,1.0346,
1.383263,-0.3351,-1.6946,-0.2062,0.5360,4.1160,-0.5017,-0.0066,-0.3643,1.0346,
1.385414,0.3429,-2.7287,-0.2531,0.5360,4.1160,-0.5017,-0.0066,-0.3643,1.0346,
1.386715,0.1113,-2.0495,-0.1082,0.5360,4.1160,-0.5017,-0.0066,-0.3643,1.0346,
1.388095,0.1113,-2.0495,-0.1082,0.5360,4.1160,-0.5017,-0.3400,-0.3824,0.5915,
1.389243,0.1113,-2.0495,-0.1082,-3.0596,-4.8567,-0.9381,-0.3400,-0.3824,0.5915,
1.423674,0.1113,-2.0495,-0.1082,-3.0596,-4.8567,-0.9381,-0.1419,-0.1577,-0.4674,
1.425232,0.1113,-2.0495,-0.1082,0.1226,-10.9728,-0.6412,-0.1419,-0.1577,-0.4674,
1.463027,0.1113,-2.0495,-0.1082,0.1226,-10.9728,-0.6412,-0.9164,0.5294,-0.0530,
1.466316,0.1113,-2.0495,-0.1082,0.0643,-10.5098,-0.3053,-0.9164,0.5294,-0.0530,
1.468593,-0.2610,-1.3924,-0.3034,0.0643,-10.5098,-0.3053,-0.9164,0.5294,-0.0530,
1.470559,-0.0834,-1.2893,-0.6203,0.0643,-10.5098,-0.3053,-0.9164,0.5294,-0.0530,
1.472402,0.1885,-0.8568,-0.3764,0.0643,-10.5098,-0.3053,-0.9164,0.5294,-0.0530,
1.473933,0.2430,-0.5979,0.4100,0.0643,-10.5098,-0.3053,-0.9164,0.5294,-0.0530,
1.475878,0.1174,-0.7247,0.6853,0.0643,-10.5098,-0.3053,-0.9164,0.5294,-0.0530,
1.502422,0.1174,-0.7247,0.6853,0.0643,-10.5098,-0.3053,-0.0386,-0.1736,0.1089,
1.504927,0.1174,-0.7247,0.6853,0.5967,0.6523,-0.0308,-0.0386,-0.1736,0.1089,
1.542160,0.1174,-0.7247,0.6853,0.5967,0.6523,-0.0308,0.9745,-0.5028,-0.0274,
1.544159,0.1174,-0.7247,0.6853,1.4445,0.6551,5.5500,0.9745,-0.5028,-0.0274,
1.545246,0.1606,-0.9387,0.4229,1.4445,0.6551,5.5500,0.9745,-0.5028,-0.0274,
1.546018,0.3424,-1.0906,0.2016,1.4445,0.6551,5.5500,0.9745,-0.5028,-0.0274,
1.546742,0.3661,-1.0853,0.0052,1.4445,0.6551,5.5500,0.9745,-0.5028,-0.0274,
1.547533,0.2027,-1.0213,-0.1177,1.4445,0.6551,5.5500,0.9745,-0.5028,-0.0274,
1.582043,0.2027,-1.0213,-0.1177,1.4445,0.6551,5.5500,0.6666,-0.0192,-0.2884,
1.584046,0.2027,-1.0213,-0.1177,1.2773,0.6486,5.0649,0.6666,-0.0192,-0.2884,
1.624263,0.2027,-1.0213,-0.1177,0.9475,-0.6123,0.1761,0.6666,-0.0192,-0.2884,
1.627125,0.2027,-1.0213,-0.1177,0.9475,-0.6123,0.1761,0.2831,0.3228,-0.0924,
1.628643,-0.0231,-1.0432,-0.0356,0.9475,-0.6123,0.1761,0.2831,0.3228,-0.0924,
1.630053,-0.1452,-1.0581,0.0479,0.9475,-0.6123,0.1761,0.2831,0.3228,-0.0924,
1.631483,-0.1755,-1.0132,0.0186,0.9475,-0.6123,0.1761,0.2831,0.3228,-0.0924,
1.632739,-0.1291,-0.9719,-0.0332,0.9475,-0.6123,0.1761,0.2831,0.3228,-0.0924,
1.662022,-0.1291,-0.9719,-0.0332,0.9475,-0.6123,0.1761,0.2757,0.5231,0.3124,
1.663526,-0.1291,-0.9719,-0.0332,-2.1091,-0.2382,0.6209,0.2757,0.5231,0.3124,
1.701355,-0.1291,-0.9719,-0.0332,-2.1091,-0.2382,0.6209,0.0499,0.5923,0.5020,
1.702893,-0.1291,-0.9719,-0.0332,1.2430,0.0503,-1.4835,0.0499,0.5923,0.5020,
1.703914,0.0553,-0.9614,-0.1568,1.2430,0.0503,-1.4835,0.0499,0.5923,0.5020,
1.704769,0.2188,-0.9729,-0.2382,1.2430,0.0503,-1.4835,0.0499,0.5923,0.5020,
1.705380,0.2618,-1.0237,-0.2242,1.2430,0.0503,-1.4835,0.0499,0.5923,0.5020,
1.706152,0.3576,-1.0379,-0.2611,1.2430,0.0503,-1.4835,0.0499,0.5923,0.5020,
1.741635,0.3576,-1.0379,-0.2611,1.2430,0.0503,-1.4835,-0.1515,0.3963,0.5670,
1.743690,0.3576,-1.0379,-0.2611,1.3968,0.0538,-1.3766,-0.1515,0.3963,0.5670,
1.783352,0.3576,-1.0379,-0.2611,1.3968,0.0538,-1.3766,-0.3475,-0.3835,0.5925,
1.784790,0.3576,-1.0379,-0.2611,4.2013,-0.5256,-2.2314,-0.3475,-0.3835,0.5925,
1.785684,0.4685,-1.0471,-0.3266,4.2013,-0.5256,-2.2314,-0.3475,-0.3835,0.5925,
1.786361,0.5447,-1.0552,-0.3613,4.2013,-0.5256,-2.2314,-0.3475,-0.3835,0.5925,
1.787076,0.6361,-1.0457,-0.4260,4.2013,-0.5256,-2.2314,-0.3475,-0.3835,0.5925,
1.788002,0.7567,-1.0117,-0.4996,4.2013,-0.5256,-2.2314,-0.3475,-0.3835,0.5925,
1.820315,0.7567,-1.0117,-0.4996,4.2013,-0.5256,-2.2314,-0.9014,-1.5968,0.5510,
1.822037,0.7567,-1.0117,-0.4996,4.3143,-0.5392,-1.8069,-0.9014,-1.5968,0.5510,
1.859561,0.7567,-1.0117,-0.4996,4.3143,-0.5392,-1.8069,-1.9880,-3.0754,0.0397,
1.862347,0.7567,-1.0117,-0.4996,7.2387,-0.3016,-2.4353,-1.9880,-3.0754,0.0397,
1.863970,0.8879,-0.9731,-0.4781,7.2387,-0.3016,-2.4353,-1.9880,-3.0754,0.0397,
1.865575,0.9910,-1.0772,-0.4448,7.2387,-0.3016,-2.4353,-1.9880,-3.0754,0.0397,
1.866771,0.9681,-1.2822,-0.3598,7.2387,-0.3016,-2.4353,-1.9880,-3.0754,0.0397,
1.868289,0.9251,-1.3301,-0.1886,7.2387,-0.3016,-2.4353,-1.9880,-3.0754,0.0397,
1.899130,0.9251,-1.3301,-0.1886,7.2387,-0.3016,-2.4353,-3.2408,-4.2632,-0.9606,
1.901300,0.9251,-1.3301,-0.1886,8.9970,-2.7186,0.1370,-3.2408,-4.2632,-0.9606,
1.940011,0.9251,-1.3301,-0.1886,8.9970,-2.7186,0.1370,-3.5838,-3.3257,-1.9012,
1.942205,0.9251,-1.3301,-0.1886,1.0017,-1.9591,6.5475,-3.5838,-3.3257,-1.9012,
1.943652,0.5772,-1.1407,-0.0009,1.0017,-1.9591,6.5475,-3.5838,-3.3257,-1.9012,
1.945005,0.1409,-1.0774,0.0272,1.0017,-1.9591,6.5475,-3.5838,-3.3257,-1.9012,
1.946377,-0.2249,-1.0716,0.5996,1.0017,-1.9591,6.5475,-3.5838,-3.3257,-1.9012,
1.947661,-0.0639,-1.0904,0.9988,1.0017,-1.9591,6.5475,-3.5838,-3.3257,-1.9012,
1.977657,-0.0639,-1.0904,0.9988,1.0017,-1.9591,6.5475,-1.6130,-1.4232,-1.7510,
1.979579,-0.0639,-1.0904,0.9988,0.6538,-2.2407,6.9010,-1.6130,-1.4232,-1.7510,
2.018392,-0.0639,-1.0904,0.9988,0.6538,-2.2407,6.9010,0.0094,-1.1803,-2.3636,
2.020673,-0.0639,-1.0904,0.9988,0.8200,-3.6616,9.6074,0.0094,-1.1803,-2.3636,
2.022273,0.3136,-1.2338,0.6992,0.8200,-3.6616,9.6074,0.0094,-1.1803,-2.3636,
2.023558,0.4736,-1.4033,-0.1622,0.8200,-3.6616,9.6074,0.0094,-1.1803,-2.3636,
2.024743,0.5718,-1.4283,-0.7324,0.8200,-3.6616,9.6074,0.0094,-1.1803,-2.3636,
2.026022,0.2071,-1.1981,0.1376,0.8200,-3.6616,9.6074,0.0094,-1.1803,-2.3636,
2.056782,0.2071,-1.1981,0.1376,0.8200,-3.6616,9.6074,-0.0279,-1.6021,-2.7886,
2.058872,0.2071,-1.1981,0.1376,0.1795,-3.7479,9.4214,-0.0279,-1.6021,-2.7886,
2.097315,-0.3448,-0.9499,0.2646,0.1795,-3.7479,9.4214,-0.0279,-1.6021,-2.7886,
2.099230,-0.5943,-0.7940,-0.0776,0.1795,-3.7479,9.4214,-0.0279,-1.6021,-2.7886,
2.100063,-0.6185,-0.6030,-0.0996,0.1795,-3.7479,9.4214,-0.0279,-1.6021,-2.7886,
2.101617,-0.6185,-0.6030,-0.0996,0.1795,-3.7479,9.4214,0.8541,-1.9313,-1.4123,
2.103368,-0.6185,-0.6030,-0.0996,-0.8737,-3.1329,3.1160,0.8541,-1.9313,-1.4123,
2.138209,-0.6185,-0.6030,-0.0996,-0.8737,-3.1329,3.1160,1.1609,-0.1374,-0.5910,
2.140066,-0.6185,-0.6030,-0.0996,-7.4631,2.7850,3.2603,1.1609,-0.1374,-0.5910,
2.176663,-0.6185,-0.6030,-0.0996,-7.4631,2.7850,3.2603,0.9202,1.9324,-0.5398,
2.183041,-0.6185,-0.6030,-0.0996,-7.6704,2.7732,2.6720,0.9202,1.9324,-0.5398,
2.184804,-0.3876,-0.3807,0.0401,-7.6704,2.7732,2.6720,0.9202,1.9324,-0.5398,
2.186372,-0.2610,-0.3435,0.0799,-7.6704,2.7732,2.6720,0.9202,1.9324,-0.5398,
2.187497,-0.3551,-0.5561,-0.5147,-7.6704,2.7732,2.6720,0.9202,1.9324,-0.5398,
2.190755,-0.4963,-0.9287,-1.1685,-7.6704,2.7732,2.6720,0.9202,1.9324,-0.5398,
2.192614,0.1279,-1.1691,-0.2743,-7.6704,2.7732,2.6720,0.9202,1.9324,-0.5398,
2.215569,0.1279,-1.1691,-0.2743,-7.6704,2.7732,2.6720,0.6613,1.6757,-0.2810,
2.216949,0.1279,-1.1691,-0.2743,-6.1789,2.5778,-2.4410,0.6613,1.6757,-0.2810,
2.256910,0.1279,-1.1691,-0.2743,-6.1789,2.5778,-2.4410,0.4131,0.3824,-0.4312,
2.259078,0.1279,-1.1691,-0.2743,1.7858,-4.2813,1.8495,0.4131,0.3824,-0.4312,
2.260455,0.8278,-1.3242,0.1061,1.7858,-4.2813,1.8495,0.4131,0.3824,-0.4312,
2.261610,0.4435,-1.4730,-0.0500,1.7858,-4.2813,1.8495,0.4131,0.3824,-0.4312,
2.262898,-0.4103,-2.0327,-0.6735,1.7858,-4.2813,1.8495,0.4131,0.3824,-0.4312,
2.264089,-0.7692,-1.9506,-0.7563,1.7858,-4.2813,1.8495,0.4131,0.3824,-0.4312,
2.295351,-0.7692,-1.9506,-0.7563,1.7858,-4.2813,1.8495,-0.7938,1.0663,-0.2937,
2.297421,-0.7692,-1.9506,-0.7563,1.5298,-4.2718,1.9407,-0.7938,1.0663,-0.2937,
2.335469,-0.7692,-1.9506,-0.7563,1.5298,-4.2718,1.9407,-0.0002,3.1628,0.4477,
2.337344,-0.7692,-1.9506,-0.7563,-8.5762,-6.4446,-0.2946,-0.0002,3.1628,0.4477,
2.341825,-0.5420,-0.7212,0.6450,-8.5762,-6.4446,-0.2946,-0.0002,3.1628,0.4477,
2.343633,-0.6387,-0.6155,0.5392,-8.5762,-6.4446,-0.2946,-0.0002,3.1628,0.4477,
2.346169,-0.4237,-1.2055,0.1307,-8.5762,-6.4446,-0.2946,-0.0002,3.1628,0.4477,
2.347622,0.4267,-1.6308,0.2485,-8.5762,-6.4446,-0.2946,-0.0002,3.1628,0.4477,
2.374176,0.4267,-1.6308,0.2485,-8.5762,-6.4446,-0.2946,0.1851,2.0751,1.3457,
2.375711,0.4267,-1.6308,0.2485,-4.5963,-2.1273,4.8346,0.1851,2.0751,1.3457,
2.413506,0.4267,-1.6308,0.2485,-4.5963,-2.1273,4.8346,0.3055,2.7122,0.2453,
2.415360,0.4267,-1.6308,0.2485,4.2465,-3.6066,1.7195,0.3055,2.7122,0.2453,
2.416595,1.0514,-1.5871,0.1579,4.2465,-3.6066,1.7195,0.3055,2.7122,0.2453,
2.417532,0.7091,-1.3486,0.0560,4.2465,-3.6066,1.7195,0.3055,2.7122,0.2453,
2.418836,0.3727,-1.0122,-0.1175,4.2465,-3.6066,1.7195,0.3055,2.7122,0.2453,
2.419536,-0.0424,-0.8119,-0.1734,4.2465,-3.6066,1.7195,0.3055,2.7122,0.2453,
2.453899,-0.0424,-0.8119,-0.1734,4.2465,-3.6066,1.7195,0.0530,3.3982,-0.0338,
2.456036,-0.0424,-0.8119,-0.1734,3.9653,-3.5127,1.2873,0.0530,3.3982,-0.0338,
2.494667,-0.0424,-0.8119,-0.1734,3.9653,-3.5127,1.2873,-1.0580,3.2086,0.6224,
2.496901,-0.0424,-0.8119,-0.1734,-5.5234,1.6309,-2.2963,-1.0580,3.2086,0.6224,
2.498686,-0.3820,-0.8019,-0.2917,-5.5234,1.6309,-2.2963,-1.0580,3.2086,0.6224,
2.500265,-0.4259,-0.7567,-0.5592,-5.5234,1.6309,-2.2963,-1.0580,3.2086,0.6224,
2.501544,-0.3363,-0.7853,-0.5345,-5.5234,1.6309,-2.2963,-1.0580,3.2086,0.6224,
2.502791,-0.2100,-0.9194,-0.3029,-5.5234,1.6309,-2.2963,-1.0580,3.2086,0.6224,
2.533506,-0.2100,-0.9194,-0.3029,-5.5234,1.6309,-2.2963,-2.2117,2.8986,0.9302,
2.535665,-0.2100,-0.9194,-0.3029,-5.1864,1.5739,-1.7338,-2.2117,2.8986,0.9302,
2.575500,-0.2100,-0.9194,-0.3029,-5.1864,1.5739,-1.7338,-2.7198,2.5002,0.9782,
2.578126,-0.2100,-0.9194,-0.3029,-4.0478,0.1474,-1.0501,-2.7198,2.5002,0.9782,
2.579608,-0.0375,-1.0633,-0.2208,-4.0478,0.1474,-1.0501,-2.7198,2.5002,0.9782,
2.580800,0.1782,-1.1556,-0.3652,-4.0478,0.1474,-1.0501,-2.7198,2.5002,0.9782,
2.582342,0.3969,-1.2445,-0.5098,-4.0478,0.1474,-1.0501,-2.7198,2.5002,0.9782,
2.585931,0.7763,-1.3039,-0.3339,-4.0478,0.1474,-1.0501,-2.7198,2.5002,0.9782,
2.612060,0.7763,-1.3039,-0.3339,2.4445,-3.0672,-0.6230,-2.7198,2.5002,0.9782,
2.613742,0.7763,-1.3039,-0.3339,2.4445,-3.0672,-0.6230,-3.0618,2.4629,1.4171,
2.653853,0.7763,-1.3039,-0.3339,2.4445,-3.0672,-0.6230,-1.8847,1.8152,1.3063,
2.656502,0.8056,-1.2780,-0.3715,2.4445,-3.0672,-0.6230,-1.8847,1.8152,1.3063,
2.657923,0.9263,-0.9861,-0.4226,2.4445,-3.0672,-0.6230,-1.8847,1.8152,1.3063,
2.659109,0.6715,-0.5515,-0.1177,2.4445,-3.0672,-0.6230,-1.8847,1.8152,1.3063,
2.660240,-0.0590,-0.3795,-0.3127,2.4445,-3.0672,-0.6230,-1.8847,1.8152,1.3063,
2.661616,-0.0590,-0.3795,-0.3127,5.9394,-0.3284,0.8600,-1.8847,1.8152,1.3063,
2.693462,-0.0590,-0.3795,-0.3127,5.9394,-0.3284,0.8600,-0.3486,-0.2983,1.0762,
2.695281,-0.0590,-0.3795,-0.3127,6.2132,-0.3012,0.9758,-0.3486,-0.2983,1.0762,
2.731836,-0.0590,-0.3795,-0.3127,6.2132,-0.3012,0.9758,0.0403,-0.9917,2.0573,
2.734064,-0.0590,-0.3795,-0.3127,-2.3702,4.1088,0.1083,0.0403,-0.9917,2.0573,
2.735685,-0.3192,-0.4745,-0.3979,-2.3702,4.1088,0.1083,0.0403,-0.9917,2.0573,
2.737589,-0.1345,-0.6135,-0.4759,-2.3702,4.1088,0.1083,0.0403,-0.9917,2.0573,
2.739315,-0.1279,-0.7769,-0.4177,-2.3702,4.1088,0.1083,0.0403,-0.9917,2.0573,
2.740620,-0.1914,-0.8312,-0.1268,-2.3702,4.1088,0.1083,0.0403,-0.9917,2.0573,
2.771010,-0.1914,-0.8312,-0.1268,-2.3702,4.1088,0.1083,0.7476,-0.8043,2.2895,
2.773493,-0.1914,-0.8312,-0.1268,-1.3990,4.1448,-0.1464,0.7476,-0.8043,2.2895,
2.810497,-0.1914,-0.8312,-0.1268,-1.3990,4.1448,-0.1464,1.4144,-0.4548,1.8591,
2.812677,-0.1914,-0.8312,-0.1268,-0.5471,1.3993,1.2411,1.4144,-0.4548,1.8591,
2.816094,-0.1592,-0.7349,-0.0503,-0.5471,1.3993,1.2411,1.4144,-0.4548,1.8591,
2.818125,-0.1943,-0.5805,-0.1563,-0.5471,1.3993,1.2411,1.4144,-0.4548,1.8591,
2.820016,-0.2654,-0.5493,-0.2953,-0.5471,1.3993,1.2411,1.4144,-0.4548,1.8591,
2.821427,-0.1049,-0.7010,-0.7519,-0.5471,1.3993,1.2411,1.4144,-0.4548,1.8591,
2.850290,-0.1049,-0.7010,-0.7519,-0.5471,1.3993,1.2411,0.7156,-0.0309,1.8549,
2.852487,-0.1049,-0.7010,-0.7519,-0.1551,2.9918,-0.9831,0.7156,-0.0309,1.8549,
2.892779,-0.1049,-0.7010,-0.7519,-0.1551,2.9918,-0.9831,-0.8045,-0.0586,0.8472,
2.894591,-0.1049,-0.7010,-0.7519,6.5584,-9.5106,-6.2128,-0.8045,-0.0586,0.8472,
2.896037,0.1264,-1.3354,-1.4086,6.5584,-9.5106,-6.2128,-0.8045,-0.0586,0.8472,
2.897445,0.7416,-2.3227,-1.0436,6.5584,-9.5106,-6.2128,-0.8045,-0.0586,0.8472,
2.900665,0.5733,-2.0156,-0.4798,6.5584,-9.5106,-6.2128,-0.8045,-0.0586,0.8472,
2.902333,0.5701,-0.6582,-0.1231,6.5584,-9.5106,-6.2128,-0.8045,-0.0586,0.8472,
2.929201,0.5701,-0.6582,-0.1231,6.5584,-9.5106,-6.2128,0.0775,-1.1835,-0.6666,
2.930628,0.5701,-0.6582,-0.1231,6.3350,-9.2469,-6.1893,0.0775,-1.1835,-0.6666,
2.969002,0.5701,-0.6582,-0.1231,6.3350,-9.2469,-6.1893,0.8861,-1.2069,-1.2259,
2.971365,0.5701,-0.6582,-0.1231,10.3498,5.2377,3.9250,0.8861,-1.2069,-1.2259,
2.972795,0.8875,-0.2426,-0.0701,10.3498,5.2377,3.9250,0.8861,-1.2069,-1.2259,
2.974166,1.3741,-0.3602,0.5062,10.3498,5.2377,3.9250,0.8861,-1.2069,-1.2259,
2.975601,0.4475,-0.9697,-0.2223,10.3498,5.2377,3.9250,0.8861,-1.2069,-1.2259,
2.976609,-0.5774,-2.1492,-0.6957,10.3498,5.2377,3.9250,0.8861,-1.2069,-1.2259,
3.010468,-0.5774,-2.1492,-0.6957,10.3498,5.2377,3.9250,1.2557,-1.4242,-0.9201,
3.013066,-0.5774,-2.1492,-0.6957,9.9389,5.2904,3.3269,1.2557,-1.4242,-0.9201,
3.049495,-0.5774,-2.1492,-0.6957,9.9389,5.2904,3.3269,1.7926,-0.9374,-0.1680,
3.051888,-0.5774,-2.1492,-0.6957,-0.2803,-6.1315,-1.4485,1.7926,-0.9374,-0.1680,
3.054112,-0.1721,-1.7224,-0.0261,-0.2803,-6.1315,-1.4485,1.7926,-0.9374,-0.1680,
3.057009,0.3830,-1.0210,-0.1333,-0.2803,-6.1315,-1.4485,1.7926,-0.9374,-0.1680,
3.058823,0.4262,-1.0340,-0.2408,-0.2803,-6.1315,-1.4485,1.7926,-0.9374,-0.1680,
3.060282,0.4340,-1.0437,-0.3036,-0.2803,-6.1315,-1.4485,1.7926,-0.9374,-0.1680,
3.086301,0.4340,-1.0437,-0.3036,-0.2803,-6.1315,-1.4485,1.8427,-1.2378,0.0865,
3.088732,0.4340,-1.0437,-0.3036,4.7630,-0.3421,-1.2993,1.8427,-1.2378,0.0865,
3.126615,0.4340,-1.0437,-0.3036,4.7630,-0.3421,-1.2993,1.1439,-2.6738,0.1366,
3.129546,0.4340,-1.0437,-0.3036,6.7690,-0.6721,-3.5526,1.1439,-2.6738,0.1366,
3.130938,0.5645,-1.0181,-0.3630,6.7690,-0.6721,-3.5526,1.1439,-2.6738,0.1366,
3.132529,0.6605,-1.0621,-0.3896,6.7690,-0.6721,-3.5526,1.1439,-2.6738,0.1366,
3.133778,0.6385,-1.1317,-0.4764,6.7690,-0.6721,-3.5526,1.1439,-2.6738,0.1366,
3.135123,0.4206,-0.9836,-0.6325,6.7690,-0.6721,-3.5526,1.1439,-2.6738,0.1366,
3.165898,0.4206,-0.9836,-0.6325,6.7690,-0.6721,-3.5526,-0.4338,-3.0360,-0.3044,
3.167531,0.4206,-0.9836,-0.6325,6.5713,-0.6590,-3.3942,-0.4338,-3.0360,-0.3044,
3.205995,0.4206,-0.9836,-0.6325,6.5713,-0.6590,-3.3942,-2.4929,-3.3822,-0.3161,
3.208165,0.4206,-0.9836,-0.6325,2.6670,2.0643,-3.2042,-2.4929,-3.3822,-0.3161,
3.209556,0.1489,-0.7322,-0.5323,2.6670,2.0643,-3.2042,-2.4929,-3.3822,-0.3161,
3.210692,0.1110,-0.6191,-0.3022,2.6670,2.0643,-3.2042,-2.4929,-3.3822,-0.3161,
3.212075,0.1025,-0.6360,-0.1788,2.6670,2.0643,-3.2042,-2.4929,-3.3822,-0.3161,
3.213194,0.2608,-0.7359,0.0543,2.6670,2.0643,-3.2042,-2.4929,-3.3822,-0.3161,
3.245836,0.2608,-0.7359,0.0543,2.6670,2.0643,-3.2042,-3.5593,-4.8832,-0.8509,
3.248320,0.2608,-0.7359,0.0543,2.7203,1.7331,-1.9124,-3.5593,-4.8832,-0.8509,
3.285719,0.2608,-0.7359,0.0543,2.7203,1.7331,-1.9124,-2.3182,-3.0403,-1.3846,
3.288203,0.2608,-0.7359,0.0543,2.6859,1.1590,5.2059,-2.3182,-3.0403,-1.3846,
3.290449,0.3568,-1.0476,0.6260,2.6859,1.1590,5.2059,-2.3182,-3.0403,-1.3846,
3.291877,0.3048,-1.3015,0.9607,2.6859,1.1590,5.2059,-2.3182,-3.0403,-1.3846,
3.293102,0.0094,-1.7185,0.6663,2.6859,1.1590,5.2059,-2.3182,-3.0403,-1.3846,
3.294236,-0.4333,-2.0906,-0.1646,2.6859,1.1590,5.2059,-2.3182,-3.0403,-1.3846,
3.325764,-0.4333,-2.0906,-0.1646,2.6859,1.1590,5.2059,-1.4500,-0.3867,-1.5028,
3.327629,-0.4333,-2.0906,-0.1646,-0.5241,-7.6959,8.6866,-1.4500,-0.3867,-1.5028,
3.364999,-0.4333,-2.0906,-0.1646,-0.5241,-7.6959,8.6866,-1.8101,0.3931,-1.6317,
3.367314,-0.4333,-2.0906,-0.1646,-0.5093,-4.0112,3.0666,-1.8101,0.3931,-1.6317,
3.368913,-0.5156,-1.7266,-0.7368,-0.5093,-4.0112,3.0666,-1.8101,0.3931,-1.6317,
3.370306,-0.0140,-1.1774,-0.1448,-0.5093,-4.0112,3.0666,-1.8101,0.3931,-1.6317,
3.371863,0.6077,-1.0002,0.4498,-0.5093,-4.0112,3.0666,-1.8101,0.3931,-1.6317,
3.373259,0.5083,-1.0965,0.2207,-0.5093,-4.0112,3.0666,-1.8101,0.3931,-1.6317,
3.404238,0.5083,-1.0965,0.2207,-0.5093,-4.0112,3.0666,0.1372,0.9396,-1.9598,
3.406444,0.5083,-1.0965,0.2207,-1.3262,-4.0035,2.9197,0.1372,0.9396,-1.9598,
3.445151,0.5083,-1.0965,0.2207,-1.3262,-4.0035,2.9197,1.0725,1.0323,-0.9819,
3.447413,0.5083,-1.0965,0.2207,-2.1828,-0.4778,5.4419,1.0725,1.0323,-0.9819,
3.448920,-0.0861,-1.0459,0.0487,-2.1828,-0.4778,5.4419,1.0725,1.0323,-0.9819,
3.450152,-0.4623,-0.7168,0.2397,-2.1828,-0.4778,5.4419,1.0725,1.0323,-0.9819,
3.451522,-0.6468,-0.2466,0.5632,-2.1828,-0.4778,5.4419,1.0725,1.0323,-0.9819,
3.452759,-0.7428,0.1255,0.6751,-2.1828,-0.4778,5.4419,1.0725,1.0323,-0.9819,
3.483297,-0.7428,0.1255,0.6751,-2.1828,-0.4778,5.4419,2.0983,2.6802,0.0258,
3.485755,-0.7428,0.1255,0.6751,-2.4755,-0.1969,4.3722,2.0983,2.6802,0.0258,
3.523144,-0.7428,0.1255,0.6751,-2.4755,-0.1969,4.3722,2.2070,1.5084,0.6352,
3.525701,-0.7428,0.1255,0.6751,-9.6225,9.5659,4.7036,2.2070,1.5084,0.6352,
3.527025,-0.9216,0.2262,-0.3107,-9.6225,9.5659,4.7036,2.2070,1.5084,0.6352,
3.528579,-1.0795,-0.0064,-1.0576,-9.6225,9.5659,4.7036,2.2070,1.5084,0.6352,
3.529869,-0.3138,-1.2086,0.0628,-9.6225,9.5659,4.7036,2.2070,1.5084,0.6352,
3.531007,0.9835,-2.2047,0.2250,-9.6225,9.5659,4.7036,2.2070,1.5084,0.6352,
3.562568,0.9835,-2.2047,0.2250,-9.6225,9.5659,4.7036,0.9947,3.6411,0.9729,
3.564928,0.9835,-2.2047,0.2250,-3.1821,-1.7852,-1.4672,0.9947,3.6411,0.9729,
3.602344,0.9835,-2.2047,0.2250,-3.1821,-1.7852,-1.4672,-0.0279,1.9846,-0.6463,
3.605499,0.9835,-2.2047,0.2250,2.9962,-10.3414,-2.5767,-0.0279,1.9846,-0.6463,
3.607438,1.0057,-2.7021,-0.4378,2.9962,-10.3414,-2.5767,-0.0279,1.9846,-0.6463,
3.609299,0.4340,-2.2533,-0.3603,2.9962,-10.3414,-2.5767,-0.0279,1.9846,-0.6463,
3.610612,0.1540,-1.1231,-0.2816,2.9962,-10.3414,-2.5767,-0.0279,1.9846,-0.6463,
3.612270,-0.6952,-0.7730,0.0108,2.9962,-10.3414,-2.5767,-0.0279,1.9846,-0.6463,
3.641437,-0.6952,-0.7730,0.0108,2.9962,-10.3414,-2.5767,-0.8162,4.6211,-1.3143,
3.643267,-0.6952,-0.7730,0.0108,2.3046,-10.3206,-2.6898,-0.8162,4.6211,-1.3143,
3.681817,-0.6952,-0.7730,0.0108,2.3046,-10.3206,-2.6898,-1.5885,3.8925,1.8719,
3.684704,-0.6952,-0.7730,0.0108,-11.4886,0.9980,-0.2938,-1.5885,3.8925,1.8719,
3.686328,-1.3013,-0.8129,-0.2003,-11.4886,0.9980,-0.2938,-1.5885,3.8925,1.8719,
3.687666,-0.8691,-1.0650,-0.2145,-11.4886,0.9980,-0.2938,-1.5885,3.8925,1.8719,
3.689562,0.2085,-1.3645,0.3462,-11.4886,0.9980,-0.2938,-1.5885,3.8925,1.8719,
3.691351,1.2060,-1.1583,0.7606,-11.4886,0.9980,-0.2938,-1.5885,3.8925,1.8719,
3.720799,1.2060,-1.1583,0.7606,-11.4886,0.9980,-0.2938,0.0978,2.2051,1.8016,
3.722981,1.2060,-1.1583,0.7606,-10.6957,1.1121,-0.4870,0.0978,2.2051,1.8016,
3.761224,1.2060,-1.1583,0.7606,-10.6957,1.1121,-0.4870,1.0352,3.6890,-0.2735,
3.764213,1.2060,-1.1583,0.7606,7.6689,-1.0458,5.3629,1.0352,3.6890,-0.2735,
3.766036,1.4386,-0.7958,0.4921,7.6689,-1.0458,5.3629,1.0352,3.6890,-0.2735,
3.767421,1.1537,-0.8209,-0.3764,7.6689,-1.0458,5.3629,1.0352,3.6890,-0.2735,
3.768526,0.9219,-1.1160,-0.7517,7.6689,-1.0458,5.3629,1.0352,3.6890,-0.2735,
3.769898,0.7702,-1.1551,-0.5924,7.6689,-1.0458,5.3629,1.0352,3.6890,-0.2735,
3.800251,0.7702,-1.1551,-0.5924,7.6689,-1.0458,5.3629,0.3130,2.2914,-0.5324,
3.802635,0.7702,-1.1551,-0.5924,7.3160,-0.3370,-5.6637,0.3130,2.2914,-0.5324,
3.840369,0.7702,-1.1551,-0.5924,7.3160,-0.3370,-5.6637,-0.1163,-1.3049,0.0397,
3.842194,0.7702,-1.1551,-0.5924,0.2324,1.7997,-3.9431,-0.1163,-1.3049,0.0397,
3.843689,0.4883,-0.9272,-0.4983,0.2324,1.7997,-3.9431,-0.1163,-1.3049,0.0397,
3.844839,0.1592,-0.7107,-0.4881,0.2324,1.7997,-3.9431,-0.1163,-1.3049,0.0397,
3.845954,0.0260,-0.7916,-0.2731,0.2324,1.7997,-3.9431,-0.1163,-1.3049,0.0397,
3.847194,0.0751,-1.0362,0.0171,0.2324,1.7997,-3.9431,-0.1163,-1.3049,0.0397,
3.880119,0.0751,-1.0362,0.0171,0.2324,1.7997,-3.9431,-0.3795,-1.7758,0.3284,
3.882562,0.0751,-1.0362,0.0171,0.3746,1.7893,-3.6016,-0.3795,-1.7758,0.3284,
3.919684,0.0751,-1.0362,0.0171,0.3746,1.7893,-3.6016,0.0967,-1.0642,0.1803,
3.922029,0.0751,-1.0362,0.0171,-1.3572,-0.8580,1.9166,0.0967,-1.0642,0.1803,
3.923459,0.0353,-1.1852,0.1860,-1.3572,-0.8580,1.9166,0.0967,-1.0642,0.1803,
3.925008,-0.0026,-1.0276,0.2250,-1.3572,-0.8580,1.9166,0.0967,-1.0642,0.1803,
3.926007,0.0307,-0.8534,0.0902,-1.3572,-0.8580,1.9166,0.0967,-1.0642,0.1803,
3.927229,0.0727,-0.8971,-0.0691,-1.3572,-0.8580,1.9166,0.0967,-1.0642,0.1803,
3.958881,0.0727,-0.8971,-0.0691,-1.3572,-0.8580,1.9166,0.3641,-0.8724,0.1398,
3.961584,0.0727,-0.8971,-0.0691,-1.2648,-0.8277,1.8030,0.3641,-0.8724,0.1398,
3.999978,0.0727,-0.8971,-0.0691,-1.2648,-0.8277,1.8030,-0.0205,-0.9353,0.1558,
4.002376,0.0727,-0.8971,-0.0691,-0.8132,0.8315,0.0985,-0.0205,-0.9353,0.1558,
4.003728,0.1152,-0.9890,-0.1346,-0.8132,0.8315,0.0985,-0.0205,-0.9353,0.1558,
4.004993,0.1286,-0.9717,-0.1224,-0.8132,0.8315,0.0985,-0.0205,-0.9353,0.1558,
4.006114,0.1311,-0.9433,-0.1473,-0.8132,0.8315,0.0985,-0.0205,-0.9353,0.1558,
4.007244,0.1448,-0.9985,-0.1326,-0.8132,0.8315,0.0985,-0.0205,-0.9353,0.1558,
4.037935,0.1448,-0.9985,-0.1326,-0.8132,0.8315,0.0985,-0.3241,-0.6881,0.0343,
4.039715,0.1448,-0.9985,-0.1326,-0.1749,0.2539,-0.6668,-0.3241,-0.6881,0.0343,
4.078575,0.1448,-0.9985,-0.1326,-0.1749,0.2539,-0.6668,-0.1557,-0.2610,-0.2000,
4.080577,0.1448,-0.9985,-0.1326,-0.8894,-0.2075,0.7186,-0.1557,-0.2610,-0.2000,
4.082111,0.1584,-1.0195,0.0010,-0.8894,-0.2075,0.7186,-0.1557,-0.2610,-0.2000,
4.083762,0.0773,-1.0335,0.0494,-0.8894,-0.2075,0.7186,-0.1557,-0.2610,-0.2000,
4.085453,-0.0331,-0.9978,-0.0481,-0.8894,-0.2075,0.7186,-0.1557,-0.2610,-0.2000,
4.087038,-0.0348,-0.9230,-0.1280,-0.8894,-0.2075,0.7186,-0.1557,-0.2610,-0.2000,
4.117073,-0.0348,-0.9230,-0.1280,-0.8894,-0.2075,0.7186,-0.2186,0.0384,-0.2181,
4.119103,-0.0348,-0.9230,-0.1280,-0.9586,-0.2240,0.7871,-0.2186,0.0384,-0.2181,
4.157745,-0.0162,-0.8920,-0.1412,-0.9586,-0.2240,0.7871,-0.2186,0.0384,-0.2181,
4.160018,-0.0048,-0.8688,-0.1541,-0.9586,-0.2240,0.7871,-0.2186,0.0384,-0.2181,
4.161001,-0.0817,-0.8588,-0.2203,-0.9586,-0.2240,0.7871,-0.2186,0.0384,-0.2181,
4.161943,-0.0817,-0.8588,-0.2203,-0.9586,-0.2240,0.7871,-0.4072,0.4006,-0.4131,
4.162740,-0.0817,-0.8588,-0.2203,-1.9427,0.9176,-0.4655,-0.4072,0.4006,-0.4131,
4.197056,-0.0817,-0.8588,-0.2203,-1.9427,0.9176,-0.4655,-0.6149,0.8554,-0.5675,
4.199180,-0.0817,-0.8588,-0.2203,-4.9511,0.3979,-2.5253,-0.6149,0.8554,-0.5675,
4.237172,-0.0817,-0.8588,-0.2203,-4.9511,0.3979,-2.5253,-0.7044,1.4371,-0.2895,
4.239178,-0.0817,-0.8588,-0.2203,-5.0447,0.3353,-2.3338,-0.7044,1.4371,-0.2895,
4.240160,-0.3377,-0.9365,-0.3977,-5.0447,0.3353,-2.3338,-0.7044,1.4371,-0.2895,
4.241149,-0.5061,-1.0252,-0.5013,-5.0447,0.3353,-2.3338,-0.7044,1.4371,-0.2895,
4.242078,-0.3172,-0.9707,-0.1961,-5.0447,0.3353,-2.3338,-0.7044,1.4371,-0.2895,
4.243061,-0.1899,-0.8568,0.2573,-5.0447,0.3353,-2.3338,-0.7044,1.4371,-0.2895,
4.243900,-0.2149,-0.8165,0.3951,-5.0447,0.3353,-2.3338,-0.7044,1.4371,-0.2895,
4.277496,-0.2149,-0.8165,0.3951,-5.0447,0.3353,-2.3338,0.0051,2.2339,-0.0328,
4.280625,-0.2149,-0.8165,0.3951,-4.4281,0.8936,2.5820,0.0051,2.2339,-0.0328,
4.307323,-0.2112,-0.9072,0.3088,-4.4281,0.8936,2.5820,0.0051,2.2339,-0.0328,
4.309868,-0.1311,-1.0374,0.1940,-4.4281,0.8936,2.5820,0.0051,2.2339,-0.0328,
4.311283,-0.1303,-1.3137,0.2329,-4.4281,0.8936,2.5820,0.0051,2.2339,-0.0328,
4.316686,-0.1303,-1.3137,0.2329,-3.5901,-1.0670,3.0623,0.0051,2.2339,-0.0328,
4.319156,-0.1303,-1.3137,0.2329,-3.5901,-1.0670,3.0623,0.2501,3.4398,0.2272,
4.356575,-0.1303,-1.3137,0.2329,-3.5901,-1.0670,3.0623,0.4216,4.3410,0.2208,
4.359124,-0.1303,-1.3137,0.2329,-0.3819,-3.5394,1.1704,0.4216,4.3410,0.2208,
4.396496,0.0101,-1.3982,0.0746,-0.3819,-3.5394,1.1704,0.4216,4.3410,0.2208,
4.399288,0.2251,-1.2863,0.0975,-0.3819,-3.5394,1.1704,0.4216,4.3410,0.2208,
4.400451,0.2679,-1.3564,0.1474,-0.3819,-3.5394,1.1704,0.4216,4.3410,0.2208,
4.401599,0.2679,-1.3564,0.1474,-0.3819,-3.5394,1.1704,0.3353,4.1663,0.3550,
4.402655,0.2679,-1.3564,0.1474,-0.2250,-3.4547,0.7064,0.3353,4.1663,0.3550,
4.435511,0.2679,-1.3564,0.1474,-0.2250,-3.4547,0.7064,0.6475,2.3606,0.4977,
4.438404,0.2679,-1.3564,0.1474,5.3336,-3.8302,-0.6058,0.6475,2.3606,0.4977,
4.475760,0.4191,-1.4998,0.1777,5.3336,-3.8302,-0.6058,0.6475,2.3606,0.4977,
4.478609,0.8459,-1.4759,0.0882,5.3336,-3.8302,-0.6058,0.6475,2.3606,0.4977,
4.479943,0.8936,-1.2062,-0.2240,5.3336,-3.8302,-0.6058,0.6475,2.3606,0.4977,
4.480953,0.5708,-1.0061,-0.2875,5.3336,-3.8302,-0.6058,0.6475,2.3606,0.4977,
4.482576,0.3282,-1.0337,-0.3488,5.3336,-3.8302,-0.6058,0.6475,2.3606,0.4977,
4.483770,0.1687,-1.0594,-0.4803,5.3336,-3.8302,-0.6058,0.6475,2.3606,0.4977,
4.485118,0.1687,-1.0594,-0.4803,5.3336,-3.8302,-0.6058,0.7391,1.6416,-0.0445,
4.486344,0.1687,-1.0594,-0.4803,1.7831,-0.3184,-4.7072,0.7391,1.6416,-0.0445,
4.515166,0.1687,-1.0594,-0.4803,1.7831,-0.3184,-4.7072,0.4056,1.6661,0.3049,
4.517454,0.1687,-1.0594,-0.4803,1.9479,-0.3128,-4.8887,0.4056,1.6661,0.3049,
4.554749,0.1687,-1.0594,-0.4803,1.9479,-0.3128,-4.8887,-0.3656,1.0727,1.0570,
4.557201,0.1687,-1.0594,-0.4803,1.3148,1.9254,-5.7623,-0.3656,1.0727,1.0570,
4.559023,0.1719,-0.9428,-0.4915,1.3148,1.9254,-5.7623,-0.3656,1.0727,1.0570,
4.560310,0.2295,-0.8050,-0.5088,1.3148,1.9254,-5.7623,-0.3656,1.0727,1.0570,
4.561890,0.3370,-0.6782,-0.4397,1.3148,1.9254,-5.7623,-0.3656,1.0727,1.0570,
4.564031,0.4140,-0.6010,-0.3508,1.3148,1.9254,-5.7623,-0.3656,1.0727,1.0570,
4.593567,0.4140,-0.6010,-0.3508,1.3148,1.9254,-5.7623,-1.6556,0.0405,1.0900,
4.596322,0.4140,-0.6010,-0.3508,1.7168,1.9783,-5.0300,-1.6556,0.0405,1.0900,
4.633819,0.4140,-0.6010,-0.3508,1.7168,1.9783,-5.0300,-2.9137,-2.3063,1.0325,
4.636391,0.4140,-0.6010,-0.3508,3.0998,2.5019,-2.9065,-2.9137,-2.3063,1.0325,
4.638021,0.3600,-0.6975,-0.3723,3.0998,2.5019,-2.9065,-2.9137,-2.3063,1.0325,
4.639188,0.2706,-0.9509,-0.4451,3.0998,2.5019,-2.9065,-2.9137,-2.3063,1.0325,
4.640312,0.6971,-1.0159,-0.2741,3.0998,2.5019,-2.9065,-2.9137,-2.3063,1.0325,
4.641749,1.0995,-1.1554,0.0856,3.0998,2.5019,-2.9065,-2.9137,-2.3063,1.0325,
4.673717,1.0995,-1.1554,0.0856,3.0998,2.5019,-2.9065,-3.6669,-1.9697,0.0919,
4.676356,1.0995,-1.1554,0.0856,3.2054,2.2286,-1.4491,-3.6669,-1.9697,0.0919,
4.712777,1.0995,-1.1554,0.0856,3.2054,2.2286,-1.4491,-2.1883,-1.4211,-1.2014,
4.715464,1.0995,-1.1554,0.0856,9.0432,-3.3035,3.9918,-2.1883,-1.4211,-1.2014,
4.716806,1.1708,-1.7100,0.4503,9.0432,-3.3035,3.9918,-2.1883,-1.4211,-1.2014,
4.718438,0.9539,-2.0346,0.7034,9.0432,-3.3035,3.9918,-2.1883,-1.4211,-1.2014,
4.719827,0.5542,-1.5497,0.6765,9.0432,-3.3035,3.9918,-2.1883,-1.4211,-1.2014,
4.721511,0.4299,-1.0574,0.5082,9.0432,-3.3035,3.9918,-2.1883,-1.4211,-1.2014,
4.752486,0.4299,-1.0574,0.5082,9.0432,-3.3035,3.9918,-0.2026,-3.7497,-1.3601,
4.755122,0.4299,-1.0574,0.5082,5.5721,-5.7522,9.3229,-0.2026,-3.7497,-1.3601,
4.792363,0.4299,-1.0574,0.5082,5.5721,-5.7522,9.3229,0.5686,-5.2432,-0.9201,
4.794724,0.4299,-1.0574,0.5082,3.3796,1.4262,7.6571,0.5686,-5.2432,-0.9201,
4.796205,0.4778,-0.8199,0.4173,3.3796,1.4262,7.6571,0.5686,-5.2432,-0.9201,
4.797627,0.4189,-0.7994,0.4632,3.3796,1.4262,7.6571,0.5686,-5.2432,-0.9201,
4.799331,0.2933,-0.8319,0.5627,3.3796,1.4262,7.6571,0.5686,-5.2432,-0.9201,
4.800664,0.2173,-0.7603,0.6978,3.3796,1.4262,7.6571,0.5686,-5.2432,-0.9201,
4.832136,0.2173,-0.7603,0.6978,3.3796,1.4262,7.6571,0.6837,-5.3135,-0.5910,
4.834487,0.2173,-0.7603,0.6978,3.6974,1.4706,7.3444,0.6837,-5.3135,-0.5910,
4.871729,0.2173,-0.7603,0.6978,3.6974,1.4706,7.3444,0.4227,-5.1090,-0.7412,
4.875284,0.2173,-0.7603,0.6978,1.3049,2.7359,9.3743,0.4227,-5.1090,-0.7412,
4.876894,0.1186,-0.6866,0.7701,1.3049,2.7359,9.3743,0.4227,-5.1090,-0.7412,
4.878507,0.0556,-0.6155,0.6902,1.3049,2.7359,9.3743,0.4227,-5.1090,-0.7412,
4.879713,-0.0008,-0.4791,0.8273,1.3049,2.7359,9.3743,0.4227,-5.1090,-0.7412,
4.880964,-0.4716,-0.7459,0.6111,1.3049,2.7359,9.3743,0.4227,-5.1090,-0.7412,
4.911251,-0.4716,-0.7459,0.6111,1.3049,2.7359,9.3743,2.4339,-6.4683,-1.3345,
4.913959,-0.4716,-0.7459,0.6111,1.2659,2.8690,8.2979,2.4339,-6.4683,-1.3345,
4.952738,-0.4716,-0.7459,0.6111,-4.6063,1.2507,4.8392,2.4339,-6.4683,-1.3345,
4.955505,-0.4716,-0.7459,0.6111,-4.6063,1.2507,4.8392,1.1109,-3.5313,0.1036,
4.956876,-1.0135,-1.3398,-0.1827,-4.6063,1.2507,4.8392,1.1109,-3.5313,0.1036,
4.958324,-0.8007,-1.4014,-0.3781,-4.6063,1.2507,4.8392,1.1109,-3.5313,0.1036,
4.959601,-0.0871,-1.5177,-0.3220,-4.6063,1.2507,4.8392,1.1109,-3.5313,0.1036,
4.960778,0.4255,-1.5988,-0.6290,-4.6063,1.2507,4.8392,1.1109,-3.5313,0.1036,
4.990593,0.4255,-1.5988,-0.6290,-4.6063,1.2507,4.8392,-0.2335,-2.0101,0.3039,
4.993693,0.4255,-1.5988,-0.6290,-1.0707,-5.0545,-3.4818,-0.2335,-2.0101,0.3039,
5.029006,0.4255,-1.5988,-0.6290,-1.0707,-5.0545,-3.4818,-0.0130,-1.8951,-0.4312,
5.030717,0.4255,-1.5988,-0.6290,4.7375,-2.7235,3.4667,-0.0130,-1.8951,-0.4312,
5.032251,0.7934,-1.3557,-0.3027,4.7375,-2.7235,3.4667,-0.0130,-1.8951,-0.4312,
5.033143,0.5708,-1.2411,0.5287,4.7375,-2.7235,3.4667,-0.0130,-1.8951,-0.4312,
5.033907,0.0072,-1.2235,0.5979,4.7375,-2.7235,3.4667,-0.0130,-1.8951,-0.4312,
5.034757,-0.3028,-1.0215,0.3372,4.7375,-2.7235,3.4667,-0.0130,-1.8951,-0.4312,
5.068700,-0.3028,-1.0215,0.3372,4.7375,-2.7235,3.4667,1.0576,-1.6639,-0.1776,
5.070984,-0.3028,-1.0215,0.3372,4.6299,-2.6533,2.9907,1.0576,-1.6639,-0.1776,
5.108399,-0.3028,-1.0215,0.3372,4.6299,-2.6533,2.9907,1.0736,-1.7236,0.3593,
5.109860,-0.3028,-1.0215,0.3372,-0.5126,0.5107,1.7931,1.0736,-1.7236,0.3593,
5.110513,-0.1015,-0.8710,0.2148,-0.5126,0.5107,1.7931,1.0736,-1.7236,0.3593,
5.110962,0.1543,-0.9568,0.0469,-0.5126,0.5107,1.7931,1.0736,-1.7236,0.3593,
5.111488,0.1795,-0.9736,-0.0610,-0.5126,0.5107,1.7931,1.0736,-1.7236,0.3593,
5.112500,0.0522,-0.7811,-0.1140,-0.5126,0.5107,1.7931,1.0736,-1.7236,0.3593,
5.149217,0.0522,-0.7811,-0.1140,-0.5126,0.5107,1.7931,0.3716,-1.0205,0.4487,
5.151500,0.0522,-0.7811,-0.1140,-0.3426,0.4919,1.6062,0.3716,-1.0205,0.4487,
5.188362,0.0522,-0.7811,-0.1140,-0.3426,0.4919,1.6062,-0.6724,-0.4644,0.4818,
5.190619,0.0522,-0.7811,-0.1140,1.3737,1.9230,-1.3490,-0.6724,-0.4644,0.4818,
5.192220,-0.0048,-0.6450,-0.2145,1.3737,1.9230,-1.3490,-0.6724,-0.4644,0.4818,
5.193221,0.0649,-0.7293,-0.0982,1.3737,1.9230,-1.3490,-0.6724,-0.4644,0.4818,
5.194588,0.1213,-0.9441,0.1527,1.3737,1.9230,-1.3490,-0.6724,-0.4644,0.4818,
5.195729,-0.1215,-1.1832,0.2292,1.3737,1.9230,-1.3490,-0.6724,-0.4644,0.4818,
5.229305,-0.1215,-1.1832,0.2292,1.3737,1.9230,-1.3490,-1.2700,0.6328,0.0003,
5.231643,-0.1215,-1.1832,0.2292,0.8241,0.4148,1.3354,-1.2700,0.6328,0.0003,
5.268757,-0.1215,-1.1832,0.2292,0.8241,0.4148,1.3354,-2.6527,1.7897,0.0940,
5.271477,-0.1215,-1.1832,0.2292,-6.7698,-5.8111,-2.8906,-2.6527,1.7897,0.0940,
5.272851,-0.7084,-1.4947,-0.1825,-6.7698,-5.8111,-2.8906,-2.6527,1.7897,0.0940,
5.273990,-1.0052,-1.7373,-0.6672,-6.7698,-5.8111,-2.8906,-2.6527,1.7897,0.0940,
5.275511,-0.5720,-1.5297,-0.5005,-6.7698,-5.8111,-2.8906,-2.6527,1.7897,0.0940,
5.276653,-0.4374,-1.1439,-0.1639,-6.7698,-5.8111,-2.8906,-2.6527,1.7897,0.0940,
5.307481,-0.4374,-1.1439,-0.1639,-6.7698,-5.8111,-2.8906,-2.9862,2.8379,-0.1052,
5.310200,-0.4374,-1.1439,-0.1639,-6.9344,-5.9595,-1.6581,-2.9862,2.8379,-0.1052,
5.347407,-0.4374,-1.1439,-0.1639,-6.9344,-5.9595,-1.6581,-1.6130,3.0286,0.3827,
5.349804,-0.4374,-1.1439,-0.1639,-5.0374,0.4547,4.3663,-1.6130,3.0286,0.3827,
5.350976,-0.6683,-0.8959,0.1378,-5.0374,0.4547,4.3663,-1.6130,3.0286,0.3827,
5.352848,-0.5542,-0.6939,0.3418,-5.0374,0.4547,4.3663,-1.6130,3.0286,0.3827,
5.354081,-0.4157,-0.6878,0.1310,-5.0374,0.4547,4.3663,-1.6130,3.0286,0.3827,
5.355303,-0.1550,-0.6797,0.0306,-5.0374,0.4547,4.3663,-1.6130,3.0286,0.3827,
5.387843,-0.1550,-0.6797,0.0306,-5.0374,0.4547,4.3663,-0.3667,3.3535,0.4360,
5.390020,-0.1550,-0.6797,0.0306,-5.2467,0.3944,4.4580,-0.3667,3.3535,0.4360,
5.427153,-0.1550,-0.6797,0.0306,-5.2467,0.3944,4.4580,0.7039,4.1599,-0.3150,
5.429803,-0.1550,-0.6797,0.0306,-1.9634,2.9030,4.0046,0.7039,4.1599,-0.3150,
5.431220,0.1091,-0.6103,0.1232,-1.9634,2.9030,4.0046,0.7039,4.1599,-0.3150,
5.432499,0.1824,-0.4945,0.2187,-1.9634,2.9030,4.0046,0.7039,4.1599,-0.3150,
5.433759,0.0602,-0.3980,0.1852,-1.9634,2.9030,4.0046,0.7039,4.1599,-0.3150,
5.435247,-0.0976,-0.4686,0.0594,-1.9634,2.9030,4.0046,0.7039,4.1599,-0.3150,
5.465442,-0.0976,-0.4686,0.0594,-1.9634,2.9030,4.0046,2.1964,3.9181,-0.1830,
5.467245,-0.0976,-0.4686,0.0594,-0.4563,5.0536,3.5917,2.1964,3.9181,-0.1830,
5.506019,-0.0976,-0.4686,0.0594,-0.4563,5.0536,3.5917,2.7056,3.8105,-0.0413,
5.509658,-0.0976,-0.4686,0.0594,2.3383,4.8418,0.5863,2.7056,3.8105,-0.0413,
5.511107,-0.0260,-0.6125,-0.1153,2.3383,4.8418,0.5863,2.7056,3.8105,-0.0413,
5.512475,0.4238,-0.4931,-0.0798,2.3383,4.8418,0.5863,2.7056,3.8105,-0.0413,
5.513615,0.6893,-0.3435,0.1058,2.3383,4.8418,0.5863,2.7056,3.8105,-0.0413,
5.515670,0.5400,-0.7112,-0.0779,2.3383,4.8418,0.5863,2.7056,3.8105,-0.0413,
5.545611,0.5400,-0.7112,-0.0779,2.3383,4.8418,0.5863,2.4637,4.2472,-0.6496,
5.548744,0.5400,-0.7112,-0.0779,2.0098,4.7553,-0.5683,2.4637,4.2472,-0.6496,
5.584747,0.5400,-0.7112,-0.0779,2.0098,4.7553,-0.5683,0.1936,3.7636,-0.3832,
5.588927,0.5400,-0.7112,-0.0779,0.8245,-7.6927,-6.0488,0.1936,3.7636,-0.3832,
5.590306,0.1570,-1.6872,-0.5983,0.8245,-7.6927,-6.0488,0.1936,3.7636,-0.3832,
5.591681,0.0527,-2.8934,-1.0275,0.8245,-7.6927,-6.0488,0.1936,3.7636,-0.3832,
5.593034,0.1878,-2.4280,-0.9838,0.8245,-7.6927,-6.0488,0.1936,3.7636,-0.3832,
5.594288,-0.3282,-1.0117,-0.4373,0.8245,-7.6927,-6.0488,0.1936,3.7636,-0.3832,
5.623868,-0.3282,-1.0117,-0.4373,0.8245,-7.6927,-6.0488,-1.0175,3.3290,-0.4887,
5.626953,-0.3282,-1.0117,-0.4373,0.6856,-7.5797,-5.7859,-1.0175,3.3290,-0.4887,
5.664976,-0.3282,-1.0117,-0.4373,0.6856,-7.5797,-5.7859,-0.6383,3.0935,1.3638,
5.667293,-0.3282,-1.0117,-0.4373,-3.7931,-3.3078,-3.3937,-0.6383,3.0935,1.3638,
5.668739,-0.6690,-0.5876,0.4149,-3.7931,-3.3078,-3.3937,-0.6383,3.0935,1.3638,
5.669902,-0.4325,-0.8197,0.3860,-3.7931,-3.3078,-3.3937,-0.6383,3.0935,1.3638,
5.671412,-0.1174,-1.4786,0.5558,-3.7931,-3.3078,-3.3937,-0.6383,3.0935,1.3638,
5.672564,0.5567,-1.9147,0.5666,-3.7931,-3.3078,-3.3937,-0.6383,3.0935,1.3638,
5.703237,0.5567,-1.9147,0.5666,-3.7931,-3.3078,-3.3937,0.9564,1.4573,2.2213,
5.705868,0.5567,-1.9147,0.5666,-0.2390,-3.8002,4.3253,0.9564,1.4573,2.2213,
5.743798,0.5567,-1.9147,0.5666,11.7781,-0.5008,-4.0418,0.9564,1.4573,2.2213,
5.746748,0.5567,-1.9147,0.5666,11.7781,-0.5008,-4.0418,2.4776,0.8480,0.3337,
5.748155,1.2974,-1.8314,0.4036,11.7781,-0.5008,-4.0418,2.4776,0.8480,0.3337,
5.749661,1.4452,-0.9763,-0.3051,11.7781,-0.5008,-4.0418,2.4776,0.8480,0.3337,
5.750940,0.9534,-0.3658,-0.8729,11.7781,-0.5008,-4.0418,2.4776,0.8480,0.3337,
5.752132,0.1834,-0.5629,-0.8521,11.7781,-0.5008,-4.0418,2.4776,0.8480,0.3337,
5.782715,0.1834,-0.5629,-0.8521,11.7781,-0.5008,-4.0418,0.4866,1.8504,-0.8338,
5.785475,0.1834,-0.5629,-0.8521,11.3845,-0.5355,-4.1881,0.4866,1.8504,-0.8338,
5.825364,0.1834,-0.5629,-0.8521,11.3845,-0.5355,-4.1881,-0.4519,1.1409,0.3912,
5.828038,0.1834,-0.5629,-0.8521,-0.5560,2.2542,-8.3501,-0.4519,1.1409,0.3912,
5.829363,-0.1811,-0.8236,-0.6823,-0.5560,2.2542,-8.3501,-0.4519,1.1409,0.3912,
5.830625,-0.0336,-0.9326,-0.6027,-0.5560,2.2542,-8.3501,-0.4519,1.1409,0.3912,
5.832211,0.3419,-0.9196,-0.6276,-0.5560,2.2542,-8.3501,-0.4519,1.1409,0.3912,
5.833330,0.6595,-0.8480,-0.8262,-0.5560,2.2542,-8.3501,-0.4519,1.1409,0.3912,
5.861933,0.6595,-0.8480,-0.8262,-0.5560,2.2542,-8.3501,-1.4522,-0.0799,0.7417,
5.864249,0.6595,-0.8480,-0.8262,-0.2627,2.2869,-7.6524,-1.4522,-0.0799,0.7417,
5.901823,0.6595,-0.8480,-0.8262,-0.2627,2.2869,-7.6524,-4.1089,-3.2821,0.5404,
5.904283,0.6595,-0.8480,-0.8262,5.6812,0.8736,-6.8540,-4.1089,-3.2821,0.5404,
5.905936,0.7443,-0.9731,-0.9679,5.6812,0.8736,-6.8540,-4.1089,-3.2821,0.5404,
5.907087,0.7008,-1.1896,-1.1155,5.6812,0.8736,-6.8540,-4.1089,-3.2821,0.5404,
5.908378,0.9627,-1.2915,-0.8606,5.6812,0.8736,-6.8540,-4.1089,-3.2821,0.5404,
5.909703,1.2273,-1.3699,-0.1683,5.6812,0.8736,-6.8540,-4.1089,-3.2821,0.5404,
5.941597,1.2273,-1.3699,-0.1683,5.6812,0.8736,-6.8540,-5.2861,-4.1162,-0.4972,
5.944056,1.2273,-1.3699,-0.1683,9.4110,-3.1325,-3.8704,-5.2861,-4.1162,-0.4972,
5.980700,1.2273,-1.3699,-0.1683,9.4110,-3.1325,-3.8704,-2.4866,-1.7364,-1.6307,
5.983199,1.2273,-1.3699,-0.1683,5.0869,-10.9673,12.1957,-2.4866,-1.7364,-1.6307,
5.985536,0.8601,-1.6352,0.8109,5.0869,-10.9673,12.1957,-2.4866,-1.7364,-1.6307,
5.987073,0.4448,-2.2943,1.0110,5.0869,-10.9673,12.1957,-2.4866,-1.7364,-1.6307,
5.988540,0.3957,-2.2648,0.7330,5.0869,-10.9673,12.1957,-2.4866,-1.7364,-1.6307,
5.990068,0.6414,-1.3198,0.7364,5.0869,-10.9673,12.1957,-2.4866,-1.7364,-1.6307,
6.020030,0.6414,-1.3198,0.7364,5.0615,-10.8382,12.1258,-2.4866,-1.7364,-1.6307,
6.021945,0.6414,-1.3198,0.7364,5.0615,-10.8382,12.1258,-0.1717,-3.9052,-1.5273,
6.061314,0.8398,-0.7589,0.4044,5.0615,-10.8382,12.1258,-0.1717,-3.9052,-1.5273,
6.063521,0.9002,-0.7076,0.1847,5.0615,-10.8382,12.1258,-0.1717,-3.9052,-1.5273,
6.066899,0.5772,-0.7831,0.6541,5.0615,-10.8382,12.1258,-0.1717,-3.9052,-1.5273,
6.068676,0.5772,-0.7831,0.6541,5.0615,-10.8382,12.1258,0.3279,-5.6150,-1.3707,
6.069749,0.5772,-0.7831,0.6541,7.4883,0.3190,7.9302,0.3279,-5.6150,-1.3707,
6.100074,0.5772,-0.7831,0.6541,7.4883,0.3190,7.9302,0.7529,-6.0635,-1.6445,
6.102666,0.5772,-0.7831,0.6541,1.7240,2.6614,12.3880,0.7529,-6.0635,-1.6445,
6.140671,0.5772,-0.7831,0.6541,1.7240,2.6614,12.3880,1.7095,-5.3604,-1.3185,
6.143444,0.5772,-0.7831,0.6541,1.8035,2.8038,11.5518,1.7095,-5.3604,-1.3185,
6.144474,0.1792,-0.7032,1.0261,1.8035,2.8038,11.5518,1.7095,-5.3604,-1.3185,
6.145350,-0.1990,-0.5976,1.1483,1.8035,2.8038,11.5518,1.7095,-5.3604,-1.3185,
6.146908,-0.4347,-0.6436,1.0249,1.8035,2.8038,11.5518,1.7095,-5.3604,-1.3185,
6.148112,-0.5009,-0.9411,0.3887,1.8035,2.8038,11.5518,1.7095,-5.3604,-1.3185,
6.149072,-0.4790,-1.2353,0.0340,1.8035,2.8038,11.5518,1.7095,-5.3604,-1.3185,
6.178990,-0.4790,-1.2353,0.0340,1.8035,2.8038,11.5518,1.0160,-4.5849,-0.7284,
6.180938,-0.4790,-1.2353,0.0340,-4.4599,0.4770,6.5368,1.0160,-4.5849,-0.7284,
6.218846,-0.4790,-1.2353,0.0340,-4.4599,0.4770,6.5368,0.3002,-3.1628,-1.3622,
6.221836,-0.4790,-1.2353,0.0340,-3.7418,-3.5217,2.6552,0.3002,-3.1628,-1.3622,
6.223200,-0.2061,-1.3665,0.0247,-3.7418,-3.5217,2.6552,0.3002,-3.1628,-1.3622,
6.225072,-0.2857,-1.3867,0.1466,-3.7418,-3.5217,2.6552,0.3002,-3.1628,-1.3622,
6.226316,-0.6282,-1.3159,0.1391,-3.7418,-3.5217,2.6552,0.3002,-3.1628,-1.3622,
6.227586,-0.8645,-1.3142,-0.0720,-3.7418,-3.5217,2.6552,0.3002,-3.1628,-1.3622,
6.259196,-0.8645,-1.3142,-0.0720,-3.7418,-3.5217,2.6552,0.2032,-0.0437,-1.1172,
6.261995,-0.8645,-1.3142,-0.0720,-4.1015,-3.4626,2.5297,0.2032,-0.0437,-1.1172,
6.298150,-0.8645,-1.3142,-0.0720,-4.1015,-3.4626,2.5297,-0.3826,2.1646,-0.0189,
6.300984,-0.8645,-1.3142,-0.0720,-7.2594,-2.5240,0.3266,-0.3826,2.1646,-0.0189,
6.302428,-0.8100,-1.3401,-0.2242,-7.2594,-2.5240,0.3266,-0.3826,2.1646,-0.0189,
6.303555,-0.4066,-1.1334,-0.0972,-7.2594,-2.5240,0.3266,-0.3826,2.1646,-0.0189,
6.304976,-0.1941,-0.9186,0.3237,-7.2594,-2.5240,0.3266,-0.3826,2.1646,-0.0189,
6.306058,-0.0807,-0.8730,0.3423,-7.2594,-2.5240,0.3266,-0.3826,2.1646,-0.0189,
6.337944,-0.0807,-0.8730,0.3423,-7.2594,-2.5240,0.3266,0.5654,0.8725,0.4892,
6.340252,-0.0807,-0.8730,0.3423,-7.0031,-2.4415,0.0891,0.5654,0.8725,0.4892,
6.378122,-0.0807,-0.8730,0.3423,-7.0031,-2.4415,0.0891,1.1694,-0.8778,0.8088,
6.380950,-0.0807,-0.8730,0.3423,-0.5544,0.9515,2.8638,1.1694,-0.8778,0.8088,
6.382383,0.0556,-0.9690,-0.0537,-0.5544,0.9515,2.8638,1.1694,-0.8778,0.8088,
6.383692,0.1841,-0.9526,-0.4312,-0.5544,0.9515,2.8638,1.1694,-0.8778,0.8088,
6.384905,0.1961,-0.8165,-0.4075,-0.5544,0.9515,2.8638,1.1694,-0.8778,0.8088,
6.386075,0.2058,-0.7442,-0.1534,-0.5544,0.9515,2.8638,1.1694,-0.8778,0.8088,
6.416582,0.2058,-0.7442,-0.1534,-0.5544,0.9515,2.8638,0.8839,-1.0003,0.5734,
6.418578,0.2058,-0.7442,-0.1534,2.2906,1.7469,-2.6931,0.8839,-1.0003,0.5734,
6.456329,0.0077,-0.8146,0.1276,2.2906,1.7469,-2.6931,0.8839,-1.0003,0.5734,
6.458891,-0.1548,-0.8964,0.1713,2.2906,1.7469,-2.6931,0.8839,-1.0003,0.5734,
6.460104,-0.1162,-0.9924,-0.0974,2.2906,1.7469,-2.6931,0.8839,-1.0003,0.5734,
6.461489,-0.1162,-0.9924,-0.0974,2.2906,1.7469,-2.6931,1.0107,-0.4602,0.4818,
6.462651,-0.1162,-0.9924,-0.0974,-0.2815,1.1119,0.7850,1.0107,-0.4602,0.4818,
6.496948,-0.1162,-0.9924,-0.0974,-0.2815,1.1119,0.7850,0.9724,-0.4453,0.5734,
6.499800,-0.1162,-0.9924,-0.0974,-4.4507,-2.4539,-1.8532,0.9724,-0.4453,0.5734,
6.535426,-0.1162,-0.9924,-0.0974,-4.4507,-2.4539,-1.8532,0.1692,0.3707,1.0687,
6.538147,-0.2952,-1.1573,-0.0547,-4.4507,-2.4539,-1.8532,0.1692,0.3707,1.0687,
6.539499,-0.5808,-1.3217,-0.0977,-4.4507,-2.4539,-1.8532,0.1692,0.3707,1.0687,
6.540851,-0.7553,-1.3230,-0.3425,-4.4507,-2.4539,-1.8532,0.1692,0.3707,1.0687,
6.542410,-0.7220,-1.1830,-0.2272,-4.4507,-2.4539,-1.8532,0.1692,0.3707,1.0687,
6.543555,-0.0507,-1.1586,0.3589,-4.4507,-2.4539,-1.8532,0.1692,0.3707,1.0687,
6.545861,-0.0507,-1.1586,0.3589,-3.9579,-2.4602,-1.8714,0.1692,0.3707,1.0687,
6.575133,-0.0507,-1.1586,0.3589,-3.9579,-2.4602,-1.8714,-0.3528,1.4765,1.3489,
6.578432,-0.0507,-1.1586,0.3589,-3.3619,-2.5037,-1.6080,-0.3528,1.4765,1.3489,
6.614865,-0.0507,-1.1586,0.3589,-3.3619,-2.5037,-1.6080,0.5771,1.5851,0.3401,
6.616859,-0.0507,-1.1586,0.3589,1.4608,-1.3751,2.0399,0.5771,1.5851,0.3401,
6.618469,0.5843,-1.1136,0.5302,1.4608,-1.3751,2.0399,0.5771,1.5851,0.3401,
6.619322,0.6795,-0.7689,0.2920,1.4608,-1.3751,2.0399,0.5771,1.5851,0.3401,
6.620064,0.5958,-0.6035,0.2207,1.4608,-1.3751,2.0399,0.5771,1.5851,0.3401,
6.620760,0.4504,-0.7554,0.2111,1.4608,-1.3751,2.0399,0.5771,1.5851,0.3401,
6.654954,0.4504,-0.7554,0.2111,7.5353,2.9074,1.7807,0.5771,1.5851,0.3401,
6.657349,0.4504,-0.7554,0.2111,7.5353,2.9074,1.7807,1.2823,0.8820,-0.1542,
6.696186,0.4504,-0.7554,0.2111,7.5353,2.9074,1.7807,1.0160,0.1044,0.0418,
6.699932,0.4504,-0.7554,0.2111,2.6699,-0.2511,-4.8368,1.0160,0.1044,0.0418,
6.701740,0.2611,-0.8810,-0.0442,2.6699,-0.2511,-4.8368,1.0160,0.1044,0.0418,
6.703139,0.0285,-0.9973,-0.4224,2.6699,-0.2511,-4.8368,1.0160,0.1044,0.0418,
6.704505,-0.0451,-1.2072,-0.7417,2.6699,-0.2511,-4.8368,1.0160,0.1044,0.0418,
6.705759,0.1748,-1.4647,-0.8802,2.6699,-0.2511,-4.8368,1.0160,0.1044,0.0418,
6.734833,0.1748,-1.4647,-0.8802,2.8055,-0.2686,-4.5797,1.0160,0.1044,0.0418,
6.737468,0.1748,-1.4647,-0.8802,2.8055,-0.2686,-4.5797,-0.5531,-0.4570,0.5095,
6.773163,0.1748,-1.4647,-0.8802,2.8055,-0.2686,-4.5797,-3.1449,-0.9960,0.3252,
6.776077,0.1748,-1.4647,-0.8802,4.7678,-4.7611,-9.7960,-3.1449,-0.9960,0.3252,
6.777433,0.3444,-1.5555,-1.2120,4.7678,-4.7611,-9.7960,-3.1449,-0.9960,0.3252,
6.778876,0.3131,-1.4595,-1.1130,4.7678,-4.7611,-9.7960,-3.1449,-0.9960,0.3252,
6.780127,0.4619,-1.3924,-0.4888,4.7678,-4.7611,-9.7960,-3.1449,-0.9960,0.3252,
6.781306,0.5173,-1.2871,-0.3268,4.7678,-4.7611,-9.7960,-3.1449,-0.9960,0.3252,
6.813212,0.5173,-1.2871,-0.3268,4.7678,-4.7611,-9.7960,-4.3391,-0.1672,-0.7412,
6.815327,0.5173,-1.2871,-0.3268,4.4111,-4.8814,-7.9902,-4.3391,-0.1672,-0.7412,
6.852297,0.5173,-1.2871,-0.3268,4.4111,-4.8814,-7.9902,-3.8650,0.8341,-1.4879,
6.854506,0.5173,-1.2871,-0.3268,4.6958,-2.9590,-0.8283,-3.8650,0.8341,-1.4879,
6.857106,0.1711,-1.1002,-0.6630,4.6958,-2.9590,-0.8283,-3.8650,0.8341,-1.4879,
6.858561,0.1814,-0.9541,0.0162,4.6958,-2.9590,-0.8283,-3.8650,0.8341,-1.4879,
6.859575,0.5093,-0.9167,0.7469,4.6958,-2.9590,-0.8283,-3.8650,0.8341,-1.4879,
6.860810,0.7985,-1.0745,0.4132,4.6958,-2.9590,-0.8283,-3.8650,0.8341,-1.4879,
6.891966,0.7985,-1.0745,0.4132,4.6958,-2.9590,-0.8283,-1.6418,-0.6637,-1.9545,
6.894016,0.7985,-1.0745,0.4132,5.1177,-0.4581,8.2936,-1.6418,-0.6637,-1.9545,
6.931940,0.7985,-1.0745,0.4132,5.1177,-0.4581,8.2936,-1.3233,-1.0109,-3.0954,
6.933971,0.7985,-1.0745,0.4132,5.6051,-6.6448,3.0177,-1.3233,-1.0109,-3.0954,
6.937419,1.0849,-1.4576,-0.3948,5.6051,-6.6448,3.0177,-1.3233,-1.0109,-3.0954,
6.939575,0.7396,-1.6843,-0.4055,5.6051,-6.6448,3.0177,-1.3233,-1.0109,-3.0954,
6.941639,0.1240,-1.6486,0.2294,5.6051,-6.6448,3.0177,-1.3233,-1.0109,-3.0954,
6.943073,-0.1780,-1.3415,0.2456,5.6051,-6.6448,3.0177,-1.3233,-1.0109,-3.0954,
6.971827,-0.1780,-1.3415,0.2456,5.6051,-6.6448,3.0177,0.1404,-0.6051,-3.3010,
6.974133,-0.1780,-1.3415,0.2456,4.4796,-6.6719,2.9479,0.1404,-0.6051,-3.3010,
7.011582,-0.1780,-1.3415,0.2456,4.4796,-6.6719,2.9479,1.2632,-0.7787,-2.1260,
7.014468,-0.1780,-1.3415,0.2456,-4.9729,0.0830,5.3985,1.2632,-0.7787,-2.1260,
7.015876,-0.2842,-0.9018,0.0870,-4.9729,0.0830,5.3985,1.2632,-0.7787,-2.1260,
7.017014,-0.3211,-0.4931,-0.0088,-4.9729,0.0830,5.3985,1.2632,-0.7787,-2.1260,
7.018157,-0.3412,-0.2080,0.0931,-4.9729,0.0830,5.3985,1.2632,-0.7787,-2.1260,
7.019449,-0.5571,-0.0545,0.0902,-4.9729,0.0830,5.3985,1.2632,-0.7787,-2.1260,
7.050781,-0.5571,-0.0545,0.0902,-4.9729,0.0830,5.3985,1.7543,0.7255,-0.7167,
7.053579,-0.5571,-0.0545,0.0902,-5.2537,0.2835,4.6091,1.7543,0.7255,-0.7167,
7.091339,-0.5571,-0.0545,0.0902,-5.2537,0.2835,4.6091,1.0672,1.6490,0.6927,
7.093618,-0.5571,-0.0545,0.0902,-7.9193,8.0189,3.1484,1.0672,1.6490,0.6927,
7.095102,-0.7562,-0.1295,-0.1155,-7.9193,8.0189,3.1484,1.0672,1.6490,0.6927,
7.096295,-0.7184,-0.4036,-0.5037,-7.9193,8.0189,3.1484,1.0672,1.6490,0.6927,
7.097385,-0.6021,-0.7713,-0.9435,-7.9193,8.0189,3.1484,1.0672,1.6490,0.6927,
7.098857,-0.2430,-0.9431,-0.1881,-7.9193,8.0189,3.1484,1.0672,1.6490,0.6927,
7.130166,-0.2430,-0.9431,-0.1881,-7.3173,2.5232,-2.8525,1.0672,1.6490,0.6927,
7.133521,-0.2430,-0.9431,-0.1881,-7.3173,2.5232,-2.8525,0.9393,1.4094,0.8866,
7.170009,0.3522,-1.1077,0.0259,-7.3173,2.5232,-2.8525,0.9393,1.4094,0.8866,
7.172694,0.2334,-1.8922,-0.5619,-7.3173,2.5232,-2.8525,0.9393,1.4094,0.8866,
7.173767,-0.4592,-2.9828,-0.5580,-7.3173,2.5232,-2.8525,0.9393,1.4094,0.8866,
7.175042,-0.4592,-2.9828,-0.5580,-7.3173,2.5232,-2.8525,0.2746,1.6405,0.6011,
7.176723,-0.4592,-2.9828,-0.5580,-1.6949,-9.8567,-1.3055,0.2746,1.6405,0.6011,
7.209632,-0.4592,-2.9828,-0.5580,-1.6949,-9.8567,-1.3055,-0.9409,1.2975,0.5212,
7.212414,-0.4592,-2.9828,-0.5580,-4.5223,-3.1527,5.3354,-0.9409,1.2975,0.5212,
7.249870,-0.4592,-2.9828,-0.5580,-4.5223,-3.1527,5.3354,0.0520,2.8922,0.4370,
7.252481,-0.4592,-2.9828,-0.5580,-4.5452,-3.0624,5.0021,0.0520,2.8922,0.4370,
7.253805,-0.3280,-2.3583,-0.3139,-4.5452,-3.0624,5.0021,0.0520,2.8922,0.4370,
7.255673,-0.1611,-0.8209,0.5900,-4.5452,-3.0624,5.0021,0.0520,2.8922,0.4370,
7.256663,-0.2977,-0.7535,0.6128,-4.5452,-3.0624,5.0021,0.0520,2.8922,0.4370,
7.257918,-0.1584,-1.3393,0.1874,-4.5452,-3.0624,5.0021,0.0520,2.8922,0.4370,
7.259149,0.4001,-1.6386,0.3086,-4.5452,-3.0624,5.0021,0.0520,2.8922,0.4370,
7.288940,0.4001,-1.6386,0.3086,-4.5452,-3.0624,5.0021,-0.0215,2.4757,1.0272,
7.291523,0.4001,-1.6386,0.3086,-4.2698,-2.9375,4.7437,-0.0215,2.4757,1.0272,
7.329854,0.4001,-1.6386,0.3086,-4.2698,-2.9375,4.7437,-0.2122,2.7910,0.2921,
7.332830,0.4001,-1.6386,0.3086,1.6407,-4.8591,3.9439,-0.2122,2.7910,0.2921,
7.334643,0.8146,-1.5697,0.2011,1.6407,-4.8591,3.9439,-0.2122,2.7910,0.2921,
7.338327,0.5200,-1.2345,-0.0305,1.6407,-4.8591,3.9439,-0.2122,2.7910,0.2921,
7.339327,-0.0265,-0.9643,-0.0874,1.6407,-4.8591,3.9439,-0.2122,2.7910,0.2921,
7.340149,-0.4746,-0.8028,-0.1893,1.6407,-4.8591,3.9439,-0.2122,2.7910,0.2921,
7.368400,-0.4746,-0.8028,-0.1893,1.6407,-4.8591,3.9439,-0.7928,4.9833,-0.0764,
7.370485,-0.4746,-0.8028,-0.1893,-2.0643,0.1314,0.5762,-0.7928,4.9833,-0.0764,
7.408324,-0.4746,-0.8028,-0.1893,-2.0643,0.1314,0.5762,-1.8559,5.2262,0.4775,
7.410482,-0.4746,-0.8028,-0.1893,-7.2101,5.8632,0.4834,-1.8559,5.2262,0.4775,
7.411583,-0.7426,-0.5925,-0.2802,-7.2101,5.8632,0.4834,-1.8559,5.2262,0.4775,
7.412553,-0.6404,-0.3355,-0.1917,-7.2101,5.8632,0.4834,-1.8559,5.2262,0.4775,
7.413249,-0.1611,-0.2634,0.0567,-7.2101,5.8632,0.4834,-1.8559,5.2262,0.4775,
7.414062,0.2689,-0.4596,0.0352,-7.2101,5.8632,0.4834,-1.8559,5.2262,0.4775,
7.446514,0.2689,-0.4596,0.0352,-7.2101,5.8632,0.4834,-2.5036,4.0288,0.4338,
7.448792,0.2689,-0.4596,0.0352,-7.2558,5.5960,1.0665,-2.5036,4.0288,0.4338,
7.486774,0.2689,-0.4596,0.0352,-7.2558,5.5960,1.0665,-2.9862,3.4451,1.0730,
7.488615,0.2689,-0.4596,0.0352,2.1704,0.7980,0.7518,-2.9862,3.4451,1.0730,
7.489536,0.4814,-0.8703,-0.2699,2.1704,0.7980,0.7518,-2.9862,3.4451,1.0730,
7.490440,0.5975,-1.2529,-0.5198,2.1704,0.7980,0.7518,-2.9862,3.4451,1.0730,
7.491392,0.7885,-1.4498,-0.6427,2.1704,0.7980,0.7518,-2.9862,3.4451,1.0730,
7.492305,0.7433,-1.3396,-0.6173,2.1704,0.7980,0.7518,-2.9862,3.4451,1.0730,
7.526743,0.7433,-1.3396,-0.6173,2.1704,0.7980,0.7518,-3.0288,1.4946,2.6091,
7.529582,0.7433,-1.3396,-0.6173,2.8516,0.5416,1.6987,-3.0288,1.4946,2.6091,
7.566814,0.7433,-1.3396,-0.6173,2.8516,0.5416,1.6987,-1.3041,-0.8874,1.7771,
7.571157,0.7433,-1.3396,-0.6173,6.7020,-3.6322,-0.9944,-1.3041,-0.8874,1.7771,
7.572452,0.7885,-1.0462,-0.4756,6.7020,-3.6322,-0.9944,-1.3041,-0.8874,1.7771,
7.573425,0.6612,-0.9069,-0.8086,6.7020,-3.6322,-0.9944,-1.3041,-0.8874,1.7771,
7.574885,0.8051,-0.8686,-0.6342,6.7020,-3.6322,-0.9944,-1.3041,-0.8874,1.7771,
7.576197,0.9180,-0.7357,-0.7395,6.7020,-3.6322,-0.9944,-1.3041,-0.8874,1.7771,
7.606012,0.9180,-0.7357,-0.7395,6.7020,-3.6322,-0.9944,-0.5563,-0.3047,0.8780,
7.608589,0.9180,-0.7357,-0.7395,7.1554,0.6026,-2.2120,-0.5563,-0.3047,0.8780,
7.646097,0.9180,-0.7357,-0.7395,7.1554,0.6026,-2.2120,0.0285,-1.7353,0.9760,
7.648516,0.9180,-0.7357,-0.7395,1.9877,0.9318,-0.3749,0.0285,-1.7353,0.9760,
7.649679,0.4709,-0.8422,-0.9014,1.9877,0.9318,-0.3749,0.0285,-1.7353,0.9760,
7.650840,0.0744,-0.8551,-0.4072,1.9877,0.9318,-0.3749,0.0285,-1.7353,0.9760,
7.652048,0.0590,-0.7137,-0.3158,1.9877,0.9318,-0.3749,0.0285,-1.7353,0.9760,
7.653497,-0.0932,-0.6306,-0.3823,1.9877,0.9318,-0.3749,0.0285,-1.7353,0.9760,
7.685316,-0.0932,-0.6306,-0.3823,1.9877,0.9318,-0.3749,0.8562,-2.1774,1.2125,
7.688182,-0.0932,-0.6306,-0.3823,2.7796,1.0547,-0.7017,0.8562,-2.1774,1.2125,
7.725863,-0.0932,-0.6306,-0.3823,2.7796,1.0547,-0.7017,1.5636,-2.1145,0.9718,
7.728617,-0.0932,-0.6306,-0.3823,1.5790,4.1647,1.5738,1.5636,-2.1145,0.9718,
7.729917,-0.0575,-0.4994,-0.2189,1.5790,4.1647,1.5738,1.5636,-2.1145,0.9718,
7.731261,0.1787,-0.3748,-0.1170,1.5790,4.1647,1.5738,1.5636,-2.1145,0.9718,
7.732598,0.2835,-0.3413,-0.0781,1.5790,4.1647,1.5738,1.5636,-2.1145,0.9718,
7.733772,0.0585,-0.3944,-0.2655,1.5790,4.1647,1.5738,1.5636,-2.1145,0.9718,
7.763990,0.0585,-0.3944,-0.2655,1.5790,4.1647,1.5738,1.9567,-1.7598,0.2474,
7.766492,0.0585,-0.3944,-0.2655,1.8831,4.3471,0.7298,1.9567,-1.7598,0.2474,
7.806614,0.0585,-0.3944,-0.2655,1.8831,4.3471,0.7298,-0.0141,-2.1880,0.7215,
7.809020,0.0585,-0.3944,-0.2655,2.4661,4.7702,-1.3109,-0.0141,-2.1880,0.7215,
7.810330,-0.2816,-0.5966,-0.9532,2.4661,4.7702,-1.3109,-0.0141,-2.1880,0.7215,
7.811534,-0.4018,-1.0293,-1.3935,2.4661,4.7702,-1.3109,-0.0141,-2.1880,0.7215,
7.812690,0.0031,-1.5973,-0.3158,2.4661,4.7702,-1.3109,-0.0141,-2.1880,0.7215,
7.813812,0.1636,-1.5411,0.0706,2.4661,4.7702,-1.3109,-0.0141,-2.1880,0.7215,
7.843865,0.1636,-1.5411,0.0706,2.4661,4.7702,-1.3109,-0.0876,-3.3982,-0.1563,
7.846599,0.1636,-1.5411,0.0706,1.7879,-4.4109,-2.6811,-0.0876,-3.3982,-0.1563,
7.864957,-0.0363,-1.1412,-0.9498,1.7879,-4.4109,-2.6811,-0.0876,-3.3982,-0.1563,
7.868460,0.9886,-0.9866,-0.3474,1.7879,-4.4109,-2.6811,-0.0876,-3.3982,-0.1563,
7.869936,1.7254,-0.9184,0.0318,1.7879,-4.4109,-2.6811,-0.0876,-3.3982,-0.1563,
7.883768,1.7254,-0.9184,0.0318,1.7879,-4.4109,-2.6811,0.2288,-1.5233,-0.5452,
7.886190,1.7254,-0.9184,0.0318,11.0711,-0.6577,-1.6720,0.2288,-1.5233,-0.5452,
7.923148,1.7254,-0.9184,0.0318,11.0711,-0.6577,-1.6720,0.9745,-1.4179,-1.3590,
7.925698,1.7254,-0.9184,0.0318,2.5428,-4.0961,3.0806,0.9745,-1.4179,-1.3590,
7.953925,0.3996,-1.2560,0.4220,2.5428,-4.0961,3.0806,0.9745,-1.4179,-1.3590,
7.956485,-0.3544,-1.6301,0.0218,2.5428,-4.0961,3.0806,0.9745,-1.4179,-1.3590,
7.957989,0.1514,-1.2954,-0.0899,2.5428,-4.0961,3.0806,0.9745,-1.4179,-1.3590,
7.959228,0.3368,-1.1928,-0.1619,2.5428,-4.0961,3.0806,0.9745,-1.4179,-1.3590,
7.961944,0.3368,-1.1928,-0.1619,2.5428,-4.0961,3.0806,2.1676,-2.2669,-0.9254,
7.963453,0.3368,-1.1928,-0.1619,2.2795,-3.8428,2.0556,2.1676,-2.2669,-0.9254,
8.002377,0.3368,-1.1928,-0.1619,2.2795,-3.8428,2.0556,2.0142,-1.3316,-0.5803,
8.004664,0.3368,-1.1928,-0.1619,3.4316,-2.5259,-2.5992,2.0142,-1.3316,-0.5803,
8.040957,0.2256,-1.2521,-0.2899,3.4316,-2.5259,-2.5992,2.0142,-1.3316,-0.5803,
8.043748,0.0659,-1.3687,-0.3669,3.4316,-2.5259,-2.5992,2.0142,-1.3316,-0.5803,
8.045182,-0.1103,-1.4038,-0.5682,3.4316,-2.5259,-2.5992,2.0142,-1.3316,-0.5803,
8.046445,-0.2447,-0.9954,-0.7654,3.4316,-2.5259,-2.5992,2.0142,-1.3316,-0.5803,
8.048177,-0.2447,-0.9954,-0.7654,3.4316,-2.5259,-2.5992,0.8957,-3.2139,0.0130,
8.049452,-0.2447,-0.9954,-0.7654,3.3493,-2.4900,-3.0718,0.8957,-3.2139,0.0130,
8.080964,-0.2447,-0.9954,-0.7654,3.3493,-2.4900,-3.0718,-1.5683,-3.6134,0.9345,
8.082800,-0.2447,-0.9954,-0.7654,-0.3958,0.2542,-7.1476,-1.5683,-3.6134,0.9345,
8.121786,-0.2447,-0.9954,-0.7654,-0.3958,0.2542,-7.1476,-3.7105,-1.4402,0.6288,
8.123734,-0.2447,-0.9954,-0.7654,-0.1156,0.0910,-5.7011,-3.7105,-1.4402,0.6288,
8.125299,-0.2667,-0.5605,-0.8966,-0.1156,0.0910,-5.7011,-3.7105,-1.4402,0.6288,
8.126212,-0.0680,-0.5080,-0.7431,-0.1156,0.0910,-5.7011,-3.7105,-1.4402,0.6288,
8.127104,0.0302,-0.6030,-0.3510,-0.1156,0.0910,-5.7011,-3.7105,-1.4402,0.6288,
8.128176,-0.1670,-0.8092,0.2280,-0.1156,0.0910,-5.7011,-3.7105,-1.4402,0.6288,
8.129006,-0.1296,-0.8163,0.7254,-0.1156,0.0910,-5.7011,-3.7105,-1.4402,0.6288,
8.160882,-0.1296,-0.8163,0.7254,-0.1156,0.0910,-5.7011,-3.0533,-1.3571,0.1846,
8.163169,-0.1296,-0.8163,0.7254,1.4075,3.1624,-0.1850,-3.0533,-1.3571,0.1846,
8.200260,-0.1296,-0.8163,0.7254,1.4075,3.1624,-0.1850,-0.9856,-0.5880,-0.4578,
8.202822,-0.1296,-0.8163,0.7254,3.8330,-0.7365,9.4702,-0.9856,-0.5880,-0.4578,
8.204113,0.2997,-0.8121,0.9137,3.8330,-0.7365,9.4702,-0.9856,-0.5880,-0.4578,
8.205745,0.4194,-1.4669,0.4019,3.8330,-0.7365,9.4702,-0.9856,-0.5880,-0.4578,
8.206849,0.3141,-2.1311,-0.3305,3.8330,-0.7365,9.4702,-0.9856,-0.5880,-0.4578,
8.208053,0.3700,-1.8519,-1.0901,3.8330,-0.7365,9.4702,-0.9856,-0.5880,-0.4578,
8.240495,0.3700,-1.8519,-1.0901,3.8330,-0.7365,9.4702,-1.5651,1.0909,-1.8714,
8.242886,0.3700,-1.8519,-1.0901,2.9533,-0.8049,9.9433,-1.5651,1.0909,-1.8714,
8.280632,0.3700,-1.8519,-1.0901,2.9533,-0.8049,9.9433,-0.6394,1.5979,-2.5031,
8.283310,0.3700,-1.8519,-1.0901,2.9739,-7.4723,-2.5864,-0.6394,1.5979,-2.5031,
8.284745,0.2760,-1.1796,-0.4683,2.9739,-7.4723,-2.5864,-0.6394,1.5979,-2.5031,
8.285938,0.3358,-1.0892,0.3572,2.9739,-7.4723,-2.5864,-0.6394,1.5979,-2.5031,
8.287070,0.1460,-1.4332,0.0706,2.9739,-7.4723,-2.5864,-0.6394,1.5979,-2.5031,
8.288121,0.1125,-1.4388,-0.4595,2.9739,-7.4723,-2.5864,-0.6394,1.5979,-2.5031,
8.319553,0.1125,-1.4388,-0.4595,2.9739,-7.4723,-2.5864,0.5825,-0.7180,-1.5849,
8.322050,0.1125,-1.4388,-0.4595,1.2659,-3.4363,3.2256,0.5825,-0.7180,-1.5849,
8.358863,0.1125,-1.4388,-0.4595,1.2659,-3.4363,3.2256,0.2650,-0.0564,-0.7880,
8.361717,0.1125,-1.4388,-0.4595,-4.1574,3.6739,5.2917,0.2650,-0.0564,-0.7880,
8.363165,-0.0272,-1.0501,-0.2272,-4.1574,3.6739,5.2917,0.2650,-0.0564,-0.7880,
8.363999,-0.4054,-0.5497,0.3900,-4.1574,3.6739,5.2917,0.2650,-0.0564,-0.7880,
8.365445,-0.5662,-0.1684,0.4957,-4.1574,3.6739,5.2917,0.2650,-0.0564,-0.7880,
8.366661,-0.5835,0.0041,0.5341,-4.1574,3.6739,5.2917,0.2650,-0.0564,-0.7880,
8.398474,-0.5835,0.0041,0.5341,-4.1574,3.6739,5.2917,1.2131,3.2704,-0.3694,
8.401294,-0.5835,0.0041,0.5341,-4.5855,3.7314,4.6040,1.2131,3.2704,-0.3694,
8.438662,-0.5835,0.0041,0.5341,-4.5855,3.7314,4.6040,1.9045,0.3846,-0.3566,
8.441369,-0.5835,0.0041,0.5341,-6.9594,10.1116,3.1024,1.9045,0.3846,-0.3566,
8.442699,-0.4873,0.1184,0.3667,-6.9594,10.1116,3.1024,1.9045,0.3846,-0.3566,
8.443692,-0.6375,0.0732,-0.4583,-6.9594,10.1116,3.1024,1.9045,0.3846,-0.3566,
8.445031,-1.0008,-0.4173,-1.1504,-6.9594,10.1116,3.1024,1.9045,0.3846,-0.3566,
8.446317,-0.3509,-1.2624,-0.3676,-6.9594,10.1116,3.1024,1.9045,0.3846,-0.3566,
8.478192,-0.3509,-1.2624,-0.3676,-6.4101,10.0159,2.9315,1.9045,0.3846,-0.3566,
8.480718,-0.3509,-1.2624,-0.3676,-6.4101,10.0159,2.9315,0.2373,0.6818,1.2786,
8.517608,-0.3509,-1.2624,-0.3676,-6.4101,10.0159,2.9315,-0.4412,3.0264,0.9207,
8.520579,-0.3509,-1.2624,-0.3676,-4.0427,-2.6302,-3.4888,-0.4412,3.0264,0.9207,
8.521975,0.2979,-2.0095,-0.0469,-4.0427,-2.6302,-3.4888,-0.4412,3.0264,0.9207,
8.523084,0.2847,-2.8088,-0.0459,-4.0427,-2.6302,-3.4888,-0.4412,3.0264,0.9207,
8.524334,-0.0820,-2.4373,0.2939,-4.0427,-2.6302,-3.4888,-0.4412,3.0264,0.9207,
8.526689,-0.4159,-0.9839,0.3951,-4.0427,-2.6302,-3.4888,-0.4412,3.0264,0.9207,
8.558658,-0.4159,-0.9839,0.3951,-4.0427,-2.6302,-3.4888,-0.1739,3.3141,-0.2224,
8.560266,-0.4159,-0.9839,0.3951,-1.5657,-10.7662,3.6337,-0.1739,3.3141,-0.2224,
8.596885,-0.4159,-0.9839,0.3951,-1.5657,-10.7662,3.6337,-0.2207,4.0800,1.3084,
8.599616,-0.4159,-0.9839,0.3951,-2.8185,1.0482,0.9774,-0.2207,4.0800,1.3084,
8.600668,-0.5515,-0.4034,0.1581,-2.8185,1.0482,0.9774,-0.2207,4.0800,1.3084,
8.601791,-0.2561,-0.8600,-0.1434,-2.8185,1.0482,0.9774,-0.2207,4.0800,1.3084,
8.602980,0.1186,-1.3525,-0.1666,-2.8185,1.0482,0.9774,-0.2207,4.0800,1.3084,
8.603726,0.5633,-1.1898,0.3184,-2.8185,1.0482,0.9774,-0.2207,4.0800,1.3084,
8.636119,0.5633,-1.1898,0.3184,-2.8185,1.0482,0.9774,-0.0961,3.6113,0.9185,
8.637883,0.5633,-1.1898,0.3184,-2.6332,1.0429,0.9282,-0.0961,3.6113,0.9185,
8.676058,0.6954,-0.8910,0.4723,-2.6332,1.0429,0.9282,-0.0961,3.6113,0.9185,
8.678846,0.4931,-0.8187,0.2695,-2.6332,1.0429,0.9282,-0.0961,3.6113,0.9185,
8.680119,0.3263,-0.9582,0.1928,-2.6332,1.0429,0.9282,-0.0961,3.6113,0.9185,
8.681548,0.3263,-0.9582,0.1928,-2.6332,1.0429,0.9282,0.9361,4.4177,-0.1659,
8.682889,0.3263,-0.9582,0.1928,4.9765,0.1540,4.3700,0.9361,4.4177,-0.1659,
8.715726,0.3263,-0.9582,0.1928,4.9765,0.1540,4.3700,1.4720,4.1737,-0.1425,
8.718390,0.3263,-0.9582,0.1928,1.7198,-1.2088,-1.0388,1.4720,4.1737,-0.1425,
8.755119,0.3263,-0.9582,0.1928,1.7198,-1.2088,-1.0388,0.2235,2.4757,0.3262,
8.757342,0.3263,-0.9582,0.1928,1.8044,-1.1761,-1.1917,0.2235,2.4757,0.3262,
8.758740,0.2342,-1.1192,-0.0439,1.8044,-1.1761,-1.1917,0.2235,2.4757,0.3262,
8.759974,0.2493,-1.2541,-0.5355,1.8044,-1.1761,-1.1917,0.2235,2.4757,0.3262,
8.761118,0.4506,-1.3665,-0.9261,1.8044,-1.1761,-1.1917,0.2235,2.4757,0.3262,
8.762238,0.6048,-1.1710,-0.8907,1.8044,-1.1761,-1.1917,0.2235,2.4757,0.3262,
8.763442,0.4150,-0.7476,-0.3151,1.8044,-1.1761,-1.1917,0.2235,2.4757,0.3262,
8.795307,0.4150,-0.7476,-0.3151,1.8044,-1.1761,-1.1917,-0.8673,0.1204,0.3092,
8.798167,0.4150,-0.7476,-0.3151,4.0149,-1.0057,-6.4547,-0.8673,0.1204,0.3092,
8.834693,0.4150,-0.7476,-0.3151,4.0149,-1.0057,-6.4547,-0.1984,-1.1739,0.4168,
8.839317,0.4150,-0.7476,-0.3151,3.7910,1.9539,1.4453,-0.1984,-1.1739,0.4168,
8.840853,0.3590,-0.6108,0.0912,3.7910,1.9539,1.4453,-0.1984,-1.1739,0.4168,
8.842082,0.4672,-0.7606,0.0983,3.7910,1.9539,1.4453,-0.1984,-1.1739,0.4168,
8.843315,0.5376,-0.9998,0.0714,3.7910,1.9539,1.4453,-0.1984,-1.1739,0.4168,
8.844685,0.5379,-1.1551,0.0953,3.7910,1.9539,1.4453,-0.1984,-1.1739,0.4168,
8.874830,0.5379,-1.1551,0.0953,3.7910,1.9539,1.4453,0.5228,-1.2847,-0.0988,
8.877435,0.5379,-1.1551,0.0953,3.7170,1.9292,1.2561,0.5228,-1.2847,-0.0988,
8.915007,0.5379,-1.1551,0.0953,3.7170,1.9292,1.2561,0.6656,-0.8234,-0.5153,
8.917612,0.5379,-1.1551,0.0953,2.1012,-0.8438,0.1760,0.6656,-0.8234,-0.5153,
8.919310,0.3329,-1.1046,0.0074,2.1012,-0.8438,0.1760,0.6656,-0.8234,-0.5153,
8.920630,0.0668,-0.9619,-0.1016,2.1012,-0.8438,0.1760,0.6656,-0.8234,-0.5153,
8.921821,-0.0969,-0.9001,-0.1588,2.1012,-0.8438,0.1760,0.6656,-0.8234,-0.5153,
8.923099,-0.2002,-0.9155,-0.1446,2.1012,-0.8438,0.1760,0.6656,-0.8234,-0.5153,
8.953343,-0.2002,-0.9155,-0.1446,2.1012,-0.8438,0.1760,0.1969,-0.7212,-0.1201,
8.956210,-0.2002,-0.9155,-0.1446,2.0247,-0.8333,0.1268,0.1969,-0.7212,-0.1201,
8.994246,-0.2002,-0.9155,-0.1446,-2.4777,0.7016,-1.0642,0.1969,-0.7212,-0.1201,
8.996901,-0.2002,-0.9155,-0.1446,-2.4777,0.7016,-1.0642,-0.1994,-1.0525,0.3774,
8.998542,-0.2031,-0.9365,-0.1016,-2.4777,0.7016,-1.0642,-0.1994,-1.0525,0.3774,
8.999582,-0.0512,-0.9304,-0.0808,-2.4777,0.7016,-1.0642,-0.1994,-1.0525,0.3774,
9.000813,0.1066,-0.9419,-0.0630,-2.4777,0.7016,-1.0642,-0.1994,-1.0525,0.3774,
9.002023,0.1922,-0.9831,-0.1026,-2.4777,0.7016,-1.0642,-0.1994,-1.0525,0.3774,
9.032705,0.1922,-0.9831,-0.1026,-2.4777,0.7016,-1.0642,-0.4199,-1.3017,0.3838,
9.036424,0.1922,-0.9831,-0.1026,0.1287,0.3635,-0.3400,-0.4199,-1.3017,0.3838,
9.072059,0.1922,-0.9831,-0.1026,0.1287,0.3635,-0.3400,-0.5083,-0.9843,-0.0179,
9.075413,0.1922,-0.9831,-0.1026,1.3752,-0.5915,1.2194,-0.5083,-0.9843,-0.0179,
9.078341,0.2466,-1.0457,-0.0789,1.3752,-0.5915,1.2194,-0.5083,-0.9843,-0.0179,
9.093706,0.2396,-1.0789,0.0768,1.3752,-0.5915,1.2194,-0.5083,-0.9843,-0.0179,
9.100291,0.1455,-1.0225,0.1718,1.3752,-0.5915,1.2194,-0.5083,-0.9843,-0.0179,
9.106253,0.0280,-0.9822,0.1430,1.3752,-0.5915,1.2194,-0.5083,-0.9843,-0.0179,
9.112415,0.0280,-0.9822,0.1430,1.3752,-0.5915,1.2194,-0.1121,0.0693,-0.4354,
9.114042,0.0280,-0.9822,0.1430,1.1859,-0.5977,1.2387,-0.1121,0.0693,-0.4354,
9.151695,0.0280,-0.9822,0.1430,1.1859,-0.5977,1.2387,0.2341,0.6690,-0.4684,
9.153766,0.0280,-0.9822,0.1430,-1.8371,0.5711,1.5695,0.2341,0.6690,-0.4684,
9.154884,-0.0548,-0.9230,0.1102,-1.8371,0.5711,1.5695,0.2341,0.6690,-0.4684,
9.155611,-0.2163,-0.8774,0.0614,-1.8371,0.5711,1.5695,0.2341,0.6690,-0.4684,
9.156441,-0.4088,-0.8739,-0.1260,-1.8371,0.5711,1.5695,0.2341,0.6690,-0.4684,
9.157350,-0.3847,-0.8932,-0.4414,-1.8371,0.5711,1.5695,0.2341,0.6690,-0.4684,
9.190803,-0.3847,-0.8932,-0.4414,-1.8371,0.5711,1.5695,0.0126,0.4836,-0.0115,
9.192876,-0.3847,-0.8932,-0.4414,-1.8206,0.5614,1.5185,0.0126,0.4836,-0.0115,
9.230752,-0.3847,-0.8932,-0.4414,-1.8206,0.5614,1.5185,-0.7491,0.9247,-0.1627,
9.233669,-0.3847,-0.8932,-0.4414,-4.2854,0.8609,-3.1326,-0.7491,0.9247,-0.1627,
9.235190,-0.2007,-0.9116,-0.6337,-4.2854,0.8609,-3.1326,-0.7491,0.9247,-0.1627,
9.236473,-0.0810,-0.9296,-0.4827,-4.2854,0.8609,-3.1326,-0.7491,0.9247,-0.1627,
9.238024,-0.0092,-0.9572,-0.3464,-4.2854,0.8609,-3.1326,-0.7491,0.9247,-0.1627,
9.239557,0.0180,-0.9675,-0.1947,-4.2854,0.8609,-3.1326,-0.7491,0.9247,-0.1627,
9.270131,0.0180,-0.9675,-0.1947,-4.2854,0.8609,-3.1326,-0.6916,1.5201,-0.4514,
9.274038,0.0180,-0.9675,-0.1947,-1.4743,0.2380,-2.3200,-0.6916,1.5201,-0.4514,
9.310471,0.0180,-0.9675,-0.1947,-1.4743,0.2380,-2.3200,-0.2239,1.6107,-0.1254,
9.313206,0.0180,-0.9675,-0.1947,-0.9292,0.5200,1.8283,-0.2239,1.6107,-0.1254,
9.314068,-0.0436,-0.9367,0.0870,-0.9292,0.5200,1.8283,-0.2239,1.6107,-0.1254,
9.314962,-0.0512,-0.9113,0.1361,-0.9292,0.5200,1.8283,-0.2239,1.6107,-0.1254,
9.315750,0.2195,-0.9125,0.0320,-0.9292,0.5200,1.8283,-0.2239,1.6107,-0.1254,
9.316544,0.3595,-1.0305,0.0660,-0.9292,0.5200,1.8283,-0.2239,1.6107,-0.1254,
9.349424,0.3595,-1.0305,0.0660,-0.9292,0.5200,1.8283,0.1958,2.2009,-0.3651,
9.351622,0.3595,-1.0305,0.0660,-1.1273,0.4974,1.6014,0.1958,2.2009,-0.3651,
9.388804,0.3595,-1.0305,0.0660,-1.1273,0.4974,1.6014,0.7433,3.5463,-0.6432,
9.390821,0.3595,-1.0305,0.0660,-0.0514,-2.1638,1.2856,0.7433,3.5463,-0.6432,
9.392392,0.2058,-1.1659,0.1066,-0.0514,-2.1638,1.2856,0.7433,3.5463,-0.6432,
9.393104,-0.0150,-1.3814,0.1513,-0.0514,-2.1638,1.2856,0.7433,3.5463,-0.6432,
9.394008,-0.1152,-1.4903,-0.0737,-0.0514,-2.1638,1.2856,0.7433,3.5463,-0.6432,
9.395089,-0.1223,-1.4241,-0.3190,-0.0514,-2.1638,1.2856,0.7433,3.5463,-0.6432,
9.429416,-0.1223,-1.4241,-0.3190,-0.0514,-2.1638,1.2856,0.5324,2.4139,0.1569,
9.431865,-0.1223,-1.4241,-0.3190,0.0040,-2.1158,0.8922,0.5324,2.4139,0.1569,
9.470531,-0.1223,-1.4241,-0.3190,0.0040,-2.1158,0.8922,0.3215,0.8426,0.8695,
9.473020,-0.1223,-1.4241,-0.3190,-2.3999,-4.3855,-2.5923,0.3215,0.8426,0.8695,
9.474584,-0.0644,-1.3970,-0.3088,-2.3999,-4.3855,-2.5923,0.3215,0.8426,0.8695,
9.475888,0.1653,-1.2778,-0.0904,-2.3999,-4.3855,-2.5923,0.3215,0.8426,0.8695,
9.477134,0.3160,-1.1014,0.2040,-2.3999,-4.3855,-2.5923,0.3215,0.8426,0.8695,
9.478550,0.4350,-1.1229,0.1381,-2.3999,-4.3855,-2.5923,0.3215,0.8426,0.8695,
9.508462,0.4350,-1.1229,0.1381,-2.3999,-4.3855,-2.5923,1.4123,0.9044,0.7193,
9.510865,0.4350,-1.1229,0.1381,1.8449,-1.7099,-0.0658,1.4123,0.9044,0.7193,
9.548562,0.4350,-1.1229,0.1381,1.8449,-1.7099,-0.0658,1.5242,1.0962,0.6991,
9.553155,0.4350,-1.1229,0.1381,2.7220,-1.4638,-8.1559,1.5242,1.0962,0.6991,
9.554590,0.4475,-1.2143,-0.1656,2.7220,-1.4638,-8.1559,1.5242,1.0962,0.6991,
9.555743,0.3617,-1.2169,-0.6349,2.7220,-1.4638,-8.1559,1.5242,1.0962,0.6991,
9.557195,0.2913,-0.9892,-1.2740,2.7220,-1.4638,-8.1559,1.5242,1.0962,0.6991,
9.558739,0.1790,-0.6233,-1.1553,2.7220,-1.4638,-8.1559,1.5242,1.0962,0.6991,
9.587459,0.1790,-0.6233,-1.1553,2.7220,-1.4638,-8.1559,-1.0932,0.6583,1.0847,
9.590105,0.1790,-0.6233,-1.1553,3.1213,-1.3618,-7.6219,-1.0932,0.6583,1.0847,
9.627256,0.1790,-0.6233,-1.1553,3.1213,-1.3618,-7.6219,-2.3704,-0.6019,1.1241,
9.630255,0.1790,-0.6233,-1.1553,2.7395,3.7636,-4.4212,-2.3704,-0.6019,1.1241,
9.631760,0.2332,-0.5368,-0.2020,2.7395,3.7636,-4.4212,-2.3704,-0.6019,1.1241,
9.633089,0.4533,-0.6863,-0.0449,2.7395,3.7636,-4.4212,-2.3704,-0.6019,1.1241,
9.634567,0.4919,-0.8725,-0.2604,2.7395,3.7636,-4.4212,-2.3704,-0.6019,1.1241,
9.635783,0.4365,-0.9360,-0.0166,2.7395,3.7636,-4.4212,-2.3704,-0.6019,1.1241,
9.666996,0.4365,-0.9360,-0.0166,2.7395,3.7636,-4.4212,-2.9766,-3.2107,0.8535,
9.669675,0.4365,-0.9360,-0.0166,3.1176,3.6124,-3.2332,-2.9766,-3.2107,0.8535,
9.706036,0.4365,-0.9360,-0.0166,3.1176,3.6124,-3.2332,-3.1843,-1.9420,0.0674,
9.710052,0.4365,-0.9360,-0.0166,4.9879,0.6276,2.2528,-3.1843,-1.9420,0.0674,
9.711277,0.4836,-0.8734,0.2070,4.9879,0.6276,2.2528,-3.1843,-1.9420,0.0674,
9.712123,0.4892,-0.9470,0.0257,4.9879,0.6276,2.2528,-3.1843,-1.9420,0.0674,
9.712824,0.3927,-1.5900,-0.0434,4.9879,0.6276,2.2528,-3.1843,-1.9420,0.0674,
9.713718,0.4140,-2.1262,0.2556,4.9879,0.6276,2.2528,-3.1843,-1.9420,0.0674,
9.745212,0.4140,-2.1262,0.2556,4.9879,0.6276,2.2528,-2.6538,-1.1420,-0.4844,
9.746976,0.4140,-2.1262,0.2556,4.4881,-6.0466,4.1436,-2.6538,-1.1420,-0.4844,
9.785673,0.4140,-2.1262,0.2556,4.4881,-6.0466,4.1436,-1.0208,-3.0818,-1.0842,
9.787586,0.4140,-2.1262,0.2556,6.9441,-4.3794,8.7781,-1.0208,-3.0818,-1.0842,
9.788795,0.6082,-1.8885,0.4975,6.9441,-4.3794,8.7781,-1.0208,-3.0818,-1.0842,
9.789678,0.7826,-1.2709,0.6152,6.9441,-4.3794,8.7781,-1.0208,-3.0818,-1.0842,
9.790615,0.6778,-0.9758,0.4867,6.9441,-4.3794,8.7781,-1.0208,-3.0818,-1.0842,
9.791675,0.3231,-1.0029,0.2426,6.9441,-4.3794,8.7781,-1.0208,-3.0818,-1.0842,
9.825135,0.3231,-1.0029,0.2426,6.8855,-4.2118,8.3746,-1.0208,-3.0818,-1.0842,
9.827238,0.3231,-1.0029,0.2426,6.8855,-4.2118,8.3746,0.6347,-3.5761,-1.1950,
9.865164,0.3231,-1.0029,0.2426,6.8855,-4.2118,8.3746,0.7263,-4.3047,-0.8253,
9.868482,0.3231,-1.0029,0.2426,3.0402,0.1587,5.8236,0.7263,-4.3047,-0.8253,
9.869967,0.2273,-0.9846,0.2629,3.0402,0.1587,5.8236,0.7263,-4.3047,-0.8253,
9.871363,0.2938,-0.8375,0.4369,3.0402,0.1587,5.8236,0.7263,-4.3047,-0.8253,
9.872659,0.1516,-0.6340,0.7532,3.0402,0.1587,5.8236,0.7263,-4.3047,-0.8253,
9.873780,-0.0947,-0.4449,0.9680,3.0402,0.1587,5.8236,0.7263,-4.3047,-0.8253,
9.905230,-0.0947,-0.4449,0.9680,3.1430,0.2563,5.3329,0.7263,-4.3047,-0.8253,
9.907591,-0.0947,-0.4449,0.9680,3.1430,0.2563,5.3329,0.8903,-4.6371,-0.8360,
9.943948,-0.0947,-0.4449,0.9680,3.1430,0.2563,5.3329,1.5615,-5.0419,-0.9574,
9.947098,-0.0947,-0.4449,0.9680,0.0218,4.8666,9.9810,1.5615,-5.0419,-0.9574,
9.948543,-0.1755,-0.3506,0.9020,0.0218,4.8666,9.9810,1.5615,-5.0419,-0.9574,
9.949675,-0.2185,-0.4501,0.5575,0.0218,4.8666,9.9810,1.5615,-5.0419,-0.9574,
9.950888,-0.4760,-0.7012,0.1378,0.0218,4.8666,9.9810,1.5615,-5.0419,-0.9574,
9.952048,-1.0052,-1.5524,-0.4407,0.0218,4.8666,9.9810,1.5615,-5.0419,-0.9574,
9.984172,-1.0052,-1.5524,-0.4407,-5.0017,0.7776,1.3504,1.5615,-5.0419,-0.9574,
9.986794,-1.0052,-1.5524,-0.4407,-5.0017,0.7776,1.3504,1.9961,-6.4704,-0.5111,
10.023666,-1.0052,-1.5524,-0.4407,-5.0017,0.7776,1.3504,-0.4657,-1.4946,0.6320,
10.026278,-1.0052,-1.5524,-0.4407,-3.5750,-3.8325,-3.0481,-0.4657,-1.4946,0.6320,
10.027635,-1.1918,-1.8617,-1.0060,-3.5750,-3.8325,-3.0481,-0.4657,-1.4946,0.6320,
10.029569,-0.4103,-1.1656,-0.3857,-3.5750,-3.8325,-3.0481,-0.4657,-1.4946,0.6320,
10.030669,0.2386,-1.0989,0.2404,-3.5750,-3.8325,-3.0481,-0.4657,-1.4946,0.6320,
10.031967,0.2904,-1.6499,-0.1304,-3.5750,-3.8325,-3.0481,-0.4657,-1.4946,0.6320,
10.062953,0.2904,-1.6499,-0.1304,-3.5750,-3.8325,-3.0481,0.1383,-0.8746,0.3699,
10.065797,0.2904,-1.6499,-0.1304,-3.3528,-3.7790,-3.0821,0.1383,-0.8746,0.3699,
10.102750,0.2904,-1.6499,-0.1304,-3.3528,-3.7790,-3.0821,0.0200,-2.2392,0.0290,
10.105234,0.2904,-1.6499,-0.1304,5.3308,-5.0351,-1.5468,0.0200,-2.2392,0.0290,
10.110522,0.4071,-1.7073,-0.3662,5.3308,-5.0351,-1.5468,0.0200,-2.2392,0.0290,
10.112866,0.6045,-1.1796,-0.1592,5.3308,-5.0351,-1.5468,0.0200,-2.2392,0.0290,
10.114122,0.4457,-0.9743,0.2788,5.3308,-5.0351,-1.5468,0.0200,-2.2392,0.0290,
10.115561,0.0099,-1.0591,0.3409,5.3308,-5.0351,-1.5468,0.0200,-2.2392,0.0290,
10.142703,0.0099,-1.0591,0.3409,5.3308,-5.0351,-1.5468,0.4727,-0.7861,-0.2682,
10.145065,0.0099,-1.0591,0.3409,5.1558,-4.9315,-1.7340,0.4727,-0.7861,-0.2682,
10.182428,0.0099,-1.0591,0.3409,1.7039,-0.1668,2.1809,0.4727,-0.7861,-0.2682,
10.185210,0.0099,-1.0591,0.3409,1.7039,-0.1668,2.1809,0.5580,-1.2368,0.1899,
10.186584,-0.2283,-1.0452,0.0152,1.7039,-0.1668,2.1809,0.5580,-1.2368,0.1899,
10.187916,-0.1482,-0.8778,-0.0486,1.7039,-0.1668,2.1809,0.5580,-1.2368,0.1899,
10.189169,0.0544,-0.7491,0.0076,1.7039,-0.1668,2.1809,0.5580,-1.2368,0.1899,
10.190267,0.2442,-0.6800,-0.0689,1.7039,-0.1668,2.1809,0.5580,-1.2368,0.1899,
10.221768,0.2442,-0.6800,-0.0689,1.7039,-0.1668,2.1809,0.2501,-1.8418,0.4147,
10.224262,0.2442,-0.6800,-0.0689,1.5887,2.2985,-0.4186,0.2501,-1.8418,0.4147,
10.260630,0.2442,-0.6800,-0.0689,1.5887,2.2985,-0.4186,-0.4189,-1.6479,0.2623,
10.263410,0.2442,-0.6800,-0.0689,3.8018,3.1561,-1.9762,-0.4189,-1.6479,0.2623,
10.264785,0.3080,-0.6145,-0.1793,3.8018,3.1561,-1.9762,-0.4189,-1.6479,0.2623,
10.266068,0.2916,-0.6252,-0.2333,3.8018,3.1561,-1.9762,-0.4189,-1.6479,0.2623,
10.267184,0.2176,-0.7848,-0.2113,3.8018,3.1561,-1.9762,-0.4189,-1.6479,0.2623,
10.268597,0.0199,-1.0244,-0.1326,3.8018,3.1561,-1.9762,-0.4189,-1.6479,0.2623,
10.301207,0.0199,-1.0244,-0.1326,3.8018,3.1561,-1.9762,-1.5864,-1.4381,0.0354,
10.303843,0.0199,-1.0244,-0.1326,3.7682,3.0815,-1.4047,-1.5864,-1.4381,0.0354,
10.332073,-0.3649,-1.2831,-0.2875,3.7682,3.0815,-1.4047,-1.5864,-1.4381,0.0354,
10.334654,-0.8188,-1.5113,-0.7930,3.7682,3.0815,-1.4047,-1.5864,-1.4381,0.0354,
10.335966,-1.1872,-1.5362,-0.6259,3.7682,3.0815,-1.4047,-1.5864,-1.4381,0.0354,
10.339917,-1.1872,-1.5362,-0.6259,3.7682,3.0815,-1.4047,-3.2024,0.4602,-0.1883,
10.341834,-1.1872,-1.5362,-0.6259,-2.7572,-2.8823,-2.0532,-3.2024,0.4602,-0.1883,
10.379895,-1.1872,-1.5362,-0.6259,-2.7572,-2.8823,-2.0532,-3.2791,2.7644,0.1249,
10.382463,-1.1872,-1.5362,-0.6259,-7.5950,-2.8980,2.4067,-3.2791,2.7644,0.1249,
10.419593,-1.1872,-1.5362,-0.6259,-7.5950,-2.8980,2.4067,-1.1912,2.3084,0.1451,
10.422785,-1.1872,-1.5362,-0.6259,-7.7322,-3.0141,2.8664,-1.1912,2.3084,0.1451,
10.424166,-1.0152,-1.2775,-0.0491,-7.7322,-3.0141,2.8664,-1.1912,2.3084,0.1451,
10.425694,-0.4066,-0.9213,0.4332,-7.7322,-3.0141,2.8664,-1.1912,2.3084,0.1451,
10.426836,-0.1279,-0.7354,0.5356,-7.7322,-3.0141,2.8664,-1.1912,2.3084,0.1451,
10.428814,0.1599,-0.8048,0.1488,-7.7322,-3.0141,2.8664,-1.1912,2.3084,0.1451,
10.430170,0.2418,-0.9704,-0.1065,-7.7322,-3.0141,2.8664,-1.1912,2.3084,0.1451,
10.461409,0.2418,-0.9704,-0.1065,-7.7322,-3.0141,2.8664,0.1159,2.0357,-0.2543,
10.465576,0.2418,-0.9704,-0.1065,1.2720,0.9917,5.4582,0.1159,2.0357,-0.2543,
10.499330,0.2418,-0.9704,-0.1065,1.2720,0.9917,5.4582,0.8562,2.4256,-1.0267,
10.501850,0.2418,-0.9704,-0.1065,-0.8874,0.9969,1.2336,0.8562,2.4256,-1.0267,
10.503036,0.1154,-0.9572,-0.1651,-0.8874,0.9969,1.2336,0.8562,2.4256,-1.0267,
10.504118,-0.1003,-0.8644,-0.2570,-0.8874,0.9969,1.2336,0.8562,2.4256,-1.0267,
10.505409,-0.1907,-0.7178,-0.1920,-0.8874,0.9969,1.2336,0.8562,2.4256,-1.0267,
10.507091,-0.2083,-0.5439,-0.0564,-0.8874,0.9969,1.2336,0.8562,2.4256,-1.0267,
10.537652,-0.2083,-0.5439,-0.0564,-0.8874,0.9969,1.2336,1.8704,4.2920,-1.2077,
10.539338,-0.2083,-0.5439,-0.0564,-1.7901,1.1503,0.3944,1.8704,4.2920,-1.2077,
10.578187,-0.2083,-0.5439,-0.0564,-1.7901,1.1503,0.3944,2.0909,4.9130,-0.6496,
10.582116,-0.2083,-0.5439,-0.0564,-3.5423,5.4819,0.7600,2.0909,4.9130,-0.6496,
10.583605,-0.2315,-0.3949,-0.0637,-3.5423,5.4819,0.7600,2.0909,4.9130,-0.6496,
10.584768,-0.1047,-0.2817,-0.0442,-3.5423,5.4819,0.7600,2.0909,4.9130,-0.6496,
10.585801,-0.0385,-0.2361,-0.0759,-3.5423,5.4819,0.7600,2.0909,4.9130,-0.6496,
10.586906,-0.2122,-0.6057,-0.3068,-3.5423,5.4819,0.7600,2.0909,4.9130,-0.6496,
10.617259,-0.2122,-0.6057,-0.3068,-3.5423,5.4819,0.7600,1.5263,2.5449,-0.0988,
10.619428,-0.2122,-0.6057,-0.3068,-3.6135,5.4377,-0.0011,1.5263,2.5449,-0.0988,
10.656386,-0.2122,-0.6057,-0.3068,-3.6135,5.4377,-0.0011,0.0243,3.1830,0.2932,
10.659462,-0.2122,-0.6057,-0.3068,-3.0313,2.2922,-2.5008,0.0243,3.1830,0.2932,
10.660776,-0.1506,-1.3367,-0.4869,-3.0313,2.2922,-2.5008,0.0243,3.1830,0.2932,
10.662114,0.3976,-2.0266,-0.7439,-3.0313,2.2922,-2.5008,0.0243,3.1830,0.2932,
10.663322,0.3009,-2.0593,-0.2255,-3.0313,2.2922,-2.5008,0.0243,3.1830,0.2932,
10.664681,-0.3338,-1.7490,0.0648,-3.0313,2.2922,-2.5008,0.0243,3.1830,0.2932,
10.696657,-0.3338,-1.7490,0.0648,-3.0313,2.2922,-2.5008,-0.7992,3.8744,0.0045,
10.699362,-0.3338,-1.7490,0.0648,-0.5695,-9.5019,-2.5405,-0.7992,3.8744,0.0045,
10.736504,-0.3338,-1.7490,0.0648,-0.5695,-9.5019,-2.5405,-0.2751,3.4057,0.8184,
10.739448,-0.3338,-1.7490,0.0648,-6.1479,-1.2539,1.1367,-0.2751,3.4057,0.8184,
10.740745,-0.6561,-1.2827,0.0426,-6.1479,-1.2539,1.1367,-0.2751,3.4057,0.8184,
10.742260,-0.5840,-0.8840,0.0870,-6.1479,-1.2539,1.1367,-0.2751,3.4057,0.8184,
10.743380,-0.2149,-1.1649,0.1342,-6.1479,-1.2539,1.1367,-0.2751,3.4057,0.8184,
10.744545,0.2051,-1.6826,0.3301,-6.1479,-1.2539,1.1367,-0.2751,3.4057,0.8184,
10.775766,0.2051,-1.6826,0.3301,-6.1479,-1.2539,1.1367,-0.3645,3.1766,1.9060,
10.778005,0.2051,-1.6826,0.3301,-5.3598,-1.1589,1.1207,-0.3645,3.1766,1.9060,
10.818636,0.2051,-1.6826,0.3301,-5.3598,-1.1589,1.1207,1.5210,1.0919,0.8919,
10.821406,0.2051,-1.6826,0.3301,6.4964,-6.6615,4.1601,1.5210,1.0919,0.8919,
10.822867,0.7868,-1.8568,0.5172,6.4964,-6.6615,4.1601,1.5210,1.0919,0.8919,
10.824111,1.1125,-1.5150,0.5541,6.4964,-6.6615,4.1601,1.5210,1.0919,0.8919,
10.825553,0.9309,-1.0457,0.2400,6.4964,-6.6615,4.1601,1.5210,1.0919,0.8919,
10.826859,0.6605,-0.7291,-0.1668,6.4964,-6.6615,4.1601,1.5210,1.0919,0.8919,
10.855624,0.6605,-0.7291,-0.1668,6.4964,-6.6615,4.1601,2.2965,1.9974,-0.5153,
10.857901,0.6605,-0.7291,-0.1668,6.2606,-6.6380,3.1802,2.2965,1.9974,-0.5153,
10.895357,0.6605,-0.7291,-0.1668,6.2606,-6.6380,3.1802,0.5260,2.1252,-0.1617,
10.897551,0.6605,-0.7291,-0.1668,5.2147,1.5578,-3.8093,0.5260,2.1252,-0.1617,
10.899168,0.1983,-0.7518,-0.7529,5.2147,1.5578,-3.8093,0.5260,2.1252,-0.1617,
10.900439,-0.2918,-0.8434,-1.1585,5.2147,1.5578,-3.8093,0.5260,2.1252,-0.1617,
10.901765,-0.1091,-0.7879,-0.8098,5.2147,1.5578,-3.8093,0.5260,2.1252,-0.1617,
10.903143,0.2921,-0.6355,-0.5042,5.2147,1.5578,-3.8093,0.5260,2.1252,-0.1617,
10.935052,0.2921,-0.6355,-0.5042,5.2147,1.5578,-3.8093,-0.4945,0.9609,0.8248,
10.937302,0.2921,-0.6355,-0.5042,-0.5965,2.4089,-9.3339,-0.4945,0.9609,0.8248,
10.975064,0.2921,-0.6355,-0.5042,-0.5965,2.4089,-9.3339,-0.8152,0.2099,0.7438,
10.977910,0.2921,-0.6355,-0.5042,5.4505,3.6195,-5.5321,-0.8152,0.2099,0.7438,
10.979324,0.4345,-0.5620,-0.4358,5.4505,3.6195,-5.5321,-0.8152,0.2099,0.7438,
10.980565,0.5647,-0.6101,-0.4458,5.4505,3.6195,-5.5321,-0.8152,0.2099,0.7438,
10.981993,0.6795,-0.7171,-0.5526,5.4505,3.6195,-5.5321,-0.8152,0.2099,0.7438,
10.982997,0.5659,-0.9643,-0.7373,5.4505,3.6195,-5.5321,-0.8152,0.2099,0.7438,
11.014269,0.5659,-0.9643,-0.7373,5.4505,3.6195,-5.5321,-2.3374,-1.1728,0.4147,
11.017950,0.5659,-0.9643,-0.7373,5.5020,3.5944,-4.5490,-2.3374,-1.1728,0.4147,
11.054014,0.5659,-0.9643,-0.7373,5.5020,3.5944,-4.5490,-4.5905,-2.9913,0.3103,
11.056629,0.5659,-0.9643,-0.7373,5.1891,-2.0479,-6.4868,-4.5905,-2.9913,0.3103,
11.058140,0.4311,-1.2722,-0.9574,5.1891,-2.0479,-6.4868,-4.5905,-2.9913,0.3103,
11.059292,0.5388,-1.3335,-0.9019,5.1891,-2.0479,-6.4868,-4.5905,-2.9913,0.3103,
11.060555,0.7010,-1.3633,-0.3110,5.1891,-2.0479,-6.4868,-4.5905,-2.9913,0.3103,
11.061811,0.6578,-1.7786,0.7647,5.1891,-2.0479,-6.4868,-4.5905,-2.9913,0.3103,
11.093040,0.6578,-1.7786,0.7647,5.1891,-2.0479,-6.4868,-3.6647,-2.1284,-0.6677,
11.095418,0.6578,-1.7786,0.7647,5.0791,-2.3914,-5.0461,-3.6647,-2.1284,-0.6677,
11.133607,0.6578,-1.7786,0.7647,5.0791,-2.3914,-5.0461,-1.1965,-3.3566,-1.2248,
11.135942,0.6578,-1.7786,0.7647,6.1554,-8.5988,7.9750,-1.1965,-3.3566,-1.2248,
11.137231,0.5222,-2.3212,0.8473,6.1554,-8.5988,7.9750,-1.1965,-3.3566,-1.2248,
11.138535,0.4379,-1.8443,0.4730,6.1554,-8.5988,7.9750,-1.1965,-3.3566,-1.2248,
11.139624,0.3944,-1.1747,0.3379,6.1554,-8.5988,7.9750,-1.1965,-3.3566,-1.2248,
11.140727,0.4865,-0.9150,0.1354,6.1554,-8.5988,7.9750,-1.1965,-3.3566,-1.2248,
11.172281,0.4865,-0.9150,0.1354,6.1554,-8.5988,7.9750,-0.0141,-4.0416,-1.0522,
11.174262,0.4865,-0.9150,0.1354,4.4603,-3.5415,6.6906,-0.0141,-4.0416,-1.0522,
11.212441,0.4865,-0.9150,0.1354,4.4603,-3.5415,6.6906,0.2810,-4.2131,-1.1896,
11.214528,0.4865,-0.9150,0.1354,3.1885,1.2418,7.4228,0.2810,-4.2131,-1.1896,
11.218743,0.5298,-0.8937,0.1623,3.1885,1.2418,7.4228,0.2810,-4.2131,-1.1896,
11.220341,0.3429,-0.8485,0.3870,3.1885,1.2418,7.4228,0.2810,-4.2131,-1.1896,
11.221660,0.0272,-0.7364,0.7034,3.1885,1.2418,7.4228,0.2810,-4.2131,-1.1896,
11.222669,-0.3224,-0.6377,0.8747,3.1885,1.2418,7.4228,0.2810,-4.2131,-1.1896,
11.252271,-0.3224,-0.6377,0.8747,3.1667,1.3734,6.8328,0.2810,-4.2131,-1.1896,
11.255280,-0.3224,-0.6377,0.8747,3.1667,1.3734,6.8328,1.1407,-4.4081,-1.3761,
11.291859,-0.3224,-0.6377,0.8747,3.1667,1.3734,6.8328,1.8619,-4.9354,-0.3822,
11.294338,-0.3224,-0.6377,0.8747,-5.1590,3.7459,8.1065,1.8619,-4.9354,-0.3822,
11.295901,-0.6400,-0.5483,0.6655,-5.1590,3.7459,8.1065,1.8619,-4.9354,-0.3822,
11.297219,-0.8112,-0.6015,0.3824,-5.1590,3.7459,8.1065,1.8619,-4.9354,-0.3822,
11.298623,-0.4904,-0.7572,0.0438,-5.1590,3.7459,8.1065,1.8619,-4.9354,-0.3822,
11.299912,-0.0055,-1.0379,-0.1597,-5.1590,3.7459,8.1065,1.8619,-4.9354,-0.3822,
11.331312,-0.0055,-1.0379,-0.1597,-5.1590,3.7459,8.1065,1.0618,-4.0981,0.1206,
11.333734,-0.0055,-1.0379,-0.1597,-4.7806,3.7443,7.4496,1.0618,-4.0981,0.1206,
11.362964,0.3444,-1.3845,-0.2330,-4.7806,3.7443,7.4496,1.0618,-4.0981,0.1206,
11.365479,0.1602,-1.5475,0.0201,-4.7806,3.7443,7.4496,1.0618,-4.0981,0.1206,
11.366815,-0.3849,-1.4031,0.3452,-4.7806,3.7443,7.4496,1.0618,-4.0981,0.1206,
11.370520,-0.3849,-1.4031,0.3452,-4.7806,3.7443,7.4496,0.2011,-0.9907,-1.1502,
11.372087,-0.3849,-1.4031,0.3452,0.1208,-0.7437,-0.0840,0.2011,-0.9907,-1.1502,
11.410543,-0.3849,-1.4031,0.3452,0.1208,-0.7437,-0.0840,0.6645,0.8085,-1.4176,
11.412910,-0.3849,-1.4031,0.3452,-2.9496,-3.7735,2.8645,0.6645,0.8085,-1.4176,
11.449613,-0.3849,-1.4031,0.3452,-2.9496,-3.7735,2.8645,-0.1174,0.8831,-0.0882,
11.452140,-0.3849,-1.4031,0.3452,-2.9601,-3.7139,2.8621,-0.1174,0.8831,-0.0882,
11.453495,-0.7069,-1.1893,0.2788,-2.9601,-3.7139,2.8621,-0.1174,0.8831,-0.0882,
11.454676,-0.9194,-1.0784,0.0018,-2.9601,-3.7139,2.8621,-0.1174,0.8831,-0.0882,
11.455743,-1.0401,-1.0012,-0.3496,-2.9601,-3.7139,2.8621,-0.1174,0.8831,-0.0882,
11.457048,-0.8532,-0.9612,-0.5238,-2.9601,-3.7139,2.8621,-0.1174,0.8831,-0.0882,
11.458528,-0.4167,-1.0242,-0.1585,-2.9601,-3.7139,2.8621,-0.1174,0.8831,-0.0882,
11.489670,-0.4167,-1.0242,-0.1585,-2.9601,-3.7139,2.8621,-0.9781,0.1364,1.5065,
11.493560,-0.4167,-1.0242,-0.1585,-8.3833,-0.1792,-1.6812,-0.9781,0.1364,1.5065,
11.529920,-0.4167,-1.0242,-0.1585,-8.3833,-0.1792,-1.6812,-0.1728,-0.9012,1.7015,
11.534913,-0.4167,-1.0242,-0.1585,0.2079,-1.4809,0.0729,-0.1728,-0.9012,1.7015,
11.536181,-0.0956,-1.1625,-0.0982,0.2079,-1.4809,0.0729,-0.1728,-0.9012,1.7015,
11.537515,0.1169,-1.2340,-0.0847,0.2079,-1.4809,0.0729,-0.1728,-0.9012,1.7015,
11.539438,0.3996,-1.1781,0.2084,0.2079,-1.4809,0.0729,-0.1728,-0.9012,1.7015,
11.540789,0.5601,-0.9548,0.3066,0.2079,-1.4809,0.0729,-0.1728,-0.9012,1.7015,
11.568961,0.5601,-0.9548,0.3066,0.2079,-1.4809,0.0729,0.8839,-0.6743,0.8099,
11.571517,0.5601,-0.9548,0.3066,0.5371,-1.4747,-0.3059,0.8839,-0.6743,0.8099,
11.608849,0.5601,-0.9548,0.3066,0.5371,-1.4747,-0.3059,1.5380,0.0554,0.2165,
11.611628,0.5601,-0.9548,0.3066,6.0149,0.4913,3.0564,1.5380,0.0554,0.2165,
11.613007,0.3275,-0.6880,0.3685,6.0149,0.4913,3.0564,1.5380,0.0554,0.2165,
11.614301,-0.1623,-0.6189,0.3071,6.0149,0.4913,3.0564,1.5380,0.0554,0.2165,
11.615614,-0.3680,-0.6553,0.1537,6.0149,0.4913,3.0564,1.5380,0.0554,0.2165,
11.616872,-0.4599,-1.1026,-0.1079,6.0149,0.4913,3.0564,1.5380,0.0554,0.2165,
11.648270,-0.4599,-1.1026,-0.1079,6.0149,0.4913,3.0564,1.5167,-1.3199,0.0929,
11.650778,-0.4599,-1.1026,-0.1079,-1.3771,1.8937,0.6331,1.5167,-1.3199,0.0929,
11.688213,-0.4599,-1.1026,-0.1079,-1.3771,1.8937,0.6331,0.8967,0.6615,0.2879,
11.690702,-0.4599,-1.1026,-0.1079,-0.1566,-2.8525,-3.8782,0.8967,0.6615,0.2879,
11.692091,-0.8036,-1.6230,-0.2125,-0.1566,-2.8525,-3.8782,0.8967,0.6615,0.2879,
11.693377,-0.3138,-1.3640,-0.3596,-0.1566,-2.8525,-3.8782,0.8967,0.6615,0.2879,
11.694585,0.4602,-0.8434,-0.3869,-0.1566,-2.8525,-3.8782,0.8967,0.6615,0.2879,
11.695793,0.2044,-0.8158,0.0037,-0.1566,-2.8525,-3.8782,0.8967,0.6615,0.2879,
11.727402,0.2044,-0.8158,0.0037,-0.1566,-2.8525,-3.8782,0.0349,3.1596,-0.1180,
11.730084,0.2044,-0.8158,0.0037,-0.1179,-2.7972,-3.5777,0.0349,3.1596,-0.1180,
11.766724,-0.0861,-1.0105,0.2004,-0.1179,-2.7972,-3.5777,0.0349,3.1596,-0.1180,
11.768616,-0.0419,-1.0814,0.0047,-0.1179,-2.7972,-3.5777,0.0349,3.1596,-0.1180,
11.769427,0.1792,-0.9858,-0.1197,-0.1179,-2.7972,-3.5777,0.0349,3.1596,-0.1180,
11.770131,0.1792,-0.9858,-0.1197,-0.1179,-2.7972,-3.5777,0.5708,0.3856,-0.0317,
11.770765,0.1792,-0.9858,-0.1197,2.2346,0.2044,0.0477,0.5708,0.3856,-0.0317,
11.806127,0.1792,-0.9858,-0.1197,2.2346,0.2044,0.0477,0.2906,0.1864,0.0173,
11.807279,0.1792,-0.9858,-0.1197,3.9542,0.6016,-3.1193,0.2906,0.1864,0.0173,
11.845366,0.1792,-0.9858,-0.1197,3.9542,0.6016,-3.1193,-0.0130,0.2993,0.1174,
11.846656,0.1792,-0.9858,-0.1197,3.9405,0.5829,-3.0396,-0.0130,0.2993,0.1174,
11.847331,0.3011,-0.8813,-0.3166,3.9405,0.5829,-3.0396,-0.0130,0.2993,0.1174,
11.848095,0.1394,-0.9130,-0.3110,3.9405,0.5829,-3.0396,-0.0130,0.2993,0.1174,
11.848527,0.0194,-0.9614,-0.1048,3.9405,0.5829,-3.0396,-0.0130,0.2993,0.1174,
11.848829,0.1005,-0.9704,-0.1165,3.9405,0.5829,-3.0396,-0.0130,0.2993,0.1174,
11.849305,0.1741,-0.9741,-0.2675,3.9405,0.5829,-3.0396,-0.0130,0.2993,0.1174,
11.885887,0.1741,-0.9741,-0.2675,3.9405,0.5829,-3.0396,0.0850,-0.2610,0.2336,
11.888595,0.1741,-0.9741,-0.2675,2.9101,0.1492,-2.2107,0.0850,-0.2610,0.2336,
11.926162,0.2242,-1.0239,-0.4160,2.9101,0.1492,-2.2107,0.0850,-0.2610,0.2336,
11.929032,0.3153,-1.1231,-0.4778,2.9101,0.1492,-2.2107,0.0850,-0.2610,0.2336,
11.929914,0.3522,-1.2880,-0.4402,2.9101,0.1492,-2.2107,0.0850,-0.2610,0.2336,
11.931221,0.3522,-1.2880,-0.4402,2.9101,0.1492,-2.2107,-0.5914,-0.4857,0.2144,
11.932541,0.3522,-1.2880,-0.4402,4.8516,-1.5577,-4.7047,-0.5914,-0.4857,0.2144,
11.965490,0.3522,-1.2880,-0.4402,4.8516,-1.5577,-4.7047,-1.6322,-1.3412,0.1728,
11.967671,0.3522,-1.2880,-0.4402,4.7513,-2.7747,-5.8788,-1.6322,-1.3412,0.1728,
12.004782,0.3522,-1.2880,-0.4402,4.7513,-2.7747,-5.8788,-3.2663,-1.5830,-0.0615,
12.008289,0.3522,-1.2880,-0.4402,4.6985,-2.8302,-4.6700,-3.2663,-1.5830,-0.0615,
12.009699,0.3429,-1.3718,-0.4524,4.6985,-2.8302,-4.6700,-3.2663,-1.5830,-0.0615,
12.010832,0.3221,-1.2897,-0.5492,4.6985,-2.8302,-4.6700,-3.2663,-1.5830,-0.0615,
12.072231,0.2017,-1.1581,-0.8817,4.6985,-2.8302,-4.6700,-3.2663,-1.5830,-0.0615,
12.074078,-0.0468,-1.1217,-1.1880,4.6985,-2.8302,-4.6700,-3.2663,-1.5830,-0.0615,
12.076157,-0.2857,-1.1495,-0.4370,4.6985,-2.8302,-4.6700,-3.2663,-1.5830,-0.0615,
12.077261,-0.2857,-1.1495,-0.4370,4.6985,-2.8302,-4.6700,-4.5372,-0.5933,-0.2256,
12.079635,-0.2857,-1.1495,-0.4370,4.5843,-3.1754,-2.9600,-4.5372,-0.5933,-0.2256,
12.084325,-0.2857,-1.1495,-0.4370,4.5843,-3.1754,-2.9600,-2.4557,-0.2589,-0.8764,
12.087653,-0.2857,-1.1495,-0.4370,0.5587,-2.0639,1.2411,-2.4557,-0.2589,-0.8764,
12.090208,0.0553,-1.1280,0.7669,0.5587,-2.0639,1.2411,-2.4557,-0.2589,-0.8764,
12.091711,0.5850,-0.9717,0.9059,0.5587,-2.0639,1.2411,-2.4557,-0.2589,-0.8764,
12.092880,0.7269,-1.1568,0.2009,0.5587,-2.0639,1.2411,-2.4557,-0.2589,-0.8764,
12.093992,0.6864,-1.7036,-0.7500,0.5587,-2.0639,1.2411,-2.4557,-0.2589,-0.8764,
12.123104,0.6864,-1.7036,-0.7500,0.5587,-2.0639,1.2411,-1.2178,-0.0053,-2.2996,
12.125299,0.6864,-1.7036,-0.7500,7.0555,-3.5274,5.5484,-1.2178,-0.0053,-2.2996,
12.163461,0.6864,-1.7036,-0.7500,7.0555,-3.5274,5.5484,-0.6490,-0.3132,-3.3415,
12.164904,0.6864,-1.7036,-0.7500,2.3447,-6.0895,4.9552,-0.6490,-0.3132,-3.3415,
12.165650,0.5506,-1.8597,-0.5814,2.3447,-6.0895,4.9552,-0.6490,-0.3132,-3.3415,
12.166424,0.3571,-1.5213,0.2856,2.3447,-6.0895,4.9552,-0.6490,-0.3132,-3.3415,
12.167090,0.0058,-1.2299,0.4259,2.3447,-6.0895,4.9552,-0.6490,-0.3132,-3.3415,
12.167837,-0.4115,-1.0349,0.0597,2.3447,-6.0895,4.9552,-0.6490,-0.3132,-3.3415,
12.202879,-0.4115,-1.0349,0.0597,2.3447,-6.0895,4.9552,1.0267,-0.6221,-2.7620,
12.205552,-0.4115,-1.0349,0.0597,1.4456,-5.9299,4.5404,1.0267,-0.6221,-2.7620,
12.243186,-0.4115,-1.0349,0.0597,1.4456,-5.9299,4.5404,1.4922,-0.9364,-1.4485,
12.245153,-0.4790,-0.7896,-0.1065,1.4456,-5.9299,4.5404,1.4922,-0.9364,-1.4485,
12.246059,-0.3544,-0.4899,-0.0110,1.4456,-5.9299,4.5404,1.4922,-0.9364,-1.4485,
12.246953,-0.3087,-0.2764,0.1527,1.4456,-5.9299,4.5404,1.4922,-0.9364,-1.4485,
12.248020,-0.4360,-0.2700,0.0692,1.4456,-5.9299,4.5404,1.4922,-0.9364,-1.4485,
12.249037,-0.4360,-0.2700,0.0692,-5.8876,1.6727,3.3920,1.4922,-0.9364,-1.4485,
12.282202,-0.4360,-0.2700,0.0692,-5.8876,1.6727,3.3920,1.5476,0.0139,-0.4003,
12.283576,-0.4360,-0.2700,0.0692,-5.9342,1.8145,2.7724,1.5476,0.0139,-0.4003,
12.322098,-0.4360,-0.2700,0.0692,-5.9342,1.8145,2.7724,0.9170,0.4922,0.0983,
12.323751,-0.4360,-0.2700,0.0692,-5.8159,6.0806,2.3844,0.9170,0.4922,0.0983,
12.325604,-0.4892,-0.4637,-0.2699,-5.8159,6.0806,2.3844,0.9170,0.4922,0.0983,
12.326777,-0.3864,-0.6890,-0.5792,-5.8159,6.0806,2.3844,0.9170,0.4922,0.0983,
12.328208,-0.3365,-0.7757,-0.3733,-5.8159,6.0806,2.3844,0.9170,0.4922,0.0983,
12.329460,-0.1682,-0.7999,-0.0662,-5.8159,6.0806,2.3844,0.9170,0.4922,0.0983,
12.361894,-0.1682,-0.7999,-0.0662,-5.8159,6.0806,2.3844,0.5697,0.8884,-0.0477,
12.364083,-0.1682,-0.7999,-0.0662,-4.7181,1.9995,-1.0456,0.5697,0.8884,-0.0477,
12.400645,-0.1682,-0.7999,-0.0662,-4.7181,1.9995,-1.0456,-0.1707,1.8962,0.6586,
12.403069,-0.1682,-0.7999,-0.0662,-7.0209,-8.3680,2.2798,-0.1707,1.8962,0.6586,
12.404533,-0.1904,-1.1004,-0.3398,-7.0209,-8.3680,2.2798,-0.1707,1.8962,0.6586,
12.405787,-0.6294,-1.8827,-0.0496,-7.0209,-8.3680,2.2798,-0.1707,1.8962,0.6586,
12.407033,-0.8366,-2.5083,0.4220,-7.0209,-8.3680,2.2798,-0.1707,1.8962,0.6586,
12.408226,-0.3829,-1.8455,0.1312,-7.0209,-8.3680,2.2798,-0.1707,1.8962,0.6586,
12.440994,-0.3829,-1.8455,0.1312,-7.0209,-8.3680,2.2798,-0.1504,2.1838,0.5808,
12.443473,-0.3829,-1.8455,0.1312,-6.8686,-8.2051,2.1629,-0.1504,2.1838,0.5808,
12.480875,-0.3829,-1.8455,0.1312,-6.8686,-8.2051,2.1629,-0.9206,2.5140,0.9185,
12.483164,-0.3829,-1.8455,0.1312,-3.8073,-3.0640,2.1296,-0.9206,2.5140,0.9185,
12.487095,-0.2688,-1.0232,-0.2423,-3.8073,-3.0640,2.1296,-0.9206,2.5140,0.9185,
12.488931,-0.1303,-1.0562,0.0785,-3.8073,-3.0640,2.1296,-0.9206,2.5140,0.9185,
12.490039,0.3461,-1.5367,0.5646,-3.8073,-3.0640,2.1296,-0.9206,2.5140,0.9185,
12.491759,0.6559,-1.6349,0.6145,-3.8073,-3.0640,2.1296,-0.9206,2.5140,0.9185,
12.520105,0.6559,-1.6349,0.6145,-3.8073,-3.0640,2.1296,-0.4594,2.7239,0.7609,
12.522386,0.6559,-1.6349,0.6145,-3.6961,-3.0174,2.1391,-0.4594,2.7239,0.7609,
12.561817,0.6559,-1.6349,0.6145,-3.6961,-3.0174,2.1391,-0.1462,3.7199,-0.0317,
12.564088,0.6559,-1.6349,0.6145,3.4457,-4.5486,6.8290,-0.1462,3.7199,-0.0317,
12.565664,0.5229,-1.2409,0.3001,3.4457,-4.5486,6.8290,-0.1462,3.7199,-0.0317,
12.566794,0.1936,-0.9086,-0.0596,3.4457,-4.5486,6.8290,-0.1462,3.7199,-0.0317,
12.567979,-0.0502,-0.7391,-0.2389,3.4457,-4.5486,6.8290,-0.1462,3.7199,-0.0317,
12.569242,-0.1855,-0.5390,-0.2000,3.4457,-4.5486,6.8290,-0.1462,3.7199,-0.0317,
12.599398,-0.1855,-0.5390,-0.2000,3.4457,-4.5486,6.8290,-0.6287,4.3420,-0.1531,
12.601827,-0.1855,-0.5390,-0.2000,-2.0363,2.6187,0.3105,-0.6287,4.3420,-0.1531,
12.639067,-0.1855,-0.5390,-0.2000,-2.0363,2.6187,0.3105,-0.6426,3.7892,-0.1148,
12.641503,-0.1855,-0.5390,-0.2000,-1.7610,7.1749,1.9266,-0.6426,3.7892,-0.1148,
12.644137,-0.1521,-0.3081,-0.0745,-1.7610,7.1749,1.9266,-0.6426,3.7892,-0.1148,
12.646430,0.0575,-0.1828,0.0812,-1.7610,7.1749,1.9266,-0.6426,3.7892,-0.1148,
12.647602,0.2288,-0.2461,0.0186,-1.7610,7.1749,1.9266,-0.6426,3.7892,-0.1148,
12.648686,0.2063,-0.5791,-0.2782,-1.7610,7.1749,1.9266,-0.6426,3.7892,-0.1148,
12.678830,0.2063,-0.5791,-0.2782,-1.7610,7.1749,1.9266,-1.0250,3.0030,-0.1169,
12.681396,0.2063,-0.5791,-0.2782,-1.9952,6.9693,2.0026,-1.0250,3.0030,-0.1169,
12.720725,0.2063,-0.5791,-0.2782,-1.9952,6.9693,2.0026,-1.9582,2.9071,0.8205,
12.723311,0.2063,-0.5791,-0.2782,-1.6682,-2.0441,-2.1100,-1.9582,2.9071,0.8205,
12.724988,0.0893,-1.1388,-0.4519,-1.6682,-2.0441,-2.1100,-1.9582,2.9071,0.8205,
12.726195,-0.0883,-1.7625,-0.6505,-1.6682,-2.0441,-2.1100,-1.9582,2.9071,0.8205,
12.727498,0.0143,-2.1084,-0.8321,-1.6682,-2.0441,-2.1100,-1.9582,2.9071,0.8205,
12.728973,0.5488,-1.4578,-0.9371,-1.6682,-2.0441,-2.1100,-1.9582,2.9071,0.8205,
12.757518,0.5488,-1.4578,-0.9371,-1.6682,-2.0441,-2.1100,-2.5579,2.1327,1.6695,
12.759460,0.5488,-1.4578,-0.9371,-1.2650,-2.1448,-1.3343,-2.5579,2.1327,1.6695,
12.798924,0.5488,-1.4578,-0.9371,-1.2650,-2.1448,-1.3343,-1.9688,1.6629,2.1382,
12.801437,0.5488,-1.4578,-0.9371,1.9127,-5.5747,-3.9530,-1.9688,1.6629,2.1382,
12.802821,0.4594,-0.9533,-0.6183,1.9127,-5.5747,-3.9530,-1.9688,1.6629,2.1382,
12.804087,0.3224,-0.8275,-0.4070,1.9127,-5.5747,-3.9530,-1.9688,1.6629,2.1382,
12.805441,0.4409,-0.9047,-0.4778,1.9127,-5.5747,-3.9530,-1.9688,1.6629,2.1382,
12.806431,0.5923,-1.0205,-0.4053,1.9127,-5.5747,-3.9530,-1.9688,1.6629,2.1382,
12.837218,0.5923,-1.0205,-0.4053,1.9127,-5.5747,-3.9530,-1.1603,0.2269,1.8634,
12.840182,0.5923,-1.0205,-0.4053,3.5799,0.0925,0.0386,-1.1603,0.2269,1.8634,
12.877962,0.5923,-1.0205,-0.4053,3.5799,0.0925,0.0386,-0.4966,-1.0727,1.6834,
12.880391,0.5923,-1.0205,-0.4053,4.4722,-0.1482,-0.8173,-0.4966,-1.0727,1.6834,
12.881714,0.5278,-1.0498,-0.3388,4.4722,-0.1482,-0.8173,-0.4966,-1.0727,1.6834,
12.883148,0.4638,-0.9306,-0.6154,4.4722,-0.1482,-0.8173,-0.4966,-1.0727,1.6834,
12.884270,0.4181,-0.8302,-0.6618,4.4722,-0.1482,-0.8173,-0.4966,-1.0727,1.6834,
12.885639,0.1770,-0.6714,-0.3310,4.4722,-0.1482,-0.8173,-0.4966,-1.0727,1.6834,
12.916656,0.1770,-0.6714,-0.3310,4.4722,-0.1482,-0.8173,0.2427,-1.6394,1.5470,
12.919125,0.1770,-0.6714,-0.3310,5.2254,-0.1208,-0.9089,0.2427,-1.6394,1.5470,
12.956004,0.1770,-0.6714,-0.3310,5.2254,-0.1208,-0.9089,1.1908,-1.4733,1.3979,
12.959081,0.1770,-0.6714,-0.3310,1.2513,3.5758,2.4297,1.1908,-1.4733,1.3979,
12.960411,-0.0929,-0.5282,-0.0376,1.2513,3.5758,2.4297,1.1908,-1.4733,1.3979,
12.961626,-0.1135,-0.5036,-0.0630,1.2513,3.5758,2.4297,1.1908,-1.4733,1.3979,
12.962782,0.0160,-0.5922,-0.1861,1.2513,3.5758,2.4297,1.1908,-1.4733,1.3979,
12.963944,0.1003,-0.6162,-0.2555,1.2513,3.5758,2.4297,1.1908,-1.4733,1.3979,
12.995641,0.1003,-0.6162,-0.2555,1.6557,3.6896,1.7443,1.1908,-1.4733,1.3979,
12.999081,0.1003,-0.6162,-0.2555,1.6557,3.6896,1.7443,1.5678,-1.3188,0.6799,
13.035137,0.1003,-0.6162,-0.2555,1.6557,3.6896,1.7443,1.3857,-1.3987,0.1025,
13.036811,0.1003,-0.6162,-0.2555,2.1692,3.6360,0.3843,1.3857,-1.3987,0.1025,
13.040565,-0.0370,-0.5380,-0.2157,2.1692,3.6360,0.3843,1.3857,-1.3987,0.1025,
13.042352,-0.2906,-0.5558,-0.5496,2.1692,3.6360,0.3843,1.3857,-1.3987,0.1025,
13.043640,-0.5215,-0.7357,-1.0307,2.1692,3.6360,0.3843,1.3857,-1.3987,0.1025,
13.044828,-0.2886,-1.1297,-0.7031,2.1692,3.6360,0.3843,1.3857,-1.3987,0.1025,
13.075029,-0.2886,-1.1297,-0.7031,2.1692,3.6360,0.3843,0.3172,-0.7947,0.2229,
13.077582,-0.2886,-1.1297,-0.7031,-1.5014,1.4208,-5.0224,0.3172,-0.7947,0.2229,
13.114693,-0.2886,-1.1297,-0.7031,-1.5014,1.4208,-5.0224,-0.1046,-1.9334,-0.1446,
13.117028,-0.2886,-1.1297,-0.7031,5.7960,-3.9858,-0.8804,-0.1046,-1.9334,-0.1446,
13.118467,0.1157,-1.4656,-0.3652,5.7960,-3.9858,-0.8804,-0.1046,-1.9334,-0.1446,
13.119616,0.1472,-1.5003,-0.6630,5.7960,-3.9858,-0.8804,-0.1046,-1.9334,-0.1446,
13.120760,0.8613,-1.1319,0.0472,5.7960,-3.9858,-0.8804,-0.1046,-1.9334,-0.1446,
13.122110,1.5774,-0.7481,0.2409,5.7960,-3.9858,-0.8804,-0.1046,-1.9334,-0.1446,
13.154607,1.5774,-0.7481,0.2409,5.7960,-3.9858,-0.8804,0.3875,-2.2349,-1.1055,
13.157326,1.5774,-0.7481,0.2409,5.4810,-3.7997,-1.1865,0.3875,-2.2349,-1.1055,
13.186087,0.8564,-0.9265,-0.1763,5.4810,-3.7997,-1.1865,0.3875,-2.2349,-1.1055,
13.189395,-0.3143,-1.6073,-0.0574,5.4810,-3.7997,-1.1865,0.3875,-2.2349,-1.1055,
13.190724,-0.6143,-1.9110,0.1244,5.4810,-3.7997,-1.1865,0.3875,-2.2349,-1.1055,
13.193034,-0.6143,-1.9110,0.1244,5.4810,-3.7997,-1.1865,1.1875,-1.6810,-1.6722,
13.194440,-0.6143,-1.9110,0.1244,8.0723,-0.9339,1.4556,1.1875,-1.6810,-1.6722,
13.234019,-0.6143,-1.9110,0.1244,8.0723,-0.9339,1.4556,2.1580,-1.5883,-0.4930,
13.236626,-0.6143,-1.9110,0.1244,-2.1761,-6.2203,-0.5141,2.1580,-1.5883,-0.4930,
13.272217,-0.2838,-1.6078,-0.1033,-2.1761,-6.2203,-0.5141,2.1580,-1.5883,-0.4930,
13.275231,-0.0917,-1.4456,-0.3413,-2.1761,-6.2203,-0.5141,2.1580,-1.5883,-0.4930,
13.276360,0.0578,-1.3777,-0.5919,-2.1761,-6.2203,-0.5141,2.1580,-1.5883,-0.4930,
13.277583,0.1951,-1.2267,-0.8184,-2.1761,-6.2203,-0.5141,2.1580,-1.5883,-0.4930,
13.279516,0.1951,-1.2267,-0.8184,-2.1761,-6.2203,-0.5141,1.9268,-1.8141,0.0407,
13.280868,0.1951,-1.2267,-0.8184,-2.1171,-6.1099,-1.3312,1.9268,-1.8141,0.0407,
13.312997,0.1951,-1.2267,-0.8184,-2.1171,-6.1099,-1.3312,-0.0237,-1.8013,0.1387,
13.315503,0.1951,-1.2267,-0.8184,2.4644,-1.6728,-7.8995,-0.0237,-1.8013,0.1387,
13.352800,0.1951,-1.2267,-0.8184,2.4644,-1.6728,-7.8995,-2.4429,-0.2461,0.7715,
13.355212,0.1951,-1.2267,-0.8184,2.7239,-1.7069,-6.8164,-2.4429,-0.2461,0.7715,
13.356476,0.1641,-1.0088,-0.9398,2.7239,-1.7069,-6.8164,-2.4429,-0.2461,0.7715,
13.357888,-0.1330,-0.8747,-0.9437,2.7239,-1.7069,-6.8164,-2.4429,-0.2461,0.7715,
13.359145,-0.1181,-0.6800,-1.1450,2.7239,-1.7069,-6.8164,-2.4429,-0.2461,0.7715,
13.360096,0.2513,-0.3809,-0.0537,2.7239,-1.7069,-6.8164,-2.4429,-0.2461,0.7715,
13.361431,0.0922,-0.2475,0.7295,2.7239,-1.7069,-6.8164,-2.4429,-0.2461,0.7715,
13.392084,0.0922,-0.2475,0.7295,2.7239,-1.7069,-6.8164,-3.2493,-0.0543,0.3848,
13.394583,0.0922,-0.2475,0.7295,1.4924,3.4984,-4.7721,-3.2493,-0.0543,0.3848,
13.431534,0.0922,-0.2475,0.7295,1.4924,3.4984,-4.7721,-2.2053,-3.7412,-0.4013,
13.434628,0.0922,-0.2475,0.7295,3.1865,7.0112,8.2715,-2.2053,-3.7412,-0.4013,
13.436199,0.1462,-0.1571,0.3751,3.1865,7.0112,8.2715,-2.2053,-3.7412,-0.4013,
13.437502,0.2242,-0.3584,0.6020,3.1865,7.0112,8.2715,-2.2053,-3.7412,-0.4013,
13.438948,0.2999,-0.8742,0.0961,3.1865,7.0112,8.2715,-2.2053,-3.7412,-0.4013,
13.440154,0.7499,-1.9372,-0.5804,3.1865,7.0112,8.2715,-2.2053,-3.7412,-0.4013,
13.470976,0.7499,-1.9372,-0.5804,3.1865,7.0112,8.2715,-2.3662,-2.8432,-0.4898,
13.473557,0.7499,-1.9372,-0.5804,3.2881,6.6483,8.8042,-2.3662,-2.8432,-0.4898,
13.511206,0.7499,-1.9372,-0.5804,3.2881,6.6483,8.8042,-2.4344,0.5550,-1.8874,
13.514637,0.7499,-1.9372,-0.5804,5.7734,-9.0370,0.4200,-2.4344,0.5550,-1.8874,
13.516009,0.4377,-2.7248,-0.6474,5.7734,-9.0370,0.4200,-2.4344,0.5550,-1.8874,
13.517275,-0.0358,-1.9122,0.0457,5.7734,-9.0370,0.4200,-2.4344,0.5550,-1.8874,
13.518755,0.0058,-1.0513,0.3176,5.7734,-9.0370,0.4200,-2.4344,0.5550,-1.8874,
13.519946,-0.2359,-1.0447,-0.0388,5.7734,-9.0370,0.4200,-2.4344,0.5550,-1.8874,
13.550392,-0.2359,-1.0447,-0.0388,5.7734,-9.0370,0.4200,-1.1550,-0.7435,-2.1409,
13.552798,-0.2359,-1.0447,-0.0388,-0.5744,-4.1243,5.4804,-1.1550,-0.7435,-2.1409,
13.582567,-0.3160,-1.2946,-0.3031,-0.5744,-4.1243,5.4804,-1.1550,-0.7435,-2.1409,
13.585153,-0.2713,-1.3765,-0.3684,-0.5744,-4.1243,5.4804,-1.1550,-0.7435,-2.1409,
13.586477,-0.0157,-1.0022,-0.2594,-0.5744,-4.1243,5.4804,-1.1550,-0.7435,-2.1409,
13.590282,-0.0157,-1.0022,-0.2594,-0.5744,-4.1243,5.4804,-0.6138,-1.7481,-0.8914,
13.591937,-0.0157,-1.0022,-0.2594,-1.6481,-3.0795,1.5531,-0.6138,-1.7481,-0.8914,
13.630395,-0.0157,-1.0022,-0.2594,-1.6481,-3.0795,1.5531,-0.1760,-0.8522,-0.2479,
13.632939,-0.0157,-1.0022,-0.2594,-0.1844,4.2998,8.9199,-0.1760,-0.8522,-0.2479,
13.669214,-0.0157,-1.0022,-0.2594,-0.3690,4.4789,8.2542,-0.1760,-0.8522,-0.2479,
13.671730,-0.0157,-1.0022,-0.2594,-0.3690,4.4789,8.2542,1.5061,0.7883,-0.1691,
13.673123,0.0114,-0.6768,0.0675,-0.3690,4.4789,8.2542,1.5061,0.7883,-0.1691,
13.674464,-0.0541,-0.4564,0.4953,-0.3690,4.4789,8.2542,1.5061,0.7883,-0.1691,
13.675717,-0.1342,-0.2500,0.7923,-0.3690,4.4789,8.2542,1.5061,0.7883,-0.1691,
13.676841,-0.2478,-0.1698,0.6682,-0.3690,4.4789,8.2542,1.5061,0.7883,-0.1691,
13.678121,-0.1636,-0.2436,0.2563,-0.3690,4.4789,8.2542,1.5061,0.7883,-0.1691,
13.708846,-0.1636,-0.2436,0.2563,-0.3690,4.4789,8.2542,2.8675,1.2293,0.1515,
13.711269,-0.1636,-0.2436,0.2563,-0.4674,4.7735,7.0965,2.8675,1.2293,0.1515,
13.749278,-0.1636,-0.2436,0.2563,-0.4674,4.7735,7.0965,2.5021,1.2826,-0.5089,
13.752428,-0.1636,-0.2436,0.2563,-1.5888,6.6069,4.2779,2.5021,1.2826,-0.5089,
13.753744,-0.0248,-0.4408,-0.1243,-1.5888,6.6069,4.2779,2.5021,1.2826,-0.5089,
13.755052,0.3319,-0.7232,-0.2198,-1.5888,6.6069,4.2779,2.5021,1.2826,-0.5089,
13.756321,0.5124,-1.1300,-0.5501,-1.5888,6.6069,4.2779,2.5021,1.2826,-0.5089,
13.757625,0.1132,-1.7617,-1.5235,-1.5888,6.6069,4.2779,2.5021,1.2826,-0.5089,
13.788798,0.1132,-1.7617,-1.5235,-1.5888,6.6069,4.2779,0.1990,1.7183,-1.2418,
13.791602,0.1132,-1.7617,-1.5235,2.3561,-2.3802,-5.8332,0.1990,1.7183,-1.2418,
13.827914,0.1132,-1.7617,-1.5235,2.3561,-2.3802,-5.8332,-0.9653,1.5446,-0.3289,
13.830255,0.1132,-1.7617,-1.5235,-10.8459,-7.9309,-0.1869,-0.9653,1.5446,-0.3289,
13.832416,-0.9773,-2.2064,-1.2259,-10.8459,-7.9309,-0.1869,-0.9653,1.5446,-0.3289,
13.833795,-1.2172,-2.0495,0.0853,-10.8459,-7.9309,-0.1869,-0.9653,1.5446,-0.3289,
13.835820,-0.8747,-1.0748,0.4818,-10.8459,-7.9309,-0.1869,-0.9653,1.5446,-0.3289,
13.837063,-0.7570,-0.3704,0.5583,-10.8459,-7.9309,-0.1869,-0.9653,1.5446,-0.3289,
13.867149,-0.7570,-0.3704,0.5583,-10.8459,-7.9309,-0.1869,-0.2570,4.6616,0.7619,
13.869709,-0.7570,-0.3704,0.5583,-10.7399,-7.7924,-0.2481,-0.2570,4.6616,0.7619,
13.906942,-0.7570,-0.3704,0.5583,-10.7399,-7.7924,-0.2481,0.3162,4.3186,1.6653,
13.909246,-0.7570,-0.3704,0.5583,-4.1435,0.1804,4.6048,0.3162,4.3186,1.6653,
13.910124,-0.7035,-0.9751,0.2588,-4.1435,0.1804,4.6048,0.3162,4.3186,1.6653,
13.910813,0.2887,-1.5619,0.1014,-4.1435,0.1804,4.6048,0.3162,4.3186,1.6653,
13.911904,1.2102,-1.6127,0.0416,-4.1435,0.1804,4.6048,0.3162,4.3186,1.6653,
13.912660,1.4501,-1.2932,-0.5716,-4.1435,0.1804,4.6048,0.3162,4.3186,1.6653,
13.945574,1.4501,-1.2932,-0.5716,-4.1435,0.1804,4.6048,0.5196,3.1404,0.1089,
13.947174,1.4501,-1.2932,-0.5716,-4.2167,0.2081,4.2898,0.5196,3.1404,0.1089,
13.988057,1.4501,-1.2932,-0.5716,-4.2167,0.2081,4.2898,0.3662,2.2349,-0.3641,
13.990488,1.4501,-1.2932,-0.5716,10.4512,-2.9428,-2.0830,0.3662,2.2349,-0.3641,
13.991915,0.7878,-0.9844,-0.4566,10.4512,-2.9428,-2.0830,0.3662,2.2349,-0.3641,
13.994182,0.2830,-0.8334,-0.1255,10.4512,-2.9428,-2.0830,0.3662,2.2349,-0.3641,
13.995487,0.0954,-0.7547,-0.1851,10.4512,-2.9428,-2.0830,0.3662,2.2349,-0.3641,
13.996724,0.0607,-0.7452,-0.3755,10.4512,-2.9428,-2.0830,0.3662,2.2349,-0.3641,
14.026163,0.0607,-0.7452,-0.3755,10.4512,-2.9428,-2.0830,0.5463,1.3699,-0.0072,
14.029319,0.0607,-0.7452,-0.3755,0.5542,2.1288,-1.3366,0.5463,1.3699,-0.0072,
14.065829,0.0607,-0.7452,-0.3755,0.5542,2.1288,-1.3366,0.2192,0.0000,0.3625,
14.068249,0.0607,-0.7452,-0.3755,1.5937,-0.3379,-2.2655,0.2192,0.0000,0.3625,
14.069673,0.1223,-0.8671,-0.3679,1.5937,-0.3379,-2.2655,0.2192,0.0000,0.3625,
14.070941,0.2505,-1.0767,-0.3198,1.5937,-0.3379,-2.2655,0.2192,0.0000,0.3625,
14.072476,0.3500,-1.1522,-0.2685,1.5937,-0.3379,-2.2655,0.2192,0.0000,0.3625,
14.073768,0.3527,-1.0203,-0.2289,1.5937,-0.3379,-2.2655,0.2192,0.0000,0.3625,
14.105416,0.3527,-1.0203,-0.2289,1.5937,-0.3379,-2.2655,-0.0396,-1.0503,0.3294,
14.108146,0.3527,-1.0203,-0.2289,1.7283,-0.3248,-2.1850,-0.0396,-1.0503,0.3294,
14.145224,0.3527,-1.0203,-0.2289,1.7283,-0.3248,-2.1850,-0.1771,-1.6959,0.2890,
14.147986,0.3527,-1.0203,-0.2289,2.6975,0.7708,-0.7043,-0.1771,-1.6959,0.2890,
14.149488,0.3138,-0.8749,-0.1981,2.6975,0.7708,-0.7043,-0.1771,-1.6959,0.2890,
14.150817,0.3124,-0.8612,-0.1116,2.6975,0.7708,-0.7043,-0.1771,-1.6959,0.2890,
14.152110,0.3358,-0.9199,0.0193,2.6975,0.7708,-0.7043,-0.1771,-1.6959,0.2890,
14.153288,0.3329,-0.9910,0.0450,2.6975,0.7708,-0.7043,-0.1771,-1.6959,0.2890,
14.184588,0.3329,-0.9910,0.0450,2.6975,0.7708,-0.7043,0.0541,-1.7076,-0.0413,
14.187120,0.3329,-0.9910,0.0450,2.7079,0.7595,-0.6825,0.0541,-1.7076,-0.0413,
14.224603,0.3329,-0.9910,0.0450,2.7079,0.7595,-0.6825,0.2107,-1.2645,-0.2863,
14.227102,0.3329,-0.9910,0.0450,2.3579,0.1094,1.2976,0.2107,-1.2645,-0.2863,
14.228630,0.2330,-1.0449,0.0272,2.3579,0.1094,1.2976,0.2107,-1.2645,-0.2863,
14.229887,0.0597,-1.0362,-0.0019,2.3579,0.1094,1.2976,0.2107,-1.2645,-0.2863,
14.230889,-0.1286,-1.0105,-0.0371,2.3579,0.1094,1.2976,0.2107,-1.2645,-0.2863,
14.232059,-0.2334,-0.9328,-0.0635,2.3579,0.1094,1.2976,0.2107,-1.2645,-0.2863,
14.263998,-0.2334,-0.9328,-0.0635,-1.5178,0.0323,0.6617,0.2107,-1.2645,-0.2863,
14.266743,-0.2334,-0.9328,-0.0635,-1.5178,0.0323,0.6617,0.0296,-0.8863,-0.0093,
14.303805,-0.2334,-0.9328,-0.0635,-1.5178,0.0323,0.6617,-0.2261,-0.6360,0.4391,
14.306245,-0.2334,-0.9328,-0.0635,-1.8561,0.8602,0.0173,-0.2261,-0.6360,0.4391,
14.307248,-0.2432,-0.8686,-0.0769,-1.8561,0.8602,0.0173,-0.2261,-0.6360,0.4391,
14.308462,-0.1899,-0.8918,-0.1053,-1.8561,0.8602,0.0173,-0.2261,-0.6360,0.4391,
14.309627,-0.0424,-0.9607,-0.1478,-1.8561,0.8602,0.0173,-0.2261,-0.6360,0.4391,
14.310769,0.1406,-1.0029,-0.1233,-1.8561,0.8602,0.0173,-0.2261,-0.6360,0.4391,
14.342986,0.1406,-1.0029,-0.1233,-1.8561,0.8602,0.0173,-0.4157,-0.4964,0.4828,
14.345358,0.1406,-1.0029,-0.1233,-1.6192,0.8305,0.1788,-0.4157,-0.4964,0.4828,
14.383574,0.2552,-1.0354,-0.0601,-1.6192,0.8305,0.1788,-0.4157,-0.4964,0.4828,
14.386437,0.2581,-1.0933,0.0052,-1.6192,0.8305,0.1788,-0.4157,-0.4964,0.4828,
14.387614,0.1406,-1.0733,0.0189,-1.6192,0.8305,0.1788,-0.4157,-0.4964,0.4828,
14.388809,0.1406,-1.0733,0.0189,-1.6192,0.8305,0.1788,-0.4029,-0.0447,-0.0146,
14.390096,0.1406,-1.0733,0.0189,2.0324,-0.5235,0.8156,-0.4029,-0.0447,-0.0146,
14.422631,0.1406,-1.0733,0.0189,2.0324,-0.5235,0.8156,-0.2037,0.5678,-0.4440,
14.425483,0.1406,-1.0733,0.0189,-0.8908,-0.4403,1.9096,-0.2037,0.5678,-0.4440,
14.462283,0.1406,-1.0733,0.0189,-0.8908,-0.4403,1.9096,-0.1014,0.7723,-0.1680,
14.465511,0.1406,-1.0733,0.0189,-0.9833,-0.4409,1.9053,-0.1014,0.7723,-0.1680,
14.467069,-0.0534,-1.0362,0.0760,-0.9833,-0.4409,1.9053,-0.1014,0.7723,-0.1680,
14.468596,-0.2706,-0.9944,0.0491,-0.9833,-0.4409,1.9053,-0.1014,0.7723,-0.1680,
14.469901,-0.4164,-0.9172,-0.2066,-0.9833,-0.4409,1.9053,-0.1014,0.7723,-0.1680,
14.471304,-0.3751,-0.8348,-0.4087,-0.9833,-0.4409,1.9053,-0.1014,0.7723,-0.1680,
14.473001,-0.1589,-0.7623,-0.3271,-0.9833,-0.4409,1.9053,-0.1014,0.7723,-0.1680,
14.501358,-0.1589,-0.7623,-0.3271,-0.9833,-0.4409,1.9053,-0.3709,0.9034,0.1334,
14.504206,-0.1589,-0.7623,-0.3271,-3.4333,1.4405,-1.4902,-0.3709,0.9034,0.1334,
14.541290,-0.1589,-0.7623,-0.3271,-3.4333,1.4405,-1.4902,-0.3038,1.5872,-0.2064,
14.543734,-0.1589,-0.7623,-0.3271,-2.2642,2.5308,-1.1199,-0.3038,1.5872,-0.2064,
14.545266,-0.0971,-0.7269,-0.2787,-2.2642,2.5308,-1.1199,-0.3038,1.5872,-0.2064,
14.546411,-0.1997,-0.7149,-0.3281,-2.2642,2.5308,-1.1199,-0.3038,1.5872,-0.2064,
14.547786,-0.2517,-0.7186,-0.2557,-2.2642,2.5308,-1.1199,-0.3038,1.5872,-0.2064,
14.549482,-0.2574,-0.8615,-0.0708,-2.2642,2.5308,-1.1199,-0.3038,1.5872,-0.2064,
14.580936,-0.2574,-0.8615,-0.0708,-2.2642,2.5308,-1.1199,0.1500,2.0837,-0.4184,
14.583683,-0.2574,-0.8615,-0.0708,-2.5173,2.4880,-1.2074,0.1500,2.0837,-0.4184,
14.620497,-0.2574,-0.8615,-0.0708,-2.5173,2.4880,-1.2074,0.2842,2.5577,-0.1489,
14.623668,-0.2574,-0.8615,-0.0708,-3.0235,-0.0119,1.2002,0.2842,2.5577,-0.1489,
14.625123,-0.2371,-1.0173,0.0528,-3.0235,-0.0119,1.2002,0.2842,2.5577,-0.1489,
14.626412,-0.1604,-1.0506,-0.0422,-3.0235,-0.0119,1.2002,0.2842,2.5577,-0.1489,
14.627662,-0.2046,-1.3125,-0.5460,-3.0235,-0.0119,1.2002,0.2842,2.5577,-0.1489,
14.629062,-0.1330,-1.6086,-0.7725,-3.0235,-0.0119,1.2002,0.2842,2.5577,-0.1489,
14.660057,-0.1330,-1.6086,-0.7725,-3.0235,-0.0119,1.2002,-0.7502,2.6014,0.3369,
14.662434,-0.1330,-1.6086,-0.7725,-2.9959,-0.0430,1.3670,-0.7502,2.6014,0.3369,
14.699875,-0.1330,-1.6086,-0.7725,-2.9959,-0.0430,1.3670,-0.0918,2.8773,0.5233,
14.702511,-0.1330,-1.6086,-0.7725,-2.0092,-2.7813,-2.5805,-0.0918,2.8773,0.5233,
14.704124,-0.0319,-0.8647,0.0555,-2.0092,-2.7813,-2.5805,-0.0918,2.8773,0.5233,
14.705485,0.0202,-0.5825,0.2302,-2.0092,-2.7813,-2.5805,-0.0918,2.8773,0.5233,
14.706706,0.2466,-0.9841,0.3992,-2.0092,-2.7813,-2.5805,-0.0918,2.8773,0.5233,
14.708052,0.3043,-1.3704,0.4542,-2.0092,-2.7813,-2.5805,-0.0918,2.8773,0.5233,
14.738588,0.3043,-1.3704,0.4542,-2.0092,-2.7813,-2.5805,0.9979,2.9561,0.5105,
14.740568,0.3043,-1.3704,0.4542,1.0823,0.0576,4.5351,0.9979,2.9561,0.5105,
14.779984,0.5425,-1.6178,0.3015,1.0823,0.0576,4.5351,0.9979,2.9561,0.5105,
14.783149,0.7856,-1.5912,-0.2963,1.0823,0.0576,4.5351,0.9979,2.9561,0.5105,
14.784724,0.5190,-1.2822,-0.5052,1.0823,0.0576,4.5351,0.9979,2.9561,0.5105,
14.786076,0.5190,-1.2822,-0.5052,1.0823,0.0576,4.5351,1.7820,1.9111,-0.0359,
14.787492,0.5190,-1.2822,-0.5052,5.0989,-4.8943,-1.3589,1.7820,1.9111,-0.0359,
14.818558,0.5190,-1.2822,-0.5052,5.0989,-4.8943,-1.3589,1.2706,1.1175,-0.3864,
14.820439,0.5190,-1.2822,-0.5052,-0.8598,-1.2499,-3.0917,1.2706,1.1175,-0.3864,
14.858909,0.5190,-1.2822,-0.5052,-0.8598,-1.2499,-3.0917,1.1258,1.4893,0.0141,
14.861719,0.5190,-1.2822,-0.5052,-0.8126,-1.2486,-3.5312,1.1258,1.4893,0.0141,
14.863013,0.1738,-1.1016,-0.3029,-0.8126,-1.2486,-3.5312,1.1258,1.4893,0.0141,
14.864138,0.0204,-1.0843,-0.2154,-0.8126,-1.2486,-3.5312,1.1258,1.4893,0.0141,
14.865722,-0.1296,-1.1915,-0.3640,-0.8126,-1.2486,-3.5312,1.1258,1.4893,0.0141,
14.866859,-0.1223,-1.1473,-0.5416,-0.8126,-1.2486,-3.5312,1.1258,1.4893,0.0141,
14.868234,-0.0194,-0.9968,-0.5983,-0.8126,-1.2486,-3.5312,1.1258,1.4893,0.0141,
14.897621,-0.0194,-0.9968,-0.5983,-0.8126,-1.2486,-3.5312,0.6517,1.7044,0.7641,
14.899733,-0.0194,-0.9968,-0.5983,-0.4531,-1.2230,-3.7785,0.6517,1.7044,0.7641,
14.937633,-0.0194,-0.9968,-0.5983,-0.4531,-1.2230,-3.7785,-0.9334,1.0866,1.2360,
14.940336,-0.0194,-0.9968,-0.5983,-0.3627,-0.1326,-6.5601,-0.9334,1.0866,1.2360,
14.941836,0.0742,-0.9145,-0.7336,-0.3627,-0.1326,-6.5601,-0.9334,1.0866,1.2360,
14.943109,0.3175,-0.8265,-0.8729,-0.3627,-0.1326,-6.5601,-0.9334,1.0866,1.2360,
14.944266,0.3974,-0.7581,-0.8365,-0.3627,-0.1326,-6.5601,-0.9334,1.0866,1.2360,
14.945563,0.2977,-0.7787,-0.5176,-0.3627,-0.1326,-6.5601,-0.9334,1.0866,1.2360,
14.977019,0.2977,-0.7787,-0.5176,-0.3627,-0.1326,-6.5601,-2.7912,-0.8948,1.3819,
14.980626,0.2977,-0.7787,-0.5176,3.6522,2.0849,-6.5220,-2.7912,-0.8948,1.3819,
15.016722,0.2977,-0.7787,-0.5176,3.6522,2.0849,-6.5220,-3.8224,-1.9164,0.9313,
15.019554,0.2977,-0.7787,-0.5176,6.3349,0.3534,1.4699,-3.8224,-1.9164,0.9313,
15.021177,0.3202,-0.7718,-0.2259,6.3349,0.3534,1.4699,-3.8224,-1.9164,0.9313,
15.022473,0.6097,-0.7928,0.0973,6.3349,0.3534,1.4699,-3.8224,-1.9164,0.9313,
15.023551,0.7922,-1.2524,-0.0798,6.3349,0.3534,1.4699,-3.8224,-1.9164,0.9313,
15.024796,0.8899,-2.0354,0.0145,6.3349,0.3534,1.4699,-3.8224,-1.9164,0.9313,
15.055900,0.8899,-2.0354,0.0145,6.3349,0.3534,1.4699,-3.6732,-2.3063,-0.1073,
15.057885,0.8899,-2.0354,0.0145,6.4455,-0.0496,2.7109,-3.6732,-2.3063,-0.1073,
15.097210,0.8899,-2.0354,0.0145,6.4455,-0.0496,2.7109,-2.1382,-1.8504,-1.1055,
15.100046,0.8899,-2.0354,0.0145,7.9196,-10.2586,7.2638,-2.1382,-1.8504,-1.1055,
15.102042,0.8418,-2.2108,0.4874,7.9196,-10.2586,7.2638,-2.1382,-1.8504,-1.1055,
15.103785,0.5183,-1.6626,0.5050,7.9196,-10.2586,7.2638,-2.1382,-1.8504,-1.1055,
15.105350,0.3246,-1.3535,0.3897,7.9196,-10.2586,7.2638,-2.1382,-1.8504,-1.1055,
15.106767,0.3544,-1.2475,0.4198,7.9196,-10.2586,7.2638,-2.1382,-1.8504,-1.1055,
15.135961,0.3544,-1.2475,0.4198,7.9196,-10.2586,7.2638,-0.4764,-1.6554,-1.3324,
15.139229,0.3544,-1.2475,0.4198,7.5844,-10.1384,7.2793,-0.4764,-1.6554,-1.3324,
15.174316,0.3544,-1.2475,0.4198,7.5844,-10.1384,7.2793,0.6059,-3.8605,-1.1630,
15.176248,0.3544,-1.2475,0.4198,4.0903,-2.9030,7.2433,0.6059,-3.8605,-1.1630,
15.177003,0.4707,-1.1402,0.3057,4.0903,-2.9030,7.2433,0.6059,-3.8605,-1.1630,
15.178345,0.4186,-1.0059,0.3948,4.0903,-2.9030,7.2433,0.6059,-3.8605,-1.1630,
15.179008,0.2376,-0.7789,0.5690,4.0903,-2.9030,7.2433,0.6059,-3.8605,-1.1630,
15.179589,0.1511,-0.5451,0.5287,4.0903,-2.9030,7.2433,0.6059,-3.8605,-1.1630,
15.214787,0.1511,-0.5451,0.5287,4.0903,-2.9030,7.2433,1.0746,-5.1580,-0.8903,
15.217044,0.1511,-0.5451,0.5287,3.2723,1.8364,7.8398,1.0746,-5.1580,-0.8903,
15.255268,0.1511,-0.5451,0.5287,3.2723,1.8364,7.8398,1.1748,-5.5394,-0.4748,
15.259072,0.1511,-0.5451,0.5287,2.1909,5.6253,7.0898,1.1748,-5.5394,-0.4748,
15.260365,0.0815,-0.3438,0.4799,2.1909,5.6253,7.0898,1.1748,-5.5394,-0.4748,
15.261742,0.0905,-0.2976,0.5639,2.1909,5.6253,7.0898,1.1748,-5.5394,-0.4748,
15.262991,0.1917,-0.5419,0.4479,2.1909,5.6253,7.0898,1.1748,-5.5394,-0.4748,
15.264094,0.2420,-0.7073,0.1185,2.1909,5.6253,7.0898,1.1748,-5.5394,-0.4748,
15.294425,0.2420,-0.7073,0.1185,2.1909,5.6253,7.0898,0.5473,-5.1857,-0.5771,
