
time,gFx,gFy,gFz,ax,ay,az,wx,wy,wz,
0.048101,0.0000,0.0000,0.0000,0.0000,0.0000,0.0000,-0.7001,-0.5433,0.1569,
0.083820,0.0000,0.0000,0.0000,0.0000,0.0000,0.0000,-0.0631,-0.8043,-0.3811,
0.085518,0.0878,0.4398,0.8187,0.0000,0.0000,0.0000,-0.0631,-0.8043,-0.3811,
0.086546,0.1666,0.4366,0.9453,0.0000,0.0000,0.0000,-0.0631,-0.8043,-0.3811,
0.087356,0.1470,0.4057,0.9664,0.0000,0.0000,0.0000,-0.0631,-0.8043,-0.3811,
0.088249,0.0892,0.3690,0.9139,0.0000,0.0000,0.0000,-0.0631,-0.8043,-0.3811,
0.088949,0.0174,0.3460,0.8872,0.0000,0.0000,0.0000,-0.0631,-0.8043,-0.3811,
0.124393,0.0174,0.3460,0.8872,0.0000,0.0000,0.0000,-0.0045,-0.9385,-0.4440,
0.127146,0.0174,0.3460,0.8872,0.0000,0.0000,-0.0000,-0.0045,-0.9385,-0.4440,
0.163784,0.0174,0.3460,0.8872,0.0000,0.0000,-0.0000,-0.1387,-0.2301,0.0716,
0.165205,0.0174,0.3460,0.8872,-0.5807,-0.4153,0.2384,-0.1387,-0.2301,0.0716,
0.167304,-0.0425,0.3020,0.9291,-0.5807,-0.4153,0.2384,-0.1387,-0.2301,0.0716,
0.168726,-0.0399,0.2510,0.9801,-0.5807,-0.4153,0.2384,-0.1387,-0.2301,0.0716,
0.170085,0.0088,0.2974,1.0079,-0.5807,-0.4153,0.2384,-0.1387,-0.2301,0.0716,
0.171315,-0.0029,0.2532,1.0787,-0.5807,-0.4153,0.2384,-0.1387,-0.2301,0.0716,
0.206288,-0.0029,0.2532,1.0787,-0.5807,-0.4153,0.2384,0.0978,0.5092,0.6746,
0.208502,-0.0029,0.2532,1.0787,-0.2394,-0.2217,0.1224,0.0978,0.5092,0.6746,
0.232106,0.0472,0.2614,0.9547,-0.2394,-0.2217,0.1224,0.0978,0.5092,0.6746,
0.234336,0.1446,0.4182,0.7111,-0.2394,-0.2217,0.1224,0.0978,0.5092,0.6746,
0.235742,0.0446,0.5972,0.4303,-0.2394,-0.2217,0.1224,0.0978,0.5092,0.6746,
0.245391,0.0446,0.5972,0.4303,0.3700,0.0771,-0.3088,0.0978,0.5092,0.6746,
0.247536,0.0446,0.5972,0.4303,0.3700,0.0771,-0.3088,-0.1834,-0.1395,0.0919,
0.283670,0.0446,0.5972,0.4303,0.3700,0.0771,-0.3088,-0.7054,-1.2890,0.0258,
0.285626,0.0446,0.5972,0.4303,-1.0734,0.6977,-2.3671,-0.7054,-1.2890,0.0258,
0.311869,-0.2367,0.2874,0.7071,-1.0734,0.6977,-2.3671,-0.7054,-1.2890,0.0258,
0.313980,-0.0239,0.2296,0.7521,-1.0734,0.6977,-2.3671,-0.7054,-1.2890,0.0258,
0.315261,0.0518,0.2563,0.7602,-1.0734,0.6977,-2.3671,-0.7054,-1.2890,0.0258,
0.316564,0.0694,0.2092,0.7083,-1.0734,0.6977,-2.3671,-0.7054,-1.2890,0.0258,
0.322250,0.0694,0.2092,0.7083,-1.0734,0.6977,-2.3671,-0.5733,-1.9260,0.4296,
0.324546,0.0694,0.2092,0.7083,-1.3304,0.6785,-1.7828,-0.5733,-1.9260,0.4296,
0.362155,0.0694,0.2092,0.7083,-1.3304,0.6785,-1.7828,-0.5041,-1.1782,1.0357,
0.364157,0.0694,0.2092,0.7083,-0.3080,-0.9498,0.0141,-0.5041,-1.1782,1.0357,
0.387997,0.1019,0.0173,0.9774,-0.3080,-0.9498,0.0141,-0.5041,-1.1782,1.0357,
0.390063,0.1079,-0.1863,0.7784,-0.3080,-0.9498,0.0141,-0.5041,-1.1782,1.0357,
0.391653,0.1934,-0.2003,0.6804,-0.3080,-0.9498,0.0141,-0.5041,-1.1782,1.0357,
0.393360,0.2911,-0.1003,0.5430,-0.3080,-0.9498,0.0141,-0.5041,-1.1782,1.0357,
0.401950,0.2911,-0.1003,0.5430,-0.1994,-3.4423,-0.9998,-0.5041,-1.1782,1.0357,
0.403607,0.2911,-0.1003,0.5430,-0.1994,-3.4423,-0.9998,0.4003,-3.0786,1.7665,
0.441712,0.2911,-0.1003,0.5430,-0.1994,-3.4423,-0.9998,1.1311,-5.4936,2.0647,
0.443831,0.2911,-0.1003,0.5430,-1.9083,-3.7938,-4.1458,1.1311,-5.4936,2.0647,
0.457358,0.1915,-0.0840,0.2698,-1.9083,-3.7938,-4.1458,1.1311,-5.4936,2.0647,
0.459814,0.1587,-0.2396,0.1100,-1.9083,-3.7938,-4.1458,1.1311,-5.4936,2.0647,
0.461511,0.1492,-0.4403,0.2207,-1.9083,-3.7938,-4.1458,1.1311,-5.4936,2.0647,
0.481172,0.1492,-0.4403,0.2207,-1.9083,-3.7938,-4.1458,1.4347,-5.8749,3.4762,
0.482527,0.1492,-0.4403,0.2207,-2.8930,-3.0126,-2.6394,1.4347,-5.8749,3.4762,
0.521779,0.1492,-0.4403,0.2207,-2.8930,-3.0126,-2.6394,2.6225,-5.7918,5.4012,
0.524191,0.1492,-0.4403,0.2207,-2.5509,-5.7454,-0.2101,2.6225,-5.7918,5.4012,
0.535617,0.1670,-0.5828,0.3755,-2.5509,-5.7454,-0.2101,2.6225,-5.7918,5.4012,
0.537655,0.1704,-0.7299,0.3197,-2.5509,-5.7454,-0.2101,2.6225,-5.7918,5.4012,
0.538791,0.4515,-0.7447,0.2789,-2.5509,-5.7454,-0.2101,2.6225,-5.7918,5.4012,
0.540398,0.8358,-0.7783,0.3071,-2.5509,-5.7454,-0.2101,2.6225,-5.7918,5.4012,
0.541664,1.2374,-0.8024,0.3363,-2.5509,-5.7454,-0.2101,2.6225,-5.7918,5.4012,
0.559963,1.2374,-0.8024,0.3363,-2.5509,-5.7454,-0.2101,3.2723,-4.1108,6.3578,
0.561734,1.2374,-0.8024,0.3363,-2.3495,-4.2122,0.3999,3.2723,-4.1108,6.3578,
0.599846,1.2374,-0.8024,0.3363,-2.3495,-4.2122,0.3999,3.1391,-2.6355,5.7548,
0.602013,1.2374,-0.8024,0.3363,6.9473,-3.6904,0.2378,3.1391,-2.6355,5.7548,
0.613993,1.7115,-0.6886,0.2478,6.9473,-3.6904,0.2378,3.1391,-2.6355,5.7548,
0.616498,2.0452,-0.5274,0.1770,6.9473,-3.6904,0.2378,3.1391,-2.6355,5.7548,
0.617923,2.0836,-0.4784,0.1697,6.9473,-3.6904,0.2378,3.1391,-2.6355,5.7548,
0.619725,2.1655,-0.4841,0.1399,6.9473,-3.6904,0.2378,3.1391,-2.6355,5.7548,
0.640308,2.1655,-0.4841,0.1399,14.0011,-0.5344,-0.9555,3.1391,-2.6355,5.7548,
0.643353,2.1655,-0.4841,0.1399,14.0011,-0.5344,-0.9555,3.3085,-2.6727,4.3497,
0.679184,2.1655,-0.4841,0.1399,14.0011,-0.5344,-0.9555,2.4414,-1.4690,2.8584,
0.681439,2.1655,-0.4841,0.1399,12.8704,1.2034,-7.3304,2.4414,-1.4690,2.8584,
0.683668,2.2346,-0.4581,0.1326,12.8704,1.2034,-7.3304,2.4414,-1.4690,2.8584,
0.684674,2.2028,-0.3567,-0.9745,12.8704,1.2034,-7.3304,2.4414,-1.4690,2.8584,
0.685457,1.7918,-0.2517,-0.8255,12.8704,1.2034,-7.3304,2.4414,-1.4690,2.8584,
0.718552,1.7918,-0.2517,-0.8255,12.8704,1.2034,-7.3304,0.1329,-0.0021,1.7537,
0.720224,1.7918,-0.2517,-0.8255,12.0116,1.5477,-6.6822,0.1329,-0.0021,1.7537,
0.757158,1.7918,-0.2517,-0.8255,12.0116,1.5477,-6.6822,0.1777,-0.1033,0.9420,
0.758747,1.7918,-0.2517,-0.8255,6.4376,2.8328,-1.8796,0.1777,-0.1033,0.9420,
0.760031,1.9079,-0.2121,-0.2597,6.4376,2.8328,-1.8796,0.1777,-0.1033,0.9420,
0.760813,1.5900,-0.2335,0.1188,6.4376,2.8328,-1.8796,0.1777,-0.1033,0.9420,
0.761563,1.1464,-0.2402,-0.1077,6.4376,2.8328,-1.8796,0.1777,-0.1033,0.9420,
0.762416,1.0935,-0.2274,-0.0157,6.4376,2.8328,-1.8796,0.1777,-0.1033,0.9420,
0.796869,1.0935,-0.2274,-0.0157,6.4376,2.8328,-1.8796,0.4962,-0.6509,0.9388,
0.798078,1.0935,-0.2274,-0.0157,6.0557,2.8737,-1.6131,0.4962,-0.6509,0.9388,
0.836926,1.0935,-0.2274,-0.0157,6.0557,2.8737,-1.6131,0.3481,-1.0759,0.8759,
0.838905,1.0935,-0.2274,-0.0157,0.2201,0.5089,0.3615,0.3481,-1.0759,0.8759,
0.839835,0.9539,-0.5164,0.2257,0.2201,0.5089,0.3615,0.3481,-1.0759,0.8759,
0.840534,0.7686,-0.7462,0.0595,0.2201,0.5089,0.3615,0.3481,-1.0759,0.8759,
0.841093,1.1187,-0.7126,0.2367,0.2201,0.5089,0.3615,0.3481,-1.0759,0.8759,
0.841692,1.1485,-0.7028,0.1745,0.2201,0.5089,0.3615,0.3481,-1.0759,0.8759,
0.876265,1.1485,-0.7028,0.1745,0.2201,0.5089,0.3615,0.3119,0.5209,-0.1734,
0.878087,1.1485,-0.7028,0.1745,0.1819,0.4060,0.1014,0.3119,0.5209,-0.1734,
0.915052,1.2496,-0.7221,0.2579,0.1819,0.4060,0.1014,0.3119,0.5209,-0.1734,
0.916804,0.9054,-0.7462,0.0434,0.1819,0.4060,0.1014,0.3119,0.5209,-0.1734,
0.917600,0.1823,-0.6312,-0.3635,0.1819,0.4060,0.1014,0.3119,0.5209,-0.1734,
0.918541,-0.0789,-0.4630,0.0419,0.1819,0.4060,0.1014,0.3119,0.5209,-0.1734,
0.922206,-0.0789,-0.4630,0.0419,0.1819,0.4060,0.1014,0.0530,1.2304,-0.5782,
0.923805,-0.0789,-0.4630,0.0419,-5.4048,-0.8844,-1.9965,0.0530,1.2304,-0.5782,
0.958822,-0.0789,-0.4630,0.0419,-5.4048,-0.8844,-1.9965,-0.1707,-0.0692,0.3422,
0.960619,-0.0789,-0.4630,0.0419,-4.9812,-0.7087,-1.8086,-0.1707,-0.0692,0.3422,
0.994404,0.3458,-0.2279,0.2957,-4.9812,-0.7087,-1.8086,-0.1707,-0.0692,0.3422,
0.995703,0.4222,-0.2688,0.3391,-4.9812,-0.7087,-1.8086,-0.1707,-0.0692,0.3422,
0.996948,0.2946,-0.2994,0.1483,-4.9812,-0.7087,-1.8086,-0.1707,-0.0692,0.3422,
0.997909,0.7034,-0.3213,-0.0389,-4.9812,-0.7087,-1.8086,-0.1707,-0.0692,0.3422,
1.001058,0.7034,-0.3213,-0.0389,-4.9812,-0.7087,-1.8086,0.0339,-0.1821,1.0613,
1.002200,0.7034,-0.3213,-0.0389,-4.2948,2.8548,1.6027,0.0339,-0.1821,1.0613,
1.034521,0.7034,-0.3213,-0.0389,-4.2948,2.8548,1.6027,0.1074,-0.5752,1.3372,
1.036617,0.7034,-0.3213,-0.0389,-3.7624,3.0542,1.6436,0.1074,-0.5752,1.3372,
1.077542,0.7034,-0.3213,-0.0389,-3.7624,3.0542,1.6436,-0.3784,0.1971,1.1071,
1.079588,0.7034,-0.3213,-0.0389,-3.2807,3.1690,1.5720,-0.3784,0.1971,1.1071,
1.094394,0.5354,-0.5507,0.0137,-3.2807,3.1690,1.5720,-0.3784,0.1971,1.1071,
1.113861,0.5354,-0.5507,0.0137,-3.2807,3.1690,1.5720,-0.8098,0.0554,0.7960,
1.115288,0.5354,-0.5507,0.0137,-2.8998,3.1948,1.6374,-0.8098,0.0554,0.7960,
1.155647,0.5354,-0.5507,0.0137,-2.8998,3.1948,1.6374,-0.9888,-0.9694,0.5787,
1.157833,0.5354,-0.5507,0.0137,-1.4803,-0.9180,0.2919,-0.9888,-0.9694,0.5787,
1.183244,0.4927,-0.7469,0.0421,-1.4803,-0.9180,0.2919,-0.9888,-0.9694,0.5787,
1.185316,0.4074,-0.8278,0.1764,-1.4803,-0.9180,0.2919,-0.9888,-0.9694,0.5787,
1.186763,0.4377,-1.1539,0.0047,-1.4803,-0.9180,0.2919,-0.9888,-0.9694,0.5787,
1.188123,0.5036,-1.8553,-0.2196,-1.4803,-0.9180,0.2919,-0.9888,-0.9694,0.5787,
1.193999,0.5036,-1.8553,-0.2196,-1.4803,-0.9180,0.2919,-0.5946,-0.6051,0.4498,
1.195409,0.5036,-1.8553,-0.2196,-1.2986,-0.7544,0.5472,-0.5946,-0.6051,0.4498,
1.234365,0.5036,-1.8553,-0.2196,-1.2986,-0.7544,0.5472,0.5729,-0.3782,0.7364,
1.236374,0.5036,-1.8553,-0.2196,-0.7883,-8.8050,-0.4827,0.5729,-0.3782,0.7364,
1.273776,0.5811,-1.7903,0.1398,-0.7883,-8.8050,-0.4827,0.5729,-0.3782,0.7364,
1.276364,0.6033,-1.2406,-0.0449,-0.7883,-8.8050,-0.4827,0.5729,-0.3782,0.7364,
1.278253,0.3104,-1.1615,-0.2433,-0.7883,-8.8050,-0.4827,0.5729,-0.3782,0.7364,
1.280182,0.3104,-1.1615,-0.2433,-0.7883,-8.8050,-0.4827,0.5526,-1.1888,1.8815,
1.281653,0.3104,-1.1615,-0.2433,-0.2547,-7.9324,-0.3571,0.5526,-1.1888,1.8815,
1.313177,0.3104,-1.1615,-0.2433,-0.2547,-7.9324,-0.3571,-1.2583,-1.0035,0.7513,
1.315197,0.3104,-1.1615,-0.2433,-1.4855,-3.6550,-1.4950,-1.2583,-1.0035,0.7513,
1.353086,0.1338,-1.1935,-0.3425,-1.4855,-3.6550,-1.4950,-1.2583,-1.0035,0.7513,
1.354943,0.3297,-1.0489,-0.3430,-1.4855,-3.6550,-1.4950,-1.2583,-1.0035,0.7513,
1.357321,0.5347,-0.8358,-0.1248,-1.4855,-3.6550,-1.4950,-1.2583,-1.0035,0.7513,
1.358566,0.1018,-0.7716,-0.1375,-1.4855,-3.6550,-1.4950,-1.2583,-1.0035,0.7513,
1.360363,0.0446,-0.8505,-0.0283,-1.4855,-3.6550,-1.4950,-1.2583,-1.0035,0.7513,
1.361610,0.3172,-0.9494,0.0404,-1.4855,-3.6550,-1.4950,-1.2583,-1.0035,0.7513,
1.362686,0.3172,-0.9494,0.0404,-1.4855,-3.6550,-1.4950,-1.2572,-0.8373,-0.9137,
1.365283,0.3172,-0.9494,0.0404,-1.9116,-0.7706,-0.8048,-1.2572,-0.8373,-0.9137,
1.391516,0.3172,-0.9494,0.0404,-1.9116,-0.7706,-0.8048,-0.1249,0.5231,-0.6751,
1.393384,0.3172,-0.9494,0.0404,-2.0383,-0.8696,-0.8304,-0.1249,0.5231,-0.6751,
1.432660,0.3172,-0.9494,0.0404,-2.0383,-0.8696,-0.8304,-0.0428,1.1793,-0.0828,
1.434243,0.3172,-0.9494,0.0404,-2.5581,-1.0484,0.5524,-0.0428,1.1793,-0.0828,
1.435432,0.4286,-0.9213,-0.1145,-2.5581,-1.0484,0.5524,-0.0428,1.1793,-0.0828,
1.436512,-0.0690,-0.6020,-0.1268,-2.5581,-1.0484,0.5524,-0.0428,1.1793,-0.0828,
1.437253,-0.1179,-0.3660,0.0887,-2.5581,-1.0484,0.5524,-0.0428,1.1793,-0.0828,
1.437953,0.0509,-0.2583,-0.0972,-2.5581,-1.0484,0.5524,-0.0428,1.1793,-0.0828,
1.472896,0.0509,-0.2583,-0.0972,-2.5581,-1.0484,0.5524,-0.1888,0.4378,0.6341,
1.474596,0.0509,-0.2583,-0.0972,-5.1553,3.7757,0.3972,-0.1888,0.4378,0.6341,
1.512885,0.0509,-0.2583,-0.0972,-1.9959,-5.8898,-4.3806,-0.1888,0.4378,0.6341,
1.515145,0.0509,-0.2583,-0.0972,-1.9959,-5.8898,-4.3806,-1.0676,0.3718,1.5364,
1.516913,0.2796,-0.6330,-0.4676,-1.9959,-5.8898,-4.3806,-1.0676,0.3718,1.5364,
1.518190,0.2826,-1.4520,-0.7639,-1.9959,-5.8898,-4.3806,-1.0676,0.3718,1.5364,
1.520068,0.0983,-2.2530,-0.5093,-1.9959,-5.8898,-4.3806,-1.0676,0.3718,1.5364,
1.521754,0.2960,-2.1925,-0.1749,-1.9959,-5.8898,-4.3806,-1.0676,0.3718,1.5364,
1.550919,0.2960,-2.1925,-0.1749,-1.9959,-5.8898,-4.3806,-1.4074,1.2379,3.1694,
1.553260,0.2960,-2.1925,-0.1749,-0.9595,-5.2718,-3.9092,-1.4074,1.2379,3.1694,
1.583346,0.5242,-1.6494,-0.0466,-0.9595,-5.2718,-3.9092,-1.4074,1.2379,3.1694,
1.585081,0.7348,-1.0513,0.0567,-0.9595,-5.2718,-3.9092,-1.4074,1.2379,3.1694,
1.585991,0.7560,-0.7838,-0.0647,-0.9595,-5.2718,-3.9092,-1.4074,1.2379,3.1694,
1.589573,0.7560,-0.7838,-0.0647,-0.9595,-5.2718,-3.9092,-0.5595,0.6956,1.9870,
1.590991,0.7560,-0.7838,-0.0647,2.5103,-6.6183,1.3042,-0.5595,0.6956,1.9870,
1.629652,0.7560,-0.7838,-0.0647,2.5103,-6.6183,1.3042,-0.0077,0.0991,0.5073,
1.630758,0.7560,-0.7838,-0.0647,2.0631,2.1374,1.1586,-0.0077,0.0991,0.5073,
1.653074,0.4125,-0.7374,-0.0762,2.0631,2.1374,1.1586,-0.0077,0.0991,0.5073,
1.654738,0.2203,-0.6795,-0.0515,2.0631,2.1374,1.1586,-0.0077,0.0991,0.5073,
1.655846,0.1770,-0.6697,-0.0549,2.0631,2.1374,1.1586,-0.0077,0.0991,0.5073,
1.657092,0.2334,-0.6164,-0.3102,2.0631,2.1374,1.1586,-0.0077,0.0991,0.5073,
1.668597,0.2334,-0.6164,-0.3102,2.0631,2.1374,1.1586,0.3279,-0.0458,0.4924,
1.670580,0.2334,-0.6164,-0.3102,2.1590,2.1181,0.9995,0.3279,-0.0458,0.4924,
1.708478,0.2334,-0.6164,-0.3102,2.1590,2.1181,0.9995,0.0584,0.0149,0.2911,
1.710056,0.2334,-0.6164,-0.3102,0.4595,2.8433,-0.6019,0.0584,0.0149,0.2911,
1.740995,0.4311,-0.6670,-0.3178,0.4595,2.8433,-0.6019,0.0584,0.0149,0.2911,
1.742959,0.5139,-0.8102,0.0907,0.4595,2.8433,-0.6019,0.0584,0.0149,0.2911,
1.744260,0.3043,-1.2416,-0.4412,0.4595,2.8433,-0.6019,0.0584,0.0149,0.2911,
1.745747,0.3803,-1.7659,-0.9100,0.4595,2.8433,-0.6019,0.0584,0.0149,0.2911,
1.748066,0.3803,-1.7659,-0.9100,0.4595,2.8433,-0.6019,-0.2633,-0.0916,0.1473,
1.749370,0.3803,-1.7659,-0.9100,1.6230,-3.1314,-2.2957,-0.2633,-0.0916,0.1473,
1.787745,0.3803,-1.7659,-0.9100,1.6230,-3.1314,-2.2957,-0.7033,-0.4208,0.1057,
1.788964,0.3803,-1.7659,-0.9100,6.4026,1.7079,3.3189,-0.7033,-0.4208,0.1057,
1.828098,0.3803,-1.7659,-0.9100,6.4026,1.7079,3.3189,0.2000,-0.9896,-0.5856,
1.830327,0.3803,-1.7659,-0.9100,6.0449,1.6061,3.2252,0.2000,-0.9896,-0.5856,
1.831832,1.0917,-1.1625,0.2939,6.0449,1.6061,3.2252,0.2000,-0.9896,-0.5856,
1.833767,1.1340,-0.5993,0.5038,6.0449,1.6061,3.2252,0.2000,-0.9896,-0.5856,
1.835092,0.4865,-0.5412,-0.3928,6.0449,1.6061,3.2252,0.2000,-0.9896,-0.5856,
1.837107,0.3353,-0.7564,0.0670,6.0449,1.6061,3.2252,0.2000,-0.9896,-0.5856,
1.838410,0.1689,-1.1251,0.2487,6.0449,1.6061,3.2252,0.2000,-0.9896,-0.5856,
1.867933,0.1689,-1.1251,0.2487,6.0449,1.6061,3.2252,0.6027,-0.6945,-0.4163,
1.869973,0.1689,-1.1251,0.2487,5.7330,1.5456,2.9758,0.6027,-0.6945,-0.4163,
1.907678,0.1689,-1.1251,0.2487,5.7330,1.5456,2.9758,0.5622,-0.6455,0.2623,
1.909297,0.1689,-1.1251,0.2487,-1.6934,-1.3948,1.6717,0.5622,-0.6455,0.2623,
1.910375,-0.1254,-1.3574,-0.2538,-1.6934,-1.3948,1.6717,0.5622,-0.6455,0.2623,
1.911145,0.1421,-1.0711,-0.2262,-1.6934,-1.3948,1.6717,0.5622,-0.6455,0.2623,
1.911973,0.4093,-0.8019,-0.0896,-1.6934,-1.3948,1.6717,0.5622,-0.6455,0.2623,
1.912691,0.5217,-0.7117,-0.1519,-1.6934,-1.3948,1.6717,0.5622,-0.6455,0.2623,
1.947063,0.5217,-0.7117,-0.1519,-1.6934,-1.3948,1.6717,0.7455,-1.7523,0.3465,
1.948561,0.5217,-0.7117,-0.1519,0.7735,0.7958,-0.1311,0.7455,-1.7523,0.3465,
1.983995,0.6221,-0.7132,-0.0596,0.7735,0.7958,-0.1311,0.7455,-1.7523,0.3465,
1.985570,0.5938,-0.8275,-0.0469,0.7735,0.7958,-0.1311,0.7455,-1.7523,0.3465,
1.987247,0.3964,-0.9311,-0.0889,0.7735,0.7958,-0.1311,0.7455,-1.7523,0.3465,
1.988921,0.3964,-0.9311,-0.0889,0.7735,0.7958,-0.1311,0.9010,-1.9750,-0.2000,
1.990254,0.3964,-0.9311,-0.0889,2.4834,1.1525,0.6188,0.9010,-1.9750,-0.2000,
2.027436,0.3964,-0.9311,-0.0889,2.4834,1.1525,0.6188,0.7891,-1.4360,-0.3747,
2.029706,0.3964,-0.9311,-0.0889,-0.4380,-0.2221,-0.3741,0.7891,-1.4360,-0.3747,
2.068927,0.3964,-0.9311,-0.0889,-0.4380,-0.2221,-0.3741,0.6634,-1.8365,-0.0359,
2.071211,0.2298,-0.9690,-0.1182,-0.4380,-0.2221,-0.3741,0.6634,-1.8365,-0.0359,
2.072539,0.2195,-0.9765,-0.1996,-0.4380,-0.2221,-0.3741,0.6634,-1.8365,-0.0359,
2.073950,0.2855,-0.9480,-0.1458,-0.4380,-0.2221,-0.3741,0.6634,-1.8365,-0.0359,
2.075514,0.3773,-0.9155,-0.0222,-0.4380,-0.2221,-0.3741,0.6634,-1.8365,-0.0359,
2.076967,0.4504,-0.9015,0.0171,-0.4380,-0.2221,-0.3741,0.6634,-1.8365,-0.0359,
2.078167,0.4504,-0.9015,0.0171,-0.3585,-0.1908,-0.3993,0.6634,-1.8365,-0.0359,
2.105545,0.4504,-0.9015,0.0171,-0.3585,-0.1908,-0.3993,0.6496,-1.9995,0.1302,
2.107653,0.4504,-0.9015,0.0171,-0.2163,-0.1439,-0.4114,0.6496,-1.9995,0.1302,
2.145458,0.4504,-0.9015,0.0171,-0.2163,-0.1439,-0.4114,0.6059,-1.8205,0.0450,
2.147793,0.4504,-0.9015,0.0171,1.7458,0.5712,1.2762,0.6059,-1.8205,0.0450,
2.152351,0.4953,-0.8615,0.0821,1.7458,0.5712,1.2762,0.6059,-1.8205,0.0450,
2.154189,0.3439,-0.8920,0.0956,1.7458,0.5712,1.2762,0.6059,-1.8205,0.0450,
2.155410,0.2303,-0.8774,0.2116,1.7458,0.5712,1.2762,0.6059,-1.8205,0.0450,
2.156568,0.3468,-0.8444,0.3242,1.7458,0.5712,1.2762,0.6059,-1.8205,0.0450,
2.185138,0.3468,-0.8444,0.3242,0.4861,0.7839,2.9393,0.6059,-1.8205,0.0450,
2.187393,0.3468,-0.8444,0.3242,0.4861,0.7839,2.9393,0.5463,-1.4242,0.0333,
2.225446,0.3468,-0.8444,0.3242,0.4861,0.7839,2.9393,0.2597,-0.5486,-0.2298,
2.227823,0.3468,-0.8444,0.3242,-2.2419,-1.6101,2.5870,0.2597,-0.5486,-0.2298,
2.229321,0.2271,-0.9609,0.2979,-2.2419,-1.6101,2.5870,0.2597,-0.5486,-0.2298,
2.231158,0.0441,-1.1077,0.2131,-2.2419,-1.6101,2.5870,0.2597,-0.5486,-0.2298,
2.232471,-0.1853,-1.2880,0.0484,-2.2419,-1.6101,2.5870,0.2597,-0.5486,-0.2298,
2.234251,-0.4553,-1.5895,-0.1583,-2.2419,-1.6101,2.5870,0.2597,-0.5486,-0.2298,
2.264619,-0.4553,-1.5895,-0.1583,-2.2419,-1.6101,2.5870,-0.5819,0.5742,-0.2895,
2.266723,-0.4553,-1.5895,-0.1583,-2.3007,-1.6117,2.6645,-0.5819,0.5742,-0.2895,
2.305966,-0.4553,-1.5895,-0.1583,-2.3007,-1.6117,2.6645,-1.9411,2.1412,-0.1606,
2.309048,-0.4071,-1.6828,-0.2472,-2.3007,-1.6117,2.6645,-1.9411,2.1412,-0.1606,
2.310863,-0.4743,-1.4610,-0.2882,-2.3007,-1.6117,2.6645,-1.9411,2.1412,-0.1606,
2.312183,-0.4164,-1.2096,-0.2443,-2.3007,-1.6117,2.6645,-1.9411,2.1412,-0.1606,
2.313369,-0.2615,-1.0403,-0.2059,-2.3007,-1.6117,2.6645,-1.9411,2.1412,-0.1606,
2.314348,-0.2615,-1.0403,-0.2059,-6.9020,-6.0366,-0.9129,-1.9411,2.1412,-0.1606,
2.343481,-0.2615,-1.0403,-0.2059,-6.9020,-6.0366,-0.9129,-2.4887,2.4395,0.1814,
2.345421,-0.2615,-1.0403,-0.2059,-6.8033,-6.0127,-0.2336,-2.4887,2.4395,0.1814,
2.382690,-0.2615,-1.0403,-0.2059,-6.8033,-6.0127,-0.2336,-1.9060,2.1700,0.4786,
2.384491,-0.2615,-1.0403,-0.2059,-4.8477,-1.2176,0.5746,-1.9060,2.1700,0.4786,
2.385484,-0.0954,-0.9873,-0.1436,-4.8477,-1.2176,0.5746,-1.9060,2.1700,0.4786,
2.386483,-0.1223,-1.0816,-0.1018,-4.8477,-1.2176,0.5746,-1.9060,2.1700,0.4786,
2.387305,-0.0734,-1.0664,-0.0632,-4.8477,-1.2176,0.5746,-1.9060,2.1700,0.4786,
2.388252,0.0751,-0.8417,0.0191,-4.8477,-1.2176,0.5746,-1.9060,2.1700,0.4786,
2.423614,0.0751,-0.8417,0.0191,-4.8477,-1.2176,0.5746,-1.1731,2.6280,0.5393,
2.425317,0.0751,-0.8417,0.0191,-2.7175,-0.4682,2.1667,-1.1731,2.6280,0.5393,
2.462412,0.0751,-0.8417,0.0191,-2.7175,-0.4682,2.1667,-0.0876,2.8038,0.4754,
2.464228,0.0751,-0.8417,0.0191,-1.6284,3.1246,3.3220,-0.0876,2.8038,0.4754,
2.468339,0.0451,-0.6269,0.0921,-1.6284,3.1246,3.3220,-0.0876,2.8038,0.4754,
2.469860,0.0566,-0.5756,0.1303,-1.6284,3.1246,3.3220,-0.0876,2.8038,0.4754,
2.470752,0.1316,-0.6729,0.0831,-1.6284,3.1246,3.3220,-0.0876,2.8038,0.4754,
2.471677,0.2051,-0.8173,-0.0217,-1.6284,3.1246,3.3220,-0.0876,2.8038,0.4754,
2.501681,0.2051,-0.8173,-0.0217,-1.6284,3.1246,3.3220,0.9702,2.8517,0.3273,
2.503141,0.2051,-0.8173,-0.0217,-1.6938,3.1496,2.6189,0.9702,2.8517,0.3273,
2.542877,0.2051,-0.8173,-0.0217,-1.6938,3.1496,2.6189,0.9670,3.3439,-0.0605,
2.544331,0.2051,-0.8173,-0.0217,0.1303,0.9766,-0.3046,0.9670,3.3439,-0.0605,
2.545529,0.2762,-0.9006,-0.1280,0.1303,0.9766,-0.3046,0.9670,3.3439,-0.0605,
2.547257,0.3698,-0.8283,-0.2296,0.1303,0.9766,-0.3046,0.9670,3.3439,-0.0605,
2.548533,0.2738,-0.7574,0.2070,0.1303,0.9766,-0.3046,0.9670,3.3439,-0.0605,
2.551132,0.2562,-0.8107,0.2502,0.1303,0.9766,-0.3046,0.9670,3.3439,-0.0605,
2.581246,0.2562,-0.8107,0.2502,0.1303,0.9766,-0.3046,1.0597,3.6251,-0.1819,
2.583048,0.2562,-0.8107,0.2502,-0.0147,0.9553,-1.0602,1.0597,3.6251,-0.1819,
2.621853,0.2562,-0.8107,0.2502,-0.0147,0.9553,-1.0602,0.1340,2.1444,-0.1404,
2.624011,0.2562,-0.8107,0.2502,0.8619,0.8700,-0.2606,0.1340,2.1444,-0.1404,
2.625498,0.6121,-0.9929,-0.5052,0.8619,0.8700,-0.2606,0.1340,2.1444,-0.1404,
2.627681,0.7458,-1.4192,-1.1096,0.8619,0.8700,-0.2606,0.1340,2.1444,-0.1404,
2.629005,0.6365,-1.5995,-0.9965,0.8619,0.8700,-0.2606,0.1340,2.1444,-0.1404,
2.630504,0.4988,-1.2145,-0.2641,0.8619,0.8700,-0.2606,0.1340,2.1444,-0.1404,
2.660711,0.4988,-1.2145,-0.2641,0.8619,0.8700,-0.2606,-0.8343,-0.3015,0.2059,
2.662299,0.4988,-1.2145,-0.2641,3.2745,-4.4624,-7.3286,-0.8343,-0.3015,0.2059,
2.701298,0.4988,-1.2145,-0.2641,3.2745,-4.4624,-7.3286,-0.1728,-0.3579,0.1249,
2.703344,0.4988,-1.2145,-0.2641,3.0290,2.6988,-0.6969,-0.1728,-0.3579,0.1249,
2.704885,0.5034,-0.6438,0.0457,3.0290,2.6988,-0.6969,-0.1728,-0.3579,0.1249,
2.706407,0.6661,-0.5148,-0.0987,3.0290,2.6988,-0.6969,-0.1728,-0.3579,0.1249,
2.707613,0.6422,-0.8661,-0.3242,3.0290,2.6988,-0.6969,-0.1728,-0.3579,0.1249,
2.708898,0.5281,-0.9685,-0.0510,3.0290,2.6988,-0.6969,-0.1728,-0.3579,0.1249,
2.740707,0.5281,-0.9685,-0.0510,3.0290,2.6988,-0.6969,0.3897,-1.0535,-0.0615,
2.743352,0.5281,-0.9685,-0.0510,2.9581,2.6372,-0.7036,0.3897,-1.0535,-0.0615,
2.780351,0.5281,-0.9685,-0.0510,2.9581,2.6372,-0.7036,0.6347,-1.2911,0.0983,
2.782023,0.5281,-0.9685,-0.0510,1.7044,0.2544,0.1868,0.6347,-1.2911,0.0983,
2.783101,0.4978,-0.8603,0.0985,1.7044,0.2544,0.1868,0.6347,-1.2911,0.0983,
2.783937,0.3954,-0.9309,-0.1253,1.7044,0.2544,0.1868,0.6347,-1.2911,0.0983,
2.785211,0.2479,-1.0125,-0.1837,1.7044,0.2544,0.1868,0.6347,-1.2911,0.0983,
2.785890,0.2317,-0.9477,-0.0923,1.7044,0.2544,0.1868,0.6347,-1.2911,0.0983,
2.821565,0.2317,-0.9477,-0.0923,1.7708,0.2827,0.1529,0.6347,-1.2911,0.0983,
2.823720,0.2317,-0.9477,-0.0923,1.7708,0.2827,0.1529,0.4195,-1.0823,0.2431,
2.860246,0.2317,-0.9477,-0.0923,1.7708,0.2827,0.1529,0.3396,-1.2879,0.1707,
2.868809,0.2317,-0.9477,-0.0923,-0.0732,0.1039,-0.6794,0.3396,-1.2879,0.1707,
2.870887,0.3510,-0.8610,-0.0671,-0.0732,0.1039,-0.6794,0.3396,-1.2879,0.1707,
2.872157,0.4636,-0.8304,-0.1126,-0.0732,0.1039,-0.6794,0.3396,-1.2879,0.1707,
2.874208,0.4768,-0.8708,-0.1898,-0.0732,0.1039,-0.6794,0.3396,-1.2879,0.1707,
2.875578,0.4157,-0.9587,-0.1976,-0.0732,0.1039,-0.6794,0.3396,-1.2879,0.1707,
2.898467,0.4157,-0.9587,-0.1976,-0.0732,0.1039,-0.6794,0.0083,-1.6746,-0.1926,
2.901335,0.4157,-0.9587,-0.1976,1.5721,0.5960,-0.9875,0.0083,-1.6746,-0.1926,
2.937952,0.4157,-0.9587,-0.1976,1.5721,0.5960,-0.9875,-0.4434,-1.4669,-0.6101,
2.940104,0.4157,-0.9587,-0.1976,-0.8967,-0.9495,0.2887,-0.4434,-1.4669,-0.6101,
2.941341,0.3834,-1.0041,-0.0842,-0.8967,-0.9495,0.2887,-0.4434,-1.4669,-0.6101,
2.942684,0.2523,-1.0281,-0.0557,-0.8967,-0.9495,0.2887,-0.4434,-1.4669,-0.6101,
2.943912,0.0128,-1.0809,-0.0693,-0.8967,-0.9495,0.2887,-0.4434,-1.4669,-0.6101,
2.944940,-0.1579,-1.0247,-0.0378,-0.8967,-0.9495,0.2887,-0.4434,-1.4669,-0.6101,
2.977574,-0.1579,-1.0247,-0.0378,-0.8967,-0.9495,0.2887,-0.5840,-1.2037,-0.5846,
2.979172,-0.1579,-1.0247,-0.0378,-1.0323,-1.0257,0.6348,-0.5840,-1.2037,-0.5846,
3.018342,-0.1579,-1.0247,-0.0378,-1.0323,-1.0257,0.6348,-0.3283,-0.3547,-0.5579,
3.020579,-0.1579,-1.0247,-0.0378,-4.0721,0.1502,1.4840,-0.3283,-0.3547,-0.5579,
3.022000,-0.0969,-0.8666,-0.0004,-4.0721,0.1502,1.4840,-0.3283,-0.3547,-0.5579,
3.023984,0.0018,-0.8334,0.0487,-4.0721,0.1502,1.4840,-0.3283,-0.3547,-0.5579,
3.025547,-0.0693,-0.9313,0.0052,-4.0721,0.1502,1.4840,-0.3283,-0.3547,-0.5579,
3.027274,-0.3556,-1.0757,-0.2010,-4.0721,0.1502,1.4840,-0.3283,-0.3547,-0.5579,
3.058247,-0.3556,-1.0757,-0.2010,-4.0721,0.1502,1.4840,-0.1313,0.6647,-0.3726,
3.061031,-0.3556,-1.0757,-0.2010,-4.1550,0.0916,1.4126,-0.1313,0.6647,-0.3726,
3.097469,-0.3556,-1.0757,-0.2010,-4.1550,0.0916,1.4126,-0.0247,1.1537,0.1782,
3.100119,-0.3556,-1.0757,-0.2010,-7.0811,-1.4529,-0.0786,-0.0247,1.1537,0.1782,
3.101423,-0.7702,-1.2064,-0.2066,-7.0811,-1.4529,-0.0786,-0.0247,1.1537,0.1782,
3.103665,-0.7176,-1.1050,0.0093,-7.0811,-1.4529,-0.0786,-0.0247,1.1537,0.1782,
3.105736,-0.5593,-1.1446,0.2888,-7.0811,-1.4529,-0.0786,-0.0247,1.1537,0.1782,
3.107423,-0.2674,-1.4566,-0.1656,-7.0811,-1.4529,-0.0786,-0.0247,1.1537,0.1782,
3.135491,-0.2674,-1.4566,-0.1656,-7.0811,-1.4529,-0.0786,-0.4657,2.3042,0.3167,
3.138266,-0.2674,-1.4566,-0.1656,-8.0511,-2.9833,1.5155,-0.4657,2.3042,0.3167,
3.178010,-0.2674,-1.4566,-0.1656,-8.0511,-2.9833,1.5155,-1.1720,3.7955,0.1462,
3.179539,-0.2674,-1.4566,-0.1656,2.4438,-2.2500,0.8996,-1.1720,3.7955,0.1462,
3.180337,0.3710,-1.8377,-0.3498,2.4438,-2.2500,0.8996,-1.1720,3.7955,0.1462,
3.181124,0.8630,-1.2125,0.3511,2.4438,-2.2500,0.8996,-1.1720,3.7955,0.1462,
3.182094,0.4819,-0.4356,-0.0408,2.4438,-2.2500,0.8996,-1.1720,3.7955,0.1462,
3.183058,0.1887,-0.5610,-0.0857,2.4438,-2.2500,0.8996,-1.1720,3.7955,0.1462,
3.215533,0.1887,-0.5610,-0.0857,2.4438,-2.2500,0.8996,-1.1592,4.4592,0.0482,
3.217583,0.1887,-0.5610,-0.0857,2.2468,-2.2432,0.7320,-1.1592,4.4592,0.0482,
3.254960,0.1887,-0.5610,-0.0857,2.2468,-2.2432,0.7320,-0.8588,4.7426,0.4381,
3.256715,0.1887,-0.5610,-0.0857,-1.0480,0.5726,2.9311,-0.8588,4.7426,0.4381,
3.257787,0.2654,-0.9265,0.3870,-1.0480,0.5726,2.9311,-0.8588,4.7426,0.4381,
3.259139,0.2391,-1.1434,0.4481,-1.0480,0.5726,2.9311,-0.8588,4.7426,0.4381,
3.260188,0.4245,-1.2238,0.2734,-1.0480,0.5726,2.9311,-0.8588,4.7426,0.4381,
3.261137,0.8039,-1.0699,0.0399,-1.0480,0.5726,2.9311,-0.8588,4.7426,0.4381,
3.295174,0.8039,-1.0699,0.0399,-1.0480,0.5726,2.9311,-0.4380,3.8520,0.5638,
3.296985,0.8039,-1.0699,0.0399,-0.8745,0.6268,2.5451,-0.4380,3.8520,0.5638,
3.335269,0.8039,-1.0699,0.0399,-0.8745,0.6268,2.5451,-0.3677,3.0264,0.1483,
3.337403,0.8039,-1.0699,0.0399,3.7872,-1.1081,0.7105,-0.3677,3.0264,0.1483,
3.338819,0.8967,-0.8805,-0.0486,3.7872,-1.1081,0.7105,-0.3677,3.0264,0.1483,
3.340193,0.6414,-0.7940,-0.0649,3.7872,-1.1081,0.7105,-0.3677,3.0264,0.1483,
3.342095,0.4343,-0.8473,0.0125,3.7872,-1.1081,0.7105,-0.3677,3.0264,0.1483,
3.343498,0.5383,-0.9538,-0.0767,3.7872,-1.1081,0.7105,-0.3677,3.0264,0.1483,
3.374473,0.5383,-0.9538,-0.0767,3.7872,-1.1081,0.7105,-0.1920,2.5439,0.1909,
3.377453,0.5383,-0.9538,-0.0767,2.1743,0.7938,-0.8039,-0.1920,2.5439,0.1909,
3.414249,0.5383,-0.9538,-0.0767,2.1743,0.7938,-0.8039,-0.3784,2.2882,0.2549,
3.416904,0.5383,-0.9538,-0.0767,3.0590,0.4370,-4.6711,-0.3784,2.2882,0.2549,
3.418129,0.6087,-0.9998,-0.3515,3.0590,0.4370,-4.6711,-0.3784,2.2882,0.2549,
3.419235,0.6654,-0.9042,-0.4541,3.0590,0.4370,-4.6711,-0.3784,2.2882,0.2549,
3.421070,0.5867,-0.8094,-0.4922,3.0590,0.4370,-4.6711,-0.3784,2.2882,0.2549,
3.422286,0.4145,-0.7154,-0.2809,3.0590,0.4370,-4.6711,-0.3784,2.2882,0.2549,
3.453675,0.4145,-0.7154,-0.2809,3.1837,0.4860,-4.5792,-0.3784,2.2882,0.2549,
3.456198,0.4145,-0.7154,-0.2809,3.1837,0.4860,-4.5792,-0.5659,1.7364,0.4147,
3.493414,0.4145,-0.7154,-0.2809,1.1447,2.5266,-2.6639,-0.5659,1.7364,0.4147,
3.495875,0.4145,-0.7154,-0.2809,1.1447,2.5266,-2.6639,-0.7928,0.5263,0.7257,
3.497440,0.3536,-0.6631,-0.2257,1.1447,2.5266,-2.6639,-0.7928,0.5263,0.7257,
3.498743,0.3903,-0.7227,-0.2921,1.1447,2.5266,-2.6639,-0.7928,0.5263,0.7257,
3.499922,0.5054,-0.8307,-0.3635,1.1447,2.5266,-2.6639,-0.7928,0.5263,0.7257,
3.501067,0.5645,-0.9399,-0.5208,1.1447,2.5266,-2.6639,-0.7928,0.5263,0.7257,
3.532667,0.5645,-0.9399,-0.5208,1.1447,2.5266,-2.6639,-1.7760,-1.5968,0.7992,
3.534958,0.5645,-0.9399,-0.5208,1.4420,2.5349,-1.8127,-1.7760,-1.5968,0.7992,
3.557400,0.4927,-1.0515,-0.4065,1.4420,2.5349,-1.8127,-1.7760,-1.5968,0.7992,
3.560554,0.7167,-1.0335,-0.1805,1.4420,2.5349,-1.8127,-1.7760,-1.5968,0.7992,
3.562198,0.9693,-1.1456,0.2402,1.4420,2.5349,-1.8127,-1.7760,-1.5968,0.7992,
3.572611,0.9693,-1.1456,0.2402,1.4420,2.5349,-1.8127,-2.6985,-1.7619,0.6629,
3.574392,0.9693,-1.1456,0.2402,3.0486,0.0880,-2.2265,-2.6985,-1.7619,0.6629,
3.612588,0.9693,-1.1456,0.2402,6.5280,-2.2832,4.1399,-2.6985,-1.7619,0.6629,
3.618527,0.9693,-1.1456,0.2402,6.5280,-2.2832,4.1399,-1.7675,-0.7830,-0.7987,
3.646523,1.0436,-1.3100,0.4034,6.5280,-2.2832,4.1399,-1.7675,-0.7830,-0.7987,
3.649640,0.7936,-1.3066,0.4058,6.5280,-2.2832,4.1399,-1.7675,-0.7830,-0.7987,
3.651766,0.6163,-1.1363,0.3741,6.5280,-2.2832,4.1399,-1.7675,-0.7830,-0.7987,
3.653311,0.5598,-0.9839,0.2365,6.5280,-2.2832,4.1399,-1.7675,-0.7830,-0.7987,
3.654481,0.5598,-0.9839,0.2365,3.7267,-2.2086,6.1527,-1.7675,-0.7830,-0.7987,
3.655757,0.5598,-0.9839,0.2365,3.7267,-2.2086,6.1527,-0.2932,-2.0527,-1.3579,
3.691277,0.5598,-0.9839,0.2365,3.7267,-2.2086,6.1527,0.8126,-3.3822,-1.1097,
3.694963,0.5598,-0.9839,0.2365,1.9792,-0.7227,6.4634,0.8126,-3.3822,-1.1097,
3.730587,0.5598,-0.9839,0.2365,1.9792,-0.7227,6.4634,1.5497,-3.6911,-1.0160,
3.733432,0.5598,-0.9839,0.2365,1.9847,-0.6535,6.2053,1.5497,-3.6911,-1.0160,
3.734791,0.5681,-0.9460,0.1808,1.9847,-0.6535,6.2053,1.5497,-3.6911,-1.0160,
3.735995,0.5122,-1.0032,0.3988,1.9847,-0.6535,6.2053,1.5497,-3.6911,-1.0160,
3.737343,0.3666,-1.0183,0.5417,1.9847,-0.6535,6.2053,1.5497,-3.6911,-1.0160,
3.738550,0.1499,-0.9582,0.5514,1.9847,-0.6535,6.2053,1.5497,-3.6911,-1.0160,
3.739823,0.0026,-0.8307,0.4747,1.9847,-0.6535,6.2053,1.5497,-3.6911,-1.0160,
3.773451,0.0026,-0.8307,0.4747,1.9847,-0.6535,6.2053,1.5359,-3.4600,-0.5952,
3.775625,0.0026,-0.8307,0.4747,2.0721,-0.5583,5.9212,1.5359,-3.4600,-0.5952,
3.810586,0.0026,-0.8307,0.4747,2.0721,-0.5583,5.9212,1.5380,-4.7681,-0.1840,
3.813306,0.0026,-0.8307,0.4747,-1.7042,0.7587,6.4056,1.5380,-4.7681,-0.1840,
3.814611,0.0224,-0.8070,0.3040,-1.7042,0.7587,6.4056,1.5380,-4.7681,-0.1840,
3.815861,0.2970,-0.8986,0.3760,-1.7042,0.7587,6.4056,1.5380,-4.7681,-0.1840,
3.817236,0.5452,-1.0569,0.3572,-1.7042,0.7587,6.4056,1.5380,-4.7681,-0.1840,
3.818459,0.5931,-1.2250,0.1215,-1.7042,0.7587,6.4056,1.5380,-4.7681,-0.1840,
3.849728,0.5931,-1.2250,0.1215,2.3396,-1.0964,4.5647,1.5380,-4.7681,-0.1840,
3.852116,0.5931,-1.2250,0.1215,2.3396,-1.0964,4.5647,1.5561,-4.0278,-0.9457,
3.891451,0.5931,-1.2250,0.1215,-0.9401,0.0872,1.0591,1.5561,-4.0278,-0.9457,
3.894859,0.5931,-1.2250,0.1215,-0.9401,0.0872,1.0591,0.9926,-3.0062,-1.1992,
3.896531,0.4374,-1.1490,-0.1842,-0.9401,0.0872,1.0591,0.9926,-3.0062,-1.1992,
3.897879,0.0856,-0.9199,-0.1382,-0.9401,0.0872,1.0591,0.9926,-3.0062,-1.1992,
3.899190,-0.0248,-0.7339,0.1320,-0.9401,0.0872,1.0591,0.9926,-3.0062,-1.1992,
3.901248,-0.0206,-0.8703,0.3365,-0.9401,0.0872,1.0591,0.9926,-3.0062,-1.1992,
3.929284,-0.0206,-0.8703,0.3365,-0.9401,0.0872,1.0591,1.3292,-3.9479,-0.6709,
3.931850,-0.0206,-0.8703,0.3365,-0.9137,0.1032,0.9597,1.3292,-3.9479,-0.6709,
3.958762,-0.0162,-1.1324,0.2531,-0.9137,0.1032,0.9597,1.3292,-3.9479,-0.6709,
3.961548,-0.0678,-1.3342,0.0142,-0.9137,0.1032,0.9597,1.3292,-3.9479,-0.6709,
3.963166,-0.0961,-1.3630,-0.0398,-0.9137,0.1032,0.9597,1.3292,-3.9479,-0.6709,
3.969038,-0.0961,-1.3630,-0.0398,-0.9137,0.1032,0.9597,1.4581,-3.3449,-0.3939,
3.970807,-0.0961,-1.3630,-0.0398,-2.7830,-1.5682,3.2959,1.4581,-3.3449,-0.3939,
4.008253,-0.0961,-1.3630,-0.0398,-2.7830,-1.5682,3.2959,0.9819,-1.9729,-0.2224,
4.012088,-0.0961,-1.3630,-0.0398,-3.3734,-2.3475,0.7686,0.9819,-1.9729,-0.2224,
4.038949,-0.0995,-1.1947,-0.0180,-3.3734,-2.3475,0.7686,0.9819,-1.9729,-0.2224,
4.041512,-0.1118,-1.0381,-0.0549,-3.3734,-2.3475,0.7686,0.9819,-1.9729,-0.2224,
4.042697,-0.0294,-1.0386,-0.1715,-3.3734,-2.3475,0.7686,0.9819,-1.9729,-0.2224,
4.045951,0.1186,-1.0352,-0.1566,-3.3734,-2.3475,0.7686,0.9819,-1.9729,-0.2224,
4.051483,0.1186,-1.0352,-0.1566,-3.3734,-2.3475,0.7686,0.5484,-1.2890,0.0865,
4.053808,0.1186,-1.0352,-0.1566,-3.2306,-2.2773,0.6720,0.5484,-1.2890,0.0865,
4.087423,0.1186,-1.0352,-0.1566,-3.2306,-2.2773,0.6720,0.0882,-0.9374,0.3241,
4.089934,0.1186,-1.0352,-0.1566,-1.2748,-0.2994,-0.2542,0.0882,-0.9374,0.3241,
4.127285,0.1186,-1.0352,-0.1566,-1.2748,-0.2994,-0.2542,-0.3539,-0.9342,0.8525,
4.130023,0.1186,-1.0352,-0.1566,-0.6341,3.3992,0.9866,-0.3539,-0.9342,0.8525,
4.131484,0.1462,-0.9277,-0.0840,-0.6341,3.3992,0.9866,-0.3539,-0.9342,0.8525,
4.132486,0.0404,-0.8080,-0.0456,-0.6341,3.3992,0.9866,-0.3539,-0.9342,0.8525,
4.133786,0.0309,-0.6042,0.0022,-0.6341,3.3992,0.9866,-0.3539,-0.9342,0.8525,
4.134890,0.2449,-0.4535,-0.0459,-0.6341,3.3992,0.9866,-0.3539,-0.9342,0.8525,
4.136309,0.6639,-0.5952,0.0465,-0.6341,3.3992,0.9866,-0.3539,-0.9342,0.8525,
4.166279,0.6639,-0.5952,0.0465,-0.6341,3.3992,0.9866,-0.8993,-1.0376,0.7609,
4.168434,0.6639,-0.5952,0.0465,-0.2829,3.3350,1.3630,-0.8993,-1.0376,0.7609,
4.206728,0.6639,-0.5952,0.0465,-0.2829,3.3350,1.3630,-1.0399,0.2301,-0.4908,
4.209286,0.6639,-0.5952,0.0465,3.9381,0.7785,2.8557,-1.0399,0.2301,-0.4908,
4.210879,0.7924,-0.8810,0.2277,3.9381,0.7785,2.8557,-1.0399,0.2301,-0.4908,
4.212283,0.2339,-1.1363,-0.0061,3.9381,0.7785,2.8557,-1.0399,0.2301,-0.4908,
4.214080,-0.2517,-1.3017,-0.3806,3.9381,0.7785,2.8557,-1.0399,0.2301,-0.4908,
4.214896,-0.3380,-1.3828,-0.6305,3.9381,0.7785,2.8557,-1.0399,0.2301,-0.4908,
4.246621,-0.3380,-1.3828,-0.6305,3.9381,0.7785,2.8557,-1.4650,0.5284,-0.8850,
4.249794,-0.3380,-1.3828,-0.6305,3.5083,0.5771,3.2982,-1.4650,0.5284,-0.8850,
4.286160,-0.3380,-1.3828,-0.6305,3.5083,0.5771,3.2982,-1.7025,0.0181,-0.9041,
4.288264,-0.3380,-1.3828,-0.6305,-4.5874,-4.8458,-2.5194,-1.7025,0.0181,-0.9041,
4.289212,-0.1232,-1.5331,-0.6999,-4.5874,-4.8458,-2.5194,-1.7025,0.0181,-0.9041,
4.290288,-0.0236,-1.5570,-0.7065,-4.5874,-4.8458,-2.5194,-1.7025,0.0181,-0.9041,
4.291112,-0.1039,-1.2492,-0.6183,-4.5874,-4.8458,-2.5194,-1.7025,0.0181,-0.9041,
4.292039,-0.1467,-0.8756,-0.2687,-4.5874,-4.8458,-2.5194,-1.7025,0.0181,-0.9041,
4.325121,-0.1467,-0.8756,-0.2687,-4.5874,-4.8458,-2.5194,-1.5033,0.4687,-0.5643,
4.327296,-0.1467,-0.8756,-0.2687,-3.3568,-3.2907,-1.6279,-1.5033,0.4687,-0.5643,
4.364979,-0.1467,-0.8756,-0.2687,-3.3568,-3.2907,-1.6279,-0.4828,1.2144,-0.1201,
4.367271,-0.1467,-0.8756,-0.2687,-5.4176,2.2576,1.0679,-0.4828,1.2144,-0.1201,
4.368314,-0.2547,-0.5844,-0.0593,-5.4176,2.2576,1.0679,-0.4828,1.2144,-0.1201,
4.369117,-0.3177,-0.5319,-0.2284,-5.4176,2.2576,1.0679,-0.4828,1.2144,-0.1201,
4.369887,-0.2945,-0.8304,-0.4878,-5.4176,2.2576,1.0679,-0.4828,1.2144,-0.1201,
4.370696,-0.2996,-1.0481,-0.3825,-5.4176,2.2576,1.0679,-0.4828,1.2144,-0.1201,
4.404573,-0.2996,-1.0481,-0.3825,-5.4176,2.2576,1.0679,-0.0386,1.6064,0.2453,
4.406918,-0.2996,-1.0481,-0.3825,-5.4664,2.2400,0.8961,-0.0386,1.6064,0.2453,
4.444511,-0.2996,-1.0481,-0.3825,-5.4664,2.2400,0.8961,0.3992,2.6184,0.4338,
4.446786,-0.2996,-1.0481,-0.3825,-5.0351,-0.0760,0.8973,0.3992,2.6184,0.4338,
4.448156,-0.2041,-0.9194,-0.1485,-5.0351,-0.0760,0.8973,0.3992,2.6184,0.4338,
4.449568,-0.2002,-0.7186,-0.1109,-5.0351,-0.0760,0.8973,0.3992,2.6184,0.4338,
4.450865,-0.2317,-0.5820,-0.0097,-5.0351,-0.0760,0.8973,0.3992,2.6184,0.4338,
4.452141,-0.2175,-0.5133,0.1227,-5.0351,-0.0760,0.8973,0.3992,2.6184,0.4338,
4.483890,-0.2175,-0.5133,0.1227,-5.0351,-0.0760,0.8973,1.2557,3.7295,0.4977,
4.486514,-0.2175,-0.5133,0.1227,-5.1561,0.1055,0.0377,1.2557,3.7295,0.4977,
4.523678,-0.2175,-0.5133,0.1227,-5.1561,0.1055,0.0377,1.4102,3.9830,0.7715,
4.526212,-0.2175,-0.5133,0.1227,-4.8994,3.6100,1.9814,1.4102,3.9830,0.7715,
4.527630,-0.2053,-0.5544,0.1425,-4.8994,3.6100,1.9814,1.4102,3.9830,0.7715,
4.529056,-0.4323,-0.8656,-0.0918,-4.8994,3.6100,1.9814,1.4102,3.9830,0.7715,
4.530394,-0.4626,-1.5661,-0.4431,-4.8994,3.6100,1.9814,1.4102,3.9830,0.7715,
4.532688,0.3150,-2.3039,-0.2929,-4.8994,3.6100,1.9814,1.4102,3.9830,0.7715,
4.563353,0.3150,-2.3039,-0.2929,-4.8994,3.6100,1.9814,0.1116,4.5562,0.9111,
4.565882,0.3150,-2.3039,-0.2929,-4.4058,-6.2614,-2.0467,0.1116,4.5562,0.9111,
4.603252,0.3150,-2.3039,-0.2929,-4.4058,-6.2614,-2.0467,-0.5893,4.2494,0.3475,
4.605764,0.3150,-2.3039,-0.2929,4.8373,-4.4730,0.2561,-0.5893,4.2494,0.3475,
4.607385,0.9129,-2.1976,-0.0715,4.8373,-4.4730,0.2561,-0.5893,4.2494,0.3475,
4.608536,0.8447,-1.3274,0.0259,4.8373,-4.4730,0.2561,-0.5893,4.2494,0.3475,
4.609966,0.5058,-0.6931,-0.0141,4.8373,-4.4730,0.2561,-0.5893,4.2494,0.3475,
4.611272,0.2696,-0.4540,-0.1001,4.8373,-4.4730,0.2561,-0.5893,4.2494,0.3475,
4.641949,0.2696,-0.4540,-0.1001,4.8373,-4.4730,0.2561,-0.8769,3.4909,0.7651,
4.643973,0.2696,-0.4540,-0.1001,4.9772,-4.3400,0.2358,-0.8769,3.4909,0.7651,
4.682618,0.2696,-0.4540,-0.1001,4.9772,-4.3400,0.2358,0.2672,4.8001,0.7577,
4.685025,0.2696,-0.4540,-0.1001,0.6462,3.4024,5.2236,0.2672,4.8001,0.7577,
4.686450,0.2571,-0.5146,0.6023,0.6462,3.4024,5.2236,0.2672,4.8001,0.7577,
4.687740,0.3383,-0.8830,1.1566,0.6462,3.4024,5.2236,0.2672,4.8001,0.7577,
4.689023,0.5872,-1.3779,0.5666,0.6462,3.4024,5.2236,0.2672,4.8001,0.7577,
4.690570,0.7980,-1.5634,-0.3371,0.6462,3.4024,5.2236,0.2672,4.8001,0.7577,
4.721696,0.7980,-1.5634,-0.3371,0.6462,3.4024,5.2236,1.0927,4.2312,1.2040,
4.724109,0.7980,-1.5634,-0.3371,1.1694,3.4102,4.4133,1.0927,4.2312,1.2040,
4.757929,1.2375,-1.2658,-0.8123,1.1694,3.4102,4.4133,1.0927,4.2312,1.2040,
4.760512,1.2107,-0.8195,-0.3637,1.1694,3.4102,4.4133,1.0927,4.2312,1.2040,
4.762042,0.6871,-0.6216,-0.1825,1.1694,3.4102,4.4133,1.0927,4.2312,1.2040,
4.763376,0.6871,-0.6216,-0.1825,7.0593,-4.1944,-3.0605,1.0927,4.2312,1.2040,
4.764689,0.6871,-0.6216,-0.1825,7.0593,-4.1944,-3.0605,0.1915,2.1913,0.4509,
4.801021,0.6871,-0.6216,-0.1825,7.0593,-4.1944,-3.0605,0.0967,2.5045,0.0258,
4.803560,0.6871,-0.6216,-0.1825,5.7769,2.6223,-4.2923,0.0967,2.5045,0.0258,
4.840808,0.6871,-0.6216,-0.1825,5.7769,2.6223,-4.2923,-0.1973,1.7620,0.8067,
4.843217,0.6871,-0.6216,-0.1825,6.0682,2.6282,-4.2375,-0.1973,1.7620,0.8067,
4.846741,0.3214,-0.6648,-0.3813,6.0682,2.6282,-4.2375,-0.1973,1.7620,0.8067,
4.848335,0.2669,-0.8544,-0.4446,6.0682,2.6282,-4.2375,-0.1973,1.7620,0.8067,
4.849681,0.5308,-0.9389,-0.6286,6.0682,2.6282,-4.2375,-0.1973,1.7620,0.8067,
4.850811,0.8476,-0.8187,-0.6865,6.0682,2.6282,-4.2375,-0.1973,1.7620,0.8067,
4.851931,0.8972,-0.7574,-0.7001,6.0682,2.6282,-4.2375,-0.1973,1.7620,0.8067,
4.880233,0.8972,-0.7574,-0.7001,6.0682,2.6282,-4.2375,-1.2871,-1.0216,0.6277,
4.882686,0.8972,-0.7574,-0.7001,4.3226,1.0323,-6.3200,-1.2871,-1.0216,0.6277,
4.919875,0.8972,-0.7574,-0.7001,7.2553,1.4880,-4.7317,-1.2871,-1.0216,0.6277,
4.922402,0.8972,-0.7574,-0.7001,7.2553,1.4880,-4.7317,-2.1787,-4.3995,0.0908,
4.925499,0.7934,-0.8241,-0.5670,7.2553,1.4880,-4.7317,-2.1787,-4.3995,0.0908,
4.927028,0.8818,-0.8864,-0.3393,7.2553,1.4880,-4.7317,-2.1787,-4.3995,0.0908,
4.928470,0.8540,-1.0354,-0.2601,7.2553,1.4880,-4.7317,-2.1787,-4.3995,0.0908,
4.929808,0.7142,-1.3286,-0.1837,7.2553,1.4880,-4.7317,-2.1787,-4.3995,0.0908,
4.959687,0.7142,-1.3286,-0.1837,7.2553,1.4880,-4.7317,-2.9862,-3.3460,-0.3918,
4.962134,0.7142,-1.3286,-0.1837,7.1331,1.3106,-3.4003,-2.9862,-3.3460,-0.3918,
5.000065,0.7142,-1.3286,-0.1837,7.1331,1.3106,-3.4003,-2.5686,-1.5638,-1.2450,
5.002374,0.7142,-1.3286,-0.1837,5.6549,-4.0260,2.1974,-2.5686,-1.5638,-1.2450,
5.003934,0.6769,-1.6633,0.2487,5.6549,-4.0260,2.1974,-2.5686,-1.5638,-1.2450,
5.005085,0.6686,-1.8184,0.6108,5.6549,-4.0260,2.1974,-2.5686,-1.5638,-1.2450,
5.006941,0.8007,-1.7449,0.5854,5.6549,-4.0260,2.1974,-2.5686,-1.5638,-1.2450,
5.008232,0.6055,-1.4791,0.3357,5.6549,-4.0260,2.1974,-2.5686,-1.5638,-1.2450,
5.039049,0.6055,-1.4791,0.3357,5.6549,-4.0260,2.1974,-1.1358,-3.7774,-1.8789,
5.042051,0.6055,-1.4791,0.3357,4.8323,-7.4891,8.3713,-1.1358,-3.7774,-1.8789,
5.078842,0.6055,-1.4791,0.3357,4.8323,-7.4891,8.3713,0.1361,-5.6491,-1.3058,
5.081368,0.6055,-1.4791,0.3357,3.9253,-1.4957,6.0213,0.1361,-5.6491,-1.3058,
5.082871,0.4646,-1.2409,0.2619,3.9253,-1.4957,6.0213,0.1361,-5.6491,-1.3058,
5.084194,0.5557,-1.0464,0.1173,3.9253,-1.4957,6.0213,0.1361,-5.6491,-1.3058,
5.085500,0.6927,-0.9055,0.3550,3.9253,-1.4957,6.0213,0.1361,-5.6491,-1.3058,
5.086523,0.5176,-0.7342,0.7486,3.9253,-1.4957,6.0213,0.1361,-5.6491,-1.3058,
5.118284,0.5176,-0.7342,0.7486,3.9253,-1.4957,6.0213,1.0235,-6.4651,-1.1033,
5.120872,0.5176,-0.7342,0.7486,4.3956,-1.3861,5.9178,1.0235,-6.4651,-1.1033,
5.157469,0.5176,-0.7342,0.7486,4.3956,-1.3861,5.9178,1.7095,-5.7737,-0.9105,
5.159878,0.1746,-0.5485,0.8258,4.3956,-1.3861,5.9178,1.7095,-5.7737,-0.9105,
5.161011,-0.0649,-0.4515,0.7051,4.3956,-1.3861,5.9178,1.7095,-5.7737,-0.9105,
5.162213,-0.0876,-0.4574,0.6462,4.3956,-1.3861,5.9178,1.7095,-5.7737,-0.9105,
5.163815,0.0214,-0.5666,0.6023,4.3956,-1.3861,5.9178,1.7095,-5.7737,-0.9105,
5.164947,0.0214,-0.5666,0.6023,1.2662,3.5098,10.3937,1.7095,-5.7737,-0.9105,
5.197123,0.0214,-0.5666,0.6023,1.2662,3.5098,10.3937,1.8565,-5.4509,-0.6559,
5.198870,0.0214,-0.5666,0.6023,1.5793,3.6295,9.6792,1.8565,-5.4509,-0.6559,
5.237111,0.0214,-0.5666,0.6023,-0.3784,3.2518,7.4529,1.8565,-5.4509,-0.6559,
5.239275,0.0214,-0.5666,0.6023,-0.3784,3.2518,7.4529,1.2802,-4.3548,-1.2088,
5.240667,0.1220,-0.8334,0.5075,-0.3784,3.2518,7.4529,1.2802,-4.3548,-1.2088,
5.241807,0.2183,-1.2453,0.4119,-0.3784,3.2518,7.4529,1.2802,-4.3548,-1.2088,
5.243175,0.0453,-1.2775,0.4703,-0.3784,3.2518,7.4529,1.2802,-4.3548,-1.2088,
5.244519,-0.2227,-1.0642,0.2959,-0.3784,3.2518,7.4529,1.2802,-4.3548,-1.2088,
5.276560,-0.2227,-1.0642,0.2959,-0.3784,3.2518,7.4529,0.7305,-2.4970,-1.7063,
5.278251,-0.2227,-1.0642,0.2959,-0.8829,-2.3645,5.2793,0.7305,-2.4970,-1.7063,
5.304804,-0.4609,-0.9773,0.0589,-0.8829,-2.3645,5.2793,0.7305,-2.4970,-1.7063,
5.306734,-0.9331,-1.2289,-0.2565,-0.8829,-2.3645,5.2793,0.7305,-2.4970,-1.7063,
5.307487,-1.2771,-1.5915,-0.2648,-0.8829,-2.3645,5.2793,0.7305,-2.4970,-1.7063,
5.315988,-1.2771,-1.5915,-0.2648,-0.8829,-2.3645,5.2793,-0.1419,-1.5318,-1.2919,
5.318762,-1.2771,-1.5915,-0.2648,-9.9622,-3.0710,0.0446,-0.1419,-1.5318,-1.2919,
5.356296,-1.2771,-1.5915,-0.2648,-9.9622,-3.0710,0.0446,-0.8418,-0.7382,0.3486,
5.358549,-1.2771,-1.5915,-0.2648,-4.7120,-3.8925,3.1356,-0.8418,-0.7382,0.3486,
5.393364,-1.3887,-1.8859,0.1119,-4.7120,-3.8925,3.1356,-0.8418,-0.7382,0.3486,
5.395493,-0.2447,-1.2431,0.1188,-4.7120,-3.8925,3.1356,-0.8418,-0.7382,0.3486,
5.397156,0.4907,-0.9274,0.1635,-4.7120,-3.8925,3.1356,-0.8418,-0.7382,0.3486,
5.398376,0.6602,-0.8820,0.0325,-4.7120,-3.8925,3.1356,-0.8418,-0.7382,0.3486,
5.399677,0.6602,-0.8820,0.0325,-4.7120,-3.8925,3.1356,-0.3528,0.5784,0.8759,
5.400663,0.6602,-0.8820,0.0325,-4.3581,-3.8254,3.1940,-0.3528,0.5784,0.8759,
5.435535,0.6602,-0.8820,0.0325,3.0237,0.7641,2.2873,-0.3528,0.5784,0.8759,
5.438135,0.6602,-0.8820,0.0325,3.0237,0.7641,2.2873,0.3716,1.4221,0.2165,
5.475371,0.6602,-0.8820,0.0325,3.0237,0.7641,2.2873,0.9894,0.2408,0.4136,
5.477746,0.6602,-0.8820,0.0325,3.1104,0.8196,1.8769,0.9894,0.2408,0.4136,
5.479119,0.4118,-0.8637,-0.0085,3.1104,0.8196,1.8769,0.9894,0.2408,0.4136,
5.480570,0.0676,-0.9116,0.1576,3.1104,0.8196,1.8769,0.9894,0.2408,0.4136,
5.481725,-0.1096,-0.9191,0.2514,3.1104,0.8196,1.8769,0.9894,0.2408,0.4136,
5.483325,-0.2156,-0.8788,0.1860,3.1104,0.8196,1.8769,0.9894,0.2408,0.4136,
5.484475,-0.1873,-0.8918,0.1027,3.1104,0.8196,1.8769,0.9894,0.2408,0.4136,
5.514283,-0.1873,-0.8918,0.1027,3.1104,0.8196,1.8769,1.4336,0.0384,0.6021,
5.517046,-0.1873,-0.8918,0.1027,-2.0262,0.7698,2.4634,1.4336,0.0384,0.6021,
5.556266,-0.1873,-0.8918,0.1027,-2.0262,0.7698,2.4634,1.3175,0.8320,0.3731,
5.559811,-0.1873,-0.8918,0.1027,-0.6162,-3.2387,-1.9803,1.3175,0.8320,0.3731,
5.561021,-0.0561,-0.9636,0.1478,-0.6162,-3.2387,-1.9803,1.3175,0.8320,0.3731,
5.562165,-0.0118,-1.2690,-0.1522,-0.6162,-3.2387,-1.9803,1.3175,0.8320,0.3731,
5.563424,-0.0553,-1.7095,-0.6706,-0.6162,-3.2387,-1.9803,1.3175,0.8320,0.3731,
5.564558,0.1802,-1.3982,-0.4185,-0.6162,-3.2387,-1.9803,1.3175,0.8320,0.3731,
5.593076,0.1802,-1.3982,-0.4185,-0.6162,-3.2387,-1.9803,0.2416,2.0400,0.3167,
5.594638,0.1802,-1.3982,-0.4185,-0.4975,-3.1811,-2.0502,0.2416,2.0400,0.3167,
5.634116,0.1802,-1.3982,-0.4185,4.0763,1.0006,-0.6839,0.2416,2.0400,0.3167,
5.636925,0.1802,-1.3982,-0.4185,4.0763,1.0006,-0.6839,0.3769,2.2285,0.2133,
5.638107,0.5576,-0.6812,-0.0586,4.0763,1.0006,-0.6839,0.3769,2.2285,0.2133,
5.639368,0.5374,-0.5778,0.2627,4.0763,1.0006,-0.6839,0.3769,2.2285,0.2133,
5.640687,0.2701,-0.7459,0.4894,4.0763,1.0006,-0.6839,0.3769,2.2285,0.2133,
5.641817,0.3180,-0.9353,-0.0679,4.0763,1.0006,-0.6839,0.3769,2.2285,0.2133,
5.672552,0.3180,-0.9353,-0.0679,4.0763,1.0006,-0.6839,1.6520,-0.1172,0.4839,
5.674848,0.3180,-0.9353,-0.0679,4.1847,0.9645,-1.2965,1.6520,-0.1172,0.4839,
5.704776,0.2410,-1.2489,-1.6522,4.1847,0.9645,-1.2965,1.6520,-0.1172,0.4839,
5.706932,0.3456,-1.2482,-1.6664,4.1847,0.9645,-1.2965,1.6520,-0.1172,0.4839,
5.708190,0.7863,-1.1776,-0.6036,4.1847,0.9645,-1.2965,1.6520,-0.1172,0.4839,
5.713730,0.7863,-1.1776,-0.6036,4.1847,0.9645,-1.2965,-1.0442,-0.2493,1.2008,
5.715324,0.7863,-1.1776,-0.6036,3.1291,0.0765,-4.1491,-1.0442,-0.2493,1.2008,
5.752494,0.7863,-1.1776,-0.6036,3.1291,0.0765,-4.1491,-2.5760,-1.4051,0.6426,
5.755069,0.7863,-1.1776,-0.6036,7.9630,-2.4816,-6.4880,-2.5760,-1.4051,0.6426,
5.777068,1.1369,-1.2851,-0.0014,7.9630,-2.4816,-6.4880,-2.5760,-1.4051,0.6426,
5.779660,1.4447,-1.2428,0.0474,7.9630,-2.4816,-6.4880,-2.5760,-1.4051,0.6426,
5.781030,1.1078,-1.0354,-0.4556,7.9630,-2.4816,-6.4880,-2.5760,-1.4051,0.6426,
5.782196,0.3065,-0.9861,-1.3011,7.9630,-2.4816,-6.4880,-2.5760,-1.4051,0.6426,
5.794074,0.3065,-0.9861,-1.3011,7.9630,-2.4816,-6.4880,-2.8786,-1.6352,-1.2866,
5.796912,0.3065,-0.9861,-1.3011,9.3407,-1.1518,-3.5262,-2.8786,-1.6352,-1.2866,
5.830968,0.3065,-0.9861,-1.3011,9.3407,-1.1518,-3.5262,-3.9385,-0.9545,-1.8597,
5.833118,0.3065,-0.9861,-1.3011,0.2264,-3.3796,6.7620,-3.9385,-0.9545,-1.8597,
5.864024,-0.1919,-1.2893,-0.9342,0.2264,-3.3796,6.7620,-3.9385,-0.9545,-1.8597,
5.866691,-0.1689,-1.4722,0.8150,0.2264,-3.3796,6.7620,-3.9385,-0.9545,-1.8597,
5.867984,0.6099,-1.0623,1.1468,0.2264,-3.3796,6.7620,-3.9385,-0.9545,-1.8597,
5.870424,1.1525,-1.0059,0.2079,0.2264,-3.3796,6.7620,-3.9385,-0.9545,-1.8597,
5.871802,1.1525,-1.0059,0.2079,0.2264,-3.3796,6.7620,-2.2298,-2.0719,-1.4016,
5.873360,1.1525,-1.0059,0.2079,0.0518,-3.6939,7.4829,-2.2298,-2.0719,-1.4016,
5.910588,1.1525,-1.0059,0.2079,0.0518,-3.6939,7.4829,-1.3233,-1.8003,-2.7204,
5.913687,1.1525,-1.0059,0.2079,9.7778,-4.7845,0.7630,-1.3233,-1.8003,-2.7204,
5.952044,1.1525,-1.0059,0.2079,9.7778,-4.7845,0.7630,-0.6809,-2.6962,-3.6483,
5.954675,1.1525,-1.0059,0.2079,8.9426,-5.1025,1.1721,-0.6809,-2.6962,-3.6483,
5.956016,1.4110,-1.4368,-0.8927,8.9426,-5.1025,1.1721,-0.6809,-2.6962,-3.6483,
5.957355,0.9016,-1.6345,-0.5020,8.9426,-5.1025,1.1721,-0.6809,-2.6962,-3.6483,
5.958637,0.2305,-1.4405,0.3826,8.9426,-5.1025,1.1721,-0.6809,-2.6962,-3.6483,
5.959993,-0.2447,-1.1246,0.4413,8.9426,-5.1025,1.1721,-0.6809,-2.6962,-3.6483,
5.961132,-0.3118,-0.7491,0.2314,8.9426,-5.1025,1.1721,-0.6809,-2.6962,-3.6483,
5.992093,-0.3118,-0.7491,0.2314,8.9426,-5.1025,1.1721,0.7774,-2.2200,-2.4275,
5.994777,-0.3118,-0.7491,0.2314,-3.7154,-2.6547,8.3301,0.7774,-2.2200,-2.4275,
6.030180,-0.3118,-0.7491,0.2314,-3.7154,-2.6547,8.3301,1.4539,-0.4836,-1.2163,
6.033474,-0.3118,-0.7491,0.2314,-6.1513,4.3109,6.7976,1.4539,-0.4836,-1.2163,
6.034862,-0.2559,-0.4056,0.1977,-6.1513,4.3109,6.7976,1.4539,-0.4836,-1.2163,
6.037083,-0.3187,-0.3308,0.2541,-6.1513,4.3109,6.7976,1.4539,-0.4836,-1.2163,
6.038414,-0.4362,-0.4647,0.2988,-6.1513,4.3109,6.7976,1.4539,-0.4836,-1.2163,
6.039724,-0.4978,-0.5532,0.1601,-6.1513,4.3109,6.7976,1.4539,-0.4836,-1.2163,
6.069465,-0.4978,-0.5532,0.1601,-6.1513,4.3109,6.7976,1.6541,1.1910,-0.3928,
6.071913,-0.4978,-0.5532,0.1601,-6.3590,4.4529,6.0051,1.6541,1.1910,-0.3928,
6.109235,-0.4978,-0.5532,0.1601,-6.3590,4.4529,6.0051,1.3015,1.0301,-0.2458,
6.112229,-0.4978,-0.5532,0.1601,-8.0896,2.8539,0.6767,1.3015,1.0301,-0.2458,
6.114012,-0.5945,-0.6064,-0.2516,-8.0896,2.8539,0.6767,1.3015,1.0301,-0.2458,
6.115208,-0.4242,-0.5585,-0.6124,-8.0896,2.8539,0.6767,1.3015,1.0301,-0.2458,
6.117014,0.2007,-0.6296,-0.6356,-8.0896,2.8539,0.6767,1.3015,1.0301,-0.2458,
6.118157,0.4953,-1.1546,-0.9171,-8.0896,2.8539,0.6767,1.3015,1.0301,-0.2458,
6.148679,0.4953,-1.1546,-0.9171,-8.0896,2.8539,0.6767,0.3471,1.4147,-0.8892,
6.151092,0.4953,-1.1546,-0.9171,-8.4012,2.7284,0.3662,0.3471,1.4147,-0.8892,
6.188775,0.4953,-1.1546,-0.9171,-8.4012,2.7284,0.3662,-0.9962,0.5742,0.2005,
6.191151,0.4953,-1.1546,-0.9171,-0.7573,-4.6644,-5.2667,-0.9962,0.5742,0.2005,
6.192489,0.1223,-2.1961,-0.9789,-0.7573,-4.6644,-5.2667,-0.9962,0.5742,0.2005,
6.193853,-0.4921,-2.9535,-0.2584,-0.7573,-4.6644,-5.2667,-0.9962,0.5742,0.2005,
6.195143,-0.2620,-1.8377,-0.1465,-0.7573,-4.6644,-5.2667,-0.9962,0.5742,0.2005,
6.196566,-0.0988,-0.4979,0.1977,-0.7573,-4.6644,-5.2667,-0.9962,0.5742,0.2005,
6.227489,-0.0988,-0.4979,0.1977,-0.7573,-4.6644,-5.2667,-0.7747,1.4232,-0.0210,
6.229843,-0.0988,-0.4979,0.1977,-6.2893,-8.8857,2.3428,-0.7747,1.4232,-0.0210,
6.268262,-0.0988,-0.4979,0.1977,-6.2893,-8.8857,2.3428,0.0051,2.8933,0.1782,
6.271077,-0.0988,-0.4979,0.1977,-1.5063,-2.5610,4.3031,0.0051,2.8933,0.1782,
6.272411,-0.0155,-0.4281,0.4383,-1.5063,-2.5610,4.3031,0.0051,2.8933,0.1782,
6.273777,0.1726,-1.1441,0.1828,-1.5063,-2.5610,4.3031,0.0051,2.8933,0.1782,
6.274879,0.5276,-1.8018,-0.0776,-1.5063,-2.5610,4.3031,0.0051,2.8933,0.1782,
6.276723,0.9019,-1.7473,-0.1277,-1.5063,-2.5610,4.3031,0.0051,2.8933,0.1782,
6.307499,0.9019,-1.7473,-0.1277,-1.5063,-2.5610,4.3031,0.0179,2.4565,-0.0125,
6.310210,0.9019,-1.7473,-0.1277,-1.7093,-2.5187,3.8562,0.0179,2.4565,-0.0125,
6.346909,0.9019,-1.7473,-0.1277,-1.7093,-2.5187,3.8562,-0.0354,2.9252,-0.2767,
6.349787,0.9019,-1.7473,-0.1277,0.4606,-4.7845,0.2745,-0.0354,2.9252,-0.2767,
6.351113,0.5532,-1.3073,-0.1302,0.4606,-4.7845,0.2745,-0.0354,2.9252,-0.2767,
6.352363,-0.0096,-1.0232,-0.1519,0.4606,-4.7845,0.2745,-0.0354,2.9252,-0.2767,
6.353601,-0.4198,-0.9184,-0.2909,0.4606,-4.7845,0.2745,-0.0354,2.9252,-0.2767,
6.354734,-0.6756,-0.9262,-0.6266,0.4606,-4.7845,0.2745,-0.0354,2.9252,-0.2767,
6.386393,-0.6756,-0.9262,-0.6266,0.4606,-4.7845,0.2745,-1.0058,2.3042,0.9143,
6.388737,-0.6756,-0.9262,-0.6266,0.6191,-4.6160,0.2273,-1.0058,2.3042,0.9143,
6.426730,-0.5891,-0.9643,-0.6224,0.6191,-4.6160,0.2273,-1.0058,2.3042,0.9143,
6.429178,-0.3429,-1.0445,-0.4593,0.6191,-4.6160,0.2273,-1.0058,2.3042,0.9143,
6.430593,-0.1054,-1.2294,-0.4016,0.6191,-4.6160,0.2273,-1.0058,2.3042,0.9143,
6.432060,-0.1054,-1.2294,-0.4016,0.6191,-4.6160,0.2273,-2.4162,1.8312,1.8602,
6.433432,-0.1054,-1.2294,-0.4016,-8.9374,-0.3554,-2.8584,-2.4162,1.8312,1.8602,
6.466909,-0.1054,-1.2294,-0.4016,-8.9374,-0.3554,-2.8584,-3.0863,2.4821,1.9124,
6.469595,-0.1054,-1.2294,-0.4016,-4.1095,-2.8903,-0.8914,-3.0863,2.4821,1.9124,
6.504957,-0.1054,-1.2294,-0.4016,-4.1095,-2.8903,-0.8914,-3.0543,2.0847,2.3737,
6.507696,-0.1054,-1.2294,-0.4016,-3.5054,-2.9944,-0.0560,-3.0543,2.0847,2.3737,
6.509074,0.0930,-1.3051,-0.3146,-3.5054,-2.9944,-0.0560,-3.0543,2.0847,2.3737,
6.510244,0.3483,-1.1581,-0.2770,-3.5054,-2.9944,-0.0560,-3.0543,2.0847,2.3737,
6.511418,0.6744,-0.9897,-0.3505,-3.5054,-2.9944,-0.0560,-3.0543,2.0847,2.3737,
6.512578,0.9959,-0.8637,-0.1807,-3.5054,-2.9944,-0.0560,-3.0543,2.0847,2.3737,
6.514783,0.9796,-0.7098,0.0330,-3.5054,-2.9944,-0.0560,-3.0543,2.0847,2.3737,
6.544718,0.9796,-0.7098,0.0330,-3.5054,-2.9944,-0.0560,-1.9944,1.2155,2.2512,
6.547140,0.9796,-0.7098,0.0330,4.7425,-1.2567,1.6955,-1.9944,1.2155,2.2512,
6.584388,0.9796,-0.7098,0.0330,4.7425,-1.2567,1.6955,-0.5424,-0.4527,2.2874,
6.587057,0.9796,-0.7098,0.0330,2.1078,0.0341,2.1269,-0.5424,-0.4527,2.2874,
6.590655,0.2830,-0.8512,-0.3251,2.1078,0.0341,2.1269,-0.5424,-0.4527,2.2874,
6.592273,-0.3028,-1.0662,-0.4360,2.1078,0.0341,2.1269,-0.5424,-0.4527,2.2874,
6.593627,0.0920,-0.9797,-0.5223,2.1078,0.0341,2.1269,-0.5424,-0.4527,2.2874,
6.594864,0.4707,-0.8695,-0.3156,2.1078,0.0341,2.1269,-0.5424,-0.4527,2.2874,
6.623881,0.4707,-0.8695,-0.3156,2.1078,0.0341,2.1269,0.1915,0.1023,2.4493,
6.626163,0.4707,-0.8695,-0.3156,2.8816,0.1251,2.0256,0.1915,0.1023,2.4493,
6.663805,0.4707,-0.8695,-0.3156,2.8816,0.1251,2.0256,1.1982,0.0437,2.1138,
6.666790,0.4707,-0.8695,-0.3156,2.7536,0.2565,1.5189,1.1982,0.0437,2.1138,
6.668450,0.1492,-0.7945,0.0904,2.7536,0.2565,1.5189,1.1982,0.0437,2.1138,
6.669821,0.0294,-0.7445,0.0281,2.7536,0.2565,1.5189,1.1982,0.0437,2.1138,
6.670954,0.1216,-0.7310,-0.1915,2.7536,0.2565,1.5189,1.1982,0.0437,2.1138,
6.672330,0.2190,-0.5717,-0.0645,2.7536,0.2565,1.5189,1.1982,0.0437,2.1138,
6.703754,0.2190,-0.5717,-0.0645,1.9237,2.4073,2.5199,1.1982,0.0437,2.1138,
6.706468,0.2190,-0.5717,-0.0645,1.9237,2.4073,2.5199,1.8800,0.7127,1.1806,
6.743353,0.2190,-0.5717,-0.0645,1.9237,2.4073,2.5199,2.0089,1.6767,0.5393,
6.745726,0.2190,-0.5717,-0.0645,3.1434,4.4395,-2.3169,2.0089,1.6767,0.5393,
6.747194,0.1013,-0.4305,-0.0908,3.1434,4.4395,-2.3169,2.0089,1.6767,0.5393,
6.750165,0.2654,-0.3584,-0.4795,3.1434,4.4395,-2.3169,2.0089,1.6767,0.5393,
6.751530,0.3918,-0.6795,-0.9408,3.1434,4.4395,-2.3169,2.0089,1.6767,0.5393,
6.752682,0.7526,-1.4573,-1.0519,3.1434,4.4395,-2.3169,2.0089,1.6767,0.5393,
6.782583,0.7526,-1.4573,-1.0519,3.1434,4.4395,-2.3169,0.7582,0.5934,0.2655,
6.785151,0.7526,-1.4573,-1.0519,3.1294,4.4320,-2.5367,0.7582,0.5934,0.2655,
6.822416,0.7526,-1.4573,-1.0519,3.1294,4.4320,-2.5367,-0.6522,-2.4959,-0.2671,
6.825102,0.7526,-1.4573,-1.0519,5.8917,-6.6697,-4.2260,-0.6522,-2.4959,-0.2671,
6.826489,1.0157,-1.9093,-0.5343,5.8917,-6.6697,-4.2260,-0.6522,-2.4959,-0.2671,
6.827732,-0.1785,-1.5177,-0.5147,5.8917,-6.6697,-4.2260,-0.6522,-2.4959,-0.2671,
6.828897,-0.3954,-0.7928,-0.2736,5.8917,-6.6697,-4.2260,-0.6522,-2.4959,-0.2671,
6.830600,0.5718,-0.7088,-0.5731,5.8917,-6.6697,-4.2260,-0.6522,-2.4959,-0.2671,
6.864779,0.5718,-0.7088,-0.5731,5.8917,-6.6697,-4.2260,-0.3123,0.8618,0.3167,
6.867153,0.5718,-0.7088,-0.5731,5.8152,-6.6003,-4.0183,-0.3123,0.8618,0.3167,
6.901344,0.5718,-0.7088,-0.5731,5.8152,-6.6003,-4.0183,0.8754,0.6232,0.1505,
6.904075,0.5718,-0.7088,-0.5731,3.2239,1.2313,-0.0429,0.8754,0.6232,0.1505,
6.905436,0.6405,-1.0063,0.0577,3.2239,1.2313,-0.0429,0.8754,0.6232,0.1505,
6.906761,-0.1118,-1.3161,0.2072,3.2239,1.2313,-0.0429,0.8754,0.6232,0.1505,
6.907889,0.6683,-1.0352,-0.3794,3.2239,1.2313,-0.0429,0.8754,0.6232,0.1505,
6.908861,1.0130,-1.0186,-0.4016,3.2239,1.2313,-0.0429,0.8754,0.6232,0.1505,
6.940265,1.0130,-1.0186,-0.4016,3.2239,1.2313,-0.0429,1.6009,-1.0013,-0.0125,
6.942649,1.0130,-1.0186,-0.4016,5.6677,-1.4187,0.0329,1.6009,-1.0013,-0.0125,
6.980991,1.0130,-1.0186,-0.4016,5.6677,-1.4187,0.0329,1.6179,-2.1827,-0.4482,
6.984284,1.0130,-1.0186,-0.4016,7.2761,-1.2982,-2.6762,1.6179,-2.1827,-0.4482,
6.985841,0.9133,-1.1265,-0.2377,7.2761,-1.2982,-2.6762,1.6179,-2.1827,-0.4482,
6.987228,0.7240,-1.1283,-0.3742,7.2761,-1.2982,-2.6762,1.6179,-2.1827,-0.4482,
6.988136,0.4738,-1.1187,-0.6017,7.2761,-1.2982,-2.6762,1.6179,-2.1827,-0.4482,
6.989750,0.4462,-1.0362,-0.6330,7.2761,-1.2982,-2.6762,1.6179,-2.1827,-0.4482,
7.020734,0.4462,-1.0362,-0.6330,7.2112,-1.2473,-2.8984,1.6179,-2.1827,-0.4482,
7.023897,0.4462,-1.0362,-0.6330,7.2112,-1.2473,-2.8984,0.5825,-2.9231,-0.1862,
7.060723,0.4462,-1.0362,-0.6330,7.2112,-1.2473,-2.8984,-0.7853,-4.0128,-0.0967,
7.064037,0.4462,-1.0362,-0.6330,4.8424,1.4705,-3.2295,-0.7853,-4.0128,-0.0967,
7.065374,0.4978,-0.8058,-0.4676,4.8424,1.4705,-3.2295,-0.7853,-4.0128,-0.0967,
7.066465,0.4225,-0.6812,-0.3056,4.8424,1.4705,-3.2295,-0.7853,-4.0128,-0.0967,
7.067651,0.3727,-0.7195,-0.2990,4.8424,1.4705,-3.2295,-0.7853,-4.0128,-0.0967,
7.068874,0.4528,-0.8473,-0.3202,4.8424,1.4705,-3.2295,-0.7853,-4.0128,-0.0967,
7.099306,0.4528,-0.8473,-0.3202,4.8424,1.4705,-3.2295,-2.2405,-4.7479,-0.4099,
7.101163,0.4528,-0.8473,-0.3202,4.9255,1.3006,-2.4180,-2.2405,-4.7479,-0.4099,
7.139798,0.4528,-0.8473,-0.3202,4.9255,1.3006,-2.4180,-2.8594,-4.9002,-1.1790,
7.142577,0.4528,-0.8473,-0.3202,4.9223,0.9125,0.3423,-2.8594,-4.9002,-1.1790,
7.144178,0.5427,-0.9853,-0.2364,4.9223,0.9125,0.3423,-2.8594,-4.9002,-1.1790,
7.145466,0.3602,-1.0645,0.2089,4.9223,0.9125,0.3423,-2.8594,-4.9002,-1.1790,
7.146662,0.0915,-1.0252,0.7476,4.9223,0.9125,0.3423,-2.8594,-4.9002,-1.1790,
7.147914,0.0873,-1.1786,0.6093,4.9223,0.9125,0.3423,-2.8594,-4.9002,-1.1790,
7.178921,0.0873,-1.1786,0.6093,4.9223,0.9125,0.3423,-1.6961,-1.9867,-1.4048,
7.181932,0.0873,-1.1786,0.6093,1.9391,-1.6096,8.6893,-1.6961,-1.9867,-1.4048,
7.219020,0.0873,-1.1786,0.6093,1.9391,-1.6096,8.6893,-1.0474,-0.5486,-1.6978,
7.221460,0.0873,-1.1786,0.6093,1.4504,-8.1954,1.9377,-1.0474,-0.5486,-1.6978,
7.223037,0.0563,-1.6020,0.2238,1.4504,-8.1954,1.9377,-1.0474,-0.5486,-1.6978,
7.224324,0.0739,-1.9819,-0.1128,1.4504,-8.1954,1.9377,-1.0474,-0.5486,-1.6978,
7.225592,0.4272,-1.6938,-0.7158,1.4504,-8.1954,1.9377,-1.0474,-0.5486,-1.6978,
7.227226,0.2652,-1.2365,-0.3356,1.4504,-8.1954,1.9377,-1.0474,-0.5486,-1.6978,
7.258243,0.2652,-1.2365,-0.3356,1.4504,-8.1954,1.9377,-1.0623,-0.5688,-2.2869,
7.261779,0.2652,-1.2365,-0.3356,0.7214,-8.2940,2.2913,-1.0623,-0.5688,-2.2869,
7.298941,0.2652,-1.2365,-0.3356,0.7214,-8.2940,2.2913,0.3087,-0.1438,-1.7510,
7.301920,0.2652,-1.2365,-0.3356,-1.5206,-1.8080,4.6386,0.3087,-0.1438,-1.7510,
7.303828,-0.0282,-1.0401,0.2297,-1.5206,-1.8080,4.6386,0.3087,-0.1438,-1.7510,
7.305104,-0.1921,-1.0112,0.2749,-1.5206,-1.8080,4.6386,0.3087,-0.1438,-1.7510,
7.306490,-0.3243,-0.7875,0.3345,-1.5206,-1.8080,4.6386,0.3087,-0.1438,-1.7510,
7.307740,-0.3829,-0.3614,0.3755,-1.5206,-1.8080,4.6386,0.3087,-0.1438,-1.7510,
7.337786,-0.3829,-0.3614,0.3755,-1.5206,-1.8080,4.6386,1.1375,0.9577,-0.9286,
7.340339,-0.3829,-0.3614,0.3755,-1.9629,-1.6751,4.0899,1.1375,0.9577,-0.9286,
7.376910,-0.3829,-0.3614,0.3755,-1.9629,-1.6751,4.0899,1.4656,3.3961,-0.3364,
7.378748,-0.3829,-0.3614,0.3755,-6.5701,5.1405,5.8986,1.4656,3.3961,-0.3364,
7.379919,-0.5276,-0.0721,0.3052,-6.5701,5.1405,5.8986,1.4656,3.3961,-0.3364,
7.380741,-0.7878,-0.0125,0.1637,-6.5701,5.1405,5.8986,1.4656,3.3961,-0.3364,
7.381428,-0.7448,0.0166,-0.2638,-6.5701,5.1405,5.8986,1.4656,3.3961,-0.3364,
7.382166,-0.1704,-0.3426,-0.8093,-6.5701,5.1405,5.8986,1.4656,3.3961,-0.3364,
7.416661,-0.1704,-0.3426,-0.8093,-6.5701,5.1405,5.8986,1.0182,3.5484,0.0237,
7.418478,-0.1704,-0.3426,-0.8093,-8.2593,7.9806,-1.1206,1.0182,3.5484,0.0237,
7.455702,0.8149,-1.3555,-0.1184,-8.2593,7.9806,-1.1206,1.0182,3.5484,0.0237,
7.458088,0.7230,-2.2005,-0.1189,-8.2593,7.9806,-1.1206,1.0182,3.5484,0.0237,
7.459063,0.2459,-2.9767,-0.9906,-8.2593,7.9806,-1.1206,1.0182,3.5484,0.0237,
7.460063,0.2459,-2.9767,-0.9906,-8.2593,7.9806,-1.1206,0.1670,3.3918,0.1313,
7.460773,0.2459,-2.9767,-0.9906,2.9125,-12.0233,-2.5529,0.1670,3.3918,0.1313,
7.496304,0.2459,-2.9767,-0.9906,2.9125,-12.0233,-2.5529,-1.6311,1.9324,0.1228,
7.498934,0.2459,-2.9767,-0.9906,-8.1820,-3.4075,2.2376,-1.6311,1.9324,0.1228,
7.534957,0.2459,-2.9767,-0.9906,-8.1820,-3.4075,2.2376,-1.2413,2.6206,1.2711,
7.537163,0.2459,-2.9767,-0.9906,-7.7790,-3.3073,2.3704,-1.2413,2.6206,1.2711,
7.539153,-0.5078,-2.6601,-0.6667,-7.7790,-3.3073,2.3704,-1.2413,2.6206,1.2711,
7.540112,-0.7154,-0.9946,0.0670,-7.7790,-3.3073,2.3704,-1.2413,2.6206,1.2711,
7.540826,-0.4091,-0.2307,0.7354,-7.7790,-3.3073,2.3704,-1.2413,2.6206,1.2711,
7.541835,-0.0052,-0.4591,0.3367,-7.7790,-3.3073,2.3704,-1.2413,2.6206,1.2711,
7.543028,0.6409,-1.0269,0.2412,-7.7790,-3.3073,2.3704,-1.2413,2.6206,1.2711,
7.575282,0.6409,-1.0269,0.2412,-7.3429,-3.1118,1.9723,-1.2413,2.6206,1.2711,
7.578222,0.6409,-1.0269,0.2412,-7.3429,-3.1118,1.9723,0.2799,2.8507,1.3723,
7.614656,0.6409,-1.0269,0.2412,-7.3429,-3.1118,1.9723,1.1748,3.1212,0.1249,
7.617440,0.6409,-1.0269,0.2412,3.4464,0.9401,3.6969,1.1748,3.1212,0.1249,
7.618832,1.0839,-1.1737,0.3189,3.4464,0.9401,3.6969,1.1748,3.1212,0.1249,
7.620248,1.0687,-1.0921,0.0284,3.4464,0.9401,3.6969,1.1748,3.1212,0.1249,
7.622017,1.0365,-0.9856,-0.3828,3.4464,0.9401,3.6969,1.1748,3.1212,0.1249,
7.624563,1.0734,-0.9350,-0.6205,3.4464,0.9401,3.6969,1.1748,3.1212,0.1249,
7.654606,1.0734,-0.9350,-0.6205,3.4464,0.9401,3.6969,1.0246,2.0890,-0.4844,
7.658223,1.0734,-0.9350,-0.6205,7.8539,-0.2339,-2.9452,1.0246,2.0890,-0.4844,
7.695112,1.0734,-0.9350,-0.6205,7.8539,-0.2339,-2.9452,0.2107,-0.0586,-0.0658,
7.697449,1.0734,-0.9350,-0.6205,1.1682,0.7482,-5.7785,0.2107,-0.0586,-0.0658,
7.698840,0.8305,-0.9189,-0.5885,1.1682,0.7482,-5.7785,0.2107,-0.0586,-0.0658,
7.700203,0.3705,-0.8898,-0.5030,1.1682,0.7482,-5.7785,0.2107,-0.0586,-0.0658,
7.701542,-0.0553,-0.8979,-0.7580,1.1682,0.7482,-5.7785,0.2107,-0.0586,-0.0658,
7.702689,-0.2894,-0.8932,-0.6596,1.1682,0.7482,-5.7785,0.2107,-0.0586,-0.0658,
7.733675,-0.2894,-0.8932,-0.6596,1.1682,0.7482,-5.7785,-0.7097,-2.0112,0.5872,
7.735519,-0.2894,-0.8932,-0.6596,1.4072,0.7778,-5.2242,-0.7097,-2.0112,0.5872,
7.773607,-0.2894,-0.8932,-0.6596,1.4072,0.7778,-5.2242,-0.4327,-1.2037,0.6607,
7.776846,-0.2894,-0.8932,-0.6596,-2.7354,0.4378,-1.5557,-0.4327,-1.2037,0.6607,
7.778120,-0.1325,-0.9316,-0.2411,-2.7354,0.4378,-1.5557,-0.4327,-1.2037,0.6607,
7.779290,0.1941,-0.9961,0.0834,-2.7354,0.4378,-1.5557,-0.4327,-1.2037,0.6607,
7.780513,0.4819,-0.9428,0.2053,-2.7354,0.4378,-1.5557,-0.4327,-1.2037,0.6607,
7.781647,0.5772,-0.8204,0.1786,-2.7354,0.4378,-1.5557,-0.4327,-1.2037,0.6607,
7.812912,0.5772,-0.8204,0.1786,-2.7354,0.4378,-1.5557,0.2576,-1.0152,0.1260,
7.815496,0.5772,-0.8204,0.1786,-2.5978,0.4514,-1.5505,0.2576,-1.0152,0.1260,
7.852176,0.5950,-0.8124,0.0443,-2.5978,0.4514,-1.5505,0.2576,-1.0152,0.1260,
7.854770,0.5574,-0.9546,-0.0456,-2.5978,0.4514,-1.5505,0.2576,-1.0152,0.1260,
7.855931,0.3400,-1.0782,-0.0757,-2.5978,0.4514,-1.5505,0.2576,-1.0152,0.1260,
7.857655,0.3400,-1.0782,-0.0757,-2.5978,0.4514,-1.5505,0.5537,-1.7385,-0.3768,
7.858804,0.3400,-1.0782,-0.0757,3.4217,1.2274,2.3946,0.5537,-1.7385,-0.3768,
7.893147,0.3400,-1.0782,-0.0757,3.4217,1.2274,2.3946,0.4301,-1.5776,-0.4567,
7.895569,0.3400,-1.0782,-0.0757,1.0378,-0.6549,0.1931,0.4301,-1.5776,-0.4567,
7.932140,0.3400,-1.0782,-0.0757,1.0378,-0.6549,0.1931,0.2000,-0.9289,-0.1158,
7.934931,0.3400,-1.0782,-0.0757,1.0115,-0.6461,0.1918,0.2000,-0.9289,-0.1158,
7.936560,0.0671,-1.1163,-0.1121,1.0115,-0.6461,0.1918,0.2000,-0.9289,-0.1158,
7.937917,-0.0966,-1.0467,-0.1319,1.0115,-0.6461,0.1918,0.2000,-0.9289,-0.1158,
7.939059,-0.1843,-0.9775,-0.1075,1.0115,-0.6461,0.1918,0.2000,-0.9289,-0.1158,
7.940411,-0.1223,-0.9592,-0.1204,1.0115,-0.6461,0.1918,0.2000,-0.9289,-0.1158,
7.941532,0.0966,-0.9419,-0.0823,1.0115,-0.6461,0.1918,0.2000,-0.9289,-0.1158,
7.971388,0.0966,-0.9419,-0.0823,1.0115,-0.6461,0.1918,-0.0556,-0.6796,0.1515,
7.974120,0.0966,-0.9419,-0.0823,-3.3154,-0.0931,-0.1404,-0.0556,-0.6796,0.1515,
8.011441,0.0966,-0.9419,-0.0823,-0.0018,0.6141,0.8081,-0.0556,-0.6796,0.1515,
8.013950,0.0966,-0.9419,-0.0823,-0.0018,0.6141,0.8081,-0.2218,-0.5347,0.0439,
8.015169,0.2476,-0.9118,-0.0031,-0.0018,0.6141,0.8081,-0.2218,-0.5347,0.0439,
8.017146,0.2547,-0.9081,-0.0185,-0.0018,0.6141,0.8081,-0.2218,-0.5347,0.0439,
8.018284,0.1807,-0.9184,-0.0923,-0.0018,0.6141,0.8081,-0.2218,-0.5347,0.0439,
8.019349,0.1115,-0.9506,-0.1055,-0.0018,0.6141,0.8081,-0.2218,-0.5347,0.0439,
8.050619,0.1115,-0.9506,-0.1055,-0.0018,0.6141,0.8081,-0.6202,-0.1065,0.0024,
8.053225,0.1115,-0.9506,-0.1055,0.0040,0.5733,1.0354,-0.6202,-0.1065,0.0024,
8.090704,0.1115,-0.9506,-0.1055,0.0040,0.5733,1.0354,-0.8631,0.5454,-0.1009,
8.095897,0.1115,-0.9506,-0.1055,-0.9901,0.1579,0.8808,-0.8631,0.5454,-0.1009,
8.097779,0.0192,-1.0007,-0.0359,-0.9901,0.1579,0.8808,-0.8631,0.5454,-0.1009,
8.102057,-0.0680,-1.0342,0.0948,-0.9901,0.1579,0.8808,-0.8631,0.5454,-0.1009,
8.105087,-0.2202,-1.0777,0.2246,-0.9901,0.1579,0.8808,-0.8631,0.5454,-0.1009,
8.107117,-0.4457,-1.0611,0.0284,-0.9901,0.1579,0.8808,-0.8631,0.5454,-0.1009,
8.130199,-0.4457,-1.0611,0.0284,-0.9901,0.1579,0.8808,-0.6149,1.1185,0.0461,
8.132052,-0.4457,-1.0611,0.0284,-4.3901,-0.8562,2.8729,-0.6149,1.1185,0.0461,
8.170795,-0.4457,-1.0611,0.0284,-4.3901,-0.8562,2.8729,-0.7512,1.7822,0.3806,
8.174830,-0.4457,-1.0611,0.0284,-4.4770,0.0787,-0.7143,-0.7512,1.7822,0.3806,
8.176676,-0.4797,-0.9497,-0.2692,-4.4770,0.0787,-0.7143,-0.7512,1.7822,0.3806,
8.179094,-0.2737,-0.8991,-0.2887,-4.4770,0.0787,-0.7143,-0.7512,1.7822,0.3806,
8.182119,-0.0350,-1.0303,-0.2396,-4.4770,0.0787,-0.7143,-0.7512,1.7822,0.3806,
8.183306,0.2107,-1.0814,-0.0535,-4.4770,0.0787,-0.7143,-0.7512,1.7822,0.3806,
8.208094,0.2107,-1.0814,-0.0535,-4.4770,0.0787,-0.7143,-0.5190,2.7463,0.1260,
8.209469,0.2107,-1.0814,-0.0535,-4.5588,0.0485,-0.7218,-0.5190,2.7463,0.1260,
8.247057,0.2107,-1.0814,-0.0535,-4.5588,0.0485,-0.7218,-0.2026,3.5878,-0.1158,
8.248370,0.2107,-1.0814,-0.0535,-1.0215,-0.0393,1.4427,-0.2026,3.5878,-0.1158,
8.248948,0.1487,-0.9717,0.0533,-1.0215,-0.0393,1.4427,-0.2026,3.5878,-0.1158,
8.249773,0.0207,-0.8456,-0.0579,-1.0215,-0.0393,1.4427,-0.2026,3.5878,-0.1158,
8.250277,0.0568,-0.7269,-0.1646,-1.0215,-0.0393,1.4427,-0.2026,3.5878,-0.1158,
8.250784,0.2530,-0.7645,-0.2191,-1.0215,-0.0393,1.4427,-0.2026,3.5878,-0.1158,
8.287217,0.2530,-0.7645,-0.2191,-1.0215,-0.0393,1.4427,-0.5819,3.5260,0.0929,
8.288236,0.2530,-0.7645,-0.2191,-1.1855,-0.0653,1.3075,-0.5819,3.5260,0.0929,
8.328401,0.2530,-0.7645,-0.2191,-1.1855,-0.0653,1.3075,-1.0516,4.2036,0.3358,
8.330743,0.2530,-0.7645,-0.2191,-0.4664,0.8685,-1.1292,-1.0516,4.2036,0.3358,
8.331770,0.3251,-1.1082,-0.4187,-0.4664,0.8685,-1.1292,-1.0516,4.2036,0.3358,
8.332693,0.2310,-1.4825,-0.3439,-0.4664,0.8685,-1.1292,-1.0516,4.2036,0.3358,
8.333801,0.2320,-1.2196,0.1838,-0.4664,0.8685,-1.1292,-1.0516,4.2036,0.3358,
8.334760,0.3431,-0.8967,0.3609,-0.4664,0.8685,-1.1292,-1.0516,4.2036,0.3358,
8.367832,0.3431,-0.8967,0.3609,-0.4664,0.8685,-1.1292,-0.1952,3.6848,0.3742,
8.370675,0.3431,-0.8967,0.3609,0.0319,-2.3292,1.8129,-0.1952,3.6848,0.3742,
8.407595,0.3431,-0.8967,0.3609,0.0319,-2.3292,1.8129,0.4216,3.0840,0.3774,
8.410323,0.3431,-0.8967,0.3609,3.0182,-1.2687,1.9363,0.4216,3.0840,0.3774,
8.411666,0.4565,-0.8962,0.3277,3.0182,-1.2687,1.9363,0.4216,3.0840,0.3774,
8.413121,0.5305,-1.0923,0.2270,3.0182,-1.2687,1.9363,0.4216,3.0840,0.3774,
8.414416,0.7409,-1.3086,-0.1607,3.0182,-1.2687,1.9363,0.4216,3.0840,0.3774,
8.415687,0.6949,-1.2871,-0.3249,3.0182,-1.2687,1.9363,0.4216,3.0840,0.3774,
8.447190,0.6949,-1.2871,-0.3249,3.0182,-1.2687,1.9363,0.5910,2.0783,0.1920,
8.449901,0.6949,-1.2871,-0.3249,3.0031,-1.2184,1.4734,0.5910,2.0783,0.1920,
8.487110,0.6949,-1.2871,-0.3249,3.0031,-1.2184,1.4734,0.9148,1.8323,-0.0530,
8.490110,0.6949,-1.2871,-0.3249,2.1982,-2.3424,-2.0392,0.9148,1.8323,-0.0530,
8.491623,0.4582,-1.1781,-0.1187,2.1982,-2.3424,-2.0392,0.9148,1.8323,-0.0530,
8.493027,0.3444,-1.1854,-0.0835,2.1982,-2.3424,-2.0392,0.9148,1.8323,-0.0530,
8.494178,0.2554,-1.1688,-0.3132,2.1982,-2.3424,-2.0392,0.9148,1.8323,-0.0530,
8.496445,0.2034,-1.0235,-0.5682,2.1982,-2.3424,-2.0392,0.9148,1.8323,-0.0530,
8.526414,0.2034,-1.0235,-0.5682,2.1982,-2.3424,-2.0392,0.6570,1.8003,0.3656,
8.529042,0.2034,-1.0235,-0.5682,2.3365,-2.2798,-2.4348,0.6570,1.8003,0.3656,
8.565644,0.2034,-1.0235,-0.5682,2.3365,-2.2798,-2.4348,-0.1707,1.1313,0.9377,
8.567960,0.2034,-1.0235,-0.5682,0.2234,-0.2750,-5.5279,-0.1707,1.1313,0.9377,
8.569202,0.2723,-0.8744,-0.6085,0.2234,-0.2750,-5.5279,-0.1707,1.1313,0.9377,
8.570621,0.3448,-0.8563,-0.5641,0.2234,-0.2750,-5.5279,-0.1707,1.1313,0.9377,
8.572048,0.3986,-0.7569,-0.4849,0.2234,-0.2750,-5.5279,-0.1707,1.1313,0.9377,
8.573550,0.4357,-0.6387,-0.4480,0.2234,-0.2750,-5.5279,-0.1707,1.1313,0.9377,
8.606200,0.4357,-0.6387,-0.4480,0.2234,-0.2750,-5.5279,-1.4532,0.1044,0.9622,
8.608320,0.4357,-0.6387,-0.4480,2.0297,2.4429,-4.9130,-1.4532,0.1044,0.9622,
8.644745,0.4357,-0.6387,-0.4480,2.0297,2.4429,-4.9130,-2.8903,-1.6107,0.8205,
8.646837,0.4357,-0.6387,-0.4480,3.6191,2.1048,-2.5997,-2.8903,-1.6107,0.8205,
8.648110,0.4712,-0.6206,-0.4563,3.6191,2.1048,-2.5997,-2.8903,-1.6107,0.8205,
8.649062,0.5288,-0.7625,-0.4407,3.6191,2.1048,-2.5997,-2.8903,-1.6107,0.8205,
8.650512,0.5743,-0.9572,-0.2809,3.6191,2.1048,-2.5997,-2.8903,-1.6107,0.8205,
8.651596,0.7245,-1.1136,0.0079,3.6191,2.1048,-2.5997,-2.8903,-1.6107,0.8205,
8.684057,0.7245,-1.1136,0.0079,3.6191,2.1048,-2.5997,-3.5039,-1.8578,0.4221,
8.686268,0.7245,-1.1136,0.0079,3.8604,1.8231,-1.1404,-3.5039,-1.8578,0.4221,
8.723955,0.7245,-1.1136,0.0079,3.8604,1.8231,-1.1404,-2.0189,-2.7004,-0.6304,
8.725998,0.7245,-1.1136,0.0079,8.6415,-5.6681,5.8173,-2.0189,-2.7004,-0.6304,
8.727338,0.9209,-1.5746,0.1720,8.6415,-5.6681,5.8173,-2.0189,-2.7004,-0.6304,
8.728546,1.4029,-1.8888,0.5339,8.6415,-5.6681,5.8173,-2.0189,-2.7004,-0.6304,
8.730150,1.3169,-1.4791,0.5109,8.6415,-5.6681,5.8173,-2.0189,-2.7004,-0.6304,
8.731240,0.8640,-1.0745,0.4703,8.6415,-5.6681,5.8173,-2.0189,-2.7004,-0.6304,
8.763234,0.8640,-1.0745,0.4703,8.6415,-5.6681,5.8173,-0.2783,-3.9116,-1.5721,
8.765917,0.8640,-1.0745,0.4703,8.4969,-5.6919,6.0200,-0.2783,-3.9116,-1.5721,
8.803877,0.8640,-1.0745,0.4703,8.4969,-5.6919,6.0200,1.1385,-3.8552,-1.4240,
8.805963,0.8640,-1.0745,0.4703,7.7489,-1.7807,8.5804,1.1385,-3.8552,-1.4240,
8.807560,0.6690,-0.8603,0.6216,7.7489,-1.7807,8.5804,1.1385,-3.8552,-1.4240,
8.808691,0.5552,-0.8581,0.6284,7.7489,-1.7807,8.5804,1.1385,-3.8552,-1.4240,
8.810030,0.4179,-0.9145,0.8190,7.7489,-1.7807,8.5804,1.1385,-3.8552,-1.4240,
8.811154,0.0558,-0.8344,0.9257,7.7489,-1.7807,8.5804,1.1385,-3.8552,-1.4240,
8.842644,0.0558,-0.8344,0.9257,7.7489,-1.7807,8.5804,1.8224,-3.4962,-1.0927,
8.844262,0.0558,-0.8344,0.9257,1.7958,0.9967,10.4515,1.8224,-3.4962,-1.0927,
8.883397,0.0558,-0.8344,0.9257,1.7958,0.9967,10.4515,1.6765,-3.8637,-0.4440,
8.885703,0.0558,-0.8344,0.9257,-4.9436,4.2804,6.4357,1.6765,-3.8637,-0.4440,
8.887306,-0.2935,-0.6482,0.7916,-4.9436,4.2804,6.4357,1.6765,-3.8637,-0.4440,
8.888601,-0.4655,-0.4361,0.4982,-4.9436,4.2804,6.4357,1.6765,-3.8637,-0.4440,
8.889943,-0.3658,-0.5378,0.0130,-4.9436,4.2804,6.4357,1.6765,-3.8637,-0.4440,
8.891204,0.0998,-0.8800,0.1017,-4.9436,4.2804,6.4357,1.6765,-3.8637,-0.4440,
8.922458,0.0998,-0.8800,0.1017,-4.9436,4.2804,6.4357,1.3463,-5.1804,0.0354,
8.925023,0.0998,-0.8800,0.1017,-4.4404,4.3163,6.0381,1.3463,-5.1804,0.0354,
8.962249,0.0998,-0.8800,0.1017,-4.4404,4.3163,6.0381,0.9297,-3.6208,-0.7081,
8.964767,0.0998,-0.8800,0.1017,1.5280,-3.2209,0.4221,0.9297,-3.6208,-0.7081,
8.965981,0.4709,-1.4363,-0.0327,1.5280,-3.2209,0.4221,0.9297,-3.6208,-0.7081,
8.967403,0.1494,-1.6420,-0.4072,1.5280,-3.2209,0.4221,0.9297,-3.6208,-0.7081,
8.968563,-0.0864,-1.1156,-0.2233,1.5280,-3.2209,0.4221,0.9297,-3.6208,-0.7081,
8.969875,-0.1101,-0.8803,-0.1243,1.5280,-3.2209,0.4221,0.9297,-3.6208,-0.7081,
9.002059,-0.1101,-0.8803,-0.1243,1.5280,-3.2209,0.4221,0.4025,-2.2264,-0.5824,
9.005060,-0.1101,-0.8803,-0.1243,1.4102,-3.1637,0.3376,0.4025,-2.2264,-0.5824,
9.042825,-0.1101,-0.8803,-0.1243,1.4102,-3.1637,0.3376,0.4323,-3.0562,-0.1127,
9.045391,-0.1101,-0.8803,-0.1243,-1.8956,-0.5471,-0.5698,0.4323,-3.0562,-0.1127,
9.046847,-0.1443,-1.1705,-0.2533,-1.8956,-0.5471,-0.5698,0.4323,-3.0562,-0.1127,
9.048007,0.2200,-1.3105,-0.0713,-1.8956,-0.5471,-0.5698,0.4323,-3.0562,-0.1127,
9.049360,0.4609,-1.2641,0.1293,-1.8956,-0.5471,-0.5698,0.4323,-3.0562,-0.1127,
9.050605,0.2474,-1.2463,0.1603,-1.8956,-0.5471,-0.5698,0.4323,-3.0562,-0.1127,
9.080370,0.2474,-1.2463,0.1603,-1.8956,-0.5471,-0.5698,0.8243,-2.2786,-0.4727,
9.082673,0.2474,-1.2463,0.1603,2.1459,-2.6142,1.8268,0.8243,-2.2786,-0.4727,
9.120773,0.2474,-1.2463,0.1603,2.1459,-2.6142,1.8268,0.8179,-2.0421,-0.2895,
9.123177,0.2474,-1.2463,0.1603,-0.7458,-0.4720,-0.5685,0.8179,-2.0421,-0.2895,
9.124618,-0.0150,-1.1903,-0.0427,-0.7458,-0.4720,-0.5685,0.8179,-2.0421,-0.2895,
9.125921,-0.0311,-1.0635,-0.2079,-0.7458,-0.4720,-0.5685,0.8179,-2.0421,-0.2895,
9.128306,0.0954,-0.9204,-0.1917,-0.7458,-0.4720,-0.5685,0.8179,-2.0421,-0.2895,
9.129483,0.1587,-0.8475,-0.0510,-0.7458,-0.4720,-0.5685,0.8179,-2.0421,-0.2895,
9.160352,0.1587,-0.8475,-0.0510,-0.6740,-0.4510,-0.6535,0.8179,-2.0421,-0.2895,
9.162151,0.1587,-0.8475,-0.0510,-0.6740,-0.4510,-0.6535,0.4333,-2.1113,-0.0200,
9.200082,0.1587,-0.8475,-0.0510,-0.6740,-0.4510,-0.6535,0.0935,-2.1113,0.2122,
9.202466,0.1587,-0.8475,-0.0510,0.8268,2.2786,0.8865,0.0935,-2.1113,0.2122,
9.203865,0.1269,-0.8058,0.0511,0.8268,2.2786,0.8865,0.0935,-2.1113,0.2122,
9.205006,0.1814,-0.6763,0.0252,0.8268,2.2786,0.8865,0.0935,-2.1113,0.2122,
9.206226,0.3302,-0.6509,-0.0461,0.8268,2.2786,0.8865,0.0935,-2.1113,0.2122,
9.207563,0.3646,-0.7945,-0.0647,0.8268,2.2786,0.8865,0.0935,-2.1113,0.2122,
9.239904,0.3646,-0.7945,-0.0647,0.8268,2.2786,0.8865,-0.5414,-1.8354,0.1579,
9.242456,0.3646,-0.7945,-0.0647,0.9390,2.2247,1.1257,-0.5414,-1.8354,0.1579,
9.279281,0.3646,-0.7945,-0.0647,0.9390,2.2247,1.1257,-1.3883,-0.2887,-0.0626,
9.282000,0.3646,-0.7945,-0.0647,2.0115,1.9752,1.1976,-1.3883,-0.2887,-0.0626,
9.283492,0.1147,-0.9277,-0.0026,2.0115,1.9752,1.1976,-1.3883,-0.2887,-0.0626,
9.284626,-0.4189,-1.1243,0.1183,2.0115,1.9752,1.1976,-1.3883,-0.2887,-0.0626,
9.285895,-0.9573,-1.4222,0.0553,2.0115,1.9752,1.1976,-1.3883,-0.2887,-0.0626,
9.287464,-1.1838,-1.6208,-0.2956,2.0115,1.9752,1.1976,-1.3883,-0.2887,-0.0626,
9.318656,-1.1838,-1.6208,-0.2956,2.0115,1.9752,1.1976,-2.5909,2.2264,0.4519,
9.320656,-1.1838,-1.6208,-0.2956,-8.8575,-4.0160,2.0685,-2.5909,2.2264,0.4519,
9.358191,-1.1838,-1.6208,-0.2956,-8.8575,-4.0160,2.0685,-2.5899,3.1979,0.6916,
9.360381,-1.1838,-1.6208,-0.2956,-5.0993,-4.3400,3.4640,-2.5899,3.1979,0.6916,
9.361314,-0.9453,-1.6147,-0.1111,-5.0993,-4.3400,3.4640,-2.5899,3.1979,0.6916,
9.362318,-0.3783,-1.4405,0.1877,-5.0993,-4.3400,3.4640,-2.5899,3.1979,0.6916,
9.363359,-0.0773,-1.1466,-0.0295,-5.0993,-4.3400,3.4640,-2.5899,3.1979,0.6916,
9.364283,-0.0309,-0.8361,-0.3425,-5.0993,-4.3400,3.4640,-2.5899,3.1979,0.6916,
9.397644,-0.0309,-0.8361,-0.3425,-5.0993,-4.3400,3.4640,-1.3670,3.4238,0.7385,
9.400071,-0.0309,-0.8361,-0.3425,-5.2226,-4.4378,3.8185,-1.3670,3.4238,0.7385,
9.437553,-0.0309,-0.8361,-0.3425,-5.2226,-4.4378,3.8185,-0.4359,3.0989,0.9910,
9.440488,-0.0309,-0.8361,-0.3425,-0.9861,2.0275,1.6543,-0.4359,3.0989,0.9910,
9.441687,0.0099,-0.6993,-0.2320,-0.9861,2.0275,1.6543,-0.4359,3.0989,0.9910,
9.443213,-0.0592,-0.6655,-0.0549,-0.9861,2.0275,1.6543,-0.4359,3.0989,0.9910,
9.444355,-0.1511,-0.4828,0.1598,-0.9861,2.0275,1.6543,-0.4359,3.0989,0.9910,
9.445296,-0.1421,-0.1840,0.3391,-0.9861,2.0275,1.6543,-0.4359,3.0989,0.9910,
9.477923,-0.1421,-0.1840,0.3391,-0.9861,2.0275,1.6543,0.5388,4.0651,0.9846,
9.480575,-0.1421,-0.1840,0.3391,-1.1806,2.0995,1.3006,0.5388,4.0651,0.9846,
9.517130,-0.1421,-0.1840,0.3391,-1.1806,2.0995,1.3006,1.6722,6.0955,0.3198,
9.523705,-0.1421,-0.1840,0.3391,-2.5218,7.0363,5.3169,1.6722,6.0955,0.3198,
9.525208,-0.0304,-0.0494,0.4085,-2.5218,7.0363,5.3169,1.6722,6.0955,0.3198,
9.528496,0.1281,-0.1703,0.2898,-2.5218,7.0363,5.3169,1.6722,6.0955,0.3198,
9.529763,0.1536,-0.6878,-0.2245,-2.5218,7.0363,5.3169,1.6722,6.0955,0.3198,
9.530973,0.2857,-1.4671,-1.1951,-2.5218,7.0363,5.3169,1.6722,6.0955,0.3198,
9.555674,0.2857,-1.4671,-1.1951,-2.5218,7.0363,5.3169,0.4717,5.7844,0.0514,
9.557862,0.2857,-1.4671,-1.1951,-0.0595,1.7932,-1.8703,0.4717,5.7844,0.0514,
9.596797,0.2857,-1.4671,-1.1951,-0.0595,1.7932,-1.8703,-0.4263,4.5316,0.5297,
9.599288,0.2857,-1.4671,-1.1951,2.4972,-7.1849,-1.6872,-0.4263,4.5316,0.5297,
9.600769,0.5655,-2.2003,-1.2559,2.4972,-7.1849,-1.6872,-0.4263,4.5316,0.5297,
9.602025,0.5154,-1.8739,0.1913,2.4972,-7.1849,-1.6872,-0.4263,4.5316,0.5297,
9.603365,0.3148,-1.0410,0.0428,2.4972,-7.1849,-1.6872,-0.4263,4.5316,0.5297,
9.604609,0.3453,-0.7540,-0.6518,2.4972,-7.1849,-1.6872,-0.4263,4.5316,0.5297,
9.635535,0.3453,-0.7540,-0.6518,2.4972,-7.1849,-1.6872,-0.3464,3.2352,0.4796,
9.637407,0.3453,-0.7540,-0.6518,2.4344,-7.0476,-1.7924,-0.3464,3.2352,0.4796,
9.676712,0.2923,-0.8764,-0.0928,2.4344,-7.0476,-1.7924,-0.3464,3.2352,0.4796,
9.679126,0.4115,-0.9265,0.5597,2.4344,-7.0476,-1.7924,-0.3464,3.2352,0.4796,
9.680395,0.5843,-1.2507,-0.0207,2.4344,-7.0476,-1.7924,-0.3464,3.2352,0.4796,
9.681632,0.5843,-1.2507,-0.0207,2.4344,-7.0476,-1.7924,-0.0354,3.8957,0.9643,
9.682896,0.5843,-1.2507,-0.0207,1.4327,1.3630,0.6264,-0.0354,3.8957,0.9643,
9.714993,0.5843,-1.2507,-0.0207,1.4327,1.3630,0.6264,0.8499,1.9068,1.0432,
9.717861,0.5843,-1.2507,-0.0207,6.4939,-3.9676,-1.8060,0.8499,1.9068,1.0432,
9.754752,0.5843,-1.2507,-0.0207,6.4939,-3.9676,-1.8060,1.2866,-0.1992,0.4946,
9.757522,0.5843,-1.2507,-0.0207,6.5778,-3.8423,-2.2622,1.2866,-0.1992,0.4946,
9.759017,0.9346,-1.5866,-0.4641,6.5778,-3.8423,-2.2622,1.2866,-0.1992,0.4946,
9.760599,1.0140,-1.4053,-0.3097,6.5778,-3.8423,-2.2622,1.2866,-0.1992,0.4946,
9.761852,0.7993,-1.0447,-0.1385,6.5778,-3.8423,-2.2622,1.2866,-0.1992,0.4946,
9.763966,0.5779,-0.8356,-0.2010,6.5778,-3.8423,-2.2622,1.2866,-0.1992,0.4946,
9.765228,0.3900,-0.7906,-0.3596,6.5778,-3.8423,-2.2622,1.2866,-0.1992,0.4946,
9.794407,0.3900,-0.7906,-0.3596,6.5778,-3.8423,-2.2622,1.7351,-0.0884,0.0280,
9.796206,0.3900,-0.7906,-0.3596,4.0199,1.2715,-2.5899,1.7351,-0.0884,0.0280,
9.834321,0.3900,-0.7906,-0.3596,4.0199,1.2715,-2.5899,1.1353,0.0618,0.3997,
9.836887,0.3900,-0.7906,-0.3596,-0.2249,1.1272,-9.1477,1.1353,0.0618,0.3997,
9.838325,0.2181,-0.8874,-0.5369,-0.2249,1.1272,-9.1477,1.1353,0.0618,0.3997,
9.839745,0.0483,-0.9670,-0.9325,-0.2249,1.1272,-9.1477,1.1353,0.0618,0.3997,
9.840829,0.1514,-0.8556,-1.1458,-0.2249,1.1272,-9.1477,1.1353,0.0618,0.3997,
9.841995,0.4931,-0.7081,-0.9681,-0.2249,1.1272,-9.1477,1.1353,0.0618,0.3997,
9.873790,0.4931,-0.7081,-0.9681,-0.2249,1.1272,-9.1477,-0.6554,-0.2066,1.1209,
9.876634,0.4931,-0.7081,-0.9681,0.2125,1.1802,-8.7282,-0.6554,-0.2066,1.1209,
9.914104,0.4931,-0.7081,-0.9681,0.2125,1.1802,-8.7282,-2.6282,-1.6320,0.6075,
9.917059,0.4931,-0.7081,-0.9681,5.9916,2.7581,-6.7441,-2.6282,-1.6320,0.6075,
9.918397,0.7648,-0.6931,-0.7485,5.9916,2.7581,-6.7441,-2.6282,-1.6320,0.6075,
9.920181,0.8784,-0.8072,-0.6657,5.9916,2.7581,-6.7441,-2.6282,-1.6320,0.6075,
9.921486,0.8234,-0.9492,-0.6681,5.9916,2.7581,-6.7441,-2.6282,-1.6320,0.6075,
9.922798,0.7360,-1.0660,-0.4673,5.9916,2.7581,-6.7441,-2.6282,-1.6320,0.6075,
9.952802,0.7360,-1.0660,-0.4673,5.9916,2.7581,-6.7441,-3.9832,-3.9958,-0.0509,
9.955274,0.7360,-1.0660,-0.4673,6.1724,2.4179,-4.9709,-3.9832,-3.9958,-0.0509,
9.992664,0.7360,-1.0660,-0.4673,6.1724,2.4179,-4.9709,-2.7486,-2.2626,-0.9105,
9.995868,0.7360,-1.0660,-0.4673,6.7490,-1.1856,0.8473,-2.7486,-2.2626,-0.9105,
9.997391,0.8007,-1.1815,0.2018,6.7490,-1.1856,0.8473,-2.7486,-2.2626,-0.9105,
9.998800,0.7072,-1.4412,0.7618,6.7490,-1.1856,0.8473,-2.7486,-2.2626,-0.9105,
10.000600,0.4482,-1.9337,0.5637,6.7490,-1.1856,0.8473,-2.7486,-2.2626,-0.9105,
10.001871,0.5674,-1.8778,0.5102,6.7490,-1.1856,0.8473,-2.7486,-2.2626,-0.9105,
10.033358,0.5674,-1.8778,0.5102,4.5266,-7.9700,10.1574,-2.7486,-2.2626,-0.9105,
10.035747,0.5674,-1.8778,0.5102,4.5266,-7.9700,10.1574,-0.9526,-2.3084,-1.2301,
10.072226,0.5674,-1.8778,0.5102,4.5266,-7.9700,10.1574,0.1042,-3.5974,-1.5081,
10.074950,0.5674,-1.8778,0.5102,6.3441,-2.5035,4.5623,0.1042,-3.5974,-1.5081,
10.076610,0.7555,-1.3445,0.3821,6.3441,-2.5035,4.5623,0.1042,-3.5974,-1.5081,
10.077894,0.8630,-1.0799,-0.0982,6.3441,-2.5035,4.5623,0.1042,-3.5974,-1.5081,
10.079025,0.6754,-1.1537,-0.1732,6.3441,-2.5035,4.5623,0.1042,-3.5974,-1.5081,
10.080431,0.3627,-1.0134,0.5165,6.3441,-2.5035,4.5623,0.1042,-3.5974,-1.5081,
10.111686,0.3627,-1.0134,0.5165,6.3441,-2.5035,4.5623,1.2142,-4.7479,-1.2418,
10.114097,0.3627,-1.0134,0.5165,6.5504,-2.3175,4.2340,1.2142,-4.7479,-1.2418,
10.150852,0.3627,-1.0134,0.5165,6.5504,-2.3175,4.2340,2.1441,-4.8405,-0.8562,
10.153579,0.3627,-1.0134,0.5165,0.2589,2.2863,10.5845,2.1441,-4.8405,-0.8562,
10.154895,0.0805,-0.6934,0.9084,0.2589,2.2863,10.5845,2.1441,-4.8405,-0.8562,
10.156293,-0.1853,-0.5343,0.8874,0.2589,2.2863,10.5845,2.1441,-4.8405,-0.8562,
10.157330,-0.4555,-0.4498,0.8681,0.2589,2.2863,10.5845,2.1441,-4.8405,-0.8562,
10.158470,-0.6981,-0.4403,0.5944,0.2589,2.2863,10.5845,2.1441,-4.8405,-0.8562,
10.190765,-0.6981,-0.4403,0.5944,0.2589,2.2863,10.5845,2.3103,-3.9543,-0.3854,
10.193471,-0.6981,-0.4403,0.5944,0.5169,2.4776,9.6021,2.3103,-3.9543,-0.3854,
10.230694,-0.6981,-0.4403,0.5944,0.5169,2.4776,9.6021,1.8363,-3.4174,-0.2692,
10.233278,-0.6981,-0.4403,0.5944,-5.9753,5.3732,6.9025,1.8363,-3.4174,-0.2692,
10.234564,-0.6453,-0.4740,0.2683,-5.9753,5.3732,6.9025,1.8363,-3.4174,-0.2692,
10.235649,-0.3074,-0.7469,0.0171,-5.9753,5.3732,6.9025,1.8363,-3.4174,-0.2692,
10.236972,-0.0387,-1.1544,-0.3574,-5.9753,5.3732,6.9025,1.8363,-3.4174,-0.2692,
10.238222,0.0358,-1.5101,-0.8360,-5.9753,5.3732,6.9025,1.8363,-3.4174,-0.2692,
10.269918,0.0358,-1.5101,-0.8360,-5.9753,5.3732,6.9025,0.2522,-1.5457,-0.6623,
10.272468,0.0358,-1.5101,-0.8360,-1.2782,-1.2856,-2.6379,0.2522,-1.5457,-0.6623,
10.310457,0.0358,-1.5101,-0.8360,-1.2782,-1.2856,-2.6379,-0.7214,0.5540,-0.8839,
10.312629,0.0358,-1.5101,-0.8360,-3.7574,-3.3395,1.2561,-0.7214,0.5540,-0.8839,
10.314131,0.0812,-1.4683,-0.5330,-3.7574,-3.3395,1.2561,-0.7214,0.5540,-0.8839,
10.315374,-0.2838,-1.3608,0.1764,-3.7574,-3.3395,1.2561,-0.7214,0.5540,-0.8839,
10.316628,-0.7714,-1.2118,0.2966,-3.7574,-3.3395,1.2561,-0.7214,0.5540,-0.8839,
10.317697,-0.7792,-1.0642,0.3350,-3.7574,-3.3395,1.2561,-0.7214,0.5540,-0.8839,
10.349681,-0.7792,-1.0642,0.3350,-3.7574,-3.3395,1.2561,-0.2367,0.0139,0.2336,
10.351851,-0.7792,-1.0642,0.3350,-3.6058,-3.2928,1.3257,-0.2367,0.0139,0.2336,
10.389320,-0.7792,-1.0642,0.3350,-3.6058,-3.2928,1.3257,-0.0183,-0.1225,0.7246,
10.391964,-0.7792,-1.0642,0.3350,-4.2812,-1.4191,3.4661,-0.0183,-0.1225,0.7246,
10.393570,-0.4355,-1.1698,0.2106,-4.2812,-1.4191,3.4661,-0.0183,-0.1225,0.7246,
10.394867,-0.0776,-1.2428,0.0650,-4.2812,-1.4191,3.4661,-0.0183,-0.1225,0.7246,
10.395856,0.1660,-1.1957,-0.1175,-4.2812,-1.4191,3.4661,-0.0183,-0.1225,0.7246,
10.397445,0.2476,-1.1038,-0.2308,-4.2812,-1.4191,3.4661,-0.0183,-0.1225,0.7246,
10.428574,0.2476,-1.1038,-0.2308,-4.0879,-1.3782,3.2866,-0.0183,-0.1225,0.7246,
10.430773,0.2476,-1.1038,-0.2308,-4.0879,-1.3782,3.2866,0.3172,1.1345,0.4754,
10.468981,0.2476,-1.1038,-0.2308,-4.0879,-1.3782,3.2866,0.5409,1.1537,0.4530,
10.471454,0.2476,-1.1038,-0.2308,2.4084,-0.6674,-0.9785,0.5409,1.1537,0.4530,
10.472878,0.2571,-0.9699,-0.2890,2.4084,-0.6674,-0.9785,0.5409,1.1537,0.4530,
10.474046,0.1626,-0.8886,-0.2335,2.4084,-0.6674,-0.9785,0.5409,1.1537,0.4530,
10.475212,0.0954,-0.8617,0.0276,2.4084,-0.6674,-0.9785,0.5409,1.1537,0.4530,
10.476809,0.0426,-0.7427,0.2204,2.4084,-0.6674,-0.9785,0.5409,1.1537,0.4530,
10.507741,0.0426,-0.7427,0.2204,2.4084,-0.6674,-0.9785,1.1407,-0.9118,0.5702,
10.509698,0.0426,-0.7427,0.2204,1.4308,1.8690,0.6719,1.1407,-0.9118,0.5702,
10.546916,0.0426,-0.7427,0.2204,1.4308,1.8690,0.6719,1.2951,-1.2602,0.6565,
10.549638,0.0426,-0.7427,0.2204,2.1960,1.8123,-0.2681,1.2951,-1.2602,0.6565,
10.551316,0.0292,-0.7249,0.1185,2.1960,1.8123,-0.2681,1.2951,-1.2602,0.6565,
10.552652,0.1423,-0.8512,-0.1265,2.1960,1.8123,-0.2681,1.2951,-1.2602,0.6565,
10.553884,0.2896,-0.9257,-0.1001,2.1960,1.8123,-0.2681,1.2951,-1.2602,0.6565,
10.554992,0.4665,-0.9301,0.1029,2.1960,1.8123,-0.2681,1.2951,-1.2602,0.6565,
10.586255,0.4665,-0.9301,0.1029,2.1960,1.8123,-0.2681,1.2845,-0.2833,0.0120,
10.587998,0.4665,-0.9301,0.1029,2.1637,1.7730,-0.7713,1.2845,-0.2833,0.0120,
10.625435,0.4665,-0.9301,0.1029,2.1637,1.7730,-0.7713,1.0096,0.1502,-0.1340,
10.626822,0.4665,-0.9301,0.1029,0.6345,-1.8513,-1.5061,1.0096,0.1502,-0.1340,
10.627732,0.0859,-1.1761,-0.0122,0.6345,-1.8513,-1.5061,1.0096,0.1502,-0.1340,
10.628610,-0.5413,-1.5082,-0.3110,0.6345,-1.8513,-1.5061,1.0096,0.1502,-0.1340,
10.629523,-0.2378,-1.1424,-0.5758,0.6345,-1.8513,-1.5061,1.0096,0.1502,-0.1340,
10.630408,0.3507,-0.7469,-0.3242,0.6345,-1.8513,-1.5061,1.0096,0.1502,-0.1340,
10.665190,0.3507,-0.7469,-0.3242,0.6345,-1.8513,-1.5061,-0.0237,0.7031,0.2836,
10.666758,0.3507,-0.7469,-0.3242,0.7560,-1.8272,-1.4537,-0.0237,0.7031,0.2836,
10.704787,0.3507,-0.7469,-0.3242,0.7560,-1.8272,-1.4537,-0.1398,-0.2556,0.1792,
10.706864,0.3507,-0.7469,-0.3242,2.5374,1.3237,-3.7686,-0.1398,-0.2556,0.1792,
10.708129,0.4372,-0.7532,-0.0630,2.5374,1.3237,-3.7686,-0.1398,-0.2556,0.1792,
10.709495,0.2593,-1.1178,-0.2501,2.5374,1.3237,-3.7686,-0.1398,-0.2556,0.1792,
10.710801,0.0018,-1.4928,-0.6640,2.5374,1.3237,-3.7686,-0.1398,-0.2556,0.1792,
10.711936,0.0099,-1.4375,-0.9513,2.5374,1.3237,-3.7686,-0.1398,-0.2556,0.1792,
10.744611,0.0099,-1.4375,-0.9513,2.5374,1.3237,-3.7686,-1.7771,-1.3049,0.6703,
10.746662,0.0099,-1.4375,-0.9513,1.8436,-3.2153,-5.9592,-1.7771,-1.3049,0.6703,
10.784821,0.0099,-1.4375,-0.9513,1.8436,-3.2153,-5.9592,-3.0810,-0.5678,0.4221,
10.786790,0.0099,-1.4375,-0.9513,6.2216,-1.2002,-3.5857,-3.0810,-0.5678,0.4221,
10.787912,0.3634,-1.2064,-0.7944,6.2216,-1.2002,-3.5857,-3.0810,-0.5678,0.4221,
10.789004,0.5743,-1.1373,-0.4150,6.2216,-1.2002,-3.5857,-3.0810,-0.5678,0.4221,
10.790561,0.6510,-1.0611,-0.3134,6.2216,-1.2002,-3.5857,-3.0810,-0.5678,0.4221,
10.791702,0.5442,-1.0572,-0.5558,6.2216,-1.2002,-3.5857,-3.0810,-0.5678,0.4221,
10.823876,0.5442,-1.0572,-0.5558,6.2216,-1.2002,-3.5857,-3.1864,0.2653,-0.5111,
10.826010,0.5442,-1.0572,-0.5558,5.8990,-1.4120,-2.2975,-3.1864,0.2653,-0.5111,
10.863578,0.5442,-1.0572,-0.5558,5.8990,-1.4120,-2.2975,-2.9063,0.1673,-1.0469,
10.865577,0.5442,-1.0572,-0.5558,4.3013,-1.2278,0.9901,-2.9063,0.1673,-1.0469,
10.866941,0.3930,-1.1131,-0.3989,4.3013,-1.2278,0.9901,-2.9063,0.1673,-1.0469,
10.868147,0.3121,-1.0770,0.1058,4.3013,-1.2278,0.9901,-2.9063,0.1673,-1.0469,
10.869366,0.3773,-0.8886,0.3457,4.3013,-1.2278,0.9901,-2.9063,0.1673,-1.0469,
10.870459,0.4790,-0.8703,0.0396,4.3013,-1.2278,0.9901,-2.9063,0.1673,-1.0469,
10.903150,0.4790,-0.8703,0.0396,4.3013,-1.2278,0.9901,-1.7536,-0.5103,-1.5731,
10.905280,0.4790,-0.8703,0.0396,3.7476,-1.4888,1.6069,-1.7536,-0.5103,-1.5731,
10.943193,0.4790,-0.8703,0.0396,3.7476,-1.4888,1.6069,-1.1177,-1.0621,-2.5883,
10.945370,0.4790,-0.8703,0.0396,3.4798,-0.3557,5.5796,-1.1177,-1.0621,-2.5883,
10.946760,0.5510,-1.0591,-0.1202,3.4798,-0.3557,5.5796,-1.1177,-1.0621,-2.5883,
10.948027,0.7265,-1.2499,-0.1861,3.4798,-0.3557,5.5796,-1.1177,-1.0621,-2.5883,
10.949253,0.8103,-1.3789,-0.2589,3.4798,-0.3557,5.5796,-1.1177,-1.0621,-2.5883,
10.950600,0.4216,-1.4109,-0.1409,3.4798,-0.3557,5.5796,-1.1177,-1.0621,-2.5883,
10.982585,0.4216,-1.4109,-0.1409,3.4798,-0.3557,5.5796,-0.2900,-1.5457,-3.3404,
10.985394,0.4216,-1.4109,-0.1409,4.3479,-4.5306,2.9457,-0.2900,-1.5457,-3.3404,
11.022666,0.4216,-1.4109,-0.1409,4.3479,-4.5306,2.9457,0.7529,-1.9516,-2.4914,
11.025840,0.4216,-1.4109,-0.1409,-2.8960,-1.1059,3.4107,0.7529,-1.9516,-2.4914,
11.027403,0.0038,-1.2211,-0.1605,-2.8960,-1.1059,3.4107,0.7529,-1.9516,-2.4914,
11.032477,-0.0795,-0.9643,-0.1827,-2.8960,-1.1059,3.4107,0.7529,-1.9516,-2.4914,
11.033907,-0.0531,-0.7862,-0.0593,-2.8960,-1.1059,3.4107,0.7529,-1.9516,-2.4914,
11.035027,-0.1013,-0.6502,0.0193,-2.8960,-1.1059,3.4107,0.7529,-1.9516,-2.4914,
11.061404,-0.1013,-0.6502,0.0193,-2.8960,-1.1059,3.4107,1.2696,-1.1313,-1.3207,
11.063438,-0.1013,-0.6502,0.0193,-3.0887,-0.9947,3.0412,1.2696,-1.1313,-1.3207,
11.101978,-0.1513,-0.5984,0.0496,-3.0887,-0.9947,3.0412,1.2696,-1.1313,-1.3207,
11.104039,-0.2161,-0.6252,0.0426,-3.0887,-0.9947,3.0412,1.2696,-1.1313,-1.3207,
11.105011,-0.2251,-0.6421,0.0731,-3.0887,-0.9947,3.0412,1.2696,-1.1313,-1.3207,
11.106337,-0.2251,-0.6421,0.0731,-3.0887,-0.9947,3.0412,1.4549,-0.3377,-0.2703,
11.107509,-0.2251,-0.6421,0.0731,-4.1652,2.7542,4.1779,1.4549,-0.3377,-0.2703,
11.141184,-0.2251,-0.6421,0.0731,-4.1652,2.7542,4.1779,1.2973,0.5923,0.3646,
11.143474,-0.2251,-0.6421,0.0731,-4.5591,3.1476,2.7061,1.2973,0.5923,0.3646,
11.180849,-0.2251,-0.6421,0.0731,-4.5591,3.1476,2.7061,1.2323,1.2815,-0.0551,
11.183156,-0.2251,-0.6421,0.0731,-4.6495,3.2318,2.0939,1.2323,1.2815,-0.0551,
11.184945,-0.2063,-0.6013,0.0071,-4.6495,3.2318,2.0939,1.2323,1.2815,-0.0551,
11.186273,-0.1963,-0.5612,-0.2450,-4.6495,3.2318,2.0939,1.2323,1.2815,-0.0551,
11.187382,0.0375,-0.6194,-0.3156,-4.6495,3.2318,2.0939,1.2323,1.2815,-0.0551,
11.188477,0.4274,-1.0061,-0.6745,-4.6495,3.2318,2.0939,1.2323,1.2815,-0.0551,
11.190008,0.4184,-1.6423,-1.2603,-4.6495,3.2318,2.0939,1.2323,1.2815,-0.0551,
11.220434,0.4184,-1.6423,-1.2603,-4.6495,3.2318,2.0939,0.4557,1.3529,-0.3268,
11.224257,0.4184,-1.6423,-1.2603,0.0361,-1.5125,-4.9460,0.4557,1.3529,-0.3268,
11.259926,0.4184,-1.6423,-1.2603,0.0361,-1.5125,-4.9460,-0.2996,-0.6924,0.1739,
11.261332,0.4184,-1.6423,-1.2603,-5.1227,-5.5909,1.8156,-0.2996,-0.6924,0.1739,
11.262341,0.1103,-1.6579,-0.4424,-5.1227,-5.5909,1.8156,-0.2996,-0.6924,0.1739,
11.263343,-0.1433,-1.3818,0.2026,-5.1227,-5.5909,1.8156,-0.2996,-0.6924,0.1739,
11.264233,-0.7299,-1.5023,0.0120,-5.1227,-5.5909,1.8156,-0.2996,-0.6924,0.1739,
11.264934,-1.3045,-1.3301,-0.2211,-5.1227,-5.5909,1.8156,-0.2996,-0.6924,0.1739,
11.299108,-1.3045,-1.3301,-0.2211,-5.1227,-5.5909,1.8156,-0.5041,0.3611,0.2453,
11.300840,-1.3045,-1.3301,-0.2211,-4.9866,-5.5248,1.9304,-0.5041,0.3611,0.2453,
11.335042,-1.0675,-0.9235,0.0587,-4.9866,-5.5248,1.9304,-0.5041,0.3611,0.2453,
11.336821,0.1145,-0.9624,0.3308,-4.9866,-5.5248,1.9304,-0.5041,0.3611,0.2453,
11.338522,0.9026,-1.4661,0.5534,-4.9866,-5.5248,1.9304,-0.5041,0.3611,0.2453,
11.339748,0.9026,-1.4661,0.5534,-4.9866,-5.5248,1.9304,-0.5478,4.4230,0.8535,
11.340684,0.9026,-1.4661,0.5534,-9.8370,-1.1431,2.9289,-0.5478,4.4230,0.8535,
11.378569,0.9026,-1.4661,0.5534,-9.8370,-1.1431,2.9289,0.0168,3.1734,0.2730,
11.380023,0.9026,-1.4661,0.5534,8.5733,-5.1152,4.9899,0.0168,3.1734,0.2730,
11.418626,0.9026,-1.4661,0.5534,8.5733,-5.1152,4.9899,0.2448,3.1564,-0.7305,
11.421030,0.9026,-1.4661,0.5534,7.9470,-5.1008,4.4470,0.2448,3.1564,-0.7305,
11.422328,1.3570,-1.6613,0.3597,7.9470,-5.1008,4.4470,0.2448,3.1564,-0.7305,
11.423677,1.2182,-1.3396,0.0120,7.9470,-5.1008,4.4470,0.2448,3.1564,-0.7305,
11.424857,0.5679,-1.0034,-0.0652,7.9470,-5.1008,4.4470,0.2448,3.1564,-0.7305,
11.426141,-0.0739,-0.9140,-0.2262,7.9470,-5.1008,4.4470,0.2448,3.1564,-0.7305,
11.427346,-0.3612,-0.8666,-0.6540,7.9470,-5.1008,4.4470,0.2448,3.1564,-0.7305,
11.458074,-0.3612,-0.8666,-0.6540,7.9470,-5.1008,4.4470,-0.4657,2.9806,-0.1574,
11.460187,-0.3612,-0.8666,-0.6540,-3.1377,0.3464,-1.8748,-0.4657,2.9806,-0.1574,
11.498285,-0.3612,-0.8666,-0.6540,-3.1377,0.3464,-1.8748,-1.6333,2.3596,0.6906,
11.500902,-0.4917,-0.7911,-0.6970,-3.1377,0.3464,-1.8748,-1.6333,2.3596,0.6906,
11.502161,-0.3678,-0.7427,-0.5003,-3.1377,0.3464,-1.8748,-1.6333,2.3596,0.6906,
11.503407,-0.1320,-0.7860,-0.4910,-3.1377,0.3464,-1.8748,-1.6333,2.3596,0.6906,
11.504674,0.0287,-0.8957,-0.4627,-3.1377,0.3464,-1.8748,-1.6333,2.3596,0.6906,
11.505909,0.0287,-0.8957,-0.4627,-6.5626,1.8419,-3.9539,-1.6333,2.3596,0.6906,
11.537617,0.0287,-0.8957,-0.4627,-6.5626,1.8419,-3.9539,-2.4354,1.8450,0.9292,
11.539770,0.0287,-0.8957,-0.4627,-6.2459,1.7490,-3.2284,-2.4354,1.8450,0.9292,
11.560706,0.2107,-1.1068,-0.4600,-6.2459,1.7490,-3.2284,-2.4354,1.8450,0.9292,
11.562592,0.4990,-1.4092,-0.6405,-6.2459,1.7490,-3.2284,-2.4354,1.8450,0.9292,
11.563939,0.8105,-1.4862,-0.7209,-6.2459,1.7490,-3.2284,-2.4354,1.8450,0.9292,
11.577011,0.8105,-1.4862,-0.7209,-6.2459,1.7490,-3.2284,-3.0501,0.2834,1.4895,
11.578902,0.8105,-1.4862,-0.7209,-0.0733,-1.9617,-1.7063,-3.0501,0.2834,1.4895,
11.616835,0.8105,-1.4862,-0.7209,-0.0733,-1.9617,-1.7063,-3.1726,-0.1662,1.9007,
11.618902,0.8105,-1.4862,-0.7209,5.7742,-2.8565,1.0799,-3.1726,-0.1662,1.9007,
11.648792,0.9502,-1.2169,-0.3151,5.7742,-2.8565,1.0799,-3.1726,-0.1662,1.9007,
11.650718,0.5811,-0.8935,-0.0202,5.7742,-2.8565,1.0799,-3.1726,-0.1662,1.9007,
11.651864,0.1594,-0.6975,-0.2450,5.7742,-2.8565,1.0799,-3.1726,-0.1662,1.9007,
11.653057,-0.0026,-0.6572,-0.2423,5.7742,-2.8565,1.0799,-3.1726,-0.1662,1.9007,
11.656340,-0.0026,-0.6572,-0.2423,5.7742,-2.8565,1.0799,-1.5118,0.2237,1.5385,
11.657678,-0.0026,-0.6572,-0.2423,6.1618,-2.9940,1.5668,-1.5118,0.2237,1.5385,
11.695567,-0.0026,-0.6572,-0.2423,6.1618,-2.9940,1.5668,0.0392,0.4112,1.2530,
11.697852,-0.0026,-0.6572,-0.2423,-0.7288,2.1176,2.2778,0.0392,0.4112,1.2530,
11.735172,-0.0026,-0.6572,-0.2423,-0.7288,2.1176,2.2778,0.7508,0.3867,1.3457,
11.737285,-0.0026,-0.6572,-0.2423,-0.3240,2.2713,1.9657,0.7508,0.3867,1.3457,
11.738603,-0.0363,-0.6883,-0.3288,-0.3240,2.2713,1.9657,0.7508,0.3867,1.3457,
11.740042,0.0893,-0.7090,-0.4216,-0.3240,2.2713,1.9657,0.7508,0.3867,1.3457,
11.741143,0.0663,-0.7537,-0.3552,-0.3240,2.2713,1.9657,0.7508,0.3867,1.3457,
11.742372,-0.1083,-0.7630,-0.2672,-0.3240,2.2713,1.9657,0.7508,0.3867,1.3457,
11.743777,-0.2227,-0.7188,-0.1573,-0.3240,2.2713,1.9657,0.7508,0.3867,1.3457,
11.775304,-0.2227,-0.7188,-0.1573,-0.3240,2.2713,1.9657,1.4858,-0.1246,1.6514,
11.777585,-0.2227,-0.7188,-0.1573,0.0514,1.9262,0.6751,1.4858,-0.1246,1.6514,
11.815376,-0.2495,-0.6734,-0.1004,0.0514,1.9262,0.6751,1.4858,-0.1246,1.6514,
11.817716,-0.1115,-0.6787,-0.1746,0.0514,1.9262,0.6751,1.4858,-0.1246,1.6514,
11.819006,0.0507,-0.6941,-0.3056,0.0514,1.9262,0.6751,1.4858,-0.1246,1.6514,
11.820279,0.0507,-0.6941,-0.3056,0.0514,1.9262,0.6751,2.1804,0.1055,1.5534,
11.821402,0.0507,-0.6941,-0.3056,-1.4254,2.6937,1.8352,2.1804,0.1055,1.5534,
11.854646,0.0507,-0.6941,-0.3056,-1.4254,2.6937,1.8352,2.0014,-0.4080,0.8163,
11.857046,0.0507,-0.6941,-0.3056,1.1948,2.5903,-2.0388,2.0014,-0.4080,0.8163,
11.894195,0.0507,-0.6941,-0.3056,1.1948,2.5903,-2.0388,0.2128,-0.4282,0.7087,
11.896267,0.0507,-0.6941,-0.3056,1.4812,2.5409,-2.1011,0.2128,-0.4282,0.7087,
11.897633,0.0886,-0.6778,-0.3623,1.4812,2.5409,-2.1011,0.2128,-0.4282,0.7087,
11.898865,-0.0231,-0.7804,-0.7251,1.4812,2.5409,-2.1011,0.2128,-0.4282,0.7087,
11.900218,-0.1230,-1.1102,-1.2735,1.4812,2.5409,-2.1011,0.2128,-0.4282,0.7087,
11.901469,0.5799,-1.6037,-0.6562,1.4812,2.5409,-2.1011,0.2128,-0.4282,0.7087,
11.902691,1.0521,-1.6357,-0.0464,1.4812,2.5409,-2.1011,0.2128,-0.4282,0.7087,
11.933670,1.0521,-1.6357,-0.0464,1.4812,2.5409,-2.1011,-0.1547,0.9896,-0.3747,
11.935521,1.0521,-1.6357,-0.0464,5.6946,-4.5606,-3.8431,-0.1547,0.9896,-0.3747,
11.973524,1.0521,-1.6357,-0.0464,5.6946,-4.5606,-3.8431,-0.5829,-1.1260,-0.1084,
11.975360,1.0521,-1.6357,-0.0464,2.8582,0.2771,-0.0660,-0.5829,-1.1260,-0.1084,
11.976795,0.2625,-1.1568,-0.6931,2.8582,0.2771,-0.0660,-0.5829,-1.1260,-0.1084,
11.978736,-0.3917,-0.8984,-0.8208,2.8582,0.2771,-0.0660,-0.5829,-1.1260,-0.1084,
11.980073,0.7602,-0.7938,0.6365,2.8582,0.2771,-0.0660,-0.5829,-1.1260,-0.1084,
11.981131,0.8618,-1.1842,-0.0630,2.8582,0.2771,-0.0660,-0.5829,-1.1260,-0.1084,
12.012992,0.8618,-1.1842,-0.0630,2.8582,0.2771,-0.0660,0.0839,-0.8788,-0.0179,
12.014780,0.8618,-1.1842,-0.0630,2.8996,0.2821,-0.1251,0.0839,-0.8788,-0.0179,
12.053033,0.8618,-1.1842,-0.0630,2.8996,0.2821,-0.1251,0.9756,-0.1992,-0.1457,
12.054903,0.8618,-1.1842,-0.0630,4.8938,-2.2656,0.5146,0.9756,-0.1992,-0.1457,
12.056270,0.1230,-1.3618,-0.3410,4.8938,-2.2656,0.5146,0.9756,-0.1992,-0.1457,
12.057449,0.2926,-1.1263,-0.1588,4.8938,-2.2656,0.5146,0.9756,-0.1992,-0.1457,
12.058674,0.4504,-1.1092,-0.1903,4.8938,-2.2656,0.5146,0.9756,-0.1992,-0.1457,
12.059858,0.5716,-1.1432,-0.3066,4.8938,-2.2656,0.5146,0.9756,-0.1992,-0.1457,
12.092213,0.5716,-1.1432,-0.3066,4.8938,-2.2656,0.5146,1.3591,-0.9555,0.0088,
12.094246,0.5716,-1.1432,-0.3066,4.8922,-2.1182,-0.0409,1.3591,-0.9555,0.0088,
12.121867,0.7052,-1.1041,-0.3144,4.8922,-2.1182,-0.0409,1.3591,-0.9555,0.0088,
12.124126,0.7494,-0.9983,-0.3002,4.8922,-2.1182,-0.0409,1.3591,-0.9555,0.0088,
12.125375,0.6942,-0.8918,-0.3679,4.8922,-2.1182,-0.0409,1.3591,-0.9555,0.0088,
12.133690,0.6942,-0.8918,-0.3679,4.8922,-2.1182,-0.0409,1.1119,-2.1231,-0.1883,
12.136633,0.6942,-0.8918,-0.3679,6.3083,-0.9954,-1.3300,1.1119,-2.1231,-0.1883,
12.171677,0.6942,-0.8918,-0.3679,6.3083,-0.9954,-1.3300,0.5143,-3.1851,-0.4290,
12.173942,0.6942,-0.8918,-0.3679,6.9371,0.9598,-2.2922,0.5143,-3.1851,-0.4290,
12.210096,0.5195,-0.8737,-0.3618,6.9371,0.9598,-2.2922,0.5143,-3.1851,-0.4290,
12.212165,0.2545,-0.8796,-0.3354,6.9371,0.9598,-2.2922,0.5143,-3.1851,-0.4290,
12.213748,0.0756,-0.7518,-0.5027,6.9371,0.9598,-2.2922,0.5143,-3.1851,-0.4290,
12.215008,0.0891,-0.6453,-0.4099,6.9371,0.9598,-2.2922,0.5143,-3.1851,-0.4290,
12.215978,0.0891,-0.6453,-0.4099,6.9371,0.9598,-2.2922,-0.6522,-3.1532,-0.1947,
12.217250,0.0891,-0.6453,-0.4099,1.9248,2.4833,-2.7683,-0.6522,-3.1532,-0.1947,
12.250850,0.0891,-0.6453,-0.4099,1.9248,2.4833,-2.7683,-2.1286,-2.9881,-0.4578,
12.253082,0.0891,-0.6453,-0.4099,4.8483,1.2541,1.5161,-2.1286,-2.9881,-0.4578,
12.291641,0.0891,-0.6453,-0.4099,4.8483,1.2541,1.5161,-2.3257,-3.7433,-1.6040,
12.293826,0.0891,-0.6453,-0.4099,4.5243,1.0329,2.3122,-2.3257,-3.7433,-1.6040,
12.295127,0.2896,-0.6394,-0.1519,4.5243,1.0329,2.3122,-2.3257,-3.7433,-1.6040,
12.296221,0.4975,-0.8217,-0.0696,4.5243,1.0329,2.3122,-2.3257,-3.7433,-1.6040,
12.297587,0.5474,-1.1449,0.0587,4.5243,1.0329,2.3122,-2.3257,-3.7433,-1.6040,
12.298759,0.2887,-1.3848,0.4303,4.5243,1.0329,2.3122,-2.3257,-3.7433,-1.6040,
12.299822,-0.0800,-1.5382,0.6865,4.5243,1.0329,2.3122,-2.3257,-3.7433,-1.6040,
12.330090,-0.0800,-1.5382,0.6865,4.5243,1.0329,2.3122,-0.9888,-2.8229,-1.5678,
12.331882,-0.0800,-1.5382,0.6865,4.2061,0.9018,2.6337,-0.9888,-2.8229,-1.5678,
12.369261,-0.0800,-1.5382,0.6865,4.2061,0.9018,2.6337,-0.7811,-1.2037,-1.2003,
12.371230,-0.0800,-1.5382,0.6865,-0.5320,-5.3542,7.8537,-0.7811,-1.2037,-1.2003,
12.372501,-0.2390,-1.5902,0.2666,-0.5320,-5.3542,7.8537,-0.7811,-1.2037,-1.2003,
12.373841,0.0751,-1.3687,-0.5064,-0.5320,-5.3542,7.8537,-0.7811,-1.2037,-1.2003,
12.374940,0.3319,-1.2817,-0.4849,-0.5320,-5.3542,7.8537,-0.7811,-1.2037,-1.2003,
12.376036,0.4714,-1.2497,0.1369,-0.5320,-5.3542,7.8537,-0.7811,-1.2037,-1.2003,
12.409241,0.4714,-1.2497,0.1369,-0.5320,-5.3542,7.8537,-0.4295,-0.8948,-1.9342,
12.411590,0.4714,-1.2497,0.1369,1.8128,-3.4070,0.7146,-0.4295,-0.8948,-1.9342,
12.449013,0.4714,-1.2497,0.1369,1.8128,-3.4070,0.7146,1.0235,0.7329,-2.0610,
12.450902,0.4714,-1.2497,0.1369,-3.0457,0.3384,5.5882,1.0235,0.7329,-2.0610,
12.452071,0.2777,-1.1473,0.3709,-3.0457,0.3384,5.5882,1.0235,0.7329,-2.0610,
12.453421,-0.1941,-0.9489,0.2431,-3.0457,0.3384,5.5882,1.0235,0.7329,-2.0610,
12.454548,-0.4457,-0.6597,0.1828,-3.0457,0.3384,5.5882,1.0235,0.7329,-2.0610,
12.455889,-0.5009,-0.3619,0.0777,-3.0457,0.3384,5.5882,1.0235,0.7329,-2.0610,
12.488671,-0.5009,-0.3619,0.0777,-3.0457,0.3384,5.5882,1.3804,1.9878,-0.9723,
12.490689,-0.5009,-0.3619,0.0777,-3.5531,0.3950,4.8207,1.3804,1.9878,-0.9723,
12.528278,-0.5009,-0.3619,0.0777,-3.5531,0.3950,4.8207,0.4078,1.3028,0.0567,
12.530828,-0.5009,-0.3619,0.0777,-9.0675,7.6136,-0.1735,0.4078,1.3028,0.0567,
12.532282,-0.6026,-0.1246,-0.1333,-9.0675,7.6136,-0.1735,0.4078,1.3028,0.0567,
12.533456,-0.9678,-0.0323,-0.5922,-9.0675,7.6136,-0.1735,0.4078,1.3028,0.0567,
12.534703,-1.2207,-0.1508,-1.2576,-9.0675,7.6136,-0.1735,0.4078,1.3028,0.0567,
12.535946,-0.7440,-0.6690,-0.1160,-9.0675,7.6136,-0.1735,0.4078,1.3028,0.0567,
12.567712,-0.7440,-0.6690,-0.1160,-9.0675,7.6136,-0.1735,0.1798,1.5947,1.2211,
12.569870,-0.7440,-0.6690,-0.1160,-8.5842,7.6016,-0.3706,0.1798,1.5947,1.2211,
12.607354,-0.7440,-0.6690,-0.1160,-8.5842,7.6016,-0.3706,-0.1856,3.6496,0.9057,
12.609277,-0.7440,-0.6690,-0.1160,-7.2071,1.2163,-1.1143,-0.1856,3.6496,0.9057,
12.610682,0.2479,-1.6630,0.5488,-7.2071,1.2163,-1.1143,-0.1856,3.6496,0.9057,
12.611774,0.4563,-3.1076,0.3785,-7.2071,1.2163,-1.1143,-0.1856,3.6496,0.9057,
12.613021,0.1472,-3.5151,-0.5523,-7.2071,1.2163,-1.1143,-0.1856,3.6496,0.9057,
12.614302,0.1895,-1.0225,-0.8277,-7.2071,1.2163,-1.1143,-0.1856,3.6496,0.9057,
12.647160,0.1895,-1.0225,-0.8277,-7.2071,1.2163,-1.1143,-1.8634,4.0693,-0.4131,
12.649295,0.1895,-1.0225,-0.8277,0.5503,-15.5455,-1.2718,-1.8634,4.0693,-0.4131,
12.687040,0.1895,-1.0225,-0.8277,0.5503,-15.5455,-1.2718,-1.1315,4.6627,1.0474,
12.689453,0.1895,-1.0225,-0.8277,-4.4722,3.3533,9.2579,-1.1315,4.6627,1.0474,
12.690917,-0.3873,-0.3345,0.5761,-4.4722,3.3533,9.2579,-1.1315,4.6627,1.0474,
12.692228,-0.4042,-0.5659,1.0809,-4.4722,3.3533,9.2579,-1.1315,4.6627,1.0474,
12.693566,0.0199,-0.9404,0.6010,-4.4722,3.3533,9.2579,-1.1315,4.6627,1.0474,
12.694681,0.2198,-1.3772,0.4400,-4.4722,3.3533,9.2579,-1.1315,4.6627,1.0474,
12.725997,0.2198,-1.3772,0.4400,-4.4722,3.3533,9.2579,0.5867,4.4518,1.2232,
12.727359,0.2198,-1.3772,0.4400,-4.2362,3.4219,8.5606,0.5867,4.4518,1.2232,
12.766671,0.2198,-1.3772,0.4400,-4.2362,3.4219,8.5606,1.1897,4.1567,0.6277,
12.768483,0.2198,-1.3772,0.4400,3.2848,-1.7818,3.5198,1.1897,4.1567,0.6277,
12.769802,0.5120,-1.2274,0.2165,3.2848,-1.7818,3.5198,1.1897,4.1567,0.6277,
12.770946,0.7866,-0.8627,0.2971,3.2848,-1.7818,3.5198,1.1897,4.1567,0.6277,
12.772182,1.0389,-0.6318,0.2158,3.2848,-1.7818,3.5198,1.1897,4.1567,0.6277,
12.773496,1.1044,-0.5822,-0.2951,3.2848,-1.7818,3.5198,1.1897,4.1567,0.6277,
12.805616,1.1044,-0.5822,-0.2951,3.2848,-1.7818,3.5198,1.6094,3.7924,-0.0274,
12.807615,1.1044,-0.5822,-0.2951,3.2210,-1.7560,2.6152,1.6094,3.7924,-0.0274,
12.845277,1.1044,-0.5822,-0.2951,3.2210,-1.7560,2.6152,0.1170,1.6235,-0.2661,
12.847398,1.1044,-0.5822,-0.2951,8.3096,2.3627,-3.3094,0.1170,1.6235,-0.2661,
12.848747,0.9945,-0.9739,-0.7497,8.3096,2.3627,-3.3094,0.1170,1.6235,-0.2661,
12.850104,0.9627,-1.5854,-1.0446,8.3096,2.3627,-3.3094,0.1170,1.6235,-0.2661,
12.851384,0.6949,-1.3831,-0.9120,8.3096,2.3627,-3.3094,0.1170,1.6235,-0.2661,
12.852520,0.0500,-0.8270,-0.2907,8.3096,2.3627,-3.3094,0.1170,1.6235,-0.2661,
12.884873,0.0500,-0.8270,-0.2907,8.3096,2.3627,-3.3094,-0.8524,-1.5766,0.0684,
12.886935,0.0500,-0.8270,-0.2907,3.5807,-2.8223,-7.3738,-0.8524,-1.5766,0.0684,
12.925014,0.0500,-0.8270,-0.2907,0.7214,1.8451,1.8169,-0.8524,-1.5766,0.0684,
12.926994,-0.0556,-0.6477,0.0741,0.7214,1.8451,1.8169,-0.8524,-1.5766,0.0684,
12.928204,0.3207,-0.7691,0.1273,0.7214,1.8451,1.8169,-0.8524,-1.5766,0.0684,
12.929567,0.4946,-0.9538,0.2761,0.7214,1.8451,1.8169,-0.8524,-1.5766,0.0684,
12.930595,0.4946,-0.9538,0.2761,0.7214,1.8451,1.8169,-0.5350,-1.5617,0.6330,
12.964434,0.4946,-0.9538,0.2761,0.7214,1.8451,1.8169,0.1883,-0.8969,0.0343,
12.966533,0.4946,-0.9538,0.2761,1.6439,-0.1149,0.4669,0.1883,-0.8969,0.0343,
13.003839,0.4946,-0.9538,0.2761,1.6439,-0.1149,0.4669,0.1787,-0.4357,-0.2586,
13.005855,0.4946,-0.9538,0.2761,1.5237,-0.1297,0.4228,0.1787,-0.4357,-0.2586,
13.007260,0.4379,-1.0347,0.3433,1.5237,-0.1297,0.4228,0.1787,-0.4357,-0.2586,
13.008488,0.3693,-0.9765,0.0452,1.5237,-0.1297,0.4228,0.1787,-0.4357,-0.2586,
13.009596,0.2364,-0.9614,-0.3188,1.5237,-0.1297,0.4228,0.1787,-0.4357,-0.2586,
13.010843,0.0756,-0.9592,-0.3886,1.5237,-0.1297,0.4228,0.1787,-0.4357,-0.2586,
13.011827,0.0404,-0.8984,-0.1878,1.5237,-0.1297,0.4228,0.1787,-0.4357,-0.2586,
13.043098,0.0404,-0.8984,-0.1878,1.5237,-0.1297,0.4228,-0.4402,-0.4080,-0.0189,
13.044900,0.0404,-0.8984,-0.1878,1.4956,-0.1340,0.6100,-0.4402,-0.4080,-0.0189,
13.083141,0.0404,-0.8984,-0.1878,1.4956,-0.1340,0.6100,-0.1121,-0.5933,0.0312,
13.085036,0.0404,-0.8984,-0.1878,-1.1491,0.7500,-1.3869,-0.1121,-0.5933,0.0312,
13.086467,0.1052,-0.8407,0.0010,-1.1491,0.7500,-1.3869,-0.1121,-0.5933,0.0312,
13.087699,0.2102,-0.8278,0.1242,-1.1491,0.7500,-1.3869,-0.1121,-0.5933,0.0312,
13.088812,0.3576,-0.8703,0.0978,-1.1491,0.7500,-1.3869,-0.1121,-0.5933,0.0312,
13.089826,0.3627,-0.9949,0.0003,-1.1491,0.7500,-1.3869,-0.1121,-0.5933,0.0312,
13.122704,0.3627,-0.9949,0.0003,-1.1491,0.7500,-1.3869,0.3481,-0.6029,-0.2011,
13.124742,0.3627,-0.9949,0.0003,1.0842,0.7460,1.1134,0.3481,-0.6029,-0.2011,
13.162861,0.3627,-0.9949,0.0003,1.0842,0.7460,1.1134,0.2118,-0.4570,-0.2682,
13.165299,0.3627,-0.9949,0.0003,-0.6492,-0.2292,-1.4925,0.2118,-0.4570,-0.2682,
13.166973,0.2220,-1.0931,-0.0974,-0.6492,-0.2292,-1.4925,0.2118,-0.4570,-0.2682,
13.168385,0.1247,-1.0132,-0.2035,-0.6492,-0.2292,-1.4925,0.2118,-0.4570,-0.2682,
13.169774,0.0788,-0.8808,-0.2689,-0.6492,-0.2292,-1.4925,0.2118,-0.4570,-0.2682,
13.171082,0.1045,-0.8730,-0.2237,-0.6492,-0.2292,-1.4925,0.2118,-0.4570,-0.2682,
13.201425,0.1045,-0.8730,-0.2237,-0.6492,-0.2292,-1.4925,-0.0705,-0.4506,-0.1915,
13.202848,0.1045,-0.8730,-0.2237,-0.7025,-0.2420,-1.4050,-0.0705,-0.4506,-0.1915,
13.241671,0.2422,-0.9018,-0.1043,-0.7025,-0.2420,-1.4050,-0.0705,-0.4506,-0.1915,
13.244017,0.3280,-0.9235,-0.0710,-0.7025,-0.2420,-1.4050,-0.0705,-0.4506,-0.1915,
13.245152,0.2459,-0.9824,-0.2462,-0.7025,-0.2420,-1.4050,-0.0705,-0.4506,-0.1915,
13.246354,0.2459,-0.9824,-0.2462,-0.7025,-0.2420,-1.4050,-0.0961,-0.5092,-0.4322,
13.247340,0.2459,-0.9824,-0.2462,-0.0405,0.6512,-0.7545,-0.0961,-0.5092,-0.4322,
13.281437,0.2459,-0.9824,-0.2462,-0.0405,0.6512,-0.7545,-0.3560,-0.6679,-0.5622,
13.283881,0.2459,-0.9824,-0.2462,-2.0975,0.1399,-1.6960,-0.3560,-0.6679,-0.5622,
13.320805,0.2459,-0.9824,-0.2462,-2.0975,0.1399,-1.6960,-0.5414,-0.6658,-0.1787,
13.322684,0.2459,-0.9824,-0.2462,-2.1046,0.1015,-1.4065,-0.5414,-0.6658,-0.1787,
13.324142,0.0189,-0.9616,-0.2799,-2.1046,0.1015,-1.4065,-0.5414,-0.6658,-0.1787,
13.325372,-0.1716,-0.8913,-0.2296,-2.1046,0.1015,-1.4065,-0.5414,-0.6658,-0.1787,
13.326516,-0.0834,-0.9445,-0.0930,-2.1046,0.1015,-1.4065,-0.5414,-0.6658,-0.1787,
13.327623,0.0859,-1.0655,0.1444,-2.1046,0.1015,-1.4065,-0.5414,-0.6658,-0.1787,
13.328690,0.0473,-1.1529,0.1977,-2.1046,0.1015,-1.4065,-0.5414,-0.6658,-0.1787,
13.360565,0.0473,-1.1529,0.1977,-2.1046,0.1015,-1.4065,-0.1685,0.0213,-0.1872,
13.362552,0.0473,-1.1529,0.1977,-2.2785,-0.9776,1.9039,-0.1685,0.0213,-0.1872,
13.399733,0.0473,-1.1529,0.1977,-2.2785,-0.9776,1.9039,0.0371,1.4456,-0.2096,
13.401634,0.0473,-1.1529,0.1977,-3.2051,-1.8099,0.5470,0.0371,1.4456,-0.2096,
13.402692,-0.0426,-1.1637,0.0526,-3.2051,-1.8099,0.5470,0.0371,1.4456,-0.2096,
13.403702,-0.0707,-1.1178,-0.0860,-3.2051,-1.8099,0.5470,0.0371,1.4456,-0.2096,
13.404505,-0.0956,-1.1397,-0.0818,-3.2051,-1.8099,0.5470,0.0371,1.4456,-0.2096,
13.405207,-0.0639,-1.2028,0.0511,-3.2051,-1.8099,0.5470,0.0371,1.4456,-0.2096,
13.439177,-0.0639,-1.2028,0.0511,-3.2051,-1.8099,0.5470,-0.0780,2.4895,0.0056,
13.440797,-0.0639,-1.2028,0.0511,-3.2282,-1.7815,0.3169,-0.0780,2.4895,0.0056,
13.478999,-0.0006,-1.1954,0.1474,-3.2282,-1.7815,0.3169,-0.0780,2.4895,0.0056,
13.481221,0.1203,-1.1331,0.2226,-3.2282,-1.7815,0.3169,-0.0780,2.4895,0.0056,
13.482176,0.2112,-1.1329,0.0943,-3.2282,-1.7815,0.3169,-0.0780,2.4895,0.0056,
13.483355,0.2112,-1.1329,0.0943,-3.2282,-1.7815,0.3169,0.2054,3.0136,0.1835,
13.484277,0.2112,-1.1329,0.0943,-2.3164,-2.0837,1.6593,0.2054,3.0136,0.1835,
13.518721,0.2112,-1.1329,0.0943,-2.3164,-2.0837,1.6593,0.3545,3.0019,0.3838,
13.520300,0.2112,-1.1329,0.0943,-0.0472,-1.4083,-1.1895,0.3545,3.0019,0.3838,
13.558954,0.2112,-1.1329,0.0943,-0.0472,-1.4083,-1.1895,0.1617,2.1497,0.6618,
13.561022,0.2112,-1.1329,0.0943,0.2209,-1.3288,-1.4180,0.1617,2.1497,0.6618,
13.562303,0.2352,-1.1314,-0.1443,0.2209,-1.3288,-1.4180,0.1617,2.1497,0.6618,
13.563400,0.2625,-1.0792,-0.2775,0.2209,-1.3288,-1.4180,0.1617,2.1497,0.6618,
13.564508,0.3519,-1.0340,-0.2284,0.2209,-1.3288,-1.4180,0.1617,2.1497,0.6618,
13.565646,0.3913,-0.9548,-0.0596,0.2209,-1.3288,-1.4180,0.1617,2.1497,0.6618,
13.566721,0.4694,-0.8664,-0.0144,0.2209,-1.3288,-1.4180,0.1617,2.1497,0.6618,
13.598458,0.4694,-0.8664,-0.0144,0.2209,-1.3288,-1.4180,0.5590,1.5404,0.6788,
13.600833,0.4694,-0.8664,-0.0144,2.1194,0.3022,-1.6406,0.5590,1.5404,0.6788,
13.637649,0.4694,-0.8664,-0.0144,2.9059,0.6927,-5.2439,0.5590,1.5404,0.6788,
13.639057,0.4694,-0.8664,-0.0144,2.9059,0.6927,-5.2439,0.3673,1.3572,0.4637,
13.640144,0.5063,-0.8559,-0.2044,2.9059,0.6927,-5.2439,0.3673,1.3572,0.4637,
13.641201,0.4990,-0.8967,-0.4778,2.9059,0.6927,-5.2439,0.3673,1.3572,0.4637,
13.641924,0.3962,-0.9858,-0.6789,2.9059,0.6927,-5.2439,0.3673,1.3572,0.4637,
13.643007,0.2432,-0.9790,-0.7488,2.9059,0.6927,-5.2439,0.3673,1.3572,0.4637,
13.677111,0.2432,-0.9790,-0.7488,2.9059,0.6927,-5.2439,-1.1294,0.7766,0.3497,
13.678936,0.2432,-0.9790,-0.7488,3.0097,0.7299,-4.7796,-1.1294,0.7766,0.3497,
13.717624,0.1054,-0.9438,-0.5550,3.0097,0.7299,-4.7796,-1.1294,0.7766,0.3497,
13.719507,0.1565,-0.9795,-0.1729,3.0097,0.7299,-4.7796,-1.1294,0.7766,0.3497,
13.720743,0.2850,-1.0826,-0.0083,3.0097,0.7299,-4.7796,-1.1294,0.7766,0.3497,
13.721854,0.2850,-1.0826,-0.0083,3.0097,0.7299,-4.7796,-2.1851,-0.4421,0.6394,
13.723237,0.2850,-1.0826,-0.0083,0.3263,0.2191,-4.2212,-2.1851,-0.4421,0.6394,
13.756681,0.2850,-1.0826,-0.0083,0.3263,0.2191,-4.2212,-2.8573,-1.6256,0.9398,
13.758888,0.2850,-1.0826,-0.0083,2.9285,-1.3591,0.0739,-2.8573,-1.6256,0.9398,
13.796607,0.2850,-1.0826,-0.0083,2.9285,-1.3591,0.0739,-3.2919,-1.0173,0.5052,
13.798597,0.2850,-1.0826,-0.0083,3.1597,-1.6298,1.3227,-3.2919,-1.0173,0.5052,
13.800059,0.3656,-1.1950,-0.0960,3.1597,-1.6298,1.3227,-3.2919,-1.0173,0.5052,
13.801198,0.5317,-1.0865,-0.4141,3.1597,-1.6298,1.3227,-3.2919,-1.0173,0.5052,
13.802424,0.6507,-1.1153,-0.2418,3.1597,-1.6298,1.3227,-3.2919,-1.0173,0.5052,
13.803770,0.9820,-1.4080,0.2228,3.1597,-1.6298,1.3227,-3.2919,-1.0173,0.5052,
13.804995,1.2823,-1.5309,0.5654,3.1597,-1.6298,1.3227,-3.2919,-1.0173,0.5052,
13.835810,1.2823,-1.5309,0.5654,3.1597,-1.6298,1.3227,-1.6535,-1.5414,-0.7880,
13.838032,1.2823,-1.5309,0.5654,8.5950,-4.0567,5.3592,-1.6535,-1.5414,-0.7880,
13.872187,1.1166,-1.3239,1.0386,8.5950,-4.0567,5.3592,-1.6535,-1.5414,-0.7880,
13.874877,0.7316,-1.0156,0.8666,8.5950,-4.0567,5.3592,-1.6535,-1.5414,-0.7880,
13.876512,0.4555,-0.8681,0.1676,8.5950,-4.0567,5.3592,-1.6535,-1.5414,-0.7880,
13.877896,0.4555,-0.8681,0.1676,8.5950,-4.0567,5.3592,0.7966,-1.5723,-1.5263,
13.879262,0.4555,-0.8681,0.1676,6.1586,-1.2265,9.9534,0.7966,-1.5723,-1.5263,
13.915262,0.4555,-0.8681,0.1676,6.1586,-1.2265,9.9534,1.4869,-1.6682,-1.1140,
13.918004,0.4555,-0.8681,0.1676,-2.4062,1.2729,5.5167,1.4869,-1.6682,-1.1140,
13.955028,0.4555,-0.8681,0.1676,-2.4062,1.2729,5.5167,1.1215,-3.0701,-0.5601,
13.957172,0.4555,-0.8681,0.1676,-2.2719,1.3281,5.1960,1.1215,-3.0701,-0.5601,
13.958443,0.1860,-0.8590,0.0619,-2.2719,1.3281,5.1960,1.1215,-3.0701,-0.5601,
13.960008,-0.1152,-0.8414,0.3533,-2.2719,1.3281,5.1960,1.1215,-3.0701,-0.5601,
13.962135,-0.3360,-0.7689,0.4659,-2.2719,1.3281,5.1960,1.1215,-3.0701,-0.5601,
13.963520,-0.4469,-0.6611,0.2959,-2.2719,1.3281,5.1960,1.1215,-3.0701,-0.5601,
13.964654,-0.3937,-0.6631,0.1310,-2.2719,1.3281,5.1960,1.1215,-3.0701,-0.5601,
13.994759,-0.3937,-0.6631,0.1310,-2.2719,1.3281,5.1960,0.8349,-4.6339,0.0354,
13.996747,-0.3937,-0.6631,0.1310,-1.8124,1.3806,5.0207,0.8349,-4.6339,0.0354,
14.035767,-0.3937,-0.6631,0.1310,-1.8124,1.3806,5.0207,1.1599,-3.7572,0.0514,
14.037829,-0.3937,-0.6631,0.1310,-3.7886,2.5777,3.5375,1.1599,-3.7572,0.0514,
14.039118,-0.1465,-0.7938,0.1163,-3.7886,2.5777,3.5375,1.1599,-3.7572,0.0514,
14.040423,0.2378,-1.0599,0.1266,-3.7886,2.5777,3.5375,1.1599,-3.7572,0.0514,
14.041532,0.5403,-1.1752,-0.0337,-3.7886,2.5777,3.5375,1.1599,-3.7572,0.0514,
14.042649,0.3544,-1.0149,-0.2330,-3.7886,2.5777,3.5375,1.1599,-3.7572,0.0514,
14.073843,0.3544,-1.0149,-0.2330,-3.7886,2.5777,3.5375,1.1375,-2.3819,-0.8594,
14.075793,0.3544,-1.0149,-0.2330,2.9121,-1.0522,0.9173,1.1375,-2.3819,-0.8594,
14.114008,0.3544,-1.0149,-0.2330,2.9121,-1.0522,0.9173,0.2576,-2.3063,-0.4567,
14.115846,0.3544,-1.0149,-0.2330,-2.2257,-3.1939,-2.8091,0.2576,-2.3063,-0.4567,
14.117447,0.0133,-1.0550,-0.4187,-2.2257,-3.1939,-2.8091,0.2576,-2.3063,-0.4567,
14.118561,-0.2425,-1.3779,-0.5680,-2.2257,-3.1939,-2.8091,0.2576,-2.3063,-0.4567,
14.119871,-0.2070,-1.4889,-0.3019,-2.2257,-3.1939,-2.8091,0.2576,-2.3063,-0.4567,
14.121112,0.1277,-1.2204,0.0653,-2.2257,-3.1939,-2.8091,0.2576,-2.3063,-0.4567,
14.153986,0.1277,-1.2204,0.0653,-2.2257,-3.1939,-2.8091,-0.1313,-2.1156,0.0109,
14.157079,0.1277,-1.2204,0.0653,-2.0653,-3.1481,-2.6509,-0.1313,-2.1156,0.0109,
14.194683,0.1277,-1.2204,0.0653,-2.0653,-3.1481,-2.6509,0.3417,-1.1622,-0.1883,
14.197256,0.1277,-1.2204,0.0653,0.8751,-1.6785,2.3917,0.3417,-1.1622,-0.1883,
14.200091,0.2283,-1.1048,0.1574,0.8751,-1.6785,2.3917,0.3417,-1.1622,-0.1883,
14.201341,0.1130,-1.1603,0.0760,0.8751,-1.6785,2.3917,0.3417,-1.1622,-0.1883,
14.202587,0.0663,-1.1534,-0.1004,0.8751,-1.6785,2.3917,0.3417,-1.1622,-0.1883,
14.204386,0.0766,-1.0784,-0.2206,0.8751,-1.6785,2.3917,0.3417,-1.1622,-0.1883,
14.232943,0.0766,-1.0784,-0.2206,0.8751,-1.6785,2.3917,0.1734,-0.8618,-0.1031,
14.235898,0.0766,-1.0784,-0.2206,0.8682,-1.6437,2.3081,0.1734,-0.8618,-0.1031,
14.271175,0.0766,-1.0784,-0.2206,0.8682,-1.6437,2.3081,-0.1355,-0.9939,0.0312,
14.272619,0.0766,-1.0784,-0.2206,0.0660,-0.7486,-0.2236,-0.1355,-0.9939,0.0312,
14.273719,0.0607,-0.9814,-0.1803,0.0660,-0.7486,-0.2236,-0.1355,-0.9939,0.0312,
14.274454,0.0773,-0.8529,-0.0158,0.0660,-0.7486,-0.2236,-0.1355,-0.9939,0.0312,
14.275298,0.0942,-0.6905,0.0689,0.0660,-0.7486,-0.2236,-0.1355,-0.9939,0.0312,
14.276251,0.1457,-0.5827,0.0201,0.0660,-0.7486,-0.2236,-0.1355,-0.9939,0.0312,
14.310908,0.1457,-0.5827,0.0201,0.0660,-0.7486,-0.2236,-0.2037,-1.0983,0.2506,
14.312443,0.1457,-0.5827,0.0201,0.5877,2.7495,1.7250,-0.2037,-1.0983,0.2506,
14.351936,0.1457,-0.5827,0.0201,0.5877,2.7495,1.7250,-0.5041,-0.8533,0.1633,
14.353348,0.1457,-0.5827,0.0201,2.0016,2.5062,2.3748,-0.5041,-0.8533,0.1633,
14.354065,0.2532,-0.5915,-0.0107,2.0016,2.5062,2.3748,-0.5041,-0.8533,0.1633,
14.354571,0.3143,-0.6892,0.0768,2.0016,2.5062,2.3748,-0.5041,-0.8533,0.1633,
14.355113,0.1575,-0.8979,0.1552,2.0016,2.5062,2.3748,-0.5041,-0.8533,0.1633,
14.355596,-0.2791,-1.1898,0.1322,2.0016,2.5062,2.3748,-0.5041,-0.8533,0.1633,
14.391689,-0.2791,-1.1898,0.1322,1.9090,2.4153,2.5870,-0.5041,-0.8533,0.1633,
14.394068,-0.2791,-1.1898,0.1322,1.9090,2.4153,2.5870,-0.6895,0.4048,-0.0807,
14.431513,-0.2791,-1.1898,0.1322,1.9090,2.4153,2.5870,-1.1028,1.1462,0.3678,
14.433932,-0.2791,-1.1898,0.1322,-6.7675,-3.9486,1.1727,-1.1028,1.1462,0.3678,
14.435377,-0.8132,-1.4495,-0.0969,-6.7675,-3.9486,1.1727,-1.1028,1.1462,0.3678,
14.436909,-0.8874,-1.4823,-0.3618,-6.7675,-3.9486,1.1727,-1.1028,1.1462,0.3678,
14.437920,-0.5210,-1.3914,-0.3874,-6.7675,-3.9486,1.1727,-1.1028,1.1462,0.3678,
14.439765,-0.2725,-1.3205,-0.4971,-6.7675,-3.9486,1.1727,-1.1028,1.1462,0.3678,
14.472047,-0.2725,-1.3205,-0.4971,-6.7675,-3.9486,1.1727,-1.6492,1.6256,0.6245,
14.474990,-0.2725,-1.3205,-0.4971,-6.5858,-4.0396,1.7432,-1.6492,1.6256,0.6245,
14.510144,-0.2725,-1.3205,-0.4971,-6.5858,-4.0396,1.7432,-1.6216,2.0421,0.9611,
14.512477,-0.2725,-1.3205,-0.4971,-3.5263,-3.4466,-1.1545,-1.6216,2.0421,0.9611,
14.513612,-0.2994,-1.1857,-0.5169,-3.5263,-3.4466,-1.1545,-1.6216,2.0421,0.9611,
14.514429,-0.4973,-0.9470,-0.3662,-3.5263,-3.4466,-1.1545,-1.6216,2.0421,0.9611,
14.515305,-0.3890,-0.6626,-0.3002,-3.5263,-3.4466,-1.1545,-1.6216,2.0421,0.9611,
14.516284,-0.0991,-0.4806,-0.2379,-3.5263,-3.4466,-1.1545,-1.6216,2.0421,0.9611,
14.550215,-0.0991,-0.4806,-0.2379,-3.5263,-3.4466,-1.1545,-0.6042,2.9316,1.1316,
14.552149,-0.0991,-0.4806,-0.2379,-3.1235,2.3310,0.6853,-0.6042,2.9316,1.1316,
14.589874,-0.0991,-0.4806,-0.2379,-3.1235,2.3310,0.6853,0.5047,3.9191,0.6565,
14.591869,0.0028,-0.4774,-0.0715,-3.1235,2.3310,0.6853,0.5047,3.9191,0.6565,
14.592822,-0.1240,-0.5192,0.1220,-3.1235,2.3310,0.6853,0.5047,3.9191,0.6565,
14.593657,-0.2097,-0.4923,0.2473,-3.1235,2.3310,0.6853,0.5047,3.9191,0.6565,
14.594579,-0.2087,-0.4415,0.2979,-3.1235,2.3310,0.6853,0.5047,3.9191,0.6565,
14.595398,-0.2087,-0.4415,0.2979,-1.2806,4.2937,4.3471,0.5047,3.9191,0.6565,
14.629612,-0.2087,-0.4415,0.2979,-1.6085,4.4474,3.5340,0.5047,3.9191,0.6565,
14.631550,-0.2087,-0.4415,0.2979,-1.6085,4.4474,3.5340,1.8491,4.7980,0.6053,
14.668922,-0.2087,-0.4415,0.2979,-1.6085,4.4474,3.5340,2.7524,5.3423,0.4690,
14.670929,-0.2087,-0.4415,0.2979,-1.3232,4.4822,4.0896,2.7524,5.3423,0.4690,
14.672336,-0.1091,-0.4742,0.2842,-1.3232,4.4822,4.0896,2.7524,5.3423,0.4690,
14.673707,0.1435,-0.6091,0.2651,-1.3232,4.4822,4.0896,2.7524,5.3423,0.4690,
14.674930,0.1843,-0.9438,0.0970,-1.3232,4.4822,4.0896,2.7524,5.3423,0.4690,
14.675853,-0.2149,-1.8094,-0.1825,-1.3232,4.4822,4.0896,2.7524,5.3423,0.4690,
14.708488,-0.2149,-1.8094,-0.1825,-1.3232,4.4822,4.0896,1.8161,4.6872,0.6245,
14.710621,-0.2149,-1.8094,-0.1825,-1.2320,4.4902,3.2132,1.8161,4.6872,0.6245,
14.748395,-0.2149,-1.8094,-0.1825,-1.2320,4.4902,3.2132,-0.0354,4.3271,0.5414,
14.750722,-0.2149,-1.8094,-0.1825,-0.6586,-8.6329,-2.2169,-0.0354,4.3271,0.5414,
14.752164,-0.0160,-2.8377,-0.7143,-0.6586,-8.6329,-2.2169,-0.0354,4.3271,0.5414,
14.753236,0.9138,-2.4595,-0.5147,-0.6586,-8.6329,-2.2169,-0.0354,4.3271,0.5414,
14.754374,1.0477,-1.2155,-0.2601,-0.6586,-8.6329,-2.2169,-0.0354,4.3271,0.5414,
14.755474,0.7289,-0.5771,-0.4976,-0.6586,-8.6329,-2.2169,-0.0354,4.3271,0.5414,
14.788322,0.7289,-0.5771,-0.4976,-0.6586,-8.6329,-2.2169,-0.4338,2.2051,0.5020,
14.790757,0.7289,-0.5771,-0.4976,8.2954,-4.1877,-3.5738,-0.4338,2.2051,0.5020,
14.827774,0.7289,-0.5771,-0.4976,8.2954,-4.1877,-3.5738,0.0083,0.2014,0.6831,
14.830080,0.7289,-0.5771,-0.4976,7.5218,2.1969,2.1628,0.0083,0.2014,0.6831,
14.831428,0.5383,-0.5302,-0.3530,7.5218,2.1969,2.1628,0.0083,0.2014,0.6831,
14.832575,0.8567,-0.6323,0.3980,7.5218,2.1969,2.1628,0.0083,0.2014,0.6831,
14.834050,1.0186,-1.1268,0.4523,7.5218,2.1969,2.1628,0.0083,0.2014,0.6831,
14.835422,0.7494,-1.5397,0.0995,7.5218,2.1969,2.1628,0.0083,0.2014,0.6831,
14.867447,0.7494,-1.5397,0.0995,7.5218,2.1969,2.1628,1.9950,0.6818,-0.1766,
14.869876,0.7494,-1.5397,0.0995,7.3253,2.1692,1.3641,1.9950,0.6818,-0.1766,
14.907567,0.4802,-1.3489,-0.3708,7.3253,2.1692,1.3641,1.9950,0.6818,-0.1766,
14.910140,0.4550,-0.9172,-0.6794,7.3253,2.1692,1.3641,1.9950,0.6818,-0.1766,
14.911334,0.3163,-0.7579,-0.8230,7.3253,2.1692,1.3641,1.9950,0.6818,-0.1766,
14.912622,0.3163,-0.7579,-0.8230,7.3253,2.1692,1.3641,1.9854,0.2993,-0.3800,
14.913934,0.3163,-0.7579,-0.8230,4.7255,-2.7971,-4.0618,1.9854,0.2993,-0.3800,
14.946403,0.3163,-0.7579,-0.8230,4.7255,-2.7971,-4.0618,0.5612,-0.0447,-0.1531,
14.948756,0.3163,-0.7579,-0.8230,0.0096,2.4165,-7.4882,0.5612,-0.0447,-0.1531,
14.985959,0.3163,-0.7579,-0.8230,0.0096,2.4165,-7.4882,0.0211,0.2749,0.5702,
14.988093,0.3163,-0.7579,-0.8230,0.2335,2.3915,-7.3790,0.0211,0.2749,0.5702,
14.989618,0.0241,-0.7496,-0.6994,0.2335,2.3915,-7.3790,0.0211,0.2749,0.5702,
14.990903,-0.0807,-0.6809,-0.4509,0.2335,2.3915,-7.3790,0.0211,0.2749,0.5702,
14.991902,0.0334,-0.7498,-0.4326,0.2335,2.3915,-7.3790,0.0211,0.2749,0.5702,
14.993248,0.2823,-0.8664,-0.5120,0.2335,2.3915,-7.3790,0.0211,0.2749,0.5702,
14.994393,0.4712,-1.0479,-0.7124,0.2335,2.3915,-7.3790,0.0211,0.2749,0.5702,
15.026038,0.4712,-1.0479,-0.7124,0.2335,2.3915,-7.3790,-1.0783,-0.8554,0.8099,
15.028429,0.4712,-1.0479,-0.7124,2.2011,0.8689,-5.8230,-1.0783,-0.8554,0.8099,
15.056633,0.5916,-1.2751,-0.8360,2.2011,0.8689,-5.8230,-1.0783,-0.8554,0.8099,
15.058793,0.6126,-1.1292,-0.6716,2.2011,0.8689,-5.8230,-1.0783,-0.8554,0.8099,
15.060031,0.6082,-1.0437,-0.2995,2.2011,0.8689,-5.8230,-1.0783,-0.8554,0.8099,
15.064827,0.6082,-1.0437,-0.2995,2.2011,0.8689,-5.8230,-3.4240,-4.1034,0.4754,
15.066500,0.6082,-1.0437,-0.2995,5.6803,-1.6938,-4.8898,-3.4240,-4.1034,0.4754,
15.105867,0.6082,-1.0437,-0.2995,3.2994,-7.3526,3.6542,-3.4240,-4.1034,0.4754,
15.108318,0.6082,-1.0437,-0.2995,3.2994,-7.3526,3.6542,-4.3710,-3.5516,-0.2437,
15.129867,0.5432,-1.3968,0.0665,3.2994,-7.3526,3.6542,-4.3710,-3.5516,-0.2437,
15.131975,0.1878,-1.8399,0.0303,3.2994,-7.3526,3.6542,-4.3710,-3.5516,-0.2437,
15.133126,0.3199,-1.8834,0.2236,3.2994,-7.3526,3.6542,-4.3710,-3.5516,-0.2437,
15.134124,0.7497,-1.5343,0.7234,3.2994,-7.3526,3.6542,-4.3710,-3.5516,-0.2437,
15.144893,0.7497,-1.5343,0.7234,3.2994,-7.3526,3.6542,-3.1673,-1.2250,-0.6304,
15.146531,0.7497,-1.5343,0.7234,3.1650,-7.6274,4.7325,-3.1673,-1.2250,-0.6304,
15.184558,0.7497,-1.5343,0.7234,3.1650,-7.6274,4.7325,-1.3499,-2.5257,-1.1172,
15.186491,0.7497,-1.5343,0.7234,5.7308,-3.8709,9.4942,-1.3499,-2.5257,-1.1172,
15.215982,0.6788,-1.2993,0.7745,5.7308,-3.8709,9.4942,-1.3499,-2.5257,-1.1172,
15.217976,0.4360,-1.0884,0.1737,5.7308,-3.8709,9.4942,-1.3499,-2.5257,-1.1172,
15.218890,0.4003,-1.0183,-0.1040,5.7308,-3.8709,9.4942,-1.3499,-2.5257,-1.1172,
15.219788,0.2056,-0.9697,0.1325,5.7308,-3.8709,9.4942,-1.3499,-2.5257,-1.1172,
15.224083,0.2056,-0.9697,0.1325,5.7308,-3.8709,9.4942,0.0456,-3.6538,-1.0980,
15.226844,0.2056,-0.9697,0.1325,5.8358,-3.8107,9.3584,0.0456,-3.6538,-1.0980,
15.263394,0.2056,-0.9697,0.1325,5.8358,-3.8107,9.3584,0.9596,-4.2110,-0.9734,
15.265210,0.2056,-0.9697,0.1325,1.7607,0.1572,4.6511,0.9596,-4.2110,-0.9734,
15.281860,-0.0651,-0.7606,0.3259,1.7607,0.1572,4.6511,0.9596,-4.2110,-0.9734,
15.283784,-0.1860,-0.5331,0.5431,1.7607,0.1572,4.6511,0.9596,-4.2110,-0.9734,
15.284742,-0.3803,-0.4181,0.7154,1.7607,0.1572,4.6511,0.9596,-4.2110,-0.9734,
15.304029,-0.3803,-0.4181,0.7154,1.7607,0.1572,4.6511,1.8501,-3.4962,-0.9329,
15.306322,-0.3803,-0.4181,0.7154,1.8300,0.3839,3.8987,1.8501,-3.4962,-0.9329,
