
time,gFx,gFy,gFz,ax,ay,az,wx,wy,wz,
0.043566,0.0000,0.0000,0.0000,0.0000,0.0000,0.0000,-0.0673,-1.1121,0.0674,
0.082101,0.0000,0.0000,0.0000,0.0000,0.0000,0.0000,-0.0854,-1.4466,0.2538,
0.084528,0.2459,0.5429,0.8036,0.0000,0.0000,0.0000,-0.0854,-1.4466,0.2538,
0.085891,0.2557,0.5303,0.8047,0.0000,0.0000,0.0000,-0.0854,-1.4466,0.2538,
0.087305,0.3047,0.5239,0.7399,0.0000,0.0000,0.0000,-0.0854,-1.4466,0.2538,
0.088566,0.3494,0.5085,0.6776,0.0000,0.0000,0.0000,-0.0854,-1.4466,0.2538,
0.089783,0.3335,0.4597,0.5913,0.0000,0.0000,0.0000,-0.0854,-1.4466,0.2538,
0.091202,0.3191,0.4393,0.5257,0.0000,0.0000,0.0000,-0.0854,-1.4466,0.2538,
0.092316,0.3037,0.3991,0.4920,0.0000,0.0000,0.0000,-0.0854,-1.4466,0.2538,
0.093432,0.2884,0.3476,0.5254,0.0000,0.0000,0.0000,-0.0854,-1.4466,0.2538,
0.094652,0.3505,0.3420,0.5056,0.0000,0.0000,0.0000,-0.0854,-1.4466,0.2538,
0.095896,0.3991,0.3151,0.5291,0.0000,0.0000,0.0000,-0.0854,-1.4466,0.2538,
0.097057,0.3485,0.2650,0.5121,0.0000,0.0000,0.0000,-0.0854,-1.4466,0.2538,
0.122587,0.3485,0.2650,0.5121,0.0000,0.0000,0.0000,-0.3273,-1.6213,0.4903,
0.161940,0.3485,0.2650,0.5121,0.0000,0.0000,0.0000,-0.2814,-2.3084,0.9174,
0.164451,0.3485,0.2650,0.5121,0.0000,0.0000,-0.0000,-0.2814,-2.3084,0.9174,
0.165413,0.2916,0.2427,0.4872,0.0000,0.0000,-0.0000,-0.2814,-2.3084,0.9174,
0.166813,0.2707,0.2076,0.5434,0.0000,0.0000,-0.0000,-0.2814,-2.3084,0.9174,
0.169190,0.3652,0.1485,0.5368,0.0000,0.0000,-0.0000,-0.2814,-2.3084,0.9174,
0.170299,0.4205,0.1684,0.5536,0.0000,0.0000,-0.0000,-0.2814,-2.3084,0.9174,
0.201340,0.4205,0.1684,0.5536,0.0000,0.0000,-0.0000,-0.9494,-1.5819,1.3734,
0.203576,0.4205,0.1684,0.5536,-0.4050,-0.3189,0.2060,-0.9494,-1.5819,1.3734,
0.241785,0.3434,0.1409,0.5371,-0.4050,-0.3189,0.2060,-0.9494,-1.5819,1.3734,
0.243268,0.4210,0.1547,0.7443,-0.4050,-0.3189,0.2060,-0.9494,-1.5819,1.3734,
0.245077,0.5928,0.1708,0.8446,-0.4050,-0.3189,0.2060,-0.9494,-1.5819,1.3734,
0.246416,0.5928,0.1708,0.8446,-0.4050,-0.3189,0.2060,-1.7409,-0.5230,1.6738,
0.248108,0.5928,0.1708,0.8446,0.2372,0.0311,0.8524,-1.7409,-0.5230,1.6738,
0.281163,0.5928,0.1708,0.8446,0.2372,0.0311,0.8524,-1.0282,-1.5031,1.5886,
0.283628,0.5928,0.1708,0.8446,0.1009,0.1154,2.7223,-1.0282,-1.5031,1.5886,
0.320973,0.4918,0.1368,0.9509,0.1009,0.1154,2.7223,-1.0282,-1.5031,1.5886,
0.322509,0.3765,0.1171,0.9379,0.1009,0.1154,2.7223,-1.0282,-1.5031,1.5886,
0.323242,0.4850,0.0986,0.8413,0.1009,0.1154,2.7223,-1.0282,-1.5031,1.5886,
0.323921,0.5721,0.0338,0.8265,0.1009,0.1154,2.7223,-1.0282,-1.5031,1.5886,
0.324894,0.6458,-0.0424,0.8946,0.1009,0.1154,2.7223,-1.0282,-1.5031,1.5886,
0.325837,0.6458,-0.0424,0.8946,0.1009,0.1154,2.7223,-0.6096,-1.9164,1.9912,
0.326571,0.6458,-0.0424,0.8946,-0.3211,0.4729,2.2910,-0.6096,-1.9164,1.9912,
0.359739,0.6458,-0.0424,0.8946,-0.3211,0.4729,2.2910,-0.6724,-1.3784,2.3098,
0.361461,0.6458,-0.0424,0.8946,-0.5400,0.8321,1.9154,-0.6724,-1.3784,2.3098,
0.393963,0.7690,-0.1105,0.9811,-0.5400,0.8321,1.9154,-0.6724,-1.3784,2.3098,
0.396827,0.8193,-0.0079,0.9366,-0.5400,0.8321,1.9154,-0.6724,-1.3784,2.3098,
0.399085,0.8150,-0.0175,0.8424,-0.5400,0.8321,1.9154,-0.6724,-1.3784,2.3098,
0.401024,0.7994,-0.0951,0.8135,-0.5400,0.8321,1.9154,-0.6724,-1.3784,2.3098,
0.402608,0.7994,-0.0951,0.8135,-0.5400,0.8321,1.9154,-0.0833,-1.8205,2.3502,
0.403844,0.7994,-0.0951,0.8135,2.0116,-0.2109,1.7277,-0.0833,-1.8205,2.3502,
0.439098,0.7994,-0.0951,0.8135,2.0116,-0.2109,1.7277,0.4685,-2.7888,2.6592,
0.442254,0.7994,-0.0951,0.8135,1.0981,0.2740,2.0130,0.4685,-2.7888,2.6592,
0.469816,0.8190,-0.1867,0.7926,1.0981,0.2740,2.0130,0.4685,-2.7888,2.6592,
0.471582,0.9739,-0.2298,0.8485,1.0981,0.2740,2.0130,0.4685,-2.7888,2.6592,
0.472427,0.9896,-0.2280,0.8124,1.0981,0.2740,2.0130,0.4685,-2.7888,2.6592,
0.473328,1.0828,-0.2072,0.7810,1.0981,0.2740,2.0130,0.4685,-2.7888,2.6592,
0.477759,1.0828,-0.2072,0.7810,1.0981,0.2740,2.0130,1.1673,-3.1606,2.8296,
0.479081,1.0828,-0.2072,0.7810,1.0506,-0.6451,1.8576,1.1673,-3.1606,2.8296,
0.518192,1.0828,-0.2072,0.7810,1.0506,-0.6451,1.8576,2.1410,-3.2384,2.8743,
0.519787,1.0828,-0.2072,0.7810,0.4146,-0.1849,2.3650,2.1410,-3.2384,2.8743,
0.547472,1.2405,-0.2268,0.6324,0.4146,-0.1849,2.3650,2.1410,-3.2384,2.8743,
0.549400,1.3080,-0.3145,0.4426,0.4146,-0.1849,2.3650,2.1410,-3.2384,2.8743,
0.550615,1.2788,-0.2938,0.3235,0.4146,-0.1849,2.3650,2.1410,-3.2384,2.8743,
0.557931,1.2788,-0.2938,0.3235,0.4146,-0.1849,2.3650,2.2709,-2.4000,2.6261,
0.559807,1.2788,-0.2938,0.3235,2.3502,-0.1430,1.4451,2.2709,-2.4000,2.6261,
0.597920,1.2788,-0.2938,0.3235,2.3502,-0.1430,1.4451,2.3455,-1.8397,2.1659,
0.599688,1.2788,-0.2938,0.3235,3.5474,-0.2750,-1.5097,2.3455,-1.8397,2.1659,
0.606362,1.3808,-0.2801,0.2964,3.5474,-0.2750,-1.5097,2.3455,-1.8397,2.1659,
0.608140,1.4955,-0.2610,0.2661,3.5474,-0.2750,-1.5097,2.3455,-1.8397,2.1659,
0.609426,1.4465,-0.2858,0.1485,3.5474,-0.2750,-1.5097,2.3455,-1.8397,2.1659,
0.638121,1.4465,-0.2858,0.1485,3.5474,-0.2750,-1.5097,2.3008,-1.0226,1.4032,
0.639860,1.4465,-0.2858,0.1485,3.1181,-0.1343,-1.2050,2.3008,-1.0226,1.4032,
0.677598,1.4465,-0.2858,0.1485,3.1181,-0.1343,-1.2050,1.3974,-0.6136,1.2722,
0.679320,1.4465,-0.2858,0.1485,3.1709,-0.2294,-2.7121,1.3974,-0.6136,1.2722,
0.680521,1.3145,-0.3498,0.0677,3.1709,-0.2294,-2.7121,1.3974,-0.6136,1.2722,
0.681600,1.2042,-0.4067,0.0676,3.1709,-0.2294,-2.7121,1.3974,-0.6136,1.2722,
0.682345,1.0873,-0.3990,-0.1845,3.1709,-0.2294,-2.7121,1.3974,-0.6136,1.2722,
0.683361,0.8413,-0.2970,-0.7854,3.1709,-0.2294,-2.7121,1.3974,-0.6136,1.2722,
0.716406,0.8413,-0.2970,-0.7854,3.1709,-0.2294,-2.7121,0.0925,-1.2858,1.6834,
0.718241,0.8413,-0.2970,-0.7854,-0.5377,-0.1004,-6.1218,0.0925,-1.2858,1.6834,
0.756742,0.8413,-0.2970,-0.7854,-0.5377,-0.1004,-6.1218,0.3939,-0.7734,1.6663,
0.759102,1.0350,-0.5198,-0.0797,-0.5377,-0.1004,-6.1218,0.3939,-0.7734,1.6663,
0.760918,0.8909,-0.4023,0.1066,-0.5377,-0.1004,-6.1218,0.3939,-0.7734,1.6663,
0.762456,0.8038,-0.4216,0.1277,-0.5377,-0.1004,-6.1218,0.3939,-0.7734,1.6663,
0.764027,0.6794,-0.3924,0.0785,-0.5377,-0.1004,-6.1218,0.3939,-0.7734,1.6663,
0.765434,0.6794,-0.3924,0.0785,-1.4156,0.0044,-1.4598,0.3939,-0.7734,1.6663,
0.798728,0.6794,-0.3924,0.0785,-1.4156,0.0044,-1.4598,0.5058,-0.3419,1.8144,
0.801408,0.6794,-0.3924,0.0785,-1.0245,0.6079,-1.3003,0.5058,-0.3419,1.8144,
0.810117,0.6163,-0.3400,0.0673,-1.0245,0.6079,-1.3003,0.5058,-0.3419,1.8144,
0.811684,0.6044,-0.3380,0.0491,-1.0245,0.6079,-1.3003,0.5058,-0.3419,1.8144,
0.834244,0.6044,-0.3380,0.0491,-1.0245,0.6079,-1.3003,0.2927,-0.8234,2.1510,
0.835557,0.6044,-0.3380,0.0491,-3.0248,2.0217,-1.4688,0.2927,-0.8234,2.1510,
0.874387,0.6044,-0.3380,0.0491,-3.0248,2.0217,-1.4688,-0.2772,-1.1089,2.4664,
0.876274,0.6044,-0.3380,0.0491,-2.3254,2.6689,-0.9410,-0.2772,-1.1089,2.4664,
0.894441,0.6049,-0.3330,0.0405,-2.3254,2.6689,-0.9410,-0.2772,-1.1089,2.4664,
0.914633,0.6049,-0.3330,0.0405,-2.3254,2.6689,-0.9410,-0.4700,-0.5774,1.8837,
0.916323,0.6049,-0.3330,0.0405,-1.7291,3.0363,-0.5876,-0.4700,-0.5774,1.8837,
0.954992,0.6049,-0.3330,0.0405,-1.7291,3.0363,-0.5876,-0.5755,-0.3260,1.0144,
0.956906,0.6049,-0.3330,0.0405,-1.5096,-2.9175,-1.0499,-0.5755,-0.3260,1.0144,
0.982944,0.4685,-0.7440,-0.0999,-1.5096,-2.9175,-1.0499,-0.5755,-0.3260,1.0144,
0.984964,0.6094,-0.9287,0.0052,-1.5096,-2.9175,-1.0499,-0.5755,-0.3260,1.0144,
0.986335,0.6881,-1.3753,-0.0205,-1.5096,-2.9175,-1.0499,-0.5755,-0.3260,1.0144,
0.987866,0.5911,-2.1121,-0.1539,-1.5096,-2.9175,-1.0499,-0.5755,-0.3260,1.0144,
0.998681,0.5911,-2.1121,-0.1539,-1.5096,-2.9175,-1.0499,-0.6745,-0.0767,0.4935,
1.001405,0.5911,-2.1121,-0.1539,-1.2745,-2.5644,-0.7777,-0.6745,-0.0767,0.4935,
1.033725,0.5911,-2.1121,-0.1539,-0.6882,-8.9845,-0.4684,-0.6745,-0.0767,0.4935,
1.035845,0.5911,-2.1121,-0.1539,-0.6882,-8.9845,-0.4684,-0.5467,-0.0128,-0.0210,
1.071713,0.8161,-1.9613,0.0699,-0.6882,-8.9845,-0.4684,-0.5467,-0.0128,-0.0210,
1.073286,0.5251,-1.1366,0.0030,-0.6882,-8.9845,-0.4684,-0.5467,-0.0128,-0.0210,
1.074136,0.3876,-0.5353,-0.3408,-0.6882,-8.9845,-0.4684,-0.5467,-0.0128,-0.0210,
1.074858,0.0734,-0.4530,-0.4534,-0.6882,-8.9845,-0.4684,-0.5467,-0.0128,-0.0210,
1.075926,0.0734,-0.4530,-0.4534,-0.6882,-8.9845,-0.4684,-1.5331,-1.6117,0.8748,
1.076771,0.0734,-0.4530,-0.4534,-0.3626,-8.1782,0.4316,-1.5331,-1.6117,0.8748,
1.112756,0.0734,-0.4530,-0.4534,-0.3626,-8.1782,0.4316,-0.8631,-2.9763,3.6403,
1.114389,0.0734,-0.4530,-0.4534,-3.8554,3.6793,-1.4494,-0.8631,-2.9763,3.6403,
1.154140,0.0734,-0.4530,-0.4534,-3.8554,3.6793,-1.4494,1.2270,-0.8309,2.5601,
1.156215,0.0734,-0.4530,-0.4534,-2.6384,3.9463,-1.6621,1.2270,-0.8309,2.5601,
1.157684,-0.1303,-0.7672,-0.2040,-2.6384,3.9463,-1.6621,1.2270,-0.8309,2.5601,
1.159005,0.0363,-0.9800,0.1681,-2.6384,3.9463,-1.6621,1.2270,-0.8309,2.5601,
1.160128,0.6849,-1.0406,-0.3139,-2.6384,3.9463,-1.6621,1.2270,-0.8309,2.5601,
1.161578,0.9593,-1.2709,-0.7744,-2.6384,3.9463,-1.6621,1.2270,-0.8309,2.5601,
1.162889,0.7682,-1.4356,-0.3911,-2.6384,3.9463,-1.6621,1.2270,-0.8309,2.5601,
1.192688,0.7682,-1.4356,-0.3911,-2.6384,3.9463,-1.6621,-0.7214,0.7830,-0.0658,
1.194877,0.7682,-1.4356,-0.3911,1.5947,-1.0628,-1.1715,-0.7214,0.7830,-0.0658,
1.231451,0.2625,-1.0774,-0.0674,1.5947,-1.0628,-1.1715,-0.7214,0.7830,-0.0658,
1.234136,0.1904,-0.6929,-0.1360,1.5947,-1.0628,-1.1715,-0.7214,0.7830,-0.0658,
1.235563,0.1817,-0.5085,-0.2142,1.5947,-1.0628,-1.1715,-0.7214,0.7830,-0.0658,
1.236699,0.1817,-0.5085,-0.2142,1.5947,-1.0628,-1.1715,-0.3549,0.6349,0.0418,
1.239659,0.1817,-0.5085,-0.2142,0.0600,-0.7586,-0.0661,-0.3549,0.6349,0.0418,
1.271710,0.1817,-0.5085,-0.2142,0.0600,-0.7586,-0.0661,0.3630,-0.4581,1.2189,
1.273894,0.1817,-0.5085,-0.2142,-2.3345,4.5927,0.3850,0.3630,-0.4581,1.2189,
1.310817,0.1817,-0.5085,-0.2142,-2.3345,4.5927,0.3850,0.9628,-0.9939,1.8304,
1.312611,0.1817,-0.5085,-0.2142,-1.4765,4.6103,0.1181,0.9628,-0.9939,1.8304,
1.314124,0.0629,-0.4173,-0.1544,-1.4765,4.6103,0.1181,0.9628,-0.9939,1.8304,
1.314960,0.0485,-0.6265,-0.0581,-1.4765,4.6103,0.1181,0.9628,-0.9939,1.8304,
1.315875,0.0268,-0.3213,-0.1297,-1.4765,4.6103,0.1181,0.9628,-0.9939,1.8304,
1.316662,-0.0565,-0.0611,-0.1287,-1.4765,4.6103,0.1181,0.9628,-0.9939,1.8304,
1.317797,-0.0495,-0.2659,-0.2724,-1.4765,4.6103,0.1181,0.9628,-0.9939,1.8304,
1.350813,-0.0495,-0.2659,-0.2724,-1.4765,4.6103,0.1181,0.8765,-0.2503,1.3404,
1.352816,-0.0495,-0.2659,-0.2724,-2.0517,7.3391,-0.5117,0.8765,-0.2503,1.3404,
1.390449,-0.0495,-0.2659,-0.2724,-2.0517,7.3391,-0.5117,0.3630,0.0352,1.6791,
1.391917,-0.0495,-0.2659,-0.2724,-3.1810,-1.4335,-2.1611,0.3630,0.0352,1.6791,
1.392765,-0.0245,-0.6802,-0.4101,-3.1810,-1.4335,-2.1611,0.3630,0.0352,1.6791,
1.393795,-0.1865,-1.1945,-0.2829,-3.1810,-1.4335,-2.1611,0.3630,0.0352,1.6791,
1.394580,-0.4560,-1.5162,-0.3334,-3.1810,-1.4335,-2.1611,0.3630,0.0352,1.6791,
1.395367,-0.4768,-1.8052,-0.6454,-3.1810,-1.4335,-2.1611,0.3630,0.0352,1.6791,
1.429731,-0.4768,-1.8052,-0.6454,-3.1810,-1.4335,-2.1611,-0.3294,-1.0780,2.5952,
1.431972,-0.4768,-1.8052,-0.6454,-2.0316,-1.3338,-1.9207,-0.3294,-1.0780,2.5952,
1.471518,-0.4768,-1.8052,-0.6454,-2.0316,-1.3338,-1.9207,-1.2977,-0.1821,1.0432,
1.473477,-0.4768,-1.8052,-0.6454,-0.8625,-12.0478,-4.9433,-1.2977,-0.1821,1.0432,
1.475670,-0.3610,-2.3327,-0.8983,-0.8625,-12.0478,-4.9433,-1.2977,-0.1821,1.0432,
1.477738,0.3898,-2.6774,-0.6322,-0.8625,-12.0478,-4.9433,-1.2977,-0.1821,1.0432,
1.480086,0.9292,-1.0884,0.2920,-0.8625,-12.0478,-4.9433,-1.2977,-0.1821,1.0432,
1.481705,0.6822,-0.6944,0.4784,-0.8625,-12.0478,-4.9433,-1.2977,-0.1821,1.0432,
1.509464,0.6822,-0.6944,0.4784,-0.8625,-12.0478,-4.9433,-0.0439,1.5564,-0.6634,
1.511384,0.6822,-0.6944,0.4784,-1.2111,-11.4942,-4.6763,-0.0439,1.5564,-0.6634,
1.549086,0.6822,-0.6944,0.4784,-1.2111,-11.4942,-4.6763,0.5676,-0.4442,-0.3683,
1.551558,0.6822,-0.6944,0.4784,6.1990,3.0487,4.6508,0.5676,-0.4442,-0.3683,
1.552655,0.3314,-0.5549,0.0487,6.1990,3.0487,4.6508,0.5676,-0.4442,-0.3683,
1.553541,0.1448,-0.7980,0.2575,6.1990,3.0487,4.6508,0.5676,-0.4442,-0.3683,
1.554596,0.1526,-1.0997,0.3076,6.1990,3.0487,4.6508,0.5676,-0.4442,-0.3683,
1.555420,0.2229,-1.1796,0.1559,6.1990,3.0487,4.6508,0.5676,-0.4442,-0.3683,
1.589523,0.2229,-1.1796,0.1559,6.1990,3.0487,4.6508,1.0650,-0.7457,-0.3864,
1.590803,0.2229,-1.1796,0.1559,1.3795,0.6745,3.7224,1.0650,-0.7457,-0.3864,
1.629260,0.2229,-1.1796,0.1559,1.3795,0.6745,3.7224,0.9553,0.5657,-0.7262,
1.631728,0.2229,-1.1796,0.1559,0.1001,0.1362,-0.6540,0.9553,0.5657,-0.7262,
1.633088,0.2457,-1.1529,-0.0376,0.1001,0.1362,-0.6540,0.9553,0.5657,-0.7262,
1.634615,0.1010,-1.0901,-0.2247,0.1001,0.1362,-0.6540,0.9553,0.5657,-0.7262,
1.635866,-0.1147,-1.0063,-0.2364,0.1001,0.1362,-0.6540,0.9553,0.5657,-0.7262,
1.637513,-0.2454,-0.9746,-0.0838,0.1001,0.1362,-0.6540,0.9553,0.5657,-0.7262,
1.668020,-0.2454,-0.9746,-0.0838,0.1001,0.1362,-0.6540,0.4152,1.1835,-0.3715,
1.669867,-0.2454,-0.9746,-0.0838,-0.0939,0.1340,-0.8328,0.4152,1.1835,-0.3715,
1.710095,-0.2454,-0.9746,-0.0838,-0.0939,0.1340,-0.8328,0.3226,0.9140,0.2048,
1.712556,-0.2454,-0.9746,-0.0838,-2.4875,1.2866,0.1220,0.3226,0.9140,0.2048,
1.714097,-0.2227,-0.9663,-0.0371,-2.4875,1.2866,0.1220,0.3226,0.9140,0.2048,
1.715458,-0.0820,-0.9448,-0.0327,-2.4875,1.2866,0.1220,0.3226,0.9140,0.2048,
1.717464,0.0597,-0.9643,-0.0327,-2.4875,1.2866,0.1220,0.3226,0.9140,0.2048,
1.718446,0.1518,-0.9956,-0.0754,-2.4875,1.2866,0.1220,0.3226,0.9140,0.2048,
1.746901,0.1518,-0.9956,-0.0754,-2.4875,1.2866,0.1220,0.3460,0.6552,0.3699,
1.748736,0.1518,-0.9956,-0.0754,-2.2544,1.2530,-0.0397,0.3460,0.6552,0.3699,
1.788364,0.1518,-0.9956,-0.0754,-2.2544,1.2530,-0.0397,0.1713,0.3601,0.3497,
1.791256,0.1518,-0.9956,-0.0754,1.0914,0.8879,-0.3226,0.1713,0.3601,0.3497,
1.793018,0.2320,-1.0296,-0.1119,1.0914,0.8879,-0.3226,0.1713,0.3601,0.3497,
1.794612,0.2843,-1.0359,-0.1739,1.0914,0.8879,-0.3226,0.1713,0.3601,0.3497,
1.796355,0.2926,-1.0481,-0.2298,1.0914,0.8879,-0.3226,0.1713,0.3601,0.3497,
1.798017,0.2723,-1.0848,-0.2487,1.0914,0.8879,-0.3226,0.1713,0.3601,0.3497,
1.825612,0.2723,-1.0848,-0.2487,1.0914,0.8879,-0.3226,-0.3273,-0.1544,0.3337,
1.827228,0.2723,-1.0848,-0.2487,2.4687,0.2892,-1.5384,-0.3273,-0.1544,0.3337,
1.865594,0.2723,-1.0848,-0.2487,2.4687,0.2892,-1.5384,-0.9185,-0.6040,0.3795,
1.866716,0.2723,-1.0848,-0.2487,2.1293,0.5760,-2.4549,-0.9185,-0.6040,0.3795,
1.867533,0.2525,-1.0843,-0.2821,2.1293,0.5760,-2.4549,-0.9185,-0.6040,0.3795,
1.868172,0.2183,-1.0076,-0.3220,2.1293,0.5760,-2.4549,-0.9185,-0.6040,0.3795,
1.868660,0.2430,-0.9751,-0.4756,2.1293,0.5760,-2.4549,-0.9185,-0.6040,0.3795,
1.869237,0.2962,-1.0884,-0.7060,2.1293,0.5760,-2.4549,-0.9185,-0.6040,0.3795,
1.905637,0.2962,-1.0884,-0.7060,2.1293,0.5760,-2.4549,-2.0434,-1.3241,0.5180,
1.906714,0.2962,-1.0884,-0.7060,2.3410,0.4398,-1.5431,-2.0434,-1.3241,0.5180,
1.944269,0.2962,-1.0884,-0.7060,2.3410,0.4398,-1.5431,-3.7702,-2.0741,0.3625,
1.945446,0.2962,-1.0884,-0.7060,3.9484,-1.9034,-4.0134,-3.7702,-2.0741,0.3625,
1.946124,0.3852,-1.2929,-0.8274,3.9484,-1.9034,-4.0134,-3.7702,-2.0741,0.3625,
1.947514,0.4519,-1.2963,-0.8098,3.9484,-1.9034,-4.0134,-3.7702,-2.0741,0.3625,
1.948998,0.4291,-1.1742,-0.7837,3.9484,-1.9034,-4.0134,-3.7702,-2.0741,0.3625,
1.950673,0.2449,-1.1998,-0.1001,3.9484,-1.9034,-4.0134,-3.7702,-2.0741,0.3625,
1.984415,0.2449,-1.1998,-0.1001,3.9484,-1.9034,-4.0134,-4.1974,-1.6053,-0.2842,
1.986529,0.2449,-1.1998,-0.1001,3.9826,-2.5520,-2.3305,-4.1974,-1.6053,-0.2842,
2.025076,0.2449,-1.1998,-0.1001,3.9826,-2.5520,-2.3305,-1.9955,-1.0663,-0.9510,
2.027356,0.2449,-1.1998,-0.1001,3.0143,-2.2917,5.1620,-1.9955,-1.0663,-0.9510,
2.036328,0.2254,-1.1126,0.6665,3.0143,-2.2917,5.1620,-1.9955,-1.0663,-0.9510,
2.038338,0.7196,-0.8942,0.8551,3.0143,-2.2917,5.1620,-1.9955,-1.0663,-0.9510,
2.043810,1.0780,-0.9553,0.1388,3.0143,-2.2917,5.1620,-1.9955,-1.0663,-0.9510,
2.045008,0.9278,-1.1881,-0.3540,3.0143,-2.2917,5.1620,-1.9955,-1.0663,-0.9510,
2.065013,0.9278,-1.1881,-0.3540,3.0143,-2.2917,5.1620,-0.3795,-0.8298,-2.2975,
2.066537,0.9278,-1.1881,-0.3540,8.0941,-0.9053,7.8513,-0.3795,-0.8298,-2.2975,
2.104818,0.9278,-1.1881,-0.3540,8.0941,-0.9053,7.8513,-0.3858,-2.1603,-2.9324,
2.107303,0.9278,-1.1881,-0.3540,1.2496,-1.8731,3.8920,-0.3858,-2.1603,-2.9324,
2.108816,0.5528,-1.1659,-0.5108,1.2496,-1.8731,3.8920,-0.3858,-2.1603,-2.9324,
2.110077,0.1531,-1.0679,-0.1961,1.2496,-1.8731,3.8920,-0.3858,-2.1603,-2.9324,
2.111330,0.0993,-1.0515,0.1012,1.2496,-1.8731,3.8920,-0.3858,-2.1603,-2.9324,
2.112526,-0.0925,-1.0948,0.0594,1.2496,-1.8731,3.8920,-0.3858,-2.1603,-2.9324,
2.143501,-0.0925,-1.0948,0.0594,1.2496,-1.8731,3.8920,0.5377,-2.4075,-2.6469,
2.145934,-0.0925,-1.0948,0.0594,0.8579,-1.8550,3.7380,0.5377,-2.4075,-2.6469,
2.181936,-0.2420,-1.0828,-0.0371,0.8579,-1.8550,3.7380,0.5377,-2.4075,-2.6469,
2.183949,-0.3148,-0.9274,-0.0879,0.8579,-1.8550,3.7380,0.5377,-2.4075,-2.6469,
2.185509,-0.1738,-0.6846,-0.1961,0.8579,-1.8550,3.7380,0.5377,-2.4075,-2.6469,
2.186891,-0.1738,-0.6846,-0.1961,0.8579,-1.8550,3.7380,1.0831,-2.0442,-1.6552,
2.188630,-0.1738,-0.6846,-0.1961,-3.9041,-1.1129,5.1146,1.0831,-2.0442,-1.6552,
2.223073,-0.1738,-0.6846,-0.1961,-3.9041,-1.1129,5.1146,1.0054,-0.6221,-1.2642,
2.225412,-0.1738,-0.6846,-0.1961,-1.2649,1.1996,2.2690,1.0054,-0.6221,-1.2642,
2.264804,-0.1738,-0.6846,-0.1961,-1.2649,1.1996,2.2690,0.8499,1.2655,-1.3345,
2.267773,-0.1738,-0.6846,-0.1961,-1.9254,1.1972,1.7847,0.8499,1.2655,-1.3345,
2.269410,0.0659,-0.7501,-0.4092,-1.9254,1.1972,1.7847,0.8499,1.2655,-1.3345,
2.270986,0.3551,-0.9853,-0.2142,-1.9254,1.1972,1.7847,0.8499,1.2655,-1.3345,
2.272164,0.4211,-0.8796,0.1322,-1.9254,1.1972,1.7847,0.8499,1.2655,-1.3345,
2.273303,-0.2090,-0.6545,-0.2013,-1.9254,1.1972,1.7847,0.8499,1.2655,-1.3345,
2.274471,-0.5266,-0.2859,-0.3339,-1.9254,1.1972,1.7847,0.8499,1.2655,-1.3345,
2.302153,-0.5266,-0.2859,-0.3339,-1.9254,1.1972,1.7847,1.2717,-1.0056,-1.3974,
2.304319,-0.5266,-0.2859,-0.3339,-3.9838,3.1210,2.7266,1.2717,-1.0056,-1.3974,
2.342698,-0.5266,-0.2859,-0.3339,-3.9838,3.1210,2.7266,1.1567,-0.2876,-0.8626,
2.344696,-0.5266,-0.2859,-0.3339,-5.3300,2.2894,-0.3770,1.1567,-0.2876,-0.8626,
2.346152,-0.2510,-0.1909,-0.2978,-5.3300,2.2894,-0.3770,1.1567,-0.2876,-0.8626,
2.347455,-0.0971,-0.5700,-0.2790,-5.3300,2.2894,-0.3770,1.1567,-0.2876,-0.8626,
2.351347,-0.3424,-1.3161,-0.6625,-5.3300,2.2894,-0.3770,1.1567,-0.2876,-0.8626,
2.352648,-0.6683,-2.2799,-0.9581,-5.3300,2.2894,-0.3770,1.1567,-0.2876,-0.8626,
2.381966,-0.6683,-2.2799,-0.9581,-5.3300,2.2894,-0.3770,-0.8237,-1.3284,0.7055,
2.383886,-0.6683,-2.2799,-0.9581,-4.7419,2.1799,0.0683,-0.8237,-1.3284,0.7055,
2.421534,-0.6683,-2.2799,-0.9581,-4.7419,2.1799,0.0683,-0.5669,1.9558,0.4157,
2.423913,-0.6683,-2.2799,-0.9581,-8.4411,-13.6730,1.3522,-0.5669,1.9558,0.4157,
2.426288,-0.9348,-3.1560,-0.5770,-8.4411,-13.6730,1.3522,-0.5669,1.9558,0.4157,
2.428073,-0.2361,-1.5912,0.6990,-8.4411,-13.6730,1.3522,-0.5669,1.9558,0.4157,
2.429640,-0.0895,-0.3584,0.5334,-8.4411,-13.6730,1.3522,-0.5669,1.9558,0.4157,
2.432026,-0.4233,-1.0066,0.0638,-8.4411,-13.6730,1.3522,-0.5669,1.9558,0.4157,
2.459836,-0.4233,-1.0066,0.0638,-8.4411,-13.6730,1.3522,0.3151,2.8176,0.3262,
2.462053,-0.4233,-1.0066,0.0638,-8.5268,-13.2343,0.9216,0.3151,2.8176,0.3262,
2.501205,-0.4233,-1.0066,0.0638,-3.7971,0.3028,5.1443,0.3151,2.8176,0.3262,
2.502732,-0.4233,-1.0066,0.0638,-3.7971,0.3028,5.1443,0.1734,1.8003,0.8088,
2.503511,0.0720,-1.5477,-0.0237,-3.7971,0.3028,5.1443,0.1734,1.8003,0.8088,
2.504361,0.6800,-1.7227,0.0013,-3.7971,0.3028,5.1443,0.1734,1.8003,0.8088,
2.506385,0.7570,-1.4395,-0.0212,-3.7971,0.3028,5.1443,0.1734,1.8003,0.8088,
2.507466,0.4177,-1.0664,-0.0579,-3.7971,0.3028,5.1443,0.1734,1.8003,0.8088,
2.541353,0.4177,-1.0664,-0.0579,-3.7971,0.3028,5.1443,0.3748,2.3564,0.0940,
2.543255,0.4177,-1.0664,-0.0579,3.3634,-3.8428,2.5743,0.3748,2.3564,0.0940,
2.578666,0.0852,-0.8971,-0.1018,3.3634,-3.8428,2.5743,0.3748,2.3564,0.0940,
2.581092,-0.1113,-0.8712,-0.1612,3.3634,-3.8428,2.5743,0.3748,2.3564,0.0940,
2.582669,-0.1802,-0.8358,-0.2540,3.3634,-3.8428,2.5743,0.3748,2.3564,0.0940,
2.584011,-0.1802,-0.8358,-0.2540,3.3634,-3.8428,2.5743,0.2267,2.5076,0.0855,
2.585491,-0.1802,-0.8358,-0.2540,-3.5098,1.4605,0.7515,0.2267,2.5076,0.0855,
2.619053,-0.1802,-0.8358,-0.2540,-3.5098,1.4605,0.7515,-0.3784,2.4597,0.4061,
2.621150,-0.1802,-0.8358,-0.2540,-6.2819,2.5727,-2.4439,-0.3784,2.4597,0.4061,
2.660074,-0.1802,-0.8358,-0.2540,-6.2819,2.5727,-2.4439,-1.4724,2.7005,0.9036,
2.661840,-0.1802,-0.8358,-0.2540,-6.0455,2.4642,-2.1060,-1.4724,2.7005,0.9036,
2.663008,-0.2574,-0.7679,-0.3171,-6.0455,2.4642,-2.1060,-1.4724,2.7005,0.9036,
2.664087,-0.3539,-0.7007,-0.4854,-6.0455,2.4642,-2.1060,-1.4724,2.7005,0.9036,
2.665043,-0.4694,-0.7794,-0.6708,-6.0455,2.4642,-2.1060,-1.4724,2.7005,0.9036,
2.666243,-0.3815,-0.8981,-0.5005,-6.0455,2.4642,-2.1060,-1.4724,2.7005,0.9036,
2.667672,-0.0822,-1.0569,-0.4194,-6.0455,2.4642,-2.1060,-1.4724,2.7005,0.9036,
2.697962,-0.0822,-1.0569,-0.4194,-6.0455,2.4642,-2.1060,-2.4226,2.4118,1.7228,
2.699949,-0.0822,-1.0569,-0.4194,-5.5336,2.2752,-1.3616,-2.4226,2.4118,1.7228,
2.738479,-0.0822,-1.0569,-0.4194,-5.5336,2.2752,-1.3616,-2.7433,2.3020,1.6365,
2.741096,-0.0822,-1.0569,-0.4194,-2.1064,-1.6169,-0.6030,-2.7433,2.3020,1.6365,
2.742649,0.3365,-1.4041,-0.5890,-2.1064,-1.6169,-0.6030,-2.7433,2.3020,1.6365,
2.744178,0.7123,-1.6779,-0.7590,-2.1064,-1.6169,-0.6030,-2.7433,2.3020,1.6365,
2.745490,1.1374,-1.2790,-0.6989,-2.1064,-1.6169,-0.6030,-2.7433,2.3020,1.6365,
2.746646,1.2490,-0.6658,-0.0935,-2.1064,-1.6169,-0.6030,-2.7433,2.3020,1.6365,
2.777461,1.2490,-0.6658,-0.0935,-2.1064,-1.6169,-0.6030,-1.9060,1.9090,0.8983,
2.779480,1.2490,-0.6658,-0.0935,8.2186,-2.7039,-0.1691,-1.9060,1.9090,0.8983,
2.804590,0.5142,-0.3455,-0.1067,8.2186,-2.7039,-0.1691,-1.9060,1.9090,0.8983,
2.806742,-0.2163,-0.4747,-0.3745,8.2186,-2.7039,-0.1691,-1.9060,1.9090,0.8983,
2.808323,-0.2078,-0.7703,-0.6083,8.2186,-2.7039,-0.1691,-1.9060,1.9090,0.8983,
2.816712,-0.2078,-0.7703,-0.6083,8.2186,-2.7039,-0.1691,-0.4562,-0.3451,1.0996,
2.818798,-0.2078,-0.7703,-0.6083,-1.1174,3.8318,1.4908,-0.4562,-0.3451,1.0996,
2.857122,-0.2078,-0.7703,-0.6083,-1.1174,3.8318,1.4908,0.1148,-1.1728,2.0008,
2.859398,-0.2078,-0.7703,-0.6083,-1.9111,1.7032,0.6641,0.1148,-1.1728,2.0008,
2.895054,-0.0778,-0.8468,-0.7050,-1.9111,1.7032,0.6641,0.1148,-1.1728,2.0008,
2.897147,-0.1728,-0.7635,-0.4568,-1.9111,1.7032,0.6641,0.1148,-1.1728,2.0008,
2.898945,-0.2075,-0.6502,-0.1766,-1.9111,1.7032,0.6641,0.1148,-1.1728,2.0008,
2.901126,-0.2278,-0.6013,-0.0632,-1.9111,1.7032,0.6641,0.1148,-1.1728,2.0008,
2.902487,-0.2278,-0.6013,-0.0632,-1.9111,1.7032,0.6641,0.8062,-1.1739,2.1681,
2.904570,-0.2278,-0.6013,-0.0632,-0.8773,1.8110,0.3594,0.8062,-1.1739,2.1681,
2.935606,-0.2278,-0.6013,-0.0632,-0.8773,1.8110,0.3594,1.5561,-0.8437,2.0722,
2.937569,-0.2278,-0.6013,-0.0632,-0.3312,3.3456,2.7701,1.5561,-0.8437,2.0722,
2.977294,-0.2278,-0.6013,-0.0632,-0.3312,3.3456,2.7701,1.4986,-0.5049,1.4543,
2.979253,-0.2278,-0.6013,-0.0632,0.2786,3.3891,2.1305,1.4986,-0.5049,1.4543,
2.987627,-0.1960,-0.5971,-0.1358,0.2786,3.3891,2.1305,1.4986,-0.5049,1.4543,
2.988577,-0.1484,-0.6265,-0.1969,0.2786,3.3891,2.1305,1.4986,-0.5049,1.4543,
2.989607,-0.0426,-0.6265,-0.2584,0.2786,3.3891,2.1305,1.4986,-0.5049,1.4543,
2.990469,-0.2053,-0.7972,-0.8553,0.2786,3.3891,2.1305,1.4986,-0.5049,1.4543,
2.991289,-0.3817,-1.3178,-1.5806,0.2786,3.3891,2.1305,1.4986,-0.5049,1.4543,
3.015407,-0.3817,-1.3178,-1.5806,0.2786,3.3891,2.1305,-0.1334,0.8181,0.8546,
3.016836,-0.3817,-1.3178,-1.5806,0.2892,0.2928,-5.1445,-0.1334,0.8181,0.8546,
3.054775,-0.3817,-1.3178,-1.5806,0.2892,0.2928,-5.1445,-0.3816,1.3433,-0.0264,
3.057115,-0.3817,-1.3178,-1.5806,5.6797,-5.0157,-2.3168,-0.3816,1.3433,-0.0264,
3.058538,0.2122,-1.7617,-0.6063,5.6797,-5.0157,-2.3168,-0.3816,1.3433,-0.0264,
3.059996,0.2593,-1.4503,-0.8406,5.6797,-5.0157,-2.3168,-0.3816,1.3433,-0.0264,
3.061438,0.6497,-1.1695,-0.4761,5.6797,-5.0157,-2.3168,-0.3816,1.3433,-0.0264,
3.062979,0.9395,-0.6917,0.4921,5.6797,-5.0157,-2.3168,-0.3816,1.3433,-0.0264,
3.095067,0.9395,-0.6917,0.4921,5.6797,-5.0157,-2.3168,-0.2250,0.3004,-0.2128,
3.096918,0.9395,-0.6917,0.4921,5.4404,-4.9325,-2.1652,-0.2250,0.3004,-0.2128,
3.136169,0.9395,-0.6917,0.4921,5.4404,-4.9325,-2.1652,0.3247,-0.4463,-0.2330,
3.138288,0.4914,-0.6819,0.0709,5.4404,-4.9325,-2.1652,0.3247,-0.4463,-0.2330,
3.139653,0.3458,-1.2331,-0.2509,5.4404,-4.9325,-2.1652,0.3247,-0.4463,-0.2330,
3.141138,0.2564,-1.4757,0.0973,5.4404,-4.9325,-2.1652,0.3247,-0.4463,-0.2330,
3.142601,0.0470,-1.5050,0.0809,5.4404,-4.9325,-2.1652,0.3247,-0.4463,-0.2330,
3.143886,0.0470,-1.5050,0.0809,7.4149,0.9150,4.8844,0.3247,-0.4463,-0.2330,
3.174172,0.0470,-1.5050,0.0809,7.4149,0.9150,4.8844,1.1630,0.1907,-0.5494,
3.177575,0.0470,-1.5050,0.0809,7.0369,1.0936,4.3667,1.1630,0.1907,-0.5494,
3.204042,-0.1357,-1.3454,-0.2877,7.0369,1.0936,4.3667,1.1630,0.1907,-0.5494,
3.205592,-0.1088,-1.1134,-0.4048,7.0369,1.0936,4.3667,1.1630,0.1907,-0.5494,
3.206346,0.1047,-1.0362,-0.3435,7.0369,1.0936,4.3667,1.1630,0.1907,-0.5494,
3.212970,0.1047,-1.0362,-0.3435,7.0369,1.0936,4.3667,1.6414,-0.3057,-0.1702,
3.215224,0.1047,-1.0362,-0.3435,1.7170,-4.2335,2.2965,1.6414,-0.3057,-0.1702,
3.253456,0.1047,-1.0362,-0.3435,1.7170,-4.2335,2.2965,1.8949,-1.4956,-0.0285,
3.255161,0.1047,-1.0362,-0.3435,2.1971,-0.2524,-1.3870,1.8949,-1.4956,-0.0285,
3.293353,0.1047,-1.0362,-0.3435,2.1971,-0.2524,-1.3870,2.2752,-1.1899,-0.4642,
3.295115,0.1047,-1.0362,-0.3435,4.2672,1.5005,-2.7990,2.2752,-1.1899,-0.4642,
3.296058,0.2955,-1.0115,-0.2455,4.2672,1.5005,-2.7990,2.2752,-1.1899,-0.4642,
3.297065,0.4809,-0.9291,-0.1807,4.2672,1.5005,-2.7990,2.2752,-1.1899,-0.4642,
3.297812,0.3268,-0.8783,-0.3222,4.2672,1.5005,-2.7990,2.2752,-1.1899,-0.4642,
3.298687,0.1795,-0.8527,-0.6418,4.2672,1.5005,-2.7990,2.2752,-1.1899,-0.4642,
3.299480,0.2823,-0.8361,-0.8941,4.2672,1.5005,-2.7990,2.2752,-1.1899,-0.4642,
3.332380,0.2823,-0.8361,-0.8941,4.2672,1.5005,-2.7990,1.2057,-1.1462,-0.1989,
3.334205,0.2823,-0.8361,-0.8941,4.1362,1.5117,-3.2701,1.2057,-1.1462,-0.1989,
3.371874,0.3290,-0.8632,-0.9178,4.1362,1.5117,-3.2701,1.2057,-1.1462,-0.1989,
3.373800,0.2334,-0.8590,-0.6181,4.1362,1.5117,-3.2701,1.2057,-1.1462,-0.1989,
3.374791,0.1076,-0.7940,-0.5628,4.1362,1.5117,-3.2701,1.2057,-1.1462,-0.1989,
3.375746,0.1076,-0.7940,-0.5628,4.1362,1.5117,-3.2701,-0.6575,-1.7428,0.0567,
3.376589,0.1076,-0.7940,-0.5628,3.6603,1.7940,-7.1330,-0.6575,-1.7428,0.0567,
3.411841,0.1076,-0.7940,-0.5628,3.6603,1.7940,-7.1330,-2.6122,-2.9944,0.4690,
3.414465,0.1076,-0.7940,-0.5628,1.9721,1.5772,-6.0646,-2.6122,-2.9944,0.4690,
3.451606,0.1076,-0.7940,-0.5628,1.9721,1.5772,-6.0646,-4.3731,-3.5942,0.5968,
3.454664,0.1076,-0.7940,-0.5628,2.5207,1.0739,-4.5015,-4.3731,-3.5942,0.5968,
3.456053,0.0287,-0.8190,-0.8152,2.5207,1.0739,-4.5015,-4.3731,-3.5942,0.5968,
3.457438,0.1003,-0.9565,-1.0407,2.5207,1.0739,-4.5015,-4.3731,-3.5942,0.5968,
3.458708,0.2791,-1.2121,-0.4512,2.5207,1.0739,-4.5015,-4.3731,-3.5942,0.5968,
3.460141,0.4179,-1.3286,-0.1001,2.5207,1.0739,-4.5015,-4.3731,-3.5942,0.5968,
3.461382,0.5476,-1.4175,0.5114,2.5207,1.0739,-4.5015,-4.3731,-3.5942,0.5968,
3.491382,0.5476,-1.4175,0.5114,2.5207,1.0739,-4.5015,-3.5827,-2.3595,-0.5260,
3.493981,0.5476,-1.4175,0.5114,5.8850,-3.9146,4.3232,-3.5827,-2.3595,-0.5260,
3.531067,0.5476,-1.4175,0.5114,5.1470,-4.9290,10.9255,-3.5827,-2.3595,-0.5260,
3.533860,0.5476,-1.4175,0.5114,5.1470,-4.9290,10.9255,-1.0303,-0.2748,-1.6051,
3.535242,0.4682,-1.4676,1.3103,5.1470,-4.9290,10.9255,-1.0303,-0.2748,-1.6051,
3.536503,0.2877,-1.4933,0.9179,5.1470,-4.9290,10.9255,-1.0303,-0.2748,-1.6051,
3.537860,0.4499,-1.3081,-0.2926,5.1470,-4.9290,10.9255,-1.0303,-0.2748,-1.6051,
3.539043,0.5984,-1.0584,-0.6486,5.1470,-4.9290,10.9255,-1.0303,-0.2748,-1.6051,
3.570433,0.5984,-1.0584,-0.6486,5.1470,-4.9290,10.9255,-0.3411,-0.6029,-2.4371,
3.573221,0.5984,-1.0584,-0.6486,4.3111,-4.8260,10.8344,-0.3411,-0.6029,-2.4371,
3.610027,0.5984,-1.0584,-0.6486,4.3111,-4.8260,10.8344,-0.4263,-3.0488,-2.6597,
3.612763,0.5984,-1.0584,-0.6486,4.3813,-1.8919,-0.6293,-0.4263,-3.0488,-2.6597,
3.614332,0.3422,-1.0689,-0.5809,4.3813,-1.8919,-0.6293,-0.4263,-3.0488,-2.6597,
3.615739,0.4340,-1.2343,-0.3906,4.3813,-1.8919,-0.6293,-0.4263,-3.0488,-2.6597,
3.617076,0.3358,-1.4681,-0.0012,4.3813,-1.8919,-0.6293,-0.4263,-3.0488,-2.6597,
3.618439,-0.0807,-1.4625,0.2207,4.3813,-1.8919,-0.6293,-0.4263,-3.0488,-2.6597,
3.649049,-0.0807,-1.4625,0.2207,4.1713,-1.8101,-0.7209,-0.4263,-3.0488,-2.6597,
3.651129,-0.0807,-1.4625,0.2207,4.1713,-1.8101,-0.7209,0.3588,-3.2203,-2.0184,
3.688798,-0.0807,-1.4625,0.2207,4.1713,-1.8101,-0.7209,0.6443,-1.4914,-1.5252,
3.690121,-0.0807,-1.4625,0.2207,-0.7403,-4.0230,5.7659,0.6443,-1.4914,-1.5252,
3.690772,-0.2989,-1.1564,0.2409,-0.7403,-4.0230,5.7659,0.6443,-1.4914,-1.5252,
3.691392,-0.4946,-0.8019,0.2265,-0.7403,-4.0230,5.7659,0.6443,-1.4914,-1.5252,
3.691957,-0.6204,-0.4818,0.2292,-0.7403,-4.0230,5.7659,0.6443,-1.4914,-1.5252,
3.692453,-0.5608,-0.3455,0.1012,-0.7403,-4.0230,5.7659,0.6443,-1.4914,-1.5252,
3.728624,-0.5608,-0.3455,0.1012,-6.5023,4.0991,5.4888,0.6443,-1.4914,-1.5252,
3.730247,-0.5608,-0.3455,0.1012,-6.5023,4.0991,5.4888,1.2440,0.9183,-1.0682,
3.761855,-0.2928,-0.3457,0.0059,-6.5023,4.0991,5.4888,1.2440,0.9183,-1.0682,
3.764317,-0.1181,-0.3716,-0.1822,-6.5023,4.0991,5.4888,1.2440,0.9183,-1.0682,
3.765417,0.1023,-0.3895,-0.6750,-6.5023,4.0991,5.4888,1.2440,0.9183,-1.0682,
3.767268,0.1023,-0.3895,-0.6750,-6.5023,4.0991,5.4888,1.4741,1.1793,-0.6421,
3.768733,0.1023,-0.3895,-0.6750,-2.3945,5.8715,0.2703,1.4741,1.1793,-0.6421,
3.808131,0.1023,-0.3895,-0.6750,-2.3945,5.8715,0.2703,1.1599,0.9513,-0.9361,
3.811699,0.1023,-0.3895,-0.6750,-1.4978,-1.2696,-0.4311,1.1599,0.9513,-0.9361,
3.830920,0.4961,-0.5361,-0.3886,-1.4978,-1.2696,-0.4311,1.1599,0.9513,-0.9361,
3.833274,0.1228,-1.0090,-0.1991,-1.4978,-1.2696,-0.4311,1.1599,0.9513,-0.9361,
3.835069,-0.5202,-1.7754,-0.3281,-1.4978,-1.2696,-0.4311,1.1599,0.9513,-0.9361,
3.837179,-0.7675,-2.5279,-0.6769,-1.4978,-1.2696,-0.4311,1.1599,0.9513,-0.9361,
3.847749,-0.7675,-2.5279,-0.6769,-1.4978,-1.2696,-0.4311,0.3087,0.8661,0.0578,
3.849765,-0.7675,-2.5279,-0.6769,-1.5336,-1.2141,-0.6029,0.3087,0.8661,0.0578,
3.886545,-0.7675,-2.5279,-0.6769,-1.5336,-1.2141,-0.6029,-1.4426,-0.6722,1.3659,
3.889214,-0.7675,-2.5279,-0.6769,-9.0605,-10.6289,-1.8120,-1.4426,-0.6722,1.3659,
3.918639,-1.0653,-2.6896,-1.2679,-9.0605,-10.6289,-1.8120,-1.4426,-0.6722,1.3659,
3.921831,-0.6014,-1.0193,0.4691,-9.0605,-10.6289,-1.8120,-1.4426,-0.6722,1.3659,
3.922935,-0.5588,-0.4686,1.1744,-9.0605,-10.6289,-1.8120,-1.4426,-0.6722,1.3659,
3.924775,-0.7633,-0.7747,0.4647,-9.0605,-10.6289,-1.8120,-1.4426,-0.6722,1.3659,
3.926524,-0.7633,-0.7747,0.4647,-9.0605,-10.6289,-1.8120,0.2533,3.6134,0.1899,
3.927897,-0.7633,-0.7747,0.4647,-9.2488,-10.4165,-2.0529,0.2533,3.6134,0.1899,
3.965703,-0.7633,-0.7747,0.4647,-9.2488,-10.4165,-2.0529,-0.2197,4.1993,1.6983,
3.967640,-0.7633,-0.7747,0.4647,-7.1923,2.2178,8.7089,-0.2197,4.1993,1.6983,
3.989809,-0.5884,-1.1322,0.2607,-7.1923,2.2178,8.7089,-0.2197,4.1993,1.6983,
3.991284,-0.2034,-1.6215,0.5375,-7.1923,2.2178,8.7089,-0.2197,4.1993,1.6983,
3.992210,0.3375,-1.8859,0.4589,-7.1923,2.2178,8.7089,-0.2197,4.1993,1.6983,
4.004476,0.3375,-1.8859,0.4589,-7.1923,2.2178,8.7089,0.9766,0.3718,2.3833,
4.005894,0.3375,-1.8859,0.4589,-6.1775,2.3171,8.1615,0.9766,0.3718,2.3833,
4.045904,0.3375,-1.8859,0.4589,-6.1775,2.3171,8.1615,0.8797,4.4571,1.0826,
4.048070,0.3375,-1.8859,0.4589,2.2458,-6.0096,5.3982,0.8797,4.4571,1.0826,
4.075773,0.5083,-1.4652,0.1828,2.2458,-6.0096,5.3982,0.8797,4.4571,1.0826,
4.078704,0.4470,-0.9697,0.0245,2.2458,-6.0096,5.3982,0.8797,4.4571,1.0826,
4.079972,0.4978,-0.6575,0.0364,2.2458,-6.0096,5.3982,0.8797,4.4571,1.0826,
4.081265,0.3954,-0.4244,0.2722,2.2458,-6.0096,5.3982,0.8797,4.4571,1.0826,
4.082617,0.5806,-0.2707,0.3714,2.2458,-6.0096,5.3982,0.8797,4.4571,1.0826,
4.085540,0.5806,-0.2707,0.3714,2.2458,-6.0096,5.3982,0.7188,5.8132,0.5031,
4.087365,0.5806,-0.2707,0.3714,4.3326,3.5105,2.3273,0.7188,5.8132,0.5031,
4.124908,0.5806,-0.2707,0.3714,4.3326,3.5105,2.3273,2.0035,4.5061,0.6863,
4.127646,0.5806,-0.2707,0.3714,11.5205,4.0427,-2.5565,2.0035,4.5061,0.6863,
4.164230,1.1599,-0.5290,-0.0720,11.5205,4.0427,-2.5565,2.0035,4.5061,0.6863,
4.167169,1.8234,-1.0882,-1.2249,11.5205,4.0427,-2.5565,2.0035,4.5061,0.6863,
4.168383,2.3044,-1.6562,-1.8120,11.5205,4.0427,-2.5565,2.0035,4.5061,0.6863,
4.169374,1.4975,-2.0630,-1.4287,11.5205,4.0427,-2.5565,2.0035,4.5061,0.6863,
4.170717,1.4975,-2.0630,-1.4287,11.5205,4.0427,-2.5565,0.1297,0.4272,-0.4471,
4.171730,1.4975,-2.0630,-1.4287,11.1436,3.9737,-2.5661,0.1297,0.4272,-0.4471,
4.204596,1.4975,-2.0630,-1.4287,11.1436,3.9737,-2.5661,-2.1073,-3.8914,-1.2354,
4.207205,1.4975,-2.0630,-1.4287,12.5563,-7.2886,-10.9135,-2.1073,-3.8914,-1.2354,
4.244111,1.4975,-2.0630,-1.4287,12.5563,-7.2886,-10.9135,-1.6130,-2.9124,-1.3015,
4.247941,1.4975,-2.0630,-1.4287,12.0616,-7.3531,-9.9626,-1.6130,-2.9124,-1.3015,
4.249762,0.3668,-1.6200,-0.5882,12.0616,-7.3531,-9.9626,-1.6130,-2.9124,-1.3015,
4.251274,0.0111,-1.1444,0.0863,12.0616,-7.3531,-9.9626,-1.6130,-2.9124,-1.3015,
4.252409,-0.2708,-0.9563,0.6565,12.0616,-7.3531,-9.9626,-1.6130,-2.9124,-1.3015,
4.253914,-0.5593,-0.8397,0.9702,12.0616,-7.3531,-9.9626,-1.6130,-2.9124,-1.3015,
4.255173,-0.7145,-0.7921,1.0471,12.0616,-7.3531,-9.9626,-1.6130,-2.9124,-1.3015,
4.285548,-0.7145,-0.7921,1.0471,12.0616,-7.3531,-9.9626,0.7604,0.1023,-0.7625,
4.287744,-0.7145,-0.7921,1.0471,-4.4673,0.4961,7.6965,0.7604,0.1023,-0.7625,
4.322129,-0.6106,-0.7576,0.6335,-4.4673,0.4961,7.6965,0.7604,0.1023,-0.7625,
4.324035,-0.5085,-0.8571,0.0706,-4.4673,0.4961,7.6965,0.7604,0.1023,-0.7625,
4.324647,-0.4640,-0.9983,-0.1351,-4.4673,0.4961,7.6965,0.7604,0.1023,-0.7625,
4.325410,-0.4640,-0.9983,-0.1351,-4.4673,0.4961,7.6965,1.4709,-0.7233,-0.0189,
4.326170,-0.4640,-0.9983,-0.1351,-7.6085,2.3052,7.1599,1.4709,-0.7233,-0.0189,
4.362466,-0.4640,-0.9983,-0.1351,-7.6085,2.3052,7.1599,0.4206,-2.2061,0.6575,
4.364763,-0.4640,-0.9983,-0.1351,-6.0440,-0.1806,-3.6917,0.4206,-2.2061,0.6575,
4.402917,-0.4640,-0.9983,-0.1351,-6.0440,-0.1806,-3.6917,-0.7534,0.8320,1.0240,
4.405398,-0.4640,-0.9983,-0.1351,-5.5883,-0.1873,-3.3568,-0.7534,0.8320,1.0240,
4.406781,-0.5112,-1.0828,-0.5624,-5.5883,-0.1873,-3.3568,-0.7534,0.8320,1.0240,
4.408282,-0.5290,-1.1060,-0.8787,-5.5883,-0.1873,-3.3568,-0.7534,0.8320,1.0240,
4.409489,-0.2515,-1.0469,-0.2455,-5.5883,-0.1873,-3.3568,-0.7534,0.8320,1.0240,
4.411806,-0.0084,-1.0591,0.0426,-5.5883,-0.1873,-3.3568,-0.7534,0.8320,1.0240,
4.413322,0.2132,-1.0601,0.2075,-5.5883,-0.1873,-3.3568,-0.7534,0.8320,1.0240,
4.441923,0.2132,-1.0601,0.2075,-5.5883,-0.1873,-3.3568,0.0008,1.3870,0.6000,
4.445122,0.2132,-1.0601,0.2075,-0.6714,-0.1028,1.7449,0.0008,1.3870,0.6000,
4.483033,0.2132,-1.0601,0.2075,-0.6714,-0.1028,1.7449,0.4834,1.0834,0.2399,
4.486313,0.2132,-1.0601,0.2075,0.1668,0.1875,1.3126,0.4834,1.0834,0.2399,
4.487709,0.2185,-1.0259,0.2158,0.1668,0.1875,1.3126,0.4834,1.0834,0.2399,
4.488870,0.0287,-1.0183,-0.0256,0.1668,0.1875,1.3126,0.4834,1.0834,0.2399,
4.491380,-0.0448,-1.0430,-0.2445,0.1668,0.1875,1.3126,0.4834,1.0834,0.2399,
4.492543,-0.1171,-1.0726,-0.2528,0.1668,0.1875,1.3126,0.4834,1.0834,0.2399,
4.521454,-0.1171,-1.0726,-0.2528,0.1668,0.1875,1.3126,0.0413,1.7747,0.3113,
4.523828,-0.1171,-1.0726,-0.2528,0.1884,0.1926,1.2409,0.0413,1.7747,0.3113,
4.561956,-0.1171,-1.0726,-0.2528,0.1884,0.1926,1.2409,-0.1590,2.0634,0.3869,
4.564690,-0.1171,-1.0726,-0.2528,-1.6162,0.2462,-0.7395,-0.1590,2.0634,0.3869,
4.565815,-0.1408,-1.0427,-0.2513,-1.6162,0.2462,-0.7395,-0.1590,2.0634,0.3869,
4.567247,-0.1130,-0.9536,-0.1688,-1.6162,0.2462,-0.7395,-0.1590,2.0634,0.3869,
4.568534,-0.0844,-0.8840,-0.0574,-1.6162,0.2462,-0.7395,-0.1590,2.0634,0.3869,
4.569789,-0.0399,-0.8923,-0.0288,-1.6162,0.2462,-0.7395,-0.1590,2.0634,0.3869,
4.601064,-0.0399,-0.8923,-0.0288,-1.6162,0.2462,-0.7395,-0.1110,2.0134,0.4296,
4.603388,-0.0399,-0.8923,-0.0288,-1.5325,0.2421,-0.7124,-0.1110,2.0134,0.4296,
4.639944,-0.0399,-0.8923,-0.0288,-1.5325,0.2421,-0.7124,-0.0588,1.5926,0.3401,
4.642644,-0.0399,-0.8923,-0.0288,-0.5287,1.2651,1.0922,-0.0588,1.5926,0.3401,
4.644333,0.0444,-0.9731,-0.0303,-0.5287,1.2651,1.0922,-0.0588,1.5926,0.3401,
4.646792,0.1528,-1.0315,-0.0158,-0.5287,1.2651,1.0922,-0.0588,1.5926,0.3401,
4.648248,0.1308,-0.9978,-0.1158,-0.5287,1.2651,1.0922,-0.0588,1.5926,0.3401,
4.649392,0.0387,-0.8993,-0.2377,-0.5287,1.2651,1.0922,-0.0588,1.5926,0.3401,
4.679610,0.0387,-0.8993,-0.2377,-0.5287,1.2651,1.0922,-0.0769,1.1047,0.1686,
4.682138,0.0387,-0.8993,-0.2377,0.7762,0.6652,0.2812,-0.0769,1.1047,0.1686,
4.719272,0.0387,-0.8993,-0.2377,0.7762,0.6652,0.2812,0.0403,0.8980,0.1121,
4.721173,0.0387,-0.8993,-0.2377,-1.0864,1.8207,0.2522,0.0403,0.8980,0.1121,
4.722176,-0.0214,-0.8388,-0.1522,-1.0864,1.8207,0.2522,0.0403,0.8980,0.1121,
4.723075,-0.1103,-0.8632,-0.0796,-1.0864,1.8207,0.2522,0.0403,0.8980,0.1121,
4.723835,-0.1196,-0.8647,-0.1370,-1.0864,1.8207,0.2522,0.0403,0.8980,0.1121,
4.724877,-0.0434,-0.7955,-0.0972,-1.0864,1.8207,0.2522,0.0403,0.8980,0.1121,
4.759203,-0.0434,-0.7955,-0.0972,-1.0864,1.8207,0.2522,0.2522,1.0056,-0.0956,
4.761395,-0.0434,-0.7955,-0.0972,-1.1615,1.8029,0.1356,0.2522,1.0056,-0.0956,
4.798886,-0.0434,-0.7955,-0.0972,-1.1615,1.8029,0.1356,0.4280,1.2815,-0.4237,
4.801012,-0.0434,-0.7955,-0.0972,-0.7746,1.9225,-0.0222,0.4280,1.2815,-0.4237,
4.801891,-0.0084,-0.7809,-0.0466,-0.7746,1.9225,-0.0222,0.4280,1.2815,-0.4237,
4.802469,-0.0133,-0.9477,-0.2135,-0.7746,1.9225,-0.0222,0.4280,1.2815,-0.4237,
4.803363,0.0287,-1.1793,-0.3913,-0.7746,1.9225,-0.0222,0.4280,1.2815,-0.4237,
4.804373,0.1164,-1.2243,-0.3860,-0.7746,1.9225,-0.0222,0.4280,1.2815,-0.4237,
4.838121,0.1164,-1.2243,-0.3860,-0.7746,1.9225,-0.0222,0.0775,2.0059,-0.5920,
4.839926,0.1164,-1.2243,-0.3860,-1.0814,1.8772,-0.1094,0.0775,2.0059,-0.5920,
4.868535,0.1572,-1.0244,-0.1282,-1.0814,1.8772,-0.1094,0.0775,2.0059,-0.5920,
4.871304,0.0500,-0.9724,0.1195,-1.0814,1.8772,-0.1094,0.0775,2.0059,-0.5920,
4.872637,-0.0854,-1.1124,0.1860,-1.0814,1.8772,-0.1094,0.0775,2.0059,-0.5920,
4.877841,-0.0854,-1.1124,0.1860,-1.0814,1.8772,-0.1094,-0.0141,2.1199,-0.6208,
4.879678,-0.0854,-1.1124,0.1860,-0.2115,-1.0833,-1.9487,-0.0141,2.1199,-0.6208,
4.916672,-0.0854,-1.1124,0.1860,-0.2115,-1.0833,-1.9487,0.5910,2.0229,-0.6336,
4.918577,-0.0854,-1.1124,0.1860,-2.0243,-0.5478,2.0535,0.5910,2.0229,-0.6336,
4.956083,-0.1289,-1.1776,0.1307,-2.0243,-0.5478,2.0535,0.5910,2.0229,-0.6336,
4.958718,-0.2444,-1.1407,-0.0676,-2.0243,-0.5478,2.0535,0.5910,2.0229,-0.6336,
4.959727,-0.2149,-1.1148,-0.1680,-2.0243,-0.5478,2.0535,0.5910,2.0229,-0.6336,
4.960975,-0.1543,-1.1527,-0.0754,-2.0243,-0.5478,2.0535,0.5910,2.0229,-0.6336,
4.962135,-0.1543,-1.1527,-0.0754,-2.0243,-0.5478,2.0535,0.5612,3.6240,-0.4589,
4.963446,-0.1543,-1.1527,-0.0754,-3.6698,-1.0269,-0.8316,0.5612,3.6240,-0.4589,
4.998092,-0.1543,-1.1527,-0.0754,-3.6698,-1.0269,-0.8316,0.1138,3.4983,0.0035,
5.001170,-0.1543,-1.1527,-0.0754,-2.3283,-0.5845,0.4715,0.1138,3.4983,0.0035,
5.038140,-0.1543,-1.1527,-0.0754,-2.3283,-0.5845,0.4715,0.2405,2.5492,0.3678,
5.041040,-0.1543,-1.1527,-0.0754,-2.1220,-0.5549,0.2134,0.2405,2.5492,0.3678,
5.042268,-0.1848,-1.1771,0.0338,-2.1220,-0.5549,0.2134,0.2405,2.5492,0.3678,
5.043414,-0.0766,-1.0879,0.0680,-2.1220,-0.5549,0.2134,0.2405,2.5492,0.3678,
5.044631,0.0473,-1.0110,0.0741,-2.1220,-0.5549,0.2134,0.2405,2.5492,0.3678,
5.045947,0.2100,-1.0867,0.0633,-2.1220,-0.5549,0.2134,0.2405,2.5492,0.3678,
5.047902,0.3495,-1.1434,-0.0430,-2.1220,-0.5549,0.2134,0.2405,2.5492,0.3678,
5.076082,0.3495,-1.1434,-0.0430,-2.1220,-0.5549,0.2134,0.3609,2.7441,0.3262,
5.078453,0.3495,-1.1434,-0.0430,-1.9036,-0.5359,-0.0753,0.3609,2.7441,0.3262,
5.116210,0.3495,-1.1434,-0.0430,-1.9036,-0.5359,-0.0753,0.4035,1.9601,0.1824,
5.118752,0.3495,-1.1434,-0.0430,2.0323,-0.6661,-1.2719,0.4035,1.9601,0.1824,
5.120139,0.4010,-1.0879,-0.1407,2.0323,-0.6661,-1.2719,0.4035,1.9601,0.1824,
5.121352,0.4457,-0.9643,-0.1539,2.0323,-0.6661,-1.2719,0.4035,1.9601,0.1824,
5.122359,0.4631,-0.7980,-0.2000,2.0323,-0.6661,-1.2719,0.4035,1.9601,0.1824,
5.123471,0.2906,-0.6985,-0.2230,2.0323,-0.6661,-1.2719,0.4035,1.9601,0.1824,
5.155225,0.2906,-0.6985,-0.2230,2.0323,-0.6661,-1.2719,0.9330,1.0450,0.0290,
5.157913,0.2906,-0.6985,-0.2230,2.8200,2.0602,-3.1303,0.9330,1.0450,0.0290,
5.196173,0.2906,-0.6985,-0.2230,2.8200,2.0602,-3.1303,0.5654,1.2996,0.6160,
5.198666,0.2906,-0.6985,-0.2230,0.3158,0.9656,-6.7900,0.5654,1.2996,0.6160,
5.200002,0.0839,-0.7447,-0.3452,0.3158,0.9656,-6.7900,0.5654,1.2996,0.6160,
5.201421,0.0348,-0.9401,-0.6193,0.3158,0.9656,-6.7900,0.5654,1.2996,0.6160,
5.202671,0.2183,-1.1036,-0.6838,0.3158,0.9656,-6.7900,0.5654,1.2996,0.6160,
5.203844,0.2308,-1.1307,-0.4509,0.3158,0.9656,-6.7900,0.5654,1.2996,0.6160,
5.234632,0.2308,-1.1307,-0.4509,0.3158,0.9656,-6.7900,-1.4575,-0.0298,0.8716,
5.236940,0.2308,-1.1307,-0.4509,0.6553,1.0335,-6.1024,-1.4575,-0.0298,0.8716,
5.274012,0.2308,-1.1307,-0.4509,0.6553,1.0335,-6.1024,-2.4013,-2.3159,0.5830,
5.276367,0.2308,-1.1307,-0.4509,1.7091,-0.1192,-1.3190,-2.4013,-2.3159,0.5830,
5.277965,0.1501,-1.0364,-0.1346,1.7091,-0.1192,-1.3190,-2.4013,-2.3159,0.5830,
5.279258,0.2205,-0.9836,0.0897,1.7091,-0.1192,-1.3190,-2.4013,-2.3159,0.5830,
5.280933,0.1624,-1.1725,0.2216,1.7091,-0.1192,-1.3190,-2.4013,-2.3159,0.5830,
5.282186,-0.1450,-1.5507,-0.0459,1.7091,-0.1192,-1.3190,-2.4013,-2.3159,0.5830,
5.314201,-0.1450,-1.5507,-0.0459,1.7091,-0.1192,-1.3190,-2.3928,-2.3074,0.6874,
5.316751,-0.1450,-1.5507,-0.0459,2.0234,-0.1885,-0.3424,-2.3928,-2.3074,0.6874,
5.355076,-0.1450,-1.5507,-0.0459,2.0234,-0.1885,-0.3424,-2.9340,-0.0149,0.6192,
5.358702,-0.1450,-1.5507,-0.0459,0.4635,-4.6790,1.5948,-2.9340,-0.0149,0.6192,
5.360937,0.0360,-1.7588,-0.4270,0.4635,-4.6790,1.5948,-2.9340,-0.0149,0.6192,
5.363284,0.5393,-1.5734,-0.1465,0.4635,-4.6790,1.5948,-2.9340,-0.0149,0.6192,
5.364787,0.6898,-1.5189,0.1007,0.4635,-4.6790,1.5948,-2.9340,-0.0149,0.6192,
5.366085,0.7030,-1.5062,0.2531,0.4635,-4.6790,1.5948,-2.9340,-0.0149,0.6192,
5.391723,0.7030,-1.5062,0.2531,0.4635,-4.6790,1.5948,-2.1137,-1.5585,-0.3555,
5.393426,0.7030,-1.5062,0.2531,6.5320,-5.2033,3.8331,-2.1137,-1.5585,-0.3555,
5.432630,0.7030,-1.5062,0.2531,6.5320,-5.2033,3.8331,-0.5925,-3.7913,-0.8573,
5.434902,0.7030,-1.5062,0.2531,5.3304,-0.9135,5.6190,-0.5925,-3.7913,-0.8573,
5.435749,0.6063,-1.2863,0.3570,5.3304,-0.9135,5.6190,-0.5925,-3.7913,-0.8573,
5.436504,0.5019,-1.0581,0.1996,5.3304,-0.9135,5.6190,-0.5925,-3.7913,-0.8573,
5.437508,0.4330,-0.9252,0.1701,5.3304,-0.9135,5.6190,-0.5925,-3.7913,-0.8573,
5.438304,0.3878,-0.8121,0.3521,5.3304,-0.9135,5.6190,-0.5925,-3.7913,-0.8573,
5.472894,0.3878,-0.8121,0.3521,5.3304,-0.9135,5.6190,-0.0620,-3.7817,-0.9755,
5.475518,0.3878,-0.8121,0.3521,5.3492,-0.8926,5.4967,-0.0620,-3.7817,-0.9755,
5.512500,0.3878,-0.8121,0.3521,5.3492,-0.8926,5.4967,0.4248,-3.9191,-1.0053,
5.515402,0.3878,-0.8121,0.3521,4.1766,3.5124,8.1270,0.4248,-3.9191,-1.0053,
5.516781,0.3988,-0.6411,0.5417,4.1766,3.5124,8.1270,0.4248,-3.9191,-1.0053,
5.518115,0.3930,-0.4696,0.7479,4.1766,3.5124,8.1270,0.4248,-3.9191,-1.0053,
5.519389,0.2850,-0.3985,0.9616,4.1766,3.5124,8.1270,0.4248,-3.9191,-1.0053,
5.520740,0.1438,-0.4178,0.9098,4.1766,3.5124,8.1270,0.4248,-3.9191,-1.0053,
5.551867,0.1438,-0.4178,0.9098,4.1766,3.5124,8.1270,1.1268,-5.1165,-0.8743,
5.554553,0.1438,-0.4178,0.9098,4.2738,3.5774,7.4779,1.1268,-5.1165,-0.8743,
5.591413,0.1438,-0.4178,0.9098,4.2738,3.5774,7.4779,0.7753,-3.9915,-0.7955,
5.593458,0.1438,-0.4178,0.9098,2.0081,5.5277,9.2425,0.7753,-3.9915,-0.7955,
5.595598,0.0700,-0.5031,0.4720,2.0081,5.5277,9.2425,0.7753,-3.9915,-0.7955,
5.597529,-0.0084,-0.6448,0.1581,2.0081,5.5277,9.2425,0.7753,-3.9915,-0.7955,
5.598698,-0.1352,-0.9765,-0.1373,2.0081,5.5277,9.2425,0.7753,-3.9915,-0.7955,
5.599688,-0.7313,-1.6122,-0.6613,2.0081,5.5277,9.2425,0.7753,-3.9915,-0.7955,
5.631650,-0.7313,-1.6122,-0.6613,2.0081,5.5277,9.2425,0.1425,-5.4882,-0.4770,
5.634317,-0.7313,-1.6122,-0.6613,-2.3020,-0.6965,-0.6447,0.1425,-5.4882,-0.4770,
5.670664,-1.1838,-1.6127,-0.6063,-2.3020,-0.6965,-0.6447,0.1425,-5.4882,-0.4770,
5.673365,-0.4731,-1.1236,-0.1097,-2.3020,-0.6965,-0.6447,0.1425,-5.4882,-0.4770,
5.674712,0.4008,-1.3283,0.2939,-2.3020,-0.6965,-0.6447,0.1425,-5.4882,-0.4770,
5.676051,0.4008,-1.3283,0.2939,-2.3020,-0.6965,-0.6447,-1.4905,-3.1404,0.9803,
5.677334,0.4008,-1.3283,0.2939,-2.9166,-3.4860,0.5429,-1.4905,-3.1404,0.9803,
5.710169,0.4008,-1.3283,0.2939,-2.9166,-3.4860,0.5429,-0.8514,-2.1646,0.0035,
5.712601,0.4008,-1.3283,0.2939,6.7204,-2.0808,2.5013,-0.8514,-2.1646,0.0035,
5.752630,0.4008,-1.3283,0.2939,6.7204,-2.0808,2.5013,-0.0386,-2.1806,-0.7870,
5.755595,0.4008,-1.3283,0.2939,6.4852,-2.0126,2.3712,-0.0386,-2.1806,-0.7870,
5.757109,0.5848,-1.5072,-0.4473,6.4852,-2.0126,2.3712,-0.0386,-2.1806,-0.7870,
5.758497,0.5361,-1.1642,-0.1724,6.4852,-2.0126,2.3712,-0.0386,-2.1806,-0.7870,
5.759946,0.5540,-0.9531,0.7437,6.4852,-2.0126,2.3712,-0.0386,-2.1806,-0.7870,
5.761438,0.0695,-1.1116,0.5148,6.4852,-2.0126,2.3712,-0.0386,-2.1806,-0.7870,
5.763394,-0.4037,-1.2941,0.1747,6.4852,-2.0126,2.3712,-0.0386,-2.1806,-0.7870,
5.788599,-0.4037,-1.2941,0.1747,6.4852,-2.0126,2.3712,1.2951,-2.3617,-0.6517,
5.790687,-0.4037,-1.2941,0.1747,6.2834,-1.8707,1.7436,1.2951,-2.3617,-0.6517,
5.829529,-0.4037,-1.2941,0.1747,6.2834,-1.8707,1.7436,0.9979,-2.5982,-0.0775,
5.832179,-0.4037,-1.2941,0.1747,-1.3451,-1.8375,2.9054,0.9979,-2.5982,-0.0775,
5.833578,-0.3580,-1.2321,-0.0474,-1.3451,-1.8375,2.9054,0.9979,-2.5982,-0.0775,
5.835020,-0.0077,-1.0313,-0.1744,-1.3451,-1.8375,2.9054,0.9979,-2.5982,-0.0775,
5.836017,0.2308,-0.9340,-0.1551,-1.3451,-1.8375,2.9054,0.9979,-2.5982,-0.0775,
5.837253,0.2058,-0.8634,-0.0097,-1.3451,-1.8375,2.9054,0.9979,-2.5982,-0.0775,
5.869047,0.2058,-0.8634,-0.0097,-1.3451,-1.8375,2.9054,0.3396,-2.4916,-0.0999,
5.871660,0.2058,-0.8634,-0.0097,2.3048,0.8053,-0.5189,0.3396,-2.4916,-0.0999,
5.908593,0.2058,-0.8634,-0.0097,2.3048,0.8053,-0.5189,0.2640,-2.5300,0.1728,
5.911629,0.2058,-0.8634,-0.0097,1.0983,2.5012,2.1613,0.2640,-2.5300,0.1728,
5.913078,0.0519,-0.7821,0.1498,1.0983,2.5012,2.1613,0.2640,-2.5300,0.1728,
5.914421,-0.0065,-0.7388,0.2238,1.0983,2.5012,2.1613,0.2640,-2.5300,0.1728,
5.915685,-0.0162,-0.7752,0.1803,1.0983,2.5012,2.1613,0.2640,-2.5300,0.1728,
5.916673,-0.0316,-0.8158,0.0594,1.0983,2.5012,2.1613,0.2640,-2.5300,0.1728,
5.948125,-0.0316,-0.8158,0.0594,1.0983,2.5012,2.1613,0.0648,-2.0442,0.4562,
5.950693,-0.0316,-0.8158,0.0594,1.2808,2.4406,2.0129,0.0648,-2.0442,0.4562,
5.988462,-0.0316,-0.8158,0.0594,1.2808,2.4406,2.0129,-0.8801,-0.1129,0.0663,
5.990939,-0.0316,-0.8158,0.0594,-0.4507,0.9317,0.4268,-0.8801,-0.1129,0.0663,
5.992893,-0.1240,-0.8637,-0.0149,-0.4507,0.9317,0.4268,-0.8801,-0.1129,0.0663,
5.994344,-0.3553,-1.0689,-0.0784,-0.4507,0.9317,0.4268,-0.8801,-0.1129,0.0663,
5.995500,-0.6746,-1.3320,-0.2096,-0.4507,0.9317,0.4268,-0.8801,-0.1129,0.0663,
5.996638,-0.8383,-1.4801,-0.4077,-0.4507,0.9317,0.4268,-0.8801,-0.1129,0.0663,
6.027503,-0.8383,-1.4801,-0.4077,-0.4507,0.9317,0.4268,-2.2447,1.4435,-0.1638,
6.029809,-0.8383,-1.4801,-0.4077,-0.5649,0.8354,1.3485,-2.2447,1.4435,-0.1638,
6.067777,-0.8264,-1.4832,-0.3073,-0.5649,0.8354,1.3485,-2.2447,1.4435,-0.1638,
6.070479,-0.8166,-1.2619,0.0149,-0.5649,0.8354,1.3485,-2.2447,1.4435,-0.1638,
6.071779,-0.7250,-0.9785,0.0582,-0.5649,0.8354,1.3485,-2.2447,1.4435,-0.1638,
6.073079,-0.7250,-0.9785,0.0582,-0.5649,0.8354,1.3485,-2.5441,1.9015,0.1025,
6.074448,-0.7250,-0.9785,0.0582,-6.5383,-4.3492,-0.4935,-2.5441,1.9015,0.1025,
6.106261,-0.7250,-0.9785,0.0582,-6.5383,-4.3492,-0.4935,-1.5406,2.0219,0.3784,
6.108659,-0.7250,-0.9785,0.0582,-5.5396,-0.7676,2.7119,-1.5406,2.0219,0.3784,
6.146708,-0.7250,-0.9785,0.0582,-5.5396,-0.7676,2.7119,-0.5137,3.6294,0.0493,
6.149735,-0.7250,-0.9785,0.0582,-5.9035,-0.8229,2.9822,-0.5137,3.6294,0.0493,
6.151339,-0.4936,-0.9042,-0.2076,-5.9035,-0.8229,2.9822,-0.5137,3.6294,0.0493,
6.152681,-0.2718,-0.9655,-0.1304,-5.9035,-0.8229,2.9822,-0.5137,3.6294,0.0493,
6.153894,-0.2278,-0.9599,0.0469,-5.9035,-0.8229,2.9822,-0.5137,3.6294,0.0493,
6.155038,-0.2344,-0.8180,0.1625,-5.9035,-0.8229,2.9822,-0.5137,3.6294,0.0493,
6.156295,-0.1445,-0.6128,0.1823,-5.9035,-0.8229,2.9822,-0.5137,3.6294,0.0493,
6.185010,-0.1445,-0.6128,0.1823,-5.9035,-0.8229,2.9822,0.8211,3.8946,-0.5068,
6.186777,-0.1445,-0.6128,0.1823,-2.3209,0.5922,3.3756,0.8211,3.8946,-0.5068,
6.226083,-0.1445,-0.6128,0.1823,-2.3209,0.5922,3.3756,1.7756,3.0286,-0.4227,
6.228996,-0.1445,-0.6128,0.1823,-1.4831,4.3254,3.0702,1.7756,3.0286,-0.4227,
6.230407,-0.0798,-0.5224,0.0665,-1.4831,4.3254,3.0702,1.7756,3.0286,-0.4227,
6.231720,-0.1079,-0.5019,-0.0327,-1.4831,4.3254,3.0702,1.7756,3.0286,-0.4227,
6.233048,-0.1337,-0.4811,-0.1216,-1.4831,4.3254,3.0702,1.7756,3.0286,-0.4227,
6.234644,0.0109,-0.5202,-0.2123,-1.4831,4.3254,3.0702,1.7756,3.0286,-0.4227,
6.265533,0.0109,-0.5202,-0.2123,-1.4831,4.3254,3.0702,2.0941,2.6483,-0.0722,
6.268976,0.0109,-0.5202,-0.2123,-1.6874,4.4099,2.1675,2.0941,2.6483,-0.0722,
6.304466,0.0109,-0.5202,-0.2123,-1.6874,4.4099,2.1675,1.6893,3.1777,-0.6197,
6.307239,0.0109,-0.5202,-0.2123,-0.4231,4.5026,-1.2394,1.6893,3.1777,-0.6197,
6.308566,0.2904,-0.6003,-0.2685,-0.4231,4.5026,-1.2394,1.6893,3.1777,-0.6197,
6.309715,0.5034,-0.7427,-0.3083,-0.4231,4.5026,-1.2394,1.6893,3.1777,-0.6197,
6.311087,0.3754,-0.9973,-0.3488,-0.4231,4.5026,-1.2394,1.6893,3.1777,-0.6197,
6.312199,0.0568,-1.3535,-0.5511,-0.4231,4.5026,-1.2394,1.6893,3.1777,-0.6197,
6.344336,0.0568,-1.3535,-0.5511,-0.4231,4.5026,-1.2394,0.9138,4.1013,-1.2205,
6.347287,0.0568,-1.3535,-0.5511,1.5209,-0.4074,-3.7087,0.9138,4.1013,-1.2205,
6.384184,-0.0710,-1.6406,-0.8264,1.5209,-0.4074,-3.7087,0.9138,4.1013,-1.2205,
6.386688,-0.3443,-1.5485,-0.1580,1.5209,-0.4074,-3.7087,0.9138,4.1013,-1.2205,
6.388302,-0.9429,-1.4703,-0.1588,1.5209,-0.4074,-3.7087,0.9138,4.1013,-1.2205,
6.389592,-0.9429,-1.4703,-0.1588,1.5209,-0.4074,-3.7087,-0.4966,5.3679,-0.9116,
6.390934,-0.9429,-1.4703,-0.1588,-6.2399,-5.4929,-3.6159,-0.4966,5.3679,-0.9116,
6.423710,-0.9429,-1.4703,-0.1588,-6.2399,-5.4929,-3.6159,-1.1411,2.1934,0.8844,
6.426058,-0.9429,-1.4703,-0.1588,-6.9044,-0.4206,0.5086,-1.1411,2.1934,0.8844,
6.463181,-0.9429,-1.4703,-0.1588,-6.9044,-0.4206,0.5086,-0.9036,3.2128,2.4514,
6.465729,-0.9429,-1.4703,-0.1588,-5.9160,-0.3441,0.7281,-0.9036,3.2128,2.4514,
6.467253,-1.3401,-1.2844,-0.9525,-5.9160,-0.3441,0.7281,-0.9036,3.2128,2.4514,
6.468570,-0.6084,-0.8422,0.2097,-5.9160,-0.3441,0.7281,-0.9036,3.2128,2.4514,
6.469738,0.2515,-0.9966,0.7762,-5.9160,-0.3441,0.7281,-0.9036,3.2128,2.4514,
6.472075,0.7142,-1.4590,0.5988,-5.9160,-0.3441,0.7281,-0.9036,3.2128,2.4514,
6.473340,1.0541,-1.8438,0.4686,-5.9160,-0.3441,0.7281,-0.9036,3.2128,2.4514,
6.502671,1.0541,-1.8438,0.4686,-5.9160,-0.3441,0.7281,1.2397,1.0387,1.3542,
6.505107,1.0541,-1.8438,0.4686,-5.3176,-0.3140,0.2316,1.2397,1.0387,1.3542,
6.543556,1.0541,-1.8438,0.4686,-5.3176,-0.3140,0.2316,2.9442,0.1651,-0.5036,
6.546403,1.0541,-1.8438,0.4686,9.8066,-6.2958,3.4486,2.9442,0.1651,-0.5036,
6.548042,1.2759,-1.6687,0.3208,9.8066,-6.2958,3.4486,2.9442,0.1651,-0.5036,
6.549337,0.9373,-1.0489,0.0213,9.8066,-6.2958,3.4486,2.9442,0.1651,-0.5036,
6.551006,0.5388,-0.6221,-0.4649,9.8066,-6.2958,3.4486,2.9442,0.1651,-0.5036,
6.552280,-0.0070,-0.6416,-1.0021,9.8066,-6.2958,3.4486,2.9442,0.1651,-0.5036,
6.583911,-0.0070,-0.6416,-1.0021,9.8066,-6.2958,3.4486,1.4134,1.6725,-1.1300,
6.586419,-0.0070,-0.6416,-1.0021,4.2438,2.2612,-6.2788,1.4134,1.6725,-1.1300,
6.621626,-0.0070,-0.6416,-1.0021,4.2438,2.2612,-6.2788,0.1308,1.3699,0.0759,
6.624200,-0.0070,-0.6416,-1.0021,-3.6421,1.4758,-7.6724,0.1308,1.3699,0.0759,
6.625521,-0.4272,-0.8099,-0.8692,-3.6421,1.4758,-7.6724,0.1308,1.3699,0.0759,
6.626743,-0.4137,-0.9113,-0.5069,-3.6421,1.4758,-7.6724,0.1308,1.3699,0.0759,
6.628395,-0.1592,-0.8219,-0.5115,-3.6421,1.4758,-7.6724,0.1308,1.3699,0.0759,
6.629644,0.0531,-0.8612,-0.6036,-3.6421,1.4758,-7.6724,0.1308,1.3699,0.0759,
6.661765,0.0531,-0.8612,-0.6036,-3.6421,1.4758,-7.6724,-0.1408,0.6221,1.0709,
6.664274,0.0531,-0.8612,-0.6036,-3.1367,1.4653,-7.4962,-0.1408,0.6221,1.0709,
6.701216,0.0531,-0.8612,-0.6036,-3.1367,1.4653,-7.4962,-0.7502,-0.4836,0.8812,
6.703956,0.0531,-0.8612,-0.6036,3.7459,1.1131,-5.6001,-0.7502,-0.4836,0.8812,
6.705394,0.3417,-0.8930,-0.4378,3.7459,1.1131,-5.6001,-0.7502,-0.4836,0.8812,
6.706657,0.6336,-0.8986,-0.3818,3.7459,1.1131,-5.6001,-0.7502,-0.4836,0.8812,
6.708305,0.7269,-1.2018,-0.6000,3.7459,1.1131,-5.6001,-0.7502,-0.4836,0.8812,
6.709579,0.6766,-1.5238,-0.9022,3.7459,1.1131,-5.6001,-0.7502,-0.4836,0.8812,
6.740477,0.6766,-1.5238,-0.9022,3.7459,1.1131,-5.6001,-2.8487,-2.6834,0.6543,
6.743170,0.6766,-1.5238,-0.9022,3.8898,1.1291,-4.4716,-2.8487,-2.6834,0.6543,
6.781736,0.6766,-1.5238,-0.9022,3.8898,1.1291,-4.4716,-5.0240,-3.4887,0.2900,
6.784437,0.6766,-1.5238,-0.9022,7.2482,-4.0372,-5.4059,-5.0240,-3.4887,0.2900,
6.785933,0.6109,-1.4603,-0.7991,7.2482,-4.0372,-5.4059,-5.0240,-3.4887,0.2900,
6.787612,0.3600,-1.5064,-0.3085,7.2482,-4.0372,-5.4059,-5.0240,-3.4887,0.2900,
6.788782,0.2515,-1.7329,0.1867,7.2482,-4.0372,-5.4059,-5.0240,-3.4887,0.2900,
6.789913,-0.2034,-1.8377,0.7122,7.2482,-4.0372,-5.4059,-5.0240,-3.4887,0.2900,
6.820188,-0.2034,-1.8377,0.7122,7.2482,-4.0372,-5.4059,-3.5369,-1.3689,-0.1009,
6.823390,-0.2034,-1.8377,0.7122,2.0715,-7.2096,5.2378,-3.5369,-1.3689,-0.1009,
6.860527,-0.2034,-1.8377,0.7122,2.0715,-7.2096,5.2378,-1.4543,-2.8368,0.1675,
6.863243,-0.2034,-1.8377,0.7122,3.8482,-4.6775,6.6276,-1.4543,-2.8368,0.1675,
6.864798,-0.4208,-1.7476,0.3301,3.8482,-4.6775,6.6276,-1.4543,-2.8368,0.1675,
6.866144,0.3624,-1.3931,0.1742,3.8482,-4.6775,6.6276,-1.4543,-2.8368,0.1675,
6.867573,0.8872,-1.1209,0.4154,3.8482,-4.6775,6.6276,-1.4543,-2.8368,0.1675,
6.869122,1.0072,-0.8947,0.2297,3.8482,-4.6775,6.6276,-1.4543,-2.8368,0.1675,
6.899023,1.0072,-0.8947,0.2297,3.8482,-4.6775,6.6276,-0.0961,-3.2022,-0.8061,
6.901741,1.0072,-0.8947,0.2297,3.9438,-4.5738,6.3956,-0.0961,-3.2022,-0.8061,
6.939329,1.0072,-0.8947,0.2297,3.9438,-4.5738,6.3956,0.5804,-3.5026,-1.5071,
6.941989,1.0072,-0.8947,0.2297,7.5240,1.2825,4.6357,0.5804,-3.5026,-1.5071,
6.943399,0.6810,-0.8280,0.0311,7.5240,1.2825,4.6357,0.5804,-3.5026,-1.5071,
6.944656,0.3111,-0.7838,0.2617,7.5240,1.2825,4.6357,0.5804,-3.5026,-1.5071,
6.945803,0.0211,-0.7313,0.5656,7.5240,1.2825,4.6357,0.5804,-3.5026,-1.5071,
6.946919,-0.2044,-0.7225,0.6020,7.5240,1.2825,4.6357,0.5804,-3.5026,-1.5071,
6.978703,-0.2044,-0.7225,0.6020,7.5240,1.2825,4.6357,0.9756,-4.3814,-1.3814,
6.981576,-0.2044,-0.7225,0.6020,7.3402,1.4138,4.0318,0.9756,-4.3814,-1.3814,
7.018397,-0.2044,-0.7225,0.6020,7.3402,1.4138,4.0318,1.1353,-3.6677,-0.7273,
7.021159,-0.2044,-0.7225,0.6020,-0.8363,2.6511,7.5576,1.1353,-3.6677,-0.7273,
7.022526,-0.3314,-0.6956,0.6426,-0.8363,2.6511,7.5576,1.1353,-3.6677,-0.7273,
7.023975,-0.3954,-0.7471,0.5761,-0.8363,2.6511,7.5576,1.1353,-3.6677,-0.7273,
7.025269,-0.3900,-0.8688,0.3496,-0.8363,2.6511,7.5576,1.1353,-3.6677,-0.7273,
7.026552,-0.3873,-0.8930,0.0880,-0.8363,2.6511,7.5576,1.1353,-3.6677,-0.7273,
7.058346,-0.3873,-0.8930,0.0880,-0.8363,2.6511,7.5576,1.1524,-3.1106,-0.5004,
7.061062,-0.3873,-0.8930,0.0880,-2.9589,1.5295,4.3357,1.1524,-3.1106,-0.5004,
7.097981,-0.3873,-0.8930,0.0880,-2.9589,1.5295,4.3357,0.1947,-1.5563,-0.3736,
7.100629,-0.3873,-0.8930,0.0880,-3.7692,1.3666,-1.6009,0.1947,-1.5563,-0.3736,
7.102057,-0.4152,-0.8326,-0.1392,-3.7692,1.3666,-1.6009,0.1947,-1.5563,-0.3736,
7.103294,-0.4719,-0.8239,-0.3398,-3.7692,1.3666,-1.6009,0.1947,-1.5563,-0.3736,
7.104503,-0.5268,-0.9013,-0.2941,-3.7692,1.3666,-1.6009,0.1947,-1.5563,-0.3736,
7.105788,-0.4342,-1.0320,0.0157,-3.7692,1.3666,-1.6009,0.1947,-1.5563,-0.3736,
7.136773,-0.4342,-1.0320,0.0157,-3.7692,1.3666,-1.6009,-0.9174,-0.1427,-0.0146,
7.139408,-0.4342,-1.0320,0.0157,-3.7076,1.3052,-1.2319,-0.9174,-0.1427,-0.0146,
7.176335,-0.4342,-1.0320,0.0157,-3.7076,1.3052,-1.2319,-0.2751,-0.2120,0.0525,
7.178994,-0.4342,-1.0320,0.0157,-2.9517,-2.9400,3.4620,-0.2751,-0.2120,0.0525,
7.180966,-0.3561,-1.2966,0.2700,-2.9517,-2.9400,3.4620,-0.2751,-0.2120,0.0525,
7.182483,-0.4171,-1.5389,0.3663,-2.9517,-2.9400,3.4620,-0.2751,-0.2120,0.0525,
7.183807,-0.3182,-1.2704,0.0887,-2.9517,-2.9400,3.4620,-0.2751,-0.2120,0.0525,
7.185100,-0.2019,-1.0085,-0.2264,-2.9517,-2.9400,3.4620,-0.2751,-0.2120,0.0525,
7.216209,-0.2019,-1.0085,-0.2264,-2.9517,-2.9400,3.4620,0.2491,-0.1672,0.4349,
7.219089,-0.2019,-1.0085,-0.2264,-2.7299,-2.8969,3.3033,0.2491,-0.1672,0.4349,
7.256471,-0.2019,-1.0085,-0.2264,-2.7299,-2.8969,3.3033,0.3790,0.4581,0.5276,
7.259209,-0.2019,-1.0085,-0.2264,-0.7343,-1.0031,-0.0752,0.3790,0.4581,0.5276,
7.260677,-0.1364,-1.0107,-0.2076,-0.7343,-1.0031,-0.0752,0.3790,0.4581,0.5276,
7.261841,-0.0228,-1.0875,-0.0442,-0.7343,-1.0031,-0.0752,0.3790,0.4581,0.5276,
7.263085,0.0292,-1.0850,0.0149,-0.7343,-1.0031,-0.0752,0.3790,0.4581,0.5276,
7.264300,-0.0434,-1.0037,0.0509,-0.7343,-1.0031,-0.0752,0.3790,0.4581,0.5276,
7.295508,-0.0434,-1.0037,0.0509,-0.7343,-1.0031,-0.0752,0.9138,-0.1086,0.2037,
7.298229,-0.0434,-1.0037,0.0509,1.3487,-0.6018,0.7510,0.9138,-0.1086,0.2037,
7.336390,-0.0434,-1.0037,0.0509,1.3487,-0.6018,0.7510,1.1705,-0.5667,0.3412,
7.339097,-0.0434,-1.0037,0.0509,-0.6519,1.2629,0.0715,1.1705,-0.5667,0.3412,
7.340507,-0.1938,-0.8981,0.0907,-0.6519,1.2629,0.0715,1.1705,-0.5667,0.3412,
7.341609,-0.2864,-0.8248,-0.0046,-0.6519,1.2629,0.0715,1.1705,-0.5667,0.3412,
7.342733,-0.2158,-0.8756,-0.1226,-0.6519,1.2629,0.0715,1.1705,-0.5667,0.3412,
7.344210,-0.1296,-0.9533,-0.0908,-0.6519,1.2629,0.0715,1.1705,-0.5667,0.3412,
7.374674,-0.1296,-0.9533,-0.0908,-0.6519,1.2629,0.0715,0.9404,-0.6839,0.4072,
7.377399,-0.1296,-0.9533,-0.0908,-0.4872,1.2144,-0.3321,0.9404,-0.6839,0.4072,
7.414607,-0.1296,-0.9533,-0.0908,-0.4872,1.2144,-0.3321,0.6325,-0.0074,0.1590,
7.417491,-0.1296,-0.9533,-0.0908,0.9320,0.0547,-1.3960,0.6325,-0.0074,0.1590,
7.419025,-0.1142,-1.0352,-0.1031,0.9320,0.0547,-1.3960,0.6325,-0.0074,0.1590,
7.421303,-0.0319,-0.9587,-0.1011,0.9320,0.0547,-1.3960,0.6325,-0.0074,0.1590,
7.422715,0.0597,-0.8659,0.0296,0.9320,0.0547,-1.3960,0.6325,-0.0074,0.1590,
7.423961,0.0861,-0.9108,0.1566,0.9320,0.0547,-1.3960,0.6325,-0.0074,0.1590,
7.454325,0.0861,-0.9108,0.1566,0.9320,0.0547,-1.3960,0.7188,0.7404,-0.3257,
7.456741,0.0861,-0.9108,0.1566,0.8098,0.0610,-1.5927,0.7188,0.7404,-0.3257,
7.493877,0.0861,-0.9108,0.1566,0.8098,0.0610,-1.5927,0.8040,-0.0042,-0.4035,
7.497625,0.0861,-0.9108,0.1566,1.9199,0.6389,-0.0386,0.8040,-0.0042,-0.4035,
7.498796,-0.0241,-0.9907,0.0887,1.9199,0.6389,-0.0386,0.8040,-0.0042,-0.4035,
7.499914,-0.2107,-1.0989,-0.0693,1.9199,0.6389,-0.0386,0.8040,-0.0042,-0.4035,
7.501242,-0.2378,-1.1573,-0.1070,1.9199,0.6389,-0.0386,0.8040,-0.0042,-0.4035,
7.502880,-0.1611,-1.1182,-0.0430,1.9199,0.6389,-0.0386,0.8040,-0.0042,-0.4035,
7.532804,-0.1611,-1.1182,-0.0430,1.9199,0.6389,-0.0386,0.5079,0.0160,-0.1659,
7.535373,-0.1611,-1.1182,-0.0430,-0.5236,-1.3327,-1.8162,0.5079,0.0160,-0.1659,
7.573297,-0.1611,-1.1182,-0.0430,-0.5236,-1.3327,-1.8162,0.2885,0.6424,-0.0125,
7.575864,-0.1611,-1.1182,-0.0430,-0.7897,-0.9005,-1.3133,0.2885,0.6424,-0.0125,
7.577714,-0.1472,-1.1063,-0.0092,-0.7897,-0.9005,-1.3133,0.2885,0.6424,-0.0125,
7.579028,-0.2412,-1.1063,-0.0359,-0.7897,-0.9005,-1.3133,0.2885,0.6424,-0.0125,
7.580016,-0.3143,-1.0305,-0.0046,-0.7897,-0.9005,-1.3133,0.2885,0.6424,-0.0125,
7.581365,-0.2241,-0.8998,0.0719,-0.7897,-0.9005,-1.3133,0.2885,0.6424,-0.0125,
7.612425,-0.2241,-0.8998,0.0719,-0.7897,-0.9005,-1.3133,0.0349,0.6306,0.2165,
7.614957,-0.2241,-0.8998,0.0719,-0.6666,-0.9002,-1.2664,0.0349,0.6306,0.2165,
7.652324,-0.2241,-0.8998,0.0719,-0.6666,-0.9002,-1.2664,-0.0577,0.6157,0.3007,
7.654831,-0.2241,-0.8998,0.0719,1.3044,1.5630,-0.3376,-0.0577,0.6157,0.3007,
7.656225,-0.0162,-0.8019,0.0858,1.3044,1.5630,-0.3376,-0.0577,0.6157,0.3007,
7.657608,0.1045,-0.7738,0.0557,1.3044,1.5630,-0.3376,-0.0577,0.6157,0.3007,
7.658929,0.1335,-0.8993,-0.0022,1.3044,1.5630,-0.3376,-0.0577,0.6157,0.3007,
7.660072,0.1218,-1.0877,-0.1568,1.3044,1.5630,-0.3376,-0.0577,0.6157,0.3007,
7.691528,0.1218,-1.0877,-0.1568,1.3044,1.5630,-0.3376,0.1787,-0.1683,0.3731,
7.694410,0.1218,-1.0877,-0.1568,1.4155,1.5030,-0.4113,0.1787,-0.1683,0.3731,
7.731214,0.1218,-1.0877,-0.1568,1.4155,1.5030,-0.4113,-0.1291,-1.0184,0.7598,
7.733558,0.1247,-1.1549,-0.3728,1.4155,1.5030,-0.4113,-0.1291,-1.0184,0.7598,
7.735322,0.2066,-1.1603,-0.5890,1.4155,1.5030,-0.4113,-0.1291,-1.0184,0.7598,
7.736359,0.3663,-1.1436,-0.8191,1.4155,1.5030,-0.4113,-0.1291,-1.0184,0.7598,
7.737824,0.5596,-1.1146,-0.8748,1.4155,1.5030,-0.4113,-0.1291,-1.0184,0.7598,
7.739097,0.5596,-1.1146,-0.8748,3.2877,-0.7158,-2.8288,-0.1291,-1.0184,0.7598,
7.770630,0.5596,-1.1146,-0.8748,3.2877,-0.7158,-2.8288,-1.7611,-1.5276,0.7161,
7.773205,0.5596,-1.1146,-0.8748,5.8653,-1.5955,-7.8808,-1.7611,-1.5276,0.7161,
7.811152,0.5596,-1.1146,-0.8748,5.8653,-1.5955,-7.8808,-3.1534,-1.7023,-0.2341,
7.813996,0.5596,-1.1146,-0.8748,7.3499,-2.0427,-2.8979,-3.1534,-1.7023,-0.2341,
7.815683,0.7045,-1.1436,-0.6413,7.3499,-2.0427,-2.8979,-3.1534,-1.7023,-0.2341,
7.816829,0.6356,-1.2250,-0.3092,7.3499,-2.0427,-2.8979,-3.1534,-1.7023,-0.2341,
7.818389,0.3109,-1.1996,-0.1443,7.3499,-2.0427,-2.8979,-3.1534,-1.7023,-0.2341,
7.819885,-0.0341,-1.1893,-0.1888,7.3499,-2.0427,-2.8979,-3.1534,-1.7023,-0.2341,
7.850213,-0.0341,-1.1893,-0.1888,7.3499,-2.0427,-2.8979,-3.4229,-1.3305,-0.8040,
7.852368,-0.0341,-1.1893,-0.1888,6.9921,-2.1214,-1.6693,-3.4229,-1.3305,-0.8040,
7.889768,-0.0341,-1.1893,-0.1888,6.9921,-2.1214,-1.6693,-3.0703,-0.8629,-0.6985,
7.892814,-0.0341,-1.1893,-0.1888,0.0423,-3.4272,2.6500,-3.0703,-0.8629,-0.6985,
7.893882,-0.2026,-1.3442,-0.1211,0.0423,-3.4272,2.6500,-3.0703,-0.8629,-0.6985,
7.894832,-0.1851,-1.3735,0.2160,0.0423,-3.4272,2.6500,-3.0703,-0.8629,-0.6985,
7.895659,0.0913,-1.3252,0.3142,0.0423,-3.4272,2.6500,-3.0703,-0.8629,-0.6985,
7.896560,0.3251,-1.4368,-0.0664,0.0423,-3.4272,2.6500,-3.0703,-0.8629,-0.6985,
7.928987,0.3251,-1.4368,-0.0664,0.0423,-3.4272,2.6500,-2.1062,0.3239,-1.2525,
7.931283,0.3251,-1.4368,-0.0664,-0.4538,-3.5872,3.3767,-2.1062,0.3239,-1.2525,
7.969516,0.3251,-1.4368,-0.0664,-0.4538,-3.5872,3.3767,-1.3020,-0.6466,-2.6299,
7.972462,0.3251,-1.4368,-0.0664,2.7663,-4.6565,4.3515,-1.3020,-0.6466,-2.6299,
7.974585,0.4206,-1.4505,-0.1612,2.7663,-4.6565,4.3515,-1.3020,-0.6466,-2.6299,
7.975603,0.5633,-1.4928,0.0501,2.7663,-4.6565,4.3515,-1.3020,-0.6466,-2.6299,
7.976887,0.7692,-1.4884,0.0347,2.7663,-4.6565,4.3515,-1.3020,-0.6466,-2.6299,
7.978235,0.4291,-1.4534,0.0240,2.7663,-4.6565,4.3515,-1.3020,-0.6466,-2.6299,
8.010253,0.4291,-1.4534,0.0240,2.7663,-4.6565,4.3515,-0.6053,-2.3958,-3.4832,
8.013142,0.4291,-1.4534,0.0240,4.8605,-5.4465,4.6050,-0.6053,-2.3958,-3.4832,
8.048219,0.4291,-1.4534,0.0240,4.8605,-5.4465,4.6050,-0.1153,-3.4269,-2.4925,
8.050869,0.4291,-1.4534,0.0240,-4.7407,-0.6739,5.4411,-0.1153,-3.4269,-2.4925,
8.055067,-0.1990,-1.3618,0.0870,-4.7407,-0.6739,5.4411,-0.1153,-3.4269,-2.4925,
8.057581,-0.4233,-1.0117,0.0662,-4.7407,-0.6739,5.4411,-0.1153,-3.4269,-2.4925,
8.058835,-0.4897,-0.5649,0.1816,-4.7407,-0.6739,5.4411,-0.1153,-3.4269,-2.4925,
8.061144,-0.6859,-0.2634,0.2502,-4.7407,-0.6739,5.4411,-0.1153,-3.4269,-2.4925,
8.087893,-0.6859,-0.2634,0.2502,-4.7978,-0.6084,5.1990,-0.1153,-3.4269,-2.4925,
8.089735,-0.6859,-0.2634,0.2502,-4.7978,-0.6084,5.1990,0.6933,-1.9611,-1.3366,
8.129002,-0.6859,-0.2634,0.2502,-4.7978,-0.6084,5.1990,1.5902,1.1505,-0.2149,
8.131538,-0.6859,-0.2634,0.2502,-9.0182,6.7744,5.1800,1.5902,1.1505,-0.2149,
8.132911,-0.8628,-0.1654,0.2138,-9.0182,6.7744,5.1800,1.5902,1.1505,-0.2149,
8.134369,-0.8271,-0.2847,0.0863,-9.0182,6.7744,5.1800,1.5902,1.1505,-0.2149,
8.135608,-0.6431,-0.4901,-0.1490,-9.0182,6.7744,5.1800,1.5902,1.1505,-0.2149,
8.137136,-0.4667,-0.6010,-0.2770,-9.0182,6.7744,5.1800,1.5902,1.1505,-0.2149,
8.167676,-0.4667,-0.6010,-0.2770,-9.0182,6.7744,5.1800,1.2078,1.7907,0.7758,
8.171341,-0.4667,-0.6010,-0.2770,-8.8050,6.8460,4.5738,1.2078,1.7907,0.7758,
8.206786,-0.4667,-0.6010,-0.2770,-8.8050,6.8460,4.5738,0.9297,0.8884,1.0506,
8.208692,-0.4667,-0.6010,-0.2770,-5.1956,3.6382,0.3069,0.9297,0.8884,1.0506,
8.209566,-0.2776,-0.6262,-0.2140,-5.1956,3.6382,0.3069,0.9297,0.8884,1.0506,
8.210427,-0.1210,-0.7010,-0.0745,-5.1956,3.6382,0.3069,0.9297,0.8884,1.0506,
8.211201,0.1421,-1.1952,-0.4869,-5.1956,3.6382,0.3069,0.9297,0.8884,1.0506,
8.211892,0.4628,-2.0246,-0.4961,-5.1956,3.6382,0.3069,0.9297,0.8884,1.0506,
8.246808,0.4628,-2.0246,-0.4961,-5.1956,3.6382,0.3069,0.4461,0.3675,0.6373,
8.249454,0.4628,-2.0246,-0.4961,1.0996,-3.4460,-1.2090,0.4461,0.3675,0.6373,
8.287357,0.4628,-2.0246,-0.4961,1.0996,-3.4460,-1.2090,-0.7289,0.5774,0.3017,
8.289916,0.4628,-2.0246,-0.4961,-3.0743,-8.4513,1.5746,-0.7289,0.5774,0.3017,
8.291486,0.0456,-2.1575,-0.0474,-3.0743,-8.4513,1.5746,-0.7289,0.5774,0.3017,
8.292618,-0.5012,-2.0188,0.0504,-3.0743,-8.4513,1.5746,-0.7289,0.5774,0.3017,
8.293970,-0.3719,-1.3012,-0.2797,-3.0743,-8.4513,1.5746,-0.7289,0.5774,0.3017,
8.295272,-0.6898,-0.6555,0.2898,-3.0743,-8.4513,1.5746,-0.7289,0.5774,0.3017,
8.326127,-0.6898,-0.6555,0.2898,-3.0743,-8.4513,1.5746,-0.2399,2.6227,0.0343,
8.328750,-0.6898,-0.6555,0.2898,-3.2681,-8.3335,1.5868,-0.2399,2.6227,0.0343,
8.365967,-0.6898,-0.6555,0.2898,-3.2681,-8.3335,1.5868,-0.0300,2.0783,1.2093,
8.368800,-0.6898,-0.6555,0.2898,-5.9749,0.0359,5.3266,-0.0300,2.0783,1.2093,
8.370211,-0.7262,-0.9118,0.4264,-5.9749,0.0359,5.3266,-0.0300,2.0783,1.2093,
8.371403,-0.3490,-1.3538,0.1884,-5.9749,0.0359,5.3266,-0.0300,2.0783,1.2093,
8.372716,0.4516,-1.5609,0.3311,-5.9749,0.0359,5.3266,-0.0300,2.0783,1.2093,
8.373931,1.0719,-1.4595,0.2617,-5.9749,0.0359,5.3266,-0.0300,2.0783,1.2093,
8.404776,1.0719,-1.4595,0.2617,-5.9749,0.0359,5.3266,0.0509,1.8770,0.5521,
8.416813,1.0719,-1.4595,0.2617,-5.8417,0.0437,5.2061,0.0509,1.8770,0.5521,
8.444383,1.0719,-1.4595,0.2617,-5.8417,0.0437,5.2061,-0.0034,3.6880,-0.6602,
8.446259,1.0719,-1.4595,0.2617,6.9710,-4.0673,3.9876,-0.0034,3.6880,-0.6602,
8.447733,0.8467,-1.1769,-0.0259,6.9710,-4.0673,3.9876,-0.0034,3.6880,-0.6602,
8.448718,0.1951,-0.8700,-0.1778,6.9710,-4.0673,3.9876,-0.0034,3.6880,-0.6602,
8.450270,-0.3683,-0.7078,-0.2137,6.9710,-4.0673,3.9876,-0.0034,3.6880,-0.6602,
8.451087,-0.6712,-0.5532,-0.1759,6.9710,-4.0673,3.9876,-0.0034,3.6880,-0.6602,
8.484800,-0.6712,-0.5532,-0.1759,6.9710,-4.0673,3.9876,-0.3219,3.8499,-0.2128,
8.487276,-0.6712,-0.5532,-0.1759,-3.8684,2.6040,0.2500,-0.3219,3.8499,-0.2128,
8.524291,-0.6712,-0.5532,-0.1759,-3.8684,2.6040,0.2500,-0.5659,4.0086,0.3561,
8.526937,-0.6712,-0.5532,-0.1759,-3.6406,4.3176,3.3903,-0.5659,4.0086,0.3561,
8.528554,-0.5576,-0.4190,-0.0124,-3.6406,4.3176,3.3903,-0.5659,4.0086,0.3561,
8.529674,-0.1938,-0.4681,0.2177,-3.6406,4.3176,3.3903,-0.5659,4.0086,0.3561,
8.531045,0.0192,-0.6878,0.2004,-3.6406,4.3176,3.3903,-0.5659,4.0086,0.3561,
8.532297,-0.1215,-1.1178,-0.2003,-3.6406,4.3176,3.3903,-0.5659,4.0086,0.3561,
8.564099,-0.1215,-1.1178,-0.2003,-3.6406,4.3176,3.3903,-1.1752,4.4677,0.2602,
8.566678,-0.1215,-1.1178,-0.2003,-3.8590,4.1607,3.5244,-1.1752,4.4677,0.2602,
8.603848,-0.1215,-1.1178,-0.2003,-3.8590,4.1607,3.5244,-2.0817,4.0139,1.2967,
8.606784,-0.1215,-1.1178,-0.2003,-5.1864,-5.1827,-1.8276,-2.0817,4.0139,1.2967,
8.608419,-0.5239,-1.5927,-0.6178,-5.1864,-5.1827,-1.8276,-2.0817,4.0139,1.2967,
8.609553,-0.5471,-1.7124,-0.5868,-5.1864,-5.1827,-1.8276,-2.0817,4.0139,1.2967,
8.610840,0.1452,-1.3616,-0.5682,-5.1864,-5.1827,-1.8276,-2.0817,4.0139,1.2967,
8.611794,0.5024,-1.1713,-0.5516,-5.1864,-5.1827,-1.8276,-2.0817,4.0139,1.2967,
8.642956,0.5024,-1.1713,-0.5516,-5.1864,-5.1827,-1.8276,-2.2607,2.7420,2.5260,
8.645410,0.5024,-1.1713,-0.5516,-4.5249,-5.2699,-1.1015,-2.2607,2.7420,2.5260,
8.683055,0.5024,-1.1713,-0.5516,-4.5249,-5.2699,-1.1015,-1.5438,1.7886,2.3460,
8.686274,0.5024,-1.1713,-0.5516,3.9688,-2.7370,-1.5955,-1.5438,1.7886,2.3460,
8.687706,0.6033,-1.0684,-0.6068,3.9688,-2.7370,-1.5955,-1.5438,1.7886,2.3460,
8.689175,1.1335,-0.8705,-0.6349,3.9688,-2.7370,-1.5955,-1.5438,1.7886,2.3460,
8.690261,1.4210,-0.8009,-0.3369,3.9688,-2.7370,-1.5955,-1.5438,1.7886,2.3460,
8.692288,1.0318,-0.7598,-0.3796,3.9688,-2.7370,-1.5955,-1.5438,1.7886,2.3460,
8.722644,1.0318,-0.7598,-0.3796,3.9688,-2.7370,-1.5955,-0.5052,1.1356,0.7630,
8.725072,1.0318,-0.7598,-0.3796,11.4875,0.9869,-0.1884,-0.5052,1.1356,0.7630,
8.762715,1.0318,-0.7598,-0.3796,11.4875,0.9869,-0.1884,-0.2367,-1.1696,1.1326,
8.764773,1.0318,-0.7598,-0.3796,-0.1743,1.9823,-3.7948,-0.2367,-1.1696,1.1326,
8.766040,0.4736,-0.6335,-0.6178,-0.1743,1.9823,-3.7948,-0.2367,-1.1696,1.1326,
8.767173,-0.1816,-0.7151,-0.9811,-0.1743,1.9823,-3.7948,-0.2367,-1.1696,1.1326,
8.768436,-0.4597,-0.7547,-0.9000,-0.1743,1.9823,-3.7948,-0.2367,-1.1696,1.1326,
8.769742,-0.2850,-0.5285,-0.1309,-0.1743,1.9823,-3.7948,-0.2367,-1.1696,1.1326,
8.801307,-0.2850,-0.5285,-0.1309,-0.1743,1.9823,-3.7948,0.1926,-2.3585,2.1074,
8.803971,-0.2850,-0.5285,-0.1309,0.9504,1.9039,-3.8850,0.1926,-2.3585,2.1074,
8.840807,-0.2850,-0.5285,-0.1309,0.9504,1.9039,-3.8850,1.2451,-1.8663,1.6802,
8.842682,-0.2850,-0.5285,-0.1309,0.6846,3.7533,2.7827,1.2451,-1.8663,1.6802,
8.846109,-0.1831,-0.4515,0.0157,0.6846,3.7533,2.7827,1.2451,-1.8663,1.6802,
8.847503,-0.0480,-0.5583,-0.1512,0.6846,3.7533,2.7827,1.2451,-1.8663,1.6802,
8.848776,0.1660,-0.7027,-0.2250,0.6846,3.7533,2.7827,1.2451,-1.8663,1.6802,
8.849883,0.1697,-0.7295,-0.0803,0.6846,3.7533,2.7827,1.2451,-1.8663,1.6802,
8.880028,0.1697,-0.7295,-0.0803,0.6846,3.7533,2.7827,1.8011,-1.2804,0.2325,
8.882366,0.1697,-0.7295,-0.0803,0.9180,3.8981,1.9865,1.8011,-1.2804,0.2325,
8.919959,0.1697,-0.7295,-0.0803,0.9180,3.8981,1.9865,2.0728,-0.2940,0.0493,
8.921890,0.1697,-0.7295,-0.0803,3.0633,2.5400,0.5552,2.0728,-0.2940,0.0493,
8.923574,-0.1941,-0.5690,-0.1600,3.0633,2.5400,0.5552,2.0728,-0.2940,0.0493,
8.924928,-0.4286,-0.5480,-0.6146,3.0633,2.5400,0.5552,2.0728,-0.2940,0.0493,
8.926024,-0.0927,-0.9624,-0.9066,3.0633,2.5400,0.5552,2.0728,-0.2940,0.0493,
8.927164,0.0021,-1.5717,-0.9813,3.0633,2.5400,0.5552,2.0728,-0.2940,0.0493,
8.959599,0.0021,-1.5717,-0.9813,3.0633,2.5400,0.5552,-0.0599,-0.5156,0.3763,
8.961894,0.0021,-1.5717,-0.9813,1.0625,-1.0180,-6.0313,-0.0599,-0.5156,0.3763,
9.001100,0.0021,-1.5717,-0.9813,1.0625,-1.0180,-6.0313,-1.1603,-2.0410,0.2708,
9.003078,0.0021,-1.5717,-0.9813,0.8438,-7.4866,-5.3947,-1.1603,-2.0410,0.2708,
9.004872,-0.2566,-1.9391,-0.5538,0.8438,-7.4866,-5.3947,-1.1603,-2.0410,0.2708,
9.006888,-0.5813,-1.7239,-1.2115,0.8438,-7.4866,-5.3947,-1.1603,-2.0410,0.2708,
9.008637,0.1714,-1.3972,-0.6249,0.8438,-7.4866,-5.3947,-1.1603,-2.0410,0.2708,
9.009956,1.4435,-0.8300,0.8124,0.8438,-7.4866,-5.3947,-1.1603,-2.0410,0.2708,
9.038258,1.4435,-0.8300,0.8124,0.8438,-7.4866,-5.3947,-0.8247,-0.7947,-0.3577,
9.040519,1.4435,-0.8300,0.8124,0.7811,-7.4002,-5.1090,-0.8247,-0.7947,-0.3577,
9.079430,1.4435,-0.8300,0.8124,0.7811,-7.4002,-5.1090,1.0682,-1.3635,-1.2365,
9.082458,1.4435,-0.8300,0.8124,9.3102,2.8756,7.1592,1.0682,-1.3635,-1.2365,
9.083893,1.0248,-0.3484,0.4935,9.3102,2.8756,7.1592,1.0682,-1.3635,-1.2365,
9.085034,-0.3778,-0.7945,0.2632,9.3102,2.8756,7.1592,1.0682,-1.3635,-1.2365,
9.086291,-0.8356,-1.5277,-0.2269,9.3102,2.8756,7.1592,1.0682,-1.3635,-1.2365,
9.088252,-0.0954,-1.6486,-0.5049,9.3102,2.8756,7.1592,1.0682,-1.3635,-1.2365,
9.118293,-0.0954,-1.6486,-0.5049,9.3102,2.8756,7.1592,1.6030,-0.9971,-0.1798,
9.121051,-0.0954,-1.6486,-0.5049,9.1565,2.9499,6.3574,1.6030,-0.9971,-0.1798,
9.158721,-0.0954,-1.6486,-0.5049,9.1565,2.9499,6.3574,1.8118,-1.2932,-0.3470,
9.161380,-0.0954,-1.6486,-0.5049,0.2368,-5.2266,-2.7209,1.8118,-1.2932,-0.3470,
9.162751,0.3190,-1.3547,-0.2487,0.2368,-5.2266,-2.7209,1.8118,-1.2932,-0.3470,
9.164075,0.3045,-1.1534,-0.1145,0.2368,-5.2266,-2.7209,1.8118,-1.2932,-0.3470,
9.165352,0.3016,-1.0049,-0.2059,0.2368,-5.2266,-2.7209,1.8118,-1.2932,-0.3470,
9.166613,0.1626,-0.9941,-0.4131,0.2368,-5.2266,-2.7209,1.8118,-1.2932,-0.3470,
9.197978,0.1626,-0.9941,-0.4131,0.2368,-5.2266,-2.7209,1.9524,-1.5947,-0.5292,
9.200694,0.1626,-0.9941,-0.4131,4.4724,-0.6636,-2.7464,1.9524,-1.5947,-0.5292,
9.237262,0.1626,-0.9941,-0.4131,4.4724,-0.6636,-2.7464,0.6315,-0.5667,0.0631,
9.239649,0.1626,-0.9941,-0.4131,1.3224,-1.2627,-7.3267,0.6315,-0.5667,0.0631,
9.241377,-0.0790,-1.1258,-0.5992,1.3224,-1.2627,-7.3267,0.6315,-0.5667,0.0631,
9.242677,-0.0788,-1.1632,-0.7932,1.3224,-1.2627,-7.3267,0.6315,-0.5667,0.0631,
9.243909,-0.0348,-1.0481,-0.6940,1.3224,-1.2627,-7.3267,0.6315,-0.5667,0.0631,
9.245011,-0.1259,-1.0159,-0.6112,1.3224,-1.2627,-7.3267,0.6315,-0.5667,0.0631,
9.277635,-0.1259,-1.0159,-0.6112,1.3224,-1.2627,-7.3267,-1.3339,-1.5830,0.5606,
9.279838,-0.1259,-1.0159,-0.6112,1.4888,-1.2693,-6.8301,-1.3339,-1.5830,0.5606,
9.317814,-0.1259,-1.0159,-0.6112,1.4888,-1.2693,-6.8301,-3.4037,-2.5875,0.9729,
9.320679,-0.1259,-1.0159,-0.6112,1.9132,0.2707,-5.6480,-3.4037,-2.5875,0.9729,
9.322153,-0.0890,-0.9704,-0.8247,1.9132,0.2707,-5.6480,-3.4037,-2.5875,0.9729,
9.323596,0.0338,-0.8295,-0.6400,1.9132,0.2707,-5.6480,-3.4037,-2.5875,0.9729,
9.324819,0.1555,-0.7933,-0.2213,1.9132,0.2707,-5.6480,-3.4037,-2.5875,0.9729,
9.325921,0.2405,-0.9211,0.1950,1.9132,0.2707,-5.6480,-3.4037,-2.5875,0.9729,
9.356461,0.2405,-0.9211,0.1950,1.9132,0.2707,-5.6480,-4.2165,-1.8770,0.5627,
9.358919,0.2405,-0.9211,0.1950,2.2133,-0.0893,-4.2213,-4.2165,-1.8770,0.5627,
9.396382,0.2405,-0.9211,0.1950,2.2133,-0.0893,-4.2213,-2.9009,-0.7467,-0.6421,
9.398694,0.2405,-0.9211,0.1950,4.8557,0.1064,5.0286,-2.9009,-0.7467,-0.6421,
9.399867,0.2997,-0.9558,0.5177,4.8557,0.1064,5.0286,-2.9009,-0.7467,-0.6421,
9.401316,0.1369,-1.0401,0.8419,4.8557,0.1064,5.0286,-2.9009,-0.7467,-0.6421,
9.402538,-0.1985,-1.1764,0.7635,4.8557,0.1064,5.0286,-2.9009,-0.7467,-0.6421,
9.403852,-0.1623,-1.2594,-0.0486,4.8557,0.1064,5.0286,-2.9009,-0.7467,-0.6421,
9.435008,-0.1623,-1.2594,-0.0486,4.8557,0.1064,5.0286,-1.7845,-0.3015,-0.7902,
9.437732,-0.1623,-1.2594,-0.0486,1.5954,-2.6659,8.9454,-1.7845,-0.3015,-0.7902,
9.475980,-0.1623,-1.2594,-0.0486,1.5954,-2.6659,8.9454,-1.9742,-0.4080,-1.2908,
9.478691,-0.1623,-1.2594,-0.0486,5.1412,-3.9920,-1.4389,-1.9742,-0.4080,-1.2908,
9.480065,0.0026,-1.3352,-0.6024,5.1412,-3.9920,-1.4389,-1.9742,-0.4080,-1.2908,
9.481898,0.2762,-1.2690,-0.7659,5.1412,-3.9920,-1.4389,-1.9742,-0.4080,-1.2908,
9.482994,0.7230,-1.2318,-0.4561,5.1412,-3.9920,-1.4389,-1.9742,-0.4080,-1.2908,
9.484398,0.6654,-1.3591,-0.0041,5.1412,-3.9920,-1.4389,-1.9742,-0.4080,-1.2908,
9.514356,0.6654,-1.3591,-0.0041,5.1412,-3.9920,-1.4389,-0.9291,-0.7073,-2.6576,
9.516667,0.6654,-1.3591,-0.0041,4.3028,-3.9403,-1.1476,-0.9291,-0.7073,-2.6576,
9.554296,0.6654,-1.3591,-0.0041,4.3028,-3.9403,-1.1476,0.0786,-1.4956,-2.3849,
9.556781,0.6654,-1.3591,-0.0041,2.3182,-4.6700,4.6986,0.0786,-1.4956,-2.3849,
9.558274,0.1509,-1.4366,0.0489,2.3182,-4.6700,4.6986,0.0786,-1.4956,-2.3849,
9.559533,-0.2476,-1.3142,-0.0337,2.3182,-4.6700,4.6986,0.0786,-1.4956,-2.3849,
9.561437,-0.4311,-1.0354,-0.1187,2.3182,-4.6700,4.6986,0.0786,-1.4956,-2.3849,
9.562576,-0.3974,-0.6374,-0.1084,2.3182,-4.6700,4.6986,0.0786,-1.4956,-2.3849,
9.596884,-0.3974,-0.6374,-0.1084,2.3182,-4.6700,4.6986,0.3748,-1.0408,-1.5018,
9.599579,-0.3974,-0.6374,-0.1084,1.9518,-4.5081,4.4802,0.3748,-1.0408,-1.5018,
9.633810,-0.3974,-0.6374,-0.1084,1.9518,-4.5081,4.4802,1.3527,0.1864,-0.9041,
9.637382,-0.3974,-0.6374,-0.1084,-3.9541,2.3063,3.1943,1.3527,0.1864,-0.9041,
9.638723,-0.3236,-0.4073,0.0101,-3.9541,2.3063,3.1943,1.3527,0.1864,-0.9041,
9.640075,-0.2757,-0.3748,0.0518,-3.9541,2.3063,3.1943,1.3527,0.1864,-0.9041,
9.641735,-0.3096,-0.3970,0.1063,-3.9541,2.3063,3.1943,1.3527,0.1864,-0.9041,
9.642745,-0.3610,-0.3834,0.1222,-3.9541,2.3063,3.1943,1.3527,0.1864,-0.9041,
9.672849,-0.3610,-0.3834,0.1222,-3.9541,2.3063,3.1943,1.8320,0.8661,-0.0764,
9.675525,-0.3610,-0.3834,0.1222,-3.3735,5.4930,4.0699,1.8320,0.8661,-0.0764,
9.713340,-0.3610,-0.3834,0.1222,-3.3735,5.4930,4.0699,1.4038,0.5540,-0.1638,
9.715542,-0.3610,-0.3834,0.1222,0.2071,2.0910,-1.9136,1.4038,0.5540,-0.1638,
9.716959,-0.2952,-0.3817,-0.2120,0.2071,2.0910,-1.9136,1.4038,0.5540,-0.1638,
9.718225,0.0290,-0.5453,-0.6906,0.2071,2.0910,-1.9136,1.4038,0.5540,-0.1638,
9.719342,0.4553,-1.3073,-0.4971,0.2071,2.0910,-1.9136,1.4038,0.5540,-0.1638,
9.721112,0.2984,-2.1328,-0.1751,0.2071,2.0910,-1.9136,1.4038,0.5540,-0.1638,
9.752826,0.2984,-2.1328,-0.1751,-0.0968,2.1808,-2.4502,1.4038,0.5540,-0.1638,
9.755539,0.2984,-2.1328,-0.1751,-0.0968,2.1808,-2.4502,1.4709,1.1920,-0.5185,
9.792579,0.2984,-2.1328,-0.1751,-0.0968,2.1808,-2.4502,-0.0279,-0.8138,0.1292,
9.795269,0.2984,-2.1328,-0.1751,-2.1265,-7.6628,-0.0275,-0.0279,-0.8138,0.1292,
9.796629,-0.2425,-1.8546,-0.1944,-2.1265,-7.6628,-0.0275,-0.0279,-0.8138,0.1292,
9.797979,-0.5349,-1.3002,-0.2985,-2.1265,-7.6628,-0.0275,-0.0279,-0.8138,0.1292,
9.799275,-1.2905,-1.4011,-0.9322,-2.1265,-7.6628,-0.0275,-0.0279,-0.8138,0.1292,
9.800625,-1.3208,-1.2314,0.0252,-2.1265,-7.6628,-0.0275,-0.0279,-0.8138,0.1292,
9.832020,-1.3208,-1.2314,0.0252,-2.1265,-7.6628,-0.0275,-0.9419,0.7968,0.6969,
9.834939,-1.3208,-1.2314,0.0252,-1.9043,-7.6080,0.3107,-0.9419,0.7968,0.6969,
9.872209,-1.3208,-1.2314,0.0252,-1.9043,-7.6080,0.3107,-0.1195,3.7679,1.3979,
9.874936,-1.3208,-1.2314,0.0252,-11.0769,-1.8642,2.2203,-0.1195,3.7679,1.3979,
9.876757,-0.7814,-0.9072,0.8324,-11.0769,-1.8642,2.2203,-0.1195,3.7679,1.3979,
9.878421,-0.4980,-1.1212,0.2908,-11.0769,-1.8642,2.2203,-0.1195,3.7679,1.3979,
9.879787,-0.0250,-1.4627,0.1921,-11.0769,-1.8642,2.2203,-0.1195,3.7679,1.3979,
9.881497,0.4660,-1.5091,0.5331,-11.0769,-1.8642,2.2203,-0.1195,3.7679,1.3979,
9.910949,0.4660,-1.5091,0.5331,-11.0769,-1.8642,2.2203,0.6453,3.0136,1.2072,
9.917300,0.4660,-1.5091,0.5331,0.0015,-3.5560,5.4526,0.6453,3.0136,1.2072,
9.950672,0.4660,-1.5091,0.5331,0.0015,-3.5560,5.4526,1.1428,3.5197,0.5340,
9.952652,0.4660,-1.5091,0.5331,4.4784,1.5527,1.4067,1.1428,3.5197,0.5340,
9.954141,0.5444,-1.1920,0.3489,4.4784,1.5527,1.4067,1.1428,3.5197,0.5340,
9.955044,0.4089,-0.7911,-0.1106,4.4784,1.5527,1.4067,1.1428,3.5197,0.5340,
9.955938,0.4023,-0.5634,-0.3244,4.4784,1.5527,1.4067,1.1428,3.5197,0.5340,
9.956791,0.4345,-0.5082,-0.1803,4.4784,1.5527,1.4067,1.1428,3.5197,0.5340,
9.990374,0.4345,-0.5082,-0.1803,4.4784,1.5527,1.4067,0.9180,2.7335,0.3763,
9.991974,0.4345,-0.5082,-0.1803,4.3879,1.5803,1.0333,0.9180,2.7335,0.3763,
10.030005,0.3874,-0.5221,-0.1795,4.3879,1.5803,1.0333,0.9180,2.7335,0.3763,
10.032216,0.3429,-0.7032,-0.5357,4.3879,1.5803,1.0333,0.9180,2.7335,0.3763,
10.033136,0.4797,-1.0391,-0.7925,4.3879,1.5803,1.0333,0.9180,2.7335,0.3763,
10.034105,0.4797,-1.0391,-0.7925,4.3879,1.5803,1.0333,1.0437,2.0261,-0.0200,
10.035142,0.4797,-1.0391,-0.7925,3.6054,4.2105,-1.9938,1.0437,2.0261,-0.0200,
10.069184,0.4797,-1.0391,-0.7925,3.6054,4.2105,-1.9938,0.1201,1.1878,-0.1553,
10.071259,0.4797,-1.0391,-0.7925,4.4488,-3.6387,-5.4090,0.1201,1.1878,-0.1553,
10.108465,0.4797,-1.0391,-0.7925,4.4488,-3.6387,-5.4090,-0.8833,-0.2461,-0.3108,
10.109762,0.4797,-1.0391,-0.7925,4.2668,-3.6226,-4.9730,-0.8833,-0.2461,-0.3108,
10.110433,0.6009,-1.3965,-0.6515,4.2668,-3.6226,-4.9730,-0.8833,-0.2461,-0.3108,
10.111032,0.3966,-1.7205,-0.5071,4.2668,-3.6226,-4.9730,-0.8833,-0.2461,-0.3108,
10.111606,0.2090,-1.4571,-0.4832,4.2668,-3.6226,-4.9730,-0.8833,-0.2461,-0.3108,
10.112231,-0.1826,-0.8358,-0.2154,4.2668,-3.6226,-4.9730,-0.8833,-0.2461,-0.3108,
10.112757,-0.4997,-0.6008,0.0027,4.2668,-3.6226,-4.9730,-0.8833,-0.2461,-0.3108,
10.148136,-0.4997,-0.6008,0.0027,4.2668,-3.6226,-4.9730,-0.4966,-0.8320,0.1664,
10.150299,-0.4997,-0.6008,0.0027,-1.9558,0.4668,-0.6489,-0.4966,-0.8320,0.1664,
10.188631,-0.4997,-0.6008,0.0027,-1.9558,0.4668,-0.6489,0.1542,-1.4179,0.8748,
10.191008,-0.4997,-0.6008,0.0027,-0.4961,0.3911,1.8835,0.1542,-1.4179,0.8748,
10.192440,-0.4189,-0.7046,-0.0197,-0.4961,0.3911,1.8835,0.1542,-1.4179,0.8748,
10.193841,-0.0490,-0.9690,0.0592,-0.4961,0.3911,1.8835,0.1542,-1.4179,0.8748,
10.195136,0.3055,-1.2463,0.0648,-0.4961,0.3911,1.8835,0.1542,-1.4179,0.8748,
10.196103,0.5085,-1.2255,-0.1978,-0.4961,0.3911,1.8835,0.1542,-1.4179,0.8748,
10.228182,0.5085,-1.2255,-0.1978,-0.4961,0.3911,1.8835,0.2970,-0.9641,0.2996,
10.230550,0.5085,-1.2255,-0.1978,-0.3157,0.4004,1.7320,0.2970,-0.9641,0.2996,
10.268075,0.5085,-1.2255,-0.1978,-0.3157,0.4004,1.7320,-0.2079,-0.5209,-0.1553,
10.272061,0.5085,-1.2255,-0.1978,3.2837,-0.3135,-1.8677,-0.2079,-0.5209,-0.1553,
10.273508,0.3588,-0.9954,-0.4900,3.2837,-0.3135,-1.8677,-0.2079,-0.5209,-0.1553,
10.274617,0.0991,-0.9160,-0.3432,3.2837,-0.3135,-1.8677,-0.2079,-0.5209,-0.1553,
10.275779,0.0170,-0.9426,-0.0632,3.2837,-0.3135,-1.8677,-0.2079,-0.5209,-0.1553,
10.276926,0.0048,-0.9416,0.0675,3.2837,-0.3135,-1.8677,-0.2079,-0.5209,-0.1553,
10.307551,0.0048,-0.9416,0.0675,3.2837,-0.3135,-1.8677,-0.0865,-0.8650,-0.1595,
10.309860,0.0048,-0.9416,0.0675,3.2185,-0.3126,-1.8071,-0.0865,-0.8650,-0.1595,
10.347526,0.0048,-0.9416,0.0675,3.2185,-0.3126,-1.8071,0.4823,-0.6530,-0.1787,
10.350260,0.0048,-0.9416,0.0675,-0.1155,0.7061,1.6236,0.4823,-0.6530,-0.1787,
10.351706,-0.0668,-0.9458,0.0819,-0.1155,0.7061,1.6236,0.4823,-0.6530,-0.1787,
10.352836,-0.1902,-0.9985,0.0325,-0.1155,0.7061,1.6236,0.4823,-0.6530,-0.1787,
10.354749,-0.2952,-1.0562,-0.2934,-0.1155,0.7061,1.6236,0.4823,-0.6530,-0.1787,
10.356125,-0.2921,-1.1429,-0.4976,-0.1155,0.7061,1.6236,0.4823,-0.6530,-0.1787,
10.386648,-0.2921,-1.1429,-0.4976,-0.1155,0.7061,1.6236,0.1713,-0.1204,-0.0115,
10.389104,-0.2921,-1.1429,-0.4976,-2.4645,-0.4780,-1.1830,0.1713,-0.1204,-0.0115,
10.426616,-0.2921,-1.1429,-0.4976,0.3137,0.2904,2.0576,0.1713,-0.1204,-0.0115,
10.428950,-0.2921,-1.1429,-0.4976,0.3137,0.2904,2.0576,0.1894,0.5401,-0.2799,
10.430254,-0.1208,-1.1346,-0.2167,0.3137,0.2904,2.0576,0.1894,0.5401,-0.2799,
10.431550,0.1176,-0.9634,0.2116,0.3137,0.2904,2.0576,0.1894,0.5401,-0.2799,
10.433631,0.1198,-0.8659,0.2722,0.3137,0.2904,2.0576,0.1894,0.5401,-0.2799,
10.434731,-0.1086,-0.8664,0.0672,0.3137,0.2904,2.0576,0.1894,0.5401,-0.2799,
10.465921,-0.1086,-0.8664,0.0672,0.3137,0.2904,2.0576,0.7902,0.2461,-0.4610,
10.468505,-0.1086,-0.8664,0.0672,0.1188,0.3142,1.7146,0.7902,0.2461,-0.4610,
10.506139,-0.1086,-0.8664,0.0672,0.1188,0.3142,1.7146,0.3439,-0.5614,0.0397,
10.508727,-0.1086,-0.8664,0.0672,-1.7419,1.0943,-0.8311,0.3439,-0.5614,0.0397,
10.510087,-0.1882,-0.9067,-0.1847,-1.7419,1.0943,-0.8311,0.3439,-0.5614,0.0397,
10.511521,-0.1750,-0.9497,-0.3591,-1.7419,1.0943,-0.8311,0.3439,-0.5614,0.0397,
10.512806,-0.1462,-0.9699,-0.4600,-1.7419,1.0943,-0.8311,0.3439,-0.5614,0.0397,
10.514160,-0.1071,-0.9702,-0.4114,-1.7419,1.0943,-0.8311,0.3439,-0.5614,0.0397,
10.545126,-0.1071,-0.9702,-0.4114,-1.7419,1.0943,-0.8311,-0.5211,-0.1747,0.2261,
10.547531,-0.1071,-0.9702,-0.4114,-1.6197,1.0605,-0.6133,-0.5211,-0.1747,0.2261,
10.584979,-0.1071,-0.9702,-0.4114,-1.6197,1.0605,-0.6133,-0.9164,0.8075,0.3113,
10.587667,-0.1071,-0.9702,-0.4114,-1.4258,0.4797,-2.2901,-0.9164,0.8075,0.3113,
10.588902,-0.1929,-0.9455,-0.2406,-1.4258,0.4797,-2.2901,-0.9164,0.8075,0.3113,
10.590070,-0.3011,-0.8866,-0.3007,-1.4258,0.4797,-2.2901,-0.9164,0.8075,0.3113,
10.591564,-0.2947,-0.9382,-0.5154,-1.4258,0.4797,-2.2901,-0.9164,0.8075,0.3113,
10.593028,-0.2293,-1.0618,-0.2670,-1.4258,0.4797,-2.2901,-0.9164,0.8075,0.3113,
10.624604,-0.2293,-1.0618,-0.2670,-1.4258,0.4797,-2.2901,-1.2210,1.1068,0.8024,
10.627547,-0.2293,-1.0618,-0.2670,-2.3792,0.3884,-1.6836,-1.2210,1.1068,0.8024,
10.665260,-0.2293,-1.0618,-0.2670,-2.3792,0.3884,-1.6836,-1.0431,0.5593,0.7470,
10.668081,-0.2293,-1.0618,-0.2670,1.1386,-0.4531,4.4396,-1.0431,0.5593,0.7470,
10.669429,-0.0487,-1.0344,0.0746,1.1386,-0.4531,4.4396,-1.0431,0.5593,0.7470,
10.670702,0.0996,-1.0142,0.2439,1.1386,-0.4531,4.4396,-1.0431,0.5593,0.7470,
10.671951,0.1321,-1.0679,0.3694,1.1386,-0.4531,4.4396,-1.0431,0.5593,0.7470,
10.672766,0.1079,-1.1639,0.3291,1.1386,-0.4531,4.4396,-1.0431,0.5593,0.7470,
10.703744,0.1079,-1.1639,0.3291,1.1386,-0.4531,4.4396,-0.0695,0.5678,0.1654,
10.706215,0.1079,-1.1639,0.3291,1.1326,-0.4551,4.4045,-0.0695,0.5678,0.1654,
10.744258,0.1079,-1.1639,0.3291,1.1326,-0.4551,4.4045,0.3598,1.0408,-0.0381,
10.746836,0.1079,-1.1639,0.3291,0.2831,-1.1127,2.3701,0.3598,1.0408,-0.0381,
10.748390,-0.0138,-1.1327,0.0416,0.2831,-1.1127,2.3701,0.3598,1.0408,-0.0381,
10.749675,-0.1386,-1.0364,-0.2570,0.2831,-1.1127,2.3701,0.3598,1.0408,-0.0381,
10.750898,-0.1587,-1.0149,-0.2970,0.2831,-1.1127,2.3701,0.3598,1.0408,-0.0381,
10.752041,-0.2395,-0.9814,-0.3376,0.2831,-1.1127,2.3701,0.3598,1.0408,-0.0381,
10.783581,-0.2395,-0.9814,-0.3376,0.2831,-1.1127,2.3701,0.1958,1.1292,0.0439,
10.785987,-0.2395,-0.9814,-0.3376,0.2088,-1.0798,2.2732,0.1958,1.1292,0.0439,
10.822801,-0.2395,-0.9814,-0.3376,0.2088,-1.0798,2.2732,-0.3219,1.4850,0.3028,
10.825300,-0.2395,-0.9814,-0.3376,-2.1924,0.3941,-1.7761,-0.3219,1.4850,0.3028,
10.828281,-0.3934,-0.8744,-0.5450,-2.1924,0.3941,-1.7761,-0.3219,1.4850,0.3028,
10.829814,-0.4167,-0.7420,-0.5521,-2.1924,0.3941,-1.7761,-0.3219,1.4850,0.3028,
10.831339,-0.3194,-0.6653,-0.3916,-2.1924,0.3941,-1.7761,-0.3219,1.4850,0.3028,
10.832680,-0.2156,-0.6528,-0.2416,-2.1924,0.3941,-1.7761,-0.3219,1.4850,0.3028,
10.862381,-0.2156,-0.6528,-0.2416,-2.1924,0.3941,-1.7761,-0.6096,1.8791,0.2559,
10.864825,-0.2156,-0.6528,-0.2416,-2.7340,2.9352,-1.5064,-0.6096,1.8791,0.2559,
10.901903,-0.2156,-0.6528,-0.2416,-2.7340,2.9352,-1.5064,-0.1792,2.4299,-0.1723,
10.904912,-0.2156,-0.6528,-0.2416,-0.9869,2.8887,0.1774,-0.1792,2.4299,-0.1723,
10.906145,-0.1599,-0.6448,-0.2633,-0.9869,2.8887,0.1774,-0.1792,2.4299,-0.1723,
10.907658,-0.1274,-0.6641,-0.3530,-0.9869,2.8887,0.1774,-0.1792,2.4299,-0.1723,
10.909015,-0.0429,-0.7457,-0.0806,-0.9869,2.8887,0.1774,-0.1792,2.4299,-0.1723,
10.910140,-0.1530,-1.0303,-0.1248,-0.9869,2.8887,0.1774,-0.1792,2.4299,-0.1723,
10.941697,-0.1530,-1.0303,-0.1248,-0.9869,2.8887,0.1774,0.4834,3.2714,-0.6293,
10.943859,-0.1530,-1.0303,-0.1248,-1.5087,2.8801,-0.0290,0.4834,3.2714,-0.6293,
10.981443,-0.1530,-1.0303,-0.1248,-1.5087,2.8801,-0.0290,0.3460,3.3577,-0.1084,
10.983608,-0.1530,-1.0303,-0.1248,-3.8100,-5.7185,-0.1322,0.3460,3.3577,-0.1084,
10.985203,-0.4980,-1.8595,-0.5169,-3.8100,-5.7185,-0.1322,0.3460,3.3577,-0.1084,
10.986297,-0.3035,-1.8350,-0.0222,-3.8100,-5.7185,-0.1322,0.3460,3.3577,-0.1084,
10.987668,-0.1042,-0.7554,0.2106,-3.8100,-5.7185,-0.1322,0.3460,3.3577,-0.1084,
10.988901,-0.0964,-0.5194,-0.1453,-3.8100,-5.7185,-0.1322,0.3460,3.3577,-0.1084,
11.020878,-0.0964,-0.5194,-0.1453,-3.8100,-5.7185,-0.1322,0.5377,2.7622,0.4455,
11.023209,-0.0964,-0.5194,-0.1453,-3.7821,-5.5707,-0.4132,0.5377,2.7622,0.4455,
11.060577,-0.0964,-0.5194,-0.1453,-3.7821,-5.5707,-0.4132,0.6368,4.0810,0.3113,
11.062485,-0.0964,-0.5194,-0.1453,-0.8817,3.4841,1.7862,0.6368,4.0810,0.3113,
11.063826,0.1697,-0.6748,0.0658,-0.8817,3.4841,1.7862,0.6368,4.0810,0.3113,
11.064954,0.1865,-0.9494,0.1872,-0.8817,3.4841,1.7862,0.6368,4.0810,0.3113,
11.066329,0.0297,-1.3950,0.2588,-0.8817,3.4841,1.7862,0.6368,4.0810,0.3113,
11.067712,0.2549,-1.6220,0.1437,-0.8817,3.4841,1.7862,0.6368,4.0810,0.3113,
11.099531,0.2549,-1.6220,0.1437,-0.8817,3.4841,1.7862,1.6786,4.1577,0.1931,
11.101808,0.2549,-1.6220,0.1437,0.6588,-2.9835,2.4478,1.6786,4.1577,0.1931,
11.138814,0.2549,-1.6220,0.1437,0.6588,-2.9835,2.4478,1.4049,1.8589,0.2218,
11.141242,0.2549,-1.6220,0.1437,4.6023,-0.5836,-3.6649,1.4049,1.8589,0.2218,
11.142699,0.5689,-1.4019,-0.1343,4.6023,-0.5836,-3.6649,1.4049,1.8589,0.2218,
11.144306,0.5633,-1.0354,-0.5150,4.6023,-0.5836,-3.6649,1.4049,1.8589,0.2218,
11.145360,0.5491,-0.8033,-0.4617,4.6023,-0.5836,-3.6649,1.4049,1.8589,0.2218,
11.146474,0.4890,-0.8583,-0.2252,4.6023,-0.5836,-3.6649,1.4049,1.8589,0.2218,
11.179208,0.4890,-0.8583,-0.2252,4.6023,-0.5836,-3.6649,0.6315,0.1587,0.0088,
11.181144,0.4890,-0.8583,-0.2252,4.5288,-0.5777,-3.8553,0.6315,0.1587,0.0088,
11.220392,0.4890,-0.8583,-0.2252,2.2040,0.5372,-2.1365,0.6315,0.1587,0.0088,
11.223018,0.4890,-0.8583,-0.2252,2.2040,0.5372,-2.1365,1.1247,1.4285,-0.3918,
11.224439,0.3580,-0.9829,-0.1253,2.2040,0.5372,-2.1365,1.1247,1.4285,-0.3918,
11.225599,0.1729,-1.0440,-0.0913,2.2040,0.5372,-2.1365,1.1247,1.4285,-0.3918,
11.226893,-0.0380,-1.0149,-0.1827,2.2040,0.5372,-2.1365,1.1247,1.4285,-0.3918,
11.228978,-0.0690,-0.9309,-0.4720,2.2040,0.5372,-2.1365,1.1247,1.4285,-0.3918,
11.258634,-0.0690,-0.9309,-0.4720,2.2040,0.5372,-2.1365,1.2536,2.2211,0.1600,
11.261456,-0.0690,-0.9309,-0.4720,2.3158,0.4865,-2.6796,1.2536,2.2211,0.1600,
11.298852,-0.0690,-0.9309,-0.4720,2.3158,0.4865,-2.6796,-0.3336,1.1782,0.7364,
11.301590,-0.0690,-0.9309,-0.4720,-0.7179,0.9850,-5.4780,-0.3336,1.1782,0.7364,
11.302923,0.0878,-0.7940,-0.6999,-0.7179,0.9850,-5.4780,-0.3336,1.1782,0.7364,
11.304149,0.1565,-0.7921,-0.6840,-0.7179,0.9850,-5.4780,-0.3336,1.1782,0.7364,
11.305282,0.1648,-1.0647,-0.5792,-0.7179,0.9850,-5.4780,-0.3336,1.1782,0.7364,
11.306496,0.2488,-1.1847,-0.3852,-0.7179,0.9850,-5.4780,-0.3336,1.1782,0.7364,
11.337971,0.2488,-1.1847,-0.3852,-0.7179,0.9850,-5.4780,-2.0679,-0.6807,0.8748,
11.340601,0.2488,-1.1847,-0.3852,1.5135,0.0677,-5.5155,-2.0679,-0.6807,0.8748,
11.377882,0.2488,-1.1847,-0.3852,1.5135,0.0677,-5.5155,-3.1427,-3.0040,1.2083,
11.380708,0.2488,-1.1847,-0.3852,2.4529,-1.9109,-1.7047,-3.1427,-3.0040,1.2083,
11.382094,0.3226,-1.1124,-0.1654,2.4529,-1.9109,-1.7047,-3.1427,-3.0040,1.2083,
11.382964,0.1848,-1.1815,-0.2252,2.4529,-1.9109,-1.7047,-3.1427,-3.0040,1.2083,
11.384065,0.1966,-1.3454,-0.4837,2.4529,-1.9109,-1.7047,-3.1427,-3.0040,1.2083,
11.385234,0.5640,-1.4534,-0.2934,2.4529,-1.9109,-1.7047,-3.1427,-3.0040,1.2083,
11.416537,0.5640,-1.4534,-0.2934,2.4529,-1.9109,-1.7047,-4.0567,-2.2019,0.7374,
11.418883,0.5640,-1.4534,-0.2934,2.8548,-2.1950,-0.1527,-4.0567,-2.2019,0.7374,
11.456299,0.5640,-1.4534,-0.2934,2.8548,-2.1950,-0.1527,-2.7731,-0.4059,-0.3193,
11.459526,0.5640,-1.4534,-0.2934,5.1848,-6.8323,4.8233,-2.7731,-0.4059,-0.3193,
11.461914,0.5095,-1.6943,0.2732,5.1848,-6.8323,4.8233,-2.7731,-0.4059,-0.3193,
11.463982,0.3930,-1.8404,0.3768,5.1848,-6.8323,4.8233,-2.7731,-0.4059,-0.3193,
11.466698,0.4692,-1.7275,0.2693,5.1848,-6.8323,4.8233,-2.7731,-0.4059,-0.3193,
11.468710,0.6170,-1.3640,0.4000,5.1848,-6.8323,4.8233,-2.7731,-0.4059,-0.3193,
11.496200,0.6170,-1.3640,0.4000,5.1848,-6.8323,4.8233,-1.0783,-2.9412,-0.8370,
11.498443,0.6170,-1.3640,0.4000,5.2418,-6.8651,5.0847,-1.0783,-2.9412,-0.8370,
11.535878,0.6170,-1.3640,0.4000,6.6397,-3.8292,6.5680,-1.0783,-2.9412,-0.8370,
11.537480,0.6170,-1.3640,0.4000,6.6397,-3.8292,6.5680,-0.0482,-4.1364,-1.3643,
11.538211,0.8019,-0.9934,0.1962,6.6397,-3.8292,6.5680,-0.0482,-4.1364,-1.3643,
11.538885,0.7250,-0.8588,0.2231,6.6397,-3.8292,6.5680,-0.0482,-4.1364,-1.3643,
11.539541,0.4895,-0.7711,0.4488,6.6397,-3.8292,6.5680,-0.0482,-4.1364,-1.3643,
11.540213,0.3400,-0.6712,0.5075,6.6397,-3.8292,6.5680,-0.0482,-4.1364,-1.3643,
11.575644,0.3400,-0.6712,0.5075,6.6397,-3.8292,6.5680,0.5324,-4.4720,-1.4293,
11.578402,0.3400,-0.6712,0.5075,5.5540,2.0687,7.1769,0.5324,-4.4720,-1.4293,
11.615383,0.3400,-0.6712,0.5075,5.5540,2.0687,7.1769,0.7305,-5.0025,-1.1768,
11.617967,0.3400,-0.6712,0.5075,2.0491,5.0358,10.8991,0.7305,-5.0025,-1.1768,
11.619394,0.3082,-0.5082,0.7029,2.0491,5.0358,10.8991,0.7305,-5.0025,-1.1768,
11.620710,0.1875,-0.3968,0.9592,2.0491,5.0358,10.8991,0.7305,-5.0025,-1.1768,
11.621846,-0.0563,-0.4972,0.8326,2.0491,5.0358,10.8991,0.7305,-5.0025,-1.1768,
11.622963,-0.1863,-0.5930,0.4996,2.0491,5.0358,10.8991,0.7305,-5.0025,-1.1768,
11.654547,-0.1863,-0.5930,0.4996,2.0491,5.0358,10.8991,0.7487,-4.7298,-1.4251,
11.657552,-0.1863,-0.5930,0.4996,1.9480,5.0594,10.3251,0.7487,-4.7298,-1.4251,
11.694971,-0.1863,-0.5930,0.4996,1.9480,5.0594,10.3251,1.7553,-6.8891,-1.3441,
11.699222,-0.1863,-0.5930,0.4996,-4.5659,0.4504,4.0587,1.7553,-6.8891,-1.3441,
11.700771,-0.3595,-0.7906,0.3780,-4.5659,0.4504,4.0587,1.7553,-6.8891,-1.3441,
11.702074,-1.0233,-1.4730,-0.0312,-4.5659,0.4504,4.0587,1.7553,-6.8891,-1.3441,
11.703194,-1.5253,-1.5609,-0.1886,-4.5659,0.4504,4.0587,1.7553,-6.8891,-1.3441,
11.704449,-0.7570,-1.2091,-0.7348,-4.5659,0.4504,4.0587,1.7553,-6.8891,-1.3441,
11.733778,-0.7570,-1.2091,-0.7348,-4.5659,0.4504,4.0587,-0.0588,-2.1220,0.7587,
11.735908,-0.7570,-1.2091,-0.7348,-4.1002,0.4166,3.9608,-0.0588,-2.1220,0.7587,
11.774288,-0.7570,-1.2091,-0.7348,-4.1002,0.4166,3.9608,-2.0423,-2.1508,1.2583,
11.777379,-0.7570,-1.2091,-0.7348,-6.0756,-4.9683,-5.5351,-2.0423,-2.1508,1.2583,
11.779397,-0.1091,-1.7026,-1.3710,-6.0756,-4.9683,-5.5351,-2.0423,-2.1508,1.2583,
11.781013,0.1340,-1.5509,-0.6962,-6.0756,-4.9683,-5.5351,-2.0423,-2.1508,1.2583,
11.782253,0.6656,-1.2658,0.4738,-6.0756,-4.9683,-5.5351,-2.0423,-2.1508,1.2583,
11.783456,1.2126,-1.1571,0.8390,-6.0756,-4.9683,-5.5351,-2.0423,-2.1508,1.2583,
11.813012,1.2126,-1.1571,0.8390,-6.0756,-4.9683,-5.5351,-0.1984,-3.6911,-0.0232,
11.814979,1.2126,-1.1571,0.8390,8.4388,-3.2963,3.7066,-0.1984,-3.6911,-0.0232,
11.854035,1.2126,-1.1571,0.8390,8.4388,-3.2963,3.7066,1.4485,-1.3742,-1.4208,
11.856860,1.2126,-1.1571,0.8390,4.7010,-1.3304,2.6997,1.4485,-1.3742,-1.4208,
11.858293,0.9573,-1.0401,0.4628,4.7010,-1.3304,2.6997,1.4485,-1.3742,-1.4208,
11.859250,0.2427,-1.1209,0.1730,4.7010,-1.3304,2.6997,1.4485,-1.3742,-1.4208,
11.860229,-0.1640,-1.2700,-0.1123,4.7010,-1.3304,2.6997,1.4485,-1.3742,-1.4208,
11.861604,-0.3304,-1.1656,-0.2711,4.7010,-1.3304,2.6997,1.4485,-1.3742,-1.4208,
11.892799,-0.3304,-1.1656,-0.2711,4.7010,-1.3304,2.6997,0.7220,-2.5140,-0.6570,
11.895680,-0.3304,-1.1656,-0.2711,4.4427,-1.2545,2.2589,0.7220,-2.5140,-0.6570,
11.933391,-0.3304,-1.1656,-0.2711,-1.3635,0.9840,-1.7088,0.7220,-2.5140,-0.6570,
11.936065,-0.3304,-1.1656,-0.2711,-1.3635,0.9840,-1.7088,-0.2793,-3.6166,0.4168,
11.938803,-0.3365,-0.8603,-0.2169,-1.3635,0.9840,-1.7088,-0.2793,-3.6166,0.4168,
11.940111,-0.1535,-0.7071,-0.1954,-1.3635,0.9840,-1.7088,-0.2793,-3.6166,0.4168,
11.941485,0.1616,-0.7249,-0.0950,-1.3635,0.9840,-1.7088,-0.2793,-3.6166,0.4168,
11.942696,0.2899,-0.8346,0.0770,-1.3635,0.9840,-1.7088,-0.2793,-3.6166,0.4168,
11.971421,0.2899,-0.8346,0.0770,-1.3635,0.9840,-1.7088,-0.7938,-3.0861,0.2357,
11.974456,0.2899,-0.8346,0.0770,-1.1809,0.9367,-1.5428,-0.7938,-3.0861,0.2357,
12.011863,0.2899,-0.8346,0.0770,-1.1809,0.9367,-1.5428,-1.0282,-2.1508,-0.3278,
12.014264,0.2899,-0.8346,0.0770,3.5344,2.0788,1.4644,-1.0282,-2.1508,-0.3278,
12.015702,0.2080,-0.8087,0.1786,3.5344,2.0788,1.4644,-1.0282,-2.1508,-0.3278,
12.016946,0.0764,-0.8265,0.1882,3.5344,2.0788,1.4644,-1.0282,-2.1508,-0.3278,
12.018868,-0.2222,-1.0872,-0.0075,3.5344,2.0788,1.4644,-1.0282,-2.1508,-0.3278,
12.020143,-0.6167,-1.3753,-0.4329,3.5344,2.0788,1.4644,-1.0282,-2.1508,-0.3278,
12.051543,-0.6167,-1.3753,-0.4329,-1.4391,-0.9519,0.7424,-1.0282,-2.1508,-0.3278,
12.054073,-0.6167,-1.3753,-0.4329,-1.4391,-0.9519,0.7424,-1.6311,0.1822,-0.8722,
12.091202,-0.6167,-1.3753,-0.4329,-1.4391,-0.9519,0.7424,-2.5696,2.2626,-0.5569,
12.093797,-0.6167,-1.3753,-0.4329,-9.7446,-1.5335,-1.0481,-2.5696,2.2626,-0.5569,
12.095204,-0.9597,-1.4476,-0.8015,-9.7446,-1.5335,-1.0481,-2.5696,2.2626,-0.5569,
12.096512,-1.2099,-1.1808,-0.4607,-9.7446,-1.5335,-1.0481,-2.5696,2.2626,-0.5569,
12.098243,-1.0614,-0.7872,0.1312,-9.7446,-1.5335,-1.0481,-2.5696,2.2626,-0.5569,
12.099553,-0.5618,-0.7186,0.2817,-9.7446,-1.5335,-1.0481,-2.5696,2.2626,-0.5569,
12.129816,-0.5618,-0.7186,0.2817,-9.7446,-1.5335,-1.0481,-1.7089,1.7353,0.4136,
12.131902,-0.5618,-0.7186,0.2817,-9.6329,-1.7195,-0.3452,-1.7089,1.7353,0.4136,
12.170755,-0.5618,-0.7186,0.2817,-9.6329,-1.7195,-0.3452,-0.4082,1.6991,0.0301,
12.173430,-0.5618,-0.7186,0.2817,-0.8146,0.0801,4.3928,-0.4082,1.6991,0.0301,
12.174944,-0.1152,-0.9497,0.1564,-0.8146,0.0801,4.3928,-0.4082,1.6991,0.0301,
12.176056,0.2097,-1.1786,-0.1595,-0.8146,0.0801,4.3928,-0.4082,1.6991,0.0301,
12.177369,0.2684,-1.1957,-0.2467,-0.8146,0.0801,4.3928,-0.4082,1.6991,0.0301,
12.178666,0.0175,-0.9844,-0.1768,-0.8146,0.0801,4.3928,-0.4082,1.6991,0.0301,
12.209284,0.0175,-0.9844,-0.1768,-0.8146,0.0801,4.3928,0.4035,2.1891,-0.8541,
12.211182,0.0175,-0.9844,-0.1768,-1.4090,0.1456,4.2076,0.4035,2.1891,-0.8541,
12.249241,0.0175,-0.9844,-0.1768,-1.4090,0.1456,4.2076,1.3111,2.9306,-0.7081,
12.251937,0.0175,-0.9844,-0.1768,-0.1345,-0.0463,1.1858,1.3111,2.9306,-0.7081,
12.253298,-0.1731,-0.7725,-0.0579,-0.1345,-0.0463,1.1858,1.3111,2.9306,-0.7081,
12.254545,-0.2222,-0.5705,-0.0068,-0.1345,-0.0463,1.1858,1.3111,2.9306,-0.7081,
12.255542,-0.1848,-0.3384,0.1317,-0.1345,-0.0463,1.1858,1.3111,2.9306,-0.7081,
12.256640,-0.0595,-0.1789,0.2646,-0.1345,-0.0463,1.1858,1.3111,2.9306,-0.7081,
12.289447,-0.0595,-0.1789,0.2646,-0.1345,-0.0463,1.1858,1.9609,4.1950,-0.1979,
12.291877,-0.0595,-0.1789,0.2646,-2.4480,6.1173,3.0979,1.9609,4.1950,-0.1979,
12.328519,-0.0595,-0.1789,0.2646,-2.4480,6.1173,3.0979,1.9854,2.8496,-0.2565,
12.331396,-0.0595,-0.1789,0.2646,-2.3580,4.8166,-1.3122,1.9854,2.8496,-0.2565,
12.332762,0.0216,-0.0856,0.1491,-2.3580,4.8166,-1.3122,1.9854,2.8496,-0.2565,
12.334166,-0.1264,-0.3279,-0.2274,-2.3580,4.8166,-1.3122,1.9854,2.8496,-0.2565,
12.335568,-0.2671,-1.0774,-0.6183,-2.3580,4.8166,-1.3122,1.9854,2.8496,-0.2565,
12.337451,0.2882,-1.9599,-0.8589,-2.3580,4.8166,-1.3122,1.9854,2.8496,-0.2565,
12.368441,0.2882,-1.9599,-0.8589,-2.3580,4.8166,-1.3122,0.9095,3.6890,-0.3055,
12.370959,0.2882,-1.9599,-0.8589,-2.5289,4.7469,-1.8148,0.9095,3.6890,-0.3055,
12.408793,0.2882,-1.9599,-0.8589,-2.5289,4.7469,-1.8148,-0.7821,5.9623,-0.8935,
12.411749,0.2882,-1.9599,-0.8589,-0.2946,-10.5708,-4.9354,-0.7821,5.9623,-0.8935,
12.413960,0.4338,-2.1419,-0.5553,-0.2946,-10.5708,-4.9354,-0.7821,5.9623,-0.8935,
12.415797,-0.2791,-2.1128,-0.2440,-0.2946,-10.5708,-4.9354,-0.7821,5.9623,-0.8935,
12.418056,-0.9143,-1.8130,-0.5865,-0.2946,-10.5708,-4.9354,-0.7821,5.9623,-0.8935,
12.419555,-0.6566,-0.5153,0.2546,-0.2946,-10.5708,-4.9354,-0.7821,5.9623,-0.8935,
12.446899,-0.6566,-0.5153,0.2546,-0.2946,-10.5708,-4.9354,-0.5297,4.6339,-0.3768,
12.449248,-0.6566,-0.5153,0.2546,-0.5080,-10.4304,-4.9900,-0.5297,4.6339,-0.3768,
12.488010,-0.6566,-0.5153,0.2546,-0.5080,-10.4304,-4.9900,-0.8897,3.8339,2.3460,
12.491155,-0.6566,-0.5153,0.2546,-7.9871,1.2620,1.3212,-0.8897,3.8339,2.3460,
12.492650,-0.5794,-0.3391,0.5812,-7.9871,1.2620,1.3212,-0.8897,3.8339,2.3460,
12.494096,-0.5156,-0.9993,0.3575,-7.9871,1.2620,1.3212,-0.8897,3.8339,2.3460,
12.495312,0.0226,-1.8365,0.8234,-7.9871,1.2620,1.3212,-0.8897,3.8339,2.3460,
12.496698,1.0399,-2.2479,0.9052,-7.9871,1.2620,1.3212,-0.8897,3.8339,2.3460,
12.526236,1.0399,-2.2479,0.9052,-7.9871,1.2620,1.3212,1.4166,0.3899,2.1255,
12.528167,1.0399,-2.2479,0.9052,1.6280,-6.4633,6.6285,1.4166,0.3899,2.1255,
12.566658,1.0399,-2.2479,0.9052,1.6280,-6.4633,6.6285,2.4115,2.1060,0.0184,
12.569452,1.0399,-2.2479,0.9052,9.5588,-1.8549,-4.0557,2.4115,2.1060,0.0184,
12.571136,1.3810,-1.9596,0.3245,9.5588,-1.8549,-4.0557,2.4115,2.1060,0.0184,
12.572470,1.0006,-1.0774,-0.4378,9.5588,-1.8549,-4.0557,2.4115,2.1060,0.0184,
12.573467,0.6224,-0.6260,-0.7947,9.5588,-1.8549,-4.0557,2.4115,2.1060,0.0184,
12.574543,0.2606,-0.7093,-0.5699,9.5588,-1.8549,-4.0557,2.4115,2.1060,0.0184,
12.605555,0.2606,-0.7093,-0.5699,9.5588,-1.8549,-4.0557,0.6783,2.8645,-0.6932,
12.608126,0.2606,-0.7093,-0.5699,9.2728,-1.8651,-4.2889,0.6783,2.8645,-0.6932,
12.645521,0.2606,-0.7093,-0.5699,9.2728,-1.8651,-4.2889,0.2522,1.1803,0.0567,
12.648435,0.2606,-0.7093,-0.5699,-0.1799,2.3573,-5.6159,0.2522,1.1803,0.0567,
12.649828,-0.0995,-0.8651,-0.3505,-0.1799,2.3573,-5.6159,0.2522,1.1803,0.0567,
12.651342,-0.0785,-0.7799,-0.3845,-0.1799,2.3573,-5.6159,0.2522,1.1803,0.0567,
12.653471,0.1780,-0.6675,-0.3527,-0.1799,2.3573,-5.6159,0.2522,1.1803,0.0567,
12.654710,0.3668,-0.5747,-0.3278,-0.1799,2.3573,-5.6159,0.2522,1.1803,0.0567,
12.685406,0.3668,-0.5747,-0.3278,-0.1799,2.3573,-5.6159,0.2139,1.4349,0.1441,
12.688096,0.3668,-0.5747,-0.3278,-0.0416,2.3085,-5.6275,0.2139,1.4349,0.1441,
12.724986,0.3668,-0.5747,-0.3278,-0.0416,2.3085,-5.6275,0.4056,0.8458,0.1941,
12.727537,0.3668,-0.5747,-0.3278,2.6207,4.2963,-4.7497,0.4056,0.8458,0.1941,
12.728895,0.3280,-0.4747,-0.3285,2.6207,4.2963,-4.7497,0.4056,0.8458,0.1941,
12.730048,0.0793,-0.5915,-0.3415,2.6207,4.2963,-4.7497,0.4056,0.8458,0.1941,
12.731545,0.0092,-0.8336,-0.4883,2.6207,4.2963,-4.7497,0.4056,0.8458,0.1941,
12.732946,0.1856,-0.9712,-0.7874,2.6207,4.2963,-4.7497,0.4056,0.8458,0.1941,
12.764451,0.1856,-0.9712,-0.7874,2.6207,4.2963,-4.7497,-0.8460,-0.4826,0.7513,
12.767448,0.1856,-0.9712,-0.7874,0.9207,2.0874,-6.2955,-0.8460,-0.4826,0.7513,
12.803987,0.1856,-0.9712,-0.7874,0.9207,2.0874,-6.2955,-4.2687,-1.7289,0.5957,
12.806532,0.1856,-0.9712,-0.7874,4.7022,-7.4114,-8.6358,-4.2687,-1.7289,0.5957,
12.808129,0.3429,-1.3848,-1.0180,4.7022,-7.4114,-8.6358,-4.2687,-1.7289,0.5957,
12.809146,0.5076,-1.9450,-1.1123,4.7022,-7.4114,-8.6358,-4.2687,-1.7289,0.5957,
12.810485,0.5376,-2.0210,-0.7602,4.7022,-7.4114,-8.6358,-4.2687,-1.7289,0.5957,
12.811762,0.1973,-1.7950,-0.0278,4.7022,-7.4114,-8.6358,-4.2687,-1.7289,0.5957,
12.844217,0.1973,-1.7950,-0.0278,4.7022,-7.4114,-8.6358,-5.2328,-1.1686,-0.0264,
12.846703,0.1973,-1.7950,-0.0278,4.6929,-7.6620,-6.4798,-5.2328,-1.1686,-0.0264,
12.883555,0.1973,-1.7950,-0.0278,4.6929,-7.6620,-6.4798,-3.2855,-0.6850,0.0226,
12.886145,0.1973,-1.7950,-0.0278,-0.1855,-8.2685,7.1819,-3.2855,-0.6850,0.0226,
12.887838,-0.2957,-1.8077,0.5519,-0.1855,-8.2685,7.1819,-3.2855,-0.6850,0.0226,
12.889131,-0.0402,-1.8336,0.4242,-0.1855,-8.2685,7.1819,-3.2855,-0.6850,0.0226,
12.891049,0.6527,-1.5753,0.4283,-0.1855,-8.2685,7.1819,-3.2855,-0.6850,0.0226,
12.892196,0.9085,-1.3137,0.4557,-0.1855,-8.2685,7.1819,-3.2855,-0.6850,0.0226,
12.923206,0.9085,-1.3137,0.4557,-0.1855,-8.2685,7.1819,-1.7291,-3.3726,-0.7305,
12.925679,0.9085,-1.3137,0.4557,0.1407,-8.4141,7.6357,-1.7291,-3.3726,-0.7305,
12.964292,0.9085,-1.3137,0.4557,0.1407,-8.4141,7.6357,-0.8215,-3.0296,-1.2109,
12.967189,0.9085,-1.3137,0.4557,8.1502,-3.7023,7.0675,-0.8215,-3.0296,-1.2109,
12.968679,0.7587,-1.0875,-0.1409,8.1502,-3.7023,7.0675,-0.8215,-3.0296,-1.2109,
12.969722,0.4795,-1.0225,-0.3659,8.1502,-3.7023,7.0675,-0.8215,-3.0296,-1.2109,
12.971338,0.2804,-0.8446,0.1930,8.1502,-3.7023,7.0675,-0.8215,-3.0296,-1.2109,
12.972618,0.1765,-0.5852,0.7391,8.1502,-3.7023,7.0675,-0.8215,-3.0296,-1.2109,
13.002431,0.1765,-0.5852,0.7391,8.1502,-3.7023,7.0675,-0.1824,-3.3758,-1.3249,
13.005702,0.1765,-0.5852,0.7391,3.7033,1.2555,6.3634,-0.1824,-3.3758,-1.3249,
13.041903,-0.1315,-0.4229,0.8177,3.7033,1.2555,6.3634,-0.1824,-3.3758,-1.3249,
13.044317,-0.4303,-0.2993,0.6218,3.7033,1.2555,6.3634,-0.1824,-3.3758,-1.3249,
13.045749,-0.5679,-0.2856,0.4733,3.7033,1.2555,6.3634,-0.1824,-3.3758,-1.3249,
13.047233,-0.5679,-0.2856,0.4733,3.7033,1.2555,6.3634,0.6464,-4.0075,-1.1875,
13.048661,-0.5679,-0.2856,0.4733,-2.7461,6.0182,10.2281,0.6464,-4.0075,-1.1875,
13.082034,-0.5679,-0.2856,0.4733,-2.7461,6.0182,10.2281,1.2930,-4.7585,-0.4748,
13.084743,-0.5679,-0.2856,0.4733,0.6609,1.9896,4.1494,1.2930,-4.7585,-0.4748,
13.122263,-0.5679,-0.2856,0.4733,0.6609,1.9896,4.1494,1.1673,-3.9969,-0.7763,
13.124931,-0.5679,-0.2856,0.4733,0.8062,2.1337,3.4033,1.1673,-3.9969,-0.7763,
13.126104,-0.3634,-0.4447,0.2856,0.8062,2.1337,3.4033,1.1673,-3.9969,-0.7763,
13.127594,-0.0030,-0.7293,0.1168,0.8062,2.1337,3.4033,1.1673,-3.9969,-0.7763,
13.128926,0.1264,-1.1202,-0.1126,0.8062,2.1337,3.4033,1.1673,-3.9969,-0.7763,
13.130150,0.0637,-1.4598,-0.2877,0.8062,2.1337,3.4033,1.1673,-3.9969,-0.7763,
13.131310,-0.1445,-1.6711,-0.2179,0.8062,2.1337,3.4033,1.1673,-3.9969,-0.7763,
13.161108,-0.1445,-1.6711,-0.2179,0.8062,2.1337,3.4033,0.0541,-1.2091,-1.5465,
13.163578,-0.1445,-1.6711,-0.2179,0.3209,2.1865,3.2563,0.0541,-1.2091,-1.5465,
13.200818,-0.1445,-1.6711,-0.2179,0.3209,2.1865,3.2563,0.1468,0.4410,-1.4453,
13.203864,-0.1445,-1.6711,-0.2179,-1.1343,-5.4940,0.5087,0.1468,0.4410,-1.4453,
13.205295,-0.4281,-1.5614,-0.0290,-1.1343,-5.4940,0.5087,0.1468,0.4410,-1.4453,
13.206431,-0.7655,-1.1791,0.0448,-1.1343,-5.4940,0.5087,0.1468,0.4410,-1.4453,
13.207777,-1.1080,-0.8475,-0.1255,-1.1343,-5.4940,0.5087,0.1468,0.4410,-1.4453,
13.209070,-1.2148,-0.7662,-0.0984,-1.1343,-5.4940,0.5087,0.1468,0.4410,-1.4453,
13.240041,-1.2148,-0.7662,-0.0984,-1.1343,-5.4940,0.5087,-0.1249,1.1803,-0.0008,
13.242703,-1.2148,-0.7662,-0.0984,-9.5063,0.6885,1.7096,-0.1249,1.1803,-0.0008,
13.280155,-0.9150,-0.9179,-0.0789,-9.5063,0.6885,1.7096,-0.1249,1.1803,-0.0008,
13.282899,-0.3930,-1.1818,0.0841,-9.5063,0.6885,1.7096,-0.1249,1.1803,-0.0008,
13.284661,0.1020,-1.3694,0.1906,-9.5063,0.6885,1.7096,-0.1249,1.1803,-0.0008,
13.285996,0.1020,-1.3694,0.1906,-9.5063,0.6885,1.7096,-0.5424,0.1747,1.1859,
13.287642,0.1020,-1.3694,0.1906,-2.8653,-1.5829,3.0960,-0.5424,0.1747,1.1859,
13.319361,0.1020,-1.3694,0.1906,-2.8653,-1.5829,3.0960,0.1234,1.1537,0.7864,
13.322246,0.1020,-1.3694,0.1906,2.4688,-1.2135,1.9319,0.1234,1.1537,0.7864,
13.360594,0.1020,-1.3694,0.1906,2.4688,-1.2135,1.9319,0.3875,1.7044,0.5404,
13.363136,0.1020,-1.3694,0.1906,2.4733,-1.1835,1.8361,0.3875,1.7044,0.5404,
13.364578,0.3598,-1.3489,-0.0193,2.4733,-1.1835,1.8361,0.3875,1.7044,0.5404,
13.365631,0.1729,-1.0980,-0.1013,2.4733,-1.1835,1.8361,0.3875,1.7044,0.5404,
13.366924,-0.1511,-0.9079,-0.0322,2.4733,-1.1835,1.8361,0.3875,1.7044,0.5404,
13.368247,-0.4780,-0.8326,-0.0144,2.4733,-1.1835,1.8361,0.3875,1.7044,0.5404,
13.369211,-0.5987,-0.7667,-0.0461,2.4733,-1.1835,1.8361,0.3875,1.7044,0.5404,
13.398871,-0.5987,-0.7667,-0.0461,2.4733,-1.1835,1.8361,0.5995,0.4698,1.2615,
13.401776,-0.5987,-0.7667,-0.0461,2.8703,-1.1822,1.6015,0.5995,0.4698,1.2615,
13.438633,-0.5987,-0.7667,-0.0461,2.8703,-1.1822,1.6015,0.9063,0.7723,1.3095,
13.441214,-0.5987,-0.7667,-0.0461,-2.5624,1.9630,1.5975,0.9063,0.7723,1.3095,
13.442575,-0.3551,-0.7745,0.0047,-2.5624,1.9630,1.5975,0.9063,0.7723,1.3095,
13.444148,0.0568,-0.7845,0.1114,-2.5624,1.9630,1.5975,0.9063,0.7723,1.3095,
13.445297,0.1592,-0.8490,0.0682,-2.5624,1.9630,1.5975,0.9063,0.7723,1.3095,
13.446374,0.1303,-0.9717,0.0435,-2.5624,1.9630,1.5975,0.9063,0.7723,1.3095,
13.477853,0.1303,-0.9717,0.0435,-2.5624,1.9630,1.5975,1.2674,1.2474,0.5595,
13.480606,0.1303,-0.9717,0.0435,3.3267,1.2177,2.0943,1.2674,1.2474,0.5595,
13.517688,0.1303,-0.9717,0.0435,3.3267,1.2177,2.0943,0.9148,-0.9896,0.2240,
13.520129,0.1303,-0.9717,0.0435,-0.4589,-2.6833,-4.1175,0.9148,-0.9896,0.2240,
13.521529,0.0453,-1.1138,0.0193,-0.4589,-2.6833,-4.1175,0.9148,-0.9896,0.2240,
13.522849,-0.3697,-1.3086,-0.5592,-0.4589,-2.6833,-4.1175,0.9148,-0.9896,0.2240,
13.524358,-0.5298,-1.3977,-1.0243,-0.4589,-2.6833,-4.1175,0.9148,-0.9896,0.2240,
13.525629,-0.1352,-1.0188,-0.6970,-0.4589,-2.6833,-4.1175,0.9148,-0.9896,0.2240,
13.557243,-0.1352,-1.0188,-0.6970,-0.4149,-2.6596,-3.9345,0.9148,-0.9896,0.2240,
13.559860,-0.1352,-1.0188,-0.6970,-0.4149,-2.6596,-3.9345,-0.1313,0.6978,0.1686,
13.597165,-0.1352,-1.0188,-0.6970,-0.4149,-2.6596,-3.9345,0.0520,2.0677,-0.1766,
13.599600,-0.1352,-1.0188,-0.6970,1.5272,-0.0998,-2.3774,0.0520,2.0677,-0.1766,
13.601210,0.0385,-0.8451,-0.3833,1.5272,-0.0998,-2.3774,0.0520,2.0677,-0.1766,
13.602504,-0.1022,-1.1788,-0.0710,1.5272,-0.0998,-2.3774,0.0520,2.0677,-0.1766,
13.603839,-0.2427,-1.3281,0.3013,1.5272,-0.0998,-2.3774,0.0520,2.0677,-0.1766,
13.605132,0.0111,-1.1837,0.0587,1.5272,-0.0998,-2.3774,0.0520,2.0677,-0.1766,
13.636310,0.0111,-1.1837,0.0587,1.5272,-0.0998,-2.3774,0.9393,0.5593,0.1409,
13.638796,0.0111,-1.1837,0.0587,1.5267,-0.0648,-2.6514,0.9393,0.5593,0.1409,
13.676154,0.0111,-1.1837,0.0587,1.5267,-0.0648,-2.6514,0.7689,-0.3643,-0.0786,
13.679352,0.0111,-1.1837,0.0587,2.5883,-1.3815,0.9164,0.7689,-0.3643,-0.0786,
13.680896,0.3766,-0.9521,-0.3124,2.5883,-1.3815,0.9164,0.7689,-0.3643,-0.0786,
13.682338,0.4531,-0.7518,-0.2660,2.5883,-1.3815,0.9164,0.7689,-0.3643,-0.0786,
13.683786,0.3343,-0.6924,-0.0271,2.5883,-1.3815,0.9164,0.7689,-0.3643,-0.0786,
13.685265,0.1748,-0.7682,0.0088,2.5883,-1.3815,0.9164,0.7689,-0.3643,-0.0786,
13.715812,0.1748,-0.7682,0.0088,2.5883,-1.3815,0.9164,1.1481,-0.2194,-0.4461,
13.718430,0.1748,-0.7682,0.0088,5.0017,2.7206,-0.6281,1.1481,-0.2194,-0.4461,
13.755483,0.1748,-0.7682,0.0088,5.0017,2.7206,-0.6281,1.1215,-0.0479,-0.0455,
13.758015,0.1748,-0.7682,0.0088,0.9993,0.0977,-2.9292,1.1215,-0.0479,-0.0455,
13.759888,-0.0397,-0.9365,-0.1632,0.9993,0.0977,-2.9292,1.1215,-0.0479,-0.0455,
13.761284,-0.1545,-1.0388,-0.3378,0.9993,0.0977,-2.9292,1.1215,-0.0479,-0.0455,
13.762572,-0.0583,-1.0415,-0.3664,0.9993,0.0977,-2.9292,1.1215,-0.0479,-0.0455,
13.763862,0.0937,-1.0562,-0.3992,0.9993,0.0977,-2.9292,1.1215,-0.0479,-0.0455,
13.794646,0.0937,-1.0562,-0.3992,1.1541,0.0585,-3.0972,1.1215,-0.0479,-0.0455,
13.796874,0.0937,-1.0562,-0.3992,1.1541,0.0585,-3.0972,0.4078,-0.7925,0.4626,
13.836073,0.0937,-1.0562,-0.3992,1.1541,0.0585,-3.0972,-0.8183,-1.4040,0.4445,
13.838821,0.0937,-1.0562,-0.3992,3.7132,-0.6406,-4.6881,-0.8183,-1.4040,0.4445,
13.840148,0.1931,-1.0711,-0.4627,3.7132,-0.6406,-4.6881,-0.8183,-1.4040,0.4445,
13.841430,0.2132,-1.0975,-0.5799,3.7132,-0.6406,-4.6881,-0.8183,-1.4040,0.4445,
13.842528,0.1352,-1.2289,-0.6567,3.7132,-0.6406,-4.6881,-0.8183,-1.4040,0.4445,
13.843981,0.0578,-1.3877,-0.7099,3.7132,-0.6406,-4.6881,-0.8183,-1.4040,0.4445,
13.874457,0.0578,-1.3877,-0.7099,3.7132,-0.6406,-4.6881,-2.7816,-2.1316,0.5297,
13.876644,0.0578,-1.3877,-0.7099,3.8913,-0.7259,-3.7251,-2.7816,-2.1316,0.5297,
13.915209,0.0578,-1.3877,-0.7099,3.8913,-0.7259,-3.7251,-4.8727,-1.8003,0.3774,
13.918584,0.0578,-1.3877,-0.7099,3.5934,-3.4695,-4.8585,-4.8727,-1.8003,0.3774,
13.921946,0.1521,-1.3469,-0.9652,3.5934,-3.4695,-4.8585,-4.8727,-1.8003,0.3774,
13.923495,0.0886,-1.3528,-1.0617,3.5934,-3.4695,-4.8585,-4.8727,-1.8003,0.3774,
13.926006,-0.1298,-1.3975,-0.4864,3.5934,-3.4695,-4.8585,-4.8727,-1.8003,0.3774,
13.927618,-0.1186,-1.2660,0.3044,3.5934,-3.4695,-4.8585,-4.8727,-1.8003,0.3774,
13.954105,-0.1186,-1.2660,0.3044,3.5934,-3.4695,-4.8585,-4.0184,-0.0042,-0.0764,
13.957417,-0.1186,-1.2660,0.3044,1.8768,-4.1198,0.1615,-4.0184,-0.0042,-0.0764,
13.993850,-0.1186,-1.2660,0.3044,1.8768,-4.1198,0.1615,-2.1116,-0.3931,-0.9638,
13.996327,-0.1186,-1.2660,0.3044,7.7198,-1.4845,9.8000,-2.1116,-0.3931,-0.9638,
13.997729,0.2286,-1.1136,0.6821,7.7198,-1.4845,9.8000,-2.1116,-0.3931,-0.9638,
13.998969,0.6395,-0.9792,0.7056,7.7198,-1.4845,9.8000,-2.1116,-0.3931,-0.9638,
14.000219,0.8813,-1.0335,0.1542,7.7198,-1.4845,9.8000,-2.1116,-0.3931,-0.9638,
14.001551,0.9527,-1.2509,-0.5758,7.7198,-1.4845,9.8000,-2.1116,-0.3931,-0.9638,
14.033265,0.9527,-1.2509,-0.5758,7.7198,-1.4845,9.8000,-1.3318,-0.9417,-2.3135,
14.036203,0.9527,-1.2509,-0.5758,6.9942,-1.5642,10.0242,-1.3318,-0.9417,-2.3135,
14.074229,0.9527,-1.2509,-0.5758,6.9942,-1.5642,10.0242,-1.1837,-1.8930,-3.2871,
14.076714,0.9527,-1.2509,-0.5758,5.9704,-3.8354,1.3000,-1.1837,-1.8930,-3.2871,
14.078188,0.5774,-1.3117,-0.5555,5.9704,-3.8354,1.3000,-1.1837,-1.8930,-3.2871,
14.079347,0.1604,-1.2409,-0.0935,5.9704,-3.8354,1.3000,-1.1837,-1.8930,-3.2871,
14.080485,-0.0451,-1.2116,0.2307,5.9704,-3.8354,1.3000,-1.1837,-1.8930,-3.2871,
14.081750,-0.2969,-1.2497,0.2282,5.9704,-3.8354,1.3000,-1.1837,-1.8930,-3.2871,
14.112058,-0.2969,-1.2497,0.2282,5.9704,-3.8354,1.3000,0.2384,-1.8056,-3.4384,
14.114795,-0.2969,-1.2497,0.2282,5.0910,-3.7153,1.1939,0.2384,-1.8056,-3.4384,
14.152613,-0.2969,-1.2497,0.2282,5.0910,-3.7153,1.1939,0.6677,-1.6618,-2.5766,
14.155574,-0.2969,-1.2497,0.2282,-3.5633,-3.2422,6.4225,0.6677,-1.6618,-2.5766,
14.156890,-0.4653,-1.2333,0.0064,-3.5633,-3.2422,6.4225,0.6677,-1.6618,-2.5766,
14.158135,-0.4399,-1.0041,-0.1483,-3.5633,-3.2422,6.4225,0.6677,-1.6618,-2.5766,
14.159452,-0.3079,-0.6111,-0.1605,-3.5633,-3.2422,6.4225,0.6677,-1.6618,-2.5766,
14.160762,-0.3106,-0.4977,-0.1150,-3.5633,-3.2422,6.4225,0.6677,-1.6618,-2.5766,
14.190630,-0.3106,-0.4977,-0.1150,-3.5633,-3.2422,6.4225,0.7945,-0.8831,-1.6509,
14.193429,-0.3106,-0.4977,-0.1150,-4.7153,1.9681,3.2236,0.7945,-0.8831,-1.6509,
14.231149,-0.3106,-0.4977,-0.1150,-4.7153,1.9681,3.2236,1.5700,-0.2631,-0.7689,
14.234350,-0.3106,-0.4977,-0.1150,-4.5867,0.7629,2.4319,1.5700,-0.2631,-0.7689,
14.235907,-0.3649,-0.7032,-0.1202,-4.5867,0.7629,2.4319,1.5700,-0.2631,-0.7689,
14.237269,-0.3311,-0.9101,-0.1307,-4.5867,0.7629,2.4319,1.5700,-0.2631,-0.7689,
14.238527,-0.2776,-0.9345,-0.2360,-4.5867,0.7629,2.4319,1.5700,-0.2631,-0.7689,
14.239685,-0.0998,-0.7608,-0.3097,-4.5867,0.7629,2.4319,1.5700,-0.2631,-0.7689,
14.270934,-0.0998,-0.7608,-0.3097,-4.5867,0.7629,2.4319,1.0682,0.7478,-0.1830,
14.273364,-0.0998,-0.7608,-0.3097,-4.6846,0.8986,1.9656,1.0682,0.7478,-0.1830,
14.310239,-0.0998,-0.7608,-0.3097,-4.6846,0.8986,1.9656,0.7092,1.3817,-0.1638,
14.312946,-0.0998,-0.7608,-0.3097,-3.0072,3.1997,1.2608,0.7092,1.3817,-0.1638,
14.314371,-0.0289,-0.5409,-0.2079,-3.0072,3.1997,1.2608,0.7092,1.3817,-0.1638,
14.315573,-0.2723,-0.5510,-0.0713,-3.0072,3.1997,1.2608,0.7092,1.3817,-0.1638,
14.316824,-0.5449,-0.9028,-0.8286,-3.0072,3.1997,1.2608,0.7092,1.3817,-0.1638,
14.318241,-0.2256,-1.5052,-1.1885,-3.0072,3.1997,1.2608,0.7092,1.3817,-0.1638,
14.349985,-0.2256,-1.5052,-1.1885,-3.0072,3.1997,1.2608,-0.0258,0.8331,0.3571,
14.352850,-0.2256,-1.5052,-1.1885,-2.9300,3.1670,1.1938,-0.0258,0.8331,0.3571,
14.389818,-0.2205,-1.6007,0.0738,-2.9300,3.1670,1.1938,-0.0258,0.8331,0.3571,
14.392641,-0.3600,-1.6828,0.0567,-2.9300,3.1670,1.1938,-0.0258,0.8331,0.3571,
14.394141,-0.2652,-1.6982,-0.4773,-2.9300,3.1670,1.1938,-0.0258,0.8331,0.3571,
14.395295,-0.2652,-1.6982,-0.4773,-2.9300,3.1670,1.1938,-0.5563,0.3100,0.5894,
14.396954,-0.2652,-1.6982,-0.4773,-4.6031,-3.8455,-2.9962,-0.5563,0.3100,0.5894,
14.429242,-0.2652,-1.6982,-0.4773,-4.6031,-3.8455,-2.9962,-0.2090,2.5471,0.0770,
14.431443,-0.2652,-1.6982,-0.4773,-4.3200,-4.6311,3.0335,-0.2090,2.5471,0.0770,
14.468640,-0.2652,-1.6982,-0.4773,-4.3200,-4.6311,3.0335,-0.0588,2.4810,0.6352,
14.471141,-0.2652,-1.6982,-0.4773,-4.3229,-4.5201,2.8440,-0.0588,2.4810,0.6352,
14.472785,-0.2073,-0.8849,0.3619,-4.3229,-4.5201,2.8440,-0.0588,2.4810,0.6352,
14.475087,-0.0057,-0.8390,0.4105,-4.3229,-4.5201,2.8440,-0.0588,2.4810,0.6352,
14.476889,0.0842,-1.4527,-0.1969,-4.3229,-4.5201,2.8440,-0.0588,2.4810,0.6352,
14.478506,0.5276,-1.6486,-0.0564,-4.3229,-4.5201,2.8440,-0.0588,2.4810,0.6352,
14.479490,0.6544,-1.5516,0.0782,-4.3229,-4.5201,2.8440,-0.0588,2.4810,0.6352,
14.507705,0.6544,-1.5516,0.0782,-4.3229,-4.5201,2.8440,-0.1430,2.0240,0.5105,
14.509632,0.6544,-1.5516,0.0782,0.3213,-3.3829,3.4144,-0.1430,2.0240,0.5105,
14.548150,0.6544,-1.5516,0.0782,0.3213,-3.3829,3.4144,0.1723,3.0062,0.1537,
14.550546,0.6544,-1.5516,0.0782,0.6631,-2.9203,2.3813,0.1723,3.0062,0.1537,
14.551567,0.2569,-1.2959,-0.0427,0.6631,-2.9203,2.3813,0.1723,3.0062,0.1537,
14.552670,-0.1137,-0.9753,-0.0972,0.6631,-2.9203,2.3813,0.1723,3.0062,0.1537,
14.553636,-0.2806,-0.8146,-0.1233,0.6631,-2.9203,2.3813,0.1723,3.0062,0.1537,
14.554576,-0.2730,-0.7339,-0.1424,0.6631,-2.9203,2.3813,0.1723,3.0062,0.1537,
14.587453,-0.2730,-0.7339,-0.1424,0.6631,-2.9203,2.3813,-0.0002,2.9945,0.4977,
14.589432,-0.2730,-0.7339,-0.1424,0.5510,-2.8325,2.1075,-0.0002,2.9945,0.4977,
14.627468,-0.2730,-0.7339,-0.1424,0.5510,-2.8325,2.1075,-0.2665,3.0307,0.5233,
14.629550,-0.2730,-0.7339,-0.1424,-4.3519,2.4146,0.9230,-0.2665,3.0307,0.5233,
14.630583,-0.1518,-0.6616,-0.1082,-4.3519,2.4146,0.9230,-0.2665,3.0307,0.5233,
14.631560,-0.0605,-0.6399,-0.0899,-4.3519,2.4146,0.9230,-0.2665,3.0307,0.5233,
14.632246,-0.1181,-0.6834,-0.1434,-4.3519,2.4146,0.9230,-0.2665,3.0307,0.5233,
14.633051,-0.3004,-0.7562,-0.2479,-4.3519,2.4146,0.9230,-0.2665,3.0307,0.5233,
14.666860,-0.3004,-0.7562,-0.2479,-3.6794,2.7741,0.5275,-0.2665,3.0307,0.5233,
14.669654,-0.3004,-0.7562,-0.2479,-3.6794,2.7741,0.5275,-0.6799,3.5378,0.4381,
14.707566,-0.4201,-0.9230,-0.2890,-3.6794,2.7741,0.5275,-0.6799,3.5378,0.4381,
14.710214,-0.4597,-1.2079,-0.3212,-3.6794,2.7741,0.5275,-0.6799,3.5378,0.4381,
14.711422,-0.3426,-1.5050,-0.4627,-3.6794,2.7741,0.5275,-0.6799,3.5378,0.4381,
14.712551,-0.3426,-1.5050,-0.4627,-3.6794,2.7741,0.5275,-1.4745,3.6006,1.0219,
14.713886,-0.3426,-1.5050,-0.4627,-5.9353,-2.3160,-1.1272,-1.4745,3.6006,1.0219,
14.746207,-0.3426,-1.5050,-0.4627,-5.9353,-2.3160,-1.1272,-2.4706,2.8784,2.1926,
14.748968,-0.3426,-1.5050,-0.4627,3.7280,-4.4467,-2.9501,-2.4706,2.8784,2.1926,
14.785845,-0.3426,-1.5050,-0.4627,3.7280,-4.4467,-2.9501,-2.4035,1.8376,2.7700,
14.788916,-0.3426,-1.5050,-0.4627,4.4300,-4.5866,-2.1014,-2.4035,1.8376,2.7700,
14.790390,-0.0321,-1.6469,-0.6325,4.4300,-4.5866,-2.1014,-2.4035,1.8376,2.7700,
14.791651,0.5703,-1.5196,-0.6943,4.4300,-4.5866,-2.1014,-2.4035,1.8376,2.7700,
14.792896,1.0580,-1.1080,-0.5440,4.4300,-4.5866,-2.1014,-2.4035,1.8376,2.7700,
14.794829,1.2138,-0.6968,-0.3278,4.4300,-4.5866,-2.1014,-2.4035,1.8376,2.7700,
14.796076,1.0785,-0.5947,-0.3891,4.4300,-4.5866,-2.1014,-2.4035,1.8376,2.7700,
14.825941,1.0785,-0.5947,-0.3891,4.4300,-4.5866,-2.1014,-1.1422,1.4243,1.4096,
14.828473,1.0785,-0.5947,-0.3891,4.6321,-4.6628,-1.6865,-1.1422,1.4243,1.4096,
14.865264,1.0785,-0.5947,-0.3891,4.6321,-4.6628,-1.6865,-0.1281,-0.6477,0.7246,
14.868213,1.0785,-0.5947,-0.3891,9.1017,2.3744,0.7122,-0.1281,-0.6477,0.7246,
14.869483,0.6023,-0.8133,-0.4326,9.1017,2.3744,0.7122,-0.1281,-0.6477,0.7246,
14.870994,0.0925,-1.0435,-0.5594,9.1017,2.3744,0.7122,-0.1281,-0.6477,0.7246,
14.872323,0.0119,-0.8131,-0.6427,9.1017,2.3744,0.7122,-0.1281,-0.6477,0.7246,
14.873577,-0.1511,-0.5717,-0.6432,9.1017,2.3744,0.7122,-0.1281,-0.6477,0.7246,
14.904757,-0.1511,-0.5717,-0.6432,9.1017,2.3744,0.7122,-0.0727,-1.0951,1.5822,
14.907500,-0.1511,-0.5717,-0.6432,0.2631,1.2810,-1.5097,-0.0727,-1.0951,1.5822,
14.945495,-0.3873,-0.4965,-0.3361,0.2631,1.2810,-1.5097,-0.0727,-1.0951,1.5822,
14.948195,-0.3934,-0.5268,-0.1412,0.2631,1.2810,-1.5097,-0.0727,-1.0951,1.5822,
14.949174,-0.2669,-0.6343,-0.0938,0.2631,1.2810,-1.5097,-0.0727,-1.0951,1.5822,
14.950686,-0.2669,-0.6343,-0.0938,0.2631,1.2810,-1.5097,0.6166,-1.1547,2.0509,
14.951997,-0.2669,-0.6343,-0.0938,-2.0201,3.7694,2.3472,0.6166,-1.1547,2.0509,
14.983895,-0.2669,-0.6343,-0.0938,-2.0201,3.7694,2.3472,1.4560,-0.3228,1.8133,
14.986517,-0.2669,-0.6343,-0.0938,1.9153,2.0851,1.3215,1.4560,-0.3228,1.8133,
15.024720,-0.2669,-0.6343,-0.0938,2.2239,2.1975,0.6522,1.4560,-0.3228,1.8133,
15.027200,-0.2669,-0.6343,-0.0938,2.2239,2.1975,0.6522,1.7415,-0.1651,0.8791,
15.028653,-0.0563,-0.7007,-0.1333,2.2239,2.1975,0.6522,1.7415,-0.1651,0.8791,
15.029688,0.0412,-0.7633,-0.2631,2.2239,2.1975,0.6522,1.7415,-0.1651,0.8791,
15.030737,-0.0368,-0.7288,-0.3124,2.2239,2.1975,0.6522,1.7415,-0.1651,0.8791,
15.031956,-0.1760,-0.6162,-0.2731,2.2239,2.1975,0.6522,1.7415,-0.1651,0.8791,
15.033257,-0.3346,-0.6001,-0.4842,2.2239,2.1975,0.6522,1.7415,-0.1651,0.8791,
15.063384,-0.3346,-0.6001,-0.4842,2.2239,2.1975,0.6522,1.4539,-0.2855,0.5212,
15.066745,-0.3346,-0.6001,-0.4842,2.4075,2.2621,0.0798,1.4539,-0.2855,0.5212,
15.103491,-0.3346,-0.6001,-0.4842,2.4075,2.2621,0.0798,0.2618,0.1982,0.4722,
15.106200,-0.3346,-0.6001,-0.4842,-0.0794,3.0791,-2.6934,0.2618,0.1982,0.4722,
15.107752,-0.3514,-0.7027,-0.7910,-0.0794,3.0791,-2.6934,0.2618,0.1982,0.4722,
15.108945,-0.0827,-1.0427,-0.6461,-0.0794,3.0791,-2.6934,0.2618,0.1982,0.4722,
15.110058,-0.0524,-1.5917,-0.7026,-0.0794,3.0791,-2.6934,0.2618,0.1982,0.4722,
15.111371,-0.3595,-2.0942,-1.6603,-0.0794,3.0791,-2.6934,0.2618,0.1982,0.4722,
15.144815,-0.3595,-2.0942,-1.6603,-0.0794,3.0791,-2.6934,-0.7523,-0.2269,-0.2959,
15.147669,-0.3595,-2.0942,-1.6603,1.0170,-6.0398,-7.0913,-0.7523,-0.2269,-0.2959,
15.182362,-0.3595,-2.0942,-1.6603,1.0170,-6.0398,-7.0913,-0.3890,-0.4176,-0.8807,
15.185369,-0.3595,-2.0942,-1.6603,11.8384,0.0181,6.4560,-0.3890,-0.4176,-0.8807,
15.186792,0.4411,-1.7527,-0.4624,11.8384,0.0181,6.4560,-0.3890,-0.4176,-0.8807,
15.188319,1.4606,-0.6455,0.9555,11.8384,0.0181,6.4560,-0.3890,-0.4176,-0.8807,
15.189699,1.0643,-0.4894,0.6467,11.8384,0.0181,6.4560,-0.3890,-0.4176,-0.8807,
