time,gFx,gFy,gFz,ax,ay,az,wx,wy,wz
2022-01-30 16:31:53.7360,0.192,-0.394,-0.678,-1.37,-0.95,-1.8,0.43,-0.38,-0.55
2022-01-30 16:31:53.7430,0.204,-0.408,-0.66,-1.54,-0.53,-2.28,0.44,-0.3,-0.43
2022-01-30 16:31:53.7470,0.207,-0.452,-0.626,-1.73,-0.37,-2.86,0.39,-0.24,-0.29
2022-01-30 16:31:53.7570,0.227,-0.468,-0.564,-1.73,-0.37,-2.86,0.31,-0.19,-0.18
2022-01-30 16:31:53.7670,0.238,-0.475,-0.524,-1.87,-0.33,-3.28,0.18,-0.17,-0.08
2022-01-30 16:31:53.7860,0.232,-0.477,-0.536,-1.7,-0.38,-2.92,0.07,-0.2,0.02
2022-01-30 16:31:53.7870,0.215,-0.469,-0.566,-1.7,-0.38,-2.92,0.04,-0.24,0.12
2022-01-30 16:31:53.7970,0.205,-0.449,-0.586,-1.62,-0.56,-2.72,0.09,-0.26,0.19
2022-01-30 16:31:53.8070,0.194,-0.422,-0.611,-1.55,-0.83,-2.47,0.23,-0.26,0.25
2022-01-30 16:31:53.8170,0.187,-0.396,-0.636,-1.5,-1.12,-2.22,0.4,-0.24,0.28
2022-01-30 16:31:53.8270,0.19,-0.415,-0.676,-1.56,-0.58,-1.26,0.57,-0.21,0.35
2022-01-30 16:31:53.8380,0.185,-0.469,-0.734,-1.55,-0.06,-0.72,0.69,-0.13,0.46
2022-01-30 16:31:53.8470,0.181,-0.529,-0.78,-1.55,-0.06,-0.72,0.8,0.07,0.61
2022-01-30 16:31:53.8580,0.165,-0.597,-0.81,-1.44,0.55,-0.42,0.87,0.3,0.72
2022-01-30 16:31:53.8680,0.14,-0.635,-0.906,-0.98,1.12,1.79,0.87,0.3,0.72
2022-01-30 16:31:53.8780,0.116,-0.667,-1.034,-0.81,1.44,2.71,0.82,0.39,0.69
2022-01-30 16:31:53.8880,0.1,-0.707,-1.117,-0.81,1.44,2.71,0.77,0.36,0.59
2022-01-30 16:31:53.8970,0.092,-0.746,-1.164,-0.72,2.07,3.55,0.75,0.33,0.48
2022-01-30 16:31:53.9090,0.092,-0.783,-1.187,-0.72,2.07,3.55,0.77,0.37,0.39
2022-01-30 16:31:53.9180,0.098,-0.813,-1.171,-0.76,2.42,3.06,0.82,0.53,0.32
2022-01-30 16:31:53.9270,0.1,-0.828,-1.119,-0.69,2.34,2.6,0.86,0.78,0.28
2022-01-30 16:31:53.9370,0.098,-0.825,-1.069,-0.69,2.34,2.6,0.83,1.05,0.26
2022-01-30 16:31:53.9480,0.102,-0.823,-1.012,-0.65,2.23,1.47,0.73,1.32,0.27
2022-01-30 16:31:53.9580,0.111,-0.828,-0.941,-0.7,2.2,1.0,0.52,1.51,0.29
2022-01-30 16:31:53.9680,0.128,-0.828,-0.894,-0.7,2.2,0.8352420115470887,0.22,1.56,0.3
2022-01-30 16:31:53.9780,0.147,-0.822,-0.878,-0.81,2.02,0.77,0.22,1.56,0.3
2022-01-30 16:31:53.9890,0.158,-0.806,-0.872,-0.76,1.77,0.65,-0.15,1.45,0.3
2022-01-30 16:31:53.9990,0.158,-0.775,-0.862,-0.76,1.77,0.65,-0.91,1.04,0.32
2022-01-30 16:31:54.0090,0.138,-0.725,-0.835,-0.28,0.78,-0.07,-1.2,0.87,0.36
2022-01-30 16:31:54.0190,0.119,-0.652,-0.796,-0.28,0.78,-0.07,-1.38,0.73,0.4
2022-01-30 16:31:54.0280,0.1,-0.574,-0.764,-0.06,0.12,-0.48,-1.38,0.73,0.4
2022-01-30 16:31:54.0380,0.072,-0.502,-0.746,0.5,-1.08,-0.86,-1.31,0.39,0.57
2022-01-30 16:31:54.0490,0.043,-0.431,-0.742,0.79,-1.69,-0.95,-1.31,0.39,0.57
2022-01-30 16:31:54.0570,0.01,-0.361,-0.738,0.79,-1.69,-0.95,-0.76,-0.08,0.72
2022-01-30 16:31:54.0680,-0.025,-0.294,-0.723,1.470807894319296,-2.776643323302269,-1.35,-0.76,-0.08,0.72
2022-01-30 16:31:54.0780,-0.071,-0.245,-0.702,1.47,-2.78,-1.35,-0.16,-0.22,0.63
2022-01-30 16:31:54.0870,-0.114,-0.226,-0.675,1.85,-2.99,-1.62,0.08,-0.08,0.57
2022-01-30 16:31:54.0980,-0.142,-0.217,-0.642,2.11,-3.1,-1.93,0.3,0.11,0.54
2022-01-30 16:31:54.1090,-0.156,-0.212,-0.618,2.25,-3.18,-2.17,0.5,0.27,0.53
2022-01-30 16:31:54.1180,-0.148,-0.209,-0.613,2.2,-3.26,-2.21,0.71,0.32,0.54
2022-01-30 16:31:54.1290,-0.114,-0.216,-0.622,1.9,-3.27,-2.1,0.9,0.24,0.57
2022-01-30 16:31:54.1390,-0.06,-0.248,-0.649,1.36,-3.08,-1.81,0.9,0.24,0.57
2022-01-30 16:31:54.1490,-0.008,-0.299,-0.685,0.3,-2.33,-1.03,1.26,-0.18,0.7
2022-01-30 16:31:54.1590,0.038,-0.344,-0.713,0.3,-2.33,-1.03,1.42,-0.37,0.77
2022-01-30 16:31:54.1690,0.072,-0.383,-0.727,-0.13,-2.06,-0.81,1.55,-0.44,0.81
2022-01-30 16:31:54.1790,0.103,-0.443,-0.74,-0.79,-0.85,-0.66,1.66,-0.29,0.83
2022-01-30 16:31:54.1890,0.122,-0.541,-0.718,-0.79,-0.85,-0.66,1.72,0.04,0.87
2022-01-30 16:31:54.1990,0.127,-0.639,-0.711,-0.91,-0.01,-0.68,1.69,0.36,0.92
2022-01-30 16:31:54.2100,0.118,-0.736,-0.775,-0.86,0.8,-0.05,1.54,0.44,0.98
2022-01-30 16:31:54.2190,0.109,-0.841,-0.889,-0.8,1.72,1.17,1.27,0.3,0.99
2022-01-30 16:31:54.2290,0.113,-0.913,-0.946,-1.08,2.52,2.09,0.95,0.1,0.89
2022-01-30 16:31:54.2390,0.13,-0.925,-0.958,-1.08,2.52,2.09,0.6,-0.09,0.67
2022-01-30 16:31:54.2490,0.111,-0.891,-0.976,-1.01,2.2,2.29,0.2,-0.22,0.39
2022-01-30 16:31:54.2590,0.042,-0.83,-0.993,0.39060862362384796,1.09,2.5,-0.21,-0.26,0.12
2022-01-30 16:31:54.2690,-0.043,-0.779,-0.996,0.39,1.09,2.5,-0.62,-0.22,-0.03
2022-01-30 16:31:54.2800,-0.119,-0.729,-0.991,1.14,0.69,2.44,-0.92,-0.09,-0.07
2022-01-30 16:31:54.2890,-0.182,-0.621,-0.94,1.76,-0.23,1.92,-1.06,0.14,-0.04
2022-01-30 16:31:54.3000,-0.232,-0.484,-0.89,2.3,-1.48,1.34,-1.0,0.41,0.02
2022-01-30 16:31:54.3090,-0.249,-0.362,-0.846,2.54,-2.65,0.86,-0.76,0.7,0.12
2022-01-30 16:31:54.3200,-0.241,-0.283,-0.789,2.52,-3.42,0.26,-0.35,1.0,0.25
2022-01-30 16:31:54.3290,-0.224,-0.251,-0.718,2.43,-3.77,-0.42,0.16,1.3,0.42
2022-01-30 16:31:54.3400,-0.203,-0.257,-0.635,2.12,-3.72,-1.94,0.68,1.55,0.56
2022-01-30 16:31:54.3490,-0.176,-0.265,-0.558,2.12,-3.72,-1.94,0.68,1.55,0.56
2022-01-30 16:31:54.3600,-0.143,-0.261,-0.503,1.9,-3.84,-2.44,1.44,1.67,0.55
2022-01-30 16:31:54.3690,-0.111,-0.26,-0.488,1.54,-3.98,-2.13,1.64,1.47,0.55
2022-01-30 16:31:54.3800,-0.094,-0.274,-0.523,1.54,-3.98,-2.13,1.73,1.09,0.26
2022-01-30 16:31:54.3900,-0.087,-0.302,-0.571,1.53,-3.84,-1.53,1.75,0.61,0.11
2022-01-30 16:31:54.3990,-0.062,-0.345,-0.591,1.35,-3.58,-1.17,1.73,0.18,0.0
2022-01-30 16:31:54.4100,-0.014,-0.436,-0.578,0.92,-2.88,-1.14,1.73,-0.01,-0.02
2022-01-30 16:31:54.4200,0.045,-0.578,-0.522,0.35,-1.63,-1.52,1.6,0.11,0.03
2022-01-30 16:31:54.4300,0.101,-0.725,-0.472,-0.21,-0.28,-1.95,1.47,0.37,0.14
2022-01-30 16:31:54.4400,0.136,-0.867,-0.5,-0.7,2.32,-0.47,1.22,0.53,0.28
2022-01-30 16:31:54.4500,0.149,-1.006,-0.627,-0.7,2.32,-0.47,0.83,0.4,0.39
2022-01-30 16:31:54.4600,0.178,-1.1,-0.802,-0.96,3.26,1.31,0.83,0.4,0.39
2022-01-30 16:31:54.4700,0.224,-1.139,-0.892,-1.44,3.67,2.39,-0.17,-0.31,0.31
2022-01-30 16:31:54.4800,0.261,-1.162,-0.845,-1.87,3.92,2.03,-0.56,-0.35,0.22
2022-01-30 16:31:54.4900,0.261,-1.175,-0.758,-1.96,4.11,1.12,-0.83,-0.15,0.16
2022-01-30 16:31:54.5000,0.242,-1.164,-0.728,-1.79,4.08,0.67,-0.83,0.12,0.12
2022-01-30 16:31:54.5100,0.239,-1.162,-0.742,-1.73,4.09,0.72,-1.16,0.42,0.1
2022-01-30 16:31:54.5200,0.254,-1.194,-0.745,-1.93,4.7,0.61,-1.33,0.72,0.07
2022-01-30 16:31:54.5310,0.265,-1.203,-0.751,-1.67,4.43,1.01,-1.55,0.84,0.02
2022-01-30 16:31:54.5400,0.24,-1.158,-0.809,-1.16,3.75,1.88,-1.55,0.84,0.02
2022-01-30 16:31:54.5500,0.191,-1.072,-0.914,-1.16,3.75,1.88,-2.09,0.16,-0.2
2022-01-30 16:31:54.5610,0.132,-0.973,-1.008,0.03,2.12,2.8,-2.29,-0.46,-0.32
2022-01-30 16:31:54.5710,0.069,-0.873,-1.022,0.63,1.22,2.16,-2.34,-0.96,-0.39
2022-01-30 16:31:54.5810,0.002,-0.76,-0.967,1.29,0.1,1.36,-2.23,-1.29,-0.43
2022-01-30 16:31:54.5910,-0.074,-0.627,-0.903,1.29,0.1,1.36,-1.97,-1.49,-0.43
2022-01-30 16:31:54.6000,-0.15,-0.499,-0.849,1.96,-1.03,0.7,-1.59,-1.61,-0.4
2022-01-30 16:31:54.6110,-0.203,-0.408,-0.792,2.59,-2.34,-0.58,-1.14,-1.63,-0.32
2022-01-30 16:31:54.6210,-0.229,-0.353,-0.737,2.59,-2.34,-0.58,-0.67,-1.57,-0.24
2022-01-30 16:31:54.6310,-0.243,-0.309,-0.7,2.5786373054981233,-3.1347940528392795,-1.1,-0.26,-1.47,-0.19
2022-01-30 16:31:54.6410,-0.248,-0.265,-0.698,2.57,-3.14,-1.1,-0.26,-1.47,-0.19
2022-01-30 16:31:54.6510,-0.25,-0.232,-0.711,2.51,-3.49,-0.95,0.31,-1.25,-0.27
2022-01-30 16:31:54.6610,-0.232,-0.221,-0.681,1.86,-3.68,-1.61,0.53,-1.04,-0.36
2022-01-30 16:31:54.6710,-0.192,-0.224,-0.634,1.86,-3.68,-1.61,0.53,-1.04,-0.36
2022-01-30 16:31:54.6810,-0.135,-0.239,-0.619,0.74,-3.39,-1.41,0.92,-0.58,-0.52
2022-01-30 16:31:54.6910,-0.083,-0.271,-0.656,0.23705606281757355,-2.9,-0.51,1.07,-0.56,-0.56
2022-01-30 16:31:54.7010,-0.032,-0.334,-0.747,0.23,-2.9,-0.51,1.18,-0.74,-0.54
2022-01-30 16:31:54.7200,0.021,-0.423,-0.862,-0.92,-1.26,1.4,1.26,-1.04,-0.47
2022-01-30 16:31:54.7220,0.078,-0.523,-0.914,-0.92,-1.26,1.4,1.36,-1.21,-0.37
2022-01-30 16:31:54.7310,0.127,-0.63,-0.868,-1.8,0.62,0.69,1.47,-1.13,-0.23
2022-01-30 16:31:54.7420,0.145,-0.737,-0.821,-1.8,0.62,0.69,1.53,-1.06,-0.05
2022-01-30 16:31:54.7510,0.113,-0.829,-0.911,-1.62,1.44,1.48,1.49,-1.34,0.11
2022-01-30 16:31:54.7610,0.061,-0.891,-1.078,-1.03,2.26,3.74,1.34,-1.85,0.19
2022-01-30 16:31:54.7720,0.031,-0.925,-1.089,-1.07,2.16,2.33,1.15,-2.1,0.11
2022-01-30 16:31:54.7810,0.019,-0.916,-0.926,-1.07,2.16,2.33,0.97,-2.06,-0.11
2022-01-30 16:31:54.7910,-0.01,-0.861,-0.823,-0.94,1.59,1.25,0.74,-1.98,-0.42
2022-01-30 16:31:54.8020,-0.044,-0.808,-0.797,-0.6,0.81,0.46,0.45,-1.88,-0.73
2022-01-30 16:31:54.8200,-0.059,-0.799,-0.723,-0.54,0.85,-0.54,0.13,-1.62,-0.94
2022-01-30 16:31:54.8210,-0.07,-0.802,-0.621,-0.54,0.85,-0.54,-0.23,-1.31,-1.05
2022-01-30 16:31:54.8320,-0.086,-0.764,-0.582,-0.4,0.53,-1.03,-0.6,-1.1,-1.1
2022-01-30 16:31:54.8410,-0.1,-0.688,-0.602,-0.25,-0.14,-0.91,-0.94,-1.03,-1.13
2022-01-30 16:31:54.8510,-0.104,-0.594,-0.63,-0.19,-1.0,-0.68,-1.2,-1.03,-1.13
2022-01-30 16:31:54.8610,-0.099,-0.518,-0.64,-0.3,-2.09,-0.8,-1.32,-0.97,-1.09
2022-01-30 16:31:54.8710,-0.09,-0.476,-0.628,-0.42,-2.18,-1.15,-1.3,-0.78,-0.99
2022-01-30 16:31:54.8810,-0.077,-0.461,-0.6,-0.42,-2.18,-1.15,-1.3,-0.78,-0.99
2022-01-30 16:31:54.8920,-0.074,-0.445,-0.586,-0.43,-2.24,-1.38,-0.9,0.03,-0.74
2022-01-30 16:31:54.9020,-0.086,-0.415,-0.551,-0.28,-2.47,-1.73,-0.57,0.56,-0.62
2022-01-30 16:31:54.9120,-0.083,-0.388,-0.482,-0.28,-2.74,-3.04,-0.21,1.13,-0.52
2022-01-30 16:31:54.9220,-0.059,-0.389,-0.426,-0.28,-2.74,-3.04,0.18,1.57,-0.42
2022-01-30 16:31:54.9310,-0.03,-0.413,-0.439,-0.42,-2.55,-3.01,0.59,1.72,-0.28
2022-01-30 16:31:54.9420,-0.003,-0.468,-0.486,-0.54,-2.1,-2.52,1.0,1.62,-0.09
2022-01-30 16:31:54.9520,0.027,-0.552,-0.526,-0.73,-1.39,-2.06,1.37,1.36,0.11
2022-01-30 16:31:54.9620,0.052,-0.644,-0.55,-0.89,-0.57,-1.71,1.63,1.06,0.27
2022-01-30 16:31:54.9710,0.082,-0.728,-0.572,-1.12,0.14,-1.39,1.76,0.78,0.37
2022-01-30 16:31:54.9820,0.112,-0.819,-0.607,-1.39,0.89,-0.97,1.73,0.5,0.39
2022-01-30 16:31:54.9920,0.139,-0.931,-0.687,-1.66,1.86,-0.11,1.57,0.19,0.37
2022-01-30 16:31:55.0020,0.144,-1.038,-0.794,-1.76,2.84,1.02,1.35,-0.23,0.3
2022-01-30 16:31:55.0110,0.114,-1.087,-0.912,-1.55,3.32,2.29,1.13,-0.68,0.15
2022-01-30 16:31:55.0220,0.066,-1.082,-0.969,-0.7854287043213845,3.11,2.94,0.95,-0.94,-0.09
2022-01-30 16:31:55.0320,0.026,-1.077,-0.943,-0.52,3.31,2.41,0.86,-0.87,-0.35
2022-01-30 16:31:55.0420,-0.003,-1.108,-0.883,-0.52,3.31,2.41,0.81,-0.55,-0.59
2022-01-30 16:31:55.0520,-0.027,-1.139,-0.868,-0.26,3.59,2.26,0.73,-0.12,-0.77
2022-01-30 16:31:55.0620,-0.047,-1.15,-0.864,0.0,3.65,2.31,0.57,0.41,-0.86
2022-01-30 16:31:55.0720,-0.043,-1.185,-0.801,0.11,3.92,1.81,0.36,1.07,-0.85
2022-01-30 16:31:55.0820,-0.002,-1.254,-0.715,-0.14,4.55,0.96,0.09,1.67,-0.73
2022-01-30 16:31:55.0920,0.044,-1.305,-0.671,-0.43,5.09,0.47,-0.27,2.04,-0.57
2022-01-30 16:31:55.1020,0.086,-1.318,-0.689,-0.67,5.28,0.54,-0.73,2.04,-0.39
2022-01-30 16:31:55.1120,0.125,-1.319,-0.759,-1.09,5.51,1.67,-1.21,1.67,-0.19
2022-01-30 16:31:55.1220,0.152,-1.33,-0.816,-1.09,5.51,1.67,-1.58,1.12,0.06
2022-01-30 16:31:55.1320,0.152,-1.328,-0.799,-1.07,5.66,1.47,-1.75,0.58,0.35
2022-01-30 16:31:55.1420,0.126,-1.25,-0.736,-0.43,3.73,-0.15,-1.73,0.16,0.54
2022-01-30 16:31:55.1530,0.08,-1.09,-0.655,-0.43,3.73,-0.15,-1.52,-0.13,0.6
2022-01-30 16:31:55.1620,0.04,-0.906,-0.577,-0.06,2.02,-1.04,-1.21,-0.29,0.52
2022-01-30 16:31:55.1720,0.022,-0.748,-0.515,0.1,-0.69,-2.4,-0.86,-0.34,0.34
2022-01-30 16:31:55.1830,0.016,-0.625,-0.455,0.1,-0.69,-2.4,-0.54,-0.27,0.13
2022-01-30 16:31:55.1930,0.013,-0.532,-0.411,0.17,-2.22,-3.16,-0.3,-0.15,-0.04
2022-01-30 16:31:55.2030,0.005,-0.47,-0.387,0.17,-2.22,-3.16,-0.11,-0.0,-0.1
2022-01-30 16:31:55.2130,-0.007,-0.424,-0.361,0.28,-2.67,-3.42,-0.0,0.16,-0.05
2022-01-30 16:31:55.2230,-0.027,-0.386,-0.341,0.48,-3.05,-3.63,0.03,0.32,0.09
2022-01-30 16:31:55.2330,-0.047,-0.348,-0.331,0.7,-3.42,-3.74,0.02,0.46,0.29
2022-01-30 16:31:55.2430,-0.063,-0.31,-0.323,0.95,-4.08,-3.91,-0.03,0.59,0.5
2022-01-30 16:31:55.2510,-0.069,-0.284,-0.312,0.95,-4.08,-3.91,-0.07,0.71,0.72
2022-01-30 16:31:55.2620,-0.064,-0.281,-0.3,0.93,-4.13,-4.05,-0.08,0.84,0.91
2022-01-30 16:31:55.2720,-0.041,-0.294,-0.299,0.71,-4.02,-4.08,-0.08,0.92,1.03
2022-01-30 16:31:55.2910,-0.01,-0.316,-0.325,0.09,-3.44,-3.38,-0.08,0.92,1.03
2022-01-30 16:31:55.2930,0.021,-0.356,-0.379,0.09,-3.44,-3.38,-0.07,0.79,1.07
2022-01-30 16:31:55.3020,0.055,-0.418,-0.467,-0.26,-2.86,-2.55,-0.05,0.59,1.06
2022-01-30 16:31:55.3120,0.095,-0.503,-0.552,-0.67,-2.04,-1.69,-0.0,0.43,1.05
2022-01-30 16:31:55.3210,0.132,-0.591,-0.605,-1.1,-1.17,-1.14,0.08,0.36,1.06
2022-01-30 16:31:55.3320,0.157,-0.661,-0.649,-1.41,-0.46,-0.7,0.08,0.36,1.06
2022-01-30 16:31:55.3420,0.158,-0.714,-0.699,-1.5,0.05,-0.21,0.36,0.39,1.11
2022-01-30 16:31:55.3510,0.146,-0.761,-0.745,-1.43,0.5,0.3,0.54,0.39,1.1
2022-01-30 16:31:55.3620,0.145,-0.79,-0.761,-1.46,0.77,0.53,0.69,0.4,1.03
2022-01-30 16:31:55.3720,0.145,-0.805,-0.757,-1.5,0.88,0.55,0.69,0.4,1.03
2022-01-30 16:31:55.3820,0.147,-0.808,-0.755,-1.56,0.88,0.57,0.76,0.33,0.65
2022-01-30 16:31:55.3930,0.143,-0.784,-0.75,-1.55,0.63,0.6,0.76,0.33,0.65
2022-01-30 16:31:55.4030,0.127,-0.746,-0.73,-1.42,0.24,0.45,0.2,0.1,0.01
2022-01-30 16:31:55.4130,0.088,-0.703,-0.739,-1.06,-0.19,0.47,-0.36,-0.17,-0.3
2022-01-30 16:31:55.4240,0.029,-0.655,-0.844,-0.5,-0.63,1.33,-1.06,-0.72,-0.5
2022-01-30 16:31:55.4330,-0.053,-0.618,-1.004,0.25,-0.94,2.84,-1.73,-1.37,-0.57
2022-01-30 16:31:55.4430,-0.149,-0.579,-1.044,1.13,-1.16,3.31,-2.19,-1.73,-0.52
2022-01-30 16:31:55.4540,-0.236,-0.488,-0.944,1.91,-1.83,2.3,-2.34,-1.62,-0.42
2022-01-30 16:31:55.4630,-0.313,-0.365,-0.826,2.6,-2.87,0.96,-2.15,-1.12,-0.28
2022-01-30 16:31:55.4740,-0.363,-0.284,-0.718,3.09,-3.58,-0.22,-1.68,-0.32,-0.1
2022-01-30 16:31:55.4830,-0.358,-0.243,-0.611,3.09,-3.88,-1.4,-1.06,0.59,0.05
2022-01-30 16:31:55.4940,-0.313,-0.197,-0.533,2.18,-4.9,-2.69,-0.42,1.41,0.09
2022-01-30 16:31:55.5040,-0.244,-0.123,-0.499,2.18,-4.9,-2.69,-0.42,1.41,0.09
2022-01-30 16:31:55.5130,-0.176,-0.074,-0.518,1.67,-5.47,-2.57,0.54,2.14,-0.2
2022-01-30 16:31:55.5230,-0.11,-0.089,-0.585,1.19,-5.45,-1.92,0.84,1.89,-0.34
2022-01-30 16:31:55.5330,-0.055,-0.172,-0.664,0.44,-3.77,-0.36,1.07,1.32,-0.35
2022-01-30 16:31:55.5430,-0.009,-0.283,-0.726,0.44,-3.77,-0.36,1.24,0.64,-0.23
2022-01-30 16:31:55.5530,0.04,-0.378,-0.729,0.03,-2.89,-0.16,1.36,0.07,-0.05
2022-01-30 16:31:55.5630,0.092,-0.463,-0.687,-0.48,-2.17,-0.46,1.44,-0.24,0.15
2022-01-30 16:31:55.5730,0.13,-0.559,-0.646,-0.9,-1.35,-0.78,1.46,-0.26,0.33
2022-01-30 16:31:55.5830,0.157,-0.676,-0.624,-1.22,-0.33,-0.94,1.41,-0.04,0.49
2022-01-30 16:31:55.5940,0.181,-0.808,-0.637,-1.89,2.07,-0.18,1.31,0.29,0.64
2022-01-30 16:31:55.6040,0.222,-0.94,-0.694,-1.89,2.07,-0.18,1.15,0.49,0.77
2022-01-30 16:31:55.6130,0.253,-1.034,-0.847,-2.34,3.44,3.47,0.92,0.27,0.86
2022-01-30 16:31:55.6250,0.253,-1.085,-1.066,-2.34,3.44,4.853231091499329,0.6607627272605896,0.27,0.86
2022-01-30 16:31:55.6340,0.228,-1.152,-1.184,-2.2,4.03,4.85,0.46,-0.77,0.93
2022-01-30 16:31:55.6440,0.209,-1.211,-1.186,-2.12,4.63,4.99,0.46,-0.77,0.93
2022-01-30 16:31:55.6550,0.16,-1.199,-1.161,-1.83,4.6,4.78,0.24,-0.96,0.66
2022-01-30 16:31:55.6640,0.089,-1.123,-1.12,-1.24,3.87,4.44,0.22,-0.66,0.42
2022-01-30 16:31:55.6740,0.039,-1.072,-1.026,-0.78,3.28,2.498315858244896,0.25,-0.11,0.27
2022-01-30 16:31:55.6850,0.028,-1.091,-0.915,-0.64,3.39,2.49,0.28,0.45,0.25
2022-01-30 16:31:55.6940,0.045,-1.147,-0.884,-0.88,4.42,2.39,0.21,0.73,0.36
2022-01-30 16:31:55.7040,0.055,-1.198,-0.918,-0.88,4.42,2.39,0.03,0.7,0.54
2022-01-30 16:31:55.7150,0.04,-1.206,-0.926,-0.77,4.57,2.54,0.03,0.7,0.54
2022-01-30 16:31:55.7250,0.002,-1.153,-0.899,0.06,3.26,2.1,-0.47,0.18,0.82
2022-01-30 16:31:55.7350,-0.056,-1.056,-0.888,0.06,3.26,2.1,-0.71,-0.23,0.84
2022-01-30 16:31:55.7450,-0.129,-0.93,-0.867,0.68,2.11,1.87,-0.91,-0.61,0.78
2022-01-30 16:31:55.7550,-0.207,-0.806,-0.817,1.34,0.94,1.34,-1.0,-0.9,0.66
2022-01-30 16:31:55.7640,-0.283,-0.696,-0.765,1.99,-0.08,0.75,-1.01,-1.09,0.51
2022-01-30 16:31:55.7740,-0.353,-0.595,-0.735,3.03,-1.81,-0.02,-0.94,-1.21,0.34
2022-01-30 16:31:55.7840,-0.407,-0.508,-0.698,3.03,-1.81,-0.02,-0.82,-1.2,0.15
2022-01-30 16:31:55.7950,-0.432,-0.432,-0.642,3.22,-2.51,-0.6,-0.82,-1.2,0.15
2022-01-30 16:31:55.8050,-0.431,-0.362,-0.592,3.17,-3.17,-1.15,-0.39,-0.82,-0.26
2022-01-30 16:31:55.8150,-0.417,-0.303,-0.587,3.0,-3.74,-1.28,-0.15,-0.61,-0.41
2022-01-30 16:31:55.8250,-0.394,-0.263,-0.616,2.47,-4.33,-0.59,0.09,-0.49,-0.52
2022-01-30 16:31:55.8350,-0.362,-0.25,-0.659,2.47,-4.33,-0.59,0.31,-0.46,-0.59
2022-01-30 16:31:55.8450,-0.319,-0.262,-0.673,2.07,-4.26,-0.38,0.51,-0.43,-0.65
2022-01-30 16:31:55.8550,-0.271,-0.282,-0.657,1.61,-4.11,-0.48,0.71,-0.37,-0.71
2022-01-30 16:31:55.8650,-0.227,-0.305,-0.636,1.2,-3.95,-0.63,0.88,-0.29,-0.79
2022-01-30 16:31:55.8750,-0.188,-0.34,-0.625,0.85,-3.7,-0.69,0.99,-0.22,-0.88
2022-01-30 16:31:55.8850,-0.153,-0.41,-0.635,0.25,-2.29,-0.36,1.06,-0.16,-0.93
2022-01-30 16:31:55.8950,-0.115,-0.506,-0.644,0.25,-2.29,-0.36,1.09,-0.08,-0.94
2022-01-30 16:31:55.9050,-0.061,-0.611,-0.636,-0.21,-1.36,-0.33,1.09,-0.08,-0.94
2022-01-30 16:31:55.9150,-0.001,-0.728,-0.581,-0.72,-0.3,-0.73,1.11,0.3,-0.83
2022-01-30 16:31:55.9250,0.055,-0.832,-0.539,-1.45,1.48,-0.1,1.01,0.31,-0.76
2022-01-30 16:31:55.9360,0.082,-0.921,-0.666,-1.45,1.48,-0.1,0.72,-0.24,-0.71
2022-01-30 16:31:55.9450,0.071,-1.006,-0.892,-1.35,2.29,2.18,0.29,-1.21,-0.67
2022-01-30 16:31:55.9550,0.056,-1.057,-1.0,-1.22,2.83,3.48,-0.14,-2.11,-0.65
2022-01-30 16:31:55.9650,0.025,-1.042,-0.916,-1.05,2.79,2.87,-0.48,-2.52,-0.67
2022-01-30 16:31:55.9760,-0.041,-0.961,-0.798,0.07,1.04,1.23,-0.76,-2.55,-0.75
2022-01-30 16:31:55.9860,-0.112,-0.848,-0.769,0.07,1.04,1.23,-1.0,-2.29,-0.92
2022-01-30 16:31:55.9960,-0.158,-0.739,-0.714,0.48,0.0,0.69,-1.2,-1.74,-1.13
2022-01-30 16:31:56.0060,-0.184,-0.655,-0.645,0.73,-0.78,-0.09,-1.35,-1.02,-1.33
2022-01-30 16:31:56.0150,-0.205,-0.587,-0.625,0.97,-1.39,-0.45,-1.44,-0.38,-1.44
2022-01-30 16:31:56.0250,-0.205,-0.523,-0.657,1.1,-1.94,-0.28,-1.45,0.06,-1.44
2022-01-30 16:31:56.0350,-0.166,-0.477,-0.694,0.87,-2.33,-0.01,-1.37,0.32,-1.31
2022-01-30 16:31:56.0450,-0.103,-0.462,-0.711,0.38,-2.44,0.09,-1.37,0.32,-1.31
2022-01-30 16:31:56.0560,-0.039,-0.464,-0.684,-0.15,-2.35,-0.19,-0.82,0.68,-0.76
2022-01-30 16:31:56.0660,0.004,-0.462,-0.607,-0.51,-2.31,-0.95,-0.4,0.96,-0.44
2022-01-30 16:31:56.0750,0.03,-0.46,-0.514,-0.73,-2.33,-2.72,0.01,1.31,-0.19
2022-01-30 16:31:56.0860,0.044,-0.458,-0.433,-0.73,-2.33,-2.72,0.37,1.62,-0.02
2022-01-30 16:31:56.0960,0.042,-0.471,-0.391,-0.47,-2.05,-3.07,0.63,1.76,0.07
2022-01-30 16:31:56.1060,0.042,-0.498,-0.404,-0.47,-2.05,-3.07,0.78,1.63,0.11
2022-01-30 16:31:56.1160,0.061,-0.55,-0.468,-0.52,-1.63,-2.44,0.9,1.23,0.13
2022-01-30 16:31:56.1260,0.118,-0.623,-0.545,-0.98,-1.0,-1.59,1.07,0.72,0.17
2022-01-30 16:31:56.1360,0.179,-0.716,-0.561,-2.02,0.75,-1.4,1.29,0.35,0.23
2022-01-30 16:31:56.1460,0.225,-0.821,-0.537,-2.26,1.52,-1.3,1.47,0.16,0.31
2022-01-30 16:31:56.1560,0.242,-0.905,-0.544,-2.26,1.52,-1.3,1.51,-0.03,0.34
2022-01-30 16:31:56.1660,0.188,-0.944,-0.673,-0.64,1.87,1.99,1.34,-0.53,0.36
2022-01-30 16:31:56.1760,0.049,-0.952,-0.875,-0.64,1.87,1.99,1.07,-1.18,0.4
2022-01-30 16:31:56.1860,-0.047,-0.979,-0.908,0.32,2.03,2.71,0.92,-1.35,0.43
2022-01-30 16:31:56.1960,-0.057,-1.037,-0.722,0.37,2.51,1.1,0.92,-1.35,0.43
2022-01-30 16:31:56.2060,-0.043,-1.095,-0.606,-0.02,3.27,0.47,1.16,-0.37,0.37
2022-01-30 16:31:56.2170,-0.03,-1.119,-0.681,-0.02,3.27,0.47,1.32,-0.11,0.18
2022-01-30 16:31:56.2260,-0.026,-1.121,-0.753,-0.10779871959239246,3.46,1.19,1.38,-0.01,-0.07
2022-01-30 16:31:56.2370,-0.022,-1.162,-0.709,-0.11,3.46,1.19,1.28,0.08,-0.31
2022-01-30 16:31:56.2460,-0.013,-1.236,-0.644,-0.17,4.09,0.62,0.99,0.19,-0.49
2022-01-30 16:31:56.2560,0.002,-1.309,-0.602,-0.25,4.76,0.26,0.48,0.32,-0.58
2022-01-30 16:31:56.2660,0.031,-1.366,-0.583,-0.46,5.32,0.07,-0.16,0.44,-0.59
2022-01-30 16:31:56.2770,0.057,-1.387,-0.577,-0.63,5.34,-0.04,-0.82,0.51,-0.53
2022-01-30 16:31:56.2870,0.058,-1.346,-0.584,-0.34,4.52,-0.04,-1.35,0.53,-0.4
2022-01-30 16:31:56.2970,0.031,-1.25,-0.596,0.0,3.46,-0.07,-1.67,0.47,-0.22
2022-01-30 16:31:56.3070,0.001,-1.129,-0.604,0.0,3.46,-0.07,-1.75,0.38,-0.03
2022-01-30 16:31:56.3160,-0.019,-1.006,-0.604,0.24,2.36,-0.21,-1.62,0.25,0.15
2022-01-30 16:31:56.3270,-0.029,-0.894,-0.6,0.35,1.33,-0.36,-1.33,0.08,0.28
2022-01-30 16:31:56.3370,-0.031,-0.792,-0.591,0.36,0.4,-0.54,-1.33,0.08,0.28
2022-01-30 16:31:56.3470,-0.023,-0.7,-0.576,0.26,-0.45,-0.75,-0.6,-0.26,0.32
2022-01-30 16:31:56.3560,-0.015,-0.619,-0.544,0.13,-1.22,-1.08,-0.28,-0.27,0.24
2022-01-30 16:31:56.3670,-0.01,-0.548,-0.5,0.04,-1.92,-1.53,-0.04,-0.15,0.13
2022-01-30 16:31:56.3770,-0.004,-0.489,-0.465,-0.02,-2.5,-2.1509064638614657,-0.04,-0.15,0.13
2022-01-30 16:31:56.3870,0.0,-0.436,-0.437,-0.08,-3.04,-2.16,0.27,0.25,-0.02
2022-01-30 16:31:56.3970,-0.001,-0.393,-0.42,-0.05,-3.5,-2.33,0.27,0.25,-0.02
2022-01-30 16:31:56.4070,0.004,-0.384,-0.41,-0.06,-3.67,-2.39,0.5,0.58,0.09
2022-01-30 16:31:56.4170,0.019,-0.418,-0.399,-0.16,-3.4,-2.47,0.61,0.66,0.22
2022-01-30 16:31:56.4270,0.045,-0.46,-0.399,-0.63,-2.74,-2.3,0.69,0.69,0.36
2022-01-30 16:31:56.4370,0.072,-0.493,-0.409,-0.63,-2.74,-2.3,0.73,0.64,0.45
2022-01-30 16:31:56.4470,0.103,-0.526,-0.44,-0.93,-2.47,-1.98,0.73,0.53,0.49
2022-01-30 16:31:56.4570,0.125,-0.588,-0.483,-1.17,-1.95,-1.49,0.73,0.53,0.49
2022-01-30 16:31:56.4670,0.142,-0.665,-0.505,-1.584764133989811,-0.64,-1.0,0.68,0.33,0.62
2022-01-30 16:31:56.4770,0.164,-0.727,-0.522,-1.78,-0.18,-0.48,0.68,0.25,0.7
2022-01-30 16:31:56.4870,0.178,-0.777,-0.573,-1.9462451452016831,0.36,-0.02,0.7,0.14,0.82
2022-01-30 16:31:56.4970,0.189,-0.84,-0.611,-1.95,0.36,-0.02,0.76,0.03,0.97
2022-01-30 16:31:56.5070,0.186,-0.929,-0.64,-1.91,1.99,0.66,0.83,-0.07,1.14
2022-01-30 16:31:56.5170,0.162,-1.014,-0.666,-1.68,2.36,0.76,0.86,-0.14,1.24
2022-01-30 16:31:56.5360,0.127,-1.049,-0.664,-1.4,2.28,0.4,0.86,-0.14,1.24
2022-01-30 16:31:56.5370,0.089,-1.041,-0.617,-1.4,2.28,0.4,0.65,0.01,0.96
2022-01-30 16:31:56.5460,0.053,-1.005,-0.578,-1.12,1.93,0.03,0.27,0.2,0.58
2022-01-30 16:31:56.5560,0.025,-0.958,-0.563,-0.87,1.46,-0.12,-0.29,0.45,0.12
2022-01-30 16:31:56.5660,0.004,-0.907,-0.553,-0.63,0.98,-0.26,-0.29,0.45,0.12
2022-01-30 16:31:56.5770,-0.017,-0.85,-0.538,-0.36,0.5,-0.49,-1.7,1.1,-0.6
2022-01-30 16:31:56.5860,-0.031,-0.771,-0.534,-0.09,-0.13,-0.7,-2.3,1.42,-0.76
2022-01-30 16:31:56.5970,-0.041,-0.667,-0.548,0.16,-0.99,-0.76,-2.72,1.72,-0.81
2022-01-30 16:31:56.6070,-0.04,-0.552,-0.574,0.33,-1.96,-0.74,-2.91,1.93,-0.74
2022-01-30 16:31:56.6170,-0.036,-0.462,-0.617,0.47,-2.69,-0.56,-2.86,1.98,-0.55
2022-01-30 16:31:56.6280,-0.032,-0.401,-0.653,0.6,-3.12,-0.37,-2.58,1.93,-0.28
2022-01-30 16:31:56.6380,-0.028,-0.359,-0.646,0.72,-3.38,-0.55,-2.11,1.84,0.0
2022-01-30 16:31:56.6480,-0.022,-0.314,-0.61,0.77,-3.66,-1.03,-1.5,1.72,0.25
2022-01-30 16:31:56.6580,-0.027,-0.268,-0.574,0.91,-4.02,-1.47,-0.82,1.58,0.41
2022-01-30 16:31:56.6680,-0.037,-0.226,-0.542,1.09,-4.39,-1.82,-0.14,1.41,0.47
2022-01-30 16:31:56.6780,-0.05,-0.207,-0.512,1.29,-4.61,-2.13,0.46,1.21,0.44
2022-01-30 16:31:56.6880,-0.052,-0.213,-0.509,1.38,-4.63,-2.14,0.99,0.99,0.36
2022-01-30 16:31:56.6980,-0.043,-0.259,-0.486,1.35,-4.3,-2.24,0.99,0.99,0.36
2022-01-30 16:31:56.7080,-0.013,-0.333,-0.459,1.13,-3.7,-2.43,1.74,0.61,0.2
2022-01-30 16:31:56.7180,0.037,-0.424,-0.478,0.19,-1.98,-1.8,1.89,0.43,0.12
2022-01-30 16:31:56.7280,0.088,-0.54,-0.499,0.19,-1.98,-1.8,1.89,0.43,0.12
2022-01-30 16:31:56.7380,0.137,-0.672,-0.504,-0.68,0.45,-1.23,1.76,0.23,0.08
2022-01-30 16:31:56.7480,0.177,-0.814,-0.537,-0.68,0.45,-1.23,1.48,0.05,0.14
2022-01-30 16:31:56.7580,0.216,-0.962,-0.659,-1.07,1.81,-0.04,1.08,-0.35,0.23
2022-01-30 16:31:56.7680,0.238,-1.08,-0.799,-1.37,2.96,1.45,0.65,-0.84,0.33
2022-01-30 16:31:56.7780,0.232,-1.141,-0.866,-1.35,3.79,2.06,0.28,-1.12,0.38
2022-01-30 16:31:56.7880,0.214,-1.161,-0.835,-1.35,3.79,2.06,0.03,-0.99,0.34
2022-01-30 16:31:56.7980,0.205,-1.181,-0.777,-1.32,3.98,1.47,-0.09,-0.58,0.25
2022-01-30 16:31:56.8080,0.208,-1.207,-0.762,-1.4,4.24,1.26,-0.14,-0.07,0.13
2022-01-30 16:31:56.8190,0.21,-1.224,-0.776,-1.49,4.58,1.46,-0.19,0.44,0.02
2022-01-30 16:31:56.8290,0.221,-1.24,-0.786,-1.49,4.58,1.46,-0.3,0.86,-0.05
2022-01-30 16:31:56.8380,0.238,-1.281,-0.801,-1.73,5.42,2.1,-0.51,1.1,-0.07
2022-01-30 16:31:56.8480,0.26,-1.319,-0.867,-1.73,5.42,2.1,-0.85,1.02,-0.07
2022-01-30 16:31:56.8590,0.285,-1.317,-0.988,-1.91,5.51,3.17,-1.28,0.57,-0.09
2022-01-30 16:31:56.8690,0.306,-1.269,-1.103,-2.08,5.19,4.26,-1.66,-0.05,-0.11
2022-01-30 16:31:56.8790,0.305,-1.183,-1.138,-1.721593073308468,3.64,4.3,-1.9,-0.61,-0.07
2022-01-30 16:31:56.8890,0.255,-1.081,-1.119,-1.73,3.64,4.3,-1.9,-0.61,-0.07
2022-01-30 16:31:56.8990,0.183,-0.962,-1.084,-1.11,2.61,3.82,-1.82,-1.17,0.22
2022-01-30 16:31:56.9080,0.103,-0.841,-1.043,-0.42,1.54,3.29,-1.55,-1.2,0.41
2022-01-30 16:31:56.9190,0.027,-0.738,-1.001,0.71,-0.13,1.93,-1.15,-1.08,0.59
2022-01-30 16:31:56.9290,-0.033,-0.657,-0.917,0.71,-0.13,1.93,-0.67,-0.8,0.72
2022-01-30 16:31:56.9390,-0.08,-0.586,-0.816,1.33,-1.46,0.04,-0.15,-0.43,0.76
2022-01-30 16:31:56.9490,-0.11,-0.518,-0.734,1.39,-2.0,-0.51,0.31,-0.1,0.69
2022-01-30 16:31:56.9590,-0.12,-0.469,-0.678,1.39,-2.0,-0.51,0.66,0.13,0.52
2022-01-30 16:31:56.9690,-0.121,-0.442,-0.643,1.39,-2.34,-0.83,0.89,0.22,0.29
2022-01-30 16:31:56.9790,-0.114,-0.429,-0.605,1.23,-2.7,-1.57,1.02,0.22,0.05
2022-01-30 16:31:56.9890,-0.103,-0.421,-0.551,1.23,-2.7,-1.57,1.07,0.19,-0.18
2022-01-30 16:31:56.9990,-0.09,-0.412,-0.504,1.14,-2.85,-1.97,1.06,0.13,-0.38
2022-01-30 16:31:57.0090,-0.073,-0.402,-0.479,1.01,-3.03,-2.18,0.99,0.01,-0.55
2022-01-30 16:31:57.0190,-0.055,-0.397,-0.482,0.7820884823799134,-3.12,-1.99,0.91,-0.13,-0.67
2022-01-30 16:31:57.0300,-0.042,-0.408,-0.487,0.68,-2.98,-1.89,0.91,-0.13,-0.67
2022-01-30 16:31:57.0400,-0.029,-0.429,-0.494,0.68,-2.98,-1.89,0.78,-0.32,-0.75
2022-01-30 16:31:57.0490,-0.022,-0.462,-0.531,0.63,-2.72,-1.51,0.77,-0.37,-0.71
2022-01-30 16:31:57.0590,-0.01,-0.511,-0.555,0.32,-1.75,-1.28,0.82,-0.28,-0.63
2022-01-30 16:31:57.0680,0.019,-0.575,-0.532,0.32,-1.75,-1.28,0.95,-0.01,-0.53
2022-01-30 16:31:57.0790,0.063,-0.661,-0.494,-0.05,-0.99,-1.58,0.95,-0.01,-0.53
2022-01-30 16:31:57.0900,0.103,-0.746,-0.466,-0.42,-0.21,-1.82,1.26,0.51,-0.3
2022-01-30 16:31:57.0990,0.114,-0.811,-0.554,-0.51,0.83,1.06,1.23,0.13,-0.24
2022-01-30 16:31:57.1100,0.117,-0.865,-0.767,-0.51,0.83,1.06,1.02,-0.75,-0.22
2022-01-30 16:31:57.1200,0.132,-0.944,-0.883,-0.67,1.51,2.51,0.74,-1.57,-0.22
2022-01-30 16:31:57.1300,0.158,-1.018,-0.785,-1.01,2.28,0.54,0.49,-2.01,-0.25
2022-01-30 16:31:57.1400,0.137,-1.011,-0.663,-1.01,2.28,0.54,0.27,-2.16,-0.31
2022-01-30 16:31:57.1500,0.059,-0.906,-0.623,0.2,0.19,-0.35,-0.01,-2.14,-0.43
2022-01-30 16:31:57.1600,-0.006,-0.795,-0.573,0.2,0.19,-0.35,-0.31,-1.86,-0.57
2022-01-30 16:31:57.1690,-0.057,-0.74,-0.476,1.07,-0.61,-2.03,-0.63,-1.38,-0.68
2022-01-30 16:31:57.1800,-0.103,-0.715,-0.417,1.07,-0.61,-2.03,-0.63,-1.38,-0.68
2022-01-30 16:31:57.1900,-0.147,-0.68,-0.443,1.51,-0.86,-1.96,-1.39,-0.6,-0.78
2022-01-30 16:31:57.1990,-0.185,-0.626,-0.512,2.13,-1.71,-0.94,-1.81,-0.47,-0.79
2022-01-30 16:31:57.2100,-0.201,-0.571,-0.571,2.17,-2.13,-0.75,-2.16,-0.43,-0.79
2022-01-30 16:31:57.2200,-0.2,-0.512,-0.603,2.17,-2.13,-0.75,-2.4,-0.38,-0.79
2022-01-30 16:31:57.2300,-0.188,-0.442,-0.608,1.91,-3.02,-1.22,-2.53,-0.2,-0.8
2022-01-30 16:31:57.2410,-0.163,-0.389,-0.585,1.91,-3.02,-1.22,-2.55,0.16,-0.8
2022-01-30 16:31:57.2490,-0.124,-0.376,-0.581,1.61,-3.01,-1.51,-2.46,0.51,-0.74
2022-01-30 16:31:57.2600,-0.078,-0.388,-0.657,0.92,-2.27,-0.31,-2.25,0.71,-0.57
2022-01-30 16:31:57.2700,-0.036,-0.421,-0.737,0.92,-2.27,-0.31,-1.87,0.79,-0.3
2022-01-30 16:31:57.2800,-0.0,-0.469,-0.744,0.39,-1.19,-0.7,-1.29,0.84,0.04
2022-01-30 16:31:57.2900,0.029,-0.506,-0.704,0.22,-0.9,-0.89,-0.56,0.83,0.37
2022-01-30 16:31:57.3000,0.049,-0.532,-0.692,0.22,-0.9,-0.89,-0.56,0.83,0.37
2022-01-30 16:31:57.3090,0.07,-0.564,-0.726,0.04,-0.62,-0.58,0.99,0.34,0.77
2022-01-30 16:31:57.3190,0.1,-0.606,-0.771,-0.27,-0.32,-0.06,1.61,-0.09,0.77
2022-01-30 16:31:57.3290,0.127,-0.682,-0.797,-0.61,0.25,0.33,2.08,-0.46,0.69
2022-01-30 16:31:57.3390,0.157,-0.784,-0.774,-0.98,1.07,0.29,2.36,-0.67,0.52
2022-01-30 16:31:57.3490,0.179,-0.865,-0.756,-1.3,1.75,0.21,2.38,-0.81,0.25
2022-01-30 16:31:57.3600,0.172,-0.91,-0.8,-1.34,2.06,0.73,2.38,-0.81,0.25
2022-01-30 16:31:57.3690,0.129,-0.932,-0.881,-1.02,2.14,1.64,2.11,-0.99,-0.08
2022-01-30 16:31:57.3800,0.082,-0.972,-0.906,-0.59,2.39,2.12,1.09,-1.12,-0.51
2022-01-30 16:31:57.3890,0.064,-1.043,-0.838,-0.42,3.01,1.58,0.69,-0.77,-0.53
2022-01-30 16:31:57.4000,0.05,-1.078,-0.812,-0.31,3.38,1.6359480285644532,0.4,-0.37,-0.47
2022-01-30 16:31:57.4100,0.025,-1.062,-0.85,0.21,2.84,1.77,0.2,-0.02,-0.43
2022-01-30 16:31:57.4190,0.003,-1.021,-0.854,0.21,2.84,1.77,0.08,0.35,-0.44
2022-01-30 16:31:57.4300,-0.002,-0.997,-0.794,0.34,2.57,1.23,0.0,0.74,-0.5
2022-01-30 16:31:57.4410,0.016,-1.007,-0.739,0.27,2.63,0.65,-0.08,0.99,-0.6
2022-01-30 16:31:57.4500,0.053,-1.039,-0.725,0.04,2.94,0.48,-0.23,1.08,-0.69
2022-01-30 16:31:57.4610,0.103,-1.073,-0.694,-0.31,3.3,0.2,-0.45,1.07,-0.78
2022-01-30 16:31:57.4710,0.159,-1.107,-0.66,-0.74,3.67,-0.19,-0.74,0.97,-0.84
2022-01-30 16:31:57.4810,0.203,-1.144,-0.667,-1.07,4.09,-0.22,-1.07,0.73,-0.82
2022-01-30 16:31:57.4910,0.219,-1.177,-0.706,-1.0,4.64,0.31,-1.41,0.39,-0.7
2022-01-30 16:31:57.5010,0.207,-1.172,-0.738,-0.62,4.16,0.27,-1.69,0.03,-0.55
2022-01-30 16:31:57.5110,0.169,-1.103,-0.743,-0.62,4.16,0.27,-1.69,0.03,-0.55
2022-01-30 16:31:57.5210,0.125,-0.994,-0.735,-0.18,3.26,0.07,-1.91,-0.42,-0.37
2022-01-30 16:31:57.5310,0.082,-0.881,-0.726,0.57,1.34,-0.43,-1.82,-0.47,-0.36
2022-01-30 16:31:57.5410,0.049,-0.77,-0.71,0.8,0.44,-0.57,-1.6,-0.43,-0.4
2022-01-30 16:31:57.5510,0.025,-0.667,-0.708,0.8,0.44,-0.57,-1.28,-0.38,-0.45
2022-01-30 16:31:57.5610,0.01,-0.576,-0.705,0.97,-0.38,-0.67,-0.9,-0.3,-0.5
2022-01-30 16:31:57.5710,0.003,-0.506,-0.696,1.06,-1.48,-0.83,-0.5,-0.23,-0.52
2022-01-30 16:31:57.5810,0.004,-0.457,-0.7,1.06,-1.48,-0.83,-0.12,-0.2,-0.52
2022-01-30 16:31:57.5910,0.004,-0.421,-0.703,1.07,-1.83,-0.79,0.24,-0.19,-0.48
2022-01-30 16:31:57.6010,0.003,-0.39,-0.683,1.11,-2.47,-1.26,0.56,-0.14,-0.42
2022-01-30 16:31:57.6110,0.004,-0.363,-0.645,1.09,-2.66,-1.56,0.83,-0.07,-0.35
2022-01-30 16:31:57.6210,0.007,-0.351,-0.61,1.09,-2.66,-1.56,1.06,0.0,-0.26
2022-01-30 16:31:57.6310,0.012,-0.353,-0.576,1.07,-2.74,-1.82,1.24,0.09,-0.16
2022-01-30 16:31:57.6420,0.017,-0.359,-0.535,0.99,-2.84,-2.34,1.35,0.19,-0.06
2022-01-30 16:31:57.6510,0.024,-0.363,-0.51,0.83,-2.79,-2.28,1.38,0.25,0.0
2022-01-30 16:31:57.6620,0.044,-0.381,-0.508,0.83,-2.79,-2.28,1.33,0.29,0.02
2022-01-30 16:31:57.6720,0.075,-0.419,-0.514,0.56,-2.53,-2.14,1.23,0.29,0.02
2022-01-30 16:31:57.6810,0.118,-0.468,-0.538,0.16,-2.14,-1.86,1.11,0.24,0.03
2022-01-30 16:31:57.6920,0.166,-0.53,-0.571,-0.29,-1.63,-1.43,1.04,0.22,0.08
2022-01-30 16:31:57.7010,0.23,-0.605,-0.544,-0.88,-0.98,-1.55,1.04,0.33,0.16
2022-01-30 16:31:57.7110,0.308,-0.687,-0.512,-1.63,-0.26,-1.85,1.04,0.42,0.26
2022-01-30 16:31:57.7220,0.368,-0.771,-0.572,-2.58,1.17,0.26,0.95,0.24,0.37
2022-01-30 16:31:57.7320,0.396,-0.845,-0.736,-2.68,1.83,1.75,0.95,0.24,0.37
2022-01-30 16:31:57.7410,0.397,-0.918,-0.867,-2.68,1.83,1.75,0.38,-0.81,0.58
2022-01-30 16:31:57.7410,0.397,-0.98,-0.837,-2.68,1.83,1.75,0.04,-1.06,0.61
2022-01-30 16:31:57.7570,0.376,-0.973,-0.787,-2.88,2.45,1.61,-0.33,-1.17,0.54
2022-01-30 16:31:57.7670,0.325,-0.889,-0.815,-2.84,2.51,1.01,-0.72,-1.18,0.42
2022-01-30 16:31:57.7770,0.268,-0.814,-0.8,-2.47,1.8,1.16,-1.06,-0.89,0.35
2022-01-30 16:31:57.7870,0.22,-0.778,-0.716,-1.99,1.08,1.05,-1.32,-0.3,0.32
2022-01-30 16:31:57.7970,0.177,-0.745,-0.667,-1.54,0.78,0.15,-1.51,0.33,0.35
2022-01-30 16:31:57.8080,0.146,-0.701,-0.686,-1.11,0.58,-0.51,-1.62,0.8,0.41
2022-01-30 16:31:57.8180,0.139,-0.664,-0.734,-0.75,0.27,-0.5,-1.63,1.07,0.48
2022-01-30 16:31:57.8270,0.156,-0.652,-0.754,-0.61,0.0,-0.12,-1.51,1.15,0.55
2022-01-30 16:31:57.8380,0.18,-0.643,-0.77,-0.7,-0.04,0.02,-1.51,1.15,0.55
2022-01-30 16:31:57.8470,0.184,-0.606,-0.786,-0.91,-0.03,0.1,-0.92,0.81,0.58
2022-01-30 16:31:57.8580,0.166,-0.536,-0.784,-0.96,-0.28,0.21,-0.51,0.57,0.52
2022-01-30 16:31:57.8680,0.133,-0.447,-0.752,-0.8,-0.9,0.2,-0.08,0.45,0.43
2022-01-30 16:31:57.8780,0.091,-0.368,-0.705,-0.48,-1.77,-0.07,0.35,0.45,0.34
2022-01-30 16:31:57.8880,0.059,-0.314,-0.656,-0.06,-2.6,-0.52,0.78,0.61,0.26
2022-01-30 16:31:57.8980,0.041,-0.288,-0.591,0.3,-3.22,-0.92,1.17,0.91,0.24
2022-01-30 16:31:57.9080,0.035,-0.29,-0.531,0.56,-3.61,-1.46,1.47,1.31,0.28
2022-01-30 16:31:57.9170,0.048,-0.348,-0.5,0.71,-3.74,-1.95,1.66,1.65,0.41
2022-01-30 16:31:57.9280,0.072,-0.473,-0.505,0.7,-3.38,-2.18,1.66,1.65,0.41
2022-01-30 16:31:57.9380,0.115,-0.623,-0.517,0.56,-2.36,-2.02,1.76,1.79,0.8
2022-01-30 16:31:57.9480,0.16,-0.746,-0.559,0.23,-1.01,-1.76,1.64,1.4,0.86
2022-01-30 16:31:57.9580,0.164,-0.832,-0.668,-0.21,0.12,-1.29,1.36,0.56,0.79
2022-01-30 16:31:57.9680,0.124,-0.878,-0.813,-0.34,0.92,-0.21,0.94,-0.46,0.6
2022-01-30 16:31:57.9780,0.096,-0.911,-0.858,-0.06,1.35,1.29,0.53,-1.12,0.39
2022-01-30 16:31:57.9880,0.089,-0.983,-0.745,0.16,1.62,1.94,0.29,-1.13,0.25
2022-01-30 16:31:57.9980,0.087,-1.032,-0.606,0.15,2.27,1.0,0.22,-0.71,0.15
2022-01-30 16:31:58.0080,0.054,-1.002,-0.581,0.1,2.81,-0.43,0.2,-0.27,0.05
2022-01-30 16:31:58.0180,-0.001,-0.936,-0.642,0.37,2.6,-0.82,0.17,0.12,-0.03
2022-01-30 16:31:58.0280,-0.035,-0.922,-0.629,0.92,1.93,-0.23,0.12,0.6,-0.06
2022-01-30 16:31:58.0380,-0.051,-0.966,-0.534,1.33,1.7,-0.2,-0.01,1.1,-0.04
2022-01-30 16:31:58.0480,-0.022,-1.035,-0.503,1.59,2.09,-1.11,-0.01,1.1,-0.04
2022-01-30 16:31:58.0580,0.054,-1.108,-0.528,1.47,2.76,-1.53,-0.61,1.46,-0.01
2022-01-30 16:31:58.0680,0.125,-1.151,-0.58,0.85,3.53,-1.36,-1.01,1.21,-0.01
2022-01-30 16:31:58.0780,0.159,-1.147,-0.648,0.2,4.08,-0.94,-1.4,0.71,0.01
2022-01-30 16:31:58.0880,0.161,-1.114,-0.686,-0.15,4.19,-0.37,-1.71,0.11,0.08
2022-01-30 16:31:58.0980,0.129,-1.06,-0.701,-0.21,4.01,-0.07,-1.9,-0.49,0.2
2022-01-30 16:31:58.1080,0.078,-0.981,-0.714,0.01,3.64,-0.05,-1.97,-1.02,0.34
2022-01-30 16:31:58.1180,0.027,-0.882,-0.736,0.4,3.03,-0.07,-1.9,-1.48,0.44
2022-01-30 16:31:58.1290,-0.027,-0.774,-0.768,0.77,2.2,-0.02,-1.68,-1.8,0.49
2022-01-30 16:31:58.1390,-0.071,-0.654,-0.772,1.14,1.27,0.17,-1.33,-1.87,0.46
2022-01-30 16:31:58.1490,-0.108,-0.528,-0.726,1.42,0.2,0.17,-0.86,-1.65,0.37
2022-01-30 16:31:58.1590,-0.137,-0.428,-0.678,1.64,-0.99,-0.3,-0.36,-1.23,0.26
2022-01-30 16:31:58.1690,-0.146,-0.37,-0.664,1.84,-1.99,-0.82,0.09,-0.75,0.15
2022-01-30 16:31:58.1790,-0.14,-0.363,-0.678,1.89,-2.63,-1.0,0.43,-0.28,0.08
2022-01-30 16:31:58.1890,-0.109,-0.396,-0.694,1.83,-2.79,-0.85,0.63,0.07,0.05
2022-01-30 16:31:58.1990,-0.06,-0.439,-0.724,1.56,-2.55,-0.66,0.63,0.07,0.05
2022-01-30 16:31:58.2090,-0.008,-0.463,-0.725,1.11,-2.18,-0.33,0.8,0.43,0.11
2022-01-30 16:31:58.2190,0.046,-0.471,-0.678,0.62,-1.97,-0.2,0.87,0.58,0.17
2022-01-30 16:31:58.2290,0.092,-0.474,-0.626,0.13,-1.94,-0.56,0.87,0.58,0.17
2022-01-30 16:31:58.2390,0.13,-0.482,-0.591,-0.3,-1.99,-1.02,1.03,0.73,0.33
2022-01-30 16:31:58.2490,0.171,-0.511,-0.568,-0.66,-2.0,-1.32,1.13,0.7,0.41
2022-01-30 16:31:58.2590,0.217,-0.569,-0.545,-1.03,-1.83,-1.47,1.21,0.63,0.5
2022-01-30 16:31:58.2690,0.262,-0.647,-0.532,-1.47,-1.38,-1.6,1.24,0.48,0.57
2022-01-30 16:31:58.2790,0.296,-0.727,-0.566,-1.92,-0.72,-1.67,1.17,0.16,0.59
2022-01-30 16:31:58.2890,0.32,-0.803,-0.648,-2.32,-0.01,-1.34,0.98,-0.31,0.57
2022-01-30 16:31:58.2930,0.334,-0.858,-0.708,-2.32,-0.01,-1.34,0.68,-0.76,0.5
2022-01-30 16:31:58.3060,0.331,-0.881,-0.714,-2.77,1.25,0.16,0.28,-1.13,0.37
2022-01-30 16:31:58.3150,0.291,-0.86,-0.721,-2.63,1.32,0.35,-0.2,-1.44,0.2
2022-01-30 16:31:58.3250,0.206,-0.801,-0.761,-1.96,0.79,0.67,-0.76,-1.72,0.06
2022-01-30 16:31:58.3350,0.105,-0.744,-0.797,-1.96,0.79,0.67,-1.32,-1.85,-0.02
2022-01-30 16:31:58.3450,0.022,-0.693,-0.771,-1.08,0.27,1.02,-1.78,-1.73,-0.03
2022-01-30 16:31:58.3550,-0.06,-0.637,-0.723,-0.37,-0.14,0.73,-2.06,-1.33,-0.0
2022-01-30 16:31:58.3650,-0.133,-0.564,-0.657,0.32,-0.54,0.15,-2.14,-0.71,0.04
2022-01-30 16:31:58.3750,-0.189,-0.48,-0.598,0.96,-1.09,-0.62,-2.03,0.02,0.07
2022-01-30 16:31:58.3850,-0.217,-0.415,-0.552,1.49,-1.77,-1.94448279440403,-1.78,0.74,0.09
2022-01-30 16:31:58.3950,-0.214,-0.39,-0.536,1.8,-2.28,-1.95,-1.45,1.23,0.11
2022-01-30 16:31:58.4050,-0.184,-0.407,-0.588,1.69,-2.23,-1.94,-1.1,1.43,0.13
2022-01-30 16:31:58.4150,-0.145,-0.429,-0.649,1.69,-2.23,-1.94,-0.76,1.4,0.17
2022-01-30 16:31:58.4250,-0.104,-0.429,-0.674,1.0989672249555589,-1.82,-1.14,-0.44,1.22,0.22
2022-01-30 16:31:58.4360,-0.071,-0.422,-0.708,1.09,-1.82,-1.14,-0.44,1.22,0.22
2022-01-30 16:31:58.4450,-0.036,-0.433,-0.758,0.84,-1.86,-0.89,-0.11,0.52,0.42
2022-01-30 16:31:58.4550,0.002,-0.477,-0.709,0.55,-1.78,-0.35,0.59,0.39,0.46
2022-01-30 16:31:58.4650,0.042,-0.523,-0.693,0.19,-1.41,-0.71,0.9,0.29,0.43
2022-01-30 16:31:58.4750,0.096,-0.558,-0.748,-0.2,-0.99,-0.95,1.14,0.13,0.35
2022-01-30 16:31:58.4860,0.161,-0.617,-0.819,-0.71,-0.72,-0.4,1.29,-0.08,0.29
2022-01-30 16:31:58.4960,0.198,-0.701,-0.874,-1.8,0.45,1.01,1.27,-0.33,0.23
2022-01-30 16:31:58.5060,0.198,-0.772,-0.911,-1.8,0.45,1.01,1.02,-0.48,0.12
2022-01-30 16:31:58.5150,0.179,-0.824,-0.892,-1.74,1.55,1.42,0.58,-0.5,-0.1
2022-01-30 16:31:58.5260,0.171,-0.836,-0.874,-1.67,1.69,1.25,0.07,-0.45,-0.39
2022-01-30 16:31:58.5360,0.157,-0.806,-0.871,-1.67,1.69,1.25,-0.38,-0.27,-0.66
2022-01-30 16:31:58.5460,0.149,-0.798,-0.816,-1.56,1.42,1.25,-0.64,0.03,-0.79
2022-01-30 16:31:58.5560,0.167,-0.846,-0.788,-1.43,1.31,0.71,-0.75,0.34,-0.78
2022-01-30 16:31:58.5660,0.212,-0.86,-0.833,-1.88,2.06,0.6,-0.87,0.31,-0.71
2022-01-30 16:31:58.5760,0.205,-0.86,-0.965,-1.88,2.06,0.6,-1.03,-0.16,-0.58
2022-01-30 16:31:58.5860,0.171,-0.855,-1.05,-1.82,2.11,1.79,-1.23,-0.78,-0.52
2022-01-30 16:31:58.5960,0.119,-0.775,-1.086,-1.49,2.19,2.66,-1.49,-1.29,-0.63
2022-01-30 16:31:58.6070,0.055,-0.655,-1.104,-1.03,1.6,2.97,-1.79,-1.65,-0.86
2022-01-30 16:31:58.6160,-0.03,-0.569,-1.133,0.24,-0.21,3.25,-2.03,-1.81,-1.08
2022-01-30 16:31:58.6270,-0.133,-0.526,-1.055,0.24,-0.21,3.25,-2.17,-1.55,-1.17
2022-01-30 16:31:58.6360,-0.211,-0.501,-0.947,1.93,-0.59,1.28,-2.18,-1.05,-1.09
2022-01-30 16:31:58.6470,-0.266,-0.473,-0.898,1.93,-0.59,1.28,-2.09,-0.54,-0.9
2022-01-30 16:31:58.6560,-0.287,-0.45,-0.885,2.47,-0.68,0.62,-1.91,-0.14,-0.67
2022-01-30 16:31:58.6660,-0.283,-0.451,-0.863,2.72,-0.75,0.35,-1.67,0.14,-0.44
2022-01-30 16:31:58.6770,-0.27,-0.458,-0.814,2.73,-0.61,0.08,-1.67,0.14,-0.44
2022-01-30 16:31:58.6860,-0.271,-0.448,-0.768,2.63,-0.4,-0.46,-1.41,0.3,-0.28
2022-01-30 16:31:58.6960,-0.271,-0.409,-0.754,2.73,-0.6,-1.25,-0.88,0.4,-0.36
2022-01-30 16:31:58.7070,-0.261,-0.367,-0.786,2.69,-0.95,-1.01,-0.61,0.38,-0.58
2022-01-30 16:31:58.7170,-0.25,-0.346,-0.827,2.69,-0.95,-1.01,-0.61,0.38,-0.58
2022-01-30 16:31:58.7260,-0.245,-0.345,-0.855,2.65,-1.14,-0.36,-0.0,0.18,-0.98
2022-01-30 16:31:58.7370,-0.23,-0.356,-0.869,2.65,-1.14,-0.36,0.38,-0.01,-1.06
2022-01-30 16:31:58.7460,-0.216,-0.356,-0.896,2.57,-1.03,-0.19,0.77,-0.3,-1.09
2022-01-30 16:31:58.7560,-0.208,-0.352,-0.962,2.47,-1.04,0.03,1.12,-0.59,-1.12
2022-01-30 16:31:58.7660,-0.192,-0.367,-1.01,2.41,-1.16,0.7,1.42,-0.73,-1.18
2022-01-30 16:31:58.7770,-0.182,-0.389,-1.015,2.13,-1.04,1.42,1.66,-0.72,-1.25
2022-01-30 16:31:58.7870,-0.205,-0.424,-0.98,2.33,-0.85,1.22,1.66,-0.72,-1.25
2022-01-30 16:31:58.7970,-0.229,-0.453,-0.902,2.61,-0.69,0.58,2.01,0.02,-1.51
2022-01-30 16:31:58.8070,-0.242,-0.462,-0.849,2.61,-0.69,0.58,2.1,0.61,-1.79
2022-01-30 16:31:58.8170,-0.226,-0.499,-0.857,2.84,-0.75,0.1,2.15,1.07,-2.1
2022-01-30 16:31:58.8270,-0.155,-0.584,-0.936,2.46,0.01,1.02,2.19,1.09,-2.34
2022-01-30 16:31:58.8370,-0.075,-0.667,-1.06,2.46,0.01,1.02,2.2,0.57,-2.48
2022-01-30 16:31:58.8470,-0.022,-0.661,-1.073,1.87,0.73,2.38,2.19,-0.18,-2.58
2022-01-30 16:31:58.8570,0.02,-0.593,-0.977,1.5,0.66,2.83,2.15,-0.89,-2.66
2022-01-30 16:31:58.8670,0.054,-0.532,-0.867,1.22,-0.12,2.09,2.07,-1.51,-2.7
2022-01-30 16:31:58.8770,0.067,-0.524,-0.83,0.85,-1.15,0.71,1.87,-2.13,-2.6057193279266357
2022-01-30 16:31:58.8870,0.075,-0.573,-0.861,0.85,-1.15,0.71,1.53,-2.67,-2.38
2022-01-30 16:31:58.8970,0.065,-0.564,-0.828,0.77,-0.78,1.09,1.1,-2.88,-2.13
2022-01-30 16:31:58.9070,0.015,-0.504,-0.736,0.78,-0.85,0.93,0.74,-2.65,-1.92
2022-01-30 16:31:58.9170,-0.029,-0.443,-0.63,1.17,-1.44,0.1,0.53,-2.14,-1.78
2022-01-30 16:31:58.9280,-0.036,-0.419,-0.566,1.56,-2.1,-0.95,0.47,-1.51,-1.75
2022-01-30 16:31:58.9370,-0.024,-0.377,-0.526,1.65,-2.37,-1.62,0.49,-0.97,-1.74
2022-01-30 16:31:58.9470,-0.056,-0.424,-0.578,1.52,-2.78,-2.05,0.52,-0.68,-1.59
2022-01-30 16:31:58.9570,-0.018,-0.55,-0.675,1.67,-1.3,-0.68,0.52,-0.68,-1.59
2022-01-30 16:31:58.9680,0.09,-0.665,-0.764,1.67,-1.3,-0.68,0.53,-0.53,-0.95
2022-01-30 16:31:58.9860,0.192,-0.72,-0.777,-0.31,0.47,0.54,0.59,-0.43,-0.58
2022-01-30 16:31:58.9880,0.27,-0.664,-0.744,-1.12,-0.01,0.22,0.74,-0.3,-0.27
2022-01-30 16:31:58.9970,0.303,-0.582,-0.756,-1.5,-0.88,0.34,0.95,-0.23,0.03
2022-01-30 16:31:59.0080,0.306,-0.534,-0.761,-1.5,-0.88,0.34,1.2,-0.12,0.34
2022-01-30 16:31:59.0180,0.29,-0.532,-0.73,-1.57,-1.47,0.5,1.48,0.02,0.64
2022-01-30 16:31:59.0280,0.265,-0.567,-0.717,-1.47,-1.64,0.29,1.73,0.08,0.92
2022-01-30 16:31:59.0370,0.267,-0.602,-0.759,-1.27,-1.43,0.22,1.92,-0.06,1.13
2022-01-30 16:31:59.0480,0.289,-0.631,-0.838,-1.61,-1.06,1.57,2.06,-0.5,1.33
2022-01-30 16:31:59.0580,0.31,-0.686,-0.929,-1.61,-1.06,1.57,2.15,-1.09,1.44
2022-01-30 16:31:59.0670,0.346,-0.789,-0.93,-1.95,-0.75,2.62,2.21,-1.32,1.23
2022-01-30 16:31:59.0780,0.37,-0.765,-0.825,-2.93,-0.08,2.05,2.25,-1.52,0.83
2022-01-30 16:31:59.0880,0.31,-0.751,-0.919,-2.57,-0.46,2.94,2.25,-1.52,0.83
2022-01-30 16:31:59.0970,0.263,-0.763,-0.886,-2.57,-0.46,2.94,1.86,-1.86,0.16
2022-01-30 16:31:59.1080,0.236,-0.795,-0.771,-2.19,-0.45,3.08,1.49,-1.62,-0.03
2022-01-30 16:31:59.1180,0.192,-0.842,-0.707,-2.06,-0.29,2.02,1.06,-1.18,-0.16
2022-01-30 16:31:59.1280,0.165,-0.852,-0.631,-1.47,0.2,0.83,0.6,-0.64,-0.28
2022-01-30 16:31:59.1380,0.153,-0.852,-0.57,-1.47,0.2,0.83,0.13,-0.09,-0.37
2022-01-30 16:31:59.1480,0.163,-0.858,-0.503,-1.35,0.17,0.26,0.13,0.45,-0.37
2022-01-30 16:31:59.1580,0.199,-0.882,-0.429,-1.38,0.21,-0.37,-0.8,0.95,-0.43
2022-01-30 16:31:59.1680,0.25,-0.932,-0.38,-2.05,0.95,-1.74,-1.25,1.36,-0.38
2022-01-30 16:31:59.1790,0.305,-0.995,-0.367,-2.05,0.95,-1.74,-1.7,1.57,-0.24
2022-01-30 16:31:59.1880,0.338,-1.034,-0.387,-2.74,2.16,-1.98,-2.14,1.6,-0.06
2022-01-30 16:31:59.1980,0.321,-1.046,-0.382,-2.74,2.16,-1.98,-2.49,1.57,0.13
2022-01-30 16:31:59.2080,0.277,-0.997,-0.374,-2.55,2.46,-2.12,-2.73,1.4,0.31
2022-01-30 16:31:59.2180,0.209,-0.932,-0.431,-1.36,1.73,-2.12,-2.84,1.17,0.45
2022-01-30 16:31:59.2280,0.128,-0.853,-0.462,-1.36,1.73,-2.12,-2.78,0.89,0.55
2022-01-30 16:31:59.2380,0.068,-0.779,-0.528,0.11,0.58,-1.62,-2.58,0.51,0.61
2022-01-30 16:31:59.2490,0.02,-0.713,-0.628,0.58,0.1,-0.82,-2.24,0.06,0.63
2022-01-30 16:31:59.2590,-0.013,-0.654,-0.678,0.58,0.1,-0.82,-1.81,-0.16,0.6
2022-01-30 16:31:59.2680,-0.015,-0.608,-0.626,0.89,-0.35,-0.36,-1.36,-0.02,0.54
2022-01-30 16:31:59.2780,0.002,-0.588,-0.565,0.69,-0.84,-1.63,-0.93,0.33,0.5
2022-01-30 16:31:59.2890,0.008,-0.588,-0.54,0.69,-0.84,-1.63,-0.58,0.76,0.48
2022-01-30 16:31:59.2980,0.012,-0.579,-0.529,0.62,-0.78,-1.96,-0.58,1.15,0.52
2022-01-30 16:31:59.3090,0.0,-0.561,-0.546,0.61,-0.81,-2.12,-0.21,1.35,0.63
2022-01-30 16:31:59.3190,-0.001,-0.546,-0.596,0.86,-1.11,-1.55,-0.12,1.32,0.82
2022-01-30 16:31:59.3290,0.037,-0.543,-0.654,0.86,-1.11,-1.55,-0.02,1.11,1.06
2022-01-30 16:31:59.3390,0.085,-0.555,-0.704,0.57,-1.16,-0.98,0.16,0.81,1.32
2022-01-30 16:31:59.3480,0.132,-0.568,-0.735,0.1,-1.06,-0.45,0.43,0.52,1.53
2022-01-30 16:31:59.3590,0.168,-0.572,-0.761,-0.39,-0.95,-0.12,0.75,0.33,1.66
2022-01-30 16:31:59.3680,0.196,-0.589,-0.75,-0.83,-0.95,0.18,1.1,0.38,1.74
2022-01-30 16:31:59.3790,0.216,-0.629,-0.692,-1.2,-0.89,0.2,1.4,0.6,1.81
2022-01-30 16:31:59.3890,0.228,-0.669,-0.662,-1.49,-0.61,-0.27,1.57,0.81,1.85
2022-01-30 16:31:59.3990,0.249,-0.69,-0.678,-1.69,-0.31,-0.53,1.53,0.91,1.84
2022-01-30 16:31:59.4090,0.279,-0.717,-0.702,-1.96,-0.21,-0.29,1.28,0.9,1.77
2022-01-30 16:31:59.4190,0.307,-0.754,-0.711,-2.31,-0.07,0.05,0.9,0.86,1.64
2022-01-30 16:31:59.4290,0.33,-0.773,-0.694,-2.65,0.21,0.26,0.42,0.74,1.44
2022-01-30 16:31:59.4390,0.323,-0.737,-0.704,-2.96,0.38,0.16,-0.14,0.49,1.22
2022-01-30 16:31:59.4490,0.287,-0.686,-0.719,-2.99,0.06,0.25,-0.74,0.22,1.01
2022-01-30 16:31:59.4590,0.24,-0.654,-0.712,-2.72,-0.43,0.41,-1.35,-0.03,0.82
2022-01-30 16:31:59.4690,0.181,-0.622,-0.723,-2.33,-0.71,0.28,-1.35,-0.03,0.82
2022-01-30 16:31:59.4790,0.121,-0.596,-0.756,-1.82,-0.93,0.25,-2.39,-0.41,0.49
2022-01-30 16:31:59.4890,0.062,-0.571,-0.799,-1.29,-1.06,0.42,-2.67,-0.52,0.39
2022-01-30 16:31:59.4990,-0.012,-0.525,-0.821,-0.13,-1.35,0.74,-2.69,-0.49,0.36
2022-01-30 16:31:59.5100,-0.088,-0.471,-0.82,-0.13,-1.35,0.74,-2.39,-0.22,0.39
2022-01-30 16:31:59.5190,-0.148,-0.41,-0.762,0.56,-1.68,0.6,-1.83,0.27,0.46
2022-01-30 16:31:59.5290,-0.181,-0.337,-0.696,1.14,-2.08,-0.05,-1.83,0.27,0.46
2022-01-30 16:31:59.5390,-0.184,-0.288,-0.64,1.49,-2.66,-0.83,-0.59,1.25,0.73
2022-01-30 16:31:59.5500,-0.163,-0.283,-0.6,1.59,-3.1,-1.44,-0.14,1.65,0.92
2022-01-30 16:31:59.5600,-0.099,-0.324,-0.477,1.48,-3.17,-1.89,0.26,2.16,1.02
2022-01-30 16:31:59.5700,-0.053,-0.34,-0.45,0.58,-2.6,-3.51,0.51,2.35,1.02
2022-01-30 16:31:59.5790,-0.028,-0.351,-0.589,0.45,-2.56,-2.17,0.63,2.17,0.94
2022-01-30 16:31:59.5900,-0.009,-0.395,-0.645,0.45,-2.56,-1.4175054073333742,0.7,1.91,0.84
2022-01-30 16:31:59.5990,-0.005,-0.448,-0.633,0.35,-2.21,-1.42,0.74,1.62,0.72
2022-01-30 16:31:59.6100,-0.008,-0.482,-0.668,0.39,-1.74,-1.49,0.76,1.34,0.72
2022-01-30 16:31:59.6200,-0.015,-0.495,-0.712,0.5,-1.44,-1.15,0.79,1.18,0.32
2022-01-30 16:31:59.6290,-0.009,-0.508,-0.722,0.64,-1.35,-0.66,0.84,1.21,0.06
2022-01-30 16:31:59.6400,0.022,-0.543,-0.737,0.68,-1.3,-0.46,0.84,1.21,0.06
2022-01-30 16:31:59.6500,0.077,-0.614,-0.786,0.49,-1.06,-0.29,0.81,1.52,-0.32
2022-01-30 16:31:59.6600,0.148,-0.715,-0.86,-0.46,0.45,0.97,0.66,1.6,-0.38
2022-01-30 16:31:59.6700,0.216,-0.81,-0.956,-0.46,0.45,0.97,0.42,1.58,-0.37
2022-01-30 16:31:59.6790,0.279,-0.896,-1.04,-1.48,2.18,2.86,0.16,1.52,-0.3
2022-01-30 16:31:59.6900,0.338,-0.985,-1.098,-1.48,2.18,2.86,-0.03,1.43,-0.21
2022-01-30 16:31:59.7000,0.386,-1.036,-1.139,-2.31,3.63,3.92,-0.1,1.32,-0.13
2022-01-30 16:31:59.7100,0.419,-1.031,-1.156,-2.55,3.65,4.13,-0.1,1.19,-0.11
2022-01-30 16:31:59.7200,0.442,-1.012,-1.135,-2.55,3.65,4.13,-0.07,1.1,-0.08
2022-01-30 16:31:59.7300,0.456,-1.027,-1.063,-2.69,3.45,4.0,-0.14,1.04,-0.02
2022-01-30 16:31:59.7400,0.47,-1.052,-1.016,-2.75,3.57,3.35,-0.39,0.88,0.04
2022-01-30 16:31:59.7500,0.483,-1.045,-1.035,-2.89,3.85,2.9,-0.85,0.49,0.03
2022-01-30 16:31:59.7610,0.492,-1.012,-1.125,-2.89,3.85,2.9,-1.5,-0.11,-0.07
2022-01-30 16:31:59.7700,0.485,-1.004,-1.211,-2.96,3.6,4.474298188090325,-2.16,-0.63,-0.15
2022-01-30 16:31:59.7800,0.44,-1.019,-1.224,-2.93,3.59,4.47,-2.67,-0.86,-0.2
2022-01-30 16:31:59.7900,0.362,-0.959,-1.236,-2.59,3.93,4.52,-2.93,-0.85,-0.23
2022-01-30 16:31:59.8000,0.264,-0.827,-1.262,-1.89,3.68,4.42,-2.93,-0.85,-0.23
2022-01-30 16:31:59.8100,0.155,-0.689,-1.244,0.02,1.54,4.22,-2.95,-0.6,-0.23
2022-01-30 16:31:59.8210,0.042,-0.549,-1.199,0.02,1.54,4.22,-2.55,0.5,0.03
2022-01-30 16:31:59.8300,-0.057,-0.448,-1.144,1.13,0.39,3.65,-2.24,1.14,0.35
2022-01-30 16:31:59.8410,-0.09,-0.419,-1.077,2.19,-0.47,3.01,-2.24,1.14,0.35
2022-01-30 16:31:59.8500,-0.053,-0.43,-1.031,2.69,-0.66,2.25,-1.89,1.66,0.71
2022-01-30 16:31:59.8610,-0.01,-0.432,-0.98,2.18,-0.28,1.22,-1.05,2.13,1.19
2022-01-30 16:31:59.8700,0.013,-0.412,-0.914,2.18,-0.28,1.22,-1.05,2.13,1.19
2022-01-30 16:31:59.8810,0.02,-0.386,-0.843,2.06,-0.4,0.59,-0.12,1.97,1.14
2022-01-30 16:31:59.8910,0.014,-0.365,-0.791,2.1,-0.64,-0.09,0.31,1.69,0.97
2022-01-30 16:31:59.9000,0.004,-0.348,-0.735,2.44,-1.09,-1.06,0.71,1.34,0.76
2022-01-30 16:31:59.9110,-0.001,-0.325,-0.685,2.5871958750486375,-1.39,-1.5,0.71,1.34,0.76
2022-01-30 16:31:59.9210,0.005,-0.306,-0.642,2.58,-1.69,-1.85,1.39,0.48,0.31
2022-01-30 16:31:59.9310,0.015,-0.297,-0.61,2.58,-1.69,-1.85,1.63,0.04,0.1
2022-01-30 16:31:59.9410,0.016,-0.284,-0.599,2.4726114982366565,-2.1524735176563263,-2.15,1.78,-0.33,-0.09
2022-01-30 16:31:59.9510,-0.001,-0.264,-0.585,2.47,-2.16,-2.15,1.85,-0.54,-0.28
2022-01-30 16:31:59.9610,-0.022,-0.239,-0.585,2.77,-2.87,-2.17,1.84,-0.64,-0.47
2022-01-30 16:31:59.9710,-0.035,-0.215,-0.623,2.77,-2.87,-2.17,1.79,-0.66,-0.68
2022-01-30 16:31:59.9800,-0.038,-0.21,-0.684,2.925097112059593,-3.4379300844669345,-1.1,1.76,-0.64,-0.88
2022-01-30 16:31:59.9910,-0.027,-0.234,-0.745,2.92,-3.44,-1.1,1.83,-0.54,-1.06
2022-01-30 16:32:00.0010,0.004,-0.277,-0.768,2.84,-3.35,-0.4,2.02,-0.35,-1.2
2022-01-30 16:32:00.0110,0.052,-0.327,-0.775,2.17,-2.7,0.15,2.02,-0.35,-1.2
2022-01-30 16:32:00.0200,0.118,-0.395,-0.768,1.61,-2.2,0.24,2.41,0.1,-1.28
2022-01-30 16:32:00.0300,0.172,-0.485,-0.74,1.14,-1.47,0.14,2.46,0.26,-1.19
2022-01-30 16:32:00.0410,0.216,-0.553,-0.71,1.14,-1.47,0.14,2.36,0.24,-1.11
2022-01-30 16:32:00.0510,0.251,-0.556,-0.719,0.79,-0.88,-0.02,2.08,-0.04,-1.12
2022-01-30 16:32:00.0610,0.278,-0.527,-0.749,0.52,-0.9,0.17,1.62,-0.54,-1.23
2022-01-30 16:32:00.0720,0.299,-0.529,-0.779,0.31,-1.29,0.58,1.06,-1.13,-1.34
2022-01-30 16:32:00.0810,0.305,-0.579,-0.763,0.14,-1.39,0.97,0.51,-1.57,-1.39
2022-01-30 16:32:00.0910,0.287,-0.607,-0.701,0.07,-0.97,0.93,0.04,-1.85,-1.43
2022-01-30 16:32:00.1020,0.254,-0.549,-0.668,0.19,-0.6,0.31,-0.38,-2.05,-1.53
2022-01-30 16:32:00.1200,0.216,-0.456,-0.658,0.8,-1.85,-0.32,-0.79,-2.2,-1.67
2022-01-30 16:32:00.1210,0.17,-0.377,-0.663,0.8,-1.85,-0.32,-1.2,-2.35,-1.83
2022-01-30 16:32:00.1310,0.12,-0.315,-0.7,1.64,-3.02,-0.24,-1.6,-2.47,-1.99
2022-01-30 16:32:00.1420,0.089,-0.272,-0.75,1.92,-3.3,0.06,-1.93,-2.48,-2.12
2022-01-30 16:32:00.1520,0.075,-0.254,-0.801,1.92,-3.3,0.06,-1.93,-2.48,-2.12
2022-01-30 16:32:00.1620,0.07,-0.244,-0.844,2.03,-3.18,0.62,-2.16,-2.06,-2.13
2022-01-30 16:32:00.1720,0.07,-0.246,-0.876,2.03,-3.18,0.62,-1.91,-1.6,-1.94
2022-01-30 16:32:00.1810,0.082,-0.271,-0.836,2.0,-2.97,0.82,-1.4,-1.0,-1.61
2022-01-30 16:32:00.1910,0.1,-0.302,-0.792,1.88,-2.55,0.36,-0.71,-0.4,-1.17
2022-01-30 16:32:00.2020,0.116,-0.337,-0.755,1.71,-2.1,-0.19,0.05,0.07,-0.63
2022-01-30 16:32:00.2120,0.122,-0.386,-0.692,1.54,-1.21,-1.16,0.79,0.38,-0.07
2022-01-30 16:32:00.2220,0.123,-0.423,-0.641,1.54,-1.21,-1.16,1.4,0.42,0.43
2022-01-30 16:32:00.2320,0.131,-0.45,-0.639,1.55,-0.89,-1.66,1.85,0.22,0.81
2022-01-30 16:32:00.2410,0.162,-0.509,-0.627,1.5,-0.76,-1.64,2.18,-0.11,1.06
2022-01-30 16:32:00.2520,0.211,-0.597,-0.609,1.2,-0.41,-1.62,2.42,-0.57,1.18
2022-01-30 16:32:00.2700,0.27,-0.673,-0.622,-0.03,0.8,-1.49,2.6,-1.16,1.15
2022-01-30 16:32:00.2720,0.334,-0.726,-0.647,-0.81,1.12,-1.11,2.69,-1.8,1.0
2022-01-30 16:32:00.2810,0.39,-0.79,-0.652,-0.81,1.12,-1.11,2.66,-2.35,0.81
2022-01-30 16:32:00.2910,0.432,-0.874,-0.651,-2.23,2.1,-0.83,2.66,-2.35,0.81
2022-01-30 16:32:00.3010,0.45,-0.944,-0.692,-2.23,2.1,-0.83,2.12,-3.17,0.36
2022-01-30 16:32:00.3120,0.445,-0.999,-0.789,-2.68,2.64,-0.4,1.63,-3.46,0.1
2022-01-30 16:32:00.3220,0.418,-1.063,-0.857,-2.9,3.02,0.61,1.63,-3.46,0.1
2022-01-30 16:32:00.3320,0.362,-1.116,-0.862,-2.92,3.54,1.4,0.93,-2.93,-0.37
2022-01-30 16:32:00.3430,0.303,-1.144,-0.853,-2.61,4.0,1.56,0.81,-2.15,-0.53
2022-01-30 16:32:00.3520,0.268,-1.147,-0.875,-2.19,4.25,1.48,0.72,-1.34,-0.64
2022-01-30 16:32:00.3620,0.262,-1.164,-0.911,-1.92,4.25,1.69,0.72,-1.34,-0.64
2022-01-30 16:32:00.3730,0.269,-1.199,-0.877,-1.87,4.34,2.11,0.39,0.24,-0.71
2022-01-30 16:32:00.3820,0.287,-1.23,-0.807,-1.9,4.64,1.92,0.08,0.86,-0.71
2022-01-30 16:32:00.3920,0.305,-1.247,-0.772,-2.0,4.94,1.25,-0.33,1.21,-0.7
2022-01-30 16:32:00.4030,0.338,-1.264,-0.758,-2.07,5.13,0.86,-0.8,1.28,-0.73
2022-01-30 16:32:00.4120,0.375,-1.275,-0.759,-2.47,5.5,0.63,-1.32,1.12,-0.81
2022-01-30 16:32:00.4230,0.414,-1.296,-0.782,-2.47,5.5,0.63,-1.79,0.79,-0.92
2022-01-30 16:32:00.4320,0.426,-1.305,-0.81,-2.78,6.08,0.91,-2.12,0.36,-1.01
2022-01-30 16:32:00.4430,0.393,-1.256,-0.837,-2.78,6.08,0.91,-2.22,-0.09,-1.04
2022-01-30 16:32:00.4520,0.328,-1.15,-0.849,-1.75,5.03,1.04,-2.1,-0.48,-1.01
2022-01-30 16:32:00.4630,0.257,-1.021,-0.846,-1.75,5.03,1.04,-1.76,-0.74,-0.88
2022-01-30 16:32:00.4730,0.186,-0.887,-0.801,-0.33,2.77,0.4,-1.76,-0.74,-0.88
2022-01-30 16:32:00.4830,0.134,-0.771,-0.727,0.20925518363714218,1.71,-0.41,-0.83,-0.68,-0.39
2022-01-30 16:32:00.4930,0.129,-0.677,-0.683,0.27,0.82,-0.96,-0.51,-0.5,-0.19
2022-01-30 16:32:00.5030,0.145,-0.615,-0.659,0.27,0.82,-0.96,-0.37,-0.23,-0.07
2022-01-30 16:32:00.5130,0.152,-0.572,-0.604,0.09,0.21,-1.21,-0.34,0.11,-0.04
2022-01-30 16:32:00.5230,0.146,-0.509,-0.555,0.0,-0.17,-1.75,-0.37,0.45,-0.07
2022-01-30 16:32:00.5330,0.127,-0.443,-0.52,0.27,-1.36,-2.64,-0.38,0.71,-0.1
2022-01-30 16:32:00.5430,0.116,-0.401,-0.499,0.27,-1.36,-2.64,-0.35,0.87,-0.13
2022-01-30 16:32:00.5530,0.119,-0.373,-0.489,0.46,-1.78,-2.88,-0.35,0.87,-0.13
2022-01-30 16:32:00.5630,0.124,-0.354,-0.47,0.52,-2.03,-2.99,-0.11,0.94,-0.08
2022-01-30 16:32:00.5730,0.136,-0.351,-0.441,0.55,-2.21,-3.15,0.07,0.92,-0.02
2022-01-30 16:32:00.5830,0.154,-0.355,-0.439,0.52,-2.25,-3.43,0.25,0.83,0.04
2022-01-30 16:32:00.5930,0.177,-0.36,-0.458,0.26,-2.19,-3.27,0.45,0.69,0.11
2022-01-30 16:32:00.6040,0.2,-0.361,-0.474,0.26,-2.19,-3.27,0.66,0.53,0.16
2022-01-30 16:32:00.6130,0.229,-0.359,-0.494,-0.16,-2.29,-2.83,0.89,0.34,0.2
2022-01-30 16:32:00.6230,0.268,-0.361,-0.523,-0.16,-2.29,-2.83,1.1,0.16,0.24
2022-01-30 16:32:00.6330,0.319,-0.382,-0.551,-0.52,-2.35,-2.49,1.24,0.02,0.31
2022-01-30 16:32:00.6430,0.375,-0.435,-0.566,-1.58,-1.89,-1.89,1.24,0.02,0.31
2022-01-30 16:32:00.6540,0.439,-0.524,-0.549,-1.58,-1.89,-1.89,1.43,0.12,0.68
2022-01-30 16:32:00.6630,0.512,-0.614,-0.547,-2.22,-1.16,-1.95,1.41,0.29,0.91
2022-01-30 16:32:00.6740,0.593,-0.699,-0.574,-2.96,-0.39,-1.92,1.25,0.41,1.13
2022-01-30 16:32:00.6830,0.674,-0.78,-0.647,-4.65,1.03,-0.86,0.92,0.35,1.28
2022-01-30 16:32:00.6940,0.722,-0.846,-0.739,-4.65,1.03,-0.86,0.53,0.29,1.39
2022-01-30 16:32:00.7030,0.732,-0.906,-0.756,-5.23,1.61,0.15,0.16,0.32,1.43
2022-01-30 16:32:00.7140,0.708,-0.914,-0.76,-5.43,2.16,0.43,-0.17,0.39,1.36
2022-01-30 16:32:00.7240,0.653,-0.845,-0.793,-5.31,2.3,0.46,-0.48,0.39,1.18
2022-01-30 16:32:00.7330,0.575,-0.733,-0.823,-4.88,1.7,0.74,-0.8,0.38,0.97
2022-01-30 16:32:00.7440,0.48,-0.626,-0.83,-3.3,-0.37,1.06,-1.16,0.3,0.79
2022-01-30 16:32:00.7540,0.396,-0.527,-0.869,-3.3,-0.37,1.06,-1.53,0.14,0.66
2022-01-30 16:32:00.7640,0.331,-0.455,-0.91,-2.49,-1.29,1.33,-1.82,-0.01,0.62
2022-01-30 16:32:00.7740,0.274,-0.41,-0.936,-1.86,-1.93,1.65,-1.93,-0.05,0.7
2022-01-30 16:32:00.7840,0.213,-0.373,-0.949,-1.34,-2.26,1.79,-1.75,0.04,0.93
2022-01-30 16:32:00.7940,0.142,-0.33,-0.926,-0.8,-2.5,1.83,-1.27,0.32,1.28
2022-01-30 16:32:00.8040,0.066,-0.266,-0.859,-0.18,-2.8,1.55,-0.58,0.71,1.69
2022-01-30 16:32:00.8140,-0.005,-0.188,-0.791,0.52,-3.31,0.87,-0.58,0.71,1.69
2022-01-30 16:32:00.8240,-0.064,-0.137,-0.693,1.17,-4.06,0.15,0.15,1.13,2.11
2022-01-30 16:32:00.8330,-0.105,-0.127,-0.557,2.14,-4.89,-1.96,1.49,2.11,2.88
2022-01-30 16:32:00.8450,-0.118,-0.131,-0.465,2.28,-5.01,-2.8,1.49,2.11,2.88
2022-01-30 16:32:00.8540,-0.117,-0.151,-0.418,2.28,-5.01,-2.8,2.18,2.72,3.21
2022-01-30 16:32:00.8640,-0.089,-0.194,-0.409,2.27,-5.02,-3.17,2.21,2.78,3.11
2022-01-30 16:32:00.8740,-0.038,-0.264,-0.423,2.02,-4.83,-3.11,2.08,2.7,2.83
2022-01-30 16:32:00.8840,0.026,-0.365,-0.445,1.52,-4.36,-2.82,1.83,2.5,2.43
2022-01-30 16:32:00.8940,0.097,-0.506,-0.478,0.91,-3.59,-2.43,1.5,2.16,2.03
2022-01-30 16:32:00.9040,0.171,-0.666,-0.544,-0.53,-0.94,-1.25,1.12,1.74,1.68
2022-01-30 16:32:00.9150,0.235,-0.81,-0.615,-0.53,-0.94,-1.25,0.75,1.27,1.41
2022-01-30 16:32:00.9240,0.242,-0.897,-0.724,-1.2,0.42,-0.46,0.42,0.79,1.2
2022-01-30 16:32:00.9340,0.2,-0.915,-0.842,-1.38,1.31,0.61,0.42,0.79,1.2
2022-01-30 16:32:00.9440,0.147,-0.903,-0.897,-1.05,1.52,1.83,0.24,0.51,0.74
2022-01-30 16:32:00.9540,0.111,-0.925,-0.865,-0.56,1.38,2.5,0.38,0.93,0.57
2022-01-30 16:32:00.9640,0.102,-0.967,-0.831,-0.2,1.52,2.29,0.51,1.47,0.49
2022-01-30 16:32:00.9740,0.126,-0.994,-0.794,-0.06,1.9,1.96,0.53,2.03,0.51
2022-01-30 16:32:00.9840,0.163,-1.026,-0.706,-0.19,2.15,1.7,0.53,2.03,0.51
2022-01-30 16:32:00.9950,0.194,-1.025,-0.658,-0.66,2.47,0.42,-0.15,2.68,0.61
2022-01-30 16:32:01.0040,0.231,-0.977,-0.675,-0.66,2.47,0.42,-0.96,2.51,0.54
2022-01-30 16:32:01.0150,0.254,-0.965,-0.719,-0.92,2.01,0.53,-2.0,2.15,0.43
2022-01-30 16:32:01.0250,0.247,-0.989,-0.723,-1.06,1.89,0.92,-2.0,2.15,0.43
2022-01-30 16:32:01.0340,0.203,-0.973,-0.697,-0.93,2.24,0.89,-3.96,1.64,0.31
2022-01-30 16:32:01.0440,0.122,-0.882,-0.717,-0.46,2.37,0.43,-4.58,1.49,0.32
2022-01-30 16:32:01.0550,0.036,-0.756,-0.796,0.38,1.81,0.28,-4.84,1.28,0.39
2022-01-30 16:32:01.0650,-0.044,-0.646,-0.897,1.32,0.9,0.71,-4.68,1.04,0.61
2022-01-30 16:32:01.0750,-0.125,-0.555,-0.933,2.17,0.13,1.41,-4.1,0.96,0.92
2022-01-30 16:32:01.0850,-0.186,-0.477,-0.88,3.0,-0.45,1.63,-4.1,0.96,0.92
2022-01-30 16:32:01.0950,-0.204,-0.41,-0.919,3.65,-0.94,0.93,-2.48,0.87,1.42
2022-01-30 16:32:01.1050,-0.185,-0.394,-1.027,3.72,-1.48,1.95,-1.84,0.68,1.49
2022-01-30 16:32:01.1150,-0.167,-0.456,-1.01,3.72,-1.48,1.95,-1.34,0.65,1.52
2022-01-30 16:32:01.1250,-0.164,-0.504,-0.922,3.5,-0.82,1.87,-0.95,0.72,1.47
2022-01-30 16:32:01.1350,-0.163,-0.483,-0.848,3.41,-0.28,0.2,-0.65,0.79,1.34
2022-01-30 16:32:01.1450,-0.161,-0.438,-0.777,3.41,-0.28,0.2,-0.39,0.81,1.16
2022-01-30 16:32:01.1550,-0.158,-0.411,-0.698,3.38,-0.98,-1.28,-0.16,0.83,0.97
2022-01-30 16:32:01.1650,-0.145,-0.401,-0.62,3.38,-0.98,-1.28,0.01,0.82,0.75
2022-01-30 16:32:01.1750,-0.127,-0.393,-0.567,3.28,-1.09,-2.06,0.01,0.82,0.75
2022-01-30 16:32:01.1850,-0.113,-0.385,-0.531,3.14,-1.18,-2.59,0.07,0.78,0.27
2022-01-30 16:32:01.1950,-0.098,-0.378,-0.498,3.04,-1.28,-2.93,-0.01,0.81,0.05
2022-01-30 16:32:01.2050,-0.084,-0.386,-0.488,2.877256947755814,-1.3,-3.38,-0.1,0.81,-0.1
2022-01-30 16:32:01.2160,-0.073,-0.403,-0.52,2.87,-1.3,-3.38,-0.19,0.68,-0.2
2022-01-30 16:32:01.2250,-0.064,-0.427,-0.593,2.8,-0.88,-2.42,-0.24,0.44,-0.24
2022-01-30 16:32:01.2360,-0.06,-0.465,-0.665,2.8,-0.88,-2.42,-0.24,0.44,-0.24
2022-01-30 16:32:01.2450,-0.055,-0.491,-0.718,2.8,-0.17878621995449068,-1.1518090975284576,-0.03,0.02,-0.25
2022-01-30 16:32:01.2560,-0.053,-0.488,-0.724,2.78,-0.18,-1.16,0.24,0.12,-0.22
2022-01-30 16:32:01.2650,-0.069,-0.486,-0.725,2.76,-0.19,-1.04,0.52,0.38,-0.15
2022-01-30 16:32:01.2760,-0.093,-0.502,-0.722,2.92,-0.24,-1.03,0.73,0.69,-0.0
2022-01-30 16:32:01.2850,-0.123,-0.519,-0.76,3.53,0.0,-0.71,0.75,0.64,0.13
2022-01-30 16:32:01.2960,-0.138,-0.44,-0.93,3.53,0.0,-0.71,0.55,0.05,0.01
2022-01-30 16:32:01.3060,-0.101,-0.308,-1.064,3.77,-0.68,0.89,0.55,0.05,0.01
2022-01-30 16:32:01.3160,-0.045,-0.23,-1.099,3.45,-2.04,2.38,-0.12,-1.87,-0.98
2022-01-30 16:32:01.3260,0.026,-0.201,-1.128,2.06,-3.18,3.01,-0.63,-2.82,-1.58
2022-01-30 16:32:01.3370,0.066,-0.221,-1.095,2.06,-3.18,3.01,-1.24,-3.45,-1.94
2022-01-30 16:32:01.3460,0.048,-0.267,-1.03,1.38,-2.35,1.89,-1.83,-3.72,-1.97
2022-01-30 16:32:01.3560,-0.005,-0.282,-1.004,1.38,-2.35,1.89,-2.31,-3.74,-1.77
2022-01-30 16:32:01.3660,-0.057,-0.24,-1.012,1.66,-1.95,1.41,-2.63,-3.53,-1.54
2022-01-30 16:32:01.3760,-0.116,-0.16,-1.02,1.94,-2.06,1.31,-2.86,-3.03,-1.42
2022-01-30 16:32:01.3860,-0.226,-0.09,-1.038,2.26,-2.57,1.22,-3.01,-2.22,-1.42
2022-01-30 16:32:01.3950,-0.377,-0.057,-1.057,3.05,-3.02,1.23,-2.98,-1.15,-1.55
2022-01-30 16:32:01.4060,-0.478,-0.027,-1.036,4.4,-3.1,1.31,-2.79,-0.06,-1.78
2022-01-30 16:32:01.4160,-0.5,-0.01,-1.053,5.45,-3.09,1.01,-2.45,0.68,-2.04
2022-01-30 16:32:01.4260,-0.462,-0.071,-1.12,5.63,-2.31,1.57,-2.0,0.9,-2.15
2022-01-30 16:32:01.4360,-0.41,-0.205,-1.187,5.63,-2.31,1.57,-1.49,0.58,-2.07
2022-01-30 16:32:01.4460,-0.385,-0.322,-1.284,5.05,0.54,3.06,-0.99,-0.21,-1.9
2022-01-30 16:32:01.4560,-0.416,-0.348,-1.387,5.29,1.03,4.07,-0.51,-1.21,-1.75
2022-01-30 16:32:01.4660,-0.497,-0.303,-1.463,5.29,1.03,4.07,0.01,-2.16,-1.71
2022-01-30 16:32:01.4760,-0.585,-0.222,-1.513,5.95,0.71,4.81,0.65,-2.85,-1.8
2022-01-30 16:32:01.4860,-0.646,-0.11,-1.492,6.67,-0.03,5.33,0.65,-2.85,-1.8
2022-01-30 16:32:01.4960,-0.671,0.02,-1.431,7.12,-2.54,4.64,1.99,-2.92,-2.18
2022-01-30 16:32:01.5070,-0.647,0.099,-1.386,7.12,-2.54,4.64,1.99,-2.92,-2.18
2022-01-30 16:32:01.5160,-0.556,0.089,-1.368,6.75,-3.6,4.2,2.79,-1.9,-2.22
2022-01-30 16:32:01.5260,-0.44,0.04,-1.398,5.77,-3.83,4.05,2.89,-1.58,-2.17
2022-01-30 16:32:01.5370,-0.349,-0.001,-1.437,4.53,-3.63,4.37,2.89,-1.58,-2.17
2022-01-30 16:32:01.5470,-0.337,-0.019,-1.399,3.49,-3.47,4.89,2.82,-1.32,-2.01
2022-01-30 16:32:01.5570,-0.367,0.006,-1.357,3.46,-3.97,4.34,2.66,-1.32,-1.98
2022-01-30 16:32:01.5660,-0.377,0.011,-1.38,3.46,-3.97,4.34,2.45,-1.49,-2.02
2022-01-30 16:32:01.5760,-0.319,-0.052,-1.417,3.05,-4.01,5.1,2.2,-1.78,-2.16
2022-01-30 16:32:01.5870,-0.21,-0.173,-1.43,3.05,-4.01,5.1,1.95,-2.15,-2.37
2022-01-30 16:32:01.5970,-0.118,-0.273,-1.456,0.91,-2.18,5.67,1.69,-2.53,-2.57
2022-01-30 16:32:01.6070,-0.092,-0.281,-1.463,0.47,-2.12,5.9,1.42,-2.76,-2.71
2022-01-30 16:32:01.6170,-0.116,-0.222,-1.397,0.47,-2.12,5.9,1.14,-2.72,-2.77
2022-01-30 16:32:01.6270,-0.125,-0.188,-1.326,0.59,-2.8,5.41,1.14,-2.72,-2.77
2022-01-30 16:32:01.6370,-0.098,-0.217,-1.341,0.63,-3.31,4.73,0.36,-2.62,-2.82
2022-01-30 16:32:01.6470,-0.025,-0.288,-1.407,-0.38,-2.56,5.5,-0.16,-2.66,-2.91
2022-01-30 16:32:01.6570,0.082,-0.367,-1.411,-0.38,-2.56,5.5,-0.16,-2.66,-2.91
2022-01-30 16:32:01.6670,0.149,-0.406,-1.383,-1.49,-1.77,5.63,-0.65,-2.59,-3.05
2022-01-30 16:32:01.6770,0.151,-0.377,-1.335,-2.4,-1.42,4.88,-1.21,-2.26,-3.1
2022-01-30 16:32:01.6870,0.137,-0.301,-1.281,-2.4,-1.42,4.88,-1.21,-2.26,-3.1
2022-01-30 16:32:01.6970,0.131,-0.234,-1.216,-2.26,-2.68,3.65,-1.05,-2.38,-2.68
2022-01-30 16:32:01.7070,0.118,-0.198,-1.138,-2.26,-2.68,3.65,-0.76,-2.75,-2.31
2022-01-30 16:32:01.7170,0.115,-0.179,-1.043,-2.28,-3.17,1.95,-0.42,-3.24,-1.92
2022-01-30 16:32:01.7360,0.141,-0.156,-0.959,-2.69,-3.38,1.1,-0.42,-3.24,-1.92
2022-01-30 16:32:01.7410,0.204,-0.133,-0.919,-2.92,-3.38,1.14,-0.3,-4.06,-1.53
2022-01-30 16:32:01.7520,0.269,-0.123,-0.864,-3.76,-3.61,0.77,-0.69,-3.9,-1.57
2022-01-30 16:32:01.7620,0.284,-0.131,-0.791,-4.67,-3.69,0.31,-1.28,-3.29,-1.66
2022-01-30 16:32:01.7720,0.229,-0.129,-0.759,-5.09,-3.54,-0.41,-1.9,-2.47,-1.72
2022-01-30 16:32:01.7820,0.17,-0.106,-0.788,-4.72,-3.41,-0.84,-2.34,-1.75,-1.7
2022-01-30 16:32:01.7920,0.141,-0.087,-0.835,-4.17,-3.47,-0.68,-2.42,-1.31,-1.59
2022-01-30 16:32:01.8020,0.147,-0.1,-0.856,-3.89,-3.51,-0.29,-2.05,-1.1,-1.38
2022-01-30 16:32:01.8120,0.194,-0.155,-0.825,-3.93,-3.3,-0.07,-1.26,-1.09,-1.14
2022-01-30 16:32:01.8220,0.248,-0.197,-0.81,-4.41,-2.73,-0.37,-0.35,-1.29,-0.95
2022-01-30 16:32:01.8320,0.302,-0.207,-0.826,-5.01,-2.28,-0.54,0.39,-1.55,-0.85
2022-01-30 16:32:01.8420,0.341,-0.226,-0.78,-5.64,-2.22,-0.32,0.39,-1.55,-0.85
2022-01-30 16:32:01.8520,0.355,-0.269,-0.69,-6.17,-2.15,-0.59,0.95,-1.57,-0.67
2022-01-30 16:32:01.8620,0.379,-0.305,-0.635,-6.41,-1.83,-1.38,0.87,-1.36,-0.56
2022-01-30 16:32:01.8720,0.386,-0.319,-0.598,-6.73,-1.54,-1.9,0.87,-1.36,-0.4286285936832428
2022-01-30 16:32:01.8820,0.378,-0.313,-0.559,-6.89,-1.45,-2.2,0.48,-0.81,-0.29
2022-01-30 16:32:01.8920,0.362,-0.284,-0.585,-6.88,-1.53,-2.55,0.29,-0.73,-0.22
2022-01-30 16:32:01.9020,0.331,-0.228,-0.702,-6.78,-1.81,-2.38,0.29,-0.73,-0.22
2022-01-30 16:32:01.9120,0.272,-0.141,-0.818,-6.57,-2.34,-1.28,0.08,-1.26,-0.43
2022-01-30 16:32:01.9220,0.193,-0.008,-0.913,-6.1,-3.17,-0.05,0.08,-1.26,-0.43
2022-01-30 16:32:01.9320,0.116,0.133,-0.966,-5.45,-4.45,0.95,0.14,-1.89,-1.06
2022-01-30 16:32:01.9420,0.087,0.205,-0.925,-4.76,-5.91,1.65,0.12,-1.87,-1.4
2022-01-30 16:32:01.9520,0.109,0.145,-0.882,-4.48,-6.81,1.39,0.01,-1.57,-1.56
2022-01-30 16:32:01.9620,0.156,-0.037,-0.845,-4.69,-6.45,1.0,-0.16,-1.03,-1.52
2022-01-30 16:32:01.9720,0.22,-0.214,-0.792,-5.12,-4.8,0.66,-0.32,-0.37,-1.36
2022-01-30 16:32:01.9820,0.259,-0.267,-0.818,-5.7,-3.0,0.17,-0.4,0.19,-1.3
2022-01-30 16:32:01.9920,0.264,-0.186,-0.783,-6.06,-2.31,0.24,-0.44,0.94,-1.4
2022-01-30 16:32:02.0030,0.261,-0.089,-0.654,-5.96,-3.0,0.07,-0.53,1.73,-1.52
2022-01-30 16:32:02.0130,0.225,-0.11,-0.588,-5.75,-4.02,-1.32,-0.72,2.52,-1.52
2022-01-30 16:32:02.0230,0.203,-0.266,-0.514,-5.14,-3.98,-2.12,-1.01,3.25,-1.35
2022-01-30 16:32:02.0330,0.188,-0.463,-0.482,-4.55,-2.53,-2.99,-1.32,3.78,-1.08
2022-01-30 16:32:02.0430,0.153,-0.641,-0.499,-4.06,-0.5,-3.55,-1.54,4.17,-0.8
2022-01-30 16:32:02.0530,0.122,-0.772,-0.477,-3.34,1.39,-3.54,-1.68,4.39,-0.56
2022-01-30 16:32:02.0630,0.083,-0.838,-0.522,-2.63,2.89,-3.88,-1.75,4.23,-0.41
2022-01-30 16:32:02.0730,0.031,-0.857,-0.633,-1.89,3.76,-3.71,-1.79,3.76,-0.35
2022-01-30 16:32:02.0830,-0.025,-0.865,-0.732,-1.05,4.15,-2.75,-1.76,3.06,-0.34
2022-01-30 16:32:02.0920,-0.086,-0.893,-0.839,-0.23,4.36,-1.85,-1.63,2.18,-0.35
2022-01-30 16:32:02.1030,-0.166,-0.878,-0.953,0.55,4.78,-0.9,-1.41,1.19,-0.42
2022-01-30 16:32:02.1130,-0.247,-0.794,-1.052,1.43,4.85,0.18,-1.16,0.18,-0.54
2022-01-30 16:32:02.1230,-0.304,-0.703,-1.122,2.26,4.18,1.12,-0.96,-0.75,-0.6
2022-01-30 16:32:02.1330,-0.332,-0.639,-1.169,2.8,3.35,1.82,-0.96,-0.75,-0.6
2022-01-30 16:32:02.1430,-0.343,-0.56,-1.213,2.99,2.78,2.27,-0.77,-2.06,-0.57
2022-01-30 16:32:02.1530,-0.358,-0.452,-1.237,2.94,2.12,2.68,-0.72,-2.25,-0.62
2022-01-30 16:32:02.1630,-0.381,-0.313,-1.244,2.89,1.16,2.94,-0.7,-2.04,-0.77
2022-01-30 16:32:02.1730,-0.409,-0.156,-1.223,2.95,-0.11,3.01,-0.77,-1.39,-0.95
2022-01-30 16:32:02.1830,-0.446,-0.038,-1.176,3.13,-1.59,2.83,-1.01,-0.48,-1.05
2022-01-30 16:32:02.1930,-0.473,0.012,-1.142,3.49,-2.72,2.35,-1.38,0.4,-1.04
2022-01-30 16:32:02.2030,-0.464,0.009,-1.142,3.85,-3.17,1.94,-1.75,0.99,-0.96
2022-01-30 16:32:02.2130,-0.425,-0.038,-1.155,3.94,-3.04,1.84,-1.98,1.19,-0.84
2022-01-30 16:32:02.2230,-0.392,-0.117,-1.165,3.71,-2.45,1.91,-1.97,1.04,-0.7
2022-01-30 16:32:02.2330,-0.393,-0.178,-1.178,3.48,-1.51,1.94,-1.77,0.64,-0.59
2022-01-30 16:32:02.2430,-0.417,-0.158,-1.181,3.51,-0.68,2.04,-1.49,0.03,-0.56
2022-01-30 16:32:02.2540,-0.424,-0.117,-1.182,3.74,-0.64,2.02,-1.26,-0.63,-0.57
2022-01-30 16:32:02.2630,-0.412,-0.123,-1.134,3.79,-0.96,2.05,-1.15,-1.19,-0.59
2022-01-30 16:32:02.2740,-0.386,-0.102,-1.06,3.58,-0.82,1.61,-1.18,-1.61,-0.68
2022-01-30 16:32:02.2830,-0.35,-0.056,-0.995,3.2,-0.85,0.89,-1.33,-1.91,-0.81
2022-01-30 16:32:02.2940,-0.301,-0.043,-0.948,2.69,-1.19,0.21,-1.58,-2.07,-0.93
2022-01-30 16:32:02.3040,-0.253,-0.088,-0.915,2.03,-1.22,-0.27,-1.86,-2.17,-0.96
2022-01-30 16:32:02.3140,-0.23,-0.146,-0.933,1.35,-0.68,-0.65,-2.02,-2.19,-0.94
2022-01-30 16:32:02.3170,-0.229,-0.166,-0.934,0.86,0.34,-0.48,-2.02,-2.16,-0.91
2022-01-30 16:32:02.3340,-0.239,-0.185,-0.954,0.86,0.34,-0.48,-1.89,-2.11,-0.88
2022-01-30 16:32:02.3450,-0.251,-0.209,-0.987,0.76,0.7,-0.31,-1.89,-2.11,-0.88
2022-01-30 16:32:02.3540,-0.259,-0.238,-1.018,0.68,1.1,0.03,-1.42,-2.06,-0.87
2022-01-30 16:32:02.3650,-0.25,-0.256,-1.022,0.57,1.52,0.37,-1.16,-1.96,-0.9
2022-01-30 16:32:02.3740,-0.227,-0.266,-1.01,0.32,1.84,0.49,-0.97,-1.79,-0.92
2022-01-30 16:32:02.3850,-0.194,-0.282,-1.009,-0.55,2.25,0.42,-0.84,-1.56,-0.93
2022-01-30 16:32:02.3950,-0.16,-0.282,-1.003,-1.02,2.33,0.41,-0.73,-1.3,-0.97
2022-01-30 16:32:02.4050,-0.123,-0.256,-1.003,-1.02,2.33,0.41,-0.62,-1.05,-1.01
2022-01-30 16:32:02.4140,-0.104,-0.205,-1.024,-1.51,2.16,0.42,-0.54,-0.89,-1.03
2022-01-30 16:32:02.4250,-0.109,-0.14,-1.062,-1.81,1.71,0.62,-0.47,-0.84,-1.02
2022-01-30 16:32:02.4340,-0.134,-0.068,-1.114,-1.88,1.11,1.0,-0.47,-0.84,-1.02
2022-01-30 16:32:02.4450,-0.156,-0.029,-1.162,-1.72,0.41,1.52,-0.27,-0.98,-0.81
2022-01-30 16:32:02.4550,-0.167,-0.016,-1.193,-1.57,-0.01,2.04,-0.09,-1.01,-0.64
2022-01-30 16:32:02.4650,-0.177,-0.005,-1.231,-1.55,-0.16,2.38,0.11,-0.97,-0.47
2022-01-30 16:32:02.4750,-0.195,0.009,-1.262,-1.54,-0.27,2.77,0.29,-0.73,-0.35
2022-01-30 16:32:02.4850,-0.212,0.004,-1.26,-1.34,-0.45,3.16,0.39,-0.34,-0.28
2022-01-30 16:32:02.4950,-0.222,-0.016,-1.26,-1.34,-0.45,3.16,0.39,0.12,-0.23
2022-01-30 16:32:02.5050,-0.22,-0.076,-1.251,-1.26,-0.32,3.18,0.31,0.54,-0.15
2022-01-30 16:32:02.5150,-0.218,-0.174,-1.248,-1.26,0.16,3.09,0.23,0.84,-0.06
2022-01-30 16:32:02.5250,-0.211,-0.274,-1.261,-1.22,1.06,3.03,0.22083809971809387,0.95,0.01
2022-01-30 16:32:02.5350,-0.201,-0.365,-1.291,-1.2,2.03,3.1,0.22,0.95,0.01
2022-01-30 16:32:02.5450,-0.195,-0.417,-1.336,-1.22,2.93,3.36,0.45,0.66,-0.11
2022-01-30 16:32:02.5550,-0.185,-0.429,-1.39,-1.23,3.59,4.26,0.63,0.35,-0.33
2022-01-30 16:32:02.5650,-0.18,-0.382,-1.436,-1.26,3.14,4.73,0.78,0.08,-0.62
2022-01-30 16:32:02.5750,-0.19,-0.282,-1.456,-1.26,3.14,4.73,0.88,0.04,-0.93
2022-01-30 16:32:02.5850,-0.21,-0.152,-1.442,-1.16,2.12,4.97,0.89,0.3,-1.16
2022-01-30 16:32:02.5950,-0.248,-0.026,-1.43,-0.98,0.75,4.87,0.82,0.79,-1.24
2022-01-30 16:32:02.6050,-0.287,0.072,-1.428,-0.57,-0.61,4.73,0.71,1.42,-1.17
2022-01-30 16:32:02.6160,-0.302,0.127,-1.418,-0.08,-1.74,4.7,0.63,2.04,-1.0
2022-01-30 16:32:02.6260,-0.293,0.16,-1.417,0.26,-2.42,4.56,0.6,2.48,-0.81
2022-01-30 16:32:02.6350,-0.271,0.169,-1.42,0.4,-2.84,4.49,0.63,2.64,-0.61
2022-01-30 16:32:02.6460,-0.254,0.138,-1.423,0.44,-3.05,4.47,0.72,2.48,-0.43
2022-01-30 16:32:02.6550,-0.252,0.105,-1.418,0.72,-2.58,4.39,0.84,2.1,-0.27
2022-01-30 16:32:02.6660,-0.26,0.098,-1.387,0.72,-2.58,4.39,0.96,1.63,-0.15
2022-01-30 16:32:02.6750,-0.263,0.099,-1.338,0.99,-2.57,4.1,1.05,1.21,-0.08
2022-01-30 16:32:02.6860,-0.257,0.111,-1.264,1.25,-2.87,2.94,1.07,0.94,-0.06
2022-01-30 16:32:02.6960,-0.239,0.129,-1.181,1.18,-3.15,2.13,1.02,0.82,-0.07
2022-01-30 16:32:02.7060,-0.196,0.113,-1.105,1.18,-3.15,2.13,0.89,0.83,-0.05
2022-01-30 16:32:02.7160,-0.15,0.057,-1.036,0.87,-3.15,1.38,0.74,0.94,0.02
2022-01-30 16:32:02.7260,-0.113,-0.004,-0.981,0.21,-2.17,0.15,0.64,1.08,0.09
2022-01-30 16:32:02.7360,-0.076,-0.052,-0.934,-0.05,-1.75,-0.31,0.63,1.2,0.12
2022-01-30 16:32:02.7460,-0.041,-0.088,-0.9,-0.05,-1.75,-0.31,0.68,1.26,0.11
2022-01-30 16:32:02.7550,-0.008,-0.101,-0.87,-0.49,-1.34,-0.95,0.75,1.24,0.03
2022-01-30 16:32:02.7660,0.03,-0.106,-0.835,-0.74,-1.38,-1.27,0.82,1.16,-0.08
2022-01-30 16:32:02.7760,0.075,-0.117,-0.803,-1.07,-1.34,-1.58,0.86,1.04,-0.2
2022-01-30 16:32:02.7860,0.114,-0.117,-0.764,-1.07,-1.3920343512296678,-1.9172230750322343,0.88,0.94,-0.29
2022-01-30 16:32:02.7960,0.144,-0.106,-0.72,-1.56,-1.58,-2.34,0.87,0.91,-0.35
2022-01-30 16:32:02.8060,0.174,-0.087,-0.684,-1.56,-1.58,-2.34,0.87,0.97,-0.37
2022-01-30 16:32:02.8160,0.197,-0.081,-0.644,-1.76,-1.85,-2.69,0.88,1.14,-0.34
2022-01-30 16:32:02.8260,0.212,-0.091,-0.609,-1.89,-2.01,-3.04,0.93,1.4,-0.26
2022-01-30 16:32:02.8360,0.22,-0.092,-0.585,-1.87,-2.06,-3.59,1.0,1.66,-0.19
2022-01-30 16:32:02.8460,0.237,-0.081,-0.57,-1.87,-2.06,-3.59,1.1,1.82,-0.15
2022-01-30 16:32:02.8560,0.267,-0.06,-0.566,-1.85,-2.25,-3.71,1.17,1.84,-0.19
2022-01-30 16:32:02.8660,0.298,-0.036,-0.568,-2.09,-2.89,-3.65,1.17,1.84,-0.19
2022-01-30 16:32:02.8760,0.322,-0.031,-0.554,-2.169242162704468,-3.07,-3.71,1.17,1.59,-0.24
2022-01-30 16:32:02.8870,0.349,-0.031,-0.54,-2.17,-3.07,-3.71,1.14,1.39,-0.16
2022-01-30 16:32:02.8970,0.38,-0.013,-0.538,-2.27,-3.16,-3.8,1.11,1.11,-0.02
2022-01-30 16:32:02.9060,0.393,0.029,-0.55,-2.46,-3.41,-3.79,1.09,0.82,0.16
2022-01-30 16:32:02.9170,0.397,0.072,-0.548,-2.49,-4.43,-3.57,1.09,0.53,0.4
2022-01-30 16:32:02.9260,0.394,0.112,-0.537,-2.49,-4.43,-3.57,1.1,0.29,0.68
2022-01-30 16:32:02.9370,0.392,0.145,-0.527,-2.44,-4.92,-3.62,1.15,0.1,0.99
2022-01-30 16:32:02.9460,0.393,0.13,-0.512,-2.42,-5.38,-3.68,1.24,-0.0,1.36
2022-01-30 16:32:02.9570,0.39,0.079,-0.49,-2.47,-5.43,-3.76,1.24,-0.0,1.36
2022-01-30 16:32:02.9660,0.381,0.063,-0.473,-2.5,-5.05,-3.92,1.51,-0.03,2.11
2022-01-30 16:32:02.9760,0.383,0.067,-0.465,-2.59,-5.18,-4.08,1.51,-0.03,2.11
2022-01-30 16:32:02.9870,0.39,0.065,-0.49,-2.59,-5.18,-4.08,1.64,-0.09,2.44
2022-01-30 16:32:02.9960,0.377,0.051,-0.508,-2.8,-5.34,-3.79,1.75,-0.39,2.96
2022-01-30 16:32:03.0180,0.351,0.023,-0.478,-2.79,-5.3,-3.66,1.72,-0.4,3.19
2022-01-30 16:32:03.0250,0.317,0.009,-0.433,-2.66,-5.29,-4.01,1.6,-0.27,3.37
2022-01-30 16:32:03.0260,0.279,0.019,-0.4,-2.49,-5.52,-4.27,1.34,0.02,3.52
2022-01-30 16:32:03.0360,0.241,0.009,-0.378,-2.31,-5.58,-4.45,0.93,0.4,3.67
2022-01-30 16:32:03.0470,0.186,-0.039,-0.389,-2.31,-5.58,-4.45,0.43,0.79,3.84
2022-01-30 16:32:03.0570,0.145,-0.1,-0.418,-1.95,-5.21,-4.33,-0.08,1.09,3.99
2022-01-30 16:32:03.0670,0.101,-0.145,-0.478,-1.66,-4.63,-4.04,-0.54,1.28,4.13
2022-01-30 16:32:03.0770,0.041,-0.187,-0.534,-1.4,-4.15,-3.5,-0.9,1.4,4.24
2022-01-30 16:32:03.0870,-0.02,-0.205,-0.581,-0.94,-3.67,-2.97,-1.15,1.43,4.28
2022-01-30 16:32:03.0970,-0.079,-0.164,-0.636,-0.46,-3.34,-2.57,-1.37,1.35,4.16
2022-01-30 16:32:03.1070,-0.14,-0.061,-0.701,0.01,-3.54,-2.12,-1.65,1.23,3.88
2022-01-30 16:32:03.1170,-0.207,0.023,-0.758,1.07,-5.06,-1.09,-1.65,1.23,3.88
2022-01-30 16:32:03.1270,-0.268,0.054,-0.814,1.07,-5.06,-1.09,-2.59,1.04,3.3
2022-01-30 16:32:03.1360,-0.343,0.078,-0.897,2.25,-5.15,-0.02,-3.23,0.98,3.08
2022-01-30 16:32:03.1480,-0.427,0.105,-1.009,2.25,-5.15,-0.02,-3.87,0.93,2.83
2022-01-30 16:32:03.1570,-0.491,0.149,-1.136,3.67,-5.11,1.97,-4.45,0.95,2.46
2022-01-30 16:32:03.1670,-0.517,0.193,-1.246,3.98,-5.12,2.91,-4.9,1.0,1.98
2022-01-30 16:32:03.1770,-0.512,0.212,-1.369,3.98,-5.12,2.91,-5.14,0.98,1.51
2022-01-30 16:32:03.1880,-0.499,0.215,-1.469,3.92,-4.4,4.83,-5.19,0.89,1.2
2022-01-30 16:32:03.1980,-0.509,0.219,-1.535,3.92,-4.4,4.83,-5.1,0.62,1.17
2022-01-30 16:32:03.2070,-0.564,0.198,-1.608,4.55,-3.28,6.01,-4.87,0.14,1.45
2022-01-30 16:32:03.2180,-0.637,0.119,-1.667,5.24,-2.09,6.54,-4.43,-0.49,2.0
2022-01-30 16:32:03.2280,-0.715,0.031,-1.664,5.24,-2.09,6.54,-3.71,-0.9,2.57
2022-01-30 16:32:03.2370,-0.762,0.041,-1.542,6.38,-0.3,5.52,-2.91,-0.98,2.83
2022-01-30 16:32:03.2470,-0.745,0.108,-1.432,6.38,-0.3,5.52,-2.32,-0.78,2.75
2022-01-30 16:32:03.2580,-0.677,0.103,-1.332,6.21,-0.66,4.44,-2.12,-0.53,2.47
2022-01-30 16:32:03.2660,-0.597,0.017,-1.298,5.53,-0.47,3.45,-2.12,-0.53,2.47
2022-01-30 16:32:03.2780,-0.562,-0.11,-1.285,4.69,0.54,3.05,-2.52,-0.29,1.97
2022-01-30 16:32:03.2880,-0.586,-0.27,-1.275,4.43,3.81,2.88,-2.55,-0.26,1.97
2022-01-30 16:32:03.2980,-0.637,-0.386,-1.26,4.43,3.81,2.88,-2.14,-0.17,2.03
2022-01-30 16:32:03.3080,-0.674,-0.394,-1.215,4.93,5.34,2.81,-1.42,-0.01,2.01
2022-01-30 16:32:03.3170,-0.688,-0.346,-1.186,5.555845388174057,5.46,2.12,-0.75,0.14,1.9
2022-01-30 16:32:03.3280,-0.666,-0.303,-1.17,5.55,5.46,2.12,-0.37,0.26,1.67
2022-01-30 16:32:03.3370,-0.586,-0.294,-1.142,5.45,5.11,1.98,-0.3,0.4,1.36
2022-01-30 16:32:03.3480,-0.465,-0.312,-1.119,3.69,5.23,1.48,-0.41,0.57,1.0
2022-01-30 16:32:03.3580,-0.369,-0.331,-1.133,3.69,5.23,1.48,-0.5414062738418579,0.67,0.69
2022-01-30 16:32:03.3680,-0.326,-0.331,-1.213,2.78,5.47,1.55,-0.56,0.69,0.45
2022-01-30 16:32:03.3780,-0.342,-0.291,-1.292,2.36,5.58,2.28,-0.37,0.69,0.32
2022-01-30 16:32:03.3880,-0.381,-0.231,-1.355,2.99,4.73,3.72,0.02,0.63,0.3
2022-01-30 16:32:03.3980,-0.394,-0.187,-1.415,3.23,4.27,4.32,0.53,0.54,0.4
2022-01-30 16:32:03.4080,-0.362,-0.178,-1.461,3.23,4.27,4.32,1.05,0.35,0.58
2022-01-30 16:32:03.4180,-0.296,-0.173,-1.536,3.03,4.09,4.76,1.45,-0.01,0.71
2022-01-30 16:32:03.4280,-0.231,-0.142,-1.636,1.81,3.55,6.36,1.75,-0.47,0.72
2022-01-30 16:32:03.4380,-0.189,-0.07,-1.719,1.81,3.55,6.36,1.97,-0.87,0.59
2022-01-30 16:32:03.4490,-0.191,0.061,-1.767,1.32,2.75,7.17,2.14,-0.97,0.38
2022-01-30 16:32:03.4580,-0.226,0.199,-1.771,1.45,-0.25,7.73,2.25,-0.71,0.17
2022-01-30 16:32:03.4690,-0.254,0.306,-1.749,1.45,-0.25,7.73,2.25,-0.71,0.17
2022-01-30 16:32:03.4780,-0.273,0.372,-1.721,1.68,-1.56,7.49,2.2,0.54,0.02
2022-01-30 16:32:03.4890,-0.265,0.388,-1.728,1.91,-2.9,7.18,2.07,1.13,0.09
2022-01-30 16:32:03.4990,-0.22,0.361,-1.749,1.91,-2.9,7.18,1.98,1.48,0.17
2022-01-30 16:32:03.5080,-0.149,0.304,-1.77,1.08,-2.54,7.55,2.0,1.51,0.2
2022-01-30 16:32:03.5190,-0.094,0.259,-1.777,1.08,-2.54,7.55,2.08,1.29,0.19
2022-01-30 16:32:03.5280,-0.041,0.225,-1.741,0.66,-2.26,7.65,2.21,0.94,0.18
2022-01-30 16:32:03.5380,0.0,0.192,-1.679,0.26,-2.14,7.33,2.29,0.53,0.24
2022-01-30 16:32:03.5480,0.02,0.168,-1.606,-0.24,-2.0,6.05,2.29,0.18,0.35
2022-01-30 16:32:03.5590,0.025,0.151,-1.511,-0.2858612552471459,-2.05,5.14,2.26,-0.09,0.48
2022-01-30 16:32:03.5690,0.025,0.143,-1.423,-0.31,-2.17,4.27,2.22,-0.31,0.56
2022-01-30 16:32:03.5790,0.027,0.142,-1.349,-0.31,-2.17,4.27,2.17,-0.49,0.57
2022-01-30 16:32:03.5890,0.03,0.13,-1.27,-0.37,-2.38,3.56,2.09,-0.63,0.51
2022-01-30 16:32:03.5990,0.036,0.113,-1.208,-0.45,-2.49,2.81,1.98,-0.75,0.41
2022-01-30 16:32:03.6090,0.049,0.096,-1.144,-0.77,-2.55,1.64,1.83,-0.78,0.31
2022-01-30 16:32:03.6190,0.069,0.072,-1.06,-1.0327973552048206,-2.4877797603607177,0.85,1.64,-0.74,0.22
2022-01-30 16:32:03.6290,0.086,0.049,-0.994,-1.04,-2.49,0.85,1.43,-0.66,0.13
2022-01-30 16:32:03.6390,0.093,0.032,-0.927,-1.29,-2.4,0.21,1.23,-0.55,0.05
2022-01-30 16:32:03.6490,0.095,0.009,-0.85,-1.43,-2.37,-0.4,1.08,-0.4,-0.0
2022-01-30 16:32:03.6580,0.1,-0.013,-0.78,-1.51,-2.27,-1.13,0.96,-0.25,-0.04
2022-01-30 16:32:03.6690,0.106,-0.031,-0.719,-1.58,-2.15,-1.8,0.89,-0.13,-0.04
2022-01-30 16:32:03.6790,0.11,-0.063,-0.668,-1.67,-2.06,-2.39,0.84,-0.06,-0.01
2022-01-30 16:32:03.6890,0.106,-0.097,-0.625,-1.7,-1.59,-3.29,0.83,-0.04,0.05
2022-01-30 16:32:03.6990,0.09,-0.115,-0.591,-1.56,-1.47,-3.61,0.87,-0.02,0.08
2022-01-30 16:32:03.7100,0.074,-0.131,-0.548,-1.56,-1.47,-3.61,0.93,0.01,0.05
2022-01-30 16:32:03.7190,0.06,-0.146,-0.513,-1.41,-1.4,-4.0,1.01,0.07,-0.06
2022-01-30 16:32:03.7290,0.05,-0.158,-0.491,-1.15,-1.31,-4.53,1.1,0.14,-0.23
2022-01-30 16:32:03.7390,0.047,-0.173,-0.484,-1.1,-1.28,-4.6,1.2,0.21,-0.42
2022-01-30 16:32:03.7500,0.053,-0.195,-0.482,-1.1,-1.28,-4.6,1.3,0.34,-0.59
2022-01-30 16:32:03.7590,0.064,-0.202,-0.477,-1.1,-1.17,-4.56,1.35,0.48,-0.72
2022-01-30 16:32:03.7700,0.061,-0.212,-0.505,-1.16,-1.21,-4.6,1.36,0.6,-0.79
2022-01-30 16:32:03.7790,0.052,-0.224,-0.544,-1.09,-1.25,-4.32,1.36,0.6,-0.79
2022-01-30 16:32:03.7900,0.041,-0.217,-0.604,-0.92,-1.25,-3.9,1.47,0.56,-0.95
2022-01-30 16:32:03.7990,0.031,-0.21,-0.692,-0.5319665238261223,-1.6412078914046289,-2.43,1.47,0.56,-0.95
2022-01-30 16:32:03.8100,0.035,-0.211,-0.798,-0.54,-1.65,-2.43,1.88,-0.15,-1.38
2022-01-30 16:32:03.8190,0.06,-0.2,-0.893,-0.49,-1.78,-1.32,2.04,-0.77,-1.65
2022-01-30 16:32:03.8300,0.128,-0.205,-1.041,-1.28,-2.24,1.13,2.17,-1.55,-1.84
2022-01-30 16:32:03.8400,0.204,-0.26,-1.145,-2.13,-1.93,2.42,2.39,-2.12,-1.88
2022-01-30 16:32:03.8490,0.214,-0.284,-1.127,-2.43,-1.83,2.43,2.72,-2.36,-1.83
2022-01-30 16:32:03.8600,0.163,-0.259,-1.134,-2.11,-2.28,2.57,3.1,-2.29,-1.8
2022-01-30 16:32:03.8700,0.07,-0.224,-1.131,-1.3,-2.89,2.79,3.45,-1.83,-1.84
2022-01-30 16:32:03.8800,0.024,-0.179,-1.047,-1.3,-2.89,2.79,3.71,-0.96,-1.95
2022-01-30 16:32:03.8890,0.046,-0.162,-0.895,-0.8,-3.62,2.26,3.75,0.16,-2.07
2022-01-30 16:32:03.9000,0.117,-0.208,-0.786,-0.91,-4.17,1.02,3.75,0.16,-2.07
2022-01-30 16:32:03.9100,0.214,-0.284,-0.722,-2.12,-3.61,-0.37,2.97,2.23,-2.09
2022-01-30 16:32:03.9200,0.274,-0.347,-0.658,-2.12,-3.61,-0.37,2.36,3.06,-1.92
2022-01-30 16:32:03.9300,0.285,-0.411,-0.558,-2.47,-3.2,-0.78,1.8,3.77,-1.6
2022-01-30 16:32:03.9400,0.272,-0.461,-0.452,-1.78,-2.31,-2.48,1.34,4.27,-1.17
2022-01-30 16:32:03.9500,0.263,-0.485,-0.402,-1.3,-2.15,-2.91,0.95,4.44,-0.68
2022-01-30 16:32:03.9610,0.264,-0.526,-0.371,-0.96,-1.83,-3.09,0.58,4.31,-0.16
2022-01-30 16:32:03.9700,0.274,-0.594,-0.356,-0.75,-1.23,-3.16,0.2,3.91,0.39
2022-01-30 16:32:03.9800,0.275,-0.697,-0.367,-0.75,-1.23,-3.16,-0.12,3.38,0.95
2022-01-30 16:32:03.9900,0.259,-0.819,-0.36,-0.57,-0.29,-2.98,-0.34,2.81,1.48
2022-01-30 16:32:04.0000,0.226,-0.925,-0.367,0.09,1.96,-2.89,-0.46,2.25,1.92
2022-01-30 16:32:04.0100,0.193,-1.008,-0.388,0.42,2.79,-2.67,-0.54,1.71,2.25
2022-01-30 16:32:04.0210,0.142,-1.068,-0.428,0.42,2.79,-2.67,-0.66,1.2,2.47
2022-01-30 16:32:04.0300,0.07,-1.121,-0.467,0.84,3.38,-2.31,-0.78,0.88,2.56
2022-01-30 16:32:04.0400,-0.002,-1.145,-0.47,2.01,4.2,-1.91,-0.89,0.77,2.45
2022-01-30 16:32:04.0510,-0.064,-1.105,-0.492,2.01,4.2,-1.91,-1.01,0.8,2.14
2022-01-30 16:32:04.0600,-0.104,-1.037,-0.529,2.8578091084957125,3.25938418507576,-1.46,-1.14,0.93,1.71
2022-01-30 16:32:04.0710,-0.123,-0.975,-0.525,3.01,2.67,-1.5,-1.33,1.22,1.26
2022-01-30 16:32:04.0800,-0.115,-0.914,-0.494,3.01,2.67,-1.5,-1.63,1.57,0.86
2022-01-30 16:32:04.0910,-0.067,-0.848,-0.496,2.97,2.16,-1.88,-2.0,1.85,0.55
2022-01-30 16:32:04.1000,-0.004,-0.803,-0.518,2.6,1.6,-2.0,-2.37,2.01,0.4
2022-01-30 16:32:04.1110,0.037,-0.786,-0.556,2.08,1.26,-1.89,-2.63,2.0,0.46
2022-01-30 16:32:04.1200,0.044,-0.784,-0.598,1.74,1.39,-1.36,-2.69,1.89,0.67
2022-01-30 16:32:04.1310,0.023,-0.751,-0.619,1.74,1.39,-1.36,-2.69,1.6230107545852661,0.95
2022-01-30 16:32:04.1400,-0.029,-0.701,-0.665,2.0,1.29,-1.28,-2.56,1.62,0.95
2022-01-30 16:32:04.1510,-0.091,-0.66,-0.712,3.1716879370808604,0.69,-0.61,-1.86,0.73,1.43
2022-01-30 16:32:04.1610,-0.13,-0.618,-0.754,3.17,0.69,-0.61,-1.43,0.21,1.5
2022-01-30 16:32:04.1700,-0.153,-0.581,-0.781,3.55,0.39,-0.28,-1.05,-0.27,1.49
2022-01-30 16:32:04.1810,-0.158,-0.578,-0.78,3.68,0.05,-0.1,-0.75,-0.64,1.46
2022-01-30 16:32:04.1910,-0.145,-0.596,-0.76,3.68,0.05,-0.1,-0.58,-0.86,1.41
2022-01-30 16:32:04.2010,-0.14,-0.589,-0.738,3.43,0.25,-0.34,-0.5,-0.91,1.35
2022-01-30 16:32:04.2110,-0.142,-0.572,-0.703,3.22,0.24,-0.61,-0.49,-0.78,1.27
2022-01-30 16:32:04.2210,-0.15,-0.552,-0.679,3.09,0.09,-0.97,-0.49,-0.51,1.19
2022-01-30 16:32:04.2300,-0.157,-0.523,-0.674,3.03,-0.08,-1.28,-0.47,-0.16,1.09
2022-01-30 16:32:04.2410,-0.15,-0.5,-0.672,3.0,-0.34,-1.38,-0.42,0.19,0.98
2022-01-30 16:32:04.2510,-0.116,-0.491,-0.675,2.89,-0.56,-1.43,-0.42,0.19,0.98
2022-01-30 16:32:04.2610,-0.064,-0.504,-0.665,2.56,-0.64,-1.42,-0.17,0.68,0.78
2022-01-30 16:32:04.2710,-0.01,-0.538,-0.65,2.05,-0.53,-1.51,-0.02,0.77,0.78
2022-01-30 16:32:04.2810,0.033,-0.575,-0.64,1.53,-0.21,-1.66,0.11,0.75,0.83
2022-01-30 16:32:04.2910,0.079,-0.618,-0.624,1.11,0.15,-1.75,0.2,0.69,0.92
2022-01-30 16:32:04.3020,0.123,-0.677,-0.611,0.68,0.53,-1.88,0.2,0.69,0.92
2022-01-30 16:32:04.3110,0.175,-0.739,-0.638,-0.25,1.63,-1.78,0.29,0.17,1.11
2022-01-30 16:32:04.3220,0.244,-0.787,-0.698,-0.98,2.1,-1.21,0.34,-0.38,1.13
2022-01-30 16:32:04.3310,0.32,-0.815,-0.764,-0.98,2.1,-1.21,0.43,-1.03,1.06
2022-01-30 16:32:04.3410,0.394,-0.84,-0.806,-2.69,2.55,-0.05,0.62,-1.55,0.91
2022-01-30 16:32:04.3520,0.445,-0.857,-0.79,-2.69,2.55,-0.05,0.92,-1.8,0.73
2022-01-30 16:32:04.3620,0.476,-0.851,-0.745,-3.41,2.67,-0.14,0.92,-1.8,0.73
2022-01-30 16:32:04.3710,0.491,-0.818,-0.678,-3.92,2.57,-0.5,1.23,-1.41,0.49
2022-01-30 16:32:04.3810,0.509,-0.799,-0.639,-4.24,2.17,-1.1,1.06,-0.98,0.51
2022-01-30 16:32:04.3920,0.539,-0.812,-0.623,-4.9239952647686005,1.87,-1.58,0.74,-0.5,0.61
2022-01-30 16:32:04.4020,0.562,-0.832,-0.624,-4.93,1.87,-1.58,0.39,-0.03,0.74
2022-01-30 16:32:04.4120,0.581,-0.844,-0.65,-5.24,2.01,-1.56,0.09,0.37,0.85
2022-01-30 16:32:04.4220,0.599,-0.876,-0.691,-5.48,2.11,-1.31,-0.12,0.64,0.93
2022-01-30 16:32:04.4320,0.608,-0.904,-0.755,-5.68,2.38,-0.92,-0.23,0.78,0.97
2022-01-30 16:32:04.4420,0.607,-0.901,-0.791,-5.79,2.7,-0.32,-0.29,0.84,0.97
2022-01-30 16:32:04.4520,0.583,-0.872,-0.8,-5.79,2.73,0.08,-0.4,0.83,0.98
2022-01-30 16:32:04.4620,0.535,-0.828,-0.819,-5.13,2.1,0.29,-0.63,0.74,1.0
2022-01-30 16:32:04.4720,0.48,-0.786,-0.861,-5.13,2.1,0.29,-0.97,0.6,1.02
2022-01-30 16:32:04.4820,0.404,-0.746,-0.92,-4.61,1.73,0.63,-0.97,0.6,1.02
2022-01-30 16:32:04.4920,0.325,-0.715,-1.015,-3.15,1.2,1.92,-1.68,0.22,1.09
2022-01-30 16:32:04.5020,0.25,-0.699,-1.14,-3.15,1.2,1.92,-1.77,-0.0,1.15
2022-01-30 16:32:04.5120,0.166,-0.673,-1.217,-2.48,1.17,3.06,-1.54,-0.12,1.19
2022-01-30 16:32:04.5220,0.1,-0.62,-1.229,-1.72,1.09,3.79,-1.02,-0.09,1.24
2022-01-30 16:32:04.5320,0.071,-0.549,-1.175,-1.11,0.72,3.91,-0.37,0.04,1.33
2022-01-30 16:32:04.5420,0.064,-0.497,-1.085,-0.85,0.1,3.4,0.19,0.16,1.52
2022-01-30 16:32:04.5520,0.066,-0.485,-0.998,-0.912268845140934,-0.59,1.67,0.58,0.2,1.78
2022-01-30 16:32:04.5620,0.065,-0.47,-0.9,-0.92,-0.59,0.75,0.72,0.2,2.0
2022-01-30 16:32:04.5720,0.037,-0.422,-0.823,-1.0,-0.75,0.75,0.63,0.12,2.07
2022-01-30 16:32:04.5820,-0.012,-0.381,-0.792,-0.87,-1.23,-0.02,0.38,-0.04,2.0
2022-01-30 16:32:04.5920,-0.059,-0.37,-0.799,-0.5,-1.71,-0.33,0.04,-0.31,1.78
2022-01-30 16:32:04.6020,-0.093,-0.364,-0.847,-0.14,-1.85,-0.31,-0.23,-0.62,1.43
2022-01-30 16:32:04.6120,-0.128,-0.359,-0.879,0.28,-1.92,0.49,-0.29,-0.83,1.0
2022-01-30 16:32:04.6230,-0.158,-0.349,-0.867,0.48,-1.96,0.42,-0.1,-0.83,0.55
2022-01-30 16:32:04.6320,-0.167,-0.309,-0.83,0.51,-2.31,0.07,0.2,-0.68,0.12
2022-01-30 16:32:04.6430,-0.164,-0.264,-0.808,0.42,-2.77,-0.15,0.45,-0.47,-0.23
2022-01-30 16:32:04.6520,-0.161,-0.221,-0.78,0.42,-2.77,-0.15,0.62,-0.14,-0.47
2022-01-30 16:32:04.6620,-0.154,-0.193,-0.72,0.33,-3.6,-0.88,0.62,-0.14,-0.47
2022-01-30 16:32:04.6730,-0.142,-0.178,-0.655,0.33,-3.6,-0.88,0.82,0.83,-0.53
2022-01-30 16:32:04.6820,-0.139,-0.168,-0.623,0.28,-3.81,-1.51,0.9,1.31,-0.4
2022-01-30 16:32:04.6930,-0.139,-0.159,-0.608,0.34,-3.99,-1.82,0.99,1.69,-0.23
2022-01-30 16:32:04.7020,-0.128,-0.153,-0.602,0.46,-4.15,-1.95,1.1,1.96,-0.09
2022-01-30 16:32:04.7130,-0.102,-0.154,-0.596,0.53,-4.3,-1.98,1.23,2.13,0.01
2022-01-30 16:32:04.7230,-0.064,-0.168,-0.594,0.24,-4.36,-1.95,1.28,2.18,0.02
2022-01-30 16:32:04.7330,-0.036,-0.197,-0.622,0.24,-4.36,-1.95,1.28,2.18,0.02
2022-01-30 16:32:04.7430,-0.008,-0.255,-0.658,0.12,-4.2,-1.64,1.19,1.93,-0.07
2022-01-30 16:32:04.7530,0.046,-0.316,-0.72,-0.33,-3.23,-0.59,1.15,1.56,-0.07
2022-01-30 16:32:04.7620,0.091,-0.353,-0.81,-0.33,-3.23,-0.59,1.2,1.03,0.0
2022-01-30 16:32:04.7730,0.106,-0.395,-0.875,-0.69,-2.93,0.36,1.32,0.58,0.16
2022-01-30 16:32:04.7830,0.083,-0.448,-0.877,-0.8,-2.64,1.14,1.48,0.34,0.35
2022-01-30 16:32:04.7930,0.058,-0.463,-0.867,-0.33,-2.11,1.29,1.52,0.28,0.48
2022-01-30 16:32:04.8030,0.049,-0.482,-0.872,-0.23,-2.08,1.44,1.39,0.36,0.57
2022-01-30 16:32:04.8130,0.058,-0.543,-0.875,-0.23,-2.08,1.44,1.07,0.47,0.63
2022-01-30 16:32:04.8230,0.08,-0.614,-0.921,-0.53,-0.98,2.0,0.61,0.55,0.67
2022-01-30 16:32:04.8330,0.074,-0.681,-0.984,-0.54,-0.37,2.66,0.08,0.61,0.74
2022-01-30 16:32:04.8430,0.025,-0.748,-1.051,-0.12,0.3,3.3,-0.36,0.66,0.86
2022-01-30 16:32:04.8530,-0.055,-0.79,-1.113,-0.12,0.3,3.3,-0.36,0.77,0.97
2022-01-30 16:32:04.8630,-0.137,-0.787,-1.131,0.63,0.79,3.92,-0.72,0.94,1.02
2022-01-30 16:32:04.8730,-0.215,-0.78,-1.137,2.2,0.8,4.11,-0.72,1.07,1.05
2022-01-30 16:32:04.8840,-0.283,-0.805,-1.166,2.2,0.8,4.11,-0.74,1.03,1.07
2022-01-30 16:32:04.8930,-0.355,-0.852,-1.206,3.57,1.56,4.66,-0.76,0.81,1.11
2022-01-30 16:32:04.9040,-0.444,-0.886,-1.247,3.57,1.56,4.66,-0.71,0.37,1.09
2022-01-30 16:32:04.9130,-0.533,-0.891,-1.292,4.4,1.98,4.99,-0.57,-0.2,0.94
2022-01-30 16:32:04.9230,-0.573,-0.872,-1.292,5.64,1.99,5.42,-0.37,-0.85,0.63
2022-01-30 16:32:04.9330,-0.543,-0.835,-1.279,5.64,1.99,5.42,-0.22,-1.57,0.22
2022-01-30 16:32:04.9440,-0.478,-0.807,-1.252,4.57,1.39,5.04,-0.21,-2.18,-0.25
2022-01-30 16:32:04.9530,-0.407,-0.773,-1.159,4.57,1.39,5.04,-0.36,-2.48,-0.74
2022-01-30 16:32:04.9630,-0.359,-0.704,-1.031,3.08,0.5,2.94,-0.61,-2.4,-1.19
2022-01-30 16:32:04.9740,-0.324,-0.625,-0.905,2.65,-0.24,1.66,-0.89,-2.02,-1.56
2022-01-30 16:32:04.9840,-0.294,-0.55,-0.794,2.65,-0.24,1.66,-1.14,-1.42,-1.81
2022-01-30 16:32:04.9940,-0.261,-0.486,-0.695,2.0,-1.49,-0.55,-1.34,-0.74,-1.94
2022-01-30 16:32:05.0040,-0.223,-0.439,-0.624,2.0,-1.49,-0.55,-1.46,-0.12,-1.94
2022-01-30 16:32:05.0140,-0.184,-0.412,-0.577,1.71,-1.88,-1.37,-1.49,0.34,-1.87
2022-01-30 16:32:05.0240,-0.142,-0.4,-0.544,1.44,-2.07,-1.94,-1.43,0.59,-1.75
2022-01-30 16:32:05.0340,-0.099,-0.4,-0.513,0.9,-1.99,-2.76,-1.27,0.64,-1.63
2022-01-30 16:32:05.0440,-0.065,-0.402,-0.486,0.9,-1.99,-2.76,-1.05,0.5,-1.53
2022-01-30 16:32:05.0540,-0.042,-0.398,-0.464,0.69,-1.87,-3.11,-0.81,0.2,-1.48
2022-01-30 16:32:05.0640,-0.017,-0.396,-0.446,0.59,-1.82,-3.39,-0.56,-0.23,-1.47
2022-01-30 16:32:05.0740,0.005,-0.39,-0.441,0.44,-1.78,-3.62,-0.35,-0.76,-1.5
2022-01-30 16:32:05.0840,0.024,-0.379,-0.446,0.27,-1.77,-3.73,-0.2,-1.3,-1.56
2022-01-30 16:32:05.0940,0.037,-0.382,-0.437,0.1,-1.86,-3.69,-0.06,-1.75,-1.6
2022-01-30 16:32:05.1040,0.039,-0.396,-0.413,-0.06,-1.83,-3.78,0.07,-2.0,-1.59
2022-01-30 16:32:05.1140,0.031,-0.403,-0.385,-0.15,-1.69,-4.0,0.23,-2.09,-1.54
2022-01-30 16:32:05.1240,0.031,-0.393,-0.358,-0.22,-1.71,-4.54,0.4,-2.04,-1.51
2022-01-30 16:32:05.1340,0.038,-0.379,-0.346,-0.22,-1.71,-4.54,0.4,-2.04,-1.51
2022-01-30 16:32:05.1440,0.051,-0.373,-0.356,-0.56,-1.99,-4.56,0.64,-1.8,-1.48
2022-01-30 16:32:05.1550,0.069,-0.381,-0.38,-0.56,-1.99,-4.56,0.64,-1.8,-1.48
2022-01-30 16:32:05.1640,0.094,-0.406,-0.413,-1.08,-1.81,-3.94,0.7,-1.52,-1.42
2022-01-30 16:32:05.1750,0.117,-0.436,-0.45,-1.34,-1.58,-3.53,0.7,-1.34,-1.39
2022-01-30 16:32:05.1840,0.145,-0.466,-0.498,-1.34,-1.58,-3.53,0.67,-1.16,-1.39
2022-01-30 16:32:05.1940,0.173,-0.5,-0.577,-1.63,-1.34,-3.05,0.67,-1.16,-1.39
2022-01-30 16:32:05.2040,0.191,-0.553,-0.698,-1.92,-1.07,-2.29,0.55,-0.93,-1.34
2022-01-30 16:32:05.2140,0.216,-0.633,-0.826,-2.1,-0.64,-1.09,0.47,-0.9,-1.26
2022-01-30 16:32:05.2250,0.24,-0.688,-1.01,-2.32,0.1,0.18,0.43,-0.97,-1.19
2022-01-30 16:32:05.2340,0.232,-0.717,-1.219,-2.54,0.91,4.03,0.5,-0.98,-1.11
2022-01-30 16:32:05.2450,0.199,-0.733,-1.386,-2.54,0.91,4.03,0.68,-0.85,-0.96
2022-01-30 16:32:05.2550,0.166,-0.74,-1.517,-2.24,1.0664894503355027,7.153406445980073,0.97,-0.5,-0.72
2022-01-30 16:32:05.2650,0.133,-0.745,-1.567,-1.92,1.06,7.15,1.26,0.08,-0.48
2022-01-30 16:32:05.2750,0.116,-0.739,-1.556,-1.59,1.04,7.81,1.4,0.75,-0.33
2022-01-30 16:32:05.2850,0.144,-0.75,-1.546,-1.33,0.89,7.82,1.32,1.27,-0.26
2022-01-30 16:32:05.2940,0.184,-0.781,-1.532,-1.49,0.86,7.79,1.05,1.55,-0.26
2022-01-30 16:32:05.3050,0.217,-0.815,-1.502,-1.76,1.06,7.75,0.72,1.61,-0.32
2022-01-30 16:32:05.3150,0.231,-0.838,-1.466,-1.97,1.32,7.54,0.38,1.44,-0.41
2022-01-30 16:32:05.3250,0.231,-0.835,-1.437,-2.0,1.53,7.23,0.07,1.11,-0.52
2022-01-30 16:32:05.3350,0.222,-0.82,-1.397,-1.89,1.5,6.97,-0.21,0.7,-0.6
2022-01-30 16:32:05.3450,0.196,-0.794,-1.347,-1.7,1.37,6.61,-0.46,0.28,-0.66
2022-01-30 16:32:05.3550,0.166,-0.751,-1.286,-1.38,1.15,6.11,-0.7,-0.09,-0.72
2022-01-30 16:32:05.3640,0.147,-0.702,-1.227,-1.01,0.79,5.48,-0.7,-0.09,-0.72
2022-01-30 16:32:05.3750,0.143,-0.666,-1.175,-0.77,0.37,4.85,-1.26,-0.65,-0.85
2022-01-30 16:32:05.3850,0.144,-0.641,-1.125,-0.7,0.07,4.26,-1.53,-0.76,-0.89
2022-01-30 16:32:05.3950,0.142,-0.608,-1.046,-0.7,-0.07,3.69,-1.73,-0.68,-0.9
2022-01-30 16:32:05.4050,0.127,-0.552,-0.955,-0.69,-0.26,2.85,-1.85,-0.48,-0.86
2022-01-30 16:32:05.4150,0.093,-0.489,-0.87,-0.56,-0.64,1.84,-1.9,-0.22,-0.77
2022-01-30 16:32:05.4250,0.051,-0.445,-0.783,-0.23,-1.11,0.89,-1.87,0.03,-0.64
2022-01-30 16:32:05.4350,0.001,-0.413,-0.708,0.21,-1.42,-0.09,-1.87,0.03,-0.64
2022-01-30 16:32:05.4460,-0.056,-0.381,-0.656,1.31,-1.75,-1.59,-1.55,0.24,-0.4
2022-01-30 16:32:05.4560,-0.116,-0.353,-0.613,1.31,-1.75,-1.59,-1.24,0.21,-0.36
2022-01-30 16:32:05.4650,-0.132,-0.318,-0.556,1.97,-1.9,-2.07,-0.9,0.09,-0.38
2022-01-30 16:32:05.4760,-0.108,-0.293,-0.508,2.22,-2.13,-2.7,-0.56,-0.08,-0.43
2022-01-30 16:32:05.4850,-0.076,-0.3,-0.454,2.05,-2.33,-3.22,-0.25,-0.2,-0.44
2022-01-30 16:32:05.4960,-0.046,-0.317,-0.377,1.74,-2.25,-3.75,-0.25,-0.2,-0.44
2022-01-30 16:32:05.5050,-0.029,-0.32,-0.292,1.27,-2.0,-5.34,0.3,-0.04,-0.28
2022-01-30 16:32:05.5160,-0.03,-0.301,-0.227,1.27,-2.0,-5.34,0.53,0.21,-0.16
2022-01-30 16:32:05.5260,-0.034,-0.266,-0.174,1.27,-2.19,-5.99,0.53,0.21,-0.16
2022-01-30 16:32:05.5350,-0.036,-0.253,-0.134,1.42,-2.8,-6.86,0.81,0.79,0.05
2022-01-30 16:32:05.5460,-0.032,-0.277,-0.112,1.42,-2.8,-6.86,0.87,1.01,0.13
2022-01-30 16:32:05.5550,-0.027,-0.307,-0.112,1.44,-2.66,-7.04,0.91,1.12,0.19
2022-01-30 16:32:05.5660,-0.018,-0.327,-0.126,1.47,-2.43,-7.01,0.97,1.11,0.19
2022-01-30 16:32:05.5760,-0.005,-0.334,-0.154,1.42,-2.29,-6.5,1.0,0.97,0.12
2022-01-30 16:32:05.5860,0.012,-0.344,-0.204,1.42,-2.29,-6.5,1.03,0.69,0.01
2022-01-30 16:32:05.5950,0.037,-0.367,-0.27,1.34,-2.29,-5.97,1.06,0.28,-0.11
2022-01-30 16:32:05.6060,0.064,-0.384,-0.363,1.14,-2.15,-4.334866653084755,1.13,-0.23,-0.22
2022-01-30 16:32:05.6160,0.086,-0.418,-0.449,0.9,-2.06,-4.34,1.13,-0.23,-0.22
2022-01-30 16:32:05.6260,0.117,-0.468,-0.52,0.67,-1.84,-3.39,1.25,-0.71,-0.3
2022-01-30 16:32:05.6360,0.147,-0.51,-0.627,-0.03,-1.13,-1.57,1.53,-1.49,-0.42
2022-01-30 16:32:05.6460,0.164,-0.561,-0.739,-0.3,-0.75,-0.4,1.64,-1.78,-0.45
2022-01-30 16:32:05.6560,0.183,-0.599,-0.881,-0.58,-0.46,1.0,1.67,-2.12,-0.51
2022-01-30 16:32:05.6660,0.186,-0.621,-1.092,-0.79,-0.37,3.08,1.58,-2.49,-0.59
2022-01-30 16:32:05.6760,0.151,-0.685,-1.267,-0.62,0.09,5.02,1.51,-2.57,-0.66
2022-01-30 16:32:05.6850,0.111,-0.765,-1.328,-0.62,0.09,5.02,1.54,-2.29,-0.7
2022-01-30 16:32:05.6970,0.079,-0.8,-1.378,-0.15,1.09,6.35,1.54,-2.29,-0.7
2022-01-30 16:32:05.7050,0.058,-0.799,-1.398,-0.15,1.09,6.35,1.69,-1.12,-0.89
2022-01-30 16:32:05.7170,0.032,-0.785,-1.338,-0.01,1.0,6.73,1.69,-1.12,-0.89
2022-01-30 16:32:05.7260,0.02,-0.791,-1.218,0.45,0.67,5.33,1.63,-0.24,-0.97
2022-01-30 16:32:05.7370,0.046,-0.836,-1.09,0.38,0.99,4.15,0.94,1.67,-0.83
2022-01-30 16:32:05.7460,0.116,-0.895,-0.991,0.38,0.99,4.15,0.33,2.33,-0.72
2022-01-30 16:32:05.7560,0.191,-0.976,-0.937,-0.63,2.27,2.66,-0.38,2.63,-0.63
2022-01-30 16:32:05.7660,0.268,-1.068,-0.932,-1.18,3.2,2.57,-1.07,2.59,-0.61
2022-01-30 16:32:05.7770,0.336,-1.147,-0.933,-1.65,4.09,2.54,-1.61,2.32,-0.67
2022-01-30 16:32:05.7860,0.374,-1.191,-0.938,-1.65,4.09,2.54,-1.95,1.9,-0.77
2022-01-30 16:32:05.7970,0.381,-1.186,-0.955,-1.87,4.7,2.49,-2.14,1.35,-0.87
2022-01-30 16:32:05.8070,0.362,-1.12,-0.998,-1.79,4.87,2.53,-2.29,0.67,-0.92
2022-01-30 16:32:05.8170,0.304,-1.014,-1.057,-1.5,4.46,2.81,-2.45,-0.05,-0.89
2022-01-30 16:32:05.8270,0.225,-0.916,-1.116,-0.06,2.84,3.65,-2.45,-0.05,-0.89
2022-01-30 16:32:05.8370,0.157,-0.849,-1.183,-0.06,2.84,3.65,-2.77,-1.25,-0.42
2022-01-30 16:32:05.8470,0.081,-0.811,-1.219,1.26,2.17,4.35,-2.71,-1.5,-0.0
2022-01-30 16:32:05.8570,-0.001,-0.761,-1.203,1.26,2.17,4.35,-2.42,-1.5,0.41
2022-01-30 16:32:05.8670,-0.088,-0.677,-1.171,2.64,1.31,3.58,-2.02,-1.36,0.72
2022-01-30 16:32:05.8770,-0.184,-0.585,-1.124,2.64,1.31,3.58,-1.61,-1.16,0.9
2022-01-30 16:32:05.8870,-0.281,-0.491,-1.043,3.43,0.55,3.02,-1.26,-0.96,0.93
2022-01-30 16:32:05.8960,-0.353,-0.382,-0.954,4.25,-0.24,2.16,-1.02,-0.86,0.85
2022-01-30 16:32:05.9070,-0.397,-0.278,-0.861,5.226549498438835,-2.18,0.25,-0.9,-0.85,0.7
2022-01-30 16:32:05.9170,-0.411,-0.203,-0.766,5.29,-2.88,-0.77,-0.92,-0.94,0.53
2022-01-30 16:32:05.9270,-0.388,-0.152,-0.694,5.0,-3.34,-1.55,-1.03,-1.08,0.33
2022-01-30 16:32:05.9370,-0.343,-0.122,-0.624,5.0,-3.34,-1.55,-1.14,-1.15,0.12
2022-01-30 16:32:05.9470,-0.295,-0.124,-0.563,4.48,-3.58,-2.3,-1.21,-1.09,-0.05
2022-01-30 16:32:05.9570,-0.266,-0.138,-0.522,3.89,-3.49,-2.98,-1.17,-0.92,-0.15
2022-01-30 16:32:05.9670,-0.263,-0.122,-0.495,3.36,-3.25,-3.8,-1.01,-0.68,-0.22
2022-01-30 16:32:05.9770,-0.275,-0.077,-0.466,3.36,-3.25,-3.8,-0.74,-0.43,-0.25
2022-01-30 16:32:05.9870,-0.294,-0.039,-0.442,3.41,-3.58,-4.14,-0.41,-0.24,-0.26
2022-01-30 16:32:05.9970,-0.308,-0.016,-0.417,3.57,-3.91,-4.42,-0.09,-0.16,-0.25
2022-01-30 16:32:06.0080,-0.309,-0.005,-0.403,3.71,-4.11,-4.68,0.16,-0.24,-0.22
2022-01-30 16:32:06.0170,-0.309,-0.004,-0.381,3.72,-4.23,-4.83,0.31,-0.45,-0.17
2022-01-30 16:32:06.0280,-0.285,-0.014,-0.363,3.72,-4.27,-5.03,0.38,-0.79,-0.16
2022-01-30 16:32:06.0370,-0.24,-0.026,-0.368,3.48,-4.21,-5.22,0.38,-1.23,-0.23
2022-01-30 16:32:06.0470,-0.202,-0.032,-0.407,2.99,-4.11,-5.19,0.35,-1.7,-0.36
2022-01-30 16:32:06.0570,-0.178,-0.042,-0.444,2.5,-4.08,-4.83,0.37,-2.04,-0.52
2022-01-30 16:32:06.0670,-0.169,-0.042,-0.438,2.1,-4.01,-4.42,0.43,-2.18,-0.69
2022-01-30 16:32:06.0780,-0.17,-0.022,-0.45,1.84,-4.02,-4.44,0.5,-2.14,-0.86
2022-01-30 16:32:06.0870,-0.171,-0.005,-0.483,1.69,-4.24,-4.35,0.54,-1.95,-1.03
2022-01-30 16:32:06.0970,-0.182,0.001,-0.526,1.55,-4.46,-4.02,0.52,-1.62,-1.16
2022-01-30 16:32:06.1070,-0.191,-0.013,-0.564,1.52,-4.59,-3.58,0.45,-1.24,-1.19
2022-01-30 16:32:06.1180,-0.17,-0.047,-0.666,1.32,-4.25,-2.29,0.26,-1.04,-1.14
2022-01-30 16:32:06.1270,-0.132,-0.123,-0.829,1.32,-4.25,-2.29,0.11,-1.0,-0.97
2022-01-30 16:32:06.1380,-0.09,-0.252,-0.973,0.94,-3.62,-0.66,0.14,-1.12,-0.75
2022-01-30 16:32:06.1470,-0.061,-0.34,-1.139,0.46,-2.37,0.74,0.4,-1.24,-0.61
2022-01-30 16:32:06.1580,-0.047,-0.389,-1.254,0.11,-1.46,2.39,0.68,-1.24,-0.59
2022-01-30 16:32:06.1670,-0.083,-0.448,-1.329,-0.15,-0.99,3.61,0.84,-1.1,-0.67
2022-01-30 16:32:06.1780,-0.114,-0.514,-1.357,0.08,-0.5,4.45,0.8,-0.96,-0.82
2022-01-30 16:32:06.1880,-0.084,-0.554,-1.407,0.12,0.43,5.28,0.59,-1.05,-1.02
2022-01-30 16:32:06.1980,0.005,-0.614,-1.471,0.12,0.43,5.28,0.23,-1.32,-1.22
2022-01-30 16:32:06.2080,0.127,-0.712,-1.51,-0.73,0.92,5.97,-0.21,-1.68,-1.38
2022-01-30 16:32:06.2180,0.25,-0.841,-1.553,-1.95,1.8,6.38,-0.73,-1.96,-1.52
2022-01-30 16:32:06.2280,0.318,-0.934,-1.613,-3.27,3.07,6.79,-1.29,-2.04,-1.72
2022-01-30 16:32:06.2380,0.347,-0.96,-1.694,-4.5,4.53,8.07,-1.79,-1.86,-1.98
2022-01-30 16:32:06.2480,0.361,-0.958,-1.747,-4.5,4.53,8.07,-1.79,-1.86,-1.98
2022-01-30 16:32:06.2580,0.345,-0.914,-1.761,-4.6,4.46,8.67,-2.41,-0.6,-2.52
2022-01-30 16:32:06.2680,0.311,-0.866,-1.739,-4.6,4.46,8.67,-2.55,0.23,-2.6
2022-01-30 16:32:06.2780,0.312,-0.845,-1.7,-4.19,4.15,8.39,-2.58,0.88,-2.5
2022-01-30 16:32:06.2880,0.356,-0.861,-1.665,-4.0,4.1,7.9,-2.48,1.17,-2.19
2022-01-30 16:32:06.2980,0.443,-0.914,-1.622,-4.82,5.11,6.94,-2.22,1.07,-1.73
2022-01-30 16:32:06.3080,0.528,-0.968,-1.537,-4.82,5.11,6.94,-2.22,1.07,-1.1877245903015137
2022-01-30 16:32:06.3190,0.566,-0.982,-1.408,-5.54,5.86,6.08,-1.34,0.15,-0.63
2022-01-30 16:32:06.3280,0.562,-0.958,-1.252,-5.88,6.21,4.79,-0.92,-0.43,-0.11
2022-01-30 16:32:06.3390,0.529,-0.917,-1.092,-5.86,6.13,3.24,-0.6,-0.98,0.39
2022-01-30 16:32:06.3490,0.477,-0.865,-0.936,-5.6,5.83,1.64,-0.37,-1.42,0.82
2022-01-30 16:32:06.3590,0.408,-0.787,-0.787,-5.23,5.4,0.1,-0.26,-1.68,1.19
2022-01-30 16:32:06.3690,0.334,-0.702,-0.674,-4.73,4.69,-1.39,-0.26,-1.84,1.46
2022-01-30 16:32:06.3790,0.263,-0.637,-0.609,-4.21,3.89,-2.56,-0.33,-1.86,1.61
2022-01-30 16:32:06.3880,0.198,-0.598,-0.555,-3.71,3.26,-3.23,-0.33,-1.86,1.61
2022-01-30 16:32:06.3990,0.137,-0.554,-0.511,-2.9,2.56,-4.2,-0.27,-1.53,1.56
2022-01-30 16:32:06.4090,0.079,-0.485,-0.507,-2.9,2.56,-4.2,-0.08,-1.25,1.38
2022-01-30 16:32:06.4190,0.036,-0.416,-0.477,-2.2,1.29,-4.48,0.19,-0.86,1.14
2022-01-30 16:32:06.4290,0.028,-0.372,-0.432,-2.2,1.29,-4.48,0.47,-0.4,0.91
2022-01-30 16:32:06.4390,0.045,-0.336,-0.391,-2.18,0.83,-4.9,0.7,0.06,0.74
2022-01-30 16:32:06.4480,0.074,-0.309,-0.362,-2.39,0.45,-5.29,0.88,0.45,0.65
2022-01-30 16:32:06.4590,0.102,-0.292,-0.339,-2.67,0.11,-5.57,1.04,0.76,0.63
2022-01-30 16:32:06.4680,0.123,-0.274,-0.307,-3.0905277067422867,-0.38,-6.07,1.2,0.98,0.66
2022-01-30 16:32:06.4800,0.133,-0.249,-0.29,-3.1,-0.38,-6.07,1.35,1.07,0.71
2022-01-30 16:32:06.4890,0.132,-0.22,-0.287,-3.14,-0.72,-6.25,1.46,1.03,0.73
2022-01-30 16:32:06.4990,0.124,-0.196,-0.311,-3.07,-1.1,-6.27,1.54,0.84,0.73
2022-01-30 16:32:06.5090,0.112,-0.172,-0.352,-2.78,-1.83,-5.61,1.62,0.53,0.67
2022-01-30 16:32:06.5190,0.092,-0.141,-0.403,-2.78,-1.83,-5.61,1.72,0.15,0.52
2022-01-30 16:32:06.5400,0.087,-0.101,-0.458,-2.5,-2.8,-4.45,1.79,-0.22,0.32
2022-01-30 16:32:06.5440,0.093,-0.088,-0.496,-2.57,-3.11,-3.99,1.79,-0.5,0.11
2022-01-30 16:32:06.5480,0.094,-0.078,-0.535,-2.66,-3.35,-3.53,1.71,-0.59,-0.1
2022-01-30 16:32:06.5590,0.066,-0.057,-0.586,-2.66,-3.35,-3.53,1.6,-0.43,-0.29
2022-01-30 16:32:06.5680,0.014,-0.041,-0.631,-2.47,-3.7,-2.98,1.5,0.09,-0.44
2022-01-30 16:32:06.5780,-0.045,-0.048,-0.667,-1.99,-4.01,-2.42,1.42,0.82,-0.52
2022-01-30 16:32:06.5890,-0.102,-0.082,-0.765,-1.38,-4.12,-2.03,1.35,1.47,-0.61
2022-01-30 16:32:06.5980,-0.158,-0.128,-0.944,-0.72,-3.93,-1.13,1.29,1.82,-0.76
2022-01-30 16:32:06.6100,-0.197,-0.202,-1.135,0.59,-3.06,2.54,1.29,1.92,-0.93
2022-01-30 16:32:06.6190,-0.22,-0.318,-1.243,0.59,-3.06,2.54,1.35,1.99,-1.08
2022-01-30 16:32:06.6300,-0.21,-0.416,-1.247,1.04,-2.08,3.78,1.31,2.17,-1.26
2022-01-30 16:32:06.6390,-0.155,-0.487,-1.238,0.98,-0.61,3.88,1.09,2.34,-1.42
2022-01-30 16:32:06.6500,-0.095,-0.603,-1.276,0.98,-0.61,3.88,0.77,2.49,-1.54
2022-01-30 16:32:06.6600,-0.027,-0.714,-1.29,0.31,1.45,4.5,0.48,2.7,-1.61
2022-01-30 16:32:06.6700,0.076,-0.831,-1.262,-0.34,2.5,4.29,0.31,2.99,-1.56
2022-01-30 16:32:06.6800,0.228,-1.012,-1.205,-1.43,4.21,3.77,0.2,3.27,-1.41
2022-01-30 16:32:06.6900,0.402,-1.175,-1.178,-1.43,4.21,3.77,0.06,3.34,-1.18
2022-01-30 16:32:06.6990,0.521,-1.307,-1.188,-3.75,7.19,3.59,-0.08,3.18,-0.86
2022-01-30 16:32:06.7100,0.547,-1.406,-1.188,-3.83,8.24,3.66,-0.01,2.9,-0.49
2022-01-30 16:32:06.7200,0.49,-1.443,-1.178,-3.83,8.24,3.66,0.32,2.37,-0.12
2022-01-30 16:32:06.7300,0.442,-1.426,-1.235,-2.37,8.54,4.08,0.63,1.25,0.21
2022-01-30 16:32:06.7400,0.451,-1.4,-1.375,-2.37,8.54,4.08,0.68,-0.36,0.51
2022-01-30 16:32:06.7500,0.502,-1.424,-1.438,-2.33,8.2,5.49,0.53,-1.9,0.59
2022-01-30 16:32:06.7600,0.54,-1.39,-1.404,-3.48,8.1,6.03,0.21,-2.83,0.33
2022-01-30 16:32:06.7700,0.53,-1.258,-1.295,-3.48,8.1,6.03,-0.33,-2.87,-0.2
2022-01-30 16:32:06.7800,0.485,-1.099,-1.151,-3.68,6.86,5.0,-0.33,-2.87,-0.2
2022-01-30 16:32:06.7900,0.452,-0.924,-1.003,-3.46,5.37,3.55,-2.11,-0.71,-1.23
2022-01-30 16:32:06.8000,0.453,-0.742,-0.912,-3.16,2.19,0.86,-3.02,0.75,-1.42
2022-01-30 16:32:06.8100,0.46,-0.574,-0.901,-3.1,0.78,0.49,-3.69,1.95,-1.34
2022-01-30 16:32:06.8210,0.415,-0.453,-0.97,-2.5012613931298255,-0.13,0.96,-3.93,2.71,-1.07
2022-01-30 16:32:06.8300,0.336,-0.378,-1.024,-1.45,-0.58,1.43,-3.61,3.04,-0.67
2022-01-30 16:32:06.8400,0.301,-0.356,-0.995,-0.73,-0.52,1.19,-2.72,3.09,-0.23
2022-01-30 16:32:06.8500,0.354,-0.331,-0.903,-0.73,-0.52,1.19,-2.72,3.09,-0.23
2022-01-30 16:32:06.8610,0.432,-0.327,-0.852,-0.87,-0.52,0.26,-0.44,2.07,0.67
2022-01-30 16:32:06.8700,0.484,-0.385,-0.789,-1.8270332819223405,0.01,-0.79,0.31,1.19,1.24
2022-01-30 16:32:06.8810,0.494,-0.446,-0.676,-1.9318966627120973,0.59,-1.8,0.74,0.35,1.85
2022-01-30 16:32:06.8910,0.463,-0.45,-0.562,-1.94,0.59,-1.8,1.0,-0.37,2.37
2022-01-30 16:32:06.9000,0.375,-0.418,-0.496,-1.09,0.13,-3.59,1.29,-0.85,2.72
2022-01-30 16:32:06.9110,0.259,-0.369,-0.432,-1.09,0.13,-3.59,1.68,-1.12,2.87
2022-01-30 16:32:06.9210,0.149,-0.315,-0.394,0.72,-1.27,-4.55,2.12,-1.22,2.84
2022-01-30 16:32:06.9310,0.054,-0.279,-0.347,0.72,-1.27,-4.55,2.12,-1.22,2.84
2022-01-30 16:32:06.9410,-0.002,-0.249,-0.29,1.46,-1.89,-4.91,2.82,-1.09,2.58
2022-01-30 16:32:06.9510,-0.017,-0.22,-0.241,1.84,-2.45,-5.37,3.0,-0.95,2.47
2022-01-30 16:32:06.9600,-0.0,-0.194,-0.19,1.81,-3.02,-5.73,3.07,-0.72,2.39
2022-01-30 16:32:06.9710,0.03,-0.172,-0.13,1.47,-3.56,-6.07,3.07,-0.72,2.39
2022-01-30 16:32:06.9810,0.043,-0.144,-0.08,0.67,-4.58,-6.84,2.88,0.08,2.15
2022-01-30 16:32:06.9910,0.03,-0.114,-0.049,0.67,-4.58,-6.84,2.63,0.57,1.97
2022-01-30 16:32:07.0000,0.007,-0.095,-0.031,0.79,-5.52,-7.0,2.32,1.07,1.73
2022-01-30 16:32:07.0110,-0.01,-0.093,-0.04,0.94,-5.74,-6.81,2.32,1.07,1.73
2022-01-30 16:32:07.0210,-0.034,-0.111,-0.082,0.94,-5.74,-6.81,1.57,1.76,1.1
2022-01-30 16:32:07.0310,-0.047,-0.139,-0.142,1.17,-5.74,-6.28,1.57,1.76,1.1
2022-01-30 16:32:07.0410,-0.015,-0.204,-0.226,1.39,-5.59,-5.6,0.87,1.69,0.61
2022-01-30 16:32:07.0510,0.04,-0.316,-0.336,0.73,-4.11,-3.57,0.67,1.4,0.58
2022-01-30 16:32:07.0610,0.076,-0.436,-0.417,0.73,-4.11,-3.57,0.59,1.22,0.67
2022-01-30 16:32:07.0710,0.12,-0.562,-0.466,0.03,-1.81,-2.12,0.53,1.21,0.87
2022-01-30 16:32:07.0810,0.163,-0.723,-0.537,0.03,-1.81,-2.12,0.49,1.29,1.11
2022-01-30 16:32:07.0910,0.215,-0.903,-0.658,-0.39,-0.33,-1.41,0.49,1.22,1.26
2022-01-30 16:32:07.1010,0.239,-1.042,-0.882,-0.88,1.4,-0.26,0.52,0.85,1.17
2022-01-30 16:32:07.1110,0.208,-1.128,-1.096,-1.21,2.79,1.87,0.59,0.4,0.82
2022-01-30 16:32:07.1210,0.167,-1.189,-1.207,-0.61,4.2,5.39,0.66,0.1,0.32
2022-01-30 16:32:07.1310,0.151,-1.239,-1.201,-0.61,4.2,5.39,0.71,0.15,-0.2
2022-01-30 16:32:07.1410,0.206,-1.271,-1.085,-0.4,4.67,5.54,0.7,0.55,-0.63
2022-01-30 16:32:07.1510,0.291,-1.251,-0.956,-1.57,4.82,3.3,0.55,1.14,-0.92
2022-01-30 16:32:07.1620,0.355,-1.202,-0.855,-1.57,4.82,3.3,0.25,1.83,-0.98
2022-01-30 16:32:07.1710,0.394,-1.182,-0.759,-2.08,4.32,2.35,-0.13,2.51,-0.81
2022-01-30 16:32:07.1820,0.405,-1.192,-0.702,-2.31,4.08,1.43,-0.51,2.99,-0.51
2022-01-30 16:32:07.1910,0.412,-1.188,-0.692,-2.23,4.18,0.83,-0.51,2.99,-0.51
2022-01-30 16:32:07.2020,0.422,-1.201,-0.681,-2.07,4.21,0.72,-0.93,3.17,-0.01
2022-01-30 16:32:07.2120,0.413,-1.235,-0.675,-1.97,4.34,0.62,-0.93,3.17,-0.01
2022-01-30 16:32:07.2220,0.395,-1.245,-0.641,-1.72,4.74,0.56,-0.72,2.54,0.27
2022-01-30 16:32:07.2320,0.384,-1.238,-0.59,-1.38,4.92,0.28,-0.56,2.09,0.36
2022-01-30 16:32:07.2420,0.376,-1.216,-0.5,-0.95,4.75,-1.0,-0.49,1.71,0.45
2022-01-30 16:32:07.2520,0.356,-1.144,-0.393,-0.71,4.12,-2.07,-0.61,1.39,0.52
2022-01-30 16:32:07.2620,0.313,-1.031,-0.349,-0.71,4.12,-2.07,-0.96,1.02,0.57
2022-01-30 16:32:07.2710,0.256,-0.897,-0.391,-0.28,3.08,-2.61,-1.46,0.52,0.59
2022-01-30 16:32:07.2810,0.185,-0.782,-0.474,0.95,0.72,-1.64,-1.98,-0.06,0.61
2022-01-30 16:32:07.2910,0.108,-0.718,-0.553,1.66,0.15,-0.99,-2.3,-0.62,0.63
2022-01-30 16:32:07.3010,0.036,-0.656,-0.625,2.28,-0.3,-0.47,-2.33,-1.18,0.63
2022-01-30 16:32:07.3110,-0.032,-0.581,-0.709,2.28,-0.3,-0.47,-2.13,-1.65,0.64
2022-01-30 16:32:07.3210,-0.103,-0.502,-0.755,2.82,-0.9,0.16,-1.8,-1.95,0.63
2022-01-30 16:32:07.3320,-0.176,-0.399,-0.759,3.36,-1.53,0.5,-1.49,-2.0,0.6
2022-01-30 16:32:07.3420,-0.247,-0.285,-0.731,3.9,-2.4,0.42,-1.28,-1.76,0.58
2022-01-30 16:32:07.3530,-0.307,-0.192,-0.694,4.42,-3.42,0.03,-1.2,-1.33,0.6
2022-01-30 16:32:07.3620,-0.328,-0.145,-0.672,5.0,-4.74,-0.79,-1.25,-0.81,0.63
2022-01-30 16:32:07.3730,-0.314,-0.133,-0.675,5.0,-4.74,-0.79,-1.33,-0.32,0.62
2022-01-30 16:32:07.3810,-0.284,-0.148,-0.685,4.81,-4.81,-0.87,-1.35,0.02,0.53
2022-01-30 16:32:07.3920,-0.247,-0.16,-0.735,4.47,-4.6,-0.89,-1.22,0.16,0.35
2022-01-30 16:32:07.4020,-0.222,-0.15,-0.775,4.07,-4.37,-0.52,-0.93,0.13,0.11
2022-01-30 16:32:07.4120,-0.214,-0.129,-0.787,3.8,-4.36,-0.15,-0.53,0.0,-0.12
2022-01-30 16:32:07.4220,-0.232,-0.104,-0.766,3.69,-4.48,-0.05,-0.53,0.0,-0.12
2022-01-30 16:32:07.4320,-0.238,-0.081,-0.71,3.96,-4.91,-0.76,0.21,-0.2,-0.37
2022-01-30 16:32:07.4430,-0.219,-0.066,-0.634,3.96,-4.91,-0.76,0.42,-0.14,-0.35
2022-01-30 16:32:07.4520,-0.19,-0.064,-0.541,3.79,-5.08,-1.48,0.53,0.06,-0.26
2022-01-30 16:32:07.4630,-0.142,-0.068,-0.475,3.54,-5.15,-2.36,0.55,0.25,-0.18
2022-01-30 16:32:07.4720,-0.09,-0.088,-0.463,3.11,-5.14,-3.03,0.51,0.33,-0.19
2022-01-30 16:32:07.4830,-0.052,-0.118,-0.472,2.63,-5.01,-3.16,0.44,0.26,-0.3
2022-01-30 16:32:07.4920,-0.039,-0.154,-0.502,2.15,-4.43,-2.78,0.35,0.05,-0.52
2022-01-30 16:32:07.5030,-0.042,-0.187,-0.557,2.2,-4.12,-2.23,0.27,-0.24,-0.82
2022-01-30 16:32:07.5130,-0.044,-0.235,-0.596,2.25,-3.68,-1.8,0.25,-0.5,-1.07
2022-01-30 16:32:07.5230,-0.037,-0.289,-0.616,2.23,-3.13,-1.6,0.3,-0.67,-1.22
2022-01-30 16:32:07.5320,-0.016,-0.31,-0.655,2.23,-3.13,-1.6,0.34,-0.73,-1.21
2022-01-30 16:32:07.5430,-0.001,-0.337,-0.729,1.91,-2.67,-0.57,0.28,-0.74,-1.08
2022-01-30 16:32:07.5530,0.022,-0.406,-0.842,1.91,-2.67,-0.57,0.15,-0.73,-0.91
2022-01-30 16:32:07.5630,0.017,-0.475,-0.99,1.7,-2.03,0.49,0.09,-0.65,-0.82
2022-01-30 16:32:07.5730,-0.01,-0.551,-1.117,1.69,-1.33,1.92,0.22,-0.51,-0.88
2022-01-30 16:32:07.5830,-0.012,-0.623,-1.233,1.96,-0.59,3.2,0.46,-0.45,-1.12
2022-01-30 16:32:07.5930,0.042,-0.698,-1.319,2.05,0.12,4.35,0.6,-0.55,-1.39
2022-01-30 16:32:07.6110,0.133,-0.78,-1.365,0.79,1.63,5.78,0.46,-0.83,-1.63
Time,0.24,-0.854,-1.41,-0.22,2.36,6.2,0.04,-1.32,-1.77
2022-01-30 16:32:07.6220,0.328,-0.928,-1.492,-1.1243470644950868,3.14,6.93,-0.55,-1.88,-1.76
2022-01-30 16:32:07.6320,0.367,-0.972,-1.575,-1.13,3.14,6.93,-1.14,-2.28,-1.63
2022-01-30 16:32:07.6430,0.364,-0.98,-1.651,-1.72,3.93,8.31,-1.58,-2.38,-1.42
2022-01-30 16:32:07.6540,0.344,-0.983,-1.703,-1.72,3.93,8.31,-1.71,-2.08,-1.15
2022-01-30 16:32:07.6630,0.329,-0.987,-1.687,-1.63,4.11,8.77,-1.55,-1.52,-0.85
2022-01-30 16:32:07.6730,0.306,-0.966,-1.66,-1.59,4.32,8.54,-1.23,-0.94,-0.55
2022-01-30 16:32:07.6830,0.268,-0.945,-1.636,-1.14,4.16,7.85,-0.86,-0.6,-0.24
2022-01-30 16:32:07.6930,0.226,-0.946,-1.602,-0.76,4.21,7.49,-0.51,-0.62,0.05
2022-01-30 16:32:07.7040,0.206,-0.957,-1.54,-0.76,4.21,7.49,-0.2,-0.97,0.27
2022-01-30 16:32:07.7140,0.197,-0.957,-1.444,-0.6,4.36,6.88,0.02,-1.5,0.4
2022-01-30 16:32:07.7240,0.185,-0.929,-1.317,-0.61,4.39,5.97,0.07,-2.05,0.45
2022-01-30 16:32:07.7330,0.168,-0.856,-1.184,-0.65,4.16,4.72,-0.13,-2.42,0.44
2022-01-30 16:32:07.7430,0.144,-0.751,-1.04,-0.6820366291701794,2.50032905459404,1.97,-0.13,-2.42,0.44
2022-01-30 16:32:07.7540,0.108,-0.647,-0.903,-0.69,2.5,1.97,-1.13,-2.28,0.4
2022-01-30 16:32:07.7640,0.082,-0.538,-0.798,-0.57,1.53,0.56,-1.76,-1.93,0.38
2022-01-30 16:32:07.7730,0.066,-0.439,-0.738,-0.53,-0.27,-1.32,-2.29,-1.55,0.34
2022-01-30 16:32:07.7840,0.056,-0.352,-0.702,-0.57,-0.93,-1.82,-2.62,-1.28,0.26
2022-01-30 16:32:07.7940,0.037,-0.283,-0.719,-0.54,-1.42,-1.86,-2.65,-1.23,0.11
2022-01-30 16:32:07.8040,-0.027,-0.262,-0.795,-0.54,-1.42,-1.86,-2.25,-1.28,-0.13
2022-01-30 16:32:07.8140,-0.082,-0.261,-0.787,-0.07,-1.45,-1.24,-1.46,-1.25,-0.45
2022-01-30 16:32:07.8240,-0.069,-0.258,-0.695,0.42,-1.26,-1.23,-0.52,-1.16,-0.79
2022-01-30 16:32:07.8330,-0.015,-0.269,-0.611,-0.3,-1.06,-3.0,0.2,-1.12,-1.07
2022-01-30 16:32:07.8440,0.038,-0.322,-0.526,-0.3,-1.06,-3.0,0.2,-1.12,-1.07
2022-01-30 16:32:07.8550,0.08,-0.376,-0.411,-0.9,-0.62,-3.79,0.55,-0.94,-1.37
2022-01-30 16:32:07.8640,0.117,-0.371,-0.309,-1.37,-0.09,-4.89,0.4,-0.72,-1.5
2022-01-30 16:32:07.8740,0.145,-0.349,-0.203,-2.06,-0.41,-6.9,0.22,-0.43,-1.63
2022-01-30 16:32:07.8850,0.169,-0.351,-0.136,-2.06,-0.41,-6.9,0.07,-0.15,-1.75
2022-01-30 16:32:07.8940,0.2,-0.372,-0.112,-2.27,-0.45,-7.6,-0.06,0.02,-1.85
2022-01-30 16:32:07.9040,0.235,-0.395,-0.144,-2.5,-0.27,-7.89,-0.13,0.03,-1.95
2022-01-30 16:32:07.9140,0.257,-0.43,-0.188,-2.77,-0.05,-7.65,-0.13,-0.06477180868387222,-2.0
2022-01-30 16:32:07.9240,0.27,-0.46,-0.234,-3.0,0.59,-6.78,0.01,-0.26,-2.02
2022-01-30 16:32:07.9340,0.285,-0.481,-0.292,-3.08,0.8,-6.22,0.19,-0.52,-1.98
2022-01-30 16:32:07.9440,0.304,-0.512,-0.352,-3.08,0.8,-6.22,0.4,-0.8,-1.9
2022-01-30 16:32:07.9540,0.327,-0.549,-0.395,-3.24,1.06,-5.61,0.62,-1.0,-1.75
2022-01-30 16:32:07.9640,0.363,-0.565,-0.42,-3.45,1.38,-5.14,0.84,-1.04,-1.56
2022-01-30 16:32:07.9740,0.384,-0.546,-0.458,-3.82,1.53,-4.86,1.02,-0.98,-1.36
2022-01-30 16:32:07.9840,0.407,-0.532,-0.532,-4.08,1.28,-4.49,1.2,-0.81,-1.11
2022-01-30 16:32:07.9940,0.439,-0.555,-0.621,-4.32,1.02,-3.75,1.37,-0.6,-0.81
2022-01-30 16:32:08.0140,0.45,-0.58,-0.77,-4.82,1.24,-1.43,1.53,-0.48,-0.5
2022-01-30 16:32:08.0160,0.439,-0.588,-1.0,-4.82,1.24,-1.43,1.69,-0.44,-0.23
2022-01-30 16:32:08.0240,0.418,-0.611,-1.213,-4.59,1.24,3.05,1.93,-0.39,0.06
2022-01-30 16:32:08.0340,0.362,-0.624,-1.462,-4.14,1.25,5.51,2.22,-0.32,0.33
2022-01-30 16:32:08.0440,0.299,-0.59,-1.668,-3.52,0.77,7.78,2.42,-0.08,0.57
2022-01-30 16:32:08.0540,0.289,-0.566,-1.835,-3.52,0.77,7.78,2.34,0.17,0.77
2022-01-30 16:32:08.0640,0.279,-0.591,-1.973,-3.41,0.28,9.51,2.34,0.17,0.77
2022-01-30 16:32:08.0760,0.252,-0.618,-1.997,-3.35,0.15,11.22,1.53,1.08,0.87
2022-01-30 16:32:08.0840,0.21,-0.612,-2.072,-3.06,0.33,11.59,1.04,1.48,0.67
2022-01-30 16:32:08.0940,0.156,-0.597,-2.127,-2.59,0.24,12.3,0.64,1.8,0.41
2022-01-30 16:32:08.1040,0.11,-0.576,-2.14,-1.94,0.04,12.95,0.29,2.04,0.24
2022-01-30 16:32:08.1150,0.065,-0.541,-2.115,-1.33,-0.16,13.11,-0.01,2.19,0.21
2022-01-30 16:32:08.1240,0.032,-0.512,-2.054,-0.73,-0.49,12.92,-0.26,2.16,0.34
2022-01-30 16:32:08.1350,0.009,-0.52,-1.986,-0.24,-0.78,12.33,-0.43,1.89,0.63
2022-01-30 16:32:08.1440,-0.03,-0.551,-1.908,0.09,-0.71,11.65,-0.52,1.38,1.08
2022-01-30 16:32:08.1540,-0.096,-0.581,-1.812,0.48,-0.39,10.87,-0.44,0.72,1.61
2022-01-30 16:32:08.1650,-0.166,-0.601,-1.663,1.05,-0.05,9.94,-0.23,0.06,2.1
2022-01-30 16:32:08.1750,-0.209,-0.584,-1.482,1.63,0.18,8.54,0.01,-0.59,2.5
2022-01-30 16:32:08.1850,-0.247,-0.538,-1.302,1.89,0.06,6.78,0.19,-1.22,2.8
2022-01-30 16:32:08.1940,-0.305,-0.475,-1.125,1.98,-0.37,5.03,0.31,-1.79,2.97
2022-01-30 16:32:08.2050,-0.362,-0.406,-0.957,2.22,-0.98,3.3,0.45,-2.26,2.97
2022-01-30 16:32:08.2140,-0.386,-0.337,-0.801,2.44,-1.66,1.68,0.64,-2.64,2.83
2022-01-30 16:32:08.2250,-0.378,-0.269,-0.664,2.35,-2.36,0.22,0.88,-2.96,2.59
2022-01-30 16:32:08.2350,-0.336,-0.205,-0.568,1.93,-3.05,-1.07,1.13,-3.23,2.26
2022-01-30 16:32:08.2450,-0.27,-0.168,-0.48,1.18,-3.74,-1.92,1.38,-3.35,1.87
2022-01-30 16:32:08.2550,-0.204,-0.136,-0.373,0.18,-4.2,-2.61,1.57,-3.19,1.47
2022-01-30 16:32:08.2650,-0.144,-0.112,-0.247,-0.78,-4.59,-3.45,1.7,-2.7,1.05
2022-01-30 16:32:08.2750,-0.111,-0.087,-0.119,-1.63,-4.92,-4.49,1.71,-1.92,0.63
2022-01-30 16:32:08.2850,-0.109,-0.048,-0.012,-2.16,-5.26,-5.6,1.62,-0.96,0.25
2022-01-30 16:32:08.2950,-0.122,-0.009,0.072,-2.28,-5.73,-6.56,1.46,0.06,-0.08
2022-01-30 16:32:08.3050,-0.129,0.018,0.137,-2.13,-6.22,-7.33,1.26,1.05,-0.35
2022-01-30 16:32:08.3150,-0.123,0.027,0.186,-1.96,-6.6,-7.95,1.07,1.95,-0.53
2022-01-30 16:32:08.3250,-0.107,0.016,0.215,-1.83,-6.79,-8.44,0.89,2.68,-0.63
2022-01-30 16:32:08.3350,-0.087,-0.006,0.206,-1.75,-6.79,-8.78,0.74,3.17,-0.67
2022-01-30 16:32:08.3450,-0.064,-0.034,0.158,-1.68,-6.64,-8.78,0.59,3.39,-0.68
2022-01-30 16:32:08.3550,-0.039,-0.058,0.081,-1.62,-6.43,-8.4,0.47,3.38,-0.69
2022-01-30 16:32:08.3650,-0.037,-0.085,-0.007,-1.61,-6.23,-7.71,0.36,3.18,-0.68
2022-01-30 16:32:08.3750,-0.05,-0.111,-0.095,-1.4,-6.01,-6.89,0.27,2.89,-0.68
2022-01-30 16:32:08.3850,-0.055,-0.139,-0.173,-1.03,-5.78,-6.05,0.17,2.59,-0.7
2022-01-30 16:32:08.3950,-0.05,-0.174,-0.274,-0.74,-5.53,-5.31,0.08,2.38,-0.76
2022-01-30 16:32:08.4050,-0.055,-0.233,-0.362,-0.57,-5.22,-4.38,0.05,2.41,-0.84
2022-01-30 16:32:08.4150,-0.069,-0.309,-0.421,-0.32,-4.68,-3.48,0.08,2.59,-0.92
2022-01-30 16:32:08.4250,-0.066,-0.367,-0.544,0.08,-3.94,-2.94,0.11,2.67,-0.99
2022-01-30 16:32:08.4350,-0.034,-0.446,-0.723,0.32,-3.36,-1.82,0.14,2.52,-0.96
2022-01-30 16:32:08.4450,0.031,-0.589,-0.918,0.29,-2.67,-0.12,0.22,2.15,-0.78
2022-01-30 16:32:08.4550,0.1,-0.769,-1.112,-0.12,-1.36,1.81,0.39,1.64,-0.4
2022-01-30 16:32:08.4650,0.143,-0.955,-1.283,-0.68,0.36,3.76,0.63,1.15,0.05
2022-01-30 16:32:08.4750,0.133,-1.077,-1.406,-1.07,2.16,5.51,0.85,0.93,0.42
2022-01-30 16:32:08.4850,0.053,-1.13,-1.433,-1.03,3.41,6.89,0.97,1.03,0.63
2022-01-30 16:32:08.4950,-0.039,-1.162,-1.408,-0.28,3.91,7.32,0.93,1.29,0.67
2022-01-30 16:32:08.5060,-0.092,-1.175,-1.366,0.69,4.18,7.19,0.7,1.58,0.5
2022-01-30 16:32:08.5160,-0.116,-1.183,-1.301,1.33,4.29,6.84,0.27,1.75,0.2
2022-01-30 16:32:08.5260,-0.122,-1.196,-1.256,1.7,4.34,6.24,-0.35,1.71,-0.18
2022-01-30 16:32:08.5360,-0.117,-1.201,-1.241,1.9,4.51,5.73,-1.17,1.49,-0.59
2022-01-30 16:32:08.5460,-0.082,-1.223,-1.244,2.01,4.66,5.48,-2.07,1.23,-0.97
2022-01-30 16:32:08.5560,-0.037,-1.264,-1.239,1.86,4.98,5.35,-2.82,1.09,-1.26
2022-01-30 16:32:08.5660,-0.039,-1.221,-1.227,1.57,5.63,5.13,-3.28,1.14,-1.46
2022-01-30 16:32:08.5760,-0.067,-1.103,-1.197,1.71,5.6,4.82,-3.44,1.31,-1.55
2022-01-30 16:32:08.5850,-0.096,-0.968,-1.143,2.16,4.77,4.35,-3.42,1.47,-1.51
2022-01-30 16:32:08.5960,-0.106,-0.836,-1.06,2.66,3.73,3.67,-3.31,1.53,-1.32
2022-01-30 16:32:08.6060,-0.106,-0.732,-0.964,2.97,2.7,2.72,-3.17,1.41,-1.0
2022-01-30 16:32:08.6160,-0.109,-0.658,-0.883,3.14,1.91,1.63,-3.02,1.02,-0.57
2022-01-30 16:32:08.6260,-0.132,-0.584,-0.832,3.25,1.41,0.67,-2.84,0.43,-0.13
2022-01-30 16:32:08.6360,-0.169,-0.512,-0.79,3.48,0.92,0.01,-2.56,-0.26,0.24
2022-01-30 16:32:08.6510,-0.2,-0.451,-0.755,4.12,-0.2,-0.9,-2.19,-0.97,0.49
2022-01-30 16:32:08.6610,-0.215,-0.391,-0.724,3.98,-1.09,-1.95,-1.79,-1.56,0.59
2022-01-30 16:32:08.6700,-0.21,-0.33,-0.668,3.98,-1.09,-1.95,-1.41,-1.98,0.6
2022-01-30 16:32:08.6810,-0.193,-0.293,-0.607,3.16,-1.37,-3.29,-1.11,-2.24,0.6
2022-01-30 16:32:08.6900,-0.168,-0.287,-0.549,2.67,-1.31,-3.96,-0.89,-2.34,0.62
2022-01-30 16:32:08.7010,-0.14,-0.286,-0.488,2.67,-1.31,-3.96,-0.71,-2.26,0.7
2022-01-30 16:32:08.7110,-0.111,-0.277,-0.427,2.16,-1.33,-4.61,-0.56,-2.02,0.83
2022-01-30 16:32:08.7210,-0.091,-0.274,-0.364,1.73,-1.34,-5.27,-0.56,-2.02,0.83
2022-01-30 16:32:08.7300,-0.078,-0.276,-0.313,1.42,-1.29,-5.81,-0.19,-1.3,1.23
2022-01-30 16:32:08.7410,-0.066,-0.276,-0.26,1.13,-1.28,-6.34,-0.02,-0.97,1.43
2022-01-30 16:32:08.7510,-0.062,-0.272,-0.214,0.94,-1.32,-6.82,0.12,-0.74,1.57
2022-01-30 16:32:08.7600,-0.063,-0.261,-0.193,0.68,-1.56,-7.1,0.19,-0.65,1.62
2022-01-30 16:32:08.7710,-0.062,-0.25,-0.188,0.68,-1.56,-7.1,0.22,-0.68,1.56
2022-01-30 16:32:08.7800,-0.073,-0.25,-0.213,0.64,-1.6,-6.91,0.25,-0.84,1.39
2022-01-30 16:32:08.7910,-0.092,-0.257,-0.244,0.7,-1.55,-6.55,0.33,-1.01,1.11
2022-01-30 16:32:08.8000,-0.088,-0.256,-0.24,0.56,-1.57,-6.56,0.42,-1.16,0.74
2022-01-30 16:32:08.8110,-0.075,-0.252,-0.248,0.3,-1.66,-6.49,0.47,-1.28,0.36
2022-01-30 16:32:08.8210,-0.062,-0.263,-0.277,0.05,-1.6,-6.2,0.47,-1.28,0.36
2022-01-30 16:32:08.8310,-0.047,-0.265,-0.337,-0.23,-1.6,-5.61,0.44,-1.41,-0.27
2022-01-30 16:32:08.8410,-0.039,-0.258,-0.392,-0.43,-1.7,-5.03,0.38,-1.28,-0.54
2022-01-30 16:32:08.8510,-0.04,-0.236,-0.473,-0.53,-1.93,-4.28,0.38,-1.28,-0.54
2022-01-30 16:32:08.8610,-0.068,-0.207,-0.599,-0.33,-2.25,-3.05,0.32,-0.75,-0.96
2022-01-30 16:32:08.8710,-0.092,-0.19,-0.766,-0.1,-2.48,-1.45,0.36,-0.42,-1.07
2022-01-30 16:32:08.8810,-0.105,-0.203,-0.936,0.06,-2.44,0.26,0.52,-0.05,-1.08
2022-01-30 16:32:08.8910,-0.106,-0.254,-1.118,0.13,-2.03,2.02,0.77,0.26,-1.03
2022-01-30 16:32:08.9020,-0.082,-0.306,-1.313,-0.52,-1.27,6.42,0.96,0.43,-0.98
2022-01-30 16:32:08.9120,-0.016,-0.349,-1.571,-0.52,-1.27,6.42,0.94,0.37,-1.0
2022-01-30 16:32:08.9210,0.015,-0.44,-1.83,-0.84,-0.52,9.1,0.79,0.32,-1.1
2022-01-30 16:32:08.9320,-0.017,-0.529,-1.947,-0.49,0.34,10.48,0.56,0.55,-1.28
2022-01-30 16:32:08.9420,-0.025,-0.582,-2.0,-0.22,0.82,10.99,0.36,0.82,-1.49
2022-01-30 16:32:08.9540,0.018,-0.613,-2.094,-0.87,1.18,11.97,0.21,1.0,-1.71
2022-01-30 16:32:08.9640,0.08,-0.62,-2.08,-1.37,1.63,10.95,-0.01,1.22,-1.92
2022-01-30 16:32:08.9750,0.152,-0.673,-1.969,-1.37,1.63,10.95,-0.36,1.46,-2.09
2022-01-30 16:32:08.9820,0.227,-0.756,-1.853,-1.88,2.49,9.76,-0.84,1.53,-2.25
2022-01-30 16:32:09.0010,0.32,-0.796,-1.808,-3.17,3.2,8.96,-1.37,1.3,-2.49
2022-01-30 16:32:09.0030,0.404,-0.795,-1.789,-3.52,3.41,8.3,-1.86,0.89,-2.76
2022-01-30 16:32:09.0110,0.458,-0.799,-1.725,-3.52,3.41,8.3,-2.23,0.4,-2.94
2022-01-30 16:32:09.0200,0.501,-0.821,-1.672,-3.8,3.84,7.64,-2.49,-0.22,-2.93
2022-01-30 16:32:09.0300,0.523,-0.834,-1.629,-3.96,4.26,7.12,-2.62,-0.96,-2.69
2022-01-30 16:32:09.0400,0.518,-0.818,-1.566,-3.93,4.39,6.41,-2.62,-1.76,-2.26
Time,0.503,-0.8,-1.482,-4.01,4.57,4.44,-2.46,-2.54,-1.68
2022-01-30 16:32:09.0600,0.499,-0.785,-1.381,-4.32,4.46,3.06,-2.46,-2.54,-1.68
2022-01-30 16:32:09.0720,0.502,-0.751,-1.248,-4.32,4.46,3.06,-1.71,-3.67,-0.18
2022-01-30 16:32:09.0800,0.49,-0.701,-1.12,-4.66,3.68,0.2,-1.71,-3.67,-0.18
2022-01-30 16:32:09.0910,0.457,-0.641,-0.962,-4.66,3.68,0.2,-0.61,-3.93,1.34
2022-01-30 16:32:09.1010,0.411,-0.563,-0.799,-4.6,2.24,-2.84,-0.07,-3.65,1.94
2022-01-30 16:32:09.1110,0.37,-0.486,-0.653,-4.6,2.24,-2.84,0.36,-3.16,2.41
2022-01-30 16:32:09.1200,0.331,-0.428,-0.521,-4.59,1.64,-4.12,0.66,-2.55,2.76
2022-01-30 16:32:09.1300,0.289,-0.381,-0.416,-4.48,1.15,-5.12,0.66,-2.55,2.76
2022-01-30 16:32:09.1400,0.245,-0.344,-0.313,-4.29,0.75,-6.07,0.95,-1.09,3.16
