time,gFx,gFy,gFz,ax,ay,az,wx,wy,wz
2022-01-30 16:34:02.3630,-0.089,-0.42,-0.763,0.41,-0.36,-0.94,0.92,-2.47,-0.23
2022-01-30 16:34:09.8340,-0.061,-0.373,-0.529,0.41,-0.36,-0.94,0.82,-2.28,-0.4
2022-01-30 16:34:09.8390,-0.028,-0.28,-0.419,-0.5470181339979172,-1.78,-4.39,0.52,-1.91,-0.54
2022-01-30 16:34:09.8500,-0.035,-0.188,-0.312,-0.64,-2.79,-5.33,0.15,-1.28,-0.6
2022-01-30 16:34:09.8590,-0.03,-0.156,-0.177,-0.64,-2.79,-5.33,-0.19,-0.38,-0.59
2022-01-30 16:34:09.8690,0.004,-0.157,-0.079,-1.03,-3.18,-7.69,-0.5,0.66,-0.5
2022-01-30 16:34:09.8790,0.041,-0.169,-0.045,-1.3,-3.03,-8.14,-0.5,0.66,-0.5
2022-01-30 16:34:09.8900,0.087,-0.183,-0.068,-1.56,-2.83,-8.03,-0.79,2.53,-0.16
2022-01-30 16:34:09.8990,0.132,-0.201,-0.149,-1.81,-2.57,-7.37,-0.7,2.92,-0.03
2022-01-30 16:34:09.9100,0.164,-0.128,-0.356,-1.81,-2.57,-7.37,-0.57,2.52,0.01
2022-01-30 16:34:09.9190,0.219,0.0,-0.646,-1.83,-4.333769715428352,-2.6530209052562714,-0.39,1.61,0.08
2022-01-30 16:34:09.9300,0.171,-0.032,-0.611,-2.21,-4.34,-2.66,-0.12,0.81,0.26
2022-01-30 16:34:09.9390,0.111,-0.099,-0.52,-1.03,-3.45,-3.62,0.16,0.12,0.45
2022-01-30 16:34:09.9510,0.099,-0.074,-0.443,-1.03,-3.45,-3.62,0.43,-0.39,0.58
2022-01-30 16:34:09.9600,0.03,-0.015,-0.396,-0.93,-3.61,-4.32,0.69,-0.86,0.67
2022-01-30 16:34:09.9700,-0.036,0.016,-0.375,0.2,-4.63,-5.01,0.69,-0.86,0.67
2022-01-30 16:34:09.9800,-0.075,0.039,-0.332,0.46,-4.95,-5.36,1.13,-1.54,0.72
2022-01-30 16:34:09.9900,-0.091,0.042,-0.286,0.48,-5.1,-5.76,1.34,-1.66,0.7
2022-01-30 16:34:10.0000,-0.087,0.026,-0.245,0.28,-5.07,-6.09,1.54,-1.56,0.65
2022-01-30 16:34:10.0110,-0.075,-0.003,-0.195,0.28,-5.07,-6.09,1.74,-1.2,0.57
2022-01-30 16:34:10.0200,-0.066,-0.037,-0.143,-0.2,-4.75,-6.89,1.74,-1.2,0.57
2022-01-30 16:34:10.0300,-0.003,-0.078,-0.039,-0.7396829395741225,-4.51,-7.69,1.92,1.02,0.04
2022-01-30 16:34:10.0410,0.088,-0.11,0.034,-1.65,-4.34,-8.58,1.97,2.35,-0.43
2022-01-30 16:34:10.0510,0.021,-0.183,-0.143,-1.65,-4.34,-8.58,2.15,3.45,-0.77
2022-01-30 16:34:10.0610,-0.03,-0.304,-0.348,-0.9,-3.87,-6.94,2.44,4.49,-0.98
2022-01-30 16:34:10.0710,0.001,-0.469,-0.609,0.02,-2.91,-4.82,2.84,5.22,-1.09
2022-01-30 16:34:10.0810,0.072,-0.687,-1.259,0.23,-1.54,-2.25,2.72,3.33,-1.13
2022-01-30 16:34:10.0910,0.205,-0.929,-3.001,0.02,0.32,3.37,1.38,-0.32,-1.08
2022-01-30 16:34:10.1010,0.345,-1.206,-2.021,-2.36,5.19,15.39,0.92,0.52,-1.03
2022-01-30 16:34:10.1110,0.288,-1.073,-0.546,-2.36,5.19,15.39,0.25,2.09,-1.22
2022-01-30 16:34:10.1210,0.211,-0.823,-0.906,-1.88,4.47,-1.57,-0.84,2.83,-1.23
2022-01-30 16:34:10.1310,0.219,-0.873,-1.059,-0.51,2.03,3.15,-1.84,3.29,-1.0
2022-01-30 16:34:10.1410,0.266,-1.062,-0.989,-0.51,2.03,3.15,-2.7,3.44,-0.65
2022-01-30 16:34:10.1510,0.361,-1.187,-1.091,-0.62,4.0,2.33,-3.4,3.12,-0.3
2022-01-30 16:34:10.1610,0.418,-1.217,-1.23,-1.21,5.58,3.05,-3.83,2.37,0.01
2022-01-30 16:34:10.1710,0.345,-1.205,-1.387,-1.66,6.22,4.29,-3.96,1.4,0.22
2022-01-30 16:34:10.1810,0.261,-1.16,-1.492,-0.89,6.46,5.66,-3.85,0.52,0.3
2022-01-30 16:34:10.1910,0.18,-1.135,-1.547,0.06,6.33,6.61,-3.6,-0.08,0.29
2022-01-30 16:34:10.2010,0.044,-1.078,-1.601,0.83,6.36,6.99,-3.18,-0.6,0.23
2022-01-30 16:34:10.2120,-0.1,-0.951,-1.625,2.07,6.16,7.36,-2.66,-0.95,0.04
2022-01-30 16:34:10.2210,-0.173,-0.809,-1.569,4.19,4.06,6.94,-2.06,-1.07,-0.2
2022-01-30 16:34:10.2320,-0.207,-0.689,-1.428,4.48,3.04,5.54,-1.45,-1.02,-0.39
2022-01-30 16:34:10.2410,-0.19,-0.574,-1.26,4.31,2.04,3.8,-0.95,-0.92,-0.52
2022-01-30 16:34:10.2520,-0.137,-0.481,-1.12,3.75,1.19,2.35,-0.6,-0.8,-0.59
2022-01-30 16:34:10.2790,-0.081,-0.409,-0.971,2.61,-0.13,-0.74,-0.39,-0.63,-0.6
2022-01-30 16:34:10.2740,-0.031,-0.337,-0.81,2.61,-0.13,-0.74,-0.27,-0.43,-0.57
2022-01-30 16:34:10.2830,0.002,-0.261,-0.664,2.25,-0.83,-2.22,-0.19,-0.24,-0.52
2022-01-30 16:34:10.2900,0.032,-0.19,-0.548,2.25,-0.83,-2.22,-0.12,-0.12,-0.45
2022-01-30 16:34:10.2990,0.06,-0.133,-0.478,1.96,-1.51,-3.41,-0.04,-0.11,-0.39
2022-01-30 16:34:10.3090,0.083,-0.095,-0.43,1.68,-2.07,-4.16,-0.04,-0.11,-0.39
2022-01-30 16:34:10.3290,0.108,-0.073,-0.381,1.45,-2.45,-4.64,0.15,-0.32,-0.25
2022-01-30 16:34:10.3300,0.127,-0.059,-0.335,0.99,-2.83,-5.58,0.28,-0.46,-0.17
2022-01-30 16:34:10.3410,0.139,-0.047,-0.294,0.83,-2.97,-6.0,0.4,-0.59,-0.08
2022-01-30 16:34:10.3510,0.145,-0.039,-0.256,0.83,-2.97,-6.0,0.5,-0.69,0.03
2022-01-30 16:34:10.3610,0.146,-0.029,-0.226,0.7,-3.09,-6.37,0.59,-0.77,0.16
2022-01-30 16:34:10.3710,0.139,-0.008,-0.205,0.6136576813459397,-3.4692197048664095,-6.881689258217812,0.64,-0.79,0.3
2022-01-30 16:34:10.3810,0.129,0.014,-0.19,0.61,-3.47,-6.89,0.66,-0.74,0.46
2022-01-30 16:34:10.3910,0.124,0.022,-0.175,0.63,-3.77,-7.03,0.65,-0.64,0.64
2022-01-30 16:34:10.4010,0.12,0.018,-0.169,0.55,-3.96,-7.23,0.62,-0.53,0.8
2022-01-30 16:34:10.4120,0.118,0.015,-0.185,0.55,-3.96,-7.23,0.59,-0.44,0.92
2022-01-30 16:34:10.4220,0.12,0.004,-0.205,0.5,-4.0,-7.09,0.57,-0.36,1.02
2022-01-30 16:34:10.4330,0.125,-0.016,-0.229,0.41,-3.97,-6.88,0.54,-0.31,1.07
2022-01-30 16:34:10.4410,0.13,-0.036,-0.283,0.3,-3.85,-6.64,0.49,-0.34,1.08
2022-01-30 16:34:10.4520,0.118,-0.051,-0.369,0.16,-3.71,-6.14,0.49,-0.34,1.08
2022-01-30 16:34:10.4620,0.112,-0.053,-0.452,0.19,-3.61,-5.3,0.3,-0.26,1.06
2022-01-30 16:34:10.4720,0.094,-0.081,-0.549,0.27,-3.43,-3.6,0.18,-0.24,1.12
2022-01-30 16:34:10.4820,0.075,-0.098,-0.756,0.27,-3.43,-3.6,0.12,-0.18,1.16
2022-01-30 16:34:10.4920,0.07,-0.1,-0.906,0.4,-3.25,-1.62,0.24,0.11,1.13
2022-01-30 16:34:10.5020,0.125,-0.163,-1.026,-0.05,-2.79,1.14,0.5,0.63,1.02
2022-01-30 16:34:10.5130,0.248,-0.311,-1.183,-0.05,-2.79,1.14,0.7,1.14,0.89
2022-01-30 16:34:10.5220,0.359,-0.517,-1.372,-2.27,0.43,4.54,0.71,1.63,0.7
2022-01-30 16:34:10.5330,0.416,-0.666,-1.564,-2.27,0.43,4.54,0.71,1.63,0.7
2022-01-30 16:34:10.5420,0.451,-0.773,-1.775,-2.77,1.94,6.42,0.32,2.05,-0.04
2022-01-30 16:34:10.5530,0.523,-0.924,-1.925,-3.43,4.37,10.13,0.21,1.88,-0.42
2022-01-30 16:34:10.5620,0.618,-0.997,-2.084,-4.18,5.22,11.74,0.17,1.32,-0.75
2022-01-30 16:34:10.5740,0.693,-0.97,-2.188,-4.18,5.22,11.74,0.17,1.32,-0.75
2022-01-30 16:34:10.5840,0.737,-0.932,-2.212,-5.2,4.65,13.24,0.1,0.58,-0.96
2022-01-30 16:34:10.5950,0.753,-0.92,-2.157,-5.2,4.65,13.24,-0.25,-0.39,-1.0
2022-01-30 16:34:10.6030,0.753,-0.905,-2.104,-5.35,4.45,12.19,-0.25,-0.39,-1.0
2022-01-30 16:34:10.6220,0.746,-0.88,-2.033,-5.29,4.28,11.51,-0.76,-0.64,-1.11
2022-01-30 16:34:10.6220,0.745,-0.86,-1.931,-5.28,4.15,10.48,-1.1,-0.61,-1.1
2022-01-30 16:34:10.6320,0.752,-0.871,-1.843,-5.34,4.36,9.51,-1.48,-0.67,-0.96
2022-01-30 16:34:10.6420,0.739,-0.861,-1.807,-5.34,4.36,9.51,-1.78,-0.97,-0.7
2022-01-30 16:34:10.6530,0.686,-0.8,-1.784,-4.88,4.11,8.72,-1.78,-0.97,-0.7
2022-01-30 16:34:10.6630,0.598,-0.694,-1.723,-4.88,4.11,8.72,-1.66,-1.87,-0.05
2022-01-30 16:34:10.6730,0.481,-0.565,-1.596,-3.2179584163427353,2.17,6.84,-1.3,-2.17,0.23
2022-01-30 16:34:10.6840,0.368,-0.452,-1.407,-3.22,2.17,6.84,-0.93,-2.26,0.48
2022-01-30 16:34:10.6930,0.274,-0.375,-1.186,-1.57,0.42,2.76,-0.61,-2.15,0.69
2022-01-30 16:34:10.7030,0.204,-0.32,-0.976,-1.08,-0.1,0.63,-0.61,-2.15,0.69
2022-01-30 16:34:10.7130,0.152,-0.293,-0.783,-0.74,-0.37,-1.31,-0.13,-1.44,0.95
2022-01-30 16:34:10.7230,0.107,-0.282,-0.616,-0.46,-0.49,-3.0,0.05,-0.98,1.04
2022-01-30 16:34:10.7340,0.07,-0.272,-0.473,-0.46,-0.49,-3.0,0.21,-0.54,1.12
2022-01-30 16:34:10.7430,0.049,-0.273,-0.356,-0.2,-0.6,-4.43,0.37,-0.17,1.17
2022-01-30 16:34:10.7530,0.045,-0.287,-0.263,-0.05,-0.55,-6.54,0.52,0.1,1.16
2022-01-30 16:34:10.7630,0.047,-0.299,-0.192,-0.05,-0.55,-6.54,0.68,0.29,1.13
2022-01-30 16:34:10.7730,0.048,-0.307,-0.131,-0.1,-0.47,-7.24,0.84,0.41,1.09
2022-01-30 16:34:10.7840,0.043,-0.306,-0.087,-0.08,-0.53,-8.25,0.99,0.46,1.03
2022-01-30 16:34:10.7940,0.038,-0.303,-0.052,-0.08,-0.53,-8.25,1.15,0.47,0.95
2022-01-30 16:34:10.8030,0.04,-0.294,-0.032,-0.02,-0.86,-8.74,1.34,0.46,0.85
2022-01-30 16:34:10.8130,0.041,-0.281,-0.011,-0.02,-0.86,-8.74,1.5,0.44,0.77
2022-01-30 16:34:10.8230,0.038,-0.255,-0.004,0.03,-1.47,-8.92,1.62,0.38,0.68
2022-01-30 16:34:10.8350,0.056,-0.223,-0.025,0.03,-1.47,-8.92,1.68,0.25,0.62
2022-01-30 16:34:10.8430,0.024,-0.206,-0.071,-0.17,-1.95,-8.68,1.66,0.08,0.55
2022-01-30 16:34:10.8530,0.012,-0.155,-0.089,0.24,-2.86,-7.87,1.57,-0.05,0.42
2022-01-30 16:34:10.8630,0.007,-0.118,-0.091,0.24,-2.86,-7.87,1.39,-0.12,0.26
2022-01-30 16:34:10.8740,-0.016,-0.118,-0.106,0.43,-3.56,-7.6,1.16,-0.1,0.11
2022-01-30 16:34:10.8850,-0.056,-0.121,-0.138,0.43,-3.56,-7.6,0.91,0.0,-0.03
2022-01-30 16:34:10.8940,-0.096,-0.107,-0.18,0.8,-3.61,-7.25,0.66,0.11,-0.2
2022-01-30 16:34:10.9030,-0.125,-0.083,-0.287,1.52,-4.08,-5.84,0.66,0.11,-0.2
2022-01-30 16:34:10.9140,-0.143,-0.061,-0.411,1.75,-4.35,-4.56,0.25,0.23,-0.68
2022-01-30 16:34:10.9240,-0.145,-0.066,-0.498,1.84,-4.36,-3.68,0.19,0.44,-0.92
2022-01-30 16:34:10.9340,-0.143,-0.109,-0.619,1.84,-4.36,-3.68,0.25,0.67,-1.14
2022-01-30 16:34:10.9440,-0.156,-0.148,-0.805,1.91,-3.98,-2.56,0.46,0.96,-1.36
2022-01-30 16:34:10.9540,-0.151,-0.176,-0.974,2.29,-3.34,0.96,0.81,1.28,-1.61
2022-01-30 16:34:10.9640,-0.107,-0.252,-1.191,2.29,-3.34,0.96,1.2,1.39,-1.77
2022-01-30 16:34:10.9740,-0.05,-0.435,-1.468,2.09,-2.78,3.03,1.57,1.19,-1.77
2022-01-30 16:34:10.9840,0.018,-0.613,-1.698,1.73,-1.16,5.8,1.9,0.93,-1.69
2022-01-30 16:34:10.9940,0.081,-0.687,-1.82,0.8,1.29,9.71,2.18,0.78,-1.65
2022-01-30 16:34:11.0040,0.133,-0.729,-1.804,0.8,1.29,9.71,2.35,1.03,-1.59
2022-01-30 16:34:11.0140,0.192,-0.857,-1.664,0.44,1.5,9.9,2.32,1.52,-1.53
2022-01-30 16:34:11.0240,0.275,-0.968,-1.564,0.06,2.5,8.73,2.01,1.89,-1.49
2022-01-30 16:34:11.0340,0.33,-0.98,-1.487,-0.9,3.65,7.25,1.46,2.05,-1.42
2022-01-30 16:34:11.0440,0.356,-1.018,-1.365,-0.9215562701225282,3.83,6.26,0.84,2.16,-1.18
2022-01-30 16:34:11.0540,0.404,-1.138,-1.224,-0.93,3.83,6.26,0.26,2.07,-0.82
2022-01-30 16:34:11.0640,0.472,-1.225,-1.166,-1.13,4.95,4.94,-0.28,1.67,-0.41
2022-01-30 16:34:11.0740,0.52,-1.323,-1.135,-1.98,6.8,4.07,-0.28,1.67,-0.41
2022-01-30 16:34:11.0840,0.528,-1.447,-1.104,-1.98,6.8,4.07,-0.82,1.08,0.06
2022-01-30 16:34:11.0940,0.507,-1.549,-1.095,-2.04,8.09,3.73,-1.77,-0.41,0.85
2022-01-30 16:34:11.1040,0.48,-1.577,-1.103,-1.87,9.22,3.53,-2.08,-1.28,1.07
2022-01-30 16:34:11.1140,0.413,-1.495,-1.146,-1.3,9.18,3.67,-2.26,-2.15,1.19
2022-01-30 16:34:11.1240,0.282,-1.31,-1.187,-1.3,7.611047549843788,3.948383824825287,-2.28,-2.83,1.23
2022-01-30 16:34:11.1350,0.137,-1.073,-1.17,-0.31,7.61,3.94,-2.28,-2.83,1.23
2022-01-30 16:34:11.1440,0.033,-0.852,-1.108,0.84,5.46,3.65,-1.89,-3.38,1.1
2022-01-30 16:34:11.1540,-0.032,-0.686,-1.018,1.95,1.83,1.9,-1.59,-3.29,1.05
2022-01-30 16:34:11.1650,-0.069,-0.547,-0.899,1.95,1.83,1.9,-1.24,-3.01,1.04
2022-01-30 16:34:11.1750,-0.086,-0.42,-0.77,2.01,0.56,0.62,-0.85,-2.63,1.03
2022-01-30 16:34:11.1840,-0.087,-0.305,-0.638,1.66,-1.7,-2.09,-0.48,-2.21,1.01
2022-01-30 16:34:11.1950,-0.076,-0.212,-0.506,1.66,-1.7,-2.09,-0.18,-1.81,0.95
2022-01-30 16:34:11.2050,-0.045,-0.154,-0.391,0.85,-3.22,-4.6,0.01,-1.49,0.83
2022-01-30 16:34:11.2150,-0.009,-0.125,-0.296,0.33,-3.54,-5.56,0.11,-1.25,0.68
2022-01-30 16:34:11.2250,0.022,-0.104,-0.219,0.33,-3.54,-5.56,0.13,-1.08,0.47
2022-01-30 16:34:11.2350,0.044,-0.079,-0.158,-0.12,-3.75,-6.33,0.13,-1.08,0.47
2022-01-30 16:34:11.2450,0.058,-0.05,-0.107,-0.45,-4.0,-6.94,0.0,-0.9,0.06
2022-01-30 16:34:11.2550,0.065,-0.025,-0.066,-0.8450568553805352,-4.523771187365055,-7.86,-0.11,-0.83,-0.12
2022-01-30 16:34:11.2650,0.066,0.001,-0.038,-0.85,-4.53,-7.86,-0.23,-0.73,-0.28
2022-01-30 16:34:11.2750,0.065,0.032,-0.009,-0.93,-4.77,-8.16,-0.35,-0.6,-0.43
2022-01-30 16:34:11.2850,0.063,0.046,0.005,-0.97,-5.19,-8.61,-0.44,-0.43,-0.55
2022-01-30 16:34:11.2950,0.059,0.041,0.024,-0.97,-5.19,-8.61,-0.52,-0.25,-0.61
2022-01-30 16:34:11.3050,0.057,0.028,0.001,-0.96,-4.93940735578537,-8.697892327308654,-0.58,-0.17,-0.61
2022-01-30 16:34:11.3150,0.068,0.025,-0.05,-0.92,-4.94,-8.7,-0.58,-0.17,-0.61
2022-01-30 16:34:11.3250,0.071,0.018,-0.067,-1.01,-4.87,-8.042545167803764,-0.52,-0.15,-0.64
2022-01-30 16:34:11.3360,0.092,0.022,-0.084,-1.19,-4.73,-7.9,-0.44,-0.15,-0.7
2022-01-30 16:34:11.3450,0.109,0.016,-0.09,-1.35,-4.66,-7.85,-0.38,-0.11,-0.73
2022-01-30 16:34:11.3550,0.119,-0.015,-0.096,-1.43,-4.36,-7.81,-0.37,-0.0,-0.69
2022-01-30 16:34:11.3660,0.122,-0.077,-0.107,-1.43,-4.36,-7.81,-0.41,0.16,-0.54
2022-01-30 16:34:11.3750,0.107,-0.135,-0.173,-1.29,-3.11,-7.22,-0.54,0.2,-0.32
2022-01-30 16:34:11.3850,0.072,-0.165,-0.316,-0.93,-2.74,-5.9,-0.71,0.12,-0.1
2022-01-30 16:34:11.3950,0.04,-0.192,-0.477,-0.93,-2.74,-5.9,-0.88,-0.06,0.06
2022-01-30 16:34:11.4050,0.04,-0.236,-0.66,-0.59,-2.41,-4.37,-1.02,-0.29,0.09
2022-01-30 16:34:11.4150,0.052,-0.316,-0.856,-0.71,-1.11,-0.75,-1.08,-0.27,0.02
2022-01-30 16:34:11.4260,0.057,-0.417,-0.98,-0.71,-1.11,-0.75,-1.02,0.23,-0.09
2022-01-30 16:34:11.4360,0.044,-0.516,-1.177,-0.67,1.03,2.18,-0.86,0.87,-0.07
2022-01-30 16:34:11.4460,0.003,-0.641,-1.489,-0.67,1.03,2.18,-0.48,1.64,0.16
2022-01-30 16:34:11.4550,0.005,-0.775,-1.76,0.04,3.65,7.83,0.06,2.12,0.44
2022-01-30 16:34:11.4660,0.064,-0.922,-2.131,0.04,3.65,7.83,0.63,2.04,0.57
2022-01-30 16:34:11.4760,0.131,-1.106,-2.414,-0.32,5.05,11.4,1.12,1.56,0.49
2022-01-30 16:34:11.4880,0.164,-1.278,-2.574,-1.11,8.39,16.15,1.12,1.56,0.49
2022-01-30 16:34:11.4980,0.162,-1.395,-2.595,-1.04,9.49,16.61,1.64,0.36,-0.09
2022-01-30 16:34:11.5060,0.158,-1.403,-2.504,-1.04,9.49,16.61,1.63,0.05,-0.49
2022-01-30 16:34:11.5170,0.178,-1.374,-2.334,-0.95,9.56,15.89,1.63,0.05,-0.49
2022-01-30 16:34:11.5290,0.233,-1.377,-2.141,-1.54,9.01,12.52,1.0,0.07,-1.26
2022-01-30 16:34:11.5390,0.312,-1.387,-1.966,-2.23,9.03,10.84,0.46,0.22,-1.65
2022-01-30 16:34:11.5480,0.4,-1.387,-1.776,-2.23,9.03,10.84,-0.15,0.45,-2.02
2022-01-30 16:34:11.5560,0.479,-1.336,-1.598,-3.65,8.66,7.22,-0.87,0.74,-2.3
2022-01-30 16:34:11.5660,0.544,-1.264,-1.465,-3.65,8.66,7.22,-1.7,1.02,-2.44
2022-01-30 16:34:11.5760,0.604,-1.195,-1.387,-4.12,8.05,5.82,-2.51,1.24,-2.43
2022-01-30 16:34:11.5860,0.633,-1.097,-1.338,-4.66,6.94,4.33,-2.51,1.24,-2.43
2022-01-30 16:34:11.5960,0.617,-0.922,-1.322,-4.66,6.94,4.33,-3.26,1.12,-2.03
2022-01-30 16:34:11.6060,0.557,-0.693,-1.31,-4.35,5.65,4.04,-3.03,0.53,-1.67
2022-01-30 16:34:11.6160,0.479,-0.513,-1.28,-2.8,2.18,3.49,-2.52,-0.39,-1.16
2022-01-30 16:34:11.6260,0.392,-0.393,-1.206,-1.98,1.2,2.74,-1.84,-1.42,-0.54
2022-01-30 16:34:11.6370,0.317,-0.312,-1.092,-1.34,0.53,1.59,-1.08,-2.33,0.1
2022-01-30 16:34:11.6450,0.267,-0.263,-0.942,-1.34,0.53,1.59,-0.33,-2.92,0.68
2022-01-30 16:34:11.6550,0.226,-0.228,-0.775,-0.95,-0.22,-1.59,0.34,-3.11,1.15
2022-01-30 16:34:11.6650,0.178,-0.185,-0.619,-0.81,-0.68,-3.17,0.89,-2.97,1.5
2022-01-30 16:34:11.6750,0.13,-0.139,-0.488,-0.65,-1.25,-4.49,1.3,-2.53,1.71
2022-01-30 16:34:11.6850,0.094,-0.113,-0.379,-0.55,-1.67,-5.57,1.63,-1.95,1.81
2022-01-30 16:34:11.6950,0.072,-0.104,-0.316,-0.54,-1.93,-6.2,1.63,-1.95,1.81
2022-01-30 16:34:11.7050,0.068,-0.094,-0.281,-0.67,-2.2,-6.51,2.23,-0.95,1.77
2022-01-30 16:34:11.7150,0.076,-0.088,-0.256,-0.88,-2.48,-6.69,2.54,-0.71,1.66
2022-01-30 16:34:11.7250,0.097,-0.095,-0.237,-1.1821365585923196,-2.66,-6.78,2.82,-0.59,1.5
2022-01-30 16:34:11.7350,0.129,-0.11,-0.211,-1.19,-2.66,-6.78,2.82,-0.59,1.5
2022-01-30 16:34:11.7450,0.162,-0.122,-0.177,-1.6,-2.77,-6.93,3.25,-0.54,1.04
2022-01-30 16:34:11.7560,0.188,-0.119,-0.128,-2.39,-3.2,-7.45,3.34,-0.49,0.72
2022-01-30 16:34:11.7670,0.21,-0.11,-0.085,-2.39,-3.2,-7.45,3.3,-0.42,0.36
2022-01-30 16:34:11.7770,0.23,-0.116,-0.056,-2.927428104579449,-3.819028211832047,-7.87,3.15,-0.32,0.03
2022-01-30 16:34:11.7870,0.232,-0.134,-0.029,-3.01,-3.91,-7.98,2.92,-0.16,-0.23
2022-01-30 16:34:11.7970,0.214,-0.138,-0.011,-2.84,-4.09,-8.02,2.63,-0.0,-0.4
2022-01-30 16:34:11.8070,0.199,-0.114,-0.01,-2.66,-4.5,-7.9,2.31,0.17,-0.52
2022-01-30 16:34:11.8170,0.193,-0.085,-0.014,-2.66,-4.5,-7.9,1.98,0.35,-0.56
2022-01-30 16:34:11.8270,0.181,-0.077,-0.022,-2.38,-5.24,-7.56,1.64,0.53,-0.51
2022-01-30 16:34:11.8380,0.172,-0.087,-0.052,-2.38,-5.24,-7.56,1.29,0.67,-0.42
2022-01-30 16:34:11.8470,0.168,-0.09,-0.099,-2.21,-5.28,-7.21,0.93,0.87,-0.31
2022-01-30 16:34:11.8570,0.153,-0.089,-0.137,-2.09,-5.33,-6.67,0.58,1.21,-0.2
2022-01-30 16:34:11.8670,0.125,-0.094,-0.174,-1.51,-5.41,-5.86,0.25,1.68,-0.09
2022-01-30 16:34:11.8770,0.094,-0.109,-0.242,-1.51,-5.41,-5.86,-0.08,2.19,0.02
2022-01-30 16:34:11.8870,0.065,-0.159,-0.357,-0.62,-4.86,-4.18,-0.38,2.61,0.13
2022-01-30 16:34:11.8970,0.029,-0.259,-0.548,-0.62,-4.86,-4.18,-0.58,2.78,0.24
2022-01-30 16:34:11.9070,-0.027,-0.368,-0.808,-0.09,-3.89,-2.44,-0.62,2.71,0.33
2022-01-30 16:34:11.9180,-0.115,-0.467,-1.116,1.63,-1.73,2.96,-0.62,2.71,0.33
2022-01-30 16:34:11.9270,-0.214,-0.532,-1.419,2.77,-1.01,6.01,0.04,2.2,0.09
2022-01-30 16:34:11.9370,-0.28,-0.583,-1.616,2.77,-1.01,6.01,0.7,2.02,-0.3
2022-01-30 16:34:11.9470,-0.298,-0.685,-1.78,3.65,-0.54,8.07,1.21,1.92,-0.71
2022-01-30 16:34:11.9570,-0.285,-0.849,-1.817,4.04,0.32,9.81,1.39,2.01,-1.0
2022-01-30 16:34:11.9670,-0.253,-0.969,-1.773,4.06,3.01,10.17,1.26,2.13,-1.17
2022-01-30 16:34:11.9770,-0.201,-0.992,-1.713,4.06,3.01,10.17,0.98,2.16,-1.26
2022-01-30 16:34:11.9870,-0.136,-0.994,-1.611,3.41,3.21,8.89,0.69,2.14,-1.21
2022-01-30 16:34:11.9980,-0.066,-1.068,-1.481,3.41,3.21,8.89,0.4,2.0,-1.01
2022-01-30 16:34:12.0070,0.004,-1.179,-1.405,2.96,3.82,7.69,0.07,1.57,-0.77
2022-01-30 16:34:12.0180,0.063,-1.265,-1.374,2.46,4.9,6.93,-0.29,0.93,-0.56
2022-01-30 16:34:12.0280,0.098,-1.356,-1.311,2.01,5.79,6.66,-0.65,0.28,-0.36
2022-01-30 16:34:12.0380,0.092,-1.438,-1.23,1.73,6.7,6.09,-0.65,0.28,-0.36
2022-01-30 16:34:12.0470,0.067,-1.445,-1.147,1.99,7.87,4.37,-1.27,-0.85,0.04
2022-01-30 16:34:12.0570,0.049,-1.376,-1.063,1.99,7.87,4.37,-1.54,-1.35,0.19
2022-01-30 16:34:12.0660,0.028,-1.267,-1.001,2.2,6.44,2.65,-1.75,-1.87,0.3
2022-01-30 16:34:12.0770,0.004,-1.129,-0.966,2.2,6.44,2.65,-1.93,-2.45,0.37
2022-01-30 16:34:12.0870,-0.014,-0.993,-0.935,2.25,4.01,1.67,-2.04,-2.96,0.41
2022-01-30 16:34:12.0980,-0.01,-0.885,-0.857,1.98,3.07,0.78,-2.05,-3.26,0.46
2022-01-30 16:34:12.1080,0.006,-0.777,-0.753,1.98,3.07,0.78,-2.0,-3.33,0.52
2022-01-30 16:34:12.1180,0.022,-0.665,-0.644,1.55,2.17,-0.39,-1.92,-3.19,0.62
2022-01-30 16:34:12.1260,0.029,-0.558,-0.542,0.71,0.33,-2.78,-1.92,-3.19,0.62
2022-01-30 16:34:12.1390,0.021,-0.444,-0.46,0.71,0.33,-2.78,-1.73,-2.58,0.92
2022-01-30 16:34:12.1470,0.002,-0.329,-0.394,0.49,-0.64,-3.73,-1.63,-2.24,1.06
2022-01-30 16:34:12.1570,-0.023,-0.231,-0.344,0.41,-2.49,-5.1,-1.51,-1.91,1.17
2022-01-30 16:34:12.1680,-0.037,-0.166,-0.301,0.41,-2.49,-5.1,-1.39,-1.6,1.21
2022-01-30 16:34:12.1780,-0.036,-0.135,-0.259,0.36,-3.04,-5.6,-1.24,-1.31,1.17
2022-01-30 16:34:12.1880,-0.022,-0.133,-0.226,-0.12,-3.21,-6.47,-1.1,-1.05,1.07
2022-01-30 16:34:12.1980,0.001,-0.156,-0.197,-0.12,-3.21,-6.47,-0.95,-0.85,0.94
2022-01-30 16:34:12.2080,0.026,-0.184,-0.169,-0.83,-2.54,-7.1,-0.82,-0.68,0.8
2022-01-30 16:34:12.2190,0.044,-0.204,-0.143,-0.83,-2.54,-7.1,-0.73,-0.54,0.66
2022-01-30 16:34:12.2280,0.058,-0.217,-0.121,-1.12,-2.25,-7.4,-0.7,-0.39,0.54
2022-01-30 16:34:12.2390,0.061,-0.225,-0.104,-1.33,-2.05,-7.65,-0.71,-0.24,0.46
2022-01-30 16:34:12.2480,0.057,-0.236,-0.099,-1.44,-1.73,-7.94,-0.75,-0.08,0.4
2022-01-30 16:34:12.2590,0.041,-0.252,-0.107,-1.44,-1.73,-7.94,-0.79,0.08,0.37
2022-01-30 16:34:12.2680,0.016,-0.262,-0.131,-1.09,-1.31,-7.74,-0.82,0.18,0.34
2022-01-30 16:34:12.2790,-0.022,-0.261,-0.196,-1.09,-1.31,-7.74,-0.81,0.12,0.29
2022-01-30 16:34:12.2880,-0.058,-0.275,-0.291,-0.73,-1.24,-7.19,-0.75,-0.09,0.25
2022-01-30 16:34:12.2990,-0.095,-0.307,-0.393,-0.36,-1.05,-6.31,-0.61,-0.41,0.19
2022-01-30 16:34:12.3080,-0.129,-0.333,-0.496,-0.03,-0.68,-5.33,-0.38,-0.77,0.11
2022-01-30 16:34:12.3190,-0.159,-0.341,-0.597,0.49,-0.22,-3.34,-0.06,-1.11,-0.02
2022-01-30 16:34:12.3290,-0.179,-0.353,-0.68,0.49,-0.22,-3.34,0.3,-1.36,-0.2
2022-01-30 16:34:12.3390,-0.203,-0.38,-0.782,0.59,-0.12,-2.51,0.68,-1.51,-0.42
2022-01-30 16:34:12.3490,-0.239,-0.392,-0.923,0.7,0.1,-1.53,1.04,-1.5,-0.65
2022-01-30 16:34:12.3590,-0.29,-0.355,-1.105,0.92,0.18,-0.14,1.4,-1.32,-0.82
2022-01-30 16:34:12.3680,-0.339,-0.305,-1.268,1.72,-0.88,3.43,1.77,-0.76,-0.89
2022-01-30 16:34:12.3790,-0.317,-0.343,-1.368,1.58,-0.82,4.5,2.11,0.11,-0.89
2022-01-30 16:34:12.3890,-0.246,-0.447,-1.495,1.58,-0.82,4.5,2.35,1.11,-0.88
2022-01-30 16:34:12.3990,-0.156,-0.574,-1.619,0.98,-0.04,5.81,2.41,1.94,-0.87
2022-01-30 16:34:12.4090,-0.094,-0.719,-1.83,0.25,0.96,7.1,2.25,2.22,-0.86
2022-01-30 16:34:12.4190,-0.075,-0.823,-2.083,-0.2,3.05,11.72,2.01,2.0,-0.86
2022-01-30 16:34:12.4290,-0.058,-0.911,-2.279,-0.15,3.75,13.76,1.87,1.3,-0.88
2022-01-30 16:34:12.4420,-0.016,-0.971,-2.426,-0.38,4.25,15.39,1.91,0.31,-0.99
2022-01-30 16:34:12.4520,0.053,-0.947,-2.472,-0.97,3.94,16.09,1.93,-0.67,-1.2
2022-01-30 16:34:12.4600,0.111,-0.929,-2.379,-1.56,3.52,15.45,1.64,-1.26,-1.33
2022-01-30 16:34:12.4720,0.138,-0.979,-2.209,-1.89,3.83,13.9,1.04,-1.45,-1.43
2022-01-30 16:34:12.4800,0.145,-1.001,-2.07,-2.01,4.04,12.53,0.27,-1.41,-1.61
2022-01-30 16:34:12.4920,0.141,-0.967,-1.961,-1.99,3.74,11.48,-0.53,-1.18,-1.83
2022-01-30 16:34:12.5010,0.151,-0.933,-1.844,-1.99,3.74,11.48,-1.26,-0.76,-1.99
2022-01-30 16:34:12.5090,0.188,-0.939,-1.732,-2.32,3.55,9.12,-1.78,-0.24,-2.01
2022-01-30 16:34:12.5190,0.21,-0.887,-1.636,-2.32,3.55,9.12,-2.02,0.11,-1.88
2022-01-30 16:34:12.5290,0.207,-0.765,-1.556,-2.37,2.3,7.17,-2.02,0.18,-1.69
2022-01-30 16:34:12.5400,0.196,-0.625,-1.426,-2.37,2.3,7.17,-1.92,0.01,-1.48
2022-01-30 16:34:12.5490,0.19,-0.516,-1.263,-2.01,0.11,4.19,-1.8,-0.29,-1.26
2022-01-30 16:34:12.5590,0.187,-0.451,-1.077,-1.95,-0.42,2.29,-1.71,-0.58,-1.0
2022-01-30 16:34:12.5690,0.178,-0.407,-0.898,-1.95,-0.42,2.29,-1.6,-0.85,-0.71
2022-01-30 16:34:12.5800,0.163,-0.359,-0.743,-1.88,-0.71,0.43,-1.42,-1.05,-0.43
2022-01-30 16:34:12.5890,0.155,-0.312,-0.631,-1.78,-1.03,-1.2,-1.12,-1.24,-0.18
2022-01-30 16:34:12.6000,0.146,-0.262,-0.563,-1.77,-1.38,-2.43,-0.67,-1.42,0.03
2022-01-30 16:34:12.6090,0.134,-0.196,-0.506,-1.81,-2.34,-3.75,-0.11,-1.58,0.19
2022-01-30 16:34:12.6200,0.114,-0.127,-0.431,-1.81,-2.34,-3.75,0.45,-1.65,0.32
2022-01-30 16:34:12.6300,0.082,-0.074,-0.325,-1.62,-3.6,-5.43,0.97,-1.57,0.41
2022-01-30 16:34:12.6400,0.058,-0.041,-0.216,-1.52,-4.04,-6.45,1.39,-1.37,0.49
2022-01-30 16:34:12.6500,0.048,-0.033,-0.124,-1.55,-4.26,-7.3,1.72,-1.11,0.53
2022-01-30 16:34:12.6600,0.048,-0.031,-0.055,-1.55,-4.26,-7.3,1.96,-0.87,0.52
2022-01-30 16:34:12.6700,0.061,-0.029,-0.002,-1.66,-4.42,-7.91,2.12,-0.66,0.44
2022-01-30 16:34:12.6790,0.078,-0.034,0.034,-1.87,-4.6,-8.34,2.19,-0.5,0.3
2022-01-30 16:34:12.6900,0.099,-0.04,0.059,-2.11,-4.73,-8.6,2.19,-0.34,0.1
2022-01-30 16:34:12.7000,0.123,-0.053,0.073,-2.36,-4.85,-8.73,2.12,-0.22,-0.12
2022-01-30 16:34:12.7100,0.12,-0.068,0.062,-2.63,-4.91,-8.77,2.12,-0.22,-0.12
2022-01-30 16:34:12.7200,0.093,-0.064,0.039,-2.66,-4.92,-8.58,1.83,-0.16,-0.5
2022-01-30 16:34:12.7300,0.082,-0.047,0.009,-2.39,-5.09,-8.25,1.67,-0.2,-0.69
2022-01-30 16:34:12.7400,0.075,-0.039,-0.016,-2.15,-5.61,-7.48,1.5,-0.21,-0.88
2022-01-30 16:34:12.7500,0.063,0.006,-0.01,-2.15,-5.61,-7.48,1.28,-0.2,-1.07
2022-01-30 16:34:12.7600,0.056,0.037,-0.034,-1.87,-6.6,-7.18,0.99,-0.23,-1.24
2022-01-30 16:34:12.7710,0.048,0.026,-0.096,-1.87,-6.6,-7.18,0.61,-0.3,-1.37
2022-01-30 16:34:12.7800,0.05,-0.012,-0.165,-1.66,-6.33,-5.84,0.18,-0.29,-1.45
2022-01-30 16:34:12.7900,0.049,-0.067,-0.209,-1.66,-6.33,-5.84,-0.24,-0.06,-1.48
2022-01-30 16:34:12.8000,0.016,-0.114,-0.235,-1.63,-5.84,-5.3,-0.59,0.33,-1.46
2022-01-30 16:34:12.8100,0.002,-0.118,-0.353,-1.2,-5.200955650806427,-4.111227026581765,-0.83,0.76,-1.46
2022-01-30 16:34:12.8200,0.009,-0.112,-0.486,-0.92,-5.21,-4.12,-0.9,1.35,-1.5
2022-01-30 16:34:12.8300,0.021,-0.163,-0.569,-0.7305145785212517,-4.78,-2.06,-0.73,2.11,-1.54
2022-01-30 16:34:12.8410,0.019,-0.304,-0.704,-0.74,-4.78,-2.06,-0.37,2.74,-1.55
2022-01-30 16:34:12.8500,0.011,-0.516,-0.992,-0.48,-3.46,-0.92,0.1,2.92,-1.58
2022-01-30 16:34:12.8610,0.012,-0.767,-1.307,-0.08,-1.42,1.69,0.66,2.78,-1.66
2022-01-30 16:34:12.8700,0.039,-1.0,-1.484,0.25,1.0,4.92,1.17,2.37,-1.81
2022-01-30 16:34:12.8810,0.08,-1.141,-1.63,0.22,4.73,8.41,1.42,1.8,-2.0
2022-01-30 16:34:12.8900,0.129,-1.279,-1.609,0.22,4.73,8.41,1.36,1.59,-2.05
2022-01-30 16:34:12.9010,0.216,-1.485,-1.467,0.02,5.92,8.6,0.98,1.66,-1.99
2022-01-30 16:34:12.9100,0.327,-1.589,-1.406,-1.38,9.04,6.69,0.38,1.82,-1.91
2022-01-30 16:34:12.9210,0.396,-1.585,-1.346,-1.38,9.04,6.69,-0.27,2.12,-1.68
2022-01-30 16:34:12.9310,0.426,-1.601,-1.242,-1.93,9.25,5.24,-0.89,2.5,-1.23
2022-01-30 16:34:12.9410,0.44,-1.589,-1.192,-1.93,9.25,5.24,-1.5,2.65,-0.64
2022-01-30 16:34:12.9510,0.427,-1.53,-1.216,-1.84,9.29,4.63,-2.13,2.39,-0.01
2022-01-30 16:34:12.9610,0.398,-1.459,-1.288,-1.52,8.89,4.77,-2.13,2.39,-0.01
2022-01-30 16:34:12.9710,0.35,-1.409,-1.363,-0.57,8.02,6.01,-3.38,1.0,0.92
2022-01-30 16:34:12.9810,0.253,-1.349,-1.422,-0.57,8.02,6.01,-3.65,0.03,1.13
2022-01-30 16:34:12.9910,0.136,-1.215,-1.577,0.33,7.7,6.36,-3.35,-1.24,1.16
2022-01-30 16:34:13.0010,0.054,-1.027,-1.637,2.11,5.13,8.22,-2.51,-2.47,1.11
2022-01-30 16:34:13.0110,0.03,-0.864,-1.543,2.11,5.13,8.22,-2.51,-2.47,1.11
2022-01-30 16:34:13.0210,0.045,-0.722,-1.391,1.68,2.32,5.66,-0.45,-4.38,1.22
2022-01-30 16:34:13.0310,0.077,-0.6,-1.131,1.68,2.32,5.66,0.05,-4.53,1.39
2022-01-30 16:34:13.0420,0.085,-0.535,-0.847,0.36,0.35,0.23,0.05,-4.03,1.62
2022-01-30 16:34:13.0510,0.049,-0.488,-0.621,0.36,0.35,0.23,-0.26,-3.08,1.83
2022-01-30 16:34:13.0610,-0.01,-0.404,-0.464,0.48,-0.87,-3.77,-0.71,-1.96,1.94
2022-01-30 16:34:13.0720,-0.06,-0.317,-0.375,0.75,-1.67,-4.73,-1.14,-0.86,1.95
2022-01-30 16:34:13.0820,-0.087,-0.243,-0.299,0.75,-1.67,-4.73,-1.51,0.13,1.85
2022-01-30 16:34:13.0910,-0.099,-0.188,-0.244,0.89,-2.31,-5.55,-1.82,0.93,1.68
2022-01-30 16:34:13.1010,-0.103,-0.16,-0.246,1.0,-2.9,-6.34,-2.04,1.48,1.48
2022-01-30 16:34:13.1100,-0.101,-0.15,-0.283,1.07,-2.83,-6.1,-2.12,1.77,1.25
2022-01-30 16:34:13.1220,-0.085,-0.138,-0.334,1.03,-2.75,-5.71,-2.05,1.75,0.99
2022-01-30 16:34:13.1320,-0.061,-0.115,-0.372,0.91,-2.79,-5.34,-1.8,1.59,0.72
2022-01-30 16:34:13.1410,-0.041,-0.104,-0.349,0.83,-2.76,-5.59,-1.47,1.38,0.52
2022-01-30 16:34:13.1520,-0.026,-0.117,-0.332,0.83,-2.76,-5.59,-1.15,1.13,0.42
2022-01-30 16:34:13.1610,-0.018,-0.132,-0.313,0.78,-2.52,-5.83,-0.92,0.89,0.41
2022-01-30 16:34:13.1720,-0.012,-0.136,-0.287,0.78,-2.14,-6.32,-0.77,0.67,0.46
2022-01-30 16:34:13.1820,-0.008,-0.138,-0.275,0.78,-2.14,-6.32,-0.69,0.45,0.57
2022-01-30 16:34:13.1910,-0.003,-0.143,-0.275,0.78,-2.05,-6.47,-0.64,0.26,0.7
2022-01-30 16:34:13.2020,0.002,-0.149,-0.277,0.75,-1.83,-6.51,-0.56,0.11,0.84
2022-01-30 16:34:13.2120,0.0,-0.147,-0.287,0.7,-1.83,-6.51,-0.43,-0.03,0.95
2022-01-30 16:34:13.2220,-0.009,-0.134,-0.302,0.74,-1.88,-6.31,-0.23,-0.16,1.01
2022-01-30 16:34:13.2320,-0.023,-0.121,-0.324,0.74,-1.88,-6.31,-0.01,-0.28,1.02
2022-01-30 16:34:13.2420,-0.037,-0.109,-0.356,0.9,-2.12,-5.82,0.19,-0.41,0.97
2022-01-30 16:34:13.2610,-0.052,-0.105,-0.401,0.97,-2.2,-5.38,0.33,-0.49,0.86
2022-01-30 16:34:13.2620,-0.07,-0.118,-0.446,0.97,-2.2,-5.38,0.42,-0.48,0.72
2022-01-30 16:34:13.2710,-0.099,-0.151,-0.507,1.27,-1.86,-4.35,0.47,-0.41,0.59
2022-01-30 16:34:13.2820,-0.134,-0.179,-0.586,1.27,-1.86,-4.35,0.51,-0.31,0.44
2022-01-30 16:34:13.2920,-0.158,-0.189,-0.718,1.77,-1.54,-2.38,0.55,-0.27,0.25
2022-01-30 16:34:13.3020,-0.169,-0.193,-0.903,1.87,-1.57,-0.54,0.66,-0.19,0.02
2022-01-30 16:34:13.3120,-0.147,-0.217,-1.048,1.87,-1.57,-0.54,0.87,0.11,-0.19
2022-01-30 16:34:13.3210,-0.127,-0.258,-1.16,1.68,-1.42,0.95,1.24,0.73,-0.32
2022-01-30 16:34:13.3320,-0.098,-0.329,-1.257,1.3362776416540147,-0.59,3.12,1.68,1.57,-0.32
2022-01-30 16:34:13.3420,-0.028,-0.443,-1.399,0.85,0.33,4.5,2.04,2.29,-0.24
2022-01-30 16:34:13.3520,0.065,-0.577,-1.601,0.85,0.33,4.5,2.2,2.63,-0.18
2022-01-30 16:34:13.3620,0.192,-0.721,-1.831,0.18,1.45,6.52,2.2,2.63,-0.18
2022-01-30 16:34:13.3720,0.347,-0.902,-2.0,-2.05,4.19,10.82,1.96,2.29,-0.6
2022-01-30 16:34:13.3820,0.5,-1.099,-1.993,-3.34,6.02,11.04,1.85,2.08,-1.05
2022-01-30 16:34:13.3950,0.612,-1.115,-1.996,-4.3,6.35,11.07,1.65,1.72,-1.57
2022-01-30 16:34:13.4050,0.646,-0.925,-1.947,-4.48,4.53,10.93,1.65,1.72,-1.57
2022-01-30 16:34:13.4130,0.688,-0.774,-1.696,-4.59,2.81,8.72,0.82,1.79,-2.09
2022-01-30 16:34:13.4230,0.813,-0.815,-1.477,-4.59,2.81,8.72,0.0,1.86,-1.94
2022-01-30 16:34:13.4320,0.986,-1.022,-1.404,-5.46,2.95,6.49,-1.07,1.65,-1.59
2022-01-30 16:34:13.4430,1.122,-1.292,-1.363,-8.13,7.65,5.25,-2.16,1.34,-1.09
2022-01-30 16:34:13.4530,1.137,-1.476,-1.332,-8.29,9.92,4.86,-2.88,0.96,-0.58
2022-01-30 16:34:13.4630,1.042,-1.403,-1.353,-8.29,9.92,4.86,-3.16,0.28,-0.16
2022-01-30 16:34:13.4720,0.907,-1.236,-1.459,-7.35,9.73,4.86,-3.08,-0.77,0.16
2022-01-30 16:34:13.4830,0.752,-1.074,-1.522,-6.05,8.38,5.7,-3.08,-0.77,0.16
2022-01-30 16:34:13.4920,0.601,-0.919,-1.462,-4.62,7.04,6.32,-2.29,-2.85,0.67
2022-01-30 16:34:13.5030,0.437,-0.749,-1.355,-3.33,5.74,5.69,-1.77,-3.63,0.92
2022-01-30 16:34:13.5120,0.278,-0.58,-1.215,-2.02,4.27,4.53,-1.21,-4.13,1.15
2022-01-30 16:34:13.5230,0.151,-0.43,-1.03,-0.8,2.73,3.06,-0.67,-4.27,1.29
2022-01-30 16:34:13.5320,0.061,-0.289,-0.83,0.58,-0.03,-0.87,-0.23,-4.07,1.33
2022-01-30 16:34:13.5440,0.005,-0.171,-0.647,0.74,-1.24,-2.74,0.06,-3.57,1.31
Time,-0.015,-0.105,-0.484,0.63,-1.96,-4.4,0.06,-3.57,1.31
2022-01-30 16:34:13.5620,-0.008,-0.096,-0.372,0.63,-1.96,-4.4,0.17,-2.88,1.24
2022-01-30 16:34:13.5730,0.006,-0.119,-0.298,-0.08,-1.94,-6.33,0.09,-1.39,1.11
2022-01-30 16:34:13.5830,0.017,-0.139,-0.245,-0.08,-1.94,-6.33,0.09,-1.39,1.11
2022-01-30 16:34:13.5930,0.026,-0.146,-0.197,-0.35,-1.73,-6.85,0.1,-0.2,1.05
2022-01-30 16:34:13.6030,0.04,-0.148,-0.169,-0.53,-1.66,-7.32,0.24,0.17,1.0
2022-01-30 16:34:13.6130,0.056,-0.151,-0.165,-0.89,-1.63,-7.68,0.24,0.17,1.0
2022-01-30 16:34:13.6240,0.071,-0.155,-0.162,-0.89,-1.63,-7.68,0.69,0.47,0.79
2022-01-30 16:34:13.6330,0.087,-0.158,-0.16,-1.02,-1.63,-7.69,0.88,0.44,0.61
2022-01-30 16:34:13.6440,0.105,-0.154,-0.161,-1.15,-1.66,-7.71,0.9509615302085876,0.4,0.39
2022-01-30 16:34:13.6530,0.115,-0.158,-0.15,-1.31,-1.78,-7.66,0.9,0.42,0.14
2022-01-30 16:34:13.6630,0.109,-0.172,-0.122,-1.33,-1.79,-7.95,0.76,0.55,-0.09
2022-01-30 16:34:13.6730,0.091,-0.181,-0.097,-1.33,-1.79,-7.95,0.57,0.77,-0.26
2022-01-30 16:34:13.6830,0.069,-0.178,-0.097,-1.11,-1.76,-8.18,0.41,0.95,-0.4
2022-01-30 16:34:13.6930,0.057,-0.173,-0.128,-0.8,-1.82,-8.2,0.3,1.01,-0.49
2022-01-30 16:34:13.7030,0.061,-0.168,-0.18,-0.56,-1.91,-7.93,0.27,0.96,-0.58
2022-01-30 16:34:13.7130,0.076,-0.163,-0.228,-0.48,-1.98,-7.41,0.32,0.82,-0.68
2022-01-30 16:34:13.7240,0.101,-0.15,-0.281,-0.5,-2.05,-6.93,0.39,0.66,-0.81
2022-01-30 16:34:13.7330,0.117,-0.134,-0.331,-0.65,-2.19,-5.880209151506424,0.39,0.66,-0.81
2022-01-30 16:34:13.7440,0.118,-0.126,-0.367,-0.73,-2.38,-5.89,0.51,0.44,-1.05
2022-01-30 16:34:13.7540,0.11,-0.12,-0.401,-0.67,-2.51,-5.5,0.54,0.44,-1.12
2022-01-30 16:34:13.7640,0.1,-0.104,-0.452,-0.52,-2.6,-5.16,0.54,0.52,-1.17
2022-01-30 16:34:13.7740,0.081,-0.085,-0.528,-0.34,-2.79,-4.65,0.49,0.71,-1.16
2022-01-30 16:34:13.7840,0.048,-0.079,-0.645,0.34,-3.13,-2.82,0.43,0.93,-1.09
2022-01-30 16:34:13.7940,0.008,-0.099,-0.832,0.34,-3.13,-2.82,0.44,1.09,-0.97
2022-01-30 16:34:13.8030,-0.019,-0.128,-1.051,0.86,-2.99,-1.04,0.6,1.16,-0.88
2022-01-30 16:34:13.8130,-0.009,-0.171,-1.292,1.3,-2.74,1.12,0.88,1.21,-0.87
2022-01-30 16:34:13.8240,0.02,-0.219,-1.495,1.25,-2.0,5.63,1.21,1.38,-0.94
2022-01-30 16:34:13.8340,0.063,-0.315,-1.651,1.25,-2.0,5.63,1.51,1.62,-0.97
2022-01-30 16:34:13.8440,0.109,-0.441,-1.84,1.01,-1.23,7.25,1.64,1.79,-0.95
2022-01-30 16:34:13.8530,0.154,-0.551,-1.983,0.5,0.86,10.79,1.62,1.93,-0.86
2022-01-30 16:34:13.8640,0.203,-0.657,-2.045,0.23,1.82,11.55,1.52,1.85,-0.75
2022-01-30 16:34:13.8760,0.256,-0.686,-2.086,0.23,1.82,11.55,1.46,1.51,-0.68
2022-01-30 16:34:13.8870,0.28,-0.656,-2.013,-0.25,1.7,11.7,1.46,1.51,-0.68
2022-01-30 16:34:13.8960,0.291,-0.717,-1.826,-0.25,1.7,11.7,1.26,0.96,-0.28
2022-01-30 16:34:13.9040,0.298,-0.833,-1.652,-0.21342980325222016,3.113185082674027,8.33,0.94,0.7,-0.01
2022-01-30 16:34:13.9140,0.305,-0.921,-1.556,-0.22,3.11,8.33,0.45,0.25,0.14
2022-01-30 16:34:13.9240,0.311,-1.013,-1.5,-0.24,3.94,7.35,-0.1,-0.31,0.2
2022-01-30 16:34:13.9340,0.3,-1.123,-1.414,-0.3,4.78,6.83,-0.6,-0.9,0.26
2022-01-30 16:34:13.9450,0.265,-1.177,-1.321,-0.26,5.87,6.01,-0.6,-0.9,0.26
2022-01-30 16:34:13.9540,0.22,-1.163,-1.234,0.26,6.55,4.08,-1.37,-2.01,0.5
2022-01-30 16:34:13.9640,0.166,-1.106,-1.142,0.58,6.15,3.06,-1.59,-2.42,0.72
2022-01-30 16:34:13.9740,0.09,-0.996,-1.052,0.58,6.15,3.06,-1.66,-2.73,0.97
2022-01-30 16:34:13.9840,0.02,-0.868,-0.974,1.06,5.25,2.04,-1.6,-2.96,1.23
2022-01-30 16:34:13.9930,-0.024,-0.758,-0.894,1.65,3.13,0.24,-1.6,-2.96,1.23
2022-01-30 16:34:14.0030,-0.043,-0.662,-0.799,1.65,3.13,0.24,-1.37,-2.98,1.54
2022-01-30 16:34:14.0150,-0.053,-0.586,-0.689,1.53,2.27,-0.77,-1.31,-2.68,1.58
2022-01-30 16:34:14.0250,-0.07,-0.526,-0.58,1.16,1.12,-3.08,-1.3,-2.21,1.58
2022-01-30 16:34:14.0350,-0.09,-0.474,-0.48,1.16,1.12,-4.13910304248333,-1.3,-2.21,1.58
2022-01-30 16:34:14.0450,-0.103,-0.422,-0.403,1.04,0.33,-4.99,-1.36,-1.03,1.43
2022-01-30 16:34:14.0550,-0.111,-0.367,-0.349,0.98,-0.09,-5.59,-1.36,-0.52,1.29
2022-01-30 16:34:14.0650,-0.117,-0.32,-0.322,0.96,-0.44,-5.95,-1.4,-0.14,1.1
2022-01-30 16:34:14.0740,-0.1,-0.295,-0.329,0.96,-0.44,-5.95,-1.48,0.11,0.85
2022-01-30 16:34:14.0850,-0.073,-0.303,-0.328,0.77,-0.59,-5.96,-1.6,0.29,0.59
2022-01-30 16:34:14.0950,-0.051,-0.338,-0.326,0.5,-0.41,-6.0,-1.69,0.4,0.34
2022-01-30 16:34:14.1050,-0.026,-0.382,-0.336,0.28,0.07,-6.08,-1.72,0.43,0.12
2022-01-30 16:34:14.1150,0.003,-0.408,-0.354,0.07,0.66,-6.05,-1.65,0.38,-0.07
2022-01-30 16:34:14.1250,0.025,-0.405,-0.371,-0.36,1.26,-5.8,-1.49,0.27,-0.22
2022-01-30 16:34:14.1350,0.035,-0.394,-0.385,-0.36,1.26,-5.8,-1.24,0.08,-0.28
2022-01-30 16:34:14.1460,0.043,-0.385,-0.395,-0.45,1.29,-5.71,-0.94,-0.16,-0.25
2022-01-30 16:34:14.1550,0.051,-0.383,-0.407,-0.6,1.37,-5.55,-0.63,-0.46,-0.17
2022-01-30 16:34:14.1650,0.055,-0.381,-0.43,-0.6,1.417008540183306,-5.34,-0.32,-0.73,-0.06
2022-01-30 16:34:14.1750,0.053,-0.382,-0.434,-0.7,1.41,-5.34,0.0,-0.93,0.09
Time,0.053,-0.376,-0.427,-0.84,1.41,-5.34,0.32,-1.04,0.2
2022-01-30 16:34:14.1960,0.049,-0.351,-0.431,-0.92,1.14,-5.31,0.58,-1.04,0.27
2022-01-30 16:34:14.2050,0.036,-0.34,-0.436,-0.91,0.95,-5.23,0.81,-0.94,0.32
2022-01-30 16:34:14.2130,0.012,-0.337,-0.453,-0.91,0.95,-5.23,1.01,-0.82,0.34
2022-01-30 16:34:14.2230,-0.022,-0.299,-0.512,-0.78,0.86,-5.08,1.16,-0.79,0.29
2022-01-30 16:34:14.2340,-0.064,-0.241,-0.622,-0.22,-0.24,-3.47,1.26,-0.86,0.15
2022-01-30 16:34:14.2440,-0.096,-0.214,-0.769,0.03,-0.67,-2.01,1.34,-1.02,-0.05
2022-01-30 16:34:14.2540,-0.107,-0.207,-0.925,0.07,-0.87,-0.44,1.48,-1.19,-0.3
2022-01-30 16:34:14.2640,-0.103,-0.195,-1.064,-0.06,-1.11,1.02,1.68,-1.22,-0.57
2022-01-30 16:34:14.2750,-0.09,-0.172,-1.199,-0.27,-1.5,2.39,1.9,-1.04,-0.8
2022-01-30 16:34:14.2850,-0.08,-0.137,-1.335,-0.45,-2.02,3.79,2.02,-0.68,-0.92
2022-01-30 16:34:14.2960,-0.081,-0.134,-1.535,-0.47,-2.32,5.73,2.04,-0.26,-0.89
2022-01-30 16:34:14.3060,-0.084,-0.202,-1.705,-0.47,-2.32,5.73,2.09,0.33,-0.73
2022-01-30 16:34:14.3150,-0.074,-0.255,-1.856,-0.43,-1.9,7.6,2.17,0.81,-0.61
2022-01-30 16:34:14.3260,-0.021,-0.278,-2.055,-0.8,-1.49,11.13,2.29,1.05,-0.57
2022-01-30 16:34:14.3360,0.055,-0.33,-2.154,-1.42,-1.23,12.35,2.45,1.1,-0.56
2022-01-30 16:34:14.3480,0.106,-0.351,-2.156,-1.42,-1.23,12.35,2.45,1.1,-0.56
2022-01-30 16:34:14.3580,0.126,-0.322,-2.061,-1.84,-1.15,12.57,2.24,1.02,-0.51
2022-01-30 16:34:14.3680,0.146,-0.348,-1.915,-1.95,-1.64,11.86,1.68,1.05,-0.49
2022-01-30 16:34:14.3760,0.183,-0.439,-1.781,-2.02,-0.9588287615776062,9.27197312951088,0.9,1.03,-0.53
2022-01-30 16:34:14.3860,0.224,-0.536,-1.7,-2.55,-0.05,8.43,0.02,0.89,-0.62
2022-01-30 16:34:14.3960,0.238,-0.606,-1.657,-2.55,-0.05,8.43,-0.82,0.67,-0.66
2022-01-30 16:34:14.4060,0.225,-0.665,-1.612,-2.44,1.33,7.51,-1.46,0.42,-0.52
2022-01-30 16:34:14.4160,0.199,-0.69,-1.548,-2.44,1.33,7.51,-1.86,0.16,-0.24
2022-01-30 16:34:14.4260,0.184,-0.654,-1.482,-1.95,1.65,6.06,-2.03,-0.22,0.1
2022-01-30 16:34:14.4360,0.164,-0.58,-1.439,-1.8,1.13,5.54,-2.04,-0.65,0.43
2022-01-30 16:34:14.4460,0.122,-0.487,-1.352,-1.8,1.13,5.54,-1.93,-0.99,0.72
2022-01-30 16:34:14.4560,0.074,-0.4,-1.22,-1.5,0.41,4.68,-1.73,-1.17,1.0
2022-01-30 16:34:14.4660,0.046,-0.347,-1.069,-0.98,-0.71,1.8,-1.5,-1.17,1.25
2022-01-30 16:34:14.4770,0.037,-0.324,-0.921,-0.98,-0.71,1.8,-1.5,-1.17,1.25
2022-01-30 16:34:14.4860,0.042,-0.312,-0.8,-1.22,-0.82,-0.99,-0.99,-0.87,1.62
2022-01-30 16:34:14.4960,0.046,-0.295,-0.693,-1.4,-0.88,-2.08,-0.74,-0.67,1.73
2022-01-30 16:34:14.5060,0.048,-0.281,-0.591,-1.4,-0.88,-2.08,-0.48,-0.45,1.84
2022-01-30 16:34:14.5150,0.042,-0.275,-0.503,-1.62,-0.94,-4.01,-0.22,-0.25,1.97
2022-01-30 16:34:14.5250,0.027,-0.261,-0.438,-1.57,-1.02,-4.67,0.04,-0.09,2.11
2022-01-30 16:34:14.5360,0.012,-0.229,-0.382,-1.57,-1.02,-4.67,0.32,0.05,2.21
2022-01-30 16:34:14.5470,-0.007,-0.193,-0.322,-1.5,-1.28,-5.22,0.64,0.2,2.28
2022-01-30 16:34:14.5560,-0.031,-0.17,-0.256,-1.4,-1.65,-5.8,0.97,0.4,2.31
2022-01-30 16:34:14.5660,-0.059,-0.156,-0.192,-1.22,-1.92,-6.41,1.3,0.63,2.3
2022-01-30 16:34:14.5760,-0.092,-0.142,-0.144,-0.7052050517499447,-2.34,-7.47,1.59,0.9,2.23
2022-01-30 16:34:14.5870,-0.119,-0.13,-0.098,-0.71,-2.34,-7.47,1.85,1.18,2.08
2022-01-30 16:34:14.5960,-0.136,-0.121,-0.058,-0.43,-2.56,-7.87,2.02,1.44,1.82
2022-01-30 16:34:14.6070,-0.138,-0.127,-0.041,-0.22,-2.8,-8.23,2.13,1.62,1.48
2022-01-30 16:34:14.6160,-0.112,-0.15,-0.049,-0.12,-2.91,-8.37,2.15,1.69,1.06
2022-01-30 16:34:14.6270,-0.102,-0.167,-0.064,-0.27,-2.86,-8.24,2.1,1.64,0.62
2022-01-30 16:34:14.6360,-0.08,-0.193,-0.087,-0.3,-2.86,-8.04,2.0,1.48,0.22
2022-01-30 16:34:14.6470,-0.054,-0.236,-0.109,-0.5356050999462605,-2.50677853345871,-7.44,1.85,1.23,-0.14
2022-01-30 16:34:14.6570,-0.054,-0.212,-0.145,-0.42,-2.85,-7.07,1.61,0.83,-0.5
2022-01-30 16:34:14.6670,-0.042,-0.175,-0.231,-0.42,-2.85,-7.07,1.32,0.38,-0.84
2022-01-30 16:34:14.6770,-0.054,-0.154,-0.215,-0.46,-3.34,-6.16,1.01,0.15,-1.12
2022-01-30 16:34:14.6860,-0.087,-0.152,-0.192,-0.29,-3.69,-6.1,0.65,0.11,-1.34
2022-01-30 16:34:14.6960,-0.11,-0.139,-0.226,0.44,-3.98,-6.03,0.22,0.24,-1.55
2022-01-30 16:34:14.7070,-0.079,-0.13,-0.272,0.44,-3.98,-6.03,-0.23,0.54,-1.73
2022-01-30 16:34:14.7170,-0.038,-0.148,-0.334,0.03,-3.95,-5.02,-0.69,1.02,-1.86
2022-01-30 16:34:14.7270,-0.009,-0.196,-0.41,-0.07,-3.47,-4.34,-1.09,1.69,-1.92
2022-01-30 16:34:14.7370,0.036,-0.285,-0.52,-0.07,-3.47,-3.3824610579013825,-1.37,2.43,-1.94
2022-01-30 16:34:14.7470,0.102,-0.437,-0.766,-0.553086191676557,-1.0257518988847734,-1.31,-1.48,2.71,-1.92
2022-01-30 16:34:14.7570,0.166,-0.603,-1.167,-0.56,-1.03,-1.31,-1.36,2.45,-1.87
2022-01-30 16:34:14.7670,0.19,-0.661,-1.506,-0.89,0.79,2.53,-1.0,1.72,-1.84
2022-01-30 16:34:14.7770,0.166,-0.631,-1.858,-0.89,1.64,5.89,-0.51,0.59,-1.8
2022-01-30 16:34:14.7870,0.125,-0.607,-2.12,0.04,1.29,12.08,0.03,-0.36,-1.56
2022-01-30 16:34:14.7970,0.091,-0.629,-2.147,0.04,1.29,12.08,0.49,-0.75,-1.11
2022-01-30 16:34:14.8090,0.058,-0.648,-2.091,0.73,1.67,12.06,0.73,-0.64,-0.54
2022-01-30 16:34:14.8210,0.029,-0.636,-2.026,0.73,1.67,12.06,0.73,-0.64,-0.54
2022-01-30 16:34:14.8300,0.004,-0.631,-1.936,0.99,1.52,11.47,0.75,-0.19,-0.0
2022-01-30 16:34:14.8390,-0.016,-0.652,-1.834,1.23,1.39,10.66,0.3,0.99,0.65
2022-01-30 16:34:14.8470,-0.032,-0.72,-1.801,1.46,1.49,9.66,-0.19,1.37,0.72
2022-01-30 16:34:14.8570,-0.054,-0.813,-1.807,1.95,3.01,9.33,-0.79,1.56,0.59
2022-01-30 16:34:14.8670,-0.072,-0.875,-1.812,2.26,3.72,9.33,-1.41,1.53,0.23
2022-01-30 16:34:14.8780,-0.054,-0.931,-1.85,2.26,3.72,9.33,-1.88,1.23,-0.25
2022-01-30 16:34:14.8870,-0.014,-0.981,-1.895,2.25,4.38,9.63,-1.88,1.23,-0.25
2022-01-30 16:34:14.8970,0.022,-0.955,-1.889,1.98,5.13964057803154,9.969724881649018,-1.93,0.01,-1.07
2022-01-30 16:34:14.9070,0.038,-0.841,-1.792,1.5588175530731678,4.2933122456073765,9.06,-1.61,-0.6,-1.18
2022-01-30 16:34:14.9180,0.049,-0.691,-1.616,1.44,2.99,7.32,-1.28,-1.03,-1.06
2022-01-30 16:34:14.9280,0.072,-0.575,-1.414,1.44,2.99,7.32,-1.28,-1.03,-1.06
2022-01-30 16:34:14.9370,0.108,-0.525,-1.226,0.749234439432621,1.4551430574059487,3.34,-0.79,-1.35,-0.31
2022-01-30 16:34:14.9480,0.136,-0.494,-1.062,0.74,1.45,3.34,-0.6,-1.27,0.14
2022-01-30 16:34:14.9570,0.147,-0.451,-0.923,0.34,1.22,1.65,-0.4,-1.14,0.54
2022-01-30 16:34:14.9680,0.143,-0.405,-0.805,0.1,0.86,0.21,-0.19,-0.96,0.84
Time,0.13,-0.359,-0.688,0.0,0.0,-2.15,0.0,-0.73,1.05
2022-01-30 16:34:14.9880,0.113,-0.319,-0.577,0.0,0.0,-2.15,0.16,-0.51,1.2
2022-01-30 16:34:14.9970,0.097,-0.295,-0.479,0.13,-0.71,-4.25,0.28,-0.31,1.31
2022-01-30 16:34:15.0080,0.087,-0.284,-0.395,0.13,-0.71,-4.25,0.39,-0.15,1.38
2022-01-30 16:34:15.0180,0.077,-0.269,-0.335,0.17,-0.87,-5.08,0.5,-0.05,1.4
2022-01-30 16:34:15.0280,0.069,-0.233,-0.295,0.23,-1.44,-6.09,0.58,-0.04,1.35
2022-01-30 16:34:15.0380,0.06,-0.183,-0.282,0.23,-1.44,-6.09,0.61,-0.08,1.23
2022-01-30 16:34:15.0480,0.052,-0.148,-0.261,0.28,-2.42,-6.37,0.64,-0.05,1.11
2022-01-30 16:34:15.0590,0.041,-0.141,-0.211,0.28,-2.42,-6.37,0.7,0.08,1.0
2022-01-30 16:34:15.0680,0.032,-0.136,-0.169,0.4,-2.69,-7.23,0.8,0.24,0.92
2022-01-30 16:34:15.0790,0.028,-0.119,-0.161,0.4,-2.69,-7.23,0.89,0.32,0.81
2022-01-30 16:34:15.0880,0.021,-0.101,-0.177,0.44,-2.92,-7.31,0.96,0.28,0.68
2022-01-30 16:34:15.0980,0.013,-0.097,-0.195,0.56,-3.35,-6.91,0.96,0.18,0.55
2022-01-30 16:34:15.1080,0.003,-0.105,-0.208,0.56,-3.35,-6.91,0.88,0.07,0.43
2022-01-30 16:34:15.1190,0.003,-0.098,-0.225,0.65,-3.35,-6.75,0.72,-0.04,0.3
2022-01-30 16:34:15.1290,0.026,-0.097,-0.263,0.67,-3.47,-6.54,0.5,-0.17,0.17
2022-01-30 16:34:15.1390,0.042,-0.115,-0.33,0.43,-3.57,-6.19,0.28,-0.23,0.05
2022-01-30 16:34:15.1490,0.061,-0.147,-0.376,0.04,-3.18,-5.04,0.13,-0.19,-0.05
2022-01-30 16:34:15.1590,0.086,-0.172,-0.461,0.04,-3.18,-5.04,0.05,-0.17,-0.18
2022-01-30 16:34:15.1690,0.102,-0.163,-0.599,-0.22,-2.9,-4.28,0.04,-0.21,-0.35
2022-01-30 16:34:15.1780,0.104,-0.139,-0.743,-0.43,-3.2,-1.54,0.11,-0.27,-0.53
2022-01-30 16:34:15.1890,0.097,-0.151,-0.869,-0.36,-3.15,-0.26,0.36,-0.2,-0.64
2022-01-30 16:34:15.1980,0.104,-0.2,-0.948,-0.36,-3.15,-0.26,0.81,0.11,-0.63
2022-01-30 16:34:15.2080,0.083,-0.258,-0.998,-0.41,-2.74,0.59,1.3,0.53,-0.58
2022-01-30 16:34:15.2190,0.113,-0.267,-1.074,-0.3,-2.21,1.89,1.65,1.04,-0.54
2022-01-30 16:34:15.2290,0.179,-0.357,-1.157,-0.3,-2.21,1.89,1.65,1.04,-0.4352497458457947
2022-01-30 16:34:15.2390,0.264,-0.514,-1.241,-0.82,-1.6,2.82,1.85,1.95,-0.29
2022-01-30 16:34:15.2490,0.377,-0.701,-1.336,-1.46,-0.25,4.7784814560413365,1.72,2.1,-0.16
2022-01-30 16:34:15.2590,0.495,-0.891,-1.426,-3.36,3.14,5.78,1.49,1.93,-0.09
2022-01-30 16:34:15.2690,0.575,-1.038,-1.486,-4.05,4.56,6.54,1.21,1.57,-0.09
2022-01-30 16:34:15.2790,0.601,-1.083,-1.482,-4.05,4.56,6.54,0.86,1.21,-0.19
2022-01-30 16:34:15.2890,0.585,-1.092,-1.429,-4.24,5.04,6.66,0.43,0.95,-0.32
2022-01-30 16:34:15.2990,0.559,-1.114,-1.358,-3.67,5.25,5.6,-0.03,0.81,-0.51
2022-01-30 16:34:15.3090,0.542,-1.111,-1.298,-3.67,5.25,5.6,-0.5,0.74,-0.75
2022-01-30 16:34:15.3190,0.533,-1.062,-1.266,-3.19,4.91,4.63,-1.01,0.72,-1.04
2022-01-30 16:34:15.3290,0.538,-1.008,-1.253,-3.19,4.91,4.63,-1.58,0.7,-1.31
2022-01-30 16:34:15.3390,0.562,-0.978,-1.279,-3.11,4.48,4.43,-2.14,0.67,-1.45
2022-01-30 16:34:15.3490,0.579,-0.973,-1.284,-3.19,4.3,4.58,-2.47,0.68,-1.41
2022-01-30 16:34:15.3590,0.548,-0.902,-1.274,-2.91,4.14,4.37,-2.47,0.64,-1.25
2022-01-30 16:34:15.3690,0.476,-0.735,-1.246,-2.91,4.14,4.37,-2.14,0.56,-1.01
2022-01-30 16:34:15.3790,0.377,-0.562,-1.149,-2.13,2.81,4.05,-2.14,0.56,-1.01
2022-01-30 16:34:15.3890,0.271,-0.441,-1.03,0.01,0.16,1.85,-1.29,0.26,-0.2
2022-01-30 16:34:15.3990,0.171,-0.37,-0.937,0.01,0.16,1.85,-0.97,0.02,0.24
2022-01-30 16:34:15.4090,0.088,-0.301,-0.845,1.85,-1.05,-0.07,-0.7,-0.22,0.49
2022-01-30 16:34:15.4190,0.03,-0.229,-0.751,1.85,-1.05,-0.07,-0.44,-0.4,0.48
2022-01-30 16:34:15.4290,-0.005,-0.18,-0.667,2.41,-1.72,-1.02,-0.23,-0.52,0.26
2022-01-30 16:34:15.4390,-0.025,-0.143,-0.586,2.73,-2.21,-1.89,-0.09,-0.55,-0.1
2022-01-30 16:34:15.4500,-0.029,-0.121,-0.501,2.89,-2.57,-2.71,-0.0,-0.48,-0.5
2022-01-30 16:34:15.4600,-0.011,-0.1,-0.415,2.91,-2.79,-3.55,0.03,-0.28,-0.88
2022-01-30 16:34:15.4690,0.019,-0.078,-0.337,2.47,-3.17,-5.2,0.02,0.01,-1.14
2022-01-30 16:34:15.4800,0.046,-0.077,-0.275,2.47,-3.17,-5.2,-0.01,0.33,-1.24
2022-01-30 16:34:15.4890,0.069,-0.078,-0.238,2.24,-3.18,-5.83,-0.03,0.58,-1.18
2022-01-30 16:34:15.5000,0.094,-0.079,-0.224,1.9606111693382264,-3.09,-6.36,-0.03,0.71,-0.99
2022-01-30 16:34:15.5100,0.126,-0.101,-0.228,1.96,-3.09,-6.36,0.01,0.71,-0.74
2022-01-30 16:34:15.5200,0.154,-0.137,-0.236,1.54,-2.51,-6.23,0.1,0.57,-0.45
2022-01-30 16:34:15.5300,0.164,-0.168,-0.271,1.54,-2.51,-6.23,0.24,0.28,-0.17
2022-01-30 16:34:15.5400,0.152,-0.173,-0.311,1.48,-2.18,-5.9,0.47,-0.11,0.05
2022-01-30 16:34:15.5500,0.129,-0.145,-0.338,1.81,-2.4,-5.18,0.75,-0.52,0.19
2022-01-30 16:34:15.5600,0.107,-0.111,-0.344,1.81,-2.4,-5.18,1.05,-0.9,0.24
2022-01-30 16:34:15.5700,0.081,-0.08,-0.363,2.13,-3.2,-4.9,1.28,-1.2,0.19
2022-01-30 16:34:15.5800,0.064,-0.032,-0.36,2.13,-3.2,-4.9,1.38,-1.34,0.04
2022-01-30 16:34:15.5890,0.058,-0.006,-0.34,2.2,-3.78,-4.88,1.36,-1.26,-0.14
2022-01-30 16:34:15.6000,0.061,-0.035,-0.308,2.16,-4.21,-5.04,1.25,-0.98,-0.29
2022-01-30 16:34:15.6100,0.074,-0.075,-0.287,1.86,-3.77,-5.53,1.07,-0.6,-0.41
2022-01-30 16:34:15.6200,0.096,-0.096,-0.307,1.63,-3.62,-5.36,0.85,-0.28,-0.5
2022-01-30 16:34:15.6300,0.13,-0.129,-0.396,1.63,-3.62,-5.36,0.85,-0.28,-0.5
2022-01-30 16:34:15.6400,0.176,-0.182,-0.527,1.31,-3.38,-4.55,0.43,-0.06,-0.58
2022-01-30 16:34:15.6510,0.22,-0.269,-0.64,0.47180744558572774,-2.1336098152399066,-2.1,0.33,0.06,-0.62
2022-01-30 16:34:15.6600,0.254,-0.388,-0.722,0.47,-2.14,-2.1,0.32,0.29,-0.7
2022-01-30 16:34:15.6710,0.292,-0.485,-0.813,0.17,-0.99,-1.25,0.33,0.46,-0.82
2022-01-30 16:34:15.6800,0.338,-0.589,-0.983,-0.13,-0.02,-0.37,0.3,0.35,-0.94
2022-01-30 16:34:15.6900,0.376,-0.724,-1.188,-0.51,0.96,1.2,0.27,0.14,-1.04
2022-01-30 16:34:15.7010,0.407,-0.844,-1.291,-1.08,3.49,4.44,0.26,0.02,-1.13
2022-01-30 16:34:15.7100,0.438,-0.938,-1.346,-1.3224811363220215,4.47,4.99,0.16,0.01,-1.26
2022-01-30 16:34:15.7200,0.475,-1.002,-1.41,-1.33,4.47,4.99,-0.10896509885787964,0.14,-1.43
2022-01-30 16:34:15.7300,0.51,-1.039,-1.45,-1.62,5.15,5.63,-0.5,0.4,-1.61
2022-01-30 16:34:15.7400,0.527,-0.997,-1.464,-1.89,5.63,6.06,-0.93,0.77,-1.68
2022-01-30 16:34:15.7510,0.532,-0.932,-1.487,-1.98,5.41,6.2,-0.93,0.77,-1.68
2022-01-30 16:34:15.7610,0.572,-0.918,-1.531,-1.88,4.88,6.39,-1.54,1.26,-1.11
2022-01-30 16:34:15.7700,0.65,-0.925,-1.613,-2.06,4.84,6.77,-1.66,1.1,-0.59
2022-01-30 16:34:15.7800,0.738,-0.982,-1.694,-2.65,5.06,7.51,-1.72,0.71,-0.06
2022-01-30 16:34:15.7900,0.809,-1.102,-1.719,-4.089066371619702,6.96,8.6,-1.74,0.24,0.47
2022-01-30 16:34:15.8010,0.807,-1.212,-1.701,-4.09,6.96,8.6,-1.7,-0.31,0.95
2022-01-30 16:34:15.8100,0.706,-1.202,-1.709,-3.39,8.41,8.33,-1.57,-1.02,1.29
2022-01-30 16:34:15.8210,0.545,-1.092,-1.73,-3.39,8.41,8.33,-1.57,-1.79,1.43
2022-01-30 16:34:15.8310,0.384,-0.965,-1.686,-0.58,6.3,8.04,-0.97,-2.46,1.4
2022-01-30 16:34:15.8420,0.275,-0.846,-1.571,-0.58,6.3,8.04,-0.61,-2.89,1.27
2022-01-30 16:34:15.8510,0.206,-0.749,-1.383,0.29,5.15,6.87,-0.61,-2.89,1.27
2022-01-30 16:34:15.8610,0.147,-0.657,-1.154,0.99,3.29,2.69,-0.07,-2.92,0.99
2022-01-30 16:34:15.8710,0.111,-0.551,-0.947,0.99,3.29,2.69,-0.02,-2.64,0.84
2022-01-30 16:34:15.8810,0.093,-0.449,-0.765,1.09,2.25,0.54,-0.11,-2.23,0.68
2022-01-30 16:34:15.8900,0.082,-0.371,-0.605,1.02,1.21,-1.32,-0.31,-1.72,0.52
2022-01-30 16:34:15.9010,0.069,-0.298,-0.481,0.86,-0.27,-4.27,-0.56,-1.19,0.36
2022-01-30 16:34:15.9110,0.061,-0.229,-0.392,0.86,-0.27,-4.27,-0.81,-0.69,0.19
2022-01-30 16:34:15.9210,0.062,-0.18,-0.342,0.84,-0.9,-5.22,-1.03,-0.26,0.03
2022-01-30 16:34:15.9310,0.073,-0.159,-0.319,0.78,-1.34,-5.8,-1.03,-0.26,0.03
2022-01-30 16:34:15.9410,0.09,-0.154,-0.322,0.66,-1.48,-6.08,-1.17,0.06,-0.09
2022-01-30 16:34:15.9520,0.11,-0.148,-0.341,0.35,-1.37,-5.97,-1.11,0.36,-0.25
2022-01-30 16:34:15.9610,0.128,-0.136,-0.343,0.35,-1.37,-5.97,-0.93,0.43,-0.29
2022-01-30 16:34:15.9720,0.133,-0.128,-0.325,0.2,-1.38,-5.95,-0.72,0.53,-0.28
2022-01-30 16:34:15.9810,0.125,-0.126,-0.292,0.31,-1.32,-6.44,-0.53,0.7,-0.21
2022-01-30 16:34:15.9910,0.115,-0.129,-0.252,0.31,-1.32,-6.44,-0.37,0.91,-0.06
2022-01-30 16:34:16.0010,0.106,-0.138,-0.224,0.67,-1.14,-7.12,-0.28,1.15,0.12
2022-01-30 16:34:16.0120,0.105,-0.152,-0.207,0.79,-0.98,-7.28,-0.23,1.38,0.33
2022-01-30 16:34:16.0220,0.11,-0.171,-0.206,0.79,-0.98,-7.28,-0.19,1.53,0.52
2022-01-30 16:34:16.0320,0.119,-0.189,-0.219,0.91,-0.59,-7.16,-0.15,1.56,0.66
2022-01-30 16:34:16.0410,0.119,-0.202,-0.257,0.91,-0.59,-7.16,-0.11,1.41,0.73
2022-01-30 16:34:16.0520,0.112,-0.2,-0.316,1.2,-0.47,-6.2,-0.08,1.1,0.73
2022-01-30 16:34:16.0620,0.109,-0.206,-0.378,1.3262689626216888,-0.4381229518353939,-5.56,-0.02,0.72,0.69
2022-01-30 16:34:16.0710,0.121,-0.219,-0.428,1.26,-0.32,-5.07,0.03,0.23,0.62
2022-01-30 16:34:16.0810,0.134,-0.216,-0.522,1.26,-0.32,-5.07,0.07,-0.33,0.51
2022-01-30 16:34:16.0920,0.156,-0.192,-0.621,1.14,-0.34,-4.19,0.12,-0.85,0.38
2022-01-30 16:34:16.1020,0.171,-0.169,-0.747,0.6353802336752415,-0.8202088201045991,-2.04,0.2,-1.23,0.24
2022-01-30 16:34:16.1120,0.197,-0.141,-0.86,0.63,-0.83,-2.04,0.2,-1.23,0.24
2022-01-30 16:34:16.1220,0.215,-0.114,-1.006,-0.03,-1.41,0.39,0.52,-1.23,0.05
2022-01-30 16:34:16.1320,0.266,-0.105,-1.158,-0.03,-1.41,0.39,0.78,-0.78,0.06
2022-01-30 16:34:16.1420,0.339,-0.138,-1.236,-1.3518170557916165,-1.3857003548741342,2.77,1.0,-0.01,0.16
2022-01-30 16:34:16.1520,0.431,-0.179,-1.374,-2.24,-1.1,4.05,1.0,-0.01,0.16
2022-01-30 16:34:16.1620,0.516,-0.257,-1.559,-2.24,-1.1,4.05,0.99,1.8,0.5
2022-01-30 16:34:16.1720,0.58,-0.365,-1.764,-3.5,0.48,7.92,0.92,2.34,0.61
2022-01-30 16:34:16.1820,0.635,-0.414,-2.012,-3.86,0.96,10.41,0.93,2.22,0.53
2022-01-30 16:34:16.1930,0.677,-0.402,-2.209,-4.12,0.78,12.55,1.07,1.57,0.29
2022-01-30 16:34:16.2040,0.694,-0.388,-2.272,-4.12,0.78,13.39949342250824,1.19,0.65,-0.02
2022-01-30 16:34:16.2150,0.705,-0.388,-2.233,-4.19,0.54,13.39,1.19,0.65,-0.02
2022-01-30 16:34:16.2250,0.727,-0.412,-2.114,-4.25,0.41,13.18,0.84,-1.0,-0.69
2022-01-30 16:34:16.2350,0.759,-0.451,-1.989,-4.830448877513409,0.85,10.88,0.34,-1.52,-1.03
2022-01-30 16:34:16.2440,0.775,-0.484,-1.841,-4.84,0.85,10.88,-0.26,-1.75,-1.3
2022-01-30 16:34:16.2530,0.76,-0.518,-1.702,-5.13,1.19,9.43,-0.26,-1.75,-1.3
2022-01-30 16:34:16.2620,0.717,-0.535,-1.592,-5.13,1.58,7.97,-1.23,-1.55,-1.43
2022-01-30 16:34:16.2730,0.641,-0.486,-1.503,-4.21,1.65,5.82,-1.42,-1.42,-1.31
2022-01-30 16:34:16.2830,0.569,-0.423,-1.41,-4.21,1.65,5.82,-1.4,-1.4,-1.08
2022-01-30 16:34:16.2930,0.504,-0.372,-1.293,-3.58,1.18,3.6645552992820742,-1.27,-1.54,-0.74
2022-01-30 16:34:16.3030,0.442,-0.325,-1.174,-3.04,0.82,3.66,-1.11,-1.85,-0.36
2022-01-30 16:34:16.3130,0.401,-0.314,-1.055,-2.54,0.48,2.43,-0.93,-2.17,0.01
2022-01-30 16:34:16.3230,0.361,-0.314,-0.918,-2.28,0.43,1.21,-0.71,-2.34,0.33
2022-01-30 16:34:16.3330,0.3,-0.295,-0.756,-1.77,0.42,-1.79,-0.46,-2.29,0.6
2022-01-30 16:34:16.3430,0.23,-0.272,-0.592,-1.77,0.42,-1.79,-0.19,-2.03,0.85
2022-01-30 16:34:16.3530,0.162,-0.245,-0.447,-0.8435286124795676,-0.02,-4.92,0.07,-1.63,1.05
2022-01-30 16:34:16.3630,0.107,-0.213,-0.334,-0.85,-0.02,-4.92,0.32,-1.17,1.19
2022-01-30 16:34:16.3730,0.067,-0.184,-0.238,-0.46,-0.35,-6.08,0.56,-0.66,1.29
2022-01-30 16:34:16.3820,0.034,-0.162,-0.152,-0.2,-0.69,-7.02,0.77,-0.16,1.34
2022-01-30 16:34:16.3930,0.015,-0.153,-0.082,0.05,-0.96,-7.87,0.95,0.3,1.33
2022-01-30 16:34:16.4030,0.008,-0.149,-0.032,0.21,-1.15,-8.57,1.08,0.71,1.25
2022-01-30 16:34:16.4130,0.007,-0.148,0.004,0.29,-1.29,-9.05,1.17,1.02,1.13
2022-01-30 16:34:16.4230,0.002,-0.146,0.025,0.34,-1.41,-9.38,1.22,1.23,0.98
2022-01-30 16:34:16.4330,-0.001,-0.141,0.029,0.45,-1.54,-9.58,1.24,1.33,0.81
2022-01-30 16:34:16.4430,0.008,-0.14,0.027,0.57,-1.7,-9.58,1.23,1.37,0.62
2022-01-30 16:34:16.4540,0.024,-0.149,0.011,0.6,-1.84,-9.52,1.22,1.34,0.45
2022-01-30 16:34:16.4610,0.047,-0.147,-0.004,0.45,-1.97,-9.1,1.21,1.33,0.26
2022-01-30 16:34:16.4730,0.061,-0.136,0.013,0.45,-1.97,-9.1,1.19,1.31,0.14
2022-01-30 16:34:16.4820,0.041,-0.172,-0.012,0.67,-2.0,-8.96,1.19,1.31,0.14
2022-01-30 16:34:16.4920,0.026,-0.16,-0.05,0.67,-2.0,-8.96,1.15,1.24,0.06
2022-01-30 16:34:16.5030,0.024,-0.1,-0.083,1.07,-2.8,-8.13,1.08,1.13,-0.06
2022-01-30 16:34:16.5130,0.013,-0.038,-0.085,1.07,-2.8,-8.13,0.84,0.97,-0.43
2022-01-30 16:34:16.5230,0.025,0.016,-0.127,1.28,-3.49,-8.06,0.56,0.88,-0.7
2022-01-30 16:34:16.5330,0.063,0.034,-0.197,1.06,-4.37,-6.96,0.14,0.83,-0.91
2022-01-30 16:34:16.5440,0.113,-0.011,-0.296,1.06,-4.37,-6.96,-0.36,0.85,-0.96
2022-01-30 16:34:16.5540,0.136,-0.087,-0.424,0.69,-4.01,-6.03,-0.88,0.92,-0.9
2022-01-30 16:34:16.5640,0.183,-0.098,-0.685,0.53,-3.19,-4.82,-1.18,1.47,-0.77
2022-01-30 16:34:16.5730,0.225,-0.099,-0.714,0.31,-2.87,-2.44,-0.97,2.83,-0.59
2022-01-30 16:34:16.5830,0.33,0.006,-0.864,-0.08,-2.77,-1.68,-0.45,4.26,-0.44
2022-01-30 16:34:16.5940,0.635,0.006,-1.302,-0.52,-3.53,-0.74,0.18,5.2,-0.16
2022-01-30 16:34:16.6040,0.941,-0.458,-1.731,-3.01,-3.9,3.53,0.79,5.55,0.41
2022-01-30 16:34:16.6140,1.172,-0.919,-2.034,-5.59,0.1,8.02,1.44,5.31,0.75
2022-01-30 16:34:16.6240,1.192,-0.898,-2.225,-7.57,5.03,11.36,2.18,4.62,0.83
2022-01-30 16:34:16.6350,1.055,-0.877,-2.253,-6.08,4.48,14.44,2.8,3.75,0.88
2022-01-30 16:34:16.6470,0.939,-0.912,-2.145,-6.08,4.48,14.44,3.07,2.76,0.85
2022-01-30 16:34:16.6570,0.871,-0.939,-1.991,-4.63,4.57,13.77,3.07,2.76,0.85
2022-01-30 16:34:16.6650,0.818,-0.962,-1.813,-3.16,4.56,11.02,2.4,0.56,0.54
2022-01-30 16:34:16.6740,0.769,-1.002,-1.658,-2.68,4.76,9.59,1.57,-0.45,0.37
2022-01-30 16:34:16.6840,0.706,-1.019,-1.523,-2.15,4.865182800292969,8.31,0.53,-1.24,0.27
2022-01-30 16:34:16.6940,0.621,-1.019,-1.415,-2.15,4.86,8.31,-0.64,-1.7,0.32
2022-01-30 16:34:16.7040,0.509,-1.071,-1.327,-1.45,4.8,7.15,-1.79,-1.8,0.52
2022-01-30 16:34:16.7140,0.373,-1.097,-1.278,-0.51,5.29,6.16,-2.77,-1.77,0.76
2022-01-30 16:34:16.7230,0.226,-1.032,-1.344,0.64,5.75,5.4,-3.38,-1.92,0.92
2022-01-30 16:34:16.7340,0.101,-0.898,-1.458,1.91,5.39,5.68,-3.48,-2.23,0.96
2022-01-30 16:34:16.7440,0.027,-0.756,-1.453,3.0,4.35,6.6,-3.16,-2.59,0.92
2022-01-30 16:34:16.7540,-0.014,-0.658,-1.399,3.56,3.16,6.46,-2.63,-3.0,0.86
2022-01-30 16:34:16.7640,-0.052,-0.578,-1.306,3.82,1.75,4.67,-2.04,-3.29,0.81
2022-01-30 16:34:16.7740,-0.082,-0.493,-1.152,3.82,1.07,3.01,-1.49,-3.4,0.73
2022-01-30 16:34:16.7840,-0.109,-0.41,-0.995,3.82,1.07,3.01,-1.01,-3.3,0.61
2022-01-30 16:34:16.7940,-0.138,-0.327,-0.827,3.77,0.35,1.31,-0.58,-2.96,0.45
2022-01-30 16:34:16.8040,-0.146,-0.259,-0.665,3.75,-0.4,-0.44,-0.22,-2.52,0.22
2022-01-30 16:34:16.8140,-0.125,-0.212,-0.533,3.19,-1.52,-3.52,0.04,-2.04,-0.06
2022-01-30 16:34:16.8240,-0.092,-0.194,-0.419,2.69,-1.74,-4.7,0.2,-1.6,-0.32
2022-01-30 16:34:16.8350,-0.059,-0.201,-0.327,2.24,-1.71,-5.65,0.25,-1.2,-0.54
2022-01-30 16:34:16.8450,-0.031,-0.219,-0.243,2.24,-1.71,-5.65,0.25,-0.85,-0.67
2022-01-30 16:34:16.8550,-0.01,-0.236,-0.172,1.61,-1.39,-7.22,0.23,-0.56,-0.74
2022-01-30 16:34:16.8640,0.004,-0.242,-0.126,1.61,-1.39,-7.22,0.22,-0.35,-0.77
2022-01-30 16:34:16.8740,0.015,-0.243,-0.102,1.45,-1.32,-7.7,0.22,-0.24,-0.77
2022-01-30 16:34:16.8850,0.023,-0.247,-0.095,1.33,-1.32,-7.95,0.22,-0.25,-0.75
2022-01-30 16:34:16.8950,0.03,-0.257,-0.099,1.19,-1.21,-8.0,0.22,-0.31,-0.71
2022-01-30 16:34:16.9050,0.04,-0.278,-0.099,1.101705183684826,-1.02,-7.99,0.24,-0.42,-0.64
2022-01-30 16:34:16.9150,0.051,-0.3,-0.106,1.1,-1.02,-7.99,0.25,-0.54,-0.55
2022-01-30 16:34:16.9240,0.062,-0.305,-0.116,0.97,-0.81,-7.94,0.27,-0.68,-0.48
2022-01-30 16:34:16.9350,0.077,-0.295,-0.133,0.83,-0.75,-7.84,0.28,-0.8,-0.43
2022-01-30 16:34:16.9440,0.088,-0.284,-0.154,0.65,-0.85,-7.68,0.29,-0.91,-0.38
2022-01-30 16:34:16.9550,0.093,-0.28,-0.186,0.48,-0.98,-7.48,0.29,-1.0,-0.34
2022-01-30 16:34:16.9640,0.1,-0.269,-0.233,0.21,-1.16,-6.74,0.28,-1.04,-0.34
2022-01-30 16:34:16.9750,0.107,-0.246,-0.284,0.21,-1.16,-6.74,0.25,-1.02,-0.36
2022-01-30 16:34:16.9840,0.109,-0.221,-0.351,0.06,-1.4,-6.25,0.25,-1.02,-0.36
2022-01-30 16:34:16.9950,0.119,-0.202,-0.459,-0.2,-1.87,-4.62,0.11,-0.88,-0.4
2022-01-30 16:34:17.0050,0.144,-0.208,-0.564,-0.48,-1.86,-3.56,0.1,-0.61,-0.35
2022-01-30 16:34:17.0150,0.185,-0.251,-0.684,-0.48,-1.86,-3.56,0.21,-0.3,-0.23
2022-01-30 16:34:17.0240,0.225,-0.293,-0.884,-1.34,-1.07,-0.57,0.52,-0.03,-0.12
2022-01-30 16:34:17.0350,0.243,-0.329,-1.078,-1.52,-0.77,1.44,1.05,0.34,-0.08
2022-01-30 16:34:17.0450,0.293,-0.385,-1.246,-1.52,-0.77,1.44,1.68,0.61,-0.14
2022-01-30 16:34:17.0550,0.418,-0.502,-1.493,-2.9700303331017497,0.53,5.51,2.21,0.68,-0.17
2022-01-30 16:34:17.0650,0.583,-0.72,-1.735,-2.98,0.53,5.51,2.49,0.45,-0.11
2022-01-30 16:34:17.0750,0.737,-0.942,-1.946,-6.01,4.4,10.28,2.56,0.1,-0.02
2022-01-30 16:34:17.0850,0.839,-1.095,-2.018,-7.1,5.75,11.31,2.54,-0.06,0.07
2022-01-30 16:34:17.0970,0.864,-1.188,-1.983,-7.1,5.75,11.31,2.47,-0.08,0.1
2022-01-30 16:34:17.1080,0.823,-1.144,-1.948,-7.44,6.55,11.14,2.47,-0.08,0.1
2022-01-30 16:34:17.1170,0.73,-1.008,-1.839,-6.25,4.6,10.13,2.05,0.33,-0.21
2022-01-30 16:34:17.1250,0.637,-0.969,-1.659,-6.25,4.6,10.13,1.65,0.74,-0.4
2022-01-30 16:34:17.1350,0.597,-1.012,-1.535,-4.71,4.15,7.28,1.14,1.01,-0.63
2022-01-30 16:34:17.1450,0.596,-1.067,-1.434,-4.71,4.15,7.28,0.56,1.1,-0.93
2022-01-30 16:34:17.1560,0.597,-1.06,-1.35,-4.44,4.64,5.55,-0.12,1.01,-1.29
2022-01-30 16:34:17.1650,0.58,-1.016,-1.285,-4.44,4.64,5.55,-0.88,0.86,-1.55
2022-01-30 16:34:17.1750,0.545,-1.007,-1.204,-3.66,4.22,4.09,-1.59,0.71,-1.6
2022-01-30 16:34:17.1860,0.492,-0.958,-1.14,-3.02,4.01,3.34,-2.09,0.5,-1.49
2022-01-30 16:34:17.1950,0.424,-0.821,-1.098,-2.25,2.94,2.81,-2.29,0.19,-1.27
2022-01-30 16:34:17.2060,0.353,-0.664,-1.047,-1.48,1.6,2.22,-2.2,-0.2,-0.98
2022-01-30 16:34:17.2160,0.285,-0.528,-0.96,-1.48,1.6,2.22,-1.88,-0.58,-0.64
2022-01-30 16:34:17.2260,0.226,-0.427,-0.854,-0.22,-0.44,0.17,-1.45,-0.89,-0.3
2022-01-30 16:34:17.2360,0.178,-0.348,-0.744,-0.22,-0.44,0.17,-1.0,-1.11,0.01
2022-01-30 16:34:17.2450,0.142,-0.281,-0.65,0.21,-1.1,-1.01,-0.62,-1.25,0.28
2022-01-30 16:34:17.2560,0.11,-0.232,-0.552,0.67,-2.16,-3.01,-0.33,-1.26,0.5
2022-01-30 16:34:17.2660,0.088,-0.198,-0.456,0.77,-2.48,-4.0,-0.14,-1.12,0.69
2022-01-30 16:34:17.2760,0.066,-0.175,-0.364,0.77,-2.48,-4.0,-0.03,-0.83,0.82
2022-01-30 16:34:17.2860,0.049,-0.16,-0.282,0.86,-2.73,-4.93,0.02,-0.43,0.93
2022-01-30 16:34:17.2960,0.032,-0.148,-0.215,1.02,-3.02,-6.44,0.06,0.02,1.0
2022-01-30 16:34:17.3060,0.02,-0.14,-0.16,1.11,-3.13,-6.99,0.12,0.47,1.04
2022-01-30 16:34:17.3160,0.013,-0.138,-0.121,1.11,-3.13,-6.99,0.18,0.86,1.05
2022-01-30 16:34:17.3260,0.008,-0.139,-0.102,1.18,-3.17,-7.39,0.27,1.14,1.03
2022-01-30 16:34:17.3360,0.003,-0.141,-0.102,1.3643530476093293,-3.22,-7.57,0.36,1.27,0.99
2022-01-30 16:34:17.3460,0.0,-0.146,-0.121,1.36,-3.22,-7.57,0.44,1.25,0.9
2022-01-30 16:34:17.3570,-0.002,-0.157,-0.144,1.46,-3.21,-7.37,0.5,1.14,0.79
2022-01-30 16:34:17.3660,-0.005,-0.168,-0.162,1.63,-3.11,-6.88,0.53,0.95,0.66
2022-01-30 16:34:17.3760,-0.013,-0.182,-0.184,1.74,-3.03,-6.63,0.53,0.73,0.52
2022-01-30 16:34:17.3860,-0.024,-0.186,-0.205,1.89,-3.02,-6.39,0.52,0.51,0.38
2022-01-30 16:34:17.3960,-0.039,-0.177,-0.23,1.89,-3.02,-6.39,0.5,0.29,0.23
2022-01-30 16:34:17.4050,-0.051,-0.15,-0.263,2.19,-3.43,-5.78,0.49,0.06,0.04
2022-01-30 16:34:17.4160,-0.062,-0.107,-0.313,2.19,-3.43,-5.78,0.47,-0.18,-0.2
2022-01-30 16:34:17.4270,-0.076,-0.066,-0.386,2.43,-4.33,-4.56,0.45,-0.35,-0.48
2022-01-30 16:34:17.4370,-0.082,-0.047,-0.439,2.43,-4.33,-4.56,0.45,-0.39,-0.78
2022-01-30 16:34:17.4460,-0.078,-0.046,-0.484,2.5,-4.57,-3.99,0.45,-0.27,-1.09
2022-01-30 16:34:17.4560,-0.075,-0.042,-0.55,2.47,-4.62,-3.55,0.43,0.06,-1.38
2022-01-30 16:34:17.4660,-0.054,-0.033,-0.591,2.49,-4.66,-2.9,0.37,0.75,-1.58
2022-01-30 16:34:17.4760,-0.02,-0.068,-0.616,2.39,-4.77,-2.42,0.26,1.7,-1.67
2022-01-30 16:34:17.4870,0.045,-0.152,-0.752,2.22,-4.5,-2.18,0.13,2.53,-1.66
2022-01-30 16:34:17.4970,0.134,-0.285,-1.006,1.87,-3.71,-0.97,0.1,2.94,-1.58
2022-01-30 16:34:17.5070,0.24,-0.489,-1.275,1.3,-2.45,1.48,0.36,2.95,-1.44
2022-01-30 16:34:17.5160,0.361,-0.674,-1.461,-0.27,1.45,6.29,0.84,2.66,-1.32
2022-01-30 16:34:17.5270,0.465,-0.764,-1.59,-1.07,2.37,7.76,1.32,2.29,-1.18
2022-01-30 16:34:17.5370,0.507,-0.876,-1.624,-1.07,2.37,7.76,1.63,2.04,-0.94
2022-01-30 16:34:17.5470,0.516,-0.981,-1.605,-1.23,4.37,8.35,1.76,1.86,-0.72
2022-01-30 16:34:17.5570,0.537,-1.003,-1.561,-1.23,4.37,8.35,1.76,1.86,-0.72
2022-01-30 16:34:17.5670,0.576,-1.071,-1.491,-1.24,4.53,8.15,1.72,1.42,-0.58
2022-01-30 16:34:17.5770,0.64,-1.214,-1.431,-1.9170058509707453,6.23,7.17,1.51,0.99,-0.59
2022-01-30 16:34:17.5870,0.728,-1.372,-1.406,-1.92,6.23,7.17,1.08,0.31,-0.63
2022-01-30 16:34:17.5970,0.792,-1.484,-1.427,-2.67,7.74,6.96,0.44,-0.41,-0.65
2022-01-30 16:34:17.6070,0.795,-1.536,-1.366,-3.31,8.86,7.24,-0.31,-0.93,-0.57
2022-01-30 16:34:17.6170,0.748,-1.505,-1.29,-3.42,9.47,6.76,-1.09,-1.32,-0.41
2022-01-30 16:34:17.6270,0.673,-1.452,-1.294,-3.03,9.3,5.88,-1.81,-1.66,-0.2
2022-01-30 16:34:17.6370,0.557,-1.365,-1.366,-2.41,8.89,5.7,-1.81,-1.66,-0.2
2022-01-30 16:34:17.6470,0.413,-1.201,-1.447,-0.18,6.89,6.78,-2.53,-2.41,0.1
2022-01-30 16:34:17.6580,0.287,-1.037,-1.498,-0.18,6.89,6.78,-2.45,-2.79,0.19
2022-01-30 16:34:17.6670,0.187,-0.921,-1.507,0.9,5.41,7.09,-2.1,-3.1,0.25
2022-01-30 16:34:17.6770,0.111,-0.814,-1.446,1.68,4.41,7.03,-1.56,-3.28,0.24
2022-01-30 16:34:17.6870,0.052,-0.689,-1.323,2.52,2.43,5.0,-1.56,-3.28,0.24
2022-01-30 16:34:17.6970,0.008,-0.565,-1.146,2.69,1.26,3.18,-0.52,-3.12,0.12
2022-01-30 16:34:17.7070,-0.015,-0.469,-0.95,2.69,1.26,3.18,-0.21,-2.79,0.04
2022-01-30 16:34:17.7180,-0.023,-0.4,-0.761,2.67,0.32,1.15,-0.05,-2.37,-0.06
2022-01-30 16:34:17.7270,-0.014,-0.341,-0.594,2.54,-0.37,-0.79,-0.0,-1.92,-0.17
2022-01-30 16:34:17.7370,0.005,-0.289,-0.461,2.28,-0.94,-2.52,-0.01,-1.52,-0.32
2022-01-30 16:34:17.7480,0.028,-0.245,-0.363,1.94,-1.45,-3.92,-0.06,-1.17,-0.49
2022-01-30 16:34:17.7580,0.051,-0.211,-0.292,1.31,-2.22,-5.69,-0.11,-0.9,-0.66
2022-01-30 16:34:17.7680,0.071,-0.185,-0.239,1.31,-2.22,-5.69,-0.16,-0.68,-0.8
2022-01-30 16:34:17.7770,0.086,-0.166,-0.2,1.06,-2.46,-6.24,-0.18,-0.5,-0.91
2022-01-30 16:34:17.7880,0.097,-0.156,-0.175,0.89,-2.62,-6.67,-0.15,-0.35,-0.97
2022-01-30 16:34:17.7970,0.105,-0.148,-0.151,0.7,-2.74,-7.19,-0.06,-0.24,-0.98
2022-01-30 16:34:17.8080,0.105,-0.138,-0.134,0.7,-2.74,-7.19,0.08,-0.18,-0.93
2022-01-30 16:34:17.8170,0.101,-0.125,-0.122,0.7,-2.82,-7.37,0.24,-0.18,-0.83
2022-01-30 16:34:17.8280,0.103,-0.125,-0.117,0.77,-2.94,-7.5,0.35,-0.24,-0.69
2022-01-30 16:34:17.8380,0.114,-0.144,-0.13,0.78,-2.97,-7.55,0.35,-0.24,-0.69
2022-01-30 16:34:17.8480,0.125,-0.171,-0.151,0.69,-2.82,-7.44,0.46,-0.58,-0.32
2022-01-30 16:34:17.8580,0.135,-0.187,-0.167,0.42,-2.44,-7.05,0.46,-0.58,-0.32
2022-01-30 16:34:17.8680,0.138,-0.184,-0.182,0.42,-2.44,-7.05,0.44,-1.0,0.03
2022-01-30 16:34:17.8780,0.133,-0.171,-0.198,0.26,-2.65,-6.73,0.43,-1.19,0.16
2022-01-30 16:34:17.8880,0.121,-0.154,-0.216,0.26,-2.85,-6.57,0.42,-1.34,0.24
2022-01-30 16:34:17.8980,0.111,-0.132,-0.237,0.26,-2.85,-6.57,0.42,-1.41,0.27
2022-01-30 16:34:17.9080,0.097,-0.113,-0.255,0.23,-3.33,-6.19,0.43,-1.4,0.26
2022-01-30 16:34:17.9180,0.086,-0.095,-0.287,0.23,-3.33,-6.19,0.43,-1.34,0.2
2022-01-30 16:34:17.9280,0.074,-0.069,-0.363,0.21,-3.54,-5.9,0.44,-1.21,0.09
2022-01-30 16:34:17.9380,0.052,-0.037,-0.454,0.2,-3.82,-5.21,0.46,-0.95,-0.04
2022-01-30 16:34:17.9480,0.046,-0.036,-0.546,0.3,-4.18,-4.3,0.51,-0.53,-0.18
2022-01-30 16:34:17.9590,0.083,-0.084,-0.642,0.32,-4.28,-3.39,0.61,0.06,-0.32
2022-01-30 16:34:17.9680,0.142,-0.172,-0.757,-0.56,-3.13,-1.3,0.75,0.79,-0.42
2022-01-30 16:34:17.9790,0.211,-0.268,-0.888,-0.56,-3.13,-1.3,0.89,1.62,-0.43
2022-01-30 16:34:17.9880,0.319,-0.425,-1.069,-1.93,-0.93,1.76,0.99,2.33,-0.29
2022-01-30 16:34:17.9980,0.509,-0.708,-1.308,-1.93,-0.93,1.76,0.98,2.53,-0.09
2022-01-30 16:34:18.0070,0.722,-0.925,-1.625,-5.41,3.92,7.23,0.84,2.13,-0.05
2022-01-30 16:34:18.0190,0.833,-0.984,-1.838,-6.48,4.55,9.63,0.72,1.55,-0.16
2022-01-30 16:34:18.0280,0.856,-1.028,-1.903,-6.48,4.55,9.63,0.72,1.55,-0.16
2022-01-30 16:34:18.0390,0.855,-1.005,-1.947,-6.57,4.81,10.92,0.47,0.49,-0.57
2022-01-30 16:34:18.0480,0.817,-0.9,-1.922,-6.57,4.81,10.92,0.24,0.29,-0.78
2022-01-30 16:34:18.0600,0.778,-0.856,-1.803,-6.16,3.76,10.84,-0.09,0.39,-0.84
2022-01-30 16:34:18.0690,0.788,-0.865,-1.7,-5.64,3.3,8.67,-0.54,0.62,-0.75
2022-01-30 16:34:18.0790,0.84,-0.913,-1.655,-6.03,3.8,8.16,-1.06,0.84,-0.5
2022-01-30 16:34:18.0890,0.874,-0.952,-1.621,-6.03,3.8,8.16,-1.57,0.97,-0.16
2022-01-30 16:34:18.0990,0.86,-0.926,-1.585,-6.32,4.35,7.79,-1.57,0.97,-0.16
2022-01-30 16:34:18.1090,0.806,-0.884,-1.543,-5.6,4.04,6.9,-2.34,0.93,0.66
2022-01-30 16:34:18.1190,0.712,-0.83,-1.495,-4.69,3.73,6.35,-2.34,0.93,0.66
2022-01-30 16:34:18.1280,0.603,-0.753,-1.419,-4.69,3.73,6.35,-2.18,0.54,1.23
2022-01-30 16:34:18.1380,0.5,-0.671,-1.308,-2.58,2.52,4.44,-1.81,0.25,1.34
2022-01-30 16:34:18.1490,0.409,-0.586,-1.171,-2.58,2.52,4.44,-1.42,-0.05,1.39
2022-01-30 16:34:18.1590,0.334,-0.513,-1.006,-1.02,1.15,1.41,-1.1,-0.34,1.41
2022-01-30 16:34:18.1690,0.27,-0.443,-0.848,-1.02,1.15,1.41,-0.89,-0.63,1.43
2022-01-30 16:34:18.1790,0.21,-0.362,-0.709,0.01,-0.21,-1.65,-0.78,-0.9,1.43
2022-01-30 16:34:18.1900,0.159,-0.285,-0.59,0.39173041194677355,-0.94,-2.9,-0.75,-1.1,1.41
2022-01-30 16:34:18.1990,0.118,-0.229,-0.498,0.39,-0.94,-2.9,-0.8,-1.19,1.39
2022-01-30 16:34:18.2090,0.084,-0.178,-0.421,0.64,-1.47,-3.89,-0.8,-1.19,1.39
2022-01-30 16:34:18.2190,0.051,-0.135,-0.364,0.83,-1.91,-4.7,-0.96,-0.96,1.36
2022-01-30 16:34:18.2290,0.018,-0.115,-0.334,1.0,-2.3,-5.35,-0.99,-0.68,1.39
2022-01-30 16:34:18.2390,-0.014,-0.103,-0.306,1.19,-2.45,-5.72,-0.93,-0.31,1.42
2022-01-30 16:34:18.2490,-0.041,-0.095,-0.28,1.6,-2.52,-6.33,-0.75,0.07,1.43
2022-01-30 16:34:18.2590,-0.062,-0.087,-0.267,1.6,-2.52,-6.33,-0.46,0.39,1.42
2022-01-30 16:34:18.2690,-0.079,-0.078,-0.272,1.78,-2.54,-6.5,-0.13,0.58,1.34
2022-01-30 16:34:18.2790,-0.09,-0.07,-0.296,1.93,-2.61,-6.48,-0.13,0.58,1.34
2022-01-30 16:34:18.2890,-0.093,-0.073,-0.32,2.12,-2.73,-6.0,0.45,0.58,1.0
2022-01-30 16:34:18.2990,-0.092,-0.085,-0.349,2.12,-2.73,-6.0,0.6,0.42,0.77
2022-01-30 16:34:18.3090,-0.091,-0.095,-0.381,2.13,-2.62,-5.37,0.64,0.23,0.52
2022-01-30 16:34:18.3200,-0.092,-0.102,-0.393,2.13,-2.62,-5.37,0.61,0.07,0.28
2022-01-30 16:34:18.3290,-0.086,-0.101,-0.396,2.14,-2.61,-5.19,0.56,-0.03,0.05
2022-01-30 16:34:18.3400,-0.074,-0.088,-0.407,2.09,-2.66,-5.14,0.5,-0.05,-0.17
2022-01-30 16:34:18.3490,-0.058,-0.064,-0.426,1.82,-3.11,-4.83,0.46,0.02,-0.36
2022-01-30 16:34:18.3610,-0.04,-0.047,-0.449,1.82,-3.11,-4.83,0.46,0.16,-0.51
2022-01-30 16:34:18.3700,-0.019,-0.04,-0.476,1.5,-3.42,-4.32,0.46,0.16,-0.51
2022-01-30 16:34:18.3800,0.003,-0.033,-0.531,1.5,-3.42,-4.32,0.51,0.47,-0.74
2022-01-30 16:34:18.3900,0.018,-0.028,-0.608,1.34,-3.52,-3.8,0.53,0.63,-0.82
2022-01-30 16:34:18.4000,0.038,-0.051,-0.666,1.26,-3.62,-3.03,0.55,0.87,-0.89
2022-01-30 16:34:18.4090,0.065,-0.088,-0.727,1.16,-3.47,-2.39,0.55,1.19,-0.97
2022-01-30 16:34:18.4200,0.092,-0.102,-0.824,1.02,-3.13,-1.79,0.49,1.5,-1.04
2022-01-30 16:34:18.4300,0.118,-0.127,-0.972,0.82,-2.81,0.6,0.45,1.71,-1.04
2022-01-30 16:34:18.4400,0.159,-0.201,-1.124,0.63,-2.17,2.17,0.57,1.84,-0.89
2022-01-30 16:34:18.4500,0.22,-0.311,-1.255,0.63,-2.17,2.17,0.86,1.92,-0.63
2022-01-30 16:34:18.4610,0.302,-0.415,-1.388,0.26,-1.16,3.53,1.23,1.89,-0.41
2022-01-30 16:34:18.4700,0.39,-0.511,-1.493,-0.33,-0.17,4.91,1.57,1.84,-0.24
2022-01-30 16:34:18.4800,0.446,-0.63,-1.526,-1.47,1.69,6.65,1.8,1.85,-0.14
2022-01-30 16:34:18.4900,0.463,-0.718,-1.496,-1.47,1.69,6.65,1.85,1.95,-0.16
2022-01-30 16:34:18.5000,0.473,-0.759,-1.434,-1.51,2.47,6.56,1.68,2.04,-0.24
2022-01-30 16:34:18.5100,0.494,-0.83,-1.401,-1.44,2.76,6.09,1.68,2.04,-0.24
2022-01-30 16:34:18.5200,0.543,-0.923,-1.423,-1.73,4.1,6.14,0.7,1.47,-0.37
2022-01-30 16:34:18.5300,0.601,-0.993,-1.455,-1.73,4.1,6.14,-0.02,0.79,-0.37
2022-01-30 16:34:18.5400,0.633,-1.044,-1.49,-2.19,4.8,6.53,-0.77,-0.01,-0.27
2022-01-30 16:34:18.5510,0.627,-1.066,-1.535,-2.4581104034185413,5.67,7.25,-1.46,-0.87,-0.04
2022-01-30 16:34:18.5610,0.568,-1.063,-1.605,-2.0193023040890696,5.80108170568943,7.852671457529069,-2.01,-1.64,0.31
2022-01-30 16:34:18.5700,0.467,-1.028,-1.636,-2.02,5.8,7.85,-2.37,-2.33,0.72
2022-01-30 16:34:18.5800,0.341,-0.935,-1.708,-1.23,5.65,8.02,-2.51,-3.05,1.08
2022-01-30 16:34:18.5900,0.183,-0.81,-1.806,-0.25,4.98,8.45,-2.32,-3.72,1.31
2022-01-30 16:34:18.6000,0.036,-0.704,-1.784,2.07,3.02,9.04,-1.82,-4.1,1.4
2022-01-30 16:34:18.6110,-0.065,-0.606,-1.633,2.71,2.18,7.48,-1.19,-4.18,1.36
2022-01-30 16:34:18.6210,-0.121,-0.525,-1.454,2.71,2.18,7.48,-0.69,-3.98,1.17
2022-01-30 16:34:18.6300,-0.135,-0.463,-1.247,2.68,0.85,3.54,-0.45,-3.51,0.87
2022-01-30 16:34:18.6410,-0.135,-0.404,-1.036,2.68,0.85,3.54,-0.45,-3.51,0.87
2022-01-30 16:34:18.6510,-0.128,-0.34,-0.832,2.02,-0.2658343040943146,-0.657518230676651,-0.68,-2.11,0.17
2022-01-30 16:34:18.6610,-0.107,-0.27,-0.659,2.02,-0.27,-2.4484525573253633,-0.97,-1.36,-0.17
2022-01-30 16:34:18.6710,-0.08,-0.212,-0.546,1.27,-1.39,-3.69,-1.26,-0.74,-0.47
2022-01-30 16:34:18.6810,-0.041,-0.173,-0.481,0.87,-1.68,-4.42,-1.5,-0.27,-0.69
2022-01-30 16:34:18.6910,0.013,-0.168,-0.454,0.35,-1.63,-4.78,-1.62,0.01,-0.83
2022-01-30 16:34:18.7010,0.063,-0.196,-0.454,0.35,-1.63,-4.78,-1.62,0.01,-0.83
2022-01-30 16:34:18.7110,0.103,-0.236,-0.456,-0.49,-0.69,-4.88,-1.31,0.16,-0.79
2022-01-30 16:34:18.7210,0.134,-0.265,-0.461,-0.49,-0.69,-4.88,-0.86,0.06,-0.64
2022-01-30 16:34:18.7310,0.149,-0.273,-0.456,-0.77,-0.26,-4.86,-0.27,-0.09,-0.47
2022-01-30 16:34:18.7400,0.148,-0.271,-0.436,-0.92,-0.08,-4.92,0.36,-0.23,-0.28
2022-01-30 16:34:18.7510,0.133,-0.257,-0.382,-0.81,-0.23,-5.57,0.9535056948661804,-0.26,-0.1
2022-01-30 16:34:18.7610,0.113,-0.237,-0.319,-0.81,-0.23,-5.57,1.43,-0.23,0.06
2022-01-30 16:34:18.7710,0.098,-0.224,-0.269,-0.63,-0.52,-6.17,1.75,-0.17,0.19
2022-01-30 16:34:18.7810,0.09,-0.218,-0.226,-0.44,-1.03,-7.01,1.96,-0.08,0.23
2022-01-30 16:34:18.7910,0.081,-0.214,-0.187,-0.44,-1.03,-7.01,2.03,0.02,0.17
2022-01-30 16:34:18.8010,0.07,-0.198,-0.16,-0.37,-1.24,-7.33,1.99,0.09,0.03
2022-01-30 16:34:18.8120,0.07,-0.192,-0.163,-0.26,-1.58,-7.56,1.84,0.1,-0.16
2022-01-30 16:34:18.8220,0.081,-0.205,-0.191,-0.24,-1.84,-7.49,1.61,0.01,-0.37
2022-01-30 16:34:18.8310,0.067,-0.199,-0.276,-0.32,-1.89,-7.2,1.32,-0.22,-0.52
2022-01-30 16:34:18.8410,0.052,-0.163,-0.377,-0.24,-2.03,-6.37,1.1,-0.42,-0.79
2022-01-30 16:34:18.8510,0.066,-0.186,-0.427,-0.2,-2.44,-4.73,0.99,-0.54,-0.98
2022-01-30 16:34:18.8610,0.018,-0.187,-0.514,0.24,-2.4,-3.92,0.97,-0.63,-1.16
2022-01-30 16:34:18.8700,0.031,-0.082,-0.651,0.21,-3.45,-2.54,1.0,-0.64,-1.36
2022-01-30 16:34:18.8800,0.094,-0.075,-0.73,-0.37,-3.82,-1.64,1.04,-0.51,-1.47
2022-01-30 16:34:18.8900,0.179,-0.219,-0.831,-1.16,-2.6,-0.74,1.01,-0.53,-1.46
2022-01-30 16:34:18.9000,0.263,-0.369,-1.079,-1.16,-2.6,-0.74,1.01,-0.53,-1.46
2022-01-30 16:34:18.9100,0.321,-0.451,-1.299,-1.98,-1.15,1.61,0.84,-1.17,-1.3
2022-01-30 16:34:18.9200,0.317,-0.483,-1.486,-2.61,-0.34,3.91,0.78,-1.44,-1.17
2022-01-30 16:34:18.9310,0.277,-0.465,-1.648,-2.38,-0.24,7.49,0.75,-1.13,-0.97
2022-01-30 16:34:18.9420,0.219,-0.521,-1.723,-1.85,0.12,8.28,0.9,-0.35,-0.58
2022-01-30 16:34:18.9510,0.206,-0.633,-1.832,-1.85,0.12,8.28,1.34,0.25,-0.2
2022-01-30 16:34:18.9620,0.305,-0.679,-1.923,-2.42,1.54,10.41,1.82,0.78,0.01
2022-01-30 16:34:18.9710,0.399,-0.747,-1.889,-2.42,1.54,10.41,2.13,1.1,0.19
2022-01-30 16:34:18.9820,0.362,-0.748,-1.819,-3.44,2.02,10.32,2.12,1.28,0.42
2022-01-30 16:34:18.9910,0.307,-0.762,-1.66,-3.1,1.97,9.79,1.8,1.45,0.69
2022-01-30 16:34:19.0020,0.309,-0.874,-1.496,-2.45,1.82,8.46,1.8,1.45,0.69
2022-01-30 16:34:19.0120,0.342,-1.015,-1.402,-2.31,2.68,5.967039134502412,0.62,1.21,1.17
2022-01-30 16:34:19.0220,0.336,-1.131,-1.335,-2.59,3.97,5.96,0.62,1.21,1.17
2022-01-30 16:34:19.0320,0.277,-1.186,-1.277,-2.57,5.12,5.35,-0.53,0.26,1.36
2022-01-30 16:34:19.0420,0.188,-1.187,-1.227,-2.07,5.73,4.75,-0.9,-0.29,1.33
2022-01-30 16:34:19.0520,0.092,-1.122,-1.176,-0.46,5.36,3.67,-0.9,-0.29,1.33
2022-01-30 16:34:19.0630,-0.009,-1.001,-1.141,-0.46,5.36,3.67,-1.26,-1.43,1.01
2022-01-30 16:34:19.0720,-0.094,-0.861,-1.099,0.4,4.3,3.23,-1.26,-1.43,1.01
2022-01-30 16:34:19.0820,-0.149,-0.719,-1.024,1.09,3.05,2.78,-1.24,-1.94,0.76
2022-01-30 16:34:19.0920,-0.176,-0.587,-0.932,1.46,1.74,2.01,-0.86,-2.57,0.33
2022-01-30 16:34:19.1030,-0.178,-0.469,-0.824,1.3631552454829217,-0.59,-0.02,-0.6,-2.63,0.22
2022-01-30 16:34:19.1120,-0.164,-0.371,-0.709,1.0,-1.53,-1.16,-0.32,-2.51,0.17
2022-01-30 16:34:19.1220,-0.146,-0.293,-0.594,1.0,-1.53,-1.16,-0.05,-2.24,0.19
2022-01-30 16:34:19.1320,-0.122,-0.242,-0.489,0.62,-2.29,-2.29,0.19,-1.87,0.23
2022-01-30 16:34:19.1420,-0.094,-0.217,-0.401,0.2,-2.82,-3.31,0.4,-1.45,0.28
2022-01-30 16:34:19.1520,-0.071,-0.205,-0.322,-0.25,-3.11,-4.17,0.4,-1.45,0.28
2022-01-30 16:34:19.1630,-0.059,-0.192,-0.244,-0.61,-3.26,-4.91,0.72,-0.58,0.32
2022-01-30 16:34:19.1720,-0.053,-0.174,-0.173,-0.84,-3.42,-5.63,0.85,-0.19,0.28
2022-01-30 16:34:19.1820,-0.044,-0.16,-0.117,-1.06,-3.87,-6.82,0.93,0.12,0.21
2022-01-30 16:34:19.1930,-0.031,-0.153,-0.076,-1.19,-4.02,-7.19,0.97,0.35,0.1
2022-01-30 16:34:19.2030,-0.019,-0.151,-0.05,-1.29,-4.11,-7.41,0.96,0.48,-0.01
2022-01-30 16:34:19.2130,-0.013,-0.158,-0.038,-1.31,-4.13,-7.5,0.89,0.54,-0.11
2022-01-30 16:34:19.2230,-0.005,-0.166,-0.032,-1.31,-4.13,-7.5,0.78,0.55,-0.2
2022-01-30 16:34:19.2330,0.004,-0.165,-0.032,-1.37,-4.17,-7.5,0.65,0.53,-0.27
2022-01-30 16:34:19.2430,0.01,-0.155,-0.037,-1.38,-4.33,-7.42,0.51,0.51,-0.32
2022-01-30 16:34:19.2530,0.01,-0.173,-0.041,-1.33,-4.22,-7.37,0.35,0.46,-0.34
2022-01-30 16:34:19.2640,0.011,-0.18,-0.077,-1.28,-4.14,-7.06,0.17,0.32,-0.39
2022-01-30 16:34:19.2730,0.016,-0.169,-0.139,-1.28,-4.26,-6.45,-0.03,0.13,-0.47
2022-01-30 16:34:19.2830,0.015,-0.167,-0.188,-1.24,-4.3,-5.95,-0.19,-0.0,-0.56
2022-01-30 16:34:19.2930,0.001,-0.168,-0.225,-1.24,-4.3,-5.95,-0.32,-0.03,-0.67
2022-01-30 16:34:19.3030,-0.017,-0.164,-0.278,-1.08,-4.28,-5.6,-0.42,-0.01,-0.76
2022-01-30 16:34:19.3130,-0.027,-0.172,-0.37,-0.87,-4.29,-5.13,-0.46,-0.02,-0.84
2022-01-30 16:34:19.3230,-0.024,-0.205,-0.514,-0.71,-4.21,-4.32,-0.39,-0.01,-0.88
2022-01-30 16:34:19.3330,-0.01,-0.284,-0.667,-0.78,-3.17,-1.5,-0.17,0.09,-0.88
2022-01-30 16:34:19.3430,-0.035,-0.396,-0.829,-0.5,-2.07,0.07,0.17,0.36,-0.92
2022-01-30 16:34:19.3530,-0.038,-0.47,-0.969,-0.35,-1.3,1.5,0.46,0.88,-1.06
2022-01-30 16:34:19.3640,-0.053,-0.532,-1.114,-0.09,-0.77,2.89,0.61,1.49,-1.25
2022-01-30 16:34:19.3730,-0.07,-0.646,-1.275,-0.09,-0.77,2.89,0.69,2.03,-1.4
2022-01-30 16:34:19.3830,-0.056,-0.784,-1.44,0.29,0.23,4.51,0.77,2.3,-1.48
2022-01-30 16:34:19.3930,-0.027,-0.898,-1.59,0.43,2.62,7.74,0.91,2.3,-1.49
2022-01-30 16:34:19.4030,0.007,-0.994,-1.667,0.37,3.51,8.63,1.09,2.03,-1.4
2022-01-30 16:34:19.4130,0.045,-1.085,-1.706,0.23,4.33,9.12,1.21,1.56,-1.26
2022-01-30 16:34:19.4240,0.073,-1.15,-1.702,0.23,4.33,9.12,1.2,1.03,-1.11
2022-01-30 16:34:19.4330,0.072,-1.18,-1.628,0.24,5.18,8.69,1.0,0.62,-0.94
2022-01-30 16:34:19.4430,0.059,-1.211,-1.514,0.24,5.18,8.69,0.64,0.32,-0.74
2022-01-30 16:34:19.4540,0.046,-1.255,-1.413,0.66,5.81,6.66,0.18,0.12,-0.54
2022-01-30 16:34:19.4640,0.042,-1.3,-1.319,0.75,6.24,5.76,-0.33,-0.02,-0.3
2022-01-30 16:34:19.4730,0.039,-1.34,-1.228,0.75,6.24,5.76,-0.81,-0.14,-0.02
2022-01-30 16:34:19.4840,0.041,-1.378,-1.145,0.8,6.68,4.82,-1.26,-0.21,0.33
2022-01-30 16:34:19.4940,0.056,-1.448,-1.053,0.6,7.84,2.97,-1.66,-0.21,0.72
2022-01-30 16:34:19.5040,0.062,-1.499,-0.986,0.6,7.84,2.97,-2.03,-0.26,1.04
2022-01-30 16:34:19.5140,0.03,-1.42,-0.98,0.45,8.56,2.15,-2.32,-0.42,1.16
2022-01-30 16:34:19.5240,-0.041,-1.24,-0.978,0.62,8.11,1.88,-2.47,-0.6,1.1
2022-01-30 16:34:19.5340,-0.099,-1.055,-0.936,1.19,6.58,1.77,-2.45,-0.82,0.94
2022-01-30 16:34:19.5430,-0.125,-0.888,-0.912,1.69,4.93,1.23,-2.45,-0.82,0.94
2022-01-30 16:34:19.5540,-0.129,-0.727,-0.909,1.78,2.06,0.66,-2.06,-1.53,0.51
2022-01-30 16:34:19.5640,-0.122,-0.588,-0.884,1.56,0.84,0.33,-1.74,-1.87,0.27
2022-01-30 16:34:19.5740,-0.112,-0.472,-0.839,1.28,-0.18,-0.19,-1.4,-2.03,0.01
2022-01-30 16:34:19.5840,-0.11,-0.376,-0.774,1.28,-0.18,-0.19,-1.06,-1.9,-0.25
2022-01-30 16:34:19.5940,-0.103,-0.296,-0.671,1.09,-1.03,-0.85,-0.77,-1.52,-0.47
2022-01-30 16:34:19.6040,-0.082,-0.236,-0.582,0.89,-1.75,-1.88,-0.56,-0.98,-0.6
2022-01-30 16:34:19.6140,-0.055,-0.206,-0.515,0.28,-2.58,-3.53,-0.42,-0.4,-0.62
2022-01-30 16:34:19.6240,-0.026,-0.187,-0.452,0.28,-2.58,-3.53,-0.42,-0.4,-0.62
2022-01-30 16:34:19.6340,0.007,-0.17,-0.395,0.0,-2.74,-4.16,-0.19,0.74,-0.39
2022-01-30 16:34:19.6440,0.038,-0.168,-0.351,-0.27,-2.89,-4.74,-0.05,1.17,-0.17
2022-01-30 16:34:19.6540,0.067,-0.176,-0.321,-0.49,-2.91,-5.21,0.12,1.46,0.08
2022-01-30 16:34:19.6650,0.093,-0.185,-0.294,-0.66,-2.83,-5.52,0.31,1.62,0.32
2022-01-30 16:34:19.6730,0.109,-0.19,-0.278,-0.81,-2.75,-5.78,0.51,1.63,0.55
2022-01-30 16:34:19.6840,0.112,-0.19,-0.275,-0.85,-2.766276209950447,-5.95,0.67,1.5,0.73
2022-01-30 16:34:19.6940,0.109,-0.183,-0.28,-0.79,-2.77,-5.95,0.78,1.24,0.86
2022-01-30 16:34:19.7040,0.097,-0.185,-0.28,-0.67,-2.89,-5.86,0.78,1.24,0.86
2022-01-30 16:34:19.7140,0.09,-0.192,-0.268,-0.39,-2.96,-5.87,0.94,0.67,0.97
2022-01-30 16:34:19.7250,0.081,-0.185,-0.249,-0.39,-2.96,-5.87,1.01,0.39,0.96
2022-01-30 16:34:19.7350,0.069,-0.176,-0.255,-0.3,-3.11,-6.02,1.01,0.39,0.96
2022-01-30 16:34:19.7450,0.053,-0.17,-0.256,-0.2,-3.29,-5.847094615101814,1.12,-0.08,0.84
2022-01-30 16:34:19.7540,0.035,-0.163,-0.261,0.04,-3.6,-5.76,1.14,-0.25,0.75
2022-01-30 16:34:19.7650,0.018,-0.15,-0.282,0.14,-3.82,-5.51,1.11,-0.35,0.64
2022-01-30 16:34:19.7740,-0.006,-0.146,-0.308,0.31,-3.97,-5.2,1.01,-0.31,0.55
2022-01-30 16:34:19.7850,-0.029,-0.16,-0.336,0.49,-3.94,-4.89,0.85,-0.13,0.49
2022-01-30 16:34:19.7950,-0.039,-0.199,-0.403,0.49,-3.94,-4.26211501121521,0.59,0.12,0.44
2022-01-30 16:34:19.8040,-0.052,-0.267,-0.542,0.57,-3.66,-4.27,0.29,0.36,0.41
2022-01-30 16:34:19.8140,-0.065,-0.352,-0.709,0.67,-3.07,-2.96,0.06,0.67,0.42
2022-01-30 16:34:19.8240,-0.035,-0.483,-0.836,0.82,-2.28,-1.29,0.07,1.08,0.45
2022-01-30 16:34:19.8350,0.044,-0.647,-0.96,-0.03,0.54,1.21,0.29,1.53,0.4
2022-01-30 16:34:19.8450,0.156,-0.774,-1.117,-0.03,0.54,1.21,0.54,1.77,0.18
2022-01-30 16:34:19.8550,0.253,-0.896,-1.33,-1.0,1.81,2.72,0.7,1.69,-0.11
2022-01-30 16:34:19.8650,0.298,-1.035,-1.513,-1.87,2.93,4.8,0.7,1.69,-0.11
2022-01-30 16:34:19.8750,0.326,-1.129,-1.594,-2.22,4.25,6.74,0.91,1.15,-0.72
2022-01-30 16:34:19.8850,0.387,-1.184,-1.635,-2.76,5.68,8.18,0.91,1.15,-0.72
2022-01-30 16:34:19.8950,0.467,-1.234,-1.652,-2.76,5.68,8.18,0.85,0.31,-1.25
2022-01-30 16:34:19.9050,0.514,-1.237,-1.592,-3.86,6.17,8.04,0.6,0.04,-1.32
2022-01-30 16:34:19.9150,0.526,-1.228,-1.476,-3.93,6.05,6.95,0.16,-0.07,-1.25
2022-01-30 16:34:19.9250,0.539,-1.23,-1.391,-3.93,6.05,6.95,-0.38,-0.13,-1.12
2022-01-30 16:34:19.9350,0.566,-1.232,-1.334,-3.97,6.07,6.07,-0.95,-0.12,-1.0
2022-01-30 16:34:19.9450,0.584,-1.248,-1.261,-4.17,6.14,5.47,-1.47,0.01,-0.85
2022-01-30 16:34:19.9550,0.587,-1.286,-1.175,-4.32,6.36,4.72,-1.47,0.01,-0.85
2022-01-30 16:34:19.9650,0.586,-1.303,-1.119,-4.31,6.85,3.78,-2.31,0.35,-0.36
2022-01-30 16:34:19.9750,0.573,-1.258,-1.075,-4.09,7.07,2.52,-2.59,0.37,-0.11
2022-01-30 16:34:19.9850,0.534,-1.167,-1.065,-3.73,6.43,2.23,-2.74,0.18,0.15
2022-01-30 16:34:19.9950,0.468,-1.047,-1.063,-3.73,6.43,2.23,-2.68,-0.12,0.38
2022-01-30 16:34:20.0050,0.4,-0.908,-1.022,-2.46,4.38,1.61,-2.4,-0.42,0.54
2022-01-30 16:34:20.0150,0.318,-0.762,-0.96,-2.46,4.38,1.61,-1.96,-0.61,0.63
2022-01-30 16:34:20.0250,0.228,-0.61,-0.862,-0.93,1.81,-0.09,-1.43,-0.64,0.66
2022-01-30 16:34:20.0360,0.151,-0.471,-0.753,-0.24,0.54,-1.24,-1.43,-0.64,0.66
2022-01-30 16:34:20.0460,0.089,-0.357,-0.659,-0.24,0.54,-1.24,-0.56,-0.41,0.69
2022-01-30 16:34:20.0550,0.047,-0.276,-0.576,0.31,-0.54,-2.23,-0.26,-0.25,0.75
2022-01-30 16:34:20.0660,0.022,-0.219,-0.503,0.8945320473611356,-1.91,-3.82,-0.04,-0.1,0.84
2022-01-30 16:34:20.0760,0.006,-0.168,-0.437,0.89,-1.91,-3.82,0.12,0.03,0.93
2022-01-30 16:34:20.0860,-0.001,-0.127,-0.378,1.01,-2.41,-4.47,0.27,0.14,1.01
2022-01-30 16:34:20.0950,-0.004,-0.109,-0.322,1.06,-2.86,-5.06,0.27,0.14,1.01
2022-01-30 16:34:20.1060,-0.003,-0.111,-0.276,1.06,-3.11,-5.59,0.42,0.21,1.09
2022-01-30 16:34:20.1160,-0.003,-0.116,-0.249,1.03,-3.15,-6.05,0.71,0.18,1.12
2022-01-30 16:34:20.1260,-0.006,-0.108,-0.232,0.99,-3.3,-6.45,0.71,0.18,1.12
2022-01-30 16:34:20.1360,-0.012,-0.109,-0.225,1.01,-3.38,-6.5,0.78,0.08,1.05
2022-01-30 16:34:20.1440,-0.018,-0.122,-0.222,1.01,-3.38,-6.5,0.7301836609840393,-0.05,0.93
2022-01-30 16:34:20.1550,-0.028,-0.124,-0.228,1.02,-3.34,-6.5,0.62,-0.29,0.61
2022-01-30 16:34:20.1660,-0.041,-0.109,-0.236,1.06,-3.36,-6.43,0.49,-0.32,0.4
2022-01-30 16:34:20.1760,-0.057,-0.088,-0.229,1.24,-3.79,-6.34,0.37,-0.24,0.2
2022-01-30 16:34:20.1860,-0.068,-0.067,-0.226,1.33,-4.02,-6.37,0.28,-0.07,-0.0
2022-01-30 16:34:20.1960,-0.073,-0.039,-0.243,1.38,-4.32,-6.22,0.22,0.13,-0.18
2022-01-30 16:34:20.2060,-0.077,-0.009,-0.278,1.44,-4.64,-5.88,0.18,0.33,-0.32
2022-01-30 16:34:20.2160,-0.088,0.005,-0.319,1.59,-4.8,-5.47,0.18,0.54,-0.43
2022-01-30 16:34:20.2260,-0.095,0.003,-0.353,1.59,-4.8,-5.47,0.21,0.75,-0.5
2022-01-30 16:34:20.2360,-0.1,0.001,-0.392,1.73,-4.82,-5.11,0.25,0.94,-0.56
2022-01-30 16:34:20.2460,-0.113,-0.002,-0.453,1.87,-4.8,-4.74,0.29,1.07,-0.61
2022-01-30 16:34:20.2560,-0.127,-0.03,-0.527,2.36,-4.58,-3.41,0.32,1.1,-0.64
2022-01-30 16:34:20.2670,-0.136,-0.087,-0.626,2.57,-4.06,-2.44,0.33,1.07,-0.69
2022-01-30 16:34:20.2760,-0.14,-0.16,-0.738,2.57,-4.06,-2.44,0.35,1.03,-0.74
2022-01-30 16:34:20.2860,-0.128,-0.268,-0.863,2.75,-3.39,-1.32,0.43,0.9,-0.76
2022-01-30 16:34:20.2960,-0.095,-0.424,-1.044,2.78,-2.4,-0.09,0.57,0.57,-0.75
2022-01-30 16:34:20.3060,-0.035,-0.61,-1.261,2.6,-0.96,1.63,0.71,0.12,-0.76
2022-01-30 16:34:20.3160,0.011,-0.792,-1.434,2.1,0.82,3.79,0.8,-0.16,-0.82
2022-01-30 16:34:20.3260,0.017,-0.974,-1.511,1.65,2.56,5.64,0.83,-0.19,-0.91
2022-01-30 16:34:20.3360,-0.006,-1.089,-1.609,1.58,4.32,6.5,0.77,-0.07,-0.91
2022-01-30 16:34:20.3470,-0.039,-1.108,-1.71,1.81,5.52,7.44,0.58,0.15,-1.27
2022-01-30 16:34:20.3560,-0.045,-1.126,-1.783,2.19,5.75,8.49,0.31,0.39,-1.42
2022-01-30 16:34:20.3670,0.011,-1.192,-1.833,2.03,6.47,9.81,0.01,0.52,-1.46
2022-01-30 16:34:20.3770,0.109,-1.274,-1.882,2.03,6.47,9.81,-0.3,0.5,-1.37
2022-01-30 16:34:20.3870,0.211,-1.351,-1.898,1.2,7.3,10.31,-0.54,0.41,-1.15
2022-01-30 16:34:20.3960,0.287,-1.392,-1.887,-0.4,8.65,10.41,-0.69,0.28,-0.85
2022-01-30 16:34:20.4070,0.319,-1.407,-1.865,-0.4,8.65,10.41,-0.74,0.13,-0.51
2022-01-30 16:34:20.4170,0.311,-1.403,-1.841,-0.71,8.9,10.16,-0.74,0.13,-0.51
2022-01-30 16:34:20.4270,0.278,-1.371,-1.798,-0.64,8.97,9.9,-0.5,-0.37,0.09
2022-01-30 16:34:20.4370,0.242,-1.317,-1.729,-0.03,8.29,8.79,-0.24,-0.79,0.31
2022-01-30 16:34:20.4470,0.185,-1.21,-1.628,-0.03,8.29,8.79,0.06,-1.26,0.43
2022-01-30 16:34:20.4570,0.117,-1.063,-1.474,0.41,7.32,7.83,0.31,-1.71,0.4
2022-01-30 16:34:20.4670,0.077,-0.921,-1.284,0.95,5.88,6.35,0.4,-2.1,0.26
2022-01-30 16:34:20.4770,0.082,-0.808,-1.091,1.23,4.43,4.49,0.28,-2.36,0.04
2022-01-30 16:34:20.4870,0.102,-0.71,-0.897,1.04,3.25,2.57,0.0,-2.44,-0.18
2022-01-30 16:34:20.4970,0.108,-0.604,-0.706,0.64,2.27,0.64,-0.32,-2.35,-0.37
2022-01-30 16:34:20.5060,0.103,-0.476,-0.552,0.37,1.25,-1.29,-0.62,-2.17,-0.5
2022-01-30 16:34:20.5170,0.093,-0.354,-0.441,0.22,0.05,-2.9,-0.84,-1.96,-0.58
2022-01-30 16:34:20.5270,0.088,-0.249,-0.356,0.16,-1.1,-4.1,-0.98,-1.73,-0.63
2022-01-30 16:34:20.5370,0.093,-0.169,-0.294,0.08,-2.08,-5.01,-1.03,-1.53,-0.68
2022-01-30 16:34:20.5470,0.109,-0.113,-0.251,-0.32,-3.27,-6.2,-1.03,-1.34,-0.72
2022-01-30 16:34:20.5570,0.126,-0.071,-0.215,-0.58,-3.61,-6.64,-1.0,-1.18,-0.76
2022-01-30 16:34:20.5670,0.137,-0.049,-0.202,-0.76,-3.76,-6.83,-0.99,-1.02,-0.8
2022-01-30 16:34:20.5780,0.14,-0.043,-0.183,-0.76,-3.76,-6.83,-0.98,-0.84,-0.8
2022-01-30 16:34:20.5870,0.137,-0.042,-0.163,-0.88,-3.66,-7.3,-0.98,-0.61,-0.79
2022-01-30 16:34:20.5980,0.128,-0.043,-0.15,-0.88,-3.66,-7.3,-0.95,-0.34,-0.77
2022-01-30 16:34:20.6070,0.121,-0.047,-0.138,-0.81,-3.56,-7.48,-0.88,-0.05,-0.74
2022-01-30 16:34:20.6170,0.121,-0.057,-0.125,-0.73,-3.43,-7.63,-0.75,0.25,-0.7
2022-01-30 16:34:20.6280,0.121,-0.075,-0.117,-0.7,-3.27,-7.79,-0.57,0.5,-0.65
2022-01-30 16:34:20.6380,0.123,-0.097,-0.124,-0.64,-3.02,-7.91,-0.39,0.63,-0.61
2022-01-30 16:34:20.6480,0.132,-0.114,-0.146,-0.59,-2.54,-7.69,-0.22,0.64,-0.57
2022-01-30 16:34:20.6570,0.14,-0.124,-0.176,-0.59,-2.54,-7.69,-0.1,0.52,-0.55
2022-01-30 16:34:20.6680,0.14,-0.126,-0.215,-0.6,-2.4,-7.41,-0.04,0.29,-0.55
2022-01-30 16:34:20.6780,0.138,-0.123,-0.256,-0.54,-2.36,-7.03,-0.03,-0.01,-0.54
2022-01-30 16:34:20.6880,0.139,-0.137,-0.3,-0.48,-2.39,-6.63,-0.02,-0.34,-0.52
2022-01-30 16:34:20.6980,0.139,-0.163,-0.334,-0.49,-2.01,-5.86,0.03,-0.63,-0.46
2022-01-30 16:34:20.7080,0.126,-0.166,-0.38,-0.42,-1.93,-5.44,0.13,-0.86,-0.44
2022-01-30 16:34:20.7180,0.115,-0.14,-0.416,-0.37,-2.17,-5.06,0.13,-0.86,-0.44
2022-01-30 16:34:20.7280,0.103,-0.115,-0.443,-0.37,-2.17,-5.06,0.45,-1.02,-0.44
2022-01-30 16:34:20.7370,0.083,-0.085,-0.513,-0.22,-2.77,-4.17,0.59,-1.02,-0.44
2022-01-30 16:34:20.7480,0.062,-0.06,-0.624,-0.22,-2.77,-4.17,0.69,-0.95,-0.44
2022-01-30 16:34:20.7570,0.042,-0.058,-0.739,-0.09,-3.09,-3.1,0.78,-0.8,-0.45
2022-01-30 16:34:20.7680,0.041,-0.069,-0.848,0.04,-3.2,-1.95,0.93,-0.53,-0.47
2022-01-30 16:34:20.7780,0.051,-0.092,-0.948,0.03,-3.17,-0.84,0.93,-0.53,-0.47
2022-01-30 16:34:20.7880,0.062,-0.119,-1.044,-0.19,-2.88,1.18,1.56,0.28,-0.37
2022-01-30 16:34:20.7980,0.086,-0.148,-1.161,-0.36,-2.77,2.33,1.87,0.69,-0.18
2022-01-30 16:34:20.8080,0.128,-0.242,-1.332,-0.36,-2.77,2.33,2.03,0.96,0.1
2022-01-30 16:34:20.8180,0.196,-0.414,-1.525,-0.68,-2.11,4.05,1.97,1.02,0.35
2022-01-30 16:34:20.8280,0.263,-0.614,-1.754,-1.24,-0.68,6.0,1.68,0.84,0.43
2022-01-30 16:34:20.8380,0.291,-0.785,-1.95,-1.85,1.11,8.31,1.3,0.64,0.26
2022-01-30 16:34:20.8480,0.271,-0.86,-2.052,-1.94,3.48,11.57,0.97,0.49,-0.15
2022-01-30 16:34:20.8600,0.229,-0.841,-2.132,-1.94,3.48,11.57,0.97,0.49,-0.15
2022-01-30 16:34:20.8720,0.179,-0.789,-2.164,-1.5,3.3,12.42,0.72,0.38,-0.63
2022-01-30 16:34:20.8810,0.169,-0.764,-2.151,-0.93,2.75,12.85,0.48,0.34,-1.01
2022-01-30 16:34:20.8910,0.231,-0.774,-2.081,-0.68,2.42,12.8,0.04,0.57,-1.2
2022-01-30 16:34:20.9010,0.344,-0.78,-1.963,-1.1,2.5,12.2,-0.19,0.83,-1.11
2022-01-30 16:34:20.9100,0.445,-0.798,-1.84,-2.97,2.76,9.88,-0.46,1.11,-0.86
2022-01-30 16:34:20.9190,0.514,-0.836,-1.707,-3.54,3.17,8.57,-0.79,1.3,-0.47
2022-01-30 16:34:20.9290,0.565,-0.866,-1.608,-3.54,3.17,8.57,-1.14,1.15,0.0
2022-01-30 16:34:20.9390,0.58,-0.875,-1.566,-4.07,3.77,7.01,-1.39,0.65,0.55
2022-01-30 16:34:20.9490,0.53,-0.856,-1.485,-4.07,3.77,7.01,-1.4,-0.05,1.12
2022-01-30 16:34:20.9580,0.42,-0.756,-1.373,-3.64,3.76,6.24,-1.19,-0.87,1.61
2022-01-30 16:34:20.9690,0.281,-0.609,-1.25,-2.69,2.98,5.08,-0.84,-1.66,1.95
2022-01-30 16:34:20.9790,0.141,-0.469,-1.106,-0.35,0.29,2.4,-0.47,-2.26,2.05
2022-01-30 16:34:20.9890,0.034,-0.336,-0.929,0.4622887632250786,-1.01,0.64,-0.2,-2.59,1.91
2022-01-30 16:34:20.9990,-0.032,-0.213,-0.763,0.46,-1.01,0.64,-0.15,-2.67,1.56
2022-01-30 16:34:21.0090,-0.066,-0.128,-0.618,0.92,-3.1,-2.51,-0.32,-2.51,1.09
2022-01-30 16:34:21.0190,-0.075,-0.072,-0.496,0.76,-3.65,-3.76,-0.66,-2.1,0.6
2022-01-30 16:34:21.0280,-0.075,-0.028,-0.404,0.76,-3.65,-3.76,-1.09,-1.46,0.16
2022-01-30 16:34:21.0380,-0.073,0.011,-0.342,0.56,-4.03,-5.41228162586689,-1.5,-0.62,-0.17
2022-01-30 16:34:21.0480,-0.062,0.051,-0.292,0.42,-4.3,-5.42,-1.82,0.4,-0.36
2022-01-30 16:34:21.0590,-0.033,0.053,-0.253,0.3,-4.57,-5.99,-1.95,1.45,-0.37
2022-01-30 16:34:21.0700,0.018,0.016,-0.239,0.1,-4.49,-6.46,-1.86,2.33,-0.24
2022-01-30 16:34:21.0790,0.068,-0.038,-0.26,-0.51,-3.3,-6.61,-1.55,2.89,0.0
2022-01-30 16:34:21.0890,0.097,-0.074,-0.289,-0.51,-3.3,-6.61,-1.09,3.01,0.27
2022-01-30 16:34:21.0990,0.083,-0.061,-0.369,-0.56,-2.75,-6.39,-0.59,2.59,0.47
2022-01-30 16:34:21.1090,0.043,-0.023,-0.486,-0.22,-2.74,-5.71,-0.11,1.76,0.55
2022-01-30 16:34:21.1190,0.021,-0.009,-0.566,0.38,-3.06,-4.57,0.35,0.73,0.49
2022-01-30 16:34:21.1290,0.025,-0.016,-0.616,0.77,-3.24,-3.71,0.72,-0.32,0.3
2022-01-30 16:34:21.1390,0.042,-0.006,-0.652,0.79,-3.21,-3.17,0.98,-1.2,-0.01
2022-01-30 16:34:21.1490,0.058,0.004,-0.633,0.3,-3.55,-2.86,1.14,-1.73,-0.37
2022-01-30 16:34:21.1600,0.058,0.019,-0.583,0.13,-3.78,-3.31,1.19,-1.84,-0.72
2022-01-30 16:34:21.1690,0.049,0.06,-0.541,0.08,-4.25,-3.7,1.19,-1.84,-0.72
2022-01-30 16:34:21.1790,0.028,0.126,-0.516,0.08,-4.25,-3.7,1.1,-0.98,-1.26
2022-01-30 16:34:21.1880,-0.003,0.19,-0.513,0.18,-4.97,-3.95,1.0,-0.17,-1.41
2022-01-30 16:34:21.1980,-0.032,0.235,-0.526,0.78,-6.25,-3.83,0.91,0.74,-1.48
2022-01-30 16:34:21.2090,-0.049,0.26,-0.571,1.11,-6.59,-3.37,0.82,1.63,-1.53
2022-01-30 16:34:21.2180,-0.044,0.252,-0.629,1.11,-6.59,-3.37,0.73,2.36,-1.56
2022-01-30 16:34:21.2280,-0.024,0.199,-0.724,1.3,-6.63,-2.79,0.66,2.95,-1.58
2022-01-30 16:34:21.2380,0.024,0.089,-0.778,1.32,-5.25,-1.15,0.63,3.46,-1.58
2022-01-30 16:34:21.2480,0.1,-0.075,-0.849,0.95,-3.72,-0.48,0.59,3.67,-1.51
2022-01-30 16:34:21.2590,0.157,-0.272,-1.014,0.74,-1.83,1.16,0.55,3.48,-1.38
2022-01-30 16:34:21.2680,0.195,-0.463,-1.178,0.69,0.07,2.92,0.53,2.96,-1.22
2022-01-30 16:34:21.2780,0.215,-0.609,-1.318,0.77,1.54,4.42,0.56,2.28,-1.1
2022-01-30 16:34:21.2890,0.218,-0.732,-1.406,0.77,1.54,4.42,0.67,1.72,-0.99
2022-01-30 16:34:21.3000,0.211,-0.847,-1.414,1.2,3.86,5.71,0.84,1.43,-0.9
2022-01-30 16:34:21.3100,0.233,-0.934,-1.376,1.196791142821312,4.72,5.46,0.93,1.37,-0.83
2022-01-30 16:34:21.3200,0.293,-1.001,-1.341,1.19,4.72,5.46,0.81,1.42,-0.72
2022-01-30 16:34:21.3300,0.381,-1.109,-1.324,0.79,5.33,5.17,0.41,1.44,-0.46
2022-01-30 16:34:21.3390,0.488,-1.253,-1.336,0.1,6.27,5.07,-0.27,1.26,-0.04
2022-01-30 16:34:21.3500,0.585,-1.385,-1.397,-0.81,7.68,5.2,-1.11,0.9,0.58
2022-01-30 16:34:21.3600,0.611,-1.525,-1.458,-2.04,10.47,6.38,-1.89,0.53,1.34
2022-01-30 16:34:21.3710,0.538,-1.567,-1.534,-1.46,11.18,7.03,-2.34,0.18,1.96
2022-01-30 16:34:21.3800,0.404,-1.419,-1.62,-1.46,11.18,7.03,-2.36,-0.28,2.29
2022-01-30 16:34:21.3900,0.247,-1.199,-1.758,1.1342013770341874,7.99,8.93,-1.91,-0.99,2.31
2022-01-30 16:34:21.4000,0.07,-0.974,-1.853,2.68,5.88,9.93,-1.02,-1.74,2.03
2022-01-30 16:34:21.4110,-0.056,-0.734,-1.78,2.68,5.88,9.93,-1.02,-1.74,2.03
2022-01-30 16:34:21.4200,-0.08,-0.556,-1.646,3.87,1.59,7.92,0.89,-3.05,0.95
2022-01-30 16:34:21.4310,-0.039,-0.501,-1.456,3.23,0.78,6.11,1.35,-3.44,0.55
2022-01-30 16:34:21.4400,0.025,-0.518,-1.191,2.29,0.82,3.53,1.46,-3.51,0.35
2022-01-30 16:34:21.4510,0.057,-0.473,-0.924,1.61,0.35,0.86,1.35,-3.33,0.28
2022-01-30 16:34:21.4600,0.049,-0.371,-0.712,1.61,0.35,0.86,1.13,-2.99,0.34
2022-01-30 16:34:21.4710,0.005,-0.286,-0.537,1.48,-1.7,-3.06,0.88,-2.59,0.5
2022-01-30 16:34:21.4800,-0.044,-0.217,-0.403,1.48,-1.7,-3.06,0.61,-2.21,0.69
2022-01-30 16:34:21.4900,-0.073,-0.161,-0.318,1.82,-3.1,-5.32,0.37,-1.92,0.8
2022-01-30 16:34:21.5010,-0.08,-0.116,-0.269,1.82,-3.1,-5.32,0.14,-1.73,0.8
2022-01-30 16:34:21.5110,-0.074,-0.072,-0.229,1.4907350590825081,-4.029613929390908,-6.25,-0.12,-1.55,0.65
2022-01-30 16:34:21.5210,-0.067,-0.05,-0.204,1.25,-4.28,-6.51,-0.46,-1.28,0.4
2022-01-30 16:34:21.5310,-0.064,-0.059,-0.167,1.1,-4.17,-6.89,-0.84,-0.82,0.12
2022-01-30 16:34:21.5410,-0.066,-0.076,-0.114,1.1,-4.17,-6.89,-0.84,-0.12,-0.17
2022-01-30 16:34:21.5500,-0.068,-0.082,-0.064,1.04,-3.93,-7.44,-1.58,0.75,-0.44
2022-01-30 16:34:21.5610,-0.064,-0.086,-0.034,1.07,-3.74,-8.01,-1.87,1.69,-0.7
2022-01-30 16:34:21.5710,-0.058,-0.091,-0.035,1.14,-3.57,-8.507232751250267,-2.09,2.55,-0.91
2022-01-30 16:34:21.5810,-0.053,-0.091,-0.08,1.27,-3.34,-8.51,-2.09,2.55,-0.91
2022-01-30 16:34:21.5990,-0.046,-0.081,-0.19,1.74,-3.02,-7.25,-2.22,3.14,-1.23
2022-01-30 16:34:21.5990,-0.03,-0.09,-0.344,1.93,-2.74,-5.81,-2.07,2.75,-1.33
2022-01-30 16:34:21.6110,-0.0,-0.11,-0.47,1.94,-2.34,-4.52,-1.69,2.11,-1.39
2022-01-30 16:34:21.6210,0.044,-0.131,-0.527,1.758119752407074,-1.952894014120102,-3.9,-1.12,1.4,-1.41
2022-01-30 16:34:21.6310,0.095,-0.14,-0.554,1.75,-1.96,-3.9,-0.42,0.7,-1.4
2022-01-30 16:34:21.6410,0.134,-0.139,-0.578,1.41,-1.72,-3.63,-0.42,0.7,-1.4
2022-01-30 16:34:21.6500,0.144,-0.146,-0.558,1.01,-1.61,-3.49,0.9,-0.35,-1.12
2022-01-30 16:34:21.6610,0.131,-0.131,-0.504,1.01,-1.61,-3.49,0.9,-0.35,-1.12
2022-01-30 16:34:21.6720,0.109,-0.082,-0.466,1.12,-1.76,-3.98,1.61,-0.72,-0.66
2022-01-30 16:34:21.6810,0.104,-0.037,-0.479,1.34,-2.92,-4.28,1.69,-0.87,-0.43
2022-01-30 16:34:21.6910,0.137,-0.041,-0.546,1.01,-3.1,-3.65,1.69,-0.87,-0.43
2022-01-30 16:34:21.7010,0.207,-0.12,-0.633,0.27,-2.56,-2.76,1.59,-1.19,-0.03
2022-01-30 16:34:21.7090,0.291,-0.257,-0.718,0.27,-2.56,-2.76,1.5317949056625366,-1.23,0.12
2022-01-30 16:34:21.7210,0.372,-0.408,-0.849,-0.65,-1.41,-1.9,1.53,-1.23,0.12
2022-01-30 16:34:21.7310,0.439,-0.536,-1.043,-2.37,1.12,1.19,1.48,-1.36,0.09
2022-01-30 16:34:21.7410,0.507,-0.628,-1.3,-3.16,1.91,3.69,1.46,-1.58,-0.15
2022-01-30 16:34:21.7520,0.567,-0.723,-1.544,-3.9,2.72,6.21,1.46,-1.68,-0.52
2022-01-30 16:34:21.7610,0.624,-0.802,-1.67,-4.55,3.41,7.62,1.42,-1.52,-0.93
2022-01-30 16:34:21.7720,0.713,-0.873,-1.731,-4.55,3.41,7.62,1.19,-1.15,-1.21
2022-01-30 16:34:21.7820,0.792,-0.968,-1.776,-5.47,3.97,8.3,0.74,-0.63,-1.23
2022-01-30 16:34:21.7910,0.84,-1.037,-1.777,-6.33,4.82,8.81,0.14,-0.03,-1.05
2022-01-30 16:34:21.8020,0.882,-1.066,-1.776,-7.18,5.83,8.86,-0.42,0.56,-0.8
2022-01-30 16:34:21.8120,0.928,-1.094,-1.78,-7.18,5.83,8.86,-0.42,0.56,-0.8
2022-01-30 16:34:21.8220,0.966,-1.128,-1.754,-7.54,6.15,8.9,-1.02,1.51,-0.5
2022-01-30 16:34:21.8320,0.984,-1.146,-1.692,-7.8,6.57,8.66,-1.15,1.78,-0.41
2022-01-30 16:34:21.8420,0.975,-1.161,-1.608,-7.85,6.87,8.09,-1.3,1.75,-0.27
2022-01-30 16:34:21.8520,0.946,-1.154,-1.557,-7.22,7.23,6.67,-1.3,1.75,-0.27
2022-01-30 16:34:21.8610,0.884,-1.101,-1.512,-6.55,6.87,6.23,-1.59,0.62,0.12
2022-01-30 16:34:21.8710,0.785,-1.038,-1.412,-5.58,6.42,5.26,-1.46,-0.18,0.34
2022-01-30 16:34:21.8810,0.659,-0.919,-1.303,-5.58,6.42,5.26,-1.11,-1.09,0.52
2022-01-30 16:34:21.8920,0.537,-0.775,-1.193,-4.4,5.44,4.11,-0.68,-2.02,0.62
2022-01-30 16:34:21.9020,0.43,-0.624,-1.073,-3.31,4.12,2.98,-0.42,-2.78,0.63
2022-01-30 16:34:21.9120,0.338,-0.483,-0.943,-1.81,1.31,0.41,-0.45,-3.18,0.57
2022-01-30 16:34:21.9220,0.245,-0.375,-0.839,-1.81,1.31,0.41,-0.72,-3.16,0.43
2022-01-30 16:34:21.9320,0.132,-0.272,-0.763,-1.23,0.25,-0.72,-1.12,-2.64,0.26
2022-01-30 16:34:21.9420,0.022,-0.147,-0.691,-0.44,-0.67,-1.55,-1.53,-1.66,0.07
2022-01-30 16:34:21.9520,-0.06,-0.029,-0.621,0.43,-1.78,-2.33,-1.86,-0.34,-0.07
2022-01-30 16:34:21.9620,-0.095,0.055,-0.559,1.14,-2.81,-3.06,-2.04,1.02,-0.14
2022-01-30 16:34:21.9720,-0.075,0.067,-0.552,1.53,-3.52,-3.78,-2.02,2.14,-0.1
2022-01-30 16:34:21.9820,-0.02,0.015,-0.561,1.21,-2.9,-3.9,-1.78,2.84,0.03
2022-01-30 16:34:21.9920,0.033,-0.055,-0.56,1.21,-2.9,-3.9,-1.33,3.08,0.22
2022-01-30 16:34:22.0020,0.073,-0.101,-0.56,0.81,-1.44,-3.91,-0.74,2.88,0.41
2022-01-30 16:34:22.0120,0.094,-0.124,-0.549,0.81,-1.44,-3.91,-0.08,2.36,0.58
2022-01-30 16:34:22.0220,0.094,-0.137,-0.514,0.84,-1.14,-3.96,0.55,1.65,0.72
2022-01-30 16:34:22.0320,0.087,-0.148,-0.458,1.01,-1.01,-4.23,1.11,0.89,0.82
2022-01-30 16:34:22.0420,0.081,-0.151,-0.399,1.32,-1.05,-5.26,1.52,0.13,0.86
2022-01-30 16:34:22.0520,0.063,-0.127,-0.353,1.46,-1.41,-5.69,1.77,-0.55,0.83
2022-01-30 16:34:22.0620,0.042,-0.088,-0.316,1.59,-1.97,-6.02,1.88,-1.12,0.74
2022-01-30 16:34:22.0730,0.026,-0.056,-0.286,1.59,-1.97,-6.02,1.85,-1.51,0.61
2022-01-30 16:34:22.0820,0.014,-0.032,-0.257,1.59,-2.9,-6.53,1.73,-1.64,0.44
2022-01-30 16:34:22.0930,-0.002,-0.009,-0.221,1.58,-3.28,-6.86,1.56,-1.5,0.26
2022-01-30 16:34:22.1030,-0.02,0.013,-0.202,1.62,-3.64,-7.05,1.38,-1.13,0.08
2022-01-30 16:34:22.1130,-0.033,0.039,-0.202,1.62,-3.64,-7.05,1.18,-0.64,-0.09
2022-01-30 16:34:22.1230,-0.053,0.062,-0.252,1.65,-4.02,-7.05,1.02,-0.17,-0.23
2022-01-30 16:34:22.1320,-0.077,0.079,-0.333,1.78,-4.35,-6.59,0.92,0.29,-0.36
2022-01-30 16:34:22.1430,-0.093,0.089,-0.404,2.01,-4.61,-5.77,0.88,0.75,-0.48
2022-01-30 16:34:22.1520,-0.095,0.081,-0.469,2.24,-4.8,-5.01,0.9,1.22,-0.58
2022-01-30 16:34:22.1630,-0.093,0.051,-0.541,2.48,-4.62,-3.57,0.96,1.66,-0.59
2022-01-30 16:34:22.1730,-0.085,-0.004,-0.608,2.59,-4.18,-2.85,1.06,1.97,-0.54
2022-01-30 16:34:22.1830,-0.062,-0.071,-0.692,2.59,-4.18,-2.85,1.15,2.12,-0.48
2022-01-30 16:34:22.1930,-0.027,-0.156,-0.78,2.58,-3.62,-1.97,1.21,2.13,-0.44
2022-01-30 16:34:22.2030,0.003,-0.279,-0.859,2.34,-1.85,-0.12,1.21,1.97,-0.4
2022-01-30 16:34:22.2130,0.028,-0.435,-0.975,2.27,-0.44,1.04,1.13,1.6,-0.38
2022-01-30 16:34:22.2230,0.055,-0.607,-1.119,2.27,-0.44,1.04,1.13,1.6,-0.38
2022-01-30 16:34:22.2330,0.095,-0.762,-1.243,1.88,2.66,3.85,0.92,0.47,-0.44
2022-01-30 16:34:22.2430,0.137,-0.873,-1.362,1.52,3.73,5.11,0.86,-0.12,-0.57
2022-01-30 16:34:22.2520,0.178,-0.953,-1.411,1.14,4.5,5.71,0.8,-0.56,-0.73
2022-01-30 16:34:22.2620,0.224,-0.991,-1.43,0.67,4.9,5.93,0.65,-0.86,-0.89
2022-01-30 16:34:22.2740,0.243,-1.002,-1.42,0.67,4.9,5.93,0.36,-0.94,-0.97
2022-01-30 16:34:22.2830,0.248,-1.049,-1.355,0.41,4.97,5.9,0.36,-0.94,-0.97
2022-01-30 16:34:22.2930,0.274,-1.094,-1.306,0.34,5.39,5.29,-0.45,-0.69,-0.95
2022-01-30 16:34:22.3030,0.337,-1.117,-1.288,-0.49,6.21,4.5,-0.92,-0.58,-1.03
2022-01-30 16:34:22.3140,0.391,-1.11,-1.266,-0.49,6.21,4.5,-1.51,-0.47,-1.17
2022-01-30 16:34:22.3230,0.414,-1.047,-1.252,-1.05,6.31,4.23,-2.24,-0.4,-1.26
2022-01-30 16:34:22.3340,0.403,-0.952,-1.265,-1.21,5.25,3.96,-2.97,-0.39,-1.21
2022-01-30 16:34:22.3430,0.375,-0.857,-1.317,-1.21,5.25,3.96,-3.49,-0.51,-1.01
2022-01-30 16:34:22.3530,0.335,-0.762,-1.374,-0.93,4.59,4.28,-3.55,-0.73,-0.7
2022-01-30 16:34:22.3630,0.279,-0.644,-1.396,-0.58,4.01,4.71,-3.55,-0.73,-0.7
2022-01-30 16:34:22.3740,0.225,-0.523,-1.361,-0.08,3.21,4.86,-2.48,-1.21,-0.07
2022-01-30 16:34:22.3840,0.174,-0.438,-1.28,0.38,2.28,4.45,-1.8,-1.37,0.19
2022-01-30 16:34:22.3940,0.121,-0.376,-1.164,0.77,1.62,3.61,-1.27,-1.43,0.4
2022-01-30 16:34:22.4040,0.079,-0.336,-1.032,1.16,1.15,2.42,-0.89,-1.41,0.53
2022-01-30 16:34:22.4140,0.06,-0.305,-0.895,1.52,0.6,-0.32,-0.61,-1.33,0.56
2022-01-30 16:34:22.4240,0.05,-0.265,-0.775,1.48,0.26,-1.57,-0.4,-1.28,0.51
2022-01-30 16:34:22.4340,0.041,-0.228,-0.679,1.48,0.26,-1.57,-0.28,-1.24,0.43
2022-01-30 16:34:22.4440,0.038,-0.21,-0.581,1.44,-0.09,-2.57,-0.19,-1.17,0.4
2022-01-30 16:34:22.4540,0.04,-0.215,-0.492,1.36,-0.28,-3.55,-0.13,-1.08,0.42
2022-01-30 16:34:22.4640,0.044,-0.223,-0.429,1.22,-0.24,-4.48,-0.06,-1.01,0.48
2022-01-30 16:34:22.4740,0.048,-0.219,-0.39,1.07,-0.14,-5.14,0.02,-0.96,0.55
2022-01-30 16:34:22.4840,0.05,-0.218,-0.369,0.92,-0.17,-5.56,0.02,-0.96,0.55
2022-01-30 16:34:22.4940,0.031,-0.222,-0.378,0.79,-0.2,-5.81,0.36,-0.97,0.66
2022-01-30 16:34:22.5040,0.008,-0.215,-0.396,0.9779585853964091,-0.29,-5.59,0.61,-1.02,0.63
2022-01-30 16:34:22.5140,0.004,-0.206,-0.424,0.92,-0.45,-5.33,0.87,-1.1,0.51
2022-01-30 16:34:22.5240,0.017,-0.221,-0.462,0.92,-0.45,-5.33,1.06,-1.25,0.34
2022-01-30 16:34:22.5340,0.044,-0.261,-0.506,0.7,-0.43,-4.95,1.15,-1.47,0.16
2022-01-30 16:34:22.5440,0.072,-0.307,-0.589,0.32,-0.15,-4.53,1.16,-1.8,-0.01
2022-01-30 16:34:22.5540,0.073,-0.338,-0.69,-0.33,0.42,-2.72,1.1,-2.1,-0.17
2022-01-30 16:34:22.5640,0.069,-0.323,-0.775,-0.47,0.23,-1.85,1.02,-2.28,-0.37
2022-01-30 16:34:22.5740,0.063,-0.284,-0.892,-0.47,0.23,-1.85,0.94,-2.34,-0.55
2022-01-30 16:34:22.5840,0.048,-0.249,-1.042,-0.64,-0.24,-0.75,0.95,-2.25,-0.71
2022-01-30 16:34:22.5940,0.046,-0.212,-1.205,-0.83,-1.12,2.38,1.13,-2.03,-0.83
2022-01-30 16:34:22.6050,0.063,-0.192,-1.325,-0.83,-1.12,2.38,1.43,-1.66,-0.88
2022-01-30 16:34:22.6140,0.107,-0.212,-1.416,-1.65,-1.47,4.64,1.73,-1.18,-0.84
2022-01-30 16:34:22.6250,0.155,-0.266,-1.457,-2.18,-1.13,5.21,1.73,-1.18,-0.84
2022-01-30 16:34:22.6350,0.198,-0.322,-1.423,-2.63,-0.75,5.01,1.92,0.36,-0.61
2022-01-30 16:34:22.6450,0.237,-0.375,-1.382,-2.94,-0.39,4.67,1.79,1.18,-0.52
2022-01-30 16:34:22.6550,0.288,-0.423,-1.361,-3.29,-0.09,4.5,1.54,1.78,-0.49
2022-01-30 16:34:22.6640,0.361,-0.502,-1.326,-3.79,0.5,4.27,1.21,2.13,-0.53
2022-01-30 16:34:22.6750,0.445,-0.6,-1.264,-4.42,1.37,3.69,0.76,2.1,-0.63
2022-01-30 16:34:22.6840,0.506,-0.637,-1.26,-4.839881021082402,1.7976545315980912,3.58,0.12,1.6,-0.82
2022-01-30 16:34:22.6950,0.545,-0.577,-1.29,-4.84,1.79,3.58,-0.79,0.81,-1.11
2022-01-30 16:34:22.7050,0.575,-0.519,-1.323,-5.07,1.3,3.88,-1.91,0.08,-1.35
2022-01-30 16:34:22.7150,0.572,-0.507,-1.263,-5.26,0.75,4.18,-2.91,-0.24,-1.43
2022-01-30 16:34:22.7250,0.535,-0.459,-1.196,-4.85,0.67,2.78,-3.58,-0.33,-1.38
2022-01-30 16:34:22.7350,0.484,-0.387,-1.197,-4.35,0.31,2.61,-3.79,-0.31,-1.16
2022-01-30 16:34:22.7450,0.422,-0.32,-1.16,-4.35,0.31,2.61,-3.58,-0.13,-0.74
2022-01-30 16:34:22.7550,0.351,-0.278,-1.073,-3.74,-0.01,2.2,-3.1,0.12,-0.09
2022-01-30 16:34:22.7650,0.289,-0.266,-1.011,-3.04,-0.13,1.26,-2.5,0.29,0.71
2022-01-30 16:34:22.7760,0.24,-0.292,-0.97,-1.9,0.44,0.03,-1.82,0.28,1.56
2022-01-30 16:34:22.7850,0.167,-0.332,-0.984,-1.26,1.0,0.07,-1.05,0.18,2.26
2022-01-30 16:34:22.7950,0.062,-0.318,-0.944,-0.26,1.04,-0.2,-0.16,0.21,2.61
2022-01-30 16:34:22.8050,-0.009,-0.236,-0.855,0.46,0.27,-1.09,0.73,0.29,2.55
2022-01-30 16:34:22.8150,-0.04,-0.171,-0.786,0.77,-0.51,-1.74,1.44,0.42,2.19
2022-01-30 16:34:22.8250,-0.05,-0.168,-0.691,0.77,-0.51,-1.74,1.86,0.61,1.7
2022-01-30 16:34:22.8350,-0.041,-0.208,-0.583,0.89,-0.77,-2.6,1.86,0.61,1.7
2022-01-30 16:34:22.8450,-0.008,-0.266,-0.479,0.84,-0.59,-3.62,1.91,1.13,0.77
2022-01-30 16:34:22.8550,0.027,-0.308,-0.397,0.6,-0.23,-4.59,1.69,1.34,0.44
2022-01-30 16:34:22.8660,0.058,-0.329,-0.355,0.33,0.04,-5.37,1.41,1.41,0.24
2022-01-30 16:34:22.8750,0.08,-0.341,-0.373,0.14,0.11,-5.78,1.12,1.26,0.16
2022-01-30 16:34:22.8860,0.104,-0.334,-0.462,0.04,0.11,-5.64,0.86,0.91,0.11
2022-01-30 16:34:22.8950,0.124,-0.32,-0.575,-0.09,-0.03,-4.8,0.71,0.56,0.04
2022-01-30 16:34:22.9050,0.141,-0.314,-0.657,-0.33,-0.38,-2.77,0.7,0.39,-0.06
2022-01-30 16:34:22.9160,0.157,-0.313,-0.744,-0.33,-0.38,-2.77,0.81,0.33,-0.16
2022-01-30 16:34:22.9260,0.171,-0.331,-0.877,-0.46,-0.46,-1.94,1.04,0.38,-0.25
2022-01-30 16:34:22.9350,0.165,-0.352,-0.99,-0.5,-0.26,0.57,1.38,0.59,-0.33
2022-01-30 16:34:22.9460,0.135,-0.317,-1.092,-0.15,-0.63,1.61,1.67,0.87,-0.43
2022-01-30 16:34:22.9550,0.086,-0.225,-1.236,0.4,-1.63,3.02,1.72,0.97,-0.52
2022-01-30 16:34:22.9660,0.04,-0.14,-1.485,0.4,-1.63,3.02,1.52,0.65,-0.59
2022-01-30 16:34:22.9760,0.022,-0.124,-1.721,0.99,-3.0237326234579087,7.948101525306702,1.27,0.16,-0.67
2022-01-30 16:34:22.9860,0.03,-0.155,-1.784,1.27,-3.03,7.94,1.11,-0.14,-0.77
2022-01-30 16:34:22.9960,0.06,-0.217,-1.734,1.27,-2.85,8.82,1.06,-0.13,-0.84
2022-01-30 16:34:23.0050,0.076,-0.279,-1.63,1.01,-2.37,8.47,1.08,0.18,-0.85
2022-01-30 16:34:23.0260,0.056,-0.269,-1.479,1.06,-1.88,6.2,1.11,0.71,-0.74
2022-01-30 16:34:23.0280,0.017,-0.247,-1.259,1.54,-2.22,4.18,1.1,1.35,-0.47
2022-01-30 16:34:23.0350,-0.001,-0.3,-1.035,1.54,-2.22,4.18,0.99,1.88,-0.08
2022-01-30 16:34:23.0450,0.036,-0.433,-0.856,1.78,-0.75,0.28,0.79,2.16,0.34
2022-01-30 16:34:23.0560,0.107,-0.591,-0.746,1.78,-0.75,0.28,0.5,2.05,0.69
2022-01-30 16:34:23.0660,0.129,-0.685,-0.7,1.07,1.73,-1.25,0.2,1.66,0.91
2022-01-30 16:34:23.0760,0.099,-0.701,-0.644,1.07,1.73,-1.25,-0.04,1.14,0.96
2022-01-30 16:34:23.0860,0.048,-0.68,-0.577,1.39,1.92,-1.71,-0.16,0.55,0.89
2022-01-30 16:34:23.0960,0.008,-0.646,-0.554,2.34,1.4,-2.64,-0.21,-0.09,0.71
2022-01-30 16:34:23.1060,-0.001,-0.589,-0.533,2.43,0.87,-2.84,-0.23,-0.65,0.41
2022-01-30 16:34:23.1170,0.023,-0.535,-0.496,2.15,0.32,-3.22,-0.28,-0.96,0.07
2022-01-30 16:34:23.1270,0.064,-0.529,-0.442,2.15,0.32,-3.22,-0.35,-0.9,-0.15
2022-01-30 16:34:23.1360,0.096,-0.552,-0.385,1.27,0.48,-4.38,-0.4,-0.54,-0.17
2022-01-30 16:34:23.1470,0.097,-0.522,-0.361,1.27,0.48,-4.38,-0.36,-0.01,-0.03
2022-01-30 16:34:23.1560,0.073,-0.439,-0.371,1.19,0.31,-4.68,-0.26,0.49,0.18
2022-01-30 16:34:23.1660,0.034,-0.352,-0.405,1.81,-1.28,-4.33,-0.11,0.9,0.45
2022-01-30 16:34:23.1770,-0.021,-0.286,-0.451,1.81,-1.28,-4.33,0.06,1.07,0.72
2022-01-30 16:34:23.1860,-0.066,-0.236,-0.554,2.91,-2.49,-2.94,0.2,0.92,0.9
2022-01-30 16:34:23.1960,-0.075,-0.226,-0.682,3.07,-2.7,-1.64,0.31,0.56,0.94
2022-01-30 16:34:23.2070,-0.055,-0.261,-0.79,2.9,-2.44,-0.54,0.44,0.03,0.85
2022-01-30 16:34:23.2160,-0.024,-0.322,-0.882,2.56,-1.93,0.43,0.62,-0.49,0.73
2022-01-30 16:34:23.2260,0.007,-0.413,-0.885,2.15,-1.15,0.63,0.89,-0.71,0.71
2022-01-30 16:34:23.2360,0.013,-0.52,-0.82,1.96,-0.16,0.03,1.16,-0.7,0.84
2022-01-30 16:34:23.2460,-0.019,-0.523,-0.796,2.1334108637273315,-0.05427034735679627,-0.23,1.3,-0.65,0.97
2022-01-30 16:34:23.2560,-0.079,-0.417,-0.818,2.59,-1.16,-0.02,1.22,-0.68,1.01
2022-01-30 16:34:23.2660,-0.154,-0.312,-0.898,3.19,-2.33,0.77,0.9,-0.77,0.94
2022-01-30 16:34:23.2770,-0.228,-0.245,-0.974,3.19,-2.33,0.77,0.9,-0.77,0.94
2022-01-30 16:34:23.2870,-0.274,-0.229,-0.998,4.22,-3.39,1.88,0.0,-0.72,0.55
2022-01-30 16:34:23.2970,-0.269,-0.27,-1.021,4.22,-3.39,1.88,-0.47,-0.67,0.24
2022-01-30 16:34:23.3060,-0.235,-0.363,-1.074,4.16,-3.06,2.07,-0.96,-0.65,-0.09
2022-01-30 16:34:23.3170,-0.215,-0.438,-1.107,3.76,-2.15,2.52,-1.43,-0.56,-0.42
2022-01-30 16:34:23.3270,-0.215,-0.428,-1.099,3.46,-1.11,2.7,-1.85,-0.38,-0.74
2022-01-30 16:34:23.3370,-0.228,-0.35,-1.081,3.46,-1.11,2.7,-2.23,-0.09,-1.02
2022-01-30 16:34:23.3470,-0.255,-0.275,-1.051,3.58,-1.67,2.42,-2.56,0.3,-1.21
2022-01-30 16:34:23.3570,-0.274,-0.22,-1.02,3.88,-2.22,2.03,-2.82,0.67,-1.33
2022-01-30 16:34:23.3670,-0.272,-0.193,-1.029,4.31,-2.6,1.49,-2.95,0.92,-1.37
2022-01-30 16:34:23.3770,-0.249,-0.216,-1.05,4.25,-2.16,1.61,-2.88,1.01,-1.35
2022-01-30 16:34:23.3870,-0.196,-0.275,-1.061,4.25,-2.16,1.61,-2.61,0.89,-1.28
2022-01-30 16:34:23.3970,-0.138,-0.339,-1.086,3.9,-1.33,1.61,-2.19,0.53,-1.16
2022-01-30 16:34:23.4070,-0.091,-0.401,-1.095,3.05,0.37,1.82,-1.68,0.03,-0.99
2022-01-30 16:34:23.4170,-0.058,-0.47,-1.075,3.05,0.37,1.82,-1.13,-0.55,-0.71
2022-01-30 16:34:23.4270,-0.04,-0.541,-1.042,2.75,1.2,1.6,-0.56,-1.14,-0.35
2022-01-30 16:34:23.4370,-0.032,-0.585,-1.005,2.52,2.02,1.24,-0.00643632747232914,-1.69,0.01
2022-01-30 16:34:23.4470,-0.029,-0.587,-0.961,2.13,2.61,0.39,-0.01,-1.69,0.01
2022-01-30 16:34:23.4570,-0.045,-0.553,-0.912,2.13,2.61,0.39,0.85,-2.35,0.37
2022-01-30 16:34:23.4670,-0.073,-0.498,-0.863,2.05,2.27,-0.13,1.1,-2.41,0.39
2022-01-30 16:34:23.4780,-0.098,-0.467,-0.808,2.1,1.64,-0.59,1.26,-2.37,0.37
2022-01-30 16:34:23.4870,-0.1,-0.442,-0.8,1.95,0.83,-1.28,1.31,-2.4,0.31
2022-01-30 16:34:23.4970,-0.059,-0.464,-0.821,1.37,0.84,-1.07,1.26,-2.54,0.31
2022-01-30 16:34:23.5080,0.013,-0.549,-0.878,1.37,0.84,-1.07,1.26,-2.54,0.31
2022-01-30 16:34:23.5170,0.106,-0.622,-0.995,-0.74,2.18,0.58,0.95,-3.48,0.52
2022-01-30 16:34:23.5280,0.174,-0.628,-1.138,-0.74,2.18,0.58,0.75,-4.25,0.58
2022-01-30 16:34:23.5380,0.184,-0.539,-1.294,-2.39,1.42,3.58,0.47,-4.88,0.54
2022-01-30 16:34:23.5480,0.167,-0.477,-1.375,-2.39,1.42,3.58,0.09,-5.18,0.49
2022-01-30 16:34:23.5570,0.161,-0.529,-1.458,-2.69,0.66,4.53,-0.28,-5.21,0.51
2022-01-30 16:34:23.5670,0.158,-0.582,-1.562,-3.55,1.7,6.45,-0.44,-5.01,0.55
2022-01-30 16:34:23.5780,0.138,-0.546,-1.619,-3.55,1.7,6.45,-0.35,-4.54,0.59
2022-01-30 16:34:23.5880,0.084,-0.47,-1.568,-3.75,0.81,6.95,-0.12,-3.72,0.64
2022-01-30 16:34:23.5980,0.031,-0.425,-1.436,-3.75,0.81,6.95,0.04,-2.63,0.74
2022-01-30 16:34:23.6080,-0.026,-0.406,-1.3,-3.23,0.16,4.54,0.04,-2.63,0.74
2022-01-30 16:34:23.6260,-0.077,-0.407,-1.188,-2.87,0.18,3.46,-0.46,-0.23,0.96
2022-01-30 16:34:23.6280,-0.128,-0.439,-1.082,-2.87,0.18,3.46,-0.93,0.8,1.09
2022-01-30 16:34:23.6370,-0.168,-0.474,-1.011,-1.97,1.03,1.56,-1.31,1.5,1.19
2022-01-30 16:34:23.6480,-0.188,-0.494,-0.99,-1.97,1.03,1.56,-1.46,1.77,1.26
2022-01-30 16:34:23.6570,-0.178,-0.525,-0.986,-1.61,1.84,1.04,-1.35,1.61,1.33
2022-01-30 16:34:23.6670,-0.166,-0.576,-1.028,-1.66,2.47,1.28,-0.99,1.03,1.42
2022-01-30 16:34:23.6780,-0.188,-0.643,-1.103,-1.66,2.47,1.28,-0.34,0.23,1.46
2022-01-30 16:34:23.6880,-0.205,-0.685,-1.121,-1.27,3.79,2.23,-0.34,0.23,1.46
2022-01-30 16:34:23.6980,-0.182,-0.681,-1.087,-1.27,3.79,2.23,1.46,-1.26,1.13
2022-01-30 16:34:23.7070,-0.154,-0.663,-1.019,-1.99,3.51,1.47,2.14,-1.7,0.83
2022-01-30 16:34:23.7180,-0.134,-0.653,-0.877,-2.35,3.24,0.28,2.14,-1.7,0.83
2022-01-30 16:34:23.7280,-0.104,-0.631,-0.748,-2.35,3.24,0.28,2.71,-1.82,0.31
2022-01-30 16:34:23.7390,-0.055,-0.587,-0.682,-3.42,2.24,-1.45,2.72,-1.77,0.09
2022-01-30 16:34:23.7490,-0.002,-0.525,-0.63,-3.42,2.24,-1.45,2.67,-1.67,-0.13
2022-01-30 16:34:23.7590,0.038,-0.468,-0.59,-4.1,1.42,-1.79,2.57,-1.53,-0.3
2022-01-30 16:34:23.7690,0.047,-0.422,-0.606,-4.88,-0.03,-1.8,2.57,-1.53,-0.3
2022-01-30 16:34:23.7800,0.022,-0.364,-0.659,-4.88,-0.03,-1.8,2.16,-1.44,-0.54
2022-01-30 16:34:23.7890,-0.01,-0.293,-0.685,-4.51,-1.65,-0.66,1.93,-1.42,-0.68
2022-01-30 16:34:23.7990,-0.027,-0.246,-0.679,-4.51,-1.65,-0.66,1.67,-1.28,-0.89
2022-01-30 16:34:23.8090,-0.008,-0.29,-0.619,-4.39,-2.35,-0.52,1.41,-0.89,-1.14
2022-01-30 16:34:23.8190,0.044,-0.393,-0.545,-5.06,-1.35,-1.54,1.08,-0.26,-1.43
2022-01-30 16:34:23.8290,0.082,-0.442,-0.494,-5.06,-1.35,-1.54,0.69,0.52,-1.74
2022-01-30 16:34:23.8390,0.097,-0.458,-0.44,-5.4,-0.91,-1.99,0.3,1.39,-1.98
2022-01-30 16:34:23.8490,0.099,-0.526,-0.416,-5.43,-0.9,-2.52,0.3,1.39,-1.98
2022-01-30 16:34:23.8590,0.086,-0.632,-0.495,-4.89,0.54,-2.36,-0.51,2.54,-1.93
2022-01-30 16:34:23.8690,0.04,-0.727,-0.672,-4.2,1.49,-0.83,-0.76,2.48,-1.71
2022-01-30 16:34:23.8800,-0.032,-0.756,-0.876,-4.2,1.49,-0.83,-0.72,2.0,-1.47
2022-01-30 16:34:23.8890,-0.101,-0.736,-1.091,-2.33,1.7,3.03,-0.35,1.23,-1.29
2022-01-30 16:34:23.8990,-0.157,-0.693,-1.244,-2.33,1.7,3.03,0.28,0.55,-1.21
2022-01-30 16:34:23.9090,-0.209,-0.633,-1.257,-0.99,0.64,4.91,0.99,0.3,-1.24
2022-01-30 16:34:23.9190,-0.262,-0.557,-1.175,-0.99,0.64,4.91,0.99,0.3,-1.24
2022-01-30 16:34:23.9290,-0.277,-0.498,-1.021,-0.36,-0.19,4.27,2.01,1.53,-1.44
2022-01-30 16:34:23.9390,-0.244,-0.463,-0.921,-0.02,-0.97,2.86,2.01,1.53,-1.44
2022-01-30 16:34:23.9490,-0.196,-0.426,-0.867,-0.09,-1.51,1.85,2.06,3.34,-1.69
2022-01-30 16:34:23.9590,-0.163,-0.405,-0.829,-0.27,-2.48,1.02,1.84,3.83,-1.69
2022-01-30 16:34:23.9690,-0.145,-0.391,-0.856,-0.08,-2.77,1.24,1.5,3.88,-1.58
2022-01-30 16:34:23.9790,-0.141,-0.404,-0.935,-0.08,-2.77,1.24,1.06,3.58,-1.4
2022-01-30 16:34:23.9890,-0.144,-0.481,-1.001,0.61,-2.23,2.77,0.71,3.14,-1.17
2022-01-30 16:34:24.0000,-0.14,-0.562,-1.018,0.61,-2.23,2.77,0.53,2.7,-1.05
2022-01-30 16:34:24.0090,-0.112,-0.574,-1.029,0.89,-1.44,3.0,0.53,2.7,-1.05
2022-01-30 16:34:24.0200,-0.085,-0.605,-1.024,0.83,-1.1,3.16,0.56,1.91,-0.87
2022-01-30 16:34:24.0290,-0.091,-0.646,-0.954,0.83,-1.1,3.16,0.63,1.72,-0.59
2022-01-30 16:34:24.0400,-0.124,-0.58,-0.859,1.04,-0.66,2.59,0.61,1.58,-0.27
2022-01-30 16:34:24.0490,-0.162,-0.486,-0.778,1.49,-1.23,1.7,0.48,1.48,0.07
2022-01-30 16:34:24.0590,-0.195,-0.464,-0.701,1.99,-2.23,0.94,0.27,1.45,0.39
2022-01-30 16:34:24.0690,-0.204,-0.469,-0.61,2.62,-2.53,-0.62,0.05,1.5,0.58
2022-01-30 16:34:24.0810,-0.171,-0.481,-0.515,2.62,-2.53,-0.62,-0.2,1.56,0.65
2022-01-30 16:34:24.0890,-0.119,-0.53,-0.464,2.4,-2.44,-1.56,-0.55,1.56,0.67
2022-01-30 16:34:24.1000,-0.082,-0.631,-0.446,1.95,-2.01,-2.13,-1.03,1.55,0.72
2022-01-30 16:34:24.1090,-0.075,-0.727,-0.425,1.56,0.04,-2.63,-1.61,1.59,0.78
2022-01-30 16:34:24.1200,-0.096,-0.731,-0.416,1.56,0.04,-2.63,-2.18,1.67,0.77
2022-01-30 16:34:24.1300,-0.136,-0.667,-0.424,1.79,0.32,-2.84,-2.65,1.77,0.7
2022-01-30 16:34:24.1400,-0.183,-0.603,-0.464,2.23,-0.12,-2.93,-2.94,1.81,0.57
2022-01-30 16:34:24.1500,-0.197,-0.527,-0.53,2.78,-0.57,-2.73,-2.97,1.71,0.37
2022-01-30 16:34:24.1600,-0.168,-0.455,-0.581,2.94,-1.61,-1.9,-2.75,1.56,0.17
2022-01-30 16:34:24.1700,-0.117,-0.464,-0.578,2.94,-1.61,-1.9,-2.36,1.41,0.13
2022-01-30 16:34:24.1800,-0.063,-0.576,-0.573,2.56,-1.45,-2.02,-1.91,1.22,0.37
2022-01-30 16:34:24.1900,-0.018,-0.7,-0.597,2.12,-0.27,-2.22,-1.49,0.95,0.82
2022-01-30 16:34:24.2000,0.014,-0.735,-0.63,1.74,1.14,-2.09,-1.11,0.59,1.28
2022-01-30 16:34:24.2100,0.015,-0.679,-0.699,1.43,1.72,-1.85,-0.74,0.09,1.7
2022-01-30 16:34:24.2200,-0.039,-0.61,-0.767,1.71,0.66,-0.59,-0.26,-0.33,2.05
2022-01-30 16:34:24.2300,-0.105,-0.545,-0.757,2.22,0.02,-0.62,0.35,-0.62,2.29
2022-01-30 16:34:24.2400,-0.153,-0.449,-0.742,2.22,0.02,-0.62,0.95,-0.88,2.34
2022-01-30 16:34:24.2500,-0.168,-0.352,-0.767,2.55,-0.94,-0.79,1.37,-1.2,2.25
2022-01-30 16:34:24.2600,-0.164,-0.328,-0.792,2.54,-2.04,-0.54,1.6,-1.5,2.12
2022-01-30 16:34:24.2700,-0.166,-0.351,-0.793,2.27,-2.51,-0.2,1.65,-1.72,2.03
2022-01-30 16:34:24.2800,-0.178,-0.362,-0.779,2.04,-2.44,-0.08,1.49,-1.83,1.97
2022-01-30 16:34:24.2900,-0.201,-0.372,-0.795,1.8424784097075464,-2.46,0.07,1.1,-1.87,1.93
2022-01-30 16:34:24.3000,-0.238,-0.371,-0.822,1.92,-2.51,0.41,0.49,-1.76,1.83
2022-01-30 16:34:24.3100,-0.27,-0.345,-0.817,1.92,-2.51,0.41,-0.23,-1.45,1.6
2022-01-30 16:34:24.3210,-0.305,-0.31,-0.811,2.01,-2.77,0.44,-0.97,-0.97,1.24
2022-01-30 16:34:24.3300,-0.366,-0.242,-0.813,2.12,-3.05,0.34,-0.97,-0.32,0.82
2022-01-30 16:34:24.3410,-0.419,-0.149,-0.795,2.56,-3.59,0.32,-2.1,0.43,0.39
2022-01-30 16:34:24.3510,-0.44,-0.07,-0.777,3.31,-4.98,-0.27,-2.4,1.15,0.05
2022-01-30 16:34:24.3610,-0.453,-0.04,-0.789,3.31,-4.98,-0.27,-2.56,1.75,-0.13
2022-01-30 16:34:24.3700,-0.462,-0.087,-0.823,3.79,-4.59,-0.18,-2.52,2.21,-0.11
2022-01-30 16:34:24.3810,-0.465,-0.203,-0.88,4.01,-3.31,0.19,-2.28,2.47,0.07
2022-01-30 16:34:24.3900,-0.454,-0.327,-0.999,4.01,-3.31,0.19,-1.89,2.36,0.24
2022-01-30 16:34:24.4000,-0.441,-0.369,-1.156,4.12,-1.86,1.14,-1.42,1.93,0.26
2022-01-30 16:34:24.4100,-0.441,-0.324,-1.25,4.3,-1.41,3.56,-0.93,1.37,0.1
2022-01-30 16:34:24.4210,-0.466,-0.25,-1.269,4.63,-2.05,3.78,-0.56,0.82,-0.16
2022-01-30 16:34:24.4310,-0.501,-0.174,-1.246,5.05,-2.75,3.56,-0.38,0.32,-0.35
2022-01-30 16:34:24.4410,-0.518,-0.116,-1.21,5.05,-2.75,3.56,-0.38,0.32,-0.35
2022-01-30 16:34:24.4510,-0.491,-0.085,-1.206,5.08,-3.61,3.08,-0.45,-0.61,-0.3
2022-01-30 16:34:24.4610,-0.442,-0.091,-1.235,5.08,-3.61,3.08,-0.57,-1.13,-0.11
2022-01-30 16:34:24.4700,-0.391,-0.173,-1.273,4.56,-3.58,3.31,-0.65,-1.67,0.18
2022-01-30 16:34:24.4810,-0.357,-0.295,-1.291,3.95,-2.82,3.66,-0.64,-2.19,0.5
2022-01-30 16:34:24.4910,-0.352,-0.359,-1.328,3.42,-1.56,3.84,-0.61,-2.78,0.69
2022-01-30 16:34:24.5010,-0.387,-0.32,-1.378,3.12,-0.99,4.64,-0.56,-3.37,0.73
2022-01-30 16:34:24.5110,-0.436,-0.27,-1.358,3.12,-0.99,4.64,-0.51,-3.79,0.66
2022-01-30 16:34:24.5210,-0.467,-0.267,-1.282,3.27,-1.46,4.54,-0.55,-3.97,0.51
2022-01-30 16:34:24.5310,-0.455,-0.29,-1.211,3.25,-1.48,3.85,-0.78,-3.95,0.26
2022-01-30 16:34:24.5410,-0.422,-0.34,-1.144,2.81,-1.22,3.16,-1.21,-3.75,-0.04
2022-01-30 16:34:24.5510,-0.387,-0.393,-1.077,1.48,-0.03,1.91,-1.79,-3.47,-0.38
2022-01-30 16:34:24.5610,-0.347,-0.404,-1.047,1.48,-0.03,1.91,-2.49,-3.22,-0.81
2022-01-30 16:34:24.5710,-0.301,-0.377,-1.078,0.81,0.29,1.57,-3.28,-3.05,-1.28
2022-01-30 16:34:24.5810,-0.26,-0.372,-1.158,0.12,0.26,1.8,-4.03,-2.96,-1.66
2022-01-30 16:34:24.5910,-0.24,-0.422,-1.242,-0.53,0.4,2.51,-4.53,-2.85,-1.83
2022-01-30 16:34:24.6010,-0.235,-0.488,-1.324,-0.95,1.15,3.33,-4.52,-2.79,-1.81
2022-01-30 16:34:24.6120,-0.226,-0.528,-1.43,-1.48,2.91,5.13,-3.88,-2.75,-1.71
2022-01-30 16:34:24.6220,-0.202,-0.527,-1.455,-1.48,2.91,5.13,-2.7,-2.49,-1.6
2022-01-30 16:34:24.6320,-0.19,-0.475,-1.347,-1.92,3.22,5.54,-1.39,-1.92,-1.53
2022-01-30 16:34:24.6410,-0.172,-0.427,-1.188,-2.24,2.92,4.66,-1.39,-1.92,-1.53
2022-01-30 16:34:24.6520,-0.128,-0.452,-1.01,-2.51,2.43,3.2,0.35,-0.29,-1.25
2022-01-30 16:34:24.6620,-0.05,-0.509,-0.845,-2.99,2.56,1.49,0.65,0.47,-1.1
2022-01-30 16:34:24.6710,0.047,-0.581,-0.741,-4.566807279288769,3.59,-1.27,0.74,0.96,-0.95
2022-01-30 16:34:24.6820,0.137,-0.68,-0.708,-5.38,4.45,-1.7,0.71,1.05,-0.79
2022-01-30 16:34:24.6920,0.208,-0.741,-0.725,-5.38,4.45,-1.7,0.68,0.76,-0.64
2022-01-30 16:34:24.7020,0.256,-0.759,-0.731,-6.43,5.16,-1.52,0.74,0.23,-0.49
2022-01-30 16:34:24.7120,0.261,-0.739,-0.745,-6.43,5.16,-1.52,0.92,-0.49,-0.32
2022-01-30 16:34:24.7220,0.232,-0.671,-0.789,-6.51,4.94,-1.41,1.19,-1.28,-0.17
2022-01-30 16:34:24.7320,0.18,-0.605,-0.809,-6.3,4.23,-0.94,1.46,-2.02,-0.09
2022-01-30 16:34:24.7420,0.115,-0.523,-0.885,-5.93,3.45,-0.64,1.47,-2.88,-0.21
2022-01-30 16:34:24.7520,0.058,-0.396,-1.078,-5.48,2.58,0.09,1.12,-3.75,-0.51
2022-01-30 16:34:24.7620,0.009,-0.359,-1.167,-5.15,1.19,2.08,1.12,-3.75,-0.51
2022-01-30 16:34:24.7720,-0.003,-0.377,-1.064,-4.94,0.58,3.42,0.35,-3.61,-1.47
2022-01-30 16:34:24.7830,0.009,-0.371,-0.966,-5.06,0.65,2.77,-0.07,-2.54,-2.06
2022-01-30 16:34:24.7920,0.014,-0.36,-0.922,-5.57,0.31,1.58,-0.51,-1.0,-2.6
2022-01-30 16:34:24.8020,0.02,-0.359,-0.871,-5.57418108701706,0.17635611712932586,1.12,-0.9,0.83,-2.98
2022-01-30 16:34:24.8120,0.036,-0.383,-0.834,-5.55,0.29,0.62,-1.2,2.69,-3.13
2022-01-30 16:34:24.8220,0.06,-0.423,-0.855,-5.55,0.29,0.62,-1.2,2.69,-3.13
2022-01-30 16:34:24.8320,0.086,-0.444,-0.934,-5.44,0.62,0.57,-1.38,5.24,-2.84
2022-01-30 16:34:24.8420,0.101,-0.441,-1.067,-4.88,0.8,2.0,-1.18,5.58,-2.54
2022-01-30 16:34:24.8520,0.1,-0.452,-1.181,-4.329253326058388,0.8996400287747384,2.94,-0.66,5.41,-2.21
2022-01-30 16:34:24.8620,0.084,-0.461,-1.226,-4.33,0.89,2.94,0.14,4.94,-1.88
2022-01-30 16:34:24.8720,0.059,-0.434,-1.195,-2.92,0.7,2.96,1.07,4.29,-1.56
2022-01-30 16:34:24.8830,0.039,-0.408,-1.119,-2.92,0.7,2.96,1.92,3.62,-1.22
2022-01-30 16:34:24.8920,0.021,-0.412,-1.016,-2.29,0.27,2.21,2.52,2.98,-0.84
2022-01-30 16:34:24.9020,0.015,-0.44,-0.939,-1.75,0.09,1.23,2.83,2.39,-0.49
2022-01-30 16:34:24.9120,0.017,-0.476,-0.89,-1.38,0.1,0.47,2.89,1.96,-0.26
2022-01-30 16:34:24.9220,0.026,-0.506,-0.854,-1.17,0.21,0.09,2.7,1.66,-0.12
2022-01-30 16:34:24.9330,0.021,-0.558,-0.87,-1.08,0.25,-0.2,2.33,1.44,-0.06
2022-01-30 16:34:24.9420,0.011,-0.602,-0.94,-0.9,0.51,0.01,1.78,1.2,-0.1
2022-01-30 16:34:24.9520,-0.003,-0.616,-1.049,-0.68,0.78,0.73,1.12,0.92,-0.22
2022-01-30 16:34:24.9630,-0.019,-0.648,-1.16,-0.46,0.79,1.85,0.53,0.71,-0.35
2022-01-30 16:34:24.9730,-0.009,-0.728,-1.209,-0.2,0.98,3.625933855175972,0.22,0.76,-0.44
2022-01-30 16:34:24.9830,0.027,-0.803,-1.196,-0.18,1.67,3.62,0.22,0.76,-0.44
2022-01-30 16:34:24.9930,0.046,-0.776,-1.235,-0.43,2.45,3.53,0.34,1.21,-0.51
2022-01-30 16:34:25.0030,0.025,-0.693,-1.275,-0.26,1.46,4.34,0.42,1.49,-0.35
2022-01-30 16:34:25.0130,-0.021,-0.649,-1.196,-0.26,1.46,4.34,0.44,1.84,0.0
2022-01-30 16:34:25.0230,-0.064,-0.6,-1.097,0.32,0.95,3.7,0.41,2.1,0.42
2022-01-30 16:34:25.0330,-0.076,-0.556,-1.039,0.91,0.47,2.73,0.31,2.14,0.77
2022-01-30 16:34:25.0430,-0.043,-0.564,-1.007,1.22,-0.04,2.14,0.12,1.99,0.95
2022-01-30 16:34:25.0530,0.02,-0.615,-0.979,1.08,-0.05,1.84,-0.15,1.73,0.92
2022-01-30 16:34:25.0630,0.08,-0.674,-0.935,0.59,0.4,1.58,-0.45,1.51,0.74
2022-01-30 16:34:25.0730,0.11,-0.677,-0.858,-0.19,1.16,0.45,-0.72,1.38,0.5
2022-01-30 16:34:25.0830,0.115,-0.619,-0.78,-0.19,1.16,0.45,-0.92,1.32,0.28
2022-01-30 16:34:25.0930,0.117,-0.546,-0.725,-0.1,0.05,-0.97,-1.06,1.29,0.2
2022-01-30 16:34:25.1040,0.116,-0.494,-0.678,0.0,-0.4,-1.48,-1.13,1.27,0.27
2022-01-30 16:34:25.1130,0.112,-0.461,-0.64,0.0,-0.4,-1.48,-1.13,1.27,0.27
2022-01-30 16:34:25.1230,0.097,-0.433,-0.622,0.12,-0.65,-1.91,-1.06,1.11,0.81
2022-01-30 16:34:25.1330,0.076,-0.399,-0.61,0.32,-0.84,-2.16,-0.91,0.95,1.17
2022-01-30 16:34:25.1440,0.051,-0.351,-0.598,0.58,-1.07,-2.31,-0.91,0.95,1.17
2022-01-30 16:34:25.1530,0.028,-0.297,-0.568,0.84,-1.48,-2.46,-0.4227456748485565,0.79,1.6587733030319214
