time,gFx,gFy,gFz,ax,ay,az,wx,wy,wz
2022-01-30 16:35:02.1780,0.127,-0.357,-0.777,0.17,0.14,-0.3,-0.25,0.65,-0.26
2022-01-30 16:49:39.1010,0.168,-0.355,-0.833,0.43,0.23,-1.19,-0.25,0.65,-0.26
2022-01-30 16:49:39.1090,0.193,-0.403,-0.874,-0.1,-0.38,-0.62,-0.07,0.2,-0.08
2022-01-30 16:49:39.1130,0.199,-0.412,-0.89,-0.3,0.05,-0.24,-0.01,-0.19,-0.04
2022-01-30 16:49:39.1230,0.189,-0.417,-0.882,-0.35,0.13,-0.13,0.02,-0.52,-0.06
2022-01-30 16:49:39.1330,0.167,-0.417,-0.868,-0.11,0.16,-0.38,0.02,-0.75,-0.08
2022-01-30 16:49:39.1440,0.135,-0.411,-0.857,-0.11,0.16,-0.38,-0.0,-0.87,-0.1
2022-01-30 16:49:39.1540,0.098,-0.419,-0.87,0.43,0.22,-0.35,-0.05,-0.89,-0.11
2022-01-30 16:49:39.1640,0.053,-0.421,-0.88,0.43,0.22,-0.35,-0.08,-0.8,-0.12
2022-01-30 16:49:39.1740,0.006,-0.388,-0.873,0.82,0.21,-0.29,-0.04,-0.66,-0.16
2022-01-30 16:49:39.1840,-0.021,-0.354,-0.877,1.21,-0.13,-0.36,0.02,-0.5,-0.19
2022-01-30 16:49:39.1940,-0.041,-0.347,-0.885,1.57,-0.49,-0.23,0.09,-0.41,-0.18
2022-01-30 16:49:39.2040,-0.049,-0.356,-0.92,1.57,-0.49,-0.23,0.15,-0.43,-0.15
2022-01-30 16:49:39.2150,-0.051,-0.367,-0.954,1.61,-0.4,0.13,0.2,-0.53,-0.13
2022-01-30 16:49:39.2250,-0.063,-0.375,-0.967,1.58,-0.3,0.45,0.23,-0.62,-0.13
2022-01-30 16:49:39.2340,-0.084,-0.384,-0.955,1.67,-0.25,0.55,0.24,-0.64,-0.13
2022-01-30 16:49:39.2450,-0.11,-0.396,-0.935,1.83,-0.17,0.41,0.25,-0.57,-0.15
2022-01-30 16:49:39.2550,-0.133,-0.406,-0.915,2.04,-0.08,0.22,0.25,-0.43,-0.17
2022-01-30 16:49:39.2650,-0.151,-0.418,-0.889,2.23,0.0,0.02,0.25,-0.43,-0.17
2022-01-30 16:49:39.2750,-0.164,-0.432,-0.875,2.39,0.11,-0.22,0.19,-0.01,-0.21
2022-01-30 16:49:39.2850,-0.166,-0.437,-0.875,2.53,0.25,-0.3,0.15,0.12,-0.25
2022-01-30 16:49:39.2950,-0.151,-0.434,-0.885,2.4,0.22,-0.21,0.15,0.17,-0.3
2022-01-30 16:49:39.3050,-0.129,-0.439,-0.882,2.2087949220836163,0.27,-0.24,0.14,0.15,-0.35
2022-01-30 16:49:39.3150,-0.108,-0.453,-0.885,2.2,0.27,-0.24,0.12,0.06,-0.4
2022-01-30 16:49:39.3250,-0.097,-0.464,-0.895,2.03,0.4,-0.19,0.09,-0.08,-0.44
2022-01-30 16:49:39.3350,-0.087,-0.474,-0.898,1.93,0.51,-0.09,0.05,-0.24,-0.49
2022-01-30 16:49:39.3450,-0.079,-0.477,-0.896,1.76,0.62,-0.1,0.03,-0.35,-0.54
2022-01-30 16:49:39.3550,-0.074,-0.471,-0.882,1.76,0.62,-0.1,0.02,-0.42,-0.59
2022-01-30 16:49:39.3650,-0.068,-0.464,-0.879,1.7,0.56,-0.26,0.02,-0.46,-0.61
2022-01-30 16:49:39.3750,-0.06,-0.47,-0.883,1.52,0.58,-0.24,0.05,-0.47,-0.61
2022-01-30 16:49:39.3850,-0.051,-0.469,-0.879,1.52,0.58,-0.24,0.09,-0.44,-0.59
2022-01-30 16:49:39.3950,-0.039,-0.466,-0.887,1.41,0.55,-0.27,0.15,-0.42,-0.56
2022-01-30 16:49:39.4050,-0.026,-0.467,-0.898,1.27,0.52,-0.18,0.22,-0.41,-0.5
2022-01-30 16:49:39.4150,-0.012,-0.477,-0.917,1.13,0.53,-0.07,0.28,-0.44,-0.43
2022-01-30 16:49:39.4250,0.002,-0.487,-0.94,0.81,0.68,0.37,0.35,-0.5,-0.37
2022-01-30 16:49:39.4360,0.012,-0.491,-0.962,0.81,0.68,0.37,0.43,-0.59,-0.32
2022-01-30 16:49:39.4460,0.019,-0.489,-0.986,0.67,0.67,0.61,0.52,-0.65,-0.27
2022-01-30 16:49:39.4550,0.019,-0.491,-0.99,0.57,0.61,0.84,0.65,-0.61,-0.21
2022-01-30 16:49:39.4650,0.014,-0.492,-0.983,0.53,0.59,0.88,0.65,-0.61,-0.21
2022-01-30 16:49:39.4760,0.007,-0.486,-0.976,0.58,0.37,0.82,0.94,-0.37,-0.08
2022-01-30 16:49:39.4860,0.008,-0.478,-0.977,0.58,0.37,0.82,1.03,-0.27,-0.04
2022-01-30 16:49:39.4950,0.011,-0.475,-0.977,0.49,0.09,0.92,1.08,-0.18,-0.0
2022-01-30 16:49:39.5060,0.015,-0.478,-0.973,0.44,0.03,0.91,1.1,-0.07,0.05
2022-01-30 16:49:39.5150,0.029,-0.482,-0.948,0.44,0.03,0.91,1.1,0.05,0.1
2022-01-30 16:49:39.5250,0.045,-0.487,-0.933,0.14,-0.07,0.64,1.09,0.13,0.14
2022-01-30 16:49:39.5360,0.056,-0.49,-0.932,0.14,-0.07,0.64,1.09,0.13,0.14
2022-01-30 16:49:39.5460,0.067,-0.49,-0.934,0.03,-0.14,0.68,1.08,0.03,0.2
2022-01-30 16:49:39.5560,0.075,-0.497,-0.933,-0.08,-0.22,0.75,1.09,-0.13,0.2
2022-01-30 16:49:39.5650,0.077,-0.506,-0.921,-0.17,-0.24,0.8,1.14,-0.29,0.19
2022-01-30 16:49:39.5760,0.076,-0.51,-0.907,-0.22,-0.25,0.72,1.2,-0.43,0.16
2022-01-30 16:49:39.5860,0.071,-0.503,-0.889,-0.24,-0.5,0.52,1.25,-0.52,0.12
2022-01-30 16:49:39.5960,0.062,-0.497,-0.861,-0.21,-0.66,0.32,1.3,-0.59,0.08
2022-01-30 16:49:39.6060,0.053,-0.501,-0.855,-0.18,-0.71,0.37,1.32,-0.69,0.07
2022-01-30 16:49:39.6160,0.041,-0.507,-0.856,-0.18,-0.71,0.37,1.32,-0.77,0.07
2022-01-30 16:49:39.6260,0.025,-0.514,-0.845,-0.03,-0.79,0.4,1.3,-0.81,0.07
2022-01-30 16:49:39.6360,0.007,-0.528,-0.843,-0.03,-0.79,0.4,1.26,-0.79,0.07
2022-01-30 16:49:39.6460,-0.014,-0.547,-0.831,0.23,-0.64,0.38,1.21,-0.69,0.07
2022-01-30 16:49:39.6570,-0.038,-0.577,-0.815,0.23,-0.64,0.38,1.21,-0.69,0.07
2022-01-30 16:49:39.6660,-0.061,-0.613,-0.813,0.61,-0.14,0.38,1.1,-0.42,0.1
2022-01-30 16:49:39.6770,-0.082,-0.655,-0.833,0.61,-0.14,0.38,1.02,-0.36,0.12
2022-01-30 16:49:39.6860,-0.093,-0.705,-0.871,0.77,0.2,0.67,0.96,-0.37,0.14
2022-01-30 16:49:39.6960,-0.105,-0.752,-0.9,0.84,0.63,1.1,0.95,-0.39,0.15
2022-01-30 16:49:39.7070,-0.131,-0.777,-0.916,0.92,1.0,1.43,0.97,-0.38,0.13
2022-01-30 16:49:39.7160,-0.168,-0.782,-0.916,1.16,1.14,1.63,1.02,-0.32,0.09
2022-01-30 16:49:39.7260,-0.205,-0.793,-0.905,1.5,1.11,1.68,1.04,-0.21,0.05
2022-01-30 16:49:39.7360,-0.234,-0.805,-0.882,2.11,1.2,1.47,1.01,-0.08,-0.0
2022-01-30 16:49:39.7470,-0.249,-0.81,-0.866,2.11,1.2,1.47,0.93,0.04,-0.06
2022-01-30 16:49:39.7560,-0.25,-0.808,-0.849,2.24,1.17,1.38,0.81,0.14,-0.12
2022-01-30 16:49:39.7660,-0.238,-0.799,-0.828,2.15,0.94,1.1,0.66,0.2,-0.19
2022-01-30 16:49:39.7770,-0.217,-0.784,-0.812,1.97,0.76,0.98,0.5,0.22,-0.26
2022-01-30 16:49:39.7870,-0.194,-0.77,-0.794,1.97,0.76,0.98,0.35,0.2,-0.29
2022-01-30 16:49:39.7960,-0.175,-0.757,-0.769,1.78,0.4622036862373352,0.5855214643478394,0.22,0.16,-0.29
2022-01-30 16:49:39.8070,-0.156,-0.743,-0.736,1.46,0.31,0.25,0.14,0.13,-0.25
2022-01-30 16:49:39.8160,-0.139,-0.727,-0.705,1.46,0.31,0.25,0.09241275489330292,0.09,-0.20478057861328125
2022-01-30 16:49:39.8270,-0.12,-0.706,-0.683,1.32,0.14,-0.03,0.09,0.05,-0.18
2022-01-30 16:49:39.8370,-0.104,-0.685,-0.667,1.14,-0.07,-0.24,0.09,0.05,-0.18
2022-01-30 16:49:39.8470,-0.097,-0.66,-0.64,1.01,-0.29,-0.39,0.12,0.03,-0.16
2022-01-30 16:49:39.8570,-0.088,-0.641,-0.606,0.96,-0.55,-0.66,0.2,0.11,-0.14
2022-01-30 16:49:39.8660,-0.076,-0.635,-0.583,0.79,-0.79,-1.17,0.19,0.14,-0.13
2022-01-30 16:49:39.8760,-0.066,-0.63,-0.564,0.71,-0.85,-1.36,0.12,0.16,-0.12
2022-01-30 16:49:39.8860,-0.064,-0.617,-0.539,0.71,-0.85,-1.36,0.03,0.18,-0.11
2022-01-30 16:49:39.8970,-0.066,-0.599,-0.513,0.72,-0.99,-1.6,-0.1,0.22,-0.09
2022-01-30 16:49:39.9060,-0.072,-0.58,-0.487,0.85,-1.33,-2.13,-0.21,0.26,-0.06
2022-01-30 16:49:39.9160,-0.072,-0.561,-0.472,0.85,-1.5,-2.29,-0.28,0.3,-0.03
2022-01-30 16:49:39.9260,-0.069,-0.538,-0.466,0.85,-1.5,-2.29,-0.28,0.33,0.02
2022-01-30 16:49:39.9360,-0.073,-0.514,-0.461,0.86,-1.71,-2.35,-0.2,0.34,0.07
2022-01-30 16:49:39.9460,-0.075,-0.493,-0.454,0.92,-1.93,-2.42,-0.05,0.35,0.12
2022-01-30 16:49:39.9560,-0.071,-0.484,-0.434,0.95,-2.12,-2.702041622400284,0.12,0.4,0.15
2022-01-30 16:49:39.9660,-0.055,-0.488,-0.411,0.91,-2.2,-2.71,0.25,0.48,0.17
2022-01-30 16:49:39.9770,-0.032,-0.498,-0.414,0.56,-2.07,-2.81,0.31,0.51,0.18
2022-01-30 16:49:39.9870,-0.017,-0.525,-0.438,0.44,-1.82,-2.55,0.3,0.49,0.21
2022-01-30 16:49:39.9980,-0.008,-0.552,-0.463,0.44,-1.82,-2.55,0.3,0.4514247179031372,0.24
2022-01-30 16:49:40.0070,0.007,-0.568,-0.499,0.37,-1.59,-2.28,0.26,0.42,0.28
2022-01-30 16:49:40.0170,0.02,-0.583,-0.527,0.1,-1.32,-1.62,0.32,0.46,0.35
2022-01-30 16:49:40.0270,0.031,-0.611,-0.544,0.0,-1.05,-1.43,0.44,0.61,0.46
2022-01-30 16:49:40.0370,0.056,-0.664,-0.55,-0.25,-0.53,-1.34,0.58,0.88,0.6
2022-01-30 16:49:40.0480,0.098,-0.743,-0.562,-0.25,-0.53,-1.34,0.64,1.14,0.78
2022-01-30 16:49:40.0580,0.147,-0.848,-0.626,-1.12,1.24,-0.39,0.55,1.25,0.96
2022-01-30 16:49:40.0670,0.18,-0.962,-0.743,-1.12,1.24,-0.39,0.3,1.12,1.08
2022-01-30 16:49:40.0770,0.215,-1.064,-0.872,-1.81,3.3,2.09,-0.03,0.87,1.08
2022-01-30 16:49:40.0880,0.25,-1.139,-0.988,-2.16,4.02,3.17,-0.33,0.58,0.98
2022-01-30 16:49:40.0980,0.271,-1.175,-1.063,-2.39,4.35,3.8,-0.54,0.38,0.81
2022-01-30 16:49:40.1080,0.265,-1.159,-1.103,-2.39,4.35,3.8,-0.63,0.31,0.65
2022-01-30 16:49:40.1180,0.225,-1.107,-1.108,-2.3,4.17,4.071970574855805,-0.64,0.4,0.56
2022-01-30 16:49:40.1280,0.187,-1.05,-1.07,-1.91,3.69,4.07,-0.64,0.4,0.56
2022-01-30 16:49:40.1380,0.17,-1.007,-1.035,-1.57,3.18,3.63,-0.72,0.79,0.72
2022-01-30 16:49:40.1470,0.168,-0.971,-1.008,-1.41,2.53,2.93,-0.82,0.96,0.89
2022-01-30 16:49:40.1580,0.176,-0.939,-0.981,-1.41,2.53,2.93,-0.93,1.07,1.05
2022-01-30 16:49:40.1680,0.179,-0.91,-0.956,-1.5,2.07,2.28,-1.0,1.11,1.17
Time,0.171,-0.867,-0.917,-1.42,1.69,1.81,-0.99,1.11,1.21
2022-01-30 16:49:40.1860,0.152,-0.811,-0.861,-1.23,1.2,1.2,-0.9,1.04,1.19
2022-01-30 16:49:40.1980,0.131,-0.752,-0.803,-1.23,1.2,1.2,-0.76,0.91,1.14
2022-01-30 16:49:40.2080,0.11,-0.695,-0.74,-1.03,0.67,0.58,-0.6,0.71,1.05
2022-01-30 16:49:40.2180,0.091,-0.638,-0.672,-0.85,0.16,-0.09,-0.6,0.71,1.05
2022-01-30 16:49:40.2280,0.066,-0.583,-0.613,-0.49,-0.89,-1.37,-0.32,0.11,0.83
2022-01-30 16:49:40.2380,0.041,-0.527,-0.562,-0.49,-0.89,-1.37,-0.22,-0.22,0.7
2022-01-30 16:49:40.2480,0.017,-0.467,-0.514,-0.31,-1.42,-1.88,-0.13,-0.53,0.54
2022-01-30 16:49:40.2580,-0.009,-0.404,-0.471,-0.15,-2.0,-2.36,-0.05,-0.77,0.39
2022-01-30 16:49:40.2690,-0.04,-0.341,-0.433,0.03,-2.62,-2.78,-0.05,-0.77,0.26297810673713684
2022-01-30 16:49:40.2790,-0.072,-0.287,-0.4,0.26,-3.23,-3.15,0.15,-0.91,0.16
2022-01-30 16:49:40.2880,-0.099,-0.238,-0.372,0.49,-3.77,-3.45,0.29,-0.78,0.06
2022-01-30 16:49:40.2990,-0.118,-0.194,-0.344,0.82,-4.72,-3.95,0.42,-0.51,-0.03
2022-01-30 16:49:40.3090,-0.123,-0.163,-0.31,0.82,-4.72,-3.95,0.56,-0.13,-0.11
2022-01-30 16:49:40.3190,-0.117,-0.155,-0.285,0.85,-5.03,-4.25,0.67,0.27,-0.18
2022-01-30 16:49:40.3280,-0.1,-0.158,-0.281,0.81,-5.14,-4.42,0.77,0.63,-0.23
2022-01-30 16:49:40.3380,-0.09,-0.163,-0.279,0.69,-5.16,-4.41,0.86,0.94,-0.29
2022-01-30 16:49:40.3490,-0.084,-0.164,-0.291,0.74,-5.22,-4.16,0.92,1.14,-0.35
2022-01-30 16:49:40.3590,-0.066,-0.173,-0.324,0.74,-5.22,-4.16,0.94,1.22,-0.39
2022-01-30 16:49:40.3680,-0.04,-0.204,-0.378,0.51,-4.92,-3.12,0.93,1.16,-0.41
2022-01-30 16:49:40.3790,-0.02,-0.248,-0.454,0.4326951277256012,-4.536697334647179,-2.3041087764501573,0.91,1.02,-0.4
2022-01-30 16:49:40.3890,-0.004,-0.303,-0.515,0.43,-4.54,-2.31,0.89,0.91,-0.35
2022-01-30 16:49:40.3980,0.019,-0.403,-0.568,0.34,-4.03,-1.67,0.89,0.85,-0.24
2022-01-30 16:49:40.4090,0.035,-0.543,-0.668,0.1,-1.7,0.08,0.87,0.7,-0.1
2022-01-30 16:49:40.4190,0.042,-0.663,-0.85,0.1,-1.7,0.08,0.76,0.35,0.02
2022-01-30 16:49:40.4290,0.036,-0.743,-1.056,0.06,-0.63,2.0,0.63,-0.16,0.09
2022-01-30 16:49:40.4390,0.021,-0.83,-1.22,0.13,0.09,4.03,0.52,-0.71,0.08
2022-01-30 16:49:40.4490,0.015,-0.943,-1.34,0.19,2.02,6.76,0.44,-1.19,-0.0
2022-01-30 16:49:40.4590,-0.006,-1.022,-1.4,0.19,2.02,6.76,0.41,-1.43,-0.12
2022-01-30 16:49:40.4690,-0.054,-1.041,-1.378,0.36,2.7,7.29,0.44,-1.29,-0.22
2022-01-30 16:49:40.4790,-0.082,-1.052,-1.252,0.77,2.81,6.97,0.44,-1.29,-0.22
2022-01-30 16:49:40.4890,-0.039,-1.116,-1.113,0.94,2.94,5.68,0.18,-0.21,-0.09
2022-01-30 16:49:40.4990,0.069,-1.221,-1.059,-0.68,4.69,3.93,-0.34,0.16,0.0
2022-01-30 16:49:40.5100,0.185,-1.309,-1.036,-0.68,4.69,3.93,-0.34,0.16,0.0
2022-01-30 16:49:40.5190,0.243,-1.363,-1.019,-1.75,5.58,3.63,-1.06,0.34,-0.02
2022-01-30 16:49:40.5290,0.247,-1.383,-1.018,-2.17,6.51,3.17,-2.46,0.32,-0.15
2022-01-30 16:49:40.5390,0.217,-1.353,-1.03,-2.17,6.51,3.17,-2.95,0.17,-0.14
2022-01-30 16:49:40.5490,0.174,-1.249,-1.07,-1.83,6.33,3.12,-3.12,-0.07,-0.12
2022-01-30 16:49:40.5600,0.125,-1.106,-1.112,-1.4,5.46,3.33,-2.94,-0.43,-0.1
2022-01-30 16:49:40.5690,0.066,-0.942,-1.116,-0.92,4.24,3.51,-2.48,-0.81,-0.04
2022-01-30 16:49:40.5800,0.013,-0.794,-1.059,-0.4,2.81,3.33,-2.48,-0.81,-0.04
2022-01-30 16:49:40.5900,-0.021,-0.707,-0.955,0.19,0.88,1.44,-1.35,-1.27,0.29
2022-01-30 16:49:40.6000,-0.042,-0.644,-0.837,0.19,0.88,1.44,-0.88,-1.34,0.48
2022-01-30 16:49:40.6100,-0.063,-0.579,-0.721,0.34,-0.26,-0.94,-0.88,-1.34,0.48
2022-01-30 16:49:40.6200,-0.084,-0.523,-0.614,0.34,-0.26,-0.94,-0.2,-1.33,0.73
2022-01-30 16:49:40.6290,-0.103,-0.468,-0.526,0.4,-0.78,-1.97,0.0,-1.32,0.77
2022-01-30 16:49:40.6400,-0.121,-0.426,-0.456,0.42,-1.31,-2.8,0.14,-1.3,0.79
2022-01-30 16:49:40.6490,-0.139,-0.418,-0.397,0.48,-1.76,-4.0,0.25,-1.27,0.77
2022-01-30 16:49:40.6600,-0.158,-0.404,-0.357,0.48,-1.76,-4.0,0.34,-1.21,0.69
2022-01-30 16:49:40.6700,-0.187,-0.378,-0.334,0.73,-2.22,-4.51,0.44,-1.09,0.53
2022-01-30 16:49:40.6800,-0.223,-0.359,-0.317,0.73,-2.22,-4.51,0.58,-0.95,0.31
2022-01-30 16:49:40.6900,-0.251,-0.34,-0.307,0.98,-2.43,-4.63,0.75,-0.8,0.02
2022-01-30 16:49:40.7000,-0.263,-0.327,-0.309,1.18,-2.68,-4.65,0.75,-0.8,0.02
2022-01-30 16:49:40.7100,-0.265,-0.331,-0.317,1.24,-2.9,-4.4,1.11,-0.65,-0.57
2022-01-30 16:49:40.7200,-0.257,-0.338,-0.332,1.24,-2.9,-4.4,1.26,-0.66,-0.86
2022-01-30 16:49:40.7300,-0.237,-0.339,-0.353,1.15,-2.94,-4.16,1.33,-0.72,-1.14
2022-01-30 16:49:40.7400,-0.211,-0.359,-0.385,0.73,-2.93,-3.42,1.29,-0.84,-1.39
2022-01-30 16:49:40.7500,-0.192,-0.396,-0.446,0.59,-2.65,-2.67,1.1,-1.04,-1.61
2022-01-30 16:49:40.7600,-0.186,-0.445,-0.546,0.59,-2.65,-2.67,0.83,-1.29,-1.8
2022-01-30 16:49:40.7700,-0.179,-0.52,-0.644,0.57,-2.23,-1.62,0.59,-1.47,-1.9
2022-01-30 16:49:40.7800,-0.155,-0.635,-0.767,0.5,-1.51,-0.6,0.48,-1.63,-1.89
2022-01-30 16:49:40.7900,-0.116,-0.767,-0.937,0.26,-0.39,0.72,0.57,-1.82,-1.82
2022-01-30 16:49:40.8000,-0.066,-0.884,-1.105,-0.15,0.83,2.47,0.75,-2.09,-1.73
2022-01-30 16:49:40.8100,-0.044,-0.957,-1.276,-0.64,1.87,4.2,0.86,-2.38,-1.7
2022-01-30 16:49:40.8200,-0.062,-0.988,-1.342,-0.86,2.44,5.91,0.86,-2.38,-1.7
2022-01-30 16:49:40.8310,-0.092,-1.027,-1.334,-0.69,2.65,6.49,0.56,-2.33,-1.82
2022-01-30 16:49:40.8400,-0.11,-1.044,-1.346,-0.43,2.99,6.49,0.11,-2.15,-1.97
2022-01-30 16:49:40.8510,-0.12,-1.016,-1.312,-0.26,3.05,6.64,0.11,-2.15,-1.97
2022-01-30 16:49:40.8600,-0.119,-1.018,-1.221,-0.15,2.78,6.2,-0.92,-1.41,-2.1
2022-01-30 16:49:40.8700,-0.105,-0.995,-1.158,-0.12,2.86,5.25,-1.45,-1.09,-2.16
2022-01-30 16:49:40.8800,-0.092,-0.921,-1.119,-0.19,2.63,4.59,-1.94,-0.82,-2.27
2022-01-30 16:49:40.8900,-0.09,-0.874,-1.053,-0.2,1.99,4.08,-2.27,-0.48,-2.3
2022-01-30 16:49:40.9010,-0.088,-0.852,-0.966,-0.08,1.72,3.23,-2.36,-0.13,-2.23
2022-01-30 16:49:40.9110,-0.066,-0.811,-0.904,0.03,1.65,2.23,-2.36,-0.13,-2.23
2022-01-30 16:49:40.9210,-0.026,-0.753,-0.863,-0.08,1.35,1.52,-1.74,0.06,-1.92
2022-01-30 16:49:40.9300,0.015,-0.697,-0.813,-0.36,0.9,1.01,-1.18,-0.15,-1.72
2022-01-30 16:49:40.9410,0.051,-0.647,-0.729,-0.64,0.44,0.4,-1.18,-0.15,-1.72
2022-01-30 16:49:40.9510,0.092,-0.605,-0.63,-0.94,0.0,-0.49,0.07,-0.78,-1.31
2022-01-30 16:49:40.9610,0.135,-0.565,-0.535,-1.32,-0.42,-1.44,0.65,-1.08,-1.15
2022-01-30 16:49:40.9710,0.161,-0.538,-0.448,-1.75,-0.85,-2.34,1.14,-1.29,-1.07
2022-01-30 16:49:40.9810,0.187,-0.466,-0.344,-2.01,-1.26,-3.12,1.51,-1.31,-0.94
2022-01-30 16:49:40.9910,0.195,-0.481,-0.249,-2.39,-1.95,-4.81,1.74,-1.24,-0.78
2022-01-30 16:49:41.0010,0.189,-0.469,-0.196,-2.39,-1.95,-4.81,1.83,-1.12,-0.62
2022-01-30 16:49:41.0190,0.169,-0.424,-0.163,-2.17,-2.83,-5.35,1.85,-0.92,-0.5
2022-01-30 16:49:41.0230,0.145,-0.406,-0.134,-2.17,-2.83,-5.35,1.83,-0.68,-0.41
2022-01-30 16:49:41.0300,0.129,-0.409,-0.135,-1.97,-3.1,-5.49,1.83,-0.68,-0.3648722469806671
2022-01-30 16:49:41.0410,0.117,-0.419,-0.177,-1.7,-3.2,-4.72,1.68,-0.38,-0.4
2022-01-30 16:49:41.0510,0.105,-0.423,-0.25,-1.7,-3.2,-4.72,1.59,-0.43,-0.51
2022-01-30 16:49:41.0610,0.104,-0.438,-0.322,-1.58,-3.26,-3.86,1.51,-0.56,-0.68
2022-01-30 16:49:41.0710,0.102,-0.469,-0.401,-1.56,-3.19,-3.04,1.48,-0.75,-0.88
2022-01-30 16:49:41.0810,0.102,-0.504,-0.481,-1.52,-2.97,-2.14,1.47,-0.94,-1.11
2022-01-30 16:49:41.0910,0.116,-0.547,-0.545,-1.61,-2.37,-0.53,1.49,-1.05,-1.34
2022-01-30 16:49:41.1010,0.131,-0.607,-0.6,-1.61,-2.37,-0.53,1.49,-1.05,-1.52
2022-01-30 16:49:41.1120,0.151,-0.674,-0.657,-1.7,-1.86,0.13,1.42,-0.97,-1.64
2022-01-30 16:49:41.1210,0.171,-0.751,-0.73,-1.83,-1.28,0.82,1.28,-0.9,-1.68
2022-01-30 16:49:41.1310,0.191,-0.838,-0.816,-1.95,-0.59,1.66,1.13,-0.81,-1.66
2022-01-30 16:49:41.1420,0.212,-0.942,-0.881,-2.06,0.21,2.59,1.02,-0.62,-1.62
2022-01-30 16:49:41.1510,0.236,-1.042,-0.924,-2.16,1.2,3.28,0.94,-0.31,-1.6
2022-01-30 16:49:41.1610,0.274,-1.104,-0.93,-2.29,2.09,3.75,0.84,0.17,-1.62
2022-01-30 16:49:41.1720,0.331,-1.152,-0.876,-2.55,2.61,3.81,0.66,0.83,-1.62
2022-01-30 16:49:41.1810,0.407,-1.204,-0.787,-3.51,3.57,2.41,0.36,1.55,-1.51
2022-01-30 16:49:41.1920,0.497,-1.272,-0.694,-3.51,3.57,2.41,-0.08,2.22,-1.24
2022-01-30 16:49:41.2010,0.596,-1.355,-0.623,-4.19,4.28,1.52,-0.68,2.69,-0.82
2022-01-30 16:49:41.2120,0.69,-1.453,-0.585,-5.69,6.2,0.42,-1.34,2.97,-0.31
2022-01-30 16:49:41.2220,0.758,-1.534,-0.572,-5.69,6.2,0.42,-1.34,2.97,-0.31
2022-01-30 16:49:41.2320,0.749,-1.531,-0.574,-6.14,7.02,0.18,-2.54,3.07,0.76
2022-01-30 16:49:41.2420,0.676,-1.46,-0.592,-5.83,6.436458284854889,0.07245518803596497,-2.94,2.94,1.26
2022-01-30 16:49:41.2520,0.592,-1.376,-0.604,-5.01,6.43,0.07,-3.12,2.74,1.65
2022-01-30 16:49:41.2620,0.486,-1.246,-0.632,-4.15,5.74,-0.03,-3.04,2.37,1.89
2022-01-30 16:49:41.2720,0.361,-1.07,-0.69,-1.88,2.93,0.5,-2.71,1.78,2.03
2022-01-30 16:49:41.2820,0.235,-0.882,-0.721,-1.88,2.93,0.5,-2.17,1.05,2.1
2022-01-30 16:49:41.2920,0.123,-0.697,-0.704,0.2,-0.53,0.28,-1.54,0.29,2.14
2022-01-30 16:49:41.3020,0.036,-0.544,-0.657,0.2,-0.53,0.28,-1.54,0.29,2.14
2022-01-30 16:49:41.3120,-0.02,-0.445,-0.589,1.11,-2.83,-1.01,-0.42,-1.11,2.24
2022-01-30 16:49:41.3220,-0.06,-0.383,-0.524,1.11,-2.83,-1.01,-0.09,-1.65,2.34
2022-01-30 16:49:41.3320,-0.095,-0.323,-0.46,1.22,-3.44,-1.66,0.04,-1.95,2.4
2022-01-30 16:49:41.3430,-0.13,-0.272,-0.397,1.26,-4.04,-2.3,-0.02,-2.0,2.42
2022-01-30 16:49:41.3520,-0.173,-0.246,-0.353,1.3,-4.51,-2.9,-0.25,-1.79,2.38
2022-01-30 16:49:41.3630,-0.227,-0.237,-0.322,1.44,-4.72,-3.34,-0.56,-1.33,2.3
2022-01-30 16:49:41.3720,-0.289,-0.272,-0.304,1.73,-4.74,-3.66,-0.91,-0.67,2.18
2022-01-30 16:49:41.3820,-0.363,-0.269,-0.292,2.16,-4.28,-3.89,-1.23,0.09,1.93
2022-01-30 16:49:41.3920,-0.412,-0.26,-0.32,2.74,-4.28,-4.08,-1.47,0.8,1.57
2022-01-30 16:49:41.4020,-0.424,-0.31,-0.402,3.13,-4.18,-3.84,-1.6,1.26,1.14
2022-01-30 16:49:41.4120,-0.389,-0.376,-0.532,3.2,-3.52,-3.09,-1.56,1.37,0.69
2022-01-30 16:49:41.4220,-0.323,-0.447,-0.64,2.86,-2.75,-1.89,-1.34,1.26,0.26
2022-01-30 16:49:41.4330,-0.253,-0.514,-0.714,1.67,-1.25,-0.36,-0.93,1.03,-0.13
2022-01-30 16:49:41.4420,-0.191,-0.544,-0.77,1.67,-1.25,-0.36,-0.44,0.81,-0.4
2022-01-30 16:49:41.4530,-0.144,-0.557,-0.797,1.17,-0.96,0.12,0.05,0.65,-0.48
2022-01-30 16:49:41.4620,-0.095,-0.573,-0.796,0.8,-0.85,0.34,0.5,0.55,-0.38
2022-01-30 16:49:41.4730,-0.03,-0.612,-0.792,0.37,-0.71,0.35,0.9,0.5,-0.13
2022-01-30 16:49:41.4830,0.043,-0.664,-0.787,-0.25,-0.37,0.36,1.21,0.46,0.17
2022-01-30 16:49:41.4930,0.087,-0.719,-0.819,-0.93,0.07,0.41,1.45,0.43,0.45
2022-01-30 16:49:41.5020,0.08,-0.754,-0.841,-1.18,0.67,1.14,1.62,0.49,0.63
2022-01-30 16:49:41.5130,0.039,-0.737,-0.869,-1.18,0.67,1.14,1.74,0.57,0.68
2022-01-30 16:49:41.5230,-0.012,-0.728,-0.919,-0.76,0.34,1.57,1.85,0.61,0.67
2022-01-30 16:49:41.5330,-0.049,-0.766,-0.986,-0.27,0.19,2.2,1.85,0.61,0.67
2022-01-30 16:49:41.5430,-0.057,-0.811,-1.033,0.06,0.46,2.99,2.07,0.53,0.5250885486602783
2022-01-30 16:49:41.5520,-0.044,-0.846,-1.073,0.1,0.76,3.56,2.09,0.39,0.43
2022-01-30 16:49:41.5620,-0.012,-0.893,-1.062,-0.05,0.95,4.11,2.01,0.41,0.38
2022-01-30 16:49:41.5720,0.027,-0.998,-0.98,-0.38,1.36,4.03,1.86,0.62,0.36
2022-01-30 16:49:41.5830,0.08,-1.087,-0.887,-1.2672559386491775,3.0309264528751374,2.54,1.65,0.95,0.34
2022-01-30 16:49:41.5930,0.14,-1.131,-0.807,-1.8,3.33,1.87,1.36,1.31,0.31
2022-01-30 16:49:41.6030,0.177,-1.139,-0.729,-1.8,3.33,1.87,1.0,1.66,0.32
2022-01-30 16:49:41.6130,0.185,-1.113,-0.641,-2.03,3.0,0.33,0.59,1.97,0.42
2022-01-30 16:49:41.6230,0.184,-1.09,-0.557,-2.03,3.0,0.33,0.15,2.15,0.58
2022-01-30 16:49:41.6330,0.17,-1.06,-0.516,-1.92,2.78,-0.45,-0.32,2.13,0.72
2022-01-30 16:49:41.6440,0.148,-1.024,-0.497,-1.43,2.21,-1.08,-0.76,1.97,0.8
2022-01-30 16:49:41.6530,0.119,-1.023,-0.471,-1.43,2.21,-1.08,-1.13,1.73,0.83
2022-01-30 16:49:41.6620,0.082,-1.021,-0.471,-1.09,2.28,-1.42,-1.4,1.43,0.79
2022-01-30 16:49:41.6720,0.043,-0.971,-0.494,-0.7,2.31,-1.48,-1.57,1.08,0.66
2022-01-30 16:49:41.6820,0.005,-0.88,-0.519,0.09,1.03,-1.25,-1.67,0.79,0.47
2022-01-30 16:49:41.6920,-0.032,-0.762,-0.535,0.47,-0.04,-1.24,-1.7,0.62,0.24
2022-01-30 16:49:41.7030,-0.067,-0.638,-0.537,0.47,-0.04,-1.24,-1.68,0.6,0.06
2022-01-30 16:49:41.7120,-0.104,-0.537,-0.545,1.25,-1.98,-1.38,-1.61,0.66,0.01
2022-01-30 16:49:41.7230,-0.141,-0.46,-0.555,1.25,-1.98,-1.38,-1.49,0.7,0.09
2022-01-30 16:49:41.7330,-0.162,-0.395,-0.571,1.64,-2.61,-1.37,-1.28,0.68,0.25
2022-01-30 16:49:41.7440,-0.151,-0.362,-0.581,1.85,-3.13,-1.32,-0.93,0.56,0.43
2022-01-30 16:49:41.7530,-0.125,-0.348,-0.599,1.45,-3.45,-1.14,-0.45,0.35,0.56
2022-01-30 16:49:41.7630,-0.103,-0.33,-0.596,1.45,-3.45,-1.14,0.09,0.12,0.63
2022-01-30 16:49:41.7740,-0.091,-0.307,-0.56,1.2,-3.65,-1.2,0.62,-0.07,0.67
2022-01-30 16:49:41.7840,-0.094,-0.292,-0.499,1.03,-4.14,-2.09,1.07,-0.19,0.69
2022-01-30 16:49:41.7940,-0.097,-0.278,-0.437,1.03,-4.14,-2.09,1.38,-0.26,0.69
2022-01-30 16:49:41.8040,-0.101,-0.268,-0.386,0.99,-4.36,-2.6,1.52,-0.34,0.69
2022-01-30 16:49:41.8140,-0.101,-0.266,-0.354,0.96,-4.55,-2.96,1.53,-0.42,0.61
2022-01-30 16:49:41.8240,-0.091,-0.297,-0.332,0.87,-4.65,-3.15,1.4,-0.49,0.55
2022-01-30 16:49:41.8340,-0.078,-0.354,-0.336,0.7,-4.39,-3.25,1.18,-0.54,0.43
2022-01-30 16:49:41.8440,-0.077,-0.414,-0.368,0.46,-3.37,-2.67,0.93,-0.52,0.27
2022-01-30 16:49:41.8540,-0.08,-0.463,-0.418,0.46,-3.37,-2.67,0.65,-0.41,0.04
2022-01-30 16:49:41.8640,-0.092,-0.506,-0.498,0.47,-2.94,-2.09,0.43,-0.22,-0.17
2022-01-30 16:49:41.8740,-0.113,-0.573,-0.572,0.6,-2.53,-1.27,0.32,0.05,-0.32
2022-01-30 16:49:41.8830,-0.123,-0.682,-0.646,0.82,-1.86,-0.53,0.32,0.05,-0.32
2022-01-30 16:49:41.8940,-0.116,-0.831,-0.724,0.95,-0.74,0.23,0.47,0.64,-0.36
2022-01-30 16:49:41.9040,-0.106,-0.965,-0.834,0.93,0.7,1.05,0.61,0.66,-0.36
2022-01-30 16:49:41.9140,-0.108,-1.049,-0.981,1.0128120106458665,2.66,3.72,0.75,0.41,-0.39
2022-01-30 16:49:41.9240,-0.13,-1.114,-1.087,1.01,2.66,3.72,0.75,0.41,-0.39
2022-01-30 16:49:41.9340,-0.137,-1.17,-1.126,1.28,3.22,4.75,1.34,-0.29,-0.57
2022-01-30 16:49:41.9440,-0.092,-1.239,-1.133,0.84,4.29,5.35,1.69,-0.64,-0.68
2022-01-30 16:49:41.9550,-0.021,-1.306,-1.092,0.14,4.82,5.0,1.86,-0.87,-0.74
2022-01-30 16:49:41.9640,0.041,-1.341,-0.982,-0.43,5.02,4.0,1.84,-0.86,-0.73
2022-01-30 16:49:41.9740,0.081,-1.355,-0.82,-0.43,5.02,4.0,1.68,-0.51,-0.62
2022-01-30 16:49:41.9830,0.113,-1.387,-0.646,-0.78,5.08,2.49,1.37,-0.01,-0.45
2022-01-30 16:49:41.9940,0.145,-1.412,-0.556,-1.04,5.33,0.96,0.92,0.39,-0.32
2022-01-30 16:49:42.0040,0.182,-1.444,-0.531,-1.32,5.52,0.26,0.39,0.62,-0.21
2022-01-30 16:49:42.0140,0.209,-1.514,-0.537,-1.84,6.58,0.17,-0.14,0.64,-0.1
2022-01-30 16:49:42.0250,0.224,-1.587,-0.554,-1.84,6.58,0.17,-0.14,0.64,-0.1
2022-01-30 16:49:42.0350,0.229,-1.625,-0.585,-1.96,7.3,0.29,-0.92,0.18,0.08
2022-01-30 16:49:42.0450,0.214,-1.617,-0.634,-1.98,7.66,0.55,-1.11,-0.27,0.16
2022-01-30 16:49:42.0550,0.172,-1.562,-0.669,-1.83,7.59,0.94,-1.14,-0.72,0.24
2022-01-30 16:49:42.0650,0.113,-1.452,-0.688,-1.45,7.04,1.16,-1.03,-1.15,0.26
2022-01-30 16:49:42.0750,0.057,-1.305,-0.696,-0.95,4.54,1.23,-0.84,-1.49,0.2
2022-01-30 16:49:42.0850,0.008,-1.16,-0.66,-0.51,4.54,1.23,-0.66,-1.66,0.11
2022-01-30 16:49:42.0950,-0.035,-1.034,-0.595,-0.14,3.18,0.76,-0.58,-1.66,0.0
2022-01-30 16:49:42.1050,-0.069,-0.913,-0.527,0.43,0.84,-0.65,-0.6,-1.51,-0.13
2022-01-30 16:49:42.1150,-0.095,-0.804,-0.458,0.43,0.84,-0.65,-0.71,-1.23,-0.28
2022-01-30 16:49:42.1250,-0.112,-0.71,-0.403,0.62,-0.15,-1.38,-0.84,-0.87,-0.44
2022-01-30 16:49:42.1350,-0.124,-0.613,-0.368,0.77,-1.03,-1.95,-0.94,-0.52,-0.61
2022-01-30 16:49:42.1440,-0.122,-0.524,-0.353,0.89,-1.93,-2.35,-0.99,-0.23,-0.8
2022-01-30 16:49:42.1550,-0.104,-0.45,-0.357,0.89,-2.72,-2.54,-0.99,-0.07,-0.97
2022-01-30 16:49:42.1650,-0.079,-0.388,-0.375,0.77,-3.38,-2.56,-0.9,-0.06,-1.09
2022-01-30 16:49:42.1750,-0.053,-0.334,-0.388,0.61,-3.92,-2.44,-0.73,-0.14,-1.15
2022-01-30 16:49:42.1850,-0.027,-0.285,-0.387,0.24,-4.83,-2.45,-0.48,-0.29,-1.15
2022-01-30 16:49:42.1950,-0.0,-0.248,-0.376,0.02,-5.16,-2.6,-0.16,-0.44,-1.09
2022-01-30 16:49:42.2050,0.028,-0.229,-0.345,0.02,-5.16,-2.6,-0.16,-0.44,-1.09
2022-01-30 16:49:42.2160,0.046,-0.217,-0.308,-0.2,-5.34,-2.91,0.54,-0.64,-0.81
2022-01-30 16:49:42.2250,0.057,-0.204,-0.272,-0.35,-5.49,-3.22,0.86,-0.69,-0.62
2022-01-30 16:49:42.2350,0.058,-0.189,-0.237,-0.44,-5.68,-3.51,1.11,-0.72,-0.43
2022-01-30 16:49:42.2460,0.063,-0.186,-0.207,-0.46,-5.88,-3.77,1.26,-0.74,-0.26
2022-01-30 16:49:42.2550,0.065,-0.207,-0.187,-0.54,-5.97,-3.96,1.33,-0.74,-0.12
2022-01-30 16:49:42.2650,0.068,-0.255,-0.174,-0.59,-5.8,-4.05,1.33,-0.73,-0.02
2022-01-30 16:49:42.2750,0.068,-0.315,-0.186,-0.66,-5.38,-4.06,1.26,-0.76,0.03
2022-01-30 16:49:42.2860,0.054,-0.366,-0.224,-0.7,-4.86,-3.79,1.17,-0.83,0.02
2022-01-30 16:49:42.2950,0.024,-0.388,-0.28,-0.59,-4.46,-3.31,1.07,-0.94,-0.07
2022-01-30 16:49:42.3060,-0.011,-0.404,-0.338,-0.33,-4.32,-2.66,0.98,-1.01,-0.22
2022-01-30 16:49:42.3160,-0.029,-0.467,-0.373,-0.02,-4.2,-2.02,0.91,-0.92,-0.36
2022-01-30 16:49:42.3260,-0.014,-0.621,-0.394,0.1,-3.52,-1.64,0.84,-0.74,-0.44
2022-01-30 16:49:42.3350,0.023,-0.822,-0.463,-0.09,-1.96,-1.32,0.76,-0.59,-0.45
2022-01-30 16:49:42.3460,0.063,-0.989,-0.559,-0.83,1.49,0.5,0.65,-0.6,-0.45
2022-01-30 16:49:42.3560,0.064,-1.076,-0.7,-0.83,1.49,0.5,0.51,-0.8,-0.47
2022-01-30 16:49:42.3660,0.023,-1.135,-0.806,-0.78,2.23,1.95,0.44,-0.92,-0.44
2022-01-30 16:49:42.3840,-0.018,-1.242,-0.828,0.01,3.9,3.11,0.5,-0.82,-0.36
2022-01-30 16:49:42.3840,-0.039,-1.358,-0.813,0.01,3.9,3.11,0.66,-0.58,-0.28
2022-01-30 16:49:42.3960,-0.032,-1.411,-0.796,0.08,5.35,2.89,0.76,-0.33,-0.25
2022-01-30 16:49:42.4060,-0.007,-1.431,-0.748,0.08,5.35,2.89,0.74,-0.09,-0.17
2022-01-30 16:49:42.4160,0.016,-1.5,-0.655,-0.38,6.25,1.54,0.59,0.09,0.01
2022-01-30 16:49:42.4260,0.021,-1.554,-0.594,-0.4,6.67,1.04,0.27,0.04,0.17
2022-01-30 16:49:42.4340,0.002,-1.524,-0.605,-0.4,6.67,1.04,-0.22,-0.29,0.24
2022-01-30 16:49:42.4450,-0.034,-1.495,-0.636,-0.23,6.31,1.2,-0.79,-0.66,0.26
2022-01-30 16:49:42.4550,-0.096,-1.514,-0.613,0.1,6.14,1.39,-1.28,-0.85,0.28
2022-01-30 16:49:42.4650,-0.185,-1.47,-0.584,0.67,6.39,1.01,-1.56,-0.85,0.22
2022-01-30 16:49:42.4760,-0.259,-1.316,-0.598,1.5,5.89,0.65,-1.58,-0.76,0.04
2022-01-30 16:49:42.4860,-0.29,-1.141,-0.598,2.13,4.38,0.68,-1.41,-0.57,-0.23
2022-01-30 16:49:42.4960,-0.266,-1.0,-0.571,2.37,2.77,0.52,-1.41,-0.57,-0.23
2022-01-30 16:49:42.5060,-0.198,-0.902,-0.537,2.09,1.5,0.14,-1.04,-0.09,-0.74
2022-01-30 16:49:42.5170,-0.12,-0.812,-0.485,1.44,0.63,-0.3,-0.94,0.17,-0.91
2022-01-30 16:49:42.5260,-0.049,-0.708,-0.437,0.18,-1.2,-1.43,-0.89,0.38,-1.01
2022-01-30 16:49:42.5360,0.007,-0.615,-0.395,-0.23,-2.04,-1.9,-0.84,0.55,-1.02
2022-01-30 16:49:42.5470,0.046,-0.535,-0.359,-0.48,-2.77,-2.3,-0.77,0.64,-0.95
2022-01-30 16:49:42.5570,0.071,-0.461,-0.341,-0.48,-2.77,-2.3,-0.68,0.66,-0.83
2022-01-30 16:49:42.5660,0.086,-0.395,-0.325,-0.61,-3.45,-2.52,-0.55,0.66,-0.69
2022-01-30 16:49:42.5760,0.093,-0.354,-0.299,-0.64,-4.37,-3.02,-0.38,0.67,-0.54
2022-01-30 16:49:42.5870,0.091,-0.343,-0.281,-0.64,-4.37,-3.02,-0.15,0.65,-0.38
2022-01-30 16:49:42.5960,0.083,-0.324,-0.278,-0.4,-4.67,-3.2,0.11,0.62,-0.28
2022-01-30 16:49:42.6070,0.082,-0.296,-0.273,-0.4,-4.67,-3.2,0.37,0.58,-0.26
2022-01-30 16:49:42.6160,0.087,-0.279,-0.261,-0.35,-4.97,-3.22,0.59,0.52,-0.29
2022-01-30 16:49:42.6270,0.098,-0.279,-0.259,-0.41,-5.16,-3.23,0.78,0.41,-0.33
2022-01-30 16:49:42.6360,0.102,-0.288,-0.26,-0.4,-5.13,-3.15,0.92,0.24,-0.34
2022-01-30 16:49:42.6470,0.11,-0.302,-0.266,-0.4,-5.13,-3.15,1.01,0.05,-0.28
2022-01-30 16:49:42.6570,0.113,-0.34,-0.265,-0.46,-5.03,-3.01,1.06,-0.12,-0.15
2022-01-30 16:49:42.6670,0.109,-0.394,-0.26,-0.47,-4.68,-2.95,1.09,-0.2,0.03
2022-01-30 16:49:42.6770,0.103,-0.457,-0.254,-0.41,-3.62,-2.88,1.11,-0.15,0.25
2022-01-30 16:49:42.6870,0.088,-0.55,-0.257,-0.41,-3.62,-2.88,1.11,0.0,0.45
2022-01-30 16:49:42.6970,0.076,-0.671,-0.272,-0.22,-1.57,-2.5,1.12,0.27,0.56
2022-01-30 16:49:42.7070,0.089,-0.824,-0.284,-0.22,-1.57,-2.5,1.07,0.58,0.56
2022-01-30 16:49:42.7170,0.116,-0.989,-0.351,-0.4,-0.09,-2.27,0.9,0.73,0.44
2022-01-30 16:49:42.7280,0.13,-1.124,-0.459,-0.75,2.71,-0.34,0.7,0.76,0.23
2022-01-30 16:49:42.7370,0.121,-1.233,-0.538,-0.61,3.73,0.47,0.59,0.73,-0.03
2022-01-30 16:49:42.7470,0.118,-1.354,-0.59,-0.56,4.94,0.98,0.64,0.76,-0.2
2022-01-30 16:49:42.7560,0.137,-1.502,-0.617,-0.56,4.94,0.98,0.77,0.73,-0.31
2022-01-30 16:49:42.7660,0.173,-1.585,-0.671,-0.71,6.33,1.34,0.85,0.62,-0.4
2022-01-30 16:49:42.7770,0.196,-1.611,-0.684,-1.01,7.0,1.94,0.81,0.54,-0.46
2022-01-30 16:49:42.7870,0.195,-1.624,-0.645,-1.13,7.2,2.07,0.65,0.56,-0.46
2022-01-30 16:49:42.7970,0.197,-1.658,-0.588,-1.05,7.31,1.7,0.65,0.56,-0.46
2022-01-30 16:49:42.8070,0.209,-1.696,-0.55,-1.1,8.01,0.85,-0.04,0.65,-0.22
2022-01-30 16:49:42.8180,0.228,-1.72,-0.542,-1.1,8.01,0.85,-0.53,0.6,-0.05
2022-01-30 16:49:42.8270,0.241,-1.718,-0.549,-1.35,8.24,0.75,-1.05,0.54,0.08
2022-01-30 16:49:42.8370,0.233,-1.68,-0.553,-1.22,7.92,0.64,-1.51,0.54,0.2
2022-01-30 16:49:42.8480,0.198,-1.628,-0.551,-0.86,7.47,0.48,-1.51,0.54,0.2
2022-01-30 16:49:42.8660,0.158,-1.559,-0.559,-0.48,6.87,0.42,-2.07,0.77,0.49
2022-01-30 16:49:42.8650,0.12,-1.448,-0.583,-0.1,5.79,0.49,-2.15,0.9,0.53
2022-01-30 16:49:42.8860,0.084,-1.267,-0.603,0.26,4.08,0.5,-2.11,0.99,0.41
2022-01-30 16:49:42.8950,0.061,-1.084,-0.603,0.51,2.44,0.31,-1.99,1.04,0.2
2022-01-30 16:49:42.8970,0.057,-0.938,-0.576,0.51,2.44,0.31,-1.83,1.07,-0.01
2022-01-30 16:49:42.9070,0.067,-0.81,-0.528,0.56,0.01,-0.73,-1.68,1.07,-0.18
2022-01-30 16:49:42.9170,0.076,-0.698,-0.466,0.56,-0.99,-1.45,-1.58,1.04,-0.26
2022-01-30 16:49:42.9270,0.077,-0.593,-0.401,0.64,-1.91,-2.19,-1.51,0.97,-0.23
2022-01-30 16:49:42.9370,0.07,-0.505,-0.346,0.64,-1.91,-2.19,-1.48,0.86,-0.09
2022-01-30 16:49:42.9470,0.055,-0.441,-0.307,0.77,-2.65,-2.81,-1.46,0.71,0.12
2022-01-30 16:49:42.9570,0.036,-0.385,-0.279,0.95,-3.17,-3.28,-1.44,0.51,0.37
2022-01-30 16:49:42.9680,0.016,-0.321,-0.274,1.31,-4.19,-3.76,-1.41,0.27,0.57
2022-01-30 16:49:42.9790,0.002,-0.258,-0.27,1.31,-4.19,-3.76,-1.36,0.06,0.71
2022-01-30 16:49:42.9880,-0.011,-0.214,-0.26,1.47,-5.03,-4.09,-1.3,-0.08,0.78
2022-01-30 16:49:42.9970,-0.023,-0.195,-0.262,1.53,-5.12,-4.16,-1.24,-0.14,0.79
2022-01-30 16:49:43.0070,-0.032,-0.192,-0.254,1.53,-5.12,-4.16,-1.15,-0.1,0.76
2022-01-30 16:49:43.0170,-0.035,-0.194,-0.253,1.55,-5.07,-4.33,-1.06,-0.03,0.71
2022-01-30 16:49:43.0270,-0.034,-0.187,-0.268,1.51,-5.0,-4.39,-0.97,0.07,0.64
2022-01-30 16:49:43.0370,-0.035,-0.178,-0.279,1.47,-5.01,-4.31,-0.87,0.17,0.56
2022-01-30 16:49:43.0470,-0.034,-0.181,-0.288,1.45,-5.03,-4.27,-0.78,0.26,0.52
2022-01-30 16:49:43.0570,-0.031,-0.197,-0.305,1.37,-4.72,-4.1,-0.69,0.37,0.51
2022-01-30 16:49:43.0680,-0.021,-0.228,-0.306,1.27,-4.35,-4.15,-0.6,0.54,0.54
2022-01-30 16:49:43.0780,-0.009,-0.281,-0.312,1.17,-3.78,-4.08,-0.51,0.71,0.59
2022-01-30 16:49:43.1010,0.009,-0.341,-0.352,0.98,-3.18,-3.67,-0.4,0.79,0.63
2022-01-30 16:49:43.1020,0.045,-0.394,-0.419,0.98,-3.18,-3.67,-0.28,0.71,0.63
2022-01-30 16:49:43.1080,0.086,-0.441,-0.511,0.63,-2.66,-2.99,-0.16,0.47,0.6
2022-01-30 16:49:43.1160,0.13,-0.503,-0.598,0.21,-2.18,-2.08,-0.05,0.18,0.58
2022-01-30 16:49:43.1260,0.17,-0.615,-0.661,-0.24,-1.53,-1.24,0.08,-0.03,0.66
2022-01-30 16:49:43.1360,0.212,-0.787,-0.71,-0.68,-0.37,-0.67,0.26,-0.14,0.84
2022-01-30 16:49:43.1470,0.25,-0.94,-0.81,-1.16,1.33,-0.15,0.46,-0.34,1.02
2022-01-30 16:49:43.1560,0.264,-0.989,-0.98,-1.61,2.69,0.97,0.62,-0.71,1.08
2022-01-30 16:49:43.1660,0.254,-0.981,-1.142,-1.84,3.0,2.7,0.72,-1.14,1.08
2022-01-30 16:49:43.1770,0.217,-1.007,-1.252,-1.86,2.86,4.29,0.81,-1.4,1.1
2022-01-30 16:49:43.1870,0.18,-1.096,-1.26,-1.65,3.13,5.3,0.85,-1.34,1.17
2022-01-30 16:49:43.1970,0.169,-1.163,-1.236,-1.48,3.98,5.33,0.76,-1.04,1.22
2022-01-30 16:49:43.2070,0.18,-1.163,-1.226,-1.57,4.5,5.17,0.49,-0.61,1.19
2022-01-30 16:49:43.2170,0.197,-1.133,-1.185,-1.81,4.41,5.09,0.05,-0.12,1.14
2022-01-30 16:49:43.2270,0.217,-1.104,-1.128,-2.08,4.1,4.64,-0.54,0.26,1.12
2022-01-30 16:49:43.2370,0.228,-1.082,-1.115,-2.32,3.87,4.07,-1.24,0.39,1.16
2022-01-30 16:49:43.2470,0.223,-1.042,-1.13,-2.47,3.73,3.92,-1.95,0.37,1.26
2022-01-30 16:49:43.2570,0.196,-0.994,-1.126,-2.47,3.46,3.93,-2.49,0.38,1.43
2022-01-30 16:49:43.2670,0.134,-0.946,-1.101,-2.22,3.18,3.69,-2.72,0.5,1.62
2022-01-30 16:49:43.2770,0.07,-0.856,-1.081,-1.66,2.9,3.26,-2.64,0.64,1.76
2022-01-30 16:49:43.2870,0.009,-0.742,-1.079,-1.11,2.16,2.92,-2.3,0.75,1.82
2022-01-30 16:49:43.2970,-0.05,-0.631,-1.038,-0.55,1.23,2.75,-1.81,0.85,1.84
2022-01-30 16:49:43.3070,-0.099,-0.528,-0.963,-0.02,0.3,2.17,-1.31,0.93,1.82
2022-01-30 16:49:43.3170,-0.13,-0.46,-0.865,0.41,-0.56,1.33,-0.87,1.02,1.78
2022-01-30 16:49:43.3270,-0.148,-0.413,-0.747,0.67,-1.11,0.28,-0.52,1.12,1.7
2022-01-30 16:49:43.3370,-0.153,-0.371,-0.627,0.83,-1.51,-0.93,-0.52,1.12,1.7
2022-01-30 16:49:43.3470,-0.15,-0.335,-0.518,0.88,-1.88,-2.12,-0.09,1.3,1.33
2022-01-30 16:49:43.3570,-0.146,-0.301,-0.423,0.88,-2.21,-3.19,0.0,1.37,1.06
2022-01-30 16:49:43.3730,-0.131,-0.261,-0.346,0.88,-2.54,-4.11,0.02,1.42,0.72
2022-01-30 16:49:43.3770,-0.112,-0.222,-0.286,0.81,-2.93,-4.85,-0.02,1.48,0.33
2022-01-30 16:49:43.3870,-0.089,-0.192,-0.234,0.72,-3.3,-5.43,-0.11,1.58,-0.06
2022-01-30 16:49:43.3980,-0.066,-0.176,-0.184,0.63,-3.57,-5.95,-0.23,1.72,-0.43
2022-01-30 16:49:43.4080,-0.039,-0.169,-0.149,0.56,-3.69,-6.44,-0.36,1.9,-0.75
2022-01-30 16:49:43.4180,-0.013,-0.165,-0.131,0.49,-3.72,-6.78,-0.48,2.07,-0.98
2022-01-30 16:49:43.4280,0.01,-0.152,-0.132,0.46,-3.72,-6.96,-0.58,2.19,-1.15
2022-01-30 16:49:43.4380,0.036,-0.132,-0.151,0.47,-3.82,-6.94,-0.64,2.24,-1.26
2022-01-30 16:49:43.4470,0.068,-0.128,-0.169,0.47,-3.93,-6.77,-0.65,2.23,-1.29
2022-01-30 16:49:43.4580,0.11,-0.146,-0.187,0.4,-3.88,-6.61,-0.59,2.17,-1.27
2022-01-30 16:49:43.4680,0.156,-0.177,-0.226,0.22,-3.62,-6.42,-0.47,1.99,-1.19
2022-01-30 16:49:43.4780,0.196,-0.205,-0.281,-0.01,-3.25,-6.01,-0.29,1.72,-1.07
2022-01-30 16:49:43.4880,0.233,-0.227,-0.339,-0.19,-2.94,-5.45,-0.08,1.35,-0.93
2022-01-30 16:49:43.4980,0.273,-0.249,-0.414,-0.41,-2.7,-4.84,0.13,0.97,-0.77
2022-01-30 16:49:43.5080,0.309,-0.314,-0.477,-0.67,-2.46,-4.08,0.33,0.67,-0.53
2022-01-30 16:49:43.5180,0.343,-0.437,-0.548,-0.95,-1.75,-3.44,0.46,0.46,-0.24
2022-01-30 16:49:43.5280,0.366,-0.556,-0.668,-1.22,-0.55,-2.68,0.42,0.26,0.0
2022-01-30 16:49:43.5380,0.361,-0.634,-0.88,-1.41,0.55,-1.38,0.2,-0.04,0.11
2022-01-30 16:49:43.5480,0.278,-0.672,-1.188,-1.3,1.24,0.84,-0.07,-0.46,-0.0
2022-01-30 16:49:43.5580,0.129,-0.628,-1.526,-0.41,1.55,3.92,-0.2,-0.89,-0.38
2022-01-30 16:49:43.5680,0.003,-0.491,-1.785,1.02,1.02,7.19,-0.08,-1.0,-0.98
2022-01-30 16:49:43.5780,-0.008,-0.331,-1.862,2.13,-0.37,9.51,0.12,-0.64,-1.57
2022-01-30 16:49:43.5880,0.167,-0.26,-1.857,2.06,-1.89,10.06,0.06,-0.06,-1.62
2022-01-30 16:49:43.5980,0.375,-0.597,-1.843,0.23,-2.25,10.02,-0.35,0.77,-0.56
2022-01-30 16:49:43.6080,0.369,-1.112,-1.787,-1.54,1.68,9.81,-0.82,1.59,0.95
2022-01-30 16:49:43.6180,0.22,-1.026,-1.782,-1.14,6.34,9.27,-0.93,2.08,1.78
2022-01-30 16:49:43.6280,0.068,-0.789,-1.804,0.48,4.85,9.3,-0.55,2.09,1.79
2022-01-30 16:49:43.6380,-0.002,-0.818,-1.839,1.97,2.86,9.55,-0.02,1.51,1.22
2022-01-30 16:49:43.6490,-0.017,-0.937,-1.822,2.63,3.3,9.94,0.41,0.62,0.44
2022-01-30 16:49:43.6590,0.017,-1.078,-1.654,2.76,4.5,9.63,0.57,-0.38,-0.26
2022-01-30 16:49:43.6690,0.106,-1.147,-1.472,2.33,5.79,7.89,0.38,-1.28,-0.8
2022-01-30 16:49:43.6780,0.214,-1.193,-1.289,1.35,6.38,6.12,0.38,-1.28,-0.8
2022-01-30 16:49:43.6900,0.28,-1.194,-1.14,0.22,6.86,4.26,-0.49,-2.07,-1.48
2022-01-30 16:49:43.6990,0.296,-1.082,-1.08,-0.46,6.82,2.84,-0.9,-2.0,-1.8
2022-01-30 16:49:43.7100,0.285,-0.927,-1.052,-0.65,5.72,2.24,-0.9,-2.0,-1.8
2022-01-30 16:49:43.7200,0.261,-0.805,-1.033,-0.33,3.37,1.63,-1.35,-1.27,-2.22
2022-01-30 16:49:43.7310,0.241,-0.698,-1.027,-0.13,2.51,1.49,-1.35,-0.91,-2.24
2022-01-30 16:49:43.7410,0.235,-0.618,-1.015,-0.05,1.92,1.3,-1.16,-0.65,-2.21
2022-01-30 16:49:43.7500,0.221,-0.551,-0.997,-0.05,1.92,1.3,-0.82,-0.55,-2.18
2022-01-30 16:49:43.7610,0.194,-0.469,-0.966,0.15,1.37,1.06,-0.4,-0.62,-2.18
2022-01-30 16:49:43.7710,0.177,-0.388,-0.922,0.45,0.63,0.7,-0.02,-0.85,-2.23
2022-01-30 16:49:43.7810,0.176,-0.329,-0.872,0.6,-0.08,0.24,0.22,-1.14,-2.32
2022-01-30 16:49:43.7910,0.178,-0.293,-0.82,0.59,-0.59,-0.27,0.33,-1.39,-2.45
2022-01-30 16:49:43.8010,0.174,-0.26,-0.765,0.55,-1.2,-1.38,0.35,-1.54,-2.59
2022-01-30 16:49:43.8110,0.165,-0.226,-0.695,0.55,-1.2,-1.38,0.33,-1.49,-2.7
2022-01-30 16:49:43.8210,0.151,-0.194,-0.624,0.62,-1.5,-2.09,0.31,-1.27,-2.73
2022-01-30 16:49:43.8310,0.138,-0.161,-0.571,0.74,-1.78,-2.8,0.34,-0.91,-2.64
2022-01-30 16:49:43.8410,0.125,-0.129,-0.535,0.88,-2.07,-3.29,0.46,-0.5,-2.46
2022-01-30 16:49:43.8510,0.118,-0.106,-0.505,1.05,-2.37,-3.64,0.67,-0.14,-2.2
2022-01-30 16:49:43.8610,0.122,-0.093,-0.492,1.207011929601431,-2.7295211970806124,-3.97,0.91,0.08,-1.91
2022-01-30 16:49:43.8710,0.127,-0.093,-0.5,1.2,-2.73,-3.97,1.17,0.08,-1.62
2022-01-30 16:49:43.8810,0.127,-0.093,-0.52,1.23,-2.79,-3.82,1.38,-0.12,-1.37
2022-01-30 16:49:43.8910,0.117,-0.09,-0.539,1.27,-2.88,-3.57,1.56,-0.47,-1.16
2022-01-30 16:49:43.9020,0.097,-0.094,-0.552,1.39,-3.01,-3.34,1.73,-0.89,-0.99
2022-01-30 16:49:43.9110,0.079,-0.085,-0.569,1.55,-3.1,-3.17,1.87,-1.4,-0.87
2022-01-30 16:49:43.9210,0.075,-0.056,-0.603,1.63,-3.35,-2.95,1.99,-1.93,-0.82
2022-01-30 16:49:43.9310,0.068,-0.034,-0.637,1.53,-3.79,-2.57,2.08,-2.43,-0.81
2022-01-30 16:49:43.9410,0.059,-0.019,-0.685,1.32,-4.46,-1.65,2.15,-2.83,-0.86
2022-01-30 16:49:43.9520,0.055,-0.005,-0.724,1.1562228682637214,-4.750893123149872,-1.29,2.23,-2.99,-0.92
2022-01-30 16:49:43.9620,0.051,-0.006,-0.713,1.15,-4.76,-1.29,2.23,-2.85,-0.97
2022-01-30 16:49:43.9710,0.035,-0.012,-0.694,1.03,-5.04,-1.46,2.3,-2.46,-0.99
2022-01-30 16:49:43.9810,0.015,-0.008,-0.683,1.03,-5.04,-1.46,2.2,-1.92,-0.98
2022-01-30 16:49:43.9900,0.025,-0.035,-0.682,1.09,-5.23,-1.46,2.2,-1.92,-0.98
2022-01-30 16:49:44.0000,0.065,-0.104,-0.696,0.89,-5.07,-1.37,1.73,-0.91,-0.92
2022-01-30 16:49:44.0100,0.135,-0.208,-0.731,0.44,-4.46,-1.12,1.38,-0.6,-0.87
2022-01-30 16:49:44.0200,0.213,-0.313,-0.75,-0.28,-3.52,-0.71,0.97,-0.39,-0.84
2022-01-30 16:49:44.0310,0.254,-0.379,-0.781,-0.99,-2.57,-0.49,0.58,-0.3,-0.84
2022-01-30 16:49:44.0400,0.247,-0.389,-0.811,-1.31,-2.04,-0.11,0.21,-0.24,-0.88
2022-01-30 16:49:44.0510,0.244,-0.402,-0.801,-1.19,-1.98,0.12,-0.17,-0.24,-0.92
2022-01-30 16:49:44.0600,0.249,-0.461,-0.821,-1.14,-1.79,0.02,-0.61,-0.35,-0.96
2022-01-30 16:49:44.0710,0.268,-0.538,-0.874,-1.17,-1.09,0.22,-1.14,-0.59,-1.07
2022-01-30 16:49:44.0800,0.318,-0.603,-0.946,-1.38,-0.24,0.7,-1.75,-0.96,-1.23
2022-01-30 16:49:44.0920,0.388,-0.691,-1.036,-1.91,0.56,1.32,-2.4,-1.36,-1.37
2022-01-30 16:49:44.1020,0.45,-0.781,-1.085,-2.64,1.67,2.04,-2.97,-1.6,-1.41
2022-01-30 16:49:44.1120,0.465,-0.829,-1.122,-3.28,2.78,2.29,-2.97,-1.6,-1.41
2022-01-30 16:49:44.1220,0.45,-0.84,-1.189,-3.43,3.5,2.51,-3.81,-1.36,-1.37
2022-01-30 16:49:44.1320,0.439,-0.848,-1.3,-3.33,3.94,3.01,-4.11,-0.99,-1.42
2022-01-30 16:49:44.1410,0.419,-0.84,-1.445,-3.26,4.39,4.0,-4.26,-0.51,-1.52
2022-01-30 16:49:44.1520,0.381,-0.773,-1.562,-2.58,4.35,6.21,-4.2,-0.1,-1.6
2022-01-30 16:49:44.1620,0.339,-0.693,-1.656,-2.58,4.35,6.21,-3.86,0.07,-1.49
2022-01-30 16:49:44.1720,0.326,-0.66,-1.654,-2.15,3.98,6.96,-3.27,0.03,-1.14
2022-01-30 16:49:44.1820,0.337,-0.656,-1.566,-2.03,4.03,6.71,-3.27,0.03,-1.14
2022-01-30 16:49:44.1920,0.358,-0.675,-1.456,-2.17,4.26,5.73,-1.72,-0.79,0.03
2022-01-30 16:49:44.2020,0.388,-0.714,-1.351,-2.47,4.65,4.59,-1.72,-1.46,0.66
2022-01-30 16:49:44.2120,0.406,-0.749,-1.252,-2.92,5.12,3.56,-0.9,-1.46,0.66
2022-01-30 16:49:44.2230,0.391,-0.732,-1.124,-3.28,5.42,2.54,0.8,-2.61,1.72
2022-01-30 16:49:44.2320,0.357,-0.677,-0.988,-3.39,5.1,1.26,0.8,-2.61,1.72
2022-01-30 16:49:44.2430,0.293,-0.606,-0.83,-3.34,4.39,-0.06,1.54,-2.84,2.11
2022-01-30 16:49:44.2520,0.217,-0.524,-0.663,-3.0,3.48,-1.59,2.44,-2.37,2.63
2022-01-30 16:49:44.2620,0.142,-0.444,-0.51,-2.54,2.45,-3.15,2.61,-1.8,2.73
2022-01-30 16:49:44.2720,0.076,-0.373,-0.387,-2.06,1.45,-4.54,2.59,-1.14,2.71
2022-01-30 16:49:44.2820,0.023,-0.323,-0.305,-1.61,0.55,-5.62,2.59,-1.14,2.71
2022-01-30 16:49:44.2930,-0.023,-0.296,-0.249,-0.85,-0.52,-6.75,2.19,0.12,2.36
2022-01-30 16:49:44.3030,-0.067,-0.283,-0.214,-0.85,-0.52,-6.75,1.9014570713043213,0.64,2.08
2022-01-30 16:49:44.3130,-0.109,-0.285,-0.218,-0.43,-0.79,-7.0,1.58,1.02,1.74
2022-01-30 16:49:44.3220,-0.137,-0.282,-0.252,0.0,-0.88,-6.86,1.26,1.26,1.34
2022-01-30 16:49:44.3320,-0.156,-0.29,-0.329,0.32,-1.01,-6.46,0.94,1.3,0.9
2022-01-30 16:49:44.3410,-0.176,-0.298,-0.429,0.86,-0.98,-4.65,0.72,1.23,0.49
2022-01-30 16:49:44.3520,-0.164,-0.299,-0.514,0.86,-0.98,-4.65,0.65,1.07,0.12
2022-01-30 16:49:44.3620,-0.111,-0.293,-0.628,0.77,-1.04,-3.77,0.75,0.85,-0.17
2022-01-30 16:49:44.3730,-0.06,-0.302,-0.714,0.31,-1.16,-2.62,1.02,0.78,-0.35
2022-01-30 16:49:44.3820,-0.02,-0.343,-0.749,-0.09,-1.13,-1.82,1.02,0.78,-0.35
2022-01-30 16:49:44.3940,-0.001,-0.393,-0.792,-0.39,-0.47,-0.95,1.54,1.21,-0.33
2022-01-30 16:49:44.4030,-0.017,-0.447,-0.846,-0.39,-0.47,-0.95,1.54,1.21,-0.33
2022-01-30 16:49:44.4130,-0.015,-0.504,-0.934,-0.07,-0.06,-0.34,1.36,1.79,0.01
2022-01-30 16:49:44.4230,0.02,-0.578,-1.099,0.0,0.39,0.67,1.36,1.79,0.01
2022-01-30 16:49:44.4330,0.055,-0.721,-1.246,-0.47,2.47,3.78,1.04,1.58,0.71
2022-01-30 16:49:44.4430,0.119,-0.88,-1.335,-1.08,3.87,4.76,1.04,1.58,0.71
2022-01-30 16:49:44.4540,0.194,-0.945,-1.515,-1.08,3.87,4.76,0.94,0.6,1.2
2022-01-30 16:49:44.4630,0.228,-0.957,-1.681,-1.8,4.3,6.65,0.68,-0.16,1.15
2022-01-30 16:49:44.4730,0.189,-0.994,-1.752,-2.13,4.37,8.2,0.28,-0.71,1.06
2022-01-30 16:49:44.4830,0.099,-0.999,-1.747,-1.77,4.72,8.81,-0.17,-0.84,1.02
2022-01-30 16:49:44.4940,0.0,-0.946,-1.718,-0.98,4.71,8.69,-0.54,-0.64,1.06
2022-01-30 16:49:44.5040,-0.069,-0.894,-1.708,-0.13,4.2,8.38,-0.54,-0.64,1.06
2022-01-30 16:49:44.5130,-0.108,-0.864,-1.697,0.42,3.78,8.27,-0.7,0.11,1.41
2022-01-30 16:49:44.5230,-0.131,-0.844,-1.655,0.88,3.44,7.61,-0.7,0.11,1.41
2022-01-30 16:49:44.5330,-0.146,-0.828,-1.549,0.88,3.44,7.61,-0.15,0.7,1.93
2022-01-30 16:49:44.5440,-0.162,-0.801,-1.398,0.99,3.3,6.47,0.15,0.86,2.11
2022-01-30 16:49:44.5530,-0.184,-0.767,-1.242,1.32,2.67,3.46,0.33,0.89,2.23
2022-01-30 16:49:44.5640,-0.204,-0.734,-1.075,1.32,2.67,3.46,0.41,0.81,2.27
2022-01-30 16:49:44.5730,-0.214,-0.694,-0.904,1.46,2.31,1.81,0.42,0.64,2.2
2022-01-30 16:49:44.5840,-0.21,-0.642,-0.745,1.5,1.89,0.16,0.42,0.64,2.2
2022-01-30 16:49:44.5940,-0.186,-0.587,-0.61,1.36,1.35,-1.37,0.33,0.1,1.81
2022-01-30 16:49:44.6040,-0.157,-0.544,-0.501,1.03,0.8,-2.63,0.25,-0.21,1.55
2022-01-30 16:49:44.6140,-0.134,-0.501,-0.411,0.34,-0.05,-4.51,0.16,-0.48,1.31
2022-01-30 16:49:44.6240,-0.122,-0.451,-0.339,0.12,-0.53,-5.2,0.06,-0.69,1.1
2022-01-30 16:49:44.6340,-0.121,-0.401,-0.282,0.12,-0.53,-5.2,0.06,-0.69,1.1
2022-01-30 16:49:44.6440,-0.119,-0.349,-0.241,0.0,-1.01,-5.73,-0.03,-0.81,0.84
2022-01-30 16:49:44.6540,-0.114,-0.305,-0.207,-0.13,-1.5,-6.11,0.01,-0.75,0.77
2022-01-30 16:49:44.6640,-0.106,-0.272,-0.184,-0.29,-1.91,-6.42,0.11,-0.62,0.73
2022-01-30 16:49:44.6740,-0.101,-0.247,-0.167,-0.45,-2.23,-6.62,0.27,-0.45,0.72
2022-01-30 16:49:44.6830,-0.094,-0.231,-0.152,-0.69,-2.64,-6.88,0.46,-0.25,0.71
2022-01-30 16:49:44.6930,-0.087,-0.22,-0.139,-0.69,-2.64,-6.88,0.67,-0.02,0.7
2022-01-30 16:49:44.7030,-0.079,-0.211,-0.13,-0.8,-2.79,-6.97,0.8659949898719788,0.2,0.65
2022-01-30 16:49:44.7130,-0.073,-0.206,-0.125,-0.9,-2.93,-7.02,1.03,0.41,0.61
2022-01-30 16:49:44.7240,-0.073,-0.209,-0.121,-0.91,-3.09,-7.01,1.15,0.6,0.56
2022-01-30 16:49:44.7350,-0.077,-0.214,-0.129,-0.91,-3.09,-7.01,1.22,0.71,0.48
2022-01-30 16:49:44.7440,-0.076,-0.215,-0.163,-0.85,-3.15,-6.85,1.22,0.76,0.36
2022-01-30 16:49:44.7550,-0.075,-0.221,-0.197,-0.82,-3.23,-6.45,1.16,0.74,0.21
2022-01-30 16:49:44.7640,-0.081,-0.238,-0.251,-0.78,-3.24,-6.06,1.16,0.74,0.21
2022-01-30 16:49:44.7750,-0.08,-0.26,-0.356,-0.67,-3.15,-4.30011548101902,0.97,0.33,-0.16
2022-01-30 16:49:44.7850,-0.061,-0.284,-0.478,-0.67,-3.01,-4.31,0.97,0.33,-0.16
2022-01-30 16:49:44.7940,-0.036,-0.308,-0.625,-1.09,-2.7,-1.51,1.01,-0.33,-0.56
2022-01-30 16:49:44.8040,-0.009,-0.348,-0.762,-1.09,-2.7,-1.51,1.23,-0.54,-0.71
2022-01-30 16:49:44.8140,0.017,-0.398,-0.869,-1.61,-2.02,0.98,1.45,-0.55,-0.8
2022-01-30 16:49:44.8250,0.043,-0.427,-0.99,-1.61,-2.02,0.98,1.45,-0.51,-0.85
2022-01-30 16:49:44.8340,0.063,-0.446,-1.193,-1.84,-1.9,2.36,1.14,-0.44,-0.83
2022-01-30 16:49:44.8450,0.066,-0.511,-1.389,-2.0,-1.78,4.48,0.67,-0.18,-0.66
2022-01-30 16:49:44.8550,0.072,-0.655,-1.522,-2.02,0.34,7.64,0.34,0.34,-0.3
2022-01-30 16:49:44.8650,0.086,-0.787,-1.624,-2.02,0.34,7.64,0.32,0.93,0.02
2022-01-30 16:49:44.8750,0.107,-0.75,-1.708,-2.2,0.88,9.43,0.47,1.39,0.11
2022-01-30 16:49:44.8850,0.111,-0.647,-1.739,-2.2,0.88,9.43,0.53,1.7,0.08
2022-01-30 16:49:44.8950,0.113,-0.675,-1.658,-2.1,-0.08,9.63,0.3429808020591736,2.05,0.12
2022-01-30 16:49:44.9050,0.138,-0.81,-1.508,-2.0,0.37,8.69,-0.12,2.37,0.21
2022-01-30 16:49:44.9140,0.179,-0.895,-1.421,-2.12,2.49372462451458,6.39,-0.73,2.47,0.28
2022-01-30 16:49:44.9250,0.212,-0.889,-1.37,-2.36,2.49,6.39,-1.3,2.36,0.32
2022-01-30 16:49:44.9350,0.227,-0.852,-1.312,-2.5,2.45,5.79,-1.76,2.02,0.41
2022-01-30 16:49:44.9450,0.216,-0.84,-1.285,-2.49,2.24,5.13,-2.03,1.45,0.66
2022-01-30 16:49:44.9550,0.166,-0.822,-1.247,-2.27,2.3,4.76,-2.11,0.75,1.05
2022-01-30 16:49:44.9650,0.094,-0.761,-1.187,-1.74,2.25,4.22,-1.99,0.03,1.49
2022-01-30 16:49:44.9750,0.011,-0.652,-1.104,-1.11,1.75,3.5,-1.69,-0.6,1.84
2022-01-30 16:49:44.9850,-0.059,-0.528,-0.99,-0.43,0.79,2.55,-1.33,-1.08,2.06
2022-01-30 16:49:44.9940,-0.103,-0.42,-0.862,0.02,-0.3,1.34,-1.01,-1.39,2.15
2022-01-30 16:49:45.0040,-0.134,-0.344,-0.731,0.2,-1.23,0.02,-0.79,-1.54,2.15
2022-01-30 16:49:45.0150,-0.158,-0.303,-0.615,0.25,-2.13,-2.4,-0.67,-1.55,2.1
2022-01-30 16:49:45.0250,-0.187,-0.268,-0.52,0.32,-2.41,-3.31,-0.59,-1.46,2.0
2022-01-30 16:49:45.0360,-0.223,-0.225,-0.443,0.32,-2.41,-4.0524642634391785,-0.54,-1.28,1.87
2022-01-30 16:49:45.0450,-0.261,-0.185,-0.385,0.48,-2.74,-4.06,-0.45,-1.03,1.68
2022-01-30 16:49:45.0550,-0.293,-0.147,-0.342,0.69,-3.06,-4.61,-0.3,-0.74,1.43
2022-01-30 16:49:45.0650,-0.319,-0.12,-0.304,1.02,-3.59,-5.39,-0.07,-0.39,1.13
2022-01-30 16:49:45.0760,-0.331,-0.119,-0.264,1.02,-3.59,-5.39,0.22,-0.02,0.77
2022-01-30 16:49:45.0850,-0.327,-0.143,-0.242,1.08,-3.57,-5.77,0.53,0.25,0.38
2022-01-30 16:49:45.0960,-0.321,-0.177,-0.257,1.04,-3.34,-5.92,0.82,0.36,-0.02
2022-01-30 16:49:45.1050,-0.302,-0.208,-0.261,0.99,-3.08,-5.72,1.06,0.37,-0.43
2022-01-30 16:49:45.1150,-0.28,-0.236,-0.243,0.7,-2.72,-5.78,1.27,0.28,-0.84
2022-01-30 16:49:45.1260,-0.266,-0.257,-0.25,0.7,-2.72,-5.78,1.27,0.28,-0.84
2022-01-30 16:49:45.1360,-0.246,-0.261,-0.265,0.63,-2.67,-5.62,1.44,-0.24,-1.69
2022-01-30 16:49:45.1450,-0.218,-0.256,-0.282,0.5,-2.79,-5.4,1.44,-0.24,-1.69
2022-01-30 16:49:45.1550,-0.196,-0.244,-0.305,0.28,-3.0,-5.13,1.16,-0.84,-2.5
2022-01-30 16:49:45.1660,-0.184,-0.233,-0.318,0.16,-3.25,-4.84,0.87,-0.99,-2.84
2022-01-30 16:49:45.1760,-0.179,-0.221,-0.342,0.13,-3.48,-4.65,0.51,-1.04,-3.11
2022-01-30 16:49:45.1860,-0.2,-0.213,-0.405,0.2,-3.68,-4.33,0.51,-1.04,-3.11
2022-01-30 16:49:45.1960,-0.224,-0.201,-0.483,0.92,-3.96,-2.88,-0.26,-0.66,-3.42
2022-01-30 16:49:45.2060,-0.235,-0.183,-0.591,0.92,-3.96,-2.88,-0.52,-0.17,-3.43
2022-01-30 16:49:45.2150,-0.267,-0.186,-0.735,1.23,-4.14,-1.79,-0.61,0.56,-3.31
2022-01-30 16:49:45.2260,-0.283,-0.234,-0.876,1.8,-4.04,-0.42,-0.49,1.42,-3.07
2022-01-30 16:49:45.2360,-0.252,-0.287,-1.076,2.2,-3.52,0.96,-0.49,1.42,-3.07
2022-01-30 16:49:45.2460,-0.162,-0.353,-1.278,2.18,-2.99,2.96,-0.11,3.18,-2.49
2022-01-30 16:49:45.2560,-0.007,-0.494,-1.421,1.61,-2.28,4.87,-0.01,4.01,-2.16
2022-01-30 16:49:45.2660,0.218,-0.709,-1.551,0.44,-0.76,6.22,-0.03,4.38,-1.87
2022-01-30 16:49:45.2760,0.447,-0.889,-1.711,-3.13,3.07,9.18,-0.14,4.04,-1.67
2022-01-30 16:49:45.2870,0.568,-0.964,-1.837,-3.13,3.07,9.18,-0.33,3.09,-1.48
2022-01-30 16:49:45.2960,0.595,-1.008,-1.863,-3.84,3.76,10.37,-0.33,3.09,-1.48
2022-01-30 16:49:45.3060,0.617,-1.089,-1.839,-3.83,4.29,10.49,-0.76,0.53,-0.9
2022-01-30 16:49:45.3160,0.655,-1.176,-1.855,-4.4,6.11,10.36,-0.97,-0.92,-0.59
2022-01-30 16:49:45.3260,0.678,-1.23,-1.858,-4.74,6.69,10.24,-1.11,-2.2,-0.29
2022-01-30 16:49:45.3360,0.644,-1.258,-1.823,-4.74,6.69,10.24,-1.12,-3.14,0.05
2022-01-30 16:49:45.3460,0.551,-1.252,-1.749,-4.57,7.03,9.73,-1.12,-3.14,0.05
2022-01-30 16:49:45.3560,0.429,-1.197,-1.656,-3.94,6.99,8.86,-0.69,-3.98,0.7
2022-01-30 16:49:45.3660,0.286,-1.102,-1.546,-3.06,6.43,7.85,-0.32,-4.07,0.92
2022-01-30 16:49:45.3770,0.139,-0.994,-1.41,-0.99,4.44,5.33,0.07,-4.06,1.04
2022-01-30 16:49:45.3870,0.002,-0.897,-1.265,-0.99,4.44,5.33,0.07,-4.06,1.04
2022-01-30 16:49:45.3970,-0.093,-0.806,-1.099,-0.07,3.46,3.91,0.84,-3.89,0.96
2022-01-30 16:49:45.4060,-0.133,-0.72,-0.931,0.4,1.58,0.78,1.2,-3.82,0.8
2022-01-30 16:49:45.4170,-0.134,-0.654,-0.769,0.4,1.58,0.78,1.5,-3.82,0.63
2022-01-30 16:49:45.4270,-0.117,-0.593,-0.626,0.03,0.85,-0.68,1.5,-3.82,0.63
2022-01-30 16:49:45.4370,-0.098,-0.527,-0.505,-0.48,0.12,-1.9,1.78,-3.98,0.29
2022-01-30 16:49:45.4470,-0.081,-0.464,-0.398,-1.47,-1.41,-3.74,1.79,-4.07,0.13
2022-01-30 16:49:45.4570,-0.07,-0.402,-0.316,-1.47,-1.41,-3.74,1.79,-4.07,0.13
2022-01-30 16:49:45.4670,-0.066,-0.339,-0.254,-1.88,-2.15,-4.31,1.62,-4.14,-0.25
2022-01-30 16:49:45.4770,-0.065,-0.282,-0.199,-2.2,-2.89,-4.69,1.47,-4.09,-0.47
2022-01-30 16:49:45.4860,-0.069,-0.239,-0.165,-2.46,-3.55,-5.0,1.27,-3.94,-0.72
2022-01-30 16:49:45.4960,-0.072,-0.21,-0.128,-2.64,-4.06,-5.12,1.04,-3.67,-0.99
2022-01-30 16:49:45.5070,-0.08,-0.178,-0.08,-2.79,-4.44,-5.31,0.77,-3.26,-1.3
2022-01-30 16:49:45.5160,-0.089,-0.15,-0.048,-2.83,-4.86,-5.61,0.77,-3.26,-1.3
2022-01-30 16:49:45.5270,-0.105,-0.133,-0.036,-2.81,-5.2,-5.76,0.2,-2.21,-1.94
2022-01-30 16:49:45.5370,-0.11,-0.114,-0.033,-2.66,-5.45,-5.77,-0.09,-1.67,-2.24
2022-01-30 16:49:45.5470,-0.114,-0.1,-0.039,-2.56,-5.71,-5.73,-0.38,-1.14,-2.5
2022-01-30 16:49:45.5570,-0.109,-0.104,-0.057,-2.44,-5.9,-5.65,-0.68,-0.65,-2.7
2022-01-30 16:49:45.5670,-0.101,-0.125,-0.092,-2.35,-5.89,-5.48,-1.01,-0.18,-2.81
2022-01-30 16:49:45.5770,-0.093,-0.156,-0.136,-2.24,-5.7,-5.18,-1.36,0.34,-2.85
2022-01-30 16:49:45.5870,-0.099,-0.199,-0.171,-2.09,-5.38,-4.86,-1.71,0.95,-2.85
2022-01-30 16:49:45.5970,-0.107,-0.234,-0.204,-1.76,-4.93,-4.68,-2.03,1.62,-2.84
2022-01-30 16:49:45.6080,-0.112,-0.255,-0.27,-1.38,-4.55,-4.52,-2.32,2.22,-2.83
2022-01-30 16:49:45.6170,-0.117,-0.303,-0.397,-1.0,-4.24,-4.02,-2.55,2.55,-2.77
2022-01-30 16:49:45.6270,-0.119,-0.407,-0.672,-0.59,-3.59,-2.88,-2.61,2.17,-2.65
2022-01-30 16:49:45.6370,-0.093,-0.527,-1.017,-0.26,-2.36,-0.14,-2.3,1.5,-2.55
2022-01-30 16:49:45.6470,-0.041,-0.644,-1.165,-0.28,-1.07,2.83,-1.76,0.61,-2.48
2022-01-30 16:49:45.6580,-0.009,-0.794,-1.42,-0.59,0.21,4.18,-1.22,-0.45,-2.41
2022-01-30 16:49:45.6670,-0.01,-0.943,-1.604,-0.75,1.79,6.68,-0.75,-1.3,-2.3
2022-01-30 16:49:45.6780,-0.033,-1.034,-1.67,-0.66,3.24,8.24,-0.75,-1.3,-2.3
2022-01-30 16:49:45.6880,-0.039,-1.054,-1.698,-0.43,4.06,8.82,0.04,-2.05,-2.02
2022-01-30 16:49:45.6980,-0.027,-1.011,-1.665,-0.44,4.15,9.05,0.36,-2.02,-1.83
2022-01-30 16:49:45.7080,-0.01,-0.957,-1.553,-0.83,3.08,7.54,0.58,-1.82,-1.52
2022-01-30 16:49:45.7260,0.021,-0.933,-1.403,-1.2,2.84,6.13,0.57,-1.57,-1.14
2022-01-30 16:49:45.7270,0.072,-0.948,-1.265,-1.2,2.84,6.13,0.31,-1.34,-0.73
2022-01-30 16:49:45.7370,0.126,-0.999,-1.143,-1.78,3.0,4.82,-0.11,-1.1,-0.33
2022-01-30 16:49:45.7480,0.142,-1.051,-1.023,-2.5,4.06,2.43,-0.54,-0.81,0.05
2022-01-30 16:49:45.7580,0.123,-1.065,-0.904,-2.36,4.21,1.24,-0.84,-0.52,0.38
2022-01-30 16:49:45.7680,0.095,-1.037,-0.818,-2.16,3.97,0.4,-0.84,-0.52,0.38
2022-01-30 16:49:45.7780,0.082,-0.982,-0.767,-2.16,3.97,0.4,-0.85,-0.34,0.83
2022-01-30 16:49:45.7880,0.083,-0.929,-0.723,-2.13,3.49,-0.13,-0.69,-0.47,0.98
2022-01-30 16:49:45.7980,0.08,-0.888,-0.668,-2.31,2.72,-1.18,-0.53,-0.65,1.11
2022-01-30 16:49:45.8080,0.063,-0.848,-0.599,-2.31,2.72,-1.18,-0.53,-0.65,1.11
2022-01-30 16:49:45.8180,0.028,-0.806,-0.53,-2.25,2.39,-1.88,-0.46,-0.8,1.27
2022-01-30 16:49:45.8280,-0.017,-0.756,-0.47,-2.03,2.02,-2.57,-0.54,-0.66,1.28
2022-01-30 16:49:45.8380,-0.061,-0.702,-0.413,-1.71,1.59,-3.18,-0.54,-0.66,1.28
2022-01-30 16:49:45.8480,-0.101,-0.647,-0.369,-1.38,1.13,-3.76,-0.73,0.01,1.09
2022-01-30 16:49:45.8580,-0.134,-0.591,-0.345,-1.05,0.68,-4.21,-0.77,0.4,0.93
2022-01-30 16:49:45.8680,-0.149,-0.531,-0.338,-0.76,0.2,-4.47,-0.77,0.4,0.93
2022-01-30 16:49:45.8780,-0.136,-0.477,-0.347,-0.64,-0.31,-4.57,-0.59,0.89,0.59
2022-01-30 16:49:45.8880,-0.119,-0.439,-0.364,-0.74,-0.76,-4.52,-0.37,0.94,0.45
2022-01-30 16:49:45.8980,-0.107,-0.406,-0.367,-0.86,-1.09,-4.4,-0.07,0.9,0.34
2022-01-30 16:49:45.9090,-0.1,-0.373,-0.369,-0.92,-1.39,-4.4,0.25,0.79,0.24
2022-01-30 16:49:45.9180,-0.093,-0.339,-0.363,-0.93,-1.74,-4.38,0.25,0.79,0.24
2022-01-30 16:49:45.9290,-0.087,-0.323,-0.336,-0.97,-2.29,-4.71,0.81,0.63,0.05
2022-01-30 16:49:45.9390,-0.078,-0.33,-0.301,-1.01,-2.28,-5.01,0.98,0.65,-0.01
2022-01-30 16:49:45.9480,-0.06,-0.347,-0.277,-1.01,-2.28,-5.01,1.06,0.72,-0.07
2022-01-30 16:49:45.9590,-0.043,-0.365,-0.276,-1.22,-2.08,-5.11,1.02,0.79,-0.11
2022-01-30 16:49:45.9690,-0.035,-0.393,-0.307,-1.22,-2.08,-5.11,0.93,0.79,-0.12
2022-01-30 16:49:45.9780,-0.033,-0.427,-0.387,-1.22,-1.87,-4.7,0.83,0.67,-0.13
2022-01-30 16:49:45.9880,-0.03,-0.458,-0.491,-1.18,-1.61,-3.83,0.77,0.53,-0.19
2022-01-30 16:49:45.9990,-0.031,-0.489,-0.594,-1.16,-1.37,-2.78,0.78,0.42,-0.29
2022-01-30 16:49:46.0090,-0.041,-0.534,-0.7,-1.08,-1.11,-1.71,0.87,0.44,-0.44
2022-01-30 16:49:46.0190,-0.025,-0.605,-0.792,-0.93,-0.72,-0.65,0.87,0.44,-0.44
2022-01-30 16:49:46.0280,0.028,-0.728,-0.895,-1.05,-0.05,0.3,1.14,0.68,-0.65
2022-01-30 16:49:46.0390,0.097,-0.863,-1.045,-1.52,1.11,1.42,1.13,0.72,-0.62
2022-01-30 16:49:46.0480,0.169,-0.992,-1.212,-2.73,3.54,4.7,1.01,0.71,-0.5
2022-01-30 16:49:46.0590,0.222,-1.152,-1.371,-2.73,3.54,4.7,0.9,0.76,-0.34
2022-01-30 16:49:46.0690,0.246,-1.29,-1.497,-3.26,6.26,7.53,0.88,0.9,-0.25
2022-01-30 16:49:46.0790,0.247,-1.358,-1.614,-3.140838612020016,6.77,8.71,0.88,0.9,-0.25
2022-01-30 16:49:46.0890,0.225,-1.348,-1.681,-2.78,6.53,9.31,1.02,1.38,-0.36
2022-01-30 16:49:46.0990,0.189,-1.334,-1.651,-2.78,6.53,9.31,0.98,1.81,-0.35
2022-01-30 16:49:46.1090,0.167,-1.336,-1.592,-2.27,6.37,8.98,0.98,1.81,-0.35
2022-01-30 16:49:46.1190,0.165,-1.307,-1.561,-1.92,6.31,8.46,0.3,2.4,0.04
2022-01-30 16:49:46.1290,0.15,-1.265,-1.572,-1.42,5.57,8.36,-0.21,2.3,0.36
2022-01-30 16:49:46.1390,0.105,-1.218,-1.6,-1.42,5.57,8.36,-0.21,2.053541898727417,0.78
2022-01-30 16:49:46.1490,0.035,-1.174,-1.559,-0.1,4.76,8.01,-0.67,1.81,1.23
2022-01-30 16:49:46.1590,-0.028,-1.098,-1.472,-0.1,4.76,8.01,-0.48,1.56,1.62
2022-01-30 16:49:46.1690,-0.075,-1.002,-1.356,0.51,3.98,7.11,-0.16,1.33,1.92
2022-01-30 16:49:46.1790,-0.098,-0.947,-1.202,0.9,3.08,5.9,0.14,1.12,2.17
2022-01-30 16:49:46.1900,-0.113,-0.903,-1.028,1.11,2.1,2.66,0.37,0.96,2.36
2022-01-30 16:49:46.1990,-0.134,-0.838,-0.836,1.11,2.1,2.66,0.55,0.83,2.48
2022-01-30 16:49:46.2090,-0.149,-0.755,-0.663,1.22,1.4,0.82,0.68,0.69,2.51
2022-01-30 16:49:46.2200,-0.149,-0.676,-0.514,1.23,0.53,-0.79,0.74,0.53,2.48
2022-01-30 16:49:46.2290,-0.143,-0.623,-0.386,1.08,-0.26,-2.19,0.74,0.53,2.48
2022-01-30 16:49:46.2400,-0.136,-0.567,-0.286,0.87,-0.8,-3.36,0.69,0.16,2.3
2022-01-30 16:49:46.2490,-0.128,-0.491,-0.21,0.65,-1.41,-4.26,0.58,-0.0,2.14
2022-01-30 16:49:46.2590,-0.123,-0.419,-0.155,0.24,-2.88,-5.42,0.45,-0.13,1.98
2022-01-30 16:49:46.2700,-0.119,-0.368,-0.119,0.24,-2.88,-5.42,0.29,-0.18,1.83
2022-01-30 16:49:46.2800,-0.107,-0.335,-0.081,0.06,-3.37,-5.76,0.13,-0.11,1.71
2022-01-30 16:49:46.2900,-0.1,-0.315,-0.069,-0.21,-3.64,-6.09,-0.04,0.01,1.62
2022-01-30 16:49:46.3000,-0.122,-0.262,-0.052,-0.33,-3.85,-6.21,-0.21,0.22,1.51
2022-01-30 16:49:46.3100,-0.128,-0.218,-0.02,-0.21,-4.34,-6.41,-0.38,0.51,1.42
2022-01-30 16:49:46.3200,-0.136,-0.196,-0.007,-0.23,-4.7,-6.75,-0.54,0.82,1.35
2022-01-30 16:49:46.3300,-0.138,-0.183,-0.019,-0.18,-4.89,-6.82,-0.74,1.12,1.3
2022-01-30 16:49:46.3400,-0.128,-0.173,-0.057,-0.18,-4.89,-6.82,-0.92,1.37,1.29
2022-01-30 16:49:46.3490,-0.128,-0.171,-0.094,-0.29,-4.9,-6.5,-1.09,1.61,1.3
2022-01-30 16:49:46.3600,-0.152,-0.178,-0.107,-0.19,-4.8,-6.29,-1.21,1.88,1.35
2022-01-30 16:49:46.3700,-0.151,-0.182,-0.119,0.05,-4.62,-6.26,-1.28,2.18,1.41
2022-01-30 16:49:46.3800,-0.155,-0.18,-0.147,0.11,-4.48,-6.25,-1.3,2.46,1.47
2022-01-30 16:49:46.3900,-0.156,-0.169,-0.191,0.25,-4.39,-6.06,-1.25,2.65,1.52
2022-01-30 16:49:46.4000,-0.16,-0.153,-0.287,0.37,-4.38,-5.72,-1.1,2.58,1.53
2022-01-30 16:49:46.4100,-0.168,-0.132,-0.389,0.52,-4.45,-4.78,-0.79,2.42,1.5
2022-01-30 16:49:46.4200,-0.162,-0.138,-0.421,0.69,-4.56,-3.95,-0.41,2.16,1.43
2022-01-30 16:49:46.4300,-0.164,-0.185,-0.519,0.81,-3.89,-2.64,-0.07,1.73,1.35
2022-01-30 16:49:46.4410,-0.175,-0.26,-0.638,0.81,-3.89,-2.64,0.23,1.21,1.27
2022-01-30 16:49:46.4500,-0.18,-0.337,-0.723,0.93,-3.14,-1.51,0.5,0.77,1.18
2022-01-30 16:49:46.4600,-0.176,-0.402,-0.806,0.97,-2.43,-0.68,0.5,0.77,1.18
2022-01-30 16:49:46.4700,-0.17,-0.475,-0.881,0.9,-1.84,0.18,0.92,0.5,1.12
2022-01-30 16:49:46.4800,-0.144,-0.584,-0.93,0.8,-1.15,0.93,1.04,0.72,1.22
2022-01-30 16:49:46.4900,-0.107,-0.716,-1.018,0.5,-0.11,1.46,1.05,0.95,1.33
2022-01-30 16:49:46.5000,-0.067,-0.845,-1.157,0.13,1.13,2.48,0.94,1.1,1.3
2022-01-30 16:49:46.5110,-0.017,-0.958,-1.281,-0.28,2.31,3.89,0.75,1.18,1.07
2022-01-30 16:49:46.5200,0.024,-1.086,-1.361,-0.73,3.37,5.1,0.49,1.19,0.67
2022-01-30 16:49:46.5310,0.064,-1.192,-1.433,-1.08,4.62,5.86,0.11,1.08,0.17
2022-01-30 16:49:46.5410,0.082,-1.171,-1.482,-1.4,5.55,6.57,-0.36,0.97,-0.33
2022-01-30 16:49:46.5510,0.059,-1.048,-1.456,-1.43,5.19,6.94,-0.91,0.98,-0.68
2022-01-30 16:49:46.5610,0.029,-0.94,-1.408,-1.05,4.01,6.54,-1.54,1.03,-0.81
2022-01-30 16:49:46.5710,0.029,-0.864,-1.418,-0.66,3.13,6.0671563303470615,-2.21,0.97,-0.82
2022-01-30 16:49:46.5810,0.049,-0.787,-1.467,-0.57,2.57,6.06,-2.82,0.87,-0.77
2022-01-30 16:49:46.5910,0.064,-0.728,-1.489,-0.66,2.03,6.38,-3.19,0.87,-0.63
2022-01-30 16:49:46.6010,0.058,-0.686,-1.474,-0.67,1.76,6.36,-3.19,0.92,-0.42
2022-01-30 16:49:46.6110,0.04,-0.619,-1.456,-0.23,1.14,5.7,-2.83,0.86,-0.17
2022-01-30 16:49:46.6210,0.019,-0.534,-1.41,0.02,0.5,5.1,-2.22,0.64,0.1
2022-01-30 16:49:46.6310,-0.001,-0.46,-1.321,0.02,0.5,5.1,-1.52,0.25,0.41
2022-01-30 16:49:46.6410,-0.019,-0.406,-1.188,0.22,-0.06,4.1,-0.83,-0.24,0.75
2022-01-30 16:49:46.6510,-0.041,-0.352,-1.034,0.35,-0.51,2.7,-0.25,-0.81,1.07
2022-01-30 16:49:46.6610,-0.064,-0.299,-0.888,0.44,-1.02,1.19,0.21,-1.39,1.37
2022-01-30 16:49:46.6710,-0.085,-0.251,-0.752,0.49,-1.56,-0.22,0.55,-1.91,1.61
2022-01-30 16:49:46.6810,-0.091,-0.212,-0.635,0.44,-2.06,-1.51,0.74,-2.25,1.73
2022-01-30 16:49:46.6910,-0.095,-0.188,-0.527,0.22,-2.48,-2.6,0.79,-2.34,1.76
2022-01-30 16:49:46.7010,-0.12,-0.183,-0.418,-0.01,-2.73,-3.6,0.76,-2.16,1.75
2022-01-30 16:49:46.7110,-0.161,-0.174,-0.323,0.0,-2.82,-4.61,0.71,-1.78,1.69
2022-01-30 16:49:46.7210,-0.209,-0.151,-0.252,0.18,-2.97,-5.45,0.69,-1.27,1.58
2022-01-30 16:49:46.7310,-0.253,-0.127,-0.196,0.48,-3.23,-6.07,0.7,-0.73,1.43
2022-01-30 16:49:46.7410,-0.297,-0.099,-0.156,0.76,-3.5,-6.56,0.77,-0.21,1.23
2022-01-30 16:49:46.7510,-0.324,-0.064,-0.121,1.12,-3.84,-6.9,0.86,0.23,0.99
2022-01-30 16:49:46.7610,-0.332,-0.059,-0.118,1.32,-4.21,-7.19,0.96,0.5,0.71
2022-01-30 16:49:46.7710,-0.331,-0.084,-0.145,1.39,-4.28,-7.13,1.02,0.62,0.43
2022-01-30 16:49:46.7810,-0.326,-0.129,-0.153,1.41,-4.08,-6.82,1.07,0.67,0.13
2022-01-30 16:49:46.7920,-0.311,-0.171,-0.154,1.4,-3.71,-6.74,1.08,0.66,-0.19
2022-01-30 16:49:46.8020,-0.296,-0.198,-0.184,1.31,-3.41,-6.67,0.99,0.53,-0.53
2022-01-30 16:49:46.8120,-0.294,-0.222,-0.24,1.3073122894763947,-3.08,-5.69,0.83,0.32,-0.85
2022-01-30 16:49:46.8220,-0.301,-0.246,-0.296,1.3,-3.08,-5.69,0.58,0.09,-1.16
2022-01-30 16:49:46.8320,-0.325,-0.262,-0.37,1.78,-2.81,-4.33,0.26,-0.16,-1.4
2022-01-30 16:49:46.8420,-0.369,-0.276,-0.469,1.78,-2.81,-4.33,-0.12,-0.39,-1.58
2022-01-30 16:49:46.8520,-0.417,-0.293,-0.6,2.28,-2.69,-3.33,-0.47,-0.52,-1.7
2022-01-30 16:49:46.8610,-0.461,-0.306,-0.747,2.8,-2.5,-2.02,-0.47,-0.46,-1.72
2022-01-30 16:49:46.8720,-0.492,-0.316,-0.91,3.27,-2.34,-0.6,-0.7,-0.31,-1.67
2022-01-30 16:49:46.8810,-0.511,-0.321,-1.103,3.63,-2.21,1.0,-0.42,-0.15,-1.61
2022-01-30 16:49:46.8920,-0.504,-0.332,-1.299,3.86,-2.15,2.88,-0.42,-0.15,-1.61
2022-01-30 16:49:46.9020,-0.479,-0.389,-1.528,3.84,-2.03,4.83,0.47,-0.15,-1.44
2022-01-30 16:49:46.9120,-0.445,-0.536,-1.725,3.34,0.02,9.0,0.85,-0.26,-1.24
2022-01-30 16:49:46.9220,-0.394,-0.706,-1.827,3.34,0.02,9.0,1.09,-0.43,-1.1
2022-01-30 16:49:46.9320,-0.32,-0.807,-1.87,2.83,1.54,9.97,1.11,-0.66,-1.12
2022-01-30 16:49:46.9420,-0.242,-0.895,-1.83,2.11,2.36,10.38,0.88,-0.9,-1.26
2022-01-30 16:49:46.9520,-0.174,-1.016,-1.755,0.69,4.37,9.26,0.36,-1.19,-1.39
2022-01-30 16:49:46.9620,-0.14,-1.155,-1.699,0.37,5.73,8.71,-0.37,-1.46,-1.45
2022-01-30 16:49:46.9720,-0.137,-1.25,-1.664,0.37,5.73,8.71,-1.17,-1.7,-1.46
2022-01-30 16:49:46.9820,-0.142,-1.252,-1.654,0.32,6.64,8.36,-1.9,-1.91,-1.47
2022-01-30 16:49:46.9920,-0.157,-1.163,-1.682,0.3,6.68,8.21,-1.9,-2.18,-1.52
2022-01-30 16:49:47.0020,-0.188,-0.985,-1.73,0.37,5.87,8.43,-2.39,-2.18,-1.52
2022-01-30 16:49:47.0120,-0.213,-0.794,-1.722,0.67,2.58,8.52,-2.29,-2.41,-1.54
2022-01-30 16:49:47.0220,-0.214,-0.657,-1.658,0.67,2.58,8.52,-1.78,-2.34,-1.39
2022-01-30 16:49:47.0320,-0.188,-0.574,-1.549,0.52,1.44,7.78,-1.18,-2.28,-1.17
2022-01-30 16:49:47.0420,-0.155,-0.53,-1.389,-0.35,0.41,5.0,-0.68,-2.22,-0.91
2022-01-30 16:49:47.0520,-0.138,-0.499,-1.184,-0.64,0.13,2.97,-0.37,-2.15,-0.66
2022-01-30 16:49:47.0630,-0.138,-0.462,-0.97,-0.78,-0.25,0.94,-0.22,-2.09,-0.5
2022-01-30 16:49:47.0720,-0.146,-0.402,-0.806,-0.84,-0.84,-0.59,-0.22,-2.08,-0.45
2022-01-30 16:49:47.0830,-0.163,-0.348,-0.656,-0.84,-0.84,-0.59,-0.33,-2.11,-0.49
2022-01-30 16:49:47.0930,-0.166,-0.304,-0.552,-0.98,-1.71,-2.92,-0.51,-2.19,-0.59
2022-01-30 16:49:47.1030,-0.16,-0.285,-0.489,-0.98,-1.71,-2.92,-0.51,-2.19,-0.59
2022-01-30 16:49:47.1110,-0.138,-0.272,-0.434,-1.2,-1.83,-3.49,-0.99,-2.25,-0.76
2022-01-30 16:49:47.1210,-0.117,-0.232,-0.396,-1.57,-1.93,-3.98,-1.23,-1.98,-0.66
2022-01-30 16:49:47.1310,-0.087,-0.225,-0.332,-1.93,-2.24,-4.39,-1.43,-1.62,-0.42
2022-01-30 16:49:47.1410,-0.098,-0.253,-0.364,-2.32,-2.14,-4.98,-1.51,-1.38,-0.09
2022-01-30 16:49:47.1510,-0.139,-0.249,-0.432,-2.26,-1.74,-4.56,-1.34,-1.37,0.13
2022-01-30 16:49:47.1610,-0.173,-0.19,-0.51,-1.97,-1.74,-3.93,-0.88,-1.7,0.11
2022-01-30 16:49:47.1710,-0.195,-0.129,-0.583,-1.79,-2.28,-3.09,-0.88,-1.7,0.11
2022-01-30 16:49:47.1810,-0.202,-0.107,-0.582,-1.78,-2.83,-2.4,0.5,-2.57,-0.4
2022-01-30 16:49:47.1910,-0.206,-0.161,-0.553,-1.89,-3.03,-2.33,0.5,-2.57,-0.4
2022-01-30 16:49:47.2010,-0.182,-0.226,-0.52,-2.09,-2.52,-2.5,1.11,-3.02,-0.84
2022-01-30 16:49:47.2110,-0.149,-0.265,-0.505,-2.54,-2.05,-2.63,1.11,-3.02,-0.84
2022-01-30 16:49:47.2210,-0.122,-0.321,-0.511,-3.07,-1.77,-2.58,0.73,-3.2,-1.12
2022-01-30 16:49:47.2310,-0.121,-0.376,-0.535,-3.47,-1.3,-2.31,0.35,-3.15,-1.21
2022-01-30 16:49:47.2410,-0.081,-0.414,-0.587,-3.72,-0.92,-1.88,-0.11,-3.02,-1.22
2022-01-30 16:49:47.2510,-0.15,-0.521,-0.663,-4.17,-0.48,-1.22,-0.11,-3.02,-1.22
2022-01-30 16:49:47.2610,-0.197,-0.568,-0.804,-3.62,0.51,-0.27,-0.92,-2.92,-1.19
2022-01-30 16:49:47.2720,-0.251,-0.587,-1.013,-3.31,0.92,1.3,-1.18,-3.23,-1.24
2022-01-30 16:49:47.2810,-0.294,-0.619,-1.225,-2.94,1.11,3.55,-1.27,-3.58,-1.26
2022-01-30 16:49:47.2910,-0.321,-0.668,-1.335,-2.72,1.46,5.66,-1.14,-3.78,-1.21
2022-01-30 16:49:47.3010,-0.344,-0.71,-1.376,-2.66,1.96,6.8,-0.78,-3.72,-1.14
2022-01-30 16:49:47.3110,-0.354,-0.711,-1.366,-2.61,2.32,7.3,-0.34,-3.46,-1.15
2022-01-30 16:49:47.3210,-0.354,-0.707,-1.315,-2.69,2.24,7.36,0.02,-2.99,-1.23
2022-01-30 16:49:47.3320,-0.354,-0.718,-1.211,-2.81,2.15,6.98,0.16,-2.3,-1.38
2022-01-30 16:49:47.3420,-0.349,-0.741,-1.071,-2.88,2.17,6.05,0.08,-1.45,-1.57
2022-01-30 16:49:47.3520,-0.338,-0.782,-0.943,-2.93,2.31,4.76,-0.14,-0.55,-1.79
2022-01-30 16:49:47.3610,-0.319,-0.855,-0.862,-2.99,2.65,3.56,-0.48,0.22,-2.0
2022-01-30 16:49:47.3720,-0.297,-0.915,-0.842,-3.08,3.29,2.81,-0.85,0.82,-2.19
2022-01-30 16:49:47.3810,-0.28,-0.922,-0.812,-3.13,3.73,2.56,-1.18,1.41,-2.34
2022-01-30 16:49:47.3920,-0.259,-0.889,-0.748,-3.09,3.67,2.07,-1.18,1.41,-2.34
2022-01-30 16:49:47.4020,-0.227,-0.848,-0.703,-3.05,3.27,1.24,-1.54,2.54,-2.39
2022-01-30 16:49:47.4120,-0.191,-0.8,-0.685,-3.1,2.83,0.62,-1.55,2.9,-2.27
2022-01-30 16:49:47.4220,-0.155,-0.752,-0.668,-3.15,2.34,0.22,-1.46,3.08,-2.1
2022-01-30 16:49:47.4320,-0.127,-0.694,-0.656,-3.17,1.86,-0.17,-1.2704849243164062,3.06,-1.88
2022-01-30 16:49:47.4420,-0.114,-0.632,-0.644,-3.12,1.28,-0.49,-1.04,2.89,-1.65
2022-01-30 16:49:47.4510,-0.114,-0.591,-0.633,-2.94,0.7,-0.8,-0.81,2.58,-1.4
2022-01-30 16:49:47.4620,-0.129,-0.568,-0.64,-2.66,0.32,-1.03,-0.62,2.19,-1.13
2022-01-30 16:49:47.4720,-0.155,-0.555,-0.651,-2.27,0.11,-1.06,-0.47,1.81,-0.83
2022-01-30 16:49:47.4820,-0.193,-0.554,-0.651,-1.82,0.01,-1.06,-0.26,1.48,-0.53
2022-01-30 16:49:47.4920,-0.222,-0.543,-0.653,-1.31,0.01,-1.12,0.07,1.18,-0.27
2022-01-30 16:49:47.5020,-0.229,-0.504,-0.66,-0.95,-0.14,-1.13,0.55,0.89,-0.12
2022-01-30 16:49:47.5120,-0.223,-0.448,-0.64,-0.82,-0.61,-1.07,1.13,0.67,-0.11
2022-01-30 16:49:47.5220,-0.199,-0.404,-0.609,-0.84,-1.25,-1.26,1.69,0.5,-0.17
2022-01-30 16:49:47.5320,-0.171,-0.403,-0.571,-1.05,-1.76,-1.49,2.11,0.42,-0.25
2022-01-30 16:49:47.5420,-0.162,-0.423,-0.516,-1.26,-1.89,-1.77,2.37,0.48,-0.3
2022-01-30 16:49:47.5520,-0.159,-0.428,-0.453,-1.28,-1.88,-2.2,2.37,0.48,-0.3
2022-01-30 16:49:47.5620,-0.155,-0.429,-0.413,-1.24,-2.03,-2.68,2.47,0.9,-0.42
2022-01-30 16:49:47.5720,-0.156,-0.448,-0.42,-1.19,-2.19,-2.89,2.35,1.13,-0.5
2022-01-30 16:49:47.5820,-0.166,-0.51,-0.442,-1.06,-2.14,-2.66,2.21,1.35,-0.56
2022-01-30 16:49:47.5930,-0.172,-0.606,-0.479,-0.82,-1.64,-2.32,2.12,1.53,-0.61
2022-01-30 16:49:47.6030,-0.153,-0.715,-0.524,-0.65,-0.83,-1.83,2.1,1.66,-0.69
2022-01-30 16:49:47.6130,-0.117,-0.821,-0.601,-0.71,0.1,-1.27,2.05,1.58,-0.85
2022-01-30 16:49:47.6230,-0.084,-0.912,-0.728,-0.91,0.97,-0.32,1.93,1.33,-1.05
2022-01-30 16:49:47.6330,-0.075,-1.003,-0.818,-1.05,1.71,1.02,1.73,1.08,-1.19
2022-01-30 16:49:47.6430,-0.1,-1.086,-0.877,-0.94,2.48,1.97,1.58,0.94,-1.22
2022-01-30 16:49:47.6530,-0.12,-1.132,-0.874,-0.52,3.15,2.6,1.54,1.05,-1.15
2022-01-30 16:49:47.6630,-0.118,-1.149,-0.839,-0.2,3.44,2.6,1.58,1.29,-1.02
2022-01-30 16:49:47.6730,-0.092,-1.143,-0.854,-0.11,3.47,2.38,1.6,1.51,-0.82
2022-01-30 16:49:47.6930,-0.076,-1.152,-0.859,-0.2,3.34,2.74,1.58,1.85,-0.52
2022-01-30 16:49:47.6930,-0.075,-1.191,-0.791,-0.2,3.34,2.74,1.5,2.27,-0.16
2022-01-30 16:49:47.7050,-0.074,-1.235,-0.761,-0.06,3.66,2.17,1.34,2.66,0.22
2022-01-30 16:49:47.7150,-0.066,-1.284,-0.731,0.04,4.02,2.01,1.12,3.04,0.56
2022-01-30 16:49:47.7250,-0.07,-1.337,-0.692,0.1,4.46,1.77,0.86,3.33,0.9
2022-01-30 16:49:47.7340,-0.088,-1.374,-0.666,0.24,4.93,1.44,0.61,3.48,1.23
2022-01-30 16:49:47.7450,-0.111,-1.372,-0.644,0.53,5.23,1.23,0.61,3.48,1.23
2022-01-30 16:49:47.7550,-0.135,-1.335,-0.657,1.06,4.75,1.22,0.08,3.11,1.8
2022-01-30 16:49:47.7650,-0.167,-1.29,-0.683,1.06,4.75,1.22,-0.16,2.64,1.98
2022-01-30 16:49:47.7750,-0.207,-1.257,-0.678,1.36,4.34,1.42,-0.3,2.11,2.05
2022-01-30 16:49:47.7860,-0.236,-1.178,-0.676,1.69,4.02,1.32,-0.38,1.55,1.91
2022-01-30 16:49:47.7950,-0.243,-1.059,-0.672,1.88,3.21,1.28,-0.43,1.12,1.59
2022-01-30 16:49:47.8050,-0.244,-0.943,-0.631,1.86,2.06,1.17,-0.54,0.91,1.21
2022-01-30 16:49:47.8150,-0.253,-0.823,-0.561,1.9,-0.18,-0.12,-0.74,1.01,0.87
2022-01-30 16:49:47.8260,-0.261,-0.699,-0.474,1.9,-0.18,-0.12,-0.99,1.33,0.61
2022-01-30 16:49:47.8350,-0.262,-0.579,-0.417,2.0,-1.33,-1.04,-1.28,1.73,0.47
2022-01-30 16:49:47.8450,-0.253,-0.467,-0.385,2.05,-3.42,-2.1,-1.54,2.09,0.43
2022-01-30 16:49:47.8550,-0.237,-0.38,-0.379,2.05,-3.42,-2.1,-1.75,2.3,0.49
2022-01-30 16:49:47.8650,-0.212,-0.323,-0.407,1.97,-4.12,-2.27,-1.85,2.3,0.62
2022-01-30 16:49:47.8750,-0.184,-0.286,-0.461,1.8,-4.54,-2.1,-1.8,2.06,0.76
2022-01-30 16:49:47.8850,-0.16,-0.254,-0.519,1.61,-4.77,-1.69,-1.58,1.64,0.86
2022-01-30 16:49:47.8950,-0.146,-0.22,-0.558,1.3,-5.24,-0.99,-1.19,1.13,0.88
2022-01-30 16:49:47.9050,-0.134,-0.187,-0.578,1.3,-5.24,-0.99,-0.73,0.64,0.84
2022-01-30 16:49:47.9150,-0.126,-0.169,-0.562,1.17,-5.51,-0.88,-0.26,0.25,0.77
2022-01-30 16:49:47.9250,-0.121,-0.164,-0.513,1.05,-5.64,-1.11,-0.26,-0.0,0.71
2022-01-30 16:49:47.9360,-0.114,-0.158,-0.458,0.95,-5.69,-1.61,0.14,-0.0,0.71
2022-01-30 16:49:47.9450,-0.099,-0.148,-0.405,0.81,-5.78,-2.12,0.55,-0.18,0.59
2022-01-30 16:49:47.9560,-0.089,-0.142,-0.368,0.47,-5.99,-2.89,0.58,-0.14,0.54
2022-01-30 16:49:47.9660,-0.086,-0.147,-0.339,0.47,-5.99,-2.89,0.58,-0.14,0.54
2022-01-30 16:49:47.9760,-0.088,-0.164,-0.324,0.42,-5.96,-3.12,0.52,-0.05,0.51
2022-01-30 16:49:47.9860,-0.1,-0.192,-0.326,0.41,-5.8,-3.22,0.45,0.1,0.51
2022-01-30 16:49:47.9960,-0.117,-0.219,-0.35,0.66,-5.3,-2.86,0.35,0.42,0.61
2022-01-30 16:49:48.0060,-0.128,-0.256,-0.388,0.66,-5.3,-2.86,0.39,0.55,0.68
2022-01-30 16:49:48.0150,-0.134,-0.321,-0.424,0.75,-4.92,-2.46,0.5,0.72,0.77
2022-01-30 16:49:48.0260,-0.122,-0.427,-0.45,0.77,-4.28,-2.09,0.5,0.72,0.77
2022-01-30 16:49:48.0360,-0.109,-0.566,-0.496,0.63,-3.22,-1.79,0.83,1.04,1.01
2022-01-30 16:49:48.0460,-0.105,-0.695,-0.562,0.46,-0.7,-0.52,0.92,1.17,1.06
2022-01-30 16:49:48.0560,-0.113,-0.803,-0.631,0.46,-0.7,-0.52,0.94,1.25,1.03
2022-01-30 16:49:48.0660,-0.148,-0.901,-0.716,0.57,0.29,0.22,0.9,1.19,0.93
Time,-0.183,-0.981,-0.826,1.24,1.89,2.32,0.84,0.92,0.76
2022-01-30 16:49:48.0860,-0.188,-1.037,-0.936,1.24,1.89,2.32,0.82,0.54,0.5
2022-01-30 16:49:48.0960,-0.147,-1.118,-0.97,1.23,2.41,3.4,0.86,0.18,0.23
2022-01-30 16:49:48.1050,-0.078,-1.208,-0.981,0.77,3.19,3.72,0.91,-0.15,0.01
2022-01-30 16:49:48.1160,-0.016,-1.265,-0.97,0.08,4.0,3.9,0.91,-0.15,0.01
2022-01-30 16:49:48.1260,0.015,-1.259,-0.908,-0.52,4.44,3.8,0.78,-0.25,-0.1
2022-01-30 16:49:48.1360,0.009,-1.202,-0.813,-0.78,4.26,3.21,0.6,0.12,-0.03
2022-01-30 16:49:48.1460,-0.003,-1.139,-0.721,-0.68,3.64,2.3,0.34,0.67,0.08
2022-01-30 16:49:48.1560,0.003,-1.122,-0.647,-0.55,3.03,1.44,0.01,1.26,0.22
2022-01-30 16:49:48.1660,0.032,-1.169,-0.611,-0.59,2.95,0.73,-0.39,1.69,0.35
2022-01-30 16:49:48.1770,0.061,-1.23,-0.622,-0.82,3.49,0.41,-0.8,1.86,0.47
2022-01-30 16:49:48.1860,0.078,-1.249,-0.657,-1.03,4.11,0.47,-1.2,1.68,0.54
2022-01-30 16:49:48.1970,0.074,-1.202,-0.727,-1.04,3.84,1.34,-1.59,1.17,0.5
2022-01-30 16:49:48.2070,0.055,-1.113,-0.806,-1.04,3.84,1.34,-1.96,0.45,0.41
2022-01-30 16:49:48.2160,0.023,-1.037,-0.86,-0.84,3.08,1.95,-2.28,-0.26,0.35
2022-01-30 16:49:48.2270,-0.007,-0.959,-0.86,-0.56,2.51,2.24,-2.28,-0.26,0.35
2022-01-30 16:49:48.2370,-0.029,-0.848,-0.856,-0.35,1.86,2.01,-2.48,-0.82,0.33
2022-01-30 16:49:48.2470,-0.054,-0.707,-0.865,-0.24,0.91,1.83,-2.45,-1.62,0.36
2022-01-30 16:49:48.2570,-0.081,-0.567,-0.843,-0.13,-0.34,1.72,-2.2,-1.81,0.45
2022-01-30 16:49:48.2670,-0.118,-0.46,-0.799,-0.02,-1.53,1.33,-1.82,-1.87,0.63
2022-01-30 16:49:48.2770,-0.167,-0.376,-0.749,0.19,-2.4,0.77,-1.82,-1.87,0.63
2022-01-30 16:49:48.2870,-0.214,-0.305,-0.695,0.49,-3.1,0.21,-0.8,-1.74,1.19
2022-01-30 16:49:48.2970,-0.254,-0.237,-0.637,0.74,-3.72,-0.36,-0.25,-1.6,1.44
2022-01-30 16:49:48.3070,-0.282,-0.186,-0.57,0.97,-4.8,-1.55,0.28,-1.38,1.62
2022-01-30 16:49:48.3170,-0.299,-0.153,-0.498,0.97,-4.8,-1.55,0.71,-1.07,1.69
2022-01-30 16:49:48.3270,-0.312,-0.143,-0.42,0.94,-5.12,-2.19,1.03,-0.63,1.68
2022-01-30 16:49:48.3360,-0.328,-0.149,-0.332,0.91,-5.21,-2.91,1.23,-0.11,1.58
2022-01-30 16:49:48.3470,-0.34,-0.147,-0.266,0.96,-5.21,-3.67,1.34,0.46,1.4
2022-01-30 16:49:48.3570,-0.34,-0.15,-0.202,0.99,-5.29,-4.22,1.36,1.04,1.16
2022-01-30 16:49:48.3670,-0.327,-0.161,-0.166,0.98,-5.31,-5.025649108886719,1.31,1.53,0.85
2022-01-30 16:49:48.3770,-0.299,-0.19,-0.154,0.87,-5.25,-5.03,1.18,1.89,0.52
2022-01-30 16:49:48.3870,-0.262,-0.23,-0.176,0.66,-5.01,-5.08,0.94,2.06,0.19
2022-01-30 16:49:48.3970,-0.237,-0.271,-0.234,0.43,-4.67,-4.79,0.63,2.05,-0.1
2022-01-30 16:49:48.4070,-0.232,-0.316,-0.27,0.34,-4.32,-4.22,0.31,1.97,-0.31
2022-01-30 16:49:48.4170,-0.243,-0.358,-0.287,0.75,-3.5,-3.78,0.02,1.85,-0.46
2022-01-30 16:49:48.4280,-0.257,-0.38,-0.326,0.75,-3.5,-3.78,-0.2,1.63,-0.6
2022-01-30 16:49:48.4370,-0.264,-0.389,-0.417,1.03,-3.31,-3.38,-0.32,1.26,-0.75
2022-01-30 16:49:48.4470,-0.242,-0.422,-0.52,1.08,-2.82,-1.52,-0.34,0.73,-0.92
2022-01-30 16:49:48.4580,-0.212,-0.501,-0.631,0.86,-1.97,-0.42,-0.34,0.09,-1.03
2022-01-30 16:49:48.4680,-0.19,-0.628,-0.762,0.86,-1.97,-0.42,-0.37,-0.61,-1.06
2022-01-30 16:49:48.4770,-0.188,-0.773,-0.899,0.7,0.76,2.19,-0.48,-1.24,-1.02
2022-01-30 16:49:48.4880,-0.205,-0.879,-1.025,0.7,0.76,2.19,-0.58,-1.68,-0.95
2022-01-30 16:49:48.4970,-0.213,-0.948,-1.097,0.82,1.77,3.34,-0.62,-1.88,-0.85
2022-01-30 16:49:48.5070,-0.192,-1.018,-1.138,0.8,2.46,3.97,-0.6,-1.88,-0.72
2022-01-30 16:49:48.5180,-0.163,-1.093,-1.188,0.12,3.97,4.84,-0.61,-1.79,-0.58
2022-01-30 16:49:48.5280,-0.143,-1.155,-1.255,-0.13,4.59,5.49,-0.72,-1.72,-0.42
2022-01-30 16:49:48.5380,-0.15,-1.202,-1.305,-0.13,4.59,5.49,-0.72,-1.72,-0.42
2022-01-30 16:49:48.5480,-0.163,-1.234,-1.307,-0.13,5.09,5.87,-0.87,-1.57,-0.3
2022-01-30 16:49:48.5580,-0.165,-1.276,-1.312,-0.09,5.46,5.83,-1.08,-1.35,-0.24
2022-01-30 16:49:48.5680,-0.153,-1.344,-1.34,-0.15,6.02,5.81,-1.76,-0.91,-0.31
2022-01-30 16:49:48.5780,-0.138,-1.396,-1.38,-0.32,6.81,6.03,-2.15,-0.71,-0.41
2022-01-30 16:49:48.5880,-0.126,-1.391,-1.404,-0.5,7.41,6.28,-2.47,-0.46,-0.54
2022-01-30 16:49:48.5980,-0.129,-1.329,-1.417,-0.6,7.46,6.35,-2.66,-0.16,-0.65
2022-01-30 16:49:48.6080,-0.137,-1.222,-1.413,-0.53,6.99,6.31,-2.68,0.13,-0.71
2022-01-30 16:49:48.6180,-0.141,-1.102,-1.4,-0.4,6.09,6.08,-2.57,0.24,-0.65
2022-01-30 16:49:48.6280,-0.155,-1.014,-1.391,-0.12,4.48,5.55,-2.31,0.14,-0.36
2022-01-30 16:49:48.6380,-0.185,-0.942,-1.308,-0.12,4.48,5.55,-1.89,-0.11,0.13
2022-01-30 16:49:48.6480,-0.222,-0.859,-1.185,0.18,3.93,4.55,-1.39,-0.49,0.7
2022-01-30 16:49:48.6580,-0.25,-0.76,-1.056,0.45,3.21,3.27,-1.39,-0.49,0.7
2022-01-30 16:49:48.6680,-0.282,-0.659,-0.917,0.58,2.34,1.96,-0.49,-1.34,1.65
2022-01-30 16:49:48.6780,-0.329,-0.555,-0.767,0.73,1.42,0.59,-0.19,-1.65,1.9
2022-01-30 16:49:48.6880,-0.374,-0.461,-0.635,0.96,0.45,-0.87,0.01,-1.86,2.0
2022-01-30 16:49:48.6980,-0.411,-0.376,-0.525,1.14,-0.4,-2.08,0.11,-2.01,1.93
2022-01-30 16:49:48.7080,-0.439,-0.299,-0.455,1.25,-1.18,-3.06,0.11,-2.13,1.74
2022-01-30 16:49:48.7180,-0.451,-0.242,-0.4,1.1,-2.37,-4.11,0.07,-2.18,1.46
2022-01-30 16:49:48.7290,-0.446,-0.202,-0.355,1.1,-2.37,-4.11,0.07,-2.18,1.46
2022-01-30 16:49:48.7380,-0.422,-0.194,-0.333,0.81,-2.68,-4.44,-0.16,-2.07,0.82
2022-01-30 16:49:48.7480,-0.394,-0.197,-0.324,0.35,-2.69,-4.57,-0.16,-2.07,0.82
2022-01-30 16:49:48.7580,-0.385,-0.18,-0.311,-0.08,-2.62,-4.6,-0.33,-1.57,0.2
2022-01-30 16:49:48.7690,-0.38,-0.135,-0.307,-0.43,-3.24,-4.65,-0.32,-1.27,-0.13
2022-01-30 16:49:48.7780,-0.366,-0.085,-0.333,-0.43,-3.24,-4.65,-0.27,-1.03,-0.48
2022-01-30 16:49:48.7890,-0.354,-0.051,-0.358,-0.63,-3.71,-4.35,-0.18,-0.85,-0.81
2022-01-30 16:49:48.7980,-0.356,-0.033,-0.4,-0.73,-4.23,-3.6,-0.09,-0.8,-1.12
2022-01-30 16:49:48.8090,-0.369,-0.029,-0.464,-0.73,-4.23,-3.6,-0.09,-0.8,-1.12
2022-01-30 16:49:48.8190,-0.362,-0.043,-0.516,-0.72,-4.24,-2.38,0.11,-1.01,-1.8
2022-01-30 16:49:48.8280,-0.326,-0.071,-0.588,-0.72,-4.24,-2.38,0.11,-1.01,-1.8
2022-01-30 16:49:48.8390,-0.283,-0.123,-0.66,-1.08,-4.05,-1.58,0.12,-1.48,-2.55
2022-01-30 16:49:48.8490,-0.245,-0.194,-0.691,-1.83,-3.04,-0.52,0.02,-1.56,-2.81
2022-01-30 16:49:48.8590,-0.21,-0.264,-0.714,-1.83,-3.04,-0.52,0.02,-1.56,-2.81
2022-01-30 16:49:48.8690,-0.192,-0.338,-0.743,-2.13,-2.47,-0.23,-0.4,-1.29,-2.91
2022-01-30 16:49:48.8790,-0.19,-0.418,-0.797,-2.22,-1.82,0.1,-0.67,-1.1,-2.73
2022-01-30 16:49:48.8890,-0.197,-0.491,-0.91,-2.16,-1.1,0.7,-0.9,-1.1,-2.47
2022-01-30 16:49:48.8990,-0.205,-0.573,-1.016,-2.03,-0.41,1.86,-0.96,-1.11,-2.14
2022-01-30 16:49:48.9090,-0.188,-0.685,-1.033,-1.94,0.4,2.8,-0.82,-1.06,-1.73
2022-01-30 16:49:48.9190,-0.159,-0.833,-1.063,-2.12,1.54,2.9,-0.6,-1.07,-1.26
2022-01-30 16:49:48.9290,-0.137,-0.954,-1.125,-2.41,3.0,3.28,-0.41,-1.13,-0.78
2022-01-30 16:49:48.9390,-0.134,-1.031,-1.088,-2.65,4.13,3.85,-0.27,-1.08,-0.32
2022-01-30 16:49:48.9490,-0.147,-1.064,-1.011,-2.72,4.84,3.38,-0.3,-1.03,-0.0
2022-01-30 16:49:48.9590,-0.165,-1.052,-1.027,-2.56,5.02,3.0,-0.3,-1.14,0.1
2022-01-30 16:49:48.9690,-0.186,-1.021,-1.074,-2.56,5.02,3.0,-1.12,-1.26,0.02
2022-01-30 16:49:48.9790,-0.224,-1.003,-1.031,-2.43,4.81,3.39,-1.6,-1.15,-0.11
2022-01-30 16:49:48.9890,-0.272,-0.931,-0.933,-2.11,4.72,2.81,-1.96,-0.8,-0.27
2022-01-30 16:49:48.9990,-0.298,-0.782,-0.848,-1.48,2.68,0.88,-2.13,-0.32,-0.44
2022-01-30 16:49:49.0100,-0.287,-0.643,-0.78,-1.6,1.5,0.14,-2.1,0.18,-0.58
2022-01-30 16:49:49.0190,-0.241,-0.556,-0.737,-1.6,1.5,0.14,-1.91,0.62,-0.65
2022-01-30 16:49:49.0290,-0.178,-0.506,-0.701,-2.53,0.45,-0.84,-1.58,0.95,-0.67
2022-01-30 16:49:49.0390,-0.105,-0.471,-0.677,-2.53,0.45,-0.84,-1.17,1.13,-0.67
2022-01-30 16:49:49.0500,-0.035,-0.448,-0.662,-3.14,0.19,-1.15,-1.17,1.13,-0.67
2022-01-30 16:49:49.0600,0.021,-0.435,-0.625,-4.1,-0.12,-1.84,-0.22,1.15,-0.62
2022-01-30 16:49:49.0690,0.062,-0.423,-0.565,-4.1,-0.12,-1.84,0.26,1.13,-0.56
2022-01-30 16:49:49.0790,0.073,-0.404,-0.485,-4.36,-0.28,-2.48,0.71,1.17,-0.47
2022-01-30 16:49:49.0890,0.063,-0.377,-0.396,-4.32,-0.56,-3.3,1.06,1.27,-0.37
2022-01-30 16:49:49.0990,0.037,-0.348,-0.326,-4.09,-0.92,-4.17,1.31,1.39,-0.26
2022-01-30 16:49:49.1090,0.001,-0.315,-0.288,-3.69,-1.32,-4.81,1.46,1.47,-0.17
2022-01-30 16:49:49.1200,-0.042,-0.289,-0.276,-3.2,-1.76,-5.12,1.55,1.49,-0.11
2022-01-30 16:49:49.1300,-0.077,-0.285,-0.274,-2.22,-2.27,-5.15,1.6,1.42,-0.1
2022-01-30 16:49:49.1400,-0.095,-0.295,-0.3,-1.95,-2.28,-4.81,1.63,1.23,-0.13
2022-01-30 16:49:49.1490,-0.107,-0.318,-0.35,-1.75,-2.17,-4.25,1.63,0.96,-0.22
2022-01-30 16:49:49.1590,-0.118,-0.365,-0.406,-1.56,-1.8,-3.64,1.62,0.71,-0.34
2022-01-30 16:49:49.1700,-0.134,-0.445,-0.443,-1.56,-1.8,-3.64,1.61,0.57,-0.45
2022-01-30 16:49:49.1790,-0.139,-0.552,-0.464,-1.23,-0.16,-2.94,1.57,0.57,-0.57
2022-01-30 16:49:49.1900,-0.137,-0.683,-0.534,-1.23,-0.16,-2.94,1.4,0.61,-0.74
2022-01-30 16:49:49.2010,-0.146,-0.803,-0.658,-1.16,1.01,-2.1,1.08,0.64,-0.94
2022-01-30 16:49:49.2100,-0.193,-0.876,-0.798,-0.94,2.04,-0.82,1.08,0.57,-1.1
2022-01-30 16:49:49.2200,-0.267,-0.904,-0.954,-0.32,2.62,0.63,0.38,0.51,-1.16
2022-01-30 16:49:49.2300,-0.32,-0.909,-1.01,0.51,2.79,2.11,0.33,0.64,-1.08
2022-01-30 16:49:49.2400,-0.335,-0.94,-1.022,1.1,2.81,2.53,0.49,0.84,-0.84
2022-01-30 16:49:49.2500,-0.328,-0.989,-1.11,1.33,3.1,2.72,0.69,0.94,-0.56
2022-01-30 16:49:49.2600,-0.314,-1.027,-1.22,1.34,3.52,3.69,0.81,1.0,-0.32
2022-01-30 16:49:49.2700,-0.313,-1.058,-1.257,1.31,3.81,4.74,0.84,1.17,-0.17
2022-01-30 16:49:49.2800,-0.321,-1.088,-1.245,1.41,4.04,5.04,0.71,1.4,-0.09
2022-01-30 16:49:49.2900,-0.325,-1.14,-1.241,1.61,4.3,4.94,0.71,1.4,-0.09
2022-01-30 16:49:49.3000,-0.314,-1.208,-1.234,1.74,4.82,4.9,0.05,1.86,0.06
2022-01-30 16:49:49.3100,-0.294,-1.245,-1.225,1.75,5.47,4.82,-0.31,1.98,0.16
2022-01-30 16:49:49.3210,-0.276,-1.227,-1.215,1.69,5.79,4.68,-0.59,1.96,0.29
2022-01-30 16:49:49.3300,-0.278,-1.174,-1.206,1.65,5.61,4.52,-0.75,1.79,0.46
2022-01-30 16:49:49.3410,-0.293,-1.117,-1.185,1.79,5.12,4.36,-0.8,1.5,0.68
2022-01-30 16:49:49.3500,-0.311,-1.065,-1.145,2.02,4.65,4.07,-0.77,1.13,0.93
2022-01-30 16:49:49.3600,-0.316,-1.003,-1.084,2.24,3.65,2.92,-0.71,0.74,1.14
2022-01-30 16:49:49.3710,-0.295,-0.951,-1.004,2.24,3.65,2.92,-0.66,0.4,1.25
2022-01-30 16:49:49.3800,-0.261,-0.912,-0.918,1.95,3.22,2.08,-0.63,0.14,1.27
2022-01-30 16:49:49.3910,-0.228,-0.867,-0.822,1.55,2.91,1.18,-0.63,0.14,1.27
2022-01-30 16:49:49.4010,-0.204,-0.805,-0.724,0.87,1.94,-0.81,-0.66,-0.06,1.1
2022-01-30 16:49:49.4110,-0.193,-0.732,-0.634,0.87,1.94,-0.81,-0.71,-0.04,0.99
2022-01-30 16:49:49.4210,-0.184,-0.659,-0.553,0.7,1.3,-1.72,-0.77,0.07,0.9
2022-01-30 16:49:49.4310,-0.175,-0.574,-0.472,0.57,0.65,-2.56,-0.82,0.22,0.84
2022-01-30 16:49:49.4410,-0.168,-0.489,-0.412,0.46,-0.12,-3.39,-0.88,0.37,0.78
2022-01-30 16:49:49.4510,-0.15,-0.415,-0.371,0.37,-0.87,-4.01,-0.95,0.53,0.72
2022-01-30 16:49:49.4600,-0.122,-0.35,-0.347,0.17,-1.5,-4.44,-1.05,0.72,0.63
2022-01-30 16:49:49.4710,-0.095,-0.3,-0.325,-0.08,-2.02,-4.74,-1.17,0.95,0.54
2022-01-30 16:49:49.4810,-0.072,-0.264,-0.312,-0.29,-2.39,-5.03,-1.28,1.21,0.45
2022-01-30 16:49:49.4910,-0.054,-0.234,-0.319,-0.43,-2.62,-5.21,-1.35,1.46,0.41
2022-01-30 16:49:49.5010,-0.046,-0.204,-0.341,-0.5,-2.79,-5.21,-1.34,1.62,0.41
2022-01-30 16:49:49.5110,-0.033,-0.179,-0.371,-0.45,-2.97,-5.06,-1.23,1.67,0.46
2022-01-30 16:49:49.5210,-0.015,-0.177,-0.401,-0.55,-3.0,-4.61,-0.99,1.61,0.56
2022-01-30 16:49:49.5310,0.005,-0.179,-0.427,-0.64,-2.93,-4.39,-0.67,1.44,0.69
2022-01-30 16:49:49.5410,0.017,-0.161,-0.453,-0.69,-3.09,-4.16,-0.34,1.16,0.79
2022-01-30 16:49:49.5510,0.028,-0.132,-0.483,-0.7663135716319085,-3.3424000293016434,-3.8705018359422687,-0.08,0.83,0.85
2022-01-30 16:49:49.5620,0.039,-0.139,-0.495,-0.77,-3.35,-3.88,-0.08,0.83,0.85
2022-01-30 16:49:49.5710,0.044,-0.191,-0.499,-0.86,-3.22,-3.79,0.27,0.36,0.96
2022-01-30 16:49:49.5810,0.06,-0.254,-0.52,-0.92,-2.7,-3.72,0.39,0.21,1.0
2022-01-30 16:49:49.5910,0.091,-0.3,-0.549,-1.14,-2.12,-3.48,0.48,0.14,1.03
2022-01-30 16:49:49.6020,0.125,-0.333,-0.584,-1.49,-1.72,-3.17,0.53,0.14,1.05
2022-01-30 16:49:49.6120,0.154,-0.378,-0.632,-1.86,-1.43,-2.8,0.57,0.23,1.08
2022-01-30 16:49:49.6220,0.178,-0.442,-0.674,-2.16,-1.0,-2.28,0.57,0.23,1.08
2022-01-30 16:49:49.6310,0.19,-0.495,-0.72,-2.4,-0.42,-1.87,0.6,0.71,1.13
2022-01-30 16:49:49.6420,0.186,-0.523,-0.799,-2.49,0.04,-1.35,0.56,0.98,1.11
2022-01-30 16:49:49.6520,0.174,-0.534,-0.891,-2.23,0.3,0.42,0.45,1.2,1.06
2022-01-30 16:49:49.6620,0.147,-0.547,-1.017,-2.23,0.3,0.42,0.27,1.35,1.04
2022-01-30 16:49:49.6710,0.121,-0.586,-1.147,-1.5943978603184223,0.8633799827098847,2.95,0.11,1.43,1.11
2022-01-30 16:49:49.6820,0.125,-0.658,-1.269,-1.6,0.86,2.95,0.02,1.48,1.27
2022-01-30 16:49:49.6920,0.152,-0.745,-1.374,-1.61,1.6,4.11,0.04,1.41,1.47
2022-01-30 16:49:49.7020,0.187,-0.794,-1.482,-2.16,2.84,6.18,0.13,1.18,1.63
2022-01-30 16:49:49.7120,0.188,-0.757,-1.536,-2.11,2.35,6.62,0.2,0.92,1.69
2022-01-30 16:49:49.7220,0.125,-0.647,-1.516,-2.11,2.35,6.62,0.18,0.72,1.65
2022-01-30 16:49:49.7320,0.026,-0.514,-1.469,-1.43,1.21,6.35,0.18,0.72,1.65
2022-01-30 16:49:49.7420,-0.057,-0.376,-1.441,-0.49,-0.1,5.91,-0.56,0.39,1.26
2022-01-30 16:49:49.7520,-0.104,-0.303,-1.433,0.65,-1.85,5.5,-0.56,0.39,1.26
2022-01-30 16:49:49.7610,-0.121,-0.308,-1.41,0.77,-1.59,5.12,-1.9,0.23,0.76
2022-01-30 16:49:49.7720,-0.118,-0.31,-1.348,0.77,-1.59,5.12,-2.33,0.32,0.66
2022-01-30 16:49:49.7820,-0.104,-0.27,-1.305,0.71,-1.41,4.41,-2.42,0.43,0.69
2022-01-30 16:49:49.7930,-0.097,-0.207,-1.252,0.56,-2.06,3.26,-2.16,0.52,0.87
2022-01-30 16:49:49.8020,-0.117,-0.15,-1.184,0.56,-2.06,3.26,-1.63,0.56,1.21
2022-01-30 16:49:49.8120,-0.148,-0.096,-1.087,1.07,-2.89,1.46,-0.97,0.54,1.64
2022-01-30 16:49:49.8220,-0.184,-0.049,-0.954,1.39,-3.29,0.12,-0.29,0.46,2.09
2022-01-30 16:49:49.8320,-0.214,-0.021,-0.828,1.39,-3.29,0.12,0.3,0.25,2.46
2022-01-30 16:49:49.8430,-0.223,-0.002,-0.734,1.6,-3.56,-1.07,0.75,-0.07,2.68
2022-01-30 16:49:49.8520,-0.213,-0.007,-0.642,1.55,-3.79,-1.94,0.75,-0.07,2.68
2022-01-30 16:49:49.8620,-0.196,-0.039,-0.534,1.29,-3.77,-2.82,1.36,-0.68,2.67
2022-01-30 16:49:49.8720,-0.178,-0.072,-0.448,0.6,-3.33,-4.54,1.52,-0.95,2.51
2022-01-30 16:49:49.8830,-0.162,-0.101,-0.393,0.6,-3.33,-4.54,1.52,-0.95,2.51
2022-01-30 16:49:49.8920,-0.157,-0.136,-0.333,0.02,-2.92,-5.5,1.58,-1.28,2.14
2022-01-30 16:49:49.9030,-0.169,-0.156,-0.285,0.02,-2.92,-5.5,1.49,-1.26,1.98
2022-01-30 16:49:49.9130,-0.198,-0.154,-0.25,-0.03,-2.85,-5.87,1.35,-1.11,1.83
2022-01-30 16:49:49.9220,-0.24,-0.136,-0.24,0.09,-2.98,-6.11,1.17,-0.88,1.65
2022-01-30 16:49:49.9320,-0.282,-0.128,-0.259,0.36,-3.22,-6.1,0.98,-0.62,1.42
2022-01-30 16:49:49.9430,-0.315,-0.144,-0.302,0.87,-3.18,-5.33,0.81,-0.38,1.13
2022-01-30 16:49:49.9530,-0.331,-0.193,-0.366,0.87,-3.18,-4.647171118855477,0.67,-0.21,0.79
2022-01-30 16:49:49.9630,-0.33,-0.27,-0.439,0.95,-2.69,-4.65,0.58,-0.1,0.44
2022-01-30 16:49:49.9730,-0.31,-0.364,-0.517,0.89,-1.95,-3.9,0.58,-0.1,0.44
2022-01-30 16:49:49.9830,-0.292,-0.453,-0.604,0.67,-1.05,-3.1,0.43,0.1,-0.08
2022-01-30 16:49:49.9930,-0.307,-0.524,-0.709,0.73,0.41,-1.14,0.35,0.16,-0.19
2022-01-30 16:49:50.0030,-0.334,-0.577,-0.839,0.73,0.41,-1.14,0.29,0.12,-0.26
2022-01-30 16:49:50.0130,-0.366,-0.617,-0.978,1.03,0.88,1.5519212007522585,0.26,-0.02,-0.33
2022-01-30 16:49:50.0230,-0.391,-0.668,-1.113,1.36,1.24,1.55,0.26,-0.21,-0.4
2022-01-30 16:49:50.0330,-0.406,-0.74,-1.232,1.6,1.74,2.87,0.29,-0.38,-0.41
2022-01-30 16:49:50.0430,-0.41,-0.828,-1.333,1.72,2.44,4.04,0.29,-0.51,-0.34
2022-01-30 16:49:50.0530,-0.411,-0.913,-1.44,1.71,3.29,5.04,0.23,-0.64,-0.2
2022-01-30 16:49:50.0630,-0.436,-0.96,-1.533,1.93,4.46,7.02,0.1,-0.71,-0.07
2022-01-30 16:49:50.0740,-0.48,-0.962,-1.591,2.3,4.45,7.56,-0.11,-0.73,-0.04
2022-01-30 16:49:50.0840,-0.517,-0.943,-1.637,2.3,4.45,7.56,-0.39,-0.76,-0.14
2022-01-30 16:49:50.0930,-0.541,-0.928,-1.678,2.59,4.29,8.02,-0.39,-0.76,-0.14
2022-01-30 16:49:50.1030,-0.552,-0.913,-1.694,2.77,4.2,8.37,-1.13,-0.68,-0.53
2022-01-30 16:49:50.1130,-0.544,-0.894,-1.681,2.83,4.13,8.45,-1.42,-0.48,-0.73
2022-01-30 16:49:50.1230,-0.52,-0.854,-1.646,2.73,4.02,8.24,-1.59,-0.16,-0.88
2022-01-30 16:49:50.1330,-0.485,-0.8,-1.591,2.5,3.71,7.81,-1.62,0.25,-0.99
2022-01-30 16:49:50.1430,-0.45,-0.731,-1.509,1.98,2.7,6.23,-1.56,0.7,-1.03
2022-01-30 16:49:50.1540,-0.41,-0.663,-1.41,1.98,2.7,6.23,-1.42,1.11,-1.0
2022-01-30 16:49:50.1630,-0.362,-0.606,-1.303,1.71,2.15,5.16,-1.29,1.37,-0.93
2022-01-30 16:49:50.1730,-0.312,-0.559,-1.198,1.06,1.32,2.92,-1.19,1.43,-0.85
2022-01-30 16:49:50.1830,-0.275,-0.51,-1.088,1.06,1.32,2.92,-1.1,1.34,-0.76
2022-01-30 16:49:50.1930,-0.251,-0.456,-0.962,0.87,0.92,1.75,-1.02,1.12,-0.69
2022-01-30 16:49:50.2040,-0.233,-0.398,-0.837,0.77,0.46,0.44,-1.02,1.12,-0.69
2022-01-30 16:49:50.2140,-0.214,-0.342,-0.724,0.69,-0.03,-0.82,-0.81,0.47,-0.66
2022-01-30 16:49:50.2240,-0.192,-0.303,-0.621,0.57,-0.51,-1.95,-0.69,0.11,-0.68
2022-01-30 16:49:50.2340,-0.169,-0.274,-0.531,0.38,-0.82,-2.97,-0.55,-0.23,-0.71
2022-01-30 16:49:50.2440,-0.147,-0.243,-0.455,-0.07,-1.33,-4.6,-0.42,-0.54,-0.77
2022-01-30 16:49:50.2540,-0.122,-0.213,-0.392,-0.07,-1.33,-4.6,-0.28,-0.8,-0.85
2022-01-30 16:49:50.2630,-0.102,-0.189,-0.333,-0.35,-1.61,-5.2,-0.14,-1.0,-0.91
2022-01-30 16:49:50.2740,-0.086,-0.169,-0.287,-0.6,-1.84,-5.77,0.0,-1.14,-0.96
2022-01-30 16:49:50.2840,-0.07,-0.152,-0.257,-1.06,-2.23,-6.42,0.11,-1.25,-0.99
2022-01-30 16:49:50.2940,-0.052,-0.144,-0.247,-1.06,-2.23,-6.42,0.11,-1.25,-0.99
2022-01-30 16:49:50.3040,-0.036,-0.142,-0.258,-1.31,-2.33,-6.47,0.18,-1.38,-1.01
2022-01-30 16:49:50.3140,-0.031,-0.142,-0.282,-1.55,-2.38,-6.31,0.16,-1.4,-0.97
2022-01-30 16:49:50.3240,-0.043,-0.156,-0.329,-1.63,-2.27,-5.48,0.14,-1.43,-0.89
2022-01-30 16:49:50.3340,-0.07,-0.181,-0.422,-1.63,-2.27,-5.48,0.2,-1.53,-0.79
2022-01-30 16:49:50.3440,-0.112,-0.19,-0.546,-1.15,-2.07,-3.19,0.37,-1.71,-0.72
2022-01-30 16:49:50.3540,-0.157,-0.165,-0.68,-1.15,-2.07,-3.19,0.61,-1.93,-0.72
2022-01-30 16:49:50.3640,-0.198,-0.136,-0.804,-0.6,-2.77,-0.54,0.89,-2.03,-0.78
2022-01-30 16:49:50.3740,-0.213,-0.128,-0.889,-0.6,-2.77,-0.54,1.12,-1.9,-0.9
2022-01-30 16:49:50.3840,-0.198,-0.166,-0.95,-0.61,-2.91,0.35,1.22,-1.48,-1.04
2022-01-30 16:49:50.3940,-0.164,-0.257,-0.98,-0.87,-2.61,1.0,1.17,-0.8,-1.16
2022-01-30 16:49:50.4040,-0.133,-0.388,-1.014,-1.23,-1.79,1.35,0.95,0.03,-1.27
2022-01-30 16:49:50.4140,-0.12,-0.523,-1.081,-1.46,-0.58,1.75,0.95,0.03,-1.27
2022-01-30 16:49:50.4240,-0.127,-0.63,-1.168,-1.15,1.6,3.27,0.21,1.52,-1.44
2022-01-30 16:49:50.4350,-0.143,-0.712,-1.211,-1.15,1.6,3.27,-0.06,2.07,-1.49
2022-01-30 16:49:50.4450,-0.142,-0.772,-1.215,-0.75,2.34,3.56,-0.17,2.4,-1.53
2022-01-30 16:49:50.4540,-0.113,-0.809,-1.241,-0.53,2.89,3.55,-0.2,2.37,-1.6
2022-01-30 16:49:50.4640,-0.074,-0.824,-1.262,-0.56,3.22,3.79,-0.23,1.99,-1.68
2022-01-30 16:49:50.4750,-0.049,-0.819,-1.245,-0.69,3.33,3.89,-0.36,1.31,-1.75
2022-01-30 16:49:50.4850,-0.045,-0.801,-1.234,-0.72,3.27,3.68,-0.64,0.41,-1.77
2022-01-30 16:49:50.4940,-0.058,-0.793,-1.221,-0.62,3.13,3.56,-1.02,-0.5,-1.7
2022-01-30 16:49:50.5040,-0.081,-0.791,-1.157,-0.22779436558485033,3.19,2.61,-1.31,-1.22,-1.59
2022-01-30 16:49:50.5150,-0.103,-0.723,-1.092,-0.10900452509522439,2.53,1.97,-1.4,-1.78,-1.53
2022-01-30 16:49:50.5240,-0.122,-0.597,-1.044,-0.11,2.53,1.97,-1.29,-2.14,-1.54
2022-01-30 16:49:50.5350,-0.133,-0.465,-0.956,-0.04,1.35,1.44,-1.0,-2.23,-1.58
2022-01-30 16:49:50.5440,-0.128,-0.36,-0.853,-0.26,-0.81,-0.48,-0.63,-2.07,-1.62
2022-01-30 16:49:50.5550,-0.113,-0.293,-0.75,-0.5,-1.43,-1.49,-0.2,-1.73,-1.58
2022-01-30 16:49:50.5650,-0.094,-0.263,-0.643,-0.5,-1.43,-1.49,0.23,-1.29,-1.46
2022-01-30 16:49:50.5750,-0.072,-0.255,-0.551,-0.74,-1.72,-2.5,0.63,-0.83,-1.27
2022-01-30 16:49:50.5850,-0.052,-0.25,-0.477,-0.97,-1.86,-3.33,0.96,-0.36,-1.05
2022-01-30 16:49:50.5950,-0.045,-0.247,-0.375,-1.14,-2.01,-4.02,1.26,0.18,-0.82
2022-01-30 16:49:50.6050,-0.047,-0.242,-0.273,-1.15,-2.15,-5.0,1.5,0.69,-0.59
2022-01-30 16:49:50.6150,-0.051,-0.231,-0.201,-1.04,-2.35,-5.9,1.66,1.09,-0.41
2022-01-30 16:49:50.6250,-0.048,-0.232,-0.166,-0.89,-2.6,-6.52,1.66,1.09,-0.41
2022-01-30 16:49:50.6350,-0.045,-0.258,-0.164,-0.79,-2.72,-6.73,1.82,1.37,-0.18
2022-01-30 16:49:50.6450,-0.037,-0.307,-0.179,-0.71,-2.57,-6.66,1.84,1.22,-0.09
2022-01-30 16:49:50.6550,-0.025,-0.345,-0.235,-0.73,-2.04,-5.7,1.81,0.82,-0.08
2022-01-30 16:49:50.6660,-0.016,-0.374,-0.318,-0.73,-2.04,-5.7,1.81,0.82,-0.08
2022-01-30 16:49:50.6750,-0.016,-0.408,-0.369,-0.78,-1.7,-4.25,1.74,-0.28,-0.2
2022-01-30 16:49:50.6860,-0.03,-0.436,-0.399,-0.78,-1.7,-4.25,1.73,-0.76,-0.33
2022-01-30 16:49:50.6950,-0.056,-0.462,-0.432,-0.47,-1.44,-3.42,1.69,-1.08,-0.47
2022-01-30 16:49:50.7060,-0.078,-0.499,-0.464,-0.47,-1.44,-3.42,1.61,-1.28,-0.62
2022-01-30 16:49:50.7150,-0.097,-0.559,-0.538,-0.32,-1.19,-2.97,1.43,-1.43,-0.73
2022-01-30 16:49:50.7250,-0.107,-0.645,-0.669,-0.2,-0.68,-2.06,1.43,-1.43,-0.73
2022-01-30 16:49:50.7350,-0.125,-0.742,-0.801,-0.17,0.09,-0.65,1.2,-1.54,-0.78
2022-01-30 16:49:50.7450,-0.156,-0.851,-0.907,-0.04,0.97,0.7,0.92,-1.11,-0.54
2022-01-30 16:49:50.7550,-0.193,-0.983,-0.997,0.24,1.99,1.79,0.92,-1.11,-0.54
2022-01-30 16:49:50.7650,-0.209,-1.117,-1.092,0.73,4.47,3.75,0.87,0.21,-0.12
2022-01-30 16:49:50.7760,-0.229,-1.23,-1.221,0.73,4.47,3.75,0.75,0.79,-0.05
2022-01-30 16:49:50.7860,-0.275,-1.312,-1.317,1.01,5.5,5.06,0.59,1.22,-0.13
2022-01-30 16:49:50.7950,-0.315,-1.351,-1.365,1.57,6.21,5.95,0.41,1.42,-0.36
2022-01-30 16:49:50.8060,-0.326,-1.377,-1.419,2.26,6.77,6.95,0.16,1.32,-0.62
2022-01-30 16:49:50.8160,-0.307,-1.414,-1.465,2.18,7.13,7.35,-0.16,0.97,-0.84
2022-01-30 16:49:50.8260,-0.276,-1.429,-1.491,1.97,7.25,7.55,-0.56,0.52,-0.98
2022-01-30 16:49:50.8360,-0.26,-1.387,-1.485,1.97,7.25,7.55,-0.96,0.18,-1.0
2022-01-30 16:49:50.8450,-0.269,-1.334,-1.432,1.94,6.84,7.36,-1.26,0.04,-0.87
2022-01-30 16:49:50.8560,-0.287,-1.294,-1.375,2.33,6.14,6.07,-1.41,0.11,-0.59
2022-01-30 16:49:50.8660,-0.302,-1.244,-1.314,2.33,6.14,6.07,-1.38,0.31,-0.21
2022-01-30 16:49:50.8760,-0.301,-1.187,-1.262,2.49,5.27,4.81,-1.17,0.5,0.18
2022-01-30 16:49:50.8860,-0.278,-1.119,-1.21,2.49,5.27,4.81,-1.17,0.5,0.18
2022-01-30 16:49:50.8960,-0.229,-1.048,-1.135,2.24,4.65,4.22,-0.55,0.56,0.62
2022-01-30 16:49:50.9060,-0.163,-0.974,-1.05,1.74,4.01,3.42,-0.55,0.56,0.62
2022-01-30 16:49:50.9160,-0.099,-0.91,-0.956,0.44,2.73,1.59,-0.31,0.2,0.53
2022-01-30 16:49:50.9260,-0.046,-0.853,-0.845,0.44,2.73,1.59,-0.36,0.03,0.38
2022-01-30 16:49:50.9360,-0.01,-0.773,-0.745,-0.08,2.19,0.48,-0.48,-0.11,0.21
2022-01-30 16:49:50.9460,0.009,-0.681,-0.656,-0.43,1.41,-0.51,-0.61,-0.17,0.08
2022-01-30 16:49:50.9560,0.017,-0.609,-0.572,-0.62,-0.05700392067432404,-2.2599622982740404,-0.73,-0.15,0.04
2022-01-30 16:49:50.9670,0.008,-0.539,-0.514,-0.59,-0.68,-2.85,-0.8,-0.08,0.06
2022-01-30 16:49:50.9760,-0.012,-0.467,-0.471,-0.4,-1.33,-3.31,-0.8,-0.08,0.06
2022-01-30 16:49:50.9860,-0.03,-0.395,-0.435,-0.24,-1.98,-3.69,-0.7,0.12,0.19
2022-01-30 16:49:50.9960,-0.045,-0.323,-0.412,-0.09,-2.64,-3.94,-0.54,0.2,0.24
2022-01-30 16:49:51.0070,-0.057,-0.258,-0.389,-0.09,-2.64,-3.94,-0.54,0.2,0.24
2022-01-30 16:49:51.0170,-0.064,-0.208,-0.359,0.09,-3.69,-4.51,-0.08,0.26,0.3
2022-01-30 16:49:51.0270,-0.065,-0.178,-0.323,0.09,-3.69,-4.51,0.18,0.27,0.31
2022-01-30 16:49:51.0360,-0.058,-0.167,-0.28,0.09,-3.97,-4.86,0.43,0.28,0.33
2022-01-30 16:49:51.0470,-0.046,-0.168,-0.241,0.02,-4.09,-5.26,0.43,0.28,0.33
2022-01-30 16:49:51.0560,-0.033,-0.168,-0.206,-0.22301543623209,-4.2,-5.89,0.85,0.26,0.36
2022-01-30 16:49:51.0670,-0.021,-0.16,-0.168,-0.23,-4.2,-5.89,1.0,0.27,0.36
2022-01-30 16:49:51.0760,-0.015,-0.148,-0.127,-0.33,-4.35,-6.22,1.0,0.27,0.36
2022-01-30 16:49:51.0970,-0.01,-0.134,-0.087,-0.44,-4.79,-6.87,1.23,0.36,0.4
2022-01-30 16:49:51.0980,-0.001,-0.125,-0.057,-0.44,-4.79,-6.87,1.29,0.43,0.42
2022-01-30 16:49:51.1070,0.009,-0.126,-0.036,-0.53,-4.97,-7.08,1.31,0.5,0.45
2022-01-30 16:49:51.1150,0.022,-0.133,-0.023,-0.61,-5.04,-7.19,1.28,0.57,0.48
2022-01-30 16:49:51.1250,0.028,-0.15,-0.021,-0.73,-5.06,-7.24,1.22,0.6,0.51
2022-01-30 16:49:51.1350,0.031,-0.175,-0.044,-0.77,-4.97,-7.15,1.09,0.56,0.52
2022-01-30 16:49:51.1450,0.035,-0.207,-0.074,-0.8,-4.78,-6.84,0.95,0.51,0.5
2022-01-30 16:49:51.1550,0.04,-0.252,-0.109,-0.83,-4.53,-6.48,0.78,0.45,0.47
2022-01-30 16:49:51.1650,0.055,-0.333,-0.152,-0.88,-4.11,-6.08,0.61,0.46,0.46
2022-01-30 16:49:51.1750,0.087,-0.479,-0.199,-1.04,-3.29,-5.62,0.47,0.54,0.5
2022-01-30 16:49:51.1850,0.13,-0.682,-0.277,-1.37,-1.81,-5.11,0.34,0.67,0.61
2022-01-30 16:49:51.1950,0.195,-0.921,-0.413,-1.81,0.22,-4.28,0.22,0.79,0.7
2022-01-30 16:49:51.2050,0.275,-1.165,-0.599,-2.47,2.58,-2.83,0.13,0.88,0.78
2022-01-30 16:49:51.2150,0.315,-1.356,-0.818,-3.22,4.95,-0.99,0.12,0.73,0.77
2022-01-30 16:49:51.2260,0.297,-1.421,-1.101,-3.54,6.68,1.26,0.22,0.35,0.62
2022-01-30 16:49:51.2350,0.264,-1.431,-1.305,-3.34,7.17,4.03,0.42,0.04,0.42
2022-01-30 16:49:51.2450,0.224,-1.485,-1.398,-3.04,7.27,5.92,0.63,-0.02,0.3
2022-01-30 16:49:51.2550,0.197,-1.522,-1.42,-2.66,7.8,6.75,0.79,0.18,0.22
2022-01-30 16:49:51.2650,0.212,-1.489,-1.391,-2.44,8.02,6.96,0.81,0.56,0.17
2022-01-30 16:49:51.2750,0.251,-1.441,-1.325,-2.61,7.58,6.68,0.64,1.08,0.19
2022-01-30 16:49:51.2860,0.299,-1.425,-1.219,-2.94,7.1,6.01,0.29,1.62,0.33
2022-01-30 16:49:51.2950,0.342,-1.42,-1.138,-3.33,6.96,4.97,-0.25,2.06,0.56
2022-01-30 16:49:51.3060,0.373,-1.42,-1.093,-3.65,6.94,4.21,-0.88,2.36,0.86
2022-01-30 16:49:51.3150,0.372,-1.416,-1.069,-3.81,7.0,3.73,-1.49,2.51,1.17
2022-01-30 16:49:51.3260,0.358,-1.371,-1.063,-3.69,7.04,3.42,-1.97,2.5,1.42
2022-01-30 16:49:51.3360,0.33,-1.301,-1.086,-3.45,6.68,3.24,-2.24,2.31,1.65
2022-01-30 16:49:51.3460,0.285,-1.221,-1.112,-3.09,6.15,3.36,-2.23,1.97,1.86
2022-01-30 16:49:51.3560,0.226,-1.097,-1.116,-2.61,5.49,3.45,-1.98,1.53,2.04
2022-01-30 16:49:51.3660,0.161,-0.94,-1.075,-2.02,4.37,3.33,-1.56,1.08,2.15
2022-01-30 16:49:51.3760,0.109,-0.765,-0.997,-1.45,2.92,2.76,-1.56,1.08,2.15
2022-01-30 16:49:51.3860,0.062,-0.589,-0.903,-1.04,1.27,1.91,-0.61,0.25,2.17
2022-01-30 16:49:51.3960,0.012,-0.419,-0.785,-0.68,-0.4,0.92,-0.19,-0.03,2.11
2022-01-30 16:49:51.4060,-0.031,-0.26,-0.658,-0.32,-2.03,-0.27,0.14,-0.21,2.03
2022-01-30 16:49:51.4160,-0.07,-0.129,-0.559,-0.04,-3.58,-1.5,0.39,-0.33,1.94
2022-01-30 16:49:51.4260,-0.099,-0.039,-0.486,0.19,-4.83,-2.4,0.58,-0.36,1.83
2022-01-30 16:49:51.4360,-0.108,0.024,-0.406,0.31,-5.7,-3.07,0.72,-0.29,1.68
2022-01-30 16:49:51.4460,-0.109,0.07,-0.355,0.27,-6.34,-3.8,0.72,-0.29,1.68
2022-01-30 16:49:51.4560,-0.105,0.099,-0.31,0.16,-6.82,-4.22,0.94,0.01,1.31
2022-01-30 16:49:51.4660,-0.103,0.119,-0.269,0.05,-7.14,-4.61,1.03,0.21,1.11
2022-01-30 16:49:51.4760,-0.099,0.14,-0.233,-0.04,-7.41,-4.94,1.08,0.42,0.91
2022-01-30 16:49:51.4860,-0.102,0.155,-0.193,-0.09,-7.68,-5.23,1.1,0.65,0.72
2022-01-30 16:49:51.4960,-0.107,0.155,-0.148,-0.05,-7.88,-5.57,1.09,0.91,0.57
2022-01-30 16:49:51.5060,-0.11,0.146,-0.111,0.03,-7.94,-5.95,1.03,1.11,0.42
2022-01-30 16:49:51.5160,-0.102,0.141,-0.103,0.1,-7.93,-6.23,0.92,1.24,0.26
2022-01-30 16:49:51.5260,-0.083,0.119,-0.119,0.08,-7.93,-6.22,0.75,1.28,0.08
2022-01-30 16:49:51.5360,-0.066,0.082,-0.14,-0.02,-7.74,-6.02,0.54,1.28,-0.08
2022-01-30 16:49:51.5460,-0.057,0.04,-0.162,-0.08,-7.41,-5.79,0.33,1.26,-0.21
2022-01-30 16:49:51.5560,-0.059,0.008,-0.186,-0.06,-7.03,-5.55,0.12,1.23,-0.3
2022-01-30 16:49:51.5660,-0.07,-0.01,-0.221,0.08,-6.74,-5.31,-0.05,1.23,-0.37
2022-01-30 16:49:51.5870,-0.087,-0.02,-0.262,0.6,-6.46,-4.57,-0.19,1.24,-0.41
2022-01-30 16:49:51.5880,-0.109,-0.04,-0.309,0.6,-6.46,-4.57,-0.26,1.28,-0.42
2022-01-30 16:49:51.5960,-0.143,-0.078,-0.365,0.95,-6.23,-4.13,-0.27,1.34,-0.39
2022-01-30 16:49:51.6070,-0.183,-0.136,-0.427,1.42,-5.81,-3.58,-0.22,1.46,-0.34
2022-01-30 16:49:51.6170,-0.227,-0.219,-0.505,1.94,-5.2,-2.98,-0.07,1.57,-0.27
2022-01-30 16:49:51.6270,-0.278,-0.336,-0.608,2.52,-4.34,-2.17,0.2,1.69,-0.19
2022-01-30 16:49:51.6370,-0.288,-0.481,-0.692,3.13,-3.16,-1.16,0.54,1.75,-0.13
2022-01-30 16:49:51.6470,-0.242,-0.637,-0.842,3.29,-1.76,-0.27,0.82,1.55,-0.11
2022-01-30 16:49:51.6570,-0.187,-0.81,-1.044,2.91,-0.26,1.38,0.99,1.12,-0.07
2022-01-30 16:49:51.6670,-0.138,-1.025,-1.173,2.48,1.4,3.39,0.98,0.58,0.01
2022-01-30 16:49:51.6770,-0.075,-1.22,-1.276,2.02,3.48,4.63,0.67,-0.11,0.03
2022-01-30 16:49:51.6870,-0.054,-1.297,-1.416,1.24,5.86,7.1,0.1,-0.82,-0.06
2022-01-30 16:49:51.7020,-0.108,-1.315,-1.477,1.24,5.86,7.1,0.1,-0.82,-0.06
2022-01-30 16:49:51.7120,-0.184,-1.358,-1.443,2.45,6.64,7.02,-1.33,-0.93,-0.23
2022-01-30 16:49:51.7220,-0.24,-1.421,-1.431,2.95,7.4,6.83,-2.0,-0.38,-0.15
2022-01-30 16:49:51.7320,-0.27,-1.466,-1.474,2.95,7.4,6.83,-2.49,0.26,0.04
2022-01-30 16:49:51.7410,-0.274,-1.472,-1.58,3.23,7.97,7.16,-2.73,0.66,0.28
2022-01-30 16:49:51.7520,-0.271,-1.45,-1.743,3.27,8.17,9.59,-2.71,0.57,0.54
2022-01-30 16:49:51.7620,-0.303,-1.423,-1.923,3.6,8.07,11.2,-2.71,0.57,0.54
2022-01-30 16:49:51.7720,-0.368,-1.367,-2.041,4.14,7.62,12.11,-1.91,-0.77,0.69
2022-01-30 16:49:51.7840,-0.406,-1.269,-2.05,4.14,7.62,12.11,-1.29,-1.6,0.39
2022-01-30 16:49:51.7920,-0.384,-1.167,-1.972,3.83,5.82,11.08,-0.79,-2.28,-0.06
2022-01-30 16:49:51.8020,-0.32,-1.099,-1.817,3.83,5.82,11.08,-0.54,-2.66,-0.52
2022-01-30 16:49:51.8120,-0.24,-1.037,-1.614,2.03,4.64,7.41,-0.54,-2.66,-0.52
2022-01-30 16:49:51.8220,-0.16,-0.941,-1.41,2.03,4.64,7.41,-0.61,-2.32,-1.17
2022-01-30 16:49:51.8320,-0.096,-0.84,-1.238,1.12,3.72,5.41,-0.7,-1.77,-1.28
2022-01-30 16:49:51.8420,-0.056,-0.756,-1.088,0.06,2.05,2.24,-0.73,-1.14,-1.24
2022-01-30 16:49:51.8520,-0.044,-0.691,-0.964,0.06,2.05,2.24,-0.67,-0.55,-1.07
2022-01-30 16:49:51.8620,-0.049,-0.631,-0.86,0.08,0.93,-0.01,-0.54,-0.1,-0.82
2022-01-30 16:49:51.8720,-0.057,-0.578,-0.765,0.08,0.93,-0.01,-0.35,0.15,-0.55
2022-01-30 16:49:51.8830,-0.058,-0.54,-0.682,0.19,0.46,-0.95,-0.12,0.2,-0.33
2022-01-30 16:49:51.8920,-0.054,-0.519,-0.606,0.2,-0.08,-2.49,-0.12,0.2,-0.33
2022-01-30 16:49:51.9020,-0.049,-0.499,-0.534,0.13,-0.31,-3.17,0.31,-0.2,-0.12
2022-01-30 16:49:51.9120,-0.042,-0.477,-0.469,0.13,-0.31,-3.17,0.47,-0.57,-0.14
2022-01-30 16:49:51.9220,-0.035,-0.463,-0.426,0.03,-0.56,-3.77,0.56,-1.03,-0.21
2022-01-30 16:49:51.9320,-0.026,-0.45,-0.384,-0.12,-0.73,-4.14,0.58,-1.49,-0.32
2022-01-30 16:49:51.9420,-0.02,-0.442,-0.351,-0.51,-1.02,-4.8,0.56,-1.88,-0.43
2022-01-30 16:49:51.9520,-0.011,-0.435,-0.307,-0.51,-1.02,-4.8,0.5,-2.13,-0.54
2022-01-30 16:49:51.9620,-0.003,-0.418,-0.264,-0.74,-1.15,-5.2,0.42,-2.21,-0.66
2022-01-30 16:49:51.9720,0.002,-0.387,-0.235,-0.97,-1.37,-5.56,0.32,-2.12,-0.79
2022-01-30 16:49:51.9820,0.004,-0.352,-0.216,-1.14,-1.73,-5.8,0.2,-1.91,-0.92
2022-01-30 16:49:51.9920,0.007,-0.322,-0.224,-1.27,-2.09,-5.93,0.07,-1.61,-1.03
2022-01-30 16:49:52.0020,-0.003,-0.299,-0.262,-1.35,-2.4,-5.79,-0.05,-1.25,-1.12
2022-01-30 16:49:52.0130,-0.009,-0.292,-0.308,-1.25,-2.66,-4.92,-0.13,-0.83,-1.16
2022-01-30 16:49:52.0220,-0.001,-0.301,-0.356,-1.25,-2.66,-4.92,-0.13,-0.42,-1.13
2022-01-30 16:49:52.0320,0.025,-0.323,-0.443,-1.55,-2.34,-3.51,-0.06,-0.14,-1.05
2022-01-30 16:49:52.0430,0.063,-0.359,-0.563,-1.87,-1.98,-2.35,0.09,0.03,-0.92
2022-01-30 16:49:52.0530,0.109,-0.427,-0.655,-1.87,-1.98,-2.35,0.29,0.2,-0.73
2022-01-30 16:49:52.0620,0.156,-0.551,-0.741,-2.69,-0.04,-0.55,0.45,0.33,-0.46
2022-01-30 16:49:52.0730,0.208,-0.718,-0.891,-2.69,-0.04,-0.55,0.49,0.29,-0.13
2022-01-30 16:49:52.0820,0.253,-0.881,-1.079,-3.17,1.59,1.02,0.44,-0.01,0.15
2022-01-30 16:49:52.0930,0.266,-0.929,-1.261,-3.73,3.36,4.68,0.37,-0.5,0.26
2022-01-30 16:49:52.1030,0.246,-0.891,-1.39,-3.59,2.95,5.86,0.38,-0.93,0.24
2022-01-30 16:49:52.1130,0.208,-0.884,-1.425,-3.31,2.89,6.17,0.47,-1.17,0.17
2022-01-30 16:49:52.1230,0.17,-0.867,-1.422,-3.04,2.61,6.16,0.6,-1.21,0.07
2022-01-30 16:49:52.1330,0.133,-0.813,-1.388,-3.04,2.61,6.16,0.7,-1.1,-0.05
2022-01-30 16:49:52.1430,0.114,-0.785,-1.302,-2.76,2.03,5.82,0.7,-1.1,-0.05
2022-01-30 16:49:52.1530,0.115,-0.785,-1.213,-2.67,1.75,5.0,0.71,-0.85,-0.16
2022-01-30 16:49:52.1630,0.113,-0.768,-1.132,-2.71,1.71,3.422253114581108,0.39,-0.31,-0.28
2022-01-30 16:49:52.1730,0.106,-0.724,-1.05,-2.7,1.47,3.42,0.18,-0.1,-0.29
2022-01-30 16:49:52.1830,0.087,-0.659,-0.962,-2.4,0.33,1.75,0.08,0.01,-0.26
2022-01-30 16:49:52.1930,0.062,-0.57,-0.877,-2.13,-0.59,0.94,0.11,0.01,-0.18
2022-01-30 16:49:52.2030,0.03,-0.466,-0.795,-1.82,-1.64,0.15,0.28,-0.1,-0.07
2022-01-30 16:49:52.2140,-0.005,-0.368,-0.704,-1.82,-1.64,0.15,0.56,-0.25,0.08
2022-01-30 16:49:52.2230,-0.047,-0.275,-0.598,-1.49,-2.63,-0.72,0.9,-0.38,0.23
2022-01-30 16:49:52.2330,-0.088,-0.183,-0.483,-0.78,-4.58,-2.77,1.26,-0.45,0.37
2022-01-30 16:49:52.2440,-0.111,-0.101,-0.372,-0.78,-4.58,-2.77,1.57,-0.45,0.45
2022-01-30 16:49:52.2530,-0.11,-0.047,-0.296,-0.64,-5.47,-3.73,1.78,-0.41,0.46
2022-01-30 16:49:52.2630,-0.102,-0.033,-0.264,-0.74,-6.07,-4.3,1.88,-0.35,0.43
2022-01-30 16:49:52.2730,-0.105,-0.041,-0.234,-0.86,-6.32,-4.62,1.91,-0.22,0.36
2022-01-30 16:49:52.2840,-0.111,-0.063,-0.205,-0.86,-6.32,-4.62,1.91,-0.22,0.36
2022-01-30 16:49:52.2930,-0.115,-0.103,-0.169,-0.82,-6.21,-4.77,1.9,0.36,0.26
2022-01-30 16:49:52.3030,-0.117,-0.177,-0.129,-0.78,-5.9,-5.02,1.93,0.82,0.26
2022-01-30 16:49:52.3140,-0.121,-0.284,-0.105,-0.63,-4.3,-5.37,2.01,1.32,0.29
2022-01-30 16:49:52.3230,-0.118,-0.389,-0.102,-0.58,-3.43,-5.25,2.1,1.78,0.31
2022-01-30 16:49:52.3340,-0.112,-0.47,-0.143,-0.52,-2.77,-4.66,2.14,2.06,0.27
2022-01-30 16:49:52.3440,-0.101,-0.56,-0.213,-0.52,-2.77,-4.66,2.1,2.19,0.15
2022-01-30 16:49:52.3540,-0.085,-0.701,-0.266,-0.52,-1.98,-3.85,2.0,2.2,0.01
2022-01-30 16:49:52.3640,-0.07,-0.886,-0.315,-0.54,-0.63,-3.23,1.85,2.07,-0.13
2022-01-30 16:49:52.3740,-0.042,-1.066,-0.386,-0.58,1.09,-2.63,1.85,2.07,-0.13
2022-01-30 16:49:52.3840,-0.01,-1.21,-0.479,-0.74,2.72,-1.79,1.3,1.22,-0.47
2022-01-30 16:49:52.3940,0.014,-1.327,-0.591,-1.08,5.09,0.42,0.86,0.53,-0.69
2022-01-30 16:49:52.4040,0.011,-1.427,-0.711,-1.08,5.09,0.42,0.31,-0.14,-0.87
2022-01-30 16:49:52.4140,-0.043,-1.466,-0.798,-0.92,6.01,1.6,-0.26,-0.58,-1.01
2022-01-30 16:49:52.4240,-0.125,-1.419,-0.846,-0.3,6.29,2.39,-0.75,-0.69,-1.13
2022-01-30 16:49:52.4340,-0.199,-1.335,-0.855,0.57,5.78,2.75,-1.08,-0.47,-1.22
2022-01-30 16:49:52.4430,-0.231,-1.246,-0.856,1.33,4.99,2.72,-1.3,-0.06,-1.31
2022-01-30 16:49:52.4540,-0.211,-1.177,-0.877,1.68,4.2,2.65,-1.45,0.43,-1.36
2022-01-30 16:49:52.4640,-0.158,-1.153,-0.894,1.56,3.65,2.75,-1.57,0.96,-1.3
2022-01-30 16:49:52.4740,-0.106,-1.145,-0.887,1.19,3.54,2.77,-1.67,1.52,-1.11
2022-01-30 16:49:52.4840,-0.061,-1.154,-0.871,0.86,3.57,2.53,-1.67,1.52,-1.11
2022-01-30 16:49:52.4940,-0.018,-1.179,-0.889,0.61,3.8,2.27,-1.76,2.272212505340576,-0.37
2022-01-30 16:49:52.5040,0.016,-1.2,-0.927,0.2,4.49,2.6,-1.98,2.28,0.05
2022-01-30 16:49:52.5150,0.031,-1.211,-0.986,0.17,4.73,3.07,-2.04,1.98,0.43
2022-01-30 16:49:52.5240,0.037,-1.216,-1.053,0.17,4.73,3.07,-2.03,1.43,0.7
2022-01-30 16:49:52.5350,0.034,-1.202,-1.111,0.19,4.85,4.0,-1.91,0.69,0.84
2022-01-30 16:49:52.5450,0.011,-1.153,-1.156,0.39,4.44,4.28,-1.67,-0.11,0.86
2022-01-30 16:49:52.5550,-0.027,-1.07,-1.14,0.39,4.44,4.28,-1.32,-0.79,0.81
2022-01-30 16:49:52.5640,-0.066,-0.973,-1.071,0.65,3.68,3.95,-0.93,-1.29,0.73
2022-01-30 16:49:52.5830,-0.095,-0.878,-0.964,1.0,1.91,2.03,-0.93,-1.29,0.73
2022-01-30 16:49:52.5860,-0.114,-0.795,-0.841,1.0,1.91,2.03,-0.22,-1.73,0.71
2022-01-30 16:49:52.6030,-0.126,-0.718,-0.717,0.93,0.38,-0.4,0.04,-1.73,0.78
2022-01-30 16:49:52.6040,-0.128,-0.647,-0.595,0.76,-0.31,-1.57,0.22,-1.63,0.86
2022-01-30 16:49:52.6150,-0.118,-0.592,-0.487,0.76,-0.31,-1.57,0.33,-1.48,0.95
2022-01-30 16:49:52.6250,-0.106,-0.554,-0.409,0.48,-0.84,-2.57,0.37,-1.34,1.01
2022-01-30 16:49:52.6350,-0.089,-0.527,-0.359,0.2,-1.22,-3.27,0.33,-1.21,1.02
2022-01-30 16:49:52.6450,-0.073,-0.511,-0.32,-0.13,-1.49,-3.7,0.33,-1.21,1.02
2022-01-30 16:49:52.6550,-0.068,-0.513,-0.29,-0.42,-1.63,-4.05,0.08,-0.94,0.92
2022-01-30 16:49:52.6640,-0.067,-0.508,-0.273,-0.7,-1.65,-4.47,-0.09,-0.78,0.83
2022-01-30 16:49:52.6750,-0.076,-0.49,-0.263,-0.7,-1.65,-4.47,-0.28,-0.6,0.74
2022-01-30 16:49:52.6850,-0.094,-0.468,-0.262,-0.7,-1.8,-4.57,-0.46,-0.42,0.67
2022-01-30 16:49:52.6950,-0.115,-0.437,-0.281,-0.44,-2.23,-4.4,-0.61,-0.34,0.62
2022-01-30 16:49:52.7050,-0.134,-0.408,-0.33,-0.44,-2.23,-4.4,-0.72,-0.38,0.61
2022-01-30 16:49:52.7150,-0.157,-0.384,-0.383,-0.33,-2.44,-3.94,-0.75,-0.54,0.64
2022-01-30 16:49:52.7250,-0.176,-0.359,-0.445,-0.18,-2.62,-3.45,-0.73,-0.78,0.66
2022-01-30 16:49:52.7360,-0.18,-0.359,-0.527,-0.2,-2.69,-2.05,-0.63,-1.06,0.68
2022-01-30 16:49:52.7450,-0.192,-0.37,-0.609,-0.2,-2.69,-2.05,-0.63,-1.06,0.68
2022-01-30 16:49:52.7560,-0.214,-0.362,-0.681,-0.2,-2.55,-1.27,-0.07,-1.57,0.72
2022-01-30 16:49:52.7650,-0.212,-0.354,-0.751,-0.16,-2.62,-0.54,0.37,-1.74,0.67
2022-01-30 16:49:52.7760,-0.201,-0.343,-0.824,-0.37,-2.71,0.21,0.8488889932632446,-1.74,0.67
2022-01-30 16:49:52.7850,-0.189,-0.355,-0.877,-0.92,-2.75,1.59,1.35,-1.68,0.46
2022-01-30 16:49:52.7960,-0.177,-0.428,-0.848,-1.13,-2.1,1.4,1.8,-1.15,0.36
2022-01-30 16:49:52.8060,-0.166,-0.523,-0.825,-1.13,-2.1,1.4,2.05,-0.37,0.3
2022-01-30 16:49:52.8150,-0.13,-0.657,-0.837,-1.3,-1.28,1.37,2.06,0.49,0.32
2022-01-30 16:49:52.8250,-0.068,-0.873,-0.876,-2.26,2.11,2.17,1.82,1.18,0.4
2022-01-30 16:49:52.8360,0.011,-1.133,-0.978,-2.26,2.11,2.17,1.41,1.57,0.55
2022-01-30 16:49:52.8450,0.063,-1.348,-1.046,-3.36,6.5,3.83,1.0,1.73,0.71
2022-01-30 16:49:52.8550,0.068,-1.382,-1.045,-3.36,6.5,3.83,0.62,1.65,0.78
2022-01-30 16:49:52.8650,0.019,-1.241,-1.051,-2.72,5.07,3.86,0.24,1.35,0.73
2022-01-30 16:49:52.8760,-0.065,-1.101,-1.05,-1.86,3.81,3.75,0.24,1.35,0.73
2022-01-30 16:49:52.8860,-0.136,-1.026,-1.007,-1.17,3.18,3.26,-0.64,0.73,0.46
2022-01-30 16:49:52.8960,-0.185,-0.964,-0.976,-0.72,2.65,2.87,-1.12,0.57,0.28
2022-01-30 16:49:52.9060,-0.199,-0.909,-0.939,-0.59,2.23,2.37,-1.54,0.56,0.11
2022-01-30 16:49:52.9160,-0.196,-0.857,-0.898,-0.59,1.8364853060245514,1.85,-1.83,0.62,0.02
2022-01-30 16:49:52.9260,-0.196,-0.785,-0.87,-0.52,1.23,1.44,-1.93,0.68,0.06
2022-01-30 16:49:52.9360,-0.205,-0.685,-0.832,-0.52,1.23,1.44,-1.84,0.69,0.22
2022-01-30 16:49:52.9460,-0.227,-0.582,-0.776,-0.39,0.37,0.9,-1.59,0.64,0.47
2022-01-30 16:49:52.9560,-0.256,-0.485,-0.706,-0.14,-0.51,0.22,-1.25,0.53,0.77
2022-01-30 16:49:52.9650,-0.286,-0.393,-0.632,0.13,-1.34,-0.57,-0.89,0.34,1.05
2022-01-30 16:49:52.9760,-0.311,-0.315,-0.575,0.39,-2.15,-1.35,-0.57,0.07,1.28
2022-01-30 16:49:52.9860,-0.333,-0.263,-0.538,0.56,-2.8,-1.91,-0.29,-0.27,1.42
2022-01-30 16:49:52.9960,-0.363,-0.214,-0.515,0.68,-3.23,-2.27,-0.06,-0.67,1.46
2022-01-30 16:49:53.0060,-0.394,-0.16,-0.514,0.99,-4.2,-2.42,0.14,-1.06,1.38
2022-01-30 16:49:53.0160,-0.422,-0.09,-0.508,0.99,-4.2,-2.42,0.35,-1.37,1.17
2022-01-30 16:49:53.0260,-0.44,-0.036,-0.477,1.09,-5.38,-2.71,0.6,-1.48,0.9
2022-01-30 16:49:53.0360,-0.447,-0.006,-0.409,1.01,-5.7,-3.29,0.88,-1.37,0.6
2022-01-30 16:49:53.0460,-0.444,0.009,-0.346,0.87,-5.91,-3.81,1.19,-1.09,0.33
2022-01-30 16:49:53.0560,-0.434,0.019,-0.286,0.87,-5.91,-3.81,1.47,-0.77,0.12
2022-01-30 16:49:53.0650,-0.409,0.011,-0.245,0.41,-6.1,-4.52,1.69,-0.47,-0.06
2022-01-30 16:49:53.0750,-0.37,-0.019,-0.22,0.41,-6.1,-4.52,1.69,-0.47,-0.06
2022-01-30 16:49:53.0840,-0.322,-0.049,-0.216,-0.46,-5.79,-4.51,1.92,-0.18,-0.42
2022-01-30 16:49:53.0950,-0.271,-0.073,-0.237,-0.46,-5.79,-4.51,1.88,-0.23,-0.68
2022-01-30 16:49:53.1050,-0.224,-0.11,-0.287,-1.35,-5.45,-3.51,1.73,-0.37,-0.97
2022-01-30 16:49:53.1150,-0.177,-0.171,-0.324,-1.35,-5.45,-3.51,1.52,-0.46,-1.25
2022-01-30 16:49:53.1250,-0.132,-0.268,-0.331,-1.76,-4.95,-3.08,1.28,-0.42,-1.45
2022-01-30 16:49:53.1350,-0.09,-0.39,-0.348,-2.11,-4.09,-2.93,1.01,-0.27,-1.56
2022-01-30 16:49:53.1450,-0.047,-0.527,-0.416,-2.44,-2.98,-2.63,0.7,-0.08,-1.55
2022-01-30 16:49:53.1550,-0.015,-0.673,-0.506,-2.75,-1.71,-1.86,0.38,0.09,-1.46
2022-01-30 16:49:53.1650,0.01,-0.795,-0.614,-2.94,-0.35,-0.95,0.04,0.09,-1.36
2022-01-30 16:49:53.1770,0.021,-0.878,-0.791,-3.08,0.75,0.18,-0.32,-0.12,-1.29
2022-01-30 16:49:53.1860,0.012,-0.957,-0.945,-3.08,1.52,1.94,-0.61,-0.31,-1.17
2022-01-30 16:49:53.1960,-0.012,-1.032,-1.029,-2.91,2.32,4.071874680519104,-0.81,-0.4,-1.03
2022-01-30 16:49:53.2060,-0.052,-1.038,-1.118,-2.16,3.0,4.88,-0.92,-0.41,-0.9
2022-01-30 16:49:53.2160,-0.102,-0.982,-1.168,-2.16,3.0,4.88,-0.96,-0.25,-0.79
2022-01-30 16:49:53.2260,-0.143,-0.966,-1.17,-1.2,2.46,5.19,-1.04,-0.06,-0.72
2022-01-30 16:49:53.2370,-0.154,-1.002,-1.24,-1.2,2.46,5.19,-1.26,0.03,-0.71
2022-01-30 16:49:53.2470,-0.147,-1.064,-1.323,-1.07,2.92,5.88,-1.54,0.13,-0.73
2022-01-30 16:49:53.2560,-0.151,-1.099,-1.356,-0.95,3.99,6.68,-1.76,0.34,-0.76
2022-01-30 16:49:53.2670,-0.172,-1.071,-1.373,-0.64,3.76,6.68,-1.85,0.65,-0.76
2022-01-30 16:49:53.2770,-0.183,-1.007,-1.363,-0.44,3.22,6.41,-1.77,1.04,-0.72
2022-01-30 16:49:53.2860,-0.17,-0.943,-1.331,-0.44,3.22,6.41,-1.57,1.41,-0.62
2022-01-30 16:49:53.2960,-0.142,-0.892,-1.282,-0.46,2.69,5.93,-1.34,1.66,-0.46
2022-01-30 16:49:53.3060,-0.116,-0.86,-1.229,-0.59,2.3,5.32,-1.34,1.66,-0.46
2022-01-30 16:49:53.3160,-0.096,-0.849,-1.182,-0.7,2.1,4.7,-1.02,1.57,0.06
2022-01-30 16:49:53.3260,-0.084,-0.836,-1.144,-0.78,2.08,4.15,-0.93,1.2,0.33
2022-01-30 16:49:53.3360,-0.07,-0.82,-1.103,-0.94,1.94,3.23,-0.81,0.73,0.54
2022-01-30 16:49:53.3470,-0.05,-0.807,-1.05,-1.17,1.87,2.66,-0.64,0.21,0.68
2022-01-30 16:49:53.3560,-0.033,-0.784,-0.998,-1.17,1.87,2.66,-0.45,-0.31,0.77
2022-01-30 16:49:53.3670,-0.032,-0.745,-0.93,-1.39,1.68,2.13,-0.25,-0.73,0.83
2022-01-30 16:49:53.3770,-0.047,-0.697,-0.834,-1.44,0.85,0.46,-0.06,-0.98,0.9
2022-01-30 16:49:53.3870,-0.068,-0.644,-0.732,-1.3799272526800632,0.34,-0.5,0.11,-1.08,0.98
2022-01-30 16:49:53.3980,-0.082,-0.587,-0.644,-1.38,0.34,-0.5,0.23,-1.05,1.02
2022-01-30 16:49:53.4070,-0.087,-0.539,-0.572,-1.4,-0.21,-1.3,0.29,-0.88,0.99
2022-01-30 16:49:53.4170,-0.091,-0.513,-0.512,-1.48,-0.65,-1.96,0.27,-0.58,0.91
2022-01-30 16:49:53.4360,-0.101,-0.495,-0.475,-1.49,-1.06,-2.81,0.27,-0.58,0.91
2022-01-30 16:49:53.4380,-0.113,-0.478,-0.462,-1.49,-1.06,-2.81,0.09,0.21,0.59
2022-01-30 16:49:53.4470,-0.12,-0.465,-0.455,-1.31,-1.33,-2.99,-0.0,0.61,0.41
2022-01-30 16:49:53.4580,-0.113,-0.454,-0.48,-1.31,-1.33,-2.99,-0.09,0.89,0.26
2022-01-30 16:49:53.4680,-0.095,-0.454,-0.523,-1.35,-1.41,-2.73,-0.11,1.05,0.15
2022-01-30 16:49:53.4770,-0.074,-0.458,-0.56,-1.47,-1.38,-2.35,-0.06,1.08,0.07
2022-01-30 16:49:53.4880,-0.063,-0.456,-0.618,-1.59,-1.34,-2.01,0.11,0.97,0.01
2022-01-30 16:49:53.4970,-0.071,-0.444,-0.69,-1.44,-1.54,-0.72,0.41,0.79,-0.09
2022-01-30 16:49:53.5080,-0.087,-0.427,-0.729,-1.23,-1.78,-0.35,0.8,0.62,-0.21
2022-01-30 16:49:53.5180,-0.098,-0.41,-0.754,-1.23,-1.78,-0.35,1.19,0.48,-0.33
2022-01-30 16:49:53.5280,-0.1,-0.418,-0.777,-1.01,-2.02,0.24,1.5,0.47,-0.42
2022-01-30 16:49:53.5380,-0.092,-0.466,-0.78,-1.0142896020412446,-1.6138601714372636,0.36,1.66,0.61,-0.44
2022-01-30 16:49:53.5480,-0.084,-0.554,-0.805,-1.02,-1.62,0.36,1.65,0.85,-0.39
2022-01-30 16:49:53.5580,-0.096,-0.654,-0.846,-0.75,0.0,1.21,1.53,1.15,-0.29
2022-01-30 16:49:53.5680,-0.133,-0.72,-0.889,-0.75,0.0,1.21,1.36,1.46,-0.22
2022-01-30 16:49:53.5780,-0.186,-0.742,-0.948,-0.24,0.49,1.71,1.19,1.69,-0.2
2022-01-30 16:49:53.5880,-0.234,-0.758,-1.022,0.42,0.58,2.37,1.06,1.78,-0.24
2022-01-30 16:49:53.5980,-0.265,-0.795,-1.091,1.43,1.01,3.84,0.96,1.75,-0.34
2022-01-30 16:49:53.6080,-0.269,-0.844,-1.137,1.59,1.42,4.31,0.84,1.62,-0.48
2022-01-30 16:49:53.6180,-0.254,-0.872,-1.174,1.59,1.42,4.31,0.84,1.62,-0.48
2022-01-30 16:49:53.6280,-0.229,-0.884,-1.195,1.56,1.6,4.7,0.41,1.21,-0.8
2022-01-30 16:49:53.6380,-0.201,-0.896,-1.177,1.32,1.78,4.66,0.11,1.13,-0.87
2022-01-30 16:49:53.6480,-0.178,-0.876,-1.134,1.32,1.5500974541902544,4.1975898170471195,-0.19,1.19,-0.86
2022-01-30 16:49:53.6580,-0.16,-0.828,-1.083,1.24,1.55,4.19,-0.44,1.35,-0.78
2022-01-30 16:49:53.6680,-0.142,-0.765,-1.046,1.21,1.08,3.67,-0.61,1.54,-0.63
2022-01-30 16:49:53.6780,-0.137,-0.701,-1.001,1.31,-0.08,2.75,-0.7,1.74,-0.43
2022-01-30 16:49:53.6880,-0.137,-0.648,-0.941,1.31,-0.08,2.75,-0.71,1.92,-0.2
2022-01-30 16:49:53.6980,-0.14,-0.6,-0.868,1.47,-0.53,2.1,-0.67,2.08,0.01
2022-01-30 16:49:53.7080,-0.148,-0.548,-0.781,1.87,-1.43,0.43,-0.59,2.16,0.18
2022-01-30 16:49:53.7190,-0.157,-0.493,-0.695,1.87,-1.43,0.43,-0.53,2.13,0.31
2022-01-30 16:49:53.7280,-0.168,-0.44,-0.615,2.09,-1.93,-0.44,-0.47,2.0,0.43
2022-01-30 16:49:53.7390,-0.177,-0.391,-0.537,2.31,-2.41,-1.23,-0.41,1.75,0.56
2022-01-30 16:49:53.7480,-0.183,-0.346,-0.476,2.48,-2.86,-2.01,-0.34,1.38,0.72
2022-01-30 16:49:53.7590,-0.188,-0.312,-0.435,2.59,-3.28,-2.59,-0.34,1.38,0.72
2022-01-30 16:49:53.7690,-0.19,-0.292,-0.403,2.65,-3.59,-2.99,-0.09,0.44,1.13
2022-01-30 16:49:53.7790,-0.19,-0.269,-0.386,2.62,-3.78,-3.3,0.07,-0.03,1.34
2022-01-30 16:49:53.7890,-0.194,-0.245,-0.38,2.45,-4.28,-3.48,0.27,-0.41,1.53
2022-01-30 16:49:53.7990,-0.216,-0.221,-0.368,2.45,-4.28,-3.48,0.49,-0.64,1.71
2022-01-30 16:49:53.8080,-0.252,-0.203,-0.362,2.71,-4.78,-3.56,0.73,-0.78,1.87
2022-01-30 16:49:53.8190,-0.296,-0.195,-0.369,2.71,-4.78,-3.56,0.98,-0.83,2.0
2022-01-30 16:49:53.8290,-0.335,-0.179,-0.368,2.95,-4.93,-3.43,1.26,-0.78,2.04
2022-01-30 16:49:53.8390,-0.349,-0.182,-0.347,3.12,-5.17,-3.38,1.51,-0.69,1.99
2022-01-30 16:49:53.8490,-0.349,-0.221,-0.372,2.85,-4.87,-3.04,1.66,-0.67,1.89
2022-01-30 16:49:53.8590,-0.338,-0.293,-0.409,2.56,-4.22,-2.59,1.66,-0.67,1.89
2022-01-30 16:49:53.8690,-0.322,-0.407,-0.425,2.56,-4.22,-2.59,1.58,-0.68,1.59
2022-01-30 16:49:53.8790,-0.307,-0.531,-0.473,1.94,-2.03,-1.68,1.35,-0.76,1.37
2022-01-30 16:49:53.8890,-0.293,-0.627,-0.55,1.94,-2.03,-1.68,1.35,-0.76,1.37
2022-01-30 16:49:53.8990,-0.295,-0.705,-0.616,1.68,-1.17,-0.82,0.66,-0.91,0.76
2022-01-30 16:49:53.9090,-0.308,-0.779,-0.656,1.66,0.25,0.26,0.3,-0.84,0.45
2022-01-30 16:49:53.9190,-0.318,-0.825,-0.709,1.68,0.67,0.83,-0.06,-0.72,0.16
2022-01-30 16:49:53.9290,-0.324,-0.84,-0.785,1.68,0.67,0.83,-0.38,-0.56,-0.09
2022-01-30 16:49:53.9390,-0.321,-0.852,-0.848,1.65,0.98,2.11,-0.6,-0.39,-0.28
2022-01-30 16:49:53.9490,-0.292,-0.876,-0.917,1.35,1.26,2.76,-0.72,-0.24,-0.39
2022-01-30 16:49:53.9590,-0.247,-0.902,-0.976,1.35,1.26,2.76,-0.7,-0.04,-0.44
2022-01-30 16:49:53.9690,-0.195,-0.94,-1.0,0.93,1.56,3.24,-0.59,0.18,-0.46
2022-01-30 16:49:53.9790,-0.147,-0.969,-1.048,0.05,2.25,3.89,-0.46,0.26,-0.48
2022-01-30 16:49:53.9900,-0.115,-0.955,-1.107,0.05,2.25,3.89,-0.39,0.17,-0.54
2022-01-30 16:49:53.9990,-0.109,-0.924,-1.134,-0.17,1.8,4.6,-0.45,-0.03,-0.68
2022-01-30 16:49:54.0090,-0.113,-0.891,-1.139,-0.08,1.52,4.6,-0.7,-0.27,-0.87
2022-01-30 16:49:54.0200,-0.114,-0.884,-1.134,-0.04,1.57,4.43,-1.09,-0.46,-1.06
2022-01-30 16:49:54.0290,-0.105,-0.919,-1.083,-0.08,2.03,3.78,-1.49,-0.47,-1.22
2022-01-30 16:49:54.0390,-0.086,-0.944,-1.028,-0.22,2.32,3.17,-1.81,-0.37,-1.36
2022-01-30 16:49:54.0490,-0.057,-0.914,-1.018,-0.42,2.11,2.98,-2.0,-0.22,-1.43
2022-01-30 16:49:54.0590,-0.024,-0.871,-1.024,-0.42,2.11,2.98,-2.0,-0.22,-1.43
2022-01-30 16:49:54.0690,0.021,-0.841,-1.037,-0.67,1.83,2.9,-1.86,-0.07,-1.31
2022-01-30 16:49:54.0800,0.066,-0.821,-1.055,-1.03,1.68,2.92,-1.56,-0.23,-1.11
2022-01-30 16:49:54.0900,0.102,-0.797,-1.038,-1.43,1.59,2.98,-1.15,-0.49,-0.83
2022-01-30 16:49:54.1000,0.119,-0.766,-0.989,-1.74,1.43,2.68,-0.75,-0.88,-0.57
2022-01-30 16:49:54.1100,0.122,-0.711,-0.957,-1.99,0.65,1.8,-0.43,-1.27,-0.37
2022-01-30 16:49:54.1210,0.102,-0.673,-0.869,-1.99,0.65,1.8,-0.24,-1.59,-0.22
2022-01-30 16:49:54.1290,0.076,-0.645,-0.786,-1.88,0.06647524058818817,0.11,-0.17,-1.79,-0.14
2022-01-30 16:49:54.1400,0.046,-0.621,-0.704,-1.76,0.06,0.11,-0.17,-1.88,-0.1
2022-01-30 16:49:54.1500,0.01,-0.587,-0.626,-1.36,-0.5,-1.44,-0.2,-1.87,-0.09
2022-01-30 16:49:54.1600,-0.029,-0.54,-0.56,-1.36,-0.5,-1.44,-0.2,-1.87,-0.09
2022-01-30 16:49:54.1700,-0.061,-0.486,-0.504,-1.11,-0.96,-2.06,-0.2,-1.73,-0.16
2022-01-30 16:49:54.1800,-0.088,-0.423,-0.474,-0.92,-1.49,-2.57,-0.18,-1.71,-0.23
2022-01-30 16:49:54.1910,-0.102,-0.362,-0.469,-0.79,-2.1,-2.82,-0.2,-1.76,-0.35
2022-01-30 16:49:54.2000,-0.1,-0.33,-0.468,-0.78,-2.67,-2.83,-0.28,-1.78,-0.53
2022-01-30 16:49:54.2110,-0.097,-0.332,-0.447,-1.01,-2.86,-3.06,-0.4,-1.7,-0.74
2022-01-30 16:49:54.2210,-0.107,-0.343,-0.427,-1.01,-2.86,-3.06,-0.54,-1.55,-0.99
2022-01-30 16:49:54.2300,-0.119,-0.341,-0.429,-0.85,-2.75,-3.2,-0.68,-1.37,-1.28
2022-01-30 16:49:54.2410,-0.13,-0.32,-0.446,-0.85,-2.75,-3.2,-0.81,-1.19,-1.59
2022-01-30 16:49:54.2500,-0.137,-0.294,-0.476,-0.75,-2.95,-3.06,-0.91,-1.06,-1.88
2022-01-30 16:49:54.2600,-0.145,-0.276,-0.533,-0.52,-3.3,-2.21,-0.94,-1.0,-2.13
2022-01-30 16:49:54.2710,-0.156,-0.277,-0.62,-0.52,-3.3,-2.21,-0.85,-1.06,-2.32
2022-01-30 16:49:54.2800,-0.164,-0.28,-0.719,-0.35,-3.25,-1.36,-0.65,-1.23,-2.48
2022-01-30 16:49:54.2910,-0.162,-0.275,-0.822,-0.23,-3.22,-0.4,-0.35,-1.49,-2.61
2022-01-30 16:49:54.3010,-0.165,-0.273,-0.911,-0.21,-3.3,0.61,-0.35,-1.49,-2.61
2022-01-30 16:49:54.3100,-0.188,-0.299,-0.991,-0.13,-3.34,1.49,0.28,-1.93,-2.68
2022-01-30 16:49:54.3210,-0.226,-0.351,-1.06,0.14,-3.11,2.32,0.5,-1.97,-2.63
2022-01-30 16:49:54.3310,-0.269,-0.409,-1.117,0.98,-2.18,3.66,0.59,-1.87,-2.57
2022-01-30 16:49:54.3410,-0.311,-0.466,-1.159,0.98,-2.18,3.66,0.53,-1.61,-2.54
2022-01-30 16:49:54.3500,-0.346,-0.528,-1.186,1.44,-1.7,4.09,0.33,-1.31,-2.53
2022-01-30 16:49:54.3610,-0.36,-0.616,-1.225,1.83,-1.14,4.42,0.33,-1.31,-2.53
2022-01-30 16:49:54.3710,-0.342,-0.715,-1.245,2.01,-0.28,4.8,-0.45,-0.78,-2.62
2022-01-30 16:49:54.3810,-0.303,-0.809,-1.275,1.92,0.69,4.97,-0.97,-0.68,-2.71
2022-01-30 16:49:54.3910,-0.26,-0.915,-1.32,1.64,1.64,5.24,-1.51,-0.62,-2.74
2022-01-30 16:49:54.4010,-0.238,-1.04,-1.34,1.37,2.8,5.58,-1.99,-0.48,-2.6
2022-01-30 16:49:54.4110,-0.248,-1.134,-1.35,1.31,4.13,5.62,-2.34,-0.28,-2.28
2022-01-30 16:49:54.4210,-0.278,-1.144,-1.377,1.57,5.13,5.59,-2.54,-0.14,-1.87
2022-01-30 16:49:54.4310,-0.308,-1.077,-1.408,2.33,4.77,5.85,-2.56,-0.1,-1.41
2022-01-30 16:49:54.4410,-0.329,-0.983,-1.378,2.33,4.77,5.85,-2.37,-0.05,-0.92
