time,gFx,gFy,gFz,ax,ay,az,wx,wy,wz
2022-01-30 16:53:10.8750,0.186,-0.474,-0.749,-0.1,-0.01,-0.06,0.21,-1.37,-0.71
2022-01-30 16:53:10.8790,0.124,-0.423,-0.651,0.29,-0.26,-1.09,0.15,-1.27,-0.66
2022-01-30 16:53:10.8860,0.089,-0.422,-0.61,0.79,-0.74,-1.98,0.15,-1.27,-0.66
2022-01-30 16:53:10.8960,0.074,-0.402,-0.581,1.05,-0.7,-2.38,-0.06,-1.24,-0.77
2022-01-30 16:53:10.9060,0.092,-0.367,-0.551,1.08,-0.93,-2.7,-0.11,-1.22,-0.89
2022-01-30 16:53:10.9160,0.107,-0.361,-0.532,0.83,-1.22,-3.0,-0.07,-1.17,-0.95
2022-01-30 16:53:10.9260,0.114,-0.348,-0.519,0.64,-1.23,-3.2,0.05,-1.1,-0.96
2022-01-30 16:53:10.9360,0.12,-0.312,-0.504,0.53,-1.38,-3.35,0.2,-1.02,-0.91
2022-01-30 16:53:10.9460,0.124,-0.275,-0.48,0.35,-2.11,-3.74,0.35,-0.97,-0.81
2022-01-30 16:53:10.9560,0.123,-0.255,-0.47,0.35,-2.11,-3.74,0.45,-0.97,-0.67
2022-01-30 16:53:10.9660,0.116,-0.243,-0.464,0.31,-2.32,-3.82,0.51,-1.06,-0.55
2022-01-30 16:53:10.9770,0.109,-0.24,-0.473,0.31,-2.51,-3.74,0.51,-1.19,-0.47
2022-01-30 16:53:10.9870,0.095,-0.249,-0.497,0.31,-2.51,-3.74,0.47,-1.28,-0.41
2022-01-30 16:53:10.9970,0.057,-0.259,-0.516,0.4,-2.45,-3.5,0.41,-1.27,-0.39
2022-01-30 16:53:11.0070,0.018,-0.25,-0.531,0.7,-2.39,-3.32,0.33,-1.13,-0.42
2022-01-30 16:53:11.0160,-0.01,-0.234,-0.543,0.99,-2.53,-3.17,0.29,-0.88,-0.47
2022-01-30 16:53:11.0270,-0.024,-0.235,-0.556,1.3,-2.68,-2.89,0.31,-0.55,-0.5
2022-01-30 16:53:11.0370,-0.021,-0.24,-0.604,1.24,-2.66,-2.35,0.44,-0.19,-0.48
2022-01-30 16:53:11.0480,0.012,-0.267,-0.677,1.24,-2.66,-2.35,0.68,0.19,-0.35
2022-01-30 16:53:11.0570,0.069,-0.344,-0.729,0.91,-2.39,-1.61,0.98,0.56,-0.1
2022-01-30 16:53:11.0670,0.125,-0.45,-0.754,0.4,-1.67,-1.08,0.98,0.56,-0.1
2022-01-30 16:53:11.0770,0.172,-0.57,-0.792,-0.09,-0.71,-0.77,1.28,0.89,0.59
2022-01-30 16:53:11.0880,0.184,-0.687,-0.865,-0.46,0.34,-0.26,1.7,0.97,0.85
2022-01-30 16:53:11.0970,0.183,-0.792,-0.965,-0.49,2.19,1.71,1.77,0.68,0.9
2022-01-30 16:53:11.1080,0.161,-0.864,-1.068,-0.25,2.69,2.8,1.73,0.25,0.72
2022-01-30 16:53:11.1170,0.121,-0.879,-1.207,0.03,2.66,4.41,1.57,-0.47,0.25
2022-01-30 16:53:11.1270,0.157,-0.886,-1.443,-0.46,2.67,6.73,1.36,-1.24,-0.37
2022-01-30 16:53:11.1380,0.199,-0.934,-1.483,-0.46,2.67,6.73,1.28,-1.47,-0.83
2022-01-30 16:53:11.1470,0.187,-0.997,-1.356,-0.87,3.09,6.84,1.33,-1.22,-0.93
2022-01-30 16:53:11.1570,0.153,-1.032,-1.253,-0.41,3.79,4.75,1.43,-0.71,-0.7
2022-01-30 16:53:11.1670,0.119,-1.023,-1.155,-0.41,3.79,4.75,1.52,-0.08,-0.3
2022-01-30 16:53:11.1780,0.123,-1.009,-1.054,-0.09,3.57,3.88,1.52,0.51,0.13
2022-01-30 16:53:11.1880,0.177,-1.033,-0.962,-0.72,3.54,2.21,1.3,0.98,0.48
2022-01-30 16:53:11.1970,0.276,-1.096,-0.887,-1.68,4.13,1.55,0.86,1.32,0.67
2022-01-30 16:53:11.2080,0.393,-1.19,-0.806,-1.68,4.13,1.55,0.26,1.58,0.75
2022-01-30 16:53:11.2180,0.49,-1.343,-0.718,-2.77,5.08,0.77,-0.4,1.75,0.81
2022-01-30 16:53:11.2400,0.518,-1.434,-0.663,-3.68,7.38,-0.59,-1.07,1.77,0.78
2022-01-30 16:53:11.2420,0.471,-1.341,-0.661,-3.68,7.38,-0.59,-1.07,1.77,0.78
2022-01-30 16:53:11.2560,0.384,-1.206,-0.689,-2.12,5.23,-0.48,-1.87,1.45,0.43
2022-01-30 16:53:11.2570,0.289,-1.052,-0.684,-2.12,5.23,-0.48,-1.86,1.26,0.22
2022-01-30 16:53:11.2670,0.239,-0.891,-0.685,-1.15,3.82,-0.66,-1.66,1.06,0.06
2022-01-30 16:53:11.2760,0.214,-0.764,-0.68,-0.63,2.39,-0.72,-1.32,0.89,0.01
2022-01-30 16:53:11.2860,0.2,-0.662,-0.649,-0.34,1.29,-0.87,-0.91,0.74,0.11
2022-01-30 16:53:11.2960,0.188,-0.57,-0.618,-0.16,0.37,-1.23,-0.46,0.52,0.32
2022-01-30 16:53:11.3060,0.194,-0.495,-0.6,-0.03,-0.49,-1.53,-0.46,0.52,0.32
2022-01-30 16:53:11.3170,0.195,-0.436,-0.575,-0.18,-1.82,-1.94,0.4,-0.16,0.79
2022-01-30 16:53:11.3270,0.179,-0.375,-0.549,-0.18,-1.82,-1.94,0.78,-0.5,0.96
2022-01-30 16:53:11.3370,0.141,-0.309,-0.511,-0.1,-2.51,-2.16,1.09,-0.67,1.09
2022-01-30 16:53:11.3470,0.091,-0.261,-0.448,0.55,-3.8,-3.07,1.3,-0.63,1.21
2022-01-30 16:53:11.3580,0.06,-0.229,-0.384,0.71,-4.2,-3.62,1.37,-0.4,1.27
2022-01-30 16:53:11.3680,0.06,-0.237,-0.332,0.71,-4.17144633114338,-4.0079739689826965,1.31,-0.07,1.29
2022-01-30 16:53:11.3780,0.08,-0.272,-0.307,0.32,-3.93,-4.14,1.15,0.21,1.25
2022-01-30 16:53:11.3880,0.102,-0.3,-0.321,0.32,-3.93,-4.14,0.94,0.37,1.16
2022-01-30 16:53:11.3980,0.126,-0.329,-0.355,-0.23,-3.52,-3.49,0.7,0.43,1.04
2022-01-30 16:53:11.4090,0.142,-0.366,-0.402,-0.23,-3.52,-3.49,0.45,0.45,0.93
2022-01-30 16:53:11.4170,0.167,-0.437,-0.44,-0.42,-3.16,-2.99,0.23,0.52,0.87
2022-01-30 16:53:11.4280,0.194,-0.527,-0.482,-0.7,-2.45,-2.1522437220811845,0.23,0.52,0.87
2022-01-30 16:53:11.4390,0.207,-0.607,-0.552,-0.97,-1.58,-2.16,-0.02,0.77,0.87
2022-01-30 16:53:11.4480,0.21,-0.674,-0.632,-1.11,-0.19,-0.63,0.06,0.91,0.9
2022-01-30 16:53:11.4590,0.206,-0.727,-0.746,-1.05,0.29,0.55,0.29,0.97,0.93
2022-01-30 16:53:11.4680,0.206,-0.771,-0.847,-1.05,0.29,0.55,0.63,0.93,0.94
2022-01-30 16:53:11.4780,0.225,-0.821,-0.928,-1.3,1.1,2.44,0.63,0.93,0.94
2022-01-30 16:53:11.4890,0.246,-0.877,-1.028,-1.3,1.1,2.44,1.09,0.37,0.82
2022-01-30 16:53:11.4990,0.258,-0.93,-1.077,-1.68,2.01,3.95,1.19,0.1,0.69
2022-01-30 16:53:11.5090,0.271,-0.997,-1.062,-1.86,2.61,3.82,1.19,0.02,0.53
2022-01-30 16:53:11.5190,0.306,-1.072,-1.014,-1.86,2.61,3.82,1.04,0.11,0.38
2022-01-30 16:53:11.5290,0.337,-1.112,-0.959,-2.53,3.52,2.92,0.74,0.33,0.29
2022-01-30 16:53:11.5390,0.351,-1.088,-0.901,-2.53,3.52,2.92,0.74,0.33,0.29
2022-01-30 16:53:11.5480,0.343,-1.029,-0.836,-2.62,3.19,2.38,-0.22,1.04,0.3
2022-01-30 16:53:11.5580,0.328,-0.987,-0.775,-2.48,2.64,1.72,-0.8,1.43,0.43
2022-01-30 16:53:11.5680,0.306,-0.938,-0.753,-2.27,2.29,1.1,-1.4,1.72,0.61
2022-01-30 16:53:11.5790,0.268,-0.873,-0.757,-1.51,1.34,0.78,-1.93,1.94,0.83
2022-01-30 16:53:11.5890,0.21,-0.798,-0.763,-0.85,0.72,0.7,-2.31,2.09,1.05
2022-01-30 16:53:11.5990,0.134,-0.698,-0.769,-0.03,-0.12,0.62,-2.45,2.18,1.23
2022-01-30 16:53:11.6090,0.069,-0.615,-0.775,-0.03,-0.12,0.62,-2.34,2.18,1.36
2022-01-30 16:53:11.6190,0.015,-0.546,-0.775,1.21,-1.31,0.42,-2.01,2.06,1.47
2022-01-30 16:53:11.6290,-0.033,-0.475,-0.756,1.71,-1.91,0.12,-1.54,1.84,1.56
2022-01-30 16:53:11.6390,-0.078,-0.41,-0.707,2.16,-2.49,-0.43,-1.0,1.55,1.66
2022-01-30 16:53:11.6490,-0.114,-0.352,-0.645,2.47,-3.02,-1.06,-0.49,1.22,1.72
2022-01-30 16:53:11.6580,-0.139,-0.309,-0.578,2.47,-3.02,-1.06,-0.02,0.86,1.75
2022-01-30 16:53:11.6680,-0.16,-0.266,-0.52,2.78,-3.92,-2.24,0.37,0.52,1.71
2022-01-30 16:53:11.6780,-0.179,-0.229,-0.46,2.78,-3.92,-2.24,0.7,0.25,1.62
2022-01-30 16:53:11.6880,-0.19,-0.198,-0.392,2.88,-4.35,-2.8,0.99,0.09,1.48
2022-01-30 16:53:11.6980,-0.194,-0.175,-0.324,2.89,-4.72,-3.4,1.24,0.03,1.3
2022-01-30 16:53:11.7080,-0.191,-0.155,-0.27,2.72,-5.35,-4.39,1.42,0.04,1.09
2022-01-30 16:53:11.7180,-0.179,-0.139,-0.231,2.55,-5.6,-4.66,1.51,0.13,0.86
2022-01-30 16:53:11.7280,-0.166,-0.14,-0.195,2.55,-5.6,-4.66,1.51,0.27,0.64
2022-01-30 16:53:11.7380,-0.149,-0.158,-0.189,2.39,-5.68,-4.89,1.4,0.42,0.44
2022-01-30 16:53:11.7480,-0.126,-0.191,-0.204,2.21,-5.58,-4.81,1.2,0.59,0.26
2022-01-30 16:53:11.7590,-0.092,-0.25,-0.225,2.01,-5.31,-4.56,1.2,0.59,0.26
2022-01-30 16:53:11.7690,-0.043,-0.35,-0.282,1.68,-4.75,-4.25,0.69,0.8,0.04
2022-01-30 16:53:11.7780,0.003,-0.466,-0.375,1.24,-2.660174388885498,-2.5939991104602815,0.5,0.73,0.02
2022-01-30 16:53:11.7900,0.038,-0.588,-0.484,0.84,-2.67,-2.6,0.42,0.58,0.06
2022-01-30 16:53:11.7980,0.068,-0.75,-0.6,0.26,0.16,-0.29,0.46,0.4,0.14
2022-01-30 16:53:11.8100,0.107,-0.945,-0.73,0.26,0.16,-0.29,0.6,0.13,0.19
2022-01-30 16:53:11.8200,0.126,-1.096,-0.91,-0.12,2.03,1.04,0.75,-0.45,0.14
2022-01-30 16:53:11.8290,0.105,-1.146,-1.121,-0.12,3.69,4.99,0.88,-1.13,0.01
2022-01-30 16:53:11.8400,0.068,-1.187,-1.212,-0.12,3.69,4.99,1.02,-1.62,-0.07
2022-01-30 16:53:11.8490,0.06,-1.299,-1.24,0.13,4.11,5.82,1.15,-1.84,-0.09
2022-01-30 16:53:11.8590,0.082,-1.406,-1.244,0.05,5.2,6.14,1.15,-1.84,-0.09423995018005371
2022-01-30 16:53:11.8700,0.094,-1.433,-1.224,-0.47,6.2,6.07,1.28,-1.73,-0.05
2022-01-30 16:53:11.8800,0.082,-1.42,-1.137,-0.41,5.98,5.21,1.21,-1.36,0.06
2022-01-30 16:53:11.8900,0.065,-1.409,-0.999,-0.33,5.86,3.92,1.01,-0.87,0.24
2022-01-30 16:53:11.9000,0.067,-1.442,-0.877,-0.33,5.86,3.92,0.64,-0.41,0.43
2022-01-30 16:53:11.9100,0.076,-1.475,-0.793,-0.56,6.48,2.04,0.15,-0.04,0.55
2022-01-30 16:53:11.9200,0.08,-1.5,-0.718,-0.56,6.48,2.04,-0.37,0.28,0.59
2022-01-30 16:53:11.9300,0.064,-1.501,-0.659,-0.62,6.73,1.29,-0.86,0.54,0.56
2022-01-30 16:53:11.9400,0.026,-1.453,-0.619,-0.04,6.28,0.19,-1.27,0.69,0.46
2022-01-30 16:53:11.9500,-0.028,-1.372,-0.609,-0.04,6.28,0.19,-1.56,0.67,0.31
2022-01-30 16:53:11.9600,-0.07,-1.265,-0.631,0.9,4.57,0.13,-1.73,0.42,0.1
2022-01-30 16:53:11.9700,-0.089,-1.141,-0.668,1.06,3.47,0.36,-1.77,-0.02,-0.12
2022-01-30 16:53:11.9800,-0.089,-1.024,-0.693,1.04,2.45,0.43,-1.7,-0.55,-0.31
2022-01-30 16:53:11.9910,-0.078,-0.917,-0.687,1.04,2.45,0.43,-1.55,-1.08,-0.43
2022-01-30 16:53:12.0000,-0.07,-0.811,-0.674,0.88,1.5,0.24,-1.33,-1.55,-0.48
2022-01-30 16:53:12.0100,-0.072,-0.702,-0.643,0.74,0.55,0.0,-1.08,-1.88,-0.49
2022-01-30 16:53:12.0200,-0.079,-0.586,-0.591,0.7,-0.46,-0.41,-0.85,-2.06,-0.49
2022-01-30 16:53:12.0310,-0.09,-0.485,-0.538,0.66,-1.54,-1.0,-0.65,-2.08,-0.46
2022-01-30 16:53:12.0400,-0.108,-0.402,-0.489,0.75,-3.22,-2.06,-0.5,-1.95,-0.41
2022-01-30 16:53:12.0510,-0.128,-0.328,-0.451,0.75,-3.22,-2.06,-0.41,-1.73,-0.35
2022-01-30 16:53:12.0600,-0.137,-0.27,-0.445,0.84,-3.91,-2.44,-0.42,-1.52,-0.33
2022-01-30 16:53:12.0710,-0.137,-0.237,-0.464,0.76,-4.68,-2.31,-0.46,-1.31,-0.37
2022-01-30 16:53:12.0810,-0.134,-0.226,-0.467,0.69,-4.75,-2.32,-0.46,-1.31,-0.37
2022-01-30 16:53:12.0910,-0.137,-0.214,-0.474,0.69,-4.75,-2.32,-0.39,-0.86,-0.61
2022-01-30 16:53:12.1000,-0.153,-0.2,-0.49,0.72,-4.85,-2.26,-0.24,-0.65,-0.78
2022-01-30 16:53:12.1110,-0.157,-0.203,-0.498,0.88,-4.97,-2.11,-0.06,-0.45,-0.94
2022-01-30 16:53:12.1210,-0.155,-0.23,-0.51,0.98,-4.62,-1.9,0.13,-0.31,-1.07
2022-01-30 16:53:12.1310,-0.152,-0.275,-0.533,1.0,-4.21,-1.66,0.28,-0.26,-1.14
2022-01-30 16:53:12.1410,-0.151,-0.316,-0.553,1.05,-3.83,-1.43,0.39,-0.28,-1.16
2022-01-30 16:53:12.1510,-0.145,-0.376,-0.571,1.05,-3.83,-1.43,0.44,-0.32,-1.13
2022-01-30 16:53:12.1610,-0.12,-0.486,-0.589,1.04,-3.22,-1.23,0.44,-0.32,-1.13
2022-01-30 16:53:12.1710,-0.076,-0.632,-0.647,0.4,-0.7,-0.33,0.47,-0.49,-0.95
2022-01-30 16:53:12.1810,-0.036,-0.778,-0.748,0.04,0.67,0.71,0.49,-0.76,-0.82
2022-01-30 16:53:12.1910,-0.021,-0.898,-0.858,-0.1,1.78,1.85,0.53,-1.18,-0.7
2022-01-30 16:53:12.2010,-0.044,-0.988,-0.974,-0.1,1.78,1.85,0.53,-1.18,-0.7
2022-01-30 16:53:12.2110,-0.094,-1.054,-1.053,0.53,3.16,3.81,0.58,-2.06,-0.65
2022-01-30 16:53:12.2210,-0.152,-1.089,-1.115,0.53,3.16,3.81,0.53,-2.37,-0.75
2022-01-30 16:53:12.2310,-0.191,-1.13,-1.104,1.24,3.85,4.25,0.48,-2.4,-0.87
2022-01-30 16:53:12.2420,-0.195,-1.197,-1.046,1.24,3.85,4.25,0.42,-2.19,-1.0
2022-01-30 16:53:12.2500,-0.179,-1.226,-1.008,0.97,4.65,3.4,0.29,-1.88,-1.13
2022-01-30 16:53:12.2610,-0.155,-1.215,-0.938,0.71,4.53,2.66,0.07,-1.49,-1.19
2022-01-30 16:53:12.2710,-0.126,-1.204,-0.86,0.71,4.53,2.66,-0.29,-1.22,-1.19
2022-01-30 16:53:12.2810,-0.102,-1.142,-0.836,0.43,4.4,1.94,-0.8,-1.16,-1.23
2022-01-30 16:53:12.2920,-0.086,-1.056,-0.825,0.22,3.77,1.7,-1.38,-1.18,-1.28
2022-01-30 16:53:12.3010,-0.078,-0.996,-0.787,0.09,3.02,1.48,-1.85,-1.11,-1.36
2022-01-30 16:53:12.3110,-0.075,-0.915,-0.736,0.05,1.85,0.32,-1.85,-1.11,-1.36
2022-01-30 16:53:12.3220,-0.063,-0.809,-0.701,0.05,1.85,0.32,-2.13,-0.71,-1.56
2022-01-30 16:53:12.3310,-0.049,-0.708,-0.675,-0.07,0.1,-0.55,-1.95,-0.5,-1.61
2022-01-30 16:53:12.3420,-0.039,-0.619,-0.622,-0.07,0.1,-0.55,-1.67,-0.29,-1.6
2022-01-30 16:53:12.3520,-0.027,-0.542,-0.562,-0.12,-1.3,-1.88,-1.35,-0.15,-1.51
2022-01-30 16:53:12.3610,-0.007,-0.479,-0.503,-0.25,-1.82,-2.53,-1.03,-0.06,-1.39
2022-01-30 16:53:12.3720,0.024,-0.436,-0.436,-0.25,-1.82,-2.53,-0.65,0.01,-1.25
2022-01-30 16:53:12.3820,0.056,-0.41,-0.369,-0.48,-2.17,-3.24,-0.21,0.04,-1.07
2022-01-30 16:53:12.3920,0.082,-0.403,-0.311,-0.72,-2.4,-3.9,0.29,0.05,-0.84
2022-01-30 16:53:12.4010,0.096,-0.408,-0.25,-0.91,-2.46,-5.0,0.29,0.05,-0.84
2022-01-30 16:53:12.4120,0.1,-0.414,-0.188,-1.0,-2.5,-5.53,1.29,0.05,-0.26
2022-01-30 16:53:12.4220,0.094,-0.406,-0.115,-0.9098355263471604,-2.74,-6.14,1.73,0.09,0.01
2022-01-30 16:53:12.4320,0.076,-0.372,-0.057,-0.91,-2.74,-6.14,2.04,0.12,0.19
2022-01-30 16:53:12.4410,0.072,-0.335,-0.028,-0.74,-3.24,-6.53,2.14,0.16,0.23
2022-01-30 16:53:12.4520,0.086,-0.322,-0.024,-0.74,-3.72,-6.65,2.05,0.2,0.18
2022-01-30 16:53:12.4620,0.061,-0.312,-0.041,-0.85,-3.97,-6.51,2.05,0.2,0.18
2022-01-30 16:53:12.4720,0.055,-0.308,-0.07,-0.57,-4.19,-6.2,1.51,0.22,-0.08
2022-01-30 16:53:12.4820,0.07,-0.339,-0.14,-0.62,-4.01,-4.96,1.14,0.15,-0.21
2022-01-30 16:53:12.4920,0.051,-0.432,-0.169,-0.46,-3.08,-4.78,0.77,0.28,-0.3
2022-01-30 16:53:12.5020,0.109,-0.539,-0.141,-0.46,-3.08,-4.78,0.77,0.28,-0.3
2022-01-30 16:53:12.5200,0.152,-0.63,-0.25,-1.33,-1.18,-3.66,0.4,0.52,-0.38
2022-01-30 16:53:12.5220,0.183,-0.738,-0.475,-1.56,-0.08,-1.48,-0.01,0.57,-0.43
2022-01-30 16:53:12.5400,0.21,-0.837,-0.591,-1.74,0.88,-0.55,-0.34,0.46,-0.49
2022-01-30 16:53:12.5430,0.215,-0.915,-0.661,-1.74,0.88,-0.55,-0.32,0.64,-0.71
2022-01-30 16:53:12.5510,0.196,-0.995,-0.811,-1.66,1.66,0.21,-0.06,0.69,-0.78
2022-01-30 16:53:12.5610,0.176,-1.104,-0.954,-1.06,3.57,3.09,0.3,0.69,-0.75
2022-01-30 16:53:12.5710,0.17,-1.233,-1.046,-1.06,3.57,3.09,0.69,0.63,-0.63
2022-01-30 16:53:12.5810,0.194,-1.329,-1.126,-0.96,4.79,4.02,1.08,0.47,-0.52
2022-01-30 16:53:12.6000,0.24,-1.367,-1.155,-1.56,5.83,5.14,1.4,0.34,-0.46
2022-01-30 16:53:12.6010,0.288,-1.367,-1.082,-1.56,5.83,5.14,1.57,0.35,-0.44
2022-01-30 16:53:12.6200,0.34,-1.387,-0.946,-2.44,5.88,3.17,1.52,0.53,-0.39
2022-01-30 16:53:12.6200,0.393,-1.443,-0.783,-2.44,5.88,3.17,1.21,0.77,-0.26
2022-01-30 16:53:12.6310,0.431,-1.512,-0.664,-2.88,6.4,1.69,1.21,0.77,-0.26
2022-01-30 16:53:12.6410,0.441,-1.564,-0.595,-3.16,7.03,0.66,0.02,0.99,0.16
2022-01-30 16:53:12.6510,0.42,-1.602,-0.557,-3.19,7.51,0.04,-0.66,0.99,0.37
2022-01-30 16:53:12.6610,0.375,-1.618,-0.519,-2.92,7.9,-0.36,-1.27,1.03,0.56
2022-01-30 16:53:12.6710,0.322,-1.621,-0.484,-2.44,8.1,-0.83,-1.77,1.12,0.74
2022-01-30 16:53:12.6810,0.264,-1.613,-0.476,-1.91,8.22,-1.28,-2.16,1.16,0.9
2022-01-30 16:53:12.6910,0.195,-1.541,-0.549,-1.33,8.21,-1.44,-2.4,0.93,0.99
2022-01-30 16:53:12.7020,0.108,-1.4,-0.689,0.18,6.25,0.41,-2.39,0.49,1.0
2022-01-30 16:53:12.7130,0.012,-1.234,-0.751,1.05,4.73,0.74,-2.08,0.05,0.92
2022-01-30 16:53:12.7230,-0.068,-1.06,-0.744,1.05,4.73,0.74,-1.56,-0.31,0.81
2022-01-30 16:53:12.7330,-0.123,-0.893,-0.692,1.74,3.13,0.51,-0.97,-0.55,0.7
2022-01-30 16:53:12.7430,-0.145,-0.736,-0.605,2.23,0.07,-1.05,-0.47,-0.67,0.61
2022-01-30 16:53:12.7520,-0.135,-0.6,-0.501,2.23,0.07,-1.05,-0.14,-0.68,0.55
2022-01-30 16:53:12.7630,-0.107,-0.482,-0.405,1.65,-2.37,-3.02,0.02,-0.61,0.5
2022-01-30 16:53:12.7730,-0.073,-0.378,-0.324,1.65,-2.37,-3.02,0.04,-0.46,0.45
2022-01-30 16:53:12.7830,-0.038,-0.285,-0.261,0.87,-4.29,-4.39,-0.03,-0.26,0.41
2022-01-30 16:53:12.7940,-0.005,-0.207,-0.215,0.87,-4.29,-4.39,-0.14,0.0,0.35
2022-01-30 16:53:12.8030,0.029,-0.152,-0.176,0.52,-5.02,-4.84,-0.25,0.36,0.3
2022-01-30 16:53:12.8130,0.068,-0.109,-0.137,-0.17,-5.89,-5.65,-0.33,0.82,0.27
2022-01-30 16:53:12.8230,0.118,-0.086,-0.098,-0.17,-5.89,-5.65,-0.37,1.35,0.25
2022-01-30 16:53:12.8330,0.176,-0.089,-0.075,-0.6,-6.07,-6.03,-0.37,1.83,0.21
2022-01-30 16:53:12.8430,0.237,-0.104,-0.081,-1.06,-5.99,-6.25,-0.35,2.15,0.1
2022-01-30 16:53:12.8520,0.287,-0.132,-0.111,-1.51,-5.8,-6.15,-0.38,2.32,-0.08
2022-01-30 16:53:12.8620,0.325,-0.132,-0.136,-1.82,-5.51,-5.89,-0.54,2.28,-0.31
2022-01-30 16:53:12.8730,0.363,-0.145,-0.188,-2.0,-5.48,-5.57,-0.82,2.24,-0.57
Time,0.404,-0.212,-0.202,-2.38,-4.4,-5.04,-1.21,2.22,-0.73
2022-01-30 16:53:12.8930,0.453,-0.326,-0.255,-2.38,-4.4,-5.04,-1.65,2.3,-0.77
2022-01-30 16:53:12.9030,0.527,-0.426,-0.336,-2.69,-3.14,-4.57,-2.05,2.43,-0.67
2022-01-30 16:53:12.9130,0.585,-0.499,-0.486,-3.53,-1.19,-2.27,-2.05,2.43,-0.67
2022-01-30 16:53:12.9240,0.618,-0.514,-0.742,-3.53,-1.19,-2.27,-2.11,2.06,-0.17
2022-01-30 16:53:12.9340,0.64,-0.487,-0.952,-3.7477684870362284,-1.096482158303261,2.1,-2.11,2.06,-0.17
2022-01-30 16:53:12.9520,0.648,-0.52,-1.099,-3.74,-0.64,3.49,-1.54,1.72,0.14
2022-01-30 16:53:12.9530,0.648,-0.598,-1.211,-3.67,0.09,4.58,0.11,1.31,0.88
2022-01-30 16:53:12.9620,0.618,-0.647,-1.273,-3.67,0.09,4.58,0.73,1.32,1.15
2022-01-30 16:53:12.9720,0.573,-0.671,-1.268,-3.31,0.44,5.18,1.04,1.47,1.25
2022-01-30 16:53:12.9820,0.574,-0.726,-1.214,-2.86,0.56,5.17,1.04,1.73,1.24
2022-01-30 16:53:12.9930,0.613,-0.842,-1.155,-3.25,2.17,4.24,0.87,2.01,1.15
2022-01-30 16:53:13.0040,0.7,-0.956,-1.079,-4.05,3.14,3.6,0.63,2.16,0.97
2022-01-30 16:53:13.0140,0.779,-1.003,-1.016,-4.675542978644371,3.49,3.03,0.33,2.21,0.77
2022-01-30 16:53:13.0240,0.827,-0.999,-0.92,-4.68,3.49,3.03,-0.08,2.15,0.6
2022-01-30 16:53:13.0340,0.823,-0.901,-0.85,-4.99,3.36,2.15,-0.71,1.89,0.45
2022-01-30 16:53:13.0440,0.774,-0.755,-0.817,-4.79,2.31,1.52,-1.6,1.36,0.37
2022-01-30 16:53:13.0540,0.711,-0.672,-0.858,-4.21,1.0,1.22,-2.73,0.6,0.43
2022-01-30 16:53:13.0640,0.652,-0.709,-0.913,-3.58,0.51,1.54,-3.9,-0.22,0.66
2022-01-30 16:53:13.0740,0.557,-0.741,-0.977,-3.04,1.22,1.81,-3.9,-0.22,0.66
2022-01-30 16:53:13.0840,0.399,-0.653,-1.115,-0.76,1.12,3.28,-5.32,-1.82,1.25
2022-01-30 16:53:13.0940,0.203,-0.517,-1.217,-0.76,1.12,3.28,-5.22,-2.37,1.46
2022-01-30 16:53:13.1030,0.048,-0.356,-1.23,2.06,-1.1,3.61,-4.8,-2.82,1.55
2022-01-30 16:53:13.1150,-0.089,-0.201,-1.237,3.03,-2.23,3.48,-4.36,-3.47,1.56
2022-01-30 16:53:13.1250,-0.213,-0.083,-1.299,3.03,-2.23,3.48,-4.11,-4.17,1.69
2022-01-30 16:53:13.1340,-0.285,-0.083,-1.031,3.93,-2.5,0.49,-3.86,-4.4,1.94
2022-01-30 16:53:13.1440,-0.332,-0.116,-0.707,3.95,-1.91,-2.67,-3.58,-4.28,2.3
2022-01-30 16:53:13.1540,-0.366,-0.124,-0.5,3.77,-1.57,-4.7,-3.21,-3.86,2.66
2022-01-30 16:53:13.1640,-0.353,-0.073,-0.417,3.24,-1.89,-5.4,-2.77,-3.43,2.84
2022-01-30 16:53:13.1740,-0.323,-0.044,-0.397,3.24,-1.89,-5.4,-2.31,-2.91,2.94
2022-01-30 16:53:13.1840,-0.253,-0.068,-0.329,2.53,-1.81,-5.7,-1.88,-2.32,2.97
2022-01-30 16:53:13.1940,-0.179,-0.07,-0.261,0.6,-1.22,-7.08,-1.47,-1.67,2.96
2022-01-30 16:53:13.2050,-0.1,-0.054,-0.224,0.6,-1.22,-7.08,-1.47,-1.67,2.96
2022-01-30 16:53:13.2140,-0.056,-0.011,-0.228,-0.32,-1.28,-7.4,-0.66,-0.27,2.76
2022-01-30 16:53:13.2250,-0.063,0.017,-0.238,-0.74,-1.61,-7.33,-0.26,0.57,2.55
2022-01-30 16:53:13.2340,-0.06,0.017,-0.24,-0.64,-1.78,-7.26,0.16,1.56,2.27
2022-01-30 16:53:13.2450,-0.041,0.004,-0.259,-0.56,-1.66,-7.06,0.62,2.64,1.94
2022-01-30 16:53:13.2550,0.001,-0.005,-0.282,-0.56,-1.66,-7.06,0.62,2.64,1.94
2022-01-30 16:53:13.2650,0.079,-0.011,-0.308,-0.68,-1.67,-6.85,1.62,4.86,1.27
2022-01-30 16:53:13.2750,0.184,-0.002,-0.351,-1.55,-2.1,-6.06,2.19,5.86,1.01
2022-01-30 16:53:13.2850,0.282,0.023,-0.425,-1.55,-2.1,-6.06,2.81,6.66,0.81
2022-01-30 16:53:13.2950,0.34,0.014,-0.523,-1.71,-2.76,-4.0,2.81,6.66,0.81
2022-01-30 16:53:13.3030,0.354,-0.106,-0.725,-1.19,-1.81,-1.46,4.25,6.96,0.59
2022-01-30 16:53:13.3150,0.34,-0.359,-1.182,-0.5,0.34,3.38,4.85,6.16,0.48
2022-01-30 16:53:13.3250,0.343,-0.608,-1.394,-0.12,2.21,5.4,5.24,5.17,0.21
2022-01-30 16:53:13.3350,0.302,-0.79,-1.668,-0.12,2.21,5.4,4.61,2.09,0.04
2022-01-30 16:53:13.3440,0.255,-1.003,-2.937,0.7059559804201126,5.42,21.69,2.61,-2.6,0.07
2022-01-30 16:53:13.3550,0.301,-0.97,-2.281,-0.11,4.52,11.94,1.29,-3.47,-0.12
2022-01-30 16:53:13.3650,0.332,-0.685,-0.912,-0.45,1.72,0.41,0.54,-2.74,-0.45
2022-01-30 16:53:13.3750,0.231,-0.497,-1.068,-0.45,1.72,0.41,0.19,-2.07,-0.76
2022-01-30 16:53:13.3840,0.139,-0.297,-1.249,0.47,-0.05,2.68,0.31,-1.31,-1.15
2022-01-30 16:53:13.3950,0.013,-0.359,-1.397,1.31,-1.97,4.11,0.48,-0.91,-1.1
2022-01-30 16:53:13.4050,-0.078,-0.772,-1.642,3.29,3.29,8.07,0.48,-0.91,-1.1
2022-01-30 16:53:13.4150,-0.112,-1.018,-1.726,3.29,3.29,8.07,0.18,-0.9,0.16
2022-01-30 16:53:13.4250,-0.125,-1.108,-1.528,3.52,5.4,8.62,-0.03,-0.4451353847980499,0.16
2022-01-30 16:53:13.4360,-0.108,-1.127,-1.224,3.53,6.17,6.31,-0.27,0.02,0.96
2022-01-30 16:53:13.4450,-0.069,-1.075,-1.161,2.79,5.74,3.14,-0.64,-0.0,1.05
2022-01-30 16:53:13.4550,0.049,-1.114,-1.238,1.57,6.47,3.87,-0.91,-0.39,1.07
2022-01-30 16:53:13.4650,0.055,-1.256,-1.217,1.57,6.47,3.87,-0.93,-0.84,0.97
2022-01-30 16:53:13.4750,0.112,-1.133,-1.0,0.64,6.29,1.11,-0.85,-1.23,0.68
2022-01-30 16:53:13.4860,0.221,-0.934,-0.935,0.64,6.29,1.11,-0.76,-1.82,0.25
2022-01-30 16:53:13.4960,0.266,-0.741,-1.001,-1.11,2.57,1.21,-0.74,-2.4,-0.29
2022-01-30 16:53:13.5050,0.278,-0.517,-0.954,-1.11,2.57,1.21,-0.78,-2.69,-0.83
2022-01-30 16:53:13.5150,0.232,-0.38,-0.869,-1.38,0.49,0.55,-0.88,-2.71,-1.21
2022-01-30 16:53:13.5250,0.139,-0.291,-0.802,-1.03,-0.63,-0.34,-1.0,-2.5,-1.43
2022-01-30 16:53:13.5350,0.042,-0.193,-0.684,-0.25,-1.41,-1.07,-1.12,-2.0,-1.54
2022-01-30 16:53:13.5460,-0.052,-0.157,-0.548,0.57,-2.23,-2.39,-1.27,-1.33,-1.57
2022-01-30 16:53:13.5550,-0.182,-0.142,-0.502,1.47,-2.39,-3.7,-1.41,-0.59,-1.53
2022-01-30 16:53:13.5660,-0.252,-0.158,-0.478,2.74,-2.37,-4.13,-1.48,0.19,-1.46
2022-01-30 16:53:13.5750,-0.226,-0.183,-0.437,3.37,-2.02,-4.43,-1.45,1.05,-1.39
2022-01-30 16:53:13.5860,-0.158,-0.199,-0.405,3.17,-1.66,-4.89,-1.45,1.05,-1.39
2022-01-30 16:53:13.5960,-0.096,-0.235,-0.401,2.35,-0.85,-5.22,-1.34,1.79,-1.38
2022-01-30 16:53:13.6060,0.007,-0.266,-0.415,2.35,-0.85,-5.22,-0.95,2.96,-1.37
2022-01-30 16:53:13.6160,0.087,-0.267,-0.542,1.62,-0.46,-5.01,-0.82,2.89,-1.32
2022-01-30 16:53:13.6260,0.087,-0.205,-0.861,1.23,-0.41,-3.46,-0.77,2.24,-1.27
2022-01-30 16:53:13.6360,0.072,-0.141,-0.847,1.89,-1.46,-1.09,-0.67,2.04,-1.27
2022-01-30 16:53:13.6460,0.074,-0.119,-0.553,1.89,-1.46,-1.09,-0.5,2.25,-1.32
2022-01-30 16:53:13.6560,0.074,-0.11,-0.515,2.35,-1.58,-3.73,-0.33,2.28,-1.44
2022-01-30 16:53:13.6660,0.08,-0.079,-0.683,2.35,-1.58,-3.73,-0.15,1.97,-1.64
2022-01-30 16:53:13.6760,0.097,-0.046,-0.811,2.49,-1.84,-1.98,0.08,1.55,-1.89
2022-01-30 16:53:13.6860,0.12,-0.046,-0.866,2.44,-2.0,-0.25,0.42,1.24,-2.16
2022-01-30 16:53:13.6960,0.144,-0.062,-0.88,2.44,-2.0,-0.25,0.84,1.1,-2.39
2022-01-30 16:53:13.7060,0.185,-0.052,-0.947,2.07,-1.9809220576286317,0.77,1.28,1.02,-2.56
2022-01-30 16:53:13.7160,0.237,-0.029,-1.029,2.07,-1.99,0.77,1.66,1.12,-2.58
2022-01-30 16:53:13.7260,0.285,-0.041,-1.078,1.73,-2.24,1.61,1.66,1.12,-2.58
2022-01-30 16:53:13.7360,0.384,-0.12,-1.125,1.41,-2.1,2.2,2.12,1.7,-2.22
2022-01-30 16:53:13.7460,0.54,-0.222,-1.182,0.55,-1.34,2.77,2.08,1.82,-2.03
2022-01-30 16:53:13.7560,0.724,-0.313,-1.28,-0.82,-0.42,3.53,1.87,1.7,-2.0
2022-01-30 16:53:13.7660,0.883,-0.387,-1.322,-3.75,1.08,5.03,1.59,1.44,-2.14
2022-01-30 16:53:13.7760,0.98,-0.44,-1.31,-3.75,1.08,5.03,1.3,1.02,-2.37
2022-01-30 16:53:13.7860,0.999,-0.431,-1.318,-4.47,1.58,5.0,0.98,0.4,-2.63
2022-01-30 16:53:13.7960,0.945,-0.344,-1.341,-4.46,1.44,5.16,0.98,0.4,-2.63
2022-01-30 16:53:13.8060,0.865,-0.237,-1.415,-3.1,-0.24,6.13,0.03,-1.57,-3.08
2022-01-30 16:53:13.8170,0.803,-0.149,-1.523,-2.65,-0.83,6.98,-0.52,-2.7,-3.22
2022-01-30 16:53:13.8270,0.754,-0.12,-1.531,-2.65,-0.83,6.98,-0.83,-3.38,-3.23
2022-01-30 16:53:13.8360,0.681,-0.151,-1.421,-1.84,-0.24,5.34,-0.76,-3.45,-3.02
2022-01-30 16:53:13.8470,0.593,-0.214,-1.256,-1.84,-0.24,5.34,-0.35,-3.07,-2.62
2022-01-30 16:53:13.8560,0.505,-0.272,-1.095,-0.53,1.16,1.9,0.28,-2.54,-2.12
2022-01-30 16:53:13.8670,0.449,-0.305,-0.955,-0.53,1.16,1.9,0.98,-2.01,-1.64
2022-01-30 16:53:13.8760,0.429,-0.329,-0.814,-0.19,1.44,0.47,1.68,-1.57,-1.21
2022-01-30 16:53:13.8870,0.415,-0.346,-0.666,-0.13,1.58,-0.97,2.29,-1.26,-0.85
2022-01-30 16:53:13.8960,0.393,-0.35,-0.536,-0.08,1.57,-2.42,2.77,-1.14,-0.58
2022-01-30 16:53:13.9070,0.378,-0.338,-0.422,0.05,1.36,-3.66,3.1,-1.18,-0.44
2022-01-30 16:53:13.9170,0.377,-0.324,-0.309,0.08,0.98,-4.75,3.31,-1.27,-0.43
2022-01-30 16:53:13.9270,0.37,-0.317,-0.193,-0.02,0.58,-5.84,3.44,-1.34,-0.52
2022-01-30 16:53:13.9370,0.33,-0.277,-0.113,0.27,-0.47,-7.6,3.53,-1.37,-0.63
2022-01-30 16:53:13.9470,0.345,-0.273,-0.024,0.27,-0.47,-7.6,3.53,-1.28,-0.73
2022-01-30 16:53:13.9570,0.341,-0.281,0.035,-0.01,-0.72,-8.42,3.37,-1.18,-0.85
2022-01-30 16:53:13.9670,0.33,-0.256,0.029,0.0,-0.94,-8.83,3.09,-1.11,-1.03
2022-01-30 16:53:13.9770,0.341,-0.224,0.008,0.02,-1.44,-8.64,2.72,-1.07,-1.24
2022-01-30 16:53:13.9870,0.35,-0.209,-0.037,-0.13,-1.92,-8.36,2.23,-1.1,-1.45
2022-01-30 16:53:13.9970,0.368,-0.221,-0.119,-0.48,-2.11,-6.95,1.63,-1.17,-1.62
2022-01-30 16:53:14.0070,0.41,-0.257,-0.228,-0.48,-2.11,-6.95,0.94,-1.3,-1.79
2022-01-30 16:53:14.0170,0.469,-0.314,-0.379,-0.95,-1.75,-5.82,0.19,-1.42,-1.95
2022-01-30 16:53:14.0270,0.528,-0.372,-0.528,-1.58,-1.13,-4.36,-0.53,-1.43,-2.09
2022-01-30 16:53:14.0370,0.544,-0.406,-0.663,-2.25,-0.01,-1.76,-1.2,-1.24,-2.16
2022-01-30 16:53:14.0470,0.496,-0.404,-0.798,-1.7,0.13,-0.47,-1.68,-0.82,-2.08
2022-01-30 16:53:14.0580,0.36,-0.371,-0.928,-1.7,0.13,-0.47,-1.68,-0.82,-2.08
2022-01-30 16:53:14.0670,0.136,-0.337,-1.054,-0.12,0.02,0.59,-2.07,0.78,-1.43
2022-01-30 16:53:14.0770,-0.014,-0.302,-1.235,2.15,-0.08,1.96,-1.92,1.56,-0.94
2022-01-30 16:53:14.0870,-0.055,-0.263,-1.395,3.67,-0.25,3.68,-1.59,2.2,-0.5
2022-01-30 16:53:14.0980,0.06,-0.244,-1.487,3.03,-0.5,6.13,-1.14,2.63,-0.21
2022-01-30 16:53:14.1080,0.286,-0.26,-1.553,0.98,-0.22,6.82,-0.64,2.87,-0.03
2022-01-30 16:53:14.1180,0.557,-0.324,-1.516,-1.46,0.46,6.39,-0.12,3.12,0.09
2022-01-30 16:53:14.1280,0.846,-0.425,-1.384,-4.01,1.41,5.33,0.36,3.21,0.12
2022-01-30 16:53:14.1380,1.059,-0.482,-1.422,-5.71,1.87,6.06,0.57,2.71,0.05
2022-01-30 16:53:14.1480,1.132,-0.529,-1.505,-6.14,2.34,6.84,0.57,2.71,0.05
2022-01-30 16:53:14.1580,1.109,-0.61,-1.448,-5.75,3.16,6.19,0.02,0.96,-0.08
2022-01-30 16:53:14.1680,1.052,-0.695,-1.338,-5.75,3.16,6.19,-0.47,0.23,-0.02
2022-01-30 16:53:14.1770,1.018,-0.779,-1.24,-4.91,4.9,4.12,-0.47,0.23,-0.02
2022-01-30 16:53:14.1870,1.007,-0.844,-1.153,-4.88,5.54,3.24,-0.9,-0.77,0.24
2022-01-30 16:53:14.1970,0.991,-0.849,-1.095,-4.88,5.54,3.24,-0.74,-1.16,0.31
2022-01-30 16:53:14.2060,0.931,-0.803,-1.043,-4.8,5.56,2.63,-0.42,-1.5,0.33
2022-01-30 16:53:14.2160,0.818,-0.743,-0.979,-4.26,5.1,2.01,-0.06,-1.81,0.39
2022-01-30 16:53:14.2260,0.702,-0.69,-0.888,-2.35,3.94,0.26,0.25,-2.03,0.47
2022-01-30 16:53:14.2370,0.61,-0.625,-0.771,-2.35,3.94,0.26,0.44,-2.14,0.5
2022-01-30 16:53:14.2460,0.542,-0.527,-0.663,-1.67,3.2,-0.97,0.46,-2.16,0.47
2022-01-30 16:53:14.2560,0.483,-0.441,-0.56,-1.21,2.17,-2.1,0.36,-2.06,0.4
2022-01-30 16:53:14.2660,0.432,-0.378,-0.459,-0.84,1.32,-3.18,0.18,-1.86,0.31
2022-01-30 16:53:14.2760,0.387,-0.322,-0.365,-0.22,0.14,-5.19,-0.03,-1.54,0.22
2022-01-30 16:53:14.2870,0.355,-0.272,-0.287,-0.03,-0.31,-5.97,-0.29,-1.15,0.09
2022-01-30 16:53:14.2970,0.352,-0.223,-0.233,-0.03,-0.31,-5.97,-0.63,-0.64,-0.11
2022-01-30 16:53:14.3070,0.37,-0.185,-0.168,-0.09,-0.74,-6.54,-1.03,0.01,-0.35
2022-01-30 16:53:14.3170,0.388,-0.172,-0.1,-0.26,-0.97,-7.22,-1.43,0.75,-0.61
2022-01-30 16:53:14.3270,0.396,-0.157,-0.047,-0.35,-0.95,-7.89,-1.79,1.52,-0.86
2022-01-30 16:53:14.3370,0.396,-0.123,-0.013,-0.27,-0.92,-8.38,-2.1,2.19,-1.09
2022-01-30 16:53:14.3470,0.386,-0.086,-0.013,-0.04,-1.04,-8.65,-2.3,2.65,-1.24
2022-01-30 16:53:14.3570,0.378,-0.07,-0.033,0.33,-1.14,-8.55,-2.38,2.9,-1.3
2022-01-30 16:53:14.3670,0.406,-0.104,-0.06,0.66,-1.0,-8.27,-2.3,3.02,-1.24
2022-01-30 16:53:14.3770,0.469,-0.143,-0.047,0.6,-0.35,-7.91,-2.12,3.03,-1.08
2022-01-30 16:53:14.3870,0.514,-0.156,-0.121,0.26,0.22,-7.95,-1.83,2.71,-0.81
2022-01-30 16:53:14.3970,0.578,-0.158,-0.206,-0.4,0.68,-6.13,-1.49,2.25,-0.43
2022-01-30 16:53:14.4070,0.613,-0.138,-0.275,-0.55,0.54,-5.23,-1.12,1.51,0.02
2022-01-30 16:53:14.4170,0.608,-0.086,-0.433,-0.55,0.54,-5.23,-0.77,0.61,0.53
2022-01-30 16:53:14.4270,0.608,-0.022,-0.545,-0.44,0.03,-3.67,-0.47,-0.3,0.99
2022-01-30 16:53:14.4370,0.626,0.031,-0.631,-0.49,-0.61,-2.65,-0.25,-0.95,1.37
2022-01-30 16:53:14.4470,0.675,0.064,-0.693,-0.79,-1.17,-1.87,-0.09,-1.18,1.67
2022-01-30 16:53:14.4570,0.735,0.085,-0.756,-1.4,-1.53,-1.35,-0.09,-1.18,1.67
2022-01-30 16:53:14.4670,0.8,0.129,-0.826,-2.09,-1.86,-0.75,-0.14,-0.22,2.09
2022-01-30 16:53:14.4770,0.872,0.168,-1.016,-2.77,-2.4,-0.05,-0.41,0.54,2.26
2022-01-30 16:53:14.4870,0.946,0.168,-1.24,-3.46,-2.83,2.02,-0.73,1.22,2.35
2022-01-30 16:53:14.4970,1.02,0.146,-1.413,-4.72,-2.69,5.94,-0.93,1.7,2.3
2022-01-30 16:53:14.5080,1.058,0.14,-1.547,-4.72,-2.69,5.94,-0.98,1.99,2.1
2022-01-30 16:53:14.5190,1.038,0.117,-1.588,-4.48,-2.45,7.67,-0.9,2.12,1.85
2022-01-30 16:53:14.5280,0.978,0.094,-1.594,-4.48,-2.45,7.67,-0.81,2.0,1.56
2022-01-30 16:53:14.5380,0.903,0.103,-1.603,-3.73,-2.27,7.83,-0.75,1.55,1.19
2022-01-30 16:53:14.5480,0.836,0.13,-1.594,-2.89,-2.41,8.0,-0.76,0.86,0.74
2022-01-30 16:53:14.5570,0.82,0.126,-1.555,-2.21,-2.64,7.91,-0.88,0.09,0.22
2022-01-30 16:53:14.5680,0.85,0.084,-1.498,-2.13,-2.49,7.49,-0.88,0.09,0.22
2022-01-30 16:53:14.5780,0.853,0.04,-1.415,-2.48,-1.96,6.86,-1.3,-1.15,-0.61
2022-01-30 16:53:14.5880,0.77,0.017,-1.281,-2.5,-1.41,5.91,-1.48,-1.35,-0.66
2022-01-30 16:53:14.5980,0.649,-0.0,-1.121,-1.7,-1.05,4.44,-1.57,-1.37,-0.44
2022-01-30 16:53:14.6080,0.543,-0.034,-0.994,-0.62,-0.72,2.8,-1.56,-1.38,-0.03
2022-01-30 16:53:14.6180,0.451,-0.081,-0.901,0.29,-0.24,1.51,-1.46,-1.47,0.48
2022-01-30 16:53:14.6270,0.381,-0.14,-0.825,1.04,0.32,0.54,-1.25,-1.61,1.02
2022-01-30 16:53:14.6380,0.3,-0.203,-0.754,2.25,1.57,-1.07,-0.97,-1.76,1.54
2022-01-30 16:53:14.6490,0.209,-0.242,-0.682,2.97,1.88,-1.87,-0.64,-1.86,1.99
2022-01-30 16:53:14.6580,0.117,-0.273,-0.61,2.97,1.88,-1.87,-0.27,-1.87,2.36
2022-01-30 16:53:14.6690,0.041,-0.308,-0.531,4.23,2.31,-3.54,0.08,-1.77,2.63
2022-01-30 16:53:14.6800,-0.002,-0.326,-0.455,4.23,2.31,-3.54,0.4,-1.61,2.8
2022-01-30 16:53:14.6880,-0.053,-0.322,-0.385,4.49,2.3,-4.34,0.67,-1.4,2.88
2022-01-30 16:53:14.7000,-0.094,-0.293,-0.312,4.84,2.05,-5.09,0.87,-1.16,2.84
2022-01-30 16:53:14.7080,-0.122,-0.244,-0.252,5.09,1.54,-5.84,0.99,-0.92,2.67
2022-01-30 16:53:14.7190,-0.123,-0.2,-0.212,5.22,0.86,-6.43,1.01,-0.71,2.4
2022-01-30 16:53:14.7280,-0.117,-0.19,-0.197,5.1,0.27,-6.8,0.95,-0.51,2.06
2022-01-30 16:53:14.7380,-0.114,-0.202,-0.191,4.97,0.05,-6.93,0.87,-0.31,1.67
2022-01-30 16:53:14.7480,-0.101,-0.201,-0.201,4.88,0.03,-6.98,0.8,-0.18,1.23
2022-01-30 16:53:14.7580,-0.083,-0.161,-0.269,4.69,-0.13,-6.83,0.74,-0.2,0.74
2022-01-30 16:53:14.7680,-0.06,-0.108,-0.374,4.48,-0.66,-6.07,0.7,-0.3,0.24
2022-01-30 16:53:14.7780,-0.025,-0.074,-0.446,4.21,-1.24,-5.05,0.69,-0.41,-0.23
2022-01-30 16:53:14.7880,0.042,-0.065,-0.549,3.81,-1.59,-4.36,0.73,-0.54,-0.61
2022-01-30 16:53:14.7990,0.123,-0.057,-0.693,3.08,-1.7,-3.29,0.81,-0.63,-0.9
2022-01-30 16:53:14.8090,0.211,-0.041,-0.827,2.24,-1.84,-1.86,0.94,-0.55,-1.06
2022-01-30 16:53:14.8180,0.305,-0.036,-0.946,1.35,-2.02,-0.57,1.12,-0.27,-1.04
2022-01-30 16:53:14.8290,0.379,-0.026,-1.061,0.44,-2.13,0.61,1.25,0.18,-0.88
2022-01-30 16:53:14.8390,0.437,-0.005,-1.187,-0.21,-2.32,1.78,1.27,0.73,-0.64
2022-01-30 16:53:14.8490,0.517,0.003,-1.322,-0.71,-2.61,3.09,1.17,1.32,-0.38
2022-01-30 16:53:14.8590,0.605,-0.015,-1.462,-1.4,-2.76,4.51,1.02,1.82,-0.12
2022-01-30 16:53:14.8700,0.713,-0.07,-1.587,-3.02,-2.13,7.27,0.89,2.1,0.05
2022-01-30 16:53:14.8800,0.812,-0.112,-1.68,-3.02,-2.13,7.27,0.8,2.1,0.09
2022-01-30 16:53:14.8890,0.861,-0.135,-1.732,-3.77,-1.83,8.25,0.72,1.89,0.06
2022-01-30 16:53:14.8980,0.87,-0.163,-1.712,-4.03,-1.66,8.79,0.59,1.59,0.02
2022-01-30 16:53:14.9080,0.881,-0.226,-1.626,-3.97,-1.43,8.6,0.36,1.23,0.05
2022-01-30 16:53:14.9180,0.937,-0.371,-1.531,-4.02,-0.75,7.76,-0.02,0.75,0.19
2022-01-30 16:53:14.9280,1.021,-0.576,-1.482,-4.57,0.77,6.9,-0.48,0.07,0.41
2022-01-30 16:53:14.9380,1.094,-0.777,-1.481,-5.4,2.82,6.49,-0.91,-0.72,0.66
2022-01-30 16:53:14.9480,1.09,-0.924,-1.468,-6.15,4.8,6.43,-1.2,-1.48,0.9
2022-01-30 16:53:14.9580,0.966,-0.937,-1.46,-6.1,6.18,6.18,-1.28,-2.12,1.0
2022-01-30 16:53:14.9680,0.79,-0.874,-1.449,-4.99,6.21,5.99,-1.16,-2.62,0.94
2022-01-30 16:53:14.9780,0.608,-0.821,-1.412,-3.49,5.64,5.72,-0.93,-2.98,0.76
2022-01-30 16:53:14.9880,0.453,-0.767,-1.307,-2.0,5.18,5.15,-0.64,-3.16,0.55
2022-01-30 16:53:14.9990,0.301,-0.695,-1.155,-0.8,4.67,3.9,-0.33,-3.15,0.37
2022-01-30 16:53:15.0080,0.188,-0.592,-0.978,0.41,3.94,2.26,-0.09,-3.04,0.21
2022-01-30 16:53:15.0190,0.153,-0.504,-0.836,1.13,2.92,0.43,0.06,-2.9,0.08
2022-01-30 16:53:15.0280,0.127,-0.456,-0.711,1.16,2.11,-0.99,0.09,-2.76,0.03
2022-01-30 16:53:15.0380,0.076,-0.402,-0.599,1.2,1.65,-2.28,0.03,-2.62,0.03
2022-01-30 16:53:15.0480,0.024,-0.32,-0.507,1.47,1.09,-3.42,-0.1,-2.47,0.02
2022-01-30 16:53:15.0580,-0.002,-0.25,-0.43,1.73,0.27,-4.35,-0.24,-2.29,-0.01
2022-01-30 16:53:15.0680,-0.013,-0.221,-0.386,1.74,-0.34,-5.13,-0.36,-2.13,-0.01
2022-01-30 16:53:15.0790,-0.021,-0.213,-0.357,1.65,-0.55,-5.56,-0.36,-2.13,-0.01
2022-01-30 16:53:15.0890,-0.026,-0.21,-0.325,1.54,-0.58,-5.9,-0.32,-1.72,-0.03
2022-01-30 16:53:15.0990,-0.051,-0.207,-0.309,1.44,-0.58,-6.22,-0.09,-1.44,-0.1
2022-01-30 16:53:15.1090,-0.08,-0.201,-0.272,1.58,-0.6,-6.4,0.23,-1.07,-0.23
2022-01-30 16:53:15.1190,-0.102,-0.188,-0.227,1.76,-0.69,-6.8,0.55,-0.71,-0.44
2022-01-30 16:53:15.1290,-0.115,-0.176,-0.211,1.92,-0.86,-7.21,0.8,-0.4,-0.67
2022-01-30 16:53:15.1390,-0.101,-0.166,-0.205,1.99,-1.05,-7.32,0.95,-0.14,-0.9
2022-01-30 16:53:15.1490,-0.071,-0.161,-0.204,1.83,-1.22,-7.36,1.0,0.04,-1.1
2022-01-30 16:53:15.1590,-0.068,-0.183,-0.239,1.59,-1.33,-7.3,1.0,0.04,-1.1
2022-01-30 16:53:15.1690,-0.068,-0.181,-0.294,1.64,-1.18,-6.91,0.78,0.03,-1.36
2022-01-30 16:53:15.1790,-0.044,-0.148,-0.406,1.66,-1.31,-6.29,0.52,-0.17,-1.51
2022-01-30 16:53:15.1890,-0.024,-0.144,-0.546,1.43,-1.66,-5.12,0.27,-0.4,-1.66
2022-01-30 16:53:15.1990,-0.002,-0.167,-0.718,1.26,-1.66,-3.72,0.09,-0.64,-1.83
2022-01-30 16:53:15.2090,0.05,-0.183,-0.958,1.02,-1.41,-1.96,0.09,-0.64,-1.83
2022-01-30 16:53:15.2190,0.086,-0.186,-1.187,0.47,-1.26,0.46,0.38,-0.84,-2.26
2022-01-30 16:53:15.2290,0.115,-0.201,-1.384,0.15,-1.24,2.62,0.92,-0.58,-2.36
2022-01-30 16:53:15.2390,0.141,-0.216,-1.509,-0.12,-1.14,4.55,1.57,0.04,-2.3
2022-01-30 16:53:15.2490,0.172,-0.234,-1.553,-0.29,-1.12,5.69,2.08,0.88,-2.01
2022-01-30 16:53:15.2590,0.243,-0.296,-1.585,-0.48,-1.08,6.16,2.27,1.66,-1.59
2022-01-30 16:53:15.2690,0.368,-0.404,-1.631,-1.03,-0.57,6.58,2.08,2.16,-1.21
2022-01-30 16:53:15.2790,0.521,-0.515,-1.668,-2.07,0.34,7.17,1.67,2.38,-1.0
2022-01-30 16:53:15.2890,0.638,-0.628,-1.639,-3.33,1.3,7.57,1.18,2.42,-0.98
2022-01-30 16:53:15.2990,0.692,-0.72,-1.593,-4.15,2.31,7.31,0.67,2.22,-1.03
2022-01-30 16:53:15.3090,0.673,-0.772,-1.57,-4.36,3.16,6.97,0.24,1.84,-1.08
2022-01-30 16:53:15.3200,0.604,-0.752,-1.511,-3.88,3.57,6.79,0.24,1.84,-1.08
2022-01-30 16:53:15.3300,0.545,-0.732,-1.452,-3.03,3.38,6.19,-0.37,0.76,-1.15
2022-01-30 16:53:15.3400,0.516,-0.724,-1.44,-2.38,3.27,5.69,-0.52,0.02,-1.17
2022-01-30 16:53:15.3500,0.491,-0.723,-1.394,-2.07,3.28,5.57,-0.53,-0.59,-1.1
2022-01-30 16:53:15.3600,0.455,-0.759,-1.248,-1.83,3.38,4.97,-0.35,-0.84,-0.85
2022-01-30 16:53:15.3700,0.4,-0.785,-1.039,-1.49,3.81,3.39,0.01,-0.8,-0.49
2022-01-30 16:53:15.3800,0.334,-0.755,-0.833,-0.97,4.03,1.29,0.44,-0.59,-0.11
2022-01-30 16:53:15.3900,0.283,-0.7,-0.64,-0.38,3.64,-0.71,0.86,-0.34,0.23
2022-01-30 16:53:15.4000,0.255,-0.653,-0.483,0.06,3.02,-2.56,1.18,-0.19,0.5
2022-01-30 16:53:15.4100,0.238,-0.611,-0.359,0.27,2.46,-4.01,1.4,-0.14,0.68
2022-01-30 16:53:15.4200,0.216,-0.559,-0.252,0.39,1.91,-5.15,1.55,-0.18,0.77
2022-01-30 16:53:15.4300,0.207,-0.483,-0.152,0.56,1.22,-6.11,1.63,-0.23,0.75
2022-01-30 16:53:15.4400,0.2,-0.393,-0.087,0.58,0.29,-7.03,1.61,-0.33,0.63
2022-01-30 16:53:15.4500,0.19,-0.32,-0.051,0.6,-0.74,-7.53,1.54,-0.39,0.5
2022-01-30 16:53:15.4600,0.158,-0.264,0.001,0.95,-2.23,-8.3,1.46,-0.35,0.4
2022-01-30 16:53:15.4760,0.114,-0.209,0.054,0.95,-2.23,-8.3,1.37,-0.21,0.35
2022-01-30 16:53:15.4860,0.076,-0.153,0.092,1.35,-2.89,-8.76,1.25,-0.06,0.3
2022-01-30 16:53:15.4950,0.053,-0.096,0.082,1.69,-3.56,-9.02,1.06,0.03,0.23
2022-01-30 16:53:15.5060,0.051,-0.05,0.035,1.87,-4.69,-8.28,0.82,0.01,0.1
2022-01-30 16:53:15.5240,0.063,-0.035,-0.044,1.73,-4.85,-7.44,0.56,-0.16,-0.07
2022-01-30 16:53:15.5250,0.083,-0.052,-0.133,1.73,-4.85,-7.44,0.32,-0.38,-0.22
2022-01-30 16:53:15.5350,0.108,-0.107,-0.194,1.51,-4.65,-6.58,0.32,-0.38,-0.22
2022-01-30 16:53:15.5450,0.145,-0.167,-0.258,1.22,-4.08,-6.02,0.03,-0.7,-0.44
2022-01-30 16:53:15.5550,0.197,-0.208,-0.354,0.26,-3.09,-4.42,-0.02,-0.73,-0.56
2022-01-30 16:53:15.5650,0.249,-0.251,-0.466,0.26,-3.09,-4.42,-0.02,-0.73,-0.56
2022-01-30 16:53:15.5750,0.27,-0.306,-0.603,-0.38,-2.07,-1.97,0.04,-0.35,-0.87
2022-01-30 16:53:15.5850,0.268,-0.363,-0.714,-0.38,-2.07,-1.97,0.12,0.06,-1.04
2022-01-30 16:53:15.5950,0.303,-0.412,-0.878,-0.32,-1.51,-0.88,0.16,0.39,-1.23
2022-01-30 16:53:15.6050,0.346,-0.461,-1.088,-0.62,-1.02,0.84,0.17,0.58,-1.38
2022-01-30 16:53:15.6150,0.39,-0.539,-1.271,-0.91,0.33,4.67,0.19,0.75,-1.42
2022-01-30 16:53:15.6270,0.45,-0.643,-1.389,-1.22,0.33,4.67,0.25,0.99,-1.32
2022-01-30 16:53:15.6350,0.519,-0.754,-1.481,-1.69,1.39,5.82,0.35,1.3,-1.09
2022-01-30 16:53:15.6450,0.577,-0.843,-1.547,-2.21,2.47,6.75,0.41,1.59,-0.77
2022-01-30 16:53:15.6550,0.598,-0.879,-1.592,-2.58,3.28,7.44,0.41,1.83,-0.45
2022-01-30 16:53:15.6670,0.572,-0.89,-1.559,-2.56,3.57,7.91,0.33,2.09,-0.21
2022-01-30 16:53:15.6750,0.548,-0.909,-1.457,-2.1,3.65,7.55,0.33,2.09,-0.21
2022-01-30 16:53:15.6870,0.573,-0.957,-1.38,-1.88,4.38,5.99,-0.11,2.24,-0.01
2022-01-30 16:53:15.6960,0.637,-1.033,-1.333,-1.88,4.38,5.99,-0.42,1.95,-0.04
2022-01-30 16:53:15.7070,0.703,-1.113,-1.288,-2.38,5.18,5.6,-0.42,1.95,-0.04
2022-01-30 16:53:15.7170,0.751,-1.175,-1.233,-2.89,6.0,5.18,-1.02,0.92,-0.17
2022-01-30 16:53:15.7250,0.78,-1.234,-1.17,-3.26,6.68,4.61,-1.02,0.92,-0.17
2022-01-30 16:53:15.7350,0.79,-1.312,-1.106,-3.49,7.38,3.94,-1.59,-0.07,-0.01
2022-01-30 16:53:15.7450,0.756,-1.365,-1.089,-3.56,8.28,3.25,-1.59,-0.07,-0.01
2022-01-30 16:53:15.7560,0.66,-1.332,-1.121,-3.21,8.84,3.06,-1.77,-1.17,0.4
2022-01-30 16:53:15.7660,0.528,-1.24,-1.103,-2.31,8.53,3.25,-1.45,-1.61,0.56
2022-01-30 16:53:15.7770,0.389,-1.117,-1.02,-1.13,7.67,2.85,-0.88,-1.87,0.7
2022-01-30 16:53:15.7860,0.282,-0.97,-0.9,0.02,6.48,1.87,-0.24,-2.05,0.79
2022-01-30 16:53:15.7970,0.209,-0.819,-0.774,0.83,5.01,0.57,0.34,-2.19,0.84
2022-01-30 16:53:15.8070,0.168,-0.685,-0.657,1.43,2.12,-1.9,0.77,-2.32,0.84
2022-01-30 16:53:15.8170,0.148,-0.574,-0.535,1.43,2.12,-1.9,1.01,-2.4,0.78
2022-01-30 16:53:15.8270,0.143,-0.432,-0.436,1.2,-0.55,-4.05,1.06,-2.42,0.69
2022-01-30 16:53:15.8370,0.129,-0.397,-0.348,1.2,-0.55,-4.05,1.04,-2.27,0.61
2022-01-30 16:53:15.8470,0.135,-0.379,-0.246,1.12,-0.88,-4.97,0.95,-2.14,0.6
2022-01-30 16:53:15.8570,0.141,-0.3,-0.246,0.6,-2.11,-5.84,0.79,-2.05,0.56
2022-01-30 16:53:15.8670,0.138,-0.217,-0.205,0.6,-2.11,-5.84,0.61,-1.88,0.53
2022-01-30 16:53:15.8770,0.145,-0.184,-0.161,0.41,-2.93,-6.34,0.47,-1.77,0.52
2022-01-30 16:53:15.8870,0.122,-0.168,-0.166,0.27,-3.45,-6.65,0.37,-1.72,0.54
2022-01-30 16:53:15.8970,0.108,-0.135,-0.154,0.27,-3.45,-6.65,0.37,-1.72,0.54
2022-01-30 16:53:15.9070,0.1,-0.105,-0.149,0.22,-3.85,-6.79,0.23,-1.7,0.58
2022-01-30 16:53:15.9170,0.121,-0.12,-0.142,0.11,-4.11,-6.83,0.23,-1.7,0.58
2022-01-30 16:53:15.9270,0.137,-0.136,-0.106,-0.28,-3.95,-6.94,0.21,-1.26,0.66
2022-01-30 16:53:15.9370,0.141,-0.109,-0.096,-0.55,-3.86,-7.29,0.2,-0.92,0.69
2022-01-30 16:53:15.9470,0.133,-0.077,-0.106,-0.69,-4.47,-7.25,0.15,-0.62,0.7
2022-01-30 16:53:15.9570,0.119,-0.075,-0.125,-0.69,-4.47,-7.25,0.02,-0.43,0.71
2022-01-30 16:53:15.9670,0.116,-0.079,-0.195,-0.63,-4.48,-7.01,-0.21,-0.45,0.69
2022-01-30 16:53:15.9770,0.13,-0.098,-0.301,-0.7,-4.42,-6.28,-0.21,-0.45,0.69
2022-01-30 16:53:15.9880,0.162,-0.139,-0.427,-1.39,-3.66,-4.03,-0.84,-1.02,0.62
2022-01-30 16:53:15.9980,0.194,-0.203,-0.577,-1.39,-3.66,-4.03,-1.19,-1.15,0.61
2022-01-30 16:53:16.0080,0.214,-0.279,-0.666,-2.05,-2.06,-1.9,-1.27,-0.78,0.7
2022-01-30 16:53:16.0180,0.176,-0.345,-0.835,-2.05,-2.06,-1.9,-1.05,-0.53,0.91
2022-01-30 16:53:16.0270,0.116,-0.412,-1.138,-1.25,-0.67,2.83,-1.05,-0.53,0.91
2022-01-30 16:53:16.0380,0.117,-0.402,-1.315,-1.25,-0.67,2.83,-0.06,0.08,1.33
2022-01-30 16:53:16.0470,0.085,-0.401,-1.478,-1.38,-0.81,4.51,0.48,0.57,1.38
2022-01-30 16:53:16.0580,0.022,-0.417,-1.614,-0.98,-0.82,6.11,0.48,0.57,1.38
2022-01-30 16:53:16.0680,0.012,-0.465,-1.688,-0.35,-0.72,7.42,0.88,1.19,1.34
2022-01-30 16:53:16.0780,0.09,-0.551,-1.712,-0.98,0.53,8.36,0.87,2.31,1.2
2022-01-30 16:53:16.0880,0.202,-0.637,-1.725,-0.98,0.53,8.36,0.41,2.47,1.14
2022-01-30 16:53:16.0980,0.281,-0.686,-1.695,-1.92,1.3,8.49,-0.23,2.43,1.11
2022-01-30 16:53:16.1080,0.291,-0.687,-1.59,-2.35,1.78,6.99,-0.92,2.3,1.12
2022-01-30 16:53:16.1180,0.243,-0.672,-1.5,-2.35,1.78,6.99,-1.57,2.05,1.17
2022-01-30 16:53:16.1270,0.18,-0.66,-1.473,-1.71,1.77,6.11,-1.57,2.05,1.17
2022-01-30 16:53:16.1380,0.134,-0.635,-1.493,-0.54,1.78,5.93,-2.61,1.16,1.2
2022-01-30 16:53:16.1480,0.093,-0.608,-1.482,-0.54,1.78,5.93,-2.85,0.81,1.15
2022-01-30 16:53:16.1580,0.057,-0.604,-1.436,-0.12,1.78,5.64,-2.85,0.66,1.09
2022-01-30 16:53:16.1680,0.011,-0.619,-1.361,0.74,2.39,4.17,-2.64,0.68,1.08
2022-01-30 16:53:16.1790,-0.05,-0.607,-1.254,1.38,2.42,3.03,-2.32,0.75,1.16
2022-01-30 16:53:16.1880,-0.112,-0.559,-1.149,1.38,2.42,3.03,-1.95,0.75,1.29
2022-01-30 16:53:16.1980,-0.167,-0.519,-1.045,2.0,2.11,1.94,-1.57,0.65,1.47
2022-01-30 16:53:16.2090,-0.206,-0.494,-0.931,2.54,1.88,0.87,-1.19,0.48,1.66
2022-01-30 16:53:16.2180,-0.225,-0.471,-0.82,2.88,1.73,-0.29,-0.81,0.27,1.82
2022-01-30 16:53:16.2280,-0.233,-0.449,-0.719,3.04,1.39,-2.38,-0.41,0.08,1.94
2022-01-30 16:53:16.2380,-0.233,-0.435,-0.62,3.04,1.39,-2.38,0.01,-0.06,2.01
2022-01-30 16:53:16.2490,-0.228,-0.419,-0.521,2.97,1.24,-3.36,0.45,-0.12,2.04
2022-01-30 16:53:16.2580,-0.219,-0.395,-0.417,2.67,0.68,-5.32,0.88,-0.08,2.02
2022-01-30 16:53:16.2690,-0.204,-0.36,-0.315,2.67,0.68,-5.32,1.26,0.02,1.96
2022-01-30 16:53:16.2780,-0.192,-0.321,-0.229,2.47,0.2,-6.26,1.26,0.02,1.96
2022-01-30 16:53:16.2880,-0.178,-0.29,-0.163,2.3,-0.33,-7.03,1.75,0.23,1.73
2022-01-30 16:53:16.2980,-0.157,-0.279,-0.108,2.12,-0.79,-7.59,1.85,0.3,1.62
2022-01-30 16:53:16.3080,-0.139,-0.279,-0.059,1.87,-1.04,-8.06,1.88,0.39,1.5
2022-01-30 16:53:16.3190,-0.115,-0.268,-0.034,1.68,-1.22,-8.45,1.88,0.39,1.5
2022-01-30 16:53:16.3290,-0.095,-0.258,-0.047,1.42,-1.51,-8.57,1.66,0.56,1.23
2022-01-30 16:53:16.3390,-0.093,-0.271,-0.072,1.25,-1.73,-8.35,1.66,0.56,1.23
2022-01-30 16:53:16.3490,-0.092,-0.281,-0.103,1.25,-1.71,-8.02,1.32,0.68,0.86
2022-01-30 16:53:16.3590,-0.097,-0.251,-0.128,1.25,-1.77,-7.68,1.15,0.74,0.57
2022-01-30 16:53:16.3790,-0.131,-0.224,-0.185,1.78,-2.5,-6.72,0.9,0.79,0.25
2022-01-30 16:53:16.3810,-0.169,-0.225,-0.27,2.22,-2.54,-5.8,0.55,0.8,-0.1
2022-01-30 16:53:16.3890,-0.19,-0.226,-0.37,2.22,-2.54,-5.8,0.1,0.89,-0.52
2022-01-30 16:53:16.3990,-0.152,-0.243,-0.514,2.48,-2.51,-4.83,-0.3,0.9,-0.94
2022-01-30 16:53:16.4090,-0.083,-0.291,-0.823,2.12,-2.3,-3.2,-0.52,0.68,-1.34
2022-01-30 16:53:16.4190,-0.03,-0.386,-1.166,1.64,-1.69,-0.12,-0.26,0.51,-1.57
2022-01-30 16:53:16.4290,0.076,-0.459,-1.307,1.14,-0.73,3.17,0.34,0.57,-1.68
2022-01-30 16:53:16.4390,0.139,-0.486,-1.471,0.29,-0.05,4.31,0.98,0.32,-1.78
2022-01-30 16:53:16.4490,0.273,-0.464,-1.895,-0.29,0.04,6.33,1.48,-0.17,-1.87
2022-01-30 16:53:16.4590,0.369,-0.527,-2.085,-2.35,0.39,12.11,1.76,-0.28,-1.8
2022-01-30 16:53:16.4710,0.436,-0.651,-2.109,-2.35,0.39,12.11,1.78,-0.05,-1.59
2022-01-30 16:53:16.4820,0.49,-0.725,-2.127,-2.92,1.49,12.43,1.78,-0.05,-1.59
2022-01-30 16:53:16.4910,0.494,-0.689,-2.061,-3.3,1.96,12.62,1.39,0.87,-1.23
2022-01-30 16:53:16.5010,0.473,-0.664,-1.912,-3.16,1.45,11.95,1.39,0.87,-1.23
2022-01-30 16:53:16.5100,0.473,-0.758,-1.734,-2.78,1.26,10.48,0.47,1.77,-1.02
2022-01-30 16:53:16.5190,0.516,-0.892,-1.613,-2.64,2.28,8.84,-0.12,1.84,-1.0
2022-01-30 16:53:16.5290,0.584,-1.005,-1.508,-2.91,3.62,7.73,-0.66,1.67,-1.06
2022-01-30 16:53:16.5390,0.642,-1.088,-1.395,-3.75,5.65,5.56,-1.08,1.37,-1.13
2022-01-30 16:53:16.5500,0.666,-1.118,-1.275,-3.75,5.65,5.56,-1.08,1.37,-1.13
2022-01-30 16:53:16.5590,0.66,-1.105,-1.15,-3.8,6.01,4.34,-1.51,0.66,-1.18
2022-01-30 16:53:16.5700,0.638,-1.068,-1.039,-3.62,6.0,3.07,-1.55,0.23,-1.11
2022-01-30 16:53:16.5790,0.603,-1.006,-0.941,-3.31,5.78,1.92,-1.55,0.23,-1.11
2022-01-30 16:53:16.5890,0.564,-0.921,-0.851,-2.93,5.29,0.9,-1.39,-0.87,-0.84
2022-01-30 16:53:16.5990,0.534,-0.834,-0.769,-2.6,4.57,-0.07,-1.22,-1.44,-0.65
2022-01-30 16:53:16.6080,0.504,-0.759,-0.686,-2.4,3.86,-0.96,-1.03,-1.94,-0.42
2022-01-30 16:53:16.6190,0.457,-0.682,-0.6,-2.23,3.23,-1.88,-0.83,-2.29,-0.15
2022-01-30 16:53:16.6290,0.391,-0.602,-0.517,-1.94,2.54,-2.81,-0.63,-2.47,0.16
2022-01-30 16:53:16.6390,0.311,-0.529,-0.434,-1.49,1.81,-3.71,-0.45,-2.48,0.48
2022-01-30 16:53:16.6490,0.232,-0.469,-0.375,-0.94,1.14,-4.58,-0.27,-2.38,0.81
2022-01-30 16:53:16.6590,0.157,-0.427,-0.34,-0.4,0.58,-5.17,-0.11,-2.18,1.12
2022-01-30 16:53:16.6690,0.091,-0.394,-0.312,0.08,-0.16255084097385408,-5.840980766415596,-0.11,-2.18,1.12
2022-01-30 16:53:16.6800,0.025,-0.364,-0.284,0.51,-0.17,-5.85,0.2,-1.47,1.52
2022-01-30 16:53:16.6890,-0.027,-0.341,-0.255,0.96,-0.48,-6.13,0.38,-0.97,1.56
2022-01-30 16:53:16.7000,-0.062,-0.315,-0.22,1.29,-0.76,-6.42,0.55,-0.4,1.47
2022-01-30 16:53:16.7100,-0.083,-0.285,-0.181,1.67,-1.45,-7.09,0.71,0.2,1.26
2022-01-30 16:53:16.7200,-0.075,-0.26,-0.156,1.67,-1.45,-7.09,0.82,0.71,0.95
2022-01-30 16:53:16.7300,-0.042,-0.242,-0.161,1.58,-1.77,-7.27,0.88,1.04,0.57
2022-01-30 16:53:16.7400,0.005,-0.236,-0.193,1.3,-2.01,-7.13,0.85,1.21,0.18
2022-01-30 16:53:16.7500,0.046,-0.241,-0.229,0.92,-2.13,-6.76,0.73,1.24,-0.19
2022-01-30 16:53:16.7600,0.066,-0.241,-0.268,0.66,-2.14,-6.36,0.51,1.2,-0.55
2022-01-30 16:53:16.7700,0.072,-0.231,-0.306,0.61,-2.18,-5.93,0.25,1.09,-0.85
2022-01-30 16:53:16.7800,0.068,-0.213,-0.367,0.69,-2.3,-5.52,-0.02,0.93,-1.09
2022-01-30 16:53:16.7900,0.065,-0.195,-0.46,0.88,-2.47,-4.88,-0.02,0.93,-1.09
2022-01-30 16:53:16.8000,0.099,-0.179,-0.586,1.0,-2.61,-3.93,-0.29,0.55,-1.25
2022-01-30 16:53:16.8100,0.127,-0.205,-0.738,0.74,-2.67,-1.15,-0.14,0.33,-1.13
2022-01-30 16:53:16.8200,0.176,-0.228,-0.874,0.56,-2.37,-1.15,0.22,0.18,-0.93
2022-01-30 16:53:16.8310,0.248,-0.257,-1.024,0.08,-2.15,0.18,0.71,0.03,-0.69
2022-01-30 16:53:16.8400,0.295,-0.296,-1.167,-0.58,-1.9,1.71,1.25,0.02,-0.44
2022-01-30 16:53:16.8500,0.306,-0.32,-1.235,-0.98,-1.61,3.1,1.67,0.15,-0.27
2022-01-30 16:53:16.8600,0.276,-0.299,-1.328,-1.01,-1.56,3.79,1.87,0.24,-0.21
2022-01-30 16:53:16.8710,0.237,-0.298,-1.443,-0.26,-2.02,6.04,1.94,0.25,-0.24
2022-01-30 16:53:16.8800,0.242,-0.374,-1.478,-0.26,-2.02,6.04,1.96,0.28,-0.28
2022-01-30 16:53:16.8910,0.283,-0.484,-1.442,-0.34,-1.35,6.39,1.95,0.3,-0.32
2022-01-30 16:53:16.9010,0.322,-0.576,-1.389,-0.72,-0.42,6.09,1.88,0.22,-0.35
2022-01-30 16:53:16.9100,0.327,-0.597,-1.332,-1.04,0.28,5.68,1.88,0.22,-0.35
2022-01-30 16:53:16.9210,0.285,-0.565,-1.238,-1.01,0.27,5.19,1.45,-0.24,-0.38
2022-01-30 16:53:16.9310,0.228,-0.562,-1.114,-0.55,-0.16,4.28,1.01,-0.48,-0.34
2022-01-30 16:53:16.9410,0.197,-0.62,-1.033,-0.03,-0.17,3.12,0.38,-0.78,-0.29
2022-01-30 16:53:16.9510,0.181,-0.702,-1.012,0.28,1.28,2.21,-0.37,-1.13,-0.22
2022-01-30 16:53:16.9610,0.149,-0.802,-1.0,0.28,1.28,2.21,-1.07,-1.43,-0.08
2022-01-30 16:53:16.9710,0.086,-0.879,-0.955,1.05,3.15,1.37,-1.51,-1.58,0.04
2022-01-30 16:53:16.9820,0.011,-0.879,-0.88,1.66,3.16,0.5,-1.61,-1.56,0.09
2022-01-30 16:53:16.9910,-0.051,-0.802,-0.793,1.66,3.16,0.5,-1.41,-1.43,0.06
2022-01-30 16:53:17.0010,-0.092,-0.706,-0.688,2.12,2.47,-0.46,-1.07,-1.19,-0.04
2022-01-30 16:53:17.0110,-0.088,-0.639,-0.567,2.22,1.1,-2.83,-0.74,-0.92,-0.15
2022-01-30 16:53:17.0210,-0.037,-0.624,-0.488,1.64,1.05,-3.57,-0.56,-0.77,-0.24
2022-01-30 16:53:17.0310,0.013,-0.638,-0.452,1.12,1.27,-3.96,-0.57,-0.72,-0.27
2022-01-30 16:53:17.0420,0.04,-0.665,-0.398,1.12,1.27,-3.96,-0.57,-0.72,-0.24
2022-01-30 16:53:17.0510,0.036,-0.658,-0.343,0.85,1.59,-4.55,-0.9,-0.65,-0.26
2022-01-30 16:53:17.0610,0.013,-0.592,-0.312,0.88,1.52,-5.11,-1.11,-0.56,-0.37
2022-01-30 16:53:17.0710,-0.011,-0.513,-0.291,1.08,0.93,-5.46,-1.3,-0.42,-0.56
2022-01-30 16:53:17.0820,-0.026,-0.46,-0.288,1.29,0.29,-5.71,-1.44,-0.2,-0.75
2022-01-30 16:53:17.0910,-0.03,-0.455,-0.288,1.45,-0.05,-5.81,-1.51,0.09,-0.87
2022-01-30 16:53:17.1010,-0.018,-0.492,-0.322,1.52,0.11,-5.86,-1.45,0.32,-0.9
2022-01-30 16:53:17.1110,0.004,-0.524,-0.416,1.3,1.03,-4.59,-1.27,0.44,-0.88
2022-01-30 16:53:17.1210,0.027,-0.507,-0.515,1.3,1.03,-4.59,-1.01,0.45,-0.86
2022-01-30 16:53:17.1320,0.04,-0.461,-0.611,1.15,0.9,-3.67,-1.01,0.45,-0.86
2022-01-30 16:53:17.1420,0.042,-0.437,-0.69,1.11,0.54,-2.76,-0.57,0.38,-0.75
2022-01-30 16:53:17.1510,0.031,-0.437,-0.751,1.36,0.46,-1.46,-0.39,0.43,-0.62
2022-01-30 16:53:17.1620,0.017,-0.43,-0.798,1.36,0.46,-1.46,-0.17,0.57,-0.46
2022-01-30 16:53:17.1720,0.008,-0.397,-0.85,1.71,0.05,-0.47,0.11,0.7,-0.28
2022-01-30 16:53:17.1820,0.017,-0.381,-0.895,1.64,-0.1,-0.01,0.43,0.75,-0.08
2022-01-30 16:53:17.1920,0.066,-0.382,-0.963,1.64,-0.1,-0.01,0.69,0.57,0.06
2022-01-30 16:53:17.2010,0.138,-0.387,-1.099,1.16,-0.16,0.77,0.74,0.08,0.11
2022-01-30 16:53:17.2120,0.197,-0.418,-1.26,0.45,-0.14,2.2,0.61,-0.54,0.07
2022-01-30 16:53:17.2220,0.196,-0.459,-1.373,-0.11,0.49,4.8,0.4,-1.01,-0.06
2022-01-30 16:53:17.2320,0.135,-0.471,-1.426,-0.11,0.49,4.8,0.4,-1.01,-0.06
2022-01-30 16:53:17.2420,0.065,-0.456,-1.423,0.44,0.55,5.24,0.23,-0.91,-0.39
2022-01-30 16:53:17.2520,-0.01,-0.437,-1.353,1.79,0.15,4.38,0.38,-0.31,-0.44
2022-01-30 16:53:17.2610,-0.075,-0.401,-1.254,1.79,0.15,4.38,0.38,-0.31,-0.44
2022-01-30 16:53:17.2710,-0.099,-0.337,-1.203,2.71,-0.94,3.07,0.55,0.86,-0.39
2022-01-30 16:53:17.2820,-0.083,-0.299,-1.183,2.71,-0.94,3.07,0.37,1.03,-0.39
2022-01-30 16:53:17.2920,-0.054,-0.284,-1.159,2.63,-1.3,2.9,0.02,0.92,-0.45
2022-01-30 16:53:17.3020,-0.004,-0.294,-1.121,1.98,-1.22,2.27,-0.44,0.67,-0.58
2022-01-30 16:53:17.3120,0.064,-0.344,-1.062,1.98,-1.22,2.27,-0.92,0.39,-0.73
2022-01-30 16:53:17.3220,0.127,-0.406,-1.003,1.38,-0.6,1.65,-1.34,0.15,-0.92
2022-01-30 16:53:17.3320,0.175,-0.437,-0.955,0.83,0.13,1.03,-1.65,-0.05,-1.13
2022-01-30 16:53:17.3420,0.199,-0.416,-0.917,0.42,0.55,0.51,-1.82,-0.22,-1.34
2022-01-30 16:53:17.3520,0.195,-0.352,-0.875,0.24,0.46,0.07,-1.9,-0.34,-1.55
2022-01-30 16:53:17.3620,0.183,-0.281,-0.828,0.33,0.01,-0.43,-1.94,-0.47,-1.72
2022-01-30 16:53:17.3720,0.172,-0.219,-0.789,0.46,-0.46,-0.96,-1.98,-0.63,-1.82
2022-01-30 16:53:17.3830,0.169,-0.18,-0.751,0.56,-0.83,-1.4,-2.03,-0.79,-1.84
2022-01-30 16:53:17.3920,0.173,-0.16,-0.708,0.47,-0.91,-2.35,-2.05,-0.95,-1.78
2022-01-30 16:53:17.4030,0.182,-0.15,-0.669,0.47,-0.91,-2.35,-2.01,-1.1,-1.65
2022-01-30 16:53:17.4120,0.193,-0.154,-0.632,0.32,-0.76,-2.8,-2.01,-1.1,-1.65
2022-01-30 16:53:17.4220,0.208,-0.168,-0.596,0.12,-0.49,-3.23,-1.75,-1.31,-1.25
2022-01-30 16:53:17.4330,0.23,-0.197,-0.565,-0.14,-0.15,-3.64,-1.55,-1.36,-0.97
2022-01-30 16:53:17.4420,0.249,-0.239,-0.537,-0.77,0.88,-4.31,-1.34,-1.4,-0.64
2022-01-30 16:53:17.4530,0.264,-0.286,-0.517,-0.77,0.88,-4.31,-1.15,-1.41,-0.26
2022-01-30 16:53:17.4620,0.276,-0.333,-0.503,-1.04,1.46,-4.53,-1.15,-1.41,-0.26
2022-01-30 16:53:17.4730,0.282,-0.359,-0.5,-1.4554731327295305,2.3038908214867115,-4.73,-0.85,-1.32,0.46
2022-01-30 16:53:17.4830,0.271,-0.35,-0.521,-1.46,2.24,-4.52,-0.75,-1.23,0.69
2022-01-30 16:53:17.4930,0.239,-0.317,-0.565,-1.46,2.24,-4.52,-0.67,-1.15,0.8
2022-01-30 16:53:17.5020,0.199,-0.283,-0.627,-1.25,1.96,-4.09,-0.67,-1.15,0.8
2022-01-30 16:53:17.5130,0.159,-0.263,-0.688,-0.67,1.55,-2.91,-0.54,-0.93,0.79
2022-01-30 16:53:17.5230,0.121,-0.251,-0.742,-0.67,1.55,-2.91,-0.44,-0.82,0.74
2022-01-30 16:53:17.5330,0.089,-0.227,-0.824,-0.39,1.47,-2.38,-0.33,-0.76,0.67
2022-01-30 16:53:17.5430,0.067,-0.18,-0.918,-0.17,1.24,-1.55,-0.22,-0.77,0.59
2022-01-30 16:53:17.5530,0.041,-0.118,-1.028,-0.05,0.78,-0.64,-0.22,-0.77,0.59
2022-01-30 16:53:17.5630,0.002,-0.023,-1.187,0.41,-0.8,2.09,-0.17,-1.1,0.35
2022-01-30 16:53:17.5730,-0.029,0.084,-1.362,0.41,-0.8,2.09,-0.17,-1.1,0.35
2022-01-30 16:53:17.5830,-0.062,0.173,-1.579,0.68,-2.62,5.99,-0.37,-2.04,0.04
2022-01-30 16:53:17.5930,-0.087,0.234,-1.754,0.68,-3.11,7.54,-0.51,-2.45,-0.09
2022-01-30 16:53:17.6020,-0.122,0.244,-1.805,0.68,-3.11,7.54,-0.62,-2.56,-0.16
2022-01-30 16:53:17.6120,-0.181,0.258,-1.831,0.81,-3.11,7.96,-0.7,-2.44,-0.21
2022-01-30 16:53:17.6230,-0.241,0.322,-1.831,1.17,-3.23,8.22,-0.75,-2.05,-0.29
2022-01-30 16:53:17.6330,-0.293,0.387,-1.749,1.55,-3.83,8.15,-0.78,-1.34,-0.37
2022-01-30 16:53:17.6440,-0.314,0.388,-1.6,1.91,-4.34,7.25,-0.83,-0.42,-0.38
2022-01-30 16:53:17.6530,-0.255,0.287,-1.451,2.0,-4.16,5.75,-0.9,0.46,-0.29
2022-01-30 16:53:17.6630,-0.153,0.118,-1.333,1.38,-2.96,4.32,-0.96,1.19,-0.07
2022-01-30 16:53:17.6730,-0.064,-0.057,-1.198,-0.17,0.61,1.77,-0.95,1.79,0.26
2022-01-30 16:53:17.6840,-0.023,-0.201,-1.046,-0.17,0.61,1.77,-0.82,2.21,0.67
2022-01-30 16:53:17.6930,-0.044,-0.285,-0.915,0.24,2.84,-0.98,-0.53,2.4,1.07
2022-01-30 16:53:17.7040,-0.107,-0.288,-0.815,0.24,2.84,-0.98,-0.53,2.4,1.07
2022-01-30 16:53:17.7130,-0.18,-0.249,-0.765,2.04,2.37,-2.32,0.37,2.02,1.56
2022-01-30 16:53:17.7240,-0.268,-0.198,-0.778,2.04,2.37,-2.32,0.87,1.43,1.56
2022-01-30 16:53:17.7330,-0.352,-0.137,-0.812,3.04,1.77,-2.14,0.87,1.43,1.56
2022-01-30 16:53:17.7440,-0.422,-0.058,-0.867,3.91,1.01,-1.79,1.74,-0.27,0.99
2022-01-30 16:53:17.7540,-0.46,0.029,-0.917,4.54,0.05,-1.21,1.74,-0.27,0.99
2022-01-30 16:53:17.7640,-0.454,0.082,-0.916,4.76,-0.99,-0.77,2.22,-1.55,0.02
2022-01-30 16:53:17.7740,-0.405,0.072,-0.926,4.49,-1.65,-0.8,2.25,-1.89,-0.36
2022-01-30 16:53:17.7840,-0.347,0.029,-0.983,3.8,-1.71,-0.63,2.11,-2.15,-0.66
2022-01-30 16:53:17.7940,-0.291,0.011,-1.066,2.27,-1.54,0.88,1.79,-2.33,-0.91
2022-01-30 16:53:17.8040,-0.259,0.024,-1.177,2.27,-1.54,0.88,1.27,-2.39,-1.11
2022-01-30 16:53:17.8140,-0.268,0.051,-1.299,1.71,-2.16,3.24,0.63,-2.26,-1.26
2022-01-30 16:53:17.8240,-0.264,0.063,-1.379,1.71,-2.16,3.24,0.63,-2.26,-1.26
2022-01-30 16:53:17.8340,-0.208,0.023,-1.362,1.48,-2.24,3.95,-0.38,-0.81,-1.42
2022-01-30 16:53:17.8440,-0.076,-0.029,-1.322,-0.55,-1.25,3.33,-0.51,0.2,-1.57
2022-01-30 16:53:17.8540,0.113,-0.074,-1.337,-0.55,-1.25,3.33,-0.45,0.95,-1.8
2022-01-30 16:53:17.8640,0.287,-0.129,-1.395,-2.32,-0.78,3.53,-0.39,1.25,-2.01
2022-01-30 16:53:17.8740,0.38,-0.184,-1.436,-4.451547549068928,0.35034001886844635,4.43,-0.48,1.19,-2.15
2022-01-30 16:53:17.8840,0.397,-0.218,-1.441,-4.44,0.72,4.43,-0.74,0.87,-2.19
2022-01-30 16:53:17.8950,0.388,-0.233,-1.421,-4.44,0.72,4.43,-1.05,0.36,-2.17
2022-01-30 16:53:17.9040,0.384,-0.23,-1.424,-4.29,0.93,4.21,-1.31,-0.37,-2.14
2022-01-30 16:53:17.9140,0.372,-0.225,-1.436,-4.26,1.01,4.27,-1.41,-1.14,-2.08
2022-01-30 16:53:17.9240,0.353,-0.227,-1.395,-4.21,1.09,4.33,-1.34,-1.8,-1.99
2022-01-30 16:53:17.9340,0.326,-0.245,-1.336,-4.18,1.25,3.89,-1.12,-2.24,-1.84
2022-01-30 16:53:17.9440,0.285,-0.279,-1.244,-4.09,1.54,3.28,-1.12,-2.24,-1.84
2022-01-30 16:53:17.9540,0.24,-0.313,-1.135,-3.89,1.95,2.36,-0.47,-2.24,-1.29
2022-01-30 16:53:17.9650,0.192,-0.339,-1.031,-3.65,2.3,1.32,-0.14,-1.89,-0.9
2022-01-30 16:53:17.9740,0.152,-0.37,-0.92,-3.36,2.56,0.31,0.17,-1.39,-0.47
2022-01-30 16:53:17.9850,0.125,-0.397,-0.81,-3.12,2.84,-0.75,0.49,-0.84,-0.04
2022-01-30 16:53:17.9940,0.103,-0.414,-0.706,-2.77,3.13,-2.8,0.79,-0.31,0.33
2022-01-30 16:53:18.0040,0.099,-0.41,-0.608,-2.77,3.13,-2.8,1.08,0.17,0.6
2022-01-30 16:53:18.0140,0.109,-0.39,-0.517,-2.75,2.98,-3.75,1.36,0.57,0.72
2022-01-30 16:53:18.0250,0.12,-0.367,-0.44,-2.81,2.66,-4.63,1.56,0.9,0.71
2022-01-30 16:53:18.0340,0.123,-0.34,-0.39,-2.83,2.3,-5.36,1.68,1.09,0.6
2022-01-30 16:53:18.0450,0.123,-0.314,-0.362,-2.75,1.86,-5.8,1.71,1.18,0.38
2022-01-30 16:53:18.0540,0.13,-0.3,-0.34,-2.62,1.19,-6.25,1.69,1.18,0.12
2022-01-30 16:53:18.0650,0.143,-0.301,-0.324,-2.64,1.06,-6.39,1.63,1.09,-0.16
2022-01-30 16:53:18.0840,0.152,-0.309,-0.325,-2.64,0.99,-6.31,1.63,1.09,-0.16
2022-01-30 16:53:18.0850,0.17,-0.314,-0.379,-2.64,0.99,-6.31,1.38,0.45,-0.69
2022-01-30 16:53:18.0950,0.188,-0.301,-0.504,-2.77,0.89,-5.68,1.09,-0.24,-0.96
2022-01-30 16:53:18.1040,0.193,-0.253,-0.693,-2.94,0.6,-4.32,0.72,-1.12,-1.24
2022-01-30 16:53:18.1150,0.182,-0.209,-0.86,-3.04,0.03,-2.42,0.72,-1.12,-1.24
2022-01-30 16:53:18.1250,0.177,-0.188,-0.984,-3.07,-0.42,-0.82,0.13,-2.64,-1.69
2022-01-30 16:53:18.1350,0.196,-0.162,-1.107,-3.25,-0.65,0.42,0.01,-3.12,-1.86
2022-01-30 16:53:18.1440,0.245,-0.126,-1.203,-3.73,-0.95,1.67,-0.01,-3.24,-1.98
2022-01-30 16:53:18.1550,0.282,-0.083,-1.255,-5.01,-1.82,3.16,0.05,-2.99,-2.0
2022-01-30 16:53:18.1650,0.278,-0.048,-1.286,-5.1,-2.19,3.49,0.14,-2.4,-1.88
2022-01-30 16:53:18.1760,0.253,-0.04,-1.288,-4.94,-2.29,3.5,0.21,-1.56,-1.57
2022-01-30 16:53:18.1850,0.226,-0.06,-1.245,-4.7,-2.1,3.05,0.21,-0.53,-1.12
2022-01-30 16:53:18.1950,0.205,-0.107,-1.168,-4.7,-2.1,3.05,0.14,0.55,-0.53
2022-01-30 16:53:18.2050,0.188,-0.166,-1.075,-4.44,-1.64,2.25,0.01,1.56,0.11
2022-01-30 16:53:18.2160,0.174,-0.213,-0.983,-4.14,-1.06,1.3,-0.15,2.4,0.71
2022-01-30 16:53:18.2250,0.15,-0.235,-0.894,-3.3,-0.35,-0.61,-0.27,3.04,1.22
2022-01-30 16:53:18.2350,0.122,-0.255,-0.788,-3.3,-0.35,-0.61,-0.27,3.04,1.22
2022-01-30 16:53:18.2450,0.092,-0.294,-0.69,-2.74,-0.07,-1.73,-0.33,3.83,2.0
2022-01-30 16:53:18.2550,0.06,-0.337,-0.615,-2.13,0.38,-2.72,-0.28,4.01,2.29
2022-01-30 16:53:18.2650,0.045,-0.369,-0.551,-1.52,0.85,-3.49,-0.22,4.09,2.46
2022-01-30 16:53:18.2750,0.047,-0.388,-0.519,-1.06,1.19,-4.14,-0.19,4.03,2.46
2022-01-30 16:53:18.2860,0.058,-0.398,-0.535,-0.78,1.39,-4.42,-0.2,3.78,2.25
2022-01-30 16:53:18.2950,0.071,-0.408,-0.594,-0.58,1.5,-4.22,-0.2,3.27,1.88
2022-01-30 16:53:18.3050,0.093,-0.438,-0.675,-0.45,1.64,-3.6,-0.17,2.54,1.45
2022-01-30 16:53:18.3160,0.136,-0.488,-0.758,-0.48,1.97,-2.79,-0.07,1.65,1.06
2022-01-30 16:53:18.3260,0.203,-0.537,-0.831,-0.8,2.47,-1.97,0.09,0.74,0.79
2022-01-30 16:53:18.3360,0.267,-0.556,-0.89,-1.42,2.93,-1.26,0.3,-0.01,0.67
2022-01-30 16:53:18.3460,0.292,-0.532,-0.946,-2.03,3.02,-0.7,0.3,-0.01,0.67
2022-01-30 16:53:18.3550,0.283,-0.459,-1.04,-2.3,2.68,-0.12,0.64,-0.93,0.63
2022-01-30 16:53:18.3660,0.232,-0.356,-1.181,-2.27,1.85,0.89,0.68,-1.11,0.64
2022-01-30 16:53:18.3760,0.141,-0.261,-1.351,-1.83,0.77,2.32,0.67,-1.09,0.68
2022-01-30 16:53:18.3860,0.041,-0.18,-1.519,-1.03,-0.21,4.03,0.67,-0.81,0.74
2022-01-30 16:53:18.3960,-0.039,-0.124,-1.645,0.54,-1.62,6.85,0.69,-0.3,0.84
2022-01-30 16:53:18.4060,-0.077,-0.091,-1.732,0.54,-1.62,6.85,0.73,0.33,0.93
2022-01-30 16:53:18.4160,-0.079,-0.065,-1.814,0.86,-2.0,7.69,0.73,0.33,0.93
2022-01-30 16:53:18.4260,-0.088,-0.022,-1.879,0.92,-2.33,8.54,0.63,1.34,0.96
2022-01-30 16:53:18.4360,-0.106,0.032,-1.869,1.45,-3.41,8.95,0.44,1.66,0.89
2022-01-30 16:53:18.4460,-0.15,0.076,-1.799,1.45,-3.41,8.95,0.17,1.88,0.83
2022-01-30 16:53:18.4560,-0.194,0.082,-1.677,2.05,-3.83,8.2,0.17,1.88,0.83
2022-01-30 16:53:18.4660,-0.203,0.048,-1.53,2.62,-3.81,6.97,-0.53,2.14,0.87
2022-01-30 16:53:18.4760,-0.178,-0.001,-1.378,2.73,-2.84,4.02,-0.85,2.2,0.93
2022-01-30 16:53:18.4860,-0.132,-0.078,-1.227,2.73,-2.84,4.02,-1.1,2.23,1.04
2022-01-30 16:53:18.4960,-0.093,-0.181,-1.085,2.45,-1.95,2.53,-1.24,2.22,1.22
2022-01-30 16:53:18.5060,-0.082,-0.269,-0.951,2.35,0.09,-0.15,-1.26,2.15,1.43
2022-01-30 16:53:18.5160,-0.094,-0.306,-0.833,2.35,0.09,-0.15,-1.18,2.01,1.61
2022-01-30 16:53:18.5260,-0.111,-0.307,-0.74,2.64,0.48,-1.28,-1.03,1.78,1.73
2022-01-30 16:53:18.5360,-0.128,-0.307,-0.676,2.93,0.53,-2.16,-0.85,1.45,1.78
2022-01-30 16:53:18.5460,-0.144,-0.321,-0.623,3.19,0.59,-2.74,-0.85,1.45,1.78
2022-01-30 16:53:18.5560,-0.151,-0.343,-0.564,3.4,0.77,-3.27,-0.41,0.73,1.73
2022-01-30 16:53:18.5660,-0.148,-0.357,-0.502,3.44,1.12,-4.46,-0.19,0.41,1.65
2022-01-30 16:53:18.5770,-0.141,-0.381,-0.439,3.33,1.33,-5.07,0.02,0.12,1.59
2022-01-30 16:53:18.5870,-0.128,-0.411,-0.382,3.16,1.57,-5.62,0.22,-0.11,1.57
2022-01-30 16:53:18.5970,-0.118,-0.433,-0.329,3.16,1.57,-5.62,0.41,-0.28,1.57
2022-01-30 16:53:18.6060,-0.109,-0.428,-0.287,3.0,1.7,-6.12,0.56,-0.39,1.56
2022-01-30 16:53:18.6170,-0.099,-0.398,-0.27,2.83,1.53,-6.51,0.64,-0.45,1.49
2022-01-30 16:53:18.6270,-0.1,-0.364,-0.274,2.66,1.14,-6.63,0.63,-0.5,1.37
2022-01-30 16:53:18.6370,-0.114,-0.323,-0.304,2.61,0.72,-6.57,0.53,-0.59,1.18
2022-01-30 16:53:18.6470,-0.12,-0.283,-0.384,2.66,0.25,-6.21,0.37,-0.72,0.92
2022-01-30 16:53:18.6570,-0.119,-0.26,-0.476,2.49,-0.4,-4.5,0.17,-0.86,0.63
2022-01-30 16:53:18.6670,-0.109,-0.245,-0.573,2.49,-0.4,-4.5,-0.08,-1.06,0.34
2022-01-30 16:53:18.6760,-0.083,-0.212,-0.727,1.87,-0.87,-1.97,-0.39,-1.35,0.13
2022-01-30 16:53:18.6870,-0.057,-0.182,-0.914,1.47,-1.06,-0.15,-0.71,-1.67,0.03
2022-01-30 16:53:18.6970,-0.043,-0.176,-1.12,1.14,-1.02,1.88,-0.97,-2.06,0.03
2022-01-30 16:53:18.7070,-0.034,-0.157,-1.358,1.14,-1.02,1.88,-1.11,-2.35,0.07
2022-01-30 16:53:18.7170,-0.035,-0.122,-1.486,0.85,-1.14,4.13,-1.11,-2.35,0.07
2022-01-30 16:53:18.7270,-0.063,-0.079,-1.506,0.66,-1.38,5.15,-0.82,-1.58,0.28
2022-01-30 16:53:18.7370,-0.119,-0.004,-1.518,0.84,-1.76,5.28,-0.58,-0.74,0.45
2022-01-30 16:53:18.7470,-0.152,0.07,-1.503,1.3,-2.47,5.38,-0.47,0.14,0.65
2022-01-30 16:53:18.7570,-0.14,0.091,-1.462,1.47,-3.17,4.76,-0.53,0.8,0.86
2022-01-30 16:53:18.7670,-0.099,0.055,-1.425,1.47,-3.17,4.76,-0.53,0.8,0.86
2022-01-30 16:53:18.7770,-0.032,-0.032,-1.39,0.54,-1.68,4.01,-1.01,1.29,1.11
2022-01-30 16:53:18.7880,0.033,-0.151,-1.324,0.54,-1.68,4.01,-1.01,1.29,1.11
2022-01-30 16:53:18.7970,0.071,-0.261,-1.198,0.03,-0.4,3.26,-0.93,1.51,1.13
2022-01-30 16:53:18.8070,0.061,-0.313,-1.059,-0.17,0.72,1.97,-0.55,1.69,1.1
2022-01-30 16:53:18.8170,0.006,-0.292,-0.947,0.13,1.18,0.63,-0.08,1.82,1.04
2022-01-30 16:53:18.8270,-0.08,-0.253,-0.893,1.91,0.5,-0.83,0.47,1.87,0.94
2022-01-30 16:53:18.8380,-0.206,-0.239,-0.885,1.91,0.5,-0.83,1.11,1.85,0.78
2022-01-30 16:53:18.8470,-0.323,-0.251,-0.899,3.34,0.28,-0.84,1.87,1.61,0.54
2022-01-30 16:53:18.8570,-0.363,-0.296,-0.955,4.56,0.25,-0.59,2.68,1.02,0.29
2022-01-30 16:53:18.8670,-0.302,-0.396,-1.037,4.92,0.5,0.07,2.68,1.02,0.29
2022-01-30 16:53:18.8780,-0.179,-0.526,-1.121,4.21,1.22,0.99,3.87,-1.12,0.23
2022-01-30 16:53:18.8970,-0.075,-0.619,-1.133,1.71,2.57,2.0,4.2,-2.02,0.44
2022-01-30 16:53:18.9000,-0.019,-0.638,-1.081,1.71,2.57,2.0,4.2,-2.02,0.44
2022-01-30 16:53:18.9070,-0.029,-0.587,-0.975,0.99,2.26,1.55,4.21,-2.19,0.98
2022-01-30 16:53:18.9120,-0.098,-0.49,-0.93,0.94,1.31,0.67,3.8,-1.7,1.09
2022-01-30 16:53:18.9220,-0.181,-0.405,-0.955,1.47,0.0,0.51,3.16,-1.08,1.05
2022-01-30 16:53:18.9320,-0.248,-0.402,-1.014,2.13,-1.03,0.95,2.43,-0.55,0.91
2022-01-30 16:53:18.9420,-0.295,-0.453,-1.096,2.67,-1.17,1.69,1.74,-0.28,0.69
2022-01-30 16:53:18.9520,-0.306,-0.507,-1.193,3.04,-0.79,2.62,1.28,-0.25,0.39
2022-01-30 16:53:18.9620,-0.266,-0.56,-1.21,3.04,-0.37,3.59,1.28,-0.25,0.39
2022-01-30 16:53:18.9720,-0.196,-0.598,-1.175,2.57,0.04,3.71,1.4,-0.44,-0.39
2022-01-30 16:53:18.9820,-0.118,-0.615,-1.124,1.85,0.28,3.42,1.51,-0.65,-0.74
2022-01-30 16:53:18.9920,-0.048,-0.635,-1.067,1.07,0.31,3.0,1.35,-0.83,-0.98
2022-01-30 16:53:19.0030,0.021,-0.666,-0.972,0.4,0.42,2.49,0.94,-0.93,-1.11
2022-01-30 16:53:19.0120,0.108,-0.708,-0.906,-0.31,0.67,1.58,0.35,-1.03,-1.15
2022-01-30 16:53:19.0230,0.193,-0.752,-0.906,-1.19,1.06,1.05,-0.33,-1.16,-1.16
2022-01-30 16:53:19.0330,0.257,-0.785,-0.917,-2.03,1.51,1.08,-0.98,-1.22,-1.12
2022-01-30 16:53:19.0430,0.278,-0.798,-0.875,-2.65,1.89,1.09,-1.47,-1.13,-1.01
2022-01-30 16:53:19.0520,0.253,-0.759,-0.824,-2.82,2.09,0.52,-1.84,-1.07,-0.86
2022-01-30 16:53:19.0630,0.221,-0.68,-0.824,-2.58,1.79,-0.01,-2.14,-1.14,-0.66
2022-01-30 16:53:19.0730,0.199,-0.63,-0.834,-2.34,1.19,-0.1,-2.37,-1.33,-0.43
2022-01-30 16:53:19.0830,0.181,-0.624,-0.836,-2.22,0.95,-0.13,-2.49,-1.56,-0.17
2022-01-30 16:53:19.0930,0.161,-0.633,-0.816,-2.17,1.14,-0.25,-2.47,-1.73,0.1
2022-01-30 16:53:19.1030,0.131,-0.627,-0.763,-2.11,1.43,-0.6,-2.32,-1.79,0.38
2022-01-30 16:53:19.1130,0.092,-0.604,-0.689,-1.98,1.55,-1.25,-2.09,-1.71,0.68
2022-01-30 16:53:19.1230,0.049,-0.569,-0.612,-1.77,1.5,-2.07,-1.82,-1.53,0.99
2022-01-30 16:53:19.1330,-0.006,-0.524,-0.554,-1.52,1.32,-2.88,-1.52,-1.29,1.27
2022-01-30 16:53:19.1430,-0.071,-0.474,-0.521,-1.13,1.01,-3.47,-1.14,-1.0,1.46
2022-01-30 16:53:19.1530,-0.146,-0.43,-0.507,-0.62,0.64,-3.79,-0.6,-0.63,1.49
2022-01-30 16:53:19.1630,-0.22,-0.395,-0.49,0.01,0.3,-3.93,0.12,-0.13,1.32
2022-01-30 16:53:19.1730,-0.266,-0.355,-0.439,0.65,-0.03,-4.13,0.93,0.39,0.94
2022-01-30 16:53:19.1830,-0.274,-0.306,-0.399,1.05,-0.51,-4.62,0.93,0.39,0.94
2022-01-30 16:53:19.1930,-0.263,-0.278,-0.355,1.16,-1.12,-4.92,2.28,1.25,-0.15
2022-01-30 16:53:19.2030,-0.218,-0.301,-0.265,1.14,-1.54,-5.34,2.74,1.63,-0.62
2022-01-30 16:53:19.2130,-0.167,-0.355,-0.186,0.83,-1.49,-6.14,3.06,1.86,-0.95
2022-01-30 16:53:19.2230,-0.127,-0.373,-0.168,0.54,-1.24,-6.75,3.24,1.78,-1.24
2022-01-30 16:53:19.2330,-0.092,-0.352,-0.243,0.37,-1.42,-6.68,3.2,1.31,-1.53
2022-01-30 16:53:19.2430,-0.047,-0.362,-0.415,0.21,-1.9,-5.68,2.9,0.37,-1.86
2022-01-30 16:53:19.2530,0.002,-0.415,-0.661,-0.11,-1.99,-3.72,2.4,-0.97,-2.24
2022-01-30 16:53:19.2630,0.093,-0.521,-0.872,-0.57,-1.62,-1.1,1.72,-2.13,-2.53
2022-01-30 16:53:19.2730,0.202,-0.731,-0.961,-1.55,-0.62,0.87,0.79,-2.96,-2.47
2022-01-30 16:53:19.2830,0.243,-0.944,-1.149,-2.64,1.48,1.83,-0.08,-3.57,-2.12
2022-01-30 16:53:19.2930,0.223,-0.963,-1.457,-3.11,3.39,3.92,-0.53,-3.76,-1.75
2022-01-30 16:53:19.3030,0.099,-0.824,-1.681,-2.96,3.36,6.82,-0.32,-3.73,-1.55
2022-01-30 16:53:19.3130,0.043,-0.626,-1.875,-1.96,1.87,9.15,0.42,-3.06,-1.53
2022-01-30 16:53:19.3240,-0.043,-0.479,-1.735,-1.58,-0.11,10.72,1.23,-1.78,-1.55
2022-01-30 16:53:19.3330,-0.143,-0.379,-1.518,-0.73,-1.57,9.2,1.66,-0.39,-1.54
2022-01-30 16:53:19.3440,-0.201,-0.296,-1.325,0.29,-2.68,7.19,1.57,0.7,-1.51
2022-01-30 16:53:19.3540,-0.175,-0.286,-1.117,0.93,-3.57,5.41,1.12,1.42,-1.55
2022-01-30 16:53:19.3640,-0.072,-0.358,-0.888,0.76,-3.65,3.37,0.47,1.81,-1.67
2022-01-30 16:53:19.3740,0.059,-0.478,-0.68,-0.07,-2.91,1.17,-0.24,1.98,-1.87
2022-01-30 16:53:19.3840,0.17,-0.604,-0.49,-1.08,-1.7,-0.9,-0.91,2.06,-2.04
2022-01-30 16:53:19.3940,0.229,-0.731,-0.371,-1.84,-0.39,-2.75,-1.52,2.02,-2.13
2022-01-30 16:53:19.4040,0.249,-0.782,-0.333,-2.06,0.94,-3.93,-1.52,2.02,-2.13
2022-01-30 16:53:19.4140,0.278,-0.783,-0.275,-1.97,1.45,-4.34,-2.1,1.82,-2.05
2022-01-30 16:53:19.4240,0.315,-0.82,-0.264,-2.01,1.68,-5.1,-2.09,1.57,-1.83
2022-01-30 16:53:19.4340,0.329,-0.797,-0.362,-2.13,2.2,-5.12,-1.85,1.2,-1.58
2022-01-30 16:53:19.4440,0.299,-0.725,-0.388,-2.05,2.04,-4.28,-1.44,0.87,-1.31
2022-01-30 16:53:19.4540,0.241,-0.656,-0.372,-1.55,1.47,-4.19,-0.96,0.66,-1.02
2022-01-30 16:53:19.4640,0.193,-0.589,-0.352,-0.86,0.88,-4.39,-0.51,0.63,-0.71
2022-01-30 16:53:19.4740,0.179,-0.533,-0.315,-0.34,0.29,-4.64,-0.18,0.73,-0.38
2022-01-30 16:53:19.4840,0.187,-0.508,-0.301,-0.17,-0.41,-5.09,-0.0,0.87,0.02
2022-01-30 16:53:19.5000,0.188,-0.521,-0.312,-0.17,-0.41,-5.09,-0.01,0.88,0.44
2022-01-30 16:53:19.5090,0.215,-0.527,-0.386,-0.44,-0.24,-4.1,-0.14,0.69,0.81
2022-01-30 16:53:19.5200,0.264,-0.525,-0.492,-0.95,-0.25,-3.08,-0.26,0.38,1.07
2022-01-30 16:53:19.5290,0.295,-0.521,-0.593,-0.95,-0.25,-3.08,-0.27,0.08,1.2
2022-01-30 16:53:19.5390,0.29,-0.501,-0.721,-1.27,-0.29,-2.08,-0.14,0.0,1.15
2022-01-30 16:53:19.5500,0.279,-0.488,-0.829,-1.25,-0.52,-0.82,0.09,0.19,0.96
2022-01-30 16:53:19.5600,0.295,-0.532,-0.939,-1.21,-0.61,0.23,0.33,0.52,0.73
2022-01-30 16:53:19.5700,0.316,-0.61,-1.038,-1.54,0.57,2.35,0.53,0.78,0.5
2022-01-30 16:53:19.5810,0.327,-0.661,-1.182,-1.54,0.57,2.35,0.66,0.73,0.25
2022-01-30 16:53:19.5900,0.324,-0.668,-1.372,-1.6,0.94,3.89,0.66,0.73,0.25
2022-01-30 16:53:19.6000,0.322,-0.714,-1.488,-1.53,1.45,6.69,0.82,0.47,-0.03
2022-01-30 16:53:19.6100,0.31,-0.821,-1.362,-1.53,1.45,6.69,0.99,0.75,0.03
2022-01-30 16:53:19.6200,0.22,-0.812,-1.395,-1.17,2.38,5.52,1.09,0.89,-0.03
2022-01-30 16:53:19.6300,0.192,-0.712,-1.408,-0.28,2.01,6.1,1.04,0.91,-0.22
2022-01-30 16:53:19.6410,0.182,-0.671,-1.369,0.02,0.97,6.15,0.78,0.75,-0.46
2022-01-30 16:53:19.6500,0.171,-0.694,-1.333,0.2,0.62,5.85,0.34,0.49,-0.69
2022-01-30 16:53:19.6600,0.175,-0.744,-1.252,0.39,1.43,4.66,-0.23,0.18,-0.88
2022-01-30 16:53:19.6710,0.187,-0.795,-1.195,0.32,2.0,4.11,-0.23,0.18,-0.88
2022-01-30 16:53:19.6810,0.202,-0.842,-1.179,0.19,2.61,3.87,-1.42,-0.53,-1.05
2022-01-30 16:53:19.6900,0.213,-0.91,-1.144,0.19,2.61,3.87,-1.8,-0.73,-0.91
2022-01-30 16:53:19.7000,0.202,-0.967,-1.088,0.21,4.13,2.69,-1.94,-0.76,-0.64
2022-01-30 16:53:19.7100,0.154,-0.968,-1.024,0.21,4.13,2.69,-1.86,-0.6,-0.3
2022-01-30 16:53:19.7210,0.082,-0.937,-0.932,1.38,4.05,0.9,-1.61,-0.33,0.04
2022-01-30 16:53:19.7300,0.016,-0.903,-0.836,1.38,4.05,0.9,-1.3,-0.11,0.32
2022-01-30 16:53:19.7400,-0.012,-0.855,-0.763,1.97,3.81,-0.09,-0.99,-0.02,0.46
2022-01-30 16:53:19.7500,0.008,-0.796,-0.697,2.16,3.39,-0.83,-0.73,-0.08,0.45
2022-01-30 16:53:19.7600,0.055,-0.735,-0.622,1.9,2.85,-1.52,-0.53,-0.21,0.33
2022-01-30 16:53:19.7700,0.115,-0.674,-0.539,1.37,2.29,-2.3,-0.35,-0.33,0.13
2022-01-30 16:53:19.7800,0.168,-0.614,-0.462,0.21,1.15,-3.91,-0.35,-0.33,0.13
2022-01-30 16:53:19.7900,0.202,-0.548,-0.392,-0.1,0.51,-4.59,-0.06,-0.36,-0.18
2022-01-30 16:53:19.8000,0.208,-0.478,-0.329,-0.1,0.51,-4.59,0.02,-0.24,-0.23
2022-01-30 16:53:19.8100,0.21,-0.412,-0.264,-0.17,-0.81,-5.85,0.04,-0.02,-0.18
2022-01-30 16:53:19.8210,0.212,-0.362,-0.219,-0.16,-1.26,-6.24,0.02,0.26,-0.02
2022-01-30 16:53:19.8300,0.211,-0.34,-0.192,-0.16,-1.26,-6.24,0.02,0.26,-0.02
2022-01-30 16:53:19.8410,0.21,-0.334,-0.161,-0.11,-1.46,-6.5,-0.07,0.84,0.5
2022-01-30 16:53:19.8500,0.21,-0.33,-0.152,-0.05,-1.51,-6.79,-0.12,1.04,0.77
2022-01-30 16:53:19.8610,0.213,-0.327,-0.178,0.0,-1.58,-6.5,-0.12,1.06,0.99
2022-01-30 16:53:19.8710,0.207,-0.337,-0.237,0.09,-1.49,-5.87,-0.04,0.93,1.18
2022-01-30 16:53:19.8810,0.205,-0.351,-0.32,0.09,-1.41,-5.01,0.14,0.71,1.3
2022-01-30 16:53:19.8920,0.206,-0.352,-0.407,0.09,-1.41,-5.01,0.42,0.44,1.36
2022-01-30 16:53:19.9020,0.206,-0.342,-0.517,-0.02,-1.66,-2.97,0.76,0.1,1.35
2022-01-30 16:53:19.9110,0.231,-0.347,-0.655,-0.38,-1.71,-1.55,1.11,-0.22,1.33
2022-01-30 16:53:19.9220,0.257,-0.364,-0.773,-0.38,-1.71,-1.55,1.46,-0.36,1.32
2022-01-30 16:53:19.9310,0.262,-0.394,-0.845,-0.82,-1.52,0.35,1.46,-0.36,1.32
2022-01-30 16:53:19.9410,0.243,-0.434,-0.873,-0.67,-1.31,0.73,1.91,0.33,1.4
2022-01-30 16:53:19.9510,0.251,-0.477,-0.87,-0.67,-1.31,0.73,1.91,0.83,1.47
2022-01-30 16:53:19.9600,0.271,-0.563,-0.998,-0.82,-1.02,0.78,1.63,0.84,1.48
2022-01-30 16:53:19.9700,0.3,-0.642,-1.161,-1.04,-0.3,2.43,1.2,0.72,1.38
2022-01-30 16:53:19.9810,0.312,-0.715,-1.112,-1.44,0.99,3.28,0.81,0.77,1.16
2022-01-30 16:53:19.9910,0.305,-0.78,-1.007,-1.44,0.99,3.28,0.5,0.9,0.83
2022-01-30 16:53:20.0000,0.312,-0.804,-0.956,-1.37,1.54,2.31,0.14,0.87,0.4
2022-01-30 16:53:20.0110,0.322,-0.78,-0.973,-1.42,1.68,1.94,-0.31,0.65,-0.03
2022-01-30 16:53:20.0210,0.313,-0.756,-0.966,-1.44,1.45,2.11,-0.86,0.38,-0.4
2022-01-30 16:53:20.0310,0.307,-0.733,-0.963,-1.2,1.19,1.9,-1.54,0.11,-0.68
2022-01-30 16:53:20.0420,0.312,-0.696,-1.009,-1.2,1.19,1.9,-2.25,-0.03,-0.82
2022-01-30 16:53:20.0500,0.31,-0.681,-1.043,-1.12,1.15,2.38,-2.81,0.1,-0.74
2022-01-30 16:53:20.0610,0.282,-0.69,-1.064,-0.74,1.48,2.43,-3.04,0.45,-0.43
2022-01-30 16:53:20.0710,0.224,-0.676,-1.075,-0.06,1.53,2.37,-2.86,0.94,0.04
2022-01-30 16:53:20.0820,0.145,-0.631,-1.036,-0.06,1.53,2.37,-2.32,1.45,0.58
2022-01-30 16:53:20.0930,0.073,-0.572,-0.961,1.6,0.77,1.03,-1.55,1.85,1.08
2022-01-30 16:53:20.1020,0.018,-0.515,-0.843,2.22,0.24,-0.17,-0.67,2.17,1.47
2022-01-30 16:53:20.1120,-0.007,-0.469,-0.693,2.22,0.24,-0.17,0.18,2.32,1.72
2022-01-30 16:53:20.1220,-0.019,-0.429,-0.581,2.54,-0.26,-1.57,0.91,2.23,1.82
2022-01-30 16:53:20.1300,-0.024,-0.381,-0.519,2.74,-0.77,-2.5,0.91,2.23,1.82
2022-01-30 16:53:20.1420,-0.024,-0.338,-0.474,2.86,-1.98,-3.26,1.73,1.41,1.68
2022-01-30 16:53:20.1500,-0.017,-0.323,-0.425,2.86,-1.98,-3.26,1.87,0.88,1.52
2022-01-30 16:53:20.1620,-0.006,-0.325,-0.39,2.78,-2.28,-3.62,1.87,0.88,1.52
2022-01-30 16:53:20.1720,0.018,-0.332,-0.375,2.61,-2.43,-3.82,1.82,0.03,1.16
2022-01-30 16:53:20.1810,0.054,-0.339,-0.37,2.3,-2.53,-3.84,1.69,-0.16,0.98
2022-01-30 16:53:20.1930,0.091,-0.35,-0.386,1.87,-2.6,-3.79,1.69,-0.16,0.98
2022-01-30 16:53:20.2020,0.125,-0.375,-0.429,1.44,-2.62,-3.51,1.33,-0.1,0.71
2022-01-30 16:53:20.2110,0.149,-0.437,-0.501,1.07,-2.46,-2.97,1.2,0.04,0.65
2022-01-30 16:53:20.2210,0.169,-0.533,-0.584,0.8,-1.9,-2.16,1.2,0.04,0.65
2022-01-30 16:53:20.2310,0.194,-0.631,-0.669,0.32814983546733856,-0.17510598242282868,-0.34,1.13,0.34,0.56
2022-01-30 16:53:20.2420,0.209,-0.706,-0.765,0.32,-0.18,-0.34,1.13,0.36,0.49
2022-01-30 16:53:20.2510,0.212,-0.776,-0.858,0.19,0.45,0.67,1.19,0.29,0.39
2022-01-30 16:53:20.2620,0.214,-0.84,-0.953,0.15,1.04,1.68,1.34,0.18,0.23
2022-01-30 16:53:20.2720,0.236,-0.879,-1.014,-0.13,1.79,3.34,1.55,0.08,0.02
2022-01-30 16:53:20.2820,0.29,-0.907,-1.037,-0.66,1.99,3.62,1.75,0.03,-0.18
2022-01-30 16:53:20.2930,0.347,-0.976,-1.001,-0.66,1.99,3.62,1.86,0.08,-0.27
2022-01-30 16:53:20.3030,0.392,-1.057,-0.905,-1.19,2.61,3.33,1.8,0.21,-0.24
2022-01-30 16:53:20.3120,0.422,-1.098,-0.784,-1.58,3.25,2.47,1.53,0.41,-0.14
2022-01-30 16:53:20.3230,0.458,-1.141,-0.661,-2.18,3.92,0.29,1.08,0.55,-0.05
2022-01-30 16:53:20.3330,0.514,-1.198,-0.607,-2.18,3.92,0.29,0.51,0.4,-0.06
2022-01-30 16:53:20.3430,0.589,-1.231,-0.652,-2.73,4.44,-0.06,-0.15,-0.08,-0.22
2022-01-30 16:53:20.3530,0.635,-1.241,-0.677,-3.44,4.73,0.44,-0.84,-0.51,-0.43
2022-01-30 16:53:20.3630,0.654,-1.331,-0.617,-3.99,6.02,-0.24,-1.56,-0.75,-0.51
2022-01-30 16:53:20.3730,0.583,-1.395,-0.616,-3.18,6.61,-0.35,-2.3,-0.88,-0.48
2022-01-30 16:53:20.3830,0.458,-1.282,-0.648,-3.18,6.61,-0.35,-2.95,-0.87,-0.43
2022-01-30 16:53:20.3930,0.328,-1.137,-0.662,-2.0,5.55,-0.25,-3.31,-0.67,-0.29
2022-01-30 16:53:20.4030,0.184,-1.025,-0.67,0.64,3.53,-0.42,-3.27,-0.58,-0.11
2022-01-30 16:53:20.4130,0.084,-0.862,-0.836,0.64,3.53,-0.42,-2.72,-0.84,0.02
2022-01-30 16:53:20.4230,0.038,-0.685,-0.883,1.49,2.06,1.09,-2.72,-0.84,0.02
2022-01-30 16:53:20.4330,0.013,-0.558,-0.76,1.96,-0.62,-0.2,-0.71,-1.16,0.2
2022-01-30 16:53:20.4430,-0.024,-0.496,-0.658,1.96,-0.62,-0.2,0.14,-1.27,0.37
2022-01-30 16:53:20.4530,-0.063,-0.474,-0.594,2.22,-1.18,-1.16,0.65,-1.39,0.62
2022-01-30 16:53:20.4630,-0.095,-0.457,-0.534,2.44,-1.43,-1.76,0.88,-1.45,0.87
2022-01-30 16:53:20.4730,-0.118,-0.422,-0.461,2.64,-2.14,-3.02,0.94,-1.42,1.08
2022-01-30 16:53:20.4830,-0.131,-0.376,-0.385,2.64,-2.14,-3.02,0.93,-1.3,1.18
2022-01-30 16:53:20.4930,-0.135,-0.33,-0.34,2.57,-2.68,-3.7,0.9,-1.19,1.17
2022-01-30 16:53:20.5030,-0.13,-0.293,-0.33,2.44,-3.2,-4.06,0.87,-1.14,1.07
2022-01-30 16:53:20.5130,-0.116,-0.258,-0.36,2.23,-3.63,-4.07,0.81,-1.16,0.9
2022-01-30 16:53:20.5230,-0.106,-0.23,-0.396,1.94,-4.04,-3.7,0.72,-1.15,0.69
2022-01-30 16:53:20.5330,-0.109,-0.225,-0.404,1.67,-4.43,-3.25,0.62,-1.02,0.51
2022-01-30 16:53:20.5440,-0.123,-0.229,-0.417,1.67,-4.43,-3.25,0.54,-0.84,0.36
2022-01-30 16:53:20.5540,-0.134,-0.235,-0.466,1.76,-4.4,-2.51,0.47,-0.65,0.23
2022-01-30 16:53:20.5640,-0.125,-0.247,-0.522,1.76,-4.4,-2.51,0.47,-0.65,0.23
2022-01-30 16:53:20.5740,-0.097,-0.285,-0.576,1.6,-4.29,-1.94,0.42,-0.27,0.06
2022-01-30 16:53:20.5840,-0.06,-0.364,-0.631,0.91,-3.1,-0.82,0.45,-0.06,0.0
2022-01-30 16:53:20.5940,-0.027,-0.482,-0.683,0.91,-3.1,-0.82,0.5,0.15,-0.04
2022-01-30 16:53:20.6040,0.001,-0.614,-0.751,0.6,-1.95,-0.26,0.56,0.24,-0.05
2022-01-30 16:53:20.6140,0.021,-0.728,-0.861,0.18,0.34,1.65,0.64,0.13,-0.08
2022-01-30 16:53:20.6240,0.036,-0.809,-0.976,0.18,0.34,1.65,0.72,-0.1,-0.11
2022-01-30 16:53:20.6340,0.046,-0.868,-1.035,-0.06,1.55,3.33,0.81,-0.34,-0.16
2022-01-30 16:53:20.6440,0.044,-0.919,-1.056,-0.05,2.0,3.61,0.9,-0.58,-0.24
2022-01-30 16:53:20.6540,0.045,-0.952,-1.099,-0.05,2.0,3.61,0.9,-0.95,-0.34
2022-01-30 16:53:20.6640,0.064,-0.97,-1.146,-0.13,2.22,4.12,0.8,-1.39,-0.44
2022-01-30 16:53:20.6740,0.089,-1.026,-1.162,-0.4,2.37,4.6,0.6,-1.83,-0.48
2022-01-30 16:53:20.6840,0.093,-1.087,-1.174,-0.72,2.93,4.77,0.31,-2.18,-0.44
2022-01-30 16:53:20.6940,0.053,-1.081,-1.153,-0.51,3.32,4.6,-0.01,-2.29,-0.36
2022-01-30 16:53:20.7040,-0.014,-1.04,-1.055,-0.51,3.32,4.6,-0.35,-2.12,-0.29
2022-01-30 16:53:20.7140,-0.066,-0.994,-0.962,0.05,2.93,3.57,-0.72,-1.82,-0.28
2022-01-30 16:53:20.7240,-0.071,-0.939,-0.912,0.39,2.52,2.66,-1.08,-1.45,-0.34
2022-01-30 16:53:20.7350,-0.042,-0.89,-0.837,-0.017579398043453695,1.67,1.19,-1.37,-0.92,-0.41
2022-01-30 16:53:20.7440,-0.004,-0.85,-0.705,-0.38,1.38,-0.2,-1.53,-0.24,-0.47
2022-01-30 16:53:20.7550,0.028,-0.79,-0.631,-0.38,1.38,-0.2,-1.52,0.3,-0.53
2022-01-30 16:53:20.7640,0.065,-0.7,-0.642,-0.63,0.85,-0.9,-1.35,0.63,-0.62
2022-01-30 16:53:20.7750,0.117,-0.61,-0.605,-0.93,0.04,-0.87,-1.02,0.88,-0.68
2022-01-30 16:53:20.7850,0.169,-0.557,-0.535,-1.33,-0.73,-1.39,-0.63,1.05,-0.69
2022-01-30 16:53:20.7950,0.204,-0.53,-0.504,-1.92,-1.39,-2.37,-0.3,1.1,-0.63
2022-01-30 16:53:20.8050,0.224,-0.5,-0.509,-1.99,-1.69,-2.31,-0.1,1.04,-0.55
2022-01-30 16:53:20.8150,0.226,-0.449,-0.492,-1.99,-1.69,-2.31,0.02,0.97,-0.47
2022-01-30 16:53:20.8250,0.186,-0.395,-0.443,-1.85,-2.21,-2.53,0.18,0.9,-0.39
2022-01-30 16:53:20.8340,0.139,-0.347,-0.394,-1.33,-2.75,-3.02,0.45,0.79,-0.34
2022-01-30 16:53:20.8440,0.104,-0.304,-0.359,-0.42,-3.71,-3.72,0.82,0.64,-0.29
2022-01-30 16:53:20.8550,0.083,-0.266,-0.314,-0.42,-3.71,-3.72,1.21,0.49,-0.19
2022-01-30 16:53:20.8640,0.068,-0.218,-0.268,-0.18,-4.17,-4.1,1.53,0.36,-0.03
2022-01-30 16:53:20.8740,0.06,-0.227,-0.234,-0.01,-4.74,-4.42,1.78,0.26,0.16
2022-01-30 16:53:20.8850,0.047,-0.267,-0.214,0.14,-4.46,-4.68,1.91,0.29,0.38
2022-01-30 16:53:20.8950,0.112,-0.266,-0.188,-0.53,-4.62,-4.8,1.87,0.45,0.54
2022-01-30 16:53:20.9050,0.145,-0.274,-0.192,-0.53,-4.62,-4.8,1.65,0.65,0.6
2022-01-30 16:53:20.9150,0.177,-0.308,-0.233,-1.14,-4.35,-4.06,1.27,0.86,0.56
2022-01-30 16:53:20.9250,0.214,-0.352,-0.292,-1.14,-4.35,-4.06,1.27,0.86,0.56
2022-01-30 16:53:20.9350,0.24,-0.412,-0.36,-1.45,-3.95,-3.38,0.34,1.43,0.15
2022-01-30 16:53:20.9450,0.263,-0.521,-0.355,-1.61,-3.35,-2.72,-0.11,2.05,-0.03
2022-01-30 16:53:20.9550,0.259,-0.677,-0.355,-1.7,-2.19,-2.85,-0.11,2.05,-0.03
2022-01-30 16:53:20.9650,0.257,-0.798,-0.445,-1.45,-0.63,-2.75,-1.11,3.32,-0.04
2022-01-30 16:53:20.9750,0.283,-0.883,-0.543,-1.26,0.57,-1.87,-1.6,3.71,0.04
2022-01-30 16:53:20.9850,0.313,-0.938,-0.673,-1.3593539705872537,2.08,0.29,-1.97,3.86,0.06
2022-01-30 16:53:20.9950,0.361,-0.949,-0.824,-1.36,2.08,0.29,-2.19,3.89,0.0
2022-01-30 16:53:21.0050,0.363,-0.998,-0.937,-1.56,2.34,1.68,-2.19,3.96,-0.06
2022-01-30 16:53:21.0150,0.352,-1.096,-1.004,-1.26,3.03,2.64,-2.05,4.02,-0.08
2022-01-30 16:53:21.0330,0.345,-1.219,-1.066,-0.55,5.52,3.79,-2.05,4.02,-0.08
2022-01-30 16:53:21.0360,0.345,-1.306,-1.085,-0.3,6.41,3.95,-1.84,3.88,-0.01
2022-01-30 16:53:21.0460,0.339,-1.309,-1.122,-0.3,6.41,3.95,-1.94,3.42,-0.12
2022-01-30 16:53:21.0550,0.309,-1.232,-1.204,0.54,5.8,5.14,-2.15,2.63,-0.43
2022-01-30 16:53:21.0650,0.273,-1.138,-1.258,1.07,5.12,5.46,-2.4,1.78,-0.89
2022-01-30 16:53:21.0750,0.242,-1.088,-1.179,1.07,5.12,5.46,-2.6,1.13,-1.38
2022-01-30 16:53:21.0850,0.218,-1.032,-1.068,1.53,4.9,4.45,-2.6,1.13,-1.38
2022-01-30 16:53:21.0960,0.213,-0.948,-0.995,1.89,4.57,3.28,-2.88,0.29,-2.23
2022-01-30 16:53:21.1050,0.199,-0.87,-0.934,2.08,4.03,2.45,-2.95,0.07,-2.36
2022-01-30 16:53:21.1160,0.157,-0.83,-0.892,2.9,3.59,1.21,-2.93,-0.12,-2.16
2022-01-30 16:53:21.1260,0.101,-0.835,-0.892,2.9,3.59,1.21,-2.77,-0.29,-1.66
2022-01-30 16:53:21.1350,0.065,-0.83,-0.867,3.48,3.96,1.09,-2.44,-0.4,-1.05
2022-01-30 16:53:21.1460,0.032,-0.755,-0.842,4.15,3.45,0.39,-1.99,-0.53,-0.52
2022-01-30 16:53:21.1560,-0.024,-0.661,-0.857,4.15,3.45,0.39,-1.99,-0.53,-0.52
2022-01-30 16:53:21.1660,-0.092,-0.593,-0.833,4.68,2.68,0.44,-0.84,-0.55,-0.17
2022-01-30 16:53:21.1760,-0.149,-0.523,-0.793,5.32,2.1,0.11,-0.84,-0.55,-0.17
2022-01-30 16:53:21.1860,-0.15,-0.456,-0.753,5.74,0.83,-0.73,0.23,-0.43,-0.7
2022-01-30 16:53:21.1960,-0.114,-0.415,-0.698,5.36,0.46,-1.31,0.62,-0.45,-1.04
2022-01-30 16:53:21.2060,-0.056,-0.414,-0.613,5.36,0.46,-1.31,0.62,-0.45,-1.04
2022-01-30 16:53:21.2150,0.002,-0.437,-0.539,4.77,0.49,-2.15,0.88,-0.51,-1.26
2022-01-30 16:53:21.2260,0.042,-0.437,-0.484,3.828883693814278,0.604688929617405,-3.34,1.1,-0.8,-1.33
2022-01-30 16:53:21.2360,0.082,-0.393,-0.459,3.82,0.6,-3.34,1.08,-0.99,-1.34
2022-01-30 16:53:21.2460,0.122,-0.343,-0.454,2.96,-0.38,-3.6,1.0,-1.17,-1.37
2022-01-30 16:53:21.2560,0.157,-0.324,-0.455,2.96,-0.38,-3.6,0.87,-1.29,-1.4
2022-01-30 16:53:21.2660,0.18,-0.32,-0.475,2.31,-0.59,-3.41,0.75,-1.32,-1.4
2022-01-30 16:53:21.2760,0.216,-0.321,-0.506,1.87,-0.54,-3.12,0.75,-1.32,-1.4
2022-01-30 16:53:21.2860,0.273,-0.344,-0.573,1.87,-0.54,-3.12,0.6,-1.29,-1.23
2022-01-30 16:53:21.2960,0.343,-0.365,-0.694,0.45,-0.12,-1.24,0.59,-1.4,-1.1
2022-01-30 16:53:21.3060,0.432,-0.377,-0.796,-0.53,-0.01,-0.31,0.63,-1.52,-1.0
2022-01-30 16:53:21.3160,0.534,-0.409,-0.885,-0.53,-0.01,-0.31,0.63,-1.52,-0.870074987411499
2022-01-30 16:53:21.3270,0.656,-0.485,-0.956,-2.96,1.05,1.17,0.96,-1.51,-0.69
2022-01-30 16:53:21.3360,0.767,-0.557,-1.006,-2.96,1.05,1.17,1.26,-1.24,-0.48
2022-01-30 16:53:21.3460,0.847,-0.591,-1.033,-4.09,1.62,1.63,1.52,-0.84,-0.27
2022-01-30 16:53:21.3560,0.94,-0.628,-1.073,-4.93,1.82,1.92,1.59,-0.53,-0.1
2022-01-30 16:53:21.3660,1.052,-0.692,-1.092,-5.91,2.08,2.38,1.48,-0.26,0.04
2022-01-30 16:53:21.3760,1.14,-0.753,-1.048,-7.03,2.62,2.52,1.48,-0.26,0.04
2022-01-30 16:53:21.3860,1.17,-0.738,-1.074,-7.85,3.06,2.15,0.7,-0.43,0.09
2022-01-30 16:53:21.3970,1.156,-0.669,-1.206,-8.03,2.09,3.87,0.7,-0.43,0.09
2022-01-30 16:53:21.4070,1.116,-0.671,-1.297,-8.03,2.09,3.87,-0.79,-1.64,-0.25
2022-01-30 16:53:21.4170,1.033,-0.703,-1.303,-7.71,2.3,4.54,-1.36,-2.05,-0.45
2022-01-30 16:53:21.4260,0.925,-0.632,-1.322,-7.01,2.66,4.46,-1.67,-2.29,-0.66
2022-01-30 16:53:21.4370,0.788,-0.51,-1.307,-6.08,1.99,4.52,-1.68,-2.25,-0.82
2022-01-30 16:53:21.4470,0.632,-0.419,-1.221,-3.46,0.28,3.14,-1.42,-1.91,-0.87
2022-01-30 16:53:21.4570,0.495,-0.362,-1.098,-3.46,0.28,3.14,-0.96,-1.35,-0.79
2022-01-30 16:53:21.4660,0.394,-0.338,-0.959,-2.25,-0.14,1.83,-0.43,-0.72,-0.56
2022-01-30 16:53:21.4770,0.324,-0.351,-0.829,-1.34,-0.27,0.42,0.09,-0.17,-0.19
2022-01-30 16:53:21.4870,0.284,-0.38,-0.724,-0.71,-0.11,-0.82,0.55,0.22,0.27
2022-01-30 16:53:21.4970,0.264,-0.399,-0.634,-0.33,0.12,-1.8,0.95,0.49,0.73
2022-01-30 16:53:21.5070,0.253,-0.388,-0.541,-0.03,-0.11,-3.49,1.31,0.68,1.12
2022-01-30 16:53:21.5160,0.245,-0.356,-0.445,0.08,-0.61,-4.33,1.64,0.83,1.39
2022-01-30 16:53:21.5270,0.237,-0.316,-0.365,0.17,-1.21,-5.0,1.89,0.94,1.52
2022-01-30 16:53:21.5370,0.235,-0.278,-0.296,0.17,-1.21,-5.0,2.02,1.08,1.54
2022-01-30 16:53:21.5470,0.226,-0.258,-0.23,0.35,-2.14,-6.07,2.02,1.22,1.5
2022-01-30 16:53:21.5570,0.201,-0.252,-0.186,0.35,-2.14,-6.07,1.9,1.32,1.41
2022-01-30 16:53:21.5670,0.169,-0.241,-0.18,0.64,-2.4,-6.33,1.69,1.38,1.3
2022-01-30 16:53:21.5770,0.139,-0.236,-0.177,1.0,-2.67,-6.25,1.41,1.43,1.17
2022-01-30 16:53:21.5870,0.116,-0.238,-0.203,1.35,-2.86,-6.16,1.08,1.42,1.04
2022-01-30 16:53:21.5970,0.11,-0.261,-0.266,1.62,-2.94,-5.75,0.73,1.37,0.91
2022-01-30 16:53:21.6070,0.119,-0.312,-0.341,1.71,-2.76,-5.03,0.39,1.29,0.81
2022-01-30 16:53:21.6170,0.135,-0.358,-0.458,1.66,-2.29,-4.21,0.12,1.16,0.66
2022-01-30 16:53:21.6270,0.154,-0.372,-0.611,1.55,-1.9,-2.97,-0.08,1.03,0.46
2022-01-30 16:53:21.6370,0.165,-0.376,-0.77,1.43,-1.8,-1.41,-0.13,1.0,0.23
2022-01-30 16:53:21.6470,0.152,-0.395,-0.89,1.65,-1.54,1.3,-0.01,1.17,0.07
2022-01-30 16:53:21.6570,0.124,-0.424,-0.995,1.65,-1.54,1.3,0.19,1.42,0.0
2022-01-30 16:53:21.6670,0.111,-0.456,-1.136,2.24,-0.96,3.9,0.41,1.65,0.03
2022-01-30 16:53:21.6780,0.138,-0.519,-1.255,2.05,-0.36,5.11,0.64,1.86,0.16
2022-01-30 16:53:21.6870,0.2,-0.608,-1.334,1.55,0.46,5.96,0.87,2.06,0.34
2022-01-30 16:53:21.6980,0.274,-0.692,-1.374,1.55,0.46,5.96,1.05,2.21,0.48
2022-01-30 16:53:21.7070,0.341,-0.746,-1.369,0.94,1.15,6.44,1.12,2.32,0.51
2022-01-30 16:53:21.7170,0.388,-0.788,-1.337,0.13,1.89,6.32,1.05,2.3,0.44
2022-01-30 16:53:21.7280,0.417,-0.833,-1.31,0.0,2.26,6.19,0.87,2.12,0.26
2022-01-30 16:53:21.7380,0.429,-0.874,-1.262,0.0,2.26,6.19,0.57,1.79,0.0
2022-01-30 16:53:21.7480,0.446,-0.93,-1.201,0.01,2.63,5.79,0.18,1.29,-0.28
2022-01-30 16:53:21.7580,0.483,-1.004,-1.169,-0.39,3.97,5.03,-0.25,0.62,-0.59
2022-01-30 16:53:21.7680,0.526,-1.056,-1.174,-0.76,4.54,5.03,-0.66,-0.13,-0.88
2022-01-30 16:53:21.7780,0.551,-1.1,-1.149,-0.94,5.08,4.64,-1.01,-0.73,-1.07
2022-01-30 16:53:21.7880,0.528,-1.105,-1.088,-0.68,5.17,3.9,-1.27,-1.15,-1.17
2022-01-30 16:53:21.7980,0.472,-1.035,-1.04,-0.68,5.17,3.9,-1.45,-1.41,-1.21
2022-01-30 16:53:21.8080,0.397,-0.951,-0.991,-0.12,4.57,3.3,-1.56,-1.59,-1.18
2022-01-30 16:53:21.8170,0.312,-0.875,-0.954,0.59,3.92,2.67,-1.6,-1.8,-1.11
2022-01-30 16:53:21.8280,0.239,-0.801,-0.94,1.94,2.78,1.88,-1.56,-2.06,-1.01
2022-01-30 16:53:21.8380,0.181,-0.738,-0.908,2.37,2.32,1.34,-1.38,-2.26,-0.94
2022-01-30 16:53:21.8480,0.136,-0.672,-0.83,2.37,2.32,1.34,-1.07,-2.39,-0.89
2022-01-30 16:53:21.8580,0.095,-0.597,-0.75,2.66,1.77,0.4,-0.69,-2.49,-0.85
2022-01-30 16:53:21.8680,0.052,-0.534,-0.668,2.92,1.12,-0.5,-0.31,-2.55,-0.75
2022-01-30 16:53:21.8780,0.018,-0.499,-0.572,3.31,0.29,-2.47,0.0,-2.57,-0.59
2022-01-30 16:53:21.8880,-0.005,-0.467,-0.486,3.33,-0.04,-3.37,0.25,-2.59,-0.41
2022-01-30 16:53:21.8980,-0.011,-0.423,-0.417,3.33,-0.04,-3.37,0.43,-2.61,-0.26
2022-01-30 16:53:21.9080,0.006,-0.376,-0.367,3.16,-0.51,-4.09,0.54,-2.61,-0.17
2022-01-30 16:53:21.9180,0.047,-0.339,-0.332,2.76,-1.0,-4.61,0.58,-2.57,-0.17
2022-01-30 16:53:21.9280,0.101,-0.317,-0.302,2.13,-1.39,-4.99,0.58,-2.42,-0.25
2022-01-30 16:53:21.9380,0.143,-0.309,-0.277,0.87,-1.74,-5.57,0.55,-2.17,-0.35
2022-01-30 16:53:21.9490,0.173,-0.295,-0.272,0.87,-1.74,-5.57,0.48,-1.83,-0.5
2022-01-30 16:53:21.9580,0.21,-0.271,-0.268,0.44,-1.92,-5.62,0.35,-1.42,-0.71
2022-01-30 16:53:21.9690,0.241,-0.255,-0.286,-0.35,-2.3,-5.47,0.15,-1.02,-0.93
2022-01-30 16:53:21.9780,0.268,-0.256,-0.322,-0.35,-2.3,-5.47,-0.07,-0.64,-1.12
2022-01-30 16:53:21.9890,0.291,-0.268,-0.367,-0.61,-2.23,-5.13,-0.28,-0.34,-1.27
2022-01-30 16:53:21.9990,0.319,-0.272,-0.452,-0.8,-2.07,-4.68,-0.44,-0.2,-1.36
2022-01-30 16:53:22.0080,0.364,-0.275,-0.564,-1.04,-1.98,-3.82,-0.51,-0.17,-1.38
2022-01-30 16:53:22.0190,0.425,-0.286,-0.676,-1.46,-1.87,-2.74,-0.51,-0.2,-1.34
2022-01-30 16:53:22.0280,0.495,-0.308,-0.804,-2.7,-1.38,-0.4,-0.4,-0.28,-1.18
2022-01-30 16:53:22.0390,0.553,-0.347,-0.912,-3.21,-0.94,0.54,-0.17,-0.21,-0.87
2022-01-30 16:53:22.0490,0.581,-0.398,-0.939,-3.42,-0.44,0.75,0.18,0.09,-0.41
2022-01-30 16:53:22.0590,0.6,-0.443,-0.932,-3.42,-0.44,0.75,0.57,0.59,0.16
2022-01-30 16:53:22.0680,0.636,-0.493,-0.91,-3.58,-0.06,0.69,0.86,1.15,0.73
2022-01-30 16:53:22.0790,0.702,-0.58,-0.912,-3.9,0.37,0.55,0.92,1.53,1.24
2022-01-30 16:53:22.0890,0.818,-0.695,-0.966,-5.67,2.2,1.37,0.77,1.51,1.57
2022-01-30 16:53:22.0990,0.934,-0.793,-1.025,-5.67,2.2,1.37,0.6,1.19,1.68
2022-01-30 16:53:22.1090,0.967,-0.831,-1.026,-6.96,3.21,1.99,0.47,0.56,1.53
2022-01-30 16:53:22.1190,0.931,-0.772,-1.128,-6.96,3.21,1.99,0.22,-0.52,1.11
2022-01-30 16:53:22.1290,0.876,-0.681,-1.299,-6.28,1.65,4.72,-0.16,-1.75,0.54
2022-01-30 16:53:22.1390,0.819,-0.673,-1.335,-6.28,1.65,4.72,-0.52,-2.64,0.0
2022-01-30 16:53:22.1490,0.759,-0.7,-1.288,-5.94,1.73,4.79,-0.85,-3.14,-0.48
2022-01-30 16:53:22.1590,0.679,-0.669,-1.281,-5.58,2.02,4.26,-1.08,-3.29,-0.83
2022-01-30 16:53:22.1690,0.563,-0.632,-1.235,-4.99,1.77,4.08,-1.14,-3.02,-0.98
2022-01-30 16:53:22.1790,0.418,-0.616,-1.127,-4.02,1.55,3.46,-1.0,-2.4,-0.89
2022-01-30 16:53:22.1890,0.256,-0.599,-0.995,-2.73,1.5,0.9367707252502442,-0.72,-1.62,-0.59
2022-01-30 16:53:22.1990,0.111,-0.592,-0.878,0.05,1.39,-0.24,-0.37,-0.82,-0.12
2022-01-30 16:53:22.2090,0.013,-0.597,-0.74,0.05,1.39,-0.24,0.02,0.04,0.43
2022-01-30 16:53:22.2190,-0.034,-0.599,-0.568,1.38,1.39,-3.3,0.41,0.94,0.94
2022-01-30 16:53:22.2290,-0.035,-0.577,-0.442,1.38,1.39,-3.3,0.79,1.71,1.35
2022-01-30 16:53:22.2400,0.008,-0.544,-0.395,1.07,0.63,-4.72,1.14,2.29,1.64
2022-01-30 16:53:22.2500,0.069,-0.509,-0.34,0.62,0.13,-5.21,1.43,2.8,1.78
2022-01-30 16:53:22.2590,0.133,-0.465,-0.248,0.62,0.13,-5.21,1.64,3.3,1.82
2022-01-30 16:53:22.2690,0.185,-0.427,-0.179,0.19,-0.47,-6.0,1.64,3.3,1.82
2022-01-30 16:53:22.2790,0.232,-0.402,-0.185,-0.09,-0.99,-6.44,1.76,3.78,1.59
2022-01-30 16:53:22.2900,0.275,-0.372,-0.237,-0.55,-1.85,-5.46,1.66,3.69,1.4
2022-01-30 16:53:22.3000,0.34,-0.38,-0.259,-0.55,-1.85,-5.46,1.45,3.46,1.17
2022-01-30 16:53:22.3090,0.36,-0.36,-0.325,-0.97,-1.89,-5.11,1.13,3.0,0.92
2022-01-30 16:53:22.3190,0.351,-0.309,-0.431,-0.69,-2.83,-3.14,0.72,2.59,0.64
2022-01-30 16:53:22.3300,0.353,-0.277,-0.447,-0.69,-2.83,-3.14,0.2,2.43,0.39
2022-01-30 16:53:22.3400,0.335,-0.289,-0.483,-0.55,-3.11,-2.95,-0.41,2.54,0.2
2022-01-30 16:53:22.3490,0.289,-0.316,-0.543,-0.16,-2.93,-2.47,-1.05,2.97,0.06
2022-01-30 16:53:22.3600,0.196,-0.344,-0.613,0.56,-2.59,-1.89,-1.05,2.97,0.06
2022-01-30 16:53:22.3700,0.122,-0.363,-0.802,2.7,-1.9,0.93,-1.87,3.74,-0.14
2022-01-30 16:53:22.3800,0.111,-0.365,-1.008,2.7,-1.9,0.93,-1.86,3.81,-0.23
2022-01-30 16:53:22.3900,0.186,-0.382,-1.234,2.39,-1.41,5.35,-1.47,3.46,-0.29
2022-01-30 16:53:22.4000,0.35,-0.462,-1.454,2.39,-1.41,5.35,-0.73,3.01,-0.27
2022-01-30 16:53:22.4100,0.521,-0.614,-1.421,0.95,-0.46,7.39,-0.73,3.01,-0.27
2022-01-30 16:53:22.4200,0.631,-0.788,-1.383,-0.49,1.11,6.97,0.26,2.33,0.16
2022-01-30 16:53:22.4300,0.656,-0.904,-1.442,-1.32,2.76,6.91,0.1,1.84,0.44
2022-01-30 16:53:22.4400,0.612,-0.95,-1.405,-1.37,3.77,7.54,0.1,1.84,0.44
2022-01-30 16:53:22.4500,0.526,-0.992,-1.32,0.12,4.63,6.33,-0.75,1.57,0.82
2022-01-30 16:53:22.4600,0.465,-1.089,-1.254,0.12,4.63,6.33,-1.08,1.64,0.85
2022-01-30 16:53:22.4700,0.456,-1.183,-1.263,0.72,5.65,5.77,-1.23,1.48,0.66
2022-01-30 16:53:22.4800,0.465,-1.22,-1.335,0.79,6.92,6.7,-1.19,1.04,0.26
2022-01-30 16:53:22.4900,0.451,-1.207,-1.373,0.79,6.92,6.7,-0.99,0.45,-0.23
2022-01-30 16:53:22.5000,0.406,-1.128,-1.336,1.01,6.8,6.96,-0.74,-0.13,-0.68
2022-01-30 16:53:22.5100,0.336,-0.993,-1.24,2.21,4.77,5.42,-0.56,-0.65,-1.0
2022-01-30 16:53:22.5200,0.277,-0.87,-1.138,2.21,4.77,5.42,-0.56,-0.65,-1.0
2022-01-30 16:53:22.5300,0.243,-0.782,-1.023,2.74,3.7,4.33,-0.39,-1.55,-1.13
2022-01-30 16:53:22.5400,0.222,-0.697,-0.912,3.0,2.95,3.08,-0.21,-1.97,-1.0
2022-01-30 16:53:22.5500,0.212,-0.604,-0.814,3.11,2.18,1.91,0.09,-2.39,-0.82
2022-01-30 16:53:22.5600,0.22,-0.532,-0.72,2.79,0.64,-0.21,0.49,-2.79,-0.63
2022-01-30 16:53:22.5700,0.228,-0.481,-0.626,2.52,0.09,-1.25,0.95,-3.11,-0.46
2022-01-30 16:53:22.5800,0.225,-0.42,-0.532,2.33,-0.61,-2.26,1.37,-3.36,-0.33
2022-01-30 16:53:22.5900,0.22,-0.362,-0.448,2.11,-1.25,-3.15,1.68,-3.54,-0.21
2022-01-30 16:53:22.6100,0.232,-0.351,-0.368,1.71,-1.45,-4.0,1.85,-3.61,-0.09
2022-01-30 16:53:22.6100,0.262,-0.354,-0.29,1.14,-1.56,-4.79,1.87,-3.53,-0.01
2022-01-30 16:53:22.6200,0.288,-0.346,-0.221,1.14,-1.56,-4.79,1.8,-3.27,0.02
2022-01-30 16:53:22.6290,0.297,-0.325,-0.152,0.65,-1.79,-5.48,1.65,-2.84,-0.01
2022-01-30 16:53:22.6390,0.294,-0.296,-0.089,0.24,-2.54,-6.77,1.45,-2.26,-0.08
2022-01-30 16:53:22.6490,0.292,-0.269,-0.051,0.24,-2.54,-6.77,1.2,-1.62,-0.17
2022-01-30 16:53:22.6590,0.307,-0.259,-0.042,0.12,-2.86,-7.09,0.89,-1.01,-0.28
2022-01-30 16:53:22.6700,0.342,-0.269,-0.077,-0.11,-3.0,-7.11,0.54,-0.51,-0.38
2022-01-30 16:53:22.6790,0.39,-0.292,-0.154,-0.49,-2.91,-6.7,0.17,-0.16,-0.47
2022-01-30 16:53:22.6900,0.439,-0.328,-0.237,-0.95,-2.67,-5.9,-0.15,0.12,-0.52
2022-01-30 16:53:22.7000,0.495,-0.374,-0.31,-1.4,-2.27,-5.12,-0.38,0.33,-0.53
2022-01-30 16:53:22.7110,0.547,-0.41,-0.412,-2.34,-1.4,-3.36,-0.48,0.44,-0.5
2022-01-30 16:53:22.7210,0.594,-0.418,-0.524,-2.34,-1.4,-3.36,-0.39,0.56,-0.41
2022-01-30 16:53:22.7310,0.634,-0.421,-0.596,-2.73,-1.3,-2.32,-0.39,0.81,-0.21
2022-01-30 16:53:22.7410,0.69,-0.412,-0.673,-3.05,-1.27,-1.62,0.25,1.1,0.11
2022-01-30 16:53:22.7510,0.773,-0.404,-0.771,-3.56,-1.39,-0.77,0.55,1.37,0.52
2022-01-30 16:53:22.7610,0.857,-0.429,-0.837,-4.33,-1.5,0.25,0.75,1.55,1.0
2022-01-30 16:53:22.7710,0.923,-0.473,-0.884,-5.67,-0.97,1.51,0.82,1.53,1.45
2022-01-30 16:53:22.7810,0.962,-0.513,-0.938,-5.67,-0.97,1.51,0.74,1.28,1.78
2022-01-30 16:53:22.7910,0.97,-0.56,-0.966,-6.11,-0.33,2.42,0.52,0.91,1.94
2022-01-30 16:53:22.8020,0.947,-0.595,-0.994,-6.11,-0.33,2.42,0.23,0.44,1.88
2022-01-30 16:53:22.8110,0.902,-0.604,-1.038,-5.55,-0.08,3.15,-0.04,-0.03,1.61
2022-01-30 16:53:22.8210,0.825,-0.618,-1.042,-4.86,0.06,3.1,-0.28,-0.38,1.23
2022-01-30 16:53:22.8310,0.725,-0.644,-0.996,-4.86,0.06,3.1,-0.5,-0.55,0.81
2022-01-30 16:53:22.8410,0.632,-0.666,-0.943,-3.13,0.6,1.99,-0.77,-0.6,0.39
2022-01-30 16:53:22.8520,0.548,-0.72,-0.899,-2.36,1.27,1.5,-1.09,-0.6,0.09
2022-01-30 16:53:22.8620,0.466,-0.809,-0.872,-2.36,1.27,1.5,-1.36,-0.54,0.0
2022-01-30 16:53:22.8710,0.379,-0.87,-0.833,-0.77,2.87,0.63,-1.44,-0.34,0.08
2022-01-30 16:53:22.8810,0.304,-0.843,-0.784,-0.07,2.58,0.09,-1.36,-0.05,0.17
2022-01-30 16:53:22.8920,0.238,-0.744,-0.737,-0.07,2.58,0.09,-1.36,-0.05,0.17
2022-01-30 16:53:22.9020,0.195,-0.657,-0.671,0.58,1.67,-0.45,-1.03,0.71,0.18
2022-01-30 16:53:22.9120,0.186,-0.607,-0.596,1.01,0.93,-1.15,-0.88,1.13,0.11
2022-01-30 16:53:22.9210,0.196,-0.574,-0.523,1.14,0.54,-1.91,-0.76,1.5,0.04
2022-01-30 16:53:22.9320,0.21,-0.55,-0.461,1.14,0.28,-2.6,-0.65,1.78,-0.0
2022-01-30 16:53:22.9420,0.219,-0.531,-0.416,1.21,-0.03,-3.56,-0.53,1.93,0.02
2022-01-30 16:53:22.9520,0.221,-0.51,-0.391,1.21,-0.03,-3.56,-0.42,1.95,0.09
2022-01-30 16:53:22.9620,0.217,-0.47,-0.38,1.34,-0.22,-3.74,-0.31,1.84,0.19
2022-01-30 16:53:22.9720,0.206,-0.409,-0.376,1.52,-0.63,-3.79,-0.31,1.84,0.27383047342300415
2022-01-30 16:53:22.9820,0.186,-0.343,-0.371,1.74,-1.23,-3.78,-0.11,1.45,0.34
2022-01-30 16:53:22.9920,0.161,-0.295,-0.369,2.04,-1.87,-3.77,-0.02,1.25,0.43
2022-01-30 16:53:23.0020,0.133,-0.266,-0.369,2.36,-2.34,-3.74,-0.02,1.25,0.43
2022-01-30 16:53:23.0120,0.119,-0.243,-0.378,2.83,-2.89,-3.53,0.22,0.9,0.61
2022-01-30 16:53:23.0220,0.129,-0.232,-0.418,2.83,-2.89,-3.53,0.37,0.68,0.7
2022-01-30 16:53:23.0310,0.169,-0.249,-0.483,2.71,-3.03,-3.04,0.52,0.45,0.79
2022-01-30 16:53:23.0430,0.214,-0.297,-0.557,1.81,-2.48,-1.56,0.64,0.23,0.88
2022-01-30 16:53:23.0520,0.247,-0.324,-0.647,1.81,-2.48,-1.56,0.71,0.09,0.88
2022-01-30 16:53:23.0620,0.251,-0.309,-0.721,1.46,-2.62,0.09,0.74,0.18,0.79
2022-01-30 16:53:23.0720,0.213,-0.288,-0.757,1.86,-2.89,0.49,0.71,0.47,0.65
2022-01-30 16:53:23.0830,0.165,-0.285,-0.798,2.34,-2.95,0.97,0.71,0.47,0.65
2022-01-30 16:53:23.0920,0.151,-0.311,-0.844,2.49,-2.72,1.52,0.64,0.9,0.52
2022-01-30 16:53:23.1020,0.183,-0.348,-0.894,2.22,-2.4,2.09,0.49,1.66,0.34
2022-01-30 16:53:23.1120,0.255,-0.406,-0.93,2.22,-2.4,2.09,0.42,1.84,0.32
2022-01-30 16:53:23.1230,0.352,-0.497,-0.986,0.7,-0.93,3.23,0.28,1.79,0.36
2022-01-30 16:53:23.1320,0.446,-0.61,-1.062,0.7,-0.93,3.23,0.02,1.63,0.45
2022-01-30 16:53:23.1430,0.485,-0.724,-1.089,-0.32,1.26,4.25,0.02,1.63,0.45
2022-01-30 16:53:23.1520,0.449,-0.789,-1.064,0.17,1.85,4.0,-0.7,1.62,0.57
2022-01-30 16:53:23.1630,0.375,-0.815,-1.029,0.17,1.85,4.0,-1.13,1.81,0.55
2022-01-30 16:53:23.1730,0.315,-0.855,-0.979,0.98,2.13,3.66,-1.58,2.02,0.49
2022-01-30 16:53:23.1830,0.301,-0.938,-0.962,1.63,2.66,3.18,-2.04,2.03,0.41
2022-01-30 16:53:23.1930,0.328,-1.021,-1.005,1.62,4.53,3.48,-2.45,1.74,0.22
2022-01-30 16:53:23.2030,0.342,-1.037,-1.076,1.62,4.53,3.48,-2.7,1.17,-0.14
2022-01-30 16:53:23.2230,0.322,-0.985,-1.148,1.9,4.43,4.68,-2.77,0.39,-0.64
2022-01-30 16:53:23.2260,0.299,-0.907,-1.209,1.9,4.43,4.68,-2.67,-0.45,-1.18
2022-01-30 16:53:23.2260,0.292,-0.813,-1.194,1.9,4.43,4.68,-2.4,-1.14,-1.65
2022-01-30 16:53:23.2370,0.305,-0.71,-1.12,2.17,3.19,4.63,-2.01,-1.75,-1.97
2022-01-30 16:53:23.2470,0.316,-0.588,-1.054,2.0,2.41,3.71,-1.6,-2.35,-2.12
2022-01-30 16:53:23.2570,0.321,-0.484,-1.004,1.82,1.42,2.89,-1.27,-2.99,-2.02
2022-01-30 16:53:23.2670,0.301,-0.468,-0.961,1.65,0.68,2.23,-1.03,-3.58,-1.62
2022-01-30 16:53:23.2770,0.261,-0.484,-0.901,1.67,0.77,1.58,-0.83,-4.03,-1.09
2022-01-30 16:53:23.2870,0.224,-0.45,-0.862,1.8,1.01,0.78,-0.69,-4.32,-0.62
2022-01-30 16:53:23.2980,0.2,-0.402,-0.828,1.81,0.7,0.22,-0.58,-4.38,-0.27
2022-01-30 16:53:23.3080,0.18,-0.4,-0.783,1.69,0.34,-0.32,-0.51,-4.21,-0.07
2022-01-30 16:53:23.3180,0.148,-0.405,-0.755,1.54,0.4,-0.91,-0.44,-3.82,0.0
2022-01-30 16:53:23.3280,0.106,-0.401,-0.724,1.54,0.47,-1.31,-0.39,-3.26,-0.02
2022-01-30 16:53:23.3380,0.076,-0.402,-0.698,1.66,0.47,-1.74,-0.34,-2.65,-0.08
2022-01-30 16:53:23.3480,0.064,-0.407,-0.693,1.7,0.51,-2.04,-0.29,-2.05,-0.16
2022-01-30 16:53:23.3580,0.073,-0.422,-0.71,1.62,0.61,-2.12,-0.21,-1.5,-0.24
2022-01-30 16:53:23.3680,0.113,-0.434,-0.731,1.37,0.79,-1.97,-0.09,-0.96,-0.33
2022-01-30 16:53:23.3780,0.161,-0.421,-0.727,0.88,0.9,-1.81,0.08,-0.37,-0.46
2022-01-30 16:53:23.3880,0.199,-0.392,-0.685,0.39,0.74,-1.9,0.28,0.26,-0.6
2022-01-30 16:53:23.3980,0.232,-0.369,-0.637,0.07,0.45,-2.33,0.49,0.86,-0.71
2022-01-30 16:53:23.4080,0.264,-0.356,-0.596,-0.14,0.21,-2.75,0.65,1.36,-0.77
2022-01-30 16:53:23.4180,0.301,-0.35,-0.588,-0.32,0.05,-3.09,0.71,1.63,-0.77
2022-01-30 16:53:23.4280,0.341,-0.339,-0.623,-0.51,-0.06,-3.04,0.7,1.68,-0.74
2022-01-30 16:53:23.4380,0.383,-0.331,-0.663,-0.74,-0.2,-2.61,0.66,1.55,-0.68
2022-01-30 16:53:23.4480,0.432,-0.306,-0.734,-0.99,-0.32,-2.14,0.65,1.29,-0.62
2022-01-30 16:53:23.4580,0.5,-0.279,-0.783,-1.35,-0.63,-1.35,0.75,1.09,-0.52
2022-01-30 16:53:23.4680,0.559,-0.251,-0.792,-1.93,-0.93,-0.88,0.92,1.02,-0.37
2022-01-30 16:53:23.4780,0.598,-0.184,-0.825,-2.37,-1.3,-0.73,0.92,1.02,-0.37
2022-01-30 16:53:23.4880,0.656,-0.112,-0.876,-2.65,-2.09,-0.29,1.09,1.18,0.09
2022-01-30 16:53:23.4980,0.757,-0.095,-0.964,-3.18,-2.84,0.31,0.89,1.1,0.35
2022-01-30 16:53:23.5080,0.868,-0.132,-1.058,-4.13,-3.03,1.3,0.52,0.92,0.6
2022-01-30 16:53:23.5180,0.939,-0.208,-1.081,-5.13,-2.65,2.22,0.08,0.77,0.76
2022-01-30 16:53:23.5280,0.95,-0.23,-1.084,-5.73,-1.94,2.39,-0.38,0.57,0.75
2022-01-30 16:53:23.5380,0.896,-0.151,-1.128,-5.74,-1.86,2.47,-0.83,0.31,0.51
2022-01-30 16:53:23.5480,0.812,-0.074,-1.162,-5.14,-2.65,2.9,-1.32,0.1,0.14
2022-01-30 16:53:23.5580,0.758,-0.085,-1.207,-4.32,-3.22,3.16,-1.88,-0.14,-0.33
2022-01-30 16:53:23.5680,0.783,-0.166,-1.317,-3.87,-2.83,3.59,-2.48,-0.46,-0.84
2022-01-30 16:53:23.5780,0.829,-0.268,-1.443,-4.2,-1.74,4.62,-2.99,-0.72,-1.27
2022-01-30 16:53:23.5880,0.817,-0.354,-1.517,-4.63,-0.44,5.7,-3.21,-0.69,-1.48
2022-01-30 16:53:23.5980,0.722,-0.388,-1.513,-4.44,0.68,6.2,-3.02,-0.28,-1.39
2022-01-30 16:53:23.6080,0.555,-0.359,-1.453,-3.38,1.25,6.0,-2.55,0.41,-1.05
2022-01-30 16:53:23.6180,0.373,-0.326,-1.344,-1.63,1.18,5.3,-1.98,1.13,-0.49
2022-01-30 16:53:23.6280,0.223,-0.34,-1.221,0.25,1.09,4.19,-1.4533895254135132,1.71,0.2
2022-01-30 16:53:23.6380,0.126,-0.384,-1.095,1.81,1.41,3.02,-1.0,2.05,0.89
2022-01-30 16:53:23.6490,0.071,-0.414,-0.964,2.86,1.9,1.83,-0.57,2.18,1.45
2022-01-30 16:53:23.6590,0.05,-0.44,-0.828,3.51,2.17,0.61,-0.14,2.16,1.83
2022-01-30 16:53:23.6690,0.047,-0.475,-0.711,3.85,2.37,-0.62,0.33,2.06,2.05
2022-01-30 16:53:23.6790,0.069,-0.493,-0.615,3.97,2.58,-1.64,0.33,2.06,2.05
2022-01-30 16:53:23.6890,0.094,-0.477,-0.566,3.86,2.56,-2.43,0.79,1.88,2.09
2022-01-30 16:53:23.6990,0.108,-0.447,-0.523,3.71,2.19,-2.78,1.55,1.27,1.8
2022-01-30 16:53:23.7090,0.107,-0.411,-0.472,3.65,1.67,-3.11,1.81,0.98,1.57
2022-01-30 16:53:23.7190,0.1,-0.356,-0.43,3.71,1.09,-3.51,1.97,0.8,1.34
2022-01-30 16:53:23.7290,0.097,-0.296,-0.381,3.8,0.3,-3.82,2.05,0.76,1.13
2022-01-30 16:53:23.7390,0.102,-0.248,-0.34,3.85,-0.49,-4.22,2.07,0.78,0.96
2022-01-30 16:53:23.7490,0.119,-0.203,-0.351,3.81,-1.16,-4.46,2.0,0.77,0.81
2022-01-30 16:53:23.7590,0.158,-0.161,-0.41,3.65,-1.79,-4.18,1.86,0.66,0.67
2022-01-30 16:53:23.7690,0.205,-0.136,-0.501,3.27,-2.37,-3.44,1.69,0.46,0.58
2022-01-30 16:53:23.7790,0.257,-0.14,-0.606,2.82,-2.74,-2.43,1.55,0.24,0.56
2022-01-30 16:53:23.7890,0.309,-0.164,-0.686,2.3,-2.8,-1.34,1.5,0.17,0.62
2022-01-30 16:53:23.7990,0.353,-0.195,-0.737,1.79,-2.71,-0.52,1.55,0.29,0.77
2022-01-30 16:53:23.8090,0.403,-0.206,-0.795,1.34,-2.55,0.03,1.55,0.29,0.77
2022-01-30 16:53:23.8140,0.452,-0.174,-0.925,1.34,-2.55,0.03,1.58,0.49,0.89
2022-01-30 16:53:23.8260,0.504,-0.163,-1.071,0.36,-3.14,2.22,1.59,0.65,0.87
2022-01-30 16:53:23.8360,0.571,-0.202,-1.165,-0.16,-3.34,3.71,1.65,0.72,0.66
2022-01-30 16:53:23.8460,0.669,-0.281,-1.188,-0.16,-3.34,3.71,1.71,0.8,0.34
2022-01-30 16:53:23.8560,0.791,-0.372,-1.173,-1.8,-2.36,4.95,1.68,0.77,-0.03
2022-01-30 16:53:23.8660,0.889,-0.443,-1.161,-1.8,-2.36,4.95,1.48,0.57,-0.34
2022-01-30 16:53:23.8770,0.92,-0.487,-1.115,-3.79,-1.01,4.9,1.09,0.29,-0.59
2022-01-30 16:53:23.8870,0.884,-0.495,-1.052,-3.79,-1.01,4.9,0.53,-0.09,-0.79
2022-01-30 16:53:23.8970,0.824,-0.478,-1.018,-3.95,-0.66,4.47,-0.12722879648208618,-0.52,-0.98
2022-01-30 16:53:23.9060,0.773,-0.439,-0.999,-3.51,-0.61,3.89,-0.82,-0.94,-1.25
2022-01-30 16:53:23.9160,0.751,-0.388,-1.0,-2.89,-0.75,3.56,-1.5,-1.33,-1.62
2022-01-30 16:53:23.9260,0.74,-0.37,-1.009,-2.41,-1.03,3.3,-2.11,-1.61,-1.97
2022-01-30 16:53:23.9360,0.713,-0.424,-0.993,-2.13,-1.2,3.07,-2.52,-1.67,-2.19
2022-01-30 16:53:23.9470,0.644,-0.463,-0.948,-1.84,-0.33,2.67,-2.67,-1.57,-2.28
2022-01-30 16:53:23.9570,0.55,-0.409,-0.897,-1.84,-0.33,2.67,-2.67,-1.57,-2.28
2022-01-30 16:53:23.9660,0.448,-0.328,-0.832,-1.12,0.27,2.01,-2.6,-1.38,-2.29
2022-01-30 16:53:23.9770,0.346,-0.289,-0.765,-0.19,-0.05,1.32,-2.19,-1.12,-2.02
2022-01-30 16:53:23.9860,0.27,-0.277,-0.732,1.77,-0.57,-0.26,-2.01,-1.28,-1.78
2022-01-30 16:53:23.9970,0.242,-0.218,-0.785,1.77,-0.57,-0.26,-1.95,-1.78,-1.66
2022-01-30 16:53:24.0070,0.287,-0.118,-0.887,2.53,-0.88,-0.15,-1.94,-2.4,-1.67
2022-01-30 16:53:24.0170,0.372,-0.103,-0.902,1.87,-1.59,0.63,-1.8,-2.85,-1.67
2022-01-30 16:53:24.0270,0.451,-0.166,-0.878,0.83,-1.37,0.49,-1.48,-3.06,-1.58
2022-01-30 16:53:24.0370,0.5,-0.221,-0.864,0.83,-1.37,0.49,-1.0,-3.01,-1.35
2022-01-30 16:53:24.0470,0.501,-0.256,-0.822,-0.14,-0.53,0.09,-0.43,-2.7,-0.95
2022-01-30 16:53:24.0570,0.458,-0.281,-0.756,-0.95,0.53,-0.78,0.18,-2.2,-0.41
2022-01-30 16:53:24.0670,0.395,-0.295,-0.683,-0.95,0.53,-0.78,0.78,-1.62,0.2
2022-01-30 16:53:24.0770,0.318,-0.287,-0.608,-0.2,0.8,-2.28,1.31,-1.07,0.8
2022-01-30 16:53:24.0860,0.251,-0.261,-0.54,-0.2,0.8,-2.28,1.72,-0.68,1.27
2022-01-30 16:53:24.0980,0.207,-0.208,-0.519,0.99,0.09,-3.65,1.98,-0.54,1.51
2022-01-30 16:53:24.1070,0.21,-0.137,-0.547,0.99,0.09,-3.65,2.07,-0.63,1.46
2022-01-30 16:53:24.1170,0.26,-0.089,-0.585,1.11,-1.61,-3.41,2.0,-0.83,1.13
2022-01-30 16:53:24.1270,0.335,-0.086,-0.598,0.46,-2.25,-3.01,1.82,-0.96,0.66
2022-01-30 16:53:24.1370,0.396,-0.137,-0.577,0.46,-2.25,-3.01,1.59,-0.95,0.19
2022-01-30 16:53:24.1470,0.432,-0.221,-0.565,-0.39,-2.4,-2.9,1.35,-0.83,-0.16
2022-01-30 16:53:24.1570,0.436,-0.256,-0.6,-1.43,-1.27,-3.15,1.1,-0.63,-0.39
2022-01-30 16:53:24.1680,0.414,-0.212,-0.662,-1.47,-1.12,-2.74,0.86,-0.37,-0.51
2022-01-30 16:53:24.1770,0.404,-0.159,-0.737,-1.25,-1.67,-2.09,0.63,-0.12,-0.56
2022-01-30 16:53:24.1880,0.424,-0.135,-0.834,-1.25,-1.67,-2.09,0.46,0.14,-0.51
2022-01-30 16:53:24.1970,0.443,-0.14,-0.9,-1.37,-2.41,-0.33,0.36,0.53,-0.39
2022-01-30 16:53:24.2080,0.465,-0.143,-0.924,-1.48,-2.37,0.27,0.28,0.91,-0.23
2022-01-30 16:53:24.2180,0.496,-0.14,-0.98,-1.48,-2.37,0.27,0.15,1.09,-0.07
2022-01-30 16:53:24.2280,0.536,-0.124,-1.046,-1.85,-2.41,1.17,-0.09,0.94,-0.07
2022-01-30 16:53:24.2380,0.6,-0.054,-1.14,-2.19,-2.6,1.84,-0.49,0.39,-0.35
2022-01-30 16:53:24.2480,0.658,0.048,-1.257,-2.79,-3.3,2.83,-1.03,-0.42,-0.89
2022-01-30 16:53:24.2580,0.667,0.11,-1.3,-2.79,-3.3,2.83,-1.63,-1.19,-1.51
2022-01-30 16:53:24.2670,0.631,0.109,-1.292,-3.32,-4.18,3.87,-2.24,-1.81,-2.06
2022-01-30 16:53:24.2780,0.578,0.079,-1.302,-3.39,-4.51,4.09,-2.76,-2.22,-2.44
2022-01-30 16:53:24.2880,0.523,0.034,-1.289,-3.08,-4.19,3.89,-2.99,-2.33,-2.57
2022-01-30 16:53:24.2980,0.461,-0.027,-1.234,-2.69,-3.55,3.85,-2.85,-2.15,-2.41
2022-01-30 16:53:24.3080,0.402,-0.118,-1.161,-2.28,-2.75,3.51,-2.34,-1.67,-1.96
2022-01-30 16:53:24.3180,0.33,-0.216,-1.021,-1.81,-1.8,2.82,-1.58,-0.89,-1.3
2022-01-30 16:53:24.3280,0.237,-0.284,-0.848,-1.34,-0.61,1.97,-0.74,0.02,-0.53
2022-01-30 16:53:24.3380,0.164,-0.312,-0.674,-0.66,0.52,0.47,0.01,0.88,0.22
2022-01-30 16:53:24.3480,0.122,-0.31,-0.527,1.01,1.45,-2.92,0.57,1.54,0.86
2022-01-30 16:53:24.3580,0.098,-0.289,-0.422,1.52,1.32,-4.27,0.93,1.89,1.31
2022-01-30 16:53:24.3680,0.098,-0.264,-0.357,1.88,0.98,-5.17,1.11,1.98,1.54
2022-01-30 16:53:24.3780,0.128,-0.255,-0.3,1.88,0.98,-5.17,1.18,1.88,1.58
2022-01-30 16:53:24.3880,0.169,-0.268,-0.235,2.0,0.61,-5.7,1.2,1.7,1.47
2022-01-30 16:53:24.3980,0.201,-0.291,-0.182,1.82,0.39,-6.19,1.19,1.44,1.24
2022-01-30 16:53:24.4080,0.218,-0.294,-0.173,1.54,0.38,-6.76,1.12,1.1,0.94
2022-01-30 16:53:24.4180,0.198,-0.271,-0.209,1.29,0.32,-7.11,0.96,0.67,0.58
2022-01-30 16:53:24.4280,0.154,-0.226,-0.234,1.29,0.32,-7.11,0.74,0.36,0.22
2022-01-30 16:53:24.4380,0.105,-0.183,-0.224,2.04,-0.57,-6.46,0.51,0.34,-0.09
2022-01-30 16:53:24.4490,0.069,-0.151,-0.217,2.55020989716053,-1.0091446369886399,-6.56,0.32,0.57,-0.35
2022-01-30 16:53:24.4590,0.025,-0.128,-0.256,2.55,-1.01,-6.56,0.19,0.91,-0.55
2022-01-30 16:53:24.4680,-0.018,-0.086,-0.329,2.95,-1.32,-6.56,0.12,1.32,-0.71
2022-01-30 16:53:24.4780,-0.046,-0.028,-0.397,4.03,-1.97,-5.3,0.04,1.73,-0.85
2022-01-30 16:53:24.4890,-0.049,0.039,-0.508,4.03,-1.97,-5.3,-0.1,1.98,-1.04
2022-01-30 16:53:24.4980,-0.009,0.12,-0.704,4.46,-2.52,-4.55,-0.4,1.95,-1.36
2022-01-30 16:53:24.5090,0.059,0.187,-0.95,4.64,-3.16,-3.29,-0.86,1.68,-1.73
2022-01-30 16:53:24.5190,0.14,0.2,-1.153,3.89,-4.32,1.27,-1.35,1.44,-2.03
2022-01-30 16:53:24.5280,0.232,0.14,-1.281,3.26,-4.14,3.19,-1.75,1.43,-2.11
2022-01-30 16:53:24.5390,0.312,0.069,-1.406,2.51,-3.25,4.43,-2.02,1.51,-1.96
2022-01-30 16:53:24.5500,0.346,0.075,-1.541,1.93,-2.34,5.74,-2.02,1.51,-1.96
2022-01-30 16:53:24.5590,0.335,0.175,-1.607,1.81,-2.26,7.05,-2.27,1.49,-1.45
2022-01-30 16:53:24.5690,0.299,0.27,-1.602,2.11,-3.03,7.65,-2.3,1.32,-1.35
2022-01-30 16:53:24.5790,0.302,0.277,-1.61,2.11,-3.03,7.65,-2.32,0.85,-1.42
2022-01-30 16:53:24.5890,0.376,0.199,-1.682,2.53,-3.31,7.79,-2.32,0.11,-1.64
2022-01-30 16:53:24.5990,0.458,0.083,-1.729,1.77,-2.18,8.51,-2.32,-0.74,-1.94
2022-01-30 16:53:24.6090,0.507,-0.011,-1.716,1.77,-2.18,8.51,-2.3,-1.47,-2.25
2022-01-30 16:53:24.6190,0.507,-0.038,-1.64,0.39,0.43,8.58,-2.22,-1.93,-2.47
2022-01-30 16:53:24.6290,0.457,0.019,-1.519,0.39,0.43,8.58,-2.12,-2.12,-2.58
2022-01-30 16:53:24.6390,0.392,0.11,-1.374,0.29,0.91,7.67,-2.12,-2.12,-2.58
2022-01-30 16:53:24.6490,0.343,0.152,-1.246,0.62,0.58,6.35,-2.09,-2.06,-2.43
2022-01-30 16:53:24.6590,0.327,0.124,-1.167,1.05,0.0,4.85,-2.18,-2.08,-2.16
2022-01-30 16:53:24.6690,0.341,0.068,-1.139,1.28,-0.02,3.56,-2.29,-2.16,-1.89
2022-01-30 16:53:24.6790,0.379,0.045,-1.122,1.19,0.61,2.81,-2.34,-2.25,-1.71
2022-01-30 16:53:24.6890,0.413,0.032,-1.09,0.79,1.42,2.51,-2.34,-2.25,-1.71
2022-01-30 16:53:24.6990,0.433,0.002,-1.017,0.18,1.87,2.3,-2.16,-2.15,-1.62
2022-01-30 16:53:24.7090,0.447,-0.042,-0.928,-0.79,2.85,1.13,-2.0,-1.95,-1.59
2022-01-30 16:53:24.7190,0.474,-0.097,-0.863,-0.79,2.85,1.13,-1.82,-1.77,-1.5
2022-01-30 16:53:24.7290,0.498,-0.145,-0.809,-1.15,3.53,0.27,-1.6,-1.66,-1.34
2022-01-30 16:53:24.7390,0.503,-0.177,-0.763,-1.63,4.916226069331169,-0.8539455002546311,-1.34,-1.63,-1.12
2022-01-30 16:53:24.7500,0.498,-0.189,-0.725,-2.03,4.91,-0.86,-1.04,-1.63,-0.9
2022-01-30 16:53:24.7600,0.489,-0.174,-0.676,-2.24,5.36,-1.29,-0.75,-1.64,-0.69
2022-01-30 16:53:24.7700,0.471,-0.136,-0.625,-2.44,5.46,-2.18,-0.53,-1.63,-0.55
2022-01-30 16:53:24.7790,0.45,-0.079,-0.597,-2.44,5.46,-2.18,-0.46,-1.55,-0.5
2022-01-30 16:53:24.7900,0.463,-0.029,-0.59,-2.41,5.12,-2.67,-0.5,-1.41,-0.52
2022-01-30 16:53:24.7990,0.494,-0.006,-0.613,-2.39,4.6,-2.94,-0.57,-1.27,-0.57
2022-01-30 16:53:24.8100,0.51,0.016,-0.651,-2.7,4.2,-2.98,-0.61,-1.23,-0.66
2022-01-30 16:53:24.8190,0.517,0.031,-0.722,-3.4,3.91,-2.32,-0.55,-1.33,-0.73
2022-01-30 16:53:24.8300,0.504,0.044,-0.838,-3.4,3.91,-2.32,-0.3,-1.63,-0.74
2022-01-30 16:53:24.8390,0.536,0.058,-0.912,-3.62,3.83,-1.57,0.07,-1.78,-0.7
2022-01-30 16:53:24.8500,0.638,0.052,-0.92,-3.63,3.72,-0.4,0.49,-1.88,-0.63
2022-01-30 16:53:24.8600,0.657,0.129,-0.994,-5.41,3.61,0.23,0.84,-1.87,-0.56
2022-01-30 16:53:24.8700,0.667,0.261,-1.051,-5.41,3.61,0.23,1.06,-1.49,-0.47
2022-01-30 16:53:24.8800,0.576,0.299,-1.04,-5.904147067666054,1.3173110282421112,1.36,1.22,-0.78,-0.22
2022-01-30 16:53:24.8900,0.532,0.334,-1.117,-5.06,0.95,1.23,1.37,-0.13,0.13
2022-01-30 16:53:24.9000,0.532,0.411,-1.298,-4.72,0.4,2.1,1.52,0.26,0.53
2022-01-30 16:53:24.9100,0.56,0.482,-1.442,-4.72,-0.5,3.85,1.67,0.53,0.96
2022-01-30 16:53:24.9200,0.528,0.543,-1.491,-4.72,-0.5,3.85,1.74,1.02,1.43
2022-01-30 16:53:24.9300,0.429,0.574,-1.476,-4.32,-2.08,5.4,1.65,1.73,1.94
2022-01-30 16:53:24.9400,0.329,0.559,-1.51,-4.32,-2.08,5.4,1.31,2.63,2.44
2022-01-30 16:53:24.9500,0.251,0.607,-1.588,-1.81,-2.48,5.63,1.31,2.63,2.44
2022-01-30 16:53:24.9600,0.289,0.826,-1.745,-0.74,-3.27,6.5,0.16,3.53,2.2
2022-01-30 16:53:24.9680,0.509,1.011,-1.81,-0.95,-5.57,8.15,-0.22,3.78,1.36
2022-01-30 16:53:24.9790,0.754,1.05,-1.665,-0.95,-5.57,8.15,-0.32,3.93,0.32
2022-01-30 16:53:24.9890,0.866,0.954,-1.658,-4.81,-7.42,7.26,-0.3,3.64,-0.59
2022-01-30 16:53:25.0010,0.82,0.772,-1.671,-4.81,-7.42,7.26,-0.37,3.07,-1.2
2022-01-30 16:53:25.0100,0.714,0.641,-1.599,-4.57,-4.41,7.61,-0.55,2.46,-1.58
2022-01-30 16:53:25.0210,0.675,0.566,-1.428,-4.57,-4.41,7.61,-0.8,2.01,-1.66
2022-01-30 16:53:25.0300,0.672,0.41,-1.296,-3.0,-2.21,5.2,-1.11,1.23,-1.54
2022-01-30 16:53:25.0400,0.606,0.291,-1.345,-3.0,-2.21,5.2,-1.39,0.2,-1.34
2022-01-30 16:53:25.0500,0.551,0.215,-1.302,-2.2,0.76,4.79,-1.59,-0.9,-1.19
2022-01-30 16:53:25.0610,0.52,0.18,-1.3,-1.8,1.64,4.35,-1.82,-1.9,-1.2
2022-01-30 16:53:25.0700,0.507,0.184,-1.223,-1.73,2.13,4.39,-2.02,-2.47,-1.36
2022-01-30 16:53:25.0800,0.528,0.175,-1.116,-1.73,2.13,4.39,-2.18,-2.77,-1.53
2022-01-30 16:53:25.0910,0.626,0.185,-0.996,-2.47,2.63,2.53,-2.26,-2.39,-1.62
2022-01-30 16:53:25.1010,0.628,0.21,-0.776,-2.47,2.63,2.53,-2.19,-1.69,-1.52
2022-01-30 16:53:25.1110,0.489,0.132,-0.746,-3.7,2.69,1.17,-1.96,-1.24,-1.17
2022-01-30 16:53:25.1210,0.475,0.092,-0.776,-2.55,3.76,-0.79,-1.63,-1.0,-0.69
2022-01-30 16:53:25.1310,0.447,0.033,-0.801,-2.62,4.26,-0.51,-1.2,-0.98,-0.12
2022-01-30 16:53:25.1410,0.398,-0.023,-0.891,-2.38,4.97,-0.12,-0.69,-1.08,0.53
2022-01-30 16:53:25.1510,0.36,-0.104,-0.9,-2.38,4.97,-0.12,-0.11,-0.98,1.27
2022-01-30 16:53:25.1600,0.388,-0.201,-0.815,-1.65,6.4,0.69,0.47,-0.6,2.01
2022-01-30 16:53:25.1710,0.468,-0.203,-0.757,-1.65,6.4,0.69,1.03,-0.26,2.57
2022-01-30 16:53:25.1800,0.517,-0.127,-0.82,-2.62,6.95,-0.71,1.55,-0.12,2.89
2022-01-30 16:53:25.1910,0.522,-0.04,-0.873,-2.62,6.95,-0.71,1.99,-0.08,2.99
2022-01-30 16:53:25.2000,0.482,0.02,-0.862,-2.7696132159233096,4.921352323293686,0.25,2.32,0.03,2.93
2022-01-30 16:53:25.2110,0.408,0.034,-0.806,-2.19,4.12,-0.04,2.51,0.27,2.81
2022-01-30 16:53:25.2210,0.334,0.018,-0.777,-2.19,4.12,-0.04,2.58,0.43,2.71
2022-01-30 16:53:25.2320,0.287,-0.008,-0.826,-0.45,3.63,-0.98,2.61,0.42,2.6
2022-01-30 16:53:25.2410,0.284,-0.029,-0.873,0.07,3.6,-0.53,2.6,0.31,2.5
2022-01-30 16:53:25.2510,0.268,0.018,-0.869,0.21315176814794543,3.4447605094313625,-0.21,2.54,0.21,2.4
2022-01-30 16:53:25.2610,0.243,0.106,-0.851,0.21,3.44,-0.21,2.42,0.19,2.31
2022-01-30 16:53:25.2710,0.22,0.206,-0.843,0.8,1.44,-0.58,2.2,0.33,2.27
2022-01-30 16:53:25.2820,0.198,0.299,-0.863,0.8,1.44,-0.58,1.91,0.46,2.3
2022-01-30 16:53:25.2920,0.191,0.348,-0.954,1.11,0.18,-0.69,1.63,0.41,2.38
2022-01-30 16:53:25.3020,0.234,0.37,-1.074,1.53,-1.6,0.5,1.42,0.16,2.49
2022-01-30 16:53:25.3110,0.272,0.384,-1.171,1.53,-1.6,0.5,1.29,-0.2,2.49
2022-01-30 16:53:25.3220,0.274,0.39,-1.165,1.11,-2.01,1.65,1.2,-0.29,2.6
2022-01-30 16:53:25.3310,0.285,0.397,-1.063,0.81,-2.59,2.25,1.13,-0.03,2.56
2022-01-30 16:53:25.3420,0.263,0.425,-1.006,0.75,-2.88,1.22,1.1,0.34,2.46
2022-01-30 16:53:25.3510,0.243,0.464,-1.017,0.75,-2.88,1.22,1.09,0.71,2.28
2022-01-30 16:53:25.3620,0.239,0.518,-1.079,1.3,-3.93,0.95,1.12,0.93,1.93
2022-01-30 16:53:25.3710,0.272,0.608,-1.171,1.41,-4.68,1.62,1.12,0.74,1.3
2022-01-30 16:53:25.3820,0.367,0.673,-1.43,1.09,-5.72,2.68,0.9,-0.09,0.4
2022-01-30 16:53:25.3920,0.548,0.649,-1.691,1.09,-5.72,2.68,0.48,-1.06,-0.57
2022-01-30 16:53:25.4020,0.668,0.525,-1.669,0.04,-6.37,5.39,0.03,-1.48,-1.25
2022-01-30 16:53:25.4110,0.631,0.435,-1.522,-2.98,-4.72,7.07,-0.36,-1.28,-1.49
2022-01-30 16:53:25.4220,0.529,0.455,-1.488,-2.98,-4.72,7.07,-0.63,-0.87,-1.37
2022-01-30 16:53:25.4320,0.444,0.48,-1.501,-1.67,-4.05,5.43,-0.72,-0.47,-1.09
2022-01-30 16:53:25.4420,0.386,0.429,-1.435,-0.919478754401207,-4.107265537977219,5.49,-0.65,-0.09,-0.78
2022-01-30 16:53:25.4520,0.351,0.343,-1.305,-0.92,-4.11,5.49,-0.52,0.15,-0.58
2022-01-30 16:53:25.4620,0.329,0.26,-1.187,-0.07,-2.53,3.45,-0.39,0.19,-0.57
2022-01-30 16:53:25.4720,0.312,0.17,-1.086,-0.07,-2.53,3.45,-0.28,0.09,-0.78
2022-01-30 16:53:25.4810,0.305,0.073,-0.96,0.32,-0.7,1.35,-0.19,-0.03,-1.14
2022-01-30 16:53:25.4920,0.315,-0.006,-0.824,0.34,0.29,0.05,-0.18,-0.17,-1.55
2022-01-30 16:53:25.5020,0.309,-0.042,-0.76,0.23,1.09,-1.22,-0.22,-0.24,-1.94
2022-01-30 16:53:25.5120,0.331,-0.12,-0.64,0.22,1.53,-1.81,-0.08,0.02,-2.21
2022-01-30 16:53:25.5220,0.331,-0.142,-0.489,0.22,1.53,-1.81,0.06,0.31,-2.37
2022-01-30 16:53:25.5320,0.338,-0.093,-0.485,0.0,2.56,-4.45,0.14,0.53,-2.42
2022-01-30 16:53:25.5420,0.34,-0.061,-0.446,0.0,2.56,-4.45,0.19,0.81,-2.32
2022-01-30 16:53:25.5520,0.342,-0.069,-0.371,-0.03,1.93,-4.86,0.23,1.05,-2.03
2022-01-30 16:53:25.5630,0.317,-0.085,-0.347,0.04,2.08,-5.53,0.26,1.15,-1.6
2022-01-30 16:53:25.5720,0.291,-0.115,-0.379,0.04,2.08,-5.53,0.36,1.02,-1.14
2022-01-30 16:53:25.5820,0.252,-0.133,-0.406,0.39,2.27,-5.65,0.6,0.76,-0.73
2022-01-30 16:53:25.5920,0.215,-0.121,-0.403,1.19,2.69,-5.03,0.97,0.44,-0.44
2022-01-30 16:53:25.6020,0.204,-0.096,-0.402,1.19,2.69,-5.03,1.38,0.13,-0.3
2022-01-30 16:53:25.6130,0.195,-0.072,-0.399,1.55,2.48,-5.07,1.38,-0.16,-0.3
2022-01-30 16:53:25.6220,0.189,-0.047,-0.407,1.72,1.75,-5.14,1.97,-0.43,-0.4
2022-01-30 16:53:25.6330,0.178,-0.014,-0.431,1.73,1.33,-5.07,2.05,-0.66,-0.55
2022-01-30 16:53:25.6430,0.15,0.025,-0.463,1.73,1.33,-5.07,1.9720228910446167,-0.9,-0.72
2022-01-30 16:53:25.6530,0.142,0.061,-0.544,1.99,0.3,-4.56,1.77,-1.2,-0.93
2022-01-30 16:53:25.6630,0.172,0.101,-0.674,1.9,-0.19,-3.75,1.42,-1.34,-1.15
2022-01-30 16:53:25.6730,0.247,0.176,-0.763,1.44,-0.7,-2.5,1.11,-1.02,-1.31
2022-01-30 16:53:25.6830,0.264,0.229,-0.847,1.44,-0.7,-2.5,1.13,-0.68,-1.15
2022-01-30 16:53:25.6930,0.254,0.231,-1.068,0.57,-1.53,-1.74,1.34,-0.62,-0.71
2022-01-30 16:53:25.7030,0.323,0.221,-1.187,0.49,-2.04,-0.84,1.6,-0.34,-0.14
2022-01-30 16:53:25.7130,0.318,0.249,-1.132,-0.29,-2.19,2.23,1.77,-0.09,0.37
2022-01-30 16:53:25.7230,0.233,0.278,-1.212,-0.29,-2.19,2.23,1.82,-0.16,0.61
2022-01-30 16:53:25.7330,0.233,0.302,-1.247,0.7,-3.14,2.61,1.8,-0.28,0.49
2022-01-30 16:53:25.7430,0.263,0.249,-1.277,0.52,-3.52,2.92,1.86,-0.3,0.24
2022-01-30 16:53:25.7530,0.272,0.129,-1.11,0.52,-3.52,2.92,1.83,0.0,-0.04
2022-01-30 16:53:25.7630,0.309,0.04,-0.97,0.28,-3.05,3.08,1.47,0.1,-0.35
2022-01-30 16:53:25.7730,0.331,0.011,-0.986,-0.21,-1.36,0.17,1.47,0.1,-0.35
2022-01-30 16:53:25.7840,0.355,0.002,-0.939,-0.21,-1.36,0.17,0.03,-0.4,-1.17
2022-01-30 16:53:25.7930,0.385,-0.019,-0.924,-0.42,-1.19,0.33,-0.76,-0.91,-1.63
2022-01-30 16:53:25.8040,0.432,-0.038,-1.009,-0.68,-1.06,-0.2,-1.39,-1.46,-2.08
2022-01-30 16:53:25.8130,0.478,-0.046,-1.081,-1.06,-0.73,-0.24,-1.71,-1.84,-2.34
2022-01-30 16:53:25.8230,0.475,-0.057,-1.082,-2.23,-0.07,1.16,-1.69,-1.99,-2.28
2022-01-30 16:53:25.8340,0.425,-0.077,-1.017,-2.23,-0.07,1.16,-1.42,-1.85,-1.88
2022-01-30 16:53:25.8430,0.357,-0.112,-0.877,-2.31,0.27,1.05,-1.03,-1.53,-1.26
2022-01-30 16:53:25.8530,0.311,-0.178,-0.76,-1.95,0.65,0.25,-0.62,-1.19,-0.58
2022-01-30 16:53:25.8630,0.3,-0.26,-0.681,-1.14,1.9,-2.29,-0.23,-0.93,0.05
2022-01-30 16:53:25.8720,0.306,-0.338,-0.608,-1.16,2.74,-3.06,0.13,-0.73,0.55
2022-01-30 16:53:25.8830,0.304,-0.393,-0.532,-1.29,3.46,-3.8,0.46,-0.61,0.9
2022-01-30 16:53:25.8930,0.303,-0.433,-0.469,-1.32,3.91,-4.54,0.77,-0.53,1.12
2022-01-30 16:53:25.9040,0.299,-0.469,-0.411,-1.32,3.91,-4.54,0.77,-0.53,1.12
2022-01-30 16:53:25.9140,0.283,-0.487,-0.335,-1.37,4.21,-5.14,1.24,-0.25,1.27
2022-01-30 16:53:25.9240,0.258,-0.478,-0.288,-1.36,4.43,-5.74,1.31,-0.11,1.29
2022-01-30 16:53:25.9340,0.228,-0.452,-0.266,-1.22,4.44,-6.48,1.32,-0.0,1.28
2022-01-30 16:53:25.9430,0.203,-0.412,-0.259,-0.98,4.18,-6.89,1.29,0.02,1.23
2022-01-30 16:53:25.9540,0.186,-0.366,-0.299,-0.69,3.75,-7.1,1.27,-0.1,1.13
2022-01-30 16:53:25.9640,0.192,-0.331,-0.366,-0.46,3.21,-7.1,1.3,-0.32,1.0
2022-01-30 16:53:25.9740,0.212,-0.307,-0.453,-0.33,2.62,-6.65,1.39,-0.6,0.87
2022-01-30 16:53:25.9840,0.239,-0.288,-0.563,-0.73,1.79,-5.07,1.53,-0.88,0.72
2022-01-30 16:53:25.9930,0.268,-0.264,-0.671,-1.09,1.44,-3.98,1.62,-1.08,0.53
2022-01-30 16:53:26.0040,0.289,-0.236,-0.784,-1.09,1.44,-3.98,1.61,-1.16,0.29
2022-01-30 16:53:26.0140,0.29,-0.209,-0.897,-1.48,1.04,-2.91,1.44,-1.17,0.03
2022-01-30 16:53:26.0240,0.292,-0.181,-1.048,-1.89,0.2,-0.65,1.14,-1.25,-0.2
2022-01-30 16:53:26.0340,0.295,-0.153,-1.244,-1.89,0.2,-0.65,0.82,-1.37,-0.33
2022-01-30 16:53:26.0440,0.287,-0.146,-1.429,-2.19,-0.52,2.87,0.65,-1.34,-0.29
2022-01-30 16:53:26.0540,0.278,-0.188,-1.545,-2.22,-0.6,4.61,0.72,-1.04,-0.03
2022-01-30 16:53:26.0640,0.254,-0.268,-1.605,-2.23,-0.19,5.69,0.97,-0.46,0.39
2022-01-30 16:53:26.0740,0.198,-0.318,-1.618,-2.23,-0.19,5.69,1.18,0.22,0.8
2022-01-30 16:53:26.0840,0.114,-0.299,-1.637,-2.01,0.51,6.22,1.14,0.78,1.08
2022-01-30 16:53:26.0940,0.058,-0.292,-1.637,-1.41,0.8,6.37,0.88,1.2,1.21
2022-01-30 16:53:26.1040,0.015,-0.352,-1.582,-0.55,0.46,6.59,0.47,1.48,1.2
2022-01-30 16:53:26.1140,-0.018,-0.427,-1.523,0.05,0.37,6.55,-0.02,1.46,1.06
2022-01-30 16:53:26.1240,-0.02,-0.457,-1.549,0.58,0.97,5.98,-0.6,1.03,0.76
2022-01-30 16:53:26.1340,-0.012,-0.444,-1.631,1.04,1.95,5.84,-1.15,0.36,0.38
2022-01-30 16:53:26.1440,-0.023,-0.429,-1.679,1.0,1.91,6.62,-1.51,-0.21,0.07
2022-01-30 16:53:26.1540,-0.079,-0.424,-1.656,1.0,1.91,6.62,-1.64,-0.52,-0.06
2022-01-30 16:53:26.1640,-0.152,-0.414,-1.595,1.13,1.92,6.98,-1.53,-0.64,0.03
2022-01-30 16:53:26.1750,-0.215,-0.415,-1.52,1.68,2.03,6.63,-1.25,-0.66,0.27
2022-01-30 16:53:26.1840,-0.262,-0.429,-1.401,2.87,2.23,5.18,-0.87,-0.62,0.55
2022-01-30 16:53:26.1940,-0.285,-0.424,-1.249,2.87,2.23,5.18,-0.49,-0.54,0.8
2022-01-30 16:53:26.2040,-0.282,-0.409,-1.094,3.36,2.4,2.41,-0.17,-0.5,0.94
2022-01-30 16:53:26.2150,-0.262,-0.409,-0.953,3.23,2.29,0.9,0.02,-0.52,0.99
2022-01-30 16:53:26.2250,-0.233,-0.406,-0.812,3.23,2.29,0.9,0.07,-0.56,0.93
2022-01-30 16:53:26.2350,-0.197,-0.389,-0.681,2.96,2.3,-0.48,0.02,-0.6,0.8
2022-01-30 16:53:26.2440,-0.165,-0.363,-0.57,2.59,2.24,-1.86,-0.12,-0.62,0.65
2022-01-30 16:53:26.2540,-0.141,-0.338,-0.477,1.79,1.8,-4.2,-0.31,-0.6,0.53
2022-01-30 16:53:26.2650,-0.123,-0.312,-0.414,1.5003861808776857,1.59,-5.09,-0.5,-0.54,0.47
2022-01-30 16:53:26.2750,-0.111,-0.283,-0.373,1.5,1.59,-5.09,-0.65,-0.42,0.47
2022-01-30 16:53:26.2850,-0.104,-0.25,-0.347,1.11,1.16,-6.07,-0.73,-0.26,0.53
2022-01-30 16:53:26.2950,-0.095,-0.232,-0.333,1.01,0.91,-6.32,-0.71,-0.09,0.65
2022-01-30 16:53:26.3050,-0.078,-0.232,-0.333,1.01,0.91,-6.32,-0.57,0.07,0.79
2022-01-30 16:53:26.3140,-0.054,-0.235,-0.345,0.89,0.83,-6.45,-0.34,0.22,0.9
2022-01-30 16:53:26.3250,-0.038,-0.226,-0.359,0.72,0.9,-6.44,-0.34,0.22,0.9
2022-01-30 16:53:26.3350,-0.05,-0.208,-0.36,0.49,0.95,-6.32,0.26,0.49,1.03
2022-01-30 16:53:26.3450,-0.087,-0.185,-0.357,0.56,0.64,-6.2,0.52,0.54,1.03
2022-01-30 16:53:26.3550,-0.123,-0.164,-0.404,0.981767315492034,0.37,-6.18,0.7,0.38,0.96
2022-01-30 16:53:26.3650,-0.125,-0.145,-0.502,0.98,0.37,-6.18,0.83,0.04,0.81
