time,gFx,gFy,gFz,ax,ay,az,wx,wy,wz
2022-02-08 11:19:25.3420,0.275,-0.254,-0.916,-0.78,0.04,-0.42,0.14,-0.11,-0.17
2022-02-08 11:19:25.3480,0.292,-0.261,-0.931,-0.67,0.06,-0.33,0.4,0.08,-0.1
2022-02-08 11:19:25.3580,0.332,-0.264,-0.929,-1.09,0.13,-0.14,0.72,0.25,-0.01
2022-02-08 11:19:25.3690,0.371,-0.248,-0.923,-1.09,0.13,-0.14,0.98,0.41,0.09
2022-02-08 11:19:25.3790,0.398,-0.257,-0.904,-1.41,-0.08,-0.16,1.09,0.5,0.16
2022-02-08 11:19:25.3890,0.363,-0.265,-0.845,-1.76,-0.16,-0.25,1.04,0.45,0.2
2022-02-08 11:19:25.3990,0.336,-0.263,-0.804,-1.47,-0.16,-0.7,0.9,0.28,0.18
2022-02-08 11:19:25.4090,0.321,-0.243,-0.815,-1.13,-0.24,-1.21,0.74,0.07,0.09
2022-02-08 11:19:25.4200,0.265,-0.22,-0.77,-0.98,-0.47,-1.11,0.53,-0.07,-0.04
2022-02-08 11:19:25.4300,0.234,-0.23,-0.694,-0.09,-0.83,-2.08,0.53,-0.07,-0.04
2022-02-08 11:19:25.4420,0.242,-0.259,-0.643,-0.11,-0.57,-2.68,0.21,0.17,-0.17
2022-02-08 11:19:25.4510,0.268,-0.274,-0.67,-0.11,-0.57,-2.68,0.15,0.43,-0.17
2022-02-08 11:19:25.4600,0.304,-0.291,-0.74,-0.57,-0.26,-1.96,0.16,0.61,-0.11
2022-02-08 11:19:25.4710,0.355,-0.309,-0.855,-0.57,-0.26,-1.96,0.21,0.62,0.01
2022-02-08 11:19:25.4800,0.38,-0.307,-0.973,-0.98,-0.09,-0.95,0.26,0.48,0.11
2022-02-08 11:19:25.4910,0.349,-0.294,-0.998,-1.29,-0.07,0.33,0.28,0.36,0.14
2022-02-08 11:19:25.5000,0.324,-0.28,-0.94,-1.08,-0.22,0.84,0.23,0.34,0.13
2022-02-08 11:19:25.5100,0.299,-0.287,-0.86,-0.51,-0.42,-0.33,0.12,0.32,0.13
2022-02-08 11:19:25.5200,0.271,-0.332,-0.779,-0.51,-0.42,-0.33,0.12,0.32,0.13
2022-02-08 11:19:25.5310,0.24,-0.301,-0.71,-0.16,-0.06,-1.06,-0.33,0.25,0.09
2022-02-08 11:19:25.5410,0.237,-0.216,-0.744,0.03,0.13,-1.89,-0.5,0.1,0.15
2022-02-08 11:19:25.5510,0.319,-0.447,-0.864,0.44,-1.2,-1.78,-0.5,-0.06,0.26
2022-02-08 11:19:25.5610,0.273,-0.357,-0.898,-0.5,0.81,-0.84,-0.45,0.04,0.19
2022-02-08 11:19:25.5710,0.203,-0.168,-0.79,-0.29,1.02,-0.01,-0.44,0.25,0.05
2022-02-08 11:19:25.5810,0.172,-0.213,-0.832,0.41,-1.13,-1.04,-0.37,0.39,-0.05
2022-02-08 11:19:25.5910,0.189,-0.265,-0.924,0.88,-1.11,-1.06,-0.33,0.31,-0.15
2022-02-08 11:19:25.6020,0.201,-0.24,-0.998,0.84,-0.39,-0.13,-0.4,-0.02,-0.23
2022-02-08 11:19:25.6110,0.206,-0.243,-1.001,0.64,-0.54,0.9,-0.52,-0.35,-0.27
2022-02-08 11:19:25.6220,0.207,-0.271,-0.923,0.64,-0.54,0.9,-0.62,-0.47,-0.27
2022-02-08 11:19:25.6310,0.21,-0.298,-0.792,0.56,-0.2,0.24,-0.69,-0.33,-0.18
2022-02-08 11:19:25.6410,0.228,-0.357,-0.682,0.53,0.08,-0.92,-0.7,-0.12,-0.02
2022-02-08 11:19:25.6510,0.273,-0.378,-0.676,0.39,0.69,-2.25,-0.77,-0.05,0.13
2022-02-08 11:19:25.6610,0.277,-0.343,-0.73,-0.03,1.11,-2.52,-0.88,-0.17,0.23
2022-02-08 11:19:25.6710,0.264,-0.288,-0.8,-0.21,0.96,-2.17,-1.0,-0.34,0.26
2022-02-08 11:19:25.6820,0.239,-0.26,-0.853,-0.13,0.48,-1.46,-1.09,-0.52,0.26
2022-02-08 11:19:25.6910,0.225,-0.231,-0.911,0.05,0.24,-0.96,-1.09,-0.52,0.26
2022-02-08 11:19:25.7030,0.216,-0.209,-0.992,0.17,0.07,-0.47,-1.04,-0.93,0.26
2022-02-08 11:19:25.7120,0.186,-0.179,-1.015,0.14,-0.08,0.27,-0.9,-1.06,0.22
2022-02-08 11:19:25.7220,0.149,-0.138,-1.023,0.32,-0.24,0.62,-0.71,-1.18,0.13
2022-02-08 11:19:25.7310,0.074,-0.097,-1.016,0.52,-0.56,0.63,-0.47,-1.18,-0.04
2022-02-08 11:19:25.7420,-0.014,-0.078,-0.922,1.83,-1.15,-0.02,-0.21,-0.87,-0.24
2022-02-08 11:19:25.7530,-0.052,-0.086,-0.717,1.83,-1.15,-0.02,-0.06,-0.36,-0.42
2022-02-08 11:19:25.7630,-0.025,-0.101,-0.572,2.34,-1.11,-1.9,-0.12,0.01,-0.55
2022-02-08 11:19:25.7720,0.007,-0.124,-0.571,2.15,-0.93,-3.63,-0.24,0.13,-0.59
2022-02-08 11:19:25.7830,0.06,-0.155,-0.62,1.42,-0.37,-3.49,-0.31,0.1,-0.56
2022-02-08 11:19:25.7910,0.096,-0.159,-0.646,1.01,-0.22,-3.17,-0.32,0.04,-0.49
2022-02-08 11:19:25.8030,0.103,-0.147,-0.664,0.86,-0.26,-3.0,-0.29,-0.11,-0.43
2022-02-08 11:19:25.8120,0.075,-0.07,-0.655,1.07,-0.75,-2.98,-0.23,-0.34,-0.42
2022-02-08 11:19:25.8230,0.066,0.038,-0.623,1.14,-1.92,-3.32,-0.13,-0.49,-0.54
2022-02-08 11:19:25.8330,-0.064,0.063,-0.582,2.02,-2.22,-3.63,0.05,-0.34,-0.78
2022-02-08 11:19:25.8430,-0.068,0.001,-0.5,2.02,-2.22,-3.63,0.31,-0.09,-0.77
2022-02-08 11:19:25.8530,0.119,-0.049,-0.344,1.02,-1.19,-5.65,0.54,0.29,-0.6
2022-02-08 11:19:25.8640,0.133,0.033,-0.181,0.5,-1.86,-7.36,0.7,0.84,-0.46
2022-02-08 11:19:25.8740,0.073,0.105,-0.079,0.5,-1.86,-7.36,0.87,1.55,-0.47
2022-02-08 11:19:25.8840,-0.027,0.179,-0.003,1.11,-2.71,-8.43,1.01,2.27,-0.64
2022-02-08 11:19:25.8930,-0.113,0.277,0.044,2.2,-3.45,-9.19,1.12,3.01,-0.89
2022-02-08 11:19:25.9030,-0.143,0.35,0.134,3.42,-4.46,-9.6,1.22,3.89,-1.17
2022-02-08 11:19:25.9130,-0.125,0.389,0.222,4.54,-5.86,-11.06,1.22,4.67,-1.46
2022-02-08 11:19:25.9230,-0.071,0.453,0.217,4.54,-5.86,-11.06,1.13,5.28,-1.77
2022-02-08 11:19:25.9330,-0.01,0.505,0.194,4.56,-6.46,-11.02,1.01,5.87,-2.07
2022-02-08 11:19:25.9440,0.06,0.526,0.219,4.48,-7.07,-10.5,0.87,6.55,-2.35
2022-02-08 11:19:25.9540,0.136,0.554,0.254,4.42,-7.31,-10.3,0.68,7.22,-2.69
2022-02-08 11:19:25.9640,0.206,0.642,0.233,4.26,-7.43,-10.35,0.51,7.88,-3.09
2022-02-08 11:19:25.9730,0.367,0.71,0.15,4.26,-8.06,-9.83,0.41,8.47,-3.46
2022-02-08 11:19:25.9840,0.606,0.749,0.014,2.02,-8.84,-6.78,0.24,8.8,-3.81
2022-02-08 11:19:25.9940,0.83,0.804,-0.11,2.02,-8.84,-6.78,-0.04,8.95,-4.18
2022-02-08 11:19:26.0040,1.037,0.886,-0.177,0.32,-8.99,-4.77,-0.35,9.07,-4.61
2022-02-08 11:19:26.0140,1.283,0.95,-0.242,-1.15,-9.41,-3.25,-0.65,9.14,-5.05
2022-02-08 11:19:26.0250,1.546,1.026,-0.311,-5.24,-9.8,-0.37,-0.86,8.95,-5.49
2022-02-08 11:19:26.0350,1.796,1.144,-0.416,-5.24,-9.8,-0.37,-0.86,8.95,-5.49
2022-02-08 11:19:26.0450,2.09,1.222,-0.466,-7.55,-10.31,1.5,-0.86,8.26,-6.02
2022-02-08 11:19:26.0540,2.447,1.235,-0.592,-10.06,-10.64,2.84,-0.46,7.53,-5.78
2022-02-08 11:19:26.0660,2.731,1.193,-0.796,-13.54,-10.37,4.64,0.31,6.63,-5.34
2022-02-08 11:19:26.0750,2.839,1.177,-0.88,-16.71,-9.47,7.22,1.35,6.0,-4.87
2022-02-08 11:19:26.0850,2.744,1.167,-0.677,-18.153539364337924,-8.23,8.43,2.48,5.94,-4.48
2022-02-08 11:19:26.0950,2.476,1.163,-0.204,-16.08,-7.65,4.71,3.62,6.37,-4.41
2022-02-08 11:19:26.1020,2.163,1.24,0.303,-16.08,-7.65,4.71,4.8,7.24,-4.76
2022-02-08 11:19:26.1120,1.977,1.322,0.77,-13.28,-7.73,0.08,4.8,7.24,-4.76
Time,2.086,1.199,1.059,-13.28,-7.73,0.08,4.8,7.24,-4.76
2022-02-08 11:19:26.1760,2.474,0.844,1.089,-13.28,-7.73,0.08,4.8,7.24,-4.76
2022-02-08 11:19:26.1760,2.81,0.467,1.075,-13.28,-7.73,0.08,4.8,7.24,-4.76
2022-02-08 11:19:26.1760,2.86,0.178,1.114,-13.28,-7.73,0.08,4.8,7.24,-4.76
2022-02-08 11:19:26.1780,2.529,0.024,1.171,-13.28,-7.73,0.08,4.8,7.24,-4.76
2022-02-08 11:19:26.1810,2.104,0.073,1.121,-13.28,-7.73,0.08,1.15,0.8,-1.35
2022-02-08 11:19:26.1810,1.777,0.253,0.819,-13.28,-7.73,0.08,1.15,0.8,-1.35
2022-02-08 11:19:26.2010,1.501,0.384,0.446,-12.08,-7.03,-7.28,-0.83,-2.69,-1.33
2022-02-08 11:19:26.2110,1.318,0.483,0.169,-12.34,5.23,-5.94,-0.74,-3.7,-1.45
2022-02-08 11:19:26.2150,1.22,0.56,-0.02,-7.5,2.88,0.57,-0.25,-4.41,-1.61
2022-02-08 11:19:26.2240,1.27,0.628,-0.157,-6.4,1.57,3.59,0.38,-5.09,-1.67
2022-02-08 11:19:26.2350,1.436,0.673,-0.235,-7.81,1.09,4.1,1.01,-5.81,-1.5
2022-02-08 11:19:26.2450,1.652,0.633,-0.173,-7.81,1.09,4.1,1.46,-6.3,-1.04
2022-02-08 11:19:26.2550,1.849,0.559,0.063,-9.86,1.38,3.63,1.66,-6.9,-0.34
2022-02-08 11:19:26.2660,1.925,0.547,0.204,-11.89,2.16,0.88,1.7,-7.35,0.35
2022-02-08 11:19:26.2750,1.84,0.67,0.35,-12.97,2.54,-1.25,1.72,-7.38,0.85
2022-02-08 11:19:26.2930,1.691,0.862,0.419,-10.98,-0.3,-4.82,1.85,-7.25,1.14
2022-02-08 11:19:26.3130,1.554,0.96,0.369,-10.98,-0.3,-4.82,2.12,-6.76,1.3
2022-02-08 11:19:26.3200,1.468,1.009,0.334,-10.98,-0.3,-4.82,2.54,-5.87,1.39
2022-02-08 11:19:26.3230,1.357,1.068,0.226,-10.98,-0.3,-4.82,3.09,-4.76,1.48
2022-02-08 11:19:26.3230,1.173,1.058,0.18,-10.98,-0.3,-4.82,3.09,-4.76,1.48
2022-02-08 11:19:26.3330,1.01,1.007,0.191,-10.98,-0.3,-4.82,3.72,-2.42,1.29
Time,0.922,0.979,0.096,-10.98,-0.3,-4.82,3.9,-0.94,1.12
2022-02-08 11:19:26.3640,0.776,0.907,-0.31,-10.98,-0.3,-4.82,4.25,-0.97,1.07
2022-02-08 11:19:26.3750,0.603,0.787,-0.272,-10.98,-0.3,-4.82,4.12,-0.38,0.84
2022-02-08 11:19:26.3750,0.526,0.568,0.099,-10.98,-0.3,-4.82,3.61,-0.03,0.68
2022-02-08 11:19:26.3840,0.572,0.392,0.065,-10.98,-0.3,-4.82,3.14,0.08,0.67
2022-02-08 11:19:26.3930,0.566,0.346,-0.105,-10.98,-0.3,-4.82,2.97,0.14,0.74
2022-02-08 11:19:26.4040,0.575,0.306,-0.229,-10.98,-0.3,-4.82,2.97,0.14,0.74
2022-02-08 11:19:26.4140,0.598,0.202,-0.241,-10.98,-0.3,-4.82,2.89,0.56,0.8
2022-02-08 11:19:26.4240,0.673,-0.018,-0.332,-10.98,-0.3,-4.82,3.25,1.88,1.43
2022-02-08 11:19:26.4340,0.848,-0.269,-0.313,-10.98,-0.3,-4.82,3.26,2.49,2.14
2022-02-08 11:19:26.9290,0.518,-0.303,0.235,-10.98,-0.3,-4.82,-0.43,2.98,-2.1
2022-02-08 11:19:26.9290,0.618,-0.364,0.299,-10.98,-0.3,-4.82,-0.43,2.98,-2.1
2022-02-08 11:19:26.9290,0.825,-0.36,0.256,-10.98,-0.3,-4.82,-0.43,2.98,-2.1
2022-02-08 11:19:26.9290,0.706,-0.173,0.156,-10.98,-0.3,-4.82,-0.43,2.98,-2.1
2022-02-08 11:19:26.9290,0.777,-0.049,0.007,-10.98,-0.3,-4.82,-0.43,2.98,-2.1
2022-02-08 11:19:26.9290,1.045,-0.044,-0.299,-10.98,-0.3,-4.82,-0.43,2.98,-2.1
2022-02-08 11:19:26.9290,1.186,0.004,-0.595,-10.98,-0.3,-4.82,-0.43,2.98,-2.1
2022-02-08 11:19:26.9290,1.203,0.14,-0.625,-10.98,-0.3,-4.82,-0.43,2.98,-2.1
2022-02-08 11:19:26.9290,0.762,0.328,-0.657,-10.98,-0.3,-4.82,-0.43,2.98,-2.1
2022-02-08 11:19:26.9290,0.189,0.458,-0.755,-10.98,-0.3,-4.82,-0.43,2.98,-2.1
2022-02-08 11:19:26.9290,-0.098,0.595,-0.663,-10.98,-0.3,-4.82,-0.43,2.98,-2.1
2022-02-08 11:19:26.9290,-0.098,0.595,-0.663,-10.98,-0.3,-4.82,-0.43,2.98,-2.1
2022-02-08 11:19:26.9290,-0.166,0.588,-0.649,-10.98,-0.3,-4.82,-0.43,2.98,-2.1
2022-02-08 11:19:26.9290,0.13,0.712,-0.461,-10.98,-0.3,-4.82,-0.43,2.98,-2.1
2022-02-08 11:19:26.9290,0.13,0.712,-0.461,-10.98,-0.3,-4.82,-0.43,2.98,-2.1
2022-02-08 11:19:26.9290,0.431,0.485,-0.176,-10.98,-0.3,-4.82,-0.43,2.98,-2.1
2022-02-08 11:19:26.9290,0.562,0.25,0.039,-10.98,-0.3,-4.82,-0.43,2.98,-2.1
2022-02-08 11:19:26.9290,0.562,0.25,0.039,-10.98,-0.3,-4.82,-0.43,2.98,-2.1
2022-02-08 11:19:26.9290,0.702,0.214,0.345,-10.98,-0.3,-4.82,-0.43,2.98,-2.1
2022-02-08 11:19:26.9290,0.702,0.214,0.345,-10.98,-0.3,-4.82,-0.43,2.98,-2.1
2022-02-08 11:19:26.9290,0.815,0.323,0.467,-10.98,-0.3,-4.82,-0.43,2.98,-2.1
2022-02-08 11:19:26.9290,0.847,0.468,0.417,-10.98,-0.3,-4.82,-0.43,2.98,-2.1
2022-02-08 11:19:26.9290,0.847,0.468,0.417,-10.98,-0.3,-4.82,-0.43,2.98,-2.1
2022-02-08 11:19:26.9290,0.784,0.557,0.433,-10.98,-0.3,-4.82,-0.43,2.98,-2.1
2022-02-08 11:19:26.9290,1.137,0.495,0.083,-10.98,-0.3,-4.82,-0.43,2.98,-2.1
2022-02-08 11:19:26.9290,1.137,0.495,0.083,-10.98,-0.3,-4.82,-0.43,2.98,-2.1
2022-02-08 11:19:26.9290,1.137,0.495,0.083,-10.98,-0.3,-4.82,-0.43,2.98,-2.1
2022-02-08 11:19:26.9290,1.256,0.829,-0.549,-10.98,-0.3,-4.82,-0.43,2.98,-2.1
2022-02-08 11:19:26.9290,1.256,0.829,-0.549,-10.98,-0.3,-4.82,-0.43,2.98,-2.1
2022-02-08 11:19:26.9290,1.787,0.548,-1.332,-10.98,-0.3,-4.82,-0.43,2.98,-2.1
2022-02-08 11:19:26.9290,1.787,0.548,-1.232879638671875,-10.98,-0.3,-4.82,-0.43,2.98,-2.1
2022-02-08 11:19:26.9290,1.886,0.511,-1.233,-10.98,-0.3,-4.82,-0.43,2.98,-2.1
2022-02-08 11:19:26.9290,1.586,0.644,-0.062,-10.98,-0.3,-4.82,-0.43,2.98,-2.1
2022-02-08 11:19:26.9290,1.586,0.644,-0.062,-10.98,-0.3,-4.82,-0.43,2.98,-2.1
2022-02-08 11:19:26.9290,0.914,0.392,0.092,-10.98,-0.3,-4.82,-0.43,2.98,-2.1
2022-02-08 11:19:26.9290,0.914,0.392,0.092,-10.98,-0.3,-4.82,-0.43,2.98,-2.1
2022-02-08 11:19:26.9290,1.43,0.282,0.007,-10.98,-0.3,-4.82,-0.43,2.98,-2.1
2022-02-08 11:19:26.9290,1.43,0.282,0.007,-10.98,-0.3,-4.82,-0.43,2.98,-2.1
2022-02-08 11:19:26.9290,2.202,0.605,0.301,-10.98,-0.3,-4.82,-0.43,2.98,-2.1
2022-02-08 11:19:26.9290,1.218,0.541,0.51,-10.98,-0.3,-4.82,-0.43,2.98,-2.1
2022-02-08 11:19:26.9290,1.218,0.541,0.51,-10.98,-0.3,-4.82,-0.43,2.98,-2.1
2022-02-08 11:19:26.9290,0.812,0.442,0.469,-10.98,-0.3,-4.82,-0.43,2.98,-2.1
2022-02-08 11:19:26.9290,0.855,0.457,0.67,-10.98,-0.3,-4.82,-1.6,0.15,-0.11
2022-02-08 11:19:26.9290,0.946,0.515,0.705,-10.98,-0.3,-4.82,-2.12,-1.52,1.11
2022-02-08 11:19:26.9290,1.017,0.435,0.597,-10.98,-0.3,-4.82,-2.12,-1.52,1.11
2022-02-08 11:19:26.9290,1.042,0.287,0.514,-10.98,-0.3,-4.82,-2.12,-1.52,1.11
2022-02-08 11:19:26.9330,0.941,0.248,0.535,-10.98,-0.3,-4.82,-3.14,-2.97,2.73
2022-02-08 11:19:26.9350,0.814,0.379,0.524,-10.98,-0.3,-4.82,-3.46,-3.11,3.0
2022-02-08 11:19:26.9380,0.692,0.404,0.372,-10.98,-0.3,-4.82,-3.5,-3.08,3.15
2022-02-08 11:19:26.9480,0.518,0.361,0.293,-10.98,-0.3,-4.82,-3.3,-2.59,3.2
2022-02-08 11:19:26.9580,0.327,0.347,0.314,-10.98,-0.3,-4.82,-2.91,-1.62,3.14
2022-02-08 11:19:26.9680,0.173,0.32,0.331,-10.98,-0.3,-4.82,-2.38,-0.4,3.03
2022-02-08 11:19:26.9780,0.036,0.34,0.312,-10.98,-0.3,-4.82,-1.87,0.94,2.59
2022-02-08 11:19:26.9880,-0.139,0.647,0.318,-10.98,-0.3,-4.82,-1.37,2.44,1.66
2022-02-08 11:19:26.9990,-0.26,1.049,0.211,-10.98,-0.3,-4.82,-0.75,3.53,0.54
2022-02-08 11:19:27.0160,-0.246,1.44,-0.139,-9.52,-1.65,-5.04,0.21,4.33,-0.64
2022-02-08 11:19:27.0270,-0.025,1.643,-0.48,-9.52,-1.65,-5.04,1.51,4.8,-1.46
2022-02-08 11:19:27.0380,0.418,1.592,-0.745,-9.52,-1.65,-5.04,2.83,4.85,-1.8
2022-02-08 11:19:27.0480,0.613,1.377,-0.717,-9.52,-1.65,-5.04,3.91,4.7,-1.92
2022-02-08 11:19:27.0580,0.516,1.116,-0.53,-9.52,-1.65,-5.04,4.6,4.18,-2.1
2022-02-08 11:19:27.0680,0.363,0.942,-0.392,-9.52,-1.65,-5.04,5.02,3.39,-2.24
2022-02-08 11:19:27.0780,0.294,0.726,-0.271,1.64,7.09,-7.01,5.28,2.68,-2.17
2022-02-08 11:19:27.0880,0.284,0.496,-0.124,1.89,-4.01,-5.77,5.51,2.29,-1.91
2022-02-08 11:19:27.0990,0.312,0.395,-0.032,1.81,2.46,-0.73,5.7,1.93,-1.51
2022-02-08 11:19:27.1060,0.414,0.44,-0.03,2.88,3.1,3.94,5.81,1.25,-0.91
2022-02-08 11:19:27.1100,0.649,0.539,-0.076,1.97,3.25,3.34,5.72,-0.85,-0.14
2022-02-08 11:19:27.1200,0.93,0.891,-0.054,-0.01,2.65,3.22,5.04,-5.16,-0.2
2022-02-08 11:19:27.1300,0.95,1.924,0.454,-2.88,0.06,3.21,4.36,-8.01,-1.56
2022-02-08 11:19:27.1400,1.07,2.004,0.821,-3.65,-8.23,-1.56,3.95,-8.07,-2.64
2022-02-08 11:19:27.1500,1.045,1.764,0.886,-4.51,-12.78,-7.05,3.72,-6.57,-4.04
2022-02-08 11:19:27.1610,1.144,1.571,0.769,-5.03,-9.19,-8.76,3.32,-5.25,-4.64
2022-02-08 11:19:27.1710,1.418,0.913,0.542,-8.81,-1.9,-6.96,2.83,-4.02,-4.41
2022-02-08 11:19:27.1810,1.433,0.536,0.471,-10.13,2.85,-6.33,2.32,-2.77,-3.98
2022-02-08 11:19:27.1930,1.28,0.414,0.497,-9.13,4.66,-6.56,1.88,-1.15,-3.79
2022-02-08 11:19:27.2040,1.202,0.403,0.653,-8.47,4.95,-8.04,1.56,0.88,-3.78
2022-02-08 11:19:27.2130,1.093,0.337,0.713,-8.47,4.95,-8.04,1.34,2.73,-3.93
2022-02-08 11:19:27.2200,0.865,0.419,0.635,-8.0,5.58,-9.15,1.2,4.12,-4.3
2022-02-08 11:19:27.2330,0.683,0.66,0.506,-6.25,5.47,-8.58,1.05,4.7,-4.41
2022-02-08 11:19:27.2400,0.625,0.739,0.233,-4.51,3.34,-7.47,0.67,3.88,-4.54
2022-02-08 11:19:27.2510,0.611,0.71,-0.117,-4.51,3.34,-7.47,0.18,2.67,-4.69
Time,0.486,0.7,-0.361,-3.98,2.09,-5.26,-1.09,-0.14,-4.3
2022-02-08 11:19:27.2720,0.47,0.761,-0.393,-3.98,2.09,-5.26,-1.84,-1.22,-3.25
2022-02-08 11:19:27.2860,0.603,0.717,-0.337,-3.18,1.76,2.8,-2.21,-1.04,-1.84
2022-02-08 11:19:27.2910,0.694,0.778,-0.101,-4.93,2.73,1.53,-1.96,0.98,-0.25
2022-02-08 11:19:27.3050,0.686,0.874,-0.005,-5.98,2.2,0.29,-1.47,3.32,1.38
2022-02-08 11:19:27.3110,0.637,0.997,-0.139,-5.98,2.2,0.29,-1.01,5.49,2.9
2022-02-08 11:19:27.3250,0.582,1.099,-0.247,-6.07,1.41,-1.38,-1.4,5.82,4.17
2022-02-08 11:19:27.3310,0.397,1.348,-0.544,-5.34,0.18,-0.07,-2.35,4.63,4.79
2022-02-08 11:19:27.3450,0.111,1.66,-0.753,-5.34,0.18,-0.07,-3.57,2.05,4.51
2022-02-08 11:19:27.3510,-0.095,1.779,-0.945,-4.49,-0.82,1.05,-4.1,-0.21,3.9
2022-02-08 11:19:27.3630,-0.052,1.433,-0.92,-4.49,-0.82,1.05,-3.76,-1.26,3.59
Time,0.074,1.074,-0.795,-2.57,-2.92,4.03,-3.08,-1.64,3.37
2022-02-08 11:19:27.3860,0.107,0.96,-0.648,-2.57,-2.92,4.03,-2.42,-1.82,3.06
2022-02-08 11:19:27.3920,0.12,0.951,-0.52,0.57,-6.03,6.48,-1.92,-2.08,2.54
2022-02-08 11:19:27.4050,0.153,0.984,-0.441,0.57,-6.03,6.48,-1.55,-2.35,1.89
2022-02-08 11:19:27.4120,0.238,1.003,-0.358,3.41,-8.17,9.04,-1.24,-2.55,1.32
2022-02-08 11:19:27.4260,0.37,0.954,-0.304,3.41,-8.17,9.04,-0.98,-2.86,0.93
2022-02-08 11:19:27.4320,0.503,0.885,-0.328,3.96,-5.93,9.69,-0.64,-3.5,0.6
2022-02-08 11:19:27.4460,0.616,0.884,-0.407,3.96,-5.93,9.69,-0.01,-4.53,0.13
2022-02-08 11:19:27.4560,0.697,1.041,-0.427,2.95,-1.98,8.8,1.07,-5.07,-0.43
2022-02-08 11:19:27.4620,0.713,1.232,-0.172,2.78,-0.59,7.66,3.56,-2.66,-0.32
2022-02-08 11:19:27.4760,0.699,1.145,0.023,2.78,-0.59,7.66,4.5,-1.24,-0.08
2022-02-08 11:19:27.4830,0.52,1.296,-0.0,2.9,-0.4,6.32,4.3,-0.55,-0.53
2022-02-08 11:19:27.4960,0.327,1.393,0.14,2.9,-0.4,6.32,3.24,0.14,-1.12
2022-02-08 11:19:27.5020,0.384,1.07,1.532,2.89,-0.81,5.59,0.51,1.84,-1.5
Time,0.529,0.833,1.967,2.89,-0.81,5.59,-2.0,0.82,-1.89
2022-02-08 11:19:27.5220,0.345,0.993,0.72,2.36,-1.17,4.8,-3.11,-1.64,-2.17
2022-02-08 11:19:27.5370,0.201,1.072,0.135,2.36,-1.17,4.8,-3.0,-3.39,-2.01
2022-02-08 11:19:27.5430,0.344,0.702,-0.065,1.28,-0.91,4.1,-2.49,-4.12,-1.49
2022-02-08 11:19:27.5560,0.483,0.496,-0.111,1.28,-0.91,4.1,-1.94,-3.87,-0.81
2022-02-08 11:19:27.5630,0.567,0.466,-0.08,0.03,-0.25,4.06,-1.37,-2.44,0.02
2022-02-08 11:19:27.5740,0.588,0.485,-0.047,0.03,-0.25,4.06,-0.83,-0.02,0.9
Time,0.604,0.563,-0.028,-1.04,-0.02,4.6,-0.4,2.77,1.74
2022-02-08 11:19:27.5940,0.692,0.613,-0.013,-1.04,-0.02,4.6,-0.13,5.24,2.46
2022-02-08 11:19:27.6030,0.774,0.676,-0.063,-1.95,-1.09,4.82,0.14,6.88,2.8
2022-02-08 11:19:27.6130,0.78,0.75,-0.226,-1.95,-1.09,4.82,0.7,6.99,2.7
2022-02-08 11:19:27.6230,0.827,0.839,-0.522,-2.27,-3.26,2.85,1.7,5.49,2.37
2022-02-08 11:19:27.6390,0.89,0.906,-0.666,-2.27,-3.26,2.85,2.62,3.68,2.16
2022-02-08 11:19:27.6430,0.912,0.912,-0.504,-2.24,-2.91,-0.55,3.1,2.48,2.12
2022-02-08 11:19:27.6580,0.851,0.912,-0.291,-2.24,-2.91,-0.55,3.18,1.88,2.11
2022-02-08 11:19:27.6640,0.745,0.921,-0.177,-1.02,-3.47,-0.66,2.96,1.59,2.08
2022-02-08 11:19:27.6750,0.631,0.966,-0.13,-1.02,-3.47,-0.66,2.51,1.26,1.97
Time,0.511,1.067,-0.141,1.1,-5.26,-1.74,1.84,0.51,1.72
2022-02-08 11:19:27.6950,0.399,1.268,-0.095,1.1,-5.26,-1.74,0.69,-0.32,1.27
2022-02-08 11:19:27.7080,0.089,1.673,0.921,1.19,-2.89,-11.51,-1.65,1.36,0.35
2022-02-08 11:19:27.7140,-0.327,2.207,1.833,-0.75,0.39,-22.16,-3.73,2.84,-0.62
2022-02-08 11:19:27.7270,-0.341,2.596,1.216,-0.75,0.39,-22.16,-4.93,2.93,-1.46
2022-02-08 11:19:27.7340,-0.382,2.916,0.518,0.21,-0.36,-10.62,-5.15,1.36,-2.13
2022-02-08 11:19:27.7480,-0.544,2.936,-0.035,0.21,-0.36,-10.62,-5.02,-0.91,-2.65
2022-02-08 11:19:27.7540,-0.664,2.445,-0.162,1.94,-1.86,-2.85,-5.14,-2.96,-2.81
2022-02-08 11:19:27.7640,-0.594,1.664,-0.011,1.94,-1.86,-2.85,-5.47,-4.36,-2.61
2022-02-08 11:19:27.7760,-0.503,1.172,-0.001,0.9,1.14,-0.26,-5.65,-5.35,-2.19
2022-02-08 11:19:27.7890,-0.343,0.937,-0.232,0.9,1.14,-0.26,-5.39,-5.66,-1.61
2022-02-08 11:19:27.7980,-0.197,0.831,-0.485,-0.8,3.98,0.55,-4.64,-5.23,-1.13
2022-02-08 11:19:27.8050,-0.093,0.767,-0.696,-1.75,4.47,0.42,-3.47,-3.99,-0.86
2022-02-08 11:19:27.8170,0.029,0.725,-0.861,-1.75,4.47,0.42,-2.12,-2.18,-0.81
Time,0.191,0.673,-0.937,-2.11,4.46,0.07,-1.05,-0.74,-0.96
2022-02-08 11:19:27.8350,0.377,0.613,-0.84,-2.11,4.46,0.07,-0.38,-0.09,-1.35
2022-02-08 11:19:27.8450,0.579,0.615,-0.703,-2.05,3.69,0.0,-0.03,-0.16,-1.88
2022-02-08 11:19:27.8570,0.798,0.647,-0.617,-2.05,3.69,0.0,0.23,-0.32,-2.43
Time,0.966,0.655,-0.557,-2.52,3.05,-0.01,0.53,-0.42,-2.89
2022-02-08 11:19:27.8760,1.081,0.623,-0.529,-2.52,3.05,-0.01,0.86,-0.2,-3.13
2022-02-08 11:19:27.8900,1.162,0.55,-0.439,-3.25,2.39,0.52,1.19,0.72,-3.15
2022-02-08 11:19:27.8950,1.189,0.5,-0.319,-3.18,1.55,2.09,1.48,2.31,-3.06
2022-02-08 11:19:27.9080,1.165,0.454,-0.204,-3.18,1.55,2.09,1.72,4.08,-2.83
2022-02-08 11:19:27.9160,1.174,0.371,-0.183,-3.3,0.61,4.95,1.96,4.63,-2.45
2022-02-08 11:19:27.9280,1.245,0.236,-0.353,-3.3,0.61,4.95,2.15,0.85,-2.22
2022-02-08 11:19:27.9360,1.427,0.019,-0.779,-3.78,-0.28,7.1,2.46,-8.07,-2.29
2022-02-08 11:19:27.9470,1.551,-0.091,-0.761,-3.78,-0.28,7.1,2.17,-14.46,-2.21
Time,1.376,0.072,0.955,-3.98,-0.53,6.01,-0.93,-13.14,-2.03
2022-02-08 11:19:27.9710,0.926,0.082,4.006,-3.98,-0.53,6.01,-3.07,-4.58,-1.2
2022-02-08 11:19:27.9760,0.656,0.234,2.705,-3.43,-0.6,3.64,-0.19,3.0,-0.45
2022-02-08 11:19:27.9910,0.458,0.498,0.048,-3.43,-0.6,3.64,3.11,6.99,-0.08
2022-02-08 11:19:27.9960,0.449,0.798,-1.133,-2.25,-0.78,2.12,4.67,6.94,0.38
2022-02-08 11:19:28.0090,0.855,1.191,-1.008,-2.25,-0.78,2.12,3.34,3.76,1.06
2022-02-08 11:19:28.0160,1.642,1.646,0.486,-0.99,-1.19,1.36,0.49,0.94,1.87
2022-02-08 11:19:28.0290,2.093,1.939,0.722,-0.99,-1.19,1.36,-1.11,-0.91,2.35
2022-02-08 11:19:28.0410,1.622,1.847,0.035,0.34,-2.12,1.24,-1.78,-1.68,2.32
2022-02-08 11:19:28.0470,1.113,1.486,-0.003,1.55,-3.9,1.09,-2.11,-1.72,2.21
2022-02-08 11:19:28.0610,0.995,1.245,0.128,1.55,-3.9,1.09,-2.27,-1.79,2.36
2022-02-08 11:19:28.0670,1.021,1.16,0.211,3.76,-7.25,-5.06,-2.24,-2.33,2.57
2022-02-08 11:19:28.0810,0.972,1.184,0.256,3.76,-7.25,-5.06,-2.05,-2.97,2.68
2022-02-08 11:19:28.0870,0.887,1.267,0.555,8.44,-12.6,-17.64,-2.03,-2.78,2.65
2022-02-08 11:19:28.0990,0.732,1.425,1.4,8.44,-12.6,-17.64,-2.57,-0.6,2.47
Time,0.491,1.652,2.33,9.14,-16.63,-12.96,-3.26,2.87,2.15
2022-02-08 11:19:28.1180,0.306,1.821,2.038,9.14,-16.63,-12.96,-3.34,5.34,1.79
2022-02-08 11:19:28.1310,0.235,1.855,1.058,9.06,-20.01,-5.52,-2.99,6.41,1.25
2022-02-08 11:19:28.1370,0.108,1.851,0.256,10.22,-21.13,1.04,-2.63,5.86,0.45
Time,0.019,1.786,-0.548,10.22,-21.13,1.04,-2.57,3.82,-0.48
2022-02-08 11:19:28.1580,-0.039,1.603,-1.055,11.6,-17.61,3.63,-2.49,1.45,-1.34
2022-02-08 11:19:28.1710,-0.162,1.456,-1.307,11.6,-17.61,3.63,-1.96,-0.6,-2.0
2022-02-08 11:19:28.1780,-0.321,1.275,-1.235,11.08,-10.0,2.78,-1.55,-1.98,-2.5
2022-02-08 11:19:28.1910,-0.738,1.105,-0.005,11.08,-10.0,2.78,-2.06,-1.13,-3.16
Time,-0.9,0.898,0.397,10.12,-4.28,2.2,-1.89,0.06,-3.36
2022-02-08 11:19:28.2090,-0.609,0.636,-0.012,10.12,-4.28,2.2,-1.46,0.92,-3.25
Time,-0.416,0.422,-0.155,8.76,-1.58,4.26,-0.88,0.77,-2.85
2022-02-08 11:19:28.2280,-0.197,0.205,-0.424,8.76,-1.58,4.26,-0.34,-0.36,-2.26
2022-02-08 11:19:28.2410,-0.028,0.028,-0.514,7.16,-0.35,6.94,0.27,-1.38,-1.57
2022-02-08 11:19:28.2480,0.138,-0.004,-0.515,6.23,0.25,9.19,1.01,-1.81,-0.89
2022-02-08 11:20:06.0920,0.29,0.104,-0.499,4.26,-8.34,13.7,1.71,-1.89,-0.3
2022-02-08 11:20:06.0950,0.347,0.21,-0.473,12.72,-1.57,-0.32,2.3,-1.8,0.1
2022-02-08 11:20:06.0970,0.271,0.282,-0.455,7.44,3.27,5.95,2.68,-1.89,0.25
2022-02-08 11:20:06.1220,0.213,0.361,-0.441,-7.47,6.3,-1.16,2.88,-2.03,0.33
2022-02-08 11:20:06.1240,0.305,0.483,-0.413,-7.47,6.3,-1.16,2.99,-1.91,0.47
2022-02-08 11:20:06.0930,0.481,0.645,-0.373,-2.84,-4.46,6.92,3.07,-1.34,0.74
2022-02-08 11:20:06.0590,0.683,0.758,-0.337,-2.84,-4.46,6.92,3.12,-0.41,1.1
Time,0.858,0.847,-0.302,-5.88,-13.77,10.08,3.11,0.68,1.41
2022-02-08 11:20:06.0990,0.931,0.928,-0.225,-5.88,-13.77,10.08,2.97,1.68,1.53
2022-02-08 11:20:06.0950,0.935,0.978,-0.146,-7.66,-23.88,13.74,2.77,2.33,1.47
2022-02-08 11:20:06.1250,0.926,0.962,-0.129,-7.16,-29.97,16.83,2.65,2.36,1.33
2022-02-08 11:20:06.1350,0.887,0.871,-0.143,-4.89,-33.28,19.85,2.62,1.81,1.17
Time,0.793,0.722,-0.155,-4.89,-33.28,19.85,2.69,0.87,1.03
2022-02-08 11:20:06.1380,0.65,0.556,-0.165,-4.89,-33.28,19.85,2.76,-0.77,0.82
2022-02-08 11:20:06.1400,0.327,0.322,-0.226,-4.89,-33.28,19.85,2.79,-8.18,-0.09
2022-02-08 11:20:06.1360,-0.223,0.01,-0.42,-4.89,-33.28,19.85,2.98,-13.65,-0.78
2022-02-08 11:20:06.1440,0.371,0.229,-0.116,-0.68,-32.14,23.46,2.93,-14.93,-1.01
2022-02-08 11:20:06.1430,0.924,0.426,0.101,-0.68,-32.14,23.46,2.69,-13.99,-1.04
2022-02-08 11:20:06.1480,1.094,0.526,0.224,-0.68,-32.14,23.46,2.34,-11.78,-0.84
2022-02-08 11:20:06.1420,1.351,0.791,0.66,-0.68,-32.14,23.46,-0.89,-7.89,0.04
2022-02-08 11:20:06.1430,1.965,1.602,3.92,-0.68,-32.14,23.46,-3.38,-3.27,1.29
2022-02-08 11:20:06.1450,2.241,2.129,1.68,-0.68,-32.14,23.46,-0.74,-1.96,1.66
2022-02-08 11:20:06.1470,2.542,2.444,-0.107,2.69,-20.31,20.28,1.5,1.14,1.37
2022-02-08 11:20:06.1480,2.728,2.626,-0.137,2.69,-20.31,20.28,2.56,4.36,0.3
2022-02-08 11:20:06.1490,3.019,3.016,-0.15,2.69,-20.31,20.28,2.73,4.43,-1.23
Time,2.84,2.339,0.272,2.69,-20.31,20.28,1.76,4.03,-1.73
2022-02-08 11:20:06.1500,2.175,1.231,0.498,4.98,-7.96,15.6,1.05,4.63,-1.41
2022-02-08 11:20:06.1510,1.968,0.909,0.158,4.98,-7.96,15.6,0.68,5.38,-0.79
Time,1.771,0.686,0.002,4.98,-7.96,15.6,0.49,6.06,-0.19
Time,1.553,0.512,-0.059,4.98,-7.96,15.6,0.49,6.06,-0.19
2022-02-08 11:20:06.1550,1.322,0.349,-0.078,4.98,-7.96,15.6,0.13,5.42,0.62
Time,1.11,0.239,-0.016,6.73,-1.74,13.06,-0.17,4.45,0.84
2022-02-08 11:20:06.1570,0.94,0.181,0.064,6.73,-1.74,13.06,-0.54,3.84,1.09
2022-02-08 11:20:06.1570,0.799,0.155,0.144,6.73,-1.74,13.06,-0.91,3.74,1.34
2022-02-08 11:20:06.1650,0.678,0.138,0.182,6.73,-1.74,13.06,-1.2,4.12,1.6
2022-02-08 11:20:06.1610,0.588,0.151,0.15,6.73,-1.74,13.06,-1.36,4.67,1.82
2022-02-08 11:20:06.1630,0.493,0.159,0.033,6.73,-1.74,13.06,-1.38,5.07,1.97
2022-02-08 11:20:06.1640,0.405,0.173,-0.09,6.73,-1.74,13.06,-1.34,5.33,2.09
Time,0.346,0.166,-0.121,6.73,-1.74,13.06,-1.35,5.41,2.19
2022-02-08 11:20:06.1680,0.298,0.174,-0.147,6.73,-1.74,13.06,-1.35,5.41,2.19
2022-02-08 11:20:06.1660,0.261,0.237,-0.196,8.75,0.83,12.61,-1.45,4.97,2.3
2022-02-08 11:20:06.1690,0.291,0.328,-0.219,8.75,0.83,12.61,-1.41,4.91,2.43
2022-02-08 11:20:06.1690,0.418,0.488,-0.234,8.75,0.83,12.61,-1.34,5.04,2.69
2022-02-08 11:20:06.1680,0.669,0.805,-0.292,8.75,0.83,12.61,-1.27,5.25,3.01
2022-02-08 11:20:06.1700,0.954,1.395,-0.465,8.75,0.83,12.61,-1.14,5.23,3.12
2022-02-08 11:20:06.1720,1.259,2.408,-0.776,8.75,0.83,12.61,-0.9,4.6,2.75
Time,1.386,3.342,-1.12,8.75,0.83,12.61,-0.51,3.21,1.99
2022-02-08 11:20:06.1750,1.288,3.856,-1.399,8.75,0.83,12.61,0.07,1.19,1.0
2022-02-08 11:20:06.1750,1.006,4.147,-1.76,8.75,0.83,12.61,1.28,-0.74,-0.24
2022-02-08 11:20:06.1750,0.562,3.79,-2.039,8.99,2.65,10.53,2.6,-2.03,-1.23
Time,0.262,2.444,-1.616,8.99,2.65,10.53,3.81,-2.61,-1.77
2022-02-08 11:20:06.1780,0.027,1.369,-1.261,8.99,2.65,10.53,5.13,-2.09,-2.2
2022-02-08 11:20:06.1800,-0.166,0.887,-1.101,8.99,2.65,10.53,6.64,-1.06,-2.74
2022-02-08 11:20:06.1800,-0.379,0.698,-1.136,8.99,2.65,10.53,7.83,-0.34,-3.18
Time,-0.375,0.531,-0.926,8.99,2.65,10.53,8.18,-0.78,-3.42
Time,-0.316,0.383,-0.824,8.99,2.65,10.53,7.78,-2.52,-3.47
2022-02-08 11:20:06.1830,-0.239,0.257,-0.669,8.99,2.65,10.53,7.01,-3.92,-3.36
2022-02-08 11:20:06.1850,-0.147,0.141,-0.363,8.99,2.65,10.53,6.2,-4.62,-3.16
2022-02-08 11:20:06.1860,-0.122,0.082,-0.081,8.99,2.65,10.53,4.74,-2.98,-2.89
2022-02-08 11:20:06.1860,0.633,-0.259,3.937,8.99,2.65,10.53,-3.7,20.14,-0.65
2022-02-08 11:20:06.1860,2.174,-0.105,6.199,8.99,2.65,10.53,-5.5,24.7,-0.65
2022-02-08 11:20:06.1890,1.076,0.645,-0.451,8.99,2.65,10.53,0.44,12.87,-1.49
2022-02-08 11:20:06.1890,0.265,0.586,-3.16,8.99,2.65,10.53,5.58,-2.94,-0.87
2022-02-08 11:20:06.1890,-0.356,0.586,-1.157,8.99,2.65,10.53,5.58,-2.94,-0.87
2022-02-08 11:20:06.1910,-0.742,0.965,1.617,8.99,2.65,10.53,1.81,-2.44,-2.14
2022-02-08 11:20:06.1910,-0.653,0.603,0.948,8.99,2.65,10.53,-0.32,0.06,-2.22
2022-02-08 11:20:06.1930,0.02,0.455,-0.382,8.99,2.65,10.53,-1.77,2.5,-2.17
2022-02-08 11:20:06.1940,0.481,0.9,-0.774,8.99,2.65,10.53,-2.24,4.54,-2.04
Time,1.001,1.362,-1.117,8.99,2.65,10.53,-1.9,4.05,-1.48
2022-02-08 11:20:06.1940,1.82,2.027,-1.304,8.07,4.46,8.16,-1.2,-2.08,-0.53
2022-02-08 11:20:06.1960,2.688,2.358,-0.956,8.07,4.46,8.16,-1.07,-6.64,0.98
2022-02-08 11:20:06.1970,2.628,2.253,-0.257,8.07,4.46,8.16,-1.36,-6.21,2.49
Time,1.984,1.896,0.235,8.07,4.46,8.16,-2.69,-3.93,3.38
2022-02-08 11:20:06.2000,1.942,1.093,1.85,8.07,4.46,8.16,-6.73,-1.41,4.88
2022-02-08 11:20:06.1990,2.06,0.707,2.992,8.07,4.46,8.16,-9.12,-0.62,5.59
2022-02-08 11:20:06.1990,1.524,1.214,0.907,8.07,4.46,8.16,-8.4,-4.51,4.81
2022-02-08 11:20:06.2020,1.404,1.251,-0.25,8.07,4.46,8.16,-6.57,-5.83,3.91
2022-02-08 11:20:06.2040,1.503,1.0,0.576,8.07,4.46,8.16,-5.54,-2.09,3.68
2022-02-08 11:20:06.2030,1.553,0.983,1.356,8.07,4.46,8.16,-4.62,2.09,3.35
2022-02-08 11:20:06.2040,0.991,1.42,0.518,8.07,4.46,8.16,-3.3,4.58,2.66
2022-02-08 11:20:06.2040,0.47,1.721,-0.327,8.07,4.46,8.16,-1.74,5.12,1.96
2022-02-08 11:20:06.2060,0.111,1.73,-0.918,8.07,4.46,8.16,-0.24,4.0,1.17
2022-02-08 11:20:06.2070,-0.146,1.559,-1.278,8.07,4.46,8.16,0.77,3.02,0.56
2022-02-08 11:20:06.2080,-0.161,1.149,-1.116,8.07,4.46,8.16,1.04,1.64,0.04
2022-02-08 11:20:06.2090,-0.279,0.856,-0.775,8.07,4.46,8.16,0.43,-0.06,-0.46
2022-02-08 11:20:06.2090,-0.463,0.647,-0.087,8.07,4.46,8.16,-0.97,-1.26,-0.99
2022-02-08 11:20:06.2110,-0.578,0.522,0.428,8.07,4.46,8.16,-2.05,-2.09,-1.19
2022-02-08 11:20:06.2140,-0.489,0.452,0.382,8.07,4.46,8.16,-2.24,-3.06,-0.91
2022-02-08 11:20:06.2140,-0.358,0.417,0.101,8.07,4.46,8.16,-1.65,-3.71,-0.21
2022-02-08 11:20:06.2130,-0.228,0.426,-0.049,8.07,4.46,8.16,-0.83,-3.72,0.35
2022-02-08 11:20:06.2140,-0.209,0.522,-0.111,8.07,4.46,8.16,-0.14,-3.72,0.42
2022-02-08 11:20:06.2160,-0.19,0.548,-0.209,8.07,4.46,8.16,0.43,-3.75,0.16
2022-02-08 11:20:06.2190,-0.123,0.489,-0.222,8.07,4.46,8.16,0.85,-3.76,-0.2
2022-02-08 11:20:06.2180,-0.053,0.386,-0.175,8.07,4.46,8.16,1.13,-3.51,-0.53
Time,0.034,0.294,-0.162,8.07,4.46,8.16,1.43,-2.85,-0.8
2022-02-08 11:20:06.2180,0.086,0.274,-0.221,8.07,4.46,8.16,1.81,-1.88,-1.06
2022-02-08 11:20:06.2190,0.165,0.335,-0.271,8.07,4.46,8.16,2.27,-0.46,-1.29
2022-02-08 11:20:06.2200,0.35,0.48,-0.319,8.07,4.46,8.16,2.76,1.59,-1.42
2022-02-08 11:20:06.2220,0.634,0.639,-0.315,8.07,4.46,8.16,3.1,3.69,-1.55
2022-02-08 11:20:06.2230,0.864,0.753,-0.323,8.07,4.46,8.16,3.24,4.84,-1.71
2022-02-08 11:20:06.2240,1.078,0.746,-0.466,8.07,4.46,8.16,3.45,4.56,-1.58
2022-02-08 11:20:06.2240,1.304,0.568,-0.691,8.07,4.46,8.16,3.55,3.05,-1.08
2022-02-08 11:20:06.2250,1.35,0.403,-0.664,8.07,4.46,8.16,3.02,-0.8,-0.45
2022-02-08 11:20:06.2280,1.406,0.256,-0.522,8.07,4.46,8.16,1.9,-6.86,0.09
2022-02-08 11:20:06.2280,1.485,0.346,-0.196,8.07,4.46,8.16,1.34,-9.68,0.62
2022-02-08 11:20:06.2290,1.589,0.595,0.099,8.07,4.46,8.16,0.46,-12.2,1.67
2022-02-08 11:20:06.2290,2.374,0.724,0.498,8.07,4.46,8.16,-1.52,-17.09,3.96
2022-02-08 11:20:06.2320,3.008,0.904,0.781,8.07,4.46,8.16,-2.58,-18.1,6.32
2022-02-08 11:20:06.2330,2.904,1.468,1.614,7.11,5.8,6.4,-6.46,-14.63,7.77
2022-02-08 11:20:06.2330,2.069,2.947,4.915,7.11,5.8,6.4,-10.82,-6.74,6.76
2022-02-08 11:20:06.2330,1.222,3.408,3.183,7.11,5.8,6.4,-5.76,-4.4,3.14
2022-02-08 11:20:06.2360,0.763,3.409,0.376,7.11,5.8,6.4,-0.63,-0.73,1.01
2022-02-08 11:20:06.2350,0.627,1.494,-0.126,7.11,5.8,6.4,0.23,2.37,0.71
2022-02-08 11:20:06.2390,0.742,0.801,-0.119,7.11,5.8,6.4,0.48,4.25,0.76
2022-02-08 11:20:06.2380,0.716,0.814,-0.146,7.11,5.8,6.4,0.93,5.65,1.22
2022-02-08 11:20:06.2380,0.699,0.813,-0.21,7.11,5.8,6.4,0.93,5.65,1.22
2022-02-08 11:20:06.2400,0.65,0.857,-0.279,7.11,5.8,6.4,1.07,5.47,1.39
2022-02-08 11:20:06.2410,0.572,0.944,-0.349,7.11,5.8,6.4,1.15,4.85,1.41
Time,0.491,1.052,-0.421,7.11,5.8,6.4,1.14,3.75,1.36
2022-02-08 11:20:06.2440,0.437,1.199,-0.572,7.11,5.8,6.4,0.78,1.52,1.1
2022-02-08 11:20:06.2440,0.299,1.443,-0.772,7.11,5.8,6.4,0.16,-1.33,0.5
2022-02-08 11:20:06.2440,0.177,1.603,-0.75,7.11,5.8,6.4,-0.45,-3.76,-0.16
Time,0.084,1.577,-0.512,7.11,5.8,6.4,-1.53,-4.57,-0.74
2022-02-08 11:20:06.2470,-0.209,1.38,1.323,7.11,5.8,6.4,-3.94,-1.33,-1.13
2022-02-08 11:20:06.2490,-0.205,1.038,2.206,7.11,5.8,6.4,-5.82,0.89,-1.1
2022-02-08 11:20:06.2490,0.041,1.041,1.183,7.11,5.8,6.4,-6.69,1.49,-1.15
2022-02-08 11:20:06.2550,0.031,1.204,0.342,7.11,5.8,6.4,-6.45,0.65,-1.35
Time,0.036,1.128,-0.331,7.11,5.8,6.4,-5.59,-0.34,-1.42
2022-02-08 11:20:06.2530,0.133,0.916,-0.615,7.11,5.8,6.4,-4.37,-0.76,-1.41
2022-02-08 11:20:06.2520,0.239,0.689,-0.772,7.11,5.8,6.4,-3.02,-0.95,-1.22
2022-02-08 11:20:06.2550,0.42,0.413,-0.836,7.11,5.8,6.4,-1.92,-1.4,-0.82
2022-02-08 11:20:06.2560,0.594,0.158,-0.726,7.11,5.8,6.4,-1.46,-2.23,-0.28
2022-02-08 11:20:06.2580,0.725,-0.071,-0.373,7.11,5.8,6.4,-1.79,-2.62,0.19
2022-02-08 11:20:06.2580,0.832,-0.233,-0.072,7.11,5.8,6.4,-2.33,-2.24,0.36
2022-02-08 11:20:06.2590,0.894,-0.284,-0.08,7.11,5.8,6.4,-2.81,-1.44,0.21
2022-02-08 11:20:06.2600,1.087,-0.282,-0.165,7.11,5.8,6.4,-3.22,-0.5,-0.17
2022-02-08 11:20:06.2610,1.47,-0.247,-0.283,7.11,5.8,6.4,-3.35,-0.3,-0.51
2022-02-08 11:20:06.2630,1.96,-0.07,-0.558,7.11,5.8,6.4,-3.02,-1.35,-0.5
2022-02-08 11:20:06.2640,2.137,0.288,-0.823,7.11,5.8,6.4,-2.38,-2.75,-0.27
2022-02-08 11:20:06.2640,1.881,0.612,-0.704,7.11,5.8,6.4,-1.67,-3.09,-0.17
2022-02-08 11:20:06.2670,1.617,0.755,-0.464,7.11,5.8,6.4,-0.97,-2.39,-0.3
2022-02-08 11:20:06.2670,1.367,0.793,-0.29,7.11,5.8,6.4,-0.38,-1.14,-0.64
2022-02-08 11:20:06.2670,1.104,0.783,-0.182,7.11,5.8,6.4,0.04,-0.13,-1.17
2022-02-08 11:20:06.2690,0.888,0.726,-0.14,7.11,5.8,6.4,0.38,0.62,-1.63
2022-02-08 11:20:06.2690,0.801,0.622,-0.119,7.11,5.8,6.4,0.72,1.3,-1.8
2022-02-08 11:20:06.2490,0.767,0.529,-0.101,7.11,5.8,6.4,1.04,1.86,-1.74
2022-02-08 11:20:06.2710,0.727,0.457,-0.105,7.11,5.8,6.4,1.39,2.15,-1.62
2022-02-08 11:20:06.2720,0.661,0.408,-0.156,7.11,5.8,6.4,1.93,1.92,-1.57
2022-02-08 11:20:06.2740,0.586,0.372,-0.279,7.11,5.8,6.4,2.71,1.2,-1.59
2022-02-08 11:20:06.2740,0.533,0.337,-0.358,7.11,5.8,6.4,3.56,0.37,-1.6
2022-02-08 11:20:06.2740,0.497,0.314,-0.326,7.11,5.8,6.4,4.29,-0.11,-1.55
2022-02-08 11:20:06.2780,0.454,0.303,-0.213,7.11,5.8,6.4,4.83,-0.13,-1.45
2022-02-08 11:20:06.2790,0.388,0.302,-0.12,7.11,5.8,6.4,5.23,0.13,-1.38
2022-02-08 11:20:06.2790,0.306,0.296,-0.066,7.11,5.8,6.4,5.55,0.49,-1.39
2022-02-08 11:20:06.2800,0.233,0.293,-0.042,7.11,5.8,6.4,5.83,0.87,-1.49
2022-02-08 11:20:06.2810,0.177,0.299,-0.023,7.11,5.8,6.4,6.05,1.29,-1.65
2022-02-08 11:20:06.2830,0.167,0.382,0.003,7.11,5.8,6.4,6.15,1.59,-1.86
2022-02-08 11:20:06.2840,0.232,0.546,-0.03,7.11,5.8,6.4,5.97,2.53,-2.06
2022-02-08 11:20:06.2840,0.598,1.072,1.923,7.11,5.8,6.4,5.97,2.53,-2.06
2022-02-08 11:20:06.2860,1.343,1.654,2.82,7.11,5.8,6.4,2.5,2.99,-0.88
2022-02-08 11:20:06.2870,1.474,1.435,0.691,7.11,5.8,6.4,-0.07,-0.58,-0.22
2022-02-08 11:20:06.2880,1.584,1.515,0.692,7.11,5.8,6.4,-2.02,-1.46,-0.03
2022-02-08 11:20:06.2890,1.764,1.681,0.489,7.11,5.8,6.4,-2.82,-1.39,0.36
2022-02-08 11:20:06.2910,1.931,1.697,0.039,7.11,5.8,6.4,-2.77,-1.56,0.94
2022-02-08 11:20:06.2920,1.622,1.472,-0.122,7.11,5.8,6.4,-2.49,-1.47,0.97
2022-02-08 11:20:06.2970,1.157,1.116,0.031,7.11,5.8,6.4,-2.25,-1.09,0.66
2022-02-08 11:20:06.2930,1.002,0.869,0.11,7.11,5.8,6.4,-2.12,-0.61,0.33
2022-02-08 11:20:06.2950,0.988,0.716,0.115,7.11,5.8,6.4,-2.07,-0.32,0.18
Time,1.047,0.538,0.114,7.11,5.8,6.4,-1.99,-0.25,0.22
2022-02-08 11:20:06.2960,1.149,0.331,0.133,7.11,5.8,6.4,-1.99,-0.5,0.46
2022-02-08 11:20:06.2770,1.315,0.092,0.452,7.11,5.8,6.4,-2.64,-0.67,1.03
2022-02-08 11:20:06.3000,1.5,-0.181,1.176,7.11,5.8,6.4,-3.34,0.19,1.81
2022-02-08 11:20:06.2990,1.44,-0.219,1.097,7.11,5.8,6.4,-3.28,1.38,2.4
2022-02-08 11:20:06.3000,1.249,-0.099,0.54,7.11,5.8,6.4,-2.68,2.4,2.66
2022-02-08 11:20:06.3020,1.09,0.039,0.071,7.11,5.8,6.4,-1.94,3.42,2.73
2022-02-08 11:20:06.3020,0.965,0.14,-0.186,7.11,5.8,6.4,-1.39,4.33,2.68
2022-02-08 11:20:06.3050,0.842,0.204,-0.225,7.11,5.8,6.4,-1.04,4.97,2.53
2022-02-08 11:20:06.3040,0.71,0.252,-0.284,5.87,7.11,2.77,-0.63,5.13,2.34
Time,0.554,0.296,-0.44,5.87,7.11,2.77,-0.14,4.87,2.09
2022-02-08 11:20:06.3070,0.416,0.437,-0.539,5.87,7.11,2.77,0.32,4.35,1.9
2022-02-08 11:20:06.3080,0.454,0.655,-0.653,5.87,7.11,2.77,0.71,3.86,1.81
2022-02-08 11:20:06.3080,0.593,0.909,-0.734,5.87,7.11,2.77,0.71,3.86,1.81
2022-02-08 11:20:06.3120,0.881,1.305,-0.77,5.87,7.11,2.77,1.31,3.38,1.6
2022-02-08 11:20:06.3110,1.218,1.865,-0.886,5.87,7.11,2.77,1.79,2.97,1.37
2022-02-08 11:20:06.3120,1.384,2.506,-1.097,5.87,7.11,2.77,2.5,2.08,0.98
2022-02-08 11:20:06.3030,1.295,2.794,-1.3,5.87,7.11,2.77,3.31,0.91,0.69
2022-02-08 11:20:06.3160,1.009,2.576,-1.345,5.87,7.11,2.77,4.02,-0.29,0.38
2022-02-08 11:20:06.3200,0.699,2.044,-1.125,5.87,7.11,2.77,4.45,-1.34,0.05
Time,0.47,1.599,-0.965,5.87,7.11,2.77,4.73,-2.27,-0.27
2022-02-08 11:20:06.3210,0.317,1.303,-0.88,5.87,7.11,2.77,5.0,-2.82,-0.57
2022-02-08 11:20:06.3200,0.183,1.089,-0.804,5.87,7.11,2.77,5.4,-2.71,-0.83
2022-02-08 11:20:06.3210,0.079,0.917,-0.675,5.87,7.11,2.77,5.86,-1.92,-1.08
2022-02-08 11:20:06.3220,-0.068,0.791,-0.558,5.87,7.11,2.77,6.33,-0.92,-1.4
2022-02-08 11:20:06.3270,-0.234,0.728,-0.502,5.87,7.11,2.77,6.61,-0.33,-1.78
2022-02-08 11:20:06.3260,-0.322,0.722,-0.432,5.87,7.11,2.77,6.62,-0.3,-2.11
2022-02-08 11:20:06.3260,-0.345,0.692,-0.429,5.87,7.11,2.77,6.31,-0.82,-2.33
2022-02-08 11:20:06.3270,-0.413,0.648,-0.481,5.87,7.11,2.77,5.68,-1.66,-2.38
2022-02-08 11:20:06.3270,-0.482,0.574,-0.449,5.87,7.11,2.77,4.75,-2.2,-2.25
2022-02-08 11:20:06.3280,-0.506,0.592,1.333,5.87,7.11,2.77,1.53,10.95,-2.1
2022-02-08 11:20:06.3320,-0.116,0.891,5.944,5.87,7.11,2.77,-0.37,18.57,-2.57
2022-02-08 11:20:06.3330,0.044,1.038,0.963,5.87,7.11,2.77,-0.05,15.4,-3.12
2022-02-08 11:20:06.3320,0.258,1.198,-1.62,5.87,7.11,2.77,4.05,0.14,-2.05
2022-02-08 11:20:06.3320,0.375,1.483,-1.413,5.87,7.11,2.77,4.08,-5.32,-1.41
2022-02-08 11:20:06.3340,0.388,1.334,1.842,5.87,7.11,2.77,1.53,-3.18,-1.59
Time,0.443,1.131,2.195,5.87,7.11,2.77,-0.81,-0.83,-2.0
2022-02-08 11:20:06.3380,0.503,1.084,0.637,5.87,7.11,2.77,-1.91,0.2,-2.43
2022-02-08 11:20:06.3390,0.816,1.191,-0.216,5.87,7.11,2.77,-2.18,0.05,-2.45
Time,1.303,1.338,-0.389,5.87,7.11,2.77,-2.09,-0.97,-1.95
2022-02-08 11:20:06.3410,1.74,1.43,-0.41,5.87,7.11,2.77,-1.98,-2.25,-1.12
2022-02-08 11:20:06.3400,1.99,1.462,-0.326,5.87,7.11,2.77,-2.06,-2.9,-0.13
2022-02-08 11:20:06.3420,2.04,1.473,-0.163,5.87,7.11,2.77,-2.29,-2.55,0.75
2022-02-08 11:20:06.3460,1.978,1.469,-0.044,5.87,7.11,2.77,-2.64,-1.82,1.32
2022-02-08 11:20:06.3450,1.886,1.406,0.002,5.87,7.11,2.77,-2.99,-1.59,1.56
2022-02-08 11:20:06.3460,1.79,1.207,-0.001,5.87,7.11,2.77,-3.33,-2.3,1.65
2022-02-08 11:20:06.3450,1.714,0.937,0.163,5.87,7.11,2.77,-4.21,-3.08,1.8
2022-02-08 11:20:06.3460,1.713,0.566,1.276,5.87,7.11,2.77,-6.5,-1.88,2.36
2022-02-08 11:20:06.3480,1.482,0.376,2.1,5.87,7.11,2.77,-8.19,-1.04,2.67
2022-02-08 11:20:06.3500,0.998,0.595,1.139,5.87,7.11,2.77,-8.41,-2.21,2.79
Time,0.694,0.684,0.452,5.87,7.11,2.77,-7.62,-3.21,3.16
Time,0.455,0.701,0.521,5.87,7.11,2.77,-6.75,-2.99,3.43
2022-02-08 11:20:06.3520,0.216,0.978,0.379,5.87,7.11,2.77,-5.65,-2.05,3.25
2022-02-08 11:20:06.3520,-0.042,1.299,-0.12,5.87,7.11,2.77,-4.0,-0.52,2.45
2022-02-08 11:20:06.3550,-0.361,1.515,-0.554,5.87,7.11,2.77,-2.27,0.77,1.34
2022-02-08 11:20:06.3560,-0.438,1.393,-0.567,5.87,7.11,2.77,-1.18,0.79,0.35
2022-02-08 11:20:06.3580,-0.431,1.163,-0.314,5.87,7.11,2.77,-1.02,-0.53,-0.43
2022-02-08 11:20:06.3570,-0.352,0.975,-0.081,5.87,7.11,2.77,-1.44,-2.39,-0.84
2022-02-08 11:20:06.3590,-0.17,0.679,-0.095,5.87,7.11,2.77,-1.53,-3.4,-0.8
2022-02-08 11:20:06.3600,-0.018,0.364,-0.153,5.87,7.11,2.77,-1.18,-3.44,-0.65
2022-02-08 11:20:06.3620,-0.02,0.22,-0.079,5.87,7.11,2.77,-0.72,-3.1,-0.61
2022-02-08 11:20:06.3640,0.004,0.161,-0.048,5.87,7.11,2.77,-0.39,-2.6,-0.7
2022-02-08 11:20:06.3640,0.101,0.147,-0.052,5.87,7.11,2.77,-0.19,-1.76,-0.93
2022-02-08 11:20:06.3640,0.238,0.169,-0.087,5.87,7.11,2.77,-0.13,-0.49,-1.29
2022-02-08 11:20:06.3640,0.453,0.218,-0.132,5.87,7.11,2.77,-0.1,1.15,-1.6
2022-02-08 11:20:06.3670,0.735,0.317,-0.198,5.87,7.11,2.77,-0.07,2.78,-1.82
2022-02-08 11:20:06.3680,0.941,0.482,-0.198,5.87,7.11,2.77,0.03,4.17,-1.95
2022-02-08 11:20:06.3690,1.117,0.644,-0.27,5.87,7.11,2.77,0.26,5.14,-2.03
2022-02-08 11:20:06.3690,1.231,0.729,-0.343,5.87,7.11,2.77,0.56,5.77,-1.96
2022-02-08 11:20:06.3700,1.351,0.736,-0.366,5.87,7.11,2.77,0.95,5.86,-1.57
2022-02-08 11:20:06.3710,1.463,0.684,-0.425,5.87,7.11,2.77,1.4,5.31,-0.94
2022-02-08 11:20:06.3730,1.417,0.649,-0.448,5.87,7.11,2.77,1.81,4.23,-0.18
2022-02-08 11:20:06.3750,1.256,0.584,-0.439,5.87,7.11,2.77,2.17,2.93,0.61
2022-02-08 11:20:06.3760,1.016,0.441,-0.407,5.87,7.11,2.77,2.45,1.65,1.28
2022-02-08 11:20:06.3750,0.704,0.321,-0.333,5.87,7.11,2.77,2.7,0.25,1.67
2022-02-08 11:20:06.3740,0.391,0.154,-0.552,5.87,7.11,2.77,3.93,-6.73,1.56
Time,0.002,-0.097,-0.75,5.87,7.11,2.77,4.36,-11.75,1.45
2022-02-08 11:20:06.3810,0.419,0.388,-0.014,5.87,7.11,2.77,4.04,-15.87,1.63
2022-02-08 11:20:06.3800,1.241,0.871,0.182,5.87,7.11,2.77,3.1,-19.06,2.21
2022-02-08 11:20:06.3830,1.836,1.234,2.135,5.87,7.11,2.77,-3.2,-15.26,2.66
2022-02-08 11:20:06.3870,1.412,1.946,6.182,5.87,7.11,2.77,-7.77,-5.5,3.31
2022-02-08 11:20:06.3820,1.209,1.586,2.589,5.87,7.11,2.77,-7.77,1.59,3.93
2022-02-08 11:20:06.3820,1.59,1.926,0.115,5.87,7.11,2.77,-5.03,0.91,3.23
2022-02-08 11:20:06.3860,1.817,3.281,-0.911,5.87,7.11,2.77,-0.56,-0.8,1.17
2022-02-08 11:20:06.3860,1.392,2.777,-0.647,5.87,7.11,2.77,1.22,2.15,0.07
Time,0.926,1.607,0.455,5.87,7.11,2.77,1.52,4.24,-0.33
2022-02-08 11:20:06.3880,0.574,1.139,0.521,5.87,7.11,2.77,1.35,4.66,-0.51
2022-02-08 11:20:06.3890,0.508,1.044,0.144,5.87,7.11,2.77,0.83,3.9,-0.55
2022-02-08 11:20:06.3910,0.51,1.003,-0.078,5.87,7.11,2.77,-0.02,2.3,-0.52
2022-02-08 11:20:06.3900,0.468,0.952,-0.156,5.87,7.11,2.77,-0.98,0.56,-0.38
2022-02-08 11:20:06.3930,0.44,0.875,-0.098,5.87,7.11,2.77,-1.93,-0.97,-0.22
2022-02-08 11:20:06.3960,0.361,0.83,0.11,5.87,7.11,2.77,-2.94,-2.15,-0.06
2022-02-08 11:20:06.3960,0.266,0.804,0.441,5.87,7.11,2.77,-3.98,-2.71,0.2
2022-02-08 11:20:06.3950,0.253,0.768,0.708,5.87,7.11,2.77,-4.81,-2.64,0.56
2022-02-08 11:20:06.3980,0.306,0.783,0.681,5.87,7.11,2.77,-5.1,-2.26,0.92
2022-02-08 11:20:06.3990,0.365,0.818,0.333,5.87,7.11,2.77,-4.72,-1.76,1.09
2022-02-08 11:20:06.4040,0.38,0.792,-0.135,5.87,7.11,2.77,-4.0,-1.57,1.0
2022-02-08 11:20:06.4050,0.403,0.691,-0.388,5.87,7.11,2.77,-3.28,-1.39,0.76
2022-02-08 11:20:06.4040,0.449,0.498,-0.324,5.87,7.11,2.77,-2.65,-0.91,0.47
2022-02-08 11:20:06.4050,0.522,0.243,-0.179,5.87,7.11,2.77,-2.29,-0.55,0.19
2022-02-08 11:20:06.4170,0.582,0.037,-0.103,5.87,7.11,2.77,-2.13,-0.39,-0.05
2022-02-08 11:20:06.4100,0.625,-0.117,-0.114,5.87,7.11,2.77,-2.0,-0.3,-0.24
2022-02-08 11:20:06.4140,0.636,-0.205,-0.17,5.87,7.11,2.77,-1.72,-0.2,-0.36
2022-02-08 11:20:06.4140,0.641,-0.251,-0.216,5.87,7.11,2.77,-1.26,-0.08,-0.44
2022-02-08 11:20:06.4160,0.663,-0.303,-0.234,5.87,7.11,2.77,-0.68,0.08,-0.56
2022-02-08 11:20:06.4150,0.711,-0.326,-0.216,5.87,7.11,2.77,-0.08,0.15,-0.7
2022-02-08 11:20:06.4180,0.799,-0.264,-0.206,5.87,7.11,2.77,0.54,0.35,-0.8
2022-02-08 11:20:06.4190,0.941,-0.117,-0.207,5.87,7.11,2.77,1.13,0.92,-0.82
2022-02-08 11:20:06.4220,1.113,0.143,-0.214,5.87,7.11,2.77,1.59,1.45,-0.86
2022-02-08 11:20:06.4220,1.267,0.575,-0.268,5.87,7.11,2.77,1.93,1.49,-1.03
2022-02-08 11:20:06.4220,1.468,1.129,-0.397,5.87,7.11,2.77,2.35,1.14,-1.29
2022-02-08 11:20:06.4230,1.703,1.759,-0.534,5.87,7.11,2.77,2.86,0.92,-1.4
2022-02-08 11:20:06.4240,1.827,2.033,-0.513,5.87,7.11,2.77,3.43,1.06,-1.0
2022-02-08 11:20:06.4260,1.713,1.779,-0.414,5.87,7.11,2.77,3.96,1.35,-0.38
Time,1.243,1.318,-0.308,5.87,7.11,2.77,4.29,1.63,-0.03
2022-02-08 11:20:06.4280,0.82,0.962,-0.209,5.87,7.11,2.77,4.5,1.96,0.11
2022-02-08 11:20:06.4280,0.603,0.76,-0.159,5.87,7.11,2.77,4.66,2.32,0.2
2022-02-08 11:20:06.4280,0.475,0.637,-0.136,5.87,7.11,2.77,4.79,2.54,0.29
2022-02-08 11:20:06.4300,0.374,0.565,-0.133,5.87,7.11,2.77,4.9,2.54,0.37
2022-02-08 11:20:06.4330,0.282,0.521,-0.134,5.87,7.11,2.77,5.04,2.34,0.45
2022-02-08 11:20:06.4340,0.201,0.484,-0.147,5.87,7.11,2.77,5.27,1.89,0.56
2022-02-08 11:20:06.4340,0.128,0.439,-0.191,5.87,7.11,2.77,5.59,1.21,0.68
2022-02-08 11:20:06.4350,0.046,0.417,-0.197,5.87,7.11,2.77,5.75,0.45,0.7
2022-02-08 11:20:06.4370,-0.052,0.443,-0.219,5.87,7.11,2.77,5.67,-0.59,0.54
2022-02-08 11:20:06.4370,-0.178,0.532,-0.284,5.87,7.11,2.77,5.58,-1.39,0.11
Time,-0.593,0.757,0.748,5.87,7.11,2.77,4.68,2.77,-0.92
2022-02-08 11:20:06.4390,-1.212,1.015,2.367,5.87,7.11,2.77,4.13,3.75,-1.57
2022-02-08 11:20:06.4400,-0.681,1.023,0.766,5.87,7.11,2.77,3.55,1.4,-1.96
2022-02-08 11:20:06.4430,-0.236,1.062,0.364,5.87,7.11,2.77,2.17,-0.73,-2.23
2022-02-08 11:20:06.4410,0.137,0.931,0.782,5.87,7.11,2.77,0.22,-1.44,-2.32
2022-02-08 11:20:06.4470,0.423,0.835,0.795,5.0046634519100195,7.817403976321221,-0.7625935730338097,-1.14,-1.24,-2.79
2022-02-08 11:20:06.4450,0.52,1.096,0.231,5.0,7.81,-0.77,-1.19,-0.66,-3.53
2022-02-08 11:20:06.4460,0.977,1.616,-0.147,5.0,7.81,-0.77,-0.6,-0.94,-3.83
2022-02-08 11:20:06.4460,1.881,2.102,0.115,5.0,7.81,-0.77,-0.61,-1.45,-3.14
2022-02-08 11:20:06.4460,2.806,2.283,0.718,5.0,7.81,-0.77,-0.61,-1.45,-3.14
2022-02-08 11:20:06.4480,3.194,2.095,0.744,5.0,7.81,-0.77,-2.03,-0.47,0.58
2022-02-08 11:20:06.4490,2.801,1.704,0.344,5.0,7.81,-0.77,-2.72,0.34,1.64
2022-02-08 11:20:06.4510,2.117,1.32,0.124,5.0,7.81,-0.77,-3.27,0.64,1.92
Time,1.643,1.01,0.041,5.0,7.81,-0.77,-3.62,0.01,1.9
2022-02-08 11:20:06.4550,1.415,0.737,0.064,5.0,7.81,-0.77,-3.87,-1.16,1.92
2022-02-08 11:20:06.4520,1.3,0.469,0.339,5.0,7.81,-0.77,-4.51,-1.67,2.13
2022-02-08 11:20:06.4540,1.197,0.217,1.263,5.0,7.81,-0.77,-5.73,-0.33,2.49
2022-02-08 11:20:06.4560,1.037,0.178,1.589,5.0,7.81,-0.77,-6.2,0.62,2.71
2022-02-08 11:20:06.4570,0.882,0.36,0.663,5.0,7.81,-0.77,-5.72,0.54,2.78
2022-02-08 11:20:06.4590,0.749,0.475,0.073,5.0,7.81,-0.77,-4.88,0.49,2.76
2022-02-08 11:20:06.4590,0.587,0.562,-0.049,5.0,7.81,-0.77,-4.09,0.86,2.65
2022-02-08 11:20:06.4600,0.398,0.646,-0.019,5.0,7.81,-0.77,-3.4,1.44,2.44
2022-02-08 11:20:06.4610,0.18,0.73,-0.056,5.0,7.81,-0.77,-2.78,1.81,2.02
2022-02-08 11:20:06.4610,-0.101,0.852,-0.135,5.0,7.81,-0.77,-2.18,2.17,1.33
2022-02-08 11:20:06.4630,-0.334,0.952,-0.189,5.0,7.81,-0.77,-1.57,2.58,0.42
2022-02-08 11:20:06.4640,-0.532,1.042,-0.187,5.0,7.81,-0.77,-0.94,3.15,-0.69
2022-02-08 11:20:06.4700,-0.696,1.105,-0.126,5.0,7.81,-0.77,-0.39,3.68,-1.69
2022-02-08 11:20:06.4660,-0.594,1.026,-0.068,5.0,7.81,-0.77,0.02,4.14,-2.21
2022-02-08 11:20:06.4670,-0.373,0.886,-0.012,5.0,7.81,-0.77,0.27,4.4,-2.34
2022-02-08 11:20:06.4670,-0.199,0.85,0.074,5.0,7.81,-0.77,0.1,3.92,-2.21
2022-02-08 11:20:06.4700,0.085,0.9,0.169,5.0,7.81,-0.77,-0.36,2.72,-1.79
2022-02-08 11:20:06.4710,0.467,0.961,0.054,5.0,7.81,-0.77,-0.53,1.47,-1.2
Time,0.825,1.081,-0.202,5.0,7.81,-0.77,-0.45,0.61,-0.59
2022-02-08 11:20:06.4730,1.07,1.186,-0.352,5.0,7.81,-0.77,-0.38,0.04,-0.12
2022-02-08 11:20:06.4740,1.198,1.264,-0.422,5.0,7.81,-0.77,-0.39,-0.46,0.15
2022-02-08 11:20:06.4740,1.266,1.449,-0.466,5.0,7.81,-0.77,-0.55,-1.67,0.03
2022-02-08 11:20:06.4780,1.159,1.736,-0.605,5.0,7.81,-0.77,-0.59,-3.13,-0.31
2022-02-08 11:20:06.4760,1.084,1.709,-0.551,5.0,7.81,-0.77,-0.32,-3.76,-0.38
2022-02-08 11:20:06.4790,1.018,1.355,-0.36,5.0,7.81,-0.77,0.05,-3.56,-0.14
2022-02-08 11:20:06.4800,0.911,1.001,-0.209,5.0,7.81,-0.77,0.37,-2.95,0.25
2022-02-08 11:20:06.4800,0.795,0.731,-0.126,5.0,7.81,-0.77,0.62,-2.33,0.67
Time,0.662,0.559,-0.091,5.0,7.81,-0.77,0.82,-1.9,0.98
Time,0.547,0.485,-0.084,5.0,7.81,-0.77,1.01,-1.82,1.14
Time,0.48,0.504,-0.109,5.0,7.81,-0.77,1.01,-1.82,1.14
2022-02-08 11:20:06.4830,0.444,0.592,-0.15,5.0,7.81,-0.77,1.54,-3.21,0.98
2022-02-08 11:20:06.4860,0.428,0.677,-0.133,5.0,7.81,-0.77,1.75,-4.8,0.69
2022-02-08 11:20:06.4860,0.404,0.694,0.107,5.0,7.81,-0.77,1.45,-6.32,0.33
2022-02-08 11:20:06.4890,0.393,0.511,1.15,5.0,7.81,-0.77,-0.14,-5.73,0.22
2022-02-08 11:20:06.4880,0.387,0.192,2.154,5.0,7.81,-0.77,-1.92,-4.41,0.22
2022-02-08 11:20:06.4900,0.176,0.092,1.589,5.0,7.81,-0.77,-2.78,-3.62,-0.0
2022-02-08 11:20:06.4910,-0.06,0.103,0.692,5.0,7.81,-0.77,-2.52,-3.35,-0.46
2022-02-08 11:20:06.4920,-0.118,0.041,0.162,5.0,7.81,-0.77,-1.85,-3.02,-1.02
2022-02-08 11:20:06.4920,-0.028,0.051,-0.208,5.0,7.81,-0.77,-0.87,-1.67,-1.52
2022-02-08 11:20:06.4950,0.139,0.11,-0.492,5.0,7.81,-0.77,0.16,0.65,-1.87
2022-02-08 11:20:06.4950,0.3,0.11,-0.41,5.0,7.81,-0.77,0.83,2.88,-2.14
2022-02-08 11:20:06.4960,0.451,0.097,-0.2,5.0,7.81,-0.77,1.16,4.43,-2.35
2022-02-08 11:20:06.4980,0.86,0.18,-0.126,5.0,7.81,-0.77,1.16,0.64,-2.23
2022-02-08 11:20:06.4980,2.033,0.481,-0.125,5.0,7.81,-0.77,0.64,-7.27,-1.15
2022-02-08 11:20:06.4990,2.868,0.737,0.128,5.0,7.81,-0.77,0.31,-10.08,0.72
2022-02-08 11:20:06.5010,3.045,0.944,0.533,5.0,7.81,-0.77,0.19,-6.02,2.7
2022-02-08 11:20:06.5010,3.061,1.491,1.157,5.0,7.81,-0.77,-0.96,-0.46,3.17
2022-02-08 11:20:06.5010,2.214,2.098,1.018,5.0,7.81,-0.77,-0.96,-0.46,3.17
2022-02-08 11:20:06.5040,1.362,2.176,-0.054,5.0,7.81,-0.77,-2.48,-0.5,-0.64
2022-02-08 11:20:06.5030,1.506,1.934,-0.383,5.0,7.81,-0.77,-2.2,-0.8,-1.02
2022-02-08 11:20:06.5060,1.596,1.481,-0.353,5.0,7.81,-0.77,-1.7,-1.04,-0.78
2022-02-08 11:20:06.5070,1.453,0.992,-0.253,5.0,7.81,-0.77,-1.3,-1.25,-0.77
2022-02-08 11:20:06.5080,1.293,0.61,-0.108,5.0,7.81,-0.77,-0.95,-0.9,-1.02
2022-02-08 11:20:06.5080,1.263,0.337,-0.046,5.0,7.81,-0.77,-0.52,-0.13,-1.29
2022-02-08 11:20:06.5090,1.289,0.134,-0.051,5.0,7.81,-0.77,-0.09,0.45,-1.51
2022-02-08 11:20:06.5100,1.322,-0.02,-0.044,5.0,7.81,-0.77,0.29,0.93,-1.64
2022-02-08 11:20:06.5130,1.357,-0.14,-0.016,5.0,7.81,-0.77,0.7,1.63,-1.73
Time,1.383,-0.269,-0.019,5.0,7.81,-0.77,1.21,2.38,-1.71
2022-02-08 11:20:06.5140,1.4,-0.412,-0.031,5.0,7.81,-0.77,1.71,3.11,-1.44
2022-02-08 11:20:06.5150,1.361,-0.529,-0.033,5.0,7.81,-0.77,2.21,4.03,-0.97
2022-02-08 11:20:06.5150,1.236,-0.616,-0.073,5.0,7.81,-0.77,2.73,5.12,-0.51
2022-02-08 11:20:06.5160,1.056,-0.639,-0.133,5.0,7.81,-0.77,3.29,6.52,-0.2
2022-02-08 11:20:06.5200,0.905,-0.645,-0.222,5.0,7.81,-0.77,3.98,8.22,0.02
2022-02-08 11:20:06.5190,0.845,-0.705,-0.361,5.0,7.81,-0.77,4.76,9.92,0.29
2022-02-08 11:20:06.5210,0.858,-0.753,-0.448,5.0,7.81,-0.77,5.51,11.26,0.64
2022-02-08 11:20:06.5200,0.897,-0.784,-0.551,5.0,7.81,-0.77,5.96,11.74,1.11
2022-02-08 11:20:06.5220,0.957,-0.788,-0.733,5.0,7.81,-0.77,6.12,11.61,1.57
2022-02-08 11:20:06.5230,0.954,-0.733,-0.811,5.0,7.81,-0.77,6.27,11.38,1.94
2022-02-08 11:20:06.5270,0.926,-0.656,-0.84,5.0,7.81,-0.77,6.6,11.28,2.14
Time,0.967,-0.571,-0.945,5.0,7.81,-0.77,6.83,10.61,2.23
2022-02-08 11:20:06.5270,1.069,-0.345,-1.023,5.0,7.81,-0.77,6.67,9.5,2.02
2022-02-08 11:20:06.5270,1.242,-0.106,-1.077,5.0,7.81,-0.77,6.34,7.45,1.53
2022-02-08 11:20:06.5270,1.899,0.022,-1.676,5.0,7.81,-0.77,6.02,4.17,0.66
2022-02-08 11:20:06.5270,2.802,0.749,-2.96,5.0,7.81,-0.77,5.86,-1.35,-0.91
2022-02-08 11:20:06.5330,3.268,1.838,-4.017,5.0,7.81,-0.77,5.8,-4.78,-1.8
2022-02-08 11:20:06.5340,2.974,2.477,-3.398,5.0,7.81,-0.77,4.93,-5.02,-1.56
2022-02-08 11:20:06.5320,2.396,2.602,-2.232,5.0,7.81,-0.77,3.05,-2.68,0.21
2022-02-08 11:20:06.5340,1.902,2.511,-1.564,5.0,7.81,-0.77,1.39,-0.26,2.6
2022-02-08 11:20:06.5340,1.401,2.609,-1.673,5.0,7.81,-0.77,0.75,1.19,4.79
2022-02-08 11:20:06.5350,0.756,2.963,-2.161,5.0,7.81,-0.77,1.26,0.58,5.98
2022-02-08 11:20:06.5390,-0.271,3.508,-3.157,5.0,7.81,-0.77,3.07,-2.14,5.75
2022-02-08 11:20:06.5390,-1.398,4.058,-3.561,5.0,7.81,-0.77,5.16,-4.77,4.26
2022-02-08 11:20:06.5400,-2.258,4.457,-2.849,5.0,7.81,-0.77,6.6,-5.38,2.15
2022-02-08 11:20:06.5400,-2.613,4.468,-1.216,5.0,7.81,-0.77,7.58,2.32,0.24
2022-02-08 11:20:06.5410,-3.282,4.274,4.778,5.0,7.81,-0.77,8.69,26.31,-0.19
2022-02-08 11:20:06.5420,-2.436,3.365,4.853,5.0,7.81,-0.77,6.92,29.8,-0.89
2022-02-08 11:20:06.5450,-0.101,-0.468,-0.825,5.0,7.81,-0.77,-0.5,0.2,-0.73
2022-02-08 11:20:06.5450,-0.02,-0.593,-0.896,5.0,7.81,-0.77,-0.41,0.2,-0.58
2022-02-08 11:20:06.5460,0.051,-0.662,-0.925,5.0,7.81,-0.77,-0.28,0.32,-0.3
2022-02-08 11:20:06.5460,0.082,-0.64,-0.903,5.0,7.81,-0.77,-0.19,0.49,-0.02
2022-02-08 11:20:06.5470,0.066,-0.578,-0.898,5.0,7.81,-0.77,-0.17,0.55,0.16
2022-02-08 11:20:06.5470,0.032,-0.509,-0.906,5.0,7.81,-0.77,-0.17,0.55,0.16
Time,-0.001,-0.457,-0.909,5.0,7.81,-0.77,-0.19,0.28,0.21
2022-02-08 11:20:06.5520,-0.025,-0.44,-0.894,5.0,7.81,-0.77,-0.23,0.16,0.16
2022-02-08 11:20:06.5510,-0.048,-0.435,-0.865,5.0,7.81,-0.77,-0.3,0.13,0.06
2022-02-08 11:20:06.5530,-0.068,-0.436,-0.833,5.0,7.81,-0.77,-0.43,0.17,-0.03
2022-02-08 11:20:06.5530,-0.052,-0.452,-0.807,5.0,7.81,-0.77,-0.59,0.21,-0.1
2022-02-08 11:20:06.5530,-0.035,-0.459,-0.802,5.0,7.81,-0.77,-0.74,0.21,-0.13
2022-02-08 11:20:06.5590,-0.025,-0.449,-0.82,5.0,7.81,-0.77,-0.83,0.2,-0.15
2022-02-08 11:20:06.5590,-0.0,-0.444,-0.855,5.0,7.81,-0.77,-0.8,0.21,-0.14
2022-02-08 11:20:06.5590,0.031,-0.457,-0.909,5.0,7.81,-0.77,-0.7,0.23,-0.07
2022-02-08 11:20:06.5590,0.05,-0.482,-0.967,5.0,7.81,-0.77,-0.58,0.26,0.04
2022-02-08 11:20:06.5590,0.071,-0.489,-1.023,5.0,7.81,-0.77,-0.41,0.2,0.11
2022-02-08 11:20:06.5600,0.07,-0.468,-1.039,5.0,7.81,-0.77,-0.26,0.09,0.15
2022-02-08 11:20:06.5660,0.047,-0.439,-0.998,5.0,7.81,-0.77,-0.16,0.05,0.13
2022-02-08 11:20:06.5660,0.012,-0.412,-0.944,5.0,7.81,-0.77,-0.13,0.07,0.06
2022-02-08 11:20:06.5650,-0.019,-0.403,-0.912,5.0,7.81,-0.77,-0.15,0.08,-0.01
2022-02-08 11:20:06.5660,-0.031,-0.408,-0.902,5.0,7.81,-0.77,-0.17,0.09,-0.08
2022-02-08 11:20:06.5670,-0.044,-0.409,-0.9,5.0,7.81,-0.77,-0.15,0.09,-0.14
2022-02-08 11:20:06.5670,-0.051,-0.414,-0.901,5.0,7.81,-0.77,-0.13,0.17,-0.19
2022-02-08 11:20:06.5720,-0.03,-0.43,-0.867,5.0,7.81,-0.77,-0.16,0.28,-0.21
2022-02-08 11:20:06.5720,0.011,-0.45,-0.852,5.0,7.81,-0.77,-0.26,0.31,-0.18
2022-02-08 11:20:06.5720,0.061,-0.472,-0.879,5.0,7.81,-0.77,-0.26,0.31,-0.18
2022-02-08 11:20:06.5730,0.085,-0.47,-0.938,5.0,7.81,-0.77,-0.34,0.18,-0.07
2022-02-08 11:20:06.5740,0.091,-0.443,-1.003,5.0,7.81,-0.77,-0.27,0.03,-0.05
2022-02-08 11:20:06.5740,0.078,-0.415,-1.025,5.0,7.81,-0.77,-0.18,-0.1,-0.07
2022-02-08 11:20:06.5780,0.053,-0.392,-1.018,5.0,7.81,-0.77,-0.08,-0.17,-0.12
2022-02-08 11:20:06.5780,0.041,-0.388,-0.994,5.0,7.81,-0.77,0.0,-0.15,-0.16
2022-02-08 11:20:06.5790,0.056,-0.405,-0.955,5.0,7.81,-0.77,0.09,-0.07,-0.15
2022-02-08 11:20:06.5800,0.087,-0.418,-0.933,5.0,7.81,-0.77,0.15,0.05,-0.11
Time,0.108,-0.412,-0.924,5.0,7.81,-0.77,0.19,0.14,-0.05
2022-02-08 11:20:06.5800,0.109,-0.406,-0.929,5.0,7.81,-0.77,0.23,0.2,0.0
2022-02-08 11:20:06.5850,0.103,-0.407,-0.937,5.0,7.81,-0.77,0.28,0.21,0.04
2022-02-08 11:20:06.5840,0.095,-0.402,-0.933,5.0,7.81,-0.77,0.29,0.17,0.06
2022-02-08 11:20:06.5860,0.108,-0.402,-0.903,5.0,7.81,-0.77,0.22,0.08,0.07
Time,0.114,-0.402,-0.872,5.0,7.81,-0.77,0.11,-0.02,0.05
Time,0.094,-0.394,-0.862,5.0,7.81,-0.77,0.04,-0.08,0.03
2022-02-08 11:20:06.5870,0.071,-0.387,-0.867,5.0,7.81,-0.77,0.0,-0.09,0.0
2022-02-08 11:20:06.5900,0.043,-0.375,-0.871,5.0,7.81,-0.77,-0.0,-0.07,-0.03
2022-02-08 11:20:06.5910,0.031,-0.376,-0.881,5.0,7.81,-0.77,0.02,-0.08,-0.07
2022-02-08 11:20:06.5920,0.044,-0.394,-0.888,5.0,7.81,-0.77,0.02,-0.09,-0.08
2022-02-08 11:20:06.5930,0.079,-0.415,-0.872,5.0,7.81,-0.77,0.02,-0.1,-0.07
2022-02-08 11:20:06.5930,0.098,-0.428,-0.861,5.0,7.81,-0.77,0.02,-0.12,-0.03
2022-02-08 11:20:06.5980,0.105,-0.439,-0.864,5.0,7.81,-0.77,0.02,-0.13,0.01
2022-02-08 11:20:06.5960,0.096,-0.443,-0.864,5.0,7.81,-0.77,0.02,-0.13,0.04
2022-02-08 11:20:06.5990,0.066,-0.429,-0.857,5.0,7.81,-0.77,-0.0,-0.08,0.05
2022-02-08 11:20:06.5980,0.036,-0.412,-0.858,5.0,7.81,-0.77,-0.02,-0.02,0.03
2022-02-08 11:20:06.5990,0.021,-0.4,-0.876,5.0,7.81,-0.77,-0.02,-0.01,-0.0
2022-02-08 11:20:06.5990,0.025,-0.397,-0.882,5.0,7.81,-0.77,-0.04,-0.04,-0.04
2022-02-08 11:20:06.6100,0.035,-0.405,-0.865,5.0,7.81,-0.77,-0.05,-0.04,-0.07
2022-02-08 11:20:06.6200,0.05,-0.416,-0.852,5.0,7.81,-0.77,-0.07,0.0,-0.06
2022-02-08 11:20:06.6300,0.073,-0.428,-0.833,2.11,9.85,-21.79,-0.1,0.08,-0.01
2022-02-08 11:20:06.6400,0.088,-0.441,-0.83,2.11,9.85,-21.79,-0.13,0.14,0.05
2022-02-08 11:20:06.6520,0.091,-0.446,-0.852,2.11,9.85,-21.79,-0.12,0.24,0.1
Time,0.068,-0.425,-0.863,2.11,9.85,-21.79,0.11,0.42,0.18
2022-02-08 11:20:06.6710,0.074,-0.442,-0.92,2.11,9.85,-21.79,0.15,0.37,0.16
2022-02-08 11:20:06.6810,0.052,-0.385,-0.99,2.11,9.85,-21.79,0.12,0.08,0.06
Time,0.034,-0.383,-1.026,2.11,9.85,-21.79,0.01,-0.29,-0.04
2022-02-08 11:20:06.7000,0.041,-0.382,-1.001,-0.92,2.61,29.1,-0.1,-0.58,-0.15
2022-02-08 11:20:06.7110,0.026,-0.369,-0.963,9.54,-0.04,7.26,-0.14,-0.69,-0.21
2022-02-08 11:20:06.7210,0.016,-0.404,-0.919,-22.54,-5.21,-13.4,-0.14,-0.65,-0.23
