time,gFx,gFy,gFz,ax,ay,az,wx,wy,wz
2022-02-08 11:22:33.4600,0.012,-0.153,-0.944,-0.03,-0.59,-0.04,-0.11,-0.23,1.02
2022-02-08 11:22:33.4730,0.016,-0.173,-0.919,0.1,-0.87,-0.15,-0.08,-0.14,1.03
2022-02-08 11:22:33.4800,0.003,-0.164,-0.904,-0.03,-0.63,-0.42,-0.03,-0.03,1.04
2022-02-08 11:22:33.4900,0.001,-0.15,-0.906,0.03,-0.57,-0.63,0.03,0.1,1.06
2022-02-08 11:22:33.5000,-0.014,-0.17,-0.895,0.09,-0.75,-0.7,0.06,0.22,1.05
2022-02-08 11:22:33.5100,0.008,-0.192,-0.876,0.15,-0.73,-0.67,0.08,0.39,1.11
2022-02-08 11:22:33.5200,0.043,-0.21,-0.863,0.23,-0.5,-0.87,0.05,0.5,1.19
2022-02-08 11:22:33.5300,0.042,-0.22,-0.893,-0.16,-0.29,-1.05,0.01,0.53,1.27
2022-02-08 11:22:33.5400,0.059,-0.208,-0.931,-0.25,-0.17,-0.98,0.01,0.53,1.33
2022-02-08 11:22:33.5500,0.055,-0.171,-0.948,-0.3,-0.13,-0.57,0.02,0.52,1.35
2022-02-08 11:22:33.5610,0.026,-0.153,-0.973,-0.42,-0.44,-0.31,0.04,0.51,1.31
2022-02-08 11:22:33.5710,0.004,-0.161,-0.978,-0.18,-0.75,-0.14,0.07,0.51,1.26
2022-02-08 11:22:33.5810,0.004,-0.174,-0.958,0.1,-0.78,0.1,0.08,0.5,1.2
2022-02-08 11:22:33.5910,0.014,-0.199,-0.924,0.25,-0.7,-0.03,0.05,0.52,1.17
2022-02-08 11:22:33.6010,0.018,-0.225,-0.909,0.19,-0.5,-0.28,0.0,0.49,1.15
2022-02-08 11:22:33.6110,0.013,-0.239,-0.901,0.12,-0.25,-0.59,-0.07,0.4,1.16
2022-02-08 11:22:33.6210,0.01,-0.243,-0.875,0.15,-0.03,-0.61,-0.17,0.36,1.16
2022-02-08 11:22:33.6310,0.034,-0.253,-0.883,0.22,0.04,-0.85,-0.25,0.38,1.17
2022-02-08 11:22:33.6410,0.069,-0.243,-0.928,0.16,0.15,-0.97,-0.29,0.38,1.21
2022-02-08 11:22:33.6510,0.069,-0.227,-0.968,-0.2,0.2,-0.69,-0.3,0.32,1.24
2022-02-08 11:22:33.6610,0.043,-0.207,-0.989,-0.39,0.06,-0.23,-0.29,0.24,1.24
2022-02-08 11:22:33.6710,0.0,-0.175,-1.01,-0.25,-0.08,0.05,-0.24,0.15,1.19
2022-02-08 11:22:33.6820,-0.035,-0.154,-1.029,0.1,-0.32,0.23,-0.12,0.09,1.1
2022-02-08 11:22:33.6920,-0.033,-0.179,-1.011,0.49,-0.62,0.46,0.03,0.06,1.01
2022-02-08 11:22:33.7020,0.015,-0.257,-0.909,0.68,-0.64,0.52,0.1,0.1,1.02
2022-02-08 11:22:33.7120,-0.011,-0.238,-0.819,0.39,-0.13,-0.03,0.11,0.14,1.02
2022-02-08 11:22:33.7220,-0.017,-0.194,-0.766,0.09,0.39,-1.16,0.09,0.25,0.98
2022-02-08 11:22:33.7320,0.057,-0.232,-0.706,0.58,-0.25,-1.79,0.02,0.36,0.99
2022-02-08 11:22:33.7420,0.084,-0.253,-0.669,0.04,-0.19,-2.3,-0.08,0.4,1.04
2022-02-08 11:22:33.7520,0.114,-0.257,-0.725,-0.42,0.18,-2.9,-0.09,0.4,1.1
2022-02-08 11:22:33.7620,0.135,-0.238,-0.75,-0.66,0.28,-2.81,-0.02,0.5,1.15
2022-02-08 11:22:33.7720,0.186,-0.218,-0.76,-0.89,0.2,-2.17,0.12,0.55,1.16
2022-02-08 11:22:33.7820,0.227,-0.192,-0.883,-1.15,-0.04,-2.28,0.27,0.27,1.17
2022-02-08 11:22:33.7920,0.228,-0.203,-0.935,-1.79,-0.25,-1.51,0.4,-0.18,1.2
2022-02-08 11:22:33.8020,0.253,-0.261,-0.957,-1.84,-0.57,-0.42,0.59,-0.89,1.29
2022-02-08 11:22:33.8120,0.2,-0.174,-0.907,-2.39,0.02,-0.37,0.72,-1.7,1.31
2022-02-08 11:22:33.8220,0.236,-0.112,-0.656,-2.23,-0.25,-0.02,0.72,-2.29,1.24
2022-02-08 11:22:33.8330,0.257,-0.077,-0.397,-2.37,-1.22,-1.72,0.6,-2.51,1.13
2022-02-08 11:22:33.8430,0.172,-0.099,-0.22,-3.13,-1.66,-4.33,0.38,-2.35,1.02
2022-02-08 11:22:33.8530,0.137,-0.15,-0.16,-3.0,-1.88,-6.55,0.05,-1.94,1.02
2022-02-08 11:22:33.8630,0.129,-0.115,-0.152,-2.41,-1.29,-7.68,-0.42,-1.31,1.05
2022-02-08 11:22:33.8730,0.138,-0.088,-0.201,-2.49,-1.14,-7.89,-1.14,-0.64,1.09
2022-02-08 11:22:33.8830,0.179,-0.274,-0.252,-2.46,-1.54,-7.85,-1.95,0.35,1.4
2022-02-08 11:22:33.8930,0.212,-0.334,-0.53,-2.76,-0.66,-7.21,-2.33,1.26,1.97
2022-02-08 11:22:33.9030,-0.067,-0.028,-0.998,-3.18,1.65,-6.26,-2.13,2.16,2.08
2022-02-08 11:22:33.9130,-0.146,0.147,-1.304,-1.93,0.16,-2.02,-1.66,2.84,1.98
2022-02-08 11:22:33.9230,-0.104,0.245,-1.431,0.78,-3.32,3.79,-1.17,3.41,1.73
2022-02-08 11:22:33.9330,-0.128,0.252,-1.603,1.1,-4.08,5.14,-0.68,3.59,1.48
2022-02-08 11:22:33.9430,-0.011,0.135,-1.683,1.1,-4.08,5.14,-0.24,3.46,1.48
2022-02-08 11:22:33.9530,0.184,-0.018,-1.784,1.28,-3.28,6.51,0.29,3.07,1.75
2022-02-08 11:22:33.9640,0.18,-0.111,-1.709,-0.48,-2.06,7.26,0.63,2.58,2.06
2022-02-08 11:22:33.9740,0.094,-0.11,-1.397,-1.2,-0.64,7.9,0.73,2.45,2.15
2022-02-08 11:22:33.9840,0.052,-0.169,-1.137,-0.4,-0.53,5.65,0.43,2.35,2.15
2022-02-08 11:22:33.9940,0.111,-0.226,-0.99,0.59,-0.32,2.72,-0.17,2.1,2.17
2022-02-08 11:22:34.0040,0.145,-0.219,-1.001,0.58,0.37,0.65,-0.81,1.67,2.17
2022-02-08 11:22:34.0140,0.139,-0.118,-1.155,0.09,0.73,0.01,-1.41,0.94,2.04
2022-02-08 11:22:34.0240,0.112,-0.104,-1.213,0.08,0.23,0.87,-1.54,0.5,2.01
2022-02-08 11:22:34.0340,0.096,-0.057,-1.231,0.24,-0.32,2.2,-1.38,0.33,1.92
2022-02-08 11:22:34.0440,0.076,-0.023,-1.183,0.5,-0.42,2.38,-1.09,0.41,1.79
2022-02-08 11:22:34.0540,0.057,0.007,-1.102,0.69,-0.78,2.32,-0.81,0.66,1.61
2022-02-08 11:22:34.0640,0.019,0.017,-1.045,0.89,-1.06,1.56,-0.56,0.97,1.37
2022-02-08 11:22:34.0750,0.047,0.009,-1.0,1.35,-1.23,0.91,-0.27,1.4,1.13
2022-02-08 11:22:34.0850,0.116,-0.035,-0.981,1.56,-1.26,0.42,-0.02,1.88,1.0
2022-02-08 11:22:34.0950,0.186,-0.055,-1.038,1.22,-1.01,0.12,0.15,2.22,0.95
2022-02-08 11:22:34.1050,0.226,-0.027,-1.157,0.68,-0.64,0.3,0.32,2.32,0.88
2022-02-08 11:22:34.1150,0.248,0.017,-1.278,0.35,-0.77,1.3,0.49,2.1,0.75
2022-02-08 11:22:34.1250,0.291,0.038,-1.32,0.24,-1.23,2.59,0.62,1.7,0.61
2022-02-08 11:22:34.1350,0.341,0.04,-1.263,0.14,-1.66,3.57,0.78,1.46,0.47
2022-02-08 11:22:34.1450,0.35,0.003,-1.239,-0.29,-1.85,3.43,0.98,1.21,0.37
2022-02-08 11:22:34.1550,0.283,-0.015,-1.275,-0.47,-1.82,2.97,1.0,0.63,0.19
2022-02-08 11:22:34.1650,0.295,-0.132,-1.162,-0.23,-1.54,3.13,0.83,0.17,0.09
2022-02-08 11:22:34.1750,0.339,-0.185,-0.969,0.4,-1.1,3.01,0.65,0.06,0.09
2022-02-08 11:22:34.1850,0.272,-0.202,-0.88,-0.27,-0.06,1.23,0.51,0.11,0.09
2022-02-08 11:22:34.1950,0.256,-0.23,-0.864,0.0,0.03,-0.25,0.52,0.32,0.06
2022-02-08 11:22:34.2060,0.244,-0.214,-0.878,0.54,0.28,-0.62,0.7,0.64,0.01
2022-02-08 11:22:34.2160,0.221,-0.185,-0.909,0.62,0.29,-0.58,0.98,0.9,-0.08
2022-02-08 11:22:34.2260,0.262,-0.214,-0.939,0.98,-0.13,-0.31,1.17,0.92,-0.15
2022-02-08 11:22:34.2360,0.321,-0.267,-0.895,1.0,-0.25,0.12,1.13,0.71,-0.19
2022-02-08 11:22:34.2460,0.345,-0.291,-0.783,0.47,0.14,0.15,0.88,0.44,-0.23
2022-02-08 11:22:34.2560,0.335,-0.292,-0.689,0.08,0.5,-0.64,0.53,0.22,-0.28
2022-02-08 11:22:34.2660,0.325,-0.304,-0.666,0.05,0.54,-1.78,0.16,0.0,-0.33
2022-02-08 11:22:34.2760,0.324,-0.308,-0.656,0.21,0.6,-2.31,-0.18,-0.12,-0.37
2022-02-08 11:22:34.2860,0.322,-0.302,-0.664,0.23,0.75,-2.43,-0.39,-0.14,-0.37
2022-02-08 11:22:34.2960,0.349,-0.317,-0.689,0.27,0.75,-2.49,-0.49,-0.04,-0.31
2022-02-08 11:22:34.3060,0.376,-0.338,-0.722,0.17,0.83,-2.3,-0.52,0.16,-0.21
2022-02-08 11:22:34.3160,0.394,-0.337,-0.795,-0.14,1.11,-2.05,-0.5,0.31,-0.09
2022-02-08 11:22:34.3260,0.398,-0.298,-0.898,-0.3,1.28,-1.56,-0.46,0.34,-0.01
2022-02-08 11:22:34.3360,0.351,-0.246,-0.965,-0.42,1.12,-0.64,-0.44,0.33,-0.05
2022-02-08 11:22:34.3470,0.296,-0.242,-0.992,-0.2,0.65,0.29,-0.49,0.29,-0.16
2022-02-08 11:22:34.3570,0.294,-0.273,-1.048,0.43,0.37,0.67,-0.58,0.25,-0.27
2022-02-08 11:22:34.3670,0.342,-0.289,-1.172,0.78,0.64,0.98,-0.64,0.12,-0.34
2022-02-08 11:22:34.3770,0.419,-0.286,-1.273,0.53,0.99,1.9,-0.58,0.03,-0.33
2022-02-08 11:22:34.3870,0.496,-0.32,-1.326,-0.1,1.06,3.1,-0.36,0.06,-0.17
2022-02-08 11:22:34.3970,0.512,-0.352,-1.336,-0.9,1.2,3.84,-0.08,0.1,0.02
2022-02-08 11:22:34.4070,0.456,-0.327,-1.286,-1.41,1.65,4.16,0.12,0.14,0.11
2022-02-08 11:22:34.4170,0.394,-0.32,-1.21,-1.17,1.64,3.98,0.17,0.1,0.13
2022-02-08 11:22:34.4270,0.388,-0.354,-1.167,-0.47,1.34,3.29,0.05,-0.06,0.13
2022-02-08 11:22:34.4370,0.416,-0.355,-1.148,-0.34,1.78,2.4,-0.11,-0.31,0.15
2022-02-08 11:22:34.4480,0.426,-0.335,-1.111,-0.34,1.78,2.4,-0.24,-0.53,0.19
2022-02-08 11:22:34.4630,0.407,-0.319,-1.063,-0.63,1.5,1.66,-0.29,-0.68,0.23
2022-02-08 11:22:34.4670,0.379,-0.302,-0.935,-0.4448397946357727,1.3421923926472665,1.0986713558435441,-0.31,-0.76,0.26
2022-02-08 11:22:34.4670,0.318,-0.264,-0.846,-0.45,1.34,1.09,-0.31,-0.76,0.26
2022-02-08 11:22:34.4670,0.292,-0.248,-0.77,-0.45,1.34,1.09,-0.31,-0.76,0.26
2022-02-08 11:22:34.4670,0.275,-0.247,-0.723,-0.45,1.34,1.09,-0.31,-0.76,0.26
2022-02-08 11:22:34.4670,0.267,-0.241,-0.694,-0.45,1.34,1.09,-0.31,-0.76,0.26
2022-02-08 11:22:34.4670,0.275,-0.247,-0.694,-0.45,1.34,1.09,-0.31,-0.76,0.26
2022-02-08 11:22:34.5320,0.258,-0.202,-0.677,-0.45,1.34,1.09,-0.12,0.15,0.06
Time,0.245,-0.154,-0.639,-0.45,1.34,1.09,-0.04,0.35,-0.02
2022-02-08 11:22:34.5480,0.225,-0.116,-0.587,-0.45,1.34,1.09,0.02,0.51,-0.15
2022-02-08 11:22:34.5590,0.214,-0.088,-0.535,-0.27,1.22,0.45,0.03,0.63,-0.28
2022-02-08 11:22:34.5720,0.206,-0.066,-0.484,0.59,0.64,-2.42,-0.03,0.69,-0.41
2022-02-08 11:22:34.5780,0.197,-0.033,-0.414,1.34,-0.77,-4.06,-0.19,0.71,-0.56
2022-02-08 11:22:34.5880,0.193,0.004,-0.352,1.49,-0.98,-4.65,-0.42,0.72,-0.71
2022-02-08 11:22:34.5990,0.201,0.035,-0.307,1.65,-1.28,-5.3,-0.66,0.78,-0.84
2022-02-08 11:22:34.6080,0.208,0.062,-0.277,1.71,-1.52,-5.81,-0.87,0.89,-0.95
2022-02-08 11:22:34.6190,0.208,0.107,-0.236,1.73,-1.67,-6.14,-1.02,1.14,-1.05
2022-02-08 11:22:34.6290,0.183,0.151,-0.207,1.78,-1.87,-6.42,-1.07,1.57,-1.18
2022-02-08 11:22:34.6440,0.197,0.171,-0.26,2.45,-2.35,-6.65,-1.06,2.01,-1.31
2022-02-08 11:22:34.6500,0.267,0.221,-0.384,2.45,-2.35,-6.65,-0.95,2.35,-1.42
2022-02-08 11:22:34.6500,0.315,0.275,-0.507,2.45,-2.35,-6.65,-0.83,2.52,-1.55
2022-02-08 11:22:34.6690,0.375,0.254,-0.635,2.45,-2.35,-6.65,-0.86,2.37,-1.65
2022-02-08 11:22:34.6790,0.461,0.24,-0.826,2.45,-2.35,-6.65,-1.07,1.63,-1.71
2022-02-08 11:22:34.6890,0.472,0.307,-0.883,2.45,-2.35,-6.65,-1.48,0.75,-1.91
2022-02-08 11:22:34.6990,0.432,0.305,-0.87,2.45,-2.35,-6.65,-1.99,0.11,-2.18
2022-02-08 11:22:34.7090,0.451,0.259,-0.96,2.45,-2.35,-6.65,-2.29,-0.13,-2.42
2022-02-08 11:22:34.7200,0.55,0.223,-1.152,2.45,-2.35,-6.65,-2.19,-0.02,-2.54
2022-02-08 11:22:34.7300,0.704,0.252,-1.357,2.45,-2.35,-6.65,-1.77,0.26,-2.54
2022-02-08 11:22:34.7400,0.863,0.318,-1.654,2.45,-2.35,-6.65,-1.27,0.2,-2.4
2022-02-08 11:22:34.7500,0.897,0.419,-1.885,2.45,-2.35,-6.65,-0.77,-0.25,-2.3
2022-02-08 11:22:34.7600,0.809,0.434,-1.836,2.45,-2.35,-6.65,-0.48,-0.74,-2.26
2022-02-08 11:22:34.7700,0.712,0.349,-1.61,2.45,-2.35,-6.65,-0.57,-1.07,-2.25
2022-02-08 11:22:34.7800,0.664,0.258,-1.411,2.45,-2.35,-6.65,-0.58,-0.94,-2.1
2022-02-08 11:22:34.7900,0.634,0.222,-1.26,2.45,-2.35,-6.65,-0.49,-0.52,-1.85
Time,0.645,0.209,-1.135,3.99,-6.41,-6.76,5.43,2.62,1.2
Time,0.603,0.225,-1.076,3.99,-6.41,-6.76,5.43,2.62,1.2
Time,0.475,0.321,-1.063,3.99,-6.41,-6.76,5.43,2.62,1.2
Time,0.351,0.48,-0.962,3.99,-6.41,-6.76,5.43,2.62,1.2
Time,0.262,0.642,-0.751,3.99,-6.41,-6.76,5.43,2.62,1.2
Time,0.179,0.797,-0.506,3.99,-6.41,-6.76,5.43,2.62,1.2
Time,0.106,0.91,-0.269,3.99,-6.41,-6.76,5.43,2.62,1.2
Time,0.089,0.961,-0.049,3.99,-6.41,-6.76,5.43,2.62,1.2
Time,0.14,0.962,0.087,3.99,-6.41,-6.76,5.43,2.62,1.2
Time,0.258,0.961,0.111,3.99,-6.41,-6.76,5.43,2.62,1.2
Time,0.411,0.976,0.07,3.99,-6.41,-6.76,5.43,2.62,1.2
Time,0.574,0.989,0.034,3.99,-6.41,-6.76,5.43,2.62,1.2
Time,0.707,1.026,-0.011,3.99,-6.41,-6.76,5.43,2.62,1.2
Time,0.834,1.06,-0.063,3.99,-6.41,-6.76,5.43,2.62,1.2
Time,0.99,1.064,-0.131,3.99,-6.41,-6.76,5.43,2.62,1.2
Time,1.151,1.066,-0.223,3.99,-6.41,-6.76,5.43,2.62,1.2
Time,1.327,1.08,-0.302,3.99,-6.41,-6.76,5.43,2.62,1.2
Time,1.499,1.097,-0.336,3.99,-6.41,-6.76,5.43,2.62,1.2
Time,1.678,1.036,-0.358,3.99,-6.41,-6.76,5.43,2.62,1.2
2022-02-08 11:22:35.3060,1.808,0.911,-0.376,3.99,-6.41,-6.76,5.43,2.62,1.2
2022-02-08 11:22:35.3060,1.874,0.822,-0.391,3.99,-6.41,-6.76,5.43,2.62,1.2
2022-02-08 11:22:35.3060,1.901,0.76,-0.317,3.99,-6.41,-6.76,5.43,2.62,1.2
2022-02-08 11:22:35.3060,1.853,0.683,-0.086,3.99,-6.41,-6.76,5.43,2.62,1.2
2022-02-08 11:22:35.3060,1.695,0.611,0.239,3.99,-6.41,-6.76,5.43,2.62,1.2
2022-02-08 11:22:35.3060,1.52,0.486,0.476,3.99,-6.41,-6.76,5.43,2.62,1.2
2022-02-08 11:22:35.3060,1.436,0.367,0.783,3.99,-6.41,-6.76,5.43,2.62,1.2
2022-02-08 11:22:35.3060,1.331,0.418,1.015,3.99,-6.41,-6.76,5.43,2.62,1.2
2022-02-08 11:22:35.3060,1.283,0.521,0.719,3.99,-6.41,-6.76,5.43,2.62,1.2
2022-02-08 11:22:35.3060,1.336,0.644,0.248,3.99,-6.41,-6.76,5.43,2.62,1.2
2022-02-08 11:22:35.3060,1.191,0.826,-0.598,3.99,-6.41,-6.76,5.43,2.62,1.2
2022-02-08 11:22:35.3060,1.236,0.862,-0.985,3.99,-6.41,-6.76,5.43,2.62,1.2
2022-02-08 11:22:35.3060,1.32,0.887,-1.122,3.99,-6.41,-6.76,5.43,2.62,1.2
2022-02-08 11:22:35.3060,1.134,1.059,-1.102,3.99,-6.41,-6.76,5.43,2.62,1.2
2022-02-08 11:22:35.3060,1.077,1.258,-0.929,3.99,-6.41,-6.76,5.43,2.62,1.2
2022-02-08 11:22:35.3060,1.053,1.39,-0.842,3.99,-6.41,-6.76,5.43,2.62,1.2
2022-02-08 11:22:35.3060,1.033,1.354,-0.726,3.99,-6.41,-6.76,5.43,2.62,1.2
2022-02-08 11:22:35.3060,1.104,1.199,-0.626,3.99,-6.41,-6.76,5.43,2.62,1.2
2022-02-08 11:22:35.3060,1.062,1.044,-0.491,3.99,-6.41,-6.76,5.43,2.62,1.2
2022-02-08 11:22:35.3060,1.061,0.713,-0.525,3.99,-6.41,-6.76,5.43,2.62,1.2
2022-02-08 11:22:35.3060,1.149,0.425,-0.423,3.99,-6.41,-6.76,5.43,2.62,1.2
2022-02-08 11:22:35.3060,1.228,0.236,-0.216,3.99,-6.41,-6.76,5.43,2.62,1.2
2022-02-08 11:22:35.3060,1.187,0.124,0.19,3.99,-6.41,-6.76,5.43,2.62,1.2
2022-02-08 11:22:35.3060,1.054,-0.19,0.314,3.99,-6.41,-6.76,5.43,2.62,1.2
2022-02-08 11:22:35.3060,0.913,-0.489,0.382,3.99,-6.41,-6.76,4.72,3.24,1.63
2022-02-08 11:22:35.3160,0.661,-0.561,0.85,3.99,-6.41,-6.76,3.33,3.5,1.83
2022-02-08 11:22:35.3200,0.362,-0.458,1.319,3.99,-6.41,-6.76,1.53,4.13,1.74
2022-02-08 11:22:35.3210,0.585,-0.381,0.804,3.99,-6.41,-6.76,0.71,5.12,1.95
2022-02-08 11:22:35.3280,0.523,-0.106,0.437,3.99,-6.41,-6.76,0.5,5.78,1.98
2022-02-08 11:22:35.3340,0.588,0.18,0.137,3.99,-6.41,-6.76,0.69,6.38,2.02
2022-02-08 11:22:35.3390,0.73,0.276,-0.109,3.99,-6.41,-6.76,1.04,6.9,2.16
2022-02-08 11:22:35.3410,0.719,0.238,-0.341,3.99,-6.41,-6.76,1.47,7.24,2.34
2022-02-08 11:22:35.3420,0.584,0.19,-0.389,3.99,-6.41,-6.76,1.81,7.43,2.48
2022-02-08 11:22:35.3480,0.584,0.147,-0.169,3.99,-6.41,-6.76,1.84,7.55,2.63
2022-02-08 11:22:35.3530,0.743,-0.007,0.053,3.99,-6.41,-6.76,1.51,7.71,2.9
2022-02-08 11:22:35.3600,0.955,-0.112,0.206,3.99,-6.41,-6.76,0.66,7.44,3.23
2022-02-08 11:22:35.3610,1.273,-0.318,-0.197,3.99,-6.41,-6.76,-0.08,6.34,3.71
Time,1.244,-0.402,-0.753,3.99,-6.41,-6.76,-0.55,4.67,3.92
Time,0.682,-0.146,-1.151,3.99,-6.41,-6.76,-0.57,2.71,3.5
2022-02-08 11:22:35.3710,0.365,0.143,-1.185,3.99,-6.41,-6.76,-0.48,1.31,3.03
2022-02-08 11:22:35.3830,0.852,-0.2,-0.724,3.99,-6.41,-6.76,-0.74,0.13,3.31
2022-02-08 11:22:35.3950,0.715,-0.024,-0.961,3.99,-6.41,-6.76,-0.28,-0.72,3.36
2022-02-08 11:22:35.4120,0.683,0.113,-0.816,3.99,-6.41,-6.76,0.53,-0.88,3.38
2022-02-08 11:22:35.4180,0.643,0.218,-0.485,3.99,-6.41,-6.76,1.19,-0.68,3.29
2022-02-08 11:22:35.4320,0.323,0.606,-0.366,3.99,-6.41,-6.76,1.68,-0.21,2.68
Time,0.217,0.773,-0.306,3.99,-6.41,-6.76,1.92,-0.38,1.77
2022-02-08 11:22:35.4500,0.208,0.738,-0.367,3.99,-6.41,-6.76,2.06,-1.19,0.77
2022-02-08 11:22:35.4620,0.321,1.033,-0.196,3.99,-6.41,-6.76,1.96,-1.88,-0.1
2022-02-08 11:22:35.4670,0.485,1.479,0.28,3.99,-6.41,-6.76,1.5,-2.33,-1.01
2022-02-08 11:22:35.4820,0.636,1.505,0.653,3.99,-6.41,-6.76,1.0,-2.06,-1.98
2022-02-08 11:22:35.4940,0.552,1.149,0.834,3.99,-6.41,-6.76,0.46,-0.97,-2.89
2022-02-08 11:22:35.5010,0.517,0.803,0.41,3.99,-6.41,-6.76,0.1,-1.06,-3.63
2022-02-08 11:22:35.5140,0.629,0.879,0.328,3.99,-6.41,-6.76,-0.7,-1.54,-4.37
2022-02-08 11:22:35.5190,0.648,1.047,0.251,3.99,-6.41,-6.76,-1.38,-0.83,-5.23
2022-02-08 11:22:35.5320,0.34,0.908,-0.063,3.99,-6.41,-6.76,-1.58,0.37,-6.97
2022-02-08 11:22:35.5440,0.171,0.788,-0.31,3.99,-6.41,-6.76,-1.54,0.7,-9.21
2022-02-08 11:22:35.5490,0.82,1.019,0.207,3.99,-6.41,-6.76,-1.82,1.37,-10.01
2022-02-08 11:22:35.5630,1.552,1.298,0.553,3.99,-6.41,-6.76,-2.04,4.16,-9.23
Time,1.835,0.942,-0.128,3.99,-6.41,-6.76,-1.68,6.99,-8.34
2022-02-08 11:22:35.5840,2.265,0.006,-1.687,3.99,-6.41,-6.76,0.39,5.74,-7.28
2022-02-08 11:22:35.5930,2.211,-0.143,-1.53,3.99,-6.41,-6.76,2.95,4.8,-6.73
2022-02-08 11:22:35.5980,2.569,0.526,-0.876,3.99,-6.41,-6.76,5.29,4.06,-6.64
2022-02-08 11:22:35.6130,2.495,0.847,-0.218,3.99,-6.41,-6.76,6.59,3.83,-6.47
2022-02-08 11:22:35.6190,2.055,0.616,0.521,3.99,-6.41,-6.76,6.7,4.46,-6.11
2022-02-08 11:22:35.6350,1.993,0.506,0.935,3.99,-6.41,-6.76,5.86,4.92,-5.47
2022-02-08 11:22:35.6410,2.177,0.707,1.06,3.99,-6.41,-6.76,4.49,4.65,-4.73
Time,2.432,0.949,1.135,3.99,-6.41,-6.76,2.8,3.49,-3.83
2022-02-08 11:22:35.6630,2.392,0.976,1.442,3.99,-6.41,-6.76,1.12,2.61,-2.56
Time,1.883,0.792,1.197,3.99,-6.41,-6.76,-0.24,1.51,-1.58
2022-02-08 11:22:35.6830,1.322,0.599,0.855,3.99,-6.41,-6.76,-1.01,0.66,-0.89
2022-02-08 11:22:35.6950,1.091,0.473,0.6,2.74,-6.28,-5.74,-1.35,0.04,-0.32
2022-02-08 11:22:35.7020,1.029,0.396,0.466,2.74,-6.28,-5.74,-1.48,-0.35,0.22
2022-02-08 11:22:35.7150,0.803,0.428,0.437,2.74,-6.28,-5.74,-1.58,-0.38,0.59
2022-02-08 11:22:35.7210,0.538,0.514,0.529,2.74,-6.28,-5.74,-1.71,0.09,0.85
2022-02-08 11:22:35.7340,0.42,0.67,0.448,2.74,-6.28,-5.74,-1.96,0.11,1.09
2022-02-08 11:22:35.7400,0.224,0.923,0.35,2.74,-6.28,-5.74,-3.13,-1.35,1.37
2022-02-08 11:22:35.7560,0.103,1.079,0.967,2.74,-6.28,-5.74,-4.21,-1.14,1.78
2022-02-08 11:22:35.7660,0.075,1.026,0.769,2.74,-6.28,-5.74,-4.53,-1.03,2.22
2022-02-08 11:22:35.7730,0.014,0.886,0.316,2.74,-6.28,-5.74,-4.37,-1.36,2.61
2022-02-08 11:22:35.7860,-0.054,0.728,0.22,2.74,-6.28,-5.74,-3.9,-1.27,2.89
2022-02-08 11:22:35.7920,-0.063,0.629,0.136,2.74,-6.28,-5.74,-3.31,-0.95,3.1
2022-02-08 11:22:35.8050,-0.06,0.612,0.025,2.74,-6.28,-5.74,-2.7,-0.5,3.18
Time,-0.076,0.671,-0.06,2.74,-6.28,-5.74,-2.13,0.08,3.07
2022-02-08 11:22:35.8230,-0.138,0.721,-0.17,2.74,-6.28,-5.74,-1.64,0.6,2.8
2022-02-08 11:22:35.8290,-0.199,0.787,-0.388,2.74,-6.28,-5.74,-1.04,0.94,2.53
2022-02-08 11:22:35.8460,-0.299,1.056,-0.701,2.74,-6.28,-5.74,-0.2,1.01,2.04
2022-02-08 11:22:35.8520,-0.219,1.433,-0.677,2.74,-6.28,-5.74,0.59,1.21,0.83
2022-02-08 11:22:35.8660,-0.059,1.553,-0.57,2.74,-6.28,-5.74,1.37,1.75,-0.58
2022-02-08 11:22:35.8710,0.029,1.223,-0.309,2.74,-6.28,-5.74,2.09,2.49,-1.69
2022-02-08 11:22:35.8860,0.059,0.984,-0.083,2.74,-6.28,-5.74,2.71,3.32,-2.45
2022-02-08 11:22:35.8930,0.117,0.885,0.107,2.74,-6.28,-5.74,3.38,4.23,-2.9
Time,0.274,0.874,0.09,2.74,-6.28,-5.74,4.06,4.44,-3.12
2022-02-08 11:22:35.9140,0.651,1.126,0.24,2.74,-6.28,-5.74,4.06,2.43,-3.22
2022-02-08 11:22:35.9270,1.542,1.414,1.358,2.74,-6.28,-5.74,2.45,-2.45,-2.42
2022-02-08 11:22:35.9330,1.529,1.569,1.745,2.74,-6.28,-5.74,1.9,-3.33,-2.09
2022-02-08 11:22:35.9470,1.208,1.513,1.136,2.74,-6.28,-5.74,2.0,-2.58,-2.63
2022-02-08 11:22:35.9520,1.102,1.025,0.652,2.74,-6.28,-5.74,2.2,-1.5,-3.05
2022-02-08 11:22:35.9660,0.985,0.553,0.542,2.74,-6.28,-5.74,2.41,-0.04,-3.09
2022-02-08 11:22:35.9780,0.838,0.401,0.603,2.74,-6.28,-5.74,2.5,1.68,-3.01
2022-02-08 11:22:35.9840,0.767,0.347,0.677,1.53,-6.2,-4.73,2.47,3.3,-2.93
Time,0.992,0.236,0.93,1.53,-6.2,-4.73,2.47,5.58,-2.83
2022-02-08 11:22:36.0050,1.202,0.18,1.148,1.53,-6.2,-4.73,2.36,7.96,-2.53
2022-02-08 11:22:36.0180,1.176,0.414,1.208,1.53,-6.2,-4.73,2.13,9.74,-2.14
2022-02-08 11:22:36.0240,0.986,0.618,1.034,1.53,-6.2,-4.73,1.82,10.32,-1.46
2022-02-08 11:22:36.0380,0.612,0.664,0.585,1.53,-6.2,-4.73,1.45,9.86,-1.18
2022-02-08 11:22:36.0440,0.206,0.653,0.05,1.53,-6.2,-4.73,1.3,9.01,-1.77
Time,-0.024,1.155,-0.391,1.53,-6.2,-4.73,0.94,6.97,-3.1
2022-02-08 11:22:36.0660,-0.1,1.233,-0.636,1.53,-6.2,-4.73,0.43,3.92,-4.37
2022-02-08 11:22:36.0780,0.045,0.972,-0.596,1.53,-6.2,-4.73,0.1,1.37,-4.87
2022-02-08 11:22:36.0850,0.249,0.773,-0.27,1.53,-6.2,-4.73,0.27,0.51,-4.37
2022-02-08 11:22:36.0980,0.246,0.919,-0.491,1.53,-6.2,-4.73,0.96,-0.27,-3.51
2022-02-08 11:22:36.1040,0.084,1.067,-0.802,1.53,-6.2,-4.73,1.93,-1.27,-2.98
2022-02-08 11:22:36.1180,0.01,1.049,-0.877,1.53,-6.2,-4.73,2.97,-2.11,-2.95
2022-02-08 11:22:36.1230,0.023,0.867,-0.677,1.53,-6.2,-4.73,3.83,-2.31,-3.05
2022-02-08 11:22:36.1380,-0.054,0.679,-0.388,1.53,-6.2,-4.73,4.36,-2.08,-3.19
Time,-0.095,0.573,-0.109,1.53,-6.2,-4.73,4.41,-1.44,-3.21
2022-02-08 11:22:36.1560,-0.033,0.496,0.16,1.53,-6.2,-4.73,3.91,-0.1,-2.81
2022-02-08 11:22:36.1690,0.019,0.4,0.395,1.53,-6.2,-4.73,2.81,2.07,-1.87
2022-02-08 11:22:36.1750,0.034,0.382,0.469,1.53,-6.2,-4.73,1.31,4.68,-0.58
2022-02-08 11:22:36.1890,-0.004,0.495,0.25,0.53,-6.29,-3.56,-0.21,6.7,0.62
2022-02-08 11:22:36.1950,-0.192,0.794,-0.367,0.53,-6.29,-3.56,-1.24,6.93,1.18
2022-02-08 11:22:36.2080,-0.466,1.14,-1.132,0.53,-6.29,-3.56,-1.59,5.06,1.03
2022-02-08 11:22:36.2140,-0.466,1.162,-1.304,0.53,-6.29,-3.56,-1.58,2.79,0.77
2022-02-08 11:22:36.2280,-0.338,1.018,-0.912,0.53,-6.29,-3.56,-1.54,1.36,0.67
2022-02-08 11:22:36.2330,-0.383,1.15,-1.033,0.53,-6.29,-3.56,-1.05,-0.02,0.41
2022-02-08 11:22:36.2500,-0.42,1.262,-1.076,0.53,-6.29,-3.56,-0.31,-1.23,0.06
2022-02-08 11:22:36.2570,-0.43,1.312,-0.909,0.53,-6.29,-3.56,0.36,-2.01,-0.2
2022-02-08 11:22:36.2690,-0.347,1.182,-0.529,0.53,-6.29,-3.56,0.64,-2.02,-0.05
2022-02-08 11:22:36.2750,-0.314,1.084,-0.242,0.53,-6.29,-3.56,0.66,-1.53,0.38
2022-02-08 11:22:36.2830,-0.396,1.152,-0.181,0.53,-6.29,-3.56,0.69,-0.95,0.79
2022-02-08 11:22:36.2980,-0.529,1.346,-0.2,0.53,-6.29,-3.56,0.84,-0.46,0.93
2022-02-08 11:22:36.3100,-0.59,1.78,0.072,0.53,-6.29,-3.56,1.66,0.17,0.59
2022-02-08 11:22:36.3160,-0.188,2.417,1.279,-0.76,-6.08,-2.31,3.13,-0.47,0.33
2022-02-08 11:22:36.3300,0.426,2.349,2.512,-0.76,-6.08,-2.31,2.45,-1.75,0.7
2022-02-08 11:22:36.3360,0.711,1.612,2.374,-0.76,-6.08,-2.31,0.81,-2.48,1.47
2022-02-08 11:22:36.3500,0.517,1.231,1.351,-0.76,-6.08,-2.31,-0.43,-2.37,2.06
2022-02-08 11:22:36.3570,0.195,1.036,0.613,-0.76,-6.08,-2.31,-1.19,-1.68,2.32
2022-02-08 11:23:05.3600,-0.084,0.941,0.206,4.61,-8.6,-1.03,-1.66,-0.66,2.22
2022-02-08 11:23:05.3680,-0.176,1.056,0.016,-6.14,4.51,-3.41,-1.98,0.37,1.85
2022-02-08 11:23:05.3700,-0.21,1.202,-0.118,-1.97,3.92,-2.66,-2.15,1.17,1.28
2022-02-08 11:23:05.3700,-0.2,1.277,-0.199,-1.97,3.92,-2.66,-2.2,1.71,0.58
2022-02-08 11:23:05.3740,-0.241,1.365,-0.277,3.42,-2.04,-3.52,-2.08,1.95,-0.25
2022-02-08 11:23:05.3610,-0.231,1.328,-0.319,-4.31,5.19,-3.63,-1.79,1.89,-1.0
2022-02-08 11:23:05.3750,-0.15,1.179,-0.317,-5.41,5.98,-4.94,-1.26,1.59,-1.42
2022-02-08 11:23:05.3920,-0.052,0.987,-0.244,-5.41,5.98,-4.94,-0.68,1.17,-1.44
2022-02-08 11:23:05.3520,0.037,0.841,-0.158,-8.59,7.41,-7.8,-0.15,0.59,-1.13
2022-02-08 11:23:05.3690,0.11,0.742,-0.062,-8.59,7.41,-7.8,0.22,-0.23,-0.69
2022-02-08 11:23:05.3720,0.186,0.684,0.064,-8.59,7.41,-7.8,0.31,-1.33,-0.28
2022-02-08 11:23:05.3940,0.263,0.651,0.237,-9.94,6.54,-9.08,0.08,-2.6,0.08
2022-02-08 11:23:05.3910,0.348,0.614,0.422,-9.94,6.54,-9.08,-0.48,-3.81,0.47
2022-02-08 11:23:05.3920,0.41,0.591,0.555,-9.12,4.0,-8.66,-1.24,-4.73,0.92
2022-02-08 11:23:05.3940,0.412,0.604,0.568,-9.12,4.0,-8.66,-1.98,-5.35,1.35
2022-02-08 11:23:05.3950,0.375,0.628,0.474,-7.0,2.79,-5.5,-2.49,-5.69,1.7
2022-02-08 11:23:05.3960,0.325,0.668,0.352,-0.51,0.4,4.8,-2.65,-5.68,1.92
2022-02-08 11:23:05.3990,0.307,0.729,0.274,-0.51,0.4,4.8,-2.4,-5.15,2.06
2022-02-08 11:23:05.3990,0.366,0.802,0.353,0.65,-2.81,7.72,-1.88,-3.94,2.22
2022-02-08 11:23:05.4030,0.46,0.907,0.614,0.65,-2.81,7.72,-1.47,-2.22,2.42
2022-02-08 11:23:05.4010,0.39,1.071,0.759,0.65,-2.81,7.72,-1.29,-0.42,2.47
2022-02-08 11:23:05.4010,0.178,1.265,0.63,0.65,-2.81,7.72,-1.15,1.13,2.24
2022-02-08 11:23:05.4060,0.027,1.429,0.394,0.65,-2.81,7.72,-0.91,2.21,1.84
2022-02-08 11:23:05.4080,0.06,1.453,0.096,-0.2,-1.63,9.22,-0.49,2.76,1.56
2022-02-08 11:23:05.4090,0.046,1.504,-0.129,-0.2,-1.63,9.22,-0.09,2.68,1.32
2022-02-08 11:23:05.4100,-0.116,1.509,-0.248,-0.2,-1.63,9.22,0.02,1.91,0.94
Time,-0.208,1.36,-0.212,-0.2,-1.63,9.22,-0.14,1.22,0.6
Time,-0.208,1.16,-0.085,-0.2,-1.63,9.22,-0.41,0.97,0.41
2022-02-08 11:23:05.4130,-0.273,1.033,-0.113,-0.2,-1.63,9.22,-0.59,0.83,0.21
Time,-0.34,0.959,-0.172,-0.2,-1.63,9.22,-0.59,0.76,-0.02
2022-02-08 11:23:05.4210,-0.371,0.944,-0.193,-2.65,1.23,6.67,-0.43,0.75,-0.27
2022-02-08 11:23:05.4170,-0.366,0.962,-0.193,-2.65,1.23,6.67,-0.16,0.9,-0.49
2022-02-08 11:23:05.4180,-0.318,0.991,-0.186,-2.65,1.23,6.67,0.19,1.16,-0.61
2022-02-08 11:23:05.4180,-0.213,1.007,-0.174,-2.65,1.23,6.67,0.59,1.31,-0.55
Time,-0.055,0.98,-0.15,-2.65,1.23,6.67,0.97,1.15,-0.32
2022-02-08 11:23:05.4220,0.102,0.959,-0.125,-2.65,1.23,6.67,1.37,0.62,-0.05
2022-02-08 11:23:05.4210,0.181,0.969,-0.094,-2.65,1.23,6.67,1.8,-0.07,0.12
2022-02-08 11:23:05.4240,0.192,0.991,0.012,-2.65,1.23,6.67,2.15,-0.71,0.16
2022-02-08 11:23:05.4250,0.182,0.97,0.192,-2.65,1.23,6.67,2.28,-1.11,0.11
2022-02-08 11:23:05.4250,0.148,0.892,0.292,-2.65,1.23,6.67,2.19,-1.27,-0.0
2022-02-08 11:23:05.4250,0.076,0.79,0.223,-2.65,1.23,6.67,2.0,-1.38,-0.16
2022-02-08 11:23:05.4270,0.033,0.674,0.126,-4.19,1.38,5.4,1.78,-1.36,-0.3
2022-02-08 11:23:05.4270,0.007,0.57,0.084,-4.19,1.38,5.4,1.55,-1.19,-0.36
2022-02-08 11:23:05.4290,0.001,0.484,0.109,-4.19,1.38,5.4,1.3,-0.86,-0.37
2022-02-08 11:23:05.4300,0.027,0.396,0.177,-4.19,1.38,5.4,1.06,-0.52,-0.35
2022-02-08 11:23:05.4300,0.042,0.289,0.294,-4.19,1.38,5.4,0.98,-0.3,-0.3
2022-02-08 11:23:05.4310,0.034,0.258,0.419,-4.19,1.38,5.4,1.12,-0.05,-0.19
2022-02-08 11:23:05.4330,0.039,0.44,0.512,-4.19,1.38,5.4,1.28,0.38,-0.01
2022-02-08 11:23:05.4330,0.098,0.675,0.551,-4.19,1.38,5.4,1.32,0.93,0.18
2022-02-08 11:23:05.4350,0.17,0.93,0.48,-4.19,1.38,5.4,1.15,1.41,0.31
2022-02-08 11:23:05.4360,0.225,1.2,0.301,-4.19,1.38,5.4,0.86,1.69,0.33
2022-02-08 11:23:05.4360,0.175,1.346,0.186,-4.19,1.38,5.4,0.4,1.78,0.1
2022-02-08 11:23:05.4360,0.135,1.541,0.209,-4.19,1.38,5.4,-0.07,1.2,-0.35
2022-02-08 11:23:05.4440,0.404,1.841,0.485,-4.19,1.38,5.4,-0.35,-0.77,-0.65
2022-02-08 11:23:05.4390,0.709,1.941,0.986,-4.19,1.38,5.4,-0.29,-2.45,-0.59
2022-02-08 11:23:05.4410,0.594,1.635,1.266,-4.19,1.38,5.4,-0.28,-1.67,-0.09
2022-02-08 11:23:05.4440,0.244,1.373,1.034,-4.19,1.38,5.4,-0.83,0.7,0.63
2022-02-08 11:23:05.4430,-0.053,1.352,0.454,-4.19,1.38,5.4,-1.65,2.81,0.93
2022-02-08 11:23:05.4450,-0.327,1.406,-0.022,-4.19,1.38,5.4,-2.14,4.03,0.64
2022-02-08 11:23:05.4450,-0.504,1.512,-0.254,-4.19,1.38,5.4,-2.19,4.74,-0.04
2022-02-08 11:23:05.4460,-0.556,1.478,-0.43,-4.19,1.38,5.4,-1.91,4.98,-0.79
Time,-0.501,1.319,-0.49,-4.19,1.38,5.4,-1.46,4.86,-1.26
2022-02-08 11:23:05.4500,-0.411,1.088,-0.507,-3.31,-0.52,8.92,-0.72,4.51,-1.29
2022-02-08 11:23:05.4510,-0.366,0.88,-0.463,-3.31,-0.52,8.92,0.23,3.88,-0.9
2022-02-08 11:23:05.4500,-0.404,0.804,-0.397,-3.31,-0.52,8.92,1.13,2.8,-0.26
2022-02-08 11:23:05.4490,-0.456,0.908,-0.346,-3.31,-0.52,8.92,1.72,1.08,0.37
2022-02-08 11:23:05.4510,-0.392,1.127,-0.25,-3.31,-0.52,8.92,1.66,-1.57,0.77
2022-02-08 11:23:05.4540,-0.306,1.267,-0.155,-3.31,-0.52,8.92,1.14,-3.99,0.83
2022-02-08 11:23:05.4560,-0.308,1.296,-0.108,-3.31,-0.52,8.92,0.65,-5.4,0.69
Time,-0.282,1.215,0.016,-3.31,-0.52,8.92,0.25,-5.86,0.53
2022-02-08 11:23:05.4560,-0.255,1.106,0.146,-3.31,-0.52,8.92,-0.07,-5.68,0.43
2022-02-08 11:23:05.4560,-0.281,1.007,0.262,-3.31,-0.52,8.92,-0.33,-5.11,0.32
2022-02-08 11:23:05.4560,-0.341,0.927,0.338,-3.31,-0.52,8.92,-0.52,-4.32,0.16
2022-02-08 11:23:05.4600,-0.399,0.88,0.348,-3.31,-0.52,8.92,-0.65,-3.49,-0.06
2022-02-08 11:23:05.4620,-0.404,0.835,0.315,-3.31,-0.52,8.92,-0.8,-2.75,-0.29
2022-02-08 11:23:05.4620,-0.38,0.808,0.284,-3.31,-0.52,8.92,-0.99,-2.2,-0.5
2022-02-08 11:23:05.4620,-0.32,0.801,0.29,-3.31,-0.52,8.92,-1.26,-1.88,-0.66
2022-02-08 11:23:05.4680,-0.234,0.812,0.291,-3.31,-0.52,8.92,-1.58,-1.85,-0.77
2022-02-08 11:23:05.4630,-0.139,0.831,0.267,-3.31,-0.52,8.92,-1.88,-2.18,-0.81
2022-02-08 11:23:05.4650,-0.022,0.852,0.206,-3.31,-0.52,8.92,-2.05,-2.77,-0.73
2022-02-08 11:23:05.4680,0.111,0.876,0.141,-3.31,-0.52,8.92,-2.05,-3.37,-0.53
2022-02-08 11:23:05.4680,0.22,0.888,0.139,-3.31,-0.52,8.92,-1.9,-3.85,-0.25
2022-02-08 11:23:05.4690,0.296,0.907,0.214,-3.31,-0.52,8.92,-1.72,-4.09,0.04
2022-02-08 11:23:05.4690,0.298,0.939,0.365,-3.31,-0.52,8.92,-1.65,-3.8,0.24
2022-02-08 11:23:05.4700,0.283,0.954,0.527,-3.31,-0.52,8.92,-1.73,-3.03,0.31
2022-02-08 11:23:05.4740,0.288,0.938,0.579,-3.31,-0.52,8.92,-1.9,-1.78,0.33
2022-02-08 11:23:05.4730,0.338,0.935,0.512,-3.31,-0.52,8.92,-2.11,-0.55,0.28
2022-02-08 11:23:05.4720,0.409,0.94,0.268,-3.31,-0.52,8.92,-2.16,0.1,0.14
Time,0.528,0.907,0.08,-3.31,-0.52,8.92,-2.05,0.55,0.05
2022-02-08 11:23:05.4750,0.587,0.844,0.0,-3.31,-0.52,8.92,-1.87,0.95,-0.07
2022-02-08 11:23:05.4760,0.598,0.78,0.015,-3.31,-0.52,8.92,-1.7,1.38,-0.24
Time,0.552,0.723,0.032,-3.31,-0.52,8.92,-1.51,1.64,-0.5
2022-02-08 11:23:05.4840,0.495,0.646,0.038,-3.31,-0.52,8.92,-1.21,1.66,-0.77
2022-02-08 11:23:05.4790,0.464,0.572,0.028,-3.31,-0.52,8.92,-0.73,1.38,-0.92
2022-02-08 11:23:05.4790,0.415,0.542,0.079,-3.31,-0.52,8.92,-0.11,0.98,-0.94
2022-02-08 11:23:05.4810,0.308,0.58,0.138,-3.31,-0.52,8.92,0.56,0.51,-0.92
Time,0.206,0.685,0.214,-3.31,-0.52,8.92,1.22,0.21,-0.93
2022-02-08 11:23:05.4840,0.087,0.828,0.249,-3.31,-0.52,8.92,1.84,0.07,-1.01
2022-02-08 11:23:05.4850,0.007,0.972,0.286,-3.31,-0.52,8.92,2.35,0.14,-1.08
Time,-0.067,1.095,0.276,-3.31,-0.52,8.92,2.75,0.39,-1.1
2022-02-08 11:23:05.4850,-0.101,1.193,0.256,-3.31,-0.52,8.92,3.01,0.77,-0.98
2022-02-08 11:23:05.4860,-0.07,1.237,0.256,-3.31,-0.52,8.92,3.08,1.24,-0.67
2022-02-08 11:23:05.4900,-0.025,1.209,0.226,-3.31,-0.52,8.92,3.0,1.65,-0.24
2022-02-08 11:23:05.4910,-0.019,1.119,0.168,-3.31,-0.52,8.92,2.82,1.95,0.12
2022-02-08 11:23:05.4910,-0.043,1.004,0.092,-2.14,-1.2,10.52,2.58,2.09,0.3
2022-02-08 11:23:05.4920,-0.075,0.916,0.015,-2.14,-1.2,10.52,2.34,2.12,0.3
2022-02-08 11:23:05.4920,-0.1,0.874,-0.044,-2.14,-1.2,10.52,2.14,2.16,0.2
Time,-0.107,0.796,-0.084,-2.14,-1.2,10.52,2.01,2.23,0.04
2022-02-08 11:23:05.4970,-0.1,0.703,-0.103,-2.14,-1.2,10.52,1.94,2.33,-0.13
2022-02-08 11:23:05.4970,-0.088,0.617,-0.099,-2.14,-1.2,10.52,1.91,2.48,-0.29
2022-02-08 11:23:05.4970,-0.064,0.538,-0.079,-2.14,-1.2,10.52,1.91,2.65,-0.43
2022-02-08 11:23:05.4980,-0.033,0.475,-0.055,-2.14,-1.2,10.52,1.91,2.81,-0.54
2022-02-08 11:23:05.4980,-0.003,0.432,-0.031,-2.14,-1.2,10.52,1.9,2.94,-0.6
2022-02-08 11:23:05.5050,0.021,0.407,-0.017,-2.14,-1.2,10.52,1.89,3.09,-0.61
2022-02-08 11:23:05.5000,0.041,0.414,-0.021,-2.14,-1.2,10.52,1.91,3.25,-0.53
2022-02-08 11:23:05.5080,0.044,0.461,-0.156,-2.14,-1.2,10.52,2.06,3.19,-0.36
2022-02-08 11:23:05.5020,-0.035,0.589,-0.639,-2.14,-1.2,10.52,2.63,2.21,-0.24
Time,-0.161,0.784,-0.92,-2.14,-1.2,10.52,3.4,0.81,-0.21
2022-02-08 11:23:05.5070,-0.32,1.067,-0.943,-2.14,-1.2,10.52,4.16,-0.48,-0.33
2022-02-08 11:23:05.5040,-0.525,1.401,-0.909,-2.14,-1.2,10.52,4.83,-1.42,-0.58
2022-02-08 11:23:05.5070,-0.68,1.64,-0.759,-2.14,-1.2,10.52,5.31,-1.75,-0.7
2022-02-08 11:23:05.5100,-1.144,2.089,2.516,-2.14,-1.2,10.52,5.73,5.05,-0.48
2022-02-08 11:23:05.5110,-1.641,2.878,6.566,-2.14,-1.2,10.52,0.96,9.08,-0.71
2022-02-08 11:23:05.5120,-0.933,2.654,1.634,-2.14,-1.2,10.52,-1.06,4.21,-0.94
2022-02-08 11:23:05.5120,-0.509,2.296,-0.301,-2.14,-1.2,10.52,-1.78,-3.21,-1.16
2022-02-08 11:23:05.5140,0.213,1.833,-0.417,-2.14,-1.2,10.52,-2.16,-6.31,-0.8
2022-02-08 11:23:05.5170,0.419,1.443,-0.403,-2.14,-1.2,10.52,-2.52,-6.19,-0.25
2022-02-08 11:23:05.5170,0.405,1.244,-0.309,-2.14,-1.2,10.52,-2.8,-4.6,0.2
2022-02-08 11:23:05.5170,0.364,1.203,-0.262,-2.14,-1.2,10.52,-2.76,-3.03,0.3
2022-02-08 11:23:05.5190,0.343,1.232,-0.299,-2.14,-1.2,10.52,-2.16,-1.72,0.02
2022-02-08 11:23:05.5190,0.348,1.258,-0.235,-2.14,-1.2,10.52,-1.44,-0.63,-0.43
Time,0.389,1.263,-0.136,-2.14,-1.2,10.52,-0.94,0.26,-0.75
2022-02-08 11:23:05.5190,0.469,1.279,-0.074,-2.14,-1.2,10.52,-0.63,0.87,-0.86
2022-02-08 11:23:05.5230,0.56,1.365,-0.097,-2.14,-1.2,10.52,-0.3,0.73,-0.89
2022-02-08 11:23:05.5220,0.678,1.447,-0.112,-2.14,-1.2,10.52,-0.03,-0.48,-0.86
Time,0.8,1.463,0.06,-2.14,-1.2,10.52,-0.1,-2.37,-0.6
2022-02-08 11:23:05.5280,0.915,1.381,0.385,-2.14,-1.2,10.52,-1.19,-5.88,0.92
2022-02-08 11:23:05.5280,0.872,1.083,1.002,-2.14,-1.2,10.52,-1.19,-5.88,0.92
2022-02-08 11:23:05.5270,0.672,0.742,2.133,-2.14,-1.2,10.52,-2.2,-5.31,1.99
2022-02-08 11:23:05.5260,0.389,0.577,2.83,-2.14,-1.2,10.52,-3.64,-2.04,2.9
2022-02-08 11:23:05.5290,0.215,0.688,1.897,-2.14,-1.2,10.52,-4.72,1.41,3.31
Time,0.026,0.781,0.727,-2.14,-1.2,10.52,-5.12,3.52,3.14
2022-02-08 11:23:05.5330,-0.152,0.856,-0.059,-2.14,-1.2,10.52,-4.83,4.16,2.74
2022-02-08 11:23:05.5340,-0.347,1.082,-0.503,-2.14,-1.2,10.52,-4.06,4.1,2.21
Time,-0.507,1.32,-0.614,-2.14,-1.2,10.52,-3.24,4.01,1.67
2022-02-08 11:23:05.5340,-0.719,1.764,-0.707,-2.14,-1.2,10.52,-2.45,4.1,0.99
2022-02-08 11:23:05.5370,-1.014,2.197,-0.867,-2.14,-1.2,10.52,-1.69,4.14,0.11
2022-02-08 11:23:05.5360,-1.258,2.511,-0.989,-2.14,-1.2,10.52,-1.02,4.03,-0.66
2022-02-08 11:23:05.5400,-1.298,2.585,-1.223,-2.14,-1.2,10.52,-0.46,3.32,-0.85
2022-02-08 11:23:05.5390,-1.2,2.309,-1.353,-2.14,-1.2,10.52,-0.24,1.96,-0.39
2022-02-08 11:23:05.5390,-1.035,1.794,-1.251,-2.14,-1.2,10.52,-0.25,0.25,0.16
2022-02-08 11:23:05.5400,-0.875,1.259,-1.14,-2.14,-1.2,10.52,-0.06,-1.54,0.2
2022-02-08 11:23:05.5450,-0.694,0.852,-0.961,-2.14,-1.2,10.52,0.26,-3.03,-0.06
2022-02-08 11:23:05.5440,-0.489,0.566,-0.686,-2.14,-1.2,10.52,0.46,-3.93,-0.3
2022-02-08 11:23:05.5490,-0.312,0.425,-0.4,-2.14,-1.2,10.52,0.51,-3.93,-0.45
2022-02-08 11:23:05.5500,-0.195,0.358,-0.181,-2.14,-1.2,10.52,0.41,-2.97,-0.5
2022-02-08 11:23:05.5490,-0.136,0.311,-0.137,-2.14,-1.2,10.52,0.37,-1.42,-0.48
2022-02-08 11:23:05.5490,-0.074,0.294,-0.332,-2.14,-1.2,10.52,0.77,0.64,-0.4
2022-02-08 11:23:05.5580,0.047,0.276,-0.578,-2.14,-1.2,10.52,1.61,2.82,-0.21
2022-02-08 11:23:05.5550,0.069,0.276,-0.693,-2.14,-1.2,10.52,2.56,4.99,-0.12
2022-02-08 11:23:05.5560,0.072,0.271,-0.61,-2.14,-1.2,10.52,3.15,6.52,-0.17
2022-02-08 11:23:05.5560,0.05,0.275,-0.566,-2.14,-1.2,10.52,3.43,7.09,-0.35
2022-02-08 11:23:05.5570,0.051,0.293,-0.492,-2.14,-1.2,10.52,3.41,7.03,-0.62
2022-02-08 11:23:05.5620,0.095,0.307,-0.402,-2.14,-1.2,10.52,3.26,6.83,-0.92
2022-02-08 11:23:05.5600,0.152,0.344,-0.347,-2.14,-1.2,10.52,3.08,6.61,-1.18
Time,0.336,0.593,0.444,-2.14,-1.2,10.52,1.32,0.68,-1.22
2022-02-08 11:23:05.5620,0.505,1.58,2.105,-2.14,-1.2,10.52,0.37,-9.07,-0.69
Time,0.12,1.881,2.0,-2.14,-1.2,10.52,1.08,-9.24,-0.52
2022-02-08 11:23:05.5640,0.036,2.159,1.831,-2.14,-1.2,10.52,1.27,-5.83,-0.5
2022-02-08 11:23:05.5650,0.061,2.023,1.212,-2.14,-1.2,10.52,0.42,-1.67,-0.41
2022-02-08 11:23:05.5670,0.14,1.573,0.788,-2.14,-1.2,10.52,-1.03,1.72,-0.38
2022-02-08 11:23:05.5670,0.212,1.343,0.465,-2.14,-1.2,10.52,-2.38,3.6,-0.36
2022-02-08 11:23:05.5690,0.284,1.3,0.167,-2.14,-1.2,10.52,-3.26,4.09,-0.35
2022-02-08 11:23:05.5760,0.354,1.337,0.008,-2.14,-1.2,10.52,-3.62,3.19,-0.23
2022-02-08 11:23:05.5700,0.43,1.374,-0.102,-2.36,-0.1,9.56,-3.55,1.4,0.08
2022-02-08 11:23:05.5720,0.479,1.431,-0.19,-2.36,-0.1,9.56,-3.05,-0.94,0.52
2022-02-08 11:23:05.5730,0.506,1.51,-0.183,-2.36,-0.1,9.56,-2.23,-3.58,1.05
Time,0.523,1.564,-0.076,-2.36,-0.1,9.56,-1.34,-6.19,1.59
2022-02-08 11:23:05.5750,0.569,1.507,0.249,-2.36,-0.1,9.56,-0.71,-8.46,2.12
2022-02-08 11:23:05.5780,0.614,1.374,1.268,-2.36,-0.1,9.56,-0.98,-9.95,2.62
2022-02-08 11:23:05.5780,0.24,1.195,2.574,-2.36,-0.1,9.56,-1.52,-8.82,3.01
2022-02-08 11:23:05.5780,-0.452,1.148,2.601,-2.36,-0.1,9.56,-1.21,-5.24,3.33
2022-02-08 11:23:05.5800,-0.863,1.257,1.43,-2.36,-0.1,9.56,-0.64,-1.56,3.2
Time,-1.115,1.324,-0.357,-2.36,-0.1,9.56,0.72,1.6,2.54
2022-02-08 11:23:05.5800,-1.064,1.154,-1.833,-2.36,-0.1,9.56,2.29,3.69,2.01
Time,-0.653,0.806,-1.886,-2.36,-0.1,9.56,2.64,4.76,1.94
2022-02-08 11:23:05.5850,-0.358,0.493,-1.192,-2.36,-0.1,9.56,1.9,5.26,1.8
2022-02-08 11:23:05.5860,-0.192,0.309,-0.427,-2.36,-0.1,9.56,0.67,5.68,1.37
2022-02-08 11:23:05.5860,-0.161,0.204,-0.004,-2.36,-0.1,9.56,-0.63,5.32,0.67
2022-02-08 11:23:05.5850,-0.251,0.166,0.107,-2.36,-0.1,9.56,-1.73,4.04,-0.2
2022-02-08 11:23:05.5860,-0.219,0.186,-0.083,-2.36,-0.1,9.56,-2.15,2.67,-0.92
2022-02-08 11:23:05.5910,-0.055,0.252,-0.274,-2.36,-0.1,9.56,-2.0,1.8,-1.3
2022-02-08 11:23:05.5900,0.054,0.28,-0.285,-2.36,-0.1,9.56,-1.7,1.51,-1.55
2022-02-08 11:23:05.5910,0.07,0.357,-0.31,-2.36,-0.1,9.56,-1.35,1.42,-1.82
2022-02-08 11:23:05.5910,0.076,0.484,-0.339,-2.36,-0.1,9.56,-0.96,1.55,-2.1
2022-02-08 11:23:05.5930,0.11,0.637,-0.368,-2.36,-0.1,9.56,-0.53,1.73,-2.33
2022-02-08 11:23:05.5940,0.2,0.81,-0.381,-2.36,-0.1,9.56,0.07,1.86,-2.4
2022-02-08 11:23:05.5960,0.317,0.983,-0.414,-2.36,-0.1,9.56,1.39,1.7,-2.25
2022-02-08 11:23:05.5970,0.507,0.935,-0.289,-2.36,-0.1,9.56,3.45,0.95,-1.66
2022-02-08 11:23:05.5980,0.618,0.651,0.233,-2.36,-0.1,9.56,5.37,-0.63,-0.7
Time,0.775,0.661,1.195,-2.36,-0.1,9.56,5.27,-2.86,0.53
2022-02-08 11:23:05.5990,0.909,0.962,1.668,-2.36,-0.1,9.56,3.63,-3.92,1.87
2022-02-08 11:23:05.6010,0.559,1.177,1.456,-2.36,-0.1,9.56,1.6,-3.3,2.9
2022-02-08 11:23:05.6020,0.11,1.417,1.134,-2.36,-0.1,9.56,-0.29,-1.65,3.44
2022-02-08 11:23:05.6080,-0.2,1.671,0.741,-2.36,-0.1,9.56,-1.83,0.42,3.44
2022-02-08 11:23:05.6040,-0.619,2.237,0.619,-2.36,-0.1,9.56,-2.4,2.32,2.83
2022-02-08 11:23:05.6050,-1.137,3.094,0.407,-2.36,-0.1,9.56,-1.43,4.0,1.85
2022-02-08 11:23:05.6050,-1.74,3.646,0.042,-2.36,-0.1,9.56,-0.79,3.62,0.24
2022-02-08 11:23:05.6070,-2.233,3.57,-0.08,-2.36,-0.1,9.56,-0.96,1.38,-1.68
2022-02-08 11:23:05.6070,-1.712,2.436,-0.139,-2.36,-0.1,9.56,-1.88,-1.43,-2.38
2022-02-08 11:23:05.6100,-0.982,1.44,-0.306,-2.36,-0.1,9.56,-2.81,-3.84,-1.75
2022-02-08 11:23:05.6110,-0.785,0.964,-0.535,-2.36,-0.1,9.56,-2.96,-5.79,-0.93
Time,-0.951,0.68,-0.379,-2.36,-0.1,9.56,-2.42,-6.93,-0.77
2022-02-08 11:23:05.6130,-1.154,0.473,0.388,-2.36,-0.1,9.56,-2.03,-6.54,-1.13
2022-02-08 11:23:05.6140,-1.203,0.403,0.775,-2.36,-0.1,9.56,-2.05,-5.42,-1.71
2022-02-08 11:23:05.6140,-1.067,0.427,0.407,-2.36,-0.1,9.56,-1.89,-4.41,-2.19
2022-02-08 11:23:05.6170,-0.616,0.38,0.099,-2.36,-0.1,9.56,-1.63,-3.75,-2.19
2022-02-08 11:23:05.6200,-0.292,0.417,-0.107,-2.36,-0.1,9.56,-1.43,-4.02,-1.95
2022-02-08 11:23:05.6190,-0.163,0.52,-0.331,-2.36,-0.1,9.56,-1.05,-4.63,-1.72
2022-02-08 11:23:05.6200,0.002,0.554,-0.304,-2.36,-0.1,9.56,-0.61,-4.53,-1.48
2022-02-08 11:23:05.6200,0.218,0.446,-0.089,-2.36,-0.1,9.56,-0.42,-3.21,-1.18
2022-02-08 11:23:05.6200,0.291,0.368,0.032,-2.36,-0.1,9.56,-0.59,-1.24,-0.92
2022-02-08 11:23:05.6220,0.375,0.374,0.01,-2.36,-0.1,9.56,-0.81,0.37,-0.75
2022-02-08 11:23:05.6230,0.547,0.345,-0.048,-2.36,-0.1,9.56,-0.75,1.0,-0.58
2022-02-08 11:23:05.6250,0.759,0.343,-0.094,-2.36,-0.1,9.56,-0.54,1.0,-0.49
2022-02-08 11:23:05.6270,0.858,0.416,-0.094,-2.36,-0.1,9.56,-0.33,0.67,-0.5
2022-02-08 11:23:05.6270,0.781,0.63,-0.149,-2.36,-0.1,9.56,-0.04,0.17,-0.76
2022-02-08 11:23:05.6260,0.724,0.957,-0.259,-2.36,-0.1,9.56,0.31,-0.24,-1.18
2022-02-08 11:23:05.6280,0.661,1.288,-0.268,-2.36,-0.1,9.56,0.66,-0.34,-1.74
2022-02-08 11:23:05.6290,0.614,1.502,-0.218,-2.36,-0.1,9.56,0.99,-0.16,-2.25
2022-02-08 11:23:05.6310,0.607,1.597,-0.146,-2.36,-0.1,9.56,1.35,0.28,-2.49
2022-02-08 11:23:05.6350,0.577,1.582,-0.065,-2.36,-0.1,9.56,1.73,0.93,-2.35
2022-02-08 11:23:05.6330,0.524,1.481,-0.025,-2.36,-0.1,9.56,2.09,1.64,-1.81
2022-02-08 11:23:05.6320,0.461,1.392,-0.04,-2.36,-0.1,9.56,2.4,2.29,-1.0
2022-02-08 11:23:05.6350,0.374,1.307,-0.048,-2.36,-0.1,9.56,2.61,2.85,-0.13
2022-02-08 11:23:05.6370,0.255,1.209,-0.069,-2.36,-0.1,9.56,2.77,3.28,0.55
2022-02-08 11:23:05.6370,0.126,1.092,-0.083,-2.36,-0.1,9.56,2.89,3.61,0.94
2022-02-08 11:23:05.6370,0.019,0.963,-0.086,-2.36,-0.1,9.56,3.0,3.88,1.07
2022-02-08 11:23:05.6380,-0.052,0.832,-0.091,-2.36,-0.1,9.56,3.14,4.06,1.03
2022-02-08 11:23:05.6390,-0.089,0.703,-0.101,-2.36,-0.1,9.56,3.31,4.14,0.89
2022-02-08 11:23:05.6410,-0.098,0.55,-0.178,-2.36,-0.1,9.56,3.78,3.91,0.77
2022-02-08 11:23:05.6430,-0.11,0.398,-0.4,-2.36,-0.1,9.56,4.92,3.0,0.8
2022-02-08 11:23:05.6440,-0.123,0.448,-0.562,-2.36,-0.1,9.56,6.21,1.65,0.9
2022-02-08 11:23:05.6430,-0.124,0.708,-0.545,-2.36,-0.1,9.56,7.09,0.33,0.81
2022-02-08 11:23:05.6440,-0.132,1.077,-0.349,-2.36,-0.1,9.56,7.48,-1.27,0.53
2022-02-08 11:23:05.6450,-0.086,2.158,1.503,-2.36,-0.1,9.56,5.16,-8.14,0.36
2022-02-08 11:23:05.6470,-0.212,2.985,3.934,-2.36,-0.1,9.56,1.23,-10.57,0.11
2022-02-08 11:23:05.6490,-0.218,2.812,3.905,-2.36,-0.1,9.56,-1.23,-7.23,0.38
Time,-0.285,2.614,2.568,-2.36,-0.1,9.56,-1.56,-1.91,0.77
Time,-0.352,2.421,1.348,-2.36,-0.1,9.56,-1.51,1.63,0.65
2022-02-08 11:23:05.6490,-0.387,1.946,0.716,-2.36,-0.1,9.56,-1.49,2.82,0.22
2022-02-08 11:23:05.6500,-0.239,1.433,0.526,-2.36,-0.1,9.56,-1.6,2.49,0.05
2022-02-08 11:23:05.6530,-0.141,1.209,0.493,-2.36,-0.1,9.56,-2.07,1.2,0.22
2022-02-08 11:23:05.6550,-0.145,1.223,0.384,-2.36,-0.1,9.56,-2.82,-0.53,0.54
2022-02-08 11:23:05.6560,-0.2,1.282,0.201,-2.36,-0.1,9.56,-3.53,-1.97,0.83
2022-02-08 11:23:05.6560,-0.29,1.312,0.077,-2.36,-0.1,9.56,-4.03,-2.84,0.84
2022-02-08 11:23:05.6560,-0.345,1.291,0.023,-2.36,-0.1,9.56,-4.26,-3.2,0.59
2022-02-08 11:23:05.6580,-0.319,1.174,-0.027,-2.36,-0.1,9.56,-4.31,-3.28,0.35
2022-02-08 11:23:05.6570,-0.22,1.001,-0.06,-2.36,-0.1,9.56,-4.32,-2.97,0.26
2022-02-08 11:23:05.6610,-0.099,0.855,-0.108,-2.36,-0.1,9.56,-4.23,-2.23,0.28
2022-02-08 11:23:05.6630,-0.032,0.75,-0.171,-2.36,-0.1,9.56,-4.03,-1.3,0.29
2022-02-08 11:23:05.6630,0.008,0.705,-0.227,-2.36,-0.1,9.56,-3.75,-0.22,0.21
2022-02-08 11:23:05.6620,0.083,0.696,-0.293,-2.36,-0.1,9.56,-3.46,1.04,0.14
2022-02-08 11:23:05.6640,0.149,0.726,-0.372,-2.36,-0.1,9.56,-3.02,2.52,0.02
2022-02-08 11:23:05.6650,0.238,0.814,-0.465,-2.36,-0.1,9.56,-2.35,4.2,-0.15
2022-02-08 11:23:05.6660,0.353,0.903,-0.498,-2.36,-0.1,9.56,-1.63,5.94,-0.27
2022-02-08 11:23:05.6670,0.476,0.931,-0.457,-2.36,-0.1,9.56,-1.0,7.63,-0.3
2022-02-08 11:23:05.6690,0.691,0.874,-0.575,-2.36,-0.1,9.56,-0.2,9.24,-0.04
2022-02-08 11:23:05.6690,0.921,0.685,-0.957,-2.36,-0.1,9.56,1.02,10.35,0.56
2022-02-08 11:23:05.6710,0.926,0.471,-1.206,-2.36,-0.1,9.56,2.33,10.78,1.21
2022-02-08 11:23:05.6710,0.786,0.409,-0.779,-2.36,-0.1,9.56,2.92,11.2,1.65
2022-02-08 11:23:05.6730,0.652,0.407,-0.616,-2.36,-0.1,9.56,3.02,11.25,1.84
2022-02-08 11:23:05.6740,0.638,0.377,-0.992,-2.36,-0.1,9.56,3.08,10.07,1.9
2022-02-08 11:23:05.6750,0.489,0.292,-1.628,-2.36,-0.1,9.56,3.21,6.68,1.86
2022-02-08 11:23:05.6750,0.305,0.335,-2.032,-2.36,-0.1,9.56,3.48,0.75,1.81
2022-02-08 11:23:05.6770,0.004,0.735,-1.616,-2.36,-0.1,9.56,3.23,-10.95,1.93
2022-02-08 11:23:05.6770,-0.368,1.227,1.099,-2.36,-0.1,9.56,1.18,-15.82,1.4
2022-02-08 11:23:05.6790,-2.546,2.065,5.582,-2.36,-0.1,9.56,-2.75,-8.55,-0.2
2022-02-08 11:23:05.6790,-3.012,1.884,2.635,-2.36,-0.1,9.56,-2.33,0.65,-1.05
2022-02-08 11:23:05.6810,-2.738,1.553,-2.192,-2.36,-0.1,9.56,0.79,2.58,-1.29
2022-02-08 11:23:05.6820,-1.521,1.256,0.222,-2.36,-0.1,9.56,0.68,4.31,0.07
2022-02-08 11:23:05.6830,-0.105,1.504,1.297,-2.36,-0.1,9.56,-0.92,1.99,1.48
2022-02-08 11:23:05.6840,0.299,2.01,0.744,-2.36,-0.1,9.56,-2.2,-0.68,2.03
2022-02-08 11:23:05.6850,0.298,2.039,0.329,-2.36,-0.1,9.56,-3.07,-2.33,1.77
2022-02-08 11:23:05.6890,0.075,1.9,-0.288,-2.36,-0.1,9.56,-3.62,-3.69,0.99
Time,-0.073,1.701,-0.46,-2.36,-0.1,9.56,-3.89,-4.61,0.12
2022-02-08 11:23:05.6890,-0.17,1.579,-0.402,-2.36,-0.1,9.56,-3.79,-5.33,-0.58
2022-02-08 11:23:05.6920,-0.156,1.503,-0.324,-2.36,-0.1,9.56,-3.42,-5.73,-1.0
2022-02-08 11:23:05.6880,-0.105,1.42,-0.471,-2.36,-0.1,9.56,-2.92,-5.88,-1.15
2022-02-08 11:23:05.6900,-0.026,1.306,-0.683,-2.36,-0.1,9.56,-2.35,-5.89,-0.97
2022-02-08 11:23:05.6940,0.039,1.09,-0.525,-2.36,-0.1,9.56,-1.82,-5.37,-0.52
2022-02-08 11:23:05.6940,-0.164,0.867,-0.005,-2.36,-0.1,9.56,-1.48,-4.21,-0.14
2022-02-08 11:23:05.6940,-0.485,0.676,0.443,-2.36,-0.1,9.56,-1.73,-3.16,-0.13
2022-02-08 11:23:05.6950,-0.661,0.505,0.3,-2.36,-0.1,9.56,-2.11,-2.84,-0.36
2022-02-08 11:23:05.6950,-0.67,0.389,-0.047,-2.36,-0.1,9.56,-2.18,-2.76,-0.6
2022-02-08 11:23:05.6970,-0.75,0.359,-0.11,-2.36,-0.1,9.56,-2.12,-2.65,-0.89
2022-02-08 11:23:05.6990,-0.837,0.365,0.131,-2.36,-0.1,9.56,-2.11,-2.27,-1.17
2022-02-08 11:23:05.7010,-0.81,0.465,0.13,-2.36,-0.1,9.56,-0.91,-1.67,-1.26
2022-02-08 11:23:05.7010,-0.629,0.508,0.13,-2.36,-0.1,9.56,-0.91,-1.67,-1.26
2022-02-08 11:23:05.7010,-0.471,0.476,0.106,-2.36,-0.1,9.56,-0.91,-1.67,-1.26
2022-02-08 11:23:05.7050,-0.362,0.43,0.19,-2.36,-0.1,9.56,-0.14,-1.73,-1.14
2022-02-08 11:23:05.7030,-0.275,0.409,0.188,-2.36,-0.1,9.56,0.4,-1.37,-1.31
2022-02-08 11:23:05.7080,-0.2,0.412,0.103,-2.36,-0.1,9.56,0.58,-1.23,-1.6
2022-02-08 11:23:05.7070,-0.074,0.393,-0.018,-2.36,-0.1,9.56,1.0,-1.42,-1.81
Time,0.002,0.409,-0.016,-2.36,-0.1,9.56,1.59,-1.65,-1.98
2022-02-08 11:23:05.7070,0.03,0.465,0.149,-2.36,-0.1,9.56,2.17,-1.69,-2.16
2022-02-08 11:23:05.7070,0.025,0.55,0.283,-2.36,-0.1,9.56,2.66,-1.85,-2.36
2022-02-08 11:23:05.7060,0.105,0.755,0.269,-2.36,-0.1,9.56,2.98,-2.18,-2.57
2022-02-08 11:23:05.7150,0.359,1.133,0.215,-2.36,-0.1,9.56,2.91,-2.31,-2.56
2022-02-08 11:23:05.7120,0.714,1.501,0.082,-2.36,-0.1,9.56,2.68,-1.67,-2.15
2022-02-08 11:23:05.7120,0.832,1.677,0.058,-2.36,-0.1,9.56,2.28,-0.15,-1.58
2022-02-08 11:23:05.7130,0.88,1.831,0.027,-2.36,-0.1,9.56,1.94,1.12,-0.97
2022-02-08 11:23:05.7120,0.945,1.948,-0.302,-2.35,1.93,6.51,2.63,0.57,-0.23
2022-02-08 11:23:05.7130,0.996,2.028,-0.5,-2.35,1.93,6.51,3.93,-1.95,0.69
2022-02-08 11:23:05.7190,1.004,1.974,-0.295,-2.35,1.93,6.51,4.73,-5.33,1.45
2022-02-08 11:23:05.7220,0.943,1.73,0.067,-2.35,1.93,6.51,4.61,-7.43,1.81
Time,0.708,1.33,0.398,-2.35,1.93,6.51,3.74,-7.15,1.94
2022-02-08 11:23:05.7250,0.494,0.999,0.502,-2.35,1.93,6.51,2.66,-6.03,2.03
2022-02-08 11:23:05.7190,0.491,0.828,0.461,-2.35,1.93,6.51,1.83,-5.97,2.07
2022-02-08 11:23:05.7170,0.844,0.866,0.817,-2.35,1.93,6.51,1.39,-8.55,2.1
2022-02-08 11:23:05.7180,1.009,1.036,2.205,-2.35,1.93,6.51,1.16,-9.28,2.08
Time,0.368,1.479,3.566,-2.35,1.93,6.51,0.23,-3.95,1.97
2022-02-08 11:23:05.7190,-0.125,1.412,2.914,-2.35,1.93,6.51,-1.38,2.24,1.97
2022-02-08 11:23:05.7280,-0.018,0.828,1.021,-2.35,1.93,6.51,-2.82,5.28,1.92
2022-02-08 11:23:05.7300,0.017,0.792,0.127,-2.35,1.93,6.51,-3.69,6.39,1.49
2022-02-08 11:23:05.7320,-0.124,1.013,-0.077,-2.35,1.93,6.51,-3.92,6.94,0.73
2022-02-08 11:23:05.7250,-0.315,1.3,-0.362,-2.35,1.93,6.51,-3.38,7.07,-0.31
2022-02-08 11:23:05.7340,-0.581,1.66,-0.67,-2.35,1.93,6.51,-1.91,6.93,-1.53
2022-02-08 11:23:05.7270,-0.83,1.869,-0.732,-2.35,1.93,6.51,0.12,6.61,-2.77
2022-02-08 11:23:05.7360,-0.996,1.822,-0.658,-2.35,1.93,6.51,2.3,5.64,-3.71
2022-02-08 11:23:05.7270,-1.275,1.453,1.012,-2.35,1.93,6.51,1.7,1.15,-4.0
2022-02-08 11:23:05.7290,-1.395,1.329,2.512,-2.35,1.93,6.51,-1.9,-3.81,-3.74
2022-02-08 11:23:05.7380,-0.836,1.176,1.126,-2.35,1.93,6.51,-3.91,-6.42,-2.4
2022-02-08 11:23:05.7390,-0.805,1.068,0.216,-2.35,1.93,6.51,-3.92,-6.78,-1.38
2022-02-08 11:23:05.7290,-0.811,1.059,-0.062,-2.35,1.93,6.51,-3.09,-5.36,-1.06
2022-02-08 11:23:05.7410,-0.723,1.013,-0.301,-2.35,1.93,6.51,-2.28,-3.73,-1.27
2022-02-08 11:23:05.7360,-0.518,0.819,-0.52,-2.35,1.93,6.51,-1.63,-3.09,-1.61
2022-02-08 11:23:05.7430,-0.224,0.575,-0.483,-2.35,1.93,6.51,-1.31,-2.92,-1.8
2022-02-08 11:23:05.7450,0.071,0.392,-0.288,-2.35,1.93,6.51,-1.33,-2.45,-1.72
2022-02-08 11:23:05.7450,0.239,0.359,-0.11,-2.35,1.93,6.51,-1.6,-1.94,-1.66
2022-02-08 11:23:05.7460,0.346,0.414,-0.149,-2.35,1.93,6.51,-1.66,-1.98,-1.64
2022-02-08 11:23:05.7380,0.435,0.432,-0.184,-2.35,1.93,6.51,-1.29,-2.81,-1.63
Time,0.507,0.464,-0.083,-2.35,1.93,6.51,-0.54,-3.64,-1.61
2022-02-08 11:23:05.7480,0.578,0.493,0.079,-2.35,1.93,6.51,0.37,-3.99,-1.52
2022-02-08 11:23:05.7500,0.683,0.571,0.201,-2.35,1.93,6.51,1.26,-3.72,-1.25
2022-02-08 11:23:05.7440,0.746,0.708,0.382,-2.35,1.93,6.51,1.92,-2.79,-0.84
2022-02-08 11:23:05.7410,0.748,0.872,0.539,-2.35,1.93,6.51,2.29,-1.22,-0.41
2022-02-08 11:23:05.7520,0.666,1.031,0.654,-2.35,1.93,6.51,2.24,0.76,-0.05
2022-02-08 11:23:05.7550,0.546,1.187,0.637,-2.35,1.93,6.51,1.87,2.51,0.12
2022-02-08 11:23:05.7480,0.477,1.323,0.424,-2.35,1.93,6.51,1.5,3.42,0.15
Time,0.49,1.401,0.203,-2.35,1.93,6.51,1.46,3.6,0.09
2022-02-08 11:23:05.7500,0.531,1.392,0.063,-2.35,1.93,6.51,1.82,3.28,-0.05
2022-02-08 11:23:05.7480,0.539,1.26,-0.032,-2.35,1.93,6.51,2.3,2.71,-0.06
2022-02-08 11:23:05.7590,0.468,1.058,-0.042,-2.35,1.93,6.51,2.58,2.35,0.22
2022-02-08 11:23:05.7610,0.385,0.89,0.005,-2.35,1.93,6.51,2.59,2.46,0.64
Time,0.28,0.767,0.049,-2.35,1.93,6.51,2.43,2.91,0.94
2022-02-08 11:23:05.7530,0.205,0.674,0.042,-2.35,1.93,6.51,2.3,3.38,1.09
2022-02-08 11:23:05.7620,0.158,0.577,0.013,-2.35,1.93,6.51,2.26,3.77,1.14
Time,0.131,0.461,-0.006,-2.35,1.93,6.51,2.26,4.12,1.14
2022-02-08 11:23:05.7580,0.131,0.335,-0.038,-2.35,1.93,6.51,2.29,4.43,1.16
2022-02-08 11:23:05.7670,0.144,0.228,-0.116,-2.35,1.93,6.51,2.37,4.53,1.2
2022-02-08 11:23:05.7590,0.106,0.218,-0.357,-2.35,1.93,6.51,2.6,4.05,1.18
2022-02-08 11:23:05.7590,0.053,0.28,-0.834,-2.35,1.93,6.51,3.14,2.54,1.06
2022-02-08 11:23:05.7690,0.001,0.363,-0.842,-2.35,1.93,6.51,3.5,0.83,0.82
2022-02-08 11:23:05.7630,-0.056,0.518,-0.68,-2.35,1.93,6.51,3.61,-0.56,0.46
2022-02-08 11:23:05.7710,-0.122,0.818,-0.57,-2.35,1.93,6.51,3.5,-1.58,-0.07
2022-02-08 11:23:05.7640,-0.206,1.235,-0.188,-2.35,1.93,6.51,3.05,-1.37,-0.7
2022-02-08 11:23:05.7730,-0.394,1.949,0.291,-2.35,1.93,6.51,3.5,1.44,-1.06
2022-02-08 11:23:05.7750,-0.857,3.26,2.072,-2.35,1.93,6.51,6.55,7.77,-0.33
2022-02-08 11:23:05.7670,-2.015,4.045,6.228,-2.35,1.93,6.51,0.68,7.6,-1.01
2022-02-08 11:23:05.7690,-1.768,3.123,2.189,-2.35,1.93,6.51,-1.92,5.23,-1.06
2022-02-08 11:23:05.7770,-0.913,2.074,-0.432,-2.35,1.93,6.51,-2.44,1.49,-0.23
2022-02-08 11:23:05.7700,-0.429,1.586,-0.376,-2.35,1.93,6.51,-2.7,-0.71,0.39
2022-02-08 11:23:05.7790,-0.277,1.411,-0.158,-2.35,1.93,6.51,-2.95,-1.42,0.49
2022-02-08 11:23:05.7740,-0.206,1.213,-0.075,-2.35,1.93,6.51,-3.19,-1.64,0.3
2022-02-08 11:23:05.7810,-0.102,0.999,-0.014,-2.35,1.93,6.51,-3.49,-1.85,0.07
2022-02-08 11:23:05.7730,0.057,0.809,-0.031,-2.35,1.93,6.51,-3.78,-2.28,-0.04
2022-02-08 11:23:05.7830,0.218,0.683,-0.043,-2.35,1.93,6.51,-4.05,-2.77,0.04
2022-02-08 11:23:05.7850,0.319,0.624,-0.057,-2.35,1.93,6.51,-4.27,-2.87,0.29
2022-02-08 11:23:05.7780,0.364,0.575,-0.112,-2.35,1.93,6.51,-4.34,-2.61,0.66
2022-02-08 11:23:05.7790,0.387,0.576,-0.164,-2.35,1.93,6.51,-4.26,-2.31,0.99
2022-02-08 11:23:05.7870,0.379,0.696,-0.215,-2.35,1.93,6.51,-3.67,-2.29,1.02
2022-02-08 11:23:05.7790,0.375,0.861,-0.263,-2.35,1.93,6.51,-2.35,-1.99,0.74
2022-02-08 11:23:05.7890,0.37,0.981,-0.08,-2.35,1.93,6.51,-1.11,-0.89,0.64
2022-02-08 11:23:05.7830,0.375,0.986,0.174,-2.35,1.93,6.51,-0.6,0.94,1.12
2022-02-08 11:23:05.7830,0.3,1.016,0.265,-2.35,1.93,6.51,-0.68,2.93,1.84
2022-02-08 11:23:05.7910,0.136,1.222,0.088,-2.35,1.93,6.51,-0.87,4.42,2.3
2022-02-08 11:23:05.7930,-0.132,1.592,-0.159,-2.35,1.93,6.51,-0.91,5.34,2.1
2022-02-08 11:23:05.7950,-0.45,1.866,-0.416,-2.35,1.93,6.51,-0.71,5.7,1.21
2022-02-08 11:23:05.7880,-0.589,1.745,-0.603,-2.35,1.93,6.51,-0.32,5.57,0.09
2022-02-08 11:23:05.7880,-0.463,1.285,-0.64,-2.35,1.93,6.51,0.14,5.18,-0.7
2022-02-08 11:23:05.7970,-0.211,0.867,-0.53,-2.35,1.93,6.51,0.48,4.93,-0.96
2022-02-08 11:23:05.7900,-0.024,0.649,-0.357,-2.35,1.93,6.51,0.61,4.98,-0.85
2022-02-08 11:23:05.7920,0.073,0.501,-0.292,-2.35,1.93,6.51,0.63,5.18,-0.55
2022-02-08 11:23:05.7990,0.108,0.38,-0.32,-2.35,1.93,6.51,0.65,5.39,-0.22
2022-02-08 11:23:05.7930,0.157,0.304,-0.479,-2.35,1.93,6.51,0.79,5.66,0.08
2022-02-08 11:23:05.8010,0.153,0.3,-0.609,-2.35,1.93,6.51,0.98,5.99,0.26
2022-02-08 11:23:05.8030,0.126,0.3,-0.788,-2.35,1.93,6.51,1.31,5.92,0.32
2022-02-08 11:23:05.8050,0.055,0.258,-1.173,-2.35,1.93,6.51,1.95,4.84,0.35
2022-02-08 11:23:05.7980,0.009,0.217,-1.336,-2.35,1.93,6.51,2.73,3.18,0.43
2022-02-08 11:23:05.7980,-0.068,0.242,-1.361,-2.35,1.93,6.51,3.44,1.32,0.43
2022-02-08 11:23:05.7980,-0.109,0.296,-1.257,-2.35,1.93,6.51,3.81,-0.35,0.44
2022-02-08 11:23:05.8080,-0.196,0.5,-0.848,-2.35,1.93,6.51,3.67,-0.97,0.39
Time,-0.67,1.147,1.0,-2.35,1.93,6.51,2.49,1.03,0.01
2022-02-08 11:23:05.8100,-2.191,2.851,5.137,-2.35,1.93,6.51,0.55,5.12,-1.16
Time,-1.896,2.834,0.863,-2.35,1.93,6.51,0.29,4.56,-1.7
Time,-1.1,2.158,-0.826,-2.35,1.93,6.51,0.57,1.67,-1.02
2022-02-08 11:23:05.8120,-0.286,1.64,-0.117,-2.35,1.93,6.51,-0.04,0.78,0.3
2022-02-08 11:23:05.8130,-0.062,1.397,0.088,-2.35,1.93,6.51,-0.83,0.2,0.86
2022-02-08 11:23:05.8080,0.043,1.36,-0.153,-2.35,1.93,6.51,-1.34,-0.68,0.84
2022-02-08 11:23:05.8100,0.117,1.437,-0.159,-2.35,1.93,6.51,-1.74,-1.78,0.6
2022-02-08 11:23:05.8090,0.214,1.518,-0.038,-2.35,1.93,6.51,-2.18,-2.62,0.37
2022-02-08 11:23:05.8160,0.304,1.529,0.013,-2.35,1.93,6.51,-2.57,-3.03,0.36
2022-02-08 11:23:05.8190,0.349,1.476,-0.056,-2.35,1.93,6.51,-2.76,-3.38,0.57
Time,0.308,1.398,-0.194,-2.35,1.93,6.51,-2.71,-4.06,0.88
2022-02-08 11:23:05.8130,0.252,1.326,-0.228,-2.35,1.93,6.51,-2.54,-5.11,1.14
2022-02-08 11:23:05.8210,0.318,1.241,0.075,-2.35,1.93,6.51,-2.47,-7.22,1.4
2022-02-08 11:23:05.8230,0.471,1.125,0.847,-2.35,1.93,6.51,-2.76,-9.68,1.86
2022-02-08 11:23:05.8180,0.408,1.06,1.379,-2.35,1.93,6.51,-2.84,-9.06,2.53
2022-02-08 11:23:05.8180,-0.02,1.07,1.317,-2.35,1.93,6.51,-2.86,-6.21,2.93
2022-02-08 11:23:05.8250,-0.436,1.088,0.784,-2.35,1.93,6.51,-2.83,-3.42,2.85
2022-02-08 11:23:05.8250,-0.644,1.102,0.057,-2.35,1.93,6.51,-2.39,-1.39,2.33
2022-02-08 11:23:05.8280,-0.82,1.029,-0.44,-2.35,1.93,6.51,-1.61,-0.25,1.45
2022-02-08 11:23:05.8210,-0.826,0.817,-0.431,-2.35,1.93,6.51,-1.13,0.25,0.61
2022-02-08 11:23:05.8300,-0.816,0.617,-0.192,-2.35,1.93,6.51,-1.33,0.51,-0.07
2022-02-08 11:23:05.8230,-0.648,0.388,0.122,-2.35,1.93,6.51,-2.09,0.79,-0.41
2022-02-08 11:23:05.8320,-0.393,0.271,0.023,-2.35,1.93,6.51,-2.3,1.43,-0.36
2022-02-08 11:23:05.8260,-0.159,0.186,-0.208,-2.35,1.93,6.51,-1.81,1.99,0.07
2022-02-08 11:23:05.8340,-0.118,0.081,-0.398,-2.35,1.93,6.51,-1.1,1.55,0.63
2022-02-08 11:23:05.8270,-0.416,0.008,-0.299,-2.35,1.93,6.51,-0.42,0.75,0.66
2022-02-08 11:23:05.8360,-0.425,-0.045,0.077,-2.35,1.93,6.51,0.09,0.65,0.4
2022-02-08 11:23:05.8360,-0.331,-0.011,0.214,-2.35,1.93,6.51,0.5,0.54,-0.01
2022-02-08 11:23:05.8380,-0.253,0.096,0.159,-2.35,1.93,6.51,1.0,0.09,-0.37
2022-02-08 11:23:05.8320,-0.132,0.258,0.086,-2.35,1.93,6.51,1.66,-0.41,-0.62
2022-02-08 11:23:05.8320,0.057,0.46,-0.023,-2.35,1.93,6.51,2.43,-0.82,-0.69
2022-02-08 11:23:05.8400,0.196,0.692,-0.214,-2.35,1.93,6.51,3.26,-1.23,-0.71
2022-02-08 11:23:05.8360,-0.164,-0.612,-0.826,-2.35,1.93,6.51,-0.6,0.86,-0.42
2022-02-08 11:23:05.8420,-0.063,-0.679,-0.987,-2.35,1.93,6.51,-0.41,0.88,-0.16
2022-02-08 11:23:05.8370,0.049,-0.687,-1.036,-2.35,1.93,6.51,-0.35,0.74,0.14
2022-02-08 11:23:05.8380,0.113,-0.648,-1.015,-2.35,1.93,6.51,-0.33,0.54,0.38
2022-02-08 11:23:05.8440,0.122,-0.59,-0.998,-2.35,1.93,6.51,-0.32,0.35,0.54
2022-02-08 11:23:05.8470,0.111,-0.531,-0.977,-2.35,1.93,6.51,-0.29,0.14,0.58
2022-02-08 11:23:05.8410,0.063,-0.492,-0.945,-2.35,1.93,6.51,-0.28,0.04,0.54
2022-02-08 11:23:05.8470,-0.01,-0.5,-0.888,-2.35,1.93,6.51,-0.32,0.18,0.42
2022-02-08 11:23:05.8470,-0.09,-0.519,-0.842,-2.35,1.93,6.51,-0.42,0.51,0.27
2022-02-08 11:23:05.8440,-0.145,-0.517,-0.844,-2.35,1.93,6.51,-0.52,0.78,0.13
2022-02-08 11:23:05.8480,-0.122,-0.488,-0.894,-2.35,1.93,6.51,-0.55,0.8,0.05
2022-02-08 11:23:05.8490,-0.052,-0.463,-0.924,-2.35,1.93,6.51,-0.53,0.7,0.02
2022-02-08 11:23:05.8500,0.005,-0.46,-0.926,-2.35,1.93,6.51,-0.5,0.58,0.01
2022-02-08 11:23:05.8560,0.032,-0.475,-0.933,-2.35,1.93,6.51,-0.46,0.47,0.02
2022-02-08 11:23:05.8550,0.037,-0.49,-0.946,-2.35,1.93,6.51,-0.4,0.38,0.01
2022-02-08 11:23:05.8530,0.035,-0.491,-0.96,-2.35,1.93,6.51,-0.32,0.31,0.01
2022-02-08 11:23:05.8540,0.042,-0.494,-0.966,-2.35,1.93,6.51,-0.22,0.2,0.03
2022-02-08 11:23:05.8540,0.051,-0.502,-0.968,-2.35,1.93,6.51,-0.11,0.08,0.06
2022-02-08 11:23:05.8560,0.059,-0.513,-0.958,-2.35,1.93,6.51,-0.0,0.01,0.1
2022-02-08 11:23:05.8590,0.058,-0.512,-0.942,-2.35,1.93,6.51,0.09,-0.03,0.12
2022-02-08 11:23:05.8600,0.051,-0.503,-0.919,-2.35,1.93,6.51,0.14,-0.07,0.14
2022-02-08 11:23:05.8610,0.044,-0.504,-0.89,-2.35,1.93,6.51,0.16,-0.11,0.16
2022-02-08 11:23:05.8600,0.03,-0.516,-0.858,-2.35,1.93,6.51,0.19,-0.08,0.18
2022-02-08 11:23:05.8600,0.006,-0.517,-0.831,-2.35,1.93,6.51,0.2,0.02,0.21
2022-02-08 11:23:05.8610,-0.019,-0.501,-0.817,-2.35,1.93,6.51,0.21,0.19,0.22
2022-02-08 11:23:05.8620,-0.024,-0.491,-0.822,-2.35,1.93,6.51,0.21,0.34,0.21
2022-02-08 11:23:05.8630,0.008,-0.5,-0.835,-2.35,1.93,6.51,0.19,0.38,0.21
2022-02-08 11:23:05.8650,0.048,-0.515,-0.847,-2.35,1.93,6.51,0.14,0.33,0.23
2022-02-08 11:23:05.8690,0.069,-0.527,-0.843,-2.35,1.93,6.51,0.07,0.27,0.25
2022-02-08 11:23:05.8650,0.057,-0.518,-0.838,-2.35,1.93,6.51,-0.0,0.22,0.23
2022-02-08 11:23:05.8670,0.028,-0.498,-0.854,-2.35,1.93,6.51,-0.05,0.18,0.19
2022-02-08 11:23:05.8680,0.011,-0.492,-0.869,-2.35,1.93,6.51,-0.08,0.08,0.16
2022-02-08 11:23:05.8680,0.003,-0.494,-0.87,-2.35,1.93,6.51,-0.11,-0.06,0.11
2022-02-08 11:23:05.8700,-0.002,-0.49,-0.859,-2.35,1.93,6.51,-0.18,-0.18,0.06
2022-02-08 11:23:05.8720,0.005,-0.491,-0.84,-2.35,1.93,6.51,-0.27,-0.24,0.02
2022-02-08 11:23:05.8720,0.018,-0.507,-0.82,-2.35,1.93,6.51,-0.36,-0.26,0.02
2022-02-08 11:23:05.8740,0.027,-0.514,-0.808,-2.35,1.93,6.51,-0.42,-0.22,0.03
2022-02-08 11:23:05.8750,0.018,-0.497,-0.806,-2.35,1.93,6.51,-0.44,-0.14,0.03
2022-02-08 11:23:05.8750,-0.002,-0.48,-0.82,-2.35,1.93,6.51,-0.43,-0.05,0.01
2022-02-08 11:23:05.8800,-0.018,-0.469,-0.848,-2.35,1.93,6.51,-0.38,0.02,-0.02
2022-02-08 11:23:05.8790,-0.024,-0.458,-0.889,-2.35,1.93,6.51,-0.3,0.05,-0.05
Time,-0.008,-0.461,-0.934,-2.35,1.93,6.51,-0.17,0.02,-0.05
2022-02-08 11:23:05.8810,0.014,-0.464,-0.961,-2.35,1.93,6.51,-0.03,-0.07,-0.03
2022-02-08 11:23:05.8790,0.028,-0.463,-0.958,-2.35,1.93,6.51,0.09,-0.12,0.01
2022-02-08 11:23:05.8810,0.023,-0.469,-0.937,-2.35,1.93,6.51,0.17,-0.16,0.03
2022-02-08 11:23:05.8820,0.007,-0.472,-0.913,-2.35,1.93,6.51,0.21,-0.19,0.02
2022-02-08 11:23:05.8860,-0.001,-0.47,-0.878,-2.35,1.93,6.51,0.2,-0.18,0.01
2022-02-08 11:23:05.8860,0.007,-0.48,-0.842,-2.35,1.93,6.51,0.17,-0.14,0.0
2022-02-08 11:23:05.8870,0.008,-0.497,-0.819,-2.35,1.93,6.51,0.11,-0.1,0.01
2022-02-08 11:23:05.8860,-0.005,-0.502,-0.808,-2.35,1.93,6.51,0.05,-0.08,0.02
2022-02-08 11:23:05.8870,-0.016,-0.502,-0.802,-2.35,1.93,6.51,-0.03,-0.05,0.03
2022-02-08 11:23:05.8890,-0.03,-0.495,-0.809,-2.35,1.93,6.51,-0.1,-0.0,0.02
2022-02-08 11:23:05.8960,-0.045,-0.48,-0.836,-2.35,1.93,6.51,-0.14,0.04,0.01
2022-02-08 11:23:05.8930,-0.042,-0.471,-0.866,-2.35,1.93,6.51,-0.14,0.07,0.0
2022-02-08 11:23:05.8920,-0.027,-0.469,-0.896,-2.35,1.93,6.51,-0.09,0.06,-0.02
2022-02-08 11:23:05.8930,-0.017,-0.473,-0.926,-2.35,1.93,6.51,0.0,0.01,-0.03
2022-02-08 11:23:05.8930,0.0,-0.482,-0.93,-2.35,1.93,6.51,0.09,-0.04,-0.01
2022-02-08 11:23:05.9060,0.025,-0.49,-0.897,-2.35,1.93,6.51,0.12,-0.02,0.03
2022-02-08 11:23:05.9160,0.019,-0.491,-0.859,-2.35,1.93,6.51,0.1,0.04,0.06
2022-02-08 11:23:05.9260,-0.005,-0.48,-0.846,-1.83,3.32,3.31,0.07,0.09,0.06
Time,-0.018,-0.463,-0.85,-1.83,3.32,3.31,0.06,0.13,0.04
2022-02-08 11:23:05.9460,-0.024,-0.45,-0.855,-1.83,3.32,3.31,0.06,0.17,0.02
2022-02-08 11:23:05.9560,-0.013,-0.451,-0.862,-1.83,3.32,3.31,0.07,0.2,0.01
2022-02-08 11:23:05.9670,0.012,-0.475,-0.873,-1.83,3.32,3.31,0.08,0.16,0.03
2022-02-08 11:23:05.9770,0.034,-0.499,-0.888,-1.83,3.32,3.31,0.05,0.03,0.04
2022-02-08 11:23:05.9870,0.039,-0.504,-0.885,-1.83,3.32,3.31,-0.01,-0.11,0.02
2022-02-08 11:23:05.9970,0.027,-0.491,-0.856,-1.83,3.32,3.31,-0.07,-0.19,-0.01
2022-02-08 11:23:06.0070,0.006,-0.488,-0.83,1.0,-0.93,10.57,-0.1,-0.19,-0.02
2022-02-08 11:23:06.0170,-0.009,-0.495,-0.817,-3.3,2.66,0.8,-0.12,-0.14,-0.02
2022-02-08 11:23:06.0270,-0.012,-0.496,-0.822,1.71,-0.49,4.75,-0.11,-0.04,-0.01
2022-02-08 11:23:06.0370,-0.011,-0.491,-0.847,4.52,-4.73,3.11,-0.07,0.01,0.02
2022-02-08 11:23:06.0470,-0.008,-0.489,-0.874,-2.14,-0.04,-1.38,-0.03,0.02,0.04
2022-02-08 11:23:06.0570,-0.006,-0.481,-0.884,0.21,2.34,2.27,-0.01,0.03,0.05
2022-02-08 11:23:06.0670,-0.011,-0.475,-0.883,-7.21,-3.38,-0.1,-0.01,0.02,0.04
2022-02-08 11:23:06.0770,-0.022,-0.474,-0.875,-1.07,6.6,6.92,-0.01,-0.01,0.03
2022-02-08 11:23:06.0870,-0.023,-0.475,-0.864,10.21,-3.46,-2.93,-0.02,-0.04,0.01
2022-02-08 11:23:06.0970,-0.015,-0.476,-0.854,20.16,-27.12,2.51,-0.04,-0.03,-0.0
Time,-0.007,-0.478,-0.852,-7.11,-6.12,4.07,-0.06,0.01,0.0
2022-02-08 11:23:06.1170,-0.004,-0.475,-0.863,1.95,-2.6,1.25,-0.05,0.07,0.0
2022-02-08 11:23:06.1280,-0.002,-0.468,-0.871,-3.7,-8.29,-8.51,-0.04,0.09,0.02
2022-02-08 11:23:06.1380,0.006,-0.479,-0.88,-1.96,2.45,1.42,-0.04,0.08,0.04
2022-02-08 11:23:06.1480,0.014,-0.5,-0.888,9.43,-3.54,-15.02,-0.06,0.04,0.06
2022-02-08 11:23:06.1580,0.018,-0.499,-0.884,-4.06,2.19,2.25,-0.1,-0.02,0.06
Time,0.014,-0.482,-0.878,-4.67,3.29,4.33,-0.15,-0.05,0.05
Time,-0.003,-0.467,-0.882,19.41,-20.45,-31.28,-0.19,-0.05,0.04
2022-02-08 11:23:06.1880,-0.022,-0.458,-0.888,4.05,9.14,2.63,-0.2,0.02,0.03
2022-02-08 11:23:06.1980,-0.029,-0.444,-0.909,-0.3,0.35,0.41,-0.16,0.09,0.01
2022-02-08 11:23:06.2080,-0.021,-0.435,-0.944,0.0,0.16,0.28,-0.08,0.08,-0.02
2022-02-08 11:23:06.2180,-0.013,-0.435,-0.97,0.18,0.35,-0.68,0.02,0.04,-0.04
2022-02-08 11:23:06.2260,-0.011,-0.442,-0.974,0.2,-0.19,0.73,0.11,0.01,-0.05
2022-02-08 11:23:06.2340,-0.011,-0.454,-0.957,0.17,-0.16,0.82,0.2,-0.0,-0.05
2022-02-08 11:23:06.2440,-0.018,-0.464,-0.927,0.16,-0.07,0.72,0.25,-0.0,-0.05
2022-02-08 11:23:06.2540,-0.022,-0.463,-0.882,0.22,0.02,0.46,0.23,0.02,-0.06
2022-02-08 11:23:06.2640,-0.023,-0.457,-0.848,0.28,0.03,0.06,0.15,0.02,-0.07
2022-02-08 11:23:06.2740,-0.026,-0.463,-0.851,0.29,-0.05,-0.33,0.07,-0.0,-0.09
2022-02-08 11:23:06.2850,-0.03,-0.462,-0.87,0.32,-0.03,-0.39,0.03,-0.03,-0.12
2022-02-08 11:23:06.2950,-0.033,-0.459,-0.885,0.36,0.0,-0.21,0.05,-0.04,-0.13
2022-02-08 11:23:06.3050,-0.037,-0.472,-0.885,0.4,-0.06,-0.04,0.09,-0.04,-0.14
2022-02-08 11:23:06.3150,-0.038,-0.487,-0.867,0.43,0.03,0.0,0.12,0.02,-0.12
2022-02-08 11:23:06.3250,-0.021,-0.505,-0.835,0.48,0.17,-0.11,0.13,0.1,-0.08
2022-02-08 11:23:06.3350,-0.021,-0.509,-0.827,0.34,0.34,-0.43,0.11,0.14,-0.05
2022-02-08 11:23:06.3450,-0.028,-0.502,-0.825,0.3,0.41,-0.57,0.09,0.21,-0.04
2022-02-08 11:23:06.3550,-0.026,-0.501,-0.817,0.39,0.34,-0.56,0.07,0.27,-0.03
2022-02-08 11:23:06.3650,-0.029,-0.496,-0.832,0.42,0.31,-0.65,0.03,0.24,-0.04
2022-02-08 11:23:06.3750,-0.043,-0.475,-0.862,0.44,0.29,-0.57,0.07,0.3,-0.11
2022-02-08 11:23:06.3850,-0.046,-0.457,-0.842,0.6,0.1,-0.27,0.38,0.43,-0.06
2022-02-08 11:23:06.3950,0.012,-0.526,-0.884,0.74,-0.19,-0.31,0.48,0.4,-0.06
2022-02-08 11:23:06.4020,0.007,-0.489,-0.875,0.32,0.35,0.02,0.42,0.19,-0.12
2022-02-08 11:23:06.4160,-0.014,-0.482,-0.867,0.13,0.2,-0.05,0.21,-0.02,-0.2
2022-02-08 11:23:06.4260,0.0,-0.501,-0.832,0.45,-0.05,0.02,-0.09,-0.28,-0.26
2022-02-08 11:23:06.4360,0.013,-0.522,-0.824,0.34,0.13,-0.39,-0.35,-0.49,-0.29
2022-02-08 11:23:06.4460,0.005,-0.511,-0.829,0.15,0.37,-0.51,-0.54,-0.61,-0.34
2022-02-08 11:23:06.4560,0.007,-0.488,-0.851,0.16,0.41,-0.55,-0.63,-0.69,-0.43
2022-02-08 11:23:06.4660,0.011,-0.458,-0.879,0.14,0.24,-0.37,-0.57,-0.69,-0.47
2022-02-08 11:23:06.4760,0.014,-0.484,-0.907,0.05,-0.02,-0.15,-0.41,-0.63,-0.45
2022-02-08 11:23:06.4860,0.012,-0.488,-0.928,-0.01,0.15,0.12,-0.24,-0.55,-0.43
