time,gFx,gFy,gFz,ax,ay,az,wx,wy,wz
2022-02-08 11:23:16.3380,0.106,-0.122,-0.93,0.36,-0.62,-0.35,-0.16,-1.24,-1.24
2022-02-08 11:23:16.3460,0.116,-0.143,-0.905,0.14,-0.46,-0.6,0.32,-0.54,-1.11
2022-02-08 11:23:16.3560,0.099,-0.132,-0.879,0.26,-0.5,-0.9,0.53,-0.22,-1.08
2022-02-08 11:23:16.3660,0.119,-0.147,-0.858,0.2,-0.52,-1.06,0.66,0.08,-1.09
2022-02-08 11:23:16.3760,0.195,-0.197,-0.789,-0.48,-0.09,-1.6,0.68,0.28,-1.04
2022-02-08 11:23:16.3860,0.198,-0.238,-0.734,-0.67,0.27,-2.23,0.63,0.42,-0.98
2022-02-08 11:23:16.3960,0.175,-0.244,-0.709,-0.36,0.42,-2.5,0.56,0.53,-0.97
2022-02-08 11:23:16.4060,0.183,-0.224,-0.745,-0.29,0.17,-2.39,0.49,0.45,-1.0
2022-02-08 11:23:16.4160,0.196,-0.203,-0.844,-0.38,-0.03,-1.38,0.35,0.24,-1.08
2022-02-08 11:23:16.4260,0.192,-0.173,-0.859,-0.33,-0.35,-1.01,0.15,0.06,-1.17
2022-02-08 11:23:16.4360,0.207,-0.158,-0.834,-0.35,-0.53,-1.21,-0.06,0.03,-1.21
2022-02-08 11:23:16.4470,0.261,-0.156,-0.852,-0.78,-0.56,-1.22,-0.18,0.03,-1.16
2022-02-08 11:23:16.4570,0.324,-0.164,-0.938,-1.39,-0.44,-0.49,-0.21,-0.06,-1.03
2022-02-08 11:23:16.4670,0.357,-0.165,-1.017,-1.79,-0.39,0.35,-0.19,-0.14,-0.88
2022-02-08 11:23:16.4770,0.332,-0.153,-1.047,-1.71,-0.41,0.77,-0.16,-0.22,-0.79
2022-02-08 11:23:16.4870,0.274,-0.116,-1.046,-1.16,-0.7,0.8,-0.09,-0.21,-0.77
2022-02-08 11:23:16.4970,0.229,-0.077,-1.043,-0.68,-1.07,0.76,0.02,-0.14,-0.82
2022-02-08 11:23:16.5070,0.203,-0.065,-1.036,-0.36,-1.29,0.7,0.11,-0.09,-0.9
2022-02-08 11:23:16.5170,0.194,-0.087,-1.041,-0.26,-1.11,0.7,0.15,-0.14,-0.99
2022-02-08 11:23:16.5280,0.183,-0.101,-1.059,-0.13,-0.94,0.87,0.17,-0.22,-1.05
2022-02-08 11:23:16.5370,0.194,-0.116,-1.063,-0.19,-0.8,0.95,0.22,-0.28,-1.09
2022-02-08 11:23:16.5470,0.202,-0.123,-1.037,-0.29,-0.7,0.8,0.26,-0.26,-1.12
2022-02-08 11:23:16.5580,0.239,-0.134,-0.964,-0.52,-0.64,0.17,0.27,-0.15,-1.07
2022-02-08 11:23:16.5670,0.317,-0.154,-0.912,-1.28,-0.46,-0.46,0.31,-0.07,-0.98
2022-02-08 11:23:16.5780,0.302,-0.173,-0.91,-1.44,-0.28,-0.57,0.32,-0.01,-0.92
2022-02-08 11:23:16.5880,0.207,-0.186,-0.936,-0.57,-0.11,-0.37,0.31,-0.03,-0.92
2022-02-08 11:23:16.5980,0.137,-0.137,-0.974,0.28,-0.43,0.01,0.31,-0.11,-1.01
2022-02-08 11:23:16.6080,0.15,-0.063,-0.996,0.33,-1.2,0.28,0.36,-0.16,-1.16
2022-02-08 11:23:16.6180,0.205,-0.035,-0.973,-0.12,-1.63,0.23,0.43,0.01,-1.29
2022-02-08 11:23:16.6280,0.171,-0.057,-0.907,-0.2,-1.54,-0.45,0.66,0.36,-1.43
2022-02-08 11:23:16.6380,0.021,-0.098,-0.933,1.33,-1.15,-0.38,0.99,0.65,-1.56
2022-02-08 11:23:16.6480,0.019,-0.093,-0.929,1.9,-1.18,-0.17,1.3,0.88,-1.6
2022-02-08 11:23:16.6590,0.145,-0.138,-0.811,0.92,-1.02,-1.04,1.57,1.17,-1.5
2022-02-08 11:23:16.6680,0.21,-0.215,-0.685,0.2,-0.35,-2.29,1.74,1.36,-1.35
2022-02-08 11:23:16.6790,0.223,-0.243,-0.584,0.13,-0.09,-3.24,1.85,1.48,-1.24
2022-02-08 11:23:16.6880,0.151,-0.231,-0.475,0.77,-0.24,-4.19,1.94,1.59,-1.29
2022-02-08 11:23:16.6990,0.055,-0.172,-0.388,1.95,-0.89,-5.08,2.17,1.73,-1.44
2022-02-08 11:23:16.7090,0.009,-0.134,-0.321,2.72,-1.49,-5.54,2.57,2.02,-1.63
2022-02-08 11:23:16.7190,-0.037,-0.079,-0.157,3.29,-2.11,-6.75,3.07,2.63,-1.85
2022-02-08 11:23:16.7290,-0.143,0.022,0.141,4.53,-3.23,-9.09,3.69,3.93,-2.07
2022-02-08 11:23:16.7390,-0.212,0.11,0.527,5.81,-4.42,-12.63,4.57,5.89,-2.24
2022-02-08 11:23:16.7490,-0.196,0.15,0.772,6.39,-5.21,-15.0,5.49,8.04,-2.3
2022-02-08 11:23:16.7590,-0.128,0.191,0.913,6.55,-5.83,-16.06,6.3,9.89,-2.41
2022-02-08 11:23:16.7690,-0.054,0.284,0.886,6.6,-6.97,-15.39,6.89,11.16,-2.58
2022-02-08 11:23:16.7790,0.121,0.402,0.745,6.16,-8.16,-13.26,7.22,11.48,-2.53
2022-02-08 11:23:16.7890,0.209,0.611,0.464,4.78,-10.63,-9.55,7.07,10.64,-3.17
2022-02-08 11:23:16.7990,-0.198,0.595,0.286,9.06,-10.45,-6.48,6.48,9.37,-4.09
2022-02-08 11:23:16.8090,-0.049,0.8,0.407,9.75,-12.23,-5.12,5.67,8.67,-4.65
2022-02-08 11:23:16.8200,0.17,0.786,0.684,7.16,-12.16,-7.71,4.89,7.69,-5.2
2022-02-08 11:23:16.8290,0.255,0.823,0.386,6.99,-11.94,-4.91,4.3,6.75,-5.49
2022-02-08 11:23:16.8400,0.565,0.796,0.075,4.31,-11.37,-0.77,3.96,5.84,-5.56
2022-02-08 11:23:16.8500,0.739,0.789,-0.07,2.38,-10.59,1.73,3.72,5.03,-5.48
2022-02-08 11:23:16.8600,0.881,0.829,-0.097,1.02,-10.32,2.76,3.49,4.33,-5.38
2022-02-08 11:23:16.8700,0.967,0.912,-0.119,0.04,-10.47,3.41,3.28,3.69,-5.38
2022-02-08 11:23:16.8800,1.013,0.998,-0.169,-0.48,-10.73,4.21,3.17,3.04,-5.53
2022-02-08 11:23:16.8900,1.069,1.099,-0.225,-0.99,-11.03,5.12,3.17,2.44,-5.8
2022-02-08 11:23:16.9000,1.202,1.217,-0.25,-2.13,-11.56,5.68,3.32,1.94,-6.02
2022-02-08 11:23:16.9100,1.426,1.299,-0.261,-4.23,-11.79,5.98,3.6,1.49,-6.12
2022-02-08 11:23:16.9200,1.655,1.351,-0.193,-6.7,-11.68,5.7,3.91,1.23,-6.0
2022-02-08 11:23:16.9300,1.823,1.395,-0.021,-8.62,-11.42,4.24,4.32,1.27,-5.67
2022-02-08 11:23:16.9410,1.996,1.475,0.173,-10.44,-11.4,2.33,4.86,1.58,-5.28
2022-02-08 11:23:16.9500,2.11,1.655,0.327,-12.11,-12.27,0.66,5.46,1.79,-5.1
2022-02-08 11:23:16.9610,2.092,1.913,0.433,-12.38,-14.03,-0.51,6.14,1.75,-5.27
2022-02-08 11:23:16.9710,2.115,2.179,0.578,-12.71,-16.08,-1.86,6.77,1.65,-5.6
2022-02-08 11:23:16.9810,2.198,2.298,0.813,-13.74,-17.09,-4.19,7.12,1.45,-5.84
2022-02-08 11:23:16.9910,2.319,2.215,1.118,-15.24,-16.05,-7.3,7.01,1.17,-5.81
2022-02-08 11:23:17.0010,2.436,2.052,1.442,-16.83,-13.93,-10.94,6.47,0.8,-5.56
2022-02-08 11:23:17.0110,2.517,1.891,1.648,-18.15,-11.82,-13.7,5.68,0.48,-5.18
2022-02-08 11:23:17.0210,2.527,1.699,1.713,-18.83,-9.65,-15.08,4.89,0.31,-4.71
2022-02-08 11:23:17.0310,2.476,1.434,1.615,-18.81,-6.86,-14.92,4.21,0.12,-4.17
2022-02-08 11:23:17.0410,2.432,1.151,1.349,-18.62,-3.76,-12.99,3.64,-0.34,-3.56
2022-02-08 11:23:17.0510,2.387,0.93,1.044,-18.65,-1.19,-10.26,2.96,-0.93,-2.92
2022-02-08 11:23:17.0620,2.204,0.775,0.819,-17.4,0.65,-8.13,2.15,-1.53,-2.39
2022-02-08 11:23:17.0720,1.994,0.673,0.641,-15.47,1.83,-6.64,1.4,-2.13,-1.95
2022-02-08 11:23:17.0810,1.868,0.567,0.384,-14.17,2.97,-4.54,0.9,-2.73,-1.44
2022-02-08 11:23:17.0920,1.849,0.499,0.148,-13.84,3.82,-2.24,0.66,-3.34,-0.84
2022-02-08 11:23:17.1020,1.889,0.494,0.05,-14.28,4.07,-1.1,0.56,-4.08,-0.23
2022-02-08 11:23:17.1120,1.907,0.57,0.025,-14.61,3.55,-1.04,0.6,-4.83,0.36
2022-02-08 11:23:17.1220,1.829,0.711,-0.001,-14.12,2.24,-0.99,0.86,-5.35,0.85
2022-02-08 11:23:17.1320,1.736,0.847,-0.007,-13.06,0.8,-1.25,1.37,-5.57,1.26
2022-02-08 11:23:17.1420,1.68,0.937,-0.05,-12.51,-0.3,-1.22,1.9,-5.76,1.64
2022-02-08 11:23:17.1520,1.609,1.02,0.059,-11.73,-1.14,-2.2,2.46,-5.25,1.9
2022-02-08 11:23:17.2250,1.525,1.06,0.091,-7.77,-2.78,-4.41,3.29,0.17,1.91
2022-02-08 11:23:17.2250,1.348,1.097,0.055,-7.77,-2.78,-4.41,3.29,0.17,1.91
2022-02-08 11:23:17.2250,1.211,1.1,0.119,-7.77,-2.78,-4.41,3.29,0.17,1.91
2022-02-08 11:23:17.2250,1.124,1.011,0.144,-7.77,-2.78,-4.41,3.29,0.17,1.91
2022-02-08 11:23:17.2250,1.007,0.847,0.19,-7.77,-2.78,-4.41,3.29,0.17,1.91
2022-02-08 11:23:17.2250,0.965,0.669,0.207,-7.77,-2.78,-4.41,3.29,0.17,1.91
2022-02-08 11:23:17.2260,0.985,0.511,0.095,-7.77,-2.78,-4.41,3.27,1.27,2.0
2022-02-08 11:23:17.2260,0.922,0.374,-0.123,-7.77,-2.78,-4.41,3.22,2.12,2.08
Time,0.843,0.19,-0.069,-7.77,-2.78,-4.41,2.98,2.67,2.1
Time,0.903,0.076,-0.102,-7.77,-2.78,-4.41,2.69,3.56,2.12
2022-02-08 11:23:17.2660,1.031,0.011,-0.357,-4.81,0.45,-6.46,2.5,3.52,2.41
2022-02-08 11:23:17.2740,1.059,-0.064,-0.58,-4.17,6.2,0.51,2.33,3.59,2.79
2022-02-08 11:23:17.2830,1.051,-0.188,-0.558,-4.12,7.18,0.82,2.07,3.5,3.3
2022-02-08 11:23:17.2930,0.95,-0.31,-0.339,-2.48,7.82,-0.91,1.84,3.75,4.06
2022-02-08 11:23:17.3030,1.183,-0.528,-0.395,-3.84,9.65,-1.06,1.83,4.0,5.16
2022-02-08 11:23:17.3130,1.124,-0.529,-0.439,-4.14,9.78,-0.07,1.92,4.55,5.77
2022-02-08 11:23:17.3230,0.708,-0.443,-0.565,0.42,8.27,1.02,2.06,5.0,6.18
2022-02-08 11:23:17.3440,0.68,-0.453,-0.505,3.66,5.71,0.59,1.67,4.9,6.52
2022-02-08 11:23:17.3440,0.435,-0.218,-0.396,3.66,5.71,0.59,0.76,4.49,6.27
2022-02-08 11:23:17.3400,0.167,0.126,-0.501,3.66,5.71,0.59,-0.18,4.08,5.95
2022-02-08 11:23:17.3590,-0.015,0.326,-0.684,3.66,5.71,0.59,-0.69,3.14,5.26
2022-02-08 11:23:17.3780,-0.446,0.743,-0.999,3.66,5.71,0.59,-0.76,2.24,4.39
2022-02-08 11:23:17.3780,-0.478,1.18,-1.07,3.66,5.71,0.59,-0.39,2.33,3.68
2022-02-08 11:23:17.3880,-0.432,1.458,-1.047,3.66,5.71,0.59,0.45,2.52,3.04
2022-02-08 11:23:17.3990,-0.371,1.356,-1.036,3.66,5.71,0.59,1.35,2.17,2.47
2022-02-08 11:23:17.4090,-0.271,1.142,-0.634,3.66,5.71,0.59,1.74,2.26,1.86
2022-02-08 11:23:17.4190,-0.093,0.895,-0.079,3.66,5.71,0.59,1.74,2.42,1.55
2022-02-08 11:23:17.4290,0.138,0.491,0.11,3.66,5.71,0.59,1.6,2.21,1.08
2022-02-08 11:23:17.4390,0.266,0.535,0.274,3.66,5.71,0.59,1.32,1.85,0.08
2022-02-08 11:23:17.4490,0.579,0.776,0.507,3.66,5.71,0.59,0.75,1.83,-1.33
2022-02-08 11:23:17.4590,0.692,0.905,0.724,3.66,5.71,0.59,-0.3,1.37,-2.57
2022-02-08 11:23:17.4690,0.564,0.857,0.889,3.66,5.71,0.59,-1.75,0.26,-3.5
2022-02-08 11:23:17.4790,0.335,0.681,0.87,3.66,5.71,0.59,-3.04,-0.26,-4.2
Time,0.643,0.683,0.971,-6.1,-7.57,-3.67,-3.04,-0.26,-4.2
2022-02-08 11:23:17.9290,1.338,0.771,0.715,-6.1,-7.57,-3.67,-3.04,-0.26,-4.2
2022-02-08 11:23:17.9290,1.708,0.933,0.519,-6.1,-7.57,-3.67,-3.04,-0.26,-4.2
2022-02-08 11:23:17.9290,1.708,0.933,0.519,-6.1,-7.57,-3.67,-3.04,-0.26,-4.2
2022-02-08 11:23:17.9290,2.284,0.493,-0.249,-6.1,-7.57,-3.67,-3.04,-0.26,-4.2
2022-02-08 11:23:17.9290,2.238,0.396,-2.262,-6.1,-7.57,-3.67,-3.04,-0.26,-4.2
2022-02-08 11:23:17.9300,2.986,-0.057,-2.067,-12.04,-2.85,0.97,-3.04,-0.26,-4.2
Time,3.187,-0.124,-0.754,-12.04,-2.85,0.97,-3.04,-0.26,-4.2
2022-02-08 11:23:17.9310,2.365,0.394,0.283,-12.04,-2.85,0.97,-3.04,-0.26,-4.2
2022-02-08 11:23:17.9310,1.693,0.357,0.655,-12.04,-2.85,0.97,-3.04,-0.26,-4.2
2022-02-08 11:23:17.9310,1.702,0.474,0.41,-12.04,-2.85,0.97,-3.04,-0.26,-4.2
Time,1.683,0.379,0.853,-12.04,-2.85,0.97,-3.04,-0.26,-4.2
Time,1.499,0.36,0.713,-12.04,-2.85,0.97,-3.04,-0.26,-4.2
Time,1.384,0.292,0.469,-12.04,-2.85,0.97,-3.04,-0.26,-4.2
Time,1.169,0.165,0.411,-12.04,-2.85,0.97,-3.04,-0.26,-4.2
Time,1.03,-0.03,0.45,-12.04,-2.85,0.97,-3.04,-0.26,-4.2
2022-02-08 11:23:17.9320,1.001,-0.14,0.502,-12.04,-2.85,0.97,-3.04,-0.26,-4.2
2022-02-08 11:23:17.9320,1.006,-0.155,0.526,-12.04,-2.85,0.97,-3.04,-0.26,-4.2
2022-02-08 11:23:17.9320,1.006,-0.155,0.526,-12.04,-2.85,0.97,-3.04,-0.26,-4.2
2022-02-08 11:23:17.9320,0.851,0.242,0.586,-12.04,-2.85,0.97,-3.04,-0.26,-4.2
2022-02-08 11:23:17.9320,0.851,0.242,0.586,-12.04,-2.85,0.97,-3.04,-0.26,-4.2
2022-02-08 11:23:17.9320,0.873,0.234,0.556,-12.04,-2.85,0.97,-3.04,-0.26,-4.2
2022-02-08 11:23:17.9320,0.525,0.423,0.556,-12.04,-2.85,0.97,-3.04,-0.26,-4.2
2022-02-08 11:23:17.9320,0.121,0.686,0.57,-12.04,-2.85,0.97,-3.04,-0.26,-4.2
2022-02-08 11:23:17.9320,-0.433,1.454,0.477,-12.04,-2.85,0.97,-3.04,-0.26,-4.2
2022-02-08 11:23:17.9320,-0.433,1.454,0.477,-12.04,-2.85,0.97,-3.04,-0.26,-4.2
2022-02-08 11:23:17.9320,-0.433,1.454,0.477,-12.04,-2.85,0.97,-3.04,-0.26,-4.2
2022-02-08 11:23:17.9320,-0.084,1.804,0.683,-12.04,-2.85,0.97,-3.04,-0.26,-4.2
2022-02-08 11:23:17.9320,-0.084,1.804,0.683,-12.04,-2.85,0.97,-3.04,-0.26,-4.2
2022-02-08 11:23:17.9320,0.354,2.872,0.278,-12.04,-2.85,0.97,-3.04,-0.26,-4.2
2022-02-08 11:23:17.9320,0.63,3.046,-0.617,-12.04,-2.85,0.97,-3.04,-0.26,-4.2
2022-02-08 11:23:17.9330,1.053,2.501,-1.471,-12.04,-2.85,0.97,-3.04,-0.26,-4.2
2022-02-08 11:23:17.9330,1.373,1.523,-1.349,-12.04,-2.85,0.97,-3.04,-0.26,-4.2
2022-02-08 11:23:17.9330,1.536,0.785,-0.594,-12.04,-2.85,0.97,-3.04,-0.26,-4.2
2022-02-08 11:23:17.9330,1.602,0.416,-0.232,-12.04,-2.85,0.97,-3.04,-0.26,-4.2
2022-02-08 11:23:17.9330,2.051,-0.192,0.17,-12.04,-2.85,0.97,-3.04,-0.26,-4.2
2022-02-08 11:23:17.9330,1.602,0.416,0.17,-12.04,-2.85,0.97,-3.04,-0.26,-4.2
2022-02-08 11:23:17.9330,1.826,-0.45,1.488,-12.04,-2.85,0.97,-3.04,-0.26,-4.2
2022-02-08 11:23:17.9330,1.834,-0.366,3.504,-12.04,-2.85,0.97,-3.04,-0.26,-4.2
2022-02-08 11:23:17.9330,1.834,-0.366,3.504,-12.04,-2.85,0.97,-3.04,-0.26,-4.2
2022-02-08 11:23:17.9330,0.859,-0.35,1.762,-12.04,-2.85,0.97,-3.04,-0.26,-4.2
2022-02-08 11:23:17.9330,0.859,-0.35,1.762,-12.04,-2.85,0.97,-3.04,-0.26,-4.2
2022-02-08 11:23:17.9330,0.365,0.068,0.107,-12.04,-2.85,0.97,-3.04,-0.26,-4.2
2022-02-08 11:23:17.9330,0.365,0.068,0.107,-12.04,-2.85,0.97,-3.04,-0.26,-4.2
2022-02-08 11:23:17.9780,0.217,0.495,0.143,-13.27,-0.7,19.99,-5.2,-0.99,0.0
2022-02-08 11:23:17.9790,0.497,0.667,0.294,-13.27,-0.7,19.99,-4.72,-1.65,0.06
2022-02-08 11:23:17.9800,0.647,0.708,-0.042,-13.27,-0.7,19.99,-3.88,-3.05,0.09
2022-02-08 11:23:17.9810,0.598,0.907,-0.454,-13.27,-0.7,19.99,-3.38,-5.96,-0.77
2022-02-08 11:23:17.9830,0.643,1.312,-0.682,-13.27,-0.7,19.99,-2.54,-5.7,-1.83
2022-02-08 11:23:17.9850,1.008,0.977,-0.106,-13.27,-0.7,19.99,-1.53,-3.48,-2.45
Time,1.379,0.197,-0.132,-13.27,-0.7,19.99,-0.78,-1.29,-2.15
2022-02-08 11:23:18.0040,1.74,-0.501,0.185,-13.27,-0.7,19.99,-0.82,0.4,-1.6
Time,1.884,-0.789,0.828,-13.27,-0.7,19.99,-1.22,0.51,-1.23
2022-02-08 11:23:18.0240,1.65,-0.806,0.854,-13.27,-0.7,19.99,-0.75,-1.46,-0.91
2022-02-08 11:23:18.0340,1.47,-0.709,0.579,-13.27,-0.7,19.99,-0.18,-2.2,-0.53
2022-02-08 11:23:18.0460,1.38,-0.482,0.729,-13.27,-0.7,19.99,0.3,-1.47,-0.44
2022-02-08 11:23:18.0590,1.253,-0.19,0.954,-13.27,-0.7,19.99,0.46,0.12,-0.4
2022-02-08 11:23:18.0670,1.253,-0.17,1.034,-13.27,-0.7,19.99,0.41,2.02,-0.24
2022-02-08 11:23:18.0740,1.337,0.049,0.95,-13.27,-0.7,19.99,0.41,3.76,-0.16
2022-02-08 11:23:18.0850,1.467,0.386,0.829,-13.27,-0.7,19.99,0.59,5.06,0.36
2022-02-08 11:23:18.1000,1.515,0.471,0.644,-18.24,3.67,24.01,0.97,5.67,1.22
2022-02-08 11:23:18.1040,1.325,0.409,0.382,-18.24,3.67,24.01,1.55,5.54,2.06
2022-02-08 11:23:18.1180,1.111,0.279,0.11,-18.24,3.67,24.01,2.42,5.03,2.6
2022-02-08 11:23:18.1240,0.884,0.056,-0.368,-18.24,3.67,24.01,3.76,4.59,2.94
2022-02-08 11:23:18.1380,0.52,-0.114,-1.006,-18.24,3.67,24.01,5.55,4.63,2.97
2022-02-08 11:23:18.1520,0.089,0.598,-1.687,-18.24,3.67,24.01,7.36,3.13,2.28
2022-02-08 11:23:18.1590,0.08,1.659,-2.455,-18.24,3.67,24.01,9.01,0.55,2.04
2022-02-08 11:23:18.1730,0.501,1.691,-2.314,-23.89,6.76,13.31,10.55,-0.78,2.48
2022-02-08 11:23:18.1800,0.558,1.91,-1.503,-23.89,6.76,13.31,11.18,-2.44,2.57
Time,0.303,1.825,-1.072,-17.47,2.46,0.79,10.87,-4.74,1.63
2022-02-08 11:23:18.2000,-0.029,1.784,-0.675,-9.42,2.33,-5.96,9.17,-7.38,0.1
2022-02-08 11:23:18.2100,-0.061,1.404,-0.158,-7.62,2.4,-5.48,6.77,-9.33,-1.19
Time,-0.02,0.978,0.137,-6.54,3.07,-3.11,4.68,-10.38,-1.84
2022-02-08 11:23:18.2260,0.002,0.811,0.134,-4.61,4.12,-2.19,3.1,-10.21,-2.46
2022-02-08 11:23:18.2400,0.927,0.782,2.061,-2.88,6.02,-2.61,-4.19,0.46,1.36
2022-02-08 11:23:18.2450,3.801,0.555,6.211,-2.88,6.02,-2.61,-9.3,4.66,3.5
Time,0.688,1.804,0.232,-2.36,7.31,-3.14,-10.34,4.42,1.22
Time,-0.687,2.429,-1.39,-2.36,7.31,-3.14,-10.35,5.39,-1.79
2022-02-08 11:23:18.2820,0.049,2.495,-0.976,-2.36,7.31,-3.14,-9.37,7.45,-4.53
Time,0.896,2.146,-1.898,-2.31,7.63,-3.55,-3.19,-1.31,-5.94
2022-02-08 11:23:18.3020,1.483,1.056,-2.668,-2.05,6.58,-3.5,-0.18,-5.89,-6.44
2022-02-08 11:23:18.3060,1.456,0.418,-0.726,-2.05,6.58,-3.5,-0.54,-5.6,-6.73
2022-02-08 11:23:18.3170,1.936,0.149,1.057,-1.21,3.64,-3.07,-4.07,-2.84,-4.57
Time,3.628,-0.21,3.306,-0.05,2.77,-4.14,-5.2,-2.36,-2.16
2022-02-08 11:23:18.3360,2.842,0.124,0.88,-0.05,2.77,-4.14,-5.2,-2.36,-2.16
2022-02-08 11:23:18.3500,1.598,0.343,-0.095,-0.53,2.79,-3.34,-4.07,-0.94,-0.57
2022-02-08 11:23:18.3560,1.1,0.488,-0.301,-0.53,2.79,-3.34,-3.41,-1.09,-0.28
2022-02-08 11:23:18.3710,0.817,0.562,-0.146,2.45,0.83,-3.82,-3.06,-1.2,-0.01
2022-02-08 11:23:18.3770,0.495,0.742,0.214,6.8,-2.17,-4.26,-2.71,-0.97,-0.02
2022-02-08 11:23:18.3900,0.251,0.919,0.306,6.8,-2.17,-4.26,-2.32,-0.87,-0.45
2022-02-08 11:23:18.3960,0.29,1.022,0.094,10.8,-5.61,-4.98,-2.04,-1.39,-1.2
2022-02-08 11:23:18.4100,0.514,0.898,-0.03,10.8,-5.61,-4.98,-1.53,-1.5,-1.7
2022-02-08 11:23:18.4170,0.654,0.786,-0.084,14.56,-9.14,-5.32,-1.01,-1.53,-2.27
2022-02-08 11:23:18.4320,0.713,0.819,-0.199,14.56,-9.14,-5.32,-0.48,-1.43,-3.54
2022-02-08 11:23:18.4370,0.63,0.97,-0.413,14.4,-11.21,-3.87,0.51,-1.23,-5.05
2022-02-08 11:23:18.4520,0.449,1.143,-0.521,14.4,-11.21,-3.87,1.76,0.74,-7.11
2022-02-08 11:23:18.4570,0.391,1.438,-0.334,11.13,-14.43,-5.13,3.49,3.2,-10.06
2022-02-08 11:23:18.4690,0.824,1.577,-0.249,11.13,-14.43,-5.13,6.11,5.02,-10.5
Time,1.927,0.684,-0.507,8.55,-19.32,-6.68,8.66,5.97,-6.5
2022-02-08 11:23:18.4880,1.865,0.34,-0.394,8.55,-19.32,-6.68,9.55,5.78,-3.25
Time,1.115,0.584,-0.153,6.57,-25.04,-2.97,8.92,6.36,-1.09
2022-02-08 11:23:18.5080,1.428,-0.171,0.693,6.57,-25.04,-2.97,2.33,5.8,0.87
Time,1.562,-0.481,1.378,4.08,-28.16,5.64,0.89,8.97,1.34
2022-02-08 11:23:18.5270,0.614,0.082,0.228,4.08,-28.16,5.64,0.01,8.05,0.83
2022-02-08 11:23:18.5420,0.273,0.068,-0.521,-0.04,-24.22,14.85,-0.72,6.86,-0.16
2022-02-08 11:23:18.5480,0.593,-0.276,-0.134,-3.55,-14.77,16.94,-1.11,6.47,-0.29
2022-02-08 11:23:18.5560,0.75,-0.616,-0.118,-3.55,-14.77,16.94,-1.92,4.94,0.01
2022-02-08 11:23:18.5740,0.389,-0.266,-0.404,-5.82,-5.89,9.32,-2.3,2.93,0.13
2022-02-08 11:23:18.5840,-0.356,0.468,-0.862,-6.45,-1.33,4.65,-2.01,0.67,-0.24
2022-02-08 11:23:18.5890,-0.782,0.852,-1.342,-6.45,-1.33,4.65,-0.92,-1.75,-1.04
2022-02-08 11:23:18.6020,-0.912,1.1,-1.621,-8.39,2.39,2.23,0.87,-3.27,-1.81
2022-02-08 11:23:18.6080,-0.761,1.226,-1.405,-10.94,5.62,0.18,2.29,-3.47,-2.17
2022-02-08 11:23:18.6190,-0.443,1.196,-0.63,-10.94,5.62,0.18,3.32,-1.81,-1.99
2022-02-08 11:23:18.6330,-0.275,0.986,0.082,-11.62,7.97,-2.99,4.08,0.56,-1.64
2022-02-08 11:23:18.6390,-0.221,0.93,0.469,-9.6,9.21,-9.6,2.68,4.36,-1.15
2022-02-08 11:23:18.6530,0.286,1.622,3.5,-9.6,9.21,-9.6,-1.43,9.7,-0.19
Time,0.962,1.972,3.267,-9.6,9.21,-9.6,-7.04,7.38,-0.54
2022-02-08 11:23:18.6700,1.441,2.548,1.729,-10.18,8.76,-30.22,-7.73,1.66,-0.93
2022-02-08 11:23:18.6790,1.904,2.002,0.973,-10.18,8.76,-30.22,-6.32,-2.97,0.18
2022-02-08 11:23:18.6880,1.86,1.767,1.186,-5.32,8.76,-21.92,-6.31,-4.2,1.42
2022-02-08 11:23:18.7030,1.167,1.866,2.501,-5.32,8.76,-21.92,-6.42,-1.75,0.96
2022-02-08 11:23:18.7090,-0.082,2.131,1.521,-5.32,8.76,-21.92,-4.35,-3.67,0.66
2022-02-08 11:23:18.7210,-0.698,1.627,-0.938,-0.87,8.4,-2.57,-1.99,-6.44,0.62
2022-02-08 11:23:18.7290,-1.209,1.299,-1.246,-0.87,8.4,-2.57,-0.65,-7.27,0.6
2022-02-08 11:23:18.7410,-1.804,1.323,-1.174,1.52,7.28,-1.01,-0.6,-6.12,0.62
2022-02-08 11:23:18.7490,-2.307,1.457,-0.911,1.52,7.28,-1.01,-1.04,-3.8,0.16
2022-02-08 11:23:18.7620,-2.093,1.606,-0.685,3.9,4.77,1.08,-0.76,-1.48,-0.5
2022-02-08 11:23:18.7700,-1.433,1.089,-0.899,3.9,4.77,1.08,0.72,-0.03,-1.15
2022-02-08 11:23:18.7820,-0.981,0.556,-1.133,6.27,0.34,2.28,2.35,0.72,-1.39
2022-02-08 11:23:18.7890,-0.67,0.455,-0.913,6.27,0.34,2.28,3.24,1.74,-1.43
2022-02-08 11:23:18.8010,-0.315,0.521,-0.239,4.23,-2.35,0.24,3.54,2.88,-1.46
2022-02-08 11:23:18.8100,0.025,0.815,-0.012,4.23,-2.35,0.24,3.72,2.94,-1.66
2022-02-08 11:23:18.8210,0.33,1.321,-0.137,2.13,-2.78,2.51,4.02,2.26,-2.05
2022-02-08 11:23:18.8300,0.545,1.828,-0.441,2.13,-2.78,2.51,4.03,0.49,-3.01
2022-02-08 11:23:18.8410,0.745,1.949,-1.037,2.41,-4.3,6.52,4.06,-1.83,-3.81
Time,1.147,1.382,-1.118,2.41,-4.3,6.52,4.51,-2.24,-3.85
2022-02-08 11:23:18.8610,1.659,1.063,-0.482,2.73,-8.65,10.04,4.38,-2.69,-3.01
2022-02-08 11:23:18.8750,2.673,0.779,0.348,-0.12,-7.04,4.39,2.98,-5.11,-1.03
2022-02-08 11:23:18.8800,3.206,0.384,0.873,-0.12,-7.04,4.39,1.73,-6.74,0.82
Time,2.895,0.117,0.634,-0.12,-7.04,4.39,0.74,-7.3,2.84
2022-02-08 11:23:18.9000,2.64,0.424,1.312,-4.05,-0.03,3.2,-0.56,-5.11,4.06
2022-02-08 11:23:18.9100,1.585,1.265,3.241,-4.05,-0.03,3.2,-2.85,-1.44,4.38
2022-02-08 11:23:18.9200,0.254,1.922,3.878,-7.55,7.79,1.64,-3.56,5.37,4.15
2022-02-08 11:23:18.9310,0.157,1.844,2.488,-7.55,7.79,1.64,-2.96,9.97,4.06
2022-02-08 11:23:18.9430,0.324,2.012,0.152,-7.55,7.79,1.64,-2.08,8.97,3.38
2022-02-08 11:23:18.9510,0.029,2.549,-1.672,-10.01,11.66,-4.69,-2.47,1.22,1.64
2022-02-08 11:23:18.9620,-0.651,3.017,-1.808,-10.01,11.66,-4.69,-3.6,-5.82,-0.57
2022-02-08 11:23:18.9710,-1.015,2.535,0.34,-10.01,11.66,-4.69,-5.86,-6.68,-1.56
2022-02-08 11:23:18.9810,-0.558,1.303,1.955,-8.42,12.44,-6.91,-6.96,-3.79,-0.21
2022-02-08 11:23:18.9920,0.238,0.681,1.225,-8.42,12.44,-6.91,-7.13,-1.89,1.56
Time,0.419,1.358,-0.055,-8.42,12.44,-6.91,-6.41,-1.81,2.56
2022-02-08 11:23:19.0120,0.099,1.88,-0.534,-6.19,11.68,-3.85,-4.75,-1.79,2.82
2022-02-08 11:23:19.0210,-0.397,1.706,-0.484,-6.19,11.68,-3.85,-3.26,-1.28,2.32
2022-02-08 11:23:19.0330,-0.701,1.449,-0.161,-5.36,10.03,-4.64,-2.62,0.43,1.17
Time,-0.776,1.347,-0.01,-5.36,10.03,-4.64,-2.19,2.75,0.62
2022-02-08 11:23:19.0510,-0.551,0.897,-0.345,-4.01,6.86,-7.08,-1.36,3.8,1.23
2022-02-08 11:23:19.0660,-0.433,0.42,-0.631,-3.72,6.29,-8.31,-1.46,2.78,1.65
2022-02-08 11:23:19.0720,-0.711,0.973,-0.566,-3.72,6.29,-8.31,-1.67,2.47,1.18
2022-02-08 11:23:19.0850,-0.254,1.093,0.208,-4.42,4.96,-7.68,-0.98,3.08,-0.65
2022-02-08 11:23:19.0920,-0.108,1.397,0.141,-4.42,4.96,-7.68,-0.25,2.45,-2.95
2022-02-08 11:23:19.1040,0.057,1.089,-0.003,-5.73,1.53,-6.23,0.46,0.77,-4.88
2022-02-08 11:23:19.1120,0.35,0.625,0.026,-5.73,1.53,-6.23,1.33,0.0,-6.42
2022-02-08 11:23:19.1230,0.488,0.458,0.227,-6.73,-0.03,-4.2,2.4,0.51,-7.73
2022-02-08 11:23:19.1370,0.445,0.757,0.393,-6.73,-0.03,-4.2,3.56,1.94,-8.72
2022-02-08 11:23:19.1420,0.356,1.102,0.485,-5.41,0.29,-1.38,4.86,4.06,-8.91
Time,0.384,1.187,0.448,-5.41,0.29,-1.38,5.93,5.74,-8.58
2022-02-08 11:23:19.1630,0.402,1.147,0.287,-3.4,1.4,1.63,6.6,6.42,-7.91
Time,0.357,0.937,0.13,-3.4,1.4,1.63,6.88,6.59,-6.92
2022-02-08 11:23:19.1830,0.356,0.38,0.089,-1.28,3.0,5.82,6.9,6.62,-5.03
2022-02-08 11:23:19.1970,0.443,-0.245,0.053,-1.28,3.0,5.82,6.87,6.61,-3.36
2022-02-08 11:23:19.2020,0.36,-0.225,-0.017,1.7,5.43,12.35,6.86,6.49,-2.04
2022-02-08 11:23:19.2170,0.34,-0.22,-0.113,1.7,5.43,12.35,6.79,5.94,-0.87
2022-02-08 11:23:19.2220,0.329,-0.251,-0.316,6.11,1.34,18.61,6.58,4.73,0.24
Time,0.271,-0.313,-0.523,6.11,1.34,18.61,6.14,2.91,1.24
2022-02-08 11:23:19.2430,0.134,-0.306,-0.633,7.65,-10.44,26.54,4.56,-0.44,1.6
Time,-0.961,0.105,0.569,7.65,-10.44,26.54,-1.44,-7.72,-0.13
2022-02-08 11:23:19.2630,-1.593,0.609,1.653,3.94,-12.1,27.91,-5.12,-9.01,-1.0
2022-02-08 11:23:19.2740,-1.04,0.779,1.394,3.94,-12.1,27.91,-7.35,-4.02,-2.11
2022-02-08 11:23:19.2850,-1.845,1.877,3.167,2.29,-13.73,19.55,-4.57,10.26,-3.42
2022-02-08 11:23:19.2930,-1.645,2.399,1.52,2.29,-13.73,19.55,-0.36,10.18,-2.88
2022-02-08 11:23:19.3050,-1.382,2.5,-0.92,4.42,-13.24,13.71,0.92,-2.25,-1.58
2022-02-08 11:23:19.3130,-1.758,3.123,-1.29,4.42,-13.24,13.71,1.13,-8.11,0.01
2022-02-08 11:23:19.3240,-0.174,2.487,-0.314,4.42,-13.24,13.71,0.58,-7.83,0.94
2022-02-08 11:23:19.3360,0.654,1.619,-0.09,8.13,-13.1,9.14,-0.3,-5.7,1.46
2022-02-08 11:23:19.3440,0.651,1.756,-0.283,8.13,-13.1,9.14,-0.62,-4.04,1.82
2022-02-08 11:23:19.3560,0.678,1.579,-0.373,9.14,-9.88,3.1,-0.93,-3.02,2.13
Time,0.779,1.124,-0.444,8.7,-5.56,-1.74,-1.29,-2.62,2.35
2022-02-08 11:23:41.3830,0.827,0.898,-0.449,8.7,-5.56,-1.74,-1.53,-2.75,2.56
2022-02-08 11:23:41.4040,0.832,0.868,-0.358,-8.3,-9.22,-18.47,-1.59,-3.04,2.92
2022-02-08 11:23:41.4200,0.851,0.916,-0.283,-0.67,-1.32,5.22,-1.52,-4.21,3.38
2022-02-08 11:23:19.3640,1.125,0.972,-0.208,-2.91,13.72,3.01,-1.68,-9.34,4.21
2022-02-08 11:23:41.4480,1.953,1.042,0.539,-18.17,-0.71,-28.23,-0.69,-11.0,5.11
2022-02-08 11:23:41.4070,2.09,1.108,2.004,-1.43,-2.09,0.39,-0.27,-7.8,6.03
2022-02-08 11:23:41.3840,1.845,1.076,1.987,-1.43,-2.09,0.39,-1.13,-4.76,6.96
2022-02-08 11:23:41.3840,1.227,1.638,1.55,-1.43,-2.09,0.39,-2.48,-1.9,6.88
2022-02-08 11:23:41.4200,0.237,2.33,1.188,-1.43,-2.09,0.39,-2.3,-0.85,6.1
2022-02-08 11:23:41.4200,-0.856,2.849,-0.228,-1.43,-2.09,0.39,-2.3,-0.85,6.1
Time,-1.373,2.4,-0.524,0.9,-9.23,8.0,0.02,1.34,4.64
2022-02-08 11:23:41.4560,-1.56,1.943,-0.453,9.87,-6.36,6.27,0.7,2.7,3.69
2022-02-08 11:23:41.4560,-1.583,1.288,-0.03,9.87,-6.36,6.27,0.44,3.68,2.85
2022-02-08 11:23:41.4580,-1.4,0.721,0.414,11.33,-5.38,4.0,-0.29,4.24,2.0
2022-02-08 11:23:41.4660,-1.282,0.569,0.687,7.64,3.36,10.34,-0.72,4.51,1.17
2022-02-08 11:23:41.4560,-1.131,0.502,0.582,7.64,3.36,10.34,-0.64,4.18,0.53
2022-02-08 11:23:41.4730,-1.0,0.472,0.315,10.04,-0.21,11.15,-0.26,2.9,0.11
2022-02-08 11:23:41.4610,-0.88,0.469,-0.026,10.04,-0.21,11.15,0.18,1.09,-0.07
2022-02-08 11:23:41.4690,-0.729,0.504,-0.174,7.33,-2.51,4.28,0.49,-0.36,-0.19
2022-02-08 11:23:41.4680,-0.538,0.526,-0.108,7.33,-2.51,4.28,0.66,-0.74,-0.33
2022-02-08 11:23:41.4720,-0.388,0.505,0.139,7.33,-2.51,4.28,0.57,-0.17,-0.47
Time,-0.32,0.459,0.731,7.33,-2.51,4.28,-0.12,0.9,-0.57
2022-02-08 11:23:41.4750,-0.151,0.495,1.348,4.39,-5.77,3.3,-1.04,1.96,-0.7
2022-02-08 11:23:41.4740,0.202,0.578,1.014,4.39,-5.77,3.3,-1.59,3.75,-0.7
2022-02-08 11:23:41.4840,0.591,0.627,0.309,4.39,-5.77,3.3,-1.19,5.58,-0.56
2022-02-08 11:23:41.4770,0.963,0.757,-0.253,4.39,-5.77,3.3,-0.1,6.33,-0.47
2022-02-08 11:23:41.4780,1.132,0.939,-0.599,4.39,-5.77,3.3,1.17,6.38,-0.11
2022-02-08 11:23:41.4790,1.261,1.296,-0.81,3.0,-4.02,4.91,1.92,4.82,0.41
2022-02-08 11:23:41.4870,1.323,2.103,-0.648,3.0,-4.02,4.91,1.46,2.03,0.68
2022-02-08 11:23:41.4810,0.732,2.674,-0.196,3.0,-4.02,4.91,-0.01,0.37,-0.01
2022-02-08 11:23:41.4810,-0.272,2.625,-0.345,3.0,-4.02,4.91,-0.01,0.37,-0.01
2022-02-08 11:23:41.4880,-1.194,2.391,-0.564,3.0,-4.02,4.91,-2.29,-2.95,-2.18
2022-02-08 11:23:41.4860,-2.051,2.206,0.311,3.0,-4.02,4.91,-2.31,-1.85,-2.85
2022-02-08 11:23:41.4850,-2.636,1.921,0.412,3.0,-4.02,4.91,-1.65,-1.38,-3.35
2022-02-08 11:23:41.4870,-2.989,1.403,-0.103,-0.29,0.77,5.32,-1.68,-3.22,-3.22
2022-02-08 11:23:41.4890,-2.31,0.818,-0.096,-0.29,0.77,5.32,-2.12,-5.32,-1.7
2022-02-08 11:23:41.4900,-1.017,0.839,0.036,-0.29,0.77,5.32,-2.24,-6.76,-0.64
2022-02-08 11:23:41.4930,-0.656,1.314,-0.231,-0.29,0.77,5.32,-2.13,-7.86,-0.35
2022-02-08 11:23:41.4920,-0.511,1.487,-0.496,-0.29,0.77,5.32,-2.08,-7.75,-0.42
2022-02-08 11:23:41.4930,-0.172,1.577,-0.448,-0.29,0.77,5.32,-2.24,-6.95,-0.35
2022-02-08 11:23:41.4930,0.264,1.632,-0.477,-0.29,0.77,5.32,-2.44,-6.01,0.11
2022-02-08 11:23:41.4950,0.682,1.639,-0.43,-0.29,0.77,5.32,-2.47,-4.42,0.68
2022-02-08 11:23:41.4970,0.776,1.572,-0.3,-0.29,0.77,5.32,-2.28,-2.54,0.81
2022-02-08 11:23:41.4990,0.586,1.204,-0.186,-0.29,0.77,5.32,-2.31,-1.21,0.33
2022-02-08 11:23:41.4990,0.572,0.513,0.151,-0.29,0.77,5.32,-2.57,-0.3,-0.26
2022-02-08 11:23:41.4980,0.88,-0.151,0.249,-2.67,3.69,3.34,-2.37,-0.4,-0.6
2022-02-08 11:23:41.5000,1.232,-0.705,0.106,-2.67,3.69,3.34,-1.74,-1.19,-0.74
2022-02-08 11:23:41.5010,1.382,-1.116,0.276,-2.67,3.69,3.34,-0.81,-2.18,-0.79
2022-02-08 11:23:41.5030,1.412,-1.417,0.624,-2.67,3.69,3.34,0.23,-2.71,-0.87
2022-02-08 11:23:41.5040,1.266,-1.463,0.863,-2.67,3.69,3.34,1.29,-2.58,-1.14
2022-02-08 11:23:41.5050,1.04,-1.231,0.96,-2.67,3.69,3.34,2.23,-2.1,-1.55
2022-02-08 11:23:41.5040,0.86,-0.834,1.002,-2.67,3.69,3.34,2.99,-1.1,-1.88
2022-02-08 11:23:41.5060,0.725,-0.445,1.046,-2.67,3.69,3.34,3.53,0.11,-2.13
2022-02-08 11:23:41.5070,0.585,-0.127,0.905,-2.67,3.69,3.34,3.97,1.02,-2.33
2022-02-08 11:23:41.5080,0.428,0.101,0.505,-2.67,3.69,3.34,4.43,1.62,-2.49
Time,0.263,0.278,-0.025,-2.67,3.69,3.34,4.79,2.31,-2.54
Time,0.118,0.345,-0.299,-2.67,3.69,3.34,4.99,2.72,-2.54
2022-02-08 11:23:41.5110,0.066,0.475,-0.357,-2.67,3.69,3.34,5.28,2.62,-2.54
2022-02-08 11:23:41.5100,0.129,0.835,-0.519,-2.67,3.69,3.34,5.66,2.28,-2.48
2022-02-08 11:23:41.5180,0.197,1.365,-0.643,-2.67,3.69,3.34,5.89,2.11,-2.14
2022-02-08 11:23:41.5210,0.222,1.976,-0.688,-3.3,1.99,1.4,5.6,2.43,-1.27
Time,0.228,2.413,-0.577,-3.3,1.99,1.4,4.33,3.22,0.05
2022-02-08 11:23:41.5220,0.154,3.202,0.202,-3.3,1.99,1.4,-0.27,1.3,0.91
Time,0.021,4.203,1.361,-3.3,1.99,1.4,-2.93,-0.84,0.39
Time,-0.247,3.805,0.036,-3.3,1.99,1.4,-2.93,-0.84,0.39
2022-02-08 11:23:41.5180,-0.198,2.503,0.533,-3.3,1.99,1.4,-3.55,1.38,-1.18
2022-02-08 11:23:41.5220,-0.129,1.539,1.44,-3.3,1.99,1.4,-2.21,4.8,-1.32
2022-02-08 11:23:41.5220,-0.173,1.105,0.535,-3.3,1.99,1.4,-0.88,5.39,-1.31
2022-02-08 11:23:41.5230,-0.237,0.795,-0.102,-3.3,1.99,1.4,-0.33,4.3,-1.23
Time,-0.277,0.571,0.017,-3.3,1.99,1.4,-0.45,2.65,-1.0
2022-02-08 11:23:41.5250,-0.295,0.432,0.251,-3.3,1.99,1.4,-0.96,1.12,-0.64
2022-02-08 11:23:41.5260,-0.351,0.357,0.521,-3.3,1.99,1.4,-1.53,0.04,-0.2
2022-02-08 11:23:41.5280,-0.459,0.335,0.728,-3.3,1.99,1.4,-1.85,-0.65,0.2
2022-02-08 11:23:41.5280,-0.648,0.43,0.859,-3.3,1.99,1.4,-1.82,-1.1,0.43
2022-02-08 11:23:41.5290,-0.777,0.618,0.876,-3.3,1.99,1.4,-1.52,-1.62,0.43
2022-02-08 11:23:41.5320,-0.777,0.765,0.764,-3.3,1.99,1.4,-1.12,-2.48,0.31
2022-02-08 11:23:41.5320,-0.613,0.857,0.59,-3.3,1.99,1.4,-0.75,-3.63,0.13
2022-02-08 11:23:41.5310,-0.395,0.877,0.371,-3.3,1.99,1.4,-0.49,-4.83,0.04
2022-02-08 11:23:41.5340,-0.194,0.799,0.199,-3.3,1.99,1.4,-0.31,-5.94,0.05
2022-02-08 11:23:41.5330,-0.068,0.732,-0.016,-3.3,1.99,1.4,-0.13,-6.69,0.17
2022-02-08 11:23:41.5390,0.08,0.666,-0.177,-3.3,1.99,1.4,0.08,-6.72,0.44
2022-02-08 11:23:41.5380,0.168,0.665,-0.265,-3.17,-1.6,0.0,0.32,-6.18,0.74
2022-02-08 11:23:41.5380,0.226,0.621,-0.231,-3.17,-1.6,0.0,0.55,-5.41,0.99
2022-02-08 11:23:41.5370,0.239,0.526,-0.169,-3.17,-1.6,0.0,0.76,-4.62,1.14
2022-02-08 11:23:41.5390,0.232,0.477,-0.147,-3.17,-1.6,0.0,0.96,-3.77,1.23
2022-02-08 11:23:41.5440,0.253,0.495,-0.155,-3.17,-1.6,0.0,1.14,-2.83,1.31
2022-02-08 11:23:41.5410,0.315,0.572,-0.152,-3.17,-1.6,0.0,1.19,-1.66,1.44
Time,0.421,0.681,-0.148,-3.17,-1.6,0.0,1.07,-0.15,1.64
Time,0.539,0.828,-0.152,-3.17,-1.6,0.0,0.72,2.04,1.8
2022-02-08 11:23:41.5440,0.692,1.01,-0.182,-3.17,-1.6,0.0,0.32,4.49,1.94
2022-02-08 11:23:41.5450,0.825,1.182,-0.545,-3.17,-1.6,0.0,0.74,6.56,1.84
2022-02-08 11:23:41.5460,0.849,1.229,-1.343,-3.17,-1.6,0.0,2.38,8.21,1.4
2022-02-08 11:23:41.5540,0.635,1.096,-2.001,-3.17,-1.6,0.0,4.62,9.1,0.68
2022-02-08 11:23:41.5500,0.459,0.859,-2.031,-3.17,-1.6,0.0,6.32,9.52,0.1
Time,0.344,0.655,-1.58,-3.17,-1.6,0.0,7.46,8.37,-0.3
2022-02-08 11:23:41.5500,0.154,0.525,-1.471,-3.17,-1.6,0.0,8.33,5.87,-0.47
2022-02-08 11:23:41.5510,-0.035,0.502,-1.527,-3.17,-1.6,0.0,8.81,2.69,-0.59
2022-02-08 11:23:41.5520,-0.143,0.536,-1.399,-3.17,-1.6,0.0,8.71,0.2,-0.71
2022-02-08 11:23:41.5550,-0.314,0.659,-0.885,-3.17,-1.6,0.0,5.03,5.38,-1.87
2022-02-08 11:23:41.5550,-2.433,2.118,5.185,-3.17,-1.6,0.0,-1.88,20.01,-6.36
2022-02-08 11:23:41.5600,-1.327,2.654,3.173,-3.17,-1.6,0.0,0.45,16.36,-8.03
Time,-0.601,2.31,-0.675,-3.17,-1.6,0.0,2.88,6.91,-8.13
Time,-1.477,2.157,-0.678,-3.17,-1.6,0.0,2.88,6.91,-8.13
2022-02-08 11:23:41.5570,-1.251,1.879,-0.168,-3.17,-1.6,0.0,0.39,-4.13,-5.9
Time,-0.404,1.706,0.352,-3.17,-1.6,0.0,-1.46,-4.12,-1.94
Time,0.352,1.844,0.169,-3.17,-1.6,0.0,-2.37,-2.61,1.1
2022-02-08 11:23:41.5620,0.39,2.04,-0.062,-3.17,-1.6,0.0,-2.75,-1.77,2.62
2022-02-08 11:23:41.5620,0.298,2.026,-0.168,-3.17,-1.6,0.0,-2.82,-1.71,3.0
2022-02-08 11:23:41.5620,0.253,1.893,-0.223,-3.17,-1.6,0.0,-2.73,-2.06,2.65
2022-02-08 11:23:41.5630,0.288,1.676,-0.217,-3.17,-1.6,0.0,-2.66,-2.32,2.1
2022-02-08 11:23:41.5670,0.424,1.416,-0.15,-3.17,-1.6,0.0,-2.71,-2.39,1.69
2022-02-08 11:23:41.5680,0.552,1.171,-0.07,-3.17,-1.6,0.0,-2.83,-2.55,1.55
2022-02-08 11:23:41.5680,0.686,0.988,-0.022,-3.17,-1.6,0.0,-3.0,-3.0,1.62
2022-02-08 11:23:41.5690,0.784,0.867,-0.001,-3.17,-1.6,0.0,-3.2,-3.31,1.87
2022-02-08 11:23:41.5690,0.784,0.756,0.001,-3.17,-1.6,0.0,-3.44,-3.18,2.26
2022-02-08 11:23:41.5690,0.798,0.613,0.123,-3.17,-1.6,0.0,-4.86,-5.46,3.14
2022-02-08 11:23:41.5740,1.526,0.182,1.355,-3.17,-1.6,0.0,-7.11,-9.28,4.91
2022-02-08 11:23:41.5730,1.453,0.233,1.556,-3.17,-1.6,0.0,-6.57,-9.68,5.87
2022-02-08 11:23:41.5750,0.271,0.947,1.134,-3.17,-1.6,0.0,-2.06,-5.1,5.88
2022-02-08 11:23:41.5750,-0.607,1.672,0.756,-3.17,-1.6,0.0,1.36,0.36,4.64
2022-02-08 11:23:41.5760,-1.166,2.051,-0.112,-3.17,-1.6,0.0,3.21,4.12,2.55
2022-02-08 11:23:41.5760,-1.359,2.094,-0.811,-3.17,-1.6,0.0,4.01,5.45,0.66
2022-02-08 11:23:41.5800,-1.257,1.803,-0.932,-4.12,-2.72,-0.45,3.3,5.29,-0.6
2022-02-08 11:23:41.5800,-1.0,1.387,-0.433,-4.12,-2.72,-0.45,1.47,4.35,-1.06
2022-02-08 11:23:41.5810,-0.68,0.988,-0.186,-4.12,-2.72,-0.45,-0.33,3.12,-0.95
2022-02-08 11:23:41.5820,-0.386,0.707,-0.189,-4.12,-2.72,-0.45,-1.78,1.16,-0.37
2022-02-08 11:23:41.5820,-0.232,0.545,-0.272,-4.12,-2.72,-0.45,-1.78,1.16,-0.37
2022-02-08 11:23:41.5820,-0.2,0.49,-0.332,-4.12,-2.72,-0.45,-1.7,0.44,-0.36
2022-02-08 11:23:41.5870,-0.211,0.502,-0.404,-4.12,-2.72,-0.45,-1.36,-0.37,-0.5
2022-02-08 11:23:41.5870,-0.242,0.546,-0.481,-4.12,-2.72,-0.45,-0.87,-1.15,-0.71
2022-02-08 11:23:41.5880,-0.208,0.536,-0.499,-4.12,-2.72,-0.45,-0.31,-1.59,-0.76
2022-02-08 11:23:41.5890,-0.027,0.478,-0.471,-4.12,-2.72,-0.45,0.39,-1.32,-0.52
2022-02-08 11:23:41.5890,0.14,0.487,-0.528,-4.12,-2.72,-0.45,1.48,-0.32,-0.12
2022-02-08 11:23:41.5900,0.221,0.509,-0.651,-4.12,-2.72,-0.45,2.73,1.04,0.25
Time,0.191,0.485,-0.597,-4.12,-2.72,-0.45,3.75,2.16,0.53
2022-02-08 11:23:41.5960,0.175,0.373,-0.431,-4.12,-2.72,-0.45,4.31,2.59,0.76
2022-02-08 11:23:41.5990,0.157,0.29,-0.274,-4.12,-2.72,-0.45,4.58,2.45,0.93
2022-02-08 11:23:41.5950,0.145,0.265,-0.227,-4.12,-2.72,-0.45,4.71,2.13,1.09
2022-02-08 11:23:41.5950,0.292,0.207,0.191,-4.12,-2.72,-0.45,2.35,-3.1,1.66
2022-02-08 11:23:41.5970,1.072,-0.016,1.324,-4.12,-2.72,-0.45,0.41,-8.44,2.43
2022-02-08 11:23:41.6010,1.173,0.216,0.711,-4.12,-2.72,-0.45,-0.41,-12.06,3.16
2022-02-08 11:23:41.6030,1.109,0.744,0.582,-4.12,-2.72,-0.45,-0.34,-13.47,3.72
2022-02-08 11:23:41.6010,0.854,1.599,1.391,-4.12,-2.72,-0.45,-0.09,-11.11,3.78
2022-02-08 11:23:41.6010,0.284,2.723,3.287,-4.12,-2.72,-0.45,0.58,-3.86,3.15
2022-02-08 11:23:41.6030,-0.268,2.914,2.904,-4.12,-2.72,-0.45,0.55,2.67,2.37
2022-02-08 11:23:41.6020,-0.388,2.888,1.06,-4.12,-2.72,-0.45,0.13,6.19,1.12
2022-02-08 11:23:41.6130,-0.631,3.578,-0.175,-4.12,-2.72,-0.45,0.72,6.85,-2.99
2022-02-08 11:23:41.6130,-0.968,4.109,-0.845,-4.12,-2.72,-0.45,0.72,6.85,-2.99
2022-02-08 11:23:41.6090,-0.85,3.458,-0.996,-4.12,-2.72,-0.45,0.8,5.76,-3.54
2022-02-08 11:23:41.6090,-0.421,2.386,-0.817,-4.12,-2.72,-0.45,-0.06,4.22,-2.9
2022-02-08 11:23:41.6080,-0.359,1.632,-0.127,-4.12,-2.72,-0.45,-3.36,-0.04,-2.52
2022-02-08 11:23:41.6090,-0.643,1.085,0.755,-4.12,-2.72,-0.45,-5.89,-3.45,-2.23
2022-02-08 11:23:41.6140,-0.576,0.791,0.621,-4.12,-2.72,-0.45,-6.65,-5.94,-1.85
2022-02-08 11:23:41.6140,-0.445,0.575,0.139,-4.12,-2.72,-0.45,-5.4,-7.35,-1.41
2022-02-08 11:23:41.6200,-0.33,0.491,-0.156,-4.12,-2.72,-0.45,-3.42,-7.09,-1.03
2022-02-08 11:23:41.6150,-0.325,0.648,0.049,-4.12,-2.72,-0.45,-2.0,-5.79,-0.94
2022-02-08 11:23:41.6170,-0.34,0.887,0.469,-4.12,-2.72,-0.45,-1.56,-4.49,-0.92
Time,-0.245,0.985,0.586,-4.12,-2.72,-0.45,-1.77,-3.7,-0.84
2022-02-08 11:23:41.6200,-0.167,1.014,0.271,-4.12,-2.72,-0.45,-2.09,-3.58,-0.85
2022-02-08 11:23:41.6200,-0.182,0.987,-0.202,-4.12,-2.72,-0.45,-2.09,-3.58,-0.85
2022-02-08 11:23:41.6210,-0.104,0.792,-0.479,-4.12,-2.72,-0.45,-2.16,-3.99,-0.9
2022-02-08 11:23:41.6240,0.066,0.55,-0.432,-4.12,-2.72,-0.45,-2.18,-3.09,-0.82
2022-02-08 11:23:41.6230,0.142,0.463,-0.312,-4.12,-2.72,-0.45,-2.25,-1.67,-0.76
2022-02-08 11:23:41.6220,0.22,0.487,-0.354,-4.12,-2.72,-0.45,-2.23,-0.48,-0.72
2022-02-08 11:23:41.6290,0.375,0.514,-0.407,-4.12,-2.72,-0.45,-2.25,0.31,-0.64
2022-02-08 11:23:41.6300,0.629,0.578,-0.444,-4.12,-2.72,-0.45,-2.31,0.9,-0.49
2022-02-08 11:23:41.6340,0.923,0.676,-0.506,-4.12,-2.72,-0.45,-2.19,0.83,-0.18
2022-02-08 11:23:41.6300,1.191,0.781,-0.671,-4.12,-2.72,-0.45,-1.56,-0.47,0.17
2022-02-08 11:23:41.6290,1.371,0.898,-0.785,-4.12,-2.72,-0.45,-0.52,-2.76,0.29
2022-02-08 11:23:41.6300,1.267,0.963,-0.734,-4.12,-2.72,-0.45,0.66,-5.04,-0.1
2022-02-08 11:23:41.6360,1.034,1.098,-0.567,-4.12,-2.72,-0.45,1.48,-6.48,-0.96
Time,0.882,1.293,-0.307,-4.12,-2.72,-0.45,1.76,-7.01,-1.94
2022-02-08 11:23:41.6350,0.892,1.433,-0.064,-4.12,-2.72,-0.45,1.64,-6.92,-2.67
2022-02-08 11:23:41.6370,0.966,1.48,0.069,-4.12,-2.72,-0.45,1.36,-6.49,-2.95
2022-02-08 11:23:41.6360,0.98,1.39,0.069,-4.12,-2.72,-0.45,1.1,-5.72,-2.92
2022-02-08 11:23:41.6450,0.902,1.329,0.014,-4.12,-2.72,-0.45,0.96,-4.66,-2.81
2022-02-08 11:23:41.6440,0.825,1.338,-0.047,-4.12,-2.72,-0.45,1.03,-3.56,-2.82
2022-02-08 11:23:41.6490,0.763,1.375,-0.098,-4.12,-2.72,-0.45,1.28,-2.37,-3.02
2022-02-08 11:23:41.6450,0.68,1.4,-0.129,-4.12,-2.72,-0.45,1.74,-1.15,-3.48
2022-02-08 11:23:41.6450,0.547,1.353,-0.092,-4.12,-2.72,-0.45,3.33,0.8,-4.69
2022-02-08 11:23:41.6450,0.47,1.181,0.108,-4.12,-2.72,-0.45,5.51,3.95,-6.02
2022-02-08 11:23:41.6470,0.546,0.868,0.449,-4.12,-2.72,-0.45,6.52,7.01,-6.44
2022-02-08 11:23:41.6490,0.587,0.704,0.624,-4.12,-2.72,-0.45,6.66,9.72,-6.42
2022-02-08 11:23:41.6510,0.659,0.634,0.677,-4.12,-2.72,-0.45,6.78,10.74,-6.34
2022-02-08 11:23:41.6520,1.759,0.515,2.511,-4.12,-2.72,-0.45,0.7,0.74,-4.94
2022-02-08 11:23:41.6530,2.375,0.507,3.06,-4.12,-2.72,-0.45,-1.42,3.16,-4.53
2022-02-08 11:23:41.6570,1.126,0.897,1.246,-5.51,-2.46,0.29,-2.11,8.22,-4.34
2022-02-08 11:23:41.6540,1.241,1.149,0.714,-5.51,-2.46,0.29,-1.97,10.9,-3.67
2022-02-08 11:23:41.6520,1.716,1.342,-0.098,-5.51,-2.46,0.29,-1.24,9.74,-2.14
2022-02-08 11:23:41.6590,1.663,1.363,-0.52,-5.51,-2.46,0.29,-1.04,7.55,-0.63
Time,1.197,1.209,-0.49,-5.51,-2.46,0.29,-1.44,6.33,0.34
2022-02-08 11:23:41.6590,1.046,1.133,-0.588,-5.51,-2.46,0.29,-2.12,5.79,0.89
2022-02-08 11:23:41.6590,0.959,1.169,-0.564,-5.51,-2.46,0.29,-2.98,5.74,1.02
2022-02-08 11:23:41.6590,0.773,1.195,-0.313,-5.51,-2.46,0.29,-3.59,5.7,0.98
2022-02-08 11:23:41.6610,0.667,1.098,-0.287,-5.51,-2.46,0.29,-3.83,5.42,0.99
2022-02-08 11:23:41.6640,0.587,0.999,-0.301,-5.51,-2.46,0.29,-3.91,5.12,1.0
Time,0.543,0.944,-0.262,-5.51,-2.46,0.29,-3.97,5.11,1.06
2022-02-08 11:23:41.6650,0.591,0.882,-0.191,-5.51,-2.46,0.29,-4.08,5.45,1.19
2022-02-08 11:23:41.6650,0.674,0.833,-0.192,-5.51,-2.46,0.29,-4.16,6.0,1.36
2022-02-08 11:23:41.6650,0.769,0.791,-0.318,-5.51,-2.46,0.29,-4.15,6.51,1.57
2022-02-08 11:23:41.6670,0.828,0.783,-0.496,-5.51,-2.46,0.29,-3.87,6.79,1.83
2022-02-08 11:23:41.6670,0.94,0.719,-1.0,-5.51,-2.46,0.29,-3.87,6.79,1.83
2022-02-08 11:23:41.6700,1.016,0.68,-2.538,-5.51,-2.46,0.29,0.49,2.88,2.51
2022-02-08 11:23:41.6700,0.386,0.959,-4.688,-5.51,-2.46,0.29,4.54,-2.53,1.67
2022-02-08 11:23:41.6710,-0.297,1.332,-5.013,-5.51,-2.46,0.29,6.61,-5.75,0.27
2022-02-08 11:23:41.6710,-0.582,1.403,-3.183,-5.51,-2.46,0.29,5.96,-5.72,-0.65
2022-02-08 11:23:41.6730,-0.683,1.084,-1.646,-5.51,-2.46,0.29,3.69,-2.61,-0.68
2022-02-08 11:23:41.6800,-0.485,0.693,-0.158,-5.51,-2.46,0.29,0.99,2.12,0.15
2022-02-08 11:23:41.6760,-0.258,0.513,0.473,-5.51,-2.46,0.29,-0.89,6.18,1.03
Time,-0.294,0.756,0.152,-5.51,-2.46,0.29,-1.66,8.84,1.6
2022-02-08 11:23:41.6760,-0.5,1.237,-0.392,-5.51,-2.46,0.29,-1.77,10.36,2.16
2022-02-08 11:23:41.6780,-0.943,1.949,-0.832,-5.51,-2.46,0.29,-1.08,10.85,2.26
2022-02-08 11:23:41.6800,-2.074,2.952,-1.532,-5.51,-2.46,0.29,0.42,10.16,1.06
Time,-3.666,3.895,-2.227,-5.51,-2.46,0.29,2.39,7.63,-1.14
2022-02-08 11:23:41.6830,-4.564,3.895,-2.539,-5.51,-2.46,0.29,3.38,3.82,-2.0
2022-02-08 11:23:41.6840,-3.517,2.485,-1.611,-5.51,-2.46,0.29,3.0,3.45,-1.12
2022-02-08 11:23:41.6840,-2.972,0.861,3.569,-5.51,-2.46,0.29,3.0,3.45,-1.12
2022-02-08 11:23:41.6850,-2.056,0.045,4.591,-5.51,-2.46,0.29,0.14,25.85,-0.95
2022-02-08 11:23:41.6850,-1.085,0.223,-0.288,-5.51,-2.46,0.29,0.02,22.58,-1.9
Time,-1.118,-0.209,0.488,-5.51,-2.46,0.29,-0.45,14.25,-2.67
2022-02-08 11:23:41.6880,-1.499,-0.195,1.769,-5.51,-2.46,0.29,-0.65,0.11,-2.94
2022-02-08 11:23:41.6890,-1.202,0.619,0.792,-5.51,-2.46,0.29,-0.75,-9.78,-2.73
2022-02-08 11:23:41.6910,-0.07,0.839,0.152,-5.51,-2.46,0.29,-0.72,-15.45,-2.28
2022-02-08 11:23:41.6910,0.498,0.681,-0.837,-5.51,-2.46,0.29,-0.59,-18.52,-1.62
2022-02-08 11:23:41.6890,0.887,0.528,-1.148,-5.51,-2.46,0.29,-0.48,-19.57,-0.64
2022-02-08 11:23:41.6930,1.005,0.575,-0.815,-5.51,-2.46,0.29,-0.33,-18.35,0.33
2022-02-08 11:23:41.6950,0.585,0.955,-0.388,-5.51,-2.46,0.29,-0.34,-15.5,0.93
2022-02-08 11:23:41.6950,0.008,1.451,-0.114,-5.51,-2.46,0.29,-0.88,-12.16,1.15
2022-02-08 11:23:41.6970,-0.394,1.901,-0.034,-5.51,-2.46,0.29,-2.18,-8.79,1.08
2022-02-08 11:23:41.6970,-0.617,2.266,0.021,-5.51,-2.46,0.29,-3.87,-5.48,0.49
2022-02-08 11:23:41.6960,-0.789,2.585,0.032,-5.51,-2.46,0.29,-5.57,-2.36,-0.78
2022-02-08 11:23:41.7000,-0.815,2.81,-0.1,-5.51,-2.46,0.29,-6.95,0.31,-2.33
2022-02-08 11:23:41.7010,-0.326,2.807,0.326,-5.51,-2.46,0.29,-8.43,2.49,-3.28
2022-02-08 11:23:41.7020,0.577,2.82,0.394,-5.51,-2.46,0.29,-7.73,1.44,-3.65
2022-02-08 11:23:41.7010,0.726,2.531,-1.425,-5.51,-2.46,0.29,-4.65,-1.18,-3.68
2022-02-08 11:23:41.7030,0.271,1.938,-2.781,-5.51,-2.46,0.29,-1.33,-3.8,-3.51
2022-02-08 11:23:41.7030,0.373,1.328,-2.674,-5.51,-2.46,0.29,0.62,-5.84,-2.83
2022-02-08 11:23:41.7080,0.609,0.842,-1.784,-5.51,-2.46,0.29,0.99,-6.71,-2.12
2022-02-08 11:23:41.7060,0.481,0.633,-1.033,-5.51,-2.46,0.29,0.32,-6.54,-1.71
2022-02-08 11:23:41.7110,0.344,0.538,-0.535,-5.51,-2.46,0.29,-2.1,-3.93,-1.34
2022-02-08 11:23:41.7110,0.22,0.355,-0.137,-5.51,-2.46,0.29,-2.57,-4.74,-1.01
2022-02-08 11:23:41.7110,0.266,0.16,-0.19,-5.51,-2.46,0.29,-2.57,-4.74,-1.01
Time,0.02,0.034,-0.582,-5.51,-2.46,0.29,-2.25,-7.23,-1.11
2022-02-08 11:23:41.7150,-0.279,-0.149,-0.945,-5.51,-2.46,0.29,-1.57,-9.4,-1.42
2022-02-08 11:23:41.7170,-0.154,-0.437,-0.362,-5.51,-2.46,0.29,-0.67,-9.11,-1.43
2022-02-08 11:23:41.7240,0.161,-0.571,0.468,-5.51,-2.46,0.29,2.5,-4.94,-2.22
2022-02-08 11:23:41.7240,0.296,-0.342,0.387,-5.51,-2.46,0.29,2.5,-4.94,-2.22
2022-02-08 11:23:41.7200,0.34,-0.016,-0.058,-5.51,-2.46,0.29,3.54,-3.1,-2.8
2022-02-08 11:23:41.7200,0.347,0.148,-0.283,-5.51,-2.46,0.29,4.48,-0.97,-3.09
2022-02-08 11:23:41.7210,0.394,0.194,-0.266,-5.51,-2.46,0.29,5.14,0.75,-3.24
2022-02-08 11:23:41.7260,0.46,0.219,-0.213,-5.51,-2.46,0.29,5.81,1.29,-3.1
2022-02-08 11:23:41.7280,1.01,0.299,-0.463,-5.51,-2.46,0.29,6.08,-8.29,-1.74
2022-02-08 11:23:41.7280,2.628,0.76,-0.811,-5.51,-2.46,0.29,6.05,-13.89,-0.77
2022-02-08 11:23:41.7300,1.961,0.759,-0.446,-5.51,-2.46,0.29,5.97,-13.13,-0.41
2022-02-08 11:23:41.7290,1.733,1.147,-0.263,-5.51,-2.46,0.29,5.27,-9.8,0.25
2022-02-08 11:23:41.7350,1.875,1.653,-0.111,-5.51,-2.46,0.29,4.07,-5.7,1.01
2022-02-08 11:23:41.7380,1.564,2.057,-0.113,-5.51,-2.46,0.29,2.62,-4.21,1.53
2022-02-08 11:23:41.7400,2.203,2.97,-0.411,-5.51,-2.46,0.29,1.01,-15.37,3.22
2022-02-08 11:23:41.7390,3.071,4.127,-0.268,-5.51,-2.46,0.29,0.61,-19.47,4.18
2022-02-08 11:23:41.7410,1.946,4.711,1.071,-5.51,-2.46,0.29,2.78,-15.07,4.01
2022-02-08 11:23:41.7410,0.295,4.275,4.042,-5.51,-2.46,0.29,2.05,-3.48,3.18
2022-02-08 11:23:41.7430,-0.571,2.525,4.914,-5.51,-2.46,0.29,-1.65,3.37,1.95
2022-02-08 11:23:41.7440,-0.442,1.495,2.874,-5.51,-2.46,0.29,-4.19,5.01,0.71
2022-02-08 11:23:41.7450,-0.165,1.186,1.07,-5.51,-2.46,0.29,-5.01,4.39,-0.21
2022-02-08 11:23:41.7460,-0.023,1.059,0.12,-5.51,-2.46,0.29,-4.64,2.45,-0.84
2022-02-08 11:23:41.7480,0.108,0.89,-0.324,-5.51,-2.46,0.29,-4.02,0.36,-1.06
2022-02-08 11:23:41.7470,0.375,0.805,-0.314,-5.51,-2.46,0.29,-3.64,-0.84,-0.88
2022-02-08 11:23:41.7480,0.669,0.791,-0.132,-5.51,-2.46,0.29,-3.46,-1.46,-0.32
2022-02-08 11:23:41.7510,0.913,0.827,-0.177,-5.51,-2.46,0.29,-3.33,-1.81,0.44
2022-02-08 11:23:41.7500,0.917,0.88,-0.2,-5.51,-2.46,0.29,-3.35,-1.65,0.97
2022-02-08 11:23:41.7510,0.66,0.928,-0.138,-5.51,-2.46,0.29,-3.29,-1.05,1.11
2022-02-08 11:23:41.7530,0.45,0.965,-0.133,-5.51,-2.46,0.29,-3.04,-0.01,1.08
2022-02-08 11:23:41.7540,0.397,0.861,-0.075,-5.51,-2.46,0.29,-2.65,1.02,0.98
2022-02-08 11:23:41.7550,0.302,0.625,-0.043,-5.51,-2.46,0.29,-2.26,1.71,0.8
2022-02-08 11:23:41.7550,0.259,0.384,-0.024,-5.51,-2.46,0.29,-1.83,2.14,0.65
2022-02-08 11:23:41.7560,0.255,0.206,-0.035,-5.51,-2.46,0.29,-1.31,2.34,0.47
2022-02-08 11:23:41.7580,0.224,0.058,-0.062,-5.51,-2.46,0.29,-0.59,2.26,0.24
Time,0.196,-0.01,-0.131,-5.51,-2.46,0.29,0.23,1.95,-0.08
2022-02-08 11:23:41.7610,0.199,0.036,-0.24,-5.51,-2.46,0.29,1.11,1.57,-0.36
2022-02-08 11:23:41.7610,0.237,0.147,-0.364,-5.51,-2.46,0.29,1.89,1.36,-0.49
2022-02-08 11:23:41.7620,0.271,0.282,-0.327,-5.51,-2.46,0.29,2.45,1.31,-0.54
2022-02-08 11:23:41.7640,0.297,0.477,-0.308,-5.51,-2.46,0.29,2.83,1.32,-0.56
2022-02-08 11:23:41.7650,0.38,0.742,-0.271,-5.51,-2.46,0.29,3.05,1.41,-0.53
2022-02-08 11:23:41.7660,0.501,1.035,-0.23,-5.51,-2.46,0.29,3.13,1.58,-0.5
2022-02-08 11:23:41.7680,0.558,1.273,-0.207,-5.51,-2.46,0.29,3.15,1.94,-0.5
2022-02-08 11:23:41.7660,0.542,1.404,-0.183,-5.51,-2.46,0.29,3.21,2.56,-0.57
2022-02-08 11:23:41.7670,0.44,1.489,-0.164,-5.51,-2.46,0.29,3.35,3.36,-0.75
2022-02-08 11:23:41.7700,0.313,1.473,-0.159,-5.51,-2.46,0.29,3.58,4.25,-0.97
2022-02-08 11:23:41.7710,0.198,1.33,-0.186,-6.02,-0.86,1.32,3.89,5.07,-1.17
2022-02-08 11:23:41.7720,0.138,1.106,-0.224,-6.02,-0.86,1.32,4.22,5.58,-1.32
2022-02-08 11:23:41.7740,0.084,0.882,-0.329,-6.02,-0.86,1.32,4.57,5.59,-1.43
Time,-0.03,0.71,-0.616,-6.02,-0.86,1.32,4.95,4.91,-1.58
2022-02-08 11:23:41.7740,-0.164,0.637,-0.774,-6.02,-0.86,1.32,5.29,4.13,-1.66
2022-02-08 11:23:41.7760,-0.139,0.593,-0.743,-6.02,-0.86,1.32,5.42,3.08,-1.77
2022-02-08 11:23:41.7760,-0.119,0.611,-0.684,-6.02,-0.86,1.32,5.09,2.22,-1.89
2022-02-08 11:23:41.7800,-0.06,0.73,-0.358,-6.02,-0.86,1.32,4.62,2.48,-1.94
2022-02-08 11:23:41.7800,-0.036,1.125,0.477,-6.02,-0.86,1.32,3.57,6.43,-2.01
2022-02-08 11:23:41.7800,0.072,2.615,5.681,-6.02,-0.86,1.32,-0.3,6.11,-1.6
Time,0.423,2.67,2.82,-6.02,-0.86,1.32,-1.01,3.5,-1.13
2022-02-08 11:23:41.7820,0.256,2.234,0.038,-6.02,-0.86,1.32,-0.77,1.3,-0.69
2022-02-08 11:23:41.7850,0.199,2.025,-0.114,-6.02,-0.86,1.32,-0.84,0.54,-0.15
2022-02-08 11:23:41.7830,0.278,1.822,0.083,-6.02,-0.86,1.32,-0.98,0.19,0.38
2022-02-08 11:23:41.7850,0.245,1.446,0.129,-6.02,-0.86,1.32,-1.32,-0.61,0.79
2022-02-08 11:23:41.7850,0.258,1.163,0.349,-6.02,-0.86,1.32,-2.17,-1.64,1.22
2022-02-08 11:23:41.7870,0.377,1.12,0.717,-6.02,-0.86,1.32,-3.24,-2.22,1.75
2022-02-08 11:23:41.7880,0.418,1.207,0.896,-6.02,-0.86,1.32,-3.68,-1.69,2.26
2022-02-08 11:23:41.7900,0.381,1.279,0.962,-6.02,-0.86,1.32,-3.62,-0.31,2.67
2022-02-08 11:23:41.7890,0.32,1.302,0.844,-6.02,-0.86,1.32,-3.64,1.07,2.85
2022-02-08 11:23:41.7920,0.15,1.339,0.517,-6.02,-0.86,1.32,-3.73,2.17,2.66
2022-02-08 11:23:41.7920,0.003,1.34,0.178,-6.02,-0.86,1.32,-3.74,2.91,2.28
2022-02-08 11:23:41.7940,-0.067,1.303,-0.102,-6.02,-0.86,1.32,-3.61,3.26,1.89
2022-02-08 11:23:41.7940,-0.074,1.322,-0.327,-6.02,-0.86,1.32,-3.31,3.37,1.55
2022-02-08 11:23:41.7960,-0.047,1.376,-0.466,-6.02,-0.86,1.32,-2.85,3.33,1.19
2022-02-08 11:23:41.7960,-0.08,1.509,-0.598,-6.02,-0.86,1.32,-2.26,3.13,0.79
2022-02-08 11:23:41.7980,-0.162,1.616,-0.72,-6.02,-0.86,1.32,-1.55,2.84,0.37
2022-02-08 11:23:41.7980,-0.241,1.61,-0.781,-6.02,-0.86,1.32,-1.55,2.84,0.37
2022-02-08 11:23:41.8000,-0.253,1.447,-0.729,-6.02,-0.86,1.32,-0.22,2.58,-0.14
2022-02-08 11:23:41.8000,-0.191,1.141,-0.669,-6.02,-0.86,1.32,0.43,2.67,-0.13
2022-02-08 11:23:41.8020,-0.104,0.815,-0.777,-6.02,-0.86,1.32,1.58,3.08,0.04
2022-02-08 11:23:41.8030,-0.053,0.533,-1.272,-6.02,-0.86,1.32,4.02,3.84,0.19
2022-02-08 11:23:41.8050,-0.087,0.302,-2.027,-6.02,-0.86,1.32,6.94,5.35,0.43
2022-02-08 11:23:41.8100,-0.009,0.164,-1.791,-6.02,-0.86,1.32,8.9,7.78,0.81
2022-02-08 11:23:41.8060,0.015,0.105,-1.057,-6.02,-0.86,1.32,9.17,9.26,1.06
2022-02-08 11:23:41.8060,-0.07,0.148,-0.596,-6.02,-0.86,1.32,8.03,9.09,1.03
2022-02-08 11:23:41.8080,-0.069,0.207,-0.337,-6.02,-0.86,1.32,6.27,8.02,0.79
2022-02-08 11:23:41.8090,-0.026,0.217,-0.172,-6.02,-0.86,1.32,4.49,6.59,0.4
2022-02-08 11:23:41.8110,-0.008,0.203,-0.151,-6.02,-0.86,1.32,2.96,5.07,-0.1
2022-02-08 11:23:41.8120,-0.002,0.128,-0.181,-6.02,-0.86,1.32,1.73,3.49,-0.51
2022-02-08 11:23:41.8130,0.009,0.039,-0.262,-6.02,-0.86,1.32,0.79,1.73,-0.72
2022-02-08 11:23:41.8140,-0.028,0.092,-0.383,-6.02,-0.86,1.32,0.1,0.1,-1.0
2022-02-08 11:23:41.8140,-0.816,0.8,0.913,-6.02,-0.86,1.32,-4.88,2.11,-4.3
2022-02-08 11:23:41.8150,-2.481,2.509,3.561,-6.02,-0.86,1.32,-6.5,2.87,-7.46
2022-02-08 11:23:41.8170,-2.236,3.25,0.673,-6.02,-0.86,1.32,-1.87,0.31,-7.91
2022-02-08 11:23:41.8180,-1.75,3.105,-1.392,-6.02,-0.86,1.32,1.04,-1.13,-5.67
2022-02-08 11:23:41.8190,-0.596,2.325,-0.793,-6.02,-0.86,1.32,1.15,-0.59,-1.21
2022-02-08 11:23:41.8190,-0.095,1.846,0.316,-6.02,-0.86,1.32,0.02,0.58,2.33
2022-02-08 11:23:41.8200,-0.303,1.747,0.241,-6.02,-0.86,1.32,-0.69,1.04,3.0
2022-02-08 11:23:41.8230,-0.432,1.589,-0.269,-6.02,-0.86,1.32,-1.16,1.13,2.34
2022-02-08 11:23:41.8270,-0.343,1.334,-0.384,-6.02,-0.86,1.32,-1.65,0.84,1.31
2022-02-08 11:23:41.8230,-0.256,1.153,-0.409,-6.02,-0.86,1.32,-2.12,0.21,0.23
2022-02-08 11:23:41.8260,-0.211,1.097,-0.469,-6.02,-0.86,1.32,-2.57,-0.77,-0.71
2022-02-08 11:23:41.8270,-0.13,1.1,-0.573,-6.02,-0.86,1.32,-3.04,-2.01,-1.25
2022-02-08 11:23:41.8260,-0.035,1.087,-0.647,-6.02,-0.86,1.32,-3.47,-3.25,-1.39
2022-02-08 11:23:41.8290,0.001,1.088,-0.714,-6.02,-0.86,1.32,-3.74,-4.45,-1.29
2022-02-08 11:23:41.8300,-0.003,1.112,-0.828,-6.02,-0.86,1.32,-3.71,-5.73,-1.07
Time,-0.012,1.113,-1.004,-6.02,-0.86,1.32,-3.41,-7.25,-0.83
2022-02-08 11:23:41.8310,-0.038,1.059,-1.1,-6.02,-0.86,1.32,-2.99,-8.76,-0.62
2022-02-08 11:23:41.8320,-0.039,0.921,-1.036,-6.02,-0.86,1.32,-2.47,-10.05,-0.44
2022-02-08 11:23:41.8330,-0.054,0.739,-0.922,-6.02,-0.86,1.32,-1.92,-11.06,-0.4
2022-02-08 11:23:41.8350,-0.468,0.605,0.439,-6.02,-0.86,1.32,-4.71,-12.21,-1.46
2022-02-08 11:23:41.8380,-1.555,0.715,2.589,-6.02,-0.86,1.32,-4.83,-9.12,-2.27
2022-02-08 11:23:41.8380,-1.482,0.871,0.928,-6.02,-0.86,1.32,-1.93,-5.11,-2.79
2022-02-08 11:23:41.8370,-1.479,0.909,-0.627,-6.02,-0.86,1.32,1.34,-2.42,-3.31
2022-02-08 11:23:41.8370,-0.942,0.727,-1.499,-6.02,-0.86,1.32,3.88,-1.02,-3.04
2022-02-08 11:23:41.8390,-0.248,0.468,-1.662,-6.02,-0.86,1.32,4.71,-0.22,-2.22
2022-02-08 11:23:41.8430,-0.131,0.212,-0.7,-6.02,-0.86,1.32,3.18,0.13,-1.68
Time,0.058,0.139,-0.224,-6.02,-0.86,1.32,1.23,1.32,-1.49
2022-02-08 11:23:41.8430,0.451,0.282,-0.124,-6.02,-0.86,1.32,-0.95,3.24,-1.76
2022-02-08 11:23:41.8440,0.803,0.473,-0.098,-6.02,-0.86,1.32,-3.13,3.66,-2.03
2022-02-08 11:23:41.8440,0.949,0.701,-0.176,-6.02,-0.86,1.32,-5.27,-1.71,-1.7
2022-02-08 11:23:41.8450,0.991,1.26,-0.321,-6.02,-0.86,1.32,-3.87,-10.85,0.29
2022-02-08 11:23:41.8470,1.258,1.862,-0.461,-6.02,-0.86,1.32,0.49,-16.36,0.89
2022-02-08 11:23:41.8470,0.999,2.15,0.431,-6.02,-0.86,1.32,0.49,-16.36,0.89
2022-02-08 11:23:41.8500,0.927,1.862,1.004,-6.02,-0.86,1.32,3.85,-14.67,-1.41
2022-02-08 11:23:41.8490,0.877,1.34,0.951,-6.02,-0.86,1.32,2.51,-11.21,-2.27
2022-02-08 11:23:41.8510,0.706,1.042,0.864,-6.02,-0.86,1.32,0.21,-6.74,-2.66
2022-02-08 11:23:41.8530,0.69,1.094,0.885,-6.02,-0.86,1.32,-1.45,-2.63,-2.68
2022-02-08 11:23:41.8520,0.892,1.276,0.538,-6.02,-0.86,1.32,-0.87,-0.56,-3.1
Time,1.268,1.467,-0.191,-6.02,-0.86,1.32,0.97,-0.07,-3.5
2022-02-08 11:23:41.8550,1.508,1.528,-0.581,-6.02,-0.86,1.32,2.55,0.29,-3.37
2022-02-08 11:23:41.8530,1.529,1.609,-0.46,-6.02,-0.86,1.32,3.12,1.35,-2.63
Time,1.473,1.684,-0.164,-6.02,-0.86,1.32,3.07,3.02,-1.76
2022-02-08 11:23:41.8600,1.387,1.713,0.002,-6.02,-0.86,1.32,2.7,4.62,-1.08
2022-02-08 11:23:41.8590,1.291,1.633,0.015,-6.02,-0.86,1.32,2.38,5.86,-0.59
2022-02-08 11:23:41.8600,1.201,1.479,-0.05,-6.02,-0.86,1.32,2.18,6.69,-0.28
2022-02-08 11:23:41.8610,1.101,1.296,-0.096,-6.02,-0.86,1.32,2.03,7.19,-0.14
2022-02-08 11:23:41.8620,0.998,1.123,-0.101,-6.02,-0.86,1.32,1.83,7.47,-0.12
2022-02-08 11:23:41.8650,0.914,0.984,-0.075,-6.02,-0.86,1.32,1.62,7.53,-0.23
2022-02-08 11:23:41.8640,0.85,0.882,-0.083,-6.02,-0.86,1.32,1.45,7.44,-0.44
2022-02-08 11:23:41.8650,0.792,0.79,-0.094,-6.02,-0.86,1.32,1.3,7.36,-0.67
2022-02-08 11:23:41.8670,0.755,0.696,-0.072,-6.02,-0.86,1.32,1.11,7.42,-0.82
2022-02-08 11:23:41.8680,0.731,0.601,-0.014,-6.02,-0.86,1.32,0.78,7.76,-0.86
2022-02-08 11:23:41.8700,-0.035,-0.447,-0.791,-6.02,-0.86,1.32,-0.4,-0.25,-0.66
2022-02-08 11:23:41.8710,-0.041,-0.437,-0.834,-6.02,-0.86,1.32,-0.56,-0.34,-0.88
2022-02-08 11:23:41.8710,-0.006,-0.437,-0.849,-6.02,-0.86,1.32,-0.74,-0.43,-1.02
2022-02-08 11:23:41.8730,0.034,-0.428,-0.839,-6.02,-0.86,1.32,-0.93,-0.54,-1.1
2022-02-08 11:23:41.8750,0.071,-0.418,-0.873,-6.02,-0.86,1.32,-1.15,-0.75,-1.06
2022-02-08 11:23:41.8750,0.103,-0.488,-0.923,-6.02,-0.86,1.32,-1.31,-0.93,-0.9
2022-02-08 11:23:41.8760,0.107,-0.614,-0.956,-6.02,-0.86,1.32,-1.33,-1.02,-0.71
2022-02-08 11:23:41.8770,0.09,-0.671,-0.95,-6.02,-0.86,1.32,-1.25,-0.91,-0.51
2022-02-08 11:23:41.8780,0.077,-0.629,-0.904,-6.02,-0.86,1.32,-1.12,-0.59,-0.3
2022-02-08 11:23:41.8790,0.091,-0.552,-0.866,-6.02,-0.86,1.32,-0.95,-0.22,-0.14
2022-02-08 11:23:41.8820,0.105,-0.513,-0.871,-6.02,-0.86,1.32,-0.77,0.11,0.0
2022-02-08 11:23:41.8820,0.115,-0.526,-0.892,-6.02,-0.86,1.32,-0.62,0.34,0.15
2022-02-08 11:23:41.8820,0.118,-0.548,-0.931,-6.02,-0.86,1.32,-0.49,0.45,0.26
2022-02-08 11:23:41.8830,0.102,-0.542,-0.968,-6.02,-0.86,1.32,-0.38,0.45,0.35
2022-02-08 11:23:41.8840,0.073,-0.505,-0.966,-6.02,-0.86,1.32,-0.3,0.42,0.4
2022-02-08 11:23:41.8840,0.04,-0.449,-0.944,-6.02,-0.86,1.32,-0.24,0.4,0.42
2022-02-08 11:23:41.8870,0.009,-0.4,-0.927,-6.02,-0.86,1.32,-0.19,0.38,0.4
2022-02-08 11:23:41.8890,-0.019,-0.373,-0.921,-6.02,-0.86,1.32,-0.13,0.38,0.36
2022-02-08 11:23:41.8880,-0.03,-0.381,-0.92,-6.02,-0.86,1.32,-0.06,0.45,0.33
2022-02-08 11:23:41.8890,-0.019,-0.405,-0.912,-6.02,-0.86,1.32,0.0,0.55,0.31
2022-02-08 11:23:41.8900,-0.002,-0.413,-0.906,-6.02,-0.86,1.32,0.05,0.61,0.31
2022-02-08 11:23:41.8910,0.011,-0.418,-0.913,-6.02,-0.86,1.32,0.08,0.56,0.3
2022-02-08 11:23:41.8940,0.017,-0.415,-0.926,-6.02,-0.86,1.32,0.07,0.47,0.28
2022-02-08 11:23:41.8950,0.013,-0.392,-0.921,-6.02,-0.86,1.32,0.03,0.44,0.25
2022-02-08 11:23:41.8950,0.008,-0.359,-0.921,-6.02,-0.86,1.32,-0.04,0.4,0.21
2022-02-08 11:23:41.8960,0.039,-0.354,-0.95,-6.02,-0.86,1.32,-0.13,0.25,0.16
2022-02-08 11:23:41.8950,0.081,-0.371,-0.982,-6.02,-0.86,1.32,-0.21,0.04,0.13
2022-02-08 11:23:41.8980,0.1,-0.373,-0.991,-6.02,-0.86,1.32,-0.24,-0.11,0.15
2022-02-08 11:23:41.9000,0.103,-0.364,-0.991,-6.02,-0.86,1.32,-0.2,-0.22,0.19
2022-02-08 11:23:41.9010,0.089,-0.346,-0.999,-6.02,-0.86,1.32,-0.11,-0.33,0.22
Time,0.045,-0.332,-1.033,-6.02,-0.86,1.32,0.02,-0.52,0.18
2022-02-08 11:23:41.9010,0.011,-0.304,-1.044,-6.02,-0.86,1.32,0.13,-0.69,0.1
2022-02-08 11:23:41.9040,0.021,-0.292,-0.993,-6.02,-0.86,1.32,0.16,-0.77,0.05
2022-02-08 11:23:41.9030,0.046,-0.328,-0.931,-6.02,-0.86,1.32,0.15,-0.7,0.02
2022-02-08 11:23:41.9060,0.039,-0.359,-0.88,-6.02,-0.86,1.32,0.19,-0.51,-0.02
2022-02-08 11:23:41.9070,0.008,-0.345,-0.862,-6.02,-0.86,1.32,0.31,-0.32,-0.07
2022-02-08 11:23:41.9070,-0.028,-0.329,-0.871,-6.02,-0.86,1.32,0.47,-0.09,-0.03
2022-02-08 11:23:41.9080,-0.048,-0.369,-0.919,-6.02,-0.86,1.32,0.71,0.08,0.07
2022-02-08 11:23:41.9090,-0.058,-0.406,-1.002,-6.02,-0.86,1.32,1.07,0.03,0.01
2022-02-08 11:23:41.9090,-0.06,-0.378,-1.093,-6.02,-0.86,1.32,1.41,-0.33,-0.22
2022-02-08 11:23:41.9120,-0.021,-0.37,-1.13,-6.02,-0.86,1.32,1.63,-0.69,-0.25
2022-02-08 11:23:41.9130,0.04,-0.399,-1.037,-6.02,-0.86,1.32,1.69,-0.88,-0.13
2022-02-08 11:23:41.9130,0.066,-0.395,-0.945,-6.02,-0.86,1.32,1.62,-1.04,-0.02
2022-02-08 11:23:41.9150,0.081,-0.428,-0.881,-6.02,-0.86,1.32,1.54,-0.96,0.04
2022-02-08 11:23:41.9160,0.034,-0.468,-0.763,-6.02,-0.86,1.32,1.48,-0.6,0.05
2022-02-08 11:23:41.9160,-0.046,-0.503,-0.674,-6.02,-0.86,1.32,1.48,-0.6,0.05
2022-02-08 11:23:41.9180,-0.061,-0.543,-0.666,-6.02,-0.86,1.32,1.1,-0.04,0.05
2022-02-08 11:23:41.9200,-0.002,-0.594,-0.702,-6.02,-0.86,1.32,0.65,-0.28,0.13
2022-02-08 11:23:41.9190,0.031,-0.609,-0.723,-6.02,-0.86,1.32,0.09,-0.68,0.23
2022-02-08 11:23:41.9220,-0.016,-0.574,-0.726,-6.02,-0.86,1.32,-0.35,-1.0,0.22
2022-02-08 11:23:41.9210,-0.077,-0.5,-0.756,-6.02,-0.86,1.32,-0.56,-1.27,0.11
2022-02-08 11:23:41.9230,-0.093,-0.457,-0.794,-6.02,-0.86,1.32,-0.64,-1.39,0.05
2022-02-08 11:23:41.9250,-0.061,-0.476,-0.782,-6.02,-0.86,1.32,-0.65,-1.31,0.03
2022-02-08 11:23:41.9340,-0.038,-0.499,-0.789,-6.02,-0.86,1.32,-0.58,-1.14,0.03
2022-02-08 11:23:41.9440,-0.044,-0.515,-0.821,-6.52,3.39,1.14,-0.48,-0.9,0.11
2022-02-08 11:23:41.9540,-0.103,-0.55,-0.877,-6.52,3.39,1.14,-0.31,-0.67,0.18
2022-02-08 11:23:41.9650,-0.176,-0.512,-0.977,-6.52,3.39,1.14,-0.07,-0.65,0.16
Time,-0.213,-0.432,-1.039,-6.52,3.39,1.14,0.16,-0.78,0.1
2022-02-08 11:23:41.9860,-0.214,-0.401,-1.019,-6.52,3.39,1.14,0.31,-0.89,0.01
2022-02-08 11:23:41.9950,-0.21,-0.412,-0.953,-6.52,3.39,1.14,0.37,-0.9,-0.08
2022-02-08 11:23:42.0050,-0.189,-0.452,-0.861,-6.52,3.39,1.14,0.35,-0.86,-0.14
2022-02-08 11:23:42.0150,-0.181,-0.478,-0.785,0.97,9.19,-3.39,0.25,-0.78,-0.17
2022-02-08 11:23:42.0250,-0.21,-0.479,-0.755,15.95,-11.06,7.91,0.12,-0.69,-0.23
2022-02-08 11:23:42.0350,-0.246,-0.467,-0.756,24.93,-0.31,5.34,-0.02,-0.61,-0.3
2022-02-08 11:23:42.0450,-0.238,-0.475,-0.772,-1.17,2.05,7.92,-0.13,-0.59,-0.35
2022-02-08 11:23:42.0550,-0.21,-0.476,-0.817,-2.35,2.82,6.05,-0.18,-0.62,-0.38
2022-02-08 11:23:42.0650,-0.198,-0.47,-0.862,-6.99,-10.51,-1.35,-0.19,-0.68,-0.35
2022-02-08 11:23:42.0760,-0.232,-0.487,-0.882,0.09,4.47,8.12,-0.18,-0.72,-0.34
Time,-0.29,-0.475,-0.884,5.57,4.46,3.79,-0.12,-0.78,-0.42
2022-02-08 11:23:42.0960,-0.311,-0.425,-0.875,-3.98,-3.99,2.9,-0.12,-0.85,-0.55
2022-02-08 11:23:42.1060,-0.283,-0.41,-0.86,0.88,-2.57,51.93,-0.18,-0.87,-0.69
2022-02-08 11:23:42.1150,-0.216,-0.444,-0.862,-2.31,-3.27,1.56,-0.21,-0.87,-0.76
Time,-0.161,-0.478,-0.902,-4.02,6.74,7.66,-0.12,-0.88,-0.74
2022-02-08 11:23:42.1360,-0.128,-0.542,-0.888,-1.38,-0.15,4.53,0.4,-0.32,-0.41
2022-02-08 11:23:42.1460,-0.145,-0.688,-0.777,1.64,3.36,8.54,0.79,0.24,-0.07
2022-02-08 11:23:42.1560,-0.255,-0.584,-0.777,3.15,-6.6,10.44,0.81,0.36,-0.16
2022-02-08 11:23:42.1660,-0.346,-0.405,-0.813,1.4,-1.03,4.05,0.63,0.22,-0.33
2022-02-08 11:23:42.1760,-0.33,-0.447,-0.802,-6.77,-1.32,-5.33,0.45,-0.03,-0.37
2022-02-08 11:23:42.1860,-0.27,-0.516,-0.763,-1.34,-0.21,0.12,0.24,-0.27,-0.33
2022-02-08 11:23:42.1960,-0.23,-0.52,-0.714,-0.82,-0.22,0.43,-0.03,-0.46,-0.26
2022-02-08 11:23:42.2060,-0.238,-0.525,-0.682,-0.8,0.25,-1.12,-0.28,-0.57,-0.2
2022-02-08 11:23:42.2170,-0.295,-0.533,-0.642,-0.68,1.54,-0.52,-0.42,-0.43,-0.11
2022-02-08 11:23:42.2200,-0.332,-0.588,-0.55,-0.01,-0.01,-1.37,-0.39,0.14,0.12
2022-02-08 11:23:42.2300,-0.312,-0.624,-0.433,0.56,0.22,-2.01,-0.35,0.94,0.27
2022-02-08 11:23:42.2400,-0.262,-0.56,-0.417,0.64,1.02,-3.2,-0.43,1.67,0.35
2022-02-08 11:23:42.2500,-0.212,-0.564,-0.481,0.43,0.68,-4.02,-0.43,1.67,0.35
