time,gFx,gFy,gFz,ax,ay,az,wx,wy,wz
2022-01-31 10:14:02.6380,-0.221,-0.171,-0.817,0.9,0.33,-1.73,-1.13,-0.79,-0.56
2022-01-31 10:14:02.6480,-0.286,-0.096,-0.868,1.5,-0.16,-1.6,-1.02,-0.68,-0.76
2022-01-31 10:14:02.6590,-0.34,-0.048,-0.932,2.1,-0.81,-1.12,-0.85,-0.62,-1.03
2022-01-31 10:14:02.6690,-0.378,-0.031,-0.993,2.58,-1.21,-0.5,-0.64,-0.55,-1.28
2022-01-31 10:14:02.6790,-0.342,-0.09,-1.037,2.93,-1.33,0.1,-0.45,-0.42,-1.4
2022-01-31 10:14:02.6890,-0.255,-0.178,-1.021,2.57,-0.73,0.52,-0.32,-0.21,-1.38
2022-01-31 10:14:02.6990,-0.196,-0.214,-0.979,1.72,0.16,0.36,-0.28,-0.08,-1.28
2022-01-31 10:14:02.7090,-0.141,-0.204,-0.978,1.16,0.53,-0.05,-0.28,-0.08,-1.28
2022-01-31 10:14:02.7190,-0.184,-0.168,-0.976,0.63,0.46,-0.07,-0.42,-0.21,-1.18
2022-01-31 10:14:02.7290,-0.317,-0.127,-0.941,1.04,0.14,-0.1,-0.59,-0.35,-1.27
2022-01-31 10:14:02.7400,-0.341,-0.115,-0.933,2.33,-0.21,-0.44,-0.72,-0.51,-1.3
2022-01-31 10:14:02.7490,-0.245,-0.172,-0.993,2.52,-0.26,-0.53,-0.8,-0.69,-1.21
2022-01-31 10:14:02.7590,-0.204,-0.244,-1.001,1.53,0.37,0.06,-0.92,-0.88,-1.1
2022-01-31 10:14:02.7690,-0.177,-0.27,-1.006,1.05,1.15,0.13,-1.02,-1.09,-0.91
2022-01-31 10:14:02.7790,-0.061,-0.279,-1.073,0.67,1.5,0.18,-1.0,-1.19,-0.63
2022-01-31 10:14:02.7900,-0.017,-0.302,-1.155,-0.57,1.68,0.84,-0.79,-1.11,-0.31
2022-01-31 10:14:02.8000,-0.035,-0.329,-1.258,-1.1,1.96,1.65,-0.36,-0.95,-0.07
2022-01-31 10:14:02.8100,-0.078,-0.325,-1.366,-1.01,2.25,2.67,0.18,-0.92,-0.02
2022-01-31 10:14:02.8200,-0.125,-0.287,-1.391,-0.68,2.16,3.75,0.71,-0.88,-0.18
2022-01-31 10:14:02.8300,-0.17,-0.172,-1.275,-0.29,1.7,4.01,1.12,-0.65,-0.39
2022-01-31 10:14:02.8400,-0.237,-0.049,-1.096,0.1,0.45,2.9,1.33,-0.28,-0.55
2022-01-31 10:14:02.8500,-0.344,-0.039,-0.95,0.75,-0.9,1.16,1.37,0.14,-0.78
2022-01-31 10:14:02.8600,-0.441,-0.107,-0.87,1.84,-1.14,-0.25,1.28,0.46,-1.05
2022-01-31 10:14:02.8700,-0.491,-0.19,-0.805,2.87,-0.6,-1.03,1.05,0.68,-1.3
2022-01-31 10:14:02.8800,-0.439,-0.252,-0.761,3.46,0.1,-1.66,0.72,0.86,-1.48
2022-01-31 10:14:02.8910,-0.31,-0.258,-0.751,3.05,0.63,-2.09,0.39,0.96,-1.55
2022-01-31 10:14:02.9000,-0.159,-0.243,-0.815,1.92,0.64,-2.2,0.1,1.0,-1.48
2022-01-31 10:14:02.9110,-0.053,-0.205,-0.823,0.55,0.48,-1.58,-0.14,1.01,-1.37
2022-01-31 10:14:02.9200,-0.007,-0.189,-0.831,-0.36,0.12,-1.52,-0.33,1.03,-1.28
2022-01-31 10:14:02.9310,-0.01,-0.203,-0.825,-0.68,-0.01,-1.46,-0.46,1.09,-1.2
2022-01-31 10:14:02.9410,-0.045,-0.224,-0.818,-0.53,0.16,-1.53,-0.52,1.17,-1.11
2022-01-31 10:14:02.9510,-0.058,-0.239,-0.859,-0.05,0.41,-1.61,-0.51,1.3,-0.95
2022-01-31 10:14:02.9610,-0.047,-0.277,-0.908,0.23,0.61,-1.23,-0.42,1.51,-0.73
2022-01-31 10:14:02.9710,-0.031,-0.291,-0.936,0.29,1.01,-0.75,-0.28,1.85,-0.57
2022-01-31 10:14:02.9810,-0.0,-0.233,-0.948,0.35,1.16,-0.49,0.03,2.54,-0.43
2022-01-31 10:14:02.9910,0.059,-0.198,-1.078,0.3,0.58,-0.36,0.43,2.52,-0.31
2022-01-31 10:14:03.0010,0.113,-0.204,-1.153,-0.03,0.18,0.94,0.78,2.4,-0.19
2022-01-31 10:14:03.0110,0.189,-0.25,-1.193,-0.35,0.15,1.7,1.0,1.95,0.01
2022-01-31 10:14:03.0220,0.24,-0.328,-1.171,-0.92,0.51,2.13,1.08,1.43,0.22
2022-01-31 10:14:03.0310,0.226,-0.328,-1.053,-1.3,1.16,1.95,1.08,0.82,0.42
2022-01-31 10:14:03.0420,0.171,-0.354,-0.981,-1.13,1.06,0.82,1.08,0.82,0.42
2022-01-31 10:14:03.0520,0.112,-0.359,-0.976,-0.65,1.2,0.13,1.15,-1.25,0.4
2022-01-31 10:14:03.0620,0.145,-0.335,-0.94,-0.24,1.14,0.09,1.03,-2.46,0.06
2022-01-31 10:14:03.0720,0.156,-0.249,-0.867,-0.83,0.82,-0.26,0.62,-3.51,-0.44
2022-01-31 10:14:03.0820,0.124,-0.247,-0.78,-1.29,-0.06,-0.99,0.04,-4.27,-0.89
2022-01-31 10:14:03.0920,0.09,-0.288,-0.715,-1.36,-0.06,-1.84,-0.52,-4.11,-0.88
2022-01-31 10:14:03.1020,0.139,-0.276,-0.614,-1.36,0.41,-2.49,-1.25,-2.44,0.15
2022-01-31 10:14:03.1120,0.106,-0.273,-0.674,-2.02,0.44,-3.51,-1.59,-1.04,0.98
2022-01-31 10:14:03.1220,-0.296,-0.462,-1.083,-1.83,0.55,-2.94,-1.03,-1.42,1.12
2022-01-31 10:14:03.1330,-0.489,-0.391,-1.251,1.94,2.48,1.07,-0.27,-1.54,0.84
2022-01-31 10:14:03.1420,-0.435,-0.184,-1.105,3.68,1.79,2.73,0.44,-1.36,0.3
2022-01-31 10:14:03.1520,-0.373,-0.154,-1.075,3.02,-0.29,1.33,0.97,-1.33,-0.27
2022-01-31 10:14:03.1620,-0.323,-0.184,-1.048,2.29,-0.7,1.08,1.3,-1.49,-0.73
2022-01-31 10:14:03.1720,-0.353,-0.227,-0.978,1.67,-0.55,0.87,1.49,-1.68,-1.08
2022-01-31 10:14:03.1830,-0.449,-0.283,-0.871,1.84,-0.29,0.24,1.52,-1.66,-1.48
2022-01-31 10:14:03.1930,-0.484,-0.362,-0.829,2.67,0.09,-0.73,1.55,-1.71,-1.61
2022-01-31 10:14:03.2030,-0.334,-0.502,-0.817,2.9,0.7,-1.08,1.17,-1.47,-1.72
2022-01-31 10:14:03.2130,-0.196,-0.418,-0.709,1.34,1.94,-1.14,0.74,-1.37,-1.55
2022-01-31 10:14:03.2230,-0.109,-0.385,-0.756,-0.09,1.04,-2.15,0.53,-1.49,-1.18
2022-01-31 10:14:03.2330,-0.139,-0.376,-0.804,-1.04,0.65,-1.65,0.53,-1.49,-1.18
2022-01-31 10:14:03.2430,-0.279,-0.353,-0.834,-0.8,0.52,-1.15,0.12,-0.62,-0.21
2022-01-31 10:14:03.2530,-0.218,-0.29,-0.891,0.55,0.3,-0.85,-0.18,-0.03,0.15
2022-01-31 10:14:03.2630,-0.238,-0.288,-0.826,-0.05,-0.29,-0.31,-0.49,0.34,0.33
2022-01-31 10:14:03.2730,-0.259,-0.292,-0.955,0.18,-0.25,-0.97,-0.79,0.63,0.32
2022-01-31 10:14:03.2830,-0.316,-0.283,-0.923,0.44,-0.12,0.25,-1.04,0.88,0.19
2022-01-31 10:14:03.2930,-0.308,-0.241,-0.929,1.09,-0.1,-0.11,-1.4,1.39,0.15
2022-01-31 10:14:03.3040,-0.245,-0.182,-0.858,1.14,-0.37,-0.13,-1.68,1.38,0.23
2022-01-31 10:14:03.3140,-0.146,-0.146,-0.991,0.64,-0.78,-0.89,-1.66,1.32,0.31
2022-01-31 10:14:03.3240,-0.099,-0.178,-0.983,-0.22,-0.98,0.35,-1.47,1.19,0.31
2022-01-31 10:14:03.3340,-0.07,-0.154,-1.051,-0.58,-0.53,0.23,-1.1,0.87,0.16
2022-01-31 10:14:03.3440,-0.069,-0.106,-1.137,-0.81,-0.68,0.86,-0.63,0.41,-0.01
2022-01-31 10:14:03.3540,-0.053,-0.095,-1.173,-0.79,-1.12,1.69,-0.13,-0.16,-0.0
2022-01-31 10:14:03.3640,0.003,-0.078,-1.173,-0.99,-1.23,2.05,0.41,-0.73,0.15
2022-01-31 10:14:03.3740,0.035,-0.089,-1.158,-1.63,-1.44,2.07,0.91,-1.26,0.32
2022-01-31 10:14:03.3840,0.055,-0.099,-1.14,-2.09,-1.43,1.98,1.31,-1.77,0.41
2022-01-31 10:14:03.3940,0.054,-0.111,-1.099,-2.48,-1.46,1.88,1.31,-1.77,0.41
2022-01-31 10:14:03.4040,0.004,-0.145,-1.021,-2.71,-1.48,1.56,1.58,-2.63,0.42
2022-01-31 10:14:03.4140,-0.072,-0.209,-0.925,-2.48,-1.27,0.9,1.47,-2.85,0.4
2022-01-31 10:14:03.4240,-0.155,-0.258,-0.838,-2.0,-0.77,0.07,1.33,-2.75,0.32
2022-01-31 10:14:03.4350,-0.231,-0.258,-0.807,-1.43,-0.4,-0.67,1.28,-2.4,0.14
2022-01-31 10:14:03.4450,-0.318,-0.264,-0.836,-0.89,-0.52,-0.87,1.26,-1.93,-0.03
2022-01-31 10:14:03.4550,-0.372,-0.284,-0.866,-0.18,-0.57,-0.49,1.16,-1.41,-0.11
2022-01-31 10:14:03.4650,-0.364,-0.3,-0.84,0.24,-0.46,-0.12,0.96,-0.92,-0.09
2022-01-31 10:14:03.4750,-0.367,-0.285,-0.799,0.1,-0.38,-0.32,0.67,-0.45,-0.08
2022-01-31 10:14:03.4850,-0.385,-0.241,-0.772,0.1,-0.58,-0.69,0.35,-0.11,-0.14
2022-01-31 10:14:03.4950,-0.388,-0.236,-0.835,0.29,-1.05,-0.94,0.14,0.01,-0.17
2022-01-31 10:14:03.5050,-0.344,-0.327,-0.937,0.33,-1.11,-0.33,0.08,0.26,-0.22
2022-01-31 10:14:03.5150,-0.391,-0.338,-0.938,-0.06,-0.23,0.66,0.11,0.52,-0.28
2022-01-31 10:14:03.5250,-0.396,-0.289,-0.962,0.45,-0.15,0.66,0.12,0.64,-0.36
2022-01-31 10:14:03.5350,-0.395,-0.28,-0.959,0.58,-0.65,0.88,0.03,0.63,-0.44
2022-01-31 10:14:03.5450,-0.353,-0.29,-0.936,0.63,-0.75,0.82,-0.05,0.55,-0.51
2022-01-31 10:14:03.5550,-0.312,-0.312,-0.919,0.28,-0.66,0.58,-0.1,0.43,-0.53
2022-01-31 10:14:03.5660,-0.273,-0.326,-0.898,-0.06,-0.45,0.4,-0.14,0.24,-0.5
2022-01-31 10:14:03.5760,-0.251,-0.321,-0.914,-0.42,-0.32,0.18,-0.13,-0.02,-0.49
2022-01-31 10:14:03.5860,-0.281,-0.325,-0.939,-0.62,-0.38,0.34,-0.05,-0.18,-0.57
2022-01-31 10:14:03.5960,-0.311,-0.279,-0.948,-0.33,-0.35,0.59,0.09,-0.21,-0.73
2022-01-31 10:14:03.6060,-0.301,-0.249,-0.96,-0.01,-0.84,0.69,0.23,-0.12,-0.76
2022-01-31 10:14:03.6160,-0.187,-0.323,-0.928,-0.1,-1.19,0.82,0.26,-0.01,-0.66
2022-01-31 10:14:03.6260,-0.121,-0.344,-0.868,-1.2,-0.5,0.51,0.21,-0.0,-0.49
2022-01-31 10:14:03.6360,-0.076,-0.344,-0.856,-1.83,-0.31,-0.07,0.15,-0.02,-0.28
2022-01-31 10:14:03.6460,-0.097,-0.354,-0.85,-2.26,-0.33,-0.18,0.05,-0.0,-0.18
2022-01-31 10:14:03.6570,-0.172,-0.357,-0.831,-2.04,-0.24,-0.24,-0.07,0.13,-0.13
2022-01-31 10:14:03.6660,-0.219,-0.372,-0.816,-1.29,-0.2,-0.44,-0.25,0.26,-0.12
2022-01-31 10:14:03.6770,-0.247,-0.372,-0.805,-0.8,-0.03,-0.6,-0.43,0.45,-0.15
2022-01-31 10:14:03.6870,-0.282,-0.349,-0.798,-0.47,0.01,-0.75,-0.6,0.67,-0.21
2022-01-31 10:14:03.6970,-0.308,-0.33,-0.825,-0.05,-0.17,-0.86,-0.72,0.87,-0.23
2022-01-31 10:14:03.7070,-0.281,-0.345,-0.857,0.29,-0.3,-0.65,-0.78,0.93,-0.23
2022-01-31 10:14:03.7170,-0.272,-0.325,-0.895,0.11,-0.09,-0.39,-0.79,0.92,-0.23
2022-01-31 10:14:03.7270,-0.227,-0.324,-0.937,0.11,-0.22,-0.06,-0.71,0.78,-0.19
2022-01-31 10:14:03.7370,-0.226,-0.338,-1.003,-0.26,-0.17,0.31,-0.56,0.62,-0.23
2022-01-31 10:14:03.7470,-0.252,-0.282,-1.001,-0.21,0.0,0.92,-0.43,0.51,-0.25
2022-01-31 10:14:03.7570,-0.228,-0.33,-1.013,0.09,-0.53,0.88,-0.29,0.24,-0.28
2022-01-31 10:14:03.7670,-0.275,-0.342,-1.028,-0.12,-0.04,0.98,-0.16,0.09,-0.4
2022-01-31 10:14:03.7770,-0.293,-0.325,-0.96,0.37,0.08,1.13,-0.13,0.04,-0.48
2022-01-31 10:14:03.7870,-0.225,-0.342,-0.875,0.56,-0.08,0.46,-0.21,0.19,-0.38
2022-01-31 10:14:03.7980,-0.15,-0.342,-0.788,-0.07,0.11,-0.4,-0.4,0.46,-0.18
2022-01-31 10:14:03.8080,-0.139,-0.349,-0.735,-0.75,0.15,-1.28,-0.61,0.84,0.07
2022-01-31 10:14:03.8180,-0.185,-0.355,-0.772,-0.78,0.28,-1.84,-0.77,1.05,0.23
2022-01-31 10:14:03.8280,-0.225,-0.343,-0.847,-0.23,0.42,-1.53,-0.82,1.21,0.26
2022-01-31 10:14:03.8380,-0.252,-0.243,-0.904,0.27,0.38,-0.84,-0.79,1.33,0.24
2022-01-31 10:14:03.8480,-0.251,-0.233,-0.96,0.66,-0.53,-0.32,-0.74,1.33,0.28
2022-01-31 10:14:03.8580,-0.271,-0.248,-0.959,0.76,-0.55,0.18,-0.74,1.25,0.28
2022-01-31 10:14:03.8680,-0.271,-0.241,-0.888,1.06,-0.33,0.13,-0.8,1.1,0.29
2022-01-31 10:14:03.8780,-0.255,-0.249,-0.835,1.15,-0.32,-0.61,-0.89,0.84,0.28
2022-01-31 10:14:03.8880,-0.246,-0.26,-0.812,1.04,-0.15,-1.17,-0.96,0.5,0.28
2022-01-31 10:14:03.8980,-0.248,-0.259,-0.81,0.99,0.05,-1.42,-0.98,0.17,0.26
2022-01-31 10:14:03.9090,-0.263,-0.212,-0.832,1.01,0.15,-1.47,-0.92,-0.1,0.2
2022-01-31 10:14:03.9180,-0.296,-0.149,-0.861,1.14,-0.24,-1.26,-0.79,-0.27,0.15
2022-01-31 10:14:03.9280,-0.315,-0.111,-0.865,1.43,-0.78,-1.0,-0.65,-0.42,0.1
2022-01-31 10:14:03.9390,-0.335,-0.081,-0.863,1.56,-1.09,-0.96,-0.55,-0.66,0.11
2022-01-31 10:14:03.9490,-0.331,-0.086,-0.836,1.69,-1.34,-0.98,-0.51,-0.83,0.13
2022-01-31 10:14:03.9590,-0.318,-0.114,-0.809,1.55,-1.24,-1.25,-0.51,-0.83,0.13
2022-01-31 10:14:03.9690,-0.323,-0.103,-0.787,1.34,-0.91,-1.51,-0.5,-1.04,0.11
2022-01-31 10:14:03.9790,-0.359,-0.078,-0.792,1.28,-0.97,-1.7,-0.51,-1.21,-0.01
2022-01-31 10:14:03.9890,-0.408,-0.014,-0.821,1.52,-1.17,-1.64,-0.52,-1.34,-0.16
2022-01-31 10:14:03.9990,-0.383,0.029,-0.839,1.86,-1.76,-1.34,-0.52,-1.43,-0.14
2022-01-31 10:14:04.0090,-0.291,-0.036,-0.877,1.49,-2.13,-1.14,-0.52,-1.46,-0.05
2022-01-31 10:14:04.0190,-0.285,-0.03,-0.879,0.45,-1.44,-0.74,-0.57,-1.44,-0.02
2022-01-31 10:14:04.0290,-0.281,-0.007,-0.879,0.25,-1.44,-0.7,-0.66,-1.32,-0.02
2022-01-31 10:14:04.0390,-0.287,0.004,-0.857,0.1,-1.6,-0.67,-0.76,-1.14,0.0
2022-01-31 10:14:04.0500,-0.277,0.027,-0.854,0.05,-1.63,-0.88,-0.86,-1.01,0.05
2022-01-31 10:14:04.0590,-0.25,0.056,-0.862,-0.13,-1.78,-0.89,-0.92,-0.9,0.1
2022-01-31 10:14:04.0690,-0.238,0.074,-0.869,-0.48,-1.97,-0.8,-0.93,-0.84,0.15
2022-01-31 10:14:04.0800,-0.236,0.085,-0.885,-0.68,-2.05,-0.72,-0.9,-0.92,0.19
2022-01-31 10:14:04.0900,-0.229,0.094,-0.904,-0.79,-2.07,-0.54,-0.9,-0.92,0.19
2022-01-31 10:14:04.1000,-0.223,0.098,-0.898,-0.98,-2.07,-0.34,-0.88,-1.3,0.27
2022-01-31 10:14:04.1100,-0.224,0.094,-0.907,-1.16,-2.02,-0.36,-0.96,-1.6,0.29
2022-01-31 10:14:04.1200,-0.244,0.081,-0.957,-1.31,-1.88,-0.22,-1.05,-1.81,0.26
2022-01-31 10:14:04.1300,-0.292,0.079,-0.955,-1.29,-1.65,0.32,-1.14,-1.68,0.25
2022-01-31 10:14:04.1400,-0.326,0.115,-0.894,-0.95,-1.51,0.36,-1.29,-1.39,0.32
2022-01-31 10:14:04.1500,-0.315,0.161,-0.874,-0.74,-1.73,-0.21,-1.44,-1.06,0.42
2022-01-31 10:14:04.1600,-0.286,0.172,-0.886,-0.94,-2.02,-0.36,-1.47,-0.79,0.56
2022-01-31 10:14:04.1700,-0.253,0.17,-0.939,-1.29,-1.98,-0.22,-1.37,-0.66,0.72
2022-01-31 10:14:04.1800,-0.234,0.185,-1.011,-1.67,-1.81,0.32,-1.12,-0.68,0.85
2022-01-31 10:14:04.1900,-0.236,0.208,-1.058,-1.92,-1.83,1.05,-0.76,-0.86,0.96
2022-01-31 10:14:04.2010,-0.243,0.208,-1.061,-2.0,-1.96,1.56,-0.39,-1.21,1.03
2022-01-31 10:14:04.2110,-0.289,0.17,-1.024,-2.05,-1.89,1.65,-0.17,-1.65,1.0
2022-01-31 10:14:04.2210,-0.33,0.129,-0.935,-1.75,-1.46,1.37,-0.21,-2.01,0.95
2022-01-31 10:14:04.2310,-0.354,0.094,-0.81,-1.52,-0.98,0.6,-0.47,-2.12,0.93
2022-01-31 10:14:04.2410,-0.37,0.082,-0.718,-1.47,-0.55,-0.53,-0.89,-2.08,0.92
2022-01-31 10:14:04.3200,-0.369,0.085,-0.712,-1.48,-0.29,-1.33,-0.68,-1.58,1.21
2022-01-31 10:14:04.3200,-0.386,0.093,-0.747,-1.48,-0.29,-1.33,-0.68,-1.58,1.21
2022-01-31 10:14:04.3200,-0.403,0.133,-0.79,-1.48,-0.29,-1.33,-0.68,-1.58,1.21
2022-01-31 10:14:04.3200,-0.419,0.198,-0.866,-1.48,-0.29,-1.33,-0.68,-1.58,1.21
2022-01-31 10:14:04.3200,-0.442,0.246,-0.966,-1.48,-0.29,-1.33,-0.68,-1.58,1.21
2022-01-31 10:14:04.3200,-0.442,0.273,-1.029,-1.48,-0.29,-1.33,-0.68,-1.58,1.21
2022-01-31 10:14:04.3200,-0.456,0.271,-1.036,-1.48,-0.29,-1.33,-0.68,-1.58,1.21
2022-01-31 10:14:04.3240,-0.498,0.259,-0.985,-1.48,-0.29,-1.33,-0.52,-1.84,1.14
Time,-0.526,0.26,-0.912,-1.48,-0.29,-1.33,-0.52,-2.05,1.08
2022-01-31 10:14:04.3430,-0.527,0.258,-0.872,-1.48,-0.29,-1.33,-0.6,-2.28,1.04
2022-01-31 10:14:04.3510,-0.508,0.265,-0.914,-1.48,-0.29,-1.33,-0.63,-2.44,1.01
2022-01-31 10:14:04.3620,-0.513,0.294,-0.943,-1.27,-1.0,1.53,-0.59,-2.34,1.04
2022-01-31 10:14:04.3720,-0.551,0.34,-0.897,-0.92,-0.67,1.47,-0.6,-2.06,1.12
2022-01-31 10:14:04.3820,-0.58,0.379,-0.837,-1.22,-1.01,1.94,-0.67,-1.71,1.22
2022-01-31 10:14:04.3920,-0.599,0.388,-0.805,-1.02,-1.25,1.48,-0.73,-1.39,1.31
2022-01-31 10:14:04.4020,-0.627,0.388,-0.831,-0.88,-1.2,1.27,-0.74,-1.23,1.34
2022-01-31 10:14:04.4120,-0.65,0.401,-0.881,-0.66,-1.06,1.63,-0.69,-1.22,1.35
2022-01-31 10:14:04.4220,-0.659,0.409,-0.923,-0.47,-1.05,2.23,-0.63,-1.29,1.34
2022-01-31 10:14:04.4330,-0.691,0.4,-0.952,-0.43,-1.0,2.74,-0.57,-1.29,1.3
2022-01-31 10:14:04.4460,-0.737,0.387,-0.94,-0.43,-1.0,2.74,-0.59,-1.2,1.27
2022-01-31 10:14:04.4460,-0.768,0.38,-0.897,-0.43,-1.0,2.74,-0.66,-0.97,1.24
2022-01-31 10:14:04.4540,-0.794,0.371,-0.856,-0.43,-1.0,2.74,-0.75,-0.64,1.22
2022-01-31 10:14:04.4640,-0.805,0.35,-0.856,-0.43,-1.0,2.74,-0.81,-0.31,1.22
2022-01-31 10:14:04.4740,-0.813,0.341,-0.875,-0.43,-1.0,2.74,-0.8,-0.01,1.22
2022-01-31 10:14:04.4950,-0.834,0.347,-0.91,-0.43,-1.0,2.74,-0.71,0.12,1.18
2022-01-31 10:14:04.5040,-0.836,0.332,-0.955,-0.43,-1.0,2.74,-0.55,0.11,1.09
2022-01-31 10:14:04.5150,-0.835,0.308,-0.98,-0.43,-1.0,2.74,-0.34,0.0,0.98
2022-01-31 10:14:04.5150,-0.832,0.301,-0.991,-0.43,-1.0,2.74,-0.09,-0.18,0.88
2022-01-31 10:14:04.5240,-0.819,0.293,-0.996,-0.43,-1.0,2.74,0.14,-0.42,0.77
2022-01-31 10:14:04.5240,-0.824,0.279,-0.972,-0.43,-1.0,2.74,0.32,-0.54,0.67
2022-01-31 10:14:04.5460,-0.819,0.283,-0.877,-0.43,-1.0,2.74,0.35,-0.53,0.65
2022-01-31 10:14:04.5550,-0.828,0.284,-0.791,-0.43,-1.0,2.74,0.27,-0.42,0.63
2022-01-31 10:14:04.5650,-0.862,0.274,-0.745,-0.43,-1.0,2.74,0.16,-0.27,0.57
2022-01-31 10:14:05.0950,-0.9,0.278,-0.744,1.75,1.6,1.57,1.04,-0.08,-0.29
2022-01-31 10:14:05.0950,-0.93,0.29,-0.747,1.75,1.6,1.57,1.04,-0.08,-0.29
2022-01-31 10:14:05.0950,-0.952,0.287,-0.755,1.75,1.6,1.57,1.04,-0.08,-0.29
2022-01-31 10:14:05.0950,-0.967,0.281,-0.753,1.75,1.6,1.57,1.04,-0.08,-0.29
2022-01-31 10:14:05.0950,-0.956,0.286,-0.755,1.75,1.6,1.57,1.04,-0.08,-0.29
2022-01-31 10:14:05.0950,-0.921,0.299,-0.763,1.75,1.6,1.57,1.04,-0.08,-0.29
2022-01-31 10:14:05.0950,-0.867,0.309,-0.759,1.75,1.6,1.57,1.04,-0.08,-0.29
2022-01-31 10:14:05.0950,-0.82,0.309,-0.743,1.75,1.6,1.57,1.04,-0.08,-0.29
2022-01-31 10:14:05.0950,-0.782,0.307,-0.7,1.75,1.6,1.57,1.04,-0.08,-0.29
2022-01-31 10:14:05.0950,-0.771,0.314,-0.672,1.75,1.6,1.57,1.04,-0.08,-0.29
2022-01-31 10:14:05.0950,-0.783,0.316,-0.652,1.75,1.6,1.57,1.04,-0.08,-0.29
2022-01-31 10:14:05.0950,-0.778,0.296,-0.621,1.75,1.6,1.57,1.04,-0.08,-0.29
2022-01-31 10:14:05.0950,-0.769,0.281,-0.583,1.75,1.6,1.57,1.04,-0.08,-0.29
2022-01-31 10:14:05.0950,-0.735,0.281,-0.563,1.75,1.6,1.57,1.04,-0.08,-0.29
2022-01-31 10:14:05.0950,-0.674,0.282,-0.556,1.75,1.6,1.57,1.04,-0.08,-0.29
2022-01-31 10:14:05.0950,-0.603,0.276,-0.556,1.75,1.6,1.57,1.04,-0.08,-0.29
2022-01-31 10:14:05.0950,-0.532,0.272,-0.554,1.75,1.6,1.57,1.04,-0.08,-0.29
2022-01-31 10:14:05.0950,-0.493,0.253,-0.515,1.75,1.6,1.57,1.04,-0.08,-0.29
2022-01-31 10:14:05.0950,-0.49,0.211,-0.459,1.75,1.6,1.57,1.04,-0.08,-0.29
2022-01-31 10:14:05.0950,-0.541,0.182,-0.388,1.75,1.6,1.57,1.04,-0.08,-0.29
2022-01-31 10:14:05.0950,-0.634,0.181,-0.32,1.75,1.6,1.57,1.04,-0.08,-0.29
2022-01-31 10:14:05.0950,-0.732,0.195,-0.282,1.75,1.6,1.57,1.04,-0.08,-0.29
2022-01-31 10:14:05.0950,-0.837,0.217,-0.268,1.75,1.6,1.57,1.04,-0.08,-0.29
2022-01-31 10:14:05.0950,-0.939,0.243,-0.28,1.75,1.6,1.57,1.04,-0.08,-0.29
2022-01-31 10:14:05.0950,-0.991,0.26,-0.292,1.75,1.6,1.57,1.04,-0.08,-0.29
2022-01-31 10:14:05.0950,-1.003,0.264,-0.282,1.75,1.6,1.57,1.04,-0.08,-0.29
2022-01-31 10:14:05.0950,-1.0,0.283,-0.271,1.75,1.6,1.57,1.04,-0.08,-0.29
2022-01-31 10:14:05.0950,-0.976,0.308,-0.271,1.75,1.6,1.57,1.04,-0.08,-0.29
2022-01-31 10:14:05.0950,-0.882,0.334,-0.285,1.75,1.6,1.57,1.04,-0.08,-0.29
2022-01-31 10:14:05.0950,-0.882,0.334,-0.285,1.75,1.6,1.57,1.04,-0.08,-0.29
2022-01-31 10:14:05.0950,-0.875,0.341,-0.313,1.75,1.6,1.57,1.04,-0.08,-0.29
2022-01-31 10:14:05.0950,-0.901,0.357,-0.351,1.75,1.6,1.57,1.04,-0.08,-0.29
2022-01-31 10:14:05.0950,-0.941,0.373,-0.378,1.75,1.6,1.57,1.04,-0.08,-0.29
2022-01-31 10:14:05.0950,-0.973,0.39,-0.401,1.75,1.6,1.57,1.04,-0.08,-0.29
2022-01-31 10:14:05.0950,-0.989,0.411,-0.425,1.75,1.6,1.57,1.04,-0.08,-0.29
2022-01-31 10:14:05.0950,-0.995,0.435,-0.45,1.75,1.6,1.57,1.04,-0.08,-0.29
2022-01-31 10:14:05.0950,-0.983,0.451,-0.479,1.75,1.6,1.57,1.04,-0.08,-0.29
2022-01-31 10:14:05.0950,-0.933,0.466,-0.498,1.75,1.6,1.57,1.04,-0.08,-0.29
Time,-0.891,0.456,-0.502,1.75,1.6,1.57,1.04,-0.08,-0.29
Time,-0.894,0.446,-0.514,1.75,1.6,1.57,1.04,-0.08,-0.29
Time,-0.884,0.458,-0.506,1.75,1.6,1.57,1.04,-0.08,-0.29
Time,-0.841,0.457,-0.464,1.75,1.6,1.57,1.04,-0.08,-0.29
Time,-0.801,0.436,-0.42,1.75,1.6,1.57,1.04,-0.08,-0.29
Time,-0.786,0.417,-0.408,1.75,1.6,1.57,1.04,-0.08,-0.29
2022-01-31 10:14:05.1130,-0.762,0.419,-0.414,1.75,1.6,1.57,1.01,0.18,-0.22
2022-01-31 10:14:05.1330,-0.7,0.414,-0.402,1.75,1.6,1.57,0.98,0.19,-0.11
2022-01-31 10:14:05.1330,-0.628,0.375,-0.374,1.75,1.6,1.57,0.92,0.16,0.04
2022-01-31 10:14:05.1370,-0.584,0.339,-0.351,1.75,1.6,1.57,0.86,0.0,0.16
Time,-0.566,0.315,-0.367,1.75,1.6,1.57,0.84,-0.35,0.25
2022-01-31 10:14:05.1430,-0.56,0.27,-0.374,1.75,1.6,1.57,0.78,-0.9,0.28
Time,-0.541,0.209,-0.267,1.75,1.6,1.57,0.67,-1.35,0.34
Time,-0.566,0.2,-0.189,1.75,1.6,1.57,0.52,-1.69,0.36
2022-01-31 10:14:05.1560,-0.611,0.208,-0.161,1.75,1.6,1.57,0.35,-1.84,0.4
2022-01-31 10:14:05.1600,-0.655,0.165,-0.156,1.75,1.6,1.57,0.13,-1.91,0.41
Time,-0.705,0.154,-0.144,1.75,1.6,1.57,-0.11,-1.91,0.41
2022-01-31 10:14:05.1770,-0.746,0.212,-0.085,1.75,1.6,1.57,-0.46,-1.91,0.47
2022-01-31 10:14:05.1830,-0.724,0.232,0.027,1.75,1.6,1.57,-0.91,-1.74,0.57
Time,-0.754,0.247,0.057,1.75,1.6,1.57,-1.31,-1.44,0.71
2022-01-31 10:14:05.2000,-0.785,0.314,-0.018,1.75,1.6,1.57,-1.54,-1.15,0.82
2022-01-31 10:14:05.2030,-0.763,0.367,-0.163,1.75,1.6,1.57,-1.56,-0.91,1.06
Time,-0.572,0.385,-0.23,1.75,1.6,1.57,-1.48,-0.81,1.47
Time,-0.67,0.578,-0.232,1.75,1.6,1.57,-1.31,-0.61,0.89
2022-01-31 10:14:05.2230,-1.324,0.919,-0.258,1.75,1.6,1.57,-0.95,-0.5,0.53
2022-01-31 10:14:05.2380,-0.939,0.436,-0.405,1.75,1.6,1.57,-0.71,-0.67,0.71
2022-01-31 10:14:05.2470,-0.733,0.299,-0.349,1.75,1.6,1.57,-0.64,-1.05,0.91
2022-01-31 10:14:05.2470,-0.772,0.497,-0.195,1.75,1.6,1.57,-0.51,-1.38,1.22
2022-01-31 10:14:05.2570,-0.645,0.592,-0.124,1.75,1.6,1.57,-0.26,-1.86,1.65
2022-01-31 10:14:05.2640,-0.581,0.649,-0.197,1.75,1.6,1.57,0.09,-2.38,2.15
2022-01-31 10:14:05.2670,-0.575,0.715,-0.325,1.75,1.6,1.57,0.56,-2.79,2.48
2022-01-31 10:14:05.2720,-0.769,0.816,-0.451,1.75,1.6,1.57,1.02,-2.97,2.46
2022-01-31 10:14:05.2850,-1.066,0.813,-0.394,1.75,1.6,1.57,1.25,-2.67,2.21
2022-01-31 10:14:05.2880,-1.198,0.717,-0.222,1.75,1.6,1.57,1.15,-2.05,1.91
2022-01-31 10:14:05.2920,-1.293,0.671,-0.038,1.75,1.6,1.57,0.74,-1.4,1.6
2022-01-31 10:14:05.2920,-1.297,0.654,0.141,1.75,1.6,1.57,0.16,-0.69,1.42
2022-01-31 10:14:05.3060,-1.11,0.699,0.17,1.75,1.6,1.57,-0.25,-0.1,1.52
2022-01-31 10:14:05.3210,-0.926,0.701,0.017,1.75,1.6,1.57,-0.39,-0.11,1.62
Time,-0.836,0.691,-0.112,1.75,1.6,1.57,-0.36,-0.27,1.68
Time,-0.687,0.671,-0.189,1.75,1.6,1.57,-0.02,-0.26,1.96
2022-01-31 10:14:05.3510,-0.626,0.583,-0.206,1.75,1.6,1.57,0.24,-0.31,2.05
Time,-0.729,0.565,-0.003,1.75,1.6,1.57,0.46,0.19,2.15
2022-01-31 10:14:05.3810,-0.699,0.583,-0.02,1.75,1.6,1.57,0.58,0.67,2.27
Time,-0.739,0.578,0.017,1.75,1.6,1.57,0.47,1.26,2.26
2022-01-31 10:14:05.3920,-0.728,0.588,0.064,1.75,1.6,1.57,0.04,1.31,2.12
2022-01-31 10:14:05.4020,-0.708,0.614,0.12,1.75,1.6,1.57,-0.22,1.16,2.06
Time,-0.642,0.608,0.045,1.75,1.6,1.57,-0.19,0.89,2.0
2022-01-31 10:14:05.4220,-0.677,0.588,-0.004,1.75,1.6,1.57,0.01,0.83,1.89
2022-01-31 10:14:05.4320,-0.607,0.602,-0.025,1.75,1.6,1.57,0.29,1.24,2.01
2022-01-31 10:14:05.4420,-0.555,0.608,-0.003,1.75,1.6,1.57,0.24,1.58,2.07
Time,-0.596,0.658,0.194,1.75,1.6,1.57,-0.2,1.79,2.06
Time,-0.567,0.614,0.092,1.75,1.6,1.57,-0.48,1.84,2.12
2022-01-31 10:14:05.4720,-0.51,0.583,-0.076,1.75,1.6,1.57,-0.55,1.88,2.1
2022-01-31 10:14:05.4850,-0.479,0.706,-0.134,1.75,1.6,1.57,-0.52,1.71,2.05
2022-01-31 10:14:05.4940,-0.428,0.783,-0.157,1.75,1.6,1.57,-0.43,1.56,2.04
2022-01-31 10:14:05.5020,-0.393,0.79,-0.104,1.75,1.6,1.57,-0.38,1.53,2.06
2022-01-31 10:14:05.5120,-0.42,0.786,0.013,1.75,1.6,1.57,-0.49,1.53,2.02
2022-01-31 10:14:05.5220,-0.448,0.751,0.07,1.75,1.6,1.57,-0.7,1.54,1.77
2022-01-31 10:14:05.5430,-0.446,0.786,0.058,1.75,1.6,1.57,-0.84,1.71,1.48
2022-01-31 10:14:05.5520,-0.396,0.862,0.004,1.75,1.6,1.57,-0.9,1.87,1.29
2022-01-31 10:14:05.5530,-0.287,0.913,-0.008,1.75,1.6,1.57,-0.89,2.07,1.2
2022-01-31 10:14:05.5630,-0.119,1.063,-0.002,1.75,1.6,1.57,-0.82,1.9,1.21
2022-01-31 10:14:05.5730,-0.133,1.117,-0.084,1.75,1.6,1.57,-0.6,1.57,1.15
Time,-0.182,1.183,-0.286,1.75,1.6,1.57,-0.23,0.9,0.85
Time,-0.22,1.268,-0.474,1.75,1.6,1.57,0.12,0.39,0.67
Time,-0.291,1.171,-0.361,1.75,1.6,1.57,0.26,0.19,0.59
2022-01-31 10:14:05.6210,-0.38,1.121,-0.354,1.75,1.6,1.57,0.4,0.02,0.49
2022-01-31 10:14:05.6230,-0.42,1.172,-0.454,1.75,1.6,1.57,0.53,-0.17,0.29
2022-01-31 10:14:05.6340,-0.387,1.214,-0.483,1.75,1.6,1.57,0.58,-0.41,0.18
2022-01-31 10:14:05.6440,-0.337,1.113,-0.394,1.75,1.6,1.57,0.34,-0.33,0.16
2022-01-31 10:14:05.6640,-0.386,1.087,-0.185,1.75,1.6,1.57,-0.13,-0.1,-0.04
2022-01-31 10:14:05.6640,-0.439,1.167,-0.066,1.75,1.6,1.57,-0.64,-0.05,-0.4
2022-01-31 10:14:05.6840,-0.383,1.243,-0.112,1.75,1.6,1.57,-0.94,-0.16,-0.73
2022-01-31 10:14:05.6940,-0.355,1.232,-0.156,1.75,1.6,1.57,-1.09,-0.33,-0.93
Time,-0.412,1.197,-0.14,1.75,1.6,1.57,-1.21,-0.35,-1.12
Time,-0.474,1.162,-0.092,1.75,1.6,1.57,-1.36,-0.29,-1.31
Time,-0.554,1.12,-0.065,1.75,1.6,1.57,-1.56,-0.08,-1.55
2022-01-31 10:14:05.7310,-0.571,1.079,-0.05,1.75,1.6,1.57,-1.93,0.34,-1.51
Time,-0.539,1.048,-0.007,1.75,1.6,1.57,-2.22,0.67,-1.35
Time,-0.669,0.939,0.032,1.75,1.6,1.57,-2.25,1.07,-1.43
2022-01-31 10:14:05.7550,-0.534,0.879,-0.017,1.75,1.6,1.57,-2.19,1.06,-1.22
Time,-0.092,0.36,-0.213,1.75,1.6,1.57,-2.0,0.61,-0.69
Time,-0.197,0.417,-0.341,1.75,1.6,1.57,-1.67,0.12,-0.3
Time,-0.375,0.677,-0.32,1.75,1.6,1.57,-1.28,-0.51,-0.05
2022-01-31 10:14:05.8020,-0.352,0.753,-0.378,1.75,1.6,1.57,-1.05,-1.47,0.28
Time,-0.275,0.747,-0.311,1.75,1.6,1.57,-1.1,-1.72,0.7
2022-01-31 10:14:05.8250,-0.322,0.776,-0.107,1.75,1.6,1.57,-1.08,-2.1,1.12
Time,-0.219,0.736,0.007,1.75,1.6,1.57,-0.96,-2.23,1.77
2022-01-31 10:14:05.8450,-0.149,0.549,0.052,1.75,1.6,1.57,-0.7,-2.12,2.24
2022-01-31 10:14:05.8450,-0.181,0.579,0.102,1.75,1.6,1.57,-0.41,-1.54,2.51
2022-01-31 10:14:05.8550,-0.235,0.719,0.243,1.75,1.6,1.57,0.04,-0.32,2.03
2022-01-31 10:14:05.8700,-0.421,1.202,0.649,1.75,1.6,1.57,0.92,1.61,0.76
Time,-0.428,1.451,0.648,1.75,1.6,1.57,1.01,1.3,0.28
Time,-0.206,1.193,0.254,1.75,1.6,1.57,0.59,0.88,0.43
Time,-0.191,1.109,0.153,1.75,1.6,1.57,0.07,0.61,0.63
Time,-0.279,1.068,0.05,1.75,1.6,1.57,-0.4,0.44,0.65
Time,-0.319,1.052,-0.048,1.75,1.6,1.57,-0.72,0.25,0.58
Time,-0.289,1.015,-0.111,1.75,1.6,1.57,-0.88,0.1,0.46
2022-01-31 10:14:05.9460,-0.258,0.983,-0.12,1.75,1.6,1.57,-0.96,-0.02,0.31
Time,-0.223,0.91,-0.054,1.75,1.6,1.57,-1.02,-0.15,0.19
Time,-0.206,0.855,0.091,1.75,1.6,1.57,-0.93,0.11,0.01
2022-01-31 10:14:05.9760,-0.211,0.915,0.289,1.75,1.6,1.57,-0.64,0.63,-0.24
Time,-0.222,0.879,0.277,1.75,1.6,1.57,-0.36,0.79,-0.27
2022-01-31 10:14:05.9860,-0.163,0.684,0.114,1.75,1.6,1.57,-0.3,0.53,-0.08
2022-01-31 10:14:06.0060,-0.12,0.601,0.032,1.75,1.6,1.57,-0.31,0.13,0.06
Time,-0.311,0.967,-0.061,1.75,1.6,1.57,-0.22,-0.04,-0.14
Time,-0.325,1.091,0.09,1.75,1.6,1.57,-0.27,-0.26,-0.16
2022-01-31 10:14:06.0360,-0.233,0.931,0.06,1.75,1.6,1.57,-0.23,-0.29,-0.02
2022-01-31 10:14:06.0360,-0.27,1.007,0.085,1.75,1.6,1.57,-0.18,-0.44,0.17
Time,-0.277,1.021,0.069,1.75,1.6,1.57,-0.2,-0.81,0.35
Time,-0.244,0.968,0.093,1.75,1.6,1.57,-0.28,-1.12,0.45
Time,-0.17,0.84,0.236,1.75,1.6,1.57,-0.36,-1.16,0.65
Time,-0.056,0.526,0.313,1.75,1.6,1.57,-0.15,-0.76,0.93
2022-01-31 10:14:06.0870,-0.029,0.415,0.271,1.75,1.6,1.57,0.15,-0.37,1.26
2022-01-31 10:14:06.1020,-0.048,0.459,0.166,1.75,1.6,1.57,0.48,0.05,1.62
2022-01-31 10:14:06.1070,-0.078,0.618,0.103,1.75,1.6,1.57,0.77,0.37,1.95
2022-01-31 10:14:06.1180,-0.126,0.788,0.089,1.75,1.6,1.57,1.0,0.75,2.11
2022-01-31 10:14:06.1280,-0.194,0.873,0.173,1.75,1.6,1.57,1.17,1.24,2.13
Time,-0.176,0.848,0.256,1.75,1.6,1.57,1.26,1.86,2.11
Time,-0.121,0.798,0.395,1.75,1.6,1.57,1.18,2.58,2.0
2022-01-31 10:14:06.1580,-0.113,0.831,0.407,1.75,1.6,1.57,0.62,2.62,1.67
2022-01-31 10:14:06.1680,-0.134,1.04,0.248,1.75,1.6,1.57,-0.39,2.04,1.45
Time,-0.11,1.118,0.051,1.75,1.6,1.57,-1.12,1.11,1.58
Time,-0.103,1.181,-0.185,1.75,1.6,1.57,-1.29,0.1,1.58
2022-01-31 10:14:06.1980,-0.111,1.333,-0.301,1.75,1.6,1.57,-1.01,-0.47,1.21
2022-01-31 10:14:06.2100,-0.134,1.432,-0.292,1.75,1.6,1.57,-0.38,-0.78,0.68
2022-01-31 10:14:06.2180,-0.098,1.232,-0.27,1.75,1.6,1.57,0.11,-0.94,0.33
2022-01-31 10:15:10.4220,-0.002,0.802,-0.188,1.75,1.6,1.57,0.45,-0.73,0.15
2022-01-31 10:15:10.4800,-0.009,0.607,0.001,1.75,1.6,1.57,0.7,-0.11,0.08
2022-01-31 10:15:10.4940,0.005,0.8,0.056,1.75,1.6,1.57,0.99,0.02,0.49
2022-01-31 10:15:10.4870,0.07,1.091,0.027,1.75,1.6,1.57,0.92,0.42,1.23
2022-01-31 10:15:10.4870,-0.023,1.179,0.161,1.75,1.6,1.57,0.92,0.42,1.23
2022-01-31 10:15:10.4870,-0.068,1.277,0.187,1.75,1.6,1.57,0.92,0.42,1.23
2022-01-31 10:15:10.4900,-0.127,1.361,0.148,1.75,1.6,1.57,0.36,0.13,1.14
2022-01-31 10:15:10.5010,-0.174,1.349,0.085,1.75,1.6,1.57,0.09,-0.33,0.94
2022-01-31 10:15:10.5190,-0.193,1.178,-0.025,1.75,1.6,1.57,0.08,-0.96,0.76
2022-01-31 10:15:10.5250,-0.224,1.096,-0.138,1.75,1.6,1.57,0.09,-1.58,0.51
Time,-0.214,1.144,-0.154,1.75,1.6,1.57,-0.08,-2.31,0.3
2022-01-31 10:15:10.5450,-0.135,1.161,-0.17,1.75,1.6,1.57,-0.35,-3.18,0.28
Time,-0.025,1.159,-0.136,1.75,1.6,1.57,-0.34,-3.53,0.38
2022-01-31 10:15:10.5420,0.067,1.072,0.013,1.75,1.6,1.57,0.07,-2.8,0.45
2022-01-31 10:15:10.5450,0.134,0.807,0.194,1.75,1.6,1.57,0.31,-1.81,0.5
Time,0.149,0.845,0.234,1.75,1.6,1.57,0.34,-1.15,0.51
Time,0.137,0.97,0.206,1.75,1.6,1.57,0.28,-0.82,0.55
2022-01-31 10:15:10.5520,0.105,1.054,0.164,1.75,1.6,1.57,0.24,-0.67,0.58
2022-01-31 10:15:10.5510,0.081,1.152,0.124,1.75,1.6,1.57,0.25,-0.62,0.66
Time,0.075,1.208,0.091,1.75,1.6,1.57,0.31,-0.6,0.67
2022-01-31 10:15:10.5590,0.026,1.243,0.079,1.75,1.6,1.57,0.28,-0.59,0.55
2022-01-31 10:15:10.5630,0.007,1.254,0.087,1.75,1.6,1.57,0.18,-0.61,0.35
2022-01-31 10:15:10.5620,0.046,1.223,0.115,1.75,1.6,1.57,0.06,-0.53,0.03
2022-01-31 10:15:10.5630,0.157,1.071,0.149,1.75,1.6,1.57,-0.02,-0.35,-0.18
2022-01-31 10:15:10.5660,0.226,1.023,0.159,1.75,1.6,1.57,-0.16,-0.18,-0.29
Time,0.197,1.091,0.141,1.75,1.6,1.57,-0.21,-0.11,-0.4
2022-01-31 10:15:10.5640,0.167,1.113,0.082,1.75,1.6,1.57,-0.2,-0.11,-0.51
2022-01-31 10:15:10.5690,0.163,1.172,0.06,1.75,1.6,1.57,-0.22,0.04,-0.57
2022-01-31 10:15:10.5720,0.172,1.192,0.091,1.75,1.6,1.57,-0.29,0.5,-0.68
Time,0.147,1.221,0.072,1.75,1.6,1.57,-0.39,0.23,-0.67
Time,0.145,1.22,0.057,1.75,1.6,1.57,-0.39,0.23,-0.67
2022-01-31 10:15:10.5760,0.123,1.255,0.092,1.75,1.6,1.57,-0.45,0.31,-0.57
2022-01-31 10:15:10.5780,0.079,1.2,0.1,1.75,1.6,1.57,-0.62,0.17,-0.56
2022-01-31 10:15:10.5840,0.007,1.145,0.057,1.75,1.6,1.57,-0.79,-0.17,-0.68
2022-01-31 10:15:10.5800,-0.058,1.143,0.021,1.75,1.6,1.57,-0.95,-0.6,-0.85
2022-01-31 10:15:10.5880,-0.08,1.121,0.029,1.75,1.6,1.57,-0.95,-0.88,-0.94
2022-01-31 10:15:10.5870,-0.068,1.052,0.071,1.75,1.6,1.57,-0.63,-0.65,-1.02
2022-01-31 10:15:10.5840,-0.067,0.991,0.116,1.75,1.6,1.57,-0.29,-0.14,-0.99
2022-01-31 10:15:10.5860,-0.102,0.926,0.121,1.75,1.6,1.57,-0.13,0.3,-0.82
2022-01-31 10:15:10.5900,-0.142,0.84,0.095,1.75,1.6,1.57,-0.16,0.44,-0.46
2022-01-31 10:15:10.5910,-0.145,0.749,0.056,1.75,1.6,1.57,-0.24,0.27,-0.15
2022-01-31 10:15:10.5930,-0.133,0.731,-0.005,1.75,1.6,1.57,-0.27,-0.21,-0.14
2022-01-31 10:15:10.5980,-0.108,0.748,-0.042,1.75,1.6,1.57,-0.25,-0.7,-0.32
2022-01-31 10:15:10.5940,-0.036,0.717,-0.039,1.75,1.6,1.57,-0.18,-1.02,-0.46
2022-01-31 10:15:10.5970,0.05,0.701,-0.005,1.75,1.6,1.57,-0.03,-1.15,-0.55
2022-01-31 10:15:10.6020,0.072,0.754,0.066,1.75,1.6,1.57,0.15,-1.0,-0.82
2022-01-31 10:15:10.6010,0.023,0.86,0.169,1.75,1.6,1.57,0.35,-0.43,-1.01
2022-01-31 10:15:10.6010,0.047,0.885,0.24,1.75,1.6,1.57,0.45,0.26,-1.03
2022-01-31 10:15:10.6020,0.059,0.899,0.225,1.75,1.6,1.57,0.34,0.66,-0.93
2022-01-31 10:15:10.6070,0.032,0.918,0.154,1.75,1.6,1.57,-0.12,0.41,-0.61
2022-01-31 10:15:10.6070,0.034,0.906,0.083,1.75,1.6,1.57,-0.67,-0.24,-0.23
2022-01-31 10:15:10.6100,0.021,0.972,0.04,1.75,1.6,1.57,-1.06,-0.97,0.03
2022-01-31 10:15:10.6100,-0.024,1.004,0.038,1.75,1.6,1.57,-1.42,-1.61,0.18
2022-01-31 10:15:10.6150,-0.062,0.955,0.104,1.75,1.6,1.57,-1.63,-1.96,0.24
2022-01-31 10:15:10.6150,-0.098,0.912,0.21,1.75,1.6,1.57,-1.63,-1.96,0.24
2022-01-31 10:15:10.6150,-0.135,0.825,0.3,1.75,1.6,1.57,-1.36,-1.05,0.17
Time,-0.16,0.781,0.28,1.75,1.6,1.57,-1.35,-0.74,0.13
2022-01-31 10:15:10.6170,-0.191,0.778,0.203,1.75,1.6,1.57,-1.39,-0.73,0.08
2022-01-31 10:15:10.6190,-0.21,0.828,0.221,1.75,1.6,1.57,-1.34,-0.67,0.04
2022-01-31 10:15:10.6350,-0.182,0.945,0.236,1.75,1.6,1.57,-1.18,-0.51,0.07
2022-01-31 10:15:10.6320,-0.113,1.039,0.229,1.75,1.6,1.57,-0.99,-0.3,0.22
2022-01-31 10:15:10.6390,-0.01,1.057,0.202,1.75,1.6,1.57,-0.7,-0.1,0.51
2022-01-31 10:15:10.6370,0.015,1.126,0.161,1.75,1.6,1.57,-0.49,-0.15,0.6
2022-01-31 10:15:10.6410,0.176,0.971,-0.016,1.75,1.6,1.57,-0.27,-1.17,0.65
2022-01-31 10:15:10.6390,0.393,1.008,0.092,1.75,1.6,1.57,0.0,-0.96,0.78
Time,0.236,1.068,0.275,1.75,1.6,1.57,0.13,-0.19,0.93
Time,0.212,0.84,0.394,1.75,1.6,1.57,0.27,0.73,0.69
2022-01-31 10:15:10.6430,-0.075,1.209,0.341,1.75,1.6,1.57,0.36,1.29,0.61
2022-01-31 10:15:10.6490,0.125,0.805,0.202,1.75,1.6,1.57,0.83,1.73,1.31
2022-01-31 10:15:10.6480,0.231,0.794,0.018,1.75,1.6,1.57,1.06,1.23,1.12
2022-01-31 10:15:10.6470,-0.138,1.382,-0.047,1.75,1.6,1.57,1.3,1.29,0.72
2022-01-31 10:15:10.6520,-0.358,1.418,0.124,1.75,1.6,1.57,1.54,2.16,0.37
Time,-0.46,1.276,0.103,1.75,1.6,1.57,1.41,2.01,-0.06
2022-01-31 10:15:10.6530,-0.378,1.157,-0.053,1.75,1.6,1.57,1.36,1.35,-0.49
2022-01-31 10:15:10.6570,-0.273,1.139,-0.055,1.75,1.6,1.57,1.12,0.39,-0.74
2022-01-31 10:15:10.6600,-0.122,1.068,0.013,1.75,1.6,1.57,0.53,-0.53,-0.69
2022-01-31 10:15:10.6590,0.016,0.991,0.235,1.75,1.6,1.57,-0.34,-0.73,-0.36
2022-01-31 10:15:10.6620,0.058,0.956,0.455,1.75,1.6,1.57,-0.86,-0.41,-0.08
2022-01-31 10:15:10.6630,0.031,0.876,0.452,1.75,1.6,1.57,-0.86,0.1,0.16
2022-01-31 10:15:10.6670,-0.031,0.797,0.347,1.75,1.6,1.57,-0.66,0.47,0.15
2022-01-31 10:15:10.6670,-0.107,0.874,0.206,1.75,1.6,1.57,-0.39,0.45,-0.09
2022-01-31 10:15:10.6690,-0.112,0.976,0.084,1.75,1.6,1.57,-0.17,0.11,-0.35
2022-01-31 10:15:10.6710,-0.043,0.995,0.01,1.75,1.6,1.57,0.05,-0.36,-0.49
2022-01-31 10:15:10.6750,0.023,0.993,-0.006,1.75,1.6,1.57,0.09,-0.97,-0.61
2022-01-31 10:15:10.6760,0.167,0.877,0.039,1.75,1.6,1.57,0.17,-1.07,-0.55
2022-01-31 10:15:10.6750,0.217,0.925,0.229,1.75,1.6,1.57,0.27,-0.51,-0.39
Time,0.16,0.966,0.278,1.75,1.6,1.57,0.3,-0.08,-0.28
Time,0.066,0.998,0.234,1.75,1.6,1.57,0.26,0.12,-0.21
2022-01-31 10:15:10.6820,-0.019,1.033,0.211,1.75,1.6,1.57,0.16,0.08,-0.24
2022-01-31 10:15:10.6810,-0.065,0.996,0.201,1.75,1.6,1.57,-0.01,-0.13,-0.29
Time,-0.084,0.954,0.224,1.75,1.6,1.57,-0.14,-0.23,-0.33
2022-01-31 10:15:10.6850,-0.069,0.943,0.227,1.75,1.6,1.57,-0.2,-0.28,-0.3
Time,0.013,0.923,0.195,1.75,1.6,1.57,-0.2,-0.27,-0.17
Time,0.043,0.928,0.179,1.75,1.6,1.57,-0.14,-0.18,-0.08
2022-01-31 10:15:10.6920,0.014,0.958,0.164,1.75,1.6,1.57,-0.06,-0.09,-0.0
2022-01-31 10:15:10.6910,-0.005,0.964,0.167,1.75,1.6,1.57,0.02,0.05,-0.0
2022-01-31 10:15:10.6930,-0.04,1.01,0.19,1.75,1.6,1.57,0.08,0.2,-0.09
Time,-0.063,1.046,0.225,1.75,1.6,1.57,0.07,0.37,-0.18
2022-01-31 10:15:10.6980,-0.032,1.055,0.267,1.75,1.6,1.57,0.03,0.55,-0.18
2022-01-31 10:15:10.6960,0.001,1.068,0.29,1.75,1.6,1.57,-0.05,0.62,-0.09
2022-01-31 10:15:10.7000,-0.016,1.093,0.299,1.75,1.6,1.57,-0.21,0.76,-0.03
2022-01-31 10:15:10.7020,-0.04,1.06,0.358,1.75,1.6,1.57,-0.33,0.95,-0.03
2022-01-31 10:15:10.7050,-0.01,1.024,0.299,1.75,1.6,1.57,-0.35,1.0,-0.03
2022-01-31 10:15:10.7070,0.033,0.989,0.216,1.75,1.6,1.57,-0.27,0.98,-0.03
2022-01-31 10:15:10.7090,0.057,0.974,0.177,1.75,1.6,1.57,-0.1,0.89,-0.03
2022-01-31 10:15:10.7070,0.068,0.99,0.123,1.75,1.6,1.57,0.0,0.81,-0.01
2022-01-31 10:15:10.7070,0.024,0.986,0.139,1.75,1.6,1.57,0.02,0.71,-0.01
2022-01-31 10:15:10.7070,-0.024,0.99,0.121,1.75,1.6,1.57,0.01,0.58,-0.01
2022-01-31 10:15:10.7150,-0.052,0.974,0.121,1.75,1.6,1.57,0.02,0.57,-0.02
2022-01-31 10:15:10.7120,-0.106,0.982,0.096,1.75,1.6,1.57,0.1,0.43,-0.09
2022-01-31 10:15:10.7150,-0.137,0.979,0.044,1.75,1.6,1.57,0.22,0.29,-0.16
2022-01-31 10:15:10.7130,-0.112,0.965,0.035,1.75,1.6,1.57,0.37,0.14,-0.17
2022-01-31 10:15:10.7160,-0.099,0.959,0.036,1.75,1.6,1.57,0.48,-0.01,-0.14
2022-01-31 10:15:10.7190,-0.099,0.934,0.059,1.75,1.6,1.57,0.52,-0.19,-0.08
2022-01-31 10:15:10.7190,-0.109,0.908,0.09,1.75,1.6,1.57,0.53,-0.4,-0.07
2022-01-31 10:15:10.7230,-0.111,0.896,0.107,1.75,1.6,1.57,0.52,-0.7,-0.08
Time,-0.063,0.904,0.126,1.75,1.6,1.57,0.43,-0.89,-0.11
2022-01-31 10:15:10.7230,0.008,0.925,0.198,1.75,1.6,1.57,0.26,-0.8,-0.06
2022-01-31 10:15:10.7240,0.074,0.95,0.262,1.75,1.6,1.57,0.05,-0.63,0.05
Time,0.081,0.961,0.259,1.75,1.6,1.57,-0.12,-0.46,0.12
2022-01-31 10:15:10.7290,0.055,0.96,0.221,1.75,1.6,1.57,-0.22,-0.34,0.17
2022-01-31 10:15:10.7300,0.034,0.945,0.177,1.75,1.6,1.57,-0.26,-0.21,0.16
Time,0.001,0.946,0.139,1.75,1.6,1.57,-0.21,-0.16,0.09
2022-01-31 10:15:10.7330,-0.036,0.954,0.085,1.75,1.6,1.57,-0.11,-0.25,-0.02
Time,-0.089,0.984,0.053,1.75,1.6,1.57,-0.01,-0.43,-0.16
Time,-0.144,1.015,0.058,1.75,1.6,1.57,0.02,-0.5,-0.33
2022-01-31 10:15:10.7390,-0.167,1.036,0.097,1.75,1.6,1.57,-0.0,-0.4,-0.5
2022-01-31 10:15:10.7420,-0.108,1.072,0.086,1.75,1.6,1.57,0.07,-0.19,-0.52
2022-01-31 10:15:10.7420,-0.021,1.051,0.072,1.75,1.6,1.57,0.19,0.14,-0.41
2022-01-31 10:15:10.7440,0.005,1.033,0.078,1.75,1.6,1.57,0.33,0.45,-0.31
2022-01-31 10:15:10.7490,-0.014,1.052,0.092,1.75,1.6,1.57,0.44,0.74,-0.23
2022-01-31 10:15:10.7460,-0.057,1.077,0.113,1.75,1.6,1.57,0.51,0.86,-0.15
2022-01-31 10:15:10.7510,-0.072,1.054,0.082,1.75,1.6,1.57,0.56,0.78,-0.13
Time,-0.095,1.024,0.071,1.75,1.6,1.57,0.63,0.73,-0.11
2022-01-31 10:15:10.7520,-0.097,0.957,0.092,1.75,1.6,1.57,0.67,0.66,-0.07
Time,-0.103,0.91,0.093,1.75,1.6,1.57,0.67,0.49,-0.04
2022-01-31 10:15:10.7560,-0.114,0.922,0.083,1.75,1.6,1.57,0.68,0.29,0.01
2022-01-31 10:15:10.7580,-0.122,0.965,0.084,1.75,1.6,1.57,0.69,0.2,0.06
2022-01-31 10:15:10.7580,-0.142,1.005,0.092,1.75,1.6,1.57,0.69,0.12,-0.07
2022-01-31 10:15:10.7600,-0.132,1.025,0.064,1.75,1.6,1.57,0.63,-0.01,-0.13
2022-01-31 10:15:10.7620,-0.073,0.962,0.038,1.75,1.6,1.57,0.59,-0.12,-0.16
Time,-0.054,0.974,-0.004,1.75,1.6,1.57,0.59,-0.12,-0.16
2022-01-31 10:15:10.7660,-0.053,0.984,-0.052,1.75,1.6,1.57,0.61,-0.32,-0.21
Time,-0.057,0.998,-0.088,1.75,1.6,1.57,0.66,-0.4,-0.24
Time,-0.059,0.963,-0.096,1.75,1.6,1.57,0.7,-0.41,-0.26
2022-01-31 10:15:10.7710,-0.059,0.891,-0.086,1.75,1.6,1.57,0.76,-0.33,-0.28
2022-01-31 10:15:10.7740,-0.04,0.824,-0.072,1.75,1.6,1.57,0.83,-0.06,-0.23
Time,-0.002,0.753,-0.035,1.75,1.6,1.57,0.91,0.43,-0.1
2022-01-31 10:15:10.7750,0.029,0.727,0.017,1.75,1.6,1.57,1.06,1.07,-0.16
2022-01-31 10:15:10.7790,0.005,0.654,-0.087,1.75,1.6,1.57,1.51,1.06,-0.09
2022-01-31 10:15:10.7820,-0.028,0.593,-0.183,1.75,1.6,1.57,1.88,1.0,-0.09
2022-01-31 10:15:10.7820,-0.077,0.688,-0.173,1.75,1.6,1.57,2.16,0.93,-0.11
2022-01-31 10:15:10.7850,-0.08,0.802,-0.184,1.75,1.6,1.57,2.32,0.77,-0.04
2022-01-31 10:15:10.7900,-0.105,0.971,-0.2,1.75,1.6,1.57,2.35,0.59,-0.03
2022-01-31 10:15:10.7880,-0.169,1.146,-0.221,1.75,1.6,1.57,2.29,0.28,-0.1
2022-01-31 10:15:10.7880,-0.211,1.255,-0.265,1.75,1.6,1.57,2.2,-0.13,-0.18
2022-01-31 10:15:10.7930,-0.211,1.272,-0.261,1.75,1.6,1.57,2.06,-0.48,-0.21
Time,-0.192,1.22,-0.223,1.75,1.6,1.57,1.91,-0.71,-0.19
2022-01-31 10:15:10.7960,-0.185,1.167,-0.166,1.75,1.6,1.57,1.76,-1.0,-0.12
2022-01-31 10:15:10.8020,-0.201,1.176,-0.135,1.75,1.6,1.57,1.58,-1.44,-0.01
2022-01-31 10:15:10.7950,-0.27,1.234,-0.037,1.75,1.6,1.57,1.29,-1.67,0.03
2022-01-31 10:15:10.8040,-0.386,1.269,0.041,1.75,1.6,1.57,1.01,-1.79,-0.04
2022-01-31 10:15:10.7970,-0.498,1.262,0.056,1.75,1.6,1.57,0.82,-1.69,-0.1
2022-01-31 10:15:10.7970,-0.569,1.198,0.074,1.75,1.6,1.57,0.69,-1.43,-0.16
2022-01-31 10:15:10.8090,-0.649,1.058,0.047,1.75,1.6,1.57,0.58,-1.18,-0.39
2022-01-31 10:15:10.8090,-0.704,0.982,0.009,1.75,1.6,1.57,0.4,-0.89,-0.6
2022-01-31 10:15:10.8060,-0.63,1.028,-0.029,1.75,1.6,1.57,0.28,-0.63,-0.65
2022-01-31 10:15:10.8060,-0.471,1.101,-0.085,1.75,1.6,1.57,0.08,-0.46,-0.69
2022-01-31 10:15:10.8160,-0.292,1.1,-0.171,1.75,1.6,1.57,-0.27,-0.86,-0.71
2022-01-31 10:15:10.8160,-0.127,1.058,-0.265,1.75,1.6,1.57,-0.27,-0.86,-0.71
2022-01-31 10:15:10.8200,-0.015,1.007,-0.256,1.75,1.6,1.57,-0.68,-1.26,-0.38
Time,0.048,0.923,-0.27,1.75,1.6,1.57,-0.77,-1.31,-0.09
2022-01-31 10:15:10.8250,0.046,0.886,-0.275,1.75,1.6,1.57,-0.88,-1.5,0.17
2022-01-31 10:15:10.8250,-0.0,0.86,-0.314,1.75,1.6,1.57,-0.85,-1.84,0.37
2022-01-31 10:15:10.8250,-0.03,0.855,-0.306,1.75,1.6,1.57,-0.8,-2.04,0.53
2022-01-31 10:15:10.8250,-0.094,0.893,-0.206,1.75,1.6,1.57,-0.65,-1.85,0.68
2022-01-31 10:15:10.8360,-0.158,0.876,-0.089,1.75,1.6,1.57,-0.5,-1.31,0.77
2022-01-31 10:15:10.8420,-0.167,0.877,-0.038,1.75,1.6,1.57,-0.4,-0.9,0.79
2022-01-31 10:15:10.8470,-0.151,0.885,-0.108,1.75,1.6,1.57,-0.32,-0.68,0.84
Time,-0.146,0.85,-0.151,1.75,1.6,1.57,-0.23,-0.52,0.88
2022-01-31 10:15:10.8290,-0.156,0.832,-0.188,1.75,1.6,1.57,-0.07,-0.34,0.84
2022-01-31 10:15:10.8560,-0.151,0.834,-0.229,1.75,1.6,1.57,0.12,-0.09,0.82
2022-01-31 10:15:10.8610,-0.139,0.849,-0.23,1.75,1.6,1.57,0.29,0.39,0.77
2022-01-31 10:15:10.8450,-0.117,0.841,-0.203,1.75,1.6,1.57,0.43,0.99,0.66
2022-01-31 10:15:10.8680,-0.1,0.824,-0.192,1.75,1.6,1.57,0.61,1.66,0.58
2022-01-31 10:15:10.8530,-0.115,0.81,-0.185,1.75,1.6,1.57,0.8,2.37,0.61
2022-01-31 10:15:10.8500,-0.149,0.818,-0.175,1.75,1.6,1.57,1.0,3.09,0.67
Time,-0.22,0.819,-0.224,1.75,1.6,1.57,1.11,3.46,0.77
2022-01-31 10:15:10.8730,-0.313,0.863,-0.337,1.75,1.6,1.57,0.96,3.06,0.99
2022-01-31 10:15:10.8760,-0.437,0.955,-0.5,1.75,1.6,1.57,0.52,1.92,0.98
2022-01-31 10:15:10.8770,-0.573,1.104,-0.566,1.75,1.6,1.57,0.17,0.75,0.53
2022-01-31 10:15:10.8790,-0.583,1.073,-0.535,1.75,1.6,1.57,-0.06,-0.1,0.17
2022-01-31 10:15:10.8830,-0.537,1.005,-0.467,1.75,1.6,1.57,-0.2,-0.54,-0.05
2022-01-31 10:15:10.8700,-0.496,1.008,-0.403,1.75,1.6,1.57,-0.29,-0.67,-0.23
2022-01-31 10:15:10.8850,-0.474,1.052,-0.347,1.75,1.6,1.57,-0.35,-0.58,-0.37
2022-01-31 10:15:10.8710,-0.494,1.079,-0.287,1.75,1.6,1.57,-0.38,-0.28,-0.47
Time,-0.553,1.102,-0.249,1.75,1.6,1.57,-0.3,0.06,-0.59
2022-01-31 10:15:10.8900,-0.621,1.156,-0.233,1.75,1.6,1.57,-0.13,0.41,-0.76
2022-01-31 10:15:10.8900,-0.635,1.208,-0.248,1.75,1.6,1.57,-0.69,-0.61,-1.0
2022-01-31 10:15:10.8930,-0.508,1.236,-0.274,1.75,1.6,1.57,-1.59,-1.97,-1.21
2022-01-31 10:15:10.8950,-0.342,1.28,-0.154,1.75,1.6,1.57,-2.35,-2.96,-1.3
2022-01-31 10:15:10.8950,-0.144,1.267,-0.067,1.75,1.6,1.57,-2.35,-2.96,-1.3
2022-01-31 10:15:10.8980,0.039,1.205,0.062,1.75,1.6,1.57,-2.46,-2.37,-1.2
2022-01-31 10:15:10.9030,0.166,1.086,0.263,1.75,1.6,1.57,-2.26,-1.0,-1.1
2022-01-31 10:15:10.9030,0.255,0.957,0.283,1.75,1.6,1.57,-2.31,-0.34,-0.9
2022-01-31 10:15:10.9030,0.317,0.879,0.092,1.75,1.6,1.57,-2.46,-0.67,-0.56
Time,0.322,0.839,-0.081,1.75,1.6,1.57,-2.45,-1.18,-0.23
2022-01-31 10:15:10.8890,0.261,0.846,-0.109,1.75,1.6,1.57,-2.18,-1.04,0.02
2022-01-31 10:15:10.9100,0.201,0.859,-0.032,1.75,1.6,1.57,-1.72,-0.45,0.26
Time,0.167,0.888,-0.075,1.75,1.6,1.57,-1.13,0.16,0.41
2022-01-31 10:15:10.9090,0.085,1.021,-0.118,1.75,1.6,1.57,-0.4,1.04,0.39
2022-01-31 10:15:10.9150,-0.099,1.226,-0.068,1.75,1.6,1.57,0.05,1.6,0.23
2022-01-31 10:15:10.9160,-0.231,1.274,-0.09,1.75,1.6,1.57,0.1,1.23,0.06
2022-01-31 10:15:10.9160,-0.204,1.174,-0.106,1.75,1.6,1.57,-0.01,0.55,0.04
2022-01-31 10:15:10.9210,-0.09,1.016,-0.006,1.75,1.6,1.57,-0.15,-0.02,0.24
Time,-0.018,0.873,0.109,1.75,1.6,1.57,-0.19,-0.16,0.52
2022-01-31 10:15:10.9190,-0.104,0.88,0.293,1.75,1.6,1.57,-0.12,0.28,0.69
2022-01-31 10:15:10.9220,-0.309,0.979,0.497,1.75,1.6,1.57,-0.17,0.77,0.67
2022-01-31 10:15:10.9280,-0.489,1.091,0.628,1.75,1.6,1.57,-0.47,0.91,0.53
2022-01-31 10:15:10.9260,-0.597,1.162,0.712,1.75,1.6,1.57,-0.97,0.72,0.23
2022-01-31 10:15:10.9260,-0.599,1.161,0.674,1.75,1.6,1.57,-1.53,0.27,-0.1
2022-01-31 10:15:10.9330,-0.393,1.053,0.439,1.75,1.6,1.57,-1.92,-0.31,-0.23
2022-01-31 10:15:10.9300,-0.106,0.903,0.121,1.75,1.6,1.57,-2.0,-0.85,-0.15
2022-01-31 10:15:10.9330,0.105,0.79,-0.182,1.75,1.6,1.57,-1.77,-1.24,0.02
2022-01-31 10:15:10.9330,0.219,0.74,-0.377,1.75,1.6,1.57,-1.33,-1.36,0.22
2022-01-31 10:15:10.9410,0.25,0.716,-0.493,1.75,1.6,1.57,-0.7,-1.33,0.38
Time,0.199,0.703,-0.579,1.75,1.6,1.57,-0.0,-1.29,0.48
2022-01-31 10:15:10.9370,0.124,0.765,-0.578,1.75,1.6,1.57,0.65,-1.23,0.45
2022-01-31 10:15:10.9450,0.058,0.9,-0.447,1.75,1.6,1.57,1.15,-1.1,0.38
2022-01-31 10:15:10.9450,0.006,1.041,-0.21,1.75,1.6,1.57,1.15,-1.1,0.38
2022-01-31 10:15:10.9480,-0.006,1.142,0.118,1.75,1.6,1.57,1.16,-0.47,0.24
2022-01-31 10:15:10.9470,0.001,1.181,0.458,1.75,1.6,1.57,0.56,0.26,0.3
2022-01-31 10:15:10.9480,0.051,1.148,0.676,1.75,1.6,1.57,-0.31,1.37,0.5
Time,0.127,1.155,0.664,1.75,1.6,1.57,-0.87,1.8,0.67
2022-01-31 10:15:10.9570,0.19,1.134,0.323,1.75,1.6,1.57,-1.01,1.46,0.84
Time,0.227,1.117,0.029,1.75,1.6,1.57,-0.85,0.7,1.0
2022-01-31 10:15:10.9550,0.256,1.07,-0.145,1.75,1.6,1.57,-0.66,0.07,1.14
2022-01-31 10:15:10.9550,0.26,1.038,-0.143,1.75,1.6,1.57,-0.53,-0.06,1.26
Time,0.253,0.992,-0.082,1.75,1.6,1.57,-0.45,0.28,1.36
2022-01-31 10:15:10.9620,0.229,0.929,-0.051,1.75,1.6,1.57,-0.42,0.76,1.43
2022-01-31 10:15:10.9650,0.174,0.871,-0.055,1.75,1.6,1.57,-0.4,1.13,1.47
2022-01-31 10:15:10.9700,0.107,0.828,-0.052,1.75,1.6,1.57,-0.4,1.27,1.52
2022-01-31 10:15:10.9670,0.046,0.789,-0.027,1.75,1.6,1.57,-0.41,1.23,1.58
2022-01-31 10:15:10.9680,0.003,0.793,-0.001,1.75,1.6,1.57,-0.46,1.07,1.65
2022-01-31 10:15:10.9750,-0.016,0.82,0.026,1.75,1.6,1.57,-0.51,0.92,1.7
2022-01-31 10:15:10.9770,-0.038,0.833,0.068,1.75,1.6,1.57,-0.61,0.96,1.63
2022-01-31 10:15:10.9770,-0.089,0.857,0.097,1.75,1.6,1.57,-0.66,0.97,1.58
2022-01-31 10:15:10.9770,-0.074,0.904,0.065,1.75,1.6,1.57,-0.66,0.97,1.58
2022-01-31 10:15:10.9770,-0.144,0.943,0.105,1.75,1.6,1.57,-0.79,1.17,1.1
2022-01-31 10:15:10.9810,-0.111,0.955,0.091,1.75,1.6,1.57,-0.73,1.1,0.96
2022-01-31 10:15:10.9840,0.042,0.98,-0.055,1.75,1.6,1.57,-0.48,0.4,0.94
2022-01-31 10:15:10.9850,0.153,1.013,-0.181,1.75,1.6,1.57,-0.14,-0.48,1.1
2022-01-31 10:15:10.9880,0.246,1.01,-0.114,1.75,1.6,1.57,0.02,-0.84,1.26
2022-01-31 10:15:10.9880,0.238,1.019,0.045,1.75,1.6,1.57,0.05,-0.65,1.23
2022-01-31 10:15:10.9890,0.163,1.021,0.058,1.75,1.6,1.57,0.15,-0.29,1.09
2022-01-31 10:15:10.9760,0.147,1.012,-0.029,1.75,1.6,1.57,0.35,-0.11,0.97
Time,0.166,1.047,-0.159,1.75,1.6,1.57,0.58,-0.09,1.18
2022-01-31 10:15:10.9950,0.239,1.025,-0.172,1.75,1.6,1.57,0.9,-0.0,1.33
2022-01-31 10:15:10.9780,0.246,1.013,-0.166,1.75,1.6,1.57,1.34,0.24,1.27
Time,0.244,0.985,-0.163,1.75,1.6,1.57,1.88,0.55,1.16
2022-01-31 10:15:10.9970,0.252,0.997,-0.185,1.75,1.6,1.57,2.46,0.59,0.9
2022-01-31 10:15:10.9980,0.294,0.992,-0.166,1.75,1.6,1.57,2.79,0.68,1.08
2022-01-31 10:15:11.0000,0.372,0.999,0.035,1.75,1.6,1.57,2.84,1.2,1.15
2022-01-31 10:15:11.0110,0.373,1.101,0.209,1.75,1.6,1.57,2.95,1.64,0.82
2022-01-31 10:15:11.0030,0.444,1.283,0.177,1.75,1.6,1.57,3.15,1.84,0.87
2022-01-31 10:15:11.0040,0.594,1.403,0.346,1.75,1.6,1.57,2.93,2.72,1.12
2022-01-31 10:15:11.0150,0.466,1.459,0.651,1.75,1.6,1.57,2.52,3.74,0.95
2022-01-31 10:15:11.0180,0.281,1.361,0.575,1.75,1.6,1.57,2.36,3.96,0.86
2022-01-31 10:15:11.0190,0.193,1.201,0.36,1.75,1.6,1.57,2.23,3.64,1.04
2022-01-31 10:15:11.0130,0.117,1.084,0.349,1.75,1.6,1.57,2.04,3.06,1.17
2022-01-31 10:15:11.0130,0.06,0.919,0.387,1.75,1.6,1.57,1.63,2.61,1.26
2022-01-31 10:15:11.0250,-0.117,0.8,0.438,1.75,1.6,1.57,1.24,2.1,1.08
Time,-0.279,0.797,0.324,1.75,1.6,1.57,1.05,1.46,0.79
2022-01-31 10:15:11.0280,-0.391,0.788,0.155,1.75,1.6,1.57,1.03,1.14,0.48
2022-01-31 10:15:11.0220,-0.24,0.804,0.162,1.75,1.6,1.57,1.02,1.17,0.33
2022-01-31 10:15:11.0320,0.037,0.871,0.143,1.75,1.6,1.57,1.09,1.08,0.32
2022-01-31 10:15:11.0340,0.194,0.931,0.093,1.75,1.6,1.57,1.18,0.99,0.32
2022-01-31 10:15:11.0340,0.282,0.946,0.082,1.75,1.6,1.57,1.15,1.03,0.45
Time,0.358,0.944,0.093,1.75,1.6,1.57,1.03,1.15,0.68
2022-01-31 10:15:11.0310,0.38,0.981,0.104,1.75,1.6,1.57,0.88,1.31,0.85
Time,0.322,1.045,0.145,1.75,1.6,1.57,0.72,1.58,0.86
2022-01-31 10:15:11.0410,0.225,1.083,0.18,1.75,1.6,1.57,0.58,1.7,0.79
Time,0.162,1.054,0.162,1.75,1.6,1.57,0.34,1.42,0.73
2022-01-31 10:15:11.0420,0.122,0.953,0.148,1.75,1.6,1.57,0.04,1.03,0.67
2022-01-31 10:15:11.0430,0.054,0.882,0.215,1.75,1.6,1.57,-0.25,0.79,0.54
Time,-0.008,0.866,0.278,1.75,1.6,1.57,-0.5,0.56,0.39
2022-01-31 10:15:11.0470,-0.017,0.805,0.246,1.75,1.6,1.57,-0.7,0.2,0.35
2022-01-31 10:15:11.0490,0.023,0.671,0.167,1.75,1.6,1.57,-0.82,-0.09,0.36
2022-01-31 10:15:11.0490,0.05,0.597,0.078,1.75,1.6,1.57,-0.82,-0.09,0.36
2022-01-31 10:15:11.0510,0.112,0.588,-0.054,1.75,1.6,1.57,-0.56,-0.09,0.58
2022-01-31 10:15:11.0550,0.194,0.617,-0.227,1.75,1.6,1.57,-0.23,-0.18,0.82
2022-01-31 10:15:11.0550,0.341,0.597,-0.362,1.75,1.6,1.57,0.05,-0.07,1.18
2022-01-31 10:15:11.0570,0.458,0.549,-0.358,1.75,1.6,1.57,0.0,0.72,1.6
Time,0.484,0.524,-0.172,1.75,1.6,1.57,-0.24,2.31,1.86
2022-01-31 10:15:11.0620,0.473,0.646,-0.368,1.75,1.6,1.57,0.36,2.49,1.8
Time,0.607,0.724,-0.927,1.75,1.6,1.57,1.61,0.76,1.65
2022-01-31 10:15:11.0760,0.651,0.574,-1.083,1.75,1.6,1.57,2.61,-0.87,1.77
2022-01-31 10:15:11.0760,0.634,0.457,-0.596,1.75,1.6,1.57,2.83,-0.74,2.13
2022-01-31 10:15:11.0760,0.542,0.458,-0.065,1.75,1.6,1.57,2.56,0.19,2.3
2022-01-31 10:15:11.0840,0.428,0.646,0.127,1.75,1.6,1.57,1.91,0.84,2.21
2022-01-31 10:15:11.0840,0.358,0.865,0.196,1.75,1.6,1.57,1.12,1.2,1.82
2022-01-31 10:15:11.0860,0.245,0.984,0.241,1.75,1.6,1.57,0.47,1.53,1.15
2022-01-31 10:15:11.0890,0.173,1.163,0.382,1.75,1.6,1.57,0.11,2.04,0.31
2022-01-31 10:15:11.0960,0.154,1.412,0.559,1.75,1.6,1.57,0.02,2.55,-0.43
2022-01-31 10:15:11.0920,0.179,1.626,0.612,1.75,1.6,1.57,0.09,2.4,-0.9
Time,0.198,1.798,0.519,1.75,1.6,1.57,0.23,1.48,-1.05
Time,0.232,1.99,0.453,1.75,1.6,1.57,0.39,0.28,-0.95
2022-01-31 10:15:11.0980,0.247,2.141,0.462,1.75,1.6,1.57,0.45,-0.57,-0.88
2022-01-31 10:15:11.1030,0.125,2.17,0.495,1.75,1.6,1.57,0.41,-0.84,-0.98
2022-01-31 10:15:11.1030,-0.001,2.06,0.45,1.75,1.6,1.57,0.41,-0.84,-0.98
2022-01-31 10:15:11.1040,0.025,1.801,0.312,1.75,1.6,1.57,0.12,-1.6,-1.14
2022-01-31 10:15:11.1110,0.147,1.555,0.183,1.75,1.6,1.57,-0.15,-2.01,-1.23
2022-01-31 10:15:11.1100,0.234,1.324,0.126,1.75,1.6,1.57,-0.45,-2.28,-1.43
2022-01-31 10:15:11.1100,0.402,1.19,-0.013,1.75,1.6,1.57,-0.78,-2.47,-1.42
2022-01-31 10:15:11.1120,0.636,1.067,-0.143,1.75,1.6,1.57,-1.04,-2.64,-1.22
Time,0.826,0.999,-0.316,1.75,1.6,1.57,-1.16,-2.93,-0.77
2022-01-31 10:15:11.1150,1.041,1.041,-0.421,1.75,1.6,1.57,-1.22,-2.97,-0.09
2022-01-31 10:15:11.1180,1.056,1.036,-0.403,1.75,1.6,1.57,-1.09,-2.63,0.47
2022-01-31 10:15:11.1210,0.87,1.058,-0.416,1.75,1.6,1.57,-0.54,-1.78,0.45
2022-01-31 10:15:11.1230,0.449,0.977,-0.479,1.75,1.6,1.57,0.57,0.03,-0.29
2022-01-31 10:15:11.1290,0.041,0.843,-0.474,1.75,1.6,1.57,1.53,1.44,-1.14
2022-01-31 10:15:11.1270,0.07,0.772,-0.27,1.75,1.6,1.57,2.07,2.03,-1.44
Time,0.332,0.772,-0.049,1.75,1.6,1.57,2.28,2.08,-1.44
2022-01-31 10:15:11.1310,0.445,0.83,0.091,1.75,1.6,1.57,2.34,1.8,-1.35
2022-01-31 10:15:11.1340,0.428,0.929,0.143,1.75,1.6,1.57,2.26,1.31,-1.3
2022-01-31 10:15:11.1330,0.339,0.995,0.17,1.75,1.6,1.57,1.96,0.63,-1.24
2022-01-31 10:15:11.1370,0.285,1.088,0.16,1.75,1.6,1.57,1.7,-0.45,-1.27
Time,0.216,1.234,0.038,1.75,1.6,1.57,1.29,-1.66,-1.2
2022-01-31 10:15:11.1410,0.197,1.094,0.105,1.75,1.6,1.57,0.73,-2.62,-1.17
2022-01-31 10:15:11.1430,0.255,1.076,0.168,1.75,1.6,1.57,0.15,-3.17,-0.88
2022-01-31 10:15:11.1480,0.384,1.064,0.218,1.75,1.6,1.57,-0.33,-3.24,-0.68
2022-01-31 10:15:11.1520,0.463,1.137,0.186,1.75,1.6,1.57,-0.68,-3.02,-0.42
2022-01-31 10:15:11.1490,0.494,1.175,0.144,1.75,1.6,1.57,-0.95,-2.5,-0.23
2022-01-31 10:15:11.1510,0.436,1.208,0.124,1.75,1.6,1.57,-1.11,-1.55,-0.22
Time,0.182,1.207,0.057,1.75,1.6,1.57,-1.16,0.08,-0.55
2022-01-31 10:15:11.1550,0.021,1.167,-0.057,1.75,1.6,1.57,-1.12,1.2,-0.6
2022-01-31 10:15:11.1570,0.094,1.064,-0.158,1.75,1.6,1.57,-0.92,1.49,-0.61
Time,0.101,0.968,-0.191,1.75,1.6,1.57,-0.84,1.63,-0.53
2022-01-31 10:15:11.1610,0.08,0.732,-0.055,1.75,1.6,1.57,-0.92,1.74,-0.29
2022-01-31 10:15:11.1610,0.018,0.574,0.025,1.75,1.6,1.57,-1.05,1.57,0.4
2022-01-31 10:15:11.1640,0.002,0.263,0.053,1.75,1.6,1.57,-1.26,1.28,0.26
2022-01-31 10:15:11.1670,-0.074,0.531,-0.053,1.75,1.6,1.57,-1.11,0.42,-0.2
2022-01-31 10:15:11.1680,-0.058,0.942,-0.161,1.75,1.6,1.57,-0.76,-0.52,-0.56
2022-01-31 10:15:11.1700,0.061,0.988,-0.089,1.75,1.6,1.57,-1.25,-0.9,-0.36
2022-01-31 10:15:11.1790,0.058,0.618,0.094,1.75,1.6,1.57,-1.67,-1.09,-0.28
2022-01-31 10:15:11.1760,0.058,0.645,-0.039,1.75,1.6,1.57,-1.59,-1.45,-0.27
2022-01-31 10:15:11.1770,0.057,0.863,-0.107,1.75,1.6,1.57,-1.4,-1.58,-0.38
2022-01-31 10:15:11.1820,0.063,1.033,0.09,1.75,1.6,1.57,-1.36,-0.99,-0.55
2022-01-31 10:15:11.1820,0.082,1.239,0.452,1.75,1.6,1.57,-1.57,0.04,-0.62
2022-01-31 10:15:11.1840,0.069,1.215,0.576,1.75,1.6,1.57,-1.75,0.69,-0.53
2022-01-31 10:15:11.1880,-0.038,1.197,0.362,1.75,1.6,1.57,-1.72,0.67,-0.61
2022-01-31 10:15:11.1880,-0.154,1.211,0.18,1.75,1.6,1.57,-2.33,0.06,-0.67
2022-01-31 10:15:11.1950,-0.196,1.197,0.021,1.75,1.6,1.57,-2.16,-1.17,-0.95
2022-01-31 10:15:11.1950,-0.182,1.403,-0.099,1.75,1.6,1.57,-2.06,-3.11,-1.13
2022-01-31 10:15:11.1930,-0.074,1.403,0.181,1.75,1.6,1.57,-2.49,-3.94,-1.31
2022-01-31 10:15:11.1960,0.105,1.304,0.387,1.75,1.6,1.57,-2.66,-3.76,-1.28
2022-01-31 10:15:11.1980,0.341,1.198,0.476,1.75,1.6,1.57,-2.88,-2.94,-1.1
Time,0.53,1.014,0.477,1.75,1.6,1.57,-3.02,-2.19,-0.9
Time,0.618,0.918,0.242,1.75,1.6,1.57,-3.09,-1.91,-0.8
2022-01-31 10:15:11.2030,0.63,0.906,-0.064,1.75,1.6,1.57,-2.94,-1.82,-0.87
Time,0.629,0.894,-0.349,1.75,1.6,1.57,-2.44,-1.76,-1.08
2022-01-31 10:15:11.2080,0.667,1.028,-0.584,1.75,1.6,1.57,-1.66,-1.54,-1.51
2022-01-31 10:15:11.2100,0.753,1.224,-0.725,1.75,1.6,1.57,-0.83,-1.05,-1.86
2022-01-31 10:15:11.2150,0.967,1.27,-0.774,1.75,1.6,1.57,-0.2,-0.64,-1.75
2022-01-31 10:15:11.2150,1.162,1.095,-0.655,1.75,1.6,1.57,0.16,-0.23,-1.31
Time,1.166,0.715,-0.493,1.75,1.6,1.57,0.52,0.08,-0.83
2022-01-31 10:15:11.2170,1.025,0.421,-0.387,1.75,1.6,1.57,0.72,0.24,-0.41
2022-01-31 10:15:11.2200,0.808,0.473,-0.223,1.75,1.6,1.57,0.79,0.4,-0.15
2022-01-31 10:15:11.2240,0.53,0.759,-0.099,1.75,1.6,1.57,0.78,0.36,-0.09
2022-01-31 10:15:11.2240,0.295,0.944,-0.047,1.75,1.6,1.57,0.7,0.2,-0.1
2022-01-31 10:15:11.2240,0.138,1.0,-0.02,1.75,1.6,1.57,0.6,0.25,-0.03
Time,0.017,1.002,0.033,1.75,1.6,1.57,0.41,0.54,0.09
2022-01-31 10:15:11.2360,-0.062,0.957,0.057,1.75,1.6,1.57,0.24,0.79,0.22
2022-01-31 10:15:11.2310,-0.099,0.879,0.012,1.75,1.6,1.57,0.12,0.81,0.31
2022-01-31 10:15:11.2310,-0.085,0.847,-0.038,1.75,1.6,1.57,-0.01,0.74,0.32
Time,-0.04,0.922,-0.027,1.75,1.6,1.57,-0.14,0.94,0.14
2022-01-31 10:15:11.2380,0.027,1.003,-0.014,1.75,1.6,1.57,-0.14,1.07,0.16
Time,0.125,1.024,-0.122,1.75,1.6,1.57,-0.13,0.73,0.22
2022-01-31 10:15:11.2430,0.198,1.009,-0.213,1.75,1.6,1.57,-0.2,0.19,0.21
2022-01-31 10:15:11.2450,0.236,0.981,-0.242,1.75,1.6,1.57,0.04,-0.63,0.32
2022-01-31 10:15:11.2440,0.241,0.898,-0.327,1.75,1.6,1.57,0.2,-1.19,0.4
2022-01-31 10:15:11.2440,0.153,0.808,-0.214,1.75,1.6,1.57,0.2,-1.19,0.4
2022-01-31 10:15:11.2500,0.071,0.624,-0.209,1.75,1.6,1.57,0.97,-1.68,0.6
2022-01-31 10:15:11.2510,-0.014,0.711,-0.052,1.75,1.6,1.57,1.11,-1.38,0.65
2022-01-31 10:15:11.2540,-0.114,0.845,0.087,1.75,1.6,1.57,1.28,-0.83,0.51
2022-01-31 10:15:11.2570,-0.169,0.976,0.13,1.75,1.6,1.57,1.47,-0.41,0.4
2022-01-31 10:15:11.2570,-0.186,0.998,0.151,1.75,1.6,1.57,1.53,-0.38,0.27
Time,-0.182,1.036,0.217,1.75,1.6,1.57,1.3,-0.76,0.14
2022-01-31 10:15:11.2600,-0.13,1.12,0.499,1.75,1.6,1.57,0.65,-1.17,0.06
2022-01-31 10:15:11.2650,-0.035,1.113,0.924,1.75,1.6,1.57,0.0,-1.04,0.01
Time,0.068,1.043,0.906,1.75,1.6,1.57,-0.3,-0.59,-0.06
2022-01-31 10:15:11.2660,0.118,1.023,0.632,1.75,1.6,1.57,-0.49,-0.33,-0.16
2022-01-31 10:15:11.2710,0.128,1.015,0.441,1.75,1.6,1.57,-0.61,-0.23,-0.25
2022-01-31 10:15:11.2770,0.102,0.984,0.379,1.75,1.6,1.57,-0.55,0.14,-0.36
2022-01-31 10:15:11.2770,0.05,0.963,0.465,1.75,1.6,1.57,-0.4,0.89,-0.51
2022-01-31 10:15:11.2760,0.028,1.028,0.596,1.75,1.6,1.57,-0.56,1.25,-0.65
2022-01-31 10:15:11.2780,0.012,1.171,0.637,1.75,1.6,1.57,-1.02,1.0,-0.85
2022-01-31 10:15:11.2790,0.018,1.259,0.719,1.75,1.6,1.57,-1.65,0.49,-1.04
2022-01-31 10:15:11.2800,0.086,1.243,0.82,1.75,1.6,1.57,-2.45,-0.14,-1.18
2022-01-31 10:15:11.2840,0.207,1.178,0.745,1.75,1.6,1.57,-3.26,-0.77,-1.28
2022-01-31 10:15:11.2840,0.344,1.135,0.437,1.75,1.6,1.57,-3.71,-1.22,-1.31
2022-01-31 10:15:11.2880,0.46,1.088,0.085,1.75,1.6,1.57,-3.79,-1.34,-1.26
Time,0.531,1.056,-0.228,1.75,1.6,1.57,-3.54,-1.09,-1.17
2022-01-31 10:15:11.2910,0.615,0.946,-0.524,1.75,1.6,1.57,-2.87,-0.5,-0.89
Time,0.71,0.72,-0.907,1.75,1.6,1.57,-1.66,0.15,-0.48
2022-01-31 10:15:11.2990,0.726,0.64,-1.305,1.75,1.6,1.57,-0.03,1.03,-0.03
2022-01-31 10:15:11.2970,0.59,0.702,-1.456,1.75,1.6,1.57,1.39,1.14,0.21
2022-01-31 10:15:11.3010,0.243,0.83,-1.314,1.75,1.6,1.57,2.34,0.7,0.31
Time,0.023,0.94,-0.885,1.75,1.6,1.57,2.87,0.55,0.35
2022-01-31 10:15:11.3030,-0.149,0.999,-0.437,1.75,1.6,1.57,3.11,0.64,0.33
Time,-0.269,1.018,-0.156,1.75,1.6,1.57,3.05,0.74,0.28
2022-01-31 10:15:11.3080,-0.334,0.995,0.01,1.75,1.6,1.57,2.82,0.63,0.23
2022-01-31 10:15:11.3120,-0.346,0.935,0.117,1.75,1.6,1.57,2.47,0.3,0.25
Time,-0.318,0.937,0.199,1.75,1.6,1.57,2.07,-0.25,0.28
2022-01-31 10:15:11.3220,-0.287,1.029,0.217,1.75,1.6,1.57,1.68,-1.01,0.32
2022-01-31 10:15:11.3190,-0.258,1.187,0.208,1.75,1.6,1.57,1.26,-1.88,0.42
2022-01-31 10:15:11.3210,-0.204,1.322,0.232,1.75,1.6,1.57,0.84,-2.62,0.61
2022-01-31 10:15:11.3210,-0.162,1.423,0.313,1.75,1.6,1.57,0.45,-3.03,0.79
2022-01-31 10:15:11.3250,-0.157,1.503,0.441,1.75,1.6,1.57,0.08,-2.93,0.87
2022-01-31 10:15:11.3270,-0.16,1.532,0.613,1.75,1.6,1.57,-0.28,-2.46,0.85
2022-01-31 10:15:11.3270,-0.179,1.474,0.644,1.75,1.6,1.57,-0.62,-2.09,0.72
Time,-0.195,1.398,0.54,1.75,1.6,1.57,-0.93,-1.96,0.55
2022-01-31 10:15:11.3370,-0.198,1.319,0.413,1.75,1.6,1.57,-1.09,-1.96,0.42
2022-01-31 10:15:11.3340,-0.19,1.235,0.309,1.75,1.6,1.57,-1.17,-1.86,0.31
2022-01-31 10:15:11.3370,-0.19,1.153,0.267,1.75,1.6,1.57,-1.22,-1.6,0.18
2022-01-31 10:15:11.3370,-0.203,1.167,0.211,1.75,1.6,1.57,-1.11,-1.39,-0.0
Time,-0.179,1.166,0.094,1.75,1.6,1.57,-0.94,-1.36,-0.15
2022-01-31 10:15:11.3420,-0.108,1.081,-0.002,1.75,1.6,1.57,-0.71,-1.45,-0.21
Time,-0.028,0.994,-0.055,1.75,1.6,1.57,-0.41,-1.58,-0.22
2022-01-31 10:15:11.3460,0.059,0.934,-0.084,1.75,1.6,1.57,-0.15,-1.65,-0.18
2022-01-31 10:15:11.3500,0.151,0.879,-0.036,1.75,1.6,1.57,0.0,-1.63,-0.01
2022-01-31 10:15:11.3510,0.226,0.868,0.04,1.75,1.6,1.57,0.12,-1.68,0.2
2022-01-31 10:15:11.3530,0.257,0.902,0.112,1.75,1.6,1.57,0.14,-1.7,0.38
2022-01-31 10:15:11.3560,0.257,0.972,0.319,1.75,1.6,1.57,0.08,-1.68,0.58
Time,0.244,1.001,0.457,1.75,1.6,1.57,-0.08,-1.79,0.79
2022-01-31 10:15:11.3590,0.226,1.075,0.561,1.75,1.6,1.57,-0.35,-1.92,0.92
2022-01-31 10:15:11.3630,0.215,1.14,0.559,1.75,1.6,1.57,-0.6,-2.07,1.01
2022-01-31 10:15:11.3640,0.221,1.185,0.505,1.75,1.6,1.57,-0.92,-2.12,1.0
2022-01-31 10:15:11.3650,0.281,1.137,0.431,1.75,1.6,1.57,-1.04,-2.5,1.18
2022-01-31 10:15:11.3690,0.343,1.055,0.347,1.75,1.6,1.57,-1.25,-2.47,1.18
2022-01-31 10:15:11.3740,0.382,1.035,0.366,1.75,1.6,1.57,-1.37,-2.61,1.47
Time,0.385,0.961,0.154,1.75,1.6,1.57,-1.41,-2.64,1.41
2022-01-31 10:15:11.3750,0.281,0.905,-0.092,1.75,1.6,1.57,-1.12,-2.77,1.4
2022-01-31 10:15:11.3770,0.171,0.795,-0.195,1.75,1.6,1.57,-1.08,-2.18,1.17
2022-01-31 10:15:11.3830,0.081,0.737,-0.169,1.75,1.6,1.57,-1.01,-1.61,1.12
2022-01-31 10:15:11.3820,0.047,0.635,-0.231,1.75,1.6,1.57,-0.9,-0.95,0.98
2022-01-31 10:15:11.3830,-0.019,0.606,-0.278,1.75,1.6,1.57,-0.76,-0.13,0.52
2022-01-31 10:15:11.3830,-0.077,0.696,-0.212,1.75,1.6,1.57,-0.48,0.8,0.1
2022-01-31 10:15:11.3920,-0.096,0.774,-0.113,1.75,1.6,1.57,-0.18,2.05,-0.39
2022-01-31 10:15:11.3930,-0.068,0.837,-0.082,1.75,1.6,1.57,-0.34,2.05,-0.71
2022-01-31 10:15:11.3890,0.07,0.693,-0.327,1.75,1.6,1.57,0.13,2.58,-0.57
2022-01-31 10:15:11.3890,0.007,0.784,-0.248,1.75,1.6,1.57,0.62,3.08,-0.9
2022-01-31 10:15:11.3940,0.125,0.684,-0.311,1.75,1.6,1.57,1.03,2.9,-0.96
2022-01-31 10:15:11.3940,0.257,0.729,-0.391,1.75,1.6,1.57,1.01,1.88,-0.86
Time,0.268,0.986,-0.433,1.75,1.6,1.57,1.05,0.98,-0.86
2022-01-31 10:15:11.4010,0.266,1.284,-0.35,1.75,1.6,1.57,1.3,0.74,-1.15
Time,0.486,1.367,-0.17,1.75,1.6,1.57,1.46,1.08,-0.96
2022-01-31 10:15:11.4030,0.675,1.398,-0.016,1.75,1.6,1.57,1.45,1.61,-0.63
2022-01-31 10:15:11.4050,0.755,1.504,0.154,1.75,1.6,1.57,1.52,2.33,-0.28
2022-01-31 10:15:11.4060,0.787,1.438,0.251,1.75,1.6,1.57,1.52,2.33,-0.28
2022-01-31 10:15:11.4060,0.622,1.205,0.286,1.75,1.6,1.57,-0.67,-1.66,0.5
2022-01-31 10:15:11.4060,0.205,1.022,0.41,1.75,1.6,1.57,-0.67,-1.66,0.5
Time,-0.054,0.888,0.37,1.75,1.6,1.57,-2.44,-1.95,0.46
2022-01-31 10:15:11.4180,-0.023,0.986,0.188,1.75,1.6,1.57,-1.98,-1.45,0.26
2022-01-31 10:15:11.4210,0.129,0.892,-0.011,1.75,1.6,1.57,-1.53,-1.37,0.14
2022-01-31 10:15:11.4250,0.165,0.843,-0.158,1.75,1.6,1.57,-1.18,-1.82,-0.14
2022-01-31 10:15:11.4250,0.293,0.729,-0.307,1.75,1.6,1.57,-1.38,-3.11,0.03
2022-01-31 10:15:11.4250,0.303,0.734,-0.345,1.75,1.6,1.57,-0.85,-3.46,-0.33
2022-01-31 10:15:11.4290,-0.025,-0.535,-0.796,1.75,1.6,1.57,-0.2,-0.17,0.07
2022-01-31 10:15:11.4330,-0.001,-0.557,-0.811,1.75,1.6,1.57,-0.34,-0.08,0.03
2022-01-31 10:15:11.4330,0.033,-0.61,-0.823,1.75,1.6,1.57,-0.46,-0.09,0.08
2022-01-31 10:15:11.4330,0.042,-0.643,-0.848,1.75,1.6,1.57,-0.51,-0.19,0.12
2022-01-31 10:15:11.4340,0.02,-0.626,-0.856,1.75,1.6,1.57,-0.5,-0.28,0.13
2022-01-31 10:15:11.4220,-0.008,-0.593,-0.859,1.75,1.6,1.57,-0.46,-0.28,0.12
Time,-0.018,-0.562,-0.862,1.75,1.6,1.57,-0.41,-0.22,0.12
2022-01-31 10:15:11.4420,-0.011,-0.555,-0.853,1.75,1.6,1.57,-0.36,-0.16,0.13
2022-01-31 10:15:11.4450,-0.002,-0.566,-0.845,1.75,1.6,1.57,-0.32,-0.06,0.16
2022-01-31 10:15:11.4480,0.002,-0.57,-0.841,1.75,1.6,1.57,-0.26,0.07,0.17
Time,-0.003,-0.55,-0.86,1.75,1.6,1.57,-0.15,0.17,0.16
2022-01-31 10:15:11.4490,-0.01,-0.518,-0.898,1.75,1.6,1.57,-0.01,0.24,0.11
2022-01-31 10:15:11.4530,-0.001,-0.51,-0.919,1.75,1.6,1.57,0.14,0.25,0.07
2022-01-31 10:15:11.4530,0.0,-0.531,-0.92,1.75,1.6,1.57,0.2,0.17,0.02
Time,-0.015,-0.555,-0.903,1.75,1.6,1.57,0.18,0.05,-0.03
2022-01-31 10:15:11.4590,-0.029,-0.565,-0.875,1.75,1.6,1.57,0.06,-0.05,-0.07
2022-01-31 10:15:11.4590,-0.021,-0.55,-0.85,1.75,1.6,1.57,-0.11,-0.09,-0.1
2022-01-31 10:15:11.4610,-0.003,-0.532,-0.851,1.75,1.6,1.57,-0.26,-0.1,-0.13
2022-01-31 10:15:11.4650,0.009,-0.521,-0.867,1.75,1.6,1.57,-0.36,-0.12,-0.15
2022-01-31 10:15:11.4510,0.015,-0.522,-0.881,1.75,1.6,1.57,-0.41,-0.16,-0.16
Time,0.021,-0.525,-0.883,1.75,1.6,1.57,-0.42,-0.16,-0.16
2022-01-31 10:15:11.4690,0.026,-0.523,-0.878,1.75,1.6,1.57,-0.39,-0.14,-0.15
2022-01-31 10:15:11.4570,0.024,-0.518,-0.876,1.75,1.6,1.57,-0.33,-0.11,-0.13
2022-01-31 10:15:11.4580,0.02,-0.505,-0.868,1.75,1.6,1.57,-0.28,-0.11,-0.13
2022-01-31 10:15:11.4740,0.023,-0.503,-0.853,1.75,1.6,1.57,-0.25,-0.09,-0.13
2022-01-31 10:15:11.4780,0.019,-0.5,-0.844,1.75,1.6,1.57,-0.23,-0.08,-0.13
2022-01-31 10:15:11.4790,0.014,-0.494,-0.853,1.75,1.6,1.57,-0.22,-0.07,-0.12
2022-01-31 10:15:11.4840,0.004,-0.487,-0.865,1.75,1.6,1.57,-0.19,-0.05,-0.1
2022-01-31 10:15:11.4830,0.005,-0.48,-0.87,1.75,1.6,1.57,-0.15,-0.07,-0.09
Time,-0.002,-0.478,-0.873,1.75,1.6,1.57,-0.14,-0.12,-0.1
2022-01-31 10:15:11.4880,-0.004,-0.476,-0.857,1.75,1.6,1.57,-0.16,-0.16,-0.12
2022-01-31 10:15:11.4910,-0.003,-0.481,-0.84,1.75,1.6,1.57,-0.21,-0.19,-0.11
2022-01-31 10:15:11.4910,-0.004,-0.484,-0.839,1.75,1.6,1.57,-0.26,-0.2,-0.09
2022-01-31 10:15:11.4920,-0.002,-0.475,-0.849,1.75,1.6,1.57,-0.29,-0.2,-0.07
2022-01-31 10:15:11.4920,-0.005,-0.458,-0.855,1.75,1.6,1.57,-0.3,-0.18,-0.06
2022-01-31 10:15:11.4960,-0.009,-0.445,-0.859,1.75,1.6,1.57,-0.27,-0.11,-0.06
2022-01-31 10:15:11.5000,-0.008,-0.439,-0.868,1.75,1.6,1.57,-0.21,-0.06,-0.07
2022-01-31 10:15:11.5000,-0.012,-0.436,-0.887,1.75,1.6,1.57,-0.16,-0.04,-0.08
Time,-0.014,-0.437,-0.905,1.75,1.6,1.57,-0.12,-0.06,-0.09
Time,-0.012,-0.434,-0.922,1.75,1.6,1.57,-0.08,-0.06,-0.09
2022-01-31 10:15:11.4980,-0.014,-0.424,-0.941,1.75,1.6,1.57,-0.04,-0.08,-0.1
2022-01-31 10:15:11.5120,-0.015,-0.424,-0.956,1.75,1.6,1.57,-0.05,-0.18,-0.16
2022-01-31 10:15:11.5040,0.005,-0.429,-0.96,1.75,1.6,1.57,-0.13,-0.29,-0.21
2022-01-31 10:15:11.5150,0.047,-0.425,-0.969,1.75,1.6,1.57,-0.25,-0.44,-0.29
2022-01-31 10:15:11.5180,0.069,-0.428,-0.989,1.75,1.6,1.57,-0.39,-0.55,-0.35
Time,0.061,-0.442,-0.974,1.75,1.6,1.57,-0.48,-0.6,-0.35
2022-01-31 10:15:11.5130,0.037,-0.459,-0.929,1.75,1.6,1.57,-0.53,-0.6,-0.3
2022-01-31 10:15:11.5140,-0.002,-0.476,-0.875,1.75,1.6,1.57,-0.52,-0.51,-0.19
2022-01-31 10:15:11.5160,-0.028,-0.473,-0.841,1.75,1.6,1.57,-0.43,-0.35,-0.08
2022-01-31 10:15:11.5290,-0.043,-0.444,-0.849,1.75,1.6,1.57,-0.31,-0.23,-0.0
2022-01-31 10:15:11.5300,-0.063,-0.424,-0.873,1.75,1.6,1.57,-0.25,-0.17,0.04
2022-01-31 10:15:11.5330,-0.07,-0.42,-0.883,1.75,1.6,1.57,-0.23,-0.1,0.08
2022-01-31 10:15:11.5330,-0.061,-0.43,-0.882,1.75,1.6,1.57,-0.24,-0.05,0.1
2022-01-31 10:15:11.5330,-0.057,-0.414,-0.892,1.75,1.6,1.57,-0.28,-0.09,0.08
2022-01-31 10:15:11.5330,-0.06,-0.393,-0.908,1.75,1.6,1.57,-0.34,-0.17,0.05
2022-01-31 10:15:11.5390,-0.062,-0.387,-0.906,1.75,1.6,1.57,-0.41,-0.21,-0.0
2022-01-31 10:15:11.5370,-0.066,-0.377,-0.893,1.75,1.6,1.57,-0.5,-0.23,-0.05
2022-01-31 10:15:11.5400,-0.081,-0.384,-0.884,1.75,1.6,1.57,-0.57,-0.23,-0.08
2022-01-31 10:15:11.5420,-0.085,-0.391,-0.902,1.75,1.6,1.57,-0.61,-0.26,-0.07
2022-01-31 10:15:11.5460,-0.081,-0.387,-0.914,1.75,1.6,1.57,-0.62,-0.25,-0.05
2022-01-31 10:15:11.5470,-0.074,-0.378,-0.921,1.75,1.6,1.57,-0.6,-0.24,-0.04
2022-01-31 10:15:11.5490,-0.067,-0.361,-0.948,1.75,1.6,1.57,-0.56,-0.26,-0.07
Time,-0.057,-0.347,-0.979,1.75,1.6,1.57,-0.5,-0.28,-0.13
2022-01-31 10:15:11.5540,-0.043,-0.343,-0.994,1.75,1.6,1.57,-0.42,-0.31,-0.18
2022-01-31 10:15:11.5550,-0.048,-0.355,-0.988,1.75,1.6,1.57,-0.36,-0.34,-0.2
Time,-0.078,-0.363,-0.971,1.75,1.6,1.57,-0.31,-0.34,-0.2
2022-01-31 10:15:11.5600,-0.093,-0.362,-0.953,1.75,1.6,1.57,-0.25,-0.28,-0.16
2022-01-31 10:15:11.5610,-0.094,-0.355,-0.944,1.75,1.6,1.57,-0.17,-0.22,-0.12
Time,-0.087,-0.354,-0.944,1.75,1.6,1.57,-0.1,-0.19,-0.1
Time,-0.081,-0.356,-0.942,1.75,1.6,1.57,-0.05,-0.19,-0.11
2022-01-31 10:15:11.5680,-0.082,-0.358,-0.927,1.75,1.6,1.57,-0.04,-0.11,-0.08
2022-01-31 10:15:11.5690,-0.081,-0.364,-0.907,1.75,1.6,1.57,-0.04,-0.0,-0.02
2022-01-31 10:15:11.5710,-0.077,-0.363,-0.911,1.75,1.6,1.57,-0.02,0.08,0.01
2022-01-31 10:15:11.5750,-0.066,-0.362,-0.929,1.75,1.6,1.57,0.09,0.16,0.0
2022-01-31 10:15:11.5750,-0.063,-0.315,-0.927,1.75,1.6,1.57,0.42,0.21,-0.11
2022-01-31 10:15:11.5770,-0.051,-0.31,-0.968,1.75,1.6,1.57,0.4,0.07,-0.12
2022-01-31 10:15:11.5770,-0.039,-0.335,-0.953,1.75,1.6,1.57,0.26,0.02,-0.1
Time,-0.021,-0.403,-0.961,1.75,1.6,1.57,-0.08,-0.14,-0.06
2022-01-31 10:15:11.5820,0.001,-0.403,-0.949,1.75,1.6,1.57,-0.45,-0.33,-0.08
2022-01-31 10:15:11.5890,0.017,-0.369,-0.947,1.75,1.6,1.57,-0.66,-0.47,-0.09
2022-01-31 10:15:11.5880,-0.009,-0.362,-0.96,1.75,1.6,1.57,-0.7,-0.6,-0.1
2022-01-31 10:15:11.5910,-0.031,-0.352,-0.963,1.75,1.6,1.57,-0.62,-0.61,-0.08
2022-01-31 10:15:11.5910,-0.048,-0.344,-0.934,1.75,1.6,1.57,-0.48,-0.51,-0.06
Time,-0.068,-0.334,-0.901,1.75,1.6,1.57,-0.36,-0.36,-0.04
2022-01-31 10:15:11.5940,-0.079,-0.319,-0.877,1.75,1.6,1.57,-0.29,-0.23,-0.04
2022-01-31 10:15:11.5960,-0.081,-0.303,-0.89,1.75,1.6,1.57,-0.24,-0.11,-0.05
2022-01-31 10:15:11.5980,-0.083,-0.306,-0.927,1.75,1.6,1.57,-0.15,-0.05,-0.05
Time,-0.083,-0.316,-0.954,1.75,1.6,1.57,-0.05,-0.03,-0.05
2022-01-31 10:15:11.6060,-0.092,-0.326,-0.94,1.75,1.6,1.57,0.02,-0.0,-0.05
2022-01-31 10:15:11.6070,-0.095,-0.327,-0.895,1.75,1.6,1.57,0.06,0.03,-0.05
2022-01-31 10:15:11.6060,-0.095,-0.329,-0.869,1.75,1.6,1.57,0.09,0.1,-0.04
2022-01-31 10:15:11.6080,-0.083,-0.336,-0.861,1.75,1.6,1.57,0.1,0.19,-0.02
2022-01-31 10:15:11.6120,-0.065,-0.348,-0.855,1.75,1.6,1.57,0.09,0.24,0.0
2022-01-31 10:15:11.6130,-0.062,-0.356,-0.852,1.75,1.6,1.57,0.05,0.26,0.01
2022-01-31 10:15:11.6150,-0.059,-0.354,-0.861,1.75,1.6,1.57,0.03,0.28,0.02
2022-01-31 10:15:11.6170,-0.041,-0.351,-0.881,1.75,1.6,1.57,0.02,0.27,0.03
2022-01-31 10:15:11.6200,-0.025,-0.349,-0.894,1.75,1.6,1.57,0.04,0.26,0.03
Time,-0.025,-0.355,-0.888,1.75,1.6,1.57,0.03,0.23,0.02
2022-01-31 10:15:11.6230,-0.025,-0.365,-0.877,1.75,1.6,1.57,0.01,0.22,0.02
2022-01-31 10:15:11.6240,-0.017,-0.372,-0.877,1.75,1.6,1.57,-0.06,0.17,0.03
Time,-0.028,-0.381,-0.878,1.75,1.6,1.57,-0.16,0.14,0.06
2022-01-31 10:15:11.6280,-0.028,-0.381,-0.869,1.75,1.6,1.57,-0.27,0.15,0.1
2022-01-31 10:15:11.6300,-0.027,-0.37,-0.88,1.75,1.6,1.57,-0.35,0.17,0.14
2022-01-31 10:15:11.6330,-0.024,-0.356,-0.917,1.75,1.6,1.57,-0.36,0.17,0.17
2022-01-31 10:15:11.6390,-0.021,-0.338,-0.947,1.75,1.6,1.57,-0.33,0.17,0.18
2022-01-31 10:15:11.6380,-0.024,-0.324,-0.961,1.75,1.6,1.57,-0.27,0.17,0.17
2022-01-31 10:15:11.6380,-0.025,-0.311,-0.969,1.75,1.6,1.57,-0.21,0.16,0.15
2022-01-31 10:15:11.6410,-0.024,-0.306,-0.977,1.75,1.6,1.57,-0.16,0.13,0.12
2022-01-31 10:15:11.6430,-0.031,-0.306,-0.977,1.75,1.6,1.57,-0.14,0.09,0.06
2022-01-31 10:15:11.6440,-0.037,-0.298,-0.981,1.75,1.6,1.57,-0.16,0.05,-0.01
Time,-0.041,-0.292,-0.98,1.75,1.6,1.57,-0.2,0.02,-0.09
2022-01-31 10:15:11.6490,-0.043,-0.296,-0.978,1.75,1.6,1.57,-0.23,-0.0,-0.13
2022-01-31 10:15:11.6540,-0.038,-0.312,-0.972,1.75,1.6,1.57,-0.24,-0.01,-0.14
2022-01-31 10:15:11.6530,-0.024,-0.335,-0.962,1.75,1.6,1.57,-0.24,-0.0,-0.09
Time,-0.017,-0.346,-0.951,1.75,1.6,1.57,-0.22,0.01,-0.03
2022-01-31 10:15:11.6560,-0.029,-0.338,-0.935,1.75,1.6,1.57,-0.2,0.05,0.01
2022-01-31 10:15:11.6580,-0.04,-0.322,-0.919,1.75,1.6,1.57,-0.16,0.12,0.03
2022-01-31 10:15:11.6600,-0.026,-0.308,-0.916,1.75,1.6,1.57,-0.13,0.16,0.04
2022-01-31 10:15:11.6620,-0.013,-0.298,-0.93,1.75,1.6,1.57,-0.11,0.14,0.03
2022-01-31 10:15:11.6620,-0.007,-0.291,-0.946,1.75,1.6,1.57,-0.12,0.1,-0.0
Time,0.002,-0.294,-0.948,1.75,1.6,1.57,-0.17,0.07,-0.02
2022-01-31 10:15:11.6830,0.008,-0.306,-0.938,1.75,1.6,1.57,-0.24,0.05,-0.02
2022-01-31 10:15:11.6920,0.011,-0.316,-0.93,1.75,1.6,1.57,-0.33,0.04,0.03
2022-01-31 10:15:11.7030,0.007,-0.32,-0.911,1.75,1.6,1.57,-0.41,0.04,0.09
2022-01-31 10:15:11.7120,-0.004,-0.314,-0.903,1.75,1.6,1.57,-0.47,0.06,0.15
2022-01-31 10:15:11.7230,-0.009,-0.309,-0.899,1.75,1.6,1.57,-0.5,0.07,0.22
2022-01-31 10:15:11.7320,-0.016,-0.308,-0.896,1.75,1.6,1.57,-0.52,0.06,0.26
2022-01-31 10:15:11.7420,-0.043,-0.301,-0.893,1.75,1.6,1.57,-0.55,0.05,0.27
2022-01-31 10:15:11.7530,-0.054,-0.291,-0.872,1.75,1.6,1.57,-0.6,0.06,0.29
2022-01-31 10:15:11.7630,-0.033,-0.276,-0.867,1.75,1.6,1.57,-0.65,0.05,0.29
2022-01-31 10:15:11.7730,-0.029,-0.252,-0.892,1.75,1.6,1.57,-0.69,0.05,0.25
2022-01-31 10:15:11.7830,-0.014,-0.235,-0.912,1.75,1.6,1.57,-0.71,0.08,0.21
2022-01-31 10:15:11.7930,0.015,-0.236,-0.927,1.75,1.6,1.57,-0.69,0.11,0.21
2022-01-31 10:15:11.8040,0.035,-0.238,-0.952,1.75,1.6,1.57,-0.64,0.1,0.21
2022-01-31 10:15:11.8130,0.038,-0.228,-0.962,1.75,1.6,1.57,-0.6,0.06,0.2
2022-01-31 10:15:11.8230,0.028,-0.219,-0.958,1.75,1.6,1.57,-0.58,0.01,0.17
2022-01-31 10:15:11.8340,0.024,-0.208,-0.948,1.75,1.6,1.57,-0.56,-0.02,0.14
2022-01-31 10:15:11.8440,0.013,-0.192,-0.944,1.75,1.6,1.57,-0.54,-0.03,0.12
2022-01-31 10:15:11.8540,-0.014,-0.184,-0.922,1.75,1.6,1.57,-0.54,0.01,0.09
2022-01-31 10:15:11.8640,-0.061,-0.181,-0.888,1.75,1.6,1.57,-0.55,0.08,0.08
2022-01-31 10:15:11.8740,-0.085,-0.178,-0.869,1.75,1.6,1.57,-0.56,0.2,0.09
2022-01-31 10:15:11.8830,-0.056,-0.18,-0.86,1.75,1.6,1.57,-0.53,0.32,0.13
2022-01-31 10:15:11.8940,-0.03,-0.178,-0.877,1.75,1.6,1.57,-0.51,0.39,0.16
2022-01-31 10:15:11.9040,-0.021,-0.164,-0.9,1.75,1.6,1.57,-0.5,0.43,0.19
2022-01-31 10:15:11.9140,-0.011,-0.15,-0.93,1.75,1.6,1.57,-0.5,0.44,0.22
2022-01-31 10:15:11.9240,0.003,-0.14,-0.954,1.75,1.6,1.57,-0.5,0.46,0.22
2022-01-31 10:15:11.9350,0.034,-0.135,-0.972,1.75,1.6,1.57,-0.53,0.45,0.22
2022-01-31 10:15:11.9440,0.064,-0.127,-0.984,1.75,1.6,1.57,-0.58,0.38,0.22
2022-01-31 10:15:11.9550,0.071,-0.107,-1.002,1.75,1.6,1.57,-0.64,0.29,0.22
2022-01-31 10:15:11.9640,0.058,-0.093,-1.012,1.75,1.6,1.57,-0.71,0.16,0.2
2022-01-31 10:15:11.9750,0.029,-0.103,-1.027,1.75,1.6,1.57,-0.73,0.04,0.18
Time,0.025,-0.13,-1.063,1.75,1.6,1.57,-0.72,-0.04,0.2
2022-01-31 10:15:11.9950,0.042,-0.129,-1.034,1.75,1.6,1.57,-0.71,0.02,0.27
2022-01-31 10:15:12.0050,0.039,-0.093,-1.045,1.75,1.6,1.57,-0.7,0.08,0.29
2022-01-31 10:15:12.0150,0.01,-0.068,-1.031,1.75,1.6,1.57,-0.75,0.06,0.21
2022-01-31 10:15:12.0260,-0.026,-0.022,-0.958,1.75,1.6,1.57,-0.87,0.08,0.06
2022-01-31 10:15:12.0350,-0.073,0.033,-0.909,1.75,1.6,1.57,-0.99,0.17,-0.15
2022-01-31 10:15:12.0450,-0.101,0.056,-0.985,1.75,1.6,1.57,-1.03,0.21,-0.35
2022-01-31 10:15:12.0550,-0.06,0.014,-1.09,1.75,1.6,1.57,-0.99,0.14,-0.44
Time,0.04,-0.095,-1.114,1.75,1.6,1.57,-0.92,0.01,-0.32
2022-01-31 10:15:12.0750,0.082,-0.135,-1.15,1.75,1.6,1.57,-0.84,-0.16,-0.17
2022-01-31 10:15:12.0860,0.042,-0.075,-1.126,1.75,1.6,1.57,-0.83,-0.1,-0.11
2022-01-31 10:15:12.0950,0.01,-0.011,-1.034,1.75,1.6,1.57,-0.87,0.1,-0.11
2022-01-31 10:15:12.1060,0.046,-0.009,-0.941,1.75,1.6,1.57,-0.98,0.39,-0.02
2022-01-31 10:15:12.1160,0.099,-0.064,-0.906,1.75,1.6,1.57,-0.99,0.35,0.1
2022-01-31 10:15:12.1250,-0.002,-0.042,-1.104,1.75,1.6,1.57,-0.79,0.21,0.11
2022-01-31 10:15:12.1360,-0.068,0.001,-1.215,1.75,1.6,1.57,-0.51,0.17,0.05
2022-01-31 10:15:12.1450,-0.05,0.043,-1.171,1.75,1.6,1.57,-0.28,0.16,-0.02
2022-01-31 10:15:12.1560,0.011,0.071,-1.071,1.75,1.6,1.57,-0.16,0.16,-0.09
Time,0.036,0.083,-0.993,1.75,1.6,1.57,-0.14,0.21,-0.15
2022-01-31 10:15:12.1760,0.019,0.065,-0.964,1.75,1.6,1.57,-0.17,0.32,-0.22
2022-01-31 10:15:12.1870,-0.001,0.031,-0.959,1.75,1.6,1.57,-0.22,0.4,-0.25
2022-01-31 10:15:12.1960,0.009,0.005,-0.988,1.75,1.6,1.57,-0.23,0.4,-0.21
Time,0.055,-0.004,-1.005,1.75,1.6,1.57,-0.22,0.41,-0.12
2022-01-31 10:15:12.2160,0.052,-0.009,-0.985,1.75,1.6,1.57,-0.22,0.45,-0.05
2022-01-31 10:15:12.2270,0.03,0.001,-0.969,1.75,1.6,1.57,-0.24,0.48,-0.03
2022-01-31 10:15:12.2370,0.024,0.016,-0.976,1.75,1.6,1.57,-0.27,0.49,-0.06
2022-01-31 10:15:12.2470,0.036,0.021,-0.989,1.75,1.6,1.57,-0.3,0.39,-0.1
2022-01-31 10:15:12.2570,0.055,0.024,-1.01,1.75,1.6,1.57,-0.28,0.22,-0.11
2022-01-31 10:15:12.2670,0.074,0.028,-1.023,1.75,1.6,1.57,-0.24,0.16,-0.1
2022-01-31 10:15:12.2780,0.064,0.034,-1.01,1.75,1.6,1.57,-0.18,0.13,-0.09
2022-01-31 10:15:12.2870,0.057,0.034,-1.026,1.75,1.6,1.57,-0.12,0.03,-0.08
2022-01-31 10:15:12.2980,0.065,0.025,-1.041,1.75,1.6,1.57,-0.1,-0.11,-0.05
2022-01-31 10:15:12.3070,0.072,0.015,-1.032,1.75,1.6,1.57,-0.15,-0.2,0.0
2022-01-31 10:15:12.3160,0.082,0.016,-1.004,1.75,1.6,1.57,-0.28,-0.28,0.06
2022-01-31 10:15:12.3270,0.081,0.019,-0.968,1.75,1.6,1.57,-0.48,-0.35,0.11
2022-01-31 10:15:12.3370,0.065,0.023,-0.918,1.75,1.6,1.57,-0.71,-0.34,0.17
2022-01-31 10:15:12.3470,0.013,0.046,-0.906,1.75,1.6,1.57,-0.87,-0.25,0.14
2022-01-31 10:15:12.3580,-0.008,0.058,-0.951,1.75,1.6,1.57,-0.95,-0.18,0.12
2022-01-31 10:15:12.3680,0.038,0.052,-1.007,1.75,1.6,1.57,-0.95,-0.22,0.12
2022-01-31 10:15:12.3770,0.049,0.064,-1.038,1.75,1.6,1.57,-0.91,-0.27,0.1
2022-01-31 10:15:12.3890,0.031,0.089,-1.058,1.75,1.6,1.57,-0.84,-0.3,0.07
2022-01-31 10:15:12.3980,0.045,0.109,-1.079,1.75,1.6,1.57,-0.76,-0.37,0.08
2022-01-31 10:15:12.4080,0.069,0.105,-1.108,1.75,1.6,1.57,-0.65,-0.52,0.1
2022-01-31 10:15:12.4180,0.057,0.087,-1.106,1.75,1.6,1.57,-0.56,-0.68,0.15
2022-01-31 10:15:12.4290,0.027,0.07,-1.071,1.75,1.6,1.57,-0.45,-0.76,0.21
2022-01-31 10:15:12.4380,0.03,0.057,-1.059,1.75,1.6,1.57,-0.3,-0.81,0.31
2022-01-31 10:15:12.4490,0.04,0.053,-1.067,1.75,1.6,1.57,-0.11,-0.88,0.38
2022-01-31 10:15:12.4580,0.008,0.062,-1.044,1.75,1.6,1.57,0.04,-0.94,0.36
2022-01-31 10:15:12.4690,-0.024,0.07,-0.979,1.75,1.6,1.57,0.11,-0.93,0.27
2022-01-31 10:15:12.4790,-0.033,0.08,-0.925,1.75,1.6,1.57,0.15,-0.85,0.17
2022-01-31 10:15:12.4880,-0.049,0.094,-0.942,1.75,1.6,1.57,0.21,-0.77,0.08
Time,-0.04,0.043,-1.08,1.75,1.6,1.57,0.48,-0.84,0.11
2022-01-31 10:15:12.5080,-0.044,-0.013,-1.154,1.75,1.6,1.57,0.74,-0.89,0.09
2022-01-31 10:15:12.5190,-0.134,0.04,-1.091,1.75,1.6,1.57,0.9,-1.08,-0.09
2022-01-31 10:15:12.5290,-0.158,0.097,-1.052,1.75,1.6,1.57,0.99,-1.24,-0.32
2022-01-31 10:15:12.5390,-0.085,0.144,-0.977,1.75,1.6,1.57,0.99,-1.17,-0.42
2022-01-31 10:15:12.5490,-0.021,0.198,-0.909,1.75,1.6,1.57,0.89,-0.87,-0.33
