time,gFx,gFy,gFz,ax,ay,az,wx,wy,wz
2022-01-31 9:57:01.1980,-0.166,-0.231,-0.954,1.2,-0.53,0.0,0.18,-0.2,-0.45
2022-01-31 9:58:14.0780,-0.145,-0.256,-0.95,1.27,-0.6,-0.02,0.14,0.12,-0.41
2022-01-31 9:58:14.0870,-0.12,-0.282,-0.942,1.1,-0.39,-0.06,0.06,0.36,-0.33
2022-01-31 9:58:14.0970,-0.096,-0.296,-0.924,0.9,-0.13,-0.12,-0.04,0.55,-0.26
2022-01-31 9:58:14.1070,-0.08,-0.294,-0.912,0.71,0.04,-0.28,-0.14,0.68,-0.22
2022-01-31 9:58:14.1180,-0.075,-0.287,-0.911,0.6,0.08,-0.44,-0.23,0.75,-0.22
2022-01-31 9:58:14.1280,-0.071,-0.287,-0.91,0.61,0.02,-0.47,-0.29,0.79,-0.24
2022-01-31 9:58:14.1380,-0.058,-0.293,-0.906,0.66,0.03,-0.47,-0.34,0.81,-0.25
2022-01-31 9:58:14.1480,-0.043,-0.296,-0.914,0.63,0.11,-0.53,-0.38,0.76,-0.27
2022-01-31 9:58:14.1580,-0.026,-0.299,-0.934,0.58,0.18,-0.51,-0.42,0.66,-0.29
2022-01-31 9:58:14.1680,-0.016,-0.3,-0.944,0.48,0.26,-0.33,-0.45,0.58,-0.3
2022-01-31 9:58:14.1780,-0.012,-0.299,-0.953,0.43,0.31,-0.21,-0.48,0.55,-0.3
2022-01-31 9:58:14.1880,-0.015,-0.293,-0.957,0.43,0.36,-0.14,-0.51,0.61,-0.3
2022-01-31 9:58:14.1980,-0.02,-0.28,-0.949,0.51,0.36,-0.09,-0.55,0.77,-0.27
2022-01-31 9:58:14.2080,-0.012,-0.27,-0.936,0.64,0.3,-0.14,-0.6,0.93,-0.24
2022-01-31 9:58:14.2180,0.005,-0.268,-0.933,0.7,0.24,-0.28,-0.67,1.06,-0.21
2022-01-31 9:58:14.2280,0.018,-0.254,-0.921,0.64,0.28,-0.35,-0.87,1.16,-0.28
2022-01-31 9:58:14.2390,0.018,-0.209,-0.891,0.6,0.29,-0.43,-1.14,1.18,-0.39
2022-01-31 9:58:14.2490,0.051,-0.218,-0.888,0.72,-0.02,-0.74,-1.36,1.24,-0.4
2022-01-31 9:58:14.2590,0.121,-0.267,-0.882,0.65,0.01,-0.85,-1.51,1.41,-0.31
2022-01-31 9:58:14.2690,0.172,-0.278,-0.899,0.14,0.62,-0.89,-1.61,1.52,-0.17
2022-01-31 9:58:14.2790,0.2,-0.233,-0.949,-0.28,1.03,-0.85,-1.67,1.47,-0.01
2022-01-31 9:58:14.2890,0.21,-0.175,-0.969,-0.48,0.85,-0.38,-1.66,1.43,0.17
2022-01-31 9:58:14.2990,0.231,-0.136,-0.972,-0.45,0.44,-0.09,-1.56,1.45,0.37
2022-01-31 9:58:14.3090,0.255,-0.114,-1.011,-0.49,0.14,-0.07,-1.35,1.37,0.57
2022-01-31 9:58:14.3190,0.258,-0.083,-1.084,-0.62,0.03,0.21,-1.02,1.19,0.75
2022-01-31 9:58:14.3290,0.257,-0.074,-1.119,-0.58,-0.17,0.9,-0.59,1.1,0.92
2022-01-31 9:58:14.3390,0.242,-0.086,-1.129,-0.48,-0.29,1.39,-0.12,1.1,0.99
2022-01-31 9:58:14.3490,0.22,-0.099,-1.159,-0.28,-0.21,1.52,0.35,1.08,0.93
2022-01-31 9:58:14.3590,0.207,-0.091,-1.219,0.04,-0.12,1.77,0.77,0.93,0.73
2022-01-31 9:58:14.3700,0.185,-0.07,-1.264,0.26,-0.21,2.34,1.15,0.63,0.47
2022-01-31 9:58:14.3750,0.164,-0.066,-1.243,0.5,-0.54,2.89,1.55,0.38,0.25
2022-01-31 9:58:14.3900,0.169,-0.101,-1.143,0.77,-0.79,2.93,1.98,0.36,0.15
2022-01-31 9:58:14.4000,0.195,-0.158,-1.033,0.83,-0.73,2.13,2.42,0.54,0.13
2022-01-31 9:58:14.4100,0.195,-0.217,-0.988,0.64,-0.42,1.05,2.81,0.75,0.18
2022-01-31 9:58:14.4200,0.161,-0.255,-0.986,0.61,-0.11,0.49,3.07,0.8,0.18
2022-01-31 9:58:14.4300,0.133,-0.244,-0.981,0.95,0.07,0.53,3.13,0.46,0.06
2022-01-31 9:58:14.4400,0.132,-0.223,-0.991,1.32,-0.21,0.58,3.06,-0.39,-0.19
2022-01-31 9:58:14.4500,0.179,-0.192,-1.024,1.38,-0.71,0.68,2.97,-1.43,-0.55
2022-01-31 9:58:14.4600,0.315,-0.147,-1.002,0.98,-1.22,1.07,2.98,-2.3,-0.8
2022-01-31 9:58:14.4700,0.35,-0.091,-1.004,-0.36,-1.84,1.04,2.82,-3.49,-0.94
2022-01-31 9:58:14.4800,0.308,-0.188,-1.145,-1.37,-2.75,0.88,2.09,-5.24,-1.06
2022-01-31 9:58:14.4900,0.217,-0.351,-1.062,-1.47,-2.39,2.03,1.73,-6.06,-1.13
2022-01-31 9:58:14.5010,0.053,-0.359,-1.079,-1.2,-0.83,1.93,1.69,-6.74,-1.27
2022-01-31 9:58:14.5110,0.035,-0.411,-0.97,-0.2,-0.64,1.53,1.32,-6.33,-1.61
2022-01-31 9:58:14.5210,-0.002,-0.362,-0.434,-0.09,-0.32,1.27,0.87,-4.67,-2.31
2022-01-31 9:58:14.5310,-0.086,-0.206,-0.372,-0.39,-0.49,-3.39,0.43,-3.17,-2.46
2022-01-31 9:58:14.5410,-0.12,-0.277,-0.38,0.34,-2.1,-5.13,-0.07,-2.26,-2.12
2022-01-31 9:58:14.5510,-0.155,-0.36,-0.452,0.63,-2.01,-5.2,-0.54,-1.2,-1.93
2022-01-31 9:58:14.5610,-0.164,-0.38,-0.484,0.94,-0.91,-4.44,-0.92,-0.1,-1.92
2022-01-31 9:58:14.5710,-0.119,-0.47,-0.619,1.19,-0.65,-4.22,-1.19,0.53,-1.82
2022-01-31 9:58:14.5810,-0.047,-0.552,-0.783,1.01,0.15,-3.22,-1.4,0.76,-1.66
2022-01-31 9:58:14.5910,-0.001,-0.53,-0.84,0.44,1.22,-1.58,-1.48,0.93,-1.53
2022-01-31 9:58:14.6010,0.024,-0.429,-0.816,0.05,1.41,-0.79,-1.49,1.09,-1.43
2022-01-31 9:58:14.6110,0.054,-0.334,-0.809,-0.07,0.67,-0.96,-1.43,1.08,-1.31
2022-01-31 9:58:14.6230,0.1,-0.284,-0.87,-0.19,-0.2,-1.21,-1.34,0.84,-1.17
2022-01-31 9:58:14.6320,0.242,-0.299,-0.945,-0.46,-0.69,-0.79,-1.26,0.28,-0.87
2022-01-31 9:58:14.6420,0.408,-0.38,-1.065,-1.43,-0.63,-0.13,-1.11,-0.37,-0.51
2022-01-31 9:58:14.6520,0.344,-0.389,-1.029,-3.35,0.25,0.97,-0.97,-0.68,-0.22
2022-01-31 9:58:14.6620,0.221,-0.362,-1.045,-3.31,0.63,1.08,-0.78,-1.32,-0.02
2022-01-31 9:58:14.6720,0.138,-0.338,-1.156,-2.13,0.47,0.68,-0.4,-1.64,0.05
2022-01-31 9:58:14.6820,-0.049,-0.304,-1.141,-1.49,0.26,1.89,0.05,-1.78,-0.03
2022-01-31 9:58:14.6920,-0.169,-0.233,-1.123,-0.1,0.01,1.91,0.44,-2.1,-0.19
2022-01-31 9:58:14.7020,-0.12,-0.21,-1.046,1.32,-0.69,1.87,0.72,-2.31,-0.34
2022-01-31 9:58:14.7120,-0.054,-0.276,-1.031,0.95,-1.18,1.08,0.85,-2.49,-0.39
2022-01-31 9:58:14.7220,-0.033,-0.331,-0.922,-0.01,-0.78,1.02,0.86,-2.45,-0.4
2022-01-31 9:58:14.7320,-0.081,-0.341,-0.889,-0.52,-0.21,0.1,0.76,-2.16,-0.39
2022-01-31 9:58:14.7430,-0.136,-0.323,-0.88,-0.45,-0.09,-0.37,0.62,-1.77,-0.32
2022-01-31 9:58:14.7520,-0.134,-0.328,-0.886,0.07,-0.31,-0.44,0.47,-1.41,-0.28
2022-01-31 9:58:14.7630,-0.167,-0.354,-0.892,-0.03,-0.37,-0.38,0.31,-1.11,-0.31
2022-01-31 9:58:14.7740,-0.186,-0.404,-0.87,0.11,-0.22,-0.27,0.12,-0.79,-0.41
2022-01-31 9:58:14.7830,-0.177,-0.426,-0.852,0.32,0.25,-0.39,-0.1,-0.55,-0.51
2022-01-31 9:58:14.7930,-0.162,-0.434,-0.851,0.24,0.53,-0.63,-0.32,-0.36,-0.58
2022-01-31 9:58:14.8040,-0.127,-0.443,-0.857,0.09,0.65,-0.64,-0.51,-0.33,-0.63
2022-01-31 9:58:14.8130,-0.099,-0.44,-0.893,-0.19,0.75,-0.67,-0.61,-0.35,-0.63
2022-01-31 9:58:14.8230,-0.103,-0.397,-0.932,-0.56,0.86,-0.37,-0.57,-0.35,-0.6
2022-01-31 9:58:14.8340,-0.104,-0.38,-0.979,-0.57,0.52,-0.01,-0.42,-0.42,-0.56
2022-01-31 9:58:14.8440,-0.104,-0.365,-1.034,-0.57,0.3,0.41,-0.19,-0.53,-0.55
2022-01-31 9:58:14.8530,-0.078,-0.375,-1.049,-0.59,0.2,0.99,0.08,-0.57,-0.53
2022-01-31 9:58:14.8630,-0.045,-0.411,-1.044,-0.79,0.16,1.23,0.28,-0.6,-0.46
2022-01-31 9:58:14.8740,-0.04,-0.426,-1.008,-1.18,0.47,1.26,0.38,-0.6,-0.36
2022-01-31 9:58:14.8830,-0.089,-0.405,-0.972,-1.39,0.67,0.98,0.39,-0.54,-0.24
2022-01-31 9:58:14.8940,-0.087,-0.419,-0.924,-1.01,0.47,0.66,0.31,-0.43,-0.07
2022-01-31 9:58:14.9040,-0.028,-0.47,-0.873,-0.86,0.43,0.23,0.11,-0.31,0.11
2022-01-31 9:58:14.9140,-0.042,-0.468,-0.868,-1.45,0.91,-0.28,-0.08,-0.24,0.2
2022-01-31 9:58:14.9240,-0.13,-0.411,-0.9,-1.58,1.09,-0.48,-0.18,-0.15,0.2
2022-01-31 9:58:14.9340,-0.219,-0.392,-0.905,-0.86,0.6,-0.18,-0.19,-0.06,0.13
2022-01-31 9:58:14.9440,-0.291,-0.399,-0.918,0.06,0.3,-0.08,-0.18,-0.06,0.0
2022-01-31 9:58:14.9540,-0.309,-0.397,-0.94,0.79,0.37,0.0,-0.19,-0.16,-0.1
2022-01-31 9:58:14.9650,-0.282,-0.361,-0.945,1.15,0.39,0.2,-0.21,-0.23,-0.19
2022-01-31 9:58:14.9740,-0.316,-0.265,-0.936,0.87,0.19,0.32,-0.19,-0.08,-0.25
2022-01-31 9:58:14.9840,-0.302,-0.28,-0.94,1.09,-0.68,0.22,-0.13,0.25,-0.15
2022-01-31 9:58:14.9950,-0.281,-0.31,-0.951,1.11,-0.87,0.23,-0.09,0.41,0.02
2022-01-31 9:58:15.0040,-0.265,-0.27,-0.978,0.97,-0.45,0.28,-0.06,0.2,0.09
2022-01-31 9:58:15.0140,-0.245,-0.232,-0.959,0.73,-0.64,0.56,0.04,-0.22,0.14
2022-01-31 9:58:15.0240,-0.207,-0.296,-0.974,0.66,-1.23,0.47,0.21,-0.78,0.13
2022-01-31 9:58:15.0350,-0.253,-0.284,-0.98,0.09,-0.7,0.5,0.38,-1.12,0.04
2022-01-31 9:58:15.0450,-0.314,-0.267,-0.939,0.31,-0.66,0.72,0.52,-1.09,-0.02
2022-01-31 9:58:15.0550,-0.324,-0.249,-0.869,0.78,-0.89,0.43,0.58,-0.78,0.07
2022-01-31 9:58:15.0650,-0.257,-0.285,-0.791,1.09,-1.18,-0.12,0.46,-0.51,0.23
2022-01-31 9:58:15.0750,-0.302,-0.279,-0.753,0.31,-0.9,-0.92,0.16,-0.44,0.31
2022-01-31 9:58:15.0850,-0.351,-0.322,-0.736,0.49,-0.92,-1.36,-0.15,-0.39,0.24
2022-01-31 9:58:15.0960,-0.354,-0.341,-0.711,0.98,-0.59,-1.55,-0.42,-0.24,0.15
2022-01-31 9:58:15.1050,-0.307,-0.35,-0.689,1.12,-0.28,-1.76,-0.66,-0.04,0.11
2022-01-31 9:58:15.1150,-0.258,-0.334,-0.685,0.74,-0.11,-2.04,-0.88,0.13,0.09
2022-01-31 9:58:15.1260,-0.241,-0.304,-0.692,0.23,-0.13,-2.14,-1.04,0.21,0.04
2022-01-31 9:58:15.1350,-0.246,-0.267,-0.741,-0.01,-0.31,-2.16,-1.07,0.19,-0.01
2022-01-31 9:58:15.1450,-0.227,-0.262,-0.79,0.06,-0.58,-1.83,-0.99,0.05,-0.03
2022-01-31 9:58:15.1560,-0.238,-0.258,-0.83,-0.09,-0.62,-1.32,-0.86,-0.28,-0.08
2022-01-31 9:58:15.1660,-0.238,-0.248,-0.848,-0.09,-0.55,-0.97,-0.7,-0.63,-0.08
2022-01-31 9:58:15.1760,-0.198,-0.23,-0.83,-0.05,-0.58,-0.68,-0.5,-0.96,0.02
2022-01-31 9:58:15.1860,-0.126,-0.246,-0.829,-0.45,-0.7,-0.82,-0.24,-1.45,0.28
2022-01-31 9:58:15.1970,-0.052,-0.287,-0.832,-1.21,-0.65,-0.87,0.05,-2.08,0.7
2022-01-31 9:58:15.2060,-0.076,-0.228,-0.794,-2.18,-0.19,-0.72,0.35,-2.79,1.31
2022-01-31 9:58:15.2160,-0.134,-0.109,-0.798,-2.57,-0.43,-0.96,0.79,-3.27,2.38
2022-01-31 9:58:15.2260,-0.191,0.13,-0.801,-2.22,-1.64,-0.93,1.15,-3.35,2.84
2022-01-31 9:58:15.2360,-0.44,0.769,-0.789,-2.31,-3.06,-0.68,1.39,-3.2,2.47
2022-01-31 9:58:15.2460,-0.473,0.691,-0.691,-0.48,-9.23,-0.55,1.71,-2.87,2.57
2022-01-31 9:58:15.2570,-0.334,0.359,-0.689,0.39,-10.63,-1.19,1.82,-2.78,2.96
2022-01-31 9:58:15.2660,-0.43,0.346,-0.636,-1.37,-7.0,-1.32,1.56,-2.86,3.06
2022-01-31 9:58:15.2760,-0.514,0.331,-0.472,-1.31,-6.23,-1.3,0.97,-2.89,2.94
2022-01-31 9:58:15.2870,-0.534,0.24,-0.324,-0.5,-6.28,-2.58,0.17,-2.7,2.83
2022-01-31 9:58:15.2970,-0.598,0.222,-0.27,-0.58,-5.27,-4.0,-0.72,-2.28,2.73
2022-01-31 9:58:15.3070,-0.686,0.279,-0.329,-0.32,-4.65,-4.68,-1.49,-1.69,2.6
2022-01-31 9:58:15.3180,-0.745,0.34,-0.455,0.33,-4.83,-4.29,-2.07,-1.03,2.5
2022-01-31 9:58:15.3270,-0.679,0.313,-0.596,0.88,-5.16,-3.11,-2.49,-0.53,2.57
2022-01-31 9:58:15.3370,-0.567,0.277,-0.68,0.57,-4.85,-1.77,-2.82,-0.22,2.71
2022-01-31 9:58:15.3470,-0.54,0.225,-0.749,-0.75,-3.97,-0.7,-3.09,-0.46,2.89
2022-01-31 9:58:15.3580,-0.408,0.059,-1.152,-1.16,-3.26,-0.29,-2.66,-0.71,3.17
2022-01-31 9:58:15.3670,-0.423,0.028,-1.288,-2.07,-1.53,2.64,-2.26,-0.74,3.1
2022-01-31 9:58:15.3770,-0.748,0.256,-1.042,-3.14,0.08,6.08,-1.9,-0.98,2.86
2022-01-31 9:58:15.3870,-0.79,0.256,-1.17,0.05,-1.83,3.15,-1.62,-1.36,2.62
2022-01-31 9:58:15.3970,-0.809,0.208,-1.085,0.97,-2.04,4.24,-1.47,-1.58,2.4
2022-01-31 9:58:15.4070,-0.801,0.152,-1.014,0.97,-1.29,4.01,-1.4,-1.64,2.26
2022-01-31 9:58:15.4180,-0.747,0.114,-0.977,0.95,-0.51,3.25,-1.38,-1.56,2.22
2022-01-31 9:58:15.4280,-0.706,0.113,-0.953,0.41,0.2,3.0,-1.4,-1.4,2.24
2022-01-31 9:58:15.4380,-0.706,0.128,-0.954,-0.14,0.54,2.83,-1.42,-1.2,2.26
2022-01-31 9:58:15.4480,-0.736,0.147,-0.967,-0.27,0.67,2.9,-1.42,-1.0,2.28
2022-01-31 9:58:15.4580,-0.779,0.167,-0.975,-0.06,0.75,3.12,-1.39,-0.77,2.3
2022-01-31 9:58:15.4680,-0.812,0.164,-0.986,0.36,0.79,3.31,-1.35,-0.55,2.28
2022-01-31 9:58:15.4780,-0.854,0.146,-0.988,0.72,1.0,3.48,-1.29,-0.37,2.18
2022-01-31 9:58:15.4880,-0.887,0.132,-0.985,1.15,1.41,3.59,-1.22,-0.25,2.03
2022-01-31 9:58:15.4980,-0.918,0.123,-0.993,1.55,1.78,3.62,-1.16,-0.22,1.84
2022-01-31 9:58:15.5090,-0.958,0.121,-1.003,1.89,2.09,3.72,-1.11,-0.22,1.58
2022-01-31 9:58:15.5180,-1.006,0.136,-0.996,2.31,2.31,3.89,-1.1,-0.13,1.25
2022-01-31 9:58:15.5290,-1.04,0.179,-0.97,2.8,2.38,3.91,-1.15,0.12,0.92
2022-01-31 9:58:15.5380,-1.016,0.212,-0.908,3.25,2.15,3.76,-1.27,0.62,0.67
2022-01-31 9:58:15.5500,-0.933,0.218,-0.822,3.24,1.87,3.25,-1.45,1.28,0.53
2022-01-31 9:58:15.5590,-0.82,0.22,-0.768,2.64,1.9,2.39,-1.62,1.95,0.5
2022-01-31 9:58:15.5690,-0.713,0.202,-0.739,1.7,1.99,1.7,-1.71,2.46,0.54
2022-01-31 9:58:15.5790,-0.648,0.17,-0.748,0.78,2.25,1.28,-1.72,2.67,0.57
2022-01-31 9:58:15.5890,-0.64,0.138,-0.776,0.2,2.68,1.18,-1.64,2.56,0.54
2022-01-31 9:58:15.5990,-0.67,0.127,-0.785,0.16,3.15,1.36,-1.5,2.26,0.41
2022-01-31 9:58:15.6040,-0.704,0.13,-0.781,0.57,3.44,1.44,-1.32,1.79,0.19
Time,-0.733,0.127,-0.775,1.4,3.61,1.3,-1.03,0.59,-0.34
Time,-0.76,0.136,-0.757,1.4,3.61,1.3,-1.03,0.59,-0.34
Time,-0.772,0.159,-0.732,1.4,3.61,1.3,-1.03,0.59,-0.34
Time,-0.775,0.185,-0.699,1.4,3.61,1.3,-1.03,0.59,-0.34
Time,-0.78,0.221,-0.689,1.4,3.61,1.3,-1.03,0.59,-0.34
Time,-0.771,0.261,-0.694,1.4,3.61,1.3,-1.03,0.59,-0.34
2022-01-31 9:58:15.6790,-0.76,0.293,-0.725,1.4,3.61,1.3,-1.37,0.34,-0.64
2022-01-31 9:58:15.6800,-0.767,0.349,-0.795,1.4,3.61,1.3,-1.38,0.75,-0.52
2022-01-31 9:58:15.7020,-0.796,0.42,-0.903,1.71,3.61,1.17,-1.28,1.13,-0.43
2022-01-31 9:58:15.7120,-0.825,0.48,-1.015,1.86,2.93,0.61,-1.04,1.35,-0.41
2022-01-31 9:58:15.7230,-0.842,0.522,-1.104,2.31,0.64,3.68,-0.71,1.42,-0.45
2022-01-31 9:58:15.7300,-0.839,0.552,-1.148,2.56,0.21,4.58,-0.34,1.39,-0.44
2022-01-31 9:58:15.7400,-0.803,0.566,-1.128,2.67,-0.12,5.09,-0.01,1.29,-0.39
2022-01-31 9:58:15.7510,-0.747,0.566,-1.058,2.45,-0.32,4.97,0.22,1.14,-0.31
2022-01-31 9:58:15.7600,-0.679,0.558,-0.973,1.99,-0.37,4.31,0.38,1.02,-0.16
2022-01-31 9:58:15.7700,-0.604,0.547,-0.886,1.4,-0.34,3.41,0.47,0.94,0.06
2022-01-31 9:58:15.7800,-0.544,0.529,-0.813,0.74,-0.28,2.49,0.52,0.87,0.29
2022-01-31 9:58:15.7910,-0.505,0.525,-0.783,0.17,-0.12,1.63,0.57,0.76,0.52
2022-01-31 9:58:15.8170,-0.488,0.521,-0.793,0.17,-0.12,1.63,0.68,0.56,0.72
2022-01-31 9:58:15.8170,-0.496,0.515,-0.811,0.17,-0.12,1.63,0.85,0.3,0.87
2022-01-31 9:58:15.8180,-0.511,0.508,-0.788,0.17,-0.12,1.63,1.02,0.12,0.98
2022-01-31 9:58:15.8360,-0.504,0.501,-0.746,0.17,-0.12,1.63,1.14,-0.01,1.04
2022-01-31 9:58:15.8360,-0.497,0.467,-0.705,0.17,-0.12,1.63,1.17,-0.24,1.06
2022-01-31 9:58:15.8460,-0.547,0.404,-0.603,0.17,-0.12,1.63,1.1,-0.38,1.0
2022-01-31 9:58:15.8560,-0.579,0.37,-0.491,0.17,-0.12,1.63,0.97,-0.3,0.93
2022-01-31 9:58:15.8690,-0.609,0.36,-0.468,0.17,-0.12,1.63,0.79,-0.21,0.84
2022-01-31 9:58:15.8760,-0.649,0.345,-0.489,0.17,-0.12,1.63,0.65,-0.15,0.71
2022-01-31 9:58:15.8860,-0.663,0.328,-0.564,0.17,-0.12,1.63,0.63,-0.2,0.55
2022-01-31 9:58:15.8960,-0.656,0.331,-0.68,0.17,-0.12,1.63,0.71,-0.4,0.41
2022-01-31 9:58:15.9060,-0.6,0.369,-0.763,0.17,-0.12,1.63,0.86,-0.72,0.3
2022-01-31 9:58:15.9160,-0.521,0.385,-0.798,0.17,-0.12,1.63,1.05,-1.05,0.27
2022-01-31 9:58:15.9260,-0.504,0.376,-0.836,0.17,-0.12,1.63,1.24,-1.41,0.26
2022-01-31 9:58:15.9360,-0.535,0.38,-0.872,0.17,-0.12,1.63,1.41,-1.72,0.22
2022-01-31 9:58:16.4330,-0.569,0.392,-0.878,0.17,-0.12,1.63,-1.59,-0.74,0.14
Time,-0.61,0.404,-0.865,0.17,-0.12,1.63,-1.59,-0.74,0.14
Time,-0.669,0.401,-0.82,0.17,-0.12,1.63,-1.59,-0.74,0.14
Time,-0.754,0.389,-0.804,0.17,-0.12,1.63,-1.59,-0.74,0.14
Time,-0.778,0.419,-0.767,0.17,-0.12,1.63,-1.59,-0.74,0.14
Time,-0.76,0.418,-0.654,0.17,-0.12,1.63,-1.59,-0.74,0.14
Time,-0.72,0.412,-0.635,0.17,-0.12,1.63,-1.59,-0.74,0.14
Time,-0.609,0.408,-0.669,0.17,-0.12,1.63,-1.59,-0.74,0.14
Time,-0.457,0.402,-0.732,0.17,-0.12,1.63,-1.59,-0.74,0.14
Time,-0.356,0.386,-0.817,0.17,-0.12,1.63,-1.59,-0.74,0.14
Time,-0.313,0.381,-0.933,0.17,-0.12,1.63,-1.59,-0.74,0.14
Time,-0.341,0.375,-0.992,0.17,-0.12,1.63,-1.59,-0.74,0.14
Time,-0.473,0.377,-1.0,0.17,-0.12,1.63,-1.59,-0.74,0.14
Time,-0.557,0.385,-0.944,0.17,-0.12,1.63,-1.59,-0.74,0.14
Time,-0.612,0.368,-0.828,0.17,-0.12,1.63,-1.59,-0.74,0.14
Time,-0.622,0.339,-0.688,0.17,-0.12,1.63,-1.59,-0.74,0.14
Time,-0.596,0.312,-0.574,0.17,-0.12,1.63,-1.59,-0.74,0.14
Time,-0.594,0.382,-0.427,0.17,-0.12,1.63,-1.59,-0.74,0.14
Time,-0.483,0.614,-0.103,0.17,-0.12,1.63,-1.59,-0.74,0.14
Time,-0.561,0.276,-0.188,0.17,-0.12,1.63,-1.59,-0.74,0.14
Time,-0.737,0.279,-0.437,0.17,-0.12,1.63,-1.59,-0.74,0.14
Time,-0.762,0.388,-0.56,0.17,-0.12,1.63,-1.59,-0.74,0.14
Time,-0.712,0.425,-0.504,0.17,-0.12,1.63,-1.59,-0.74,0.14
Time,-0.584,0.423,-0.476,0.17,-0.12,1.63,-1.59,-0.74,0.14
Time,-0.419,0.39,-0.497,0.17,-0.12,1.63,-1.59,-0.74,0.14
Time,-0.3,0.384,-0.536,0.17,-0.12,1.63,-1.59,-0.74,0.14
Time,-0.331,0.459,-0.659,0.17,-0.12,1.63,-1.59,-0.74,0.14
Time,-0.482,0.568,-0.901,0.17,-0.12,1.63,-1.59,-0.74,0.14
Time,-0.616,0.603,-1.002,0.17,-0.12,1.63,-1.59,-0.74,0.14
Time,-0.817,0.571,-0.897,0.17,-0.12,1.63,-1.59,-0.74,0.14
Time,-0.874,0.438,-0.74,0.17,-0.12,1.63,-1.59,-0.74,0.14
Time,-0.802,0.371,-0.55,0.17,-0.12,1.63,-1.59,-0.74,0.14
Time,-0.714,0.337,-0.371,0.17,-0.12,1.63,-1.59,-0.74,0.14
Time,-0.693,0.268,-0.286,0.17,-0.12,1.63,-1.59,-0.74,0.14
Time,-0.788,0.208,-0.264,0.17,-0.12,1.63,-1.59,-0.74,0.14
Time,-0.878,0.121,-0.19,0.17,-0.12,1.63,-1.59,-0.74,0.14
Time,-0.926,0.056,-0.176,0.17,-0.12,1.63,-1.59,-0.74,0.14
Time,-0.947,0.033,-0.201,0.17,-0.12,1.63,-1.59,-0.74,0.14
Time,-0.923,0.054,-0.292,0.17,-0.12,1.63,-1.59,-0.74,0.14
Time,-0.85,0.067,-0.501,0.17,-0.12,1.63,-1.59,-0.74,0.14
Time,-0.884,0.105,-0.591,0.17,-0.12,1.63,-1.59,-0.74,0.14
2022-01-31 9:58:16.4340,-1.029,0.144,-0.653,0.17,-0.12,1.63,-1.59,-0.74,0.14
2022-01-31 9:58:16.4340,-1.205,0.186,-0.612,0.17,-0.12,1.63,-1.59,-0.74,0.14
2022-01-31 9:58:16.4340,-1.127,0.231,-0.722,0.17,-0.12,1.63,-1.19,-1.37,0.09
2022-01-31 9:58:16.4340,-1.005,0.214,-0.76,0.17,-0.12,1.63,-0.56,-1.78,0.17
2022-01-31 9:58:16.4350,-0.872,0.224,-0.51,0.17,-0.12,1.63,-0.18,-2.18,0.21
2022-01-31 9:58:16.4340,-0.826,0.361,-0.335,0.17,-0.12,1.63,-0.12,-2.43,0.23
2022-01-31 9:58:16.4380,-0.775,0.466,-0.198,0.17,-0.12,1.63,-0.23,-2.25,0.35
2022-01-31 9:58:16.4400,-0.71,0.455,-0.06,0.17,-0.12,1.63,-0.44,-1.77,0.53
2022-01-31 9:58:16.4440,-0.686,0.397,0.041,0.17,-0.12,1.63,-0.77,-1.37,0.71
2022-01-31 9:58:16.4500,-0.664,0.366,0.046,0.17,-0.12,1.63,-1.11,-1.25,0.79
2022-01-31 9:58:16.4610,-0.76,0.411,-0.031,0.17,-0.12,1.63,-1.44,-1.26,0.84
2022-01-31 9:58:16.4700,-0.753,0.448,-0.118,0.17,-0.12,1.63,-1.72,-1.25,0.95
2022-01-31 9:58:16.4810,-0.685,0.505,-0.185,0.17,-0.12,1.63,-1.74,-1.22,1.17
2022-01-31 9:58:16.4910,-0.493,0.502,-0.235,0.17,-0.12,1.63,-1.51,-1.14,1.54
2022-01-31 9:58:16.5010,-0.371,0.462,-0.239,0.17,-0.12,1.63,-1.19,-0.91,2.05
2022-01-31 9:58:16.5200,-0.437,0.524,-0.305,-0.19,-0.05,1.15,-0.91,-0.94,2.45
2022-01-31 9:58:16.5300,-0.673,0.632,-0.437,-0.19,-0.05,1.15,-0.69,-1.39,2.58
2022-01-31 9:58:16.5400,-0.892,0.65,-0.555,-0.19,-0.05,1.15,-0.47,-2.09,2.43
2022-01-31 9:58:16.5500,-1.054,0.673,-0.549,-0.19,-0.05,1.15,-0.17,-2.24,2.1
2022-01-31 9:58:16.5610,-1.039,0.616,-0.282,-0.19,-0.05,1.15,-0.12,-1.85,1.89
2022-01-31 9:58:16.5710,-1.08,0.52,-0.062,0.76,1.28,-1.92,-0.37,-1.39,1.77
2022-01-31 9:58:16.5810,-1.236,0.551,-0.064,-0.78,-0.61,0.68,-0.62,-1.05,1.55
2022-01-31 9:58:16.5910,-1.175,0.65,-0.092,0.63,2.95,1.26,-0.69,-0.97,1.52
Time,-0.928,0.798,-0.074,4.69,0.41,0.02,-0.72,-1.29,1.64
2022-01-31 9:58:16.6060,-0.764,0.939,-0.114,2.5,-0.79,0.02,-0.62,-1.72,1.79
2022-01-31 9:58:16.6170,-0.653,0.966,-0.077,0.72,-2.17,0.48,-0.39,-2.03,1.98
2022-01-31 9:58:16.6270,-0.579,0.936,-0.002,-0.29,-2.6,0.49,-0.23,-2.09,2.1
2022-01-31 9:58:16.6370,-0.59,0.896,0.007,-1.04,-2.2,-0.02,-0.14,-2.07,2.24
2022-01-31 9:58:16.6470,-0.638,0.843,-0.007,-0.92,-1.71,-0.22,-0.15,-1.63,2.26
2022-01-31 9:58:16.6570,-0.796,0.76,0.116,-0.47,-1.02,0.17,-0.33,-0.77,2.11
2022-01-31 9:58:16.6670,-0.794,0.59,0.095,1.14,-0.29,-0.7,-0.33,0.17,1.99
2022-01-31 9:58:16.6770,-0.691,0.562,0.023,1.78,1.48,-1.04,-0.17,0.9,1.85
2022-01-31 9:58:16.6820,-0.494,0.605,0.044,1.78,1.48,-1.04,-0.08,1.16,1.77
2022-01-31 9:58:16.6820,-0.312,0.672,0.065,1.06,2.29,-0.19,0.02,1.03,1.67
2022-01-31 9:58:16.7080,-0.241,0.731,0.063,-0.5,2.02,-0.3,0.2,0.7,1.59
2022-01-31 9:58:16.7120,-0.234,0.754,0.03,-0.5,2.02,-0.3,0.42,0.35,1.37
2022-01-31 9:58:16.7250,-0.356,0.743,-0.001,-2.37,1.54,-0.62,0.6,0.1,1.08
2022-01-31 9:58:16.7330,-0.459,0.727,0.016,-3.12,0.97,-0.72,0.67,-0.06,0.79
2022-01-31 9:58:16.7450,-0.514,0.79,-0.012,-3.12,0.97,-0.72,0.7,-0.26,0.49
2022-01-31 9:58:16.7530,-0.563,0.858,-0.059,-3.36,0.74,-0.53,0.61,-0.28,0.26
2022-01-31 9:58:16.7650,-0.662,0.918,-0.078,-3.36,0.74,-0.53,0.41,-0.04,0.14
Time,-0.743,0.97,-0.068,-2.25,0.83,-0.2,0.27,0.3,0.23
2022-01-31 9:58:16.7830,-0.751,0.993,-0.083,-2.25,0.83,-0.2,0.11,0.63,0.31
2022-01-31 9:58:16.7970,-0.837,0.965,-0.062,-1.07,1.09,-0.34,-0.08,1.15,0.36
2022-01-31 9:58:16.8030,-0.957,0.934,0.01,-0.35,0.68,-0.32,-0.11,1.58,0.29
2022-01-31 9:58:16.8180,-0.89,0.976,-0.089,-0.35,0.68,-0.32,-0.09,1.28,0.07
2022-01-31 9:58:16.8230,-0.839,0.978,-0.156,0.04,0.0,0.21,-0.16,0.26,-0.42
2022-01-31 9:58:16.8360,-0.852,0.985,-0.184,0.04,0.0,0.21,-0.44,-0.56,-0.97
Time,-0.857,0.985,-0.131,0.97,-0.63,0.36,-0.86,-0.85,-1.56
2022-01-31 9:58:16.8550,-0.769,1.041,-0.14,0.97,-0.63,0.36,-1.11,-0.7,-2.0
2022-01-31 9:58:16.8640,-0.571,1.084,-0.163,1.94,-1.14,0.31,-1.15,-0.12,-2.27
2022-01-31 9:58:16.8770,-0.397,1.118,-0.231,1.94,-1.14,0.31,-0.9,0.74,-2.45
2022-01-31 9:58:16.8840,-0.171,0.986,-0.146,2.05,-1.37,0.35,-0.76,1.06,-2.51
2022-01-31 9:58:16.8970,-0.147,0.738,0.106,2.05,-1.37,0.35,-0.53,0.93,-2.71
2022-01-31 9:58:16.9040,-0.387,0.605,0.061,2.77,-1.44,0.3,-0.3,0.29,-3.26
2022-01-31 9:58:16.9150,-0.496,0.551,0.098,2.77,-1.44,0.3,-0.13,-0.67,-3.82
2022-01-31 9:58:16.9280,-0.532,0.571,0.09,3.96,-0.62,-0.67,-0.02,-1.61,-4.43
2022-01-31 9:58:16.9340,-0.617,0.581,0.023,3.92,-1.31,0.02,0.02,-2.48,-5.06
Time,-0.682,0.617,-0.067,3.92,-1.31,0.02,0.17,-3.06,-5.57
2022-01-31 9:58:16.9540,-0.623,0.715,-0.162,3.05,-1.2,0.74,0.43,-3.5,-5.67
2022-01-31 9:58:16.9680,-0.349,0.671,-0.194,3.05,-1.2,0.74,0.75,-3.7,-5.06
2022-01-31 9:58:16.9750,-0.187,0.544,-0.143,3.1,-1.43,1.27,0.96,-3.46,-4.05
2022-01-31 9:58:16.9860,-0.377,0.383,0.029,3.1,-1.43,1.27,1.0,-2.51,-3.13
Time,-0.725,0.139,0.225,3.02,-1.41,0.94,0.76,-1.13,-2.45
2022-01-31 9:58:17.0060,-1.122,-0.051,0.451,3.02,-1.41,0.94,0.33,-0.07,-2.14
2022-01-31 9:58:17.0150,-1.564,-0.034,0.39,2.41,-1.95,0.97,-0.11,0.32,-2.35
2022-01-31 9:58:17.0270,-1.549,0.108,0.149,2.41,-1.95,0.97,-0.48,0.01,-2.72
2022-01-31 9:58:17.0400,-1.332,0.281,0.062,0.37,-2.59,1.31,-0.73,-0.83,-2.96
2022-01-31 9:58:17.0450,-1.164,0.552,-0.04,-1.61,-3.11,1.82,-0.77,-1.64,-3.07
2022-01-31 9:58:17.0600,-1.224,0.692,-0.061,-1.61,-3.11,1.82,-0.64,-1.84,-3.59
2022-01-31 9:58:17.0680,-1.069,0.558,-0.058,-3.9,-2.53,1.93,-0.36,-1.56,-3.74
Time,-0.59,0.404,-0.082,-5.14,-0.31,-0.99,-0.11,-0.77,-3.09
2022-01-31 9:58:17.0870,-0.381,0.22,0.093,-5.14,-0.31,-0.99,-0.15,-0.05,-1.86
Time,-0.334,0.035,0.367,-3.35,1.17,-0.91,-0.19,0.39,-0.81
2022-01-31 9:58:17.1070,-0.677,-0.05,0.212,-3.35,1.17,-0.91,-0.09,0.34,-0.14
Time,-0.956,-0.092,0.118,-2.04,1.56,-1.0,0.08,0.09,0.25
2022-01-31 9:58:17.1270,-1.221,-0.039,0.11,-2.04,1.56,-1.0,0.21,-0.1,0.29
2022-01-31 9:58:17.1390,-1.474,0.023,0.212,-2.07,1.21,-1.02,0.22,-0.16,0.1
2022-01-31 9:58:17.1460,-1.307,0.096,0.307,-1.6,0.69,-0.3,0.18,-0.11,0.14
2022-01-31 9:58:17.1600,-0.933,0.201,0.32,-1.6,0.69,-0.3,0.13,0.04,0.43
2022-01-31 9:58:17.1660,-0.731,0.255,0.289,-1.22,0.07,0.78,0.22,0.05,0.89
2022-01-31 9:58:17.1780,-0.621,0.278,0.213,-1.22,0.07,0.78,0.53,-0.36,1.51
2022-01-31 9:58:17.1900,-0.614,0.317,0.118,-1.62,-1.3,1.94,0.81,-0.92,2.11
Time,-0.722,0.311,0.166,-4.17,-1.77,2.79,0.95,-0.8,2.4
2022-01-31 9:58:17.2060,-0.964,0.379,0.233,-4.17,-1.77,2.79,0.93,-0.21,2.53
2022-01-31 9:58:17.2200,-1.104,0.46,0.235,-6.6,-0.92,2.73,0.82,0.41,2.74
2022-01-31 9:58:17.2270,-1.089,0.53,0.187,-6.6,-0.92,2.73,0.85,1.33,3.08
2022-01-31 9:58:17.2380,-1.063,0.567,0.171,-5.71,0.26,1.45,0.82,2.14,3.44
2022-01-31 9:58:17.2510,-1.144,0.54,0.188,-5.71,0.26,1.45,0.66,3.06,3.69
2022-01-31 9:58:17.2570,-1.241,0.593,0.219,-2.39,2.22,-0.13,0.46,3.86,3.89
2022-01-31 9:58:17.2690,-1.129,0.642,0.137,-2.39,2.22,-0.13,0.34,4.37,4.11
2022-01-31 9:58:17.2770,-0.887,0.748,0.017,1.01,4.34,-2.82,0.39,4.39,4.5
2022-01-31 9:58:17.2890,-0.571,0.868,0.007,1.01,4.34,-2.82,0.51,4.08,5.2
2022-01-31 9:58:17.3000,-0.204,0.926,0.037,5.64,4.37,-2.85,0.4,3.46,6.17
2022-01-31 9:58:17.3070,0.009,0.91,0.049,6.59,3.0,-0.68,-0.1,2.87,6.91
2022-01-31 9:58:17.3210,-0.228,1.013,-0.002,6.59,3.0,-0.68,-0.27,2.61,7.01
2022-01-31 9:58:17.3330,-0.633,0.997,-0.268,4.46,1.04,0.76,-0.17,2.17,6.34
2022-01-31 9:58:17.3380,-1.171,0.777,-0.368,4.46,1.04,0.76,-0.02,1.9,4.92
2022-01-31 9:58:17.3520,-1.429,0.439,-0.277,2.51,-1.67,1.8,0.18,2.03,3.54
2022-01-31 9:58:17.3570,-1.292,0.283,-0.201,2.43,-3.98,2.36,0.37,1.89,2.44
2022-01-31 9:58:17.3700,-0.988,0.219,-0.215,2.43,-3.98,2.36,0.37,1.76,1.66
2022-01-31 9:58:17.3780,-0.756,0.125,-0.002,2.3,-3.63,2.53,0.09,1.52,1.04
2022-01-31 9:58:17.3900,-0.744,0.289,0.002,2.3,-3.63,2.53,-0.04,1.48,0.64
2022-01-31 9:58:17.3980,-0.565,0.351,-0.089,-2.82,-2.22,2.85,-0.28,1.68,0.48
2022-01-31 9:58:17.4100,-0.469,0.397,-0.071,-2.82,-2.22,2.85,-0.57,2.04,0.53
2022-01-31 9:58:17.4180,-0.387,0.521,-0.071,-5.15,-0.84,1.95,-0.85,2.32,0.74
2022-01-31 9:58:17.4310,-0.354,0.583,-0.101,-5.15,-0.84,1.95,-0.99,2.42,0.99
2022-01-31 9:58:17.4380,-0.372,0.705,-0.126,-6.47,1.08,-1.32,-1.01,2.25,1.27
Time,-0.446,0.853,-0.122,-6.47,1.08,-1.32,-1.05,2.06,1.45
2022-01-31 9:58:17.4580,-0.469,0.892,-0.215,-3.75,2.05,-0.56,-1.13,1.64,1.6
2022-01-31 9:58:17.4680,-0.453,0.842,-0.299,-3.75,2.05,-0.56,-1.29,1.42,1.7
2022-01-31 9:58:17.4810,-0.504,0.864,-0.253,-0.62,2.66,0.74,-1.45,1.48,1.66
2022-01-31 9:58:17.4880,-0.545,0.934,-0.2,-0.62,2.66,0.74,-1.56,1.54,1.51
2022-01-31 9:58:17.5010,-0.49,0.863,-0.217,1.77,2.36,0.97,-1.58,1.62,1.3
Time,-0.484,0.919,-0.21,1.77,2.36,0.97,-1.4,1.63,1.07
2022-01-31 9:58:17.5190,-0.436,0.949,-0.154,4.67,1.72,0.26,-1.22,1.31,0.91
2022-01-31 9:58:17.5320,-0.348,0.832,-0.079,4.67,1.72,0.26,-1.13,1.02,0.8
2022-01-31 9:58:17.5380,-0.325,0.723,-0.071,4.22,1.1,-0.84,-1.03,0.96,0.67
2022-01-31 9:58:17.5500,-0.234,0.558,-0.053,4.22,1.1,-0.84,-1.18,1.02,0.67
2022-01-31 9:58:17.5640,-0.227,0.558,0.06,0.54,0.16,-1.15,-1.47,1.21,0.26
2022-01-31 9:58:17.5690,-0.281,0.662,-0.11,-1.87,-0.52,-0.94,-1.69,1.34,-0.18
2022-01-31 9:58:17.5830,-0.123,0.687,-0.119,-1.87,-0.52,-0.94,-2.01,1.3,-0.37
Time,-0.061,0.945,-0.034,-3.09,-0.51,-0.3,-2.21,1.07,-0.37
2022-01-31 9:58:17.6000,-0.043,1.188,-0.132,-3.09,-0.51,-0.3,-2.03,0.39,-0.17
Time,-0.034,1.297,-0.189,-3.35,-0.77,0.77,-1.64,-0.35,0.07
2022-01-31 9:58:17.6200,-0.189,1.343,-0.244,-3.35,-0.77,0.77,-1.19,-1.07,0.22
2022-01-31 9:58:17.6320,-0.311,1.345,-0.225,-2.57,-0.5,0.76,-0.86,-1.51,0.27
2022-01-31 9:58:17.6450,-0.356,1.388,-0.15,-0.27,-0.63,-0.05,-0.57,-1.75,0.27
2022-01-31 9:58:17.6500,-0.369,1.369,-0.121,1.56,-1.34,-0.28,-0.36,-1.88,0.39
2022-01-31 9:58:17.6630,-0.339,1.397,-0.074,1.56,-1.34,-0.28,-0.18,-1.85,0.45
Time,-0.401,1.435,0.005,1.81,-1.6,0.01,-0.03,-1.58,0.41
2022-01-31 9:58:17.6810,-0.454,1.421,0.113,1.81,-1.6,0.01,0.0,-1.16,0.28
2022-01-31 9:58:17.6930,-0.515,1.364,0.222,1.46,-1.93,0.02,-0.09,-0.62,0.05
2022-01-31 9:58:17.7000,-0.551,1.34,0.274,2.15,-1.25,-0.29,-0.28,-0.15,-0.26
2022-01-31 9:58:17.7120,-0.583,1.321,0.258,2.15,-1.25,-0.29,-0.51,0.3,-0.62
2022-01-31 9:59:27.6290,-0.604,1.296,0.272,-2.5,-1.91,0.55,-0.74,0.76,-0.98
2022-01-31 9:59:27.6300,-0.637,1.283,0.255,-2.5,-1.91,0.55,-0.89,1.08,-1.3
2022-01-31 9:59:27.6300,-0.664,1.281,0.15,-2.5,-1.91,0.55,-0.89,1.08,-1.3
2022-01-31 9:59:27.6300,-0.699,1.312,0.045,-2.83,-3.19,1.61,-0.84,1.19,-2.11
2022-01-31 9:59:27.6500,-0.688,1.317,0.006,-1.24,9.7,0.81,-0.68,1.15,-2.5
2022-01-31 9:59:27.6300,-0.489,1.107,-0.02,-1.2,9.89,2.64,-0.55,0.75,-2.22
2022-01-31 9:59:27.6120,0.145,-0.018,-0.345,-1.2,9.89,2.64,-0.44,-0.18,-0.74
2022-01-31 9:59:27.6300,0.296,-0.141,-0.41,-1.16,9.61,2.45,-0.31,-0.61,0.46
2022-01-31 9:59:27.6310,0.079,0.205,-0.31,-1.16,9.61,2.45,-0.21,-1.03,1.32
2022-01-31 9:59:27.6300,-0.093,0.375,-0.294,1.35,-0.81,1.08,-0.06,-1.36,1.95
2022-01-31 9:59:27.6300,-0.18,0.543,-0.243,1.35,-0.81,1.08,-0.06,-1.36,1.95
2022-01-31 9:59:27.6520,-0.24,0.674,-0.178,1.35,-0.81,1.08,0.21,-2.06,2.66
2022-01-31 9:59:27.6530,-0.285,0.743,-0.127,-1.01,-1.26,-1.69,0.35,-2.3,2.74
Time,-0.341,0.77,-0.032,-1.01,-1.26,-1.69,0.37,-2.2,2.41
2022-01-31 9:59:27.6540,-0.308,0.792,0.049,-1.01,-1.26,-1.69,0.31,-2.27,2.14
2022-01-31 9:59:27.6540,-0.177,0.894,0.095,-1.01,-1.26,-1.69,0.31,-2.27,2.14
2022-01-31 9:59:27.6610,-0.03,0.971,0.161,0.52,-1.45,-1.8,0.1,-2.55,2.08
2022-01-31 9:59:27.6710,0.019,1.004,0.217,0.52,-1.45,-1.8,0.01,-2.58,2.13
2022-01-31 9:59:27.6630,0.03,0.986,0.231,0.52,-1.45,-1.8,0.05,-2.56,2.2
2022-01-31 9:59:27.6720,0.09,1.209,0.401,1.02,-1.06,-1.87,0.32,-1.3,1.24
2022-01-31 9:59:27.6700,0.211,1.71,0.619,1.02,-1.06,-1.87,0.5,-0.67,0.01
2022-01-31 9:59:27.6700,0.136,1.505,0.526,1.02,-1.06,-1.87,0.47,-0.34,-0.64
2022-01-31 9:59:27.6710,0.04,1.371,0.288,1.02,-1.06,-1.87,0.23,-0.28,-0.74
2022-01-31 9:59:27.6770,0.106,0.921,0.228,1.17,-0.23,-1.72,-0.07,0.04,-0.65
2022-01-31 9:59:27.6760,0.037,0.493,0.279,1.17,-0.23,-1.72,-1.15,-0.11,-0.07
2022-01-31 9:59:27.6760,0.007,0.016,0.208,1.17,-0.23,-1.72,-1.78,-0.24,0.34
2022-01-31 9:59:27.6810,-0.014,-0.002,0.02,1.17,-0.23,-1.72,-1.2,-0.5,0.43
2022-01-31 9:59:27.6770,-0.008,-0.053,-0.108,1.17,-0.23,-1.72,-0.58,-0.57,0.59
2022-01-31 9:59:27.6770,-0.013,0.08,-0.071,1.17,-0.23,-1.72,-0.58,-0.57,0.59
2022-01-31 9:59:27.6780,-0.105,0.605,-0.01,1.14,0.92,-1.12,0.32,-0.01,0.66
2022-01-31 9:59:27.6800,-0.188,0.985,0.071,1.14,0.92,-1.12,0.67,0.39,0.56
2022-01-31 9:59:27.6820,-0.233,1.226,0.051,1.14,0.92,-1.12,1.12,0.9,0.73
2022-01-31 9:59:27.6820,-0.26,1.563,-0.034,1.14,0.92,-1.12,1.05,0.72,0.74
2022-01-31 9:59:27.6830,-0.519,1.846,0.039,1.38,1.74,-0.2,0.07,-0.02,0.03
2022-01-31 9:59:27.6850,-0.622,1.407,0.143,1.38,1.74,-0.2,-0.46,-0.71,-0.46
2022-01-31 9:59:27.6880,-0.498,1.126,0.151,1.67,1.43,0.68,-0.48,-0.82,-0.82
2022-01-31 9:59:27.6850,-0.404,1.053,0.139,1.67,1.43,0.68,-0.16,-1.23,-1.03
2022-01-31 9:59:27.6850,-0.317,1.022,0.067,1.67,1.43,0.68,-0.16,-1.23,-1.03
2022-01-31 9:59:27.6880,-0.248,1.082,0.045,1.67,1.43,0.68,0.01,-1.17,-0.98
2022-01-31 9:59:27.6910,-0.117,1.174,0.036,1.99,1.37,1.86,0.25,-1.04,-0.82
2022-01-31 9:59:27.6890,0.001,1.104,0.022,1.99,1.37,1.86,0.46,-0.74,-0.55
2022-01-31 9:59:27.6940,0.116,1.103,0.082,2.15,1.54,2.79,0.74,-0.35,-0.21
2022-01-31 9:59:27.6950,0.232,1.262,0.117,2.15,1.54,2.79,0.86,-0.15,0.13
2022-01-31 9:59:27.6950,0.326,1.279,0.124,2.15,1.54,2.79,0.76,-0.16,0.61
2022-01-31 9:59:27.7020,0.365,1.23,0.202,2.15,1.54,2.79,0.58,-0.11,1.04
2022-01-31 9:59:27.6980,0.203,1.185,0.25,2.15,1.54,2.79,0.42,0.08,1.16
2022-01-31 9:59:27.6980,-0.06,1.113,0.294,2.15,1.54,2.79,0.42,0.08,1.16
2022-01-31 9:59:27.7010,-0.167,1.136,0.292,2.15,1.54,2.79,0.41,0.8,0.96
2022-01-31 9:59:27.7030,-0.201,1.079,0.294,2.15,1.54,2.79,0.43,1.22,0.88
2022-01-31 9:59:27.7030,-0.2,0.99,0.263,2.15,1.54,2.79,0.43,1.22,0.88
Time,-0.196,0.868,0.188,1.7,0.53,2.95,0.26,1.34,0.8
2022-01-31 9:59:27.7050,-0.22,0.813,0.091,1.7,0.53,2.95,0.05,1.13,0.54
2022-01-31 9:59:27.7060,-0.249,0.863,0.0,1.7,0.53,2.95,-0.38,0.51,0.17
2022-01-31 9:59:27.7090,-0.283,0.836,-0.113,1.7,0.53,2.95,-0.6,-0.16,-0.21
2022-01-31 9:59:27.7080,-0.294,0.854,-0.191,1.7,0.53,2.95,-0.42,-0.49,-0.56
2022-01-31 9:59:27.7090,-0.228,0.969,-0.181,1.7,0.53,2.95,-0.12,-0.42,-0.69
2022-01-31 9:59:27.7090,-0.066,1.085,-0.152,1.7,0.53,2.95,0.21,-0.33,-0.65
2022-01-31 9:59:27.7130,0.083,1.09,-0.124,0.16,-0.79,2.58,0.52,-0.29,-0.39
2022-01-31 9:59:27.7120,0.23,1.122,-0.108,0.16,-0.79,2.58,0.79,-0.45,-0.01
2022-01-31 9:59:27.7160,0.26,1.121,-0.081,0.16,-0.79,2.58,0.96,-0.66,0.37
2022-01-31 9:59:27.7150,0.223,1.137,-0.022,0.16,-0.79,2.58,1.09,-0.85,0.72
2022-01-31 9:59:27.7150,0.122,1.066,0.043,0.16,-0.79,2.58,1.13,-0.94,0.97
Time,-0.013,1.104,0.136,0.16,-0.79,2.58,1.01,-0.87,1.09
2022-01-31 9:59:27.7200,-0.106,1.163,0.225,0.16,-0.79,2.58,0.63,-0.77,0.97
2022-01-31 9:59:27.7260,-0.144,1.212,0.316,0.16,-0.79,2.58,0.06,-0.68,0.79
2022-01-31 9:59:27.7210,-0.142,1.24,0.384,0.16,-0.79,2.58,-0.38,-0.49,0.62
2022-01-31 9:59:27.7230,-0.101,1.214,0.371,-1.35,-0.95,2.32,-0.67,-0.28,0.57
2022-01-31 9:59:27.7230,0.012,1.139,0.344,-1.35,-0.95,2.32,-0.88,-0.23,0.54
2022-01-31 9:59:27.7240,0.068,1.136,0.218,-1.35,-0.95,2.32,-0.96,-0.28,0.41
2022-01-31 9:59:27.7270,0.031,1.138,0.094,-1.35,-0.95,2.32,-0.85,-0.28,0.25
2022-01-31 9:59:27.7260,0.008,1.112,0.005,-1.35,-0.95,2.32,-0.77,-0.29,0.21
2022-01-31 9:59:27.7280,0.024,1.095,-0.053,-1.35,-0.95,2.32,-0.66,-0.46,0.23
2022-01-31 9:59:27.7300,0.034,1.1,-0.123,-1.35,-0.95,2.32,-0.56,-0.8,0.21
2022-01-31 9:59:27.7300,0.031,1.1,-0.126,-1.35,-0.95,2.32,-0.43,-0.99,0.2
2022-01-31 9:59:27.7300,0.03,1.114,-0.048,-1.35,-0.95,2.32,-0.43,-0.99,0.2
2022-01-31 9:59:27.7300,0.02,1.082,0.029,-1.35,-0.95,2.32,0.19,-0.55,0.25
Time,0.027,0.943,0.111,-1.35,-0.95,2.32,0.3,-0.15,0.39
Time,0.031,0.828,0.204,-1.35,-0.95,2.32,0.3,-0.15,0.39
2022-01-31 9:59:27.7340,0.01,0.794,0.185,-1.35,-0.95,2.32,0.27,0.15,0.49
2022-01-31 9:59:27.7360,0.003,0.833,0.173,-1.35,-0.95,2.32,0.1,0.05,0.48
2022-01-31 9:59:27.7360,-0.056,0.939,0.149,-1.35,-0.95,2.32,-0.24,-0.41,0.14
2022-01-31 9:59:27.7360,-0.098,0.983,0.099,-1.35,-0.95,2.32,-0.24,-0.41,0.14
2022-01-31 9:59:27.7380,-0.071,0.974,0.085,-2.89,-1.23,2.02,-0.37,-0.29,0.03
2022-01-31 9:59:27.7380,-0.041,0.957,0.102,-2.89,-1.23,2.02,-0.4,0.05,-0.12
2022-01-31 9:59:27.7400,0.029,0.924,0.089,-2.89,-1.23,2.02,-0.27,0.51,-0.14
2022-01-31 9:59:27.7400,0.09,0.877,0.102,-2.89,-1.23,2.02,-0.12,0.86,-0.09
2022-01-31 9:59:27.7380,0.103,0.889,0.067,-2.89,-1.23,2.02,0.06,0.96,-0.09
2022-01-31 9:59:27.7410,0.103,0.916,0.041,-2.89,-1.23,2.02,0.18,0.98,-0.18
2022-01-31 9:59:27.7420,0.116,0.917,0.05,-2.89,-1.23,2.02,0.18,1.01,-0.31
2022-01-31 9:59:27.7420,0.146,0.949,0.077,-2.89,-1.23,2.02,0.02,1.13,-0.34
2022-01-31 9:59:27.7460,0.215,1.001,0.113,-2.89,-1.23,2.02,-0.11,1.29,-0.19
2022-01-31 9:59:27.7460,0.234,1.041,0.08,-2.89,-1.23,2.02,-0.12,1.16,-0.03
2022-01-31 9:59:27.7450,0.162,1.025,0.036,-2.89,-1.23,2.02,-0.05,0.99,0.07
2022-01-31 9:59:27.7490,0.151,0.967,0.004,-2.89,-1.23,2.02,0.12,0.9,0.14
2022-01-31 9:59:27.7490,0.176,0.823,-0.043,-2.89,-1.23,2.02,0.12,0.9,0.14
2022-01-31 9:59:27.7540,0.178,0.796,-0.076,-2.89,-1.23,2.02,0.54,0.68,0.43
2022-01-31 9:59:27.7540,0.105,0.891,-0.076,-2.89,-1.23,2.02,0.54,0.68,0.43
2022-01-31 9:59:27.7520,0.051,0.848,-0.042,-2.89,-1.23,2.02,0.7,0.65,0.77
2022-01-31 9:59:27.7530,-0.02,0.928,-0.019,-2.89,-1.23,2.02,0.62,0.45,0.95
2022-01-31 9:59:27.7550,-0.09,1.072,-0.052,-2.89,-1.23,2.02,0.54,-0.01,1.14
Time,-0.159,1.143,-0.061,-2.89,-1.23,2.02,0.35,-0.68,1.33
2022-01-31 9:59:27.7560,-0.237,1.123,-0.024,-2.89,-1.23,2.02,0.01,-1.33,1.35
2022-01-31 9:59:27.7570,-0.319,1.087,0.024,-2.89,-1.23,2.02,-0.39,-1.98,1.08
2022-01-31 9:59:27.7580,-0.389,1.116,0.16,-2.89,-1.23,2.02,-0.66,-1.92,0.71
2022-01-31 9:59:27.7590,-0.399,1.156,0.369,-2.89,-1.23,2.02,-0.76,-1.34,0.37
2022-01-31 9:59:27.7600,-0.292,1.124,0.318,-2.89,-1.23,2.02,-0.66,-0.77,0.06
2022-01-31 9:59:27.7610,-0.085,1.085,0.197,-2.89,-1.23,2.02,-0.49,-0.18,-0.14
2022-01-31 9:59:27.7620,0.061,1.071,0.132,-2.89,-1.23,2.02,-0.3,0.37,-0.32
2022-01-31 9:59:27.7630,0.149,1.03,0.066,-2.89,-1.23,2.02,-0.1,0.67,-0.39
2022-01-31 9:59:27.7630,0.206,1.016,0.013,-2.89,-1.23,2.02,0.12,0.74,-0.47
2022-01-31 9:59:27.7690,0.218,1.035,0.048,-2.89,-1.23,2.02,0.21,0.87,-0.62
2022-01-31 9:59:27.7660,0.236,0.997,0.126,-2.89,-1.23,2.02,0.17,0.79,-0.53
2022-01-31 9:59:27.7670,0.26,0.97,0.127,-2.89,-1.23,2.02,0.02,0.47,-0.34
2022-01-31 9:59:27.7670,0.207,1.012,0.168,-2.89,-1.23,2.02,-0.11,0.21,-0.21
2022-01-31 9:59:27.7700,0.125,1.014,0.201,-2.89,-1.23,2.02,-0.21,0.17,-0.08
2022-01-31 9:59:27.7690,0.041,1.002,0.203,-2.89,-1.23,2.02,-0.28,0.31,0.02
2022-01-31 9:59:27.7700,-0.023,1.03,0.163,-2.89,-1.23,2.02,-0.26,0.5,0.13
2022-01-31 9:59:27.7720,-0.093,1.057,0.102,-3.48,-1.28,1.75,-0.19,0.63,0.15
2022-01-31 9:59:27.7720,-0.15,1.041,0.052,-3.48,-1.28,1.75,-0.11,0.67,0.11
2022-01-31 9:59:27.7730,-0.151,0.99,0.034,-3.48,-1.28,1.75,-0.03,0.7,0.07
2022-01-31 9:59:27.7750,-0.137,0.903,0.052,-3.48,-1.28,1.75,0.04,0.72,0.06
2022-01-31 9:59:27.7760,-0.108,0.793,0.048,-3.48,-1.28,1.75,-0.0,0.4,0.05
2022-01-31 9:59:27.7790,-0.017,0.665,0.025,-3.48,-1.28,1.75,-0.17,-0.17,0.02
2022-01-31 9:59:27.7780,0.075,0.681,0.098,-3.48,-1.28,1.75,-0.2,-0.44,0.03
2022-01-31 9:59:27.7780,0.128,0.787,0.176,-3.48,-1.28,1.75,-0.2,-0.44,0.03
2022-01-31 9:59:27.7830,0.172,0.857,0.184,-3.48,-1.28,1.75,-0.16,-0.66,0.05
2022-01-31 9:59:27.7830,0.225,0.923,0.181,-3.48,-1.28,1.75,-0.15,-0.51,0.08
2022-01-31 9:59:27.7850,0.24,0.969,0.186,-3.48,-1.28,1.75,-0.1,-0.21,0.19
2022-01-31 9:59:27.7860,0.239,0.954,0.144,-3.48,-1.28,1.75,-0.04,-0.02,0.41
2022-01-31 9:59:27.7870,0.143,0.997,0.088,-3.48,-1.28,1.75,0.07,-0.1,0.61
2022-01-31 9:59:27.7880,-0.083,1.11,0.031,-3.48,-1.28,1.75,0.26,-0.33,0.73
2022-01-31 9:59:27.7900,-0.318,1.26,0.018,-3.48,-1.28,1.75,0.48,-0.43,0.7
2022-01-31 9:59:27.7900,-0.453,1.369,0.051,-3.48,-1.28,1.75,0.52,-0.41,0.5
2022-01-31 9:59:27.7820,-0.413,1.282,0.129,-3.48,-1.28,1.75,0.41,-0.01,0.25
2022-01-31 9:59:27.7920,-0.214,1.102,0.207,-3.48,-1.28,1.75,0.31,0.76,0.07
2022-01-31 9:59:27.7930,-0.067,1.114,0.172,-3.48,-1.28,1.75,0.3,1.34,-0.12
Time,0.035,1.184,0.082,-3.48,-1.28,1.75,0.46,1.48,-0.29
2022-01-31 9:59:27.7940,0.101,1.214,0.013,-3.48,-1.28,1.75,0.7,1.28,-0.39
2022-01-31 9:59:27.7830,0.14,1.232,-0.002,-3.48,-1.28,1.75,0.9,0.93,-0.42
Time,0.171,1.199,0.015,-3.48,-1.28,1.75,1.04,0.56,-0.33
2022-01-31 9:59:27.7980,0.199,1.109,0.067,-3.48,-1.28,1.75,1.15,0.34,-0.16
2022-01-31 9:59:27.8010,0.171,1.04,0.151,-3.48,-1.28,1.75,1.28,0.32,-0.14
2022-01-31 9:59:27.8010,0.071,1.02,0.202,-3.48,-1.28,1.75,1.28,0.32,-0.14
2022-01-31 9:59:27.8020,-0.034,0.973,0.196,-3.48,-1.28,1.75,1.28,0.26,-0.33
2022-01-31 9:59:27.8020,-0.109,0.96,0.158,-3.48,-1.28,1.75,1.3,0.16,-0.55
2022-01-31 9:59:27.7940,-0.157,1.051,0.1,-3.48,-1.28,1.75,1.3,0.03,-0.78
2022-01-31 9:59:27.8040,-0.16,1.178,0.028,-3.48,-1.28,1.75,1.17,-0.27,-1.03
2022-01-31 9:59:27.8040,-0.151,1.225,-0.03,-3.48,-1.28,1.75,0.96,-0.58,-1.34
2022-01-31 9:59:27.8070,-0.157,1.227,-0.028,-3.48,-1.28,1.75,0.78,-0.69,-1.66
2022-01-31 9:59:27.8070,-0.164,1.198,-0.002,-3.48,-1.28,1.75,0.7,-0.49,-1.95
2022-01-31 9:59:27.8100,-0.15,1.133,0.002,-3.48,-1.28,1.75,0.69,-0.22,-2.18
2022-01-31 9:59:27.8100,-0.106,1.03,-0.037,-3.48,-1.28,1.75,0.69,0.06,-2.22
2022-01-31 9:59:27.8050,-0.046,0.944,-0.05,-3.48,-1.28,1.75,0.61,0.42,-2.14
2022-01-31 9:59:27.8130,-0.051,1.029,-0.097,-3.48,-1.28,1.75,0.38,0.38,-2.32
2022-01-31 9:59:27.7930,-0.081,1.091,-0.191,-3.48,-1.28,1.75,0.16,-0.03,-2.45
2022-01-31 9:59:27.8130,-0.023,0.964,-0.249,-3.48,-1.28,1.75,0.03,-0.58,-2.3
2022-01-31 9:59:27.8150,0.03,0.873,-0.277,-3.48,-1.28,1.75,-0.07,-1.09,-1.96
2022-01-31 9:59:27.8150,0.073,0.733,-0.264,-3.48,-1.28,1.75,-0.13,-1.44,-1.59
2022-01-31 9:59:27.8160,0.021,0.68,-0.207,-3.48,-1.28,1.75,-0.19,-1.6,-1.41
2022-01-31 9:59:27.8190,-0.032,0.672,-0.166,-3.48,-1.28,1.75,-0.25,-1.85,-1.33
2022-01-31 9:59:27.7990,-0.061,0.669,-0.213,-3.48,-1.28,1.75,-0.33,-2.27,-1.25
2022-01-31 9:59:27.8180,-0.097,0.725,-0.227,-3.48,-1.28,1.75,-0.53,-2.77,-1.18
2022-01-31 9:59:27.8180,-0.109,0.718,-0.22,-3.48,-1.28,1.75,-0.53,-2.77,-1.18
2022-01-31 9:59:27.8210,-0.052,0.678,-0.219,-3.48,-1.28,1.75,-1.07,-3.59,-0.62
2022-01-31 9:59:27.8150,-0.023,0.712,-0.215,-3.48,-1.28,1.75,-1.16,-3.73,-0.13
2022-01-31 9:59:27.8240,-0.039,0.776,-0.187,-3.48,-1.28,1.75,-0.99,-3.71,0.31
2022-01-31 9:59:27.8250,-0.097,0.847,-0.109,-3.48,-1.28,1.75,-0.66,-3.36,0.48
2022-01-31 9:59:27.8260,-0.169,0.939,0.042,-3.09,-1.4,1.14,-0.21,-2.61,0.41
2022-01-31 9:59:27.8270,-0.206,0.998,0.2,-3.09,-1.4,1.14,0.17,-1.62,0.2
2022-01-31 9:59:27.8150,-0.179,1.036,0.36,-3.09,-1.4,1.14,0.18,-0.74,-0.01
2022-01-31 9:59:27.8290,-0.111,1.075,0.401,-3.09,-1.4,1.14,0.04,-0.15,-0.14
Time,-0.077,1.087,0.248,-3.09,-1.4,1.14,-0.07,0.06,-0.16
2022-01-31 9:59:27.8310,-0.075,1.073,0.081,-3.09,-1.4,1.14,-0.12,-0.02,-0.17
2022-01-31 9:59:27.8320,-0.069,0.998,-0.004,-3.09,-1.4,1.14,-0.15,-0.18,-0.07
2022-01-31 9:59:27.8250,-0.058,0.929,-0.054,-3.09,-1.4,1.14,-0.14,-0.32,0.03
2022-01-31 9:59:27.8330,-0.06,0.918,-0.088,-3.09,-1.4,1.14,-0.07,-0.53,0.08
2022-01-31 9:59:27.8350,-0.089,0.937,-0.094,-3.09,-1.4,1.14,0.03,-0.65,0.09
2022-01-31 9:59:27.8210,-0.132,1.001,-0.062,-3.09,-1.4,1.14,0.1,-0.74,0.05
2022-01-31 9:59:27.8350,-0.17,1.052,-0.01,-3.09,-1.4,1.14,0.11,-0.69,-0.02
2022-01-31 9:59:27.8370,-0.206,1.092,0.072,-3.09,-1.4,1.14,0.0,-0.56,-0.09
2022-01-31 9:59:27.8390,-0.221,1.089,0.129,-3.09,-1.4,1.14,-0.17,-0.41,-0.13
Time,-0.231,1.069,0.128,-3.09,-1.4,1.14,-0.29,-0.33,0.0
2022-01-31 9:59:27.8400,-0.22,1.012,0.078,-3.09,-1.4,1.14,-0.32,-0.33,0.0
2022-01-31 9:59:27.8420,-0.236,0.974,0.047,-3.09,-1.4,1.14,-0.28,-0.36,0.11
2022-01-31 9:59:27.8430,-0.253,0.946,0.038,-3.09,-1.4,1.14,-0.22,-0.41,0.19
2022-01-31 9:59:27.8310,-0.269,0.937,0.054,-3.09,-1.4,1.14,-0.18,-0.37,0.22
2022-01-31 9:59:27.8440,-0.304,0.942,0.102,-3.09,-1.4,1.14,-0.17,-0.21,0.19
2022-01-31 9:59:27.8330,-0.297,0.949,0.106,-3.09,-1.4,1.14,-0.17,-0.1,0.18
2022-01-31 9:59:27.8480,-0.299,0.985,0.098,-3.09,-1.4,1.14,-0.15,-0.05,0.12
2022-01-31 9:59:27.8460,-0.37,0.995,0.087,-3.09,-1.4,1.14,-0.09,-0.21,0.06
2022-01-31 9:59:27.8430,-0.404,1.013,0.084,-3.09,-1.4,1.14,0.02,-0.41,0.08
2022-01-31 9:59:27.8500,-0.392,1.007,0.095,-3.09,-1.4,1.14,-0.01,-0.77,0.09
2022-01-31 9:59:27.8510,-0.393,0.978,0.135,-3.09,-1.4,1.14,-0.11,-1.04,0.12
2022-01-31 9:59:27.8530,-0.339,0.976,0.169,-3.09,-1.4,1.14,-0.21,-1.18,0.15
Time,-0.273,0.979,0.171,-3.09,-1.4,1.14,-0.24,-1.08,0.18
2022-01-31 9:59:27.8540,-0.268,0.989,0.144,-3.09,-1.4,1.14,-0.25,-0.92,0.17
2022-01-31 9:59:27.8560,-0.294,1.041,0.094,-3.09,-1.4,1.14,-0.26,-0.74,0.09
2022-01-31 9:59:27.8570,-0.33,1.104,0.058,-3.09,-1.4,1.14,-0.28,-0.57,-0.1
2022-01-31 9:59:27.8590,-0.371,1.154,0.026,-3.09,-1.4,1.14,-0.36,-0.55,-0.42
2022-01-31 9:59:27.8590,-0.414,1.216,0.012,-3.09,-1.4,1.14,-0.38,-0.39,-0.9
2022-01-31 9:59:27.8470,-0.379,1.143,0.024,-3.09,-1.4,1.14,-0.25,-0.01,-1.22
2022-01-31 9:59:27.8520,-0.233,0.945,0.063,-3.09,-1.4,1.14,0.24,1.29,-1.46
2022-01-31 9:59:27.8610,-0.214,0.916,0.203,-3.09,-1.4,1.14,0.57,2.25,-1.48
2022-01-31 9:59:27.8610,-0.176,0.887,0.118,-3.09,-1.4,1.14,0.57,2.25,-1.48
2022-01-31 9:59:27.8640,-0.15,0.995,0.156,-3.09,-1.4,1.14,0.89,2.58,-1.16
2022-01-31 9:59:27.8650,0.006,0.737,-0.001,-3.09,-1.4,1.14,0.23,1.3,-0.92
2022-01-31 9:59:27.8500,0.065,0.717,0.024,-3.09,-1.4,1.14,-0.3,0.38,-0.66
Time,0.174,0.721,0.111,-3.09,-1.4,1.14,-0.52,0.4,-0.18
2022-01-31 9:59:27.8670,0.227,0.751,0.176,-3.09,-1.4,1.14,-0.59,0.61,0.26
2022-01-31 9:59:27.8690,0.147,0.85,0.133,-3.09,-1.4,1.14,-0.46,0.57,0.5
2022-01-31 9:59:27.8700,-0.032,0.907,0.049,-3.09,-1.4,1.14,-0.23,0.35,0.59
2022-01-31 9:59:27.8690,-0.143,0.946,0.001,-3.09,-1.4,1.14,0.01,0.08,0.68
2022-01-31 9:59:27.8560,-0.176,0.931,-0.036,-3.09,-1.4,1.14,0.23,-0.19,0.84
2022-01-31 9:59:27.8720,-0.191,0.862,-0.062,-3.09,-1.4,1.14,0.48,-0.47,1.03
2022-01-31 9:59:27.8720,-0.192,0.803,-0.026,-3.09,-1.4,1.14,0.64,-0.45,1.23
2022-01-31 9:59:27.8750,-0.176,0.769,0.082,-3.09,-1.4,1.14,0.74,-0.08,1.45
2022-01-31 9:59:27.8750,-0.152,0.749,0.178,-3.09,-1.4,1.14,0.8,0.54,1.68
2022-01-31 9:59:27.8770,-0.127,0.768,0.222,-3.09,-1.4,1.14,0.9,1.21,1.91
2022-01-31 9:59:27.8780,-0.121,0.837,0.202,-3.09,-1.4,1.14,1.05,1.74,2.07
2022-01-31 9:59:27.8720,-0.131,0.952,0.13,-3.09,-1.4,1.14,1.24,2.21,2.2
2022-01-31 9:59:27.8620,-0.117,1.06,0.112,-3.09,-1.4,1.14,1.42,2.79,2.24
2022-01-31 9:59:27.8800,-0.146,1.19,0.092,-3.09,-1.4,1.14,1.48,3.28,2.27
2022-01-31 9:59:27.8810,-0.153,1.252,0.025,-3.09,-1.4,1.14,1.29,3.44,2.33
Time,-0.148,1.265,-0.088,-3.09,-1.4,1.14,0.8,3.0,2.39
2022-01-31 9:59:27.8840,-0.175,1.313,-0.261,-3.09,-1.4,1.14,0.11,1.81,2.24
2022-01-31 9:59:27.8690,-0.226,1.362,-0.369,-3.09,-1.4,1.14,-0.37,0.53,1.8
2022-01-31 9:59:27.8860,-0.228,1.288,-0.333,-3.09,-1.4,1.14,-0.44,-0.34,1.25
2022-01-31 9:59:27.8860,-0.183,1.158,-0.225,-3.09,-1.4,1.14,-0.09,-0.46,0.84
2022-01-31 9:59:27.8890,-0.111,1.044,-0.107,-3.09,-1.4,1.14,0.42,-0.11,0.74
2022-01-31 9:59:27.8890,-0.077,1.024,-0.048,-3.09,-1.4,1.14,0.82,0.4,0.82
2022-01-31 9:59:27.8910,-0.083,1.05,-0.005,-3.09,-1.4,1.14,1.02,0.92,0.92
2022-01-31 9:59:27.8910,-0.085,1.032,0.029,-3.09,-1.4,1.14,1.06,1.42,0.99
2022-01-31 9:59:27.8930,-0.072,0.978,0.07,-3.09,-1.4,1.14,1.02,1.99,1.13
2022-01-31 9:59:27.8930,-0.054,0.969,0.105,-3.09,-1.4,1.14,0.76,2.71,1.2
2022-01-31 9:59:27.8940,-0.099,1.061,0.198,-3.09,-1.4,1.14,0.15,3.22,0.79
2022-01-31 9:59:27.8940,-0.099,1.111,0.106,-3.09,-1.4,1.14,-0.4,2.97,0.38
2022-01-31 9:59:27.8730,-0.109,1.062,0.064,-3.09,-1.4,1.14,-0.64,2.62,-0.02
2022-01-31 9:59:27.8730,-0.117,1.06,0.081,-3.09,-1.4,1.14,-0.64,2.39,-0.36
2022-01-31 9:59:27.8950,-0.092,1.071,0.052,-3.09,-1.4,1.14,-0.59,2.11,-0.54
2022-01-31 9:59:27.8960,-0.099,1.07,0.016,-3.09,-1.4,1.14,-0.67,1.7,-0.72
2022-01-31 9:59:27.8980,-0.084,1.063,-0.057,-3.09,-1.4,1.14,-0.65,1.16,-0.81
2022-01-31 9:59:27.8990,-0.039,1.032,-0.161,-3.09,-1.4,1.14,-0.35,0.58,-0.75
2022-01-31 9:59:27.9000,0.037,1.014,-0.173,-3.09,-1.4,1.14,0.09,0.16,-0.58
2022-01-31 9:59:27.9010,0.113,1.009,-0.216,-3.09,-1.4,1.14,0.36,-0.72,-0.29
Time,0.145,1.035,-0.26,-3.09,-1.4,1.14,0.38,-1.51,-0.04
2022-01-31 9:59:27.9030,0.19,0.996,-0.143,-3.09,-1.4,1.14,0.16,-1.81,0.07
2022-01-31 9:59:27.9030,0.179,0.988,-0.024,-3.09,-1.4,1.14,0.16,-1.81,0.07
Time,0.166,0.989,0.113,-3.09,-1.4,1.14,-0.71,-0.55,0.39
2022-01-31 9:59:27.8970,0.139,0.979,0.048,-3.09,-1.4,1.14,-0.71,0.22,0.71
2022-01-31 9:59:27.9050,0.07,0.987,-0.097,-3.09,-1.4,1.14,-0.51,0.78,0.74
2022-01-31 9:59:27.9040,-0.026,0.98,-0.167,-3.09,-1.4,1.14,-0.19,1.19,0.57
2022-01-31 9:59:27.9070,-0.074,0.963,-0.213,-3.09,-1.4,1.14,-0.17,1.47,0.18
2022-01-31 9:59:27.9080,-0.13,0.943,-0.183,-3.09,-1.4,1.14,-0.27,1.47,-0.1
2022-01-31 9:59:27.9090,-0.13,0.886,-0.236,-3.09,-1.4,1.14,-0.28,1.25,0.01
2022-01-31 9:59:27.9120,-0.152,0.9,-0.231,-3.09,-1.4,1.14,-0.56,0.99,0.04
2022-01-31 9:59:27.9110,-0.19,0.908,-0.193,-3.09,-1.4,1.14,-0.85,0.77,0.17
2022-01-31 9:59:27.9150,-0.243,0.981,-0.171,-3.09,-1.4,1.14,-0.64,-0.27,-0.49
2022-01-31 9:59:27.9150,-0.218,1.009,-0.301,-3.09,-1.4,1.14,-0.64,-0.27,-0.49
2022-01-31 9:59:27.9130,-0.219,1.122,-0.35,-3.09,-1.4,1.14,-0.28,-0.87,-0.65
2022-01-31 9:59:27.9160,-0.223,1.205,-0.234,-3.09,-1.4,1.14,-0.26,-1.37,-1.15
2022-01-31 9:59:27.9160,-0.148,1.036,-0.248,-3.09,-1.4,1.14,0.25,-1.4,-0.99
2022-01-31 9:59:27.9180,-0.029,0.859,-0.073,-2.25,-0.88,0.4,0.18,-1.05,-1.13
2022-01-31 9:59:27.9100,0.056,0.713,-0.065,-2.25,-0.88,0.4,0.76,-0.26,-0.96
2022-01-31 9:59:27.9200,0.186,0.582,-0.039,-2.25,-0.88,0.4,1.14,0.4,-0.75
2022-01-31 9:59:27.9210,0.217,0.816,-0.002,-2.25,-0.88,0.4,1.0,0.62,-0.58
2022-01-31 9:59:27.9220,0.236,1.08,-0.056,-2.25,-0.88,0.4,1.13,-0.21,-0.54
2022-01-31 9:59:27.9240,0.333,1.194,-0.104,-2.25,-0.88,0.4,1.11,-1.47,-0.33
2022-01-31 9:59:27.9170,0.466,1.06,0.107,-2.25,-0.88,0.4,0.81,-1.94,0.14
2022-01-31 9:59:27.9250,0.442,1.051,0.389,-2.25,-0.88,0.4,0.28,-1.38,0.4
2022-01-31 9:59:27.9250,0.266,1.033,0.51,-2.25,-0.88,0.4,-0.25,-0.71,0.53
2022-01-31 9:59:27.9270,0.11,0.987,0.401,-2.25,-0.88,0.4,-0.52,-0.37,0.67
2022-01-31 9:59:27.9170,-0.009,1.083,0.281,-2.25,-0.88,0.4,-0.89,-0.4,0.61
2022-01-31 9:59:27.9290,-0.098,1.073,0.147,-2.25,-0.88,0.4,-0.95,-0.5,0.5
2022-01-31 9:59:27.9300,-0.13,1.009,0.041,-2.25,-0.88,0.4,-0.94,-0.57,0.38
2022-01-31 9:59:27.9220,-0.135,0.967,-0.032,-2.25,-0.88,0.4,-0.94,-0.67,0.29
2022-01-31 9:59:27.9320,-0.112,0.918,-0.105,-2.25,-0.88,0.4,-0.86,-0.74,0.2
2022-01-31 9:59:27.9330,-0.066,0.91,-0.166,-2.25,-0.88,0.4,-0.76,-0.94,0.21
2022-01-31 9:59:27.9330,0.008,0.883,-0.212,-2.25,-0.88,0.4,-0.61,-1.09,0.29
2022-01-31 9:59:27.9360,0.049,0.876,-0.2,-2.25,-0.88,0.4,-0.56,-1.33,0.27
2022-01-31 9:59:27.9380,0.099,0.898,-0.216,-2.25,-0.88,0.4,-0.45,-1.6,0.3
2022-01-31 9:59:27.9380,0.145,0.948,-0.23,-2.25,-0.88,0.4,-0.28,-2.01,0.47
2022-01-31 9:59:27.9290,0.158,1.058,-0.198,-2.25,-0.88,0.4,-0.32,-2.26,0.51
2022-01-31 9:59:27.9320,0.1,1.088,-0.103,-2.25,-0.88,0.4,-0.3,-2.45,0.42
2022-01-31 9:59:27.9410,0.061,1.08,-0.026,-2.25,-0.88,0.4,-0.18,-2.48,0.33
2022-01-31 9:59:27.9410,0.068,1.082,0.166,-2.25,-0.88,0.4,-0.22,-2.37,0.37
2022-01-31 9:59:27.9440,0.021,1.136,0.49,-2.25,-0.88,0.4,-0.32,-1.66,0.31
2022-01-31 9:59:27.9340,-0.044,1.094,0.749,-2.25,-0.88,0.4,-0.56,-0.55,0.49
2022-01-31 9:59:27.9440,-0.038,0.98,0.57,-2.25,-0.88,0.4,-0.87,-0.34,0.4
2022-01-31 9:59:27.9440,-0.049,1.007,0.183,-2.25,-0.88,0.4,-0.87,-0.34,0.4
2022-01-31 9:59:27.9460,0.023,1.045,0.029,-2.25,-0.88,0.4,-0.45,-0.12,0.43
2022-01-31 9:59:27.9480,-0.038,1.099,-0.017,-2.25,-0.88,0.4,-0.36,-0.16,0.2
2022-01-31 9:59:27.9490,-0.101,1.129,-0.043,-2.25,-0.88,0.4,-0.04,0.11,-0.15
2022-01-31 9:59:27.9420,-0.033,1.152,0.007,-2.25,-0.88,0.4,0.18,0.43,-0.2
2022-01-31 9:59:27.9500,-0.015,1.122,0.052,-2.25,-0.88,0.4,0.56,0.95,-0.32
2022-01-31 9:59:27.9430,-0.008,1.085,0.106,-2.25,-0.88,0.4,0.63,1.25,-0.29
2022-01-31 9:59:27.9530,-0.043,1.086,0.125,-2.25,-0.88,0.4,0.63,1.43,-0.47
2022-01-31 9:59:27.9560,-0.076,1.066,0.169,-2.25,-0.88,0.4,0.74,1.6,-0.44
2022-01-31 9:59:27.9550,-0.052,0.983,0.187,-2.25,-0.88,0.4,0.58,1.64,-0.65
2022-01-31 9:59:27.9600,-0.049,0.975,0.181,-2.25,-0.88,0.4,0.53,1.58,-0.81
2022-01-31 9:59:27.9600,-0.047,1.056,0.121,-2.25,-0.88,0.4,0.66,1.65,-1.15
2022-01-31 9:59:27.9610,-0.089,1.231,0.11,-2.25,-0.88,0.4,0.91,1.9,-1.45
2022-01-31 9:59:27.9610,-0.079,1.205,0.123,-2.25,-0.88,0.4,0.89,2.06,-1.45
2022-01-31 9:59:27.9560,0.029,0.852,0.106,-2.25,-0.88,0.4,0.38,2.02,-1.1
2022-01-31 9:59:27.9570,0.109,0.641,0.088,-2.25,-0.88,0.4,0.28,2.21,-1.06
2022-01-31 9:59:27.9660,0.129,0.752,0.074,-2.25,-0.88,0.4,0.13,2.23,-0.98
2022-01-31 9:59:27.9680,0.142,0.837,0.061,-2.25,-0.88,0.4,0.14,2.71,-1.08
Time,0.107,0.953,0.243,-2.25,-0.88,0.4,0.04,2.94,-1.08
2022-01-31 9:59:27.9740,0.185,0.915,-0.049,-2.25,-0.88,0.4,-0.71,1.3,-1.04
2022-01-31 9:59:27.9740,0.228,0.89,-0.261,-2.25,-0.88,0.4,-1.44,-0.07,-0.55
2022-01-31 9:59:27.9620,0.176,0.914,-0.226,-2.25,-0.88,0.4,-1.63,-0.51,-0.35
2022-01-31 9:59:27.9750,0.104,0.973,-0.245,-2.25,-0.88,0.4,-1.47,-0.82,-0.23
2022-01-31 9:59:27.9840,0.13,0.834,-0.351,-2.25,-0.88,0.4,-1.57,-1.61,0.31
2022-01-31 9:59:27.9810,0.139,0.734,-0.349,-2.25,-0.88,0.4,-1.4,-1.93,0.57
2022-01-31 9:59:27.9840,0.147,0.681,-0.325,-2.25,-0.88,0.4,-1.14,-2.24,0.82
2022-01-31 9:59:27.9860,0.157,0.679,-0.32,-2.25,-0.88,0.4,-0.89,-2.42,0.99
2022-01-31 9:59:27.9870,0.121,0.765,-0.253,-2.25,-0.88,0.4,-0.48,-2.46,1.12
2022-01-31 9:59:27.9870,0.045,0.941,-0.224,-2.25,-0.88,0.4,-0.48,-2.46,1.12
2022-01-31 9:59:27.9690,-0.025,1.13,-0.19,-2.25,-0.88,0.4,0.28,-3.25,1.01
2022-01-31 9:59:27.9690,-0.095,1.247,-0.034,-2.25,-0.88,0.4,0.33,-3.53,0.75
2022-01-31 9:59:27.9900,-0.145,1.316,0.225,-2.25,-0.88,0.4,0.23,-3.45,0.4
2022-01-31 9:59:27.9910,-0.172,1.399,0.576,-2.25,-0.88,0.4,-0.18,-2.83,0.18
2022-01-31 9:59:27.9900,-0.134,1.309,1.112,-2.25,-0.88,0.4,-1.05,-1.8,0.05
2022-01-31 9:59:27.9940,-0.014,1.132,1.09,-2.25,-0.88,0.4,-1.51,-1.28,0.06
2022-01-31 9:59:27.9940,0.068,1.037,0.578,-2.25,-0.88,0.4,-1.62,-0.95,0.13
2022-01-31 9:59:27.9820,0.02,1.052,0.275,-2.25,-0.88,0.4,-1.42,-0.65,0.12
2022-01-31 9:59:27.9940,-0.025,1.031,0.044,-2.25,-0.88,0.4,-1.08,-0.53,0.15
2022-01-31 9:59:27.9980,-0.081,0.987,-0.093,-2.25,-0.88,0.4,-0.69,-0.45,0.09
2022-01-31 9:59:27.9980,-0.136,0.998,-0.112,-2.25,-0.88,0.4,-0.29,-0.3,-0.05
2022-01-31 9:59:27.9990,-0.121,1.003,-0.064,-2.25,-0.88,0.4,0.01,-0.2,-0.14
Time,-0.074,0.988,0.024,-2.25,-0.88,0.4,0.2,-0.02,-0.3
2022-01-31 9:59:27.9920,0.004,0.982,0.173,-2.25,-0.88,0.4,0.3,0.21,-0.19
2022-01-31 9:59:28.0020,0.053,0.936,0.21,-2.25,-0.88,0.4,0.14,0.12,-0.22
2022-01-31 9:59:28.0020,0.023,1.008,0.251,-2.25,-0.88,0.4,0.15,0.33,-0.22
2022-01-31 9:59:28.0030,0.031,1.013,0.232,-2.25,-0.88,0.4,0.12,0.41,-0.22
2022-01-31 9:59:28.0060,0.011,1.015,0.186,-2.25,-0.88,0.4,0.15,0.52,-0.25
2022-01-31 9:59:27.9990,0.005,1.018,0.158,-2.25,-0.88,0.4,0.24,0.64,-0.3
2022-01-31 9:59:27.9990,0.007,0.993,0.133,-2.25,-0.88,0.4,0.24,0.64,-0.3
2022-01-31 9:59:28.0070,0.013,0.958,0.13,-2.25,-0.88,0.4,0.42,0.77,-0.31
2022-01-31 9:59:28.0100,0.0,0.955,0.143,-2.25,-0.88,0.4,0.49,0.84,-0.32
2022-01-31 9:59:28.0110,-0.017,0.973,0.154,-2.25,-0.88,0.4,0.53,0.89,-0.35
2022-01-31 9:59:28.0110,-0.011,0.994,0.173,-2.25,-0.88,0.4,0.56,0.95,-0.39
2022-01-31 9:59:28.0030,0.028,0.978,0.188,-2.25,-0.88,0.4,0.52,0.95,-0.35
2022-01-31 9:59:28.0150,0.069,0.925,0.184,-2.25,-0.88,0.4,0.46,0.94,-0.27
2022-01-31 9:59:28.0040,0.08,0.91,0.177,-2.25,-0.88,0.4,0.43,0.96,-0.24
2022-01-31 9:59:28.0160,0.075,0.929,0.159,-2.25,-0.88,0.4,0.4,0.93,-0.22
2022-01-31 9:59:28.0150,0.063,0.956,0.131,-2.25,-0.88,0.4,0.37,0.89,-0.25
2022-01-31 9:59:28.0190,0.05,0.977,0.108,-2.25,-0.88,0.4,0.32,0.8,-0.26
2022-01-31 9:59:28.0100,0.044,0.974,0.081,-2.25,-0.88,0.4,0.26,0.68,-0.24
2022-01-31 9:59:28.0200,0.044,0.955,0.064,-2.25,-0.88,0.4,0.19,0.55,-0.19
2022-01-31 9:59:28.0210,0.027,0.964,0.057,-2.25,-0.88,0.4,0.15,0.46,-0.14
2022-01-31 9:59:28.0210,-0.029,1.019,0.054,-2.25,-0.88,0.4,0.15,0.4,-0.12
2022-01-31 9:59:28.0240,-0.096,1.073,0.061,-2.25,-0.88,0.4,0.15,0.36,-0.18
2022-01-31 9:59:28.0250,-0.131,1.09,0.07,-2.25,-0.88,0.4,0.17,0.34,-0.32
2022-01-31 9:59:28.0260,-0.133,1.082,0.081,-2.25,-0.88,0.4,0.12,0.27,-0.51
2022-01-31 9:59:28.0170,-0.082,1.013,0.073,-2.25,-0.88,0.4,-0.01,0.05,-0.62
2022-01-31 9:59:28.0170,0.045,0.842,0.046,-2.25,-0.88,0.4,-0.18,-0.23,-0.54
2022-01-31 9:59:28.0280,0.117,0.752,0.037,-2.25,-0.88,0.4,-0.28,-0.37,-0.39
2022-01-31 9:59:28.0280,0.114,0.788,0.042,-2.25,-0.88,0.4,-0.28,-0.37,-0.39
2022-01-31 9:59:28.0230,0.047,0.887,0.037,-2.25,-0.88,0.4,-0.04,-0.26,-0.27
2022-01-31 9:59:28.0290,-0.027,0.987,0.028,-2.25,-0.88,0.4,0.24,-0.07,-0.36
2022-01-31 9:59:28.0290,-0.033,0.982,0.012,-2.25,-0.88,0.4,0.48,-0.04,-0.53
2022-01-31 9:59:28.0290,-0.058,0.999,-0.062,-2.25,-0.88,0.4,0.43,-0.55,-0.92
2022-01-31 9:59:28.0330,-0.105,1.049,-0.136,-2.25,-0.88,0.4,0.21,-1.15,-1.18
2022-01-31 9:59:28.0320,-0.144,1.094,-0.103,-2.25,-0.88,0.4,-0.11,-1.64,-1.49
2022-01-31 9:59:28.0340,-0.295,1.292,0.014,-2.25,-0.88,0.4,-0.18,-1.57,-1.61
2022-01-31 9:59:28.0340,-0.232,0.946,0.209,-2.25,-0.88,0.4,-0.18,-1.57,-1.61
2022-01-31 9:59:28.0360,-0.212,0.783,0.459,-2.25,-0.88,0.4,0.52,0.81,0.4
2022-01-31 9:59:28.0360,-0.318,1.042,0.495,-2.25,-0.88,0.4,0.51,1.36,0.4
Time,-0.234,0.967,0.279,-2.25,-0.88,0.4,0.24,1.01,0.26
2022-01-31 9:59:28.0400,-0.123,0.951,0.171,-2.25,-0.88,0.4,-0.11,0.47,0.25
2022-01-31 9:59:28.0390,-0.007,0.934,0.146,-2.25,-0.88,0.4,-0.41,0.07,0.38
2022-01-31 9:59:28.0460,0.061,0.923,0.132,-2.25,-0.88,0.4,-0.57,-0.14,0.56
2022-01-31 9:59:28.0430,0.099,0.889,0.115,-2.25,-0.88,0.4,-0.66,-0.24,0.76
2022-01-31 9:59:28.0420,0.096,0.907,0.107,-2.25,-0.88,0.4,-0.69,-0.28,0.89
2022-01-31 9:59:28.0450,0.059,0.968,0.099,-2.25,-0.88,0.4,-0.68,-0.35,0.9
2022-01-31 9:59:28.0460,0.015,1.016,0.076,-2.25,-0.88,0.4,-0.69,-0.53,0.77
2022-01-31 9:59:28.0460,-0.019,1.043,0.047,-2.25,-0.88,0.4,-0.58,-0.64,0.68
2022-01-31 9:59:28.0490,-0.054,1.064,0.08,-2.25,-0.88,0.4,-0.37,-0.44,0.55
2022-01-31 9:59:28.0480,-0.098,1.084,0.104,-2.25,-0.88,0.4,-0.29,-0.35,0.47
2022-01-31 9:59:28.0490,-0.136,1.076,0.123,-2.25,-0.88,0.4,-0.25,-0.22,0.4
Time,-0.195,1.099,0.166,-2.25,-0.88,0.4,-0.2,-0.05,0.28
2022-01-31 9:59:28.0560,-0.24,1.097,0.184,-2.25,-0.88,0.4,-0.16,0.13,0.15
2022-01-31 9:59:28.0510,-0.211,1.039,0.175,-2.25,-0.88,0.4,-0.15,0.14,0.1
2022-01-31 9:59:28.0540,-0.145,0.971,0.153,-2.25,-0.88,0.4,-0.12,0.06,0.08
2022-01-31 9:59:28.0550,-0.111,0.968,0.154,-2.25,-0.88,0.4,-0.04,0.07,0.04
2022-01-31 9:59:28.0560,-0.079,0.982,0.17,-2.25,-0.88,0.4,0.04,0.13,0.01
2022-01-31 9:59:28.0590,-0.034,0.965,0.173,-2.25,-0.88,0.4,0.1,0.21,0.02
2022-01-31 9:59:28.0580,-0.013,0.966,0.165,-2.25,-0.88,0.4,0.09,0.21,0.04
Time,0.005,0.962,0.141,-2.25,-0.88,0.4,-0.02,0.06,0.11
Time,0.033,0.945,0.125,-2.25,-0.88,0.4,-0.17,-0.15,0.22
2022-01-31 9:59:28.0600,0.058,0.909,0.122,-2.25,-0.88,0.4,-0.23,-0.23,0.36
2022-01-31 9:59:28.0630,0.06,0.897,0.12,-2.25,-0.88,0.4,-0.28,-0.3,0.46
2022-01-31 9:59:28.0650,0.037,0.917,0.11,-2.25,-0.88,0.4,-0.29,-0.31,0.54
2022-01-31 9:59:28.0660,-0.004,0.942,0.14,-2.25,-0.88,0.4,-0.2,-0.13,0.56
2022-01-31 9:59:28.0670,-0.05,0.97,0.152,-2.25,-0.88,0.4,-0.1,0.02,0.55
2022-01-31 9:59:28.0670,-0.101,1.013,0.133,-2.25,-0.88,0.4,-0.1,0.02,0.55
2022-01-31 9:59:28.0670,-0.155,1.078,0.133,-2.25,-0.88,0.4,-0.01,-0.05,0.27
2022-01-31 9:59:28.0690,-0.169,1.104,0.178,-2.25,-0.88,0.4,0.05,0.12,0.14
2022-01-31 9:59:28.0700,-0.155,1.087,0.18,-2.25,-0.88,0.4,0.05,0.1,0.02
2022-01-31 9:59:28.0710,-0.047,0.997,0.103,-2.25,-0.88,0.4,-0.22,-0.54,-0.05
2022-01-31 9:59:28.0720,0.079,0.93,0.11,-2.25,-0.88,0.4,-0.39,-0.83,0.03
2022-01-31 9:59:28.0720,0.106,0.932,0.224,-2.25,-0.88,0.4,-0.45,-0.77,0.12
2022-01-31 9:59:28.0730,0.067,0.982,0.232,-2.25,-0.88,0.4,-0.44,-0.61,0.23
2022-01-31 9:59:28.0760,0.007,1.016,0.204,-2.25,-0.88,0.4,-0.39,-0.46,0.25
2022-01-31 9:59:28.0760,-0.05,1.039,0.163,-2.25,-0.88,0.4,-0.3,-0.34,0.21
2022-01-31 9:59:28.0770,-0.087,1.06,0.126,-2.25,-0.88,0.4,-0.11,-0.14,0.02
Time,-0.097,1.065,0.132,-2.25,-0.88,0.4,-0.11,-0.14,0.02
2022-01-31 9:59:28.0800,-0.054,1.021,0.153,-2.25,-0.88,0.4,-0.04,-0.04,-0.02
2022-01-31 9:59:28.0790,-0.006,0.993,0.165,-2.25,-0.88,0.4,-0.02,-0.02,-0.03
2022-01-31 9:59:28.0820,0.013,0.986,0.197,-2.25,-0.88,0.4,-0.04,-0.04,-0.03
2022-01-31 9:59:28.0830,0.02,0.97,0.2,-2.25,-0.88,0.4,-0.05,-0.12,-0.01
2022-01-31 9:59:28.0850,-0.0,1.0,0.208,-2.25,-0.88,0.4,-0.07,-0.13,0.0
2022-01-31 9:59:28.0840,0.025,0.896,0.273,-2.25,-0.88,0.4,0.33,0.96,0.35
2022-01-31 9:59:28.0850,-0.113,0.972,0.234,-2.25,-0.88,0.4,0.05,0.45,0.17
2022-01-31 9:59:28.0860,-0.145,0.988,0.157,-2.25,-0.88,0.4,0.1,0.31,0.03
2022-01-31 9:59:28.0880,-0.004,0.905,0.118,-2.25,-0.88,0.4,0.04,0.08,-0.01
2022-01-31 9:59:28.0880,0.03,0.978,0.136,-2.25,-0.88,0.4,0.06,0.09,-0.01
2022-01-31 9:59:28.0910,0.029,0.994,0.157,-2.25,-0.88,0.4,0.09,0.1,0.02
2022-01-31 9:59:28.0930,0.015,0.993,0.148,-2.25,-0.88,0.4,0.05,0.01,0.03
2022-01-31 9:59:28.0910,0.003,0.99,0.186,-2.25,-0.88,0.4,0.06,0.07,0.03
2022-01-31 9:59:28.0910,-0.021,1.047,0.186,-2.25,-0.88,0.4,-0.04,-0.03,0.01
2022-01-31 9:59:28.0940,-0.013,1.048,0.204,-2.25,-0.88,0.4,-0.07,-0.01,-0.02
2022-01-31 9:59:28.0940,0.031,0.979,0.171,-2.25,-0.88,0.4,-0.12,-0.13,0.03
Time,0.042,0.961,0.173,-2.25,-0.88,0.4,-0.17,-0.21,0.09
2022-01-31 9:59:28.0980,0.036,0.938,0.193,-2.25,-0.88,0.4,-0.18,-0.16,0.15
2022-01-31 9:59:28.0970,0.007,0.975,0.198,-2.25,-0.88,0.4,-0.15,-0.08,0.06
2022-01-31 9:59:28.0980,-0.012,0.977,0.144,-2.25,-0.88,0.4,-0.11,-0.18,0.01
2022-01-31 9:59:28.0990,0.01,0.942,0.146,-2.25,-0.88,0.4,-0.06,-0.13,0.02
2022-01-31 9:59:28.1010,0.005,0.945,0.162,-2.25,-0.88,0.4,0.0,-0.06,0.04
2022-01-31 9:59:28.1040,-0.014,0.939,0.164,-2.25,-0.88,0.4,0.04,0.0,0.05
2022-01-31 9:59:28.1040,-0.017,0.93,0.179,-0.76,-0.93,-0.54,0.08,0.09,0.09
2022-01-31 9:59:28.1050,-0.012,0.919,0.188,-0.76,-0.93,-0.54,0.13,0.2,0.15
2022-01-31 9:59:28.1060,0.001,0.912,0.186,-0.76,-0.93,-0.54,0.19,0.33,0.2
2022-01-31 9:59:28.1040,0.019,0.899,0.187,-0.76,-0.93,-0.54,0.27,0.48,0.28
2022-01-31 9:59:28.1080,0.035,0.886,0.168,-0.76,-0.93,-0.54,0.28,0.47,0.37
2022-01-31 9:59:28.1110,-0.03,0.988,0.159,-0.76,-0.93,-0.54,0.25,0.39,0.34
2022-01-31 9:59:28.1090,-0.144,1.154,0.162,-0.76,-0.93,-0.54,0.25,0.32,0.21
2022-01-31 9:59:28.1090,-0.206,1.229,0.156,-0.76,-0.93,-0.54,0.12,0.11,-0.07
2022-01-31 9:59:28.1120,-0.187,1.223,0.206,-0.76,-0.93,-0.54,0.21,0.41,-0.16
2022-01-31 9:59:28.1110,-0.093,1.111,0.211,-0.76,-0.93,-0.54,0.2,0.49,-0.3
2022-01-31 9:59:28.1130,0.0,1.06,0.148,-0.76,-0.93,-0.54,0.18,0.4,-0.37
2022-01-31 9:59:28.1160,0.148,0.966,0.131,-0.76,-0.93,-0.54,0.16,0.29,-0.28
Time,0.2,0.947,0.132,-0.76,-0.93,-0.54,0.15,0.19,-0.18
2022-01-31 9:59:28.1170,0.183,0.931,0.136,-0.76,-0.93,-0.54,0.12,0.08,-0.07
2022-01-31 9:59:28.1160,0.109,0.956,0.146,-0.76,-0.93,-0.54,0.03,-0.09,-0.02
2022-01-31 9:59:28.1180,0.02,0.984,0.165,-0.76,-0.93,-0.54,-0.06,-0.2,0.0
2022-01-31 9:59:28.1190,-0.034,0.98,0.186,-0.76,-0.93,-0.54,-0.12,-0.23,0.01
2022-01-31 9:59:28.1210,-0.055,0.961,0.181,-0.76,-0.93,-0.54,-0.18,-0.24,-0.0
2022-01-31 9:59:28.1230,-0.033,0.918,0.171,-0.76,-0.93,-0.54,-0.18,-0.17,0.02
2022-01-31 9:59:28.1230,0.006,0.874,0.167,-0.76,-0.93,-0.54,-0.04,0.11,0.07
2022-01-31 9:59:28.1240,-0.001,0.878,0.156,-0.76,-0.93,-0.54,0.04,0.23,0.09
2022-01-31 9:59:28.1240,-0.012,0.877,0.116,-0.76,-0.93,-0.54,0.18,0.37,0.12
2022-01-31 9:59:28.1250,-0.026,0.913,0.145,-0.76,-0.93,-0.54,0.31,0.55,0.06
2022-01-31 9:59:28.1280,-0.02,0.955,0.135,-0.76,-0.93,-0.54,0.39,0.64,0.01
2022-01-31 9:59:28.1290,-0.015,1.032,0.133,-0.76,-0.93,-0.54,0.41,0.61,-0.07
2022-01-31 9:59:28.1300,-0.028,1.138,0.14,-0.76,-0.93,-0.54,0.35,0.46,-0.17
2022-01-31 9:59:28.1300,-0.021,1.181,0.163,-0.76,-0.93,-0.54,0.28,0.35,-0.2
2022-01-31 9:59:28.1320,0.011,1.115,0.187,-0.76,-0.93,-0.54,0.19,0.27,-0.18
2022-01-31 9:59:28.1310,0.023,1.044,0.193,-0.76,-0.93,-0.54,0.11,0.21,-0.14
2022-01-31 9:59:28.1340,-0.007,1.027,0.199,-0.76,-0.93,-0.54,0.07,0.24,-0.11
2022-01-31 9:59:28.1370,-0.067,1.038,0.186,-0.76,-0.93,-0.54,-0.0,0.18,-0.2
2022-01-31 9:59:28.1360,-0.119,1.076,0.156,-0.76,-0.93,-0.54,-0.02,0.13,-0.3
2022-01-31 9:59:28.1370,-0.125,1.054,0.151,-0.76,-0.93,-0.54,0.1,0.33,-0.35
2022-01-31 9:59:28.1380,-0.102,0.982,0.167,-0.76,-0.93,-0.54,0.27,0.67,-0.4
2022-01-31 9:59:28.1380,-0.034,0.87,0.151,-0.76,-0.93,-0.54,0.37,0.87,-0.36
2022-01-31 9:59:28.1410,0.014,0.83,0.133,-0.76,-0.93,-0.54,0.44,0.94,-0.35
2022-01-31 9:59:28.1430,-0.01,0.914,0.131,-0.76,-0.93,-0.54,0.52,1.0,-0.38
2022-01-31 9:59:28.1430,-0.03,0.974,0.139,-0.76,-0.93,-0.54,0.54,0.99,-0.39
2022-01-31 9:59:28.1440,-0.027,0.982,0.148,-0.76,-0.93,-0.54,0.48,0.93,-0.36
2022-01-31 9:59:28.1440,-0.014,0.978,0.171,-0.76,-0.93,-0.54,0.48,0.93,-0.36
2022-01-31 9:59:28.1460,0.015,0.949,0.193,-0.76,-0.93,-0.54,0.31,0.9,-0.23
2022-01-31 9:59:28.1450,0.041,0.928,0.193,-0.76,-0.93,-0.54,0.21,0.87,-0.15
Time,0.056,0.914,0.192,-0.76,-0.93,-0.54,0.14,0.89,-0.08
2022-01-31 9:59:28.1500,0.071,0.899,0.198,-0.76,-0.93,-0.54,0.15,1.02,-0.03
2022-01-31 9:59:28.1490,-0.082,-0.266,-0.958,-0.76,-0.93,-0.54,0.09,0.35,0.02
2022-01-31 9:59:28.1500,-0.051,-0.278,-0.976,-0.76,-0.93,-0.54,0.16,0.37,0.03
2022-01-31 9:59:28.1510,-0.024,-0.289,-0.995,-0.76,-0.93,-0.54,0.22,0.33,0.05
2022-01-31 9:59:28.1550,-0.013,-0.292,-0.999,-0.76,-0.93,-0.54,0.22,0.33,0.05
2022-01-31 9:59:28.1550,-0.018,-0.288,-0.981,-0.76,-0.93,-0.54,0.26,0.22,0.07
2022-01-31 9:59:28.1560,-0.034,-0.283,-0.956,-0.76,-0.93,-0.54,0.26,0.23,0.06
Time,-0.056,-0.28,-0.939,-0.76,-0.93,-0.54,0.25,0.26,0.03
2022-01-31 9:59:28.1570,-0.065,-0.274,-0.936,-0.76,-0.93,-0.54,0.24,0.26,-0.01
2022-01-31 9:59:28.1570,-0.055,-0.274,-0.935,-0.76,-0.93,-0.54,0.21,0.23,-0.04
2022-01-31 9:59:28.1620,-0.028,-0.29,-0.922,-0.76,-0.93,-0.54,0.12,0.19,-0.03
2022-01-31 9:59:28.1610,-0.006,-0.312,-0.913,-0.76,-0.93,-0.54,-0.0,0.12,-0.01
2022-01-31 9:59:28.1630,-0.0,-0.319,-0.911,-0.76,-0.93,-0.54,-0.12,0.04,-0.0
2022-01-31 9:59:28.1670,-0.002,-0.311,-0.918,-0.76,-0.93,-0.54,-0.22,-0.03,-0.0
2022-01-31 9:59:28.1640,-0.006,-0.302,-0.921,-0.76,-0.93,-0.54,-0.27,-0.04,0.0
2022-01-31 9:59:28.1630,-0.022,-0.297,-0.923,-0.76,-0.93,-0.54,-0.29,0.02,0.0
2022-01-31 9:59:28.1640,-0.039,-0.292,-0.932,-0.76,-0.93,-0.54,-0.26,0.09,0.0
2022-01-31 9:59:28.1660,-0.048,-0.287,-0.944,-0.76,-0.93,-0.54,-0.21,0.15,-0.01
2022-01-31 9:59:28.1670,-0.046,-0.282,-0.946,-0.76,-0.93,-0.54,-0.2,0.18,-0.01
2022-01-31 9:59:28.1690,-0.039,-0.277,-0.935,-0.76,-0.93,-0.54,-0.21,0.22,-0.03
2022-01-31 9:59:28.1690,-0.036,-0.275,-0.924,-0.76,-0.93,-0.54,-0.27,0.24,-0.04
2022-01-31 9:59:28.1700,-0.03,-0.277,-0.917,-0.76,-0.93,-0.54,-0.35,0.24,-0.05
2022-01-31 9:59:28.1710,-0.023,-0.278,-0.917,-0.76,-0.93,-0.54,-0.45,0.21,-0.06
2022-01-31 9:59:28.1770,-0.02,-0.277,-0.918,-0.76,-0.93,-0.54,-0.55,0.18,-0.06
2022-01-31 9:59:28.1740,-0.014,-0.271,-0.918,-0.76,-0.93,-0.54,-0.67,0.14,-0.06
Time,-0.012,-0.265,-0.931,-0.76,-0.93,-0.54,-0.75,0.07,-0.07
2022-01-31 9:59:28.1770,-0.011,-0.259,-0.954,-0.76,-0.93,-0.54,-0.81,0.01,-0.07
2022-01-31 9:59:28.1770,-0.011,-0.248,-0.971,-0.76,-0.93,-0.54,-0.83,-0.02,-0.07
2022-01-31 9:59:28.1760,-0.014,-0.235,-0.982,-0.76,-0.93,-0.54,-0.8,-0.01,-0.07
2022-01-31 9:59:28.1790,-0.019,-0.223,-0.992,-0.76,-0.93,-0.54,-0.75,0.01,-0.08
2022-01-31 9:59:28.1840,-0.021,-0.216,-1.001,-0.76,-0.93,-0.54,-0.68,0.04,-0.08
2022-01-31 9:59:28.1810,-0.024,-0.21,-1.008,-0.76,-0.93,-0.54,-0.6,0.09,-0.07
2022-01-31 9:59:28.1810,-0.023,-0.203,-1.013,-0.76,-0.93,-0.54,-0.51,0.13,-0.08
2022-01-31 9:59:28.1830,-0.017,-0.197,-1.023,-0.76,-0.93,-0.54,-0.44,0.14,-0.08
2022-01-31 9:59:28.1820,-0.008,-0.194,-1.038,-0.76,-0.93,-0.54,-0.37,0.13,-0.08
2022-01-31 9:59:28.1850,-0.004,-0.188,-1.062,-0.76,-0.93,-0.54,-0.28,0.09,-0.08
2022-01-31 9:59:28.1860,-0.001,-0.179,-1.074,-0.76,-0.93,-0.54,-0.18,0.04,-0.09
2022-01-31 9:59:28.1860,0.005,-0.178,-1.066,-0.76,-0.93,-0.54,-0.1,-0.02,-0.08
2022-01-31 9:59:28.1870,0.009,-0.185,-1.044,-0.76,-0.93,-0.54,-0.06,-0.05,-0.08
2022-01-31 9:59:28.1920,0.009,-0.194,-1.023,-0.76,-0.93,-0.54,-0.04,-0.07,-0.07
2022-01-31 9:59:28.1880,0.014,-0.201,-1.02,-0.76,-0.93,-0.54,-0.0,-0.06,-0.06
2022-01-31 9:59:28.1900,0.016,-0.202,-1.018,-0.76,-0.93,-0.54,0.06,-0.03,-0.04
2022-01-31 9:59:28.1920,0.01,-0.202,-1.026,-0.76,-0.93,-0.54,0.17,0.03,-0.03
2022-01-31 9:59:28.1930,0.004,-0.205,-1.037,-0.76,-0.93,-0.54,0.31,0.07,-0.02
2022-01-31 9:59:28.1930,0.003,-0.204,-1.026,-0.76,-0.93,-0.54,0.41,0.12,-0.0
2022-01-31 9:59:28.1940,0.005,-0.203,-1.007,-0.76,-0.93,-0.54,0.48,0.2,0.0
2022-01-31 9:59:28.1940,0.008,-0.211,-0.998,-0.76,-0.93,-0.54,0.49,0.2,0.03
2022-01-31 9:59:28.1970,0.018,-0.225,-0.987,-0.76,-0.93,-0.54,0.45,0.16,0.04
2022-01-31 9:59:28.1970,0.022,-0.228,-0.975,-0.76,-0.93,-0.54,0.38,0.08,0.04
2022-01-31 9:59:28.1980,0.022,-0.223,-0.964,-0.76,-0.93,-0.54,0.31,0.01,0.02
2022-01-31 9:59:28.2000,0.022,-0.22,-0.969,-0.76,-0.93,-0.54,0.25,-0.07,0.01
2022-01-31 9:59:28.2000,0.013,-0.221,-0.973,-0.76,-0.93,-0.54,0.21,-0.13,0.0
2022-01-31 9:59:28.1980,-0.001,-0.223,-0.965,-0.76,-0.93,-0.54,0.16,-0.15,-0.01
2022-01-31 9:59:28.2030,-0.016,-0.219,-0.957,-0.76,-0.93,-0.54,0.13,-0.16,-0.03
2022-01-31 9:59:28.2040,-0.025,-0.21,-0.957,-0.76,-0.93,-0.54,0.11,-0.15,-0.06
2022-01-31 9:59:28.2040,-0.029,-0.205,-0.96,-0.76,-0.93,-0.54,0.13,-0.12,-0.09
2022-01-31 9:59:28.2060,-0.025,-0.213,-0.956,-0.76,-0.93,-0.54,0.17,-0.06,-0.09
2022-01-31 9:59:28.2070,-0.016,-0.229,-0.945,-0.76,-0.93,-0.54,0.19,0.01,-0.07
2022-01-31 9:59:28.2060,-0.006,-0.247,-0.937,-0.76,-0.93,-0.54,0.2,0.06,-0.03
2022-01-31 9:59:28.2090,-0.003,-0.253,-0.927,-0.76,-0.93,-0.54,0.16,0.09,0.01
2022-01-31 9:59:28.2200,-0.002,-0.245,-0.923,-0.76,-0.93,-0.54,0.1,0.08,0.01
2022-01-31 9:59:28.2300,-0.008,-0.233,-0.932,-0.76,-0.93,-0.54,0.03,0.04,-0.02
2022-01-31 9:59:28.2400,-0.017,-0.22,-0.947,-0.76,-0.93,-0.54,-0.02,-0.0,-0.06
2022-01-31 9:59:28.2500,-0.023,-0.209,-0.953,-0.76,-0.93,-0.54,-0.08,-0.04,-0.1
2022-01-31 9:59:28.2600,-0.021,-0.206,-0.954,-0.76,-0.93,-0.54,-0.13,-0.04,-0.14
Time,-0.012,-0.212,-0.956,-0.76,-0.93,-0.54,-0.16,-0.02,-0.16
2022-01-31 9:59:28.2800,0.004,-0.22,-0.962,0.36,-1.44,-1.49,-0.16,0.03,-0.15
2022-01-31 9:59:28.2900,0.02,-0.234,-0.974,0.36,-1.44,-1.49,-0.15,0.09,-0.11
Time,0.029,-0.241,-0.989,0.36,-1.44,-1.49,-0.13,0.11,-0.07
Time,0.03,-0.238,-1.008,0.36,-1.44,-1.49,-0.12,0.08,-0.06
2022-01-31 9:59:28.3200,0.024,-0.227,-1.021,-0.41,-1.02,2.11,-0.11,0.0,-0.07
2022-01-31 9:59:28.3300,0.016,-0.215,-1.016,-1.07,1.04,1.74,-0.11,-0.07,-0.09
2022-01-31 9:59:28.3410,0.01,-0.214,-0.991,2.0,0.63,0.68,-0.15,-0.12,-0.11
2022-01-31 9:59:28.3510,0.007,-0.226,-0.963,2.07,-0.19,-1.11,-0.21,-0.14,-0.13
2022-01-31 9:59:28.3610,0.008,-0.238,-0.945,-0.29,-0.55,-2.47,-0.28,-0.13,-0.12
2022-01-31 9:59:28.3710,0.013,-0.247,-0.945,0.79,-0.06,-0.48,-0.33,-0.1,-0.11
2022-01-31 9:59:28.3810,0.022,-0.253,-0.957,-0.4,0.61,-1.09,-0.36,-0.09,-0.07
Time,0.03,-0.252,-0.971,-0.69,-0.03,1.62,-0.36,-0.08,-0.04
2022-01-31 9:59:28.4010,0.029,-0.245,-0.988,-4.75,-0.32,-3.47,-0.33,-0.09,-0.0
2022-01-31 9:59:28.4110,0.022,-0.237,-0.999,0.87,-1.37,0.35,-0.27,-0.11,0.02
2022-01-31 9:59:28.4220,0.009,-0.227,-1.002,0.9,-2.29,2.03,-0.21,-0.12,0.03
Time,0.003,-0.22,-0.999,-0.71,0.5,-0.36,-0.13,-0.11,0.03
2022-01-31 9:59:28.4410,0.007,-0.218,-0.994,1.85,-0.26,-4.09,-0.06,-0.09,0.05
2022-01-31 9:59:28.4520,0.01,-0.219,-0.991,-0.66,0.7,0.63,0.01,-0.06,0.08
2022-01-31 9:59:28.4620,0.003,-0.217,-0.984,-0.16,-0.18,0.4,0.09,-0.03,0.09
2022-01-31 9:59:28.4720,-0.007,-0.214,-0.973,-1.76,0.32,0.5,0.15,0.01,0.11
2022-01-31 9:59:28.4820,-0.009,-0.212,-0.958,-0.02,0.23,0.03,0.17,0.04,0.12
2022-01-31 9:59:28.4920,-0.014,-0.205,-0.94,0.13,0.14,-0.43,0.14,0.08,0.12
Time,-0.017,-0.198,-0.937,-0.07,0.22,0.37,0.12,0.08,0.1
Time,-0.015,-0.196,-0.953,-0.28,0.23,0.34,0.11,0.06,0.08
2022-01-31 9:59:28.5210,-0.011,-0.194,-0.96,0.07,-0.02,-0.24,0.09,0.02,0.07
2022-01-31 9:59:28.5300,-0.005,-0.197,-0.957,0.02,-0.05,-0.21,0.04,-0.02,0.07
2022-01-31 9:59:28.5410,-0.001,-0.204,-0.951,-0.03,-0.01,-0.24,-0.04,-0.05,0.06
2022-01-31 9:59:28.5510,0.005,-0.205,-0.947,-0.09,0.06,-0.31,-0.1,-0.06,0.06
2022-01-31 9:59:28.5600,0.008,-0.204,-0.951,-0.15,0.06,-0.33,-0.14,-0.05,0.06
2022-01-31 9:59:28.5710,0.002,-0.203,-0.962,-0.16,0.07,-0.27,-0.14,-0.04,0.07
2022-01-31 9:59:28.5810,-0.006,-0.202,-0.972,-0.1,0.08,-0.16,-0.13,-0.02,0.07
2022-01-31 9:59:28.5910,-0.012,-0.198,-0.978,-0.02,0.06,-0.07,-0.1,0.01,0.08
2022-01-31 9:59:28.6010,-0.015,-0.197,-0.982,0.03,0.04,-0.02,-0.08,0.03,0.08
2022-01-31 9:59:28.6110,-0.018,-0.197,-0.982,0.05,0.04,0.01,-0.07,0.03,0.07
2022-01-31 9:59:28.6210,-0.02,-0.196,-0.979,0.09,0.05,0.0,-0.08,0.02,0.06
2022-01-31 9:59:28.6310,-0.018,-0.193,-0.975,0.09,0.04,-0.04,-0.09,0.04,0.05
2022-01-31 9:59:28.6410,-0.015,-0.192,-0.982,0.07,0.02,-0.07,-0.09,0.03,0.04
2022-01-31 9:59:28.6510,-0.015,-0.193,-0.993,0.05,0.02,0.02,-0.08,0.02,0.04
2022-01-31 9:59:28.6610,-0.02,-0.195,-0.995,0.07,0.04,0.11,-0.07,-0.01,0.04
2022-01-31 9:59:28.6710,-0.027,-0.194,-0.995,0.12,0.06,0.13,-0.06,-0.01,0.03
2022-01-31 9:59:28.6810,-0.035,-0.189,-0.989,0.19,0.04,0.11,-0.06,0.0,0.0
2022-01-31 9:59:28.6910,-0.038,-0.184,-0.991,0.27,0.0,0.05,-0.06,0.01,-0.02
2022-01-31 9:59:28.7020,-0.035,-0.179,-1.009,0.28,-0.04,0.12,-0.04,0.02,-0.04
2022-01-31 9:59:28.7120,-0.033,-0.175,-1.029,0.24,-0.1,0.3,0.01,0.0,-0.05
2022-01-31 9:59:28.7220,-0.026,-0.175,-1.039,0.22,-0.13,0.49,0.06,-0.02,-0.06
2022-01-31 9:59:28.7320,-0.019,-0.182,-1.036,0.14,-0.11,0.55,0.09,-0.04,-0.06
2022-01-31 9:59:28.7420,-0.012,-0.19,-1.02,0.08,-0.06,0.5,0.09,-0.07,-0.07
2022-01-31 9:59:28.7520,0.002,-0.201,-0.994,-0.01,0.02,0.31,0.06,-0.09,-0.06
2022-01-31 9:59:28.7620,0.013,-0.212,-0.974,-0.17,0.13,0.06,0.02,-0.1,-0.04
2022-01-31 9:59:28.7720,0.016,-0.222,-0.962,-0.26,0.24,-0.12,-0.02,-0.1,-0.01
2022-01-31 9:59:28.7820,0.016,-0.225,-0.957,-0.3,0.32,-0.22,-0.02,-0.05,0.02
2022-01-31 9:59:28.7920,0.005,-0.213,-0.927,-0.27,0.32,-0.26,0.34,0.32,0.05
2022-01-31 9:59:28.8020,0.017,-0.255,-0.923,-0.11,0.18,-0.64,0.57,0.58,0.21
2022-01-31 9:59:28.8140,0.06,-0.277,-0.895,-0.35,0.69,-0.59,0.66,0.71,0.3
2022-01-31 9:59:28.8230,0.047,-0.239,-0.92,-0.56,0.61,-0.82,0.51,0.53,0.29
2022-01-31 9:59:28.8320,0.031,-0.203,-0.931,-0.37,0.18,-0.51,0.19,0.14,0.21
2022-01-31 9:59:28.8430,0.007,-0.184,-0.932,-0.2,-0.15,-0.45,-0.18,-0.25,0.08
2022-01-31 9:59:28.8530,-0.02,-0.175,-0.926,0.03,-0.28,-0.46,-0.48,-0.55,-0.06
2022-01-31 9:59:28.8630,-0.033,-0.17,-0.929,0.22,-0.3,-0.54,-0.65,-0.69,-0.16
2022-01-31 9:59:28.8730,-0.027,-0.168,-0.928,0.23,-0.28,-0.5,-0.66,-0.59,-0.18
2022-01-31 9:59:28.8830,-0.026,-0.191,-0.937,0.11,-0.2,-0.53,-0.57,-0.39,-0.14
