time,gFx,gFy,gFz,ax,ay,az,wx,wy,wz
2022-02-08 11:15:38.9110,0.14,-0.191,-1.031,0.01,0.28,0.23,-0.22,-0.34,-0.14
2022-02-08 11:15:38.9200,0.142,-0.165,-1.039,-0.08,-0.14,0.64,-0.06,-0.21,-0.11
2022-02-08 11:15:38.9280,0.142,-0.165,-1.015,-0.09,-0.31,0.6,0.08,-0.07,-0.07
2022-02-08 11:15:38.9380,0.155,-0.193,-0.986,-0.12,-0.21,0.29,0.18,0.04,-0.0
2022-02-08 11:15:38.9480,0.179,-0.218,-0.973,-0.3,0.08,0.06,0.21,0.08,0.08
2022-02-08 11:15:38.9580,0.198,-0.229,-0.979,-0.54,0.24,0.03,0.21,0.02,0.15
2022-02-08 11:15:38.9680,0.166,-0.223,-0.949,-0.6,0.29,0.02,0.15,-0.12,0.18
2022-02-08 11:15:38.9780,0.103,-0.215,-0.903,-0.12,0.16,-0.41,0.05,-0.23,0.13
2022-02-08 11:15:38.9880,0.058,-0.213,-0.894,0.42,0.13,-0.76,-0.06,-0.28,0.04
2022-02-08 11:15:38.9980,0.042,-0.198,-0.912,0.76,0.07,-0.71,-0.11,-0.31,-0.08
2022-02-08 11:15:39.0080,0.067,-0.201,-0.923,0.72,-0.04,-0.54,-0.13,-0.33,-0.14
2022-02-08 11:15:39.0190,0.108,-0.23,-0.918,0.36,0.12,-0.51,-0.13,-0.32,-0.14
2022-02-08 11:15:39.0280,0.14,-0.25,-0.914,-0.07,0.43,-0.58,-0.14,-0.31,-0.1
2022-02-08 11:15:39.0390,0.143,-0.244,-0.918,-0.3,0.54,-0.59,-0.14,-0.28,-0.04
2022-02-08 11:15:39.0490,0.139,-0.228,-0.924,-0.31,0.44,-0.54,-0.13,-0.24,0.01
2022-02-08 11:15:39.0590,0.119,-0.215,-0.93,-0.25,0.29,-0.48,-0.1,-0.17,0.05
2022-02-08 11:15:39.0690,0.092,-0.203,-0.929,-0.02,0.18,-0.45,-0.07,-0.07,0.06
2022-02-08 11:15:39.0790,0.077,-0.206,-0.932,0.22,0.1,-0.46,-0.06,-0.02,0.05
2022-02-08 11:15:39.0890,0.075,-0.203,-0.944,0.3,0.16,-0.4,-0.08,-0.02,0.02
2022-02-08 11:15:39.0990,0.072,-0.191,-0.96,0.31,0.09,-0.26,-0.11,-0.01,-0.01
Time,0.074,-0.193,-0.968,0.34,0.0,-0.14,-0.12,0.01,-0.05
2022-02-08 11:15:39.1190,0.099,-0.209,-0.978,0.25,0.13,-0.05,-0.13,-0.02,-0.05
2022-02-08 11:15:39.1300,0.115,-0.209,-0.969,-0.03,0.25,0.0,-0.16,-0.08,-0.06
2022-02-08 11:15:39.1390,0.113,-0.2,-0.953,-0.09,0.2,-0.15,-0.19,-0.1,-0.05
2022-02-08 11:15:39.1500,0.111,-0.2,-0.945,-0.09,0.18,-0.3,-0.22,-0.1,-0.05
2022-02-08 11:15:39.1590,0.095,-0.202,-0.951,-0.01,0.2,-0.32,-0.23,-0.07,-0.05
2022-02-08 11:15:39.1700,0.099,-0.207,-0.966,0.09,0.27,-0.22,-0.21,-0.02,-0.04
2022-02-08 11:15:39.1800,0.113,-0.194,-0.974,0.0,0.29,-0.09,-0.19,0.02,-0.02
2022-02-08 11:15:39.1900,0.123,-0.171,-0.975,-0.15,0.11,-0.06,-0.19,0.05,-0.03
2022-02-08 11:15:39.2000,0.116,-0.163,-0.996,-0.17,-0.07,0.01,-0.18,0.08,-0.05
Time,0.105,-0.175,-1.005,-0.06,-0.03,0.22,-0.16,0.09,-0.06
2022-02-08 11:15:39.2200,0.109,-0.184,-1.008,0.02,0.11,0.24,-0.13,0.1,-0.05
2022-02-08 11:15:39.2300,0.108,-0.186,-1.013,-0.04,0.17,0.3,-0.11,0.09,-0.04
2022-02-08 11:15:39.2400,0.092,-0.199,-0.995,0.06,0.22,0.29,-0.12,0.02,-0.05
2022-02-08 11:15:39.2510,0.097,-0.208,-0.952,0.17,0.38,-0.01,-0.19,-0.0,-0.03
2022-02-08 11:15:39.2600,0.104,-0.2,-0.939,0.06,0.42,-0.39,-0.26,0.0,-0.01
2022-02-08 11:15:39.2700,0.098,-0.201,-0.96,0.06,0.37,-0.35,-0.3,0.0,0.02
2022-02-08 11:15:39.2800,0.103,-0.191,-0.991,0.1,0.44,-0.13,-0.28,0.02,0.05
2022-02-08 11:15:39.2910,0.116,-0.147,-1.032,-0.01,0.2,0.25,-0.21,0.04,0.06
2022-02-08 11:15:39.3000,0.107,-0.133,-1.052,-0.07,-0.18,0.58,-0.11,0.03,0.02
2022-02-08 11:15:39.3110,0.092,-0.151,-1.04,0.08,-0.14,0.68,-0.04,0.04,0.0
2022-02-08 11:15:39.3210,0.09,-0.157,-1.007,0.18,0.03,0.44,-0.04,0.04,-0.0
2022-02-08 11:15:39.3310,0.092,-0.159,-0.979,0.2,0.03,0.12,-0.06,0.07,-0.02
2022-02-08 11:15:39.3410,0.113,-0.182,-0.97,0.13,0.15,-0.11,-0.1,0.07,-0.03
2022-02-08 11:15:39.3510,0.131,-0.183,-0.971,-0.11,0.36,-0.09,-0.16,0.03,-0.01
2022-02-08 11:15:39.3610,0.114,-0.179,-0.95,-0.17,0.3,-0.2,-0.23,0.02,-0.01
2022-02-08 11:15:39.3710,0.098,-0.176,-0.963,0.07,0.34,-0.32,-0.23,0.05,0.0
Time,0.108,-0.141,-0.991,0.12,0.22,-0.11,-0.17,0.1,0.0
2022-02-08 11:15:39.3910,0.119,-0.11,-1.027,0.01,-0.17,0.2,-0.08,0.12,-0.04
2022-02-08 11:15:39.4010,0.114,-0.114,-1.027,-0.05,-0.33,0.5,-0.02,0.1,-0.07
2022-02-08 11:15:39.4110,0.105,-0.115,-0.974,0.06,-0.25,0.26,-0.03,0.12,-0.1
2022-02-08 11:15:39.4210,0.125,-0.115,-0.938,0.1,-0.28,-0.27,-0.05,0.21,-0.09
2022-02-08 11:15:39.4320,0.145,-0.128,-0.953,-0.18,-0.21,-0.44,-0.04,0.28,-0.1
2022-02-08 11:15:39.4420,0.12,-0.138,-0.967,-0.15,-0.09,-0.21,-0.07,0.3,-0.11
2022-02-08 11:15:39.4520,0.112,-0.163,-0.959,0.15,0.07,-0.16,-0.13,0.31,-0.1
2022-02-08 11:15:39.4620,0.133,-0.183,-0.959,0.08,0.34,-0.27,-0.18,0.29,-0.07
2022-02-08 11:15:39.4720,0.12,-0.173,-0.98,0.03,0.46,-0.16,-0.19,0.28,-0.05
2022-02-08 11:15:39.4820,0.123,-0.158,-1.016,0.15,0.31,0.09,-0.14,0.25,-0.05
2022-02-08 11:15:39.4920,0.112,-0.163,-1.044,0.15,0.25,0.48,-0.12,0.12,-0.05
2022-02-08 11:15:39.5020,0.095,-0.173,-1.032,0.34,0.35,0.6,-0.16,-0.07,-0.03
Time,0.124,-0.162,-0.981,0.32,0.41,0.33,-0.2,-0.14,0.0
2022-02-08 11:15:39.5220,0.134,-0.139,-0.941,0.01,0.27,-0.22,-0.23,-0.12,0.01
2022-02-08 11:15:39.5320,0.102,-0.109,-0.927,0.08,0.01,-0.48,-0.25,-0.01,-0.0
2022-02-08 11:15:39.5420,0.085,-0.107,-0.94,0.44,-0.16,-0.57,-0.21,0.14,-0.01
2022-02-08 11:15:39.5520,0.106,-0.103,-0.991,0.46,-0.15,-0.26,-0.11,0.23,-0.01
2022-02-08 11:15:39.5630,0.133,-0.107,-1.017,0.22,-0.18,0.22,-0.02,0.23,-0.0
Time,0.151,-0.121,-1.006,-0.01,-0.08,0.33,0.0,0.16,0.0
2022-02-08 11:15:39.5830,0.153,-0.118,-0.967,-0.11,0.02,0.11,-0.03,0.09,0.0
2022-02-08 11:15:39.5930,0.151,-0.119,-0.929,-0.1,-0.05,-0.33,-0.07,0.04,0.0
Time,0.154,-0.148,-0.923,-0.08,0.09,-0.58,-0.11,-0.02,0.03
2022-02-08 11:15:39.6130,0.17,-0.189,-0.916,-0.18,0.43,-0.59,-0.15,-0.08,0.13
2022-02-08 11:15:39.6230,0.201,-0.213,-0.896,-0.37,0.85,-0.77,-0.21,-0.14,0.27
2022-02-08 11:15:39.6330,0.21,-0.19,-0.901,-0.73,0.93,-0.84,-0.26,-0.19,0.37
2022-02-08 11:15:39.6380,0.194,-0.145,-0.895,-0.66,0.6,-0.85,-0.27,-0.22,0.41
2022-02-08 11:15:39.6530,0.195,-0.113,-0.91,-0.6,0.19,-0.86,-0.23,-0.24,0.41
2022-02-08 11:15:39.6630,0.2,-0.109,-0.914,-0.65,-0.01,-0.7,-0.13,-0.27,0.38
2022-02-08 11:15:39.6730,0.21,-0.105,-0.893,-0.75,0.0,-0.79,-0.02,-0.31,0.38
Time,0.228,-0.093,-0.836,-0.91,-0.12,-1.04,0.08,-0.3,0.4
2022-02-08 11:15:39.6930,0.25,-0.119,-0.71,-1.14,-0.12,-1.91,0.07,-0.19,0.48
2022-02-08 11:15:39.7040,0.263,-0.13,-0.622,-1.36,0.17,-3.14,-0.05,-0.08,0.6
Time,0.25,-0.066,-0.631,-1.43,0.03,-3.65,-0.19,-0.1,0.73
2022-02-08 11:15:39.7240,0.241,0.066,-0.717,-1.24,-0.85,-3.3,-0.14,-0.54,0.97
2022-02-08 11:15:39.7340,0.293,0.162,-0.824,-1.55,-2.33,-2.16,0.36,-1.54,1.47
Time,0.279,0.042,-0.811,-2.25,-2.52,-1.57,0.97,-2.38,1.74
2022-02-08 11:15:39.7540,0.152,-0.086,-0.751,-1.82,-1.2,-1.97,1.45,-2.55,1.59
2022-02-08 11:15:39.7640,0.075,-0.143,-0.689,-0.87,-0.38,-2.53,1.55,-1.88,1.25
2022-02-08 11:15:39.7740,0.046,-0.14,-0.584,-0.48,-0.15,-3.28,1.12,-0.6,0.95
2022-02-08 11:15:39.7840,0.043,-0.09,-0.539,-0.23,-0.49,-4.23,0.37,0.61,0.75
2022-02-08 11:15:39.7940,0.09,-0.052,-0.594,-0.37,-0.97,-4.28,-0.32,1.14,0.63
2022-02-08 11:15:39.8040,0.151,-0.038,-0.715,-0.75,-1.2,-3.45,-0.77,1.01,0.58
2022-02-08 11:15:39.8140,0.214,-0.034,-0.827,-1.4,-1.17,-2.21,-1.0,0.61,0.61
2022-02-08 11:15:39.8240,0.21,-0.033,-0.905,-1.74,-1.13,-1.27,-1.03,0.39,0.65
2022-02-08 11:15:39.8350,0.205,-0.064,-0.926,-1.57,-0.93,-0.66,-0.96,0.48,0.73
Time,0.183,-0.073,-0.891,-1.47,-0.55,-0.76,-0.92,0.81,0.81
2022-02-08 11:15:39.8550,0.159,-0.067,-0.911,-1.07,-0.49,-1.02,-0.87,1.25,0.91
2022-02-08 11:15:39.8650,0.186,-0.06,-1.011,-0.88,-0.47,-0.49,-0.75,1.54,1.03
2022-02-08 11:15:39.8750,0.227,-0.044,-1.136,-1.13,-0.51,0.66,-0.55,1.6,1.16
2022-02-08 11:15:39.8850,0.215,-0.02,-1.243,-1.24,-0.68,1.88,-0.26,1.53,1.24
2022-02-08 11:15:39.8950,0.176,0.018,-1.261,-0.83,-0.96,2.69,-0.04,1.48,1.19
2022-02-08 11:15:39.9050,0.137,0.038,-1.231,-0.31,-1.34,2.57,0.06,1.47,1.01
Time,0.111,0.018,-1.217,0.2,-1.41,2.38,0.01,1.49,0.78
2022-02-08 11:15:39.9250,0.126,-0.017,-1.182,0.44,-1.1,2.19,-0.18,1.43,0.58
Time,0.155,-0.03,-1.162,0.34,-0.81,1.87,-0.45,1.3,0.44
2022-02-08 11:15:39.9450,0.195,-0.06,-1.18,0.13,-0.62,1.82,-0.69,1.17,0.37
2022-02-08 11:15:39.9550,0.25,-0.102,-1.226,-0.22,-0.17,2.15,-0.86,1.06,0.39
2022-02-08 11:15:39.9650,0.295,-0.117,-1.288,-0.66,0.26,2.65,-0.9,1.0,0.47
2022-02-08 11:15:39.9760,0.31,-0.105,-1.376,-0.93,0.35,3.38,-0.79,0.89,0.57
2022-02-08 11:15:39.9860,0.294,-0.086,-1.426,-0.87,0.25,4.22,-0.62,0.68,0.64
2022-02-08 11:15:39.9960,0.265,-0.064,-1.388,-0.61,0.09,4.4,-0.51,0.43,0.64
Time,0.212,-0.051,-1.314,-0.22,-0.08,3.81,-0.5,0.19,0.56
Time,0.175,-0.056,-1.246,0.32,-0.11,3.1,-0.53,0.02,0.46
2022-02-08 11:15:40.0880,0.181,-0.084,-1.172,-0.02,0.84,1.26,-0.4,0.09,0.64
2022-02-08 11:15:40.0880,0.21,-0.123,-1.116,-0.02,0.84,1.26,-0.4,0.09,0.64
2022-02-08 11:15:40.0880,0.27,-0.14,-1.083,-0.02,0.84,1.26,-0.4,0.09,0.64
2022-02-08 11:15:40.0880,0.303,-0.132,-1.101,-0.02,0.84,1.26,-0.4,0.09,0.64
2022-02-08 11:15:40.0880,0.223,-0.116,-1.17,-0.02,0.84,1.26,-0.4,0.09,0.64
2022-02-08 11:15:40.0880,0.193,-0.109,-1.182,-0.02,0.84,1.26,-0.4,0.09,0.64
2022-02-08 11:15:40.0880,0.188,-0.088,-1.192,-0.02,0.84,1.26,-0.4,0.09,0.64
2022-02-08 11:15:40.0880,0.214,-0.074,-1.186,-0.02,0.84,1.26,-0.33,-0.04,0.58
2022-02-08 11:15:40.1030,0.228,-0.076,-1.191,-0.02,0.84,1.26,-0.28,-0.2,0.51
2022-02-08 11:15:40.1200,0.224,-0.081,-1.185,-0.02,0.84,1.26,-0.22,-0.36,0.45
2022-02-08 11:15:40.1300,0.215,-0.084,-1.145,-0.69,0.97,1.03,-0.15,-0.47,0.4
2022-02-08 11:15:40.1400,0.189,-0.085,-1.1,0.1,0.59,1.48,-0.08,-0.45,0.37
2022-02-08 11:15:40.1470,0.164,-0.085,-1.076,0.34,0.6,1.08,0.0,-0.37,0.34
2022-02-08 11:15:40.1570,0.161,-0.084,-1.083,0.48,0.57,0.97,0.12,-0.3,0.3
2022-02-08 11:15:40.1670,0.177,-0.083,-1.09,0.4,0.54,1.06,0.22,-0.31,0.27
2022-02-08 11:15:40.1770,0.19,-0.078,-1.09,0.2,0.5,1.09,0.28,-0.39,0.23
2022-02-08 11:15:40.1870,0.191,-0.078,-1.063,0.07,0.41,1.04,0.3,-0.45,0.19
2022-02-08 11:15:40.1970,0.181,-0.095,-1.028,0.06,0.45,0.64,0.29,-0.46,0.15
2022-02-08 11:15:40.2090,0.175,-0.113,-1.024,0.12,0.61,0.42,0.28,-0.48,0.14
2022-02-08 11:15:40.2180,0.173,-0.111,-1.014,0.12,0.61,0.42,0.27,-0.49,0.13
2022-02-08 11:15:40.2270,0.172,-0.095,-1.009,0.12,0.61,0.42,0.27,-0.49,0.1
2022-02-08 11:15:40.2370,0.176,-0.071,-1.029,0.12,0.61,0.42,0.29,-0.49,0.06
2022-02-08 11:15:40.2480,0.179,-0.057,-1.051,0.12,0.61,0.42,0.35,-0.51,0.01
2022-02-08 11:15:40.2580,0.18,-0.06,-1.054,0.12,0.61,0.42,0.39,-0.54,-0.05
2022-02-08 11:15:40.2690,0.184,-0.073,-1.032,0.12,0.61,0.42,0.4,-0.54,-0.07
2022-02-08 11:15:40.2780,0.192,-0.094,-0.996,0.12,0.61,0.42,0.39,-0.51,-0.05
2022-02-08 11:15:40.2880,0.202,-0.107,-0.983,0.12,0.61,0.42,0.38,-0.5,-0.02
2022-02-08 11:15:40.2980,0.21,-0.105,-0.987,0.12,0.61,0.42,0.37,-0.5,0.02
2022-02-08 11:15:40.3090,0.206,-0.096,-0.997,0.12,0.61,0.42,0.37,-0.53,0.04
2022-02-08 11:15:40.3180,0.2,-0.078,-1.017,0.12,0.61,0.42,0.39,-0.6,0.04
2022-02-08 11:15:40.3280,0.19,-0.057,-1.012,0.12,0.61,0.42,0.42,-0.68,0.01
2022-02-08 11:15:40.3380,0.172,-0.05,-0.978,0.12,0.61,0.42,0.43,-0.72,-0.04
2022-02-08 11:15:40.3480,0.156,-0.054,-0.927,0.12,0.61,0.42,0.4,-0.7,-0.1
2022-02-08 11:15:40.8340,0.152,-0.072,-0.892,0.04,-1.7,-3.64,3.85,5.78,-7.13
2022-02-08 11:15:40.8340,0.166,-0.1,-0.882,0.04,-1.7,-3.64,3.85,5.78,-7.13
2022-02-08 11:15:40.8340,0.189,-0.11,-0.891,0.04,-1.7,-3.64,3.85,5.78,-7.13
2022-02-08 11:15:40.8340,0.193,-0.092,-0.876,0.04,-1.7,-3.64,3.85,5.78,-7.13
2022-02-08 11:15:40.8340,0.175,-0.066,-0.852,0.04,-1.7,-3.64,3.85,5.78,-7.13
2022-02-08 11:15:40.8340,0.154,-0.053,-0.85,0.04,-1.7,-3.64,3.85,5.78,-7.13
2022-02-08 11:15:40.8340,0.128,-0.052,-0.83,0.04,-1.7,-3.64,3.85,5.78,-7.13
2022-02-08 11:15:40.8340,0.103,-0.059,-0.75,0.04,-1.7,-3.64,3.85,5.78,-7.13
2022-02-08 11:15:40.8340,0.095,-0.072,-0.699,0.04,-1.7,-3.64,3.85,5.78,-7.13
2022-02-08 11:15:40.8340,0.113,-0.091,-0.744,0.04,-1.7,-3.64,3.85,5.78,-7.13
2022-02-08 11:15:40.8340,0.154,-0.087,-0.824,0.04,-1.7,-3.64,3.85,5.78,-7.13
2022-02-08 11:15:40.8340,0.182,-0.056,-0.856,0.04,-1.7,-3.64,3.85,5.78,-7.13
2022-02-08 11:15:40.8340,0.17,-0.026,-0.864,0.04,-1.7,-3.64,3.85,5.78,-7.13
2022-02-08 11:15:40.8340,0.141,-0.022,-0.843,0.04,-1.7,-3.64,3.85,5.78,-7.13
2022-02-08 11:15:40.8340,0.109,-0.028,-0.779,0.04,-1.7,-3.64,3.85,5.78,-7.13
2022-02-08 11:15:40.8340,0.082,-0.028,-0.706,0.04,-1.7,-3.64,3.85,5.78,-7.13
2022-02-08 11:15:40.8340,0.075,0.003,-0.64,0.04,-1.7,-3.64,3.85,5.78,-7.13
2022-02-08 11:15:40.8340,0.083,0.038,-0.562,0.04,-1.7,-3.64,3.85,5.78,-7.13
2022-02-08 11:15:40.8340,0.084,0.037,-0.47,0.04,-1.7,-3.64,3.85,5.78,-7.13
2022-02-08 11:15:40.8340,0.076,0.045,-0.365,0.04,-1.7,-3.64,3.85,5.78,-7.13
2022-02-08 11:15:40.8340,0.057,0.048,-0.239,0.04,-1.7,-3.64,3.85,5.78,-7.13
2022-02-08 11:15:40.8340,0.014,0.028,-0.155,0.04,-1.7,-3.64,3.85,5.78,-7.13
2022-02-08 11:15:40.8340,0.016,0.037,-0.087,0.04,-1.7,-3.64,3.85,5.78,-7.13
2022-02-08 11:15:40.8340,0.054,0.087,0.022,0.04,-1.7,-3.64,3.85,5.78,-7.13
2022-02-08 11:15:40.8340,0.076,0.156,0.183,0.04,-1.7,-3.64,3.85,5.78,-7.13
Time,0.053,0.277,0.405,0.04,-1.7,-3.64,3.85,5.78,-7.13
Time,0.005,0.372,0.642,0.04,-1.7,-3.64,3.85,5.78,-7.13
Time,0.0,0.423,0.78,0.04,-1.7,-3.64,3.85,5.78,-7.13
Time,0.061,0.48,0.785,0.04,-1.7,-3.64,3.85,5.78,-7.13
Time,0.194,0.602,0.64,0.04,-1.7,-3.64,3.85,5.78,-7.13
Time,0.33,0.713,0.452,0.04,-1.7,-3.64,3.85,5.78,-7.13
Time,0.461,0.773,0.279,0.04,-1.7,-3.64,3.85,5.78,-7.13
Time,0.599,0.815,0.094,0.04,-1.7,-3.64,3.85,5.78,-7.13
Time,0.745,0.876,0.006,0.04,-1.7,-3.64,3.85,5.78,-7.13
Time,0.818,0.98,-0.011,0.04,-1.7,-3.64,3.85,5.78,-7.13
Time,0.859,1.086,-0.021,0.04,-1.7,-3.64,3.85,5.78,-7.13
Time,1.058,1.172,0.02,0.04,-1.7,-3.64,3.85,5.78,-7.13
Time,1.212,1.328,0.059,0.04,-1.7,-3.64,3.85,5.78,-7.13
Time,1.309,1.515,-0.061,0.04,-1.7,-3.64,3.85,5.78,-7.13
Time,1.626,1.537,-0.256,0.04,-1.7,-3.64,3.85,5.78,-7.13
Time,2.065,1.464,-0.266,0.04,-1.7,-3.64,3.85,5.78,-7.13
Time,2.477,1.431,-0.273,0.04,-1.7,-3.64,3.85,5.78,-7.13
Time,2.844,1.413,-0.41,0.04,-1.7,-3.64,3.85,5.78,-7.13
2022-02-08 11:15:40.8350,3.14,1.319,-0.503,0.04,-1.7,-3.64,4.11,4.25,-6.48
Time,3.239,1.176,-0.388,0.04,-1.7,-3.64,4.37,2.82,-5.69
2022-02-08 11:15:40.8360,3.146,1.142,-0.089,0.04,-1.7,-3.64,4.38,1.85,-5.14
2022-02-08 11:15:40.8380,3.029,1.2,0.198,0.04,-1.7,-3.64,4.19,1.23,-4.86
2022-02-08 11:15:40.8370,3.033,1.214,0.324,0.04,-1.7,-3.64,4.03,0.79,-4.7
2022-02-08 11:15:40.8430,3.093,1.093,0.344,0.04,-1.7,-3.64,3.99,0.43,-4.45
2022-02-08 11:15:40.8500,3.086,0.813,0.513,0.04,-1.7,-3.64,3.78,0.13,-3.95
2022-02-08 11:15:40.8610,3.001,0.508,0.711,0.04,-1.7,-3.64,3.14,-0.34,-3.29
2022-02-08 11:15:40.8630,2.837,0.348,0.815,0.04,-1.7,-3.64,2.0,-1.01,-2.59
2022-02-08 11:15:40.8730,2.561,0.394,0.689,0.04,-1.7,-3.64,0.9,-1.64,-1.86
2022-02-08 11:15:40.8900,2.355,0.403,0.371,0.04,-1.7,-3.64,0.12,-2.41,-1.22
2022-02-08 11:15:40.8970,2.06,0.47,0.101,0.04,-1.7,-3.64,-0.38,-3.03,-0.76
Time,1.862,0.534,-0.165,0.04,-1.7,-3.64,-0.71,-4.44,-0.45
2022-02-08 11:15:40.9200,1.717,0.639,-0.156,0.04,-1.7,-3.64,-1.04,-5.93,-0.19
2022-02-08 11:15:40.9300,1.504,0.783,-0.156,0.04,-1.7,-3.64,-1.08,-6.79,-0.12
Time,1.329,0.815,-0.182,0.04,-1.7,-3.64,-0.7,-7.07,-0.19
2022-02-08 11:15:40.9490,1.219,0.758,-0.129,0.04,-1.7,-3.64,-0.13,-6.65,-0.27
2022-02-08 11:15:40.9610,1.223,0.675,-0.113,0.04,-1.7,-3.64,0.53,-5.88,-0.2
2022-02-08 11:15:40.9700,1.325,0.528,-0.171,0.04,-1.7,-3.64,1.35,-5.02,0.17
Time,1.399,0.346,-0.068,0.04,-1.7,-3.64,2.27,-3.31,0.85
2022-02-08 11:15:40.9890,1.372,0.137,0.014,0.04,-1.7,-3.64,3.17,-1.36,1.59
Time,1.298,-0.009,0.077,0.04,-1.7,-3.64,3.77,0.29,2.39
2022-02-08 11:15:41.0090,1.164,-0.036,0.205,0.04,-1.7,-3.64,3.98,1.91,3.13
2022-02-08 11:15:41.0220,1.007,-0.167,0.319,0.04,-1.7,-3.64,3.8,3.4,3.77
2022-02-08 11:15:41.0220,0.991,-0.55,0.108,0.04,-1.7,-3.64,3.67,4.44,4.52
Time,1.009,-0.662,0.032,0.04,-1.7,-3.64,3.49,5.04,5.38
2022-02-08 11:15:41.0520,1.181,-0.758,0.048,0.04,-1.7,-3.64,3.12,5.78,6.34
2022-02-08 11:15:41.0580,1.409,-0.874,-0.03,0.04,-1.7,-3.64,2.77,6.18,7.33
2022-02-08 11:15:41.0710,0.792,-0.299,0.212,0.07,-1.96,-4.48,1.92,6.52,7.36
2022-02-08 11:15:41.0780,0.138,0.494,0.37,0.07,-1.96,-4.48,0.69,6.6,5.99
2022-02-08 11:15:41.0910,0.434,0.645,0.204,0.07,-1.96,-4.48,-0.7,5.66,4.64
2022-02-08 11:15:41.1020,0.731,0.337,-0.089,0.07,-1.96,-4.48,-1.56,4.51,4.1
2022-02-08 11:15:41.1080,0.768,0.237,0.011,0.07,-1.96,-4.48,-2.02,3.72,3.99
2022-02-08 11:15:41.1220,1.842,-0.809,0.151,0.07,-1.96,-4.48,-2.52,3.07,5.51
2022-02-08 11:15:41.1270,0.765,0.08,0.059,0.07,-1.96,-4.48,-2.46,2.37,4.8
2022-02-08 11:15:41.1410,-0.003,0.502,-0.202,0.07,-1.96,-4.48,-2.14,2.29,3.5
2022-02-08 11:15:41.1530,0.508,-0.128,-0.192,0.07,-1.96,-4.48,-1.73,2.78,3.47
2022-02-08 11:15:41.1590,0.591,0.095,-0.432,0.07,-1.96,-4.48,-0.54,3.18,3.76
2022-02-08 11:15:41.1720,0.346,0.445,-0.497,0.07,-1.96,-4.48,0.66,3.14,3.14
2022-02-08 11:15:41.1790,-0.029,0.709,-0.293,0.07,-1.96,-4.48,1.14,2.39,1.44
2022-02-08 11:15:41.1930,-0.039,0.591,0.199,0.07,-1.96,-4.48,0.52,0.9,-0.01
2022-02-08 11:15:41.2000,0.222,0.495,0.918,0.07,-1.96,-4.48,-1.19,-0.3,-0.49
2022-02-08 11:15:41.2130,0.257,0.751,1.341,0.07,-1.96,-4.48,-3.08,-0.88,-0.67
2022-02-08 11:15:41.2200,0.018,0.983,1.174,0.07,-1.96,-4.48,-4.48,-1.17,-1.49
2022-02-08 11:15:41.2330,-0.276,1.161,0.718,0.23,-2.03,-5.36,-5.26,-1.25,-2.95
2022-02-08 11:15:41.2390,-0.322,1.2,0.365,0.23,-2.03,-5.36,-5.74,-1.5,-4.8
2022-02-08 11:15:41.2530,-0.031,1.046,0.21,0.23,-2.03,-5.36,-6.19,-1.96,-6.67
Time,0.64,1.032,0.24,0.23,-2.03,-5.36,-6.43,-0.58,-7.76
Time,1.349,0.968,-0.239,0.23,-2.03,-5.36,-5.68,0.94,-7.33
Time,0.875,0.64,-1.093,0.23,-2.03,-5.36,-3.4,3.18,-7.06
2022-02-08 11:15:41.2910,0.333,0.846,-1.205,0.23,-2.03,-5.36,-1.06,4.64,-8.66
2022-02-08 11:15:41.2960,1.094,1.358,-0.925,0.23,-2.03,-5.36,0.3,4.7,-10.52
2022-02-08 11:15:41.3130,1.826,0.627,-1.725,0.23,-2.03,-5.36,2.31,2.66,-11.07
2022-02-08 11:15:41.3220,3.245,-0.426,-0.61,0.23,-2.03,-5.36,3.38,1.85,-9.28
2022-02-08 11:15:41.3330,2.743,0.256,0.087,0.23,-2.03,-5.36,4.17,2.37,-7.78
2022-02-08 11:15:41.3380,1.924,0.73,-0.083,0.23,-2.03,-5.36,5.13,2.31,-6.7
2022-02-08 11:15:41.3540,1.518,0.871,-0.071,0.5,-2.22,-6.48,5.67,0.85,-5.86
2022-02-08 11:15:41.3590,1.511,1.061,0.319,0.5,-2.22,-6.48,5.45,-0.42,-4.98
2022-02-08 11:15:41.3730,1.521,1.044,0.932,0.5,-2.22,-6.48,4.12,-1.62,-4.02
2022-02-08 11:15:41.3850,1.128,0.8,1.375,0.5,-2.22,-6.48,2.52,-1.14,-3.45
Time,0.669,0.578,1.662,0.5,-2.22,-6.48,1.12,0.14,-3.17
2022-02-08 11:15:41.4060,0.598,0.603,1.354,0.5,-2.22,-6.48,0.53,0.97,-2.8
2022-02-08 11:15:41.4110,0.682,0.967,1.011,1.01,-2.23,-7.57,0.9,1.75,-2.75
2022-02-08 11:15:41.4240,0.82,1.102,0.606,1.01,-2.23,-7.57,1.7,2.46,-3.05
Time,1.021,0.858,0.274,1.01,-2.23,-7.57,2.38,2.57,-3.42
2022-02-08 11:15:41.4420,1.192,0.585,-0.002,1.01,-2.23,-7.57,2.51,1.56,-3.7
2022-02-08 11:15:41.4550,1.453,0.481,-0.135,1.01,-2.23,-7.57,2.23,-0.04,-3.31
2022-02-08 11:15:41.4620,1.846,0.624,-0.229,1.62,-2.17,-8.18,1.63,-1.56,-0.36
2022-02-08 11:15:41.4740,2.015,0.853,-0.225,1.62,-2.17,-8.18,0.43,-1.78,3.77
2022-02-08 11:15:41.4790,1.712,1.046,-0.17,1.62,-2.17,-8.18,-0.51,-1.72,5.76
2022-02-08 11:15:41.4940,1.122,1.184,-0.319,1.62,-2.17,-8.18,-1.09,-2.56,6.45
2022-02-08 11:15:41.4990,0.845,1.114,-0.077,1.7,-2.58,-8.88,-1.9,-3.33,6.68
2022-02-08 11:15:41.5140,0.64,0.932,0.258,1.7,-2.58,-8.88,-2.62,-3.6,6.41
Time,0.343,0.8,0.304,1.7,-2.58,-8.88,-3.05,-3.96,5.48
2022-02-08 11:15:41.5330,0.192,0.997,0.456,1.74,-3.3,-10.0,-3.36,-3.99,4.12
2022-02-08 11:15:41.5390,-0.238,1.579,0.581,1.74,-3.3,-10.0,-3.33,-3.33,2.26
Time,-0.751,2.059,0.523,1.74,-3.3,-10.0,-3.18,-2.88,0.5
2022-02-08 11:15:41.5630,-0.656,2.313,0.598,2.1,-4.33,-11.63,-2.67,-2.17,-0.15
2022-02-08 11:15:41.5760,-0.143,1.914,0.082,2.1,-4.33,-11.63,-1.28,-0.73,0.41
2022-02-08 11:15:41.5830,0.211,1.111,-0.595,2.1,-4.33,-11.63,0.46,0.84,1.08
2022-02-08 11:15:41.5960,0.257,0.529,-0.541,3.05,-5.76,-13.75,1.54,2.08,1.39
2022-02-08 11:15:41.6030,-0.128,0.536,-0.05,3.05,-5.76,-13.75,1.55,3.31,1.01
2022-02-08 11:15:41.6080,-0.438,0.693,0.076,4.02,-6.6,-15.47,0.85,4.58,-0.01
2022-02-08 11:15:41.6250,-0.352,0.686,-0.213,4.02,-6.6,-15.47,0.16,5.21,-1.12
Time,-0.152,0.611,-0.46,4.02,-6.6,-15.47,-0.06,5.33,-1.91
2022-02-08 11:15:41.6430,-0.014,0.508,-0.254,4.59,-7.16,-15.98,0.38,5.95,-2.14
2022-02-08 11:15:41.6560,0.082,0.586,-0.154,4.4,-7.93,-14.95,0.71,6.14,-2.24
2022-02-08 11:15:41.6610,0.092,0.786,-0.18,4.4,-7.93,-14.95,0.86,5.95,-2.64
2022-02-08 11:15:41.6760,-0.047,0.872,-0.756,3.76,-9.17,-12.67,1.95,5.24,-3.3
2022-02-08 11:15:41.6810,0.079,0.881,-0.945,3.76,-9.17,-12.67,3.65,4.78,-3.63
2022-02-08 11:15:41.6950,0.392,0.996,-0.775,3.17,-9.89,-10.27,5.38,4.34,-3.49
2022-02-08 11:15:41.7000,0.913,1.036,-0.245,3.17,-9.89,-10.27,6.38,3.64,-2.74
2022-02-08 11:15:41.7150,1.332,0.934,0.046,2.5,-10.18,-7.89,6.44,1.3,-1.76
2022-02-08 11:15:41.7200,1.454,0.664,0.754,2.5,-10.18,-7.89,4.96,-2.78,-1.18
2022-02-08 11:15:41.7350,1.126,0.07,1.499,1.66,-10.3,-5.53,2.39,-4.01,-2.03
2022-02-08 11:15:41.7480,0.717,-0.892,1.242,1.66,-10.3,-5.53,-0.23,-1.68,-2.67
2022-02-08 11:15:41.7540,1.42,-0.371,0.432,0.84,-10.8,-4.44,-0.84,-1.22,-1.4
Time,1.612,1.022,0.387,0.84,-10.8,-4.44,-0.66,-1.91,-0.27
2022-02-08 11:15:41.7740,0.99,1.453,0.348,0.9,-11.45,-3.54,-1.0,-2.61,0.07
2022-02-08 11:15:41.7800,0.77,1.38,0.36,0.9,-11.45,-3.54,-1.6,-2.8,0.43
2022-02-08 11:15:41.7960,0.818,1.264,0.401,0.29,-11.97,-2.81,-2.2,-2.73,0.66
2022-02-08 11:15:41.8020,0.804,1.115,0.512,0.29,-11.97,-2.81,-2.84,-2.33,0.58
2022-02-08 11:15:41.8160,0.792,0.964,0.588,-1.58,-12.43,-2.6,-3.61,-1.91,0.31
Time,0.931,0.812,0.505,-1.58,-12.43,-2.6,-4.61,-2.31,0.2
2022-02-08 11:15:41.8360,1.106,0.788,0.565,-2.42,-13.71,-1.68,-5.45,-2.84,0.41
Time,1.206,1.059,0.839,-2.42,-13.71,-1.68,-5.52,-2.52,0.91
2022-02-08 11:15:41.8550,1.313,1.42,0.925,-3.95,-14.4,0.86,-4.43,-2.04,1.69
2022-02-08 11:15:41.8690,1.296,1.666,0.765,-3.95,-14.4,0.86,-2.27,-2.57,3.02
2022-02-08 11:15:41.8740,0.902,1.867,0.841,-7.86,-13.33,2.98,-0.67,-3.17,3.97
2022-02-08 11:15:41.8800,0.303,2.267,1.178,-7.86,-13.33,2.98,-0.36,-3.2,3.79
2022-02-08 11:15:41.8980,-0.282,2.5,1.301,-12.31,-11.97,3.3,-1.3,-3.41,2.97
2022-02-08 11:15:41.9040,-0.58,2.355,1.156,-12.31,-11.97,3.3,-2.35,-4.0,2.49
Time,-0.665,1.919,0.577,-12.31,-11.97,3.3,-2.96,-5.37,2.27
2022-02-08 11:15:41.9260,-0.779,1.499,-0.142,-16.45,-11.06,4.45,-2.49,-5.89,1.78
2022-02-08 11:15:41.9390,-0.768,1.099,-0.787,-20.16,-10.02,6.16,-1.34,-5.62,1.22
2022-02-08 11:15:41.9450,-0.738,0.745,-1.145,-20.16,-10.02,6.16,0.05,-4.7,0.65
2022-02-08 11:15:41.9590,-0.817,0.391,-1.713,-22.79,-8.16,6.57,1.83,-4.56,0.08
2022-02-08 11:15:41.9650,-0.856,0.139,-1.495,-22.79,-8.16,6.57,3.21,-3.89,-0.55
2022-02-08 11:15:41.9790,-1.014,0.011,-0.778,-23.19,-6.47,4.59,3.64,-2.75,-1.19
2022-02-08 11:15:41.9850,-1.262,-0.342,-0.371,-23.19,-6.47,4.59,2.7,-0.8,-1.97
2022-02-08 11:15:41.9990,-1.343,-0.489,-0.501,-22.26,-6.14,1.38,1.92,0.12,-3.02
2022-02-08 11:15:42.0040,-1.206,-0.147,-0.558,-22.26,-6.14,1.38,1.6,0.59,-4.14
Time,-1.034,0.426,-0.382,-22.26,-6.14,1.38,1.51,1.19,-5.27
2022-02-08 11:16:25.0350,-0.62,0.805,-0.267,-21.74,-6.23,-1.14,1.72,2.01,-6.17
2022-02-08 11:16:25.0710,0.007,0.859,-0.273,7.67,-6.93,6.2,2.24,2.67,-6.56
2022-02-08 11:16:25.0720,0.548,0.837,-0.175,7.67,-6.93,6.2,2.98,3.15,-6.73
2022-02-08 11:15:42.0110,1.881,1.588,0.149,8.88,-6.3,-2.47,3.49,3.73,-7.17
2022-02-08 11:16:25.0730,5.236,2.845,1.232,6.9,-6.79,-9.41,3.03,1.37,-3.64
2022-02-08 11:16:25.0340,6.032,3.229,2.854,7.67,-9.52,-11.34,0.9,-3.89,0.27
2022-02-08 11:16:25.0380,4.476,2.322,4.033,7.67,-9.52,-11.34,-0.05,0.43,1.48
2022-02-08 11:16:25.0800,2.746,0.609,2.018,11.92,-11.49,-1.51,-2.62,0.77,0.72
2022-02-08 11:16:25.0750,2.218,-0.293,0.854,3.18,-3.48,14.26,-5.55,-0.32,0.34
2022-02-08 11:16:25.0350,2.155,0.092,0.865,-4.45,-8.33,15.37,-7.03,-0.28,0.18
2022-02-08 11:16:25.0870,1.991,1.201,0.228,-16.83,1.5,1.63,-6.81,-2.86,0.84
2022-02-08 11:16:25.0830,1.513,2.366,-0.215,-2.15,-2.2,-0.73,-4.96,-7.26,2.27
2022-02-08 11:16:25.0780,0.855,2.653,0.498,-2.15,-2.2,-0.73,-4.0,-8.46,3.16
2022-02-08 11:16:25.0780,0.286,2.351,0.788,-2.15,-2.2,-0.73,-3.92,-7.71,3.48
2022-02-08 11:16:25.0850,0.014,1.843,0.422,3.64,-0.54,-3.32,-2.92,-6.7,3.75
Time,-0.218,1.488,0.328,3.64,-0.54,-3.32,-0.81,-4.34,3.73
2022-02-08 11:16:25.1000,-0.426,1.304,0.741,3.64,-0.54,-3.32,0.24,-0.58,3.6
2022-02-08 11:16:25.0970,-0.556,0.922,0.853,3.64,-0.54,-3.32,0.48,3.05,3.65
2022-02-08 11:16:25.0970,-0.59,0.578,0.65,5.7,-4.45,-5.45,0.47,5.79,3.51
2022-02-08 11:16:25.0980,-0.564,0.548,0.278,5.7,-4.45,-5.45,0.55,7.45,2.83
2022-02-08 11:16:25.1000,-0.401,0.424,0.044,5.7,-4.45,-5.45,0.79,8.44,2.12
2022-02-08 11:16:25.1000,-0.316,0.353,-0.032,11.26,-10.27,-5.33,1.11,9.03,1.52
2022-02-08 11:16:25.1010,-0.345,0.326,-0.22,11.26,-10.27,-5.33,1.5,9.07,1.0
2022-02-08 11:16:25.1020,-0.469,-0.156,-1.721,11.26,-10.27,-5.33,2.52,5.12,1.0
2022-02-08 11:16:25.1030,-0.643,0.572,0.149,11.26,-10.27,-5.33,1.43,6.42,0.52
2022-02-08 11:16:25.1030,-0.678,0.728,0.304,14.45,-14.38,-5.64,0.68,7.58,-0.18
2022-02-08 11:16:25.1070,-0.545,0.545,-0.279,11.36,-14.87,-4.77,1.14,7.4,-1.06
2022-02-08 11:16:25.1120,-0.226,0.347,-0.488,11.36,-14.87,-4.77,1.86,5.52,-1.79
2022-02-08 11:16:25.1080,0.396,0.196,-0.739,11.36,-14.87,-4.77,1.86,0.83,-2.39
2022-02-08 11:16:25.1070,0.997,0.566,-0.189,6.45,-8.8,2.24,2.68,-2.76,-2.97
2022-02-08 11:16:25.1080,1.472,1.388,0.825,6.45,-8.8,2.24,3.39,-3.35,-4.55
Time,2.04,1.891,1.553,6.45,-8.8,2.24,3.02,-1.95,-5.25
2022-02-08 11:16:25.1170,2.312,2.268,2.189,4.14,-1.14,6.7,1.33,0.97,-4.66
2022-02-08 11:16:25.1120,2.164,2.627,2.333,4.14,-1.14,6.7,-0.37,4.83,-4.55
2022-02-08 11:16:25.1190,1.933,2.725,1.783,4.14,-1.14,6.7,-1.61,7.93,-4.43
2022-02-08 11:16:25.1150,2.101,2.937,1.197,4.14,-1.14,6.7,-2.65,9.39,-3.58
2022-02-08 11:16:25.1230,1.653,2.897,0.072,5.41,2.37,3.7,-3.1,7.95,-2.59
2022-02-08 11:16:25.1180,1.657,2.545,-1.288,9.29,0.56,4.61,-2.72,3.62,-1.52
2022-02-08 11:16:25.1180,1.4,1.961,-2.121,9.29,0.56,4.61,-1.93,-2.29,-0.33
2022-02-08 11:16:25.1190,1.102,1.357,-1.893,4.97,1.11,3.58,-0.9,-6.98,0.93
2022-02-08 11:16:25.1190,0.895,0.844,-1.535,4.97,1.11,3.58,0.48,-9.55,2.21
2022-02-08 11:16:25.1200,0.331,0.708,-0.948,4.97,1.11,3.58,2.2,-8.63,2.92
2022-02-08 11:16:25.1290,-0.491,0.799,-0.762,4.97,1.11,3.58,4.23,-5.13,2.52
Time,-1.294,0.786,-0.648,4.97,1.11,3.58,5.97,-0.77,1.2
2022-02-08 11:16:25.1290,-1.521,0.559,-0.203,4.97,1.11,3.58,6.47,2.43,-0.13
2022-02-08 11:16:25.1340,-1.236,0.152,0.343,4.99,-0.52,5.25,5.37,4.92,-0.61
2022-02-08 11:16:25.1410,-0.912,-0.196,0.335,-6.71,-1.15,2.79,3.96,6.13,-0.53
2022-02-08 11:16:25.1360,-0.732,-0.364,-0.04,-5.34,18.45,-8.28,2.65,5.55,-0.45
2022-02-08 11:16:25.1360,-0.618,-0.427,-0.16,-5.34,18.45,-8.28,2.13,4.87,-0.31
2022-02-08 11:16:25.1350,-0.573,-0.544,-0.11,-5.34,18.45,-8.28,2.07,4.65,-0.08
2022-02-08 11:16:25.1360,-0.442,-0.521,-0.053,-5.34,18.45,-8.28,2.09,4.71,0.31
2022-02-08 11:16:25.1460,-0.247,-0.483,0.002,-5.34,18.45,-8.28,2.14,5.05,0.94
2022-02-08 11:16:25.1400,-0.121,-0.492,0.09,-12.64,7.11,-3.51,2.32,5.85,1.72
2022-02-08 11:16:25.1460,-0.1,-0.611,0.162,-12.64,7.11,-3.51,2.66,7.19,2.33
2022-02-08 11:16:25.1460,-0.242,-0.437,0.318,-10.17,-3.51,-3.47,3.19,9.32,2.38
2022-02-08 11:16:25.1470,-0.815,-0.005,0.716,-10.17,-3.51,-3.47,2.91,11.53,1.84
2022-02-08 11:16:25.1470,-1.545,0.478,0.906,-4.76,-5.05,-3.18,1.81,12.85,0.88
2022-02-08 11:16:25.1500,-1.547,0.544,0.156,-4.76,-5.05,-3.18,1.27,12.53,-0.05
2022-02-08 11:16:25.1500,-1.102,0.716,-1.032,-4.76,-5.05,-3.18,2.17,7.51,-1.42
2022-02-08 11:16:25.1510,-0.24,1.37,-2.185,-4.12,-3.97,-3.33,3.84,-3.79,-2.56
2022-02-08 11:16:25.1540,0.021,1.64,-0.649,-4.12,-3.97,-3.33,3.75,-7.61,-3.91
2022-02-08 11:16:25.1600,0.217,2.12,0.473,-4.44,-2.82,-3.8,2.57,-7.05,-4.66
2022-02-08 11:16:25.1540,0.414,2.52,1.04,-4.44,-2.82,-3.8,1.07,-4.63,-5.11
2022-02-08 11:16:25.1560,0.753,2.899,0.901,-4.01,-1.3,-4.8,-0.13,-2.74,-5.03
Time,1.019,2.985,0.469,-4.01,-1.3,-4.8,-0.83,-1.62,-4.59
Time,1.073,2.905,0.165,-4.01,-1.3,-4.8,-1.13,-0.79,-4.01
2022-02-08 11:16:25.1660,0.971,2.819,-0.037,-4.01,-1.3,-4.8,-1.17,-0.04,-3.7
2022-02-08 11:16:25.1630,0.709,2.682,-0.128,-4.4,0.11,-4.6,-1.18,0.32,-3.68
2022-02-08 11:16:25.1610,0.608,2.659,-0.156,-4.4,0.11,-4.6,-0.81,0.51,-3.49
2022-02-08 11:16:25.1610,0.582,2.559,-0.068,-4.4,0.11,-4.6,-0.18,0.52,-3.37
2022-02-08 11:16:25.1630,0.459,2.429,0.089,-4.4,0.11,-4.6,0.26,0.33,-3.43
Time,0.416,2.327,0.385,-4.4,0.11,-4.6,-0.05,0.26,-3.54
2022-02-08 11:16:25.1690,0.586,2.162,0.76,-6.04,1.36,-3.43,-1.1,0.61,-3.35
2022-02-08 11:16:25.1680,0.992,1.722,0.81,-6.04,1.36,-3.43,-2.01,1.44,-2.33
2022-02-08 11:16:25.1670,1.006,1.371,0.664,-6.04,1.36,-3.43,-2.54,2.26,-1.27
2022-02-08 11:16:25.1690,0.724,1.05,-0.003,-6.04,1.36,-3.43,-2.36,1.75,-0.47
2022-02-08 11:16:25.1690,0.37,0.992,-0.013,-6.04,1.36,-3.43,-2.26,1.53,-0.06
2022-02-08 11:16:25.1700,0.108,1.196,0.078,-6.04,1.36,-3.43,-2.24,1.57,-0.08
2022-02-08 11:16:25.1690,-0.139,1.425,0.037,-6.04,1.36,-3.43,-2.2,1.68,-0.52
2022-02-08 11:16:25.1750,-0.276,1.211,-0.065,-7.36,0.38,-4.81,-2.1,1.55,-0.94
2022-02-08 11:16:25.1760,-0.161,0.75,-0.162,-7.36,0.38,-4.81,-1.92,1.23,-1.03
2022-02-08 11:16:25.1750,0.001,0.344,-0.23,-7.36,0.38,-4.81,-1.63,0.92,-0.87
2022-02-08 11:16:25.1770,0.087,0.111,-0.268,-7.36,0.38,-4.81,-1.27,0.65,-0.59
2022-02-08 11:16:25.1770,0.11,-0.017,-0.267,-7.36,0.38,-4.81,-0.9,0.44,-0.29
2022-02-08 11:16:25.1770,0.106,-0.075,-0.245,-7.36,0.38,-4.81,-0.57,0.28,0.03
2022-02-08 11:16:25.1810,0.075,-0.113,-0.249,-7.36,0.38,-4.81,-0.25,0.08,0.36
2022-02-08 11:16:25.1820,0.046,-0.153,-0.322,-7.36,0.38,-4.81,0.12,-0.12,0.76
2022-02-08 11:16:25.1870,0.014,-0.252,-0.395,-7.36,0.38,-4.81,0.43,-0.16,1.33
2022-02-08 11:16:25.1830,-0.03,-0.305,-0.329,-7.36,0.38,-4.81,0.54,0.21,1.97
2022-02-08 11:16:25.1830,-0.019,-0.27,-0.324,-7.36,0.38,-4.81,0.5,0.83,2.58
2022-02-08 11:16:25.1830,-0.037,-0.147,-0.406,-7.36,0.38,-4.81,0.38,1.21,2.99
2022-02-08 11:16:25.1860,-0.054,-0.031,-0.441,-7.36,0.38,-4.81,0.31,1.3,3.27
2022-02-08 11:16:25.1880,-0.067,0.106,-0.395,-7.36,0.38,-4.81,0.36,1.2,3.48
2022-02-08 11:16:25.1890,-0.158,0.302,-0.145,-7.36,0.38,-4.81,0.03,0.19,3.7
2022-02-08 11:16:25.1890,-0.307,0.572,0.125,-7.36,0.38,-4.81,-0.64,-1.41,4.0
2022-02-08 11:16:25.1880,-0.443,0.964,0.159,-7.36,0.38,-4.81,-1.12,-2.28,4.46
2022-02-08 11:16:25.1890,-0.833,1.826,0.069,-8.16,-3.08,-6.76,-0.99,-2.86,4.6
2022-02-08 11:16:25.1910,-1.348,3.099,-0.095,-8.16,-3.08,-6.76,-0.03,-3.47,3.61
2022-02-08 11:16:25.1940,-1.391,3.778,0.072,-8.16,-3.08,-6.76,1.04,-3.87,1.73
2022-02-08 11:16:25.1940,-0.956,3.442,0.496,-8.16,-3.08,-6.76,1.46,-3.49,-0.11
Time,-0.562,2.767,0.709,-8.16,-3.08,-6.76,1.09,-2.52,-1.3
2022-02-08 11:16:25.1950,-0.246,2.078,0.828,-8.16,-3.08,-6.76,0.49,-1.0,-1.76
Time,0.01,1.468,0.714,-8.16,-3.08,-6.76,0.12,0.56,-1.67
2022-02-08 11:16:25.1970,0.079,1.058,0.5,-8.16,-3.08,-6.76,0.04,1.77,-1.45
2022-02-08 11:16:25.2000,0.411,0.446,0.409,-8.16,-3.08,-6.76,0.2,3.41,-3.41
2022-02-08 11:16:25.1990,1.156,-0.164,0.614,-8.16,-3.08,-6.76,0.29,5.89,-5.27
2022-02-08 11:16:25.2010,0.852,0.315,0.289,-8.16,-3.08,-6.76,-0.85,5.64,-3.05
Time,0.462,0.518,0.152,-8.16,-3.08,-6.76,-1.78,4.91,-0.85
2022-02-08 11:16:25.2030,0.382,0.78,-0.249,-8.16,-3.08,-6.76,-2.14,3.29,-0.45
2022-02-08 11:16:25.2020,0.039,1.159,-0.373,-8.16,-3.08,-6.76,-1.81,2.12,0.21
2022-02-08 11:16:25.2040,-0.178,1.256,-0.337,-8.16,-3.08,-6.76,-1.2,1.22,0.59
2022-02-08 11:16:25.2050,-0.187,1.062,-0.272,-8.16,-3.08,-6.76,-0.48,0.44,0.72
2022-02-08 11:16:25.2080,-0.179,0.82,-0.039,-8.16,-3.08,-6.76,0.37,0.49,0.73
2022-02-08 11:16:25.2090,-0.204,0.593,0.018,-8.16,-3.08,-6.76,0.95,0.6,0.94
2022-02-08 11:16:25.2080,-0.359,0.517,-0.115,-8.16,-3.08,-6.76,1.07,0.31,1.25
2022-02-08 11:16:25.2090,-0.394,0.438,-0.082,-8.16,-3.08,-6.76,1.12,0.37,1.37
2022-02-08 11:16:25.2100,-0.367,0.364,-0.1,-8.16,-3.08,-6.76,1.15,0.36,1.24
2022-02-08 11:16:25.2120,-0.379,0.311,-0.115,-8.16,-3.08,-6.76,1.2,0.35,1.05
2022-02-08 11:16:25.2140,-0.432,0.336,-0.119,-8.16,-3.08,-6.76,1.29,0.51,0.9
2022-02-08 11:16:25.2140,-0.463,0.45,-0.122,-8.16,-3.08,-6.76,1.3,0.81,0.99
2022-02-08 11:16:25.2150,-0.564,0.688,-0.1,-8.16,-3.08,-6.76,1.15,1.35,1.3
2022-02-08 11:16:25.2170,-0.806,1.134,-0.2,-8.16,-3.08,-6.76,0.93,1.93,1.64
Time,-1.076,1.647,-0.487,-8.16,-3.08,-6.76,0.87,2.16,1.49
2022-02-08 11:16:25.2180,-1.423,2.245,-0.827,-8.16,-3.08,-6.76,1.07,1.82,0.55
2022-02-08 11:16:25.2240,-1.439,2.583,-0.831,-8.16,-3.08,-6.76,1.22,1.03,-0.62
2022-02-08 11:16:25.2200,-0.711,2.773,0.948,-8.16,-3.08,-6.76,-0.66,-3.3,-1.11
Time,-0.176,2.16,1.633,-8.16,-3.08,-6.76,-2.03,-6.2,-0.94
2022-02-08 11:16:25.2220,-0.405,1.546,0.787,-8.78,-6.54,-6.42,-1.77,-6.33,-0.64
2022-02-08 11:16:25.2220,-0.597,1.305,0.054,-8.78,-6.54,-6.42,-1.77,-6.33,-0.64
2022-02-08 11:16:25.2210,-0.717,1.246,-0.445,-8.78,-6.54,-6.42,-1.22,-5.94,-0.75
2022-02-08 11:16:25.2260,-0.752,1.217,-0.688,-8.78,-6.54,-6.42,-0.65,-5.97,-0.92
2022-02-08 11:16:25.2280,-0.722,1.114,-0.759,-8.78,-6.54,-6.42,-0.14,-6.22,-1.05
2022-02-08 11:16:25.2270,-0.676,0.983,-0.701,-8.78,-6.54,-6.42,0.23,-6.45,-1.1
2022-02-08 11:16:25.2290,-0.648,0.857,-0.66,-8.78,-6.54,-6.42,0.52,-6.67,-1.08
2022-02-08 11:16:25.2280,-0.604,0.731,-0.655,-8.78,-6.54,-6.42,0.78,-7.05,-1.02
2022-02-08 11:16:25.2290,-0.506,0.569,-0.561,-8.78,-6.54,-6.42,0.97,-7.39,-0.92
2022-02-08 11:16:25.2320,-0.386,0.419,-0.386,-8.78,-6.54,-6.42,1.07,-7.57,-0.76
2022-02-08 11:16:25.2330,-0.231,0.293,-0.272,-8.78,-6.54,-6.42,1.13,-7.68,-0.55
2022-02-08 11:16:25.2330,-0.098,0.207,-0.304,-8.78,-6.54,-6.42,1.26,-7.59,-0.32
2022-02-08 11:16:25.2340,-0.04,0.16,-0.368,-8.78,-6.54,-6.42,1.46,-7.02,-0.12
2022-02-08 11:16:25.2360,0.049,0.125,-0.416,-8.78,-6.54,-6.42,1.64,-6.03,0.17
2022-02-08 11:16:25.2400,0.071,0.13,-0.351,-8.78,-6.54,-6.42,1.57,-4.7,0.47
2022-02-08 11:16:25.2380,-0.042,0.227,-0.275,-8.78,-6.54,-6.42,1.14,-3.4,0.59
2022-02-08 11:16:25.2400,-0.167,0.384,-0.276,-8.78,-6.54,-6.42,0.38,-2.46,0.51
2022-02-08 11:16:25.2440,-0.291,0.636,-0.402,-8.78,-6.54,-6.42,-0.63,-2.09,0.14
2022-02-08 11:16:25.2400,-0.398,0.941,-0.624,-8.78,-6.54,-6.42,-1.58,-2.1,-0.57
2022-02-08 11:16:25.2420,-0.371,1.185,-0.877,-8.78,-6.54,-6.42,-2.11,-2.13,-1.51
2022-02-08 11:16:25.2460,-0.207,1.335,-1.096,-8.78,-6.54,-6.42,-2.19,-2.14,-2.4
2022-02-08 11:16:25.2460,0.133,1.409,-1.227,-8.78,-6.54,-6.42,-1.89,-1.71,-2.84
2022-02-08 11:16:25.2450,0.337,1.491,-1.105,-8.78,-6.54,-6.42,-1.52,-1.11,-3.02
2022-02-08 11:16:25.2460,0.407,1.649,-0.953,-8.78,-6.54,-6.42,-1.17,-0.85,-3.19
2022-02-08 11:16:25.2470,0.542,1.89,-1.042,-8.78,-6.54,-6.42,-0.47,-2.45,-3.47
2022-02-08 11:16:25.2460,0.663,1.996,-0.978,-8.78,-6.54,-6.42,0.41,-4.54,-3.75
2022-02-08 11:16:25.2480,0.71,1.849,-0.602,-8.78,-6.54,-6.42,0.85,-5.62,-3.8
2022-02-08 11:16:25.2550,0.8,1.638,-0.256,-8.78,-6.54,-6.42,0.89,-5.56,-3.46
2022-02-08 11:16:25.2520,0.848,1.44,-0.041,-8.78,-6.54,-6.42,0.82,-4.71,-2.96
2022-02-08 11:16:25.2520,0.731,1.302,-0.113,-8.78,-6.54,-6.42,1.08,-3.94,-2.79
2022-02-08 11:16:25.2540,0.583,1.154,-0.233,-8.78,-6.54,-6.42,1.96,-3.55,-3.17
2022-02-08 11:16:25.2590,0.46,0.975,-0.28,-8.78,-6.54,-6.42,3.61,-3.22,-3.85
2022-02-08 11:16:25.2540,0.456,0.779,-0.064,-8.78,-6.54,-6.42,5.14,-2.35,-4.11
2022-02-08 11:16:25.2580,0.496,0.684,0.213,-8.78,-6.54,-6.42,5.96,-0.98,-3.71
2022-02-08 11:16:25.2570,0.483,0.681,0.385,-8.78,-6.54,-6.42,6.32,0.61,-3.03
2022-02-08 11:16:25.2590,0.511,0.821,0.383,-8.78,-6.54,-6.42,6.73,1.71,-2.39
2022-02-08 11:16:25.2600,0.84,1.328,0.137,-8.78,-6.54,-6.42,7.29,-1.4,-1.42
2022-02-08 11:16:25.2610,1.199,1.645,0.595,-8.78,-6.54,-6.42,5.56,-6.31,0.47
2022-02-08 11:16:25.2660,1.049,1.714,1.636,-8.78,-6.54,-6.42,3.28,-6.34,2.16
2022-02-08 11:16:25.2630,0.684,2.25,2.623,-8.78,-6.54,-6.42,1.83,-1.26,2.82
2022-02-08 11:16:25.2640,0.505,2.404,2.375,-8.78,-6.54,-6.42,-0.54,2.19,2.76
2022-02-08 11:16:25.2650,0.313,2.491,1.506,-8.78,-6.54,-6.42,-2.57,3.8,1.59
2022-02-08 11:16:25.2680,0.149,2.582,0.701,-8.78,-6.54,-6.42,-3.13,4.75,-0.11
2022-02-08 11:16:25.2690,0.221,2.474,0.2,-8.78,-6.54,-6.42,-3.16,5.06,-1.1
2022-02-08 11:16:25.2670,0.417,2.304,-0.036,-8.78,-6.54,-6.42,-3.17,4.89,-1.1
2022-02-08 11:16:25.2680,0.476,2.153,-0.205,-8.78,-6.54,-6.42,-3.16,4.26,-0.79
2022-02-08 11:16:25.2710,0.419,1.948,-0.178,-8.78,-6.54,-6.42,-3.3,3.86,-0.71
Time,0.421,1.761,-0.101,-8.78,-6.54,-6.42,-3.55,3.84,-0.77
2022-02-08 11:16:25.2720,0.452,1.577,-0.044,-8.78,-6.54,-6.42,-3.94,4.17,-0.82
2022-02-08 11:16:25.2730,0.499,1.397,-0.042,-8.78,-6.54,-6.42,-4.37,4.7,-0.81
2022-02-08 11:16:25.2740,0.554,1.234,-0.07,-8.78,-6.54,-6.42,-4.78,5.3,-0.74
2022-02-08 11:16:25.2750,0.612,1.079,-0.101,-8.78,-6.54,-6.42,-5.13,5.97,-0.63
2022-02-08 11:16:25.2770,0.666,0.943,-0.161,-8.78,-6.54,-6.42,-5.41,6.58,-0.47
2022-02-08 11:16:25.2790,0.786,0.848,-0.269,-8.78,-6.54,-6.42,-5.59,7.05,-0.2
2022-02-08 11:16:25.2800,0.952,0.802,-0.421,-8.78,-6.54,-6.42,-5.67,7.4,0.18
2022-02-08 11:16:25.2790,1.161,0.842,-0.78,-8.78,-6.54,-6.42,-5.49,7.39,0.68
2022-02-08 11:16:25.2820,1.394,0.962,-1.942,-8.78,-6.54,-6.42,-4.35,5.64,1.31
2022-02-08 11:16:25.2800,1.496,1.055,-3.268,-8.78,-6.54,-6.42,-2.28,2.44,2.06
2022-02-08 11:16:25.2850,1.361,1.121,-3.046,-8.78,-6.54,-6.42,-0.87,0.94,2.74
Time,1.037,1.186,-2.4,-8.78,-6.54,-6.42,-0.4,1.43,3.18
2022-02-08 11:16:25.2860,0.57,1.113,-2.613,-7.01,-8.62,-4.94,0.0,2.04,3.25
2022-02-08 11:16:25.2870,0.08,0.949,-2.633,-7.01,-8.62,-4.94,0.43,2.57,3.01
2022-02-08 11:16:25.2870,-0.316,0.844,-2.411,-7.01,-8.62,-4.94,0.74,3.06,2.59
2022-02-08 11:16:25.2870,-0.595,0.768,-2.101,-7.01,-8.62,-4.94,0.8,3.47,2.1
2022-02-08 11:16:25.2910,-0.765,0.662,-1.78,-7.01,-8.62,-4.94,0.65,3.77,1.73
2022-02-08 11:16:25.2910,-1.001,0.615,-1.743,-7.01,-8.62,-4.94,0.65,3.6,1.35
2022-02-08 11:16:25.2940,-0.954,0.552,-1.296,-7.01,-8.62,-4.94,0.31,4.26,1.47
2022-02-08 11:16:25.2970,-0.627,0.474,-0.512,-7.01,-8.62,-4.94,-0.52,6.26,2.28
2022-02-08 11:16:25.2930,-0.623,0.533,-0.537,-7.01,-8.62,-4.94,-1.17,8.06,3.1
2022-02-08 11:16:25.2940,-0.71,0.665,-0.667,-7.01,-8.62,-4.94,-1.66,9.58,3.75
2022-02-08 11:16:25.2970,-0.958,1.078,-0.579,-7.01,-8.62,-4.94,-1.95,11.2,4.04
Time,-1.976,2.19,-0.842,-7.01,-8.62,-4.94,-1.56,12.92,3.28
2022-02-08 11:16:25.2990,-3.499,3.654,-1.114,-7.01,-8.62,-4.94,-0.38,14.52,1.03
2022-02-08 11:16:25.2990,-4.292,4.087,-1.58,-7.01,-8.62,-4.94,1.62,15.16,-1.17
2022-02-08 11:16:25.2990,-3.856,3.151,-2.114,-7.01,-8.62,-4.94,3.56,14.62,-0.93
2022-02-08 11:16:25.3060,-2.736,1.773,-2.287,-7.01,-8.62,-4.94,3.94,11.83,1.55
2022-02-08 11:16:25.3020,-2.14,0.975,-2.147,-7.01,-8.62,-4.94,3.08,7.13,3.51
2022-02-08 11:16:25.3050,-2.582,0.937,-0.227,-7.01,-8.62,-4.94,1.35,6.34,3.07
2022-02-08 11:16:25.3050,-2.985,0.717,5.538,-7.01,-8.62,-4.94,-4.96,13.47,0.67
2022-02-08 11:16:25.3060,-1.272,0.58,2.04,-7.01,-8.62,-4.94,-7.66,12.56,-1.26
2022-02-08 11:16:25.3060,-0.966,0.76,0.176,-7.01,-8.62,-4.94,-6.82,7.88,-2.92
2022-02-08 11:16:25.3070,-0.99,0.375,-0.634,-7.01,-8.62,-4.94,-3.72,0.67,-3.28
2022-02-08 11:16:25.3090,-0.741,0.027,-0.468,-7.01,-8.62,-4.94,-1.91,-5.38,-2.32
2022-02-08 11:16:25.3100,-0.879,0.246,-0.227,-7.01,-8.62,-4.94,-1.14,-9.14,-1.86
2022-02-08 11:16:25.3100,-1.109,0.607,-0.561,-7.01,-8.62,-4.94,-0.51,-11.92,-2.12
2022-02-08 11:16:25.3130,-1.134,0.757,-0.736,-7.01,-8.62,-4.94,-0.12,-14.05,-2.51
2022-02-08 11:16:25.3140,-1.05,0.785,-0.84,-7.01,-8.62,-4.94,-0.03,-15.7,-2.58
2022-02-08 11:16:25.3120,-1.013,0.812,-0.861,-7.01,-8.62,-4.94,-0.07,-16.79,-2.24
2022-02-08 11:16:25.3190,-1.079,0.87,-0.732,-7.01,-8.62,-4.94,-0.12,-17.08,-1.67
2022-02-08 11:16:25.3160,-1.233,0.99,-0.545,-7.01,-8.62,-4.94,-0.14,-16.53,-1.15
2022-02-08 11:16:25.3170,-1.455,1.166,-0.469,-7.01,-8.62,-4.94,-0.2,-15.51,-0.96
2022-02-08 11:16:25.3170,-1.658,1.336,-0.501,-7.01,-8.62,-4.94,-0.28,-14.04,-0.95
2022-02-08 11:16:25.3190,-1.831,1.476,-0.6,-7.01,-8.62,-4.94,-0.5,-11.87,-1.01
2022-02-08 11:16:25.3200,-1.936,1.606,-0.89,-7.01,-8.62,-4.94,-0.73,-9.08,-1.2
2022-02-08 11:16:25.3220,-1.786,1.634,-1.208,-7.01,-8.62,-4.94,-1.08,-6.22,-1.42
2022-02-08 11:16:25.3230,-1.686,1.643,-1.444,-7.01,-8.62,-4.94,-1.72,-3.48,-1.94
2022-02-08 11:16:25.3240,-1.487,1.653,-1.839,-7.01,-8.62,-4.94,-2.32,-1.68,-2.95
2022-02-08 11:16:25.3250,-1.097,1.64,-2.21,-7.01,-8.62,-4.94,-2.38,-0.24,-4.14
2022-02-08 11:16:25.3260,-0.53,1.519,-2.297,-7.01,-8.62,-4.94,-1.91,0.83,-5.06
2022-02-08 11:16:25.3260,0.008,1.377,-2.354,-7.01,-8.62,-4.94,-0.89,1.45,-5.53
2022-02-08 11:16:25.3290,0.578,1.274,-2.618,-7.01,-8.62,-4.94,0.67,1.54,-5.37
2022-02-08 11:16:25.3280,1.235,1.155,-2.955,-7.01,-8.62,-4.94,2.53,0.49,-4.35
2022-02-08 11:16:25.3300,1.594,1.054,-2.856,-7.01,-8.62,-4.94,4.01,-1.37,-2.94
2022-02-08 11:16:25.3360,1.567,0.991,-2.213,-7.01,-8.62,-4.94,4.7,-3.37,-1.78
2022-02-08 11:16:25.3320,1.428,0.913,-1.613,-7.01,-8.62,-4.94,4.82,-5.25,-1.01
2022-02-08 11:16:25.3320,1.272,0.885,-1.173,-7.01,-8.62,-4.94,4.55,-6.83,-0.59
2022-02-08 11:16:25.3340,1.203,0.916,-0.876,-7.01,-8.62,-4.94,4.03,-7.89,-0.39
2022-02-08 11:16:25.3330,1.209,0.929,-0.622,-7.01,-8.62,-4.94,3.39,-8.19,-0.21
2022-02-08 11:16:25.3370,1.234,0.898,-0.49,-7.01,-8.62,-4.94,2.8,-7.94,0.09
2022-02-08 11:16:25.3400,1.204,0.881,-0.486,-7.01,-8.62,-4.94,2.31,-7.58,0.44
2022-02-08 11:16:25.3380,1.066,0.931,-0.452,-7.01,-8.62,-4.94,1.86,-7.22,0.65
Time,0.847,1.067,-0.396,-7.01,-8.62,-4.94,1.35,-7.01,0.52
2022-02-08 11:16:25.3390,0.629,1.244,-0.449,-7.01,-8.62,-4.94,0.85,-7.07,0.07
2022-02-08 11:16:25.3400,0.475,1.481,-0.507,-7.01,-8.62,-4.94,0.42,-7.25,-0.62
2022-02-08 11:16:25.3430,0.291,1.747,-0.566,-7.01,-8.62,-4.94,0.14,-7.61,-1.45
2022-02-08 11:16:25.3450,0.148,2.073,-0.778,-7.01,-8.62,-4.94,0.53,-8.78,-2.18
2022-02-08 11:16:25.3450,0.421,2.602,-1.29,-7.01,-8.62,-4.94,2.44,-12.32,-2.6
2022-02-08 11:16:25.3450,0.717,2.94,-0.947,-7.01,-8.62,-4.94,3.9,-14.6,-2.86
2022-02-08 11:16:25.3450,0.862,3.107,-0.27,-7.01,-8.62,-4.94,4.02,-14.68,-3.01
2022-02-08 11:16:25.3460,0.894,3.157,0.104,-7.01,-8.62,-4.94,3.22,-13.5,-3.19
2022-02-08 11:16:25.3490,1.014,2.986,0.258,-7.01,-8.62,-4.94,1.97,-11.47,-3.23
2022-02-08 11:16:25.3500,1.202,2.819,0.084,-7.01,-8.62,-4.94,1.06,-8.74,-3.16
2022-02-08 11:16:25.3600,0.96,2.703,-0.122,-7.01,-8.62,-4.94,0.55,-6.43,-3.61
2022-02-08 11:16:25.3510,0.882,2.422,-0.271,-7.01,-8.62,-4.94,0.68,-4.86,-4.34
2022-02-08 11:16:25.3520,0.708,2.253,-0.543,-7.01,-8.62,-4.94,2.49,-4.52,-6.14
2022-02-08 11:16:25.3580,0.914,1.993,-0.382,-7.01,-8.62,-4.94,5.12,-3.63,-7.46
2022-02-08 11:16:25.3530,1.26,1.797,0.181,-7.01,-8.62,-4.94,6.05,-1.51,-6.95
2022-02-08 11:16:25.3560,1.252,1.608,0.561,-7.01,-8.62,-4.94,6.06,1.6,-5.56
2022-02-08 11:16:25.3640,1.091,1.41,0.595,-7.01,-8.62,-4.94,6.28,4.62,-4.43
2022-02-08 11:16:25.3610,1.018,1.399,0.254,-7.01,-8.62,-4.94,7.43,4.45,-4.02
2022-02-08 11:16:25.3610,1.555,1.557,0.369,-7.01,-8.62,-4.94,6.97,-2.57,-3.42
2022-02-08 11:16:25.3620,2.13,1.014,2.466,-7.01,-8.62,-4.94,3.3,-4.31,-1.26
2022-02-08 11:16:25.3650,2.193,0.323,3.469,-7.01,-8.62,-4.94,-0.97,-1.78,1.36
2022-02-08 11:16:25.3650,1.752,0.201,2.628,-7.01,-8.62,-4.94,-4.0,1.0,2.94
2022-02-08 11:16:25.3780,1.181,0.453,1.63,-7.01,-8.62,-4.94,-5.82,3.17,3.34
2022-02-08 11:16:25.3680,0.747,0.775,0.861,-7.01,-8.62,-4.94,-6.92,4.48,3.1
2022-02-08 11:16:25.3710,0.567,0.974,0.377,-7.01,-8.62,-4.94,-7.52,5.13,2.73
2022-02-08 11:16:25.3710,0.52,1.109,0.121,-7.01,-8.62,-4.94,-7.76,5.43,2.4
Time,0.526,1.247,-0.07,-7.01,-8.62,-4.94,-7.61,5.33,2.21
2022-02-08 11:16:25.3750,0.575,1.38,-0.27,-7.01,-8.62,-4.94,-7.19,4.78,2.34
2022-02-08 11:16:25.3810,0.65,1.531,-0.359,-7.01,-8.62,-4.94,-6.93,4.06,2.92
Time,0.725,1.794,-0.422,-7.01,-8.62,-4.94,-6.92,3.28,3.77
2022-02-08 11:16:25.3800,0.718,2.305,-0.624,-7.01,-8.62,-4.94,-6.97,2.27,4.6
2022-02-08 11:16:25.3800,0.54,2.955,-0.98,-7.01,-8.62,-4.94,-6.85,1.04,5.17
2022-02-08 11:16:25.3870,0.291,3.432,-1.417,-7.01,-8.62,-4.94,-6.21,-0.44,5.38
Time,0.065,3.428,-1.754,-7.01,-8.62,-4.94,-5.03,-1.83,5.23
2022-02-08 11:16:25.3930,-0.312,3.199,-2.141,-7.01,-8.62,-4.94,-3.11,-2.64,4.68
2022-02-08 11:16:25.3900,-0.747,2.93,-2.254,-7.01,-8.62,-4.94,-0.85,-2.04,3.88
2022-02-08 11:16:25.3950,-1.045,2.529,-1.842,-7.01,-8.62,-4.94,1.08,0.6,3.06
2022-02-08 11:16:25.3950,-0.931,1.896,-1.114,-7.01,-8.62,-4.94,1.99,4.14,2.73
2022-02-08 11:16:25.3930,-0.63,1.292,-0.571,-7.01,-8.62,-4.94,2.01,7.17,2.92
2022-02-08 11:16:25.3930,-0.522,0.954,-0.439,-7.01,-8.62,-4.94,1.69,9.54,3.16
2022-02-08 11:16:25.3960,-0.608,0.846,-0.615,-7.01,-8.62,-4.94,1.39,11.18,3.15
2022-02-08 11:16:25.3970,-0.753,0.828,-0.894,-1.61,-11.54,-7.5,1.24,12.31,2.84
2022-02-08 11:16:25.3970,-0.914,0.778,-1.254,-1.61,-11.54,-7.5,1.33,12.86,2.21
2022-02-08 11:16:25.3960,-1.052,0.709,-1.715,-1.61,-11.54,-7.5,1.65,12.54,1.37
Time,-1.087,0.561,-1.99,-1.61,-11.54,-7.5,2.01,11.58,0.59
2022-02-08 11:16:25.4000,-0.938,0.337,-1.989,-1.61,-11.54,-7.5,2.2,10.24,0.11
2022-02-08 11:16:25.3990,-0.721,0.121,-1.861,-1.61,-11.54,-7.5,2.21,8.6,-0.02
2022-02-08 11:16:25.4060,-0.565,-0.062,-1.673,-1.61,-11.54,-7.5,2.08,6.94,0.16
2022-02-08 11:16:25.4030,-0.453,-0.178,-1.456,-1.61,-11.54,-7.5,1.81,5.56,0.63
2022-02-08 11:16:25.4030,-0.31,-0.22,-1.054,-1.61,-11.54,-7.5,-0.03,4.49,2.28
2022-02-08 11:16:25.4030,-0.209,-0.17,-0.601,-1.61,-11.54,-7.5,-0.03,4.49,2.28
2022-02-08 11:16:25.4040,-0.068,-0.065,-0.117,-1.61,-11.54,-7.5,-1.39,5.04,3.2
2022-02-08 11:16:25.4050,-0.203,0.131,-0.261,-1.61,-11.54,-7.5,-2.39,5.14,3.74
2022-02-08 11:16:25.4080,-0.425,0.297,-0.551,-1.61,-11.54,-7.5,-2.92,5.07,3.95
Time,-0.596,0.587,-0.505,-1.61,-11.54,-7.5,-3.26,5.34,3.87
2022-02-08 11:16:25.4110,-1.024,1.205,-0.506,-1.61,-11.54,-7.5,-3.24,6.36,3.1
2022-02-08 11:16:25.4110,-1.786,2.532,-0.127,-1.61,-11.54,-7.5,-2.39,9.69,1.42
Time,-2.201,3.68,0.39,-1.61,-11.54,-7.5,0.15,15.94,0.06
2022-02-08 11:16:25.4120,-1.865,3.634,-0.007,-1.61,-11.54,-7.5,2.2,19.77,-0.36
2022-02-08 11:16:25.4170,-1.597,3.494,-0.689,-1.61,-11.54,-7.5,3.75,21.17,-0.17
2022-02-08 11:16:25.4170,-1.101,2.796,-1.049,-1.61,-11.54,-7.5,4.71,21.06,0.68
2022-02-08 11:16:25.4150,-0.634,1.873,-1.24,-1.61,-11.54,-7.5,4.46,18.47,1.18
2022-02-08 11:16:25.4150,-0.557,1.43,-0.937,-1.61,-11.54,-7.5,2.79,13.13,1.17
2022-02-08 11:16:25.4180,-0.785,0.951,1.435,-1.61,-11.54,-7.5,-1.39,3.07,0.48
2022-02-08 11:16:25.4190,-0.919,0.791,0.952,-1.61,-11.54,-7.5,-2.73,-0.69,-0.24
2022-02-08 11:16:25.4210,-0.668,0.843,0.727,-1.61,-11.54,-7.5,-2.88,-2.28,-0.5
2022-02-08 11:16:25.4230,-0.655,0.957,0.39,-1.61,-11.54,-7.5,-2.27,-2.55,-0.47
2022-02-08 11:16:25.4230,-0.711,1.061,0.088,-1.61,-11.54,-7.5,-1.49,-2.29,-0.17
2022-02-08 11:16:25.4230,-0.734,1.076,-0.158,-1.61,-11.54,-7.5,-1.49,-2.29,-0.17
2022-02-08 11:16:25.4220,-0.742,1.0,-0.358,-1.61,-11.54,-7.5,-0.82,-2.04,0.25
2022-02-08 11:16:25.4250,-0.703,0.863,-0.465,-1.61,-11.54,-7.5,-0.09,-2.44,0.77
2022-02-08 11:16:25.4290,-0.667,0.729,-0.485,-1.61,-11.54,-7.5,0.06,-2.98,0.84
2022-02-08 11:16:25.4290,-0.692,0.635,-0.509,-1.61,-11.54,-7.5,0.14,-3.7,0.79
2022-02-08 11:16:25.4290,-0.829,0.648,-0.581,-1.61,-11.54,-7.5,0.23,-4.6,0.54
2022-02-08 11:16:25.4310,-0.987,0.707,-0.622,-1.61,-11.54,-7.5,0.28,-5.57,0.18
2022-02-08 11:16:25.4290,-1.1,0.729,-0.583,-1.61,-11.54,-7.5,0.22,-6.4,-0.15
2022-02-08 11:16:25.4290,-1.171,0.71,-0.463,-1.61,-11.54,-7.5,0.03,-6.88,-0.37
2022-02-08 11:16:25.4370,-1.231,0.677,-0.325,-1.61,-11.54,-7.5,-0.26,-6.95,-0.5
2022-02-08 11:16:25.4340,-1.272,0.653,-0.22,-1.61,-11.54,-7.5,-0.59,-6.68,-0.53
2022-02-08 11:16:25.4350,-1.276,0.636,-0.16,-1.61,-11.54,-7.5,-0.97,-6.13,-0.46
2022-02-08 11:16:25.4360,-1.323,0.76,-0.199,-1.61,-11.54,-7.5,-1.33,-5.45,-0.49
2022-02-08 11:16:25.4360,-1.39,0.955,-0.363,-1.61,-11.54,-7.5,-1.57,-4.96,-0.73
2022-02-08 11:16:25.4370,-1.371,1.079,-0.567,-1.61,-11.54,-7.5,-1.72,-4.82,-1.02
2022-02-08 11:16:25.4400,-1.31,1.178,-0.794,-1.61,-11.54,-7.5,-1.82,-5.09,-1.31
2022-02-08 11:16:25.4400,-1.249,1.252,-0.948,-1.61,-11.54,-7.5,-1.91,-5.46,-1.64
2022-02-08 11:16:25.4410,-1.164,1.306,-1.057,-1.61,-11.54,-7.5,-1.98,-5.65,-1.92
2022-02-08 11:16:25.4410,-1.066,1.346,-1.148,-1.61,-11.54,-7.5,-1.99,-5.39,-2.22
2022-02-08 11:16:25.4410,-0.022,-0.449,-0.797,-1.61,-11.54,-7.5,-1.99,-5.39,-2.22
2022-02-08 11:16:25.4470,-0.003,-0.461,-0.744,-1.61,-11.54,-7.5,-0.63,-1.0,-1.05
2022-02-08 11:16:25.4430,-0.044,-0.515,-0.757,-1.61,-11.54,-7.5,-0.82,-0.92,-1.05
2022-02-08 11:16:25.4450,-0.084,-0.558,-0.83,-1.61,-11.54,-7.5,-0.84,-0.65,-0.94
2022-02-08 11:16:25.4470,-0.086,-0.563,-0.909,-1.61,-11.54,-7.5,-0.67,-0.26,-0.8
2022-02-08 11:16:25.4480,-0.041,-0.547,-0.967,-1.61,-11.54,-7.5,-0.39,0.09,-0.62
2022-02-08 11:16:25.4470,-0.006,-0.549,-1.017,-1.61,-11.54,-7.5,-0.07,0.41,-0.42
2022-02-08 11:16:25.4500,0.008,-0.585,-1.056,-1.61,-11.54,-7.5,0.26,0.49,-0.23
2022-02-08 11:16:25.4500,0.038,-0.612,-0.991,-1.61,-11.54,-7.5,0.48,0.39,-0.04
2022-02-08 11:16:25.4510,0.038,-0.584,-0.846,-1.61,-11.54,-7.5,0.46,0.33,0.12
2022-02-08 11:16:25.4540,0.013,-0.536,-0.783,-1.61,-11.54,-7.5,0.3,0.33,0.11
2022-02-08 11:16:25.4540,0.031,-0.515,-0.795,-1.61,-11.54,-7.5,0.09,0.2,-0.03
2022-02-08 11:16:25.4540,0.057,-0.535,-0.802,-1.61,-11.54,-7.5,-0.11,-0.01,-0.17
2022-02-08 11:16:25.4560,0.058,-0.569,-0.81,-1.61,-11.54,-7.5,-0.24,-0.09,-0.19
2022-02-08 11:16:25.4570,0.057,-0.59,-0.831,-1.61,-11.54,-7.5,-0.31,-0.02,-0.11
2022-02-08 11:16:25.4570,0.054,-0.587,-0.872,-1.61,-11.54,-7.5,-0.32,0.08,-0.01
2022-02-08 11:16:25.4590,0.06,-0.571,-0.93,-1.61,-11.54,-7.5,-0.25,0.12,0.07
2022-02-08 11:16:25.4600,0.073,-0.556,-0.969,-1.61,-11.54,-7.5,-0.13,0.07,0.15
2022-02-08 11:16:25.4610,0.083,-0.553,-0.952,-1.61,-11.54,-7.5,0.0,0.02,0.25
2022-02-08 11:16:25.4640,0.079,-0.555,-0.895,-1.61,-11.54,-7.5,0.07,-0.01,0.34
2022-02-08 11:16:25.4630,0.05,-0.552,-0.838,-1.61,-11.54,-7.5,0.06,-0.03,0.41
2022-02-08 11:16:25.4640,0.009,-0.539,-0.808,-1.61,-11.54,-7.5,0.01,-0.01,0.42
2022-02-08 11:16:25.4660,-0.029,-0.516,-0.79,-1.61,-11.54,-7.5,-0.05,0.04,0.4
Time,-0.052,-0.493,-0.784,-1.61,-11.54,-7.5,-0.12,0.13,0.36
2022-02-08 11:16:25.4680,-0.055,-0.477,-0.782,-1.61,-11.54,-7.5,-0.18,0.23,0.3
2022-02-08 11:16:25.4730,-0.057,-0.461,-0.785,-1.61,-11.54,-7.5,-0.25,0.29,0.23
2022-02-08 11:16:25.4690,-0.06,-0.464,-0.803,-1.61,-11.54,-7.5,-0.33,0.33,0.16
2022-02-08 11:16:25.4700,-0.05,-0.475,-0.849,-1.61,-11.54,-7.5,-0.37,0.38,0.09
Time,-0.025,-0.479,-0.897,-1.61,-11.54,-7.5,-0.34,0.39,0.06
2022-02-08 11:16:25.4740,-0.003,-0.479,-0.959,-1.61,-11.54,-7.5,-0.26,0.39,0.07
2022-02-08 11:16:25.4790,0.012,-0.477,-1.01,-1.61,-11.54,-7.5,-0.11,0.29,0.1
2022-02-08 11:16:25.4740,0.021,-0.476,-0.991,-1.61,-11.54,-7.5,0.06,0.15,0.13
2022-02-08 11:16:25.4760,0.015,-0.479,-0.927,-1.61,-11.54,-7.5,0.17,0.05,0.17
2022-02-08 11:16:25.4770,0.003,-0.494,-0.844,-1.61,-11.54,-7.5,0.2,0.03,0.17
2022-02-08 11:16:25.4790,-0.01,-0.5,-0.781,-1.61,-11.54,-7.5,0.14,0.06,0.16
2022-02-08 11:16:25.4790,-0.026,-0.49,-0.771,-1.61,-11.54,-7.5,0.05,0.11,0.12
2022-02-08 11:16:25.4820,-0.024,-0.482,-0.78,-1.61,-11.54,-7.5,-0.03,0.14,0.08
2022-02-08 11:16:25.4800,-0.011,-0.489,-0.791,-1.61,-11.54,-7.5,-0.12,0.14,0.05
2022-02-08 11:16:25.4830,0.005,-0.502,-0.79,-1.61,-11.54,-7.5,-0.2,0.11,0.04
2022-02-08 11:16:25.4830,0.019,-0.513,-0.78,-1.61,-11.54,-7.5,-0.28,0.1,0.06
2022-02-08 11:16:25.4860,0.018,-0.518,-0.794,-1.61,-11.54,-7.5,-0.36,0.11,0.09
2022-02-08 11:16:25.4870,0.005,-0.498,-0.823,-1.61,-11.54,-7.5,-0.45,0.1,0.11
2022-02-08 11:16:25.4860,-0.013,-0.451,-0.866,-1.61,-11.54,-7.5,-0.52,0.03,0.07
2022-02-08 11:16:25.4890,0.002,-0.416,-0.905,-1.61,-11.54,-7.5,-0.6,-0.16,-0.07
2022-02-08 11:16:25.4890,0.009,-0.481,-0.878,-1.61,-11.54,-7.5,-0.67,-0.29,-0.12
2022-02-08 11:16:25.5010,0.012,-0.496,-0.89,-1.61,-11.54,-7.5,-0.69,-0.3,-0.1
2022-02-08 11:16:25.5120,0.004,-0.481,-0.906,-1.61,-11.54,-7.5,-0.65,-0.23,-0.06
2022-02-08 11:16:25.5210,-0.013,-0.454,-0.937,4.77,-15.62,-10.21,-0.56,-0.17,-0.02
2022-02-08 11:16:25.5320,-0.019,-0.436,-0.967,4.77,-15.62,-10.21,-0.43,-0.13,-0.01
2022-02-08 11:16:25.5420,-0.011,-0.429,-0.978,4.77,-15.62,-10.21,-0.26,-0.09,-0.02
2022-02-08 11:16:25.5520,-0.004,-0.438,-0.973,4.77,-15.62,-10.21,-0.09,-0.06,0.01
2022-02-08 11:16:25.5620,-0.004,-0.445,-0.947,14.12,0.86,13.19,0.03,-0.04,0.03
2022-02-08 11:16:25.5720,-0.018,-0.447,-0.905,11.2,0.8,-7.31,0.08,-0.05,0.04
Time,-0.038,-0.447,-0.862,-5.1,1.6,16.59,0.07,-0.05,0.05
2022-02-08 11:16:25.5920,-0.05,-0.448,-0.831,-11.13,-18.54,-1.01,0.03,-0.01,0.04
2022-02-08 11:16:25.6020,-0.042,-0.45,-0.821,-2.94,12.11,4.44,-0.03,0.03,0.02
2022-02-08 11:16:25.6130,-0.017,-0.458,-0.819,0.79,4.17,1.53,-0.11,0.05,0.01
2022-02-08 11:16:25.6230,-0.001,-0.47,-0.832,0.66,7.17,3.87,-0.22,0.06,0.01
2022-02-08 11:16:25.6330,0.004,-0.469,-0.86,-10.42,-0.9,-3.45,-0.31,0.06,0.01
2022-02-08 11:16:25.6430,-0.002,-0.456,-0.894,-12.45,-2.58,25.06,-0.38,0.05,0.01
2022-02-08 11:16:25.6520,-0.011,-0.443,-0.929,9.06,5.87,4.2,-0.39,0.03,0.0
2022-02-08 11:16:25.6630,-0.02,-0.432,-0.941,-14.94,0.58,5.9,-0.36,-0.0,-0.01
2022-02-08 11:16:25.6730,-0.025,-0.427,-0.928,-20.92,5.24,-22.4,-0.32,-0.01,-0.01
2022-02-08 11:16:25.6830,-0.027,-0.411,-0.926,3.67,0.17,8.32,-0.29,-0.01,-0.03
2022-02-08 11:16:25.6930,-0.019,-0.41,-0.938,8.66,1.44,-15.15,-0.26,-0.0,-0.06
2022-02-08 11:16:25.7030,-0.003,-0.425,-0.944,-0.44,-0.19,-1.31,-0.25,0.0,-0.07
2022-02-08 11:16:25.7130,0.002,-0.442,-0.943,0.27,0.07,-1.0,-0.22,0.02,-0.03
2022-02-08 11:16:25.7230,-0.004,-0.45,-0.934,-0.02,0.25,0.55,-0.18,0.09,0.03
2022-02-08 11:16:25.7330,-0.01,-0.445,-0.928,-0.13,0.71,0.07,-0.13,0.2,0.09
2022-02-08 11:16:25.7430,-0.022,-0.41,-0.908,-0.03,0.63,0.02,-0.05,0.34,0.13
2022-02-08 11:16:25.7530,-0.043,-0.371,-0.954,0.18,0.17,-0.21,0.34,0.67,0.09
2022-02-08 11:16:25.7630,-0.028,-0.363,-0.989,0.38,-0.14,0.41,0.5,0.64,0.1
2022-02-08 11:16:25.7730,-0.031,-0.377,-0.99,0.29,-0.32,0.68,0.59,0.49,0.02
2022-02-08 11:16:25.7830,0.02,-0.431,-0.942,0.31,-0.13,0.67,0.52,0.27,-0.02
2022-02-08 11:16:25.7930,0.073,-0.474,-0.9,-0.26,0.37,0.17,0.28,-0.05,-0.0
2022-02-08 11:16:25.8030,0.083,-0.508,-0.884,-0.77,0.8,-0.21,-0.06,-0.39,0.04
2022-02-08 11:16:25.8130,0.054,-0.488,-0.896,-0.88,1.14,-0.35,-0.38,-0.66,0.07
2022-02-08 11:16:25.8230,-0.006,-0.403,-0.93,-0.62,0.88,-0.22,-0.57,-0.78,-0.01
2022-02-08 11:16:25.8330,-0.044,-0.388,-0.976,-0.1,0.13,0.11,-0.57,-0.77,-0.08
