time,gFx,gFy,gFz,ax,ay,az,wx,wy,wz
2022-01-31 9:55:09.8630,0.144,-0.182,-0.847,-0.18,0.84,-1.64,-1.12,-0.11,0.22
2022-01-31 9:55:35.4300,0.14,-0.176,-0.909,-0.02,0.75,-1.29,-1.12,-0.16,0.2
2022-01-31 9:55:35.4370,0.155,-0.138,-1.012,-0.01,0.76,-0.66,-1.0,-0.38,0.17
2022-01-31 9:55:35.4470,0.171,-0.104,-1.111,-0.25,0.47,0.38,-0.78,-0.76,0.09
2022-01-31 9:55:35.4580,0.129,-0.109,-1.134,-0.42,0.23,1.27,-0.54,-1.11,-0.02
2022-01-31 9:55:35.4680,0.083,-0.149,-1.061,-0.09,0.39,1.35,-0.33,-1.24,-0.15
2022-01-31 9:55:35.4780,0.04,-0.177,-0.973,0.24,0.82,0.55,-0.19,-1.19,-0.26
2022-01-31 9:55:35.4880,0.033,-0.185,-0.915,0.53,1.09,-0.3,-0.11,-1.08,-0.31
2022-01-31 9:55:35.4980,0.06,-0.17,-0.887,0.43,1.16,-0.82,-0.07,-0.93,-0.31
2022-01-31 9:55:35.5080,0.07,-0.16,-0.879,0.08,1.0,-1.09,-0.07,-0.89,-0.28
2022-01-31 9:55:35.5180,0.07,-0.166,-0.893,-0.08,0.94,-1.14,-0.08,-0.92,-0.25
2022-01-31 9:55:35.5280,0.058,-0.171,-0.893,-0.16,1.01,-1.01,-0.1,-0.83,-0.23
2022-01-31 9:55:35.5390,0.037,-0.169,-0.885,-0.1,1.07,-1.04,-0.13,-0.69,-0.21
2022-01-31 9:55:35.5480,0.026,-0.168,-0.887,0.04,1.06,-1.11,-0.2,-0.64,-0.17
2022-01-31 9:55:35.5580,0.03,-0.162,-0.902,0.06,1.07,-1.08,-0.31,-0.69,-0.11
2022-01-31 9:55:35.5690,0.043,-0.147,-0.917,-0.05,1.02,-0.92,-0.42,-0.73,-0.03
2022-01-31 9:55:35.5790,0.056,-0.13,-0.906,-0.26,0.93,-0.81,-0.47,-0.72,-0.01
2022-01-31 9:55:35.5890,0.048,-0.112,-0.902,-0.45,0.79,-0.93,-0.47,-0.69,-0.06
2022-01-31 9:55:35.5990,0.034,-0.091,-0.918,-0.41,0.68,-0.95,-0.43,-0.68,-0.11
2022-01-31 9:55:35.6090,0.029,-0.068,-0.923,-0.36,0.49,-0.78,-0.4,-0.68,-0.14
2022-01-31 9:55:35.6190,0.026,-0.058,-0.885,-0.36,0.32,-0.77,-0.38,-0.53,-0.17
2022-01-31 9:55:35.6290,-0.001,-0.053,-0.844,-0.38,0.27,-1.2,-0.33,-0.13,-0.21
2022-01-31 9:55:35.6390,-0.038,-0.061,-0.85,-0.08,0.26,-1.55,-0.27,0.36,-0.21
2022-01-31 9:55:35.6490,-0.041,-0.076,-0.916,0.32,0.39,-1.43,-0.17,0.68,-0.14
2022-01-31 9:55:35.6590,0.039,-0.063,-1.012,0.32,0.52,-0.7,-0.0,0.83,-0.01
2022-01-31 9:55:35.6690,0.107,-0.046,-1.065,-0.42,0.36,0.21,0.2,0.85,0.12
2022-01-31 9:55:35.6800,0.154,-0.046,-1.102,-0.96,0.18,0.68,0.44,0.71,0.25
2022-01-31 9:55:35.6890,0.186,-0.053,-1.162,-1.36,0.15,1.06,0.64,0.34,0.4
2022-01-31 9:55:35.6990,0.202,-0.058,-1.187,-1.61,0.16,1.67,0.7,-0.05,0.51
2022-01-31 9:55:35.7100,0.193,-0.033,-1.105,-1.77,0.11,1.8,0.66,-0.05,0.54
2022-01-31 9:55:35.7200,0.163,-0.013,-0.981,-1.64,-0.21,0.87,0.62,0.3,0.47
2022-01-31 9:55:35.7300,0.137,-0.016,-0.948,-1.31,-0.46,-0.27,0.54,0.59,0.39
2022-01-31 9:55:35.7400,0.1,-0.034,-0.975,-1.0,-0.44,-0.48,0.44,0.74,0.34
2022-01-31 9:55:35.7500,0.046,-0.022,-1.007,-0.53,-0.32,-0.18,0.36,0.78,0.24
2022-01-31 9:55:35.7600,0.012,0.0,-1.031,0.07,-0.51,0.14,0.25,0.69,0.11
2022-01-31 9:55:35.7700,0.015,-0.002,-1.023,0.43,-0.73,0.35,0.11,0.56,-0.03
2022-01-31 9:55:35.7800,0.047,-0.021,-0.965,0.4,-0.69,0.21,-0.07,0.52,-0.13
2022-01-31 9:55:35.7910,0.07,-0.048,-0.899,0.13,-0.47,-0.4,-0.28,0.56,-0.19
2022-01-31 9:55:35.8000,0.093,-0.07,-0.882,-0.02,-0.17,-1.01,-0.48,0.56,-0.21
2022-01-31 9:55:35.8100,0.111,-0.077,-0.897,-0.2,0.08,-1.1,-0.64,0.55,-0.24
2022-01-31 9:55:35.8200,0.128,-0.066,-0.923,-0.31,0.19,-0.94,-0.74,0.53,-0.28
2022-01-31 9:55:35.8310,0.146,-0.049,-0.971,-0.43,0.15,-0.66,-0.79,0.45,-0.31
2022-01-31 9:55:35.8410,0.158,-0.032,-1.013,-0.56,0.07,-0.18,-0.84,0.32,-0.35
2022-01-31 9:55:35.8520,0.134,-0.006,-1.049,-0.63,-0.03,0.21,-0.89,0.12,-0.44
2022-01-31 9:55:35.8610,0.07,0.007,-1.079,-0.3,-0.18,0.57,-0.96,-0.09,-0.59
2022-01-31 9:55:35.8710,0.066,0.009,-1.062,0.27,-0.18,0.82,-1.06,-0.15,-0.77
2022-01-31 9:55:35.8810,0.09,0.018,-1.04,0.24,-0.09,0.61,-1.2,-0.11,-0.91
2022-01-31 9:55:35.8910,0.112,0.042,-1.039,-0.01,-0.06,0.42,-1.33,-0.14,-1.01
2022-01-31 9:55:35.9010,0.122,0.068,-1.061,-0.24,-0.17,0.44,-1.4,-0.24,-1.1
2022-01-31 9:55:35.9110,0.124,0.08,-1.102,-0.36,-0.27,0.68,-1.41,-0.38,-1.19
2022-01-31 9:55:35.9210,0.121,0.077,-1.148,-0.41,-0.22,1.1,-1.38,-0.47,-1.26
2022-01-31 9:55:35.9310,0.129,0.066,-1.177,-0.45,-0.02,1.55,-1.33,-0.54,-1.26
2022-01-31 9:55:35.9420,0.151,0.062,-1.179,-0.6,0.22,1.81,-1.29,-0.64,-1.24
2022-01-31 9:55:35.9510,0.173,0.068,-1.159,-0.92,0.38,1.81,-1.26,-0.77,-1.25
2022-01-31 9:55:35.9620,0.183,0.103,-1.126,-1.2,0.43,1.6,-1.22,-0.82,-1.24
2022-01-31 9:55:35.9720,0.208,0.145,-1.089,-1.4,0.18,1.27,-1.17,-0.73,-1.14
2022-01-31 9:55:35.9820,0.236,0.163,-1.069,-1.74,-0.1,0.94,-1.11,-0.53,-0.96
2022-01-31 9:55:35.9920,0.238,0.167,-1.069,-2.06,-0.14,0.77,-1.0,-0.3,-0.73
2022-01-31 9:55:36.0020,0.217,0.152,-1.094,-2.07,-0.06,0.82,-0.87,-0.18,-0.52
2022-01-31 9:55:36.0130,0.181,0.123,-1.127,-1.87,0.19,1.1,-0.71,-0.2,-0.34
2022-01-31 9:55:36.0220,0.134,0.121,-1.153,-1.53,0.53,1.43,-0.53,-0.33,-0.28
2022-01-31 9:55:36.0320,0.092,0.149,-1.162,-1.11,0.55,1.67,-0.34,-0.53,-0.3
2022-01-31 9:55:36.0420,0.059,0.177,-1.165,-0.77,0.28,1.76,-0.12,-0.77,-0.37
2022-01-31 9:55:36.0520,0.046,0.191,-1.156,-0.55,0.03,1.77,0.09,-0.98,-0.44
2022-01-31 9:55:36.0620,0.057,0.199,-1.128,-0.57,-0.11,1.66,0.3,-1.08,-0.48
2022-01-31 9:55:36.0730,0.072,0.194,-1.075,-0.8,-0.21,1.36,0.47,-1.04,-0.47
2022-01-31 9:55:36.0820,0.074,0.178,-1.01,-1.04,-0.19,0.8,0.61,-0.88,-0.42
2022-01-31 9:55:36.0930,0.066,0.159,-0.961,-1.13,-0.1,0.16,0.71,-0.62,-0.3
2022-01-31 9:55:36.1030,0.062,0.171,-0.938,-1.12,0.01,-0.3,0.85,-0.28,-0.1
2022-01-31 9:55:36.1130,0.028,0.129,-0.924,-1.06,-0.22,-0.49,0.88,-0.2,0.04
2022-01-31 9:55:36.1230,-0.007,0.06,-0.89,-0.75,0.24,-0.68,0.82,-0.19,0.1
2022-01-31 9:55:36.1330,-0.037,0.107,-0.868,-0.41,0.72,-1.01,0.73,-0.03,0.12
2022-01-31 9:55:36.1430,-0.058,0.141,-0.85,-0.12,0.12,-1.23,0.63,0.19,0.12
2022-01-31 9:55:36.1530,-0.081,0.168,-0.879,0.1,-0.21,-1.4,0.65,0.6,0.13
2022-01-31 9:55:36.1630,-0.105,0.147,-0.975,0.41,-0.57,-1.02,0.66,0.42,0.04
2022-01-31 9:55:36.1740,-0.098,0.104,-0.995,0.64,-0.3,-0.09,0.61,0.27,-0.06
2022-01-31 9:55:36.1830,-0.038,0.11,-0.961,0.55,-0.03,-0.04,0.6,0.6,-0.03
2022-01-31 9:55:36.1930,0.022,0.095,-0.989,-0.01,-0.14,-0.36,0.73,1.05,0.11
2022-01-31 9:55:36.2040,0.05,0.071,-1.069,-0.46,-0.06,0.01,0.94,1.11,0.24
2022-01-31 9:55:36.2140,0.033,0.021,-1.12,-0.56,0.11,0.79,1.14,0.98,0.32
2022-01-31 9:55:36.2240,0.015,-0.009,-1.16,-0.28,0.49,1.23,1.31,0.78,0.32
2022-01-31 9:55:36.2340,-0.013,0.019,-1.228,-0.03,0.6,1.66,1.39,0.46,0.2
2022-01-31 9:55:36.2440,-0.035,0.098,-1.213,0.29,0.1,2.27,1.35,0.23,0.06
2022-01-31 9:55:36.2540,-0.036,0.127,-1.148,0.5,-0.8,2.03,1.25,0.08,0.01
2022-01-31 9:55:36.2640,0.008,0.08,-1.073,0.48,-1.1,1.36,1.1,-0.04,0.07
2022-01-31 9:55:36.2740,0.057,0.004,-1.005,0.0,-0.68,0.63,0.94,-0.1,0.17
2022-01-31 9:55:36.2840,0.062,-0.077,-0.947,-0.46,-0.02,-0.03,0.76,-0.07,0.26
2022-01-31 9:55:36.2950,0.052,-0.143,-0.924,-0.45,0.71,-0.57,0.56,-0.03,0.38
2022-01-31 9:55:36.3040,0.067,-0.169,-0.923,-0.41,1.28,-0.75,0.31,-0.05,0.47
2022-01-31 9:55:36.3140,0.023,-0.148,-0.926,-0.51,1.43,-0.75,0.12,-0.01,0.49
2022-01-31 9:55:36.3250,0.022,-0.125,-0.928,-0.07,1.19,-0.72,0.01,0.08,0.49
2022-01-31 9:55:36.3340,0.037,-0.107,-0.903,-0.11,0.98,-0.72,-0.09,0.15,0.44
2022-01-31 9:55:36.3440,-0.004,-0.094,-0.868,-0.2,0.8,-1.01,-0.18,0.19,0.31
2022-01-31 9:55:36.3540,-0.043,-0.107,-0.901,0.26,0.72,-1.3,-0.23,0.1,0.19
2022-01-31 9:55:36.3650,-0.048,-0.143,-0.961,0.61,0.92,-0.89,-0.23,0.15,0.19
2022-01-31 9:55:36.3750,-0.115,-0.085,-0.97,0.76,1.21,-0.34,-0.28,0.05,0.18
2022-01-31 9:55:36.3850,-0.017,-0.165,-1.056,1.24,0.75,-0.24,-0.23,-0.31,0.16
2022-01-31 9:55:36.3950,0.071,-0.147,-0.998,0.18,1.57,0.6,-0.17,-0.25,0.23
2022-01-31 9:55:36.4050,0.083,-0.093,-1.028,-0.64,1.28,-0.13,0.03,-0.25,0.14
2022-01-31 9:55:36.4150,0.037,-0.007,-1.129,-0.66,0.71,0.43,0.36,-0.05,0.01
2022-01-31 9:55:36.4250,0.012,0.026,-1.193,-0.22,-0.16,1.35,0.7,0.16,-0.1
2022-01-31 9:55:36.4350,-0.029,0.02,-1.162,0.04,-0.47,1.94,0.86,0.4,-0.12
2022-01-31 9:55:36.4450,-0.087,-0.009,-1.073,0.53,-0.49,1.47,0.91,0.56,-0.09
2022-01-31 9:55:36.4560,-0.112,-0.094,-1.059,1.14,-0.24,0.68,0.95,0.55,-0.01
2022-01-31 9:55:36.4650,-0.099,-0.177,-1.04,1.38,0.54,0.59,1.02,0.52,0.16
2022-01-31 9:55:36.4760,-0.099,-0.228,-1.01,1.29,1.22,0.37,1.1,0.51,0.39
2022-01-31 9:55:36.4860,-0.102,-0.271,-0.989,1.36,1.58,0.09,1.27,0.48,0.64
2022-01-31 9:55:36.4960,-0.087,-0.297,-0.97,1.4,1.87,-0.09,1.53,0.37,0.9
2022-01-31 9:55:36.5060,-0.057,-0.235,-0.912,1.28,1.89,-0.28,1.65,0.37,1.01
2022-01-31 9:55:36.5160,0.024,-0.151,-0.943,0.95,1.0,-0.84,1.66,0.32,0.96
2022-01-31 9:55:36.5260,0.052,-0.13,-0.983,0.17,0.11,-0.34,1.56,0.31,0.83
2022-01-31 9:55:36.5360,0.082,-0.104,-0.939,-0.01,-0.25,-0.1,1.37,0.4,0.72
2022-01-31 9:55:36.5460,0.118,-0.079,-0.925,-0.33,-0.62,-0.48,1.1,0.57,0.57
2022-01-31 9:55:36.5560,0.102,-0.061,-0.952,-0.58,-0.99,-0.58,0.75,0.53,0.4
2022-01-31 9:55:36.5660,0.087,-0.097,-1.022,-0.35,-1.16,-0.21,0.43,0.25,0.27
2022-01-31 9:55:36.5760,0.103,-0.114,-1.025,-0.23,-0.83,0.45,0.16,-0.02,0.25
2022-01-31 9:55:36.5870,0.099,-0.126,-0.984,-0.4,-0.71,0.39,-0.08,-0.13,0.29
2022-01-31 9:55:36.5960,0.051,-0.136,-0.982,-0.33,-0.56,-0.02,-0.29,0.12,0.41
2022-01-31 9:55:36.6060,-0.021,-0.184,-1.017,0.2,-0.45,0.05,-0.44,-0.14,0.6
2022-01-31 9:55:36.6170,-0.038,-0.303,-0.973,0.84,0.19,0.31,-0.44,-0.02,0.83
2022-01-31 9:55:36.6270,-0.058,-0.295,-0.953,0.98,1.34,-0.15,-0.46,0.16,1.01
2022-01-31 9:55:36.6370,0.003,-0.244,-0.934,1.12,1.13,-0.32,-0.56,0.36,1.2
2022-01-31 9:55:36.6470,0.054,-0.214,-0.937,0.47,0.74,-0.52,-0.72,0.43,1.37
2022-01-31 9:55:36.6570,0.069,-0.163,-0.966,0.06,0.49,-0.45,-0.93,0.31,1.49
2022-01-31 9:55:36.6670,0.076,-0.143,-0.999,-0.07,0.08,-0.17,-1.13,0.09,1.57
2022-01-31 9:55:36.6770,0.098,-0.159,-1.02,-0.17,0.04,0.14,-1.27,-0.11,1.63
2022-01-31 9:55:36.6880,0.098,-0.169,-1.02,-0.43,0.33,0.29,-1.34,-0.24,1.62
2022-01-31 9:55:36.6970,0.074,-0.156,-1.03,-0.43,0.52,0.28,-1.3,-0.29,1.53
2022-01-31 9:55:36.7070,0.06,-0.132,-1.071,-0.22,0.49,0.39,-1.19,-0.28,1.43
2022-01-31 9:55:36.7170,0.053,-0.094,-1.078,-0.15,0.35,0.79,-1.09,-0.21,1.33
2022-01-31 9:55:36.7270,0.045,-0.062,-1.049,-0.11,0.06,0.76,-1.01,-0.11,1.25
2022-01-31 9:55:36.7370,0.031,-0.045,-1.043,-0.04,-0.13,0.49,-0.92,-0.01,1.18
2022-01-31 9:55:36.7480,0.024,-0.046,-1.048,0.09,-0.21,0.46,-0.8,0.06,1.12
2022-01-31 9:55:36.7580,0.045,-0.064,-1.029,0.13,-0.09,0.48,-0.69,0.09,1.1
2022-01-31 9:55:36.7680,0.083,-0.072,-1.003,-0.1,0.15,0.27,-0.56,0.09,1.14
2022-01-31 9:55:36.7780,0.118,-0.064,-0.98,-0.48,0.25,0.01,-0.44,0.04,1.21
2022-01-31 9:55:36.7890,0.127,-0.048,-0.971,-0.81,0.19,-0.21,-0.33,-0.09,1.29
2022-01-31 9:55:36.7980,0.109,-0.043,-0.976,-0.87,0.06,-0.28,-0.21,-0.21,1.35
2022-01-31 9:55:36.8080,0.098,-0.049,-0.991,-0.71,0.05,-0.21,-0.05,-0.25,1.38
2022-01-31 9:55:36.8180,0.091,-0.034,-0.985,-0.66,0.09,-0.07,0.1,-0.24,1.36
2022-01-31 9:55:36.8290,0.072,-0.023,-0.98,-0.6,-0.09,-0.16,0.25,-0.2,1.29
2022-01-31 9:55:36.8380,0.055,-0.026,-0.998,-0.43,-0.21,-0.17,0.42,-0.16,1.18
2022-01-31 9:55:36.8490,0.053,-0.019,-1.004,-0.3,-0.22,0.01,0.57,-0.1,1.06
2022-01-31 9:55:36.8590,0.061,0.005,-0.994,-0.31,-0.38,0.04,0.67,-0.04,0.95
2022-01-31 9:55:36.8680,0.058,0.02,-0.999,-0.39,-0.69,-0.05,0.74,-0.06,0.87
2022-01-31 9:55:36.8790,0.061,0.008,-1.022,-0.38,-0.88,0.04,0.78,-0.15,0.84
2022-01-31 9:55:36.8890,0.09,-0.016,-1.124,-0.45,-0.82,0.25,0.27,-0.93,0.85
2022-01-31 9:55:36.8990,0.09,-0.067,-1.069,-0.9,-0.56,1.48,-0.01,-0.64,0.76
2022-01-31 9:55:36.9090,0.033,-0.103,-0.872,-0.78,-0.07,0.29,0.19,-0.14,0.58
2022-01-31 9:55:36.9190,0.005,-0.072,-1.009,-0.32,0.21,-1.12,0.39,0.08,0.49
2022-01-31 9:55:36.9290,-0.024,-0.028,-0.992,0.0,-0.21,0.19,0.43,0.07,0.52
2022-01-31 9:55:36.9390,0.013,-0.028,-1.007,0.22,-0.62,-0.07,0.4,-0.12,0.64
2022-01-31 9:55:36.9500,0.069,-0.045,-0.995,-0.24,-0.62,0.15,0.29,-0.25,0.75
2022-01-31 9:55:36.9590,0.079,-0.053,-0.959,-0.77,-0.49,-0.08,0.11,-0.31,0.84
2022-01-31 9:55:36.9690,0.063,-0.063,-0.962,-0.87,-0.41,-0.36,-0.06,-0.28,0.87
2022-01-31 9:55:36.9790,0.031,-0.055,-0.975,-0.72,-0.33,-0.32,-0.2,-0.17,0.86
2022-01-31 9:55:36.9900,-0.017,-0.042,-0.993,-0.4,-0.39,-0.18,-0.29,-0.04,0.82
2022-01-31 9:55:36.9990,-0.06,-0.032,-1.019,0.06,-0.49,0.0,-0.36,0.05,0.81
2022-01-31 9:55:37.0100,-0.086,-0.042,-1.035,0.46,-0.54,0.25,-0.39,0.14,0.83
2022-01-31 9:55:37.0200,-0.096,-0.065,-1.021,0.71,-0.37,0.37,-0.37,0.31,0.86
2022-01-31 9:55:37.0300,-0.082,-0.062,-1.0,0.82,-0.12,0.21,-0.32,0.52,0.9
2022-01-31 9:55:37.0400,-0.05,-0.032,-0.983,0.7,-0.16,0.0,-0.25,0.71,0.95
2022-01-31 9:55:37.0500,-0.015,-0.005,-0.97,0.43,-0.45,-0.16,-0.14,0.85,0.99
2022-01-31 9:55:37.0600,0.012,0.022,-0.962,0.18,-0.68,-0.3,-0.05,0.8,0.96
2022-01-31 9:55:37.0700,0.048,0.058,-0.994,-0.01,-0.98,-0.31,0.04,0.72,0.93
2022-01-31 9:55:37.0800,0.075,0.037,-0.93,-0.32,-1.27,-0.08,0.22,0.62,0.89
2022-01-31 9:55:37.0900,0.091,0.004,-0.994,-0.51,-1.09,-0.67,0.35,0.34,0.9
2022-01-31 9:55:37.1000,0.091,-0.034,-0.953,-0.63,-0.75,0.04,0.45,0.25,0.86
2022-01-31 9:55:37.1100,0.098,-0.036,-0.941,-0.61,-0.49,-0.53,0.61,0.15,0.81
2022-01-31 9:55:37.1200,0.086,-0.024,-0.973,-0.68,-0.55,-0.47,0.74,0.06,0.73
2022-01-31 9:55:37.1310,0.067,0.006,-0.961,-0.52,-0.78,-0.22,0.84,0.02,0.67
2022-01-31 9:55:37.1410,0.081,0.008,-0.944,-0.37,-1.14,-0.35,1.0,0.06,0.6
2022-01-31 9:55:37.1510,0.113,-0.03,-0.955,-0.54,-1.23,-0.48,1.15,0.13,0.57
2022-01-31 9:55:37.1610,0.122,-0.059,-0.912,-0.84,-0.93,-0.36,1.27,0.29,0.55
2022-01-31 9:55:37.1710,0.118,-0.039,-0.872,-0.86,-0.84,-0.84,1.43,0.45,0.49
2022-01-31 9:55:37.1810,0.146,-0.033,-0.898,-0.81,-1.21,-1.13,1.63,0.4,0.45
2022-01-31 9:55:37.1910,0.159,-0.095,-0.991,-1.1,-1.37,-0.77,1.72,-0.08,0.53
2022-01-31 9:55:37.2010,0.115,-0.162,-0.989,-1.17,-0.84,0.24,1.59,-0.35,0.63
2022-01-31 9:55:37.2110,0.097,-0.177,-0.867,-0.78,-0.43,-0.11,1.49,-0.58,0.71
2022-01-31 9:55:37.2210,0.092,-0.204,-0.94,-0.72,-0.42,-1.02,1.43,-0.81,0.77
2022-01-31 9:55:37.2320,0.092,-0.237,-0.957,-0.77,-0.29,-0.26,1.21,-1.05,0.87
2022-01-31 9:55:37.2420,0.052,-0.238,-0.928,-0.88,-0.07,-0.12,1.08,-1.06,0.87
2022-01-31 9:55:37.2510,-0.022,-0.28,-0.951,-0.55,-0.23,-0.4,0.77,-0.44,0.86
2022-01-31 9:55:37.2610,-0.249,-0.49,-0.936,0.28,0.35,-0.14,0.06,0.79,0.91
2022-01-31 9:55:37.2720,-0.143,-0.5,-1.159,2.51,2.43,-0.14,-0.04,1.01,0.72
2022-01-31 9:55:37.2820,0.041,-0.266,-1.176,1.08,2.06,2.13,0.07,0.68,0.41
2022-01-31 9:55:37.2920,0.083,-0.248,-0.959,-0.49,-0.17,1.86,0.1,0.43,0.15
2022-01-31 9:55:37.3020,0.01,-0.349,-0.888,-0.65,-0.04,-0.29,-0.03,0.36,-0.04
2022-01-31 9:55:37.3120,0.044,-0.365,-0.916,0.02,0.91,-0.68,-0.26,0.37,-0.19
2022-01-31 9:55:37.3220,0.047,-0.302,-0.837,-0.3,0.96,-0.59,-0.37,0.39,-0.33
2022-01-31 9:55:37.3320,0.072,-0.278,-0.902,-0.27,0.36,-1.26,-0.38,0.39,-0.36
2022-01-31 9:55:37.3420,0.077,-0.304,-0.934,-0.48,0.25,-0.56,-0.35,0.39,-0.27
2022-01-31 9:55:37.3520,0.071,-0.309,-0.94,-0.46,0.55,-0.32,-0.32,0.36,-0.13
2022-01-31 9:55:37.3620,0.069,-0.293,-0.958,-0.38,0.6,-0.28,-0.3,0.29,0.02
2022-01-31 9:55:37.3730,0.065,-0.24,-0.962,-0.32,0.4,-0.09,-0.25,0.17,0.09
2022-01-31 9:55:37.3820,0.055,-0.199,-0.97,-0.27,-0.08,-0.07,-0.21,0.09,0.08
2022-01-31 9:55:37.3920,0.041,-0.156,-0.948,-0.16,-0.47,-0.02,-0.16,0.04,0.02
2022-01-31 9:55:37.4030,0.013,-0.147,-0.956,-0.01,-0.86,-0.24,-0.09,-0.03,-0.05
2022-01-31 9:55:37.4130,-0.007,-0.181,-0.953,0.29,-0.87,-0.13,-0.03,-0.03,-0.11
2022-01-31 9:55:37.4230,0.013,-0.208,-0.926,0.42,-0.52,-0.21,0.01,0.07,-0.09
2022-01-31 9:55:37.4330,0.063,-0.216,-0.921,0.21,-0.28,-0.47,0.05,0.23,0.05
2022-01-31 9:55:37.4430,0.075,-0.213,-0.932,-0.29,-0.23,-0.47,0.11,0.34,0.19
2022-01-31 9:55:37.4530,-0.018,-0.231,-0.912,-0.23,-0.26,-0.38,0.12,0.44,0.21
2022-01-31 9:55:37.4630,-0.069,-0.251,-0.887,0.77,-0.07,-0.6,0.12,0.55,0.15
2022-01-31 9:55:37.4730,-0.04,-0.245,-0.892,1.19,0.08,-0.82,0.13,0.59,0.08
2022-01-31 9:55:37.4840,0.006,-0.222,-0.91,0.92,-0.03,-0.73,0.14,0.61,0.03
2022-01-31 9:55:37.4930,0.045,-0.21,-0.926,0.53,-0.25,-0.55,0.14,0.64,0.02
2022-01-31 9:55:37.5030,0.079,-0.221,-0.956,0.21,-0.38,-0.38,0.15,0.63,0.09
2022-01-31 9:55:37.5130,0.139,-0.3,-1.0,-0.08,-0.21,-0.04,0.19,0.57,0.24
2022-01-31 9:55:37.5240,0.169,-0.331,-1.018,-0.63,0.56,0.37,0.22,0.48,0.37
2022-01-31 9:55:37.5340,0.175,-0.321,-1.02,-0.84,0.75,0.54,0.2,0.4,0.45
2022-01-31 9:55:37.5440,0.179,-0.32,-1.025,-0.87,0.64,0.56,0.15,0.24,0.52
2022-01-31 9:55:37.5540,0.172,-0.318,-1.045,-0.89,0.61,0.62,0.08,0.0,0.59
2022-01-31 9:55:37.5640,0.168,-0.309,-1.056,-0.85,0.58,0.82,-0.01,-0.26,0.63
2022-01-31 9:55:37.5740,0.16,-0.296,-1.056,-0.85,0.48,0.92,-0.1,-0.46,0.64
2022-01-31 9:55:37.5840,0.142,-0.281,-1.042,-0.82,0.35,0.89,-0.19,-0.62,0.63
2022-01-31 9:55:37.5940,0.119,-0.265,-1.022,-0.72,0.23,0.74,-0.26,-0.73,0.59
2022-01-31 9:55:37.6040,0.09,-0.256,-1.0,-0.57,0.09,0.53,-0.34,-0.75,0.55
2022-01-31 9:55:37.6140,0.072,-0.26,-0.982,-0.37,0.04,0.29,-0.4,-0.71,0.53
2022-01-31 9:55:37.6240,0.069,-0.274,-0.983,-0.3,0.14,0.13,-0.41,-0.64,0.54
2022-01-31 9:55:37.6340,0.064,-0.278,-0.982,-0.35,0.31,0.13,-0.37,-0.54,0.57
2022-01-31 9:55:37.6440,0.051,-0.277,-0.981,-0.35,0.37,0.1,-0.31,-0.39,0.62
2022-01-31 9:55:37.6550,0.042,-0.276,-0.981,-0.27,0.38,0.09,-0.21,-0.22,0.69
2022-01-31 9:55:37.6650,0.04,-0.271,-0.969,-0.23,0.38,0.08,-0.11,-0.05,0.74
2022-01-31 9:55:37.6750,0.029,-0.266,-0.954,-0.22,0.34,-0.05,-0.02,0.1,0.77
2022-01-31 9:55:37.6850,0.018,-0.262,-0.937,-0.11,0.29,-0.19,0.03,0.22,0.77
2022-01-31 9:55:37.6960,0.01,-0.26,-0.919,0.0,0.25,-0.37,0.04,0.31,0.76
2022-01-31 9:55:37.7050,0.003,-0.25,-0.908,0.09,0.23,-0.54,0.04,0.35,0.72
2022-01-31 9:55:37.7150,-0.007,-0.219,-0.906,0.17,0.1,-0.64,0.02,0.34,0.66
2022-01-31 9:55:37.7260,-0.022,-0.201,-0.904,0.3,-0.22,-0.64,-0.03,0.34,0.57
2022-01-31 9:55:37.7350,-0.033,-0.206,-0.895,0.47,-0.36,-0.68,-0.09,0.33,0.48
2022-01-31 9:55:37.7450,-0.024,-0.216,-0.888,0.58,-0.28,-0.77,-0.16,0.33,0.41
2022-01-31 9:55:37.7550,0.003,-0.226,-0.882,0.48,-0.16,-0.83,-0.23,0.34,0.4
2022-01-31 9:55:37.7650,0.024,-0.24,-0.88,0.24,-0.04,-0.9,-0.28,0.39,0.43
2022-01-31 9:55:37.7750,0.025,-0.248,-0.882,0.09,0.12,-0.92,-0.31,0.48,0.46
2022-01-31 9:55:37.7860,0.025,-0.242,-0.89,0.13,0.22,-0.9,-0.32,0.62,0.48
2022-01-31 9:55:37.7960,0.032,-0.226,-0.914,0.17,0.17,-0.81,-0.3,0.76,0.5
2022-01-31 9:55:37.8060,0.046,-0.215,-0.965,0.16,0.04,-0.54,-0.23,0.8,0.52
2022-01-31 9:55:37.8160,0.066,-0.202,-1.012,0.08,-0.05,-0.02,-0.14,0.78,0.52
2022-01-31 9:55:37.8260,0.089,-0.192,-1.041,-0.06,-0.18,0.4,-0.05,0.69,0.52
2022-01-31 9:55:37.8360,0.103,-0.193,-1.067,-0.24,-0.26,0.7,0.01,0.51,0.52
2022-01-31 9:55:37.8470,0.104,-0.194,-1.069,-0.33,-0.25,0.94,0.03,0.32,0.52
2022-01-31 9:55:37.8560,0.092,-0.189,-1.037,-0.31,-0.26,0.91,-0.0,0.18,0.48
2022-01-31 9:55:37.8660,0.063,-0.177,-1.01,-0.16,-0.32,0.59,-0.07,0.04,0.41
2022-01-31 9:55:37.8760,0.041,-0.175,-0.988,0.13,-0.43,0.33,-0.17,-0.08,0.32
2022-01-31 9:55:37.8870,0.038,-0.18,-0.961,0.3,-0.41,0.1,-0.27,-0.15,0.24
2022-01-31 9:55:37.8960,0.031,-0.183,-0.945,0.3,-0.34,-0.16,-0.36,-0.15,0.19
2022-01-31 9:55:37.9060,0.023,-0.195,-0.946,0.37,-0.26,-0.31,-0.41,-0.1,0.18
2022-01-31 9:55:37.9170,0.026,-0.207,-0.962,0.42,-0.1,-0.28,-0.41,-0.03,0.18
2022-01-31 9:55:37.9270,0.034,-0.209,-0.972,0.37,0.04,-0.14,-0.37,0.08,0.19
2022-01-31 9:55:37.9370,0.047,-0.206,-0.991,0.3,0.09,-0.04,-0.3,0.16,0.2
2022-01-31 9:55:37.9470,0.062,-0.199,-1.012,0.18,0.08,0.15,-0.22,0.22,0.24
2022-01-31 9:55:37.9570,0.07,-0.202,-1.018,0.06,0.04,0.34,-0.14,0.27,0.27
2022-01-31 9:55:37.9670,0.066,-0.208,-1.012,0.01,0.07,0.38,-0.08,0.34,0.32
2022-01-31 9:55:37.9770,0.064,-0.217,-0.997,0.08,0.14,0.31,-0.04,0.39,0.37
2022-01-31 9:55:37.9870,0.06,-0.206,-0.983,0.13,0.23,0.16,-0.02,0.42,0.38
2022-01-31 9:55:37.9970,0.048,-0.184,-0.964,0.21,0.08,0.02,-0.04,0.43,0.37
2022-01-31 9:55:38.0070,0.032,-0.184,-0.953,0.38,-0.11,-0.15,-0.07,0.46,0.33
2022-01-31 9:55:38.0180,0.036,-0.182,-0.954,0.57,-0.1,-0.25,-0.1,0.5,0.31
2022-01-31 9:55:38.0270,0.052,-0.175,-0.971,0.53,-0.12,-0.22,-0.11,0.5,0.3
2022-01-31 9:55:38.0370,0.058,-0.166,-0.984,0.43,-0.18,-0.04,-0.1,0.49,0.28
2022-01-31 9:55:38.0480,0.057,-0.162,-1.0,0.42,-0.26,0.09,-0.07,0.45,0.25
2022-01-31 9:55:38.0580,0.045,-0.155,-1.019,0.48,-0.29,0.26,-0.02,0.4,0.19
2022-01-31 9:55:38.0680,0.045,-0.149,-1.02,0.64,-0.36,0.44,0.02,0.37,0.13
2022-01-31 9:55:38.0780,0.072,-0.154,-1.005,0.63,-0.42,0.42,0.04,0.33,0.1
2022-01-31 9:55:38.0880,0.096,-0.159,-0.99,0.38,-0.37,0.27,0.02,0.29,0.08
2022-01-31 9:55:38.0980,0.099,-0.155,-0.999,0.19,-0.33,0.14,0.01,0.16,0.05
2022-01-31 9:55:38.1080,0.105,-0.15,-1.034,0.19,-0.37,0.29,-0.02,0.04,0.0
2022-01-31 9:55:38.1180,0.115,-0.154,-1.022,0.11,-0.41,0.59,-0.06,-0.09,-0.03
2022-01-31 9:55:38.1280,0.113,-0.166,-1.044,0.02,-0.36,0.46,-0.09,-0.29,-0.05
2022-01-31 9:55:38.1390,0.117,-0.169,-1.054,0.01,-0.22,0.71,-0.13,-0.4,-0.08
2022-01-31 9:55:38.1480,0.105,-0.166,-1.019,-0.06,-0.19,0.73,-0.19,-0.42,-0.12
2022-01-31 9:55:38.1580,0.073,-0.157,-0.99,0.04,-0.21,0.37,-0.27,-0.42,-0.17
2022-01-31 9:55:38.1690,0.058,-0.147,-0.971,0.33,-0.28,0.1,-0.33,-0.35,-0.21
2022-01-31 9:55:38.1780,0.067,-0.157,-0.952,0.4,-0.33,-0.11,-0.35,-0.23,-0.22
2022-01-31 9:55:38.1900,0.105,-0.186,-0.974,0.29,-0.17,-0.28,-0.32,-0.13,-0.17
2022-01-31 9:55:38.1990,0.161,-0.217,-1.023,-0.16,0.16,-0.01,-0.22,-0.11,-0.05
2022-01-31 9:55:38.2090,0.183,-0.233,-1.05,-0.68,0.47,0.47,-0.1,-0.08,0.09
2022-01-31 9:55:38.2190,0.172,-0.227,-1.048,-0.87,0.61,0.68,0.01,-0.05,0.2
2022-01-31 9:55:38.2290,0.144,-0.213,-1.037,-0.73,0.53,0.64,0.08,-0.03,0.24
2022-01-31 9:55:38.2390,0.114,-0.192,-1.012,-0.45,0.37,0.52,0.1,-0.04,0.22
2022-01-31 9:55:38.2490,0.089,-0.178,-0.981,-0.16,0.15,0.26,0.06,-0.05,0.15
2022-01-31 9:55:38.2590,0.082,-0.178,-0.961,0.05,0.03,-0.03,-0.0,-0.12,0.1
2022-01-31 9:55:38.2690,0.11,-0.19,-1.003,0.07,0.05,-0.18,-0.05,-0.17,0.08
2022-01-31 9:55:38.2790,0.13,-0.17,-0.97,-0.25,0.18,0.22,-0.14,-0.22,-0.03
2022-01-31 9:55:38.2890,0.078,-0.104,-1.02,-0.42,-0.11,-0.11,-0.21,-0.39,-0.16
2022-01-31 9:55:38.2990,0.069,-0.137,-1.051,0.13,-0.66,0.45,-0.2,-0.44,-0.19
2022-01-31 9:55:38.3100,0.118,-0.194,-1.011,0.02,-0.21,0.64,-0.17,-0.34,-0.12
2022-01-31 9:55:38.3200,0.12,-0.214,-0.998,-0.43,0.31,0.22,-0.11,-0.24,-0.01
2022-01-31 9:55:38.3300,0.15,-0.235,-1.002,-0.48,0.5,0.15,-0.02,-0.11,0.15
2022-01-31 9:55:38.3400,0.161,-0.244,-0.97,-0.8,0.71,0.15,0.04,0.01,0.3
2022-01-31 9:55:38.3510,0.142,-0.262,-0.934,-0.86,0.77,-0.18,0.07,0.1,0.46
2022-01-31 9:55:38.3600,0.118,-0.248,-0.944,-0.65,0.96,-0.5,0.06,0.17,0.5
2022-01-31 9:55:38.3700,0.095,-0.157,-0.916,-0.4,0.68,-0.38,0.02,0.28,0.44
2022-01-31 9:55:38.3800,0.068,-0.14,-0.901,-0.16,-0.18,-0.71,-0.0,0.37,0.36
2022-01-31 9:55:38.3910,0.033,-0.144,-0.931,0.15,-0.27,-0.78,0.01,0.43,0.28
2022-01-31 9:55:38.4000,0.023,-0.137,-0.965,0.52,-0.26,-0.47,0.04,0.45,0.2
2022-01-31 9:55:38.4100,0.032,-0.13,-0.999,0.62,-0.32,-0.13,0.07,0.41,0.1
2022-01-31 9:55:38.4200,0.037,-0.114,-1.031,0.56,-0.41,0.22,0.09,0.32,0.01
2022-01-31 9:55:38.4300,0.057,-0.11,-1.04,0.55,-0.58,0.51,0.09,0.23,-0.06
2022-01-31 9:55:38.4410,0.082,-0.127,-1.048,0.35,-0.6,0.59,0.09,0.12,-0.07
2022-01-31 9:55:38.4510,0.089,-0.147,-1.036,0.13,-0.42,0.66,0.08,0.05,-0.06
2022-01-31 9:55:38.4610,0.101,-0.155,-1.018,0.08,-0.25,0.51,0.07,0.0,-0.05
2022-01-31 9:55:38.4710,0.123,-0.161,-1.011,-0.06,-0.19,0.36,0.04,-0.02,-0.02
2022-01-31 9:55:38.4810,0.135,-0.166,-1.0,-0.28,-0.13,0.28,0.02,-0.02,0.03
2022-01-31 9:55:38.4910,0.126,-0.17,-0.992,-0.38,-0.08,0.18,-0.0,-0.03,0.07
2022-01-31 9:55:38.5010,0.108,-0.167,-0.99,-0.26,-0.04,0.1,-0.02,-0.02,0.07
2022-01-31 9:55:38.5120,0.089,-0.155,-0.988,-0.09,-0.09,0.09,-0.02,0.01,0.06
2022-01-31 9:55:38.5210,0.078,-0.145,-0.984,0.1,-0.21,0.07,-0.01,0.05,0.01
2022-01-31 9:55:38.5310,0.088,-0.15,-0.991,0.19,-0.3,0.03,0.03,0.09,-0.01
2022-01-31 9:55:38.5410,0.11,-0.167,-1.007,0.08,-0.23,0.13,0.07,0.1,-0.01
2022-01-31 9:55:38.5520,0.122,-0.181,-1.002,-0.13,-0.06,0.27,0.11,0.13,-0.0
2022-01-31 9:55:38.5610,0.119,-0.188,-0.99,-0.22,0.06,0.2,0.12,0.14,0.02
2022-01-31 9:55:38.5720,0.107,-0.194,-0.972,-0.16,0.11,0.08,0.09,0.16,0.03
2022-01-31 9:55:38.5820,0.094,-0.193,-0.95,-0.02,0.15,-0.1,0.04,0.18,0.03
2022-01-31 9:55:38.5920,0.092,-0.188,-0.948,0.12,0.14,-0.29,-0.03,0.18,0.03
2022-01-31 9:55:38.6020,0.094,-0.184,-0.968,0.13,0.09,-0.29,-0.07,0.16,0.04
2022-01-31 9:55:38.6120,0.101,-0.186,-1.012,0.13,0.06,-0.06,-0.07,0.06,0.06
2022-01-31 9:55:38.6220,0.104,-0.184,-1.053,0.06,0.09,0.39,-0.04,-0.08,0.09
2022-01-31 9:55:38.6320,0.108,-0.179,-1.061,0.02,0.06,0.76,0.01,-0.18,0.11
2022-01-31 9:55:38.6430,0.114,-0.175,-1.048,-0.04,0.01,0.79,0.06,-0.22,0.11
2022-01-31 9:55:38.6520,0.117,-0.176,-1.033,-0.12,-0.03,0.65,0.1,-0.21,0.11
2022-01-31 9:55:38.6620,0.115,-0.184,-1.009,-0.17,-0.03,0.51,0.14,-0.14,0.12
2022-01-31 9:55:38.6720,0.112,-0.19,-0.991,-0.15,0.04,0.26,0.17,-0.03,0.15
2022-01-31 9:55:38.6830,0.111,-0.188,-0.993,-0.14,0.07,0.11,0.19,0.04,0.18
2022-01-31 9:55:38.6920,0.096,-0.176,-0.994,-0.11,0.02,0.15,0.2,0.06,0.21
2022-01-31 9:55:38.7030,0.08,-0.174,-0.975,0.05,-0.12,0.15,0.19,0.08,0.22
2022-01-31 9:55:38.7130,0.08,-0.18,-0.955,0.19,-0.15,-0.06,0.16,0.13,0.25
2022-01-31 9:55:38.7230,0.071,-0.177,-0.959,0.2,-0.11,-0.22,0.14,0.15,0.26
2022-01-31 9:55:38.7330,0.055,-0.161,-0.969,0.31,-0.17,-0.16,0.13,0.18,0.22
2022-01-31 9:55:38.7430,0.039,-0.138,-0.982,0.49,-0.35,-0.06,0.14,0.17,0.13
2022-01-31 9:55:38.7530,0.038,-0.103,-1.009,0.65,-0.6,0.09,0.18,0.12,0.0
2022-01-31 9:55:38.7630,0.036,-0.05,-1.046,0.66,-0.98,0.38,0.25,0.03,-0.18
2022-01-31 9:55:38.7730,0.063,-0.089,-1.08,0.67,-1.49,0.75,0.38,-0.07,-0.28
2022-01-31 9:55:38.7840,0.108,-0.18,-1.097,0.36,-1.01,1.08,0.59,-0.05,-0.27
2022-01-31 9:55:38.7930,0.126,-0.233,-1.075,-0.07,-0.2,1.22,0.87,0.13,-0.18
2022-01-31 9:55:38.8030,0.118,-0.23,-1.032,-0.17,0.16,0.98,1.2,0.39,-0.06
2022-01-31 9:55:38.8130,0.111,-0.205,-1.02,-0.05,-0.04,0.6,1.53,0.67,0.03
2022-01-31 9:55:38.8230,0.099,-0.2,-1.004,0.1,-0.45,0.57,1.82,0.95,0.06
2022-01-31 9:55:38.8340,0.103,-0.223,-0.981,0.3,-0.62,0.44,2.06,1.27,0.03
2022-01-31 9:55:38.8440,0.125,-0.237,-0.949,0.37,-0.59,0.3,2.38,1.89,-0.05
2022-01-31 9:55:38.8540,0.132,-0.227,-0.865,0.35,-0.73,0.01,2.58,2.62,-0.14
2022-01-31 9:55:38.8640,0.173,-0.326,-0.858,0.53,-0.99,-0.65,2.17,2.54,-0.09
2022-01-31 9:55:38.8740,0.257,-0.463,-0.916,0.27,-0.05,-0.45,1.54,1.93,0.11
2022-01-31 9:55:38.8840,0.301,-0.433,-0.799,-0.38,1.04,0.04,1.15,1.38,0.33
2022-01-31 9:55:38.8940,0.288,-0.408,-0.779,-0.67,0.46,-1.07,0.69,0.62,0.29
2022-01-31 9:55:38.9040,0.232,-0.485,-0.731,-0.41,0.36,-1.12,0.12,0.04,0.13
2022-01-31 9:55:38.9150,0.228,-0.492,-0.622,0.09,1.08,-1.75,-0.45,-0.34,0.07
2022-01-31 9:55:38.9240,0.254,-0.445,-0.647,0.03,1.11,-2.75,-0.88,-0.67,0.11
2022-01-31 9:55:38.9340,0.29,-0.39,-0.751,-0.32,0.69,-2.41,-1.14,-1.06,0.17
2022-01-31 9:55:38.9450,0.279,-0.364,-0.863,-0.76,0.28,-1.41,-1.26,-1.52,0.19
2022-01-31 9:55:38.9550,0.245,-0.323,-0.923,-0.74,0.14,-0.42,-1.3,-1.87,0.15
2022-01-31 9:55:38.9650,0.204,-0.306,-0.885,-0.58,-0.15,-0.02,-1.37,-2.01,0.11
2022-01-31 9:55:38.9750,0.158,-0.316,-0.813,-0.35,-0.14,-0.57,-1.48,-1.95,0.07
2022-01-31 9:55:38.9850,0.121,-0.332,-0.76,-0.09,0.1,-1.34,-1.65,-1.83,0.05
2022-01-31 9:55:38.9950,0.108,-0.325,-0.691,0.1,0.43,-1.93,-1.89,-1.54,0.03
2022-01-31 9:55:39.0050,0.163,-0.268,-0.705,0.0,0.47,-2.68,-2.11,-1.3,0.05
2022-01-31 9:55:39.0150,0.166,-0.218,-0.786,-0.66,0.1,-2.42,-2.26,-1.14,0.17
2022-01-31 9:55:39.0250,0.188,-0.173,-0.835,-0.75,-0.16,-1.75,-2.29,-1.09,0.44
2022-01-31 9:55:39.0350,0.265,-0.107,-0.906,-1.18,-0.4,-1.3,-2.22,-1.06,0.8
2022-01-31 9:55:39.0460,0.19,-0.089,-0.974,-2.0,-0.85,-0.65,-2.09,-0.84,0.9
2022-01-31 9:55:39.0550,-0.03,-0.159,-1.047,-1.06,-0.71,-0.03,-1.85,-0.36,0.68
2022-01-31 9:55:39.0650,-0.166,-0.234,-1.159,1.05,0.21,0.7,-1.44,-0.03,0.37
2022-01-31 9:55:39.0750,-0.174,-0.21,-1.25,2.22,0.99,1.81,-0.9,0.0,0.14
2022-01-31 9:55:39.0860,-0.065,-0.111,-1.277,2.14,0.7,2.61,-0.39,-0.05,0.11
2022-01-31 9:55:39.0960,0.08,-0.047,-1.233,0.95,-0.27,2.79,0.0,0.02,0.23
2022-01-31 9:55:39.1060,0.147,-0.071,-1.166,-0.41,-0.8,2.29,0.28,0.18,0.39
2022-01-31 9:55:39.1160,0.121,-0.128,-1.107,-0.94,-0.51,1.64,0.46,0.33,0.47
2022-01-31 9:55:39.1260,0.051,-0.149,-1.067,-0.56,-0.03,1.09,0.55,0.48,0.45
2022-01-31 9:55:39.1360,0.023,-0.139,-1.02,0.17,0.07,0.72,0.57,0.76,0.43
2022-01-31 9:55:39.1460,0.04,-0.12,-0.943,0.44,-0.1,0.24,0.53,1.13,0.43
2022-01-31 9:55:39.1570,0.049,-0.103,-0.894,0.38,-0.35,-0.51,0.45,1.47,0.42
2022-01-31 9:55:39.1660,0.06,-0.106,-0.93,0.44,-0.55,-0.88,0.39,1.62,0.38
2022-01-31 9:55:39.1770,0.079,-0.142,-1.012,0.48,-0.52,-0.41,0.34,1.49,0.31
2022-01-31 9:55:39.1860,0.109,-0.15,-1.08,0.38,-0.19,0.42,0.3,1.16,0.21
2022-01-31 9:55:39.1960,0.084,-0.147,-1.126,0.24,-0.19,1.07,0.23,0.75,0.11
2022-01-31 9:55:39.2070,0.08,-0.162,-1.112,0.59,-0.22,1.49,0.15,0.43,0.07
2022-01-31 9:55:39.2160,0.135,-0.167,-1.083,0.56,-0.08,1.3,0.12,0.21,0.11
2022-01-31 9:55:39.2270,0.152,-0.19,-1.041,0.05,-0.05,1.03,0.12,0.23,0.17
2022-01-31 9:55:39.2370,0.171,-0.222,-0.985,-0.05,0.19,0.57,0.15,0.34,0.26
2022-01-31 9:55:39.2470,0.206,-0.225,-0.998,-0.25,0.46,0.1,0.21,0.39,0.38
2022-01-31 9:55:39.2570,0.191,-0.208,-1.025,-0.52,0.43,0.28,0.26,0.32,0.45
2022-01-31 9:55:39.2670,0.159,-0.171,-1.067,-0.32,0.2,0.58,0.34,0.23,0.44
2022-01-31 9:55:39.2770,0.142,-0.149,-1.061,0.01,-0.2,0.96,0.41,0.13,0.39
2022-01-31 9:55:39.2870,0.125,-0.153,-1.039,0.16,-0.43,0.87,0.42,0.02,0.31
2022-01-31 9:55:39.2970,0.106,-0.167,-0.997,0.34,-0.41,0.65,0.38,-0.0,0.23
2022-01-31 9:55:39.3070,0.127,-0.171,-0.956,0.48,-0.33,0.21,0.34,0.01,0.19
2022-01-31 9:55:39.3170,0.152,-0.195,-1.004,0.24,-0.31,-0.1,0.37,-0.06,0.19
2022-01-31 9:55:39.3270,0.171,-0.21,-1.012,0.0,-0.11,0.44,0.4,0.01,0.22
2022-01-31 9:55:39.3380,0.182,-0.235,-0.967,-0.18,-0.01,0.4,0.42,0.16,0.29
2022-01-31 9:55:39.3470,0.165,-0.241,-0.975,-0.25,0.2,0.01,0.45,0.28,0.32
2022-01-31 9:55:39.3570,0.143,-0.223,-0.996,-0.04,0.17,0.15,0.49,0.31,0.3
2022-01-31 9:55:39.3680,0.137,-0.226,-1.021,0.18,-0.05,0.37,0.5,0.19,0.27
2022-01-31 9:55:39.3780,0.134,-0.233,-1.018,0.23,-0.06,0.62,0.42,-0.03,0.2
2022-01-31 9:55:39.3880,0.104,-0.225,-0.992,0.27,-0.03,0.56,0.27,-0.32,0.08
2022-01-31 9:55:39.3980,0.072,-0.192,-0.983,0.55,-0.17,0.3,0.1,-0.61,-0.07
2022-01-31 9:55:39.4080,0.025,-0.181,-0.972,0.8,-0.49,0.23,-0.04,-0.77,-0.28
2022-01-31 9:55:39.4180,-0.025,-0.171,-0.901,1.23,-0.56,0.06,-0.16,-0.7,-0.53
2022-01-31 9:55:39.4280,-0.013,-0.181,-0.786,1.62,-0.64,-0.73,-0.29,-0.32,-0.68
2022-01-31 9:55:39.4390,0.023,-0.226,-0.734,1.44,-0.45,-1.86,-0.39,0.11,-0.71
2022-01-31 9:55:39.4480,0.082,-0.244,-0.781,1.11,0.03,-2.24,-0.42,0.5,-0.64
2022-01-31 9:55:39.4580,0.162,-0.263,-0.875,0.55,0.24,-1.71,-0.34,0.77,-0.49
2022-01-31 9:55:39.4680,0.21,-0.256,-0.978,-0.12,0.45,-0.73,-0.2,0.86,-0.33
2022-01-31 9:55:39.4780,0.232,-0.22,-1.013,-0.48,0.36,0.23,-0.07,0.87,-0.19
2022-01-31 9:55:39.4890,0.233,-0.191,-1.038,-0.57,-0.01,0.52,0.06,0.75,-0.09
2022-01-31 9:55:39.4990,0.209,-0.209,-1.06,-0.51,-0.26,0.82,0.15,0.59,-0.03
2022-01-31 9:55:39.5090,0.16,-0.241,-0.959,-0.15,-0.03,0.95,0.06,0.56,-0.01
2022-01-31 9:55:39.5190,0.125,-0.216,-0.831,0.37,0.24,-0.17,-0.19,0.58,-0.07
2022-01-31 9:55:39.5290,0.093,-0.161,-0.793,0.76,-0.06,-1.33,-0.43,0.6,-0.21
2022-01-31 9:55:39.5390,0.047,-0.116,-0.814,1.15,-0.54,-1.59,-0.61,0.61,-0.46
2022-01-31 9:55:39.5490,-0.003,-0.087,-0.811,1.69,-0.9,-1.38,-0.76,0.73,-0.76
2022-01-31 9:55:39.5590,-0.012,-0.087,-0.797,2.25,-1.06,-1.44,-0.89,0.98,-1.02
2022-01-31 9:55:39.5700,0.05,-0.101,-0.793,2.37,-0.91,-1.57,-1.03,1.24,-1.19
2022-01-31 9:55:39.5790,0.202,-0.18,-0.897,1.8,-0.62,-1.54,-0.98,1.11,-1.18
2022-01-31 9:55:39.5890,0.426,-0.259,-1.08,0.3,0.35,-0.34,-0.77,0.58,-0.91
2022-01-31 9:55:39.6000,0.617,-0.27,-1.182,-1.87,1.13,1.43,-0.46,-0.02,-0.42
2022-01-31 9:55:39.6100,0.67,-0.241,-1.177,-3.62,1.21,2.28,-0.14,-0.36,0.17
2022-01-31 9:55:39.6200,0.611,-0.247,-1.124,-4.01,0.93,2.13,0.18,-0.49,0.68
2022-01-31 9:55:39.6300,0.454,-0.248,-1.093,-3.37,0.99,1.59,0.44,-0.48,0.89
2022-01-31 9:55:39.6400,0.282,-0.239,-1.023,-1.78,0.89,1.3,0.68,-0.11,0.97
2022-01-31 9:55:39.6500,0.21,-0.203,-0.894,-0.2,0.71,0.51,0.86,0.35,0.99
2022-01-31 9:55:39.6600,0.175,-0.151,-0.817,0.41,0.21,-0.72,1.0,0.91,0.86
2022-01-31 9:55:39.6700,0.089,-0.078,-0.82,0.91,-0.44,-1.32,1.16,1.41,0.57
2022-01-31 9:55:39.6800,0.087,-0.044,-0.869,1.86,-1.29,-1.15,1.37,1.72,0.23
2022-01-31 9:55:39.6900,0.159,-0.064,-0.948,1.89,-1.68,-0.56,1.59,1.73,-0.01
2022-01-31 9:55:39.7000,0.273,-0.133,-1.039,1.3,-1.58,0.34,1.76,1.42,-0.11
2022-01-31 9:55:39.7100,0.392,-0.219,-1.04,0.25,-1.0,1.27,1.77,1.12,-0.1
2022-01-31 9:55:39.7210,0.439,-0.267,-0.93,-0.74,-0.34,1.2,1.6,1.2,0.01
2022-01-31 9:55:39.7300,0.427,-0.262,-0.842,-1.01,-0.06,0.14,1.41,1.42,0.11
2022-01-31 9:55:39.7410,0.388,-0.175,-0.845,-0.71,-0.33,-0.52,1.36,1.79,0.06
2022-01-31 9:55:39.7510,0.38,-0.085,-0.881,-0.16,-1.39,-0.31,1.38,2.11,-0.12
2022-01-31 9:55:39.7620,0.405,-0.17,-0.879,0.03,-2.24,0.15,1.39,2.1,-0.21
2022-01-31 9:55:39.7710,0.379,-0.4,-0.884,-0.01,-1.27,0.19,1.1,1.43,-0.21
2022-01-31 9:55:39.7810,0.392,-0.571,-0.884,0.39,0.96,0.4,0.53,0.52,-0.13
2022-01-31 9:55:39.7910,0.509,-0.556,-0.781,0.15,2.41,0.27,0.0,-0.05,0.02
2022-01-31 9:55:39.8010,0.587,-0.433,-0.79,-1.05,2.05,-0.72,-0.44,-0.68,0.05
2022-01-31 9:55:39.8110,0.547,-0.385,-0.881,-1.75,0.9,-0.51,-0.77,-1.35,-0.02
2022-01-31 9:55:39.8210,0.449,-0.377,-0.953,-1.37,0.62,0.31,-0.93,-1.85,-0.11
2022-01-31 9:55:39.8310,0.382,-0.334,-0.993,-0.55,0.59,0.88,-0.92,-2.12,-0.19
2022-01-31 9:55:39.8410,0.411,-0.301,-1.004,-0.19,0.23,1.12,-0.79,-2.15,-0.18
2022-01-31 9:55:39.8520,0.422,-0.301,-0.997,-0.71,0.03,1.1,-0.61,-2.03,-0.1
2022-01-31 9:55:39.8620,0.382,-0.305,-0.962,-0.9,0.1,0.94,-0.41,-1.73,0.02
2022-01-31 9:55:39.8720,0.398,-0.318,-0.885,-0.68,0.17,0.47,-0.28,-1.43,0.25
2022-01-31 9:55:39.8820,0.51,-0.311,-0.795,-1.08,0.32,-0.36,-0.28,-1.09,0.71
2022-01-31 9:55:39.8920,0.485,-0.292,-0.701,-2.34,0.19,-1.3,-0.31,-0.52,0.93
2022-01-31 9:55:39.9020,0.255,-0.314,-0.637,-1.77,0.07,-2.21,-0.32,0.2,0.86
2022-01-31 9:55:39.9120,0.009,-0.328,-0.629,0.58,0.3,-2.78,-0.21,1.19,0.52
2022-01-31 9:55:39.9220,-0.148,-0.337,-0.716,3.04,0.42,-2.73,0.09,2.07,0.02
2022-01-31 9:55:39.9320,-0.022,-0.319,-0.794,4.62,0.49,-1.72,0.32,2.25,-0.18
2022-01-31 9:55:39.9420,0.381,-0.278,-0.821,3.01,0.23,-0.97,0.4,2.27,-0.09
2022-01-31 9:55:39.9530,0.474,-0.347,-0.882,-0.57,-0.15,-0.62,0.35,2.04,0.06
2022-01-31 9:55:39.9620,0.422,-0.487,-0.943,-0.96,0.67,0.11,0.14,1.42,0.2
2022-01-31 9:55:39.9720,0.421,-0.52,-0.997,-0.35,1.97,0.71,-0.28,0.37,0.35
2022-01-31 9:55:39.9830,0.45,-0.445,-1.023,-0.44,2.15,1.26,-0.64,-0.53,0.45
2022-01-31 9:55:39.9920,0.369,-0.346,-0.943,-0.72,1.38,1.33,-0.83,-1.0,0.41
2022-01-31 9:55:40.0030,0.227,-0.251,-0.859,0.11,0.49,0.43,-0.9,-1.04,0.15
2022-01-31 9:55:40.0130,0.117,-0.137,-0.847,1.42,-0.41,-0.4,-0.81,-0.73,-0.26
2022-01-31 9:55:40.0230,0.089,-0.107,-0.946,2.37,-1.39,-0.44,-0.48,-0.36,-0.63
2022-01-31 9:55:40.0330,0.151,-0.14,-1.107,2.53,-1.51,0.65,-0.12,-0.22,-0.83
2022-01-31 9:55:40.0430,0.289,-0.177,-1.18,1.8,-1.14,2.18,0.15,-0.19,-0.87
2022-01-31 9:55:40.0540,0.397,-0.223,-1.161,0.44,-0.76,2.76,0.26,-0.25,-0.77
2022-01-31 9:55:40.0630,0.484,-0.296,-1.104,-0.59,-0.28,2.48,0.25,-0.36,-0.5
2022-01-31 9:55:40.0730,0.541,-0.38,-1.02,-1.43,0.46,1.91,0.2,-0.28,-0.1
2022-01-31 9:55:40.0830,0.546,-0.425,-0.929,-1.96,1.24,1.03,0.13,-0.06,0.28
2022-01-31 9:55:40.0930,0.466,-0.399,-0.865,-1.92,1.6,0.18,0.03,0.25,0.5
2022-01-31 9:55:40.1030,0.411,-0.297,-0.852,-1.07,1.2,-0.41,-0.09,0.4,0.59
2022-01-31 9:55:40.1140,0.407,-0.234,-0.952,-0.62,0.18,-0.4,-0.16,0.28,0.58
2022-01-31 9:55:40.1230,0.374,-0.207,-1.073,-0.56,-0.37,0.69,-0.18,-0.0,0.53
2022-01-31 9:55:40.1330,0.33,-0.188,-1.153,-0.23,-0.61,1.81,-0.09,-0.35,0.41
2022-01-31 9:55:40.1440,0.289,-0.176,-1.176,0.17,-0.81,2.54,0.04,-0.66,0.29
2022-01-31 9:55:40.1540,0.295,-0.18,-1.101,0.45,-0.92,2.62,0.16,-0.75,0.21
2022-01-31 9:55:40.1640,0.302,-0.2,-0.995,0.29,-0.89,1.79,0.24,-0.64,0.17
2022-01-31 9:55:40.1740,0.294,-0.235,-0.892,0.19,-0.69,0.73,0.29,-0.42,0.18
2022-01-31 9:55:40.1840,0.295,-0.255,-0.834,0.23,-0.39,-0.26,0.31,-0.15,0.21
2022-01-31 9:55:40.1940,0.29,-0.241,-0.818,0.2,-0.26,-0.74,0.34,0.08,0.2
2022-01-31 9:55:40.2040,0.287,-0.216,-0.844,0.26,-0.48,-0.86,0.38,0.17,0.14
2022-01-31 9:55:40.2140,0.263,-0.239,-0.902,0.31,-0.72,-0.5,0.38,0.1,0.07
2022-01-31 9:55:40.2240,0.246,-0.25,-0.871,0.56,-0.49,0.02,0.3,0.06,-0.02
2022-01-31 9:55:40.2340,0.253,-0.251,-0.786,0.72,-0.44,-0.4,0.3,0.06,-0.02
2022-01-31 9:55:40.2440,0.263,-0.271,-0.781,0.63,-0.42,-1.19,0.13,0.25,-0.16
2022-01-31 9:55:40.2540,0.224,-0.241,-0.826,0.63,-0.25,-1.1,0.19,0.45,-0.29
2022-01-31 9:55:40.2660,0.226,-0.217,-0.866,1.06,-0.62,-0.65,0.37,0.64,-0.38
2022-01-31 9:55:40.2750,0.27,-0.255,-0.892,1.04,-0.8,-0.21,0.56,0.8,-0.38
2022-01-31 9:55:40.2850,0.326,-0.297,-0.876,0.67,-0.43,0.04,0.67,0.93,-0.3
2022-01-31 9:55:40.2950,0.39,-0.348,-0.82,0.2,-0.07,-0.12,0.67,0.99,-0.14
2022-01-31 9:55:40.3050,0.446,-0.363,-0.782,-0.35,0.38,-0.64,0.61,0.97,-0.02
2022-01-31 9:55:40.3150,0.447,-0.354,-0.798,-0.75,0.39,-0.87,0.46,0.88,0.06
2022-01-31 9:55:40.3250,0.437,-0.356,-0.77,-0.66,0.31,-0.69,0.24,0.77,0.08
2022-01-31 9:55:40.3350,0.414,-0.32,-0.793,-0.49,0.25,-0.94,0.08,0.58,0.03
2022-01-31 9:55:40.3450,0.407,-0.329,-0.859,-0.22,-0.08,-0.6,-0.04,0.31,0.01
2022-01-31 9:55:40.3560,0.424,-0.358,-0.877,-0.17,0.06,0.04,-0.1,0.14,0.05
2022-01-31 9:55:40.3650,0.419,-0.333,-0.875,-0.32,0.34,0.14,-0.07,0.06,0.02
2022-01-31 9:55:40.3750,0.388,-0.277,-0.916,-0.23,-0.02,0.19,0.03,-0.02,-0.06
2022-01-31 9:55:40.3860,0.384,-0.308,-0.917,0.07,-0.48,0.57,0.12,-0.07,-0.07
2022-01-31 9:55:40.3950,0.403,-0.361,-0.891,0.07,-0.11,0.53,0.17,-0.09,0.01
2022-01-31 9:55:40.4060,0.423,-0.39,-0.876,-0.15,0.38,0.27,0.21,-0.13,0.09
2022-01-31 9:55:40.4160,0.403,-0.376,-0.869,-0.33,0.59,0.15,0.2,-0.24,0.12
2022-01-31 9:55:40.4260,0.368,-0.359,-0.87,-0.12,0.4,0.07,0.16,-0.46,0.11
2022-01-31 9:55:40.4360,0.353,-0.379,-0.872,0.16,0.25,0.1,0.06,-0.72,0.13
2022-01-31 9:55:40.4460,0.341,-0.43,-0.848,0.22,0.48,0.04,-0.12,-0.99,0.22
2022-01-31 9:55:40.4560,0.338,-0.467,-0.806,0.24,1.01,-0.25,-0.31,-1.16,0.36
2022-01-31 9:55:40.4660,0.344,-0.455,-0.76,0.11,1.32,-0.75,-0.48,-1.23,0.48
2022-01-31 9:55:40.4760,0.313,-0.426,-0.719,-0.02,1.19,-1.24,-0.64,-1.19,0.6
2022-01-31 9:55:40.4870,0.3,-0.4,-0.715,0.18,0.94,-1.69,-0.73,-1.12,0.71
2022-01-31 9:55:40.4960,0.318,-0.378,-0.807,0.12,0.73,-1.69,-0.78,-1.13,0.8
2022-01-31 9:55:40.5060,0.32,-0.339,-0.853,-0.15,0.56,-0.79,-0.77,-1.01,0.85
2022-01-31 9:55:40.5170,0.339,-0.291,-0.85,-0.31,0.19,-0.5,-0.63,-0.72,0.93
2022-01-31 9:55:40.5270,0.325,-0.288,-0.889,-0.56,-0.23,-0.54,-0.4,-0.4,1.01
2022-01-31 9:55:40.5370,0.265,-0.279,-0.953,-0.43,-0.21,-0.15,-0.15,-0.25,0.99
2022-01-31 9:55:40.5470,0.222,-0.254,-1.013,0.14,-0.39,0.5,0.13,-0.12,0.92
2022-01-31 9:55:40.5570,0.223,-0.279,-1.041,0.45,-0.59,1.05,0.42,0.02,0.84
2022-01-31 9:55:40.5670,0.215,-0.277,-1.056,0.41,-0.42,1.32,0.68,0.13,0.7
2022-01-31 9:55:40.5770,0.203,-0.264,-1.057,0.51,-0.56,1.48,0.88,0.19,0.54
2022-01-31 9:55:40.5870,0.204,-0.245,-1.013,0.6,-0.78,1.49,0.97,0.25,0.38
2022-01-31 9:55:40.5970,0.182,-0.228,-0.939,0.61,-1.07,1.04,0.99,0.34,0.16
2022-01-31 9:55:40.6070,0.165,-0.233,-0.891,0.89,-1.31,0.37,0.94,0.41,-0.01
2022-01-31 9:55:40.6180,0.226,-0.287,-0.846,1.02,-1.29,-0.02,0.82,0.53,-0.05
2022-01-31 9:55:40.6270,0.303,-0.381,-0.781,0.41,-0.77,-0.46,0.66,0.7,0.04
2022-01-31 9:55:40.6380,0.345,-0.469,-0.769,-0.27,0.12,-1.03,0.52,0.86,0.21
2022-01-31 9:55:40.6470,0.351,-0.513,-0.816,-0.55,0.9,-1.01,0.41,0.91,0.36
2022-01-31 9:55:40.6580,0.348,-0.49,-0.882,-0.53,1.21,-0.48,0.34,0.72,0.42
2022-01-31 9:55:40.6680,0.332,-0.432,-0.99,-0.45,0.87,0.25,0.28,0.27,0.35
2022-01-31 9:55:40.6780,0.306,-0.37,-1.057,-0.28,0.25,1.34,0.15,-0.32,0.22
2022-01-31 9:55:40.6880,0.276,-0.333,-1.027,-0.07,-0.35,1.85,-0.06,-0.82,0.08
2022-01-31 9:55:40.6980,0.225,-0.326,-0.99,0.17,-0.67,1.47,-0.29,-1.23,-0.04
2022-01-31 9:55:40.7080,0.186,-0.326,-0.979,0.56,-0.68,1.1,-0.47,-1.56,-0.13
2022-01-31 9:55:40.7180,0.173,-0.321,-0.963,0.78,-0.64,0.92,-0.59,-1.78,-0.21
2022-01-31 9:55:40.7280,0.167,-0.307,-0.945,0.74,-0.64,0.69,-0.65,-1.81,-0.28
2022-01-31 9:55:40.7390,0.159,-0.287,-0.91,0.65,-0.73,0.45,-0.72,-1.71,-0.36
2022-01-31 9:55:40.7480,0.146,-0.278,-0.876,0.59,-0.84,0.0,-0.79,-1.57,-0.43
2022-01-31 9:55:40.7580,0.127,-0.276,-0.88,0.62,-0.83,-0.34,-0.83,-1.45,-0.48
2022-01-31 9:55:40.7680,0.107,-0.269,-0.888,0.68,-0.77,-0.33,-0.84,-1.38,-0.51
2022-01-31 9:55:40.7790,0.083,-0.272,-0.903,0.78,-0.75,-0.31,-0.79,-1.31,-0.52
2022-01-31 9:55:40.7890,0.051,-0.27,-0.909,0.93,-0.63,-0.21,-0.69,-1.14,-0.52
2022-01-31 9:55:40.7990,0.037,-0.254,-0.905,1.15,-0.6,-0.21,-0.55,-0.88,-0.53
2022-01-31 9:55:40.8090,0.034,-0.235,-0.929,1.2,-0.71,-0.27,-0.35,-0.65,-0.54
2022-01-31 9:55:40.8190,0.049,-0.216,-0.944,1.19,-0.86,-0.01,-0.15,-0.44,-0.51
2022-01-31 9:55:40.8290,0.067,-0.212,-0.942,1.0,-1.02,0.07,0.03,-0.23,-0.45
2022-01-31 9:55:40.8390,0.065,-0.201,-0.97,0.84,-1.05,0.07,0.2,-0.1,-0.35
2022-01-31 9:55:40.8490,0.025,-0.151,-0.991,0.88,-1.22,0.38,0.37,0.02,-0.31
2022-01-31 9:55:40.8590,-0.058,-0.09,-0.981,1.36,-1.78,0.56,0.54,0.17,-0.38
2022-01-31 9:55:40.8690,-0.138,-0.038,-0.947,2.22,-2.42,0.46,0.68,0.31,-0.58
2022-01-31 9:55:40.9390,-0.182,-0.017,-0.897,3.25,-2.6,-0.8,0.63,1.1,-1.44
2022-01-31 9:55:40.9390,-0.182,-0.031,-0.849,3.25,-2.6,-0.8,0.63,1.1,-1.44
2022-01-31 9:55:40.9390,-0.142,-0.075,-0.835,3.25,-2.6,-0.8,0.63,1.1,-1.44
2022-01-31 9:55:40.9390,-0.051,-0.152,-0.842,3.25,-2.6,-0.8,0.63,1.1,-1.44
2022-01-31 9:55:40.9390,0.076,-0.232,-0.905,3.25,-2.6,-0.8,0.63,1.1,-1.44
2022-01-31 9:55:40.9390,0.163,-0.282,-0.98,3.25,-2.6,-0.8,0.63,1.1,-1.44
2022-01-31 9:55:40.9390,0.201,-0.31,-0.956,3.25,-2.6,-0.8,0.56,1.6,-1.47
2022-01-31 9:55:40.9400,0.406,-0.343,-0.984,3.25,-2.6,-0.8,0.5,1.76,-1.45
2022-01-31 9:55:40.9590,0.399,-0.401,-1.178,3.25,-2.6,-0.8,0.77,1.11,-1.11
Time,0.356,-0.522,-1.201,2.45,-1.84,-0.65,1.05,0.82,-0.96
2022-01-31 9:55:40.9830,0.335,-0.491,-1.137,-0.87,0.54,3.01,1.39,0.64,-0.86
2022-01-31 9:55:40.9900,0.367,-0.401,-1.027,-0.18,0.98,2.52,1.71,0.68,-0.82
2022-01-31 9:55:41.0000,0.365,-0.35,-0.864,-0.43,0.0,1.45,2.02,0.85,-0.88
2022-01-31 9:55:41.0100,0.342,-0.348,-0.717,-0.23,-0.59,-0.05,2.3,1.07,-1.0
2022-01-31 9:55:41.0200,0.333,-0.408,-0.6,0.12,-0.7,-1.32,2.52,1.35,-1.07
2022-01-31 9:55:41.0300,0.372,-0.522,-0.518,0.34,-0.22,-2.27,2.62,1.65,-0.99
2022-01-31 9:55:41.0400,0.511,-0.709,-0.533,0.03,0.81,-2.83,2.55,1.68,-0.72
2022-01-31 9:55:41.0610,0.669,-0.872,-0.627,-2.61,3.87,-1.31,2.15,1.44,-0.4
2022-01-31 9:55:41.0650,0.685,-0.889,-0.635,-2.61,3.87,-1.31,1.45,0.89,-0.21
2022-01-31 9:55:41.0640,0.593,-0.713,-0.63,-2.61,3.87,-1.31,0.69,0.3,-0.23
2022-01-31 9:55:41.0760,0.414,-0.518,-0.546,-2.61,3.87,-1.31,-0.07,-0.13,-0.54
2022-01-31 9:55:41.0860,0.275,-0.389,-0.507,-2.61,3.87,-1.31,-0.66,-0.46,-0.84
2022-01-31 9:55:41.0960,0.286,-0.354,-0.534,-2.61,3.87,-1.31,-1.11,-0.65,-1.04
2022-01-31 9:55:41.1060,0.36,-0.396,-0.539,-2.61,3.87,-1.31,-1.48,-0.58,-1.09
2022-01-31 9:55:41.1160,0.43,-0.462,-0.522,-2.61,3.87,-1.31,-1.76,-0.37,-0.98
2022-01-31 9:55:41.1260,0.415,-0.471,-0.587,-2.61,3.87,-1.31,-1.97,-0.32,-0.82
2022-01-31 9:55:41.1360,0.325,-0.428,-0.694,-2.61,3.87,-1.31,-2.06,-0.51,-0.71
2022-01-31 9:55:41.1460,0.276,-0.397,-0.754,-2.61,3.87,-1.31,-2.01,-0.66,-0.77
2022-01-31 9:55:41.1560,0.285,-0.346,-0.771,-2.61,3.87,-1.31,-1.85,-0.64,-0.9
2022-01-31 9:55:41.1670,0.343,-0.317,-0.811,-2.61,3.87,-1.31,-1.56,-0.64,-0.99
2022-01-31 9:55:41.1760,0.395,-0.345,-0.962,-2.61,3.87,-1.31,-1.28,-0.87,-0.95
2022-01-31 9:55:41.1860,0.399,-0.387,-1.048,-2.61,3.87,-1.31,-1.1,-1.16,-0.81
2022-01-31 9:55:41.1970,0.409,-0.363,-1.085,-2.61,3.87,-1.31,-0.9,-1.37,-0.62
2022-01-31 9:55:41.6930,0.389,-0.315,-1.067,-2.1,-0.72,-0.02,-0.16,-4.07,0.82
2022-01-31 9:55:41.6930,0.31,-0.308,-1.012,-2.1,-0.72,-0.02,-0.16,-4.07,0.82
2022-01-31 9:55:41.6930,0.244,-0.309,-0.975,-2.1,-0.72,-0.02,-0.16,-4.07,0.82
2022-01-31 9:55:41.6930,0.241,-0.275,-1.069,-2.1,-0.72,-0.02,-0.16,-4.07,0.82
2022-01-31 9:55:41.6930,0.271,-0.238,-1.154,-2.1,-0.72,-0.02,-0.16,-4.07,0.82
2022-01-31 9:55:41.6930,0.336,-0.213,-1.151,-2.1,-0.72,-0.02,-0.16,-4.07,0.82
2022-01-31 9:55:41.6930,0.366,-0.19,-1.152,-2.1,-0.72,-0.02,-0.16,-4.07,0.82
2022-01-31 9:55:41.6930,0.354,-0.191,-1.066,-2.1,-0.72,-0.02,-0.16,-4.07,0.82
2022-01-31 9:55:41.6930,0.314,-0.229,-0.924,-2.1,-0.72,-0.02,-0.16,-4.07,0.82
2022-01-31 9:55:41.6930,0.261,-0.261,-0.843,-2.1,-0.72,-0.02,-0.16,-4.07,0.82
2022-01-31 9:55:41.6930,0.212,-0.279,-0.816,-2.1,-0.72,-0.02,-0.16,-4.07,0.82
2022-01-31 9:55:41.6930,0.291,-0.304,-0.727,-2.1,-0.72,-0.02,-0.16,-4.07,0.82
2022-01-31 9:55:41.6930,0.416,-0.342,-0.568,-2.1,-0.72,-0.02,-0.16,-4.07,0.82
2022-01-31 9:55:41.6930,0.48,-0.355,-0.541,-2.1,-0.72,-0.02,-0.16,-4.07,0.82
2022-01-31 9:55:41.6930,0.535,-0.176,-0.888,-2.1,-0.72,-0.02,-0.16,-4.07,0.82
2022-01-31 9:55:41.6930,0.439,0.085,-1.013,-2.1,-0.72,-0.02,-0.16,-4.07,0.82
2022-01-31 9:55:41.6930,0.386,0.239,-1.076,-2.1,-0.72,-0.02,-0.16,-4.07,0.82
2022-01-31 9:55:41.6930,0.362,0.19,-1.158,-2.1,-0.72,-0.02,-0.16,-4.07,0.82
2022-01-31 9:55:41.6930,0.243,0.207,-1.219,-2.1,-0.72,-0.02,-0.16,-4.07,0.82
2022-01-31 9:55:41.6930,0.188,0.322,-1.091,-2.1,-0.72,-0.02,-0.16,-4.07,0.82
2022-01-31 9:55:41.6930,0.206,0.246,-0.849,-2.1,-0.72,-0.02,-0.16,-4.07,0.82
2022-01-31 9:55:41.6930,0.212,0.004,-0.692,-2.1,-0.72,-0.02,-0.16,-4.07,0.82
2022-01-31 9:55:41.6930,0.159,-0.255,-0.574,-2.1,-0.72,-0.02,-0.16,-4.07,0.82
2022-01-31 9:55:41.6930,0.084,-0.401,-0.45,-2.1,-0.72,-0.02,-0.16,-4.07,0.82
2022-01-31 9:55:41.6930,-0.017,-0.316,-0.397,-2.1,-0.72,-0.02,-0.16,-4.07,0.82
2022-01-31 9:55:41.6930,-0.172,-0.149,-0.504,-2.1,-0.72,-0.02,-0.16,-4.07,0.82
2022-01-31 9:55:41.6930,-0.172,-0.114,-0.612,-2.1,-0.72,-0.02,-0.16,-4.07,0.82
2022-01-31 9:55:41.6930,-0.052,-0.165,-0.681,-2.1,-0.72,-0.02,-0.16,-4.07,0.82
2022-01-31 9:55:41.6930,0.077,-0.147,-0.935,-2.1,-0.72,-0.02,-0.16,-4.07,0.82
2022-01-31 9:55:41.6930,0.169,-0.075,-1.105,-2.1,-0.72,-0.02,-0.16,-4.07,0.82
2022-01-31 9:55:41.6930,0.197,-0.014,-1.045,-2.1,-0.72,-0.02,-0.16,-4.07,0.82
2022-01-31 9:55:41.6930,0.157,0.035,-1.038,-2.1,-0.72,-0.02,-0.16,-4.07,0.82
2022-01-31 9:55:41.6930,0.147,0.05,-1.189,-2.1,-0.72,-0.02,-0.16,-4.07,0.82
2022-01-31 9:55:41.6930,0.034,-0.003,-1.09,-2.1,-0.72,-0.02,-0.16,-4.07,0.82
2022-01-31 9:55:41.6930,0.037,-0.061,-1.135,-2.1,-0.72,-0.02,-0.16,-4.07,0.82
2022-01-31 9:55:41.6930,0.047,-0.021,-1.113,-2.1,-0.72,-0.02,-0.16,-4.07,0.82
2022-01-31 9:55:41.6930,0.019,0.006,-1.074,-2.1,-0.72,-0.02,-0.16,-4.07,0.82
2022-01-31 9:55:41.6930,0.023,-0.007,-1.099,-2.1,-0.72,-0.02,-0.16,-4.07,0.82
2022-01-31 9:55:41.6930,0.005,-0.039,-1.185,-2.1,-0.72,-0.02,-0.16,-4.07,0.82
2022-01-31 9:55:41.6930,-0.167,0.007,-1.263,-2.1,-0.72,-0.02,-0.16,-4.07,0.82
2022-01-31 9:55:41.6930,-0.37,0.089,-1.255,-2.1,-0.72,-0.02,-0.16,-4.07,0.82
2022-01-31 9:55:41.6930,-0.461,0.123,-1.132,-2.1,-0.72,-0.02,-0.16,-4.07,0.82
2022-01-31 9:55:41.6930,-0.418,0.11,-0.99,-2.1,-0.72,-0.02,-0.16,-4.07,0.82
2022-01-31 9:55:41.6920,-0.323,0.06,-0.906,-2.1,-0.72,-0.02,-0.28,-4.15,0.89
2022-01-31 9:55:41.6930,-0.271,0.038,-0.936,-2.1,-0.72,-0.02,-0.34,-4.33,0.89
2022-01-31 9:55:41.6940,-0.288,0.115,-1.001,-2.1,-0.72,-0.02,-0.43,-4.28,0.79
2022-01-31 9:55:41.6960,-0.332,0.196,-0.977,-2.1,-0.72,-0.02,-0.71,-3.96,0.83
2022-01-31 9:55:41.6970,-0.306,0.253,-1.117,-2.1,-0.72,-0.02,-0.71,-3.67,1.04
2022-01-31 9:55:41.7000,-0.299,0.317,-1.209,-2.1,-0.72,-0.02,-0.74,-3.35,1.27
2022-01-31 9:55:41.6990,-0.286,0.357,-1.221,-2.1,-0.72,-0.02,-0.84,-3.0,1.6
2022-01-31 9:55:41.6990,-0.251,0.355,-1.226,-2.1,-0.72,-0.02,-0.87,-2.53,2.11
2022-01-31 9:55:41.7080,-0.281,0.337,-1.265,-2.1,-0.72,-0.02,-0.79,-2.1,2.65
Time,-0.345,0.338,-1.329,-2.1,-0.72,-0.02,-0.58,-1.88,3.05
2022-01-31 9:55:41.7410,-0.445,0.332,-1.351,-2.1,-0.72,-0.02,-0.27,-1.9,3.31
Time,-0.53,0.293,-1.315,-2.1,-0.72,-0.02,0.03,-2.08,3.49
2022-01-31 9:55:41.7620,-0.592,0.235,-1.215,-2.1,-0.72,-0.02,0.2,-2.2,3.61
2022-01-31 9:55:41.7760,-0.665,0.19,-1.06,-2.1,-0.72,-0.02,0.2,-2.12,3.67
2022-01-31 9:55:41.7810,-0.762,0.149,-0.9,-2.1,-0.72,-0.02,0.06,-1.86,3.6
2022-01-31 9:55:41.7920,-0.868,0.117,-0.8,-2.1,-0.72,-0.02,-0.11,-1.49,3.44
2022-01-31 9:55:41.8060,-0.965,0.064,-0.751,-2.1,-0.72,-0.02,-0.29,-1.19,3.21
2022-01-31 9:55:41.8110,-1.023,0.011,-0.727,-2.1,-0.72,-0.02,-0.48,-1.02,2.9
2022-01-31 9:55:41.8230,-1.052,-0.044,-0.712,-2.1,-0.72,-0.02,-0.66,-1.0,2.55
2022-01-31 9:55:41.8360,-1.046,-0.08,-0.715,-2.1,-0.72,-0.02,-0.77,-1.09,2.2
2022-01-31 9:55:41.8420,-1.056,-0.101,-0.712,-2.1,-0.72,-0.02,-0.92,-1.14,1.81
2022-01-31 9:55:41.8540,-1.082,-0.099,-0.677,-2.1,-0.72,-0.02,-1.14,-0.96,1.45
2022-01-31 9:55:41.8620,-1.109,-0.069,-0.633,-2.1,-0.72,-0.02,-1.39,-0.48,1.25
2022-01-31 9:55:41.8720,-1.104,-0.04,-0.688,-2.1,-0.72,-0.02,-1.61,0.12,1.16
2022-01-31 9:55:41.8870,-1.085,-0.052,-0.799,-2.1,-0.72,-0.02,-1.73,0.57,0.95
2022-01-31 9:55:41.8920,-1.132,-0.059,-0.907,-2.1,-0.72,-0.02,-1.66,0.81,0.64
2022-01-31 9:55:41.8990,-1.12,-0.046,-0.931,-2.1,-0.72,-0.02,-1.5,0.92,0.32
2022-01-31 9:55:41.8990,-1.022,-0.051,-0.889,-2.1,-0.72,-0.02,-1.31,0.96,0.15
2022-01-31 9:55:41.9250,-0.881,-0.058,-0.866,-2.1,-0.72,-0.02,-1.31,0.96,0.15
2022-01-31 9:55:41.9360,-0.789,-0.039,-0.875,-2.1,-0.72,-0.02,-0.88,0.66,0.05
2022-01-31 9:55:41.9450,-0.724,-0.002,-0.876,-2.1,-0.72,-0.02,-0.58,0.32,0.0
2022-01-31 9:55:41.9520,-0.65,0.019,-0.897,-2.1,-0.72,-0.02,-0.13,-0.33,-0.03
2022-01-31 9:55:41.9640,-0.586,0.022,-0.959,-2.1,-0.72,-0.02,0.46,-1.01,0.0
2022-01-31 9:55:41.9770,-0.492,0.058,-0.812,-2.1,-0.72,-0.02,0.62,-1.08,0.07
Time,-0.484,0.08,-0.654,-2.1,-0.72,-0.02,0.86,-0.96,0.31
2022-01-31 9:55:41.9940,-0.478,0.136,-0.633,-2.1,-0.72,-0.02,1.07,-0.95,0.45
2022-01-31 9:55:42.0070,-0.458,0.133,-0.577,-1.03,-3.13,0.89,1.04,-0.97,0.46
2022-01-31 9:55:42.0130,-0.445,0.139,-0.43,-1.03,-3.13,0.89,0.87,-0.79,0.56
2022-01-31 9:55:42.0260,-0.422,0.115,-0.324,-1.03,-3.13,0.89,0.6,-0.54,0.78
2022-01-31 9:55:42.0330,-0.397,0.112,-0.306,-1.03,-3.13,0.89,0.31,-0.32,1.05
2022-01-31 9:55:42.0440,-0.376,0.169,-0.33,-1.03,-3.13,0.89,0.08,-0.13,1.32
Time,-0.397,0.234,-0.422,-1.03,-3.13,0.89,-0.06,-0.15,1.48
2022-01-31 9:55:42.0630,-0.541,0.289,-0.467,-1.03,-3.13,0.89,-0.16,-0.44,1.25
2022-01-31 9:55:42.0760,-0.755,0.265,-0.433,-1.03,-3.13,0.89,-0.21,-1.01,0.77
2022-01-31 9:55:42.0830,-0.893,0.196,-0.368,-1.03,-3.13,0.89,-0.22,-1.5,0.35
2022-01-31 9:55:42.0950,-0.893,0.128,-0.259,-1.03,-3.13,0.89,-0.25,-1.77,0.15
2022-01-31 9:55:42.1070,-0.868,0.111,-0.15,-1.03,-3.13,0.89,-0.42,-1.6,0.04
Time,-0.88,0.108,0.221,-1.03,-3.13,0.89,-1.02,-1.69,0.19
2022-01-31 9:55:42.1250,-0.906,0.226,-0.178,-1.03,-3.13,0.89,-1.2,-1.45,0.02
2022-01-31 9:55:42.1370,-0.879,0.394,-0.211,-1.03,-3.13,0.89,-1.32,-1.26,-0.11
2022-01-31 9:55:42.1440,-0.814,0.456,-0.234,-1.03,-3.13,0.89,-1.51,-1.18,-0.12
2022-01-31 9:55:42.1540,-0.753,0.592,-0.281,-1.03,-3.13,0.89,-1.7,-1.19,-0.06
2022-01-31 9:55:42.1650,-0.437,0.528,-0.442,-1.03,-3.13,0.89,-1.88,-1.49,0.55
2022-01-31 9:55:42.1750,-0.141,0.625,-0.4,-1.03,-3.13,0.89,-2.2,-1.22,0.92
2022-01-31 9:55:42.1890,-0.725,0.956,-0.384,-1.03,-3.13,0.89,-2.11,-0.78,0.69
2022-01-31 9:55:42.1940,-1.151,0.77,-0.704,-1.03,-3.13,0.89,-1.54,-0.52,0.26
2022-01-31 9:55:42.2060,-1.237,0.714,-0.793,-1.03,-3.13,0.89,-1.06,-0.54,-0.11
2022-01-31 9:55:42.2190,-1.065,0.666,-0.612,-1.03,-3.13,0.89,-0.78,-0.51,-0.22
2022-01-31 9:55:42.2250,-0.873,0.653,-0.35,-0.63,-4.31,1.57,-0.74,-0.61,-0.11
2022-01-31 9:55:42.2380,-0.82,0.634,-0.261,-0.63,-4.31,1.57,-0.79,-0.81,-0.02
2022-01-31 9:55:42.2450,-0.859,0.669,-0.276,-0.63,-4.31,1.57,-0.78,-1.08,0.0
2022-01-31 9:55:42.2570,-0.841,0.696,-0.399,-0.63,-4.31,1.57,-0.76,-1.24,0.07
2022-01-31 9:55:42.2700,-0.798,0.66,-0.454,-0.63,-4.31,1.57,-0.69,-1.25,0.26
2022-01-31 9:55:42.2750,-0.714,0.63,-0.445,-0.63,-4.31,1.57,-0.66,-1.19,0.53
2022-01-31 9:55:42.2890,-0.695,0.617,-0.37,-0.63,-4.31,1.57,-0.74,-1.15,0.71
2022-01-31 9:55:42.2980,-0.767,0.6,-0.341,-0.63,-4.31,1.57,-0.79,-1.03,0.78
Time,-0.871,0.577,-0.308,-0.63,-4.31,1.57,-0.82,-0.88,0.72
2022-01-31 9:55:42.3160,-0.949,0.567,-0.245,-0.63,-4.31,1.57,-0.86,-0.72,0.62
2022-01-31 9:55:42.3300,-0.98,0.537,-0.219,-0.63,-4.31,1.57,-0.92,-0.37,0.44
2022-01-31 9:55:42.3350,-1.015,0.522,-0.189,-0.63,-4.31,1.57,-1.0,0.1,0.19
2022-01-31 9:55:42.3480,-0.968,0.567,-0.108,-0.63,-4.31,1.57,-1.08,0.38,-0.03
2022-01-31 9:55:42.3600,-0.8,0.609,-0.097,-0.63,-4.31,1.57,-1.04,0.42,-0.06
2022-01-31 9:55:42.3660,-0.648,0.628,-0.148,-0.63,-4.31,1.57,-0.9,0.41,-0.06
2022-01-31 9:55:42.3790,-0.678,0.718,-0.151,-0.25,-3.75,2.41,-0.76,0.23,-0.08
2022-01-31 9:55:42.3860,-0.665,0.727,-0.2,-0.25,-3.75,2.41,-0.61,-0.08,-0.15
2022-01-31 9:55:42.4020,-0.651,0.68,-0.261,-0.25,-3.75,2.41,-0.44,-0.37,-0.24
2022-01-31 9:55:42.4100,-0.598,0.658,-0.261,-0.25,-3.75,2.41,-0.28,-0.55,-0.29
2022-01-31 9:55:42.4160,-0.575,0.649,-0.232,-0.25,-3.75,2.41,-0.21,-0.74,-0.34
2022-01-31 9:55:42.4290,-0.583,0.635,-0.177,-0.25,-3.75,2.41,-0.21,-0.91,-0.39
2022-01-31 9:55:42.4360,-0.623,0.63,-0.121,-0.25,-3.75,2.41,-0.24,-0.96,-0.5
2022-01-31 9:55:42.4480,-0.761,0.633,-0.102,-0.25,-3.75,2.41,-0.32,-0.81,-0.79
2022-01-31 9:55:42.4560,-0.898,0.602,-0.002,-0.25,-3.75,2.41,-0.57,-0.36,-1.02
2022-01-31 9:55:42.4680,-0.953,0.539,0.077,0.89,-4.26,2.84,-0.85,0.1,-1.44
2022-01-31 9:55:42.4810,-1.145,0.596,-0.014,0.89,-4.26,2.84,-1.02,0.29,-1.87
2022-01-31 9:55:42.4860,-1.022,0.553,-0.108,0.89,-4.26,2.84,-1.1,0.24,-2.09
2022-01-31 9:55:42.4990,-0.885,0.588,-0.2,0.89,-4.26,2.84,-0.98,0.14,-2.03
2022-01-31 9:55:42.5110,-0.738,0.621,-0.305,0.89,-4.26,2.84,-0.73,-0.01,-1.76
2022-01-31 9:55:42.5170,-0.639,0.594,-0.389,0.89,-4.26,2.84,-0.45,-0.23,-1.49
2022-01-31 9:55:42.5280,-0.615,0.552,-0.428,1.15,-5.47,1.38,-0.17,-0.36,-1.19
Time,-0.613,0.519,-0.439,1.15,-5.47,1.38,0.11,-0.31,-0.83
2022-01-31 9:55:42.5470,-0.628,0.508,-0.451,1.15,-5.47,1.38,0.39,-0.18,-0.51
2022-01-31 9:55:42.5600,-0.66,0.48,-0.451,1.15,-5.47,1.38,0.64,-0.02,-0.25
2022-01-31 9:55:42.5670,-0.685,0.453,-0.421,0.73,-4.66,-1.02,0.8,0.15,-0.04
2022-01-31 9:55:42.5790,-0.707,0.438,-0.364,0.73,-4.66,-1.02,0.89,0.34,0.14
2022-01-31 9:55:42.5910,-0.726,0.426,-0.313,0.73,-4.66,-1.02,0.87,0.46,0.28
2022-01-31 9:55:42.5970,-0.749,0.42,-0.273,0.73,-4.66,-1.02,0.76,0.45,0.39
2022-01-31 9:55:42.6080,-0.8,0.412,-0.238,0.43,-2.39,-2.46,0.61,0.41,0.42
Time,-0.857,0.409,-0.235,0.43,-2.39,-2.46,0.46,0.33,0.4
2022-01-31 9:55:42.6280,-0.915,0.398,-0.256,0.7,-0.03,-3.68,0.39,0.21,0.34
2022-01-31 9:55:42.6410,-0.921,0.387,-0.297,0.7,-0.03,-3.68,0.44,0.06,0.32
2022-01-31 9:55:42.6480,-0.893,0.359,-0.308,0.7,-0.03,-3.68,0.49,-0.14,0.31
2022-01-31 9:55:42.6590,-0.878,0.333,-0.292,1.13,1.1,-4.92,0.48,-0.3,0.28
2022-01-31 9:55:42.6730,-0.908,0.344,-0.264,1.94,0.07,-5.32,0.54,-0.3,0.3
2022-01-31 9:55:42.6780,-0.896,0.361,-0.26,1.94,0.07,-5.32,0.59,-0.29,0.37
Time,-0.888,0.356,-0.219,1.94,0.07,-5.32,0.52,-0.38,0.38
2022-01-31 9:55:42.6990,-0.92,0.369,-0.117,3.12,-1.39,-4.22,0.3,-0.35,0.38
2022-01-31 9:55:42.7130,-0.942,0.406,0.017,2.71,-1.43,-3.34,0.01,-0.18,0.43
2022-01-31 9:55:42.7180,-0.945,0.456,0.027,2.71,-1.43,-3.34,-0.2,0.1,0.44
2022-01-31 9:55:42.7300,-0.976,0.48,-0.022,1.32,-0.83,-2.55,-0.4,0.27,0.37
2022-01-31 9:55:42.7430,-0.98,0.518,-0.058,1.32,-0.83,-2.55,-0.58,0.3,0.25
2022-01-31 9:55:42.7490,-0.97,0.575,-0.088,-0.12,-1.0,0.0,-0.68,0.29,0.16
Time,-0.951,0.614,-0.122,-0.12,-1.0,0.0,-0.66,0.21,0.09
2022-01-31 9:55:42.7690,-0.923,0.624,-0.192,-1.14,-1.6,1.34,-0.54,0.01,-0.0
2022-01-31 9:55:42.7830,-0.909,0.625,-0.262,-1.14,-1.6,1.34,-0.34,-0.27,-0.1
2022-01-31 9:55:42.7890,-0.897,0.621,-0.241,-1.45,-2.06,0.58,-0.16,-0.54,-0.15
2022-01-31 9:55:42.8030,-0.881,0.571,-0.186,-1.45,-2.06,0.58,-0.01,-0.71,-0.13
2022-01-31 9:55:42.8090,-0.869,0.542,-0.146,-1.12,-2.47,0.74,0.11,-0.76,-0.16
2022-01-31 9:55:42.8210,-0.897,0.546,-0.105,-1.12,-2.47,0.74,0.14,-0.76,-0.19
2022-01-31 9:55:42.8330,-0.88,0.509,-0.043,-1.19,-2.39,2.02,0.06,-0.65,-0.2
2022-01-31 9:55:42.8390,-0.786,0.487,-0.002,-0.23,-1.68,1.03,0.01,-0.38,-0.08
2022-01-31 9:55:42.8520,-0.565,0.487,-0.09,-0.23,-1.68,1.03,0.06,-0.11,0.27
2022-01-31 9:55:42.8590,-0.727,0.607,-0.082,-0.72,-1.12,1.51,0.06,0.14,0.14
2022-01-31 9:55:42.8720,-0.924,0.603,-0.098,-0.72,-1.12,1.51,0.05,0.33,0.01
2022-01-31 9:57:00.3300,-0.92,0.507,-0.09,3.25,3.83,0.88,-0.01,0.52,-0.11
2022-01-31 9:57:00.3360,-0.936,0.455,-0.086,-1.16,3.72,3.53,-0.06,0.57,-0.25
2022-01-31 9:57:00.3390,-0.9,0.407,-0.103,-2.34,2.51,0.46,-0.08,0.53,-0.34
2022-01-31 9:57:00.3420,-0.848,0.365,-0.092,-2.91,1.77,-1.39,-0.1,0.41,-0.35
2022-01-31 9:57:00.3450,-0.835,0.334,-0.074,-1.29,1.36,-1.05,-0.12,0.28,-0.4
2022-01-31 9:57:00.3560,-0.86,0.314,-0.081,0.81,-1.14,-0.19,-0.12,0.15,-0.47
2022-01-31 9:57:00.3400,-0.862,0.307,-0.105,-0.79,-0.73,1.51,-0.16,0.02,-0.5
2022-01-31 9:57:00.3440,-0.823,0.355,-0.108,-0.79,-0.73,1.51,-0.25,-0.1,-0.42
2022-01-31 9:57:00.3360,-0.733,0.386,-0.131,-0.79,-0.73,1.51,-0.35,-0.25,-0.32
2022-01-31 9:57:00.3470,-0.815,0.38,-0.164,-0.79,-0.73,1.51,-0.39,-0.32,-0.33
2022-01-31 9:57:00.3640,-0.928,0.382,-0.212,-0.81,-0.53,0.96,-0.4,-0.36,-0.33
2022-01-31 9:57:00.3570,-1.027,0.363,-0.242,1.77,0.19,-1.16,-0.41,-0.33,-0.42
2022-01-31 9:57:00.3620,-1.107,0.359,-0.243,-2.05,-0.54,0.41,-0.39,-0.24,-0.53
2022-01-31 9:57:00.3620,-1.11,0.392,-0.244,-2.05,-0.54,0.41,-0.37,-0.17,-0.6
2022-01-31 9:57:00.3650,-1.078,0.415,-0.236,-2.05,-0.54,0.41,-0.39,-0.15,-0.65
2022-01-31 9:57:00.3650,-1.083,0.411,-0.211,-2.05,-0.54,0.41,-0.39,-0.15,-0.65
Time,-1.119,0.445,-0.221,-2.05,-0.54,0.41,-0.41,-0.17,-0.9
2022-01-31 9:57:00.3790,-1.118,0.47,-0.242,-2.0,-0.43,-0.08,-0.35,-0.18,-1.04
2022-01-31 9:57:00.3770,-1.063,0.488,-0.255,0.9,-0.16,-1.67,-0.26,-0.17,-1.11
2022-01-31 9:57:00.3770,-1.021,0.45,-0.253,0.9,-0.16,-1.67,-0.16,-0.14,-1.16
2022-01-31 9:57:00.3790,-1.009,0.423,-0.238,1.64,0.13,-2.19,-0.04,-0.16,-1.22
2022-01-31 9:57:00.3800,-0.967,0.425,-0.222,1.64,0.13,-2.19,0.08,-0.28,-1.26
2022-01-31 9:57:00.3790,-0.916,0.405,-0.217,3.12,-0.47,-1.16,0.2,-0.43,-1.24
Time,-0.866,0.386,-0.23,3.12,-0.47,-1.16,0.35,-0.56,-1.2
2022-01-31 9:57:00.3870,-0.822,0.361,-0.236,3.12,-0.47,-1.16,0.51,-0.63,-1.13
2022-01-31 9:57:00.3890,-0.776,0.344,-0.203,3.12,-0.47,-1.16,0.64,-0.66,-1.02
2022-01-31 9:57:00.3860,-0.72,0.339,-0.163,3.12,-0.47,-1.16,0.72,-0.69,-0.85
2022-01-31 9:57:00.3900,-0.645,0.311,-0.139,3.12,-0.47,-1.16,0.75,-0.7,-0.64
2022-01-31 9:57:00.3900,-0.612,0.281,-0.138,1.64,-0.21,-0.24,0.76,-0.64,-0.41
2022-01-31 9:57:00.3930,-0.634,0.254,-0.107,1.64,-0.21,-0.24,0.69,-0.6,-0.22
2022-01-31 9:57:00.3930,-0.71,0.247,0.03,1.64,-0.21,-0.24,0.43,-0.65,-0.1
Time,-0.781,0.244,0.209,1.64,-0.21,-0.24,0.07,-0.75,-0.06
2022-01-31 9:57:00.3970,-0.881,0.291,0.246,1.64,-0.21,-0.24,-0.12,-0.81,-0.12
2022-01-31 9:57:00.3960,-0.97,0.31,0.123,1.64,-0.21,-0.24,-0.14,-0.91,-0.19
2022-01-31 9:57:00.3970,-1.002,0.321,0.023,1.64,-0.21,-0.24,-0.1,-1.07,-0.25
2022-01-31 9:57:00.3990,-1.027,0.357,-0.012,1.64,-0.21,-0.24,-0.06,-1.27,-0.32
2022-01-31 9:57:00.3990,-1.057,0.362,-0.062,1.64,-0.21,-0.24,0.04,-1.52,-0.45
2022-01-31 9:57:00.3990,-1.107,0.376,-0.152,1.64,-0.21,-0.24,0.22,-1.86,-0.62
2022-01-31 9:57:00.4000,-1.113,0.381,-0.222,1.64,-0.21,-0.24,0.47,-2.15,-0.73
2022-01-31 9:57:00.4010,-1.039,0.363,-0.194,1.64,-0.21,-0.24,0.67,-2.25,-0.71
2022-01-31 9:57:00.4020,-0.985,0.324,-0.078,1.64,-0.21,-0.24,0.73,-2.05,-0.6
2022-01-31 9:57:00.4040,-0.967,0.287,0.1,1.64,-0.21,-0.24,0.52,-1.59,-0.43
2022-01-31 9:57:00.4050,-0.98,0.319,0.273,1.64,-0.21,-0.24,0.2,-0.94,-0.21
2022-01-31 9:57:00.4050,-0.93,0.368,0.306,1.64,-0.21,-0.24,-0.17,-0.33,0.1
2022-01-31 9:57:00.4060,-0.905,0.331,0.283,1.64,-0.21,-0.24,-0.53,0.08,0.31
2022-01-31 9:57:00.4080,-0.956,0.358,0.208,1.64,-0.21,-0.24,-0.76,0.4,0.42
2022-01-31 9:57:00.4080,-0.941,0.355,0.158,1.64,-0.21,-0.24,-0.86,0.63,0.55
2022-01-31 9:57:00.4100,-0.793,0.311,0.095,0.2,-0.79,0.73,-0.85,0.76,0.87
2022-01-31 9:57:00.4110,-0.65,0.267,0.03,0.2,-0.79,0.73,-0.76,0.95,1.3
2022-01-31 9:57:00.4100,-0.675,0.282,-0.043,0.2,-0.79,0.73,-0.68,1.17,1.66
2022-01-31 9:57:00.4110,-0.698,0.327,-0.069,0.2,-0.79,0.73,-0.61,1.4,1.9
2022-01-31 9:57:00.4140,-0.75,0.363,-0.063,0.2,-0.79,0.73,-0.55,1.62,2.05
2022-01-31 9:57:00.4150,-0.739,0.414,-0.034,0.2,-0.79,0.73,-0.48,1.77,2.3
2022-01-31 9:57:00.4150,-0.627,0.474,0.003,0.2,-0.79,0.73,-0.48,1.77,2.3
2022-01-31 9:57:00.4150,-0.552,0.501,-0.017,0.2,-0.79,0.73,-0.4,1.23,3.08
2022-01-31 9:57:00.4170,-0.495,0.53,0.032,0.2,-0.79,0.73,-0.39,0.65,3.42
Time,-0.566,0.538,0.077,0.2,-0.79,0.73,-0.36,-0.05,3.48
2022-01-31 9:57:00.4170,-1.023,0.62,-0.059,0.2,-0.79,0.73,-0.2,-0.71,2.75
2022-01-31 9:57:00.4200,-1.598,0.601,-0.22,0.2,-0.79,0.73,0.12,-0.9,2.1
2022-01-31 9:57:00.4210,-1.35,0.274,-0.178,0.2,-0.79,0.73,0.13,-0.89,1.9
2022-01-31 9:57:00.4200,-1.246,0.444,-0.013,0.2,-0.79,0.73,0.11,-0.44,1.93
2022-01-31 9:57:00.4230,-1.053,0.543,0.011,0.2,-0.79,0.73,-0.03,-0.1,2.16
2022-01-31 9:57:00.4230,-0.94,0.541,0.01,0.2,-0.79,0.73,-0.24,0.1,2.37
2022-01-31 9:57:00.4240,-0.886,0.599,-0.018,0.2,-0.79,0.73,-0.33,0.51,2.57
2022-01-31 9:57:00.4250,-0.89,0.605,-0.054,0.2,-0.79,0.73,-0.47,0.54,2.56
2022-01-31 9:57:00.4260,-0.975,0.657,-0.067,0.2,-0.79,0.73,-0.53,1.0,2.66
2022-01-31 9:57:00.4270,-0.868,0.716,0.037,0.2,-0.79,0.73,-0.55,1.47,2.86
2022-01-31 9:57:00.4270,-0.954,0.764,-0.004,0.2,-0.79,0.73,-0.5,1.6,2.84
2022-01-31 9:57:00.4270,-0.79,0.797,0.038,0.2,-0.79,0.73,-0.54,1.72,2.77
2022-01-31 9:57:00.4290,-0.63,0.843,0.06,0.2,-0.79,0.73,-0.56,1.74,2.64
2022-01-31 9:57:00.4300,-0.531,0.828,0.009,0.2,-0.79,0.73,-0.62,1.49,2.44
2022-01-31 9:57:00.4320,-0.49,0.769,0.028,0.2,-0.79,0.73,-0.73,1.38,2.21
2022-01-31 9:57:00.4320,-0.444,0.75,0.083,0.2,-0.79,0.73,-0.84,1.48,2.02
2022-01-31 9:57:00.4320,-0.396,0.77,0.106,0.2,-0.79,0.73,-0.87,1.89,2.02
Time,-0.303,0.771,0.112,-1.32,-1.17,1.78,-0.9,2.28,2.19
2022-01-31 9:57:00.4350,-0.162,0.717,0.129,-1.32,-1.17,1.78,-0.92,2.72,2.48
2022-01-31 9:57:00.4350,-0.045,0.626,0.335,-1.32,-1.17,1.78,-1.27,3.35,2.82
2022-01-31 9:57:00.4370,-0.183,0.713,0.379,-1.32,-1.17,1.78,-1.39,3.41,2.59
2022-01-31 9:57:00.4380,-0.503,0.989,0.001,-1.32,-1.17,1.78,-1.05,3.28,2.11
2022-01-31 9:57:00.4380,-0.417,0.729,-0.155,-1.32,-1.17,1.78,-0.62,3.02,1.86
2022-01-31 9:57:00.4400,-0.337,0.568,-0.164,-1.32,-1.17,1.78,-0.39,2.95,1.63
2022-01-31 9:57:00.4420,-0.466,0.615,-0.093,-1.32,-1.17,1.78,-0.32,3.04,1.49
2022-01-31 9:57:00.4430,-0.482,0.623,-0.092,-1.32,-1.17,1.78,-0.41,3.02,1.44
2022-01-31 9:57:00.4410,-0.462,0.639,-0.109,-1.32,-1.17,1.78,-0.58,2.98,1.34
2022-01-31 9:57:00.4440,-0.472,0.699,-0.146,-1.32,-1.17,1.78,-0.72,2.95,1.27
2022-01-31 9:57:00.4440,-0.421,0.766,-0.163,-1.32,-1.17,1.78,-0.89,2.9,1.34
2022-01-31 9:57:00.4460,-0.385,0.861,-0.211,-1.32,-1.17,1.78,-1.02,2.6,1.5
2022-01-31 9:57:00.4480,-0.407,0.948,-0.281,-1.32,-1.17,1.78,-1.05,2.1,1.65
Time,-0.485,0.989,-0.309,-1.32,-1.17,1.78,-1.06,1.55,1.7
2022-01-31 9:57:00.4480,-0.559,1.035,-0.304,-1.32,-1.17,1.78,-1.2,0.91,1.54
2022-01-31 9:57:00.4490,-0.565,1.213,-0.356,-1.32,-1.17,1.78,-1.53,-0.28,1.39
2022-01-31 9:57:00.4500,-0.495,1.286,-0.471,-1.32,-1.17,1.78,-1.9,-1.52,1.36
2022-01-31 9:57:00.4510,-0.431,1.108,-0.34,-1.32,-1.17,1.78,-2.15,-2.15,1.3
2022-01-31 9:57:00.4520,-0.535,0.939,-0.147,-1.32,-1.17,1.78,-2.31,-2.27,1.3
2022-01-31 9:57:00.4530,-0.393,0.811,0.026,-1.32,-1.17,1.78,-2.39,-2.37,1.62
2022-01-31 9:57:00.4550,-0.235,0.856,0.06,-1.32,-1.17,1.78,-2.25,-2.19,1.71
2022-01-31 9:57:00.4550,-0.286,1.247,0.223,-1.32,-1.17,1.78,-1.98,-1.14,1.27
2022-01-31 9:57:00.4560,-0.278,1.482,0.584,-1.32,-1.17,1.78,-1.58,0.25,0.5
2022-01-31 9:57:00.4570,-0.21,1.478,0.584,-1.32,-1.17,1.78,-1.08,1.18,-0.21
2022-01-31 9:57:00.4580,-0.144,1.318,0.288,-1.32,-1.17,1.78,-0.47,1.35,-0.72
Time,-0.088,1.206,-0.073,-1.32,-1.17,1.78,0.17,0.97,-1.09
2022-01-31 9:57:00.4610,-0.078,1.176,-0.315,-1.32,-1.17,1.78,0.74,0.36,-1.39
2022-01-31 9:57:00.4610,-0.105,1.122,-0.428,-1.32,-1.17,1.78,1.15,-0.25,-1.63
2022-01-31 9:57:00.4610,-0.103,1.057,-0.449,-1.32,-1.17,1.78,1.39,-0.87,-1.66
2022-01-31 9:57:00.4620,-0.065,0.957,-0.444,-1.32,-1.17,1.78,1.41,-1.45,-1.4
2022-01-31 9:57:00.4620,-0.045,0.813,-0.267,-1.32,-1.17,1.78,1.41,-1.45,-1.4
Time,-0.042,0.561,-0.034,-1.32,-1.17,1.78,0.73,-2.04,0.04
2022-01-31 9:57:00.4650,-0.065,0.383,0.199,-1.32,-1.17,1.78,0.29,-1.88,0.94
2022-01-31 9:57:00.4650,-0.156,0.524,0.259,-1.32,-1.17,1.78,0.29,-1.88,0.94
2022-01-31 9:57:00.4680,-0.219,0.692,0.277,-1.32,-1.17,1.78,-0.33,-1.35,1.89
2022-01-31 9:57:00.4680,-0.266,0.856,0.276,-1.32,-1.17,1.78,-0.33,-1.35,1.89
2022-01-31 9:57:00.4680,-0.222,0.954,0.283,-1.32,-1.17,1.78,-0.52,-1.07,2.04
Time,-0.16,0.988,0.286,-1.32,-1.17,1.78,-0.79,-0.47,2.15
2022-01-31 9:57:00.4710,-0.2,1.222,0.286,-1.32,-1.17,1.78,-0.48,0.23,1.34
2022-01-31 9:57:00.4730,-0.241,1.51,0.342,-1.32,-1.17,1.78,-0.15,0.56,0.75
2022-01-31 9:57:00.4750,-0.075,1.229,0.208,-1.32,-1.17,1.78,0.06,0.74,0.49
2022-01-31 9:57:00.4740,-0.048,1.187,0.104,-1.32,-1.17,1.78,0.16,0.86,0.33
2022-01-31 9:57:00.4760,-0.036,1.129,0.022,-1.32,-1.17,1.78,0.13,0.54,0.29
2022-01-31 9:57:00.4770,-0.044,0.986,-0.012,-1.32,-1.17,1.78,0.06,0.24,0.24
2022-01-31 9:57:00.4780,-0.091,1.001,0.001,-1.32,-1.17,1.78,0.12,0.17,0.1
2022-01-31 9:57:00.4790,-0.087,0.995,0.006,-1.32,-1.17,1.78,0.21,0.05,0.07
2022-01-31 9:57:00.4810,-0.069,0.955,-0.01,-1.32,-1.17,1.78,0.18,-0.18,0.13
2022-01-31 9:57:00.4800,-0.064,0.889,-0.002,-1.32,-1.17,1.78,0.05,-0.38,0.37
2022-01-31 9:57:00.4830,-0.053,0.809,0.02,-2.25,-0.98,2.61,-0.09,-0.49,0.66
2022-01-31 9:57:00.4840,-0.035,0.772,0.02,-2.25,-0.98,2.61,-0.14,-0.61,0.89
2022-01-31 9:57:00.4860,-0.004,0.752,-0.004,-2.25,-0.98,2.61,-0.11,-0.76,1.14
2022-01-31 9:57:00.4860,0.033,0.753,-0.019,-2.25,-0.98,2.61,-0.11,-0.76,1.14
2022-01-31 9:57:00.4860,0.053,0.789,-0.029,-2.25,-0.98,2.61,0.17,-1.15,1.43
2022-01-31 9:57:00.4860,0.06,0.844,-0.025,-2.25,-0.98,2.61,0.41,-1.28,1.36
2022-01-31 9:57:00.4900,0.07,0.893,0.01,-2.25,-0.98,2.61,0.59,-1.33,1.23
2022-01-31 9:57:00.4910,0.054,0.938,0.067,-2.25,-0.98,2.61,0.6,-1.3,1.12
2022-01-31 9:57:00.4910,0.009,0.989,0.111,-2.25,-0.98,2.61,0.43,-1.2,1.06
2022-01-31 9:57:00.4910,-0.036,1.085,0.14,-2.25,-0.98,2.61,-0.03,-0.77,0.96
Time,-0.076,1.214,0.163,-2.25,-0.98,2.61,-0.03,-0.77,0.96
2022-01-31 9:57:00.4920,-0.125,1.248,0.16,-2.25,-0.98,2.61,-0.01,-0.47,0.84
2022-01-31 9:57:00.4970,-0.121,1.128,0.14,-2.25,-0.98,2.61,-0.07,-0.28,0.8
2022-01-31 9:57:00.4980,-0.054,0.922,0.152,-2.25,-0.98,2.61,-0.31,-0.23,0.86
2022-01-31 9:57:00.4960,0.0,0.737,0.174,-2.25,-0.98,2.61,-0.55,-0.28,0.8
2022-01-31 9:57:00.4970,0.011,0.677,0.174,-2.25,-0.98,2.61,-0.67,-0.35,0.57
2022-01-31 9:57:00.4970,0.006,0.657,0.17,-2.25,-0.98,2.61,-0.78,-0.41,0.29
2022-01-31 9:57:00.4970,-0.003,0.668,0.165,-2.25,-0.98,2.61,-0.81,-0.4,0.03
2022-01-31 9:57:00.5030,-0.014,0.727,0.14,-2.25,-0.98,2.61,-0.79,-0.33,-0.18
2022-01-31 9:57:00.5030,-0.03,0.823,0.132,-2.25,-0.98,2.61,-0.64,-0.24,-0.32
2022-01-31 9:57:00.5040,-0.024,0.889,0.055,-2.25,-0.98,2.61,0.01,-0.02,-0.23
2022-01-31 9:57:00.5040,-0.001,0.867,0.027,-2.25,-0.98,2.61,0.01,-0.02,-0.23
2022-01-31 9:57:00.5030,0.021,0.904,0.011,-2.25,-0.98,2.61,0.37,0.3,-0.04
2022-01-31 9:57:00.5030,0.08,0.928,0.007,-2.25,-0.98,2.61,0.7,0.78,0.31
2022-01-31 9:57:00.5080,0.123,0.945,0.054,-2.25,-0.98,2.61,0.86,1.43,0.6
2022-01-31 9:57:00.5090,0.08,0.986,0.108,-2.25,-0.98,2.61,0.88,1.86,0.77
2022-01-31 9:57:00.5110,0.092,1.199,0.106,-2.25,-0.98,2.61,0.8,1.88,0.98
2022-01-31 9:57:00.5090,0.072,1.423,0.033,-2.25,-0.98,2.61,0.57,1.47,0.83
2022-01-31 9:57:00.5090,-0.069,1.67,0.066,-2.25,-0.98,2.61,0.57,1.47,0.83
2022-01-31 9:57:00.5110,-0.114,1.78,0.035,-2.25,-0.98,2.61,-0.99,0.05,0.09
2022-01-31 9:57:00.5140,-0.002,1.398,-0.07,-2.25,-0.98,2.61,-2.3,-1.81,0.31
2022-01-31 9:57:00.5150,0.097,1.011,-0.241,-2.25,-0.98,2.61,-3.23,-4.31,0.42
2022-01-31 9:57:00.5170,0.085,1.003,-0.336,-2.25,-0.98,2.61,-3.3,-6.18,0.37
Time,0.094,0.947,-0.201,-2.25,-0.98,2.61,-2.93,-6.75,0.55
2022-01-31 9:57:00.5180,0.167,0.848,0.124,-2.25,-0.98,2.61,-1.9,-5.12,0.93
2022-01-31 9:57:00.5170,0.25,0.695,0.489,-2.25,-0.98,2.61,-0.84,-2.21,1.24
2022-01-31 9:57:00.5200,0.317,0.648,0.505,-2.25,-0.98,2.61,-0.17,-0.42,1.36
2022-01-31 9:57:00.5220,0.276,0.804,0.292,-2.25,-0.98,2.61,0.21,-0.22,1.4
2022-01-31 9:57:00.5230,0.215,1.019,0.068,-2.25,-0.98,2.61,0.53,-0.74,1.31
2022-01-31 9:57:00.5240,0.215,1.238,-0.057,-2.25,-0.98,2.61,0.83,-1.15,1.22
2022-01-31 9:57:00.5230,0.211,1.409,-0.072,-2.25,-0.98,2.61,1.06,-1.21,1.16
2022-01-31 9:57:00.5230,0.186,1.449,-0.024,-2.25,-0.98,2.61,1.06,-1.21,1.16
2022-01-31 9:57:00.5260,0.19,1.358,0.011,-2.25,-0.98,2.61,1.42,-0.9,1.02
2022-01-31 9:57:00.5290,0.23,1.208,0.047,-2.25,-0.98,2.61,1.57,-0.64,0.9
2022-01-31 9:57:00.5290,0.271,1.131,0.113,-2.25,-0.98,2.61,1.66,-0.34,0.78
2022-01-31 9:57:00.5300,0.309,1.108,0.171,-2.25,-0.98,2.61,1.6,-0.05,0.7
2022-01-31 9:57:00.5280,0.344,1.079,0.258,-2.25,-0.98,2.61,1.37,0.18,0.6
2022-01-31 9:57:00.5290,0.367,1.004,0.316,-2.25,-0.98,2.61,1.02,0.25,0.52
2022-01-31 9:57:00.5350,0.368,0.943,0.331,-2.25,-0.98,2.61,0.65,0.3,0.39
2022-01-31 9:57:00.5340,0.344,0.937,0.313,-2.25,-0.98,2.61,0.3,0.3,0.15
Time,0.318,0.946,0.262,-2.25,-0.98,2.61,0.01,0.27,-0.12
2022-01-31 9:57:00.5350,0.317,0.981,0.192,-2.25,-0.98,2.61,-0.1,0.32,-0.25
Time,0.321,1.017,0.126,-2.25,-0.98,2.61,-0.07,0.47,-0.23
2022-01-31 9:57:00.5360,0.302,1.002,0.07,-2.25,-0.98,2.61,0.13,0.71,-0.15
2022-01-31 9:57:00.5400,0.268,0.969,0.023,-2.25,-0.98,2.61,0.44,1.04,-0.11
2022-01-31 9:57:00.5400,0.24,0.914,0.012,-2.25,-0.98,2.61,0.72,1.39,-0.1
2022-01-31 9:57:00.5410,0.263,0.809,0.011,-2.25,-0.98,2.61,0.79,1.5,-0.1
2022-01-31 9:57:00.5420,0.245,0.865,-0.063,-2.25,-0.98,2.61,0.65,1.03,-0.18
2022-01-31 9:57:00.5410,0.207,0.951,-0.1,-2.25,-0.98,2.61,0.23,0.32,0.04
2022-01-31 9:57:00.5420,0.175,0.912,-0.069,-2.25,-0.98,2.61,-0.16,-0.45,0.13
2022-01-31 9:57:00.5470,0.152,0.886,-0.096,-2.25,-0.98,2.61,-0.35,-1.04,0.17
2022-01-31 9:57:00.5470,0.16,0.91,-0.06,-2.25,-0.98,2.61,-0.41,-1.25,0.15
2022-01-31 9:57:00.5470,0.158,0.952,-0.03,-2.25,-0.98,2.61,-0.41,-1.25,0.15
2022-01-31 9:57:00.5480,0.15,0.969,-0.019,-2.25,-0.98,2.61,-0.4,-1.31,-0.05
2022-01-31 9:57:00.5470,0.171,0.938,0.002,-2.25,-0.98,2.61,-0.49,-1.35,-0.11
2022-01-31 9:57:00.5500,0.215,0.939,-0.012,-2.25,-0.98,2.61,-0.58,-1.42,-0.16
2022-01-31 9:57:00.5520,0.238,0.958,0.012,-2.25,-0.98,2.61,-0.5,-1.27,-0.17
2022-01-31 9:57:00.5530,0.26,0.946,0.027,-2.25,-0.98,2.61,-0.55,-1.27,-0.15
2022-01-31 9:57:00.5530,0.278,0.954,0.055,-2.25,-0.98,2.61,-0.52,-1.21,-0.05
2022-01-31 9:57:00.5540,0.28,0.934,0.072,-2.25,-0.98,2.61,-0.43,-1.1,0.06
2022-01-31 9:57:00.5540,0.276,0.982,0.095,-2.25,-0.98,2.61,-0.36,-0.85,0.09
2022-01-31 9:57:00.5610,0.283,1.037,0.112,-2.25,-0.98,2.61,-0.3,-0.57,0.04
2022-01-31 9:57:00.5590,0.304,1.04,0.098,-2.25,-0.98,2.61,-0.28,-0.4,-0.01
2022-01-31 9:57:00.5600,0.341,1.002,0.075,-2.25,-0.98,2.61,-0.26,-0.33,-0.02
2022-01-31 9:57:00.5600,0.36,0.969,0.054,-2.25,-0.98,2.61,-0.23,-0.3,0.02
2022-01-31 9:57:00.5620,0.36,0.933,0.039,-2.25,-0.98,2.61,-0.2,-0.28,0.08
2022-01-31 9:57:00.5590,0.342,0.909,0.028,-2.25,-0.98,2.61,-0.18,-0.34,0.16
Time,0.305,0.926,0.023,-2.25,-0.98,2.61,-0.18,-0.41,0.19
2022-01-31 9:57:00.5660,0.251,0.95,0.045,-2.25,-0.98,2.61,-0.19,-0.39,0.15
2022-01-31 9:57:00.5680,0.209,0.951,0.076,-2.25,-0.98,2.61,-0.23,-0.23,0.05
2022-01-31 9:57:00.5680,0.201,0.951,0.084,-2.25,-0.98,2.61,-0.23,-0.08,-0.05
2022-01-31 9:57:00.5680,0.235,0.94,0.045,-2.25,-0.98,2.61,-0.21,-0.08,-0.09
2022-01-31 9:57:00.5690,0.267,0.908,0.012,-2.25,-0.98,2.61,-0.26,-0.12,-0.06
2022-01-31 9:57:00.5720,0.267,0.916,0.022,-2.25,-0.98,2.61,-0.33,-0.27,-0.03
2022-01-31 9:57:00.5730,0.274,0.964,-0.0,-2.25,-0.98,2.61,-0.38,-0.51,-0.06
2022-01-31 9:57:00.5730,0.29,0.987,0.005,-2.25,-0.98,2.61,-0.4,-0.72,-0.08
2022-01-31 9:57:00.5740,0.318,0.972,0.024,-2.25,-0.98,2.61,-0.43,-0.77,-0.05
2022-01-31 9:57:00.5740,0.343,0.925,0.07,-2.25,-0.98,2.61,-0.55,-0.58,0.19
Time,0.228,0.605,0.25,-2.25,-0.98,2.61,-0.84,0.17,0.16
2022-01-31 9:57:00.5770,0.326,0.76,0.134,-2.25,-0.98,2.61,-0.74,0.14,0.2
2022-01-31 9:57:00.5780,0.37,1.036,0.102,-2.25,-0.98,2.61,-0.76,0.13,0.32
Time,0.276,1.042,0.129,-2.25,-0.98,2.61,-0.77,0.0,0.29
2022-01-31 9:57:00.5800,0.2,1.079,0.127,-2.25,-0.98,2.61,-0.73,-0.07,0.18
2022-01-31 9:57:00.5840,0.188,1.106,0.14,-2.25,-0.98,2.61,-0.63,-0.01,0.04
2022-01-31 9:57:00.5840,0.222,1.04,0.117,-2.25,-0.98,2.61,-0.47,0.03,-0.05
2022-01-31 9:57:00.5840,0.263,0.951,0.081,-2.25,-0.98,2.61,-0.47,0.03,-0.05
2022-01-31 9:57:00.5850,0.27,0.92,0.089,-2.25,-0.98,2.61,-0.28,0.07,-0.18
2022-01-31 9:57:00.5860,0.287,0.913,0.108,-2.25,-0.98,2.61,-0.24,0.03,-0.19
2022-01-31 9:57:00.5860,0.327,0.937,0.112,-2.25,-0.98,2.61,-0.24,0.03,-0.19
2022-01-31 9:57:00.5880,0.358,0.98,0.118,-2.25,-0.98,2.61,-0.09,-0.12,-0.12
2022-01-31 9:57:00.5880,0.36,0.999,0.133,-2.25,-0.98,2.61,0.05,-0.05,-0.12
2022-01-31 9:57:00.5900,0.338,0.991,0.177,-2.5,-0.65,2.98,0.21,0.26,-0.14
2022-01-31 9:57:00.5900,0.3,0.954,0.21,-2.5,-0.65,2.98,0.32,0.56,-0.16
2022-01-31 9:57:00.5720,0.293,0.925,0.179,-2.5,-0.65,2.98,0.29,0.47,-0.15
2022-01-31 9:57:00.5930,0.326,0.95,0.127,-2.5,-0.65,2.98,0.19,0.12,-0.16
2022-01-31 9:57:00.5930,0.352,0.959,0.111,-2.5,-0.65,2.98,0.1,-0.09,-0.21
2022-01-31 9:57:00.5950,0.35,0.921,0.122,-2.5,-0.65,2.98,0.04,-0.16,-0.21
2022-01-31 9:57:00.5940,0.358,0.947,0.117,-2.5,-0.65,2.98,-0.04,-0.24,-0.19
2022-01-31 9:57:00.5940,0.323,1.001,0.124,-2.5,-0.65,2.98,-0.04,-0.24,-0.19
2022-01-31 9:57:00.6000,0.26,0.986,0.141,-2.5,-0.65,2.98,0.0,-0.07,-0.16
2022-01-31 9:57:00.5990,0.253,0.977,0.114,-2.5,-0.65,2.98,0.19,-0.11,-0.14
2022-01-31 9:57:00.5990,0.251,0.966,0.129,-2.5,-0.65,2.98,0.33,0.21,-0.08
2022-01-31 9:57:00.5990,0.211,0.89,0.194,-2.5,-0.65,2.98,0.6,0.58,0.04
2022-01-31 9:57:00.6020,0.199,0.92,0.185,-2.5,-0.65,2.98,0.72,0.88,-0.02
2022-01-31 9:57:00.6030,0.232,0.893,0.23,-2.5,-0.65,2.98,0.91,1.36,0.01
2022-01-31 9:57:00.6040,0.312,0.823,0.248,-2.5,-0.65,2.98,1.15,1.93,0.12
2022-01-31 9:57:00.6050,0.33,0.914,0.144,-2.5,-0.65,2.98,0.92,1.48,0.1
2022-01-31 9:57:00.6050,0.319,0.975,0.049,-2.5,-0.65,2.98,0.38,0.71,0.06
2022-01-31 9:57:00.6070,0.303,0.947,-0.045,-2.5,-0.65,2.98,-0.36,-0.66,0.12
2022-01-31 9:57:00.6090,0.28,0.912,-0.02,-2.5,-0.65,2.98,-0.93,-1.57,0.15
2022-01-31 9:57:00.6090,0.256,0.992,0.133,-2.5,-0.65,2.98,-0.97,-1.41,0.16
2022-01-31 9:57:00.6110,0.247,1.042,0.279,-2.5,-0.65,2.98,-0.6,-0.65,0.19
2022-01-31 9:57:00.6110,0.288,1.072,0.277,-2.5,-0.65,2.98,-0.27,-0.02,0.16
2022-01-31 9:57:00.6130,0.255,0.971,0.241,-2.5,-0.65,2.98,-0.1,0.35,0.24
2022-01-31 9:57:00.6140,0.274,0.763,0.186,-2.5,-0.65,2.98,-0.01,0.48,0.42
2022-01-31 9:57:00.6180,0.31,0.737,0.138,-2.5,-0.65,2.98,0.1,0.48,0.55
2022-01-31 9:57:00.5970,0.363,0.794,0.088,-2.5,-0.65,2.98,0.18,0.34,0.77
2022-01-31 9:57:00.6170,0.349,0.861,0.045,-2.5,-0.65,2.98,0.21,0.09,0.92
Time,0.296,0.933,0.046,-2.5,-0.65,2.98,0.22,-0.14,0.95
2022-01-31 9:57:00.6180,0.246,0.99,0.074,-2.5,-0.65,2.98,0.36,-0.19,0.97
2022-01-31 9:57:00.6200,0.236,0.971,0.104,-2.5,-0.65,2.98,0.46,-0.04,1.05
2022-01-31 9:57:00.6200,0.207,1.011,0.129,-2.5,-0.65,2.98,0.37,-0.1,0.92
2022-01-31 9:57:00.6230,0.177,1.085,0.123,-2.5,-0.65,2.98,0.19,-0.28,0.69
2022-01-31 9:57:00.6220,0.199,1.075,0.165,-2.5,-0.65,2.98,0.02,-0.35,0.5
2022-01-31 9:57:00.6230,0.253,1.034,0.203,-2.5,-0.65,2.98,-0.07,-0.26,0.36
2022-01-31 9:57:00.6260,0.3,0.985,0.184,-2.5,-0.65,2.98,-0.09,-0.23,0.34
2022-01-31 9:57:00.6250,0.309,0.979,0.148,-2.5,-0.65,2.98,-0.11,-0.27,0.33
2022-01-31 9:57:00.6280,0.314,1.018,0.132,-2.5,-0.65,2.98,-0.3,-0.52,0.27
2022-01-31 9:57:00.6290,0.324,1.02,0.124,-2.5,-0.65,2.98,-0.48,-0.91,0.23
2022-01-31 9:57:00.6280,0.34,0.95,0.126,-2.5,-0.65,2.98,-0.79,-1.45,0.2
2022-01-31 9:57:00.6310,0.32,0.98,0.15,-2.5,-0.65,2.98,-0.86,-1.62,0.16
2022-01-31 9:57:00.6330,0.395,1.009,0.198,-2.5,-0.65,2.98,-0.7,-1.27,0.22
2022-01-31 9:57:00.6350,0.41,0.926,0.184,-2.5,-0.65,2.98,-0.54,-0.87,0.23
2022-01-31 9:57:00.6360,0.386,0.874,0.172,-2.5,-0.65,2.98,-0.4,-0.5,0.17
2022-01-31 9:57:00.6380,0.375,0.839,0.141,-2.5,-0.65,2.98,-0.27,-0.23,0.12
2022-01-31 9:57:00.6360,0.391,0.773,0.086,-2.5,-0.65,2.98,-0.16,-0.15,0.19
2022-01-31 9:57:00.6400,0.416,0.765,0.017,-2.5,-0.65,2.98,-0.01,-0.22,0.31
Time,0.39,0.83,-0.015,-2.5,-0.65,2.98,0.27,-0.48,0.3
Time,0.345,0.889,0.009,-2.5,-0.65,2.98,0.27,-0.48,0.3
2022-01-31 9:57:00.6430,0.31,0.943,0.063,-2.5,-0.65,2.98,0.41,-0.37,0.21
2022-01-31 9:57:00.6430,0.299,0.977,0.111,-2.5,-0.65,2.98,0.46,-0.15,0.12
2022-01-31 9:57:00.6430,0.311,0.966,0.134,-2.5,-0.65,2.98,0.46,-0.15,0.12
Time,0.324,0.905,0.148,-2.5,-0.65,2.98,0.2,-0.06,0.32
2022-01-31 9:57:00.6500,0.31,0.919,0.135,-2.5,-0.65,2.98,0.05,-0.18,0.38
2022-01-31 9:57:00.6500,0.346,0.914,0.12,-2.5,-0.65,2.98,-0.14,-0.41,0.32
2022-01-31 9:57:00.6500,0.396,0.875,0.08,-2.5,-0.65,2.98,-0.17,-1.08,0.43
Time,0.456,0.83,0.043,-2.5,-0.65,2.98,-0.29,-1.48,0.64
2022-01-31 9:57:00.6520,0.546,0.881,0.16,-2.5,-0.65,2.98,-0.48,-1.06,0.67
2022-01-31 9:57:00.6580,0.602,0.921,0.206,-2.5,-0.65,2.98,-0.57,-0.62,0.57
2022-01-31 9:57:00.6580,0.602,0.873,0.117,-2.5,-0.65,2.98,-0.56,-0.5,0.53
2022-01-31 9:57:00.6610,0.584,0.791,0.077,-2.5,-0.65,2.98,-0.5,-0.38,0.49
2022-01-31 9:57:00.6590,0.561,0.768,0.058,-2.5,-0.65,2.98,-0.43,-0.25,0.4
2022-01-31 9:57:00.6600,0.551,0.789,0.026,-2.5,-0.65,2.98,-0.39,-0.32,0.36
2022-01-31 9:57:00.6660,0.545,0.835,-0.003,-2.5,-0.65,2.98,-0.37,-0.49,0.33
2022-01-31 9:57:00.6660,0.507,0.916,0.031,-2.5,-0.65,2.98,-0.34,-0.5,0.28
2022-01-31 9:57:00.6660,0.466,0.984,0.066,-2.5,-0.65,2.98,-0.39,-0.56,0.21
2022-01-31 9:57:00.6670,0.417,1.02,0.081,-2.5,-0.65,2.98,-0.62,-0.92,0.1
2022-01-31 9:57:00.6670,0.356,1.041,0.146,-2.5,-0.65,2.98,-0.86,-1.09,-0.13
2022-01-31 9:57:00.6710,0.351,1.049,0.279,-2.5,-0.65,2.98,-0.82,-0.54,-0.33
2022-01-31 9:57:00.6710,0.417,0.967,0.246,-2.5,-0.65,2.98,-0.82,-0.54,-0.33
2022-01-31 9:57:00.6730,0.387,0.906,0.141,-2.5,-0.65,2.98,-0.51,-0.08,-0.63
2022-01-31 9:57:00.6720,0.383,1.002,0.084,-2.5,-0.65,2.98,-0.11,0.24,-0.86
2022-01-31 9:57:00.6740,0.405,0.98,0.055,-2.5,-0.65,2.98,0.12,0.38,-0.97
2022-01-31 9:57:00.6770,0.425,0.941,0.067,-2.5,-0.65,2.98,0.35,0.5,-0.95
2022-01-31 9:57:00.6770,0.44,0.898,0.066,-2.5,-0.65,2.98,0.36,0.41,-0.78
2022-01-31 9:57:00.6780,0.458,0.778,0.11,-2.5,-0.65,2.98,0.24,0.34,-0.46
2022-01-31 9:57:00.6770,0.468,0.687,0.16,-2.5,-0.65,2.98,0.18,0.37,-0.13
2022-01-31 9:57:00.6800,0.427,0.679,0.159,-2.5,-0.65,2.98,0.25,0.43,0.01
Time,0.372,0.723,0.125,-2.5,-0.65,2.98,0.34,0.45,-0.1
2022-01-31 9:57:00.6840,0.357,0.806,0.067,-2.5,-0.65,2.98,0.58,0.55,-0.32
2022-01-31 9:57:00.6820,0.381,0.862,0.002,-2.5,-0.65,2.98,0.99,0.87,-0.63
2022-01-31 9:57:00.6820,0.44,0.869,-0.071,-2.5,-0.65,2.98,1.5,1.2,-0.98
2022-01-31 9:57:00.6830,0.505,0.81,-0.16,-2.5,-0.65,2.98,1.92,1.28,-1.35
2022-01-31 9:57:00.6830,0.574,0.682,-0.191,-2.5,-0.65,2.98,2.27,1.29,-1.56
2022-01-31 9:57:00.6880,0.649,0.649,-0.178,-2.5,-0.65,2.98,2.8,1.39,-1.43
2022-01-31 9:57:00.6880,0.681,0.757,-0.193,-2.5,-0.65,2.98,3.28,1.23,-0.9
2022-01-31 9:57:00.6880,0.638,0.857,-0.236,-2.5,-0.65,2.98,3.46,0.51,-0.11
Time,0.495,0.944,-0.243,-2.5,-0.65,2.98,3.27,-0.44,0.66
2022-01-31 9:57:00.6880,0.31,1.138,-0.132,-2.5,-0.65,2.98,2.7,-1.18,1.22
2022-01-31 9:57:00.6880,0.062,1.326,0.097,-2.5,-0.65,2.98,1.71,-1.3,1.37
Time,-0.166,1.39,0.394,-2.5,-0.65,2.98,0.85,-0.59,1.18
Time,-0.203,1.189,0.512,-2.5,-0.65,2.98,0.22,0.21,0.93
Time,-0.047,0.893,0.398,-2.5,-0.65,2.98,-0.11,0.79,0.84
2022-01-31 9:57:00.6950,0.166,0.703,0.162,-2.5,-0.65,2.98,-0.27,0.94,0.76
2022-01-31 9:57:00.6950,0.293,0.787,-0.1,-2.5,-0.65,2.98,-0.35,0.66,0.6
2022-01-31 9:57:00.6960,0.364,0.989,-0.247,-2.5,-0.65,2.98,-0.32,0.41,0.34
2022-01-31 9:57:00.6990,0.435,1.096,-0.302,-2.5,-0.65,2.98,-0.11,0.33,0.15
2022-01-31 9:57:00.6990,0.497,1.014,-0.323,-2.5,-0.65,2.98,-0.11,0.33,0.15
2022-01-31 9:57:00.7010,0.547,0.964,-0.372,-2.5,-0.65,2.98,0.61,-0.1,0.05
2022-01-31 9:57:00.7010,0.568,0.99,-0.327,-2.5,-0.65,2.98,0.79,-0.2,0.15
2022-01-31 9:57:00.7010,0.551,1.001,-0.224,-2.5,-0.65,2.98,0.88,-0.13,0.26
2022-01-31 9:57:00.7020,0.468,1.044,-0.173,-2.5,-0.65,2.98,0.93,-0.12,0.15
2022-01-31 9:57:00.7050,0.378,1.078,-0.165,-2.5,-0.65,2.98,1.03,-0.23,-0.2
Time,0.312,1.16,-0.138,-2.5,-0.65,2.98,1.22,-0.24,-0.67
2022-01-31 9:57:00.7080,0.319,1.106,-0.065,-2.5,-0.65,2.98,1.27,-0.17,-0.86
2022-01-31 9:57:00.7090,0.347,0.994,0.025,-2.5,-0.65,2.98,1.13,-0.05,-0.88
2022-01-31 9:57:00.7090,0.338,0.973,0.095,-2.5,-0.65,2.98,0.87,0.15,-0.89
2022-01-31 9:57:00.7080,0.336,0.924,0.135,-2.5,-0.65,2.98,0.45,0.3,-0.89
2022-01-31 9:57:00.7080,0.351,0.891,0.136,-2.5,-0.65,2.98,0.45,0.3,-0.89
2022-01-31 9:57:00.7140,0.392,0.85,0.12,-2.5,-0.65,2.98,-0.57,0.58,-0.72
2022-01-31 9:57:00.7150,0.4,0.88,0.167,-2.5,-0.65,2.98,-1.07,1.11,-0.66
2022-01-31 9:57:00.7160,0.308,1.054,0.15,-2.5,-0.65,2.98,-0.87,1.75,-0.8
2022-01-31 9:57:00.7150,0.249,1.124,-0.086,-2.5,-0.65,2.98,-0.66,1.66,-1.07
2022-01-31 9:57:00.7150,0.251,1.071,-0.233,-2.5,-0.65,2.98,-0.49,1.25,-1.33
2022-01-31 9:57:00.7150,0.325,0.941,-0.261,-2.5,-0.65,2.98,-0.49,1.25,-1.33
2022-01-31 9:57:00.7180,0.406,0.833,-0.241,-2.5,-0.65,2.98,-0.37,0.53,-1.39
2022-01-31 9:57:00.7260,0.507,0.773,-0.231,-2.5,-0.65,2.98,-0.49,0.14,-1.09
2022-01-31 9:57:00.7220,0.632,0.707,-0.234,-2.5,-0.65,2.98,-1.28,-0.4,-0.14
Time,0.716,0.563,-0.113,-2.5,-0.65,2.98,-1.71,-0.2,0.98
2022-01-31 9:57:00.7230,0.633,0.702,-0.1,-2.5,-0.65,2.98,-1.89,-0.05,1.73
2022-01-31 9:57:00.7230,0.472,0.869,-0.2,-2.5,-0.65,2.98,-1.89,-0.05,1.73
2022-01-31 9:57:00.7240,0.277,1.128,-0.401,-2.5,-0.65,2.98,-0.75,-1.86,0.82
2022-01-31 9:57:00.7280,0.21,1.298,-0.403,-2.5,-0.65,2.98,0.29,-2.41,-0.03
2022-01-31 9:57:00.7280,0.311,1.196,-0.158,-2.5,-0.65,2.98,1.1,-1.85,-0.26
2022-01-31 9:57:00.7280,0.367,1.02,0.134,-2.5,-0.65,2.98,1.1,-1.85,-0.26
2022-01-31 9:57:00.7300,0.312,0.945,0.226,-2.5,-0.65,2.98,1.36,0.13,-0.12
2022-01-31 9:57:00.7300,0.25,0.959,0.141,-2.5,-0.65,2.98,1.03,0.47,-0.23
2022-01-31 9:57:00.7300,0.191,1.011,0.1,-2.5,-0.65,2.98,1.03,0.47,-0.23
2022-01-31 9:57:00.7350,0.194,1.022,-0.039,-2.5,-0.65,2.98,0.68,0.33,-0.79
Time,0.193,1.113,-0.102,-2.5,-0.65,2.98,0.84,0.04,-1.1
2022-01-31 9:57:00.7360,0.261,1.169,-0.204,-2.5,-0.65,2.98,1.11,-0.42,-1.14
Time,0.341,1.172,-0.198,-2.5,-0.65,2.98,1.22,-0.69,-0.98
2022-01-31 9:57:00.7370,0.388,1.127,-0.143,-2.5,-0.65,2.98,1.07,-0.76,-0.74
2022-01-31 9:57:00.7420,0.363,1.011,-0.093,-2.5,-0.65,2.98,1.07,-0.76,-0.74
2022-01-31 9:57:00.7410,0.341,0.878,-0.091,-2.5,-0.65,2.98,0.41,-0.92,-0.18
2022-01-31 9:57:00.7420,0.394,0.724,-0.055,-2.5,-0.65,2.98,-0.05,-0.82,0.26
2022-01-31 9:57:00.7430,0.413,0.677,-0.024,-2.5,-0.65,2.98,-0.42,-0.39,0.65
2022-01-31 9:57:00.7420,0.395,0.683,0.014,-2.5,-0.65,2.98,-0.78,0.28,0.91
2022-01-31 9:57:00.7430,0.362,0.818,-0.044,-2.5,-0.65,2.98,-0.71,0.72,0.94
2022-01-31 9:57:00.7430,0.333,1.0,-0.18,-2.5,-0.65,2.98,-0.36,0.88,0.86
2022-01-31 9:57:00.7470,0.347,0.924,-0.264,-2.5,-0.65,2.98,-0.07,0.62,0.81
2022-01-31 9:57:00.7480,0.338,0.842,-0.28,-2.5,-0.65,2.98,0.14,0.31,0.7
2022-01-31 9:57:00.7480,0.286,0.799,-0.256,-2.5,-0.65,2.98,0.26,0.12,0.66
2022-01-31 9:57:00.7490,0.249,0.765,-0.081,-2.5,-0.65,2.98,-0.01,0.8,0.55
2022-01-31 9:57:00.7490,0.2,1.029,0.049,-2.5,-0.65,2.98,-0.04,1.58,0.23
2022-01-31 9:57:00.7500,0.201,1.218,-0.077,-2.5,-0.65,2.98,-0.05,1.89,0.16
Time,0.267,0.971,-0.11,-2.5,-0.65,2.98,-0.29,1.94,0.28
2022-01-31 9:57:00.7550,0.298,0.877,-0.094,-2.5,-0.65,2.98,-0.43,2.17,0.28
2022-01-31 9:57:00.7550,0.28,0.879,-0.08,-2.5,-0.65,2.98,-0.46,2.43,0.09
2022-01-31 9:57:00.7550,0.282,0.793,-0.104,-2.5,-0.65,2.98,-0.42,2.48,-0.14
2022-01-31 9:57:00.7550,0.271,0.691,-0.142,-2.5,-0.65,2.98,-0.27,2.26,-0.38
2022-01-31 9:57:00.7560,0.24,0.648,-0.187,-2.5,-0.65,2.98,-0.07,1.75,-0.65
2022-01-31 9:57:00.7610,0.209,0.649,-0.228,-2.5,-0.65,2.98,0.05,0.97,-0.93
2022-01-31 9:57:00.7620,0.18,0.665,-0.244,-2.5,-0.65,2.98,0.07,0.12,-1.19
Time,0.139,0.751,-0.215,-2.5,-0.65,2.98,-0.09,-0.59,-1.42
2022-01-31 9:57:00.7620,0.118,0.796,-0.137,-2.5,-0.65,2.98,-0.16,-0.7,-1.65
2022-01-31 9:57:00.7620,0.12,0.807,-0.057,-2.5,-0.65,2.98,-0.21,-0.34,-1.83
2022-01-31 9:57:00.7620,0.172,0.839,-0.01,-2.5,-0.65,2.98,-0.21,-0.34,-1.83
2022-01-31 9:57:00.7680,0.258,0.878,0.006,-2.5,-0.65,2.98,-0.33,1.05,-1.56
2022-01-31 9:57:00.7680,0.351,0.993,-0.026,-2.5,-0.65,2.98,-0.21,1.76,-1.21
2022-01-31 9:57:00.7690,0.407,1.135,-0.104,-2.5,-0.65,2.98,0.05,2.11,-0.99
2022-01-31 9:57:00.7680,0.415,1.237,-0.193,-2.5,-0.65,2.98,0.04,1.69,-1.12
2022-01-31 9:57:00.7680,0.456,1.187,-0.267,-2.5,-0.65,2.98,0.1,0.83,-1.09
2022-01-31 9:57:00.7690,0.554,1.076,-0.282,-2.5,-0.65,2.98,0.11,-0.36,-0.88
2022-01-31 9:57:00.7740,0.597,1.086,-0.194,-2.54,-0.43,3.08,0.08,-1.58,-0.61
2022-01-31 9:57:00.7750,0.549,1.034,-0.069,-2.54,-0.43,3.08,0.04,-2.2,-0.28
2022-01-31 9:57:00.7750,0.442,0.908,0.05,-2.54,-0.43,3.08,-0.07,-2.32,0.04
2022-01-31 9:57:00.7750,0.328,0.829,0.163,-2.54,-0.43,3.08,-0.07,-2.32,0.04
2022-01-31 9:57:00.7750,0.242,0.809,0.228,-2.54,-0.43,3.08,-0.4,-1.55,0.57
2022-01-31 9:57:00.7760,0.161,0.854,0.23,-2.54,-0.43,3.08,-0.51,-1.01,0.7
2022-01-31 9:57:00.7800,0.107,0.937,0.195,-2.54,-0.43,3.08,-0.63,-0.61,0.67
2022-01-31 9:57:00.7810,0.074,1.042,0.101,-2.54,-0.43,3.08,-0.76,-0.53,0.55
Time,0.075,1.106,-0.004,-2.54,-0.43,3.08,-0.89,-0.68,0.42
2022-01-31 9:57:00.7810,0.107,1.116,-0.068,-2.54,-0.43,3.08,-0.98,-0.86,0.34
2022-01-31 9:57:00.7820,0.156,1.066,-0.096,-2.54,-0.43,3.08,-1.01,-0.92,0.36
2022-01-31 9:57:00.7810,0.217,1.005,-0.082,-2.54,-0.43,3.08,-0.98,-0.75,0.48
2022-01-31 9:57:00.7920,0.252,0.991,-0.047,-2.54,-0.43,3.08,-0.83,-0.4,0.57
2022-01-31 9:57:00.7870,0.237,1.0,-0.025,-2.54,-0.43,3.08,-0.62,-0.08,0.53
2022-01-31 9:57:00.7860,0.209,1.009,-0.024,-2.54,-0.43,3.08,-0.43,0.01,0.4
2022-01-31 9:57:00.7860,0.201,0.974,-0.042,-2.54,-0.43,3.08,-0.43,0.01,0.4
2022-01-31 9:57:00.7890,0.213,0.928,-0.051,-2.54,-0.43,3.08,-0.22,-0.38,0.27
2022-01-31 9:57:00.7890,0.232,0.928,-0.048,-2.54,-0.43,3.08,-0.1,-0.58,0.3
2022-01-31 9:57:00.7930,0.257,0.977,-0.021,-2.54,-0.43,3.08,-0.0,-0.64,0.33
2022-01-31 9:57:00.7930,0.284,1.062,0.025,-2.54,-0.43,3.08,0.01,-0.53,0.35
Time,0.285,1.11,0.066,-2.54,-0.43,3.08,-0.03,-0.31,0.29
2022-01-31 9:57:00.7940,0.273,1.1,0.072,-2.54,-0.43,3.08,-0.05,-0.13,0.2
2022-01-31 9:57:00.7940,0.264,1.029,0.036,-2.54,-0.43,3.08,-0.07,-0.07,0.15
2022-01-31 9:57:00.7950,0.302,0.938,-0.002,-2.54,-0.43,3.08,-0.17,-0.15,0.31
2022-01-31 9:57:00.8000,0.354,0.877,-0.02,-2.54,-0.43,3.08,-0.34,-0.35,0.53
2022-01-31 9:57:00.7990,0.339,0.884,-0.011,-2.54,-0.43,3.08,-0.45,-0.52,0.6
2022-01-31 9:57:00.8010,0.265,0.929,0.002,-2.54,-0.43,3.08,-0.38,-0.6,0.34
2022-01-31 9:57:00.8010,0.187,0.97,0.017,-2.54,-0.43,3.08,-0.38,-0.6,0.34
2022-01-31 9:57:00.8010,0.128,1.019,0.038,-2.54,-0.43,3.08,-0.38,-0.54,0.07
2022-01-31 9:57:00.8020,0.143,1.061,0.052,-2.54,-0.43,3.08,-0.41,-0.36,-0.12
2022-01-31 9:57:00.8060,0.246,1.018,0.045,-2.54,-0.43,3.08,-0.45,-0.21,-0.13
2022-01-31 9:57:00.8060,0.34,0.941,0.016,-2.54,-0.43,3.08,-0.45,-0.21,-0.13
2022-01-31 9:57:00.8070,0.352,0.879,0.006,-2.54,-0.43,3.08,-0.6,-0.39,0.09
2022-01-31 9:57:00.8070,0.302,0.798,0.022,-2.54,-0.43,3.08,-0.77,-0.62,0.22
2022-01-31 9:57:00.8080,0.27,0.762,0.059,-2.54,-0.43,3.08,-0.94,-0.7,0.31
2022-01-31 9:57:00.8080,0.28,0.775,0.119,-2.54,-0.43,3.08,-1.01,-0.42,0.37
2022-01-31 9:57:00.8110,0.314,0.868,0.129,-2.54,-0.43,3.08,-0.91,-0.02,0.36
2022-01-31 9:57:00.8120,0.317,0.956,0.073,-2.54,-0.43,3.08,-0.67,0.27,0.19
2022-01-31 9:57:00.8150,0.302,1.016,-0.003,-2.54,-0.43,3.08,-0.32,0.36,0.0
2022-01-31 9:57:00.8140,0.328,1.04,-0.042,-2.54,-0.43,3.08,-0.01,0.42,-0.13
2022-01-31 9:57:00.8160,0.355,1.047,-0.03,-2.54,-0.43,3.08,0.26,0.52,-0.16
2022-01-31 9:57:00.8150,0.355,1.016,-0.008,-2.54,-0.43,3.08,0.45,0.6,-0.08
2022-01-31 9:57:00.8190,0.333,0.945,0.024,-2.54,-0.43,3.08,0.46,0.61,0.04
2022-01-31 9:57:00.8180,0.29,0.902,0.074,-2.54,-0.43,3.08,0.34,0.58,0.12
2022-01-31 9:57:00.8200,0.246,0.928,0.112,-2.54,-0.43,3.08,0.29,0.5,0.19
2022-01-31 9:57:00.8210,0.244,0.956,0.114,-2.54,-0.43,3.08,0.26,0.46,0.23
2022-01-31 9:57:00.8210,0.242,0.971,0.134,-2.54,-0.43,3.08,0.23,0.53,0.17
2022-01-31 9:57:00.8210,0.252,0.991,0.152,-2.54,-0.43,3.08,0.19,0.74,0.1
2022-01-31 9:57:00.8230,0.289,0.973,0.134,-2.54,-0.43,3.08,0.04,0.8,0.04
2022-01-31 9:57:00.8250,0.336,0.982,0.063,-2.54,-0.43,3.08,-0.09,0.6,-0.03
2022-01-31 9:57:00.8270,0.371,1.054,-0.018,-2.54,-0.43,3.08,-0.0,0.31,-0.12
2022-01-31 9:57:00.8260,0.385,1.08,-0.059,-2.54,-0.43,3.08,0.29,0.23,-0.17
2022-01-31 9:57:00.8280,0.366,1.026,-0.031,-2.54,-0.43,3.08,0.55,0.26,-0.14
2022-01-31 9:57:00.8290,0.321,0.94,0.015,-2.54,-0.43,3.08,0.56,0.25,-0.07
2022-01-31 9:57:00.8300,0.267,0.911,0.049,-2.54,-0.43,3.08,0.44,0.07,-0.03
2022-01-31 9:57:00.8320,0.232,0.924,0.053,-2.54,-0.43,3.08,0.29,-0.22,-0.06
2022-01-31 9:57:00.8350,0.211,0.96,0.054,-2.54,-0.43,3.08,0.24,-0.48,-0.21
2022-01-31 9:57:00.8350,0.212,1.008,0.065,-2.54,-0.43,3.08,0.28,-0.51,-0.45
2022-01-31 9:57:00.8340,0.244,1.022,0.079,-2.54,-0.43,3.08,0.42,-0.34,-0.73
2022-01-31 9:57:00.8350,0.289,1.026,0.076,-2.54,-0.43,3.08,0.63,-0.01,-0.96
2022-01-31 9:57:00.8370,0.335,1.001,0.06,-2.54,-0.43,3.08,0.89,0.39,-1.06
2022-01-31 9:57:00.8430,0.386,0.929,0.045,-2.54,-0.43,3.08,1.09,0.78,-1.04
Time,0.438,0.856,0.024,-2.54,-0.43,3.08,1.24,1.07,-0.9
2022-01-31 9:57:00.8400,0.463,0.891,-0.0,-2.54,-0.43,3.08,1.34,1.24,-0.75
2022-01-31 9:57:00.8400,0.48,0.985,-0.022,-2.54,-0.43,3.08,1.41,1.2,-0.55
2022-01-31 9:57:00.8430,0.509,1.033,-0.056,-2.54,-0.43,3.08,1.37,0.86,-0.27
2022-01-31 9:57:00.8470,0.519,1.034,-0.075,-2.54,-0.43,3.08,1.13,0.2,0.05
2022-01-31 9:57:00.8440,0.534,0.981,-0.083,-2.54,-0.43,3.08,0.86,-0.45,0.33
2022-01-31 9:57:00.8470,0.512,0.947,-0.02,-2.54,-0.43,3.08,0.67,-0.71,0.58
2022-01-31 9:57:00.8480,0.45,0.922,0.067,-2.54,-0.43,3.08,0.47,-0.69,0.74
2022-01-31 9:57:00.8460,0.373,0.866,0.102,-2.54,-0.43,3.08,0.18,-0.73,0.84
Time,0.323,0.77,0.123,-2.54,-0.43,3.08,-0.18,-0.66,0.95
2022-01-31 9:57:00.8490,0.258,0.72,0.171,-2.54,-0.43,3.08,-0.61,-0.46,0.95
2022-01-31 9:57:00.8510,0.173,0.759,0.187,-2.54,-0.43,3.08,-1.02,-0.21,0.83
2022-01-31 9:57:00.8530,0.125,0.818,0.178,-2.54,-0.43,3.08,-1.31,0.16,0.68
2022-01-31 9:57:00.8530,0.083,0.868,0.164,-2.54,-0.43,3.08,-1.42,0.62,0.56
2022-01-31 9:57:00.8530,0.021,0.915,0.133,-2.54,-0.43,3.08,-1.46,0.97,0.35
2022-01-31 9:57:00.8550,-0.062,1.025,0.085,-2.54,-0.43,3.08,-1.42,1.13,-0.01
2022-01-31 9:57:00.8560,-0.078,1.146,0.053,-2.54,-0.43,3.08,-1.33,1.29,-0.3
2022-01-31 9:57:00.8590,-0.099,1.203,0.075,-2.54,-0.43,3.08,-1.26,1.53,-0.47
2022-01-31 9:57:00.8580,-0.078,1.254,0.044,-2.54,-0.43,3.08,-1.01,1.58,-0.56
2022-01-31 9:57:00.8590,0.003,1.278,-0.063,-2.54,-0.43,3.08,-0.59,1.37,-0.59
2022-01-31 9:57:00.8600,0.074,1.2,-0.104,-2.54,-0.43,3.08,-0.19,1.17,-0.54
2022-01-31 9:57:00.8600,0.117,1.135,-0.047,-2.54,-0.43,3.08,0.04,1.22,-0.59
2022-01-31 9:57:00.8620,0.153,1.124,0.029,-2.54,-0.43,3.08,0.17,1.44,-0.64
2022-01-31 9:57:00.8650,0.205,1.069,0.055,-2.54,-0.43,3.08,0.25,1.57,-0.66
Time,0.253,1.02,0.018,-2.54,-0.43,3.08,0.3,1.49,-0.69
2022-01-31 9:57:00.8660,0.047,-0.32,-0.894,-2.54,-0.43,3.08,-0.34,-0.26,0.05
2022-01-31 9:57:00.8660,0.034,-0.302,-0.906,-2.54,-0.43,3.08,-0.37,-0.22,0.04
2022-01-31 9:57:00.8670,0.033,-0.292,-0.932,-2.54,-0.43,3.08,-0.36,-0.2,0.03
2022-01-31 9:57:00.8750,0.05,-0.293,-0.952,-2.54,-0.43,3.08,-0.34,-0.19,0.05
2022-01-31 9:57:00.8710,0.066,-0.295,-0.964,-2.54,-0.43,3.08,-0.31,-0.18,0.08
2022-01-31 9:57:00.8720,0.067,-0.289,-0.977,-2.54,-0.43,3.08,-0.27,-0.17,0.1
2022-01-31 9:57:00.8710,0.054,-0.277,-0.992,-2.54,-0.43,3.08,-0.21,-0.17,0.11
2022-01-31 9:57:00.8730,0.041,-0.27,-0.996,-2.54,-0.43,3.08,-0.15,-0.15,0.11
2022-01-31 9:57:00.8740,0.031,-0.268,-0.986,-2.54,-0.43,3.08,-0.12,-0.14,0.11
2022-01-31 9:57:00.8760,0.023,-0.27,-0.973,-2.54,-0.43,3.08,-0.11,-0.13,0.1
2022-01-31 9:57:00.8780,0.016,-0.271,-0.964,-2.54,-0.43,3.08,-0.12,-0.12,0.09
2022-01-31 9:57:00.8780,0.009,-0.272,-0.958,-2.54,-0.43,3.08,-0.12,-0.11,0.07
2022-01-31 9:57:00.8770,-0.001,-0.269,-0.947,-2.54,-0.43,3.08,-0.12,-0.07,0.06
2022-01-31 9:57:00.8790,-0.004,-0.272,-0.936,-2.54,-0.43,3.08,-0.14,-0.05,0.05
2022-01-31 9:57:00.8800,-0.005,-0.271,-0.936,-2.54,-0.43,3.08,-0.16,-0.03,0.03
2022-01-31 9:57:00.8850,-0.002,-0.271,-0.931,-2.54,-0.43,3.08,-0.19,0.01,0.03
2022-01-31 9:57:00.8830,0.006,-0.279,-0.927,-2.54,-0.43,3.08,-0.23,0.04,0.04
2022-01-31 9:57:00.8840,0.02,-0.285,-0.935,-2.54,-0.43,3.08,-0.27,0.05,0.06
2022-01-31 9:57:00.8840,0.027,-0.286,-0.955,-2.54,-0.43,3.08,-0.28,0.03,0.09
2022-01-31 9:57:00.8860,0.023,-0.276,-0.982,-2.54,-0.43,3.08,-0.27,0.02,0.1
2022-01-31 9:57:00.8910,0.014,-0.265,-0.996,-2.54,-0.43,3.08,-0.23,0.02,0.1
2022-01-31 9:57:00.8870,0.003,-0.254,-0.996,-2.54,-0.43,3.08,-0.2,0.04,0.08
2022-01-31 9:57:00.8890,-0.005,-0.246,-0.994,-2.54,-0.43,3.08,-0.17,0.06,0.05
2022-01-31 9:57:00.8890,-0.001,-0.244,-1.0,-2.54,-0.43,3.08,-0.14,0.06,0.02
2022-01-31 9:57:00.8940,0.012,-0.25,-1.007,-2.54,-0.43,3.08,-0.11,0.05,0.01
2022-01-31 9:57:00.8910,0.028,-0.254,-1.014,-2.54,-0.43,3.08,-0.09,0.06,0.03
2022-01-31 9:57:00.8920,0.039,-0.258,-1.002,-2.54,-0.43,3.08,-0.1,0.04,0.04
2022-01-31 9:57:00.8930,0.041,-0.26,-0.991,-2.54,-0.43,3.08,-0.12,0.02,0.06
Time,0.036,-0.258,-0.985,-2.54,-0.43,3.08,-0.14,0.01,0.07
2022-01-31 9:57:00.8960,0.022,-0.25,-0.985,-2.54,-0.43,3.08,-0.13,0.03,0.06
2022-01-31 9:57:00.8970,0.012,-0.24,-0.99,-2.54,-0.43,3.08,-0.11,0.07,0.04
2022-01-31 9:57:00.8980,0.01,-0.238,-0.999,-2.54,-0.43,3.08,-0.07,0.1,0.02
2022-01-31 9:57:00.8960,0.022,-0.238,-1.017,-2.54,-0.43,3.08,-0.04,0.09,0.02
2022-01-31 9:57:00.9000,0.039,-0.235,-1.023,-2.54,-0.43,3.08,-0.01,0.08,0.03
2022-01-31 9:57:00.8990,0.047,-0.238,-1.009,-2.54,-0.43,3.08,-0.0,0.07,0.05
2022-01-31 9:57:00.9010,0.042,-0.241,-0.991,-2.54,-0.43,3.08,-0.01,0.05,0.06
2022-01-31 9:57:00.9030,0.037,-0.243,-0.972,-2.54,-0.43,3.08,-0.02,0.06,0.06
2022-01-31 9:57:00.9030,0.029,-0.243,-0.963,-2.54,-0.43,3.08,-0.02,0.08,0.06
2022-01-31 9:57:00.9060,0.019,-0.237,-0.965,-2.54,-0.43,3.08,-0.03,0.09,0.04
2022-01-31 9:57:00.9060,0.019,-0.234,-0.97,-2.54,-0.43,3.08,-0.03,0.09,0.02
2022-01-31 9:57:00.9070,0.029,-0.236,-0.982,-2.54,-0.43,3.08,-0.03,0.07,0.02
2022-01-31 9:57:00.9070,0.038,-0.236,-0.994,-2.54,-0.43,3.08,-0.03,0.02,0.02
2022-01-31 9:57:00.9100,0.041,-0.235,-0.985,-2.54,-0.43,3.08,-0.04,-0.0,0.03
2022-01-31 9:57:00.9090,0.04,-0.241,-0.967,-2.54,-0.43,3.08,-0.05,-0.01,0.04
2022-01-31 9:57:00.9110,0.038,-0.25,-0.951,-2.54,-0.43,3.08,-0.06,0.0,0.07
2022-01-31 9:57:00.9110,0.033,-0.253,-0.946,-2.54,-0.43,3.08,-0.07,0.04,0.09
2022-01-31 9:57:00.9130,0.027,-0.245,-0.95,-2.54,-0.43,3.08,-0.05,0.08,0.1
Time,0.02,-0.232,-0.961,-2.54,-0.43,3.08,-0.02,0.12,0.09
2022-01-31 9:57:00.9150,0.012,-0.221,-0.977,-2.54,-0.43,3.08,0.06,0.13,0.05
2022-01-31 9:57:00.9150,0.008,-0.218,-0.99,-2.54,-0.43,3.08,0.06,0.13,0.05
Time,0.01,-0.217,-0.989,-2.54,-0.43,3.08,0.06,0.09,0.03
2022-01-31 9:57:00.9220,0.014,-0.221,-0.977,-2.54,-0.43,3.08,0.03,0.05,0.01
2022-01-31 9:57:00.9220,0.022,-0.229,-0.961,-2.54,-0.43,3.08,-0.01,0.02,0.01
2022-01-31 9:57:00.9200,0.029,-0.238,-0.96,-2.54,-0.43,3.08,-0.03,0.01,0.02
2022-01-31 9:57:00.9240,0.028,-0.234,-0.97,-2.54,-0.43,3.08,-0.05,-0.01,0.02
2022-01-31 9:57:00.9240,0.02,-0.226,-0.974,-2.54,-0.43,3.08,-0.04,-0.01,0.02
Time,0.013,-0.223,-0.974,-2.54,-0.43,3.08,-0.04,-0.0,0.0
2022-01-31 9:57:00.9280,0.014,-0.228,-0.971,-2.54,-0.43,3.08,-0.03,0.0,-0.0
2022-01-31 9:57:00.9290,0.019,-0.235,-0.969,-2.54,-0.43,3.08,-0.02,0.0,0.0
2022-01-31 9:57:00.9280,0.02,-0.234,-0.971,-2.54,-0.43,3.08,-0.01,-0.0,-0.0
2022-01-31 9:57:00.9310,0.018,-0.23,-0.967,-2.54,-0.43,3.08,-0.02,-0.01,-0.01
2022-01-31 9:57:00.9310,0.017,-0.23,-0.96,-2.54,-0.43,3.08,-0.04,-0.01,-0.0
2022-01-31 9:57:00.9430,0.018,-0.235,-0.955,-2.54,-0.43,3.08,-0.05,0.01,0.0
2022-01-31 9:57:00.9530,0.018,-0.237,-0.96,-2.54,-0.43,3.08,-0.04,0.03,0.01
2022-01-31 9:57:00.9630,0.016,-0.231,-0.972,-2.54,-0.43,3.08,-0.03,0.04,0.0
2022-01-31 9:57:00.9730,0.017,-0.227,-0.976,-2.54,-0.43,3.08,-0.02,0.06,-0.01
Time,0.015,-0.226,-0.981,-2.38,-0.37,3.19,-0.02,0.04,-0.02
2022-01-31 9:57:00.9940,0.017,-0.223,-0.995,-2.38,-0.37,3.19,-0.03,0.0,-0.03
2022-01-31 9:57:01.0040,0.019,-0.217,-1.005,-2.38,-0.37,3.19,-0.02,-0.02,-0.04
2022-01-31 9:57:01.0140,0.016,-0.215,-1.004,-2.38,-0.37,3.19,-0.03,-0.04,-0.04
2022-01-31 9:57:01.0240,0.017,-0.221,-0.995,-2.38,-0.37,3.19,-0.04,-0.05,-0.05
2022-01-31 9:57:01.0340,0.024,-0.231,-0.988,-2.38,-0.37,3.19,-0.05,-0.06,-0.05
2022-01-31 9:57:01.0440,0.026,-0.235,-0.986,0.01,0.65,0.65,-0.04,-0.07,-0.04
2022-01-31 9:57:01.0540,0.02,-0.234,-0.985,-3.04,0.13,-0.3,-0.03,-0.06,-0.04
2022-01-31 9:57:01.0640,0.012,-0.228,-0.984,0.45,-0.31,1.15,-0.01,-0.04,-0.05
2022-01-31 9:57:01.0740,0.013,-0.227,-0.982,0.07,-0.68,-1.08,0.0,-0.03,-0.05
2022-01-31 9:57:01.0850,0.022,-0.233,-0.98,-1.13,-0.5,-0.2,-0.01,-0.06,-0.05
2022-01-31 9:57:01.0950,0.025,-0.234,-0.973,0.23,0.76,-0.01,-0.0,-0.06,-0.07
Time,0.022,-0.217,-0.93,-0.5,-0.19,0.79,0.29,0.32,-0.09
2022-01-31 9:57:01.1160,0.013,-0.253,-0.91,-0.56,0.61,0.95,0.34,0.49,-0.01
2022-01-31 9:57:01.1250,0.035,-0.258,-0.875,0.41,-4.75,1.75,0.28,0.46,-0.02
Time,0.061,-0.26,-0.906,1.15,-0.07,0.78,0.13,0.32,-0.01
2022-01-31 9:57:01.1450,0.072,-0.253,-0.93,0.6,3.69,-1.5,-0.05,0.07,0.0
Time,0.065,-0.254,-0.959,0.5,0.63,-0.49,-0.18,-0.17,-0.01
2022-01-31 9:57:01.1650,0.049,-0.243,-0.962,0.43,-0.95,-0.08,-0.28,-0.31,-0.07
2022-01-31 9:57:01.1740,0.038,-0.224,-0.956,-1.07,1.14,0.59,-0.29,-0.33,-0.09
2022-01-31 9:57:01.1850,0.037,-0.225,-0.952,-3.4,1.65,2.25,-0.23,-0.26,-0.07
2022-01-31 9:57:01.1950,0.038,-0.237,-0.942,0.11,0.3,-2.76,-0.15,-0.11,-0.05
