
time,gFx,gFy,gFz,ax,ay,az,wx,wy,wz,
0.065450,-0.1737,0.2348,0.8010,0.0000,0.0000,0.0000,0.0000,0.0000,0.0000,
0.065734,-0.1068,0.2226,0.8465,0.0000,0.0000,0.0000,0.0000,0.0000,0.0000,
0.066092,-0.0972,0.2957,1.0500,0.0000,0.0000,0.0000,0.0000,0.0000,0.0000,
0.084483,-0.0292,0.3233,1.0548,0.0000,0.0000,0.0000,0.0000,0.0000,0.0000,
0.091630,-0.1324,0.2489,0.9737,0.0000,0.0000,0.0000,0.0000,0.0000,0.0000,
0.092652,-0.1324,0.2489,0.9737,-0.0167,0.0313,0.1225,0.0000,0.0000,0.0000,
0.110995,-0.1686,0.1770,0.8695,-0.0167,0.0313,0.1225,0.0000,0.0000,0.0000,
0.112171,-0.1686,0.1770,0.8695,0.1783,-0.1872,-0.9197,0.0000,0.0000,0.0000,
0.133277,-0.1837,0.1204,1.0283,0.1783,-0.1872,-0.9197,0.0000,0.0000,0.0000,
0.134317,-0.1837,0.1204,1.0283,-0.0870,0.0570,0.4870,0.0000,0.0000,0.0000,
0.135446,-0.1837,0.1204,1.0283,-0.0870,0.0570,0.4870,-0.3558,-0.3396,-0.7600,
0.141259,-0.1837,0.1204,1.0283,-0.0870,0.0570,0.4870,-0.2544,-0.3640,-0.7172,
0.151887,-0.2068,0.1064,1.0953,-0.0870,0.0570,0.4870,-0.2544,-0.3640,-0.7172,
0.153375,-0.2068,0.1064,1.0953,-0.2155,0.1109,1.1416,-0.2544,-0.3640,-0.7172,
0.154436,-0.2068,0.1064,1.0953,-0.2155,0.1109,1.1416,-0.1726,-0.4526,-0.6494,
0.161060,-0.2068,0.1064,1.0953,-0.2155,0.1109,1.1416,-0.0755,-0.5338,-0.5309,
0.170777,-0.1768,0.1513,1.1454,-0.2155,0.1109,1.1416,-0.0755,-0.5338,-0.5309,
0.171876,-0.1768,0.1513,1.1454,-0.2492,0.2134,1.6149,-0.0755,-0.5338,-0.5309,
0.172806,-0.1768,0.1513,1.1454,-0.2492,0.2134,1.6149,0.0272,-0.4697,-0.3806,
0.182338,-0.1768,0.1513,1.1454,-0.2492,0.2134,1.6149,0.0803,-0.3493,-0.2725,
0.191021,-0.1258,0.1880,1.1177,-0.2492,0.2134,1.6149,0.0803,-0.3493,-0.2725,
0.192292,-0.1258,0.1880,1.1177,-0.1510,0.2257,1.3417,0.0803,-0.3493,-0.2725,
0.193288,-0.1258,0.1880,1.1177,-0.1510,0.2257,1.3417,0.0748,-0.3396,-0.2175,
0.201517,-0.1258,0.1880,1.1177,-0.1510,0.2257,1.3417,0.0296,-0.4410,-0.1735,
0.210931,-0.1327,0.1990,1.0483,-0.1510,0.2257,1.3417,0.0296,-0.4410,-0.1735,
0.212020,-0.1327,0.1990,1.0483,-0.0902,0.1353,0.7125,0.0296,-0.4410,-0.1735,
0.213029,-0.1327,0.1990,1.0483,-0.0902,0.1353,0.7125,-0.0773,-0.5986,-0.1204,
0.221019,-0.1327,0.1990,1.0483,-0.0902,0.1353,0.7125,-0.2746,-0.7830,-0.0599,
0.231292,-0.0826,0.2012,1.0798,-0.0902,0.1353,0.7125,-0.2746,-0.7830,-0.0599,
0.232454,-0.0826,0.2012,1.0798,-0.0741,0.1805,0.9687,-0.2746,-0.7830,-0.0599,
0.233450,-0.0826,0.2012,1.0798,-0.0741,0.1805,0.9687,-0.5226,-0.8655,0.0079,
0.241296,-0.0826,0.2012,1.0798,-0.0741,0.1805,0.9687,-0.7389,-0.8289,0.0855,
0.251484,-0.0435,0.2031,1.1772,-0.0741,0.1805,0.9687,-0.7389,-0.8289,0.0855,
0.252554,-0.0435,0.2031,1.1772,-0.0694,0.3243,1.8790,-0.7389,-0.8289,0.0855,
0.253386,-0.0435,0.2031,1.1772,-0.0694,0.3243,1.8790,-0.8678,-0.8179,0.1575,
0.261280,-0.0435,0.2031,1.1772,-0.0694,0.3243,1.8790,-0.8995,-0.8777,0.2089,
0.271003,-0.0087,0.2217,1.2015,-0.0694,0.3243,1.8790,-0.8995,-0.8777,0.2089,
0.271960,-0.0087,0.2217,1.2015,-0.0154,0.3932,2.1311,-0.8995,-0.8777,0.2089,
0.272848,-0.0087,0.2217,1.2015,-0.0154,0.3932,2.1311,-0.8500,-0.9626,0.2480,
0.281478,-0.0087,0.2217,1.2015,-0.0154,0.3932,2.1311,-0.7468,-1.0433,0.2803,
0.290918,0.0105,0.2566,1.1442,-0.0154,0.3932,2.1311,-0.7468,-1.0433,0.2803,
0.291914,0.0105,0.2566,1.1442,0.0151,0.3689,1.6447,-0.7468,-1.0433,0.2803,
0.292837,0.0105,0.2566,1.1442,0.0151,0.3689,1.6447,-0.6295,-1.1172,0.2980,
0.301113,0.0105,0.2566,1.1442,0.0151,0.3689,1.6447,-0.5202,-1.2058,0.2907,
0.310993,0.0199,0.2441,1.0939,0.0151,0.3689,1.6447,-0.5202,-1.2058,0.2907,
0.311970,0.0199,0.2441,1.0939,0.0209,0.2566,1.1502,-0.5202,-1.2058,0.2907,
0.313681,0.0199,0.2441,1.0939,0.0209,0.2566,1.1502,-0.4145,-1.3004,0.1795,
0.321101,0.0199,0.2441,1.0939,0.0209,0.2566,1.1502,-0.2068,-1.4165,0.0830,
0.331883,0.0463,0.1637,1.0315,0.0209,0.2566,1.1502,-0.2068,-1.4165,0.0830,
0.332919,0.0463,0.1637,1.0315,0.0194,0.0686,0.4324,-0.2068,-1.4165,0.0830,
0.333956,0.0463,0.1637,1.0315,0.0194,0.0686,0.4324,-0.1396,-1.4428,-0.0239,
0.341250,0.0463,0.1637,1.0315,0.0194,0.0686,0.4324,-0.1433,-1.4538,-0.1516,
0.350869,0.0933,0.1581,0.9480,0.0194,0.0686,0.4324,-0.1433,-1.4538,-0.1516,
0.351759,0.0933,0.1581,0.9480,-0.0332,-0.0562,-0.3371,-0.1433,-1.4538,-0.1516,
0.352412,0.0933,0.1581,0.9480,-0.0332,-0.0562,-0.3371,-0.2227,-1.4611,-0.2627,
0.361151,0.0933,0.1581,0.9480,-0.0332,-0.0562,-0.3371,-0.3632,-1.5057,-0.3666,
0.370947,0.1752,0.1870,0.9392,-0.0332,-0.0562,-0.3371,-0.3632,-1.5057,-0.3666,
0.371924,0.1752,0.1870,0.9392,-0.0478,-0.0510,-0.2564,-0.3632,-1.5057,-0.3666,
0.372771,0.1752,0.1870,0.9392,-0.0478,-0.0510,-0.2564,-0.5220,-1.6108,-0.5040,
0.381226,0.1752,0.1870,0.9392,-0.0478,-0.0510,-0.2564,-0.6686,-1.7439,-0.6897,
0.390968,0.2747,0.1864,0.9243,-0.0478,-0.0510,-0.2564,-0.6686,-1.7439,-0.6897,
0.391931,0.2747,0.1864,0.9243,-0.0508,-0.0345,-0.1709,-0.6686,-1.7439,-0.6897,
0.392542,0.2747,0.1864,0.9243,-0.0508,-0.0345,-0.1709,-0.8103,-1.8814,-0.9292,
0.401696,0.2747,0.1864,0.9243,-0.0508,-0.0345,-0.1709,-0.9618,-2.0200,-1.2291,
0.410965,0.3154,0.1086,0.8800,-0.0508,-0.0345,-0.1709,-0.9618,-2.0200,-1.2291,
0.411982,0.3154,0.1086,0.8800,-0.1957,-0.0674,-0.5460,-0.9618,-2.0200,-1.2291,
0.413165,0.3154,0.1086,0.8800,-0.1957,-0.0674,-0.5460,-1.1396,-2.1789,-1.5767,
0.421108,0.3154,0.1086,0.8800,-0.1957,-0.0674,-0.5460,-1.3155,-2.3395,-1.9060,
0.431418,0.1581,-0.0064,1.0062,-0.1957,-0.0674,-0.5460,-1.3155,-2.3395,-1.9060,
0.432378,0.1581,-0.0064,1.0062,0.0272,-0.0011,0.1729,-1.3155,-2.3395,-1.9060,
0.433109,0.1581,-0.0064,1.0062,0.0272,-0.0011,0.1729,-1.4267,-2.3768,-2.1314,
0.441157,0.1581,-0.0064,1.0062,0.0272,-0.0011,0.1729,-1.4230,-2.1813,-2.1668,
0.450808,-0.1980,0.0018,1.1631,0.0272,-0.0011,0.1729,-1.4230,-2.1813,-2.1668,
0.451680,-0.1980,0.0018,1.1631,-0.2947,0.0027,1.7312,-1.4230,-2.1813,-2.1668,
0.452480,-0.1980,0.0018,1.1631,-0.2947,0.0027,1.7312,-1.2514,-1.8740,-1.9286,
0.461452,-0.1980,0.0018,1.1631,-0.2947,0.0027,1.7312,-0.9117,-1.5088,-1.4429,
0.470953,0.0143,0.0746,1.0811,-0.2947,0.0027,1.7312,-0.9117,-1.5088,-1.4429,
0.471827,0.0143,0.0746,1.0811,0.0107,0.0560,0.8118,-0.9117,-1.5088,-1.4429,
0.472406,0.0143,0.0746,1.0811,0.0107,0.0560,0.8118,-0.4573,-1.1722,-0.8400,
0.481555,0.0143,0.0746,1.0811,0.0107,0.0560,0.8118,0.0162,-1.0457,-0.2890,
0.490803,0.3426,0.1557,0.8811,0.0107,0.0560,0.8118,0.0162,-1.0457,-0.2890,
0.491637,0.3426,0.1557,0.8811,-0.1492,-0.0678,-0.3836,0.0162,-1.0457,-0.2890,
0.492416,0.3426,0.1557,0.8811,-0.1492,-0.0678,-0.3836,0.4120,-0.8698,0.0910,
0.501218,0.3426,0.1557,0.8811,-0.1492,-0.0678,-0.3836,0.9490,0.2121,0.4434,
0.511075,-0.0186,-0.0186,1.1203,-0.1492,-0.0678,-0.3836,0.9490,0.2121,0.4434,
0.511850,-0.0186,-0.0186,1.1203,-0.0195,-0.0195,1.1747,0.9490,0.2121,0.4434,
0.512604,-0.0186,-0.0186,1.1203,-0.0195,-0.0195,1.1747,1.0369,0.3611,0.6456,
0.521298,-0.0186,-0.0186,1.1203,-0.0195,-0.0195,1.1747,0.7590,-0.2852,0.5955,
0.531102,0.5138,0.1412,0.8554,-0.0195,-0.0195,1.1747,0.7590,-0.2852,0.5955,
0.532029,0.5138,0.1412,0.8554,0.0356,0.0098,0.0593,0.7590,-0.2852,0.5955,
0.533134,0.5138,0.1412,0.8554,0.0356,0.0098,0.0593,0.1927,-1.4715,0.2321,
0.541329,0.5138,0.1412,0.8554,0.0356,0.0098,0.0593,-0.1298,-2.1123,0.0195,
0.550986,0.2271,-0.0829,1.0889,0.0356,0.0098,0.0593,-0.1298,-2.1123,0.0195,
0.551943,0.2271,-0.0829,1.0889,0.2289,-0.0836,1.0974,-0.1298,-2.1123,0.0195,
0.552637,0.2271,-0.0829,1.0889,0.2289,-0.0836,1.0974,-0.0993,-2.2400,0.1276,
0.561369,0.2271,-0.0829,1.0889,0.2289,-0.0836,1.0974,0.0766,-2.1996,0.3213,
0.570854,0.3960,-0.1473,1.0956,0.2289,-0.0836,1.0974,0.0766,-2.1996,0.3213,
0.571795,0.3960,-0.1473,1.0956,0.5737,-0.2134,1.5870,0.0766,-2.1996,0.3213,
0.572352,0.3960,-0.1473,1.0956,0.5737,-0.2134,1.5870,0.2941,-2.2528,0.3677,
0.583909,0.3960,-0.1473,1.0956,0.5737,-0.2134,1.5870,0.4719,-2.4073,0.2186,
0.592062,0.3849,-0.1533,0.8884,0.5737,-0.2134,1.5870,0.4719,-2.4073,0.2186,
0.594089,0.3849,-0.1533,0.8884,-0.0785,0.0313,-0.1812,0.4719,-2.4073,0.2186,
0.595722,0.3849,-0.1533,0.8884,-0.0785,0.0313,-0.1812,0.5348,-2.4263,-0.0599,
0.602400,0.3849,-0.1533,0.8884,-0.0785,0.0313,-0.1812,0.4645,-2.2742,-0.3672,
0.611911,0.1743,-0.2184,0.6795,-0.0785,0.0313,-0.1812,0.4645,-2.2742,-0.3672,
0.614382,0.1743,-0.2184,0.6795,-0.6183,0.7747,-2.4103,0.4645,-2.2742,-0.3672,
0.616310,0.1743,-0.2184,0.6795,-0.6183,0.7747,-2.4103,0.2795,-2.0738,-0.5975,
0.621899,0.1743,-0.2184,0.6795,-0.6183,0.7747,-2.4103,0.0162,-1.7665,-0.7050,
0.633720,-0.2472,-0.2610,0.7672,-0.6183,0.7747,-2.4103,0.0162,-1.7665,-0.7050,
0.636246,-0.2472,-0.2610,0.7672,0.4386,0.4631,-1.3610,0.0162,-1.7665,-0.7050,
0.638798,-0.2472,-0.2610,0.7672,0.4386,0.4631,-1.3610,-0.2190,-1.1825,-0.5511,
0.642037,-0.2472,-0.2610,0.7672,0.4386,0.4631,-1.3610,-0.3265,-0.4825,-0.1674,
0.653522,0.1653,-0.0666,0.7594,0.4386,0.4631,-1.3610,-0.3265,-0.4825,-0.1674,
0.656169,0.1653,-0.0666,0.7594,-0.4581,0.1845,-2.1050,-0.3265,-0.4825,-0.1674,
0.658672,0.1653,-0.0666,0.7594,-0.4581,0.1845,-2.1050,-0.3803,0.1204,0.1136,
0.661793,0.1653,-0.0666,0.7594,-0.4581,0.1845,-2.1050,-0.4609,0.5126,0.2082,
0.671800,0.4330,-0.0717,0.7373,-0.4581,0.1845,-2.1050,-0.4609,0.5126,0.2082,
0.674031,0.4330,-0.0717,0.7373,-0.7053,0.1168,-1.2008,-0.4609,0.5126,0.2082,
0.676320,0.4330,-0.0717,0.7373,-0.7053,0.1168,-1.2008,-0.5501,0.6311,0.1020,
0.682566,0.4330,-0.0717,0.7373,-0.7053,0.1168,-1.2008,-0.7663,0.5761,-0.2682,
0.691644,0.1837,-0.3998,0.5326,-0.7053,0.1168,-1.2008,-0.7663,0.5761,-0.2682,
0.693794,0.1837,-0.3998,0.5326,-0.8075,1.7573,-2.3410,-0.7663,0.5761,-0.2682,
0.695289,0.1837,-0.3998,0.5326,-0.8075,1.7573,-2.3410,-0.8885,0.6861,-0.3544,
0.702382,0.1837,-0.3998,0.5326,-0.8075,1.7573,-2.3410,-1.0962,0.6250,-0.3085,
0.711174,0.1159,-0.4613,0.2911,-0.8075,1.7573,-2.3410,-1.0962,0.6250,-0.3085,
0.712310,0.1159,-0.4613,0.2911,-0.9027,3.5918,-2.2667,-1.0962,0.6250,-0.3085,
0.713549,0.1159,-0.4613,0.2911,-0.9027,3.5918,-2.2667,-1.3870,0.4973,-0.1833,
0.721240,0.1159,-0.4613,0.2911,-0.9027,3.5918,-2.2667,-1.7285,0.3275,0.0323,
0.733388,0.1774,-0.4981,0.1225,-0.9027,3.5918,-2.2667,-1.7285,0.3275,0.0323,
0.735005,0.1774,-0.4981,0.1225,-1.4663,4.1183,-1.0129,-1.7285,0.3275,0.0323,
0.736387,0.1774,-0.4981,0.1225,-1.4663,4.1183,-1.0129,-2.1359,-0.0005,0.2773,
0.741021,0.1774,-0.4981,0.1225,-1.4663,4.1183,-1.0129,-2.5898,-0.4349,0.5326,
0.750995,0.3563,-0.6732,0.0288,-1.4663,4.1183,-1.0129,-2.5898,-0.4349,0.5326,
0.752011,0.3563,-0.6732,0.0288,-1.0925,2.0640,-0.0884,-2.5898,-0.4349,0.5326,
0.752827,0.3563,-0.6732,0.0288,-1.0925,2.0640,-0.0884,-3.0644,-0.9810,0.7904,
0.761207,0.3563,-0.6732,0.0288,-1.0925,2.0640,-0.0884,-3.5354,-1.6395,1.0121,
0.770946,0.5338,-0.8215,0.1688,-1.0925,2.0640,-0.0884,-3.5354,-1.6395,1.0121,
0.772299,0.5338,-0.8215,0.1688,-0.0345,0.0531,-0.0109,-3.5354,-1.6395,1.0121,
0.773082,0.5338,-0.8215,0.1688,-0.0345,0.0531,-0.0109,-3.9502,-2.3041,1.1814,
0.783867,0.5338,-0.8215,0.1688,-0.0345,0.0531,-0.0109,-4.2110,-2.8814,1.3536,
0.791211,0.5035,-0.8411,0.4438,-0.0345,0.0531,-0.0109,-4.2110,-2.8814,1.3536,
0.792448,0.5035,-0.8411,0.4438,0.3459,-0.5778,0.3048,-4.2110,-2.8814,1.3536,
0.793526,0.5035,-0.8411,0.4438,0.3459,-0.5778,0.3048,-4.2868,-3.3951,1.5925,
0.802747,0.5035,-0.8411,0.4438,0.3459,-0.5778,0.3048,-4.2263,-3.7647,1.9016,
0.811328,0.6618,-0.7528,0.6612,0.3459,-0.5778,0.3048,-4.2263,-3.7647,1.9016,
0.812921,0.6618,-0.7528,0.6612,1.0810,-1.2297,1.0800,-4.2263,-3.7647,1.9016,
0.814382,0.6618,-0.7528,0.6612,1.0810,-1.2297,1.0800,-4.1072,-3.9663,2.2186,
0.821272,0.6618,-0.7528,0.6612,1.0810,-1.2297,1.0800,-3.9917,-3.9864,2.4703,
0.832387,1.0327,-0.7345,0.6086,1.0810,-1.2297,1.0800,-3.9917,-3.9864,2.4703,
0.833864,1.0327,-0.7345,0.6086,2.9165,-2.0744,1.7187,-3.9917,-3.9864,2.4703,
0.835898,1.0327,-0.7345,0.6086,2.9165,-2.0744,1.7187,-3.9618,-3.9162,2.6059,
0.842197,1.0327,-0.7345,0.6086,2.9165,-2.0744,1.7187,-4.0491,-3.7244,2.6004,
0.851173,1.2455,-0.7963,0.3854,2.9165,-2.0744,1.7187,-4.0491,-3.7244,2.6004,
0.852382,1.2455,-0.7963,0.3854,4.2106,-2.6921,1.3029,-4.0491,-3.7244,2.6004,
0.853322,1.2455,-0.7963,0.3854,4.2106,-2.6921,1.3029,-4.2385,-3.4757,2.4935,
0.861142,1.2455,-0.7963,0.3854,4.2106,-2.6921,1.3029,-4.5323,-3.3890,2.3939,
0.871762,1.5595,-0.8623,0.3362,4.2106,-2.6921,1.3029,-4.5323,-3.3890,2.3939,
0.872840,1.5595,-0.8623,0.3362,6.8499,-3.7874,1.4765,-4.5323,-3.3890,2.3939,
0.873760,1.5595,-0.8623,0.3362,6.8499,-3.7874,1.4765,-5.1627,-3.6877,2.3310,
0.881669,1.5595,-0.8623,0.3362,6.8499,-3.7874,1.4765,-5.3472,-3.9846,2.3328,
0.891029,1.8329,-0.7911,0.5735,6.8499,-3.7874,1.4765,-5.3472,-3.9846,2.3328,
0.891987,1.8329,-0.7911,0.5735,9.3087,-4.0175,2.9126,-5.3472,-3.9846,2.3328,
0.892894,1.8329,-0.7911,0.5735,9.3087,-4.0175,2.9126,-5.3961,-4.3157,2.3115,
0.901224,1.8329,-0.7911,0.5735,9.3087,-4.0175,2.9126,-5.2745,-4.5606,2.2241,
0.910853,1.9437,-0.4851,1.0057,9.3087,-4.0175,2.9126,-5.2745,-4.5606,2.2241,
0.911773,1.9437,-0.4851,1.0057,10.5448,-2.6316,5.4560,-5.2745,-4.5606,2.2241,
0.912569,1.9437,-0.4851,1.0057,10.5448,-2.6316,5.4560,-5.0009,-4.5124,2.0415,
0.920977,1.9437,-0.4851,1.0057,10.5448,-2.6316,5.4560,-4.5922,-3.9632,1.7134,
0.931967,1.7292,-0.1760,1.2957,10.5448,-2.6316,5.4560,-4.5922,-3.9632,1.7134,
0.932945,1.7292,-0.1760,1.2957,9.1241,-0.9288,6.8366,-4.5922,-3.9632,1.7134,
0.933921,1.7292,-0.1760,1.2957,9.1241,-0.9288,6.8366,-4.0540,-3.1013,1.2803,
0.941076,1.7292,-0.1760,1.2957,9.1241,-0.9288,6.8366,-3.4047,-2.3133,0.8887,
0.950837,1.5518,-0.2430,1.1443,9.1241,-0.9288,6.8366,-3.4047,-2.3133,0.8887,
0.951819,1.5518,-0.2430,1.1443,7.3771,-1.1550,5.4399,-3.4047,-2.3133,0.8887,
0.952555,1.5518,-0.2430,1.1443,7.3771,-1.1550,5.4399,-2.7193,-1.7397,0.6169,
0.961104,1.5518,-0.2430,1.1443,7.3771,-1.1550,5.4399,-2.0938,-1.3951,0.4813,
0.970954,1.5597,-0.3906,0.6922,7.3771,-1.1550,5.4399,-2.0938,-1.3951,0.4813,
0.971901,1.5597,-0.3906,0.6922,6.5472,-1.6399,2.9059,-2.0938,-1.3951,0.4813,
0.972603,1.5597,-0.3906,0.6922,6.5472,-1.6399,2.9059,-1.6350,-1.2045,0.4587,
0.981831,1.5597,-0.3906,0.6922,6.5472,-1.6399,2.9059,-1.4090,-1.1752,0.4709,
0.991180,1.6560,-0.4153,0.2763,6.5472,-1.6399,2.9059,-1.4090,-1.1752,0.4709,
0.992170,1.6560,-0.4153,0.2763,6.8392,-1.7152,1.1411,-1.4090,-1.1752,0.4709,
0.992926,1.6560,-0.4153,0.2763,6.8392,-1.7152,1.1411,-1.4133,-1.3041,0.4477,
1.002160,1.6560,-0.4153,0.2763,6.8392,-1.7152,1.1411,-1.5812,-1.5399,0.3377,
1.011698,1.7293,-0.3043,0.2437,6.8392,-1.7152,1.1411,-1.5812,-1.5399,0.3377,
1.013558,1.7293,-0.3043,0.2437,7.3808,-1.2987,1.0401,-1.5812,-1.5399,0.3377,
1.015436,1.7293,-0.3043,0.2437,7.3808,-1.2987,1.0401,-1.7981,-1.7794,0.0629,
1.022269,1.7293,-0.3043,0.2437,7.3808,-1.2987,1.0401,-1.9197,-2.0274,-0.3293,
1.034059,1.4811,-0.1882,0.4372,7.3808,-1.2987,1.0401,-1.9197,-2.0274,-0.3293,
1.035955,1.4811,-0.1882,0.4372,5.1785,-0.6581,1.5286,-1.9197,-2.0274,-0.3293,
1.038156,1.4811,-0.1882,0.4372,5.1785,-0.6581,1.5286,-1.8622,-2.2662,-0.7221,
1.042026,1.4811,-0.1882,0.4372,5.1785,-0.6581,1.5286,-1.6289,-2.4593,-1.0416,
1.052065,1.1860,-0.1812,0.3622,5.1785,-0.6581,1.5286,-1.6289,-2.4593,-1.0416,
1.054278,1.1860,-0.1812,0.3622,2.3421,-0.3577,0.7153,-1.6289,-2.4593,-1.0416,
1.056508,1.1860,-0.1812,0.3622,2.3421,-0.3577,0.7153,-1.0290,-2.7372,-1.4008,
1.062354,1.1860,-0.1812,0.3622,2.3421,-0.3577,0.7153,-0.8775,-2.8948,-1.4570,
1.072613,0.7941,-0.3985,-0.0619,2.3421,-0.3577,0.7153,-0.8775,-2.8948,-1.4570,
1.074806,0.7941,-0.3985,-0.0619,-0.9616,0.4825,0.0750,-0.8775,-2.8948,-1.4570,
1.076852,0.7941,-0.3985,-0.0619,-0.9616,0.4825,0.0750,-0.8781,-3.0353,-1.4130,
1.084270,0.7941,-0.3985,-0.0619,-0.9616,0.4825,0.0750,-1.0046,-3.0726,-1.2908,
1.092004,0.6572,-0.5045,-0.1202,-0.9616,0.4825,0.0750,-1.0046,-3.0726,-1.2908,
1.094310,0.6572,-0.5045,-0.1202,-1.2579,0.9656,0.2301,-1.0046,-3.0726,-1.2908,
1.096273,0.6572,-0.5045,-0.1202,-1.2579,0.9656,0.2301,-1.2056,-2.9602,-1.1534,
1.102104,0.6572,-0.5045,-0.1202,-1.2579,0.9656,0.2301,-1.3815,-2.7244,-1.0611,
1.111736,-0.2343,-1.5560,0.6004,-1.2579,0.9656,0.2301,-1.3815,-2.7244,-1.0611,
1.113956,-0.2343,-1.5560,0.6004,-9.9366,-9.3985,7.7728,-1.3815,-2.7244,-1.0611,
1.116272,-0.2343,-1.5560,0.6004,-9.9366,-9.3985,7.7728,-1.2563,-2.4715,-0.8785,
1.122348,-0.2343,-1.5560,0.6004,-9.9366,-9.3985,7.7728,-0.6985,-2.1398,-0.4833,
1.135389,0.7564,-0.3342,-0.5179,-9.9366,-9.3985,7.7728,-0.6985,-2.1398,-0.4833,
1.138242,0.7564,-0.3342,-0.5179,-0.1530,2.5236,-2.7719,-0.6985,-2.1398,-0.4833,
1.141571,0.7564,-0.3342,-0.5179,-0.1530,2.5236,-2.7719,-0.5440,-1.2400,-0.6433,
1.143753,0.7564,-0.3342,-0.5179,-0.1530,2.5236,-2.7719,-1.2477,-0.3756,-1.6860,
1.151787,0.5516,-0.4614,0.1964,-0.1530,2.5236,-2.7719,-1.2477,-0.3756,-1.6860,
1.154030,0.5516,-0.4614,0.1964,-2.2175,1.1460,4.3602,-1.2477,-0.3756,-1.6860,
1.156417,0.5516,-0.4614,0.1964,-2.2175,1.1460,4.3602,-1.8085,-0.1398,-2.5352,
1.161832,0.5516,-0.4614,0.1964,-2.2175,1.1460,4.3602,-2.0528,0.2554,-2.6512,
1.172031,0.5073,-0.3814,-0.0785,-2.2175,1.1460,4.3602,-2.0528,0.2554,-2.6512,
1.174256,0.5073,-0.3814,-0.0785,-2.9049,1.5197,1.7788,-2.0528,0.2554,-2.6512,
1.176169,0.5073,-0.3814,-0.0785,-2.9049,1.5197,1.7788,-2.2391,0.7539,-2.3189,
1.184295,0.5073,-0.3814,-0.0785,-2.9049,1.5197,1.7788,-2.3693,1.0789,-1.8418,
1.191605,0.7595,-0.6033,-0.4201,-2.9049,1.5197,1.7788,-2.3693,1.0789,-1.8418,
1.193809,0.7595,-0.6033,-0.4201,-0.6528,-1.0253,-1.5218,-2.3693,1.0789,-1.8418,
1.195739,0.7595,-0.6033,-0.4201,-0.6528,-1.0253,-1.5218,-2.5825,1.1998,-1.4374,
1.202130,0.7595,-0.6033,-0.4201,-0.6528,-1.0253,-1.5218,-2.8940,1.2389,-0.9750,
1.212330,0.7393,-0.4923,-0.5752,-0.6528,-1.0253,-1.5218,-2.8940,1.2389,-0.9750,
1.214918,0.7393,-0.4923,-0.5752,-0.9881,-0.2104,-2.9725,-2.8940,1.2389,-0.9750,
1.217190,0.7393,-0.4923,-0.5752,-0.9881,-0.2104,-2.9725,-3.2275,1.2004,-0.3641,
1.222396,0.7393,-0.4923,-0.5752,-0.9881,-0.2104,-2.9725,-3.4786,1.1106,0.1643,
1.234594,1.0850,-0.4183,-0.2500,-0.9881,-0.2104,-2.9725,-3.4786,1.1106,0.1643,
1.236992,1.0850,-0.4183,-0.2500,2.3393,0.3401,0.3218,-3.4786,1.1106,0.1643,
1.239312,1.0850,-0.4183,-0.2500,2.3393,0.3401,0.3218,-3.4896,0.9982,0.5063,
1.242167,1.0850,-0.4183,-0.2500,2.3393,0.3401,0.3218,-2.3748,1.1253,0.2241,
1.252227,1.1702,-0.6093,-0.5001,2.3393,0.3401,0.3218,-2.3748,1.1253,0.2241,
1.254770,1.1702,-0.6093,-0.5001,3.1535,-1.6257,-2.0456,-2.3748,1.1253,0.2241,
1.257135,1.1702,-0.6093,-0.5001,3.1535,-1.6257,-2.0456,-1.7199,1.4326,-0.1742,
1.262004,1.1702,-0.6093,-0.5001,3.1535,-1.6257,-2.0456,-1.2783,1.2469,-0.3098,
1.271974,0.8232,-0.5227,-0.5370,3.1535,-1.6257,-2.0456,-1.2783,1.2469,-0.3098,
1.274188,0.8232,-0.5227,-0.5370,-0.3274,-0.8832,-2.4822,-1.2783,1.2469,-0.3098,
1.276098,0.8232,-0.5227,-0.5370,-0.3274,-0.8832,-2.4822,-1.0919,0.6745,-0.0544,
1.284402,0.8232,-0.5227,-0.5370,-0.3274,-0.8832,-2.4822,-0.9789,0.2285,0.2651,
1.291685,1.0748,-0.5049,-0.4727,-0.3274,-0.8832,-2.4822,-0.9789,0.2285,0.2651,
1.293917,1.0748,-0.5049,-0.4727,2.1329,-0.7393,-1.8234,-0.9789,0.2285,0.2651,
1.295805,1.0748,-0.5049,-0.4727,2.1329,-0.7393,-1.8234,-0.8262,0.0044,0.4007,
1.302154,1.0748,-0.5049,-0.4727,2.1329,-0.7393,-1.8234,-0.6967,-0.1233,0.3720,
1.312380,0.9947,-0.4058,-0.3891,2.1329,-0.7393,-1.8234,-0.6967,-0.1233,0.3720,
1.315075,0.9947,-0.4058,-0.3891,1.3875,0.2538,-0.9189,-0.6967,-0.1233,0.3720,
1.317303,0.9947,-0.4058,-0.3891,1.3875,0.2538,-0.9189,-0.6393,-0.1899,0.2718,
1.323596,0.9947,-0.4058,-0.3891,1.3875,0.2538,-0.9189,-0.5892,-0.2223,0.2461,
1.334904,0.8495,-0.3772,-0.2555,1.3875,0.2538,-0.9189,-0.5892,-0.2223,0.2461,
1.337275,0.8495,-0.3772,-0.2555,-0.0011,0.5404,0.4790,-0.5892,-0.2223,0.2461,
1.340788,0.8495,-0.3772,-0.2555,-0.0011,0.5404,0.4790,-0.4939,-0.2101,0.2571,
1.343304,0.8495,-0.3772,-0.2555,-0.0011,0.5404,0.4790,-0.3901,-0.1416,0.2321,
1.352061,0.8140,-0.3651,-0.2312,-0.0011,0.5404,0.4790,-0.3901,-0.1416,0.2321,
1.354335,0.8140,-0.3651,-0.2312,-0.3174,0.6718,0.7842,-0.3901,-0.1416,0.2321,
1.356483,0.8140,-0.3651,-0.2312,-0.3174,0.6718,0.7842,-0.2948,-0.0152,0.1838,
1.361638,0.8140,-0.3651,-0.2312,-0.3174,0.6718,0.7842,-0.2025,0.0648,0.1343,
1.371744,0.8275,-0.4316,-0.3450,-0.3174,0.6718,0.7842,-0.2025,0.0648,0.1343,
1.373595,0.8275,-0.4316,-0.3450,-0.1739,0.0309,-0.3126,-0.2025,0.0648,0.1343,
1.375187,0.8275,-0.4316,-0.3450,-0.1739,0.0309,-0.3126,-0.1457,0.0410,0.0897,
1.384104,0.8275,-0.4316,-0.3450,-0.1739,0.0309,-0.3126,-0.1139,-0.0598,0.0470,
1.391713,0.7791,-0.4213,-0.4048,-0.1739,0.0309,-0.3126,-0.1139,-0.0598,0.0470,
1.393442,0.7791,-0.4213,-0.4048,-0.6406,0.1338,-0.8829,-0.1139,-0.0598,0.0470,
1.395070,0.7791,-0.4213,-0.4048,-0.6406,0.1338,-0.8829,-0.0553,-0.2455,0.0103,
1.402095,0.7791,-0.4213,-0.4048,-0.6406,0.1338,-0.8829,0.0113,-0.3750,-0.0227,
1.411735,0.7442,-0.3845,-0.3106,-0.6406,0.1338,-0.8829,0.0113,-0.3750,-0.0227,
1.414146,0.7442,-0.3845,-0.3106,-0.9635,0.4910,0.0960,0.0113,-0.3750,-0.0227,
1.416015,0.7442,-0.3845,-0.3106,-0.9635,0.4910,0.0960,0.0864,-0.3958,-0.0923,
1.422032,0.7442,-0.3845,-0.3106,-0.9635,0.4910,0.0960,0.3497,-0.3512,-0.0477,
1.434510,0.4892,-0.4691,0.0564,-0.9635,0.4910,0.0960,0.3497,-0.3512,-0.0477,
1.436536,0.4892,-0.4691,0.0564,-3.4426,-0.3225,3.7237,0.3497,-0.3512,-0.0477,
1.438409,0.4892,-0.4691,0.0564,-3.4426,-0.3225,3.7237,0.6478,-0.3768,0.1398,
1.441937,0.4892,-0.4691,0.0564,-3.4426,-0.3225,3.7237,1.1206,-0.4355,0.3927,
1.451876,0.5846,-0.4270,-0.1823,-3.4426,-0.3225,3.7237,1.1206,-0.4355,0.3927,
1.453993,0.5846,-0.4270,-0.1823,-2.4562,0.2040,1.3610,1.1206,-0.4355,0.3927,
1.456066,0.5846,-0.4270,-0.1823,-2.4562,0.2040,1.3610,1.4676,-0.3652,0.5858,
1.461716,0.5846,-0.4270,-0.1823,-2.4562,0.2040,1.3610,1.4969,-0.1813,0.6664,
1.472089,0.7037,-0.5041,-0.0719,-2.4562,0.2040,1.3610,1.4969,-0.1813,0.6664,
1.474440,0.7037,-0.5041,-0.0719,-1.2150,-0.3370,2.3251,1.4969,-0.1813,0.6664,
1.476379,0.7037,-0.5041,-0.0719,-1.2150,-0.3370,2.3251,1.3888,-0.0353,0.6493,
1.484549,0.7037,-0.5041,-0.0719,-1.2150,-0.3370,2.3251,1.4853,-0.0732,0.6585,
1.491695,0.6797,-0.3830,0.0015,-1.2150,-0.3370,2.3251,1.4853,-0.0732,0.6585,
1.493740,0.6797,-0.3830,0.0015,-1.3945,1.0548,2.8728,1.4853,-0.0732,0.6585,
1.495493,0.6797,-0.3830,0.0015,-1.3945,1.0548,2.8728,1.7852,-0.1453,0.7782,
1.502278,0.6797,-0.3830,0.0015,-1.3945,1.0548,2.8728,1.9502,-0.0708,0.8576,
1.511643,0.9423,-0.4219,-0.3294,-1.3945,1.0548,2.8728,1.9502,-0.0708,0.8576,
1.514223,0.9423,-0.4219,-0.3294,1.2570,0.9013,-0.5510,1.9502,-0.0708,0.8576,
1.516352,0.9423,-0.4219,-0.3294,1.2570,0.9013,-0.5510,1.9538,0.0990,0.7825,
1.521930,0.9423,-0.4219,-0.3294,1.2570,0.9013,-0.5510,1.8622,0.3464,0.6352,
1.534986,1.1502,-0.3756,-0.6339,1.2570,0.9013,-0.5510,1.8622,0.3464,0.6352,
1.537019,1.1502,-0.3756,-0.6339,3.3360,1.5261,-3.7466,1.8622,0.3464,0.6352,
1.539706,1.1502,-0.3756,-0.6339,3.3360,1.5261,-3.7466,1.6899,0.5749,0.4947,
1.542063,1.1502,-0.3756,-0.6339,3.3360,1.5261,-3.7466,1.4364,0.6763,0.3652,
1.551723,1.2995,-0.3210,-0.8157,3.3360,1.5261,-3.7466,1.4364,0.6763,0.3652,
1.553770,1.2995,-0.3210,-0.8157,4.7845,2.1281,-5.7251,1.4364,0.6763,0.3652,
1.555648,1.2995,-0.3210,-0.8157,4.7845,2.1281,-5.7251,1.1334,0.6610,0.2596,
1.561392,1.2995,-0.3210,-0.8157,4.7845,2.1281,-5.7251,0.8170,0.6189,0.1392,
1.571469,1.5995,-0.1958,-0.8182,4.7845,2.1281,-5.7251,0.8170,0.6189,0.1392,
1.573038,1.5995,-0.1958,-0.8182,7.6732,3.3268,-5.8675,0.8170,0.6189,0.1392,
1.574216,1.5995,-0.1958,-0.8182,7.6732,3.3268,-5.8675,0.5018,0.5315,-0.0746,
1.583765,1.5995,-0.1958,-0.8182,7.6732,3.3268,-5.8675,0.2385,0.3581,-0.3947,
1.591587,1.6597,-0.0803,-0.6302,7.6732,3.3268,-5.8675,0.2385,0.3581,-0.3947,
1.592962,1.6597,-0.0803,-0.6302,8.1832,4.3587,-4.0826,0.2385,0.3581,-0.3947,
1.594228,1.6597,-0.0803,-0.6302,8.1832,4.3587,-4.0826,0.0779,0.0997,-0.7594,
1.601255,1.6597,-0.0803,-0.6302,8.1832,4.3587,-4.0826,0.0278,-0.2449,-1.0960,
1.611283,1.4795,-0.1801,-0.1333,8.1832,4.3587,-4.0826,0.0278,-0.2449,-1.0960,
1.612363,1.4795,-0.1801,-0.1333,6.2867,3.1541,0.8226,0.0278,-0.2449,-1.0960,
1.613156,1.4795,-0.1801,-0.1333,6.2867,3.1541,0.8226,0.1713,-1.0182,-1.7722,
1.621031,1.4795,-0.1801,-0.1333,6.2867,3.1541,0.8226,0.3900,-1.3243,-2.1069,
1.630959,0.9976,-0.4455,0.3202,6.2867,3.1541,0.8226,0.3900,-1.3243,-2.1069,
1.631997,0.9976,-0.4455,0.3202,1.3780,0.1549,5.4169,0.3900,-1.3243,-2.1069,
1.632900,0.9976,-0.4455,0.3202,1.3780,0.1549,5.4169,0.8085,-1.5704,-2.3220,
1.641294,0.9976,-0.4455,0.3202,1.3780,0.1549,5.4169,1.3790,-1.7684,-2.3892,
1.651017,0.4881,-0.4715,0.4236,1.3780,0.1549,5.4169,1.3790,-1.7684,-2.3892,
1.652084,0.4881,-0.4715,0.4236,-3.7810,-0.4858,6.5432,1.3790,-1.7684,-2.3892,
1.652870,0.4881,-0.4715,0.4236,-3.7810,-0.4858,6.5432,2.0302,-1.8795,-2.2743,
1.662236,0.4881,-0.4715,0.4236,-3.7810,-0.4858,6.5432,2.5293,-1.8258,-2.0733,
1.672017,0.2762,-0.4380,-0.0205,-3.7810,-0.4858,6.5432,2.5293,-1.8258,-2.0733,
1.674379,0.2762,-0.4380,-0.0205,-5.9597,-0.4117,2.2488,2.5293,-1.8258,-2.0733,
1.676321,0.2762,-0.4380,-0.0205,-5.9597,-0.4117,2.2488,2.6863,-1.5729,-1.8046,
1.684851,0.2762,-0.4380,-0.0205,-5.9597,-0.4117,2.2488,2.5348,-1.1380,-1.5822,
1.691553,0.2077,-0.2259,-0.2261,-5.9597,-0.4117,2.2488,2.5348,-1.1380,-1.5822,
1.693093,0.2077,-0.2259,-0.2261,-6.6943,1.5248,0.2323,2.5348,-1.1380,-1.5822,
1.695135,0.2077,-0.2259,-0.2261,-6.6943,1.5248,0.2323,2.3967,-0.7055,-1.4747,
1.702382,0.2077,-0.2259,-0.2261,-6.6943,1.5248,0.2323,2.0760,-0.0677,-1.1821,
1.711703,-0.0759,-0.4013,-0.1925,-6.6943,1.5248,0.2323,2.0760,-0.0677,-1.1821,
1.713783,-0.0759,-0.4013,-0.1925,-9.5189,-0.2350,0.4563,2.0760,-0.0677,-1.1821,
1.716255,-0.0759,-0.4013,-0.1925,-9.5189,-0.2350,0.4563,1.8365,0.6470,-0.6537,
1.721871,-0.0759,-0.4013,-0.1925,-9.5189,-0.2350,0.4563,1.7284,1.3318,-0.2224,
1.731599,0.1498,-0.4088,-0.3649,-9.5189,-0.2350,0.4563,1.7284,1.3318,-0.2224,
1.733823,0.1498,-0.4088,-0.3649,-7.3462,-0.2381,-1.5057,1.7284,1.3318,-0.2224,
1.735558,0.1498,-0.4088,-0.3649,-7.3462,-0.2381,-1.5057,1.6392,2.0385,0.0726,
1.741662,0.1498,-0.4088,-0.3649,-7.3462,-0.2381,-1.5057,1.5232,2.6665,0.3677,
1.751406,0.4069,-0.7675,-0.7946,-7.3462,-0.2381,-1.5057,1.5232,2.6665,0.3677,
1.753288,0.4069,-0.7675,-0.7946,-4.8039,-3.5163,-6.1020,1.5232,2.6665,0.3677,
1.755078,0.4069,-0.7675,-0.7946,-4.8039,-3.5163,-6.1020,1.3008,3.0898,0.6774,
1.761502,0.4069,-0.7675,-0.7946,-4.8039,-3.5163,-6.1020,0.9435,3.5095,0.8552,
1.771235,0.5966,-1.1305,-1.0600,-4.8039,-3.5163,-6.1020,0.9435,3.5095,0.8552,
1.772741,0.5966,-1.1305,-1.0600,-2.8732,-6.7598,-9.1728,0.9435,3.5095,0.8552,
1.774125,0.5966,-1.1305,-1.0600,-2.8732,-6.7598,-9.1728,0.5269,3.7868,1.0653,
1.783843,0.5966,-1.1305,-1.0600,-2.8732,-6.7598,-9.1728,0.2336,3.6891,1.3151,
1.791218,1.0065,-1.1016,-0.0010,-2.8732,-6.7598,-9.1728,0.2336,3.6891,1.3151,
1.792384,1.0065,-1.1016,-0.0010,1.2663,-6.1260,0.6575,0.2336,3.6891,1.3151,
1.793394,1.0065,-1.1016,-0.0010,1.2663,-6.1260,0.6575,0.4254,2.5462,1.7672,
1.801631,1.0065,-1.1016,-0.0010,1.2663,-6.1260,0.6575,1.9172,1.7997,1.6371,
1.811391,1.3670,-1.0608,0.2136,1.2663,-6.1260,0.6575,1.9172,1.7997,1.6371,
1.812518,1.3670,-1.0608,0.2136,5.0012,-5.3337,2.3433,1.9172,1.7997,1.6371,
1.813505,1.3670,-1.0608,0.2136,5.0012,-5.3337,2.3433,2.3656,0.7350,1.3115,
1.821171,1.3670,-1.0608,0.2136,5.0012,-5.3337,2.3433,2.3692,-0.3151,0.9822,
1.831333,0.7931,-1.0225,0.1209,5.0012,-5.3337,2.3433,2.3692,-0.3151,0.9822,
1.832797,0.7931,-1.0225,0.1209,-0.4479,-4.6740,1.2016,2.3692,-0.3151,0.9822,
1.834686,0.7931,-1.0225,0.1209,-0.4479,-4.6740,1.2016,2.0375,-1.0891,0.6468,
1.841035,0.7931,-1.0225,0.1209,-0.4479,-4.6740,1.2016,1.6386,-1.3267,0.4165,
1.851360,0.3946,-0.9100,0.0969,-0.4479,-4.6740,1.2016,1.6386,-1.3267,0.4165,
1.852643,0.3946,-0.9100,0.0969,-4.2245,-3.3775,0.9895,1.6386,-1.3267,0.4165,
1.853547,0.3946,-0.9100,0.0969,-4.2245,-3.3775,0.9895,1.3527,-1.1801,0.3775,
1.861004,0.3946,-0.9100,0.0969,-4.2245,-3.3775,0.9895,1.1652,-0.9779,0.5314,
1.870750,0.2938,-0.7906,0.0407,-4.2245,-3.3775,0.9895,1.1652,-0.9779,0.5314,
1.871716,0.2938,-0.7906,0.0407,-5.0762,-2.0137,0.4852,1.1652,-0.9779,0.5314,
1.872485,0.2938,-0.7906,0.0407,-5.0762,-2.0137,0.4852,0.9630,-0.6670,0.8338,
1.881189,0.2938,-0.7906,0.0407,-5.0762,-2.0137,0.4852,0.7700,-0.2107,1.2180,
1.890768,0.3211,-0.6474,-0.1669,-5.0762,-2.0137,0.4852,0.7700,-0.2107,1.2180,
1.891717,0.3211,-0.6474,-0.1669,-4.6018,-0.3349,-1.5508,0.7700,-0.2107,1.2180,
1.892532,0.3211,-0.6474,-0.1669,-4.6018,-0.3349,-1.5508,0.6136,0.1815,1.7452,
1.901227,0.3211,-0.6474,-0.1669,-4.6018,-0.3349,-1.5508,0.5220,-0.1789,2.4385,
1.910783,0.4801,-0.3742,-0.1689,-4.6018,-0.3349,-1.5508,0.5220,-0.1789,2.4385,
1.911440,0.4801,-0.3742,-0.1689,-2.7249,2.7340,-1.5955,0.5220,-0.1789,2.4385,
1.912243,0.4801,-0.3742,-0.1689,-2.7249,2.7340,-1.5955,0.5647,-1.2400,3.1019,
1.921107,0.4801,-0.3742,-0.1689,-2.7249,2.7340,-1.5955,0.7064,-2.3206,3.4697,
1.930962,0.5602,-0.2493,-0.1256,-2.7249,2.7340,-1.5955,0.7064,-2.3206,3.4697,
1.932169,0.5602,-0.2493,-0.1256,-1.4869,4.4432,-0.9651,0.7064,-2.3206,3.4697,
1.933215,0.5602,-0.2493,-0.1256,-1.4869,4.4432,-0.9651,0.8720,-3.2357,3.5747,
1.941415,0.5602,-0.2493,-0.1256,-1.4869,4.4432,-0.9651,1.0131,-3.9070,3.4623,
1.950975,0.8910,-0.1870,-0.4565,-1.4869,4.4432,-0.9651,1.0131,-3.9070,3.4623,
1.952201,0.8910,-0.1870,-0.4565,2.2316,5.4781,-3.7875,1.0131,-3.9070,3.4623,
1.953026,0.8910,-0.1870,-0.4565,2.2316,5.4781,-3.7875,1.0241,-4.4519,3.0592,
1.961061,0.8910,-0.1870,-0.4565,2.2316,5.4781,-3.7875,1.0076,-5.2753,2.5222,
1.970921,0.7978,-0.2807,0.0722,2.2316,5.4781,-3.7875,1.0076,-5.2753,2.5222,
1.971746,0.7978,-0.2807,0.0722,1.7204,4.8412,1.8674,1.0076,-5.2753,2.5222,
1.972465,0.7978,-0.2807,0.0722,1.7204,4.8412,1.8674,1.2501,-5.8832,1.9993,
1.981255,0.7978,-0.2807,0.0722,1.7204,4.8412,1.8674,2.5702,-3.8148,1.0604,
1.990899,0.4470,-0.7009,0.1568,1.7204,4.8412,1.8674,2.5702,-3.8148,1.0604,
1.991870,0.4470,-0.7009,0.1568,-1.4353,0.9009,2.9438,2.5702,-3.8148,1.0604,
1.992598,0.4470,-0.7009,0.1568,-1.4353,0.9009,2.9438,3.2764,-2.2296,0.7837,
2.001324,0.4470,-0.7009,0.1568,-1.4353,0.9009,2.9438,3.6465,-0.4196,1.3249,
2.010882,0.1513,-1.1076,-0.1333,-1.4353,0.9009,2.9438,3.6465,-0.4196,1.3249,
2.011667,0.1513,-1.1076,-0.1333,-4.1326,-2.8787,-0.2932,3.6465,-0.4196,1.3249,
2.012397,0.1513,-1.1076,-0.1333,-4.1326,-2.8787,-0.2932,3.5262,1.6677,2.8270,
2.021166,0.1513,-1.1076,-0.1333,-4.1326,-2.8787,-0.2932,3.2586,2.9041,4.3133,
2.030770,0.1779,-1.0157,0.2919,-4.1326,-2.8787,-0.2932,3.2586,2.9041,4.3133,
2.031889,0.1779,-1.0157,0.2919,-3.3043,-1.5483,3.0654,3.2586,2.9041,4.3133,
2.032842,0.1779,-1.0157,0.2919,-3.3043,-1.5483,3.0654,3.0980,3.3079,5.6449,
2.041233,0.1779,-1.0157,0.2919,-3.3043,-1.5483,3.0654,3.2336,3.1564,6.6755,
2.051585,0.4339,-1.1212,0.0062,-3.3043,-1.5483,3.0654,3.2336,3.1564,6.6755,
2.053377,0.4339,-1.1212,0.0062,0.2871,-2.0413,-0.5730,3.2336,3.1564,6.6755,
2.055025,0.4339,-1.1212,0.0062,0.2871,-2.0413,-0.5730,3.1774,1.4637,7.1953,
2.061809,0.4339,-1.1212,0.0062,0.2871,-2.0413,-0.5730,2.2031,-1.7445,7.1446,
2.071565,0.4005,-0.7260,-0.4490,0.2871,-2.0413,-0.5730,2.2031,-1.7445,7.1446,
2.073298,0.4005,-0.7260,-0.4490,1.1954,2.2473,-5.4386,2.2031,-1.7445,7.1446,
2.074786,0.4005,-0.7260,-0.4490,1.1954,2.2473,-5.4386,1.0094,-3.8710,6.8172,
2.081730,0.4005,-0.7260,-0.4490,1.1954,2.2473,-5.4386,0.0058,-4.3945,6.3762,
2.091353,1.1276,-1.9963,-0.3260,1.1954,2.2473,-5.4386,0.0058,-4.3945,6.3762,
2.093193,1.1276,-1.9963,-0.3260,9.3665,-9.9426,-4.0662,0.0058,-4.3945,6.3762,
2.094657,1.1276,-1.9963,-0.3260,9.3665,-9.9426,-4.0662,-0.9246,-3.7274,5.4531,
2.102200,1.1276,-1.9963,-0.3260,9.3665,-9.9426,-4.0662,-1.7651,-2.4275,4.0756,
2.111885,0.6182,-2.2614,-0.2422,9.3665,-9.9426,-4.0662,-1.7651,-2.4275,4.0756,
2.114307,0.6182,-2.2614,-0.2422,5.2515,-12.4031,-2.9065,-1.7651,-2.4275,4.0756,
2.118376,0.6182,-2.2614,-0.2422,5.2515,-12.4031,-2.9065,-2.3815,-1.1209,2.8221,
2.157239,0.6182,-2.2614,-0.2422,5.2515,-12.4031,-2.9065,-2.5177,0.3941,1.5583,
2.159958,0.1355,-1.7507,0.2435,5.2515,-12.4031,-2.9065,-2.5177,0.3941,1.5583,
2.162654,0.1355,-1.7507,0.2435,0.9449,-7.3578,2.3381,-2.5177,0.3941,1.5583,
2.164767,0.1355,-1.7507,0.2435,0.9449,-7.3578,2.3381,-2.0712,1.7728,0.3994,
2.166788,0.1355,-1.7507,0.2435,0.9449,-7.3578,2.3381,-1.0229,2.0379,-0.0172,
2.168984,0.0324,-0.9802,0.0089,0.9449,-7.3578,2.3381,-1.0229,2.0379,-0.0172,
2.170952,0.0324,-0.9802,0.0089,-0.0955,0.1893,0.3329,-1.0229,2.0379,-0.0172,
2.172996,0.0324,-0.9802,0.0089,-0.0955,0.1893,0.3329,0.1286,1.2792,0.6071,
2.174698,0.0324,-0.9802,0.0089,-0.0955,0.1893,0.3329,0.2074,2.2542,1.0140,
2.176618,-0.2023,-0.6314,-0.2927,-0.0955,0.1893,0.3329,0.2074,2.2542,1.0140,
2.178728,-0.2023,-0.6314,-0.2927,-2.2843,3.6116,-2.6429,0.2074,2.2542,1.0140,
2.180255,-0.2023,-0.6314,-0.2927,-2.2843,3.6116,-2.6429,-0.1420,2.3831,0.9223,
2.182003,-0.2023,-0.6314,-0.2927,-2.2843,3.6116,-2.6429,-0.5324,2.0996,0.9254,
2.195787,-0.3148,-0.7214,-0.0768,-2.2843,3.6116,-2.6429,-0.5324,2.0996,0.9254,
2.196955,-0.3148,-0.7214,-0.0768,-3.2343,2.7309,-0.4562,-0.5324,2.0996,0.9254,
2.198339,-0.3148,-0.7214,-0.0768,-3.2343,2.7309,-0.4562,-0.8171,1.5657,0.8692,
2.201013,-0.3148,-0.7214,-0.0768,-3.2343,2.7309,-0.4562,-0.8232,1.0166,0.6297,
2.211096,-0.2878,-0.9649,0.2646,-3.2343,2.7309,-0.4562,-0.8232,1.0166,0.6297,
2.212006,-0.2878,-0.9649,0.2646,-2.8308,0.3406,3.0381,-0.8232,1.0166,0.6297,
2.212782,-0.2878,-0.9649,0.2646,-2.8308,0.3406,3.0381,-0.5703,0.6953,0.2712,
2.221098,-0.2878,-0.9649,0.2646,-2.8308,0.3406,3.0381,-0.2294,0.4595,-0.0740,
2.230883,-0.1970,-1.0614,0.1556,-2.8308,0.3406,3.0381,-0.2294,0.4595,-0.0740,
2.232066,-0.1970,-1.0614,0.1556,-1.9066,-0.6076,2.0230,-0.2294,0.4595,-0.0740,
2.233015,-0.1970,-1.0614,0.1556,-1.9066,-0.6076,2.0230,0.0699,0.1614,-0.3067,
2.241316,-0.1970,-1.0614,0.1556,-1.9066,-0.6076,2.0230,0.2459,-0.1972,-0.4539,
2.251080,-0.0468,-1.0554,0.0242,-1.9066,-0.6076,2.0230,0.2459,-0.1972,-0.4539,
2.252063,-0.0468,-1.0554,0.0242,-0.4897,-0.5465,0.6828,0.2459,-0.1972,-0.4539,
2.252896,-0.0468,-1.0554,0.0242,-0.4897,-0.5465,0.6828,0.2947,-0.6047,-0.6231,
2.261397,-0.0468,-1.0554,0.0242,-0.4897,-0.5465,0.6828,0.2397,-1.0170,-0.7997,
2.271167,0.1217,-0.9582,-0.0683,-0.4897,-0.5465,0.6828,0.2397,-1.0170,-0.7997,
2.272068,0.1217,-0.9582,-0.0683,1.0340,0.4076,-0.2815,0.2397,-1.0170,-0.7997,
2.272785,0.1217,-0.9582,-0.0683,1.0340,0.4076,-0.2815,0.1194,-1.3805,-0.9994,
2.281773,0.1217,-0.9582,-0.0683,1.0340,0.4076,-0.2815,-0.0095,-1.6682,-1.2059,
2.291433,0.1455,-0.9311,-0.1312,1.0340,0.4076,-0.2815,-0.0095,-1.6682,-1.2059,
2.293202,0.1455,-0.9311,-0.1312,1.0630,0.6681,-0.9013,-0.0095,-1.6682,-1.2059,
2.294878,0.1455,-0.9311,-0.1312,1.0630,0.6681,-0.9013,-0.0975,-1.8655,-1.3757,
2.301758,0.1455,-0.9311,-0.1312,1.0630,0.6681,-0.9013,-0.1304,-1.9156,-1.4722,
2.311965,0.1837,-0.8871,-0.0633,1.0630,0.6681,-0.9013,-0.1304,-1.9156,-1.4722,
2.313662,0.1837,-0.8871,-0.0633,1.1745,1.0841,-0.1950,-0.1304,-1.9156,-1.4722,
2.315660,0.1837,-0.8871,-0.0633,1.1745,1.0841,-0.1950,-0.0828,-1.7421,-1.5046,
2.321779,0.1837,-0.8871,-0.0633,1.1745,1.0841,-0.1950,0.0204,-1.3420,-1.5003,
2.332106,0.2575,-0.8188,-0.0987,1.1745,1.0841,-0.1950,0.0204,-1.3420,-1.5003,
2.333627,0.2575,-0.8188,-0.0987,1.6132,1.7295,-0.5111,0.0204,-1.3420,-1.5003,
2.336103,0.2575,-0.8188,-0.0987,1.6132,1.7295,-0.5111,0.1139,-0.7800,-1.4777,
2.341935,0.2575,-0.8188,-0.0987,1.6132,1.7295,-0.5111,0.0803,0.5340,-1.4222,
2.351510,0.3782,-0.6462,-0.2046,1.6132,1.7295,-0.5111,0.0803,0.5340,-1.4222,
2.353245,0.3782,-0.6462,-0.2046,2.4867,3.3871,-1.5477,0.0803,0.5340,-1.4222,
2.354858,0.3782,-0.6462,-0.2046,2.4867,3.3871,-1.5477,-0.0406,1.1803,-1.4203,
2.361718,0.3782,-0.6462,-0.2046,2.4867,3.3871,-1.5477,-0.2178,1.7979,-1.4026,
2.372339,0.2405,-0.4244,-0.2941,2.4867,3.3871,-1.5477,-0.2178,1.7979,-1.4026,
2.374431,0.2405,-0.4244,-0.2941,0.8051,5.5114,-2.3821,-0.2178,1.7979,-1.4026,
2.375888,0.2405,-0.4244,-0.2941,0.8051,5.5114,-2.3821,-0.4499,2.3085,-1.3324,
2.381981,0.2405,-0.4244,-0.2941,0.8051,5.5114,-2.3821,-0.7205,2.6433,-1.1729,
2.391513,0.1652,-0.6095,-0.2011,0.8051,5.5114,-2.3821,-0.7205,2.6433,-1.1729,
2.393469,0.1652,-0.6095,-0.2011,-0.2314,3.6386,-1.3746,-0.7205,2.6433,-1.1729,
2.395009,0.1652,-0.6095,-0.2011,-0.2314,3.6386,-1.3746,-0.9582,2.7441,-0.9035,
2.402344,0.1652,-0.6095,-0.2011,-0.2314,3.6386,-1.3746,-1.0754,2.5608,-0.5749,
2.411701,0.6425,-1.9118,0.7723,-0.2314,3.6386,-1.3746,-1.0754,2.5608,-0.5749,
2.413399,0.6425,-1.9118,0.7723,4.2365,-9.1685,8.1950,-1.0754,2.5608,-0.5749,
2.415292,0.6425,-1.9118,0.7723,4.2365,-9.1685,8.1950,-1.0761,1.4729,-0.2780,
2.421902,0.6425,-1.9118,0.7723,4.2365,-9.1685,8.1950,-0.6417,-1.1856,-0.1735,
2.431965,0.6265,-1.9802,0.3144,4.2365,-9.1685,8.1950,-0.6417,-1.1856,-0.1735,
2.433944,0.6265,-1.9802,0.3144,4.0019,-9.8618,3.7914,-0.6417,-1.1856,-0.1735,
2.435817,0.6265,-1.9802,0.3144,4.0019,-9.8618,3.7914,-0.0443,-2.7293,-0.1607,
2.441994,0.6265,-1.9802,0.3144,4.0019,-9.8618,3.7914,0.2043,-2.5356,-0.0330,
2.452503,0.2094,-1.0024,-0.0420,4.0019,-9.8618,3.7914,0.2043,-2.5356,-0.0330,
2.454387,0.2094,-1.0024,-0.0420,-0.0891,-0.2823,0.3328,0.2043,-2.5356,-0.0330,
2.456165,0.2094,-1.0024,-0.0420,-0.0891,-0.2823,0.3328,0.1677,-1.5436,0.1093,
2.462017,0.2094,-1.0024,-0.0420,-0.0891,-0.2823,0.3328,0.0095,-0.4440,0.2492,
2.472078,0.1601,-0.5674,-0.1498,-0.0891,-0.2823,0.3328,0.0095,-0.4440,0.2492,
2.474248,0.1601,-0.5674,-0.1498,-0.5412,3.9878,-0.7291,0.0095,-0.4440,0.2492,
2.475862,0.1601,-0.5674,-0.1498,-0.5412,3.9878,-0.7291,-0.1359,0.4228,0.3304,
2.482166,0.1601,-0.5674,-0.1498,-0.5412,3.9878,-0.7291,-0.2514,1.0373,0.3671,
2.491741,0.1645,-0.6409,-0.1783,-0.5412,3.9878,-0.7291,-0.2514,1.0373,0.3671,
2.493528,0.1645,-0.6409,-0.1783,-0.4545,3.2769,-1.0123,-0.2514,1.0373,0.3671,
2.495071,0.1645,-0.6409,-0.1783,-0.4545,3.2769,-1.0123,-0.3235,1.3947,0.4111,
2.502200,0.1645,-0.6409,-0.1783,-0.4545,3.2769,-1.0123,-0.3149,1.4839,0.4483,
2.512025,0.2989,-1.0199,-0.2425,-0.4545,3.2769,-1.0123,-0.3149,1.4839,0.4483,
2.513857,0.2989,-1.0199,-0.2425,0.9104,-0.4266,-1.6364,-0.3149,1.4839,0.4483,
2.515730,0.2989,-1.0199,-0.2425,0.9104,-0.4266,-1.6364,-0.2105,1.3208,0.4679,
2.522190,0.2989,-1.0199,-0.2425,0.9104,-0.4266,-1.6364,-0.0333,0.9017,0.4813,
2.532218,0.3904,-1.1100,-0.4213,0.9104,-0.4266,-1.6364,-0.0333,0.9017,0.4813,
2.534341,0.3904,-1.1100,-0.4213,1.8530,-1.3011,-3.3799,-0.0333,0.9017,0.4813,
2.536565,0.3904,-1.1100,-0.4213,1.8530,-1.3011,-3.3799,0.2715,-0.3176,0.3732,
2.542292,0.3904,-1.1100,-0.4213,1.8530,-1.3011,-3.3799,0.2752,-0.8069,0.2302,
2.552538,0.3530,-0.8063,-0.4406,1.8530,-1.3011,-3.3799,0.2752,-0.8069,0.2302,
2.555016,0.3530,-0.8063,-0.4406,1.5060,1.6758,-3.5322,0.2752,-0.8069,0.2302,
2.557285,0.3530,-0.8063,-0.4406,1.5060,1.6758,-3.5322,0.1799,-1.0964,0.1154,
2.562142,0.3530,-0.8063,-0.4406,1.5060,1.6758,-3.5322,0.0455,-1.1746,0.0537,
2.571953,0.3844,-0.8182,-0.3503,1.5060,1.6758,-3.5322,0.0455,-1.1746,0.0537,
2.574305,0.3844,-0.8182,-0.3503,1.7912,1.5465,-2.5482,0.0455,-1.1746,0.0537,
2.576326,0.3844,-0.8182,-0.3503,1.7912,1.5465,-2.5482,-0.0779,-1.0903,0.0305,
2.582322,0.3844,-0.8182,-0.3503,1.7912,1.5465,-2.5482,-0.1659,-0.9168,0.0250,
2.592374,0.4830,-0.9716,-0.2821,1.7912,1.5465,-2.5482,-0.1659,-0.9168,0.0250,
2.594500,0.4830,-0.9716,-0.2821,2.7141,0.0207,-1.7471,-0.1659,-0.9168,0.0250,
2.596261,0.4830,-0.9716,-0.2821,2.7141,0.0207,-1.7471,-0.2172,-0.7122,0.0103,
2.603261,0.4830,-0.9716,-0.2821,2.7141,0.0207,-1.7471,-0.2465,-0.5100,0.0103,
2.612136,0.5250,-1.0429,-0.2557,2.7141,0.0207,-1.7471,-0.2465,-0.5100,0.0103,
2.614146,0.5250,-1.0429,-0.2557,3.0666,-0.7054,-1.3627,-0.2465,-0.5100,0.0103,
2.616579,0.5250,-1.0429,-0.2557,3.0666,-0.7054,-1.3627,-0.2728,-0.3512,-0.0947,
2.622272,0.5250,-1.0429,-0.2557,3.0666,-0.7054,-1.3627,-0.3027,-0.2876,-0.1772,
2.632107,0.4940,-1.0268,-0.1913,3.0666,-0.7054,-1.3627,-0.3027,-0.2876,-0.1772,
2.634292,0.4940,-1.0268,-0.1913,2.6693,-0.5821,-0.6216,-0.3027,-0.2876,-0.1772,
2.636497,0.4940,-1.0268,-0.1913,2.6693,-0.5821,-0.6216,-0.3326,-0.3359,-0.2646,
2.642033,0.4940,-1.0268,-0.1913,2.6693,-0.5821,-0.6216,-0.3662,-0.5479,-0.3599,
2.653077,0.4591,-1.1052,0.0513,2.6693,-0.5821,-0.6216,-0.3662,-0.5479,-0.3599,
2.655303,0.4591,-1.1052,0.0513,2.2106,-1.3907,1.8475,-0.3662,-0.5479,-0.3599,
2.657847,0.4591,-1.1052,0.0513,2.2106,-1.3907,1.8475,-0.4145,-1.1459,-0.4869,
2.662147,0.4591,-1.1052,0.0513,2.2106,-1.3907,1.8475,-0.4420,-2.0133,-0.6036,
2.671767,0.2940,-1.1068,0.3804,2.2106,-1.3907,1.8475,-0.4420,-2.0133,-0.6036,
2.673849,0.2940,-1.1068,0.3804,0.4859,-1.4479,5.1735,-0.4420,-2.0133,-0.6036,
2.675695,0.2940,-1.1068,0.3804,0.4859,-1.4479,5.1735,-0.3027,-2.5258,-0.6378,
2.682170,0.2940,-1.1068,0.3804,0.4859,-1.4479,5.1735,0.0644,-2.3554,-0.6201,
2.692248,0.2271,-1.1536,0.3100,0.4859,-1.4479,5.1735,0.0644,-2.3554,-0.6201,
2.694060,0.2271,-1.1536,0.3100,-0.2423,-1.9334,4.5371,0.0644,-2.3554,-0.6201,
2.695619,0.2271,-1.1536,0.3100,-0.2423,-1.9334,4.5371,0.5653,-1.8087,-0.6427,
2.702193,0.2271,-1.1536,0.3100,-0.2423,-1.9334,4.5371,1.0155,-1.2699,-0.7294,
2.712011,0.1307,-1.3357,-0.0033,-0.2423,-1.9334,4.5371,1.0155,-1.2699,-0.7294,
2.714020,0.1307,-1.3357,-0.0033,-1.2667,-3.7177,1.3220,1.0155,-1.2699,-0.7294,
2.716143,0.1307,-1.3357,-0.0033,-1.2667,-3.7177,1.3220,1.2782,-1.0225,-0.8828,
2.722467,0.1307,-1.3357,-0.0033,-1.2667,-3.7177,1.3220,1.5678,-1.8612,-0.8296,
2.732287,-0.1939,-1.4248,-0.0897,-1.2667,-3.7177,1.3220,1.5678,-1.8612,-0.8296,
2.734481,-0.1939,-1.4248,-0.0897,-4.5178,-4.5780,0.2345,1.5678,-1.8612,-0.8296,
2.736790,-0.1939,-1.4248,-0.0897,-4.5178,-4.5780,0.2345,1.7034,-2.5387,-0.6781,
2.742070,-0.1939,-1.4248,-0.0897,-4.5178,-4.5780,0.2345,1.5152,-2.9168,-0.5181,
2.753137,-0.0712,-1.0491,-0.6122,-4.5178,-4.5780,0.2345,1.5152,-2.9168,-0.5181,
2.755363,-0.0712,-1.0491,-0.6122,-3.2990,-0.8752,-5.0297,1.5152,-2.9168,-0.5181,
2.757734,-0.0712,-1.0491,-0.6122,-3.2990,-0.8752,-5.0297,1.0186,-3.0487,-0.4234,
2.762378,-0.0712,-1.0491,-0.6122,-3.2990,-0.8752,-5.0297,0.5562,-3.1013,-0.3580,
2.771840,-0.0746,-0.6670,-0.3950,-3.2990,-0.8752,-5.0297,0.5562,-3.1013,-0.3580,
2.773924,-0.0746,-0.6670,-0.3950,-3.2628,2.8822,-2.8439,0.5562,-3.1013,-0.3580,
2.776164,-0.0746,-0.6670,-0.3950,-3.2628,2.8822,-2.8439,0.2795,-3.0255,-0.2768,
2.782442,-0.0746,-0.6670,-0.3950,-3.2628,2.8822,-2.8439,0.1396,-2.7341,-0.1680,
2.792585,-0.0695,-0.4376,-0.2757,-3.2628,2.8822,-2.8439,0.1396,-2.7341,-0.1680,
2.795006,-0.0695,-0.4376,-0.2757,-3.1022,5.1398,-1.5083,0.1396,-2.7341,-0.1680,
2.796895,-0.0695,-0.4376,-0.2757,-3.1022,5.1398,-1.5083,0.0571,-2.2393,-0.0526,
2.803709,-0.0695,-0.4376,-0.2757,-3.1022,5.1398,-1.5083,-0.0180,-1.5863,0.0170,
2.812334,-0.0022,-0.3691,-0.2062,-3.1022,5.1398,-1.5083,-0.0180,-1.5863,0.0170,
2.814371,-0.0022,-0.3691,-0.2062,-2.3123,5.8216,-0.6706,-0.0180,-1.5863,0.0170,
2.816793,-0.0022,-0.3691,-0.2062,-2.3123,5.8216,-0.6706,-0.1298,-0.8405,0.0115,
2.822040,-0.0022,-0.3691,-0.2062,-2.3123,5.8216,-0.6706,-0.2984,-0.0274,-0.0477,
2.831831,0.1118,-0.3160,-0.2292,-2.3123,5.8216,-0.6706,-0.2984,-0.0274,-0.0477,
2.834259,0.1118,-0.3160,-0.2292,-1.1215,6.3386,-0.7535,-0.2984,-0.0274,-0.0477,
2.837732,0.1118,-0.3160,-0.2292,-1.1215,6.3386,-0.7535,-0.5367,0.8437,-0.1668,
2.843173,0.1118,-0.3160,-0.2292,-1.1215,6.3386,-0.7535,-0.8268,1.6653,-0.3257,
2.852967,0.1307,-0.3148,-0.1357,-1.1215,6.3386,-0.7535,-0.8268,1.6653,-0.3257,
2.854715,0.1307,-0.3148,-0.1357,-0.9852,6.3172,0.2935,-0.8268,1.6653,-0.3257,
2.857099,0.1307,-0.3148,-0.1357,-0.9852,6.3172,0.2935,-1.0736,2.2951,-0.4649,
2.862213,0.1307,-0.3148,-0.1357,-0.9852,6.3172,0.2935,-1.1762,2.6305,-0.5505,
2.871850,0.0534,-0.4729,0.0657,-0.9852,6.3172,0.2935,-1.1762,2.6305,-0.5505,
2.873990,0.0534,-0.4729,0.0657,-1.9032,4.7095,2.3713,-1.1762,2.6305,-0.5505,
2.876531,0.0534,-0.4729,0.0657,-1.9032,4.7095,2.3713,-1.1200,2.6409,-0.5419,
2.882159,0.0534,-0.4729,0.0657,-1.9032,4.7095,2.3713,-0.7706,2.1906,-0.3819,
2.891887,-0.2311,-0.8448,0.7554,-1.9032,4.7095,2.3713,-0.7706,2.1906,-0.3819,
2.894233,-0.2311,-0.8448,0.7554,-4.7550,1.0627,9.0461,-0.7706,2.1906,-0.3819,
2.895903,-0.2311,-0.8448,0.7554,-4.7550,1.0627,9.0461,0.3179,0.9274,-0.0031,
2.902634,-0.2311,-0.8448,0.7554,-4.7550,1.0627,9.0461,0.8231,-1.3750,0.6304,
2.911845,0.1119,-1.1519,-0.4409,-4.7550,1.0627,9.0461,0.8231,-1.3750,0.6304,
2.913683,0.1119,-1.1519,-0.4409,-1.2422,-1.8850,-2.8130,0.8231,-1.3750,0.6304,
2.915211,0.1119,-1.1519,-0.4409,-1.2422,-1.8850,-2.8130,0.3405,-1.5998,0.7495,
2.921795,0.1119,-1.1519,-0.4409,-1.2422,-1.8850,-2.8130,-0.0742,-1.4739,0.8252,
2.931723,0.3527,-1.4446,-0.2591,-1.2422,-1.8850,-2.8130,-0.0742,-1.4739,0.8252,
2.934424,0.3527,-1.4446,-0.2591,1.3419,-4.7049,-1.0030,-0.0742,-1.4739,0.8252,
2.936775,0.3527,-1.4446,-0.2591,1.3419,-4.7049,-1.0030,-0.3760,-1.0078,0.8344,
2.942310,0.3527,-1.4446,-0.2591,1.3419,-4.7049,-1.0030,-0.5544,-0.1441,0.7611,
2.953500,0.4696,-1.3447,-0.1373,1.3419,-4.7049,-1.0030,-0.5544,-0.1441,0.7611,
2.955927,0.4696,-1.3447,-0.1373,2.6576,-3.7059,0.2906,-0.5544,-0.1441,0.7611,
2.958268,0.4696,-1.3447,-0.1373,2.6576,-3.7059,0.2906,-0.6228,0.9121,0.6676,
2.962280,0.4696,-1.3447,-0.1373,2.6576,-3.7059,0.2906,-0.6313,1.8498,0.6316,
2.972029,0.5647,-1.3050,-0.1766,2.6576,-3.7059,0.2906,-0.6313,1.8498,0.6316,
2.974085,0.5647,-1.3050,-0.1766,3.6503,-3.3138,-0.0431,-0.6313,1.8498,0.6316,
2.976118,0.5647,-1.3050,-0.1766,3.6503,-3.3138,-0.0431,-0.6277,2.5132,0.6462,
2.981945,0.5647,-1.3050,-0.1766,3.6503,-3.3138,-0.0431,-0.6252,2.8455,0.6676,
2.993214,0.7198,-1.4242,-0.1808,3.6503,-3.3138,-0.0431,-0.6252,2.8455,0.6676,
2.995485,0.7198,-1.4242,-0.1808,5.1549,-4.4848,-0.0866,-0.6252,2.8455,0.6676,
2.997518,0.7198,-1.4242,-0.1808,5.1549,-4.4848,-0.0866,-0.6087,2.8333,0.6859,
3.004439,0.7198,-1.4242,-0.1808,5.1549,-4.4848,-0.0866,-0.5672,2.4845,0.6872,
3.011156,0.8829,-1.1528,-0.0884,5.1549,-4.4848,-0.0866,-0.5672,2.4845,0.6872,
3.012551,0.8829,-1.1528,-0.0884,6.7020,-1.8323,0.8017,-0.5672,2.4845,0.6872,
3.013613,0.8829,-1.1528,-0.0884,6.7020,-1.8323,0.8017,-0.5128,1.6861,0.6352,
3.021423,0.8829,-1.1528,-0.0884,6.7020,-1.8323,0.8017,-0.4786,0.1931,0.4935,
3.031355,0.9116,-0.8912,-0.0478,6.7020,-1.8323,0.8017,-0.4786,0.1931,0.4935,
3.033189,0.9116,-0.8912,-0.0478,6.9308,0.7155,1.2244,-0.4786,0.1931,0.4935,
3.034882,0.9116,-0.8912,-0.0478,6.9308,0.7155,1.2244,-0.4652,-1.1068,0.2767,
3.041854,0.9116,-0.8912,-0.0478,6.9308,0.7155,1.2244,-0.4401,-1.3628,0.0372,
3.052136,0.7743,-1.0377,-0.0127,6.9308,0.7155,1.2244,-0.4401,-1.3628,0.0372,
3.053797,0.7743,-1.0377,-0.0127,5.5205,-0.7503,1.6575,-0.4401,-1.3628,0.0372,
3.055389,0.7743,-1.0377,-0.0127,5.5205,-0.7503,1.6575,-0.3632,-0.8869,-0.1754,
3.061842,0.7743,-1.0377,-0.0127,5.5205,-0.7503,1.6575,-0.2184,-0.2131,-0.3538,
3.071614,0.6500,-1.2304,-0.0177,5.5205,-0.7503,1.6575,-0.2184,-0.2131,-0.3538,
3.073421,0.6500,-1.2304,-0.0177,4.1487,-2.6792,1.6340,-0.2184,-0.2131,-0.3538,
3.075013,0.6500,-1.2304,-0.0177,4.1487,-2.6792,1.6340,-0.0290,0.2621,-0.5248,
3.081654,0.6500,-1.2304,-0.0177,4.1487,-2.6792,1.6340,0.1848,0.2493,-0.6763,
3.091517,0.2573,-1.0089,0.8376,4.1487,-2.6792,1.6340,0.1848,0.2493,-0.6763,
3.093183,0.2573,-1.0089,0.8376,0.0866,-0.5325,9.8636,0.1848,0.2493,-0.6763,
3.094573,0.2573,-1.0089,0.8376,0.0866,-0.5325,9.8636,0.9917,-1.7843,-0.7581,
3.102767,0.2573,-1.0089,0.8376,0.0866,-0.5325,9.8636,1.9734,-2.9980,-0.6793,
3.111744,0.1943,-0.8832,0.4766,0.0866,-0.5325,9.8636,1.9734,-2.9980,-0.6793,
3.113230,0.1943,-0.8832,0.4766,-0.6530,0.7157,6.0199,1.9734,-2.9980,-0.6793,
3.114816,0.1943,-0.8832,0.4766,-0.6530,0.7157,6.0199,2.8261,-3.1392,-0.6372,
3.121817,0.1943,-0.8832,0.4766,-0.6530,0.7157,6.0199,3.2220,-2.5399,-0.6476,
3.131623,0.2136,-0.7556,0.1509,-0.6530,0.7157,6.0199,3.2220,-2.5399,-0.6476,
3.133623,0.2136,-0.7556,0.1509,-0.5649,1.9998,2.2826,3.2220,-2.5399,-0.6476,
3.135507,0.2136,-0.7556,0.1509,-0.5649,1.9998,2.2826,3.3100,-1.9064,-0.6873,
3.142366,0.2136,-0.7556,0.1509,-0.5649,1.9998,2.2826,3.2385,-1.5142,-0.7386,
3.153493,0.2176,-0.6530,0.1087,-0.5649,1.9998,2.2826,3.2385,-1.5142,-0.7386,
3.154943,0.2176,-0.6530,0.1087,-0.6748,2.9948,1.2532,3.2385,-1.5142,-0.7386,
3.156857,0.2176,-0.6530,0.1087,-0.6748,2.9948,1.2532,3.0876,-1.3878,-0.7954,
3.162023,0.2176,-0.6530,0.1087,-0.6748,2.9948,1.2532,2.9941,-1.6004,-0.8418,
3.171550,0.3015,-0.5874,0.5814,-0.6748,2.9948,1.2532,2.9941,-1.6004,-0.8418,
3.173518,0.3015,-0.5874,0.5814,-0.0378,3.5729,5.2824,2.9941,-1.6004,-0.8418,
3.175212,0.3015,-0.5874,0.5814,-0.0378,3.5729,5.2824,3.1328,-2.2216,-0.8931,
3.181631,0.3015,-0.5874,0.5814,-0.0378,3.5729,5.2824,3.4841,-2.9541,-1.0801,
3.191779,0.4450,-0.7073,0.1149,-0.0378,3.5729,5.2824,3.4841,-2.9541,-1.0801,
3.193746,0.4450,-0.7073,0.1149,1.1166,2.2746,0.1796,3.4841,-2.9541,-1.0801,
3.195603,0.4450,-0.7073,0.1149,1.1166,2.2746,0.1796,3.6374,-3.1880,-1.4179,
3.202997,0.4450,-0.7073,0.1149,1.1166,2.2746,0.1796,3.2757,-2.7488,-1.7807,
3.211651,0.3230,-0.9764,-0.3049,1.1166,2.2746,0.1796,3.2757,-2.7488,-1.7807,
3.213508,0.3230,-0.9764,-0.3049,-0.4411,-0.5524,-4.3583,3.2757,-2.7488,-1.7807,
3.215043,0.3230,-0.9764,-0.3049,-0.4411,-0.5524,-4.3583,2.5861,-1.9871,-2.0801,
3.222017,0.3230,-0.9764,-0.3049,-0.4411,-0.5524,-4.3583,1.9215,-1.2748,-2.2694,
3.231457,0.1402,-1.1964,-0.3819,-0.4411,-0.5524,-4.3583,1.9215,-1.2748,-2.2694,
3.233245,0.1402,-1.1964,-0.3819,-2.6289,-2.9109,-5.3127,1.9215,-1.2748,-2.2694,
3.235256,0.1402,-1.1964,-0.3819,-2.6289,-2.9109,-5.3127,1.5183,-1.0549,-2.2658,
3.242147,0.1402,-1.1964,-0.3819,-2.6289,-2.9109,-5.3127,1.2006,-1.1209,-2.1405,
3.253607,0.4858,-1.1357,-0.5079,-2.6289,-2.9109,-5.3127,1.2006,-1.1209,-2.1405,
3.255729,0.4858,-1.1357,-0.5079,0.3766,-2.5024,-6.5662,1.2006,-1.1209,-2.1405,
3.257838,0.4858,-1.1357,-0.5079,0.3766,-2.5024,-6.5662,0.8079,-1.1502,-2.0410,
3.261968,0.4858,-1.1357,-0.5079,0.3766,-2.5024,-6.5662,0.3222,-0.9736,-2.1607,
3.271650,1.0892,-1.0048,0.2107,0.3766,-2.5024,-6.5662,0.3222,-0.9736,-2.1607,
3.273624,1.0892,-1.0048,0.2107,5.8951,-1.4174,0.5603,0.3222,-0.9736,-2.1607,
3.275545,1.0892,-1.0048,0.2107,5.8951,-1.4174,0.5603,-0.4072,0.0477,-2.4759,
3.281817,1.0892,-1.0048,0.2107,5.8951,-1.4174,0.5603,-0.4059,0.7557,-2.7929,
3.291996,1.1153,-1.0004,0.2608,5.8951,-1.4174,0.5603,-0.4059,0.7557,-2.7929,
3.293833,1.1153,-1.0004,0.2608,5.7076,-1.6290,1.1184,-0.4059,0.7557,-2.7929,
3.295432,1.1153,-1.0004,0.2608,5.7076,-1.6290,1.1184,-0.3271,1.6030,-2.8791,
3.303015,1.1153,-1.0004,0.2608,5.7076,-1.6290,1.1184,-0.3730,2.4026,-2.5889,
3.311599,0.7787,-0.8852,-0.0089,5.7076,-1.6290,1.1184,-0.3730,2.4026,-2.5889,
3.313194,0.7787,-0.8852,-0.0089,2.0179,-0.7849,-1.6359,-0.3730,2.4026,-2.5889,
3.314799,0.7787,-0.8852,-0.0089,2.0179,-0.7849,-1.6359,-0.6368,2.9817,-2.0312,
3.322031,0.7787,-0.8852,-0.0089,2.0179,-0.7849,-1.6359,-1.0687,3.1699,-1.5321,
3.331683,0.6236,-0.8275,-0.1113,2.0179,-0.7849,-1.6359,-1.0687,3.1699,-1.5321,
3.334023,0.6236,-0.8275,-0.1113,0.3135,-0.3829,-2.7822,-1.0687,3.1699,-1.5321,
3.337638,0.6236,-0.8275,-0.1113,0.3135,-0.3829,-2.7822,-1.5189,3.0617,-1.2927,
3.343249,0.6236,-0.8275,-0.1113,0.3135,-0.3829,-2.7822,-1.8824,2.8644,-1.1888,
3.355293,0.3605,-0.8788,-0.1593,0.3135,-0.3829,-2.7822,-1.8824,2.8644,-1.1888,
3.357908,0.3605,-0.8788,-0.1593,-2.3400,-0.9414,-3.2477,-1.8824,2.8644,-1.1888,
3.360347,0.3605,-0.8788,-0.1593,-2.3400,-0.9414,-3.2477,-2.1555,2.6922,-1.1033,
3.362665,0.3605,-0.8788,-0.1593,-2.3400,-0.9414,-3.2477,-2.3515,2.6305,-1.0196,
3.371906,0.2965,-0.9446,-0.1148,-2.3400,-0.9414,-3.2477,-2.3515,2.6305,-1.0196,
3.373950,0.2965,-0.9446,-0.1148,-3.0034,-1.5886,-2.6906,-2.3515,2.6305,-1.0196,
3.375785,0.2965,-0.9446,-0.1148,-3.0034,-1.5886,-2.6906,-2.4658,2.7087,-0.9658,
3.381748,0.2965,-0.9446,-0.1148,-3.0034,-1.5886,-2.6906,-2.5153,2.9353,-0.9322,
3.392372,0.2682,-1.0224,-0.0638,-3.0034,-1.5886,-2.6906,-2.5153,2.9353,-0.9322,
3.394524,0.2682,-1.0224,-0.0638,-3.2779,-2.3241,-2.0594,-2.5153,2.9353,-0.9322,
3.396126,0.2682,-1.0224,-0.0638,-3.2779,-2.3241,-2.0594,-2.5501,3.2853,-0.8797,
3.402786,0.2682,-1.0224,-0.0638,-3.2779,-2.3241,-2.0594,-2.5281,3.7025,-0.7985,
3.411623,0.3508,-1.0125,0.1775,-3.2779,-2.3241,-2.0594,-2.5281,3.7025,-0.7985,
3.413489,0.3508,-1.0125,0.1775,-2.4257,-2.1882,0.3383,-2.5281,3.7025,-0.7985,
3.415082,0.3508,-1.0125,0.1775,-2.4257,-2.1882,0.3383,-2.4022,4.1155,-0.6903,
3.422163,0.3508,-1.0125,0.1775,-2.4257,-2.1882,0.3383,-2.3351,4.4502,-0.5517,
3.431376,0.5556,-0.7962,0.1110,-2.4257,-2.1882,0.3383,-2.3351,4.4502,-0.5517,
3.433299,0.5556,-0.7962,0.1110,-0.3372,-0.0224,-0.3986,-2.3351,4.4502,-0.5517,
3.435421,0.5556,-0.7962,0.1110,-0.3372,-0.0224,-0.3986,-2.5036,4.6689,-0.4124,
3.441476,0.5556,-0.7962,0.1110,-0.3372,-0.0224,-0.3986,-2.9087,4.8033,-0.2847,
3.453084,0.7710,-0.6728,-0.1727,-0.3372,-0.0224,-0.3986,-2.9087,4.8033,-0.2847,
3.455375,0.7710,-0.6728,-0.1727,1.8793,1.2543,-3.2270,-2.9087,4.8033,-0.2847,
3.456998,0.7710,-0.6728,-0.1727,1.8793,1.2543,-3.2270,-4.3045,4.6756,-0.0483,
3.461831,0.7710,-0.6728,-0.1727,1.8793,1.2543,-3.2270,-5.0394,4.3922,0.1612,
3.471608,0.5139,-0.7442,-0.1834,1.8793,1.2543,-3.2270,-5.0394,4.3922,0.1612,
3.473711,0.5139,-0.7442,-0.1834,-0.4977,0.7102,-3.0214,-5.0394,4.3922,0.1612,
3.475054,0.5139,-0.7442,-0.1834,-0.4977,0.7102,-3.0214,-5.4468,4.2047,0.5503,
3.481172,0.5139,-0.7442,-0.1834,-0.4977,0.7102,-3.0214,-5.3381,4.2438,1.1129,
3.491203,0.5559,-0.7327,0.1109,-0.4977,0.7102,-3.0214,-5.3381,4.2438,1.1129,
3.492643,0.5559,-0.7327,0.1109,0.1283,1.0208,0.3026,-5.3381,4.2438,1.1129,
3.493620,0.5559,-0.7327,0.1109,0.1283,1.0208,0.3026,-4.8420,4.5327,1.6438,
3.501537,0.5559,-0.7327,0.1109,0.1283,1.0208,0.3026,-4.1108,5.0293,1.9095,
3.511068,0.6450,-0.7642,-0.0484,0.1283,1.0208,0.3026,-4.1108,5.0293,1.9095,
3.511902,0.6450,-0.7642,-0.0484,1.3345,0.9402,-0.9807,-4.1108,5.0293,1.9095,
3.512725,0.6450,-0.7642,-0.0484,1.3345,0.9402,-0.9807,-3.2721,5.5638,1.8319,
3.521314,0.6450,-0.7642,-0.0484,1.3345,0.9402,-0.9807,-2.5305,5.6866,1.5686,
3.530993,0.1200,-0.7825,-0.4753,1.3345,0.9402,-0.9807,-2.5305,5.6866,1.5686,
3.532173,0.1200,-0.7825,-0.4753,-3.4739,0.9532,-5.1242,-2.5305,5.6866,1.5686,
3.533657,0.1200,-0.7825,-0.4753,-3.4739,0.9532,-5.1242,-2.0803,5.1546,1.3884,
3.541400,0.1200,-0.7825,-0.4753,-3.4739,0.9532,-5.1242,-1.7572,4.1808,1.3567,
3.551835,-0.2478,-0.7446,-0.2005,-3.4739,0.9532,-5.1242,-1.7572,4.1808,1.3567,
3.553608,-0.2478,-0.7446,-0.2005,-6.7446,1.4967,-2.4189,-1.7572,4.1808,1.3567,
3.554873,-0.2478,-0.7446,-0.2005,-6.7446,1.4967,-2.4189,-1.3296,2.9371,1.4330,
3.561332,-0.2478,-0.7446,-0.2005,-6.7446,1.4967,-2.4189,-0.6766,1.8376,1.6126,
3.570875,-0.5290,-0.9041,0.5211,-6.7446,1.4967,-2.4189,-0.6766,1.8376,1.6126,
3.572426,-0.5290,-0.9041,0.5211,-9.0751,0.1299,4.6364,-0.6766,1.8376,1.6126,
3.573371,-0.5290,-0.9041,0.5211,-9.0751,0.1299,4.6364,0.3766,1.4765,1.8955,
3.581189,-0.5290,-0.9041,0.5211,-9.0751,0.1299,4.6364,1.4004,1.8797,2.0873,
3.590871,-0.1355,-1.1950,-0.6221,-9.0751,0.1299,4.6364,1.4004,1.8797,2.0873,
3.592656,-0.1355,-1.1950,-0.6221,-4.7047,-2.5282,-6.7577,1.4004,1.8797,2.0873,
3.593679,-0.1355,-1.1950,-0.6221,-4.7047,-2.5282,-6.7577,1.7070,2.1919,1.9352,
3.601553,-0.1355,-1.1950,-0.6221,-4.7047,-2.5282,-6.7577,1.4016,2.0587,1.5192,
3.611135,-0.0065,-1.4732,-0.3539,-4.7047,-2.5282,-6.7577,1.4016,2.0587,1.5192,
3.611981,-0.0065,-1.4732,-0.3539,-2.9693,-5.1208,-4.4346,1.4016,2.0587,1.5192,
3.612681,-0.0065,-1.4732,-0.3539,-2.9693,-5.1208,-4.4346,1.0143,1.5101,0.9773,
3.620995,-0.0065,-1.4732,-0.3539,-2.9693,-5.1208,-4.4346,1.0149,0.7887,0.3451,
3.630906,-0.0303,-1.3570,0.4504,-2.9693,-5.1208,-4.4346,1.0149,0.7887,0.3451,
3.631789,-0.0303,-1.3570,0.4504,-2.9442,-3.9281,3.2496,1.0149,0.7887,0.3451,
3.632552,-0.0303,-1.3570,0.4504,-2.9442,-3.9281,3.2496,1.4908,0.2279,-0.2847,
3.641296,-0.0303,-1.3570,0.4504,-2.9442,-3.9281,3.2496,2.3863,-0.1997,-1.0764,
3.652084,-0.0169,-0.7443,0.2053,-2.9442,-3.9281,3.2496,2.3863,-0.1997,-1.0764,
3.653514,-0.0169,-0.7443,0.2053,-2.8273,2.0275,0.5308,2.3863,-0.1997,-1.0764,
3.654456,-0.0169,-0.7443,0.2053,-2.8273,2.0275,0.5308,2.4486,-0.2663,-1.2707,
3.661615,-0.0169,-0.7443,0.2053,-2.8273,2.0275,0.5308,2.3845,-0.2461,-1.3592,
3.671769,-0.2998,-0.5636,-0.0195,-2.8273,2.0275,0.5308,2.3845,-0.2461,-1.3592,
3.674201,-0.2998,-0.5636,-0.0195,-5.7031,3.7009,-2.0449,2.3845,-0.2461,-1.3592,
3.675981,-0.2998,-0.5636,-0.0195,-5.7031,3.7009,-2.0449,2.2361,-0.1160,-1.2804,
3.681910,-0.2998,-0.5636,-0.0195,-5.7031,3.7009,-2.0449,1.7724,0.0135,-1.0507,
3.691656,-0.1402,-0.6091,-0.3387,-5.7031,3.7009,-2.0449,1.7724,0.0135,-1.0507,
3.693837,-0.1402,-0.6091,-0.3387,-4.1972,3.1850,-5.4199,1.7724,0.0135,-1.0507,
3.695444,-0.1402,-0.6091,-0.3387,-4.1972,3.1850,-5.4199,1.1396,-0.0213,-0.8363,
3.703503,-0.1402,-0.6091,-0.3387,-4.1972,3.1850,-5.4199,0.6124,-0.2962,-0.7508,
3.711941,0.1899,-0.7549,-0.0594,-4.1972,3.1850,-5.4199,0.6124,-0.2962,-0.7508,
3.713573,0.1899,-0.7549,-0.0594,-0.9915,1.7391,-2.7132,0.6124,-0.2962,-0.7508,
3.715210,0.1899,-0.7549,-0.0594,-0.9915,1.7391,-2.7132,0.3161,-0.7336,-0.8247,
3.721754,0.1899,-0.7549,-0.0594,-0.9915,1.7391,-2.7132,0.2520,-1.0811,-1.0043,
3.731726,0.3216,-0.9596,0.0895,-0.9915,1.7391,-2.7132,0.2520,-1.0811,-1.0043,
3.733637,0.3216,-0.9596,0.0895,0.1786,-0.2836,-1.1572,0.2520,-1.0811,-1.0043,
3.735627,0.3216,-0.9596,0.0895,0.1786,-0.2836,-1.1572,0.2874,-1.1068,-1.1631,
3.742132,0.3216,-0.9596,0.0895,0.1786,-0.2836,-1.1572,0.3442,-0.8979,-1.2407,
3.753900,0.4200,-1.1532,0.2049,0.1786,-0.2836,-1.1572,0.3442,-0.8979,-1.2407,
3.756482,0.4200,-1.1532,0.2049,0.9409,-2.2338,0.0423,0.3442,-0.8979,-1.2407,
3.758657,0.4200,-1.1532,0.2049,0.9409,-2.2338,0.0423,0.4505,-0.7085,-1.2346,
3.762003,0.4200,-1.1532,0.2049,0.9409,-2.2338,0.0423,0.6643,-0.6841,-1.1442,
3.772050,0.4776,-1.3367,0.5777,0.9409,-2.2338,0.0423,0.6643,-0.6841,-1.1442,
3.775015,0.4776,-1.3367,0.5777,1.2985,-4.1168,3.6524,0.6643,-0.6841,-1.1442,
3.777123,0.4776,-1.3367,0.5777,1.2985,-4.1168,3.6524,0.9984,-0.7385,-0.9689,
3.782079,0.4776,-1.3367,0.5777,1.2985,-4.1168,3.6524,1.3973,-0.7519,-0.7074,
3.791689,0.4333,-1.3631,0.7809,1.2985,-4.1168,3.6524,1.3973,-0.7519,-0.7074,
3.794734,0.4333,-1.3631,0.7809,0.7180,-4.4748,5.4615,1.3973,-0.7519,-0.7074,
3.796977,0.4333,-1.3631,0.7809,0.7180,-4.4748,5.4615,1.6411,-0.8246,-0.3330,
3.804307,0.4333,-1.3631,0.7809,0.7180,-4.4748,5.4615,1.4004,-1.0243,0.1966,
3.811722,0.3511,-1.0790,0.6964,0.7180,-4.4748,5.4615,1.4004,-1.0243,0.1966,
3.814055,0.3511,-1.0790,0.6964,-0.1033,-1.7605,4.3886,1.4004,-1.0243,0.1966,
3.816281,0.3511,-1.0790,0.6964,-0.1033,-1.7605,4.3886,0.6869,-0.9785,0.8216,
3.821744,0.3511,-1.0790,0.6964,-0.1033,-1.7605,4.3886,-0.5122,-0.0751,1.5185,
3.831787,0.2623,-0.8201,0.6113,-0.1033,-1.7605,4.3886,-0.5122,-0.0751,1.5185,
3.833401,0.2623,-0.8201,0.6113,-0.7603,0.8463,3.5083,-0.5122,-0.0751,1.5185,
3.836846,0.2623,-0.8201,0.6113,-0.7603,0.8463,3.5083,-0.6576,-0.0360,1.5754,
3.841616,0.2623,-0.8201,0.6113,-0.7603,0.8463,3.5083,-0.6265,-0.0677,1.5906,
3.854017,0.3077,-0.6991,0.6848,-0.7603,0.8463,3.5083,-0.6265,-0.0677,1.5906,
3.856645,0.3077,-0.6991,0.6848,-0.0201,2.1434,4.2498,-0.6265,-0.0677,1.5906,
3.858371,0.3077,-0.6991,0.6848,-0.0201,2.1434,4.2498,-0.5086,-0.0048,1.5418,
3.861395,0.3077,-0.6991,0.6848,-0.0201,2.1434,4.2498,-0.3681,0.0826,1.3848,
3.871224,0.7091,-0.5190,0.5763,-0.0201,2.1434,4.2498,-0.3681,0.0826,1.3848,
3.872961,0.7091,-0.5190,0.5763,4.1329,3.9693,3.1515,-0.3681,0.0826,1.3848,
3.874030,0.7091,-0.5190,0.5763,4.1329,3.9693,3.1515,-0.2606,-0.0555,1.0916,
3.881219,0.7091,-0.5190,0.5763,4.1329,3.9693,3.1515,-0.2722,-0.5931,0.6866,
3.890778,0.9737,-0.4779,0.3426,4.1329,3.9693,3.1515,-0.2722,-0.5931,0.6866,
3.891826,0.9737,-0.4779,0.3426,6.7546,4.3727,0.8293,-0.2722,-0.5931,0.6866,
3.892585,0.9737,-0.4779,0.3426,6.7546,4.3727,0.8293,-0.4621,-1.4752,0.2596,
3.902369,0.9737,-0.4779,0.3426,6.7546,4.3727,0.8293,-0.7437,-2.4202,-0.0954,
3.910862,0.7779,-0.6626,-0.1584,6.7546,4.3727,0.8293,-0.7437,-2.4202,-0.0954,
3.911790,0.7779,-0.6626,-0.1584,4.6132,2.5401,-3.9005,-0.7437,-2.4202,-0.0954,
3.912492,0.7779,-0.6626,-0.1584,4.6132,2.5401,-3.9005,-1.0223,-3.0927,-0.2908,
3.921150,0.7779,-0.6626,-0.1584,4.6132,2.5401,-3.9005,-1.3070,-3.2919,-0.2609,
3.930826,0.4786,-0.7946,-0.2894,4.6132,2.5401,-3.9005,-1.3070,-3.2919,-0.2609,
3.931885,0.4786,-0.7946,-0.2894,1.3723,1.2374,-4.7644,-1.3070,-3.2919,-0.2609,
3.933184,0.4786,-0.7946,-0.2894,1.3723,1.2374,-4.7644,-1.5244,-3.0060,-0.0288,
3.941040,0.4786,-0.7946,-0.2894,1.3723,1.2374,-4.7644,-1.5654,-2.5436,0.2907,
3.951183,0.6031,-0.8907,0.1214,1.3723,1.2374,-4.7644,-1.5654,-2.5436,0.2907,
3.953402,0.6031,-0.8907,0.1214,2.4159,0.3163,-0.2726,-1.5654,-2.5436,0.2907,
3.955172,0.6031,-0.8907,0.1214,2.4159,0.3163,-0.2726,-1.3210,-2.0384,0.5051,
3.961124,0.6031,-0.8907,0.1214,2.4159,0.3163,-0.2726,-0.8415,-1.4697,0.4947,
3.971029,0.6275,-0.9901,-0.1217,2.4159,0.3163,-0.2726,-0.8415,-1.4697,0.4947,
3.972228,0.6275,-0.9901,-0.1217,2.6048,-0.6286,-2.3192,-0.8415,-1.4697,0.4947,
3.973163,0.6275,-0.9901,-0.1217,2.6048,-0.6286,-2.3192,-0.4395,-0.8405,0.3402,
3.981336,0.6275,-0.9901,-0.1217,2.6048,-0.6286,-2.3192,-0.2770,-0.2717,0.1704,
3.991060,0.5024,-0.9734,-0.1388,2.6048,-0.6286,-2.3192,-0.2770,-0.2717,0.1704,
3.992240,0.5024,-0.9734,-0.1388,1.3344,-0.4670,-2.3469,-0.2770,-0.2717,0.1704,
3.992965,0.5024,-0.9734,-0.1388,1.3344,-0.4670,-2.3469,-0.2380,0.0838,0.0641,
4.002177,0.5024,-0.9734,-0.1388,1.3344,-0.4670,-2.3469,-0.1543,0.1968,0.0665,
4.011032,0.3354,-1.0124,-0.1725,1.3344,-0.4670,-2.3469,-0.1543,0.1968,0.0665,
4.011941,0.3354,-1.0124,-0.1725,-0.3380,-0.8551,-2.5994,-0.1543,0.1968,0.0665,
4.012638,0.3354,-1.0124,-0.1725,-0.3380,-0.8551,-2.5994,0.1151,0.0648,0.3836,
4.021168,0.3354,-1.0124,-0.1725,-0.3380,-0.8551,-2.5994,-0.0339,0.1662,0.5100,
4.030987,0.4860,-1.1128,-0.3191,-0.3380,-0.8551,-2.5994,-0.0339,0.1662,0.5100,
4.031888,0.4860,-1.1128,-0.3191,1.1793,-1.8167,-3.9738,-0.0339,0.1662,0.5100,
4.032569,0.4860,-1.1128,-0.3191,1.1793,-1.8167,-3.9738,-0.3607,0.5199,0.5601,
4.041456,0.4860,-1.1128,-0.3191,1.1793,-1.8167,-3.9738,-0.6686,1.0135,0.5662,
4.054042,0.5863,-1.2141,-0.2238,1.1793,-1.8167,-3.9738,-0.6686,1.0135,0.5662,
4.056206,0.5863,-1.2141,-0.2238,2.2363,-2.7698,-2.9196,-0.6686,1.0135,0.5662,
4.057853,0.5863,-1.2141,-0.2238,2.2363,-2.7698,-2.9196,-0.8629,1.4765,0.5241,
4.061611,0.5863,-1.2141,-0.2238,2.2363,-2.7698,-2.9196,-0.9240,1.7979,0.4538,
4.071504,0.5046,-1.3201,-0.1562,2.2363,-2.7698,-2.9196,-0.9240,1.7979,0.4538,
4.073671,0.5046,-1.3201,-0.1562,1.5158,-3.7694,-2.1333,-0.9240,1.7979,0.4538,
4.074956,0.5046,-1.3201,-0.1562,1.5158,-3.7694,-2.1333,-0.8476,1.8480,0.4062,
4.081233,0.5046,-1.3201,-0.1562,1.5158,-3.7694,-2.1333,-0.6491,1.5486,0.4190,
4.091256,0.1532,-1.3039,-0.0393,1.5158,-3.7694,-2.1333,-0.6491,1.5486,0.4190,
4.092858,0.1532,-1.3039,-0.0393,-1.8326,-3.5702,-0.9110,-0.6491,1.5486,0.4190,
4.093830,0.1532,-1.3039,-0.0393,-1.8326,-3.5702,-0.9110,-0.3308,0.9317,0.5235,
4.102757,0.1532,-1.3039,-0.0393,-1.8326,-3.5702,-0.9110,0.0663,0.0905,0.7085,
4.111489,-0.0772,-1.1817,-0.0877,-1.8326,-3.5702,-0.9110,0.0663,0.0905,0.7085,
4.113036,-0.0772,-1.1817,-0.0877,-3.9363,-2.3162,-1.3375,0.0663,0.0905,0.7085,
4.114362,-0.0772,-1.1817,-0.0877,-3.9363,-2.3162,-1.3375,0.4267,-0.8014,0.9217,
4.121521,-0.0772,-1.1817,-0.0877,-3.9363,-2.3162,-1.3375,0.6570,-1.5558,1.1215,
4.131476,-0.1790,-1.0298,-0.1297,-3.9363,-2.3162,-1.3375,0.6570,-1.5558,1.1215,
4.133341,-0.1790,-1.0298,-0.1297,-4.6918,-0.7460,-1.7179,0.6570,-1.5558,1.1215,
4.137794,-0.1790,-1.0298,-0.1297,-4.6918,-0.7460,-1.7179,0.8066,-2.1880,1.2540,
4.142453,-0.1790,-1.0298,-0.1297,-4.6918,-0.7460,-1.7179,0.9172,-2.6511,1.3109,
4.154336,-0.3055,-0.9552,-0.1273,-4.6918,-0.7460,-1.7179,0.9172,-2.6511,1.3109,
4.156531,-0.3055,-0.9552,-0.1273,-5.6192,0.0785,-1.6575,0.9172,-2.6511,1.3109,
4.158666,-0.3055,-0.9552,-0.1273,-5.6192,0.0785,-1.6575,1.0009,-2.9693,1.3066,
4.161974,-0.3055,-0.9552,-0.1273,-5.6192,0.0785,-1.6575,1.0931,-3.1031,1.2510,
4.171624,-0.4691,-0.9236,0.0829,-5.6192,0.0785,-1.6575,1.0931,-3.1031,1.2510,
4.174156,-0.4691,-0.9236,0.0829,-6.8738,0.4784,0.3986,1.0931,-3.1031,1.2510,
4.175902,-0.4691,-0.9236,0.0829,-6.8738,0.4784,0.3986,1.2501,-3.0041,1.1697,
4.181850,-0.4691,-0.9236,0.0829,-6.8738,0.4784,0.3986,1.4908,-2.6492,1.0641,
4.191446,-0.2480,-0.7155,0.1388,-6.8738,0.4784,0.3986,1.4908,-2.6492,1.0641,
4.193848,-0.2480,-0.7155,0.1388,-4.3802,2.5848,0.8315,1.4908,-2.6492,1.0641,
4.195298,-0.2480,-0.7155,0.1388,-4.3802,2.5848,0.8315,1.8799,-1.5656,0.4813,
4.204242,-0.2480,-0.7155,0.1388,-4.3802,2.5848,0.8315,1.8445,-1.1942,0.0445,
4.211989,0.0200,-0.3553,-0.1659,-4.3802,2.5848,0.8315,1.8445,-1.1942,0.0445,
4.213811,0.0200,-0.3553,-0.1659,-1.5987,6.1275,-2.3998,1.8445,-1.1942,0.0445,
4.215746,0.0200,-0.3553,-0.1659,-1.5987,6.1275,-2.3998,1.6594,-0.9602,-0.2969,
4.221722,0.0200,-0.3553,-0.1659,-1.5987,6.1275,-2.3998,1.3967,-0.7940,-0.5156,
4.231686,0.1085,-0.1405,-0.1363,-1.5987,6.1275,-2.3998,1.3967,-0.7940,-0.5156,
4.233226,0.1085,-0.1405,-0.1363,-0.7257,8.2188,-2.2833,1.3967,-0.7940,-0.5156,
4.235224,0.1085,-0.1405,-0.1363,-0.7257,8.2188,-2.2833,1.1231,-0.6554,-0.6726,
4.242160,0.1085,-0.1405,-0.1363,-0.7257,8.2188,-2.2833,0.9025,-0.5338,-0.8467,
4.252039,0.2944,0.0508,0.0039,-0.7257,8.2188,-2.2833,0.9025,-0.5338,-0.8467,
4.253955,0.2944,0.0508,0.0039,0.9384,10.0441,-1.0811,0.9025,-0.5338,-0.8467,
4.255435,0.2944,0.0508,0.0039,0.9384,10.0441,-1.0811,0.7651,-0.4868,-1.0874,
4.262406,0.2944,0.0508,0.0039,0.9384,10.0441,-1.0811,0.7474,-0.5466,-1.3782,
4.271827,0.3878,0.0564,0.1237,0.9384,10.0441,-1.0811,0.7474,-0.5466,-1.3782,
4.274067,0.3878,0.0564,0.1237,1.6071,10.0302,-0.0295,0.7474,-0.5466,-1.3782,
4.275932,0.3878,0.0564,0.1237,1.6071,10.0302,-0.0295,0.8421,-0.6334,-1.6818,
4.281972,0.3878,0.0564,0.1237,1.6071,10.0302,-0.0295,1.0326,-0.7892,-1.9573,
4.291614,0.2844,-0.2089,0.2081,1.6071,10.0302,-0.0295,1.0326,-0.7892,-1.9573,
4.294032,0.2844,-0.2089,0.2081,0.2324,7.3193,0.6552,1.0326,-0.7892,-1.9573,
4.295498,0.2844,-0.2089,0.2081,0.2324,7.3193,0.6552,1.3289,-1.1117,-2.0898,
4.304189,0.2844,-0.2089,0.2081,0.2324,7.3193,0.6552,1.6820,-1.4861,-2.0385,
4.311949,0.3084,-0.8948,0.1699,0.2324,7.3193,0.6552,1.6820,-1.4861,-2.0385,
4.313633,0.3084,-0.8948,0.1699,0.0462,0.4387,0.0733,1.6820,-1.4861,-2.0385,
4.315013,0.3084,-0.8948,0.1699,0.0462,0.4387,0.0733,1.9630,-1.6896,-1.7697,
4.322197,0.3084,-0.8948,0.1699,0.0462,0.4387,0.0733,2.0204,-1.3524,-1.1320,
4.331763,0.6701,-1.6066,0.2751,0.0462,0.4387,0.0733,2.0204,-1.3524,-1.1320,
4.333578,0.6701,-1.6066,0.2751,3.2602,-6.7004,0.8408,2.0204,-1.3524,-1.1320,
4.336545,0.6701,-1.6066,0.2751,3.2602,-6.7004,0.8408,1.8824,-0.7073,-0.1772,
4.342229,0.6701,-1.6066,0.2751,3.2602,-6.7004,0.8408,1.7364,-0.2779,0.6639,
4.351961,1.4081,-1.6662,0.2133,3.2602,-6.7004,0.8408,1.7364,-0.2779,0.6639,
4.354200,1.4081,-1.6662,0.2133,10.4376,-7.3622,-0.0260,1.7364,-0.2779,0.6639,
4.355828,1.4081,-1.6662,0.2133,10.4376,-7.3622,-0.0260,1.5073,-0.6651,1.1099,
4.361925,1.4081,-1.6662,0.2133,10.4376,-7.3622,-0.0260,0.9813,-1.4550,1.2033,
4.371953,0.9302,-1.0879,0.0198,10.4376,-7.3622,-0.0260,0.9813,-1.4550,1.2033,
4.374407,0.9302,-1.0879,0.0198,5.8139,-1.6982,-2.0260,0.9813,-1.4550,1.2033,
4.376394,0.9302,-1.0879,0.0198,5.8139,-1.6982,-2.0260,0.3906,-1.9761,1.0592,
4.381874,0.9302,-1.0879,0.0198,5.8139,-1.6982,-2.0260,-0.5721,-1.7452,1.0653,
4.391613,0.2067,-0.9705,-0.0294,5.8139,-1.6982,-2.0260,-0.5721,-1.7452,1.0653,
4.394489,0.2067,-0.9705,-0.0294,-1.2351,-0.4872,-2.3160,-0.5721,-1.7452,1.0653,
4.396231,0.2067,-0.9705,-0.0294,-1.2351,-0.4872,-2.3160,-0.9539,-1.3878,1.1734,
4.401771,0.2067,-0.9705,-0.0294,-1.2351,-0.4872,-2.3160,-1.2795,-1.0213,1.3970,
4.411618,0.0022,-1.1705,-0.1472,-1.2351,-0.4872,-2.3160,-1.2795,-1.0213,1.3970,
4.413634,0.0022,-1.1705,-0.1472,-3.0741,-2.3193,-3.1278,-1.2795,-1.0213,1.3970,
4.415149,0.0022,-1.1705,-0.1472,-3.0741,-2.3193,-3.1278,-1.5886,-0.6651,1.6963,
4.421357,0.0022,-1.1705,-0.1472,-3.0741,-2.3193,-3.1278,-1.8812,-0.3292,1.9969,
4.436435,0.0087,-1.3950,-0.1082,-3.0741,-2.3193,-3.1278,-1.8812,-0.3292,1.9969,
4.438216,0.0087,-1.3950,-0.1082,-2.6784,-4.3497,-2.3447,-1.8812,-0.3292,1.9969,
4.439632,0.0087,-1.3950,-0.1082,-2.6784,-4.3497,-2.3447,-2.1353,-0.0243,2.2381,
4.443671,0.0087,-1.3950,-0.1082,-2.6784,-4.3497,-2.3447,-2.3277,0.2603,2.3854,
4.451403,0.1176,-1.5725,0.0671,-2.6784,-4.3497,-2.3447,-2.3277,0.2603,2.3854,
4.453226,0.1176,-1.5725,0.0671,-1.1634,-5.9190,-0.1925,-2.3277,0.2603,2.3854,
4.454472,0.1176,-1.5725,0.0671,-1.1634,-5.9190,-0.1925,-2.4255,0.4698,2.4092,
4.461382,0.1176,-1.5725,0.0671,-1.1634,-5.9190,-0.1925,-2.4004,0.6268,2.2754,
4.472476,0.2454,-1.6668,0.3786,-1.1634,-5.9190,-0.1925,-2.4004,0.6268,2.2754,
4.474750,0.2454,-1.6668,0.3786,0.5430,-6.7152,3.2935,-2.4004,0.6268,2.2754,
4.475805,0.2454,-1.6668,0.3786,0.5430,-6.7152,3.2935,-2.2440,0.6849,1.9840,
4.482672,0.2454,-1.6668,0.3786,0.5430,-6.7152,3.2935,-1.9398,0.4796,1.5802,
4.491021,0.1736,-1.6613,0.3761,0.5430,-6.7152,3.2935,-1.9398,0.4796,1.5802,
4.492357,0.1736,-1.6613,0.3761,0.2075,-6.5883,3.6731,-1.9398,0.4796,1.5802,
4.493242,0.1736,-1.6613,0.3761,0.2075,-6.5883,3.6731,-1.6350,-0.1795,1.1606,
4.501252,0.1736,-1.6613,0.3761,0.2075,-6.5883,3.6731,-1.6130,-0.8796,0.8552,
4.510834,0.1307,-1.4717,-0.2163,0.2075,-6.5883,3.6731,-1.6130,-0.8796,0.8552,
4.512083,0.1307,-1.4717,-0.2163,-0.0313,-4.7085,-1.8301,-1.6130,-0.8796,0.8552,
4.513058,0.1307,-1.4717,-0.2163,-0.0313,-4.7085,-1.8301,-1.8891,-1.0934,0.7122,
4.521216,0.1307,-1.4717,-0.2163,-0.0313,-4.7085,-1.8301,-2.3155,-0.7672,0.6646,
4.530917,0.0822,-1.3000,-0.2576,-0.0313,-4.7085,-1.8301,-2.3155,-0.7672,0.6646,
4.531863,0.0822,-1.3000,-0.2576,-0.3639,-3.0291,-1.8108,-2.3155,-0.7672,0.6646,
4.532697,0.0822,-1.3000,-0.2576,-0.3639,-3.0291,-1.8108,-2.7034,-0.2003,0.6823,
4.540976,0.0822,-1.3000,-0.2576,-0.3639,-3.0291,-1.8108,-2.9001,0.2634,0.8075,
4.551154,0.0518,-1.1613,-0.0916,-0.3639,-3.0291,-1.8108,-2.9001,0.2634,0.8075,
4.552123,0.0518,-1.1613,-0.0916,-0.5183,-1.7062,0.3345,-2.9001,0.2634,0.8075,
4.553124,0.0518,-1.1613,-0.0916,-0.5183,-1.7062,0.3345,-2.9032,0.5364,0.9889,
4.561101,0.0518,-1.1613,-0.0916,-0.5183,-1.7062,0.3345,-2.7388,0.5083,1.1704,
4.571183,0.1860,-1.0109,-0.0189,-0.5183,-1.7062,0.3345,-2.7388,0.5083,1.1704,
4.572455,0.1860,-1.0109,-0.0189,0.9770,-0.2882,1.5261,-2.7388,0.5083,1.1704,
4.573319,0.1860,-1.0109,-0.0189,0.9770,-0.2882,1.5261,-2.1151,0.2023,1.0873,
4.581169,0.1860,-1.0109,-0.0189,0.9770,-0.2882,1.5261,-1.7285,-0.2638,0.9016,
4.591430,0.2223,-0.8231,0.0688,0.9770,-0.2882,1.5261,-1.7285,-0.2638,0.9016,
4.592890,0.2223,-0.8231,0.0688,1.4920,1.5098,2.6745,-1.7285,-0.2638,0.9016,
4.595703,0.2223,-0.8231,0.0688,1.4920,1.5098,2.6745,-1.2422,-1.0036,0.6591,
4.601896,0.2223,-0.8231,0.0688,1.4920,1.5098,2.6745,-0.7633,-1.8722,0.4111,
4.611075,0.1181,-0.7082,-0.2354,1.4920,1.5098,2.6745,-0.7633,-1.8722,0.4111,
4.612408,0.1181,-0.7082,-0.2354,0.5955,2.6112,-0.1589,-0.7633,-1.8722,0.4111,
4.613269,0.1181,-0.7082,-0.2354,0.5955,2.6112,-0.1589,-0.5379,-2.5203,0.2119,
4.621104,0.1181,-0.7082,-0.2354,0.5955,2.6112,-0.1589,-0.4646,-2.8783,0.0726,
4.630762,0.1164,-0.5933,-0.1357,0.5955,2.6112,-0.1589,-0.4646,-2.8783,0.0726,
4.631827,0.1164,-0.5933,-0.1357,0.6795,3.7273,0.8872,-0.4646,-2.8783,0.0726,
4.632792,0.1164,-0.5933,-0.1357,0.6795,3.7273,0.8872,-0.4047,-2.9870,-0.0318,
4.641174,0.1164,-0.5933,-0.1357,0.6795,3.7273,0.8872,-0.2532,-2.9547,-0.1039,
4.651027,0.5051,-0.6176,1.0348,0.6795,3.7273,0.8872,-0.2532,-2.9547,-0.1039,
4.652319,0.5051,-0.6176,1.0348,4.5106,3.5121,12.2609,-0.2532,-2.9547,-0.1039,
4.653498,0.5051,-0.6176,1.0348,4.5106,3.5121,12.2609,0.4493,-3.1966,-0.2517,
4.661219,0.5051,-0.6176,1.0348,4.5106,3.5121,12.2609,1.8512,-3.9785,-0.5566,
4.678586,0.3941,-0.8868,-0.3090,4.5106,3.5121,12.2609,1.8512,-3.9785,-0.5566,
4.679995,0.3941,-0.8868,-0.3090,3.3758,0.9329,-1.2080,1.8512,-3.9785,-0.5566,
4.681097,0.3941,-0.8868,-0.3090,3.3758,0.9329,-1.2080,2.4150,-4.0591,-0.8919,
4.691103,0.3941,-0.8868,-0.3090,3.3758,0.9329,-1.2080,2.0351,-3.7219,-0.9322,
4.700905,0.6941,-0.8966,-0.0114,3.3758,0.9329,-1.2080,2.0351,-3.7219,-0.9322,
4.702380,0.6941,-0.8966,-0.0114,6.0791,0.9244,1.0474,2.0351,-3.7219,-0.9322,
4.703460,0.6941,-0.8966,-0.0114,6.0791,0.9244,1.0474,1.7956,-3.6847,-1.0489,
4.711332,0.6941,-0.8966,-0.0114,6.0791,0.9244,1.0474,1.6124,-3.6987,-1.2291,
4.721005,0.7858,-0.7957,-0.1286,6.0791,0.9244,1.0474,1.6124,-3.6987,-1.2291,
4.722563,0.7858,-0.7957,-0.1286,6.6509,1.9151,-0.4088,1.6124,-3.6987,-1.2291,
4.723467,0.7858,-0.7957,-0.1286,6.6509,1.9151,-0.4088,1.2984,-3.3578,-1.3770,
4.731055,0.7858,-0.7957,-0.1286,6.6509,1.9151,-0.4088,0.8787,-2.7219,-1.3464,
4.741201,0.7559,-0.5565,0.1780,6.6509,1.9151,-0.4088,0.8787,-2.7219,-1.3464,
4.742948,0.7559,-0.5565,0.1780,5.9362,4.2190,2.4071,0.8787,-2.7219,-1.3464,
4.744294,0.7559,-0.5565,0.1780,5.9362,4.2190,2.4071,0.6399,-2.2656,-1.1503,
4.751757,0.7559,-0.5565,0.1780,5.9362,4.2190,2.4071,0.9703,-1.7372,-0.3782,
4.761566,0.6362,-0.5356,0.2336,5.9362,4.2190,2.4071,0.9703,-1.7372,-0.3782,
4.763428,0.6362,-0.5356,0.2336,4.4287,4.3766,2.7912,0.9703,-1.7372,-0.3782,
4.764755,0.6362,-0.5356,0.2336,4.4287,4.3766,2.7912,1.2208,-1.4495,-0.0117,
4.771875,0.6362,-0.5356,0.2336,4.4287,4.3766,2.7912,1.3552,-1.2559,0.0409,
4.781557,0.6452,-0.9192,-0.0469,4.4287,4.3766,2.7912,1.3552,-1.2559,0.0409,
4.783140,0.6452,-0.9192,-0.0469,4.3398,0.5922,-0.1952,1.3552,-1.2559,0.0409,
4.784413,0.6452,-0.9192,-0.0469,4.3398,0.5922,-0.1952,1.2770,-1.0194,-0.1009,
4.791976,0.6452,-0.9192,-0.0469,4.3398,0.5922,-0.1952,1.0253,-0.8606,-0.2267,
4.801623,0.5954,-1.3713,-0.1631,4.3398,0.5922,-0.1952,1.0253,-0.8606,-0.2267,
4.803613,0.5954,-1.3713,-0.1631,3.6790,-3.8722,-1.5177,1.0253,-0.8606,-0.2267,
4.805542,0.5954,-1.3713,-0.1631,3.6790,-3.8722,-1.5177,0.6716,-0.9107,-0.2927,
4.811813,0.5954,-1.3713,-0.1631,3.6790,-3.8722,-1.5177,0.2428,-0.7940,-0.3183,
4.822023,0.5703,-1.3886,-0.2231,3.6790,-3.8722,-1.5177,0.2428,-0.7940,-0.3183,
4.824446,0.5703,-1.3886,-0.2231,3.2652,-4.0815,-2.1356,0.2428,-0.7940,-0.3183,
4.826343,0.5703,-1.3886,-0.2231,3.2652,-4.0815,-2.1356,-0.1866,-0.2253,-0.3373,
4.831683,0.5703,-1.3886,-0.2231,3.2652,-4.0815,-2.1356,-0.5104,0.5541,-0.3715,
4.842016,0.3937,-1.1468,-0.1713,3.2652,-4.0815,-2.1356,-0.5104,0.5541,-0.3715,
4.844344,0.3937,-1.1468,-0.1713,1.3828,-1.7503,-1.5425,-0.5104,0.5541,-0.3715,
4.847052,0.3937,-1.1468,-0.1713,1.3828,-1.7503,-1.5425,-0.6943,1.2432,-0.3629,
4.852236,0.3937,-1.1468,-0.1713,1.3828,-1.7503,-1.5425,-0.7731,1.6781,-0.2853,
4.861495,0.1956,-0.9065,-0.1467,1.3828,-1.7503,-1.5425,-0.7731,1.6781,-0.2853,
4.863757,0.1956,-0.9065,-0.1467,-0.6766,0.5711,-1.2077,-0.7731,1.6781,-0.2853,
4.865036,0.1956,-0.9065,-0.1467,-0.6766,0.5711,-1.2077,-0.7920,1.8308,-0.1674,
4.871720,0.1956,-0.9065,-0.1467,-0.6766,0.5711,-1.2077,-0.7810,1.7270,-0.0434,
4.881684,-0.0053,-0.6976,-0.1007,-0.6766,0.5711,-1.2077,-0.7810,1.7270,-0.0434,
4.883180,-0.0053,-0.6976,-0.1007,-2.6863,2.6045,-0.6819,-0.7810,1.7270,-0.0434,
4.884417,-0.0053,-0.6976,-0.1007,-2.6863,2.6045,-0.6819,-0.7584,1.4100,0.0818,
4.891663,-0.0053,-0.6976,-0.1007,-2.6863,2.6045,-0.6819,-0.7376,0.9310,0.2339,
4.901607,-0.1471,-0.5353,-0.0060,-2.6863,2.6045,-0.6819,-0.7376,0.9310,0.2339,
4.903004,-0.1471,-0.5353,-0.0060,-4.0460,4.2005,0.3349,-0.7376,0.9310,0.2339,
4.904639,-0.1471,-0.5353,-0.0060,-4.0460,4.2005,0.3349,-0.7211,0.3141,0.3976,
4.911769,-0.1471,-0.5353,-0.0060,-4.0460,4.2005,0.3349,-0.6320,-0.3151,0.5564,
4.922023,-0.1688,-0.3371,0.3840,-4.0460,4.2005,0.3349,-0.6320,-0.3151,0.5564,
4.924389,-0.1688,-0.3371,0.3840,-4.1180,6.1764,4.2350,-0.6320,-0.3151,0.5564,
4.926459,-0.1688,-0.3371,0.3840,-4.1180,6.1764,4.2350,-0.2593,-0.9492,0.7574,
4.931718,-0.1688,-0.3371,0.3840,-4.1180,6.1764,4.2350,0.1909,-1.1056,0.7018,
4.941891,-0.0031,-0.4209,-0.1694,-4.1180,6.1764,4.2350,0.1909,-1.1056,0.7018,
4.943977,-0.0031,-0.4209,-0.1694,-2.3008,5.4010,-1.1455,0.1909,-1.1056,0.7018,
4.945841,-0.0031,-0.4209,-0.1694,-2.3008,5.4010,-1.1455,-0.0150,-0.6682,0.5442,
4.951893,-0.0031,-0.4209,-0.1694,-2.3008,5.4010,-1.1455,-0.2715,-0.0683,0.3463,
4.961931,0.0485,-0.8895,-0.1888,-2.3008,5.4010,-1.1455,-0.2715,-0.0683,0.3463,
4.964166,0.0485,-0.8895,-0.1888,-1.6611,0.8369,-1.2817,-0.2715,-0.0683,0.3463,
4.965822,0.0485,-0.8895,-0.1888,-1.6611,0.8369,-1.2817,-0.4866,0.6232,0.2217,
4.972269,0.0485,-0.8895,-0.1888,-1.6611,0.8369,-1.2817,-0.6301,1.2860,0.1838,
4.981648,0.2052,-1.2897,-0.1792,-1.6611,0.8369,-1.2817,-0.6301,1.2860,0.1838,
4.983929,0.2052,-1.2897,-0.1792,-0.0715,-3.0779,-1.1092,-0.6301,1.2860,0.1838,
4.986614,0.2052,-1.2897,-0.1792,-0.0715,-3.0779,-1.1092,-0.6753,1.8816,0.1966,
4.991955,0.2052,-1.2897,-0.1792,-0.0715,-3.0779,-1.1092,-0.6491,2.4099,0.2357,
5.002095,0.4184,-1.5054,-0.2631,-0.0715,-3.0779,-1.1092,-0.6491,2.4099,0.2357,
5.004686,0.4184,-1.5054,-0.2631,2.0363,-5.1914,-1.8823,-0.6491,2.4099,0.2357,
5.007009,0.4184,-1.5054,-0.2631,2.0363,-5.1914,-1.8823,-0.6130,2.8125,0.2748,
5.012552,0.4184,-1.5054,-0.2631,2.0363,-5.1914,-1.8823,-0.6222,3.0318,0.3029,
5.022887,0.5637,-1.5142,-0.3509,2.0363,-5.1914,-1.8823,-0.6222,3.0318,0.3029,
5.025689,0.5637,-1.5142,-0.3509,3.4676,-5.2776,-2.7224,-0.6222,3.0318,0.3029,
5.028057,0.5637,-1.5142,-0.3509,3.4676,-5.2776,-2.7224,-0.6918,3.0245,0.3304,
5.032172,0.5637,-1.5142,-0.3509,3.4676,-5.2776,-2.7224,-0.7920,2.6946,0.3726,
5.041801,0.6111,-1.1361,-0.2801,3.4676,-5.2776,-2.7224,-0.7920,2.6946,0.3726,
5.044106,0.6111,-1.1361,-0.2801,3.9219,-1.5796,-1.9667,-0.7920,2.6946,0.3726,
5.045720,0.6111,-1.1361,-0.2801,3.9219,-1.5796,-1.9667,-0.8824,1.8382,0.4214,
5.051901,0.6111,-1.1361,-0.2801,3.9219,-1.5796,-1.9667,-0.9362,0.4955,0.4556,
5.061773,0.5982,-1.0421,-0.1353,3.9219,-1.5796,-1.9667,-0.9362,0.4955,0.4556,
5.063991,0.5982,-1.0421,-0.1353,3.7957,-0.6715,-0.3936,-0.9362,0.4955,0.4556,
5.065590,0.5982,-1.0421,-0.1353,3.7957,-0.6715,-0.3936,-0.9221,-0.8075,0.4789,
5.072096,0.5982,-1.0421,-0.1353,3.7957,-0.6715,-0.3936,-0.8262,-1.5356,0.4581,
5.081597,0.5979,-1.1966,-0.0585,3.7957,-0.6715,-0.3936,-0.8262,-1.5356,0.4581,
5.083489,0.5979,-1.1966,-0.0585,3.8315,-2.2015,0.5775,-0.8262,-1.5356,0.4581,
5.086436,0.5979,-1.1966,-0.0585,3.8315,-2.2015,0.5775,-0.6778,-1.6419,0.3726,
5.091811,0.5979,-1.1966,-0.0585,3.8315,-2.2015,0.5775,-0.5159,-1.3316,0.2608,
5.101338,0.5774,-1.2391,-0.0112,3.8315,-2.2015,0.5775,-0.5159,-1.3316,0.2608,
5.103416,0.5774,-1.2391,-0.0112,3.6470,-2.6349,1.1983,-0.5159,-1.3316,0.2608,
5.105290,0.5774,-1.2391,-0.0112,3.6470,-2.6349,1.1983,-0.3803,-0.9058,0.1465,
5.111590,0.5774,-1.2391,-0.0112,3.6470,-2.6349,1.1983,-0.3015,-0.6474,0.0690,
5.121736,0.6016,-1.1354,0.0662,3.6470,-2.6349,1.1983,-0.3015,-0.6474,0.0690,
5.124692,0.6016,-1.1354,0.0662,3.8375,-1.6372,2.0186,-0.3015,-0.6474,0.0690,
5.126282,0.6016,-1.1354,0.0662,3.8375,-1.6372,2.0186,-0.2703,-0.7830,0.0451,
5.131638,0.6016,-1.1354,0.0662,3.8375,-1.6372,2.0186,-0.2819,-0.8600,0.0103,
5.141243,0.7108,-0.9767,0.1358,3.8375,-1.6372,2.0186,-0.2819,-0.8600,0.0103,
5.143444,0.7108,-0.9767,0.1358,4.8303,-0.1042,2.7347,-0.2819,-0.8600,0.0103,
5.144921,0.7108,-0.9767,0.1358,4.8303,-0.1042,2.7347,-0.3021,-0.7867,-0.0404,
5.151404,0.7108,-0.9767,0.1358,4.8303,-0.1042,2.7347,-0.2862,-0.5973,-0.0880,
5.161642,0.7842,-0.8546,0.3668,4.8303,-0.1042,2.7347,-0.2862,-0.5973,-0.0880,
5.163696,0.7842,-0.8546,0.3668,5.4292,1.0651,4.9973,-0.2862,-0.5973,-0.0880,
5.165180,0.7842,-0.8546,0.3668,5.4292,1.0651,4.9973,-0.1763,-0.4465,-0.1448,
5.172571,0.7842,-0.8546,0.3668,5.4292,1.0651,4.9973,0.0956,-0.4086,-0.2279,
5.181646,0.8050,-0.7516,0.5176,5.4292,1.0651,4.9973,0.0956,-0.4086,-0.2279,
5.183373,0.8050,-0.7516,0.5176,5.4619,2.0455,6.3793,0.0956,-0.4086,-0.2279,
5.184776,0.8050,-0.7516,0.5176,5.4619,2.0455,6.3793,0.5366,-0.3170,-0.3513,
5.191999,0.8050,-0.7516,0.5176,5.4619,2.0455,6.3793,0.9838,0.0569,-0.5156,
5.201213,0.7519,-0.9203,0.3472,5.4619,2.0455,6.3793,0.9838,0.0569,-0.5156,
5.205070,0.7519,-0.9203,0.3472,4.7190,0.3650,4.4475,0.9838,0.0569,-0.5156,
5.206848,0.7519,-0.9203,0.3472,4.7190,0.3650,4.4475,1.3014,0.5138,-0.7362,
5.211875,0.7519,-0.9203,0.3472,4.7190,0.3650,4.4475,1.5305,0.6024,-0.9915,
5.223032,0.5658,-0.9958,0.2945,4.7190,0.3650,4.4475,1.5305,0.6024,-0.9915,
5.225468,0.5658,-0.9958,0.2945,2.6067,-0.4242,3.5208,1.5305,0.6024,-0.9915,
5.227511,0.5658,-0.9958,0.2945,2.6067,-0.4242,3.5208,1.7315,0.3953,-1.1876,
5.231505,0.5658,-0.9958,0.2945,2.6067,-0.4242,3.5208,1.8775,0.3483,-1.3122,
5.241519,0.3661,-0.9219,0.0889,2.6067,-0.4242,3.5208,1.8775,0.3483,-1.3122,
5.243647,0.3661,-0.9219,0.0889,0.3324,0.2141,1.0628,1.8775,0.3483,-1.3122,
5.245113,0.3661,-0.9219,0.0889,0.3324,0.2141,1.0628,1.9001,0.6305,-1.3763,
5.251567,0.3661,-0.9219,0.0889,0.3324,0.2141,1.0628,1.7920,1.0349,-1.4026,
5.261542,0.2188,-0.8628,-0.1209,0.3324,0.2141,1.0628,1.7920,1.0349,-1.4026,
5.263566,0.2188,-0.8628,-0.1209,-1.4028,0.6846,-1.4233,1.7920,1.0349,-1.4026,
5.265045,0.2188,-0.8628,-0.1209,-1.4028,0.6846,-1.4233,1.5782,1.3635,-1.4362,
5.272186,0.2188,-0.8628,-0.1209,-1.4028,0.6846,-1.4233,1.2373,1.5975,-1.4777,
5.281710,0.1308,-1.0228,-0.3656,-1.4028,0.6846,-1.4233,1.2373,1.5975,-1.4777,
5.283609,0.1308,-1.0228,-0.3656,-2.5141,-1.0004,-4.1712,1.2373,1.5975,-1.4777,
5.285141,0.1308,-1.0228,-0.3656,-2.5141,-1.0004,-4.1712,0.7565,1.9090,-1.5205,
5.291823,0.1308,-1.0228,-0.3656,-2.5141,-1.0004,-4.1712,0.2349,2.2804,-1.5175,
5.301678,-0.0211,-1.4479,-0.4291,-2.5141,-1.0004,-4.1712,0.2349,2.2804,-1.5175,
5.303637,-0.0211,-1.4479,-0.4291,-4.1840,-5.2579,-4.9702,0.2349,2.2804,-1.5175,
5.305826,-0.0211,-1.4479,-0.4291,-4.1840,-5.2579,-4.9702,-0.2025,2.2157,-1.1729,
5.311664,-0.0211,-1.4479,-0.4291,-4.1840,-5.2579,-4.9702,-0.8109,1.5651,-0.9732,
5.324177,0.0880,-1.4291,-0.4440,-4.1840,-5.2579,-4.9702,-0.8109,1.5651,-0.9732,
5.327076,0.0880,-1.4291,-0.4440,-3.1905,-5.1043,-5.0788,-0.8109,1.5651,-0.9732,
5.329433,0.0880,-1.4291,-0.4440,-3.1905,-5.1043,-5.0788,-1.0046,0.9634,-0.9054,
5.331752,0.0880,-1.4291,-0.4440,-3.1905,-5.1043,-5.0788,-1.1066,0.7948,-0.9756,
5.342077,0.0586,-0.9902,-0.3489,-3.1905,-5.1043,-5.0788,-1.1066,0.7948,-0.9756,
5.344625,0.0586,-0.9902,-0.3489,-3.5349,-0.8139,-3.9230,-1.1066,0.7948,-0.9756,
5.347051,0.0586,-0.9902,-0.3489,-3.5349,-0.8139,-3.9230,-1.1298,1.1583,-1.1265,
5.351738,0.0586,-0.9902,-0.3489,-3.5349,-0.8139,-3.9230,-1.0785,1.7380,-1.2688,
5.361585,-0.2016,-0.7972,-0.4598,-3.5349,-0.8139,-3.9230,-1.0785,1.7380,-1.2688,
5.363958,-0.2016,-0.7972,-0.4598,-6.1544,1.0542,-4.8063,-1.0785,1.7380,-1.2688,
5.365544,-0.2016,-0.7972,-0.4598,-6.1544,1.0542,-4.8063,-1.0009,2.1735,-1.2872,
5.372821,-0.2016,-0.7972,-0.4598,-6.1544,1.0542,-4.8063,-0.9349,2.3635,-1.1754,
5.381964,-0.2110,-0.8471,-0.5444,-6.1544,1.0542,-4.8063,-0.9349,2.3635,-1.1754,
5.383889,-0.2110,-0.8471,-0.5444,-6.2965,0.5444,-5.5033,-0.9349,2.3635,-1.1754,
5.385855,-0.2110,-0.8471,-0.5444,-6.2965,0.5444,-5.5033,-0.9142,2.3990,-1.0251,
5.392176,-0.2110,-0.8471,-0.5444,-6.2965,0.5444,-5.5033,-0.9221,2.4099,-0.9402,
5.401662,-0.1200,-0.9835,-0.3238,-6.2965,0.5444,-5.5033,-0.9221,2.4099,-0.9402,
5.404073,-0.1200,-0.9835,-0.3238,-5.4025,-0.7892,-3.2387,-0.9221,2.4099,-0.9402,
5.405910,-0.1200,-0.9835,-0.3238,-5.4025,-0.7892,-3.2387,-0.8910,2.4613,-0.9151,
5.412646,-0.1200,-0.9835,-0.3238,-5.4025,-0.7892,-3.2387,-0.8048,2.4716,-0.8510,
5.422227,-0.1342,-0.8022,-0.1636,-5.4025,-0.7892,-3.2387,-0.8048,2.4716,-0.8510,
5.424931,-0.1342,-0.8022,-0.1636,-5.5163,1.0001,-1.5991,-0.8048,2.4716,-0.8510,
5.426802,-0.1342,-0.8022,-0.1636,-5.5163,1.0001,-1.5991,-0.7089,2.3831,-0.7392,
5.431802,-0.1342,-0.8022,-0.1636,-5.5163,1.0001,-1.5991,-0.6320,2.2536,-0.5902,
5.442061,-0.1973,-0.5989,-0.0472,-5.5163,1.0001,-1.5991,-0.6320,2.2536,-0.5902,
5.444265,-0.1973,-0.5989,-0.0472,-6.0550,3.0290,-0.4247,-0.6320,2.2536,-0.5902,
5.445931,-0.1973,-0.5989,-0.0472,-6.0550,3.0290,-0.4247,-0.5831,2.0966,-0.3861,
5.451735,-0.1973,-0.5989,-0.0472,-6.0550,3.0290,-0.4247,-0.5306,1.8968,-0.1522,
5.461943,-0.1539,-0.4179,1.1252,-6.0550,3.0290,-0.4247,-0.5306,1.8968,-0.1522,
5.464376,-0.1539,-0.4179,1.1252,-5.4714,4.8743,10.9223,-0.5306,1.8968,-0.1522,
5.466049,-0.1539,-0.4179,1.1252,-5.4714,4.8743,10.9223,-0.0278,1.5755,0.0891,
5.472550,-0.1539,-0.4179,1.1252,-5.4714,4.8743,10.9223,0.9801,1.0025,0.2626,
5.481616,0.0530,-0.4721,-0.0867,-5.4714,4.8743,10.9223,0.9801,1.0025,0.2626,
5.483578,0.0530,-0.4721,-0.0867,-3.2240,4.4313,-1.1772,0.9801,1.0025,0.2626,
5.485824,0.0530,-0.4721,-0.0867,-3.2240,4.4313,-1.1772,1.3784,0.6653,0.3151,
5.491762,0.0530,-0.4721,-0.0867,-3.2240,4.4313,-1.1772,0.4432,1.2902,0.3072,
5.501466,0.2702,-0.7786,-0.3243,-3.2240,4.4313,-1.1772,0.4432,1.2902,0.3072,
5.504393,0.2702,-0.7786,-0.3243,-0.9036,1.4956,-3.7026,0.4432,1.2902,0.3072,
5.506495,0.2702,-0.7786,-0.3243,-0.9036,1.4956,-3.7026,-0.1219,1.8351,0.2040,
5.512218,0.2702,-0.7786,-0.3243,-0.9036,1.4956,-3.7026,-0.5635,2.2963,0.0702,
5.522695,0.3200,-1.2226,-0.2283,-0.9036,1.4956,-3.7026,-0.5635,2.2963,0.0702,
5.525119,0.3200,-1.2226,-0.2283,-0.2784,-2.8050,-2.7825,-0.5635,2.2963,0.0702,
5.526742,0.3200,-1.2226,-0.2283,-0.2784,-2.8050,-2.7825,-0.8610,2.6384,-0.0282,
5.531805,0.3200,-1.2226,-0.2283,-0.2784,-2.8050,-2.7825,-1.0205,2.8602,-0.0514,
5.541384,0.3724,-1.6111,-0.1969,-0.2784,-2.8050,-2.7825,-1.0205,2.8602,-0.0514,
5.543520,0.3724,-1.6111,-0.1969,0.3243,-6.5763,-2.4234,-1.0205,2.8602,-0.0514,
5.545020,0.3724,-1.6111,-0.1969,0.3243,-6.5763,-2.4234,-1.0712,2.8736,0.0177,
5.551597,0.3724,-1.6111,-0.1969,0.3243,-6.5763,-2.4234,-1.0070,2.6170,0.1771,
5.561504,0.6071,-1.3006,-0.0934,0.3243,-6.5763,-2.4234,-1.0070,2.6170,0.1771,
5.563194,0.6071,-1.3006,-0.0934,2.6972,-3.5039,-1.3451,-1.0070,2.6170,0.1771,
5.564631,0.6071,-1.3006,-0.0934,2.6972,-3.5039,-1.3451,-0.8604,2.1589,0.3029,
5.572142,0.6071,-1.3006,-0.0934,2.6972,-3.5039,-1.3451,-0.6234,1.6006,0.2199,
5.581298,0.8564,-0.8852,0.1577,2.6972,-3.5039,-1.3451,-0.6234,1.6006,0.2199,
5.582609,0.8564,-0.8852,0.1577,5.1876,0.5842,1.1509,-0.6234,1.6006,0.2199,
5.583835,0.8564,-0.8852,0.1577,5.1876,0.5842,1.1509,-0.2489,0.9158,-0.0520,
5.591444,0.8564,-0.8852,0.1577,5.1876,0.5842,1.1509,0.1658,0.2505,-0.3904,
5.601100,0.7738,-1.0649,0.0932,5.1876,0.5842,1.1509,0.1658,0.2505,-0.3904,
5.602849,0.7738,-1.0649,0.0932,4.3010,-1.2045,0.5034,0.1658,0.2505,-0.3904,
5.604489,0.7738,-1.0649,0.0932,4.3010,-1.2045,0.5034,0.4939,-0.2693,-0.6482,
5.611240,0.7738,-1.0649,0.0932,4.3010,-1.2045,0.5034,0.6771,-0.5796,-0.6293,
5.621598,0.4503,-1.3333,0.0115,4.3010,-1.2045,0.5034,0.6771,-0.5796,-0.6293,
5.623322,0.4503,-1.3333,0.0115,0.9938,-3.8874,-0.3666,0.6771,-0.5796,-0.6293,
5.624574,0.4503,-1.3333,0.0115,0.9938,-3.8874,-0.3666,0.6973,-0.6774,-0.2762,
5.631632,0.4503,-1.3333,0.0115,0.9938,-3.8874,-0.3666,0.5916,-0.5845,0.1435,
5.640986,0.4881,-1.2638,0.0013,0.9938,-3.8874,-0.3666,0.5916,-0.5845,0.1435,
5.642289,0.4881,-1.2638,0.0013,1.3371,-3.2203,-0.5305,0.5916,-0.5845,0.1435,
5.643343,0.4881,-1.2638,0.0013,1.3371,-3.2203,-0.5305,0.4236,-0.3554,0.3695,
5.651333,0.4881,-1.2638,0.0013,1.3371,-3.2203,-0.5305,0.2434,0.0343,0.4184,
5.661052,0.4950,-1.0547,-0.0782,1.3371,-3.2203,-0.5305,0.2434,0.0343,0.4184,
5.662550,0.4950,-1.0547,-0.0782,1.4592,-1.1522,-1.3412,0.2434,0.0343,0.4184,
5.663649,0.4950,-1.0547,-0.0782,1.4592,-1.1522,-1.3412,0.0632,0.5914,0.3640,
5.672240,0.4950,-1.0547,-0.0782,1.4592,-1.1522,-1.3412,-0.0938,1.2127,0.2315,
5.681033,0.5051,-0.6615,-0.1535,1.4592,-1.1522,-1.3412,-0.0938,1.2127,0.2315,
5.682690,0.5051,-0.6615,-0.1535,1.5824,2.7091,-2.0949,-0.0938,1.2127,0.2315,
5.684114,0.5051,-0.6615,-0.1535,1.5824,2.7091,-2.0949,-0.2935,2.2096,0.1661,
5.691690,0.5051,-0.6615,-0.1535,1.5824,2.7091,-2.0949,-0.3345,2.5938,0.0775,
5.701034,0.5228,-0.6174,-0.1362,1.5824,2.7091,-2.0949,-0.3345,2.5938,0.0775,
5.702751,0.5228,-0.6174,-0.1362,1.7458,3.1344,-1.9710,-0.3345,2.5938,0.0775,
5.704380,0.5228,-0.6174,-0.1362,1.7458,3.1344,-1.9710,-0.3345,2.9383,-0.0190,
5.711752,0.5228,-0.6174,-0.1362,1.7458,3.1344,-1.9710,-0.2783,3.1919,-0.0685,
5.722599,0.5226,-0.8689,-0.1035,1.7458,3.1344,-1.9710,-0.2783,3.1919,-0.0685,
5.724397,0.5226,-0.8689,-0.1035,1.7135,0.6522,-1.7359,-0.2783,3.1919,-0.0685,
5.725785,0.5226,-0.8689,-0.1035,1.7135,0.6522,-1.7359,-0.1646,3.2328,-0.0428,
5.731290,0.5226,-0.8689,-0.1035,1.7135,0.6522,-1.7359,0.0742,2.7300,-0.0581,
5.741824,0.4871,-1.0211,0.1630,1.7135,0.6522,-1.7359,0.0742,2.7300,-0.0581,
5.743634,0.4871,-1.0211,0.1630,1.3501,-0.8586,0.7240,0.0742,2.7300,-0.0581,
5.745011,0.4871,-1.0211,0.1630,1.3501,-0.8586,0.7240,0.5953,1.3495,-0.1729,
5.751111,0.4871,-1.0211,0.1630,1.3501,-0.8586,0.7240,1.1255,-0.0970,-0.3336,
5.761051,0.3309,-0.7758,-0.0302,1.3501,-0.8586,0.7240,1.1255,-0.0970,-0.3336,
5.762735,0.3309,-0.7758,-0.0302,-0.2592,1.4999,-1.3183,1.1255,-0.0970,-0.3336,
5.763811,0.3309,-0.7758,-0.0302,-0.2592,1.4999,-1.3183,1.3973,-0.8899,-0.5156,
5.772214,0.3309,-0.7758,-0.0302,-0.2592,1.4999,-1.3183,1.5458,-1.2058,-0.6958,
5.781550,0.1219,-0.5279,0.2215,-0.2592,1.4999,-1.3183,1.5458,-1.2058,-0.6958,
5.783002,0.1219,-0.5279,0.2215,-2.4521,3.8502,0.9713,1.5458,-1.2058,-0.6958,
5.784267,0.1219,-0.5279,0.2215,-2.4521,3.8502,0.9713,1.7296,-1.2760,-0.8406,
5.791548,0.1219,-0.5279,0.2215,-2.4521,3.8502,0.9713,1.9764,-1.1270,-0.9127,
5.801168,0.0407,-0.4216,0.0428,-2.4521,3.8502,0.9713,1.9764,-1.1270,-0.9127,
5.802246,0.0407,-0.4216,0.0428,-3.4333,4.7830,-1.0035,1.9764,-1.1270,-0.9127,
5.803520,0.0407,-0.4216,0.0428,-3.4333,4.7830,-1.0035,2.1059,-0.5937,-0.9524,
5.811199,0.0407,-0.4216,0.0428,-3.4333,4.7830,-1.0035,1.9459,0.4582,-1.0330,
5.821667,0.0771,-0.5179,-0.1169,-3.4333,4.7830,-1.0035,1.9459,0.4582,-1.0330,
5.822999,0.0771,-0.5179,-0.1169,-3.2247,3.7230,-2.8523,1.9459,0.4582,-1.0330,
5.824238,0.0771,-0.5179,-0.1169,-3.2247,3.7230,-2.8523,1.5782,1.8602,-1.1601,
5.831055,0.0771,-0.5179,-0.1169,-3.2247,3.7230,-2.8523,1.2300,3.2126,-1.2969,
5.841012,0.0602,-0.7791,-0.0689,-3.2247,3.7230,-2.8523,1.2300,3.2126,-1.2969,
5.842402,0.0602,-0.7791,-0.0689,-3.4474,1.0606,-2.7374,1.2300,3.2126,-1.2969,
5.843377,0.0602,-0.7791,-0.0689,-3.4474,1.0606,-2.7374,1.0137,4.0727,-1.4356,
5.851091,0.0602,-0.7791,-0.0689,-3.4474,1.0606,-2.7374,0.9746,4.1931,-1.5346,
5.860801,-0.2281,-1.0917,0.3422,-3.4474,1.0606,-2.7374,0.9746,4.1931,-1.5346,
5.862048,-0.2281,-1.0917,0.3422,-6.2153,-2.0958,0.8389,0.9746,4.1931,-1.5346,
5.862845,-0.2281,-1.0917,0.3422,-6.2153,-2.0958,0.8389,1.3375,3.0135,-1.2603,
5.871463,-0.2281,-1.0917,0.3422,-6.2153,-2.0958,0.8389,1.5018,2.4338,-1.0062,
5.881128,0.1259,-1.1489,0.4445,-6.2153,-2.0958,0.8389,1.5018,2.4338,-1.0062,
5.882635,0.1259,-1.1489,0.4445,-2.6729,-2.7575,1.4179,1.5018,2.4338,-1.0062,
5.884086,0.1259,-1.1489,0.4445,-2.6729,-2.7575,1.4179,1.4798,1.6879,-0.8608,
5.890973,0.1259,-1.1489,0.4445,-2.6729,-2.7575,1.4179,1.2031,1.1076,-0.9426,
5.900937,0.4520,-0.9262,0.4463,-2.6729,-2.7575,1.4179,1.2031,1.1076,-0.9426,
5.902030,0.4520,-0.9262,0.4463,0.5365,-0.6832,1.1231,1.2031,1.1076,-0.9426,
5.903133,0.4520,-0.9262,0.4463,0.5365,-0.6832,1.1231,0.6930,0.7905,-1.1186,
5.911074,0.4520,-0.9262,0.4463,0.5365,-0.6832,1.1231,0.0705,0.4863,-1.1570,
5.921472,0.4555,-0.8063,0.3541,0.5365,-0.6832,1.1231,0.0705,0.4863,-1.1570,
5.922851,0.4555,-0.8063,0.3541,0.4750,0.4072,0.1217,0.0705,0.4863,-1.1570,
5.923835,0.4555,-0.8063,0.3541,0.4750,0.4072,0.1217,-0.5128,0.0508,-1.0355,
5.931241,0.4555,-0.8063,0.3541,0.4750,0.4072,0.1217,-0.9582,-0.4324,-0.8119,
5.940800,0.5113,-0.8520,0.5697,0.4750,0.4072,0.1217,-0.9582,-0.4324,-0.8119,
5.942134,0.5113,-0.8520,0.5697,0.8797,-0.0593,2.3632,-0.9582,-0.4324,-0.8119,
5.942850,0.5113,-0.8520,0.5697,0.8797,-0.0593,2.3632,-1.2153,-0.8490,-0.5572,
5.951037,0.5113,-0.8520,0.5697,0.8797,-0.0593,2.3632,-1.3222,-1.1783,-0.3391,
5.961521,0.5286,-0.9455,0.6817,0.8797,-0.0593,2.3632,-1.3222,-1.1783,-0.3391,
5.962775,0.5286,-0.9455,0.6817,0.9358,-0.9370,3.7157,-1.3222,-1.1783,-0.3391,
5.963509,0.5286,-0.9455,0.6817,0.9358,-0.9370,3.7157,-1.3943,-1.5399,-0.1381,
5.971404,0.5286,-0.9455,0.6817,0.9358,-0.9370,3.7157,-1.5287,-1.9693,0.0952,
5.981068,0.4957,-0.9948,0.7543,0.9358,-0.9370,3.7157,-1.5287,-1.9693,0.0952,
5.981944,0.4957,-0.9948,0.7543,0.5406,-1.3534,4.7383,-1.5287,-1.9693,0.0952,
5.982709,0.4957,-0.9948,0.7543,0.5406,-1.3534,4.7383,-1.6576,-2.2864,0.3573,
5.991880,0.4957,-0.9948,0.7543,0.5406,-1.3534,4.7383,-1.6454,-2.3420,0.5913,
6.001536,0.3881,-1.0461,0.7285,0.5406,-1.3534,4.7383,-1.6454,-2.3420,0.5913,
6.003658,0.3881,-1.0461,0.7285,-0.5125,-1.7471,4.8563,-1.6454,-2.3420,0.5913,
6.005525,0.3881,-1.0461,0.7285,-0.5125,-1.7471,4.8563,-1.5049,-2.1709,0.7892,
6.012064,0.3881,-1.0461,0.7285,-0.5125,-1.7471,4.8563,-1.3173,-1.8117,0.9449,
6.023855,0.3111,-1.1514,0.5917,-0.5125,-1.7471,4.8563,-1.3173,-1.8117,0.9449,
6.026379,0.3111,-1.1514,0.5917,-1.1602,-2.6526,3.8102,-1.3173,-1.8117,0.9449,
6.028475,0.3111,-1.1514,0.5917,-1.1602,-2.6526,3.8102,-1.1298,-1.3811,1.0311,
6.031676,0.3111,-1.1514,0.5917,-1.1602,-2.6526,3.8102,-1.0003,-0.9962,1.0580,
6.041751,0.0931,-1.2626,0.3165,-1.1602,-2.6526,3.8102,-1.0003,-0.9962,1.0580,
6.044189,0.0931,-1.2626,0.3165,-3.0993,-3.6085,1.2967,-1.0003,-0.9962,1.0580,
6.046334,0.0931,-1.2626,0.3165,-3.0993,-3.6085,1.2967,-0.9765,-0.5454,1.2009,
6.051991,0.0931,-1.2626,0.3165,-3.0993,-3.6085,1.2967,-1.2172,-0.3634,1.3890,
6.061803,-0.0032,-1.1190,-0.2690,-3.0993,-3.6085,1.2967,-1.2172,-0.3634,1.3890,
6.064360,-0.0032,-1.1190,-0.2690,-3.7547,-2.0395,-4.2520,-1.2172,-0.3634,1.3890,
6.066366,-0.0032,-1.1190,-0.2690,-3.7547,-2.0395,-4.2520,-1.5305,-0.2687,1.5796,
6.074014,-0.0032,-1.1190,-0.2690,-3.7547,-2.0395,-4.2520,-1.8396,-0.3108,1.6914,
6.082316,0.1677,-0.9249,0.2957,-3.7547,-2.0395,-4.2520,-1.8396,-0.3108,1.6914,
6.084165,0.1677,-0.9249,0.2957,-1.7316,0.0440,1.5509,-1.8396,-0.3108,1.6914,
6.086152,0.1677,-0.9249,0.2957,-1.7316,0.0440,1.5509,-1.8940,-0.4532,1.6817,
6.091912,0.1677,-0.9249,0.2957,-1.7316,0.0440,1.5509,-1.4866,-0.6829,1.5845,
6.101773,-0.1030,-0.9473,0.6891,-1.7316,0.0440,1.5509,-1.4866,-0.6829,1.5845,
6.104477,-0.1030,-0.9473,0.6891,-4.0226,-0.0174,5.6443,-1.4866,-0.6829,1.5845,
6.106852,-0.1030,-0.9473,0.6891,-4.0226,-0.0174,5.6443,-0.7584,-0.9425,1.6383,
6.112136,-0.1030,-0.9473,0.6891,-4.0226,-0.0174,5.6443,-0.1262,-1.1196,1.9388,
6.124928,0.2195,-0.9074,0.6843,-4.0226,-0.0174,5.6443,-0.1262,-1.1196,1.9388,
6.127941,0.2195,-0.9074,0.6843,-0.4993,0.4849,5.6025,-0.1262,-1.1196,1.9388,
6.129881,0.2195,-0.9074,0.6843,-0.4993,0.4849,5.6025,0.2288,-1.2583,2.2693,
6.131849,0.2195,-0.9074,0.6843,-0.4993,0.4849,5.6025,0.3815,-1.6431,2.2937,
6.141208,1.5873,-0.8879,0.4710,-0.4993,0.4849,5.6025,0.3815,-1.6431,2.2937,
6.144085,1.5873,-0.8879,0.4710,13.2067,0.7425,3.4071,0.3815,-1.6431,2.2937,
6.145325,1.5873,-0.8879,0.4710,13.2067,0.7425,3.4071,0.4254,-2.6175,1.6890,
6.151398,1.5873,-0.8879,0.4710,13.2067,0.7425,3.4071,0.1445,-3.3212,0.5332,
6.161313,1.7486,-1.0141,-0.6452,13.2067,0.7425,3.4071,0.1445,-3.3212,0.5332,
6.163249,1.7486,-1.0141,-0.6452,14.7414,-0.4973,-7.4640,0.1445,-3.3212,0.5332,
6.164557,1.7486,-1.0141,-0.6452,14.7414,-0.4973,-7.4640,-0.6894,-2.1282,-0.7001,
6.171786,1.7486,-1.0141,-0.6452,14.7414,-0.4973,-7.4640,-1.3400,0.3526,-1.6011,
6.181170,2.0038,-0.5314,0.7655,14.7414,-0.4973,-7.4640,-1.3400,0.3526,-1.6011,
6.182275,2.0038,-0.5314,0.7655,16.9925,4.1919,6.5921,-1.3400,0.3526,-1.6011,
6.183156,2.0038,-0.5314,0.7655,16.9925,4.1919,6.5921,-0.7951,2.1619,-2.1375,
6.191332,2.0038,-0.5314,0.7655,16.9925,4.1919,6.5921,0.6026,2.5743,-2.4191,
6.201029,1.9149,-0.0506,0.0789,16.9925,4.1919,6.5921,0.6026,2.5743,-2.4191,
6.202016,1.9149,-0.0506,0.0789,15.7396,8.7758,-0.2530,0.6026,2.5743,-2.4191,
6.203220,1.9149,-0.0506,0.0789,15.7396,8.7758,-0.2530,1.6741,2.2102,-2.5077,
6.211411,1.9149,-0.0506,0.0789,15.7396,8.7758,-0.2530,1.9575,1.7624,-2.4826,
6.222486,1.3536,0.2409,-0.0751,15.7396,8.7758,-0.2530,1.9575,1.7624,-2.4826,
6.223567,1.3536,0.2409,-0.0751,9.6340,11.3470,-2.2301,1.9575,1.7624,-2.4826,
6.224753,1.3536,0.2409,-0.0751,9.6340,11.3470,-2.2301,1.6960,1.2762,-2.3012,
6.232170,1.3536,0.2409,-0.0751,9.6340,11.3470,-2.2301,1.1457,-0.2681,-1.4246,
6.241685,0.5415,-0.3414,0.3309,9.6340,11.3470,-2.2301,1.1457,-0.2681,-1.4246,
6.245249,0.5415,-0.3414,0.3309,1.0801,5.3172,1.4381,1.1457,-0.2681,-1.4246,
6.249565,0.5415,-0.3414,0.3309,1.0801,5.3172,1.4381,1.0589,-0.3322,-1.1424,
6.252268,0.5415,-0.3414,0.3309,1.0801,5.3172,1.4381,0.8836,0.6849,-0.9316,
6.261972,0.3077,-0.6047,-0.0547,1.0801,5.3172,1.4381,0.8836,0.6849,-0.9316,
6.264320,0.3077,-0.6047,-0.0547,-1.6014,2.4973,-2.5132,0.8836,0.6849,-0.9316,
6.266314,0.3077,-0.6047,-0.0547,-1.6014,2.4973,-2.5132,0.5104,2.5804,-0.7453,
6.274317,0.3077,-0.6047,-0.0547,-1.6014,2.4973,-2.5132,-0.0461,4.8736,-0.6616,
6.282150,0.3717,-0.7457,-0.3108,-1.6014,2.4973,-2.5132,-0.0461,4.8736,-0.6616,
6.284196,0.3717,-0.7457,-0.3108,-1.0986,0.9669,-5.3280,-0.0461,4.8736,-0.6616,
6.286124,0.3717,-0.7457,-0.3108,-1.0986,0.9669,-5.3280,-0.6662,6.9670,-0.7074,
6.291884,0.3717,-0.7457,-0.3108,-1.0986,0.9669,-5.3280,-1.2031,8.3488,-0.7985,
6.302101,0.3203,-0.8673,-0.3507,-1.0986,0.9669,-5.3280,-1.2031,8.3488,-0.7985,
6.304599,0.3203,-0.8673,-0.3507,-1.4623,-0.2679,-6.1279,-1.2031,8.3488,-0.7985,
6.306978,0.3203,-0.8673,-0.3507,-1.4623,-0.2679,-6.1279,-1.5684,8.8051,-0.8504,
6.312441,0.3203,-0.8673,-0.3507,-1.4623,-0.2679,-6.1279,-1.7327,8.4661,-0.8290,
6.324261,0.1739,-0.9777,-0.4030,-1.4623,-0.2679,-6.1279,-1.7327,8.4661,-0.8290,
6.327270,0.1739,-0.9777,-0.4030,-2.6082,-1.2978,-6.9406,-1.7327,8.4661,-0.8290,
6.329645,0.1739,-0.9777,-0.4030,-2.6082,-1.2978,-6.9406,-1.7731,7.5638,-0.7178,
6.332373,0.1739,-0.9777,-0.4030,-2.6082,-1.2978,-6.9406,-1.8005,6.4710,-0.5749,
6.341568,0.0916,-1.1256,-0.4065,-2.6082,-1.2978,-6.9406,-1.8005,6.4710,-0.5749,
6.344386,0.0916,-1.1256,-0.4065,-3.1141,-2.6229,-7.0456,-1.8005,6.4710,-0.5749,
6.347109,0.0916,-1.1256,-0.4065,-3.1141,-2.6229,-7.0456,-1.8396,5.3952,-0.4264,
6.352004,0.0916,-1.1256,-0.4065,-3.1141,-2.6229,-7.0456,-1.8396,4.1375,-0.2664,
6.361748,0.0568,-1.3102,-0.3327,-3.1141,-2.6229,-7.0456,-1.8396,4.1375,-0.2664,
6.364010,0.0568,-1.3102,-0.3327,-3.2058,-4.2641,-6.1708,-1.8396,4.1375,-0.2664,
6.365611,0.0568,-1.3102,-0.3327,-3.2058,-4.2641,-6.1708,-1.7352,2.5120,-0.0960,
6.373435,0.0568,-1.3102,-0.3327,-3.2058,-4.2641,-6.1708,-1.5244,0.7545,0.0726,
6.381814,-0.1672,-1.5461,0.3242,-3.2058,-4.2641,-6.1708,-1.5244,0.7545,0.0726,
6.383510,-0.1672,-1.5461,0.3242,-5.2352,-6.4098,0.5663,-1.5244,0.7545,0.0726,
6.385065,-0.1672,-1.5461,0.3242,-5.2352,-6.4098,0.5663,-1.1878,-0.5436,0.2431,
6.391726,-0.1672,-1.5461,0.3242,-5.2352,-6.4098,0.5663,-0.6509,-1.0775,0.4874,
6.401741,-0.5097,-1.6119,1.0782,-5.2352,-6.4098,0.5663,-0.6509,-1.0775,0.4874,
6.403668,-0.5097,-1.6119,1.0782,-8.4292,-6.9225,8.1952,-0.6509,-1.0775,0.4874,
6.405624,-0.5097,-1.6119,1.0782,-8.4292,-6.9225,8.1952,0.0956,-0.8289,0.8289,
6.411812,-0.5097,-1.6119,1.0782,-8.4292,-6.9225,8.1952,1.0681,0.7643,1.3561,
6.424421,-0.5233,-1.2516,0.4147,-8.4292,-6.9225,8.1952,1.0681,0.7643,1.3561,
6.427738,-0.5233,-1.2516,0.4147,-8.2021,-3.2854,1.5983,1.0681,0.7643,1.3561,
6.430260,-0.5233,-1.2516,0.4147,-8.2021,-3.2854,1.5983,0.3998,0.7417,1.1917,
6.432534,-0.5233,-1.2516,0.4147,-8.2021,-3.2854,1.5983,-0.9136,0.3403,0.8411,
6.441823,-0.6689,-1.1746,0.5220,-8.2021,-3.2854,1.5983,-0.9136,0.3403,0.8411,
6.444389,-0.6689,-1.1746,0.5220,-9.2250,-2.4037,2.6464,-0.9136,0.3403,0.8411,
6.446719,-0.6689,-1.1746,0.5220,-9.2250,-2.4037,2.6464,-2.1274,0.0679,0.5583,
6.451994,-0.6689,-1.1746,0.5220,-9.2250,-2.4037,2.6464,-2.9850,-0.3359,0.3866,
6.461738,-0.3476,-1.1123,-0.0006,-9.2250,-2.4037,2.6464,-2.9850,-0.3359,0.3866,
6.464355,-0.3476,-1.1123,-0.0006,-5.8025,-1.6037,-2.0047,-2.9850,-0.3359,0.3866,
6.466393,-0.3476,-1.1123,-0.0006,-5.8025,-1.6037,-2.0047,-3.5330,-1.0818,0.2425,
6.474248,-0.3476,-1.1123,-0.0006,-5.8025,-1.6037,-2.0047,-3.7260,-1.8307,0.0946,
6.482316,-0.1759,-1.0075,-0.2248,-5.8025,-1.6037,-2.0047,-3.7260,-1.8307,0.0946,
6.484549,-0.1759,-1.0075,-0.2248,-3.9530,-0.4051,-3.4466,-3.7260,-1.8307,0.0946,
6.486485,-0.1759,-1.0075,-0.2248,-3.9530,-0.4051,-3.4466,-3.5830,-2.2424,0.0042,
6.492058,-0.1759,-1.0075,-0.2248,-3.9530,-0.4051,-3.4466,-3.3149,-2.4208,-0.0239,
6.502241,-0.0468,-0.8889,0.1590,-3.9530,-0.4051,-3.4466,-3.3149,-2.4208,-0.0239,
6.504597,-0.0468,-0.8889,0.1590,-2.5679,0.8519,1.0437,-3.3149,-2.4208,-0.0239,
6.506931,-0.0468,-0.8889,0.1590,-2.5679,0.8519,1.0437,-2.8158,-2.3328,-0.0385,
6.512549,-0.0468,-0.8889,0.1590,-2.5679,0.8519,1.0437,-1.7877,-1.9962,-0.1516,
6.524789,0.0884,-1.0790,0.5122,-2.5679,0.8519,1.0437,-1.7877,-1.9962,-0.1516,
6.527369,0.0884,-1.0790,0.5122,-1.1439,-0.9759,4.9524,-1.7877,-1.9962,-0.1516,
6.529789,0.0884,-1.0790,0.5122,-1.1439,-0.9759,4.9524,-0.1359,-1.4831,-0.4026,
6.532283,0.0884,-1.0790,0.5122,-1.1439,-0.9759,4.9524,0.9917,-1.4196,-0.4490,
6.542197,0.0285,-1.0008,-0.1898,-1.1439,-0.9759,4.9524,0.9917,-1.4196,-0.4490,
6.545279,0.0285,-1.0008,-0.1898,-1.7020,-0.2042,-1.9896,0.9917,-1.4196,-0.4490,
6.547482,0.0285,-1.0008,-0.1898,-1.7020,-0.2042,-1.9896,1.3149,-1.8777,-0.2719,
6.551979,0.0285,-1.0008,-0.1898,-1.7020,-0.2042,-1.9896,1.4022,-2.3298,-0.1186,
6.561715,0.0917,-0.7681,-0.0804,-1.7020,-0.2042,-1.9896,1.4022,-2.3298,-0.1186,
6.563982,0.0917,-0.7681,-0.0804,-1.0345,2.0815,-1.1070,1.4022,-2.3298,-0.1186,
6.565572,0.0917,-0.7681,-0.0804,-1.0345,2.0815,-1.1070,1.5116,-2.5949,-0.0324,
6.573743,0.0917,-0.7681,-0.0804,-1.0345,2.0815,-1.1070,1.4438,-2.7018,0.0812,
6.581873,0.0690,-0.7868,-0.3395,-1.0345,2.0815,-1.1070,1.4438,-2.7018,0.0812,
6.583576,0.0690,-0.7868,-0.3395,-1.1944,1.9050,-3.7878,1.4438,-2.7018,0.0812,
6.585146,0.0690,-0.7868,-0.3395,-1.1944,1.9050,-3.7878,1.0962,-2.6401,0.2559,
6.591765,0.0690,-0.7868,-0.3395,-1.1944,1.9050,-3.7878,0.6875,-2.3939,0.4361,
6.601787,0.3949,-0.9125,-0.2304,-1.1944,1.9050,-3.7878,0.6875,-2.3939,0.4361,
6.603618,0.3949,-0.9125,-0.2304,2.0695,0.6858,-2.7344,0.6875,-2.3939,0.4361,
6.605759,0.3949,-0.9125,-0.2304,2.0695,0.6858,-2.7344,0.0944,-1.5888,0.5296,
6.612114,0.3949,-0.9125,-0.2304,2.0695,0.6858,-2.7344,-0.1207,-1.1251,0.3964,
6.624715,0.6236,-0.9263,-0.2744,2.0695,0.6858,-2.7344,-0.1207,-1.1251,0.3964,
6.627295,0.6236,-0.9263,-0.2744,4.3553,0.5642,-3.0386,-0.1207,-1.1251,0.3964,
6.629557,0.6236,-0.9263,-0.2744,4.3553,0.5642,-3.0386,-0.3155,-0.6859,0.1679,
6.632132,0.6236,-0.9263,-0.2744,4.3553,0.5642,-3.0386,-0.4261,-0.2650,-0.1363,
6.642205,0.7486,-1.1099,-0.2329,4.3553,0.5642,-3.0386,-0.4261,-0.2650,-0.1363,
6.645202,0.7486,-1.1099,-0.2329,5.5055,-1.2444,-2.4714,-0.4261,-0.2650,-0.1363,
6.647337,0.7486,-1.1099,-0.2329,5.5055,-1.2444,-2.4714,-0.3943,0.0679,-0.4173,
6.652284,0.7486,-1.1099,-0.2329,5.5055,-1.2444,-2.4714,-0.2673,0.1827,-0.5902,
6.661845,0.8960,-1.2967,-0.3046,5.5055,-1.2444,-2.4714,-0.2673,0.1827,-0.5902,
6.664653,0.8960,-1.2967,-0.3046,6.7549,-3.1123,-3.0417,-0.2673,0.1827,-0.5902,
6.666653,0.8960,-1.2967,-0.3046,6.7549,-3.1123,-3.0417,-0.0852,0.0490,-0.6250,
6.674617,0.8960,-1.2967,-0.3046,6.7549,-3.1123,-3.0417,0.1719,-0.4287,-0.5492,
6.682027,0.9688,-1.1795,-0.3645,6.7549,-3.1123,-3.0417,0.1719,-0.4287,-0.5492,
6.684216,0.9688,-1.1795,-0.3645,7.2385,-2.0155,-3.5495,0.1719,-0.4287,-0.5492,
6.686096,0.9688,-1.1795,-0.3645,7.2385,-2.0155,-3.5495,0.4804,-1.2797,-0.4087,
6.692264,0.9688,-1.1795,-0.3645,7.2385,-2.0155,-3.5495,0.6344,-2.1062,-0.2169,
6.701698,0.8155,-0.9315,-0.5304,7.2385,-2.0155,-3.5495,0.6344,-2.1062,-0.2169,
6.704149,0.8155,-0.9315,-0.5304,5.5495,0.3681,-5.1027,0.6344,-2.1062,-0.2169,
6.706561,0.8155,-0.9315,-0.5304,5.5495,0.3681,-5.1027,0.5421,-2.6602,-0.0575,
6.712157,0.8155,-0.9315,-0.5304,5.5495,0.3681,-5.1027,0.3143,-3.0023,-0.0037,
6.724808,0.5498,-0.8870,-0.3450,5.5495,0.3681,-5.1027,0.3143,-3.0023,-0.0037,
6.727609,0.5498,-0.8870,-0.3450,2.8281,0.7711,-3.1273,0.3143,-3.0023,-0.0037,
6.730221,0.5498,-0.8870,-0.3450,2.8281,0.7711,-3.1273,0.1280,-3.2644,0.0189,
6.732871,0.5498,-0.8870,-0.3450,2.8281,0.7711,-3.1273,0.0919,-3.5747,0.0280,
6.742014,0.2394,-0.8872,0.1303,2.8281,0.7711,-3.1273,0.0919,-3.5747,0.0280,
6.744854,0.2394,-0.8872,0.1303,-0.2774,0.7433,1.7396,0.0919,-3.5747,0.0280,
6.747114,0.2394,-0.8872,0.1303,-0.2774,0.7433,1.7396,0.2984,-4.1123,0.0476,
6.751924,0.2394,-0.8872,0.1303,-0.2774,0.7433,1.7396,0.9013,-5.1257,0.1508,
6.762625,-0.0177,-0.9237,0.2520,-0.2774,0.7433,1.7396,0.9013,-5.1257,0.1508,
6.765128,-0.0177,-0.9237,0.2520,-2.7612,0.3880,3.0634,0.9013,-5.1257,0.1508,
6.767361,-0.0177,-0.9237,0.2520,-2.7612,0.3880,3.0634,1.6997,-6.2637,0.2938,
6.774611,-0.0177,-0.9237,0.2520,-2.7612,0.3880,3.0634,2.2770,-6.9351,0.3805,
6.781582,-0.0353,-0.7787,-0.0408,-2.7612,0.3880,3.0634,2.2770,-6.9351,0.3805,
6.783314,-0.0353,-0.7787,-0.0408,-2.7978,1.8476,0.1524,2.2770,-6.9351,0.3805,
6.784947,-0.0353,-0.7787,-0.0408,-2.7978,1.8476,0.1524,2.4602,-6.6816,0.2754,
6.791769,-0.0353,-0.7787,-0.0408,-2.7978,1.8476,0.1524,2.2642,-6.0328,0.1288,
6.801647,0.0292,-0.3424,0.1597,-2.7978,1.8476,0.1524,2.2642,-6.0328,0.1288,
6.803355,0.0292,-0.3424,0.1597,-2.0686,6.1557,1.9687,2.2642,-6.0328,0.1288,
6.805512,0.0292,-0.3424,0.1597,-2.0686,6.1557,1.9687,2.0699,-5.2271,-0.0269,
6.811575,0.0292,-0.3424,0.1597,-2.0686,6.1557,1.9687,1.9575,-4.4867,-0.1833,
6.821923,0.2669,-0.2478,0.1840,-2.0686,6.1557,1.9687,1.9575,-4.4867,-0.1833,
6.823965,0.2669,-0.2478,0.1840,0.2398,7.0831,2.0205,1.9575,-4.4867,-0.1833,
6.825845,0.2669,-0.2478,0.1840,0.2398,7.0831,2.0205,1.9141,-4.0347,-0.3745,
6.831979,0.2669,-0.2478,0.1840,0.2398,7.0831,2.0205,1.8995,-3.9211,-0.6121,
6.841597,0.4760,-0.3323,0.0916,0.2398,7.0831,2.0205,1.8995,-3.9211,-0.6121,
6.843883,0.4760,-0.3323,0.0916,2.1142,6.2130,0.9055,1.8995,-3.9211,-0.6121,
6.846155,0.4760,-0.3323,0.0916,2.1142,6.2130,0.9055,1.9050,-4.0212,-0.8931,
6.851764,0.4760,-0.3323,0.0916,2.1142,6.2130,0.9055,1.9208,-4.1990,-1.1851,
6.861456,0.4667,-0.4959,-0.1040,2.1142,6.2130,0.9055,1.9208,-4.1990,-1.1851,
6.863576,0.4667,-0.4959,-0.1040,1.7141,4.5191,-1.1580,1.9208,-4.1990,-1.1851,
6.865171,0.4667,-0.4959,-0.1040,1.7141,4.5191,-1.1580,1.9080,-4.3157,-1.3953,
6.874430,0.4667,-0.4959,-0.1040,1.7141,4.5191,-1.1580,1.8634,-4.2338,-1.4509,
6.881839,0.4430,-0.7106,-0.1330,1.7141,4.5191,-1.1580,1.8634,-4.2338,-1.4509,
6.883740,0.4430,-0.7106,-0.1330,1.1106,2.2931,-1.5142,1.8634,-4.2338,-1.4509,
6.885045,0.4430,-0.7106,-0.1330,1.1106,2.2931,-1.5142,1.8311,-3.8642,-1.3348,
6.891883,0.4430,-0.7106,-0.1330,1.1106,2.2931,-1.5142,1.8689,-3.2601,-1.0636,
6.901784,0.5485,-0.9318,-0.0908,1.1106,2.2931,-1.5142,1.8689,-3.2601,-1.0636,
6.904156,0.5485,-0.9318,-0.0908,1.8340,0.0093,-1.1677,1.8689,-3.2601,-1.0636,
6.906604,0.5485,-0.9318,-0.0908,1.8340,0.0093,-1.1677,1.9942,-2.5601,-0.6769,
6.912138,0.5485,-0.9318,-0.0908,1.8340,0.0093,-1.1677,2.1505,-1.8203,-0.2352,
6.925240,0.8206,-1.2377,-0.1368,1.8340,0.0093,-1.1677,2.1505,-1.8203,-0.2352,
6.928680,0.8206,-1.2377,-0.1368,4.3332,-3.0620,-1.7920,2.1505,-1.8203,-0.2352,
6.931268,0.8206,-1.2377,-0.1368,4.3332,-3.0620,-1.7920,2.2605,-1.1563,0.2278,
6.933408,0.8206,-1.2377,-0.1368,4.3332,-3.0620,-1.7920,2.2886,-0.7659,0.6145,
6.941955,1.1327,-1.4939,-0.2625,4.3332,-3.0620,-1.7920,2.2886,-0.7659,0.6145,
6.944992,1.1327,-1.4939,-0.2625,7.3750,-5.5980,-3.2950,2.2886,-0.7659,0.6145,
6.947279,1.1327,-1.4939,-0.2625,7.3750,-5.5980,-3.2950,2.1493,-0.7745,0.8148,
6.957277,1.1327,-1.4939,-0.2625,7.3750,-5.5980,-3.2950,1.7351,-1.0714,0.8887,
6.961661,0.9099,-1.3827,-0.3875,7.3750,-5.5980,-3.2950,1.7351,-1.0714,0.8887,
6.963678,0.9099,-1.3827,-0.3875,5.2468,-4.5019,-4.7080,1.7351,-1.0714,0.8887,
6.965214,0.9099,-1.3827,-0.3875,5.2468,-4.5019,-4.7080,1.0314,-1.2717,0.9315,
6.973510,0.9099,-1.3827,-0.3875,5.2468,-4.5019,-4.7080,-0.8549,-0.0488,0.9358,
6.981546,0.5041,-1.2308,-0.3084,5.2468,-4.5019,-4.7080,-0.8549,-0.0488,0.9358,
6.983038,0.5041,-1.2308,-0.3084,1.3622,-2.9648,-3.8024,-0.8549,-0.0488,0.9358,
6.984264,0.5041,-1.2308,-0.3084,1.3622,-2.9648,-3.8024,-1.7205,1.1277,0.9535,
6.991546,0.5041,-1.2308,-0.3084,1.3622,-2.9648,-3.8024,-2.3967,2.1503,1.0292,
7.001791,0.3158,-1.4214,-0.2670,1.3622,-2.9648,-3.8024,-2.3967,2.1503,1.0292,
7.003279,0.3158,-1.4214,-0.2670,-0.3175,-4.7455,-3.0452,-2.3967,2.1503,1.0292,
7.004675,0.3158,-1.4214,-0.2670,-0.3175,-4.7455,-3.0452,-2.8812,2.7966,1.1575,
7.012238,0.3158,-1.4214,-0.2670,-0.3175,-4.7455,-3.0452,-3.1897,3.0575,1.3060,
7.022483,0.1498,-1.5877,-0.1327,-0.3175,-4.7455,-3.0452,-3.1897,3.0575,1.3060,
7.024498,0.1498,-1.5877,-0.1327,-1.7051,-6.2807,-1.3145,-3.1897,3.0575,1.3060,
7.026703,0.1498,-1.5877,-0.1327,-1.7051,-6.2807,-1.3145,-3.3130,2.9316,1.4611,
7.032379,0.1498,-1.5877,-0.1327,-1.7051,-6.2807,-1.3145,-3.2043,2.3788,1.6468,
7.041956,0.0696,-1.5631,-0.0599,-1.7051,-6.2807,-1.3145,-3.2043,2.3788,1.6468,
7.044641,0.0696,-1.5631,-0.0599,-2.2052,-5.9565,-0.1462,-3.2043,2.3788,1.6468,
7.046970,0.0696,-1.5631,-0.0599,-2.2052,-5.9565,-0.1462,-2.8641,1.4839,1.8008,
7.052362,0.0696,-1.5631,-0.0599,-2.2052,-5.9565,-0.1462,-2.5305,0.7777,1.8283,
7.062323,0.0324,-1.3094,-0.2682,-2.2052,-5.9565,-0.1462,-2.5305,0.7777,1.8283,
7.064814,0.0324,-1.3094,-0.2682,-2.2293,-3.4039,-1.7338,-2.5305,0.7777,1.8283,
7.066792,0.0324,-1.3094,-0.2682,-2.2293,-3.4039,-1.7338,-2.3613,0.4240,1.7195,
7.072292,0.0324,-1.3094,-0.2682,-2.2293,-3.4039,-1.7338,-2.2569,0.2628,1.5192,
7.081626,-0.1704,-0.8931,-0.2402,-2.2293,-3.4039,-1.7338,-2.2569,0.2628,1.5192,
7.084144,-0.1704,-0.8931,-0.2402,-3.8873,0.7086,-1.0302,-2.2569,0.2628,1.5192,
7.086163,-0.1704,-0.8931,-0.2402,-3.8873,0.7086,-1.0302,-2.1304,0.1766,1.3066,
7.092202,-0.1704,-0.8931,-0.2402,-3.8873,0.7086,-1.0302,-1.9618,0.0661,1.1789,
7.101418,-0.5244,-0.5827,-0.2339,-3.8873,0.7086,-1.0302,-1.9618,0.0661,1.1789,
7.103389,-0.5244,-0.5827,-0.2339,-7.0339,3.7573,-0.5755,-1.9618,0.0661,1.1789,
7.105786,-0.5244,-0.5827,-0.2339,-7.0339,3.7573,-0.5755,-1.7798,-0.0372,1.2327,
7.112091,-0.5244,-0.5827,-0.2339,-7.0339,3.7573,-0.5755,-1.5959,-0.1508,1.4092,
7.121704,-0.4708,-0.6180,-0.1233,-7.0339,3.7573,-0.5755,-1.5959,-0.1508,1.4092,
7.123474,-0.4708,-0.6180,-0.1233,-6.1283,3.4159,0.8308,-1.5959,-0.1508,1.4092,
7.125226,-0.4708,-0.6180,-0.1233,-6.1283,3.4159,0.8308,-1.3626,-0.3102,1.5393,
7.132185,-0.4708,-0.6180,-0.1233,-6.1283,3.4159,0.8308,-1.1219,-0.4886,1.4740,
7.141512,-0.0486,-0.8160,0.0936,-6.1283,3.4159,0.8308,-1.1219,-0.4886,1.4740,
7.143815,-0.0486,-0.8160,0.0936,-1.5868,1.4849,3.1614,-1.1219,-0.4886,1.4740,
7.145546,-0.0486,-0.8160,0.0936,-1.5868,1.4849,3.1614,-0.9288,-0.6902,0.6065,
7.151725,-0.0486,-0.8160,0.0936,-1.5868,1.4849,3.1614,0.6386,-0.9119,-0.0361,
7.161604,0.2564,-0.8380,0.4645,-1.5868,1.4849,3.1614,0.6386,-0.9119,-0.0361,
7.163682,0.2564,-0.8380,0.4645,1.5421,1.2999,6.7321,0.6386,-0.9119,-0.0361,
7.165167,0.2564,-0.8380,0.4645,1.5421,1.2999,6.7321,1.6936,-1.4397,-0.5370,
7.171700,0.2564,-0.8380,0.4645,1.5421,1.2999,6.7321,1.7779,-2.3536,-0.7771,
7.181386,0.3685,-0.8295,-0.1120,1.5421,1.2999,6.7321,1.7779,-2.3536,-0.7771,
7.183350,0.3685,-0.8295,-0.1120,2.5940,1.4545,0.7136,1.7779,-2.3536,-0.7771,
7.184797,0.3685,-0.8295,-0.1120,2.5940,1.4545,0.7136,1.0992,-3.3340,-0.8669,
7.191878,0.3685,-0.8295,-0.1120,2.5940,1.4545,0.7136,0.2263,-3.6956,-0.9640,
7.201262,0.5803,-0.9252,0.1211,2.5940,1.4545,0.7136,0.2263,-3.6956,-0.9640,
7.202731,0.5803,-0.9252,0.1211,4.5639,0.5304,2.8598,0.2263,-3.6956,-0.9640,
7.203906,0.5803,-0.9252,0.1211,4.5639,0.5304,2.8598,-0.3668,-3.0884,-1.1241,
7.211512,0.5803,-0.9252,0.1211,4.5639,0.5304,2.8598,-0.4658,-1.8881,-1.2762,
7.221471,0.6203,-1.1123,0.2656,4.5639,0.5304,2.8598,-0.4658,-1.8881,-1.2762,
7.223332,0.6203,-1.1123,0.2656,4.7304,-1.3378,4.3057,-0.4658,-1.8881,-1.2762,
7.224890,0.6203,-1.1123,0.2656,4.7304,-1.3378,4.3057,-0.1628,-0.5735,-1.3165,
7.231822,0.6203,-1.1123,0.2656,4.7304,-1.3378,4.3057,0.1255,0.6763,-1.0788,
7.241662,0.6208,-1.1215,-0.1404,4.7304,-1.3378,4.3057,0.1255,0.6763,-1.0788,
7.243613,0.6208,-1.1215,-0.1404,4.4148,-1.4649,0.2513,0.1255,0.6763,-1.0788,
7.245164,0.6208,-1.1215,-0.1404,4.4148,-1.4649,0.2513,0.1909,1.6482,-0.4973,
7.252077,0.6208,-1.1215,-0.1404,4.4148,-1.4649,0.2513,0.1182,1.8877,0.2400,
7.262386,1.0653,-0.8302,-0.1511,4.4148,-1.4649,0.2513,0.1182,1.8877,0.2400,
7.264886,1.0653,-0.8302,-0.1511,8.5457,1.3713,0.0036,0.1182,1.8877,0.2400,
7.266971,1.0653,-0.8302,-0.1511,8.5457,1.3713,0.0036,0.0107,1.3696,0.8417,
7.273320,1.0653,-0.8302,-0.1511,8.5457,1.3713,0.0036,-0.1036,0.6592,1.1288,
7.282072,1.2655,-0.6628,-0.1302,8.5457,1.3713,0.0036,-0.1036,0.6592,1.1288,
7.284700,1.2655,-0.6628,-0.1302,10.4564,3.0107,0.1447,-0.1036,0.6592,1.1288,
7.286631,1.2655,-0.6628,-0.1302,10.4564,3.0107,0.1447,-0.2367,0.3080,1.0983,
7.291962,1.2655,-0.6628,-0.1302,10.4564,3.0107,0.1447,-0.3473,0.3697,0.8484,
7.301910,1.1199,-0.7869,-0.0300,10.4564,3.0107,0.1447,-0.3473,0.3697,0.8484,
7.304134,1.1199,-0.7869,-0.0300,8.9714,1.7812,1.1337,-0.3473,0.3697,0.8484,
7.306495,1.1199,-0.7869,-0.0300,8.9714,1.7812,1.1337,-0.3937,0.5749,0.5241,
7.312133,1.1199,-0.7869,-0.0300,8.9714,1.7812,1.1337,-0.3827,0.5389,0.2889,
7.321839,0.6247,-0.9430,-0.0250,8.9714,1.7812,1.1337,-0.3827,0.5389,0.2889,
7.324196,0.6247,-0.9430,-0.0250,3.9731,0.2177,1.1950,-0.3827,0.5389,0.2889,
7.326478,0.6247,-0.9430,-0.0250,3.9731,0.2177,1.1950,-0.3510,0.1840,0.2504,
7.332349,0.6247,-0.9430,-0.0250,3.9731,0.2177,1.1950,-0.2581,-0.6493,0.4318,
7.342528,0.3385,-0.9675,0.0746,3.9731,0.2177,1.1950,-0.2581,-0.6493,0.4318,
7.345204,0.3385,-0.9675,0.0746,1.0755,-0.0455,2.1859,-0.2581,-0.6493,0.4318,
7.347908,0.3385,-0.9675,0.0746,1.0755,-0.0455,2.1859,-0.1689,-0.8447,0.5057,
7.352073,0.3385,-0.9675,0.0746,1.0755,-0.0455,2.1859,-0.0180,-0.8924,0.5448,
7.362352,0.3192,-0.9359,0.2509,1.0755,-0.0455,2.1859,-0.0180,-0.8924,0.5448,
7.365041,0.3192,-0.9359,0.2509,0.8767,0.2649,3.8885,-0.0180,-0.8924,0.5448,
7.366937,0.3192,-0.9359,0.2509,0.8767,0.2649,3.8885,0.2104,-0.8759,0.5253,
7.372614,0.3192,-0.9359,0.2509,0.8767,0.2649,3.8885,0.5073,-0.8447,0.4086,
7.381964,0.4146,-0.8486,0.2700,0.8767,0.2649,3.8885,0.5073,-0.8447,0.4086,
7.384811,0.4146,-0.8486,0.2700,1.8009,1.1368,3.9466,0.5073,-0.8447,0.4086,
7.386746,0.4146,-0.8486,0.2700,1.8009,1.1368,3.9466,0.7999,-0.7519,0.1728,
7.392140,0.4146,-0.8486,0.2700,1.8009,1.1368,3.9466,1.0339,-0.5980,-0.1137,
7.401794,0.3580,-0.7967,0.2652,1.8009,1.1368,3.9466,1.0339,-0.5980,-0.1137,
7.403836,0.3580,-0.7967,0.2652,1.1608,1.6558,3.6492,1.0339,-0.5980,-0.1137,
7.406259,0.3580,-0.7967,0.2652,1.1608,1.6558,3.6492,1.2275,-0.4911,-0.3751,
7.412172,0.3580,-0.7967,0.2652,1.1608,1.6558,3.6492,1.4181,-0.5326,-0.5718,
7.422347,0.1867,-0.7041,0.1660,1.1608,1.6558,3.6492,1.4181,-0.5326,-0.5718,
7.424718,0.1867,-0.7041,0.1660,-0.6777,2.5530,2.3509,1.4181,-0.5326,-0.5718,
7.426877,0.1867,-0.7041,0.1660,-0.6777,2.5530,2.3509,1.5568,-0.6413,-0.6781,
7.432248,0.1867,-0.7041,0.1660,-0.6777,2.5530,2.3509,1.6050,-0.6981,-0.7007,
7.443122,0.0397,-0.5917,0.1831,-0.6777,2.5530,2.3509,1.6050,-0.6981,-0.7007,
7.445861,0.0397,-0.5917,0.1831,-2.2819,3.6302,2.1569,1.6050,-0.6981,-0.7007,
7.448206,0.0397,-0.5917,0.1831,-2.2819,3.6302,2.1569,1.6038,-0.6639,-0.6793,
7.452084,0.0397,-0.5917,0.1831,-2.2819,3.6302,2.1569,1.6325,-0.5564,-0.6537,
7.461858,-0.0421,-0.5928,0.1873,-2.2819,3.6302,2.1569,1.6325,-0.5564,-0.6537,
7.464345,-0.0421,-0.5928,0.1873,-3.2053,3.5912,1.8333,1.6325,-0.5564,-0.6537,
7.465913,-0.0421,-0.5928,0.1873,-3.2053,3.5912,1.8333,1.7003,-0.4410,-0.6293,
7.471916,-0.0421,-0.5928,0.1873,-3.2053,3.5912,1.8333,1.7034,-0.3463,-0.6207,
7.481733,-0.0539,-0.6732,0.0104,-3.2053,3.5912,1.8333,1.7034,-0.3463,-0.6207,
7.483841,-0.0539,-0.6732,0.0104,-3.3979,2.7733,-0.2546,1.7034,-0.3463,-0.6207,
7.485432,-0.0539,-0.6732,0.0104,-3.3979,2.7733,-0.2546,1.5910,-0.2632,-0.6592,
7.491916,-0.0539,-0.6732,0.0104,-3.3979,2.7733,-0.2546,1.4529,-0.2504,-0.6995,
7.501721,-0.1460,-0.9196,0.0028,-3.3979,2.7733,-0.2546,1.4529,-0.2504,-0.6995,
7.503448,-0.1460,-0.9196,0.0028,-4.3431,0.3298,-0.6220,1.4529,-0.2504,-0.6995,
7.505168,-0.1460,-0.9196,0.0028,-4.3431,0.3298,-0.6220,1.3534,-0.2968,-0.7007,
7.512118,-0.1460,-0.9196,0.0028,-4.3431,0.3298,-0.6220,1.2666,-0.3170,-0.5291,
7.521884,-0.1859,-1.3657,-0.2680,-4.3431,0.3298,-0.6220,1.2666,-0.3170,-0.5291,
7.524385,-0.1859,-1.3657,-0.2680,-4.7342,-4.0570,-3.4659,1.2666,-0.3170,-0.5291,
7.526810,-0.1859,-1.3657,-0.2680,-4.7342,-4.0570,-3.4659,0.7749,-0.0121,-0.3867,
7.532279,-0.1859,-1.3657,-0.2680,-4.7342,-4.0570,-3.4659,0.2312,0.4424,-0.2688,
7.543604,0.2529,-1.8269,-0.5364,-4.7342,-4.0570,-3.4659,0.2312,0.4424,-0.2688,
7.546652,0.2529,-1.8269,-0.5364,-0.3990,-8.5682,-6.1160,0.2312,0.4424,-0.2688,
7.548782,0.2529,-1.8269,-0.5364,-0.3990,-8.5682,-6.1160,-0.3754,0.9769,-0.2542,
7.551511,0.2529,-1.8269,-0.5364,-0.3990,-8.5682,-6.1160,-0.7566,1.2536,-0.4240,
7.561948,0.7862,-1.5992,0.2013,-0.3990,-8.5682,-6.1160,-0.7566,1.2536,-0.4240,
7.564273,0.7862,-1.5992,0.2013,4.8188,-6.3320,1.1992,-0.7566,1.2536,-0.4240,
7.565719,0.7862,-1.5992,0.2013,4.8188,-6.3320,1.1992,-0.6680,1.0758,-0.8021,
7.571748,0.7862,-1.5992,0.2013,4.8188,-6.3320,1.1992,-0.2422,0.6116,-1.2603,
7.581744,0.5209,-1.3377,0.2618,4.8188,-6.3320,1.1992,-0.2422,0.6116,-1.2603,
7.583686,0.5209,-1.3377,0.2618,2.0530,-3.8181,1.8377,-0.2422,0.6116,-1.2603,
7.585139,0.5209,-1.3377,0.2618,2.0530,-3.8181,1.8377,0.2220,0.0074,-1.5492,
7.591665,0.5209,-1.3377,0.2618,2.0530,-3.8181,1.8377,0.4554,-0.4813,-1.4661,
7.601061,0.1224,-0.9623,0.0745,2.0530,-3.8181,1.8377,0.4554,-0.4813,-1.4661,
7.602227,0.1224,-0.9623,0.0745,-2.0992,-0.2270,-0.0314,0.4554,-0.4813,-1.4661,
7.603319,0.1224,-0.9623,0.0745,-2.0992,-0.2270,-0.0314,0.3912,-0.6609,-1.0709,
7.611325,0.1224,-0.9623,0.0745,-2.0992,-0.2270,-0.0314,0.1292,-0.4923,-0.5633,
7.621112,-0.0181,-0.5662,0.0110,-2.0992,-0.2270,-0.0314,0.1292,-0.4923,-0.5633,
7.622685,-0.0181,-0.5662,0.0110,-3.5705,3.6214,-0.6452,0.1292,-0.4923,-0.5633,
7.623728,-0.0181,-0.5662,0.0110,-3.5705,3.6214,-0.6452,-0.2624,-0.0561,-0.0776,
7.631047,-0.0181,-0.5662,0.0110,-3.5705,3.6214,-0.6452,-0.7639,0.5370,0.3341,
7.641143,0.0423,-0.3762,0.0545,-3.5705,3.6214,-0.6452,-0.7639,0.5370,0.3341,
7.642376,0.0423,-0.3762,0.0545,-2.8885,5.5226,-0.1328,-0.7639,0.5370,0.3341,
7.643142,0.0423,-0.3762,0.0545,-2.8885,5.5226,-0.1328,-1.2697,1.1461,0.6230,
7.651250,0.0423,-0.3762,0.0545,-2.8885,5.5226,-0.1328,-1.6637,1.6384,0.7806,
7.660952,0.1633,-0.2853,0.1898,-2.8885,5.5226,-0.1328,-1.6637,1.6384,0.7806,
7.662011,0.1633,-0.2853,0.1898,-1.5262,6.4847,1.3562,-1.6637,1.6384,0.7806,
7.662722,0.1633,-0.2853,0.1898,-1.5262,6.4847,1.3562,-1.9013,1.9732,0.8154,
7.672086,0.1633,-0.2853,0.1898,-1.5262,6.4847,1.3562,-1.9930,2.2108,0.7531,
7.682019,0.1226,-0.3167,0.2856,-1.5262,6.4847,1.3562,-1.9930,2.2108,0.7531,
7.684618,0.1226,-0.3167,0.2856,-1.7379,6.2452,2.4549,-1.9930,2.2108,0.7531,
7.686567,0.1226,-0.3167,0.2856,-1.7379,6.2452,2.4549,-1.9789,2.4674,0.6462,
7.692415,0.1226,-0.3167,0.2856,-1.7379,6.2452,2.4549,-1.8060,2.7887,0.5613,
7.702243,-0.0917,-0.6393,0.5322,-1.7379,6.2452,2.4549,-1.8060,2.7887,0.5613,
7.704247,-0.0917,-0.6393,0.5322,-3.6564,3.1411,4.9323,-1.8060,2.7887,0.5613,
7.706255,-0.0917,-0.6393,0.5322,-3.6564,3.1411,4.9323,-0.7163,3.0440,0.7397,
7.712135,-0.0917,-0.6393,0.5322,-3.6564,3.1411,4.9323,-0.1683,2.6170,0.9187,
7.722038,0.0517,-1.2683,-0.1272,-3.6564,3.1411,4.9323,-0.1683,2.6170,0.9187,
7.724386,0.0517,-1.2683,-0.1272,-2.0121,-2.9606,-1.6545,-0.1683,2.6170,0.9187,
7.726710,0.0517,-1.2683,-0.1272,-2.0121,-2.9606,-1.6545,0.1072,1.9200,1.0128,
7.732013,0.0517,-1.2683,-0.1272,-2.0121,-2.9606,-1.6545,0.0602,0.9488,0.9822,
7.743258,0.1910,-1.8603,-0.1520,-2.0121,-2.9606,-1.6545,0.0602,0.9488,0.9822,
7.746318,0.1910,-1.8603,-0.1520,-0.3992,-8.7036,-1.9856,0.0602,0.9488,0.9822,
7.748884,0.1910,-1.8603,-0.1520,-0.3992,-8.7036,-1.9856,-0.1182,-0.1911,0.8619,
7.752294,0.1910,-1.8603,-0.1520,-0.3992,-8.7036,-1.9856,-0.0303,-1.2827,0.6749,
7.762416,0.5503,-1.3899,-0.2571,-0.3992,-8.7036,-1.9856,-0.0303,-1.2827,0.6749,
7.764985,0.5503,-1.3899,-0.2571,3.2660,-4.0574,-2.9577,-0.0303,-1.2827,0.6749,
7.766915,0.5503,-1.3899,-0.2571,3.2660,-4.0574,-2.9577,0.2434,-1.9926,0.2858,
7.772272,0.5503,-1.3899,-0.2571,3.2660,-4.0574,-2.9577,0.1176,-1.7861,-0.1680,
7.781751,0.5203,-0.7613,-0.2062,3.2660,-4.0574,-2.9577,0.1176,-1.7861,-0.1680,
7.784460,0.5203,-0.7613,-0.2062,2.9483,2.1009,-2.3814,0.1176,-1.7861,-0.1680,
7.786499,0.5203,-0.7613,-0.2062,2.9483,2.1009,-2.3814,-0.1549,-1.0201,-0.5627,
7.792636,0.5203,-0.7613,-0.2062,2.9483,2.1009,-2.3814,-0.2496,-0.1581,-0.8626,
