
time,gFx,gFy,gFz,ax,ay,az,wx,wy,wz,
0.065651,-0.2841,0.1470,0.6849,0.0000,0.0000,0.0000,0.0000,0.0000,0.0000,
0.066080,-0.0103,0.3979,0.9313,0.0000,0.0000,0.0000,0.0000,0.0000,0.0000,
0.066433,0.0836,0.4048,1.1785,0.0000,0.0000,0.0000,0.0000,0.0000,0.0000,
0.094866,-0.2215,0.1666,1.0923,0.0000,0.0000,0.0000,0.0000,0.0000,0.0000,
0.096074,-0.4074,0.2481,0.8673,0.0000,0.0000,0.0000,0.0000,0.0000,0.0000,
0.096893,-0.4074,0.2481,0.8673,0.0439,-0.0267,-0.0934,0.0000,0.0000,0.0000,
0.114518,-0.1653,0.3346,0.6317,0.0439,-0.0267,-0.0934,0.0000,0.0000,0.0000,
0.115626,-0.1653,0.3346,0.6317,0.5895,-1.1934,-2.2531,0.0000,0.0000,0.0000,
0.130702,-0.1653,0.3346,0.6317,0.5895,-1.1934,-2.2531,-0.1097,-0.7708,1.8313,
0.135868,-0.0290,0.3643,0.4450,0.5895,-1.1934,-2.2531,-0.1097,-0.7708,1.8313,
0.137045,-0.0290,0.3643,0.4450,0.2093,-2.6340,-3.2179,-0.1097,-0.7708,1.8313,
0.140611,-0.0290,0.3643,0.4450,0.2093,-2.6340,-3.2179,-0.5886,-0.9113,1.6597,
0.150979,-0.0290,0.3643,0.4450,0.2093,-2.6340,-3.2179,-1.0443,-0.9523,1.4648,
0.154777,0.0325,0.3012,0.6528,0.2093,-2.6340,-3.2179,-1.0443,-0.9523,1.4648,
0.156071,0.0325,0.3012,0.6528,-0.1243,-1.1527,-2.4979,-1.0443,-0.9523,1.4648,
0.160904,0.0325,0.3012,0.6528,-0.1243,-1.1527,-2.4979,-1.4933,-0.9700,1.3915,
0.171032,0.0325,0.3012,0.6528,-0.1243,-1.1527,-2.4979,-1.8164,-0.9596,1.3744,
0.174741,0.2233,0.3831,1.0195,-0.1243,-1.1527,-2.4979,-1.8164,-0.9596,1.3744,
0.176071,0.2233,0.3831,1.0195,0.2186,0.3750,0.9981,-1.8164,-0.9596,1.3744,
0.180912,0.2233,0.3831,1.0195,0.2186,0.3750,0.9981,-1.8720,-0.8160,1.2980,
0.190784,0.2233,0.3831,1.0195,0.2186,0.3750,0.9981,-1.7303,-0.6071,1.1661,
0.194650,0.2529,0.4591,1.2546,0.2186,0.3750,0.9981,-1.7303,-0.6071,1.1661,
0.195860,0.2529,0.4591,1.2546,0.6543,1.1878,3.2465,-1.7303,-0.6071,1.1661,
0.201057,0.2529,0.4591,1.2546,0.6543,1.1878,3.2465,-1.5489,-0.5815,1.0299,
0.210912,0.2529,0.4591,1.2546,0.6543,1.1878,3.2465,-1.3094,-0.5088,0.9822,
0.214799,0.1248,0.4432,1.1999,0.6543,1.1878,3.2465,-1.3094,-0.5088,0.9822,
0.216123,0.1248,0.4432,1.1999,0.2709,0.9615,2.6034,-1.3094,-0.5088,0.9822,
0.220942,0.1248,0.4432,1.1999,0.2709,0.9615,2.6034,-0.6979,-0.5308,1.1490,
0.230894,0.1248,0.4432,1.1999,0.2709,0.9615,2.6034,-0.5257,-0.5265,1.1923,
0.236415,0.1620,0.3400,0.9285,0.2709,0.9615,2.6034,-0.5257,-0.5265,1.1923,
0.237790,0.1620,0.3400,0.9285,0.0020,0.0042,0.0115,-0.5257,-0.5265,1.1923,
0.240855,0.1620,0.3400,0.9285,0.0020,0.0042,0.0115,-0.5458,-0.4342,1.1563,
0.250946,0.1620,0.3400,0.9285,0.0020,0.0042,0.0115,-0.7236,-0.2950,1.0683,
0.254624,0.2399,0.3407,0.7995,0.0020,0.0042,0.0115,-0.7236,-0.2950,1.0683,
0.256165,0.2399,0.3407,0.7995,-0.2585,-0.3671,-0.8614,-0.7236,-0.2950,1.0683,
0.260822,0.2399,0.3407,0.7995,-0.2585,-0.3671,-0.8614,-0.9649,-0.1685,1.0128,
0.270937,0.2399,0.3407,0.7995,-0.2585,-0.3671,-0.8614,-1.1707,-0.1465,1.0213,
0.274684,0.2481,0.3928,0.8845,-0.2585,-0.3671,-0.8614,-1.1707,-0.1465,1.0213,
0.275808,0.2481,0.3928,0.8845,-0.0038,-0.0060,-0.0135,-1.1707,-0.1465,1.0213,
0.280962,0.2481,0.3928,0.8845,-0.0038,-0.0060,-0.0135,-1.2801,-0.1429,1.0415,
0.290901,0.2481,0.3928,0.8845,-0.0038,-0.0060,-0.0135,-1.2703,-0.0030,1.0207,
0.294699,0.2696,0.3465,0.9687,-0.0038,-0.0060,-0.0135,-1.2703,-0.0030,1.0207,
0.295923,0.2696,0.3465,0.9687,0.1561,0.2007,0.5610,-1.2703,-0.0030,1.0207,
0.300939,0.2696,0.3465,0.9687,0.1561,0.2007,0.5610,-1.1799,0.0978,0.9211,
0.310872,0.2696,0.3465,0.9687,0.1561,0.2007,0.5610,-1.1115,-0.7604,0.6927,
0.314839,0.2419,0.1437,0.9677,0.1561,0.2007,0.5610,-1.1115,-0.7604,0.6927,
0.315732,0.2419,0.1437,0.9677,0.0166,0.0099,0.0666,-1.1115,-0.7604,0.6927,
0.320897,0.2419,0.1437,0.9677,0.0166,0.0099,0.0666,-1.0907,-1.4642,0.4404,
0.330800,0.2419,0.1437,0.9677,0.0166,0.0099,0.0666,-1.0993,-1.6181,0.1777,
0.336583,0.3413,0.1553,0.9276,0.0166,0.0099,0.0666,-1.0993,-1.6181,0.1777,
0.338482,0.3413,0.1553,0.9276,-0.0005,-0.0002,-0.0012,-1.0993,-1.6181,0.1777,
0.340915,0.3413,0.1553,0.9276,-0.0005,-0.0002,-0.0012,-1.0889,-1.6578,-0.1326,
0.350955,0.3413,0.1553,0.9276,-0.0005,-0.0002,-0.0012,-1.0278,-1.4984,-0.4539,
0.355282,0.1692,0.1864,0.9071,-0.0005,-0.0002,-0.0012,-1.0278,-1.4984,-0.4539,
0.356698,0.1692,0.1864,0.9071,-0.1044,-0.1150,-0.5599,-1.0278,-1.4984,-0.4539,
0.360946,0.1692,0.1864,0.9071,-0.1044,-0.1150,-0.5599,-0.8952,-1.2748,-0.7111,
0.370884,0.1692,0.1864,0.9071,-0.1044,-0.1150,-0.5599,-0.7321,-1.0897,-0.8333,
0.374685,0.0332,0.1491,0.7173,-0.1044,-0.1150,-0.5599,-0.7321,-1.0897,-0.8333,
0.375893,0.0332,0.1491,0.7173,-0.1187,-0.5327,-2.5620,-0.7321,-1.0897,-0.8333,
0.380906,0.0332,0.1491,0.7173,-0.1187,-0.5327,-2.5620,-0.6393,-0.9327,-0.8076,
0.390891,0.0332,0.1491,0.7173,-0.1187,-0.5327,-2.5620,-0.7547,-0.9559,-0.6879,
0.394788,0.0859,0.1115,0.6273,-0.1187,-0.5327,-2.5620,-0.7547,-0.9559,-0.6879,
0.395876,0.0859,0.1115,0.6273,-0.4684,-0.6084,-3.4216,-0.7547,-0.9559,-0.6879,
0.400938,0.0859,0.1115,0.6273,-0.4684,-0.6084,-3.4216,-1.0400,-0.6114,-0.4478,
0.410878,0.0859,0.1115,0.6273,-0.4684,-0.6084,-3.4216,-1.5757,-0.5014,-0.4252,
0.414831,0.2625,0.0046,0.7112,-0.4684,-0.6084,-3.4216,-1.5757,-0.5014,-0.4252,
0.416068,0.2625,0.0046,0.7112,-0.8232,-0.0146,-2.2302,-1.5757,-0.5014,-0.4252,
0.420973,0.2625,0.0046,0.7112,-0.8232,-0.0146,-2.2302,-1.7865,-0.2748,-0.5077,
0.431235,0.2625,0.0046,0.7112,-0.8232,-0.0146,-2.2302,-2.0388,-0.2394,-0.7105,
0.437774,0.3944,-0.1553,0.7718,-0.8232,-0.0146,-2.2302,-2.0388,-0.2394,-0.7105,
0.439963,0.3944,-0.1553,0.7718,-0.5275,0.2076,-1.0322,-2.0388,-0.2394,-0.7105,
0.442065,0.3944,-0.1553,0.7718,-0.5275,0.2076,-1.0322,-2.2562,-0.1801,-0.9463,
0.451697,0.3944,-0.1553,0.7718,-0.5275,0.2076,-1.0322,-2.1927,-0.0091,-1.2132,
0.457551,0.4638,-0.2538,0.8925,-0.5275,0.2076,-1.0322,-2.1927,-0.0091,-1.2132,
0.459837,0.4638,-0.2538,0.8925,0.1605,-0.0879,0.3089,-2.1927,-0.0091,-1.2132,
0.462572,0.4638,-0.2538,0.8925,0.1605,-0.0879,0.3089,-2.1512,0.0508,-1.4674,
0.472236,0.4638,-0.2538,0.8925,0.1605,-0.0879,0.3089,-2.1567,0.2011,-1.6195,
0.475547,0.3827,-0.2250,0.9050,0.1605,-0.0879,0.3089,-2.1567,0.2011,-1.6195,
0.478077,0.3827,-0.2250,0.9050,0.0274,-0.0161,0.0649,-2.1567,0.2011,-1.6195,
0.481278,0.3827,-0.2250,0.9050,0.0274,-0.0161,0.0649,-2.1781,0.4252,-1.6610,
0.491399,0.3827,-0.2250,0.9050,0.0274,-0.0161,0.0649,-2.2636,0.6525,-1.6152,
0.495043,0.3259,-0.1415,0.8779,0.0274,-0.0161,0.0649,-2.2636,0.6525,-1.6152,
0.496726,0.3259,-0.1415,0.8779,-0.1808,0.0784,-0.4869,-2.2636,0.6525,-1.6152,
0.501388,0.3259,-0.1415,0.8779,-0.1808,0.0784,-0.4869,-2.3711,0.8333,-1.5138,
0.511271,0.3259,-0.1415,0.8779,-0.1808,0.0784,-0.4869,-2.4920,0.8394,-1.3629,
0.515308,0.3042,-0.1755,0.9164,-0.1808,0.0784,-0.4869,-2.4920,0.8394,-1.3629,
0.519043,0.3042,-0.1755,0.9164,-0.0586,0.0338,-0.1766,-2.4920,0.8394,-1.3629,
0.521862,0.3042,-0.1755,0.9164,-0.0586,0.0338,-0.1766,-2.6484,0.6873,-1.1839,
0.531725,0.3042,-0.1755,0.9164,-0.0586,0.0338,-0.1766,-2.8091,0.4411,-1.0440,
0.535558,0.5565,-0.2443,1.1415,-0.0586,0.0338,-0.1766,-2.8091,0.4411,-1.0440,
0.538397,0.5565,-0.2443,1.1415,1.2338,-0.5416,2.5308,-2.8091,0.4411,-1.0440,
0.543256,0.5565,-0.2443,1.1415,1.2338,-0.5416,2.5308,-2.9013,0.1485,-0.9933,
0.551461,0.5565,-0.2443,1.1415,1.2338,-0.5416,2.5308,-2.8653,-0.1771,-1.0501,
0.556346,0.7735,-0.2875,1.3954,1.2338,-0.5416,2.5308,-2.8653,-0.1771,-1.0501,
0.558640,0.7735,-0.2875,1.3954,2.9010,-1.0785,5.2334,-2.8653,-0.1771,-1.0501,
0.561114,0.7735,-0.2875,1.3954,2.9010,-1.0785,5.2334,-2.6979,-0.5185,-1.1858,
0.571237,0.7735,-0.2875,1.3954,2.9010,-1.0785,5.2334,-2.4383,-0.9376,-1.3354,
0.575132,0.6808,-0.1655,1.2377,2.9010,-1.0785,5.2334,-2.4383,-0.9376,-1.3354,
0.577161,0.6808,-0.1655,1.2377,1.9773,-0.4808,3.5948,-2.4383,-0.9376,-1.3354,
0.580848,0.6808,-0.1655,1.2377,1.9773,-0.4808,3.5948,-2.1958,-1.5149,-1.4319,
0.590696,0.6808,-0.1655,1.2377,1.9773,-0.4808,3.5948,-2.2770,-2.5008,-1.3293,
0.594596,0.5195,0.0773,0.8634,1.9773,-0.4808,3.5948,-2.2770,-2.5008,-1.3293,
0.595646,0.5195,0.0773,0.8634,0.0500,0.0074,0.0830,-2.2770,-2.5008,-1.3293,
0.600683,0.5195,0.0773,0.8634,0.0500,0.0074,0.0830,-2.5611,-2.6566,-1.0831,
0.610724,0.5195,0.0773,0.8634,0.0500,0.0074,0.0830,-2.8121,-2.5802,-0.7471,
0.614508,0.5389,0.2315,0.8549,0.0500,0.0074,0.0830,-2.8121,-2.5802,-0.7471,
0.615331,0.5389,0.2315,0.8549,0.1841,0.0791,0.2920,-2.8121,-2.5802,-0.7471,
0.620704,0.5389,0.2315,0.8549,0.1841,0.0791,0.2920,-2.9416,-2.3353,-0.4197,
0.630530,0.5389,0.2315,0.8549,0.1841,0.0791,0.2920,-2.9416,-1.9400,-0.1882,
0.634527,0.7671,0.2023,1.0815,0.1841,0.0791,0.2920,-2.9416,-1.9400,-0.1882,
0.635477,0.7671,0.2023,1.0815,1.9092,0.5034,2.6917,-2.9416,-1.9400,-0.1882,
0.640478,0.7671,0.2023,1.0815,1.9092,0.5034,2.6917,-2.8280,-1.5436,-0.0825,
0.650397,0.7671,0.2023,1.0815,1.9092,0.5034,2.6917,-2.6661,-1.3133,-0.1222,
0.654568,1.0172,0.1156,1.2552,1.9092,0.5034,2.6917,-2.6661,-1.3133,-0.1222,
0.655683,1.0172,0.1156,1.2552,3.8099,0.4328,4.7017,-2.6661,-1.3133,-0.1222,
0.660579,1.0172,0.1156,1.2552,3.8099,0.4328,4.7017,-2.5311,-1.2638,-0.3012,
0.670679,1.0172,0.1156,1.2552,3.8099,0.4328,4.7017,-2.4462,-1.3896,-0.5627,
0.674391,1.1017,0.0611,1.3233,3.8099,0.4328,4.7017,-2.4462,-1.3896,-0.5627,
0.675269,1.1017,0.0611,1.3233,4.5260,0.2509,5.4363,-2.4462,-1.3896,-0.5627,
0.681465,1.1017,0.0611,1.3233,4.5260,0.2509,5.4363,-2.3900,-1.6401,-0.8559,
0.691044,1.1017,0.0611,1.3233,4.5260,0.2509,5.4363,-2.3137,-1.8820,-1.1216,
0.694893,0.9611,0.1180,1.3697,4.5260,0.2509,5.4363,-2.3137,-1.8820,-1.1216,
0.696135,0.9611,0.1180,1.3697,3.7999,0.4665,5.4154,-2.3137,-1.8820,-1.1216,
0.701135,0.9611,0.1180,1.3697,3.7999,0.4665,5.4154,-2.1665,-2.0145,-1.3146,
0.711027,0.9611,0.1180,1.3697,3.7999,0.4665,5.4154,-1.9325,-2.0341,-1.3879,
0.714857,0.6265,0.2094,1.2887,3.7999,0.4665,5.4154,-1.9325,-2.0341,-1.3879,
0.716302,0.6265,0.2094,1.2887,1.8972,0.6340,3.9025,-1.9325,-2.0341,-1.3879,
0.720983,0.6265,0.2094,1.2887,1.8972,0.6340,3.9025,-1.6613,-2.0048,-1.3391,
0.730930,0.6265,0.2094,1.2887,1.8972,0.6340,3.9025,-1.4322,-2.0182,-1.2242,
0.735015,0.5802,0.1314,1.1673,1.8972,0.6340,3.9025,-1.4322,-2.0182,-1.2242,
0.736690,0.5802,0.1314,1.1673,1.3432,0.3043,2.7022,-1.4322,-2.0182,-1.2242,
0.740922,0.5802,0.1314,1.1673,1.3432,0.3043,2.7022,-1.2752,-2.0842,-1.1100,
0.751080,0.5802,0.1314,1.1673,1.3432,0.3043,2.7022,-1.1365,-2.1862,-1.0404,
0.755893,0.5580,0.0748,1.1853,1.3432,0.3043,2.7022,-1.1365,-2.1862,-1.0404,
0.757825,0.5580,0.0748,1.1853,1.2981,0.1739,2.7573,-1.1365,-2.1862,-1.0404,
0.761379,0.5580,0.0748,1.1853,1.2981,0.1739,2.7573,-0.9404,-2.3267,-1.0135,
0.771333,0.5580,0.0748,1.1853,1.2981,0.1739,2.7573,-0.5629,-2.5814,-0.9591,
0.775155,0.5154,0.0607,1.0588,1.2981,0.1739,2.7573,-0.5629,-2.5814,-0.9591,
0.776943,0.5154,0.0607,1.0588,0.7644,0.0901,1.5705,-0.5629,-2.5814,-0.9591,
0.781178,0.5154,0.0607,1.0588,0.7644,0.0901,1.5705,-0.4603,-2.6138,-0.9011,
0.791533,0.5154,0.0607,1.0588,0.7644,0.0901,1.5705,-0.3668,-2.6004,-0.8168,
0.795203,0.4606,0.0730,0.9975,0.7644,0.0901,1.5705,-0.3668,-2.6004,-0.8168,
0.796911,0.4606,0.0730,0.9975,0.4119,0.0653,0.8920,-0.3668,-2.6004,-0.8168,
0.801470,0.4606,0.0730,0.9975,0.4119,0.0653,0.8920,-0.2483,-2.5729,-0.7068,
0.811173,0.4606,0.0730,0.9975,0.4119,0.0653,0.8920,-0.1249,-2.5643,-0.5669,
0.814908,0.4350,-0.0066,0.8700,0.4119,0.0653,0.8920,-0.1249,-2.5643,-0.5669,
0.816514,0.4350,-0.0066,0.8700,-0.1227,0.0019,-0.2454,-0.1249,-2.5643,-0.5669,
0.821402,0.4350,-0.0066,0.8700,-0.1227,0.0019,-0.2454,-0.0467,-2.5417,-0.4271,
0.831018,0.4350,-0.0066,0.8700,-0.1227,0.0019,-0.2454,-0.0364,-2.4275,-0.3391,
0.835079,0.5683,-0.0704,0.7337,-0.1227,0.0019,-0.2454,-0.0364,-2.4275,-0.3391,
0.837071,0.5683,-0.0704,0.7337,-0.4190,0.0519,-0.5410,-0.0364,-2.4275,-0.3391,
0.841240,0.5683,-0.0704,0.7337,-0.4190,0.0519,-0.5410,-0.0529,-2.2064,-0.3287,
0.850971,0.5683,-0.0704,0.7337,-0.4190,0.0519,-0.5410,-0.0700,-1.9083,-0.3531,
0.855494,0.6736,-0.0996,0.6940,-0.4190,0.0519,-0.5410,-0.0700,-1.9083,-0.3531,
0.857223,0.6736,-0.0996,0.6940,-0.1934,0.0286,-0.1993,-0.0700,-1.9083,-0.3531,
0.860868,0.6736,-0.0996,0.6940,-0.1934,0.0286,-0.1993,-0.1066,-1.5625,-0.3635,
0.871224,0.6736,-0.0996,0.6940,-0.1934,0.0286,-0.1993,-0.1372,-1.2143,-0.3635,
0.874446,0.7819,-0.1191,0.7880,-0.1934,0.0286,-0.1993,-0.1372,-1.2143,-0.3635,
0.875619,0.7819,-0.1191,0.7880,0.7948,-0.1210,0.8009,-0.1372,-1.2143,-0.3635,
0.880706,0.7819,-0.1191,0.7880,0.7948,-0.1210,0.8009,-0.1170,-0.9767,-0.3709,
0.890507,0.7819,-0.1191,0.7880,0.7948,-0.1210,0.8009,-0.0846,-0.8661,-0.3886,
0.894351,0.9258,-0.2274,0.9060,0.7948,-0.1210,0.8009,-0.0846,-0.8661,-0.3886,
0.895249,0.9258,-0.2274,0.9060,2.1696,-0.5330,2.1232,-0.0846,-0.8661,-0.3886,
0.900513,0.9258,-0.2274,0.9060,2.1696,-0.5330,2.1232,-0.0413,-0.8838,-0.4179,
0.910472,0.9258,-0.2274,0.9060,2.1696,-0.5330,2.1232,0.0186,-0.9529,-0.4613,
0.914311,0.9148,-0.2664,0.9149,2.1696,-0.5330,2.1232,0.0186,-0.9529,-0.4613,
0.915165,0.9148,-0.2664,0.9149,2.1737,-0.6330,2.1740,0.0186,-0.9529,-0.4613,
0.920627,0.9148,-0.2664,0.9149,2.1737,-0.6330,2.1740,0.0944,-1.0115,-0.5052,
0.930549,0.9148,-0.2664,0.9149,2.1737,-0.6330,2.1740,0.1701,-1.0378,-0.5407,
0.934368,0.7886,-0.2580,0.8936,2.1737,-0.6330,2.1740,0.1701,-1.0378,-0.5407,
0.935503,0.7886,-0.2580,0.8936,1.3862,-0.4535,1.5706,0.1701,-1.0378,-0.5407,
0.940536,0.7886,-0.2580,0.8936,1.3862,-0.4535,1.5706,0.2544,-1.0213,-0.5578,
0.950547,0.7886,-0.2580,0.8936,1.3862,-0.4535,1.5706,0.3595,-1.0549,-0.5083,
0.954503,0.7526,-0.3204,0.8062,1.3862,-0.4535,1.5706,0.3595,-1.0549,-0.5083,
0.955565,0.7526,-0.3204,0.8062,0.9492,-0.4041,1.0168,0.3595,-1.0549,-0.5083,
0.960648,0.7526,-0.3204,0.8062,0.9492,-0.4041,1.0168,0.5079,-1.2705,-0.3067,
0.970614,0.7526,-0.3204,0.8062,0.9492,-0.4041,1.0168,0.5342,-1.4092,-0.2707,
0.974343,0.8863,-0.4760,0.6179,0.9492,-0.4041,1.0168,0.5342,-1.4092,-0.2707,
0.975325,0.8863,-0.4760,0.6179,1.3241,-0.7111,0.9230,0.5342,-1.4092,-0.2707,
0.980576,0.8863,-0.4760,0.6179,1.3241,-0.7111,0.9230,0.4572,-1.5863,-0.2804,
0.990540,0.8863,-0.4760,0.6179,1.3241,-0.7111,0.9230,0.3937,-1.7690,-0.3757,
0.994426,0.9979,-0.4755,0.5003,1.3241,-0.7111,0.9230,0.3937,-1.7690,-0.3757,
0.995313,0.9979,-0.4755,0.5003,1.7141,-0.8168,0.8594,0.3937,-1.7690,-0.3757,
1.000600,0.9979,-0.4755,0.5003,1.7141,-0.8168,0.8594,0.2892,-1.9553,-0.4362,
1.010603,0.9979,-0.4755,0.5003,1.7141,-0.8168,0.8594,0.1218,-2.1538,-0.4875,
1.014338,1.0277,-0.4950,0.2829,1.7141,-0.8168,0.8594,0.1218,-2.1538,-0.4875,
1.015264,1.0277,-0.4950,0.2829,1.4958,-0.7204,0.4118,0.1218,-2.1538,-0.4875,
1.020556,1.0277,-0.4950,0.2829,1.4958,-0.7204,0.4118,-0.0962,-2.3072,-0.5376,
1.030590,1.0277,-0.4950,0.2829,1.4958,-0.7204,0.4118,-0.3051,-2.3597,-0.5840,
1.034496,0.9764,-0.4941,0.2595,1.4958,-0.7204,0.4118,-0.3051,-2.3597,-0.5840,
1.035539,0.9764,-0.4941,0.2595,1.0545,-0.5336,0.2802,-0.3051,-2.3597,-0.5840,
1.041054,0.9764,-0.4941,0.2595,1.0545,-0.5336,0.2802,-0.4310,-2.2485,-0.6696,
1.050480,0.9764,-0.4941,0.2595,1.0545,-0.5336,0.2802,-0.4536,-2.0512,-0.7533,
1.056210,0.7994,-0.3484,0.3892,1.0545,-0.5336,0.2802,-0.4536,-2.0512,-0.7533,
1.057553,0.7994,-0.3484,0.3892,-0.3756,0.1637,-0.1829,-0.4536,-2.0512,-0.7533,
1.060724,0.7994,-0.3484,0.3892,-0.3756,0.1637,-0.1829,-0.3766,-1.8496,-0.7203,
1.070589,0.7994,-0.3484,0.3892,-0.3756,0.1637,-0.1829,-0.2447,-1.6150,-0.6054,
1.074314,0.6547,-0.1231,0.5510,-0.3756,0.1637,-0.1829,-0.2447,-1.6150,-0.6054,
1.075177,0.6547,-0.1231,0.5510,-1.0101,0.1900,-0.8501,-0.2447,-1.6150,-0.6054,
1.080601,0.6547,-0.1231,0.5510,-1.0101,0.1900,-0.8501,-0.0944,-1.3371,-0.4649,
1.090594,0.6547,-0.1231,0.5510,-1.0101,0.1900,-0.8501,0.0412,-1.0866,-0.3147,
1.094359,0.6736,-0.0672,0.5907,-1.0101,0.1900,-0.8501,0.0412,-1.0866,-0.3147,
1.095232,0.6736,-0.0672,0.5907,-0.7513,0.0749,-0.6590,0.0412,-1.0866,-0.3147,
1.100575,0.6736,-0.0672,0.5907,-0.7513,0.0749,-0.6590,0.1677,-0.9040,-0.1369,
1.110617,0.6736,-0.0672,0.5907,-0.7513,0.0749,-0.6590,0.2874,-0.7861,0.0836,
1.114436,0.7517,-0.0807,0.4696,-0.7513,0.0749,-0.6590,0.2874,-0.7861,0.0836,
1.115253,0.7517,-0.0807,0.4696,-0.0950,-0.0900,-1.7228,0.2874,-0.7861,0.0836,
1.120516,0.7517,-0.0807,0.4696,-0.0950,-0.0900,-1.7228,0.3473,-0.6890,0.3017,
1.130535,0.7517,-0.0807,0.4696,-0.0950,-0.0900,-1.7228,0.3265,-0.5705,0.5088,
1.134390,0.7842,-0.1053,0.4610,-0.0950,-0.0900,-1.7228,0.3265,-0.5705,0.5088,
1.135437,0.7842,-0.1053,0.4610,0.1448,-0.3096,-1.7101,0.3265,-0.5705,0.5088,
1.140458,0.7842,-0.1053,0.4610,0.1448,-0.3096,-1.7101,0.3931,-0.2510,0.9046,
1.150496,0.7842,-0.1053,0.4610,0.1448,-0.3096,-1.7101,0.4169,-0.1062,1.1349,
1.154438,0.8782,-0.1347,0.4630,0.1448,-0.3096,-1.7101,0.4169,-0.1062,1.1349,
1.155328,0.8782,-0.1347,0.4630,1.0446,-0.4899,-1.6523,0.4169,-0.1062,1.1349,
1.160551,0.8782,-0.1347,0.4630,1.0446,-0.4899,-1.6523,0.4517,0.1058,1.3445,
1.170589,0.8782,-0.1347,0.4630,1.0446,-0.4899,-1.6523,0.4804,0.3165,1.4770,
1.174469,1.0328,-0.3031,0.4444,1.0446,-0.4899,-1.6523,0.4804,0.3165,1.4770,
1.175313,1.0328,-0.3031,0.4444,2.5760,-1.9634,-1.8274,0.4804,0.3165,1.4770,
1.180537,1.0328,-0.3031,0.4444,2.5760,-1.9634,-1.8274,0.5030,0.3416,1.5552,
1.190569,1.0328,-0.3031,0.4444,2.5760,-1.9634,-1.8274,0.4554,0.1638,1.5509,
1.194468,1.0781,-0.4344,0.2939,2.5760,-1.9634,-1.8274,0.4554,0.1638,1.5509,
1.195368,1.0781,-0.4344,0.2939,3.0305,-3.0347,-3.2760,0.4554,0.1638,1.5509,
1.200652,1.0781,-0.4344,0.2939,3.0305,-3.0347,-3.2760,0.3711,-0.0604,1.4391,
1.211105,1.0781,-0.4344,0.2939,3.0305,-3.0347,-3.2760,0.2776,-0.1740,1.3035,
1.215103,0.9626,-0.4217,0.2497,3.0305,-3.0347,-3.2760,0.2776,-0.1740,1.3035,
1.216759,0.9626,-0.4217,0.2497,1.8576,-2.6893,-3.6110,0.2776,-0.1740,1.3035,
1.222431,0.9626,-0.4217,0.2497,1.8576,-2.6893,-3.6110,0.2446,-0.0738,1.2119,
1.231268,0.9626,-0.4217,0.2497,1.8576,-2.6893,-3.6110,0.3228,0.2652,1.1881,
1.235034,0.6810,-0.2114,0.4286,1.8576,-2.6893,-3.6110,0.3228,0.2652,1.1881,
1.236989,0.6810,-0.2114,0.4286,-0.9052,-0.4379,-1.8041,0.3228,0.2652,1.1881,
1.241310,0.6810,-0.2114,0.4286,-0.9052,-0.4379,-1.8041,0.4487,0.6696,1.3212,
1.251192,0.6810,-0.2114,0.4286,-0.9052,-0.4379,-1.8041,0.5195,0.9934,1.6462,
1.255837,0.2327,-0.0750,0.5262,-0.9052,-0.4379,-1.8041,0.5195,0.9934,1.6462,
1.257831,0.2327,-0.0750,0.5262,-5.1689,1.0863,-0.9552,0.5195,0.9934,1.6462,
1.261185,0.2327,-0.0750,0.5262,-5.1689,1.0863,-0.9552,0.5488,1.1302,2.1245,
1.272420,0.2327,-0.0750,0.5262,-5.1689,1.0863,-0.9552,0.5647,1.0190,2.7024,
1.275296,0.1631,-0.2353,0.3982,-5.1689,1.0863,-0.9552,0.5647,1.0190,2.7024,
1.277281,0.1631,-0.2353,0.3982,-5.6275,-0.1772,-2.3768,0.5647,1.0190,2.7024,
1.281345,0.1631,-0.2353,0.3982,-5.6275,-0.1772,-2.3768,0.4957,0.6775,3.3133,
1.291300,0.1631,-0.2353,0.3982,-5.6275,-0.1772,-2.3768,0.3393,0.3526,3.8936,
1.295091,0.4092,-0.5195,0.3429,-5.6275,-0.1772,-2.3768,0.3393,0.3526,3.8936,
1.296590,0.4092,-0.5195,0.3429,-2.9832,-2.4393,-2.9823,0.3393,0.3526,3.8936,
1.301156,0.4092,-0.5195,0.3429,-2.9832,-2.4393,-2.9823,0.1664,0.1412,4.3860,
1.311153,0.4092,-0.5195,0.3429,-2.9832,-2.4393,-2.9823,0.0168,0.1992,4.7372,
1.314853,0.6955,-0.8100,0.2547,-2.9832,-2.4393,-2.9823,0.0168,0.1992,4.7372,
1.316740,0.6955,-0.8100,0.2547,0.0963,-4.5807,-3.8081,0.0168,0.1992,4.7372,
1.322556,0.6955,-0.8100,0.2547,0.0963,-4.5807,-3.8081,-0.0706,0.5016,5.0310,
1.331313,0.6955,-0.8100,0.2547,0.0963,-4.5807,-3.8081,-0.2941,1.4087,5.0640,
1.335181,1.3908,-1.0874,0.1791,0.0963,-4.5807,-3.8081,-0.2941,1.4087,5.0640,
1.338472,1.3908,-1.0874,0.1791,7.3373,-6.5356,-4.5369,-0.2941,1.4087,5.0640,
1.344021,1.3908,-1.0874,0.1791,7.3373,-6.5356,-4.5369,-0.3723,1.8950,4.4880,
1.351555,1.3908,-1.0874,0.1791,7.3373,-6.5356,-4.5369,-0.3681,2.2310,3.7604,
1.357349,1.2870,-1.1063,0.1964,7.3373,-6.5356,-4.5369,-0.3681,2.2310,3.7604,
1.359954,1.2870,-1.1063,0.1964,6.8479,-6.1009,-4.4358,-0.3681,2.2310,3.7604,
1.362999,1.2870,-1.1063,0.1964,6.8479,-6.1009,-4.4358,-0.3271,2.3489,3.0750,
1.373026,1.2870,-1.1063,0.1964,6.8479,-6.1009,-4.4358,-0.2483,2.1509,2.6260,
1.375909,0.6365,-0.9049,0.2855,6.8479,-6.1009,-4.4358,-0.2483,2.1509,2.6260,
1.378304,0.6365,-0.9049,0.2855,0.9472,-3.6937,-3.6368,-0.2483,2.1509,2.6260,
1.381344,0.6365,-0.9049,0.2855,0.9472,-3.6937,-3.6368,-0.1683,1.5285,2.5063,
1.391340,0.6365,-0.9049,0.2855,0.9472,-3.6937,-3.6368,-0.2221,0.8474,2.4428,
1.395131,0.4308,-0.7380,0.3156,0.9472,-3.6937,-3.6368,-0.2221,0.8474,2.4428,
1.396777,0.4308,-0.7380,0.3156,-0.7375,-1.6996,-3.3063,-0.2221,0.8474,2.4428,
1.401311,0.4308,-0.7380,0.3156,-0.7375,-1.6996,-3.3063,-0.3858,0.3519,2.2834,
1.411288,0.4308,-0.7380,0.3156,-0.7375,-1.6996,-3.3063,-0.5269,-0.0952,2.2302,
1.415171,0.3145,-0.8466,0.2647,-0.7375,-1.6996,-3.3063,-0.5269,-0.0952,2.2302,
1.416947,0.3145,-0.8466,0.2647,-1.6668,-2.3997,-3.6376,-0.5269,-0.0952,2.2302,
1.422471,0.3145,-0.8466,0.2647,-1.6668,-2.3997,-3.6376,-0.5477,-0.6896,2.2980,
1.431414,0.3145,-0.8466,0.2647,-1.6668,-2.3997,-3.6376,-0.5385,-0.5558,2.3512,
1.435283,0.2075,-0.8407,0.7379,-1.6668,-2.3997,-3.6376,-0.5385,-0.5558,2.3512,
1.437900,0.2075,-0.8407,0.7379,-2.5274,-1.9894,1.2055,-0.5385,-0.5558,2.3512,
1.443028,0.2075,-0.8407,0.7379,-2.5274,-1.9894,1.2055,-0.3638,-0.0140,2.2424,
1.451263,0.2075,-0.8407,0.7379,-2.5274,-1.9894,1.2055,-0.0480,0.3361,1.9981,
1.457009,0.2855,-0.8484,0.5852,-2.5274,-1.9894,1.2055,-0.0480,0.3361,1.9981,
1.458866,0.2855,-0.8484,0.5852,-1.4757,-1.7952,-0.2158,-0.0480,0.3361,1.9981,
1.461725,0.2855,-0.8484,0.5852,-1.4757,-1.7952,-0.2158,0.2257,0.3464,1.6633,
1.472601,0.2855,-0.8484,0.5852,-1.4757,-1.7952,-0.2158,0.2788,0.2090,1.4355,
1.475571,0.4145,-0.7565,0.4152,-1.4757,-1.7952,-0.2158,0.2788,0.2090,1.4355,
1.477867,0.4145,-0.7565,0.4152,0.0155,-0.7452,-1.8749,0.2788,0.2090,1.4355,
1.481345,0.4145,-0.7565,0.4152,0.0155,-0.7452,-1.8749,0.1939,-0.1679,1.3096,
1.491526,0.4145,-0.7565,0.4152,0.0155,-0.7452,-1.8749,0.1133,-0.8594,1.0592,
1.495298,0.5750,-0.6210,0.3261,0.0155,-0.7452,-1.8749,0.1133,-0.8594,1.0592,
1.497318,0.5750,-0.6210,0.3261,1.6504,0.6959,-2.6604,0.1133,-0.8594,1.0592,
1.501431,0.5750,-0.6210,0.3261,1.6504,0.6959,-2.6604,0.0547,-1.6291,0.6725,
1.511981,0.5750,-0.6210,0.3261,1.6504,0.6959,-2.6604,0.0766,-2.5772,-0.3788,
1.515216,0.4007,-0.6397,0.3979,1.6504,0.6959,-2.6604,0.0766,-2.5772,-0.3788,
1.517216,0.4007,-0.6397,0.3979,-0.3036,0.5481,-1.7402,0.0766,-2.5772,-0.3788,
1.523010,0.4007,-0.6397,0.3979,-0.3036,0.5481,-1.7402,0.0162,-2.5411,-0.7643,
1.531420,0.4007,-0.6397,0.3979,-0.3036,0.5481,-1.7402,-0.1176,-2.2632,-1.0000,
1.535338,0.3191,-0.6902,0.3301,-0.3036,0.5481,-1.7402,-0.1176,-2.2632,-1.0000,
1.537864,0.3191,-0.6902,0.3301,-1.4854,0.0183,-2.1415,-0.1176,-2.2632,-1.0000,
1.542821,0.3191,-0.6902,0.3301,-1.4854,0.0183,-2.1415,-0.3253,-1.8631,-0.9603,
1.551366,0.3191,-0.6902,0.3301,-1.4854,0.0183,-2.1415,-0.5794,-1.5014,-0.5981,
1.557586,0.3309,-0.6450,0.1451,-1.4854,0.0183,-2.1415,-0.5794,-1.5014,-0.5981,
1.560107,0.3309,-0.6450,0.1451,-1.6394,0.4865,-3.6764,-0.5794,-1.5014,-0.5981,
1.562953,0.3309,-0.6450,0.1451,-1.6394,0.4865,-3.6764,-0.7169,-1.4220,-0.2450,
1.572709,0.3309,-0.6450,0.1451,-1.6394,0.4865,-3.6764,-0.6937,-1.6816,-0.0807,
1.575294,0.4835,-0.3562,0.0017,-1.6394,0.4865,-3.6764,-0.6937,-1.6816,-0.0807,
1.577794,0.4835,-0.3562,0.0017,-0.3365,3.4092,-4.7592,-0.6937,-1.6816,-0.0807,
1.581445,0.4835,-0.3562,0.0017,-0.3365,3.4092,-4.7592,-0.5666,-2.1929,0.0048,
1.591430,0.4835,-0.3562,0.0017,-0.3365,3.4092,-4.7592,-0.4970,-2.6407,0.1160,
1.595133,0.4634,-0.5145,-0.0120,-0.3365,3.4092,-4.7592,-0.4970,-2.6407,0.1160,
1.597149,0.4634,-0.5145,-0.0120,-0.7701,1.9497,-4.4840,-0.4970,-2.6407,0.1160,
1.601506,0.4634,-0.5145,-0.0120,-0.7701,1.9497,-4.4840,-0.6216,-2.2729,0.5351,
1.612013,0.4634,-0.5145,-0.0120,-0.7701,1.9497,-4.4840,-0.9270,-1.1392,1.5778,
1.615353,0.3164,-1.2758,-0.0906,-0.7701,1.9497,-4.4840,-0.9270,-1.1392,1.5778,
1.617417,0.3164,-1.2758,-0.0906,-2.1863,-5.2556,-4.8507,-0.9270,-1.1392,1.5778,
1.623577,0.3164,-1.2758,-0.0906,-2.1863,-5.2556,-4.8507,-1.3876,-0.2168,3.0653,
1.631356,0.3164,-1.2758,-0.0906,-2.1863,-5.2556,-4.8507,-1.8274,-0.2247,4.4214,
1.635145,0.3229,-0.8344,-0.2708,-2.1863,-5.2556,-4.8507,-1.8274,-0.2247,4.4214,
1.637812,0.3229,-0.8344,-0.2708,-1.5743,-0.3635,-6.2124,-1.8274,-0.2247,4.4214,
1.643311,0.3229,-0.8344,-0.2708,-1.5743,-0.3635,-6.2124,-2.1878,-1.0408,5.2595,
1.651509,0.3229,-0.8344,-0.2708,-1.5743,-0.3635,-6.2124,-2.4548,-2.0591,5.5313,
1.657753,0.3823,-0.8240,-0.1544,-1.5743,-0.3635,-6.2124,-2.4548,-2.0591,5.5313,
1.660205,0.3823,-0.8240,-0.1544,-0.2358,0.3998,-4.4243,-2.4548,-2.0591,5.5313,
1.663074,0.3823,-0.8240,-0.1544,-0.2358,0.3998,-4.4243,-2.5855,-2.8050,5.4055,
1.673223,0.3823,-0.8240,-0.1544,-0.2358,0.3998,-4.4243,-2.5770,-3.1862,5.0958,
1.675738,0.3505,-1.5672,0.1741,-0.2358,0.3998,-4.4243,-2.5770,-3.1862,5.0958,
1.678208,0.3505,-1.5672,0.1741,0.2056,-6.3550,-0.4566,-2.5770,-3.1862,5.0958,
1.681498,0.3505,-1.5672,0.1741,0.2056,-6.3550,-0.4566,-2.5916,-3.0200,4.7622,
1.691585,0.3505,-1.5672,0.1741,0.2056,-6.3550,-0.4566,-2.6515,-2.0549,4.5796,
1.695356,0.5229,-2.5357,1.1701,0.2056,-6.3550,-0.4566,-2.6515,-2.0549,4.5796,
1.697627,0.5229,-2.5357,1.1701,2.6602,-15.4822,9.9337,-2.6515,-2.0549,4.5796,
1.701436,0.5229,-2.5357,1.1701,2.6602,-15.4822,9.9337,-1.4572,0.4686,4.2345,
1.724464,0.5229,-2.5357,1.1701,2.6602,-15.4822,9.9337,-0.1500,0.3104,3.6401,
1.727120,0.7389,-1.7177,0.5545,2.6602,-15.4822,9.9337,-0.1500,0.3104,3.6401,
1.729781,0.7389,-1.7177,0.5545,5.5329,-7.2787,4.0354,-0.1500,0.3104,3.6401,
1.731710,0.7389,-1.7177,0.5545,5.5329,-7.2787,4.0354,0.9710,-1.0720,2.9602,
1.732931,0.7389,-1.7177,0.5545,5.5329,-7.2787,4.0354,1.5555,-2.6999,2.4965,
1.746717,0.5621,-1.0500,0.0093,5.5329,-7.2787,4.0354,1.5555,-2.6999,2.4965,
1.748538,0.5621,-1.0500,0.0093,4.2668,-0.6930,-1.4963,1.5555,-2.6999,2.4965,
1.750471,0.5621,-1.0500,0.0093,4.2668,-0.6930,-1.4963,1.5617,-3.7213,2.3786,
1.752153,0.5621,-1.0500,0.0093,4.2668,-0.6930,-1.4963,1.1450,-3.8380,2.5234,
1.757089,0.2623,-0.8679,-0.0783,4.2668,-0.6930,-1.4963,1.1450,-3.8380,2.5234,
1.758824,0.2623,-0.8679,-0.0783,1.5732,1.0917,-2.5200,1.1450,-3.8380,2.5234,
1.761180,0.2623,-0.8679,-0.0783,1.5732,1.0917,-2.5200,0.5837,-3.1984,2.6902,
1.772483,0.2623,-0.8679,-0.0783,1.5732,1.0917,-2.5200,0.1426,-1.8411,2.6926,
1.775093,0.1543,-0.6459,0.3312,1.5732,1.0917,-2.5200,0.1426,-1.8411,2.6926,
1.776676,0.1543,-0.6459,0.3312,0.8407,3.2884,1.4563,0.1426,-1.8411,2.6926,
1.780739,0.1543,-0.6459,0.3312,0.8407,3.2884,1.4563,-0.0761,0.0447,2.4739,
1.790814,0.1543,-0.6459,0.3312,0.8407,3.2884,1.4563,-0.1854,1.9677,1.9419,
1.794576,0.0700,-0.4098,0.2623,0.8407,3.2884,1.4563,-0.1854,1.9677,1.9419,
1.795483,0.0700,-0.4098,0.2623,0.3656,5.6187,0.7717,-0.1854,1.9677,1.9419,
1.800787,0.0700,-0.4098,0.2623,0.3656,5.6187,0.7717,-0.2276,3.1754,1.0702,
1.810688,0.0700,-0.4098,0.2623,0.3656,5.6187,0.7717,-0.1622,3.4777,0.1520,
1.814579,-0.0572,-0.8126,0.0083,0.3656,5.6187,0.7717,-0.1622,3.4777,0.1520,
1.815568,-0.0572,-0.8126,0.0083,-0.7238,1.6796,-1.6969,-0.1622,3.4777,0.1520,
1.821784,-0.0572,-0.8126,0.0083,-0.7238,1.6796,-1.6969,-0.0040,3.2841,-0.4228,
1.830631,-0.0572,-0.8126,0.0083,-0.7238,1.6796,-1.6969,0.1664,2.9145,-0.5248,
1.834600,0.0490,-0.9370,0.2351,-0.7238,1.6796,-1.6969,0.1664,2.9145,-0.5248,
1.836426,0.0490,-0.9370,0.2351,0.2827,0.4528,0.4925,0.1664,2.9145,-0.5248,
1.841287,0.0490,-0.9370,0.2351,0.2827,0.4528,0.4925,0.3069,2.5358,-0.3757,
1.851209,0.0490,-0.9370,0.2351,0.2827,0.4528,0.4925,0.4829,2.1100,-0.2743,
1.856520,0.2667,-0.8437,0.3149,0.2827,0.4528,0.4925,0.4829,2.1100,-0.2743,
1.858400,0.2667,-0.8437,0.3149,2.3675,1.3458,1.1686,0.4829,2.1100,-0.2743,
1.861293,0.2667,-0.8437,0.3149,2.3675,1.3458,1.1686,0.7119,1.5780,-0.3312,
1.873250,0.2667,-0.8437,0.3149,2.3675,1.3458,1.1686,0.9600,0.9512,-0.5358,
1.876014,0.3876,-0.7186,0.2117,2.3675,1.3458,1.1686,0.9600,0.9512,-0.5358,
1.878051,0.3876,-0.7186,0.2117,3.4247,2.5292,-0.0258,0.9600,0.9512,-0.5358,
1.881352,0.3876,-0.7186,0.2117,3.4247,2.5292,-0.0258,1.4566,-0.3646,-1.3812,
1.891182,0.3876,-0.7186,0.2117,3.4247,2.5292,-0.0258,1.6948,-0.9358,-1.8699,
1.895018,0.2435,-0.7311,0.2014,3.4247,2.5292,-0.0258,1.6948,-0.9358,-1.8699,
1.896848,0.2435,-0.7311,0.2014,1.5913,2.3112,-0.4233,1.6948,-0.9358,-1.8699,
1.901231,0.2435,-0.7311,0.2014,1.5913,2.3112,-0.4233,1.9496,-1.3964,-2.2499,
1.911107,0.2435,-0.7311,0.2014,1.5913,2.3112,-0.4233,2.2568,-1.7103,-2.5040,
1.914928,0.0158,-0.9060,0.4371,1.5913,2.3112,-0.4233,2.2568,-1.7103,-2.5040,
1.916571,0.0158,-0.9060,0.4371,-1.1791,0.4350,1.5187,2.2568,-1.7103,-2.5040,
1.923175,0.0158,-0.9060,0.4371,-1.1791,0.4350,1.5187,2.5916,-1.7647,-2.6628,
1.931351,0.0158,-0.9060,0.4371,-1.1791,0.4350,1.5187,2.8524,-1.4715,-2.7428,
1.935275,-0.1126,-1.2230,0.5727,-1.1791,0.4350,1.5187,2.8524,-1.4715,-2.7428,
1.937973,-0.1126,-1.2230,0.5727,-3.0067,-2.9199,2.3924,2.8524,-1.4715,-2.7428,
1.943622,-0.1126,-1.2230,0.5727,-3.0067,-2.9199,2.3924,2.9379,-0.9474,-2.7777,
1.951529,-0.1126,-1.2230,0.5727,-3.0067,-2.9199,2.3924,2.8078,-0.4727,-2.7881,
1.958049,-0.1404,-1.4944,0.4015,-3.0067,-2.9199,2.3924,2.8078,-0.4727,-2.7881,
1.960076,-0.1404,-1.4944,0.4015,-3.7389,-5.8692,0.2518,2.8078,-0.4727,-2.7881,
1.962213,-0.1404,-1.4944,0.4015,-3.7389,-5.8692,0.2518,2.4737,-0.2626,-2.7490,
1.973005,-0.1404,-1.4944,0.4015,-3.7389,-5.8692,0.2518,2.0149,-0.2803,-2.6799,
1.975465,-0.1494,-1.6238,0.1794,-3.7389,-5.8692,0.2518,2.0149,-0.2803,-2.6799,
1.977608,-0.1494,-1.6238,0.1794,-4.2020,-7.3882,-2.2416,2.0149,-0.2803,-2.6799,
1.981042,-0.1494,-1.6238,0.1794,-4.2020,-7.3882,-2.2416,1.5549,-0.4935,-2.5706,
1.993136,-0.1494,-1.6238,0.1794,-4.2020,-7.3882,-2.2416,1.1890,-0.9193,-2.4276,
1.997384,-0.0211,-1.5394,0.2961,-4.2020,-7.3882,-2.2416,1.1890,-0.9193,-2.4276,
1.999016,-0.0211,-1.5394,0.2961,-3.2997,-6.7433,-1.2222,1.1890,-0.9193,-2.4276,
2.000950,-0.0211,-1.5394,0.2961,-3.2997,-6.7433,-1.2222,0.9129,-1.4434,-2.2713,
2.014770,-0.0211,-1.5394,0.2961,-3.2997,-6.7433,-1.2222,0.5959,-1.7012,-1.8498,
2.016086,0.0564,-1.1993,0.3325,-3.2997,-6.7433,-1.2222,0.5959,-1.7012,-1.8498,
2.017339,0.0564,-1.1993,0.3325,-2.9351,-3.5468,-0.8231,0.5959,-1.7012,-1.8498,
2.031022,0.0564,-1.1993,0.3325,-2.9351,-3.5468,-0.8231,0.5269,-1.1728,-1.6341,
2.034863,0.1566,-0.8937,0.1606,-2.9351,-3.5468,-0.8231,0.5269,-1.1728,-1.6341,
2.035989,0.1566,-0.8937,0.1606,-2.1420,-0.6038,-2.4460,0.5269,-1.1728,-1.6341,
2.042228,0.1566,-0.8937,0.1606,-2.1420,-0.6038,-2.4460,0.4535,-0.4715,-1.4496,
2.052631,0.1566,-0.8937,0.1606,-2.1420,-0.6038,-2.4460,0.2953,0.4338,-1.1167,
2.056020,0.2322,-0.7687,0.0500,-2.1420,-0.6038,-2.4460,0.2953,0.4338,-1.1167,
2.056969,0.2322,-0.7687,0.0500,-1.5120,0.5746,-3.5209,0.2953,0.4338,-1.1167,
2.060540,0.2322,-0.7687,0.0500,-1.5120,0.5746,-3.5209,0.2953,0.4338,-1.1167,
2.071671,0.2322,-0.7687,0.0500,-1.5120,0.5746,-3.5209,0.2489,0.5285,-0.8944,
2.074857,0.3315,-0.7969,0.0756,-1.5120,0.5746,-3.5209,0.2489,0.5285,-0.8944,
2.075721,0.3315,-0.7969,0.0756,-0.5632,0.2932,-3.2563,0.2489,0.5285,-0.8944,
2.080539,0.3315,-0.7969,0.0756,-0.5632,0.2932,-3.2563,0.2452,0.4277,-0.8363,
2.091100,0.3315,-0.7969,0.0756,-0.5632,0.2932,-3.2563,0.2434,0.2756,-0.7936,
2.094405,0.3624,-0.8736,0.1984,-0.5632,0.2932,-3.2563,0.2434,0.2756,-0.7936,
2.095365,0.3624,-0.8736,0.1984,-0.2987,-0.4681,-2.0357,0.2434,0.2756,-0.7936,
2.100512,0.3624,-0.8736,0.1984,-0.2987,-0.4681,-2.0357,0.2202,0.1290,-0.7453,
2.110601,0.3624,-0.8736,0.1984,-0.2987,-0.4681,-2.0357,0.1579,0.0746,-0.6769,
2.114462,0.3243,-0.9114,0.3327,-0.2987,-0.4681,-2.0357,0.1579,0.0746,-0.6769,
2.115459,0.3243,-0.9114,0.3327,-0.7216,-0.8471,-0.6891,0.1579,0.0746,-0.6769,
2.122226,0.3243,-0.9114,0.3327,-0.7216,-0.8471,-0.6891,0.0522,0.1785,-0.5657,
2.130674,0.3243,-0.9114,0.3327,-0.7216,-0.8471,-0.6891,-0.1084,0.4448,-0.4026,
2.134486,0.2124,-0.8746,0.4107,-0.7216,-0.8471,-0.6891,-0.1084,0.4448,-0.4026,
2.135378,0.2124,-0.8746,0.4107,-1.8121,-0.4710,0.1012,-0.1084,0.4448,-0.4026,
2.140483,0.2124,-0.8746,0.4107,-1.8121,-0.4710,0.1012,-0.3339,0.8394,-0.1900,
2.150830,0.2124,-0.8746,0.4107,-1.8121,-0.4710,0.1012,-0.5617,1.3122,0.0525,
2.155312,0.0905,-0.7879,0.5808,-1.8121,-0.4710,0.1012,-0.5617,1.3122,0.0525,
2.156557,0.0905,-0.7879,0.5808,-2.8622,0.4469,1.7688,-0.5617,1.3122,0.0525,
2.160762,0.0905,-0.7879,0.5808,-2.8622,0.4469,1.7688,-0.7437,1.7490,0.3225,
2.171982,0.0905,-0.7879,0.5808,-2.8622,0.4469,1.7688,-0.8574,1.9750,0.5821,
2.174520,0.0308,-0.7498,0.4029,-2.8622,0.4469,1.7688,-0.8574,1.9750,0.5821,
2.175531,0.0308,-0.7498,0.4029,-3.1482,0.9490,0.0197,-0.8574,1.9750,0.5821,
2.180623,0.0308,-0.7498,0.4029,-3.1482,0.9490,0.0197,-0.9472,1.9200,0.8209,
2.190708,0.0308,-0.7498,0.4029,-3.1482,0.9490,0.0197,-1.1610,1.6280,1.0806,
2.194556,-0.1176,-0.7434,0.4561,-3.1482,0.9490,0.0197,-1.1610,1.6280,1.0806,
2.195658,-0.1176,-0.7434,0.4561,-4.2183,1.1793,0.5816,-1.1610,1.6280,1.0806,
2.200658,-0.1176,-0.7434,0.4561,-4.2183,1.1793,0.5816,-1.4768,1.1864,1.3603,
2.210783,-0.1176,-0.7434,0.4561,-4.2183,1.1793,0.5816,-1.6472,0.7765,1.6077,
2.214598,0.4040,-0.9677,1.3342,-4.2183,1.1793,0.5816,-1.6472,0.7765,1.6077,
2.215681,0.4040,-0.9677,1.3342,1.2679,-0.8401,9.3036,-1.6472,0.7765,1.6077,
2.223570,0.4040,-0.9677,1.3342,1.2679,-0.8401,9.3036,-1.4811,0.5334,1.6902,
2.230649,0.4040,-0.9677,1.3342,1.2679,-0.8401,9.3036,-1.2679,0.4582,1.4562,
2.234490,1.0184,-1.1223,0.2028,1.2679,-0.8401,9.3036,-1.2679,0.4582,1.4562,
2.235351,1.0184,-1.1223,0.2028,7.5592,-2.2022,-1.6082,-1.2679,0.4582,1.4562,
2.240684,1.0184,-1.1223,0.2028,7.5592,-2.2022,-1.6082,-1.5452,0.1033,0.9785,
2.250678,1.0184,-1.1223,0.2028,7.5592,-2.2022,-1.6082,-3.0229,-1.7543,0.0286,
2.255512,0.5056,-0.8528,-0.9407,7.5592,-2.2022,-1.6082,-3.0229,-1.7543,0.0286,
2.256564,0.5056,-0.8528,-0.9407,2.4942,0.6236,-12.2955,-3.0229,-1.7543,0.0286,
2.260508,0.5056,-0.8528,-0.9407,2.4942,0.6236,-12.2955,-3.7468,-2.0036,-0.0660,
2.277894,0.5056,-0.8528,-0.9407,2.4942,0.6236,-12.2955,-3.9282,-1.6810,-0.0056,
2.279202,0.4191,-0.6268,-0.2893,2.4942,0.6236,-12.2955,-3.9282,-1.6810,-0.0056,
2.280742,0.4191,-0.6268,-0.2893,1.4596,3.0393,-5.0389,-3.9282,-1.6810,-0.0056,
2.281590,0.4191,-0.6268,-0.2893,1.4596,3.0393,-5.0389,-3.5348,-0.9657,0.1246,
2.294447,0.4191,-0.6268,-0.2893,1.4596,3.0393,-5.0389,-2.6729,0.1100,0.2919,
2.295495,0.3913,-0.5697,0.2156,1.4596,3.0393,-5.0389,-2.6729,0.1100,0.2919,
2.296473,0.3913,-0.5697,0.2156,1.1213,3.7080,0.5374,-2.6729,0.1100,0.2919,
2.300523,0.3913,-0.5697,0.2156,1.1213,3.7080,0.5374,-1.5348,1.3684,0.4526,
2.310527,0.3913,-0.5697,0.2156,1.1213,3.7080,0.5374,-0.4597,2.5077,0.5344,
2.314322,0.6393,-0.6611,0.1434,1.1213,3.7080,0.5374,-0.4597,2.5077,0.5344,
2.315170,0.6393,-0.6611,0.1434,3.5859,2.8388,-0.0689,-0.4597,2.5077,0.5344,
2.322004,0.6393,-0.6611,0.1434,3.5859,2.8388,-0.0689,0.3631,3.2126,0.3988,
2.330644,0.6393,-0.6611,0.1434,3.5859,2.8388,-0.0689,1.0980,3.2835,-0.0972,
2.334488,1.3002,-0.7716,0.2731,3.5859,2.8388,-0.0689,1.0980,3.2835,-0.0972,
2.335523,1.3002,-0.7716,0.2731,10.0137,1.6900,0.9084,1.0980,3.2835,-0.0972,
2.340774,1.3002,-0.7716,0.2731,10.0137,1.6900,0.9084,1.7431,2.6390,-0.9298,
2.350592,1.3002,-0.7716,0.2731,10.0137,1.6900,0.9084,2.1120,0.9420,-1.8992,
2.355383,1.4208,-0.8876,0.0045,10.0137,1.6900,0.9084,2.1120,0.9420,-1.8992,
2.356553,1.4208,-0.8876,0.0045,10.8040,0.3406,-2.1331,2.1120,0.9420,-1.8992,
2.360679,1.4208,-0.8876,0.0045,10.8040,0.3406,-2.1331,1.8573,-1.4654,-2.6518,
2.372029,1.4208,-0.8876,0.0045,10.8040,0.3406,-2.1331,1.0540,-2.6419,-2.8699,
2.374680,0.3403,-0.8383,0.0937,10.8040,0.3406,-2.1331,1.0540,-2.6419,-2.8699,
2.375614,0.3403,-0.8383,0.0937,-0.5020,0.5254,-1.3270,1.0540,-2.6419,-2.8699,
2.381081,0.3403,-0.8383,0.0937,-0.5020,0.5254,-1.3270,0.2141,-2.6016,-2.4832,
2.391165,0.3403,-0.8383,0.0937,-0.5020,0.5254,-1.3270,-0.1530,-2.1899,-1.7856,
2.395243,0.1708,-0.5342,1.1063,-0.5020,0.5254,-1.3270,-0.1530,-2.1899,-1.7856,
2.396970,0.1708,-0.5342,1.1063,-2.6994,3.2823,8.7198,-0.1530,-2.1899,-1.7856,
2.401150,0.1708,-0.5342,1.1063,-2.6994,3.2823,8.7198,0.2947,-1.6804,-1.2145,
2.411208,0.1708,-0.5342,1.1063,-2.6994,3.2823,8.7198,1.2391,-0.8704,-0.9182,
2.414965,-0.0421,-0.5378,1.4210,-2.6994,3.2823,8.7198,1.2391,-0.8704,-0.9182,
2.416471,-0.0421,-0.5378,1.4210,-5.0139,3.0737,11.6084,1.2391,-0.8704,-0.9182,
2.423461,-0.0421,-0.5378,1.4210,-5.0139,3.0737,11.6084,2.2782,0.2243,-0.7630,
2.431206,-0.0421,-0.5378,1.4210,-5.0139,3.0737,11.6084,3.2244,1.1332,-0.6329,
2.434945,-0.2141,-0.8038,0.8349,-5.0139,3.0737,11.6084,3.2244,1.1332,-0.6329,
2.436519,-0.2141,-0.8038,0.8349,-6.7031,0.2428,5.1757,3.2244,1.1332,-0.6329,
2.441958,-0.2141,-0.8038,0.8349,-6.7031,0.2428,5.1757,3.0962,0.7466,-0.6916,
2.451213,-0.2141,-0.8038,0.8349,-6.7031,0.2428,5.1757,2.0223,1.4375,-0.8082,
2.457177,-0.2480,-1.1266,-0.0931,-6.7031,0.2428,5.1757,2.0223,1.4375,-0.8082,
2.459510,-0.2480,-1.1266,-0.0931,-6.9517,-3.1129,-4.5001,2.0223,1.4375,-0.8082,
2.461720,-0.2480,-1.1266,-0.0931,-6.9517,-3.1129,-4.5001,0.9636,3.0031,-0.7563,
2.473846,-0.2480,-1.1266,-0.0931,-6.9517,-3.1129,-4.5001,0.1945,4.5859,-0.5559,
2.475939,-0.3048,-1.4561,-0.2847,-6.9517,-3.1129,-4.5001,0.1945,4.5859,-0.5559,
2.478086,-0.3048,-1.4561,-0.2847,-7.1619,-6.3384,-6.7701,0.1945,4.5859,-0.5559,
2.481224,-0.3048,-1.4561,-0.2847,-7.1619,-6.3384,-6.7701,-0.2019,5.6579,-0.3287,
2.491211,-0.3048,-1.4561,-0.2847,-7.1619,-6.3384,-6.7701,-0.1451,5.7722,-0.1845,
2.495283,-0.1340,-1.5291,-0.1849,-7.1619,-6.3384,-6.7701,-0.1451,5.7722,-0.1845,
2.497158,-0.1340,-1.5291,-0.1849,-4.9037,-6.9370,-6.1139,-0.1451,5.7722,-0.1845,
2.501247,-0.1340,-1.5291,-0.1849,-4.9037,-6.9370,-6.1139,0.3008,4.2444,-0.1448,
2.511332,-0.1340,-1.5291,-0.1849,-4.9037,-6.9370,-6.1139,1.0113,1.0648,-0.3293,
2.515213,0.3304,-1.2800,-0.3679,-4.9037,-6.9370,-6.1139,1.0113,1.0648,-0.3293,
2.517035,0.3304,-1.2800,-0.3679,-0.0583,-4.4420,-8.0391,1.0113,1.0648,-0.3293,
2.523625,0.3304,-1.2800,-0.3679,-0.0583,-4.4420,-8.0391,1.7400,-2.0903,-0.7575,
2.531498,0.3304,-1.2800,-0.3679,-0.0583,-4.4420,-8.0391,2.3008,-3.3334,-1.2218,
2.535322,0.3131,-1.1211,0.3928,-0.0583,-4.4420,-8.0391,2.3008,-3.3334,-1.2218,
2.537290,0.3131,-1.1211,0.3928,-0.5403,-3.0217,-0.5889,2.3008,-3.3334,-1.2218,
2.543121,0.3131,-1.1211,0.3928,-0.5403,-3.0217,-0.5889,2.8097,-2.6663,-1.5608,
2.551534,0.3131,-1.1211,0.3928,-0.5403,-3.0217,-0.5889,3.2385,-1.1453,-1.8143,
2.557967,0.6207,-0.9087,0.5945,-0.5403,-3.0217,-0.5889,3.2385,-1.1453,-1.8143,
2.560751,0.6207,-0.9087,0.5945,2.1001,-1.2551,1.1587,3.2385,-1.1453,-1.8143,
2.563086,0.6207,-0.9087,0.5945,2.1001,-1.2551,1.1587,3.1578,-0.1905,-1.9903,
2.574542,0.6207,-0.9087,0.5945,2.1001,-1.2551,1.1587,2.1340,-0.2931,-2.0098,
2.576938,0.6775,-0.6351,0.7402,2.1001,-1.2551,1.1587,2.1340,-0.2931,-2.0098,
2.579574,0.6775,-0.6351,0.7402,2.3699,1.0660,2.2741,2.1340,-0.2931,-2.0098,
2.581876,0.6775,-0.6351,0.7402,2.3699,1.0660,2.2741,0.6496,-0.2516,-1.8711,
2.591498,0.6775,-0.6351,0.7402,2.3699,1.0660,2.2741,-0.5244,0.6219,-1.6225,
2.595453,0.6396,-0.6098,0.5764,2.3699,1.0660,2.2741,-0.5244,0.6219,-1.6225,
2.597819,0.6396,-0.6098,0.5764,1.7772,1.1839,0.6751,-0.5244,0.6219,-1.6225,
2.601610,0.6396,-0.6098,0.5764,1.7772,1.1839,0.6751,-1.3711,1.3935,-1.2248,
2.611569,0.6396,-0.6098,0.5764,1.7772,1.1839,0.6751,-1.9740,1.2566,-0.7380,
2.615264,0.5420,-0.7545,0.3503,1.7772,1.1839,0.6751,-1.9740,1.2566,-0.7380,
2.617224,0.5420,-0.7545,0.3503,0.8112,-0.1392,-1.3915,-1.9740,1.2566,-0.7380,
2.621588,0.5420,-0.7545,0.3503,0.8112,-0.1392,-1.3915,-2.5250,-0.0402,0.3634,
2.631557,0.5420,-0.7545,0.3503,0.8112,-0.1392,-1.3915,-2.4310,-0.0360,0.8753,
2.635600,0.3998,-0.9594,0.6965,0.8112,-0.1392,-1.3915,-2.4310,-0.0360,0.8753,
2.638283,0.3998,-0.9594,0.6965,-0.4892,-1.8585,2.3716,-2.4310,-0.0360,0.8753,
2.644306,0.3998,-0.9594,0.6965,-0.4892,-1.8585,2.3716,-2.0577,0.4222,1.2779,
2.651181,0.3998,-0.9594,0.6965,-0.4892,-1.8585,2.3716,-1.5941,0.9714,1.5607,
2.657098,0.2852,-1.0649,0.7130,-0.4892,-1.8585,2.3716,-1.5941,0.9714,1.5607,
2.659172,0.2852,-1.0649,0.7130,-1.3208,-2.6117,2.7445,-1.5941,0.9714,1.5607,
2.661705,0.2852,-1.0649,0.7130,-1.3208,-2.6117,2.7445,-1.2715,1.1668,1.7507,
2.671210,0.2852,-1.0649,0.7130,-1.3208,-2.6117,2.7445,-1.1622,0.8834,1.8832,
2.675942,-0.0053,-1.0247,0.4466,-1.3208,-2.6117,2.7445,-1.1622,0.8834,1.8832,
2.678053,-0.0053,-1.0247,0.4466,-3.7575,-1.9641,0.2322,-1.1622,0.8834,1.8832,
2.681204,-0.0053,-1.0247,0.4466,-3.7575,-1.9641,0.2322,-1.2691,0.4259,1.9694,
2.691231,-0.0053,-1.0247,0.4466,-3.7575,-1.9641,0.2322,-1.5263,0.0514,1.9840,
2.695133,-0.1110,-1.0486,0.2895,-3.7575,-1.9641,0.2322,-1.5263,0.0514,1.9840,
2.697014,-0.1110,-1.0486,0.2895,-4.3834,-1.9227,-1.1043,-1.5263,0.0514,1.9840,
2.701434,-0.1110,-1.0486,0.2895,-4.3834,-1.9227,-1.1043,-1.8732,-0.3212,1.9229,
2.711493,-0.1110,-1.0486,0.2895,-4.3834,-1.9227,-1.1043,-2.2691,-0.7482,1.7580,
2.715239,0.1323,-1.1583,-0.2046,-4.3834,-1.9227,-1.1043,-2.2691,-0.7482,1.7580,
2.716768,0.1323,-1.1583,-0.2046,-1.6688,-2.6900,-5.5218,-2.2691,-0.7482,1.7580,
2.721253,0.1323,-1.1583,-0.2046,-1.6688,-2.6900,-5.5218,-2.7003,-0.9852,1.4843,
2.731347,0.1323,-1.1583,-0.2046,-1.6688,-2.6900,-5.5218,-3.1280,-0.8851,1.1905,
2.735194,0.2590,-0.9883,-0.0448,-1.6688,-2.6900,-5.5218,-3.1280,-0.8851,1.1905,
2.736999,0.2590,-0.9883,-0.0448,-0.2165,-0.7335,-3.3446,-3.1280,-0.8851,1.1905,
2.741808,0.2590,-0.9883,-0.0448,-0.2165,-0.7335,-3.3446,-3.3308,-0.4660,0.9309,
2.751149,0.2590,-0.9883,-0.0448,-0.2165,-0.7335,-3.3446,-3.0724,0.1168,0.7544,
2.757029,0.2452,-0.6418,0.0771,-0.2165,-0.7335,-3.3446,-3.0724,0.1168,0.7544,
2.758598,0.2452,-0.6418,0.0771,-0.1992,2.8813,-1.5459,-3.0724,0.1168,0.7544,
2.760984,0.2452,-0.6418,0.0771,-0.1992,2.8813,-1.5459,-2.5134,0.6336,0.6554,
2.771166,0.2452,-0.6418,0.0771,-0.1992,2.8813,-1.5459,-1.8934,0.9567,0.6218,
2.775450,0.3700,-0.4231,0.0663,-0.1992,2.8813,-1.5459,-1.8934,0.9567,0.6218,
2.776907,0.3700,-0.4231,0.0663,1.1659,5.1487,-1.2771,-1.8934,0.9567,0.6218,
2.780626,0.3700,-0.4231,0.0663,1.1659,5.1487,-1.2771,-1.2642,1.0276,0.5644,
2.790608,0.3700,-0.4231,0.0663,1.1659,5.1487,-1.2771,-0.7205,0.8223,0.4398,
2.794433,0.6055,-0.4956,-0.2007,1.1659,5.1487,-1.2771,-0.7205,0.8223,0.4398,
2.795521,0.6055,-0.4956,-0.2007,3.5171,4.4873,-3.7045,-0.7205,0.8223,0.4398,
2.800692,0.6055,-0.4956,-0.2007,3.5171,4.4873,-3.7045,-0.4108,0.5621,-0.0666,
2.810591,0.6055,-0.4956,-0.2007,3.5171,4.4873,-3.7045,-0.3094,0.0202,-0.4429,
2.814406,0.8487,-0.7136,-0.1495,3.5171,4.4873,-3.7045,-0.3094,0.0202,-0.4429,
2.815340,0.8487,-0.7136,-0.1495,5.7290,2.3264,-3.0810,-0.3094,0.0202,-0.4429,
2.820636,0.8487,-0.7136,-0.1495,5.7290,2.3264,-3.0810,-0.3033,-0.5283,-0.8864,
2.830542,0.8487,-0.7136,-0.1495,5.7290,2.3264,-3.0810,-0.2789,-1.5222,-1.2548,
2.834374,0.7972,-0.9240,-0.0711,5.7290,2.3264,-3.0810,-0.2789,-1.5222,-1.2548,
2.835334,0.7972,-0.9240,-0.0711,4.8602,0.1858,-2.1341,-0.2789,-1.5222,-1.2548,
2.840582,0.7972,-0.9240,-0.0711,4.8602,0.1858,-2.1341,-0.3778,-2.4202,-1.3073,
2.850806,0.7972,-0.9240,-0.0711,4.8602,0.1858,-2.1341,-0.5935,-2.5936,-0.9836,
2.855918,0.3848,-1.1187,-0.0718,4.8602,0.1858,-2.1341,-0.5935,-2.5936,-0.9836,
2.856916,0.3848,-1.1187,-0.0718,0.4629,-1.8005,-1.8337,-0.5935,-2.5936,-0.9836,
2.860549,0.3848,-1.1187,-0.0718,0.4629,-1.8005,-1.8337,-0.6998,-2.2962,-0.4112,
2.870763,0.3848,-1.1187,-0.0718,0.4629,-1.8005,-1.8337,-0.6161,-1.8032,0.1844,
2.874442,0.3131,-1.1562,0.1333,0.4629,-1.8005,-1.8337,-0.6161,-1.8032,0.1844,
2.875393,0.3131,-1.1562,0.1333,-0.3323,-2.1715,0.4582,-0.6161,-1.8032,0.1844,
2.880569,0.3131,-1.1562,0.1333,-0.3323,-2.1715,0.4582,-0.4481,-1.2626,0.5687,
2.890649,0.3131,-1.1562,0.1333,-0.3323,-2.1715,0.4582,-0.2838,-0.8765,0.7531,
2.894420,0.2745,-1.1272,0.0034,-0.3323,-2.1715,0.4582,-0.2838,-0.8765,0.7531,
2.895341,0.2745,-1.1272,0.0034,-0.6155,-1.8402,-0.6615,-0.2838,-0.8765,0.7531,
2.900707,0.2745,-1.1272,0.0034,-0.6155,-1.8402,-0.6615,-0.1811,-0.7782,0.8643,
2.910607,0.2745,-1.1272,0.0034,-0.6155,-1.8402,-0.6615,-0.1720,-0.8698,0.9602,
2.914440,0.1761,-1.1361,-0.2769,-0.6155,-1.8402,-0.6615,-0.1720,-0.8698,0.9602,
2.915361,0.1761,-1.1361,-0.2769,-1.4216,-1.8641,-3.2855,-0.1720,-0.8698,0.9602,
2.920760,0.1761,-1.1361,-0.2769,-1.4216,-1.8641,-3.2855,-0.2166,-1.0622,1.0421,
2.931077,0.1761,-1.1361,-0.2769,-1.4216,-1.8641,-3.2855,-0.2477,-1.3176,1.0763,
2.935058,0.2370,-1.0008,-0.3207,-1.4216,-1.8641,-3.2855,-0.2477,-1.3176,1.0763,
2.936696,0.2370,-1.0008,-0.3207,-0.6387,-0.4669,-3.5293,-0.2477,-1.3176,1.0763,
2.941353,0.2370,-1.0008,-0.3207,-0.6387,-0.4669,-3.5293,-0.2587,-1.5570,1.0335,
2.951196,0.2370,-1.0008,-0.3207,-0.6387,-0.4669,-3.5293,-0.2606,-1.7036,0.9162,
2.957289,0.2996,-0.9300,-0.3148,-0.6387,-0.4669,-3.5293,-0.2606,-1.7036,0.9162,
2.959433,0.2996,-0.9300,-0.3148,0.1418,0.2850,-3.2505,-0.2606,-1.7036,0.9162,
2.961803,0.2996,-0.9300,-0.3148,0.1418,0.2850,-3.2505,-0.2551,-1.7238,0.7489,
2.971323,0.2996,-0.9300,-0.3148,0.1418,0.2850,-3.2505,-0.2373,-1.6315,0.5986,
2.975687,0.3071,-1.0594,-0.3014,0.1418,0.2850,-3.2505,-0.2373,-1.6315,0.5986,
2.977972,0.3071,-1.0594,-0.3014,0.3306,-0.9490,-2.9002,-0.2373,-1.6315,0.5986,
2.981218,0.3071,-1.0594,-0.3014,0.3306,-0.9490,-2.9002,-0.2068,-1.4898,0.5271,
2.991285,0.3071,-1.0594,-0.3014,0.3306,-0.9490,-2.9002,-0.1213,-1.4984,0.4202,
2.995085,0.3751,-1.2268,-0.2728,0.3306,-0.9490,-2.9002,-0.1213,-1.4984,0.4202,
2.997132,0.3751,-1.2268,-0.2728,1.0795,-2.5689,-2.4365,-0.1213,-1.4984,0.4202,
3.001227,0.3751,-1.2268,-0.2728,1.0795,-2.5689,-2.4365,-0.0950,-1.8319,0.2870,
3.011425,0.3751,-1.2268,-0.2728,1.0795,-2.5689,-2.4365,-0.1213,-2.8948,0.1026,
3.015073,0.2493,-1.2648,-0.0618,1.0795,-2.5689,-2.4365,-0.1213,-2.8948,0.1026,
3.016754,0.2493,-1.2648,-0.0618,-0.1025,-2.9333,-0.1929,-0.1213,-2.8948,0.1026,
3.021379,0.2493,-1.2648,-0.0618,-0.1025,-2.9333,-0.1929,-0.1769,-4.6706,-0.0831,
3.031522,0.2493,-1.2648,-0.0618,-0.1025,-2.9333,-0.1929,0.1225,-6.1550,-0.0801,
3.035247,-0.2355,-1.1460,0.7519,-0.1025,-2.9333,-0.1929,0.1225,-6.1550,-0.0801,
3.037288,-0.2355,-1.1460,0.7519,-4.7644,-1.7587,8.0074,0.1225,-6.1550,-0.0801,
3.043152,-0.2355,-1.1460,0.7519,-4.7644,-1.7587,8.0074,0.9001,-6.6186,0.1392,
3.051474,-0.2355,-1.1460,0.7519,-4.7644,-1.7587,8.0074,1.6973,-6.2314,0.3713,
3.058467,-0.2917,-0.9694,0.3750,-4.7644,-1.7587,8.0074,1.6973,-6.2314,0.3713,
3.060548,-0.2917,-0.9694,0.3750,-5.1009,0.0267,4.2930,1.6973,-6.2314,0.3713,
3.062899,-0.2917,-0.9694,0.3750,-5.1009,0.0267,4.2930,2.1799,-5.5753,0.4294,
3.071794,-0.2917,-0.9694,0.3750,-5.1009,0.0267,4.2930,2.3161,-5.0493,0.2730,
3.076966,0.0457,-0.6953,-0.1461,-5.1009,0.0267,4.2930,2.3161,-5.0493,0.2730,
3.079616,0.0457,-0.6953,-0.1461,-1.6029,2.7687,-1.0579,2.3161,-5.0493,0.2730,
3.082065,0.0457,-0.6953,-0.1461,-1.6029,2.7687,-1.0579,2.2379,-4.7592,-0.0318,
3.092074,0.0457,-0.6953,-0.1461,-1.6029,2.7687,-1.0579,2.0754,-4.5032,-0.3617,
3.095575,0.2786,-0.5228,-0.1770,-1.6029,2.7687,-1.0579,2.0754,-4.5032,-0.3617,
3.097883,0.2786,-0.5228,-0.1770,0.6867,4.4666,-1.5886,2.0754,-4.5032,-0.3617,
3.101437,0.2786,-0.5228,-0.1770,0.6867,4.4666,-1.5886,1.9135,-4.1776,-0.6555,
3.111493,0.2786,-0.5228,-0.1770,0.6867,4.4666,-1.5886,1.8121,-3.8600,-1.0196,
3.114972,0.7892,-0.3870,-0.1093,0.6867,4.4666,-1.5886,1.8121,-3.8600,-1.0196,
3.116802,0.7892,-0.3870,-0.1093,5.4794,5.7514,-1.0984,1.8121,-3.8600,-1.0196,
3.121661,0.7892,-0.3870,-0.1093,5.4794,5.7514,-1.0984,1.7443,-3.6511,-1.4918,
3.131102,0.7892,-0.3870,-0.1093,5.4794,5.7514,-1.0984,1.5836,-3.4110,-2.0153,
3.135131,0.7753,-0.5342,-0.2257,5.4794,5.7514,-1.0984,1.5836,-3.4110,-2.0153,
3.136694,0.7753,-0.5342,-0.2257,4.8918,4.1901,-2.3381,1.5836,-3.4110,-2.0153,
3.142864,0.7753,-0.5342,-0.2257,4.8918,4.1901,-2.3381,1.2513,-2.8099,-2.4564,
3.151397,0.7753,-0.5342,-0.2257,4.8918,4.1901,-2.3381,0.7639,-1.9174,-2.5865,
3.158119,0.4692,-0.4338,-0.2541,4.8918,4.1901,-2.3381,0.7639,-1.9174,-2.5865,
3.159963,0.4692,-0.4338,-0.2541,1.3071,4.9865,-2.5926,0.7639,-1.9174,-2.5865,
3.163483,0.4692,-0.4338,-0.2541,1.3071,4.9865,-2.5926,0.2257,-1.1178,-2.3073,
3.170762,0.4692,-0.4338,-0.2541,1.3071,4.9865,-2.5926,-0.2801,-0.3707,-0.9005,
3.174782,0.2643,-0.1494,-0.1827,1.3071,4.9865,-2.5926,-0.2801,-0.3707,-0.9005,
3.176147,0.2643,-0.1494,-0.1827,-1.1050,7.6195,-1.7458,-0.2801,-0.3707,-0.9005,
3.180623,0.2643,-0.1494,-0.1827,-1.1050,7.6195,-1.7458,-1.1066,0.9249,-0.2414,
3.191435,0.2643,-0.1494,-0.1827,-1.1050,7.6195,-1.7458,-1.4933,1.4729,0.1924,
3.194553,0.5068,-0.1468,-0.1882,-1.1050,7.6195,-1.7458,-1.4933,1.4729,0.1924,
3.195727,0.5068,-0.1468,-0.1882,1.1203,7.5773,-1.5575,-1.4933,1.4729,0.1924,
3.200488,0.5068,-0.1468,-0.1882,1.1203,7.5773,-1.5575,-1.9068,1.8095,0.3420,
3.210602,0.5068,-0.1468,-0.1882,1.1203,7.5773,-1.5575,-2.3515,1.6396,0.4013,
3.214435,0.5472,-0.7263,-0.1818,1.1203,7.5773,-1.5575,-2.3515,1.6396,0.4013,
3.215294,0.5472,-0.7263,-0.1818,1.4456,1.8513,-1.1681,-2.3515,1.6396,0.4013,
3.220480,0.5472,-0.7263,-0.1818,1.4456,1.8513,-1.1681,-2.7645,0.7985,0.5015,
3.230553,0.5472,-0.7263,-0.1818,1.4456,1.8513,-1.1681,-3.0253,-0.5283,0.6627,
3.234306,0.4793,-1.4803,0.0980,1.4456,1.8513,-1.1681,-3.0253,-0.5283,0.6627,
3.235257,0.4793,-1.4803,0.0980,0.8386,-5.5605,2.0781,-3.0253,-0.5283,0.6627,
3.240579,0.4793,-1.4803,0.0980,0.8386,-5.5605,2.0781,-3.0699,-1.5161,0.9248,
3.250671,0.4793,-1.4803,0.0980,0.8386,-5.5605,2.0781,-2.7877,-1.8178,1.2669,
3.254497,0.3018,-1.9665,0.6955,0.8386,-5.5605,2.0781,-2.7877,-1.8178,1.2669,
3.255560,0.3018,-1.9665,0.6955,-0.6568,-10.3079,8.4737,-2.7877,-1.8178,1.2669,
3.264016,0.3018,-1.9665,0.6955,-0.6568,-10.3079,8.4737,-1.6319,-2.1746,1.5906,
3.270605,0.3018,-1.9665,0.6955,-0.6568,-10.3079,8.4737,0.5281,-2.2503,1.8246,
3.274438,0.1555,-1.7261,1.0475,-0.6568,-10.3079,8.4737,0.5281,-2.2503,1.8246,
3.275801,0.1555,-1.7261,1.0475,-1.6865,-7.8122,11.9913,0.5281,-2.2503,1.8246,
3.280724,0.1555,-1.7261,1.0475,-1.6865,-7.8122,11.9913,1.8714,-1.3059,1.7611,
3.296718,0.1555,-1.7261,1.0475,-1.6865,-7.8122,11.9913,2.0003,-0.2363,1.4831,
3.298069,0.1824,-1.1700,-0.5194,-1.6865,-7.8122,11.9913,2.0003,-0.2363,1.4831,
3.299167,0.1824,-1.1700,-0.5194,-1.0809,-2.1817,-3.7672,2.0003,-0.2363,1.4831,
3.300689,0.1824,-1.1700,-0.5194,-1.0809,-2.1817,-3.7672,1.5220,0.4570,1.1942,
3.310648,0.1824,-1.1700,-0.5194,-1.0809,-2.1817,-3.7672,0.8512,0.9384,0.8967,
3.314503,0.3765,-0.9524,-0.3629,-1.0809,-2.1817,-3.7672,0.8512,0.9384,0.8967,
3.315761,0.3765,-0.9524,-0.3629,1.0015,0.0401,-2.5200,0.8512,0.9384,0.8967,
3.320766,0.3765,-0.9524,-0.3629,1.0015,0.0401,-2.5200,0.2300,1.3617,0.6187,
3.330644,0.3765,-0.9524,-0.3629,1.0015,0.0401,-2.5200,-0.1805,1.7704,0.3817,
3.334500,0.5757,-0.9185,-0.2634,1.0015,0.0401,-2.5200,-0.1805,1.7704,0.3817,
3.335494,0.5757,-0.9185,-0.2634,3.0033,0.3968,-1.6383,-0.1805,1.7704,0.3817,
3.341442,0.5757,-0.9185,-0.2634,3.0033,0.3968,-1.6383,-0.4548,2.0923,0.1808,
3.351239,0.5757,-0.9185,-0.2634,3.0033,0.3968,-1.6383,-0.6277,2.1919,0.0464,
3.354996,0.6672,-0.8377,-0.1838,3.0033,0.3968,-1.6383,-0.6277,2.1919,0.0464,
3.356909,0.6672,-0.8377,-0.1838,3.8307,1.1696,-0.8710,-0.6277,2.1919,0.0464,
3.361295,0.6672,-0.8377,-0.1838,3.8307,1.1696,-0.8710,-0.6136,1.9604,0.0146,
3.371186,0.6672,-0.8377,-0.1838,3.8307,1.1696,-0.8710,-0.4548,1.2646,0.1313,
3.375336,0.7672,-0.8316,-0.1120,3.8307,1.1696,-0.8710,-0.4548,1.2646,0.1313,
3.377299,0.7672,-0.8316,-0.1120,4.7080,1.1978,-0.1541,-0.4548,1.2646,0.1313,
3.381067,0.7672,-0.8316,-0.1120,4.7080,1.1978,-0.1541,-0.1885,0.2096,0.2877,
3.391449,0.7672,-0.8316,-0.1120,4.7080,1.1978,-0.1541,0.1774,-0.7085,0.4239,
3.395279,0.8105,-0.9436,-0.0706,4.7080,1.1978,-0.1541,0.1774,-0.7085,0.4239,
3.396952,0.8105,-0.9436,-0.0706,5.0960,0.0881,0.2627,0.1774,-0.7085,0.4239,
3.401069,0.8105,-0.9436,-0.0706,5.0960,0.0881,0.2627,0.5244,-1.2357,0.3988,
3.411231,0.8105,-0.9436,-0.0706,5.0960,0.0881,0.2627,0.7382,-1.5643,0.1246,
3.414875,0.7615,-1.0528,-0.2138,5.0960,0.0881,0.2627,0.7382,-1.5643,0.1246,
3.416550,0.7615,-1.0528,-0.2138,4.5792,-0.9902,-1.1726,0.7382,-1.5643,0.1246,
3.421061,0.7615,-1.0528,-0.2138,4.5792,-0.9902,-1.1726,0.8311,-1.9864,-0.2737,
3.431322,0.7615,-1.0528,-0.2138,4.5792,-0.9902,-1.1726,0.8714,-2.6437,-0.6396,
3.435219,0.4481,-1.0879,-0.2698,4.5792,-0.9902,-1.1726,0.8714,-2.6437,-0.6396,
3.437400,0.4481,-1.0879,-0.2698,1.3797,-1.3738,-1.7262,0.8714,-2.6437,-0.6396,
3.443777,0.4481,-1.0879,-0.2698,1.3797,-1.3738,-1.7262,0.8922,-3.4525,-0.8858,
3.451393,0.4481,-1.0879,-0.2698,1.3797,-1.3738,-1.7262,0.9398,-4.3169,-0.9970,
3.455781,0.1589,-1.1460,-0.0506,1.3797,-1.3738,-1.7262,0.9398,-4.3169,-0.9970,
3.458261,0.1589,-1.1460,-0.0506,-1.5792,-1.9926,0.4950,0.9398,-4.3169,-0.9970,
3.463250,0.1589,-1.1460,-0.0506,-1.5792,-1.9926,0.4950,1.1365,-4.8899,-0.9603,
3.471052,0.1589,-1.1460,-0.0506,-1.5792,-1.9926,0.4950,1.5830,-4.6688,-0.7887,
3.475590,0.0556,-1.2313,0.3406,-1.5792,-1.9926,0.4950,1.5830,-4.6688,-0.7887,
3.478010,0.0556,-1.2313,0.3406,-2.6524,-2.8519,4.3553,1.5830,-4.6688,-0.7887,
3.482927,0.0556,-1.2313,0.3406,-2.6524,-2.8519,4.3553,2.0076,-3.6358,-0.6512,
3.492161,0.0556,-1.2313,0.3406,-2.6524,-2.8519,4.3553,2.1359,-2.3786,-0.5608,
3.495166,0.2051,-1.0163,0.1951,-2.6524,-2.8519,4.3553,2.1359,-2.3786,-0.5608,
3.496761,0.2051,-1.0163,0.1951,-1.2269,-0.7373,2.7100,2.1359,-2.3786,-0.5608,
3.501163,0.2051,-1.0163,0.1951,-1.2269,-0.7373,2.7100,2.0021,-1.4550,-0.4093,
3.510680,0.2051,-1.0163,0.1951,-1.2269,-0.7373,2.7100,1.8042,-0.9248,-0.2010,
3.514602,0.4217,-0.8743,0.4439,-1.2269,-0.7373,2.7100,1.8042,-0.9248,-0.2010,
3.515657,0.4217,-0.8743,0.4439,0.8588,0.6656,4.7977,1.8042,-0.9248,-0.2010,
3.520695,0.4217,-0.8743,0.4439,0.8588,0.6656,4.7977,1.7040,-0.5515,-0.0392,
3.530732,0.4217,-0.8743,0.4439,0.8588,0.6656,4.7977,1.7553,-0.2107,0.0323,
3.534597,0.5582,-0.8657,0.5052,0.8588,0.6656,4.7977,1.7553,-0.2107,0.0323,
3.535676,0.5582,-0.8657,0.5052,2.1797,0.7539,5.0059,1.7553,-0.2107,0.0323,
3.540925,0.5582,-0.8657,0.5052,2.1797,0.7539,5.0059,2.0858,0.4478,-0.1509,
3.550575,0.5582,-0.8657,0.5052,2.1797,0.7539,5.0059,2.1945,0.5865,-0.3599,
3.554475,0.4620,-0.7316,0.3142,2.1797,0.7539,5.0059,2.1945,0.5865,-0.3599,
3.555902,0.4620,-0.7316,0.3142,1.1619,2.0301,2.6178,2.1945,0.5865,-0.3599,
3.560729,0.4620,-0.7316,0.3142,1.1619,2.0301,2.6178,2.2080,0.4918,-0.5364,
3.570572,0.4620,-0.7316,0.3142,1.1619,2.0301,2.6178,2.1615,0.3837,-0.6958,
3.574468,0.3127,-0.6168,0.2570,1.1619,2.0301,2.6178,2.1615,0.3837,-0.6958,
3.575916,0.3127,-0.6168,0.2570,-0.4327,3.0666,1.5525,2.1615,0.3837,-0.6958,
3.581291,0.3127,-0.6168,0.2570,-0.4327,3.0666,1.5525,2.1298,0.3159,-0.8321,
3.592553,0.3127,-0.6168,0.2570,-0.4327,3.0666,1.5525,2.0943,0.3080,-0.8962,
3.596392,0.1867,-0.7097,0.3529,-0.4327,3.0666,1.5525,2.0943,0.3080,-0.8962,
3.598766,0.1867,-0.7097,0.3529,-1.8181,2.0330,2.0160,2.0943,0.3080,-0.8962,
3.601147,0.1867,-0.7097,0.3529,-1.8181,2.0330,2.0160,1.9764,0.3636,-0.9127,
3.611142,0.1867,-0.7097,0.3529,-1.8181,2.0330,2.0160,1.7761,0.3855,-0.9164,
3.614897,0.1417,-0.8749,0.4261,-1.8181,2.0330,2.0160,1.7761,0.3855,-0.9164,
3.616538,0.1417,-0.8749,0.4261,-2.3799,0.2841,2.3021,1.7761,0.3855,-0.9164,
3.621226,0.1417,-0.8749,0.4261,-2.3799,0.2841,2.3021,1.4767,0.3599,-0.9524,
3.631118,0.1417,-0.8749,0.4261,-2.3799,0.2841,2.3021,1.1292,0.3165,-1.0556,
3.634940,0.2030,-0.8635,0.3704,-2.3799,0.2841,2.3021,1.1292,0.3165,-1.0556,
3.636456,0.2030,-0.8635,0.3704,-1.8964,0.2718,1.4423,1.1292,0.3165,-1.0556,
3.641467,0.2030,-0.8635,0.3704,-1.8964,0.2718,1.4423,0.8109,0.3477,-1.1919,
3.651127,0.2030,-0.8635,0.3704,-1.8964,0.2718,1.4423,0.5281,0.5309,-1.2847,
3.654943,0.2442,-0.7638,0.0206,-1.8964,0.2718,1.4423,0.5281,0.5309,-1.2847,
3.656823,0.2442,-0.7638,0.0206,-1.6474,1.1345,-2.1517,0.5281,0.5309,-1.2847,
3.661943,0.2442,-0.7638,0.0206,-1.6474,1.1345,-2.1517,0.2483,0.9097,-1.3183,
3.671349,0.2442,-0.7638,0.0206,-1.6474,1.1345,-2.1517,-0.0156,1.4228,-1.3556,
3.676993,0.2823,-0.7810,-0.0796,-1.6474,1.1345,-2.1517,-0.0156,1.4228,-1.3556,
3.680307,0.2823,-0.7810,-0.0796,-1.4044,0.8767,-3.2291,-0.0156,1.4228,-1.3556,
3.682451,0.2823,-0.7810,-0.0796,-1.4044,0.8767,-3.2291,-0.2080,1.9506,-1.4234,
3.692092,0.2823,-0.7810,-0.0796,-1.4044,0.8767,-3.2291,-0.3394,2.2982,-1.4729,
3.695868,0.2024,-0.8840,-0.1915,-1.4044,0.8767,-3.2291,-0.3394,2.2982,-1.4729,
3.698379,0.2024,-0.8840,-0.1915,-2.2707,-0.1920,-4.3884,-0.3394,2.2982,-1.4729,
3.701456,0.2024,-0.8840,-0.1915,-2.2707,-0.1920,-4.3884,-0.4505,2.3238,-1.4649,
3.711716,0.2024,-0.8840,-0.1915,-2.2707,-0.1920,-4.3884,-0.5495,1.9689,-1.4063,
3.715298,0.2058,-0.9572,-0.0337,-2.2707,-0.1920,-4.3884,-0.5495,1.9689,-1.4063,
3.717298,0.2058,-0.9572,-0.0337,-2.3042,-0.9482,-2.8589,-0.5495,1.9689,-1.4063,
3.721259,0.2058,-0.9572,-0.0337,-2.3042,-0.9482,-2.8589,-0.6167,1.4265,-1.3366,
3.731257,0.2058,-0.9572,-0.0337,-2.3042,-0.9482,-2.8589,-0.5354,0.5572,-1.2572,
3.735050,0.3888,-1.0961,0.2607,-2.3042,-0.9482,-2.8589,-0.5354,0.5572,-1.2572,
3.736847,0.3888,-1.0961,0.2607,-0.6154,-2.3435,0.0940,-0.5354,0.5572,-1.2572,
3.741867,0.3888,-1.0961,0.2607,-0.6154,-2.3435,0.0940,-0.4218,0.4283,-1.3067,
3.751328,0.3888,-1.0961,0.2607,-0.6154,-2.3435,0.0940,-0.3620,0.5358,-1.4215,
3.755094,0.6149,-1.3939,0.4404,-0.6154,-2.3435,0.0940,-0.3620,0.5358,-1.4215,
3.757020,0.6149,-1.3939,0.4404,1.4507,-5.3276,1.9062,-0.3620,0.5358,-1.4215,
3.761668,0.6149,-1.3939,0.4404,1.4507,-5.3276,1.9062,-0.4072,0.8040,-1.5523,
3.771304,0.6149,-1.3939,0.4404,1.4507,-5.3276,1.9062,-0.5642,1.3055,-1.5932,
3.775851,0.5363,-1.4845,0.4990,1.4507,-5.3276,1.9062,-0.5642,1.3055,-1.5932,
3.778130,0.5363,-1.4845,0.4990,0.5312,-6.3016,2.4726,-0.5642,1.3055,-1.5932,
3.781256,0.5363,-1.4845,0.4990,0.5312,-6.3016,2.4726,-0.7914,1.8596,-1.4319,
3.791867,0.5363,-1.4845,0.4990,0.5312,-6.3016,2.4726,-0.9863,2.1454,-1.0880,
3.795114,0.2389,-1.2059,0.4404,0.5312,-6.3016,2.4726,-0.9863,2.1454,-1.0880,
3.796948,0.2389,-1.2059,0.4404,-2.4153,-3.6044,1.8494,-0.9863,2.1454,-1.0880,
3.801214,0.2389,-1.2059,0.4404,-2.4153,-3.6044,1.8494,-1.0651,2.0844,-0.7508,
3.811487,0.2389,-1.2059,0.4404,-2.4153,-3.6044,1.8494,-1.0186,1.7606,-0.4808,
3.815138,0.1402,-0.9446,0.4108,-2.4153,-3.6044,1.8494,-1.0186,1.7606,-0.4808,
3.816952,0.1402,-0.9446,0.4108,-3.3021,-1.0062,1.5313,-1.0186,1.7606,-0.4808,
3.821299,0.1402,-0.9446,0.4108,-3.3021,-1.0062,1.5313,-0.9417,1.3269,-0.2731,
3.831287,0.1402,-0.9446,0.4108,-3.3021,-1.0062,1.5313,-0.9038,0.9518,-0.1314,
3.835078,0.0671,-0.7918,0.4134,-3.3021,-1.0062,1.5313,-0.9038,0.9518,-0.1314,
3.836783,0.0671,-0.7918,0.4134,-3.9004,0.5612,1.5684,-0.9038,0.9518,-0.1314,
3.842585,0.0671,-0.7918,0.4134,-3.9004,0.5612,1.5684,-0.9166,0.7863,-0.0685,
3.851286,0.0671,-0.7918,0.4134,-3.9004,0.5612,1.5684,-0.9710,0.9036,-0.0795,
3.855079,0.0459,-0.6599,0.4584,-3.9004,0.5612,1.5684,-0.9710,0.9036,-0.0795,
3.856757,0.0459,-0.6599,0.4584,-3.9765,1.9309,2.0320,-0.9710,0.9036,-0.0795,
3.861377,0.0459,-0.6599,0.4584,-3.9765,1.9309,2.0320,-1.0907,1.2444,-0.1283,
3.871309,0.0459,-0.6599,0.4584,-3.9765,1.9309,2.0320,-1.2954,1.6317,-0.1534,
3.875717,0.1319,-0.7109,0.5319,-3.9765,1.9309,2.0320,-1.2954,1.6317,-0.1534,
3.877821,0.1319,-0.7109,0.5319,-2.9892,1.5029,2.7438,-1.2954,1.6317,-0.1534,
3.881186,0.1319,-0.7109,0.5319,-2.9892,1.5029,2.7438,-1.5293,1.9316,-0.0911,
3.892701,0.1319,-0.7109,0.5319,-2.9892,1.5029,2.7438,-1.6087,2.1558,0.0341,
3.895498,0.2364,-0.8630,1.1132,-2.9892,1.5029,2.7438,-1.6087,2.1558,0.0341,
3.897922,0.2364,-0.8630,1.1132,-1.7850,0.0880,8.3946,-1.6087,2.1558,0.0341,
3.901538,0.2364,-0.8630,1.1132,-1.7850,0.0880,8.3946,-1.2715,2.4283,0.1899,
3.911436,0.2364,-0.8630,1.1132,-1.7850,0.0880,8.3946,-0.2966,2.8931,0.7873,
3.915187,-0.0230,-0.9293,-0.2511,-1.7850,0.0880,8.3946,-0.2966,2.8931,0.7873,
3.917131,-0.0230,-0.9293,-0.2511,-4.0108,-0.4571,-5.1086,-0.2966,2.8931,0.7873,
3.921432,-0.0230,-0.9293,-0.2511,-4.0108,-0.4571,-5.1086,-1.0351,2.4839,1.2779,
3.931333,-0.0230,-0.9293,-0.2511,-4.0108,-0.4571,-5.1086,-1.9875,1.4851,1.6865,
3.935131,0.0235,-0.7724,-0.3250,-4.0108,-0.4571,-5.1086,-1.9875,1.4851,1.6865,
3.937136,0.0235,-0.7724,-0.3250,-3.1046,1.3044,-5.6974,-1.9875,1.4851,1.6865,
3.942933,0.0235,-0.7724,-0.3250,-3.1046,1.3044,-5.6974,-2.7627,0.1204,1.8448,
3.951574,0.0235,-0.7724,-0.3250,-3.1046,1.3044,-5.6974,-3.3815,-1.1337,1.7354,
3.955416,0.4836,-0.8016,-0.6221,-3.1046,1.3044,-5.6974,-3.3815,-1.1337,1.7354,
3.957870,0.4836,-0.8016,-0.6221,1.7303,1.2958,-7.9332,-3.3815,-1.1337,1.7354,
3.963438,0.4836,-0.8016,-0.6221,1.7303,1.2958,-7.9332,-3.7003,-1.6712,1.4709,
3.971566,0.4836,-0.8016,-0.6221,1.7303,1.2958,-7.9332,-3.5745,-1.6541,1.1594,
3.976993,0.6634,-0.9270,-0.2112,1.7303,1.2958,-7.9332,-3.5745,-1.6541,1.1594,
3.979687,0.6634,-0.9270,-0.2112,3.6573,0.2480,-3.0592,-3.5745,-1.6541,1.1594,
3.982555,0.6634,-0.9270,-0.2112,3.6573,0.2480,-3.0592,-3.0058,-1.3004,0.8130,
3.992975,0.6634,-0.9270,-0.2112,3.6573,0.2480,-3.0592,-2.1084,-0.5827,0.5088,
3.995607,0.7031,-1.0487,0.2935,3.6573,0.2480,-3.0592,-2.1084,-0.5827,0.5088,
3.998057,0.7031,-1.0487,0.2935,4.0999,-0.8865,2.4294,-2.1084,-0.5827,0.5088,
4.001482,0.7031,-1.0487,0.2935,4.0999,-0.8865,2.4294,-1.0199,0.2750,0.2363,
4.011437,0.7031,-1.0487,0.2935,4.0999,-0.8865,2.4294,0.3656,0.8504,-0.0899,
4.015352,0.7924,-0.9319,1.1396,4.0999,-0.8865,2.4294,0.3656,0.8504,-0.0899,
4.017751,0.7924,-0.9319,1.1396,4.9088,0.2344,10.6505,0.3656,0.8504,-0.0899,
4.021448,0.7924,-0.9319,1.1396,4.9088,0.2344,10.6505,1.9282,0.8810,-0.3605,
4.031388,0.7924,-0.9319,1.1396,4.9088,0.2344,10.6505,2.9844,0.4680,-0.4411,
4.035520,0.5308,-0.7223,-0.1787,4.9088,0.2344,10.6505,2.9844,0.4680,-0.4411,
4.038114,0.5308,-0.7223,-0.1787,2.1900,2.1955,-2.7983,2.9844,0.4680,-0.4411,
4.044253,0.5308,-0.7223,-0.1787,2.1900,2.1955,-2.7983,2.8396,-0.8264,-0.4167,
4.051425,0.5308,-0.7223,-0.1787,2.1900,2.1955,-2.7983,1.8439,-1.6786,-0.3605,
4.055312,0.4847,-0.5598,0.3056,2.1900,2.1955,-2.7983,1.8439,-1.6786,-0.3605,
4.058272,0.4847,-0.5598,0.3056,1.5431,3.6688,1.5566,1.8439,-1.6786,-0.3605,
4.063600,0.4847,-0.5598,0.3056,1.5431,3.6688,1.5566,1.0510,-1.5961,-0.3935,
4.071446,0.4847,-0.5598,0.3056,1.5431,3.6688,1.5566,0.8573,-1.1795,-0.5425,
4.077386,0.3839,-0.5156,0.9494,1.5431,3.6688,1.5566,0.8573,-1.1795,-0.5425,
4.080750,0.3839,-0.5156,0.9494,0.3539,3.9948,7.6636,0.8573,-1.1795,-0.5425,
4.083238,0.3839,-0.5156,0.9494,0.3539,3.9948,7.6636,1.1829,-0.7659,-0.7325,
4.093049,0.3839,-0.5156,0.9494,0.3539,3.9948,7.6636,1.7376,-1.0372,-0.9267,
4.096892,-0.0160,-0.6828,0.8717,0.3539,3.9948,7.6636,1.7376,-1.0372,-0.9267,
4.098971,-0.0160,-0.6828,0.8717,-3.7573,2.2080,6.5424,1.7376,-1.0372,-0.9267,
4.101573,-0.0160,-0.6828,0.8717,-3.7573,2.2080,6.5424,2.3582,-1.4580,-0.8260,
4.111505,-0.0160,-0.6828,0.8717,-3.7573,2.2080,6.5424,2.1438,-1.2314,-0.6140,
4.115186,-0.2535,-0.8950,0.1143,-3.7573,2.2080,6.5424,2.1438,-1.2314,-0.6140,
4.117153,-0.2535,-0.8950,0.1143,-6.2044,-0.0208,-1.2797,2.1438,-1.2314,-0.6140,
4.121483,-0.2535,-0.8950,0.1143,-6.2044,-0.0208,-1.2797,1.6496,-0.5815,-0.3812,
4.131392,-0.2535,-0.8950,0.1143,-6.2044,-0.0208,-1.2797,1.0669,0.0929,-0.1790,
4.135168,-0.1769,-1.1829,-0.1741,-6.2044,-0.0208,-1.2797,1.0669,0.0929,-0.1790,
4.137144,-0.1769,-1.1829,-0.1741,-5.4044,-2.8879,-4.3365,1.0669,0.0929,-0.1790,
4.143092,-0.1769,-1.1829,-0.1741,-5.4044,-2.8879,-4.3365,0.5696,0.6977,-0.0752,
4.151547,-0.1769,-1.1829,-0.1741,-5.4044,-2.8879,-4.3365,0.2520,1.3672,-0.1705,
4.155421,0.2886,-1.2739,-0.0708,-5.4044,-2.8879,-4.3365,0.2520,1.3672,-0.1705,
4.158119,0.2886,-1.2739,-0.0708,-0.7208,-3.7622,-3.4313,0.2520,1.3672,-0.1705,
4.163158,0.2886,-1.2739,-0.0708,-0.7208,-3.7622,-3.4313,0.1964,1.8944,-0.4313,
4.171394,0.2886,-1.2739,-0.0708,-0.7208,-3.7622,-3.4313,0.4713,1.9426,-0.7814,
4.177046,0.7509,-1.2648,0.3059,-0.7208,-3.7622,-3.4313,0.4713,1.9426,-0.7814,
4.179953,0.7509,-1.2648,0.3059,3.8420,-3.7088,0.1065,0.4713,1.9426,-0.7814,
4.182258,0.7509,-1.2648,0.3059,3.8420,-3.7088,0.1065,1.0058,1.5224,-1.1729,
4.193776,0.7509,-1.2648,0.3059,3.8420,-3.7088,0.1065,1.5415,0.9280,-1.4906,
4.196687,0.7918,-1.3157,0.3373,3.8420,-3.7088,0.1065,1.5415,0.9280,-1.4906,
4.198969,0.7918,-1.3157,0.3373,4.0929,-4.3641,0.1482,1.5415,0.9280,-1.4906,
4.201458,0.7918,-1.3157,0.3373,4.0929,-4.3641,0.1482,1.8524,0.3666,-1.5352,
4.211099,0.7918,-1.3157,0.3373,4.0929,-4.3641,0.1482,1.7657,-0.2919,-1.1772,
4.214800,0.3944,-1.2916,0.3231,4.0929,-4.3641,0.1482,1.7657,-0.2919,-1.1772,
4.216285,0.3944,-1.2916,0.3231,-0.0055,-4.3175,-0.2425,1.7657,-0.2919,-1.1772,
4.221180,0.3944,-1.2916,0.3231,-0.0055,-4.3175,-0.2425,1.2239,-0.9993,-0.5975,
4.231167,0.3944,-1.2916,0.3231,-0.0055,-4.3175,-0.2425,0.4120,-1.1441,-0.0862,
4.234841,0.4845,-1.0106,0.8003,-0.0055,-4.3175,-0.2425,0.4120,-1.1441,-0.0862,
4.236319,0.4845,-1.0106,0.8003,0.7580,-1.6379,4.3893,0.4120,-1.1441,-0.0862,
4.242252,0.4845,-1.0106,0.8003,0.7580,-1.6379,4.3893,-0.2520,-0.5729,0.1392,
4.250963,0.4845,-1.0106,0.8003,0.7580,-1.6379,4.3893,-0.6411,0.4039,0.1386,
4.254512,0.3957,-0.8375,0.5901,0.7580,-1.6379,4.3893,-0.6411,0.4039,0.1386,
4.255757,0.3957,-0.8375,0.5901,-0.0862,0.1019,2.4043,-0.6411,0.4039,0.1386,
4.260781,0.3957,-0.8375,0.5901,-0.0862,0.1019,2.4043,-0.9166,1.2420,0.0769,
4.270761,0.3957,-0.8375,0.5901,-0.0862,0.1019,2.4043,-1.1781,1.4710,0.0574,
4.274973,0.2647,-0.5515,0.3713,-0.0862,0.1019,2.4043,-1.1781,1.4710,0.0574,
4.276151,0.2647,-0.5515,0.3713,-1.2604,2.9778,0.3160,-1.1781,1.4710,0.0574,
4.280547,0.2647,-0.5515,0.3713,-1.2604,2.9778,0.3160,-1.3748,0.6574,0.2620,
4.291195,0.2647,-0.5515,0.3713,-1.2604,2.9778,0.3160,-1.6283,0.3190,0.4288,
4.294394,0.2088,-0.2875,0.2557,-1.2604,2.9778,0.3160,-1.6283,0.3190,0.4288,
4.295288,0.2088,-0.2875,0.2557,-1.7165,5.6766,-0.6340,-1.6283,0.3190,0.4288,
4.300584,0.2088,-0.2875,0.2557,-1.7165,5.6766,-0.6340,-1.8152,0.1742,0.5821,
4.310660,0.2088,-0.2875,0.2557,-1.7165,5.6766,-0.6340,-1.9478,0.3159,0.6523,
4.314417,0.3888,-0.1854,0.3939,-1.7165,5.6766,-0.6340,-1.9478,0.3159,0.6523,
4.315192,0.3888,-0.1854,0.3939,0.1347,6.7931,0.9413,-1.9478,0.3159,0.6523,
4.320554,0.3888,-0.1854,0.3939,0.1347,6.7931,0.9413,-1.8519,0.7795,0.6279,
4.330649,0.3888,-0.1854,0.3939,0.1347,6.7931,0.9413,-1.2801,1.5230,0.4886,
4.334544,0.8333,-0.5270,1.2927,0.1347,6.7931,0.9413,-1.2801,1.5230,0.4886,
4.335402,0.8333,-0.5270,1.2927,4.5808,3.4926,9.7757,-1.2801,1.5230,0.4886,
4.341171,0.8333,-0.5270,1.2927,4.5808,3.4926,9.7757,-0.2795,2.3318,0.2339,
4.350692,0.8333,-0.5270,1.2927,4.5808,3.4926,9.7757,0.1524,2.5285,0.0983,
4.354423,0.6453,-1.0294,0.0224,4.5808,3.4926,9.7757,0.1524,2.5285,0.0983,
4.355391,0.6453,-1.0294,0.0224,2.8324,-1.4721,-2.9024,0.1524,2.5285,0.0983,
4.360636,0.6453,-1.0294,0.0224,2.8324,-1.4721,-2.9024,-0.3815,1.7282,0.2522,
4.370642,0.6453,-1.0294,0.0224,2.8324,-1.4721,-2.9024,-1.1793,0.5163,0.5131,
4.374399,0.1521,-1.0690,0.0109,2.8324,-1.4721,-2.9024,-1.1793,0.5163,0.5131,
4.375604,0.1521,-1.0690,0.0109,-1.8935,-1.8007,-2.9696,-1.1793,0.5163,0.5131,
4.381307,0.1521,-1.0690,0.0109,-1.8935,-1.8007,-2.9696,-1.5525,-0.1196,0.7904,
4.391341,0.1521,-1.0690,0.0109,-1.8935,-1.8007,-2.9696,-1.5635,-0.1270,1.0775,
4.394398,0.2268,-1.1528,-0.0880,-1.8935,-1.8007,-2.9696,-1.5635,-0.1270,1.0775,
4.395269,0.2268,-1.1528,-0.0880,-1.0129,-2.4684,-3.6465,-1.5635,-0.1270,1.0775,
4.400625,0.2268,-1.1528,-0.0880,-1.0129,-2.4684,-3.6465,-1.3949,0.0929,1.2650,
4.410653,0.2268,-1.1528,-0.0880,-1.0129,-2.4684,-3.6465,-1.2642,0.3128,1.1997,
4.414578,0.5090,-0.9400,-0.3167,-1.0129,-2.4684,-3.6465,-1.2642,0.3128,1.1997,
4.415691,0.5090,-0.9400,-0.3167,1.9396,-0.2297,-5.5939,-1.2642,0.3128,1.1997,
4.421195,0.5090,-0.9400,-0.3167,1.9396,-0.2297,-5.5939,-1.2447,0.4570,0.8564,
4.431076,0.5090,-0.9400,-0.3167,1.9396,-0.2297,-5.5939,-1.1823,0.6922,0.4117,
4.434960,0.5250,-0.7283,-0.2080,1.9396,-0.2297,-5.5939,-1.1823,0.6922,0.4117,
4.436588,0.5250,-0.7283,-0.2080,2.1704,1.9413,-4.2532,-1.1823,0.6922,0.4117,
4.442205,0.5250,-0.7283,-0.2080,2.1704,1.9413,-4.2532,-1.0516,1.1931,0.0580,
4.451083,0.5250,-0.7283,-0.2080,2.1704,1.9413,-4.2532,-0.9252,1.8596,-0.1717,
4.454847,0.6067,-0.7946,-0.2492,2.1704,1.9413,-4.2532,-0.9252,1.8596,-0.1717,
4.456569,0.6067,-0.7946,-0.2492,2.9392,1.3271,-4.4572,-0.9252,1.8596,-0.1717,
4.461163,0.6067,-0.7946,-0.2492,2.9392,1.3271,-4.4572,-0.8500,2.5309,-0.2847,
4.471108,0.6067,-0.7946,-0.2492,2.9392,1.3271,-4.4572,-0.8531,3.1039,-0.3031,
4.477323,0.8565,-0.9903,-0.1184,2.9392,1.3271,-4.4572,-0.8531,3.1039,-0.3031,
4.480761,0.8565,-0.9903,-0.1184,5.3376,-0.5866,-3.0798,-0.8531,3.1039,-0.3031,
4.482302,0.8565,-0.9903,-0.1184,5.3376,-0.5866,-3.0798,-0.7761,2.0453,-0.3006,
4.494999,0.8565,-0.9903,-0.1184,5.3376,-0.5866,-3.0798,-0.7853,0.5615,-0.2407,
4.497712,0.8508,-1.1128,-0.2321,5.3376,-0.5866,-3.0798,-0.7853,0.5615,-0.2407,
4.499307,0.8508,-1.1128,-0.2321,5.1677,-1.7907,-4.0181,-0.7853,0.5615,-0.2407,
4.504837,0.8508,-1.1128,-0.2321,5.1677,-1.7907,-4.0181,-0.9826,-0.1172,-0.0361,
4.513276,0.8508,-1.1128,-0.2321,5.1677,-1.7907,-4.0181,-1.1622,-0.1038,0.1148,
4.515051,0.6153,-0.9661,-0.1571,5.1677,-1.7907,-4.0181,-1.1622,-0.1038,0.1148,
4.516477,0.6153,-0.9661,-0.1571,2.7569,-0.3332,-2.9596,-1.1622,-0.1038,0.1148,
4.530649,0.6153,-0.9661,-0.1571,2.7569,-0.3332,-2.9596,-1.2129,0.3489,0.0244,
4.534516,0.3701,-0.8278,-0.0148,2.7569,-0.3332,-2.9596,-1.2129,0.3489,0.0244,
4.535574,0.3701,-0.8278,-0.0148,0.2836,1.0333,-1.3022,-1.2129,0.3489,0.0244,
4.541335,0.3701,-0.8278,-0.0148,0.2836,1.0333,-1.3022,-1.1219,0.5138,-0.0343,
4.550669,0.3701,-0.8278,-0.0148,0.2836,1.0333,-1.3022,-0.9905,0.6836,-0.0508,
4.554470,0.1720,-0.7567,0.0281,0.2836,1.0333,-1.3022,-0.9905,0.6836,-0.0508,
4.555397,0.1720,-0.7567,0.0281,-1.7059,1.7376,-0.6628,-0.9905,0.6836,-0.0508,
4.560484,0.1720,-0.7567,0.0281,-1.7059,1.7376,-0.6628,-0.8458,0.8620,-0.0355,
4.570565,0.1720,-0.7567,0.0281,-1.7059,1.7376,-0.6628,-0.7089,0.9921,-0.0080,
4.574509,0.1018,-0.8559,-0.0437,-1.7059,1.7376,-0.6628,-0.7089,0.9921,-0.0080,
4.575491,0.1018,-0.8559,-0.0437,-2.3977,0.7769,-1.2337,-0.7089,0.9921,-0.0080,
4.580561,0.1018,-0.8559,-0.0437,-2.3977,0.7769,-1.2337,-0.5904,1.0147,0.0445,
4.591653,0.1018,-0.8559,-0.0437,-2.3977,0.7769,-1.2337,-0.5012,0.9200,0.1160,
4.594551,0.1027,-1.0476,-0.1485,-2.3977,0.7769,-1.2337,-0.5012,0.9200,0.1160,
4.595572,0.1027,-1.0476,-0.1485,-2.3443,-1.0772,-2.1627,-0.5012,0.9200,0.1160,
4.600477,0.1027,-1.0476,-0.1485,-2.3443,-1.0772,-2.1627,-0.4377,0.7869,0.1856,
4.610629,0.1027,-1.0476,-0.1485,-2.3443,-1.0772,-2.1627,-0.3852,0.6977,0.2449,
4.614491,0.0617,-1.0991,-0.1424,-2.3443,-1.0772,-2.1627,-0.3852,0.6977,0.2449,
4.615495,0.0617,-1.0991,-0.1424,-2.6569,-1.5435,-2.0103,-0.3852,0.6977,0.2449,
4.620489,0.0617,-1.0991,-0.1424,-2.6569,-1.5435,-2.0103,-0.3235,0.6488,0.3109,
4.630652,0.0617,-1.0991,-0.1424,-2.6569,-1.5435,-2.0103,-0.2355,0.5676,0.4062,
4.634553,0.0332,-1.1024,-0.1244,-2.6569,-1.5435,-2.0103,-0.2355,0.5676,0.4062,
4.635355,0.0332,-1.1024,-0.1244,-2.8045,-1.5257,-1.7560,-0.2355,0.5676,0.4062,
4.641456,0.0332,-1.1024,-0.1244,-2.8045,-1.5257,-1.7560,-0.1225,0.3935,0.5057,
4.650591,0.0332,-1.1024,-0.1244,-2.8045,-1.5257,-1.7560,0.1396,-0.2369,0.6200,
4.654406,0.0128,-1.0581,-0.1096,-2.8045,-1.5257,-1.7560,0.1396,-0.2369,0.6200,
4.655228,0.0128,-1.0581,-0.1096,-2.8307,-1.0313,-1.5554,0.1396,-0.2369,0.6200,
4.661177,0.0128,-1.0581,-0.1096,-2.8307,-1.0313,-1.5554,0.2825,-0.6633,0.6224,
4.671167,0.0128,-1.0581,-0.1096,-2.8307,-1.0313,-1.5554,0.4438,-1.0848,0.5845,
4.676898,0.0099,-0.9992,-0.0744,-2.8307,-1.0313,-1.5554,0.4438,-1.0848,0.5845,
4.679288,0.0099,-0.9992,-0.0744,-2.6808,-0.3976,-1.1705,0.4438,-1.0848,0.5845,
4.681475,0.0099,-0.9992,-0.0744,-2.6808,-0.3976,-1.1705,0.6191,-1.4526,0.5094,
4.692956,0.0099,-0.9992,-0.0744,-2.6808,-0.3976,-1.1705,0.8280,-1.7525,0.4013,
4.695048,0.0281,-0.9159,0.0972,-2.6808,-0.3976,-1.1705,0.8280,-1.7525,0.4013,
4.696680,0.0281,-0.9159,0.0972,-2.3568,0.4601,0.5002,0.8280,-1.7525,0.4013,
4.701439,0.0281,-0.9159,0.0972,-2.3568,0.4601,0.5002,1.1212,-2.0017,0.2516,
4.711474,0.0281,-0.9159,0.0972,-2.3568,0.4601,0.5002,1.5189,-2.2442,0.0531,
4.715301,0.1395,-0.7581,0.3757,-2.3568,0.4601,0.5002,1.5189,-2.2442,0.0531,
4.717522,0.1395,-0.7581,0.3757,-1.1964,2.0176,3.0857,1.5189,-2.2442,0.0531,
4.721490,0.1395,-0.7581,0.3757,-1.1964,2.0176,3.0857,1.9483,-2.4922,-0.1870,
4.731441,0.1395,-0.7581,0.3757,-1.1964,2.0176,3.0857,2.3130,-2.7396,-0.4362,
4.735273,0.2267,-0.6970,0.4075,-1.1964,2.0176,3.0857,2.3130,-2.7396,-0.4362,
4.737083,0.2267,-0.6970,0.4075,-0.3955,2.5776,3.0969,2.3130,-2.7396,-0.4362,
4.743800,0.2267,-0.6970,0.4075,-0.3955,2.5776,3.0969,2.5708,-3.0329,-0.6775,
4.751479,0.2267,-0.6970,0.4075,-0.3955,2.5776,3.0969,2.7064,-3.3646,-0.8718,
4.755181,0.1650,-0.6849,0.3373,-0.3955,2.5776,3.0969,2.7064,-3.3646,-0.8718,
4.757705,0.1650,-0.6849,0.3373,-1.1659,2.6057,2.0395,2.7064,-3.3646,-0.8718,
4.762725,0.1650,-0.6849,0.3373,-1.1659,2.6057,2.0395,2.7431,-3.5845,-0.9701,
4.771363,0.1650,-0.6849,0.3373,-1.1659,2.6057,2.0395,2.7492,-3.5411,-0.9640,
4.776998,-0.0807,-0.8850,0.4368,-1.1659,2.6057,2.0395,2.7492,-3.5411,-0.9640,
4.779697,-0.0807,-0.8850,0.4368,-3.7701,0.5277,2.6545,2.7492,-3.5411,-0.9640,
4.782296,-0.0807,-0.8850,0.4368,-3.7701,0.5277,2.6545,2.7394,-3.1673,-0.8547,
4.793384,-0.0807,-0.8850,0.4368,-3.7701,0.5277,2.6545,2.6014,-2.5655,-0.6763,
4.796989,0.0465,-1.0710,0.1571,-3.7701,0.5277,2.6545,2.6014,-2.5655,-0.6763,
4.799151,0.0465,-1.0710,0.1571,-2.6694,-1.4107,-0.4242,2.6014,-2.5655,-0.6763,
4.801915,0.0465,-1.0710,0.1571,-2.6694,-1.4107,-0.4242,2.2990,-2.0433,-0.4771,
4.811512,0.0465,-1.0710,0.1571,-2.6694,-1.4107,-0.4242,1.9673,-1.8820,-0.2859,
4.815350,0.2184,-1.2969,-0.1173,-2.6694,-1.4107,-0.4242,1.9673,-1.8820,-0.2859,
4.817567,0.2184,-1.2969,-0.1173,-1.0512,-3.6995,-3.3406,1.9673,-1.8820,-0.2859,
4.821565,0.2184,-1.2969,-0.1173,-1.0512,-3.6995,-3.3406,1.6478,-1.9981,-0.1241,
4.831666,0.2184,-1.2969,-0.1173,-1.0512,-3.6995,-3.3406,1.2965,-2.1105,0.1679,
4.835386,0.5028,-1.3243,-0.1825,-1.0512,-3.6995,-3.3406,1.2965,-2.1105,0.1679,
4.837623,0.5028,-1.3243,-0.1825,1.6973,-3.9960,-4.0393,1.2965,-2.1105,0.1679,
4.844699,0.5028,-1.3243,-0.1825,1.6973,-3.9960,-4.0393,0.5372,-1.3157,0.1514,
4.851522,0.5028,-1.3243,-0.1825,1.6973,-3.9960,-4.0393,0.3143,-0.3878,-0.0740,
4.855121,0.9246,-1.0316,0.1989,1.6973,-3.9960,-4.0393,0.3143,-0.3878,-0.0740,
4.857894,0.9246,-1.0316,0.1989,5.7899,-1.1349,-0.2711,0.3143,-0.3878,-0.0740,
4.863113,0.9246,-1.0316,0.1989,5.7899,-1.1349,-0.2711,0.3772,0.4216,-0.3910,
4.871442,0.9246,-1.0316,0.1989,5.7899,-1.1349,-0.2711,0.5782,0.9133,-0.6244,
4.877188,0.9623,-0.9019,0.2413,5.7899,-1.1349,-0.2711,0.5782,0.9133,-0.6244,
4.880493,0.9623,-0.9019,0.2413,6.0432,0.0724,0.0627,0.5782,0.9133,-0.6244,
4.882476,0.9623,-0.9019,0.2413,6.0432,0.0724,0.0627,0.6600,1.1009,-0.6586,
4.894326,0.9623,-0.9019,0.2413,6.0432,0.0724,0.0627,0.4450,1.0178,-0.4411,
4.896858,0.7101,-0.8848,-0.2146,6.0432,0.0724,0.0627,0.4450,1.0178,-0.4411,
4.899296,0.7101,-0.8848,-0.2146,3.4523,0.1704,-4.4933,0.4450,1.0178,-0.4411,
4.901863,0.7101,-0.8848,-0.2146,3.4523,0.1704,-4.4933,-0.0968,0.8009,-0.0483,
4.911751,0.7101,-0.8848,-0.2146,3.4523,0.1704,-4.4933,-0.7828,0.5902,0.3017,
4.915437,0.5267,-0.8706,-0.3216,3.4523,0.1704,-4.4933,-0.7828,0.5902,0.3017,
4.917666,0.5267,-0.8706,-0.3216,1.6369,0.3388,-5.4008,-0.7828,0.5902,0.3017,
4.921713,0.5267,-0.8706,-0.3216,1.6369,0.3388,-5.4008,-1.3461,0.4344,0.4709,
4.931591,0.5267,-0.8706,-0.3216,1.6369,0.3388,-5.4008,-1.6949,0.2548,0.5742,
4.935037,0.2803,-0.9445,-0.0658,1.6369,0.3388,-5.4008,-1.6949,0.2548,0.5742,
4.936869,0.2803,-0.9445,-0.0658,-0.7206,-0.2822,-2.5466,-1.6949,0.2548,0.5742,
4.943263,0.2803,-0.9445,-0.0658,-0.7206,-0.2822,-2.5466,-1.8274,-0.0189,0.6762,
4.951299,0.2803,-0.9445,-0.0658,-0.7206,-0.2822,-2.5466,-1.7633,-0.3725,0.7825,
4.955038,-0.0248,-0.9447,0.3027,-0.7206,-0.2822,-2.5466,-1.7633,-0.3725,0.7825,
4.957025,-0.0248,-0.9447,0.3027,-3.5891,-0.1680,1.4371,-1.7633,-0.3725,0.7825,
4.961656,-0.0248,-0.9447,0.3027,-3.5891,-0.1680,1.4371,-1.5629,-0.7360,0.8979,
4.971451,-0.0248,-0.9447,0.3027,-3.5891,-0.1680,1.4371,-1.3027,-1.0256,1.0292,
4.977315,-0.1583,-0.9825,0.3294,-3.5891,-0.1680,1.4371,-1.3027,-1.0256,1.0292,
4.980143,-0.1583,-0.9825,0.3294,-4.7164,-0.4255,2.0195,-1.3027,-1.0256,1.0292,
4.982208,-0.1583,-0.9825,0.3294,-4.7164,-0.4255,2.0195,-1.0675,-1.2082,1.1636,
4.993609,-0.1583,-0.9825,0.3294,-4.7164,-0.4255,2.0195,-0.9789,-1.3151,1.2571,
4.998509,-0.0600,-1.0155,-0.0365,-4.7164,-0.4255,2.0195,-0.9789,-1.3151,1.2571,
5.000377,-0.0600,-1.0155,-0.0365,-3.4963,-0.6330,-1.2935,-0.9789,-1.3151,1.2571,
5.001932,-0.0600,-1.0155,-0.0365,-3.4963,-0.6330,-1.2935,-1.1542,-1.3805,1.2473,
5.011104,-0.0600,-1.0155,-0.0365,-3.4963,-0.6330,-1.2935,-1.6002,-1.3102,1.1135,
5.014715,-0.0070,-0.9941,-0.2184,-3.4963,-0.6330,-1.2935,-1.6002,-1.3102,1.1135,
5.016321,-0.0070,-0.9941,-0.2184,-2.7097,-0.3154,-2.7167,-1.6002,-1.3102,1.1135,
5.021024,-0.0070,-0.9941,-0.2184,-2.7097,-0.3154,-2.7167,-2.6081,-0.4917,0.7861,
5.030904,-0.0070,-0.9941,-0.2184,-2.7097,-0.3154,-2.7167,-2.9117,0.0514,0.7458,
5.034742,-0.0848,-0.9190,-0.1676,-2.7097,-0.3154,-2.7167,-2.9117,0.0514,0.7458,
5.036349,-0.0848,-0.9190,-0.1676,-3.2516,0.4974,-1.6646,-2.9117,0.0514,0.7458,
5.041335,-0.0848,-0.9190,-0.1676,-3.2516,0.4974,-1.6646,-3.0443,0.5163,0.8124,
5.052500,-0.0848,-0.9190,-0.1676,-3.2516,0.4974,-1.6646,-3.0211,0.8748,0.9248,
5.054505,-0.1123,-0.8644,-0.0483,-3.2516,0.4974,-1.6646,-3.0211,0.8748,0.9248,
5.055491,-0.1123,-0.8644,-0.0483,-3.2726,1.0779,0.0510,-3.0211,0.8748,0.9248,
5.061241,-0.1123,-0.8644,-0.0483,-3.2726,1.0779,0.0510,-2.8696,1.1858,1.0085,
5.070702,-0.1123,-0.8644,-0.0483,-3.2726,1.0779,0.0510,-2.6307,1.4002,1.0176,
5.076213,-0.0486,-0.9466,-0.0081,-3.2726,1.0779,0.0510,-2.6307,1.4002,1.0176,
5.078285,-0.0486,-0.9466,-0.0081,-2.3927,0.2920,0.8927,-2.6307,1.4002,1.0176,
5.080816,-0.0486,-0.9466,-0.0081,-2.3927,0.2920,0.8927,-2.3326,1.4460,0.9504,
5.091913,-0.0486,-0.9466,-0.0081,-2.3927,0.2920,0.8927,-2.0058,1.2817,0.8442,
5.094375,-0.0314,-1.1467,-0.0682,-2.3927,0.2920,0.8927,-2.0058,1.2817,0.8442,
5.095922,-0.0314,-1.1467,-0.0682,-2.0080,-1.6672,0.6336,-2.0058,1.2817,0.8442,
5.100568,-0.0314,-1.1467,-0.0682,-2.0080,-1.6672,0.6336,-1.6643,0.8736,0.7428,
5.110595,-0.0314,-1.1467,-0.0682,-2.0080,-1.6672,0.6336,-1.2825,0.2292,0.6505,
5.114423,-0.0332,-1.3084,-0.0305,-2.0080,-1.6672,0.6336,-1.2825,0.2292,0.6505,
5.115282,-0.0332,-1.3084,-0.0305,-1.8383,-3.2527,1.2198,-1.2825,0.2292,0.6505,
5.120620,-0.0332,-1.3084,-0.0305,-1.8383,-3.2527,1.2198,-0.8586,-0.5790,0.5516,
5.130562,-0.0332,-1.3084,-0.0305,-1.8383,-3.2527,1.2198,-0.4469,-1.4684,0.4312,
5.134407,-0.0351,-1.3706,-0.0288,-1.8383,-3.2527,1.2198,-0.4469,-1.4684,0.4312,
5.135208,-0.0351,-1.3706,-0.0288,-1.6666,-3.8505,1.3378,-0.4469,-1.4684,0.4312,
5.140799,-0.0351,-1.3706,-0.0288,-1.6666,-3.8505,1.3378,-0.1121,-2.3719,0.2962,
5.150602,-0.0351,-1.3706,-0.0288,-1.6666,-3.8505,1.3378,0.1884,-3.2381,0.1814,
5.154458,-0.0249,-1.1095,0.3078,-1.6666,-3.8505,1.3378,0.1884,-3.2381,0.1814,
5.155355,-0.0249,-1.1095,0.3078,-1.3734,-1.2638,4.6147,0.1884,-3.2381,0.1814,
5.160635,-0.0249,-1.1095,0.3078,-1.3734,-1.2638,4.6147,0.5776,-3.9321,0.1331,
5.170670,-0.0249,-1.1095,0.3078,-1.3734,-1.2638,4.6147,1.0974,-4.3774,0.1117,
5.175875,-0.0413,-1.0350,0.2673,-1.3734,-1.2638,4.6147,1.0974,-4.3774,0.1117,
5.177116,-0.0413,-1.0350,0.2673,-1.3315,-0.4848,4.0438,1.0974,-4.3774,0.1117,
5.180632,-0.0413,-1.0350,0.2673,-1.3315,-0.4848,4.0438,1.6050,-4.5619,0.0897,
5.193223,-0.0413,-1.0350,0.2673,-1.3315,-0.4848,4.0438,1.8964,-4.4360,0.0940,
5.195169,0.0441,-1.0566,-0.1244,-1.3315,-0.4848,4.0438,1.8964,-4.4360,0.0940,
5.196590,0.0441,-1.0566,-0.1244,-0.3247,-0.6394,-0.1205,1.8964,-4.4360,0.0940,
5.201084,0.0441,-1.0566,-0.1244,-0.3247,-0.6394,-0.1205,1.9410,-4.1324,0.0482,
5.212665,0.0441,-1.0566,-0.1244,-0.3247,-0.6394,-0.1205,1.5085,-3.5894,-0.0715,
5.214785,0.2461,-0.9198,-0.4211,-0.3247,-0.6394,-0.1205,1.5085,-3.5894,-0.0715,
5.216189,0.2461,-0.9198,-0.4211,1.7272,0.7342,-3.3078,1.5085,-3.5894,-0.0715,
5.221079,0.2461,-0.9198,-0.4211,1.7272,0.7342,-3.3078,1.2330,-3.2986,-0.2059,
5.231752,0.2461,-0.9198,-0.4211,1.7272,0.7342,-3.3078,1.0876,-2.9565,-0.3018,
5.235359,0.2858,-0.7729,-0.3001,1.7272,0.7342,-3.3078,1.0876,-2.9565,-0.3018,
5.237340,0.2858,-0.7729,-0.3001,2.0998,2.1857,-2.2892,1.0876,-2.9565,-0.3018,
5.241710,0.2858,-0.7729,-0.3001,2.0998,2.1857,-2.2892,1.0980,-2.5405,-0.3305,
5.251506,0.2858,-0.7729,-0.3001,2.0998,2.1857,-2.2892,1.2190,-2.0720,-0.3214,
5.255128,0.4130,-0.7429,-0.1044,2.0998,2.1857,-2.2892,1.2190,-2.0720,-0.3214,
5.257114,0.4130,-0.7429,-0.1044,3.2549,2.4813,-0.5287,1.2190,-2.0720,-0.3214,
5.261366,0.4130,-0.7429,-0.1044,3.2549,2.4813,-0.5287,1.4254,-1.6700,-0.3464,
5.270940,0.4130,-0.7429,-0.1044,3.2549,2.4813,-0.5287,1.7406,-1.5515,-0.4680,
5.276986,0.7961,-0.8002,0.3473,3.2549,2.4813,-0.5287,1.7406,-1.5515,-0.4680,
5.279108,0.7961,-0.8002,0.3473,6.8227,1.9133,3.6073,1.7406,-1.5515,-0.4680,
5.280897,0.7961,-0.8002,0.3473,6.8227,1.9133,3.6073,2.1145,-1.9443,-0.7001,
5.291214,0.7961,-0.8002,0.3473,6.8227,1.9133,3.6073,2.2464,-2.5674,-0.9616,
5.295121,0.7654,-0.7422,0.0247,6.8227,1.9133,3.6073,2.2464,-2.5674,-0.9616,
5.297242,0.7654,-0.7422,0.0247,6.2073,2.4459,0.0721,2.2464,-2.5674,-0.9616,
5.301018,0.7654,-0.7422,0.0247,6.2073,2.4459,0.0721,1.9343,-2.6902,-1.0795,
5.311208,0.7654,-0.7422,0.0247,6.2073,2.4459,0.0721,1.3833,-2.1575,-0.9182,
5.314955,0.4665,-0.6900,-0.0682,6.2073,2.4459,0.0721,1.3833,-2.1575,-0.9182,
5.316474,0.4665,-0.6900,-0.0682,2.9234,2.8963,-1.0704,1.3833,-2.1575,-0.9182,
5.321301,0.4665,-0.6900,-0.0682,2.9234,2.8963,-1.0704,0.8720,-1.4238,-0.5688,
5.331228,0.4665,-0.6900,-0.0682,2.9234,2.8963,-1.0704,0.5592,-0.8618,-0.2658,
5.335094,0.7446,-0.4917,-0.0741,2.9234,2.8963,-1.0704,0.5592,-0.8618,-0.2658,
5.336753,0.7446,-0.4917,-0.0741,5.3773,4.7870,-1.1965,0.5592,-0.8618,-0.2658,
5.341297,0.7446,-0.4917,-0.0741,5.3773,4.7870,-1.1965,0.3546,-0.4122,-0.0990,
5.351232,0.7446,-0.4917,-0.0741,5.3773,4.7870,-1.1965,0.1341,0.2035,-0.0062,
5.355019,0.8899,-0.8292,-0.1340,5.3773,4.7870,-1.1965,0.1341,0.2035,-0.0062,
5.356668,0.8899,-0.8292,-0.1340,6.5955,1.4361,-1.7833,0.1341,0.2035,-0.0062,
5.361260,0.8899,-0.8292,-0.1340,6.5955,1.4361,-1.7833,-0.0803,0.8394,0.0757,
5.371323,0.8899,-0.8292,-0.1340,6.5955,1.4361,-1.7833,-0.2593,1.1662,0.0965,
5.377283,1.2640,-1.3238,0.0261,6.5955,1.4361,-1.7833,-0.2593,1.1662,0.0965,
5.379842,1.2640,-1.3238,0.0261,10.0933,-3.4491,-0.1947,-0.2593,1.1662,0.0965,
5.382148,1.2640,-1.3238,0.0261,10.0933,-3.4491,-0.1947,-0.3589,0.9891,0.0115,
5.391431,1.2640,-1.3238,0.0261,10.0933,-3.4491,-0.1947,-0.1109,-0.6261,-0.4362,
5.395868,1.0748,-1.5921,0.1736,10.0933,-3.4491,-0.1947,-0.1109,-0.6261,-0.4362,
5.398626,1.0748,-1.5921,0.1736,8.0425,-6.1266,1.2954,-0.1109,-0.6261,-0.4362,
5.401414,1.0748,-1.5921,0.1736,8.0425,-6.1266,1.2954,0.1218,-1.1508,-0.5248,
5.411340,1.0748,-1.5921,0.1736,8.0425,-6.1266,1.2954,0.3931,-1.4660,-0.4900,
5.415130,0.4663,-1.0504,0.3302,8.0425,-6.1266,1.2954,0.3931,-1.4660,-0.4900,
5.417064,0.4663,-1.0504,0.3302,1.8412,-0.8830,2.8314,0.3931,-1.4660,-0.4900,
5.421203,0.4663,-1.0504,0.3302,1.8412,-0.8830,2.8314,0.7022,-1.5588,-0.4289,
5.431005,0.4663,-1.0504,0.3302,1.8412,-0.8830,2.8314,1.0339,-1.3878,-0.3531,
5.434887,0.1857,-0.7426,0.4543,1.8412,-0.8830,2.8314,1.0339,-1.3878,-0.3531,
5.436382,0.1857,-0.7426,0.4543,-1.0904,2.0725,3.9174,1.0339,-1.3878,-0.3531,
5.441336,0.1857,-0.7426,0.4543,-1.0904,2.0725,3.9174,1.3540,-1.0140,-0.2859,
5.451126,0.1857,-0.7426,0.4543,-1.0904,2.0725,3.9174,1.6765,-0.5662,-0.2676,
5.454946,0.1417,-0.5840,0.6264,-1.0904,2.0725,3.9174,1.6765,-0.5662,-0.2676,
5.456404,0.1417,-0.5840,0.6264,-1.6496,3.5609,5.2771,1.6765,-0.5662,-0.2676,
5.461022,0.1417,-0.5840,0.6264,-1.6496,3.5609,5.2771,2.0308,-0.1960,-0.3147,
5.471024,0.1417,-0.5840,0.6264,-1.6496,3.5609,5.2771,2.3540,0.0459,-0.4332,
5.477098,0.1929,-0.6131,0.6014,-1.6496,3.5609,5.2771,2.3540,0.0459,-0.4332,
5.479959,0.1929,-0.6131,0.6014,-1.2608,3.1764,4.5211,2.3540,0.0459,-0.4332,
5.481908,0.1929,-0.6131,0.6014,-1.2608,3.1764,4.5211,2.5054,0.3116,-0.5914,
5.491059,0.1929,-0.6131,0.6014,-1.2608,3.1764,4.5211,2.4725,0.6403,-0.6861,
5.494963,0.1048,-0.7704,0.3594,-1.2608,3.1764,4.5211,2.4725,0.6403,-0.6861,
5.496947,0.1048,-0.7704,0.3594,-2.2320,1.4921,1.5757,2.4725,0.6403,-0.6861,
5.500949,0.1048,-0.7704,0.3594,-2.2320,1.4921,1.5757,2.3356,0.9255,-0.6622,
5.511238,0.1048,-0.7704,0.3594,-2.2320,1.4921,1.5757,2.1994,1.0367,-0.5346,
5.514765,-0.1018,-0.9979,0.2207,-2.2320,1.4921,1.5757,2.1994,1.0367,-0.5346,
5.516296,-0.1018,-0.9979,0.2207,-4.2769,-0.8716,-0.3004,2.1994,1.0367,-0.5346,
5.521219,-0.1018,-0.9979,0.2207,-4.2769,-0.8716,-0.3004,2.0998,1.0569,-0.3538,
5.531008,-0.1018,-0.9979,0.2207,-4.2769,-0.8716,-0.3004,2.0161,1.0263,-0.1039,
5.534836,-0.0574,-1.0065,-0.0048,-4.2769,-0.8716,-0.3004,2.0161,1.0263,-0.1039,
5.536208,-0.0574,-1.0065,-0.0048,-3.7545,-1.0520,-2.9328,2.0161,1.0263,-0.1039,
5.541373,-0.0574,-1.0065,-0.0048,-3.7545,-1.0520,-2.9328,1.8616,0.9787,0.1453,
5.551097,-0.0574,-1.0065,-0.0048,-3.7545,-1.0520,-2.9328,1.5995,1.0349,0.2773,
5.554808,0.1656,-0.9409,-0.1314,-3.7545,-1.0520,-2.9328,1.5995,1.0349,0.2773,
5.556319,0.1656,-0.9409,-0.1314,-1.4096,-0.4563,-4.4735,1.5995,1.0349,0.2773,
5.561221,0.1656,-0.9409,-0.1314,-1.4096,-0.4563,-4.4735,1.2391,1.3159,0.2596,
5.571030,0.1656,-0.9409,-0.1314,-1.4096,-0.4563,-4.4735,0.8164,1.7594,0.1520,
5.575291,0.2951,-0.9604,-0.2064,-1.4096,-0.4563,-4.4735,0.8164,1.7594,0.1520,
5.577008,0.2951,-0.9604,-0.2064,0.0311,-0.6476,-5.3663,0.8164,1.7594,0.1520,
5.581183,0.2951,-0.9604,-0.2064,0.0311,-0.6476,-5.3663,-0.0651,2.6476,-0.0471,
5.591131,0.2951,-0.9604,-0.2064,0.0311,-0.6476,-5.3663,-0.4658,3.0648,-0.0825,
5.594924,0.3938,-1.0390,-0.1000,0.0311,-0.6476,-5.3663,-0.4658,3.0648,-0.0825,
5.597917,0.3938,-1.0390,-0.1000,1.1861,-1.3529,-4.3061,-0.4658,3.0648,-0.0825,
5.601061,0.3938,-1.0390,-0.1000,1.1861,-1.3529,-4.3061,-0.7761,3.3098,-0.0569,
5.611477,0.3938,-1.0390,-0.1000,1.1861,-1.3529,-4.3061,-1.0168,3.1857,0.0396,
5.615345,0.4569,-1.1041,-0.0281,1.1861,-1.3529,-4.3061,-1.0168,3.1857,0.0396,
5.617643,0.4569,-1.1041,-0.0281,1.9986,-1.8900,-3.4803,-1.0168,3.1857,0.0396,
5.621678,0.4569,-1.1041,-0.0281,1.9986,-1.8900,-3.4803,-1.2880,2.7215,0.1801,
5.631388,0.4569,-1.1041,-0.0281,1.9986,-1.8900,-3.4803,-1.6466,2.1625,0.2980,
5.635380,0.5266,-1.1934,-0.1347,1.9986,-1.8900,-3.4803,-1.6466,2.1625,0.2980,
5.636886,0.5266,-1.1934,-0.1347,2.8353,-2.6297,-4.2479,-1.6466,2.1625,0.2980,
5.641476,0.5266,-1.1934,-0.1347,2.8353,-2.6297,-4.2479,-2.0736,1.7117,0.2895,
5.651336,0.5266,-1.1934,-0.1347,2.8353,-2.6297,-4.2479,-2.5098,1.4075,0.1643,
5.655108,0.3696,-1.3151,-0.1016,2.8353,-2.6297,-4.2479,-2.5098,1.4075,0.1643,
5.656603,0.3696,-1.3151,-0.1016,1.3873,-3.6618,-3.4559,-2.5098,1.4075,0.1643,
5.661661,0.3696,-1.3151,-0.1016,1.3873,-3.6618,-3.4559,-2.8634,1.0954,0.0965,
5.671463,0.3696,-1.3151,-0.1016,1.3873,-3.6618,-3.4559,-3.1096,0.7692,0.1423,
5.675846,0.0628,-1.3973,0.0458,1.3873,-3.6618,-3.4559,-3.1096,0.7692,0.1423,
5.678051,0.0628,-1.3973,0.0458,-1.5612,-4.3144,-1.4122,-3.1096,0.7692,0.1423,
5.682495,0.0628,-1.3973,0.0458,-1.5612,-4.3144,-1.4122,-3.2929,0.5413,0.2492,
5.691732,0.0628,-1.3973,0.0458,-1.5612,-4.3144,-1.4122,-3.4071,0.3697,0.4025,
5.697353,-0.2167,-1.1751,0.1382,-1.5612,-4.3144,-1.4122,-3.4071,0.3697,0.4025,
5.701028,-0.2167,-1.1751,0.1382,-4.1933,-2.0072,0.1426,-3.4071,0.3697,0.4025,
5.703117,-0.2167,-1.1751,0.1382,-4.1933,-2.0072,0.1426,-3.4517,0.2768,0.5882,
5.711645,-0.2167,-1.1751,0.1382,-4.1933,-2.0072,0.1426,-3.4480,0.3055,0.7709,
5.715230,-0.2196,-0.9293,0.1151,-4.1933,-2.0072,0.1426,-3.4480,0.3055,0.7709,
5.716917,-0.2196,-0.9293,0.1151,-4.0309,0.5014,0.5707,-3.4480,0.3055,0.7709,
5.721221,-0.2196,-0.9293,0.1151,-4.0309,0.5014,0.5707,-3.3980,0.4234,0.9101,
5.731254,-0.2196,-0.9293,0.1151,-4.0309,0.5014,0.5707,-3.2685,0.5474,0.9908,
5.735325,-0.2278,-0.7082,0.1972,-4.0309,0.5014,0.5707,-3.2685,0.5474,0.9908,
5.737134,-0.2278,-0.7082,0.1972,-3.8478,2.7319,1.9638,-3.2685,0.5474,0.9908,
5.741332,-0.2278,-0.7082,0.1972,-3.8478,2.7319,1.9638,-3.0339,0.6672,1.0158,
5.751130,-0.2278,-0.7082,0.1972,-3.8478,2.7319,1.9638,-2.7474,0.7973,0.9834,
5.755075,-0.1769,-0.5463,0.0693,-3.8478,2.7319,1.9638,-2.7474,0.7973,0.9834,
5.756617,-0.1769,-0.5463,0.0693,-3.0731,4.3479,1.1893,-2.7474,0.7973,0.9834,
5.761406,-0.1769,-0.5463,0.0693,-3.0731,4.3479,1.1893,-2.3265,1.1552,0.7073,
5.771163,-0.1769,-0.5463,0.0693,-3.0731,4.3479,1.1893,-2.1781,1.2200,0.4514,
5.775320,-0.0320,-0.5298,-0.0114,-3.0731,4.3479,1.1893,-2.1781,1.2200,0.4514,
5.777418,-0.0320,-0.5298,-0.0114,-1.4797,4.5078,0.7414,-2.1781,1.2200,0.4514,
5.781519,-0.0320,-0.5298,-0.0114,-1.4797,4.5078,0.7414,-1.9753,1.1198,0.1356,
5.791517,-0.0320,-0.5298,-0.0114,-1.4797,4.5078,0.7414,-1.6332,0.9683,-0.1320,
5.795761,0.1513,-0.7777,0.3347,-1.4797,4.5078,0.7414,-1.6332,0.9683,-0.1320,
5.798626,0.1513,-0.7777,0.3347,0.3430,2.0597,4.3461,-1.6332,0.9683,-0.1320,
5.801199,0.1513,-0.7777,0.3347,0.3430,2.0597,4.3461,-1.0516,0.7081,-0.3434,
5.811310,0.1513,-0.7777,0.3347,0.3430,2.0597,4.3461,-0.2123,0.1937,-0.5755,
5.815149,0.4703,-1.1453,0.8264,0.3430,2.0597,4.3461,-0.2123,0.1937,-0.5755,
5.816825,0.4703,-1.1453,0.8264,3.3610,-1.5483,9.0957,-0.2123,0.1937,-0.5755,
5.821230,0.4703,-1.1453,0.8264,3.3610,-1.5483,9.0957,0.4322,-0.6144,-0.7911,
5.831316,0.4703,-1.1453,0.8264,3.3610,-1.5483,9.0957,0.4004,-1.4715,-0.8980,
5.835023,0.5213,-1.2891,-0.0110,3.3610,-1.5483,9.0957,0.4004,-1.4715,-0.8980,
5.836861,0.5213,-1.2891,-0.0110,3.6823,-2.9655,0.7128,0.4004,-1.4715,-0.8980,
5.841756,0.5213,-1.2891,-0.0110,3.6823,-2.9655,0.7128,-0.1164,-1.7140,-0.9072,
5.851269,0.5213,-1.2891,-0.0110,3.6823,-2.9655,0.7128,-0.6124,-1.1080,-0.8547,
5.855192,0.5001,-1.1678,-0.1029,3.6823,-2.9655,0.7128,-0.6124,-1.1080,-0.8547,
5.856982,0.5001,-1.1678,-0.1029,3.2785,-1.8099,-0.1619,-0.6124,-1.1080,-0.8547,
5.861899,0.5001,-1.1678,-0.1029,3.2785,-1.8099,-0.1619,-0.8415,-0.0860,-0.7575,
5.871235,0.5001,-1.1678,-0.1029,3.2785,-1.8099,-0.1619,-0.8024,0.8840,-0.6231,
5.875637,0.6285,-1.1045,0.1241,3.2785,-1.8099,-0.1619,-0.8024,0.8840,-0.6231,
5.877551,0.6285,-1.1045,0.1241,4.3269,-1.2328,2.1211,-0.8024,0.8840,-0.6231,
5.881779,0.6285,-1.1045,0.1241,4.3269,-1.2328,2.1211,-0.5800,1.4991,-0.4564,
5.891618,0.6285,-1.1045,0.1241,4.3269,-1.2328,2.1211,-0.3021,1.4772,-0.2505,
5.895950,0.6596,-1.2687,-0.1294,4.3269,-1.2328,2.1211,-0.3021,1.4772,-0.2505,
5.898416,0.6596,-1.2687,-0.1294,4.4595,-2.8737,-0.3913,-0.3021,1.4772,-0.2505,
5.901302,0.6596,-1.2687,-0.1294,4.4595,-2.8737,-0.3913,-0.1524,0.8162,-0.0013,
5.911936,0.6596,-1.2687,-0.1294,4.4595,-2.8737,-0.3913,-0.1836,0.0483,0.2131,
5.915360,0.6827,-1.2626,-0.1760,4.4595,-2.8737,-0.3913,-0.1836,0.0483,0.2131,
5.917081,0.6827,-1.2626,-0.1760,4.6127,-2.8277,-0.8680,-0.1836,0.0483,0.2131,
5.921361,0.6827,-1.2626,-0.1760,4.6127,-2.8277,-0.8680,-0.2679,-0.3780,0.2480,
5.931370,0.6827,-1.2626,-0.1760,4.6127,-2.8277,-0.8680,-0.3149,-0.4465,0.1472,
5.935057,0.4957,-1.1440,-0.0666,4.6127,-2.8277,-0.8680,-0.3149,-0.4465,0.1472,
5.936615,0.4957,-1.1440,-0.0666,2.7429,-1.6773,0.2468,-0.3149,-0.4465,0.1472,
5.941620,0.4957,-1.1440,-0.0666,2.7429,-1.6773,0.2468,-0.3113,-0.2901,0.0867,
5.951485,0.4957,-1.1440,-0.0666,2.7429,-1.6773,0.2468,-0.2734,-0.3591,0.1044,
5.955042,0.4261,-0.9872,0.0177,2.7429,-1.6773,0.2468,-0.2734,-0.3591,0.1044,
5.956668,0.4261,-0.9872,0.0177,2.0065,-0.1569,1.1073,-0.2734,-0.3591,0.1044,
5.961893,0.4261,-0.9872,0.0177,2.0065,-0.1569,1.1073,-0.2502,-0.4935,0.1129,
5.971319,0.4261,-0.9872,0.0177,2.0065,-0.1569,1.1073,-0.2037,-0.5808,0.1301,
5.975913,0.3677,-0.9142,0.0677,2.0065,-0.1569,1.1073,-0.2037,-0.5808,0.1301,
5.978037,0.3677,-0.9142,0.0677,1.3943,0.5475,1.6200,-0.2037,-0.5808,0.1301,
5.982167,0.3677,-0.9142,0.0677,1.3943,0.5475,1.6200,-0.1280,-0.5949,0.1630,
5.991122,0.3677,-0.9142,0.0677,1.3943,0.5475,1.6200,-0.0241,-0.5692,0.1948,
5.997290,0.3459,-0.8774,0.1290,1.3943,0.5475,1.6200,-0.0241,-0.5692,0.1948,
5.999654,0.3459,-0.8774,0.1290,1.1572,0.9037,2.2063,-0.0241,-0.5692,0.1948,
6.001959,0.3459,-0.8774,0.1290,1.1572,0.9037,2.2063,0.1005,-0.5289,0.2168,
6.011144,0.3459,-0.8774,0.1290,1.1572,0.9037,2.2063,0.2318,-0.4788,0.2162,
6.014778,0.3822,-0.8088,0.1669,1.1572,0.9037,2.2063,0.2318,-0.4788,0.2162,
6.016225,0.3822,-0.8088,0.1669,1.4911,1.5785,2.5022,0.2318,-0.4788,0.2162,
6.020967,0.3822,-0.8088,0.1669,1.4911,1.5785,2.5022,0.3381,-0.4196,0.1869,
6.030887,0.3822,-0.8088,0.1669,1.4911,1.5785,2.5022,0.4090,-0.3475,0.1374,
6.034762,0.4532,-0.7594,0.1739,1.4911,1.5785,2.5022,0.4090,-0.3475,0.1374,
6.036232,0.4532,-0.7594,0.1739,2.1414,2.0620,2.4450,0.4090,-0.3475,0.1374,
6.040995,0.4532,-0.7594,0.1739,2.1414,2.0620,2.4450,0.4774,-0.2791,0.0800,
6.051028,0.4532,-0.7594,0.1739,2.1414,2.0620,2.4450,0.5812,-0.1905,0.0115,
6.054867,0.5020,-0.7387,0.2322,2.1414,2.0620,2.4450,0.5812,-0.1905,0.0115,
6.056358,0.5020,-0.7387,0.2322,2.5383,2.2571,2.8444,0.5812,-0.1905,0.0115,
6.061374,0.5020,-0.7387,0.2322,2.5383,2.2571,2.8444,0.7156,-0.0201,-0.0703,
6.071013,0.5020,-0.7387,0.2322,2.5383,2.2571,2.8444,0.8573,0.2285,-0.1638,
6.074976,0.5057,-0.7600,0.2222,2.5383,2.2571,2.8444,0.8573,0.2285,-0.1638,
6.076592,0.5057,-0.7600,0.2222,2.4523,2.0275,2.5091,0.8573,0.2285,-0.1638,
6.081001,0.5057,-0.7600,0.2222,2.4523,2.0275,2.5091,0.9984,0.4876,-0.2670,
6.090884,0.5057,-0.7600,0.2222,2.4523,2.0275,2.5091,1.1670,0.6690,-0.3812,
6.095002,0.5640,-0.7184,0.3409,2.4523,2.0275,2.5091,1.1670,0.6690,-0.3812,
6.097936,0.5640,-0.7184,0.3409,2.8537,2.3951,3.3473,1.1670,0.6690,-0.3812,
6.101061,0.5640,-0.7184,0.3409,2.8537,2.3951,3.3473,1.4022,0.7270,-0.5285,
6.111792,0.5640,-0.7184,0.3409,2.8537,2.3951,3.3473,1.7254,0.6794,-0.7172,
6.115303,0.4664,-0.7455,0.4544,2.8537,2.3951,3.3473,1.7254,0.6794,-0.7172,
6.117016,0.4664,-0.7455,0.4544,1.6875,2.0575,4.0235,1.7254,0.6794,-0.7172,
6.121271,0.4664,-0.7455,0.4544,1.6875,2.0575,4.0235,2.0919,0.5786,-0.8876,
6.131229,0.4664,-0.7455,0.4544,1.6875,2.0575,4.0235,2.6679,0.3770,-1.0281,
6.134934,0.2777,-0.7411,0.4722,1.6875,2.0575,4.0235,2.6679,0.3770,-1.0281,
6.136701,0.2777,-0.7411,0.4722,-0.3970,1.9803,3.6217,2.6679,0.3770,-1.0281,
6.141123,0.2777,-0.7411,0.4722,-0.3970,1.9803,3.6217,2.8604,0.3715,-1.0489,
6.151198,0.2777,-0.7411,0.4722,-0.3970,1.9803,3.6217,3.0528,0.4100,-1.1161,
6.155050,0.2930,-0.7582,0.5223,-0.3970,1.9803,3.6217,3.0528,0.4100,-1.1161,
6.156846,0.2930,-0.7582,0.5223,-0.4701,1.6362,3.4457,3.0528,0.4100,-1.1161,
6.161638,0.2930,-0.7582,0.5223,-0.4701,1.6362,3.4457,3.2110,0.3984,-1.2817,
6.171440,0.2930,-0.7582,0.5223,-0.4701,1.6362,3.4457,3.2452,0.2780,-1.5321,
6.175668,0.3707,-0.9806,0.3077,-0.4701,1.6362,3.4457,3.2452,0.2780,-1.5321,
6.178875,0.3707,-0.9806,0.3077,0.0416,-0.7859,0.6918,3.2452,0.2780,-1.5321,
6.185789,0.3707,-0.9806,0.3077,0.0416,-0.7859,0.6918,3.1432,-0.0384,-1.7758,
6.191205,0.3707,-0.9806,0.3077,0.0416,-0.7859,0.6918,2.8646,-0.3951,-1.9396,
6.199372,0.4349,-1.4800,-0.4241,0.0416,-0.7859,0.6918,2.8646,-0.3951,-1.9396,
6.202293,0.4349,-1.4800,-0.4241,0.3475,-5.9500,-6.9271,2.8646,-0.3951,-1.9396,
6.204559,0.4349,-1.4800,-0.4241,0.3475,-5.9500,-6.9271,2.3857,-0.5344,-2.0471,
6.212133,0.4349,-1.4800,-0.4241,0.3475,-5.9500,-6.9271,1.7736,-0.5326,-2.1265,
6.221551,0.4349,-1.4800,-0.4241,0.3475,-5.9500,-6.9271,1.1615,-0.5576,-2.1912,
6.224759,0.5869,-1.5636,-0.3816,0.3475,-5.9500,-6.9271,1.1615,-0.5576,-2.1912,
6.229532,0.5869,-1.5636,-0.3816,1.2876,-7.1335,-6.7683,1.1615,-0.5576,-2.1912,
6.232024,0.5869,-1.5636,-0.3816,1.2876,-7.1335,-6.7683,0.7547,-0.3884,-2.2859,
6.241123,0.5869,-1.5636,-0.3816,1.2876,-7.1335,-6.7683,0.5641,0.0697,-2.4490,
6.246794,0.8438,-1.4085,0.1614,1.2876,-7.1335,-6.7683,0.5641,0.0697,-2.4490,
6.248696,0.8438,-1.4085,0.1614,3.4372,-5.8190,-1.4290,0.5641,0.0697,-2.4490,
6.250668,0.8438,-1.4085,0.1614,3.4372,-5.8190,-1.4290,0.5763,0.7594,-2.6677,
6.260608,0.8438,-1.4085,0.1614,3.4372,-5.8190,-1.4290,0.7987,1.3483,-2.8473,
6.264637,0.6593,-1.3982,0.5137,3.4372,-5.8190,-1.4290,0.7987,1.3483,-2.8473,
6.265613,0.6593,-1.3982,0.5137,1.2955,-5.9873,1.8757,0.7987,1.3483,-2.8473,
6.270545,0.6593,-1.3982,0.5137,1.2955,-5.9873,1.8757,1.1646,1.7887,-2.8864,
6.280646,0.6593,-1.3982,0.5137,1.2955,-5.9873,1.8757,1.4462,2.1821,-2.7575,
6.284466,0.5137,-1.2228,0.4578,1.2955,-5.9873,1.8757,1.4462,2.1821,-2.7575,
6.285370,0.5137,-1.2228,0.4578,-0.3722,-4.5878,0.9859,1.4462,2.1821,-2.7575,
6.290693,0.5137,-1.2228,0.4578,-0.3722,-4.5878,0.9859,1.4572,2.5260,-2.5034,
6.300623,0.5137,-1.2228,0.4578,-0.3722,-4.5878,0.9859,1.1695,2.6604,-2.1766,
6.304505,0.3899,-0.8195,0.2692,-0.3722,-4.5878,0.9859,1.1695,2.6604,-2.1766,
6.305556,0.3899,-0.8195,0.2692,-1.6739,-0.9064,-1.2615,1.1695,2.6604,-2.1766,
6.310627,0.3899,-0.8195,0.2692,-1.6739,-0.9064,-1.2615,0.6783,2.6372,-1.6305,
6.320532,0.3899,-0.8195,0.2692,-1.6739,-0.9064,-1.2615,-0.2404,2.4949,-1.3855,
6.324430,0.1322,-0.5188,0.1212,-1.6739,-0.9064,-1.2615,-0.2404,2.4949,-1.3855,
6.325652,0.1322,-0.5188,0.1212,-4.1432,1.9529,-2.9446,-0.2404,2.4949,-1.3855,
6.330573,0.1322,-0.5188,0.1212,-4.1432,1.9529,-2.9446,-0.5141,2.3709,-1.1503,
6.340511,0.1322,-0.5188,0.1212,-4.1432,1.9529,-2.9446,-0.7175,2.2383,-0.9787,
6.344425,0.0844,-0.3067,-0.0310,-4.1432,1.9529,-2.9446,-0.7175,2.2383,-0.9787,
6.345766,0.0844,-0.3067,-0.0310,-4.5084,4.0695,-4.5041,-0.7175,2.2383,-0.9787,
6.350568,0.0844,-0.3067,-0.0310,-4.5084,4.0695,-4.5041,-0.8684,2.1076,-0.8889,
6.361778,0.0844,-0.3067,-0.0310,-4.5084,4.0695,-4.5041,-0.9930,2.0636,-0.8931,
6.365289,0.1407,-0.2263,0.0110,-4.5084,4.0695,-4.5041,-0.9930,2.0636,-0.8931,
6.367173,0.1407,-0.2263,0.0110,-3.8584,4.9369,-4.0807,-0.9930,2.0636,-0.8931,
6.371165,0.1407,-0.2263,0.0110,-3.8584,4.9369,-4.0807,-1.0913,2.1271,-0.9817,
6.381405,0.1407,-0.2263,0.0110,-3.8584,4.9369,-4.0807,-1.1817,2.2041,-1.1204,
6.385031,0.2507,-0.2095,0.1764,-3.8584,4.9369,-4.0807,-1.1817,2.2041,-1.1204,
6.386981,0.2507,-0.2095,0.1764,-2.7253,5.1475,-2.4514,-1.1817,2.2041,-1.1204,
6.391233,0.2507,-0.2095,0.1764,-2.7253,5.1475,-2.4514,-1.3180,2.1815,-1.2432,
6.401255,0.2507,-0.2095,0.1764,-2.7253,5.1475,-2.4514,-1.5513,1.9976,-1.3061,
6.404878,0.4764,-0.3310,0.3882,-2.7253,5.1475,-2.4514,-1.5513,1.9976,-1.3061,
6.406523,0.4764,-0.3310,0.3882,-0.5247,3.9543,-0.3647,-1.5513,1.9976,-1.3061,
6.412163,0.4764,-0.3310,0.3882,-0.5247,3.9543,-0.3647,-1.9337,1.7356,-1.2927,
6.421299,0.4764,-0.3310,0.3882,-0.5247,3.9543,-0.3647,-2.5440,1.3110,-1.2053,
6.425156,0.9202,-0.4703,0.5166,-0.5247,3.9543,-0.3647,-2.5440,1.3110,-1.2053,
6.427000,0.9202,-0.4703,0.5166,3.7136,2.6042,1.0616,-2.5440,1.3110,-1.2053,
6.431291,0.9202,-0.4703,0.5166,3.7136,2.6042,1.0616,-3.2880,0.8437,-1.0233,
6.441357,0.9202,-0.4703,0.5166,3.7136,2.6042,1.0616,-3.9355,0.7777,-0.7636,
6.445764,0.9232,-0.7578,0.0746,3.7136,2.6042,1.0616,-3.9355,0.7777,-0.7636,
6.448124,0.9232,-0.7578,0.0746,3.6009,-0.0743,-2.7960,-3.9355,0.7777,-0.7636,
6.451257,0.9232,-0.7578,0.0746,3.6009,-0.0743,-2.7960,-4.4737,1.1290,-0.3709,
6.461828,0.9232,-0.7578,0.0746,3.6009,-0.0743,-2.7960,-4.9031,1.6384,0.2644,
6.465327,0.8400,-1.3265,0.0395,3.6009,-0.0743,-2.7960,-4.9031,1.6384,0.2644,
6.467326,0.8400,-1.3265,0.0395,2.8214,-5.3605,-2.5356,-4.9031,1.6384,0.2644,
6.471293,0.8400,-1.3265,0.0395,2.8214,-5.3605,-2.5356,-5.0369,2.1693,1.0922,
6.481447,0.8400,-1.3265,0.0395,2.8214,-5.3605,-2.5356,-4.7571,2.5737,1.9370,
6.485002,0.7427,-1.6651,0.6478,2.8214,-5.3605,-2.5356,-4.7571,2.5737,1.9370,
6.486908,0.7427,-1.6651,0.6478,2.2273,-8.2627,3.9454,-4.7571,2.5737,1.9370,
6.491115,0.7427,-1.6651,0.6478,2.2273,-8.2627,3.9454,-3.9410,2.8351,2.6462,
6.501257,0.7427,-1.6651,0.6478,2.2273,-8.2627,3.9454,-1.3509,3.0862,3.5350,
6.504988,0.2998,-1.6850,0.2459,2.2273,-8.2627,3.9454,-1.3509,3.0862,3.5350,
6.506763,0.2998,-1.6850,0.2459,-1.4653,-8.0431,0.1629,-1.3509,3.0862,3.5350,
6.512004,0.2998,-1.6850,0.2459,-1.4653,-8.0431,0.1629,-0.5220,2.9829,3.6786,
6.521099,0.2998,-1.6850,0.2459,-1.4653,-8.0431,0.1629,-0.1585,2.8492,3.4367,
6.524944,0.4244,-1.4248,-0.2799,-1.4653,-8.0431,0.1629,-0.1585,2.8492,3.4367,
6.527110,0.4244,-1.4248,-0.2799,0.4974,-5.1794,-5.1120,-0.1585,2.8492,3.4367,
6.531486,0.4244,-1.4248,-0.2799,0.4974,-5.1794,-5.1120,-0.0406,2.6842,2.8148,
6.541208,0.4244,-1.4248,-0.2799,0.4974,-5.1794,-5.1120,0.0125,2.5547,2.0592,
6.545805,0.0716,-1.0690,0.0503,0.4974,-5.1794,-5.1120,0.0125,2.5547,2.0592,
6.549235,0.0716,-1.0690,0.0503,-2.4018,-1.5083,-1.9814,0.0125,2.5547,2.0592,
6.552271,0.0716,-1.0690,0.0503,-2.4018,-1.5083,-1.9814,0.1842,2.1931,1.4214,
6.562364,0.0716,-1.0690,0.0503,-2.4018,-1.5083,-1.9814,0.3876,1.5224,0.8313,
6.565453,0.2188,-0.4268,0.1136,-2.4018,-1.5083,-1.9814,0.3876,1.5224,0.8313,
6.567901,0.2188,-0.4268,0.1136,-0.6833,4.8486,-1.4581,0.3876,1.5224,0.8313,
6.571440,0.2188,-0.4268,0.1136,-0.6833,4.8486,-1.4581,0.3925,0.8718,0.1264,
6.581640,0.2188,-0.4268,0.1136,-0.6833,4.8486,-1.4581,0.1677,0.5688,-0.5474,
6.585370,0.2130,-0.3001,-0.3433,-0.6833,4.8486,-1.4581,0.1677,0.5688,-0.5474,
6.587368,0.2130,-0.3001,-0.3433,-0.7776,6.0843,-5.9132,0.1677,0.5688,-0.5474,
6.591319,0.2130,-0.3001,-0.3433,-0.7776,6.0843,-5.9132,-0.1329,0.5682,-1.0434,
6.601447,0.2130,-0.3001,-0.3433,-0.7776,6.0843,-5.9132,-0.3106,0.7478,-1.3702,
6.605815,0.1066,-0.2002,-0.0548,-0.7776,6.0843,-5.9132,-0.3106,0.7478,-1.3702,
6.607800,0.1066,-0.2002,-0.0548,-2.0356,7.0247,-2.9702,-0.3106,0.7478,-1.3702,
6.613361,0.1066,-0.2002,-0.0548,-2.0356,7.0247,-2.9702,-0.2648,1.0166,-1.5834,
6.621303,0.1066,-0.2002,-0.0548,-2.0356,7.0247,-2.9702,0.5763,1.3025,-1.7325,
6.625201,-0.3927,-0.4074,1.4020,-2.0356,7.0247,-2.9702,0.5763,1.3025,-1.7325,
6.627287,-0.3927,-0.4074,1.4020,-7.0885,4.8760,11.0885,0.5763,1.3025,-1.7325,
6.632894,-0.3927,-0.4074,1.4020,-7.0885,4.8760,11.0885,2.5390,1.5199,-1.5688,
6.641252,-0.3927,-0.4074,1.4020,-7.0885,4.8760,11.0885,3.8170,2.0324,-1.0068,
6.646013,-0.4482,-0.6744,-0.7191,-7.0885,4.8760,11.0885,3.8170,2.0324,-1.0068,
6.648727,-0.4482,-0.6744,-0.7191,-7.5874,2.0748,-10.2952,3.8170,2.0324,-1.0068,
6.651516,-0.4482,-0.6744,-0.7191,-7.5874,2.0748,-10.2952,3.5378,2.7142,-0.3733,
6.674263,-0.4482,-0.6744,-0.7191,-7.5874,2.0748,-10.2952,2.3888,3.1399,0.1148,
6.676686,-0.4404,-0.7624,-0.7250,-7.5874,2.0748,-10.2952,2.3888,3.1399,0.1148,
6.679516,-0.4404,-0.7624,-0.7250,-7.1267,1.1521,-10.8340,2.3888,3.1399,0.1148,
6.681581,-0.4404,-0.7624,-0.7250,-7.1267,1.1521,-10.8340,1.1481,3.2835,0.4495,
6.683376,-0.4404,-0.7624,-0.7250,-7.1267,1.1521,-10.8340,0.2007,3.1137,1.1520,
6.685257,-0.4812,-0.9973,-0.0727,-7.1267,1.1521,-10.8340,0.2007,3.1137,1.1520,
6.687044,-0.4812,-0.9973,-0.0727,-6.9305,-1.0185,-4.5359,0.2007,3.1137,1.1520,
6.701438,-0.4812,-0.9973,-0.0727,-6.9305,-1.0185,-4.5359,-0.2398,1.9964,1.3487,
6.703183,-0.4812,-0.9973,-0.0727,-6.9305,-1.0185,-4.5359,-0.0871,0.9970,1.3371,
6.705247,-0.2899,-1.3695,0.0657,-6.9305,-1.0185,-4.5359,-0.0871,0.9970,1.3371,
6.706640,-0.2899,-1.3695,0.0657,-4.5259,-4.4945,-3.0511,-0.0871,0.9970,1.3371,
6.711708,-0.2899,-1.3695,0.0657,-4.5259,-4.4945,-3.0511,0.1182,-0.3139,1.0781,
6.721186,-0.2899,-1.3695,0.0657,-4.5259,-4.4945,-3.0511,0.3027,-1.5179,0.5919,
6.724822,-0.1035,-1.6371,0.4054,-4.5259,-4.4945,-3.0511,0.3027,-1.5179,0.5919,
6.726581,-0.1035,-1.6371,0.4054,-2.4816,-7.0357,0.3850,0.3027,-1.5179,0.5919,
6.730882,-0.1035,-1.6371,0.4054,-2.4816,-7.0357,0.3850,0.3692,-1.8734,0.0396,
6.740929,-0.1035,-1.6371,0.4054,-2.4816,-7.0357,0.3850,0.3185,-1.3481,-0.4087,
6.745133,0.0204,-1.4514,0.9577,-2.4816,-7.0357,0.3850,0.3185,-1.3481,-0.4087,
6.747124,0.0204,-1.4514,0.9577,-1.3051,-5.2104,5.8272,0.3185,-1.3481,-0.4087,
6.751112,0.0204,-1.4514,0.9577,-1.3051,-5.2104,5.8272,0.2892,-0.2088,-0.7252,
6.761660,0.0204,-1.4514,0.9577,-1.3051,-5.2104,5.8272,0.1756,1.2597,-0.9561,
6.765030,0.3205,-1.1744,1.5484,-1.3051,-5.2104,5.8272,0.1756,1.2597,-0.9561,
6.766572,0.3205,-1.1744,1.5484,1.5933,-2.5442,11.5127,0.1756,1.2597,-0.9561,
6.771248,0.3205,-1.1744,1.5484,1.5933,-2.5442,11.5127,-0.1628,2.1784,-1.1778,
6.781241,0.3205,-1.1744,1.5484,1.5933,-2.5442,11.5127,-0.8904,1.7209,-1.4374,
6.784846,1.1252,-1.1263,1.7661,1.5933,-2.5442,11.5127,-0.8904,1.7209,-1.4374,
6.786344,1.1252,-1.1263,1.7661,9.3868,-2.0754,13.6792,-0.8904,1.7209,-1.4374,
6.790936,1.1252,-1.1263,1.7661,9.3868,-2.0754,13.6792,-1.1891,-0.4556,-1.9689,
6.801299,1.1252,-1.1263,1.7661,9.3868,-2.0754,13.6792,-1.2013,-2.9858,-2.8320,
6.805149,0.2543,-1.2477,-0.8451,9.3868,-2.0754,13.6792,-1.2013,-2.9858,-2.8320,
6.806955,0.2543,-1.2477,-0.8451,0.3058,-3.2728,-11.6294,-1.2013,-2.9858,-2.8320,
6.825359,0.2543,-1.2477,-0.8451,0.3058,-3.2728,-11.6294,-1.9435,-3.8349,-3.0984,
6.828061,0.2543,-1.2477,-0.8451,0.3058,-3.2728,-11.6294,-2.9618,-3.4715,-2.3806,
6.830853,-0.5912,-0.8265,-0.1347,0.3058,-3.2728,-11.6294,-2.9618,-3.4715,-2.3806,
6.832912,-0.5912,-0.8265,-0.1347,-8.5978,0.8961,-4.0381,-2.9618,-3.4715,-2.3806,
6.834767,-0.5912,-0.8265,-0.1347,-8.5978,0.8961,-4.0381,-3.9410,-2.7183,-1.0117,
6.851318,-0.5912,-0.8265,-0.1347,-8.5978,0.8961,-4.0381,-3.5360,-1.5912,0.5424,
6.852951,-0.2845,-0.4472,0.6711,-8.5978,0.8961,-4.0381,-3.5360,-1.5912,0.5424,
6.854491,-0.2845,-0.4472,0.6711,-5.6047,4.7951,4.5752,-3.5360,-1.5912,0.5424,
6.856398,-0.2845,-0.4472,0.6711,-5.6047,4.7951,4.5752,-1.5238,0.0233,1.8948,
6.861866,-0.2845,-0.4472,0.6711,-5.6047,4.7951,4.5752,-0.4860,0.6103,2.5277,
6.864981,0.4053,-0.8532,-0.7570,-5.6047,4.7951,4.5752,-0.4860,0.6103,2.5277,
6.866736,0.4053,-0.8532,-0.7570,1.6381,0.9924,-9.2139,-0.4860,0.6103,2.5277,
6.870952,0.4053,-0.8532,-0.7570,1.6381,0.9924,-9.2139,-1.1213,0.3684,2.5534,
6.881136,0.4053,-0.8532,-0.7570,1.6381,0.9924,-9.2139,-1.5110,0.4613,2.1899,
6.884752,0.8976,-1.1602,-0.4632,1.6381,0.9924,-9.2139,-1.5110,0.4613,2.1899,
6.886113,0.8976,-1.1602,-0.4632,6.8789,-1.8669,-6.0170,-1.5110,0.4613,2.1899,
6.890975,0.8976,-1.1602,-0.4632,6.8789,-1.8669,-6.0170,-1.6472,0.6122,1.5088,
6.900983,0.8976,-1.1602,-0.4632,6.8789,-1.8669,-6.0170,-1.1616,0.5621,0.5259,
6.904841,1.4205,-1.1155,0.5193,6.8789,-1.8669,-6.0170,-1.1616,0.5621,0.5259,
6.906173,1.4205,-1.1155,0.5193,12.0732,-1.3780,3.8732,-1.1616,0.5621,0.5259,
6.912693,1.4205,-1.1155,0.5193,12.0732,-1.3780,3.8732,-0.3418,0.1546,-0.5162,
6.921357,1.4205,-1.1155,0.5193,12.0732,-1.3780,3.8732,0.2391,-0.4098,-1.3702,
6.925043,1.2566,-0.9175,0.2783,12.0732,-1.3780,3.8732,0.2391,-0.4098,-1.3702,
6.926639,1.2566,-0.9175,0.2783,10.1095,0.4882,1.5250,0.2391,-0.4098,-1.3702,
6.931290,1.2566,-0.9175,0.2783,10.1095,0.4882,1.5250,0.4682,-0.9736,-1.9322,
6.941607,1.2566,-0.9175,0.2783,10.1095,0.4882,1.5250,0.4200,-1.2852,-2.1595,
6.946155,1.0203,-1.0406,0.2066,10.1095,0.4882,1.5250,0.4200,-1.2852,-2.1595,
6.949405,1.0203,-1.0406,0.2066,7.2198,-0.8749,0.7901,0.4200,-1.2852,-2.1595,
6.951383,1.0203,-1.0406,0.2066,7.2198,-0.8749,0.7901,0.2581,-1.1392,-1.9933,
6.963059,1.0203,-1.0406,0.2066,7.2198,-0.8749,0.7901,0.3161,-0.7439,-1.5492,
6.969283,0.8398,-0.8896,0.6775,7.2198,-0.8749,0.7901,0.3161,-0.7439,-1.5492,
6.972186,0.8398,-0.8896,0.6775,4.9572,0.4373,5.3620,0.3161,-0.7439,-1.5492,
6.974761,0.8398,-0.8896,0.6775,4.9572,0.4373,5.3620,0.6777,-0.1484,-1.1974,
6.981364,0.8398,-0.8896,0.6775,4.9572,0.4373,5.3620,1.2049,0.7032,-1.2303,
6.985212,0.7405,-0.5915,1.1328,4.9572,0.4373,5.3620,1.2049,0.7032,-1.2303,
6.987366,0.7405,-0.5915,1.1328,3.6506,3.1861,9.5268,1.2049,0.7032,-1.2303,
6.991079,0.7405,-0.5915,1.1328,3.6506,3.1861,9.5268,1.7150,1.6635,-1.5449,
7.000996,0.7405,-0.5915,1.1328,3.6506,3.1861,9.5268,2.1768,1.7026,-1.8107,
7.004810,-0.4310,-0.9646,1.1661,3.6506,3.1861,9.5268,2.1768,1.7026,-1.8107,
7.006212,-0.4310,-0.9646,1.1661,-8.0767,-0.7074,9.2302,2.1768,1.7026,-1.8107,
7.011817,-0.4310,-0.9646,1.1661,-8.0767,-0.7074,9.2302,2.5824,0.3434,-1.6824,
7.021042,-0.4310,-0.9646,1.1661,-8.0767,-0.7074,9.2302,2.4999,-0.3829,-1.1558,
7.024822,-1.0593,-0.9464,-0.3203,-8.0767,-0.7074,9.2302,2.4999,-0.3829,-1.1558,
7.026418,-1.0593,-0.9464,-0.3203,-14.3489,-0.7241,-5.8421,2.4999,-0.3829,-1.1558,
7.043140,-1.0593,-0.9464,-0.3203,-14.3489,-0.7241,-5.8421,1.7687,0.1394,-0.3177,
7.045331,-1.0593,-0.9464,-0.3203,-14.3489,-0.7241,-5.8421,0.6564,1.0734,0.7751,
7.047867,-0.7016,-0.7541,-1.0730,-14.3489,-0.7241,-5.8421,0.6564,1.0734,0.7751,
7.049867,-0.7016,-0.7541,-1.0730,-10.5668,1.2324,-13.3804,0.6564,1.0734,0.7751,
7.051991,-0.7016,-0.7541,-1.0730,-10.5668,1.2324,-13.3804,-0.5367,1.8180,2.2736,
7.066278,-0.7016,-0.7541,-1.0730,-10.5668,1.2324,-13.3804,-2.3619,2.1070,2.1783,
7.068806,-0.1301,-0.4981,-0.6251,-10.5668,1.2324,-13.3804,-2.3619,2.1070,2.1783,
7.071188,-0.1301,-0.4981,-0.6251,-4.2861,4.0899,-8.6970,-2.3619,2.1070,2.1783,
7.072582,-0.1301,-0.4981,-0.6251,-4.2861,4.0899,-8.6970,-2.6332,2.3641,1.7886,
7.089263,-0.1301,-0.4981,-0.6251,-4.2861,4.0899,-8.6970,-2.2917,2.5297,1.2021,
7.091614,0.2001,-0.4170,0.1650,-4.2861,4.0899,-8.6970,-2.2917,2.5297,1.2021,
7.093090,0.2001,-0.4170,0.1650,-0.5334,5.1539,-0.5172,-2.2917,2.5297,1.2021,
7.094995,0.2001,-0.4170,0.1650,-0.5334,5.1539,-0.5172,-1.5672,2.4362,0.5375,
7.101102,0.2001,-0.4170,0.1650,-0.5334,5.1539,-0.5172,-0.9020,2.0691,0.0482,
7.106065,0.0927,-0.7763,-0.0562,-0.5334,5.1539,-0.5172,-0.9020,2.0691,0.0482,
7.110277,0.0927,-0.7763,-0.0562,-1.3437,1.7459,-2.4508,-0.9020,2.0691,0.0482,
7.115140,0.0927,-0.7763,-0.0562,-1.3437,1.7459,-2.4508,-0.5617,1.5450,-0.1760,
7.122560,0.0927,-0.7763,-0.0562,-1.3437,1.7459,-2.4508,-0.4951,1.1314,-0.2267,
7.125814,0.0794,-1.0703,-0.0741,-1.3437,1.7459,-2.4508,-0.4951,1.1314,-0.2267,
7.128216,0.0794,-1.0703,-0.0741,-1.3824,-1.0858,-2.4823,-0.4951,1.1314,-0.2267,
7.132194,0.0794,-1.0703,-0.0741,-1.3824,-1.0858,-2.4823,-0.4420,0.9598,-0.2688,
7.140838,0.0794,-1.0703,-0.0741,-1.3824,-1.0858,-2.4823,-0.1017,1.0459,-0.3959,
7.145642,0.3776,-1.3541,0.8381,-1.3824,-1.0858,-2.4823,-0.1017,1.0459,-0.3959,
7.147751,0.3776,-1.3541,0.8381,1.5398,-3.8655,6.4635,-0.1017,1.0459,-0.3959,
7.151173,0.3776,-1.3541,0.8381,1.5398,-3.8655,6.4635,0.5146,1.4747,-0.5517,
7.162901,0.3776,-1.3541,0.8381,1.5398,-3.8655,6.4635,1.0125,2.1039,-0.5908,
7.166225,0.1783,-1.8520,0.6144,1.5398,-3.8655,6.4635,1.0125,2.1039,-0.5908,
7.168159,0.1783,-1.8520,0.6144,-0.4188,-8.7929,4.0376,1.0125,2.1039,-0.5908,
7.171336,0.1783,-1.8520,0.6144,-0.4188,-8.7929,4.0376,1.0656,2.4179,-0.4393,
7.181258,0.1783,-1.8520,0.6144,-0.4188,-8.7929,4.0376,0.6680,1.8730,-0.1601,
7.184949,-0.2877,-1.6992,0.5752,-0.4188,-8.7929,4.0376,0.6680,1.8730,-0.1601,
7.186759,-0.2877,-1.6992,0.5752,-4.8717,-7.3314,3.3812,0.6680,1.8730,-0.1601,
7.191229,-0.2877,-1.6992,0.5752,-4.8717,-7.3314,3.3812,-0.0394,0.0209,0.0702,
7.201207,-0.2877,-1.6992,0.5752,-4.8717,-7.3314,3.3812,-0.5904,-2.4385,0.3048,
7.205202,-0.3908,-1.0508,-0.3661,-4.8717,-7.3314,3.3812,-0.5904,-2.4385,0.3048,
7.207004,-0.3908,-1.0508,-0.3661,-5.7905,-0.9252,-5.7055,-0.5904,-2.4385,0.3048,
7.213521,-0.3908,-1.0508,-0.3661,-5.7905,-0.9252,-5.7055,-0.8867,-4.1147,1.0231,
7.221420,-0.3908,-1.0508,-0.3661,-5.7905,-0.9252,-5.7055,-0.9655,-4.6223,1.0231,
7.225236,-0.1517,-0.6403,-0.2736,-5.7905,-0.9252,-5.7055,-0.9655,-4.6223,1.0231,
7.227672,-0.1517,-0.6403,-0.2736,-3.3094,3.2049,-4.4065,-0.9655,-4.6223,1.0231,
7.232775,-0.1517,-0.6403,-0.2736,-3.3094,3.2049,-4.4065,-0.8842,-4.3303,1.2382,
7.241403,-0.1517,-0.6403,-0.2736,-3.3094,3.2049,-4.4065,-0.6320,-2.1960,0.7067,
7.247160,0.2786,-0.4435,-0.4195,-3.3094,3.2049,-4.4065,-0.6320,-2.1960,0.7067,
7.249937,0.2786,-0.4435,-0.4195,1.0578,5.2182,-5.4842,-0.6320,-2.1960,0.7067,
7.252331,0.2786,-0.4435,-0.4195,1.0578,5.2182,-5.4842,-0.6332,-0.8783,0.1783,
7.263294,0.2786,-0.4435,-0.4195,1.0578,5.2182,-5.4842,-0.6607,0.4650,-0.2267,
7.265509,0.3775,-0.8317,-0.5574,1.0578,5.2182,-5.4842,-0.6607,0.4650,-0.2267,
7.267411,0.3775,-0.8317,-0.5574,2.0365,1.4503,-6.5666,-0.6607,0.4650,-0.2267,
7.271255,0.3775,-0.8317,-0.5574,2.0365,1.4503,-6.5666,-0.6912,1.5737,-0.4619,
7.281182,0.3775,-0.8317,-0.5574,2.0365,1.4503,-6.5666,-0.6827,2.2640,-0.5401,
7.284997,0.5075,-1.1976,-0.6783,2.0365,1.4503,-6.5666,-0.6827,2.2640,-0.5401,
7.286791,0.5075,-1.1976,-0.6783,3.2393,-2.1236,-7.5170,-0.6827,2.2640,-0.5401,
7.291166,0.5075,-1.1976,-0.6783,3.2393,-2.1236,-7.5170,-0.5721,2.3189,-0.4710,
7.301192,0.5075,-1.1976,-0.6783,3.2393,-2.1236,-7.5170,-0.3687,1.7343,-0.2902,
7.305061,0.5960,-1.4222,-0.6115,3.2393,-2.1236,-7.5170,-0.3687,1.7343,-0.2902,
7.306880,0.5960,-1.4222,-0.6115,4.0285,-4.3242,-6.6746,-0.3687,1.7343,-0.2902,
7.312980,0.5960,-1.4222,-0.6115,4.0285,-4.3242,-6.6746,-0.1023,0.7484,-0.0306,
7.321144,0.5960,-1.4222,-0.6115,4.0285,-4.3242,-6.6746,0.1683,-0.2785,0.2144,
7.324965,0.6396,-1.3599,-0.4291,4.0285,-4.3242,-6.6746,0.1683,-0.2785,0.2144,
7.326723,0.6396,-1.3599,-0.4291,4.4192,-3.7118,-4.7478,0.1683,-0.2785,0.2144,
7.331562,0.6396,-1.3599,-0.4291,4.4192,-3.7118,-4.7478,0.3332,-1.1508,0.3720,
7.341163,0.6396,-1.3599,-0.4291,4.4192,-3.7118,-4.7478,0.3540,-1.7946,0.4269,
7.346766,0.5799,-1.1767,-0.3139,4.4192,-3.7118,-4.7478,0.3540,-1.7946,0.4269,
7.349381,0.5799,-1.1767,-0.3139,3.8239,-1.9118,-3.4922,0.3540,-1.7946,0.4269,
7.351749,0.5799,-1.1767,-0.3139,3.8239,-1.9118,-3.4922,0.2691,-2.1514,0.4129,
7.363125,0.5799,-1.1767,-0.3139,3.8239,-1.9118,-3.4922,0.1139,-2.2485,0.3652,
7.365149,0.3690,-1.0487,-0.1808,3.8239,-1.9118,-3.4922,0.1139,-2.2485,0.3652,
7.366213,0.3690,-1.0487,-0.1808,1.7481,-0.6534,-2.0248,0.1139,-2.2485,0.3652,
7.371057,0.3690,-1.0487,-0.1808,1.7481,-0.6534,-2.0248,-0.0779,-2.1868,0.2870,
7.381026,0.3690,-1.0487,-0.1808,1.7481,-0.6534,-2.0248,-0.2563,-2.0488,0.2046,
7.384790,0.2435,-0.9772,-0.0915,1.7481,-0.6534,-2.0248,-0.2563,-2.0488,0.2046,
7.386113,0.2435,-0.9772,-0.0915,0.5010,0.0469,-0.9449,-0.2563,-2.0488,0.2046,
7.391055,0.2435,-0.9772,-0.0915,0.5010,0.0469,-0.9449,-0.3791,-1.8887,0.1319,
7.400993,0.2435,-0.9772,-0.0915,0.5010,0.0469,-0.9449,-0.4175,-1.7580,0.0855,
7.404853,0.1322,-0.8324,-0.0253,0.5010,0.0469,-0.9449,-0.4175,-1.7580,0.0855,
7.406234,0.1322,-0.8324,-0.0253,-0.6073,1.4619,-0.0823,-0.4175,-1.7580,0.0855,
7.413393,0.1322,-0.8324,-0.0253,-0.6073,1.4619,-0.0823,-0.3626,-1.7122,0.0818,
7.421217,0.1322,-0.8324,-0.0253,-0.6073,1.4619,-0.0823,-0.2227,-2.0237,0.1533,
7.425084,0.0101,-0.6126,0.2681,-0.6073,1.4619,-0.0823,-0.2227,-2.0237,0.1533,
7.427055,0.0101,-0.6126,0.2681,-1.7817,3.6164,2.9287,-0.2227,-2.0237,0.1533,
7.431980,0.0101,-0.6126,0.2681,-1.7817,3.6164,2.9287,0.5739,-2.4990,0.2437,
7.441224,0.0101,-0.6126,0.2681,-1.7817,3.6164,2.9287,1.1805,-3.0561,0.3115,
7.446892,0.0311,-0.4634,0.3226,-1.7817,3.6164,2.9287,1.1805,-3.0561,0.3115,
7.449329,0.0311,-0.4634,0.3226,-1.5131,5.0922,3.3831,1.1805,-3.0561,0.3115,
7.451291,0.0311,-0.4634,0.3226,-1.5131,5.0922,3.3831,1.6631,-3.5387,0.2260,
7.464055,0.0311,-0.4634,0.3226,-1.5131,5.0922,3.3831,1.9422,-3.9027,-0.1070,
7.466902,0.3817,-0.4300,0.1496,-1.5131,5.0922,3.3831,1.9422,-3.9027,-0.1070,
7.469070,0.3817,-0.4300,0.1496,1.8914,5.4168,1.4391,1.9422,-3.9027,-0.1070,
7.471374,0.3817,-0.4300,0.1496,1.8914,5.4168,1.4391,2.0797,-4.1617,-0.6060,
7.481466,0.3817,-0.4300,0.1496,1.8914,5.4168,1.4391,2.2135,-4.3682,-1.0245,
7.485320,0.2706,-0.5828,0.3406,1.8914,5.4168,1.4391,2.2135,-4.3682,-1.0245,
7.487299,0.2706,-0.5828,0.3406,0.5786,3.8675,2.9944,2.2135,-4.3682,-1.0245,
7.491410,0.2706,-0.5828,0.3406,0.5786,3.8675,2.9944,2.4474,-4.4867,-1.2713,
7.501637,0.2706,-0.5828,0.3406,0.5786,3.8675,2.9944,2.8213,-4.4152,-1.3702,
7.505406,0.1148,-0.7207,0.6561,0.5786,3.8675,2.9944,2.8213,-4.4152,-1.3702,
7.507383,0.1148,-0.7207,0.6561,-1.2606,2.4178,5.6582,2.8213,-4.4152,-1.3702,
7.513954,0.1148,-0.7207,0.6561,-1.2606,2.4178,5.6582,3.2232,-4.2021,-1.3262,
7.521471,0.1148,-0.7207,0.6561,-1.2606,2.4178,5.6582,3.4608,-3.9602,-1.1711,
7.525215,0.0679,-0.7158,0.3781,-1.2606,2.4178,5.6582,3.4608,-3.9602,-1.1711,
7.527315,0.0679,-0.7158,0.3781,-2.0162,2.3272,2.4005,3.4608,-3.9602,-1.1711,
7.532627,0.0679,-0.7158,0.3781,-2.0162,2.3272,2.4005,3.4767,-3.7543,-0.9658,
7.541319,0.0679,-0.7158,0.3781,-2.0162,2.3272,2.4005,3.3191,-3.5704,-0.7600,
7.547381,0.2226,-0.6555,0.0355,-2.0162,2.3272,2.4005,3.3191,-3.5704,-0.7600,
7.550263,0.2226,-0.6555,0.0355,-0.7546,2.7631,-1.4284,3.3191,-3.5704,-0.7600,
7.552603,0.2226,-0.6555,0.0355,-0.7546,2.7631,-1.4284,3.0516,-3.3255,-0.5657,
7.564346,0.2226,-0.6555,0.0355,-0.7546,2.7631,-1.4284,2.6991,-3.0109,-0.3464,
7.567070,0.3871,-1.0072,-0.0665,-0.7546,2.7631,-1.4284,2.6991,-3.0109,-0.3464,
7.569919,0.3871,-1.0072,-0.0665,0.6550,-0.8208,-2.7557,2.6991,-3.0109,-0.3464,
7.571885,0.3871,-1.0072,-0.0665,0.6550,-0.8208,-2.7557,2.1957,-2.5594,-0.0972,
7.581590,0.3871,-1.0072,-0.0665,0.6550,-0.8208,-2.7557,1.5562,-1.9779,0.1698,
7.585261,0.4443,-1.3227,-0.1163,0.6550,-0.8208,-2.7557,1.5562,-1.9779,0.1698,
7.587509,0.4443,-1.3227,-0.1163,1.1290,-3.9768,-3.3830,1.5562,-1.9779,0.1698,
7.591447,0.4443,-1.3227,-0.1163,1.1290,-3.9768,-3.3830,0.9080,-1.6383,0.4233,
7.601500,0.4443,-1.3227,-0.1163,1.1290,-3.9768,-3.3830,0.3204,-1.6444,0.5986,
7.605162,0.2875,-1.1570,-0.1623,1.1290,-3.9768,-3.3830,0.3204,-1.6444,0.5986,
7.607334,0.2875,-1.1570,-0.1623,-0.3759,-2.3231,-3.7553,0.3204,-1.6444,0.5986,
7.613741,0.2875,-1.1570,-0.1623,-0.3759,-2.3231,-3.7553,-0.5263,-1.3976,0.8325,
7.621235,0.2875,-1.1570,-0.1623,-0.3759,-2.3231,-3.7553,-0.8629,-0.9736,0.9847,
7.625169,0.1255,-1.0063,-0.2639,-0.3759,-2.3231,-3.7553,-0.8629,-0.9736,0.9847,
7.627302,0.1255,-1.0063,-0.2639,-1.8251,-0.7310,-4.4488,-0.8629,-0.9736,0.9847,
7.631594,0.1255,-1.0063,-0.2639,-1.8251,-0.7310,-4.4488,-1.1659,-0.5387,1.1551,
7.641159,0.1255,-1.0063,-0.2639,-1.8251,-0.7310,-4.4488,-1.4041,-0.1960,1.3328,
7.647648,0.0843,-1.0491,-0.2259,-1.8251,-0.7310,-4.4488,-1.4041,-0.1960,1.3328,
7.650698,0.0843,-1.0491,-0.2259,-1.9805,-1.0049,-3.7149,-1.4041,-0.1960,1.3328,
7.652640,0.0843,-1.0491,-0.2259,-1.9805,-1.0049,-3.7149,-1.5666,0.0209,1.5167,
7.664696,0.0843,-1.0491,-0.2259,-1.9805,-1.0049,-3.7149,-1.6735,0.0862,1.7122,
7.667716,0.0855,-1.3075,-0.1264,-1.9805,-1.0049,-3.7149,-1.6735,0.0862,1.7122,
7.669764,0.0855,-1.3075,-0.1264,-1.6274,-3.3876,-2.3523,-1.6735,0.0862,1.7122,
7.672257,0.0855,-1.3075,-0.1264,-1.6274,-3.3876,-2.3523,-1.7138,-0.0079,1.9016,
7.681519,0.0855,-1.3075,-0.1264,-1.6274,-3.3876,-2.3523,-1.6307,-0.2986,2.0457,
7.685613,0.1309,-1.6108,0.1528,-1.6274,-3.3876,-2.3523,-1.6307,-0.2986,2.0457,
7.687890,0.1309,-1.6108,0.1528,-0.7841,-6.2296,0.7441,-1.6307,-0.2986,2.0457,
7.691410,0.1309,-1.6108,0.1528,-0.7841,-6.2296,0.7441,-1.3448,-0.7873,2.0995,
7.701466,0.1309,-1.6108,0.1528,-0.7841,-6.2296,0.7441,-0.8195,-1.4269,2.0567,
7.705149,0.1208,-1.7369,0.5107,-0.7841,-6.2296,0.7441,-0.8195,-1.4269,2.0567,
7.707240,0.1208,-1.7369,0.5107,-0.4857,-7.3716,4.4955,-0.8195,-1.4269,2.0567,
7.711476,0.1208,-1.7369,0.5107,-0.4857,-7.3716,4.4955,-0.2667,-2.0353,1.9113,
7.721219,0.1208,-1.7369,0.5107,-0.4857,-7.3716,4.4955,-0.1188,-2.4452,1.5870,
7.725114,0.3067,-1.6237,-0.4705,-0.4857,-7.3716,4.4955,-0.1188,-2.4452,1.5870,
7.727170,0.3067,-1.6237,-0.4705,1.6547,-6.2069,-5.0098,-0.1188,-2.4452,1.5870,
7.732035,0.3067,-1.6237,-0.4705,1.6547,-6.2069,-5.0098,-0.6417,-2.7873,1.0781,
7.741348,0.3067,-1.6237,-0.4705,1.6547,-6.2069,-5.0098,-1.6368,-3.1654,0.5986,
7.747069,0.0436,-1.4414,-0.3265,1.6547,-6.2069,-5.0098,-1.6368,-3.1654,0.5986,
7.749766,0.0436,-1.4414,-0.3265,-0.7748,-4.3935,-3.2905,-1.6368,-3.1654,0.5986,
7.752091,0.0436,-1.4414,-0.3265,-0.7748,-4.3935,-3.2905,-2.4975,-2.9999,0.4288,
7.761787,0.0436,-1.4414,-0.3265,-0.7748,-4.3935,-3.2905,-2.9404,-2.3291,0.6249,
7.766564,-0.0663,-1.1146,-0.3170,-0.7748,-4.3935,-3.2905,-2.9404,-2.3291,0.6249,
7.769356,-0.0663,-1.1146,-0.3170,-1.7305,-1.1904,-2.5884,-2.9404,-2.3291,0.6249,
7.771455,-0.0663,-1.1146,-0.3170,-1.7305,-1.1904,-2.5884,-3.1701,-1.6132,0.9883,
7.781363,-0.0663,-1.1146,-0.3170,-1.7305,-1.1904,-2.5884,-3.2892,-1.0402,1.3237,
7.785114,0.2196,-1.0105,-0.2000,-1.7305,-1.1904,-2.5884,-3.2892,-1.0402,1.3237,
7.787078,0.2196,-1.0105,-0.2000,1.3180,-0.2025,-0.7826,-3.2892,-1.0402,1.3237,
7.791136,0.2196,-1.0105,-0.2000,1.3180,-0.2025,-0.7826,-3.0595,-0.3047,1.3689,
7.800964,0.2196,-1.0105,-0.2000,1.3180,-0.2025,-0.7826,-2.7297,-0.3481,0.9474,
7.804900,0.5348,-1.0480,-0.0542,1.3180,-0.2025,-0.7826,-2.7297,-0.3481,0.9474,
7.806308,0.5348,-1.0480,-0.0542,4.5944,-0.6369,1.1880,-2.7297,-0.3481,0.9474,
7.811266,0.5348,-1.0480,-0.0542,4.5944,-0.6369,1.1880,-2.1933,-0.6370,0.4275,
7.821038,0.5348,-1.0480,-0.0542,4.5944,-0.6369,1.1880,-0.6680,-2.2510,-0.1241,
