
time,gFx,gFy,gFz,ax,ay,az,wx,wy,wz,
0.066014,-0.0418,0.4073,0.9433,0.0000,0.0000,0.0000,0.0000,0.0000,0.0000,
0.066374,-0.0283,0.4038,0.8702,0.0000,0.0000,0.0000,0.0000,0.0000,0.0000,
0.066683,-0.0443,0.4025,0.8360,0.0000,0.0000,0.0000,0.0000,0.0000,0.0000,
0.098117,-0.0766,0.3556,0.8148,0.0000,0.0000,0.0000,0.0000,0.0000,0.0000,
0.099102,-0.1173,0.3082,0.8480,0.0000,0.0000,0.0000,0.0000,0.0000,0.0000,
0.099962,-0.1173,0.3082,0.8480,0.1147,-0.3015,-0.8297,0.0000,0.0000,0.0000,
0.111846,-0.1462,0.3130,0.8810,0.1147,-0.3015,-0.8297,0.0000,0.0000,0.0000,
0.113117,-0.1462,0.3130,0.8810,0.0824,-0.1763,-0.4964,0.0000,0.0000,0.0000,
0.131775,-0.1462,0.3130,0.8810,0.0824,-0.1763,-0.4964,0.0577,-0.5857,-0.4216,
0.133666,-0.1426,0.3348,0.8827,0.0824,-0.1763,-0.4964,0.0577,-0.5857,-0.4216,
0.134937,-0.1426,0.3348,0.8827,0.0672,-0.1578,-0.4161,0.0577,-0.5857,-0.4216,
0.141815,-0.1426,0.3348,0.8827,0.0672,-0.1578,-0.4161,0.1316,-0.5137,-0.3623,
0.153402,-0.1426,0.3348,0.8827,0.0672,-0.1578,-0.4161,0.2104,-0.3469,-0.3428,
0.154686,-0.0524,0.3524,0.9069,0.0672,-0.1578,-0.4161,0.2104,-0.3469,-0.3428,
0.155812,-0.0524,0.3524,0.9069,0.0139,-0.0933,-0.2402,0.2104,-0.3469,-0.3428,
0.161761,-0.0524,0.3524,0.9069,0.0139,-0.0933,-0.2402,0.2245,-0.3823,-0.3654,
0.171532,-0.0524,0.3524,0.9069,0.0139,-0.0933,-0.2402,0.1298,-0.6438,-0.3837,
0.172866,-0.0116,0.3626,0.8471,0.0139,-0.0933,-0.2402,0.1298,-0.6438,-0.3837,
0.174144,-0.0116,0.3626,0.8471,0.0098,-0.3052,-0.7131,0.1298,-0.6438,-0.3837,
0.181553,-0.0116,0.3626,0.8471,0.0098,-0.3052,-0.7131,-0.0315,-0.8246,-0.3867,
0.191486,-0.0116,0.3626,0.8471,0.0098,-0.3052,-0.7131,-0.2862,-0.5949,-0.4338,
0.192835,0.1632,0.3240,1.1829,0.0098,-0.3052,-0.7131,-0.2862,-0.5949,-0.4338,
0.193799,0.1632,0.3240,1.1829,0.3059,0.6071,2.2170,-0.2862,-0.5949,-0.4338,
0.203362,0.1632,0.3240,1.1829,0.3059,0.6071,2.2170,-0.2306,-0.1459,-0.5596,
0.211727,0.1632,0.3240,1.1829,0.3059,0.6071,2.2170,-0.1335,0.1583,-0.6720,
0.212915,0.0855,0.3209,1.1771,0.3059,0.6071,2.2170,-0.1335,0.1583,-0.6720,
0.214166,0.0855,0.3209,1.1771,0.1523,0.5717,2.0971,-0.1335,0.1583,-0.6720,
0.221608,0.0855,0.3209,1.1771,0.1523,0.5717,2.0971,-0.0895,0.2542,-0.7490,
0.231589,0.0855,0.3209,1.1771,0.1523,0.5717,2.0971,-0.1170,0.2359,-0.7716,
0.232748,-0.0070,0.4164,1.0067,0.1523,0.5717,2.0971,-0.1170,0.2359,-0.7716,
0.233698,-0.0070,0.4164,1.0067,-0.0056,0.3324,0.8036,-0.1170,0.2359,-0.7716,
0.241448,-0.0070,0.4164,1.0067,-0.0056,0.3324,0.8036,-0.1909,0.1278,-0.7429,
0.251810,-0.0070,0.4164,1.0067,-0.0056,0.3324,0.8036,-0.2880,-0.0421,-0.6867,
0.253047,-0.0390,0.4014,0.9105,-0.0056,0.3324,0.8036,-0.2880,-0.0421,-0.6867,
0.253985,-0.0390,0.4014,0.9105,0.0019,-0.0191,-0.0433,-0.2880,-0.0421,-0.6867,
0.261430,-0.0390,0.4014,0.9105,0.0019,-0.0191,-0.0433,-0.3742,-0.2522,-0.6256,
0.271621,-0.0390,0.4014,0.9105,0.0019,-0.0191,-0.0433,-0.4353,-0.4617,-0.5926,
0.273127,-0.0148,0.3557,0.8618,0.0019,-0.0191,-0.0433,-0.4353,-0.4617,-0.5926,
0.274192,-0.0148,0.3557,0.8618,0.0106,-0.2552,-0.6181,-0.4353,-0.4617,-0.5926,
0.281543,-0.0148,0.3557,0.8618,0.0106,-0.2552,-0.6181,-0.4737,-0.6639,-0.5908,
0.291497,-0.0148,0.3557,0.8618,0.0106,-0.2552,-0.6181,-0.4927,-0.8319,-0.6012,
0.292821,-0.0445,0.3243,0.8972,0.0106,-0.2552,-0.6181,-0.4927,-0.8319,-0.6012,
0.293550,-0.0445,0.3243,0.8972,0.0208,-0.1518,-0.4199,-0.4927,-0.8319,-0.6012,
0.301940,-0.0445,0.3243,0.8972,0.0208,-0.1518,-0.4199,-0.4921,-0.9125,-0.5902,
0.311976,-0.0445,0.3243,0.8972,0.0208,-0.1518,-0.4199,-0.4585,-0.8930,-0.5645,
0.315152,-0.0225,0.2780,1.0691,0.0208,-0.1518,-0.4199,-0.4585,-0.8930,-0.5645,
0.316929,-0.0225,0.2780,1.0691,-0.0208,0.2569,0.9880,-0.4585,-0.8930,-0.5645,
0.321410,-0.0225,0.2780,1.0691,-0.0208,0.2569,0.9880,-0.3742,-0.7904,-0.5346,
0.331552,-0.0225,0.2780,1.0691,-0.0208,0.2569,0.9880,-0.2465,-0.4965,-0.4888,
0.333292,0.0261,0.2272,1.2997,-0.0208,0.2569,0.9880,-0.2465,-0.4965,-0.4888,
0.335302,0.0261,0.2272,1.2997,0.0619,0.5382,3.0789,-0.2465,-0.4965,-0.4888,
0.342560,0.0261,0.2272,1.2997,0.0619,0.5382,3.0789,-0.1317,-0.0024,-0.4191,
0.351530,0.0261,0.2272,1.2997,0.0619,0.5382,3.0789,-0.0748,0.4424,-0.3434,
0.352610,0.0691,0.2574,1.2015,0.0619,0.5382,3.0789,-0.0748,0.4424,-0.3434,
0.353438,0.0691,0.2574,1.2015,0.1266,0.4714,2.2007,-0.0748,0.4424,-0.3434,
0.361299,0.0691,0.2574,1.2015,0.1266,0.4714,2.2007,-0.0810,0.7007,-0.2896,
0.371389,0.0691,0.2574,1.2015,0.1266,0.4714,2.2007,-0.1268,0.7496,-0.2652,
0.373424,0.0213,0.3726,1.0621,0.1266,0.4714,2.2007,-0.1268,0.7496,-0.2652,
0.374264,0.0213,0.3726,1.0621,0.0231,0.4057,1.1566,-0.1268,0.7496,-0.2652,
0.381179,0.0213,0.3726,1.0621,0.0231,0.4057,1.1566,-0.1634,0.3074,-0.2469,
0.391339,0.0213,0.3726,1.0621,0.0231,0.4057,1.1566,-0.1317,-0.0262,-0.2420,
0.392151,-0.0105,0.3404,1.0334,0.0231,0.4057,1.1566,-0.1317,-0.0262,-0.2420,
0.393096,-0.0105,0.3404,1.0334,-0.0083,0.2680,0.8137,-0.1317,-0.0262,-0.2420,
0.401266,-0.0105,0.3404,1.0334,-0.0083,0.2680,0.8137,-0.1439,-0.4269,-0.2316,
0.411234,-0.0105,0.3404,1.0334,-0.0083,0.2680,0.8137,-0.3381,-0.8899,-0.2285,
0.412157,0.0139,0.2939,0.8666,-0.0083,0.2680,0.8137,-0.3381,-0.8899,-0.2285,
0.412839,0.0139,0.2939,0.8666,-0.0128,-0.2692,-0.7937,-0.3381,-0.8899,-0.2285,
0.421800,0.0139,0.2939,0.8666,-0.0128,-0.2692,-0.7937,-0.6045,-1.3224,-0.1961,
0.431256,0.0139,0.2939,0.8666,-0.0128,-0.2692,-0.7937,-0.8189,-1.6175,-0.1393,
0.432322,0.0437,0.2806,0.8844,-0.0128,-0.2692,-0.7937,-0.8189,-1.6175,-0.1393,
0.432996,0.0437,0.2806,0.8844,-0.0331,-0.2127,-0.6701,-0.8189,-1.6175,-0.1393,
0.441343,0.0437,0.2806,0.8844,-0.0331,-0.2127,-0.6701,-0.9545,-1.8105,-0.0972,
0.451538,0.0437,0.2806,0.8844,-0.0331,-0.2127,-0.6701,-1.0137,-1.8716,-0.0880,
0.452979,0.1352,0.2687,0.9102,-0.0331,-0.2127,-0.6701,-1.0137,-1.8716,-0.0880,
0.454415,0.1352,0.2687,0.9102,-0.0582,-0.1156,-0.3916,-1.0137,-1.8716,-0.0880,
0.463463,0.1352,0.2687,0.9102,-0.0582,-0.1156,-0.3916,-1.0229,-1.7726,-0.0868,
0.471451,0.1352,0.2687,0.9102,-0.0582,-0.1156,-0.3916,-0.9973,-1.5943,-0.0813,
0.474174,0.2011,0.2320,0.8945,-0.0582,-0.1156,-0.3916,-0.9973,-1.5943,-0.0813,
0.475433,0.2011,0.2320,0.8945,-0.1145,-0.1321,-0.5093,-0.9973,-1.5943,-0.0813,
0.481393,0.2011,0.2320,0.8945,-0.1145,-0.1321,-0.5093,-0.9521,-1.4660,-0.0844,
0.491242,0.2011,0.2320,0.8945,-0.1145,-0.1321,-0.5093,-0.8971,-1.4312,-0.0966,
0.492214,0.1943,0.1965,0.8725,-0.1145,-0.1321,-0.5093,-0.8971,-1.4312,-0.0966,
0.492897,0.1943,0.1965,0.8725,-0.1777,-0.1797,-0.7979,-0.8971,-1.4312,-0.0966,
0.501193,0.1943,0.1965,0.8725,-0.1777,-0.1797,-0.7979,-0.8342,-1.4587,-0.0837,
0.511245,0.1943,0.1965,0.8725,-0.1777,-0.1797,-0.7979,-0.7749,-1.5142,-0.0184,
0.512259,0.2101,0.1799,0.7487,-0.1777,-0.1797,-0.7979,-0.7749,-1.5142,-0.0184,
0.513075,0.2101,0.1799,0.7487,-0.5225,-0.4474,-1.8618,-0.7749,-1.5142,-0.0184,
0.521314,0.2101,0.1799,0.7487,-0.5225,-0.4474,-1.8618,-0.7260,-1.5216,0.0836,
0.531363,0.2101,0.1799,0.7487,-0.5225,-0.4474,-1.8618,-0.6375,-1.3438,0.1783,
0.532597,0.3375,0.1444,0.8768,-0.5225,-0.4474,-1.8618,-0.6375,-1.3438,0.1783,
0.533732,0.3375,0.1444,0.8768,-0.1744,-0.0746,-0.4531,-0.6375,-1.3438,0.1783,
0.541212,0.3375,0.1444,0.8768,-0.1744,-0.0746,-0.4531,-0.4835,-0.9578,0.2327,
0.551222,0.3375,0.1444,0.8768,-0.1744,-0.0746,-0.4531,-0.2880,-0.5466,0.2363,
0.552369,0.1796,0.1698,0.9861,-0.1744,-0.0746,-0.4531,-0.2880,-0.5466,0.2363,
0.553396,0.1796,0.1698,0.9861,0.0276,0.0261,0.1517,-0.2880,-0.5466,0.2363,
0.561228,0.1796,0.1698,0.9861,0.0276,0.0261,0.1517,0.3369,0.5040,0.0054,
0.571319,0.1796,0.1698,0.9861,0.0276,0.0261,0.1517,0.7804,0.4094,-0.2701,
0.572451,0.2058,0.1167,1.0190,0.0276,0.0261,0.1517,0.7804,0.4094,-0.2701,
0.573461,0.2058,0.1167,1.0190,0.0876,0.0497,0.4337,0.7804,0.4094,-0.2701,
0.581362,0.2058,0.1167,1.0190,0.0876,0.0497,0.4337,1.1432,-0.2009,-0.3489,
0.591327,0.2058,0.1167,1.0190,0.0876,0.0497,0.4337,1.4377,-0.4196,-0.2560,
0.592843,0.2033,0.1551,0.9979,0.0876,0.0497,0.4337,1.4377,-0.4196,-0.2560,
0.593967,0.2033,0.1551,0.9979,0.0569,0.0434,0.2794,1.4377,-0.4196,-0.2560,
0.601619,0.2033,0.1551,0.9979,0.0569,0.0434,0.2794,1.6386,-0.4520,-0.1937,
0.611274,0.2033,0.1551,0.9979,0.0569,0.0434,0.2794,1.7358,-0.4043,-0.2523,
0.612615,0.2400,0.2397,0.8337,0.0569,0.0434,0.2794,1.7358,-0.4043,-0.2523,
0.613295,0.2400,0.2397,0.8337,-0.2630,-0.2626,-0.9134,1.7358,-0.4043,-0.2523,
0.621280,0.2400,0.2397,0.8337,-0.2630,-0.2626,-0.9134,1.7223,-0.3689,-0.3562,
0.631237,0.2400,0.2397,0.8337,-0.2630,-0.2626,-0.9134,1.6350,-0.3389,-0.4161,
0.632628,0.1505,0.2886,0.7384,-0.2630,-0.2626,-0.9134,1.6350,-0.3389,-0.4161,
0.633589,0.1505,0.2886,0.7384,-0.3540,-0.6790,-1.7369,1.6350,-0.3389,-0.4161,
0.641257,0.1505,0.2886,0.7384,-0.3540,-0.6790,-1.7369,1.5195,-0.4116,-0.4234,
0.651249,0.1505,0.2886,0.7384,-0.3540,-0.6790,-1.7369,1.4322,-0.5534,-0.4539,
0.653033,0.1652,0.2417,0.7080,-0.3540,-0.6790,-1.7369,1.4322,-0.5534,-0.4539,
0.654353,0.1652,0.2417,0.7080,-0.4955,-0.7252,-2.1240,1.4322,-0.5534,-0.4539,
0.661265,0.1652,0.2417,0.7080,-0.4955,-0.7252,-2.1240,1.3637,-0.6102,-0.5443,
0.671303,0.1652,0.2417,0.7080,-0.4955,-0.7252,-2.1240,1.3179,-0.5625,-0.7581,
0.672726,0.2681,0.2608,0.7852,-0.4955,-0.7252,-2.1240,1.3179,-0.5625,-0.7581,
0.673682,0.2681,0.2608,0.7852,-0.3956,-0.3848,-1.1585,1.3179,-0.5625,-0.7581,
0.681303,0.2681,0.2608,0.7852,-0.3956,-0.3848,-1.1585,1.2727,-0.4856,-1.0880,
0.691611,0.2681,0.2608,0.7852,-0.3956,-0.3848,-1.1585,0.8891,0.0416,-1.2273,
0.692562,0.1953,0.2209,0.6436,-0.3956,-0.3848,-1.1585,0.8891,0.0416,-1.2273,
0.693194,0.1953,0.2209,0.6436,-0.7915,-0.8950,-2.6082,0.8891,0.0416,-1.2273,
0.701315,0.1953,0.2209,0.6436,-0.7915,-0.8950,-2.6082,0.1603,0.2823,-1.0624,
0.711419,0.1953,0.2209,0.6436,-0.7915,-0.8950,-2.6082,-0.5299,0.0282,-0.9897,
0.712504,0.0026,0.3208,0.5283,-0.7915,-0.8950,-2.6082,-0.5299,0.0282,-0.9897,
0.713189,0.0026,0.3208,0.5283,-0.0156,-1.9460,-3.2050,-0.5299,0.0282,-0.9897,
0.721174,0.0026,0.3208,0.5283,-0.0156,-1.9460,-3.2050,-1.1298,-0.1765,-0.8443,
0.731358,0.0026,0.3208,0.5283,-0.0156,-1.9460,-3.2050,-1.4884,-0.3951,-0.5468,
0.732224,-0.2211,0.1744,0.7720,-0.0156,-1.9460,-3.2050,-1.4884,-0.3951,-0.5468,
0.732838,-0.2211,0.1744,0.7720,0.4717,-0.3722,-1.6471,-1.4884,-0.3951,-0.5468,
0.741219,-0.2211,0.1744,0.7720,0.4717,-0.3722,-1.6471,-1.7138,-0.3560,-0.1723,
0.751427,-0.2211,0.1744,0.7720,0.4717,-0.3722,-1.6471,-1.9245,-0.6352,0.3897,
0.752382,-0.2805,-0.1871,0.6233,0.4717,-0.3722,-1.6471,-1.9245,-0.6352,0.3897,
0.753318,-0.2805,-0.1871,0.6233,1.1324,0.7556,-2.5169,-1.9245,-0.6352,0.3897,
0.761368,-0.2805,-0.1871,0.6233,1.1324,0.7556,-2.5169,-1.8934,-1.1508,0.5693,
0.771446,-0.2805,-0.1871,0.6233,1.1324,0.7556,-2.5169,-1.6857,-1.7238,0.8668,
0.772580,-0.5151,-0.4220,0.6773,1.1324,0.7556,-2.5169,-1.6857,-1.7238,0.8668,
0.773367,-0.5151,-0.4220,0.6773,0.2700,0.2212,-0.3551,-1.6857,-1.7238,0.8668,
0.781438,-0.5151,-0.4220,0.6773,0.2700,0.2212,-0.3551,-1.3803,-2.1648,1.3365,
0.791168,-0.5151,-0.4220,0.6773,0.2700,0.2212,-0.3551,-1.1378,-2.4141,1.9010,
0.792167,-0.3994,-0.6574,0.6326,0.2700,0.2212,-0.3551,-1.1378,-2.4141,1.9010,
0.792896,-0.3994,-0.6574,0.6326,0.0184,0.0304,-0.0292,-1.1378,-2.4141,1.9010,
0.801156,-0.3994,-0.6574,0.6326,0.0184,0.0304,-0.0292,-1.1255,-2.4690,2.3811,
0.811305,-0.3994,-0.6574,0.6326,0.0184,0.0304,-0.0292,-1.4102,-2.4812,2.6450,
0.812304,0.1029,-0.6446,0.4338,0.0184,0.0304,-0.0292,-1.4102,-2.4812,2.6450,
0.812949,0.1029,-0.6446,0.4338,-0.2790,1.7486,-1.1767,-1.4102,-2.4812,2.6450,
0.821409,0.1029,-0.6446,0.4338,-0.2790,1.7486,-1.1767,-1.9233,-2.5827,2.7201,
0.831360,0.1029,-0.6446,0.4338,-0.2790,1.7486,-1.1767,-2.4646,-2.6859,2.7751,
0.832371,0.3233,-0.6265,0.5654,-0.2790,1.7486,-1.1767,-2.4646,-2.6859,2.7751,
0.833405,0.3233,-0.6265,0.5654,-0.3398,0.6583,-0.5941,-2.4646,-2.6859,2.7751,
0.841741,0.3233,-0.6265,0.5654,-0.3398,0.6583,-0.5941,-2.8463,-2.6969,2.9113,
0.852218,0.3233,-0.6265,0.5654,-0.3398,0.6583,-0.5941,-3.0357,-2.7891,3.0873,
0.854014,0.5261,-0.6759,0.8264,-0.3398,0.6583,-0.5941,-3.0357,-2.7891,3.0873,
0.855607,0.5261,-0.6759,0.8264,0.8209,-1.0545,1.2893,-3.0357,-2.7891,3.0873,
0.861994,0.5261,-0.6759,0.8264,0.8209,-1.0545,1.2893,-3.0919,-3.0158,3.2290,
0.871833,0.5261,-0.6759,0.8264,0.8209,-1.0545,1.2893,-3.0516,-3.2161,3.3377,
0.873708,0.8163,-0.6969,0.9732,0.8209,-1.0545,1.2893,-3.0516,-3.2161,3.3377,
0.874962,0.8163,-0.6969,0.9732,2.4747,-2.1126,2.9502,-3.0516,-3.2161,3.3377,
0.881951,0.8163,-0.6969,0.9732,2.4747,-2.1126,2.9502,-2.9887,-3.4476,3.4379,
0.891983,0.8163,-0.6969,0.9732,2.4747,-2.1126,2.9502,-2.9905,-3.6889,3.5472,
0.893872,0.9926,-0.6952,0.9489,2.4747,-2.1126,2.9502,-2.9905,-3.6889,3.5472,
0.895406,0.9926,-0.6952,0.9489,3.4032,-2.3834,3.2532,-2.9905,-3.6889,3.5472,
0.902184,0.9926,-0.6952,0.9489,3.4032,-2.3834,3.2532,-3.0950,-3.7854,3.6725,
0.912116,0.9926,-0.6952,0.9489,3.4032,-2.3834,3.2532,-3.3069,-3.6902,3.7494,
0.914476,1.3008,-0.7389,0.8011,3.4032,-2.3834,3.2532,-3.3069,-3.6902,3.7494,
0.916266,1.3008,-0.7389,0.8011,5.2308,-2.9713,3.2213,-3.3069,-3.6902,3.7494,
0.922348,1.3008,-0.7389,0.8011,5.2308,-2.9713,3.2213,-3.6228,-3.5069,3.7012,
0.932199,1.3008,-0.7389,0.8011,5.2308,-2.9713,3.2213,-4.1206,-2.6951,3.2436,
0.934574,1.7696,-0.6157,1.0184,5.2308,-2.9713,3.2213,-4.1206,-2.6951,3.2436,
0.936590,1.7696,-0.6157,1.0184,9.2046,-3.2023,5.2971,-4.1206,-2.6951,3.2436,
0.942055,1.7696,-0.6157,1.0184,9.2046,-3.2023,5.2971,-4.1567,-1.9877,2.8221,
0.952575,1.7696,-0.6157,1.0184,9.2046,-3.2023,5.2971,-4.1053,-1.2143,2.2516,
0.954863,1.8686,-0.2372,1.1817,9.2046,-3.2023,5.2971,-4.1053,-1.2143,2.2516,
0.956779,1.8686,-0.2372,1.1817,10.0711,-1.2786,6.3691,-4.1053,-1.2143,2.2516,
0.962520,1.8686,-0.2372,1.1817,10.0711,-1.2786,6.3691,-3.9838,-0.5552,1.6450,
0.972462,1.8686,-0.2372,1.1817,10.0711,-1.2786,6.3691,-3.7859,0.0276,1.1416,
0.974809,1.6282,-0.0787,1.3244,10.0711,-1.2786,6.3691,-3.7859,0.0276,1.1416,
0.976839,1.6282,-0.0787,1.3244,8.3538,-0.4036,6.7951,-3.7859,0.0276,1.1416,
0.982070,1.6282,-0.0787,1.3244,8.3538,-0.4036,6.7951,-3.5311,0.3917,0.7892,
0.992254,1.6282,-0.0787,1.3244,8.3538,-0.4036,6.7951,-3.2489,0.4741,0.5693,
0.994598,1.5338,-0.0366,1.2838,8.3538,-0.4036,6.7951,-3.2489,0.4741,0.5693,
0.996342,1.5338,-0.0366,1.2838,7.5121,-0.1795,6.2880,-3.2489,0.4741,0.5693,
1.002340,1.5338,-0.0366,1.2838,7.5121,-0.1795,6.2880,-2.9820,0.3971,0.4782,
1.012360,1.5338,-0.0366,1.2838,7.5121,-0.1795,6.2880,-2.7706,0.1388,0.4935,
1.014683,1.4927,0.0666,1.1499,7.5121,-0.1795,6.2880,-2.7706,0.1388,0.4935,
1.016349,1.4927,0.0666,1.1499,6.8647,0.3062,5.2884,-2.7706,0.1388,0.4935,
1.022791,1.4927,0.0666,1.1499,6.8647,0.3062,5.2884,-2.6307,-0.3157,0.5216,
1.032608,1.4927,0.0666,1.1499,6.8647,0.3062,5.2884,-2.5256,-0.8008,0.5051,
1.034845,1.5822,0.0842,1.0367,6.8647,0.3062,5.2884,-2.5256,-0.8008,0.5051,
1.036585,1.5822,0.0842,1.0367,7.3114,0.3889,4.7906,-2.5256,-0.8008,0.5051,
1.042502,1.5822,0.0842,1.0367,7.3114,0.3889,4.7906,-2.4261,-1.2778,0.4544,
1.052652,1.5822,0.0842,1.0367,7.3114,0.3889,4.7906,-2.3314,-1.7678,0.3683,
1.054919,1.5366,0.0546,0.9816,7.3114,0.3889,4.7906,-2.3314,-1.7678,0.3683,
1.056620,1.5366,0.0546,0.9816,6.7978,0.2416,4.3427,-2.3314,-1.7678,0.3683,
1.062354,1.5366,0.0546,0.9816,6.7978,0.2416,4.3427,-2.2385,-2.2216,0.2473,
1.072778,1.5366,0.0546,0.9816,6.7978,0.2416,4.3427,-2.1310,-2.6627,0.1246,
1.075239,1.2794,0.0287,0.9043,6.7978,0.2416,4.3427,-2.1310,-2.6627,0.1246,
1.077549,1.2794,0.0287,0.9043,4.5315,0.1017,3.2029,-2.1310,-2.6627,0.1246,
1.082088,1.2794,0.0287,0.9043,4.5315,0.1017,3.2029,-2.0064,-3.0347,0.0629,
1.092262,1.2794,0.0287,0.9043,4.5315,0.1017,3.2029,-1.8250,-3.1538,0.0427,
1.094641,0.9966,0.0628,1.0008,4.5315,0.1017,3.2029,-1.8250,-3.1538,0.0427,
1.096324,0.9966,0.0628,1.0008,1.4242,0.6525,4.6537,-1.8250,-3.1538,0.0427,
1.102293,0.9966,0.0628,1.0008,1.4242,0.6525,4.6537,-1.5538,-3.0402,0.0024,
1.112448,0.9966,0.0628,1.0008,1.4242,0.6525,4.6537,-1.2208,-2.4275,-0.2768,
1.115141,0.6558,0.0155,1.0657,1.4242,0.6525,4.6537,-1.2208,-2.4275,-0.2768,
1.117041,0.6558,0.0155,1.0657,-2.1526,0.2919,5.6961,-1.2208,-2.4275,-0.2768,
1.123153,0.6558,0.0155,1.0657,-2.1526,0.2919,5.6961,-0.5751,-2.0420,-0.4112,
1.132064,0.6558,0.0155,1.0657,-2.1526,0.2919,5.6961,-0.2990,-1.4703,-0.5370,
1.134315,0.5769,-0.0836,1.0103,-2.1526,0.2919,5.6961,-0.2990,-1.4703,-0.5370,
1.136316,0.5769,-0.0836,1.0103,-3.0267,-0.7247,5.3396,-0.2990,-1.4703,-0.5370,
1.142292,0.5769,-0.0836,1.0103,-3.0267,-0.7247,5.3396,-0.0681,-0.8563,-0.6775,
1.152350,0.5769,-0.0836,1.0103,-3.0267,-0.7247,5.3396,0.0937,-0.2956,-0.7765,
1.154544,0.4598,-0.2397,0.9350,-3.0267,-0.7247,5.3396,0.0937,-0.2956,-0.7765,
1.156378,0.4598,-0.2397,0.9350,-4.1535,-2.3602,4.5598,0.0937,-0.2956,-0.7765,
1.162182,0.4598,-0.2397,0.9350,-4.1535,-2.3602,4.5598,0.2153,0.3092,-0.7826,
1.173040,0.4598,-0.2397,0.9350,-4.1535,-2.3602,4.5598,0.3247,0.9561,-0.7526,
1.175475,0.4791,-0.3191,0.9262,-4.1535,-2.3602,4.5598,0.3247,0.9561,-0.7526,
1.177545,0.4791,-0.3191,0.9262,-3.8231,-3.2445,4.2186,0.3247,0.9561,-0.7526,
1.182027,0.4791,-0.3191,0.9262,-3.8231,-3.2445,4.2186,0.4022,1.4191,-0.7600,
1.192210,0.4791,-0.3191,0.9262,-3.8231,-3.2445,4.2186,0.4566,1.7704,-0.7752,
1.194624,0.5233,-0.4051,0.8714,-3.8231,-3.2445,4.2186,0.4566,1.7704,-0.7752,
1.196524,0.5233,-0.4051,0.8714,-3.1464,-4.1764,3.2813,0.4566,1.7704,-0.7752,
1.202274,0.5233,-0.4051,0.8714,-3.1464,-4.1764,3.2813,0.5281,2.1173,-0.7649,
1.212201,0.5233,-0.4051,0.8714,-3.1464,-4.1764,3.2813,0.6075,2.4393,-0.7398,
1.214564,0.5686,-0.4952,0.7972,-3.1464,-4.1764,3.2813,0.6075,2.4393,-0.7398,
1.216234,0.5686,-0.4952,0.7972,-2.3771,-5.1279,2.0766,0.6075,2.4393,-0.7398,
1.223821,0.5686,-0.4952,0.7972,-2.3771,-5.1279,2.0766,0.6765,2.7087,-0.7325,
1.232325,0.5686,-0.4952,0.7972,-2.3771,-5.1279,2.0766,0.7187,2.8993,-0.7490,
1.234451,0.6557,-0.5514,0.6445,-2.3771,-5.1279,2.0766,0.7187,2.8993,-0.7490,
1.236298,0.6557,-0.5514,0.6445,-1.1336,-5.7285,0.0776,0.7187,2.8993,-0.7490,
1.242004,0.6557,-0.5514,0.6445,-1.1336,-5.7285,0.0776,0.7113,2.9292,-0.7710,
1.252266,0.6557,-0.5514,0.6445,-1.1336,-5.7285,0.0776,0.6466,2.8180,-0.7783,
1.255017,0.7710,-0.6237,0.4128,-1.1336,-5.7285,0.0776,0.6466,2.8180,-0.7783,
1.257041,0.7710,-0.6237,0.4128,0.3842,-6.4573,-2.6345,0.6466,2.8180,-0.7783,
1.262759,0.7710,-0.6237,0.4128,0.3842,-6.4573,-2.6345,0.5342,2.6451,-0.7429,
1.273026,0.7710,-0.6237,0.4128,0.3842,-6.4573,-2.6345,0.3741,2.3873,-0.6683,
1.275568,0.9216,-0.6409,0.2237,0.3842,-6.4573,-2.6345,0.3741,2.3873,-0.6683,
1.277719,0.9216,-0.6409,0.2237,2.1686,-6.5807,-4.8062,0.3741,2.3873,-0.6683,
1.282230,0.9216,-0.6409,0.2237,2.1686,-6.5807,-4.8062,0.1738,2.0318,-0.5926,
1.292374,0.9216,-0.6409,0.2237,2.1686,-6.5807,-4.8062,-0.0229,1.6189,-0.5627,
1.294747,1.0068,-0.5889,0.2167,2.1686,-6.5807,-4.8062,-0.0229,1.6189,-0.5627,
1.296749,1.0068,-0.5889,0.2167,3.1857,-5.9489,-5.0531,-0.0229,1.6189,-0.5627,
1.302101,1.0068,-0.5889,0.2167,3.1857,-5.9489,-5.0531,-0.3076,1.0367,-0.6818,
1.311612,1.0068,-0.5889,0.2167,3.1857,-5.9489,-5.0531,-0.4444,0.7069,-0.7893,
1.313198,0.9706,-0.5315,0.2503,3.1857,-5.9489,-5.0531,-0.4444,0.7069,-0.7893,
1.314343,0.9706,-0.5315,0.2503,2.8571,-5.2233,-4.7499,-0.4444,0.7069,-0.7893,
1.322408,0.9706,-0.5315,0.2503,2.8571,-5.2233,-4.7499,-0.5855,0.2334,-0.8296,
1.334585,0.7966,-0.4617,0.3362,2.8571,-5.2233,-4.7499,-0.5855,0.2334,-0.8296,
1.336223,0.7966,-0.4617,0.3362,1.0685,-4.3543,-3.8290,-0.5855,0.2334,-0.8296,
1.339692,0.7966,-0.4617,0.3362,1.0685,-4.3543,-3.8290,-0.6869,-0.2950,-0.7545,
1.344169,0.7966,-0.4617,0.3362,1.0685,-4.3543,-3.8290,-0.7303,-0.8307,-0.6030,
1.351666,0.7966,-0.4617,0.3362,1.0685,-4.3543,-3.8290,-0.7376,-1.3695,-0.4631,
1.353583,0.7621,-0.4217,0.4115,1.0685,-4.3543,-3.8290,-0.7376,-1.3695,-0.4631,
1.355187,0.7621,-0.4217,0.4115,0.4799,-3.7518,-2.8359,-0.7376,-1.3695,-0.4631,
1.362234,0.7621,-0.4217,0.4115,0.4799,-3.7518,-2.8359,-0.7352,-1.8771,-0.3928,
1.372831,0.7621,-0.4217,0.4115,0.4799,-3.7518,-2.8359,-0.7010,-2.3921,-0.3519,
1.374566,0.5370,-0.4538,0.5851,0.4799,-3.7518,-2.8359,-0.7010,-2.3921,-0.3519,
1.376034,0.5370,-0.4538,0.5851,-2.0541,-3.8447,-0.7678,-0.7010,-2.3921,-0.3519,
1.381710,0.5370,-0.4538,0.5851,-2.0541,-3.8447,-0.7678,-0.5092,-2.8484,-0.1742,
1.392113,0.5370,-0.4538,0.5851,-2.0541,-3.8447,-0.7678,-0.1689,-3.0640,0.0732,
1.393582,0.3871,-0.3660,0.8033,-2.0541,-3.8447,-0.7678,-0.1689,-3.0640,0.0732,
1.394719,0.3871,-0.3660,0.8033,-3.8774,-2.7856,1.8154,-0.1689,-3.0640,0.0732,
1.401972,0.3871,-0.3660,0.8033,-3.8774,-2.7856,1.8154,0.1445,-3.1294,0.1227,
1.411633,0.3871,-0.3660,0.8033,-3.8774,-2.7856,1.8154,0.3613,-3.0854,-0.0153,
1.413171,0.5613,-0.2713,0.7168,-3.8774,-2.7856,1.8154,0.3613,-3.0854,-0.0153,
1.414287,0.5613,-0.2713,0.7168,-2.4880,-1.7408,1.4114,0.3613,-3.0854,-0.0153,
1.422947,0.5613,-0.2713,0.7168,-2.4880,-1.7408,1.4114,0.4590,-2.9486,-0.2328,
1.432008,0.5613,-0.2713,0.7168,-2.4880,-1.7408,1.4114,0.4487,-2.8197,-0.4680,
1.433964,0.6301,-0.2568,0.6147,-2.4880,-1.7408,1.4114,0.4487,-2.8197,-0.4680,
1.435533,0.6301,-0.2568,0.6147,-2.0808,-1.5826,0.8136,0.4487,-2.8197,-0.4680,
1.441763,0.6301,-0.2568,0.6147,-2.0808,-1.5826,0.8136,0.3961,-2.7433,-0.6555,
1.452136,0.6301,-0.2568,0.6147,-2.0808,-1.5826,0.8136,0.3381,-2.6621,-0.7398,
1.454324,0.5972,-0.2074,0.5887,-2.0808,-1.5826,0.8136,0.3381,-2.6621,-0.7398,
1.456104,0.5972,-0.2074,0.5887,-2.6294,-1.1443,0.9277,0.3381,-2.6621,-0.7398,
1.462111,0.5972,-0.2074,0.5887,-2.6294,-1.1443,0.9277,0.3295,-2.5484,-0.6806,
1.472217,0.5972,-0.2074,0.5887,-2.6294,-1.1443,0.9277,0.3375,-2.4281,-0.5352,
1.473726,0.7001,-0.2987,0.4887,-2.6294,-1.1443,0.9277,0.3375,-2.4281,-0.5352,
1.475292,0.7001,-0.2987,0.4887,-1.8101,-2.0654,0.2898,0.3375,-2.4281,-0.5352,
1.481810,0.7001,-0.2987,0.4887,-1.8101,-2.0654,0.2898,0.3039,-2.3462,-0.3128,
1.492359,0.7001,-0.2987,0.4887,-1.8101,-2.0654,0.2898,-0.0223,-2.0414,-0.2401,
1.493902,0.9582,-0.5442,-0.0542,-1.8101,-2.0654,0.2898,-0.0223,-2.0414,-0.2401,
1.495236,0.9582,-0.5442,-0.0542,0.5460,-4.3986,-4.6644,-0.0223,-2.0414,-0.2401,
1.501924,0.9582,-0.5442,-0.0542,0.5460,-4.3986,-4.6644,-0.3864,-1.4452,-0.2438,
1.513078,0.9582,-0.5442,-0.0542,0.5460,-4.3986,-4.6644,-0.8122,-0.9510,-0.3073,
1.514889,0.9689,-0.4823,-0.0976,0.5460,-4.3986,-4.6644,-0.8122,-0.9510,-0.3073,
1.516421,0.9689,-0.4823,-0.0976,0.5498,-3.6544,-4.8293,-0.8122,-0.9510,-0.3073,
1.523096,0.9689,-0.4823,-0.0976,0.5498,-3.6544,-4.8293,-1.0834,-0.6432,-0.3635,
1.531622,0.9689,-0.4823,-0.0976,0.5498,-3.6544,-4.8293,-1.0822,-0.5057,-0.3470,
1.533277,0.8607,-0.5176,0.2504,0.5498,-3.6544,-4.8293,-1.0822,-0.5057,-0.3470,
1.534762,0.8607,-0.5176,0.2504,-0.5587,-3.8413,-1.2572,-1.0822,-0.5057,-0.3470,
1.542014,0.8607,-0.5176,0.2504,-0.5587,-3.8413,-1.2572,-0.8739,-0.4410,-0.2340,
1.551647,0.8607,-0.5176,0.2504,-0.5587,-3.8413,-1.2572,-0.6240,-0.3976,-0.0715,
1.553238,0.8714,-0.5680,0.2618,-0.5587,-3.8413,-1.2572,-0.6240,-0.3976,-0.0715,
1.554689,0.8714,-0.5680,0.2618,-0.4797,-4.1653,-1.0193,-0.6240,-0.3976,-0.0715,
1.561879,0.8714,-0.5680,0.2618,-0.4797,-4.1653,-1.0193,-0.3351,-0.2785,0.0934,
1.572953,0.8714,-0.5680,0.2618,-0.4797,-4.1653,-1.0193,-0.0846,-0.1374,0.1991,
1.574603,0.9883,-0.5883,0.2414,-0.4797,-4.1653,-1.0193,-0.0846,-0.1374,0.1991,
1.576309,0.9883,-0.5883,0.2414,0.6641,-4.1842,-1.1388,-0.0846,-0.1374,0.1991,
1.581322,0.9883,-0.5883,0.2414,0.6641,-4.1842,-1.1388,0.0455,-0.1325,0.2131,
1.591315,0.9883,-0.5883,0.2414,0.6641,-4.1842,-1.1388,0.1072,-0.2870,0.1795,
1.592475,0.8769,-0.4930,0.1537,0.6641,-4.1842,-1.1388,0.1072,-0.2870,0.1795,
1.593415,0.8769,-0.4930,0.1537,-0.4286,-3.0884,-1.9181,0.1072,-0.2870,0.1795,
1.601185,0.8769,-0.4930,0.1537,-0.4286,-3.0884,-1.9181,0.0534,-0.6138,0.1490,
1.611277,0.8769,-0.4930,0.1537,-0.4286,-3.0884,-1.9181,0.0052,-1.0543,0.1221,
1.612219,0.6049,0.2812,0.9637,-0.4286,-3.0884,-1.9181,0.0052,-1.0543,0.1221,
1.613053,0.6049,0.2812,0.9637,-3.1185,4.5704,6.1215,0.0052,-1.0543,0.1221,
1.621848,0.6049,0.2812,0.9637,-3.1185,4.5704,6.1215,0.5495,-1.2345,0.3860,
1.631344,0.6049,0.2812,0.9637,-3.1185,4.5704,6.1215,0.9771,-1.3597,1.0494,
1.632482,0.2590,-0.5344,0.3099,-3.1185,4.5704,6.1215,0.9771,-1.3597,1.0494,
1.633480,0.2590,-0.5344,0.3099,-6.5222,-3.2470,-0.1449,0.9771,-1.3597,1.0494,
1.641248,0.2590,-0.5344,0.3099,-6.5222,-3.2470,-0.1449,0.8934,-1.6132,1.6590,
1.651310,0.2590,-0.5344,0.3099,-6.5222,-3.2470,-0.1449,0.6594,-1.9400,1.9003,
1.652504,0.9226,-0.9490,-0.0716,-6.5222,-3.2470,-0.1449,0.6594,-1.9400,1.9003,
1.653422,0.9226,-0.9490,-0.0716,-0.0145,-6.8993,-3.5982,0.6594,-1.9400,1.9003,
1.661283,0.9226,-0.9490,-0.0716,-0.0145,-6.8993,-3.5982,0.5256,-2.0885,1.8130,
1.672638,0.9226,-0.9490,-0.0716,-0.0145,-6.8993,-3.5982,0.4041,-1.9101,1.3420,
1.674461,0.8998,-0.9043,-0.0611,-0.0145,-6.8993,-3.5982,0.4041,-1.9101,1.3420,
1.675629,0.8998,-0.9043,-0.0611,-0.2307,-6.0536,-3.1295,0.4041,-1.9101,1.3420,
1.681560,0.8998,-0.9043,-0.0611,-0.2307,-6.0536,-3.1295,0.2648,-1.3847,1.1533,
1.691411,0.8998,-0.9043,-0.0611,-0.2307,-6.0536,-3.1295,0.0687,-0.7898,1.0806,
1.692988,0.6871,-0.6199,0.0384,-0.2307,-6.0536,-3.1295,0.0687,-0.7898,1.0806,
1.693984,0.6871,-0.6199,0.0384,-2.2641,-2.9342,-1.9356,0.0687,-0.7898,1.0806,
1.701218,0.6871,-0.6199,0.0384,-2.2641,-2.9342,-1.9356,-0.1677,-0.4403,1.1038,
1.711260,0.6871,-0.6199,0.0384,-2.2641,-2.9342,-1.9356,-0.3601,-0.2229,1.3005,
1.712181,0.4485,-0.4545,0.2603,-2.2641,-2.9342,-1.9356,-0.3601,-0.2229,1.3005,
1.712817,0.4485,-0.4545,0.2603,-4.4926,-0.9596,0.3252,-0.3601,-0.2229,1.3005,
1.721725,0.4485,-0.4545,0.2603,-4.4926,-0.9596,0.3252,-0.4371,-0.0042,1.7519,
1.731237,0.4485,-0.4545,0.2603,-4.4926,-0.9596,0.3252,-0.4713,0.1473,2.3786,
1.732198,0.4622,-0.3303,0.2428,-4.4926,-0.9596,0.3252,-0.4713,0.1473,2.3786,
1.732902,0.4622,-0.3303,0.2428,-4.1587,0.7364,0.1680,-0.4713,0.1473,2.3786,
1.741227,0.4622,-0.3303,0.2428,-4.1587,0.7364,0.1680,-0.5080,0.0850,2.9089,
1.751313,0.4622,-0.3303,0.2428,-4.1587,0.7364,0.1680,-0.5330,-0.2534,3.1074,
1.752231,1.0214,-0.7565,0.0189,-4.1587,0.7364,0.1680,-0.5330,-0.2534,3.1074,
1.752872,1.0214,-0.7565,0.0189,1.6019,-2.8379,-1.9438,-0.5330,-0.2534,3.1074,
1.762028,1.0214,-0.7565,0.0189,1.6019,-2.8379,-1.9438,-0.5361,-0.6780,2.8686,
1.774205,1.0214,-0.7565,0.0189,1.6019,-2.8379,-1.9438,-0.4976,-0.9920,2.2724,
1.776339,1.3836,-1.0760,-0.1200,1.6019,-2.8379,-1.9438,-0.4976,-0.9920,2.2724,
1.778235,1.3836,-1.0760,-0.1200,5.3807,-5.4746,-3.0639,-0.4976,-0.9920,2.2724,
1.782250,1.3836,-1.0760,-0.1200,5.3807,-5.4746,-3.0639,-0.4346,-1.0940,1.5418,
1.791820,1.3836,-1.0760,-0.1200,5.3807,-5.4746,-3.0639,-0.3161,-1.0537,0.9340,
1.793981,1.0481,-1.1578,-0.0590,5.3807,-5.4746,-3.0639,-0.3161,-1.0537,0.9340,
1.795691,1.0481,-1.1578,-0.0590,2.2056,-6.0084,-2.1989,-0.3161,-1.0537,0.9340,
1.802123,1.0481,-1.1578,-0.0590,2.2056,-6.0084,-2.1989,-0.1775,-1.0378,0.6358,
1.812818,1.0481,-1.1578,-0.0590,2.2056,-6.0084,-2.1989,-0.0895,-0.9926,0.5589,
1.815052,0.7163,-1.0068,0.0622,2.2056,-6.0084,-2.1989,-0.0895,-0.9926,0.5589,
1.816850,0.7163,-1.0068,0.0622,-0.9755,-4.3633,-0.7906,-0.0895,-0.9926,0.5589,
1.824843,0.7163,-1.0068,0.0622,-0.9755,-4.3633,-0.7906,-0.0620,-0.9956,0.5436,
1.832586,0.7163,-1.0068,0.0622,-0.9755,-4.3633,-0.7906,-0.0199,-1.1031,0.5570,
1.834761,0.6418,-0.7448,0.0959,-0.9755,-4.3633,-0.7906,-0.0199,-1.1031,0.5570,
1.839319,0.6418,-0.7448,0.0959,-1.6321,-1.6437,-0.2593,-0.0199,-1.1031,0.5570,
1.844583,0.6418,-0.7448,0.0959,-1.6321,-1.6437,-0.2593,0.0473,-1.3249,0.6346,
1.852089,0.6418,-0.7448,0.0959,-1.6321,-1.6437,-0.2593,0.0931,-2.0475,0.9285,
1.853804,0.4644,-0.6942,0.0132,-1.6321,-1.6437,-0.2593,0.0931,-2.0475,0.9285,
1.855747,0.4644,-0.6942,0.0132,-3.2704,-0.9599,-0.7912,0.0931,-2.0475,0.9285,
1.861891,0.4644,-0.6942,0.0132,-3.2704,-0.9599,-0.7912,0.0956,-2.2864,1.0696,
1.875039,0.4644,-0.6942,0.0132,-3.2704,-0.9599,-0.7912,0.1151,-2.2357,1.2082,
1.876772,0.3558,-0.6214,-0.0392,-3.2704,-0.9599,-0.7912,0.1151,-2.2357,1.2082,
1.880320,0.3558,-0.6214,-0.0392,-4.1809,-0.0029,-0.9523,0.1151,-2.2357,1.2082,
1.881691,0.3558,-0.6214,-0.0392,-4.1809,-0.0029,-0.9523,0.1719,-1.8979,1.4856,
1.891472,0.3558,-0.6214,-0.0392,-4.1809,-0.0029,-0.9523,0.3399,-1.7018,2.1881,
1.893849,0.4172,-0.4900,-0.0517,-4.1809,-0.0029,-0.9523,0.3399,-1.7018,2.1881,
1.895116,0.4172,-0.4900,-0.0517,-3.3235,1.6124,-0.8214,0.3399,-1.7018,2.1881,
1.901258,0.4172,-0.4900,-0.0517,-3.3235,1.6124,-0.8214,0.4603,-1.5149,2.4666,
1.911469,0.4172,-0.4900,-0.0517,-3.3235,1.6124,-0.8214,0.4132,-1.6676,2.6016,
1.912630,0.2174,-0.6720,-0.2290,-3.3235,1.6124,-0.8214,0.4132,-1.6676,2.6016,
1.913553,0.2174,-0.6720,-0.2290,-4.8992,0.2513,-2.3517,0.4132,-1.6676,2.6016,
1.929939,0.2174,-0.6720,-0.2290,-4.8992,0.2513,-2.3517,0.1787,-1.5985,2.8313,
1.931658,0.3975,-0.6815,-0.1317,-4.8992,0.2513,-2.3517,0.1787,-1.5985,2.8313,
1.932677,0.3975,-0.6815,-0.1317,-2.7843,0.5009,-1.2116,0.1787,-1.5985,2.8313,
1.943646,0.3975,-0.6815,-0.1317,-2.7843,0.5009,-1.2116,-0.0797,-0.9174,2.8594,
1.951345,0.3975,-0.6815,-0.1317,-2.7843,0.5009,-1.2116,-0.0645,-0.4813,2.8142,
1.952685,0.6926,-0.7514,-0.1233,-2.7843,0.5009,-1.2116,-0.0645,-0.4813,2.8142,
1.953844,0.6926,-0.7514,-0.1233,0.6388,0.2727,-0.9778,-0.0645,-0.4813,2.8142,
1.961234,0.6926,-0.7514,-0.1233,0.6388,0.2727,-0.9778,-0.0284,-0.1758,2.5747,
1.972953,0.6926,-0.7514,-0.1233,0.6388,0.2727,-0.9778,0.0522,0.0630,2.1117,
1.973874,0.9853,-0.9334,0.0117,0.6388,0.2727,-0.9778,0.0522,0.0630,2.1117,
1.975214,0.9853,-0.9334,0.0117,3.8600,-1.2401,0.3581,0.0522,0.0630,2.1117,
1.981755,0.9853,-0.9334,0.0117,3.8600,-1.2401,0.3581,0.2581,0.2206,1.5638,
1.991467,0.9853,-0.9334,0.0117,3.8600,-1.2401,0.3581,0.6203,0.2310,0.9889,
1.992451,1.0378,-1.1259,0.0942,3.8600,-1.2401,0.3581,0.6203,0.2310,0.9889,
1.993228,1.0378,-1.1259,0.0942,4.5538,-2.9962,1.0709,0.6203,0.2310,0.9889,
2.001310,1.0378,-1.1259,0.0942,4.5538,-2.9962,1.0709,1.0351,0.0972,0.5039,
2.011428,1.0378,-1.1259,0.0942,4.5538,-2.9962,1.0709,1.3527,-0.0592,0.1911,
2.012306,0.8624,-1.1005,-0.0600,4.5538,-2.9962,1.0709,1.3527,-0.0592,0.1911,
2.013060,0.8624,-1.1005,-0.0600,2.8708,-2.7209,-0.6268,1.3527,-0.0592,0.1911,
2.021917,0.8624,-1.1005,-0.0600,2.8708,-2.7209,-0.6268,1.4584,-0.0665,0.0476,
2.031174,0.8624,-1.1005,-0.0600,2.8708,-2.7209,-0.6268,1.3503,0.0215,0.0323,
2.032051,0.7517,-0.8567,-0.0988,2.8708,-2.7209,-0.6268,1.3503,0.0215,0.0323,
2.032997,0.7517,-0.8567,-0.0988,1.7686,-0.3473,-1.2119,1.3503,0.0215,0.0323,
2.041142,0.7517,-0.8567,-0.0988,1.7686,-0.3473,-1.2119,0.9905,0.2121,0.0873,
2.051457,0.7517,-0.8567,-0.0988,1.7686,-0.3473,-1.2119,0.8647,0.2780,0.1203,
2.052251,0.7214,-0.6852,-0.0580,1.7686,-0.3473,-1.2119,0.8647,0.2780,0.1203,
2.052884,0.7214,-0.6852,-0.0580,1.4535,1.3150,-0.9579,0.8647,0.2780,0.1203,
2.061324,0.7214,-0.6852,-0.0580,1.4535,1.3150,-0.9579,0.7517,0.2854,0.2284,
2.072086,0.7214,-0.6852,-0.0580,1.4535,1.3150,-0.9579,0.6228,0.3721,0.4550,
2.073223,0.5261,-0.6666,-0.1145,1.4535,1.3150,-0.9579,0.6228,0.3721,0.4550,
2.074387,0.5261,-0.6666,-0.1145,-0.4387,1.5066,-1.6138,0.6228,0.3721,0.4550,
2.081395,0.5261,-0.6666,-0.1145,-0.4387,1.5066,-1.6138,0.4322,0.6439,0.7690,
2.091208,0.5261,-0.6666,-0.1145,-0.4387,1.5066,-1.6138,0.1622,0.9530,1.1007,
2.092284,0.4504,-0.6280,-0.2464,-0.4387,1.5066,-1.6138,0.1622,0.9530,1.1007,
2.092997,0.4504,-0.6280,-0.2464,-1.0580,1.9649,-2.9709,0.1622,0.9530,1.1007,
2.101418,0.4504,-0.6280,-0.2464,-1.0580,1.9649,-2.9709,-0.1579,1.1711,1.4459,
2.111573,0.4504,-0.6280,-0.2464,-1.0580,1.9649,-2.9709,-0.4963,1.3251,1.7721,
2.112947,0.3693,-0.5822,-0.3038,-1.0580,1.9649,-2.9709,-0.4963,1.3251,1.7721,
2.113876,0.3693,-0.5822,-0.3038,-1.6131,2.5716,-3.5151,-0.4963,1.3251,1.7721,
2.122717,0.3693,-0.5822,-0.3038,-1.6131,2.5716,-3.5151,-0.8158,1.2902,2.0188,
2.131751,0.3693,-0.5822,-0.3038,-1.6131,2.5716,-3.5151,-1.0809,1.0245,2.1166,
2.133201,0.3280,-0.3773,-0.3580,-1.6131,2.5716,-3.5151,-1.0809,1.0245,2.1166,
2.134401,0.3280,-0.3773,-0.3580,-1.7132,4.7730,-3.8785,-1.0809,1.0245,2.1166,
2.141636,0.3280,-0.3773,-0.3580,-1.7132,4.7730,-3.8785,-1.2404,0.5877,2.0072,
2.151857,0.3280,-0.3773,-0.3580,-1.7132,4.7730,-3.8785,-1.2783,0.1754,1.6132,
2.153982,0.4465,-0.1797,-0.2724,-1.7132,4.7730,-3.8785,-1.2783,0.1754,1.6132,
2.155597,0.4465,-0.1797,-0.2724,-0.3327,6.8414,-2.7240,-1.2783,0.1754,1.6132,
2.162305,0.4465,-0.1797,-0.2724,-0.3327,6.8414,-2.7240,-1.1903,-0.0757,1.0457,
2.174628,0.4465,-0.1797,-0.2724,-0.3327,6.8414,-2.7240,-0.9905,-0.0408,0.6181,
2.176590,0.2886,-0.3519,-0.0754,-0.3327,6.8414,-2.7240,-0.9905,-0.0408,0.6181,
2.178652,0.2886,-0.3519,-0.0754,-1.8243,5.1800,-0.4877,-0.9905,-0.0408,0.6181,
2.182115,0.2886,-0.3519,-0.0754,-1.8243,5.1800,-0.4877,-0.8122,0.3581,0.6077,
2.192257,0.2886,-0.3519,-0.0754,-1.8243,5.1800,-0.4877,-0.7541,0.8626,1.0885,
2.194505,0.0275,-0.5855,-0.0738,-1.8243,5.1800,-0.4877,-0.7541,0.8626,1.0885,
2.196025,0.0275,-0.5855,-0.0738,-4.2714,2.9442,-0.3017,-0.7541,0.8626,1.0885,
2.202255,0.0275,-0.5855,-0.0738,-4.2714,2.9442,-0.3017,-0.7279,0.9146,1.6933,
2.212237,0.0275,-0.5855,-0.0738,-4.2714,2.9442,-0.3017,-0.6692,0.4643,2.0885,
2.214069,0.0586,-0.3572,-0.1175,-4.2714,2.9442,-0.3017,-0.6692,0.4643,2.0885,
2.215512,0.0586,-0.3572,-0.1175,-3.6478,5.3357,-0.6348,-0.6692,0.4643,2.0885,
2.224091,0.0586,-0.3572,-0.1175,-3.6478,5.3357,-0.6348,-0.5721,-0.2162,2.3554,
2.231762,0.0586,-0.3572,-0.1175,-3.6478,5.3357,-0.6348,-0.4212,-1.2113,2.2107,
2.233522,0.5591,-2.3155,-0.1992,-3.6478,5.3357,-0.6348,-0.4212,-1.2113,2.2107,
2.235154,0.5591,-2.3155,-0.1992,1.6897,-13.6733,-1.2671,-0.4212,-1.2113,2.2107,
2.253410,0.5591,-2.3155,-0.1992,1.6897,-13.6733,-1.2671,-0.3858,-1.5173,1.7403,
2.255933,0.5591,-2.3155,-0.1992,1.6897,-13.6733,-1.2671,-0.3241,-1.8661,1.3438,
2.258255,0.2389,-3.4418,-0.2478,1.6897,-13.6733,-1.2671,-0.3241,-1.8661,1.3438,
2.260031,0.2389,-3.4418,-0.2478,-1.1411,-24.6037,-1.5564,-0.3241,-1.8661,1.3438,
2.261882,0.2389,-3.4418,-0.2478,-1.1411,-24.6037,-1.5564,-0.2483,-1.2864,1.1129,
2.272516,0.2389,-3.4418,-0.2478,-1.1411,-24.6037,-1.5564,-0.2270,0.4338,1.1337,
2.274566,0.1802,-2.1945,0.2448,-1.1411,-24.6037,-1.5564,-0.2270,0.4338,1.1337,
2.276458,0.1802,-2.1945,0.2448,-1.5038,-12.3088,3.3445,-0.2270,0.4338,1.1337,
2.281959,0.1802,-2.1945,0.2448,-1.5038,-12.3088,3.3445,0.0883,1.3825,1.7342,
2.291643,0.1802,-2.1945,0.2448,-1.5038,-12.3088,3.3445,0.5024,1.2847,2.2192,
2.293815,0.3501,-0.8782,-0.0319,-1.5038,-12.3088,3.3445,0.5024,1.2847,2.2192,
2.295672,0.3501,-0.8782,-0.0319,0.5043,0.7189,0.4950,0.5024,1.2847,2.2192,
2.301956,0.3501,-0.8782,-0.0319,0.5043,0.7189,0.4950,0.7064,0.9860,2.5711,
2.315897,0.3501,-0.8782,-0.0319,0.5043,0.7189,0.4950,0.7046,0.7783,2.8906,
2.317618,0.2821,-0.5444,-0.1459,0.5043,0.7189,0.4950,0.7046,0.7783,2.8906,
2.319325,0.2821,-0.5444,-0.1459,0.3400,4.1461,-0.8020,0.7046,0.7783,2.8906,
2.322007,0.2821,-0.5444,-0.1459,0.3400,4.1461,-0.8020,0.6301,0.5792,3.1288,
2.331905,0.2821,-0.5444,-0.1459,0.3400,4.1461,-0.8020,0.5586,0.4796,3.1825,
2.333557,0.2441,-0.7460,-0.1218,0.3400,4.1461,-0.8020,0.5586,0.4796,3.1825,
2.334826,0.2441,-0.7460,-0.1218,0.5564,2.3099,-0.6975,0.5586,0.4796,3.1825,
2.343464,0.2441,-0.7460,-0.1218,0.5564,2.3099,-0.6975,0.5201,0.4460,2.9388,
2.351819,0.2441,-0.7460,-0.1218,0.5564,2.3099,-0.6975,0.4792,0.5352,2.4654,
2.353485,0.1226,-1.0006,-0.0629,0.5564,2.3099,-0.6975,0.4792,0.5352,2.4654,
2.355465,0.1226,-1.0006,-0.0629,-0.1312,-0.0977,-0.2246,0.4792,0.5352,2.4654,
2.361725,0.1226,-1.0006,-0.0629,-0.1312,-0.0977,-0.2246,0.5140,0.6403,1.8948,
2.373638,0.1226,-1.0006,-0.0629,-0.1312,-0.0977,-0.2246,0.6386,0.5767,1.3267,
2.375437,-0.0395,-0.9811,-0.0263,-0.1312,-0.0977,-0.2246,0.6386,0.5767,1.3267,
2.376909,-0.0395,-0.9811,-0.0263,-1.4161,0.1336,0.0132,0.6386,0.5767,1.3267,
2.381653,-0.0395,-0.9811,-0.0263,-1.4161,0.1336,0.0132,0.7675,0.4711,0.8979,
2.391907,-0.0395,-0.9811,-0.0263,-1.4161,0.1336,0.0132,0.8512,0.4155,0.6688,
2.393711,-0.0684,-0.8604,0.0353,-1.4161,0.1336,0.0132,0.8512,0.4155,0.6688,
2.395391,-0.0684,-0.8604,0.0353,-1.5500,1.3341,0.4536,0.8512,0.4155,0.6688,
2.401964,-0.0684,-0.8604,0.0353,-1.5500,1.3341,0.4536,0.8915,0.4118,0.5094,
2.411884,-0.0684,-0.8604,0.0353,-1.5500,1.3341,0.4536,0.8274,0.3049,0.0751,
2.413566,-0.0259,-0.9611,0.0882,-1.5500,1.3341,0.4536,0.8274,0.3049,0.0751,
2.414748,-0.0259,-0.9611,0.0882,-1.0750,0.3532,0.7992,0.8274,0.3049,0.0751,
2.424850,-0.0259,-0.9611,0.0882,-1.0750,0.3532,0.7992,0.7944,0.1681,-0.0734,
2.431996,-0.0259,-0.9611,0.0882,-1.0750,0.3532,0.7992,0.8243,0.1198,-0.1491,
2.433656,-0.0441,-0.9797,0.2895,-1.0750,0.3532,0.7992,0.8243,0.1198,-0.1491,
2.435126,-0.0441,-0.9797,0.2895,-1.2648,0.1676,2.6015,0.8243,0.1198,-0.1491,
2.441690,-0.0441,-0.9797,0.2895,-1.2648,0.1676,2.6015,0.9477,0.2713,-0.2047,
2.452024,-0.0441,-0.9797,0.2895,-1.2648,0.1676,2.6015,1.1622,0.5065,-0.2896,
2.453453,0.0396,-0.8718,0.4252,-1.2648,0.1676,2.6015,1.1622,0.5065,-0.2896,
2.455344,0.0396,-0.8718,0.4252,-0.4733,1.2127,3.6764,1.1622,0.5065,-0.2896,
2.462391,0.0396,-0.8718,0.4252,-0.4733,1.2127,3.6764,1.4529,0.6537,-0.3983,
2.474152,0.0396,-0.8718,0.4252,-0.4733,1.2127,3.6764,1.7822,0.6733,-0.5095,
2.475890,0.0332,-0.8003,0.3788,-0.4733,1.2127,3.6764,1.7822,0.6733,-0.5095,
2.477421,0.0332,-0.8003,0.3788,-0.5935,1.8803,2.8315,1.7822,0.6733,-0.5095,
2.481264,0.0332,-0.8003,0.3788,-0.5935,1.8803,2.8315,2.1261,0.4851,-0.6231,
2.491655,0.0332,-0.8003,0.3788,-0.5935,1.8803,2.8315,2.5378,-0.1196,-0.7942,
2.492869,0.0583,-0.6993,0.2911,-0.5935,1.8803,2.8315,2.5378,-0.1196,-0.7942,
2.493668,0.0583,-0.6993,0.2911,-0.4607,2.8001,1.4684,2.5378,-0.1196,-0.7942,
2.501619,0.0583,-0.6993,0.2911,-0.4607,2.8001,1.4684,2.9624,-1.0213,-0.9878,
2.511720,0.0583,-0.6993,0.2911,-0.4607,2.8001,1.4684,3.2977,-2.0347,-1.1149,
2.513028,-0.1307,-0.9289,0.2248,-0.4607,2.8001,1.4684,3.2977,-2.0347,-1.1149,
2.513927,-0.1307,-0.9289,0.2248,-2.5188,0.4235,0.2307,3.2977,-2.0347,-1.1149,
2.523006,-0.1307,-0.9289,0.2248,-2.5188,0.4235,0.2307,3.4669,-2.9657,-1.1711,
2.531973,-0.1307,-0.9289,0.2248,-2.5188,0.4235,0.2307,3.4242,-3.5894,-1.1998,
2.533285,-0.2943,-1.3128,0.2371,-2.5188,0.4235,0.2307,3.4242,-3.5894,-1.1998,
2.534466,-0.2943,-1.3128,0.2371,-4.3985,-3.5102,-0.1981,3.4242,-3.5894,-1.1998,
2.541921,-0.2943,-1.3128,0.2371,-4.3985,-3.5102,-0.1981,3.2580,-3.9693,-1.2010,
2.551999,-0.2943,-1.3128,0.2371,-4.3985,-3.5102,-0.1981,2.9911,-4.2686,-1.0648,
2.553699,-0.4382,-1.6268,0.2551,-4.3985,-3.5102,-0.1981,2.9911,-4.2686,-1.0648,
2.555688,-0.4382,-1.6268,0.2551,-6.1128,-6.7615,-0.4267,2.9911,-4.2686,-1.0648,
2.562541,-0.4382,-1.6268,0.2551,-6.1128,-6.7615,-0.4267,2.5030,-4.5050,-0.7991,
2.574505,-0.4382,-1.6268,0.2551,-6.1128,-6.7615,-0.4267,1.9306,-4.9943,-0.7142,
2.576366,-0.1578,-1.2323,-0.3356,-6.1128,-6.7615,-0.4267,1.9306,-4.9943,-0.7142,
2.577847,-0.1578,-1.2323,-0.3356,-3.6497,-2.9958,-6.3366,1.9306,-4.9943,-0.7142,
2.581943,-0.1578,-1.2323,-0.3356,-3.6497,-2.9958,-6.3366,1.4499,-5.5460,-0.9457,
2.591719,-0.1578,-1.2323,-0.3356,-3.6497,-2.9958,-6.3366,0.9276,-4.1178,-1.6964,
2.593988,0.1807,-1.0298,-0.2520,-3.6497,-2.9958,-6.3366,0.9276,-4.1178,-1.6964,
2.595529,0.1807,-1.0298,-0.2520,-0.7410,-1.0735,-5.3914,0.9276,-4.1178,-1.6964,
2.601296,0.1807,-1.0298,-0.2520,-0.7410,-1.0735,-5.3914,0.2868,-2.4354,-1.8333,
2.611480,0.1807,-1.0298,-0.2520,-0.7410,-1.0735,-5.3914,0.3528,-0.8264,-1.8736,
2.612786,0.7380,-0.8839,0.3371,-0.7410,-1.0735,-5.3914,0.3528,-0.8264,-1.8736,
2.613839,0.7380,-0.8839,0.3371,4.3552,0.2814,0.4930,0.3528,-0.8264,-1.8736,
2.622942,0.7380,-0.8839,0.3371,4.3552,0.2814,0.4930,0.5831,0.3281,-1.9108,
2.631598,0.7380,-0.8839,0.3371,4.3552,0.2814,0.4930,0.8305,0.8180,-1.8369,
2.633023,0.7145,-0.9368,0.7427,4.3552,0.2814,0.4930,0.8305,0.8180,-1.8369,
2.634280,0.7145,-0.9368,0.7427,3.8370,-0.3824,4.3210,0.8305,0.8180,-1.8369,
2.641639,0.7145,-0.9368,0.7427,3.8370,-0.3824,4.3210,0.8665,0.8260,-1.5633,
2.651295,0.7145,-0.9368,0.7427,3.8370,-0.3824,4.3210,0.6686,0.7643,-1.1350,
2.652483,0.3423,-0.7457,0.4871,3.8370,-0.3824,4.3210,0.6686,0.7643,-1.1350,
2.653557,0.3423,-0.7457,0.4871,0.0088,1.3581,1.6321,0.6686,0.7643,-1.1350,
2.661674,0.3423,-0.7457,0.4871,0.0088,1.3581,1.6321,0.4285,0.7918,-0.7514,
2.674112,0.3423,-0.7457,0.4871,0.0088,1.3581,1.6321,0.2086,1.0379,-0.4881,
2.676070,0.1571,-0.5330,0.3948,0.0088,1.3581,1.6321,0.2086,1.0379,-0.4881,
2.677497,0.1571,-0.5330,0.3948,-1.8434,3.3833,0.6043,0.2086,1.0379,-0.4881,
2.681580,0.1571,-0.5330,0.3948,-1.8434,3.3833,0.6043,0.0266,1.3177,-0.3073,
2.691827,0.1571,-0.5330,0.3948,-1.8434,3.3833,0.6043,-0.1494,1.5053,-0.1815,
2.693675,0.1345,-0.5597,0.3337,-1.8434,3.3833,0.6043,-0.1494,1.5053,-0.1815,
2.695131,0.1345,-0.5597,0.3337,-1.9980,3.1101,-0.0905,-0.1494,1.5053,-0.1815,
2.701456,0.1345,-0.5597,0.3337,-1.9980,3.1101,-0.0905,-0.3277,1.5834,-0.1039,
2.711460,0.1345,-0.5597,0.3337,-1.9980,3.1101,-0.0905,-0.4994,1.6378,-0.0752,
2.713329,0.1498,-0.6585,0.2816,-1.9980,3.1101,-0.0905,-0.4994,1.6378,-0.0752,
2.714416,0.1498,-0.6585,0.2816,-1.7386,2.1658,-0.6461,-0.4994,1.6378,-0.0752,
2.722058,0.1498,-0.6585,0.2816,-1.7386,2.1658,-0.6461,-0.6436,1.7136,-0.0892,
2.731411,0.1498,-0.6585,0.2816,-1.7386,2.1658,-0.6461,-0.7596,1.8443,-0.1131,
2.732540,0.0803,-0.7198,0.2797,-1.7386,2.1658,-0.6461,-0.7596,1.8443,-0.1131,
2.733307,0.0803,-0.7198,0.2797,-2.2900,1.6114,-0.6657,-0.7596,1.8443,-0.1131,
2.741378,0.0803,-0.7198,0.2797,-2.2900,1.6114,-0.6657,-0.8635,2.0453,-0.1259,
2.751318,0.0803,-0.7198,0.2797,-2.2900,1.6114,-0.6657,-0.9637,2.2823,-0.1357,
2.752342,-0.0122,-0.7620,0.3489,-2.2900,1.6114,-0.6657,-0.9637,2.2823,-0.1357,
2.753118,-0.0122,-0.7620,0.3489,-3.0189,1.2625,0.0202,-0.9637,2.2823,-0.1357,
2.761292,-0.0122,-0.7620,0.3489,-3.0189,1.2625,0.0202,-1.0473,2.4735,-0.1534,
2.772383,-0.0122,-0.7620,0.3489,-3.0189,1.2625,0.0202,-1.1109,2.5767,-0.2023,
2.773299,0.0443,-0.8772,0.5031,-3.0189,1.2625,0.0202,-1.1109,2.5767,-0.2023,
2.773923,0.0443,-0.8772,0.5031,-2.2626,0.2019,1.5418,-1.1109,2.5767,-0.2023,
2.781259,0.0443,-0.8772,0.5031,-2.2626,0.2019,1.5418,-1.1665,2.5840,-0.4057,
2.791745,0.0443,-0.8772,0.5031,-2.2626,0.2019,1.5418,-1.1762,2.6347,-0.5107,
2.792981,0.1864,-0.9926,0.6530,-2.2626,0.2019,1.5418,-1.1762,2.6347,-0.5107,
2.793986,0.1864,-0.9926,0.6530,-0.7249,-0.8804,3.0254,-1.1762,2.6347,-0.5107,
2.801442,0.1864,-0.9926,0.6530,-0.7249,-0.8804,3.0254,-1.2129,2.7978,-0.6335,
2.811538,0.1864,-0.9926,0.6530,-0.7249,-0.8804,3.0254,-1.2807,3.0465,-0.8076,
2.813151,0.4330,-1.0542,0.8374,-0.7249,-0.8804,3.0254,-1.2807,3.0465,-0.8076,
2.814134,0.4330,-1.0542,0.8374,1.7803,-1.4586,4.8324,-1.2807,3.0465,-0.8076,
2.822030,0.4330,-1.0542,0.8374,1.7803,-1.4586,4.8324,-1.3271,3.3073,-1.0178,
2.831184,0.4330,-1.0542,0.8374,1.7803,-1.4586,4.8324,-1.3485,3.3983,-1.2022,
2.832257,0.6392,-0.9848,0.9621,1.7803,-1.4586,4.8324,-1.3485,3.3983,-1.2022,
2.833224,0.6392,-0.9848,0.9621,3.8130,-0.7831,6.0340,-1.3485,3.3983,-1.2022,
2.841159,0.6392,-0.9848,0.9621,3.8130,-0.7831,6.0340,-1.3735,2.8803,-1.3324,
2.851250,0.6392,-0.9848,0.9621,3.8130,-0.7831,6.0340,-1.4884,1.3874,-1.4496,
2.852192,0.7793,-0.6550,0.1538,3.8130,-0.7831,6.0340,-1.4884,1.3874,-1.4496,
2.853138,0.7793,-0.6550,0.1538,5.0189,2.4334,-1.8019,-1.4884,1.3874,-1.4496,
2.861161,0.7793,-0.6550,0.1538,5.0189,2.4334,-1.8019,-1.7737,-0.6383,-1.6537,
2.871280,0.7793,-0.6550,0.1538,5.0189,2.4334,-1.8019,-2.2978,-2.1605,-1.8821,
2.872337,0.1992,-0.4212,-0.7815,5.0189,2.4334,-1.8019,-2.2978,-2.1605,-1.8821,
2.872981,0.1992,-0.4212,-0.7815,-1.1243,4.7423,-10.4927,-2.2978,-2.1605,-1.8821,
2.881769,0.1992,-0.4212,-0.7815,-1.1243,4.7423,-10.4927,-3.1029,-2.5765,-1.8003,
2.891500,0.1992,-0.4212,-0.7815,-1.1243,4.7423,-10.4927,-3.5708,-2.1306,-1.4295,
2.892988,-0.2879,-0.6376,0.8705,-1.1243,4.7423,-10.4927,-3.5708,-2.1306,-1.4295,
2.894134,-0.2879,-0.6376,0.8705,-6.2640,2.6720,6.3539,-3.5708,-2.1306,-1.4295,
2.901251,-0.2879,-0.6376,0.8705,-6.2640,2.6720,6.3539,-2.6203,-0.8209,-0.8351,
2.912133,-0.2879,-0.6376,0.8705,-6.2640,2.6720,6.3539,-1.0156,0.9219,-0.1265,
2.913145,-0.2052,-1.5643,0.3299,-6.2640,2.6720,6.3539,-1.0156,0.9219,-0.1265,
2.914069,-0.2052,-1.5643,0.3299,-5.4370,-6.3450,1.3092,-1.0156,0.9219,-0.1265,
2.921426,-0.2052,-1.5643,0.3299,-5.4370,-6.3450,1.3092,-0.5153,1.6097,0.4770,
2.931315,-0.2052,-1.5643,0.3299,-5.4370,-6.3450,1.3092,-0.8122,1.5657,0.8796,
2.932219,0.3545,-1.7591,-0.7058,-5.4370,-6.3450,1.3092,-0.8122,1.5657,0.8796,
2.933015,0.3545,-1.7591,-0.7058,0.3042,-8.1469,-8.7739,-0.8122,1.5657,0.8796,
2.941281,0.3545,-1.7591,-0.7058,0.3042,-8.1469,-8.7739,-1.1775,1.5657,0.8723,
2.951349,0.3545,-1.7591,-0.7058,0.3042,-8.1469,-8.7739,-1.4102,1.7637,0.4373,
2.952218,0.9993,-1.1915,-0.5210,0.3042,-8.1469,-8.7739,-1.4102,1.7637,0.4373,
2.953025,0.9993,-1.1915,-0.5210,6.7955,-2.4817,-6.7297,-1.4102,1.7637,0.4373,
2.961293,0.9993,-1.1915,-0.5210,6.7955,-2.4817,-6.7297,-1.4414,1.8101,-0.7911,
2.971427,0.9993,-1.1915,-0.5210,6.7955,-2.4817,-6.7297,-0.5617,1.2017,-1.2352,
2.972362,0.9289,-0.7125,-0.0086,6.7955,-2.4817,-6.7297,-0.5617,1.2017,-1.2352,
2.973131,0.9289,-0.7125,-0.0086,5.9079,2.1753,-1.5310,-0.5617,1.2017,-1.2352,
2.981212,0.9289,-0.7125,-0.0086,5.9079,2.1753,-1.5310,-0.0852,0.5450,-1.4234,
2.991407,0.9289,-0.7125,-0.0086,5.9079,2.1753,-1.5310,0.2257,0.1314,-1.3806,
2.992486,0.6511,-0.6253,0.1219,5.9079,2.1753,-1.5310,0.2257,0.1314,-1.3806,
2.993496,0.6511,-0.6253,0.1219,2.8688,2.9181,-0.2223,0.2257,0.1314,-1.3806,
3.001432,0.6511,-0.6253,0.1219,2.8688,2.9181,-0.2223,0.5959,-0.2546,-1.3079,
3.011498,0.6511,-0.6253,0.1219,2.8688,2.9181,-0.2223,1.0308,-0.7220,-1.3886,
3.012533,0.7486,-0.3746,0.3454,2.8688,2.9181,-0.2223,1.0308,-0.7220,-1.3886,
3.013538,0.7486,-0.3746,0.3454,3.4683,5.2146,1.8856,1.0308,-0.7220,-1.3886,
3.021329,0.7486,-0.3746,0.3454,3.4683,5.2146,1.8856,1.2355,-0.8136,-1.6042,
3.031351,0.7486,-0.3746,0.3454,3.4683,5.2146,1.8856,1.1628,-0.3780,-1.7868,
3.032453,0.4773,-0.4890,0.3150,3.4683,5.2146,1.8856,1.1628,-0.3780,-1.7868,
3.033301,0.4773,-0.4890,0.3150,0.4077,3.8790,1.4271,1.1628,-0.3780,-1.7868,
3.041218,0.4773,-0.4890,0.3150,0.4077,3.8790,1.4271,0.9483,0.4161,-1.8039,
3.051421,0.4773,-0.4890,0.3150,0.4077,3.8790,1.4271,0.6906,1.4356,-1.5938,
3.052421,-0.0700,-0.7544,0.5387,0.4077,3.8790,1.4271,0.6906,1.4356,-1.5938,
3.053370,-0.0700,-0.7544,0.5387,-5.2161,1.0920,3.3692,0.6906,1.4356,-1.5938,
3.061221,-0.0700,-0.7544,0.5387,-5.2161,1.0920,3.3692,0.5097,2.2627,-1.2218,
3.071533,-0.0700,-0.7544,0.5387,-5.2161,1.0920,3.3692,0.5128,2.6848,-0.8314,
3.072884,-0.2415,-0.7096,0.4625,-5.2161,1.0920,3.3692,0.5128,2.6848,-0.8314,
3.074141,-0.2415,-0.7096,0.4625,-6.8979,1.4370,2.2451,0.5128,2.6848,-0.8314,
3.081353,-0.2415,-0.7096,0.4625,-6.8979,1.4370,2.2451,0.6246,2.8773,-0.4393,
3.091494,-0.2415,-0.7096,0.4625,-6.8979,1.4370,2.2451,0.7113,3.0062,-0.0117,
3.092915,-0.3348,-0.7097,0.1515,-6.8979,1.4370,2.2451,0.7113,3.0062,-0.0117,
3.094089,-0.3348,-0.7097,0.1515,-7.5744,1.4379,-1.2167,0.7113,3.0062,-0.0117,
3.101356,-0.3348,-0.7097,0.1515,-7.5744,1.4379,-1.2167,0.6869,3.0850,0.4275,
3.111322,-0.3348,-0.7097,0.1515,-7.5744,1.4379,-1.2167,0.5611,3.0135,0.7452,
3.112512,-0.1182,-0.8374,-0.1268,-7.5744,1.4379,-1.2167,0.5611,3.0135,0.7452,
3.113383,-0.1182,-0.8374,-0.1268,-5.0375,0.2765,-4.2710,0.5611,3.0135,0.7452,
3.121588,-0.1182,-0.8374,-0.1268,-5.0375,0.2765,-4.2710,0.4041,2.7960,0.8301,
3.131507,-0.1182,-0.8374,-0.1268,-5.0375,0.2765,-4.2710,0.3179,2.5046,0.6432,
3.132682,0.1826,-1.0939,-0.0825,-5.0375,0.2765,-4.2710,0.3179,2.5046,0.6432,
3.133469,0.1826,-1.0939,-0.0825,-1.6911,-2.1311,-4.0149,0.3179,2.5046,0.6432,
3.142619,0.1826,-1.0939,-0.0825,-1.6911,-2.1311,-4.0149,0.3540,2.1589,0.2394,
3.152110,0.1826,-1.0939,-0.0825,-1.6911,-2.1311,-4.0149,0.6716,1.0532,-0.5773,
3.153716,0.0487,-1.4842,-0.0567,-1.6911,-2.1311,-4.0149,0.6716,1.0532,-0.5773,
3.155018,0.0487,-1.4842,-0.0567,-2.8230,-5.9193,-3.8536,0.6716,1.0532,-0.5773,
3.161992,0.0487,-1.4842,-0.0567,-2.8230,-5.9193,-3.8536,0.9367,0.2994,-0.7129,
3.172292,0.0487,-1.4842,-0.0567,-2.8230,-5.9193,-3.8536,1.3045,-0.2644,-0.7307,
3.174178,0.0370,-1.2971,0.3889,-2.8230,-5.9193,-3.8536,1.3045,-0.2644,-0.7307,
3.175589,0.0370,-1.2971,0.3889,-2.9510,-4.1358,0.4001,1.3045,-0.2644,-0.7307,
3.182060,0.0370,-1.2971,0.3889,-2.9510,-4.1358,0.4001,1.7138,-0.3017,-0.7551,
3.192446,0.0370,-1.2971,0.3889,-2.9510,-4.1358,0.4001,1.9911,0.0532,-0.7728,
3.194614,0.0551,-1.1958,0.4711,-2.9510,-4.1358,0.4001,1.9911,0.0532,-0.7728,
3.196423,0.0551,-1.1958,0.4711,-2.7997,-3.2545,0.9595,1.9911,0.0532,-0.7728,
3.202127,0.0551,-1.1958,0.4711,-2.7997,-3.2545,0.9595,2.0064,0.3813,-0.7166,
3.212375,0.0551,-1.1958,0.4711,-2.7997,-3.2545,0.9595,1.6521,0.3642,-0.5682,
3.214456,-0.0247,-1.1810,0.3240,-2.7997,-3.2545,0.9595,1.6521,0.3642,-0.5682,
3.215744,-0.0247,-1.1810,0.3240,-3.5427,-3.2161,-0.7531,1.6521,0.3642,-0.5682,
3.222307,-0.0247,-1.1810,0.3240,-3.5427,-3.2161,-0.7531,0.9068,0.0062,-0.3599,
3.231806,-0.0247,-1.1810,0.3240,-3.5427,-3.2161,-0.7531,0.1579,-0.3707,-0.1516,
3.233553,0.0302,-1.1105,0.5668,-3.5427,-3.2161,-0.7531,0.1579,-0.3707,-0.1516,
3.235183,0.0302,-1.1105,0.5668,-2.9447,-2.5201,1.5879,0.1579,-0.3707,-0.1516,
3.243111,0.0302,-1.1105,0.5668,-2.9447,-2.5201,1.5879,-0.2728,-0.6193,-0.0007,
3.252433,0.0302,-1.1105,0.5668,-2.9447,-2.5201,1.5879,-0.3901,-0.7360,0.0739,
3.254489,0.2590,-1.0302,0.8789,-2.9447,-2.5201,1.5879,-0.3901,-0.7360,0.0739,
3.256414,0.2590,-1.0302,0.8789,-0.6521,-1.6719,4.7371,-0.3901,-0.7360,0.0739,
3.262565,0.2590,-1.0302,0.8789,-0.6521,-1.6719,4.7371,-0.2801,-0.7122,0.0781,
3.272785,0.2590,-1.0302,0.8789,-0.6521,-1.6719,4.7371,-0.0871,-0.6071,0.0170,
3.274969,0.4775,-1.0096,0.9491,-0.6521,-1.6719,4.7371,-0.0871,-0.6071,0.0170,
3.277141,0.4775,-1.0096,0.9491,1.5120,-1.4473,5.4557,-0.0871,-0.6071,0.0170,
3.282697,0.4775,-1.0096,0.9491,1.5120,-1.4473,5.4557,0.0156,-0.4996,-0.0569,
3.292549,0.4775,-1.0096,0.9491,1.5120,-1.4473,5.4557,-0.0614,-0.4092,-0.0324,
3.294982,0.3856,-1.0782,0.6677,1.5120,-1.4473,5.4557,-0.0614,-0.4092,-0.0324,
3.297191,0.3856,-1.0782,0.6677,0.6178,-2.1222,2.6879,-0.0614,-0.4092,-0.0324,
3.301807,0.3856,-1.0782,0.6677,0.6178,-2.1222,2.6879,-0.3125,-0.3756,0.1575,
3.312262,0.3856,-1.0782,0.6677,0.6178,-2.1222,2.6879,-0.6240,-0.4605,0.4648,
3.314131,0.2797,-0.9780,0.5578,0.6178,-2.1222,2.6879,-0.6240,-0.4605,0.4648,
3.315600,0.2797,-0.9780,0.5578,-0.3601,-1.0878,1.6756,-0.6240,-0.4605,0.4648,
3.322366,0.2797,-0.9780,0.5578,-0.3601,-1.0878,1.6756,-0.9032,-0.6908,0.8044,
3.331777,0.2797,-0.9780,0.5578,-0.3601,-1.0878,1.6756,-1.0907,-1.0964,1.3292,
3.333353,0.1124,-0.6341,0.1030,-0.3601,-1.0878,1.6756,-1.0907,-1.0964,1.3292,
3.334657,0.1124,-0.6341,0.1030,-1.8542,2.4202,-2.5802,-1.0907,-1.0964,1.3292,
3.341706,0.1124,-0.6341,0.1030,-1.8542,2.4202,-2.5802,-1.2269,-2.0365,1.5668,
3.351853,0.1124,-0.6341,0.1030,-1.8542,2.4202,-2.5802,-1.4798,-2.3585,1.8209,
3.353484,-0.0430,-0.5659,-0.2453,-1.8542,2.4202,-2.5802,-1.4798,-2.3585,1.8209,
3.355080,-0.0430,-0.5659,-0.2453,-3.1949,3.2915,-5.6246,-1.4798,-2.3585,1.8209,
3.361371,-0.0430,-0.5659,-0.2453,-3.1949,3.2915,-5.6246,-1.8030,-2.5191,1.9969,
3.371358,-0.0430,-0.5659,-0.2453,-3.1949,3.2915,-5.6246,-1.8800,-2.4153,1.9565,
3.373469,0.3481,-0.7724,0.3622,-3.1949,3.2915,-5.6246,-1.8800,-2.4153,1.9565,
3.374280,0.3481,-0.7724,0.3622,0.8500,1.4828,0.7805,-1.8800,-2.4153,1.9565,
3.381275,0.3481,-0.7724,0.3622,0.8500,1.4828,0.7805,-1.7822,-2.0457,1.5717,
3.391177,0.3481,-0.7724,0.3622,0.8500,1.4828,0.7805,-2.0143,-1.4446,0.9113,
3.392424,0.7691,-1.3807,-0.4933,0.8500,1.4828,0.7805,-2.0143,-1.4446,0.9113,
3.393414,0.7691,-1.3807,-0.4933,5.0724,-4.3153,-7.1076,-2.0143,-1.4446,0.9113,
3.401313,0.7691,-1.3807,-0.4933,5.0724,-4.3153,-7.1076,-2.5941,-0.4177,0.2559,
3.411508,0.7691,-1.3807,-0.4933,5.0724,-4.3153,-7.1076,-2.8231,0.8058,-0.1821,
3.412556,0.7181,-1.2995,0.4948,5.0724,-4.3153,-7.1076,-2.8231,0.8058,-0.1821,
3.413320,0.7181,-1.2995,0.4948,4.5383,-3.4198,3.0731,-2.8231,0.8058,-0.1821,
3.421241,0.7181,-1.2995,0.4948,4.5383,-3.4198,3.0731,-1.9117,1.7105,-0.4723,
3.431472,0.7181,-1.2995,0.4948,4.5383,-3.4198,3.0731,-0.1860,1.9414,-0.5486,
3.432622,0.4746,-0.7371,0.5171,4.5383,-3.4198,3.0731,-0.1860,1.9414,-0.5486,
3.433300,0.4746,-0.7371,0.5171,2.0541,2.0780,3.3601,-0.1860,1.9414,-0.5486,
3.442037,0.4746,-0.7371,0.5171,2.0541,2.0780,3.3601,0.6557,1.8681,-0.3434,
3.451926,0.4746,-0.7371,0.5171,2.0541,2.0780,3.3601,0.3570,1.7606,-0.0263,
3.453727,0.2629,-0.5298,-0.6712,2.0541,2.0780,3.3601,0.3570,1.7606,-0.0263,
3.455776,0.2629,-0.5298,-0.6712,-0.0592,4.0751,-8.4080,0.3570,1.7606,-0.0263,
3.461993,0.2629,-0.5298,-0.6712,-0.0592,4.0751,-8.4080,-0.2190,1.4937,0.2785,
3.471690,0.2629,-0.5298,-0.6712,-0.0592,4.0751,-8.4080,-0.6442,0.9213,0.4807,
3.473381,0.2620,-0.6286,-0.4438,-0.0592,4.0751,-8.4080,-0.6442,0.9213,0.4807,
3.475148,0.2620,-0.6286,-0.4438,-0.0232,3.1445,-6.0458,-0.6442,0.9213,0.4807,
3.481931,0.2620,-0.6286,-0.4438,-0.0232,3.1445,-6.0458,-0.8800,0.1687,0.5570,
3.492168,0.2620,-0.6286,-0.4438,-0.0232,3.1445,-6.0458,-1.0180,-0.6230,0.5705,
3.494568,0.3088,-1.0218,-0.4301,-0.0232,3.1445,-6.0458,-1.0180,-0.6230,0.5705,
3.496232,0.3088,-1.0218,-0.4301,0.4794,-0.6430,-5.5836,-1.0180,-0.6230,0.5705,
3.501911,0.3088,-1.0218,-0.4301,0.4794,-0.6430,-5.5836,-1.1371,-1.4037,0.5149,
3.511956,0.3088,-1.0218,-0.4301,0.4794,-0.6430,-5.5836,-1.2447,-2.0280,0.3518,
3.514187,0.5360,-1.2727,-0.4049,0.4794,-0.6430,-5.5836,-1.2447,-2.0280,0.3518,
3.515746,0.5360,-1.2727,-0.4049,2.6928,-3.0513,-4.8929,-1.2447,-2.0280,0.3518,
3.521826,0.5360,-1.2727,-0.4049,2.6928,-3.0513,-4.8929,-1.3412,-1.6853,-0.1754,
3.532090,0.5360,-1.2727,-0.4049,2.6928,-3.0513,-4.8929,-1.2251,-0.9297,-0.2829,
3.534339,0.4283,-1.1068,-0.1834,2.6928,-3.0513,-4.8929,-1.2251,-0.9297,-0.2829,
3.535876,0.4283,-1.1068,-0.1834,1.5289,-1.4239,-2.3049,-1.2251,-0.9297,-0.2829,
3.542486,0.4283,-1.1068,-0.1834,1.5289,-1.4239,-2.3049,-0.9808,-0.2418,-0.2377,
3.552151,0.4283,-1.1068,-0.1834,1.5289,-1.4239,-2.3049,-0.6338,0.0807,-0.1222,
3.553738,0.3875,-0.8843,0.1168,1.5289,-1.4239,-2.3049,-0.6338,0.0807,-0.1222,
3.555259,0.3875,-0.8843,0.1168,1.0511,0.7442,0.8582,-0.6338,0.0807,-0.1222,
3.562094,0.3875,-0.8843,0.1168,1.0511,0.7442,0.8582,-0.1127,-0.1569,0.0128,
3.572423,0.3875,-0.8843,0.1168,1.0511,0.7442,0.8582,0.3509,-0.7360,0.1710,
3.574760,0.3230,-0.9297,-0.0790,1.0511,0.7442,0.8582,0.3509,-0.7360,0.1710,
3.576631,0.3230,-0.9297,-0.0790,0.3978,0.2942,-1.0017,0.3509,-0.7360,0.1710,
3.582008,0.3230,-0.9297,-0.0790,0.3978,0.2942,-1.0017,0.3747,-1.0335,0.2736,
3.593141,0.3230,-0.9297,-0.0790,0.3978,0.2942,-1.0017,0.1145,-1.1306,0.2583,
3.596389,0.3484,-1.0062,-0.2626,0.3978,0.2942,-1.0017,0.1145,-1.1306,0.2583,
3.598301,0.3484,-1.0062,-0.2626,0.6603,-0.4496,-2.7193,0.1145,-1.1306,0.2583,
3.602295,0.3484,-1.0062,-0.2626,0.6603,-0.4496,-2.7193,-0.1989,-1.3224,0.1661,
3.612299,0.3484,-1.0062,-0.2626,0.6603,-0.4496,-2.7193,-0.4456,-1.7470,0.0720,
3.614694,0.2555,-0.9960,-0.0624,0.6603,-0.4496,-2.7193,-0.4456,-1.7470,0.0720,
3.616473,0.2555,-0.9960,-0.0624,-0.2450,-0.3479,-0.5714,-0.4456,-1.7470,0.0720,
3.622065,0.2555,-0.9960,-0.0624,-0.2450,-0.3479,-0.5714,-0.5049,-2.4910,0.0537,
3.632327,0.2555,-0.9960,-0.0624,-0.2450,-0.3479,-0.5714,-0.2990,-3.5106,0.1374,
3.634776,0.0522,-0.9201,0.3330,-0.2450,-0.3479,-0.5714,-0.2990,-3.5106,0.1374,
3.636537,0.0522,-0.9201,0.3330,-2.2087,0.4013,3.5404,-0.2990,-3.5106,0.1374,
3.642965,0.0522,-0.9201,0.3330,-2.2087,0.4013,3.5404,0.0510,-4.3786,0.2657,
3.652182,0.0522,-0.9201,0.3330,-2.2087,0.4013,3.5404,0.3454,-4.7518,0.3335,
3.654043,0.0138,-0.8865,0.2944,-2.2087,0.4013,3.5404,0.3454,-4.7518,0.3335,
3.656008,0.0138,-0.8865,0.2944,-2.4711,0.7563,3.3260,0.3454,-4.7518,0.3335,
3.662144,0.0138,-0.8865,0.2944,-2.4711,0.7563,3.3260,0.5550,-4.7952,0.3219,
3.672011,0.0138,-0.8865,0.2944,-2.4711,0.7563,3.3260,0.7565,-4.6999,0.2932,
3.674210,-0.0760,-0.8155,0.4255,-2.4711,0.7563,3.3260,0.7565,-4.6999,0.2932,
3.676334,-0.0760,-0.8155,0.4255,-3.1983,1.4915,4.6341,0.7565,-4.6999,0.2932,
3.682357,-0.0760,-0.8155,0.4255,-3.1983,1.4915,4.6341,0.9881,-4.4562,0.2962,
3.693673,-0.0760,-0.8155,0.4255,-3.1983,1.4915,4.6341,1.2000,-4.0579,0.3005,
3.696486,0.2421,-0.7141,0.0049,-3.1983,1.4915,4.6341,1.2000,-4.0579,0.3005,
3.699607,0.2421,-0.7141,0.0049,0.0398,2.5190,0.4346,1.2000,-4.0579,0.3005,
3.701783,0.2421,-0.7141,0.0049,0.0398,2.5190,0.4346,1.3301,-3.5301,0.0207,
3.711838,0.2421,-0.7141,0.0049,0.0398,2.5190,0.4346,1.3369,-2.2577,-0.1888,
3.713669,0.3861,-0.8844,-0.1140,0.0398,2.5190,0.4346,1.3369,-2.2577,-0.1888,
3.714992,0.3861,-0.8844,-0.1140,1.4533,0.8555,-0.8716,1.3369,-2.2577,-0.1888,
3.721682,0.3861,-0.8844,-0.1140,1.4533,0.8555,-0.8716,1.3430,-1.9577,-0.3458,
3.731793,0.3861,-0.8844,-0.1140,1.4533,0.8555,-0.8716,1.4432,-2.2057,-0.4790,
3.733643,0.5446,-0.8983,-0.0066,1.4533,0.8555,-0.8716,1.4432,-2.2057,-0.4790,
3.734709,0.5446,-0.8983,-0.0066,2.9120,0.6985,0.0004,1.4432,-2.2057,-0.4790,
3.742007,0.5446,-0.8983,-0.0066,2.9120,0.6985,0.0004,1.5763,-2.6987,-0.5816,
3.751395,0.5446,-0.8983,-0.0066,2.9120,0.6985,0.0004,1.5971,-2.9657,-0.6097,
3.752441,0.5365,-0.9728,-0.1446,2.9120,0.6985,0.0004,1.5971,-2.9657,-0.6097,
3.753346,0.5365,-0.9728,-0.1446,2.6817,-0.0719,-1.5072,1.5971,-2.9657,-0.6097,
3.761386,0.5365,-0.9728,-0.1446,2.6817,-0.0719,-1.5072,1.4987,-2.9247,-0.5602,
3.771301,0.5365,-0.9728,-0.1446,2.6817,-0.0719,-1.5072,1.3338,-2.6364,-0.4423,
3.772810,0.5174,-1.0118,-0.1527,2.6817,-0.0719,-1.5072,1.3338,-2.6364,-0.4423,
3.774271,0.5174,-1.0118,-0.1527,2.3450,-0.4973,-1.6832,1.3338,-2.6364,-0.4423,
3.781190,0.5174,-1.0118,-0.1527,2.3450,-0.4973,-1.6832,1.1267,-2.1813,-0.2566,
3.791360,0.5174,-1.0118,-0.1527,2.3450,-0.4973,-1.6832,0.8555,-1.6095,-0.0660,
3.793479,0.5790,-0.8931,-0.1994,2.3450,-0.4973,-1.6832,0.8555,-1.6095,-0.0660,
3.794793,0.5790,-0.8931,-0.1994,2.8437,0.6346,-2.1780,0.8555,-1.6095,-0.0660,
3.801499,0.5790,-0.8931,-0.1994,2.8437,0.6346,-2.1780,0.5171,-1.0396,0.0390,
3.811180,0.5790,-0.8931,-0.1994,2.8437,0.6346,-2.1780,0.1231,-0.6902,-0.0141,
3.812227,0.6976,-0.7327,-0.1634,2.8437,0.6346,-2.1780,0.1231,-0.6902,-0.0141,
3.812812,0.6976,-0.7327,-0.1634,3.9115,2.1782,-1.7854,0.1231,-0.6902,-0.0141,
3.821292,0.6976,-0.7327,-0.1634,3.9115,2.1782,-1.7854,-0.2746,-0.7427,-0.2310,
3.831390,0.6976,-0.7327,-0.1634,3.9115,2.1782,-1.7854,-0.6375,-1.0763,-0.5065,
3.832438,0.6968,-0.6517,-0.0035,3.9115,2.1782,-1.7854,-0.6375,-1.0763,-0.5065,
3.833137,0.6968,-0.6517,-0.0035,3.7197,2.9144,-0.0453,-0.6375,-1.0763,-0.5065,
3.841318,0.6968,-0.6517,-0.0035,3.7197,2.9144,-0.0453,-0.9093,-1.4409,-0.7606,
3.851173,0.6968,-0.6517,-0.0035,3.7197,2.9144,-0.0453,-1.0364,-1.6279,-0.9671,
3.852144,0.6932,-0.6169,0.1967,3.7197,2.9144,-0.0453,-1.0364,-1.6279,-0.9671,
3.852896,0.6932,-0.6169,0.1967,3.4063,3.1541,2.1861,-1.0364,-1.6279,-0.9671,
3.861272,0.6932,-0.6169,0.1967,3.4063,3.1541,2.1861,-1.0406,-1.4324,-1.1131,
3.871172,0.6932,-0.6169,0.1967,3.4063,3.1541,2.1861,-1.0284,-0.7360,-1.1210,
3.872108,0.4008,-0.6731,0.1374,3.4063,3.1541,2.1861,-1.0284,-0.7360,-1.1210,
3.873031,0.4008,-0.6731,0.1374,0.2462,2.4802,1.8353,-1.0284,-0.7360,-1.1210,
3.881282,0.4008,-0.6731,0.1374,0.2462,2.4802,1.8353,-0.9936,0.2310,-0.9151,
3.892005,0.4008,-0.6731,0.1374,0.2462,2.4802,1.8353,0.1548,1.0410,-0.0233,
3.893377,-0.0009,-1.1327,0.8741,0.2462,2.4802,1.8353,0.1548,1.0410,-0.0233,
3.894379,-0.0009,-1.1327,0.8741,-3.7999,-2.0650,8.9548,0.1548,1.0410,-0.0233,
3.901388,-0.0009,-1.1327,0.8741,-3.7999,-2.0650,8.9548,0.8769,1.0434,0.4563,
3.911566,-0.0009,-1.1327,0.8741,-3.7999,-2.0650,8.9548,1.0174,1.1540,0.8906,
3.913040,-0.1170,-1.4794,0.0884,-3.7999,-2.0650,8.9548,1.0174,1.1540,0.8906,
3.913958,-0.1170,-1.4794,0.0884,-4.7735,-5.3868,0.9163,1.0174,1.1540,0.8906,
3.921368,-0.1170,-1.4794,0.0884,-4.7735,-5.3868,0.9163,0.7578,1.2065,1.2485,
3.931852,-0.1170,-1.4794,0.0884,-4.7735,-5.3868,0.9163,0.4688,1.2047,1.5210,
3.934205,-0.1550,-1.3924,-0.1102,-4.7735,-5.3868,0.9163,0.4688,1.2047,1.5210,
3.935780,-0.1550,-1.3924,-0.1102,-4.8082,-4.4090,-1.2657,0.4688,1.2047,1.5210,
3.942967,-0.1550,-1.3924,-0.1102,-4.8082,-4.4090,-1.2657,0.2556,1.2322,1.6829,
3.951774,-0.1550,-1.3924,-0.1102,-4.8082,-4.4090,-1.2657,0.0858,1.1852,1.6786,
3.953294,-0.0288,-0.9132,-0.2414,-4.8082,-4.4090,-1.2657,0.0858,1.1852,1.6786,
3.954671,-0.0288,-0.9132,-0.2414,-3.1729,0.4170,-2.6567,0.0858,1.1852,1.6786,
3.961747,-0.0288,-0.9132,-0.2414,-3.1729,0.4170,-2.6567,0.0143,0.9616,1.4856,
3.971568,-0.0288,-0.9132,-0.2414,-3.1729,0.4170,-2.6567,0.0919,0.6122,1.1294,
3.973116,0.1603,-0.7080,-0.1677,-3.1729,0.4170,-2.6567,0.0919,0.6122,1.1294,
3.974543,0.1603,-0.7080,-0.1677,-1.0126,2.5164,-1.9648,0.0919,0.6122,1.1294,
3.981709,0.1603,-0.7080,-0.1677,-1.0126,2.5164,-1.9648,0.2862,0.2310,0.6438,
3.993987,0.1603,-0.7080,-0.1677,-1.0126,2.5164,-1.9648,0.5116,0.0147,0.2174,
3.995550,0.1939,-0.9499,-0.1983,-1.0126,2.5164,-1.9648,0.5116,0.0147,0.2174,
3.997163,0.1939,-0.9499,-0.1983,-0.5588,0.1780,-2.3025,0.5116,0.0147,0.2174,
4.001534,0.1939,-0.9499,-0.1983,-0.5588,0.1780,-2.3025,0.6606,-0.0072,0.0378,
4.011688,0.1939,-0.9499,-0.1983,-0.5588,0.1780,-2.3025,0.7193,0.0092,-0.0483,
4.013946,0.3961,-1.0195,-0.2570,-0.5588,0.1780,-2.3025,0.7193,0.0092,-0.0483,
4.015338,0.3961,-1.0195,-0.2570,1.4388,-0.5030,-2.9407,0.7193,0.0092,-0.0483,
4.021505,0.3961,-1.0195,-0.2570,1.4388,-0.5030,-2.9407,0.7315,0.0593,-0.1674,
4.031595,0.3961,-1.0195,-0.2570,1.4388,-0.5030,-2.9407,0.7345,0.0490,-0.3214,
4.033063,0.6161,-0.9333,-0.1389,1.4388,-0.5030,-2.9407,0.7345,0.0490,-0.3214,
4.034110,0.6161,-0.9333,-0.1389,3.5245,0.3204,-1.8532,0.7345,0.0490,-0.3214,
4.041473,0.6161,-0.9333,-0.1389,3.5245,0.3204,-1.8532,0.8494,-0.5735,-0.4784,
4.051148,0.6161,-0.9333,-0.1389,3.5245,0.3204,-1.8532,1.1029,-2.0549,-0.6079,
4.052110,0.7018,-0.8560,-0.0211,3.5245,0.3204,-1.8532,1.1029,-2.0549,-0.6079,
4.052842,0.7018,-0.8560,-0.0211,4.1874,1.0254,-0.7539,1.1029,-2.0549,-0.6079,
4.061185,0.7018,-0.8560,-0.0211,4.1874,1.0254,-0.7539,1.1420,-3.0567,-0.6586,
4.071169,0.7018,-0.8560,-0.0211,4.1874,1.0254,-0.7539,0.9917,-3.0610,-0.5040,
4.072161,0.5294,-0.6692,0.1338,4.1874,1.0254,-0.7539,0.9917,-3.0610,-0.5040,
4.073228,0.5294,-0.6692,0.1338,2.2827,2.7930,0.7697,0.9917,-3.0610,-0.5040,
4.081430,0.5294,-0.6692,0.1338,2.2827,2.7930,0.7697,1.0308,-2.7525,-0.3098,
4.091242,0.5294,-0.6692,0.1338,2.2827,2.7930,0.7697,1.3992,-2.9510,-0.1186,
4.092823,0.4994,-0.5403,0.4190,2.2827,2.7930,0.7697,1.3992,-2.9510,-0.1186,
4.093799,0.4994,-0.5403,0.4190,1.8303,4.0008,3.4908,1.3992,-2.9510,-0.1186,
4.101442,0.4994,-0.5403,0.4190,1.8303,4.0008,3.4908,1.8194,-3.0304,-0.0495,
4.111172,0.4994,-0.5403,0.4190,1.8303,4.0008,3.4908,2.2135,-3.1618,-0.1564,
4.112459,0.4691,-0.6566,0.5085,1.8303,4.0008,3.4908,2.2135,-3.1618,-0.1564,
4.113416,0.4691,-0.6566,0.5085,1.3875,2.7925,4.1272,2.2135,-3.1618,-0.1564,
4.121415,0.4691,-0.6566,0.5085,1.3875,2.7925,4.1272,2.5610,-3.4391,-0.3935,
4.131421,0.4691,-0.6566,0.5085,1.3875,2.7925,4.1272,2.8579,-3.6022,-0.6616,
4.132887,0.2983,-0.8106,0.6637,1.3875,2.7925,4.1272,2.8579,-3.6022,-0.6616,
4.133725,0.2983,-0.8106,0.6637,-0.5005,1.1643,5.2842,2.8579,-3.6022,-0.6616,
4.141177,0.2983,-0.8106,0.6637,-0.5005,1.1643,5.2842,3.1407,-3.4238,-0.8986,
4.151445,0.2983,-0.8106,0.6637,-0.5005,1.1643,5.2842,3.3875,-2.8612,-1.1106,
4.152360,0.2261,-0.9970,0.7577,-0.5005,1.1643,5.2842,3.3875,-2.8612,-1.1106,
4.153044,0.2261,-0.9970,0.7577,-1.4779,-0.8469,5.7251,3.3875,-2.8612,-1.1106,
4.161196,0.2261,-0.9970,0.7577,-1.4779,-0.8469,5.7251,3.4706,-2.1221,-1.3537,
4.171351,0.2261,-0.9970,0.7577,-1.4779,-0.8469,5.7251,3.3045,-1.4434,-1.6720,
4.172263,0.4711,-1.1921,0.4335,-1.4779,-0.8469,5.7251,3.3045,-1.4434,-1.6720,
4.173253,0.4711,-1.1921,0.4335,0.6064,-3.0169,2.0147,3.3045,-1.4434,-1.6720,
4.181203,0.4711,-1.1921,0.4335,0.6064,-3.0169,2.0147,2.9251,-0.7690,-2.0654,
4.192636,0.4711,-1.1921,0.4335,0.6064,-3.0169,2.0147,2.4480,0.0160,-2.4680,
4.194056,0.6601,-1.2975,0.1417,0.6064,-3.0169,2.0147,2.4480,0.0160,-2.4680,
4.194948,0.6601,-1.2975,0.1417,2.0639,-4.3700,-1.2786,2.4480,0.0160,-2.4680,
4.201134,0.6601,-1.2975,0.1417,2.0639,-4.3700,-1.2786,1.9691,0.6726,-2.7508,
4.211152,0.6601,-1.2975,0.1417,2.0639,-4.3700,-1.2786,1.5079,0.8186,-2.7349,
4.212353,0.3649,-1.4125,-0.0533,2.0639,-4.3700,-1.2786,1.5079,0.8186,-2.7349,
4.213248,0.3649,-1.4125,-0.0533,-1.1844,-5.8025,-3.5013,1.5079,0.8186,-2.7349,
4.221178,0.3649,-1.4125,-0.0533,-1.1844,-5.8025,-3.5013,1.1218,0.4552,-2.3989,
4.231537,0.3649,-1.4125,-0.0533,-1.1844,-5.8025,-3.5013,0.8506,-0.0891,-1.8925,
4.232929,0.3830,-1.4199,0.1490,-1.1844,-5.8025,-3.5013,0.8506,-0.0891,-1.8925,
4.233913,0.3830,-1.4199,0.1490,-1.2669,-6.0808,-1.6371,0.8506,-0.0891,-1.8925,
4.241801,0.3830,-1.4199,0.1490,-1.2669,-6.0808,-1.6371,0.6221,-0.6578,-1.3464,
4.251681,0.3830,-1.4199,0.1490,-1.2669,-6.0808,-1.6371,0.3259,-0.9492,-1.0593,
4.252843,1.1157,-0.7462,0.4256,-1.2669,-6.0808,-1.6371,0.3259,-0.9492,-1.0593,
4.253842,1.1157,-0.7462,0.4256,5.6934,0.3904,1.1114,0.3259,-0.9492,-1.0593,
4.261311,1.1157,-0.7462,0.4256,5.6934,0.3904,1.1114,-0.4658,-0.2284,-1.3580,
4.271301,1.1157,-0.7462,0.4256,5.6934,0.3904,1.1114,-0.9081,0.4497,-1.4319,
4.272464,0.9953,-0.6733,0.3870,5.6934,0.3904,1.1114,-0.9081,0.4497,-1.4319,
4.273639,0.9953,-0.6733,0.3870,4.3026,0.9981,0.8350,-0.9081,0.4497,-1.4319,
4.281282,0.9953,-0.6733,0.3870,4.3026,0.9981,0.8350,-1.3852,1.0123,-1.3971,
4.291545,0.9953,-0.6733,0.3870,4.3026,0.9981,0.8350,-1.8903,1.4155,-1.3886,
4.292889,0.9793,-0.8308,0.3071,4.3026,0.9981,0.8350,-1.8903,1.4155,-1.3886,
4.293862,0.9793,-0.8308,0.3071,3.9930,-0.6094,0.1756,-1.8903,1.4155,-1.3886,
4.301222,0.9793,-0.8308,0.3071,3.9930,-0.6094,0.1756,-2.4163,1.7093,-1.3672,
4.311315,0.9793,-0.8308,0.3071,3.9930,-0.6094,0.1756,-2.9820,1.8938,-1.2187,
4.312472,0.6734,-1.0530,0.0964,3.9930,-0.6094,0.1756,-2.9820,1.8938,-1.2187,
4.313211,0.6734,-1.0530,0.0964,0.8958,-2.7843,-1.6754,-2.9820,1.8938,-1.2187,
4.321198,0.6734,-1.0530,0.0964,0.8958,-2.7843,-1.6754,-3.5268,1.9720,-0.9066,
4.331295,0.6734,-1.0530,0.0964,0.8958,-2.7843,-1.6754,-3.9435,1.9518,-0.4851,
4.332423,0.4148,-1.0580,-0.0430,0.8958,-2.7843,-1.6754,-3.9435,1.9518,-0.4851,
4.333020,0.4148,-1.0580,-0.0430,-1.6402,-2.7173,-2.6760,-3.9435,1.9518,-0.4851,
4.342464,0.4148,-1.0580,-0.0430,-1.6402,-2.7173,-2.6760,-4.2220,1.9457,-0.0447,
4.351554,0.4148,-1.0580,-0.0430,-1.6402,-2.7173,-2.6760,-4.3631,2.1913,0.2877,
4.353088,0.3823,-0.8834,0.1175,-1.6402,-2.7173,-2.6760,-4.3631,2.1913,0.2877,
4.354040,0.3823,-0.8834,0.1175,-1.8464,-0.8089,-0.6609,-4.3631,2.1913,0.2877,
4.361633,0.3823,-0.8834,0.1175,-1.8464,-0.8089,-0.6609,-4.3185,2.6274,0.3946,
4.371205,0.3823,-0.8834,0.1175,-1.8464,-0.8089,-0.6609,-4.1017,3.1369,0.2852,
4.372084,0.4984,-0.7307,0.3015,-1.8464,-0.8089,-0.6609,-4.1017,3.1369,0.2852,
4.372753,0.4984,-0.7307,0.3015,-0.5578,0.8641,1.4872,-4.1017,3.1369,0.2852,
4.381335,0.4984,-0.7307,0.3015,-0.5578,0.8641,1.4872,-3.8005,3.6213,0.0451,
4.392031,0.4984,-0.7307,0.3015,-0.5578,0.8641,1.4872,-3.4884,3.9597,-0.1955,
4.393297,0.2580,-0.6306,0.2617,-0.5578,0.8641,1.4872,-3.4884,3.9597,-0.1955,
4.394265,0.2580,-0.6306,0.2617,-2.8090,1.9427,1.2551,-3.4884,3.9597,-0.1955,
4.401358,0.2580,-0.6306,0.2617,-2.8090,1.9427,1.2551,-3.1646,4.1289,-0.2578,
4.411207,0.2580,-0.6306,0.2617,-2.8090,1.9427,1.2551,-2.8378,4.1662,-0.0550,
4.412343,-0.1821,-0.5308,0.2507,-2.8090,1.9427,1.2551,-2.8378,4.1662,-0.0550,
4.412973,-0.1821,-0.5308,0.2507,-6.9770,3.0132,1.1400,-2.8378,4.1662,-0.0550,
4.421171,-0.1821,-0.5308,0.2507,-6.9770,3.0132,1.1400,-2.4664,4.1295,0.3866,
4.431798,-0.1821,-0.5308,0.2507,-6.9770,3.0132,1.1400,-1.9777,4.0782,0.9590,
4.433148,-0.4070,-0.4533,0.7382,-6.9770,3.0132,1.1400,-1.9777,4.0782,0.9590,
4.434039,-0.4070,-0.4533,0.7382,-8.8345,3.9485,5.7237,-1.9777,4.0782,0.9590,
4.441540,-0.4070,-0.4533,0.7382,-8.8345,3.9485,5.7237,-1.3051,4.2279,2.1251,
4.451304,-0.4070,-0.4533,0.7382,-8.8345,3.9485,5.7237,0.1548,4.4612,2.4574,
4.452224,-0.0206,-0.5869,0.3781,-8.8345,3.9485,5.7237,0.1548,4.4612,2.4574,
4.453083,-0.0206,-0.5869,0.3781,-4.3957,2.8969,1.7607,0.1548,4.4612,2.4574,
4.461180,-0.0206,-0.5869,0.3781,-4.3957,2.8969,1.7607,0.4157,4.5675,2.4526,
4.471433,-0.0206,-0.5869,0.3781,-4.3957,2.8969,1.7607,0.4346,4.2358,2.1642,
4.472354,0.3616,-0.9044,0.2739,-4.3957,2.8969,1.7607,0.4346,4.2358,2.1642,
4.473510,0.3616,-0.9044,0.2739,0.0097,-0.0461,0.2466,0.4346,4.2358,2.1642,
4.481332,0.3616,-0.9044,0.2739,0.0097,-0.0461,0.2466,0.3778,3.3690,1.6181,
4.492028,0.3616,-0.9044,0.2739,0.0097,-0.0461,0.2466,0.1713,2.5816,0.8833,
4.493250,0.6619,-1.1245,-0.1726,0.0097,-0.0461,0.2466,0.1713,2.5816,0.8833,
4.494310,0.6619,-1.1245,-0.1726,3.3274,-2.1313,-4.3690,0.1713,2.5816,0.8833,
4.501176,0.6619,-1.1245,-0.1726,3.3274,-2.1313,-4.3690,-0.2025,2.2395,0.1863,
4.511703,0.6619,-1.1245,-0.1726,3.3274,-2.1313,-4.3690,-0.6246,2.3006,-0.2725,
4.513038,0.3963,-1.2521,-0.3011,3.3274,-2.1313,-4.3690,-0.6246,2.3006,-0.2725,
4.514100,0.3963,-1.2521,-0.3011,0.8328,-3.3383,-5.6124,-0.6246,2.3006,-0.2725,
4.521265,0.3963,-1.2521,-0.3011,0.8328,-3.3383,-5.6124,-0.9130,2.5529,-0.3873,
4.531430,0.3963,-1.2521,-0.3011,0.8328,-3.3383,-5.6124,-0.9893,2.7765,-0.2743,
4.532784,0.4377,-1.2276,-0.1473,0.8328,-3.3383,-5.6124,-0.9893,2.7765,-0.2743,
4.533680,0.4377,-1.2276,-0.1473,1.3078,-3.0434,-3.9945,-0.9893,2.7765,-0.2743,
4.541931,0.4377,-1.2276,-0.1473,1.3078,-3.0434,-3.9945,-0.8800,2.9023,-0.1852,
4.551198,0.4377,-1.2276,-0.1473,1.3078,-3.0434,-3.9945,-0.6246,3.0025,-0.2872,
4.552115,0.8587,-0.9129,-0.0279,1.3078,-3.0434,-3.9945,-0.6246,3.0025,-0.2872,
4.553091,0.8587,-0.9129,-0.0279,5.4781,0.0739,-2.7597,-0.6246,3.0025,-0.2872,
4.561674,0.8587,-0.9129,-0.0279,5.4781,0.0739,-2.7597,-0.2624,3.1033,-0.5285,
4.571411,0.8587,-0.9129,-0.0279,5.4781,0.0739,-2.7597,0.1335,3.1131,-0.6720,
4.572524,0.6567,-0.8771,-0.0382,5.4781,0.0739,-2.7597,0.1335,3.1131,-0.6720,
4.574173,0.6567,-0.8771,-0.0382,3.4661,0.3969,-2.9231,0.1335,3.1131,-0.6720,
4.581557,0.6567,-0.8771,-0.0382,3.4661,0.3969,-2.9231,0.4181,3.0055,-0.5437,
4.593242,0.6567,-0.8771,-0.0382,3.4661,0.3969,-2.9231,0.4346,2.8742,-0.3092,
4.595967,0.5466,-1.0707,-0.3650,3.4661,0.3969,-2.9231,0.4346,2.8742,-0.3092,
4.597184,0.5466,-1.0707,-0.3650,2.3853,-1.5319,-6.2312,0.4346,2.8742,-0.3092,
4.601379,0.5466,-1.0707,-0.3650,2.3853,-1.5319,-6.2312,0.1628,2.7239,-0.1864,
4.611956,0.5466,-1.0707,-0.3650,2.3853,-1.5319,-6.2312,-0.2569,2.5358,-0.1852,
4.613159,0.4283,-1.3571,-0.4816,2.3853,-1.5319,-6.2312,-0.2569,2.5358,-0.1852,
4.614029,0.4283,-1.3571,-0.4816,1.2763,-4.3151,-7.3498,-0.2569,2.5358,-0.1852,
4.621136,0.4283,-1.3571,-0.4816,1.2763,-4.3151,-7.3498,-0.6808,2.2768,-0.2181,
4.631195,0.4283,-1.3571,-0.4816,1.2763,-4.3151,-7.3498,-1.1958,1.3269,-0.1076,
4.632223,0.1328,-1.3597,-0.3463,1.2763,-4.3151,-7.3498,-1.1958,1.3269,-0.1076,
4.633014,0.1328,-1.3597,-0.3463,-1.5816,-4.2615,-5.7841,-1.1958,1.3269,-0.1076,
4.641989,0.1328,-1.3597,-0.3463,-1.5816,-4.2615,-5.7841,-1.2282,0.7142,0.0977,
4.651579,0.1328,-1.3597,-0.3463,-1.5816,-4.2615,-5.7841,-1.1341,0.1430,0.3487,
4.652824,-0.0700,-1.2306,-0.2052,-1.5816,-4.2615,-5.7841,-1.1341,0.1430,0.3487,
4.654113,-0.0700,-1.2306,-0.2052,-3.4918,-2.8872,-4.0519,-1.1341,0.1430,0.3487,
4.661350,-0.0700,-1.2306,-0.2052,-3.4918,-2.8872,-4.0519,-0.9569,-0.2821,0.5900,
4.671298,-0.0700,-1.2306,-0.2052,-3.4918,-2.8872,-4.0519,-0.7389,-0.5027,0.8161,
4.672758,-0.2299,-1.1823,-0.0909,-3.4918,-2.8872,-4.0519,-0.7389,-0.5027,0.8161,
4.674215,-0.2299,-1.1823,-0.0909,-4.8883,-2.3001,-2.6182,-0.7389,-0.5027,0.8161,
4.681329,-0.2299,-1.1823,-0.0909,-4.8883,-2.3001,-2.6182,-0.5104,-0.4642,1.0329,
4.691713,-0.2299,-1.1823,-0.0909,-4.8883,-2.3001,-2.6182,-0.2838,-0.1673,1.2321,
4.692801,-0.3451,-1.2402,0.0107,-4.8883,-2.3001,-2.6182,-0.2838,-0.1673,1.2321,
4.693808,-0.3451,-1.2402,0.0107,-5.7258,-2.7553,-1.4236,-0.2838,-0.1673,1.2321,
4.701908,-0.3451,-1.2402,0.0107,-5.7258,-2.7553,-1.4236,-0.0345,0.3080,1.3695,
4.711873,-0.3451,-1.2402,0.0107,-5.7258,-2.7553,-1.4236,0.2685,0.9072,1.4428,
4.713062,-0.4253,-1.3057,0.1212,-5.7258,-2.7553,-1.4236,0.2685,0.9072,1.4428,
4.713824,-0.4253,-1.3057,0.1212,-6.1136,-3.3007,-0.3053,0.2685,0.9072,1.4428,
4.721154,-0.4253,-1.3057,0.1212,-6.1136,-3.3007,-0.3053,0.5812,1.3434,1.4532,
4.731319,-0.4253,-1.3057,0.1212,-6.1136,-3.3007,-0.3053,0.8702,1.5205,1.3897,
4.732509,-0.4799,-1.2535,0.0892,-6.1136,-3.3007,-0.3053,0.8702,1.5205,1.3897,
4.733445,-0.4799,-1.2535,0.0892,-6.2045,-2.7282,-0.7359,0.8702,1.5205,1.3897,
4.743395,-0.4799,-1.2535,0.0892,-6.2045,-2.7282,-0.7359,1.1438,1.5156,1.2614,
4.751205,-0.4799,-1.2535,0.0892,-6.2045,-2.7282,-0.7359,1.4615,1.4521,1.1087,
4.752180,-0.5024,-0.8852,0.3257,-6.2045,-2.7282,-0.7359,1.4615,1.4521,1.1087,
4.753110,-0.5024,-0.8852,0.3257,-6.0012,0.8944,1.3401,1.4615,1.4521,1.1087,
4.761295,-0.5024,-0.8852,0.3257,-6.0012,0.8944,1.3401,1.8097,1.4790,0.9596,
4.771368,-0.5024,-0.8852,0.3257,-6.0012,0.8944,1.3401,2.0699,1.6940,0.7892,
4.772278,-0.2995,-0.4272,0.5350,-6.0012,0.8944,1.3401,2.0699,1.6940,0.7892,
4.773293,-0.2995,-0.4272,0.5350,-3.6322,5.3345,2.9985,2.0699,1.6940,0.7892,
4.781293,-0.2995,-0.4272,0.5350,-3.6322,5.3345,2.9985,2.0803,2.0428,0.6267,
4.792234,-0.2995,-0.4272,0.5350,-3.6322,5.3345,2.9985,1.7321,2.1601,0.5222,
4.793554,-0.1439,-0.1203,0.3100,-3.6322,5.3345,2.9985,1.7321,2.1601,0.5222,
4.794525,-0.1439,-0.1203,0.3100,-1.7478,8.2570,0.3895,1.7321,2.1601,0.5222,
4.801393,-0.1439,-0.1203,0.3100,-1.7478,8.2570,0.3895,0.9997,1.6115,0.4972,
4.811253,-0.1439,-0.1203,0.3100,-1.7478,8.2570,0.3895,-0.8439,-1.2876,0.6945,
4.812475,0.0390,-0.3656,0.1847,-1.7478,8.2570,0.3895,-0.8439,-1.2876,0.6945,
4.813213,0.0390,-0.3656,0.1847,0.2733,5.8480,-0.8762,-0.8439,-1.2876,0.6945,
4.821265,0.0390,-0.3656,0.1847,0.2733,5.8480,-0.8762,-1.4371,-2.8484,0.8093,
4.831349,0.0390,-0.3656,0.1847,0.2733,5.8480,-0.8762,-1.8354,-3.9095,0.8222,
4.832962,0.1677,-0.7351,0.2051,0.2733,5.8480,-0.8762,-1.8354,-3.9095,0.8222,
4.833684,0.1677,-0.7351,0.2051,1.5621,2.3058,-0.3826,-1.8354,-3.9095,0.8222,
4.842524,0.1677,-0.7351,0.2051,1.5621,2.3058,-0.3826,-2.1066,-4.3554,0.7055,
4.851177,0.1677,-0.7351,0.2051,1.5621,2.3058,-0.3826,-2.2758,-4.3444,0.5173,
4.852165,0.1427,-1.1087,0.1571,1.5621,2.3058,-0.3826,-2.2758,-4.3444,0.5173,
4.852934,0.1427,-1.1087,0.1571,1.2501,-1.2596,-0.4320,-2.2758,-4.3444,0.5173,
4.861576,0.1427,-1.1087,0.1571,1.2501,-1.2596,-0.4320,-2.3668,-4.1336,0.3426,
4.871476,0.1427,-1.1087,0.1571,1.2501,-1.2596,-0.4320,-2.4126,-3.8423,0.2052,
4.872975,0.1108,-1.4905,0.0539,1.2501,-1.2596,-0.4320,-2.4126,-3.8423,0.2052,
4.874764,0.1108,-1.4905,0.0539,0.8522,-4.9179,-0.9676,-2.4126,-3.8423,0.2052,
4.881407,0.1108,-1.4905,0.0539,0.8522,-4.9179,-0.9676,-2.4352,-3.4684,0.0946,
4.894166,0.1108,-1.4905,0.0539,0.8522,-4.9179,-0.9676,-2.4365,-2.8856,-0.0147,
4.896635,0.1568,-1.5502,-0.0134,0.8522,-4.9179,-0.9676,-2.4365,-2.8856,-0.0147,
4.899644,0.1568,-1.5502,-0.0134,1.2298,-5.4422,-1.1366,-2.4365,-2.8856,-0.0147,
4.902020,0.1568,-1.5502,-0.0134,1.2298,-5.4422,-1.1366,-2.4114,-2.1105,-0.1082,
4.911545,0.1568,-1.5502,-0.0134,1.2298,-5.4422,-1.1366,-2.3613,-1.4690,-0.1540,
4.913535,0.1438,-1.2981,0.0239,1.2298,-5.4422,-1.1366,-2.3613,-1.4690,-0.1540,
4.914750,0.1438,-1.2981,0.0239,1.0446,-2.9360,-0.2945,-2.3613,-1.4690,-0.1540,
4.922261,0.1438,-1.2981,0.0239,1.0446,-2.9360,-0.2945,-2.1164,-1.1593,-0.1357,
4.931819,0.1438,-1.2981,0.0239,1.0446,-2.9360,-0.2945,-1.2404,-1.5106,-0.0337,
4.933400,0.0336,-0.9125,0.7063,1.0446,-2.9360,-0.2945,-1.2404,-1.5106,-0.0337,
4.934519,0.0336,-0.9125,0.7063,-0.0684,0.8525,6.6496,-1.2404,-1.5106,-0.0337,
4.944000,0.0336,-0.9125,0.7063,-0.0684,0.8525,6.6496,-0.3418,-1.8539,0.2577,
4.951629,0.0336,-0.9125,0.7063,-0.0684,0.8525,6.6496,-0.0700,-1.6218,0.7018,
4.952767,-0.2320,-0.8788,-0.1052,-0.0684,0.8525,6.6496,-0.0700,-1.6218,0.7018,
4.953906,-0.2320,-0.8788,-0.1052,-2.5702,1.1868,-1.2898,-0.0700,-1.6218,0.7018,
4.962531,-0.2320,-0.8788,-0.1052,-2.5702,1.1868,-1.2898,-0.2325,-1.1227,1.1465,
4.971412,-0.2320,-0.8788,-0.1052,-2.5702,1.1868,-1.2898,-0.4878,-0.7458,1.4868,
4.972443,-0.2654,-0.9096,0.0850,-2.5702,1.1868,-1.2898,-0.4878,-0.7458,1.4868,
4.973160,-0.2654,-0.9096,0.0850,-2.6192,0.8904,0.6069,-0.4878,-0.7458,1.4868,
4.981249,-0.2654,-0.9096,0.0850,-2.6192,0.8904,0.6069,-0.4988,-0.4837,1.7580,
4.992516,-0.2654,-0.9096,0.0850,-2.6192,0.8904,0.6069,-0.0474,-0.2259,1.8942,
4.993752,0.6037,-1.1777,1.3668,-2.6192,0.8904,0.6069,-0.0474,-0.2259,1.8942,
4.994676,0.6037,-1.1777,1.3668,6.2059,-1.7445,13.0631,-0.0474,-0.2259,1.8942,
5.001160,0.6037,-1.1777,1.3668,6.2059,-1.7445,13.0631,0.8970,-0.0549,0.8552,
5.011488,0.6037,-1.1777,1.3668,6.2059,-1.7445,13.0631,0.4688,-0.7916,-0.1680,
5.012641,1.3215,-0.9997,-0.0495,6.2059,-1.7445,13.0631,0.4688,-0.7916,-0.1680,
5.013468,1.3215,-0.9997,-0.0495,13.1403,-0.0085,-1.0495,0.4688,-0.7916,-0.1680,
5.021350,1.3215,-0.9997,-0.0495,13.1403,-0.0085,-1.0495,-0.3620,-1.8148,-1.2927,
5.031690,1.3215,-0.9997,-0.0495,13.1403,-0.0085,-1.0495,-1.1219,-2.3695,-2.2694,
5.032898,0.9990,-0.8325,-0.3274,13.1403,-0.0085,-1.0495,-1.1219,-2.3695,-2.2694,
5.033587,0.9990,-0.8325,-0.3274,9.4086,1.6303,-3.6662,-1.1219,-2.3695,-2.2694,
5.042587,0.9990,-0.8325,-0.3274,9.4086,1.6303,-3.6662,-1.5556,-2.2149,-2.8766,
5.051325,0.9990,-0.8325,-0.3274,9.4086,1.6303,-3.6662,-1.4884,-1.7476,-3.1466,
5.052313,0.7725,-0.7086,0.4647,9.4086,1.6303,-3.6662,-1.4884,-1.7476,-3.1466,
5.053328,0.7725,-0.7086,0.4647,6.3936,2.7890,4.3394,-1.4884,-1.7476,-3.1466,
5.061282,0.7725,-0.7086,0.4647,6.3936,2.7890,4.3394,-0.8403,-1.3230,-3.1827,
5.071441,0.7725,-0.7086,0.4647,6.3936,2.7890,4.3394,-0.0547,-0.9504,-2.9799,
5.072340,0.7440,-0.7120,0.4746,6.3936,2.7890,4.3394,-0.0547,-0.9504,-2.9799,
5.073010,0.7440,-0.7120,0.4746,5.3359,2.6297,4.4506,-0.0547,-0.9504,-2.9799,
5.081239,0.7440,-0.7120,0.4746,5.3359,2.6297,4.4506,0.5134,-0.3787,-2.4331,
5.092578,0.7440,-0.7120,0.4746,5.3359,2.6297,4.4506,0.8598,0.2768,-1.5883,
5.094165,0.7313,-0.7239,0.2122,5.3359,2.6297,4.4506,0.8598,0.2768,-1.5883,
5.095246,0.7313,-0.7239,0.2122,4.6599,2.3774,1.6598,0.8598,0.2768,-1.5883,
5.102397,0.7313,-0.7239,0.2122,4.6599,2.3774,1.6598,0.9716,0.9237,-0.6659,
5.111571,0.7313,-0.7239,0.2122,4.6599,2.3774,1.6598,0.8720,1.5230,0.0170,
5.114954,1.2527,-0.6692,0.0867,4.6599,2.3774,1.6598,0.8720,1.5230,0.0170,
5.116336,1.2527,-0.6692,0.0867,9.5164,2.8256,0.1379,0.8720,1.5230,0.0170,
5.121743,1.2527,-0.6692,0.0867,9.5164,2.8256,0.1379,0.6502,1.9744,0.2253,
5.133721,1.2527,-0.6692,0.0867,9.5164,2.8256,0.1379,0.3607,2.2933,0.0983,
5.135679,1.0177,-0.8614,0.0325,9.5164,2.8256,0.1379,0.3607,2.2933,0.0983,
5.137303,1.0177,-0.8614,0.0325,7.0753,0.8784,-0.6331,0.3607,2.2933,0.0983,
5.144398,1.0177,-0.8614,0.0325,7.0753,0.8784,-0.6331,0.0773,2.5388,0.0250,
5.151304,1.0177,-0.8614,0.0325,7.0753,0.8784,-0.6331,-0.1750,2.6635,0.0745,
5.152523,0.5297,-0.9455,-0.0892,7.0753,0.8784,-0.6331,-0.1750,2.6635,0.0745,
5.153490,0.5297,-0.9455,-0.0892,2.1845,0.0058,-1.9578,-0.1750,2.6635,0.0745,
5.162872,0.5297,-0.9455,-0.0892,2.1845,0.0058,-1.9578,-0.3742,2.6604,0.1832,
5.171257,0.5297,-0.9455,-0.0892,2.1845,0.0058,-1.9578,-0.4792,2.5804,0.3341,
5.172252,0.2073,-0.9043,-0.1250,2.1845,0.0058,-1.9578,-0.4792,2.5804,0.3341,
5.173017,0.2073,-0.9043,-0.1250,-0.9923,0.3980,-2.3543,-0.4792,2.5804,0.3341,
5.181321,0.2073,-0.9043,-0.1250,-0.9923,0.3980,-2.3543,-0.4982,2.1607,0.7452,
5.193239,0.2073,-0.9043,-0.1250,-0.9923,0.3980,-2.3543,-0.4835,1.7875,0.9730,
5.194611,-0.0822,-0.7418,-0.3408,-0.9923,0.3980,-2.3543,-0.4835,1.7875,0.9730,
5.195696,-0.0822,-0.7418,-0.3408,-3.6991,2.0374,-4.4216,-0.4835,1.7875,0.9730,
5.201276,-0.0822,-0.7418,-0.3408,-3.6991,2.0374,-4.4216,-0.4340,1.2792,1.1361,
5.211469,-0.0822,-0.7418,-0.3408,-3.6991,2.0374,-4.4216,-0.3021,0.7588,1.1801,
5.212798,-0.0876,-0.5960,-0.3026,-3.6991,2.0374,-4.4216,-0.3021,0.7588,1.1801,
5.213613,-0.0876,-0.5960,-0.3026,-3.5503,3.5397,-3.9312,-0.3021,0.7588,1.1801,
5.221263,-0.0876,-0.5960,-0.3026,-3.5503,3.5397,-3.9312,-0.0810,0.3183,1.1001,
5.231666,-0.0876,-0.5960,-0.3026,-3.5503,3.5397,-3.9312,0.2025,0.0862,0.9059,
5.233608,-0.0871,-0.6481,-0.1352,-3.5503,3.5397,-3.9312,0.2025,0.0862,0.9059,
5.234792,-0.0871,-0.6481,-0.1352,-3.3529,3.0899,-2.2069,0.2025,0.0862,0.9059,
5.244209,-0.0871,-0.6481,-0.1352,-3.3529,3.0899,-2.2069,0.5269,0.0942,0.6493,
5.251883,-0.0871,-0.6481,-0.1352,-3.3529,3.0899,-2.2069,0.8873,0.2854,0.3732,
5.253263,-0.0811,-1.0285,0.1176,-3.3529,3.0899,-2.2069,0.8873,0.2854,0.3732,
5.254515,-0.0811,-1.0285,0.1176,-3.1543,-0.6090,0.1983,0.8873,0.2854,0.3732,
5.261701,-0.0811,-1.0285,0.1176,-3.1543,-0.6090,0.1983,1.2611,0.6006,0.0574,
5.272160,-0.0811,-1.0285,0.1176,-3.1543,-0.6090,0.1983,1.6392,0.9659,-0.3183,
5.274946,0.1113,-1.4515,0.3773,-3.1543,-0.6090,0.1983,1.6392,0.9659,-0.3183,
5.277102,0.1113,-1.4515,0.3773,-1.2336,-4.7791,2.4568,1.6392,0.9659,-0.3183,
5.282600,0.1113,-1.4515,0.3773,-1.2336,-4.7791,2.4568,2.0137,1.2554,-0.6683,
5.295205,0.1113,-1.4515,0.3773,-1.2336,-4.7791,2.4568,2.3313,1.4051,-0.8455,
5.298212,0.0034,-1.5168,0.5047,-1.2336,-4.7791,2.4568,2.3313,1.4051,-0.8455,
5.300349,0.0034,-1.5168,0.5047,-2.3267,-5.5005,3.2382,2.3313,1.4051,-0.8455,
5.302429,0.0034,-1.5168,0.5047,-2.3267,-5.5005,3.2382,2.5054,1.4900,-0.8027,
5.312792,0.0034,-1.5168,0.5047,-2.3267,-5.5005,3.2382,2.4615,1.5767,-0.6286,
5.315607,-0.1097,-1.1601,0.3858,-2.3267,-5.5005,3.2382,2.4615,1.5767,-0.6286,
5.317561,-0.1097,-1.1601,0.3858,-3.4223,-2.1131,1.5463,2.4615,1.5767,-0.6286,
5.321968,-0.1097,-1.1601,0.3858,-3.4223,-2.1131,1.5463,2.1615,1.5871,-0.4478,
5.332280,-0.1097,-1.1601,0.3858,-3.4223,-2.1131,1.5463,1.6521,1.3703,-0.2982,
5.334490,-0.1127,-0.8840,0.1976,-3.4223,-2.1131,1.5463,1.6521,1.3703,-0.2982,
5.335902,-0.1127,-0.8840,0.1976,-3.3539,0.5118,-0.6953,1.6521,1.3703,-0.2982,
5.344431,-0.1127,-0.8840,0.1976,-3.3539,0.5118,-0.6953,1.0070,0.8669,-0.1827,
5.351965,-0.1127,-0.8840,0.1976,-3.3539,0.5118,-0.6953,0.1842,0.2133,-0.0941,
5.353893,-0.0535,-0.8782,0.1874,-3.3539,0.5118,-0.6953,0.1842,0.2133,-0.0941,
5.355165,-0.0535,-0.8782,0.1874,-2.6739,0.5616,-0.9032,0.1842,0.2133,-0.0941,
5.362147,-0.0535,-0.8782,0.1874,-2.6739,0.5616,-0.9032,-0.7321,-0.4098,0.0806,
5.372287,-0.0535,-0.8782,0.1874,-2.6739,0.5616,-0.9032,-1.7388,-0.7824,0.1032,
5.374533,-0.0200,-1.0754,0.2777,-2.6739,0.5616,-0.9032,-1.7388,-0.7824,0.1032,
5.376772,-0.0200,-1.0754,0.2777,-2.2679,-1.2789,0.2464,-1.7388,-0.7824,0.1032,
5.384458,-0.0200,-1.0754,0.2777,-2.2679,-1.2789,0.2464,-1.9704,-0.5051,0.1093,
5.394776,-0.0200,-1.0754,0.2777,-2.2679,-1.2789,0.2464,-2.1048,-0.2107,0.1166,
5.396670,0.0331,-1.0559,0.1522,-2.2679,-1.2789,0.2464,-2.1048,-0.2107,0.1166,
5.398697,0.0331,-1.0559,0.1522,-1.6596,-0.9714,-0.5864,-2.1048,-0.2107,0.1166,
5.402893,0.0331,-1.0559,0.1522,-1.6596,-0.9714,-0.5864,-2.1298,-0.0268,0.0934,
5.412001,0.0331,-1.0559,0.1522,-1.6596,-0.9714,-0.5864,-2.0620,-0.0066,0.0195,
5.413399,0.2190,-1.1002,0.1394,-1.6596,-0.9714,-0.5864,-2.0620,-0.0066,0.0195,
5.415123,0.2190,-1.1002,0.1394,0.2234,-1.3149,-0.3195,-2.0620,-0.0066,0.0195,
5.423963,0.2190,-1.1002,0.1394,0.2234,-1.3149,-0.3195,-1.9197,-0.1893,-0.0917,
5.431735,0.2190,-1.1002,0.1394,0.2234,-1.3149,-0.3195,-1.6888,-0.4746,-0.2310,
5.433414,0.4055,-1.2159,0.3657,0.2234,-1.3149,-0.3195,-1.6888,-0.4746,-0.2310,
5.435040,0.4055,-1.2159,0.3657,2.0270,-2.3996,2.2360,-1.6888,-0.4746,-0.2310,
5.443722,0.4055,-1.2159,0.3657,2.0270,-2.3996,2.2360,-1.3461,-0.6939,-0.3928,
5.452003,0.4055,-1.2159,0.3657,2.0270,-2.3996,2.2360,-0.9123,-0.7207,-0.5352,
5.453722,0.4578,-1.2516,0.6908,2.0270,-2.3996,2.2360,-0.9123,-0.7207,-0.5352,
5.454792,0.4578,-1.2516,0.6908,2.4393,-2.7475,5.5920,-0.9123,-0.7207,-0.5352,
5.464466,0.4578,-1.2516,0.6908,2.4393,-2.7475,5.5920,-0.4805,-0.5790,-0.6042,
5.471297,0.4578,-1.2516,0.6908,2.4393,-2.7475,5.5920,-0.1622,-0.4403,-0.5889,
5.474526,0.4021,-1.1054,0.5784,2.4393,-2.7475,5.5920,-0.1622,-0.4403,-0.5889,
5.475719,0.4021,-1.1054,0.5784,1.7637,-1.3445,4.4820,-0.1622,-0.4403,-0.5889,
5.481890,0.4021,-1.1054,0.5784,1.7637,-1.3445,4.4820,-0.0614,-0.4715,-0.4991,
5.491407,0.4021,-1.1054,0.5784,1.7637,-1.3445,4.4820,-0.1830,-0.6108,-0.3366,
5.492457,0.2040,-0.8396,0.3506,1.7637,-1.3445,4.4820,-0.1830,-0.6108,-0.3366,
5.493310,0.2040,-0.8396,0.3506,-0.2697,1.2331,2.2038,-0.1830,-0.6108,-0.3366,
5.501244,0.2040,-0.8396,0.3506,-0.2697,1.2331,2.2038,-0.4267,-0.6884,-0.1406,
5.511471,0.2040,-0.8396,0.3506,-0.2697,1.2331,2.2038,-0.7169,-0.6389,0.0122,
5.512624,-0.0408,-0.7478,0.3778,-0.2697,1.2331,2.2038,-0.7169,-0.6389,0.0122,
5.513343,-0.0408,-0.7478,0.3778,-2.6732,2.1353,2.5042,-0.7169,-0.6389,0.0122,
5.521185,-0.0408,-0.7478,0.3778,-2.6732,2.1353,2.5042,-1.0040,-0.5246,0.1453,
5.531226,-0.0408,-0.7478,0.3778,-2.6732,2.1353,2.5042,-1.2611,-0.4196,0.2754,
5.532292,-0.1209,-0.8131,0.3641,-2.6732,2.1353,2.5042,-1.2611,-0.4196,0.2754,
5.533170,-0.1209,-0.8131,0.3641,-3.3803,1.5289,2.4905,-1.2611,-0.4196,0.2754,
5.541291,-0.1209,-0.8131,0.3641,-3.3803,1.5289,2.4905,-1.3992,-0.3670,0.3689,
5.551765,-0.1209,-0.8131,0.3641,-3.3803,1.5289,2.4905,-1.3980,-0.8863,0.2938,
5.553797,0.1543,-0.9303,-0.0705,-3.3803,1.5289,2.4905,-1.3980,-0.8863,0.2938,
5.555189,0.1543,-0.9303,-0.0705,-0.5927,0.4223,-1.5508,-1.3980,-0.8863,0.2938,
5.561874,0.1543,-0.9303,-0.0705,-0.5927,0.4223,-1.5508,-1.4493,-1.2552,0.0659,
5.572162,0.1543,-0.9303,-0.0705,-0.5927,0.4223,-1.5508,-1.6069,-1.5387,-0.2212,
5.573904,0.2895,-0.9626,-0.4368,-0.5927,0.4223,-1.5508,-1.6069,-1.5387,-0.2212,
5.575576,0.2895,-0.9626,-0.4368,0.7061,0.1254,-4.7934,-1.6069,-1.5387,-0.2212,
5.582205,0.2895,-0.9626,-0.4368,0.7061,0.1254,-4.7934,-1.8323,-1.6920,-0.4936,
5.591990,0.2895,-0.9626,-0.4368,0.7061,0.1254,-4.7934,-2.0021,-1.6957,-0.7062,
5.594757,0.3356,-0.9015,-0.3615,0.7061,0.1254,-4.7934,-2.0021,-1.6957,-0.7062,
5.596276,0.3356,-0.9015,-0.3615,1.0345,0.7093,-3.6051,-2.0021,-1.6957,-0.7062,
5.602360,0.3356,-0.9015,-0.3615,1.0345,0.7093,-3.6051,-2.0235,-1.5833,-0.8363,
5.612931,0.3356,-0.9015,-0.3615,1.0345,0.7093,-3.6051,-1.8916,-1.3799,-0.8876,
5.615505,0.4334,-0.8262,-0.1706,1.0345,0.7093,-3.6051,-1.8916,-1.3799,-0.8876,
5.617316,0.4334,-0.8262,-0.1706,1.8269,1.3981,-1.2846,-1.8916,-1.3799,-0.8876,
5.621807,0.4334,-0.8262,-0.1706,1.8269,1.3981,-1.2846,-1.6521,-1.1184,-0.9060,
5.632059,0.4334,-0.8262,-0.1706,1.8269,1.3981,-1.2846,-1.3852,-0.8264,-0.8889,
5.634179,0.4961,-0.7951,-0.1345,1.8269,1.3981,-1.2846,-1.3852,-0.8264,-0.8889,
5.635799,0.4961,-0.7951,-0.1345,2.2593,1.6349,-0.5875,-1.3852,-0.8264,-0.8889,
5.642334,0.4961,-0.7951,-0.1345,2.2593,1.6349,-0.5875,-1.1353,-0.5723,-0.7924,
5.652322,0.4961,-0.7951,-0.1345,2.2593,1.6349,-0.5875,-0.9007,-0.4208,-0.6146,
5.654974,0.4297,-0.8535,-0.1490,2.2593,1.6349,-0.5875,-0.9007,-0.4208,-0.6146,
5.656862,0.4297,-0.8535,-0.1490,1.4579,0.9995,-0.5064,-0.9007,-0.4208,-0.6146,
5.662083,0.4297,-0.8535,-0.1490,1.4579,0.9995,-0.5064,-0.6717,-0.5234,-0.3159,
5.672325,0.4297,-0.8535,-0.1490,1.4579,0.9995,-0.5064,-0.4701,-0.8704,0.0855,
5.673922,0.2774,-0.9888,-0.2200,1.4579,0.9995,-0.5064,-0.4701,-0.8704,0.0855,
5.675527,0.2774,-0.9888,-0.2200,-0.0549,-0.3495,-1.0502,-0.4701,-0.8704,0.0855,
5.682306,0.2774,-0.9888,-0.2200,-0.0549,-0.3495,-1.0502,-0.2587,-1.3585,0.4398,
5.692264,0.2774,-0.9888,-0.2200,-0.0549,-0.3495,-1.0502,0.0235,-1.8539,0.7104,
5.693950,0.0953,-1.0825,-0.1412,-0.0549,-0.3495,-1.0502,0.0235,-1.8539,0.7104,
5.695609,0.0953,-1.0825,-0.1412,-1.6944,-1.2394,-0.1676,0.0235,-1.8539,0.7104,
5.702307,0.0953,-1.0825,-0.1412,-1.6944,-1.2394,-0.1676,0.3302,-2.2424,0.9083,
5.712243,0.0953,-1.0825,-0.1412,-1.6944,-1.2394,-0.1676,0.5910,-2.5026,1.0219,
5.714904,-0.0164,-1.0633,-0.1588,-1.6944,-1.2394,-0.1676,0.5910,-2.5026,1.0219,
5.716701,-0.0164,-1.0633,-0.1588,-2.5397,-0.9898,-0.3050,0.5910,-2.5026,1.0219,
5.721894,-0.0164,-1.0633,-0.1588,-2.5397,-0.9898,-0.3050,0.7755,-2.6657,1.0372,
5.731802,-0.0164,-1.0633,-0.1588,-2.5397,-0.9898,-0.3050,0.8830,-2.7696,0.9614,
5.734107,-0.0061,-0.9254,-0.2504,-2.5397,-0.9898,-0.3050,0.8830,-2.7696,0.9614,
5.735725,-0.0061,-0.9254,-0.2504,-2.1665,0.4293,-1.2254,0.8830,-2.7696,0.9614,
5.742273,-0.0061,-0.9254,-0.2504,-2.1665,0.4293,-1.2254,0.8842,-2.8325,0.5436,
5.751779,-0.0061,-0.9254,-0.2504,-2.1665,0.4293,-1.2254,0.7810,-2.7366,0.2351,
5.754003,0.0948,-0.8455,-0.3142,-2.1665,0.4293,-1.2254,0.7810,-2.7366,0.2351,
5.755279,0.0948,-0.8455,-0.3142,-1.0167,1.2487,-1.8670,0.7810,-2.7366,0.2351,
5.762143,0.0948,-0.8455,-0.3142,-1.0167,1.2487,-1.8670,0.6484,-2.5888,-0.0092,
5.772366,0.0948,-0.8455,-0.3142,-1.0167,1.2487,-1.8670,0.5262,-2.4794,-0.1564,
5.774209,0.2187,-0.8352,-0.3280,-1.0167,1.2487,-1.8670,0.5262,-2.4794,-0.1564,
5.776242,0.2187,-0.8352,-0.3280,0.2530,1.3578,-1.9728,0.5262,-2.4794,-0.1564,
5.782037,0.2187,-0.8352,-0.3280,0.2530,1.3578,-1.9728,0.4572,-2.4312,-0.2853,
5.792442,0.2187,-0.8352,-0.3280,0.2530,1.3578,-1.9728,0.5244,-2.4641,-0.4686,
5.794456,0.5376,-0.7842,-0.1019,0.2530,1.3578,-1.9728,0.5244,-2.4641,-0.4686,
5.796213,0.5376,-0.7842,-0.1019,3.3421,1.8461,0.2706,0.5244,-2.4641,-0.4686,
5.802007,0.5376,-0.7842,-0.1019,3.3421,1.8461,0.2706,0.8011,-2.6657,-0.7465,
5.811934,0.5376,-0.7842,-0.1019,3.3421,1.8461,0.2706,1.2153,-3.0445,-1.0764,
5.814285,0.7582,-0.8218,0.0053,3.3421,1.8461,0.2706,1.2153,-3.0445,-1.0764,
5.816354,0.7582,-0.8218,0.0053,5.3173,1.4463,1.2545,1.2153,-3.0445,-1.0764,
5.821881,0.7582,-0.8218,0.0053,5.3173,1.4463,1.2545,1.6148,-3.5032,-1.3843,
5.831940,0.7582,-0.8218,0.0053,5.3173,1.4463,1.2545,1.9471,-4.0090,-1.6451,
5.834317,0.8101,-0.9538,0.0015,5.3173,1.4463,1.2545,1.9471,-4.0090,-1.6451,
5.835756,0.8101,-0.9538,0.0015,5.5180,0.0997,1.0480,1.9471,-4.0090,-1.6451,
5.842317,0.8101,-0.9538,0.0015,5.5180,0.0997,1.0480,2.2587,-4.6981,-1.7978,
5.851900,0.8101,-0.9538,0.0015,5.5180,0.0997,1.0480,2.5867,-5.7384,-1.7850,
5.854223,0.5025,-1.1881,0.0975,5.5180,0.0997,1.0480,2.5867,-5.7384,-1.7850,
5.855770,0.5025,-1.1881,0.0975,2.1855,-2.2632,1.7835,2.5867,-5.7384,-1.7850,
5.861770,0.5025,-1.1881,0.0975,2.1855,-2.2632,1.7835,2.8255,-6.9051,-1.5926,
5.872021,0.5025,-1.1881,0.0975,2.1855,-2.2632,1.7835,2.9471,-7.8037,-1.3018,
5.873906,0.2167,-1.0163,0.1537,2.1855,-2.2632,1.7835,2.9471,-7.8037,-1.3018,
5.875377,0.2167,-1.0163,0.1537,-0.8080,-0.6265,2.1863,2.9471,-7.8037,-1.3018,
5.881975,0.2167,-1.0163,0.1537,-0.8080,-0.6265,2.1863,2.9929,-8.1140,-1.0080,
5.892016,0.2167,-1.0163,0.1537,-0.8080,-0.6265,2.1863,2.8738,-7.6541,-0.7698,
5.894076,0.1931,-0.7415,-0.0432,-0.8080,-0.6265,2.1863,2.8738,-7.6541,-0.7698,
5.895791,0.1931,-0.7415,-0.0432,-1.1174,2.0482,0.1663,2.8738,-7.6541,-0.7698,
5.902099,0.1931,-0.7415,-0.0432,-1.1174,2.0482,0.1663,2.4266,-6.2845,-0.6048,
5.912523,0.1931,-0.7415,-0.0432,-1.1174,2.0482,0.1663,1.6313,-4.1330,-0.4045,
5.915525,0.3792,-0.9936,-0.2099,-1.1174,2.0482,0.1663,1.6313,-4.1330,-0.4045,
5.917664,0.3792,-0.9936,-0.2099,0.6615,-0.4334,-1.5277,1.6313,-4.1330,-0.4045,
5.921982,0.3792,-0.9936,-0.2099,0.6615,-0.4334,-1.5277,0.1127,-0.0384,0.0708,
5.931962,0.3792,-0.9936,-0.2099,0.6615,-0.4334,-1.5277,-0.2563,1.0789,0.1795,
5.934246,0.6869,-1.0588,0.1073,0.6615,-0.4334,-1.5277,-0.2563,1.0789,0.1795,
5.935704,0.6869,-1.0588,0.1073,3.6597,-1.0767,1.5509,-0.2563,1.0789,0.1795,
5.943179,0.6869,-1.0588,0.1073,3.6597,-1.0767,1.5509,-0.3161,1.3470,0.1325,
5.953187,0.6869,-1.0588,0.1073,3.6597,-1.0767,1.5509,-0.2648,1.0654,-0.0068,
5.955605,0.6960,-0.8354,0.0496,3.6597,-1.0767,1.5509,-0.2648,1.0654,-0.0068,
5.957411,0.6960,-0.8354,0.0496,3.6780,1.0910,0.9460,-0.2648,1.0654,-0.0068,
5.965571,0.6960,-0.8354,0.0496,3.6780,1.0910,0.9460,-0.3558,0.8248,-0.1265,
5.971635,0.6960,-0.8354,0.0496,3.6780,1.0910,0.9460,-0.6478,0.8981,-0.2346,
5.973224,0.4918,-0.5700,-0.1918,3.6780,1.0910,0.9460,-0.6478,0.8981,-0.2346,
5.974677,0.4918,-0.5700,-0.1918,1.5544,3.6480,-1.3804,-0.6478,0.8981,-0.2346,
5.981986,0.4918,-0.5700,-0.1918,1.5544,3.6480,-1.3804,-1.0504,1.1632,-0.3782,
5.992008,0.4918,-0.5700,-0.1918,1.5544,3.6480,-1.3804,-1.4627,1.4759,-0.5297,
5.993994,0.2899,-0.4856,-0.2118,1.5544,3.6480,-1.3804,-1.4627,1.4759,-0.5297,
5.995643,0.2899,-0.4856,-0.2118,-0.5953,4.4027,-1.4145,-1.4627,1.4759,-0.5297,
6.002257,0.2899,-0.4856,-0.2118,-0.5953,4.4027,-1.4145,-1.8183,1.7826,-0.6146,
6.012432,0.2899,-0.4856,-0.2118,-0.5953,4.4027,-1.4145,-2.0528,2.0196,-0.6073,
6.014588,0.0871,-0.6001,-0.0705,-0.5953,4.4027,-1.4145,-2.0528,2.0196,-0.6073,
6.015930,0.0871,-0.6001,-0.0705,-2.7421,3.1992,0.1954,-2.0528,2.0196,-0.6073,
6.021305,0.0871,-0.6001,-0.0705,-2.7421,3.1992,0.1954,-2.0712,2.0740,-0.5211,
6.031276,0.0871,-0.6001,-0.0705,-2.7421,3.1992,0.1954,-1.7071,1.8803,-0.3605,
6.032753,0.0167,-0.8366,0.6867,-2.7421,3.1992,0.1954,-1.7071,1.8803,-0.3605,
6.033695,0.0167,-0.8366,0.6867,-3.5356,0.8302,7.7090,-1.7071,1.8803,-0.3605,
6.041342,0.0167,-0.8366,0.6867,-3.5356,0.8302,7.7090,-0.7126,1.1870,-0.2181,
6.051182,0.0167,-0.8366,0.6867,-3.5356,0.8302,7.7090,0.4169,0.0777,-0.2188,
6.052132,0.1978,-0.9979,0.2433,-3.5356,0.8302,7.7090,0.4169,0.0777,-0.2188,
6.052954,0.1978,-0.9979,0.2433,-1.7804,-0.7446,3.2338,0.4169,0.0777,-0.2188,
6.061309,0.1978,-0.9979,0.2433,-1.7804,-0.7446,3.2338,0.6997,-0.5973,-0.2340,
6.071353,0.1978,-0.9979,0.2433,-1.7804,-0.7446,3.2338,0.2642,-0.5283,-0.0966,
6.072203,0.0088,-1.0534,-0.2806,-1.7804,-0.7446,3.2338,0.2642,-0.5283,-0.0966,
6.072866,0.0088,-1.0534,-0.2806,-3.5851,-1.2618,-1.9935,0.2642,-0.5283,-0.0966,
6.081236,0.0088,-1.0534,-0.2806,-3.5851,-1.2618,-1.9935,-0.2080,-0.0891,0.1331,
6.091181,0.0088,-1.0534,-0.2806,-3.5851,-1.2618,-1.9935,-0.3497,0.3318,0.4422,
6.092772,-0.0623,-1.4171,0.5216,-3.5851,-1.2618,-1.9935,-0.3497,0.3318,0.4422,
6.093556,-0.0623,-1.4171,0.5216,-4.1367,-4.7638,5.8145,-0.3497,0.3318,0.4422,
6.101412,-0.0623,-1.4171,0.5216,-4.1367,-4.7638,5.8145,0.0773,0.3965,0.8509,
6.111328,-0.0623,-1.4171,0.5216,-4.1367,-4.7638,5.8145,0.0638,0.7521,0.7049,
6.112639,0.3704,-1.0427,-0.2965,-4.1367,-4.7638,5.8145,0.0638,0.7521,0.7049,
6.113351,0.3704,-1.0427,-0.2965,0.3026,-1.0135,-2.2965,0.0638,0.7521,0.7049,
6.121174,0.3704,-1.0427,-0.2965,0.3026,-1.0135,-2.2965,-0.2777,1.2133,0.4795,
6.131333,0.3704,-1.0427,-0.2965,0.3026,-1.0135,-2.2965,-0.2160,1.3483,0.3231,
6.132533,0.3287,-0.6904,0.0954,0.3026,-1.0135,-2.2965,-0.2160,1.3483,0.3231,
6.133248,0.3287,-0.6904,0.0954,-0.0116,2.4773,1.4632,-0.2160,1.3483,0.3231,
6.141277,0.3287,-0.6904,0.0954,-0.0116,2.4773,1.4632,0.0198,1.2371,0.2956,
6.151159,0.3287,-0.6904,0.0954,-0.0116,2.4773,1.4632,0.0400,1.2823,0.3463,
6.152274,0.3542,-0.7694,-0.2758,-0.0116,2.4773,1.4632,0.0400,1.2823,0.3463,
6.152980,0.3542,-0.7694,-0.2758,0.2920,1.7259,-2.2624,0.0400,1.2823,0.3463,
6.161348,0.3542,-0.7694,-0.2758,0.2920,1.7259,-2.2624,-0.1164,1.4552,0.3781,
6.171379,0.3542,-0.7694,-0.2758,0.2920,1.7259,-2.2624,-0.3113,1.5871,0.3115,
6.172227,0.4879,-0.9659,-0.3503,0.2920,1.7259,-2.2624,-0.3113,1.5871,0.3115,
6.172919,0.4879,-0.9659,-0.3503,1.6505,-0.1807,-3.0305,-0.3113,1.5871,0.3115,
6.182174,0.4879,-0.9659,-0.3503,1.6505,-0.1807,-3.0305,-0.4737,1.5914,0.1918,
6.192380,0.4879,-0.9659,-0.3503,1.6505,-0.1807,-3.0305,-0.5299,1.4063,0.1270,
6.194501,0.3797,-1.1122,-0.2568,1.6505,-0.1807,-3.0305,-0.5299,1.4063,0.1270,
6.196548,0.3797,-1.1122,-0.2568,0.6047,-1.6112,-2.0838,-0.5299,1.4063,0.1270,
6.202144,0.3797,-1.1122,-0.2568,0.6047,-1.6112,-2.0838,-0.4389,1.1009,0.1533,
6.213296,0.3797,-1.1122,-0.2568,0.6047,-1.6112,-2.0838,-0.2300,0.7686,0.2064,
6.215867,0.3558,-1.1156,-0.1554,0.6047,-1.6112,-2.0838,-0.2300,0.7686,0.2064,
6.217693,0.3558,-1.1156,-0.1554,0.3955,-1.6380,-1.0609,-0.2300,0.7686,0.2064,
6.222365,0.3558,-1.1156,-0.1554,0.3955,-1.6380,-1.0609,0.0107,0.4588,0.2058,
6.232326,0.3558,-1.1156,-0.1554,0.3955,-1.6380,-1.0609,0.2037,0.1925,0.1374,
6.234747,0.3596,-1.0349,-0.1543,0.3955,-1.6380,-1.0609,0.2037,0.1925,0.1374,
6.236550,0.3596,-1.0349,-0.1543,0.4590,-0.8373,-1.0648,0.2037,0.1925,0.1374,
6.242182,0.3596,-1.0349,-0.1543,0.4590,-0.8373,-1.0648,0.3283,-0.0500,0.0488,
6.252141,0.3596,-1.0349,-0.1543,0.4590,-0.8373,-1.0648,0.4230,-0.3072,-0.0129,
6.254797,0.2921,-0.9372,-0.0555,0.4590,-0.8373,-1.0648,0.4230,-0.3072,-0.0129,
6.256667,0.2921,-0.9372,-0.0555,-0.1989,0.1237,-0.1384,0.4230,-0.3072,-0.0129,
6.262694,0.2921,-0.9372,-0.0555,-0.1989,0.1237,-0.1384,0.5433,-0.6346,-0.0202,
6.272098,0.2921,-0.9372,-0.0555,-0.1989,0.1237,-0.1384,0.6405,-1.0060,0.0067,
6.274303,0.3155,-0.9391,-0.0856,-0.1989,0.1237,-0.1384,0.6405,-1.0060,0.0067,
6.276489,0.3155,-0.9391,-0.0856,0.0348,0.1076,-0.4785,0.6405,-1.0060,0.0067,
6.282110,0.3155,-0.9391,-0.0856,0.0348,0.1076,-0.4785,0.5782,-1.2039,0.0079,
6.292196,0.3155,-0.9391,-0.0856,0.0348,0.1076,-0.4785,0.1481,-0.8649,-0.1821,
6.294387,0.4944,-1.0725,-0.1369,0.0348,0.1076,-0.4785,0.1481,-0.8649,-0.1821,
6.296612,0.4944,-1.0725,-0.1369,1.7710,-1.2055,-0.9692,0.1481,-0.8649,-0.1821,
6.302080,0.4944,-1.0725,-0.1369,1.7710,-1.2055,-0.9692,-0.0180,-0.6932,-0.3299,
6.312905,0.4944,-1.0725,-0.1369,1.7710,-1.2055,-0.9692,0.0180,-0.8606,-0.4625,
6.315594,0.4334,-1.1898,0.1653,1.7710,-1.2055,-0.9692,0.0180,-0.8606,-0.4625,
6.317836,0.4334,-1.1898,0.1653,1.1036,-2.3802,2.0404,0.0180,-0.8606,-0.4625,
6.322087,0.4334,-1.1898,0.1653,1.1036,-2.3802,2.0404,0.2489,-1.1636,-0.5584,
6.332012,0.4334,-1.1898,0.1653,1.1036,-2.3802,2.0404,0.6356,-1.4507,-0.5578,
6.334999,0.2309,-1.2028,0.3550,1.1036,-2.3802,2.0404,0.6356,-1.4507,-0.5578,
6.337111,0.2309,-1.2028,0.3550,-0.9664,-2.5365,3.8762,0.6356,-1.4507,-0.5578,
6.342251,0.2309,-1.2028,0.3550,-0.9664,-2.5365,3.8762,1.1286,-1.7158,-0.4723,
6.352597,0.2309,-1.2028,0.3550,-0.9664,-2.5365,3.8762,1.5702,-1.9168,-0.4222,
6.355209,0.1807,-1.0591,0.2359,-0.9664,-2.5365,3.8762,1.5702,-1.9168,-0.4222,
6.356830,0.1807,-1.0591,0.2359,-1.5063,-1.1386,2.5361,1.5702,-1.9168,-0.4222,
6.362921,0.1807,-1.0591,0.2359,-1.5063,-1.1386,2.5361,1.8402,-2.0518,-0.4698,
6.372499,0.1807,-1.0591,0.2359,-1.5063,-1.1386,2.5361,1.9428,-2.1673,-0.5651,
6.374695,0.1107,-0.9935,0.1281,-1.5063,-1.1386,2.5361,1.9428,-2.1673,-0.5651,
6.376850,0.1107,-0.9935,0.1281,-2.2415,-0.5107,1.2317,1.9428,-2.1673,-0.5651,
6.382636,0.1107,-0.9935,0.1281,-2.2415,-0.5107,1.2317,1.9135,-2.2033,-0.6635,
6.392489,0.1107,-0.9935,0.1281,-2.2415,-0.5107,1.2317,1.8194,-2.0329,-0.7374,
6.394706,0.0468,-0.9852,0.0772,-2.2415,-0.5107,1.2317,1.8194,-2.0329,-0.7374,
6.396835,0.0468,-0.9852,0.0772,-2.9370,-0.4581,0.5021,1.8194,-2.0329,-0.7374,
6.402546,0.0468,-0.9852,0.0772,-2.9370,-0.4581,0.5021,1.7022,-1.6108,-0.7649,
6.412737,0.0468,-0.9852,0.0772,-2.9370,-0.4581,0.5021,1.5403,-1.0421,-0.7453,
6.415460,0.0387,-1.0191,-0.0463,-2.9370,-0.4581,0.5021,1.5403,-1.0421,-0.7453,
6.417850,0.0387,-1.0191,-0.0463,-3.0814,-0.8236,-0.9195,1.5403,-1.0421,-0.7453,
6.422074,0.0387,-1.0191,-0.0463,-3.0814,-0.8236,-0.9195,1.3454,-0.5546,-0.6879,
6.431936,0.0387,-1.0191,-0.0463,-3.0814,-0.8236,-0.9195,1.1646,-0.3066,-0.6054,
6.434310,0.0436,-1.1320,-0.0162,-3.0814,-0.8236,-0.9195,1.1646,-0.3066,-0.6054,
6.435960,0.0436,-1.1320,-0.0162,-3.0618,-1.9520,-0.8139,1.1646,-0.3066,-0.6054,
6.441822,0.0436,-1.1320,-0.0162,-3.0618,-1.9520,-0.8139,0.9899,-0.2229,-0.5376,
6.451891,0.0436,-1.1320,-0.0162,-3.0618,-1.9520,-0.8139,0.7956,-0.2137,-0.5107,
6.454025,0.1142,-1.1666,-0.0155,-3.0618,-1.9520,-0.8139,0.7956,-0.2137,-0.5107,
6.455426,0.1142,-1.1666,-0.0155,-2.3720,-2.3015,-0.9322,0.7956,-0.2137,-0.5107,
6.462269,0.1142,-1.1666,-0.0155,-2.3720,-2.3015,-0.9322,0.5769,-0.2467,-0.5211,
6.472064,0.1142,-1.1666,-0.0155,-2.3720,-2.3015,-0.9322,0.3295,-0.0421,-0.6439,
6.473682,0.1695,-0.8959,-0.1228,-2.3720,-2.3015,-0.9322,0.3295,-0.0421,-0.6439,
6.475253,0.1695,-0.8959,-0.1228,-1.8483,0.3412,-2.0170,0.3295,-0.0421,-0.6439,
6.482033,0.1695,-0.8959,-0.1228,-1.8483,0.3412,-2.0170,-0.2862,0.2035,-0.7123,
6.492123,0.1695,-0.8959,-0.1228,-1.8483,0.3412,-2.0170,-0.6436,0.4191,-0.7380,
6.494073,0.1390,-0.7859,-0.2516,-1.8483,0.3412,-2.0170,-0.6436,0.4191,-0.7380,
6.495976,0.1390,-0.7859,-0.2516,-2.1884,1.4130,-3.1563,-0.6436,0.4191,-0.7380,
6.502441,0.1390,-0.7859,-0.2516,-2.1884,1.4130,-3.1563,-1.0046,0.6183,-0.7545,
6.513127,0.1390,-0.7859,-0.2516,-2.1884,1.4130,-3.1563,-1.3522,0.8296,-0.8015,
6.516092,0.1869,-0.7327,-0.2836,-2.1884,1.4130,-3.1563,-1.3522,0.8296,-0.8015,
6.518268,0.1869,-0.7327,-0.2836,-1.7733,1.9287,-3.2291,-1.3522,0.8296,-0.8015,
6.521983,0.1869,-0.7327,-0.2836,-1.7733,1.9287,-3.2291,-1.6264,1.0331,-0.8650,
6.534470,0.1869,-0.7327,-0.2836,-1.7733,1.9287,-3.2291,-1.7773,1.2035,-0.9145,
6.537179,0.2018,-0.8120,-0.1851,-1.7733,1.9287,-3.2291,-1.7773,1.2035,-0.9145,
6.539191,0.2018,-0.8120,-0.1851,-1.7061,1.1301,-1.9635,-1.7773,1.2035,-0.9145,
6.542726,0.2018,-0.8120,-0.1851,-1.7061,1.1301,-1.9635,-1.7895,1.3092,-0.9243,
6.552655,0.2018,-0.8120,-0.1851,-1.7061,1.1301,-1.9635,-1.6655,1.2463,-0.8815,
6.555293,0.2403,-0.8652,0.0332,-1.7061,1.1301,-1.9635,-1.6655,1.2463,-0.8815,
6.557070,0.2403,-0.8652,0.0332,-1.3452,0.6028,0.3352,-1.6655,1.2463,-0.8815,
6.561881,0.2403,-0.8652,0.0332,-1.3452,0.6028,0.3352,-1.3528,0.8394,-0.8449,
6.571883,0.2403,-0.8652,0.0332,-1.3452,0.6028,0.3352,-0.7890,0.0722,-0.8693,
6.573541,0.4266,-0.8596,0.5843,-1.3452,0.6028,0.3352,-0.7890,0.0722,-0.8693,
6.574988,0.4266,-0.8596,0.5843,0.2916,0.5759,5.9482,-0.7890,0.0722,-0.8693,
6.582092,0.4266,-0.8596,0.5843,0.2916,0.5759,5.9482,-0.0675,-0.7892,-0.9506,
6.591638,0.4266,-0.8596,0.5843,0.2916,0.5759,5.9482,0.6307,-1.4306,-1.0734,
6.597042,0.4316,-0.8970,0.7178,0.2916,0.5759,5.9482,0.6307,-1.4306,-1.0734,
6.599216,0.4316,-0.8970,0.7178,0.1979,0.1482,7.1778,0.6307,-1.4306,-1.0734,
6.602268,0.4316,-0.8970,0.7178,0.1979,0.1482,7.1778,1.0925,-1.6266,-1.1387,
6.611934,0.4316,-0.8970,0.7178,0.1979,0.1482,7.1778,0.9758,-1.1215,-0.8993,
6.613633,-0.2403,-0.8579,-0.0507,0.1979,0.1482,7.1778,0.9758,-1.1215,-0.8993,
6.615173,-0.2403,-0.8579,-0.0507,-6.4699,0.4942,-0.5040,0.9758,-1.1215,-0.8993,
6.621819,-0.2403,-0.8579,-0.0507,-6.4699,0.4942,-0.5040,0.4456,-0.1080,-0.3483,
6.631721,-0.2403,-0.8579,-0.0507,-6.4699,0.4942,-0.5040,0.0711,0.6855,0.2815,
6.633405,-0.4773,-0.7813,0.2167,-6.4699,0.4942,-0.5040,0.0711,0.6855,0.2815,
6.634377,-0.4773,-0.7813,0.2167,-8.6383,1.3129,1.9624,0.0711,0.6855,0.2815,
6.641578,-0.4773,-0.7813,0.2167,-8.6383,1.3129,1.9624,0.0033,1.1497,0.8203,
6.651716,-0.4773,-0.7813,0.2167,-8.6383,1.3129,1.9624,-0.0944,1.4888,1.0964,
6.653311,0.1389,-0.9993,-0.1428,-8.6383,1.3129,1.9624,-0.0944,1.4888,1.0964,
6.654393,0.1389,-0.9993,-0.1428,-2.2889,-0.6960,-1.6879,-0.0944,1.4888,1.0964,
6.663178,0.1389,-0.9993,-0.1428,-2.2889,-0.6960,-1.6879,-0.5507,2.1870,0.9657,
6.672095,0.1389,-0.9993,-0.1428,-2.2889,-0.6960,-1.6879,-0.5794,2.3379,0.7452,
6.674150,0.7071,-1.3295,0.3644,-2.2889,-0.6960,-1.6879,-0.5794,2.3379,0.7452,
6.676347,0.7071,-1.3295,0.3644,3.5085,-3.8474,3.1742,-0.5794,2.3379,0.7452,
6.682245,0.7071,-1.3295,0.3644,3.5085,-3.8474,3.1742,-0.0987,1.5670,0.3121,
6.691973,0.7071,-1.3295,0.3644,3.5085,-3.8474,3.1742,0.5843,0.1137,-0.2456,
6.694458,0.9290,-1.3324,0.1937,3.5085,-3.8474,3.1742,0.5843,0.1137,-0.2456,
6.696509,0.9290,-1.3324,0.1937,5.6961,-3.8773,1.3764,0.5843,0.1137,-0.2456,
6.702193,0.9290,-1.3324,0.1937,5.6961,-3.8773,1.3764,0.7413,-0.6401,-0.5071,
6.713726,0.9290,-1.3324,0.1937,5.6961,-3.8773,1.3764,0.4187,-0.3377,-0.3263,
6.716595,0.5101,-1.0291,-0.0983,5.6961,-3.8773,1.3764,0.4187,-0.3377,-0.3263,
6.718978,0.5101,-1.0291,-0.0983,1.5076,-0.9410,-1.5612,0.4187,-0.3377,-0.3263,
6.722239,0.5101,-1.0291,-0.0983,1.5076,-0.9410,-1.5612,0.0345,0.2615,0.0403,
6.733026,0.5101,-1.0291,-0.0983,1.5076,-0.9410,-1.5612,-0.1133,0.6397,0.3206,
6.735503,0.7620,-0.7846,0.2933,1.5076,-0.9410,-1.5612,-0.1133,0.6397,0.3206,
6.737438,0.7620,-0.7846,0.2933,3.9778,1.4530,2.2289,-0.1133,0.6397,0.3206,
6.742252,0.7620,-0.7846,0.2933,3.9778,1.4530,2.2289,-0.1365,0.9109,0.4776,
6.762020,0.7620,-0.7846,0.2933,3.9778,1.4530,2.2289,-0.2575,1.3819,0.5564,
6.764648,0.8712,-0.8047,0.1459,3.9778,1.4530,2.2289,-0.2575,1.3819,0.5564,
6.766530,0.8712,-0.8047,0.1459,5.0761,1.2611,0.7158,-0.2575,1.3819,0.5564,
6.768304,0.8712,-0.8047,0.1459,5.0761,1.2611,0.7158,-0.4640,2.0220,0.6291,
6.772033,0.8712,-0.8047,0.1459,5.0761,1.2611,0.7158,-0.6472,2.6244,0.7281,
6.774314,0.8255,-0.8557,0.1484,5.0761,1.2611,0.7158,-0.6472,2.6244,0.7281,
6.776897,0.8255,-0.8557,0.1484,4.6812,0.7754,0.6642,-0.6472,2.6244,0.7281,
6.781850,0.8255,-0.8557,0.1484,4.6812,0.7754,0.6642,-0.7266,3.0324,0.8258,
6.791820,0.8255,-0.8557,0.1484,4.6812,0.7754,0.6642,-0.7303,3.3354,0.8833,
6.794612,0.7572,-0.8774,0.1160,4.6812,0.7754,0.6642,-0.7303,3.3354,0.8833,
6.799358,0.7572,-0.8774,0.1160,4.1045,0.5879,0.2555,-0.7303,3.3354,0.8833,
6.802295,0.7572,-0.8774,0.1160,4.1045,0.5879,0.2555,-0.7181,3.6042,0.8887,
6.811880,0.7572,-0.8774,0.1160,4.1045,0.5879,0.2555,-0.7505,3.8589,0.8368,
6.813875,0.6461,-0.8569,-0.0446,4.1045,0.5879,0.2555,-0.7505,3.8589,0.8368,
6.815277,0.6461,-0.8569,-0.0446,3.1245,0.8178,-1.4171,-0.7505,3.8589,0.8368,
6.821827,0.6461,-0.8569,-0.0446,3.1245,0.8178,-1.4171,-0.8409,4.1051,0.7330,
6.832117,0.6461,-0.8569,-0.0446,3.1245,0.8178,-1.4171,-0.9594,4.2859,0.5839,
6.834522,0.5265,-0.7724,-0.1755,3.1245,0.8178,-1.4171,-0.9594,4.2859,0.5839,
6.835914,0.5265,-0.7724,-0.1755,2.0363,1.6686,-2.7585,-0.9594,4.2859,0.5839,
6.841663,0.5265,-0.7724,-0.1755,2.0363,1.6686,-2.7585,-1.0663,4.3299,0.4227,
6.852079,0.5265,-0.7724,-0.1755,2.0363,1.6686,-2.7585,-1.1878,4.0367,0.1905,
6.853885,0.4261,-0.7476,-0.1736,2.0363,1.6686,-2.7585,-1.1878,4.0367,0.1905,
6.855071,0.4261,-0.7476,-0.1736,1.0840,1.9233,-2.7300,-1.1878,4.0367,0.1905,
6.862503,0.4261,-0.7476,-0.1736,1.0840,1.9233,-2.7300,-1.1952,3.8553,0.1368,
6.871945,0.4261,-0.7476,-0.1736,1.0840,1.9233,-2.7300,-1.1738,3.7691,0.1056,
6.873440,0.4248,-0.7451,-0.1587,1.0840,1.9233,-2.7300,-1.1738,3.7691,0.1056,
6.874604,0.4248,-0.7451,-0.1587,1.0684,1.9521,-2.5282,-1.1738,3.7691,0.1056,
6.882144,0.4248,-0.7451,-0.1587,1.0684,1.9521,-2.5282,-1.1280,3.7752,0.0665,
6.892131,0.4248,-0.7451,-0.1587,1.0684,1.9521,-2.5282,-1.0645,3.8314,0.0036,
6.894271,0.4715,-0.7638,-0.1956,1.0684,1.9521,-2.5282,-1.0645,3.8314,0.0036,
6.896194,0.4715,-0.7638,-0.1956,1.5060,1.7677,-2.8372,-1.0645,3.8314,0.0036,
6.902247,0.4715,-0.7638,-0.1956,1.5060,1.7677,-2.8372,-0.9887,3.8809,-0.0923,
6.912998,0.4715,-0.7638,-0.1956,1.5060,1.7677,-2.8372,-0.9105,3.8314,-0.2047,
6.914996,0.4446,-0.7967,-0.2640,1.5060,1.7677,-2.8372,-0.9105,3.8314,-0.2047,
6.916770,0.4446,-0.7967,-0.2640,1.1966,1.4336,-3.4707,-0.9105,3.8314,-0.2047,
6.922014,0.4446,-0.7967,-0.2640,1.1966,1.4336,-3.4707,-0.8274,3.6366,-0.3110,
6.932817,0.4446,-0.7967,-0.2640,1.1966,1.4336,-3.4707,-0.7254,3.2817,-0.3788,
6.935083,0.3064,-0.8635,-0.2607,1.1966,1.4336,-3.4707,-0.7254,3.2817,-0.3788,
6.936592,0.3064,-0.8635,-0.2607,-0.2252,0.7592,-3.4016,-0.7254,3.2817,-0.3788,
6.942160,0.3064,-0.8635,-0.2607,-0.2252,0.7592,-3.4016,-0.5843,2.7783,-0.3947,
6.952406,0.3064,-0.8635,-0.2607,-0.2252,0.7592,-3.4016,-0.2893,2.0886,-0.3721,
6.955092,0.2061,-0.8819,0.1132,-0.2252,0.7592,-3.4016,-0.2893,2.0886,-0.3721,
6.956848,0.2061,-0.8819,0.1132,-1.2710,0.5563,0.2641,-0.2893,2.0886,-0.3721,
6.964161,0.2061,-0.8819,0.1132,-1.2710,0.5563,0.2641,0.2019,1.3556,-0.3702,
6.972534,0.2061,-0.8819,0.1132,-1.2710,0.5563,0.2641,0.6985,0.9298,-0.4069,
6.974562,0.1538,-0.8319,0.1772,-1.2710,0.5563,0.2641,0.6985,0.9298,-0.4069,
6.976082,0.1538,-0.8319,0.1772,-1.8398,1.0149,0.7718,0.6985,0.9298,-0.4069,
6.982124,0.1538,-0.8319,0.1772,-1.8398,1.0149,0.7718,1.1218,0.8773,-0.4209,
6.992267,0.1538,-0.8319,0.1772,-1.8398,1.0149,0.7718,1.5024,1.1448,-0.3690,
6.995954,-0.0202,-0.8327,0.2636,-1.8398,1.0149,0.7718,1.5024,1.1448,-0.3690,
6.998126,-0.0202,-0.8327,0.2636,-3.5719,0.9612,1.3277,1.5024,1.1448,-0.3690,
7.003249,-0.0202,-0.8327,0.2636,-3.5719,0.9612,1.3277,1.8628,1.6616,-0.2578,
7.014247,-0.0202,-0.8327,0.2636,-3.5719,0.9612,1.3277,2.1481,2.3428,-0.1589,
7.017095,0.0103,-0.8928,0.1099,-3.5719,0.9612,1.3277,2.1481,2.3428,-0.1589,
7.019230,0.0103,-0.8928,0.1099,-3.1945,0.3258,-0.6400,2.1481,2.3428,-0.1589,
7.022005,0.0103,-0.8928,0.1099,-3.1945,0.3258,-0.6400,2.2971,3.0642,-0.1607,
7.032918,0.0103,-0.8928,0.1099,-3.1945,0.3258,-0.6400,2.1640,3.6757,-0.4564,
7.035733,0.1410,-1.1585,-0.1805,-3.1945,0.3258,-0.6400,2.1640,3.6757,-0.4564,
7.037570,0.1410,-1.1585,-0.1805,-1.7739,-2.3447,-4.0187,2.1640,3.6757,-0.4564,
7.042282,0.1410,-1.1585,-0.1805,-1.7739,-2.3447,-4.0187,1.9062,3.2438,-0.6641,
7.052408,0.1410,-1.1585,-0.1805,-1.7739,-2.3447,-4.0187,1.5916,2.3843,-0.8174,
7.055044,-0.1003,-1.2745,-0.1942,-1.7739,-2.3447,-4.0187,1.5916,2.3843,-0.8174,
7.056973,-0.1003,-1.2745,-0.1942,-4.0465,-3.5496,-4.5195,1.5916,2.3843,-0.8174,
7.063733,-0.1003,-1.2745,-0.1942,-4.0465,-3.5496,-4.5195,1.2159,1.3293,-0.8278,
7.072339,-0.1003,-1.2745,-0.1942,-4.0465,-3.5496,-4.5195,0.7413,0.4564,-0.7178,
7.074383,-0.3607,-1.2262,0.0029,-4.0465,-3.5496,-4.5195,0.7413,0.4564,-0.7178,
7.076354,-0.3607,-1.2262,0.0029,-6.5600,-3.0960,-2.6998,0.7413,0.4564,-0.7178,
7.084905,-0.3607,-1.2262,0.0029,-6.5600,-3.0960,-2.6998,0.2874,0.1455,-0.5798,
7.092231,-0.3607,-1.2262,0.0029,-6.5600,-3.0960,-2.6998,-0.0083,0.2829,-0.4778,
7.095702,-0.2998,-1.0381,0.2079,-6.5600,-3.0960,-2.6998,-0.0083,0.2829,-0.4778,
7.098001,-0.2998,-1.0381,0.2079,-5.8914,-1.2131,-0.6396,-0.0083,0.2829,-0.4778,
7.101767,-0.2998,-1.0381,0.2079,-5.8914,-1.2131,-0.6396,-0.1451,0.4558,-0.4130,
7.113232,-0.2998,-1.0381,0.2079,-5.8914,-1.2131,-0.6396,-0.1952,0.4191,-0.3580,
7.114932,-0.1842,-0.9837,0.2237,-5.8914,-1.2131,-0.6396,-0.1952,0.4191,-0.3580,
7.116592,-0.1842,-0.9837,0.2237,-4.6454,-0.6230,-0.4144,-0.1952,0.4191,-0.3580,
7.121891,-0.1842,-0.9837,0.2237,-4.6454,-0.6230,-0.4144,-0.2441,0.1693,-0.2462,
7.132075,-0.1842,-0.9837,0.2237,-4.6454,-0.6230,-0.4144,-0.3467,-0.1477,-0.0685,
7.133941,-0.0828,-1.0958,0.3531,-4.6454,-0.6230,-0.4144,-0.3467,-0.1477,-0.0685,
7.135229,-0.0828,-1.0958,0.3531,-3.5292,-1.6588,0.9446,-0.3467,-0.1477,-0.0685,
7.141767,-0.0828,-1.0958,0.3531,-3.5292,-1.6588,0.9446,-0.5092,-0.4697,0.1362,
7.151828,-0.0828,-1.0958,0.3531,-3.5292,-1.6588,0.9446,-0.7468,-0.7959,0.3402,
7.153651,0.0799,-1.2131,0.5707,-3.5292,-1.6588,0.9446,-0.7468,-0.7959,0.3402,
7.154711,0.0799,-1.2131,0.5707,-1.7966,-2.7292,3.2210,-0.7468,-0.7959,0.3402,
7.163673,0.0799,-1.2131,0.5707,-1.7966,-2.7292,3.2210,-1.0724,-1.0457,0.5289,
7.172110,0.0799,-1.2131,0.5707,-1.7966,-2.7292,3.2210,-1.4078,-1.1624,0.6890,
7.174363,0.1676,-1.2701,0.5929,-1.7966,-2.7292,3.2210,-1.4078,-1.1624,0.6890,
7.176054,0.1676,-1.2701,0.5929,-0.7764,-3.1842,3.6869,-1.4078,-1.1624,0.6890,
7.182082,0.1676,-1.2701,0.5929,-0.7764,-3.1842,3.6869,-1.6741,-1.1789,0.7916,
7.192191,0.1676,-1.2701,0.5929,-0.7764,-3.1842,3.6869,-1.8653,-1.1838,0.8228,
7.194890,0.2073,-1.2949,0.5388,-0.7764,-3.1842,3.6869,-1.8653,-1.1838,0.8228,
7.196835,0.2073,-1.2949,0.5388,-0.2101,-3.3143,3.4821,-1.8653,-1.1838,0.8228,
7.202985,0.2073,-1.2949,0.5388,-0.2101,-3.3143,3.4821,-1.9972,-1.3102,0.7928,
7.214372,0.2073,-1.2949,0.5388,-0.2101,-3.3143,3.4821,-2.1200,-1.5985,0.7208,
7.217134,0.0586,-1.2079,-0.0895,-0.2101,-3.3143,3.4821,-2.1200,-1.5985,0.7208,
7.219281,0.0586,-1.2079,-0.0895,-1.5037,-2.3530,-2.2582,-2.1200,-1.5985,0.7208,
7.222057,0.0586,-1.2079,-0.0895,-1.5037,-2.3530,-2.2582,-2.5574,-2.1105,0.5906,
7.232067,0.0586,-1.2079,-0.0895,-1.5037,-2.3530,-2.2582,-2.8060,-2.1312,0.5583,
7.235165,0.0241,-1.0994,-0.1888,-1.5037,-2.3530,-2.2582,-2.8060,-2.1312,0.5583,
7.237329,0.0241,-1.0994,-0.1888,-1.7166,-1.1969,-2.6502,-2.8060,-2.1312,0.5583,
7.242064,0.0241,-1.0994,-0.1888,-1.7166,-1.1969,-2.6502,-2.8879,-1.9437,0.5015,
7.252685,0.0241,-1.0994,-0.1888,-1.7166,-1.1969,-2.6502,-2.6887,-1.5912,0.4355,
7.255403,-0.0253,-0.8354,0.2455,-1.7166,-1.1969,-2.6502,-2.6887,-1.5912,0.4355,
7.257428,-0.0253,-0.8354,0.2455,-2.0645,1.4467,2.1548,-2.6887,-1.5912,0.4355,
7.263389,-0.0253,-0.8354,0.2455,-2.0645,1.4467,2.1548,-2.1377,-1.1154,0.4337,
7.272156,-0.0253,-0.8354,0.2455,-2.0645,1.4467,2.1548,-1.3473,-0.5992,0.5283,
7.274033,-0.1344,-0.7300,0.3296,-2.0645,1.4467,2.1548,-1.3473,-0.5992,0.5283,
7.275864,-0.1344,-0.7300,0.3296,-2.9688,2.5126,3.2550,-1.3473,-0.5992,0.5283,
7.281967,-0.1344,-0.7300,0.3296,-2.9688,2.5126,3.2550,-0.6820,-0.2644,0.6853,
7.291728,-0.1344,-0.7300,0.3296,-2.9688,2.5126,3.2550,-0.3332,-0.1270,0.8258,
7.293527,0.1297,-0.9102,-0.0895,-2.9688,2.5126,3.2550,-0.3332,-0.1270,0.8258,
7.295099,0.1297,-0.9102,-0.0895,-0.1844,0.7781,-0.8066,-0.3332,-0.1270,0.8258,
7.302191,0.1297,-0.9102,-0.0895,-0.1844,0.7781,-0.8066,-0.1543,-0.0280,0.8099,
7.313183,0.1297,-0.9102,-0.0895,-0.1844,0.7781,-0.8066,0.0663,0.0105,0.5961,
7.315336,0.5134,-0.8973,0.0754,-0.1844,0.7781,-0.8066,0.0663,0.0105,0.5961,
7.316980,0.5134,-0.8973,0.0754,3.7031,0.9223,0.7784,0.0663,0.0105,0.5961,
7.321759,0.5134,-0.8973,0.0754,3.7031,0.9223,0.7784,0.3479,-0.1484,0.2492,
7.332547,0.5134,-0.8973,0.0754,3.7031,0.9223,0.7784,0.5287,-0.5485,-0.1143,
7.334743,0.5905,-0.8870,-0.0873,3.7031,0.9223,0.7784,0.5287,-0.5485,-0.1143,
7.336264,0.5905,-0.8870,-0.0873,4.4143,1.0178,-0.9144,0.5287,-0.5485,-0.1143,
7.341805,0.5905,-0.8870,-0.0873,4.4143,1.0178,-0.9144,0.6026,-1.1245,-0.3794,
7.351880,0.5905,-0.8870,-0.0873,4.4143,1.0178,-0.9144,0.7034,-1.8276,-0.4857,
7.353970,0.4821,-0.9322,-0.0244,4.4143,1.0178,-0.9144,0.7034,-1.8276,-0.4857,
7.355432,0.4821,-0.9322,-0.0244,3.1905,0.5496,-0.3919,0.7034,-1.8276,-0.4857,
7.363987,0.4821,-0.9322,-0.0244,3.1905,0.5496,-0.3919,0.8017,-2.5539,-0.4197,
7.372287,0.4821,-0.9322,-0.0244,3.1905,0.5496,-0.3919,0.7174,-3.0035,-0.2053,
7.374143,0.3685,-1.0319,-0.3756,3.1905,0.5496,-0.3919,0.7174,-3.0035,-0.2053,
7.375518,0.3685,-1.0319,-0.3756,1.9371,-0.4521,-3.8554,0.7174,-3.0035,-0.2053,
7.381936,0.3685,-1.0319,-0.3756,1.9371,-0.4521,-3.8554,0.4450,-2.9541,0.1068,
7.391839,0.3685,-1.0319,-0.3756,1.9371,-0.4521,-3.8554,0.1677,-2.5454,0.3976,
7.393609,0.5144,-1.0058,-0.2526,1.9371,-0.4521,-3.8554,0.1677,-2.5454,0.3976,
7.395420,0.5144,-1.0058,-0.2526,3.3237,-0.2022,-2.5657,0.1677,-2.5454,0.3976,
7.402114,0.5144,-1.0058,-0.2526,3.3237,-0.2022,-2.5657,0.1787,-1.6682,0.4917,
7.415225,0.5144,-1.0058,-0.2526,3.3237,-0.2022,-2.5657,0.4829,-1.4043,0.3878,
7.418312,0.4896,-0.8601,-0.0788,3.3237,-0.2022,-2.5657,0.4829,-1.4043,0.3878,
7.420815,0.4896,-0.8601,-0.0788,3.0670,1.2237,-0.8279,0.4829,-1.4043,0.3878,
7.423888,0.4896,-0.8601,-0.0788,3.0670,1.2237,-0.8279,0.8854,-1.4312,0.2718,
7.435337,0.4896,-0.8601,-0.0788,3.0670,1.2237,-0.8279,1.2941,-1.7983,0.1594,
7.438315,0.4059,-0.8233,-0.0640,3.0670,1.2237,-0.8279,1.2941,-1.7983,0.1594,
7.442532,0.4059,-0.8233,-0.0640,2.1869,1.5719,-0.7915,1.2941,-1.7983,0.1594,
7.445131,0.4059,-0.8233,-0.0640,2.1869,1.5719,-0.7915,1.5824,-2.3395,0.0262,
7.451903,0.4059,-0.8233,-0.0640,2.1869,1.5719,-0.7915,1.7052,-2.8814,-0.1442,
7.453982,0.4202,-0.7779,-0.1083,2.1869,1.5719,-0.7915,1.7052,-2.8814,-0.1442,
7.455748,0.4202,-0.7779,-0.1083,2.2019,1.9888,-1.3924,1.7052,-2.8814,-0.1442,
7.463371,0.4202,-0.7779,-0.1083,2.2019,1.9888,-1.3924,1.7669,-3.3927,-0.3379,
7.471564,0.4202,-0.7779,-0.1083,2.2019,1.9888,-1.3924,1.8848,-3.8728,-0.5443,
7.473080,0.4256,-0.6044,0.1236,2.2019,1.9888,-1.3924,1.8848,-3.8728,-0.5443,
7.474442,0.4256,-0.6044,0.1236,2.0335,3.6346,0.7120,1.8848,-3.8728,-0.5443,
7.489832,0.4256,-0.6044,0.1236,2.0335,3.6346,0.7120,2.0491,-4.2473,-0.7368,
7.491837,0.4256,-0.6044,0.1236,2.0335,3.6346,0.7120,2.1713,-4.3981,-0.9023,
7.493097,0.3384,-0.4077,0.1363,2.0335,3.6346,0.7120,2.1713,-4.3981,-0.9023,
7.496678,0.3384,-0.4077,0.1363,0.8650,5.4748,0.6512,2.1713,-4.3981,-0.9023,
7.501515,0.3384,-0.4077,0.1363,0.8650,5.4748,0.6512,2.1890,-4.2509,-1.0404,
7.512838,0.3384,-0.4077,0.1363,0.8650,5.4748,0.6512,2.1017,-3.8807,-1.1259,
7.514181,0.2062,-0.2940,0.0484,0.8650,5.4748,0.6512,2.1017,-3.8807,-1.1259,
7.515336,0.2062,-0.2940,0.0484,-0.7926,6.4739,-0.3822,2.1017,-3.8807,-1.1259,
7.521493,0.2062,-0.2940,0.0484,-0.7926,6.4739,-0.3822,1.9251,-3.4397,-1.1314,
7.531326,0.2062,-0.2940,0.0484,-0.7926,6.4739,-0.3822,1.7156,-3.1318,-1.0300,
7.532825,0.0667,-0.3335,-0.0178,-0.7926,6.4739,-0.3822,1.7156,-3.1318,-1.0300,
7.533829,0.0667,-0.3335,-0.0178,-2.4706,5.9763,-1.1497,1.7156,-3.1318,-1.0300,
7.541277,0.0667,-0.3335,-0.0178,-2.4706,5.9763,-1.1497,1.5268,-3.0616,-0.8327,
7.551513,0.0667,-0.3335,-0.0178,-2.4706,5.9763,-1.1497,1.3485,-3.1984,-0.5926,
7.552775,0.0996,-0.4692,-0.0550,-2.4706,5.9763,-1.1497,1.3485,-3.1984,-0.5926,
7.553593,0.0996,-0.4692,-0.0550,-2.3542,4.5695,-1.5574,1.3485,-3.1984,-0.5926,
7.562757,0.0996,-0.4692,-0.0550,-2.3542,4.5695,-1.5574,1.1866,-3.4128,-0.3531,
7.571681,0.0996,-0.4692,-0.0550,-2.3542,4.5695,-1.5574,1.0479,-3.5625,-0.1125,
7.572783,0.1845,-0.6221,-0.0965,-2.3542,4.5695,-1.5574,1.0479,-3.5625,-0.1125,
7.573614,0.1845,-0.6221,-0.0965,-1.6407,3.0349,-1.8895,1.0479,-3.5625,-0.1125,
7.581528,0.1845,-0.6221,-0.0965,-1.6407,3.0349,-1.8895,0.9111,-3.2632,0.4355,
7.591568,0.1845,-0.6221,-0.0965,-1.6407,3.0349,-1.8895,0.4633,-2.6358,0.7458,
7.593227,0.4179,-1.0294,-0.2537,-1.6407,3.0349,-1.8895,0.4633,-2.6358,0.7458,
7.594228,0.4179,-1.0294,-0.2537,0.6893,-0.9251,-3.2687,0.4633,-2.6358,0.7458,
7.601921,0.4179,-1.0294,-0.2537,0.6893,-0.9251,-3.2687,0.1628,-1.7274,1.0335,
7.614147,0.4179,-1.0294,-0.2537,0.6893,-0.9251,-3.2687,-0.1194,-0.6322,1.2192,
7.616659,0.6878,-1.4699,-0.2420,0.6893,-0.9251,-3.2687,-0.1194,-0.6322,1.2192,
7.618535,0.6878,-1.4699,-0.2420,3.4962,-5.1716,-2.9971,-0.1194,-0.6322,1.2192,
7.621847,0.6878,-1.4699,-0.2420,3.4962,-5.1716,-2.9971,-0.2923,0.3532,1.2907,
7.632041,0.6878,-1.4699,-0.2420,3.4962,-5.1716,-2.9971,-0.3730,0.8584,1.2602,
7.634462,0.7356,-1.7996,-0.1529,3.4962,-5.1716,-2.9971,-0.3730,0.8584,1.2602,
7.636294,0.7356,-1.7996,-0.1529,4.1744,-8.3256,-2.0325,-0.3730,0.8584,1.2602,
7.641890,0.7356,-1.7996,-0.1529,4.1744,-8.3256,-2.0325,-0.4450,0.7411,1.1801,
7.652127,0.7356,-1.7996,-0.1529,4.1744,-8.3256,-2.0325,-0.5574,0.3232,1.1276,
7.654342,0.4223,-1.4938,-0.1454,4.1744,-8.3256,-2.0325,-0.5574,0.3232,1.1276,
7.655760,0.4223,-1.4938,-0.1454,1.2995,-5.2617,-1.8373,-0.5574,0.3232,1.1276,
7.664683,0.4223,-1.4938,-0.1454,1.2995,-5.2617,-1.8373,-0.7505,0.0642,1.1013,
7.672408,0.4223,-1.4938,-0.1454,1.2995,-5.2617,-1.8373,-1.0174,0.0410,1.0879,
7.674624,0.2540,-1.3041,-0.2095,1.2995,-5.2617,-1.8373,-1.0174,0.0410,1.0879,
7.676511,0.2540,-1.3041,-0.2095,-0.1570,-3.3393,-2.2514,-1.0174,0.0410,1.0879,
7.682092,0.2540,-1.3041,-0.2095,-0.1570,-3.3393,-2.2514,-1.3314,0.1766,1.0647,
7.692014,0.2540,-1.3041,-0.2095,-0.1570,-3.3393,-2.2514,-1.6527,0.3868,1.0433,
7.694623,0.1788,-1.3539,-0.2422,-0.1570,-3.3393,-2.2514,-1.6527,0.3868,1.0433,
7.696943,0.1788,-1.3539,-0.2422,-0.6969,-3.7735,-2.2656,-1.6527,0.3868,1.0433,
7.702536,0.1788,-1.3539,-0.2422,-0.6969,-3.7735,-2.2656,-1.9398,0.6012,1.0329,
7.714846,0.1788,-1.3539,-0.2422,-0.6969,-3.7735,-2.2656,-2.1567,0.7618,1.0219,
7.717470,0.1522,-1.3455,-0.1755,-0.6969,-3.7735,-2.2656,-2.1567,0.7618,1.0219,
7.719623,0.1522,-1.3455,-0.1755,-0.7630,-3.6545,-1.2339,-2.1567,0.7618,1.0219,
7.722451,0.1522,-1.3455,-0.1755,-0.7630,-3.6545,-1.2339,-2.2770,0.8174,0.9889,
7.732369,0.1522,-1.3455,-0.1755,-0.7630,-3.6545,-1.2339,-2.2740,0.7539,0.9309,
7.734980,0.1132,-1.2605,0.0111,-0.7630,-3.6545,-1.2339,-2.2740,0.7539,0.9309,
7.737144,0.1132,-1.2605,0.0111,-0.9702,-2.8104,0.9949,-2.2740,0.7539,0.9309,
7.742119,0.1132,-1.2605,0.0111,-0.9702,-2.8104,0.9949,-2.0760,0.5108,0.8845,
7.752457,0.1132,-1.2605,0.0111,-0.9702,-2.8104,0.9949,-1.6063,-0.0195,0.8930,
7.755130,-0.0180,-1.1600,0.2845,-0.9702,-2.8104,0.9949,-1.6063,-0.0195,0.8930,
7.756854,-0.0180,-1.1600,0.2845,-2.0729,-1.8206,3.9823,-1.6063,-0.0195,0.8930,
7.764220,-0.0180,-1.1600,0.2845,-2.0729,-1.8206,3.9823,-1.0761,-0.6230,0.9144,
7.771761,-0.0180,-1.1600,0.2845,-2.0729,-1.8206,3.9823,-0.8684,-1.1300,0.7067,
7.773733,0.0395,-0.9423,-0.2650,-2.0729,-1.8206,3.9823,-0.8684,-1.1300,0.7067,
7.775669,0.0395,-0.9423,-0.2650,-1.3189,0.3217,-1.2031,-0.8684,-1.1300,0.7067,
7.784128,0.0395,-0.9423,-0.2650,-1.3189,0.3217,-1.2031,-1.0302,-1.2369,0.5790,
7.791861,0.0395,-0.9423,-0.2650,-1.3189,0.3217,-1.2031,-1.1665,-1.3878,0.5277,
7.793715,-0.0805,-0.7884,-0.2532,-1.3189,0.3217,-1.2031,-1.1665,-1.3878,0.5277,
7.795546,-0.0805,-0.7884,-0.2532,-2.3274,1.8202,-0.8470,-1.1665,-1.3878,0.5277,
7.801808,-0.0805,-0.7884,-0.2532,-2.3274,1.8202,-0.8470,-1.2471,-1.5442,0.5839,
