
time,gFx,gFy,gFz,ax,ay,az,wx,wy,wz,
0.056268,0.0000,0.0000,0.0000,0.3588,-0.1278,0.2867,0.0000,0.0000,0.0000,
0.057504,0.0000,0.0000,0.0000,0.0715,0.1332,0.0233,0.0000,0.0000,0.0000,
0.058388,0.0000,0.0000,0.0000,0.0320,-0.0931,-0.2353,0.0000,0.0000,0.0000,
0.059354,0.0000,0.0000,0.0000,0.0320,-0.0931,-0.2353,-0.1379,-0.1582,0.3148,
0.065911,0.0000,0.0000,0.0000,0.0320,-0.0931,-0.2353,-0.2246,-0.2444,0.3222,
0.073473,-0.1738,0.3538,0.8589,0.0320,-0.0931,-0.2353,-0.2246,-0.2444,0.3222,
0.074350,-0.1738,0.3538,0.8589,0.1004,-0.2043,-0.4961,-0.2246,-0.2444,0.3222,
0.076605,-0.1738,0.3538,0.8589,0.1004,-0.2043,-0.4961,-0.3321,-0.3751,0.3179,
0.085929,-0.1738,0.3538,0.8589,0.1004,-0.2043,-0.4961,-0.4885,-0.6127,0.3490,
0.093261,-0.1626,0.2878,0.8910,0.1004,-0.2043,-0.4961,-0.4885,-0.6127,0.3490,
0.094462,-0.1626,0.2878,0.8910,0.0844,-0.1494,-0.4627,-0.4885,-0.6127,0.3490,
0.095763,-0.1626,0.2878,0.8910,0.0844,-0.1494,-0.4627,-0.6382,-0.7789,0.3759,
0.105745,-0.1626,0.2878,0.8910,0.0844,-0.1494,-0.4627,-0.7646,-0.9701,0.3582,
0.113133,-0.1206,0.2521,0.8931,0.0844,-0.1494,-0.4627,-0.7646,-0.9701,0.3582,
0.114073,-0.1206,0.2521,0.8931,0.0819,-0.1714,-0.6071,-0.7646,-0.9701,0.3582,
0.115781,-0.1206,0.2521,0.8931,0.0819,-0.1714,-0.6071,-0.7719,-0.9627,0.3307,
0.125937,-0.1206,0.2521,0.8931,0.0819,-0.1714,-0.6071,-0.7341,-0.8510,0.3014,
0.133220,-0.0855,0.2532,0.9303,0.0819,-0.1714,-0.6071,-0.7341,-0.8510,0.3014,
0.134123,-0.0855,0.2532,0.9303,0.0283,-0.0839,-0.3083,-0.7341,-0.8510,0.3014,
0.135774,-0.0855,0.2532,0.9303,0.0283,-0.0839,-0.3083,-0.6308,-0.6427,0.2745,
0.145749,-0.0855,0.2532,0.9303,0.0283,-0.0839,-0.3083,-0.4598,-0.3470,0.2580,
0.153169,-0.0250,0.2586,1.0035,0.0283,-0.0839,-0.3083,-0.4598,-0.3470,0.2580,
0.153957,-0.0250,0.2586,1.0035,-0.0085,0.0878,0.3406,-0.4598,-0.3470,0.2580,
0.155765,-0.0250,0.2586,1.0035,-0.0085,0.0878,0.3406,-0.2283,-0.0257,0.2574,
0.165731,-0.0250,0.2586,1.0035,-0.0085,0.0878,0.3406,0.0088,0.2480,0.2666,
0.174685,-0.0138,0.2207,0.8981,-0.0085,0.0878,0.3406,0.0088,0.2480,0.2666,
0.175797,-0.0138,0.2207,0.8981,0.0111,-0.1772,-0.7211,0.0088,0.2480,0.2666,
0.176886,-0.0138,0.2207,0.8981,0.0111,-0.1772,-0.7211,0.1706,0.4435,0.2770,
0.185759,-0.0138,0.2207,0.8981,0.0111,-0.1772,-0.7211,0.2061,0.5253,0.2825,
0.193438,0.0032,0.1854,0.7942,0.0111,-0.1772,-0.7211,0.2061,0.5253,0.2825,
0.194490,0.0032,0.1854,0.7942,-0.0071,-0.4124,-1.7662,0.2061,0.5253,0.2825,
0.195754,0.0032,0.1854,0.7942,-0.0071,-0.4124,-1.7662,0.1150,0.4856,0.2757,
0.205797,0.0032,0.1854,0.7942,-0.0071,-0.4124,-1.7662,-0.0627,0.3323,0.2476,
0.213424,0.0420,0.1543,0.7615,-0.0071,-0.4124,-1.7662,-0.0627,0.3323,0.2476,
0.214784,0.0420,0.1543,0.7615,-0.1178,-0.4325,-2.1346,-0.0627,0.3323,0.2476,
0.215941,0.0420,0.1543,0.7615,-0.1178,-0.4325,-2.1346,-0.2875,0.0947,0.1957,
0.226214,0.0420,0.1543,0.7615,-0.1178,-0.4325,-2.1346,-0.5276,-0.1753,0.1291,
0.233771,0.0687,0.1379,0.8077,-0.1178,-0.4325,-2.1346,-0.5276,-0.1753,0.1291,
0.234901,0.0687,0.1379,0.8077,-0.1460,-0.2933,-1.7178,-0.5276,-0.1753,0.1291,
0.236427,0.0687,0.1379,0.8077,-0.1460,-0.2933,-1.7178,-0.7383,-0.4411,0.0522,
0.246074,0.0687,0.1379,0.8077,-0.1460,-0.2933,-1.7178,-0.8923,-0.6824,-0.0352,
0.253608,0.0555,0.1044,0.8485,-0.1460,-0.2933,-1.7178,-0.8923,-0.6824,-0.0352,
0.254892,0.0555,0.1044,0.8485,-0.0914,-0.1721,-1.3977,-0.8923,-0.6824,-0.0352,
0.256272,0.0555,0.1044,0.8485,-0.0914,-0.1721,-1.3977,-0.9937,-0.8626,-0.1250,
0.266196,0.0555,0.1044,0.8485,-0.0914,-0.1721,-1.3977,-1.0487,-0.9878,-0.2166,
0.273572,0.0556,0.0744,0.8338,-0.0914,-0.1721,-1.3977,-1.0487,-0.9878,-0.2166,
0.274803,0.0556,0.0744,0.8338,-0.1050,-0.1405,-1.5750,-1.0487,-0.9878,-0.2166,
0.276558,0.0556,0.0744,0.8338,-0.1050,-0.1405,-1.5750,-1.0676,-1.0568,-0.3192,
0.286106,0.0556,0.0744,0.8338,-0.1050,-0.1405,-1.5750,-1.0206,-0.9475,-0.5666,
0.293701,0.1215,0.0715,0.8697,-0.1050,-0.1405,-1.5750,-1.0206,-0.9475,-0.5666,
0.296470,0.1215,0.0715,0.8697,-0.1617,-0.0951,-1.1569,-1.0206,-0.9475,-0.5666,
0.297593,0.1215,0.0715,0.8697,-0.1617,-0.0951,-1.1569,-0.9045,-0.7599,-0.7041,
0.306095,0.1215,0.0715,0.8697,-0.1617,-0.0951,-1.1569,-0.7151,-0.5339,-0.8354,
0.313644,0.1316,0.0429,0.8922,-0.1617,-0.0951,-1.1569,-0.7151,-0.5339,-0.8354,
0.314913,0.1316,0.0429,0.8922,-0.1397,-0.0455,-0.9472,-0.7151,-0.5339,-0.8354,
0.316358,0.1316,0.0429,0.8922,-0.1397,-0.0455,-0.9472,-0.5178,-0.3146,-0.9551,
0.326079,0.1316,0.0429,0.8922,-0.1397,-0.0455,-0.9472,-0.4188,-0.1393,-1.0456,
0.333716,0.0612,-0.0533,0.6894,-0.1397,-0.0455,-0.9472,-0.4188,-0.1393,-1.0456,
0.335037,0.0612,-0.0533,0.6894,-0.2648,0.2304,-2.9830,-0.4188,-0.1393,-1.0456,
0.336623,0.0612,-0.0533,0.6894,-0.2648,0.2304,-2.9830,-0.4732,-0.0642,-1.1073,
0.346078,0.0612,-0.0533,0.6894,-0.2648,0.2304,-2.9830,-0.6455,-0.1228,-1.1592,
0.353461,0.0226,-0.1413,0.6677,-0.2648,0.2304,-2.9830,-0.6455,-0.1228,-1.1592,
0.354675,0.0226,-0.1413,0.6677,-0.1031,0.6446,-3.0455,-0.6455,-0.1228,-1.1592,
0.356006,0.0226,-0.1413,0.6677,-0.1031,0.6446,-3.0455,-0.8660,-0.2792,-1.2172,
0.366078,0.0226,-0.1413,0.6677,-0.1031,0.6446,-3.0455,-1.0700,-0.4417,-1.2966,
0.373958,0.0726,-0.2249,0.7757,-0.1031,0.6446,-3.0455,-1.0700,-0.4417,-1.2966,
0.375459,0.0726,-0.2249,0.7757,-0.1664,0.5159,-1.7794,-1.0700,-0.4417,-1.2966,
0.376711,0.0726,-0.2249,0.7757,-0.1664,0.5159,-1.7794,-1.2240,-0.5186,-1.4060,
0.386028,0.0726,-0.2249,0.7757,-0.1664,0.5159,-1.7794,-1.3083,-0.4771,-1.5562,
0.393661,0.1455,-0.2880,0.7980,-0.1664,0.5159,-1.7794,-1.3083,-0.4771,-1.5562,
0.395342,0.1455,-0.2880,0.7980,-0.2317,0.4587,-1.2708,-1.3083,-0.4771,-1.5562,
0.397215,0.1455,-0.2880,0.7980,-0.2317,0.4587,-1.2708,-1.3351,-0.4447,-1.7383,
0.406104,0.1455,-0.2880,0.7980,-0.2317,0.4587,-1.2708,-1.3718,-0.4643,-1.9301,
0.413524,0.1493,-0.3143,0.7057,-0.2317,0.4587,-1.2708,-1.3718,-0.4643,-1.9301,
0.414946,0.1493,-0.3143,0.7057,-0.3977,0.8373,-1.8799,-1.3718,-0.4643,-1.9301,
0.416590,0.1493,-0.3143,0.7057,-0.3977,0.8373,-1.8799,-1.4781,-0.4313,-2.1017,
0.426146,0.1493,-0.3143,0.7057,-0.3977,0.8373,-1.8799,-1.6620,-0.3244,-2.2154,
0.433627,0.1335,-0.3031,0.6031,-0.3977,0.8373,-1.8799,-1.6620,-0.3244,-2.2154,
0.434967,0.1335,-0.3031,0.6031,-0.5946,1.3497,-2.6858,-1.6620,-0.3244,-2.2154,
0.436814,0.1335,-0.3031,0.6031,-0.5946,1.3497,-2.6858,-1.9002,-0.1876,-2.2612,
0.446560,0.1335,-0.3031,0.6031,-0.5946,1.3497,-2.6858,-2.1904,0.0177,-2.2422,
0.454023,0.1231,-0.3484,0.6150,-0.5946,1.3497,-2.6858,-2.1904,0.0177,-2.2422,
0.456021,0.1231,-0.3484,0.6150,-0.4762,1.3475,-2.3789,-2.1904,0.0177,-2.2422,
0.457709,0.1231,-0.3484,0.6150,-0.4762,1.3475,-2.3789,-2.5202,0.2926,-2.1848,
0.466674,0.1231,-0.3484,0.6150,-0.4762,1.3475,-2.3789,-2.8354,0.6108,-2.1207,
0.474212,0.1291,-0.4617,0.7709,-0.4762,1.3475,-2.3789,-2.8354,0.6108,-2.1207,
0.476207,0.1291,-0.4617,0.7709,-0.1294,0.4627,-0.7726,-2.8354,0.6108,-2.1207,
0.478222,0.1291,-0.4617,0.7709,-0.1294,0.4627,-0.7726,-3.3614,1.0446,-2.0083,
0.486570,0.1291,-0.4617,0.7709,-0.1294,0.4627,-0.7726,-3.5905,1.0116,-2.0095,
0.494375,0.2742,-0.5957,0.9139,-0.1294,0.4627,-0.7726,-3.5905,1.0116,-2.0095,
0.496900,0.2742,-0.5957,0.9139,0.2968,-0.6447,0.9891,-3.5905,1.0116,-2.0095,
0.498822,0.2742,-0.5957,0.9139,0.2968,-0.6447,0.9891,-3.7920,0.9089,-2.1103,
0.506656,0.2742,-0.5957,0.9139,0.2968,-0.6447,0.9891,-3.9527,0.8289,-2.3003,
0.514270,0.3958,-0.6527,1.0834,0.2968,-0.6447,0.9891,-3.9527,0.8289,-2.3003,
0.516323,0.3958,-0.6527,1.0834,0.9499,-1.5665,2.6003,-3.9527,0.8289,-2.3003,
0.517990,0.3958,-0.6527,1.0834,0.9499,-1.5665,2.6003,-4.0541,0.7752,-2.5324,
0.526934,0.3958,-0.6527,1.0834,0.9499,-1.5665,2.6003,-4.1011,0.7226,-2.7236,
0.533871,0.2778,-0.5630,1.1993,0.9499,-1.5665,2.6003,-4.1011,0.7226,-2.7236,
0.535768,0.2778,-0.5630,1.1993,0.7099,-1.4388,3.0649,-4.1011,0.7226,-2.7236,
0.537534,0.2778,-0.5630,1.1993,0.7099,-1.4388,3.0649,-4.1097,0.6243,-2.7865,
0.546687,0.2778,-0.5630,1.1993,0.7099,-1.4388,3.0649,-4.1054,0.4313,-2.6876,
0.553982,0.2277,-0.5056,1.2728,0.7099,-1.4388,3.0649,-4.1054,0.4313,-2.6876,
0.556013,0.2277,-0.5056,1.2728,0.6231,-1.3836,3.4832,-4.1054,0.4313,-2.6876,
0.558338,0.2277,-0.5056,1.2728,0.6231,-1.3836,3.4832,-4.1164,0.1448,-2.4628,
0.566602,0.2277,-0.5056,1.2728,0.6231,-1.3836,3.4832,-4.1360,-0.1814,-2.2117,
0.574282,0.3545,-0.5067,1.4480,0.6231,-1.3836,3.4832,-4.1360,-0.1814,-2.2117,
0.576472,0.3545,-0.5067,1.4480,1.2661,-1.8097,5.1718,-4.1360,-0.1814,-2.2117,
0.578348,0.3545,-0.5067,1.4480,1.2661,-1.8097,5.1718,-4.1170,-0.4136,-2.0229,
0.586624,0.3545,-0.5067,1.4480,1.2661,-1.8097,5.1718,-3.9985,-0.5309,-1.9350,
0.594072,0.4713,-0.5055,1.6255,1.2661,-1.8097,5.1718,-3.9985,-0.5309,-1.9350,
0.596912,0.4713,-0.5055,1.6255,2.0019,-2.1472,6.9050,-3.9985,-0.5309,-1.9350,
0.599703,0.4713,-0.5055,1.6255,2.0019,-2.1472,6.9050,-3.7530,-0.5865,-1.9509,
0.606540,0.4713,-0.5055,1.6255,2.0019,-2.1472,6.9050,-3.3907,-0.6182,-2.0425,
0.613842,0.4670,-0.4583,1.6665,2.0019,-2.1472,6.9050,-3.3907,-0.6182,-2.0425,
0.615961,0.4670,-0.4583,1.6665,2.0186,-1.9811,7.2038,-3.3907,-0.6182,-2.0425,
0.617991,0.4670,-0.4583,1.6665,2.0186,-1.9811,7.2038,-2.9729,-0.7196,-2.1561,
0.626777,0.4670,-0.4583,1.6665,2.0186,-1.9811,7.2038,-2.5807,-0.8852,-2.2331,
0.633820,0.3817,-0.3746,1.5970,2.0186,-1.9811,7.2038,-2.5807,-0.8852,-2.2331,
0.635688,0.3817,-0.3746,1.5970,1.5183,-1.4901,6.3519,-2.5807,-0.8852,-2.2331,
0.637414,0.3817,-0.3746,1.5970,1.5183,-1.4901,6.3519,-2.2624,-1.0782,-2.2416,
0.646595,0.3817,-0.3746,1.5970,1.5183,-1.4901,6.3519,-2.0218,-1.2951,-2.1836,
0.654431,0.3693,-0.3224,1.5196,1.5183,-1.4901,6.3519,-2.0218,-1.2951,-2.1836,
0.657182,0.3693,-0.3224,1.5196,1.3508,-1.1792,5.5588,-2.0218,-1.2951,-2.1836,
0.660017,0.3693,-0.3224,1.5196,1.3508,-1.1792,5.5588,-1.6601,-1.8149,-1.9912,
0.666569,0.3693,-0.3224,1.5196,1.3508,-1.1792,5.5588,-1.4958,-1.9896,-1.9380,
0.674175,0.4708,-0.3105,1.5517,1.3508,-1.1792,5.5588,-1.4958,-1.9896,-1.9380,
0.676959,0.4708,-0.3105,1.5517,1.8173,-1.1987,5.9900,-1.4958,-1.9896,-1.9380,
0.679104,0.4708,-0.3105,1.5517,1.8173,-1.1987,5.9900,-1.2789,-2.0299,-1.9209,
0.686581,0.4708,-0.3105,1.5517,1.8173,-1.1987,5.9900,-0.9668,-2.1509,-1.8806,
0.693875,0.4968,-0.2624,1.5433,1.8173,-1.1987,5.9900,-0.9668,-2.1509,-1.8806,
0.695939,0.4968,-0.2624,1.5433,1.9022,-1.0047,5.9092,-0.9668,-2.1509,-1.8806,
0.697889,0.4968,-0.2624,1.5433,1.9022,-1.0047,5.9092,-0.6430,-2.3439,-1.8372,
0.706386,0.4968,-0.2624,1.5433,1.9022,-1.0047,5.9092,-0.3871,-2.3708,-1.8574,
0.714267,0.5736,-0.3277,1.2908,1.9022,-1.0047,5.9092,-0.3871,-2.3708,-1.8574,
0.716633,0.5736,-0.3277,1.2908,1.7421,-0.9953,3.9201,-0.3871,-2.3708,-1.8574,
0.718684,0.5736,-0.3277,1.2908,1.7421,-0.9953,3.9201,-0.1953,-2.3347,-1.9374,
0.727949,0.5736,-0.3277,1.2908,1.7421,-0.9953,3.9201,-0.0352,-2.4288,-2.0431,
0.733997,0.4846,-0.3200,1.0785,1.7421,-0.9953,3.9201,-0.0352,-2.4288,-2.0431,
0.735861,0.4846,-0.3200,1.0785,0.8693,-0.5741,1.9347,-0.0352,-2.4288,-2.0431,
0.737574,0.4846,-0.3200,1.0785,0.8693,-0.5741,1.9347,0.0888,-2.5931,-2.1421,
0.746526,0.4846,-0.3200,1.0785,0.8693,-0.5741,1.9347,0.1572,-2.6603,-2.1891,
0.753831,0.3777,-0.2444,0.9300,0.8693,-0.5741,1.9347,0.1572,-2.6603,-2.1891,
0.755422,0.3777,-0.2444,0.9300,0.1160,-0.0751,0.2857,0.1572,-2.6603,-2.1891,
0.757439,0.3777,-0.2444,0.9300,0.1160,-0.0751,0.2857,0.1975,-2.5418,-2.1555,
0.766529,0.3777,-0.2444,0.9300,0.1160,-0.0751,0.2857,0.2537,-2.3042,-2.0425,
0.774088,0.3398,-0.1749,0.8657,0.1160,-0.0751,0.2857,0.2537,-2.3042,-2.0425,
0.776624,0.3398,-0.1749,0.8657,-0.1913,0.0985,-0.4873,0.2537,-2.3042,-2.0425,
0.779127,0.3398,-0.1749,0.8657,-0.1913,0.0985,-0.4873,0.3313,-2.0098,-1.8794,
0.786506,0.3398,-0.1749,0.8657,-0.1913,0.0985,-0.4873,0.4131,-1.7361,-1.6876,
0.793823,0.2800,-0.1824,0.7475,-0.1913,0.0985,-0.4873,0.4131,-1.7361,-1.6876,
0.796406,0.2800,-0.1824,0.7475,-0.6097,0.3972,-1.6278,0.4131,-1.7361,-1.6876,
0.798678,0.2800,-0.1824,0.7475,-0.6097,0.3972,-1.6278,0.4602,-1.5638,-1.4719,
0.806383,0.2800,-0.1824,0.7475,-0.6097,0.3972,-1.6278,0.4419,-1.4942,-1.2453,
0.813732,0.2880,-0.2266,0.6271,-0.6097,0.3972,-1.6278,0.4419,-1.4942,-1.2453,
0.815987,0.2880,-0.2266,0.6271,-1.0660,0.8386,-2.3210,0.4419,-1.4942,-1.2453,
0.817440,0.2880,-0.2266,0.6271,-1.0660,0.8386,-2.3210,0.3624,-1.4795,-1.0199,
0.827292,0.2880,-0.2266,0.6271,-1.0660,0.8386,-2.3210,0.2397,-1.4612,-0.8092,
0.833517,0.3639,-0.2322,0.6104,-1.0660,0.8386,-2.3210,0.2397,-1.4612,-0.8092,
0.834959,0.3639,-0.2322,0.6104,-1.2071,0.7703,-2.0248,0.2397,-1.4612,-0.8092,
0.836348,0.3639,-0.2322,0.6104,-1.2071,0.7703,-2.0248,0.1016,-1.3879,-0.6289,
0.846429,0.3639,-0.2322,0.6104,-1.2071,0.7703,-2.0248,-0.0652,-1.0703,-0.3070,
0.853331,0.3370,-0.2235,0.7255,-1.2071,0.7703,-2.0248,-0.0652,-1.0703,-0.3070,
0.854464,0.3370,-0.2235,0.7255,-0.6764,0.4487,-1.4561,-0.0652,-1.0703,-0.3070,
0.855897,0.3370,-0.2235,0.7255,-0.6764,0.4487,-1.4561,-0.0371,-0.8968,-0.1085,
0.866105,0.3370,-0.2235,0.7255,-0.6764,0.4487,-1.4561,0.0595,-0.8980,0.1346,
0.873389,0.3225,-0.2712,0.8791,-0.6764,0.4487,-1.4561,0.0595,-0.8980,0.1346,
0.874823,0.3225,-0.2712,0.8791,-0.0836,0.0703,-0.2279,0.0595,-0.8980,0.1346,
0.876109,0.3225,-0.2712,0.8791,-0.0836,0.0703,-0.2279,0.2250,-0.9811,0.4138,
0.885868,0.3225,-0.2712,0.8791,-0.0836,0.0703,-0.2279,0.4498,-1.0513,0.6960,
0.893333,0.7721,-0.7670,0.6233,-0.0836,0.0703,-0.2279,0.4498,-1.0513,0.6960,
0.895001,0.7721,-0.7670,0.6233,1.5296,-1.5194,1.2348,0.4498,-1.0513,0.6960,
0.896357,0.7721,-0.7670,0.6233,1.5296,-1.5194,1.2348,0.5396,-1.1649,0.8738,
0.905850,0.7721,-0.7670,0.6233,1.5296,-1.5194,1.2348,0.3985,-1.2780,0.8726,
0.913207,0.9986,-0.7021,0.3981,1.5296,-1.5194,1.2348,0.3985,-1.2780,0.8726,
0.914132,0.9986,-0.7021,0.3981,2.1595,-1.5184,0.8609,0.3985,-1.2780,0.8726,
0.915745,0.9986,-0.7021,0.3981,2.1595,-1.5184,0.8609,0.1138,-1.2584,0.7162,
0.925930,0.9986,-0.7021,0.3981,2.1595,-1.5184,0.8609,-0.1824,-1.1484,0.5500,
0.933192,0.7647,-0.4328,0.4186,2.1595,-1.5184,0.8609,-0.1824,-1.1484,0.5500,
0.934079,0.7647,-0.4328,0.4186,-0.2109,0.1194,-0.1155,-0.1824,-1.1484,0.5500,
0.935766,0.7647,-0.4328,0.4186,-0.2109,0.1194,-0.1155,-0.4011,-1.0403,0.5128,
0.945724,0.7647,-0.4328,0.4186,-0.2109,0.1194,-0.1155,-0.5123,-0.9432,0.6765,
0.953202,0.4020,-0.6883,0.5034,-0.2109,0.1194,-0.1155,-0.5123,-0.9432,0.6765,
0.954081,0.4020,-0.6883,0.5034,-0.2420,0.4143,-0.3030,-0.5123,-0.9432,0.6765,
0.955794,0.4020,-0.6883,0.5034,-0.2420,0.4143,-0.3030,-0.5465,-0.8180,1.0864,
0.965681,0.4020,-0.6883,0.5034,-0.2420,0.4143,-0.3030,-0.5490,-0.6359,1.6416,
0.973440,0.7712,-0.8732,0.6513,-0.2420,0.4143,-0.3030,-0.5490,-0.6359,1.6416,
0.974555,0.7712,-0.8732,0.6513,1.8911,-2.1412,1.5972,-0.5490,-0.6359,1.6416,
0.976929,0.7712,-0.8732,0.6513,1.8911,-2.1412,1.5972,-0.5172,-0.5571,2.0986,
0.985736,0.7712,-0.8732,0.6513,1.8911,-2.1412,1.5972,-0.4372,-0.8406,2.2293,
0.993295,1.3967,-1.0505,0.6852,1.8911,-2.1412,1.5972,-0.4372,-0.8406,2.2293,
0.994346,1.3967,-1.0505,0.6852,6.3911,-4.8070,3.1352,-0.4372,-0.8406,2.2293,
0.995769,1.3967,-1.0505,0.6852,6.3911,-4.8070,3.1352,-0.3199,-1.3079,1.9471,
1.005797,1.3967,-1.0505,0.6852,6.3911,-4.8070,3.1352,-0.0902,-1.7618,1.4669,
1.013177,1.0178,-0.9219,0.8845,6.3911,-4.8070,3.1352,-0.0902,-1.7618,1.4669,
1.014050,1.0178,-0.9219,0.8845,3.8638,-3.4998,3.3579,-0.0902,-1.7618,1.4669,
1.015786,1.0178,-0.9219,0.8845,3.8638,-3.4998,3.3579,0.2378,-2.0898,1.0656,
1.025882,1.0178,-0.9219,0.8845,3.8638,-3.4998,3.3579,0.9342,-1.9267,-0.7413,
1.033331,1.5341,0.3729,0.0468,3.8638,-3.4998,3.3579,0.9342,-1.9267,-0.7413,
1.034204,1.5341,0.3729,0.0468,5.5094,1.3393,0.1680,0.9342,-1.9267,-0.7413,
1.035840,1.5341,0.3729,0.0468,5.5094,1.3393,0.1680,0.4510,-2.0623,-2.0205,
1.046862,1.5341,0.3729,0.0468,5.5094,1.3393,0.1680,0.2836,-1.7923,-1.0578,
1.053840,-0.6888,-1.3379,0.8453,5.5094,1.3393,0.1680,0.2836,-1.7923,-1.0578,
1.055712,-0.6888,-1.3379,0.8453,-16.2401,-15.5848,8.2640,0.2836,-1.7923,-1.0578,
1.059373,-0.6888,-1.3379,0.8453,-16.2401,-15.5848,8.2640,0.4577,-1.5467,0.6832,
1.075784,-0.6888,-1.3379,0.8453,-16.2401,-15.5848,8.2640,0.8450,-1.1344,1.5634,
1.078477,0.7620,-0.4068,0.6926,-16.2401,-15.5848,8.2640,0.8450,-1.1344,1.5634,
1.080694,0.7620,-0.4068,0.6926,-2.1106,-6.0891,6.8833,0.8450,-1.1344,1.5634,
1.083377,0.7620,-0.4068,0.6926,-2.1106,-6.0891,6.8833,1.1462,-0.6017,1.3380,
1.102908,0.7620,-0.4068,0.6926,-2.1106,-6.0891,6.8833,1.2916,-0.1570,0.7076,
1.104529,0.3304,-0.5823,0.6238,-2.1106,-6.0891,6.8833,1.2916,-0.1570,0.7076,
1.106785,0.3304,-0.5823,0.6238,-6.4189,-7.4129,6.1139,1.2916,-0.1570,0.7076,
1.111082,0.3304,-0.5823,0.6238,-6.4189,-7.4129,6.1139,1.3282,0.1924,0.3448,
1.112499,0.3304,-0.5823,0.6238,-6.4189,-7.4129,6.1139,1.3123,0.3738,0.3729,
1.113482,0.3588,-0.4791,0.4131,-6.4189,-7.4129,6.1139,1.3123,0.3738,0.3729,
1.114463,0.3588,-0.4791,0.4131,-6.1856,-6.1081,3.8145,1.3123,0.3738,0.3729,
1.115864,0.3588,-0.4791,0.4131,-6.1856,-6.1081,3.8145,1.2781,0.3079,0.4987,
1.126391,0.3588,-0.4791,0.4131,-6.1856,-6.1081,3.8145,1.2476,0.2798,0.4865,
1.133416,0.3314,-0.2637,-0.0160,-6.1856,-6.1081,3.8145,1.2476,0.2798,0.4865,
1.134741,0.3314,-0.2637,-0.0160,-6.4883,-3.6749,-0.5934,1.2476,0.2798,0.4865,
1.136061,0.3314,-0.2637,-0.0160,-6.4883,-3.6749,-0.5934,1.2079,0.3775,0.4052,
1.146719,0.3314,-0.2637,-0.0160,-6.4883,-3.6749,-0.5934,1.0674,0.4539,0.4669,
1.153133,0.0384,-0.0807,-0.3475,-6.4883,-3.6749,-0.5934,1.0674,0.4539,0.4669,
1.154009,0.0384,-0.0807,-0.3475,-9.3655,-1.8067,-3.8996,1.0674,0.4539,0.4669,
1.155689,0.0384,-0.0807,-0.3475,-9.3655,-1.8067,-3.8996,0.7589,0.4484,0.7919,
1.165681,0.0384,-0.0807,-0.3475,-9.3655,-1.8067,-3.8996,0.2592,0.3512,1.3894,
1.173112,-0.1160,-0.1190,-0.3398,-9.3655,-1.8067,-3.8996,0.2592,0.3512,1.3894,
1.174107,-0.1160,-0.1190,-0.3398,-10.8943,-1.9755,-3.8919,0.2592,0.3512,1.3894,
1.182560,-0.1160,-0.1190,-0.3398,-10.8943,-1.9755,-3.8919,-0.3315,0.0879,2.1493,
1.185816,-0.1160,-0.1190,-0.3398,-10.8943,-1.9755,-3.8919,-0.8599,-0.2609,2.9147,
1.193133,0.1681,-0.3826,-0.0247,-10.8943,-1.9755,-3.8919,-0.8599,-0.2609,2.9147,
1.194400,0.1681,-0.3826,-0.0247,-8.1391,-4.0576,-0.7927,-0.8599,-0.2609,2.9147,
1.195726,0.1681,-0.3826,-0.0247,-8.1391,-4.0576,-0.7927,-1.2814,-0.5186,3.4852,
1.205739,0.1681,-0.3826,-0.0247,-8.1391,-4.0576,-0.7927,-1.5343,-0.5064,3.9550,
1.215499,0.2370,-0.7509,0.6606,-8.1391,-4.0576,-0.7927,-1.5343,-0.5064,3.9550,
1.216567,0.2370,-0.7509,0.6606,-7.4644,-6.9245,6.0253,-1.5343,-0.5064,3.9550,
1.217649,0.2370,-0.7509,0.6606,-7.4644,-6.9245,6.0253,-1.2197,0.1295,5.0497,
1.226372,0.2370,-0.7509,0.6606,-7.4644,-6.9245,6.0253,-0.8709,0.1509,5.6086,
1.233390,-0.0283,-1.0467,0.5760,-7.4644,-6.9245,6.0253,-0.8709,0.1509,5.6086,
1.234352,-0.0283,-1.0467,0.5760,-9.8847,-8.3999,4.9933,-0.8709,0.1509,5.6086,
1.235799,-0.0283,-1.0467,0.5760,-9.8847,-8.3999,4.9933,-0.6553,-0.2865,6.0771,
1.245733,-0.0283,-1.0467,0.5760,-9.8847,-8.3999,4.9933,-0.6461,-0.6280,6.2237,
1.253190,0.5827,-1.2742,0.0636,-9.8847,-8.3999,4.9933,-0.6461,-0.6280,6.2237,
1.254035,0.5827,-1.2742,0.0636,-3.4875,-9.1448,-0.0112,-0.6461,-0.6280,6.2237,
1.255720,0.5827,-1.2742,0.0636,-3.4875,-9.1448,-0.0112,-0.8654,-0.8491,6.0167,
1.265780,0.5827,-1.2742,0.0636,-3.4875,-9.1448,-0.0112,-1.5190,-0.8601,5.5542,
1.273101,1.2400,-1.7848,-0.0116,-3.4875,-9.1448,-0.0112,-1.5190,-0.8601,5.5542,
1.273987,1.2400,-1.7848,-0.0116,3.5054,-12.8837,-0.5431,-1.5190,-0.8601,5.5542,
1.284135,1.2400,-1.7848,-0.0116,3.5054,-12.8837,-0.5431,-1.9326,1.5730,4.8108,
1.286350,1.2400,-1.7848,-0.0116,3.5054,-12.8837,-0.5431,-2.2527,4.1991,4.0442,
1.293793,0.5183,-1.2909,0.1438,3.5054,-12.8837,-0.5431,-2.2527,4.1991,4.0442,
1.297366,0.5183,-1.2909,0.1438,-2.9757,-7.1050,0.6815,-2.2527,4.1991,4.0442,
1.299354,0.5183,-1.2909,0.1438,-2.9757,-7.1050,0.6815,-2.6619,5.7256,3.5610,
1.306211,0.5183,-1.2909,0.1438,-2.9757,-7.1050,0.6815,-3.2410,5.9333,3.4260,
1.321143,-0.1477,-0.9866,0.9649,-2.9757,-7.1050,0.6815,-3.2410,5.9333,3.4260,
1.322863,-0.1477,-0.9866,0.9649,-8.8309,-3.3631,8.0818,-3.2410,5.9333,3.4260,
1.324523,-0.1477,-0.9866,0.9649,-8.8309,-3.3631,8.0818,-3.9454,4.1343,3.1969,
1.326581,-0.1477,-0.9866,0.9649,-8.8309,-3.3631,8.0818,-3.7322,0.1710,2.4394,
1.334106,0.4896,-0.8805,1.5692,-8.8309,-3.3631,8.0818,-3.7322,0.1710,2.4394,
1.336002,0.4896,-0.8805,1.5692,-2.0366,-1.7292,14.0155,-3.7322,0.1710,2.4394,
1.337428,0.4896,-0.8805,1.5692,-2.0366,-1.7292,14.0155,-1.9704,-2.7306,1.3503,
1.346261,0.4896,-0.8805,1.5692,-2.0366,-1.7292,14.0155,-0.2802,-3.0690,0.1530,
1.353712,0.2692,-0.5068,0.2714,-2.0366,-1.7292,14.0155,-0.2802,-3.0690,0.1530,
1.355242,0.2692,-0.5068,0.2714,-4.0455,2.1395,1.6618,-0.2802,-3.0690,0.1530,
1.356587,0.2692,-0.5068,0.2714,-4.0455,2.1395,1.6618,0.6337,-3.5180,-0.8623,
1.366377,0.2692,-0.5068,0.2714,-4.0455,2.1395,1.6618,0.9202,-4.3091,-1.4915,
1.373827,-0.1277,-0.5509,0.2769,-4.0455,2.1395,1.6618,0.9202,-4.3091,-1.4915,
1.376568,-0.1277,-0.5509,0.2769,-8.0281,1.6469,1.9408,0.9202,-4.3091,-1.4915,
1.378624,-0.1277,-0.5509,0.2769,-8.0281,1.6469,1.9408,0.8976,-4.7257,-1.6350,
1.386576,-0.1277,-0.5509,0.2769,-8.0281,1.6469,1.9408,0.7723,-4.4227,-1.3485,
1.394744,-0.4428,-0.9006,0.1317,-8.0281,1.6469,1.9408,0.7723,-4.4227,-1.3485,
1.397054,-0.4428,-0.9006,0.1317,-11.1808,-1.8136,0.8545,0.7723,-4.4227,-1.3485,
1.399919,-0.4428,-0.9006,0.1317,-11.1808,-1.8136,0.8545,-0.5172,-0.9285,-0.1018,
1.406364,-0.4428,-0.9006,0.1317,-11.1808,-1.8136,0.8545,-0.9668,-0.7728,0.5757,
1.426650,-0.3053,-0.8576,0.3611,-11.1808,-1.8136,0.8545,-0.9668,-0.7728,0.5757,
1.429184,-0.3053,-0.8576,0.3611,-9.5881,-1.1591,3.1448,-0.9668,-0.7728,0.5757,
1.431526,-0.3053,-0.8576,0.3611,-9.5881,-1.1591,3.1448,-1.0047,-1.6414,1.2427,
1.433431,-0.3053,-0.8576,0.3611,-9.5881,-1.1591,3.1448,-0.9442,-1.8913,1.8787,
1.435069,0.3384,-1.0736,0.6339,-9.5881,-1.1591,3.1448,-0.9442,-1.8913,1.8787,
1.437231,0.3384,-1.0736,0.6339,-2.8809,-2.9237,6.0001,-0.9442,-1.8913,1.8787,
1.439336,0.3384,-1.0736,0.6339,-2.8809,-2.9237,6.0001,-0.7579,-1.7049,2.4553,
1.457222,0.3384,-1.0736,0.6339,-2.8809,-2.9237,6.0001,-0.6192,-1.7966,3.0570,
1.459306,0.3925,-1.2535,0.3409,-2.8809,-2.9237,6.0001,-0.6192,-1.7966,3.0570,
1.461805,0.3925,-1.2535,0.3409,-1.7822,-4.2543,3.2812,-0.6192,-1.7966,3.0570,
1.463355,0.3925,-1.2535,0.3409,-1.7822,-4.2543,3.2812,-0.6125,-2.3366,3.5512,
1.467169,0.3925,-1.2535,0.3409,-1.7822,-4.2543,3.2812,-0.7872,-3.2700,3.7754,
1.473592,0.2906,-0.6582,0.0396,-1.7822,-4.2543,3.2812,-0.7872,-3.2700,3.7754,
1.475287,0.2906,-0.6582,0.0396,-2.0638,2.0355,0.5951,-0.7872,-3.2700,3.7754,
1.477107,0.2906,-0.6582,0.0396,-2.0638,2.0355,0.5951,-1.0761,-4.4099,3.7058,
1.486089,0.2906,-0.6582,0.0396,-2.0638,2.0355,0.5951,-1.2838,-5.4538,3.4131,
1.494135,0.0867,-0.6314,-0.1604,-2.0638,2.0355,0.5951,-1.2838,-5.4538,3.4131,
1.495608,0.0867,-0.6314,-0.1604,-3.3073,2.6631,-0.8305,-1.2838,-5.4538,3.4131,
1.497178,0.0867,-0.6314,-0.1604,-3.3073,2.6631,-0.8305,-1.3303,-6.2742,3.0857,
1.506017,0.0867,-0.6314,-0.1604,-3.3073,2.6631,-0.8305,-1.3565,-6.7641,2.7778,
1.513612,0.1969,-1.5308,0.0037,-3.3073,2.6631,-0.8305,-1.3565,-6.7641,2.7778,
1.514598,0.1969,-1.5308,0.0037,-1.4870,-5.9128,1.4073,-1.3565,-6.7641,2.7778,
1.516198,0.1969,-1.5308,0.0037,-1.4870,-5.9128,1.4073,-1.3846,-6.6389,2.2214,
1.529694,0.1969,-1.5308,0.0037,-1.4870,-5.9128,1.4073,-1.4194,-5.8912,1.4034,
1.534149,0.2231,-1.9926,0.1643,-1.4870,-5.9128,1.4073,-1.4194,-5.8912,1.4034,
1.536316,0.2231,-1.9926,0.1643,-0.6333,-10.3285,3.5098,-1.4194,-5.8912,1.4034,
1.538967,0.2231,-1.9926,0.1643,-0.6333,-10.3285,3.5098,-1.4836,-4.6402,0.4309,
1.557374,0.2231,-1.9926,0.1643,-0.6333,-10.3285,3.5098,-1.5080,-3.0305,-0.5416,
1.559932,0.0751,-1.5439,0.5751,-0.6333,-10.3285,3.5098,-1.5080,-3.0305,-0.5416,
1.562221,0.0751,-1.5439,0.5751,-1.8764,-5.9420,7.8545,-1.5080,-3.0305,-0.5416,
1.563994,0.0751,-1.5439,0.5751,-1.8764,-5.9420,7.8545,-1.4023,-1.5870,-1.3241,
1.578379,0.0751,-1.5439,0.5751,-1.8764,-5.9420,7.8545,-0.8507,-0.8638,-1.6546,
1.580119,0.0107,-1.2755,0.8013,-1.8764,-5.9420,7.8545,-0.8507,-0.8638,-1.6546,
1.581851,0.0107,-1.2755,0.8013,-2.6561,-3.3716,10.1365,-0.8507,-0.8638,-1.6546,
1.583467,0.0107,-1.2755,0.8013,-2.6561,-3.3716,10.1365,-0.3663,0.2565,1.4107,
1.587000,0.0107,-1.2755,0.8013,-2.6561,-3.3716,10.1365,0.6190,-1.0189,2.5873,
1.594606,0.3213,-0.8832,0.1970,-2.6561,-3.3716,10.1365,0.6190,-1.0189,2.5873,
1.596959,0.3213,-0.8832,0.1970,0.8022,0.6359,4.0153,0.6190,-1.0189,2.5873,
1.598740,0.3213,-0.8832,0.1970,0.8022,0.6359,4.0153,0.9916,-2.0391,3.2769,
1.606233,0.3213,-0.8832,0.1970,0.8022,0.6359,4.0153,1.3441,-2.9652,3.4920,
1.613707,0.2933,-0.9578,0.1901,0.8022,0.6359,4.0153,1.3441,-2.9652,3.4920,
1.615530,0.2933,-0.9578,0.1901,1.2551,0.1191,3.6498,1.3441,-2.9652,3.4920,
1.616795,0.2933,-0.9578,0.1901,1.2551,0.1191,3.6498,1.8499,-3.6310,3.5915,
1.628111,0.2933,-0.9578,0.1901,1.2551,0.1191,3.6498,2.1596,-3.4630,3.6233,
1.633681,-0.0475,-0.7076,0.2260,1.2551,0.1191,3.6498,2.1596,-3.4630,3.6233,
1.635049,-0.0475,-0.7076,0.2260,-1.2970,2.7461,3.5413,2.1596,-3.4630,3.6233,
1.636778,-0.0475,-0.7076,0.2260,-1.2970,2.7461,3.5413,2.0344,-3.0568,3.1615,
1.646177,-0.0475,-0.7076,0.2260,-1.2970,2.7461,3.5413,1.1627,-2.1655,2.2323,
1.653793,-0.1450,-0.6407,0.3458,-1.2970,2.7461,3.5413,1.1627,-2.1655,2.2323,
1.655308,-0.1450,-0.6407,0.3458,-1.6815,3.4848,4.2689,1.1627,-2.1655,2.2323,
1.656690,-0.1450,-0.6407,0.3458,-1.6815,3.4848,4.2689,0.2537,-0.5321,1.1755,
1.666897,-0.1450,-0.6407,0.3458,-1.6815,3.4848,4.2689,-0.2032,0.9932,0.3106,
1.674469,-0.2018,-0.6896,0.3253,-1.6815,3.4848,4.2689,-0.2032,0.9932,0.3106,
1.677846,-0.2018,-0.6896,0.3253,-2.0870,3.0230,3.8939,-0.2032,0.9932,0.3106,
1.680585,-0.2018,-0.6896,0.3253,-2.0870,3.0230,3.8939,-0.3144,2.0079,-0.3272,
1.686684,-0.2018,-0.6896,0.3253,-2.0870,3.0230,3.8939,-0.2466,2.6951,-0.7933,
1.696266,-0.2806,-0.9441,0.2268,-2.0870,3.0230,3.8939,-0.2466,2.6951,-0.7933,
1.699518,-0.2806,-0.9441,0.2268,-2.9564,0.5336,2.8241,-0.2466,2.6951,-0.7933,
1.703194,-0.2806,-0.9441,0.2268,-2.9564,0.5336,2.8241,-0.0859,3.1203,-1.0065,
1.706587,-0.2806,-0.9441,0.2268,-2.9564,0.5336,2.8241,0.2134,3.0995,-0.9490,
1.714212,-0.2565,-1.1266,0.0726,-2.9564,0.5336,2.8241,0.2134,3.0995,-0.9490,
1.716964,-0.2565,-1.1266,0.0726,-2.8783,-1.2515,1.1657,0.2134,3.0995,-0.9490,
1.719178,-0.2565,-1.1266,0.0726,-2.8783,-1.2515,1.1657,0.5139,2.7611,-0.7798,
1.729453,-0.2565,-1.1266,0.0726,-2.8783,-1.2515,1.1657,0.6489,2.2797,-0.5563,
1.734220,-0.1167,-1.0908,-0.0315,-2.8783,-1.2515,1.1657,0.6489,2.2797,-0.5563,
1.736293,-0.1167,-1.0908,-0.0315,-1.5879,-0.8966,-0.0644,0.6489,2.2797,-0.5563,
1.738584,-0.1167,-1.0908,-0.0315,-1.5879,-0.8966,-0.0644,0.6019,1.7776,-0.3742,
1.746741,-0.1167,-1.0908,-0.0315,-1.5879,-0.8966,-0.0644,0.4229,1.2370,-0.3687,
1.753817,-0.0548,-0.9681,-0.0122,-1.5879,-0.8966,-0.0644,0.4229,1.2370,-0.3687,
1.755418,-0.0548,-0.9681,-0.0122,-0.9971,0.3085,-0.0391,0.4229,1.2370,-0.3687,
1.757023,-0.0548,-0.9681,-0.0122,-0.9971,0.3085,-0.0391,0.1761,0.6652,-0.5074,
1.766633,-0.0548,-0.9681,-0.0122,-0.9971,0.3085,-0.0391,-0.2038,-0.3116,-0.8733,
1.773908,-0.1350,-0.9076,0.1597,-0.9971,0.3085,-0.0391,-0.2038,-0.3116,-0.8733,
1.775897,-0.1350,-0.9076,0.1597,-1.8477,0.8981,1.5931,-0.2038,-0.3116,-0.8733,
1.777866,-0.1350,-0.9076,0.1597,-1.8477,0.8981,1.5931,-0.2838,-0.5657,-0.9869,
1.786463,-0.1350,-0.9076,0.1597,-1.8477,0.8981,1.5931,-0.2784,-0.6524,-1.0737,
1.795475,-0.1487,-0.9104,0.3757,-1.8477,0.8981,1.5931,-0.2784,-0.6524,-1.0737,
1.798491,-0.1487,-0.9104,0.3757,-2.1036,0.8633,3.6914,-0.2784,-0.6524,-1.0737,
1.800634,-0.1487,-0.9104,0.3757,-2.1036,0.8633,3.6914,-0.0511,-0.4136,-1.1384,
1.806649,-0.1487,-0.9104,0.3757,-2.1036,0.8633,3.6914,0.5915,0.3665,-1.0828,
1.814745,-0.1430,-0.9462,0.2979,-2.1036,0.8633,3.6914,0.5915,0.3665,-1.0828,
1.817930,-0.1430,-0.9462,0.2979,-2.1801,0.5021,2.7879,0.5915,0.3665,-1.0828,
1.820147,-0.1430,-0.9462,0.2979,-2.1801,0.5021,2.7879,1.2103,1.0439,-0.8629,
1.829396,-0.1430,-0.9462,0.2979,-2.1801,0.5021,2.7879,1.1480,1.0207,-0.6522,
1.834464,-0.0094,-0.9997,0.0684,-2.1801,0.5021,2.7879,1.1480,1.0207,-0.6522,
1.836918,-0.0094,-0.9997,0.0684,-0.9382,-0.0368,0.2330,1.1480,1.0207,-0.6522,
1.839317,-0.0094,-0.9997,0.0684,-0.9382,-0.0368,0.2330,0.6801,0.8815,-0.5618,
1.846661,-0.0094,-0.9997,0.0684,-0.9382,-0.0368,0.2330,0.2476,0.9083,-0.5337,
1.854245,-0.0112,-0.9937,0.0603,-0.9382,-0.0368,0.2330,0.2476,0.9083,-0.5337,
1.856643,-0.0112,-0.9937,0.0603,-0.9873,0.0116,0.0103,0.2476,0.9083,-0.5337,
1.859441,-0.0112,-0.9937,0.0603,-0.9873,0.0116,0.0103,-0.0920,0.7984,-0.5214,
1.866723,-0.0112,-0.9937,0.0603,-0.9873,0.0116,0.0103,-0.3352,0.5039,-0.5172,
1.874105,-0.0517,-0.9742,0.2234,-0.9873,0.0116,0.0103,-0.3352,0.5039,-0.5172,
1.877318,-0.0517,-0.9742,0.2234,-1.4121,0.1996,1.5928,-0.3352,0.5039,-0.5172,
1.879850,-0.0517,-0.9742,0.2234,-1.4121,0.1996,1.5928,-0.4592,0.2229,-0.5074,
1.886747,-0.0517,-0.9742,0.2234,-1.4121,0.1996,1.5928,-0.4408,0.0898,-0.4732,
1.896009,-0.0859,-1.0037,0.3717,-1.4121,0.1996,1.5928,-0.4408,0.0898,-0.4732,
1.898315,-0.0859,-1.0037,0.3717,-1.7735,-0.0915,3.0631,-0.4408,0.0898,-0.4732,
1.900642,-0.0859,-1.0037,0.3717,-1.7735,-0.0915,3.0631,-0.2881,0.1081,-0.4225,
1.906650,-0.0859,-1.0037,0.3717,-1.7735,-0.0915,3.0631,-0.0872,0.1796,-0.3864,
1.914249,-0.0900,-1.0221,0.3214,-1.7735,-0.0915,3.0631,-0.0872,0.1796,-0.3864,
1.917782,-0.0900,-1.0221,0.3214,-1.8223,-0.2744,2.5284,-0.0872,0.1796,-0.3864,
1.920422,-0.0900,-1.0221,0.3214,-1.8223,-0.2744,2.5284,0.0827,0.2358,-0.3815,
1.929513,-0.0900,-1.0221,0.3214,-1.8223,-0.2744,2.5284,0.1945,0.2578,-0.4035,
1.934431,-0.0915,-1.0403,0.2630,-1.8223,-0.2744,2.5284,0.1945,0.2578,-0.4035,
1.936465,-0.0915,-1.0403,0.2630,-1.8397,-0.4602,1.8533,0.1945,0.2578,-0.4035,
1.938770,-0.0915,-1.0403,0.2630,-1.8397,-0.4602,1.8533,0.2696,0.2608,-0.4365,
1.947107,-0.0915,-1.0403,0.2630,-1.8397,-0.4602,1.8533,0.3172,0.1881,-0.4347,
1.954063,-0.1009,-0.9909,0.1972,-1.8397,-0.4602,1.8533,0.3172,0.1881,-0.4347,
1.956335,-0.1009,-0.9909,0.1972,-1.9401,0.0128,1.0861,0.3172,0.1881,-0.4347,
1.958359,-0.1009,-0.9909,0.1972,-1.9401,0.0128,1.0861,0.2336,0.1179,-0.3925,
1.966754,-0.1009,-0.9909,0.1972,-1.9401,0.0128,1.0861,0.1114,0.0611,-0.3278,
1.974055,-0.1085,-0.9172,0.1758,-1.9401,0.0128,1.0861,0.1114,0.0611,-0.3278,
1.976244,-0.1085,-0.9172,0.1758,-2.0062,0.7274,0.7893,0.1114,0.0611,-0.3278,
1.982080,-0.1085,-0.9172,0.1758,-2.0062,0.7274,0.7893,0.1114,0.0018,-0.2514,
1.986672,-0.1085,-0.9172,0.1758,-2.0062,0.7274,0.7893,-0.1006,-0.1149,-0.1867,
1.995953,-0.0167,-0.8419,0.1057,-2.0062,0.7274,0.7893,-0.1006,-0.1149,-0.1867,
1.998248,-0.0167,-0.8419,0.1057,-1.0825,1.4644,0.0613,-0.1006,-0.1149,-0.1867,
2.000517,-0.0167,-0.8419,0.1057,-1.0825,1.4644,0.0613,-0.1116,-0.3055,-0.1610,
2.006734,-0.0167,-0.8419,0.1057,-1.0825,1.4644,0.0613,-0.0004,-0.9371,-0.2044,
2.014143,0.0490,-0.9120,0.2223,-1.0825,1.4644,0.0613,-0.0004,-0.9371,-0.2044,
2.017607,0.0490,-0.9120,0.2223,-0.4317,0.7757,1.1829,-0.0004,-0.9371,-0.2044,
2.020065,0.0490,-0.9120,0.2223,-0.4317,0.7757,1.1829,0.1346,-1.6994,-0.3877,
2.029634,0.0490,-0.9120,0.2223,-0.4317,0.7757,1.1829,0.0497,-1.6842,-0.5966,
2.035128,-0.1123,-0.8084,0.4382,-0.4317,0.7757,1.1829,0.0497,-1.6842,-0.5966,
2.037401,-0.1123,-0.8084,0.4382,-2.0755,1.7785,3.2402,0.0497,-1.6842,-0.5966,
2.039447,-0.1123,-0.8084,0.4382,-2.0755,1.7785,3.2402,-0.0688,-0.7740,-0.7194,
2.046991,-0.1123,-0.8084,0.4382,-2.0755,1.7785,3.2402,-0.0316,0.3457,-0.7194,
2.053902,-0.1886,-0.8109,0.1965,-2.0755,1.7785,3.2402,-0.0316,0.3457,-0.7194,
2.055663,-0.1886,-0.8109,0.1965,-2.8830,1.7426,0.8201,-0.0316,0.3457,-0.7194,
2.057422,-0.1886,-0.8109,0.1965,-2.8830,1.7426,0.8201,0.0198,1.0684,-0.5520,
2.066423,-0.1886,-0.8109,0.1965,-2.8830,1.7426,0.8201,-0.0126,1.1038,-0.3058,
2.073896,-0.0977,-0.8999,-0.0726,-2.8830,1.7426,0.8201,-0.0126,1.1038,-0.3058,
2.075881,-0.0977,-0.8999,-0.0726,-1.9664,0.8670,-1.8661,-0.0126,1.1038,-0.3058,
2.077985,-0.0977,-0.8999,-0.0726,-1.9664,0.8670,-1.8661,-0.0780,0.0385,-0.1164,
2.086566,-0.0977,-0.8999,-0.0726,-1.9664,0.8670,-1.8661,-0.2784,-0.7838,-0.0431,
2.096340,-0.1055,-0.9959,0.1700,-1.9664,0.8670,-1.8661,-0.2784,-0.7838,-0.0431,
2.098432,-0.1055,-0.9959,0.1700,-1.9847,-0.0660,0.5288,-0.2784,-0.7838,-0.0431,
2.100269,-0.1055,-0.9959,0.1700,-1.9847,-0.0660,0.5288,-0.4781,-0.9536,-0.0511,
2.106237,-0.1055,-0.9959,0.1700,-1.9847,-0.0660,0.5288,-0.5826,-1.1918,-0.0804,
2.113777,-0.1002,-1.1645,0.1102,-1.9847,-0.0660,0.5288,-0.5826,-1.1918,-0.0804,
2.115832,-0.1002,-1.1645,0.1102,-1.8899,-1.7022,0.0473,-0.5826,-1.1918,-0.0804,
2.117447,-0.1002,-1.1645,0.1102,-1.8899,-1.7022,0.0473,-0.5648,-1.8778,-0.1152,
2.128304,-0.1002,-1.1645,0.1102,-1.8899,-1.7022,0.0473,-0.4469,-2.8949,-0.0969,
2.133878,0.0155,-1.2184,-0.0755,-1.8899,-1.7022,0.0473,-0.4469,-2.8949,-0.0969,
2.135171,0.0155,-1.2184,-0.0755,-0.7620,-2.2162,-1.6262,-0.4469,-2.8949,-0.0969,
2.136559,0.0155,-1.2184,-0.0755,-0.7620,-2.2162,-1.6262,-0.2276,-3.8711,0.2232,
2.146405,0.0155,-1.2184,-0.0755,-0.7620,-2.2162,-1.6262,-0.2105,-3.4624,0.3448,
2.154190,0.2167,-1.0742,-0.0897,-0.7620,-2.2162,-1.6262,-0.2105,-3.4624,0.3448,
2.156675,0.2167,-1.0742,-0.0897,1.2232,-0.7922,-1.6450,-0.2105,-3.4624,0.3448,
2.159723,0.2167,-1.0742,-0.0897,1.2232,-0.7922,-1.6450,-0.3003,-2.6438,0.3717,
2.166570,0.2167,-1.0742,-0.0897,1.2232,-0.7922,-1.6450,-0.5288,-1.6469,0.3313,
2.174146,0.3914,-0.8448,0.1755,1.2232,-0.7922,-1.6450,-0.5288,-1.6469,0.3313,
2.176769,0.3914,-0.8448,0.1755,2.9703,1.4677,1.0717,-0.5288,-1.6469,0.3313,
2.179075,0.3914,-0.8448,0.1755,2.9703,1.4677,1.0717,-0.7151,-0.5449,0.2440,
2.186641,0.3914,-0.8448,0.1755,2.9703,1.4677,1.0717,-0.5783,0.7312,0.0876,
2.196802,0.2718,-0.7190,0.5397,2.9703,1.4677,1.0717,-0.5783,0.7312,0.0876,
2.198786,0.2718,-0.7190,0.5397,1.7993,2.7047,4.7021,-0.5783,0.7312,0.0876,
2.200700,0.2718,-0.7190,0.5397,1.7993,2.7047,4.7021,-0.1152,1.7043,-0.0132,
2.206339,0.2718,-0.7190,0.5397,1.7993,2.7047,4.7021,0.3325,1.9438,-0.0437,
2.213810,0.0559,-0.9711,-0.2034,1.7993,2.7047,4.7021,0.3325,1.9438,-0.0437,
2.215757,0.0559,-0.9711,-0.2034,-0.3078,0.2310,-2.6373,0.3325,1.9438,-0.0437,
2.217797,0.0559,-0.9711,-0.2034,-0.3078,0.2310,-2.6373,0.5427,1.5253,-0.0346,
2.226439,0.0559,-0.9711,-0.2034,-0.3078,0.2310,-2.6373,0.6300,0.8301,-0.0242,
2.234461,0.0106,-1.1672,-0.2582,-0.3078,0.2310,-2.6373,0.6300,0.8301,-0.0242,
2.236202,0.0106,-1.1672,-0.2582,-0.7434,-1.6980,-3.2915,0.6300,0.8301,-0.0242,
2.237951,0.0106,-1.1672,-0.2582,-0.7434,-1.6980,-3.2915,0.6838,0.4710,-0.0169,
2.246863,0.0106,-1.1672,-0.2582,-0.7434,-1.6980,-3.2915,0.6398,0.7709,0.0045,
2.254043,0.0403,-1.1942,-0.2762,-0.7434,-1.6980,-3.2915,0.6398,0.7709,0.0045,
2.256093,0.0403,-1.1942,-0.2762,-0.4406,-1.9679,-3.5446,0.6398,0.7709,0.0045,
2.258196,0.0403,-1.1942,-0.2762,-0.4406,-1.9679,-3.5446,0.5066,1.4990,0.0509,
2.266829,0.0403,-1.1942,-0.2762,-0.4406,-1.9679,-3.5446,0.3484,2.0152,0.0900,
2.274155,0.1755,-1.0276,-0.3722,-0.4406,-1.9679,-3.5446,0.3484,2.0152,0.0900,
2.276661,0.1755,-1.0276,-0.3722,0.9210,-0.3333,-4.5010,0.3484,2.0152,0.0900,
2.279533,0.1755,-1.0276,-0.3722,0.9210,-0.3333,-4.5010,0.1871,1.8430,0.0900,
2.286721,0.1755,-1.0276,-0.3722,0.9210,-0.3333,-4.5010,0.1193,0.9963,0.0662,
2.296915,0.2915,-1.0335,-0.2355,0.9210,-0.3333,-4.5010,0.1193,0.9963,0.0662,
2.300607,0.2915,-1.0335,-0.2355,2.0684,-0.3868,-3.1115,0.1193,0.9963,0.0662,
2.303148,0.2915,-1.0335,-0.2355,2.0684,-0.3868,-3.1115,0.1670,0.0446,0.0662,
2.306809,0.2915,-1.0335,-0.2355,2.0684,-0.3868,-3.1115,0.2311,-0.4044,0.0943,
2.314020,0.2615,-0.8492,0.1432,2.0684,-0.3868,-3.1115,0.2311,-0.4044,0.0943,
2.316590,0.2615,-0.8492,0.1432,1.7456,1.4198,0.6323,0.2311,-0.4044,0.0943,
2.319389,0.2615,-0.8492,0.1432,1.7456,1.4198,0.6323,0.3056,-0.5675,-0.1054,
2.326746,0.2615,-0.8492,0.1432,1.7456,1.4198,0.6323,0.6624,-0.4551,-0.2478,
2.334500,-0.1192,-0.7313,0.1517,1.7456,1.4198,0.6323,0.6624,-0.4551,-0.2478,
2.337216,-0.1192,-0.7313,0.1517,-2.0349,2.5663,0.6617,0.6624,-0.4551,-0.2478,
2.339443,-0.1192,-0.7313,0.1517,-2.0349,2.5663,0.6617,0.8316,-0.4795,-0.3602,
2.346804,-0.1192,-0.7313,0.1517,-2.0349,2.5663,0.6617,0.9629,-0.7612,-0.3962,
2.354026,-0.4252,-0.8117,0.0298,-2.0349,2.5663,0.6617,0.9629,-0.7612,-0.3962,
2.356149,-0.4252,-0.8117,0.0298,-5.0624,1.7652,-0.6527,0.9629,-0.7612,-0.3962,
2.358126,-0.4252,-0.8117,0.0298,-5.0624,1.7652,-0.6527,1.0509,-1.0739,-0.3559,
2.366791,-0.4252,-0.8117,0.0298,-5.0624,1.7652,-0.6527,1.1474,-1.3372,-0.2545,
2.374112,-0.3491,-1.0680,0.1606,-5.0624,1.7652,-0.6527,1.1474,-1.3372,-0.2545,
2.376869,-0.3491,-1.0680,0.1606,-4.3100,-0.7628,0.4681,1.1474,-1.3372,-0.2545,
2.379251,-0.3491,-1.0680,0.1606,-4.3100,-0.7628,0.4681,1.2861,-1.6188,-0.0700,
2.386679,-0.3491,-1.0680,0.1606,-4.3100,-0.7628,0.4681,1.4773,-1.8247,0.1530,
2.396789,-0.0292,-1.0167,0.2202,-4.3100,-0.7628,0.4681,1.4773,-1.8247,0.1530,
2.399941,-0.0292,-1.0167,0.2202,-1.1320,-0.2836,0.8336,1.4773,-1.8247,0.1530,
2.402472,-0.0292,-1.0167,0.2202,-1.1320,-0.2836,0.8336,1.7149,-1.8931,0.2916,
2.406757,-0.0292,-1.0167,0.2202,-1.1320,-0.2836,0.8336,1.9568,-1.9426,0.3344,
2.414183,0.0169,-1.3243,0.1710,-1.1320,-0.2836,0.8336,1.9568,-1.9426,0.3344,
2.416450,0.0169,-1.3243,0.1710,-0.6221,-3.3386,0.0523,1.9568,-1.9426,0.3344,
2.418509,0.0169,-1.3243,0.1710,-0.6221,-3.3386,0.0523,2.0362,-2.0250,0.2886,
2.426769,0.0169,-1.3243,0.1710,-0.6221,-3.3386,0.0523,1.9489,-2.1582,0.1566,
2.434099,-0.0818,-1.4348,0.4522,-0.6221,-3.3386,0.0523,1.9489,-2.1582,0.1566,
2.436606,-0.0818,-1.4348,0.4522,-1.5736,-4.4843,2.4673,1.9489,-2.1582,0.1566,
2.438741,-0.0818,-1.4348,0.4522,-1.5736,-4.4843,2.4673,1.7705,-2.0256,0.0705,
2.446787,-0.0818,-1.4348,0.4522,-1.5736,-4.4843,2.4673,1.6440,-1.6164,0.1487,
2.453879,0.0393,-1.2544,0.6799,-1.5736,-4.4843,2.4673,1.6440,-1.6164,0.1487,
2.456575,0.0393,-1.2544,0.6799,-0.4076,-2.7865,4.3898,1.6440,-1.6164,0.1487,
2.460612,0.0393,-1.2544,0.6799,-0.4076,-2.7865,4.3898,1.5860,-1.3335,0.2336,
2.469583,0.0393,-1.2544,0.6799,-0.4076,-2.7865,4.3898,1.5158,-1.1790,0.2458,
2.473644,-0.0071,-1.0224,0.7156,-0.4076,-2.7865,4.3898,1.5158,-1.1790,0.2458,
2.475110,-0.0071,-1.0224,0.7156,-0.8407,-0.5904,4.4313,1.5158,-1.1790,0.2458,
2.477286,-0.0071,-1.0224,0.7156,-0.8407,-0.5904,4.4313,1.4156,-1.0562,0.2861,
2.486236,-0.0071,-1.0224,0.7156,-0.8407,-0.5904,4.4313,1.2671,-0.8925,0.4443,
2.495654,-0.0497,-0.9957,0.3263,-0.8407,-0.5904,4.4313,1.2671,-0.8925,0.4443,
2.497629,-0.0497,-0.9957,0.3263,-1.2109,-0.3980,0.3610,1.2671,-0.8925,0.4443,
2.499331,-0.0497,-0.9957,0.3263,-1.2109,-0.3980,0.3610,0.9935,-1.0617,0.5390,
2.506182,-0.0497,-0.9957,0.3263,-1.2109,-0.3980,0.3610,0.2391,-2.7055,0.5604,
2.513703,-0.1049,-0.9367,0.5862,-1.2109,-0.3980,0.3610,0.2391,-2.7055,0.5604,
2.515519,-0.1049,-0.9367,0.5862,-1.7144,0.1441,2.7830,0.2391,-2.7055,0.5604,
2.517138,-0.1049,-0.9367,0.5862,-1.7144,0.1441,2.7830,-0.0108,-2.6787,0.7088,
2.526831,-0.1049,-0.9367,0.5862,-1.7144,0.1441,2.7830,-0.2698,-2.2443,0.7168,
2.534236,0.2046,-0.7677,0.4407,-1.7144,0.1441,2.7830,-0.2698,-2.2443,0.7168,
2.536582,0.2046,-0.7677,0.4407,1.3258,1.8060,1.3758,-0.2698,-2.2443,0.7168,
2.539258,0.2046,-0.7677,0.4407,1.3258,1.8060,1.3758,-0.6736,-1.7935,0.6459,
2.547626,0.2046,-0.7677,0.4407,1.3258,1.8060,1.3758,-1.2258,-1.3574,0.6374,
2.554249,0.0285,-0.5068,-0.1779,1.3258,1.8060,1.3758,-1.2258,-1.3574,0.6374,
2.556542,0.0285,-0.5068,-0.1779,-0.3637,4.4245,-4.4928,-1.2258,-1.3574,0.6374,
2.558975,0.0285,-0.5068,-0.1779,-0.3637,4.4245,-4.4928,-1.9039,-0.9236,0.6649,
2.569100,0.0285,-0.5068,-0.1779,-0.3637,4.4245,-4.4928,-2.6845,-0.5162,0.5910,
2.574248,0.1845,-0.6872,-0.4719,-0.3637,4.4245,-4.4928,-2.6845,-0.5162,0.5910,
2.577419,0.1845,-0.6872,-0.4719,1.2388,2.7911,-6.8834,-2.6845,-0.5162,0.5910,
2.580674,0.1845,-0.6872,-0.4719,1.2388,2.7911,-6.8834,-3.4652,-0.0623,0.3888,
2.586220,0.1845,-0.6872,-0.4719,1.2388,2.7911,-6.8834,-4.1628,0.4227,0.1420,
2.596260,0.4200,-1.0083,-0.6370,1.2388,2.7911,-6.8834,-4.1628,0.4227,0.1420,
2.597948,0.4200,-1.0083,-0.6370,3.5506,-0.1935,-7.6590,-4.1628,0.4227,0.1420,
2.599487,0.4200,-1.0083,-0.6370,3.5506,-0.1935,-7.6590,-4.8091,1.1631,-0.1372,
2.606112,0.4200,-1.0083,-0.6370,3.5506,-0.1935,-7.6590,-5.4854,2.2755,-0.4194,
2.613619,0.4746,-1.0378,-0.3237,3.5506,-0.1935,-7.6590,-5.4854,2.2755,-0.4194,
2.615595,0.4746,-1.0378,-0.3237,3.9814,-0.3928,-3.5165,-5.4854,2.2755,-0.4194,
2.617180,0.4746,-1.0378,-0.3237,3.9814,-0.3928,-3.5165,-6.1036,3.1649,-0.5886,
2.626333,0.4746,-1.0378,-0.3237,3.9814,-0.3928,-3.5165,-6.3956,3.4715,-0.6974,
2.633849,0.2125,-0.8135,0.7560,3.9814,-0.3928,-3.5165,-6.3956,3.4715,-0.6974,
2.635600,0.2125,-0.8135,0.7560,1.2005,1.7643,8.1718,-6.3956,3.4715,-0.6974,
2.637077,0.2125,-0.8135,0.7560,1.2005,1.7643,8.1718,-6.1665,3.4434,-0.7719,
2.646556,0.2125,-0.8135,0.7560,1.2005,1.7643,8.1718,-5.3235,3.0983,-0.7762,
2.653830,-0.0220,-0.4239,1.2748,1.2005,1.7643,8.1718,-5.3235,3.0983,-0.7762,
2.655684,-0.0220,-0.4239,1.2748,-1.3741,5.4590,14.0483,-5.3235,3.0983,-0.7762,
2.657454,-0.0220,-0.4239,1.2748,-1.3741,5.4590,14.0483,-4.0688,2.8313,-0.6259,
2.666606,-0.0220,-0.4239,1.2748,-1.3741,5.4590,14.0483,-2.9845,2.6963,-0.2233,
2.674147,-0.2090,-0.4153,0.4305,-1.3741,5.4590,14.0483,-2.9845,2.6963,-0.2233,
2.676400,-0.2090,-0.4153,0.4305,-3.3843,5.4638,6.0864,-2.9845,2.6963,-0.2233,
2.678649,-0.2090,-0.4153,0.4305,-3.3843,5.4638,6.0864,-2.5043,2.3060,0.2788,
2.686462,-0.2090,-0.4153,0.4305,-3.3843,5.4638,6.0864,-2.0712,-0.5144,1.0283,
2.694079,-0.5609,-1.0265,1.2554,-3.3843,5.4638,6.0864,-2.0712,-0.5144,1.0283,
2.696426,-0.5609,-1.0265,1.2554,-6.6635,-0.5162,14.2365,-2.0712,-0.5144,1.0283,
2.698147,-0.5609,-1.0265,1.2554,-6.6635,-0.5162,14.2365,0.7516,-1.2144,1.2036,
2.706668,-0.5609,-1.0265,1.2554,-6.6635,-0.5162,14.2365,1.9257,-0.9689,1.4236,
2.713740,-0.3880,-1.4481,0.1468,-6.6635,-0.5162,14.2365,1.9257,-0.9689,1.4236,
2.715756,-0.3880,-1.4481,0.1468,-4.5772,-4.5238,2.8887,1.9257,-0.9689,1.4236,
2.717972,-0.3880,-1.4481,0.1468,-4.5772,-4.5238,2.8887,2.5805,-0.9878,1.6594,
2.726602,-0.3880,-1.4481,0.1468,-4.5772,-4.5238,2.8887,2.7967,-1.5223,1.7259,
2.733975,0.1191,-2.0097,-0.6088,-4.5772,-4.5238,2.8887,2.7967,-1.5223,1.7259,
2.736281,0.1191,-2.0097,-0.6088,0.7980,-9.9313,-5.1241,2.7967,-1.5223,1.7259,
2.738046,0.1191,-2.0097,-0.6088,0.7980,-9.9313,-5.1241,2.5848,-2.3641,1.4883,
2.746670,0.1191,-2.0097,-0.6088,0.7980,-9.9313,-5.1241,2.2238,-3.4209,0.9721,
2.753843,0.2886,-1.8068,-0.0084,0.7980,-9.9313,-5.1241,2.2238,-3.4209,0.9721,
2.755488,0.2886,-1.8068,-0.0084,2.7358,-7.9059,0.2557,2.2238,-3.4209,0.9721,
2.757130,0.2886,-1.8068,-0.0084,2.7358,-7.9059,0.2557,2.1724,-4.5907,0.3381,
2.766634,0.2886,-1.8068,-0.0084,2.7358,-7.9059,0.2557,2.5390,-5.5112,-0.0731,
2.774302,-0.3742,-1.7718,0.4154,2.7358,-7.9059,0.2557,2.5390,-5.5112,-0.0731,
2.776138,-0.3742,-1.7718,0.4154,-3.7227,-7.5582,3.9535,2.5390,-5.5112,-0.0731,
2.778486,-0.3742,-1.7718,0.4154,-3.7227,-7.5582,3.9535,3.1407,-6.0238,-0.2221,
2.787355,-0.3742,-1.7718,0.4154,-3.7227,-7.5582,3.9535,3.7851,-6.3359,-0.1958,
2.799884,-1.0640,-1.1956,1.9262,-3.7227,-7.5582,3.9535,3.7851,-6.3359,-0.1958,
2.806317,-1.0640,-1.1956,1.9262,-10.5780,-1.9431,18.0938,3.7851,-6.3359,-0.1958,
2.808625,-1.0640,-1.1956,1.9262,-10.5780,-1.9431,18.0938,4.6550,-6.2791,-0.0749,
2.810949,-1.0640,-1.1956,1.9262,-10.5780,-1.9431,18.0938,5.8749,-5.4746,0.2336,
2.827518,-1.7933,-0.9298,0.0810,-10.5780,-1.9431,18.0938,5.8749,-5.4746,0.2336,
2.830077,-1.7933,-0.9298,0.0810,-17.8559,0.5272,-0.9869,5.8749,-5.4746,0.2336,
2.832302,-1.7933,-0.9298,0.0810,-17.8559,0.5272,-0.9869,6.6818,-5.1594,0.6722,
2.834488,-1.7933,-0.9298,0.0810,-17.8559,0.5272,-0.9869,6.6006,-6.2559,1.2189,
2.836553,-1.5970,-1.2372,-1.0885,-17.8559,0.5272,-0.9869,6.6006,-6.2559,1.2189,
2.838431,-1.5970,-1.2372,-1.0885,-16.0302,-2.7966,-13.6710,6.6006,-6.2559,1.2189,
2.840328,-1.5970,-1.2372,-1.0885,-16.0302,-2.7966,-13.6710,6.0991,-6.6316,1.8695,
2.854896,-1.5970,-1.2372,-1.0885,-16.0302,-2.7966,-13.6710,5.2017,-5.2785,2.6074,
2.857734,-0.1539,-1.5253,-2.5965,-16.0302,-2.7966,-13.6710,5.2017,-5.2785,2.6074,
2.860463,-0.1539,-1.5253,-2.5965,-1.8950,-5.9982,-29.4354,5.2017,-5.2785,2.6074,
2.863164,-0.1539,-1.5253,-2.5965,-1.8950,-5.9982,-29.4354,3.5493,-3.3781,3.1065,
2.876680,-0.1539,-1.5253,-2.5965,-1.8950,-5.9982,-29.4354,1.3111,-1.9743,3.1016,
2.878857,0.8725,-1.3720,-1.1321,-1.8950,-5.9982,-29.4354,1.3111,-1.9743,3.1016,
2.880657,0.8725,-1.3720,-1.1321,8.4867,-4.6849,-15.5007,1.3111,-1.9743,3.1016,
2.882109,0.8725,-1.3720,-1.1321,8.4867,-4.6849,-15.5007,-2.6839,-2.2553,3.7320,
2.885877,0.8725,-1.3720,-1.1321,8.4867,-4.6849,-15.5007,-2.9484,-3.6231,3.8737,
2.893566,0.5419,-0.9979,1.2168,8.4867,-4.6849,-15.5007,-2.9484,-3.6231,3.8737,
2.895097,0.5419,-0.9979,1.2168,5.6898,-0.7071,8.2196,-2.9484,-3.6231,3.8737,
2.896450,0.5419,-0.9979,1.2168,5.6898,-0.7071,8.2196,-2.5294,-3.9468,3.4590,
2.906237,0.5419,-0.9979,1.2168,5.6898,-0.7071,8.2196,-2.0560,-2.8980,2.8884,
2.913318,0.4763,-1.0305,0.3961,5.6898,-0.7071,8.2196,-2.0560,-2.8980,2.8884,
2.914986,0.4763,-1.0305,0.3961,5.3347,-0.8448,0.7056,-2.0560,-2.8980,2.8884,
2.916095,0.4763,-1.0305,0.3961,5.3347,-0.8448,0.7056,-1.8800,-1.7104,2.4498,
2.925875,0.4763,-1.0305,0.3961,5.3347,-0.8448,0.7056,-1.9081,-0.7886,1.7528,
2.933464,3.8814,-0.9802,2.4007,5.3347,-0.8448,0.7056,-1.9081,-0.7886,1.7528,
2.934578,3.8814,-0.9802,2.4007,39.0195,-0.2720,20.6821,-1.9081,-0.7886,1.7528,
2.935893,3.8814,-0.9802,2.4007,39.0195,-0.2720,20.6821,-1.3962,-0.2187,0.3906,
2.946009,3.8814,-0.9802,2.4007,39.0195,-0.2720,20.6821,0.1822,0.2779,-1.5764,
2.953880,1.3933,-1.2086,1.9835,39.0195,-0.2720,20.6821,0.1822,0.2779,-1.5764,
2.956453,1.3933,-1.2086,1.9835,14.5260,-2.4658,16.7078,0.1822,0.2779,-1.5764,
2.958468,1.3933,-1.2086,1.9835,14.5260,-2.4658,16.7078,2.1358,1.4459,-2.8837,
2.966519,1.3933,-1.2086,1.9835,14.5260,-2.4658,16.7078,3.4608,1.5198,-3.2337,
2.973914,-0.0718,-0.7159,0.2862,14.5260,-2.4658,16.7078,3.4608,1.5198,-3.2337,
2.976194,-0.0718,-0.7159,0.2862,-0.3149,2.2339,-0.4287,3.4608,1.5198,-3.2337,
2.978839,-0.0718,-0.7159,0.2862,-0.3149,2.2339,-0.4287,3.9116,0.4728,-3.3723,
2.986711,-0.0718,-0.7159,0.2862,-0.3149,2.2339,-0.4287,3.8487,0.4288,-3.3589,
2.994117,-0.3097,-0.7398,0.1901,-0.3149,2.2339,-0.4287,3.8487,0.4288,-3.3589,
2.996393,-0.3097,-0.7398,0.1901,-3.3893,1.6994,-2.1322,3.8487,0.4288,-3.3589,
2.998818,-0.3097,-0.7398,0.1901,-3.3893,1.6994,-2.1322,3.6636,1.7128,-3.3119,
3.006566,-0.3097,-0.7398,0.1901,-3.3893,1.6994,-2.1322,3.3881,2.7947,-3.1384,
3.014098,-0.1445,-0.8650,0.2648,-3.3893,1.6994,-2.1322,3.3881,2.7947,-3.1384,
3.017587,-0.1445,-0.8650,0.2648,-2.2338,0.1213,-2.0498,3.3881,2.7947,-3.1384,
3.019582,-0.1445,-0.8650,0.2648,-2.2338,0.1213,-2.0498,3.0753,3.3903,-2.7273,
3.026436,-0.1445,-0.8650,0.2648,-2.2338,0.1213,-2.0498,2.6569,3.1893,-2.1922,
3.034177,-0.0343,-1.0763,-0.6033,-2.2338,0.1213,-2.0498,2.6569,3.1893,-2.1922,
3.036344,-0.0343,-1.0763,-0.6033,-1.3048,-2.2122,-10.9871,2.6569,3.1893,-2.1922,
3.038480,-0.0343,-1.0763,-0.6033,-1.3048,-2.2122,-10.9871,1.7619,1.4031,-1.5281,
3.060173,-0.0343,-1.0763,-0.6033,-1.3048,-2.2122,-10.9871,0.5262,0.1521,-1.0095,
3.062669,0.8877,-1.3009,-1.3186,-1.3048,-2.2122,-10.9871,0.5262,0.1521,-1.0095,
3.065308,0.8877,-1.3009,-1.3186,7.4830,-4.4252,-17.9629,0.5262,0.1521,-1.0095,
3.067541,0.8877,-1.3009,-1.3186,7.4830,-4.4252,-17.9629,-2.4103,-0.0208,-1.2099,
3.069299,0.8877,-1.3009,-1.3186,7.4830,-4.4252,-17.9629,-3.8959,0.9713,-1.5923,
3.073898,0.4085,-1.3787,-1.5397,7.4830,-4.4252,-17.9629,-3.8959,0.9713,-1.5923,
3.075978,0.4085,-1.3787,-1.5397,2.4975,-4.7842,-19.3008,-3.8959,0.9713,-1.5923,
3.078417,0.4085,-1.3787,-1.5397,2.4975,-4.7842,-19.3008,-5.1744,2.7990,-1.8696,
3.086665,0.4085,-1.3787,-1.5397,2.4975,-4.7842,-19.3008,-6.0492,5.0274,-1.9124,
3.093817,-0.3092,-1.1415,-0.1995,2.4975,-4.7842,-19.3008,-6.0492,5.0274,-1.9124,
3.096224,-0.3092,-1.1415,-0.1995,-4.6035,-2.0061,-5.0218,-6.0492,5.0274,-1.9124,
3.097751,-0.3092,-1.1415,-0.1995,-4.6035,-2.0061,-5.0218,-6.5147,7.2027,-1.5660,
3.111536,-0.3092,-1.1415,-0.1995,-4.6035,-2.0061,-5.0218,-6.8128,9.2247,-0.9252,
3.116671,0.5053,-1.7104,0.6105,-4.6035,-2.0061,-5.0218,-6.8128,9.2247,-0.9252,
3.117911,0.5053,-1.7104,0.6105,3.5294,-7.2543,4.0459,-6.8128,9.2247,-0.9252,
3.119542,0.5053,-1.7104,0.6105,3.5294,-7.2543,4.0459,-6.7712,10.8092,-0.4219,
3.126053,0.5053,-1.7104,0.6105,3.5294,-7.2543,4.0459,-6.1292,11.2069,-0.3425,
3.138723,1.3367,-1.6237,0.2172,3.5294,-7.2543,4.0459,-6.1292,11.2069,-0.3425,
3.140447,1.3367,-1.6237,0.2172,11.9213,-6.2260,1.1459,-6.1292,11.2069,-0.3425,
3.142152,1.3367,-1.6237,0.2172,11.9213,-6.2260,1.1459,-5.0083,10.6932,-0.8055,
3.146994,1.3367,-1.6237,0.2172,11.9213,-6.2260,1.1459,-3.7206,10.4714,-1.7169,
3.153464,0.1860,-0.8300,-0.6293,11.9213,-6.2260,1.1459,-3.7206,10.4714,-1.7169,
3.154900,0.1860,-0.8300,-0.6293,0.4479,1.5705,-6.4768,-3.7206,10.4714,-1.7169,
3.156256,0.1860,-0.8300,-0.6293,0.4479,1.5705,-6.4768,-2.2857,10.6187,-2.6778,
3.166064,0.1860,-0.8300,-0.6293,0.4479,1.5705,-6.4768,-0.9839,10.2100,-3.1604,
3.173461,-0.9021,-0.4537,-1.1288,0.4479,1.5705,-6.4768,-0.9839,10.2100,-3.1604,
3.174749,-0.9021,-0.4537,-1.1288,-10.6866,5.1842,-11.2119,-0.9839,10.2100,-3.1604,
3.176198,-0.9021,-0.4537,-1.1288,-10.6866,5.1842,-11.2119,-0.3517,9.8312,-3.0639,
3.186173,-0.9021,-0.4537,-1.1288,-10.6866,5.1842,-11.2119,-0.0108,8.6541,-2.6253,
3.193712,-1.5676,-0.3583,-1.1300,-10.6866,5.1842,-11.2119,-0.0108,8.6541,-2.6253,
3.195398,-1.5676,-0.3583,-1.1300,-17.4893,6.0592,-11.3094,-0.0108,8.6541,-2.6253,
3.196777,-1.5676,-0.3583,-1.1300,-17.4893,6.0592,-11.3094,0.1511,6.7103,-2.1176,
3.205892,-1.5676,-0.3583,-1.1300,-17.4893,6.0592,-11.3094,0.0729,4.5100,-1.5526,
3.213516,-2.6281,-1.0363,0.3094,-17.4893,6.0592,-11.3094,0.0729,4.5100,-1.5526,
3.215673,-2.6281,-1.0363,0.3094,-27.8106,-0.5745,2.6608,0.0729,4.5100,-1.5526,
3.217622,-2.6281,-1.0363,0.3094,-27.8106,-0.5745,2.6608,0.1945,2.6206,-0.7499,
3.226700,-2.6281,-1.0363,0.3094,-27.8106,-0.5745,2.6608,0.8010,1.7025,0.4285,
3.251349,-2.0486,-1.6036,0.8262,-27.8106,-0.5745,2.6608,0.8010,1.7025,0.4285,
3.253980,-2.0486,-1.6036,0.8262,-22.1432,-6.1453,7.5403,0.8010,1.7025,0.4285,
3.256853,-2.0486,-1.6036,0.8262,-22.1432,-6.1453,7.5403,2.0087,1.0073,1.7247,
3.258977,-2.0486,-1.6036,0.8262,-22.1432,-6.1453,7.5403,4.1895,-1.6744,2.7901,
3.261432,-0.2954,-1.3075,0.5475,-22.1432,-6.1453,7.5403,4.1895,-1.6744,2.7901,
3.263792,-0.2954,-1.3075,0.5475,-4.5377,-3.2134,4.2239,4.1895,-1.6744,2.7901,
3.265897,-0.2954,-1.3075,0.5475,-4.5377,-3.2134,4.2239,4.7515,-2.9963,2.6636,
3.267549,-0.2954,-1.3075,0.5475,-4.5377,-3.2134,4.2239,5.2182,-3.8888,2.6031,
3.279042,0.1575,-1.4689,0.5320,-4.5377,-3.2134,4.2239,5.2182,-3.8888,2.6031,
3.280309,0.1575,-1.4689,0.5320,0.4612,-4.8548,3.2181,5.2182,-3.8888,2.6031,
3.281678,0.1575,-1.4689,0.5320,0.4612,-4.8548,3.2181,5.7423,-4.2272,2.5176,
3.286012,0.1575,-1.4689,0.5320,0.4612,-4.8548,3.2181,6.4448,-4.1490,2.5579,
3.293627,-1.2309,-1.6237,0.5255,0.4612,-4.8548,3.2181,6.4448,-4.1490,2.5579,
3.295405,-1.2309,-1.6237,0.5255,-12.8771,-6.6319,2.0856,6.4448,-4.1490,2.5579,
3.296868,-1.2309,-1.6237,0.5255,-12.8771,-6.6319,2.0856,7.2335,-3.9499,2.7271,
3.306816,-1.2309,-1.6237,0.5255,-12.8771,-6.6319,2.0856,7.7441,-3.4648,2.9458,
3.313281,-2.1376,-1.1249,-0.2503,-12.8771,-6.6319,2.0856,7.7441,-3.4648,2.9458,
3.314866,-2.1376,-1.1249,-0.2503,-21.5229,-2.2611,-6.8175,7.7441,-3.4648,2.9458,
3.316481,-2.1376,-1.1249,-0.2503,-21.5229,-2.2611,-6.8175,7.6763,-2.9010,2.9397,
3.325890,-2.1376,-1.1249,-0.2503,-21.5229,-2.2611,-6.8175,6.9848,-2.3500,2.5604,
3.333327,-0.9072,-0.7253,-0.8133,-21.5229,-2.2611,-6.8175,6.9848,-2.3500,2.5604,
3.334709,-0.9072,-0.7253,-0.8133,-9.2624,0.9505,-13.5459,6.9848,-2.3500,2.5604,
3.335975,-0.9072,-0.7253,-0.8133,-9.2624,0.9505,-13.5459,5.8566,-1.7984,2.9080,
3.354161,-0.9072,-0.7253,-0.8133,-9.2624,0.9505,-13.5459,4.1987,-0.5755,4.1364,
3.355745,0.7253,-0.9308,0.2271,-9.2624,0.9505,-13.5459,4.1987,-0.5755,4.1364,
3.357078,0.7253,-0.9308,0.2271,7.3525,-1.4935,-3.9324,4.1987,-0.5755,4.1364,
3.358145,0.7253,-0.9308,0.2271,7.3525,-1.4935,-3.9324,2.4644,0.9670,4.9434,
3.369607,0.7253,-0.9308,0.2271,7.3525,-1.4935,-3.9324,1.0992,1.6145,4.8499,
3.373292,1.3428,-1.2769,0.8218,7.3525,-1.4935,-3.9324,1.0992,1.6145,4.8499,
3.374372,1.3428,-1.2769,0.8218,14.2849,-5.0409,1.8036,1.0992,1.6145,4.8499,
3.375826,1.3428,-1.2769,0.8218,14.2849,-5.0409,1.8036,0.1175,1.4380,4.0509,
3.385849,1.3428,-1.2769,0.8218,14.2849,-5.0409,1.8036,-0.4237,0.9774,2.7705,
3.393788,0.4743,-0.9232,0.2546,14.2849,-5.0409,1.8036,-0.4237,0.9774,2.7705,
3.395099,0.4743,-0.9232,0.2546,6.3387,-1.5210,-3.5601,-0.4237,0.9774,2.7705,
3.396278,0.4743,-0.9232,0.2546,6.3387,-1.5210,-3.5601,-0.7481,0.4380,1.2892,
3.406633,0.4743,-0.9232,0.2546,6.3387,-1.5210,-3.5601,-0.9442,0.4875,0.0564,
3.415920,-0.7145,-0.6194,0.5669,6.3387,-1.5210,-3.5601,-0.9442,0.4875,0.0564,
3.419400,-0.7145,-0.6194,0.5669,-5.1699,1.6156,-0.2527,-0.9442,0.4875,0.0564,
3.421769,-0.7145,-0.6194,0.5669,-5.1699,1.6156,-0.2527,-1.0609,1.0617,-0.4909,
3.426759,-0.7145,-0.6194,0.5669,-5.1699,1.6156,-0.2527,-1.9252,1.7837,0.1621,
3.433892,-0.4283,-0.2314,0.1886,-5.1699,1.6156,-0.2527,-1.9252,1.7837,0.1621,
3.436580,-0.4283,-0.2314,0.1886,-2.2014,5.6443,-3.5917,-1.9252,1.7837,0.1621,
3.438346,-0.4283,-0.2314,0.1886,-2.2014,5.6443,-3.5917,-2.9277,0.5174,0.6612,
3.447305,-0.4283,-0.2314,0.1886,-2.2014,5.6443,-3.5917,-4.0242,-1.7361,0.8103,
3.453818,0.4769,-0.3832,0.1224,-2.2014,5.6443,-3.5917,-4.0242,-1.7361,0.8103,
3.455624,0.4769,-0.3832,0.1224,6.6637,4.5338,-3.6482,-4.0242,-1.7361,0.8103,
3.457382,0.4769,-0.3832,0.1224,6.6637,4.5338,-3.6482,-4.5599,-3.6854,0.5598,
3.466617,0.4769,-0.3832,0.1224,6.6637,4.5338,-3.6482,-4.3455,-4.7428,0.1304,
3.474163,-0.5339,-0.9828,-0.8225,6.6637,4.5338,-3.6482,-4.3455,-4.7428,0.1304,
3.476591,-0.5339,-0.9828,-0.8225,-3.5364,-0.8705,-12.1261,-4.3455,-4.7428,0.1304,
3.482054,-0.5339,-0.9828,-0.8225,-3.5364,-0.8705,-12.1261,-3.7957,-5.0934,-0.1781,
3.498821,-0.5339,-0.9828,-0.8225,-3.5364,-0.8705,-12.1261,-3.6858,-4.7373,0.0528,
3.500913,-0.5135,-0.7409,-0.8925,-3.5364,-0.8705,-12.1261,-3.6858,-4.7373,0.0528,
3.502918,-0.5135,-0.7409,-0.8925,-3.6326,1.8709,-12.0367,-3.6858,-4.7373,0.0528,
3.504651,-0.5135,-0.7409,-0.8925,-3.6326,1.8709,-12.0367,-4.1445,-3.7544,0.8652,
3.506591,-0.5135,-0.7409,-0.8925,-3.6326,1.8709,-12.0367,-4.7120,-2.4997,1.6117,
3.513722,-0.1599,-1.1485,0.6788,-3.6326,1.8709,-12.0367,-4.7120,-2.4997,1.6117,
3.516199,-0.1599,-1.1485,0.6788,-0.0749,-1.8777,4.2011,-4.7120,-2.4997,1.6117,
3.517877,-0.1599,-1.1485,0.6788,-0.0749,-1.8777,4.2011,-4.9148,-0.9719,1.9178,
3.526205,-0.1599,-1.1485,0.6788,-0.0749,-1.8777,4.2011,-4.3412,0.8448,2.0308,
3.539959,-0.0412,-2.1335,1.6755,-0.0749,-1.8777,4.2011,-4.3412,0.8448,2.0308,
3.541788,-0.0412,-2.1335,1.6755,1.4371,-11.4186,14.7694,-4.3412,0.8448,2.0308,
3.544491,-0.0412,-2.1335,1.6755,1.4371,-11.4186,14.7694,-3.0034,2.2626,2.0802,
3.546932,-0.0412,-2.1335,1.6755,1.4371,-11.4186,14.7694,-1.2893,2.5497,1.8909,
3.561958,0.1025,-2.3138,2.2121,1.4371,-11.4186,14.7694,-1.2893,2.5497,1.8909,
3.563795,0.1025,-2.3138,2.2121,3.2862,-13.2068,20.5347,-1.2893,2.5497,1.8909,
3.565230,0.1025,-2.3138,2.2121,3.2862,-13.2068,20.5347,0.6398,1.6444,1.4767,
3.566472,0.1025,-2.3138,2.2121,3.2862,-13.2068,20.5347,2.5121,-0.5070,1.0344,
3.573376,-0.1371,-1.4081,0.9182,3.2862,-13.2068,20.5347,2.5121,-0.5070,1.0344,
3.574911,-0.1371,-1.4081,0.9182,1.1878,-4.4306,7.5849,2.5121,-0.5070,1.0344,
3.576648,-0.1371,-1.4081,0.9182,1.1878,-4.4306,7.5849,3.6746,-3.3848,0.8127,
3.586915,-0.1371,-1.4081,0.9182,1.1878,-4.4306,7.5849,3.8175,-6.1728,0.6044,
3.593338,-0.8006,-0.6082,0.3326,1.1878,-4.4306,7.5849,3.8175,-6.1728,0.6044,
3.594690,-0.8006,-0.6082,0.3326,-5.3697,3.2292,0.8952,3.8175,-6.1728,0.6044,
3.596179,-0.8006,-0.6082,0.3326,-5.3697,3.2292,0.8952,3.2506,-8.1031,0.4761,
3.605897,-0.8006,-0.6082,0.3326,-5.3697,3.2292,0.8952,2.8725,-8.5039,0.5861,
3.613477,-1.6483,-0.4664,0.4648,-5.3697,3.2292,0.8952,2.8725,-8.5039,0.5861,
3.615008,-1.6483,-0.4664,0.4648,-13.9483,4.3721,1.1880,2.8725,-8.5039,0.5861,
3.616847,-1.6483,-0.4664,0.4648,-13.9483,4.3721,1.1880,3.1297,-6.2486,1.9208,
3.626580,-1.6483,-0.4664,0.4648,-13.9483,4.3721,1.1880,2.6642,-5.6023,2.8133,
3.645366,-0.7020,-0.3831,-0.5922,-13.9483,4.3721,1.1880,2.6642,-5.6023,2.8133,
3.647992,-0.7020,-0.3831,-0.5922,-4.5469,4.8448,-9.9007,2.6642,-5.6023,2.8133,
3.649962,-0.7020,-0.3831,-0.5922,-4.5469,4.8448,-9.9007,1.7613,-4.9291,3.1737,
3.651748,-0.7020,-0.3831,-0.5922,-4.5469,4.8448,-9.9007,0.5249,-4.2364,3.0191,
3.666849,0.8928,-0.8112,-0.0581,-4.5469,4.8448,-9.9007,0.5249,-4.2364,3.0191,
3.668470,0.8928,-0.8112,-0.0581,11.2218,0.4416,-5.0017,0.5249,-4.2364,3.0191,
3.670021,0.8928,-0.8112,-0.0581,11.2218,0.4416,-5.0017,0.3533,-3.8876,2.3337,
3.671609,0.8928,-0.8112,-0.0581,11.2218,0.4416,-5.0017,0.7962,-3.8216,1.3765,
3.673625,1.5487,-1.1287,0.7406,11.2218,0.4416,-5.0017,0.7962,-3.8216,1.3765,
3.675237,1.5487,-1.1287,0.7406,17.4210,-2.7478,2.5652,0.7962,-3.8216,1.3765,
3.676719,1.5487,-1.1287,0.7406,17.4210,-2.7478,2.5652,1.2409,-3.9810,0.4731,
3.686194,1.5487,-1.1287,0.7406,17.4210,-2.7478,2.5652,1.4363,-3.5412,-0.1525,
3.693586,0.9915,-0.7876,0.7903,17.4210,-2.7478,2.5652,1.4363,-3.5412,-0.1525,
3.695485,0.9915,-0.7876,0.7903,11.3880,0.5042,2.6700,1.4363,-3.5412,-0.1525,
3.697167,0.9915,-0.7876,0.7903,11.3880,0.5042,2.6700,1.3808,-2.3354,-0.4408,
3.706397,0.9915,-0.7876,0.7903,11.3880,0.5042,2.6700,1.0729,-0.8662,-0.4494,
3.714257,0.9610,0.1046,0.6692,11.3880,0.5042,2.6700,1.0729,-0.8662,-0.4494,
3.716797,0.9610,0.1046,0.6692,10.5566,9.1407,1.1721,1.0729,-0.8662,-0.4494,
3.718836,0.9610,0.1046,0.6692,10.5566,9.1407,1.1721,0.5579,0.6029,-0.3162,
3.726505,0.9610,0.1046,0.6692,10.5566,9.1407,1.1721,-0.1177,1.6389,-0.1396,
3.734087,1.6747,0.7057,-0.6175,10.5566,9.1407,1.1721,-0.1177,1.6389,-0.1396,
3.736731,1.6747,0.7057,-0.6175,17.1519,15.0412,-11.4918,-0.1177,1.6389,-0.1396,
3.739236,1.6747,0.7057,-0.6175,17.1519,15.0412,-11.4918,-1.2362,2.7990,-0.2936,
3.760027,1.6747,0.7057,-0.6175,17.1519,15.0412,-11.4918,-2.7010,5.1966,-0.9442,
3.764274,1.2483,-0.6816,0.8740,17.1519,15.0412,-11.4918,-2.7010,5.1966,-0.9442,
3.766448,1.2483,-0.6816,0.8740,12.8551,1.6627,3.4480,-2.7010,5.1966,-0.9442,
3.768068,1.2483,-0.6816,0.8740,12.8551,1.6627,3.4480,-3.9234,8.3053,-1.7939,
3.769722,1.2483,-0.6816,0.8740,12.8551,1.6627,3.4480,-4.1103,10.1636,-2.3925,
3.786121,1.2496,-1.9481,2.6237,12.8551,1.6627,3.4480,-4.1103,10.1636,-2.3925,
3.788285,1.2496,-1.9481,2.6237,13.3751,-10.3337,21.4464,-4.1103,10.1636,-2.3925,
3.791034,1.2496,-1.9481,2.6237,13.3751,-10.3337,21.4464,-2.7670,10.0078,-2.6375,
3.793404,1.2496,-1.9481,2.6237,13.3751,-10.3337,21.4464,-1.0242,8.5185,-2.7945,
3.795817,0.7274,-2.1788,-1.1134,13.3751,-10.3337,21.4464,-1.0242,8.5185,-2.7945,
3.798973,0.7274,-2.1788,-1.1134,8.5069,-12.3735,-14.6055,-1.0242,8.5185,-2.7945,
3.801125,0.7274,-2.1788,-1.1134,8.5069,-12.3735,-14.6055,-0.6357,6.0201,-3.1799,
3.816025,0.7274,-2.1788,-1.1134,8.5069,-12.3735,-14.6055,-0.5331,5.3701,-3.0187,
3.818513,-0.8459,-2.2535,-0.1616,8.5069,-12.3735,-14.6055,-0.5331,5.3701,-3.0187,
3.821386,-0.8459,-2.2535,-0.1616,-7.0662,-12.9823,-5.0232,-0.5331,5.3701,-3.0187,
3.823593,-0.8459,-2.2535,-0.1616,-7.0662,-12.9823,-5.0232,0.3197,5.8179,-2.5691,
3.825897,-0.8459,-2.2535,-0.1616,-7.0662,-12.9823,-5.0232,1.7711,5.8704,-2.5446,
3.836508,-0.7012,-1.7485,1.0751,-7.0662,-12.9823,-5.0232,1.7711,5.8704,-2.5446,
3.838080,-0.7012,-1.7485,1.0751,-5.7123,-8.0445,7.0450,1.7711,5.8704,-2.5446,
3.839430,-0.7012,-1.7485,1.0751,-5.7123,-8.0445,7.0450,2.5322,4.1869,-3.0455,
3.853805,-0.7012,-1.7485,1.0751,-5.7123,-8.0445,7.0450,2.2085,1.6786,-3.3589,
3.855115,-0.6323,-0.8238,-0.2072,-5.7123,-8.0445,7.0450,2.2085,1.6786,-3.3589,
3.856612,-0.6323,-0.8238,-0.2072,-5.4159,0.9375,-5.8207,2.2085,1.6786,-3.3589,
3.857821,-0.6323,-0.8238,-0.2072,-5.4159,0.9375,-5.8207,1.5176,-0.3910,-3.1891,
3.865900,-0.6323,-0.8238,-0.2072,-5.4159,0.9375,-5.8207,0.9849,-1.0745,-2.7041,
3.873690,-0.1842,-0.5277,0.1954,-5.4159,0.9375,-5.8207,0.9849,-1.0745,-2.7041,
3.874602,-0.1842,-0.5277,0.1954,-1.5862,3.8001,-2.0386,0.9849,-1.0745,-2.7041,
3.875793,-0.1842,-0.5277,0.1954,-1.5862,3.8001,-2.0386,0.7210,-0.3281,-2.1317,
3.885730,-0.1842,-0.5277,0.1954,-1.5862,3.8001,-2.0386,0.4803,1.0934,-1.7523,
3.893276,0.2758,-0.8834,-0.0288,-1.5862,3.8001,-2.0386,0.4803,1.0934,-1.7523,
3.894137,0.2758,-0.8834,-0.0288,2.6080,0.3082,-4.2548,0.4803,1.0934,-1.7523,
3.896563,0.2758,-0.8834,-0.0288,2.6080,0.3082,-4.2548,0.0741,2.3194,-1.6552,
3.905790,0.2758,-0.8834,-0.0288,2.6080,0.3082,-4.2548,-0.5196,3.0109,-1.6412,
3.913282,0.2982,-1.1650,-0.1051,2.6080,0.3082,-4.2548,-0.5196,3.0109,-1.6412,
3.914701,0.2982,-1.1650,-0.1051,2.7190,-2.3900,-4.8567,-0.5196,3.0109,-1.6412,
3.915793,0.2982,-1.1650,-0.1051,2.7190,-2.3900,-4.8567,-1.1207,3.1123,-1.6057,
3.925738,0.2982,-1.1650,-0.1051,2.7190,-2.3900,-4.8567,-1.6119,2.7861,-1.5831,
3.933231,0.3426,-1.0831,-0.6210,2.7190,-2.3900,-4.8567,-1.6119,2.7861,-1.5831,
3.934379,0.3426,-1.0831,-0.6210,3.0382,-1.4319,-9.5131,-1.6119,2.7861,-1.5831,
3.935704,0.3426,-1.0831,-0.6210,3.0382,-1.4319,-9.5131,-2.0535,2.6438,-1.7285,
3.946415,0.3426,-1.0831,-0.6210,3.0382,-1.4319,-9.5131,-2.4677,2.8741,-2.0981,
3.953319,0.2689,-1.0105,-1.0058,3.0382,-1.4319,-9.5131,-2.4677,2.8741,-2.0981,
3.954225,0.2689,-1.0105,-1.0058,2.0888,-0.5207,-12.6598,-2.4677,2.8741,-2.0981,
3.955800,0.2689,-1.0105,-1.0058,2.0888,-0.5207,-12.6598,-2.9038,3.4239,-2.6075,
3.968575,0.2689,-1.0105,-1.0058,2.0888,-0.5207,-12.6598,-3.3333,4.5021,-3.1952,
3.973181,-0.3743,-1.1465,-0.6964,2.0888,-0.5207,-12.6598,-3.3333,4.5021,-3.1952,
3.974294,-0.3743,-1.1465,-0.6964,-4.5424,-1.6836,-8.8636,-3.3333,4.5021,-3.1952,
3.975835,-0.3743,-1.1465,-0.6964,-4.5424,-1.6836,-8.8636,-3.5996,6.0030,-3.6894,
3.985817,-0.3743,-1.1465,-0.6964,-4.5424,-1.6836,-8.8636,-3.1390,7.9919,-3.3571,
3.993180,-1.6246,-1.2891,-0.6661,-4.5424,-1.6836,-8.8636,-3.1390,7.9919,-3.3571,
3.994142,-1.6246,-1.2891,-0.6661,-17.0487,-2.9839,-7.8677,-3.1390,7.9919,-3.3571,
4.004122,-1.6246,-1.2891,-0.6661,-17.0487,-2.9839,-7.8677,-2.6302,8.0341,-2.6454,
4.005975,-1.6246,-1.2891,-0.6661,-17.0487,-2.9839,-7.8677,-2.2124,7.9712,-2.0675,
4.013602,-1.6974,-0.6648,-0.1827,-17.0487,-2.9839,-7.8677,-2.2124,7.9712,-2.0675,
4.015402,-1.6974,-0.6648,-0.1827,-17.7359,3.1874,-2.7014,-2.2124,7.9712,-2.0675,
4.017074,-1.6974,-0.6648,-0.1827,-17.7359,3.1874,-2.7014,-1.9485,8.4941,-1.7523,
4.025817,-1.6974,-0.6648,-0.1827,-17.7359,3.1874,-2.7014,-1.6559,9.6663,-1.5233,
4.033306,-2.0048,0.0987,0.6026,-17.7359,3.1874,-2.7014,-1.6559,9.6663,-1.5233,
4.034906,-2.0048,0.0987,0.6026,-20.4977,10.7108,5.1916,-1.6559,9.6663,-1.5233,
4.036218,-2.0048,0.0987,0.6026,-20.4977,10.7108,5.1916,-0.8886,9.6107,-0.9936,
4.046925,-2.0048,0.0987,0.6026,-20.4977,10.7108,5.1916,-0.2423,7.0475,-0.0419,
4.053418,-1.7815,-0.6081,-0.1270,-20.4977,10.7108,5.1916,-0.2423,7.0475,-0.0419,
4.054734,-1.7815,-0.6081,-0.1270,-18.1432,3.7965,-1.9726,-0.2423,7.0475,-0.0419,
4.056053,-1.7815,-0.6081,-0.1270,-18.1432,3.7965,-1.9726,-0.4830,3.0659,0.9807,
4.065955,-1.7815,-0.6081,-0.1270,-18.1432,3.7965,-1.9726,-0.9876,0.3543,1.7204,
4.073853,-1.2660,-1.3710,0.4465,-18.1432,3.7965,-1.9726,-0.9876,0.3543,1.7204,
4.076199,-1.2660,-1.3710,0.4465,-12.8035,-3.6563,3.7705,-0.9876,0.3543,1.7204,
4.078891,-1.2660,-1.3710,0.4465,-12.8035,-3.6563,3.7705,-0.7371,-1.5082,2.2207,
4.086630,-1.2660,-1.3710,0.4465,-12.8035,-3.6563,3.7705,-0.1855,-3.4600,2.4895,
4.093864,-0.2227,-1.5682,-0.5722,-12.8035,-3.6563,3.7705,-0.1855,-3.4600,2.4895,
4.096856,-0.2227,-1.5682,-0.5722,-2.0276,-5.5749,-6.0921,-0.1855,-3.4600,2.4895,
4.099154,-0.2227,-1.5682,-0.5722,-2.0276,-5.5749,-6.0921,0.1517,-4.8625,2.4559,
4.116653,-0.2227,-1.5682,-0.5722,-2.0276,-5.5749,-6.0921,0.4266,-5.4337,2.2281,
4.118713,0.4467,-1.7928,-0.4807,-2.0276,-5.5749,-6.0921,0.4266,-5.4337,2.2281,
4.120623,0.4467,-1.7928,-0.4807,5.0636,-7.8002,-5.2154,0.4266,-5.4337,2.2281,
4.123000,0.4467,-1.7928,-0.4807,5.0636,-7.8002,-5.2154,0.5622,-4.9499,1.8780,
4.126202,0.4467,-1.7928,-0.4807,5.0636,-7.8002,-5.2154,0.5958,-4.0782,1.4431,
4.133831,0.4023,-1.5997,0.4582,5.0636,-7.8002,-5.2154,0.5958,-4.0782,1.4431,
4.136497,0.4023,-1.5997,0.4582,4.9514,-5.9446,3.8370,0.5958,-4.0782,1.4431,
4.138096,0.4023,-1.5997,0.4582,4.9514,-5.9446,3.8370,0.9440,-3.5870,0.9013,
4.147828,0.4023,-1.5997,0.4582,4.9514,-5.9446,3.8370,1.6923,-3.4319,0.3148,
4.153612,-0.8683,-1.1827,0.5937,4.9514,-5.9446,3.8370,1.6923,-3.4319,0.3148,
4.155030,-0.8683,-1.1827,0.5937,-7.3454,-1.9026,4.8361,1.6923,-3.4319,0.3148,
4.156492,-0.8683,-1.1827,0.5937,-7.3454,-1.9026,4.8361,2.5029,-3.6170,0.1249,
4.166532,-0.8683,-1.1827,0.5937,-7.3454,-1.9026,4.8361,3.1113,-6.3029,0.9110,
4.173837,-1.3878,-0.9023,-0.3133,-7.3454,-1.9026,4.8361,3.1113,-6.3029,0.9110,
4.176284,-1.3878,-0.9023,-0.3133,-12.3024,0.7482,-4.6502,3.1113,-6.3029,0.9110,
4.178603,-1.3878,-0.9023,-0.3133,-12.3024,0.7482,-4.6502,3.0490,-7.8918,1.5072,
4.193065,-1.3878,-0.9023,-0.3133,-12.3024,0.7482,-4.6502,2.8285,-8.9999,2.1566,
4.196455,-1.3958,-0.6803,-0.4465,-12.3024,0.7482,-4.6502,2.8285,-8.9999,2.1566,
4.198948,-1.3958,-0.6803,-0.4465,-12.1432,2.7554,-6.6194,2.8285,-8.9999,2.1566,
4.200775,-1.3958,-0.6803,-0.4465,-12.1432,2.7554,-6.6194,2.4876,-9.5124,2.9874,
4.206233,-1.3958,-0.6803,-0.4465,-12.1432,2.7554,-6.6194,2.0258,-9.6273,3.9263,
4.214375,0.0950,-0.4627,-0.8879,-12.1432,2.7554,-6.6194,2.0258,-9.6273,3.9263,
4.216999,0.0950,-0.4627,-0.8879,2.7888,4.6922,-11.4560,2.0258,-9.6273,3.9263,
4.220638,0.0950,-0.4627,-0.8879,2.7888,4.6922,-11.4560,1.3795,-9.4849,4.3753,
4.226102,0.0950,-0.4627,-0.8879,2.7888,4.6922,-11.4560,0.4657,-8.6126,3.8524,
4.239285,0.2314,-0.3992,-0.0580,2.7888,4.6922,-11.4560,0.4657,-8.6126,3.8524,
4.241169,0.2314,-0.3992,-0.0580,4.4483,5.1385,-3.6507,0.4657,-8.6126,3.8524,
4.242661,0.2314,-0.3992,-0.0580,4.4483,5.1385,-3.6507,-0.3364,-6.3365,2.7632,
4.256542,0.2314,-0.3992,-0.0580,4.4483,5.1385,-3.6507,-0.9344,-2.4966,1.9703,
4.258559,0.0730,-0.9386,-0.5033,4.4483,5.1385,-3.6507,-0.9344,-2.4966,1.9703,
4.260015,0.0730,-0.9386,-0.5033,3.0880,-0.1385,-7.8406,-0.9344,-2.4966,1.9703,
4.261377,0.0730,-0.9386,-0.5033,3.0880,-0.1385,-7.8406,-1.6668,0.3732,2.0100,
4.266156,0.0730,-0.9386,-0.5033,3.0880,-0.1385,-7.8406,-2.4738,0.0916,2.2684,
4.273595,0.1653,-1.5746,-1.2191,3.0880,-0.1385,-7.8406,-2.4738,0.0916,2.2684,
4.274800,0.1653,-1.5746,-1.2191,4.3571,-6.2842,-14.1878,-2.4738,0.0916,2.2684,
4.276540,0.1653,-1.5746,-1.2191,4.3571,-6.2842,-14.1878,-3.2545,-2.0385,2.2128,
4.288602,0.1653,-1.5746,-1.2191,4.3571,-6.2842,-14.1878,-3.9466,-4.6670,1.9611,
4.293524,0.1342,-1.2563,-0.6954,4.3571,-6.2842,-14.1878,-3.9466,-4.6670,1.9611,
4.296490,0.1342,-1.2563,-0.6954,4.2312,-3.0724,-8.3305,-3.9466,-4.6670,1.9611,
4.298227,0.1342,-1.2563,-0.6954,4.2312,-3.0724,-8.3305,-4.4988,-6.5748,1.6649,
4.309492,0.1342,-1.2563,-0.6954,4.2312,-3.0724,-8.3305,-4.8806,-7.3695,1.4785,
4.314121,-0.0511,-0.8383,0.2571,4.2312,-3.0724,-8.3305,-4.8806,-7.3695,1.4785,
4.316010,-0.0511,-0.8383,0.2571,2.4422,1.0969,1.6332,-4.8806,-7.3695,1.4785,
4.317344,-0.0511,-0.8383,0.2571,2.4422,1.0969,1.6332,-5.1476,-6.7959,1.3545,
4.325957,-0.0511,-0.8383,0.2571,2.4422,1.0969,1.6332,-5.2722,-4.0220,1.2556,
4.333365,-1.0025,-1.7130,3.8853,2.4422,1.0969,1.6332,-5.2722,-4.0220,1.2556,
4.334709,-1.0025,-1.7130,3.8853,-6.7114,-7.4919,37.7927,-5.2722,-4.0220,1.2556,
4.335851,-1.0025,-1.7130,3.8853,-6.7114,-7.4919,37.7927,-4.1396,0.6854,1.4370,
4.347147,-1.0025,-1.7130,3.8853,-6.7114,-7.4919,37.7927,0.0576,3.7055,2.2763,
4.353451,-1.2638,-3.0657,1.7943,-6.7114,-7.4919,37.7927,0.0576,3.7055,2.2763,
4.354530,-1.2638,-3.0657,1.7943,-8.9355,-20.8669,17.8247,0.0576,3.7055,2.2763,
4.355893,-1.2638,-3.0657,1.7943,-8.9355,-20.8669,17.8247,5.6244,-2.2456,4.2054,
4.371134,-1.2638,-3.0657,1.7943,-8.9355,-20.8669,17.8247,4.0319,-6.7232,4.2751,
4.373842,0.1660,-1.5400,-0.2007,-8.9355,-20.8669,17.8247,4.0319,-6.7232,4.2751,
4.376086,0.1660,-1.5400,-0.2007,5.7943,-6.2691,-2.9481,4.0319,-6.7232,4.2751,
4.377603,0.1660,-1.5400,-0.2007,5.7943,-6.2691,-2.9481,2.7424,-9.9009,4.2769,
4.392984,0.1660,-1.5400,-0.2007,5.7943,-6.2691,-2.9481,2.5664,-10.4061,4.1932,
4.395776,0.3789,-0.5648,0.3422,5.7943,-6.2691,-2.9481,2.5664,-10.4061,4.1932,
4.397620,0.3789,-0.5648,0.3422,8.2724,2.8289,1.0240,2.5664,-10.4061,4.1932,
4.399694,0.3789,-0.5648,0.3422,8.2724,2.8289,1.0240,1.9666,-8.1905,3.8719,
4.413856,0.3789,-0.5648,0.3422,8.2724,2.8289,1.0240,0.6563,-5.1637,3.6404,
4.416092,1.1028,-2.1185,-2.1007,8.2724,2.8289,1.0240,0.6563,-5.1637,3.6404,
4.417768,1.1028,-2.1185,-2.1007,15.6097,-12.8189,-23.7529,0.6563,-5.1637,3.6404,
4.419973,1.1028,-2.1185,-2.1007,15.6097,-12.8189,-23.7529,-0.7848,-3.9963,3.5769,
4.434595,1.1028,-2.1185,-2.1007,15.6097,-12.8189,-23.7529,-2.3266,-2.9908,3.2592,
4.437600,1.8449,-1.7068,-1.0439,15.6097,-12.8189,-23.7529,-2.3266,-2.9908,3.2592,
4.440181,1.8449,-1.7068,-1.0439,23.1894,-9.0222,-13.5009,-2.3266,-2.9908,3.2592,
4.441938,1.8449,-1.7068,-1.0439,23.1894,-9.0222,-13.5009,-3.5367,-0.8723,2.1908,
4.457326,1.8449,-1.7068,-1.0439,23.1894,-9.0222,-13.5009,-4.0358,2.2211,0.6520,
4.459481,1.1297,-1.0084,0.0994,23.1894,-9.0222,-13.5009,-4.0358,2.2211,0.6520,
4.461560,1.1297,-1.0084,0.0994,16.4346,-2.0995,-1.6395,-4.0358,2.2211,0.6520,
4.463221,1.1297,-1.0084,0.0994,16.4346,-2.0995,-1.6395,-4.0358,5.9950,-0.6369,
4.474893,1.1297,-1.0084,0.0994,16.4346,-2.0995,-1.6395,-3.6027,9.6345,-1.4365,
4.476740,1.6989,-1.0236,3.4749,16.4346,-2.0995,-1.6395,-3.6027,9.6345,-1.4365,
4.478574,1.6989,-1.0236,3.4749,22.1369,-1.9873,32.8946,-3.6027,9.6345,-1.4365,
4.480150,1.6989,-1.0236,3.4749,22.1369,-1.9873,32.8946,-2.4811,12.4647,-2.0859,
4.496208,1.6989,-1.0236,3.4749,22.1369,-1.9873,32.8946,0.1767,10.6889,-2.9851,
4.498294,0.2614,-1.6772,0.4076,22.1369,-1.9873,32.8946,0.1767,10.6889,-2.9851,
4.500454,0.2614,-1.6772,0.4076,7.7240,-8.1026,4.2657,0.1767,10.6889,-2.9851,
4.502204,0.2614,-1.6772,0.4076,7.7240,-8.1026,4.2657,1.1163,4.1368,-3.6625,
4.516497,0.2614,-1.6772,0.4076,7.7240,-8.1026,4.2657,0.4296,0.0641,-3.5507,
4.517813,-0.8927,-1.2742,-1.2225,7.7240,-8.1026,4.2657,0.4296,0.0641,-3.5507,
4.519114,-0.8927,-1.2742,-1.2225,-4.3780,-3.7136,-11.6680,0.4296,0.0641,-3.5507,
4.520627,-0.8927,-1.2742,-1.2225,-4.3780,-3.7136,-11.6680,0.5940,-1.7428,-2.9270,
4.525811,-0.8927,-1.2742,-1.2225,-4.3780,-3.7136,-11.6680,1.3459,-1.6866,-2.1579,
4.537846,-1.8239,-0.5016,0.9528,-4.3780,-3.7136,-11.6680,1.3459,-1.6866,-2.1579,
4.539749,-1.8239,-0.5016,0.9528,-14.0186,4.1009,9.2144,1.3459,-1.6866,-2.1579,
4.541281,-1.8239,-0.5016,0.9528,-14.0186,4.1009,9.2144,2.8187,3.4960,-1.0840,
4.555631,-1.8239,-0.5016,0.9528,-14.0186,4.1009,9.2144,4.5188,4.6590,0.2757,
4.557048,-1.9146,-0.6616,1.5053,-14.0186,4.1009,9.2144,4.5188,4.6590,0.2757,
4.558625,-1.9146,-0.6616,1.5053,-14.8985,2.5064,14.1085,4.5188,4.6590,0.2757,
4.559943,-1.9146,-0.6616,1.5053,-14.8985,2.5064,14.1085,5.7155,3.6633,1.4419,
4.566034,-1.9146,-0.6616,1.5053,-14.8985,2.5064,14.1085,5.3294,1.9028,1.6502,
4.573312,-0.3142,-0.9700,0.0579,-14.8985,2.5064,14.1085,5.3294,1.9028,1.6502,
4.574627,-0.3142,-0.9700,0.0579,1.1369,-0.7811,-0.9395,5.3294,1.9028,1.6502,
4.575916,-0.3142,-0.9700,0.0579,1.1369,-0.7811,-0.9395,4.4467,-0.7160,1.4987,
4.587877,-0.3142,-0.9700,0.0579,1.1369,-0.7811,-0.9395,3.6709,-2.8790,1.1139,
4.593343,-0.1970,-0.6298,-0.0099,1.1369,-0.7811,-0.9395,3.6709,-2.8790,1.1139,
4.594473,-0.1970,-0.6298,-0.0099,2.4371,2.2774,-2.4832,3.6709,-2.8790,1.1139,
4.597548,-0.1970,-0.6298,-0.0099,2.4371,2.2774,-2.4832,3.2030,-3.6799,0.7461,
4.605881,-0.1970,-0.6298,-0.0099,2.4371,2.2774,-2.4832,2.9702,-3.2144,0.5604,
4.614145,0.1347,-0.7004,-0.6424,2.4371,2.2774,-2.4832,2.9702,-3.2144,0.5604,
4.615798,0.1347,-0.7004,-0.6424,5.5763,1.4039,-9.4096,2.9702,-3.2144,0.5604,
4.616951,0.1347,-0.7004,-0.6424,5.5763,1.4039,-9.4096,2.6233,-2.1014,0.3472,
4.625918,0.1347,-0.7004,-0.6424,5.5763,1.4039,-9.4096,2.0857,-0.9188,-0.0010,
4.633417,0.4516,-0.3238,0.0056,5.5763,1.4039,-9.4096,2.0857,-0.9188,-0.0010,
4.634681,0.4516,-0.3238,0.0056,8.5124,5.0124,-3.4747,2.0857,-0.9188,-0.0010,
4.635837,0.4516,-0.3238,0.0056,8.5124,5.0124,-3.4747,1.5451,0.1997,-0.3730,
4.647445,0.4516,-0.3238,0.0056,8.5124,5.0124,-3.4747,1.1358,1.1612,-0.7493,
4.653337,0.3534,-0.3110,0.6557,8.5124,5.0124,-3.4747,1.1358,1.1612,-0.7493,
4.654402,0.3534,-0.3110,0.6557,7.3464,5.1614,2.7247,1.1358,1.1612,-0.7493,
4.655898,0.3534,-0.3110,0.6557,7.3464,5.1614,2.7247,0.9550,1.8057,-1.0859,
4.665939,0.3534,-0.3110,0.6557,7.3464,5.1614,2.7247,0.7803,2.0140,-1.2887,
4.674053,0.5074,-0.6506,0.0265,7.3464,5.1614,2.7247,0.7803,2.0140,-1.2887,
4.676215,0.5074,-0.6506,0.0265,8.5755,1.9691,-3.4219,0.7803,2.0140,-1.2887,
4.678512,0.5074,-0.6506,0.0265,8.5755,1.9691,-3.4219,0.3356,2.0061,-1.5214,
4.687062,0.5074,-0.6506,0.0265,8.5755,1.9691,-3.4219,-0.4763,2.4269,-1.8360,
4.693910,0.2094,-1.0731,-0.2814,8.5755,1.9691,-3.4219,-0.4763,2.4269,-1.8360,
4.696366,0.2094,-1.0731,-0.2814,5.3235,-1.9281,-6.1796,-0.4763,2.4269,-1.8360,
4.698659,0.2094,-1.0731,-0.2814,5.3235,-1.9281,-6.1796,-1.4494,3.5222,-1.9912,
4.706711,0.2094,-1.0731,-0.2814,5.3235,-1.9281,-6.1796,-2.3590,4.9657,-1.9270,
4.715815,-0.0238,-1.6515,-0.0252,5.3235,-1.9281,-6.1796,-2.3590,4.9657,-1.9270,
4.719009,-0.0238,-1.6515,-0.0252,2.7999,-7.2665,-2.9731,-2.3590,4.9657,-1.9270,
4.721104,-0.0238,-1.6515,-0.0252,2.7999,-7.2665,-2.9731,-3.1293,7.4214,-2.2068,
4.726554,-0.0238,-1.6515,-0.0252,2.7999,-7.2665,-2.9731,-3.5483,8.4153,-2.8678,
4.734013,0.2802,-1.4843,0.6809,2.7999,-7.2665,-2.9731,-3.5483,8.4153,-2.8678,
4.737029,0.2802,-1.4843,0.6809,5.5004,-5.2809,5.0162,-3.5483,8.4153,-2.8678,
4.739452,0.2802,-1.4843,0.6809,5.5004,-5.2809,5.0162,-2.8819,8.9803,-3.6729,
4.746545,0.2802,-1.4843,0.6809,5.5004,-5.2809,5.0162,-1.9454,9.0249,-4.3882,
4.754014,-0.0111,-1.8874,-0.0100,5.5004,-5.2809,5.0162,-1.9454,9.0249,-4.3882,
4.757035,-0.0111,-1.8874,-0.0100,1.9803,-8.9455,-0.8636,-1.9454,9.0249,-4.3882,
4.759380,-0.0111,-1.8874,-0.0100,1.9803,-8.9455,-0.8636,-1.2967,8.7806,-4.8525,
4.766594,-0.0111,-1.8874,-0.0100,1.9803,-8.9455,-0.8636,-1.0016,8.7971,-4.9386,
4.774030,-1.2048,-2.2835,-0.1665,1.9803,-8.9455,-0.8636,-1.0016,8.7971,-4.9386,
4.776326,-1.2048,-2.2835,-0.1665,-10.5745,-12.6530,-1.8828,-1.0016,8.7971,-4.9386,
4.779251,-1.2048,-2.2835,-0.1665,-10.5745,-12.6530,-1.8828,-0.7090,8.8569,-4.4603,
4.798755,-1.2048,-2.2835,-0.1665,-10.5745,-12.6530,-1.8828,-0.0456,8.2051,-3.4762,
4.801389,-1.6535,-1.1092,0.7382,-10.5745,-12.6530,-1.8828,-0.0456,8.2051,-3.4762,
4.804468,-1.6535,-1.1092,0.7382,-15.7266,-1.0747,7.2001,-0.0456,8.2051,-3.4762,
4.806587,-1.6535,-1.1092,0.7382,-15.7266,-1.0747,7.2001,0.9721,7.0072,-2.4322,
4.808229,-1.6535,-1.1092,0.7382,-15.7266,-1.0747,7.2001,1.8804,5.5686,-1.5055,
4.822406,-1.2824,-0.2621,-0.1281,-15.7266,-1.0747,7.2001,1.8804,5.5686,-1.5055,
4.824518,-1.2824,-0.2621,-0.1281,-12.2259,7.2268,-1.5673,1.8804,5.5686,-1.5055,
4.827067,-1.2824,-0.2621,-0.1281,-12.2259,7.2268,-1.5673,2.0924,3.6145,-0.8330,
4.828775,-1.2824,-0.2621,-0.1281,-12.2259,7.2268,-1.5673,1.7161,1.4031,-0.4603,
4.833778,-1.0773,-0.3858,0.2532,-12.2259,7.2268,-1.5673,1.7161,1.4031,-0.4603,
4.836362,-1.0773,-0.3858,0.2532,-10.0400,5.9872,1.7772,1.7161,1.4031,-0.4603,
4.838416,-1.0773,-0.3858,0.2532,-10.0400,5.9872,1.7772,1.5029,-0.0196,-0.1335,
4.846372,-1.0773,-0.3858,0.2532,-10.0400,5.9872,1.7772,1.5078,-0.0947,0.2098,
4.853771,-0.5024,-0.7627,-0.4732,-10.0400,5.9872,1.7772,1.5078,-0.0947,0.2098,
4.856047,-0.5024,-0.7627,-0.4732,-4.1424,2.2531,-5.6021,1.5078,-0.0947,0.2098,
4.857477,-0.5024,-0.7627,-0.4732,-4.1424,2.2531,-5.6021,1.3655,0.3250,0.4590,
4.878561,-0.5024,-0.7627,-0.4732,-4.1424,2.2531,-5.6021,1.0362,-0.1937,0.4462,
4.880715,0.0903,-0.5007,-0.8668,-4.1424,2.2531,-5.6021,1.0362,-0.1937,0.4462,
4.882335,0.0903,-0.5007,-0.8668,1.9534,4.7842,-9.5488,1.0362,-0.1937,0.4462,
4.883833,0.0903,-0.5007,-0.8668,1.9534,4.7842,-9.5488,0.7326,-1.0525,0.0821,
4.887298,0.0903,-0.5007,-0.8668,1.9534,4.7842,-9.5488,0.4015,-0.9108,-0.3522,
4.893763,0.1151,-0.2642,-0.6188,1.9534,4.7842,-9.5488,0.4015,-0.9108,-0.3522,
4.895383,0.1151,-0.2642,-0.6188,2.3004,7.0986,-7.0331,0.4015,-0.9108,-0.3522,
4.897297,0.1151,-0.2642,-0.6188,2.3004,7.0986,-7.0331,0.0320,0.4832,-0.5563,
4.906182,0.1151,-0.2642,-0.6188,2.3004,7.0986,-7.0331,-0.7151,4.0030,-0.4048,
4.916586,-0.0589,-0.5240,-0.9726,2.3004,7.0986,-7.0331,-0.7151,4.0030,-0.4048,
4.919836,-0.0589,-0.5240,-0.9726,0.6497,4.5776,-10.0969,-0.7151,4.0030,-0.4048,
4.924112,-0.0589,-0.5240,-0.9726,0.6497,4.5776,-10.0969,-1.3101,5.1600,-0.3785,
4.927141,-0.0589,-0.5240,-0.9726,0.6497,4.5776,-10.0969,-2.0016,5.6951,-0.3449,
4.950010,-0.7217,-0.8387,-0.7735,0.6497,4.5776,-10.0969,-2.0016,5.6951,-0.3449,
4.954124,-0.7217,-0.8387,-0.7735,-5.7426,1.4957,-7.4345,-2.0016,5.6951,-0.3449,
4.957240,-0.7217,-0.8387,-0.7735,-5.7426,1.4957,-7.4345,-2.6082,5.6981,-0.3987,
4.959436,-0.7217,-0.8387,-0.7735,-5.7426,1.4957,-7.4345,-2.7310,5.3469,-0.3003,
4.961466,-1.7420,-1.2832,2.3970,-5.7426,1.4957,-7.4345,-2.7310,5.3469,-0.3003,
4.962971,-1.7420,-1.2832,2.3970,-15.6271,-2.9009,24.1866,-2.7310,5.3469,-0.3003,
4.964999,-1.7420,-1.2832,2.3970,-15.6271,-2.9009,24.1866,-1.7096,4.8075,0.1963,
4.966836,-1.7420,-1.2832,2.3970,-15.6271,-2.9009,24.1866,0.6208,2.8979,0.9544,
4.980088,-0.4663,-1.4566,0.5834,-15.6271,-2.9009,24.1866,0.6208,2.8979,0.9544,
4.982258,-0.4663,-1.4566,0.5834,-2.9102,-4.6400,6.4910,0.6208,2.8979,0.9544,
4.984082,-0.4663,-1.4566,0.5834,-2.9102,-4.6400,6.4910,2.0368,-0.5376,1.4101,
4.998059,-0.4663,-1.4566,0.5834,-2.9102,-4.6400,6.4910,2.0258,-4.4862,1.3900,
4.999608,-0.1814,-1.4905,0.8166,-2.9102,-4.6400,6.4910,2.0258,-4.4862,1.3900,
5.001061,-0.1814,-1.4905,0.8166,0.2648,-5.0165,8.1436,2.0258,-4.4862,1.3900,
5.002442,-0.1814,-1.4905,0.8166,0.2648,-5.0165,8.1436,1.9660,-7.6340,1.0515,
5.005912,-0.1814,-1.4905,0.8166,0.2648,-5.0165,8.1436,2.5524,-8.8502,0.6673,
5.014617,-0.7001,-1.4796,1.1553,0.2648,-5.0165,8.1436,2.5524,-8.8502,0.6673,
5.016505,-0.7001,-1.4796,1.1553,-4.6937,-4.9577,10.6815,2.5524,-8.8502,0.6673,
5.017711,-0.7001,-1.4796,1.1553,-4.6937,-4.9577,10.6815,3.2518,-8.5185,0.4321,
5.025909,-0.7001,-1.4796,1.1553,-4.6937,-4.9577,10.6815,3.9158,-7.3432,0.4327,
5.033543,-1.2821,-1.1007,1.1960,-4.6937,-4.9577,10.6815,3.9158,-7.3432,0.4327,
5.034949,-1.2821,-1.1007,1.1960,-10.4939,-1.3463,10.0614,3.9158,-7.3432,0.4327,
5.036274,-1.2821,-1.1007,1.1960,-10.4939,-1.3463,10.0614,4.6055,-6.4978,0.7260,
5.045917,-1.2821,-1.1007,1.1960,-10.4939,-1.3463,10.0614,5.0343,-6.2968,1.2366,
5.058156,-1.4117,-0.9931,-0.5949,-10.4939,-1.3463,10.0614,5.0343,-6.2968,1.2366,
5.060179,-1.4117,-0.9931,-0.5949,-11.8661,-0.5474,-8.6459,5.0343,-6.2968,1.2366,
5.062350,-1.4117,-0.9931,-0.5949,-11.8661,-0.5474,-8.6459,4.7295,-6.9223,1.7827,
5.066782,-1.4117,-0.9931,-0.5949,-11.8661,-0.5474,-8.6459,4.0050,-7.6236,2.1878,
5.073677,-0.5738,-0.8198,-1.2044,-11.8661,-0.5474,-8.6459,4.0050,-7.6236,2.1878,
5.075569,-0.5738,-0.8198,-1.2044,-3.5925,0.8018,-15.5425,4.0050,-7.6236,2.1878,
5.077334,-0.5738,-0.8198,-1.2044,-3.5925,0.8018,-15.5425,3.2433,-7.0494,2.3276,
5.091865,-0.5738,-0.8198,-1.2044,-3.5925,0.8018,-15.5425,2.4473,-5.1899,1.3539,
5.094127,1.1388,-0.6054,-0.3250,-3.5925,0.8018,-15.5425,2.4473,-5.1899,1.3539,
5.096313,1.1388,-0.6054,-0.3250,13.0704,2.6859,-7.4563,2.4473,-5.1899,1.3539,
5.097998,1.1388,-0.6054,-0.3250,13.0704,2.6859,-7.4563,0.6715,-2.3256,0.6191,
5.109750,1.1388,-0.6054,-0.3250,13.0704,2.6859,-7.4563,0.3912,-2.1045,0.0479,
5.115136,0.9021,-0.2620,0.6980,13.0704,2.6859,-7.4563,0.3912,-2.1045,0.0479,
5.117245,0.9021,-0.2620,0.6980,10.5338,6.0638,2.5044,0.3912,-2.1045,0.0479,
5.118763,0.9021,-0.2620,0.6980,10.5338,6.0638,2.5044,-0.0664,-1.7422,0.0198,
5.125982,0.9021,-0.2620,0.6980,10.5338,6.0638,2.5044,-0.7560,-0.7581,0.5610,
5.133689,0.5918,0.0822,-0.0656,10.5338,6.0638,2.5044,-0.7560,-0.7581,0.5610,
5.135442,0.5918,0.0822,-0.0656,7.3316,9.5094,-4.8936,-0.7560,-0.7581,0.5610,
5.136581,0.5918,0.0822,-0.0656,7.3316,9.5094,-4.8936,-1.5099,0.6298,1.0772,
5.146767,0.5918,0.0822,-0.0656,7.3316,9.5094,-4.8936,-2.0664,1.8204,1.1920,
5.153982,0.9177,-0.4244,0.1819,7.3316,9.5094,-4.8936,-2.0664,1.8204,1.1920,
5.156286,0.9177,-0.4244,0.1819,10.5092,4.7335,-2.0648,-2.0664,1.8204,1.1920,
5.157939,0.9177,-0.4244,0.1819,10.5092,4.7335,-2.0648,-2.2178,2.2602,0.9740,
5.166842,0.9177,-0.4244,0.1819,10.5092,4.7335,-2.0648,-2.1690,2.4465,0.5598,
5.174153,0.9629,-0.8143,1.0085,10.5092,4.7335,-2.0648,-2.1690,2.4465,0.5598,
5.175872,0.9629,-0.8143,1.0085,10.9369,1.0767,6.4340,-2.1690,2.4465,0.5598,
5.177599,0.9629,-0.8143,1.0085,10.9369,1.0767,6.4340,-2.0908,3.0940,-0.0144,
5.186526,0.9629,-0.8143,1.0085,10.9369,1.0767,6.4340,-1.7530,4.0818,-0.8049,
5.194125,0.7424,-0.8249,2.9540,10.9369,1.0767,6.4340,-1.7530,4.0818,-0.8049,
5.196641,0.7424,-0.8249,2.9540,8.6951,1.0625,25.7095,-1.7530,4.0818,-0.8049,
5.199258,0.7424,-0.8249,2.9540,8.6951,1.0625,25.7095,-0.9717,5.1453,-1.6460,
5.206670,0.7424,-0.8249,2.9540,8.6951,1.0625,25.7095,-0.6229,5.5399,-2.3436,
5.216845,-0.2265,-1.0265,-0.1880,8.6951,1.0625,25.7095,-0.6229,5.5399,-2.3436,
5.219524,-0.2265,-1.0265,-0.1880,-1.0241,-0.8369,-4.9553,-0.6229,5.5399,-2.3436,
5.222041,-0.2265,-1.0265,-0.1880,-1.0241,-0.8369,-4.9553,-1.3089,4.1050,-2.4677,
5.226779,-0.2265,-1.0265,-0.1880,-1.0241,-0.8369,-4.9553,-2.1555,2.1014,-1.9790,
5.236216,-0.2899,-1.3888,0.2722,-1.0241,-0.8369,-4.9553,-2.1555,2.1014,-1.9790,
5.238043,-0.2899,-1.3888,0.2722,-1.9798,-4.2606,-0.1649,-2.1555,2.1014,-1.9790,
5.239401,-0.2899,-1.3888,0.2722,-1.9798,-4.2606,-0.1649,-2.2325,2.6353,-1.3052,
5.246271,-0.2899,-1.3888,0.2722,-1.9798,-4.2606,-0.1649,-1.3901,6.0567,-0.6699,
5.253669,0.3635,-2.4672,1.5432,-1.9798,-4.2606,-0.1649,-1.3901,6.0567,-0.6699,
5.255631,0.3635,-2.4672,1.5432,4.4611,-14.7179,12.7042,-1.3901,6.0567,-0.6699,
5.257430,0.3635,-2.4672,1.5432,4.4611,-14.7179,12.7042,0.2788,8.7891,-0.2001,
5.276140,0.3635,-2.4672,1.5432,4.4611,-14.7179,12.7042,1.3814,8.5912,-0.4658,
5.278724,1.0583,-2.8955,-0.3023,4.4611,-14.7179,12.7042,1.3814,8.5912,-0.4658,
5.281001,1.0583,-2.8955,-0.3023,11.6208,-18.9469,-5.3506,1.3814,8.5912,-0.4658,
5.282837,1.0583,-2.8955,-0.3023,11.6208,-18.9469,-5.3506,0.8768,6.5069,-2.2312,
5.286354,1.0583,-2.8955,-0.3023,11.6208,-18.9469,-5.3506,0.7919,5.6157,-2.6631,
5.293504,0.5866,-1.6096,-0.2912,11.6208,-18.9469,-5.3506,0.7919,5.6157,-2.6631,
5.295855,0.5866,-1.6096,-0.2912,6.8259,-6.3275,-5.2558,0.7919,5.6157,-2.6631,
5.297252,0.5866,-1.6096,-0.2912,6.8259,-6.3275,-5.2558,0.8530,5.0469,-2.7425,
5.308534,0.5866,-1.6096,-0.2912,6.8259,-6.3275,-5.2558,0.6386,4.5399,-2.7621,
5.313677,-0.3134,-0.8895,-0.6445,6.8259,-6.3275,-5.2558,0.6386,4.5399,-2.7621,
5.315079,-0.3134,-0.8895,-0.6445,-2.2822,0.7448,-8.7687,0.6386,4.5399,-2.7621,
5.316467,-0.3134,-0.8895,-0.6445,-2.2822,0.7448,-8.7687,0.2329,3.7947,-2.6821,
5.325897,-0.3134,-0.8895,-0.6445,-2.2822,0.7448,-8.7687,-0.1556,2.4147,-2.3510,
5.333462,-0.6472,-0.8633,-0.5512,-2.2822,0.7448,-8.7687,-0.1556,2.4147,-2.3510,
5.335330,-0.6472,-0.8633,-0.5512,-5.9019,1.0647,-7.6943,-0.1556,2.4147,-2.3510,
5.336560,-0.6472,-0.8633,-0.5512,-5.9019,1.0647,-7.6943,-0.5679,0.8546,-1.7145,
5.345924,-0.6472,-0.8633,-0.5512,-5.9019,1.0647,-7.6943,-0.8312,0.1356,-0.9881,
5.353411,-0.0410,-0.9835,-0.2289,-5.9019,1.0647,-7.6943,-0.8312,0.1356,-0.9881,
5.354936,-0.0410,-0.9835,-0.2289,-0.2071,-0.0448,-4.2696,-0.8312,0.1356,-0.9881,
5.356065,-0.0410,-0.9835,-0.2289,-0.2071,-0.0448,-4.2696,-0.8672,0.4703,-0.5227,
5.367377,-0.0410,-0.9835,-0.2289,-0.2071,-0.0448,-4.2696,-0.8257,1.4215,-0.3547,
5.374053,0.3963,-1.2059,-0.2211,-0.2071,-0.0448,-4.2696,-0.8257,1.4215,-0.3547,
5.376294,0.3963,-1.2059,-0.2211,3.9889,-2.1664,-3.9019,-0.8257,1.4215,-0.3547,
5.378445,0.3963,-1.2059,-0.2211,3.9889,-2.1664,-3.9019,-0.8196,2.5155,-0.2294,
5.386600,0.3963,-1.2059,-0.2211,3.9889,-2.1664,-3.9019,-0.8581,3.5650,-0.1079,
5.394163,1.0047,-1.0329,-0.4289,3.9889,-2.1664,-3.9019,-0.8581,3.5650,-0.1079,
5.397286,1.0047,-1.0329,-0.4289,9.8973,-0.4211,-5.6336,-0.8581,3.5650,-0.1079,
5.399800,1.0047,-1.0329,-0.4289,9.8973,-0.4211,-5.6336,-0.7548,4.0531,-0.4432,
5.406910,1.0047,-1.0329,-0.4289,9.8973,-0.4211,-5.6336,-0.4964,4.2687,-1.1152,
5.414393,0.6315,-0.9655,-0.5391,9.8973,-0.4211,-5.6336,-0.4964,4.2687,-1.1152,
5.418018,0.6315,-0.9655,-0.5391,6.0596,0.2759,-6.4358,-0.4964,4.2687,-1.1152,
5.420926,0.6315,-0.9655,-0.5391,6.0596,0.2759,-6.4358,-0.0969,4.2266,-1.7493,
5.426748,0.6315,-0.9655,-0.5391,6.0596,0.2759,-6.4358,0.3038,4.0525,-2.2343,
5.434116,-0.2035,-1.1150,-0.5874,6.0596,0.2759,-6.4358,0.3038,4.0525,-2.2343,
5.437501,-0.2035,-1.1150,-0.5874,-2.4864,-1.1861,-6.7765,0.3038,4.0525,-2.2343,
5.439830,-0.2035,-1.1150,-0.5874,-2.4864,-1.1861,-6.7765,0.6379,3.9327,-2.4835,
5.448835,-0.2035,-1.1150,-0.5874,-2.4864,-1.1861,-6.7765,1.0448,3.7030,-2.5037,
5.455072,-0.8743,-1.2753,-0.2724,-2.4864,-1.1861,-6.7765,1.0448,3.7030,-2.5037,
5.459476,-0.8743,-1.2753,-0.2724,-9.4093,-2.7861,-3.7404,1.0448,3.7030,-2.5037,
5.462076,-0.8743,-1.2753,-0.2724,-9.4093,-2.7861,-3.7404,2.1859,2.8301,-2.3730,
5.469069,-0.8743,-1.2753,-0.2724,-9.4093,-2.7861,-3.7404,2.9043,2.7861,-2.5984,
5.474060,-1.7384,-1.4037,0.4198,-9.4093,-2.7861,-3.7404,2.9043,2.7861,-2.5984,
5.476029,-1.7384,-1.4037,0.4198,-18.0809,-4.1238,2.5971,2.9043,2.7861,-2.5984,
5.478269,-1.7384,-1.4037,0.4198,-18.0809,-4.1238,2.5971,3.4345,4.3640,-3.0248,
5.503330,-1.7384,-1.4037,0.4198,-18.0809,-4.1238,2.5971,3.5622,7.1923,-3.1543,
5.505991,-3.4274,-0.7269,-0.0211,-18.0809,-4.1238,2.5971,3.5622,7.1923,-3.1543,
5.508701,-3.4274,-0.7269,-0.0211,-34.9954,2.2974,-2.5368,3.5622,7.1923,-3.1543,
5.510434,-3.4274,-0.7269,-0.0211,-34.9954,2.2974,-2.5368,3.8548,6.5570,-2.0938,
5.513094,-3.4274,-0.7269,-0.0211,-34.9954,2.2974,-2.5368,3.9049,4.2876,0.2098,
5.514612,-2.9192,-0.2731,-0.0305,-34.9954,2.2974,-2.5368,3.9049,4.2876,0.2098,
5.516324,-2.9192,-0.2731,-0.0305,-29.8912,6.4985,-3.5149,3.9049,4.2876,0.2098,
5.517798,-2.9192,-0.2731,-0.0305,-29.8912,6.4985,-3.5149,2.9586,1.8063,2.1566,
5.525875,-2.9192,-0.2731,-0.0305,-29.8912,6.4985,-3.5149,1.7913,-1.3122,3.4541,
5.533502,-0.8336,-1.1383,-0.0461,-29.8912,6.4985,-3.5149,1.7913,-1.3122,3.4541,
5.535921,-0.8336,-1.1383,-0.0461,-8.9336,-2.0867,-4.1033,1.7913,-1.3122,3.4541,
5.536875,-0.8336,-1.1383,-0.0461,-8.9336,-2.0867,-4.1033,0.8243,-5.0470,4.1987,
5.545853,-0.8336,-1.1383,-0.0461,-8.9336,-2.0867,-4.1033,0.1767,-8.8686,4.7467,
5.555600,0.4647,-1.4121,-0.4450,-8.9336,-2.0867,-4.1033,0.1767,-8.8686,4.7467,
5.556728,0.4647,-1.4121,-0.4450,4.2435,-4.7155,-7.9452,0.1767,-8.8686,4.7467,
5.557867,0.4647,-1.4121,-0.4450,4.2435,-4.7155,-7.9452,-0.2069,-11.7934,4.8853,
5.571922,0.4647,-1.4121,-0.4450,4.2435,-4.7155,-7.9452,-0.6253,-12.7243,4.2085,
5.573897,-0.1208,-0.8104,-0.3662,4.2435,-4.7155,-7.9452,-0.6253,-12.7243,4.2085,
5.575476,-0.1208,-0.8104,-0.3662,-1.2646,1.3093,-6.8425,-0.6253,-12.7243,4.2085,
5.576728,-0.1208,-0.8104,-0.3662,-1.2646,1.3093,-6.8425,-1.2661,-11.2717,3.0741,
5.585932,-0.1208,-0.8104,-0.3662,-1.2646,1.3093,-6.8425,-1.8226,-8.4122,2.3655,
5.593401,-0.9204,-0.8503,-1.1774,-1.2646,1.3093,-6.8425,-1.8226,-8.4122,2.3655,
5.594472,-0.9204,-0.8503,-1.1774,-8.9434,1.0947,-14.2374,-1.8226,-8.4122,2.3655,
5.595882,-0.9204,-0.8503,-1.1774,-8.9434,1.0947,-14.2374,-2.1268,-7.0360,2.5427,
5.606075,-0.9204,-0.8503,-1.1774,-8.9434,1.0947,-14.2374,-2.3333,-7.4813,3.1004,
5.613726,-0.6332,-1.0332,-1.3295,-8.9434,1.0947,-14.2374,-2.3333,-7.4813,3.1004,
5.615207,-0.6332,-1.0332,-1.3295,-5.7819,-0.5502,-15.1058,-2.3333,-7.4813,3.1004,
5.616514,-0.6332,-1.0332,-1.3295,-5.7819,-0.5502,-15.1058,-2.8483,-8.3768,3.5408,
5.626221,-0.6332,-1.0332,-1.3295,-5.7819,-0.5502,-15.1058,-3.3870,-8.5369,3.7106,
5.633686,-0.2235,-0.8685,-0.5624,-5.7819,-0.5502,-15.1058,-3.3870,-8.5369,3.7106,
5.636784,-0.2235,-0.8685,-0.5624,-1.2077,1.1573,-6.8229,-3.3870,-8.5369,3.7106,
5.638501,-0.2235,-0.8685,-0.5624,-1.2077,1.1573,-6.8229,-3.6491,-7.6022,3.6532,
5.646292,-0.2235,-0.8685,-0.5624,-1.2077,1.1573,-6.8229,-3.5117,-2.8069,2.8884,
5.660449,0.1904,-1.2120,-0.3574,-1.2077,1.1573,-6.8229,-3.5117,-2.8069,2.8884,
5.662397,0.1904,-1.2120,-0.3574,3.4424,-2.2125,-4.0238,-3.5117,-2.8069,2.8884,
5.664556,0.1904,-1.2120,-0.3574,3.4424,-2.2125,-4.0238,-3.1567,-0.7642,2.3417,
5.668126,0.1904,-1.2120,-0.3574,3.4424,-2.2125,-4.0238,-2.7780,-0.0947,1.8640,
5.674004,0.3303,-1.8189,-0.4053,3.4424,-2.2125,-4.0238,-2.7780,-0.0947,1.8640,
5.675683,0.3303,-1.8189,-0.4053,5.1961,-8.2178,-3.7794,-2.7780,-0.0947,1.8640,
5.677261,0.3303,-1.8189,-0.4053,5.1961,-8.2178,-3.7794,-2.8452,0.3751,1.5347,
5.686377,0.3303,-1.8189,-0.4053,5.1961,-8.2178,-3.7794,-3.1708,1.0452,1.3704,
5.693911,1.0442,-1.3150,1.3271,5.1961,-8.2178,-3.7794,-3.1708,1.0452,1.3704,
5.695299,1.0442,-1.3150,1.3271,12.3304,-3.3387,13.7829,-3.1708,1.0452,1.3704,
5.696842,1.0442,-1.3150,1.3271,12.3304,-3.3387,13.7829,-3.2808,1.8283,1.2385,
5.706162,1.0442,-1.3150,1.3271,12.3304,-3.3387,13.7829,-2.3186,2.3781,1.0497,
5.714060,0.8884,-1.7585,3.1308,12.3304,-3.3387,13.7829,-2.3186,2.3781,1.0497,
5.715786,0.8884,-1.7585,3.1308,10.9734,-7.7957,32.0818,-2.3186,2.3781,1.0497,
5.717365,0.8884,-1.7585,3.1308,10.9734,-7.7957,32.0818,0.6563,1.2981,0.8512,
5.726152,0.8884,-1.7585,3.1308,10.9734,-7.7957,32.0818,2.9336,-1.8943,0.8029,
5.734195,0.3958,-1.3405,0.0181,10.9734,-7.7957,32.0818,2.9336,-1.8943,0.8029,
5.737180,0.3958,-1.3405,0.0181,6.3063,-3.6934,1.2237,2.9336,-1.8943,0.8029,
5.740446,0.3958,-1.3405,0.0181,6.3063,-3.6934,1.2237,2.9006,-4.6041,0.5256,
5.746791,0.3958,-1.3405,0.0181,6.3063,-3.6934,1.2237,2.5310,-6.0983,0.2037,
5.753923,-0.4724,-1.1556,0.7263,6.3063,-3.6934,1.2237,2.5310,-6.0983,0.2037,
5.756501,-0.4724,-1.1556,0.7263,-2.0944,-1.8531,7.3071,2.5310,-6.0983,0.2037,
5.758198,-0.4724,-1.1556,0.7263,-2.0944,-1.8531,7.3071,2.7369,-5.9340,0.0681,
5.767141,-0.4724,-1.1556,0.7263,-2.0944,-1.8531,7.3071,3.2989,-4.5045,0.1566,
5.773820,-1.1220,-1.0642,0.4060,-2.0944,-1.8531,7.3071,3.2989,-4.5045,0.1566,
5.775730,-1.1220,-1.0642,0.4060,-8.4952,-0.9779,3.2083,3.2989,-4.5045,0.1566,
5.777483,-1.1220,-1.0642,0.4060,-8.4952,-0.9779,3.2083,3.7772,-2.4618,0.4712,
5.786624,-1.1220,-1.0642,0.4060,-8.4952,-0.9779,3.2083,4.0612,-0.8931,1.0686,
5.794162,-1.1827,-0.9490,-0.5262,-8.4952,-0.9779,3.2083,4.0612,-0.8931,1.0686,
5.797328,-1.1827,-0.9490,-0.5262,-8.9522,0.0080,-6.7589,4.0612,-0.8931,1.0686,
5.799975,-1.1827,-0.9490,-0.5262,-8.9522,0.0080,-6.7589,3.9745,-0.2193,1.7809,
5.806710,-1.1827,-0.9490,-0.5262,-8.9522,0.0080,-6.7589,3.3807,0.0446,2.3435,
5.814728,-0.7043,-0.5587,-0.3060,-8.9522,0.0080,-6.7589,3.3807,0.0446,2.3435,
5.817309,-0.7043,-0.5587,-0.3060,-3.8218,3.5630,-5.2314,3.3807,0.0446,2.3435,
5.819562,-0.7043,-0.5587,-0.3060,-3.8218,3.5630,-5.2314,2.5023,0.3470,2.6386,
5.827006,-0.7043,-0.5587,-0.3060,-3.8218,3.5630,-5.2314,0.7937,-0.0067,3.0118,
5.835056,0.3341,-0.7563,0.2907,-3.8218,3.5630,-5.2314,0.7937,-0.0067,3.0118,
5.839598,0.3341,-0.7563,0.2907,6.8478,1.3749,0.3584,0.7937,-0.0067,3.0118,
5.841879,0.3341,-0.7563,0.2907,6.8478,1.3749,0.3584,0.0173,-1.3549,2.9953,
5.846508,0.3341,-0.7563,0.2907,6.8478,1.3749,0.3584,-0.6919,-2.7257,2.5158,
5.853991,0.9304,-1.2506,0.1521,6.8478,1.3749,0.3584,-0.6919,-2.7257,2.5158,
5.856689,0.9304,-1.2506,0.1521,12.9061,-3.5787,-1.0649,-0.6919,-2.7257,2.5158,
5.858680,0.9304,-1.2506,0.1521,12.9061,-3.5787,-1.0649,-1.1507,-2.9083,1.6936,
5.867464,0.9304,-1.2506,0.1521,12.9061,-3.5787,-1.0649,-1.2875,-1.2993,0.7266,
5.873863,0.8920,-0.9736,0.2459,12.9061,-3.5787,-1.0649,-1.2875,-1.2993,0.7266,
5.875699,0.8920,-0.9736,0.2459,12.3944,-0.7886,-0.0845,-1.2875,-1.2993,0.7266,
5.877299,0.8920,-0.9736,0.2459,12.3944,-0.7886,-0.0845,-1.2521,1.5082,-0.3162,
5.886526,0.8920,-0.9736,0.2459,12.3944,-0.7886,-0.0845,-1.2276,4.4837,-1.3369,
5.894140,0.8419,-0.8631,0.6797,12.3944,-0.7886,-0.0845,-1.2276,4.4837,-1.3369,
5.896394,0.8419,-0.8631,0.6797,11.6150,0.5064,4.5450,-1.2276,4.4837,-1.3369,
5.899261,0.8419,-0.8631,0.6797,11.6150,0.5064,4.5450,-1.3553,7.1050,-2.2025,
5.906643,0.8419,-0.8631,0.6797,11.6150,0.5064,4.5450,-1.4695,8.8740,-3.0015,
5.916339,1.0607,-1.4230,1.6491,11.6150,0.5064,4.5450,-1.4695,8.8740,-3.0015,
5.919082,1.0607,-1.4230,1.6491,13.3451,-4.7089,14.6920,-1.4695,8.8740,-3.0015,
5.921262,1.0607,-1.4230,1.6491,13.3451,-4.7089,14.6920,-1.1397,8.5393,-3.8934,
5.926826,1.0607,-1.4230,1.6491,13.3451,-4.7089,14.6920,-0.3920,5.9877,-4.7578,
5.935126,-0.1699,-1.8074,-0.3513,13.3451,-4.7089,14.6920,-0.3920,5.9877,-4.7578,
5.939456,-0.1699,-1.8074,-0.3513,0.4569,-8.1918,-4.4567,-0.3920,5.9877,-4.7578,
5.941846,-0.1699,-1.8074,-0.3513,0.4569,-8.1918,-4.4567,-0.2032,3.8393,-5.0150,
5.946585,-0.1699,-1.8074,-0.3513,0.4569,-8.1918,-4.4567,-0.5581,2.7110,-4.4688,
5.954164,-0.4383,-0.7553,-0.0682,0.4569,-8.1918,-4.4567,-0.5581,2.7110,-4.4688,
5.957985,-0.4383,-0.7553,-0.0682,-3.1268,2.2947,-1.5547,-0.5581,2.7110,-4.4688,
5.960453,-0.4383,-0.7553,-0.0682,-3.1268,2.2947,-1.5547,-0.8135,2.7079,-3.6491,
5.967785,-0.4383,-0.7553,-0.0682,-3.1268,2.2947,-1.5547,-0.8819,3.5173,-3.0119,
5.974192,-0.7245,-0.5636,0.1412,-3.1268,2.2947,-1.5547,-0.8819,3.5173,-3.0119,
5.976326,-0.7245,-0.5636,0.1412,-6.5230,4.2388,0.6509,-0.8819,3.5173,-3.0119,
5.978342,-0.7245,-0.5636,0.1412,-6.5230,4.2388,0.6509,-0.9949,4.2064,-2.5135,
5.986656,-0.7245,-0.5636,0.1412,-6.5230,4.2388,0.6509,-1.0120,3.7122,-1.9454,
5.994233,-0.6893,-0.9515,0.1788,-6.5230,4.2388,0.6509,-1.0120,3.7122,-1.9454,
5.997189,-0.6893,-0.9515,0.1788,-6.4773,0.4618,1.1805,-1.0120,3.7122,-1.9454,
6.000570,-0.6893,-0.9515,0.1788,-6.4773,0.4618,1.1805,-0.7188,2.4569,-1.3302,
6.006931,-0.6893,-0.9515,0.1788,-6.4773,0.4618,1.1805,-0.3388,1.3634,-0.8195,
6.014034,-0.4322,-1.0190,-0.0188,-6.4773,0.4618,1.1805,-0.3388,1.3634,-0.8195,
6.016750,-0.4322,-1.0190,-0.0188,-4.0386,-0.1944,-0.6868,-0.3388,1.3634,-0.8195,
6.018960,-0.4322,-1.0190,-0.0188,-4.0386,-0.1944,-0.6868,-0.0303,1.0849,-0.3846,
6.026658,-0.4322,-1.0190,-0.0188,-4.0386,-0.1944,-0.6868,0.0075,1.1594,-0.2624,
6.034312,-0.2433,-1.1142,-0.1441,-4.0386,-0.1944,-0.6868,0.0075,1.1594,-0.2624,
6.036876,-0.2433,-1.1142,-0.1441,-2.1405,-1.1281,-1.9168,0.0075,1.1594,-0.2624,
6.038835,-0.2433,-1.1142,-0.1441,-2.1405,-1.1281,-1.9168,0.0912,1.0067,-0.1952,
6.046381,-0.2433,-1.1142,-0.1441,-2.1405,-1.1281,-1.9168,0.1505,0.7654,-0.2575,
6.054687,-0.1011,-1.0737,-0.2948,-2.1405,-1.1281,-1.9168,0.1505,0.7654,-0.2575,
6.056941,-0.1011,-1.0737,-0.2948,-0.7039,-0.7325,-3.3816,0.1505,0.7654,-0.2575,
6.058709,-0.1011,-1.0737,-0.2948,-0.7039,-0.7325,-3.3816,0.0747,0.4844,-0.3907,
6.067258,-0.1011,-1.0737,-0.2948,-0.7039,-0.7325,-3.3816,-0.1476,0.2077,-0.5153,
6.073848,-0.7429,-0.8788,-0.3279,-0.7039,-0.7325,-3.3816,-0.1476,0.2077,-0.5153,
6.075815,-0.7429,-0.8788,-0.3279,-6.9471,1.1798,-3.6375,-0.1476,0.2077,-0.5153,
6.077546,-0.7429,-0.8788,-0.3279,-6.9471,1.1798,-3.6375,-0.3736,-0.1094,-0.5300,
6.086769,-0.7429,-0.8788,-0.3279,-6.9471,1.1798,-3.6375,-0.4677,-0.4093,-0.3321,
6.094061,-1.1641,-0.8056,0.2158,-6.9471,1.1798,-3.6375,-0.4677,-0.4093,-0.3321,
6.096423,-1.1641,-0.8056,0.2158,-10.9542,1.8959,1.7916,-0.4677,-0.4093,-0.3321,
6.099559,-1.1641,-0.8056,0.2158,-10.9542,1.8959,1.7916,-0.3468,-0.5131,0.0839,
6.119039,-1.1641,-0.8056,0.2158,-10.9542,1.8959,1.7916,0.0680,-0.4069,0.6215,
6.122099,-0.8946,-1.0863,0.6226,-10.9542,1.8959,1.7916,0.0680,-0.4069,0.6215,
6.124205,-0.8946,-1.0863,0.6226,-8.0370,-0.8724,5.7588,0.0680,-0.4069,0.6215,
6.126020,-0.8946,-1.0863,0.6226,-8.0370,-0.8724,5.7588,0.7265,-0.3580,1.1108,
6.127634,-0.8946,-1.0863,0.6226,-8.0370,-0.8724,5.7588,1.3637,-0.6402,1.4480,
6.141520,-0.6903,-1.2693,0.7163,-8.0370,-0.8724,5.7588,1.3637,-0.6402,1.4480,
6.143446,-0.6903,-1.2693,0.7163,-5.6128,-2.7208,6.3882,1.3637,-0.6402,1.4480,
6.145468,-0.6903,-1.2693,0.7163,-5.6128,-2.7208,6.3882,1.8982,-1.1399,1.6380,
6.147168,-0.6903,-1.2693,0.7163,-5.6128,-2.7208,6.3882,2.4284,-1.5473,1.7504,
6.153782,-0.9114,-1.2020,0.6775,-5.6128,-2.7208,6.3882,2.4284,-1.5473,1.7504,
6.155972,-0.9114,-1.2020,0.6775,-7.3127,-2.1778,5.4742,2.4284,-1.5473,1.7504,
6.157354,-0.9114,-1.2020,0.6775,-7.3127,-2.1778,5.4742,3.1040,-2.0263,1.8970,
6.167017,-0.9114,-1.2020,0.6775,-7.3127,-2.1778,5.4742,3.7760,-2.6952,2.1181,
6.173777,-1.3420,-1.3046,0.1548,-7.3127,-2.1778,5.4742,3.7760,-2.6952,2.1181,
6.176063,-1.3420,-1.3046,0.1548,-11.2229,-3.3604,-0.3879,3.7760,-2.6952,2.1181,
6.178695,-1.3420,-1.3046,0.1548,-11.2229,-3.3604,-0.3879,4.2207,-3.4703,2.4498,
6.195175,-1.3420,-1.3046,0.1548,-11.2229,-3.3604,-0.3879,4.4137,-4.3347,2.8890,
6.197526,-1.4132,-1.3443,-0.4030,-11.2229,-3.3604,-0.3879,4.4137,-4.3347,2.8890,
6.200061,-1.4132,-1.3443,-0.4030,-11.6135,-4.0668,-6.8180,4.4137,-4.3347,2.8890,
6.202290,-1.4132,-1.3443,-0.4030,-11.6135,-4.0668,-6.8180,3.8926,-5.8570,3.6092,
6.207132,-1.4132,-1.3443,-0.4030,-11.6135,-4.0668,-6.8180,3.4601,-5.4996,3.7907,
6.213624,-0.5945,-0.9660,0.0711,-11.6135,-4.0668,-6.8180,3.4601,-5.4996,3.7907,
6.215815,-0.5945,-0.9660,0.0711,-3.2633,-0.7804,-3.0649,3.4601,-5.4996,3.7907,
6.217476,-0.5945,-0.9660,0.0711,-3.2633,-0.7804,-3.0649,2.8334,-4.3567,3.9025,
6.230450,-0.5945,-0.9660,0.0711,-3.2633,-0.7804,-3.0649,2.3386,-2.4801,3.7314,
6.236503,0.7622,-0.7374,1.1076,-3.2633,-0.7804,-3.0649,2.3386,-2.4801,3.7314,
6.238604,0.7622,-0.7374,1.1076,10.4337,1.0498,6.5086,2.3386,-2.4801,3.7314,
6.240371,0.7622,-0.7374,1.1076,10.4337,1.0498,6.5086,2.0906,-1.5834,3.3319,
6.246238,0.7622,-0.7374,1.1076,10.4337,1.0498,6.5086,1.6575,-1.4942,2.9910,
6.253705,0.5987,-0.5036,0.2213,10.4337,1.0498,6.5086,1.6575,-1.4942,2.9910,
6.255639,0.5987,-0.5036,0.2213,9.1411,3.0241,-2.5311,1.6575,-1.4942,2.9910,
6.257050,0.5987,-0.5036,0.2213,9.1411,3.0241,-2.5311,1.0711,-1.0318,2.6190,
6.267094,0.5987,-0.5036,0.2213,9.1411,3.0241,-2.5311,0.4486,-0.7538,2.1871,
6.273641,0.0033,-0.3845,-0.0853,9.1411,3.0241,-2.5311,0.4486,-0.7538,2.1871,
6.275187,0.0033,-0.3845,-0.0853,3.5228,4.0340,-5.6427,0.4486,-0.7538,2.1871,
6.276600,0.0033,-0.3845,-0.0853,3.5228,4.0340,-5.6427,-0.1342,-0.8748,1.6526,
6.286377,0.0033,-0.3845,-0.0853,3.5228,4.0340,-5.6427,-0.6889,-1.0312,1.0344,
6.293326,-0.3073,-0.3216,-0.0250,3.5228,4.0340,-5.6427,-0.6889,-1.0312,1.0344,
6.294583,-0.3073,-0.3216,-0.0250,0.5585,4.6684,-4.9639,-0.6889,-1.0312,1.0344,
6.295891,-0.3073,-0.3216,-0.0250,0.5585,4.6684,-4.9639,-1.2038,-0.5510,0.6679,
6.305907,-0.3073,-0.3216,-0.0250,0.5585,4.6684,-4.9639,-1.6100,0.9181,0.5800,
6.313456,-0.0915,-0.6080,-0.1082,0.5585,4.6684,-4.9639,-1.6100,0.9181,0.5800,
6.314695,-0.0915,-0.6080,-0.1082,2.7415,2.0337,-5.4273,-1.6100,0.9181,0.5800,
6.315935,-0.0915,-0.6080,-0.1082,2.7415,2.0337,-5.4273,-1.9827,2.3329,0.5793,
6.325923,-0.0915,-0.6080,-0.1082,2.7415,2.0337,-5.4273,-2.5245,2.9101,0.4187,
6.333388,0.3025,-0.8418,-0.0650,2.7415,2.0337,-5.4273,-2.5245,2.9101,0.4187,
6.334912,0.3025,-0.8418,-0.0650,6.7708,-0.0003,-4.3292,-2.5245,2.9101,0.4187,
6.336386,0.3025,-0.8418,-0.0650,6.7708,-0.0003,-4.3292,-3.2423,2.7196,-0.0101,
6.345955,0.3025,-0.8418,-0.0650,6.7708,-0.0003,-4.3292,-3.9924,1.9859,-0.7438,
6.353837,0.2665,-0.8365,0.4433,6.7708,-0.0003,-4.3292,-3.9924,1.9859,-0.7438,
6.356247,0.2665,-0.8365,0.4433,6.3409,0.4026,1.4634,-3.9924,1.9859,-0.7438,
6.357917,0.2665,-0.8365,0.4433,6.3409,0.4026,1.4634,-4.5043,0.9016,-1.7951,
6.368617,0.2665,-0.8365,0.4433,6.3409,0.4026,1.4634,-4.5318,-0.1375,-2.8079,
6.374083,-0.7636,-0.9402,-0.0982,6.3409,0.4026,1.4634,-4.5318,-0.1375,-2.8079,
6.376470,-0.7636,-0.9402,-0.0982,-4.1881,-0.2007,-2.9805,-4.5318,-0.1375,-2.8079,
6.378323,-0.7636,-0.9402,-0.0982,-4.1881,-0.2007,-2.9805,-4.2410,-0.8650,-3.1860,
6.386460,-0.7636,-0.9402,-0.0982,-4.1881,-0.2007,-2.9805,-4.3559,-1.9804,-2.1531,
6.394123,-0.7759,-1.0484,-0.7771,-4.1881,-0.2007,-2.9805,-4.3559,-1.9804,-2.1531,
6.396368,-0.7759,-1.0484,-0.7771,-4.8074,-0.9519,-8.8136,-4.3559,-1.9804,-2.1531,
6.398966,-0.7759,-1.0484,-0.7771,-4.8074,-0.9519,-8.8136,-4.7053,-2.4331,-1.5996,
6.406718,-0.7759,-1.0484,-0.7771,-4.8074,-0.9519,-8.8136,-4.9454,-2.5858,-1.1995,
6.414749,-0.6518,-1.3685,-0.5689,-4.8074,-0.9519,-8.8136,-4.9454,-2.5858,-1.1995,
6.417421,-0.6518,-1.3685,-0.5689,-3.8407,-3.9461,-5.8855,-4.9454,-2.5858,-1.1995,
6.419719,-0.6518,-1.3685,-0.5689,-3.8407,-3.9461,-5.8855,-5.0584,-2.1552,-0.9325,
6.426747,-0.6518,-1.3685,-0.5689,-3.8407,-3.9461,-5.8855,-5.0266,-1.2651,-0.7975,
6.435217,-0.1610,-1.2054,-0.1065,-3.8407,-3.9461,-5.8855,-5.0266,-1.2651,-0.7975,
6.437835,-0.1610,-1.2054,-0.1065,0.8320,-2.3269,-0.4295,-5.0266,-1.2651,-0.7975,
6.440211,-0.1610,-1.2054,-0.1065,0.8320,-2.3269,-0.4295,-4.8831,-0.0220,-0.8055,
6.446597,-0.1610,-1.2054,-0.1065,0.8320,-2.3269,-0.4295,-4.7163,1.5009,-0.9613,
6.454087,0.0081,-1.0056,0.0875,0.8320,-2.3269,-0.4295,-4.7163,1.5009,-0.9613,
6.457721,0.0081,-1.0056,0.0875,2.3034,-0.4302,2.4074,-4.7163,1.5009,-0.9613,
6.460127,0.0081,-1.0056,0.0875,2.3034,-0.4302,2.4074,-4.5336,3.2241,-1.2459,
6.469356,0.0081,-1.0056,0.0875,2.3034,-0.4302,2.4074,-4.3186,5.0219,-1.6179,
6.473987,-0.3277,-1.1159,0.0534,2.3034,-0.4302,2.4074,-4.3186,5.0219,-1.6179,
6.476037,-0.3277,-1.1159,0.0534,-1.4016,-1.6207,2.9987,-4.3186,5.0219,-1.6179,
6.478182,-0.3277,-1.1159,0.0534,-1.4016,-1.6207,2.9987,-4.0822,6.6102,-1.9338,
6.492306,-0.3277,-1.1159,0.0534,-1.4016,-1.6207,2.9987,-3.9136,7.8410,-2.0626,
6.495201,-1.0570,-1.4333,0.6321,-1.4016,-1.6207,2.9987,-3.9136,7.8410,-2.0626,
6.497517,-1.0570,-1.4333,0.6321,-9.2324,-4.8682,9.4594,-3.9136,7.8410,-2.0626,
6.500396,-1.0570,-1.4333,0.6321,-9.2324,-4.8682,9.4594,-4.1873,9.2894,-2.0535,
6.506705,-1.0570,-1.4333,0.6321,-9.2324,-4.8682,9.4594,-4.5984,10.1263,-1.9893,
6.513884,-1.9534,-1.0349,2.2223,-9.2324,-4.8682,9.4594,-4.5984,10.1263,-1.9893,
6.520028,-1.9534,-1.0349,2.2223,-19.1007,-1.2650,25.9467,-4.5984,10.1263,-1.9893,
6.524840,-1.9534,-1.0349,2.2223,-19.1007,-1.2650,25.9467,-3.0413,6.1160,-1.4273,
6.527445,-1.9534,-1.0349,2.2223,-19.1007,-1.2650,25.9467,-0.4268,-0.9047,-0.3913,
6.543234,-1.6384,-0.6439,-0.1186,-19.1007,-1.2650,25.9467,-0.4268,-0.9047,-0.3913,
6.545369,-1.6384,-0.6439,-0.1186,-16.4162,2.4074,3.3154,-0.4268,-0.9047,-0.3913,
6.547865,-1.6384,-0.6439,-0.1186,-16.4162,2.4074,3.3154,0.5549,-5.2217,0.2611,
6.550546,-1.6384,-0.6439,-0.1186,-16.4162,2.4074,3.3154,0.2281,-6.7232,0.6820,
6.555064,-1.0598,-0.8238,0.0158,-16.4162,2.4074,3.3154,0.2281,-6.7232,0.6820,
6.557679,-1.0598,-0.8238,0.0158,-10.0732,0.6967,4.5316,0.2281,-6.7232,0.6820,
6.559892,-1.0598,-0.8238,0.0158,-10.0732,0.6967,4.5316,0.0081,-7.1716,1.3814,
6.567396,-1.0598,-0.8238,0.0158,-10.0732,0.6967,4.5316,0.4229,-6.4178,2.4358,
6.573582,0.2488,-1.5098,-0.1975,-10.0732,0.6967,4.5316,0.4229,-6.4178,2.4358,
6.575617,0.2488,-1.5098,-0.1975,3.8571,-5.9737,2.1044,0.4229,-6.4178,2.4358,
6.577212,0.2488,-1.5098,-0.1975,3.8571,-5.9737,2.1044,0.3398,-5.5821,2.5262,
6.594474,0.2488,-1.5098,-0.1975,3.8571,-5.9737,2.1044,0.2659,-5.0910,2.3490,
6.596254,1.3547,-1.6055,-0.5493,3.8571,-5.9737,2.1044,0.2659,-5.0910,2.3490,
6.597775,1.3547,-1.6055,-0.5493,15.5044,-6.9086,-1.7329,0.2659,-5.0910,2.3490,
6.599567,1.3547,-1.6055,-0.5493,15.5044,-6.9086,-1.7329,0.2360,-4.6200,1.8787,
6.607646,1.3547,-1.6055,-0.5493,15.5044,-6.9086,-1.7329,0.1633,-4.1838,1.2238,
6.613487,1.2235,-1.7243,-0.0043,15.5044,-6.9086,-1.7329,0.1633,-4.1838,1.2238,
6.615067,1.2235,-1.7243,-0.0043,14.6372,-8.0417,3.2329,0.1633,-4.1838,1.2238,
6.616909,1.2235,-1.7243,-0.0043,14.6372,-8.0417,3.2329,0.1609,-3.7055,0.5231,
6.626041,1.2235,-1.7243,-0.0043,14.6372,-8.0417,3.2329,0.4339,-3.1338,-0.0963,
6.634143,0.6135,-1.3856,1.3406,14.6372,-8.0417,3.2329,0.4339,-3.1338,-0.0963,
6.636334,0.6135,-1.3856,1.3406,8.8398,-4.6646,16.0897,0.4339,-3.1338,-0.0963,
6.637788,0.6135,-1.3856,1.3406,8.8398,-4.6646,16.0897,1.0649,-2.3696,-0.5837,
6.646125,0.6135,-1.3856,1.3406,8.8398,-4.6646,16.0897,2.2958,-1.6182,-0.9796,
6.653776,-0.2704,-1.3432,2.0704,8.8398,-4.6646,16.0897,2.2958,-1.6182,-0.9796,
6.656119,-0.2704,-1.3432,2.0704,0.1483,-4.1135,22.8270,2.2958,-1.6182,-0.9796,
6.657569,-0.2704,-1.3432,2.0704,0.1483,-4.1135,22.8270,4.1883,-1.3219,-1.0651,
6.668206,-0.2704,-1.3432,2.0704,0.1483,-4.1135,22.8270,6.0679,-1.3067,-0.8311,
6.674038,-0.8262,-1.4153,0.7577,0.1483,-4.1135,22.8270,6.0679,-1.3067,-0.8311,
6.676215,-0.8262,-1.4153,0.7577,-5.4176,-4.5601,8.9501,6.0679,-1.3067,-0.8311,
6.677935,-0.8262,-1.4153,0.7577,-5.4176,-4.5601,8.9501,7.1473,-1.3794,-0.4384,
6.686391,-0.8262,-1.4153,0.7577,-5.4176,-4.5601,8.9501,7.2047,-1.6817,0.0870,
6.693913,-1.3819,-0.9472,0.4154,-5.4176,-4.5601,8.9501,7.2047,-1.6817,0.0870,
6.695729,-1.3819,-0.9472,0.4154,-10.8723,0.1532,4.1669,7.2047,-1.6817,0.0870,
6.697771,-1.3819,-0.9472,0.4154,-10.8723,0.1532,4.1669,6.3666,-2.3317,0.6844,
6.713975,-1.3819,-0.9472,0.4154,-10.8723,0.1532,4.1669,5.2995,-3.6738,1.2269,
6.716638,-1.9334,-0.4882,-0.2927,-10.8723,0.1532,4.1669,5.2995,-3.6738,1.2269,
6.719176,-1.9334,-0.4882,-0.2927,-16.0287,4.4969,-4.0927,5.2995,-3.6738,1.2269,
6.720960,-1.9334,-0.4882,-0.2927,-16.0287,4.4969,-4.0927,4.7393,-5.7910,1.6526,
6.726372,-1.9334,-0.4882,-0.2927,-16.0287,4.4969,-4.0927,4.6635,-8.0427,1.8585,
6.734323,-2.3717,-0.2397,-0.5450,-16.0287,4.4969,-4.0927,4.6635,-8.0427,1.8585,
6.737132,-2.3717,-0.2397,-0.5450,-20.2650,6.6535,-7.8440,4.6635,-8.0427,1.8585,
6.739176,-2.3717,-0.2397,-0.5450,-20.2650,6.6535,-7.8440,4.6788,-9.1263,1.9959,
6.746202,-2.3717,-0.2397,-0.5450,-20.2650,6.6535,-7.8440,4.3428,-7.5039,2.2910,
6.754019,-0.2995,-0.4382,-0.3066,-20.2650,6.6535,-7.8440,4.3428,-7.5039,2.2910,
6.756456,-0.2995,-0.4382,-0.3066,0.1475,4.2647,-6.6674,4.3428,-7.5039,2.2910,
6.757682,-0.2995,-0.4382,-0.3066,0.1475,4.2647,-6.6674,2.6379,-0.6146,2.4040,
6.782047,-0.2995,-0.4382,-0.3066,0.1475,4.2647,-6.6674,1.8817,-1.0550,1.7333,
6.784694,1.7980,-1.2935,0.6232,0.1475,4.2647,-6.6674,1.8817,-1.0550,1.7333,
6.787748,1.7980,-1.2935,0.6232,20.9550,-4.3760,2.0881,1.8817,-1.0550,1.7333,
6.790272,1.7980,-1.2935,0.6232,20.9550,-4.3760,2.0881,1.1822,-3.4569,0.6655,
6.792178,1.7980,-1.2935,0.6232,20.9550,-4.3760,2.0881,0.7833,-4.2999,-0.0541,
6.793887,1.3498,-1.4901,1.0172,20.9550,-4.3760,2.0881,0.7833,-4.2999,-0.0541,
6.795759,1.3498,-1.4901,1.0172,16.1041,-6.3344,5.5499,0.7833,-4.2999,-0.0541,
6.797178,1.3498,-1.4901,1.0172,16.1041,-6.3344,5.5499,1.0656,-3.2798,-0.0230,
6.806243,1.3498,-1.4901,1.0172,16.1041,-6.3344,5.5499,1.3411,-1.1991,0.2312,
6.813675,1.0884,-0.3178,0.2729,16.1041,-6.3344,5.5499,1.3411,-1.1991,0.2312,
6.815228,1.0884,-0.3178,0.2729,13.0887,5.1201,-2.0678,1.3411,-1.1991,0.2312,
6.817220,1.0884,-0.3178,0.2729,13.0887,5.1201,-2.0678,1.0985,1.5113,0.2397,
6.826287,1.0884,-0.3178,0.2729,13.0887,5.1201,-2.0678,0.5433,3.9993,-0.0590,
6.834374,0.8291,-0.1779,0.2306,13.0887,5.1201,-2.0678,0.5433,3.9993,-0.0590,
6.836510,0.8291,-0.1779,0.2306,10.4910,6.4959,-2.5034,0.5433,3.9993,-0.0590,
6.838455,0.8291,-0.1779,0.2306,10.4910,6.4959,-2.5034,-0.0285,5.4202,-0.6137,
6.846317,0.8291,-0.1779,0.2306,10.4910,6.4959,-2.5034,-0.4879,5.7458,-1.3528,
6.853890,0.2933,-0.6899,0.1455,10.4910,6.4959,-2.5034,-0.4879,5.7458,-1.3528,
6.856026,0.2933,-0.6899,0.1455,5.2773,1.6423,-3.0214,-0.4879,5.7458,-1.3528,
6.857815,0.2933,-0.6899,0.1455,5.2773,1.6423,-3.0214,-0.8538,5.5790,-2.1286,
6.868717,0.2933,-0.6899,0.1455,5.2773,1.6423,-3.0214,-1.1433,5.2296,-2.8067,
6.874046,-0.3014,-1.0002,0.1597,5.2773,1.6423,-3.0214,-1.1433,5.2296,-2.8067,
6.876327,-0.3014,-1.0002,0.1597,-0.7259,-1.1271,-2.4300,-1.1433,5.2296,-2.8067,
6.878395,-0.3014,-1.0002,0.1597,-0.7259,-1.1271,-2.4300,-1.4579,4.7140,-3.2972,
6.886531,-0.3014,-1.0002,0.1597,-0.7259,-1.1271,-2.4300,-1.7780,4.1777,-3.6210,
6.893986,-0.3101,-0.6554,0.7200,-0.7259,-1.1271,-2.4300,-1.7780,4.1777,-3.6210,
6.895853,-0.3101,-0.6554,0.7200,-1.2124,2.5272,3.4870,-1.7780,4.1777,-3.6210,
6.897595,-0.3101,-0.6554,0.7200,-1.2124,2.5272,3.4870,-2.1372,3.9737,-3.9001,
6.906603,-0.3101,-0.6554,0.7200,-1.2124,2.5272,3.4870,-2.6021,3.9694,-4.2043,
6.913957,-0.3039,-0.6931,1.0219,-1.2124,2.5272,3.4870,-2.6021,3.9694,-4.2043,
6.916323,-0.3039,-0.6931,1.0219,-1.6755,2.4066,6.8760,-2.6021,3.9694,-4.2043,
6.918318,-0.3039,-0.6931,1.0219,-1.6755,2.4066,6.8760,-3.0443,3.6694,-4.3900,
6.926565,-0.3039,-0.6931,1.0219,-1.6755,2.4066,6.8760,-3.3095,2.4190,-4.3222,
6.934994,-0.4301,-1.3150,0.2141,-1.6755,2.4066,6.8760,-3.3095,2.4190,-4.3222,
6.937205,-0.4301,-1.3150,0.2141,-3.5303,-3.4469,-0.4687,-3.3095,2.4190,-4.3222,
6.939232,-0.4301,-1.3150,0.2141,-3.5303,-3.4469,-0.4687,-3.6784,-0.5162,-3.9178,
6.946396,-0.4301,-1.3150,0.2141,-3.5303,-3.4469,-0.4687,-3.8281,-0.2548,-3.8134,
6.954320,-0.2442,-2.0508,-0.1697,-3.5303,-3.4469,-0.4687,-3.8281,-0.2548,-3.8134,
6.957145,-0.2442,-2.0508,-0.1697,-2.4207,-10.4711,-3.5311,-3.8281,-0.2548,-3.8134,
6.959779,-0.2442,-2.0508,-0.1697,-2.4207,-10.4711,-3.5311,-4.0089,1.4728,-3.6546,
6.981332,-0.2442,-2.0508,-0.1697,-2.4207,-10.4711,-3.5311,-3.8165,4.0164,-2.7871,
6.984077,-0.5805,-2.1384,0.1297,-2.4207,-10.4711,-3.5311,-3.8165,4.0164,-2.7871,
6.986706,-0.5805,-2.1384,0.1297,-6.2626,-11.2323,0.1389,-3.8165,4.0164,-2.7871,
6.988932,-0.5805,-2.1384,0.1297,-6.2626,-11.2323,0.1389,-2.7927,6.2412,-1.6393,
6.990958,-0.5805,-2.1384,0.1297,-6.2626,-11.2323,0.1389,-1.5624,7.2198,-0.9796,
6.995117,0.3700,-0.6291,0.1124,-6.2626,-11.2323,0.1389,-1.5624,7.2198,-0.9796,
6.997889,0.3700,-0.6291,0.1124,2.9777,3.5851,0.2745,-1.5624,7.2198,-0.9796,
6.999726,0.3700,-0.6291,0.1124,2.9777,3.5851,0.2745,-0.7188,6.9681,-0.8201,
7.013145,0.3700,-0.6291,0.1124,2.9777,3.5851,0.2745,-0.0621,6.4837,-0.8831,
7.014975,-0.0221,-0.1501,0.1189,2.9777,3.5851,0.2745,-0.0621,6.4837,-0.8831,
7.017273,-0.0221,-0.1501,0.1189,-0.8613,8.2742,0.2807,-0.0621,6.4837,-0.8831,
7.019412,-0.0221,-0.1501,0.1189,-0.8613,8.2742,0.2807,0.4742,6.0787,-0.9246,
7.026380,-0.0221,-0.1501,0.1189,-0.8613,8.2742,0.2807,0.5036,5.7873,-1.0468,
7.036363,-1.0907,-0.2739,-0.2244,-0.8613,8.2742,0.2807,0.5036,5.7873,-1.0468,
7.038428,-1.0907,-0.2739,-0.2244,-11.2125,7.0517,-3.2550,0.5036,5.7873,-1.0468,
7.042237,-1.0907,-0.2739,-0.2244,-11.2125,7.0517,-3.2550,-0.2002,5.5656,-1.3107,
7.046167,-1.0907,-0.2739,-0.2244,-11.2125,7.0517,-3.2550,-0.9460,4.2321,-1.3333,
7.060102,-1.8317,-0.8807,0.0103,-11.2125,7.0517,-3.2550,-0.9460,4.2321,-1.3333,
7.061990,-1.8317,-0.8807,0.0103,-18.3115,1.1183,-0.8939,-0.9460,4.2321,-1.3333,
7.064179,-1.8317,-0.8807,0.0103,-18.3115,1.1183,-0.8939,-1.1220,1.2877,-0.7756,
7.066405,-1.8317,-0.8807,0.0103,-18.3115,1.1183,-0.8939,-0.9662,-1.2633,0.1041,
7.073371,-0.5310,-1.1023,0.0508,-18.3115,1.1183,-0.8939,-0.9662,-1.2633,0.1041,
7.075013,-0.5310,-1.1023,0.0508,-5.3543,-1.0286,-0.2872,-0.9662,-1.2633,0.1041,
7.076140,-0.5310,-1.1023,0.0508,-5.3543,-1.0286,-0.2872,-0.8159,-2.2114,0.8261,
7.091230,-0.5310,-1.1023,0.0508,-5.3543,-1.0286,-0.2872,-0.7463,-2.3732,1.2812,
7.093527,0.6891,-1.2057,-0.5211,-5.3543,-1.0286,-0.2872,-0.7463,-2.3732,1.2812,
7.094726,0.6891,-1.2057,-0.5211,6.8988,-2.0261,-5.6716,-0.7463,-2.3732,1.2812,
7.095990,0.6891,-1.2057,-0.5211,6.8988,-2.0261,-5.6716,-0.8239,-2.1839,1.5934,
7.105960,0.6891,-1.2057,-0.5211,6.8988,-2.0261,-5.6716,-0.9778,-1.5742,1.6251,
7.113411,1.2673,-1.5727,-0.4374,6.8988,-2.0261,-5.6716,-0.9778,-1.5742,1.6251,
7.114476,1.2673,-1.5727,-0.4374,12.8048,-5.6187,-4.6036,-0.9778,-1.5742,1.6251,
7.117335,1.2673,-1.5727,-0.4374,12.8048,-5.6187,-4.6036,-1.1012,-0.6640,0.5836,
7.125964,1.2673,-1.5727,-0.4374,12.8048,-5.6187,-4.6036,-0.8416,0.7953,-0.0443,
7.134100,0.7597,-1.5071,0.0106,12.8048,-5.6187,-4.6036,-0.8416,0.7953,-0.0443,
7.135920,0.7597,-1.5071,0.0106,7.7741,-4.9690,0.0263,-0.8416,0.7953,-0.0443,
7.137296,0.7597,-1.5071,0.0106,7.7741,-4.9690,0.0263,-0.4353,1.1484,-0.5251,
7.145853,0.7597,-1.5071,0.0106,7.7741,-4.9690,0.0263,-0.0529,1.2321,-0.8250,
7.153252,-0.1141,-1.1690,0.2259,7.7741,-4.9690,0.0263,-0.0529,1.2321,-0.8250,
7.154648,-0.1141,-1.1690,0.2259,-0.9850,-1.6505,2.2031,-0.0529,1.2321,-0.8250,
7.155913,-0.1141,-1.1690,0.2259,-0.9850,-1.6505,2.2031,0.2262,1.0409,-0.9509,
7.169894,-0.1141,-1.1690,0.2259,-0.9850,-1.6505,2.2031,0.3533,0.6420,-0.9484,
7.173616,-0.9236,-0.7897,0.1873,-0.9850,-1.6505,2.2031,0.3533,0.6420,-0.9484,
7.176416,-0.9236,-0.7897,0.1873,-9.0829,2.0671,1.7609,0.3533,0.6420,-0.9484,
7.177759,-0.9236,-0.7897,0.1873,-9.0829,2.0671,1.7609,0.2781,-0.0550,-0.8745,
7.186218,-0.9236,-0.7897,0.1873,-9.0829,2.0671,1.7609,0.0393,-1.0110,-0.7951,
7.196072,-1.2024,-0.6787,0.3888,-9.0829,2.0671,1.7609,0.0393,-1.0110,-0.7951,
7.197138,-1.2024,-0.6787,0.3888,-11.8094,3.1545,3.6660,0.0393,-1.0110,-0.7951,
7.201741,-1.2024,-0.6787,0.3888,-11.8094,3.1545,3.6660,-0.1623,-2.0977,-0.6796,
7.211323,-1.2024,-0.6787,0.3888,-11.8094,3.1545,3.6660,-0.1574,-3.3543,-0.3669,
7.213971,-0.8099,-1.0158,-0.0762,-11.8094,3.1545,3.6660,-0.1574,-3.3543,-0.3669,
7.215803,-0.8099,-1.0158,-0.0762,-7.8772,-0.1495,-0.8760,-0.1574,-3.3543,-0.3669,
7.216983,-0.8099,-1.0158,-0.0762,-7.8772,-0.1495,-0.8760,-0.0737,-4.6829,0.1261,
7.226175,-0.8099,-1.0158,-0.0762,-7.8772,-0.1495,-0.8760,-0.1440,-5.7550,0.5183,
7.234319,-0.1655,-1.2192,-0.6089,-7.8772,-0.1495,-0.8760,-0.1440,-5.7550,0.5183,
7.235848,-0.1655,-1.2192,-0.6089,-1.3674,-2.1452,-6.0381,-0.1440,-5.7550,0.5183,
7.236921,-0.1655,-1.2192,-0.6089,-1.3674,-2.1452,-6.0381,-0.3602,-6.2754,0.7388,
7.245853,-0.1655,-1.2192,-0.6089,-1.3674,-2.1452,-6.0381,-0.6479,-5.9755,0.8811,
7.253220,0.2356,-1.2617,-0.3456,-1.3674,-2.1452,-6.0381,-0.6479,-5.9755,0.8811,
7.254498,0.2356,-1.2617,-0.3456,2.7848,-2.5699,-3.3363,-0.6479,-5.9755,0.8811,
7.255701,0.2356,-1.2617,-0.3456,2.7848,-2.5699,-3.3363,-0.8856,-4.8985,0.9868,
7.265855,0.2356,-1.2617,-0.3456,2.7848,-2.5699,-3.3363,-0.9454,-3.2382,1.0076,
7.273265,0.3057,-0.9290,0.2759,2.7848,-2.5699,-3.3363,-0.9454,-3.2382,1.0076,
7.274495,0.3057,-0.9290,0.2759,3.6780,0.6772,2.8915,-0.9454,-3.2382,1.0076,
7.275720,0.3057,-0.9290,0.2759,3.6780,0.6772,2.8915,-0.7695,-1.4087,0.8500,
7.285804,0.3057,-0.9290,0.2759,3.6780,0.6772,2.8915,-0.5282,0.1985,0.5738,
7.293492,-0.3307,-0.8327,0.4642,3.6780,0.6772,2.8915,-0.5282,0.1985,0.5738,
7.294595,-0.3307,-0.8327,0.4642,-2.3937,1.6057,4.8169,-0.5282,0.1985,0.5738,
7.295731,-0.3307,-0.8327,0.4642,-2.3937,1.6057,4.8169,-0.4537,1.1490,0.3668,
7.305758,-0.3307,-0.8327,0.4642,-2.3937,1.6057,4.8169,-0.4097,0.1393,0.5726,
7.313157,-0.6632,-0.6578,0.2926,-2.3937,1.6057,4.8169,-0.4097,0.1393,0.5726,
7.314008,-0.6632,-0.6578,0.2926,-5.4785,3.3027,3.1573,-0.4097,0.1393,0.5726,
7.316271,-0.6632,-0.6578,0.2926,-5.4785,3.3027,3.1573,-0.4237,-1.4911,0.8066,
7.325808,-0.6632,-0.6578,0.2926,-5.4785,3.3027,3.1573,-0.5453,-3.0030,0.9495,
7.334418,-0.4446,-0.6790,-0.0883,-5.4785,3.3027,3.1573,-0.5453,-3.0030,0.9495,
7.336248,-0.4446,-0.6790,-0.0883,-3.0518,3.0604,-0.5792,-0.5453,-3.0030,0.9495,
7.337117,-0.4446,-0.6790,-0.0883,-3.0518,3.0604,-0.5792,-0.6369,-3.8582,1.0864,
7.346036,-0.4446,-0.6790,-0.0883,-3.0518,3.0604,-0.5792,-0.5606,-4.0818,1.2250,
7.353238,-0.2863,-1.0370,-0.1074,-3.0518,3.0604,-0.5792,-0.5606,-4.0818,1.2250,
7.354550,-0.2863,-1.0370,-0.1074,-1.1804,-0.4949,-0.7864,-0.5606,-4.0818,1.2250,
7.355754,-0.2863,-1.0370,-0.1074,-1.1804,-0.4949,-0.7864,-0.3993,-3.7422,1.3154,
7.367638,-0.2863,-1.0370,-0.1074,-1.1804,-0.4949,-0.7864,-0.3352,-3.0739,1.3619,
7.373461,-0.2325,-1.1221,-0.1154,-1.1804,-0.4949,-0.7864,-0.3352,-3.0739,1.3619,
7.374377,-0.2325,-1.1221,-0.1154,-0.3506,-1.3836,-0.9172,-0.3352,-3.0739,1.3619,
7.375761,-0.2325,-1.1221,-0.1154,-0.3506,-1.3836,-0.9172,-0.3987,-2.6371,1.3790,
7.385791,-0.2325,-1.1221,-0.1154,-0.3506,-1.3836,-0.9172,-0.5410,-2.4697,1.3380,
7.393455,-0.1958,-1.0175,0.2823,-0.3506,-1.3836,-0.9172,-0.5410,-2.4697,1.3380,
7.394380,-0.1958,-1.0175,0.2823,0.2895,-0.4188,2.9439,-0.5410,-2.4697,1.3380,
7.395758,-0.1958,-1.0175,0.2823,0.2895,-0.4188,2.9439,-0.6455,-2.4447,1.2684,
7.405874,-0.1958,-1.0175,0.2823,0.2895,-0.4188,2.9439,-0.5942,-2.7691,1.2531,
7.413227,-0.0406,-1.0046,0.1813,0.2895,-0.4188,2.9439,-0.5942,-2.7691,1.2531,
7.414155,-0.0406,-1.0046,0.1813,2.0479,-0.3491,1.9158,-0.5942,-2.7691,1.2531,
7.415963,-0.0406,-1.0046,0.1813,2.0479,-0.3491,1.9158,-0.5545,-3.4777,1.2666,
7.425808,-0.0406,-1.0046,0.1813,2.0479,-0.3491,1.9158,-0.5972,-4.6444,1.2678,
7.434519,0.3033,-1.0329,-0.2927,2.0479,-0.3491,1.9158,-0.5972,-4.6444,1.2678,
7.435839,0.3033,-1.0329,-0.2927,5.5858,-0.6708,-2.8280,-0.5972,-4.6444,1.2678,
7.436882,0.3033,-1.0329,-0.2927,5.5858,-0.6708,-2.8280,-0.6553,-5.7373,1.2238,
7.445851,0.3033,-1.0329,-0.2927,5.5858,-0.6708,-2.8280,-0.7396,-6.0861,1.1371,
7.453276,0.3895,-1.0962,-0.3492,5.5858,-0.6708,-2.8280,-0.7396,-6.0861,1.1371,
7.454379,0.3895,-1.0962,-0.3492,6.5170,-1.3156,-3.5285,-0.7396,-6.0861,1.1371,
7.455784,0.3895,-1.0962,-0.3492,6.5170,-1.3156,-3.5285,-0.8654,-5.6298,1.0314,
7.465868,0.3895,-1.0962,-0.3492,6.5170,-1.3156,-3.5285,-1.0028,-4.5284,0.9385,
7.473424,0.4461,-1.2330,-0.1570,6.5170,-1.3156,-3.5285,-1.0028,-4.5284,0.9385,
7.474530,0.4461,-1.2330,-0.1570,7.0737,-2.6578,-1.7007,-1.0028,-4.5284,0.9385,
7.475786,0.4461,-1.2330,-0.1570,7.0737,-2.6578,-1.7007,-1.0432,-3.1258,0.8738,
7.485972,0.4461,-1.2330,-0.1570,7.0737,-2.6578,-1.7007,-0.9338,-1.7349,0.6123,
7.493885,0.4754,-1.3719,0.0169,7.0737,-2.6578,-1.7007,-0.9338,-1.7349,0.6123,
7.495580,0.4754,-1.3719,0.0169,7.3058,-4.0022,0.0855,-0.9338,-1.7349,0.6123,
7.497342,0.4754,-1.3719,0.0169,7.3058,-4.0022,0.0855,-0.5526,0.5339,0.3839,
7.506576,0.4754,-1.3719,0.0169,7.3058,-4.0022,0.0855,-0.3962,1.1863,0.1010,
7.513823,0.4686,-1.3638,0.2231,7.3058,-4.0022,0.0855,-0.3962,1.1863,0.1010,
7.515519,0.4686,-1.3638,0.2231,7.0875,-3.8819,2.2390,-0.3962,1.1863,0.1010,
7.517910,0.4686,-1.3638,0.2231,7.0875,-3.8819,2.2390,-0.1898,1.3976,-0.2478,
7.526578,0.4686,-1.3638,0.2231,7.0875,-3.8819,2.2390,0.2598,1.3146,-0.5837,
7.534059,0.2983,-1.1938,1.4573,7.0875,-3.8819,2.2390,0.2598,1.3146,-0.5837,
7.536308,0.2983,-1.1938,1.4573,5.1569,-2.1504,14.2654,0.2598,1.3146,-0.5837,
7.538387,0.2983,-1.1938,1.4573,5.1569,-2.1504,14.2654,1.1279,0.9328,-0.7914,
7.546865,0.2983,-1.1938,1.4573,5.1569,-2.1504,14.2654,2.2360,0.3738,-0.8776,
7.553902,-0.1300,-0.9750,1.0695,5.1569,-2.1504,14.2654,2.2360,0.3738,-0.8776,
7.556853,-0.1300,-0.9750,1.0695,0.6691,0.0449,9.9985,2.2360,0.3738,-0.8776,
7.558911,-0.1300,-0.9750,1.0695,0.6691,0.0449,9.9985,3.1920,-0.3262,-0.9161,
7.566731,-0.1300,-0.9750,1.0695,0.6691,0.0449,9.9985,3.8523,-1.1686,-0.8971,
7.573906,-0.4991,-0.7999,0.6033,0.6691,0.0449,9.9985,3.8523,-1.1686,-0.8971,
7.576683,-0.4991,-0.7999,0.6033,-3.2012,1.7284,4.5763,3.8523,-1.1686,-0.8971,
7.578563,-0.4991,-0.7999,0.6033,-3.2012,1.7284,4.5763,4.2592,-1.9921,-0.7896,
7.586856,-0.4991,-0.7999,0.6033,-3.2012,1.7284,4.5763,4.5163,-2.6451,-0.5575,
7.593837,-0.8534,-0.5681,0.5314,-3.2012,1.7284,4.5763,4.5163,-2.6451,-0.5575,
7.595758,-0.8534,-0.5681,0.5314,-6.8578,3.8304,2.8450,4.5163,-2.6451,-0.5575,
7.597508,-0.8534,-0.5681,0.5314,-6.8578,3.8304,2.8450,4.6245,-3.0305,-0.2087,
7.606510,-0.8534,-0.5681,0.5314,-6.8578,3.8304,2.8450,4.5450,-2.9804,0.2202,
7.613860,-0.9291,-0.5545,0.1660,-6.8578,3.8304,2.8450,4.5450,-2.9804,0.2202,
7.615585,-0.9291,-0.5545,0.1660,-7.6578,3.6685,-1.7239,4.5450,-2.9804,0.2202,
7.617580,-0.9291,-0.5545,0.1660,-7.6578,3.6685,-1.7239,4.2903,-2.7196,0.6172,
7.626306,-0.9291,-0.5545,0.1660,-7.6578,3.6685,-1.7239,4.0166,-2.8259,0.8836,
7.635945,-0.8564,-0.6771,-0.6375,-7.6578,3.6685,-1.7239,4.0166,-2.8259,0.8836,
7.638296,-0.8564,-0.6771,-0.6375,-6.8424,2.1433,-10.3341,4.0166,-2.8259,0.8836,
7.640651,-0.8564,-0.6771,-0.6375,-6.8424,2.1433,-10.3341,3.8206,-3.3518,1.0363,
7.646347,-0.8564,-0.6771,-0.6375,-6.8424,2.1433,-10.3341,3.4510,-3.5944,1.2519,
7.666491,-0.3433,-0.8177,-1.0718,-6.8424,2.1433,-10.3341,3.4510,-3.5944,1.2519,
7.670481,-0.3433,-0.8177,-1.0718,-1.7521,0.5026,-15.0915,3.4510,-3.5944,1.2519,
7.673640,-0.3433,-0.8177,-1.0718,-1.7521,0.5026,-15.0915,2.7711,-3.0739,1.3148,
7.675725,-0.3433,-0.8177,-1.0718,-1.7521,0.5026,-15.0915,2.0735,-1.7233,1.0540,
7.677530,0.6623,-0.9322,0.0540,-1.7521,0.5026,-15.0915,2.0735,-1.7233,1.0540,
7.679602,0.6623,-0.9322,0.0540,8.1014,-0.7631,-4.3172,2.0735,-1.7233,1.0540,
7.680993,0.6623,-0.9322,0.0540,8.1014,-0.7631,-4.3172,1.7454,1.0885,-0.1958,
