time,gFx,gFy,gFz,ax,ay,az,wx,wy,wz
2022-01-25 17:21:35.6380,-0.038,-0.44,-0.88,1.75,0.0,0.51,-0.21,-0.08,-0.49
2022-01-25 17:22:03.9880,-0.037,-0.433,-0.799,1.8,0.04,-0.83,-0.03,0.05,-0.4
2022-01-25 17:22:03.9960,-0.039,-0.417,-0.809,1.85,-0.11,-0.89,0.05,0.03,-0.34
2022-01-25 17:22:04.0060,-0.03,-0.442,-0.901,1.79,0.06,0.0,0.03,-0.17,-0.3
2022-01-25 17:22:04.0160,-0.008,-0.513,-0.911,1.79,0.06,0.0,-0.01,-0.35,-0.28
2022-01-25 17:22:04.0260,-0.005,-0.55,-0.872,1.56,0.75,0.24,-0.04,-0.46,-0.28
2022-01-25 17:22:04.0360,-0.02,-0.562,-0.865,1.58,1.32,-0.29,-0.06,-0.56,-0.33
2022-01-25 17:22:04.0460,-0.033,-0.566,-0.874,1.6886840665340423,1.38,-0.21,-0.07,-0.65,-0.43
2022-01-25 17:22:04.0560,-0.045,-0.56,-0.883,1.68,1.38,-0.21,-0.06,-0.71,-0.54
2022-01-25 17:22:04.0660,-0.055,-0.551,-0.879,1.75,1.34,-0.13,-0.02,-0.71,-0.66
2022-01-25 17:22:04.0760,-0.063,-0.527,-0.854,1.83,1.27,-0.16,0.04,-0.67,-0.77
2022-01-25 17:22:04.0870,-0.066,-0.503,-0.835,1.9,0.82,-0.62,0.05,-0.6,-0.85
2022-01-25 17:22:04.0970,-0.051,-0.491,-0.84,1.9,0.82,-0.62,0.02,-0.53,-0.93
2022-01-25 17:22:04.1070,-0.029,-0.473,-0.84,1.74,0.7,-0.59,-0.01,-0.44,-0.97
2022-01-25 17:22:04.1170,-0.012,-0.468,-0.813,1.36,0.49,-0.82,-0.03,-0.3,-0.95
2022-01-25 17:22:04.1270,0.0,-0.465,-0.781,1.36,0.49,-0.82,-0.02,-0.16,-0.91
2022-01-25 17:22:04.1360,0.016,-0.459,-0.768,1.13,0.43,-1.3,0.0,-0.08,-0.87
2022-01-25 17:22:04.1480,0.031,-0.462,-0.771,1.13,0.43,-1.3,0.02,-0.07,-0.82
2022-01-25 17:22:04.1570,0.041,-0.474,-0.764,1.0,0.47,-1.28,0.05,-0.12,-0.79
2022-01-25 17:22:04.1670,0.045,-0.479,-0.766,0.93,0.59,-1.34,0.08,-0.24,-0.75
2022-01-25 17:22:04.1770,0.041,-0.488,-0.772,0.9,0.65,-1.33,0.12,-0.38,-0.72
2022-01-25 17:22:04.1870,0.032,-0.506,-0.776,0.93,0.73,-1.28,0.16,-0.52,-0.69
2022-01-25 17:22:04.1970,0.02,-0.512,-0.771,1.0,0.91,-1.24,0.21,-0.62,-0.67
2022-01-25 17:22:04.2070,0.011,-0.51,-0.773,1.1,0.98,-1.27,0.22,-0.72,-0.68
2022-01-25 17:22:04.2170,0.007,-0.514,-0.792,1.16,0.95,-1.28,0.21,-0.8,-0.7
2022-01-25 17:22:04.2270,-0.008,-0.519,-0.785,1.16,0.97,-1.1,0.19,-0.81,-0.71
2022-01-25 17:22:04.2370,-0.028,-0.526,-0.767,1.25,1.02,-1.12,0.15,-0.74,-0.7
2022-01-25 17:22:04.2470,-0.047,-0.539,-0.766,1.41,1.06,-1.32,0.06,-0.65,-0.73
2022-01-25 17:22:04.2570,-0.06,-0.548,-0.764,1.56,1.2,-1.34,0.06,-0.65,-0.73
2022-01-25 17:22:04.2670,-0.073,-0.553,-0.759,1.67,1.3,-1.36,-0.19,-0.34,-0.84
2022-01-25 17:22:04.2770,-0.084,-0.556,-0.761,1.79,1.38,-1.42,-0.3,-0.19,-0.88
2022-01-25 17:22:04.2870,-0.088,-0.559,-0.775,1.92,1.43,-1.43,-0.37,-0.07,-0.92
2022-01-25 17:22:04.2970,-0.094,-0.548,-0.779,1.99,1.5,-1.32,-0.38,0.02,-0.95
2022-01-25 17:22:04.3070,-0.093,-0.527,-0.783,2.07,1.47,-1.27,-0.34,0.03,-0.96
2022-01-25 17:22:04.3170,-0.085,-0.518,-0.791,2.12,1.3,-1.26,-0.25,-0.02,-0.94
2022-01-25 17:22:04.3270,-0.088,-0.522,-0.797,2.08,1.24,-1.19,-0.17,-0.09,-0.9
2022-01-25 17:22:04.3380,-0.089,-0.532,-0.773,2.12,1.3,-1.14,-0.09,-0.05,-0.88
2022-01-25 17:22:04.3470,-0.081,-0.544,-0.753,2.17,1.41,-1.33,-0.02,-0.04,-0.87
2022-01-25 17:22:04.3570,-0.081,-0.539,-0.783,2.12,1.56,-1.59,0.0,-0.08,-0.87
2022-01-25 17:22:04.3670,-0.082,-0.531,-0.782,2.14,1.54,-1.31,0.01,-0.15,-0.89
2022-01-25 17:22:04.3770,-0.077,-0.528,-0.78,2.18,1.47,-1.29,0.01,-0.15,-0.89
2022-01-25 17:22:04.3870,-0.076,-0.528,-0.777,2.15,1.45,-1.32,0.01,-0.31,-0.88
2022-01-25 17:22:04.3970,-0.074,-0.54,-0.786,2.14,1.46,-1.35,0.01,-0.44,-0.84
2022-01-25 17:22:04.4070,-0.055,-0.566,-0.813,2.13,1.57,-1.29,0.01,-0.57,-0.79
2022-01-25 17:22:04.4170,-0.031,-0.588,-0.849,1.95,1.83,-1.05,0.01,-0.69,-0.77
2022-01-25 17:22:04.4280,-0.009,-0.586,-0.894,1.69,2.08,-0.71,-0.0,-0.81,-0.82
2022-01-25 17:22:04.4380,0.01,-0.567,-0.935,1.44,2.09,-0.29,-0.02,-0.85,-0.93
2022-01-25 17:22:04.4480,0.018,-0.545,-0.956,1.19,1.93,0.12,-0.02,-0.85,-0.93
2022-01-25 17:22:04.4570,0.007,-0.533,-0.971,1.05,1.73,0.33,-0.15,-0.59,-1.09
2022-01-25 17:22:04.4670,-0.003,-0.535,-0.983,1.12,1.61,0.47,-0.24,-0.29,-1.04
2022-01-25 17:22:04.4780,0.01,-0.538,-1.016,1.23,1.66,0.57,-0.3,0.06,-0.94
2022-01-25 17:22:04.4880,0.06,-0.55,-1.071,0.78,1.87,1.35,-0.3,0.35,-0.81
2022-01-25 17:22:04.4980,0.146,-0.588,-1.145,0.78,1.87,1.35,-0.27,0.52,-0.65
2022-01-25 17:22:04.5080,0.224,-0.631,-1.218,0.01,2.24,2.04,-0.23,0.53,-0.49
2022-01-25 17:22:04.5180,0.26,-0.63,-1.296,-1.06,2.8,3.53,-0.19,0.33,-0.33
2022-01-25 17:22:04.5280,0.283,-0.58,-1.376,-1.06,2.8,3.53,-0.17,0.02,-0.28
2022-01-25 17:22:04.5380,0.296,-0.51,-1.429,-1.26,2.38,4.32,-0.12,-0.32,-0.36
2022-01-25 17:22:04.5480,0.259,-0.435,-1.446,-1.42,1.73,4.88,-0.03,-0.58,-0.52
2022-01-25 17:22:04.5580,0.191,-0.355,-1.438,-1.14,1.01,5.07,0.08,-0.72,-0.69
2022-01-25 17:22:04.5680,0.124,-0.281,-1.404,-0.53,0.24,5.01,0.2,-0.68,-0.81
2022-01-25 17:22:04.5790,0.076,-0.225,-1.331,0.09,-0.51,4.71,0.32,-0.42,-0.83
2022-01-25 17:22:04.5880,0.058,-0.19,-1.248,0.58,-1.09,4.03,0.42,-0.04,-0.72
2022-01-25 17:22:04.5980,0.061,-0.188,-1.189,0.78,-1.48,3.22,0.49,0.33,-0.55
2022-01-25 17:22:04.6080,0.075,-0.2,-1.142,0.81,-1.56,2.62,0.55,0.64,-0.41
2022-01-25 17:22:04.6180,0.079,-0.209,-1.074,0.73,-1.49,2.2,0.56,0.83,-0.28
2022-01-25 17:22:04.6280,0.08,-0.216,-1.023,0.75,-1.44,1.56,0.53,0.93,-0.18
2022-01-25 17:22:04.6380,0.094,-0.249,-0.959,0.85,-1.42,1.1,0.48,0.91,-0.21
2022-01-25 17:22:04.6480,0.143,-0.263,-0.952,0.82,-1.17,0.47,0.44,0.7,-0.39
2022-01-25 17:22:04.6580,0.162,-0.255,-0.943,0.46,-1.02,0.38,0.41,0.37,-0.6
2022-01-25 17:22:04.6680,0.141,-0.256,-0.915,0.25,-1.13,0.35,0.38,0.06,-0.82
2022-01-25 17:22:04.6780,0.142,-0.25,-0.871,0.51,-1.15,0.11,0.33,-0.19,-1.0
2022-01-25 17:22:04.6880,0.139,-0.253,-0.832,0.55,-1.21,-0.3,0.25,-0.34,-1.11
2022-01-25 17:22:04.6980,0.136,-0.271,-0.789,0.58,-1.21,-0.68,0.16,-0.41,-1.14
2022-01-25 17:22:04.7080,0.135,-0.286,-0.759,0.63,-1.03,-1.1,0.06,-0.39,-1.11
2022-01-25 17:22:04.7190,0.127,-0.301,-0.741,0.64,-0.87,-1.41,-0.04,-0.36,-1.03
2022-01-25 17:22:04.7280,0.115,-0.32,-0.737,0.71,-0.7,-1.62,-0.11,-0.33,-0.93
2022-01-25 17:22:04.7380,0.102,-0.335,-0.74,0.83,-0.49,-1.68,-0.14,-0.33,-0.87
2022-01-25 17:22:04.7480,0.099,-0.343,-0.733,0.96,-0.3,-1.67,-0.14,-0.3,-0.87
2022-01-25 17:22:04.7580,0.105,-0.347,-0.71,1.02,-0.19,-1.72,-0.1,-0.26,-0.94
2022-01-25 17:22:04.7690,0.117,-0.35,-0.708,0.97,-0.11,-1.96,-0.06,-0.28,-1.04
2022-01-25 17:22:04.7780,0.134,-0.352,-0.708,0.87,-0.07,-2.02,-0.02,-0.32,-1.13
2022-01-25 17:22:04.7890,0.137,-0.337,-0.698,0.71,-0.01,-2.01,0.01,-0.4,-1.21
2022-01-25 17:22:04.7980,0.141,-0.314,-0.701,0.68,-0.11,-2.12,0.03,-0.5,-1.27
2022-01-25 17:22:04.8090,0.145,-0.297,-0.705,0.65,-0.31,-2.1,0.04,-0.62,-1.3
2022-01-25 17:22:04.8190,0.146,-0.29,-0.707,0.6,-0.45,-2.08,0.08,-0.69,-1.3
2022-01-25 17:22:04.8290,0.146,-0.282,-0.693,0.57,-0.51,-2.06,0.15,-0.66,-1.26
2022-01-25 17:22:04.8390,0.153,-0.283,-0.665,0.55,-0.57,-2.19,0.24,-0.5,-1.2
2022-01-25 17:22:04.8490,0.166,-0.302,-0.646,0.48,-0.58,-2.46,0.31,-0.32,-1.11
2022-01-25 17:22:04.8590,0.174,-0.314,-0.636,0.35,-0.4,-2.67,0.34,-0.15,-1.05
2022-01-25 17:22:04.8690,0.177,-0.33,-0.627,0.28,-0.28,-2.76,0.32,-0.02,-1.02
2022-01-25 17:22:04.8790,0.183,-0.359,-0.626,0.28,-0.14,-2.85,0.26,0.08,-1.02
2022-01-25 17:22:04.8890,0.203,-0.391,-0.612,0.26,0.13,-2.85,0.2,0.19,-1.06
2022-01-25 17:22:04.8990,0.239,-0.437,-0.586,0.13,0.44,-2.95,0.13,0.32,-1.11
2022-01-25 17:22:04.9090,0.278,-0.509,-0.571,-0.15,0.88,-3.2,0.05,0.45,-1.11
2022-01-25 17:22:04.9190,0.32,-0.575,-0.566,-0.46,1.57,-3.35,-0.0,0.5,-1.08
2022-01-25 17:22:04.9290,0.353,-0.597,-0.599,-0.79,2.27,-3.4,-0.05,0.34,-1.05
2022-01-25 17:22:04.9390,0.382,-0.595,-0.661,-1.06,2.58,-3.13,-0.1,0.03,-1.02
2022-01-25 17:22:04.9490,0.413,-0.609,-0.715,-1.28,2.59,-2.53,-0.11,-0.36,-0.94
2022-01-25 17:22:04.9590,0.436,-0.64,-0.758,-1.57,2.73,-1.99,-0.08,-0.71,-0.82
2022-01-25 17:22:04.9690,0.448,-0.682,-0.781,-1.82,3.06,-1.58,0.03,-0.92,-0.68
2022-01-25 17:22:04.9790,0.443,-0.705,-0.798,-2.0,3.48,-1.34,0.15,-1.08,-0.54
2022-01-25 17:22:04.9890,0.421,-0.7,-0.844,-2.04,3.77,-1.21,0.23,-1.31,-0.43
2022-01-25 17:22:04.9990,0.392,-0.675,-0.921,-1.93,3.74,-0.82,0.25,-1.66,-0.4
2022-01-25 17:22:05.0100,0.374,-0.648,-0.997,-1.77,3.51,-0.12,0.24,-2.03,-0.42
2022-01-25 17:22:05.0190,0.373,-0.642,-1.042,-1.88,3.12,1.06,0.21,-2.28,-0.51
2022-01-25 17:22:05.0300,0.364,-0.62,-1.079,-1.88,3.12,1.06,0.2,-2.29,-0.65
2022-01-25 17:22:05.0390,0.313,-0.555,-1.073,-2.01,2.94,1.41,0.2,-1.94,-0.7
2022-01-25 17:22:05.0490,0.237,-0.485,-1.054,-1.74,2.34,1.38,0.19,-1.26,-0.59
2022-01-25 17:22:05.0600,0.187,-0.445,-1.078,-1.14,1.63,1.17,0.12,-0.53,-0.28
2022-01-25 17:22:05.0690,0.164,-0.455,-1.161,-0.68,1.18,1.31,0.03,0.11,0.2
2022-01-25 17:22:05.0800,0.171,-0.496,-1.2,-0.44,1.21,2.1,0.02,0.7,0.73
2022-01-25 17:22:05.0890,0.159,-0.507,-1.224,-0.47,1.61,2.55,0.11,1.18,1.16
2022-01-25 17:22:05.1000,0.153,-0.506,-1.28,-0.34,1.73,2.78,0.22,1.37,1.29
2022-01-25 17:22:05.1090,0.175,-0.503,-1.387,-0.29,1.62,4.33,0.27,1.13,1.12
2022-01-25 17:22:05.1200,0.179,-0.535,-1.499,-0.29,1.62,4.33,0.3,0.56,0.76
2022-01-25 17:22:05.1300,0.122,-0.503,-1.578,-0.33,1.88,5.47,0.34,-0.12,0.29
2022-01-25 17:22:05.1390,0.057,-0.413,-1.59,0.79,0.75,6.53,0.41,-0.63,-0.18
2022-01-25 17:22:05.1500,0.003,-0.325,-1.549,0.79,0.75,6.53,0.41,-0.63,-0.18
2022-01-25 17:22:05.1600,-0.046,-0.223,-1.485,1.28,-0.14,6.18,0.5,-0.81,-0.75
2022-01-25 17:22:05.1700,-0.095,-0.11,-1.401,1.71,-1.16,5.57,0.49,-0.51,-0.81
2022-01-25 17:22:05.1800,-0.15,-0.005,-1.299,2.15,-2.29,4.78,0.46,-0.02,-0.71
2022-01-25 17:22:05.1900,-0.167,0.047,-1.195,2.69,-3.39,3.82,0.39,0.5,-0.46
2022-01-25 17:22:05.2000,-0.15,0.034,-1.132,2.96,-4.01,2.79,0.3,0.83,-0.15
2022-01-25 17:22:05.2100,-0.119,-0.027,-1.074,2.89,-3.98,2.14,0.22,0.91,0.13
2022-01-25 17:22:05.2200,-0.073,-0.129,-1.02,2.68,-3.46,1.61,0.19,0.75,0.34
2022-01-25 17:22:05.2300,-0.032,-0.231,-0.977,2.31,-2.52,1.07,0.2,0.41,0.42
2022-01-25 17:22:05.2400,-0.012,-0.294,-0.936,1.94,-1.51,0.67,0.25,0.0,0.34
2022-01-25 17:22:05.2500,-0.003,-0.34,-0.888,1.72,-0.87,0.27,0.32,-0.29,0.13
2022-01-25 17:22:05.2600,0.003,-0.366,-0.809,1.61,-0.43,-0.16,0.36,-0.41,-0.16
2022-01-25 17:22:05.2700,0.01,-0.367,-0.73,1.51,-0.17,-0.91,0.33,-0.37,-0.47
2022-01-25 17:22:05.2800,0.03,-0.354,-0.646,1.42,-0.17,-1.67,0.2,-0.2,-0.77
2022-01-25 17:22:05.2900,0.065,-0.332,-0.583,0.9421561570465565,-0.4905448481440544,-3.14,-0.0,0.01,-1.02
2022-01-25 17:22:05.3000,0.112,-0.312,-0.539,0.94,-0.5,-3.14,-0.24,0.2,-1.2
2022-01-25 17:22:05.3100,0.171,-0.294,-0.519,0.54,-0.68,-3.59,-0.24,0.2,-1.2
2022-01-25 17:22:05.3210,0.229,-0.288,-0.529,0.04,-0.81,-3.84,-0.64,0.27,-1.31
2022-01-25 17:22:05.3300,0.269,-0.277,-0.548,-0.47,-0.81,-3.78,-0.73,0.13,-1.26
2022-01-25 17:22:05.3400,0.299,-0.257,-0.571,-0.81,-0.82,-3.62,-0.73,-0.08,-1.19
2022-01-25 17:22:05.3500,0.313,-0.238,-0.599,-1.08,-0.92,-3.43,-0.67,-0.31,-1.11
2022-01-25 17:22:05.3610,0.313,-0.226,-0.619,-1.21,-1.02,-3.18,-0.54,-0.52,-1.03
2022-01-25 17:22:05.3700,0.284,-0.209,-0.625,-1.23,-1.06,-3.0,-0.38,-0.67,-0.92
2022-01-25 17:22:05.3800,0.242,-0.191,-0.615,-1.0,-1.16,-2.95,-0.16,-0.67,-0.78
2022-01-25 17:22:05.3900,0.197,-0.176,-0.594,-0.22,-1.43,-3.28,0.08,-0.55,-0.6
2022-01-25 17:22:05.4010,0.158,-0.179,-0.584,-0.22,-1.43,-3.28,0.32,-0.3,-0.39
2022-01-25 17:22:05.4110,0.142,-0.2,-0.568,0.16,-1.43,-3.37,0.51,-0.02,-0.16
2022-01-25 17:22:05.4210,0.145,-0.229,-0.572,0.33,-1.27,-3.53,0.58,0.16,0.03
2022-01-25 17:22:05.4320,0.149,-0.264,-0.581,0.3,-0.76,-3.38,0.57,0.26,0.19
2022-01-25 17:22:05.4420,0.15,-0.317,-0.578,0.29,-0.31,-3.39,0.57,0.26,0.19
2022-01-25 17:22:05.4510,0.134,-0.36,-0.609,0.29,-0.31,-3.39,0.5,0.26,0.4
2022-01-25 17:22:05.4610,0.118,-0.414,-0.64,0.45,0.07,-3.11,0.52,0.21,0.43
2022-01-25 17:22:05.4700,0.118,-0.478,-0.665,0.63,0.52,-2.75,0.58,0.16,0.4
2022-01-25 17:22:05.4810,0.126,-0.534,-0.697,0.65,1.1,-2.5,0.63,0.1,0.33
2022-01-25 17:22:05.4910,0.122,-0.588,-0.746,0.56,1.6,-2.17,0.64,-0.0,0.26
2022-01-25 17:22:05.5010,0.104,-0.627,-0.825,0.57,2.07,-1.7,0.61,-0.18,0.17
2022-01-25 17:22:05.5110,0.095,-0.648,-0.909,0.74,2.42,-0.94,0.59,-0.33,0.06
2022-01-25 17:22:05.5210,0.091,-0.649,-0.978,0.81,2.58,-0.07,0.6,-0.43,-0.04
2022-01-25 17:22:05.5310,0.085,-0.641,-1.071,0.82,2.58,0.62,0.63,-0.48,-0.04
2022-01-25 17:22:05.5410,0.094,-0.671,-1.154,0.84,2.42,1.52,0.66,-0.53,0.05
2022-01-25 17:22:05.5510,0.121,-0.712,-1.229,0.74,2.62,2.37,0.69,-0.56,0.19
2022-01-25 17:22:05.5610,0.133,-0.74,-1.285,0.43,2.98,3.13,0.69,-0.56,0.19
2022-01-25 17:22:05.5720,0.132,-0.752,-1.296,0.22,3.2,3.74,0.7,-0.4,0.37
2022-01-25 17:22:05.5810,0.148,-0.761,-1.283,0.17,3.27,3.92,0.65,-0.16,0.38
2022-01-25 17:22:05.5910,0.181,-0.784,-1.273,0.0,3.28,3.83,0.59,0.17,0.38
2022-01-25 17:22:05.6010,0.221,-0.822,-1.254,-0.69,3.72,3.61,0.56,0.58,0.45
2022-01-25 17:22:05.6120,0.277,-0.899,-1.228,-0.69,3.72,3.61,0.56,0.96,0.65
2022-01-25 17:22:05.6220,0.32,-0.992,-1.2,-1.2,4.38,3.39,0.62,1.19,0.94
2022-01-25 17:22:05.6310,0.339,-1.05,-1.195,-1.59,5.23,3.16,0.71,1.14,1.15
2022-01-25 17:22:05.6410,0.345,-1.0,-1.249,-1.75,5.81,3.1,0.76,0.72,1.08
2022-01-25 17:22:05.6520,0.365,-0.895,-1.317,-1.76,5.39,3.61,0.77,0.13,0.81
2022-01-25 17:22:05.6610,0.344,-0.769,-1.313,-1.96,4.28,4.35,0.79,-0.33,0.49
2022-01-25 17:22:05.6720,0.256,-0.583,-1.218,-1.88,3.04,4.47,0.84,-0.46,0.22
2022-01-25 17:22:05.6810,0.189,-0.404,-1.106,-1.12,1.19,3.65,0.88,-0.33,0.03
2022-01-25 17:22:05.6920,0.174,-0.272,-1.004,-0.43,-0.69,2.57,0.84,-0.06,-0.04
2022-01-25 17:22:05.7020,0.188,-0.195,-0.913,-0.26,-2.12,1.6,0.7,0.23,-0.03
2022-01-25 17:22:05.7110,0.209,-0.143,-0.84,-0.36,-3.0,0.73,0.48,0.47,0.03
2022-01-25 17:22:05.7220,0.236,-0.125,-0.784,-0.54,-3.58,0.03,0.24,0.59,0.12
2022-01-25 17:22:05.7320,0.263,-0.16,-0.748,-0.76,-3.85,-0.52,0.04,0.55,0.23
2022-01-25 17:22:05.7410,0.274,-0.211,-0.732,-1.09,-3.08,-1.04,-0.09,0.36,0.32
2022-01-25 17:22:05.7520,0.263,-0.25,-0.719,-1.09,-3.08,-1.04,-0.16,0.07,0.35
2022-01-25 17:22:05.7620,0.242,-0.271,-0.708,-1.01,-2.66,-1.18,-0.2,-0.25,0.3
2022-01-25 17:22:05.7720,0.214,-0.287,-0.706,-0.84,-2.43,-1.3,-0.2,-0.25,0.3
2022-01-25 17:22:05.7820,0.189,-0.309,-0.685,-0.62,-2.25,-1.35,-0.34,-0.65,0.08
2022-01-25 17:22:05.7920,0.174,-0.329,-0.635,-0.41,-2.03,-1.53,-0.47,-0.58,-0.03
2022-01-25 17:22:05.8020,0.165,-0.348,-0.6,-0.31,-1.78,-2.05,-0.64,-0.4,-0.12
2022-01-25 17:22:05.8120,0.168,-0.375,-0.57,-0.25,-1.56,-2.44,-0.85,-0.13,-0.19
2022-01-25 17:22:05.8220,0.174,-0.396,-0.549,-0.29,-1.24,-2.78,-1.05,0.2,-0.24
2022-01-25 17:22:05.8320,0.178,-0.406,-0.549,-0.33,-0.93,-3.05,-1.24,0.5,-0.26
2022-01-25 17:22:05.8420,0.177,-0.411,-0.574,-0.35,-0.72,-3.13,-1.35,0.68,-0.24
2022-01-25 17:22:05.8530,0.171,-0.409,-0.615,-0.27,-0.56,-2.97,-1.35,0.72,-0.2
2022-01-25 17:22:05.8620,0.175,-0.401,-0.665,-0.15,-0.45,-2.63,-1.21,0.58,-0.15
2022-01-25 17:22:05.8720,0.177,-0.383,-0.705,-0.11,-0.4,-2.19,-0.94,0.34,-0.08
2022-01-25 17:22:05.8820,0.164,-0.359,-0.707,-0.1,-0.46,-1.81,-0.59,0.1,0.02
2022-01-25 17:22:05.8920,0.151,-0.333,-0.682,0.04,-0.63,-1.77,-0.24,-0.1,0.11
2022-01-25 17:22:05.9020,0.136,-0.31,-0.653,0.17,-0.84,-2.01,0.05,-0.23,0.18
2022-01-25 17:22:05.9120,0.111,-0.287,-0.611,0.29,-1.06,-2.31,0.27,-0.27,0.22
2022-01-25 17:22:05.9220,0.089,-0.271,-0.566,0.49,-1.3,-2.69,0.39,-0.25,0.23
2022-01-25 17:22:05.9320,0.094,-0.269,-0.532,0.7,-1.5,-3.15,0.39,-0.25,0.23
2022-01-25 17:22:05.9420,0.123,-0.277,-0.505,0.67,-1.58,-3.47,0.43,-0.15,0.2
2022-01-25 17:22:05.9530,0.133,-0.285,-0.49,0.36,-1.54,-3.74,0.33,0.13,0.22
2022-01-25 17:22:05.9630,0.132,-0.285,-0.478,0.23,-1.49,-3.87,0.26,0.29,0.25
2022-01-25 17:22:05.9720,0.134,-0.296,-0.477,0.24,-1.52,-3.98,0.2,0.44,0.29
2022-01-25 17:22:05.9820,0.151,-0.321,-0.486,0.26,-1.45,-3.99,0.15,0.56,0.33
2022-01-25 17:22:05.9930,0.172,-0.366,-0.504,0.14,-1.25,-3.9,0.12,0.62,0.38
2022-01-25 17:22:06.0030,0.187,-0.402,-0.535,-0.04,-0.84,-3.72,0.09,0.55,0.36
2022-01-25 17:22:06.0130,0.211,-0.406,-0.606,-0.16,-0.48,-3.44,0.07,0.43,0.26
2022-01-25 17:22:06.0230,0.279,-0.518,-0.666,-0.3,-0.42,-2.71,-0.02,0.16,0.28
2022-01-25 17:22:06.0330,0.294,-0.62,-0.792,-0.98,0.46,-2.22,-0.13,-0.1,0.3
2022-01-25 17:22:06.0430,0.304,-0.589,-0.864,-1.18,1.67,-0.95,-0.2,-0.24,0.32
2022-01-25 17:22:06.0530,0.317,-0.635,-0.923,-1.3,1.39,-0.22,-0.22,-0.27,0.38
2022-01-25 17:22:06.0630,0.328,-0.667,-0.987,-1.46,1.78,0.34,-0.25,-0.23,0.46
2022-01-25 17:22:06.0730,0.327,-0.702,-1.029,-1.66,2.47,1.39,-0.28,-0.11,0.55
2022-01-25 17:22:06.0840,0.324,-0.772,-1.072,-1.66,2.47,1.39,-0.34,0.05,0.65
2022-01-25 17:22:06.0930,0.325,-0.845,-1.132,-1.66,3.16,1.77,-0.34,0.05,0.65
2022-01-25 17:22:06.1030,0.329,-0.929,-1.181,-1.68,3.89,2.34,-0.38,0.52,0.78
2022-01-25 17:22:06.1130,0.336,-1.01,-1.25,-1.71,4.73,2.82,-0.31,0.69,0.86
2022-01-25 17:22:06.1230,0.32,-1.08,-1.324,-1.77,5.55,3.46,-0.14,0.66,0.97
2022-01-25 17:22:06.1330,0.254,-1.039,-1.391,-1.64,6.3,4.19,0.07,0.31,0.97
2022-01-25 17:22:06.1430,0.191,-0.879,-1.512,-1.04,6.06,4.84,0.11,-0.38,0.75
2022-01-25 17:22:06.1530,0.187,-0.789,-1.624,-0.41,4.55,5.96,-0.03,-0.98,0.5
2022-01-25 17:22:06.1630,0.159,-0.821,-1.641,-0.39,3.46,7.13,-0.15,-1.05,0.44
2022-01-25 17:22:06.1730,0.038,-0.732,-1.613,-0.33,3.74,7.41,-0.09,-0.66,0.41
2022-01-25 17:22:06.1830,-0.073,-0.526,-1.579,0.69,3.1,7.11,0.22,-0.0,0.24
2022-01-25 17:22:06.1930,-0.131,-0.327,-1.565,1.78,1.13,6.78,0.22,-0.0,0.24
2022-01-25 17:22:06.2030,-0.142,-0.176,-1.546,2.43,-0.89,6.62,0.9,0.96,-0.32
2022-01-25 17:22:06.2130,-0.132,-0.087,-1.448,2.65,-2.51,6.53,1.09,1.15,-0.41
2022-01-25 17:22:06.2230,-0.134,-0.045,-1.307,2.67,-3.53,5.73,1.19,1.17,-0.3
2022-01-25 17:22:06.2330,-0.156,-0.02,-1.178,2.78,-4.07,4.43,1.26,0.95,-0.08
2022-01-25 17:22:06.2440,-0.173,-0.038,-1.068,3.09,-4.44,3.2,1.28,0.53,0.14
2022-01-25 17:22:06.2530,-0.181,-0.092,-0.964,3.34,-4.43,2.18,1.23,0.03,0.29
2022-01-25 17:22:06.2630,-0.176,-0.161,-0.866,3.44,-4.04,1.22,1.1,-0.41,0.29
2022-01-25 17:22:06.2730,-0.155,-0.226,-0.761,3.39,-3.48,0.31,0.89,-0.66,0.15
2022-01-25 17:22:06.2830,-0.13,-0.285,-0.669,3.14,-2.92,-0.67,0.63,-0.67,-0.06
2022-01-25 17:22:06.2940,-0.093,-0.342,-0.596,2.84,-2.39,-1.57,0.33,-0.52,-0.3
2022-01-25 17:22:06.3040,-0.038,-0.394,-0.551,2.45,-1.88,-2.3,0.0,-0.27,-0.52
2022-01-25 17:22:06.3130,0.022,-0.449,-0.54,1.91,-1.37,-2.78,-0.3,-0.05,-0.68
2022-01-25 17:22:06.3230,0.077,-0.494,-0.554,1.34,-0.82,-2.93,-0.52,0.07,-0.76
2022-01-25 17:22:06.3330,0.13,-0.512,-0.579,0.83,-0.31,-2.84,-0.6,0.06,-0.8
2022-01-25 17:22:06.3440,0.178,-0.516,-0.606,0.36,-0.04,-2.62,-0.56,-0.07,-0.85
2022-01-25 17:22:06.3540,0.208,-0.511,-0.624,-0.08,0.07,-2.39,-0.42,-0.25,-0.87
2022-01-25 17:22:06.3640,0.218,-0.488,-0.623,-0.37,0.1,-2.22,-0.26,-0.43,-0.92
2022-01-25 17:22:06.3730,0.225,-0.448,-0.609,-0.47,-0.05,-2.23,-0.11,-0.56,-0.99
2022-01-25 17:22:06.3840,0.225,-0.405,-0.584,-0.53,-0.4,-2.38,-0.0,-0.63,-1.05
2022-01-25 17:22:06.3940,0.222,-0.36,-0.556,-0.55,-0.8,-2.62,0.07,-0.63,-1.07
2022-01-25 17:22:06.4040,0.214,-0.31,-0.528,-0.53,-1.22,-2.91,0.13,-0.57,-1.03
2022-01-25 17:22:06.4140,0.201,-0.261,-0.494,-0.45,-1.69,-3.19,0.18,-0.43,-0.93
2022-01-25 17:22:06.4240,0.181,-0.223,-0.475,-0.33,-2.17,-3.52,0.22,-0.26,-0.76
2022-01-25 17:22:06.4340,0.155,-0.208,-0.457,-0.14,-2.57,-3.73,0.28,-0.05,-0.56
2022-01-25 17:22:06.4440,0.151,-0.212,-0.429,0.15,-2.75,-3.88,0.34,0.15,-0.36
2022-01-25 17:22:06.4540,0.169,-0.237,-0.414,0.24,-2.75,-4.14,0.39,0.28,-0.21
2022-01-25 17:22:06.4640,0.186,-0.291,-0.41,0.12,-2.56,-4.28,0.41,0.29,-0.06
2022-01-25 17:22:06.4740,0.189,-0.349,-0.414,-0.04,-2.09,-4.31,0.41,0.29,-0.06
2022-01-25 17:22:06.4840,0.185,-0.404,-0.42,-0.06,-1.54,-4.26,0.42,0.03,0.19
2022-01-25 17:22:06.4940,0.158,-0.448,-0.452,-0.03,-1.04,-4.18,0.41,-0.23,0.26
2022-01-25 17:22:06.5050,0.132,-0.496,-0.503,0.2,-0.63,-3.91,0.42,-0.47,0.28
2022-01-25 17:22:06.5140,0.11,-0.565,-0.537,0.43,-0.22,-3.36,0.42,-0.66,0.24
2022-01-25 17:22:06.5240,0.084,-0.628,-0.593,0.58,0.4,-3.03,0.35,-0.8,0.15
2022-01-25 17:22:06.5340,0.078,-0.691,-0.658,0.77,1.01,-2.5,0.2,-0.86,0.04
2022-01-25 17:22:06.5440,0.076,-0.755,-0.718,0.78,1.59,-1.86,-0.01,-0.75,-0.02
2022-01-25 17:22:06.5540,0.057,-0.798,-0.776,0.83,2.68,-0.74,-0.21,-0.51,0.01
2022-01-25 17:22:06.5650,0.029,-0.828,-0.876,0.83,2.68,-0.74,-0.34,-0.26,0.12
2022-01-25 17:22:06.5740,0.021,-0.837,-0.993,1.07,3.0,0.17,-0.3,-0.06,0.18
2022-01-25 17:22:06.5840,0.041,-0.825,-1.099,0.99,3.07,2.35,-0.16,0.07,0.1
2022-01-25 17:22:06.5950,0.078,-0.816,-1.168,0.99,3.07,2.35,-0.06,0.18,-0.08
2022-01-25 17:22:06.6040,0.126,-0.807,-1.186,0.65,2.98,3.08,-0.14,0.28,-0.25
2022-01-25 17:22:06.6150,0.193,-0.823,-1.186,0.22,2.9,3.31,-0.39,0.44,-0.31
2022-01-25 17:22:06.6250,0.287,-0.876,-1.186,-0.36,3.04,3.31,-0.62,0.73,-0.11
2022-01-25 17:22:06.6350,0.366,-0.954,-1.193,-1.9507257203757764,4.36,3.3,-0.68,1.09,0.36
2022-01-25 17:22:06.6450,0.42,-1.013,-1.273,-1.96,4.36,3.3,-0.53,1.22,0.9
2022-01-25 17:22:06.6550,0.428,-0.998,-1.429,-2.44,5.04,3.97,-0.53,1.22,0.9
2022-01-25 17:22:06.6650,0.419,-0.917,-1.582,-2.55,5.02,5.42,-0.06,0.13,1.21
2022-01-25 17:22:06.6750,0.388,-0.852,-1.68,-2.29,3.57,8.0,0.12,-0.63,1.04
2022-01-25 17:22:06.6850,0.293,-0.788,-1.664,-2.29,3.57,8.0,0.35,-0.93,0.84
2022-01-25 17:22:06.6950,0.2,-0.679,-1.541,-1.53,2.95,8.05,0.59,-0.74,0.68
2022-01-25 17:22:06.7050,0.128,-0.571,-1.417,-0.7,1.89,6.9,0.77,-0.33,0.6
2022-01-25 17:22:06.7150,0.092,-0.505,-1.288,0.31,-0.04,4.47,0.87,0.05,0.6
2022-01-25 17:22:06.7250,0.095,-0.458,-1.178,0.31,-0.04,4.47,0.89,0.2,0.62
2022-01-25 17:22:06.7350,0.118,-0.421,-1.083,0.3,-0.6,3.41,0.88,0.12,0.61
2022-01-25 17:22:06.7450,0.13,-0.383,-0.979,0.07,-1.05,2.51,0.86,-0.09,0.56
2022-01-25 17:22:06.7550,0.131,-0.359,-0.867,-0.1,-1.51,1.56,0.86,-0.09,0.56
2022-01-25 17:22:06.7650,0.132,-0.329,-0.769,-0.17,-1.82,0.5,0.71,-0.6,0.29
2022-01-25 17:22:06.7750,0.139,-0.293,-0.677,-0.22,-2.17,-0.44,0.53,-0.73,0.03
2022-01-25 17:22:06.7850,0.149,-0.267,-0.595,-0.36,-2.58,-1.33,0.29,-0.72,-0.26
2022-01-25 17:22:06.7950,0.165,-0.241,-0.52,-0.51,-2.87,-2.12,-0.01,-0.59,-0.5
2022-01-25 17:22:06.8050,0.193,-0.222,-0.477,-0.68,-3.14,-2.88,-0.35,-0.43,-0.65
2022-01-25 17:22:06.8150,0.23,-0.218,-0.47,-0.95,-3.33,-3.36,-0.68,-0.28,-0.67
2022-01-25 17:22:06.8250,0.263,-0.218,-0.48,-1.31,-3.33,-3.49,-0.97,-0.2,-0.59
2022-01-25 17:22:06.8360,0.28,-0.224,-0.511,-1.63,-3.27,-3.46,-1.18,-0.24,-0.42
2022-01-25 17:22:06.8460,0.281,-0.246,-0.56,-1.8,-3.13,-3.24,-1.3,-0.35,-0.18
2022-01-25 17:22:06.8550,0.274,-0.274,-0.604,-1.83,-2.82,-2.83,-1.3,-0.35,-0.18
2022-01-25 17:22:06.8650,0.258,-0.298,-0.633,-1.8,-2.44,-2.47,-1.16,-0.55,0.2
2022-01-25 17:22:06.8750,0.228,-0.316,-0.655,-1.71,-2.09,-2.23,-0.97,-0.58,0.27
2022-01-25 17:22:06.8850,0.192,-0.327,-0.699,-1.49,-1.81,-2.09,-0.75,-0.56,0.28
2022-01-25 17:22:06.8950,0.148,-0.322,-0.715,-1.21,-1.62,-1.72,-0.53,-0.48,0.24
2022-01-25 17:22:06.9050,0.104,-0.305,-0.709,-0.84,-1.59,-1.54,-0.34,-0.33,0.19
2022-01-25 17:22:06.9150,0.076,-0.291,-0.698,-0.45,-1.72,-1.61,-0.22,-0.16,0.17
2022-01-25 17:22:06.9260,0.057,-0.282,-0.68,-0.18,-1.83,-1.74,-0.17,0.06,0.2
2022-01-25 17:22:06.9350,0.036,-0.284,-0.654,0.0,-1.9,-1.9,-0.15,0.29,0.27
2022-01-25 17:22:06.9460,0.009,-0.292,-0.642,0.19,-1.89,-2.17,-0.13,0.49,0.33
2022-01-25 17:22:06.9550,0.002,-0.308,-0.628,0.47,-1.8,-2.31,-0.09,0.63,0.37
2022-01-25 17:22:06.9660,0.005,-0.336,-0.621,0.61,-1.65,-2.44,-0.04,0.69,0.37
2022-01-25 17:22:06.9760,0.009,-0.365,-0.627,0.62,-1.38,-2.53,0.03,0.65,0.33
2022-01-25 17:22:06.9860,0.007,-0.389,-0.631,0.63,-1.09,-2.48,0.09,0.55,0.3
2022-01-25 17:22:06.9960,-0.0,-0.408,-0.622,0.77,-0.67,-2.49,0.09,0.55,0.3
2022-01-25 17:22:07.0060,-0.013,-0.416,-0.619,0.77,-0.67,-2.49,0.19,0.32,0.24
2022-01-25 17:22:07.0160,-0.023,-0.424,-0.61,0.91,-0.59,-2.52,0.21,0.28,0.17
2022-01-25 17:22:07.0260,-0.019,-0.441,-0.597,1.03,-0.54,-2.57,0.21,0.27,0.1
2022-01-25 17:22:07.0360,-0.001,-0.477,-0.615,1.02,-0.41,-2.72,0.19,0.25,0.02
2022-01-25 17:22:07.0460,0.048,-0.524,-0.635,0.9,-0.1,-2.56,0.16,0.2,-0.04
2022-01-25 17:22:07.0560,0.097,-0.561,-0.667,0.46,0.35,-2.35,0.16,0.2,-0.04
2022-01-25 17:22:07.0670,0.132,-0.585,-0.691,-0.02,0.71,-2.04,0.11,0.13,-0.09
2022-01-25 17:22:07.0760,0.163,-0.62,-0.689,-0.36,0.95,-1.77,0.11,0.13,-0.09
2022-01-25 17:22:07.0860,0.206,-0.671,-0.673,-0.64,1.27,-1.77,-0.01,0.52,-0.09
2022-01-25 17:22:07.0960,0.275,-0.734,-0.655,-1.01,1.74,-1.9,-0.19,0.79,-0.14
2022-01-25 17:22:07.1060,0.376,-0.809,-0.666,-1.59,2.36,-2.08,-0.52,0.96,-0.23
2022-01-25 17:22:07.1160,0.479,-0.892,-0.721,-3.41,3.99,-1.58,-0.95,0.92,-0.26
2022-01-25 17:22:07.1260,0.529,-0.943,-0.837,-3.41,3.99,-1.58,-1.37,0.62,-0.2
2022-01-25 17:22:07.1360,0.521,-0.939,-1.017,-3.9,4.65,-0.56,-1.62,0.15,-0.01
2022-01-25 17:22:07.1460,0.482,-0.886,-1.192,-3.83,4.81,1.08,-1.59,-0.27,0.25
2022-01-25 17:22:07.1560,0.427,-0.819,-1.331,-3.48,4.48,2.77,-1.26,-0.51,0.6
2022-01-25 17:22:07.1660,0.34,-0.786,-1.42,-3.01,3.94,4.11,-0.7,-0.54,1.03
2022-01-25 17:22:07.1760,0.211,-0.763,-1.477,-2.29,3.65,4.99,-0.06,-0.42,1.42
2022-01-25 17:22:07.1860,0.07,-0.667,-1.503,-1.16,3.49,5.56,0.45,-0.21,1.54
2022-01-25 17:22:07.1970,-0.031,-0.505,-1.514,0.14,2.63,5.86,0.61,0.02,1.31
2022-01-25 17:22:07.2070,-0.065,-0.424,-1.523,1.13,1.01,5.97,0.4,0.31,0.92
2022-01-25 17:22:07.2170,-0.084,-0.463,-1.5,1.51,-0.03,6.12,0.08,0.6,0.56
2022-01-25 17:22:07.2270,-0.113,-0.444,-1.494,1.67,0.27,5.92,-0.07,0.81,0.22
2022-01-25 17:22:07.2370,-0.123,-0.362,-1.485,2.218105589747429,-0.56,5.77,0.04,0.87,-0.07
2022-01-25 17:22:07.2470,-0.111,-0.265,-1.469,2.21,-0.56,5.77,0.34,0.77,-0.27
2022-01-25 17:22:07.2570,-0.101,-0.163,-1.406,2.18,-1.51,5.66,0.62,0.6,-0.37
2022-01-25 17:22:07.2670,-0.107,-0.078,-1.292,2.15,-2.54,5.14,0.79,0.48,-0.3
2022-01-25 17:22:07.2780,-0.131,-0.046,-1.158,2.25,-3.48,4.1,0.82,0.43,-0.09
2022-01-25 17:22:07.2870,-0.145,-0.069,-1.023,2.52,-3.93,2.84,0.77,0.43,0.14
2022-01-25 17:22:07.2980,-0.146,-0.124,-0.926,2.72,-3.84,1.54,0.77,0.43,0.14
2022-01-25 17:22:07.3070,-0.125,-0.183,-0.863,2.6,-2.86,-0.05,0.6,0.2,0.23
2022-01-25 17:22:07.3170,-0.104,-0.243,-0.83,2.6,-2.86,-0.05,0.44,-0.09,0.09
2022-01-25 17:22:07.3270,-0.092,-0.301,-0.795,2.39,-2.33,-0.37,0.23,-0.35,-0.09
2022-01-25 17:22:07.3370,-0.072,-0.355,-0.745,2.25,-1.78,-0.69,0.02,-0.47,-0.27
2022-01-25 17:22:07.3480,-0.036,-0.409,-0.694,2.04,-1.26,-1.16,-0.17,-0.43,-0.43
2022-01-25 17:22:07.3570,0.006,-0.458,-0.658,1.2612977720797063,-0.2,-2.08,-0.33,-0.32,-0.56
2022-01-25 17:22:07.3680,0.043,-0.497,-0.647,1.26,0.25,-2.24,-0.47,-0.23,-0.66
2022-01-25 17:22:07.3780,0.079,-0.519,-0.662,0.89,0.25,-2.24,-0.55,-0.23,-0.75
2022-01-25 17:22:07.3870,0.11,-0.518,-0.684,0.54,0.54,-2.14,-0.57,-0.3,-0.83
2022-01-25 17:22:07.3980,0.141,-0.501,-0.708,-0.04,0.52,-1.75,-0.52,-0.43,-0.91
2022-01-25 17:22:07.4070,0.167,-0.471,-0.71,-0.31,0.3,-1.72,-0.44,-0.55,-0.96
2022-01-25 17:22:07.4170,0.184,-0.435,-0.699,-0.31,0.3,-1.72,-0.38,-0.65,-0.98
2022-01-25 17:22:07.4270,0.203,-0.405,-0.683,-0.49,0.0,-1.85,-0.34,-0.69,-0.95
2022-01-25 17:22:07.4360,0.222,-0.373,-0.669,-0.69,-0.25,-2.03,-0.31,-0.71,-0.89
2022-01-25 17:22:07.4470,0.232,-0.338,-0.661,-0.9,-0.53,-2.2,-0.26,-0.67,-0.81
2022-01-25 17:22:07.4570,0.229,-0.301,-0.646,-1.04,-0.83,-2.29,-0.22,-0.57,-0.71
2022-01-25 17:22:07.4670,0.206,-0.255,-0.649,-1.06,-1.16,-2.47,-0.17,-0.44,-0.59
2022-01-25 17:22:07.4780,0.17,-0.213,-0.641,-0.88,-1.56,-2.46,-0.09,-0.28,-0.46
2022-01-25 17:22:07.4870,0.136,-0.191,-0.638,-0.55,-1.97,-2.54,-0.01,-0.11,-0.3
2022-01-25 17:22:07.5060,0.116,-0.196,-0.632,0.02,-2.19,-2.63,0.08,0.03,-0.14
2022-01-25 17:22:07.5080,0.111,-0.22,-0.631,0.09823059171438217,-1.98,-2.65,0.17,0.13,-0.0
2022-01-25 17:22:07.5170,0.119,-0.256,-0.635,0.09,-1.98,-2.65,0.27,0.17,0.11
2022-01-25 17:22:07.5270,0.135,-0.291,-0.637,-0.1,-1.32,-2.56,0.35,0.19,0.19
2022-01-25 17:22:07.5370,0.129,-0.319,-0.627,-0.07,-1.08,-2.63,0.38,0.2,0.26
2022-01-25 17:22:07.5470,0.109,-0.347,-0.623,-0.07,-1.08,-2.63,0.36,0.2,0.32
2022-01-25 17:22:07.5570,0.089,-0.38,-0.626,0.13,-0.84,-2.68,0.36,0.2,0.32
2022-01-25 17:22:07.5670,0.067,-0.419,-0.632,0.54,-0.21,-2.57,0.29,0.22,0.41
2022-01-25 17:22:07.5770,0.036,-0.446,-0.657,0.54,-0.21,-2.57,0.29,0.24,0.39
2022-01-25 17:22:07.5870,0.004,-0.48,-0.69,1.16,0.32,-1.99,0.31,0.26,0.33
2022-01-25 17:22:07.5970,-0.001,-0.529,-0.715,1.26,0.76,-1.73,0.3,0.22,0.26
2022-01-25 17:22:07.6070,0.012,-0.587,-0.759,1.26,0.76,-1.73,0.26,0.11,0.21
2022-01-25 17:22:07.6170,0.022,-0.645,-0.804,1.14,1.3,-1.32,0.21,-0.01,0.25
2022-01-25 17:22:07.6270,0.005,-0.686,-0.833,1.1398354616761208,2.2725832208991052,-0.5349103045463562,0.15,-0.09,0.42
2022-01-25 17:22:07.6370,-0.04,-0.703,-0.874,1.52,2.45,-0.15,0.12,-0.17,0.66
2022-01-25 17:22:07.6470,-0.074,-0.704,-0.91,1.52,2.45,-0.15,0.11,-0.24,0.85
2022-01-25 17:22:07.6580,-0.079,-0.713,-0.947,1.84,2.44,0.22,0.11,-0.28,0.93
2022-01-25 17:22:07.6680,-0.066,-0.74,-0.96,1.69,2.73,0.77,0.09,-0.13,0.86
2022-01-25 17:22:07.6790,-0.031,-0.774,-0.94,1.69,2.73,0.77,-0.0,0.2,0.69
2022-01-25 17:22:07.6890,0.028,-0.815,-0.919,1.34,3.04,0.58,-0.19,0.66,0.54
2022-01-25 17:22:07.6990,0.1,-0.844,-0.912,0.79,3.44,0.38,-0.44,1.11,0.48
2022-01-25 17:22:07.7090,0.164,-0.818,-0.977,0.14,3.77,0.26,-0.76,1.21,0.48
2022-01-25 17:22:07.7190,0.202,-0.721,-1.157,-0.44,3.66,0.75,-1.11,0.88,0.44
2022-01-25 17:22:07.7280,0.232,-0.647,-1.359,-1.02,2.15,4.34,-1.36,0.32,0.33
2022-01-25 17:22:07.7390,0.231,-0.599,-1.538,-1.05,1.79,6.1,-1.37,-0.19,0.16
2022-01-25 17:22:07.7490,0.216,-0.533,-1.64,-0.94,1.28,7.14,-1.13,-0.43,0.02
2022-01-25 17:22:07.7590,0.202,-0.451,-1.675,-0.94,1.28,7.14,-0.77,-0.34,0.02
2022-01-25 17:22:07.7680,0.181,-0.368,-1.657,-0.85,0.58,7.51,-0.39,0.01,0.17
2022-01-25 17:22:07.7790,0.177,-0.298,-1.609,-0.66,-0.18,7.37,-0.04,0.4,0.41
2022-01-25 17:22:07.7890,0.185,-0.257,-1.557,-0.59,-0.87,6.9,0.29,0.64,0.63
2022-01-25 17:22:07.7980,0.176,-0.226,-1.496,-0.64,-1.32,6.4,0.62,0.72,0.78
2022-01-25 17:22:07.8080,0.144,-0.208,-1.405,-0.55,-1.67,5.85,0.94,0.69,0.83
2022-01-25 17:22:07.8190,0.113,-0.22,-1.282,-0.22,-1.95,5.03,1.18,0.64,0.78
2022-01-25 17:22:07.8290,0.099,-0.246,-1.13,0.12,-1.97,3.91,1.29,0.62,0.63
2022-01-25 17:22:07.8390,0.1,-0.265,-0.979,0.3,-1.7414148420095446,1.07,1.24,0.63,0.41
2022-01-25 17:22:07.8490,0.11,-0.274,-0.841,0.33,-1.75,1.07,1.05,0.68,0.2
2022-01-25 17:22:07.8590,0.11,-0.275,-0.726,0.29,-1.8140141639113427,-1.36,0.78,0.73,0.05
2022-01-25 17:22:07.8690,0.112,-0.279,-0.648,0.37,-1.86,-2.13,0.47,0.73,-0.02
2022-01-25 17:22:07.8790,0.11,-0.291,-0.62,0.45,-1.77,-2.44,0.18,0.64,-0.03
2022-01-25 17:22:07.8890,0.108,-0.307,-0.616,0.45,-1.77,-2.44,-0.02,0.48,-0.01
2022-01-25 17:22:07.8990,0.111,-0.326,-0.626,0.53,-1.62,-2.48,-0.09,0.26,0.03
2022-01-25 17:22:07.9090,0.117,-0.356,-0.634,0.54,-1.43,-2.39,-0.06,0.03,0.06
2022-01-25 17:22:07.9190,0.11,-0.384,-0.634,0.49,-1.15,-2.3,0.04,-0.21,0.11
2022-01-25 17:22:07.9290,0.081,-0.385,-0.628,0.52,-0.85,-2.3,0.15,-0.47,0.15
2022-01-25 17:22:07.9390,0.061,-0.387,-0.613,0.76,-0.83,-2.35,0.24,-0.7,0.17
2022-01-25 17:22:07.9490,0.048,-0.39,-0.587,0.92,-0.84,-2.49,0.29,-0.86,0.17
2022-01-25 17:22:07.9590,0.031,-0.378,-0.549,1.05,-0.94,-3.09,0.29,-0.95,0.17
2022-01-25 17:22:07.9690,0.008,-0.362,-0.516,1.18,-1.13,-3.43,0.24,-0.97,0.17
2022-01-25 17:22:07.9800,-0.013,-0.352,-0.501,1.18,-1.13,-3.43,0.17,-0.92,0.15
2022-01-25 17:22:07.9890,-0.044,-0.33,-0.494,1.3,-1.25,-3.59,0.09,-0.82,0.1
2022-01-25 17:22:08.0010,-0.08,-0.302,-0.506,1.43,-1.46,-3.7,0.05,-0.71,0.02
2022-01-25 17:22:08.0120,-0.108,-0.283,-0.521,1.73,-1.74,-3.59,0.02,-0.63,-0.07
2022-01-25 17:22:08.0220,-0.127,-0.274,-0.543,1.97,-1.95,-3.45,0.02,-0.58,-0.15
2022-01-25 17:22:08.0320,-0.124,-0.291,-0.563,2.12,-2.04,-3.25,0.03,-0.59,-0.21
2022-01-25 17:22:08.0410,-0.104,-0.338,-0.591,2.08,-1.92,-3.06,0.07,-0.65,-0.27
2022-01-25 17:22:08.0520,-0.075,-0.376,-0.604,1.87,-1.48,-2.79,0.15,-0.72,-0.35
2022-01-25 17:22:08.0620,-0.049,-0.399,-0.603,1.53,-1.1,-2.64,0.2,-0.74,-0.43
2022-01-25 17:22:08.0720,-0.03,-0.415,-0.582,1.23,-0.87,-2.63,0.21,-0.65,-0.51
2022-01-25 17:22:08.0820,-0.007,-0.431,-0.558,1.02,-0.72,-2.81,0.14,-0.47,-0.58
2022-01-25 17:22:08.0920,0.023,-0.464,-0.538,0.8,-0.57,-3.04,0.01,-0.23,-0.65
2022-01-25 17:22:08.1020,0.073,-0.505,-0.541,0.54,-0.26,-3.26,-0.15,-0.04,-0.73
2022-01-25 17:22:08.1130,0.124,-0.548,-0.585,0.1,0.15,-3.28,-0.26,-0.02,-0.79
2022-01-25 17:22:08.1220,0.162,-0.569,-0.664,-0.38,0.62,-2.92,-0.3,-0.16,-0.82
2022-01-25 17:22:08.1330,0.187,-0.576,-0.727,-0.75,0.89,-2.18,-0.24,-0.34,-0.8
2022-01-25 17:22:08.1430,0.194,-0.594,-0.787,-1.01,0.98,-1.54,-0.12,-0.48,-0.69
2022-01-25 17:22:08.1530,0.189,-0.611,-0.821,-1.12,1.16,-0.96,0.04,-0.52,-0.53
2022-01-25 17:22:08.1630,0.175,-0.604,-0.84,-1.1,1.34,-0.59,0.19,-0.5,-0.34
2022-01-25 17:22:08.1730,0.151,-0.589,-0.838,-1.01,1.29,-0.39,0.26,-0.41,-0.13
2022-01-25 17:22:08.1830,0.134,-0.589,-0.821,-0.81,1.11,-0.36,0.2,-0.3,0.05
2022-01-25 17:22:08.1930,0.122,-0.609,-0.821,-0.65,1.07,-0.53,0.04,-0.22,0.22
2022-01-25 17:22:08.2030,0.089,-0.642,-0.854,-0.58,1.26,-0.56,-0.16,-0.21,0.34
2022-01-25 17:22:08.2130,0.034,-0.68,-0.928,-0.31,1.58,-0.3,-0.3,-0.3,0.39
2022-01-25 17:22:08.2230,-0.036,-0.699,-1.019,0.15,1.99,0.37,-0.4,-0.51,0.32
2022-01-25 17:22:08.2330,-0.097,-0.671,-1.118,0.75,2.25,1.23,-0.52,-0.81,0.14
2022-01-25 17:22:08.2420,-0.124,-0.622,-1.215,1.3,2.1,2.16,-0.71,-1.08,-0.12
2022-01-25 17:22:08.2530,-0.106,-0.629,-1.289,1.53,1.66,3.07,-0.96,-1.09,-0.36
2022-01-25 17:22:08.2630,-0.082,-0.65,-1.328,1.34,1.74,3.81,-1.15,-0.77,-0.54
2022-01-25 17:22:08.2730,-0.092,-0.577,-1.418,1.04,2.12,4.13,-1.22,-0.26,-0.7
2022-01-25 17:22:08.2830,-0.095,-0.483,-1.522,1.14,1.62,4.89,-1.11,0.34,-0.85
2022-01-25 17:22:08.2930,-0.06,-0.421,-1.617,1.29,0.76,5.89,-0.86,0.77,-1.0
2022-01-25 17:22:08.3030,-0.004,-0.365,-1.705,1.11,0.18,6.79,-0.56,0.95,-1.1
2022-01-25 17:22:08.3130,0.016,-0.268,-1.712,0.68,-0.28,7.68,-0.27,0.93,-1.09
2022-01-25 17:22:08.3230,0.016,-0.179,-1.635,0.56,-1.16,7.87,-0.04,0.83,-0.93
2022-01-25 17:22:08.3330,0.018,-0.154,-1.54,0.66,-2.09,7.2,0.12,0.61,-0.67
2022-01-25 17:22:08.3430,0.008,-0.155,-1.463,0.7,-2.42,6.26,0.24,0.32,-0.39
2022-01-25 17:22:08.3530,-0.023,-0.171,-1.372,0.81,-2.44,5.51,0.34,0.06,-0.18
2022-01-25 17:22:08.3620,-0.066,-0.194,-1.263,1.09,-2.34,4.65,0.44,-0.07,-0.07
2022-01-25 17:22:08.3740,-0.112,-0.214,-1.137,1.5,-2.15,3.63,0.52,-0.07,-0.09
2022-01-25 17:22:08.3830,-0.134,-0.243,-1.01,1.96,-2.0,2.42,0.56,0.05,-0.2
2022-01-25 17:22:08.3930,-0.128,-0.293,-0.875,2.24,-1.78,1.2,0.52,0.26,-0.38
2022-01-25 17:22:08.4030,-0.101,-0.359,-0.752,2.25,-1.35,-0.09,0.42,0.44,-0.55
2022-01-25 17:22:08.4130,-0.065,-0.424,-0.665,2.08,-0.74,-1.31,0.28,0.49,-0.68
2022-01-25 17:22:08.4240,-0.023,-0.472,-0.618,1.8,-0.1,-2.2,0.14,0.38,-0.79
2022-01-25 17:22:08.4340,0.023,-0.5,-0.598,1.46,0.4,-2.7,-0.01,0.07,-0.88
2022-01-25 17:22:08.4440,0.055,-0.509,-0.616,1.03,0.72,-2.93,-0.15,-0.37,-0.98
2022-01-25 17:22:08.4540,0.093,-0.511,-0.627,0.71,0.86,-2.8,-0.28,-0.8,-1.07
2022-01-25 17:22:08.4640,0.118,-0.508,-0.618,0.29,0.92,-2.7,-0.4,-1.11,-1.12
2022-01-25 17:22:08.4740,0.126,-0.484,-0.607,-0.03,0.96,-2.8,-0.48,-1.26,-1.14
2022-01-25 17:22:08.4840,0.118,-0.451,-0.606,-0.19,0.8,-2.94,-0.54,-1.29,-1.11
2022-01-25 17:22:08.4950,0.097,-0.409,-0.629,-0.22,0.55,-3.01,-0.54,-1.27,-1.05
2022-01-25 17:22:08.5050,0.069,-0.368,-0.651,-0.08,0.2,-2.6359598994255067,-0.47,-1.18,-1.0
2022-01-25 17:22:08.5150,0.038,-0.334,-0.683,0.35,-0.46,-2.38,-0.32,-1.1,-0.95
2022-01-25 17:22:08.5250,0.004,-0.292,-0.722,0.35,-0.46,-2.38,-0.07,-0.96,-0.92
2022-01-25 17:22:08.5350,-0.016,-0.259,-0.708,0.65,-0.86,-1.96,0.19,-0.8,-0.89
2022-01-25 17:22:08.5440,-0.015,-0.249,-0.707,0.83,-1.23,-2.07,0.4,-0.65,-0.84
2022-01-25 17:22:08.5540,0.003,-0.244,-0.684,0.82,-1.39,-2.08,0.54,-0.51,-0.77
2022-01-25 17:22:08.5650,0.03,-0.24,-0.65,0.65,-1.47,-2.24,0.54,-0.51,-0.77
2022-01-25 17:22:08.5750,0.053,-0.254,-0.621,0.38,-1.57,-2.56,0.62,-0.28,-0.54
2022-01-25 17:22:08.5850,0.079,-0.289,-0.59,0.15,-1.52,-2.82,0.61,-0.21,-0.41
2022-01-25 17:22:08.5950,0.098,-0.332,-0.582,-0.11,-1.24,-3.11,0.59,-0.18,-0.31
2022-01-25 17:22:08.6050,0.09,-0.378,-0.593,-0.31,-0.88,-3.2,0.58,-0.21,-0.27
2022-01-25 17:22:08.6150,0.067,-0.414,-0.612,-0.28,-0.47,-3.08,0.61,-0.26,-0.29
2022-01-25 17:22:08.6250,0.051,-0.459,-0.646,-0.08,-0.16,-2.89,0.68,-0.34,-0.38
2022-01-25 17:22:08.6350,0.052,-0.503,-0.691,0.08,0.21,-2.54,0.75,-0.47,-0.51
2022-01-25 17:22:08.6450,0.055,-0.532,-0.735,0.08,0.59,-2.08,0.77,-0.59,-0.63
2022-01-25 17:22:08.6550,0.057,-0.566,-0.769,0.01,0.82,-1.62,0.67,-0.65,-0.69
2022-01-25 17:22:08.6650,0.064,-0.609,-0.813,-0.03,1.1,-1.25,0.47,-0.62,-0.66
2022-01-25 17:22:08.6750,0.053,-0.646,-0.9,-0.13,1.49,-0.84,0.47,-0.62,-0.66
2022-01-25 17:22:08.6860,0.04,-0.673,-0.993,-0.06,1.85,-0.03,0.16,-0.26,-0.37
2022-01-25 17:22:08.6950,0.026,-0.674,-1.091,0.07,2.13,0.9,0.18,0.03,-0.2
2022-01-25 17:22:08.7050,0.026,-0.666,-1.192,0.23,2.15,1.85,0.27,0.28,-0.11
2022-01-25 17:22:08.7150,0.033,-0.667,-1.245,0.29,2.04,2.88,0.37,0.51,-0.08
2022-01-25 17:22:08.7250,0.054,-0.679,-1.236,0.18348036468029022,2.07,3.5,0.41,0.75,-0.1
2022-01-25 17:22:08.7360,0.093,-0.73,-1.192,0.18,2.07,3.5,0.43,0.98,-0.07
2022-01-25 17:22:08.7450,0.148,-0.82,-1.156,-0.1,2.46,3.12,0.41,1.07,0.01
2022-01-25 17:22:08.7550,0.203,-0.872,-1.167,-0.53,3.3,2.75,0.35,0.96,0.03
2022-01-25 17:22:08.7650,0.243,-0.851,-1.2,-1.0,3.87,2.83,0.15,0.68,-0.04
2022-01-25 17:22:08.7750,0.273,-0.826,-1.275,-1.37,3.74,3.13,-0.18,0.36,-0.12
2022-01-25 17:22:08.7850,0.271,-0.803,-1.355,-1.65,3.48,3.8,-0.39,0.18,-0.15
2022-01-25 17:22:08.7950,0.239,-0.732,-1.413,-1.66,3.33,4.6,-0.35,0.12,-0.13
2022-01-25 17:22:08.8050,0.208,-0.628,-1.468,-1.34,2.72,5.17,-0.05,0.08,-0.08
2022-01-25 17:22:08.8150,0.177,-0.517,-1.469,-1.04,1.72,5.73,0.37,0.06,0.01
2022-01-25 17:22:08.8260,0.164,-0.436,-1.392,-0.72,0.58,5.86,0.75,0.07,0.15
2022-01-25 17:22:08.8350,0.16,-0.391,-1.282,-0.57,-0.35,5.23,0.99,0.08,0.33
2022-01-25 17:22:08.8450,0.149,-0.361,-1.162,-0.55,-0.9,4.21,1.09,0.01,0.5
2022-01-25 17:22:08.8560,0.12,-0.331,-1.06,-0.48,-1.32,3.09,1.09,-0.17,0.58
2022-01-25 17:22:08.8650,0.083,-0.309,-0.976,-0.27,-1.69,2.1,1.09,-0.17,0.58
2022-01-25 17:22:08.8760,0.05,-0.304,-0.891,0.02,-2.01,1.32,0.82,-0.59,0.46
2022-01-25 17:22:08.8860,0.031,-0.307,-0.801,0.29,-2.14,0.52,0.64,-0.68,0.31
2022-01-25 17:22:08.8950,0.031,-0.303,-0.723,0.42,-2.17,-0.34,0.43,-0.66,0.14
2022-01-25 17:22:08.9060,0.036,-0.288,-0.654,0.38,-2.22,-1.11,0.43,-0.66,0.14
2022-01-25 17:22:08.9160,0.05,-0.282,-0.603,0.3,-2.43,-2.34,-0.02,-0.47,-0.2
2022-01-25 17:22:08.9260,0.074,-0.286,-0.572,0.15,-2.43,-2.34,-0.02,-0.47,-0.2
2022-01-25 17:22:08.9360,0.1,-0.302,-0.556,-0.09,-2.37,-2.69,-0.52,-0.3,-0.34
2022-01-25 17:22:08.9460,0.119,-0.32,-0.553,-0.35,-2.17,-2.89,-0.74,-0.17,-0.3
2022-01-25 17:22:08.9560,0.12,-0.332,-0.56,-0.54,-1.92,-2.98,-0.87,-0.02,-0.24
2022-01-25 17:22:08.9660,0.119,-0.338,-0.581,-0.53,-1.58,-2.82,-0.89,0.08,-0.15
2022-01-25 17:22:08.9760,0.125,-0.351,-0.602,-0.57,-1.4,-2.64,-0.82,0.13,-0.07
2022-01-25 17:22:08.9860,0.132,-0.372,-0.607,-0.64,-1.14,-2.6,-0.7,0.12,0.01
2022-01-25 17:22:08.9960,0.135,-0.388,-0.605,-0.64,-1.14,-2.6,-0.56,0.07,0.05
2022-01-25 17:22:09.0060,0.13,-0.394,-0.605,-0.67,-0.92,-2.65,-0.44,0.01,0.05
2022-01-25 17:22:09.0160,0.117,-0.39,-0.602,-0.64,-0.82,-2.66,-0.33,-0.05,0.0
2022-01-25 17:22:09.0260,0.104,-0.378,-0.593,-0.52,-0.82,-2.71,-0.23,-0.08,-0.06
2022-01-25 17:22:09.0360,0.099,-0.368,-0.583,-0.4,-0.92,-2.79,-0.14,-0.12,-0.1
2022-01-25 17:22:09.0460,0.097,-0.361,-0.574,-0.34,-1.0,-2.91,-0.08,-0.13,-0.11
2022-01-25 17:22:09.0560,0.096,-0.356,-0.555,-0.33,-1.07,-2.99,-0.04,-0.1,-0.07
2022-01-25 17:22:09.0660,0.093,-0.346,-0.548,-0.32,-1.11,-3.18,-0.01,-0.02,-0.01
2022-01-25 17:22:09.0760,0.083,-0.341,-0.539,-0.29,-1.21,-3.26,0.01,0.11,0.08
2022-01-25 17:22:09.0860,0.066,-0.341,-0.559,-0.2,-1.27,-3.36,0.02,0.2,0.17
2022-01-25 17:22:09.0960,0.053,-0.346,-0.586,-0.03,-1.27,-3.19,0.05,0.28,0.23
2022-01-25 17:22:09.1060,0.05,-0.369,-0.612,0.18,-1.05,-2.66,0.12,0.32,0.28
2022-01-25 17:22:09.1170,0.047,-0.388,-0.632,0.18,-1.05,-2.66,0.22,0.33,0.31
2022-01-25 17:22:09.1270,0.052,-0.418,-0.636,0.21,-0.87,-2.43,0.22,0.33,0.31
2022-01-25 17:22:09.1370,0.073,-0.472,-0.644,0.2,-0.64,-2.36,0.3,0.3,0.35
2022-01-25 17:22:09.1470,0.085,-0.529,-0.655,0.01,-0.15,-2.27,0.28,0.26,0.32
2022-01-25 17:22:09.1570,0.088,-0.566,-0.679,-0.12,0.39,-2.16,0.24,0.23,0.26
2022-01-25 17:22:09.1660,0.085,-0.591,-0.718,-0.15,0.77,-1.94,0.15,0.23,0.16
2022-01-25 17:22:09.1770,0.075,-0.608,-0.739,-0.11,1.01,-1.55,0.05,0.28,0.05
2022-01-25 17:22:09.1870,0.072,-0.622,-0.774,0.01,1.19,-1.32,-0.06,0.3,-0.05
2022-01-25 17:22:09.1970,0.091,-0.662,-0.811,0.09,1.32,-1.02,-0.15,0.3,-0.11
2022-01-25 17:22:09.2070,0.127,-0.73,-0.838,-0.05,1.68,-0.64,-0.2,0.23,-0.11
2022-01-25 17:22:09.2170,0.166,-0.789,-0.874,-0.74,2.98,-0.05,-0.25,0.11,-0.05
2022-01-25 17:22:09.2270,0.195,-0.851,-0.906,-0.74,2.98,-0.05,-0.3,0.0,0.06
2022-01-25 17:22:09.2370,0.222,-0.909,-0.936,-1.04,3.6,0.26,-0.35,-0.03,0.21
2022-01-25 17:22:09.2470,0.23,-0.958,-0.975,-1.33,4.22,0.52,-0.36,0.02,0.4
2022-01-25 17:22:09.2570,0.215,-0.973,-1.018,-1.46,4.74,0.88,-0.32,0.1,0.59
2022-01-25 17:22:09.2670,0.178,-0.938,-1.07,-1.35,4.97,1.28,-0.28,0.07,0.74
2022-01-25 17:22:09.2770,0.136,-0.843,-1.171,-1.06,4.71,1.75,-0.37,-0.17,0.73
2022-01-25 17:22:09.2870,0.115,-0.76,-1.298,-0.69,3.88,2.65,-0.59,-0.47,0.61
2022-01-25 17:22:09.2970,0.094,-0.739,-1.407,-0.53,3.05,3.87,-0.79,-0.66,0.48
2022-01-25 17:22:09.3070,0.049,-0.684,-1.498,-0.42,2.87,4.92,-0.82,-0.65,0.32
2022-01-25 17:22:09.3170,-0.005,-0.574,-1.581,-0.08,2.49,5.8,-0.66,-0.44,0.15
2022-01-25 17:22:09.3270,-0.028,-0.501,-1.612,0.44,1.48,6.6,-0.34,-0.04,0.02
2022-01-25 17:22:09.3370,-0.035,-0.448,-1.602,0.72,0.72,6.98,0.03,0.38,-0.07
2022-01-25 17:22:09.3470,-0.053,-0.355,-1.571,0.84,0.21,6.92,0.39,0.69,-0.12
2022-01-25 17:22:09.3570,-0.081,-0.249,-1.49,1.07,-0.7,6.67,0.67,0.87,-0.12
2022-01-25 17:22:09.3680,-0.106,-0.144,-1.362,1.41,-1.81,5.98,0.86,0.94,-0.11
2022-01-25 17:22:09.3780,-0.116,-0.088,-1.224,1.94,-3.63,3.49,0.94,0.87,-0.07
2022-01-25 17:22:09.3880,-0.131,-0.06,-1.1,1.94,-3.63,3.49,0.9,0.7,-0.03
2022-01-25 17:22:09.3970,-0.15,-0.052,-0.982,2.13,-3.99,2.32,0.76,0.51,0.01
2022-01-25 17:22:09.4070,-0.172,-0.067,-0.868,2.35,-4.16,1.19,0.59,0.4,0.04
2022-01-25 17:22:09.4170,-0.189,-0.099,-0.764,2.6,-4.08,0.09,0.41,0.35,0.03
2022-01-25 17:22:09.4270,-0.189,-0.138,-0.686,2.81,-3.81,-0.93,0.25,0.34,-0.03
2022-01-25 17:22:09.4370,-0.176,-0.203,-0.621,2.86,-3.46,-1.72,0.09,0.33,-0.13
2022-01-25 17:22:09.4480,-0.14,-0.286,-0.58,2.79,-2.86,-2.36,-0.07,0.27,-0.26
2022-01-25 17:22:09.4570,-0.102,-0.362,-0.569,2.49,-2.04,-2.8,-0.22,0.12,-0.39
2022-01-25 17:22:09.4680,-0.071,-0.416,-0.58,2.14,-1.24,-2.96,-0.33,-0.11,-0.5
2022-01-25 17:22:09.4770,-0.042,-0.446,-0.615,1.84,-0.64,-2.9,-0.39,-0.38,-0.6
2022-01-25 17:22:09.4880,-0.021,-0.46,-0.638,1.53,-0.28,-2.6,-0.39,-0.57,-0.69
2022-01-25 17:22:09.4970,-0.012,-0.45,-0.648,1.3,-0.09,-2.37,-0.33,-0.68,-0.78
2022-01-25 17:22:09.5080,-0.005,-0.427,-0.652,1.17,-0.11,-2.29,-0.25,-0.67,-0.88
2022-01-25 17:22:09.5180,0.014,-0.406,-0.643,1.1,-0.3,-2.25,-0.18,-0.57,-0.99
2022-01-25 17:22:09.5280,0.041,-0.384,-0.621,0.93,-0.49,-2.33,-0.14,-0.35,-1.07
2022-01-25 17:22:09.5380,0.074,-0.358,-0.593,0.7,-0.67,-2.55,-0.12,-0.06,-1.08
2022-01-25 17:22:09.5480,0.109,-0.341,-0.582,0.43,-0.91,-2.83,-0.11,0.19,-1.03
2022-01-25 17:22:09.5580,0.137,-0.319,-0.59,0.15,-1.06,-2.97,-0.08,0.33,-0.95
2022-01-25 17:22:09.5680,0.164,-0.304,-0.586,-0.26,-1.41,-2.91,0.0,0.38,-0.84
2022-01-25 17:22:09.5780,0.187,-0.294,-0.581,-0.26,-1.41,-2.91,0.1,0.31,-0.71
2022-01-25 17:22:09.5880,0.207,-0.293,-0.574,-0.44,-1.51,-2.97,0.16,0.2,-0.54
2022-01-25 17:22:09.5980,0.226,-0.311,-0.54,-0.59,-1.53,-3.0,0.21,0.13,-0.32
2022-01-25 17:22:09.6080,0.229,-0.359,-0.533,-0.79,-1.43,-3.29,0.22,0.01,-0.1
2022-01-25 17:22:09.6180,0.24,-0.356,-0.546,-0.82,-0.95,-3.44,0.2,-0.08,0.07
2022-01-25 17:22:09.6280,0.221,-0.386,-0.557,-0.94,-0.97,-3.28,0.18,-0.12,0.21
2022-01-25 17:22:09.6380,0.172,-0.42,-0.589,-0.4,-0.39,-2.89,0.18,-0.1,0.32
2022-01-25 17:22:09.6490,0.115,-0.431,-0.635,-0.4,-0.39,-2.89,0.18,-0.1,0.32
2022-01-25 17:22:09.6580,0.061,-0.463,-0.671,0.15,-0.31,-2.44,0.25,0.1,0.37
2022-01-25 17:22:09.6680,0.025,-0.517,-0.698,0.69,-0.06,-2.04,0.31,0.23,0.34
2022-01-25 17:22:09.6780,0.002,-0.566,-0.761,1.06,0.43,-1.79,0.39,0.25,0.27
2022-01-25 17:22:09.6880,0.003,-0.624,-0.809,1.32,0.88,-1.18,0.46,0.2,0.21
2022-01-25 17:22:09.6980,0.018,-0.703,-0.852,1.35,1.38,-0.64,0.45,0.09,0.17
2022-01-25 17:22:09.7080,0.012,-0.778,-0.905,1.19,2.11,-0.23,0.37,-0.03,0.19
2022-01-25 17:22:09.7190,-0.014,-0.847,-0.965,1.21,2.83,0.31,0.28,-0.12,0.22
2022-01-25 17:22:09.7290,-0.048,-0.894,-1.029,1.41,3.48,0.9,0.22,-0.2,0.23
2022-01-25 17:22:09.7380,-0.078,-0.906,-1.099,1.72,3.96,1.53,0.24,-0.32,0.2
2022-01-25 17:22:09.7480,-0.081,-0.892,-1.152,1.98,4.11,2.22,0.29,-0.37,0.08
2022-01-25 17:22:09.7590,-0.078,-0.881,-1.148,2.03,3.95,2.8,0.34,-0.32,-0.06
2022-01-25 17:22:09.7680,-0.068,-0.834,-1.154,1.96,3.83,2.81,0.34,-0.32,-0.06
2022-01-25 17:22:09.7780,-0.029,-0.824,-1.109,1.9,3.38,2.88,0.32,0.27,-0.2
2022-01-25 17:22:09.7890,0.029,-0.86,-1.041,1.61,3.18,2.54,0.25,0.85,-0.05
2022-01-25 17:22:09.7990,0.09,-0.911,-1.024,1.13,3.48,1.88,0.15,1.29,0.13
2022-01-25 17:22:09.8090,0.162,-0.909,-1.063,0.65,3.97,1.66,0.15,1.29,0.13
2022-01-25 17:22:09.8190,0.233,-0.866,-1.156,0.06,4.05,1.99,-0.25,1.01,-0.08
2022-01-25 17:22:09.8290,0.29,-0.856,-1.275,-0.57,3.67,2.84,-0.53,0.38,-0.34
2022-01-25 17:22:09.8390,0.333,-0.837,-1.327,-1.56,3.52,4.56,-0.71,-0.17,-0.5
2022-01-25 17:22:09.8490,0.365,-0.786,-1.338,-1.56,3.52,4.56,-0.71,-0.17,-0.5
2022-01-25 17:22:09.8590,0.382,-0.71,-1.354,-1.91,3.1,4.63,-0.52,-0.73,-0.43
2022-01-25 17:22:09.8690,0.355,-0.573,-1.329,-2.17,2.45,4.77,-0.13,-0.76,-0.29
2022-01-25 17:22:09.8790,0.308,-0.416,-1.278,-2.01,1.18,4.57,0.26,-0.66,-0.1
2022-01-25 17:22:09.8890,0.269,-0.324,-1.208,-1.59,-0.41,4.1,0.57,-0.54,0.12
2022-01-25 17:22:09.8990,0.224,-0.25,-1.15,-1.26,-1.46,3.45,0.77,-0.54,0.28
2022-01-25 17:22:09.9090,0.176,-0.176,-1.098,-0.9,-2.24,2.88,0.85,-0.63,0.33
2022-01-25 17:22:09.9190,0.149,-0.136,-1.012,-0.49,-3.06,2.43,0.8,-0.73,0.24
2022-01-25 17:22:09.9290,0.146,-0.128,-0.916,-0.26,-3.57,1.64,0.63,-0.77,0.05
2022-01-25 17:22:09.9390,0.152,-0.14,-0.809,-0.27,-3.72,0.72,0.38,-0.66,-0.17
2022-01-25 17:22:09.9490,0.165,-0.153,-0.701,-0.36,-3.63,-0.3,0.08,-0.45,-0.33
2022-01-25 17:22:09.9590,0.189,-0.183,-0.623,-0.49,-3.51,-1.39,-0.24,-0.2,-0.39
2022-01-25 17:22:09.9690,0.208,-0.211,-0.585,-0.71,-3.19,-2.22,-0.55,0.02,-0.33
2022-01-25 17:22:09.9790,0.207,-0.247,-0.567,-0.89,-2.85,-2.67,-0.8,0.15,-0.14
2022-01-25 17:22:09.9900,0.198,-0.283,-0.592,-0.9,-2.45,-2.9,-0.8,0.15,-0.14
2022-01-25 17:22:09.9990,0.185,-0.309,-0.641,-0.73,-1.66,-2.32,-0.94,-0.09,0.27
2022-01-25 17:22:10.0090,0.155,-0.344,-0.662,-0.73,-1.66,-2.32,-0.82,-0.31,0.36
2022-01-25 17:22:10.0190,0.11,-0.375,-0.679,-0.14,-0.9,-2.0,-0.64,-0.54,0.35
2022-01-25 17:22:10.0300,0.068,-0.395,-0.68,-0.14,-0.9,-2.0,-0.45,-0.7,0.28
2022-01-25 17:22:10.0390,0.028,-0.398,-0.654,0.21,-0.66,-1.98,-0.3,-0.72,0.17
2022-01-25 17:22:10.0500,-0.002,-0.39,-0.612,0.53,-0.59,-2.23,-0.2,-0.62,0.06
2022-01-25 17:22:10.0600,-0.024,-0.377,-0.577,0.79,-0.64,-2.64,-0.16,-0.45,-0.06
2022-01-25 17:22:10.0700,-0.044,-0.358,-0.548,0.98,-0.74,-3.01,-0.16,-0.25,-0.16
2022-01-25 17:22:10.0800,-0.05,-0.348,-0.52,1.17,-0.91,-3.31,-0.16,-0.07,-0.22
2022-01-25 17:22:10.0900,-0.04,-0.346,-0.508,1.27,-1.01,-3.6,-0.17,0.05,-0.26
2022-01-25 17:22:10.1000,0.001,-0.332,-0.488,1.21,-1.01,-3.74,-0.19,0.26,-0.25
2022-01-25 17:22:10.1100,0.022,-0.343,-0.489,0.6446558180451394,-1.04,-3.98,-0.2,0.39,-0.16
2022-01-25 17:22:10.1200,-0.003,-0.347,-0.522,0.64,-1.04,-3.98,-0.16,0.32,-0.12
2022-01-25 17:22:10.1300,0.019,-0.266,-0.554,0.92,-0.89,-3.67,-0.16,0.32,-0.12
2022-01-25 17:22:10.1400,0.037,-0.279,-0.581,0.76,-1.64,-3.38,-0.17,0.11,-0.17
2022-01-25 17:22:10.1500,0.037,-0.325,-0.554,0.58,-1.65,-3.06,-0.28,-0.03,-0.21
2022-01-25 17:22:10.1600,0.037,-0.3,-0.584,0.54,-1.09,-3.35,-0.35,0.08,-0.27
2022-01-25 17:22:10.1700,0.045,-0.359,-0.558,0.6,-1.29,-3.1,-0.35,0.08,-0.27
2022-01-25 17:22:10.1800,0.055,-0.416,-0.576,0.57,-0.12,-3.25,-0.42,0.59,-0.38
2022-01-25 17:22:10.1900,0.084,-0.443,-0.642,0.57,-0.12,-3.25,-0.42,0.59,-0.38
2022-01-25 17:22:10.2000,0.14,-0.487,-0.679,0.4,0.21,-2.6,-0.45,0.78,-0.59
2022-01-25 17:22:10.2100,0.182,-0.549,-0.773,-0.04,0.65,-2.25,-0.44,0.6,-0.64
2022-01-25 17:22:10.2200,0.195,-0.584,-0.88,-0.42,1.31,-1.42,-0.33,0.32,-0.64
2022-01-25 17:22:10.2300,0.227,-0.596,-0.962,-0.52,1.73,-0.35,-0.16,0.07,-0.61
2022-01-25 17:22:10.2400,0.287,-0.62,-1.007,-0.76,1.86,0.48,-0.03,0.0,-0.52
2022-01-25 17:22:10.2500,0.341,-0.644,-1.009,-1.31,2.1,0.98,-0.02,0.15,-0.38
2022-01-25 17:22:10.2600,0.373,-0.659,-1.01,-1.83,2.35,1.03,-0.09,0.41,-0.19
2022-01-25 17:22:10.2700,0.392,-0.67,-1.021,-2.11,2.53,1.03,-0.19,0.67,0.02
2022-01-25 17:22:10.2800,0.404,-0.696,-1.056,-2.25,2.65,1.14,-0.28,0.79,0.26
2022-01-25 17:22:10.2900,0.41,-0.737,-1.115,-2.32,2.9,1.43,-0.28,0.79,0.26
2022-01-25 17:22:10.3000,0.407,-0.815,-1.165,-2.33,3.99,2.49,-0.11,0.76,0.94
2022-01-25 17:22:10.3110,0.358,-0.869,-1.236,-2.33,3.99,2.49,0.19,0.4,1.25
2022-01-25 17:22:10.3200,0.319,-0.843,-1.259,-1.89,4.59,3.21,0.4,-0.07,1.38
2022-01-25 17:22:10.3300,0.261,-0.759,-1.297,-1.14,3.53,3.83,0.32,-0.57,1.28
2022-01-25 17:22:10.3410,0.238,-0.732,-1.332,-1.14,3.53,3.83,0.07,-0.82,1.1
2022-01-25 17:22:10.3500,0.198,-0.736,-1.362,-0.99,3.11,4.21,-0.1,-0.79,0.94
2022-01-25 17:22:10.3610,0.079,-0.607,-1.438,-0.77,3.24,4.43,-0.01,-0.54,0.75
2022-01-25 17:22:10.3700,-0.024,-0.466,-1.451,0.26,2.1,5.18,-0.01,-0.54,0.75
2022-01-25 17:22:10.3810,-0.051,-0.406,-1.435,1.35,0.59,5.42,0.62,0.35,0.27
2022-01-25 17:22:10.3900,-0.048,-0.333,-1.434,1.76,-0.85,5.32,0.75,0.61,-0.02
2022-01-25 17:22:10.4010,-0.067,-0.258,-1.374,1.76,-0.85,5.32,0.71,0.77,-0.24
2022-01-25 17:22:10.4110,-0.117,-0.203,-1.294,1.99,-1.67,4.86,0.58,0.79,-0.3
2022-01-25 17:22:10.4210,-0.171,-0.159,-1.235,2.52,-2.27,4.08,0.49,0.65,-0.27
2022-01-25 17:22:10.4310,-0.186,-0.157,-1.174,3.14,-2.76,3.52,0.46,0.36,-0.19
2022-01-25 17:22:10.4410,-0.166,-0.216,-1.12,3.37,-2.89,2.95,0.45,0.02,-0.11
2022-01-25 17:22:10.4510,-0.145,-0.292,-1.062,3.19,-2.4,2.42,0.43,-0.29,-0.1
2022-01-25 17:22:10.4610,-0.142,-0.328,-0.987,2.94,-1.67,1.88,0.39,-0.46,-0.19
2022-01-25 17:22:10.4710,-0.139,-0.341,-0.897,2.86,-1.29,1.18,0.32,-0.46,-0.35
2022-01-25 17:22:10.4810,-0.115,-0.373,-0.812,2.83,-1.19,0.32,0.24,-0.31,-0.54
2022-01-25 17:22:10.4910,-0.067,-0.417,-0.744,2.64,-0.91,-0.53,0.15,-0.1,-0.76
2022-01-25 17:22:10.5010,-0.016,-0.448,-0.702,1.77,-0.13,-1.65,0.06,0.08,-0.94
2022-01-25 17:22:10.5110,0.012,-0.44,-0.67,1.77,-0.13,-1.65,0.06,0.08,-0.94
2022-01-25 17:22:10.5210,0.036,-0.402,-0.644,1.53,-0.13,-1.97,0.07,0.19,-1.1
2022-01-25 17:22:10.5310,0.064,-0.366,-0.631,1.36,-0.48,-2.23,0.17,0.07,-1.1
2022-01-25 17:22:10.5410,0.1,-0.337,-0.605,1.14,-0.84,-2.36,0.3,-0.11,-1.09
2022-01-25 17:22:10.5510,0.135,-0.297,-0.573,0.5,-1.53,-2.87,0.41,-0.29,-1.07
2022-01-25 17:22:10.5610,0.158,-0.254,-0.532,0.5,-1.53,-2.87,0.48,-0.43,-1.04
2022-01-25 17:22:10.5710,0.174,-0.21,-0.482,0.27,-1.98,-3.26,0.49,-0.47,-0.99
2022-01-25 17:22:10.5810,0.173,-0.172,-0.437,0.11,-2.43,-3.72,0.44,-0.43,-0.91
2022-01-25 17:22:10.5910,0.156,-0.147,-0.406,0.1,-2.83,-4.17,0.36,-0.3,-0.81
2022-01-25 17:22:10.6010,0.132,-0.124,-0.386,0.51,-3.34,-4.69,0.27,-0.14,-0.69
2022-01-25 17:22:10.6120,0.111,-0.121,-0.39,0.51,-3.34,-4.69,0.19,-0.01,-0.57
2022-01-25 17:22:10.6210,0.107,-0.151,-0.407,0.75,-3.41,-4.67,0.15,0.08,-0.45
2022-01-25 17:22:10.6310,0.118,-0.2,-0.415,0.85,-3.16,-4.49,0.14,0.12,-0.36
2022-01-25 17:22:10.6410,0.14,-0.253,-0.435,0.78,-2.7,-4.4,0.11,0.06,-0.26
2022-01-25 17:22:10.6510,0.159,-0.326,-0.466,0.58,-2.19,-4.22,0.06,-0.02,-0.15
2022-01-25 17:22:10.6610,0.171,-0.407,-0.49,0.38,-1.5,-3.92,0.0,-0.11,-0.03
2022-01-25 17:22:10.6710,0.169,-0.47,-0.537,0.24,-0.69,-3.69,-0.04,-0.2,0.06
2022-01-25 17:22:10.6810,0.159,-0.531,-0.589,0.22,-0.05,-3.27,-0.04,-0.26,0.08
2022-01-25 17:22:10.6920,0.147,-0.571,-0.659,0.29,0.56,-2.76,-0.01,-0.33,0.01
2022-01-25 17:22:10.7020,0.135,-0.602,-0.739,0.37,0.97,-2.12,0.06,-0.39,-0.08
2022-01-25 17:22:10.7110,0.131,-0.63,-0.805,0.47,1.28,-1.33,0.15,-0.46,-0.13
2022-01-25 17:22:10.7210,0.158,-0.692,-0.857,0.49,1.54,-0.67,0.24,-0.54,-0.06
2022-01-25 17:22:10.7310,0.217,-0.776,-0.898,0.23,2.06,-0.13,0.29,-0.58,0.07
2022-01-25 17:22:10.7420,0.279,-0.836,-0.92,-0.38,2.87,0.29,0.29,-0.51,0.21
2022-01-25 17:22:10.7520,0.309,-0.882,-0.961,-1.06,3.46,0.52,0.2,-0.4,0.33
2022-01-25 17:22:10.7620,0.307,-0.878,-1.037,-1.45,3.93,0.87,0.04,-0.35,0.36
2022-01-25 17:22:10.7720,0.284,-0.839,-1.135,-1.51,3.95,1.58,-0.11,-0.32,0.29
2022-01-25 17:22:10.7820,0.247,-0.786,-1.214,-1.34,3.6,2.53,-0.22,-0.23,0.15
2022-01-25 17:22:10.7920,0.214,-0.754,-1.263,-1.0,3.12,3.31,-0.25,0.02,0.04
2022-01-25 17:22:10.8020,0.205,-0.779,-1.263,-0.66,2.76,3.83,-0.19,0.39,0.11
2022-01-25 17:22:10.8120,0.22,-0.847,-1.259,-0.49,2.95,3.88,-0.05,0.71,0.36
2022-01-25 17:22:10.8220,0.234,-0.891,-1.27,-0.58,3.59,3.83,0.07,0.82,0.61
2022-01-25 17:22:10.8320,0.261,-0.885,-1.314,-0.68,4.07,3.93,0.08,0.62,0.67
2022-01-25 17:22:10.8420,0.279,-0.854,-1.391,-0.92,4.04,4.32,-0.06,0.17,0.51
2022-01-25 17:22:10.8520,0.258,-0.766,-1.433,-1.15,3.79,5.05,-0.21,-0.2,0.26
2022-01-25 17:22:10.8620,0.212,-0.671,-1.382,-1.03,3.01,5.54,-0.24,-0.18,0.09
2022-01-25 17:22:10.8720,0.182,-0.587,-1.299,-0.59,2.06,5.14,-0.09,0.03,0.05
2022-01-25 17:22:10.8820,0.16,-0.464,-1.265,-0.27,1.26,4.29,0.19,0.23,0.11
2022-01-25 17:22:10.8920,0.14,-0.335,-1.188,-0.03,0.07,3.96,0.48,0.4,0.22
2022-01-25 17:22:10.9020,0.136,-0.249,-1.12,0.2,-1.27,3.3,0.66,0.34,0.34
2022-01-25 17:22:10.9120,0.149,-0.217,-1.069,0.26,-2.25,2.61,0.74,0.11,0.4
2022-01-25 17:22:10.9220,0.172,-0.231,-1.002,0.14,-2.69,2.16,0.71,-0.23,0.38
2022-01-25 17:22:10.9320,0.19,-0.239,-0.944,-0.14,-2.65,1.54,0.57,-0.56,0.27
2022-01-25 17:22:10.9430,0.191,-0.227,-0.867,-0.39,-2.58,0.98,0.34,-0.74,0.08
2022-01-25 17:22:10.9520,0.19,-0.215,-0.781,-0.48,-2.71,0.26,0.05,-0.73,-0.11
2022-01-25 17:22:10.9630,0.197,-0.206,-0.71,-0.52,-2.83,-0.61,-0.25,-0.56,-0.27
2022-01-25 17:22:10.9720,0.223,-0.207,-0.665,-0.59,-2.87,-1.35,-0.53,-0.32,-0.36
2022-01-25 17:22:10.9830,0.265,-0.237,-0.657,-0.83,-2.84,-1.87,-0.74,-0.12,-0.33
2022-01-25 17:22:10.9930,0.306,-0.287,-0.669,-1.21,-2.51,-2.03,-0.87,0.03,-0.21
2022-01-25 17:22:11.0030,0.34,-0.345,-0.698,-1.62,-1.95,-1.97,-0.9,0.06,-0.0
2022-01-25 17:22:11.0130,0.342,-0.396,-0.756,-1.97,-1.32,-1.76,-0.83,-0.05,0.25
2022-01-25 17:22:11.0220,0.304,-0.416,-0.797,-2.07,-0.73,-1.25,-0.64,-0.22,0.47
2022-01-25 17:22:11.0330,0.249,-0.415,-0.806,-1.78,-0.45,-0.83,-0.64,-0.22,0.47
2022-01-25 17:22:11.0430,0.199,-0.415,-0.788,-1.31,-0.43,-0.73,-0.08,-0.36,0.69
2022-01-25 17:22:11.0530,0.159,-0.416,-0.73,-0.86,-0.45,-0.87,0.14,-0.25,0.69
2022-01-25 17:22:11.0630,0.124,-0.413,-0.66,-0.51,-0.46,-1.39,0.25,-0.04,0.63
2022-01-25 17:22:11.0730,0.099,-0.402,-0.592,-0.19,-0.5,-2.06,0.25,-0.04,0.63
2022-01-25 17:22:11.0830,0.085,-0.387,-0.547,0.25,-0.8,-3.19,0.23,0.35,0.41
2022-01-25 17:22:11.0930,0.089,-0.38,-0.521,0.25,-0.8,-3.19,0.17,0.47,0.33
2022-01-25 17:22:11.1030,0.095,-0.374,-0.507,0.25,-0.89,-3.44,0.14,0.51,0.31
2022-01-25 17:22:11.1130,0.09,-0.369,-0.514,0.21,-0.96,-3.6,0.14,0.51,0.31
2022-01-25 17:22:11.1230,0.08,-0.356,-0.522,0.27,-1.03,-3.53,0.23,0.33,0.4
2022-01-25 17:22:11.1330,0.07,-0.35,-0.524,0.36,-1.18,-3.43,0.33,0.22,0.47
2022-01-25 17:22:11.1430,0.054,-0.347,-0.516,0.46,-1.28,-3.39,0.42,0.16,0.53
2022-01-25 17:22:11.1530,0.029,-0.352,-0.501,0.59,-1.36,-3.43,0.46,0.12,0.57
2022-01-25 17:22:11.1630,0.019,-0.369,-0.484,0.81,-1.36,-3.55,0.46,0.14,0.56
2022-01-25 17:22:11.1730,0.032,-0.394,-0.473,0.81,-1.06,-3.79,0.4,0.15,0.52
2022-01-25 17:22:11.1830,0.058,-0.433,-0.489,0.81,-1.06,-3.79,0.32,0.13,0.47
2022-01-25 17:22:11.1930,0.075,-0.475,-0.517,0.55,-0.72,-3.67,0.24,0.12,0.42
2022-01-25 17:22:11.2030,0.098,-0.509,-0.543,0.36,-0.32,-3.37,0.16,0.18,0.39
2022-01-25 17:22:11.2130,0.137,-0.547,-0.584,0.16,0.0,-3.12,0.16,0.18,0.39
2022-01-25 17:22:11.2230,0.185,-0.591,-0.633,-0.19,0.37,-2.74,-0.11,0.63,0.41
2022-01-25 17:22:11.2340,0.237,-0.631,-0.695,-0.61,0.81,-2.26,-0.34,0.94,0.41
2022-01-25 17:22:11.2440,0.28,-0.681,-0.804,-1.05,1.24,-1.69,-0.57,1.15,0.4
2022-01-25 17:22:11.2540,0.276,-0.714,-0.931,-1.43,1.76,-0.7,-0.68,1.16,0.4
2022-01-25 17:22:11.2640,0.249,-0.711,-1.065,-1.38,2.18,0.52,-0.56,0.91,0.39
2022-01-25 17:22:11.2740,0.247,-0.704,-1.151,-1.06,2.22,1.83,-0.25,0.51,0.43
2022-01-25 17:22:11.2840,0.317,-0.767,-1.173,-1.0,2.14,2.76,0.07,0.09,0.57
2022-01-25 17:22:11.2930,0.405,-0.91,-1.144,-1.6,2.59,3.05,0.23,-0.16,0.87
2022-01-25 17:22:11.3040,0.429,-1.027,-1.069,-2.58,3.94,2.83,0.24,-0.17,1.26
2022-01-25 17:22:11.3140,0.386,-1.078,-1.051,-2.99,5.11,2.13,0.19,-0.11,1.63
2022-01-25 17:22:11.3240,0.288,-1.047,-1.066,-2.74,5.66,1.86,0.18,-0.11,1.83
2022-01-25 17:22:11.3340,0.193,-0.91,-1.141,-1.09,4.18,2.61,0.06,-0.38,1.71
2022-01-25 17:22:11.3440,0.135,-0.824,-1.28,-1.09,4.18,2.61,-0.17,-0.86,1.36
2022-01-25 17:22:11.3540,0.119,-0.846,-1.364,-0.61,3.19,3.93,-0.36,-1.21,0.97
2022-01-25 17:22:11.3640,0.069,-0.781,-1.376,-0.58,3.4,4.84,-0.42,-1.23,0.65
2022-01-25 17:22:11.3750,0.004,-0.62,-1.376,-0.26,2.95,4.99,-0.37,-0.93,0.33
2022-01-25 17:22:11.3840,-0.009,-0.443,-1.39,0.31,1.48,4.94,-0.17,-0.47,0.05
2022-01-25 17:22:11.3940,-0.02,-0.288,-1.382,0.48,-0.28,5.08,0.1,0.03,-0.11
2022-01-25 17:22:11.4040,-0.045,-0.128,-1.319,0.58,-1.82,5.06,0.41,0.47,-0.09
2022-01-25 17:22:11.4140,-0.067,-0.023,-1.222,0.88,-3.44,4.53,0.69,0.78,0.06
2022-01-25 17:22:11.4240,-0.114,-0.015,-1.121,1.16,-4.64,2.661165491938591,0.8,0.83,0.2
2022-01-25 17:22:11.4340,-0.15,-0.088,-1.001,1.61,-4.9,2.66,0.7,0.88,0.32
2022-01-25 17:22:11.4440,-0.188,-0.225,-0.928,2.1,-4.34,1.64,0.39,0.59,0.38
2022-01-25 17:22:11.4550,-0.232,-0.344,-0.892,2.42,-3.07,0.72,0.17,0.33,0.26
2022-01-25 17:22:11.4650,-0.219,-0.343,-0.829,2.95,-1.78,0.54,0.03,-0.09,0.14
2022-01-25 17:22:11.4740,-0.255,-0.429,-0.819,2.77,-1.76,-0.26,-0.03,-0.35,0.07
2022-01-25 17:22:11.4840,-0.234,-0.429,-0.73,2.93,-0.83,-1.14,-0.08,-0.46,-0.11
2022-01-25 17:22:11.4940,-0.193,-0.442,-0.687,2.93,-0.83,-1.14,-0.15,-0.41,-0.31
2022-01-25 17:22:11.5040,-0.15,-0.499,-0.642,2.51,-0.8,-1.6,-0.24,-0.25,-0.54
2022-01-25 17:22:11.5140,-0.096,-0.504,-0.61,2.12,-0.18,-2.06,-0.35,-0.05,-0.77
2022-01-25 17:22:11.5250,-0.046,-0.496,-0.603,1.64,-0.05,-2.41,-0.44,0.12,-0.93
2022-01-25 17:22:11.5350,-0.004,-0.478,-0.605,0.85,-0.18,-2.54,-0.48,0.22,-1.03
2022-01-25 17:22:11.5450,0.044,-0.455,-0.611,0.45,-0.36,-2.51,-0.48,0.22,-1.03
2022-01-25 17:22:11.5550,0.084,-0.441,-0.621,0.45,-0.36,-2.51,-0.42,0.16,-1.06
2022-01-25 17:22:11.5640,0.105,-0.424,-0.632,0.1,-0.46,-2.44,-0.33,0.08,-1.04
2022-01-25 17:22:11.5750,0.124,-0.403,-0.62,-0.06,-0.59,-2.33,-0.21,0.01,-1.01
2022-01-25 17:22:11.5850,0.136,-0.379,-0.613,-0.29,-0.98,-2.51,-0.11,-0.04,-0.97
2022-01-25 17:22:11.5950,0.138,-0.352,-0.594,-0.29,-0.98,-2.51,-0.01,-0.06,-0.88
2022-01-25 17:22:11.6050,0.13,-0.317,-0.568,-0.29,-1.23,-2.68,0.07,-0.03,-0.77
2022-01-25 17:22:11.6150,0.115,-0.276,-0.538,-0.19,-1.56,-2.93,0.13,0.03,-0.65
2022-01-25 17:22:11.6250,0.101,-0.241,-0.511,0.16,-2.35,-3.47,0.2,0.12,-0.51
2022-01-25 17:22:11.6350,0.099,-0.237,-0.489,0.16,-2.35,-3.47,0.24,0.18,-0.37
2022-01-25 17:22:11.6450,0.104,-0.254,-0.488,0.23,-2.44,-3.7,0.27,0.19,-0.23
2022-01-25 17:22:11.6550,0.113,-0.29,-0.484,0.21,-2.3,-3.71,0.25,0.15,-0.09
2022-01-25 17:22:11.6650,0.13,-0.341,-0.496,0.14,-2.0,-3.73,0.21,0.07,0.02
2022-01-25 17:22:11.6750,0.139,-0.409,-0.509,-0.03,-1.52,-3.63,0.15,0.01,0.11
2022-01-25 17:22:11.6850,0.132,-0.477,-0.533,-0.14,-0.89,-3.49,0.08,-0.02,0.18
2022-01-25 17:22:11.6950,0.124,-0.535,-0.577,-0.09,-0.22,-3.28,0.04,-0.06,0.22
2022-01-25 17:22:11.7050,0.111,-0.58,-0.645,-0.04,0.36,-2.87,0.03,-0.12,0.22
2022-01-25 17:22:11.7150,0.093,-0.635,-0.727,0.06,0.81,-2.24,0.03,-0.12,0.22
2022-01-25 17:22:11.7250,0.075,-0.684,-0.807,0.22,1.32,-1.43,0.13,-0.16,0.23
2022-01-25 17:22:11.7360,0.059,-0.732,-0.868,0.37,1.8,-0.64,0.23,-0.1,0.26
2022-01-25 17:22:11.7450,0.046,-0.778,-0.927,0.5,2.25,0.0,0.31,-0.02,0.31
2022-01-25 17:22:11.7550,0.037,-0.843,-0.983,0.62,2.66,0.59,0.35,0.04,0.39
2022-01-25 17:22:11.7650,0.026,-0.91,-1.052,0.69,3.24,1.16,0.36,0.0,0.48
2022-01-25 17:22:11.7750,0.005,-0.947,-1.122,0.77,3.88,1.82,0.37,-0.11,0.52
2022-01-25 17:22:11.7850,-0.014,-0.942,-1.172,0.93,4.27,2.55,0.37,-0.2,0.45
2022-01-25 17:22:11.7950,-0.035,-0.935,-1.186,1.08,4.21,3.09,0.32,-0.12,0.29
2022-01-25 17:22:11.8050,-0.037,-0.939,-1.174,1.28,4.1,3.28,0.22,0.15,0.16
2022-01-25 17:22:11.8150,-0.039,-0.954,-1.15,1.33,4.12,3.19,0.17,0.61,0.12
2022-01-25 17:22:11.8250,-0.013,-0.967,-1.148,1.42,4.24,2.99,0.14,0.96,0.14
2022-01-25 17:22:11.8350,0.05,-0.983,-1.21,1.29,4.36,2.91,0.09,0.99,0.07
2022-01-25 17:22:11.8450,0.151,-1.003,-1.294,0.78,4.51,3.48,-0.08,0.73,-0.09
2022-01-25 17:22:11.8550,0.241,-0.996,-1.341,-0.12,4.72,4.3,-0.35,0.37,-0.25
2022-01-25 17:22:11.8650,0.279,-0.917,-1.346,-1.01,4.76,4.8,-0.62,0.14,-0.29
2022-01-25 17:22:11.8760,0.29,-0.785,-1.32,-1.43,4.14,4.87,-0.74,0.09,-0.23
2022-01-25 17:22:11.8860,0.299,-0.641,-1.314,-1.52,2.95,4.58,-0.65,0.12,-0.11
2022-01-25 17:22:11.8960,0.306,-0.497,-1.307,-1.6,1.59,4.48,-0.39,0.15,0.01
2022-01-25 17:22:11.9050,0.307,-0.358,-1.277,-1.66,0.21,4.41,-0.07,0.12,0.13
2022-01-25 17:22:11.9160,0.282,-0.255,-1.254,-1.69,-1.18,4.15,0.26,-0.01,0.22
2022-01-25 17:22:11.9260,0.23,-0.184,-1.244,-1.05,-3.06,3.84,0.61,-0.21,0.24
2022-01-25 17:22:11.9360,0.195,-0.126,-1.231,-1.05,-3.06,3.84,0.93,-0.4,0.14
2022-01-25 17:22:11.9460,0.192,-0.105,-1.179,-0.7,-3.75,3.77,1.12,-0.42,-0.03
2022-01-25 17:22:11.9560,0.213,-0.118,-1.065,-0.66,-4.09,3.39,1.09,-0.21,-0.19
2022-01-25 17:22:11.9660,0.24,-0.169,-0.921,-0.84,-4.1,2.38,0.89,0.11,-0.33
2022-01-25 17:22:11.9760,0.262,-0.216,-0.781,-1.07,-3.67,1.03,0.6,0.4,-0.42
2022-01-25 17:22:11.9950,0.284,-0.261,-0.662,-1.38,-2.81,-1.53,0.29,0.52,-0.43
2022-01-25 17:22:11.9990,0.309,-0.319,-0.597,-1.59,-2.24,-2.24,-0.0,0.35,-0.36
2022-01-25 17:22:12.0050,0.323,-0.367,-0.584,-1.59,-2.24,-2.24,-0.25,-0.03,-0.24
2022-01-25 17:22:12.0150,0.319,-0.376,-0.576,-1.76,-1.7,-2.43,-0.4,-0.46,-0.08
2022-01-25 17:22:12.0250,0.307,-0.373,-0.55,-1.78,-1.54,-2.52,-0.46,-0.77,0.11
2022-01-25 17:22:12.0350,0.266,-0.375,-0.537,-1.76,-1.53,-2.8,-0.43,-0.96,0.33
2022-01-25 17:22:12.0450,0.193,-0.373,-0.527,-1.51,-1.49,-3.0,-0.33,-0.95,0.54
2022-01-25 17:22:12.0540,0.121,-0.366,-0.509,-0.92,-1.49,-3.09,-0.22,-0.8,0.7
2022-01-25 17:22:12.0650,0.064,-0.367,-0.507,-0.3,-1.54,-3.31,-0.1,-0.57,0.76
2022-01-25 17:22:12.0740,0.029,-0.38,-0.509,0.2,-1.55,-3.34,-0.01,-0.37,0.72
2022-01-25 17:22:12.0860,0.007,-0.39,-0.516,0.51,-1.44,-3.33,0.04,-0.22,0.59
Time,-0.006,-0.394,-0.506,0.7,-1.34,-3.26,0.07,-0.12,0.42
2022-01-25 17:22:12.1050,-0.006,-0.398,-0.491,0.81,-1.3,-3.34,0.07,-0.06,0.24
2022-01-25 17:22:12.1160,0.012,-0.397,-0.468,0.82,-1.27,-3.47,0.08,-0.02,0.09
2022-01-25 17:22:12.1250,0.034,-0.4,-0.453,0.66,-1.28,-3.69,0.1,-0.0,-0.02
2022-01-25 17:22:12.1360,0.048,-0.402,-0.442,0.43,-1.26,-3.85,0.11,0.02,-0.08
2022-01-25 17:22:12.1460,0.06,-0.409,-0.434,0.29,-1.24,-3.96,0.11,0.05,-0.05
2022-01-25 17:22:12.1560,0.067,-0.428,-0.444,0.18,-1.2,-4.04,0.08,0.06,0.05
2022-01-25 17:22:12.1660,0.07,-0.451,-0.483,0.11,-1.03,-3.97,0.07,-0.01,0.19
2022-01-25 17:22:12.1760,0.069,-0.464,-0.534,0.05,-0.8,-3.61,0.1,-0.15,0.31
2022-01-25 17:22:12.1860,0.047,-0.473,-0.588,0.02,-0.68,-3.11,0.18,-0.32,0.4
2022-01-25 17:22:12.1960,0.01,-0.48,-0.632,0.14,-0.61,-2.58,0.3,-0.45,0.44
2022-01-25 17:22:12.2060,-0.029,-0.499,-0.656,0.44,-0.58,-2.1,0.44,-0.5,0.39
2022-01-25 17:22:12.2160,-0.053,-0.534,-0.674,0.77,-0.45,-1.84,0.52,-0.44,0.26
2022-01-25 17:22:12.2260,-0.055,-0.584,-0.666,0.99,-0.17,-1.61,0.52,-0.28,0.11
2022-01-25 17:22:12.2360,-0.046,-0.646,-0.668,1.0,0.27,-1.64,0.43,-0.15,-0.03
2022-01-25 17:22:12.2460,-0.018,-0.71,-0.697,0.92,0.85,-1.64,0.26,-0.09,-0.11
2022-01-25 17:22:12.2560,0.029,-0.774,-0.73,0.67,1.45,-1.36,0.08,-0.11,-0.13
2022-01-25 17:22:12.2660,0.078,-0.83,-0.803,0.23,2.09,-1.05,-0.05,-0.28,-0.12
2022-01-25 17:22:12.2760,0.102,-0.875,-0.902,-0.29,2.66,-0.41,-0.08,-0.49,-0.12
2022-01-25 17:22:12.2860,0.107,-0.894,-0.982,-0.6,3.12,0.56,-0.01,-0.62,-0.15
2022-01-25 17:22:12.2960,0.098,-0.902,-1.035,-0.71,3.34,1.37,0.13,-0.57,-0.19
Time,0.073,-0.914,-1.053,-0.67,3.41,1.93,0.26,-0.27,-0.22
2022-01-25 17:22:12.3160,0.059,-0.955,-1.048,-0.43,3.49,2.17,0.34,0.2,-0.19
2022-01-25 17:22:12.3260,0.068,-1.032,-1.088,-0.22,3.81,2.14,0.39,0.61,-0.08
2022-01-25 17:22:12.3360,0.065,-1.13,-1.204,-0.24,4.49,2.48,0.55,0.68,0.07
2022-01-25 17:22:12.3460,0.033,-1.145,-1.365,-0.21,5.41,3.56,0.81,0.31,0.07
2022-01-25 17:22:12.3560,0.016,-1.051,-1.5,0.09,5.65,5.17,0.97,-0.3,-0.15
2022-01-25 17:22:12.3660,0.011,-1.003,-1.52,0.27,4.73,6.62,0.89,-0.65,-0.34
2022-01-25 17:22:12.3760,-0.032,-1.032,-1.424,0.28,4.04,7.05,0.76,-0.52,-0.41
2022-01-25 17:22:12.3860,-0.098,-0.907,-1.348,0.63,4.31,6.22,0.78,-0.19,-0.52
2022-01-25 17:22:12.3960,-0.134,-0.722,-1.325,1.31,3.24,5.44,0.95,0.1,-0.7
2022-01-25 17:22:12.4060,-0.128,-0.584,-1.302,1.78,1.3,5.24,1.14,0.26,-0.92
2022-01-25 17:22:12.4170,-0.104,-0.46,-1.236,1.85,-0.17,5.11,1.26,0.35,-1.1
2022-01-25 17:22:12.4270,-0.081,-0.353,-1.122,1.72,-1.49,4.61,1.26,0.43,-1.16
2022-01-25 17:22:12.4370,-0.07,-0.286,-0.996,1.59,-2.65,3.61,1.2,0.48,-1.02
2022-01-25 17:22:12.4470,-0.064,-0.255,-0.89,1.55,-3.45,2.44,1.08,0.43,-0.78
2022-01-25 17:22:12.4570,-0.031,-0.269,-0.804,1.58,-3.86,1.44,0.94,0.28,-0.52
2022-01-25 17:22:12.4670,-0.01,-0.31,-0.719,1.33,-3.84,0.64,0.75,0.08,-0.32
2022-01-25 17:22:12.4770,-0.013,-0.336,-0.651,1.1,-3.49,-0.15,0.53,-0.16,-0.24
2022-01-25 17:22:12.4870,-0.009,-0.361,-0.59,1.11,-3.24,-0.82,0.29,-0.36,-0.28
2022-01-25 17:22:12.4970,-0.008,-0.384,-0.54,1.09,-3.02,-1.41,0.03,-0.47,-0.38
2022-01-25 17:22:12.5070,-0.006,-0.392,-0.489,1.05,-2.76,-1.92,-0.23,-0.44,-0.52
2022-01-25 17:22:12.5170,0.03,-0.429,-0.452,1.07,-2.65,-2.45,-0.48,-0.27,-0.63
2022-01-25 17:22:12.5270,0.086,-0.497,-0.44,0.78,-2.3,-2.89,-0.66,-0.03,-0.69
2022-01-25 17:22:12.5370,0.147,-0.539,-0.452,0.29,-1.57,-3.07,-0.76,0.19,-0.71
2022-01-25 17:22:12.5470,0.184,-0.555,-0.487,-0.25,-1.05,-3.04,-0.76,0.31,-0.68
2022-01-25 17:22:12.5570,0.204,-0.557,-0.529,-0.58,-0.81,-2.75,-0.4821304380893707,0.14,-0.6
2022-01-25 17:22:12.5690,0.216,-0.556,-0.574,-0.86,-0.73,-1.93,-0.48,0.14,-0.6
2022-01-25 17:22:12.5790,0.227,-0.545,-0.597,-0.92,-0.78,-1.69,-0.26,-0.04,-0.62
2022-01-25 17:22:12.5890,0.229,-0.518,-0.596,-0.93,-1.01,-1.69,0.06,-0.26,-0.7
2022-01-25 17:22:12.5990,0.216,-0.482,-0.57,-0.8,-1.34,-1.92,0.11,-0.18,-0.7
2022-01-25 17:22:12.6090,0.201,-0.439,-0.522,-0.62,-1.75,-2.38,0.11,-0.18,-0.7
2022-01-25 17:22:12.6190,0.184,-0.394,-0.479,-0.43,-2.2,-2.81,0.1,0.2,-0.5
2022-01-25 17:22:12.6290,0.158,-0.363,-0.446,-0.15,-2.51,-3.14,0.14,0.39,-0.32
2022-01-25 17:22:12.6390,0.139,-0.34,-0.42,0.11,-2.75,-3.4,0.21,0.48,-0.15
2022-01-25 17:22:12.6490,0.139,-0.335,-0.413,0.18,-2.84,-3.47,0.21,0.48,-0.15
2022-01-25 17:22:12.6590,0.137,-0.364,-0.42,0.22,-2.6,-3.4,0.37,0.18,0.13
2022-01-25 17:22:12.6690,0.122,-0.403,-0.435,0.37,-2.25,-3.22,0.4,-0.08,0.2
2022-01-25 17:22:12.6790,0.101,-0.445,-0.44,0.57,-1.88,-3.15,0.4,-0.32,0.24
2022-01-25 17:22:12.6890,0.068,-0.497,-0.445,0.85,-1.41,-3.08,0.35,-0.32,0.24
2022-01-25 17:22:12.6990,0.038,-0.546,-0.44,1.12,-0.94,-3.1,0.13,-0.44,0.14
2022-01-25 17:22:12.7090,0.027,-0.59,-0.438,1.21,-0.53,-3.12,0.13,-0.44,0.14
2022-01-25 17:22:12.7190,0.035,-0.645,-0.438,1.11,0.0,-3.12,-0.1,0.03,-0.01
2022-01-25 17:22:12.7300,0.057,-0.693,-0.446,0.9,0.48,-3.07,-0.1,0.03,-0.01
2022-01-25 17:22:12.7390,0.085,-0.744,-0.488,0.63,0.98,-2.72,-0.22,0.25,0.14
2022-01-25 17:22:12.7490,0.088,-0.812,-0.584,0.58,1.64,-1.85,-0.22,0.25,0.14
2022-01-25 17:22:12.7600,0.075,-0.875,-0.703,0.69,2.3,-0.71,-0.17,0.02,0.29
2022-01-25 17:22:12.7700,0.055,-0.926,-0.827,0.86,2.82,0.51,-0.06,-0.3,0.38
2022-01-25 17:22:12.7800,0.037,-0.949,-0.907,0.99,3.09,1.37,0.17,-0.5,0.24
2022-01-25 17:22:12.7890,0.024,-0.938,-0.936,1.06,2.99,1.69,0.17,-0.5,0.24
2022-01-25 17:22:12.8000,0.017,-0.92,-0.927,1.1,2.8,1.66,0.12,-0.24,0.1
2022-01-25 17:22:12.8100,0.029,-0.913,-0.884,1.0,2.71,1.26,-0.02,0.24,0.03
2022-01-25 17:22:12.8200,0.069,-0.917,-0.844,0.68,2.74,0.87,-0.34,1.5,0.34
2022-01-25 17:22:12.8300,0.143,-0.965,-0.81,0.06,3.13,0.5,-0.35,1.78,0.7
2022-01-25 17:22:12.8400,0.238,-1.096,-0.837,-0.76,4.38,0.65,-0.35,1.78,0.7
2022-01-25 17:22:12.8500,0.333,-1.183,-0.984,-1.62,5.35,1.96,-0.25,0.39,0.81
2022-01-25 17:22:12.8600,0.417,-1.214,-1.173,-2.46,5.7,3.83,-0.25,0.39,0.81
2022-01-25 17:22:12.8700,0.454,-1.214,-1.295,-2.94,5.78,5.12,-0.28,-0.56,0.48
2022-01-25 17:22:12.8800,0.408,-1.108,-1.304,-2.68,4.93,5.33,-0.45,-0.77,-0.1
2022-01-25 17:22:12.8900,0.295,-0.896,-1.237,-1.68,2.95,4.66,-0.49,-0.18,-0.2
2022-01-25 17:22:12.9000,0.2,-0.685,-1.182,-0.74,0.88,4.06,-0.41,0.42,-0.21
2022-01-25 17:22:12.9100,0.145,-0.512,-1.144,-0.13,-0.83,3.63,-0.41,0.42,-0.21
2022-01-25 17:22:12.9200,0.124,-0.375,-1.137,0.16,-2.2,3.53,-0.22,0.76,-0.15
2022-01-25 17:22:12.9300,0.113,-0.316,-1.101,0.34,-2.87,3.23,0.33,0.41,0.19
2022-01-25 17:22:12.9400,0.124,-0.322,-1.053,0.32,-2.88,2.76,0.45,-0.19,0.32
2022-01-25 17:22:12.9510,0.152,-0.345,-0.997,0.04,-2.69,2.28,0.45,-0.19,0.32
2022-01-25 17:22:12.9610,0.174,-0.369,-0.915,-0.24,-2.49,1.5,0.18,-1.27,0.39
2022-01-25 17:22:12.9700,0.171,-0.402,-0.851,-0.35,-2.22,0.86,0.18,-1.27,0.39
2022-01-25 17:22:12.9810,0.154,-0.43,-0.784,-0.3,-1.92,0.21,-0.01,-1.38,0.32
2022-01-25 17:22:12.9910,0.149,-0.438,-0.701,-0.36,-1.83,-0.63,-0.38,-0.68,0.03
2022-01-25 17:22:13.0000,0.15,-0.455,-0.656,-0.55,-1.38,-1.26,-0.38,-0.68,0.03
2022-01-25 17:22:13.0110,0.158,-0.481,-0.651,-0.55,-1.38,-1.26,-0.61,-0.21,-0.12
2022-01-25 17:22:13.0210,0.185,-0.504,-0.666,-0.78,-1.09,-1.2,-0.82,0.16,-0.27
2022-01-25 17:22:13.0310,0.217,-0.519,-0.711,-1.06,-0.86,-0.84,-0.99,0.35,-0.36
2022-01-25 17:22:13.0400,0.247,-0.541,-0.758,-1.31,-0.57,-0.43,-1.07,0.38,-0.36
2022-01-25 17:22:13.0510,0.255,-0.558,-0.794,-1.39,-0.3,-0.11,-0.8,0.21,-0.06
2022-01-25 17:22:13.0610,0.239,-0.552,-0.815,-1.21,-0.25,0.06,-0.8,0.21,-0.06
2022-01-25 17:22:13.0710,0.212,-0.533,-0.814,-0.94,-0.37,0.05,-0.47,0.1,0.15
2022-01-25 17:22:13.0810,0.181,-0.502,-0.788,-0.65,-0.63,-0.2,-0.08,-0.0,0.31
2022-01-25 17:22:13.0910,0.147,-0.467,-0.733,-0.33,-0.99,-0.7,0.51,0.03,0.41
2022-01-25 17:22:13.1010,0.123,-0.44,-0.646,-0.11,-1.29,-1.51,0.51,0.03,0.41
2022-01-25 17:22:13.1110,0.1,-0.422,-0.564,0.09,-1.53,-2.3,0.6,0.11,0.39
2022-01-25 17:22:13.1210,0.078,-0.407,-0.499,0.3,-1.73,-2.92,0.57,0.19,0.35
2022-01-25 17:22:13.1310,0.062,-0.394,-0.453,0.46,-1.91,-3.37,0.47,0.25,0.32
2022-01-25 17:22:13.1410,0.039,-0.389,-0.416,0.67,-2.0,-3.71,0.3,0.36,0.33
2022-01-25 17:22:13.1510,0.008,-0.382,-0.386,0.98,-2.1,-3.99,0.3,0.36,0.33
2022-01-25 17:22:13.1630,-0.011,-0.386,-0.365,1.2,-2.11,-4.19,0.28,0.36,0.35
2022-01-25 17:22:13.1710,-0.011,-0.421,-0.369,1.23,-1.82,-4.17,0.3,0.24,0.39
2022-01-25 17:22:13.1810,-0.001,-0.463,-0.389,1.12,-1.43,-3.95,0.32,0.04,0.42
2022-01-25 17:22:13.1910,0.01,-0.493,-0.394,0.98,-1.15,-3.86,0.24,-0.25,0.37
2022-01-25 17:22:13.2010,0.001,-0.51,-0.393,1.0,-0.99,-3.85,0.13,-0.29,0.31
2022-01-25 17:22:13.2120,-0.019,-0.526,-0.393,1.16,-0.86,-3.86,-0.01,-0.29,0.21
2022-01-25 17:22:13.2210,-0.014,-0.551,-0.408,1.12,-0.64,-3.74,-0.01,-0.29,0.21
2022-01-25 17:22:13.2310,0.028,-0.595,-0.438,0.71,-0.24,-3.46,-0.16,-0.27,0.08
2022-01-25 17:22:13.2410,0.086,-0.665,-0.483,0.12,0.45,-3.06,-0.33,-0.23,-0.02
2022-01-25 17:22:13.2510,0.138,-0.729,-0.539,-0.42,1.13,-2.55,-0.7,-0.15,-0.1
2022-01-25 17:22:13.2620,0.166,-0.787,-0.611,-0.73,1.74,-1.9,-0.7,-0.15,-0.1
2022-01-25 17:22:13.2710,0.188,-0.842,-0.692,-0.94,2.37,-1.15,-0.82,-0.12,-0.1
2022-01-25 17:22:13.2810,0.21,-0.866,-0.785,-1.17,2.72,-0.32,-0.89,0.02,-0.18
2022-01-25 17:22:13.2910,0.223,-0.861,-0.873,-1.3,2.77,0.54,-0.89,0.02,-0.18
2022-01-25 17:22:13.3010,0.235,-0.835,-0.916,-1.39,2.61,0.94,-0.86,0.23,-0.2
2022-01-25 17:22:13.3200,0.256,-0.816,-0.977,-1.92,2.81,2.05,-0.84,0.42,-0.15
2022-01-25 17:22:13.3220,0.302,-0.854,-1.039,-1.92,2.81,2.05,-0.78,0.57,-0.01
2022-01-25 17:22:13.3320,0.367,-0.938,-1.076,-2.51,3.67,2.38,-0.72,0.65,0.22
2022-01-25 17:22:13.3420,0.424,-1.033,-1.135,-3.06,4.65,2.9,-0.34,0.38,0.9
2022-01-25 17:22:13.3510,0.444,-1.102,-1.208,-3.31,5.45,3.58,-0.11684645712375641,-0.12,1.13
2022-01-25 17:22:13.3620,0.398,-1.054,-1.311,-2.97,5.15,4.54,-0.12,-0.12,1.13
2022-01-25 17:22:13.3720,0.311,-0.912,-1.417,-2.23,3.79,5.59,-0.13,-0.71,1.1
2022-01-25 17:22:13.3820,0.228,-0.845,-1.468,-1.52,2.98,6.18,-0.33,-0.96,0.94
2022-01-25 17:22:13.3920,0.153,-0.869,-1.432,-0.92,3.22,5.87,-0.45,-0.69,0.76
2022-01-25 17:22:13.4020,0.051,-0.806,-1.416,-0.03,2.81,5.61,0.01,0.42,0.29
2022-01-25 17:22:13.4120,-0.054,-0.643,-1.433,1.01,1.28,5.76,0.44,0.81,0.04
2022-01-25 17:22:13.4220,-0.115,-0.485,-1.447,1.71,-0.33,5.91,0.87,0.95,-0.11
2022-01-25 17:22:13.4320,-0.126,-0.371,-1.431,1.95,-1.56,5.87,0.87,0.95,-0.11
2022-01-25 17:22:13.4420,-0.116,-0.294,-1.351,1.94,-2.42,5.2,1.37,0.65,0.04
2022-01-25 17:22:13.4520,-0.117,-0.237,-1.247,1.99,-3.11,4.28,1.37,0.65,0.04
2022-01-25 17:22:13.4620,-0.138,-0.19,-1.108,2.21,-3.67,3.04,1.39,0.03,0.49
2022-01-25 17:22:13.4720,-0.168,-0.161,-0.99,2.51,-4.13,1.9,1.39,0.03,0.49
2022-01-25 17:22:13.4820,-0.186,-0.185,-0.884,2.67,-4.06,0.96,1.28,-0.27,0.62
2022-01-25 17:22:13.4920,-0.19,-0.244,-0.764,2.65,-3.61,-0.16,0.87,-0.56,0.54
2022-01-25 17:22:13.5020,-0.18,-0.323,-0.662,2.5,-2.94,-1.12,0.87,-0.56,0.54
2022-01-25 17:22:13.5120,-0.165,-0.406,-0.569,2.28,-2.18,-2.0,0.26,-0.36,0.13
2022-01-25 17:22:13.5230,-0.144,-0.475,-0.498,2.03,-1.52,-2.7,-0.05,-0.16,-0.12
2022-01-25 17:22:13.5320,-0.125,-0.522,-0.453,1.81,-1.04,-3.17,-0.05,-0.16,-0.12
2022-01-25 17:22:13.5420,-0.095,-0.551,-0.419,1.55,-0.73,-3.53,-0.59,0.17,-0.56
2022-01-25 17:22:13.5520,-0.047,-0.584,-0.412,1.13,-0.38,-3.67,-0.59,0.17,-0.56
2022-01-25 17:22:13.5620,0.013,-0.605,-0.435,0.6,-0.08,-3.51,-0.9,0.1,-0.84
2022-01-25 17:22:13.5730,0.069,-0.6,-0.48,0.09,-0.03,-3.14,-0.9,0.1,-0.84
2022-01-25 17:22:13.5820,0.108,-0.575,-0.515,-0.25,-0.17,-2.82,-0.85,-0.11,-0.99
2022-01-25 17:22:13.5920,0.131,-0.537,-0.543,-0.44,-0.46,-2.61,-0.85,-0.11,-0.99
2022-01-25 17:22:13.6020,0.147,-0.494,-0.566,-0.56,-0.8,-2.4,-0.57,-0.1,-1.08
2022-01-25 17:22:13.6130,0.167,-0.448,-0.562,-0.7,-1.19,-2.46,-0.42,0.07,-1.06
2022-01-25 17:22:13.6220,0.189,-0.402,-0.543,-0.86,-1.59,-2.65,-0.31,0.28,-0.95
2022-01-25 17:22:13.6330,0.205,-0.372,-0.517,-0.96,-1.86,-2.93,-0.21,0.45,-0.76
2022-01-25 17:22:13.6430,0.208,-0.339,-0.504,-0.93,-2.15,-3.09,-0.21,0.45,-0.76
2022-01-25 17:22:13.6530,0.194,-0.314,-0.494,-0.73,-2.38,-3.19,-0.12,0.54,-0.5
2022-01-25 17:22:13.6630,0.18,-0.313,-0.483,-0.53,-2.42,-3.29,0.11,0.47,0.05
2022-01-25 17:22:13.6730,0.171,-0.331,-0.474,-0.38,-2.25,-3.39,0.11,0.47,0.05
2022-01-25 17:22:13.6830,0.162,-0.357,-0.477,-0.28,-2.02,-3.35,0.34,0.15,0.35
2022-01-25 17:22:13.6930,0.145,-0.379,-0.466,-0.11,-1.82,-3.42,0.39,0.02,0.4
2022-01-25 17:22:13.7020,0.111,-0.388,-0.448,0.18,-1.74,-3.58,0.38,-0.06,0.41
2022-01-25 17:22:13.7130,0.072,-0.408,-0.446,0.54,-1.62,-3.59,0.31,-0.06,0.39
2022-01-25 17:22:13.7230,0.04,-0.451,-0.438,0.84,-1.25,-3.65,0.31,-0.06,0.39
2022-01-25 17:22:13.7330,0.024,-0.508,-0.454,1.0,-0.74,-3.53,0.19,-0.02,0.34
2022-01-25 17:22:13.7430,0.03,-0.581,-0.497,0.95,-0.04,-3.11,0.02,0.03,0.25
2022-01-25 17:22:13.7530,0.038,-0.658,-0.546,0.85,0.71,-2.64,-0.28,0.12,0.13
2022-01-25 17:22:13.7630,0.026,-0.73,-0.608,0.94,1.44,-2.07,-0.28,0.12,0.13
2022-01-25 17:22:13.7730,-0.001,-0.793,-0.69,1.19,2.09,-1.3,-0.34,0.07,0.17
2022-01-25 17:22:13.7830,-0.036,-0.865,-0.778,1.52,2.8,-0.46,-0.2,-0.25,0.4
2022-01-25 17:22:13.7930,-0.064,-0.945,-0.866,1.78,3.62,0.38,-0.05,-0.48,0.47
2022-01-25 17:22:13.8030,-0.088,-0.996,-0.963,1.96,4.18,1.32,-0.05,-0.48,0.47
2022-01-25 17:22:13.8130,-0.113,-1.001,-1.05,2.13,4.28,2.19,0.07,-0.7,0.39
2022-01-25 17:22:13.8230,-0.134,-0.967,-1.108,2.28,3.98,2.8,0.01,-0.46,-0.22
2022-01-25 17:22:13.8330,-0.145,-0.904,-1.107,2.35,3.38,2.86,0.01,-0.46,-0.22
2022-01-25 17:22:13.8430,-0.134,-0.845,-1.063,2.28,2.77,2.46,-0.19,0.15,-0.5
2022-01-25 17:22:13.8530,-0.074,-0.854,-1.008,1.81,2.77,1.9,-0.38,0.93,-0.53
2022-01-25 17:22:13.8630,0.014,-0.951,-0.992,1.09,3.69,1.65,-0.53,1.43,-0.09
2022-01-25 17:22:13.8730,0.112,-1.045,-1.067,0.26,4.72,2.26,-0.53,1.43,-0.09
2022-01-25 17:22:13.8830,0.216,-1.072,-1.207,-0.64,5.11,3.57,-0.85,-0.28,-0.25
2022-01-25 17:22:13.8940,0.325,-1.084,-1.367,-1.7,5.27,5.1,-0.85,-0.28,-0.25
2022-01-25 17:22:13.9030,0.377,-1.063,-1.488,-2.33,5.24,6.32,-1.04,-1.22,-0.49
2022-01-25 17:22:13.9140,0.355,-0.954,-1.51,-2.28,4.37,6.58,-1.07,-1.64,-0.69
2022-01-25 17:22:13.9240,0.309,-0.786,-1.493,-1.93,2.86,6.34,-0.58,-1.19,-0.84
2022-01-25 17:22:13.9330,0.262,-0.61,-1.464,-1.54,1.2,6.05,-0.58,-1.19,-0.84
2022-01-25 17:22:13.9430,0.234,-0.45,-1.393,-1.28,-0.35,5.35,0.24,-0.16,-0.66
2022-01-25 17:22:13.9540,0.227,-0.327,-1.315,-1.19,-1.61,4.58,0.24,-0.16,-0.66
2022-01-25 17:22:13.9640,0.23,-0.245,-1.236,-1.19,-2.48,3.82,0.49,0.05,-0.45
2022-01-25 17:22:13.9740,0.241,-0.186,-1.158,-1.43,-3.47,2.22,0.52,-0.1,-0.12
2022-01-25 17:22:13.9840,0.26,-0.159,-1.065,-1.43,-3.47,2.22,0.52,-0.26,-0.08
2022-01-25 17:22:13.9940,0.289,-0.159,-0.957,-1.72,-3.53,1.19,0.23,-0.35,-0.08
2022-01-25 17:22:14.0040,0.311,-0.18,-0.853,-1.97,-3.38,0.17,0.03,-0.34,-0.07
2022-01-25 17:22:14.0140,0.319,-0.213,-0.751,-2.09,-3.07,-0.83,0.03,-0.34,-0.07
2022-01-25 17:22:14.0240,0.309,-0.234,-0.668,-2.04,-2.83,-1.68,-0.19,-0.28,-0.05
2022-01-25 17:22:14.0340,0.296,-0.247,-0.615,-1.92,-2.67,-2.25,-0.61,-0.12,0.05
2022-01-25 17:22:14.0440,0.285,-0.263,-0.587,-1.83,-2.49,-2.58,-0.61,-0.12,0.05
2022-01-25 17:22:14.0540,0.275,-0.286,-0.576,-1.75,-2.22,-2.74,-0.9,-0.1,0.18
2022-01-25 17:22:14.0640,0.255,-0.31,-0.586,-1.58,-1.9,-2.72,-0.9,-0.1,0.18
2022-01-25 17:22:14.0740,0.222,-0.326,-0.609,-1.29,-1.66,-2.55,-0.95,-0.19,0.23
2022-01-25 17:22:14.0840,0.187,-0.342,-0.63,-0.98,-1.43,-2.38,-0.92,-0.29,0.3
2022-01-25 17:22:14.0940,0.161,-0.36,-0.636,-0.75,-1.17,-2.34,-0.84,-0.35,0.37
2022-01-25 17:22:14.1040,0.144,-0.369,-0.629,-0.63,-1.01,-2.44,-0.61,-0.21,0.44
2022-01-25 17:22:14.1140,0.129,-0.379,-0.613,-0.53,-0.85,-2.62,-0.61,-0.21,0.44
2022-01-25 17:22:14.1240,0.108,-0.376,-0.59,-0.36,-0.82,-2.87,-0.39,0.18,0.41
2022-01-25 17:22:14.1340,0.089,-0.373,-0.565,-0.18,-0.81,-3.14,-0.39,0.34,0.37
2022-01-25 17:22:14.1440,0.077,-0.366,-0.552,-0.05,-0.84,-3.3,-0.2,0.4,0.32
2022-01-25 17:22:14.1540,0.065,-0.359,-0.544,0.08,-0.9,-3.38,-0.2,0.4,0.32
2022-01-25 17:22:14.1640,0.054,-0.36,-0.543,0.21,-0.89,-3.42,-0.1,0.24,0.26
2022-01-25 17:22:14.1740,0.047,-0.369,-0.546,0.3,-0.8,-3.39,-0.07,0.09,0.26
2022-01-25 17:22:14.1840,0.041,-0.386,-0.552,0.36,-0.63,-3.34,-0.03,-0.03,0.3
2022-01-25 17:22:14.1940,0.036,-0.399,-0.551,0.41,-0.49,-3.33,0.02,-0.09,0.36
2022-01-25 17:22:14.2040,0.024,-0.406,-0.537,0.5,-0.41,-3.46,0.05,-0.1,0.45
2022-01-25 17:22:14.2140,0.005,-0.403,-0.537,0.66,-0.43,-3.5,0.05,-0.1,0.45
2022-01-25 17:22:14.2240,0.028,-0.402,-0.511,0.44,-0.48,-3.66,0.16,0.23,0.43
2022-01-25 17:22:14.2350,0.015,-0.414,-0.493,0.51,-0.34,-3.95,0.16,0.23,0.43
2022-01-25 17:22:14.2450,0.024,-0.399,-0.561,0.49,-0.52,-3.29,-0.01,0.39,0.13
2022-01-25 17:22:14.2540,0.072,-0.438,-0.571,0.08,-0.21,-3.12,-0.01,0.39,0.13
2022-01-25 17:22:14.2640,0.146,-0.512,-0.613,-0.61,0.5,-2.81,-0.19,0.32,-0.02
2022-01-25 17:22:14.2750,0.2,-0.573,-0.695,-1.15,1.16,-2.01,-0.49,-0.09,-0.14
2022-01-25 17:22:14.2840,0.233,-0.59,-0.756,-1.48,1.42,-1.42,-0.49,-0.09,-0.14
2022-01-25 17:22:14.2950,0.261,-0.589,-0.825,-2.04,1.59,-0.37,-0.62,-0.38,-0.07
2022-01-25 17:22:14.3060,0.287,-0.598,-0.865,-2.04,1.59,-0.37,-0.72,-0.36,-0.09
2022-01-25 17:22:14.3150,0.318,-0.59,-0.904,-2.36,1.62,-0.02,-0.72,-0.36,-0.09
2022-01-25 17:22:14.3250,0.365,-0.58,-0.927,-2.84,1.52,0.2,-0.95,-0.04,-0.14
2022-01-25 17:22:14.3350,0.367,-0.639,-0.975,-2.92,2.17,0.52,-1.46,0.29,-0.01
2022-01-25 17:22:14.3450,0.345,-0.649,-1.143,-2.69,2.46,2.02,-1.52,0.1,0.23
2022-01-25 17:22:14.3550,0.301,-0.656,-1.299,-2.24,2.63,3.54,-1.27,-0.25,0.64
2022-01-25 17:22:14.3650,0.33,-0.75,-1.432,-2.49,3.51,4.82,-0.77,-0.84,1.05
2022-01-25 17:22:14.3750,0.21,-0.774,-1.562,-1.61,4.22,6.01,-0.77,-0.84,1.05
2022-01-25 17:22:14.3850,0.045,-0.562,-1.672,-0.12,2.21,7.2,-0.01,-0.96,1.47
2022-01-25 17:22:14.3950,-0.107,-0.49,-1.643,1.31,1.34,7.01,0.04,-0.24,1.48
2022-01-25 17:22:14.4050,-0.118,-0.556,-1.606,1.45,1.77,6.65,0.04,-0.24,1.48
2022-01-25 17:22:14.4150,-0.112,-0.679,-1.553,1.29,3.1,6.12,0.03,0.58,1.31
2022-01-25 17:22:14.4250,-0.154,-0.597,-1.554,1.71,2.51,6.07,0.07,1.09,0.88
2022-01-25 17:22:14.4350,-0.166,-0.488,-1.557,1.98,1.37,6.12,0.14,1.24,0.3
2022-01-25 17:22:14.4450,-0.128,-0.388,-1.542,1.74,0.42,6.02,0.17,1.15,-0.28
2022-01-25 17:22:14.4550,-0.103,-0.234,-1.481,1.58,-1.04,5.5,0.19,1.04,-0.67
2022-01-25 17:22:14.4650,-0.098,-0.08,-1.37,1.64,-2.61,4.47,0.22,1.0,-0.74
2022-01-25 17:22:14.4750,-0.099,0.031,-1.241,1.78,-3.77,3.23,0.33,1.0,-0.57
2022-01-25 17:22:14.4850,-0.081,0.08,-1.112,1.71,-4.37,1.96,0.47,0.95,-0.26
2022-01-25 17:22:14.4950,-0.07,0.068,-1.024,1.69,-4.34,1.08,0.56,0.8,0.07
2022-01-25 17:22:14.5050,-0.053,0.022,-0.955,1.57,-4.01,0.41,0.57,0.55,0.34
2022-01-25 17:22:14.5160,-0.065,-0.064,-0.915,1.69,-3.21,0.01,0.49,0.23,0.49
2022-01-25 17:22:14.5260,-0.08,-0.128,-0.875,1.84,-2.63,-0.34,0.37,-0.11,0.33
2022-01-25 17:22:14.5360,-0.087,-0.213,-0.826,1.8566614159941675,-1.0787729886174202,-1.2371585655212403,0.23,-0.11,0.33
2022-01-25 17:22:14.5450,-0.084,-0.29,-0.783,1.85,-1.08,-1.24,0.09,0.1,-0.17
2022-01-25 17:22:14.5540,-0.077,-0.351,-0.735,1.79,-0.47,-1.7,-0.14,0.4,-0.39
2022-01-25 17:22:14.5650,-0.054,-0.392,-0.685,1.61,-0.04,-2.21,-0.22,0.71,-0.56
2022-01-25 17:22:14.5740,-0.013,-0.428,-0.656,1.3,0.34,-2.52,-0.22,0.71,-0.56
2022-01-25 17:22:14.5850,0.05,-0.453,-0.649,0.8,0.64,-2.61,-0.17,1.02,-0.8
2022-01-25 17:22:14.5950,0.119,-0.463,-0.648,0.24,0.77,-2.61,-0.17,1.02,-0.8
2022-01-25 17:22:14.6060,0.185,-0.475,-0.643,-0.29,0.92,-2.65,-0.06,0.98,-0.89
2022-01-25 17:22:14.6160,0.234,-0.474,-0.629,-0.69,0.94,-2.76,0.05,0.85,-0.95
2022-01-25 17:22:14.6250,0.262,-0.46,-0.609,-0.88,0.82,-2.94,0.19,0.5,-0.9
2022-01-25 17:22:14.6360,0.267,-0.424,-0.594,-0.87,0.51,-3.08,0.22,0.32,-0.8
2022-01-25 17:22:14.6450,0.251,-0.37,-0.588,-0.67,-0.01,-3.13,0.22,0.32,-0.8
2022-01-25 17:22:14.6560,0.232,-0.33,-0.58,-0.42,-0.44,-3.19,0.27,0.19,-0.65
2022-01-25 17:22:14.6660,0.211,-0.295,-0.581,-0.19,-0.78,-3.19,0.35,0.07,-0.46
2022-01-25 17:22:14.6760,0.176,-0.247,-0.589,0.16,-1.27,-3.09,0.65,-0.02,-0.11
2022-01-25 17:22:14.6860,0.146,-0.213,-0.579,0.47,-1.67,-3.13,0.65,-0.02,-0.11
2022-01-25 17:22:14.6960,0.131,-0.189,-0.548,0.71,-2.08,-3.66,0.8,0.07,0.02
2022-01-25 17:22:14.7060,0.126,-0.191,-0.519,0.71,-2.08,-3.66,0.9,0.35,0.2
2022-01-25 17:22:14.7150,0.126,-0.222,-0.489,0.73,-1.87,-3.91,0.87,0.36,0.3
2022-01-25 17:22:14.7250,0.113,-0.254,-0.483,0.85,-1.64,-3.97,0.81,0.27,0.4
2022-01-25 17:22:14.7350,0.095,-0.299,-0.493,1.27,-1.0,-3.65,0.81,0.27,0.4
2022-01-25 17:22:14.7450,0.071,-0.334,-0.511,1.27,-1.0,-3.65,0.75,0.08,0.47
2022-01-25 17:22:14.7550,0.058,-0.375,-0.554,1.4,-0.7,-3.22,0.59,-0.42,0.43
2022-01-25 17:22:14.7650,0.055,-0.43,-0.594,1.39,-0.23,-2.79,0.48,-0.6,0.32
2022-01-25 17:22:14.7750,0.054,-0.487,-0.639,1.34,0.28,-2.34,0.48,-0.6,0.32
2022-01-25 17:22:14.7850,0.053,-0.533,-0.675,1.29,0.7,-1.96,0.34,-0.67,0.2
2022-01-25 17:22:14.7950,0.062,-0.578,-0.706,1.16,1.11,-1.65,0.16,-0.57,0.1
2022-01-25 17:22:14.8050,0.081,-0.638,-0.742,0.93,1.67,-1.34,-0.21,-0.12,0.21
2022-01-25 17:22:14.8150,0.092,-0.701,-0.814,0.77,2.31,-0.69,-0.21,-0.12,0.21
2022-01-25 17:22:14.8270,0.093,-0.749,-0.93,0.73,2.83,0.39,-0.34,-0.12,0.36
2022-01-25 17:22:14.8360,0.074,-0.774,-1.072,0.86,3.12,1.74,-0.27,-0.28,0.32
2022-01-25 17:22:14.8470,0.024,-0.76,-1.2,1.29,3.06,3.03,-0.15,-0.39,0.14
2022-01-25 17:22:14.8560,-0.03,-0.714,-1.292,1.8,2.65,3.96,-0.15,-0.39,0.14
2022-01-25 17:22:14.8660,-0.044,-0.686,-1.316,1.97,2.34,4.3,-0.05,-0.27,-0.08
2022-01-25 17:22:14.8770,0.002,-0.733,-1.258,1.58,2.68,3.8,-0.02,0.83,0.01
2022-01-25 17:22:14.8860,0.094,-0.867,-1.17,0.76,3.93,2.93,-0.02,1.28,0.33
2022-01-25 17:22:14.8970,0.197,-1.014,-1.148,-0.18,5.4,2.59,-0.02,1.28,0.33
2022-01-25 17:22:14.9070,0.262,-1.072,-1.248,-0.77,6.13,3.48,-0.15,0.71,0.4
2022-01-25 17:22:14.9170,0.31,-1.012,-1.393,-1.18,5.63,4.89,-0.15,0.71,0.4
2022-01-25 17:22:14.9270,0.366,-0.915,-1.518,-1.69,4.74,6.2,-0.49,-0.14,-0.49
2022-01-25 17:22:14.9370,0.393,-0.741,-1.52,-2.02,3.18,6.37,-0.56,-0.02,-0.73
2022-01-25 17:22:14.9470,0.369,-0.552,-1.429,-1.79,1.35,5.5,-0.56,-0.02,-0.73
2022-01-25 17:22:14.9570,0.353,-0.382,-1.377,-1.58,-0.27,4.88,-0.48,0.12,-0.71
2022-01-25 17:22:14.9670,0.359,-0.217,-1.345,-1.58,-1.86,4.58,-0.25,0.18,-0.48
2022-01-25 17:22:14.9770,0.362,-0.087,-1.291,-1.61,-3.15,4.05,0.04,0.11,-0.14
2022-01-25 17:22:14.9870,0.327,0.021,-1.222,-1.31,-4.26,3.43,0.53,0.04,0.6
2022-01-25 17:22:14.9970,0.264,0.069,-1.114,-0.72,-4.86,2.41,0.6918056011199951,0.04,0.6
2022-01-25 17:22:15.0070,0.21,0.054,-1.001,-0.18,-4.83,1.33,0.69,0.07,0.85
2022-01-25 17:22:15.0180,0.201,0.011,-0.895,-0.08,-4.53,0.3,0.62,0.06,0.96
2022-01-25 17:22:15.0270,0.197,-0.067,-0.8,-0.08,-3.88,-0.6,0.62,0.06,0.96
2022-01-25 17:22:15.0370,0.197,-0.157,-0.717,-0.11,-3.05,-1.43,0.37,0.02,0.9
2022-01-25 17:22:15.0470,0.194,-0.231,-0.674,-0.13,-2.33,-1.88,0.03,-0.05,0.77
2022-01-25 17:22:15.0580,0.182,-0.276,-0.65,-0.03,-1.48,-2.22,-0.66,-0.18,0.35
2022-01-25 17:22:15.0670,0.178,-0.312,-0.647,-0.03,-1.48,-2.22,-0.93,-0.2,0.15
2022-01-25 17:22:15.0770,0.188,-0.357,-0.668,-0.15,-0.98,-2.08,-1.09,-0.19,0.06
2022-01-25 17:22:15.0870,0.184,-0.392,-0.712,-0.17,-0.53,-1.71,-1.09,-0.19,0.06
2022-01-25 17:22:15.0970,0.162,-0.405,-0.752,0.02,-0.28,-1.35,-0.94,-0.08,0.15
2022-01-25 17:22:15.1070,0.133,-0.407,-0.79,0.28,-0.16,-1.05,-0.94,-0.08,0.15
2022-01-25 17:22:15.1180,0.087,-0.406,-0.828,0.69,-0.1,-0.69,-0.65,-0.02,0.26
2022-01-25 17:22:15.1280,0.025,-0.389,-0.835,1.28,-0.19,-0.61,-0.29,0.03,0.36
2022-01-25 17:22:15.1380,-0.031,-0.367,-0.819,1.83,-0.42,-0.74,0.09,0.08,0.41
2022-01-25 17:22:15.1480,-0.059,-0.355,-0.778,2.14,-0.57,-1.1,0.44,0.14,0.35
2022-01-25 17:22:15.1570,-0.063,-0.344,-0.715,2.2,-0.72,-1.67,0.85,0.32,0.09
2022-01-25 17:22:15.1680,-0.059,-0.342,-0.64,2.18,-0.82,-2.36,0.85,0.32,0.09
2022-01-25 17:22:15.1780,-0.052,-0.337,-0.56,2.16,-0.94,-3.11,0.8,0.47,-0.18
2022-01-25 17:22:15.1870,-0.028,-0.335,-0.501,1.98,-1.05,-3.68,0.7,0.51,-0.26
2022-01-25 17:22:15.1980,0.002,-0.359,-0.46,1.74,-0.9,-4.05,0.59,0.52,-0.31
2022-01-25 17:22:15.2070,0.027,-0.38,-0.421,1.54,-0.73,-4.41,0.51,0.5,-0.33
2022-01-25 17:22:15.2180,0.032,-0.395,-0.411,1.51,-0.62,-4.49,0.51,0.5,-0.33
2022-01-25 17:22:15.2280,0.032,-0.396,-0.399,1.59,-0.62,-4.59,0.38,0.44,-0.48
2022-01-25 17:22:15.2380,0.046,-0.394,-0.405,1.51,-0.68,-4.52,0.28,0.39,-0.57
2022-01-25 17:22:15.2480,0.056,-0.413,-0.414,1.48,-0.54,-4.42,0.28,0.39,-0.57
2022-01-25 17:22:15.2580,0.074,-0.437,-0.436,1.38,-0.3,-4.19,0.18,0.33,-0.65
2022-01-25 17:22:15.2680,0.116,-0.466,-0.457,1.05,-0.04,-3.97,0.04,0.26,-0.76
2022-01-25 17:22:15.2780,0.167,-0.519,-0.484,0.59,0.47,-3.71,0.04,0.26,-0.76
2022-01-25 17:22:15.2880,0.202,-0.554,-0.521,0.3,0.88,-3.35,-0.05,0.22,-0.78
2022-01-25 17:22:15.2980,0.226,-0.553,-0.569,0.1,0.93,-2.9,-0.18,0.18,-0.83
2022-01-25 17:22:15.3080,0.243,-0.54,-0.629,-0.03,0.85,-2.34,-0.37,0.09,-0.87
2022-01-25 17:22:15.3180,0.254,-0.524,-0.719,-0.09,0.75,-1.51,-0.8,-0.33,-0.87
2022-01-25 17:22:15.3280,0.264,-0.523,-0.822,-0.17,0.8,-0.54,-0.87,-0.55,-0.8
2022-01-25 17:22:15.3380,0.284,-0.547,-0.925,-0.35,1.1,0.43,-0.87,-0.55,-0.8
2022-01-25 17:22:15.3480,0.309,-0.573,-1.012,-0.62,1.46,1.25,-0.65,-0.81,-0.4
2022-01-25 17:22:15.3580,0.326,-0.602,-1.097,-0.84,1.8,2.04,-0.49,-0.79,-0.07
2022-01-25 17:22:15.3680,0.345,-0.67,-1.149,-1.07,2.47,2.56,-0.32,-0.73,0.28
2022-01-25 17:22:15.3780,0.371,-0.761,-1.204,-1.39,3.38,3.03,-0.32,-0.73,0.28
2022-01-25 17:22:15.3880,0.395,-0.87,-1.265,-1.72,4.44,3.61,0.07,-0.8,0.86
2022-01-25 17:22:15.3980,0.367,-0.934,-1.343,-1.64,5.21,4.32,0.07,-0.8,0.86
2022-01-25 17:22:15.4080,0.262,-0.823,-1.447,-0.77,4.31,5.29,0.13,-1.12,0.77
2022-01-25 17:22:15.4180,0.183,-0.664,-1.571,-0.05,2.64,6.5,-0.28,-1.36,-0.2
2022-01-25 17:22:15.4290,0.176,-0.654,-1.607,-0.04,2.36,6.97,-0.48,-0.97,-0.65
2022-01-25 17:22:15.4390,0.185,-0.684,-1.579,-0.25,2.77,6.65,-0.48,-0.97,-0.65
2022-01-25 17:22:15.4480,0.169,-0.594,-1.596,-0.14,2.1,6.76,-0.3,0.22,-1.2
2022-01-25 17:22:15.4580,0.17,-0.441,-1.587,-0.09,0.67,6.71,-0.3,0.22,-1.2
2022-01-25 17:22:15.4690,0.194,-0.319,-1.556,-0.23,-0.54,6.39,0.39,1.03,-1.19
2022-01-25 17:22:15.4780,0.204,-0.213,-1.535,-0.23,-1.57,6.22,0.39,1.03,-1.19
2022-01-25 17:22:15.4880,0.199,-0.123,-1.47,-0.06,-2.52,5.68,0.93,0.97,-0.58
2022-01-25 17:22:15.4990,0.163,-0.072,-1.385,0.36,-3.11,4.9,0.93,0.97,-0.58
2022-01-25 17:22:15.5090,0.086,-0.021,-1.302,1.17,-3.68,4.15,1.32,0.11,0.04
2022-01-25 17:22:15.5190,0.009,-0.001,-1.207,2.0,-4.04,3.29,1.32,0.11,0.04
2022-01-25 17:22:15.5290,-0.045,-0.037,-1.096,2.53,-3.87,2.27,1.37,-0.35,0.19
2022-01-25 17:22:15.5390,-0.082,-0.096,-0.969,2.87,-3.41,1.1,1.29,-0.61,0.22
2022-01-25 17:22:15.5490,-0.114,-0.157,-0.826,3.12,-2.93,-0.26,0.87,-0.51,0.0
2022-01-25 17:22:15.5590,-0.136,-0.216,-0.701,3.31,-2.43,-1.49,0.87,-0.51,0.0
2022-01-25 17:22:15.5690,-0.134,-0.269,-0.617,3.28,-1.98,-2.34,0.36,-0.09,-0.44
2022-01-25 17:22:15.5790,-0.107,-0.331,-0.56,3.04,-1.41,-2.91,0.36,-0.09,-0.44
2022-01-25 17:22:15.5890,-0.07,-0.383,-0.529,2.7,-0.89,-3.24,0.15,0.05,-0.68
2022-01-25 17:22:15.5990,-0.033,-0.415,-0.518,2.38,-0.55,-3.36,-0.01,0.09,-0.89
2022-01-25 17:22:15.6090,0.008,-0.429,-0.519,2.04,-0.36,-3.36,-0.09,0.0,-1.09
2022-01-25 17:22:15.6190,0.06,-0.428,-0.534,1.59,-0.32,-3.23,-0.11,-0.15,-1.24
2022-01-25 17:22:15.6290,0.11,-0.42,-0.535,1.12,-0.35,-3.21,-0.01,-0.41,-1.43
2022-01-25 17:22:15.6390,0.156,-0.403,-0.527,0.7,-0.48,-3.29,-0.01,-0.41,-1.43
2022-01-25 17:22:15.6490,0.201,-0.376,-0.511,0.29,-0.69,-3.44,0.02,-0.41,-1.5
2022-01-25 17:22:15.6590,0.236,-0.342,-0.486,-0.04,-0.99,-3.7,0.02,-0.14,-1.52
2022-01-25 17:22:15.6690,0.261,-0.305,-0.47,-0.25,-1.32,-3.87,0.01,0.04,-1.45
2022-01-25 17:22:15.6790,0.271,-0.262,-0.461,-0.32,-1.7,-3.96,0.01,0.04,-1.45
2022-01-25 17:22:15.6890,0.266,-0.216,-0.462,-0.2,-2.11,-3.96,0.04,0.21,-1.32
2022-01-25 17:22:15.6990,0.259,-0.177,-0.458,-0.05,-2.48,-3.99,0.09,0.32,-1.15
2022-01-25 17:22:15.7090,0.255,-0.158,-0.452,0.06,-2.68,-4.04,0.16,0.37,-0.95
2022-01-25 17:22:15.7190,0.263,-0.17,-0.448,0.07,-2.59,-4.05,0.24,0.35,-0.75
2022-01-25 17:22:15.7290,0.274,-0.208,-0.446,0.01,-2.25,-4.06,0.38111698627471924,0.14,-0.39
2022-01-25 17:22:15.7390,0.277,-0.251,-0.45,0.01,-1.84,-4.01,0.41871950030326843,0.14,-0.39
2022-01-25 17:22:15.7490,0.277,-0.288,-0.451,0.03,-1.49,-3.98,0.4,-0.06,-0.2
2022-01-25 17:22:15.7590,0.277,-0.32,-0.451,0.05,-1.2,-3.95,0.3,-0.1,-0.16
2022-01-25 17:22:15.7700,0.281,-0.359,-0.45,0.01,-0.86,-3.96,0.3,-0.1,-0.16
2022-01-25 17:22:15.7790,0.281,-0.409,-0.476,0.0,-0.39,-3.73,0.14,-0.12,-0.11
2022-01-25 17:22:15.7900,0.279,-0.462,-0.518,0.02,0.13,-3.34,-0.2,-0.04,0.02
2022-01-25 17:22:15.7990,0.276,-0.523,-0.579,0.04,0.73,-2.77,-0.27,-0.01,0.06
2022-01-25 17:22:15.8090,0.289,-0.577,-0.656,-0.07,1.29,-2.06,-0.27,-0.01,0.06
2022-01-25 17:22:15.8200,0.307,-0.624,-0.749,-0.25,1.78,-1.16,-0.28,-0.01,0.08
2022-01-25 17:22:15.8300,0.32,-0.664,-0.843,-0.4,2.2,-0.26,-0.3,-0.09,0.12
2022-01-25 17:22:15.8400,0.329,-0.714,-0.944,-0.51,2.69,0.7,-0.33367571234703064,-0.39,0.39
2022-01-25 17:22:15.8500,0.331,-0.77,-1.044,-0.58,3.28,1.67,-0.31,-0.45,0.52
2022-01-25 17:22:15.8600,0.323,-0.801,-1.127,-0.56,3.62,2.49,-0.31,-0.45,0.52
2022-01-25 17:22:15.8700,0.309,-0.831,-1.197,-0.5,3.93,3.16,-0.2,-0.25,0.64
2022-01-25 17:22:15.8800,0.282,-0.836,-1.259,-0.3,4.03,3.77,-0.13,-0.05,0.63
2022-01-25 17:22:15.8900,0.246,-0.804,-1.313,0.0,3.75,4.29,-0.13,-0.05,0.63
2022-01-25 17:22:15.9000,0.223,-0.782,-1.337,0.23,3.48,4.57,-0.01,0.21,0.64
2022-01-25 17:22:15.9100,0.227,-0.818,-1.33,0.23,3.74,4.54,0.12,0.45,0.73
2022-01-25 17:22:15.9200,0.264,-0.876,-1.325,-0.09,4.3,4.48,0.12,0.31,0.74
2022-01-25 17:22:15.9300,0.321,-0.905,-1.343,-0.63,4.58,4.65,0.12,0.31,0.74
2022-01-25 17:22:15.9400,0.385,-0.908,-1.368,-1.27,4.62,4.92,-0.14,-0.05,0.56
2022-01-25 17:22:15.9500,0.429,-0.881,-1.372,-1.77,4.42,4.96,-0.49,-0.38,0.31
2022-01-25 17:22:15.9600,0.44,-0.811,-1.376,-1.98,3.83,4.96,-0.78,-0.56,0.11
2022-01-25 17:22:15.9700,0.432,-0.728,-1.371,-1.94,3.09,4.87,-0.9,-0.55,0.02
2022-01-25 17:22:15.9800,0.431,-0.629,-1.386,-1.98,2.22,4.93,-0.75,-0.45,0.04
2022-01-25 17:22:15.9900,0.405,-0.502,-1.392,-1.81,1.06,5.01,0.26,-0.23,0.41
2022-01-25 17:22:15.9990,0.36,-0.358,-1.357,-1.42,-0.35,4.69,0.26,-0.23,0.41
2022-01-25 17:22:15.9990,0.319,-0.238,-1.284,-1.42,-0.35,4.69,0.79,-0.24,0.62
2022-01-25 17:22:16.0180,0.302,-0.166,-1.195,-1.09,-1.72,4.07,1.11,-0.41,0.78
2022-01-25 17:22:16.0280,0.313,-0.127,-1.085,-0.96,-2.6,3.24,1.16,-0.64,0.79
2022-01-25 17:22:16.0380,0.329,-0.11,-0.972,-1.14,-3.12,2.22,0.96,-0.86,0.68
2022-01-25 17:22:16.0480,0.327,-0.11,-0.86,-1.41,-3.39,1.13,0.63,-0.91,0.5
2022-01-25 17:22:16.0580,0.313,-0.119,-0.742,-1.51,-3.45,0.04,0.27,-0.74,0.32
2022-01-25 17:22:16.0680,0.302,-0.133,-0.649,-1.44,-3.39,-1.12,-0.06,-0.44,0.19
2022-01-25 17:22:16.0780,0.299,-0.15,-0.6,-1.36,-3.24,-2.1,-0.33,-0.15,0.13
2022-01-25 17:22:16.0890,0.304,-0.169,-0.581,-1.34,-3.05,-2.65,-0.52,0.05,0.14
2022-01-25 17:22:16.0990,0.308,-0.199,-0.58,-1.37,-2.82,-2.89,-0.64,0.12,0.24
2022-01-25 17:22:16.1090,0.307,-0.231,-0.596,-1.42,-2.49,-2.95,-0.69,0.06,0.4
Time,0.294,-0.258,-0.62,-1.45,-2.11,-2.84,-0.66,-0.1,0.58
2022-01-25 17:22:16.1290,0.27,-0.28,-0.639,-1.38,-1.79,-2.64,-0.58,-0.29,0.74
2022-01-25 17:22:16.1390,0.241,-0.303,-0.635,-1.21,-1.54,-2.46,-0.47,-0.41,0.84
2022-01-25 17:22:16.1490,0.204,-0.324,-0.617,-1.01,-1.29,-2.5,-0.38,-0.39,0.85
2022-01-25 17:22:16.1590,0.159,-0.326,-0.589,-0.72,-1.05,-2.69,-0.31,-0.27,0.8
2022-01-25 17:22:16.1690,0.118,-0.317,-0.556,-0.34,-0.99,-2.97,-0.26,-0.07,0.71
2022-01-25 17:22:16.1790,0.09,-0.313,-0.524,0.05,-1.06,-3.3,-0.23,0.14,0.58
2022-01-25 17:22:16.1890,0.082,-0.315,-0.494,0.34,-1.09,-3.62,-0.2,0.32,0.45
2022-01-25 17:22:16.1990,0.087,-0.318,-0.475,0.46,-1.06,-3.93,-0.19,0.43,0.34
2022-01-25 17:22:16.2090,0.096,-0.326,-0.465,0.45,-1.02,-4.13,-0.22,0.46,0.28
2022-01-25 17:22:16.2190,0.112,-0.35,-0.467,0.39,-0.94,-4.24,-0.26,0.41,0.29
Time,0.132,-0.371,-0.485,0.25,-0.7,-4.24,-0.3,0.25,0.33
2022-01-25 17:22:16.2390,0.136,-0.38,-0.529,0.06,-0.44,-4.11,-0.28,0.08,0.39
2022-01-25 17:22:16.2490,0.116,-0.384,-0.547,-0.02,-0.34,-3.7,-0.2,-0.01,0.46
2022-01-25 17:22:16.2590,0.086,-0.36,-0.557,0.13,-0.27,-3.49,-0.09,0.01,0.51
2022-01-25 17:22:16.2690,0.059,-0.343,-0.561,0.4,-0.48,-3.39,-0.0,0.08,0.54
2022-01-25 17:22:16.2780,0.032,-0.339,-0.582,0.66,-0.67,-3.35,0.06,0.17,0.53
2022-01-25 17:22:16.2890,0.02,-0.354,-0.621,0.92,-0.74,-3.17,0.11,0.2,0.46
2022-01-25 17:22:16.2990,0.041,-0.39,-0.67,1.07,-0.64,-2.8,0.14,0.14,0.37
2022-01-25 17:22:16.3090,0.063,-0.438,-0.746,0.89,-0.32,-2.33,0.15,-0.01,0.31
2022-01-25 17:22:16.3190,0.08,-0.493,-0.799,0.64,0.12,-1.61,0.17,-0.12,0.27
2022-01-25 17:22:16.3290,0.112,-0.538,-0.823,0.45,0.64,-1.02,0.16,-0.17,0.22
2022-01-25 17:22:16.3390,0.15,-0.58,-0.853,0.14,1.09,-0.78,0.11,-0.14,0.2
2022-01-25 17:22:16.3490,0.182,-0.622,-0.88,-0.25,1.48,-0.48,0.03,-0.04,0.23
2022-01-25 17:22:16.3590,0.193,-0.642,-0.921,-0.59,1.9,-0.22,-0.04,0.09,0.3
2022-01-25 17:22:16.3690,0.2,-0.657,-0.964,-0.72,2.13,0.16,-0.1,0.21,0.36
2022-01-25 17:22:16.3790,0.205,-0.679,-1.038,-0.78,2.28,0.58,-0.17,0.25,0.39
2022-01-25 17:22:16.3890,0.202,-0.723,-1.123,-0.83,2.49,1.24,-0.22,0.26,0.41
2022-01-25 17:22:16.3990,0.188,-0.759,-1.188,-0.81,2.92,2.09,-0.23,0.31,0.42
2022-01-25 17:22:16.4090,0.196,-0.791,-1.246,-0.66,3.31,2.75,-0.18,0.4,0.44
2022-01-25 17:22:16.4190,0.241,-0.868,-1.284,-0.68,3.62,3.31,-0.05,0.49,0.51
2022-01-25 17:22:16.4290,0.298,-0.954,-1.325,-1.06,4.31,3.72,0.09,0.48,0.61
2022-01-25 17:22:16.4400,0.322,-0.949,-1.357,-1.61,5.18,4.11,0.18,0.35,0.63
2022-01-25 17:22:16.4500,0.304,-0.839,-1.404,-1.91,5.25,4.46,0.08,0.02,0.46
2022-01-25 17:22:16.4600,0.279,-0.744,-1.475,-1.8,4.27,4.87,-0.19,-0.32,0.24
2022-01-25 17:22:16.4700,0.246,-0.761,-1.511,-1.59,3.23,5.56,-0.38,-0.5,0.11
2022-01-25 17:22:16.4800,0.19,-0.697,-1.553,-1.34,3.37,5.92,-0.32,-0.54,-0.01
2022-01-25 17:22:16.4900,0.114,-0.549,-1.586,-0.86,2.93,6.31,-0.02,-0.49,-0.12
2022-01-25 17:22:16.5000,0.03,-0.41,-1.587,-0.17,1.5,6.65,0.36,-0.37,-0.21
2022-01-25 17:22:16.5100,-0.045,-0.28,-1.553,0.64,0.09,6.73,0.69,-0.22,-0.3
2022-01-25 17:22:16.5200,-0.102,-0.162,-1.48,1.39,-1.26,6.47,0.91,-0.04,-0.38
2022-01-25 17:22:16.5300,-0.157,-0.066,-1.361,1.99,-2.52,5.85,1.04,0.13,-0.39
2022-01-25 17:22:16.5400,-0.225,0.009,-1.232,2.55,-3.58,4.77,1.1,0.19,-0.34
2022-01-25 17:22:16.5500,-0.291,0.068,-1.105,3.23,-4.43,3.55,1.09,0.12,-0.29
2022-01-25 17:22:16.5600,-0.324,0.094,-0.971,3.91,-5.11,2.36,1.0,-0.03,-0.27
2022-01-25 17:22:16.5700,-0.327,0.071,-0.849,4.29,-5.5,1.08,0.82,-0.22,-0.31
2022-01-25 17:22:16.5790,-0.307,0.013,-0.738,4.34,-5.39,-0.1,0.55,-0.4,-0.4
2022-01-25 17:22:16.5900,-0.278,-0.058,-0.647,4.15,-4.88,-1.19,-0.11,-0.5,-0.68
2022-01-25 17:22:16.6030,-0.24,-0.132,-0.565,3.49,-3.48,-2.92,-0.11,-0.5,-0.68
2022-01-25 17:22:16.6120,-0.195,-0.207,-0.503,3.06,-2.7,-3.59,-0.73,-0.45,-0.99
2022-01-25 17:22:16.6220,-0.136,-0.274,-0.484,2.5,-1.98,-3.86,-0.73,-0.45,-0.99
2022-01-25 17:22:16.6320,-0.081,-0.331,-0.498,1.94,-1.31,-3.81,-0.96,-0.52,-1.12
2022-01-25 17:22:16.6430,-0.036,-0.361,-0.545,1.5,-0.88,-3.43,-1.1,-0.67,-1.25
2022-01-25 17:22:16.6520,0.008,-0.376,-0.598,1.06,-0.62,-2.97,-1.11,-0.94,-1.43
2022-01-25 17:22:16.6620,0.048,-0.392,-0.652,0.64,-0.34,-2.49,-0.99,-0.93,-1.53
2022-01-25 17:22:16.6720,0.085,-0.392,-0.691,0.25,-0.21,-2.14,-0.83,-0.77,-1.61
2022-01-25 17:22:16.6820,0.118,-0.381,-0.71,-0.1,-0.21,-1.97,-0.67,-0.54,-1.67
2022-01-25 17:22:16.6920,0.151,-0.367,-0.711,-0.41,-0.25,-1.99,-0.52,-0.31,-1.66
2022-01-25 17:22:16.7030,0.19,-0.351,-0.726,-0.76,-0.33,-1.89,-0.52,-0.31,-1.66
2022-01-25 17:22:16.7130,0.226,-0.333,-0.736,-1.09,-0.44,-1.8,-0.17,0.01,-1.42
2022-01-25 17:22:16.7230,0.255,-0.307,-0.746,-1.33,-0.64,-1.71,-0.17,0.01,-1.42
2022-01-25 17:22:16.7330,0.273,-0.28,-0.752,-1.47,-0.89,-1.66,0.27,0.1,-0.89
2022-01-25 17:22:16.7420,0.284,-0.269,-0.747,-1.53,-1.01,-1.68,0.51,0.1,-0.58
2022-01-25 17:22:16.7530,0.287,-0.262,-0.713,-1.54,-1.1,-1.96,0.7,0.09,-0.31
2022-01-25 17:22:16.7630,0.279,-0.246,-0.665,-1.44,-1.3,-2.4,0.7,0.09,-0.31
2022-01-25 17:22:16.7720,0.279,-0.258,-0.616,-1.41,-1.29,-2.86,0.82,0.06,-0.1
2022-01-25 17:22:16.7830,0.278,-0.297,-0.584,-1.3175604119896889,-0.6966036513447762,-3.43,0.84,0.01,0.13
2022-01-25 17:22:16.7930,0.268,-0.334,-0.553,-1.32,-0.7,-3.43,0.75,-0.02,0.17
2022-01-25 17:22:16.8020,0.258,-0.362,-0.527,-1.22,-0.5,-3.67,0.62,-0.08,0.18
2022-01-25 17:22:16.8120,0.243,-0.398,-0.528,-1.1,-0.23,-3.66,0.62,-0.08,0.18
2022-01-25 17:22:16.8220,0.216,-0.438,-0.541,-0.86,0.12,-3.52,0.4,-0.19,0.19
2022-01-25 17:22:16.8320,0.185,-0.479,-0.571,-0.59,0.47,-3.25,0.4,-0.19,0.19
2022-01-25 17:22:16.8420,0.154,-0.525,-0.617,-0.3,0.89,-2.78,0.4,-0.18,0.1
2022-01-25 17:22:16.8520,0.137,-0.569,-0.674,-0.14,1.28,-2.24,0.4,-0.18,0.1
2022-01-25 17:22:16.8620,0.12,-0.624,-0.764,-0.01,1.78,-1.38,0.36,-0.3,0.05
2022-01-25 17:22:16.8720,0.087,-0.67,-0.859,0.27,2.21,-0.42,0.3,-0.35,0.08
2022-01-25 17:22:16.8820,0.037,-0.697,-0.948,0.72,2.48,0.46,0.3,-0.35,0.08
2022-01-25 17:22:16.8920,-0.015,-0.692,-1.04,1.2,2.45,1.36,0.15,-0.47,0.02
2022-01-25 17:22:16.9020,-0.052,-0.68,-1.144,1.54,2.31,2.39,0.15,-0.47,0.02
2022-01-25 17:22:16.9120,-0.074,-0.674,-1.21,1.73,2.23,3.09,0.1,-0.17,-0.28
2022-01-25 17:22:16.9220,-0.086,-0.672,-1.231,1.85,2.2,3.35,0.1,-0.17,-0.28
2022-01-25 17:22:16.9320,-0.073,-0.686,-1.219,1.76,2.3,3.27,0.06,0.23,-0.36
2022-01-25 17:22:16.9420,-0.041,-0.736,-1.197,1.52,2.74,3.05,-0.01,1.14,-0.01
2022-01-25 17:22:16.9520,0.004,-0.829,-1.18,1.19,3.61,2.88,-0.01,1.14,-0.01
2022-01-25 17:22:16.9630,0.064,-0.944,-1.21,0.7,4.75,3.1,0.05,1.18,0.27
2022-01-25 17:22:16.9740,0.093,-0.981,-1.336,0.43,5.24,4.23,0.07,0.66,0.3
2022-01-25 17:22:16.9840,0.112,-0.939,-1.501,0.28,4.87,5.89,0.04,-0.2,-0.0
2022-01-25 17:22:16.9940,0.131,-0.881,-1.575,0.05,4.33,6.74,0.01,-0.93,-0.49
2022-01-25 17:22:17.0040,0.121,-0.791,-1.542,0.02,3.51,6.53,0.02,-1.12,-0.9
2022-01-25 17:22:17.0130,0.086,-0.652,-1.447,0.34,2.19,5.61,0.36,-0.39,-1.19
2022-01-25 17:22:17.0230,0.074,-0.503,-1.378,0.46,0.74,4.9,0.66,0.08,-1.08
2022-01-25 17:22:17.0330,0.074,-0.35,-1.295,0.52,-0.8,4.15,0.96,0.38,-0.85
2022-01-25 17:22:17.0440,0.098,-0.237,-1.194,0.36,-2.04,3.2,0.96,0.38,-0.85
2022-01-25 17:22:17.0540,0.118,-0.176,-1.098,0.22,-2.76,2.28,1.17,0.41,-0.56
2022-01-25 17:22:17.0640,0.128,-0.134,-1.017,0.16,-3.28,1.54,1.2,-0.25,-0.13
2022-01-25 17:22:17.0740,0.123,-0.098,-0.938,0.21,-3.75,0.82,1.2,-0.25,-0.13
2022-01-25 17:22:17.0840,0.114,-0.09,-0.851,0.26,-3.96,0.03,1.02,-0.66,-0.06
2022-01-25 17:22:17.0940,0.101,-0.119,-0.756,0.32,-3.79,-0.86,0.76,-0.91,-0.08
2022-01-25 17:22:17.1040,0.097,-0.173,-0.656,0.31,-3.34,-1.83,0.47,-0.97,-0.16
2022-01-25 17:22:17.1140,0.107,-0.226,-0.579,0.16,-2.82,-2.61,-0.16,-0.73,-0.47
2022-01-25 17:22:17.1240,0.129,-0.26,-0.532,-0.11,-2.47,-3.12,-0.16,-0.73,-0.47
2022-01-25 17:22:17.1340,0.149,-0.292,-0.53,-0.33,-2.14,-3.22,-0.47,-0.64,-0.58
2022-01-25 17:22:17.1440,0.178,-0.328,-0.556,-0.62,-1.73,-3.02,-0.75,-0.63,-0.63
2022-01-25 17:22:17.1540,0.213,-0.358,-0.587,-0.99,-1.34,-2.77,-1.09,-0.76,-0.57
2022-01-25 17:22:17.1640,0.229,-0.372,-0.627,-1.22,-1.08,-2.44,-1.111579418182373,-0.89,-0.47
2022-01-25 17:22:17.1740,0.224,-0.381,-0.678,-1.22,-0.91,-2.02,-1.0,-1.03,-0.33
2022-01-25 17:22:17.1840,0.21,-0.397,-0.736,-1.16,-0.65,-1.5,-1.0,-1.03,-0.33
2022-01-25 17:22:17.1940,0.194,-0.393,-0.77,-1.08,-0.57,-1.18,-0.76,-1.1,-0.2
2022-01-25 17:22:17.2040,0.175,-0.378,-0.781,-0.99,-0.66,-1.09,-0.46,-1.07,-0.11
2022-01-25 17:22:17.2140,0.155,-0.367,-0.765,-0.87,-0.74,-1.23,-0.16,-0.89,-0.06
2022-01-25 17:22:17.2240,0.14,-0.359,-0.726,-0.79,-0.81,-1.61,0.06,-0.62,-0.03
2022-01-25 17:22:17.2340,0.137,-0.346,-0.681,-0.78,-0.94,-2.03,0.24,-0.07,-0.04
2022-01-25 17:22:17.2440,0.148,-0.337,-0.627,-0.9,-1.05,-2.56,0.24,-0.07,-0.04
2022-01-25 17:22:17.2550,0.168,-0.335,-0.583,-1.09,-1.1,-3.0,0.22,0.22,0.0
2022-01-25 17:22:17.2640,0.182,-0.33,-0.545,-1.23,-1.17,-3.36,0.22,0.22,0.0
2022-01-25 17:22:17.2740,0.185,-0.32,-0.516,-1.25,-1.28,-3.65,0.19,0.26,0.06
2022-01-25 17:22:17.2840,0.179,-0.312,-0.496,-1.18,-1.38,-3.84,0.15,0.11,0.18
2022-01-25 17:22:17.2940,0.174,-0.312,-0.495,-1.11,-1.4,-3.89,0.14,-0.06,0.24
2022-01-25 17:22:17.3040,0.168,-0.322,-0.51,-1.07,-1.33,-3.73,0.15,-0.19,0.29
2022-01-25 17:22:17.3140,0.155,-0.332,-0.511,-0.97,-1.23,-3.69,0.15,-0.19,0.29
2022-01-25 17:22:17.3240,0.146,-0.347,-0.496,-0.9,-1.11,-3.83,0.18,-0.24,0.33
2022-01-25 17:22:17.3340,0.145,-0.367,-0.498,-0.92,-0.93,-3.82,0.19,-0.21,0.32
2022-01-25 17:22:17.3450,0.15,-0.393,-0.491,-0.99,-0.71,-3.87,0.11,0.12,0.21
2022-01-25 17:22:17.3550,0.17,-0.43,-0.491,-1.17,-0.37,-3.89,0.11,0.12,0.21
2022-01-25 17:22:17.3650,0.216,-0.47,-0.518,-1.58,0.02,-3.66,-0.11,0.31,-0.01
2022-01-25 17:22:17.3750,0.275,-0.509,-0.574,-2.14,0.41,-3.13,-0.22,0.29,-0.1
2022-01-25 17:22:17.3850,0.323,-0.536,-0.63,-2.6,0.71,-2.58,-0.22,0.29,-0.1
2022-01-25 17:22:17.3950,0.354,-0.551,-0.687,-2.89,0.89,-2.04,-0.34,0.26,-0.14
2022-01-25 17:22:17.4050,0.382,-0.572,-0.744,-3.14,1.12,-1.5,-0.6,0.27,-0.07
2022-01-25 17:22:17.4150,0.405,-0.588,-0.8,-3.34,1.34,-0.96,-0.6,0.27,-0.07
2022-01-25 17:22:17.4250,0.425,-0.591,-0.862,-3.51,1.43,-0.39,-0.99,0.5,0.03
2022-01-25 17:22:17.4350,0.457,-0.609,-0.93,-3.77,1.65,0.22,-1.2,0.64,0.16
2022-01-25 17:22:17.4450,0.495,-0.66,-1.017,-4.1,2.22,1.01,-1.2,0.64,0.16
2022-01-25 17:22:17.4550,0.528,-0.727,-1.101,-4.37,2.97,1.81,-1.18,0.92,0.77
2022-01-25 17:22:17.4650,0.559,-0.821,-1.188,-4.64,3.96,2.61,-1.18,0.92,0.77
2022-01-25 17:22:17.4750,0.572,-0.92,-1.275,-4.76,5.03,3.4,-0.46,0.47,1.56
2022-01-25 17:22:17.4850,0.538,-0.986,-1.385,-4.48,5.82,4.47,-0.46,0.47,1.56
2022-01-25 17:22:17.4950,0.454,-0.921,-1.462,-3.72,5.36,5.24,-0.25,-0.05,1.65
2022-01-25 17:22:17.5050,0.377,-0.828,-1.521,-3.02,4.41,5.84,-0.64,-0.72,1.34
2022-01-25 17:22:17.5150,0.312,-0.793,-1.54,-2.51,4.06,6.04,-0.85,-0.57,1.11
2022-01-25 17:22:17.5250,0.228,-0.717,-1.558,-1.82,3.49,6.18,-0.85,-0.57,1.11
2022-01-25 17:22:17.5350,0.139,-0.55,-1.581,-1.02,2.01,6.36,-0.83,-0.22,0.84
2022-01-25 17:22:17.5450,0.052,-0.365,-1.614,-0.19,0.24,6.66,-0.64,0.19,0.64
2022-01-25 17:22:17.5550,-0.01,-0.215,-1.629,0.47,-1.23,6.81,-0.39,0.53,0.55
2022-01-25 17:22:17.5660,-0.051,-0.104,-1.629,0.92,-2.34,6.83,-0.12,0.72,0.59
2022-01-25 17:22:17.5750,-0.099,-0.016,-1.593,1.42,-3.23,6.54,0.2,0.79,0.76
2022-01-25 17:22:17.5850,-0.172,0.05,-1.505,2.14,-3.93,5.74,0.56,0.79,1.03
2022-01-25 17:22:17.5950,-0.262,0.106,-1.397,3.05,-4.56,4.73,0.93,0.74,1.29
2022-01-25 17:22:17.6050,-0.342,0.13,-1.269,3.87,-4.96,3.53,1.33,0.57,1.63
2022-01-25 17:22:17.6150,-0.401,0.087,-1.136,4.47,-4.75,2.29,1.33,0.57,1.63
2022-01-25 17:22:17.6250,-0.447,0.007,-0.992,4.92,-4.1,0.92,1.3,0.5,1.7
2022-01-25 17:22:17.6350,-0.483,-0.071,-0.873,5.26,-3.45,-0.21,0.87,0.49,1.54
2022-01-25 17:22:17.6450,-0.496,-0.139,-0.756,5.4,-2.87,-1.32,0.58,0.52,1.25
2022-01-25 17:22:17.6550,-0.497,-0.208,-0.676,5.4,-2.27,-2.14,0.58,0.52,1.25
2022-01-25 17:22:17.6660,-0.47,-0.264,-0.615,5.18,-1.75,-2.71,0.29,0.58,0.83
2022-01-25 17:22:17.6750,-0.416,-0.313,-0.569,4.71,-1.28,-3.19,-0.22,0.67,-0.11
2022-01-25 17:22:17.6860,-0.338,-0.358,-0.549,4.01,-0.82,-3.4,-0.45,0.67,-0.5
2022-01-25 17:22:17.6950,-0.249,-0.385,-0.543,3.22,-0.51,-3.49,-0.45,0.67,-0.5
2022-01-25 17:22:17.7060,-0.16,-0.403,-0.549,2.42,-0.28,-3.47,-0.64,0.64,-0.77
2022-01-25 17:22:17.7160,-0.082,-0.408,-0.56,1.73,-0.13,-3.38,-0.82,0.58,-1.02
2022-01-25 17:22:17.7260,-0.014,-0.39,-0.571,1.15,-0.2,-3.31,-0.8,0.46,-1.04
2022-01-25 17:22:17.7360,0.041,-0.369,-0.597,0.68,-0.33,-3.1,-0.8,0.46,-1.04
2022-01-25 17:22:17.7460,0.076,-0.343,-0.636,0.39,-0.48,-2.75,-0.69,0.28,-1.03
2022-01-25 17:22:17.7560,0.104,-0.305,-0.648,0.17,-0.78,-2.61,-0.35,0.0,-0.94
2022-01-25 17:22:17.7660,0.136,-0.28,-0.642,-0.09,-1.01,-2.68,-0.21,-0.04,-0.84
2022-01-25 17:22:17.7760,0.158,-0.267,-0.631,-0.3,-1.09,-2.78,-0.14,-0.02,-0.72
2022-01-25 17:22:17.7860,0.169,-0.25,-0.603,-0.39,-1.23,-3.05,-0.14,-0.02,-0.72
2022-01-25 17:22:17.7960,0.172,-0.242,-0.579,-0.4,-1.31,-3.3,-0.09,0.2,-0.45
2022-01-25 17:22:17.8060,0.172,-0.239,-0.558,-0.37,-1.31,-3.52,-0.09,0.2,-0.45
2022-01-25 17:22:17.8160,0.169,-0.237,-0.544,-0.31,-1.33,-3.66,-0.08,0.31,-0.32
2022-01-25 17:22:17.8260,0.163,-0.244,-0.545,-0.21,-1.25,-3.67,-0.06,0.37,-0.21
2022-01-25 17:22:17.8360,0.155,-0.257,-0.545,-0.1,-1.13,-3.66,-0.0,0.3,-0.04
2022-01-25 17:22:17.8460,0.149,-0.279,-0.549,0.0,-0.92,-3.63,-0.0,0.19,0.04
2022-01-25 17:22:17.8560,0.147,-0.308,-0.555,0.06,-0.64,-3.56,-0.04,0.02,0.1
2022-01-25 17:22:17.8660,0.15,-0.342,-0.576,0.03,-0.31,-3.39,-0.13,-0.16,0.19
2022-01-25 17:22:17.8760,0.143,-0.371,-0.614,0.07,-0.01,-3.03,-0.21,-0.28,0.3
2022-01-25 17:22:17.8860,0.131,-0.405,-0.652,0.16,0.33,-2.66,-0.21,-0.4,0.3
2022-01-25 17:22:17.8960,0.125,-0.448,-0.703,0.19,0.76,-2.21,-0.25,-0.4,0.39
2022-01-25 17:22:17.9060,0.124,-0.488,-0.779,0.15,1.17,-1.49,-0.24,-0.48,0.43
2022-01-25 17:22:17.9160,0.115,-0.531,-0.844,0.16,1.6,-0.86,-0.06,-0.44,0.47
2022-01-25 17:22:17.9270,0.075,-0.569,-0.915,0.46,2.01,-0.18,0.08,-0.4,0.45
2022-01-25 17:22:17.9360,0.031,-0.579,-0.991,0.84,2.12,0.55,0.08,-0.4,0.45
2022-01-25 17:22:17.9460,0.008,-0.591,-1.066,1.04,2.21,1.29,0.2,-0.38,0.41
2022-01-25 17:22:17.9570,-0.001,-0.623,-1.115,1.11,2.48,1.84,0.22,-0.05,0.28
2022-01-25 17:22:17.9670,0.003,-0.655,-1.137,1.05,2.78,2.04,0.22,-0.05,0.28
2022-01-25 17:22:17.9770,0.018,-0.671,-1.203,0.91,2.95,2.66,0.1,0.1,0.14
2022-01-25 17:22:17.9860,0.045,-0.656,-1.245,0.66,2.83,3.13,-0.23,0.53,-0.1
2022-01-25 17:22:17.9970,0.07,-0.656,-1.267,0.46,2.8,3.35,-0.31,0.82,-0.03
2022-01-25 17:22:18.0070,0.103,-0.693,-1.277,0.2,3.15,3.45,-0.31,0.82,-0.03
2022-01-25 17:22:18.0170,0.147,-0.757,-1.305,-0.13,3.77,3.69,-0.24,1.0,0.2
2022-01-25 17:22:18.0270,0.19,-0.824,-1.354,-0.48,4.49,4.17,-0.06,0.99,0.44
2022-01-25 17:22:18.0370,0.226,-0.785,-1.408,-0.79,4.25,4.69,0.05,0.72,0.47
2022-01-25 17:22:18.0470,0.243,-0.692,-1.472,-0.94,3.33,5.35,-0.01,0.34,0.3
2022-01-25 17:22:18.0570,0.238,-0.616,-1.494,-0.9,2.58,5.61,-0.42,-0.13,-0.08
2022-01-25 17:22:18.0670,0.229,-0.536,-1.492,-0.81,1.83,5.61,-0.42,-0.13,-0.08
2022-01-25 17:22:18.0770,0.249,-0.486,-1.451,-0.96,1.31,5.24,-0.48,-0.02,-0.12
2022-01-25 17:22:18.0870,0.294,-0.467,-1.403,-1.39,1.18,4.72,-0.36,0.18,-0.03
2022-01-25 17:22:18.0970,0.324,-0.403,-1.372,-1.69,0.64,4.42,0.32,0.37,0.4
2022-01-25 17:22:18.1070,0.326,-0.307,-1.314,-1.71,-0.3,3.91,0.32,0.37,0.4
2022-01-25 17:22:18.1170,0.321,-0.229,-1.233,-1.65,-1.14,3.14,0.87,0.06,0.92
2022-01-25 17:22:18.1270,0.32,-0.182,-1.153,-1.64,-1.71,2.37,0.87,0.06,0.92
2022-01-25 17:22:18.1370,0.319,-0.148,-1.072,-1.68,-2.15,1.64,0.97,-0.22,1.04
2022-01-25 17:22:18.1470,0.299,-0.113,-0.984,-1.58,-2.6,0.78,0.92,-0.48,1.01
2022-01-25 17:22:18.1570,0.272,-0.085,-0.908,-1.39,-2.97,0.06,0.42,-0.69,0.66
2022-01-25 17:22:18.1670,0.252,-0.078,-0.832,-1.29,-3.14,-0.67,0.42,-0.69,0.66
2022-01-25 17:22:18.1770,0.232,-0.087,-0.752,-1.17,-3.09,-1.45,-0.24,-0.24,0.32
2022-01-25 17:22:18.1870,0.215,-0.09,-0.69,-1.05,-3.04,-2.1,-0.24,-0.24,0.32
2022-01-25 17:22:18.1970,0.208,-0.091,-0.652,-1.0,-3.01,-2.52,-0.63,0.19,0.27
2022-01-25 17:22:18.2070,0.202,-0.108,-0.648,-0.94,-2.82,-2.62,-0.63,0.19,0.27
2022-01-25 17:22:18.2180,0.206,-0.134,-0.649,-0.96,-2.51,-2.62,-0.71,0.27,0.38
2022-01-25 17:22:18.2280,0.213,-0.164,-0.639,-1.02,-2.17,-2.73,-0.72,0.31,0.57
2022-01-25 17:22:18.2380,0.21,-0.197,-0.633,-1.01,-1.79,-2.83,-0.67,0.29,0.78
2022-01-25 17:22:18.2480,0.197,-0.229,-0.647,-0.9,-1.41,-2.73,-0.37,0.07,1.07
2022-01-25 17:22:18.2570,0.176,-0.246,-0.654,-0.71,-1.18,-2.65,-0.37,0.07,1.07
2022-01-25 17:22:18.2670,0.153,-0.249,-0.643,-0.53,-1.14,-2.77,-0.19,-0.05,1.09
2022-01-25 17:22:18.2770,0.129,-0.258,-0.622,-0.34,-1.06,-2.96,-0.01,-0.04,0.94
2022-01-25 17:22:18.2880,0.105,-0.264,-0.586,-0.15,-0.99,-3.31,-0.01,-0.04,0.94
2022-01-25 17:22:18.2980,0.082,-0.259,-0.553,0.05,-1.03,-3.63,-0.01,0.09,0.82
2022-01-25 17:22:18.3080,0.066,-0.249,-0.519,0.2,-1.13,-3.97,-0.03,0.28,0.69
2022-01-25 17:22:18.3180,0.058,-0.243,-0.498,0.3,-1.2,-4.19,-0.11,0.64,0.52
2022-01-25 17:22:18.3280,0.053,-0.248,-0.491,0.38,-1.16,-4.28,-0.11,0.64,0.52
2022-01-25 17:22:18.3380,0.048,-0.262,-0.498,0.48,-1.03,-4.22,-0.11,0.77,0.5
2022-01-25 17:22:18.3480,0.041,-0.283,-0.515,0.58,-0.82,-4.06,-0.09,0.81,0.48
2022-01-25 17:22:18.3580,0.021,-0.306,-0.548,0.83,-0.59,-3.75,-0.07,0.53,0.45
2022-01-25 17:22:18.3680,-0.001,-0.327,-0.592,1.08,-0.38,-3.34,-0.02,0.53,0.45
2022-01-25 17:22:18.3780,-0.032,-0.346,-0.654,1.4,-0.19,-2.74,0.28,-0.02,0.31
2022-01-25 17:22:18.3880,-0.058,-0.355,-0.701,1.66,-0.11,-2.22,0.48,-0.13,0.17
2022-01-25 17:22:18.3980,-0.081,-0.365,-0.709,1.88,-0.05,-2.1,0.48,-0.13,0.17
2022-01-25 17:22:18.4080,-0.093,-0.385,-0.707,2.0,0.07,-2.09,0.59,0.08,-0.09
2022-01-25 17:22:18.4180,-0.08,-0.423,-0.692,1.91,0.37,-2.22,0.45,0.26,-0.16
2022-01-25 17:22:18.4280,-0.042,-0.482,-0.709,1.57,0.88,-2.08,0.45,0.26,-0.16
2022-01-25 17:22:18.4380,0.011,-0.537,-0.741,1.11,1.41,-1.76,0.28,0.42,-0.21
2022-01-25 17:22:18.4480,0.075,-0.589,-0.824,0.53,1.9,-1.01,-0.01,0.31,-0.21
2022-01-25 17:22:18.4590,0.123,-0.637,-0.939,0.08,2.39,0.11,-0.01,0.31,-0.21
2022-01-25 17:22:18.4690,0.161,-0.653,-1.043,-0.28,2.6,1.16,-0.11,-0.06,-0.29
2022-01-25 17:22:18.4780,0.208,-0.652,-1.12,-0.69,2.6,1.96,-0.11,-0.1,-0.28
2022-01-25 17:22:18.4880,0.301,-0.67,-1.163,-1.54,2.75,2.39,-0.24,0.02,-0.15
2022-01-25 17:22:18.4980,0.408,-0.706,-1.213,-2.58,3.14,2.87,-0.24,0.02,-0.15
2022-01-25 17:22:18.5080,0.509,-0.73,-1.242,-3.59,3.4,3.17,-0.25,0.56,0.65
2022-01-25 17:22:18.5180,0.581,-0.768,-1.27,-4.76,4.25,3.7,-0.25,0.56,0.65
2022-01-25 17:22:18.5280,0.624,-0.817,-1.297,-4.76,4.25,3.7,0.09,0.53,1.79
2022-01-25 17:22:18.5380,0.604,-0.85,-1.346,-4.65,4.62,4.14,0.09,0.53,1.79
2022-01-25 17:22:18.5490,0.502,-0.789,-1.396,-3.76,4.11,4.66,0.33,-0.78,1.98
2022-01-25 17:22:18.5580,0.375,-0.676,-1.463,-2.62,2.93,5.28,0.19,-1.44,1.73
2022-01-25 17:22:18.5680,0.269,-0.673,-1.539,-1.72,2.67,6.07,0.19,-1.44,1.73
2022-01-25 17:22:18.5790,0.157,-0.738,-1.549,-0.87,3.33,6.24,0.13,-1.66,1.49
2022-01-25 17:22:18.5890,0.004,-0.658,-1.532,0.4,2.73,6.06,0.27,-1.49,1.18
2022-01-25 17:22:18.5990,-0.149,-0.492,-1.509,1.76,1.09,5.88,0.76,-0.39,0.41
2022-01-25 17:22:18.6090,-0.257,-0.322,-1.443,2.8,-0.64,5.29,0.76,-0.39,0.41
2022-01-25 17:22:18.6190,-0.296,-0.178,-1.375,3.24,-2.17,4.66,1.22,0.51,-0.13
2022-01-25 17:22:18.6290,-0.292,-0.081,-1.254,3.25,-3.29,3.62,1.21,0.9,-0.16
2022-01-25 17:22:18.6390,-0.292,-0.042,-1.069,3.29,-3.85,1.89,1.04,1.15,-0.08
2022-01-25 17:22:18.6490,-0.302,-0.027,-0.911,3.48,-4.1,0.33,1.04,1.15,-0.08
2022-01-25 17:22:18.6590,-0.311,-0.014,-0.816,3.68,-4.32,-0.64,0.83,1.07,-0.02
2022-01-25 17:22:18.6690,-0.319,-0.044,-0.782,3.84,-4.16,-0.98,0.61,0.68,-0.06
2022-01-25 17:22:18.6790,-0.314,-0.112,-0.757,3.86,-3.56,-1.19,0.37,0.18,-0.19
2022-01-25 17:22:18.6890,-0.294,-0.187,-0.711,3.68,-2.84,-1.59,0.13,-0.19,-0.42
2022-01-25 17:22:18.6990,-0.279,-0.25,-0.65,3.53,-2.2,-2.19,-0.09,-0.33,-0.69
2022-01-25 17:22:18.7090,-0.273,-0.275,-0.601,3.47,-1.89,-2.7,-0.31,-0.24,-0.95
2022-01-25 17:22:18.7190,-0.256,-0.298,-0.566,3.37,-1.64,-3.1,-0.68,0.16,-1.32
2022-01-25 17:22:18.7290,-0.219,-0.338,-0.571,3.09,-1.2,-3.12,-0.68,0.16,-1.32
2022-01-25 17:22:18.7390,-0.164,-0.378,-0.597,2.64,-0.72,-2.91,-0.73,0.23,-1.65
2022-01-25 17:22:18.7490,-0.111,-0.398,-0.643,2.19,-0.41,-2.52,-0.6,0.06,-1.82
2022-01-25 17:22:18.7590,-0.052,-0.404,-0.694,1.73,-0.26,-2.04,-0.6,0.06,-1.82
2022-01-25 17:22:18.7690,0.019,-0.398,-0.728,1.11,-0.23,-1.7,-0.28,-0.34,-2.07
2022-01-25 17:22:18.7790,0.089,-0.389,-0.734,0.48,-0.26,-1.62,-0.28,-0.34,-2.07
2022-01-25 17:22:18.7890,0.147,-0.366,-0.713,-0.06,-0.41,-1.82,-0.12,-0.23,-2.14
2022-01-25 17:22:18.7990,0.197,-0.33,-0.676,-0.49,-0.72,-2.17,-0.1,0.02,-2.09
2022-01-25 17:22:18.8090,0.247,-0.296,-0.638,-0.91,-1.01,-2.56,-0.1,0.02,-2.09
2022-01-25 17:22:18.8190,0.299,-0.258,-0.607,-1.32,-1.34,-2.88,-0.03,0.54,-1.82
2022-01-25 17:22:18.8290,0.343,-0.221,-0.585,-1.66,-1.67,-3.1,-0.03,0.54,-1.82
2022-01-25 17:22:18.8390,0.37,-0.195,-0.57,-1.82,-1.89,-3.24,0.03,0.77,-1.3
2022-01-25 17:22:18.8490,0.388,-0.165,-0.559,-1.87,-2.17,-3.35,0.11,0.77,-1.3
2022-01-25 17:22:18.8590,0.423,-0.152,-0.535,-2.09,-2.32,-3.53,0.2,0.73,-0.76
2022-01-25 17:22:18.8690,0.446,-0.173,-0.503,-2.24,-2.14,-3.83,0.2,0.73,-0.76
2022-01-25 17:22:18.8790,0.497,-0.121,-0.493,-2.59,-2.54,-3.94,0.17,0.7,-0.47
2022-01-25 17:22:18.8900,0.501,-0.133,-0.456,-2.69,-2.57,-4.25,0.11,0.55,-0.1
2022-01-25 17:22:18.8990,0.467,-0.175,-0.486,-2.28,-2.13,-4.0,0.06,0.33,0.24
2022-01-25 17:22:18.9100,0.479,-0.153,-0.457,-2.37,-2.3,-4.22,-0.02,0.2,0.52
2022-01-25 17:22:18.9200,0.437,-0.208,-0.472,-2.07,-1.92,-4.16,-0.13,0.02,0.84
2022-01-25 17:22:18.9300,0.374,-0.281,-0.524,-1.44,-1.13,-3.67,-0.23,-0.15,1.11
2022-01-25 17:22:18.9390,0.333,-0.333,-0.583,-1.12,-0.68,-3.13,-0.29,-0.33,1.3
2022-01-25 17:22:18.9500,0.283,-0.437,-0.674,-0.71,0.31,-2.28,-0.32,-0.5,1.45
2022-01-25 17:22:18.9600,0.224,-0.534,-0.778,-0.27,1.27,-1.32,-0.31,-0.68,1.56
2022-01-25 17:22:18.9700,0.155,-0.638,-0.899,0.29,2.28,-0.14,-0.23,-0.78,1.62
2022-01-25 17:22:18.9800,0.088,-0.732,-0.997,0.8,3.21,0.8,-0.01,-0.68,1.55
2022-01-25 17:22:18.9900,0.018,-0.8,-1.101,1.37,3.9,1.81,-0.01,-0.68,1.55
2022-01-25 17:22:19.0000,-0.045,-0.841,-1.187,1.87,4.3,2.66,0.05,-0.46,1.06
2022-01-25 17:22:19.0100,-0.104,-0.856,-1.271,2.36,4.46,3.5,-0.02,-0.23,0.73
2022-01-25 17:22:19.0210,-0.147,-0.849,-1.319,2.74,4.4,4.01,-0.13543692231178284,0.16,0.48
2022-01-25 17:22:19.0300,-0.161,-0.852,-1.337,2.89,4.39,4.21,-0.2,0.63,0.42
2022-01-25 17:22:19.0390,-0.132,-0.911,-1.341,2.67,4.91,4.25,-0.19,0.9,0.45
2022-01-25 17:22:19.0500,-0.085,-0.976,-1.376,2.27,5.6,4.52,-0.19,0.9,0.45
2022-01-25 17:22:19.0600,-0.022,-0.988,-1.471,1.73,5.79,5.41,-0.17,0.75,0.37
2022-01-25 17:22:19.0700,0.054,-0.96,-1.574,1.04,5.57,6.43,-0.43,-0.35,-0.12
2022-01-25 17:22:19.0800,0.125,-0.908,-1.672,0.31,5.13,7.39,-0.43,-0.35,-0.12
2022-01-25 17:22:19.0900,0.128,-0.808,-1.728,0.15,4.26,7.99,-0.51,-0.78,-0.33
2022-01-25 17:22:19.1000,0.11,-0.685,-1.739,0.33,2.03,7.74,0.09,-0.73,-0.44
2022-01-25 17:22:19.1100,0.099,-0.574,-1.695,0.33,2.03,7.74,0.63,-0.34,-0.29
2022-01-25 17:22:19.1200,0.083,-0.445,-1.594,0.44,0.76,6.8,0.63,-0.34,-0.29
2022-01-25 17:22:19.1300,0.095,-0.337,-1.48,0.37,-0.42,5.71,1.11,0.01,-0.04
2022-01-25 17:22:19.1400,0.142,-0.278,-1.372,-0.07,-1.16,4.69,1.44,0.12,0.2
2022-01-25 17:22:19.1510,0.192,-0.234,-1.263,-0.57,-1.73,3.69,1.58,-0.34,0.3
2022-01-25 17:22:19.1610,0.226,-0.187,-1.147,-0.95,-2.33,2.62,1.58,-0.34,0.3
2022-01-25 17:22:19.1700,0.229,-0.147,-1.038,-1.07,-2.87,1.61,1.41,-0.7,0.18
2022-01-25 17:22:19.1800,0.206,-0.103,-0.915,-0.95,-3.41,0.47,0.83,-0.99,-0.17
2022-01-25 17:22:19.1900,0.182,-0.073,-0.801,-0.78,-3.82,-0.64,0.83,-0.99,-0.17
2022-01-25 17:22:19.2000,0.161,-0.06,-0.701,-0.65,-4.03,-1.62,0.53,-0.86,-0.28
2022-01-25 17:22:19.2110,0.144,-0.054,-0.621,-0.53,-4.12,-2.42,0.27,-0.61,-0.33
2022-01-25 17:22:19.2210,0.133,-0.061,-0.571,-0.44,-4.08,-2.95,0.02,-0.37,-0.31
2022-01-25 17:22:19.2310,0.13,-0.093,-0.553,-0.41,-3.8,-3.16,-0.21,-0.2,-0.24
2022-01-25 17:22:19.2410,0.134,-0.142,-0.557,-0.45,-3.3,-3.17,-0.48,-0.31,-0.04
2022-01-25 17:22:19.2510,0.134,-0.193,-0.588,-0.48,-2.76,-2.91,-0.48,-0.31,-0.04
2022-01-25 17:22:19.2610,0.125,-0.242,-0.606,-0.43,-2.23,-2.72,-0.46,-0.56,0.14
2022-01-25 17:22:19.2710,0.111,-0.285,-0.598,-0.34,-1.75,-2.81,-0.38,-0.56,0.19
2022-01-25 17:22:19.2810,0.102,-0.321,-0.589,-0.31,-1.36,-2.92,-0.38,-0.56,0.19
2022-01-25 17:22:19.2910,0.093,-0.351,-0.57,-0.28,-1.02,-3.12,-0.3,-0.46,0.21
2022-01-25 17:22:19.3010,0.083,-0.371,-0.549,-0.22,-0.79,-3.34,-0.23,-0.31,0.21
2022-01-25 17:22:19.3110,0.065,-0.377,-0.535,-0.1,-0.68,-3.5,-0.19,-0.17,0.16
2022-01-25 17:22:19.3210,0.052,-0.363,-0.525,0.04,-0.79,-3.61,-0.19,0.03,-0.05
2022-01-25 17:22:19.3310,0.052,-0.353,-0.519,0.04,-0.88,-3.69,-0.19,0.03,-0.05
2022-01-25 17:22:19.3410,0.051,-0.344,-0.524,0.06,-0.94,-3.65,-0.19,0.07,-0.13
2022-01-25 17:22:19.3510,0.061,-0.322,-0.529,-0.01,-1.14,-3.62,-0.1,0.01,-0.09
2022-01-25 17:22:19.3610,0.066,-0.326,-0.553,-0.05,-1.12,-3.41,-0.0,-0.05,-0.03
2022-01-25 17:22:19.3710,0.085,-0.318,-0.556,-0.23,-1.14,-3.35,0.09,-0.1,0.04
2022-01-25 17:22:19.3810,0.085,-0.291,-0.559,-0.28,-1.42,-3.33,0.09,-0.1,0.04
2022-01-25 17:22:19.3920,0.071,-0.297,-0.543,-0.15,-1.41,-3.44,0.18,-0.07,0.16
2022-01-25 17:22:19.4010,0.051,-0.309,-0.525,0.02,-1.3,-3.64,0.22,-0.02,0.27
2022-01-25 17:22:19.4110,0.028,-0.325,-0.536,0.24,-1.19,-3.55,0.23,0.05,0.35
2022-01-25 17:22:19.4210,0.013,-0.361,-0.541,0.37,-0.87,-3.47,0.23,0.05,0.35
2022-01-25 17:22:19.4320,-0.004,-0.395,-0.548,0.53,-0.55,-3.41,0.24,0.04,0.33
2022-01-25 17:22:19.4410,-0.008,-0.425,-0.568,0.58,-0.28,-3.21,0.25,-0.08,0.21
2022-01-25 17:22:19.4510,-0.001,-0.468,-0.581,0.51,0.1,-3.06,0.21,-0.19,0.14
2022-01-25 17:22:19.4620,0.016,-0.514,-0.603,0.34,0.54,-2.87,0.12,-0.31,0.06
