
time,gFx,gFy,gFz,ax,ay,az,wx,wy,wz,
0.079330,0.0000,0.0000,0.0000,0.0000,0.0000,0.0000,0.5827,0.7758,0.9921,
0.095764,-0.1727,0.2640,1.1583,0.0000,0.0000,0.0000,0.5827,0.7758,0.9921,
0.097643,-0.2100,0.2372,1.1052,0.0000,0.0000,0.0000,0.5827,0.7758,0.9921,
0.098815,-0.0718,0.2427,1.0885,0.0000,0.0000,0.0000,0.5827,0.7758,0.9921,
0.100335,-0.0834,0.3838,1.0165,0.0000,0.0000,0.0000,0.5827,0.7758,0.9921,
0.119675,-0.0834,0.3838,1.0165,0.0000,0.0000,0.0000,0.8426,0.4690,1.1082,
0.159252,-0.0834,0.3838,1.0165,0.0000,0.0000,0.0000,0.1938,-0.3012,0.5394,
0.161424,-0.0834,0.3838,1.0165,0.0000,0.0000,-0.0000,0.1938,-0.3012,0.5394,
0.178672,-0.0839,0.4380,0.7697,0.0000,0.0000,-0.0000,0.1938,-0.3012,0.5394,
0.180599,0.0878,0.3431,0.7998,0.0000,0.0000,-0.0000,0.1938,-0.3012,0.5394,
0.181874,0.0748,0.2193,0.9699,0.0000,0.0000,-0.0000,0.1938,-0.3012,0.5394,
0.184854,-0.0577,0.1386,1.0463,0.0000,0.0000,-0.0000,0.1938,-0.3012,0.5394,
0.200515,-0.0577,0.1386,1.0463,0.0000,0.0000,-0.0000,-0.5465,-0.0104,0.1282,
0.202707,-0.0577,0.1386,1.0463,0.7089,-0.0775,-0.6783,-0.5465,-0.0104,0.1282,
0.238575,-0.0577,0.1386,1.0463,0.7089,-0.0775,-0.6783,-0.1044,-0.1542,0.1474,
0.240597,-0.0577,0.1386,1.0463,-0.1161,-1.2940,0.2718,-0.1044,-0.1542,0.1474,
0.278143,-0.0431,0.0737,1.0116,-0.1161,-1.2940,0.2718,-0.1044,-0.1542,0.1474,
0.280440,-0.0305,0.0833,0.9882,-0.1161,-1.2940,0.2718,-0.1044,-0.1542,0.1474,
0.281614,-0.0113,0.1175,0.9318,-0.1161,-1.2940,0.2718,-0.1044,-0.1542,0.1474,
0.283160,-0.0113,0.1175,0.9318,-0.1161,-1.2940,0.2718,0.3803,-0.7220,-0.1914,
0.284448,-0.0113,0.1175,0.9318,-0.2472,-0.9574,0.2007,0.3803,-0.7220,-0.1914,
0.317608,-0.0113,0.1175,0.9318,-0.2472,-0.9574,0.2007,0.0170,-0.8871,-0.6484,
0.319098,-0.0113,0.1175,0.9318,0.2862,-0.0830,-1.0115,0.0170,-0.8871,-0.6484,
0.357030,0.0444,0.1592,0.8602,0.2862,-0.0830,-1.0115,0.0170,-0.8871,-0.6484,
0.359737,0.0775,0.2039,0.8064,0.2862,-0.0830,-1.0115,0.0170,-0.8871,-0.6484,
0.361128,0.0475,0.2133,0.8123,0.2862,-0.0830,-1.0115,0.0170,-0.8871,-0.6484,
0.362103,-0.0049,0.2045,0.8690,0.2862,-0.0830,-1.0115,0.0170,-0.8871,-0.6484,
0.363462,-0.0093,0.2025,0.9369,0.2862,-0.0830,-1.0115,0.0170,-0.8871,-0.6484,
0.364602,0.0249,0.2243,0.9792,0.2862,-0.0830,-1.0115,0.0170,-0.8871,-0.6484,
0.366169,0.0249,0.2243,0.9792,0.2862,-0.0830,-1.0115,-0.1183,-0.9286,-0.5653,
0.367463,0.0249,0.2243,0.9792,-0.4037,0.1870,-0.3392,-0.1183,-0.9286,-0.5653,
0.396926,0.0249,0.2243,0.9792,-0.4037,0.1870,-0.3392,0.0255,-0.3662,-0.3863,
0.399123,0.0249,0.2243,0.9792,-0.4067,0.1362,-0.2643,0.0255,-0.3662,-0.3863,
0.436696,0.0743,0.2560,1.0462,-0.4067,0.1362,-0.2643,0.0255,-0.3662,-0.3863,
0.439793,0.0887,0.2565,1.0835,-0.4067,0.1362,-0.2643,0.0255,-0.3662,-0.3863,
0.441214,0.0605,0.2669,0.9944,-0.4067,0.1362,-0.2643,0.0255,-0.3662,-0.3863,
0.443338,0.0392,0.3170,0.9273,-0.4067,0.1362,-0.2643,0.0255,-0.3662,-0.3863,
0.444887,0.0392,0.3170,0.9273,0.4389,0.4163,0.9808,0.0255,-0.3662,-0.3863,
0.446466,0.0392,0.3170,0.9273,0.4389,0.4163,0.9808,0.2173,0.6277,-0.2457,
0.475946,0.0392,0.3170,0.9273,0.4389,0.4163,0.9808,0.3036,0.7769,-0.2915,
0.477180,0.0392,0.3170,0.9273,0.6236,0.2530,0.8355,0.3036,0.7769,-0.2915,
0.511486,0.0472,0.3327,0.8518,0.6236,0.2530,0.8355,0.3036,0.7769,-0.2915,
0.515834,0.0670,0.3343,0.8054,0.6236,0.2530,0.8355,0.3036,0.7769,-0.2915,
0.518417,0.1490,0.2921,0.8115,0.6236,0.2530,0.8355,0.3036,0.7769,-0.2915,
0.520670,0.0472,0.3753,0.9012,0.6236,0.2530,0.8355,0.3036,0.7769,-0.2915,
0.522552,0.0472,0.3753,0.9012,0.7984,1.1215,-0.8638,0.3036,0.7769,-0.2915,
0.524160,0.0472,0.3753,0.9012,0.7984,1.1215,-0.8638,-0.2631,0.8237,-0.7251,
0.555398,0.0472,0.3753,0.9012,0.7984,1.1215,-0.8638,-0.8054,1.0773,-0.5887,
0.556887,0.0472,0.3753,0.9012,1.0914,1.2501,-0.8002,-0.8054,1.0773,-0.5887,
0.586332,-0.1102,0.4074,0.9286,1.0914,1.2501,-0.8002,-0.8054,1.0773,-0.5887,
0.588336,-0.1712,0.3365,0.8254,1.0914,1.2501,-0.8002,-0.8054,1.0773,-0.5887,
0.589359,-0.2010,0.2875,0.8123,1.0914,1.2501,-0.8002,-0.8054,1.0773,-0.5887,
0.590072,-0.2033,0.2387,0.9903,1.0914,1.2501,-0.8002,-0.8054,1.0773,-0.5887,
0.594266,-0.2033,0.2387,0.9903,1.0914,1.2501,-0.8002,-1.0472,0.6725,-0.1264,
0.595483,-0.2033,0.2387,0.9903,-0.9466,1.1890,-0.8345,-1.0472,0.6725,-0.1264,
0.634013,-0.2033,0.2387,0.9903,-0.9466,1.1890,-0.8345,-0.6669,0.4147,0.3221,
0.635100,-0.2033,0.2387,0.9903,-0.7266,1.2631,-0.7705,-0.6669,0.4147,0.3221,
0.664230,-0.1510,0.2086,1.1529,-0.7266,1.2631,-0.7705,-0.6669,0.4147,0.3221,
0.665722,-0.1429,0.2048,1.1524,-0.7266,1.2631,-0.7705,-0.6669,0.4147,0.3221,
0.666504,-0.2555,0.2375,1.0782,-0.7266,1.2631,-0.7705,-0.6669,0.4147,0.3221,
0.667281,-0.2715,0.2176,1.0286,-0.7266,1.2631,-0.7705,-0.6669,0.4147,0.3221,
0.675333,-0.2715,0.2176,1.0286,-0.3078,0.1959,1.7318,-0.6669,0.4147,0.3221,
0.676890,-0.2715,0.2176,1.0286,-0.3078,0.1959,1.7318,0.0841,0.8024,0.6012,
0.712697,-0.2715,0.2176,1.0286,-0.3078,0.1959,1.7318,0.3994,0.5318,0.3924,
0.717056,-0.2715,0.2176,1.0286,-0.1289,0.0244,1.6142,0.3994,0.5318,0.3924,
0.753281,-0.1659,0.2767,1.0017,-0.1289,0.0244,1.6142,0.3994,0.5318,0.3924,
0.755094,-0.0681,0.3513,0.9664,-0.1289,0.0244,1.6142,0.3994,0.5318,0.3924,
0.756055,-0.1278,0.3875,1.0374,-0.1289,0.0244,1.6142,0.3994,0.5318,0.3924,
0.756998,-0.1278,0.3875,1.0374,-0.1289,0.0244,1.6142,0.3835,0.3188,-0.1328,
0.757925,-0.1278,0.3875,1.0374,-0.3232,0.3030,0.5323,0.3835,0.3188,-0.1328,
0.792773,-0.1278,0.3875,1.0374,-0.3232,0.3030,0.5323,0.2482,-1.7382,0.1005,
0.794023,-0.1278,0.3875,1.0374,-0.6704,1.5106,0.9085,0.2482,-1.7382,0.1005,
0.831511,-0.2524,0.4289,1.1406,-0.6704,1.5106,0.9085,0.2482,-1.7382,0.1005,
0.834672,-0.2348,0.4505,1.0400,-0.6704,1.5106,0.9085,0.2482,-1.7382,0.1005,
0.835598,-0.1183,0.2251,0.7047,-0.6704,1.5106,0.9085,0.2482,-1.7382,0.1005,
0.836291,-0.0803,0.1768,0.9740,-0.6704,1.5106,0.9085,0.2482,-1.7382,0.1005,
0.836938,0.0942,0.2575,1.2603,-0.6704,1.5106,0.9085,0.2482,-1.7382,0.1005,
0.837721,0.0942,0.2575,1.2603,-0.6704,1.5106,0.9085,-0.3878,-5.0629,0.6694,
0.838478,0.0942,0.2575,1.2603,-1.6670,0.1041,-0.4725,-0.3878,-5.0629,0.6694,
0.872614,0.0942,0.2575,1.2603,-1.6670,0.1041,-0.4725,0.4463,-3.8251,0.3221,
0.874465,0.0942,0.2575,1.2603,-2.8929,-0.0411,-0.1853,0.4463,-3.8251,0.3221,
0.910860,0.2085,0.3341,1.3167,-2.8929,-0.0411,-0.1853,0.4463,-3.8251,0.3221,
0.913116,0.3096,0.2940,0.9581,-2.8929,-0.0411,-0.1853,0.4463,-3.8251,0.3221,
0.914503,0.1901,0.2563,0.7911,-2.8929,-0.0411,-0.1853,0.4463,-3.8251,0.3221,
0.915936,0.0238,0.1048,1.0648,-2.8929,-0.0411,-0.1853,0.4463,-3.8251,0.3221,
0.917059,0.0238,0.1048,1.0648,-2.8929,-0.0411,-0.1853,0.7627,-2.2932,-0.7645,
0.918907,0.0238,0.1048,1.0648,-0.4131,0.0612,1.6060,0.7627,-2.2932,-0.7645,
0.952485,0.0238,0.1048,1.0648,-0.4131,0.0612,1.6060,0.4911,-0.6474,-0.2010,
0.954301,0.0238,0.1048,1.0648,-0.5781,-0.1275,1.6119,0.4911,-0.6474,-0.2010,
0.991475,-0.1812,0.0208,0.9715,-0.5781,-0.1275,1.6119,0.4911,-0.6474,-0.2010,
0.993994,-0.0542,0.1080,0.8441,-0.5781,-0.1275,1.6119,0.4911,-0.6474,-0.2010,
0.995121,0.2686,0.2736,0.6838,-0.5781,-0.1275,1.6119,0.4911,-0.6474,-0.2010,
0.996424,0.2686,0.2736,0.6838,-0.5781,-0.1275,1.6119,1.0120,-1.6051,-0.0231,
0.997562,0.2686,0.2736,0.6838,-3.6731,-2.2840,0.6709,1.0120,-1.6051,-0.0231,
1.030634,0.2686,0.2736,0.6838,-3.6731,-2.2840,0.6709,1.2261,-2.3018,-0.3576,
1.032047,0.2686,0.2736,0.6838,-1.4786,-1.3455,-1.2001,1.2261,-2.3018,-0.3576,
1.069641,0.3713,0.2466,0.7009,-1.4786,-1.3455,-1.2001,1.2261,-2.3018,-0.3576,
1.071191,0.1216,0.2288,0.7176,-1.4786,-1.3455,-1.2001,1.2261,-2.3018,-0.3576,
1.071962,0.0417,0.2046,0.3268,-1.4786,-1.3455,-1.2001,1.2261,-2.3018,-0.3576,
1.073259,0.2640,0.1230,0.2470,-1.4786,-1.3455,-1.2001,1.2261,-2.3018,-0.3576,
1.075120,0.5163,0.2397,0.4554,-1.4786,-1.3455,-1.2001,1.2261,-2.3018,-0.3576,
1.077768,0.5163,0.2397,0.4554,-1.4786,-1.3455,-1.2001,0.5081,-2.4605,0.0004,
1.079544,0.5163,0.2397,0.4554,-2.5520,-1.8630,-3.9040,0.5081,-2.4605,0.0004,
1.109957,0.5163,0.2397,0.4554,-2.5520,-1.8630,-3.9040,-0.0533,-1.9918,-0.6761,
1.111364,0.5163,0.2397,0.4554,-2.8537,-1.8591,-3.3330,-0.0533,-1.9918,-0.6761,
1.147501,0.7551,0.2538,0.5117,-2.8537,-1.8591,-3.3330,-0.0533,-1.9918,-0.6761,
1.149456,0.7353,0.2781,0.4414,-2.8537,-1.8591,-3.3330,-0.0533,-1.9918,-0.6761,
1.150374,0.6002,0.2970,0.6053,-2.8537,-1.8591,-3.3330,-0.0533,-1.9918,-0.6761,
1.151037,0.4443,0.2980,0.6753,-2.8537,-1.8591,-3.3330,-0.0533,-1.9918,-0.6761,
1.151744,0.4443,0.2980,0.6753,-2.8537,-1.8591,-3.3330,0.1406,-2.3614,-1.7083,
1.152622,0.4443,0.2980,0.6753,1.6258,-1.2775,-1.5217,0.1406,-2.3614,-1.7083,
1.189556,0.4443,0.2980,0.6753,1.6258,-1.2775,-1.5217,0.9225,-1.0330,-2.0119,
1.192589,0.4443,0.2980,0.6753,1.6157,-1.8113,-1.0870,0.9225,-1.0330,-2.0119,
1.226325,0.2672,0.2896,0.7249,1.6157,-1.8113,-1.0870,0.9225,-1.0330,-2.0119,
1.229027,0.4105,0.2568,0.5024,1.6157,-1.8113,-1.0870,0.9225,-1.0330,-2.0119,
1.230397,0.5208,0.4235,0.2463,1.6157,-1.8113,-1.0870,0.9225,-1.0330,-2.0119,
1.231725,0.4519,0.4972,0.2409,1.6157,-1.8113,-1.0870,0.9225,-1.0330,-2.0119,
1.233147,0.4519,0.4972,0.2409,1.6157,-1.8113,-1.0870,0.4634,-0.4599,-1.5890,
1.234357,0.4519,0.4972,0.2409,-0.4393,-0.5916,-2.7923,0.4634,-0.4599,-1.5890,
1.269134,0.4519,0.4972,0.2409,-0.4393,-0.5916,-2.7923,-0.7606,-1.5156,-1.0937,
1.271140,0.4519,0.4972,0.2409,-0.5297,-0.6111,-2.5066,-0.7606,-1.5156,-1.0937,
1.307782,0.3379,0.5466,0.3275,-0.5297,-0.6111,-2.5066,-0.7606,-1.5156,-1.0937,
1.314889,0.0599,0.6338,0.3395,-0.5297,-0.6111,-2.5066,-0.7606,-1.5156,-1.0937,
1.317979,-0.2052,0.6317,0.5338,-0.5297,-0.6111,-2.5066,-0.7606,-1.5156,-1.0937,
1.319561,0.1025,0.5104,0.6654,-0.5297,-0.6111,-2.5066,-0.7606,-1.5156,-1.0937,
1.321182,0.1025,0.5104,0.6654,-0.5297,-0.6111,-2.5066,-0.8938,-2.0482,1.2712,
1.322759,0.1025,0.5104,0.6654,-5.6181,1.4788,-0.5363,-0.8938,-2.0482,1.2712,
1.348276,0.1025,0.5104,0.6654,-6.2092,2.2327,-0.1576,-0.8938,-2.0482,1.2712,
1.351505,0.1025,0.5104,0.6654,-6.2092,2.2327,-0.1576,-0.1374,-1.6924,3.5477,
1.381788,0.6244,0.3104,0.4884,-6.2092,2.2327,-0.1576,-0.1374,-1.6924,3.5477,
1.385088,0.5610,0.0198,0.3400,-6.2092,2.2327,-0.1576,-0.1374,-1.6924,3.5477,
1.387647,0.5296,-0.0571,0.3770,-6.2092,2.2327,-0.1576,-0.1374,-1.6924,3.5477,
1.389097,0.6701,0.0866,0.2577,-6.2092,2.2327,-0.1576,-0.1374,-1.6924,3.5477,
1.390219,0.6701,0.0866,0.2577,-6.2092,2.2327,-0.1576,0.5827,-2.3060,4.5714,
1.391476,0.6701,0.0866,0.2577,-1.7792,-0.9713,0.3411,0.5827,-2.3060,4.5714,
1.426631,0.6701,0.0866,0.2577,-1.7792,-0.9713,0.3411,0.9182,-2.6469,4.4617,
1.428218,0.6701,0.0866,0.2577,-2.4045,0.1897,1.1327,0.9182,-2.6469,4.4617,
1.460169,1.2603,0.2202,0.3135,-2.4045,0.1897,1.1327,0.9182,-2.6469,4.4617,
1.462073,1.4269,-0.0066,0.0697,-2.4045,0.1897,1.1327,0.9182,-2.6469,4.4617,
1.465906,1.0381,-0.3429,0.1075,-2.4045,0.1897,1.1327,0.9182,-2.6469,4.4617,
1.467995,0.5081,-0.7166,0.2551,-2.4045,0.1897,1.1327,0.9182,-2.6469,4.4617,
1.469468,0.5081,-0.7166,0.2551,-2.4045,0.1897,1.1327,1.5414,-2.9196,3.6904,
1.471565,0.5081,-0.7166,0.2551,0.4743,-5.5166,-1.0526,1.5414,-2.9196,3.6904,
1.506919,0.5081,-0.7166,0.2551,0.4743,-5.5166,-1.0526,2.6472,-2.5468,5.8881,
1.508558,0.5081,-0.7166,0.2551,0.4135,-3.6468,-0.2832,2.6472,-2.5468,5.8881,
1.546166,0.8705,-1.0147,0.0381,0.4135,-3.6468,-0.2832,2.6472,-2.5468,5.8881,
1.549603,1.3076,-1.0190,0.1603,0.4135,-3.6468,-0.2832,2.6472,-2.5468,5.8881,
1.550613,1.5681,-0.9420,0.0657,0.4135,-3.6468,-0.2832,2.6472,-2.5468,5.8881,
1.551424,1.5681,-0.9420,0.0657,0.4135,-3.6468,-0.2832,1.9558,-1.9023,5.9882,
1.552547,1.5681,-0.9420,0.0657,5.7690,-5.6830,-0.1162,1.9558,-1.9023,5.9882,
1.585991,1.5681,-0.9420,0.0657,5.7690,-5.6830,-0.1162,1.2794,-2.0354,3.9972,
1.587845,1.5681,-0.9420,0.0657,6.6622,-3.0894,1.7613,1.2794,-2.0354,3.9972,
1.623746,1.5826,-0.7501,0.0236,6.6622,-3.0894,1.7613,1.2794,-2.0354,3.9972,
1.625738,1.4712,-0.7908,0.1730,6.6622,-3.0894,1.7613,1.2794,-2.0354,3.9972,
1.626968,1.3930,-0.8436,0.3710,6.6622,-3.0894,1.7613,1.2794,-2.0354,3.9972,
1.627978,1.4437,-0.8705,0.3384,6.6622,-3.0894,1.7613,1.2794,-2.0354,3.9972,
1.628998,1.4534,-0.7625,0.2358,6.6622,-3.0894,1.7613,1.2794,-2.0354,3.9972,
1.630674,1.4534,-0.7625,0.2358,7.0261,-2.1366,1.6907,1.2794,-2.0354,3.9972,
1.631975,1.4534,-0.7625,0.2358,7.0261,-2.1366,1.6907,0.7552,-0.5377,3.1024,
1.664346,1.4534,-0.7625,0.2358,7.0261,-2.1366,1.6907,-0.2237,1.0879,1.8571,
1.666419,1.4534,-0.7625,0.2358,7.2275,-1.5558,1.3962,-0.2237,1.0879,1.8571,
1.701395,1.3944,-0.6238,0.2103,7.2275,-1.5558,1.3962,-0.2237,1.0879,1.8571,
1.703023,1.3313,-0.5678,0.2181,7.2275,-1.5558,1.3962,-0.2237,1.0879,1.8571,
1.704026,1.1076,-0.5720,0.2765,7.2275,-1.5558,1.3962,-0.2237,1.0879,1.8571,
1.704829,0.7898,-0.7883,0.3189,7.2275,-1.5558,1.3962,-0.2237,1.0879,1.8571,
1.705777,0.7898,-0.7883,0.3189,7.2275,-1.5558,1.3962,-0.4261,1.4288,0.6640,
1.706672,0.7898,-0.7883,0.3189,2.5489,0.0723,1.4454,-0.4261,1.4288,0.6640,
1.743995,0.7898,-0.7883,0.3189,2.5489,0.0723,1.4454,0.1651,0.5798,1.2936,
1.745588,0.7898,-0.7883,0.3189,2.8275,0.3870,1.2023,0.1651,0.5798,1.2936,
1.779582,0.6743,-0.6866,0.2330,2.8275,0.3870,1.2023,0.1651,0.5798,1.2936,
1.781017,0.8418,-0.5745,0.0588,2.8275,0.3870,1.2023,0.1651,0.5798,1.2936,
1.782800,1.0474,-0.4694,0.0610,2.8275,0.3870,1.2023,0.1651,0.5798,1.2936,
1.784630,1.0935,-0.4687,0.0225,2.8275,0.3870,1.2023,0.1651,0.5798,1.2936,
1.785891,1.0935,-0.4687,0.0225,2.8275,0.3870,1.2023,-0.0629,0.3614,0.9911,
1.787054,1.0935,-0.4687,0.0225,2.7291,1.9734,-0.8390,-0.0629,0.3614,0.9911,
1.822421,1.0935,-0.4687,0.0225,2.7291,1.9734,-0.8390,-1.2677,1.1625,-0.4843,
1.823585,1.0935,-0.4687,0.0225,2.5761,1.8679,-0.7449,-1.2677,1.1625,-0.4843,
1.846752,1.3883,-0.4602,-0.3889,2.5761,1.8679,-0.7449,-1.2677,1.1625,-0.4843,
1.848407,1.0734,-0.4754,-0.1109,2.5761,1.8679,-0.7449,-1.2677,1.1625,-0.4843,
1.849668,0.3274,-0.6193,-0.0580,2.5761,1.8679,-0.7449,-1.2677,1.1625,-0.4843,
1.850898,0.4078,-0.5995,-0.0069,2.5761,1.8679,-0.7449,-1.2677,1.1625,-0.4843,
1.862406,0.4078,-0.5995,-0.0069,2.5761,1.8679,-0.7449,-1.3369,0.8354,-0.3576,
1.863838,0.4078,-0.5995,-0.0069,3.8693,2.1099,-3.1504,-1.3369,0.8354,-0.3576,
1.904954,0.4078,-0.5995,-0.0069,3.8693,2.1099,-3.1504,-0.0277,-0.2000,0.2273,
1.906823,0.4078,-0.5995,-0.0069,-1.9510,0.7613,-1.0079,-0.0277,-0.2000,0.2273,
1.912386,0.5574,-0.6275,0.0692,-1.9510,0.7613,-1.0079,-0.0277,-0.2000,0.2273,
1.914070,0.6325,-0.7892,0.0728,-1.9510,0.7613,-1.0079,-0.0277,-0.2000,0.2273,
1.915372,0.6376,-0.7395,-0.0079,-1.9510,0.7613,-1.0079,-0.0277,-0.2000,0.2273,
1.942716,0.6376,-0.7395,-0.0079,-1.9510,0.7613,-1.0079,0.3579,-1.0586,-0.4428,
1.944680,0.6376,-0.7395,-0.0079,-2.0519,0.6085,-0.8015,0.3579,-1.0586,-0.4428,
1.982743,0.6376,-0.7395,-0.0079,-2.0519,0.6085,-0.8015,-0.6477,-0.7316,-1.3067,
1.984871,0.6376,-0.7395,-0.0079,0.6275,0.3486,-1.6753,-0.6477,-0.7316,-1.3067,
1.986645,0.8410,-0.4770,-0.2343,0.6275,0.3486,-1.6753,-0.6477,-0.7316,-1.3067,
1.987949,1.1405,-0.5215,-0.1823,0.6275,0.3486,-1.6753,-0.6477,-0.7316,-1.3067,
1.990026,1.1158,-0.5385,-0.1058,0.6275,0.3486,-1.6753,-0.6477,-0.7316,-1.3067,
1.991540,1.0466,-0.5475,-0.3051,0.6275,0.3486,-1.6753,-0.6477,-0.7316,-1.3067,
2.023026,1.0466,-0.5475,-0.3051,0.6275,0.3486,-1.6753,-1.1303,0.2570,-1.3568,
2.024721,1.0466,-0.5475,-0.3051,0.2830,-0.0174,-1.4216,-1.1303,0.2570,-1.3568,
2.062002,1.0466,-0.5475,-0.3051,0.2830,-0.0174,-1.4216,-1.0387,0.5127,-0.7357,
2.064471,1.0466,-0.5475,-0.3051,2.9257,0.5148,-2.0858,-1.0387,0.5127,-0.7357,
2.067662,0.9889,-0.6032,-0.1903,2.9257,0.5148,-2.0858,-1.0387,0.5127,-0.7357,
2.069900,1.0242,-0.6771,-0.0422,2.9257,0.5148,-2.0858,-1.0387,0.5127,-0.7357,
2.071820,1.0887,-0.7150,0.1114,2.9257,0.5148,-2.0858,-1.0387,0.5127,-0.7357,
2.074052,1.0641,-0.9679,0.3209,2.9257,0.5148,-2.0858,-1.0387,0.5127,-0.7357,
2.102146,1.0641,-0.9679,0.3209,2.9257,0.5148,-2.0858,0.7606,0.6565,-0.4651,
2.104695,1.0641,-0.9679,0.3209,2.5447,-1.1828,-0.1848,0.7606,0.6565,-0.4651,
2.139327,1.0641,-0.9679,0.3209,2.5447,-1.1828,-0.1848,1.9025,-0.8083,-0.1850,
2.142853,1.0641,-0.9679,0.3209,-0.5115,-5.8744,-0.1917,1.9025,-0.8083,-0.1850,
2.144644,0.7991,-1.3553,0.2617,-0.5115,-5.8744,-0.1917,1.9025,-0.8083,-0.1850,
2.146156,0.6787,-1.2484,-0.1020,-0.5115,-5.8744,-0.1917,1.9025,-0.8083,-0.1850,
2.148295,0.5347,-0.8567,-0.4511,-0.5115,-5.8744,-0.1917,1.9025,-0.8083,-0.1850,
2.150081,0.7977,-0.8233,-0.3415,-0.5115,-5.8744,-0.1917,1.9025,-0.8083,-0.1850,
2.182239,0.7977,-0.8233,-0.3415,-0.5115,-5.8744,-0.1917,0.7712,-0.7593,0.1612,
2.184089,0.7977,-0.8233,-0.3415,-0.4815,-5.6793,-0.1300,0.7712,-0.7593,0.1612,
2.217809,0.8826,-0.9848,0.2035,-0.4815,-5.6793,-0.1300,0.7712,-0.7593,0.1612,
2.219684,0.7028,-1.2112,0.4262,-0.4815,-5.6793,-0.1300,0.7712,-0.7593,0.1612,
2.220862,0.5074,-1.0565,0.2566,-0.4815,-5.6793,-0.1300,0.7712,-0.7593,0.1612,
2.222392,0.5074,-1.0565,0.2566,-0.2126,-3.0906,-1.5121,0.7712,-0.7593,0.1612,
2.223547,0.5074,-1.0565,0.2566,-0.2126,-3.0906,-1.5121,1.7683,-0.4951,0.0164,
2.260983,0.5074,-1.0565,0.2566,-0.2126,-3.0906,-1.5121,2.8687,-1.7159,-0.0039,
2.262237,0.5074,-1.0565,0.2566,-0.2728,-3.1145,-1.6166,2.8687,-1.7159,-0.0039,
2.297890,0.7039,-0.8335,0.2480,-0.2728,-3.1145,-1.6166,2.8687,-1.7159,-0.0039,
2.299189,0.9312,-0.6886,0.2627,-0.2728,-3.1145,-1.6166,2.8687,-1.7159,-0.0039,
2.299938,1.0696,-0.7340,0.4449,-0.2728,-3.1145,-1.6166,2.8687,-1.7159,-0.0039,
2.300579,1.0696,-0.7340,0.4449,-0.2728,-3.1145,-1.6166,2.3798,-1.5412,-0.4609,
2.301372,1.0696,-0.7340,0.4449,-1.6091,-3.3924,1.7089,2.3798,-1.5412,-0.4609,
2.337689,1.0696,-0.7340,0.4449,-1.6091,-3.3924,1.7089,1.3699,-0.8019,0.0313,
2.339093,1.0696,-0.7340,0.4449,-0.5446,-0.1229,0.2799,1.3699,-0.8019,0.0313,
2.377775,0.4375,-0.5374,-0.1751,-0.5446,-0.1229,0.2799,1.3699,-0.8019,0.0313,
2.379733,0.7891,-0.5027,0.1922,-0.5446,-0.1229,0.2799,1.3699,-0.8019,0.0313,
2.381095,1.0360,-0.6109,0.3705,-0.5446,-0.1229,0.2799,1.3699,-0.8019,0.0313,
2.382361,0.4197,-0.5679,0.1922,-0.5446,-0.1229,0.2799,1.3699,-0.8019,0.0313,
2.383318,0.4989,-0.5134,0.0723,-0.5446,-0.1229,0.2799,1.3699,-0.8019,0.0313,
2.384380,0.4989,-0.5134,0.0723,-0.5446,-0.1229,0.2799,1.8035,-0.2447,-0.4779,
2.385871,0.4989,-0.5134,0.0723,-1.1901,0.0169,0.6528,1.8035,-0.2447,-0.4779,
2.416898,0.4989,-0.5134,0.0723,-1.1901,0.0169,0.6528,1.3230,0.1792,-0.2180,
2.417935,0.4989,-0.5134,0.0723,-1.1940,-0.1390,0.2966,1.3230,0.1792,-0.2180,
2.454005,0.6962,-0.6005,0.1053,-1.1940,-0.1390,0.2966,1.3230,0.1792,-0.2180,
2.455185,0.5866,-0.4526,0.1348,-1.1940,-0.1390,0.2966,1.3230,0.1792,-0.2180,
2.456015,0.3346,-0.3456,-0.1801,-1.1940,-0.1390,0.2966,1.3230,0.1792,-0.2180,
2.456659,0.7744,-0.4809,0.2287,-1.1940,-0.1390,0.2966,1.3230,0.1792,-0.2180,
2.459874,0.7744,-0.4809,0.2287,-1.1940,-0.1390,0.2966,0.0820,0.8844,0.2891,
2.461125,0.7744,-0.4809,0.2287,-2.4374,0.7608,-1.5430,0.0820,0.8844,0.2891,
2.495902,0.7744,-0.4809,0.2287,-2.4374,0.7608,-1.5430,0.4932,1.4906,-0.0018,
2.497100,0.7744,-0.4809,0.2287,-2.2363,0.6945,-2.0629,0.4932,1.4906,-0.0018,
2.535663,0.8438,-0.5255,0.3903,-2.2363,0.6945,-2.0629,0.4932,1.4906,-0.0018,
2.536919,0.8421,-0.4218,0.4310,-2.2363,0.6945,-2.0629,0.4932,1.4906,-0.0018,
2.537823,0.5711,-0.3039,0.0610,-2.2363,0.6945,-2.0629,0.4932,1.4906,-0.0018,
2.538648,0.5711,-0.3039,0.0610,-2.2363,0.6945,-2.0629,-0.0703,2.0925,0.3487,
2.539720,0.5711,-0.3039,0.0610,-0.1116,0.9511,-0.9094,-0.0703,2.0925,0.3487,
2.575642,0.5711,-0.3039,0.0610,-0.1116,0.9511,-0.9094,-0.8107,1.1113,0.5735,
2.577294,0.5711,-0.3039,0.0610,-1.1993,2.6840,-2.0197,-0.8107,1.1113,0.5735,
2.615896,0.4536,-0.2322,-0.0977,-1.1993,2.6840,-2.0197,-0.8107,1.1113,0.5735,
2.617441,0.5985,-0.3590,0.2253,-1.1993,2.6840,-2.0197,-0.8107,1.1113,0.5735,
2.618951,0.6139,-0.3039,0.1543,-1.1993,2.6840,-2.0197,-0.8107,1.1113,0.5735,
2.619986,0.6232,-0.4358,0.2669,-1.1993,2.6840,-2.0197,-0.8107,1.1113,0.5735,
2.620966,0.6700,-0.4529,0.2106,-1.1993,2.6840,-2.0197,-0.8107,1.1113,0.5735,
2.622333,0.6700,-0.4529,0.2106,-1.1993,2.6840,-2.0197,-0.5689,0.0163,0.2688,
2.623437,0.6700,-0.4529,0.2106,-0.9325,2.1103,-1.1646,-0.5689,0.0163,0.2688,
2.656287,0.6700,-0.4529,0.2106,-0.9325,2.1103,-1.1646,-0.4421,-0.7198,0.5522,
2.661542,0.6700,-0.4529,0.2106,-0.8679,2.2631,-0.8410,-0.4421,-0.7198,0.5522,
2.691717,0.6819,-0.4809,0.0915,-0.8679,2.2631,-0.8410,-0.4421,-0.7198,0.5522,
2.694323,0.6379,-0.5606,0.2749,-0.8679,2.2631,-0.8410,-0.4421,-0.7198,0.5522,
2.696007,0.7925,-0.7145,0.3864,-0.8679,2.2631,-0.8410,-0.4421,-0.7198,0.5522,
2.697400,0.9630,-0.7361,0.2520,-0.8679,2.2631,-0.8410,-0.4421,-0.7198,0.5522,
2.698749,0.9630,-0.7361,0.2520,-0.8679,2.2631,-0.8410,0.2162,-1.6498,0.9602,
2.700129,0.9630,-0.7361,0.2520,-0.3147,1.0363,-0.3267,0.2162,-1.6498,0.9602,
2.733512,0.9630,-0.7361,0.2520,-0.3147,1.0363,-0.3267,-0.0128,-0.2628,0.5170,
2.734565,0.9630,-0.7361,0.2520,-0.2062,1.1511,-0.2460,-0.0128,-0.2628,0.5170,
2.770071,1.0694,-0.5796,0.0872,-0.2062,1.1511,-0.2460,-0.0128,-0.2628,0.5170,
2.771769,0.7634,-0.5933,-0.0548,-0.2062,1.1511,-0.2460,-0.0128,-0.2628,0.5170,
2.773196,0.8722,-0.6477,0.0694,-0.2062,1.1511,-0.2460,-0.0128,-0.2628,0.5170,
2.774149,0.9089,-0.6288,0.1720,-0.2062,1.1511,-0.2460,-0.0128,-0.2628,0.5170,
2.777645,0.9089,-0.6288,0.1720,1.9738,0.1239,-1.2963,-0.0128,-0.2628,0.5170,
2.779318,0.9089,-0.6288,0.1720,1.9738,0.1239,-1.2963,-0.8299,0.8653,0.5181,
2.812705,0.9089,-0.6288,0.1720,1.9738,0.1239,-1.2963,-0.5987,-0.0860,0.4808,
2.813825,0.9089,-0.6288,0.1720,2.0478,0.2968,-1.0923,-0.5987,-0.0860,0.4808,
2.833029,0.8666,-0.8622,0.3405,2.0478,0.2968,-1.0923,-0.5987,-0.0860,0.4808,
2.834704,0.7827,-1.2242,0.4287,2.0478,0.2968,-1.0923,-0.5987,-0.0860,0.4808,
2.836037,0.8167,-1.3403,0.3320,2.0478,0.2968,-1.0923,-0.5987,-0.0860,0.4808,
2.852970,0.8167,-1.3403,0.3320,2.0478,0.2968,-1.0923,-0.4027,-0.7965,0.7684,
2.854809,0.8167,-1.3403,0.3320,1.1174,-4.9461,1.7353,-0.4027,-0.7965,0.7684,
2.892954,0.8167,-1.3403,0.3320,1.1174,-4.9461,1.7353,-0.3718,-1.4400,1.3170,
2.894744,0.8167,-1.3403,0.3320,-5.5829,-3.2924,0.0958,-0.3718,-1.4400,1.3170,
2.911274,0.4895,-1.2495,0.3043,-5.5829,-3.2924,0.0958,-0.3718,-1.4400,1.3170,
2.912938,0.1052,-1.1310,0.3031,-5.5829,-3.2924,0.0958,-0.3718,-1.4400,1.3170,
2.914385,-0.0490,-1.0483,0.0754,-5.5829,-3.2924,0.0958,-0.3718,-1.4400,1.3170,
2.915375,-0.1702,-1.0398,-0.1271,-5.5829,-3.2924,0.0958,-0.3718,-1.4400,1.3170,
2.931775,-0.1702,-1.0398,-0.1271,-5.5829,-3.2924,0.0958,-0.1385,-3.0528,1.3533,
2.933703,-0.1702,-1.0398,-0.1271,-5.1886,-2.9088,0.8296,-0.1385,-3.0528,1.3533,
2.972698,-0.1702,-1.0398,-0.1271,-5.1886,-2.9088,0.8296,-0.3622,-3.1199,-0.1743,
2.974222,-0.1702,-1.0398,-0.1271,2.4301,3.3230,0.9923,-0.3622,-3.1199,-0.1743,
2.989754,0.6514,-0.6103,0.0993,2.4301,3.3230,0.9923,-0.3622,-3.1199,-0.1743,
2.991743,1.1548,-0.1143,0.0990,2.4301,3.3230,0.9923,-0.3622,-3.1199,-0.1743,
2.993078,1.3946,-0.2851,0.2392,2.4301,3.3230,0.9923,-0.3622,-3.1199,-0.1743,
2.994302,0.9448,-0.5563,0.0811,2.4301,3.3230,0.9923,-0.3622,-3.1199,-0.1743,
3.015160,0.9448,-0.5563,0.0811,2.4301,3.3230,0.9923,-0.9524,-1.6690,-0.2574,
3.016990,0.9448,-0.5563,0.0811,2.3285,3.1798,1.6330,-0.9524,-1.6690,-0.2574,
3.050786,0.9448,-0.5563,0.0811,2.3285,3.1798,1.6330,-0.8927,-1.7862,0.0664,
3.052507,0.9448,-0.5563,0.0811,3.3360,2.1138,1.1290,-0.8927,-1.7862,0.0664,
3.059953,0.8693,-0.6135,-0.1083,3.3360,2.1138,1.1290,-0.8927,-1.7862,0.0664,
3.061757,0.7059,-0.6616,-0.3552,3.3360,2.1138,1.1290,-0.8927,-1.7862,0.0664,
3.063282,0.7049,-0.8713,-0.4758,3.3360,2.1138,1.1290,-0.8927,-1.7862,0.0664,
3.091098,0.7049,-0.8713,-0.4758,3.3360,2.1138,1.1290,-0.3526,-2.0546,-0.5972,
3.093337,0.7049,-0.8713,-0.4758,3.2310,1.9138,1.6755,-0.3526,-2.0546,-0.5972,
3.130454,0.7049,-0.8713,-0.4758,3.2310,1.9138,1.6755,-0.2546,-1.2365,-0.7155,
3.132841,0.7049,-0.8713,-0.4758,0.4399,-1.1623,-0.3026,-0.2546,-1.2365,-0.7155,
3.133966,0.6730,-0.8572,-0.0596,0.4399,-1.1623,-0.3026,-0.2546,-1.2365,-0.7155,
3.135126,0.6078,-0.9175,-0.1994,0.4399,-1.1623,-0.3026,-0.2546,-1.2365,-0.7155,
3.136413,0.5548,-0.7875,0.0209,0.4399,-1.1623,-0.3026,-0.2546,-1.2365,-0.7155,
3.137731,0.4048,-0.8275,-0.0918,0.4399,-1.1623,-0.3026,-0.2546,-1.2365,-0.7155,
3.139130,0.4189,-0.8646,-0.0306,0.4399,-1.1623,-0.3026,-0.2546,-1.2365,-0.7155,
3.171638,0.4189,-0.8646,-0.0306,0.4399,-1.1623,-0.3026,-0.0544,-0.8828,-0.7155,
3.173238,0.4189,-0.8646,-0.0306,-1.2283,-0.9678,1.8083,-0.0544,-0.8828,-0.7155,
3.174622,0.3708,-1.0227,-0.0838,-1.2283,-0.9678,1.8083,-0.0544,-0.8828,-0.7155,
3.175981,0.2442,-0.9893,-0.0449,-1.2283,-0.9678,1.8083,-0.0544,-0.8828,-0.7155,
3.209331,0.2442,-0.9893,-0.0449,-1.2283,-0.9678,1.8083,-0.0693,0.7630,-0.2031,
3.211283,0.2442,-0.9893,-0.0449,-1.3325,-1.0048,1.6066,-0.0693,0.7630,-0.2031,
3.248190,0.2442,-0.9893,-0.0449,-1.3325,-1.0048,1.6066,-0.4432,2.2075,0.0025,
3.249402,0.2442,-0.9893,-0.0449,-1.4853,-1.0206,1.1501,-0.4432,2.2075,0.0025,
3.289874,0.2442,-0.9893,-0.0449,-1.4853,-1.0206,1.1501,-0.2898,2.7327,0.2656,
3.291213,0.2442,-0.9893,-0.0449,-2.9117,-2.0791,0.4129,-0.2898,2.7327,0.2656,
3.329727,0.5767,-0.5937,-0.2173,-2.9117,-2.0791,0.4129,-0.2898,2.7327,0.2656,
3.331594,0.8619,-0.4686,-0.3387,-2.9117,-2.0791,0.4129,-0.2898,2.7327,0.2656,
3.332953,0.9652,-0.5275,-0.4315,-2.9117,-2.0791,0.4129,-0.2898,2.7327,0.2656,
3.333897,0.9652,-0.5275,-0.4315,1.5065,2.0132,-2.4369,-0.2898,2.7327,0.2656,
3.334858,0.9652,-0.5275,-0.4315,1.5065,2.0132,-2.4369,0.3132,1.5183,0.6385,
3.367344,0.9652,-0.5275,-0.4315,1.5065,2.0132,-2.4369,0.5294,-0.3236,-0.0060,
3.368673,0.9652,-0.5275,-0.4315,1.4855,1.9893,-2.4608,0.5294,-0.3236,-0.0060,
3.399979,0.8914,-0.7525,-0.4819,1.4855,1.9893,-2.4608,0.5294,-0.3236,-0.0060,
3.401511,0.8682,-0.8143,-0.5383,1.4855,1.9893,-2.4608,0.5294,-0.3236,-0.0060,
3.403100,0.8760,-0.8172,-0.4403,1.4855,1.9893,-2.4608,0.5294,-0.3236,-0.0060,
3.407561,0.8760,-0.8172,-0.4403,1.4855,1.9893,-2.4608,-0.4410,-0.2341,-0.3586,
3.408808,0.8760,-0.8172,-0.4403,2.1102,-0.6986,-3.7526,-0.4410,-0.2341,-0.3586,
3.446832,0.8760,-0.8172,-0.4403,2.1102,-0.6986,-3.7526,-0.4400,-0.5643,-0.5035,
3.448793,0.8760,-0.8172,-0.4403,1.3288,-2.9004,-1.5121,-0.4400,-0.5643,-0.5035,
3.487741,0.8760,-0.8172,-0.4403,1.3288,-2.9004,-1.5121,0.2237,-0.9244,-0.6782,
3.489486,0.7693,-0.7806,-0.4694,1.3288,-2.9004,-1.5121,0.2237,-0.9244,-0.6782,
3.490336,0.7876,-0.9772,-0.3834,1.3288,-2.9004,-1.5121,0.2237,-0.9244,-0.6782,
3.491214,0.8819,-1.2702,-0.0126,1.3288,-2.9004,-1.5121,0.2237,-0.9244,-0.6782,
3.491908,0.9669,-1.2386,0.3349,1.3288,-2.9004,-1.5121,0.2237,-0.9244,-0.6782,
3.492872,0.5298,-0.8069,-0.2351,1.3288,-2.9004,-1.5121,0.2237,-0.9244,-0.6782,
3.493772,0.5298,-0.8069,-0.2351,1.1740,-3.0128,-1.3036,0.2237,-0.9244,-0.6782,
3.526056,0.5298,-0.8069,-0.2351,1.1740,-3.0128,-1.3036,0.1694,0.6362,0.0962,
3.528298,0.5298,-0.8069,-0.2351,1.1441,-2.9239,-1.4942,0.1694,0.6362,0.0962,
3.566138,0.5298,-0.8069,-0.2351,1.1441,-2.9239,-1.4942,0.1981,1.0623,0.8750,
3.568572,0.5298,-0.8069,-0.2351,-0.8372,-1.2522,0.5574,0.1981,1.0623,0.8750,
3.569892,0.2706,-0.5516,-0.2302,-0.8372,-1.2522,0.5574,0.1981,1.0623,0.8750,
3.571035,0.4776,-0.8138,-0.0211,-0.8372,-1.2522,0.5574,0.1981,1.0623,0.8750,
3.572152,0.5726,-1.0466,0.1384,-0.8372,-1.2522,0.5574,0.1981,1.0623,0.8750,
3.574403,0.5755,-0.9560,0.3361,-0.8372,-1.2522,0.5574,0.1981,1.0623,0.8750,
3.607051,0.5755,-0.9560,0.3361,-0.8372,-1.2522,0.5574,0.8064,1.5076,1.1317,
3.610125,0.5755,-0.9560,0.3361,-0.9918,-1.6283,1.8098,0.8064,1.5076,1.1317,
3.630279,0.5411,-0.6496,0.2721,-0.9918,-1.6283,1.8098,0.8064,1.5076,1.1317,
3.632698,0.4739,-0.4378,0.1064,-0.9918,-1.6283,1.8098,0.8064,1.5076,1.1317,
3.634051,0.3852,-0.4246,0.0859,-0.9918,-1.6283,1.8098,0.8064,1.5076,1.1317,
3.645298,0.3852,-0.4246,0.0859,-0.9918,-1.6283,1.8098,0.8511,0.8919,0.8664,
3.647489,0.3852,-0.4246,0.0859,-1.4436,2.7988,1.3450,0.8511,0.8919,0.8664,
3.684802,0.3852,-0.4246,0.0859,-1.4436,2.7988,1.3450,0.3323,0.0983,0.8228,
3.686619,0.3852,-0.4246,0.0859,-2.6827,3.2107,0.1295,0.3323,0.0983,0.8228,
3.715017,0.3026,-0.5301,0.0519,-2.6827,3.2107,0.1295,0.3323,0.0983,0.8228,
3.717653,0.2748,-0.4549,0.0449,-2.6827,3.2107,0.1295,0.3323,0.0983,0.8228,
3.719075,0.3513,-0.4420,0.0348,-2.6827,3.2107,0.1295,0.3323,0.0983,0.8228,
3.720203,0.5262,-0.5841,0.0595,-2.6827,3.2107,0.1295,0.3323,0.0983,0.8228,
3.729873,0.5262,-0.5841,0.0595,-2.6827,3.2107,0.1295,0.1097,-0.1957,1.2499,
3.732011,0.5262,-0.5841,0.0595,-2.2503,3.4246,0.1351,0.1097,-0.1957,1.2499,
3.764053,0.5262,-0.5841,0.0595,-2.2503,3.4246,0.1351,-0.0671,0.6980,0.9985,
3.765313,0.5262,-0.5841,0.0595,0.7281,3.1730,1.1315,-0.0671,0.6980,0.9985,
3.802888,0.5684,-0.6337,0.1712,0.7281,3.1730,1.1315,-0.0671,0.6980,0.9985,
3.804742,0.6474,-0.3320,0.2481,0.7281,3.1730,1.1315,-0.0671,0.6980,0.9985,
3.806262,0.5606,-0.5582,0.0341,0.7281,3.1730,1.1315,-0.0671,0.6980,0.9985,
3.807259,0.3994,-0.7486,0.0392,0.7281,3.1730,1.1315,-0.0671,0.6980,0.9985,
3.808239,0.3994,-0.7486,0.0392,0.7281,3.1730,1.1315,-0.3484,1.7569,0.3466,
3.809613,0.3994,-0.7486,0.0392,0.8651,3.1937,0.8922,-0.3484,1.7569,0.3466,
3.843708,0.3994,-0.7486,0.0392,0.8651,3.1937,0.8922,-0.0213,0.4520,0.4616,
3.845396,0.3994,-0.7486,0.0392,-0.3021,1.1890,-0.5711,-0.0213,0.4520,0.4616,
3.883631,0.3994,-0.7486,0.0392,-0.3021,1.1890,-0.5711,-0.1928,-0.5824,0.9527,
3.886339,0.3994,-0.7486,0.0392,0.0003,1.3413,-0.3969,-0.1928,-0.5824,0.9527,
3.887516,0.3728,-0.8773,-0.0213,0.0003,1.3413,-0.3969,-0.1928,-0.5824,0.9527,
3.889046,0.3615,-0.9257,0.0014,0.0003,1.3413,-0.3969,-0.1928,-0.5824,0.9527,
3.890311,0.2875,-0.7786,-0.1012,0.0003,1.3413,-0.3969,-0.1928,-0.5824,0.9527,
3.891319,0.2379,-0.9313,0.1665,0.0003,1.3413,-0.3969,-0.1928,-0.5824,0.9527,
3.892799,0.1189,-1.1519,0.2264,0.0003,1.3413,-0.3969,-0.1928,-0.5824,0.9527,
3.923103,0.1189,-1.1519,0.2264,0.0003,1.3413,-0.3969,0.4058,0.3763,2.0627,
3.925030,0.1189,-1.1519,0.2264,-0.7272,0.1798,-0.5371,0.4058,0.3763,2.0627,
3.962662,0.1189,-1.1519,0.2264,-0.7272,0.1798,-0.5371,0.4868,-0.1393,2.9117,
3.965701,0.1189,-1.1519,0.2264,-1.7012,-3.4593,-0.3770,0.4868,-0.1393,2.9117,
3.967075,0.0442,-1.3222,0.1365,-1.7012,-3.4593,-0.3770,0.4868,-0.1393,2.9117,
3.968214,0.1013,-1.3984,-0.2009,-1.7012,-3.4593,-0.3770,0.4868,-0.1393,2.9117,
3.969604,0.1409,-1.3838,0.0334,-1.7012,-3.4593,-0.3770,0.4868,-0.1393,2.9117,
3.970833,0.1333,-1.1502,0.3351,-1.7012,-3.4593,-0.3770,0.4868,-0.1393,2.9117,
4.002091,0.1333,-1.1502,0.3351,-0.5580,-3.1901,-0.6231,0.4868,-0.1393,2.9117,
4.004572,0.1333,-1.1502,0.3351,-0.5580,-3.1901,-0.6231,0.6562,0.1995,3.0513,
4.041630,0.0784,-1.0134,-0.1281,-0.5580,-3.1901,-0.6231,0.6562,0.1995,3.0513,
4.043093,0.6557,-1.5772,-0.1660,-0.5580,-3.1901,-0.6231,0.6562,0.1995,3.0513,
4.043902,0.8250,-1.5714,0.0720,-0.5580,-3.1901,-0.6231,0.6562,0.1995,3.0513,
4.044679,0.8250,-1.5714,0.0720,-0.5580,-3.1901,-0.6231,0.4058,-0.1840,2.2523,
4.045274,0.8250,-1.5714,0.0720,0.5591,-2.0240,-0.5050,0.4058,-0.1840,2.2523,
4.081348,0.8250,-1.5714,0.0720,0.5591,-2.0240,-0.5050,0.7339,0.0152,0.5522,
4.083235,0.8250,-1.5714,0.0720,6.4093,-4.0822,-1.0808,0.7339,0.0152,0.5522,
4.120887,0.8250,-1.5714,0.0720,6.4093,-4.0822,-1.0808,0.9204,0.7971,-0.0561,
4.122912,0.8250,-1.5714,0.0720,6.3362,-4.0772,-1.4205,0.9204,0.7971,-0.0561,
4.124263,0.6317,-1.0405,0.2376,6.3362,-4.0772,-1.4205,0.9204,0.7971,-0.0561,
4.125399,0.4082,-0.9381,0.0190,6.3362,-4.0772,-1.4205,0.9204,0.7971,-0.0561,
4.126586,0.0884,-1.1167,-0.1352,6.3362,-4.0772,-1.4205,0.9204,0.7971,-0.0561,
4.127696,0.0026,-1.1878,-0.1325,6.3362,-4.0772,-1.4205,0.9204,0.7971,-0.0561,
4.128996,0.1695,-1.1148,-0.1968,6.3362,-4.0772,-1.4205,0.9204,0.7971,-0.0561,
4.160685,0.1695,-1.1148,-0.1968,6.3362,-4.0772,-1.4205,0.3590,0.2080,0.2720,
4.162780,0.1695,-1.1148,-0.1968,1.1662,-0.9912,-2.7956,0.3590,0.2080,0.2720,
4.194779,0.5824,-1.1258,-0.1049,1.1662,-0.9912,-2.7956,0.3590,0.2080,0.2720,
4.196340,0.7031,-1.2941,0.0239,1.1662,-0.9912,-2.7956,0.3590,0.2080,0.2720,
4.197196,0.3451,-1.3376,-0.1073,1.1662,-0.9912,-2.7956,0.3590,0.2080,0.2720,
4.199366,0.3451,-1.3376,-0.1073,1.1662,-0.9912,-2.7956,-0.3995,-0.2405,-0.3970,
4.200365,0.3451,-1.3376,-0.1073,4.0503,-1.8913,-2.6877,-0.3995,-0.2405,-0.3970,
4.239336,0.3451,-1.3376,-0.1073,4.0503,-1.8913,-2.6877,-1.6203,-0.0210,-0.7879,
4.240680,0.3451,-1.3376,-0.1073,0.0013,-2.0060,-3.3102,-1.6203,-0.0210,-0.7879,
4.262952,0.0051,-1.1861,-0.2906,0.0013,-2.0060,-3.3102,-1.6203,-0.0210,-0.7879,
4.264651,-0.0416,-1.0772,-0.2784,0.0013,-2.0060,-3.3102,-1.6203,-0.0210,-0.7879,
4.265615,0.0144,-1.0923,-0.0934,0.0013,-2.0060,-3.3102,-1.6203,-0.0210,-0.7879,
4.266414,-0.0589,-1.1898,0.0854,0.0013,-2.0060,-3.3102,-1.6203,-0.0210,-0.7879,
4.278626,-0.0589,-1.1898,0.0854,0.0013,-2.0060,-3.3102,-2.4906,-0.4013,-0.8550,
4.279920,-0.0589,-1.1898,0.0854,-0.3333,-1.9526,-2.2871,-2.4906,-0.4013,-0.8550,
4.319766,-0.0589,-1.1898,0.0854,-2.3889,-1.8712,1.4008,-2.4906,-0.4013,-0.8550,
4.322087,-0.0589,-1.1898,0.0854,-2.3889,-1.8712,1.4008,-2.2296,0.1345,-0.9115,
4.351616,-0.1794,-1.2772,0.2063,-2.3889,-1.8712,1.4008,-2.2296,0.1345,-0.9115,
4.353757,-0.2551,-1.2692,0.2213,-2.3889,-1.8712,1.4008,-2.2296,0.1345,-0.9115,
4.355048,-0.2686,-1.2191,0.1084,-2.3889,-1.8712,1.4008,-2.2296,0.1345,-0.9115,
4.356593,-0.1826,-1.1895,-0.0458,-2.3889,-1.8712,1.4008,-2.2296,0.1345,-0.9115,
4.360536,-0.1826,-1.1895,-0.0458,-2.3889,-1.8712,1.4008,-2.1167,0.5084,-0.6036,
4.363340,-0.1826,-1.1895,-0.0458,-4.1499,-2.3569,2.4153,-2.1167,0.5084,-0.6036,
4.397856,-0.1826,-1.1895,-0.0458,-4.1499,-2.3569,2.4153,-2.0304,-0.1212,-0.3884,
4.399365,-0.1826,-1.1895,-0.0458,-1.1461,-0.2836,1.5952,-2.0304,-0.1212,-0.3884,
4.437269,-0.1826,-1.1895,-0.0458,-1.1461,-0.2836,1.5952,-1.6576,-0.1702,-0.6239,
4.438970,-0.1826,-1.1895,-0.0458,-1.3375,-0.4941,2.1879,-1.6576,-0.1702,-0.6239,
4.441033,-0.0687,-1.1263,-0.0836,-1.3375,-0.4941,2.1879,-1.6576,-0.1702,-0.6239,
4.441983,0.1013,-0.9748,-0.0438,-1.3375,-0.4941,2.1879,-1.6576,-0.1702,-0.6239,
4.442878,0.2166,-0.8883,-0.0702,-1.3375,-0.4941,2.1879,-1.6576,-0.1702,-0.6239,
4.443549,0.2193,-0.8810,-0.0184,-1.3375,-0.4941,2.1879,-1.6576,-0.1702,-0.6239,
4.444214,0.1678,-0.8898,-0.0355,-1.3375,-0.4941,2.1879,-1.6576,-0.1702,-0.6239,
4.477551,0.1678,-0.8898,-0.0355,-1.3375,-0.4941,2.1879,-1.1580,-0.6506,-0.9818,
4.479120,0.1678,-0.8898,-0.0355,-1.5862,-0.7120,2.6231,-1.1580,-0.6506,-0.9818,
4.516459,0.1678,-0.8898,-0.0355,-1.5862,-0.7120,2.6231,-0.8618,-1.2035,-0.7464,
4.517846,0.1678,-0.8898,-0.0355,-0.8148,0.1460,2.8546,-0.8618,-1.2035,-0.7464,
4.518501,0.1240,-0.8966,-0.1877,-0.8148,0.1460,2.8546,-0.8618,-1.2035,-0.7464,
4.519195,0.0244,-0.9003,-0.2097,-0.8148,0.1460,2.8546,-0.8618,-1.2035,-0.7464,
4.519717,-0.0492,-0.7693,-0.0587,-0.8148,0.1460,2.8546,-0.8618,-1.2035,-0.7464,
4.520240,-0.0824,-0.6064,0.0380,-0.8148,0.1460,2.8546,-0.8618,-1.2035,-0.7464,
4.556129,-0.0824,-0.6064,0.0380,-0.8148,0.1460,2.8546,-0.3569,-1.1918,-0.0678,
4.557446,-0.0824,-0.6064,0.0380,-2.6353,1.3418,3.0787,-0.3569,-1.1918,-0.0678,
4.590326,-0.0836,-0.5003,0.0417,-2.6353,1.3418,3.0787,-0.3569,-1.1918,-0.0678,
4.592121,-0.0545,-0.4874,0.0114,-2.6353,1.3418,3.0787,-0.3569,-1.1918,-0.0678,
4.593205,0.0725,-0.5206,-0.0912,-2.6353,1.3418,3.0787,-0.3569,-1.1918,-0.0678,
4.595343,0.0725,-0.5206,-0.0912,-2.6353,1.3418,3.0787,0.3590,-0.7816,0.4297,
4.596241,0.0725,-0.5206,-0.0912,-2.1936,3.8744,3.5877,0.3590,-0.7816,0.4297,
4.636305,0.0725,-0.5206,-0.0912,-2.1936,3.8744,3.5877,0.9417,-0.5292,0.4190,
4.638535,0.0725,-0.5206,-0.0912,1.7655,1.4397,-1.5687,0.9417,-0.5292,0.4190,
4.675387,0.0725,-0.5206,-0.0912,1.7655,1.4397,-1.5687,0.8810,-0.4557,-0.0209,
4.679004,0.0725,-0.5206,-0.0912,1.7872,1.5278,-1.8205,0.8810,-0.4557,-0.0209,
4.684019,0.2296,-0.5881,-0.2703,1.7872,1.5278,-1.8205,0.8810,-0.4557,-0.0209,
4.687148,0.3469,-0.7263,-0.4889,1.7872,1.5278,-1.8205,0.8810,-0.4557,-0.0209,
4.691297,0.5108,-0.9821,-0.7760,1.7872,1.5278,-1.8205,0.8810,-0.4557,-0.0209,
4.698528,0.6510,-1.2489,-0.9382,1.7872,1.5278,-1.8205,0.8810,-0.4557,-0.0209,
4.700542,0.4683,-1.2294,-0.8593,1.7872,1.5278,-1.8205,0.8810,-0.4557,-0.0209,
4.714405,0.4683,-1.2294,-0.8593,1.7872,1.5278,-1.8205,0.1331,-0.3268,-0.7677,
4.716456,0.4683,-1.2294,-0.8593,1.5280,1.4626,-1.8135,0.1331,-0.3268,-0.7677,
4.756020,0.4683,-1.2294,-0.8593,2.1619,-2.4936,-4.8368,0.1331,-0.3268,-0.7677,
4.757622,0.4683,-1.2294,-0.8593,2.1619,-2.4936,-4.8368,-0.0746,-0.4961,-0.8646,
4.758386,0.2474,-1.0168,-0.7093,2.1619,-2.4936,-4.8368,-0.0746,-0.4961,-0.8646,
4.759293,0.1490,-0.8710,-0.6062,2.1619,-2.4936,-4.8368,-0.0746,-0.4961,-0.8646,
4.760205,0.1375,-0.7554,-0.5415,2.1619,-2.4936,-4.8368,-0.0746,-0.4961,-0.8646,
4.761243,0.1534,-0.8434,-0.5742,2.1619,-2.4936,-4.8368,-0.0746,-0.4961,-0.8646,
4.793862,0.1534,-0.8434,-0.5742,2.1619,-2.4936,-4.8368,0.3643,-0.5505,-0.5227,
4.795641,0.1534,-0.8434,-0.5742,-0.9617,0.8406,-2.3104,0.3643,-0.5505,-0.5227,
4.817715,0.3046,-1.4878,-0.5698,-0.9617,0.8406,-2.3104,0.3643,-0.5505,-0.5227,
4.819104,0.1492,-2.0727,-0.2891,-0.9617,0.8406,-2.3104,0.3643,-0.5505,-0.5227,
4.820377,-0.4728,-1.1534,-0.1972,-0.9617,0.8406,-2.3104,0.3643,-0.5505,-0.5227,
4.833694,-0.4728,-1.1534,-0.1972,-0.9617,0.8406,-2.3104,-0.1769,0.3401,-0.2905,
4.835082,-0.4728,-1.1534,-0.1972,-2.5642,-6.4330,-0.1054,-0.1769,0.3401,-0.2905,
4.873174,-0.4728,-1.1534,-0.1972,-2.5642,-6.4330,-0.1054,-0.2706,-0.0051,0.8164,
4.874474,-0.4728,-1.1534,-0.1972,-5.0312,1.9740,3.5870,-0.2706,-0.0051,0.8164,
4.905110,-0.7430,-0.2526,-0.3130,-5.0312,1.9740,3.5870,-0.2706,-0.0051,0.8164,
4.906549,-0.3687,-0.6758,-0.1069,-5.0312,1.9740,3.5870,-0.2706,-0.0051,0.8164,
4.907469,0.2223,-1.2140,0.4831,-5.0312,1.9740,3.5870,-0.2706,-0.0051,0.8164,
4.908275,0.4954,-1.2342,0.4455,-5.0312,1.9740,3.5870,-0.2706,-0.0051,0.8164,
4.913016,0.4954,-1.2342,0.4455,-5.0312,1.9740,3.5870,0.5486,0.5990,1.3746,
4.914133,0.4954,-1.2342,0.4455,-4.5384,2.1133,3.2890,0.5486,0.5990,1.3746,
4.952411,0.4954,-1.2342,0.4455,-4.5384,2.1133,3.2890,1.0088,0.1920,0.5277,
4.953619,0.4954,-1.2342,0.4455,2.7475,-1.0984,4.5619,1.0088,0.1920,0.5277,
4.991359,0.4954,-1.2342,0.4455,2.7475,-1.0984,4.5619,1.0034,-0.4684,0.0494,
4.993407,0.4666,-1.0112,0.1841,2.7475,-1.0984,4.5619,1.0034,-0.4684,0.0494,
4.994222,0.3415,-0.9311,-0.0370,2.7475,-1.0984,4.5619,1.0034,-0.4684,0.0494,
4.994800,0.2450,-0.9780,-0.1088,2.7475,-1.0984,4.5619,1.0034,-0.4684,0.0494,
4.995450,0.1859,-0.9765,-0.1152,2.7475,-1.0984,4.5619,1.0034,-0.4684,0.0494,
4.996232,0.1368,-0.9137,-0.0966,2.7475,-1.0984,4.5619,1.0034,-0.4684,0.0494,
4.996917,0.1368,-0.9137,-0.0966,2.7635,-0.9813,4.1478,1.0034,-0.4684,0.0494,
5.031449,0.1368,-0.9137,-0.0966,2.7635,-0.9813,4.1478,1.0929,-0.3321,0.0121,
5.032677,0.1368,-0.9137,-0.0966,0.3845,0.1121,0.7621,1.0929,-0.3321,0.0121,
5.070851,0.1368,-0.9137,-0.0966,0.3845,0.1121,0.7621,1.1281,-0.0008,0.0164,
5.072378,0.1368,-0.9137,-0.0966,-0.7085,0.2175,0.1554,1.1281,-0.0008,0.0164,
5.073181,0.1006,-0.8988,-0.0907,-0.7085,0.2175,0.1554,1.1281,-0.0008,0.0164,
5.073978,0.0483,-0.9626,-0.1279,-0.7085,0.2175,0.1554,1.1281,-0.0008,0.0164,
5.074332,0.0784,-0.9956,-0.1567,-0.7085,0.2175,0.1554,1.1281,-0.0008,0.0164,
5.074879,0.0960,-0.8961,-0.1870,-0.7085,0.2175,0.1554,1.1281,-0.0008,0.0164,
5.110992,0.0960,-0.8961,-0.1870,-0.7085,0.2175,0.1554,0.9821,0.1409,0.1452,
5.113932,0.0960,-0.8961,-0.1870,-0.6488,0.2675,-0.2218,0.9821,0.1409,0.1452,
5.151047,0.0960,-0.8961,-0.1870,-0.6488,0.2675,-0.2218,0.9502,-0.4141,0.2422,
5.153007,0.0960,-0.8961,-0.1870,0.5761,0.9799,-1.2750,0.9502,-0.4141,0.2422,
5.153932,0.1758,-0.8255,-0.2307,0.5761,0.9799,-1.2750,0.9502,-0.4141,0.2422,
5.154812,0.3012,-0.9257,-0.1823,0.5761,0.9799,-1.2750,0.9502,-0.4141,0.2422,
5.156176,0.3581,-1.0136,-0.1787,0.5761,0.9799,-1.2750,0.9502,-0.4141,0.2422,
5.157165,0.2904,-0.9892,-0.2696,0.5761,0.9799,-1.2750,0.9502,-0.4141,0.2422,
5.190899,0.2904,-0.9892,-0.2696,0.5761,0.9799,-1.2750,0.8298,-0.4333,-0.0039,
5.192346,0.2904,-0.9892,-0.2696,0.5740,0.9807,-1.5436,0.8298,-0.4333,-0.0039,
5.230218,0.1964,-0.9201,-0.3077,0.5740,0.9807,-1.5436,0.8298,-0.4333,-0.0039,
5.231700,0.1602,-0.8981,-0.1804,0.5740,0.9807,-1.5436,0.8298,-0.4333,-0.0039,
5.232825,0.0933,-0.9049,0.0009,0.5740,0.9807,-1.5436,0.8298,-0.4333,-0.0039,
5.233697,0.0933,-0.9049,0.0009,0.5740,0.9807,-1.5436,0.4676,-0.3555,-0.0518,
5.234621,0.0933,-0.9049,0.0009,1.4230,0.0826,-2.1760,0.4676,-0.3555,-0.0518,
5.269989,0.0933,-0.9049,0.0009,1.4230,0.0826,-2.1760,0.6445,-0.2767,0.0909,
5.271576,0.0933,-0.9049,0.0009,-0.3710,0.7292,-0.2313,0.6445,-0.2767,0.0909,
5.309886,0.0933,-0.9049,0.0009,-0.3710,0.7292,-0.2313,1.0514,-0.1158,0.2891,
5.313112,0.0933,-0.9049,0.0009,-0.2567,0.7256,-0.6163,1.0514,-0.1158,0.2891,
5.314456,0.0290,-0.9210,0.0886,-0.2567,0.7256,-0.6163,1.0514,-0.1158,0.2891,
5.315403,0.0002,-0.9308,0.1587,-0.2567,0.7256,-0.6163,1.0514,-0.1158,0.2891,
5.316569,-0.0059,-0.9777,0.1484,-0.2567,0.7256,-0.6163,1.0514,-0.1158,0.2891,
5.317633,0.0368,-0.9892,0.0622,-0.2567,0.7256,-0.6163,1.0514,-0.1158,0.2891,
5.318758,0.0803,-1.0058,-0.0524,-0.2567,0.7256,-0.6163,1.0514,-0.1158,0.2891,
5.349544,0.0803,-1.0058,-0.0524,-0.2567,0.7256,-0.6163,1.0770,-0.0690,0.3306,
5.351745,0.0803,-1.0058,-0.0524,-0.9374,0.1480,0.4719,1.0770,-0.0690,0.3306,
5.385594,0.0578,-1.0073,-0.1249,-0.9374,0.1480,0.4719,1.0770,-0.0690,0.3306,
5.387231,0.0583,-0.9894,-0.0880,-0.9374,0.1480,0.4719,1.0770,-0.0690,0.3306,
5.388576,0.0928,-0.9968,0.0116,-0.9374,0.1480,0.4719,1.0770,-0.0690,0.3306,
5.391542,0.0928,-0.9968,0.0116,-0.9374,0.1480,0.4719,0.7243,0.2069,0.3540,
5.393083,0.0928,-0.9968,0.0116,-0.2506,-0.2025,-1.8536,0.7243,0.2069,0.3540,
5.429328,0.0928,-0.9968,0.0116,-0.2506,-0.2025,-1.8536,0.7041,0.3721,0.4435,
5.431731,0.0928,-0.9968,0.0116,0.7263,-0.6839,-0.7887,0.7041,0.3721,0.4435,
5.468104,0.0928,-0.9968,0.0116,0.7263,-0.6839,-0.7887,0.6732,0.1696,0.4116,
5.470029,0.0928,-0.9968,0.0116,0.8770,-0.6986,-1.0315,0.6732,0.1696,0.4116,
5.471179,0.1536,-1.0554,0.0832,0.8770,-0.6986,-1.0315,0.6732,0.1696,0.4116,
5.472635,0.1961,-1.0960,0.0473,0.8770,-0.6986,-1.0315,0.6732,0.1696,0.4116,
5.473734,0.2587,-1.1326,-0.0309,0.8770,-0.6986,-1.0315,0.6732,0.1696,0.4116,
5.474825,0.3842,-1.2086,-0.0915,0.8770,-0.6986,-1.0315,0.6732,0.1696,0.4116,
5.476884,0.4766,-1.3388,-0.1320,0.8770,-0.6986,-1.0315,0.6732,0.1696,0.4116,
5.507697,0.4766,-1.3388,-0.1320,0.8770,-0.6986,-1.0315,0.1800,-0.0509,-0.1232,
5.510046,0.4766,-1.3388,-0.1320,2.9879,-2.4090,-2.3540,0.1800,-0.0509,-0.1232,
5.548128,0.4766,-1.3388,-0.1320,2.9879,-2.4090,-2.3540,-0.8128,-0.1638,-0.4524,
5.550405,0.4766,-1.3388,-0.1320,1.2671,-3.2509,-3.6805,-0.8128,-0.1638,-0.4524,
5.551678,0.4192,-1.4075,-0.1596,1.2671,-3.2509,-3.6805,-0.8128,-0.1638,-0.4524,
5.553143,0.1881,-1.3173,-0.2595,1.2671,-3.2509,-3.6805,-0.8128,-0.1638,-0.4524,
5.554266,0.0476,-1.2391,-0.3568,1.2671,-3.2509,-3.6805,-0.8128,-0.1638,-0.4524,
5.556465,0.0363,-1.1421,-0.2769,1.2671,-3.2509,-3.6805,-0.8128,-0.1638,-0.4524,
5.588050,0.0363,-1.1421,-0.2769,1.2671,-3.2509,-3.6805,-2.1785,-0.4375,-0.4289,
5.590440,0.0363,-1.1421,-0.2769,1.0711,-3.1518,-2.7767,-2.1785,-0.4375,-0.4289,
5.626410,0.0363,-1.1421,-0.2769,1.0711,-3.1518,-2.7767,-2.6600,-0.2160,-0.5120,
5.628750,0.0363,-1.1421,-0.2769,-1.4132,-0.6097,-0.3702,-2.6600,-0.2160,-0.5120,
5.630663,0.0002,-1.0339,-0.1191,-1.4132,-0.6097,-0.3702,-2.6600,-0.2160,-0.5120,
5.631297,-0.0892,-0.9965,0.0361,-1.4132,-0.6097,-0.3702,-2.6600,-0.2160,-0.5120,
5.631976,-0.1957,-1.0371,0.2020,-1.4132,-0.6097,-0.3702,-2.6600,-0.2160,-0.5120,
5.632805,-0.2475,-1.1177,0.2838,-1.4132,-0.6097,-0.3702,-2.6600,-0.2160,-0.5120,
5.665426,-0.2475,-1.1177,0.2838,-1.4132,-0.6097,-0.3702,-2.2424,0.7875,-0.4087,
5.666699,-0.2475,-1.1177,0.2838,-1.5845,-0.7275,0.4411,-2.2424,0.7875,-0.4087,
5.706437,-0.2475,-1.1177,0.2838,-1.5845,-0.7275,0.4411,-1.9740,0.8024,-0.2244,
5.708437,-0.2475,-1.1177,0.2838,-3.5524,-1.2634,4.2846,-1.9740,0.8024,-0.2244,
5.709927,-0.1850,-1.1373,0.1389,-3.5524,-1.2634,4.2846,-1.9740,0.8024,-0.2244,
5.711640,-0.1007,-1.1040,0.0236,-3.5524,-1.2634,4.2846,-1.9740,0.8024,-0.2244,
5.713263,-0.0348,-1.1096,-0.0311,-3.5524,-1.2634,4.2846,-1.9740,0.8024,-0.2244,
5.714272,0.0327,-1.0481,-0.0810,-3.5524,-1.2634,4.2846,-1.9740,0.8024,-0.2244,
5.745493,0.0327,-1.0481,-0.0810,-3.5524,-1.2634,4.2846,-1.6320,0.0077,-0.1413,
5.747525,0.0327,-1.0481,-0.0810,-1.8562,-1.3154,2.5206,-1.6320,0.0077,-0.1413,
5.784550,0.0327,-1.0481,-0.0810,-1.8562,-1.3154,2.5206,-1.2166,-0.2479,-0.2915,
5.786495,0.0327,-1.0481,-0.0810,0.3832,0.1575,2.3055,-1.2166,-0.2479,-0.2915,
5.787848,0.1436,-0.9467,-0.0722,0.3832,0.1575,2.3055,-1.2166,-0.2479,-0.2915,
5.789044,0.2345,-0.9039,-0.1003,0.3832,0.1575,2.3055,-1.2166,-0.2479,-0.2915,
5.790182,0.2301,-0.9091,-0.1113,0.3832,0.1575,2.3055,-1.2166,-0.2479,-0.2915,
5.791137,0.2208,-0.8949,-0.1132,0.3832,0.1575,2.3055,-1.2166,-0.2479,-0.2915,
5.824463,0.2208,-0.8949,-0.1132,0.3832,0.1575,2.3055,-0.8267,-0.2394,-0.6090,
5.826622,0.2208,-0.8949,-0.1132,0.1928,0.0054,2.5761,-0.8267,-0.2394,-0.6090,
5.863901,0.2208,-0.8949,-0.1132,0.1928,0.0054,2.5761,-0.4410,-0.3076,-0.6431,
5.865373,0.2208,-0.8949,-0.1132,-0.8502,0.4778,2.4948,-0.4410,-0.3076,-0.6431,
5.866443,0.1192,-0.8658,-0.1464,-0.8502,0.4778,2.4948,-0.4410,-0.3076,-0.6431,
5.867211,0.0009,-0.8179,-0.0910,-0.8502,0.4778,2.4948,-0.4410,-0.3076,-0.6431,
5.867862,-0.0748,-0.7403,-0.0595,-0.8502,0.4778,2.4948,-0.4410,-0.3076,-0.6431,
5.868589,-0.0817,-0.6543,-0.0485,-0.8502,0.4778,2.4948,-0.4410,-0.3076,-0.6431,
5.905195,-0.0817,-0.6543,-0.0485,-0.8502,0.4778,2.4948,0.0447,-0.1819,-0.2564,
5.907016,-0.0817,-0.6543,-0.0485,-0.8989,0.4563,2.4520,0.0447,-0.1819,-0.2564,
5.944031,-0.0277,-0.6196,-0.0443,-0.8989,0.4563,2.4520,0.0447,-0.1819,-0.2564,
5.946314,0.0637,-0.6657,-0.1215,-0.8989,0.4563,2.4520,0.0447,-0.1819,-0.2564,
5.947706,0.1680,-0.7368,-0.2683,-0.8989,0.4563,2.4520,0.0447,-0.1819,-0.2564,
5.948792,0.1680,-0.7368,-0.2683,-0.8989,0.4563,2.4520,0.5113,0.2091,0.0760,
5.949977,0.1680,-0.7368,-0.2683,-2.5722,2.3380,2.8543,0.5113,0.2091,0.0760,
5.982969,0.1680,-0.7368,-0.2683,-2.5722,2.3380,2.8543,0.6114,0.2538,0.0270,
5.984731,0.1680,-0.7368,-0.2683,-0.4189,1.7394,0.4618,0.6114,0.2538,0.0270,
6.022725,0.1680,-0.7368,-0.2683,-0.4189,1.7394,0.4618,0.3238,0.1409,-0.2649,
6.025888,0.1680,-0.7368,-0.2683,-0.5214,1.7277,0.3296,0.3238,0.1409,-0.2649,
6.027206,0.2482,-0.8104,-0.4198,-0.5214,1.7277,0.3296,0.3238,0.1409,-0.2649,
6.028338,0.3315,-0.8561,-0.5315,-0.5214,1.7277,0.3296,0.3238,0.1409,-0.2649,
6.029556,0.4050,-0.8844,-0.6121,-0.5214,1.7277,0.3296,0.3238,0.1409,-0.2649,
6.030752,0.4749,-0.9171,-0.6849,-0.5214,1.7277,0.3296,0.3238,0.1409,-0.2649,
6.031673,0.4846,-0.9643,-0.7638,-0.5214,1.7277,0.3296,0.3238,0.1409,-0.2649,
6.062265,0.4846,-0.9643,-0.7638,-0.5214,1.7277,0.3296,-0.0373,-0.2650,-0.7325,
6.063655,0.4846,-0.9643,-0.7638,1.6128,0.2032,-2.9125,-0.0373,-0.2650,-0.7325,
6.102103,0.4846,-0.9643,-0.7638,1.6128,0.2032,-2.9125,-0.2972,-0.6772,-1.1459,
6.104437,0.4846,-0.9643,-0.7638,2.4675,-0.9898,-3.7371,-0.2972,-0.6772,-1.1459,
6.106620,0.5311,-1.0214,-0.7416,2.4675,-0.9898,-3.7371,-0.2972,-0.6772,-1.1459,
6.107978,0.5667,-0.9960,-0.6473,2.4675,-0.9898,-3.7371,-0.2972,-0.6772,-1.1459,
6.109257,0.4707,-0.9264,-0.5840,2.4675,-0.9898,-3.7371,-0.2972,-0.6772,-1.1459,
6.110348,0.2526,-0.8348,-0.5527,2.4675,-0.9898,-3.7371,-0.2972,-0.6772,-1.1459,
6.141616,0.2526,-0.8348,-0.5527,2.4675,-0.9898,-3.7371,-0.1279,-0.5452,-1.0628,
6.143391,0.2526,-0.8348,-0.5527,2.1380,-1.1079,-3.5711,-0.1279,-0.5452,-1.0628,
6.179184,0.1096,-0.7168,-0.5131,2.1380,-1.1079,-3.5711,-0.1279,-0.5452,-1.0628,
6.181219,0.1072,-0.6223,-0.3609,2.1380,-1.1079,-3.5711,-0.1279,-0.5452,-1.0628,
6.182752,0.2301,-0.7586,-0.2534,2.1380,-1.1079,-3.5711,-0.1279,-0.5452,-1.0628,
6.183929,0.2301,-0.7586,-0.2534,2.1380,-1.1079,-3.5711,0.5859,-0.6591,-0.5131,
6.185046,0.2301,-0.7586,-0.2534,-0.3899,0.5449,-2.0140,0.5859,-0.6591,-0.5131,
6.220945,0.2301,-0.7586,-0.2534,-0.3899,0.5449,-2.0140,0.9608,0.3177,-0.2649,
6.222318,0.2301,-0.7586,-0.2534,-0.4251,-0.0355,-0.1516,0.9608,0.3177,-0.2649,
6.260576,0.2301,-0.7586,-0.2534,-0.4251,-0.0355,-0.1516,0.1203,1.1817,0.2390,
6.263493,0.2301,-0.7586,-0.2534,-0.4692,0.0097,-0.3406,0.1203,1.1817,0.2390,
6.265328,0.5225,-1.3022,-0.3526,-0.4692,0.0097,-0.3406,0.1203,1.1817,0.2390,
6.267364,0.5389,-1.9676,-0.3238,-0.4692,0.0097,-0.3406,0.1203,1.1817,0.2390,
6.268521,-0.3094,-1.5342,-0.5278,-0.4692,0.0097,-0.3406,0.1203,1.1817,0.2390,
6.269830,-0.7068,-0.7014,-0.3267,-0.4692,0.0097,-0.3406,0.1203,1.1817,0.2390,
6.270960,-0.5637,-0.7857,-0.4022,-0.4692,0.0097,-0.3406,0.1203,1.1817,0.2390,
6.300230,-0.5637,-0.7857,-0.4022,-0.4692,0.0097,-0.3406,0.1587,0.6512,1.3053,
6.302017,-0.5637,-0.7857,-0.4022,-4.3752,-4.6996,-1.1484,0.1587,0.6512,1.3053,
6.339814,-0.5637,-0.7857,-0.4022,-4.3752,-4.6996,-1.1484,0.7148,1.5769,1.3277,
6.341819,-0.5637,-0.7857,-0.4022,-3.1998,0.1083,3.2288,0.7148,1.5769,1.3277,
6.343234,-0.0538,-0.9904,0.2435,-3.1998,0.1083,3.2288,0.7148,1.5769,1.3277,
6.344409,0.3840,-1.0190,0.4668,-3.1998,0.1083,3.2288,0.7148,1.5769,1.3277,
6.345627,0.4715,-0.9543,0.3156,-3.1998,0.1083,3.2288,0.7148,1.5769,1.3277,
6.346782,0.3671,-0.8038,0.1306,-3.1998,0.1083,3.2288,0.7148,1.5769,1.3277,
6.379275,0.3671,-0.8038,0.1306,-3.1998,0.1083,3.2288,0.9044,1.0038,0.6299,
6.381326,0.3671,-0.8038,0.1306,-2.9976,0.2350,2.7546,0.9044,1.0038,0.6299,
6.419334,0.3671,-0.8038,0.1306,-2.9976,0.2350,2.7546,0.8011,0.5116,0.3221,
6.421346,0.3671,-0.8038,0.1306,1.4288,0.9410,2.6414,0.8011,0.5116,0.3221,
6.422491,0.2635,-0.8399,-0.0541,1.4288,0.9410,2.6414,0.8011,0.5116,0.3221,
6.423624,0.2174,-1.0285,-0.1301,1.4288,0.9410,2.6414,0.8011,0.5116,0.3221,
6.424876,0.2184,-1.1021,-0.1005,1.4288,0.9410,2.6414,0.8011,0.5116,0.3221,
6.426113,0.1534,-1.0075,-0.0617,1.4288,0.9410,2.6414,0.8011,0.5116,0.3221,
6.458592,0.1534,-1.0075,-0.0617,1.4288,0.9410,2.6414,0.6264,0.6160,0.1591,
6.460536,0.1534,-1.0075,-0.0617,-0.2134,-0.7666,0.1168,0.6264,0.6160,0.1591,
6.498309,0.1534,-1.0075,-0.0617,-0.2134,-0.7666,0.1168,0.5166,0.6320,0.2997,
6.500265,0.1534,-1.0075,-0.0617,-1.1957,0.2228,-0.0378,0.5166,0.6320,0.2997,
6.501496,0.0644,-0.9462,-0.0768,-1.1957,0.2228,-0.0378,0.5166,0.6320,0.2997,
6.502680,0.0596,-0.9555,-0.1071,-1.1957,0.2228,-0.0378,0.5166,0.6320,0.2997,
6.503930,0.1309,-0.9460,-0.0802,-1.1957,0.2228,-0.0378,0.5166,0.6320,0.2997,
6.505128,0.2149,-0.9201,-0.0147,-1.1957,0.2228,-0.0378,0.5166,0.6320,0.2997,
6.537872,0.2149,-0.9201,-0.0147,-1.1957,0.2228,-0.0378,0.5646,0.5297,0.3828,
6.540657,0.2149,-0.9201,-0.0147,-1.0477,0.2637,-0.2879,0.5646,0.5297,0.3828,
6.577480,0.2149,-0.9201,-0.0147,-1.0477,0.2637,-0.2879,0.8479,0.4754,0.3690,
6.580283,0.2149,-0.9201,-0.0147,0.3658,0.5401,0.4503,0.8479,0.4754,0.3690,
6.581516,0.2296,-0.9196,0.0541,0.3658,0.5401,0.4503,0.8479,0.4754,0.3690,
6.582601,0.2044,-0.9328,0.0339,0.3658,0.5401,0.4503,0.8479,0.4754,0.3690,
6.583747,0.2201,-0.9508,-0.0428,0.3658,0.5401,0.4503,0.8479,0.4754,0.3690,
6.585044,0.2462,-0.9501,-0.1523,0.3658,0.5401,0.4503,0.8479,0.4754,0.3690,
6.617227,0.2462,-0.9501,-0.1523,0.3658,0.5401,0.4503,0.7744,0.4264,0.2901,
6.619468,0.2462,-0.9501,-0.1523,0.4675,0.5518,0.1245,0.7744,0.4264,0.2901,
6.656474,0.2462,-0.9501,-0.1523,0.4675,0.5518,0.1245,0.4197,0.3965,0.2358,
6.657844,0.2462,-0.9501,-0.1523,0.6472,0.3924,-1.6786,0.4197,0.3965,0.2358,
6.659767,0.2125,-0.9218,-0.2356,0.6472,0.3924,-1.6786,0.4197,0.3965,0.2358,
6.660724,0.1436,-0.9152,-0.2366,0.6472,0.3924,-1.6786,0.4197,0.3965,0.2358,
6.661481,0.1412,-0.9196,-0.1396,0.6472,0.3924,-1.6786,0.4197,0.3965,0.2358,
6.662316,0.1629,-0.9357,-0.0111,0.6472,0.3924,-1.6786,0.4197,0.3965,0.2358,
6.696035,0.1629,-0.9357,-0.0111,0.6472,0.3924,-1.6786,0.4282,0.3507,0.2986,
6.697650,0.1629,-0.9357,-0.0111,0.0109,0.5653,-1.6921,0.4282,0.3507,0.2986,
6.736225,0.1629,-0.9357,-0.0111,0.0109,0.5653,-1.6921,0.7542,0.3539,0.3860,
6.738242,0.1629,-0.9357,-0.0111,0.0682,0.1153,-0.1918,0.7542,0.3539,0.3860,
6.739680,0.1592,-0.9670,0.0717,0.0682,0.1153,-0.1918,0.7542,0.3539,0.3860,
6.740664,0.1360,-0.9782,0.0808,0.0682,0.1153,-0.1918,0.7542,0.3539,0.3860,
6.741745,0.1228,-0.9635,0.0124,0.0682,0.1153,-0.1918,0.7542,0.3539,0.3860,
6.743017,0.1292,-0.9528,-0.0812,0.0682,0.1153,-0.1918,0.7542,0.3539,0.3860,
6.775439,0.1292,-0.9528,-0.0812,0.0682,0.1153,-0.1918,0.7542,0.4221,0.5479,
6.777281,0.1292,-0.9528,-0.0812,0.2869,0.1127,-0.4907,0.7542,0.4221,0.5479,
6.815142,0.1292,-0.9528,-0.0812,0.2869,0.1127,-0.4907,0.4793,0.4743,0.5170,
6.816754,0.1292,-0.9528,-0.0812,1.1176,-0.0328,-2.1521,0.4793,0.4743,0.5170,
6.818160,0.1954,-0.9824,-0.1301,1.1176,-0.0328,-2.1521,0.4793,0.4743,0.5170,
6.819308,0.2868,-1.0178,-0.0822,1.1176,-0.0328,-2.1521,0.4793,0.4743,0.5170,
6.820541,0.3075,-1.0058,0.0077,1.1176,-0.0328,-2.1521,0.4793,0.4743,0.5170,
6.821418,0.2616,-1.0317,-0.0096,1.1176,-0.0328,-2.1521,0.4793,0.4743,0.5170,
6.855115,0.2616,-1.0317,-0.0096,1.1176,-0.0328,-2.1521,0.5827,0.5212,0.3381,
6.857257,0.2616,-1.0317,-0.0096,1.2522,-0.0515,-2.3506,0.5827,0.5212,0.3381,
6.894374,0.2616,-1.0317,-0.0096,1.2522,-0.0515,-2.3506,0.4293,0.3529,0.4116,
6.896708,0.2616,-1.0317,-0.0096,2.0325,-0.6683,-1.9426,0.4293,0.3529,0.4116,
6.898055,0.2374,-1.1033,-0.1240,2.0325,-0.6683,-1.9426,0.4293,0.3529,0.4116,
6.899320,0.2340,-1.1013,-0.2268,2.0325,-0.6683,-1.9426,0.4293,0.3529,0.4116,
6.900991,0.3136,-1.1341,-0.2730,2.0325,-0.6683,-1.9426,0.4293,0.3529,0.4116,
6.902217,0.4761,-1.2408,-0.1782,2.0325,-0.6683,-1.9426,0.4293,0.3529,0.4116,
6.933826,0.4761,-1.2408,-0.1782,2.0325,-0.6683,-1.9426,-0.2323,-0.1126,0.1751,
6.935248,0.4761,-1.2408,-0.1782,2.7552,-1.7173,-3.5945,-0.2323,-0.1126,0.1751,
6.973782,0.4761,-1.2408,-0.1782,2.7552,-1.7173,-3.5945,-1.0333,-0.3332,-0.5227,
6.975210,0.4761,-1.2408,-0.1782,3.4689,-3.1450,-2.3224,-1.0333,-0.3332,-0.5227,
6.978274,0.5736,-1.3603,-0.0993,3.4689,-3.1450,-2.3224,-1.0333,-0.3332,-0.5227,
6.979385,0.5169,-1.3649,-0.0946,3.4689,-3.1450,-2.3224,-1.0333,-0.3332,-0.5227,
6.980321,0.2357,-1.2147,-0.2305,3.4689,-3.1450,-2.3224,-1.0333,-0.3332,-0.5227,
6.981292,-0.0831,-0.9484,-0.3834,3.4689,-3.1450,-2.3224,-1.0333,-0.3332,-0.5227,
7.013622,-0.0831,-0.9484,-0.3834,3.4689,-3.1450,-2.3224,-2.2051,-0.5441,-0.5983,
7.015192,-0.0831,-0.9484,-0.3834,3.1732,-3.0726,-1.4259,-2.2051,-0.5441,-0.5983,
7.053092,-0.0831,-0.9484,-0.3834,3.1732,-3.0726,-1.4259,-2.4864,-0.2319,-0.4492,
7.055449,-0.0831,-0.9484,-0.3834,-2.6848,-0.0520,-0.0978,-2.4864,-0.2319,-0.4492,
7.056462,-0.1984,-0.9186,-0.1936,-2.6848,-0.0520,-0.0978,-2.4864,-0.2319,-0.4492,
7.057543,-0.1471,-1.1282,0.2603,-2.6848,-0.0520,-0.0978,-2.4864,-0.2319,-0.4492,
7.058273,-0.0966,-1.3632,0.4668,-2.6848,-0.0520,-0.0978,-2.4864,-0.2319,-0.4492,
7.058891,-0.1549,-1.2838,0.2454,-2.6848,-0.0520,-0.0978,-2.4864,-0.2319,-0.4492,
7.092482,-0.1549,-1.2838,0.2454,-2.6848,-0.0520,-0.0978,-1.7833,0.4647,-0.4492,
7.093768,-0.1549,-1.2838,0.2454,-2.8344,-0.1637,0.5513,-1.7833,0.4647,-0.4492,
7.132573,-0.1549,-1.2838,0.2454,-2.8496,-2.7445,4.2877,-1.7833,0.4647,-0.4492,
7.134275,-0.1549,-1.2838,0.2454,-2.8496,-2.7445,4.2877,-1.7939,-0.0573,-0.2436,
7.135121,-0.1701,-1.1062,-0.0714,-2.8496,-2.7445,4.2877,-1.7939,-0.0573,-0.2436,
7.135931,-0.0726,-1.1487,-0.2280,-2.8496,-2.7445,4.2877,-1.7939,-0.0573,-0.2436,
7.136772,0.1052,-1.1402,-0.2253,-2.8496,-2.7445,4.2877,-1.7939,-0.0573,-0.2436,
7.137563,0.2494,-1.0400,-0.0797,-2.8496,-2.7445,4.2877,-1.7939,-0.0573,-0.2436,
7.172998,0.2494,-1.0400,-0.0797,-2.8496,-2.7445,4.2877,-1.8088,-0.4024,-0.3096,
7.175911,0.2494,-1.0400,-0.0797,-0.6149,-1.5332,1.1335,-1.8088,-0.4024,-0.3096,
7.199563,0.2897,-0.9799,0.0622,-0.6149,-1.5332,1.1335,-1.8088,-0.4024,-0.3096,
7.200970,0.2017,-0.9472,-0.0113,-0.6149,-1.5332,1.1335,-1.8088,-0.4024,-0.3096,
7.202072,0.0605,-0.9171,-0.0016,-0.6149,-1.5332,1.1335,-1.8088,-0.4024,-0.3096,
7.211170,0.0605,-0.9171,-0.0016,-0.6149,-1.5332,1.1335,-1.2847,-0.4546,-0.6580,
7.213171,0.0605,-0.9171,-0.0016,0.0815,-0.1489,3.4773,-1.2847,-0.4546,-0.6580,
7.250867,0.0605,-0.9171,-0.0016,0.0815,-0.1489,3.4773,-0.7372,-1.0139,-0.7368,
7.252777,0.0605,-0.9171,-0.0016,-2.3216,1.2491,3.5725,-0.7372,-1.0139,-0.7368,
7.287577,-0.0191,-0.8497,0.0099,-2.3216,1.2491,3.5725,-0.7372,-1.0139,-0.7368,
7.289986,-0.0597,-0.7803,-0.0067,-2.3216,1.2491,3.5725,-0.7372,-1.0139,-0.7368,
7.291594,-0.0792,-0.7327,-0.0094,-2.3216,1.2491,3.5725,-0.7372,-1.0139,-0.7368,
7.292434,-0.0809,-0.6853,0.0133,-2.3216,1.2491,3.5725,-0.7372,-1.0139,-0.7368,
7.293223,-0.0809,-0.6853,0.0133,-2.3216,1.2491,3.5725,-0.3569,-0.9787,-0.4928,
7.293916,-0.0809,-0.6853,0.0133,-2.3131,1.1421,3.7066,-0.3569,-0.9787,-0.4928,
7.330083,-0.0809,-0.6853,0.0133,-2.3131,1.1421,3.7066,0.1321,-0.4599,-0.1296,
7.331637,-0.0809,-0.6853,0.0133,-2.4641,2.4304,3.7687,0.1321,-0.4599,-0.1296,
7.369537,-0.0809,-0.6853,0.0133,-2.4641,2.4304,3.7687,0.6508,-0.3257,0.1783,
7.370827,-0.0809,-0.6853,0.0133,-2.3161,2.4914,3.5021,0.6508,-0.3257,0.1783,
7.371558,-0.0809,-0.6352,0.0353,-2.3161,2.4914,3.5021,0.6508,-0.3257,0.1783,
7.372149,-0.0621,-0.6384,-0.0121,-2.3161,2.4914,3.5021,0.6508,-0.3257,0.1783,
7.372746,0.0574,-0.7170,-0.1557,-2.3161,2.4914,3.5021,0.6508,-0.3257,0.1783,
7.373363,0.1609,-0.8057,-0.3485,-2.3161,2.4914,3.5021,0.6508,-0.3257,0.1783,
7.373975,0.2196,-0.8859,-0.5356,-2.3161,2.4914,3.5021,0.6508,-0.3257,0.1783,
7.409031,0.2196,-0.8859,-0.5356,-2.3161,2.4914,3.5021,0.6040,-0.5473,0.1665,
7.410172,0.2196,-0.8859,-0.5356,-0.0236,1.0925,-0.1918,0.6040,-0.5473,0.1665,
7.448756,0.2196,-0.8859,-0.5356,-0.0236,1.0925,-0.1918,0.2716,-0.6154,-0.2201,
7.449864,0.2196,-0.8859,-0.5356,2.4901,-0.2198,-3.9609,0.2716,-0.6154,-0.2201,
7.450462,0.3244,-0.9455,-0.6871,2.4901,-0.2198,-3.9609,0.2716,-0.6154,-0.2201,
7.450987,0.4412,-0.9359,-0.7391,2.4901,-0.2198,-3.9609,0.2716,-0.6154,-0.2201,
7.451493,0.4551,-0.9367,-0.7692,2.4901,-0.2198,-3.9609,0.2716,-0.6154,-0.2201,
7.451960,0.4712,-1.0019,-0.7528,2.4901,-0.2198,-3.9609,0.2716,-0.6154,-0.2201,
7.488629,0.4712,-1.0019,-0.7528,2.4901,-0.2198,-3.9609,0.0128,-0.4599,-0.6707,
7.490223,0.4712,-1.0019,-0.7528,2.2717,-0.2560,-3.8713,0.0128,-0.4599,-0.6707,
7.528107,0.3769,-1.0229,-0.6099,2.2717,-0.2560,-3.8713,0.0128,-0.4599,-0.6707,
7.529589,0.2682,-0.9687,-0.6131,2.2717,-0.2560,-3.8713,0.0128,-0.4599,-0.6707,
7.530368,0.2078,-0.8595,-0.5938,2.2717,-0.2560,-3.8713,0.0128,-0.4599,-0.6707,
7.531058,0.2078,-0.8595,-0.5938,2.2717,-0.2560,-3.8713,-0.2749,-0.5803,-0.8913,
7.531843,0.2078,-0.8595,-0.5938,1.6653,-0.9151,-2.9644,-0.2749,-0.5803,-0.8913,
7.567723,0.2078,-0.8595,-0.5938,1.6653,-0.9151,-2.9644,0.1321,-0.8605,-0.7506,
7.569977,0.2078,-0.8595,-0.5938,-0.8418,1.3064,-0.6310,0.1321,-0.8605,-0.7506,
7.607785,0.2078,-0.8595,-0.5938,-0.8418,1.3064,-0.6310,0.5241,-0.5505,-0.4833,
7.609680,0.2078,-0.8595,-0.5938,-0.9190,1.3147,-0.7541,0.5241,-0.5505,-0.4833,
7.612050,0.1433,-0.7024,-0.3883,-0.9190,1.3147,-0.7541,0.5241,-0.5505,-0.4833,
7.613394,0.0371,-0.7317,-0.2901,-0.9190,1.3147,-0.7541,0.5241,-0.5505,-0.4833,
7.615144,0.1165,-1.1969,-0.5840,-0.9190,1.3147,-0.7541,0.5241,-0.5505,-0.4833,
7.616451,0.2978,-1.8660,-0.5417,-0.9190,1.3147,-0.7541,0.5241,-0.5505,-0.4833,
7.617761,0.1490,-1.7084,-0.3866,-0.9190,1.3147,-0.7541,0.5241,-0.5505,-0.4833,
7.647479,0.1490,-1.7084,-0.3866,-0.9190,1.3147,-0.7541,-0.2227,0.3326,-0.4012,
7.650855,0.1490,-1.7084,-0.3866,-0.5234,-6.7315,-1.4670,-0.2227,0.3326,-0.4012,
7.687526,0.1490,-1.7084,-0.3866,-0.5234,-6.7315,-1.4670,0.4048,0.9303,0.7269,
7.690905,0.1490,-1.7084,-0.3866,-7.3161,2.6266,2.9237,0.4048,0.9303,0.7269,
7.693937,-0.3411,-0.5922,0.0175,-7.3161,2.6266,2.9237,0.4048,0.9303,0.7269,
7.695890,-0.8793,-0.3809,-0.0773,-7.3161,2.6266,2.9237,0.4048,0.9303,0.7269,
7.697312,-0.3743,-0.9567,-0.0233,-7.3161,2.6266,2.9237,0.4048,0.9303,0.7269,
7.698691,0.3364,-1.2621,0.1741,-7.3161,2.6266,2.9237,0.4048,0.9303,0.7269,
7.726351,0.3364,-1.2621,0.1741,-7.3161,2.6266,2.9237,0.9502,1.9699,1.2872,
7.728231,0.3364,-1.2621,0.1741,-6.9670,2.7920,2.3871,0.9502,1.9699,1.2872,
7.766277,0.3364,-1.2621,0.1741,-6.9670,2.7920,2.3871,1.0322,1.0932,0.5362,
7.767805,0.3364,-1.2621,0.1741,2.4596,-1.7333,3.9606,1.0322,1.0932,0.5362,
7.768686,0.5369,-1.1746,0.2821,2.4596,-1.7333,3.9606,1.0322,1.0932,0.5362,
7.769742,0.4035,-0.9289,0.1003,2.4596,-1.7333,3.9606,1.0322,1.0932,0.5362,
7.770547,0.3019,-0.8368,-0.1301,2.4596,-1.7333,3.9606,1.0322,1.0932,0.5362,
7.771193,0.2325,-0.9054,-0.1701,2.4596,-1.7333,3.9606,1.0322,1.0932,0.5362,
7.805216,0.2325,-0.9054,-0.1701,2.4596,-1.7333,3.9606,0.7137,0.3539,0.2582,
7.806670,0.2325,-0.9054,-0.1701,2.4840,-1.6320,3.6128,0.7137,0.3539,0.2582,
7.844831,0.2325,-0.9054,-0.1701,2.4840,-1.6320,3.6128,0.7638,0.1537,0.2741,
7.847182,0.2325,-0.9054,-0.1701,0.6747,0.5022,0.2078,0.7638,0.1537,0.2741,
7.847685,0.1639,-0.9882,-0.0944,0.6747,0.5022,0.2078,0.7638,0.1537,0.2741,
7.848185,0.1959,-0.9907,-0.0238,0.6747,0.5022,0.2078,0.7638,0.1537,0.2741,
7.848550,0.1849,-0.9824,-0.0145,0.6747,0.5022,0.2078,0.7638,0.1537,0.2741,
7.849020,0.1412,-0.9560,-0.0643,0.6747,0.5022,0.2078,0.7638,0.1537,0.2741,
7.884878,0.1412,-0.9560,-0.0643,0.6747,0.5022,0.2078,0.8756,0.0759,0.2475,
7.886888,0.1412,-0.9560,-0.0643,0.1840,-0.0837,0.8148,0.8756,0.0759,0.2475,
7.925584,0.1412,-0.9560,-0.0643,0.1840,-0.0837,0.8148,0.8085,0.1185,0.2571,
7.927528,0.1412,-0.9560,-0.0643,0.1240,0.6496,0.4379,0.8085,0.1185,0.2571,
7.928661,0.1470,-0.9164,-0.0839,0.1240,0.6496,0.4379,0.8085,0.1185,0.2571,
7.929797,0.1636,-0.8881,-0.0394,0.1240,0.6496,0.4379,0.8085,0.1185,0.2571,
7.930930,0.1653,-0.9110,0.0028,0.1240,0.6496,0.4379,0.8085,0.1185,0.2571,
7.932157,0.2039,-0.9416,-0.0289,0.1240,0.6496,0.4379,0.8085,0.1185,0.2571,
7.964453,0.2039,-0.9416,-0.0289,0.1240,0.6496,0.4379,0.9502,0.1601,0.2667,
7.966332,0.2039,-0.9416,-0.0289,0.2171,0.6771,0.0686,0.9502,0.1601,0.2667,
8.004322,0.2039,-0.9416,-0.0289,0.2171,0.6771,0.0686,0.8756,-0.0445,0.2646,
8.006477,0.2039,-0.9416,-0.0289,0.8703,0.2757,-0.9565,0.8756,-0.0445,0.2646,
8.007970,0.2210,-0.9526,-0.1301,0.8703,0.2757,-0.9565,0.8756,-0.0445,0.2646,
8.009507,0.2247,-0.9501,-0.1794,0.8703,0.2757,-0.9565,0.8756,-0.0445,0.2646,
8.010488,0.2157,-0.9499,-0.1696,0.8703,0.2757,-0.9565,0.8756,-0.0445,0.2646,
8.012095,0.1785,-0.9267,-0.1120,0.8703,0.2757,-0.9565,0.8756,-0.0445,0.2646,
8.044137,0.1785,-0.9267,-0.1120,0.8703,0.2757,-0.9565,0.6541,-0.1404,0.2081,
8.046840,0.1785,-0.9267,-0.1120,0.9334,0.2816,-1.1778,0.6541,-0.1404,0.2081,
8.083057,0.1394,-0.9206,-0.0419,0.9334,0.2816,-1.1778,0.6541,-0.1404,0.2081,
8.085002,0.0955,-0.9293,-0.0028,0.9334,0.2816,-1.1778,0.6541,-0.1404,0.2081,
8.086431,0.0710,-0.9462,-0.0184,0.9334,0.2816,-1.1778,0.6541,-0.1404,0.2081,
8.088095,0.0710,-0.9462,-0.0184,0.9334,0.2816,-1.1778,0.6860,-0.0264,0.2411,
8.089144,0.0710,-0.9462,-0.0184,0.6350,0.4337,-1.3652,0.6860,-0.0264,0.2411,
8.123853,0.0710,-0.9462,-0.0184,0.6350,0.4337,-1.3652,0.7158,0.0706,0.3775,
8.125293,0.0710,-0.9462,-0.0184,-0.1807,0.2739,-0.7931,0.7158,0.0706,0.3775,
8.162443,0.0710,-0.9462,-0.0184,0.0054,0.2683,-1.0234,0.7158,0.0706,0.3775,
8.163762,0.0710,-0.9462,-0.0184,0.0054,0.2683,-1.0234,0.6370,0.1814,0.4776,
8.165264,0.0723,-0.9699,-0.0472,0.0054,0.2683,-1.0234,0.6370,0.1814,0.4776,
8.166400,0.0935,-0.9892,-0.0607,0.0054,0.2683,-1.0234,0.6370,0.1814,0.4776,
8.167066,0.1084,-0.9672,-0.0551,0.0054,0.2683,-1.0234,0.6370,0.1814,0.4776,
8.167790,0.0945,-0.9587,-0.0353,0.0054,0.2683,-1.0234,0.6370,0.1814,0.4776,
8.168500,0.1143,-0.9711,-0.0201,0.0054,0.2683,-1.0234,0.6370,0.1814,0.4776,
8.202117,0.1143,-0.9711,-0.0201,0.0054,0.2683,-1.0234,0.5837,0.3859,0.4968,
8.203646,0.1143,-0.9711,-0.0201,0.3896,0.0324,-1.4991,0.5837,0.3859,0.4968,
8.241525,0.1143,-0.9711,-0.0201,0.3896,0.0324,-1.4991,0.6508,0.4924,0.4723,
8.242592,0.1143,-0.9711,-0.0201,1.0247,-0.2737,-1.1830,0.6508,0.4924,0.4723,
8.244546,0.1568,-0.9941,0.0104,1.0247,-0.2737,-1.1830,0.6508,0.4924,0.4723,
8.245208,0.1636,-1.0388,0.0275,1.0247,-0.2737,-1.1830,0.6508,0.4924,0.4723,
8.245650,0.1944,-1.1006,-0.0118,1.0247,-0.2737,-1.1830,0.6508,0.4924,0.4723,
8.246121,0.2579,-1.1438,-0.0497,1.0247,-0.2737,-1.1830,0.6508,0.4924,0.4723,
8.280707,0.2579,-1.1438,-0.0497,1.0247,-0.2737,-1.1830,0.6722,0.4317,0.4787,
8.283411,0.2579,-1.1438,-0.0497,1.2082,-0.2996,-1.4176,0.6722,0.4317,0.4787,
8.320308,0.2579,-1.1438,-0.0497,1.2082,-0.2996,-1.4176,0.3345,0.2016,0.3317,
8.321348,0.2579,-1.1438,-0.0497,2.2796,-1.5794,-2.1728,0.3345,0.2016,0.3317,
8.322036,0.2802,-1.1539,-0.1242,2.2796,-1.5794,-2.1728,0.3345,0.2016,0.3317,
8.322518,0.3554,-1.2259,-0.1733,2.2796,-1.5794,-2.1728,0.3345,0.2016,0.3317,
8.322934,0.4744,-1.3002,-0.1225,2.2796,-1.5794,-2.1728,0.3345,0.2016,0.3317,
8.323446,0.5455,-1.3383,-0.0817,2.2796,-1.5794,-2.1728,0.3345,0.2016,0.3317,
8.360366,0.5455,-1.3383,-0.0817,2.2796,-1.5794,-2.1728,-0.2536,-0.1595,-0.3054,
8.361528,0.5455,-1.3383,-0.0817,4.1836,-3.0375,-2.6574,-0.2536,-0.1595,-0.3054,
8.399415,0.5455,-1.3383,-0.0817,4.1836,-3.0375,-2.6574,-1.3263,-0.3097,-0.6026,
8.400779,0.5455,-1.3383,-0.0817,1.2968,-1.3216,-3.5411,-1.3263,-0.3097,-0.6026,
8.401446,0.4123,-1.2978,-0.1193,1.2968,-1.3216,-3.5411,-1.3263,-0.3097,-0.6026,
8.401890,0.1590,-1.1260,-0.3089,1.2968,-1.3216,-3.5411,-1.3263,-0.3097,-0.6026,
8.402375,0.0017,-0.9379,-0.3944,1.2968,-1.3216,-3.5411,-1.3263,-0.3097,-0.6026,
8.402844,-0.0484,-0.8859,-0.1809,1.2968,-1.3216,-3.5411,-1.3263,-0.3097,-0.6026,
8.440148,-0.0484,-0.8859,-0.1809,1.2968,-1.3216,-3.5411,-2.4789,-0.6922,-0.5578,
8.441678,-0.0484,-0.8859,-0.1809,1.0550,-1.2788,-2.5280,-2.4789,-0.6922,-0.5578,
8.479328,-0.0484,-0.8859,-0.1809,1.0550,-1.2788,-2.5280,-2.2893,0.0258,-0.6558,
8.481252,-0.0484,-0.8859,-0.1809,-1.5996,-0.7684,2.0187,-2.2893,0.0258,-0.6558,
8.482111,-0.0533,-1.0393,0.1331,-1.5996,-0.7684,2.0187,-2.2893,0.0258,-0.6558,
8.482692,-0.0685,-1.2601,0.3595,-1.5996,-0.7684,2.0187,-2.2893,0.0258,-0.6558,
8.483266,-0.2001,-1.3371,0.3542,-1.5996,-0.7684,2.0187,-2.2893,0.0258,-0.6558,
8.483887,-0.2964,-1.2247,0.1472,-1.5996,-0.7684,2.0187,-2.2893,0.0258,-0.6558,
8.519113,-0.2964,-1.2247,0.1472,-1.5996,-0.7684,2.0187,-1.9495,0.7960,-0.4897,
8.520595,-0.2964,-1.2247,0.1472,-1.7999,-0.8807,2.6763,-1.9495,0.7960,-0.4897,
8.558729,-0.2964,-1.2247,0.1472,-1.7999,-0.8807,2.6763,-1.9154,0.0269,-0.2521,
8.562017,-0.2964,-1.2247,0.1472,-3.6305,-2.7831,3.7714,-1.9154,0.0269,-0.2521,
8.563754,-0.2238,-1.1695,-0.0541,-3.6305,-2.7831,3.7714,-1.9154,0.0269,-0.2521,
8.565143,-0.0812,-1.1634,-0.1420,-3.6305,-2.7831,3.7714,-1.9154,0.0269,-0.2521,
8.566567,0.1055,-1.0427,-0.0885,-3.6305,-2.7831,3.7714,-1.9154,0.0269,-0.2521,
8.567901,0.2533,-0.9545,-0.0343,-3.6305,-2.7831,3.7714,-1.9154,0.0269,-0.2521,
8.598608,0.2533,-0.9545,-0.0343,-3.6305,-2.7831,3.7714,-1.6331,-0.3854,-0.3884,
8.600814,0.2533,-0.9545,-0.0343,-0.4648,-1.0905,2.0340,-1.6331,-0.3854,-0.3884,
8.639658,0.3300,-0.9262,-0.1161,-0.4648,-1.0905,2.0340,-1.6331,-0.3854,-0.3884,
8.641207,0.2919,-0.9374,-0.0255,-0.4648,-1.0905,2.0340,-1.6331,-0.3854,-0.3884,
8.642056,0.1749,-0.9174,-0.0172,-0.4648,-1.0905,2.0340,-1.6331,-0.3854,-0.3884,
8.642943,0.1749,-0.9174,-0.0172,-0.4648,-1.0905,2.0340,-1.1814,-0.4429,-0.8412,
8.643771,0.1749,-0.9174,-0.0172,0.9658,-0.0456,2.7871,-1.1814,-0.4429,-0.8412,
8.678455,0.1749,-0.9174,-0.0172,0.9658,-0.0456,2.7871,-0.6115,-1.0266,-0.9296,
8.679706,0.1749,-0.9174,-0.0172,-2.4321,1.4284,3.1567,-0.6115,-1.0266,-0.9296,
8.716667,0.1749,-0.9174,-0.0172,-2.4321,1.4284,3.1567,-0.1886,-0.8711,-0.4513,
8.718009,0.1749,-0.9174,-0.0172,-2.4241,1.3463,3.2307,-0.1886,-0.8711,-0.4513,
8.718608,0.0236,-0.8473,-0.0402,-2.4241,1.3463,3.2307,-0.1886,-0.8711,-0.4513,
8.719176,-0.0873,-0.7569,-0.0563,-2.4241,1.3463,3.2307,-0.1886,-0.8711,-0.4513,
8.719761,-0.1347,-0.6731,-0.0211,-2.4241,1.3463,3.2307,-0.1886,-0.8711,-0.4513,
8.720330,-0.1239,-0.6061,0.0065,-2.4241,1.3463,3.2307,-0.1886,-0.8711,-0.4513,
8.720990,-0.0367,-0.5993,-0.0218,-2.4241,1.3463,3.2307,-0.1886,-0.8711,-0.4513,
8.756861,-0.0367,-0.5993,-0.0218,-2.4241,1.3463,3.2307,0.3036,-0.3736,0.0164,
8.757801,-0.0367,-0.5993,-0.0218,-2.3257,1.3673,3.0983,0.3036,-0.3736,0.0164,
8.797011,-0.0367,-0.5993,-0.0218,-2.3257,1.3673,3.0983,0.4410,-0.4184,0.0345,
8.799179,-0.0367,-0.5993,-0.0218,-1.8724,2.5960,2.6901,0.4410,-0.4184,0.0345,
8.800540,0.0703,-0.7012,-0.1743,-1.8724,2.5960,2.6901,0.4410,-0.4184,0.0345,
8.801531,0.1861,-0.7894,-0.3893,-1.8724,2.5960,2.6901,0.4410,-0.4184,0.0345,
8.802499,0.2626,-0.8705,-0.5979,-1.8724,2.5960,2.6901,0.4410,-0.4184,0.0345,
8.803101,0.3420,-0.9384,-0.7108,-1.8724,2.5960,2.6901,0.4410,-0.4184,0.0345,
8.835605,0.3420,-0.9384,-0.7108,-1.8724,2.5960,2.6901,0.0010,-0.4716,-0.2063,
8.837128,0.3420,-0.9384,-0.7108,0.9787,0.3184,-2.1713,0.0010,-0.4716,-0.2063,
8.874977,0.3420,-0.9384,-0.7108,0.9787,0.3184,-2.1713,-0.0267,-0.2916,-0.4801,
8.876372,0.3420,-0.9384,-0.7108,1.8198,0.4543,-2.0037,-0.0267,-0.2916,-0.4801,
8.876901,0.4074,-0.8937,-0.6209,1.8198,0.4543,-2.0037,-0.0267,-0.2916,-0.4801,
8.877314,0.3583,-0.7994,-0.5148,1.8198,0.4543,-2.0037,-0.0267,-0.2916,-0.4801,
8.877722,0.3310,-0.8504,-0.5300,1.8198,0.4543,-2.0037,-0.0267,-0.2916,-0.4801,
8.878208,0.4292,-0.9381,-0.5620,1.8198,0.4543,-2.0037,-0.0267,-0.2916,-0.4801,
8.915718,0.4292,-0.9381,-0.5620,1.8198,0.4543,-2.0037,0.1555,-0.7816,-0.7506,
8.917317,0.4292,-0.9381,-0.5620,1.6384,0.4137,-1.9670,0.1555,-0.7816,-0.7506,
8.954933,0.4912,-0.9802,-0.5806,1.6384,0.4137,-1.9670,0.1555,-0.7816,-0.7506,
8.957085,0.4370,-0.9491,-0.6287,1.6384,0.4137,-1.9670,0.1555,-0.7816,-0.7506,
8.958529,0.3026,-0.8497,-0.6153,1.6384,0.4137,-1.9670,0.1555,-0.7816,-0.7506,
8.959823,0.3026,-0.8497,-0.6153,1.6384,0.4137,-1.9670,0.0053,-1.1449,-1.0702,
8.961089,0.3026,-0.8497,-0.6153,2.2431,-0.7187,-2.1836,0.0053,-1.1449,-1.0702,
8.994801,0.3026,-0.8497,-0.6153,2.2431,-0.7187,-2.1836,0.3675,-1.0053,-0.8146,
8.996089,0.3026,-0.8497,-0.6153,-0.4739,1.2420,-1.2930,0.3675,-1.0053,-0.8146,
9.036036,0.3026,-0.8497,-0.6153,-0.5601,1.3222,-1.5915,0.3675,-1.0053,-0.8146,
9.038054,0.3026,-0.8497,-0.6153,-0.5601,1.3222,-1.5915,1.0045,-0.2043,-0.3640,
9.039250,0.1644,-0.7178,-0.5039,-0.5601,1.3222,-1.5915,1.0045,-0.2043,-0.3640,
9.041138,0.0977,-0.6870,-0.3753,-0.5601,1.3222,-1.5915,1.0045,-0.2043,-0.3640,
9.042833,0.1973,-1.0122,-0.3008,-0.5601,1.3222,-1.5915,1.0045,-0.2043,-0.3640,
9.044515,0.4519,-1.8250,-0.2380,-0.5601,1.3222,-1.5915,1.0045,-0.2043,-0.3640,
9.045960,0.1570,-2.0290,-0.7362,-0.5601,1.3222,-1.5915,1.0045,-0.2043,-0.3640,
9.073954,0.1570,-2.0290,-0.7362,-0.5601,1.3222,-1.5915,-0.0789,0.7470,-0.1413,
9.076576,0.1570,-2.0290,-0.7362,0.0832,-7.1123,-0.9060,-0.0789,0.7470,-0.1413,
9.114572,0.1570,-2.0290,-0.7362,0.0832,-7.1123,-0.9060,-0.0128,0.3710,0.9953,
9.116474,0.1570,-2.0290,-0.7362,-7.5219,2.4572,1.1661,-0.0128,0.3710,0.9953,
9.118008,-0.7337,-0.8245,-0.5363,-7.5219,2.4572,1.1661,-0.0128,0.3710,0.9953,
9.119417,-0.6673,-0.2819,-0.1569,-7.5219,2.4572,1.1661,-0.0128,0.3710,0.9953,
9.120796,-0.2519,-0.8460,0.0683,-7.5219,2.4572,1.1661,-0.0128,0.3710,0.9953,
9.122357,0.2670,-1.2218,0.3273,-7.5219,2.4572,1.1661,-0.0128,0.3710,0.9953,
9.152629,0.2670,-1.2218,0.3273,-7.5219,2.4572,1.1661,0.8383,1.3755,1.3373,
9.154547,0.2670,-1.2218,0.3273,-7.0924,2.6167,0.7496,0.8383,1.3755,1.3373,
9.191893,0.2670,-1.2218,0.3273,-7.0924,2.6167,0.7496,1.0312,0.5947,0.4947,
9.193494,0.2670,-1.2218,0.3273,2.5509,-1.5255,4.7619,1.0312,0.5947,0.4947,
9.194361,0.5675,-1.1629,0.3060,2.5509,-1.5255,4.7619,1.0312,0.5947,0.4947,
9.194976,0.4426,-0.8859,0.1199,2.5509,-1.5255,4.7619,1.0312,0.5947,0.4947,
9.195568,0.2997,-0.8267,-0.1025,2.5509,-1.5255,4.7619,1.0312,0.5947,0.4947,
9.196131,0.2088,-0.9882,-0.1799,2.5509,-1.5255,4.7619,1.0312,0.5947,0.4947,
9.231958,0.2088,-0.9882,-0.1799,2.5509,-1.5255,4.7619,0.9278,0.0589,0.1591,
9.233094,0.2088,-0.9882,-0.1799,2.5599,-1.4133,4.3461,0.9278,0.0589,0.1591,
9.261811,0.1209,-1.0925,-0.0797,2.5599,-1.4133,4.3461,0.9278,0.0589,0.1591,
9.262950,0.1096,-0.9992,-0.0419,2.5599,-1.4133,4.3461,0.9278,0.0589,0.1591,
9.263676,0.0425,-0.9201,-0.0849,2.5599,-1.4133,4.3461,0.9278,0.0589,0.1591,
9.271027,0.0425,-0.9201,-0.0849,2.5599,-1.4133,4.3461,1.0184,0.1494,0.1442,
9.272707,0.0425,-0.9201,-0.0849,0.4794,-0.1473,0.3124,1.0184,0.1494,0.1442,
9.310754,0.0425,-0.9201,-0.0849,0.4794,-0.1473,0.3124,0.9864,0.1643,0.3391,
9.311861,0.0425,-0.9201,-0.0849,-0.8679,0.1404,0.2452,0.9864,0.1643,0.3391,
9.350549,0.0244,-0.9213,-0.1393,-0.8679,0.1404,0.2452,0.9864,0.1643,0.3391,
9.352154,0.0957,-0.9098,-0.1608,-0.8679,0.1404,0.2452,0.9864,0.1643,0.3391,
9.353115,0.1793,-0.9030,-0.0555,-0.8679,0.1404,0.2452,0.9864,0.1643,0.3391,
9.353720,0.1793,-0.9030,-0.0555,-0.8679,0.1404,0.2452,0.8341,0.0866,0.4414,
9.355009,0.1793,-0.9030,-0.0555,-0.6943,0.1926,-0.0705,0.8341,0.0866,0.4414,
9.390008,0.1793,-0.9030,-0.0555,-0.6943,0.1926,-0.0705,1.0322,0.2144,0.3018,
9.391663,0.1793,-0.9030,-0.0555,0.4521,0.5433,-0.2346,1.0322,0.2144,0.3018,
9.429980,0.2215,-0.9296,0.0209,0.4521,0.5433,-0.2346,1.0322,0.2144,0.3018,
9.430933,0.2391,-0.9262,-0.0448,0.4521,0.5433,-0.2346,1.0322,0.2144,0.3018,
9.431395,0.2364,-0.9223,-0.1220,0.4521,0.5433,-0.2346,1.0322,0.2144,0.3018,
9.431859,0.2030,-0.9301,-0.1557,0.4521,0.5433,-0.2346,1.0322,0.2144,0.3018,
9.432335,0.1358,-0.9313,-0.1814,0.4521,0.5433,-0.2346,1.0322,0.2144,0.3018,
9.432744,0.0796,-0.9399,-0.1347,0.4521,0.5433,-0.2346,1.0322,0.2144,0.3018,
9.433206,0.0796,-0.9399,-0.1347,0.4521,0.5433,-0.2346,0.8895,0.1643,0.1602,
9.435678,0.0796,-0.9399,-0.1347,1.0871,0.4333,-0.9755,0.8895,0.1643,0.1602,
9.469734,0.0796,-0.9399,-0.1347,1.0871,0.4333,-0.9755,0.6306,0.1079,0.1815,
9.470805,0.0796,-0.9399,-0.1347,1.1364,0.4327,-1.1978,0.6306,0.1079,0.1815,
9.510170,0.0796,-0.9399,-0.1347,1.1364,0.4327,-1.1978,0.6210,0.2314,0.3093,
9.511666,0.0796,-0.9399,-0.1347,-0.0249,0.3231,-1.6221,0.6210,0.2314,0.3093,
9.512477,0.0710,-0.9411,-0.0702,-0.0249,0.3231,-1.6221,0.6210,0.2314,0.3093,
9.512867,0.0867,-0.9477,-0.0260,-0.0249,0.3231,-1.6221,0.6210,0.2314,0.3093,
9.513373,0.1008,-0.9533,0.0165,-0.0249,0.3231,-1.6221,0.6210,0.2314,0.3093,
9.514421,0.1047,-0.9697,0.0573,-0.0249,0.3231,-1.6221,0.6210,0.2314,0.3093,
9.548495,0.1047,-0.9697,0.0573,-0.0249,0.3231,-1.6221,0.7702,0.3806,0.3849,
9.549969,0.1047,-0.9697,0.0573,0.1446,0.1280,-0.4989,0.7702,0.3806,0.3849,
9.588024,0.0742,-0.9697,0.0480,0.1446,0.1280,-0.4989,0.7702,0.3806,0.3849,
9.589170,0.0483,-1.0021,-0.0336,0.1446,0.1280,-0.4989,0.7702,0.3806,0.3849,
9.589625,0.1118,-1.0454,-0.1169,0.1446,0.1280,-0.4989,0.7702,0.3806,0.3849,
9.590040,0.1118,-1.0454,-0.1169,0.1446,0.1280,-0.4989,0.8948,0.4115,0.5042,
9.590492,0.1118,-1.0454,-0.1169,0.1560,-0.3599,-1.3157,0.8948,0.4115,0.5042,
9.627797,0.1118,-1.0454,-0.1169,0.1560,-0.3599,-1.3157,0.6700,0.5180,0.5458,
9.629119,0.1118,-1.0454,-0.1169,2.1704,-0.5977,-1.9321,0.6700,0.5180,0.5458,
9.651677,0.2120,-1.0075,-0.0993,2.1704,-0.5977,-1.9321,0.6700,0.5180,0.5458,
9.652677,0.2675,-0.9863,-0.0428,2.1704,-0.5977,-1.9321,0.6700,0.5180,0.5458,
9.653201,0.3129,-1.0935,-0.0788,2.1704,-0.5977,-1.9321,0.6700,0.5180,0.5458,
9.653688,0.3141,-1.1956,-0.1205,2.1704,-0.5977,-1.9321,0.6700,0.5180,0.5458,
9.667335,0.3141,-1.1956,-0.1205,2.1704,-0.5977,-1.9321,0.6146,0.5169,0.3168,
9.668128,0.3141,-1.1956,-0.1205,2.2779,-0.6153,-2.1336,0.6146,0.5169,0.3168,
9.706958,0.3141,-1.1956,-0.1205,2.2779,-0.6153,-2.1336,0.4122,0.5169,0.1921,
9.709233,0.3141,-1.1956,-0.1205,1.9101,-2.0576,-3.0280,0.4122,0.5169,0.1921,
9.739576,0.1973,-1.1741,-0.1374,1.9101,-2.0576,-3.0280,0.4122,0.5169,0.1921,
9.740589,0.1468,-1.1629,-0.2036,1.9101,-2.0576,-3.0280,0.4122,0.5169,0.1921,
9.741041,0.2721,-1.2254,-0.2351,1.9101,-2.0576,-3.0280,0.4122,0.5169,0.1921,
9.741469,0.4986,-1.3488,-0.1972,1.9101,-2.0576,-3.0280,0.4122,0.5169,0.1921,
9.746441,0.4986,-1.3488,-0.1972,1.9101,-2.0576,-3.0280,-0.2695,0.0503,0.1921,
9.747467,0.4986,-1.3488,-0.1972,1.9524,-2.0064,-2.8784,-0.2695,0.0503,0.1921,
9.786233,0.4986,-1.3488,-0.1972,1.9524,-2.0064,-2.8784,-1.2656,-0.2501,-0.4215,
9.787271,0.4986,-1.3488,-0.1972,3.9115,-3.1485,-2.7310,-1.2656,-0.2501,-0.4215,
9.825743,0.5599,-1.3403,-0.1459,3.9115,-3.1485,-2.7310,-1.2656,-0.2501,-0.4215,
9.826819,0.2650,-1.1267,-0.2180,3.9115,-3.1485,-2.7310,-1.2656,-0.2501,-0.4215,
9.827242,-0.1144,-0.8837,-0.2801,3.9115,-3.1485,-2.7310,-1.2656,-0.2501,-0.4215,
9.827729,-0.1144,-0.8837,-0.2801,3.5924,-3.0750,-1.7905,-1.2656,-0.2501,-0.4215,
9.829552,-0.1144,-0.8837,-0.2801,3.5924,-3.0750,-1.7905,-2.3436,-0.6027,-0.6516,
9.865661,-0.1144,-0.8837,-0.2801,3.5924,-3.0750,-1.7905,-2.5322,-0.2735,-0.5365,
9.866796,-0.1144,-0.8837,-0.2801,-1.1004,0.1200,-0.7647,-2.5322,-0.2735,-0.5365,
9.905568,-0.2009,-0.9017,-0.0705,-1.1004,0.1200,-0.7647,-2.5322,-0.2735,-0.5365,
9.906368,-0.1085,-1.2057,0.2704,-1.1004,0.1200,-0.7647,-2.5322,-0.2735,-0.5365,
9.906965,-0.0465,-1.4365,0.4243,-1.1004,0.1200,-0.7647,-2.5322,-0.2735,-0.5365,
9.907510,-0.1217,-1.3202,0.2760,-1.1004,0.1200,-0.7647,-2.5322,-0.2735,-0.5365,
9.907951,-0.1752,-1.1739,-0.0055,-1.1004,0.1200,-0.7647,-2.5322,-0.2735,-0.5365,
9.908433,-0.1657,-1.1822,-0.1665,-1.1004,0.1200,-0.7647,-2.5322,-0.2735,-0.5365,
9.909279,-0.1657,-1.1822,-0.1665,-1.1004,0.1200,-0.7647,-1.9963,0.8184,-0.6068,
9.909892,-0.1657,-1.1822,-0.1665,-2.0852,-3.3945,4.9011,-1.9963,0.8184,-0.6068,
9.944860,-0.1657,-1.1822,-0.1665,-2.0852,-3.3945,4.9011,-1.9452,0.4850,-0.4502,
9.946023,-0.1657,-1.1822,-0.1665,-2.2550,-3.5183,5.5122,-1.9452,0.4850,-0.4502,
9.984404,-0.1657,-1.1822,-0.1665,-2.2550,-3.5183,5.5122,-1.7321,-0.3065,-0.3725,
9.986346,-0.0494,-1.1131,-0.1134,-2.2550,-3.5183,5.5122,-1.7321,-0.3065,-0.3725,
9.987417,0.1819,-0.9584,-0.0123,-2.2550,-3.5183,5.5122,-1.7321,-0.3065,-0.3725,
9.988025,0.3400,-0.8961,-0.0575,-2.2550,-3.5183,5.5122,-1.7321,-0.3065,-0.3725,
9.988413,0.2970,-0.8802,-0.0284,-2.2550,-3.5183,5.5122,-1.7321,-0.3065,-0.3725,
9.989012,0.2970,-0.8802,-0.0284,-2.6842,-2.0758,2.0328,-1.7321,-0.3065,-0.3725,
10.024471,0.2970,-0.8802,-0.0284,-2.6842,-2.0758,2.0328,-1.2922,-0.5004,-0.7272,
10.026073,0.2970,-0.8802,-0.0284,1.0492,0.1131,3.0908,-1.2922,-0.5004,-0.7272,
10.065836,0.1873,-0.8455,0.0449,1.0492,0.1131,3.0908,-1.2922,-0.5004,-0.7272,
10.067933,0.0376,-0.7815,-0.0082,1.0492,0.1131,3.0908,-1.2922,-0.5004,-0.7272,
10.069259,-0.1283,-0.6953,-0.0223,1.0492,0.1131,3.0908,-1.2922,-0.5004,-0.7272,
10.070456,-0.1283,-0.6953,-0.0223,1.0492,0.1131,3.0908,-0.6104,-1.0415,-0.8412,
10.071465,-0.1283,-0.6953,-0.0223,-1.4372,1.2957,3.6841,-0.6104,-1.0415,-0.8412,
10.104373,-0.1283,-0.6953,-0.0223,-1.4372,1.2957,3.6841,-0.0458,-0.8434,-0.3586,
10.105433,-0.1283,-0.6953,-0.0223,-2.3536,2.5559,4.0395,-0.0458,-0.8434,-0.3586,
10.144027,-0.1283,-0.6953,-0.0223,-2.3536,2.5559,4.0395,0.5411,-0.4429,0.1016,
10.145969,-0.1283,-0.6953,-0.0223,-2.2171,2.5951,3.8146,0.5411,-0.4429,0.1016,
10.147253,-0.1293,-0.6552,0.0392,-2.2171,2.5951,3.8146,0.5411,-0.4429,0.1016,
10.148354,-0.0670,-0.6254,0.0490,-2.2171,2.5951,3.8146,0.5411,-0.4429,0.1016,
10.149720,0.0009,-0.6330,0.0329,-2.2171,2.5951,3.8146,0.5411,-0.4429,0.1016,
10.150833,0.0605,-0.7151,-0.0912,-2.2171,2.5951,3.8146,0.5411,-0.4429,0.1016,
10.151866,0.0999,-0.7784,-0.2708,-2.2171,2.5951,3.8146,0.5411,-0.4429,0.1016,
10.183642,0.0999,-0.7784,-0.2708,-2.2171,2.5951,3.8146,0.8692,-0.5121,0.2305,
10.185986,0.0999,-0.7784,-0.2708,-2.0346,2.6764,3.4794,0.8692,-0.5121,0.2305,
10.225949,0.0999,-0.7784,-0.2708,-2.0346,2.6764,3.4794,0.4900,-0.7369,0.1048,
10.228308,0.1685,-0.8639,-0.4579,-2.0346,2.6764,3.4794,0.4900,-0.7369,0.1048,
10.229883,0.2232,-0.9687,-0.6451,-2.0346,2.6764,3.4794,0.4900,-0.7369,0.1048,
10.231251,0.3166,-1.0251,-0.7486,-2.0346,2.6764,3.4794,0.4900,-0.7369,0.1048,
10.232666,0.3996,-0.9574,-0.7833,-2.0346,2.6764,3.4794,0.4900,-0.7369,0.1048,
10.233605,0.3996,-0.9574,-0.7833,-0.1939,1.2697,0.2656,0.4900,-0.7369,0.1048,
10.262692,0.3996,-0.9574,-0.7833,-0.1939,1.2697,0.2656,-0.0469,-0.7411,-0.3682,
10.264164,0.3996,-0.9574,-0.7833,1.7272,-0.6832,-4.0449,-0.0469,-0.7411,-0.3682,
10.301540,0.3996,-0.9574,-0.7833,1.7272,-0.6832,-4.0449,-0.3079,-0.5419,-0.8486,
10.303554,0.4666,-0.9491,-0.7748,1.7272,-0.6832,-4.0449,-0.3079,-0.5419,-0.8486,
10.304122,0.4912,-1.0280,-0.6302,1.7272,-0.6832,-4.0449,-0.3079,-0.5419,-0.8486,
10.304714,0.3730,-1.0444,-0.5065,1.7272,-0.6832,-4.0449,-0.3079,-0.5419,-0.8486,
10.305698,0.3144,-0.9938,-0.6143,1.7272,-0.6832,-4.0449,-0.3079,-0.5419,-0.8486,
10.306404,0.3144,-0.9938,-0.6143,2.7267,-0.9835,-2.9872,-0.3079,-0.5419,-0.8486,
10.341493,0.3144,-0.9938,-0.6143,2.7267,-0.9835,-2.9872,-0.4229,-0.9904,-1.1863,
10.343497,0.3144,-0.9938,-0.6143,2.4036,-1.1041,-2.7239,-0.4229,-0.9904,-1.1863,
10.380760,0.3134,-0.9022,-0.6121,2.4036,-1.1041,-2.7239,-0.4229,-0.9904,-1.1863,
10.381826,0.2083,-0.7322,-0.4538,2.4036,-1.1041,-2.7239,-0.4229,-0.9904,-1.1863,
10.382630,0.1275,-0.5805,-0.2486,2.4036,-1.1041,-2.7239,-0.4229,-0.9904,-1.1863,
10.383341,0.1275,-0.5805,-0.2486,2.4036,-1.1041,-2.7239,0.0820,-1.3132,-1.0116,
10.384925,0.1275,-0.5805,-0.2486,0.6133,0.1092,-1.8588,0.0820,-1.3132,-1.0116,
10.420318,0.1275,-0.5805,-0.2486,0.6133,0.1092,-1.8588,1.0024,-0.6527,-0.5845,
10.422002,0.1275,-0.5805,-0.2486,-0.0565,0.1858,0.5041,1.0024,-0.6527,-0.5845,
10.460703,0.1275,-0.5805,-0.2486,-0.0565,0.1858,0.5041,0.3526,0.7523,-0.3000,
10.462595,0.1385,-0.7468,-0.2165,-0.0565,0.1858,0.5041,0.3526,0.7523,-0.3000,
10.463216,0.3986,-1.3036,-0.4000,-0.0565,0.1858,0.5041,0.3526,0.7523,-0.3000,
10.463824,0.1966,-2.0383,-0.4452,-0.0565,0.1858,0.5041,0.3526,0.7523,-0.3000,
10.464453,-0.4655,-1.5352,-0.6431,-0.0565,0.1858,0.5041,0.3526,0.7523,-0.3000,
10.464982,-0.5827,-0.4854,-0.2390,-0.0565,0.1858,0.5041,0.3526,0.7523,-0.3000,
10.465688,-0.5827,-0.4854,-0.2390,-0.2519,0.2005,0.3060,0.3526,0.7523,-0.3000,
10.499965,-0.5827,-0.4854,-0.2390,-0.2519,0.2005,0.3060,-0.0235,0.2687,0.7684,
10.501077,-0.5827,-0.4854,-0.2390,-4.8862,-4.3234,-1.2006,-0.0235,0.2687,0.7684,
10.540269,-0.5827,-0.4854,-0.2390,-4.8862,-4.3234,-1.2006,0.6551,0.9057,1.6078,
10.541454,-0.5827,-0.4854,-0.2390,-2.4288,-0.1704,4.1724,0.6551,0.9057,1.6078,
10.541949,-0.5969,-0.6521,-0.0766,-2.4288,-0.1704,4.1724,0.6551,0.9057,1.6078,
10.542421,-0.0770,-1.0207,0.2577,-2.4288,-0.1704,4.1724,0.6551,0.9057,1.6078,
10.542779,0.4187,-1.1759,0.2503,-2.4288,-0.1704,4.1724,0.6551,0.9057,1.6078,
10.543240,0.6034,-1.0026,0.2149,-2.4288,-0.1704,4.1724,0.6551,0.9057,1.6078,
10.579510,0.6034,-1.0026,0.2149,-2.4288,-0.1704,4.1724,0.9981,0.5286,0.7194,
10.581484,0.6034,-1.0026,0.2149,-2.1842,-0.0261,3.7141,0.9981,0.5286,0.7194,
10.620067,0.6034,-1.0026,0.2149,-2.1842,-0.0261,3.7141,1.1292,-0.2533,0.1112,
10.622122,0.6034,-1.0026,0.2149,3.0038,0.7733,2.3250,1.1292,-0.2533,0.1112,
10.623836,0.4380,-0.7701,0.0432,3.0038,0.7733,2.3250,1.1292,-0.2533,0.1112,
10.625286,0.2885,-0.8578,-0.1159,3.0038,0.7733,2.3250,1.1292,-0.2533,0.1112,
10.627061,0.1670,-1.0896,-0.1486,3.0038,0.7733,2.3250,1.1292,-0.2533,0.1112,
10.628747,0.1314,-1.0776,-0.1552,3.0038,0.7733,2.3250,1.1292,-0.2533,0.1112,
10.658498,0.1314,-1.0776,-0.1552,3.0038,0.7733,2.3250,1.0642,-0.2053,-0.0092,
10.660897,0.1314,-1.0776,-0.1552,2.9637,0.8291,1.9068,1.0642,-0.2053,-0.0092,
10.699592,0.1314,-1.0776,-0.1552,2.9637,0.8291,1.9068,0.9033,0.0120,0.0579,
10.701898,0.1314,-1.0776,-0.1552,-0.1999,-0.6741,-0.3642,0.9033,0.0120,0.0579,
10.704061,0.0554,-0.9418,-0.1474,-0.1999,-0.6741,-0.3642,0.9033,0.0120,0.0579,
10.707814,0.0119,-0.9249,-0.2026,-0.1999,-0.6741,-0.3642,0.9033,0.0120,0.0579,
10.709537,0.0339,-0.9264,-0.1623,-0.1999,-0.6741,-0.3642,0.9033,0.0120,0.0579,
10.710810,0.0847,-0.9118,-0.0143,-0.1999,-0.6741,-0.3642,0.9033,0.0120,0.0579,
10.737645,0.0847,-0.9118,-0.0143,-0.1999,-0.6741,-0.3642,0.7435,0.2016,0.1452,
10.739001,0.0847,-0.9118,-0.0143,-0.8674,0.4839,-0.4124,0.7435,0.2016,0.1452,
10.781147,0.1524,-0.9142,0.0857,-0.8674,0.4839,-0.4124,0.7435,0.2016,0.1452,
10.783288,0.1668,-0.9447,0.0529,-0.8674,0.4839,-0.4124,0.7435,0.2016,0.1452,
10.784514,0.1387,-0.9555,-0.0827,-0.8674,0.4839,-0.4124,0.7435,0.2016,0.1452,
10.785695,0.1387,-0.9555,-0.0827,-0.8674,0.4839,-0.4124,1.0503,0.3923,0.1080,
10.786829,0.1387,-0.9555,-0.0827,0.2294,0.3417,0.5828,1.0503,0.3923,0.1080,
10.817554,0.1387,-0.9555,-0.0827,0.2294,0.3417,0.5828,0.9545,0.3273,0.1325,
10.819667,0.1387,-0.9555,-0.0827,0.1512,0.3252,-1.6185,0.9545,0.3273,0.1325,
10.857699,0.1387,-0.9555,-0.0827,0.1512,0.3252,-1.6185,0.5923,0.2368,0.1665,
10.859615,0.1387,-0.9555,-0.0827,0.2113,0.3259,-1.8228,0.5923,0.2368,0.1665,
10.860806,0.1385,-0.9604,-0.1801,0.2113,0.3259,-1.8228,0.5923,0.2368,0.1665,
10.861758,0.1399,-0.9394,-0.1980,0.2113,0.3259,-1.8228,0.5923,0.2368,0.1665,
10.863039,0.1419,-0.9225,-0.1327,0.2113,0.3259,-1.8228,0.5923,0.2368,0.1665,
10.864256,0.1074,-0.9455,-0.0502,0.2113,0.3259,-1.8228,0.5923,0.2368,0.1665,
10.865321,0.0786,-0.9582,0.0217,0.2113,0.3259,-1.8228,0.5923,0.2368,0.1665,
10.896791,0.0786,-0.9582,0.0217,0.2113,0.3259,-1.8228,0.5986,0.2240,0.2113,
10.898791,0.0786,-0.9582,0.0217,0.2888,0.3234,-2.0250,0.5986,0.2240,0.2113,
10.937501,0.0786,-0.9582,0.0217,0.2888,0.3234,-2.0250,0.7286,0.3774,0.3146,
10.941115,0.0786,-0.9582,0.0217,-0.1071,0.1781,-0.6489,0.7286,0.3774,0.3146,
10.943690,0.0737,-0.9616,0.0246,-0.1071,0.1781,-0.6489,0.7286,0.3774,0.3146,
10.945395,0.0867,-0.9858,0.0099,-0.1071,0.1781,-0.6489,0.7286,0.3774,0.3146,
10.946694,0.1087,-1.0031,-0.0089,-0.1071,0.1781,-0.6489,0.7286,0.3774,0.3146,
10.948249,0.1135,-0.9948,-0.0392,-0.1071,0.1781,-0.6489,0.7286,0.3774,0.3146,
10.975643,0.1135,-0.9948,-0.0392,-0.1071,0.1781,-0.6489,0.7819,0.4711,0.3647,
10.977533,0.1135,-0.9948,-0.0392,0.2024,-0.2171,-1.0544,0.7819,0.4711,0.3647,
11.016063,0.1135,-0.9948,-0.0392,0.2024,-0.2171,-1.0544,0.6775,0.5159,0.4361,
11.017921,0.1135,-0.9948,-0.0392,0.7346,-0.4452,-1.8102,0.6775,0.5159,0.4361,
11.019370,0.1096,-0.9973,-0.0766,0.7346,-0.4452,-1.8102,0.6775,0.5159,0.4361,
11.021201,0.1416,-1.0236,-0.0883,0.7346,-0.4452,-1.8102,0.6775,0.5159,0.4361,
11.023157,0.1673,-1.0300,-0.0314,0.7346,-0.4452,-1.8102,0.6775,0.5159,0.4361,
11.024485,0.1717,-1.0376,0.0019,0.7346,-0.4452,-1.8102,0.6775,0.5159,0.4361,
11.056176,0.1717,-1.0376,0.0019,0.8947,-0.4621,-2.0304,0.6775,0.5159,0.4361,
11.058785,0.1717,-1.0376,0.0019,0.8947,-0.4621,-2.0304,0.6434,0.5606,0.3881,
11.095126,0.1717,-1.0376,0.0019,0.8947,-0.4621,-2.0304,0.5624,0.7055,0.3253,
11.099558,0.1717,-1.0376,0.0019,1.3451,-1.0089,-2.3046,0.5624,0.7055,0.3253,
11.101917,0.1763,-1.0798,-0.0670,1.3451,-1.0089,-2.3046,0.5624,0.7055,0.3253,
11.103676,0.1651,-1.0974,-0.1589,1.3451,-1.0089,-2.3046,0.5624,0.7055,0.3253,
11.104789,0.1539,-1.0869,-0.2603,1.3451,-1.0089,-2.3046,0.5624,0.7055,0.3253,
11.106199,0.2142,-1.1006,-0.2720,1.3451,-1.0089,-2.3046,0.5624,0.7055,0.3253,
11.136386,0.2142,-1.1006,-0.2720,1.3451,-1.0089,-2.3046,0.0500,0.5468,0.3423,
11.138055,0.2142,-1.1006,-0.2720,1.4835,-0.9918,-2.2901,0.0500,0.5468,0.3423,
11.174797,0.2142,-1.1006,-0.2720,1.4835,-0.9918,-2.2901,-0.5177,-0.2064,-0.1381,
11.176986,0.2142,-1.1006,-0.2720,2.1094,-1.4846,-3.5734,-0.5177,-0.2064,-0.1381,
11.178550,0.3671,-1.1947,-0.1635,2.1094,-1.4846,-3.5734,-0.5177,-0.2064,-0.1381,
11.179897,0.5421,-1.3026,-0.0629,2.1094,-1.4846,-3.5734,-0.5177,-0.2064,-0.1381,
11.181003,0.5589,-1.3300,-0.0147,2.1094,-1.4846,-3.5734,-0.5177,-0.2064,-0.1381,
11.182126,0.2281,-1.1490,-0.1027,2.1094,-1.4846,-3.5734,-0.5177,-0.2064,-0.1381,
11.213907,0.2281,-1.1490,-0.1027,2.1094,-1.4846,-3.5734,-1.2997,-0.2064,-0.8146,
11.216093,0.2281,-1.1490,-0.1027,3.6692,-2.7040,-1.3692,-1.2997,-0.2064,-0.8146,
11.253832,0.2281,-1.1490,-0.1027,3.6692,-2.7040,-1.3692,-2.3820,-0.2756,-0.5919,
11.255932,0.2281,-1.1490,-0.1027,-3.2488,-0.1998,-0.6659,-2.3820,-0.2756,-0.5919,
11.257300,-0.1584,-0.8812,-0.2378,-3.2488,-0.1998,-0.6659,-2.3820,-0.2756,-0.5919,
11.258554,-0.3174,-0.9013,-0.1552,-3.2488,-0.1998,-0.6659,-2.3820,-0.2756,-0.5919,
11.259742,-0.2593,-1.2372,0.1428,-3.2488,-0.1998,-0.6659,-2.3820,-0.2756,-0.5919,
11.260945,-0.2273,-1.5208,0.4018,-3.2488,-0.1998,-0.6659,-2.3820,-0.2756,-0.5919,
11.292920,-0.2273,-1.5208,0.4018,-3.2488,-0.1998,-0.6659,-2.3457,0.6266,-0.4087,
11.294219,-0.2273,-1.5208,0.4018,-3.3652,-0.2653,0.2030,-2.3457,0.6266,-0.4087,
11.332474,-0.2273,-1.5208,0.4018,-3.3652,-0.2653,0.2030,-1.9878,1.2956,-0.2532,
11.334552,-0.2273,-1.5208,0.4018,-4.0061,-3.9946,4.3741,-1.9878,1.2956,-0.2532,
11.335869,-0.3189,-1.4326,0.3644,-4.0061,-3.9946,4.3741,-1.9878,1.2956,-0.2532,
11.337093,-0.3543,-1.1922,0.0695,-4.0061,-3.9946,4.3741,-1.9878,1.2956,-0.2532,
11.338175,-0.2944,-1.1280,-0.1367,-4.0061,-3.9946,4.3741,-1.9878,1.2956,-0.2532,
11.339901,-0.1518,-1.1214,-0.1130,-4.0061,-3.9946,4.3741,-1.9878,1.2956,-0.2532,
11.372638,-0.1518,-1.1214,-0.1130,-4.0061,-3.9946,4.3741,-2.0176,0.4370,0.0728,
11.374476,-0.1518,-1.1214,-0.1130,-3.9448,-4.0830,5.0273,-2.0176,0.4370,0.0728,
11.412782,-0.1518,-1.1214,-0.1130,-3.9448,-4.0830,5.0273,-1.5755,0.0834,-0.0806,
11.414950,-0.1518,-1.1214,-0.1130,-2.2627,-1.3840,1.9955,-1.5755,0.0834,-0.0806,
11.416319,0.0605,-1.0268,-0.0106,-2.2627,-1.3840,1.9955,-1.5755,0.0834,-0.0806,
11.417416,0.3310,-0.9335,-0.0516,-2.2627,-1.3840,1.9955,-1.5755,0.0834,-0.0806,
11.418505,0.4546,-0.8954,-0.1042,-2.2627,-1.3840,1.9955,-1.5755,0.0834,-0.0806,
11.419656,0.3581,-0.8795,-0.0211,-2.2627,-1.3840,1.9955,-1.5755,0.0834,-0.0806,
11.452066,0.3581,-0.8795,-0.0211,-2.2627,-1.3840,1.9955,-1.1154,-0.1915,-0.6718,
11.454293,0.3581,-0.8795,-0.0211,2.4694,0.3009,2.6400,-1.1154,-0.1915,-0.6718,
11.492643,0.1096,-0.8399,0.0217,2.4694,0.3009,2.6400,-1.1154,-0.1915,-0.6718,
11.494257,-0.1046,-0.7473,0.0231,2.4694,0.3009,2.6400,-1.1154,-0.1915,-0.6718,
11.495801,-0.1571,-0.6714,0.0456,2.4694,0.3009,2.6400,-1.1154,-0.1915,-0.6718,
11.497100,-0.1571,-0.6714,0.0456,2.4694,0.3009,2.6400,-0.5731,-0.4738,-0.6164,
11.501354,-0.1571,-0.6714,0.0456,-1.8905,1.6338,3.6829,-0.5731,-0.4738,-0.6164,
11.531327,-0.1571,-0.6714,0.0456,-1.8905,1.6338,3.6829,-0.0394,-0.0636,-0.1211,
11.533147,-0.1571,-0.6714,0.0456,-1.9142,2.6031,3.3179,-0.0394,-0.0636,-0.1211,
11.571435,-0.1571,-0.6714,0.0456,-1.9142,2.6031,3.3179,0.4559,0.1047,0.2145,
11.573509,-0.1571,-0.6714,0.0456,-1.8204,2.6291,3.0974,0.4559,0.1047,0.2145,
11.574831,-0.1185,-0.6464,0.0358,-1.8204,2.6291,3.0974,0.4559,0.1047,0.2145,
11.576173,-0.0477,-0.6330,0.0182,-1.8204,2.6291,3.0974,0.4559,0.1047,0.2145,
11.577128,0.0075,-0.6653,-0.0636,-1.8204,2.6291,3.0974,0.4559,0.1047,0.2145,
11.578243,0.0840,-0.7754,-0.2368,-1.8204,2.6291,3.0974,0.4559,0.1047,0.2145,
11.579414,0.1976,-0.8512,-0.4037,-1.8204,2.6291,3.0974,0.4559,0.1047,0.2145,
11.610669,0.1976,-0.8512,-0.4037,-1.8204,2.6291,3.0974,0.5901,-0.1659,0.2251,
11.612580,0.1976,-0.8512,-0.4037,-1.6916,2.6658,2.8463,0.5901,-0.1659,0.2251,
11.650111,0.1976,-0.8512,-0.4037,-1.6916,2.6658,2.8463,0.2652,-0.2309,-0.1072,
11.652088,0.1976,-0.8512,-0.4037,0.6833,0.7922,-1.0359,0.2652,-0.2309,-0.1072,
11.653306,0.2941,-0.8951,-0.5371,0.6833,0.7922,-1.0359,0.2652,-0.2309,-0.1072,
11.654377,0.3288,-0.8978,-0.6118,0.6833,0.7922,-1.0359,0.2652,-0.2309,-0.1072,
11.655660,0.3578,-0.8873,-0.6993,0.6833,0.7922,-1.0359,0.2652,-0.2309,-0.1072,
11.656957,0.3432,-0.9093,-0.7108,0.6833,0.7922,-1.0359,0.2652,-0.2309,-0.1072,
11.689174,0.3432,-0.9093,-0.7108,0.6833,0.7922,-1.0359,-0.0810,-0.3044,-0.4076,
11.691115,0.3432,-0.9093,-0.7108,2.0210,0.1953,-3.6876,-0.0810,-0.3044,-0.4076,
11.729393,0.3229,-0.9614,-0.6504,2.0210,0.1953,-3.6876,-0.0810,-0.3044,-0.4076,
11.732036,0.3454,-0.9953,-0.6399,2.0210,0.1953,-3.6876,-0.0810,-0.3044,-0.4076,
11.733391,0.3803,-0.9997,-0.6673,2.0210,0.1953,-3.6876,-0.0810,-0.3044,-0.4076,
11.734370,0.3803,-0.9997,-0.6673,2.0210,0.1953,-3.6876,-0.3803,-0.7305,-0.5855,
11.735630,0.3803,-0.9997,-0.6673,1.9288,-0.7258,-3.2468,-0.3803,-0.7305,-0.5855,
11.769046,0.3803,-0.9997,-0.6673,1.9288,-0.7258,-3.2468,-0.4272,-0.9989,-0.8156,
11.771333,0.3803,-0.9997,-0.6673,0.5806,1.2695,-1.4102,-0.4272,-0.9989,-0.8156,
11.809918,0.3803,-0.9997,-0.6673,0.5806,1.2695,-1.4102,0.3110,-0.9947,-0.7251,
11.812735,0.3803,-0.9997,-0.6673,0.4538,1.2405,-1.4263,0.3110,-0.9947,-0.7251,
11.814201,0.2934,-0.9267,-0.5938,0.4538,1.2405,-1.4263,0.3110,-0.9947,-0.7251,
11.815130,0.1993,-0.7693,-0.5039,0.4538,1.2405,-1.4263,0.3110,-0.9947,-0.7251,
11.816341,0.1947,-0.6105,-0.3702,0.4538,1.2405,-1.4263,0.3110,-0.9947,-0.7251,
11.817338,0.2552,-0.5905,-0.2336,0.4538,1.2405,-1.4263,0.3110,-0.9947,-0.7251,
11.818613,0.3947,-1.0053,-0.3326,0.4538,1.2405,-1.4263,0.3110,-0.9947,-0.7251,
11.848634,0.3947,-1.0053,-0.3326,0.4538,1.2405,-1.4263,0.8703,-0.3822,-0.6953,
11.851505,0.3947,-1.0053,-0.3326,0.2567,1.2787,-1.6735,0.8703,-0.3822,-0.6953,
11.888504,0.3947,-1.0053,-0.3326,0.2567,1.2787,-1.6735,0.0032,0.0418,-0.3863,
11.891864,0.3947,-1.0053,-0.3326,0.8714,-2.3729,-0.0290,0.0032,0.0418,-0.3863,
11.893006,0.2728,-1.8313,-0.3968,0.8714,-2.3729,-0.0290,0.0032,0.0418,-0.3863,
11.894268,-0.1716,-2.1189,-0.7604,0.8714,-2.3729,-0.0290,0.0032,0.0418,-0.3863,
11.895731,-0.1769,-0.9992,-0.3145,0.8714,-2.3729,-0.0290,0.0032,0.0418,-0.3863,
11.896723,-0.8485,-0.3132,-0.1550,0.8714,-2.3729,-0.0290,0.0032,0.0418,-0.3863,
11.927654,-0.8485,-0.3132,-0.1550,0.8714,-2.3729,-0.0290,0.2652,0.3774,0.7024,
11.930039,-0.8485,-0.3132,-0.1550,-5.7548,-2.2591,-1.0073,0.2652,0.3774,0.7024,
11.968036,-0.8485,-0.3132,-0.1550,-5.7548,-2.2591,-1.0073,1.0152,1.7654,1.4182,
11.971221,-0.8485,-0.3132,-0.1550,-1.0616,-0.9122,4.1670,1.0152,1.7654,1.4182,
11.972740,-0.6279,-0.7620,0.0686,-1.0616,-0.9122,4.1670,1.0152,1.7654,1.4182,
11.973887,0.1732,-1.1138,0.2371,-1.0616,-0.9122,4.1670,1.0152,1.7654,1.4182,
11.975140,0.5924,-1.2110,0.2176,-1.0616,-0.9122,4.1670,1.0152,1.7654,1.4182,
11.976501,0.5616,-1.0276,0.1416,-1.0616,-0.9122,4.1670,1.0152,1.7654,1.4182,
12.007487,0.5616,-1.0276,0.1416,-1.0616,-0.9122,4.1670,1.0748,1.1454,0.5096,
12.011143,0.5616,-1.0276,0.1416,-0.9612,-0.7748,3.6459,1.0748,1.1454,0.5096,
12.047364,0.5616,-1.0276,0.1416,-0.9612,-0.7748,3.6459,0.7883,0.2900,0.0323,
12.050314,0.5616,-1.0276,0.1416,2.2828,0.6772,1.0436,0.7883,0.2900,0.0323,
12.051880,0.3642,-0.7930,-0.0973,2.2828,0.6772,1.0436,0.7883,0.2900,0.0323,
12.053259,0.2196,-0.8358,-0.2180,2.2828,0.6772,1.0436,0.7883,0.2900,0.0323,
12.054206,0.0754,-0.9496,-0.1579,2.2828,0.6772,1.0436,0.7883,0.2900,0.0323,
12.055305,0.0591,-0.9760,-0.0966,2.2828,0.6772,1.0436,0.7883,0.2900,0.0323,
12.086671,0.0591,-0.9760,-0.0966,2.2828,0.6772,1.0436,0.5656,0.1249,0.1602,
12.089768,0.0591,-0.9760,-0.0966,2.2959,0.7080,0.8124,0.5656,0.1249,0.1602,
12.126524,0.0591,-0.9760,-0.0966,-0.6812,-0.0845,0.0701,0.5656,0.1249,0.1602,
12.129559,0.0591,-0.9760,-0.0966,-0.6812,-0.0845,0.0701,0.5614,0.0045,0.3285,
12.131255,0.0586,-0.9880,-0.0819,-0.6812,-0.0845,0.0701,0.5614,0.0045,0.3285,
12.132584,0.0664,-0.9904,-0.0814,-0.6812,-0.0845,0.0701,0.5614,0.0045,0.3285,
12.133331,0.1030,-0.9814,-0.0592,-0.6812,-0.0845,0.0701,0.5614,0.0045,0.3285,
12.134096,0.1502,-0.9665,-0.0446,-0.6812,-0.0845,0.0701,0.5614,0.0045,0.3285,
12.164629,0.1502,-0.9665,-0.0446,-0.6812,-0.0845,0.0701,0.5752,-0.0296,0.3849,
12.166798,0.1502,-0.9665,-0.0446,-0.1203,-0.1200,0.3442,0.5752,-0.0296,0.3849,
12.205778,0.1834,-0.9577,-0.0035,-0.1203,-0.1200,0.3442,0.5752,-0.0296,0.3849,
12.208430,0.2135,-0.9472,0.0334,-0.1203,-0.1200,0.3442,0.5752,-0.0296,0.3849,
12.209787,0.2364,-0.9372,0.0077,-0.1203,-0.1200,0.3442,0.5752,-0.0296,0.3849,
12.211484,0.2364,-0.9372,0.0077,-0.1203,-0.1200,0.3442,0.7819,0.0226,0.2923,
12.212886,0.2364,-0.9372,0.0077,0.9968,0.2283,0.7637,0.7819,0.0226,0.2923,
12.244549,0.2364,-0.9372,0.0077,0.9968,0.2283,0.7637,0.9289,0.0418,0.1516,
12.246838,0.2364,-0.9372,0.0077,0.4323,0.1690,-0.9459,0.9289,0.0418,0.1516,
12.285904,0.2364,-0.9372,0.0077,0.4323,0.1690,-0.9459,0.7435,-0.0327,0.1729,
12.287978,0.2042,-0.9511,-0.0822,0.4323,0.1690,-0.9459,0.7435,-0.0327,0.1729,
12.289323,0.1460,-0.9648,-0.1457,0.4323,0.1690,-0.9459,0.7435,-0.0327,0.1729,
12.290476,0.0952,-0.9506,-0.1550,0.4323,0.1690,-0.9459,0.7435,-0.0327,0.1729,
12.291590,0.0508,-0.9377,-0.1293,0.4323,0.1690,-0.9459,0.7435,-0.0327,0.1729,
12.292728,0.0498,-0.9389,-0.0595,0.4323,0.1690,-0.9459,0.7435,-0.0327,0.1729,
12.294850,0.0498,-0.9389,-0.0595,0.4895,0.1776,-1.2052,0.7435,-0.0327,0.1729,
12.324008,0.0498,-0.9389,-0.0595,0.5925,0.1833,-1.4262,0.7435,-0.0327,0.1729,
12.326690,0.0498,-0.9389,-0.0595,0.5925,0.1833,-1.4262,0.6466,0.0141,0.2986,
12.361122,0.0471,-0.9508,-0.0130,0.5925,0.1833,-1.4262,0.6466,0.0141,0.2986,
12.363551,0.0437,-0.9760,-0.0006,0.5925,0.1833,-1.4262,0.6466,0.0141,0.2986,
12.364661,0.0815,-0.9914,-0.0275,0.5925,0.1833,-1.4262,0.6466,0.0141,0.2986,
12.367783,0.0815,-0.9914,-0.0275,0.5925,0.1833,-1.4262,0.7670,0.1835,0.4403,
12.369354,0.0815,-0.9914,-0.0275,-0.2077,0.3095,-1.1117,0.7670,0.1835,0.4403,
12.404055,0.0815,-0.9914,-0.0275,-0.2077,0.3095,-1.1117,0.8138,0.1835,0.4744,
12.406433,0.0815,-0.9914,-0.0275,0.2770,-0.0853,-1.0382,0.8138,0.1835,0.4744,
12.442958,0.0815,-0.9914,-0.0275,0.2770,-0.0853,-1.0382,0.6722,0.3049,0.4169,
12.445056,0.0815,-0.9914,-0.0275,0.4378,-0.0999,-1.2756,0.6722,0.3049,0.4169,
12.446611,0.1160,-0.9787,-0.0612,0.4378,-0.0999,-1.2756,0.6722,0.3049,0.4169,
12.447759,0.1336,-0.9565,-0.0888,0.4378,-0.0999,-1.2756,0.6722,0.3049,0.4169,
12.448993,0.1470,-0.9809,-0.1022,0.4378,-0.0999,-1.2756,0.6722,0.3049,0.4169,
12.450082,0.1629,-0.9833,-0.0898,0.4378,-0.0999,-1.2756,0.6722,0.3049,0.4169,
12.451071,0.1788,-0.9758,-0.0289,0.4378,-0.0999,-1.2756,0.6722,0.3049,0.4169,
12.484011,0.1788,-0.9758,-0.0289,0.4378,-0.0999,-1.2756,0.5401,0.4764,0.3082,
12.485807,0.1788,-0.9758,-0.0289,1.2149,-0.0361,-2.0749,0.5401,0.4764,0.3082,
12.525637,0.1788,-0.9758,-0.0289,1.3786,-0.5118,-1.4159,0.5401,0.4764,0.3082,
12.528513,0.1788,-0.9758,-0.0289,1.3786,-0.5118,-1.4159,0.6924,0.4871,0.3061,
12.529917,0.1580,-1.0178,0.0229,1.3786,-0.5118,-1.4159,0.6924,0.4871,0.3061,
12.531092,0.1211,-1.0652,0.0004,1.3786,-0.5118,-1.4159,0.6924,0.4871,0.3061,
12.532092,0.1282,-1.0972,-0.0856,1.3786,-0.5118,-1.4159,0.6924,0.4871,0.3061,
12.533435,0.1844,-1.1404,-0.1628,1.3786,-0.5118,-1.4159,0.6924,0.4871,0.3061,
12.561680,0.1844,-1.1404,-0.1628,1.3786,-0.5118,-1.4159,0.5092,0.2495,0.4233,
12.564427,0.1844,-1.1404,-0.1628,1.5262,-0.5324,-1.5806,0.5092,0.2495,0.4233,
12.601889,0.1844,-1.1404,-0.1628,1.5262,-0.5324,-1.5806,-0.0661,-0.1904,0.0142,
12.604292,0.1844,-1.1404,-0.1628,2.0351,-1.8231,-2.8392,-0.0661,-0.1904,0.0142,
12.606033,0.3136,-1.2269,-0.1648,2.0351,-1.8231,-2.8392,-0.0661,-0.1904,0.0142,
12.607206,0.4573,-1.3693,-0.1218,2.0351,-1.8231,-2.8392,-0.0661,-0.1904,0.0142,
12.608409,0.4524,-1.4424,-0.0873,2.0351,-1.8231,-2.8392,-0.0661,-0.1904,0.0142,
12.609484,0.2469,-1.3097,-0.1933,2.0351,-1.8231,-2.8392,-0.0661,-0.1904,0.0142,
12.641261,0.2469,-1.3097,-0.1933,2.0351,-1.8231,-2.8392,-0.9023,-0.2820,-0.3640,
12.643876,0.2469,-1.3097,-0.1933,3.5553,-3.8578,-2.4219,-0.9023,-0.2820,-0.3640,
12.681040,0.2469,-1.3097,-0.1933,-0.2681,-0.5849,-2.4414,-0.9023,-0.2820,-0.3640,
12.684261,0.2469,-1.3097,-0.1933,-0.2681,-0.5849,-2.4414,-2.1519,-0.6836,-0.3075,
12.685421,0.0442,-1.1133,-0.3013,-0.2681,-0.5849,-2.4414,-2.1519,-0.6836,-0.3075,
12.686884,-0.0115,-1.0219,-0.2747,-0.2681,-0.5849,-2.4414,-2.1519,-0.6836,-0.3075,
12.688119,-0.0062,-1.0043,-0.0990,-0.2681,-0.5849,-2.4414,-2.1519,-0.6836,-0.3075,
12.689288,-0.0738,-1.0188,0.1433,-0.2681,-0.5849,-2.4414,-2.1519,-0.6836,-0.3075,
12.720216,-0.0738,-1.0188,0.1433,-0.2681,-0.5849,-2.4414,-2.3894,-0.6911,-0.4034,
12.722814,-0.0738,-1.0188,0.1433,-0.4096,-0.6030,-1.4897,-2.3894,-0.6911,-0.4034,
12.760066,-0.0738,-1.0188,0.1433,-0.4096,-0.6030,-1.4897,-1.9590,0.2549,-0.2905,
12.762689,-0.0738,-1.0188,0.1433,-2.2890,-0.9013,3.7929,-1.9590,0.2549,-0.2905,
12.763912,-0.1926,-1.0820,0.3004,-2.2890,-0.9013,3.7929,-1.9590,0.2549,-0.2905,
12.765048,-0.2563,-1.1070,0.2914,-2.2890,-0.9013,3.7929,-1.9590,0.2549,-0.2905,
12.766821,-0.2263,-1.0945,0.1377,-2.2890,-0.9013,3.7929,-1.9590,0.2549,-0.2905,
12.768083,-0.1273,-1.1280,-0.0228,-2.2890,-0.9013,3.7929,-1.9590,0.2549,-0.2905,
12.799692,-0.1273,-1.1280,-0.0228,-2.2890,-0.9013,3.7929,-1.8120,-0.0573,-0.0934,
12.801883,-0.1273,-1.1280,-0.0228,-2.2809,-1.0109,4.4029,-1.8120,-0.0573,-0.0934,
12.840181,-0.1273,-1.1280,-0.0228,-2.2809,-1.0109,4.4029,-1.6608,-0.5494,-0.1882,
12.842592,-0.1273,-1.1280,-0.0228,-1.7031,-1.6512,2.6786,-1.6608,-0.5494,-0.1882,
12.844072,0.0046,-1.1419,-0.0868,-1.7031,-1.6512,2.6786,-1.6608,-0.5494,-0.1882,
12.845333,0.1294,-1.0522,-0.0988,-1.7031,-1.6512,2.6786,-1.6608,-0.5494,-0.1882,
12.847291,0.1719,-0.9570,-0.1154,-1.7031,-1.6512,2.6786,-1.6608,-0.5494,-0.1882,
12.848506,0.1590,-0.9306,-0.1110,-1.7031,-1.6512,2.6786,-1.6608,-0.5494,-0.1882,
12.878893,0.1590,-0.9306,-0.1110,-1.7031,-1.6512,2.6786,-1.4030,-0.6208,-0.4854,
12.881387,0.1590,-0.9306,-0.1110,0.8196,-0.4274,2.0202,-1.4030,-0.6208,-0.4854,
12.919082,0.1091,-0.9464,-0.0399,0.8196,-0.4274,2.0202,-1.4030,-0.6208,-0.4854,
12.922573,0.0258,-0.9543,-0.0011,0.8196,-0.4274,2.0202,-1.4030,-0.6208,-0.4854,
12.923760,-0.0567,-0.9184,-0.0460,0.8196,-0.4274,2.0202,-1.4030,-0.6208,-0.4854,
12.925243,-0.0567,-0.9184,-0.0460,0.8196,-0.4274,2.0202,-0.8565,-0.7561,-0.6292,
12.926645,-0.0567,-0.9184,-0.0460,-0.5483,-0.1594,3.0780,-0.8565,-0.7561,-0.6292,
12.958272,-0.0567,-0.9184,-0.0460,-0.5483,-0.1594,3.0780,-0.3249,-0.7614,-0.4897,
12.960828,-0.0567,-0.9184,-0.0460,-1.6259,1.4051,2.8913,-0.3249,-0.7614,-0.4897,
12.997792,-0.0567,-0.9184,-0.0460,-1.6259,1.4051,2.8913,0.0373,-0.5292,-0.1125,
13.000013,-0.0567,-0.9184,-0.0460,-1.5666,1.3830,2.8474,0.0373,-0.5292,-0.1125,
13.001405,-0.0594,-0.8416,-0.0507,-1.5666,1.3830,2.8474,0.0373,-0.5292,-0.1125,
13.002755,-0.0702,-0.7693,-0.0636,-1.5666,1.3830,2.8474,0.0373,-0.5292,-0.1125,
13.004644,-0.1088,-0.7034,-0.0582,-1.5666,1.3830,2.8474,0.0373,-0.5292,-0.1125,
13.005871,-0.0655,-0.6679,-0.0697,-1.5666,1.3830,2.8474,0.0373,-0.5292,-0.1125,
13.007072,0.0004,-0.7156,-0.2024,-1.5666,1.3830,2.8474,0.0373,-0.5292,-0.1125,
13.038103,0.0004,-0.7156,-0.2024,-1.5666,1.3830,2.8474,0.3696,-0.5419,0.1463,
13.041713,0.0004,-0.7156,-0.2024,-1.4183,1.4124,2.6863,0.3696,-0.5419,0.1463,
13.077950,0.0004,-0.7156,-0.2024,-1.4183,1.4124,2.6863,0.2833,-0.6538,0.1048,
13.080798,0.0004,-0.7156,-0.2024,-0.4367,1.8606,1.0784,0.2833,-0.6538,0.1048,
13.082122,0.0881,-0.7957,-0.3607,-0.4367,1.8606,1.0784,0.2833,-0.6538,0.1048,
13.083477,0.1380,-0.8641,-0.4784,-0.4367,1.8606,1.0784,0.2833,-0.6538,0.1048,
13.084744,0.1600,-0.9022,-0.5613,-0.4367,1.8606,1.0784,0.2833,-0.6538,0.1048,
13.085898,0.1868,-0.8883,-0.5891,-0.4367,1.8606,1.0784,0.2833,-0.6538,0.1048,
13.117099,0.1868,-0.8883,-0.5891,-0.4367,1.8606,1.0784,-0.0000,-0.4589,-0.1317,
13.119792,0.1868,-0.8883,-0.5891,1.0639,0.2999,-2.1301,-0.0000,-0.4589,-0.1317,
13.156465,0.1947,-0.8387,-0.5505,1.0639,0.2999,-2.1301,-0.0000,-0.4589,-0.1317,
13.158640,0.1658,-0.8543,-0.5349,1.0639,0.2999,-2.1301,-0.0000,-0.4589,-0.1317,
13.160435,0.1717,-0.9411,-0.5825,1.0639,0.2999,-2.1301,-0.0000,-0.4589,-0.1317,
13.161605,0.1717,-0.9411,-0.5825,1.0639,0.2999,-2.1301,-0.0107,-0.2916,-0.4012,
13.162651,0.1717,-0.9411,-0.5825,1.0946,0.3506,-2.2101,-0.0107,-0.2916,-0.4012,
13.196063,0.1717,-0.9411,-0.5825,1.0946,0.3506,-2.2101,-0.2578,-0.4461,-0.6420,
13.198433,0.1717,-0.9411,-0.5825,1.0049,-0.9222,-2.8784,-0.2578,-0.4461,-0.6420,
13.235983,0.1717,-0.9411,-0.5825,1.0049,-0.9222,-2.8784,-0.4325,-0.5505,-0.8636,
13.238519,0.1717,-0.9411,-0.5825,0.7640,-0.9972,-2.6606,-0.4325,-0.5505,-0.8636,
13.239888,0.2069,-1.0078,-0.6248,0.7640,-0.9972,-2.6606,-0.4325,-0.5505,-0.8636,
13.241047,0.2061,-1.0224,-0.6543,0.7640,-0.9972,-2.6606,-0.4325,-0.5505,-0.8636,
13.242681,0.1487,-0.9824,-0.6402,0.7640,-0.9972,-2.6606,-0.4325,-0.5505,-0.8636,
13.243673,0.1145,-0.8646,-0.5422,0.7640,-0.9972,-2.6606,-0.4325,-0.5505,-0.8636,
13.244813,0.1231,-0.7390,-0.4885,0.7640,-0.9972,-2.6606,-0.4325,-0.5505,-0.8636,
13.274343,0.1231,-0.7390,-0.4885,0.7640,-0.9972,-2.6606,0.1225,-0.7369,-0.8945,
13.276076,0.1231,-0.7390,-0.4885,0.5475,-1.0044,-2.6245,0.1225,-0.7369,-0.8945,
13.306331,0.1218,-0.6877,-0.3490,0.5475,-1.0044,-2.6245,0.1225,-0.7369,-0.8945,
13.309012,0.1385,-0.8595,-0.3226,0.5475,-1.0044,-2.6245,0.1225,-0.7369,-0.8945,
13.310017,0.3630,-1.4077,-0.7369,0.5475,-1.0044,-2.6245,0.1225,-0.7369,-0.8945,
13.320476,0.3630,-1.4077,-0.7369,0.5475,-1.0044,-2.6245,0.8256,-0.7071,-0.7602,
13.323054,0.3630,-1.4077,-0.7369,-0.2764,1.4016,-1.0946,0.8256,-0.7071,-0.7602,
13.354932,0.3630,-1.4077,-0.7369,-0.2764,1.4016,-1.0946,0.3259,0.7172,-0.7091,
13.357469,0.3630,-1.4077,-0.7369,1.0824,-4.6624,-1.2829,0.3259,0.7172,-0.7091,
13.377140,0.3847,-1.9041,-0.3348,1.0824,-4.6624,-1.2829,0.3259,0.7172,-0.7091,
13.380344,-0.5307,-1.3649,-0.3841,1.0824,-4.6624,-1.2829,0.3259,0.7172,-0.7091,
13.381644,-0.8757,-0.4994,-0.1591,1.0824,-4.6624,-1.2829,0.3259,0.7172,-0.7091,
13.383157,-0.7953,-0.7190,-0.3189,1.0824,-4.6624,-1.2829,0.3259,0.7172,-0.7091,
13.395112,-0.7953,-0.7190,-0.3189,1.0824,-4.6624,-1.2829,0.2077,0.4424,0.4840,
13.397798,-0.7953,-0.7190,-0.3189,-8.7400,0.5757,0.3440,0.2077,0.4424,0.4840,
13.433182,-0.7953,-0.7190,-0.3189,-8.7400,0.5757,0.3440,0.7979,1.0560,1.5961,
13.435428,-0.7953,-0.7190,-0.3189,1.7926,-1.4551,4.5207,0.7979,1.0560,1.5961,
13.473604,-0.1207,-1.0254,0.1152,1.7926,-1.4551,4.5207,0.7979,1.0560,1.5961,
13.476499,0.4182,-1.1778,0.2498,1.7926,-1.4551,4.5207,0.7979,1.0560,1.5961,
13.477649,0.5965,-1.0640,0.1800,1.7926,-1.4551,4.5207,0.7979,1.0560,1.5961,
13.478756,0.5965,-1.0640,0.1800,1.7926,-1.4551,4.5207,0.9566,1.1721,0.6704,
13.480678,0.5965,-1.0640,0.1800,1.8888,-1.3087,4.0519,0.9566,1.1721,0.6704,
13.513018,0.5965,-1.0640,0.1800,1.8888,-1.3087,4.0519,1.0077,0.2964,-0.1093,
13.516051,0.5965,-1.0640,0.1800,1.5197,0.9771,1.4749,1.0077,0.2964,-0.1093,
13.553209,0.4544,-0.7754,0.0808,1.5197,0.9771,1.4749,1.0077,0.2964,-0.1093,
13.555952,0.2611,-0.7979,-0.0639,1.5197,0.9771,1.4749,1.0077,0.2964,-0.1093,
13.557341,0.0938,-1.0129,-0.1345,1.5197,0.9771,1.4749,1.0077,0.2964,-0.1093,
13.558560,0.0407,-1.0461,-0.1623,1.5197,0.9771,1.4749,1.0077,0.2964,-0.1093,
13.559872,0.0200,-0.9814,-0.1315,1.5197,0.9771,1.4749,1.0077,0.2964,-0.1093,
13.560946,0.0056,-0.9728,-0.1379,1.5197,0.9771,1.4749,1.0077,0.2964,-0.1093,
13.562243,0.0056,-0.9728,-0.1379,1.5197,0.9771,1.4749,0.9033,0.3721,-0.0731,
13.563287,0.0056,-0.9728,-0.1379,-0.9433,-0.3135,0.0917,0.9033,0.3721,-0.0731,
13.591973,0.0056,-0.9728,-0.1379,-0.9433,-0.3135,0.0917,0.7883,0.5169,0.0920,
13.594450,0.0056,-0.9728,-0.1379,-0.9203,-0.2629,-0.2254,0.7883,0.5169,0.0920,
13.631902,0.0056,-0.9728,-0.1379,-0.9203,-0.2629,-0.2254,0.5944,0.4509,0.1761,
13.634345,0.0056,-0.9728,-0.1379,-0.0410,0.1716,-0.0882,0.5944,0.4509,0.1761,
13.636265,0.0566,-0.9919,-0.1687,-0.0410,0.1716,-0.0882,0.5944,0.4509,0.1761,
13.637570,0.1175,-0.9565,-0.1242,-0.0410,0.1716,-0.0882,0.5944,0.4509,0.1761,
13.638390,0.1465,-0.9281,-0.0223,-0.0410,0.1716,-0.0882,0.5944,0.4509,0.1761,
13.639570,0.1446,-0.9469,0.0532,-0.0410,0.1716,-0.0882,0.5944,0.4509,0.1761,
13.672082,0.1446,-0.9469,0.0532,-0.0410,0.1716,-0.0882,0.7723,0.4892,0.1271,
13.674782,0.1446,-0.9469,0.0532,-0.0079,0.1977,-0.3956,0.7723,0.4892,0.1271,
13.711723,0.1446,-0.9469,0.0532,-0.0079,0.1977,-0.3956,1.0152,0.5414,0.1314,
13.714641,0.1446,-0.9469,0.0532,0.2802,0.1759,0.4421,1.0152,0.5414,0.1314,
13.716002,0.1321,-0.9780,0.0461,0.2802,0.1759,0.4421,1.0152,0.5414,0.1314,
13.717362,0.1211,-0.9643,-0.0306,0.2802,0.1759,0.4421,1.0152,0.5414,0.1314,
13.718660,0.0982,-0.9276,-0.1213,0.2802,0.1759,0.4421,1.0152,0.5414,0.1314,
13.720847,0.0793,-0.9411,-0.1608,0.2802,0.1759,0.4421,1.0152,0.5414,0.1314,
13.750790,0.0793,-0.9411,-0.1608,0.2802,0.1759,0.4421,0.8383,0.4253,0.1985,
13.753548,0.0793,-0.9411,-0.1608,0.3492,0.1822,0.1040,0.8383,0.4253,0.1985,
13.783427,0.0832,-0.9665,-0.1093,0.3492,0.1822,0.1040,0.8383,0.4253,0.1985,
13.785974,0.0962,-0.9504,-0.0614,0.3492,0.1822,0.1040,0.8383,0.4253,0.1985,
13.787630,0.1047,-0.9447,-0.0245,0.3492,0.1822,0.1040,0.8383,0.4253,0.1985,
13.789640,0.1047,-0.9447,-0.0245,0.3492,0.1822,0.1040,0.6892,0.4626,0.2773,
13.791559,0.1047,-0.9447,-0.0245,0.0118,0.3553,-1.6499,0.6892,0.4626,0.2773,
13.829961,0.1047,-0.9447,-0.0245,0.0118,0.3553,-1.6499,0.7116,0.4850,0.3210,
13.832491,0.1047,-0.9447,-0.0245,0.3323,0.2608,-0.9328,0.7116,0.4850,0.3210,
13.869242,0.1047,-0.9447,-0.0245,0.3323,0.2608,-0.9328,0.7435,0.5734,0.3082,
13.871092,0.1047,-0.9447,-0.0245,0.4597,0.2413,-1.2097,0.7435,0.5734,0.3082,
13.874368,0.1192,-0.9662,-0.0033,0.4597,0.2413,-1.2097,0.7435,0.5734,0.3082,
13.875817,0.1304,-0.9721,-0.0040,0.4597,0.2413,-1.2097,0.7435,0.5734,0.3082,
13.877070,0.1265,-0.9870,-0.0680,0.4597,0.2413,-1.2097,0.7435,0.5734,0.3082,
13.878272,0.1526,-0.9792,-0.1371,0.4597,0.2413,-1.2097,0.7435,0.5734,0.3082,
13.879743,0.1741,-0.9611,-0.0839,0.4597,0.2413,-1.2097,0.7435,0.5734,0.3082,
13.909486,0.1741,-0.9611,-0.0839,0.4597,0.2413,-1.2097,0.5603,0.6874,0.2912,
13.911733,0.1741,-0.9611,-0.0839,0.8759,-0.0266,-1.7979,0.5603,0.6874,0.2912,
13.948339,0.1741,-0.9611,-0.0839,0.8759,-0.0266,-1.7979,0.4964,0.6831,0.2880,
13.950591,0.1741,-0.9611,-0.0839,1.0866,-0.0099,-1.4674,0.4964,0.6831,0.2880,
13.951970,0.1495,-0.9648,0.0043,1.0866,-0.0099,-1.4674,0.4964,0.6831,0.2880,
13.953177,0.1126,-1.0014,0.0248,1.0866,-0.0099,-1.4674,0.4964,0.6831,0.2880,
13.954394,0.0840,-1.0307,0.0195,1.0866,-0.0099,-1.4674,0.4964,0.6831,0.2880,
13.955488,0.0705,-1.0517,-0.0187,1.0866,-0.0099,-1.4674,0.4964,0.6831,0.2880,
13.987859,0.0705,-1.0517,-0.0187,1.0866,-0.0099,-1.4674,0.5337,0.6139,0.3434,
13.990552,0.0705,-1.0517,-0.0187,1.2293,-0.0353,-1.6475,0.5337,0.6139,0.3434,
14.028672,0.0705,-1.0517,-0.0187,1.2293,-0.0353,-1.6475,0.4804,0.6405,0.4787,
14.030788,0.0705,-1.0517,-0.0187,0.7903,-0.8361,-1.8842,0.4804,0.6405,0.4787,
14.032103,0.0840,-1.0857,-0.0817,0.7903,-0.8361,-1.8842,0.4804,0.6405,0.4787,
14.033596,0.1407,-1.1263,-0.1352,0.7903,-0.8361,-1.8842,0.4804,0.6405,0.4787,
14.034552,0.2115,-1.1414,-0.1772,0.7903,-0.8361,-1.8842,0.4804,0.6405,0.4787,
14.035975,0.3525,-1.2120,-0.2053,0.7903,-0.8361,-1.8842,0.4804,0.6405,0.4787,
14.067390,0.3525,-1.2120,-0.2053,0.7903,-0.8361,-1.8842,0.0777,0.3763,0.3349,
14.069403,0.3525,-1.2120,-0.2053,2.4226,-1.8288,-3.2836,0.0777,0.3763,0.3349,
14.107646,0.3525,-1.2120,-0.2053,2.4226,-1.8288,-3.2836,-0.5390,0.0152,-0.4119,
14.110243,0.3525,-1.2120,-0.2053,4.3551,-3.6325,-2.2831,-0.5390,0.0152,-0.4119,
14.111541,0.5020,-1.3119,-0.1242,4.3551,-3.6325,-2.2831,-0.5390,0.0152,-0.4119,
14.112953,0.5223,-1.4013,-0.0416,4.3551,-3.6325,-2.2831,-0.5390,0.0152,-0.4119,
14.114679,0.3420,-1.3474,-0.1200,4.3551,-3.6325,-2.2831,-0.5390,0.0152,-0.4119,
14.115785,0.0080,-1.0945,-0.3287,4.3551,-3.6325,-2.2831,-0.5390,0.0152,-0.4119,
14.147079,0.0080,-1.0945,-0.3287,4.3551,-3.6325,-2.2831,-1.6885,-0.1222,-0.6516,
14.149580,0.0080,-1.0945,-0.3287,4.0324,-3.5104,-1.6081,-1.6885,-0.1222,-0.6516,
14.186393,0.0080,-1.0945,-0.3287,4.0324,-3.5104,-1.6081,-2.7729,-0.5963,-0.3288,
14.189081,0.0080,-1.0945,-0.3287,-1.9082,0.0592,-2.6810,-2.7729,-0.5963,-0.3288,
14.190427,-0.2243,-0.9025,-0.4430,-1.9082,0.0592,-2.6810,-2.7729,-0.5963,-0.3288,
14.191672,-0.2063,-0.9731,-0.1889,-1.9082,0.0592,-2.6810,-2.7729,-0.5963,-0.3288,
14.193140,-0.0927,-1.1805,0.2718,-1.9082,0.0592,-2.6810,-2.7729,-0.5963,-0.3288,
14.194265,-0.1022,-1.2948,0.4714,-1.9082,0.0592,-2.6810,-2.7729,-0.5963,-0.3288,
14.226304,-0.1022,-1.2948,0.4714,-1.9082,0.0592,-2.6810,-2.2754,0.5286,-0.3821,
14.228356,-0.1022,-1.2948,0.4714,-2.0431,-0.0300,-1.7869,-2.2754,0.5286,-0.3821,
14.265371,-0.1022,-1.2948,0.4714,-2.0431,-0.0300,-1.7869,-1.9122,1.0304,-0.2564,
14.268766,-0.1022,-1.2948,0.4714,-2.1522,-2.5008,5.4026,-1.9122,1.0304,-0.2564,
14.270343,-0.2207,-1.2223,0.3116,-2.1522,-2.5008,5.4026,-1.9122,1.0304,-0.2564,
14.271821,-0.2705,-1.1470,0.0119,-2.1522,-2.5008,5.4026,-1.9122,1.0304,-0.2564,
14.273180,-0.2128,-1.1649,-0.1645,-2.1522,-2.5008,5.4026,-1.9122,1.0304,-0.2564,
14.274464,-0.0240,-1.1048,-0.0973,-2.1522,-2.5008,5.4026,-1.9122,1.0304,-0.2564,
14.305959,-0.0240,-1.1048,-0.0973,-2.1522,-2.5008,5.4026,-1.9495,0.0493,-0.0114,
14.308051,-0.0240,-1.1048,-0.0973,-2.4179,-1.7332,1.8404,-1.9495,0.0493,-0.0114,
14.346193,-0.0240,-1.1048,-0.0973,-2.4179,-1.7332,1.8404,-1.4424,-0.3385,-0.2265,
14.348407,-0.0240,-1.1048,-0.0973,1.2296,0.2014,3.0565,-1.4424,-0.3385,-0.2265,
14.349860,0.1543,-0.9887,-0.0045,1.2296,0.2014,3.0565,-1.4424,-0.3385,-0.2265,
14.350993,0.2535,-0.9061,0.0136,1.2296,0.2014,3.0565,-1.4424,-0.3385,-0.2265,
14.352472,0.2210,-0.8751,-0.0377,1.2296,0.2014,3.0565,-1.4424,-0.3385,-0.2265,
14.353711,0.0879,-0.8514,-0.0011,1.2296,0.2014,3.0565,-1.4424,-0.3385,-0.2265,
14.384914,0.0879,-0.8514,-0.0011,1.2296,0.2014,3.0565,-0.8224,-0.5334,-0.5568,
14.387558,0.0879,-0.8514,-0.0011,1.0794,0.0727,3.3183,-0.8224,-0.5334,-0.5568,
14.424440,0.0879,-0.8514,-0.0011,1.0794,0.0727,3.3183,-0.2482,-0.7305,-0.5152,
14.427281,0.0879,-0.8514,-0.0011,-1.1766,1.0471,3.3896,-0.2482,-0.7305,-0.5152,
14.428616,-0.0294,-0.8006,-0.0052,-1.1766,1.0471,3.3896,-0.2482,-0.7305,-0.5152,
14.430051,-0.1005,-0.7974,-0.0194,-1.1766,1.0471,3.3896,-0.2482,-0.7305,-0.5152,
14.431047,-0.0843,-0.7813,-0.0651,-1.1766,1.0471,3.3896,-0.2482,-0.7305,-0.5152,
14.432628,-0.0128,-0.7483,-0.0692,-1.1766,1.0471,3.3896,-0.2482,-0.7305,-0.5152,
14.464327,-0.0128,-0.7483,-0.0692,-1.1766,1.0471,3.3896,0.1470,-0.4663,-0.2755,
14.466971,-0.0128,-0.7483,-0.0692,-1.1911,1.0381,3.3006,0.1470,-0.4663,-0.2755,
14.503884,-0.0128,-0.7483,-0.0692,-1.1911,1.0381,3.3006,0.3909,-0.2405,-0.1488,
14.506801,-0.0128,-0.7483,-0.0692,-1.2803,1.5895,2.4104,0.3909,-0.2405,-0.1488,
14.508114,0.0278,-0.7566,-0.1115,-1.2803,1.5895,2.4104,0.3909,-0.2405,-0.1488,
14.509456,0.0346,-0.7874,-0.2161,-1.2803,1.5895,2.4104,0.3909,-0.2405,-0.1488,
14.510694,0.0723,-0.8314,-0.3519,-1.2803,1.5895,2.4104,0.3909,-0.2405,-0.1488,
14.511750,0.1170,-0.8751,-0.4907,-1.2803,1.5895,2.4104,0.3909,-0.2405,-0.1488,
14.543047,0.1170,-0.8751,-0.4907,-1.2803,1.5895,2.4104,0.2162,-0.3651,-0.1093,
14.545259,0.1170,-0.8751,-0.4907,-0.3108,0.9182,-0.3022,0.2162,-0.3651,-0.1093,
14.583689,0.1455,-0.8888,-0.5515,-0.3108,0.9182,-0.3022,0.2162,-0.3651,-0.1093,
14.586245,0.2235,-0.8504,-0.5381,-0.3108,0.9182,-0.3022,0.2162,-0.3651,-0.1093,
14.587423,0.3007,-0.7847,-0.4970,-0.3108,0.9182,-0.3022,0.2162,-0.3651,-0.1093,
14.588662,0.3007,-0.7847,-0.4970,-0.3108,0.9182,-0.3022,-0.1087,-0.4748,-0.2457,
14.589834,0.3007,-0.7847,-0.4970,1.0987,0.7828,-1.9352,-0.1087,-0.4748,-0.2457,
14.622138,0.3007,-0.7847,-0.4970,1.0987,0.7828,-1.9352,0.0106,-0.5377,-0.5770,
14.624071,0.3007,-0.7847,-0.4970,2.6647,0.1409,-1.9791,0.0106,-0.5377,-0.5770,
14.662140,0.3007,-0.7847,-0.4970,2.6647,0.1409,-1.9791,-0.0618,-0.8157,-0.9403,
14.664272,0.3007,-0.7847,-0.4970,2.3975,0.0798,-1.8805,-0.0618,-0.8157,-0.9403,
14.665217,0.3583,-0.8023,-0.5019,2.3975,0.0798,-1.8805,-0.0618,-0.8157,-0.9403,
14.666192,0.4204,-0.9144,-0.5447,2.3975,0.0798,-1.8805,-0.0618,-0.8157,-0.9403,
14.667059,0.4260,-0.9953,-0.5701,2.3975,0.0798,-1.8805,-0.0618,-0.8157,-0.9403,
14.667802,0.3417,-0.9931,-0.6074,2.3975,0.0798,-1.8805,-0.0618,-0.8157,-0.9403,
14.668562,0.2723,-0.9411,-0.6262,2.3975,0.0798,-1.8805,-0.0618,-0.8157,-0.9403,
14.702838,0.2723,-0.9411,-0.6262,2.3975,0.0798,-1.8805,-0.2514,-0.9233,-1.1640,
14.704504,0.2723,-0.9411,-0.6262,2.0794,-0.0318,-1.7019,-0.2514,-0.9233,-1.1640,
14.740799,0.2723,-0.9411,-0.6262,2.0794,-0.0318,-1.7019,0.3281,-0.9212,-0.9967,
14.742424,0.2723,-0.9411,-0.6262,0.6711,-0.2629,-2.2670,0.3281,-0.9212,-0.9967,
14.744138,0.2296,-0.8404,-0.5547,0.6711,-0.2629,-2.2670,0.3281,-0.9212,-0.9967,
14.744755,0.1815,-0.6990,-0.4762,0.6711,-0.2629,-2.2670,0.3281,-0.9212,-0.9967,
14.745376,0.1680,-0.6425,-0.3150,0.6711,-0.2629,-2.2670,0.3281,-0.9212,-0.9967,
14.746114,0.2191,-0.8148,-0.2847,0.6711,-0.2629,-2.2670,0.3281,-0.9212,-0.9967,
14.779798,0.2191,-0.8148,-0.2847,0.6711,-0.2629,-2.2670,1.1888,-0.8051,-0.6494,
14.781170,0.2191,-0.8148,-0.2847,-0.3397,1.8311,-0.2832,1.1888,-0.8051,-0.6494,
14.820982,0.2191,-0.8148,-0.2847,-0.3397,1.8311,-0.2832,0.6498,0.8386,-0.3767,
14.823310,0.2191,-0.8148,-0.2847,-1.2417,-7.2116,-1.4242,0.6498,0.8386,-0.3767,
14.824790,0.3725,-1.3171,-0.2959,-1.2417,-7.2116,-1.4242,0.6498,0.8386,-0.3767,
14.826263,0.3007,-1.9447,-0.2547,-1.2417,-7.2116,-1.4242,0.6498,0.8386,-0.3767,
14.827416,-0.3157,-1.7141,-0.7880,-1.2417,-7.2116,-1.4242,0.6498,0.8386,-0.3767,
14.828673,-0.5881,-0.7136,-0.2617,-1.2417,-7.2116,-1.4242,0.6498,0.8386,-0.3767,
14.860251,-0.5881,-0.7136,-0.2617,-1.2417,-7.2116,-1.4242,0.0010,0.5840,0.3967,
14.862775,-0.5881,-0.7136,-0.2617,-1.1469,-7.0543,-1.4553,0.0010,0.5840,0.3967,
14.900163,-0.5881,-0.7136,-0.2617,-1.1469,-7.0543,-1.4553,0.5102,0.8748,1.3426,
14.902669,-0.5881,-0.7136,-0.2617,-6.9894,2.1108,1.6012,0.5102,0.8748,1.3426,
14.904061,-0.7112,-0.6438,-0.2427,-6.9894,2.1108,1.6012,0.5102,0.8748,1.3426,
14.905332,-0.2896,-0.8536,0.1900,-6.9894,2.1108,1.6012,0.5102,0.8748,1.3426,
14.906654,0.2039,-1.0552,0.2398,-6.9894,2.1108,1.6012,0.5102,0.8748,1.3426,
14.907797,0.3952,-1.0881,0.2523,-6.9894,2.1108,1.6012,0.5102,0.8748,1.3426,
14.939274,0.3952,-1.0881,0.2523,-6.9894,2.1108,1.6012,0.6988,1.2402,1.1668,
14.941841,0.3952,-1.0881,0.2523,-6.5641,2.2170,1.2397,0.6988,1.2402,1.1668,
14.978731,0.3952,-1.0881,0.2523,-6.5641,2.2170,1.2397,0.7552,0.4626,0.4829,
14.981096,0.3952,-1.0881,0.2523,2.0597,-0.2666,4.0139,0.7552,0.4626,0.4829,
14.982522,0.4192,-0.8563,0.1577,2.0597,-0.2666,4.0139,0.7552,0.4626,0.4829,
14.985143,0.3315,-0.7991,-0.0768,2.0597,-0.2666,4.0139,0.7552,0.4626,0.4829,
14.986208,0.2269,-1.0271,-0.1403,2.0597,-0.2666,4.0139,0.7552,0.4626,0.4829,
14.987439,0.1900,-1.1065,-0.0538,2.0597,-0.2666,4.0139,0.7552,0.4626,0.4829,
15.017572,0.1900,-1.1065,-0.0538,2.0597,-0.2666,4.0139,0.7329,0.2847,0.1591,
15.019671,0.1900,-1.1065,-0.0538,1.1980,0.0104,0.7022,0.7329,0.2847,0.1591,
15.057525,0.1861,-0.9843,-0.0174,1.1980,0.0104,0.7022,0.7329,0.2847,0.1591,
15.059513,0.1109,-0.9467,-0.1401,1.1980,0.0104,0.7022,0.7329,0.2847,0.1591,
15.060702,0.0468,-0.9660,-0.1982,1.1980,0.0104,0.7022,0.7329,0.2847,0.1591,
15.061826,0.0468,-0.9660,-0.1982,1.1980,0.0104,0.7022,0.8011,0.2826,0.0728,
15.063000,0.0468,-0.9660,-0.1982,-0.1100,0.1729,0.1043,0.8011,0.2826,0.0728,
15.097355,0.0468,-0.9660,-0.1982,-0.1100,0.1729,0.1043,0.6487,-0.0349,0.2965,
15.099615,0.0468,-0.9660,-0.1982,-0.1507,0.6143,0.9767,0.6487,-0.0349,0.2965,
15.136657,0.0468,-0.9660,-0.1982,-0.1507,0.6143,0.9767,0.8777,-0.0839,0.3903,
15.138470,0.0468,-0.9660,-0.1982,0.0020,0.6485,0.6322,0.8777,-0.0839,0.3903,
15.139901,0.0639,-0.9506,-0.1161,0.0020,0.6485,0.6322,0.8777,-0.0839,0.3903,
15.140864,0.1023,-0.9120,0.0209,0.0020,0.6485,0.6322,0.8777,-0.0839,0.3903,
15.141961,0.1292,-0.9093,0.0871,0.0020,0.6485,0.6322,0.8777,-0.0839,0.3903,
15.143036,0.1328,-0.9362,0.0385,0.0020,0.6485,0.6322,0.8777,-0.0839,0.3903,
15.144250,0.1326,-0.9548,-0.1161,0.0020,0.6485,0.6322,0.8777,-0.0839,0.3903,
15.176321,0.1326,-0.9548,-0.1161,0.0020,0.6485,0.6322,1.0897,-0.0999,0.3881,
15.178156,0.1326,-0.9548,-0.1161,0.1507,0.6702,0.2124,1.0897,-0.0999,0.3881,
15.215766,0.1326,-0.9548,-0.1161,0.1507,0.6702,0.2124,0.7393,-0.2053,0.3583,
15.217180,0.1326,-0.9548,-0.1161,0.5978,0.4824,-1.0137,0.7393,-0.2053,0.3583,
15.218620,0.1275,-0.9401,-0.2256,0.5978,0.4824,-1.0137,0.7393,-0.2053,0.3583,
15.219842,0.1470,-0.9494,-0.2420,0.5978,0.4824,-1.0137,0.7393,-0.2053,0.3583,
15.220935,0.1734,-0.9660,-0.1821,0.5978,0.4824,-1.0137,0.7393,-0.2053,0.3583,
15.221996,0.1790,-0.9574,-0.0951,0.5978,0.4824,-1.0137,0.7393,-0.2053,0.3583,
15.255873,0.1790,-0.9574,-0.0951,0.5978,0.4824,-1.0137,0.5411,-0.0487,0.2422,
15.257742,0.1790,-0.9574,-0.0951,1.0217,0.3435,-1.8944,0.5411,-0.0487,0.2422,
15.294905,0.1446,-0.9450,-0.0555,1.0217,0.3435,-1.8944,0.5411,-0.0487,0.2422,
15.296682,0.1023,-0.9264,-0.0003,1.0217,0.3435,-1.8944,0.5411,-0.0487,0.2422,
15.297688,0.0801,-0.9372,0.0373,1.0217,0.3435,-1.8944,0.5411,-0.0487,0.2422,
15.298523,0.0801,-0.9372,0.0373,1.0217,0.3435,-1.8944,0.5976,0.1494,0.2230,
15.299952,0.0801,-0.9372,0.0373,0.5371,0.5418,-0.4845,0.5976,0.1494,0.2230,
15.335990,0.0801,-0.9372,0.0373,0.5371,0.5418,-0.4845,0.7776,0.1174,0.3498,
15.337890,0.0801,-0.9372,0.0373,-0.0565,-0.0999,-0.6286,0.7776,0.1174,0.3498,
15.374747,0.0801,-0.9372,0.0373,-0.0565,-0.0999,-0.6286,0.8522,0.2250,0.4691,
