
time,gFx,gFy,gFz,ax,ay,az,wx,wy,wz,
0.037512,-0.2226,-0.9697,0.1918,0.0000,0.0000,0.0000,0.0000,0.0000,0.0000,
0.045730,-0.2226,-0.9697,0.1918,0.0000,0.0000,0.0000,0.0000,0.0000,0.0000,
0.066006,-0.2255,-0.9294,0.1754,0.0000,0.0000,0.0000,0.0000,0.0000,0.0000,
0.086964,-0.2177,-0.9443,0.2125,0.0000,0.0000,0.0000,0.0000,0.0000,0.0000,
0.087667,-0.2177,-0.9443,0.2125,-3.0357,-13.4148,-6.7512,0.0000,0.0000,0.0000,
0.157048,-0.2177,-0.9443,0.2125,-2.9431,-13.4830,-6.7278,0.0000,0.0000,0.0000,
0.186138,-0.2687,-0.9496,0.2643,-2.9431,-13.4830,-6.7278,0.0000,0.0000,0.0000,
0.206956,-0.2687,-0.9496,0.2643,-3.3500,-13.5840,-6.2050,0.0000,0.0000,0.0000,
0.245589,-0.2802,-0.9340,0.2428,-3.3500,-13.5840,-6.2050,0.0000,0.0000,0.0000,
0.246398,-0.2546,-0.9260,0.2265,-3.3500,-13.5840,-6.2050,0.0000,0.0000,0.0000,
0.246958,-0.2492,-0.9218,0.2343,-3.3500,-13.5840,-6.2050,0.0000,0.0000,0.0000,
0.265538,-0.2492,-0.9218,0.2343,-3.0871,-13.2488,-6.5350,0.0000,0.0000,0.0000,
0.305755,-0.2294,-0.9299,0.2575,-3.0871,-13.2488,-6.5350,0.0000,0.0000,0.0000,
0.306616,-0.2003,-0.9267,0.2492,-3.0871,-13.2488,-6.5350,0.0000,0.0000,0.0000,
0.307125,-0.1835,-0.9260,0.2599,-3.0871,-13.2488,-6.5350,0.0000,0.0000,0.0000,
0.326265,-0.1835,-0.9260,0.2599,-3.0871,-13.2488,-6.5350,-0.2444,0.1776,-0.2714,
0.327187,-0.1835,-0.9260,0.2599,-2.3314,-13.1219,-6.3690,-0.2444,0.1776,-0.2714,
0.365517,-0.1664,-0.9282,0.2634,-2.3314,-13.1219,-6.3690,-0.2444,0.1776,-0.2714,
0.366549,-0.1717,-0.9277,0.2546,-2.3314,-13.1219,-6.3690,-0.2444,0.1776,-0.2714,
0.367296,-0.1754,-0.9335,0.2526,-2.3314,-13.1219,-6.3690,-0.2444,0.1776,-0.2714,
0.385642,-0.1754,-0.9335,0.2526,-2.3314,-13.1219,-6.3690,-0.2725,0.4018,-0.2066,
0.386447,-0.1754,-0.9335,0.2526,-2.0255,-12.9818,-6.5456,-0.2725,0.4018,-0.2066,
0.425340,-0.1832,-0.9399,0.2524,-2.0255,-12.9818,-6.5456,-0.2725,0.4018,-0.2066,
0.426606,-0.1908,-0.9448,0.2543,-2.0255,-12.9818,-6.5456,-0.2725,0.4018,-0.2066,
0.427251,-0.1959,-0.9570,0.2817,-2.0255,-12.9818,-6.5456,-0.2725,0.4018,-0.2066,
0.445689,-0.1959,-0.9570,0.2817,-2.0255,-12.9818,-6.5456,-0.2237,0.4794,-0.1168,
0.446318,-0.1959,-0.9570,0.2817,-1.9253,-12.9821,-6.3600,-0.2237,0.4794,-0.1168,
0.485272,-0.1876,-0.9599,0.2558,-1.9253,-12.9821,-6.3600,-0.2237,0.4794,-0.1168,
0.486225,-0.1884,-0.9624,0.2511,-1.9253,-12.9821,-6.3600,-0.2237,0.4794,-0.1168,
0.486923,-0.1857,-0.9472,0.2563,-1.9253,-12.9821,-6.3600,-0.2237,0.4794,-0.1168,
0.507123,-0.1857,-0.9472,0.2563,-1.5371,-12.6879,-6.6806,-0.2237,0.4794,-0.1168,
0.508806,-0.1857,-0.9472,0.2563,-1.5371,-12.6879,-6.6806,-0.2408,0.4586,-0.0429,
0.546017,-0.1862,-0.9340,0.2646,-1.5371,-12.6879,-6.6806,-0.2408,0.4586,-0.0429,
0.546985,-0.1783,-0.9277,0.2797,-1.5371,-12.6879,-6.6806,-0.2408,0.4586,-0.0429,
0.547615,-0.1737,-0.9186,0.2990,-1.5371,-12.6879,-6.6806,-0.2408,0.4586,-0.0429,
0.567513,-0.1737,-0.9186,0.2990,-1.5371,-12.6879,-6.6806,-0.2780,0.5289,0.0426,
0.568475,-0.1737,-0.9186,0.2990,-1.1336,-12.1853,-6.3278,-0.2780,0.5289,0.0426,
0.606192,-0.1586,-0.9008,0.3068,-1.1336,-12.1853,-6.3278,-0.2780,0.5289,0.0426,
0.607235,-0.1363,-0.9707,0.3608,-1.1336,-12.1853,-6.3278,-0.2780,0.5289,0.0426,
0.607920,-0.1222,-1.1637,0.2084,-1.1336,-12.1853,-6.3278,-0.2780,0.5289,0.0426,
0.626647,-0.1222,-1.1637,0.2084,-1.1336,-12.1853,-6.3278,0.1215,0.0267,-0.3166,
0.627720,-0.1222,-1.1637,0.2084,-0.4040,-14.4411,-7.2484,0.1215,0.0267,-0.3166,
0.666021,-0.1581,-1.2607,0.0232,-0.4040,-14.4411,-7.2484,0.1215,0.0267,-0.3166,
0.666781,-0.0574,-1.0955,0.1209,-0.4040,-14.4411,-7.2484,0.1215,0.0267,-0.3166,
0.667241,0.0134,-1.0029,0.2797,-0.4040,-14.4411,-7.2484,0.1215,0.0267,-0.3166,
0.686441,0.0134,-1.0029,0.2797,-0.4040,-14.4411,-7.2484,0.4013,0.3835,-0.5615,
0.687124,0.0134,-1.0029,0.2797,1.0574,-12.8243,-6.5505,0.4013,0.3835,-0.5615,
0.728550,-0.0264,-1.0112,0.2003,1.0574,-12.8243,-6.5505,0.4013,0.3835,-0.5615,
0.730722,-0.1187,-1.0364,0.1537,1.0574,-12.8243,-6.5505,0.4013,0.3835,-0.5615,
0.732418,-0.1546,-1.0420,0.0889,1.0574,-12.8243,-6.5505,0.4013,0.3835,-0.5615,
0.747573,-0.1546,-1.0420,0.0889,1.0574,-12.8243,-6.5505,0.0909,0.6248,0.2118,
0.749101,-0.1546,-1.0420,0.0889,-0.2334,-13.3044,-8.3459,0.0909,0.6248,0.2118,
0.787159,-0.1576,-1.0283,0.0418,-0.2334,-13.3044,-8.3459,0.0909,0.6248,0.2118,
0.789869,-0.1959,-0.9924,0.0078,-0.2334,-13.3044,-8.3459,0.0909,0.6248,0.2118,
0.791366,-0.2147,-0.9377,-0.0308,-0.2334,-13.3044,-8.3459,0.0909,0.6248,0.2118,
0.807515,-0.2147,-0.9377,-0.0308,-0.5283,-12.1821,-9.5065,0.0909,0.6248,0.2118,
0.809027,-0.2147,-0.9377,-0.0308,-0.5283,-12.1821,-9.5065,-0.1931,0.6064,0.1959,
0.846814,-0.2150,-0.9179,-0.0936,-0.5283,-12.1821,-9.5065,-0.1931,0.6064,0.1959,
0.849102,-0.2262,-0.9194,-0.1124,-0.5283,-12.1821,-9.5065,-0.1931,0.6064,0.1959,
0.850055,-0.2707,-0.9299,-0.0877,-0.5283,-12.1821,-9.5065,-0.1931,0.6064,0.1959,
0.866428,-0.2707,-0.9299,-0.0877,-0.5283,-12.1821,-9.5065,-0.2145,0.6260,-0.0539,
0.867688,-0.2707,-0.9299,-0.0877,-0.7378,-11.8943,-10.0663,-0.2145,0.6260,-0.0539,
0.906409,-0.2883,-0.9335,-0.0806,-0.7378,-11.8943,-10.0663,-0.2145,0.6260,-0.0539,
0.907681,-0.2871,-0.9702,-0.0467,-0.7378,-11.8943,-10.0663,-0.2145,0.6260,-0.0539,
0.908741,-0.2553,-1.0239,-0.0178,-0.7378,-11.8943,-10.0663,-0.2145,0.6260,-0.0539,
0.927937,-0.2553,-1.0239,-0.0178,-0.1661,-12.6471,-9.3338,-0.2145,0.6260,-0.0539,
0.929342,-0.2553,-1.0239,-0.0178,-0.1661,-12.6471,-9.3338,-0.0807,0.8832,0.2008,
0.966442,-0.2282,-1.0317,-0.0015,-0.1661,-12.6471,-9.3338,-0.0807,0.8832,0.2008,
0.967752,-0.2460,-0.9865,-0.0039,-0.1661,-12.6471,-9.3338,-0.0807,0.8832,0.2008,
0.968563,-0.2624,-0.9360,-0.0376,-0.1661,-12.6471,-9.3338,-0.0807,0.8832,0.2008,
0.986693,-0.2624,-0.9360,-0.0376,-0.1661,-12.6471,-9.3338,-0.0887,1.0841,0.2607,
0.987939,-0.2624,-0.9360,-0.0376,0.3010,-11.7116,-9.3949,-0.0887,1.0841,0.2607,
1.028747,-0.2866,-0.8976,-0.0562,0.3010,-11.7116,-9.3949,-0.0887,1.0841,0.2607,
1.029911,-0.2766,-0.8905,-0.0569,0.3010,-11.7116,-9.3949,-0.0887,1.0841,0.2607,
1.030546,-0.2746,-0.8998,-0.0435,0.3010,-11.7116,-9.3949,-0.0887,1.0841,0.2607,
1.047014,-0.2746,-0.8998,-0.0435,0.3010,-11.7116,-9.3949,-0.2267,0.9644,-0.0912,
1.048356,-0.2746,-0.8998,-0.0435,0.7521,-11.2084,-9.2919,-0.2267,0.9644,-0.0912,
1.086316,-0.2656,-0.9294,-0.0239,0.7521,-11.2084,-9.2919,-0.2267,0.9644,-0.0912,
1.087374,-0.2565,-0.9680,-0.0066,0.7521,-11.2084,-9.2919,-0.2267,0.9644,-0.0912,
1.088023,-0.2382,-0.9902,-0.0083,0.7521,-11.2084,-9.2919,-0.2267,0.9644,-0.0912,
1.107005,-0.2382,-0.9902,-0.0083,0.7521,-11.2084,-9.2919,-0.1455,0.9113,-0.1413,
1.108255,-0.2382,-0.9902,-0.0083,1.6601,-11.8693,-8.7720,-0.1455,0.9113,-0.1413,
1.146290,-0.2380,-1.0024,0.0181,1.6601,-11.8693,-8.7720,-0.1455,0.9113,-0.1413,
1.147821,-0.2543,-0.9988,0.0274,1.6601,-11.8693,-8.7720,-0.1455,0.9113,-0.1413,
1.148625,-0.3005,-0.9902,0.0176,1.6601,-11.8693,-8.7720,-0.1455,0.9113,-0.1413,
1.166902,-0.3005,-0.9902,0.0176,1.6601,-11.8693,-8.7720,-0.0764,0.9534,0.1483,
1.168451,-0.3005,-0.9902,0.0176,1.5666,-11.7335,-8.2951,-0.0764,0.9534,0.1483,
1.206265,-0.3281,-0.9558,0.0291,1.5666,-11.7335,-8.2951,-0.0764,0.9534,0.1483,
1.207577,-0.3496,-0.9218,0.0442,1.5666,-11.7335,-8.2951,-0.0764,0.9534,0.1483,
1.208306,-0.3567,-0.9045,0.0515,1.5666,-11.7335,-8.2951,-0.0764,0.9534,0.1483,
1.228018,-0.3567,-0.9045,0.0515,1.4727,-10.7979,-7.7256,-0.0764,0.9534,0.1483,
1.229493,-0.3567,-0.9045,0.0515,1.4727,-10.7979,-7.7256,-0.0349,0.7078,-0.0606,
1.266592,-0.3494,-0.9247,0.0608,1.4727,-10.7979,-7.7256,-0.0349,0.7078,-0.0606,
1.267959,-0.3305,-0.9648,0.0591,1.4727,-10.7979,-7.7256,-0.0349,0.7078,-0.0606,
1.268991,-0.2956,-0.9973,0.0506,1.4727,-10.7979,-7.7256,-0.0349,0.7078,-0.0606,
1.287564,-0.2956,-0.9973,0.0506,1.4727,-10.7979,-7.7256,0.1013,0.6565,-0.1969,
1.288765,-0.2956,-0.9973,0.0506,2.4269,-11.5939,-7.5363,0.1013,0.6565,-0.1969,
1.328264,-0.2790,-1.0036,0.0354,2.4269,-11.5939,-7.5363,0.1013,0.6565,-0.1969,
1.329950,-0.2849,-0.9948,0.0173,2.4269,-11.5939,-7.5363,0.1013,0.6565,-0.1969,
1.330818,-0.2858,-1.0066,0.0288,2.4269,-11.5939,-7.5363,0.1013,0.6565,-0.1969,
1.348980,-0.2858,-1.0066,0.0288,2.4269,-11.5939,-7.5363,0.1545,0.8245,-0.1443,
1.350705,-0.2858,-1.0066,0.0288,2.9151,-11.6179,-7.4905,0.1545,0.8245,-0.1443,
1.386598,-0.2853,-0.9968,0.0638,2.9151,-11.6179,-7.4905,0.1545,0.8245,-0.1443,
1.387847,-0.2946,-0.9721,0.0887,2.9151,-11.6179,-7.4905,0.1545,0.8245,-0.1443,
1.388471,-0.3166,-0.9543,0.0669,2.9151,-11.6179,-7.4905,0.1545,0.8245,-0.1443,
1.406932,-0.3166,-0.9543,0.0669,2.9151,-11.6179,-7.4905,0.1093,0.9888,-0.2421,
1.409489,-0.3166,-0.9543,0.0669,3.0809,-11.0335,-6.7672,0.1093,0.9888,-0.2421,
1.447326,-0.3924,-1.0232,-0.0667,3.0809,-11.0335,-6.7672,0.1093,0.9888,-0.2421,
1.449423,-0.4625,-1.2487,-0.0249,3.0809,-11.0335,-6.7672,0.1093,0.9888,-0.2421,
1.451540,-0.4412,-1.1959,-0.1004,3.0809,-11.0335,-6.7672,0.1093,0.9888,-0.2421,
1.466681,-0.4412,-1.1959,-0.1004,3.0809,-11.0335,-6.7672,0.1282,0.4207,0.2338,
1.468812,-0.4412,-1.1959,-0.1004,2.2244,-13.3484,-8.1001,0.1282,0.4207,0.2338,
1.506558,-0.3784,-1.0466,-0.0804,2.2244,-13.3484,-8.1001,0.1282,0.4207,0.2338,
1.509035,-0.3442,-1.0178,-0.1664,2.2244,-13.3484,-8.1001,0.1282,0.4207,0.2338,
1.510989,-0.2932,-0.9821,-0.2174,2.2244,-13.3484,-8.1001,0.1282,0.4207,0.2338,
1.527526,-0.2932,-0.9821,-0.2174,3.7165,-11.3745,-9.1798,0.1282,0.4207,0.2338,
1.530432,-0.2932,-0.9821,-0.2174,3.7165,-11.3745,-9.1798,0.3994,-0.3783,0.0554,
1.566370,-0.1666,-0.8612,-0.2382,3.7165,-11.3745,-9.1798,0.3994,-0.3783,0.0554,
1.568172,-0.0220,-0.7789,-0.1847,3.7165,-11.3745,-9.1798,0.3994,-0.3783,0.0554,
1.570241,0.1581,-0.8358,0.0618,3.7165,-11.3745,-9.1798,0.3994,-0.3783,0.0554,
1.587403,0.1581,-0.8358,0.0618,3.7165,-11.3745,-9.1798,0.8753,-0.2030,-0.2256,
1.589734,0.1581,-0.8358,0.0618,7.9851,-10.0587,-6.5538,0.8753,-0.2030,-0.2256,
1.626675,0.1732,-1.0718,0.1959,7.9851,-10.0587,-6.5538,0.8753,-0.2030,-0.2256,
1.629098,0.0660,-1.2577,0.0093,7.9851,-10.0587,-6.5538,0.8753,-0.2030,-0.2256,
1.631166,-0.1119,-1.3288,-0.0181,7.9851,-10.0587,-6.5538,0.8753,-0.2030,-0.2256,
1.647500,-0.1119,-1.3288,-0.0181,7.9851,-10.0587,-6.5538,0.8124,0.4641,0.6920,
1.649969,-0.1119,-1.3288,-0.0181,5.4255,-15.2395,-7.1569,0.8124,0.4641,0.6920,
1.686542,-0.3149,-1.2817,-0.0242,5.4255,-15.2395,-7.1569,0.8124,0.4641,0.6920,
1.688790,-0.4527,-1.0896,0.0300,5.4255,-15.2395,-7.1569,0.8124,0.4641,0.6920,
1.690468,-0.4251,-0.9387,0.0633,5.4255,-15.2395,-7.1569,0.8124,0.4641,0.6920,
1.708385,-0.4251,-0.9387,0.0633,5.4255,-15.2395,-7.1569,0.7580,-0.0380,-0.1431,
1.710585,-0.4251,-0.9387,0.0633,2.3721,-11.9132,-6.1664,0.7580,-0.0380,-0.1431,
1.749891,-0.2861,-0.9030,0.0200,2.3721,-11.9132,-6.1664,0.7580,-0.0380,-0.1431,
1.751954,-0.2077,-0.8783,0.0503,2.3721,-11.9132,-6.1664,0.7580,-0.0380,-0.1431,
1.753684,-0.1713,-0.8356,0.1270,2.3721,-11.9132,-6.1664,0.7580,-0.0380,-0.1431,
1.766663,-0.1713,-0.8356,0.1270,2.3721,-11.9132,-6.1664,0.3017,-0.4131,-0.2628,
1.768483,-0.1713,-0.8356,0.1270,4.8549,-10.8705,-5.5590,0.3017,-0.4131,-0.2628,
1.806731,-0.1400,-0.8204,0.1586,4.8549,-10.8705,-5.5590,0.3017,-0.4131,-0.2628,
1.809375,-0.1368,-0.8116,0.1747,4.8549,-10.8705,-5.5590,0.3017,-0.4131,-0.2628,
1.811372,-0.1429,-0.8001,0.1691,4.8549,-10.8705,-5.5590,0.3017,-0.4131,-0.2628,
1.827362,-0.1429,-0.8001,0.1691,4.8549,-10.8705,-5.5590,0.0964,-0.3764,0.2851,
1.830799,-0.1429,-0.8001,0.1691,4.9862,-10.5515,-5.2738,0.0964,-0.3764,0.2851,
1.866586,-0.1705,-0.7926,0.1627,4.9862,-10.5515,-5.2738,0.0964,-0.3764,0.2851,
1.869172,-0.2101,-0.7869,0.1859,4.9862,-10.5515,-5.2738,0.0964,-0.3764,0.2851,
1.870968,-0.2267,-0.7862,0.2125,4.9862,-10.5515,-5.2738,0.0964,-0.3764,0.2851,
1.886991,-0.2267,-0.7862,0.2125,4.9862,-10.5515,-5.2738,-0.1241,-0.2005,-0.0814,
1.888871,-0.2267,-0.7862,0.2125,4.0240,-10.4149,-4.9751,-0.1241,-0.2005,-0.0814,
1.926541,-0.2301,-0.8111,0.2543,4.0240,-10.4149,-4.9751,-0.1241,-0.2005,-0.0814,
1.929241,-0.2375,-0.8431,0.3257,4.0240,-10.4149,-4.9751,-0.1241,-0.2005,-0.0814,
1.931138,-0.2653,-0.8649,0.3139,4.0240,-10.4149,-4.9751,-0.1241,-0.2005,-0.0814,
1.949397,-0.2653,-0.8649,0.3139,4.0240,-10.4149,-4.9751,0.1655,-0.6446,0.0927,
1.951592,-0.2653,-0.8649,0.3139,3.4894,-11.0923,-4.1513,0.1655,-0.6446,0.0927,
1.986547,-0.2812,-0.9147,0.1761,3.4894,-11.0923,-4.1513,0.1655,-0.6446,0.0927,
1.988774,-0.2509,-0.9848,0.0963,3.4894,-11.0923,-4.1513,0.1655,-0.6446,0.0927,
1.990711,-0.1998,-1.0723,0.1818,3.4894,-11.0923,-4.1513,0.1655,-0.6446,0.0927,
2.007463,-0.1998,-1.0723,0.1818,3.4894,-11.0923,-4.1513,-0.2658,-0.4772,0.0255,
2.009236,-0.1998,-1.0723,0.1818,3.8604,-13.0706,-5.6851,-0.2658,-0.4772,0.0255,
2.047997,-0.1810,-1.1131,0.2856,3.8604,-13.0706,-5.6851,-0.2658,-0.4772,0.0255,
2.050448,-0.2072,-1.0652,0.3677,3.8604,-13.0706,-5.6851,-0.2658,-0.4772,0.0255,
2.051594,-0.2907,-0.9914,0.4415,3.8604,-13.0706,-5.6851,-0.2658,-0.4772,0.0255,
2.066816,-0.2907,-0.9914,0.4415,3.8604,-13.0706,-5.6851,0.0213,-0.5554,0.3835,
2.069193,-0.2907,-0.9914,0.4415,2.7807,-12.1439,-3.3275,0.0213,-0.5554,0.3835,
2.106417,-0.3652,-0.9726,0.4979,2.7807,-12.1439,-3.3275,0.0213,-0.5554,0.3835,
2.109004,-0.3247,-1.3393,0.4959,2.7807,-12.1439,-3.3275,0.0213,-0.5554,0.3835,
2.110818,-0.1974,-1.3911,-0.0445,2.7807,-12.1439,-3.3275,0.0213,-0.5554,0.3835,
2.126908,-0.1974,-1.3911,-0.0445,2.7807,-12.1439,-3.3275,-0.2249,-0.4559,-0.0356,
2.129214,-0.1974,-1.3911,-0.0445,3.3170,-16.2785,-8.2838,-0.2249,-0.4559,-0.0356,
2.167020,-0.0926,-1.0835,0.0188,3.3170,-16.2785,-8.2838,-0.2249,-0.4559,-0.0356,
2.168850,-0.0679,-0.9113,0.2213,3.3170,-16.2785,-8.2838,-0.2249,-0.4559,-0.0356,
2.170533,-0.0464,-1.0010,0.1512,3.3170,-16.2785,-8.2838,-0.2249,-0.4559,-0.0356,
2.186837,-0.0464,-1.0010,0.1512,4.6975,-12.1874,-6.5160,-0.2249,-0.4559,-0.0356,
2.189274,-0.0464,-1.0010,0.1512,4.6975,-12.1874,-6.5160,-0.3336,-0.5707,-0.3538,
2.226360,-0.1485,-1.0102,0.1515,4.6975,-12.1874,-6.5160,-0.3336,-0.5707,-0.3538,
2.228528,-0.2047,-0.9619,0.0276,4.6975,-12.1874,-6.5160,-0.3336,-0.5707,-0.3538,
2.230272,-0.1761,-0.8771,-0.1901,4.6975,-12.1874,-6.5160,-0.3336,-0.5707,-0.3538,
2.249595,-0.1761,-0.8771,-0.1901,3.2714,-10.6295,-10.0515,-0.3336,-0.5707,-0.3538,
2.251821,-0.1761,-0.8771,-0.1901,3.2714,-10.6295,-10.0515,-0.7123,-0.3758,-0.2958,
2.286332,-0.2546,-0.8187,-0.2575,3.2714,-10.6295,-10.0515,-0.7123,-0.3758,-0.2958,
2.288679,-0.2856,-0.7970,-0.2482,3.2714,-10.6295,-10.0515,-0.7123,-0.3758,-0.2958,
2.290847,-0.2196,-0.8881,-0.1378,3.2714,-10.6295,-10.0515,-0.7123,-0.3758,-0.2958,
2.306986,-0.2196,-0.8881,-0.1378,3.2714,-10.6295,-10.0515,-0.5975,-0.6440,-0.5231,
2.309539,-0.2196,-0.8881,-0.1378,2.6333,-10.1487,-9.7870,-0.5975,-0.6440,-0.5231,
2.347451,-0.1681,-1.0432,-0.0349,2.6333,-10.1487,-9.7870,-0.5975,-0.6440,-0.5231,
2.350034,-0.2262,-1.1097,0.0049,2.6333,-10.1487,-9.7870,-0.5975,-0.6440,-0.5231,
2.351814,-0.2697,-1.0684,-0.0388,2.6333,-10.1487,-9.7870,-0.5975,-0.6440,-0.5231,
2.367490,-0.2697,-1.0684,-0.0388,2.6333,-10.1487,-9.7870,-0.4570,-0.2060,0.5453,
2.369606,-0.2697,-1.0684,-0.0388,1.9729,-11.5433,-8.9661,-0.4570,-0.2060,0.5453,
2.406709,-0.2560,-0.9878,-0.0300,1.9729,-11.5433,-8.9661,-0.4570,-0.2060,0.5453,
2.409140,-0.2270,-0.9284,-0.0037,1.9729,-11.5433,-8.9661,-0.4570,-0.2060,0.5453,
2.410270,-0.1840,-0.8957,0.0005,1.9729,-11.5433,-8.9661,-0.4570,-0.2060,0.5453,
2.426717,-0.1840,-0.8957,0.0005,1.9729,-11.5433,-8.9661,-0.4521,0.0108,0.3994,
2.428523,-0.1840,-0.8957,0.0005,2.7266,-9.6943,-8.6447,-0.4521,0.0108,0.3994,
2.468473,-0.1586,-0.8720,-0.0044,2.7266,-9.6943,-8.6447,-0.4521,0.0108,0.3994,
2.470596,-0.1630,-0.8720,-0.0259,2.7266,-9.6943,-8.6447,-0.4521,0.0108,0.3994,
2.473192,-0.2223,-0.8917,-0.0467,2.7266,-9.6943,-8.6447,-0.4521,0.0108,0.3994,
2.486613,-0.2223,-0.8917,-0.0467,2.7266,-9.6943,-8.6447,-0.4631,0.1636,-0.2298,
2.489005,-0.2223,-0.8917,-0.0467,2.4349,-9.3705,-9.0878,-0.4631,0.1636,-0.2298,
2.528180,-0.2660,-0.8944,-0.0296,2.4349,-9.3705,-9.0878,-0.4631,0.1636,-0.2298,
2.530713,-0.2724,-0.9257,-0.0068,2.4349,-9.3705,-9.0878,-0.4631,0.1636,-0.2298,
2.532311,-0.2599,-0.9848,0.0244,2.4349,-9.3705,-9.0878,-0.4631,0.1636,-0.2298,
2.546781,-0.2599,-0.9848,0.0244,2.4349,-9.3705,-9.0878,-0.2194,0.0964,-0.1242,
2.549351,-0.2599,-0.9848,0.0244,2.1558,-9.9417,-8.3609,-0.2194,0.0964,-0.1242,
2.586622,-0.2707,-1.0391,0.0655,2.1558,-9.9417,-8.3609,-0.2194,0.0964,-0.1242,
2.588785,-0.2822,-1.0115,0.0816,2.1558,-9.9417,-8.3609,-0.2194,0.0964,-0.1242,
2.591570,-0.2968,-0.9819,0.0792,2.1558,-9.9417,-8.3609,-0.2194,0.0964,-0.1242,
2.608850,-0.2968,-0.9819,0.0792,2.1558,-9.9417,-8.3609,0.0231,0.3975,0.1556,
2.611122,-0.2968,-0.9819,0.0792,1.9312,-9.7923,-7.7516,0.0231,0.3975,0.1556,
2.654042,-0.2658,-0.9355,0.0352,1.9312,-9.7923,-7.7516,0.0231,0.3975,0.1556,
2.675062,-0.2282,-0.9223,0.0474,1.9312,-9.7923,-7.7516,0.0231,0.3975,0.1556,
2.677291,-0.2526,-0.9435,0.0435,1.9312,-9.7923,-7.7516,0.0231,0.3975,0.1556,
2.678436,-0.2526,-0.9435,0.0435,2.5778,-9.3733,-7.9772,0.0231,0.3975,0.1556,
2.679724,-0.2526,-0.9435,0.0435,2.5778,-9.3733,-7.9772,-0.0025,0.4140,-0.0887,
2.706661,-0.3398,-0.9663,-0.0022,2.5778,-9.3733,-7.9772,-0.0025,0.4140,-0.0887,
2.707621,-0.3904,-0.9594,-0.0120,2.5778,-9.3733,-7.9772,-0.0025,0.4140,-0.0887,
2.708406,-0.4412,-0.9621,0.0230,2.5778,-9.3733,-7.9772,-0.0025,0.4140,-0.0887,
2.727201,-0.4412,-0.9621,0.0230,0.9181,-9.3896,-8.0629,-0.0025,0.4140,-0.0887,
2.728294,-0.4412,-0.9621,0.0230,0.9181,-9.3896,-8.0629,-0.1271,0.2479,-0.2243,
2.767265,-0.3970,-0.9843,0.0875,0.9181,-9.3896,-8.0629,-0.1271,0.2479,-0.2243,
2.768475,-0.3591,-0.9890,0.0853,0.9181,-9.3896,-8.0629,-0.1271,0.2479,-0.2243,
2.769399,-0.3486,-1.0679,-0.0420,0.9181,-9.3896,-8.0629,-0.1271,0.2479,-0.2243,
2.787627,-0.3486,-1.0679,-0.0420,2.0030,-10.2004,-8.5806,-0.1271,0.2479,-0.2243,
2.789462,-0.3486,-1.0679,-0.0420,2.0030,-10.2004,-8.5806,-0.2035,0.3407,-0.1559,
2.829453,-0.3853,-1.3168,-0.0164,2.0030,-10.2004,-8.5806,-0.2035,0.3407,-0.1559,
2.831593,-0.3735,-1.2330,-0.1192,2.0030,-10.2004,-8.5806,-0.2035,0.3407,-0.1559,
2.833149,-0.3816,-1.0828,-0.1722,2.0030,-10.2004,-8.5806,-0.2035,0.3407,-0.1559,
2.846476,-0.3816,-1.0828,-0.1722,2.0030,-10.2004,-8.5806,-0.0520,-0.0105,0.3645,
2.847960,-0.3816,-1.0828,-0.1722,1.8451,-10.3047,-9.7431,-0.0520,-0.0105,0.3645,
2.886972,-0.3567,-1.0716,-0.2238,1.8451,-10.3047,-9.7431,-0.0520,-0.0105,0.3645,
2.888819,-0.2316,-1.0347,-0.2372,1.8451,-10.3047,-9.7431,-0.0520,-0.0105,0.3645,
2.890224,-0.0423,-0.9191,-0.2165,1.8451,-10.3047,-9.7431,-0.0520,-0.0105,0.3645,
2.906672,-0.0423,-0.9191,-0.2165,1.8451,-10.3047,-9.7431,0.4715,-0.5530,-0.0484,
2.909000,-0.0423,-0.9191,-0.2165,5.0248,-8.7835,-10.2783,0.4715,-0.5530,-0.0484,
2.947474,0.1051,-0.8397,-0.1407,5.0248,-8.7835,-10.2783,0.4715,-0.5530,-0.0484,
2.950662,0.2042,-0.8715,0.0435,5.0248,-8.7835,-10.2783,0.4715,-0.5530,-0.0484,
2.952483,0.1664,-1.0571,0.1256,5.0248,-8.7835,-10.2783,0.4715,-0.5530,-0.0484,
2.968800,0.1664,-1.0571,0.1256,6.9241,-10.4017,-7.0244,0.4715,-0.5530,-0.0484,
2.971295,0.1664,-1.0571,0.1256,6.9241,-10.4017,-7.0244,0.9999,0.1703,0.1678,
3.006659,0.0022,-1.1905,-0.0029,6.9241,-10.4017,-7.0244,0.9999,0.1703,0.1678,
3.008897,-0.1588,-1.2438,-0.0481,6.9241,-10.4017,-7.0244,0.9999,0.1703,0.1678,
3.010840,-0.3315,-1.1971,-0.0542,6.9241,-10.4017,-7.0244,0.9999,0.1703,0.1678,
3.026780,-0.3315,-1.1971,-0.0542,6.9241,-10.4017,-7.0244,0.7012,-0.0753,0.7921,
3.029002,-0.3315,-1.1971,-0.0542,2.1271,-12.3181,-8.7122,0.7012,-0.0753,0.7921,
3.068000,-0.4141,-1.0635,-0.0076,2.1271,-12.3181,-8.7122,0.7012,-0.0753,0.7921,
3.070895,-0.3081,-0.9455,0.0887,2.1271,-12.3181,-8.7122,0.7012,-0.0753,0.7921,
3.072456,-0.1964,-0.9145,0.0699,2.1271,-12.3181,-8.7122,0.7012,-0.0753,0.7921,
3.087139,-0.1964,-0.9145,0.0699,2.1271,-12.3181,-8.7122,0.6639,-0.0032,-0.3826,
3.089658,-0.1964,-0.9145,0.0699,3.4244,-9.9369,-7.4764,0.6639,-0.0032,-0.3826,
3.126713,-0.1739,-0.8705,0.0428,3.4244,-9.9369,-7.4764,0.6639,-0.0032,-0.3826,
3.129052,-0.1847,-0.8224,0.0789,3.4244,-9.9369,-7.4764,0.6639,-0.0032,-0.3826,
3.130268,-0.1713,-0.7791,0.1080,3.4244,-9.9369,-7.4764,0.6639,-0.0032,-0.3826,
3.148292,-0.1713,-0.7791,0.1080,3.6419,-8.6289,-7.1197,0.6639,-0.0032,-0.3826,
3.151341,-0.1713,-0.7791,0.1080,3.6419,-8.6289,-7.1197,0.2351,-0.2488,-0.0680,
3.189407,-0.1564,-0.7625,0.1429,3.6419,-8.6289,-7.1197,0.2351,-0.2488,-0.0680,
3.192035,-0.1033,-0.7591,0.1588,3.6419,-8.6289,-7.1197,0.2351,-0.2488,-0.0680,
3.193878,-0.0853,-0.7740,0.1996,3.6419,-8.6289,-7.1197,0.2351,-0.2488,-0.0680,
3.207138,-0.0853,-0.7740,0.1996,3.6419,-8.6289,-7.1197,-0.0752,0.0090,0.1257,
3.209500,-0.0853,-0.7740,0.1996,4.4064,-8.6307,-6.2658,-0.0752,0.0090,0.1257,
3.247899,-0.1158,-0.8299,0.2494,4.4064,-8.6307,-6.2658,-0.0752,0.0090,0.1257,
3.250400,-0.2091,-0.8852,0.3142,4.4064,-8.6307,-6.2658,-0.0752,0.0090,0.1257,
3.252264,-0.2917,-0.8969,0.3305,4.4064,-8.6307,-6.2658,-0.0752,0.0090,0.1257,
3.267223,-0.2917,-0.8969,0.3305,4.4064,-8.6307,-6.2658,0.1508,-0.0356,0.0041,
3.268784,-0.2917,-0.8969,0.3305,2.4269,-9.7692,-4.9627,0.1508,-0.0356,0.0041,
3.306343,-0.3105,-0.8908,0.2736,2.4269,-9.7692,-4.9627,0.1508,-0.0356,0.0041,
3.308771,-0.3007,-0.9101,0.1818,2.4269,-9.7692,-4.9627,0.1508,-0.0356,0.0041,
3.310702,-0.2529,-0.9831,0.1195,2.4269,-9.7692,-4.9627,0.1508,-0.0356,0.0041,
3.326888,-0.2529,-0.9831,0.1195,2.4269,-9.7692,-4.9627,-0.0856,-0.2323,0.0383,
3.329364,-0.2529,-0.9831,0.1195,2.7452,-10.6248,-7.0699,-0.0856,-0.2323,0.0383,
3.366871,-0.2519,-1.0391,0.1764,2.7452,-10.6248,-7.0699,-0.0856,-0.2323,0.0383,
3.369487,-0.2858,-1.0222,0.3261,2.7452,-10.6248,-7.0699,-0.0856,-0.2323,0.0383,
3.371219,-0.3149,-0.9489,0.4627,2.7452,-10.6248,-7.0699,-0.0856,-0.2323,0.0383,
3.388441,-0.3149,-0.9489,0.4627,2.7452,-10.6248,-7.0699,0.2131,-0.3679,0.4024,
3.391297,-0.3149,-0.9489,0.4627,2.0532,-10.1970,-3.7691,0.2131,-0.3679,0.4024,
3.428670,-0.3731,-1.3176,0.7413,2.0532,-10.1970,-3.7691,0.2131,-0.3679,0.4024,
3.431839,-0.3342,-1.5448,0.0628,2.0532,-10.1970,-3.7691,0.2131,-0.3679,0.4024,
3.433362,-0.2157,-1.2685,-0.1632,2.0532,-10.1970,-3.7691,0.2131,-0.3679,0.4024,
3.447783,-0.2157,-1.2685,-0.1632,2.0532,-10.1970,-3.7691,-0.5401,-0.1235,0.1513,
3.450439,-0.2157,-1.2685,-0.1632,2.8919,-13.5898,-9.9520,-0.5401,-0.1235,0.1513,
3.487900,-0.0814,-0.8986,0.2438,2.8919,-13.5898,-9.9520,-0.5401,-0.1235,0.1513,
3.490068,-0.0647,-0.9074,0.2680,2.8919,-13.5898,-9.9520,-0.5401,-0.1235,0.1513,
3.491094,-0.0811,-0.9455,0.1681,2.8919,-13.5898,-9.9520,-0.5401,-0.1235,0.1513,
3.507644,-0.0811,-0.9455,0.1681,4.0884,-10.1508,-6.8110,-0.5401,-0.1235,0.1513,
3.510525,-0.0811,-0.9455,0.1681,4.0884,-10.1508,-6.8110,-0.1424,-0.4870,-0.3911,
3.547854,-0.1737,-0.9047,0.0208,4.0884,-10.1508,-6.8110,-0.1424,-0.4870,-0.3911,
3.550618,-0.1058,-0.7916,-0.2177,4.0884,-10.1508,-6.8110,-0.1424,-0.4870,-0.3911,
3.551901,-0.1224,-0.7481,-0.2582,4.0884,-10.1508,-6.8110,-0.1424,-0.4870,-0.3911,
3.567537,-0.1224,-0.7481,-0.2582,3.5259,-7.8537,-11.1079,-0.1424,-0.4870,-0.3911,
3.570521,-0.1224,-0.7481,-0.2582,3.5259,-7.8537,-11.1079,-0.6439,-0.4455,-0.4290,
3.607933,-0.2174,-0.8744,-0.2165,3.5259,-7.8537,-11.1079,-0.6439,-0.4455,-0.4290,
3.610667,-0.1981,-1.0479,-0.1082,3.5259,-7.8537,-11.1079,-0.6439,-0.4455,-0.4290,
3.612391,-0.1590,-1.1488,0.0320,3.5259,-7.8537,-11.1079,-0.6439,-0.4455,-0.4290,
3.627724,-0.1590,-1.1488,0.0320,3.5259,-7.8537,-11.1079,-0.1644,0.0536,-0.2182,
3.630817,-0.1590,-1.1488,0.0320,3.0402,-11.3044,-8.3477,-0.1644,0.0536,-0.2182,
3.666731,-0.2172,-1.1441,0.1046,3.0402,-11.3044,-8.3477,-0.1644,0.0536,-0.2182,
3.670364,-0.2888,-1.0711,0.0213,3.0402,-11.3044,-8.3477,-0.1644,0.0536,-0.2182,
3.672110,-0.2668,-0.9719,-0.0320,3.0402,-11.3044,-8.3477,-0.1644,0.0536,-0.2182,
3.687390,-0.2668,-0.9719,-0.0320,2.1558,-9.5630,-8.8818,-0.1644,0.0536,-0.2182,
3.690914,-0.2668,-0.9719,-0.0320,2.1558,-9.5630,-8.8818,-0.2102,0.4201,0.7598,
3.728021,-0.2350,-0.9272,-0.0144,2.1558,-9.5630,-8.8818,-0.2102,0.4201,0.7598,
3.731575,-0.1823,-0.8927,0.0049,2.1558,-9.5630,-8.8818,-0.2102,0.4201,0.7598,
3.733282,-0.1590,-0.8678,0.0269,2.1558,-9.5630,-8.8818,-0.2102,0.4201,0.7598,
3.748151,-0.1590,-0.8678,0.0269,2.1558,-9.5630,-8.8818,-0.2719,0.6755,0.0921,
3.751007,-0.1590,-0.8678,0.0269,3.4669,-8.5050,-8.1577,-0.2719,0.6755,0.0921,
3.787290,-0.1578,-0.8370,0.0332,3.4669,-8.5050,-8.1577,-0.2719,0.6755,0.0921,
3.791807,-0.2106,-0.8514,0.0176,3.4669,-8.5050,-8.1577,-0.2719,0.6755,0.0921,
3.794417,-0.2788,-0.8981,-0.0007,3.4669,-8.5050,-8.1577,-0.2719,0.6755,0.0921,
3.807635,-0.2788,-0.8981,-0.0007,3.4669,-8.5050,-8.1577,-0.2414,0.7408,-0.3948,
3.811191,-0.2788,-0.8981,-0.0007,2.6950,-8.5256,-8.1708,-0.2414,0.7408,-0.3948,
3.846521,-0.2910,-0.9575,0.0269,2.6950,-8.5256,-8.1708,-0.2414,0.7408,-0.3948,
3.849328,-0.2731,-1.0146,0.0559,2.6950,-8.5256,-8.1708,-0.2414,0.7408,-0.3948,
3.850827,-0.2682,-1.0146,0.0706,2.6950,-8.5256,-8.1708,-0.2414,0.7408,-0.3948,
3.867498,-0.2682,-1.0146,0.0706,3.1534,-9.4401,-7.2127,-0.2414,0.7408,-0.3948,
3.870188,-0.2682,-1.0146,0.0706,3.1534,-9.4401,-7.2127,-0.0404,0.7347,0.0157,
3.908043,-0.2932,-0.9665,0.0513,3.1534,-9.4401,-7.2127,-0.0404,0.7347,0.0157,
3.911736,-0.3423,-0.9186,-0.0088,3.1534,-9.4401,-7.2127,-0.0404,0.7347,0.0157,
3.913504,-0.3513,-0.8996,-0.0061,3.1534,-9.4401,-7.2127,-0.0404,0.7347,0.0157,
3.927250,-0.3513,-0.8996,-0.0061,2.6787,-8.2724,-7.7020,-0.0404,0.7347,0.0157,
3.930463,-0.3513,-0.8996,-0.0061,2.6787,-8.2724,-7.7020,0.0439,0.6480,-0.0142,
3.967600,-0.2844,-0.9098,0.0232,2.6787,-8.2724,-7.7020,0.0439,0.6480,-0.0142,
3.971008,-0.2265,-0.9467,0.0569,2.6787,-8.2724,-7.7020,0.0439,0.6480,-0.0142,
3.972511,-0.2304,-0.9797,0.0261,2.6787,-8.2724,-7.7020,0.0439,0.6480,-0.0142,
3.988762,-0.2304,-0.9797,0.0261,2.6787,-8.2724,-7.7020,0.1062,1.0536,-0.2304,
3.993486,-0.2304,-0.9797,0.0261,4.2257,-8.9655,-7.0740,0.1062,1.0536,-0.2304,
4.026495,-0.3557,-0.9985,0.0086,4.2257,-8.9655,-7.0740,0.1062,1.0536,-0.2304,
4.028883,-0.4515,-1.0014,0.0249,4.2257,-8.9655,-7.0740,0.1062,1.0536,-0.2304,
4.030642,-0.4451,-0.9931,0.0591,4.2257,-8.9655,-7.0740,0.1062,1.0536,-0.2304,
4.047287,-0.4451,-0.9931,0.0591,4.2257,-8.9655,-7.0740,0.0696,1.1519,-0.0961,
4.050125,-0.4451,-0.9931,0.0591,2.5949,-9.0162,-6.2948,0.0696,1.1519,-0.0961,
4.087673,-0.4124,-0.9821,-0.0024,2.5949,-9.0162,-6.2948,0.0696,1.1519,-0.0961,
4.091579,-0.3081,-1.1678,0.0237,2.5949,-9.0162,-6.2948,0.0696,1.1519,-0.0961,
4.093277,-0.2976,-1.2824,0.0020,2.5949,-9.0162,-6.2948,0.0696,1.1519,-0.0961,
4.108461,-0.2976,-1.2824,0.0020,2.5949,-9.0162,-6.2948,0.2247,1.2417,0.0939,
4.111343,-0.2976,-1.2824,0.0020,4.4966,-11.7878,-6.3537,0.2247,1.2417,0.0939,
4.148630,-0.2722,-1.1690,-0.0799,4.4966,-11.7878,-6.3537,0.2247,1.2417,0.0939,
4.151839,-0.3010,-1.1004,-0.1094,4.4966,-11.7878,-6.3537,0.2247,1.2417,0.0939,
4.153907,-0.2585,-1.0982,-0.1573,4.4966,-11.7878,-6.3537,0.2247,1.2417,0.0939,
4.167305,-0.2585,-1.0982,-0.1573,4.4966,-11.7878,-6.3537,0.3170,0.8050,0.2509,
4.171700,-0.2585,-1.0982,-0.1573,5.2800,-10.1446,-7.4363,0.3170,0.8050,0.2509,
4.206356,-0.1825,-1.0364,-0.1954,5.2800,-10.1446,-7.4363,0.3170,0.8050,0.2509,
4.208858,-0.1063,-0.9316,-0.1559,5.2800,-10.1446,-7.4363,0.3170,0.8050,0.2509,
4.210447,-0.0264,-0.8849,-0.0909,5.2800,-10.1446,-7.4363,0.3170,0.8050,0.2509,
4.227591,-0.0264,-0.8849,-0.0909,7.7927,-8.2457,-6.4733,0.3170,0.8050,0.2509,
4.230075,-0.0264,-0.8849,-0.0909,7.7927,-8.2457,-6.4733,0.7324,0.6425,0.1385,
4.267506,0.0770,-0.9088,0.0606,7.7927,-8.2457,-6.4733,0.7324,0.6425,0.1385,
4.271743,0.0899,-0.9797,0.1744,7.7927,-8.2457,-6.4733,0.7324,0.6425,0.1385,
4.273399,-0.0051,-1.0938,0.1112,7.7927,-8.2457,-6.4733,0.7324,0.6425,0.1385,
4.287529,-0.0051,-1.0938,0.1112,8.2579,-10.5428,-4.1177,0.7324,0.6425,0.1385,
4.291144,-0.0051,-1.0938,0.1112,8.2579,-10.5428,-4.1177,0.9339,0.8838,0.0762,
4.327015,-0.1642,-1.2140,0.0738,8.2579,-10.5428,-4.1177,0.9339,0.8838,0.0762,
4.329485,-0.3486,-1.2042,-0.0015,8.2579,-10.5428,-4.1177,0.9339,0.8838,0.0762,
4.330774,-0.4613,-1.0124,0.0428,8.2579,-10.5428,-4.1177,0.9339,0.8838,0.0762,
4.347726,-0.4613,-1.0124,0.0428,8.2579,-10.5428,-4.1177,0.6572,0.2760,0.0341,
4.351219,-0.4613,-1.0124,0.0428,3.9827,-9.9463,-4.4666,0.6572,0.2760,0.0341,
4.387396,-0.3728,-0.8544,0.1439,3.9827,-9.9463,-4.4666,0.6572,0.2760,0.0341,
4.390880,-0.2238,-0.8627,0.1004,3.9827,-9.9463,-4.4666,0.6572,0.2760,0.0341,
4.392270,-0.1732,-0.8492,0.0843,3.9827,-9.9463,-4.4666,0.6572,0.2760,0.0341,
4.409813,-0.1732,-0.8492,0.0843,3.9827,-9.9463,-4.4666,0.3640,0.1165,-0.2531,
4.412989,-0.1732,-0.8492,0.0843,6.8858,-8.3745,-3.9169,0.3640,0.1165,-0.2531,
4.446908,-0.1825,-0.8258,0.1578,6.8858,-8.3745,-3.9169,0.3640,0.1165,-0.2531,
4.449722,-0.1642,-0.8253,0.1903,6.8858,-8.3745,-3.9169,0.3640,0.1165,-0.2531,
4.451893,-0.1578,-0.8436,0.2050,6.8858,-8.3745,-3.9169,0.3640,0.1165,-0.2531,
4.467547,-0.1578,-0.8436,0.2050,6.8858,-8.3745,-3.9169,0.2828,0.2057,0.0420,
4.472228,-0.1578,-0.8436,0.2050,7.0816,-8.2904,-2.6520,0.2828,0.2057,0.0420,
4.506326,-0.1656,-0.8732,0.2072,7.0816,-8.2904,-2.6520,0.2828,0.2057,0.0420,
4.508840,-0.1915,-0.8988,0.2228,7.0816,-8.2904,-2.6520,0.2828,0.2057,0.0420,
4.510765,-0.2284,-0.8959,0.2106,7.0816,-8.2904,-2.6520,0.2828,0.2057,0.0420,
4.528094,-0.2284,-0.8959,0.2106,6.4500,-8.7950,-2.4835,0.2828,0.2057,0.0420,
4.531337,-0.2284,-0.8959,0.2106,6.4500,-8.7950,-2.4835,0.0647,0.2179,-0.0802,
4.566587,-0.2704,-0.8627,0.2284,6.4500,-8.7950,-2.4835,0.0647,0.2179,-0.0802,
4.569234,-0.3120,-0.8370,0.2590,6.4500,-8.7950,-2.4835,0.0647,0.2179,-0.0802,
4.570947,-0.3137,-0.8319,0.2773,6.4500,-8.7950,-2.4835,0.0647,0.2179,-0.0802,
4.587186,-0.3137,-0.8319,0.2773,5.6363,-8.0546,-1.7869,0.0647,0.2179,-0.0802,
4.589948,-0.3137,-0.8319,0.2773,5.6363,-8.0546,-1.7869,-0.0838,-0.1229,-0.0478,
4.627748,-0.2939,-0.8541,0.2814,5.6363,-8.0546,-1.7869,-0.0838,-0.1229,-0.0478,
4.631711,-0.2934,-0.8822,0.2494,5.6363,-8.0546,-1.7869,-0.0838,-0.1229,-0.0478,
4.633562,-0.2915,-0.9291,0.2233,5.6363,-8.0546,-1.7869,-0.0838,-0.1229,-0.0478,
4.646960,-0.2915,-0.9291,0.2233,5.6363,-8.0546,-1.7869,-0.1968,-0.2854,0.0182,
4.649695,-0.2915,-0.9291,0.2233,5.7927,-8.8974,-2.4292,-0.1968,-0.2854,0.0182,
4.690570,-0.2336,-0.9909,0.2292,5.7927,-8.8974,-2.4292,-0.1968,-0.2854,0.0182,
4.693503,-0.1500,-1.0464,0.2389,5.7927,-8.8974,-2.4292,-0.1968,-0.2854,0.0182,
4.695227,-0.1070,-1.0923,0.2871,5.7927,-8.8974,-2.4292,-0.1968,-0.2854,0.0182,
4.710669,-0.1070,-1.0923,0.2871,5.7927,-8.8974,-2.4292,-0.1216,-0.1938,-0.0582,
4.713362,-0.1070,-1.0923,0.2871,7.5230,-10.3643,-1.9387,-0.1216,-0.1938,-0.0582,
4.747501,-0.1617,-1.0400,0.3819,7.5230,-10.3643,-1.9387,-0.1216,-0.1938,-0.0582,
4.750717,-0.2487,-0.9467,0.4522,7.5230,-10.3643,-1.9387,-0.1216,-0.1938,-0.0582,
4.752530,-0.3046,-0.8834,0.4476,7.5230,-10.3643,-1.9387,-0.1216,-0.1938,-0.0582,
4.767906,-0.3046,-0.8834,0.4476,7.5230,-10.3643,-1.9387,0.0341,-0.4925,0.4537,
4.772222,-0.3046,-0.8834,0.4476,5.4833,-8.3344,-0.5478,0.0341,-0.4925,0.4537,
4.806949,-0.3218,-0.9643,0.5558,5.4833,-8.3344,-0.5478,0.0341,-0.4925,0.4537,
4.812017,-0.2194,-1.3237,0.3652,5.4833,-8.3344,-0.5478,0.0341,-0.4925,0.4537,
4.813666,-0.2331,-1.4192,-0.0914,5.4833,-8.3344,-0.5478,0.0341,-0.4925,0.4537,
4.827392,-0.2331,-1.4192,-0.0914,6.0304,-13.7435,-6.0928,0.0341,-0.4925,0.4537,
4.829971,-0.2331,-1.4192,-0.0914,6.0304,-13.7435,-6.0928,-0.1846,-0.1248,-0.3648,
4.866884,-0.0882,-1.1080,0.0745,6.0304,-13.7435,-6.0928,-0.1846,-0.1248,-0.3648,
4.870030,-0.0428,-0.9726,0.1735,6.0304,-13.7435,-6.0928,-0.1846,-0.1248,-0.3648,
4.871651,-0.1182,-0.9944,0.1385,6.0304,-13.7435,-6.0928,-0.1846,-0.1248,-0.3648,
4.887508,-0.1182,-0.9944,0.1385,6.0304,-13.7435,-6.0928,-0.1638,-0.4436,-0.2640,
4.891674,-0.1182,-0.9944,0.1385,7.1194,-9.2784,-3.8794,-0.1638,-0.4436,-0.2640,
4.927345,-0.2213,-0.9614,0.1407,7.1194,-9.2784,-3.8794,-0.1638,-0.4436,-0.2640,
4.930156,-0.2634,-0.8751,-0.1102,7.1194,-9.2784,-3.8794,-0.1638,-0.4436,-0.2640,
4.932109,-0.2358,-0.7913,-0.3039,7.1194,-9.2784,-3.8794,-0.1638,-0.4436,-0.2640,
4.947194,-0.2358,-0.7913,-0.3039,7.1194,-9.2784,-3.8794,-0.7075,-0.5603,-0.2995,
4.950769,-0.2358,-0.7913,-0.3039,5.8525,-7.0650,-8.3692,-0.7075,-0.5603,-0.2995,
4.987843,-0.3029,-0.7835,-0.2707,5.8525,-7.0650,-8.3692,-0.7075,-0.5603,-0.2995,
4.991743,-0.2685,-0.8915,-0.2270,5.8525,-7.0650,-8.3692,-0.7075,-0.5603,-0.2995,
4.993257,-0.1661,-1.0808,-0.1138,5.8525,-7.0650,-8.3692,-0.7075,-0.5603,-0.2995,
5.007647,-0.1661,-1.0808,-0.1138,5.8525,-7.0650,-8.3692,-0.4985,-0.3642,-0.5817,
5.012500,-0.1661,-1.0808,-0.1138,6.3233,-9.3537,-6.7204,-0.4985,-0.3642,-0.5817,
5.046868,-0.1586,-1.1524,0.0032,6.3233,-9.3537,-6.7204,-0.4985,-0.3642,-0.5817,
5.049593,-0.2033,-1.1092,0.0156,6.3233,-9.3537,-6.7204,-0.4985,-0.3642,-0.5817,
5.051245,-0.2140,-1.0425,-0.0322,6.3233,-9.3537,-6.7204,-0.4985,-0.3642,-0.5817,
5.067344,-0.2140,-1.0425,-0.0322,6.3233,-9.3537,-6.7204,-0.3898,0.1006,0.6694,
5.070643,-0.2140,-1.0425,-0.0322,5.8371,-8.7849,-5.8987,-0.3898,0.1006,0.6694,
5.107853,-0.2333,-0.9543,-0.0122,5.8371,-8.7849,-5.8987,-0.3898,0.1006,0.6694,
5.112503,-0.2411,-0.8939,-0.0134,5.8371,-8.7849,-5.8987,-0.3898,0.1006,0.6694,
5.114852,-0.2270,-0.8644,-0.0059,5.8371,-8.7849,-5.8987,-0.3898,0.1006,0.6694,
5.131777,-0.2270,-0.8644,-0.0059,5.7933,-7.1170,-5.5398,-0.3898,0.1006,0.6694,
5.134827,-0.2270,-0.8644,-0.0059,5.7933,-7.1170,-5.5398,-0.4002,0.1031,0.2387,
5.167491,-0.2111,-0.8514,-0.0147,5.7933,-7.1170,-5.5398,-0.4002,0.1031,0.2387,
5.171240,-0.2184,-0.8522,-0.0393,5.7933,-7.1170,-5.5398,-0.4002,0.1031,0.2387,
5.173025,-0.2604,-0.8568,-0.0264,5.7933,-7.1170,-5.5398,-0.4002,0.1031,0.2387,
5.187451,-0.2604,-0.8568,-0.0264,5.7933,-7.1170,-5.5398,-0.5156,-0.0380,-0.3374,
5.190593,-0.2604,-0.8568,-0.0264,5.4763,-6.7928,-5.6568,-0.5156,-0.0380,-0.3374,
5.228672,-0.3259,-0.8883,-0.0064,5.4763,-6.7928,-5.6568,-0.5156,-0.0380,-0.3374,
5.231601,-0.3362,-0.9399,0.0266,5.4763,-6.7928,-5.6568,-0.5156,-0.0380,-0.3374,
5.233290,-0.3215,-0.9890,0.0584,5.4763,-6.7928,-5.6568,-0.5156,-0.0380,-0.3374,
5.247397,-0.3215,-0.9890,0.0584,4.8076,-7.7450,-4.8170,-0.5156,-0.0380,-0.3374,
5.250739,-0.3215,-0.9890,0.0584,4.8076,-7.7450,-4.8170,-0.3470,-0.1510,-0.1339,
5.287282,-0.3196,-1.0029,0.0452,4.8076,-7.7450,-4.8170,-0.3470,-0.1510,-0.1339,
5.291477,-0.2973,-0.9785,0.0359,4.8076,-7.7450,-4.8170,-0.3470,-0.1510,-0.1339,
5.293404,-0.2690,-0.9465,0.0215,4.8076,-7.7450,-4.8170,-0.3470,-0.1510,-0.1339,
5.307498,-0.2690,-0.9465,0.0215,5.2625,-7.1722,-5.2077,-0.3470,-0.1510,-0.1339,
5.312494,-0.2690,-0.9465,0.0215,5.2625,-7.1722,-5.2077,-0.1210,-0.1724,-0.0331,
5.347690,-0.2489,-0.9477,0.0068,5.2625,-7.1722,-5.2077,-0.1210,-0.1724,-0.0331,
5.350612,-0.2555,-0.9799,0.0010,5.2625,-7.1722,-5.2077,-0.1210,-0.1724,-0.0331,
5.352149,-0.2646,-1.0232,-0.0088,5.2625,-7.1722,-5.2077,-0.1210,-0.1724,-0.0331,
5.367121,-0.2646,-1.0232,-0.0088,5.2625,-7.1722,-5.2077,0.0011,-0.0759,-0.1901,
5.369364,-0.2646,-1.0232,-0.0088,5.2443,-7.7852,-5.5379,0.0011,-0.0759,-0.1901,
5.407512,-0.2387,-1.0259,0.0100,5.2443,-7.7852,-5.5379,0.0011,-0.0759,-0.1901,
5.410678,-0.2130,-1.0183,0.0662,5.2443,-7.7852,-5.5379,0.0011,-0.0759,-0.1901,
5.412543,-0.2521,-1.0222,0.0862,5.2443,-7.7852,-5.5379,0.0011,-0.0759,-0.1901,
5.430085,-0.2521,-1.0222,0.0862,5.3390,-7.6196,-4.5794,0.0011,-0.0759,-0.1901,
5.432538,-0.2521,-1.0222,0.0862,5.3390,-7.6196,-4.5794,0.0696,0.2521,-0.2243,
5.467767,-0.3325,-0.9968,0.0958,5.3390,-7.6196,-4.5794,0.0696,0.2521,-0.2243,
5.471867,-0.4021,-0.9506,0.0923,5.3390,-7.6196,-4.5794,0.0696,0.2521,-0.2243,
5.473603,-0.4630,-0.9076,-0.0784,5.3390,-7.6196,-4.5794,0.0696,0.2521,-0.2243,
5.488663,-0.4630,-0.9076,-0.0784,3.3208,-6.3608,-6.0604,0.0696,0.2521,-0.2243,
5.492035,-0.4630,-0.9076,-0.0784,3.3208,-6.3608,-6.0604,-0.1839,-0.0154,-0.2103,
5.527952,-0.5597,-1.1466,-0.1297,3.3208,-6.3608,-6.0604,-0.1839,-0.0154,-0.2103,
5.531658,-0.5944,-1.3303,-0.2509,3.3208,-6.3608,-6.0604,-0.1839,-0.0154,-0.2103,
5.533574,-0.4090,-1.1263,-0.1786,3.3208,-6.3608,-6.0604,-0.1839,-0.0154,-0.2103,
5.547863,-0.4090,-1.1263,-0.1786,3.3208,-6.3608,-6.0604,-0.0050,-0.9116,0.1587,
5.550636,-0.4090,-1.1263,-0.1786,3.7031,-8.4163,-7.2127,-0.0050,-0.9116,0.1587,
5.587444,-0.2573,-1.0163,-0.2438,3.7031,-8.4163,-7.2127,-0.0050,-0.9116,0.1587,
5.590576,-0.1505,-0.9306,-0.2475,3.7031,-8.4163,-7.2127,-0.0050,-0.9116,0.1587,
5.592154,-0.0581,-0.8265,-0.2121,3.7031,-8.4163,-7.2127,-0.0050,-0.9116,0.1587,
5.607439,-0.0581,-0.8265,-0.2121,6.7380,-5.5228,-8.0886,-0.0050,-0.9116,0.1587,
5.610529,-0.0581,-0.8265,-0.2121,6.7380,-5.5228,-8.0886,0.3616,-1.4809,-0.0588,
5.647592,0.0545,-0.8033,-0.0845,6.7380,-5.5228,-8.0886,0.3616,-1.4809,-0.0588,
5.651127,0.0777,-0.9294,0.0757,6.7380,-5.5228,-8.0886,0.3616,-1.4809,-0.0588,
5.652792,-0.0384,-1.1045,-0.0042,6.7380,-5.5228,-8.0886,0.3616,-1.4809,-0.0588,
5.667640,-0.0384,-1.1045,-0.0042,6.4773,-8.3608,-6.6084,0.3616,-1.4809,-0.0588,
5.671065,-0.0384,-1.1045,-0.0042,6.4773,-8.3608,-6.6084,0.5900,-0.8144,0.2137,
5.707193,-0.1918,-1.2140,-0.0511,6.4773,-8.3608,-6.6084,0.5900,-0.8144,0.2137,
5.710444,-0.3381,-1.2333,-0.0569,6.4773,-8.3608,-6.6084,0.5900,-0.8144,0.2137,
5.712411,-0.4292,-1.1427,-0.0931,6.4773,-8.3608,-6.6084,0.5900,-0.8144,0.2137,
5.729671,-0.4292,-1.1427,-0.0931,6.4773,-8.3608,-6.6084,0.3744,-1.4479,0.6449,
5.733959,-0.4292,-1.1427,-0.0931,2.3014,-9.0846,-7.9371,0.3744,-1.4479,0.6449,
5.767105,-0.3833,-1.0200,-0.0735,2.3014,-9.0846,-7.9371,0.3744,-1.4479,0.6449,
5.770328,-0.2746,-0.9562,-0.0220,2.3014,-9.0846,-7.9371,0.3744,-1.4479,0.6449,
5.771906,-0.1994,-0.9250,-0.0144,2.3014,-9.0846,-7.9371,0.3744,-1.4479,0.6449,
5.787457,-0.1994,-0.9250,-0.0144,2.3014,-9.0846,-7.9371,0.1881,-1.7179,-0.2726,
5.790548,-0.1994,-0.9250,-0.0144,3.8971,-7.1166,-7.7665,0.1881,-1.7179,-0.2726,
5.827132,-0.2130,-0.8983,0.0283,3.8971,-7.1166,-7.7665,0.1881,-1.7179,-0.2726,
5.830073,-0.2509,-0.8778,0.0428,3.8971,-7.1166,-7.7665,0.1881,-1.7179,-0.2726,
5.831395,-0.2766,-0.8585,0.0213,3.8971,-7.1166,-7.7665,0.1881,-1.7179,-0.2726,
5.848538,-0.2766,-0.8585,0.0213,3.8971,-7.1166,-7.7665,-0.1155,-2.2659,0.4678,
5.851317,-0.2766,-0.8585,0.0213,2.2238,-6.4278,-8.0308,-0.1155,-2.2659,0.4678,
5.887060,-0.2448,-0.8749,0.0804,2.2238,-6.4278,-8.0308,-0.1155,-2.2659,0.4678,
5.890044,-0.2028,-0.8881,0.0792,2.2238,-6.4278,-8.0308,-0.1155,-2.2659,0.4678,
5.891083,-0.2025,-0.8949,0.0633,2.2238,-6.4278,-8.0308,-0.1155,-2.2659,0.4678,
5.907099,-0.2025,-0.8949,0.0633,2.2238,-6.4278,-8.0308,-0.3751,-2.2176,0.3651,
5.909840,-0.2025,-0.8949,0.0633,1.8344,-6.7478,-8.1830,-0.3751,-2.2176,0.3651,
5.947147,-0.1994,-0.8900,0.0406,1.8344,-6.7478,-8.1830,-0.3751,-2.2176,0.3651,
5.950038,-0.1463,-0.8798,0.0650,1.8344,-6.7478,-8.1830,-0.3751,-2.2176,0.3651,
5.951730,-0.0501,-0.8900,0.0694,1.8344,-6.7478,-8.1830,-0.3751,-2.2176,0.3651,
5.967370,-0.0501,-0.8900,0.0694,2.4042,-6.4156,-8.4012,-0.3751,-2.2176,0.3651,
5.970591,-0.0501,-0.8900,0.0694,2.4042,-6.4156,-8.4012,-0.5315,-1.4839,-0.0783,
6.009344,-0.0235,-0.9049,0.1290,2.4042,-6.4156,-8.4012,-0.5315,-1.4839,-0.0783,
6.012090,-0.1048,-0.9206,0.2509,2.4042,-6.4156,-8.4012,-0.5315,-1.4839,-0.0783,
6.013741,-0.1837,-0.9704,0.2634,2.4042,-6.4156,-8.4012,-0.5315,-1.4839,-0.0783,
6.030448,-0.1837,-0.9704,0.2634,2.4042,-6.4156,-8.4012,0.0635,-1.7417,0.1886,
6.033753,-0.1837,-0.9704,0.2634,0.1830,-6.9479,-6.6749,0.0635,-1.7417,0.1886,
6.068849,-0.2191,-1.0144,0.1893,0.1830,-6.9479,-6.6749,0.0635,-1.7417,0.1886,
6.073466,-0.2441,-1.0237,0.1363,0.1830,-6.9479,-6.6749,0.0635,-1.7417,0.1886,
6.075206,-0.2883,-1.0102,0.1615,0.1830,-6.9479,-6.6749,0.0635,-1.7417,0.1886,
6.087124,-0.2883,-1.0102,0.1615,-1.7300,-7.3867,-7.8330,0.0635,-1.7417,0.1886,
6.090452,-0.2883,-1.0102,0.1615,-1.7300,-7.3867,-7.8330,0.1355,-1.5169,0.5490,
6.127109,-0.3071,-0.9956,0.2052,-1.7300,-7.3867,-7.8330,0.1355,-1.5169,0.5490,
6.132395,-0.3452,-0.9558,0.2543,-1.7300,-7.3867,-7.8330,0.1355,-1.5169,0.5490,
6.134072,-0.3801,-0.8993,0.3046,-1.7300,-7.3867,-7.8330,0.1355,-1.5169,0.5490,
6.150351,-0.3801,-0.8993,0.3046,-3.3251,-6.2801,-6.4798,0.1355,-1.5169,0.5490,
6.152841,-0.3801,-0.8993,0.3046,-3.3251,-6.2801,-6.4798,-0.1876,-1.3990,0.9125,
6.187054,-0.4060,-0.8324,0.3369,-3.3251,-6.2801,-6.4798,-0.1876,-1.3990,0.9125,
6.190023,-0.3723,-0.7745,0.3252,-3.3251,-6.2801,-6.4798,-0.1876,-1.3990,0.9125,
6.191989,-0.3215,-1.0071,0.4515,-3.3251,-6.2801,-6.4798,-0.1876,-1.3990,0.9125,
6.208045,-0.3215,-1.0071,0.4515,-3.3251,-6.2801,-6.4798,-0.3183,-1.6287,0.4537,
6.211499,-0.3215,-1.0071,0.4515,-3.4352,-7.0858,-4.9746,-0.3183,-1.6287,0.4537,
6.246858,-0.3266,-1.3530,-0.0220,-3.4352,-7.0858,-4.9746,-0.3183,-1.6287,0.4537,
6.249796,-0.2028,-1.4414,-0.2851,-3.4352,-7.0858,-4.9746,-0.3183,-1.6287,0.4537,
6.251755,-0.1085,-1.1390,0.0498,-3.4352,-7.0858,-4.9746,-0.3183,-1.6287,0.4537,
6.267604,-0.1085,-1.1390,0.0498,-2.1233,-7.9284,-8.7089,-0.3183,-1.6287,0.4537,
6.270015,-0.1085,-1.1390,0.0498,-2.1233,-7.9284,-8.7089,-0.9390,-1.1883,-0.3661,
6.306186,-0.1236,-1.0107,0.2018,-2.1233,-7.9284,-8.7089,-0.9390,-1.1883,-0.3661,
6.308401,-0.1341,-0.9260,0.1402,-2.1233,-7.9284,-8.7089,-0.9390,-1.1883,-0.3661,
6.309782,-0.0623,-0.8790,-0.0095,-2.1233,-7.9284,-8.7089,-0.9390,-1.1883,-0.3661,
6.327161,-0.0623,-0.8790,-0.0095,-2.3642,-4.9462,-9.0173,-0.9390,-1.1883,-0.3661,
6.329416,-0.0623,-0.8790,-0.0095,-2.3642,-4.9462,-9.0173,-0.7411,-1.2732,-0.0246,
6.367267,-0.0667,-0.8270,-0.1556,-2.3642,-4.9462,-9.0173,-0.7411,-1.2732,-0.0246,
6.369363,-0.1573,-0.7987,-0.2411,-2.3642,-4.9462,-9.0173,-0.7411,-1.2732,-0.0246,
6.370598,-0.2397,-0.8255,-0.3291,-2.3642,-4.9462,-9.0173,-0.7411,-1.2732,-0.0246,
6.388294,-0.2397,-0.8255,-0.3291,-4.7514,-3.8495,-11.7346,-0.7411,-1.2732,-0.0246,
6.390577,-0.2397,-0.8255,-0.3291,-4.7514,-3.8495,-11.7346,-1.2029,-1.3569,-0.2359,
6.427175,-0.2895,-0.9267,-0.3166,-4.7514,-3.8495,-11.7346,-1.2029,-1.3569,-0.2359,
6.429188,-0.2646,-1.0212,-0.1107,-4.7514,-3.8495,-11.7346,-1.2029,-1.3569,-0.2359,
6.430390,-0.2707,-1.0857,-0.0252,-4.7514,-3.8495,-11.7346,-1.2029,-1.3569,-0.2359,
6.448615,-0.2707,-1.0857,-0.0252,-5.8169,-5.9044,-8.2298,-1.2029,-1.3569,-0.2359,
6.450962,-0.2707,-1.0857,-0.0252,-5.8169,-5.9044,-8.2298,-0.6445,-1.2121,-0.2133,
6.486971,-0.3176,-1.1109,-0.0542,-5.8169,-5.9044,-8.2298,-0.6445,-1.2121,-0.2133,
6.488841,-0.3276,-1.0764,-0.0618,-5.8169,-5.9044,-8.2298,-0.6445,-1.2121,-0.2133,
6.490086,-0.2861,-1.0027,-0.0574,-5.8169,-5.9044,-8.2298,-0.6445,-1.2121,-0.2133,
6.507259,-0.2861,-1.0027,-0.0574,-5.8169,-5.9044,-8.2298,-0.7307,-1.3025,0.6321,
6.510097,-0.2861,-1.0027,-0.0574,-6.4349,-4.6759,-8.0766,-0.7307,-1.3025,0.6321,
6.548400,-0.2788,-0.9567,-0.0589,-6.4349,-4.6759,-8.0766,-0.7307,-1.3025,0.6321,
6.549990,-0.2318,-0.9208,-0.0836,-6.4349,-4.6759,-8.0766,-0.7307,-1.3025,0.6321,
6.550874,-0.1864,-0.8883,-0.1185,-6.4349,-4.6759,-8.0766,-0.7307,-1.3025,0.6321,
6.566667,-0.1864,-0.8883,-0.1185,-6.4349,-4.6759,-8.0766,-0.8076,-1.2121,0.0414,
6.568289,-0.1864,-0.8883,-0.1185,-5.8286,-3.0579,-8.1081,-0.8076,-1.2121,0.0414,
6.606696,-0.1991,-0.8734,-0.0828,-5.8286,-3.0579,-8.1081,-0.8076,-1.2121,0.0414,
6.609009,-0.2428,-0.9005,-0.0713,-5.8286,-3.0579,-8.1081,-0.8076,-1.2121,0.0414,
6.610837,-0.2489,-0.9189,-0.0799,-5.8286,-3.0579,-8.1081,-0.8076,-1.2121,0.0414,
6.626485,-0.2489,-0.9189,-0.0799,-5.8286,-3.0579,-8.1081,-0.6439,-1.1541,-0.2830,
6.628731,-0.2489,-0.9189,-0.0799,-6.9311,-3.0457,-7.1457,-0.6439,-1.1541,-0.2830,
6.667242,-0.2345,-0.9426,-0.0689,-6.9311,-3.0457,-7.1457,-0.6439,-1.1541,-0.2830,
6.672763,-0.2284,-0.9968,-0.0484,-6.9311,-3.0457,-7.1457,-0.6439,-1.1541,-0.2830,
6.674390,-0.2348,-1.0488,-0.0415,-6.9311,-3.0457,-7.1457,-0.6439,-1.1541,-0.2830,
6.687078,-0.2348,-1.0488,-0.0415,-6.9311,-3.0457,-7.1457,-0.3825,-0.8095,-0.0350,
6.689889,-0.2348,-1.0488,-0.0415,-7.2346,-4.1435,-6.2541,-0.3825,-0.8095,-0.0350,
6.727151,-0.2548,-1.0420,-0.0618,-7.2346,-4.1435,-6.2541,-0.3825,-0.8095,-0.0350,
6.729991,-0.2626,-0.9809,-0.0684,-7.2346,-4.1435,-6.2541,-0.3825,-0.8095,-0.0350,
6.732516,-0.2775,-0.9423,-0.0728,-7.2346,-4.1435,-6.2541,-0.3825,-0.8095,-0.0350,
6.748240,-0.2775,-0.9423,-0.0728,-7.2346,-4.1435,-6.2541,-0.3263,-0.5182,0.0701,
6.753435,-0.2775,-0.9423,-0.0728,-7.8165,-2.9094,-6.2075,-0.3263,-0.5182,0.0701,
6.786565,-0.2753,-0.9311,-0.0828,-7.8165,-2.9094,-6.2075,-0.3263,-0.5182,0.0701,
6.789563,-0.2932,-0.9633,-0.0760,-7.8165,-2.9094,-6.2075,-0.3263,-0.5182,0.0701,
6.791291,-0.2717,-1.0097,-0.0486,-7.8165,-2.9094,-6.2075,-0.3263,-0.5182,0.0701,
6.807993,-0.2717,-1.0097,-0.0486,-7.9362,-3.4477,-5.6516,-0.3263,-0.5182,0.0701,
6.811001,-0.2717,-1.0097,-0.0486,-7.9362,-3.4477,-5.6516,-0.1626,-0.6636,-0.2231,
6.847302,-0.2438,-1.0215,-0.0369,-7.9362,-3.4477,-5.6516,-0.1626,-0.6636,-0.2231,
6.850370,-0.2565,-1.0293,-0.0716,-7.9362,-3.4477,-5.6516,-0.1626,-0.6636,-0.2231,
6.852147,-0.3044,-1.0171,-0.0806,-7.9362,-3.4477,-5.6516,-0.1626,-0.6636,-0.2231,
6.867494,-0.3044,-1.0171,-0.0806,-8.5104,-3.5310,-5.7087,-0.1626,-0.6636,-0.2231,
6.870338,-0.3044,-1.0171,-0.0806,-8.5104,-3.5310,-5.7087,-0.1577,-0.5444,-0.2500,
6.907056,-0.3572,-1.0005,-0.0266,-8.5104,-3.5310,-5.7087,-0.1577,-0.5444,-0.2500,
6.910486,-0.3660,-1.0071,0.0178,-8.5104,-3.5310,-5.7087,-0.1577,-0.5444,-0.2500,
6.912074,-0.3638,-1.0002,-0.0098,-8.5104,-3.5310,-5.7087,-0.1577,-0.5444,-0.2500,
6.927231,-0.3638,-1.0002,-0.0098,-8.5104,-3.5310,-5.7087,-0.1155,-0.3093,-0.2207,
6.929654,-0.3638,-1.0002,-0.0098,-9.2666,-3.3532,-4.7940,-0.1155,-0.3093,-0.2207,
6.967436,-0.3955,-1.0579,-0.1021,-9.2666,-3.3532,-4.7940,-0.1155,-0.3093,-0.2207,
6.970832,-0.4842,-1.2067,-0.1546,-9.2666,-3.3532,-4.7940,-0.1155,-0.3093,-0.2207,
6.972766,-0.4471,-1.0950,-0.1732,-9.2666,-3.3532,-4.7940,-0.1155,-0.3093,-0.2207,
6.987692,-0.4471,-1.0950,-0.1732,-10.2279,-4.2716,-6.1989,-0.1155,-0.3093,-0.2207,
6.991678,-0.4471,-1.0950,-0.1732,-10.2279,-4.2716,-6.1989,-0.1601,-0.5646,-0.0338,
7.027447,-0.3713,-0.9768,-0.1566,-10.2279,-4.2716,-6.1989,-0.1601,-0.5646,-0.0338,
7.030395,-0.3274,-0.9687,-0.2287,-10.2279,-4.2716,-6.1989,-0.1601,-0.5646,-0.0338,
7.032885,-0.2609,-0.9785,-0.2096,-10.2279,-4.2716,-6.1989,-0.1601,-0.5646,-0.0338,
7.047210,-0.2609,-0.9785,-0.2096,-10.2279,-4.2716,-6.1989,-0.0025,-1.1400,-0.2695,
7.049237,-0.2609,-0.9785,-0.2096,-8.6304,-3.0942,-6.1895,-0.0025,-1.1400,-0.2695,
7.087187,-0.1627,-0.9360,-0.1901,-8.6304,-3.0942,-6.1895,-0.0025,-1.1400,-0.2695,
7.090255,-0.0796,-0.8981,-0.2177,-8.6304,-3.0942,-6.1895,-0.0025,-1.1400,-0.2695,
7.091574,-0.0076,-0.8629,-0.2568,-8.6304,-3.0942,-6.1895,-0.0025,-1.1400,-0.2695,
7.108752,-0.0076,-0.8629,-0.2568,-8.6304,-3.0942,-6.1895,0.4196,-1.4235,-0.2347,
7.111655,-0.0076,-0.8629,-0.2568,-6.5213,-2.0638,-6.2227,0.4196,-1.4235,-0.2347,
7.146838,0.0298,-0.8619,-0.1571,-6.5213,-2.0638,-6.2227,0.4196,-1.4235,-0.2347,
7.149663,-0.0318,-0.9790,-0.0811,-6.5213,-2.0638,-6.2227,0.4196,-1.4235,-0.2347,
7.151391,-0.1143,-1.1182,-0.1380,-6.5213,-2.0638,-6.2227,0.4196,-1.4235,-0.2347,
7.167690,-0.1143,-1.1182,-0.1380,-6.5213,-2.0638,-6.2227,0.6676,-1.3514,0.4421,
7.171428,-0.1143,-1.1182,-0.1380,-7.8335,-4.6475,-4.7108,0.6676,-1.3514,0.4421,
7.207146,-0.1681,-1.1893,-0.1209,-7.8335,-4.6475,-4.7108,0.6676,-1.3514,0.4421,
7.210850,-0.2257,-1.2191,-0.0450,-7.8335,-4.6475,-4.7108,0.6676,-1.3514,0.4421,
7.212727,-0.2411,-1.1900,-0.0327,-7.8335,-4.6475,-4.7108,0.6676,-1.3514,0.4421,
7.226752,-0.2411,-1.1900,-0.0327,-7.8335,-4.6475,-4.7108,0.6022,-1.2201,0.6779,
7.229390,-0.2411,-1.1900,-0.0327,-9.0594,-5.1765,-3.3641,0.6022,-1.2201,0.6779,
7.267257,-0.1827,-1.0718,0.0213,-9.0594,-5.1765,-3.3641,0.6022,-1.2201,0.6779,
7.270201,-0.1466,-0.9562,0.0210,-9.0594,-5.1765,-3.3641,0.6022,-1.2201,0.6779,
7.271937,-0.1578,-0.8834,0.0100,-9.0594,-5.1765,-3.3641,0.6022,-1.2201,0.6779,
7.288740,-0.1578,-0.8834,0.0100,-8.2543,-2.0720,-2.6957,0.6022,-1.2201,0.6779,
7.291722,-0.1578,-0.8834,0.0100,-8.2543,-2.0720,-2.6957,0.4593,-1.3465,0.0878,
7.326927,-0.2196,-0.8353,0.0520,-8.2543,-2.0720,-2.6957,0.4593,-1.3465,0.0878,
7.330406,-0.2494,-0.8536,0.0960,-8.2543,-2.0720,-2.6957,0.4593,-1.3465,0.0878,
7.332602,-0.2187,-0.8859,0.0963,-8.2543,-2.0720,-2.6957,0.4593,-1.3465,0.0878,
7.348023,-0.2187,-0.8859,0.0963,-8.9721,-2.0515,-1.4172,0.4593,-1.3465,0.0878,
7.351782,-0.2187,-0.8859,0.0963,-8.9721,-2.0515,-1.4172,0.3286,-1.3832,0.2424,
7.387509,-0.1412,-0.8932,0.1021,-8.9721,-2.0515,-1.4172,0.3286,-1.3832,0.2424,
7.390332,-0.1273,-0.8908,0.0994,-8.9721,-2.0515,-1.4172,0.3286,-1.3832,0.2424,
7.391952,-0.1151,-0.8746,0.1251,-8.9721,-2.0515,-1.4172,0.3286,-1.3832,0.2424,
7.406829,-0.1151,-0.8746,0.1251,-8.9721,-2.0515,-1.4172,0.1355,-0.6312,0.1403,
7.409807,-0.1151,-0.8746,0.1251,-7.9877,-1.8522,-0.7643,0.1355,-0.6312,0.1403,
7.446587,-0.1043,-0.8378,0.1341,-7.9877,-1.8522,-0.7643,0.1355,-0.6312,0.1403,
7.449389,-0.1121,-0.8133,0.1437,-7.9877,-1.8522,-0.7643,0.1355,-0.6312,0.1403,
7.451214,-0.1121,-0.8097,0.1994,-7.9877,-1.8522,-0.7643,0.1355,-0.6312,0.1403,
7.468573,-0.1121,-0.8097,0.1994,-7.9877,-1.8522,-0.7643,-0.2731,-0.1755,0.0493,
7.471302,-0.1121,-0.8097,0.1994,-7.9192,-1.1308,0.1203,-0.2731,-0.1755,0.0493,
7.506392,-0.1239,-0.8285,0.2883,-7.9192,-1.1308,0.1203,-0.2731,-0.1755,0.0493,
7.509235,-0.1429,-0.8485,0.3166,-7.9192,-1.1308,0.1203,-0.2731,-0.1755,0.0493,
7.510994,-0.1578,-0.8910,0.3005,-7.9192,-1.1308,0.1203,-0.2731,-0.1755,0.0493,
7.527002,-0.1578,-0.8910,0.3005,-7.9192,-1.1308,0.1203,0.1019,-0.3514,0.1080,
7.529567,-0.1578,-0.8910,0.3005,-8.3454,-1.8672,1.2650,0.1019,-0.3514,0.1080,
7.567603,-0.1910,-0.9545,0.2299,-8.3454,-1.8672,1.2650,0.1019,-0.3514,0.1080,
7.571300,-0.2402,-1.0427,0.1598,-8.3454,-1.8672,1.2650,0.1019,-0.3514,0.1080,
7.572982,-0.2802,-1.1011,0.1918,-8.3454,-1.8672,1.2650,0.1019,-0.3514,0.1080,
7.587385,-0.2802,-1.1011,0.1918,-9.4525,-3.8201,0.2666,0.1019,-0.3514,0.1080,
7.590707,-0.2802,-1.1011,0.1918,-9.4525,-3.8201,0.2666,-0.2182,0.0273,0.2698,
7.627352,-0.3056,-1.1334,0.3007,-9.4525,-3.8201,0.2666,-0.2182,0.0273,0.2698,
7.629872,-0.3196,-1.1014,0.4029,-9.4525,-3.8201,0.2666,-0.2182,0.0273,0.2698,
7.631262,-0.3347,-1.0068,0.4608,-9.4525,-3.8201,0.2666,-0.2182,0.0273,0.2698,
7.649498,-0.3347,-1.0068,0.4608,-9.8367,-2.7320,3.0068,-0.2182,0.0273,0.2698,
7.653621,-0.3347,-1.0068,0.4608,-9.8367,-2.7320,3.0068,-0.2273,-0.1816,0.3028,
7.686463,-0.3550,-1.0300,0.5690,-9.8367,-2.7320,3.0068,-0.2273,-0.1816,0.3028,
7.689248,-0.2824,-1.3186,0.1845,-9.8367,-2.7320,3.0068,-0.2273,-0.1816,0.3028,
7.691875,-0.2050,-1.3100,-0.1583,-9.8367,-2.7320,3.0068,-0.2273,-0.1816,0.3028,
7.706916,-0.2050,-1.3100,-0.1583,-9.8367,-2.7320,3.0068,-0.5071,0.0713,-0.4241,
7.709981,-0.2050,-1.3100,-0.1583,-8.5700,-5.6879,-2.9640,-0.5071,0.0713,-0.4241,
7.747281,0.0337,-1.0396,0.0435,-8.5700,-5.6879,-2.9640,-0.5071,0.0713,-0.4241,
7.750365,0.0845,-0.9685,0.2573,-8.5700,-5.6879,-2.9640,-0.5071,0.0713,-0.4241,
7.752194,-0.0469,-1.0225,0.1637,-8.5700,-5.6879,-2.9640,-0.5071,0.0713,-0.4241,
7.767276,-0.0469,-1.0225,0.1637,-7.1893,-2.9954,0.3644,-0.5071,0.0713,-0.4241,
7.770397,-0.0469,-1.0225,0.1637,-7.1893,-2.9954,0.3644,0.0543,-0.1333,-0.0441,
7.806663,-0.2174,-0.9577,-0.0579,-7.1893,-2.9954,0.3644,0.0543,-0.1333,-0.0441,
7.808638,-0.1705,-0.8488,-0.3068,-7.1893,-2.9954,0.3644,0.0543,-0.1333,-0.0441,
7.809964,-0.1952,-0.8053,-0.3762,-7.1893,-2.9954,0.3644,0.0543,-0.1333,-0.0441,
7.827371,-0.1952,-0.8053,-0.3762,-7.1893,-2.9954,0.3644,-0.7453,-0.3502,0.1184,
7.829789,-0.1952,-0.8053,-0.3762,-8.5026,-0.7149,-4.8020,-0.7453,-0.3502,0.1184,
7.867543,-0.2834,-0.8319,-0.3408,-8.5026,-0.7149,-4.8020,-0.7453,-0.3502,0.1184,
7.871557,-0.2140,-0.9448,-0.2211,-8.5026,-0.7149,-4.8020,-0.7453,-0.3502,0.1184,
7.873349,-0.0728,-1.0574,-0.1009,-8.5026,-0.7149,-4.8020,-0.7453,-0.3502,0.1184,
7.889830,-0.0728,-1.0574,-0.1009,-7.3577,-3.1840,-1.6916,-0.7453,-0.3502,0.1184,
7.892406,-0.0728,-1.0574,-0.1009,-7.3577,-3.1840,-1.6916,-0.2096,-0.1168,-0.3538,
7.927195,-0.0665,-1.1111,-0.0078,-7.3577,-3.1840,-1.6916,-0.2096,-0.1168,-0.3538,
7.930134,-0.0911,-1.0979,-0.0396,-7.3577,-3.1840,-1.6916,-0.2096,-0.1168,-0.3538,
7.931328,-0.1268,-1.0354,-0.0960,-7.3577,-3.1840,-1.6916,-0.2096,-0.1168,-0.3538,
7.947224,-0.1268,-1.0354,-0.0960,-7.3577,-3.1840,-1.6916,-0.0777,0.6223,0.6370,
7.950144,-0.1268,-1.0354,-0.0960,-7.7909,-2.8882,-1.7159,-0.0777,0.6223,0.6370,
7.988101,-0.1402,-0.9550,-0.1009,-7.7909,-2.8882,-1.7159,-0.0777,0.6223,0.6370,
7.991765,-0.1730,-0.8925,-0.0919,-7.7909,-2.8882,-1.7159,-0.0777,0.6223,0.6370,
7.993897,-0.1737,-0.8798,-0.0809,-7.7909,-2.8882,-1.7159,-0.0777,0.6223,0.6370,
8.008558,-0.1737,-0.8798,-0.0809,-7.7909,-2.8882,-1.7159,-0.0575,1.0713,0.2686,
8.011708,-0.1737,-0.8798,-0.0809,-7.8998,-1.0935,-1.8340,-0.0575,1.0713,0.2686,
8.047043,-0.1678,-0.8717,-0.0726,-7.8998,-1.0935,-1.8340,-0.0575,1.0713,0.2686,
8.049804,-0.1801,-0.8783,-0.0843,-7.8998,-1.0935,-1.8340,-0.0575,1.0713,0.2686,
8.051727,-0.2338,-0.9096,-0.0923,-7.8998,-1.0935,-1.8340,-0.0575,1.0713,0.2686,
8.066975,-0.2338,-0.9096,-0.0923,-8.3789,-1.3590,-2.3312,-0.0575,1.0713,0.2686,
8.070599,-0.2338,-0.9096,-0.0923,-8.3789,-1.3590,-2.3312,-0.0893,1.0878,-0.2408,
8.106543,-0.3032,-0.9565,-0.0601,-8.3789,-1.3590,-2.3312,-0.0893,1.0878,-0.2408,
8.109322,-0.3147,-1.0073,-0.0105,-8.3789,-1.3590,-2.3312,-0.0893,1.0878,-0.2408,
8.111168,-0.2839,-1.0354,0.0012,-8.3789,-1.3590,-2.3312,-0.0893,1.0878,-0.2408,
8.127242,-0.2839,-1.0354,0.0012,-8.3789,-1.3590,-2.3312,0.0005,1.1562,0.0151,
8.130049,-0.2839,-1.0354,0.0012,-8.7840,-2.6037,-1.7896,0.0005,1.1562,0.0151,
8.167549,-0.2685,-1.0278,0.0217,-8.7840,-2.6037,-1.7896,0.0005,1.1562,0.0151,
8.170668,-0.2729,-1.0010,0.0357,-8.7840,-2.6037,-1.7896,0.0005,1.1562,0.0151,
8.173057,-0.2543,-0.9482,0.0308,-8.7840,-2.6037,-1.7896,0.0005,1.1562,0.0151,
8.187211,-0.2543,-0.9482,0.0308,-8.7840,-2.6037,-1.7896,0.0494,1.1672,0.1251,
8.190114,-0.2543,-0.9482,0.0308,-8.2606,-1.6774,-1.9146,0.0494,1.1672,0.1251,
8.227097,-0.2602,-0.9108,0.0247,-8.2606,-1.6774,-1.9146,0.0494,1.1672,0.1251,
8.230326,-0.2697,-0.9240,0.0176,-8.2606,-1.6774,-1.9146,0.0494,1.1672,0.1251,
8.231809,-0.2785,-0.9511,0.0271,-8.2606,-1.6774,-1.9146,0.0494,1.1672,0.1251,
8.247716,-0.2785,-0.9511,0.0271,-8.3187,-1.7113,-2.3843,0.0494,1.1672,0.1251,
8.252856,-0.2785,-0.9511,0.0271,-8.3187,-1.7113,-2.3843,0.1991,1.1623,-0.2158,
8.286804,-0.2802,-0.9746,0.0142,-8.3187,-1.7113,-2.3843,0.1991,1.1623,-0.2158,
8.289717,-0.2883,-1.0007,-0.0039,-8.3187,-1.7113,-2.3843,0.1991,1.1623,-0.2158,
8.291269,-0.2897,-0.9919,0.0032,-8.3187,-1.7113,-2.3843,0.1991,1.1623,-0.2158,
8.308328,-0.2897,-0.9919,0.0032,-8.3187,-1.7113,-2.3843,0.1697,1.2729,-0.0851,
8.311249,-0.2897,-0.9919,0.0032,-8.2639,-2.1737,-3.0974,0.1697,1.2729,-0.0851,
8.346787,-0.3029,-0.9865,0.0244,-8.2639,-2.1737,-3.0974,0.1697,1.2729,-0.0851,
8.350105,-0.3244,-0.9968,0.0547,-8.2639,-2.1737,-3.0974,0.1697,1.2729,-0.0851,
8.352539,-0.3486,-0.9682,0.0696,-8.2639,-2.1737,-3.0974,0.1697,1.2729,-0.0851,
8.369314,-0.3486,-0.9682,0.0696,-8.2639,-2.1737,-3.0974,0.0427,1.3572,-0.0954,
8.372029,-0.3486,-0.9682,0.0696,-8.5545,-1.9573,-2.9303,0.0427,1.3572,-0.0954,
8.407523,-0.3721,-0.9426,-0.1292,-8.5545,-1.9573,-2.9303,0.0427,1.3572,-0.0954,
8.410380,-0.3733,-1.2228,0.0313,-8.5545,-1.9573,-2.9303,0.0427,1.3572,-0.0954,
8.412185,-0.3882,-1.2729,-0.1041,-8.5545,-1.9573,-2.9303,0.0427,1.3572,-0.0954,
8.428599,-0.3882,-1.2729,-0.1041,-8.6916,-4.9510,-4.9807,0.0427,1.3572,-0.0954,
8.431493,-0.3882,-1.2729,-0.1041,-8.6916,-4.9510,-4.9807,0.1209,0.9442,0.1544,
8.467239,-0.3049,-1.0755,-0.0960,-8.6916,-4.9510,-4.9807,0.1209,0.9442,0.1544,
8.471027,-0.2761,-1.0462,-0.1705,-8.6916,-4.9510,-4.9807,0.1209,0.9442,0.1544,
8.472811,-0.2428,-1.1170,-0.2365,-8.6916,-4.9510,-4.9807,0.1209,0.9442,0.1544,
8.487303,-0.2428,-1.1170,-0.2365,-8.6916,-4.9510,-4.9807,0.3225,0.4409,0.0078,
8.492337,-0.2428,-1.1170,-0.2365,-6.9956,-3.4008,-6.5515,0.3225,0.4409,0.0078,
8.528321,-0.1608,-1.0256,-0.2734,-6.9956,-3.4008,-6.5515,0.3225,0.4409,0.0078,
8.531882,-0.0435,-0.8759,-0.2797,-6.9956,-3.4008,-6.5515,0.3225,0.4409,0.0078,
8.533805,0.0850,-0.8077,-0.1319,-6.9956,-3.4008,-6.5515,0.3225,0.4409,0.0078,
8.546809,0.0850,-0.8077,-0.1319,-6.9956,-3.4008,-6.5515,0.9468,0.4800,-0.0478,
8.549262,0.0850,-0.8077,-0.1319,-3.6761,-0.4787,-5.8239,0.9468,0.4800,-0.0478,
8.587781,0.2072,-0.8998,0.0828,-3.6761,-0.4787,-5.8239,0.9468,0.4800,-0.0478,
8.590948,0.1231,-1.1062,0.0303,-3.6761,-0.4787,-5.8239,0.9468,0.4800,-0.0478,
8.592619,-0.0279,-1.2519,-0.0349,-3.6761,-0.4787,-5.8239,0.9468,0.4800,-0.0478,
8.609027,-0.0279,-1.2519,-0.0349,-3.6761,-0.4787,-5.8239,1.0170,1.1141,0.4281,
8.611907,-0.0279,-1.2519,-0.0349,-4.5020,-5.0846,-5.5078,1.0170,1.1141,0.4281,
8.647304,-0.1786,-1.2868,-0.0814,-4.5020,-5.0846,-5.5078,1.0170,1.1141,0.4281,
8.651049,-0.3391,-1.1725,-0.0972,-4.5020,-5.0846,-5.5078,1.0170,1.1141,0.4281,
8.652801,-0.4224,-0.9550,-0.0274,-4.5020,-5.0846,-5.5078,1.0170,1.1141,0.4281,
8.667659,-0.4224,-0.9550,-0.0274,-4.5020,-5.0846,-5.5078,0.8319,0.7610,0.1208,
8.670866,-0.4224,-0.9550,-0.0274,-7.8197,-2.3349,-6.0375,0.8319,0.7610,0.1208,
8.707925,-0.3279,-0.8544,0.0259,-7.8197,-2.3349,-6.0375,0.8319,0.7610,0.1208,
8.710897,-0.2233,-0.8641,0.0022,-7.8197,-2.3349,-6.0375,0.8319,0.7610,0.1208,
8.712645,-0.1688,-0.8351,0.0257,-7.8197,-2.3349,-6.0375,0.8319,0.7610,0.1208,
8.727123,-0.1688,-0.8351,0.0257,-7.8197,-2.3349,-6.0375,0.3298,0.4391,-0.4968,
8.731261,-0.1688,-0.8351,0.0257,-5.2034,-1.4360,-5.9166,0.3298,0.4391,-0.4968,
8.766460,-0.1490,-0.8258,0.1241,-5.2034,-1.4360,-5.9166,0.3298,0.4391,-0.4968,
8.769591,-0.1375,-0.8373,0.1476,-5.2034,-1.4360,-5.9166,0.3298,0.4391,-0.4968,
8.771744,-0.1011,-0.8595,0.1700,-5.2034,-1.4360,-5.9166,0.3298,0.4391,-0.4968,
8.789372,-0.1011,-0.8595,0.1700,-5.2034,-1.4360,-5.9166,0.2272,0.6138,0.1013,
8.792086,-0.1011,-0.8595,0.1700,-4.4299,-1.7939,-4.6897,0.2272,0.6138,0.1013,
8.827931,-0.0738,-0.8678,0.1691,-4.4299,-1.7939,-4.6897,0.2272,0.6138,0.1013,
8.830878,-0.1134,-0.8676,0.1615,-4.4299,-1.7939,-4.6897,0.2272,0.6138,0.1013,
8.832994,-0.2074,-0.8629,0.1774,-4.4299,-1.7939,-4.6897,0.2272,0.6138,0.1013,
8.846863,-0.2074,-0.8629,0.1774,-4.4299,-1.7939,-4.6897,0.1007,0.7139,0.1501,
8.849963,-0.2074,-0.8629,0.1774,-5.1388,-1.8461,-4.8058,0.1007,0.7139,0.1501,
8.889388,-0.2797,-0.8544,0.2001,-5.1388,-1.8461,-4.8058,0.1007,0.7139,0.1501,
8.892124,-0.3115,-0.8707,0.1947,-5.1388,-1.8461,-4.8058,0.1007,0.7139,0.1501,
8.893988,-0.2954,-0.8959,0.1901,-5.1388,-1.8461,-4.8058,0.1007,0.7139,0.1501,
8.909127,-0.2954,-0.8959,0.1901,-5.6342,-2.1283,-4.8023,0.1007,0.7139,0.1501,
8.911603,-0.2954,-0.8959,0.1901,-5.6342,-2.1283,-4.8023,-0.0135,0.5105,0.1953,
8.946677,-0.2568,-0.8930,0.1732,-5.6342,-2.1283,-4.8023,-0.0135,0.5105,0.1953,
8.949494,-0.2340,-0.9120,0.1774,-5.6342,-2.1283,-4.8023,-0.0135,0.5105,0.1953,
8.951039,-0.2424,-0.9628,0.1950,-5.6342,-2.1283,-4.8023,-0.0135,0.5105,0.1953,
8.967512,-0.2424,-0.9628,0.1950,-4.9026,-2.7103,-4.7639,-0.0135,0.5105,0.1953,
8.970521,-0.2424,-0.9628,0.1950,-4.9026,-2.7103,-4.7639,-0.0606,0.1153,0.0353,
9.006724,-0.2775,-1.0408,0.1932,-4.9026,-2.7103,-4.7639,-0.0606,0.1153,0.0353,
9.009687,-0.2673,-1.0789,0.1622,-4.9026,-2.7103,-4.7639,-0.0606,0.1153,0.0353,
9.011538,-0.2560,-1.0811,0.2081,-4.9026,-2.7103,-4.7639,-0.0606,0.1153,0.0353,
9.028165,-0.2560,-1.0811,0.2081,-4.9026,-2.7103,-4.7639,-0.0337,-0.0075,0.0878,
9.030840,-0.2560,-1.0811,0.2081,-4.9662,-3.8193,-4.6105,-0.0337,-0.0075,0.0878,
9.067479,-0.2905,-1.0701,0.2905,-4.9662,-3.8193,-4.6105,-0.0337,-0.0075,0.0878,
9.070231,-0.2731,-1.0151,0.3166,-4.9662,-3.8193,-4.6105,-0.0337,-0.0075,0.0878,
9.071687,-0.2685,-0.9689,0.3745,-4.9662,-3.8193,-4.6105,-0.0337,-0.0075,0.0878,
9.087679,-0.2685,-0.9689,0.3745,-4.9662,-3.8193,-4.6105,0.1496,-0.3465,0.1739,
9.090883,-0.2685,-0.9689,0.3745,-5.0193,-2.6582,-2.9415,0.1496,-0.3465,0.1739,
9.127594,-0.2340,-1.1898,0.3968,-5.0193,-2.6582,-2.9415,0.1496,-0.3465,0.1739,
9.131248,-0.1380,-1.3449,0.0034,-5.0193,-2.6582,-2.9415,0.1496,-0.3465,0.1739,
9.133183,-0.0066,-1.2191,0.0056,-5.0193,-2.6582,-2.9415,0.1496,-0.3465,0.1739,
9.148645,-0.0066,-1.2191,0.0056,-5.0193,-2.6582,-2.9415,-0.0929,0.0713,-0.6208,
9.151409,-0.0066,-1.2191,0.0056,-2.5883,-5.2011,-6.6000,-0.0929,0.0713,-0.6208,
9.187903,0.0000,-0.9716,0.2685,-2.5883,-5.2011,-6.6000,-0.0929,0.0713,-0.6208,
9.191594,-0.0525,-0.9052,0.2990,-2.5883,-5.2011,-6.6000,-0.0929,0.0713,-0.6208,
9.193499,-0.1559,-0.9167,0.2050,-2.5883,-5.2011,-6.6000,-0.0929,0.0713,-0.6208,
9.207614,-0.1559,-0.9167,0.2050,-2.5883,-5.2011,-6.6000,0.4013,0.2191,0.1067,
9.212363,-0.1559,-0.9167,0.2050,-4.1629,-2.3690,-4.7348,0.4013,0.2191,0.1067,
9.248050,-0.2008,-0.9301,0.0291,-4.1629,-2.3690,-4.7348,0.4013,0.2191,0.1067,
9.250673,-0.1485,-0.9076,-0.1217,-4.1629,-2.3690,-4.7348,0.4013,0.2191,0.1067,
9.252137,-0.1273,-0.8932,-0.1642,-4.1629,-2.3690,-4.7348,0.4013,0.2191,0.1067,
9.266890,-0.1273,-0.8932,-0.1642,-3.6567,-2.1103,-8.4085,0.4013,0.2191,0.1067,
9.269590,-0.1273,-0.8932,-0.1642,-3.6567,-2.1103,-8.4085,-0.3000,0.3157,-0.1174,
9.307712,-0.1273,-0.8705,-0.1739,-3.6567,-2.1103,-8.4085,-0.3000,0.3157,-0.1174,
9.310821,-0.1153,-0.8954,-0.1976,-3.6567,-2.1103,-8.4085,-0.3000,0.3157,-0.1174,
9.312517,-0.1214,-1.0149,-0.1309,-3.6567,-2.1103,-8.4085,-0.3000,0.3157,-0.1174,
9.329653,-0.1214,-1.0149,-0.1309,-3.6581,-3.2493,-8.0089,-0.3000,0.3157,-0.1174,
9.332534,-0.1214,-1.0149,-0.1309,-3.6581,-3.2493,-8.0089,0.0305,0.2839,-0.5738,
9.366984,-0.1268,-1.1165,-0.0486,-3.6581,-3.2493,-8.0089,0.0305,0.2839,-0.5738,
9.369731,-0.1180,-1.1414,-0.0327,-3.6581,-3.2493,-8.0089,0.0305,0.2839,-0.5738,
9.371134,-0.1163,-1.0857,-0.0513,-3.6581,-3.2493,-8.0089,0.0305,0.2839,-0.5738,
9.388723,-0.1163,-1.0857,-0.0513,-3.3826,-3.9697,-7.3325,0.0305,0.2839,-0.5738,
9.392099,-0.1163,-1.0857,-0.0513,-3.3826,-3.9697,-7.3325,0.0476,1.1348,0.4073,
9.429220,-0.1422,-1.0046,-0.0525,-3.3826,-3.9697,-7.3325,0.0476,1.1348,0.4073,
9.433586,-0.1695,-0.9611,-0.0616,-3.3826,-3.9697,-7.3325,0.0476,1.1348,0.4073,
9.435678,-0.1935,-0.9536,-0.0992,-3.3826,-3.9697,-7.3325,0.0476,1.1348,0.4073,
9.447056,-0.1935,-0.9536,-0.0992,-3.3828,-2.5744,-7.9090,0.0476,1.1348,0.4073,
9.450403,-0.1935,-0.9536,-0.0992,-3.3828,-2.5744,-7.9090,-0.0948,1.4983,0.4641,
9.486549,-0.2020,-0.9167,-0.1388,-3.3828,-2.5744,-7.9090,-0.0948,1.4983,0.4641,
9.489418,-0.1998,-0.8637,-0.1356,-3.3828,-2.5744,-7.9090,-0.0948,1.4983,0.4641,
9.491210,-0.2143,-0.8595,-0.0909,-3.3828,-2.5744,-7.9090,-0.0948,1.4983,0.4641,
9.508165,-0.2143,-0.8595,-0.0909,-2.8444,-1.5345,-7.8306,-0.0948,1.4983,0.4641,
9.511257,-0.2143,-0.8595,-0.0909,-2.8444,-1.5345,-7.8306,-0.1241,1.5759,-0.1584,
9.547565,-0.2382,-0.9159,-0.0689,-2.8444,-1.5345,-7.8306,-0.1241,1.5759,-0.1584,
9.550339,-0.2279,-0.9829,-0.0618,-2.8444,-1.5345,-7.8306,-0.1241,1.5759,-0.1584,
9.552037,-0.2783,-1.0268,-0.0261,-2.8444,-1.5345,-7.8306,-0.1241,1.5759,-0.1584,
9.567057,-0.2783,-1.0268,-0.0261,-2.8444,-1.5345,-7.8306,-0.0483,1.5227,-0.2335,
9.569844,-0.2783,-1.0268,-0.0261,-2.9279,-3.1142,-7.1730,-0.0483,1.5227,-0.2335,
9.607047,-0.3315,-1.0413,0.0129,-2.9279,-3.1142,-7.1730,-0.0483,1.5227,-0.2335,
9.609344,-0.3618,-1.0193,0.0139,-2.9279,-3.1142,-7.1730,-0.0483,1.5227,-0.2335,
9.610707,-0.3787,-0.9782,-0.0159,-2.9279,-3.1142,-7.1730,-0.0483,1.5227,-0.2335,
9.630738,-0.3787,-0.9782,-0.0159,-2.9279,-3.1142,-7.1730,0.0409,1.1471,0.2234,
9.633599,-0.3787,-0.9782,-0.0159,-3.3050,-2.6163,-7.0418,0.0409,1.1471,0.2234,
9.667314,-0.3816,-0.9394,0.0137,-3.3050,-2.6163,-7.0418,0.0409,1.1471,0.2234,
9.671281,-0.3367,-0.9042,0.0318,-3.3050,-2.6163,-7.0418,0.0409,1.1471,0.2234,
9.673183,-0.3051,-0.9096,0.0674,-3.3050,-2.6163,-7.0418,0.0409,1.1471,0.2234,
9.688417,-0.3051,-0.9096,0.0674,-3.3050,-2.6163,-7.0418,0.1765,0.8679,-0.1321,
9.691257,-0.3051,-0.9096,0.0674,-2.1041,-1.9475,-6.1842,0.1765,0.8679,-0.1321,
9.726482,-0.2985,-0.9509,0.0547,-2.1041,-1.9475,-6.1842,0.1765,0.8679,-0.1321,
9.729365,-0.2866,-0.9839,0.0613,-2.1041,-1.9475,-6.1842,0.1765,0.8679,-0.1321,
9.731105,-0.2714,-0.9861,0.0533,-2.1041,-1.9475,-6.1842,0.1765,0.8679,-0.1321,
9.747174,-0.2714,-0.9861,0.0533,-1.4752,-2.7500,-6.3317,0.1765,0.8679,-0.1321,
9.750497,-0.2714,-0.9861,0.0533,-1.4752,-2.7500,-6.3317,0.2522,1.0328,-0.2133,
9.787636,-0.2685,-0.9817,0.0374,-1.4752,-2.7500,-6.3317,0.2522,1.0328,-0.2133,
9.790940,-0.2963,-0.9687,0.0386,-1.4752,-2.7500,-6.3317,0.2522,1.0328,-0.2133,
9.792546,-0.3186,-0.9514,0.0408,-1.4752,-2.7500,-6.3317,0.2522,1.0328,-0.2133,
9.806904,-0.3186,-0.9514,0.0408,-1.5414,-2.4545,-6.4186,0.2522,1.0328,-0.2133,
9.810068,-0.3186,-0.9514,0.0408,-1.5414,-2.4545,-6.4186,0.1581,1.1391,-0.1229,
9.847409,-0.3164,-0.9443,0.0589,-1.5414,-2.4545,-6.4186,0.1581,1.1391,-0.1229,
9.851259,-0.3215,-0.9509,-0.0015,-1.5414,-2.4545,-6.4186,0.1581,1.1391,-0.1229,
9.852584,-0.2985,-1.0755,-0.0484,-1.5414,-2.4545,-6.4186,0.1581,1.1391,-0.1229,
9.867206,-0.2985,-1.0755,-0.0484,-0.9611,-3.6557,-7.1765,0.1581,1.1391,-0.1229,
9.871111,-0.2985,-1.0755,-0.0484,-0.9611,-3.6557,-7.1765,0.0231,1.0047,-0.2488,
9.907980,-0.2873,-1.2636,-0.0044,-0.9611,-3.6557,-7.1765,0.0231,1.0047,-0.2488,
9.911238,-0.2768,-1.1854,-0.0745,-0.9611,-3.6557,-7.1765,0.0231,1.0047,-0.2488,
9.912845,-0.2807,-1.1021,-0.0300,-0.9611,-3.6557,-7.1765,0.0231,1.0047,-0.2488,
9.928495,-0.2807,-1.1021,-0.0300,-0.9611,-3.6557,-7.1765,0.2553,1.0206,0.1190,
9.933391,-0.2807,-1.1021,-0.0300,-0.3894,-3.9445,-6.8966,0.2553,1.0206,0.1190,
9.967066,-0.2446,-1.1014,-0.0523,-0.3894,-3.9445,-6.8966,0.2553,1.0206,0.1190,
9.970655,-0.2079,-1.0586,-0.1109,-0.3894,-3.9445,-6.8966,0.2553,1.0206,0.1190,
9.972616,-0.1661,-0.9985,-0.1823,-0.3894,-3.9445,-6.8966,0.2553,1.0206,0.1190,
9.986996,-0.1661,-0.9985,-0.1823,-0.3894,-3.9445,-6.8966,0.4049,0.7995,-0.0496,
9.989939,-0.1661,-0.9985,-0.1823,1.1482,-3.0396,-8.3402,0.4049,0.7995,-0.0496,
10.026629,-0.1466,-0.9501,-0.2529,1.1482,-3.0396,-8.3402,0.4049,0.7995,-0.0496,
10.028465,-0.0589,-0.8810,-0.2836,1.1482,-3.0396,-8.3402,0.4049,0.7995,-0.0496,
10.029661,0.0567,-0.8497,-0.1673,1.1482,-3.0396,-8.3402,0.4049,0.7995,-0.0496,
10.048161,0.0567,-0.8497,-0.1673,3.5749,-1.7574,-8.2650,0.4049,0.7995,-0.0496,
10.049920,0.0567,-0.8497,-0.1673,3.5749,-1.7574,-8.2650,0.8441,0.5368,0.0573,
10.086773,0.1410,-0.9340,0.0088,3.5749,-1.7574,-8.2650,0.8441,0.5368,0.0573,
10.088878,0.1434,-1.1238,0.0545,3.5749,-1.7574,-8.2650,0.8441,0.5368,0.0573,
10.090331,0.0511,-1.2255,0.0107,3.5749,-1.7574,-8.2650,0.8441,0.5368,0.0573,
10.107081,0.0511,-1.2255,0.0107,3.8914,-5.8135,-6.6975,0.8441,0.5368,0.0573,
10.109875,0.0511,-1.2255,0.0107,3.8914,-5.8135,-6.6975,1.0805,1.2656,0.2986,
10.147265,-0.0972,-1.2247,-0.0357,3.8914,-5.8135,-6.6975,1.0805,1.2656,0.2986,
10.150305,-0.2314,-1.1497,-0.0112,3.8914,-5.8135,-6.6975,1.0805,1.2656,0.2986,
10.151764,-0.2871,-1.0154,0.0103,3.8914,-5.8135,-6.6975,1.0805,1.2656,0.2986,
10.173498,-0.2871,-1.0154,0.0103,3.8914,-5.8135,-6.6975,1.0115,1.3297,-0.0374,
10.179668,-0.2871,-1.0154,0.0103,1.2114,-4.2001,-6.7481,1.0115,1.3297,-0.0374,
10.207028,-0.2377,-0.9057,-0.0235,1.2114,-4.2001,-6.7481,1.0115,1.3297,-0.0374,
10.210172,-0.2116,-0.8583,-0.0408,1.2114,-4.2001,-6.7481,1.0115,1.3297,-0.0374,
10.211513,-0.2218,-0.8395,0.0193,1.2114,-4.2001,-6.7481,1.0115,1.3297,-0.0374,
10.228156,-0.2218,-0.8395,0.0193,1.2114,-4.2001,-6.7481,0.4526,0.9406,-0.3050,
10.231306,-0.2218,-0.8395,0.0193,2.2242,-2.6900,-6.6058,0.4526,0.9406,-0.3050,
10.267420,-0.2145,-0.8304,0.0738,2.2242,-2.6900,-6.6058,0.4526,0.9406,-0.3050,
10.270234,-0.1754,-0.8316,0.1287,2.2242,-2.6900,-6.6058,0.4526,0.9406,-0.3050,
10.271825,-0.1253,-0.8351,0.1593,2.2242,-2.6900,-6.6058,0.4526,0.9406,-0.3050,
10.286903,-0.1253,-0.8351,0.1593,2.2242,-2.6900,-6.6058,0.2376,1.0133,-0.0087,
10.289594,-0.1253,-0.8351,0.1593,3.4860,-2.7135,-5.0740,0.2376,1.0133,-0.0087,
10.326989,-0.1219,-0.8541,0.1918,3.4860,-2.7135,-5.0740,0.2376,1.0133,-0.0087,
10.329446,-0.1459,-0.8844,0.2008,3.4860,-2.7135,-5.0740,0.2376,1.0133,-0.0087,
10.331071,-0.1940,-0.8881,0.1876,3.4860,-2.7135,-5.0740,0.2376,1.0133,-0.0087,
10.348181,-0.1940,-0.8881,0.1876,3.4860,-2.7135,-5.0740,0.1557,1.2735,-0.0435,
10.350472,-0.1940,-0.8881,0.1876,3.2350,-3.2707,-4.5079,0.1557,1.2735,-0.0435,
10.387142,-0.2392,-0.8739,0.2204,3.2350,-3.2707,-4.5079,0.1557,1.2735,-0.0435,
10.390493,-0.2590,-0.8886,0.2438,3.2350,-3.2707,-4.5079,0.1557,1.2735,-0.0435,
10.391697,-0.2431,-0.9001,0.2133,3.2350,-3.2707,-4.5079,0.1557,1.2735,-0.0435,
10.406985,-0.2431,-0.9001,0.2133,3.2350,-3.2707,-4.5079,0.1282,1.0579,0.2265,
10.409378,-0.2431,-0.9001,0.2133,3.2357,-3.4485,-3.8890,0.1282,1.0579,0.2265,
10.447378,-0.2260,-0.9176,0.1796,3.2357,-3.4485,-3.8890,0.1282,1.0579,0.2265,
10.451620,-0.2558,-0.9602,0.1627,3.2357,-3.4485,-3.8890,0.1282,1.0579,0.2265,
10.453344,-0.3159,-1.0129,0.1722,3.2357,-3.4485,-3.8890,0.1282,1.0579,0.2265,
10.466858,-0.3159,-1.0129,0.1722,3.2357,-3.4485,-3.8890,-0.0239,0.6749,0.0909,
10.469338,-0.3159,-1.0129,0.1722,2.8604,-4.5897,-3.9877,-0.0239,0.6749,0.0909,
10.508011,-0.3594,-1.0195,0.1796,2.8604,-4.5897,-3.9877,-0.0239,0.6749,0.0909,
10.511498,-0.3340,-0.9914,0.2507,2.8604,-4.5897,-3.9877,-0.0239,0.6749,0.0909,
10.513069,-0.2739,-0.9475,0.2946,2.8604,-4.5897,-3.9877,-0.0239,0.6749,0.0909,
10.527200,-0.2739,-0.9475,0.2946,2.8604,-4.5897,-3.9877,0.1923,-0.0979,-0.0283,
10.531118,-0.2739,-0.9475,0.2946,3.4300,-3.9621,-2.6314,0.1923,-0.0979,-0.0283,
10.568601,-0.2392,-1.0503,0.3838,3.4300,-3.9621,-2.6314,0.1923,-0.0979,-0.0283,
10.571286,-0.2194,-1.3408,0.1764,3.4300,-3.9621,-2.6314,0.1923,-0.0979,-0.0283,
10.573080,-0.1405,-1.4126,-0.1156,3.4300,-3.9621,-2.6314,0.1923,-0.0979,-0.0283,
10.586859,-0.1405,-1.4126,-0.1156,3.4300,-3.9621,-2.6314,-0.1363,0.2466,-0.4174,
10.589463,-0.1405,-1.4126,-0.1156,4.6342,-8.5043,-6.7477,-0.1363,0.2466,-0.4174,
10.627177,-0.0533,-1.1949,0.2431,4.6342,-8.5043,-6.7477,-0.1363,0.2466,-0.4174,
10.629893,-0.1200,-0.9839,0.2978,4.6342,-8.5043,-6.7477,-0.1363,0.2466,-0.4174,
10.631371,-0.0999,-0.9282,0.1549,4.6342,-8.5043,-6.7477,-0.1363,0.2466,-0.4174,
10.650553,-0.0999,-0.9282,0.1549,4.6342,-8.5043,-6.7477,0.3090,0.3755,0.1428,
10.653671,-0.0999,-0.9282,0.1549,5.1233,-3.7892,-4.0291,0.3090,0.3755,0.1428,
10.687202,-0.0660,-0.8917,0.1031,5.1233,-3.7892,-4.0291,0.3090,0.3755,0.1428,
10.690345,-0.0498,-0.8534,0.0205,5.1233,-3.7892,-4.0291,0.3090,0.3755,0.1428,
10.692091,-0.0105,-0.8334,-0.0904,5.1233,-3.7892,-4.0291,0.3090,0.3755,0.1428,
10.707054,-0.0105,-0.8334,-0.0904,6.1024,-2.8493,-6.3069,0.3090,0.3755,0.1428,
10.709945,-0.0105,-0.8334,-0.0904,6.1024,-2.8493,-6.3069,-0.0453,0.5643,-0.3923,
10.747902,0.0120,-0.8436,-0.1466,6.1024,-2.8493,-6.3069,-0.0453,0.5643,-0.3923,
10.750546,0.0271,-0.9059,-0.1647,6.1024,-2.8493,-6.3069,-0.0453,0.5643,-0.3923,
10.752513,-0.0325,-1.0356,-0.1459,6.1024,-2.8493,-6.3069,-0.0453,0.5643,-0.3923,
10.770004,-0.0325,-1.0356,-0.1459,6.1024,-2.8493,-6.3069,0.0806,0.8612,-0.6868,
10.772619,-0.0325,-1.0356,-0.1459,5.8941,-4.5491,-6.5492,0.0806,0.8612,-0.6868,
10.807187,-0.1131,-1.1490,-0.1075,5.8941,-4.5491,-6.5492,0.0806,0.8612,-0.6868,
10.810384,-0.1625,-1.1663,-0.0691,5.8941,-4.5491,-6.5492,0.0806,0.8612,-0.6868,
10.812083,-0.1930,-1.1253,-0.0845,5.8941,-4.5491,-6.5492,0.0806,0.8612,-0.6868,
10.826991,-0.1930,-1.1253,-0.0845,5.8941,-4.5491,-6.5492,0.2510,1.5117,0.3450,
10.829791,-0.1930,-1.1253,-0.0845,4.5285,-5.3242,-5.5635,0.2510,1.5117,0.3450,
10.867432,-0.2030,-1.0611,-0.0606,4.5285,-5.3242,-5.5635,0.2510,1.5117,0.3450,
10.870401,-0.2169,-1.0063,-0.0728,4.5285,-5.3242,-5.5635,0.2510,1.5117,0.3450,
10.872354,-0.2147,-0.9882,-0.0716,4.5285,-5.3242,-5.5635,0.2510,1.5117,0.3450,
10.887083,-0.2147,-0.9882,-0.0716,4.8585,-4.1769,-4.8668,0.2510,1.5117,0.3450,
10.890114,-0.2147,-0.9882,-0.0716,4.8585,-4.1769,-4.8668,0.1618,1.5710,0.3578,
10.927021,-0.2074,-0.9448,-0.0716,4.8585,-4.1769,-4.8668,0.1618,1.5710,0.3578,
10.929556,-0.2089,-0.9062,-0.0672,4.8585,-4.1769,-4.8668,0.1618,1.5710,0.3578,
10.931240,-0.2084,-0.8878,-0.0293,4.8585,-4.1769,-4.8668,0.1618,1.5710,0.3578,
10.947861,-0.2084,-0.8878,-0.0293,4.8585,-4.1769,-4.8668,0.1245,1.7866,-0.1290,
10.951231,-0.2084,-0.8878,-0.0293,5.3447,-3.2555,-3.7443,0.1245,1.7866,-0.1290,
10.986780,-0.2270,-0.9025,-0.0120,5.3447,-3.2555,-3.7443,0.1245,1.7866,-0.1290,
10.989355,-0.2453,-0.9345,-0.0132,5.3447,-3.2555,-3.7443,0.1245,1.7866,-0.1290,
10.991077,-0.2563,-0.9853,-0.0122,5.3447,-3.2555,-3.7443,0.1245,1.7866,-0.1290,
11.007054,-0.2563,-0.9853,-0.0122,5.3447,-3.2555,-3.7443,0.3096,1.6474,-0.4162,
11.009928,-0.2563,-0.9853,-0.0122,5.0707,-4.0662,-2.8460,0.3096,1.6474,-0.4162,
11.046934,-0.2814,-1.0271,0.0066,5.0707,-4.0662,-2.8460,0.3096,1.6474,-0.4162,
11.050010,-0.3200,-1.0393,0.0366,5.0707,-4.0662,-2.8460,0.3096,1.6474,-0.4162,
11.051696,-0.3357,-1.0225,0.0481,5.0707,-4.0662,-2.8460,0.3096,1.6474,-0.4162,
11.068181,-0.3357,-1.0225,0.0481,5.0707,-4.0662,-2.8460,0.4233,1.5533,-0.0930,
11.070893,-0.3357,-1.0225,0.0481,4.4090,-4.3189,-1.6256,0.4233,1.5533,-0.0930,
11.107573,-0.3498,-0.9929,0.0564,4.4090,-4.3189,-1.6256,0.4233,1.5533,-0.0930,
11.111376,-0.3753,-0.9538,0.0366,4.4090,-4.3189,-1.6256,0.4233,1.5533,-0.0930,
11.113234,-0.3728,-0.9093,0.0249,4.4090,-4.3189,-1.6256,0.4233,1.5533,-0.0930,
11.127491,-0.3728,-0.9093,0.0249,4.4090,-4.3189,-1.6256,0.3237,1.4073,-0.1303,
11.130202,-0.3728,-0.9093,0.0249,4.1652,-3.1965,-1.2972,0.3237,1.4073,-0.1303,
11.166840,-0.3520,-0.8991,0.0086,4.1652,-3.1965,-1.2972,0.3237,1.4073,-0.1303,
11.169615,-0.3337,-0.9284,-0.0374,4.1652,-3.1965,-1.2972,0.3237,1.4073,-0.1303,
11.171163,-0.3303,-0.9484,-0.0296,4.1652,-3.1965,-1.2972,0.3237,1.4073,-0.1303,
11.188008,-0.3303,-0.9484,-0.0296,4.1652,-3.1965,-1.2972,0.2669,1.3645,-0.3600,
11.191232,-0.3303,-0.9484,-0.0296,4.5832,-3.4596,-1.2735,0.2669,1.3645,-0.3600,
11.228071,-0.3626,-0.9528,-0.0213,4.5832,-3.4596,-1.2735,0.2669,1.3645,-0.3600,
11.231737,-0.3782,-0.9479,0.0105,4.5832,-3.4596,-1.2735,0.2669,1.3645,-0.3600,
11.233740,-0.3418,-0.9543,-0.0002,4.5832,-3.4596,-1.2735,0.2669,1.3645,-0.3600,
11.246955,-0.3418,-0.9543,-0.0002,4.5832,-3.4596,-1.2735,0.2687,1.2912,-0.3551,
11.249864,-0.3418,-0.9543,-0.0002,4.3839,-3.3377,-0.4415,0.2687,1.2912,-0.3551,
11.286327,-0.1823,-1.0371,-0.0420,4.3839,-3.3377,-0.4415,0.2687,1.2912,-0.3551,
11.289108,-0.0384,-1.1764,0.0633,4.3839,-3.3377,-0.4415,0.2687,1.2912,-0.3551,
11.290768,-0.0191,-1.1512,0.0340,4.3839,-3.3377,-0.4415,0.2687,1.2912,-0.3551,
11.307308,-0.0191,-1.1512,0.0340,7.4104,-5.0816,0.4362,0.2687,1.2912,-0.3551,
11.309808,-0.0191,-1.1512,0.0340,7.4104,-5.0816,0.4362,0.3487,1.6712,-0.1083,
11.346739,-0.1156,-1.0733,-0.0750,7.4104,-5.0816,0.4362,0.3487,1.6712,-0.1083,
11.349587,-0.1771,-1.0716,-0.0806,7.4104,-5.0816,0.4362,0.3487,1.6712,-0.1083,
11.351010,-0.1820,-1.0830,-0.0711,7.4104,-5.0816,0.4362,0.3487,1.6712,-0.1083,
11.367020,-0.1820,-1.0830,-0.0711,7.4104,-5.0816,0.4362,0.1667,1.5270,-0.0698,
11.370234,-0.1820,-1.0830,-0.0711,5.7333,-4.3574,0.0258,0.1667,1.5270,-0.0698,
11.406647,-0.1014,-1.0520,-0.0774,5.7333,-4.3574,0.0258,0.1667,1.5270,-0.0698,
11.409720,-0.0398,-1.0122,-0.0982,5.7333,-4.3574,0.0258,0.1667,1.5270,-0.0698,
11.411310,-0.0078,-0.9606,-0.1024,5.7333,-4.3574,0.0258,0.1667,1.5270,-0.0698,
11.426796,-0.0078,-0.9606,-0.1024,5.7333,-4.3574,0.0258,0.2492,1.7298,-0.3520,
11.429406,-0.0078,-0.9606,-0.1024,7.2333,-3.0166,0.3405,0.2492,1.7298,-0.3520,
11.466344,0.0193,-0.9203,-0.1024,7.2333,-3.0166,0.3405,0.2492,1.7298,-0.3520,
11.468273,0.0213,-0.9216,-0.0901,7.2333,-3.0166,0.3405,0.2492,1.7298,-0.3520,
11.469523,-0.0291,-0.9494,-0.0958,7.2333,-3.0166,0.3405,0.2492,1.7298,-0.3520,
11.487044,-0.0291,-0.9494,-0.0958,7.2333,-3.0166,0.3405,0.1148,1.6419,-0.2207,
11.489562,-0.0291,-0.9494,-0.0958,6.6933,-2.7164,1.0806,0.1148,1.6419,-0.2207,
11.526644,-0.0638,-0.9853,-0.0699,6.6933,-2.7164,1.0806,0.1148,1.6419,-0.2207,
11.528793,-0.0784,-1.0066,-0.0254,6.6933,-2.7164,1.0806,0.1148,1.6419,-0.2207,
11.530092,-0.0501,-1.0481,0.0242,6.6933,-2.7164,1.0806,0.1148,1.6419,-0.2207,
11.547773,-0.0501,-1.0481,0.0242,6.1577,-3.5440,2.8271,0.1148,1.6419,-0.2207,
11.550257,-0.0501,-1.0481,0.0242,6.1577,-3.5440,2.8271,0.3115,1.7072,-0.2158,
11.586910,-0.0107,-1.0804,0.0613,6.1577,-3.5440,2.8271,0.3115,1.7072,-0.2158,
11.589407,0.0117,-1.0901,0.0643,6.1577,-3.5440,2.8271,0.3115,1.7072,-0.2158,
11.591203,-0.0303,-1.0598,0.0618,6.1577,-3.5440,2.8271,0.3115,1.7072,-0.2158,
11.608265,-0.0303,-1.0598,0.0618,5.9012,-3.4762,3.7685,0.3115,1.7072,-0.2158,
11.609718,-0.0303,-1.0598,0.0618,5.9012,-3.4762,3.7685,0.4898,2.0737,-0.1926,
11.646376,-0.0967,-1.0249,0.0430,5.9012,-3.4762,3.7685,0.4898,2.0737,-0.1926,
11.648765,-0.1263,-1.0054,0.0503,5.9012,-3.4762,3.7685,0.4898,2.0737,-0.1926,
11.650491,-0.1065,-0.9817,0.0498,5.9012,-3.4762,3.7685,0.4898,2.0737,-0.1926,
11.666719,-0.1065,-0.9817,0.0498,5.9012,-3.4762,3.7685,0.4630,1.9088,-0.4473,
11.668611,-0.1065,-0.9817,0.0498,4.6063,-2.4791,4.1286,0.4630,1.9088,-0.4473,
11.707585,-0.0801,-0.9523,0.0623,4.6063,-2.4791,4.1286,0.4630,1.9088,-0.4473,
11.711074,-0.0755,-0.9416,0.0752,4.6063,-2.4791,4.1286,0.4630,1.9088,-0.4473,
11.712807,-0.0880,-0.9379,0.1016,4.6063,-2.4791,4.1286,0.4630,1.9088,-0.4473,
11.726782,-0.0880,-0.9379,0.1016,4.6063,-2.4791,4.1286,0.3677,1.8862,-0.4033,
11.729217,-0.0880,-0.9379,0.1016,4.1193,-1.7758,5.0411,0.3677,1.8862,-0.4033,
11.767391,-0.0945,-0.9423,0.1229,4.1193,-1.7758,5.0411,0.3677,1.8862,-0.4033,
11.771355,-0.0982,-0.9506,0.1319,4.1193,-1.7758,5.0411,0.3677,1.8862,-0.4033,
11.772552,-0.1170,-0.9741,0.1344,4.1193,-1.7758,5.0411,0.3677,1.8862,-0.4033,
11.787508,-0.1170,-0.9741,0.1344,3.2007,-1.9279,5.7024,0.3677,1.8862,-0.4033,
11.790321,-0.1170,-0.9741,0.1344,3.2007,-1.9279,5.7024,0.2699,1.7897,-0.2433,
11.827613,-0.1197,-0.9968,0.1266,3.2007,-1.9279,5.7024,0.2699,1.7897,-0.2433,
11.831436,-0.1349,-0.9978,0.1312,3.2007,-1.9279,5.7024,0.2699,1.7897,-0.2433,
11.833098,-0.1256,-0.9853,0.1571,3.2007,-1.9279,5.7024,0.2699,1.7897,-0.2433,
11.846883,-0.1256,-0.9853,0.1571,2.5560,-1.9075,6.2075,0.2699,1.7897,-0.2433,
11.849456,-0.1256,-0.9853,0.1571,2.5560,-1.9075,6.2075,0.2113,1.5795,-0.0912,
11.886917,-0.0760,-0.9675,0.1336,2.5560,-1.9075,6.2075,0.2113,1.5795,-0.0912,
11.889817,-0.0643,-0.9531,0.1187,2.5560,-1.9075,6.2075,0.2113,1.5795,-0.0912,
11.891304,-0.0242,-0.9584,0.1405,2.5560,-1.9075,6.2075,0.2113,1.5795,-0.0912,
11.907211,-0.0242,-0.9584,0.1405,3.0589,-1.5588,6.2691,0.2113,1.5795,-0.0912,
11.910128,-0.0242,-0.9584,0.1405,3.0589,-1.5588,6.2691,0.1368,1.5594,-0.0050,
11.946460,-0.0203,-0.9714,0.1639,3.0589,-1.5588,6.2691,0.1368,1.5594,-0.0050,
11.949113,-0.0203,-0.9770,0.1705,3.0589,-1.5588,6.2691,0.1368,1.5594,-0.0050,
11.950658,-0.0296,-0.9650,0.1449,3.0589,-1.5588,6.2691,0.1368,1.5594,-0.0050,
11.966786,-0.0296,-0.9650,0.1449,3.0589,-1.5588,6.2691,0.0244,1.3505,-0.0362,
11.969882,-0.0296,-0.9650,0.1449,2.5460,-1.5604,6.4959,0.0244,1.3505,-0.0362,
12.007377,-0.0364,-0.9577,0.1402,2.5460,-1.5604,6.4959,0.0244,1.3505,-0.0362,
12.009928,-0.0342,-0.9521,0.1495,2.5460,-1.5604,6.4959,0.0244,1.3505,-0.0362,
12.011569,-0.0296,-0.9499,0.1476,2.5460,-1.5604,6.4959,0.0244,1.3505,-0.0362,
12.027044,-0.0296,-0.9499,0.1476,2.1189,-1.4040,6.7263,0.0244,1.3505,-0.0362,
12.029579,-0.0296,-0.9499,0.1476,2.1189,-1.4040,6.7263,-0.2145,1.1813,-0.0240,
12.067207,-0.0132,-0.9668,0.1578,2.1189,-1.4040,6.7263,-0.2145,1.1813,-0.0240,
12.070441,0.0049,-0.9746,0.1590,2.1189,-1.4040,6.7263,-0.2145,1.1813,-0.0240,
12.071756,0.0090,-0.9636,0.1659,2.1189,-1.4040,6.7263,-0.2145,1.1813,-0.0240,
12.087778,0.0090,-0.9636,0.1659,2.1189,-1.4040,6.7263,-0.3513,1.0261,0.2106,
12.090805,0.0090,-0.9636,0.1659,2.1604,-1.6118,7.1529,-0.3513,1.0261,0.2106,
12.126966,-0.0217,-0.9548,0.1942,2.1604,-1.6118,7.1529,-0.3513,1.0261,0.2106,
12.129707,-0.0308,-0.9387,0.2128,2.1604,-1.6118,7.1529,-0.3513,1.0261,0.2106,
12.131223,-0.0154,-0.9904,0.3066,2.1604,-1.6118,7.1529,-0.3513,1.0261,0.2106,
12.146831,-0.0154,-0.9904,0.3066,2.1604,-1.6118,7.1529,-0.0667,0.8361,0.2228,
12.149720,-0.0154,-0.9904,0.3066,1.7160,-1.9929,8.7656,-0.0667,0.8361,0.2228,
12.187029,-0.0139,-1.2560,0.1124,1.7160,-1.9929,8.7656,-0.0667,0.8361,0.2228,
12.191012,-0.1542,-1.3237,-0.0838,1.7160,-1.9929,8.7656,-0.0667,0.8361,0.2228,
12.192208,-0.0002,-1.0933,0.0865,1.7160,-1.9929,8.7656,-0.0667,0.8361,0.2228,
12.208301,-0.0002,-1.0933,0.0865,1.7160,-1.9929,8.7656,0.1013,0.6632,-0.0808,
12.211540,-0.0002,-1.0933,0.0865,1.6013,-3.0115,6.7012,0.1013,0.6632,-0.0808,
12.247581,0.1036,-1.0601,0.1898,1.6013,-3.0115,6.7012,0.1013,0.6632,-0.0808,
12.251387,0.0814,-1.1576,0.0376,1.6013,-3.0115,6.7012,0.1013,0.6632,-0.0808,
12.253040,0.0071,-1.1087,0.0552,1.6013,-3.0115,6.7012,0.1013,0.6632,-0.0808,
12.267283,0.0071,-1.1087,0.0552,1.3856,-3.0440,6.3088,0.1013,0.6632,-0.0808,
12.270109,0.0071,-1.1087,0.0552,1.3856,-3.0440,6.3088,0.3164,0.6443,0.0457,
12.308754,-0.0887,-1.0229,0.1263,1.3856,-3.0440,6.3088,0.3164,0.6443,0.0457,
12.311729,-0.1881,-0.9176,0.0235,1.3856,-3.0440,6.3088,0.3164,0.6443,0.0457,
12.313250,-0.1722,-0.8553,-0.0938,1.3856,-3.0440,6.3088,0.3164,0.6443,0.0457,
12.327797,-0.1722,-0.8553,-0.0938,1.3856,-3.0440,6.3088,0.1068,0.7585,0.2497,
12.330499,-0.1722,-0.8553,-0.0938,-0.5206,-0.4428,4.7171,0.1068,0.7585,0.2497,
12.366732,-0.1341,-0.8905,-0.1170,-0.5206,-0.4428,4.7171,0.1068,0.7585,0.2497,
12.369379,-0.1388,-0.9528,-0.1368,-0.5206,-0.4428,4.7171,0.1068,0.7585,0.2497,
12.370949,-0.1476,-0.9941,-0.1791,-0.5206,-0.4428,4.7171,0.1068,0.7585,0.2497,
12.388766,-0.1476,-0.9941,-0.1791,-0.4854,-1.7873,3.8988,0.1068,0.7585,0.2497,
12.391238,-0.1476,-0.9941,-0.1791,-0.4854,-1.7873,3.8988,-0.0208,0.8557,-0.0173,
12.427162,-0.1918,-0.9926,-0.1735,-0.4854,-1.7873,3.8988,-0.0208,0.8557,-0.0173,
12.429328,-0.2326,-0.9934,-0.1353,-0.4854,-1.7873,3.8988,-0.0208,0.8557,-0.0173,
12.430456,-0.2455,-1.0146,-0.1410,-0.4854,-1.7873,3.8988,-0.0208,0.8557,-0.0173,
12.447113,-0.2455,-1.0146,-0.1410,-1.7383,-1.9389,4.2445,-0.0208,0.8557,-0.0173,
12.449524,-0.2455,-1.0146,-0.1410,-1.7383,-1.9389,4.2445,0.2033,1.2142,0.2711,
12.488029,-0.2827,-1.0276,-0.1246,-1.7383,-1.9389,4.2445,0.2033,1.2142,0.2711,
12.491347,-0.2800,-1.0071,-0.0892,-1.7383,-1.9389,4.2445,0.2033,1.2142,0.2711,
12.492788,-0.2900,-0.9777,-0.0928,-1.7383,-1.9389,4.2445,0.2033,1.2142,0.2711,
12.507309,-0.2900,-0.9777,-0.0928,-1.7383,-1.9389,4.2445,0.0677,1.3181,0.4739,
12.511442,-0.2900,-0.9777,-0.0928,-2.4169,-1.5268,4.6673,0.0677,1.3181,0.4739,
12.547116,-0.3027,-0.9384,-0.1043,-2.4169,-1.5268,4.6673,0.0677,1.3181,0.4739,
12.549891,-0.3010,-0.9120,-0.0880,-2.4169,-1.5268,4.6673,0.0677,1.3181,0.4739,
12.551329,-0.2832,-0.8974,-0.0836,-2.4169,-1.5268,4.6673,0.0677,1.3181,0.4739,
12.568645,-0.2832,-0.8974,-0.0836,-2.5750,-0.7333,4.7625,0.0677,1.3181,0.4739,
12.574586,-0.2832,-0.8974,-0.0836,-2.5750,-0.7333,4.7625,-0.1229,1.2136,0.1721,
12.610646,-0.2604,-0.8935,-0.0848,-2.5750,-0.7333,4.7625,-0.1229,1.2136,0.1721,
12.613451,-0.2531,-0.9054,-0.0818,-2.5750,-0.7333,4.7625,-0.1229,1.2136,0.1721,
12.615145,-0.2509,-0.9313,-0.0645,-2.5750,-0.7333,4.7625,-0.1229,1.2136,0.1721,
12.627954,-0.2509,-0.9313,-0.0645,-2.5750,-0.7333,4.7625,-0.1809,0.9455,-0.1284,
12.631105,-0.2509,-0.9313,-0.0645,-2.6071,-1.1070,5.0095,-0.1809,0.9455,-0.1284,
12.667267,-0.2592,-0.9672,-0.0450,-2.6071,-1.1070,5.0095,-0.1809,0.9455,-0.1284,
12.670351,-0.2614,-0.9953,-0.0371,-2.6071,-1.1070,5.0095,-0.1809,0.9455,-0.1284,
12.671867,-0.2658,-0.9941,-0.0142,-2.6071,-1.1070,5.0095,-0.1809,0.9455,-0.1284,
12.687629,-0.2658,-0.9941,-0.0142,-2.6071,-1.1070,5.0095,-0.0813,0.6834,-0.0075,
12.690859,-0.2658,-0.9941,-0.0142,-3.0654,-1.7558,5.5333,-0.0813,0.6834,-0.0075,
12.727429,-0.2929,-1.0007,-0.0117,-3.0654,-1.7558,5.5333,-0.0813,0.6834,-0.0075,
12.730148,-0.3227,-1.0010,-0.0232,-3.0654,-1.7558,5.5333,-0.0813,0.6834,-0.0075,
12.731807,-0.3208,-0.9755,0.0068,-3.0654,-1.7558,5.5333,-0.0813,0.6834,-0.0075,
12.747105,-0.3208,-0.9755,0.0068,-3.0654,-1.7558,5.5333,-0.0349,0.4513,0.2075,
12.749828,-0.3208,-0.9755,0.0068,-3.7337,-1.5730,5.7260,-0.0349,0.4513,0.2075,
12.787217,-0.3222,-0.9611,0.0276,-3.7337,-1.5730,5.7260,-0.0349,0.4513,0.2075,
12.789966,-0.3244,-0.9682,0.0169,-3.7337,-1.5730,5.7260,-0.0349,0.4513,0.2075,
12.791189,-0.3349,-0.9511,0.0269,-3.7337,-1.5730,5.7260,-0.0349,0.4513,0.2075,
12.808342,-0.3349,-0.9511,0.0269,-3.7337,-1.5730,5.7260,0.0164,0.2582,0.1208,
12.810593,-0.3349,-0.9511,0.0269,-3.8835,-1.3070,5.8834,0.0164,0.2582,0.1208,
12.846891,-0.3161,-0.9260,0.0457,-3.8835,-1.3070,5.8834,0.0164,0.2582,0.1208,
12.849622,-0.2924,-0.9240,0.0718,-3.8835,-1.3070,5.8834,0.0164,0.2582,0.1208,
12.851375,-0.2858,-0.9350,0.0694,-3.8835,-1.3070,5.8834,0.0164,0.2582,0.1208,
12.866736,-0.2858,-0.9350,0.0694,-3.8835,-1.3070,5.8834,0.0708,0.3511,-0.0606,
12.869624,-0.2858,-0.9350,0.0694,-3.4455,-1.1128,6.2433,0.0708,0.3511,-0.0606,
12.907009,-0.2827,-0.9384,0.0506,-3.4455,-1.1128,6.2433,0.0708,0.3511,-0.0606,
12.910030,-0.2832,-0.9321,0.0315,-3.4455,-1.1128,6.2433,0.0708,0.3511,-0.0606,
12.911250,-0.3073,-0.9357,-0.0195,-3.4455,-1.1128,6.2433,0.0708,0.3511,-0.0606,
12.928627,-0.3073,-0.9357,-0.0195,-3.8238,-1.0909,5.3073,0.0708,0.3511,-0.0606,
12.931616,-0.3073,-0.9357,-0.0195,-3.8238,-1.0909,5.3073,-0.0361,0.4458,-0.1248,
12.967766,-0.3381,-0.9658,-0.0564,-3.8238,-1.0909,5.3073,-0.0361,0.4458,-0.1248,
12.972102,-0.3391,-1.0029,-0.0484,-3.8238,-1.0909,5.3073,-0.0361,0.4458,-0.1248,
12.973761,-0.3291,-1.0271,-0.0042,-3.8238,-1.0909,5.3073,-0.0361,0.4458,-0.1248,
12.988465,-0.3291,-1.0271,-0.0042,-3.8238,-1.0909,5.3073,0.0580,0.2888,-0.2115,
12.991385,-0.3291,-1.0271,-0.0042,-4.1981,-1.9789,5.4210,0.0580,0.2888,-0.2115,
13.027016,-0.3352,-1.0388,0.0239,-4.1981,-1.9789,5.4210,0.0580,0.2888,-0.2115,
13.030108,-0.3684,-1.0347,-0.0386,-4.1981,-1.9789,5.4210,0.0580,0.2888,-0.2115,
13.031426,-0.4322,-1.1160,-0.1612,-4.1981,-1.9789,5.4210,0.0580,0.2888,-0.2115,
13.048031,-0.4322,-1.1160,-0.1612,-5.3419,-2.8368,3.8357,0.0580,0.2888,-0.2115,
13.051210,-0.4322,-1.1160,-0.1612,-5.3419,-2.8368,3.8357,-0.0288,-0.0985,-0.1028,
13.088024,-0.4798,-1.3058,-0.1014,-5.3419,-2.8368,3.8357,-0.0288,-0.0985,-0.1028,
13.091345,-0.4102,-1.1910,-0.0938,-5.3419,-2.8368,3.8357,-0.0288,-0.0985,-0.1028,
13.093265,-0.3914,-1.0708,-0.1053,-5.3419,-2.8368,3.8357,-0.0288,-0.0985,-0.1028,
13.110404,-0.3914,-1.0708,-0.1053,-5.3419,-2.8368,3.8357,0.1807,-0.5786,0.1825,
13.113403,-0.3914,-1.0708,-0.1053,-4.8039,-2.3706,4.3756,0.1807,-0.5786,0.1825,
13.147643,-0.3462,-0.9958,-0.2091,-4.8039,-2.3706,4.3756,0.1807,-0.5786,0.1825,
13.151214,-0.2511,-0.8969,-0.2299,-4.8039,-2.3706,4.3756,0.1807,-0.5786,0.1825,
13.153024,-0.1060,-0.8324,-0.1976,-4.8039,-2.3706,4.3756,0.1807,-0.5786,0.1825,
13.167272,-0.1060,-0.8324,-0.1976,-1.7270,0.0534,3.3810,0.1807,-0.5786,0.1825,
13.170271,-0.1060,-0.8324,-0.1976,-1.7270,0.0534,3.3810,0.5137,-0.9928,-0.2653,
13.208710,0.0667,-0.8265,-0.1053,-1.7270,0.0534,3.3810,0.5137,-0.9928,-0.2653,
13.211590,0.1529,-0.9355,0.0552,-1.7270,0.0534,3.3810,0.5137,-0.9928,-0.2653,
13.213230,0.0689,-1.1106,0.0489,-1.7270,0.0534,3.3810,0.5137,-0.9928,-0.2653,
13.226867,0.0689,-1.1106,0.0489,0.1059,-2.4425,5.4367,0.5137,-0.9928,-0.2653,
13.229945,0.0689,-1.1106,0.0489,0.1059,-2.4425,5.4367,0.8551,-0.3972,0.1257,
13.267549,-0.0938,-1.2211,-0.0728,0.1059,-2.4425,5.4367,0.8551,-0.3972,0.1257,
13.270038,-0.2614,-1.2267,-0.1190,0.1059,-2.4425,5.4367,0.8551,-0.3972,0.1257,
13.271732,-0.3960,-1.1253,-0.1190,0.1059,-2.4425,5.4367,0.8551,-0.3972,0.1257,
13.286795,-0.3960,-1.1253,-0.1190,0.1059,-2.4425,5.4367,0.5344,-0.8633,0.8209,
13.289233,-0.3960,-1.1253,-0.1190,-3.9877,-2.3641,3.4270,0.5344,-0.8633,0.8209,
13.328406,-0.3743,-0.9609,0.0076,-3.9877,-2.3641,3.4270,0.5344,-0.8633,0.8209,
13.331320,-0.2301,-0.8969,0.0423,-3.9877,-2.3641,3.4270,0.5344,-0.8633,0.8209,
13.332573,-0.1671,-0.8952,0.0149,-3.9877,-2.3641,3.4270,0.5344,-0.8633,0.8209,
13.346921,-0.1671,-0.8952,0.0149,-3.9877,-2.3641,3.4270,0.4532,-0.9201,-0.2421,
13.349547,-0.1671,-0.8952,0.0149,-1.3492,0.0559,4.4057,0.4532,-0.9201,-0.2421,
13.387169,-0.1996,-0.8825,0.0259,-1.3492,0.0559,4.4057,0.4532,-0.9201,-0.2421,
13.390311,-0.2221,-0.8541,0.0657,-1.3492,0.0559,4.4057,0.4532,-0.9201,-0.2421,
13.391666,-0.2304,-0.8527,0.0611,-1.3492,0.0559,4.4057,0.4532,-0.9201,-0.2421,
13.407206,-0.2304,-0.8527,0.0611,-1.3492,0.0559,4.4057,0.1197,-1.3263,0.2625,
13.411307,-0.2304,-0.8527,0.0611,-1.7285,0.5592,4.6492,0.1197,-1.3263,0.2625,
13.448151,-0.2062,-0.8729,0.1075,-1.7285,0.5592,4.6492,0.1197,-1.3263,0.2625,
13.451323,-0.1791,-0.8695,0.1261,-1.7285,0.5592,4.6492,0.1197,-1.3263,0.2625,
13.452961,-0.1945,-0.8768,0.1256,-1.7285,0.5592,4.6492,0.1197,-1.3263,0.2625,
13.467232,-0.1945,-0.8768,0.1256,-1.7285,0.5592,4.6492,-0.0783,-1.1596,0.2485,
13.469979,-0.1945,-0.8768,0.1256,-0.8834,0.3307,5.1663,-0.0783,-1.1596,0.2485,
13.506956,-0.2333,-0.8754,0.0994,-0.8834,0.3307,5.1663,-0.0783,-1.1596,0.2485,
13.510538,-0.2380,-0.8681,0.1266,-0.8834,0.3307,5.1663,-0.0783,-1.1596,0.2485,
13.511881,-0.2177,-0.8649,0.1593,-0.8834,0.3307,5.1663,-0.0783,-1.1596,0.2485,
13.529154,-0.2177,-0.8649,0.1593,-0.8242,0.3948,5.5321,-0.0783,-1.1596,0.2485,
13.531873,-0.2177,-0.8649,0.1593,-0.8242,0.3948,5.5321,-0.4197,-0.7161,-0.0154,
13.566998,-0.1632,-0.8720,0.1935,-0.8242,0.3948,5.5321,-0.4197,-0.7161,-0.0154,
13.569929,-0.1490,-0.8832,0.2441,-0.8242,0.3948,5.5321,-0.4197,-0.7161,-0.0154,
13.571363,-0.2218,-0.8981,0.2719,-0.8242,0.3948,5.5321,-0.4197,-0.7161,-0.0154,
13.586952,-0.2218,-0.8981,0.2719,-0.8242,0.3948,5.5321,0.0268,-1.3642,0.0188,
13.589705,-0.2218,-0.8981,0.2719,-0.6367,0.0227,6.6574,0.0268,-1.3642,0.0188,
13.626931,-0.2636,-0.9421,0.2106,-0.6367,0.0227,6.6574,0.0268,-1.3642,0.0188,
13.629799,-0.2448,-0.9931,0.1583,-0.6367,0.0227,6.6574,0.0268,-1.3642,0.0188,
13.631167,-0.2235,-1.0576,0.2052,-0.6367,0.0227,6.6574,0.0268,-1.3642,0.0188,
13.647332,-0.2235,-1.0576,0.2052,-0.2880,-1.5250,5.8069,0.0268,-1.3642,0.0188,
13.650277,-0.2235,-1.0576,0.2052,-0.2880,-1.5250,5.8069,0.0799,-1.1296,0.1587,
13.686777,-0.2257,-1.0684,0.2695,-0.2880,-1.5250,5.8069,0.0799,-1.1296,0.1587,
13.689929,-0.2599,-0.9887,0.3586,-0.2880,-1.5250,5.8069,0.0799,-1.1296,0.1587,
13.691157,-0.3545,-0.9059,0.4183,-0.2880,-1.5250,5.8069,0.0799,-1.1296,0.1587,
13.709983,-0.3545,-0.9059,0.4183,-0.2880,-1.5250,5.8069,0.1197,-1.1516,0.6388,
13.712685,-0.3545,-0.9059,0.4183,-1.1751,-0.0377,7.6673,0.1197,-1.1516,0.6388,
13.747101,-0.3992,-0.8424,0.3926,-1.1751,-0.0377,7.6673,0.1197,-1.1516,0.6388,
13.749717,-0.3946,-1.1473,0.5131,-1.1751,-0.0377,7.6673,0.1197,-1.1516,0.6388,
13.751369,-0.3110,-1.3928,0.0313,-1.1751,-0.0377,7.6673,0.1197,-1.1516,0.6388,
13.767102,-0.3110,-1.3928,0.0313,-1.1751,-0.0377,7.6673,-0.4375,-0.9348,0.1239,
13.769961,-0.3110,-1.3928,0.0313,-0.1335,-4.8917,3.6193,-0.4375,-0.9348,0.1239,
13.808266,-0.1781,-1.2768,-0.1273,-0.1335,-4.8917,3.6193,-0.4375,-0.9348,0.1239,
13.811574,-0.0572,-0.9992,0.1082,-0.1335,-4.8917,3.6193,-0.4375,-0.9348,0.1239,
13.813472,-0.1759,-0.9391,0.2370,-0.1335,-4.8917,3.6193,-0.4375,-0.9348,0.1239,
13.828737,-0.1759,-0.9391,0.2370,-0.1335,-4.8917,3.6193,-0.7191,-1.0722,-0.1920,
13.831795,-0.1759,-0.9391,0.2370,1.2935,-0.5961,5.9246,-0.7191,-1.0722,-0.1920,
13.866482,-0.2345,-0.9487,0.1344,1.2935,-0.5961,5.9246,-0.7191,-1.0722,-0.1920,
13.869080,-0.1634,-0.9110,-0.0752,1.2935,-0.5961,5.9246,-0.7191,-1.0722,-0.1920,
13.870604,-0.1090,-0.8517,-0.1957,1.2935,-0.5961,5.9246,-0.7191,-1.0722,-0.1920,
13.888054,-0.1090,-0.8517,-0.1957,1.2935,-0.5961,5.9246,-1.1522,-1.1516,-0.1535,
13.890538,-0.1090,-0.8517,-0.1957,2.1479,0.1159,1.8528,-1.1522,-1.1516,-0.1535,
13.926689,-0.2079,-0.8080,-0.2326,2.1479,0.1159,1.8528,-1.1522,-1.1516,-0.1535,
13.928680,-0.2316,-0.8382,-0.3090,2.1479,0.1159,1.8528,-1.1522,-1.1516,-0.1535,
13.929813,-0.2077,-0.9294,-0.2536,2.1479,0.1159,1.8528,-1.1522,-1.1516,-0.1535,
13.946845,-0.2077,-0.9294,-0.2536,2.1479,0.1159,1.8528,-1.0129,-1.2921,-0.6752,
13.949199,-0.2077,-0.9294,-0.2536,1.2665,-0.8463,1.6399,-1.0129,-1.2921,-0.6752,
13.987865,-0.1840,-1.0427,-0.0643,1.2665,-0.8463,1.6399,-1.0129,-1.2921,-0.6752,
13.990923,-0.2416,-1.1170,0.0247,1.2665,-0.8463,1.6399,-1.0129,-1.2921,-0.6752,
13.992686,-0.3086,-1.1343,-0.0322,1.2665,-0.8463,1.6399,-1.0129,-1.2921,-0.6752,
14.006911,-0.3086,-1.1343,-0.0322,0.3767,-2.9413,3.8995,-1.0129,-1.2921,-0.6752,
14.009684,-0.3086,-1.1343,-0.0322,0.3767,-2.9413,3.8995,-0.5547,-0.8877,0.4293,
14.047459,-0.2915,-1.0493,-0.0586,0.3767,-2.9413,3.8995,-0.5547,-0.8877,0.4293,
14.050164,-0.2875,-0.9660,-0.0406,0.3767,-2.9413,3.8995,-0.5547,-0.8877,0.4293,
14.051768,-0.2492,-0.9274,-0.0809,0.3767,-2.9413,3.8995,-0.5547,-0.8877,0.4293,
14.068408,-0.2492,-0.9274,-0.0809,0.3767,-2.9413,3.8995,-0.5963,-0.9641,0.5331,
14.071241,-0.2492,-0.9274,-0.0809,1.5052,-1.2045,3.5004,-0.5963,-0.9641,0.5331,
14.107798,-0.2221,-0.8986,-0.0989,1.5052,-1.2045,3.5004,-0.5963,-0.9641,0.5331,
14.111442,-0.2282,-0.8734,-0.0950,1.5052,-1.2045,3.5004,-0.5963,-0.9641,0.5331,
14.113043,-0.2360,-0.8622,-0.0875,1.5052,-1.2045,3.5004,-0.5963,-0.9641,0.5331,
14.127511,-0.2360,-0.8622,-0.0875,1.5052,-1.2045,3.5004,-0.6256,-0.7424,-0.2842,
14.130560,-0.2360,-0.8622,-0.0875,1.9349,-0.7561,3.4947,-0.6256,-0.7424,-0.2842,
14.167634,-0.2397,-0.8646,-0.0789,1.9349,-0.7561,3.4947,-0.6256,-0.7424,-0.2842,
14.170361,-0.2406,-0.8915,-0.0552,1.9349,-0.7561,3.4947,-0.6256,-0.7424,-0.2842,
14.172046,-0.2323,-0.9365,-0.0628,1.9349,-0.7561,3.4947,-0.6256,-0.7424,-0.2842,
14.188270,-0.2323,-0.9365,-0.0628,1.9909,-1.5231,3.7858,-0.6256,-0.7424,-0.2842,
14.191880,-0.2323,-0.9365,-0.0628,1.9909,-1.5231,3.7858,-0.4772,-0.7088,-0.3257,
14.226995,-0.2226,-0.9895,-0.0577,1.9909,-1.5231,3.7858,-0.4772,-0.7088,-0.3257,
14.229320,-0.2216,-1.0085,-0.0533,1.9909,-1.5231,3.7858,-0.4772,-0.7088,-0.3257,
14.230622,-0.2355,-0.9992,-0.0567,1.9909,-1.5231,3.7858,-0.4772,-0.7088,-0.3257,
14.246989,-0.2355,-0.9992,-0.0567,1.9909,-1.5231,3.7858,-0.3703,-0.3111,0.0389,
14.249749,-0.2355,-0.9992,-0.0567,2.0232,-2.1942,3.8801,-0.3703,-0.3111,0.0389,
14.286975,-0.2365,-0.9719,-0.0752,2.0232,-2.1942,3.8801,-0.3703,-0.3111,0.0389,
14.290421,-0.2177,-0.9611,-0.0606,2.0232,-2.1942,3.8801,-0.3703,-0.3111,0.0389,
14.291737,-0.1942,-0.9936,-0.0178,2.0232,-2.1942,3.8801,-0.3703,-0.3111,0.0389,
14.308197,-0.1942,-0.9936,-0.0178,2.4728,-2.1926,4.3077,-0.3703,-0.3111,0.0389,
14.311068,-0.1942,-0.9936,-0.0178,2.4728,-2.1926,4.3077,-0.1467,-0.1523,-0.2225,
14.347800,-0.1654,-1.0352,0.0002,2.4728,-2.1926,4.3077,-0.1467,-0.1523,-0.2225,
14.350666,-0.1840,-1.0479,-0.0403,2.4728,-2.1926,4.3077,-0.1467,-0.1523,-0.2225,
14.352248,-0.2402,-1.0212,-0.0831,2.4728,-2.1926,4.3077,-0.1467,-0.1523,-0.2225,
14.367379,-0.2402,-1.0212,-0.0831,2.4728,-2.1926,4.3077,-0.1406,0.0933,-0.2860,
14.371208,-0.2402,-1.0212,-0.0831,1.8766,-2.3917,3.6878,-0.1406,0.0933,-0.2860,
14.407769,-0.3083,-0.9992,-0.0435,1.8766,-2.3917,3.6878,-0.1406,0.0933,-0.2860,
14.411181,-0.3286,-1.0024,0.0139,1.8766,-2.3917,3.6878,-0.1406,0.0933,-0.2860,
14.412965,-0.2937,-1.0010,0.0757,1.8766,-2.3917,3.6878,-0.1406,0.0933,-0.2860,
14.428060,-0.2937,-1.0010,0.0757,1.8766,-2.3917,3.6878,-0.0215,0.2973,-0.1211,
14.430943,-0.2937,-1.0010,0.0757,1.2319,-2.1578,5.2958,-0.0215,0.2973,-0.1211,
14.466585,-0.2849,-0.9638,-0.0076,1.2319,-2.1578,5.2958,-0.0215,0.2973,-0.1211,
14.468862,-0.3435,-1.0698,-0.0730,1.2319,-2.1578,5.2958,-0.0215,0.2973,-0.1211,
14.470483,-0.4583,-1.2555,-0.1419,1.2319,-2.1578,5.2958,-0.0215,0.2973,-0.1211,
14.486870,-0.4583,-1.2555,-0.1419,1.2319,-2.1578,5.2958,-0.0282,-0.0783,0.0951,
14.489091,-0.4583,-1.2555,-0.1419,-0.5133,-4.6303,3.2410,-0.0282,-0.0783,0.0951,
14.527738,-0.4024,-1.1534,-0.1466,-0.5133,-4.6303,3.2410,-0.0282,-0.0783,0.0951,
14.530481,-0.3152,-1.0342,-0.2108,-0.5133,-4.6303,3.2410,-0.0282,-0.0783,0.0951,
14.532054,-0.2587,-1.0234,-0.2883,-0.5133,-4.6303,3.2410,-0.0282,-0.0783,0.0951,
14.547563,-0.2587,-1.0234,-0.2883,-0.5133,-4.6303,3.2410,0.1166,-0.8132,0.1727,
14.550077,-0.2587,-1.0234,-0.2883,1.6166,-2.3821,1.6966,0.1166,-0.8132,0.1727,
14.586240,-0.1700,-0.9538,-0.2336,1.6166,-2.3821,1.6966,0.1166,-0.8132,0.1727,
14.588286,-0.0672,-0.8649,-0.2103,1.6166,-2.3821,1.6966,0.1166,-0.8132,0.1727,
14.589377,0.0188,-0.8351,-0.1813,1.6166,-2.3821,1.6966,0.1166,-0.8132,0.1727,
14.608330,0.0188,-0.8351,-0.1813,4.6084,-0.4746,2.3668,0.1166,-0.8132,0.1727,
14.611087,0.0188,-0.8351,-0.1813,4.6084,-0.4746,2.3668,0.5430,-0.9794,-0.0735,
14.646909,0.0865,-0.8710,-0.0640,4.6084,-0.4746,2.3668,0.5430,-0.9794,-0.0735,
14.649458,0.0247,-1.0144,0.0007,4.6084,-0.4746,2.3668,0.5430,-0.9794,-0.0735,
14.650600,-0.0987,-1.1502,-0.0706,4.6084,-0.4746,2.3668,0.5430,-0.9794,-0.0735,
14.666937,-0.0987,-1.1502,-0.0706,3.6408,-3.4037,2.9167,0.5430,-0.9794,-0.0735,
14.669601,-0.0987,-1.1502,-0.0706,3.6408,-3.4037,2.9167,0.6878,-0.5224,0.4617,
14.706680,-0.2084,-1.2133,-0.0953,3.6408,-3.4037,2.9167,0.6878,-0.5224,0.4617,
14.709449,-0.2968,-1.2047,-0.1175,3.6408,-3.4037,2.9167,0.6878,-0.5224,0.4617,
14.711110,-0.2956,-1.1131,-0.0288,3.6408,-3.4037,2.9167,0.6878,-0.5224,0.4617,
14.727224,-0.2956,-1.1131,-0.0288,3.6408,-3.4037,2.9167,0.6713,-0.7857,0.4116,
14.732020,-0.2956,-1.1131,-0.0288,2.1066,-3.0719,2.8359,0.6713,-0.7857,0.4116,
14.768209,-0.2123,-1.0134,0.0484,2.1066,-3.0719,2.8359,0.6713,-0.7857,0.4116,
14.771060,-0.1554,-0.9587,0.0193,2.1066,-3.0719,2.8359,0.6713,-0.7857,0.4116,
14.772556,-0.1730,-0.9062,0.0024,2.1066,-3.0719,2.8359,0.6713,-0.7857,0.4116,
14.789601,-0.1730,-0.9062,0.0024,3.4389,-0.9294,2.5918,0.6713,-0.7857,0.4116,
14.792027,-0.1730,-0.9062,0.0024,3.4389,-0.9294,2.5918,0.3787,-0.9800,-0.1559,
14.828351,-0.2216,-0.8786,0.0105,3.4389,-0.9294,2.5918,0.3787,-0.9800,-0.1559,
14.831564,-0.2419,-0.8517,0.0332,3.4389,-0.9294,2.5918,0.3787,-0.9800,-0.1559,
14.833051,-0.1925,-0.8661,0.0853,3.4389,-0.9294,2.5918,0.3787,-0.9800,-0.1559,
14.850183,-0.1925,-0.8661,0.0853,3.4389,-0.9294,2.5918,0.1288,-1.1895,0.3193,
14.852870,-0.1925,-0.8661,0.0853,3.4208,-0.5098,2.9221,0.1288,-1.1895,0.3193,
14.887951,-0.0987,-0.8644,0.1246,3.4208,-0.5098,2.9221,0.1288,-1.1895,0.3193,
14.890328,-0.0745,-0.8671,0.1402,3.4208,-0.5098,2.9221,0.1288,-1.1895,0.3193,
14.891876,-0.1180,-0.8737,0.1334,3.4208,-0.5098,2.9221,0.1288,-1.1895,0.3193,
14.907326,-0.1180,-0.8737,0.1334,4.3757,-0.6449,3.0060,0.1288,-1.1895,0.3193,
14.910091,-0.1180,-0.8737,0.1334,4.3757,-0.6449,3.0060,-0.1424,-0.6752,0.1593,
14.947810,-0.1590,-0.8639,0.1090,4.3757,-0.6449,3.0060,-0.1424,-0.6752,0.1593,
14.952368,-0.1561,-0.8478,0.1297,4.3757,-0.6449,3.0060,-0.1424,-0.6752,0.1593,
14.954147,-0.1363,-0.8360,0.1783,4.3757,-0.6449,3.0060,-0.1424,-0.6752,0.1593,
14.966912,-0.1363,-0.8360,0.1783,4.2791,-0.3417,3.4780,-0.1424,-0.6752,0.1593,
14.969532,-0.1363,-0.8360,0.1783,4.2791,-0.3417,3.4780,-0.3709,-0.1107,0.1043,
15.006846,-0.0950,-0.8553,0.2316,4.2791,-0.3417,3.4780,-0.3709,-0.1107,0.1043,
15.009526,-0.1378,-0.8781,0.2817,4.2791,-0.3417,3.4780,-0.3709,-0.1107,0.1043,
15.011152,-0.2067,-0.9152,0.2428,4.2791,-0.3417,3.4780,-0.3709,-0.1107,0.1043,
15.027571,-0.2067,-0.9152,0.2428,3.6502,-1.1523,4.0700,-0.3709,-0.1107,0.1043,
15.030242,-0.2067,-0.9152,0.2428,3.6502,-1.1523,4.0700,-0.0514,-0.4895,0.1752,
15.068681,-0.2726,-0.9770,0.1520,3.6502,-1.1523,4.0700,-0.0514,-0.4895,0.1752,
15.071058,-0.3112,-1.0508,0.1363,3.6502,-1.1523,4.0700,-0.0514,-0.4895,0.1752,
15.072336,-0.3362,-1.0935,0.1561,3.6502,-1.1523,4.0700,-0.0514,-0.4895,0.1752,
15.087023,-0.3362,-1.0935,0.1561,2.5115,-2.9699,3.0941,-0.0514,-0.4895,0.1752,
15.089685,-0.3362,-1.0935,0.1561,2.5115,-2.9699,3.0941,-0.3226,-0.4021,0.2509,
15.126773,-0.3376,-1.0532,0.2668,2.5115,-2.9699,3.0941,-0.3226,-0.4021,0.2509,
15.129672,-0.3523,-0.9858,0.3848,2.5115,-2.9699,3.0941,-0.3226,-0.4021,0.2509,
15.131318,-0.3897,-1.1260,0.5920,2.5115,-2.9699,3.0941,-0.3226,-0.4021,0.2509,
15.148158,-0.3897,-1.1260,0.5920,2.5115,-2.9699,3.0941,0.5790,-0.8676,0.2937,
15.150566,-0.3897,-1.1260,0.5920,2.1702,-3.4084,7.2623,0.5790,-0.8676,0.2937,
15.186907,-0.3000,-1.4502,0.1998,2.1702,-3.4084,7.2623,0.5790,-0.8676,0.2937,
15.190062,-0.2729,-1.4397,-0.1434,2.1702,-3.4084,7.2623,0.5790,-0.8676,0.2937,
15.191799,0.0279,-1.0603,0.0171,2.1702,-3.4084,7.2623,0.5790,-0.8676,0.2937,
15.207795,0.0279,-1.0603,0.0171,2.1702,-3.4084,7.2623,-0.2469,-0.4699,-0.3361,
15.211123,0.0279,-1.0603,0.0171,6.2763,-2.7200,1.3007,-0.2469,-0.4699,-0.3361,
15.248155,0.0359,-0.8749,0.2304,6.2763,-2.7200,1.3007,-0.2469,-0.4699,-0.3361,
15.251477,-0.0415,-0.8891,0.2160,6.2763,-2.7200,1.3007,-0.2469,-0.4699,-0.3361,
15.253991,-0.0706,-0.9062,0.0525,6.2763,-2.7200,1.3007,-0.2469,-0.4699,-0.3361,
15.267511,-0.0706,-0.9062,0.0525,5.2494,-1.1403,1.4954,-0.2469,-0.4699,-0.3361,
15.270510,-0.0706,-0.9062,0.0525,5.2494,-1.1403,1.4954,-0.0911,-0.3850,0.2130,
15.307228,-0.1268,-0.8441,-0.2147,5.2494,-1.1403,1.4954,-0.0911,-0.3850,0.2130,
15.310273,-0.1549,-0.8155,-0.3750,5.2494,-1.1403,1.4954,-0.0911,-0.3850,0.2130,
15.311881,-0.2103,-0.8624,-0.3389,5.2494,-1.1403,1.4954,-0.0911,-0.3850,0.2130,
15.326686,-0.2103,-0.8624,-0.3389,5.2494,-1.1403,1.4954,-0.7240,-0.5450,-0.4223,
15.329490,-0.2103,-0.8624,-0.3389,3.9209,-0.7470,-2.3121,-0.7240,-0.5450,-0.4223,
15.367187,-0.1942,-1.0078,-0.1717,3.9209,-0.7470,-2.3121,-0.7240,-0.5450,-0.4223,
15.369725,-0.0562,-1.1204,-0.0281,3.9209,-0.7470,-2.3121,-0.7240,-0.5450,-0.4223,
15.371261,-0.0486,-1.1392,0.0525,3.9209,-0.7470,-2.3121,-0.7240,-0.5450,-0.4223,
15.386973,-0.0486,-1.1392,0.0525,3.9209,-0.7470,-2.3121,0.1972,0.2515,-0.1205,
15.390001,-0.0486,-1.1392,0.0525,5.2526,-3.2763,1.5754,0.1972,0.2515,-0.1205,
15.426734,-0.0982,-1.1168,-0.0034,5.2526,-3.2763,1.5754,0.1972,0.2515,-0.1205,
15.429411,-0.1561,-1.0449,-0.0628,5.2526,-3.2763,1.5754,0.1972,0.2515,-0.1205,
15.430975,-0.2033,-0.9731,-0.0613,5.2526,-3.2763,1.5754,0.1972,0.2515,-0.1205,
15.446607,-0.2033,-0.9731,-0.0613,5.2526,-3.2763,1.5754,-0.1607,0.7750,0.9088,
15.448807,-0.2033,-0.9731,-0.0613,3.9209,-1.8116,0.6381,-0.1607,0.7750,0.9088,
15.487221,-0.2038,-0.9203,-0.0953,3.9209,-1.8116,0.6381,-0.1607,0.7750,0.9088,
15.489960,-0.1656,-0.8644,-0.0828,3.9209,-1.8116,0.6381,-0.1607,0.7750,0.9088,
15.491220,-0.1510,-0.8282,-0.0765,3.9209,-1.8116,0.6381,-0.1607,0.7750,0.9088,
15.507055,-0.1510,-0.8282,-0.0765,3.9209,-1.8116,0.6381,-0.2139,1.0884,-0.0771,
15.509684,-0.1510,-0.8282,-0.0765,4.6081,-0.6063,0.8950,-0.2139,1.0884,-0.0771,
15.546801,-0.1524,-0.8273,-0.0718,4.6081,-0.6063,0.8950,-0.2139,1.0884,-0.0771,
15.549552,-0.1976,-0.8766,-0.0474,4.6081,-0.6063,0.8950,-0.2139,1.0884,-0.0771,
15.551013,-0.2519,-0.9509,-0.0432,4.6081,-0.6063,0.8950,-0.2139,1.0884,-0.0771,
15.570809,-0.2519,-0.9509,-0.0432,4.6081,-0.6063,0.8950,-0.2053,1.0640,-0.3862,
15.573857,-0.2519,-0.9509,-0.0432,3.3087,-1.6873,1.7115,-0.2053,1.0640,-0.3862,
15.607648,-0.2570,-1.0161,-0.0122,3.3087,-1.6873,1.7115,-0.2053,1.0640,-0.3862,
15.611144,-0.2687,-1.0505,0.0318,3.3087,-1.6873,1.7115,-0.2053,1.0640,-0.3862,
15.612669,-0.2985,-1.0266,0.0718,3.3087,-1.6873,1.7115,-0.2053,1.0640,-0.3862,
15.626791,-0.2985,-1.0266,0.0718,3.3087,-1.6873,1.7115,-0.0380,0.9345,0.1452,
15.629158,-0.2985,-1.0266,0.0718,2.6239,-2.3809,3.2321,-0.0380,0.9345,0.1452,
15.667963,-0.3051,-0.9650,0.0716,2.6239,-2.3809,3.2321,-0.0380,0.9345,0.1452,
15.670918,-0.2834,-0.9426,0.0420,2.6239,-2.3809,3.2321,-0.0380,0.9345,0.1452,
15.672312,-0.2514,-0.9387,0.0388,2.6239,-2.3809,3.2321,-0.0380,0.9345,0.1452,
15.687275,-0.2514,-0.9387,0.0388,2.6239,-2.3809,3.2321,0.2626,0.8856,-0.1077,
15.691482,-0.2514,-0.9387,0.0388,2.9696,-1.5180,3.1473,0.2626,0.8856,-0.1077,
15.726848,-0.2079,-0.9347,0.0528,2.9696,-1.5180,3.1473,0.2626,0.8856,-0.1077,
15.729499,-0.2125,-0.9438,0.0403,2.9696,-1.5180,3.1473,0.2626,0.8856,-0.1077,
15.731181,-0.2770,-0.9858,0.0344,2.9696,-1.5180,3.1473,0.2626,0.8856,-0.1077,
15.746704,-0.2770,-0.9858,0.0344,2.9696,-1.5180,3.1473,0.1697,1.0371,-0.1639,
15.749487,-0.2770,-0.9858,0.0344,2.4582,-1.8674,3.2819,0.1697,1.0371,-0.1639,
15.787495,-0.3599,-1.0127,0.0139,2.4582,-1.8674,3.2819,0.1697,1.0371,-0.1639,
15.790283,-0.3889,-0.9934,0.0227,2.4582,-1.8674,3.2819,0.1697,1.0371,-0.1639,
15.791780,-0.3628,-0.9731,0.0603,2.4582,-1.8674,3.2819,0.1697,1.0371,-0.1639,
15.807154,-0.3628,-0.9731,0.0603,1.3891,-1.6867,3.7701,0.1697,1.0371,-0.1639,
15.810371,-0.3628,-0.9731,0.0603,1.3891,-1.6867,3.7701,0.0329,1.0829,-0.0362,
15.847576,-0.2922,-0.9599,0.0296,1.3891,-1.6867,3.7701,0.0329,1.0829,-0.0362,
15.850623,-0.1583,-1.0608,-0.0010,1.3891,-1.6867,3.7701,0.0329,1.0829,-0.0362,
15.852015,-0.2406,-1.3227,-0.0159,1.3891,-1.6867,3.7701,0.0329,1.0829,-0.0362,
15.870267,-0.2406,-1.3227,-0.0159,2.2945,-5.0750,3.3528,0.0329,1.0829,-0.0362,
15.873125,-0.2406,-1.3227,-0.0159,2.2945,-5.0750,3.3528,0.0476,1.2277,0.0762,
15.907291,-0.2384,-1.2199,-0.0767,2.2945,-5.0750,3.3528,0.0476,1.2277,0.0762,
15.912262,-0.2744,-1.0620,-0.0877,2.2945,-5.0750,3.3528,0.0476,1.2277,0.0762,
15.913815,-0.2421,-1.0791,-0.0696,2.2945,-5.0750,3.3528,0.0476,1.2277,0.0762,
15.928159,-0.2421,-1.0791,-0.0696,2.1635,-2.7353,3.0759,0.0476,1.2277,0.0762,
15.931102,-0.2421,-1.0791,-0.0696,2.1635,-2.7353,3.0759,0.1551,1.0402,0.2931,
15.967518,-0.1686,-1.0887,-0.1512,2.1635,-2.7353,3.0759,0.1551,1.0402,0.2931,
15.970775,-0.1046,-1.0044,-0.2182,2.1635,-2.7353,3.0759,0.1551,1.0402,0.2931,
15.972087,-0.0782,-0.9093,-0.2575,2.1635,-2.7353,3.0759,0.1551,1.0402,0.2931,
15.988155,-0.0782,-0.9093,-0.2575,3.6311,-1.0502,1.3538,0.1551,1.0402,0.2931,
15.991150,-0.0782,-0.9093,-0.2575,3.6311,-1.0502,1.3538,0.4330,0.6755,0.1074,
16.026701,-0.0476,-0.8431,-0.2551,3.6311,-1.0502,1.3538,0.4330,0.6755,0.1074,
16.029712,0.0706,-0.8864,-0.1268,3.6311,-1.0502,1.3538,0.4330,0.6755,0.1074,
16.031202,0.1759,-1.0232,0.0242,3.6311,-1.0502,1.3538,0.4330,0.6755,0.1074,
16.048216,0.1759,-1.0232,0.0242,5.9464,-1.9934,3.9514,0.4330,0.6755,0.1074,
16.051662,0.1759,-1.0232,0.0242,5.9464,-1.9934,3.9514,0.9779,0.9485,-0.1669,
16.087254,0.1551,-1.2089,0.0567,5.9464,-1.9934,3.9514,0.9779,0.9485,-0.1669,
16.090250,0.0608,-1.2797,-0.0599,5.9464,-1.9934,3.9514,0.9779,0.9485,-0.1669,
16.091722,-0.0635,-1.2157,-0.1319,5.9464,-1.9934,3.9514,0.9779,0.9485,-0.1669,
16.107396,-0.0635,-1.2157,-0.1319,3.2926,-3.6533,2.2576,0.9779,0.9485,-0.1669,
16.110973,-0.0635,-1.2157,-0.1319,3.2926,-3.6533,2.2576,0.8423,1.5759,0.2613,
16.146925,-0.2209,-1.0782,-0.0450,3.2926,-3.6533,2.2576,0.8423,1.5759,0.2613,
16.149495,-0.2409,-0.9729,0.0721,3.2926,-3.6533,2.2576,0.8423,1.5759,0.2613,
16.151113,-0.1766,-0.9308,0.0540,3.2926,-3.6533,2.2576,0.8423,1.5759,0.2613,
16.167424,-0.1766,-0.9308,0.0540,3.2926,-3.6533,2.2576,0.9394,1.5777,-0.4614,
16.170554,-0.1766,-0.9308,0.0540,1.8388,-0.6635,3.9754,0.9394,1.5777,-0.4614,
16.207725,-0.1727,-0.9181,-0.0195,1.8388,-0.6635,3.9754,0.9394,1.5777,-0.4614,
16.210745,-0.2177,-0.8715,0.0147,1.8388,-0.6635,3.9754,0.9394,1.5777,-0.4614,
16.212067,-0.2358,-0.8290,0.0884,1.8388,-0.6635,3.9754,0.9394,1.5777,-0.4614,
16.226834,-0.2358,-0.8290,0.0884,1.8388,-0.6635,3.9754,0.4526,1.1495,-0.1297,
16.229418,-0.2358,-0.8290,0.0884,0.7747,0.5642,4.2088,0.4526,1.1495,-0.1297,
16.268129,-0.2018,-0.8204,0.1385,0.7747,0.5642,4.2088,0.4526,1.1495,-0.1297,
16.271210,-0.1510,-0.8287,0.2020,0.7747,0.5642,4.2088,0.4526,1.1495,-0.1297,
16.272758,-0.1407,-0.8546,0.2294,0.7747,0.5642,4.2088,0.4526,1.1495,-0.1297,
16.288467,-0.1407,-0.8546,0.2294,0.7747,0.5642,4.2088,0.1868,1.3395,-0.0374,
16.291105,-0.1407,-0.8546,0.2294,1.4424,0.3931,5.6134,0.1868,1.3395,-0.0374,
16.326693,-0.1673,-0.8820,0.1749,1.4424,0.3931,5.6134,0.1868,1.3395,-0.0374,
16.329414,-0.1976,-0.8720,0.1649,1.4424,0.3931,5.6134,0.1868,1.3395,-0.0374,
16.330972,-0.1947,-0.8441,0.2040,1.4424,0.3931,5.6134,0.1868,1.3395,-0.0374,
16.347100,-0.1947,-0.8441,0.2040,0.5982,0.5336,5.5126,0.1868,1.3395,-0.0374,
16.350190,-0.1947,-0.8441,0.2040,0.5982,0.5336,5.5126,-0.0654,1.1251,-0.0728,
16.387485,-0.1940,-0.8681,0.2380,0.5982,0.5336,5.5126,-0.0654,1.1251,-0.0728,
16.390470,-0.1761,-0.9382,0.2240,0.5982,0.5336,5.5126,-0.0654,1.1251,-0.0728,
16.391786,-0.1551,-0.9765,0.1867,0.5982,0.5336,5.5126,-0.0654,1.1251,-0.0728,
16.407794,-0.1551,-0.9765,0.1867,0.5982,0.5336,5.5126,-0.1870,0.8007,0.0622,
16.411557,-0.1551,-0.9765,0.1867,0.7773,-0.7755,5.5101,-0.1870,0.8007,0.0622,
16.447623,-0.1764,-1.0181,0.1937,0.7773,-0.7755,5.5101,-0.1870,0.8007,0.0622,
16.451016,-0.2196,-1.0337,0.2138,0.7773,-0.7755,5.5101,-0.1870,0.8007,0.0622,
16.452688,-0.3022,-1.0408,0.1994,0.7773,-0.7755,5.5101,-0.1870,0.8007,0.0622,
16.466633,-0.3022,-1.0408,0.1994,0.7773,-0.7755,5.5101,-0.1314,0.4653,0.1642,
16.469022,-0.3022,-1.0408,0.1994,-0.7530,-1.4426,5.7755,-0.1314,0.4653,0.1642,
16.508564,-0.2961,-1.0894,0.2509,-0.7530,-1.4426,5.7755,-0.1314,0.4653,0.1642,
16.511551,-0.1818,-1.1048,0.3261,-0.7530,-1.4426,5.7755,-0.1314,0.4653,0.1642,
16.513161,-0.1099,-1.0398,0.3848,-0.7530,-1.4426,5.7755,-0.1314,0.4653,0.1642,
16.527747,-0.1099,-1.0398,0.3848,1.0664,-1.4355,7.6350,-0.1314,0.4653,0.1642,
16.531759,-0.1099,-1.0398,0.3848,1.0664,-1.4355,7.6350,0.1862,0.2589,0.0322,
16.567285,-0.1229,-1.0567,0.4163,1.0664,-1.4355,7.6350,0.1862,0.2589,0.0322,
16.568864,-0.1195,-1.3242,0.2072,1.0664,-1.4355,7.6350,0.1862,0.2589,0.0322,
16.569922,-0.1283,-1.3457,-0.0894,1.0664,-1.4355,7.6350,0.1862,0.2589,0.0322,
16.587612,-0.1283,-1.3457,-0.0894,1.0664,-1.4355,7.6350,-0.0422,0.4861,-0.2414,
16.589096,-0.1283,-1.3457,-0.0894,0.7867,-4.3343,2.8134,-0.0422,0.4861,-0.2414,
16.626418,-0.0965,-1.0933,0.1439,0.7867,-4.3343,2.8134,-0.0422,0.4861,-0.2414,
16.629022,-0.0447,-0.8534,0.2411,0.7867,-4.3343,2.8134,-0.0422,0.4861,-0.2414,
16.630540,0.0103,-0.8556,0.1749,0.7867,-4.3343,2.8134,-0.0422,0.4861,-0.2414,
16.646691,0.0103,-0.8556,0.1749,0.7867,-4.3343,2.8134,0.3835,0.5618,-0.0331,
16.649133,0.0103,-0.8556,0.1749,1.9802,0.5232,5.3590,0.3835,0.5618,-0.0331,
16.687643,-0.0594,-0.9604,0.0457,1.9802,0.5232,5.3590,0.3835,0.5618,-0.0331,
16.690882,-0.1114,-1.0034,-0.1058,1.9802,0.5232,5.3590,0.3835,0.5618,-0.0331,
16.692623,-0.0982,-0.8983,-0.1859,1.9802,0.5232,5.3590,0.3835,0.5618,-0.0331,
16.706705,-0.0982,-0.8983,-0.1859,1.9802,0.5232,5.3590,0.0299,0.5973,-0.3001,
16.708831,-0.0982,-0.8983,-0.1859,0.7115,0.1783,1.7403,0.0299,0.5973,-0.3001,
16.746536,-0.1341,-0.8551,-0.2199,0.7115,0.1783,1.7403,0.0299,0.5973,-0.3001,
16.749044,-0.1546,-0.8900,-0.2968,0.7115,0.1783,1.7403,0.0299,0.5973,-0.3001,
16.750279,-0.1422,-0.9919,-0.2475,0.7115,0.1783,1.7403,0.0299,0.5973,-0.3001,
16.766936,-0.1422,-0.9919,-0.2475,-0.0404,-0.7096,1.1994,0.0299,0.5973,-0.3001,
16.769301,-0.1422,-0.9919,-0.2475,-0.0404,-0.7096,1.1994,-0.0208,0.6755,-0.2359,
16.806378,-0.1444,-1.0999,-0.1136,-0.0404,-0.7096,1.1994,-0.0208,0.6755,-0.2359,
16.808843,-0.1546,-1.1385,-0.0853,-0.0404,-0.7096,1.1994,-0.0208,0.6755,-0.2359,
16.811000,-0.1534,-1.0738,-0.1229,-0.0404,-0.7096,1.1994,-0.0208,0.6755,-0.2359,
16.826759,-0.1534,-1.0738,-0.1229,-0.2902,-1.5116,2.4694,-0.0208,0.6755,-0.2359,
16.829423,-0.1534,-1.0738,-0.1229,-0.2902,-1.5116,2.4694,-0.0056,1.2735,0.5777,
16.866741,-0.1546,-0.9724,-0.1053,-0.2902,-1.5116,2.4694,-0.0056,1.2735,0.5777,
16.869813,-0.1798,-0.9247,-0.0970,-0.2902,-1.5116,2.4694,-0.0056,1.2735,0.5777,
16.872275,-0.1793,-0.9308,-0.0853,-0.2902,-1.5116,2.4694,-0.0056,1.2735,0.5777,
16.887080,-0.1793,-0.9308,-0.0853,-0.2902,-1.5116,2.4694,-0.0544,1.3938,0.2595,
16.890389,-0.1793,-0.9308,-0.0853,-0.5451,-0.1499,2.9324,-0.0544,1.3938,0.2595,
16.926502,-0.1739,-0.9352,-0.0867,-0.5451,-0.1499,2.9324,-0.0544,1.3938,0.2595,
16.928828,-0.2045,-0.9367,-0.0745,-0.5451,-0.1499,2.9324,-0.0544,1.3938,0.2595,
16.930621,-0.2125,-0.9369,-0.0892,-0.5451,-0.1499,2.9324,-0.0544,1.3938,0.2595,
16.946711,-0.2125,-0.9369,-0.0892,-0.5451,-0.1499,2.9324,-0.0813,1.5710,-0.1773,
16.949221,-0.2125,-0.9369,-0.0892,-1.2139,-0.2132,2.9957,-0.0813,1.5710,-0.1773,
16.986346,-0.2467,-0.9597,-0.0748,-1.2139,-0.2132,2.9957,-0.0813,1.5710,-0.1773,
16.989181,-0.3098,-1.0024,-0.0596,-1.2139,-0.2132,2.9957,-0.0813,1.5710,-0.1773,
16.991176,-0.3660,-1.0097,-0.0129,-1.2139,-0.2132,2.9957,-0.0813,1.5710,-0.1773,
17.008428,-0.3660,-1.0097,-0.0129,-1.2139,-0.2132,2.9957,-0.1137,1.3908,0.1538,
17.011680,-0.3660,-1.0097,-0.0129,-3.0960,-0.9424,3.8443,-0.1137,1.3908,0.1538,
17.046270,-0.4121,-1.0061,-0.0051,-3.0960,-0.9424,3.8443,-0.1137,1.3908,0.1538,
17.048843,-0.3975,-0.9626,0.0164,-3.0960,-0.9424,3.8443,-0.1137,1.3908,0.1538,
17.050872,-0.3797,-0.9157,0.0049,-3.0960,-0.9424,3.8443,-0.1137,1.3908,0.1538,
17.067516,-0.3797,-0.9157,0.0049,-3.3966,-0.0403,4.0800,-0.1137,1.3908,0.1538,
17.070527,-0.3797,-0.9157,0.0049,-3.3966,-0.0403,4.0800,-0.0434,1.0988,0.2246,
17.106791,-0.3552,-0.8834,-0.0022,-3.3966,-0.0403,4.0800,-0.0434,1.0988,0.2246,
17.109078,-0.3213,-0.8754,-0.0015,-3.3966,-0.0403,4.0800,-0.0434,1.0988,0.2246,
17.110321,-0.3049,-0.9325,0.0139,-3.3966,-0.0403,4.0800,-0.0434,1.0988,0.2246,
17.128457,-0.3049,-0.9325,0.0139,-3.3966,-0.0403,4.0800,0.1832,0.7799,-0.0918,
17.130910,-0.3049,-0.9325,0.0139,-2.8048,-0.1949,4.1540,0.1832,0.7799,-0.0918,
17.166867,-0.2973,-0.9961,0.0269,-2.8048,-0.1949,4.1540,0.1832,0.7799,-0.0918,
17.169737,-0.2797,-1.0112,0.0398,-2.8048,-0.1949,4.1540,0.1832,0.7799,-0.0918,
17.170896,-0.2778,-1.0200,0.0660,-2.8048,-0.1949,4.1540,0.1832,0.7799,-0.0918,
17.187004,-0.2778,-1.0200,0.0660,-2.8048,-0.1949,4.1540,0.3060,0.9675,-0.2201,
17.190185,-0.2778,-1.0200,0.0660,-2.8258,-0.9787,4.4994,0.3060,0.9675,-0.2201,
17.227962,-0.2910,-0.9988,0.0667,-2.8258,-0.9787,4.4994,0.3060,0.9675,-0.2201,
17.230941,-0.3247,-0.9731,0.0660,-2.8258,-0.9787,4.4994,0.3060,0.9675,-0.2201,
17.232375,-0.3662,-0.9550,0.0484,-2.8258,-0.9787,4.4994,0.3060,0.9675,-0.2201,
17.247102,-0.3662,-0.9550,0.0484,-3.9921,-0.2764,4.1496,0.3060,0.9675,-0.2201,
17.249986,-0.3662,-0.9550,0.0484,-3.9921,-0.2764,4.1496,0.1416,0.9442,-0.1584,
17.287481,-0.4161,-0.9413,-0.1138,-3.9921,-0.2764,4.1496,0.1416,0.9442,-0.1584,
17.290030,-0.4266,-1.0811,-0.0872,-3.9921,-0.2764,4.1496,0.1416,0.9442,-0.1584,
17.291562,-0.4310,-1.2653,-0.1011,-3.9921,-0.2764,4.1496,0.1416,0.9442,-0.1584,
17.309179,-0.4310,-1.2653,-0.1011,-4.8133,-3.3062,2.6320,0.1416,0.9442,-0.1584,
17.311960,-0.4310,-1.2653,-0.1011,-4.8133,-3.3062,2.6320,0.0812,0.3273,0.0347,
17.346400,-0.3183,-1.1837,-0.0757,-4.8133,-3.3062,2.6320,0.0812,0.3273,0.0347,
17.348733,-0.2785,-1.1014,-0.1515,-4.8133,-3.3062,2.6320,0.0812,0.3273,0.0347,
17.350507,-0.2494,-1.0527,-0.2143,-4.8133,-3.3062,2.6320,0.0812,0.3273,0.0347,
17.367505,-0.2494,-1.0527,-0.2143,-3.0569,-1.1798,1.4086,0.0812,0.3273,0.0347,
17.370275,-0.2494,-1.0527,-0.2143,-3.0569,-1.1798,1.4086,0.3359,0.0316,-0.0221,
17.407384,-0.2096,-0.9638,-0.3005,-3.0569,-1.1798,1.4086,0.3359,0.0316,-0.0221,
17.409747,-0.0669,-0.8236,-0.2978,-3.0569,-1.1798,1.4086,0.3359,0.0316,-0.0221,
17.411562,0.1507,-0.7454,-0.0774,-3.0569,-1.1798,1.4086,0.3359,0.0316,-0.0221,
17.427562,0.1507,-0.7454,-0.0774,-3.0569,-1.1798,1.4086,0.9822,0.0884,-0.2537,
17.430925,0.1507,-0.7454,-0.0774,0.8432,1.9375,2.4573,0.9822,0.0884,-0.2537,
17.466889,0.2590,-0.8827,0.1202,0.8432,1.9375,2.4573,0.9822,0.0884,-0.2537,
17.468889,0.1395,-1.1495,-0.0007,0.8432,1.9375,2.4573,0.9822,0.0884,-0.2537,
17.470028,-0.0344,-1.2865,-0.1019,0.8432,1.9375,2.4573,0.9822,0.0884,-0.2537,
17.488731,-0.0344,-1.2865,-0.1019,0.8432,1.9375,2.4573,0.9236,0.5295,0.6101,
17.491430,-0.0344,-1.2865,-0.1019,-1.0160,-3.1763,1.5997,0.9236,0.5295,0.6101,
17.526345,-0.2191,-1.2548,-0.0581,-1.0160,-3.1763,1.5997,0.9236,0.5295,0.6101,
17.528716,-0.3792,-1.1053,-0.0454,-1.0160,-3.1763,1.5997,0.9236,0.5295,0.6101,
17.530695,-0.4070,-0.9853,-0.0049,-1.0160,-3.1763,1.5997,0.9236,0.5295,0.6101,
17.547169,-0.4070,-0.9853,-0.0049,-1.0160,-3.1763,1.5997,0.9119,0.2576,0.2063,
17.549985,-0.4070,-0.9853,-0.0049,-4.3174,-0.0804,2.0421,0.9119,0.2576,0.2063,
17.587283,-0.3213,-0.9365,0.0730,-4.3174,-0.0804,2.0421,0.9119,0.2576,0.2063,
17.590208,-0.2678,-0.9218,0.0633,-4.3174,-0.0804,2.0421,0.9119,0.2576,0.2063,
17.591536,-0.2414,-0.8683,0.0833,-4.3174,-0.0804,2.0421,0.9119,0.2576,0.2063,
17.609704,-0.2414,-0.8683,0.0833,-2.8651,1.1556,2.4008,0.9119,0.2576,0.2063,
17.612085,-0.2414,-0.8683,0.0833,-2.8651,1.1556,2.4008,0.5650,-0.0753,-0.4852,
17.646317,-0.2516,-0.8231,0.1131,-2.8651,1.1556,2.4008,0.5650,-0.0753,-0.4852,
17.648324,-0.2568,-0.8033,0.1695,-2.8651,1.1556,2.4008,0.5650,-0.0753,-0.4852,
17.649494,-0.2174,-0.7850,0.1779,-2.8651,1.1556,2.4008,0.5650,-0.0753,-0.4852,
17.667268,-0.2174,-0.7850,0.1779,-2.8651,1.1556,2.4008,0.2950,-0.1938,0.2094,
17.669863,-0.2174,-0.7850,0.1779,-2.7015,2.0082,3.0597,0.2950,-0.1938,0.2094,
17.707814,-0.1717,-0.7706,0.1891,-2.7015,2.0082,3.0597,0.2950,-0.1938,0.2094,
17.710710,-0.1549,-0.7662,0.1959,-2.7015,2.0082,3.0597,0.2950,-0.1938,0.2094,
17.712065,-0.1898,-0.7874,0.2463,-2.7015,2.0082,3.0597,0.2950,-0.1938,0.2094,
17.726439,-0.1898,-0.7874,0.2463,-2.7015,2.0082,3.0597,0.0121,-0.0582,-0.0564,
17.728720,-0.1898,-0.7874,0.2463,-2.3277,2.0015,3.6404,0.0121,-0.0582,-0.0564,
17.767285,-0.2475,-0.8077,0.3073,-2.3277,2.0015,3.6404,0.0121,-0.0582,-0.0564,
17.771447,-0.2670,-0.8280,0.3608,-2.3277,2.0015,3.6404,0.0121,-0.0582,-0.0564,
17.773198,-0.2712,-0.8549,0.3352,-2.3277,2.0015,3.6404,0.0121,-0.0582,-0.0564,
17.787066,-0.2712,-0.8549,0.3352,-2.3277,2.0015,3.6404,0.1807,-0.5249,0.0597,
17.790986,-0.2712,-0.8549,0.3352,-3.1077,1.3499,4.4438,0.1807,-0.5249,0.0597,
17.828284,-0.2973,-0.8817,0.1910,-3.1077,1.3499,4.4438,0.1807,-0.5249,0.0597,
17.831334,-0.2915,-0.9694,0.1055,-3.1077,1.3499,4.4438,0.1807,-0.5249,0.0597,
17.832438,-0.2433,-1.1121,0.1908,-3.1077,1.3499,4.4438,0.1807,-0.5249,0.0597,
17.846861,-0.2433,-1.1121,0.1908,-2.7721,-1.1676,3.0212,0.1807,-0.5249,0.0597,
17.849301,-0.2433,-1.1121,0.1908,-2.7721,-1.1676,3.0212,-0.2120,-0.2549,-0.1926,
17.887492,-0.2406,-1.1502,0.3349,-2.7721,-1.1676,3.0212,-0.2120,-0.2549,-0.1926,
17.889468,-0.2893,-1.0652,0.4529,-2.7721,-1.1676,3.0212,-0.2120,-0.2549,-0.1926,
17.890550,-0.3928,-0.9709,0.5016,-2.7721,-1.1676,3.0212,-0.2120,-0.2549,-0.1926,
17.908667,-0.3928,-0.9709,0.5016,-4.1866,0.2114,6.1227,-0.2120,-0.2549,-0.1926,
17.911806,-0.3928,-0.9709,0.5016,-4.1866,0.2114,6.1227,0.0506,-0.7430,0.6144,
17.946544,-0.5133,-1.1573,0.6186,-4.1866,0.2114,6.1227,0.0506,-0.7430,0.6144,
17.949265,-0.3147,-1.3794,-0.0188,-4.1866,0.2114,6.1227,0.0506,-0.7430,0.6144,
17.950754,-0.1888,-1.2338,-0.0877,-4.1866,0.2114,6.1227,0.0506,-0.7430,0.6144,
17.967221,-0.1888,-1.2338,-0.0877,-4.1866,0.2114,6.1227,-0.6506,-0.1932,0.0224,
17.969813,-0.1888,-1.2338,-0.0877,-1.8416,-2.3581,0.3409,-0.6506,-0.1932,0.0224,
18.006815,0.0200,-0.9379,0.2253,-1.8416,-2.3581,0.3409,-0.6506,-0.1932,0.0224,
18.009798,-0.0305,-0.9421,0.1016,-1.8416,-2.3581,0.3409,-0.6506,-0.1932,0.0224,
18.010731,-0.0393,-0.9440,0.0371,-1.8416,-2.3581,0.3409,-0.6506,-0.1932,0.0224,
18.028217,-0.0393,-0.9440,0.0371,-0.5415,0.4400,1.8541,-0.6506,-0.1932,0.0224,
18.030696,-0.0393,-0.9440,0.0371,-0.5415,0.4400,1.8541,-0.5670,-0.4785,-0.5151,
18.066842,-0.1979,-0.8441,-0.0403,-0.5415,0.4400,1.8541,-0.5670,-0.4785,-0.5151,
18.069396,-0.2443,-0.7498,-0.2511,-0.5415,0.4400,1.8541,-0.5670,-0.4785,-0.5151,
18.070969,-0.2529,-0.7713,-0.2973,-0.5415,0.4400,1.8541,-0.5670,-0.4785,-0.5151,
18.086843,-0.2529,-0.7713,-0.2973,-0.5415,0.4400,1.8541,-0.8455,-1.0545,-0.5512,
18.089204,-0.2529,-0.7713,-0.2973,-2.7856,2.0580,-1.0185,-0.8455,-1.0545,-0.5512,
18.127990,-0.2345,-0.8961,-0.1884,-2.7856,2.0580,-1.0185,-0.8455,-1.0545,-0.5512,
18.130972,-0.1495,-1.0689,-0.0655,-2.7856,2.0580,-1.0185,-0.8455,-1.0545,-0.5512,
18.132689,-0.0733,-1.1900,-0.0452,-2.7856,2.0580,-1.0185,-0.8455,-1.0545,-0.5512,
18.147201,-0.0733,-1.1900,-0.0452,-2.7856,2.0580,-1.0185,-0.5077,-0.3166,-0.1840,
18.150473,-0.0733,-1.1900,-0.0452,-1.2643,-2.1497,1.8765,-0.5077,-0.3166,-0.1840,
18.186887,-0.1952,-1.1417,0.0833,-1.2643,-2.1497,1.8765,-0.5077,-0.3166,-0.1840,
18.189670,-0.3203,-1.0437,-0.0183,-1.2643,-2.1497,1.8765,-0.5077,-0.3166,-0.1840,
18.190743,-0.3115,-0.9648,-0.0909,-1.2643,-2.1497,1.8765,-0.5077,-0.3166,-0.1840,
18.207584,-0.3115,-0.9648,-0.0909,-1.2643,-2.1497,1.8765,-0.5615,-0.2048,0.8978,
18.209394,-0.3115,-0.9648,-0.0909,-3.2955,0.0112,1.6594,-0.5615,-0.2048,0.8978,
18.250777,-0.2648,-0.8920,-0.0647,-3.2955,0.0112,1.6594,-0.5615,-0.2048,0.8978,
18.253089,-0.1945,-0.8329,-0.0308,-3.2955,0.0112,1.6594,-0.5615,-0.2048,0.8978,
18.256014,-0.1764,-0.8102,-0.0244,-3.2955,0.0112,1.6594,-0.5615,-0.2048,0.8978,
