
time,gFx,gFy,gFz,ax,ay,az,wx,wy,wz,
0.054539,0.0000,0.0000,0.0000,0.0000,0.0000,0.0000,-0.8458,0.1856,0.3551,
0.091948,0.0000,0.0000,0.0000,0.0000,0.0000,0.0000,-0.4261,0.1611,0.8046,
0.092958,-0.2245,0.2562,0.8808,0.0000,0.0000,0.0000,-0.4261,0.1611,0.8046,
0.093563,-0.2153,0.2773,0.9454,0.0000,0.0000,0.0000,-0.4261,0.1611,0.8046,
0.093989,-0.1927,0.2708,0.9933,0.0000,0.0000,0.0000,-0.4261,0.1611,0.8046,
0.094453,-0.2081,0.2702,0.9790,0.0000,0.0000,0.0000,-0.4261,0.1611,0.8046,
0.094952,-0.2618,0.2282,0.9625,0.0000,0.0000,0.0000,-0.4261,0.1611,0.8046,
0.095404,-0.2804,0.2364,0.9522,0.0000,0.0000,0.0000,-0.4261,0.1611,0.8046,
0.095840,-0.2221,0.2365,0.9593,0.0000,0.0000,0.0000,-0.4261,0.1611,0.8046,
0.096353,-0.1795,0.2568,0.9869,0.0000,0.0000,0.0000,-0.4261,0.1611,0.8046,
0.096810,-0.2089,0.2460,1.0954,0.0000,0.0000,0.0000,-0.4261,0.1611,0.8046,
0.097204,-0.2690,0.1771,1.0810,0.0000,0.0000,0.0000,-0.4261,0.1611,0.8046,
0.097553,-0.3752,0.1391,1.0484,0.0000,0.0000,0.0000,-0.4261,0.1611,0.8046,
0.098052,-0.4343,0.1436,1.0742,0.0000,0.0000,0.0000,-0.4261,0.1611,0.8046,
0.098471,-0.3119,0.1413,0.9484,0.0000,0.0000,0.0000,-0.4261,0.1611,0.8046,
0.131889,-0.3119,0.1413,0.9484,0.0000,0.0000,0.0000,0.2578,-0.6261,1.2648,
0.172211,-0.3119,0.1413,0.9484,0.0000,0.0000,0.0000,1.3987,-1.9470,-0.2958,
0.175041,-0.3119,0.1413,0.9484,0.0000,0.0000,-0.0000,1.3987,-1.9470,-0.2958,
0.176303,-0.1436,0.2470,0.9668,0.0000,0.0000,-0.0000,1.3987,-1.9470,-0.2958,
0.178725,0.0202,0.6500,1.1819,0.0000,0.0000,-0.0000,1.3987,-1.9470,-0.2958,
0.180165,-0.1840,0.4578,0.7444,0.0000,0.0000,-0.0000,1.3987,-1.9470,-0.2958,
0.181113,-0.0945,0.2493,0.8213,0.0000,0.0000,-0.0000,1.3987,-1.9470,-0.2958,
0.210992,-0.0945,0.2493,0.8213,0.0000,0.0000,-0.0000,2.2754,-3.2531,-1.5475,
0.213523,-0.0945,0.2493,0.8213,0.7284,1.1541,-0.4089,2.2754,-3.2531,-1.5475,
0.246735,-0.0041,0.2745,0.9769,0.7284,1.1541,-0.4089,2.2754,-3.2531,-1.5475,
0.249506,-0.0015,0.2857,0.9620,0.7284,1.1541,-0.4089,2.2754,-3.2531,-1.5475,
0.251227,-0.1110,0.3087,0.4433,0.7284,1.1541,-0.4089,2.2754,-3.2531,-1.5475,
0.252383,-0.1110,0.3087,0.4433,0.7284,1.1541,-0.4089,1.3859,-0.0413,-1.9544,
0.254001,-0.1110,0.3087,0.4433,1.1064,-0.6858,-0.4346,1.3859,-0.0413,-1.9544,
0.289646,-0.1110,0.3087,0.4433,1.1064,-0.6858,-0.4346,-0.0054,-0.6400,-2.2346,
0.291659,-0.1110,0.3087,0.4433,0.7730,-0.3685,-0.3148,-0.0054,-0.6400,-2.2346,
0.329116,-0.0119,0.2660,0.6634,0.7730,-0.3685,-0.3148,-0.0054,-0.6400,-2.2346,
0.330810,0.0065,0.3292,0.8492,0.7730,-0.3685,-0.3148,-0.0054,-0.6400,-2.2346,
0.331735,0.0477,0.3021,0.9575,0.7730,-0.3685,-0.3148,-0.0054,-0.6400,-2.2346,
0.332758,0.0477,0.3021,0.9575,0.7730,-0.3685,-0.3148,-0.1886,-0.6900,-2.4540,
0.333579,0.0477,0.3021,0.9575,0.5617,0.0887,-2.2455,-0.1886,-0.6900,-2.4540,
0.368645,0.0477,0.3021,0.9575,0.5617,0.0887,-2.2455,0.4527,0.0163,-2.1664,
0.370506,0.0477,0.3021,0.9575,0.7988,-0.6213,0.5627,0.4527,0.0163,-2.1664,
0.407239,-0.0196,0.2072,0.9460,0.7988,-0.6213,0.5627,0.4527,0.0163,-2.1664,
0.409127,-0.0880,0.1495,0.9390,0.7988,-0.6213,0.5627,0.4527,0.0163,-2.1664,
0.410218,-0.1460,0.2171,0.9650,0.7988,-0.6213,0.5627,0.4527,0.0163,-2.1664,
0.411679,-0.4060,0.3215,0.8425,0.7988,-0.6213,0.5627,0.4527,0.0163,-2.1664,
0.413542,-1.0534,0.4680,0.8047,0.7988,-0.6213,0.5627,0.4527,0.0163,-2.1664,
0.415011,-1.0534,0.4680,0.8047,0.7988,-0.6213,0.5627,1.2399,-0.0871,-1.0170,
0.416728,-1.0534,0.4680,0.8047,-3.4688,0.1095,-0.0397,1.2399,-0.0871,-1.0170,
0.448624,-1.0534,0.4680,0.8047,-3.4688,0.1095,-0.0397,1.0908,0.8834,1.0763,
0.450372,-1.0534,0.4680,0.8047,-2.7673,-0.2805,0.1432,1.0908,0.8834,1.0763,
0.485478,-0.3575,0.6630,1.0573,-2.7673,-0.2805,0.1432,1.0908,0.8834,1.0763,
0.488575,-0.0812,0.6252,1.0341,-2.7673,-0.2805,0.1432,1.0908,0.8834,1.0763,
0.490201,-0.3199,0.3837,0.8186,-2.7673,-0.2805,0.1432,1.0908,0.8834,1.0763,
0.492077,-0.2745,0.3717,0.7239,-2.7673,-0.2805,0.1432,1.0908,0.8834,1.0763,
0.493508,-0.2745,0.3717,0.7239,0.7206,1.5676,1.2344,1.0908,0.8834,1.0763,
0.494791,-0.2745,0.3717,0.7239,0.7206,1.5676,1.2344,-0.5763,3.5540,2.1980,
0.528747,-0.2745,0.3717,0.7239,0.7206,1.5676,1.2344,-0.8533,2.2437,3.1109,
0.530955,-0.2745,0.3717,0.7239,0.8224,1.2239,1.1989,-0.8533,2.2437,3.1109,
0.563797,-0.3668,0.5138,0.6214,0.8224,1.2239,1.1989,-0.8533,2.2437,3.1109,
0.566678,-0.3236,0.5587,0.6621,0.8224,1.2239,1.1989,-0.8533,2.2437,3.1109,
0.568362,-0.0391,0.6969,0.5050,0.8224,1.2239,1.1989,-0.8533,2.2437,3.1109,
0.569768,-0.0068,0.5736,0.5718,0.8224,1.2239,1.1989,-0.8533,2.2437,3.1109,
0.571758,-0.0068,0.5736,0.5718,0.8224,1.2239,1.1989,-0.6669,0.0045,1.8582,
0.573269,-0.0068,0.5736,0.5718,-0.1441,0.4064,-1.6264,-0.6669,0.0045,1.8582,
0.608035,-0.0068,0.5736,0.5718,-0.1441,0.4064,-1.6264,-1.2560,-0.9510,1.1040,
0.609524,-0.0068,0.5736,0.5718,-0.5624,0.6113,-1.6952,-1.2560,-0.9510,1.1040,
0.646648,-0.2524,0.3913,0.7632,-0.5624,0.6113,-1.6952,-1.2560,-0.9510,1.1040,
0.648795,-0.2412,0.4229,0.7211,-0.5624,0.6113,-1.6952,-1.2560,-0.9510,1.1040,
0.650530,-0.0810,0.4438,0.8022,-0.5624,0.6113,-1.6952,-1.2560,-0.9510,1.1040,
0.651773,-0.0810,0.4438,0.8022,-0.5624,0.6113,-1.6952,-1.2890,-2.2794,1.5035,
0.653341,-0.0810,0.4438,0.8022,0.5470,1.4467,-2.3397,-1.2890,-2.2794,1.5035,
0.685506,-0.0810,0.4438,0.8022,0.5470,1.4467,-2.3397,-0.4368,-2.0131,1.0262,
0.686893,-0.0810,0.4438,0.8022,0.0397,0.3603,0.2276,-0.4368,-2.0131,1.0262,
0.724602,0.1250,0.4441,1.1582,0.0397,0.3603,0.2276,-0.4368,-2.0131,1.0262,
0.726774,0.4616,0.5327,1.4810,0.0397,0.3603,0.2276,-0.4368,-2.0131,1.0262,
0.727980,0.5298,0.5257,1.4673,0.0397,0.3603,0.2276,-0.4368,-2.0131,1.0262,
0.729228,0.2362,0.4914,1.1418,0.0397,0.3603,0.2276,-0.4368,-2.0131,1.0262,
0.730557,0.2034,0.4053,0.7518,0.0397,0.3603,0.2276,-0.4368,-2.0131,1.0262,
0.731851,0.2034,0.4053,0.7518,4.1363,0.9046,4.4433,-0.4368,-2.0131,1.0262,
0.733744,0.2034,0.4053,0.7518,4.1363,0.9046,4.4433,0.4133,-0.2895,0.2944,
0.765414,0.2034,0.4053,0.7518,3.6061,0.6853,4.1039,0.4133,-0.2895,0.2944,
0.767749,0.2034,0.4053,0.7518,3.6061,0.6853,4.1039,0.4272,-0.3800,0.2145,
0.803311,0.2941,0.4247,0.7814,3.6061,0.6853,4.1039,0.4272,-0.3800,0.2145,
0.805835,0.3757,0.4583,0.5545,3.6061,0.6853,4.1039,0.4272,-0.3800,0.2145,
0.807284,0.4233,0.4084,0.5330,3.6061,0.6853,4.1039,0.4272,-0.3800,0.2145,
0.808556,0.3911,0.3898,0.4820,3.6061,0.6853,4.1039,0.4272,-0.3800,0.2145,
0.809728,0.3911,0.3898,0.4820,3.6061,0.6853,4.1039,-0.1406,-0.7166,-0.1179,
0.811001,0.3911,0.3898,0.4820,2.0219,-0.1100,-2.2428,-0.1406,-0.7166,-0.1179,
0.845863,0.3911,0.3898,0.4820,2.0219,-0.1100,-2.2428,-0.3910,-1.5774,-0.5195,
0.848201,0.3911,0.3898,0.4820,1.4139,0.0076,-2.0549,-0.3910,-1.5774,-0.5195,
0.879912,0.4232,0.4185,0.4818,1.4139,0.0076,-2.0549,-0.3910,-1.5774,-0.5195,
0.881431,0.4868,0.4110,0.5517,1.4139,0.0076,-2.0549,-0.3910,-1.5774,-0.5195,
0.882774,0.3901,0.4465,0.5803,1.4139,0.0076,-2.0549,-0.3910,-1.5774,-0.5195,
0.883678,0.4500,0.2752,0.5525,1.4139,0.0076,-2.0549,-0.3910,-1.5774,-0.5195,
0.887153,0.4500,0.2752,0.5525,1.4139,0.0076,-2.0549,0.1299,-2.5894,-0.8721,
0.888479,0.4500,0.2752,0.5525,1.9879,-0.5651,-2.9375,0.1299,-2.5894,-0.8721,
0.923800,0.4500,0.2752,0.5525,1.9879,-0.5651,-2.9375,0.3941,-3.8017,-0.9541,
0.925479,0.4500,0.2752,0.5525,0.8522,-0.7440,-2.2606,0.3941,-3.8017,-0.9541,
0.950019,0.5192,0.2696,0.5487,0.8522,-0.7440,-2.2606,0.3941,-3.8017,-0.9541,
0.952067,0.4595,0.1970,0.5406,0.8522,-0.7440,-2.2606,0.3941,-3.8017,-0.9541,
0.953677,0.4525,0.2326,0.5457,0.8522,-0.7440,-2.2606,0.3941,-3.8017,-0.9541,
0.955679,0.3169,0.3298,0.6047,0.8522,-0.7440,-2.2606,0.3941,-3.8017,-0.9541,
0.963610,0.3169,0.3298,0.6047,0.8522,-0.7440,-2.2606,0.0596,-3.2775,-0.3267,
0.966536,0.3169,0.3298,0.6047,0.2572,-2.0792,-1.7733,0.0596,-3.2775,-0.3267,
1.003352,0.3169,0.3298,0.6047,-0.9574,-1.7417,-1.0327,0.0596,-3.2775,-0.3267,
1.005487,0.3169,0.3298,0.6047,-0.9574,-1.7417,-1.0327,-1.0546,-0.9500,0.8877,
1.042395,0.4270,0.1498,0.5652,-0.9574,-1.7417,-1.0327,-1.0546,-0.9500,0.8877,
1.045456,0.4219,0.1462,0.6709,-0.9574,-1.7417,-1.0327,-1.0546,-0.9500,0.8877,
1.046836,0.4823,0.2090,0.7481,-0.9574,-1.7417,-1.0327,-1.0546,-0.9500,0.8877,
1.047932,0.4823,0.2090,0.7481,-0.9574,-1.7417,-1.0327,-1.3455,-0.4812,1.4406,
1.049905,0.4823,0.2090,0.7481,-1.2087,-1.0140,-1.0533,-1.3455,-0.4812,1.4406,
1.081746,0.4823,0.2090,0.7481,-1.2087,-1.0140,-1.0533,-1.3476,-0.9744,1.4097,
1.083715,0.4823,0.2090,0.7481,-0.0175,-0.3746,1.2696,-1.3476,-0.9744,1.4097,
1.119930,0.5873,0.2410,0.7709,-0.0175,-0.3746,1.2696,-1.3476,-0.9744,1.4097,
1.122394,0.5904,0.1599,1.0398,-0.0175,-0.3746,1.2696,-1.3476,-0.9744,1.4097,
1.124452,0.6387,0.1532,1.2096,-0.0175,-0.3746,1.2696,-1.3476,-0.9744,1.4097,
1.125475,0.7257,0.2156,1.1826,-0.0175,-0.3746,1.2696,-1.3476,-0.9744,1.4097,
1.126403,0.7579,0.2058,1.1238,-0.0175,-0.3746,1.2696,-1.3476,-0.9744,1.4097,
1.127317,0.7579,0.2058,1.1238,-0.0175,-0.3746,1.2696,-0.8565,-0.4866,1.4374,
1.128221,0.7579,0.2058,1.1238,1.1688,0.0648,4.1860,-0.8565,-0.4866,1.4374,
1.162566,0.7579,0.2058,1.1238,1.1688,0.0648,4.1860,-0.2717,-0.4344,1.2148,
1.164708,0.7579,0.2058,1.1238,0.9122,0.4018,4.0317,-0.2717,-0.4344,1.2148,
1.200656,0.6588,0.0541,1.0872,0.9122,0.4018,4.0317,-0.2717,-0.4344,1.2148,
1.202984,0.5771,0.0905,0.9933,0.9122,0.4018,4.0317,-0.2717,-0.4344,1.2148,
1.204431,0.6697,0.1383,0.9073,0.9122,0.4018,4.0317,-0.2717,-0.4344,1.2148,
1.207272,0.7749,0.2144,0.8473,0.9122,0.4018,4.0317,-0.2717,-0.4344,1.2148,
1.208687,0.7749,0.2144,0.8473,0.9122,0.4018,4.0317,0.1758,-0.4290,1.1295,
1.210044,0.7749,0.2144,0.8473,0.0175,-0.3116,2.2916,0.1758,-0.4290,1.1295,
1.240582,0.7749,0.2144,0.8473,0.0175,-0.3116,2.2916,0.1619,-0.0775,0.5639,
1.245139,0.7749,0.2144,0.8473,-0.0303,-0.2084,2.1963,0.1619,-0.0775,0.5639,
1.276476,0.7661,0.2066,0.7639,-0.0303,-0.2084,2.1963,0.1619,-0.0775,0.5639,
1.278094,0.6472,0.1099,0.6557,-0.0303,-0.2084,2.1963,0.1619,-0.0775,0.5639,
1.279922,0.6144,0.0724,0.5982,-0.0303,-0.2084,2.1963,0.1619,-0.0775,0.5639,
1.281186,0.6399,0.0329,0.6003,-0.0303,-0.2084,2.1963,0.1619,-0.0775,0.5639,
1.282432,0.6399,0.0329,0.6003,-0.0303,-0.2084,2.1963,-0.0586,-0.1446,0.4957,
1.283834,0.6399,0.0329,0.6003,0.7871,0.7054,-0.1185,-0.0586,-0.1446,0.4957,
1.320048,0.6399,0.0329,0.6003,0.7871,0.7054,-0.1185,-0.3367,-0.4109,0.7354,
1.321739,0.6399,0.0329,0.6003,0.6074,0.9431,-0.0241,-0.3367,-0.4109,0.7354,
1.355043,0.6913,-0.0087,0.5070,0.6074,0.9431,-0.0241,-0.3367,-0.4109,0.7354,
1.357442,0.6999,0.0211,0.4370,0.6074,0.9431,-0.0241,-0.3367,-0.4109,0.7354,
1.361260,0.6995,-0.0899,0.4764,0.6074,0.9431,-0.0241,-0.3367,-0.4109,0.7354,
1.362659,0.6565,-0.3437,0.7425,0.6074,0.9431,-0.0241,-0.3367,-0.4109,0.7354,
1.363800,0.6565,-0.3437,0.7425,0.6074,0.9431,-0.0241,-0.6605,-0.6889,0.9548,
1.364858,0.6565,-0.3437,0.7425,-0.0448,-1.6179,-1.7690,-0.6605,-0.6889,0.9548,
1.398023,0.6565,-0.3437,0.7425,-0.0448,-1.6179,-1.7690,0.2876,-1.2269,1.6313,
1.399649,0.6565,-0.3437,0.7425,-0.3725,-1.1916,-1.3668,0.2876,-1.2269,1.6313,
1.435615,0.6610,-0.3549,0.8450,-0.3725,-1.1916,-1.3668,0.2876,-1.2269,1.6313,
1.436956,0.7682,-0.1599,0.4172,-0.3725,-1.1916,-1.3668,0.2876,-1.2269,1.6313,
1.437815,0.7418,-0.0652,0.3379,-0.3725,-1.1916,-1.3668,0.2876,-1.2269,1.6313,
1.438699,0.6370,-0.3042,0.4452,-0.3725,-1.1916,-1.3668,0.2876,-1.2269,1.6313,
1.440752,0.6370,-0.3042,0.4452,-0.3725,-1.1916,-1.3668,0.5305,-1.4091,1.6015,
1.442256,0.6370,-0.3042,0.4452,-0.3285,-1.3545,-1.1006,0.5305,-1.4091,1.6015,
1.479934,0.6370,-0.3042,0.4452,-0.3285,-1.3545,-1.1006,0.1289,-1.9289,2.1160,
1.482058,0.6370,-0.3042,0.4452,-0.6891,-0.7147,-0.4988,0.1289,-1.9289,2.1160,
1.522149,0.4144,-0.4609,0.4621,-0.6891,-0.7147,-0.4988,0.1289,-1.9289,2.1160,
1.523628,0.5722,-0.5426,0.4089,-0.6891,-0.7147,-0.4988,0.1289,-1.9289,2.1160,
1.524423,0.6421,-0.5007,0.3179,-0.6891,-0.7147,-0.4988,0.1289,-1.9289,2.1160,
1.525202,0.6421,-0.5007,0.3179,-0.6891,-0.7147,-0.4988,-0.0948,-2.6629,2.8382,
1.526222,0.6421,-0.5007,0.3179,-2.7347,-2.0834,-0.5525,-0.0948,-2.6629,2.8382,
1.557370,0.6421,-0.5007,0.3179,-2.7347,-2.0834,-0.5525,-0.4932,-2.7215,3.2952,
1.559135,0.6421,-0.5007,0.3179,-2.8280,-1.3605,-1.0446,-0.4932,-2.7215,3.2952,
1.596812,0.4230,-0.4192,0.2722,-2.8280,-1.3605,-1.0446,-0.4932,-2.7215,3.2952,
1.598393,0.5287,-0.5344,0.2771,-2.8280,-1.3605,-1.0446,-0.4932,-2.7215,3.2952,
1.599184,0.7563,-0.7073,0.5436,-2.8280,-1.3605,-1.0446,-0.4932,-2.7215,3.2952,
1.600770,0.8468,-0.7346,0.7373,-2.8280,-1.3605,-1.0446,-0.4932,-2.7215,3.2952,
1.601514,1.0090,-0.6628,0.6637,-2.8280,-1.3605,-1.0446,-0.4932,-2.7215,3.2952,
1.602299,1.0090,-0.6628,0.6637,-2.8280,-1.3605,-1.0446,-0.1183,-2.8941,3.4028,
1.603693,1.0090,-0.6628,0.6637,0.6151,-2.3004,3.2758,-0.1183,-2.8941,3.4028,
1.637241,1.0090,-0.6628,0.6637,0.6151,-2.3004,3.2758,0.3568,-2.5212,2.7551,
1.639489,1.0090,-0.6628,0.6637,0.8547,-1.4293,3.8292,0.3568,-2.5212,2.7551,
1.674394,1.1332,-0.5719,0.5632,0.8547,-1.4293,3.8292,0.3568,-2.5212,2.7551,
1.677083,1.1186,-0.6030,0.4599,0.8547,-1.4293,3.8292,0.3568,-2.5212,2.7551,
1.678474,1.0409,-0.7245,0.4002,0.8547,-1.4293,3.8292,0.3568,-2.5212,2.7551,
1.680105,0.9402,-0.7729,0.3389,0.8547,-1.4293,3.8292,0.3568,-2.5212,2.7551,
1.681549,0.9402,-0.7729,0.3389,0.8547,-1.4293,3.8292,0.4016,-2.0589,2.3621,
1.682802,0.9402,-0.7729,0.3389,3.3078,-0.0877,2.5489,0.4016,-2.0589,2.3621,
1.718039,0.9402,-0.7729,0.3389,3.7447,0.6496,2.8593,0.4016,-2.0589,2.3621,
1.720463,0.9402,-0.7729,0.3389,3.7447,0.6496,2.8593,0.0437,-1.5103,2.6944,
1.755709,1.0536,-0.7031,0.1870,3.7447,0.6496,2.8593,0.0437,-1.5103,2.6944,
1.757283,1.3001,-0.6368,0.1637,3.7447,0.6496,2.8593,0.0437,-1.5103,2.6944,
1.758194,1.4509,-0.7228,0.3664,3.7447,0.6496,2.8593,0.0437,-1.5103,2.6944,
1.758972,1.4509,-0.7228,0.3664,3.7447,0.6496,2.8593,-0.3441,-0.3704,1.5887,
1.759802,1.4509,-0.7228,0.3664,4.0200,0.3891,0.6377,-0.3441,-0.3704,1.5887,
1.798111,1.4509,-0.7228,0.3664,4.0200,0.3891,0.6377,0.3504,0.7992,0.6417,
1.800793,1.4509,-0.7228,0.3664,6.2680,0.0373,1.9863,0.3504,0.7992,0.6417,
1.834406,1.3247,-0.7597,0.5087,6.2680,0.0373,1.9863,0.3504,0.7992,0.6417,
1.837130,1.2006,-0.7817,0.3444,6.2680,0.0373,1.9863,0.3504,0.7992,0.6417,
1.838724,1.2187,-0.8264,0.1944,6.2680,0.0373,1.9863,0.3504,0.7992,0.6417,
1.840433,1.3646,-0.7675,0.1304,6.2680,0.0373,1.9863,0.3504,0.7992,0.6417,
1.841807,1.2793,-0.7264,0.0341,6.2680,0.0373,1.9863,0.3504,0.7992,0.6417,
1.843207,1.2793,-0.7264,0.0341,6.2680,0.0373,1.9863,0.4602,1.6046,0.5575,
1.847872,1.2793,-0.7264,0.0341,5.9997,-0.0411,-1.3316,0.4602,1.6046,0.5575,
1.874762,1.2793,-0.7264,0.0341,5.9997,-0.0411,-1.3316,0.6860,1.2583,-0.0795,
1.878530,1.2793,-0.7264,0.0341,5.9101,-0.1327,-1.8002,0.6860,1.2583,-0.0795,
1.912489,1.1598,-0.7467,-0.0690,5.9101,-0.1327,-1.8002,0.6860,1.2583,-0.0795,
1.914923,1.0017,-0.8095,-0.1176,5.9101,-0.1327,-1.8002,0.6860,1.2583,-0.0795,
1.916476,0.8470,-0.8691,-0.1878,5.9101,-0.1327,-1.8002,0.6860,1.2583,-0.0795,
1.917549,0.7359,-0.7607,-0.0728,5.9101,-0.1327,-1.8002,0.6860,1.2583,-0.0795,
1.918962,0.7359,-0.7607,-0.0728,5.9101,-0.1327,-1.8002,0.9715,-0.2213,-0.2936,
1.920384,0.7359,-0.7607,-0.0728,2.9092,-0.6527,-4.2764,0.9715,-0.2213,-0.2936,
1.954183,0.7359,-0.7607,-0.0728,2.9092,-0.6527,-4.2764,1.3475,-1.9364,-0.3480,
1.957979,0.7359,-0.7607,-0.0728,2.4976,-0.8812,-3.9809,1.3475,-1.9364,-0.3480,
1.990348,0.6288,-0.8462,0.1629,2.4976,-0.8812,-3.9809,1.3475,-1.9364,-0.3480,
1.993016,0.6983,-0.9017,0.2817,2.4976,-0.8812,-3.9809,1.3475,-1.9364,-0.3480,
1.993988,0.7409,-0.7610,0.1017,2.4976,-0.8812,-3.9809,1.3475,-1.9364,-0.3480,
1.994678,0.5979,-0.8419,0.1156,2.4976,-0.8812,-3.9809,1.3475,-1.9364,-0.3480,
1.995451,0.5979,-0.8419,0.1156,2.4976,-0.8812,-3.9809,1.9931,-2.3476,-0.4204,
1.996185,0.5979,-0.8419,0.1156,-0.9249,-1.4431,-1.3435,1.9931,-2.3476,-0.4204,
2.033774,0.5979,-0.8419,0.1156,-0.9249,-1.4431,-1.3435,1.8802,-1.4527,0.0377,
2.035801,0.5979,-0.8419,0.1156,-1.0295,-1.5716,-1.3497,1.8802,-1.4527,0.0377,
2.069080,0.6364,-0.6974,0.1122,-1.0295,-1.5716,-1.3497,1.8802,-1.4527,0.0377,
2.072307,0.8268,-0.7785,0.4627,-1.0295,-1.5716,-1.3497,1.8802,-1.4527,0.0377,
2.074108,0.6503,-0.5856,0.2374,-1.0295,-1.5716,-1.3497,1.8802,-1.4527,0.0377,
2.075533,0.6259,-0.4251,-0.0492,-1.0295,-1.5716,-1.3497,1.8802,-1.4527,0.0377,
2.076925,0.6259,-0.4251,-0.0492,-1.0295,-1.5716,-1.3497,1.2730,-1.1438,0.2955,
2.078155,0.6259,-0.4251,-0.0492,-0.9102,0.7188,-0.4050,1.2730,-1.1438,0.2955,
2.112096,0.6259,-0.4251,-0.0492,-0.9102,0.7188,-0.4050,0.2961,-0.2139,0.1378,
2.113599,0.6259,-0.4251,-0.0492,-0.8695,0.7100,-0.4038,0.2961,-0.2139,0.1378,
2.151927,0.9016,-0.4626,0.2886,-0.8695,0.7100,-0.4038,0.2961,-0.2139,0.1378,
2.153906,0.7293,-0.4533,0.1513,-0.8695,0.7100,-0.4038,0.2961,-0.2139,0.1378,
2.155080,0.8131,-0.5281,0.2546,-0.8695,0.7100,-0.4038,0.2961,-0.2139,0.1378,
2.156092,0.8131,-0.5281,0.2546,-0.8695,0.7100,-0.4038,-0.0906,-0.0658,-0.1935,
2.157127,0.8131,-0.5281,0.2546,0.1826,1.7360,-0.2119,-0.0906,-0.0658,-0.1935,
2.191628,0.8131,-0.5281,0.2546,0.1826,1.7360,-0.2119,-0.2845,-0.2501,0.0760,
2.193216,0.8131,-0.5281,0.2546,-0.8275,0.1813,0.1356,-0.2845,-0.2501,0.0760,
2.231271,0.7040,-0.6082,0.2945,-0.8275,0.1813,0.1356,-0.2845,-0.2501,0.0760,
2.234138,0.5512,-0.6534,0.1649,-0.8275,0.1813,0.1356,-0.2845,-0.2501,0.0760,
2.235698,0.8736,-0.6722,0.2965,-0.8275,0.1813,0.1356,-0.2845,-0.2501,0.0760,
2.237076,0.7799,-0.6406,0.2298,-0.8275,0.1813,0.1356,-0.2845,-0.2501,0.0760,
2.238413,0.6299,-0.6595,0.1796,-0.8275,0.1813,0.1356,-0.2845,-0.2501,0.0760,
2.239957,0.6299,-0.6595,0.1796,-0.8275,0.1813,0.1356,0.0362,-0.0125,0.0419,
2.241124,0.6299,-0.6595,0.1796,-0.7951,0.1856,0.1265,0.0362,-0.0125,0.0419,
2.270987,0.6299,-0.6595,0.1796,-0.7951,0.1856,0.1265,0.2482,-0.1893,0.1729,
2.273339,0.6299,-0.6595,0.1796,-0.7467,0.2096,0.1171,0.2482,-0.1893,0.1729,
2.307816,0.4057,-0.6270,0.0979,-0.7467,0.2096,0.1171,0.2482,-0.1893,0.1729,
2.309671,0.6886,-0.6948,0.2515,-0.7467,0.2096,0.1171,0.2482,-0.1893,0.1729,
2.311554,0.6307,-0.6452,0.2711,-0.7467,0.2096,0.1171,0.2482,-0.1893,0.1729,
2.312898,0.6516,-0.6522,0.3256,-0.7467,0.2096,0.1171,0.2482,-0.1893,0.1729,
2.314318,0.6516,-0.6522,0.3256,-0.7467,0.2096,0.1171,0.2407,0.1217,0.3018,
2.315316,0.6516,-0.6522,0.3256,-1.1411,0.0855,0.3103,0.2407,0.1217,0.3018,
2.350673,0.6516,-0.6522,0.3256,-1.1411,0.0855,0.3103,-0.0394,0.3944,0.2369,
2.352949,0.6516,-0.6522,0.3256,-1.0120,0.1561,0.1977,-0.0394,0.3944,0.2369,
2.389156,0.6536,-0.7050,0.3512,-1.0120,0.1561,0.1977,-0.0394,0.3944,0.2369,
2.391327,0.5127,-0.7253,0.2001,-1.0120,0.1561,0.1977,-0.0394,0.3944,0.2369,
2.392878,0.6075,-0.7112,0.2937,-1.0120,0.1561,0.1977,-0.0394,0.3944,0.2369,
2.394194,0.6075,-0.7112,0.2937,-1.0120,0.1561,0.1977,-0.1971,0.3145,0.1836,
2.395262,0.6075,-0.7112,0.2937,-1.5345,-0.2507,0.1435,-0.1971,0.3145,0.1836,
2.431400,0.6075,-0.7112,0.2937,-1.5345,-0.2507,0.1435,-0.4442,0.1313,0.2699,
2.434071,0.6075,-0.7112,0.2937,-2.8006,0.7726,-0.5191,-0.4442,0.1313,0.2699,
2.467433,0.5474,-0.7081,0.3523,-2.8006,0.7726,-0.5191,-0.4442,0.1313,0.2699,
2.469630,0.3583,-0.5921,0.0824,-2.8006,0.7726,-0.5191,-0.4442,0.1313,0.2699,
2.470712,0.4321,-0.5597,0.1784,-2.8006,0.7726,-0.5191,-0.4442,0.1313,0.2699,
2.471712,0.4342,-0.5849,0.1570,-2.8006,0.7726,-0.5191,-0.4442,0.1313,0.2699,
2.474097,0.5027,-0.6172,0.1977,-2.8006,0.7726,-0.5191,-0.4442,0.1313,0.2699,
2.474968,0.5027,-0.6172,0.1977,-2.8006,0.7726,-0.5191,-0.4389,-0.1659,0.0835,
2.475784,0.5027,-0.6172,0.1977,-2.7239,0.8179,-0.3434,-0.4389,-0.1659,0.0835,
2.508495,0.5027,-0.6172,0.1977,-2.7239,0.8179,-0.3434,-0.2077,-0.0754,0.0867,
2.509573,0.5027,-0.6172,0.1977,-2.6394,0.8397,-0.2586,-0.2077,-0.0754,0.0867,
2.546103,0.7000,-0.7206,0.1505,-2.6394,0.8397,-0.2586,-0.2077,-0.0754,0.0867,
2.548037,0.8092,-0.9563,0.1985,-2.6394,0.8397,-0.2586,-0.2077,-0.0754,0.0867,
2.548953,0.7340,-1.0797,0.2905,-2.6394,0.8397,-0.2586,-0.2077,-0.0754,0.0867,
2.549984,0.7766,-1.1007,0.1709,-2.6394,0.8397,-0.2586,-0.2077,-0.0754,0.0867,
2.550932,0.7766,-1.1007,0.1709,-2.6394,0.8397,-0.2586,-0.3430,-0.6474,0.0590,
2.551825,0.7766,-1.1007,0.1709,0.5173,-3.2078,0.1651,-0.3430,-0.6474,0.0590,
2.594685,0.7766,-1.1007,0.1709,0.5173,-3.2078,0.1651,-0.2269,-0.4045,-0.1392,
2.599060,0.7766,-1.1007,0.1709,0.4373,-3.1529,0.3338,-0.2269,-0.4045,-0.1392,
2.600781,0.8290,-1.1084,0.2446,0.4373,-3.1529,0.3338,-0.2269,-0.4045,-0.1392,
2.602068,0.5891,-1.0116,0.2338,0.4373,-3.1529,0.3338,-0.2269,-0.4045,-0.1392,
2.603608,0.4492,-0.7896,0.0088,0.4373,-3.1529,0.3338,-0.2269,-0.4045,-0.1392,
2.627555,0.4492,-0.7896,0.0088,0.4373,-3.1529,0.3338,-0.0916,-0.0285,0.0217,
2.628958,0.4492,-0.7896,0.0088,-1.0125,-2.3423,-0.1919,-0.0916,-0.0285,0.0217,
2.667608,0.4492,-0.7896,0.0088,-1.0125,-2.3423,-0.1919,0.0266,-0.0232,0.0728,
2.670122,0.4492,-0.7896,0.0088,-0.9703,-2.2696,-0.1885,0.0266,-0.0232,0.0728,
2.707200,0.4492,-0.7896,0.0088,-0.9703,-2.2696,-0.1885,0.1821,-0.4109,0.2092,
2.709086,0.4492,-0.7896,0.0088,-0.9169,-2.1721,-0.1232,0.1821,-0.4109,0.2092,
2.747431,0.5780,-0.5419,-0.0040,-0.9169,-2.1721,-0.1232,0.1821,-0.4109,0.2092,
2.749205,0.6811,-0.5849,0.0451,-0.9169,-2.1721,-0.1232,0.1821,-0.4109,0.2092,
2.750133,0.7035,-0.7031,-0.0096,-0.9169,-2.1721,-0.1232,0.1821,-0.4109,0.2092,
2.751197,0.7035,-0.7031,-0.0096,-0.9169,-2.1721,-0.1232,0.0628,-1.0938,0.6417,
2.752199,0.7035,-0.7031,-0.0096,-0.4745,1.4928,-1.2991,0.0628,-1.0938,0.6417,
2.786453,0.7035,-0.7031,-0.0096,-0.4745,1.4928,-1.2991,0.1374,-1.7010,0.9836,
2.788742,0.7035,-0.7031,-0.0096,-0.2532,1.7103,-0.8641,0.1374,-1.7010,0.9836,
2.825876,0.7035,-0.7031,-0.0096,-0.2532,1.7103,-0.8641,0.4399,-2.9409,0.7556,
2.827511,0.7035,-0.7031,-0.0096,1.0331,2.1375,-1.9012,0.4399,-2.9409,0.7556,
2.828789,0.6798,-0.6640,-0.1369,1.0331,2.1375,-1.9012,0.4399,-2.9409,0.7556,
2.830402,0.7934,-0.6130,-0.1469,1.0331,2.1375,-1.9012,0.4399,-2.9409,0.7556,
2.831530,0.8421,-0.4642,-0.2082,1.0331,2.1375,-1.9012,0.4399,-2.9409,0.7556,
2.832212,0.7172,-0.7317,0.0744,1.0331,2.1375,-1.9012,0.4399,-2.9409,0.7556,
2.866724,0.7172,-0.7317,0.0744,1.0331,2.1375,-1.9012,0.5273,-3.5045,0.2315,
2.868779,0.7172,-0.7317,0.0744,1.0907,2.1498,-1.1402,0.5273,-3.5045,0.2315,
2.900838,0.5706,-1.1116,0.1653,1.0907,2.1498,-1.1402,0.5273,-3.5045,0.2315,
2.904500,0.6894,-1.1685,0.0715,1.0907,2.1498,-1.1402,0.5273,-3.5045,0.2315,
2.906631,0.5506,-1.3728,0.0351,1.0907,2.1498,-1.1402,0.5273,-3.5045,0.2315,
2.908047,0.5506,-1.3728,0.0351,1.0907,2.1498,-1.1402,0.6402,-2.0578,0.4531,
2.909673,0.5506,-1.3728,0.0351,0.1766,-1.8290,1.7654,0.6402,-2.0578,0.4531,
2.945062,0.5506,-1.3728,0.0351,-3.0776,-4.1389,-0.3220,0.6402,-2.0578,0.4531,
2.947409,0.5506,-1.3728,0.0351,-3.0776,-4.1389,-0.3220,-0.1566,-0.3033,0.5266,
2.984144,0.5506,-1.3728,0.0351,-3.0776,-4.1389,-0.3220,-0.0575,-0.5153,0.5191,
2.986668,0.5506,-1.3728,0.0351,-2.8263,-3.9333,-0.1781,-0.0575,-0.5153,0.5191,
2.988281,0.3305,-1.2115,-0.2085,-2.8263,-3.9333,-0.1781,-0.0575,-0.5153,0.5191,
2.989683,0.0251,-1.2000,-0.1950,-2.8263,-3.9333,-0.1781,-0.0575,-0.5153,0.5191,
2.990865,-0.0052,-1.0554,-0.0780,-2.8263,-3.9333,-0.1781,-0.0575,-0.5153,0.5191,
2.992369,0.2098,-0.6186,-0.0985,-2.8263,-3.9333,-0.1781,-0.0575,-0.5153,0.5191,
2.993916,0.6452,-0.1857,-0.2246,-2.8263,-3.9333,-0.1781,-0.0575,-0.5153,0.5191,
3.024866,0.6452,-0.1857,-0.2246,-2.8263,-3.9333,-0.1781,-0.0139,-0.6367,-0.1658,
3.026473,0.6452,-0.1857,-0.2246,-2.9748,2.2670,-0.1318,-0.0139,-0.6367,-0.1658,
3.058662,1.4780,-0.0560,-0.3323,-2.9748,2.2670,-0.1318,-0.0139,-0.6367,-0.1658,
3.061792,1.3888,-0.2218,-0.3546,-2.9748,2.2670,-0.1318,-0.0139,-0.6367,-0.1658,
3.064193,1.1128,-0.2201,-0.4308,-2.9748,2.2670,-0.1318,-0.0139,-0.6367,-0.1658,
3.065219,1.1128,-0.2201,-0.4308,-2.9748,2.2670,-0.1318,-0.3942,0.2410,-0.2084,
3.066100,1.1128,-0.2201,-0.4308,7.0223,6.5128,-2.3493,-0.3942,0.2410,-0.2084,
3.103634,1.1128,-0.2201,-0.4308,7.0223,6.5128,-2.3493,0.0138,0.5329,0.0867,
3.105611,1.1128,-0.2201,-0.4308,2.6179,1.1701,-1.9988,0.0138,0.5329,0.0867,
3.126718,0.8760,-0.3081,-0.4650,2.6179,1.1701,-1.9988,0.0138,0.5329,0.0867,
3.128711,0.8565,-0.7376,-0.4015,2.6179,1.1701,-1.9988,0.0138,0.5329,0.0867,
3.130297,0.9146,-1.0869,-0.1164,2.6179,1.1701,-1.9988,0.0138,0.5329,0.0867,
3.143598,0.9146,-1.0869,-0.1164,2.6179,1.1701,-1.9988,0.0064,0.8994,-0.1786,
3.145560,0.9146,-1.0869,-0.1164,2.4708,1.1048,-2.1728,0.0064,0.8994,-0.1786,
3.183303,0.9146,-1.0869,-0.1164,2.4708,1.1048,-2.1728,-1.0813,2.1010,-0.6303,
3.186166,0.9146,-1.0869,-0.1164,-1.5901,-6.8433,0.8727,-1.0813,2.1010,-0.6303,
3.214946,0.9012,-1.3278,0.0925,-1.5901,-6.8433,0.8727,-1.0813,2.1010,-0.6303,
3.217116,0.4759,-1.5685,-0.0267,-1.5901,-6.8433,0.8727,-1.0813,2.1010,-0.6303,
3.218242,0.1021,-1.6508,-0.0546,-1.5901,-6.8433,0.8727,-1.0813,2.1010,-0.6303,
3.219888,-0.2842,-1.6469,-0.2034,-1.5901,-6.8433,0.8727,-1.0813,2.1010,-0.6303,
3.221874,0.0012,-0.9406,-0.0460,-1.5901,-6.8433,0.8727,-1.0813,2.1010,-0.6303,
3.223881,0.0012,-0.9406,-0.0460,-1.5901,-6.8433,0.8727,-1.2475,1.7292,-0.6100,
3.225163,0.0012,-0.9406,-0.0460,-1.8002,-6.9030,0.7993,-1.2475,1.7292,-0.6100,
3.261845,0.0012,-0.9406,-0.0460,-1.8002,-6.9030,0.7993,-0.3622,1.4149,0.4126,
3.264356,0.0012,-0.9406,-0.0460,-6.6226,-3.0254,0.3381,-0.3622,1.4149,0.4126,
3.301332,0.0012,-0.9406,-0.0460,-6.6226,-3.0254,0.3381,1.1228,0.9452,1.3181,
3.303699,0.2174,-0.8206,0.2000,-6.6226,-3.0254,0.3381,1.1228,0.9452,1.3181,
3.304931,0.3381,-0.9653,0.3395,-6.6226,-3.0254,0.3381,1.1228,0.9452,1.3181,
3.306106,0.5279,-0.8201,0.3287,-6.6226,-3.0254,0.3381,1.1228,0.9452,1.3181,
3.307862,0.5702,-0.6555,0.0239,-6.6226,-3.0254,0.3381,1.1228,0.9452,1.3181,
3.309199,0.6625,-0.6606,-0.0648,-6.6226,-3.0254,0.3381,1.1228,0.9452,1.3181,
3.310567,0.6625,-0.6606,-0.0648,-6.0803,-2.6423,-0.2599,1.1228,0.9452,1.3181,
3.340215,0.6625,-0.6606,-0.0648,-6.0803,-2.6423,-0.2599,1.8035,-0.5888,0.7173,
3.341862,0.6625,-0.6606,-0.0648,-0.9240,0.6423,1.6501,1.8035,-0.5888,0.7173,
3.380791,0.7534,-0.6621,0.0329,-0.9240,0.6423,1.6501,1.8035,-0.5888,0.7173,
3.382839,0.6146,-0.8873,0.0131,-0.9240,0.6423,1.6501,1.8035,-0.5888,0.7173,
3.384172,0.4360,-0.9127,0.2232,-0.9240,0.6423,1.6501,1.8035,-0.5888,0.7173,
3.385457,0.4360,-0.9127,0.2232,-0.9240,0.6423,1.6501,0.8351,-0.0551,-0.3671,
3.386722,0.4360,-0.9127,0.2232,0.8756,1.2655,-0.9269,0.8351,-0.0551,-0.3671,
3.420414,0.4360,-0.9127,0.2232,0.8756,1.2655,-0.9269,-0.2908,0.8376,-0.2564,
3.422973,0.4360,-0.9127,0.2232,-2.0981,-1.1323,1.3700,-0.2908,0.8376,-0.2564,
3.461453,0.4360,-0.9127,0.2232,-2.0981,-1.1323,1.3700,-0.0469,0.9547,0.1698,
3.463902,0.4360,-0.9127,0.2232,-1.9639,-1.0722,1.1475,-0.0469,0.9547,0.1698,
3.465298,0.3320,-0.9816,0.2821,-1.9639,-1.0722,1.1475,-0.0469,0.9547,0.1698,
3.466691,0.3571,-1.0415,0.2159,-1.9639,-1.0722,1.1475,-0.0469,0.9547,0.1698,
3.467824,0.3982,-0.8201,0.1787,-1.9639,-1.0722,1.1475,-0.0469,0.9547,0.1698,
3.468796,0.4839,-0.7749,0.1597,-1.9639,-1.0722,1.1475,-0.0469,0.9547,0.1698,
3.470630,0.6356,-0.6904,0.1961,-1.9639,-1.0722,1.1475,-0.0469,0.9547,0.1698,
3.499012,0.6356,-0.6904,0.1961,-1.9639,-1.0722,1.1475,-0.1247,0.9771,0.0696,
3.501772,0.6356,-0.6904,0.1961,-0.5967,1.0550,0.3565,-0.1247,0.9771,0.0696,
3.539137,0.6356,-0.6904,0.1961,-0.5967,1.0550,0.3565,-0.3356,0.8184,0.2539,
3.541824,0.6356,-0.6904,0.1961,-0.3080,2.0182,-1.0452,-0.3356,0.8184,0.2539,
3.543406,0.5868,-0.6423,0.0820,-0.3080,2.0182,-1.0452,-0.3356,0.8184,0.2539,
3.544651,0.4961,-0.6479,0.0287,-0.3080,2.0182,-1.0452,-0.3356,0.8184,0.2539,
3.545753,0.4810,-0.7122,0.0087,-0.3080,2.0182,-1.0452,-0.3356,0.8184,0.2539,
3.546879,0.5166,-0.7168,0.0568,-0.3080,2.0182,-1.0452,-0.3356,0.8184,0.2539,
3.578858,0.5166,-0.7168,0.0568,-0.3080,2.0182,-1.0452,-0.4112,0.8962,0.4744,
3.582135,0.5166,-0.7168,0.0568,-0.0923,2.1042,-1.0743,-0.4112,0.8962,0.4744,
3.613533,0.4612,-0.5087,0.0879,-0.0923,2.1042,-1.0743,-0.4112,0.8962,0.4744,
3.615796,0.3383,-0.3753,0.0690,-0.0923,2.1042,-1.0743,-0.4112,0.8962,0.4744,
3.617487,0.2758,-0.1923,0.0568,-0.0923,2.1042,-1.0743,-0.4112,0.8962,0.4744,
3.618883,0.2758,-0.1923,0.0568,-0.0923,2.1042,-1.0743,-0.0607,0.6298,1.1051,
3.620330,0.2758,-0.1923,0.0568,-0.4721,3.5754,-0.8557,-0.0607,0.6298,1.1051,
3.658190,0.2758,-0.1923,0.0568,-0.4721,3.5754,-0.8557,-0.4506,0.8994,1.6526,
3.660558,0.2758,-0.1923,0.0568,-0.6180,4.9563,-1.1283,-0.4506,0.8994,1.6526,
3.682445,0.3622,-0.3611,0.0231,-0.6180,4.9563,-1.1283,-0.4506,0.8994,1.6526,
3.684958,0.4333,-0.6963,0.0439,-0.6180,4.9563,-1.1283,-0.4506,0.8994,1.6526,
3.686358,0.2828,-0.8062,-0.0709,-0.6180,4.9563,-1.1283,-0.4506,0.8994,1.6526,
3.687536,0.1910,-1.0034,-0.0294,-0.6180,4.9563,-1.1283,-0.4506,0.8994,1.6526,
3.697314,0.1910,-1.0034,-0.0294,-0.6180,4.9563,-1.1283,-0.6125,1.0453,1.9328,
3.699046,0.1910,-1.0034,-0.0294,0.1464,5.1894,-1.0416,-0.6125,1.0453,1.9328,
3.737335,0.1910,-1.0034,-0.0294,0.1464,5.1894,-1.0416,-0.2354,0.2112,2.1575,
3.739627,0.1910,-1.0034,-0.0294,-0.2814,0.5722,-1.4929,-0.2354,0.2112,2.1575,
3.756359,0.2152,-0.9315,0.0598,-0.2814,0.5722,-1.4929,-0.2354,0.2112,2.1575,
3.758629,0.1536,-0.9655,-0.1174,-0.2814,0.5722,-1.4929,-0.2354,0.2112,2.1575,
3.760871,0.0781,-0.9828,0.0153,-0.2814,0.5722,-1.4929,-0.2354,0.2112,2.1575,
3.776884,0.0781,-0.9828,0.0153,-0.2814,0.5722,-1.4929,-0.2173,-0.1712,1.8273,
3.779063,0.0781,-0.9828,0.0153,0.3985,0.7295,-1.3730,-0.2173,-0.1712,1.8273,
3.806366,0.1267,-1.2926,0.1035,0.3985,0.7295,-1.3730,-0.2173,-0.1712,1.8273,
3.808500,0.0964,-1.5132,0.3375,0.3985,0.7295,-1.3730,-0.2173,-0.1712,1.8273,
3.810070,0.8003,-2.8757,0.1392,0.3985,0.7295,-1.3730,-0.2173,-0.1712,1.8273,
3.815771,0.8003,-2.8757,0.1392,0.3985,0.7295,-1.3730,0.1150,0.3294,1.5386,
3.817464,0.8003,-2.8757,0.1392,-0.0704,-0.8011,-1.2777,0.1150,0.3294,1.5386,
3.856159,0.8003,-2.8757,0.1392,-0.0704,-0.8011,-1.2777,0.4602,0.0748,0.3775,
3.857558,0.8003,-2.8757,0.1392,4.1508,-11.6235,0.4490,0.4602,0.0748,0.3775,
3.895453,0.7294,-2.2229,0.1113,4.1508,-11.6235,0.4490,0.4602,0.0748,0.3775,
3.898464,0.3867,-0.7156,0.0221,4.1508,-11.6235,0.4490,0.4602,0.0748,0.3775,
3.900371,0.2059,-0.8123,-0.2244,4.1508,-11.6235,0.4490,0.4602,0.0748,0.3775,
3.902015,0.1685,-1.2294,-0.0939,4.1508,-11.6235,0.4490,0.4602,0.0748,0.3775,
3.903506,0.1685,-1.2294,-0.0939,4.1508,-11.6235,0.4490,-0.0384,0.0557,-0.0763,
3.904778,0.1685,-1.2294,-0.0939,1.2763,0.9510,-2.3862,-0.0384,0.0557,-0.0763,
3.935184,0.1685,-1.2294,-0.0939,1.2763,0.9510,-2.3862,-0.9140,-0.4386,0.0004,
3.937130,0.1685,-1.2294,-0.0939,1.9350,-1.4272,-1.3674,-0.9140,-0.4386,0.0004,
3.975368,0.1685,-1.2294,-0.0939,1.9350,-1.4272,-1.3674,-1.4008,-0.8583,-0.4353,
3.978394,0.1685,-1.2294,-0.0939,1.7090,-1.3877,-0.7515,-1.4008,-0.8583,-0.4353,
3.980815,0.3065,-1.2702,-0.0524,1.7090,-1.3877,-0.7515,-1.4008,-0.8583,-0.4353,
3.982251,0.3781,-1.1653,-0.0297,1.7090,-1.3877,-0.7515,-1.4008,-0.8583,-0.4353,
3.984213,0.2946,-1.0708,-0.0265,1.7090,-1.3877,-0.7515,-1.4008,-0.8583,-0.4353,
3.985633,0.0884,-1.0605,-0.0138,1.7090,-1.3877,-0.7515,-1.4008,-0.8583,-0.4353,
3.987637,-0.0460,-1.0728,-0.0042,1.7090,-1.3877,-0.7515,-1.4008,-0.8583,-0.4353,
4.014220,-0.0460,-1.0728,-0.0042,1.7090,-1.3877,-0.7515,-1.7833,-0.4567,-0.6185,
4.017055,-0.0460,-1.0728,-0.0042,1.4365,-1.4018,-0.0119,-1.7833,-0.4567,-0.6185,
4.054522,-0.0650,-1.1153,-0.0279,1.4365,-1.4018,-0.0119,-1.7833,-0.4567,-0.6185,
4.057135,-0.0445,-1.1294,-0.0380,1.4365,-1.4018,-0.0119,-1.7833,-0.4567,-0.6185,
4.058184,-0.0343,-1.1587,0.0326,1.4365,-1.4018,-0.0119,-1.7833,-0.4567,-0.6185,
4.059622,-0.0343,-1.1587,0.0326,1.4365,-1.4018,-0.0119,-2.1604,0.2293,-0.6249,
4.060767,-0.0343,-1.1587,0.0326,-2.0579,-0.6610,1.0135,-2.1604,0.2293,-0.6249,
4.094647,-0.0343,-1.1587,0.0326,-2.0579,-0.6610,1.0135,-1.9452,0.1909,-0.5525,
4.097034,-0.0343,-1.1587,0.0326,-2.5796,-1.5054,2.1134,-1.9452,0.1909,-0.5525,
4.134114,-0.0343,-1.1587,0.0326,-2.5796,-1.5054,2.1134,-1.4893,-0.4642,-0.3224,
4.137001,-0.0343,-1.1587,0.0326,-2.6181,-1.6346,2.6838,-1.4893,-0.4642,-0.3224,
4.138355,-0.0472,-1.1763,0.0788,-2.6181,-1.6346,2.6838,-1.4893,-0.4642,-0.3224,
4.139616,-0.0372,-1.1475,-0.0001,-2.6181,-1.6346,2.6838,-1.4893,-0.4642,-0.3224,
4.140611,0.0683,-1.0395,-0.1379,-2.6181,-1.6346,2.6838,-1.4893,-0.4642,-0.3224,
4.141717,0.2042,-0.9367,-0.2051,-2.6181,-1.6346,2.6838,-1.4893,-0.4642,-0.3224,
4.143140,0.3346,-0.8624,-0.0817,-2.6181,-1.6346,2.6838,-1.4893,-0.4642,-0.3224,
4.172951,0.3346,-0.8624,-0.0817,-2.6181,-1.6346,2.6838,-1.2624,-0.8317,-0.4769,
4.175690,0.3346,-0.8624,-0.0817,-1.5030,-0.6881,1.8460,-1.2624,-0.8317,-0.4769,
4.213170,0.3346,-0.8624,-0.0817,-1.5030,-0.6881,1.8460,-1.0173,-0.9830,-0.7858,
4.215892,0.3346,-0.8624,-0.0817,1.0693,0.8086,2.0220,-1.0173,-0.9830,-0.7858,
4.217338,0.3950,-0.8519,-0.1254,1.0693,0.8086,2.0220,-1.0173,-0.9830,-0.7858,
4.218477,0.3500,-0.8851,-0.2158,1.0693,0.8086,2.0220,-1.0173,-0.9830,-0.7858,
4.219904,0.2220,-0.8927,-0.1965,1.0693,0.8086,2.0220,-1.0173,-0.9830,-0.7858,
4.221006,0.1175,-0.8827,-0.1662,1.0693,0.8086,2.0220,-1.0173,-0.9830,-0.7858,
4.252477,0.1175,-0.8827,-0.1662,1.0693,0.8086,2.0220,-0.7755,-1.1289,-0.7890,
4.255290,0.1175,-0.8827,-0.1662,0.9275,0.6089,2.3776,-0.7755,-1.1289,-0.7890,
4.292815,0.0322,-0.8680,-0.1621,0.9275,0.6089,2.3776,-0.7755,-1.1289,-0.7890,
4.295553,-0.0089,-0.8468,-0.1816,0.9275,0.6089,2.3776,-0.7755,-1.1289,-0.7890,
4.296766,0.0112,-0.8272,-0.2578,0.9275,0.6089,2.3776,-0.7755,-1.1289,-0.7890,
4.298183,0.0112,-0.8272,-0.2578,0.9275,0.6089,2.3776,-0.5934,-0.7156,-0.5440,
4.299387,0.0112,-0.8272,-0.2578,-1.4450,0.3112,2.2931,-0.5934,-0.7156,-0.5440,
4.331713,0.0112,-0.8272,-0.2578,-1.4450,0.3112,2.2931,-0.4432,-0.3885,-0.3096,
4.334025,0.0112,-0.8272,-0.2578,-2.4220,0.6163,1.7011,-0.4432,-0.3885,-0.3096,
4.371460,0.0112,-0.8272,-0.2578,-2.4220,0.6163,1.7011,-0.2812,-0.3555,-0.2201,
4.373833,0.0112,-0.8272,-0.2578,-2.3982,0.5366,1.8062,-0.2812,-0.3555,-0.2201,
4.375208,0.0718,-0.8407,-0.3182,-2.3982,0.5366,1.8062,-0.2812,-0.3555,-0.2201,
4.376566,0.1561,-0.8626,-0.3370,-2.3982,0.5366,1.8062,-0.2812,-0.3555,-0.2201,
4.377653,0.2105,-0.8365,-0.3265,-2.3982,0.5366,1.8062,-0.2812,-0.3555,-0.2201,
4.378905,0.1885,-0.7596,-0.2776,-2.3982,0.5366,1.8062,-0.2812,-0.3555,-0.2201,
4.380073,0.1446,-0.6936,-0.2495,-2.3982,0.5366,1.8062,-0.2812,-0.3555,-0.2201,
4.410644,0.1446,-0.6936,-0.2495,-2.3982,0.5366,1.8062,0.0394,-0.2543,-0.0603,
4.413088,0.1446,-0.6936,-0.2495,-0.7910,0.7078,1.1994,0.0394,-0.2543,-0.0603,
4.450548,0.1446,-0.6936,-0.2495,-0.7910,0.7078,1.1994,0.4335,-0.1095,0.0909,
4.453051,0.1446,-0.6936,-0.2495,-0.8730,2.0169,1.5146,0.4335,-0.1095,0.0909,
4.454375,0.1465,-0.6740,-0.2532,-0.8730,2.0169,1.5146,0.4335,-0.1095,0.0909,
4.455491,0.2191,-0.7048,-0.2913,-0.8730,2.0169,1.5146,0.4335,-0.1095,0.0909,
4.456711,0.2997,-0.7315,-0.3477,-0.8730,2.0169,1.5146,0.4335,-0.1095,0.0909,
4.457703,0.3334,-0.7473,-0.3873,-0.8730,2.0169,1.5146,0.4335,-0.1095,0.0909,
4.490403,0.3334,-0.7473,-0.3873,-0.8730,2.0169,1.5146,0.6881,0.0194,0.0025,
4.494029,0.3334,-0.7473,-0.3873,-0.8606,2.0905,1.2502,0.6881,0.0194,0.0025,
4.530686,0.3334,-0.7473,-0.3873,-0.8606,2.0905,1.2502,0.7030,0.0652,-0.1434,
4.534391,0.3334,-0.7473,-0.3873,0.4232,0.4991,-1.8023,0.7030,0.0652,-0.1434,
4.535621,0.3171,-0.7693,-0.4342,0.4232,0.4991,-1.8023,0.7030,0.0652,-0.1434,
4.536820,0.2973,-0.8201,-0.4958,0.4232,0.4991,-1.8023,0.7030,0.0652,-0.1434,
4.538102,0.3041,-0.8719,-0.5618,0.4232,0.4991,-1.8023,0.7030,0.0652,-0.1434,
4.539768,0.3224,-0.8922,-0.6023,0.4232,0.4991,-1.8023,0.7030,0.0652,-0.1434,
4.569175,0.3224,-0.8922,-0.6023,0.4232,0.4991,-1.8023,0.4847,-0.0221,-0.2201,
4.571290,0.3224,-0.8922,-0.6023,0.3422,0.5349,-1.9392,0.4847,-0.0221,-0.2201,
4.600149,0.3498,-0.8807,-0.5862,0.3422,0.5349,-1.9392,0.4847,-0.0221,-0.2201,
4.602064,0.3779,-0.8727,-0.5398,0.3422,0.5349,-1.9392,0.4847,-0.0221,-0.2201,
4.603086,0.3686,-0.9218,-0.4875,0.3422,0.5349,-1.9392,0.4847,-0.0221,-0.2201,
4.608002,0.3686,-0.9218,-0.4875,0.3422,0.5349,-1.9392,0.3696,-0.0956,-0.3139,
4.611684,0.3686,-0.9218,-0.4875,0.7933,0.2500,-1.8770,0.3696,-0.0956,-0.3139,
4.647966,0.3686,-0.9218,-0.4875,0.7933,0.2500,-1.8770,0.4708,0.2645,-0.5983,
4.649582,0.3686,-0.9218,-0.4875,1.7900,-0.7064,0.9899,0.4708,0.2645,-0.5983,
4.687460,0.3686,-0.9218,-0.4875,1.7900,-0.7064,0.9899,1.0770,0.6959,-0.7325,
4.689755,0.3686,-0.9218,-0.4875,1.4232,-0.6634,0.5071,1.0770,0.6959,-0.7325,
4.690795,0.4761,-0.9665,-0.4938,1.4232,-0.6634,0.5071,1.0770,0.6959,-0.7325,
4.691611,0.6368,-0.9982,-0.1897,1.4232,-0.6634,0.5071,1.0770,0.6959,-0.7325,
4.692683,0.3735,-1.0046,0.0136,1.4232,-0.6634,0.5071,1.0770,0.6959,-0.7325,
4.693298,0.0166,-1.0285,-0.1401,1.4232,-0.6634,0.5071,1.0770,0.6959,-0.7325,
4.694146,0.1123,-1.1783,-0.3453,1.4232,-0.6634,0.5071,1.0770,0.6959,-0.7325,
4.727931,0.1123,-1.1783,-0.3453,1.4232,-0.6634,0.5071,0.9502,0.4072,-0.2691,
4.730648,0.1123,-1.1783,-0.3453,1.2647,-0.5967,0.1076,0.9502,0.4072,-0.2691,
4.768055,0.1123,-1.1783,-0.3453,1.2647,-0.5967,0.1076,0.0532,0.5009,0.5191,
4.770619,0.1123,-1.1783,-0.3453,-2.8407,-1.9240,-0.7612,0.0532,0.5009,0.5191,
4.772011,0.0420,-1.2025,-0.4271,-2.8407,-1.9240,-0.7612,0.0532,0.5009,0.5191,
4.773337,-0.2671,-1.0691,-0.4933,-2.8407,-1.9240,-0.7612,0.0532,0.5009,0.5191,
4.774602,-0.2014,-1.0750,-0.4171,-2.8407,-1.9240,-0.7612,0.0532,0.5009,0.5191,
4.775579,0.0639,-1.1045,-0.1091,-2.8407,-1.9240,-0.7612,0.0532,0.5009,0.5191,
4.807049,0.0639,-1.1045,-0.1091,-2.8407,-1.9240,-0.7612,-0.1662,0.4626,1.0806,
4.809358,0.0639,-1.1045,-0.1091,-4.2907,-1.2542,-1.0905,-0.1662,0.4626,1.0806,
4.846798,0.2491,-1.0767,0.0207,-4.2907,-1.2542,-1.0905,-0.1662,0.4626,1.0806,
4.849165,0.3557,-0.9269,0.0495,-4.2907,-1.2542,-1.0905,-0.1662,0.4626,1.0806,
4.850521,0.4136,-0.8023,0.0314,-4.2907,-1.2542,-1.0905,-0.1662,0.4626,1.0806,
4.851754,0.4136,-0.8023,0.0314,-4.2907,-1.2542,-1.0905,0.2237,0.4892,0.6736,
4.853117,0.4136,-0.8023,0.0314,0.5564,0.2827,2.3925,0.2237,0.4892,0.6736,
4.886368,0.4136,-0.8023,0.0314,0.5564,0.2827,2.3925,0.5773,0.2250,0.2603,
4.888769,0.4136,-0.8023,0.0314,0.6103,0.4152,0.9364,0.5773,0.2250,0.2603,
4.926332,0.4136,-0.8023,0.0314,0.6103,0.4152,0.9364,0.5976,0.2048,0.1197,
4.928649,0.4136,-0.8023,0.0314,0.6312,0.4599,0.6773,0.5976,0.2048,0.1197,
4.929981,0.3921,-0.8302,-0.0568,0.6312,0.4599,0.6773,0.5976,0.2048,0.1197,
4.931087,0.3398,-0.9420,-0.1017,0.6312,0.4599,0.6773,0.5976,0.2048,0.1197,
4.932061,0.2816,-1.0131,-0.1069,0.6312,0.4599,0.6773,0.5976,0.2048,0.1197,
4.933494,0.2154,-1.0244,-0.1007,0.6312,0.4599,0.6773,0.5976,0.2048,0.1197,
4.934784,0.1658,-1.0214,-0.0885,0.6312,0.4599,0.6773,0.5976,0.2048,0.1197,
4.965305,0.1658,-1.0214,-0.0885,0.6312,0.4599,0.6773,0.4783,0.3071,0.1687,
4.967194,0.1658,-1.0214,-0.0885,0.6666,0.4964,0.4557,0.4783,0.3071,0.1687,
5.004784,0.1658,-1.0214,-0.0885,0.6666,0.4964,0.4557,0.3994,0.3007,0.2901,
5.007277,0.1658,-1.0214,-0.0885,-0.7727,-0.2591,0.2853,0.3994,0.3007,0.2901,
5.008231,0.1583,-0.9872,-0.0707,-0.7727,-0.2591,0.2853,0.3994,0.3007,0.2901,
5.008920,0.1795,-0.9230,-0.0614,-0.7727,-0.2591,0.2853,0.3994,0.3007,0.2901,
5.009700,0.2100,-0.8925,-0.0406,-0.7727,-0.2591,0.2853,0.3994,0.3007,0.2901,
5.010461,0.2359,-0.8944,-0.0343,-0.7727,-0.2591,0.2853,0.3994,0.3007,0.2901,
5.044671,0.2359,-0.8944,-0.0343,-0.7727,-0.2591,0.2853,0.5038,0.2655,0.3093,
5.047046,0.2359,-0.8944,-0.0343,-0.3776,0.8335,0.4619,0.5038,0.2655,0.3093,
5.084542,0.2359,-0.8944,-0.0343,-0.3776,0.8335,0.4619,0.5433,0.3593,0.1634,
5.087020,0.2359,-0.8944,-0.0343,0.9069,0.8531,-0.3270,0.5433,0.3593,0.1634,
5.088305,0.2755,-0.8915,-0.0597,0.9069,0.8531,-0.3270,0.5433,0.3593,0.1634,
5.089477,0.3400,-0.8988,-0.1061,0.9069,0.8531,-0.3270,0.5433,0.3593,0.1634,
5.090592,0.3921,-0.9191,-0.1393,0.9069,0.8531,-0.3270,0.5433,0.3593,0.1634,
5.091432,0.4140,-0.9230,-0.1411,0.9069,0.8531,-0.3270,0.5433,0.3593,0.1634,
5.123984,0.4140,-0.9230,-0.1411,0.9069,0.8531,-0.3270,0.4740,0.3135,-0.0891,
5.126581,0.4140,-0.9230,-0.1411,0.8512,0.8409,-0.5301,0.4740,0.3135,-0.0891,
5.163785,0.4140,-0.9230,-0.1411,0.8512,0.8409,-0.5301,0.3952,0.1313,-0.2063,
5.166217,0.4140,-0.9230,-0.1411,1.1134,0.5767,-1.2466,0.3952,0.1313,-0.2063,
5.167627,0.3852,-0.9252,-0.1533,1.1134,0.5767,-1.2466,0.3952,0.1313,-0.2063,
5.168867,0.3192,-0.9347,-0.1863,1.1134,0.5767,-1.2466,0.3952,0.1313,-0.2063,
5.170209,0.2679,-0.9604,-0.1643,1.1134,0.5767,-1.2466,0.3952,0.1313,-0.2063,
5.171423,0.2066,-0.9946,-0.0873,1.1134,0.5767,-1.2466,0.3952,0.1313,-0.2063,
5.203365,0.2066,-0.9946,-0.0873,1.1134,0.5767,-1.2466,0.3526,-0.0754,-0.0998,
5.205077,0.2066,-0.9946,-0.0873,1.0579,0.5606,-1.3509,0.3526,-0.0754,-0.0998,
5.243022,0.2066,-0.9946,-0.0873,-0.4703,-0.0876,-0.7746,0.3526,-0.0754,-0.0998,
5.245675,0.2066,-0.9946,-0.0873,-0.4703,-0.0876,-0.7746,0.4943,-0.1084,0.1154,
5.247092,0.1600,-1.0312,-0.0020,-0.4703,-0.0876,-0.7746,0.4943,-0.1084,0.1154,
5.248371,0.1578,-1.0432,0.0422,-0.4703,-0.0876,-0.7746,0.4943,-0.1084,0.1154,
5.249558,0.1419,-1.0188,0.0497,-0.4703,-0.0876,-0.7746,0.4943,-0.1084,0.1154,
5.250801,0.1123,-1.0070,-0.0111,-0.4703,-0.0876,-0.7746,0.4943,-0.1084,0.1154,
5.282466,0.1123,-1.0070,-0.0111,-0.4703,-0.0876,-0.7746,0.6487,-0.0711,0.3221,
5.285860,0.1123,-1.0070,-0.0111,-1.0560,-0.3227,0.0750,0.6487,-0.0711,0.3221,
5.322082,0.1123,-1.0070,-0.0111,-1.0560,-0.3227,0.0750,0.5401,0.0908,0.4329,
5.324772,0.1123,-1.0070,-0.0111,-0.5444,0.1974,-1.3397,0.5401,0.0908,0.4329,
5.326228,0.1133,-0.9868,-0.0856,-0.5444,0.1974,-1.3397,0.5401,0.0908,0.4329,
5.327505,0.1639,-0.9726,-0.1235,-0.5444,0.1974,-1.3397,0.5401,0.0908,0.4329,
5.328570,0.2372,-0.9596,-0.0839,-0.5444,0.1974,-1.3397,0.5401,0.0908,0.4329,
5.329878,0.2660,-0.9496,-0.0323,-0.5444,0.1974,-1.3397,0.5401,0.0908,0.4329,
5.361486,0.2660,-0.9496,-0.0323,-0.5444,0.1974,-1.3397,0.4122,0.2975,0.3945,
5.364103,0.2660,-0.9496,-0.0323,-0.3799,0.2195,-1.4986,0.4122,0.2975,0.3945,
5.401614,0.2403,-0.8942,0.0258,-0.3799,0.2195,-1.4986,0.4122,0.2975,0.3945,
5.404463,0.2003,-0.9096,0.1111,-0.3799,0.2195,-1.4986,0.4122,0.2975,0.3945,
5.405619,0.1697,-1.0004,0.0480,-0.3799,0.2195,-1.4986,0.4122,0.2975,0.3945,
5.406897,0.1697,-1.0004,0.0480,-0.3799,0.2195,-1.4986,0.5497,0.2027,0.4201,
5.408737,0.1697,-1.0004,0.0480,0.4089,0.7662,-0.4216,0.5497,0.2027,0.4201,
5.441010,0.1697,-1.0004,0.0480,0.4089,0.7662,-0.4216,0.5337,0.1302,0.5650,
5.443675,0.1697,-1.0004,0.0480,-0.0495,0.1665,-1.0019,0.5337,0.1302,0.5650,
5.481135,0.1697,-1.0004,0.0480,-0.0495,0.1665,-1.0019,0.4666,0.0408,0.6896,
5.483578,0.1697,-1.0004,0.0480,0.2161,0.1859,-1.1658,0.4666,0.0408,0.6896,
5.484935,0.1678,-1.0000,-0.0658,0.2161,0.1859,-1.1658,0.4666,0.0408,0.6896,
5.486204,0.1602,-0.9423,0.0055,0.2161,0.1859,-1.1658,0.4666,0.0408,0.6896,
5.488561,0.1517,-0.9782,0.1045,0.2161,0.1859,-1.1658,0.4666,0.0408,0.6896,
5.489805,0.2108,-1.0471,0.1094,0.2161,0.1859,-1.1658,0.4666,0.0408,0.6896,
5.490936,0.3163,-1.0300,0.1025,0.2161,0.1859,-1.1658,0.4666,0.0408,0.6896,
5.520235,0.3163,-1.0300,0.1025,1.0248,-0.1718,-0.2778,0.4666,0.0408,0.6896,
5.523366,0.3163,-1.0300,0.1025,1.0248,-0.1718,-0.2778,0.5092,-0.1521,0.6236,
5.559365,0.3163,-1.0300,0.1025,1.0248,-0.1718,-0.2778,0.2429,-0.1222,0.1229,
5.561024,0.3163,-1.0300,0.1025,2.4561,-0.8338,-1.0590,0.2429,-0.1222,0.1229,
5.561834,0.4004,-1.0068,0.1296,2.4561,-0.8338,-1.0590,0.2429,-0.1222,0.1229,
5.562527,0.4194,-1.0789,0.0502,2.4561,-0.8338,-1.0590,0.2429,-0.1222,0.1229,
5.563641,0.2973,-1.1744,-0.0810,2.4561,-0.8338,-1.0590,0.2429,-0.1222,0.1229,
5.564670,0.1260,-1.1947,-0.1816,2.4561,-0.8338,-1.0590,0.2429,-0.1222,0.1229,
5.599934,0.1260,-1.1947,-0.1816,2.4561,-0.8338,-1.0590,-0.5497,0.0141,-0.2649,
5.602449,0.1260,-1.1947,-0.1816,2.3144,-0.8055,-0.8317,-0.5497,0.0141,-0.2649,
5.639888,0.1260,-1.1947,-0.1816,2.3144,-0.8055,-0.8317,-1.4541,0.1004,-0.2287,
5.642313,0.1260,-1.1947,-0.1816,-0.8967,-1.4226,-2.5917,-1.4541,0.1004,-0.2287,
5.644067,0.0271,-1.1644,-0.2234,-0.8967,-1.4226,-2.5917,-1.4541,0.1004,-0.2287,
5.645014,0.0026,-1.1089,-0.2207,-0.8967,-1.4226,-2.5917,-1.4541,0.1004,-0.2287,
5.646240,0.0222,-1.0537,-0.1520,-0.8967,-1.4226,-2.5917,-1.4541,0.1004,-0.2287,
5.647310,0.1028,-1.0183,-0.0643,-0.8967,-1.4226,-2.5917,-1.4541,0.1004,-0.2287,
5.678715,0.1028,-1.0183,-0.0643,-0.8967,-1.4226,-2.5917,-1.9377,-0.1212,-0.1008,
5.681394,0.1028,-1.0183,-0.0643,-0.9210,-1.3921,-1.7935,-1.9377,-0.1212,-0.1008,
5.718357,0.1028,-1.0183,-0.0643,-0.9210,-1.3921,-1.7935,-2.0240,-0.1904,-0.2766,
5.720550,0.1028,-1.0183,-0.0643,-0.5452,-0.0560,0.2787,-2.0240,-0.1904,-0.2766,
5.721765,0.1746,-0.9662,-0.0201,-0.5452,-0.0560,0.2787,-2.0240,-0.1904,-0.2766,
5.723316,0.1959,-0.9657,-0.0397,-0.5452,-0.0560,0.2787,-2.0240,-0.1904,-0.2766,
5.724474,0.1778,-1.0361,-0.0526,-0.5452,-0.0560,0.2787,-2.0240,-0.1904,-0.2766,
5.725589,0.1502,-1.1030,-0.0331,-0.5452,-0.0560,0.2787,-2.0240,-0.1904,-0.2766,
5.757810,0.1502,-1.1030,-0.0331,-0.5452,-0.0560,0.2787,-1.9537,0.2464,-0.6356,
5.760411,0.1502,-1.1030,-0.0331,-0.0731,-0.4189,1.3614,-1.9537,0.2464,-0.6356,
5.797816,0.1502,-1.1030,-0.0331,-0.0731,-0.4189,1.3614,-1.5681,0.5308,-0.8561,
5.800389,0.1502,-1.1030,-0.0331,-0.5985,-1.4772,2.0707,-1.5681,0.5308,-0.8561,
5.802434,0.1441,-1.1353,-0.0257,-0.5985,-1.4772,2.0707,-1.5681,0.5308,-0.8561,
5.803742,0.1387,-1.1348,-0.0189,-0.5985,-1.4772,2.0707,-1.5681,0.5308,-0.8561,
5.804953,0.1905,-1.1070,-0.0233,-0.5985,-1.4772,2.0707,-1.5681,0.5308,-0.8561,
5.806149,0.2775,-1.0557,-0.0609,-0.5985,-1.4772,2.0707,-1.5681,0.5308,-0.8561,
5.837573,0.2775,-1.0557,-0.0609,-0.9800,-1.6530,2.4284,-1.5681,0.5308,-0.8561,
5.840214,0.2775,-1.0557,-0.0609,-0.9800,-1.6530,2.4284,-1.1015,0.1579,-1.0223,
5.876758,0.2526,-1.0364,-0.2078,-0.9800,-1.6530,2.4284,-1.1015,0.1579,-1.0223,
5.879528,0.1932,-1.0156,-0.3465,-0.9800,-1.6530,2.4284,-1.1015,0.1579,-1.0223,
5.880858,0.1446,-1.0021,-0.3575,-0.9800,-1.6530,2.4284,-1.1015,0.1579,-1.0223,
5.881886,0.1446,-1.0021,-0.3575,-0.9800,-1.6530,2.4284,-1.0642,-0.4876,-1.1757,
5.883438,0.1446,-1.0021,-0.3575,-0.5293,-1.0033,1.0663,-1.0642,-0.4876,-1.1757,
5.916742,0.1446,-1.0021,-0.3575,-0.5293,-1.0033,1.0663,-1.0781,-0.5452,-1.0170,
5.918884,0.1446,-1.0021,-0.3575,-1.5823,-0.5935,0.6443,-1.0781,-0.5452,-1.0170,
5.955857,0.1446,-1.0021,-0.3575,-1.5823,-0.5935,0.6443,-0.8469,-0.6442,-0.7197,
5.958369,0.1446,-1.0021,-0.3575,-1.7092,-0.7968,1.0053,-0.8469,-0.6442,-0.7197,
5.959929,0.1490,-0.9748,-0.2759,-1.7092,-0.7968,1.0053,-0.8469,-0.6442,-0.7197,
5.961108,0.1885,-0.9276,-0.2456,-1.7092,-0.7968,1.0053,-0.8469,-0.6442,-0.7197,
5.962050,0.2010,-0.8663,-0.2349,-1.7092,-0.7968,1.0053,-0.8469,-0.6442,-0.7197,
5.963425,0.1629,-0.7945,-0.2339,-1.7092,-0.7968,1.0053,-0.8469,-0.6442,-0.7197,
5.964956,0.1287,-0.7319,-0.2224,-1.7092,-0.7968,1.0053,-0.8469,-0.6442,-0.7197,
5.995791,0.1287,-0.7319,-0.2224,-1.7092,-0.7968,1.0053,-0.5497,-0.8136,-0.3341,
5.998370,0.1287,-0.7319,-0.2224,-1.6314,0.7317,1.8809,-0.5497,-0.8136,-0.3341,
6.035364,0.1287,-0.7319,-0.2224,-1.6314,0.7317,1.8809,-0.0767,-0.5611,-0.1136,
6.037941,0.1287,-0.7319,-0.2224,-1.8028,2.4476,2.1542,-0.0767,-0.5611,-0.1136,
6.039516,0.1170,-0.6613,-0.2163,-1.8028,2.4476,2.1542,-0.0767,-0.5611,-0.1136,
6.040658,0.1245,-0.6017,-0.2038,-1.8028,2.4476,2.1542,-0.0767,-0.5611,-0.1136,
6.041787,0.1724,-0.5834,-0.2060,-1.8028,2.4476,2.1542,-0.0767,-0.5611,-0.1136,
6.043270,0.2548,-0.5766,-0.2314,-1.8028,2.4476,2.1542,-0.0767,-0.5611,-0.1136,
6.074827,0.2548,-0.5766,-0.2314,-1.8028,2.4476,2.1542,0.5571,-0.1457,0.0323,
6.077279,0.2548,-0.5766,-0.2314,-1.7383,2.5002,1.9510,0.5571,-0.1457,0.0323,
6.115290,0.3725,-0.5639,-0.2989,-1.7383,2.5002,1.9510,0.5571,-0.1457,0.0323,
6.118386,0.4680,-0.5685,-0.3917,-1.7383,2.5002,1.9510,0.5571,-0.1457,0.0323,
6.119640,0.5802,-0.6442,-0.5488,-1.7383,2.5002,1.9510,0.5571,-0.1457,0.0323,
6.120968,0.5802,-0.6442,-0.5488,-1.7383,2.5002,1.9510,1.0013,-0.0413,0.1048,
6.122033,0.5802,-0.6442,-0.5488,0.5209,3.0623,0.6370,1.0013,-0.0413,0.1048,
6.153688,0.5802,-0.6442,-0.5488,0.5209,3.0623,0.6370,0.8927,-0.1158,-0.0465,
6.155392,0.5802,-0.6442,-0.5488,2.8044,1.2762,-2.7851,0.8927,-0.1158,-0.0465,
6.194008,0.5802,-0.6442,-0.5488,2.8044,1.2762,-2.7851,0.5710,-0.1233,-0.2010,
6.196519,0.5802,-0.6442,-0.5488,2.7047,1.3041,-2.9189,0.5710,-0.1233,-0.2010,
6.197949,0.6339,-0.7708,-0.6631,2.7047,1.3041,-2.9189,0.5710,-0.1233,-0.2010,
6.198930,0.5948,-0.8702,-0.6822,2.7047,1.3041,-2.9189,0.5710,-0.1233,-0.2010,
6.200319,0.4311,-0.8810,-0.6267,2.7047,1.3041,-2.9189,0.5710,-0.1233,-0.2010,
6.201579,0.2225,-0.9130,-0.5901,2.7047,1.3041,-2.9189,0.5710,-0.1233,-0.2010,
6.203002,0.1868,-1.1055,-0.5881,2.7047,1.3041,-2.9189,0.5710,-0.1233,-0.2010,
6.234023,0.1868,-1.1055,-0.5881,2.7047,1.3041,-2.9189,0.2567,0.0482,-0.3991,
6.236739,0.1868,-1.1055,-0.5881,-0.5934,-0.7093,-2.6776,0.2567,0.0482,-0.3991,
6.274617,0.1868,-1.1055,-0.5881,-0.5934,-0.7093,-2.6776,0.1427,0.4711,-0.8785,
6.277412,0.5919,-1.4414,-0.5982,-0.5934,-0.7093,-2.6776,0.1427,0.4711,-0.8785,
6.278586,0.8218,-1.4109,-0.1550,-0.5934,-0.7093,-2.6776,0.1427,0.4711,-0.8785,
6.279780,0.1250,-0.6469,-0.0709,-0.5934,-0.7093,-2.6776,0.1427,0.4711,-0.8785,
6.280745,-0.5778,-0.3227,-0.2483,-0.5934,-0.7093,-2.6776,0.1427,0.4711,-0.8785,
6.281712,-0.5778,-0.3227,-0.2483,1.3031,-2.7269,0.4045,0.1427,0.4711,-0.8785,
6.312678,-0.5778,-0.3227,-0.2483,1.3031,-2.7269,0.4045,0.3675,-0.1265,0.0515,
6.315010,-0.5778,-0.3227,-0.2483,1.3138,-2.6306,0.2913,0.3675,-0.1265,0.0515,
6.352712,-0.5778,-0.3227,-0.2483,1.3138,-2.6306,0.2913,0.2833,0.2133,0.6694,
6.355190,-0.5778,-0.3227,-0.2483,-5.5537,0.6472,0.2012,0.2833,0.2133,0.6694,
6.356692,-0.3988,-0.8280,-0.4775,-5.5537,0.6472,0.2012,0.2833,0.2133,0.6694,
6.357961,0.3197,-1.3811,-0.0851,-5.5537,0.6472,0.2012,0.2833,0.2133,0.6694,
6.358891,0.5003,-1.3955,0.1194,-5.5537,0.6472,0.2012,0.2833,0.2133,0.6694,
6.360725,0.3061,-1.0867,-0.0863,-5.5537,0.6472,0.2012,0.2833,0.2133,0.6694,
6.392292,0.3061,-1.0867,-0.0863,-5.5537,0.6472,0.2012,0.6956,0.8568,0.3647,
6.394797,0.3061,-1.0867,-0.0863,-5.4227,0.7569,-0.1584,0.6956,0.8568,0.3647,
6.431568,0.3061,-1.0867,-0.0863,-5.4227,0.7569,-0.1584,0.9449,0.6799,0.4563,
6.434401,0.3061,-1.0867,-0.0863,0.2795,-2.0504,1.7776,0.9449,0.6799,0.4563,
6.435798,0.2523,-0.9635,-0.1110,0.2795,-2.0504,1.7776,0.9449,0.6799,0.4563,
6.437247,0.3200,-0.9763,-0.0599,0.2795,-2.0504,1.7776,0.9449,0.6799,0.4563,
6.438508,0.3354,-1.0029,-0.1694,0.2795,-2.0504,1.7776,0.9449,0.6799,0.4563,
6.440455,0.2912,-0.9934,-0.2517,0.2795,-2.0504,1.7776,0.9449,0.6799,0.4563,
6.471208,0.2912,-0.9934,-0.2517,0.2795,-2.0504,1.7776,0.7329,0.2187,0.5191,
6.474525,0.2912,-0.9934,-0.2517,0.0858,-0.3798,0.1618,0.7329,0.2187,0.5191,
6.511028,0.2912,-0.9934,-0.2517,0.0858,-0.3798,0.1618,0.4325,-0.1425,0.5096,
6.513640,0.2912,-0.9934,-0.2517,-0.5124,-0.0390,-0.4710,0.4325,-0.1425,0.5096,
6.514846,0.2577,-0.9838,-0.2845,-0.5124,-0.0390,-0.4710,0.4325,-0.1425,0.5096,
6.515860,0.2342,-0.9650,-0.2336,-0.5124,-0.0390,-0.4710,0.4325,-0.1425,0.5096,
6.517055,0.2081,-0.9462,-0.1149,-0.5124,-0.0390,-0.4710,0.4325,-0.1425,0.5096,
6.518051,0.2245,-0.9430,-0.0480,-0.5124,-0.0390,-0.4710,0.4325,-0.1425,0.5096,
6.550672,0.2245,-0.9430,-0.0480,-0.5124,-0.0390,-0.4710,0.5038,-0.0487,0.4840,
6.553070,0.2245,-0.9430,-0.0480,-0.3226,0.0422,-0.6436,0.5038,-0.0487,0.4840,
6.589978,0.2245,-0.9430,-0.0480,-0.3226,0.0422,-0.6436,0.6913,-0.0232,0.3924,
6.592189,0.2245,-0.9430,-0.0480,0.1248,0.4667,0.7488,0.6913,-0.0232,0.3924,
6.593600,0.2582,-0.9311,-0.0336,0.1248,0.4667,0.7488,0.6913,-0.0232,0.3924,
6.594589,0.3092,-0.9115,-0.0421,0.1248,0.4667,0.7488,0.6913,-0.0232,0.3924,
6.595719,0.3105,-0.9066,-0.0577,0.1248,0.4667,0.7488,0.6913,-0.0232,0.3924,
6.596903,0.2672,-0.8942,-0.0937,0.1248,0.4667,0.7488,0.6913,-0.0232,0.3924,
6.630068,0.2672,-0.8942,-0.0937,0.1248,0.4667,0.7488,0.7243,-0.1680,0.2624,
6.632558,0.2672,-0.8942,-0.0937,0.2273,0.5124,0.4813,0.7243,-0.1680,0.2624,
6.659798,0.2452,-0.8844,-0.1188,0.2273,0.5124,0.4813,0.7243,-0.1680,0.2624,
6.662181,0.2289,-0.9135,-0.1020,0.2273,0.5124,0.4813,0.7243,-0.1680,0.2624,
6.663535,0.2311,-0.9425,-0.0797,0.2273,0.5124,0.4813,0.7243,-0.1680,0.2624,
6.669099,0.2311,-0.9425,-0.0797,0.2273,0.5124,0.4813,0.5976,-0.0711,0.2177,
6.670634,0.2311,-0.9425,-0.0797,0.4071,0.8641,-0.2155,0.5976,-0.0711,0.2177,
6.709118,0.2311,-0.9425,-0.0797,0.4071,0.8641,-0.2155,0.5582,0.0780,0.2646,
6.711775,0.2311,-0.9425,-0.0797,0.1341,0.5168,-0.3305,0.5582,0.0780,0.2646,
6.747631,0.2496,-0.9438,-0.0580,0.1341,0.5168,-0.3305,0.5582,0.0780,0.2646,
6.750105,0.2523,-0.9357,-0.0499,0.1341,0.5168,-0.3305,0.5582,0.0780,0.2646,
6.751252,0.2609,-0.9457,-0.0282,0.1341,0.5168,-0.3305,0.5582,0.0780,0.2646,
6.752394,0.2284,-0.9626,-0.0563,0.1341,0.5168,-0.3305,0.5582,0.0780,0.2646,
6.753456,0.2284,-0.9626,-0.0563,0.1341,0.5168,-0.3305,0.6157,0.0567,0.3093,
6.754483,0.2284,-0.9626,-0.0563,0.3506,0.3997,-0.2238,0.6157,0.0567,0.3093,
6.788435,0.2284,-0.9626,-0.0563,0.3506,0.3997,-0.2238,0.6295,0.2368,0.3700,
6.791091,0.2284,-0.9626,-0.0563,0.2737,0.4083,-0.8076,0.6295,0.2368,0.3700,
6.828660,0.2284,-0.9626,-0.0563,0.2737,0.4083,-0.8076,0.6498,0.3401,0.4606,
6.831301,0.2284,-0.9626,-0.0563,0.4462,0.4303,-1.0650,0.6498,0.3401,0.4606,
6.832780,0.2071,-0.9657,-0.0873,0.4462,0.4303,-1.0650,0.6498,0.3401,0.4606,
6.833752,0.2257,-0.9635,-0.0866,0.4462,0.4303,-1.0650,0.6498,0.3401,0.4606,
6.834806,0.2433,-0.9196,-0.0636,0.4462,0.4303,-1.0650,0.6498,0.3401,0.4606,
6.835987,0.2196,-0.9105,-0.0389,0.4462,0.4303,-1.0650,0.6498,0.3401,0.4606,
6.837095,0.2034,-0.9423,-0.0658,0.4462,0.4303,-1.0650,0.6498,0.3401,0.4606,
6.867140,0.2034,-0.9423,-0.0658,0.4462,0.4303,-1.0650,0.6274,0.2155,0.5234,
6.869685,0.2034,-0.9423,-0.0658,0.6409,0.4468,-1.2996,0.6274,0.2155,0.5234,
6.907119,0.2034,-0.9423,-0.0658,0.6409,0.4468,-1.2996,0.4740,0.2772,0.5341,
6.909557,0.2034,-0.9423,-0.0658,0.7397,0.6701,-1.1694,0.4740,0.2772,0.5341,
6.910922,0.2218,-0.9301,-0.0380,0.7397,0.6701,-1.1694,0.4740,0.2772,0.5341,
6.912017,0.2232,-0.9650,-0.0331,0.7397,0.6701,-1.1694,0.4740,0.2772,0.5341,
6.913030,0.2320,-1.0048,-0.0790,0.7397,0.6701,-1.1694,0.4740,0.2772,0.5341,
6.914267,0.2609,-0.9582,-0.0949,0.7397,0.6701,-1.1694,0.4740,0.2772,0.5341,
6.946485,0.2609,-0.9582,-0.0949,0.7397,0.6701,-1.1694,0.3015,0.2165,0.5820,
6.948722,0.2609,-0.9582,-0.0949,1.1847,0.2121,-1.4817,0.3015,0.2165,0.5820,
6.988290,0.2609,-0.9582,-0.0949,1.1847,0.2121,-1.4817,0.0671,-0.2959,0.2305,
6.990656,0.2609,-0.9582,-0.0949,3.4053,-0.0590,-0.8697,0.0671,-0.2959,0.2305,
6.991653,0.3493,-0.9335,-0.0585,3.4053,-0.0590,-0.8697,0.0671,-0.2959,0.2305,
6.992451,0.4724,-0.9850,0.0124,3.4053,-0.0590,-0.8697,0.0671,-0.2959,0.2305,
6.993371,0.5675,-1.0952,0.0260,3.4053,-0.0590,-0.8697,0.0671,-0.2959,0.2305,
6.994170,0.5477,-1.2159,-0.0504,3.4053,-0.0590,-0.8697,0.0671,-0.2959,0.2305,
7.025079,0.5477,-1.2159,-0.0504,3.4053,-0.0590,-0.8697,-0.4006,-0.8008,-0.3703,
7.027403,0.5477,-1.2159,-0.0504,3.1850,-0.0646,-0.6648,-0.4006,-0.8008,-0.3703,
7.065487,0.5477,-1.2159,-0.0504,3.1850,-0.0646,-0.6648,-1.2379,-0.6634,-0.4918,
7.067453,0.5477,-1.2159,-0.0504,2.1517,-2.2512,-0.8654,-1.2379,-0.6634,-0.4918,
7.068503,0.4182,-1.2250,-0.0844,2.1517,-2.2512,-0.8654,-1.2379,-0.6634,-0.4918,
7.069495,0.1795,-1.2504,-0.1095,2.1517,-2.2512,-0.8654,-1.2379,-0.6634,-0.4918,
7.070300,-0.0301,-1.3241,-0.1745,2.1517,-2.2512,-0.8654,-1.2379,-0.6634,-0.4918,
7.071226,-0.1232,-1.2621,-0.2065,2.1517,-2.2512,-0.8654,-1.2379,-0.6634,-0.4918,
7.105455,-0.1232,-1.2621,-0.2065,2.1517,-2.2512,-0.8654,-2.1359,-0.5430,-0.4087,
7.108024,-0.1232,-1.2621,-0.2065,1.9668,-2.2708,-0.0012,-2.1359,-0.5430,-0.4087,
7.145663,-0.1232,-1.2621,-0.2065,-2.8042,-2.4441,-0.0709,-2.1359,-0.5430,-0.4087,
7.148281,-0.1232,-1.2621,-0.2065,-2.8042,-2.4441,-0.0709,-2.7921,-0.4141,-0.4119,
7.149725,-0.1344,-1.1158,-0.2229,-2.8042,-2.4441,-0.0709,-2.7921,-0.4141,-0.4119,
7.150865,-0.1137,-1.0491,-0.1799,-2.8042,-2.4441,-0.0709,-2.7921,-0.4141,-0.4119,
7.152119,-0.0856,-1.0747,-0.0873,-2.8042,-2.4441,-0.0709,-2.7921,-0.4141,-0.4119,
7.153206,-0.0538,-1.0869,0.0226,-2.8042,-2.4441,-0.0709,-2.7921,-0.4141,-0.4119,
7.185138,-0.0538,-1.0869,0.0226,-2.8042,-2.4441,-0.0709,-2.5428,-0.3012,-0.2489,
7.187594,-0.0538,-1.0869,0.0226,-2.7107,-1.0809,2.0505,-2.5428,-0.3012,-0.2489,
7.205657,0.0588,-1.0288,0.1116,-2.7107,-1.0809,2.0505,-2.5428,-0.3012,-0.2489,
7.208253,0.2093,-1.0097,0.0634,-2.7107,-1.0809,2.0505,-2.5428,-0.3012,-0.2489,
7.209608,0.3461,-0.9990,-0.1765,-2.7107,-1.0809,2.0505,-2.5428,-0.3012,-0.2489,
7.223790,0.3461,-0.9990,-0.1765,-2.7107,-1.0809,2.0505,-1.5638,-0.6953,-0.2414,
7.225437,0.3461,-0.9990,-0.1765,0.1203,-0.7169,3.4156,-1.5638,-0.6953,-0.2414,
7.263929,0.3461,-0.9990,-0.1765,0.1203,-0.7169,3.4156,-1.3540,-0.8594,-0.6920,
7.266624,0.3461,-0.9990,-0.1765,0.3763,-0.6470,1.0690,-1.3540,-0.8594,-0.6920,
7.293557,0.3908,-0.9785,-0.3218,0.3763,-0.6470,1.0690,-1.3540,-0.8594,-0.6920,
7.296229,0.2697,-0.9804,-0.2771,0.3763,-0.6470,1.0690,-1.3540,-0.8594,-0.6920,
7.297537,0.0715,-0.9836,-0.2847,0.3763,-0.6470,1.0690,-1.3540,-0.8594,-0.6920,
7.298661,0.0395,-0.9743,-0.3424,0.3763,-0.6470,1.0690,-1.3540,-0.8594,-0.6920,
7.303244,0.0395,-0.9743,-0.3424,0.3763,-0.6470,1.0690,-1.1409,-0.4791,-0.9509,
7.304819,0.0395,-0.9743,-0.3424,0.1205,-0.9013,1.4837,-1.1409,-0.4791,-0.9509,
7.343384,0.0395,-0.9743,-0.3424,0.1205,-0.9013,1.4837,-0.7521,-0.2192,-0.8678,
7.346100,0.0395,-0.9743,-0.3424,-1.7043,-0.5683,1.8438,-0.7521,-0.2192,-0.8678,
7.366534,0.0950,-0.9181,-0.2825,-1.7043,-0.5683,1.8438,-0.7521,-0.2192,-0.8678,
7.369429,0.1087,-0.8846,-0.2239,-1.7043,-0.5683,1.8438,-0.7521,-0.2192,-0.8678,
7.370778,0.1734,-0.9069,-0.3336,-1.7043,-0.5683,1.8438,-0.7521,-0.2192,-0.8678,
7.371919,0.4211,-0.9482,-0.4438,-1.7043,-0.5683,1.8438,-0.7521,-0.2192,-0.8678,
7.384198,0.4211,-0.9482,-0.4438,-1.7043,-0.5683,1.8438,-0.3963,-0.2437,-0.8785,
7.386122,0.4211,-0.9482,-0.4438,-1.9192,-0.7210,1.9681,-0.3963,-0.2437,-0.8785,
7.421969,0.4211,-0.9482,-0.4438,-1.9192,-0.7210,1.9681,-0.5103,-0.1808,-1.2194,
7.424741,0.4211,-0.9482,-0.4438,0.2196,-0.8643,1.0356,-0.5103,-0.1808,-1.2194,
7.432396,0.4158,-0.8976,-0.4088,0.2196,-0.8643,1.0356,-0.5103,-0.1808,-1.2194,
7.434727,0.0896,-0.8451,-0.4086,0.2196,-0.8643,1.0356,-0.5103,-0.1808,-1.2194,
7.436305,0.0288,-0.8055,-0.4516,0.2196,-0.8643,1.0356,-0.5103,-0.1808,-1.2194,
7.461113,0.0288,-0.8055,-0.4516,0.2196,-0.8643,1.0356,-0.4272,-0.4940,-1.0532,
7.464151,0.0288,-0.8055,-0.4516,-0.0165,-1.0647,1.2138,-0.4272,-0.4940,-1.0532,
7.501829,0.0288,-0.8055,-0.4516,-0.0165,-1.0647,1.2138,-0.3867,-0.8104,-0.6356,
7.505039,0.0288,-0.8055,-0.4516,-2.4899,-0.0898,0.5714,-0.3867,-0.8104,-0.6356,
7.506734,0.1311,-0.7539,-0.5894,-2.4899,-0.0898,0.5714,-0.3867,-0.8104,-0.6356,
7.507996,0.1827,-0.7366,-0.5972,-2.4899,-0.0898,0.5714,-0.3867,-0.8104,-0.6356,
7.509355,0.2291,-0.6924,-0.4330,-2.4899,-0.0898,0.5714,-0.3867,-0.8104,-0.6356,
7.510666,0.1585,-0.6164,-0.3646,-2.4899,-0.0898,0.5714,-0.3867,-0.8104,-0.6356,
7.541123,0.1585,-0.6164,-0.3646,-2.4899,-0.0898,0.5714,-0.1790,-0.6889,-0.2574,
7.543741,0.1585,-0.6164,-0.3646,-1.3510,0.9949,0.8796,-0.1790,-0.6889,-0.2574,
7.581089,0.1585,-0.6164,-0.3646,-1.3510,0.9949,0.8796,0.2940,-0.0019,0.2038,
7.583697,0.1585,-0.6164,-0.3646,-2.5426,1.7677,1.6330,0.2940,-0.0019,0.2038,
7.585056,0.0366,-0.5575,-0.3534,-2.5426,1.7677,1.6330,0.2940,-0.0019,0.2038,
7.586436,0.0459,-0.5976,-0.3658,-2.5426,1.7677,1.6330,0.2940,-0.0019,0.2038,
7.587726,0.0906,-0.6716,-0.4091,-2.5426,1.7677,1.6330,0.2940,-0.0019,0.2038,
7.589002,0.1138,-0.6850,-0.4203,-2.5426,1.7677,1.6330,0.2940,-0.0019,0.2038,
7.620332,0.1138,-0.6850,-0.4203,-2.5426,1.7677,1.6330,0.6924,0.0791,0.5468,
7.622410,0.1138,-0.6850,-0.4203,-2.3492,1.9432,1.3850,0.6924,0.0791,0.5468,
7.658855,0.1429,-0.6814,-0.3990,-2.3492,1.9432,1.3850,0.6924,0.0791,0.5468,
7.661514,0.1690,-0.6848,-0.3959,-2.3492,1.9432,1.3850,0.6924,0.0791,0.5468,
7.663104,0.2149,-0.7065,-0.4494,-2.3492,1.9432,1.3850,0.6924,0.0791,0.5468,
7.664441,0.2149,-0.7065,-0.4494,-2.3492,1.9432,1.3850,0.8543,0.0589,0.7706,
7.665721,0.2149,-0.7065,-0.4494,-1.2687,1.4378,0.8087,0.8543,0.0589,0.7706,
7.699810,0.2149,-0.7065,-0.4494,-1.2687,1.4378,0.8087,0.9044,0.2218,0.6395,
7.702213,0.2149,-0.7065,-0.4494,0.6127,0.8945,-0.9322,0.9044,0.2218,0.6395,
7.740047,0.2149,-0.7065,-0.4494,0.6127,0.8945,-0.9322,0.8980,0.2879,0.2614,
7.743019,0.2149,-0.7065,-0.4494,0.6400,1.0557,-1.2398,0.8980,0.2879,0.2614,
7.744368,0.3048,-0.7608,-0.5490,0.6400,1.0557,-1.2398,0.8980,0.2879,0.2614,
7.745625,0.4333,-0.8162,-0.6570,0.6400,1.0557,-1.2398,0.8980,0.2879,0.2614,
7.746813,0.5584,-0.8170,-0.6683,0.6400,1.0557,-1.2398,0.8980,0.2879,0.2614,
7.748092,0.5487,-0.7984,-0.6451,0.6400,1.0557,-1.2398,0.8980,0.2879,0.2614,
7.749791,0.4465,-0.8074,-0.6592,0.6400,1.0557,-1.2398,0.8980,0.2879,0.2614,
7.778847,0.4465,-0.8074,-0.6592,0.6400,1.0557,-1.2398,0.7542,0.2815,0.0132,
7.781941,0.4465,-0.8074,-0.6592,2.5185,0.7103,-2.5171,0.7542,0.2815,0.0132,
7.818570,0.4465,-0.8074,-0.6592,2.5185,0.7103,-2.5171,0.0298,0.2772,-0.4918,
7.820939,0.4465,-0.8074,-0.6592,2.8313,-4.0896,-5.0746,0.0298,0.2772,-0.4918,
7.822339,0.3896,-0.9618,-0.7457,2.8313,-4.0896,-5.0746,0.0298,0.2772,-0.4918,
7.824106,0.4934,-1.3368,-1.0166,2.8313,-4.0896,-5.0746,0.0298,0.2772,-0.4918,
7.825380,0.8455,-1.6002,-1.0074,2.8313,-4.0896,-5.0746,0.0298,0.2772,-0.4918,
7.826857,0.4876,-1.1165,-0.0145,2.8313,-4.0896,-5.0746,0.0298,0.2772,-0.4918,
7.859403,0.4876,-1.1165,-0.0145,2.8313,-4.0896,-5.0746,0.2013,0.4988,-0.8263,
7.861805,0.4876,-1.1165,-0.0145,2.4309,-4.0872,-5.1157,0.2013,0.4988,-0.8263,
7.898086,0.4876,-1.1165,-0.0145,2.4309,-4.0872,-5.1157,1.0631,0.1207,0.2219,
7.900615,0.4876,-1.1165,-0.0145,-3.6854,2.6950,3.2295,1.0631,0.1207,0.2219,
7.901997,-0.3018,-0.3367,0.1939,-3.6854,2.6950,3.2295,1.0631,0.1207,0.2219,
7.903137,-0.3668,-0.4124,-0.2603,-3.6854,2.6950,3.2295,1.0631,0.1207,0.2219,
7.904298,0.1094,-0.9692,-0.6153,-3.6854,2.6950,3.2295,1.0631,0.1207,0.2219,
7.905430,0.4404,-1.4250,-0.2356,-3.6854,2.6950,3.2295,1.0631,0.1207,0.2219,
7.937075,0.4404,-1.4250,-0.2356,-3.6854,2.6950,3.2295,0.7030,0.5201,0.4425,
7.939412,0.4404,-1.4250,-0.2356,-3.5382,2.7943,2.8713,0.7030,0.5201,0.4425,
7.976911,0.4404,-1.4250,-0.2356,-3.5382,2.7943,2.8713,0.7233,0.6820,0.3381,
7.979806,0.4404,-1.4250,-0.2356,0.0513,-2.9805,-0.2973,0.7233,0.6820,0.3381,
7.981281,0.3561,-1.2926,-0.0988,0.0513,-2.9805,-0.2973,0.7233,0.6820,0.3381,
7.982414,0.1192,-0.9599,-0.3123,0.0513,-2.9805,-0.2973,0.7233,0.6820,0.3381,
7.983902,0.0864,-0.8431,-0.2503,0.0513,-2.9805,-0.2973,0.7233,0.6820,0.3381,
7.985107,0.1822,-0.8519,-0.0629,0.0513,-2.9805,-0.2973,0.7233,0.6820,0.3381,
8.016910,0.1822,-0.8519,-0.0629,0.0513,-2.9805,-0.2973,0.7148,0.5830,0.5916,
8.019371,0.1822,-0.8519,-0.0629,-1.4636,0.5230,0.4302,0.7148,0.5830,0.5916,
8.056683,0.1822,-0.8519,-0.0629,-1.4636,0.5230,0.4302,0.6999,0.4328,0.4350,
8.059078,0.1822,-0.8519,-0.0629,0.5468,0.3622,0.7466,0.6999,0.4328,0.4350,
8.060246,0.2902,-0.8812,-0.0766,0.5468,0.3622,0.7466,0.6999,0.4328,0.4350,
8.061433,0.3447,-0.9174,-0.1499,0.5468,0.3622,0.7466,0.6999,0.4328,0.4350,
8.062978,0.3346,-0.9374,-0.2058,0.5468,0.3622,0.7466,0.6999,0.4328,0.4350,
8.064035,0.3141,-0.9684,-0.1748,0.5468,0.3622,0.7466,0.6999,0.4328,0.4350,
8.095778,0.3141,-0.9684,-0.1748,0.5468,0.3622,0.7466,0.6104,0.3657,0.2166,
8.098290,0.3141,-0.9684,-0.1748,0.5876,0.4263,0.4752,0.6104,0.3657,0.2166,
8.135196,0.3141,-0.9684,-0.1748,0.5876,0.4263,0.4752,0.6232,0.2570,0.1698,
8.137722,0.3141,-0.9684,-0.1748,0.2918,-0.1114,0.1083,0.6232,0.2570,0.1698,
8.139040,0.2894,-0.9855,-0.1545,0.2918,-0.1114,0.1083,0.6232,0.2570,0.1698,
8.140419,0.2631,-0.9657,-0.1357,0.2918,-0.1114,0.1083,0.6232,0.2570,0.1698,
8.141562,0.2572,-0.9279,-0.1176,0.2918,-0.1114,0.1083,0.6232,0.2570,0.1698,
8.142765,0.2526,-0.9377,-0.1293,0.2918,-0.1114,0.1083,0.6232,0.2570,0.1698,
8.175087,0.2526,-0.9377,-0.1293,0.2918,-0.1114,0.1083,0.6413,0.0993,0.2209,
8.177420,0.2526,-0.9377,-0.1293,0.3624,-0.0505,-0.1394,0.6413,0.0993,0.2209,
8.215326,0.2526,-0.9377,-0.1293,0.3624,-0.0505,-0.1394,0.5912,-0.0210,0.2166,
8.217714,0.2526,-0.9377,-0.1293,0.1073,0.2897,-0.0829,0.5912,-0.0210,0.2166,
8.219146,0.2540,-0.9640,-0.1335,0.1073,0.2897,-0.0829,0.5912,-0.0210,0.2166,
8.220334,0.2631,-0.9750,-0.1384,0.1073,0.2897,-0.0829,0.5912,-0.0210,0.2166,
8.221458,0.2526,-0.9579,-0.1354,0.1073,0.2897,-0.0829,0.5912,-0.0210,0.2166,
8.222425,0.2389,-0.9206,-0.1108,0.1073,0.2897,-0.0829,0.5912,-0.0210,0.2166,
8.254338,0.2389,-0.9206,-0.1108,0.1073,0.2897,-0.0829,0.4943,0.0791,0.1527,
8.256064,0.2389,-0.9206,-0.1108,0.1293,0.2424,-0.2861,0.4943,0.0791,0.1527,
8.294380,0.2389,-0.9206,-0.1108,0.1293,0.2424,-0.2861,0.5145,0.1718,0.1389,
8.296937,0.2389,-0.9206,-0.1108,-0.0818,0.5233,0.3023,0.5145,0.1718,0.1389,
8.298244,0.2235,-0.9061,-0.0883,-0.0818,0.5233,0.3023,0.5145,0.1718,0.1389,
8.299833,0.2289,-0.9245,-0.0287,-0.0818,0.5233,0.3023,0.5145,0.1718,0.1389,
8.300897,0.2227,-0.9435,-0.0213,-0.0818,0.5233,0.3023,0.5145,0.1718,0.1389,
8.301973,0.2227,-0.9677,-0.1066,-0.0818,0.5233,0.3023,0.5145,0.1718,0.1389,
8.333842,0.2227,-0.9677,-0.1066,-0.0183,0.5433,0.0881,0.5145,0.1718,0.1389,
8.336081,0.2227,-0.9677,-0.1066,-0.0183,0.5433,0.0881,0.5284,0.1313,0.1751,
8.373754,0.2227,-0.9677,-0.1066,-0.0183,0.5433,0.0881,0.2801,0.0780,0.1367,
8.376151,0.2227,-0.9677,-0.1066,0.1228,0.2679,-0.9675,0.2801,0.0780,0.1367,
8.377518,0.2374,-0.9628,-0.1557,0.1228,0.2679,-0.9675,0.2801,0.0780,0.1367,
8.378698,0.2433,-0.9318,-0.1694,0.1228,0.2679,-0.9675,0.2801,0.0780,0.1367,
8.379806,0.2274,-0.9196,-0.1604,0.1228,0.2679,-0.9675,0.2801,0.0780,0.1367,
8.380763,0.2337,-0.9389,-0.0722,0.1228,0.2679,-0.9675,0.2801,0.0780,0.1367,
8.412759,0.2337,-0.9389,-0.0722,0.1228,0.2679,-0.9675,0.1427,0.1100,0.1325,
8.415102,0.2337,-0.9389,-0.0722,0.1687,0.2768,-1.0141,0.1427,0.1100,0.1325,
8.454713,0.2337,-0.9389,-0.0722,0.1687,0.2768,-1.0141,0.2652,0.1292,0.1879,
8.456947,0.2337,-0.9389,-0.0722,0.2378,0.3986,-0.5195,0.2652,0.1292,0.1879,
8.458220,0.2433,-0.9704,-0.0162,0.2378,0.3986,-0.5195,0.2652,0.1292,0.1879,
8.460674,0.2179,-0.9782,-0.0189,0.2378,0.3986,-0.5195,0.2652,0.1292,0.1879,
8.461786,0.2083,-0.9521,-0.0001,0.2378,0.3986,-0.5195,0.2652,0.1292,0.1879,
8.463664,0.2120,-0.9340,-0.0084,0.2378,0.3986,-0.5195,0.2652,0.1292,0.1879,
8.492413,0.2120,-0.9340,-0.0084,0.2378,0.3986,-0.5195,0.3483,0.2091,0.2102,
8.494737,0.2120,-0.9340,-0.0084,0.0984,0.2977,0.0527,0.3483,0.2091,0.2102,
8.531604,0.2120,-0.9340,-0.0084,0.0984,0.2977,0.0527,0.3345,0.2890,0.2475,
8.534393,0.2120,-0.9340,-0.0084,0.4224,0.2621,-0.5692,0.3345,0.2890,0.2475,
8.535718,0.2206,-0.9357,-0.0494,0.4224,0.2621,-0.5692,0.3345,0.2890,0.2475,
8.536645,0.2403,-0.9643,-0.0695,0.4224,0.2621,-0.5692,0.3345,0.2890,0.2475,
8.537787,0.2499,-0.9799,-0.0558,0.4224,0.2621,-0.5692,0.3345,0.2890,0.2475,
8.539016,0.2506,-0.9386,0.0165,0.4224,0.2621,-0.5692,0.3345,0.2890,0.2475,
8.572239,0.2506,-0.9386,0.0165,0.4224,0.2621,-0.5692,0.2460,0.4168,0.2528,
8.574847,0.2506,-0.9386,0.0165,0.5117,0.2754,-0.6825,0.2460,0.4168,0.2528,
8.611608,0.2506,-0.9386,0.0165,0.5117,0.2754,-0.6825,0.3153,0.5009,0.2741,
8.614092,0.2506,-0.9386,0.0165,0.5854,0.5941,0.0811,0.3153,0.5009,0.2741,
8.615513,0.2359,-0.9154,0.0891,0.5854,0.5941,0.0811,0.3153,0.5009,0.2741,
8.616825,0.2164,-0.9303,0.0016,0.5854,0.5941,0.0811,0.3153,0.5009,0.2741,
8.618087,0.2056,-0.9570,-0.1039,0.5854,0.5941,0.0811,0.3153,0.5009,0.2741,
8.619167,0.2589,-0.9736,-0.0465,0.5854,0.5941,0.0811,0.3153,0.5009,0.2741,
8.650554,0.2589,-0.9736,-0.0465,0.5854,0.5941,0.0811,0.2290,0.5212,0.4542,
8.654257,0.2589,-0.9736,-0.0465,0.7542,0.6099,-0.0398,0.2290,0.5212,0.4542,
8.680608,0.2748,-0.9665,0.0021,0.7542,0.6099,-0.0398,0.2290,0.5212,0.4542,
8.683191,0.3043,-0.8983,-0.0673,0.7542,0.6099,-0.0398,0.2290,0.5212,0.4542,
8.684292,0.3312,-0.8468,-0.1474,0.7542,0.6099,-0.0398,0.2290,0.5212,0.4542,
8.689825,0.3312,-0.8468,-0.1474,0.7542,0.6099,-0.0398,0.0788,0.3625,0.4765,
8.691249,0.3312,-0.8468,-0.1474,1.0449,0.2635,-0.9104,0.0788,0.3625,0.4765,
8.729413,0.3312,-0.8468,-0.1474,2.0334,1.0282,-1.3981,0.0788,0.3625,0.4765,
8.730916,0.3312,-0.8468,-0.1474,2.0334,1.0282,-1.3981,-0.2898,-0.2607,0.1314,
8.767853,0.3312,-0.8468,-0.1474,2.0334,1.0282,-1.3981,-0.7169,-0.1617,-0.5504,
8.769197,0.4026,-0.9159,-0.1286,2.0334,1.0282,-1.3981,-0.7169,-0.1617,-0.5504,
8.769832,0.4910,-1.1011,-0.0402,2.0334,1.0282,-1.3981,-0.7169,-0.1617,-0.5504,
8.770346,0.4436,-1.3112,-0.0196,2.0334,1.0282,-1.3981,-0.7169,-0.1617,-0.5504,
8.770762,0.2215,-1.3217,-0.1689,2.0334,1.0282,-1.3981,-0.7169,-0.1617,-0.5504,
8.771182,-0.0076,-1.1766,-0.3673,2.0334,1.0282,-1.3981,-0.7169,-0.1617,-0.5504,
8.771644,-0.0076,-1.1766,-0.3673,2.1693,-2.4633,-0.7264,-0.7169,-0.1617,-0.5504,
8.809576,-0.0076,-1.1766,-0.3673,2.1693,-2.4633,-0.7264,-1.8088,0.3571,-0.6441,
8.811925,-0.0076,-1.1766,-0.3673,1.8838,-2.4910,-0.0547,-1.8088,0.3571,-0.6441,
8.849211,-0.0076,-1.1766,-0.3673,-2.3725,-1.1409,-2.3207,-1.8088,0.3571,-0.6441,
8.851673,-0.0076,-1.1766,-0.3673,-2.3725,-1.1409,-2.3207,-3.0669,0.3689,-0.4289,
8.853063,-0.0905,-1.0706,-0.4904,-2.3725,-1.1409,-2.3207,-3.0669,0.3689,-0.4289,
8.854517,-0.0054,-1.0222,-0.4257,-2.3725,-1.1409,-2.3207,-3.0669,0.3689,-0.4289,
8.855787,0.0752,-1.1285,-0.0981,-2.3725,-1.1409,-2.3207,-3.0669,0.3689,-0.4289,
8.857143,0.0337,-1.3080,0.1152,-2.3725,-1.1409,-2.3207,-3.0669,0.3689,-0.4289,
8.888258,0.0337,-1.3080,0.1152,-2.4654,-1.3807,-1.3605,-3.0669,0.3689,-0.4289,
8.890636,0.0337,-1.3080,0.1152,-2.4654,-1.3807,-1.3605,-2.5226,0.0461,-0.3522,
8.928180,0.0337,-1.3080,0.1152,-2.4654,-1.3807,-1.3605,-1.2869,-0.4141,-0.1914,
8.930502,0.0337,-1.3080,0.1152,-1.7552,-3.1627,3.6507,-1.2869,-0.4141,-0.1914,
8.931905,0.0014,-1.3417,0.0979,-1.7552,-3.1627,3.6507,-1.2869,-0.4141,-0.1914,
8.933151,0.0879,-1.2145,-0.0331,-1.7552,-3.1627,3.6507,-1.2869,-0.4141,-0.1914,
8.934165,0.2528,-0.9780,-0.1220,-1.7552,-3.1627,3.6507,-1.2869,-0.4141,-0.1914,
8.935765,0.4399,-0.8319,-0.1362,-1.7552,-3.1627,3.6507,-1.2869,-0.4141,-0.1914,
8.967687,0.4399,-0.8319,-0.1362,-1.7552,-3.1627,3.6507,-0.8394,-0.3427,-0.5216,
8.970292,0.4399,-0.8319,-0.1362,0.2887,-0.8452,2.6118,-0.8394,-0.3427,-0.5216,
9.007356,0.4057,-0.8341,-0.1757,0.2887,-0.8452,2.6118,-0.8394,-0.3427,-0.5216,
9.009814,0.1153,-0.8722,-0.2395,0.2887,-0.8452,2.6118,-0.8394,-0.3427,-0.5216,
9.011050,-0.0992,-0.8861,-0.2737,0.2887,-0.8452,2.6118,-0.8394,-0.3427,-0.5216,
9.013149,-0.0992,-0.8861,-0.2737,0.2887,-0.8452,2.6118,-0.5039,-0.0210,-0.7400,
9.014675,-0.0992,-0.8861,-0.2737,-1.1243,0.4158,1.4684,-0.5039,-0.0210,-0.7400,
9.047291,-0.0992,-0.8861,-0.2737,-1.1243,0.4158,1.4684,-0.2536,-0.1329,-0.3096,
9.049632,-0.0992,-0.8861,-0.2737,-2.8753,0.5512,1.0714,-0.2536,-0.1329,-0.3096,
9.086801,-0.0992,-0.8861,-0.2737,-2.8753,0.5512,1.0714,-0.0671,-0.0882,0.0387,
9.089428,-0.0992,-0.8861,-0.2737,-2.8009,0.5358,1.0853,-0.0671,-0.0882,0.0387,
9.090801,-0.1415,-0.8741,-0.2911,-2.8009,0.5358,1.0853,-0.0671,-0.0882,0.0387,
9.092092,-0.0487,-0.8350,-0.2937,-2.8009,0.5358,1.0853,-0.0671,-0.0882,0.0387,
9.093329,0.0881,-0.8177,-0.2515,-2.8009,0.5358,1.0853,-0.0671,-0.0882,0.0387,
9.094366,0.1605,-0.8082,-0.2314,-2.8009,0.5358,1.0853,-0.0671,-0.0882,0.0387,
9.095531,0.1617,-0.8140,-0.2771,-2.8009,0.5358,1.0853,-0.0671,-0.0882,0.0387,
9.125237,0.1617,-0.8140,-0.2771,-2.8009,0.5358,1.0853,0.2397,0.0045,0.0909,
9.126885,0.1617,-0.8140,-0.2771,-2.7237,0.5708,0.9845,0.2397,0.0045,0.0909,
9.166873,0.1617,-0.8140,-0.2771,-2.7237,0.5708,0.9845,0.4208,-0.0679,-0.0380,
9.168878,0.1817,-0.8460,-0.3514,-2.7237,0.5708,0.9845,0.4208,-0.0679,-0.0380,
9.169831,0.2770,-0.8561,-0.3961,-2.7237,0.5708,0.9845,0.4208,-0.0679,-0.0380,
9.170639,0.3610,-0.8597,-0.3729,-2.7237,0.5708,0.9845,0.4208,-0.0679,-0.0380,
9.171409,0.4744,-0.8368,-0.3907,-2.7237,0.5708,0.9845,0.4208,-0.0679,-0.0380,
9.172099,0.4744,-0.8368,-0.3907,-0.7356,0.8059,0.7530,0.4208,-0.0679,-0.0380,
9.205148,0.4744,-0.8368,-0.3907,1.1109,0.5679,-0.4265,0.4208,-0.0679,-0.0380,
9.207831,0.4744,-0.8368,-0.3907,1.1109,0.5679,-0.4265,0.6061,-0.0626,-0.3725,
9.244697,0.4993,-0.8206,-0.4100,1.1109,0.5679,-0.4265,0.6061,-0.0626,-0.3725,
9.248350,0.3410,-0.7991,-0.3944,1.1109,0.5679,-0.4265,0.6061,-0.0626,-0.3725,
9.249929,0.2015,-0.7813,-0.4521,1.1109,0.5679,-0.4265,0.6061,-0.0626,-0.3725,
9.251426,0.2015,-0.7813,-0.4521,1.1109,0.5679,-0.4265,0.5955,0.0003,-0.4502,
9.252683,0.2015,-0.7813,-0.4521,0.7091,1.0749,-0.9372,0.5955,0.0003,-0.4502,
9.284669,0.2015,-0.7813,-0.4521,0.7091,1.0749,-0.9372,0.3824,-0.2522,-0.1008,
9.287418,0.2015,-0.7813,-0.4521,-0.0325,0.7537,-2.0812,0.3824,-0.2522,-0.1008,
9.325163,0.2015,-0.7813,-0.4521,-0.0325,0.7537,-2.0812,0.0948,-0.4099,0.0941,
9.327694,0.2015,-0.7813,-0.4521,0.0503,0.7623,-2.0370,0.0948,-0.4099,0.0941,
9.329050,0.2169,-0.7962,-0.5212,0.0503,0.7623,-2.0370,0.0948,-0.4099,0.0941,
9.331402,0.2907,-0.8419,-0.5329,0.0503,0.7623,-2.0370,0.0948,-0.4099,0.0941,
9.332898,0.3085,-0.8685,-0.5302,0.0503,0.7623,-2.0370,0.0948,-0.4099,0.0941,
9.334287,0.2623,-0.8570,-0.5095,0.0503,0.7623,-2.0370,0.0948,-0.4099,0.0941,
9.335563,0.2093,-0.8106,-0.4464,0.0503,0.7623,-2.0370,0.0948,-0.4099,0.0941,
9.363809,0.2093,-0.8106,-0.4464,0.0503,0.7623,-2.0370,-0.0192,-0.4642,0.2102,
9.365600,0.2093,-0.8106,-0.4464,0.1801,0.7680,-1.9502,-0.0192,-0.4642,0.2102,
9.403880,0.2093,-0.8106,-0.4464,0.1801,0.7680,-1.9502,0.2695,-0.5004,0.3594,
9.407133,0.2093,-0.8106,-0.4464,-0.0693,1.1025,-1.0449,0.2695,-0.5004,0.3594,
9.408452,0.2091,-0.7517,-0.3419,-0.0693,1.1025,-1.0449,0.2695,-0.5004,0.3594,
9.409645,0.2396,-0.7561,-0.2495,-0.0693,1.1025,-1.0449,0.2695,-0.5004,0.3594,
9.410893,0.2557,-0.8182,-0.2561,-0.0693,1.1025,-1.0449,0.2695,-0.5004,0.3594,
9.412211,0.2538,-1.0227,-0.4039,-0.0693,1.1025,-1.0449,0.2695,-0.5004,0.3594,
9.442551,0.2538,-1.0227,-0.4039,-0.0693,1.1025,-1.0449,0.4921,-0.1947,0.2401,
9.445408,0.2538,-1.0227,-0.4039,0.2600,0.5943,0.0631,0.4921,-0.1947,0.2401,
9.482486,0.2538,-1.0227,-0.4039,0.2600,0.5943,0.0631,0.2556,0.6767,-0.3948,
9.484776,0.2538,-1.0227,-0.4039,2.4648,-3.5564,-1.5353,0.2556,0.6767,-0.3948,
9.485769,0.3671,-1.3156,-0.5918,2.4648,-3.5564,-1.5353,0.2556,0.6767,-0.3948,
9.487300,0.6114,-1.4028,-0.5429,2.4648,-3.5564,-1.5353,0.2556,0.6767,-0.3948,
9.488116,0.5259,-1.1658,-0.2251,2.4648,-3.5564,-1.5353,0.2556,0.6767,-0.3948,
9.488781,0.1343,-0.7635,-0.1594,2.4648,-3.5564,-1.5353,0.2556,0.6767,-0.3948,
9.521876,0.1343,-0.7635,-0.1594,2.1893,-3.4696,-1.8205,0.2556,0.6767,-0.3948,
9.524279,0.1343,-0.7635,-0.1594,2.1893,-3.4696,-1.8205,0.5944,0.9878,-0.3607,
9.561551,-0.1278,-0.6892,-0.2657,2.1893,-3.4696,-1.8205,0.5944,0.9878,-0.3607,
9.565466,-0.1058,-0.8338,-0.3177,2.1893,-3.4696,-1.8205,0.5944,0.9878,-0.3607,
9.567106,0.0278,-1.0219,-0.1992,2.1893,-3.4696,-1.8205,0.5944,0.9878,-0.3607,
9.574347,0.0278,-1.0219,-0.1992,2.1893,-3.4696,-1.8205,0.6775,0.3273,0.3306,
9.576782,0.0278,-1.0219,-0.1992,-2.9118,1.8206,-0.0873,0.6775,0.3273,0.3306,
9.601755,0.0278,-1.0219,-0.1992,-2.9118,1.8206,-0.0873,0.3941,0.5222,0.4105,
9.604144,0.0278,-1.0219,-0.1992,-0.8846,-0.9630,1.3801,0.3941,0.5222,0.4105,
9.641053,0.0278,-1.0219,-0.1992,-0.8846,-0.9630,1.3801,0.4399,0.5436,0.2230,
9.643283,0.0278,-1.0219,-0.1992,-0.8307,-0.8913,1.1441,0.4399,0.5436,0.2230,
9.644727,0.1634,-1.1096,-0.0626,-0.8307,-0.8913,1.1441,0.4399,0.5436,0.2230,
9.645708,0.2931,-1.0354,0.0361,-0.8307,-0.8913,1.1441,0.4399,0.5436,0.2230,
9.647138,0.3090,-0.9433,-0.0040,-0.8307,-0.8913,1.1441,0.4399,0.5436,0.2230,
9.648344,0.2736,-0.9311,-0.0841,-0.8307,-0.8913,1.1441,0.4399,0.5436,0.2230,
9.649629,0.2555,-0.9711,-0.1003,-0.8307,-0.8913,1.1441,0.4399,0.5436,0.2230,
9.680855,0.2555,-0.9711,-0.1003,-0.8307,-0.8913,1.1441,0.4698,0.0802,0.2219,
9.684256,0.2555,-0.9711,-0.1003,0.3957,0.2096,1.0639,0.4698,0.0802,0.2219,
9.720533,0.2555,-0.9711,-0.1003,0.3957,0.2096,1.0639,0.4729,0.0248,0.1783,
9.722893,0.2555,-0.9711,-0.1003,0.0660,-0.5326,1.0615,0.4729,0.0248,0.1783,
9.724150,0.2516,-1.0002,-0.0705,0.0660,-0.5326,1.0615,0.4729,0.0248,0.1783,
9.725514,0.2389,-1.0344,-0.0380,0.0660,-0.5326,1.0615,0.4729,0.0248,0.1783,
9.726611,0.2269,-1.0549,-0.0199,0.0660,-0.5326,1.0615,0.4729,0.0248,0.1783,
9.727685,0.2064,-1.0236,-0.0516,0.0660,-0.5326,1.0615,0.4729,0.0248,0.1783,
9.759916,0.2064,-1.0236,-0.0516,0.0660,-0.5326,1.0615,0.5816,0.1888,0.1069,
9.762435,0.2064,-1.0236,-0.0516,0.0949,-0.4835,0.8101,0.5816,0.1888,0.1069,
9.799810,0.1834,-0.9621,-0.0878,0.0949,-0.4835,0.8101,0.5816,0.1888,0.1069,
9.802161,0.1685,-0.9289,-0.0812,0.0949,-0.4835,0.8101,0.5816,0.1888,0.1069,
9.803245,0.1446,-0.9066,-0.0182,0.0949,-0.4835,0.8101,0.5816,0.1888,0.1069,
9.804262,0.1446,-0.9066,-0.0182,0.0949,-0.4835,0.8101,0.5433,0.1782,0.1048,
9.805087,0.1446,-0.9066,-0.0182,-0.3860,0.1193,0.2806,0.5433,0.1782,0.1048,
9.839747,0.1446,-0.9066,-0.0182,-0.3860,0.1193,0.2806,0.6061,0.2389,0.1591,
9.841722,0.1446,-0.9066,-0.0182,-0.6692,0.7628,0.8532,0.6061,0.2389,0.1591,
9.879384,0.1446,-0.9066,-0.0182,-0.6692,0.7628,0.8532,0.7254,0.3380,0.1644,
9.882989,0.1446,-0.9066,-0.0182,-0.6037,0.7801,0.5374,0.7254,0.3380,0.1644,
9.884362,0.1363,-0.8934,0.0324,-0.6037,0.7801,0.5374,0.7254,0.3380,0.1644,
9.885573,0.1712,-0.9242,0.0221,-0.6037,0.7801,0.5374,0.7254,0.3380,0.1644,
9.889446,0.1954,-0.9618,-0.0316,-0.6037,0.7801,0.5374,0.7254,0.3380,0.1644,
9.890362,0.1995,-0.9682,-0.1130,-0.6037,0.7801,0.5374,0.7254,0.3380,0.1644,
9.891641,0.1839,-0.9692,-0.1753,-0.6037,0.7801,0.5374,0.7254,0.3380,0.1644,
9.918459,0.1839,-0.9692,-0.1753,-0.1178,0.2272,-0.8669,0.7254,0.3380,0.1644,
9.921087,0.1839,-0.9692,-0.1753,-0.1178,0.2272,-0.8669,0.5795,0.4040,0.1932,
9.960089,0.1839,-0.9692,-0.1753,-0.1178,0.2272,-0.8669,0.3888,0.3305,0.3466,
9.964908,0.1839,-0.9692,-0.1753,-0.0337,0.2879,-0.8755,0.3888,0.3305,0.3466,
9.966676,0.1768,-0.9670,-0.1740,-0.0337,0.2879,-0.8755,0.3888,0.3305,0.3466,
9.967944,0.1832,-0.9599,-0.0954,-0.0337,0.2879,-0.8755,0.3888,0.3305,0.3466,
9.969054,0.2039,-0.9609,-0.0040,-0.0337,0.2879,-0.8755,0.3888,0.3305,0.3466,
9.970446,0.2313,-0.9677,0.0241,-0.0337,0.2879,-0.8755,0.3888,0.3305,0.3466,
9.997607,0.2313,-0.9677,0.0241,-0.0337,0.2879,-0.8755,0.5433,0.2272,0.4659,
10.001016,0.2313,-0.9677,0.0241,0.1443,0.3135,-1.0829,0.5433,0.2272,0.4659,
10.037800,0.2504,-0.9491,-0.0047,0.1443,0.3135,-1.0829,0.5433,0.2272,0.4659,
10.040721,0.2474,-0.9162,-0.0585,0.1443,0.3135,-1.0829,0.5433,0.2272,0.4659,
10.041744,0.2333,-0.9096,-0.0810,0.1443,0.3135,-1.0829,0.5433,0.2272,0.4659,
10.043132,0.2333,-0.9096,-0.0810,0.1443,0.3135,-1.0829,0.6817,0.1771,0.4872,
10.044281,0.2333,-0.9096,-0.0810,0.8599,0.5058,-0.5827,0.6817,0.1771,0.4872,
10.077203,0.2333,-0.9096,-0.0810,0.8599,0.5058,-0.5827,0.5656,0.0951,0.5224,
10.080098,0.2333,-0.9096,-0.0810,1.0880,0.5844,-1.2322,0.5656,0.0951,0.5224,
10.116851,0.2333,-0.9096,-0.0810,1.0880,0.5844,-1.2322,0.4485,0.0770,0.4765,
10.119510,0.2333,-0.9096,-0.0810,1.2535,0.5847,-1.3861,0.4485,0.0770,0.4765,
10.120875,0.2445,-0.9337,-0.0678,1.2535,0.5847,-1.3861,0.4485,0.0770,0.4765,
10.121991,0.2643,-0.9677,-0.0270,1.2535,0.5847,-1.3861,0.4485,0.0770,0.4765,
10.123436,0.2577,-0.9846,0.0133,1.2535,0.5847,-1.3861,0.4485,0.0770,0.4765,
10.124632,0.2230,-0.9745,0.0116,1.2535,0.5847,-1.3861,0.4485,0.0770,0.4765,
10.125738,0.2159,-0.9557,0.0138,1.2535,0.5847,-1.3861,0.4485,0.0770,0.4765,
10.156450,0.2159,-0.9557,0.0138,1.2535,0.5847,-1.3861,0.4293,0.1377,0.4403,
10.159221,0.2159,-0.9557,0.0138,1.2592,0.2449,-0.8432,0.4293,0.1377,0.4403,
10.196331,0.2159,-0.9557,0.0138,1.2592,0.2449,-0.8432,0.5092,0.3103,0.4606,
10.199197,0.2159,-0.9557,0.0138,1.5850,0.3232,-0.7780,0.5092,0.3103,0.4606,
10.201381,0.2323,-0.9369,0.0573,1.5850,0.3232,-0.7780,0.5092,0.3103,0.4606,
10.202860,0.2467,-0.9482,0.0571,1.5850,0.3232,-0.7780,0.5092,0.3103,0.4606,
10.203851,0.2670,-1.0026,0.0041,1.5850,0.3232,-0.7780,0.5092,0.3103,0.4606,
10.204937,0.3385,-1.1021,-0.0502,1.5850,0.3232,-0.7780,0.5092,0.3103,0.4606,
10.235440,0.3385,-1.1021,-0.0502,1.5850,0.3232,-0.7780,0.2759,-0.0232,0.3785,
10.238133,0.3385,-1.1021,-0.0502,1.7013,0.3162,-0.8694,0.2759,-0.0232,0.3785,
10.276141,0.3385,-1.1021,-0.0502,3.4400,-2.7155,-1.3434,0.2759,-0.0232,0.3785,
10.278669,0.4592,-1.2501,-0.0350,3.4400,-2.7155,-1.3434,0.2759,-0.0232,0.3785,
10.280220,0.5359,-1.4795,0.0111,3.4400,-2.7155,-1.3434,0.2759,-0.0232,0.3785,
10.284095,0.4338,-1.4216,-0.0951,3.4400,-2.7155,-1.3434,0.2759,-0.0232,0.3785,
10.285770,0.4338,-1.4216,-0.0951,3.4400,-2.7155,-1.3434,-0.3026,-0.4897,-0.2585,
10.314628,0.4338,-1.4216,-0.0951,3.4400,-2.7155,-1.3434,-1.2688,-0.1553,-0.5887,
10.319787,0.4338,-1.4216,-0.0951,0.4216,-1.7259,-3.3477,-1.2688,-0.1553,-0.5887,
10.354596,0.4338,-1.4216,-0.0951,0.4216,-1.7259,-3.3477,-2.5119,-0.3204,-0.4023,
10.357434,0.4338,-1.4216,-0.0951,0.2595,-1.7119,-2.3119,-2.5119,-0.3204,-0.4023,
10.358797,0.1194,-1.1321,-0.3018,0.2595,-1.7119,-2.3119,-2.5119,-0.3204,-0.4023,
10.359989,-0.0694,-0.9897,-0.4609,0.2595,-1.7119,-2.3119,-2.5119,-0.3204,-0.4023,
10.361117,-0.0289,-0.9088,-0.4438,0.2595,-1.7119,-2.3119,-2.5119,-0.3204,-0.4023,
10.362236,0.0466,-0.8407,-0.2019,0.2595,-1.7119,-2.3119,-2.5119,-0.3204,-0.4023,
10.363923,0.1035,-0.8795,0.1279,0.2595,-1.7119,-2.3119,-2.5119,-0.3204,-0.4023,
10.394085,0.1035,-0.8795,0.1279,0.2595,-1.7119,-2.3119,-2.6802,-0.3598,-0.6143,
10.396847,0.1035,-0.8795,0.1279,-1.1295,1.1130,-0.1376,-2.6802,-0.3598,-0.6143,
10.433594,0.1035,-0.8795,0.1279,-1.1295,1.1130,-0.1376,-2.0144,0.2037,-0.7400,
10.436574,0.1035,-0.8795,0.1279,-1.2208,-2.4473,3.8786,-2.0144,0.2037,-0.7400,
10.437947,0.1077,-1.0996,0.2357,-1.2208,-2.4473,3.8786,-2.0144,0.2037,-0.7400,
10.440038,0.0566,-1.2841,0.1734,-1.2208,-2.4473,3.8786,-2.0144,0.2037,-0.7400,
10.441038,0.0141,-1.2855,0.0923,-1.2208,-2.4473,3.8786,-2.0144,0.2037,-0.7400,
10.442139,0.0964,-1.2054,-0.0321,-1.2208,-2.4473,3.8786,-2.0144,0.2037,-0.7400,
10.475644,0.0964,-1.2054,-0.0321,-1.4683,-2.5979,4.3285,-2.0144,0.2037,-0.7400,
10.478554,0.0964,-1.2054,-0.0321,-1.4683,-2.5979,4.3285,-1.4371,0.1878,-0.6782,
10.513463,0.0964,-1.2054,-0.0321,-1.4683,-2.5979,4.3285,-1.2229,-0.3907,-1.0479,
10.516988,0.0964,-1.2054,-0.0321,-0.2127,-1.3075,1.8349,-1.2229,-0.3907,-1.0479,
10.518588,0.2074,-1.0703,-0.1755,-0.2127,-1.3075,1.8349,-1.2229,-0.3907,-1.0479,
10.520155,0.3615,-0.9335,-0.1933,-0.2127,-1.3075,1.8349,-1.2229,-0.3907,-1.0479,
10.521165,0.5228,-0.9276,-0.0802,-0.2127,-1.3075,1.8349,-1.2229,-0.3907,-1.0479,
10.522275,0.3469,-1.0706,-0.1413,-0.2127,-1.3075,1.8349,-1.2229,-0.3907,-1.0479,
10.552438,0.3469,-1.0706,-0.1413,-0.2127,-1.3075,1.8349,-0.8895,-0.7305,-1.4867,
10.555227,0.3469,-1.0706,-0.1413,-0.6368,-1.5523,2.1924,-0.8895,-0.7305,-1.4867,
10.591643,0.3469,-1.0706,-0.1413,-0.6368,-1.5523,2.1924,-0.6125,-0.7135,-1.2172,
10.594028,0.3469,-1.0706,-0.1413,-0.2260,-1.4570,2.2599,-0.6125,-0.7135,-1.2172,
10.595351,0.0188,-1.1184,-0.2383,-0.2260,-1.4570,2.2599,-0.6125,-0.7135,-1.2172,
10.596755,-0.0264,-1.0097,-0.2781,-0.2260,-1.4570,2.2599,-0.6125,-0.7135,-1.2172,
10.597763,0.0451,-0.8727,-0.2376,-0.2260,-1.4570,2.2599,-0.6125,-0.7135,-1.2172,
10.598558,0.0969,-0.7588,-0.1591,-0.2260,-1.4570,2.2599,-0.6125,-0.7135,-1.2172,
10.631817,0.0969,-0.7588,-0.1591,-0.2260,-1.4570,2.2599,-0.4048,-0.6538,-0.7783,
10.636738,0.0969,-0.7588,-0.1591,-2.8679,-0.0642,1.7502,-0.4048,-0.6538,-0.7783,
10.671540,0.0969,-0.7588,-0.1591,-2.8679,-0.0642,1.7502,0.0064,-0.6112,-0.3437,
10.673901,0.0969,-0.7588,-0.1591,-2.4074,1.8036,2.6977,0.0064,-0.6112,-0.3437,
10.675257,0.0972,-0.6909,-0.1042,-2.4074,1.8036,2.6977,0.0064,-0.6112,-0.3437,
10.676717,0.0730,-0.6772,-0.1134,-2.4074,1.8036,2.6977,0.0064,-0.6112,-0.3437,
10.678015,0.0798,-0.6787,-0.1767,-2.4074,1.8036,2.6977,0.0064,-0.6112,-0.3437,
10.679108,0.0774,-0.6572,-0.2529,-2.4074,1.8036,2.6977,0.0064,-0.6112,-0.3437,
10.711065,0.0774,-0.6572,-0.2529,-2.4074,1.8036,2.6977,0.3632,-0.6165,0.0835,
10.713602,0.0774,-0.6572,-0.2529,-2.2440,1.8399,2.6083,0.3632,-0.6165,0.0835,
10.750548,0.0774,-0.6572,-0.2529,-2.2440,1.8399,2.6083,0.6807,-0.4248,0.4489,
10.753268,0.0774,-0.6572,-0.2529,-1.6860,2.5048,0.8226,0.6807,-0.4248,0.4489,
10.754886,0.0906,-0.6157,-0.2972,-1.6860,2.5048,0.8226,0.6807,-0.4248,0.4489,
10.756139,0.1776,-0.6049,-0.3309,-1.6860,2.5048,0.8226,0.6807,-0.4248,0.4489,
10.757395,0.3828,-0.5841,-0.3741,-1.6860,2.5048,0.8226,0.6807,-0.4248,0.4489,
10.758817,0.5890,-0.5993,-0.4516,-1.6860,2.5048,0.8226,0.6807,-0.4248,0.4489,
10.790089,0.5890,-0.5993,-0.4516,-1.6860,2.5048,0.8226,1.1526,-0.3609,0.2997,
10.792680,0.5890,-0.5993,-0.4516,-1.5062,2.6533,0.4547,1.1526,-0.3609,0.2997,
10.829554,0.5890,-0.5993,-0.4516,-1.5062,2.6533,0.4547,1.1941,0.0120,-0.1488,
10.832297,0.5890,-0.5993,-0.4516,2.8713,2.6606,-1.6425,1.1941,0.0120,-0.1488,
10.834798,0.7451,-0.7188,-0.5771,2.8713,2.6606,-1.6425,1.1941,0.0120,-0.1488,
10.836300,0.7969,-0.8585,-0.6673,2.8713,2.6606,-1.6425,1.1941,0.0120,-0.1488,
10.837565,0.7275,-0.8827,-0.6526,2.8713,2.6606,-1.6425,1.1941,0.0120,-0.1488,
10.838676,0.4355,-0.8868,-0.3443,2.8713,2.6606,-1.6425,1.1941,0.0120,-0.1488,
10.869104,0.4355,-0.8868,-0.3443,2.8713,2.6606,-1.6425,0.9395,0.7822,-0.3086,
10.871862,0.4355,-0.8868,-0.3443,3.4150,0.3510,-2.8674,0.9395,0.7822,-0.3086,
10.909835,-0.0294,-1.2753,-0.1545,3.4150,0.3510,-2.8674,0.9395,0.7822,-0.3086,
10.912266,0.0727,-2.2779,-0.7169,3.4150,0.3510,-2.8674,0.9395,0.7822,-0.3086,
10.913776,0.7480,-1.8103,0.0226,3.4150,0.3510,-2.8674,0.9395,0.7822,-0.3086,
10.914926,0.7480,-1.8103,0.0226,3.4150,0.3510,-2.8674,0.6157,0.5926,-0.5141,
10.916159,0.7480,-1.8103,0.0226,-0.6303,-8.4460,-0.4859,0.6157,0.5926,-0.5141,
10.948952,0.7480,-1.8103,0.0226,-0.6303,-8.4460,-0.4859,0.2706,0.9047,-0.2521,
10.951915,0.7480,-1.8103,0.0226,-6.7441,2.9705,0.2828,0.2706,0.9047,-0.2521,
10.989728,0.7480,-1.8103,0.0226,-6.7441,2.9705,0.2828,0.1512,0.5031,1.1072,
10.992048,0.7480,-1.8103,0.0226,-6.2789,3.0664,0.1628,0.1512,0.5031,1.1072,
10.993470,-0.1708,-0.5245,-0.2041,-6.2789,3.0664,0.1628,0.1512,0.5031,1.1072,
10.994740,-0.6888,-0.4774,-0.3016,-6.2789,3.0664,0.1628,0.1512,0.5031,1.1072,
10.996621,-0.2041,-0.8485,-0.0402,-6.2789,3.0664,0.1628,0.1512,0.5031,1.1072,
10.997622,0.1653,-1.1707,0.2178,-6.2789,3.0664,0.1628,0.1512,0.5031,1.1072,
10.998871,0.2968,-1.2831,0.1550,-6.2789,3.0664,0.1628,0.1512,0.5031,1.1072,
11.028473,0.2968,-1.2831,0.1550,-6.2789,3.0664,0.1628,0.7030,0.4274,0.8451,
11.031069,0.2968,-1.2831,0.1550,-5.9021,3.1523,-0.1361,0.7030,0.4274,0.8451,
11.067916,0.2968,-1.2831,0.1550,-5.9021,3.1523,-0.1361,0.6807,0.7321,0.2411,
11.070371,0.2968,-1.2831,0.1550,0.3156,-2.1347,2.2655,0.6807,0.7321,0.2411,
11.071705,0.3654,-1.0454,-0.0744,0.3156,-2.1347,2.2655,0.6807,0.7321,0.2411,
11.072970,0.3378,-0.7974,-0.2317,0.3156,-2.1347,2.2655,0.6807,0.7321,0.2411,
11.074255,0.1954,-0.7764,-0.1745,0.3156,-2.1347,2.2655,0.6807,0.7321,0.2411,
11.075251,0.0549,-0.8502,-0.0998,0.3156,-2.1347,2.2655,0.6807,0.7321,0.2411,
11.107197,0.0549,-0.8502,-0.0998,0.3156,-2.1347,2.2655,0.4058,0.5255,0.2251,
11.109746,0.0549,-0.8502,-0.0998,-0.4013,1.3942,-0.5523,0.4058,0.5255,0.2251,
11.147005,0.0549,-0.8502,-0.0998,-0.4013,1.3942,-0.5523,0.2663,0.3699,0.3487,
11.149565,0.0549,-0.8502,-0.0998,0.1222,-0.3995,0.1074,0.2663,0.3699,0.3487,
11.150996,0.1365,-0.9125,-0.1262,0.1222,-0.3995,0.1074,0.2663,0.3699,0.3487,
11.152289,0.2499,-1.0136,-0.1154,0.1222,-0.3995,0.1074,0.2663,0.3699,0.3487,
11.153465,0.3278,-1.0620,-0.0216,0.1222,-0.3995,0.1074,0.2663,0.3699,0.3487,
11.154708,0.3527,-0.9958,0.0363,0.1222,-0.3995,0.1074,0.2663,0.3699,0.3487,
11.186670,0.3527,-0.9958,0.0363,0.1222,-0.3995,0.1074,0.3462,0.2474,0.3018,
11.188978,0.3527,-0.9958,0.0363,0.2218,-0.3554,-0.0417,0.3462,0.2474,0.3018,
11.226294,0.3527,-0.9958,0.0363,0.2218,-0.3554,-0.0417,0.5827,0.0716,0.1325,
11.228575,0.3527,-0.9958,0.0363,1.4779,0.3200,0.8661,0.5827,0.0716,0.1325,
11.229876,0.3537,-0.9083,0.0065,1.4779,0.3200,0.8661,0.5827,0.0716,0.1325,
11.231032,0.3855,-0.8839,0.0449,1.4779,0.3200,0.8661,0.5827,0.0716,0.1325,
11.232272,0.3254,-0.9293,-0.0165,1.4779,0.3200,0.8661,0.5827,0.0716,0.1325,
11.233488,0.2323,-0.9594,-0.0795,1.4779,0.3200,0.8661,0.5827,0.0716,0.1325,
11.265505,0.2323,-0.9594,-0.0795,1.4630,0.3279,0.6277,0.5827,0.0716,0.1325,
11.267283,0.2323,-0.9594,-0.0795,1.4630,0.3279,0.6277,0.5827,0.1207,0.0323,
11.305867,0.1839,-0.9733,-0.1171,1.4630,0.3279,0.6277,0.5827,0.1207,0.0323,
11.308513,0.1719,-0.9765,-0.1037,1.4630,0.3279,0.6277,0.5827,0.1207,0.0323,
11.309941,0.1614,-0.9533,-0.0954,1.4630,0.3279,0.6277,0.5827,0.1207,0.0323,
11.311073,0.1614,-0.9533,-0.0954,1.4630,0.3279,0.6277,0.4112,0.1856,0.1410,
11.312084,0.1614,-0.9533,-0.0954,0.3633,0.1002,-0.5152,0.4112,0.1856,0.1410,
11.345239,0.1614,-0.9533,-0.0954,0.3633,0.1002,-0.5152,0.3451,0.2517,0.2805,
11.347921,0.1614,-0.9533,-0.0954,-0.3196,0.0975,-0.8403,0.3451,0.2517,0.2805,
11.384611,0.1614,-0.9533,-0.0954,-0.3196,0.0975,-0.8403,0.3526,0.3326,0.3445,
11.387745,0.1614,-0.9533,-0.0954,-0.1865,0.1208,-0.9810,0.3526,0.3326,0.3445,
11.389064,0.1656,-0.9399,-0.0722,-0.1865,0.1208,-0.9810,0.3526,0.3326,0.3445,
11.390311,0.2056,-0.9469,-0.0524,-0.1865,0.1208,-0.9810,0.3526,0.3326,0.3445,
11.391301,0.2450,-0.9567,-0.0072,-0.1865,0.1208,-0.9810,0.3526,0.3326,0.3445,
11.392541,0.2499,-0.9609,0.0141,-0.1865,0.1208,-0.9810,0.3526,0.3326,0.3445,
11.393441,0.2438,-0.9555,0.0060,-0.1865,0.1208,-0.9810,0.3526,0.3326,0.3445,
11.424021,0.2438,-0.9555,0.0060,-0.1865,0.1208,-0.9810,0.4197,0.3912,0.3253,
11.427041,0.2438,-0.9555,0.0060,0.5874,0.1544,-0.4217,0.4197,0.3912,0.3253,
11.464254,0.2438,-0.9555,0.0060,0.5874,0.1544,-0.4217,0.3952,0.3028,0.3721,
11.466931,0.2438,-0.9555,0.0060,0.8108,0.3481,-0.6283,0.3952,0.3028,0.3721,
11.468249,0.2318,-0.9389,-0.0184,0.8108,0.3481,-0.6283,0.3952,0.3028,0.3721,
11.469221,0.2533,-0.9147,-0.0480,0.8108,0.3481,-0.6283,0.3952,0.3028,0.3721,
11.470413,0.2816,-0.9435,-0.0052,0.8108,0.3481,-0.6283,0.3952,0.3028,0.3721,
11.471208,0.2574,-0.9841,0.0434,0.8108,0.3481,-0.6283,0.3952,0.3028,0.3721,
11.503901,0.2574,-0.9841,0.0434,0.9269,0.3539,-0.7813,0.3952,0.3028,0.3721,
11.505714,0.2574,-0.9841,0.0434,0.9269,0.3539,-0.7813,0.3781,0.3934,0.3274,
11.543147,0.2574,-0.9841,0.0434,0.9269,0.3539,-0.7813,0.4048,0.5286,0.2592,
11.545064,0.2574,-0.9841,0.0434,1.1276,-0.0315,-0.4992,0.4048,0.5286,0.2592,
11.546168,0.2227,-1.0007,0.0410,1.1276,-0.0315,-0.4992,0.4048,0.5286,0.2592,
11.546953,0.1839,-0.9916,-0.0057,1.1276,-0.0315,-0.4992,0.4048,0.5286,0.2592,
11.547771,0.1365,-0.9665,-0.0482,1.1276,-0.0315,-0.4992,0.4048,0.5286,0.2592,
11.548437,0.1065,-0.9499,-0.1127,1.1276,-0.0315,-0.4992,0.4048,0.5286,0.2592,
11.582522,0.1065,-0.9499,-0.1127,0.1785,0.0419,-1.4180,0.4048,0.5286,0.2592,
11.584433,0.1065,-0.9499,-0.1127,0.1785,0.0419,-1.4180,0.2951,0.5585,0.3434,
11.621976,0.1065,-0.9499,-0.1127,0.1785,0.0419,-1.4180,0.2343,0.6927,0.4915,
11.624070,0.1065,-0.9499,-0.1127,1.3436,-0.1415,-1.5054,0.2343,0.6927,0.4915,
11.624840,0.1499,-0.9638,-0.1049,1.3436,-0.1415,-1.5054,0.2343,0.6927,0.4915,
11.626117,0.2433,-0.9973,-0.0360,1.3436,-0.1415,-1.5054,0.2343,0.6927,0.4915,
11.627023,0.3324,-1.0078,-0.0238,1.3436,-0.1415,-1.5054,0.2343,0.6927,0.4915,
11.627904,0.4089,-0.9860,-0.0959,1.3436,-0.1415,-1.5054,0.2343,0.6927,0.4915,
11.661969,0.4089,-0.9860,-0.0959,1.3436,-0.1415,-1.5054,0.2876,0.6373,0.5341,
11.664215,0.4089,-0.9860,-0.0959,1.5457,-0.1317,-1.6101,0.2876,0.6373,0.5341,
11.701994,0.4773,-1.0354,-0.1418,1.5457,-0.1317,-1.6101,0.2876,0.6373,0.5341,
11.704735,0.5030,-1.2188,-0.0355,1.5457,-0.1317,-1.6101,0.2876,0.6373,0.5341,
11.706366,0.5135,-1.3637,0.0688,1.5457,-0.1317,-1.6101,0.2876,0.6373,0.5341,
11.707498,0.5135,-1.3637,0.0688,1.5457,-0.1317,-1.6101,-0.0490,-0.0487,0.2060,
11.708509,0.5135,-1.3637,0.0688,3.7262,-0.9931,-1.9121,-0.0490,-0.0487,0.2060,
11.741693,0.5135,-1.3637,0.0688,3.7262,-0.9931,-1.9121,-0.5263,-0.5494,-0.3799,
11.744078,0.5135,-1.3637,0.0688,3.2444,-3.1292,-0.3705,-0.5263,-0.5494,-0.3799,
11.780894,0.5135,-1.3637,0.0688,3.2444,-3.1292,-0.3705,-1.6022,-0.0477,-0.5152,
11.784177,0.5135,-1.3637,0.0688,2.9944,-3.0695,0.2406,-1.6022,-0.0477,-0.5152,
11.785411,0.5171,-1.3368,0.0820,2.9944,-3.0695,0.2406,-1.6022,-0.0477,-0.5152,
11.786637,0.2782,-1.2115,-0.0211,2.9944,-3.0695,0.2406,-1.6022,-0.0477,-0.5152,
11.787753,-0.0514,-1.1394,-0.3485,2.9944,-3.0695,0.2406,-1.6022,-0.0477,-0.5152,
11.789008,-0.1659,-1.0806,-0.4613,2.9944,-3.0695,0.2406,-1.6022,-0.0477,-0.5152,
11.790205,-0.1291,-0.9907,-0.1379,2.9944,-3.0695,0.2406,-1.6022,-0.0477,-0.5152,
11.819860,-0.1291,-0.9907,-0.1379,2.9944,-3.0695,0.2406,-2.7143,-0.0221,-0.3149,
11.822091,-0.1291,-0.9907,-0.1379,-2.4911,-0.8176,-2.1984,-2.7143,-0.0221,-0.3149,
11.860172,-0.1291,-0.9907,-0.1379,-2.4911,-0.8176,-2.1984,-2.5311,0.1675,-0.3064,
11.862557,-0.1291,-0.9907,-0.1379,-2.0167,-1.0879,3.2870,-2.5311,0.1675,-0.3064,
11.864221,-0.0858,-0.9772,0.1516,-2.0167,-1.0879,3.2870,-2.5311,0.1675,-0.3064,
11.865446,-0.0628,-1.0957,0.1761,-2.0167,-1.0879,3.2870,-2.5311,0.1675,-0.3064,
11.866786,-0.0242,-1.1785,0.1289,-2.0167,-1.0879,3.2870,-2.5311,0.1675,-0.3064,
11.867747,0.0417,-1.1732,0.1360,-2.0167,-1.0879,3.2870,-2.5311,0.1675,-0.3064,
11.900029,0.0417,-1.1732,0.1360,-2.0167,-1.0879,3.2870,-1.9878,0.1686,-0.2606,
11.902982,0.0417,-1.1732,0.1360,-2.0933,-1.2526,3.9536,-1.9878,0.1686,-0.2606,
11.939629,0.0417,-1.1732,0.1360,-2.0933,-1.2526,3.9536,-1.5915,0.1111,-0.4747,
11.943350,0.0417,-1.1732,0.1360,-0.4537,-1.5210,3.1741,-1.5915,0.1111,-0.4747,
11.944848,0.1363,-1.1170,0.0143,-0.4537,-1.5210,3.1741,-1.5915,0.1111,-0.4747,
11.945829,0.2056,-0.9890,-0.0927,-0.4537,-1.5210,3.1741,-1.5915,0.1111,-0.4747,
11.947072,0.2631,-0.8988,-0.1501,-0.4537,-1.5210,3.1741,-1.5915,0.1111,-0.4747,
11.948051,0.2797,-0.9193,-0.0770,-0.4537,-1.5210,3.1741,-1.5915,0.1111,-0.4747,
11.979115,0.2797,-0.9193,-0.0770,-0.4537,-1.5210,3.1741,-1.1239,-0.0775,-0.8731,
11.981831,0.2797,-0.9193,-0.0770,-0.7450,-1.6986,3.5251,-1.1239,-0.0775,-0.8731,
12.019946,0.2797,-0.9193,-0.0770,-0.7450,-1.6986,3.5251,-0.5582,-0.6165,-1.1927,
12.022491,0.2797,-0.9193,-0.0770,0.3995,-0.2596,2.5676,-0.5582,-0.6165,-1.1927,
12.024193,0.2963,-0.9670,-0.0719,0.3995,-0.2596,2.5676,-0.5582,-0.6165,-1.1927,
12.025152,0.2892,-0.9846,-0.2529,0.3995,-0.2596,2.5676,-0.5582,-0.6165,-1.1927,
12.026164,0.1639,-0.9589,-0.2666,0.3995,-0.2596,2.5676,-0.5582,-0.6165,-1.1927,
12.027289,0.1179,-0.9125,-0.1863,0.3995,-0.2596,2.5676,-0.5582,-0.6165,-1.1927,
12.058383,0.1179,-0.9125,-0.1863,0.3995,-0.2596,2.5676,-0.3558,-0.9020,-1.0297,
12.061114,0.1179,-0.9125,-0.1863,-0.6909,-0.6321,1.4265,-0.3558,-0.9020,-1.0297,
12.098053,0.1179,-0.9125,-0.1863,-0.6909,-0.6321,1.4265,-0.1364,-0.6325,-0.6612,
12.100993,0.1179,-0.9125,-0.1863,-1.5269,0.6115,2.0424,-0.1364,-0.6325,-0.6612,
12.102384,0.1346,-0.8541,-0.1472,-1.5269,0.6115,2.0424,-0.1364,-0.6325,-0.6612,
12.103795,0.1189,-0.8057,-0.1567,-1.5269,0.6115,2.0424,-0.1364,-0.6325,-0.6612,
12.105069,0.0940,-0.7850,-0.2373,-1.5269,0.6115,2.0424,-0.1364,-0.6325,-0.6612,
12.106481,0.1101,-0.7825,-0.3089,-1.5269,0.6115,2.0424,-0.1364,-0.6325,-0.6612,
12.137033,0.1101,-0.7825,-0.3089,-1.5269,0.6115,2.0424,0.0266,-0.7262,-0.3863,
12.140009,0.1101,-0.7825,-0.3089,-1.5216,0.5650,2.0753,0.0266,-0.7262,-0.3863,
12.177315,0.1101,-0.7825,-0.3089,-1.5216,0.5650,2.0753,0.1449,-0.8019,-0.1743,
12.179744,0.1101,-0.7825,-0.3089,-1.2131,1.0068,0.7155,0.1449,-0.8019,-0.1743,
12.181112,0.1397,-0.7769,-0.3512,-1.2131,1.0068,0.7155,0.1449,-0.8019,-0.1743,
12.182357,0.1663,-0.7461,-0.3043,-1.2131,1.0068,0.7155,0.1449,-0.8019,-0.1743,
12.183659,0.1925,-0.7239,-0.2591,-1.2131,1.0068,0.7155,0.1449,-0.8019,-0.1743,
12.184884,0.2206,-0.7234,-0.2823,-1.2131,1.0068,0.7155,0.1449,-0.8019,-0.1743,
12.216949,0.2206,-0.7234,-0.2823,-1.2131,1.0068,0.7155,0.3739,-0.4972,0.0068,
12.219712,0.2206,-0.7234,-0.2823,-1.1162,1.0465,0.6279,0.3739,-0.4972,0.0068,
12.248359,0.3141,-0.7500,-0.3429,-1.1162,1.0465,0.6279,0.3739,-0.4972,0.0068,
12.250727,0.3627,-0.7737,-0.3910,-1.1162,1.0465,0.6279,0.3739,-0.4972,0.0068,
12.251992,0.3828,-0.7972,-0.4235,-1.1162,1.0465,0.6279,0.3739,-0.4972,0.0068,
12.257012,0.3828,-0.7972,-0.4235,-1.1162,1.0465,0.6279,0.5007,-0.4535,-0.0252,
12.259573,0.3828,-0.7972,-0.4235,-0.0413,1.4468,0.7501,0.5007,-0.4535,-0.0252,
12.295698,0.3828,-0.7972,-0.4235,-0.0413,1.4468,0.7501,0.5102,-0.4045,-0.1722,
12.297519,0.3828,-0.7972,-0.4235,1.2210,0.7500,-0.7008,0.5102,-0.4045,-0.1722,
12.335531,0.3828,-0.7972,-0.4235,1.2210,0.7500,-0.7008,0.2631,-0.3672,-0.2137,
12.338307,0.3828,-0.7972,-0.4235,1.1782,0.7528,-0.7430,0.2631,-0.3672,-0.2137,
12.340293,0.3750,-0.8529,-0.4758,1.1782,0.7528,-0.7430,0.2631,-0.3672,-0.2137,
12.341442,0.3219,-0.8998,-0.5315,1.1782,0.7528,-0.7430,0.2631,-0.3672,-0.2137,
12.342933,0.2750,-0.9039,-0.5894,1.1782,0.7528,-0.7430,0.2631,-0.3672,-0.2137,
12.344062,0.3119,-0.9110,-0.6062,1.1782,0.7528,-0.7430,0.2631,-0.3672,-0.2137,
12.345301,0.3537,-0.9179,-0.5439,1.1782,0.7528,-0.7430,0.2631,-0.3672,-0.2137,
12.375230,0.3537,-0.9179,-0.5439,0.4684,-0.2141,-2.0923,0.2631,-0.3672,-0.2137,
12.377916,0.3537,-0.9179,-0.5439,0.4684,-0.2141,-2.0923,0.0170,-0.4876,-0.2276,
12.415886,0.3537,-0.9179,-0.5439,0.4684,-0.2141,-2.0923,0.2173,-0.4940,-0.2106,
12.418484,0.3537,-0.9179,-0.5439,0.6720,0.3843,-1.1345,0.2173,-0.4940,-0.2106,
12.420040,0.3368,-0.8536,-0.4589,0.6720,0.3843,-1.1345,0.2173,-0.4940,-0.2106,
12.421593,0.2850,-0.7610,-0.4291,0.6720,0.3843,-1.1345,0.2173,-0.4940,-0.2106,
12.423076,0.2692,-0.7517,-0.4020,0.6720,0.3843,-1.1345,0.2173,-0.4940,-0.2106,
12.424216,0.2982,-0.8416,-0.4159,0.6720,0.3843,-1.1345,0.2173,-0.4940,-0.2106,
12.454518,0.2982,-0.8416,-0.4159,0.6720,0.3843,-1.1345,0.5571,-0.4557,-0.2425,
12.457232,0.2982,-0.8416,-0.4159,0.6405,0.4294,-1.2593,0.5571,-0.4557,-0.2425,
12.494505,0.2982,-0.8416,-0.4159,0.6405,0.4294,-1.2593,1.1228,0.4093,-0.7581,
12.496605,0.2982,-0.8416,-0.4159,0.6016,0.6909,-1.0075,1.1228,0.4093,-0.7581,
12.497976,0.4954,-0.8744,-0.4095,0.6016,0.6909,-1.0075,1.1228,0.4093,-0.7581,
12.499188,0.6960,-0.9125,-0.0614,0.6016,0.6909,-1.0075,1.1228,0.4093,-0.7581,
12.500629,0.6034,-1.2333,-0.0111,0.6016,0.6909,-1.0075,1.1228,0.4093,-0.7581,
12.501743,0.2560,-1.7221,-0.4670,0.6016,0.6909,-1.0075,1.1228,0.4093,-0.7581,
12.534023,0.2560,-1.7221,-0.4670,0.6016,0.6909,-1.0075,1.0482,1.0538,-0.7027,
12.537267,0.2560,-1.7221,-0.4670,1.8212,-3.7885,0.7354,1.0482,1.0538,-0.7027,
12.575243,0.2560,-1.7221,-0.4670,1.8212,-3.7885,0.7354,0.0937,0.2069,0.4723,
12.577991,0.2560,-1.7221,-0.4670,-7.1639,-0.9415,-2.8560,0.0937,0.2069,0.4723,
12.579450,-0.0846,-1.4094,-0.5085,-7.1639,-0.9415,-2.8560,0.0937,0.2069,0.4723,
12.580721,-0.6248,-0.7820,-0.5852,-7.1639,-0.9415,-2.8560,0.0937,0.2069,0.4723,
12.582004,-0.5678,-0.8309,-0.5417,-7.1639,-0.9415,-2.8560,0.0937,0.2069,0.4723,
12.583449,-0.0240,-0.9469,0.0559,-7.1639,-0.9415,-2.8560,0.0937,0.2069,0.4723,
12.612725,-0.0240,-0.9469,0.0559,-7.1639,-0.9415,-2.8560,0.0405,0.0578,1.3128,
12.615112,-0.0240,-0.9469,0.0559,-6.5891,-0.7805,-2.8290,0.0405,0.0578,1.3128,
12.648656,0.3798,-1.0100,0.2770,-6.5891,-0.7805,-2.8290,0.0405,0.0578,1.3128,
12.651368,0.5579,-0.9758,0.2535,-6.5891,-0.7805,-2.8290,0.0405,0.0578,1.3128,
12.653085,0.4939,-0.8583,0.1023,-6.5891,-0.7805,-2.8290,0.0405,0.0578,1.3128,
12.654259,0.4939,-0.8583,0.1023,-6.5891,-0.7805,-2.8290,0.7851,0.7428,0.5948,
12.655405,0.4939,-0.8583,0.1023,0.7028,-0.3539,4.0074,0.7851,0.7428,0.5948,
12.692184,0.4939,-0.8583,0.1023,0.7028,-0.3539,4.0074,0.9427,0.8812,-0.0220,
12.694560,0.4939,-0.8583,0.1023,0.8336,0.6222,0.5000,0.9427,0.8812,-0.0220,
12.723306,0.3202,-0.8426,-0.1489,0.8336,0.6222,0.5000,0.9427,0.8812,-0.0220,
12.725719,0.1666,-0.9506,-0.3077,0.8336,0.6222,0.5000,0.9427,0.8812,-0.0220,
12.727153,0.0935,-0.9882,-0.2784,0.8336,0.6222,0.5000,0.9427,0.8812,-0.0220,
12.728407,0.0955,-0.9684,-0.1655,0.8336,0.6222,0.5000,0.9427,0.8812,-0.0220,
12.731790,0.0955,-0.9684,-0.1655,0.8336,0.6222,0.5000,0.4410,0.8056,0.0590,
12.733332,0.0955,-0.9684,-0.1655,0.7932,0.6438,0.2571,0.4410,0.8056,0.0590,
12.771908,0.0955,-0.9684,-0.1655,0.7932,0.6438,0.2571,0.1928,0.6703,0.3253,
12.774139,0.0955,-0.9684,-0.1655,-1.1835,-0.2629,-0.4616,0.1928,0.6703,0.3253,
12.798341,0.1546,-0.9863,-0.0917,-1.1835,-0.2629,-0.4616,0.1928,0.6703,0.3253,
12.800813,0.2675,-1.0302,-0.1147,-1.1835,-0.2629,-0.4616,0.1928,0.6703,0.3253,
12.802117,0.3498,-0.9855,-0.0851,-1.1835,-0.2629,-0.4616,0.1928,0.6703,0.3253,
12.803115,0.3708,-0.9247,0.0021,-1.1835,-0.2629,-0.4616,0.1928,0.6703,0.3253,
12.811515,0.3708,-0.9247,0.0021,-1.1835,-0.2629,-0.4616,0.2056,0.4104,0.3359,
12.813229,0.3708,-0.9247,0.0021,1.0094,-0.2113,0.5201,0.2056,0.4104,0.3359,
12.851236,0.3708,-0.9247,0.0021,1.0094,-0.2113,0.5201,0.4559,0.2677,0.2145,
12.853975,0.3708,-0.9247,0.0021,1.1314,0.1661,0.9837,0.4559,0.2677,0.2145,
12.883158,0.3527,-0.9210,0.0585,1.1314,0.1661,0.9837,0.4559,0.2677,0.2145,
12.885514,0.3383,-0.9504,0.0180,1.1314,0.1661,0.9837,0.4559,0.2677,0.2145,
12.887167,0.3192,-0.9643,-0.0680,1.1314,0.1661,0.9837,0.4559,0.2677,0.2145,
12.888715,0.2792,-0.9587,-0.1147,1.1314,0.1661,0.9837,0.4559,0.2677,0.2145,
12.890133,0.2792,-0.9587,-0.1147,1.1314,0.1661,0.9837,0.5923,0.0940,0.1783,
12.891155,0.2792,-0.9587,-0.1147,1.1749,0.1975,0.7415,0.5923,0.0940,0.1783,
12.930746,0.2792,-0.9587,-0.1147,1.1749,0.1975,0.7415,0.4048,0.1132,0.1602,
12.933304,0.2792,-0.9587,-0.1147,0.3421,0.1985,-0.6804,0.4048,0.1132,0.1602,
12.969814,0.2792,-0.9587,-0.1147,0.3421,0.1985,-0.6804,0.3323,0.0951,0.1879,
12.971921,0.2792,-0.9587,-0.1147,0.4041,0.2165,-0.7995,0.3323,0.0951,0.1879,
12.973262,0.2398,-0.9452,-0.1367,0.4041,0.2165,-0.7995,0.3323,0.0951,0.1879,
12.974389,0.2206,-0.9377,-0.1296,0.4041,0.2165,-0.7995,0.3323,0.0951,0.1879,
12.975393,0.2264,-0.9298,-0.0766,0.4041,0.2165,-0.7995,0.3323,0.0951,0.1879,
12.976588,0.2377,-0.9377,-0.0323,0.4041,0.2165,-0.7995,0.3323,0.0951,0.1879,
12.977540,0.2491,-0.9504,-0.0062,0.4041,0.2165,-0.7995,0.3323,0.0951,0.1879,
13.009494,0.2491,-0.9504,-0.0062,0.4041,0.2165,-0.7995,0.5007,0.1057,0.2209,
13.011589,0.2491,-0.9504,-0.0062,0.3930,0.3128,-0.1260,0.5007,0.1057,0.2209,
13.048891,0.2350,-0.9621,-0.0060,0.3930,0.3128,-0.1260,0.5007,0.1057,0.2209,
13.052443,0.1978,-0.9594,-0.0573,0.3930,0.3128,-0.1260,0.5007,0.1057,0.2209,
13.053835,0.1910,-0.9499,-0.0932,0.3930,0.3128,-0.1260,0.5007,0.1057,0.2209,
13.054847,0.1910,-0.9499,-0.0932,0.3930,0.3128,-0.1260,0.5944,0.2027,0.2912,
13.055635,0.1910,-0.9499,-0.0932,0.2064,0.1601,-0.4922,0.5944,0.2027,0.2912,
13.089825,0.1910,-0.9499,-0.0932,0.2064,0.1601,-0.4922,0.5177,0.0961,0.4286,
13.092193,0.1910,-0.9499,-0.0932,0.8038,0.4149,-1.2067,0.5177,0.0961,0.4286,
13.128798,0.1910,-0.9499,-0.0932,0.8038,0.4149,-1.2067,0.4399,0.1004,0.4265,
13.131061,0.1910,-0.9499,-0.0932,0.9505,0.4303,-1.3570,0.4399,0.1004,0.4265,
13.132132,0.2276,-0.9359,-0.1220,0.9505,0.4303,-1.3570,0.4399,0.1004,0.4265,
13.133752,0.2635,-0.9335,-0.1176,0.9505,0.4303,-1.3570,0.4399,0.1004,0.4265,
13.134557,0.2699,-0.9303,-0.0797,0.9505,0.4303,-1.3570,0.4399,0.1004,0.4265,
13.135375,0.2782,-0.9242,-0.0465,0.9505,0.4303,-1.3570,0.4399,0.1004,0.4265,
13.136298,0.2648,-0.9284,-0.0299,0.9505,0.4303,-1.3570,0.4399,0.1004,0.4265,
13.167942,0.2648,-0.9284,-0.0299,0.9505,0.4303,-1.3570,0.4698,0.1089,0.3445,
13.170404,0.2648,-0.9284,-0.0299,1.0650,0.4354,-1.5160,0.4698,0.1089,0.3445,
13.207581,0.2648,-0.9284,-0.0299,1.0650,0.4354,-1.5160,0.3600,0.1420,0.3721,
13.210089,0.2648,-0.9284,-0.0299,1.1555,0.4825,-1.0362,0.3600,0.1420,0.3721,
13.211445,0.2076,-0.9340,-0.0573,1.1555,0.4825,-1.0362,0.3600,0.1420,0.3721,
13.212380,0.1739,-0.9379,-0.0983,1.1555,0.4825,-1.0362,0.3600,0.1420,0.3721,
13.213718,0.2149,-0.9262,-0.0849,1.1555,0.4825,-1.0362,0.3600,0.1420,0.3721,
13.214805,0.2904,-0.9088,-0.0267,1.1555,0.4825,-1.0362,0.3600,0.1420,0.3721,
13.246644,0.2904,-0.9088,-0.0267,1.1555,0.4825,-1.0362,0.1938,0.1420,0.4265,
13.248378,0.2904,-0.9088,-0.0267,1.0700,0.5337,-1.3429,0.1938,0.1420,0.4265,
13.286578,0.2904,-0.9088,-0.0267,1.0700,0.5337,-1.3429,0.1140,-0.2096,0.0856,
13.288555,0.2904,-0.9088,-0.0267,2.8961,-0.2168,0.3144,0.1140,-0.2096,0.0856,
13.289517,0.3666,-0.9245,0.0224,2.8961,-0.2168,0.3144,0.1140,-0.2096,0.0856,
13.290259,0.4441,-0.9741,0.0940,2.8961,-0.2168,0.3144,0.1140,-0.2096,0.0856,
13.290984,0.4343,-1.1055,0.1932,2.8961,-0.2168,0.3144,0.1140,-0.2096,0.0856,
13.291692,0.3014,-1.3444,0.1958,2.8961,-0.2168,0.3144,0.1140,-0.2096,0.0856,
13.325368,0.3014,-1.3444,0.1958,2.8961,-0.2168,0.3144,0.0884,-0.2479,-0.4268,
13.327257,0.3014,-1.3444,0.1958,2.6817,-0.2365,0.2881,0.0884,-0.2479,-0.4268,
13.365722,0.0923,-1.4109,-0.0113,2.6817,-0.2365,0.2881,0.0884,-0.2479,-0.4268,
13.367612,-0.0062,-1.2372,-0.2915,2.6817,-0.2365,0.2881,0.0884,-0.2479,-0.4268,
13.368503,0.1004,-1.1314,-0.2991,2.6817,-0.2365,0.2881,0.0884,-0.2479,-0.4268,
13.369404,0.1004,-1.1314,-0.2991,2.6817,-0.2365,0.2881,-0.6477,-0.2799,-0.1722,
13.370245,0.1004,-1.1314,-0.2991,-0.1885,-3.4024,-0.7972,-0.6477,-0.2799,-0.1722,
13.405611,0.1004,-1.1314,-0.2991,-0.1885,-3.4024,-0.7972,-1.6150,-0.6581,0.0547,
13.408318,0.1004,-1.1314,-0.2991,0.5399,-0.6354,-1.8482,-1.6150,-0.6581,0.0547,
13.446140,0.1004,-1.1314,-0.2991,0.5399,-0.6354,-1.8482,-2.1135,-0.4812,-0.2702,
13.448691,0.1004,-1.1314,-0.2991,0.4412,-0.6947,-0.9967,-2.1135,-0.4812,-0.2702,
13.450097,0.2335,-1.0564,-0.2058,0.4412,-0.6947,-0.9967,-2.1135,-0.4812,-0.2702,
13.451364,0.2741,-0.9643,-0.1340,0.4412,-0.6947,-0.9967,-2.1135,-0.4812,-0.2702,
13.452359,0.1754,-0.9267,-0.0917,0.4412,-0.6947,-0.9967,-2.1135,-0.4812,-0.2702,
13.453507,0.0161,-0.9296,-0.1086,0.4412,-0.6947,-0.9967,-2.1135,-0.4812,-0.2702,
13.454891,-0.0755,-0.9660,-0.1203,0.4412,-0.6947,-0.9967,-2.1135,-0.4812,-0.2702,
13.484890,-0.0755,-0.9660,-0.1203,0.4412,-0.6947,-0.9967,-2.4320,-0.2330,-0.2564,
13.486844,-0.0755,-0.9660,-0.1203,-1.2286,0.2126,0.9599,-2.4320,-0.2330,-0.2564,
13.524978,-0.0755,-0.9660,-0.1203,-1.2286,0.2126,0.9599,-1.9548,-0.5015,-0.0252,
13.527719,-0.0755,-0.9660,-0.1203,-1.2139,-1.8528,3.0174,-1.9548,-0.5015,-0.0252,
13.529060,-0.0768,-1.0588,-0.0321,-1.2139,-1.8528,3.0174,-1.9548,-0.5015,-0.0252,
13.530291,0.0351,-1.1693,0.0532,-1.2139,-1.8528,3.0174,-1.9548,-0.5015,-0.0252,
13.531270,0.1438,-1.1790,0.0727,-1.2139,-1.8528,3.0174,-1.9548,-0.5015,-0.0252,
13.532237,0.2655,-1.0779,-0.0169,-1.2139,-1.8528,3.0174,-1.9548,-0.5015,-0.0252,
13.563881,0.2655,-1.0779,-0.0169,-1.2139,-1.8528,3.0174,-1.1196,-0.5430,-0.2500,
13.566455,0.2655,-1.0779,-0.0169,-1.2205,-1.9648,3.4016,-1.1196,-0.5430,-0.2500,
13.605634,0.2655,-1.0779,-0.0169,-1.2205,-1.9648,3.4016,-0.6967,-0.2927,-0.6601,
13.608283,0.2655,-1.0779,-0.0169,1.2545,-0.6105,2.4226,-0.6967,-0.2927,-0.6601,
13.609753,0.3371,-0.9726,-0.1117,1.2545,-0.6105,2.4226,-0.6967,-0.2927,-0.6601,
13.610757,0.3251,-0.9047,-0.1474,1.2545,-0.6105,2.4226,-0.6967,-0.2927,-0.6601,
13.611866,0.2413,-0.8993,-0.2038,1.2545,-0.6105,2.4226,-0.6967,-0.2927,-0.6601,
13.613107,0.1683,-0.9311,-0.2947,1.2545,-0.6105,2.4226,-0.6967,-0.2927,-0.6601,
13.643164,0.1683,-0.9311,-0.2947,1.0350,-0.6996,2.5351,-0.6967,-0.2927,-0.6601,
13.645843,0.1683,-0.9311,-0.2947,1.0350,-0.6996,2.5351,-0.3367,-0.4748,-0.7475,
13.683053,0.1683,-0.9311,-0.2947,1.0350,-0.6996,2.5351,-0.1598,-0.7369,-0.5663,
13.685387,0.1683,-0.9311,-0.2947,-0.4432,-0.1773,0.8519,-0.1598,-0.7369,-0.5663,
13.686519,0.0933,-0.9450,-0.3240,-0.4432,-0.1773,0.8519,-0.1598,-0.7369,-0.5663,
13.687885,0.0686,-0.9267,-0.2696,-0.4432,-0.1773,0.8519,-0.1598,-0.7369,-0.5663,
13.688997,0.1160,-0.8788,-0.2107,-0.4432,-0.1773,0.8519,-0.1598,-0.7369,-0.5663,
13.690244,0.1218,-0.8294,-0.2297,-0.4432,-0.1773,0.8519,-0.1598,-0.7369,-0.5663,
13.722857,0.1218,-0.8294,-0.2297,-0.4432,-0.1773,0.8519,-0.0235,-0.5015,-0.4098,
13.724548,0.1218,-0.8294,-0.2297,-1.1386,0.2398,1.2491,-0.0235,-0.5015,-0.4098,
13.761836,0.1218,-0.8294,-0.2297,-1.1386,0.2398,1.2491,0.0948,-0.5217,-0.2297,
13.764534,0.0698,-0.8140,-0.2620,-1.1386,0.2398,1.2491,0.0948,-0.5217,-0.2297,
13.765892,0.0295,-0.8067,-0.2630,-1.1386,0.2398,1.2491,0.0948,-0.5217,-0.2297,
13.767295,0.0246,-0.8116,-0.2766,-1.1386,0.2398,1.2491,0.0948,-0.5217,-0.2297,
13.768411,0.0598,-0.8404,-0.3221,-1.1386,0.2398,1.2491,0.0948,-0.5217,-0.2297,
13.769592,0.0598,-0.8404,-0.3221,-1.7123,0.8803,0.9450,0.0948,-0.5217,-0.2297,
13.800990,0.0598,-0.8404,-0.3221,-1.7123,0.8803,0.9450,0.2077,-0.4770,-0.0071,
13.803122,0.0598,-0.8404,-0.3221,-1.6202,0.8937,0.8966,0.2077,-0.4770,-0.0071,
13.841505,0.0598,-0.8404,-0.3221,-1.6202,0.8937,0.8966,0.2684,-0.2724,0.0600,
13.844182,0.0598,-0.8404,-0.3221,-0.4438,0.5542,-0.0193,0.2684,-0.2724,0.0600,
13.845366,0.1780,-0.8475,-0.3680,-0.4438,0.5542,-0.0193,0.2684,-0.2724,0.0600,
13.846889,0.2259,-0.8583,-0.3697,-0.4438,0.5542,-0.0193,0.2684,-0.2724,0.0600,
13.847858,0.2352,-0.8556,-0.3773,-0.4438,0.5542,-0.0193,0.2684,-0.2724,0.0600,
13.849101,0.2582,-0.8289,-0.3863,-0.4438,0.5542,-0.0193,0.2684,-0.2724,0.0600,
13.881356,0.2582,-0.8289,-0.3863,-0.4044,0.5930,-0.1267,0.2684,-0.2724,0.0600,
13.883962,0.2582,-0.8289,-0.3863,-0.4044,0.5930,-0.1267,0.3441,-0.1521,0.0345,
13.920922,0.2582,-0.8289,-0.3863,-0.4044,0.5930,-0.1267,0.4378,-0.1734,-0.0007,
13.924729,0.2582,-0.8289,-0.3863,0.5863,0.7816,-0.5365,0.4378,-0.1734,-0.0007,
13.926289,0.2699,-0.8172,-0.3810,0.5863,0.7816,-0.5365,0.4378,-0.1734,-0.0007,
13.927498,0.2557,-0.8441,-0.3978,0.5863,0.7816,-0.5365,0.4378,-0.1734,-0.0007,
13.928678,0.2435,-0.8648,-0.4271,0.5863,0.7816,-0.5365,0.4378,-0.1734,-0.0007,
13.930107,0.2528,-0.8773,-0.4652,0.5863,0.7816,-0.5365,0.4378,-0.1734,-0.0007,
13.960027,0.2528,-0.8773,-0.4652,0.5863,0.7816,-0.5365,0.3526,-0.1947,-0.0327,
13.961866,0.2528,-0.8773,-0.4652,0.5528,0.5378,-1.1042,0.3526,-0.1947,-0.0327,
14.000198,0.2528,-0.8773,-0.4652,0.5528,0.5378,-1.1042,0.1811,-0.2149,-0.0710,
14.003665,0.2528,-0.8773,-0.4652,0.5249,0.2691,-2.0075,0.1811,-0.2149,-0.0710,
14.005181,0.2513,-0.9037,-0.5017,0.5249,0.2691,-2.0075,0.1811,-0.2149,-0.0710,
14.006661,0.2396,-0.8995,-0.5239,0.5249,0.2691,-2.0075,0.1811,-0.2149,-0.0710,
14.007808,0.2550,-0.8690,-0.5368,0.5249,0.2691,-2.0075,0.1811,-0.2149,-0.0710,
14.008937,0.2758,-0.8348,-0.5139,0.5249,0.2691,-2.0075,0.1811,-0.2149,-0.0710,
14.039957,0.2758,-0.8348,-0.5139,0.5249,0.2691,-2.0075,0.1768,-0.2000,-0.0902,
14.042470,0.2758,-0.8348,-0.5139,0.5085,0.2791,-2.0212,0.1768,-0.2000,-0.0902,
14.079309,0.2684,-0.7930,-0.4088,0.5085,0.2791,-2.0212,0.1768,-0.2000,-0.0902,
14.081813,0.2159,-0.7715,-0.3536,0.5085,0.2791,-2.0212,0.1768,-0.2000,-0.0902,
14.083337,0.1795,-0.7974,-0.3702,0.5085,0.2791,-2.0212,0.1768,-0.2000,-0.0902,
14.084345,0.1795,-0.7974,-0.3702,0.5085,0.2791,-2.0212,0.4399,-0.1467,-0.0518,
14.085497,0.1795,-0.7974,-0.3702,0.5446,1.1987,-1.2123,0.4399,-0.1467,-0.0518,
14.118738,0.1795,-0.7974,-0.3702,0.5446,1.1987,-1.2123,0.8266,0.2591,-0.1786,
14.121318,0.1795,-0.7974,-0.3702,0.0927,-1.2796,-0.9169,0.8266,0.2591,-0.1786,
14.158171,0.1795,-0.7974,-0.3702,0.0927,-1.2796,-0.9169,0.4804,1.2616,-0.7166,
14.161776,0.1795,-0.7974,-0.3702,-0.2862,-1.2731,-1.1820,0.4804,1.2616,-0.7166,
14.163494,0.1761,-0.9572,-0.3013,-0.2862,-1.2731,-1.1820,0.4804,1.2616,-0.7166,
14.164604,0.2951,-1.4338,-0.4218,-0.2862,-1.2731,-1.1820,0.4804,1.2616,-0.7166,
14.165732,0.5247,-1.8216,-0.4550,-0.2862,-1.2731,-1.1820,0.4804,1.2616,-0.7166,
14.167102,0.3456,-1.2799,-0.2368,-0.2862,-1.2731,-1.1820,0.4804,1.2616,-0.7166,
14.168238,-0.1879,-0.5370,-0.1093,-0.2862,-1.2731,-1.1820,0.4804,1.2616,-0.7166,
14.198380,-0.1879,-0.5370,-0.1093,-0.2862,-1.2731,-1.1820,0.2439,1.1145,-0.2244,
14.200711,-0.1879,-0.5370,-0.1093,-0.3587,-2.6974,-0.4200,0.2439,1.1145,-0.2244,
14.231216,-0.7054,-0.6306,-0.4975,-0.3587,-2.6974,-0.4200,0.2439,1.1145,-0.2244,
14.234047,-0.3098,-0.9640,-0.2102,-0.3587,-2.6974,-0.4200,0.2439,1.1145,-0.2244,
14.235033,0.1934,-1.1744,0.2237,-0.3587,-2.6974,-0.4200,0.2439,1.1145,-0.2244,
14.237269,0.1934,-1.1744,0.2237,-0.3587,-2.6974,-0.4200,0.2045,0.2037,1.0145,
14.238653,0.1934,-1.1744,0.2237,-4.8363,0.2533,0.5115,0.2045,0.2037,1.0145,
14.277628,0.1934,-1.1744,0.2237,-4.8363,0.2533,0.5115,0.5497,0.7822,0.6917,
14.279974,0.1934,-1.1744,0.2237,2.7452,-0.0618,2.5424,0.5497,0.7822,0.6917,
14.319185,0.1934,-1.1744,0.2237,2.7452,-0.0618,2.5424,0.7680,0.8898,0.0121,
14.321841,0.4861,-1.1544,0.2076,2.7452,-0.0618,2.5424,0.7680,0.8898,0.0121,
14.323320,0.5702,-0.9367,0.0849,2.7452,-0.0618,2.5424,0.7680,0.8898,0.0121,
14.324330,0.3972,-0.8050,-0.0599,2.7452,-0.0618,2.5424,0.7680,0.8898,0.0121,
14.325443,0.1595,-0.8778,-0.1960,2.7452,-0.0618,2.5424,0.7680,0.8898,0.0121,
14.327002,0.0378,-0.9582,-0.2339,2.7452,-0.0618,2.5424,0.7680,0.8898,0.0121,
14.327941,0.0378,-0.9582,-0.2339,2.6480,-0.0120,2.1483,0.7680,0.8898,0.0121,
14.356600,0.0378,-0.9582,-0.2339,2.6480,-0.0120,2.1483,0.4911,0.3507,0.1218,
14.359357,0.0378,-0.9582,-0.2339,2.6311,0.0226,1.9028,0.4911,0.3507,0.1218,
14.396463,0.0378,-0.9582,-0.2339,2.6311,0.0226,1.9028,0.2844,0.2836,0.2550,
14.399184,0.0378,-0.9582,-0.2339,-1.0587,0.3412,-0.7197,0.2844,0.2836,0.2550,
14.400525,0.0955,-0.9709,-0.1042,-1.0587,0.3412,-0.7197,0.2844,0.2836,0.2550,
14.401962,0.2333,-0.9836,0.0031,-1.0587,0.3412,-0.7197,0.2844,0.2836,0.2550,
14.403100,0.3393,-0.9868,0.0195,-1.0587,0.3412,-0.7197,0.2844,0.2836,0.2550,
14.404085,0.3806,-0.9831,-0.0438,-1.0587,0.3412,-0.7197,0.2844,0.2836,0.2550,
14.435395,0.3806,-0.9831,-0.0438,-1.0587,0.3412,-0.7197,0.4559,0.4104,0.0323,
14.437539,0.3806,-0.9831,-0.0438,1.0774,-0.1164,0.7382,0.4559,0.4104,0.0323,
14.458180,0.3322,-0.9653,-0.0973,1.0774,-0.1164,0.7382,0.4559,0.4104,0.0323,
14.460755,0.2645,-0.9416,-0.0531,1.0774,-0.1164,0.7382,0.4559,0.4104,0.0323,
14.461904,0.2003,-0.9301,0.0028,1.0774,-0.1164,0.7382,0.4559,0.4104,0.0323,
14.475611,0.2003,-0.9301,0.0028,1.0774,-0.1164,0.7382,0.5198,0.2772,-0.0689,
14.477435,0.2003,-0.9301,0.0028,0.5248,0.2685,0.1049,0.5198,0.2772,-0.0689,
14.516566,0.2003,-0.9301,0.0028,0.5248,0.2685,0.1049,0.6200,0.1494,0.0803,
14.518945,0.2003,-0.9301,0.0028,-0.8185,0.0203,0.2983,0.6200,0.1494,0.0803,
14.538349,0.1341,-0.9472,0.0265,-0.8185,0.0203,0.2983,0.6200,0.1494,0.0803,
14.540861,0.1011,-0.9792,0.0070,-0.8185,0.0203,0.2983,0.6200,0.1494,0.0803,
14.541860,0.1380,-0.9919,-0.0448,-0.8185,0.0203,0.2983,0.6200,0.1494,0.0803,
14.543153,0.1697,-0.9904,-0.0941,-0.8185,0.0203,0.2983,0.6200,0.1494,0.0803,
14.555167,0.1697,-0.9904,-0.0941,-0.7165,0.0439,0.0385,0.6200,0.1494,0.0803,
14.557734,0.1697,-0.9904,-0.0941,-0.7165,0.0439,0.0385,0.6551,0.1388,0.2401,
14.594818,0.1697,-0.9904,-0.0941,-0.7165,0.0439,0.0385,0.4634,0.2634,0.2710,
14.597543,0.1697,-0.9904,-0.0941,-0.1306,0.2259,-0.9534,0.4634,0.2634,0.2710,
14.626531,0.1756,-0.9562,-0.1159,-0.1306,0.2259,-0.9534,0.4634,0.2634,0.2710,
14.629185,0.1749,-0.9208,-0.0499,-0.1306,0.2259,-0.9534,0.4634,0.2634,0.2710,
14.631656,0.1934,-0.9359,0.0138,-0.1306,0.2259,-0.9534,0.4634,0.2634,0.2710,
14.633013,0.2049,-0.9570,0.0024,-0.1306,0.2259,-0.9534,0.4634,0.2634,0.2710,
14.634504,0.2049,-0.9570,0.0024,-0.1306,0.2259,-0.9534,0.4729,0.1952,0.3263,
14.635760,0.2049,-0.9570,0.0024,-0.0048,0.2409,-1.1280,0.4729,0.1952,0.3263,
14.673684,0.2049,-0.9570,0.0024,-0.0048,0.2409,-1.1280,0.6125,0.0855,0.4137,
14.676198,0.2049,-0.9570,0.0024,0.4277,0.2818,-0.5915,0.6125,0.0855,0.4137,
14.684413,0.2078,-0.9657,-0.0419,0.4277,0.2818,-0.5915,0.6125,0.0855,0.4137,
14.685791,0.2166,-0.9570,-0.0595,0.4277,0.2818,-0.5915,0.6125,0.0855,0.4137,
14.687005,0.2235,-0.9401,-0.0538,0.4277,0.2818,-0.5915,0.6125,0.0855,0.4137,
14.713291,0.2235,-0.9401,-0.0538,0.4277,0.2818,-0.5915,0.6029,0.1217,0.4744,
14.715525,0.2235,-0.9401,-0.0538,0.6015,0.2894,-0.8147,0.6029,0.1217,0.4744,
14.752843,0.2235,-0.9401,-0.0538,0.6015,0.2894,-0.8147,0.5177,0.2932,0.4297,
14.755034,0.2530,-0.9689,-0.0397,0.6015,0.2894,-0.8147,0.5177,0.2932,0.4297,
14.756459,0.2657,-0.9968,-0.0165,0.6015,0.2894,-0.8147,0.5177,0.2932,0.4297,
14.757777,0.2482,-0.9848,-0.0003,0.6015,0.2894,-0.8147,0.5177,0.2932,0.4297,
14.758856,0.2289,-0.9462,-0.0084,0.6015,0.2894,-0.8147,0.5177,0.2932,0.4297,
14.759733,0.2289,-0.9462,-0.0084,1.0418,0.2658,-1.4190,0.5177,0.2932,0.4297,
14.793537,0.2289,-0.9462,-0.0084,1.0418,0.2658,-1.4190,0.5113,0.3571,0.4094,
14.796085,0.2289,-0.9462,-0.0084,1.3516,0.0605,-1.1924,0.5113,0.3571,0.4094,
14.832817,0.2289,-0.9462,-0.0084,1.3516,0.0605,-1.1924,0.5305,0.3412,0.5373,
14.835164,0.2289,-0.9462,-0.0084,1.7642,-0.0930,-1.8396,0.5305,0.3412,0.5373,
14.836754,0.2320,-0.9706,-0.0106,1.7642,-0.0930,-1.8396,0.5305,0.3412,0.5373,
14.837890,0.2594,-1.0100,-0.0270,1.7642,-0.0930,-1.8396,0.5305,0.3412,0.5373,
14.838824,0.3190,-0.9931,-0.1293,1.7642,-0.0930,-1.8396,0.5305,0.3412,0.5373,
14.839941,0.4060,-1.0043,-0.2476,1.7642,-0.0930,-1.8396,0.5305,0.3412,0.5373,
14.871559,0.4060,-1.0043,-0.2476,1.7642,-0.0930,-1.8396,0.1789,0.0738,0.4787,
14.874439,0.4060,-1.0043,-0.2476,1.9180,-0.0860,-1.8784,0.1789,0.0738,0.4787,
14.911906,0.5188,-1.0708,-0.2471,1.9180,-0.0860,-1.8784,0.1789,0.0738,0.4787,
14.915691,0.6131,-1.2064,-0.1029,1.9180,-0.0860,-1.8784,0.1789,0.0738,0.4787,
14.917099,0.5980,-1.4954,0.0488,1.9180,-0.0860,-1.8784,0.1789,0.0738,0.4787,
14.918228,0.5980,-1.4954,0.0488,1.9180,-0.0860,-1.8784,-0.5636,-0.5867,-0.1562,
14.919555,0.5980,-1.4954,0.0488,4.1365,-1.0514,-3.0016,-0.5636,-0.5867,-0.1562,
14.951367,0.5980,-1.4954,0.0488,4.1365,-1.0514,-3.0016,-1.3689,-0.4482,-0.9381,
14.954171,0.5980,-1.4954,0.0488,1.4389,-3.6859,-1.4328,-1.3689,-0.4482,-0.9381,
14.990310,0.5980,-1.4954,0.0488,1.4389,-3.6859,-1.4328,-2.7729,-0.3832,-0.6857,
14.993019,0.5980,-1.4954,0.0488,1.1551,-3.6694,-0.3372,-2.7729,-0.3832,-0.6857,
14.994384,0.3073,-1.4656,-0.0284,1.1551,-3.6694,-0.3372,-2.7729,-0.3832,-0.6857,
14.995518,-0.0712,-1.1468,-0.3113,1.1551,-3.6694,-0.3372,-2.7729,-0.3832,-0.6857,
14.996890,-0.2265,-0.9538,-0.4894,1.1551,-3.6694,-0.3372,-2.7729,-0.3832,-0.6857,
14.998162,-0.2563,-0.9140,-0.1445,1.1551,-3.6694,-0.3372,-2.7729,-0.3832,-0.6857,
14.999337,-0.2285,-1.1030,0.2476,1.1551,-3.6694,-0.3372,-2.7729,-0.3832,-0.6857,
15.030251,-0.2285,-1.1030,0.2476,1.1551,-3.6694,-0.3372,-2.9774,-0.2554,-0.3394,
15.033518,-0.2285,-1.1030,0.2476,-3.9455,-0.1162,0.5019,-2.9774,-0.2554,-0.3394,
15.069754,-0.2285,-1.1030,0.2476,-3.9455,-0.1162,0.5019,-2.2946,0.2250,-0.1147,
15.072082,-0.2285,-1.1030,0.2476,-3.3537,-3.4325,3.6036,-2.2946,0.2250,-0.1147,
15.073711,-0.2216,-1.3664,0.2520,-3.3537,-3.4325,3.6036,-2.2946,0.2250,-0.1147,
15.074944,-0.2395,-1.3877,0.0869,-3.3537,-3.4325,3.6036,-2.2946,0.2250,-0.1147,
15.076199,-0.0668,-1.1864,-0.0167,-3.3537,-3.4325,3.6036,-2.2946,0.2250,-0.1147,
15.077327,0.1421,-1.0407,-0.0785,-3.3537,-3.4325,3.6036,-2.2946,0.2250,-0.1147,
15.109215,0.1421,-1.0407,-0.0785,-3.3537,-3.4325,3.6036,-1.8333,-0.1723,-0.0572,
15.111890,0.1421,-1.0407,-0.0785,-3.2982,-3.5856,4.2212,-1.8333,-0.1723,-0.0572,
15.149606,0.1421,-1.0407,-0.0785,-3.2982,-3.5856,4.2212,-1.4019,-0.5601,-0.4630,
15.152255,0.1421,-1.0407,-0.0785,1.1125,-0.3835,2.3250,-1.4019,-0.5601,-0.4630,
15.153669,0.3207,-0.9633,-0.1332,1.1125,-0.3835,2.3250,-1.4019,-0.5601,-0.4630,
15.154916,0.3930,-0.8905,-0.2016,1.1125,-0.3835,2.3250,-1.4019,-0.5601,-0.4630,
15.156102,0.3835,-0.8820,-0.1897,1.1125,-0.3835,2.3250,-1.4019,-0.5601,-0.4630,
15.157212,0.2335,-0.9240,-0.2207,1.1125,-0.3835,2.3250,-1.4019,-0.5601,-0.4630,
15.189900,0.2335,-0.9240,-0.2207,1.1125,-0.3835,2.3250,-1.1196,-0.9574,-0.7751,
15.192276,0.2335,-0.9240,-0.2207,0.9702,-0.6001,2.7424,-1.1196,-0.9574,-0.7751,
15.228190,0.2335,-0.9240,-0.2207,0.9702,-0.6001,2.7424,-0.7883,-1.0863,-0.4023,
15.230717,0.2335,-0.9240,-0.2207,-0.1623,-0.2403,2.2904,-0.7883,-1.0863,-0.4023,
15.232073,-0.1222,-0.9301,-0.2373,-0.1623,-0.2403,2.2904,-0.7883,-1.0863,-0.4023,
15.233415,-0.1887,-0.9066,-0.1948,-0.1623,-0.2403,2.2904,-0.7883,-1.0863,-0.4023,
15.234297,0.0029,-0.8971,-0.1789,-0.1623,-0.2403,2.2904,-0.7883,-1.0863,-0.4023,
15.235672,0.1888,-0.8321,-0.1889,-0.1623,-0.2403,2.2904,-0.7883,-1.0863,-0.4023,
15.267531,0.1888,-0.8321,-0.1889,-0.1623,-0.2403,2.2904,-0.2972,-0.5920,-0.2383,
15.269995,0.1888,-0.8321,-0.1889,-1.7162,0.0172,2.6664,-0.2972,-0.5920,-0.2383,
15.307110,0.1888,-0.8321,-0.1889,-1.7162,0.0172,2.6664,0.1981,-0.5494,-0.3203,
15.309219,0.1888,-0.8321,-0.1889,-0.2761,1.5203,1.9473,0.1981,-0.5494,-0.3203,
15.310865,0.1929,-0.7618,-0.2104,-0.2761,1.5203,1.9473,0.1981,-0.5494,-0.3203,
15.312122,0.1292,-0.7183,-0.2576,-0.2761,1.5203,1.9473,0.1981,-0.5494,-0.3203,
