
time,gFx,gFy,gFz,ax,ay,az,wx,wy,wz,
0.051965,0.0657,0.2311,0.9884,0.0000,0.0000,0.0000,0.0000,0.0000,0.0000,
0.053091,0.0487,0.2631,0.9434,0.0000,0.0000,0.0000,0.0000,0.0000,0.0000,
0.053572,0.1046,0.3023,0.8914,0.0000,0.0000,0.0000,0.0000,0.0000,0.0000,
0.054130,0.1200,0.2919,0.8700,0.0000,0.0000,0.0000,0.0000,0.0000,0.0000,
0.054659,0.1200,0.2919,0.8700,0.0000,0.0000,0.0000,0.2077,0.1132,-0.6537,
0.083336,0.1200,0.2919,0.8700,0.0000,0.0000,0.0000,-0.0607,0.2762,-0.5482,
0.122815,0.0670,0.2314,0.8233,0.0000,0.0000,0.0000,-0.0607,0.2762,-0.5482,
0.123848,-0.0318,0.2532,0.8149,0.0000,0.0000,0.0000,-0.0607,0.2762,-0.5482,
0.124458,-0.0693,0.2394,0.7863,0.0000,0.0000,0.0000,-0.0607,0.2762,-0.5482,
0.124917,-0.1479,0.1379,0.7439,0.0000,0.0000,0.0000,-0.0607,0.2762,-0.5482,
0.125301,-0.1928,0.2585,0.8406,0.0000,0.0000,0.0000,-0.0607,0.2762,-0.5482,
0.125913,-0.1928,0.2585,0.8406,0.0000,0.0000,0.0000,-0.2237,0.2922,0.3125,
0.126412,-0.1928,0.2585,0.8406,0.0000,0.0000,-0.0000,-0.2237,0.2922,0.3125,
0.165028,-0.1928,0.2585,0.8406,0.0000,0.0000,-0.0000,-0.2237,0.2922,0.3125,
0.166266,-0.1928,0.2585,0.8406,0.0000,0.0000,-0.0000,0.0500,0.4093,1.1146,
0.201848,-0.1358,0.2444,0.9277,0.0000,0.0000,-0.0000,0.0500,0.4093,1.1146,
0.203904,0.0301,0.3643,0.8122,0.0000,0.0000,-0.0000,0.0500,0.4093,1.1146,
0.205019,0.0269,0.4342,0.8516,0.0000,0.0000,-0.0000,0.0500,0.4093,1.1146,
0.206289,0.0217,0.4713,0.9687,0.0000,0.0000,-0.0000,0.0500,0.4093,1.1146,
0.207494,0.0217,0.4713,0.9687,0.0000,0.0000,-0.0000,0.0085,0.1100,0.5447,
0.208602,0.0217,0.4713,0.9687,-0.0865,0.3764,0.3864,0.0085,0.1100,0.5447,
0.243377,0.0217,0.4713,0.9687,-0.0865,0.3764,0.3864,-0.1108,0.0621,-0.2734,
0.244908,0.0217,0.4713,0.9687,-0.0202,0.2108,0.1890,-0.1108,0.0621,-0.2734,
0.278681,0.0853,0.4724,0.9934,-0.0202,0.2108,0.1890,-0.1108,0.0621,-0.2734,
0.280751,-0.0180,0.4379,0.9556,-0.0202,0.2108,0.1890,-0.1108,0.0621,-0.2734,
0.282201,-0.0874,0.3820,0.9560,-0.0202,0.2108,0.1890,-0.1108,0.0621,-0.2734,
0.283645,-0.0592,0.3949,0.9968,-0.0202,0.2108,0.1890,-0.1108,0.0621,-0.2734,
0.284641,-0.0592,0.3949,0.9968,-0.0202,0.2108,0.1890,-0.2429,0.2016,-0.4747,
0.285954,-0.0592,0.3949,0.9968,0.3986,1.0836,0.9328,-0.2429,0.2016,-0.4747,
0.321382,-0.0592,0.3949,0.9968,0.3986,1.0836,0.9328,-0.1108,0.1143,-0.4779,
0.322514,-0.0592,0.3949,0.9968,0.3686,0.8550,0.6935,-0.1108,0.1143,-0.4779,
0.360903,-0.0282,0.4101,1.0527,0.3686,0.8550,0.6935,-0.1108,0.1143,-0.4779,
0.363437,-0.0268,0.3904,1.0519,0.3686,0.8550,0.6935,-0.1108,0.1143,-0.4779,
0.365105,0.0250,0.3277,0.9267,0.3686,0.8550,0.6935,-0.1108,0.1143,-0.4779,
0.366733,-0.0628,0.3428,1.0084,0.3686,0.8550,0.6935,-0.1108,0.1143,-0.4779,
0.367947,-0.0628,0.3428,1.0084,0.3686,0.8550,0.6935,-0.1321,-0.1041,-0.6644,
0.369605,-0.0628,0.3428,1.0084,0.6824,0.5143,0.8599,-0.1321,-0.1041,-0.6644,
0.402733,-0.0628,0.3428,1.0084,0.6824,0.5143,0.8599,-0.1172,0.2953,-0.4204,
0.404529,-0.0628,0.3428,1.0084,0.6725,0.4562,0.6844,-0.1172,0.2953,-0.4204,
0.432556,-0.1673,0.3683,1.1489,0.6725,0.4562,0.6844,-0.1172,0.2953,-0.4204,
0.434986,-0.1104,0.3175,1.1558,0.6725,0.4562,0.6844,-0.1172,0.2953,-0.4204,
0.436377,-0.0318,0.2707,1.1494,0.6725,0.4562,0.6844,-0.1172,0.2953,-0.4204,
0.437627,-0.0819,0.2853,1.2216,0.6725,0.4562,0.6844,-0.1172,0.2953,-0.4204,
0.442802,-0.0819,0.2853,1.2216,0.6725,0.4562,0.6844,0.1576,0.3497,-0.1956,
0.444710,-0.0819,0.2853,1.2216,-0.1576,0.0663,1.3642,0.1576,0.3497,-0.1956,
0.480898,-0.0819,0.2853,1.2216,-0.1576,0.0663,1.3642,0.3238,-0.1073,-0.2489,
0.482536,-0.0819,0.2853,1.2216,-0.1372,-0.0377,1.1692,0.3238,-0.1073,-0.2489,
0.510398,-0.0680,0.2597,1.2036,-0.1372,-0.0377,1.1692,0.3238,-0.1073,-0.2489,
0.512607,-0.1261,0.2412,1.1561,-0.1372,-0.0377,1.1692,0.3238,-0.1073,-0.2489,
0.513969,-0.1659,0.2519,1.0955,-0.1372,-0.0377,1.1692,0.3238,-0.1073,-0.2489,
0.516212,-0.1300,0.2811,1.0786,-0.1372,-0.0377,1.1692,0.3238,-0.1073,-0.2489,
0.520424,-0.1300,0.2811,1.0786,-0.1372,-0.0377,1.1692,0.1001,0.2165,-0.0177,
0.521883,-0.1300,0.2811,1.0786,-0.2789,-0.7928,1.0915,0.1001,0.2165,-0.0177,
0.561546,-0.1408,0.2937,1.1099,-0.2789,-0.7928,1.0915,0.1001,0.2165,-0.0177,
0.564261,-0.1774,0.2773,1.0813,-0.2789,-0.7928,1.0915,0.1001,0.2165,-0.0177,
0.567041,-0.2524,0.2322,1.0160,-0.2789,-0.7928,1.0915,0.1001,0.2165,-0.0177,
0.568514,-0.2524,0.2322,1.0160,-0.2789,-0.7928,1.0915,-0.2323,0.1356,0.2262,
0.569854,-0.2524,0.2322,1.0160,-0.6586,-0.5494,0.5915,-0.2323,0.1356,0.2262,
0.599908,-0.2524,0.2322,1.0160,-0.6586,-0.5494,0.5915,-0.0863,-0.1489,0.2464,
0.601285,-0.2524,0.2322,1.0160,-0.6647,-0.4685,0.5101,-0.0863,-0.1489,0.2464,
0.638605,-0.3291,0.2092,1.0110,-0.6647,-0.4685,0.5101,-0.0863,-0.1489,0.2464,
0.640815,-0.2561,0.1912,1.0001,-0.6647,-0.4685,0.5101,-0.0863,-0.1489,0.2464,
0.642109,-0.1793,0.1609,0.9275,-0.6647,-0.4685,0.5101,-0.0863,-0.1489,0.2464,
0.643468,-0.1793,0.1609,0.9275,-0.6647,-0.4685,0.5101,0.3728,-0.7848,0.2390,
0.644737,-0.1793,0.1609,0.9275,-1.4733,-1.2739,-0.3172,0.3728,-0.7848,0.2390,
0.681906,-0.1793,0.1609,0.9275,-1.6721,-1.3294,-0.2553,0.3728,-0.7848,0.2390,
0.683986,-0.1793,0.1609,0.9275,-1.6721,-1.3294,-0.2553,0.5038,-0.9286,0.1559,
0.717716,-0.1935,0.1521,0.9383,-1.6721,-1.3294,-0.2553,0.5038,-0.9286,0.1559,
0.719692,-0.1529,0.1471,1.0463,-1.6721,-1.3294,-0.2553,0.5038,-0.9286,0.1559,
0.720975,-0.1273,0.1736,1.1342,-1.6721,-1.3294,-0.2553,0.5038,-0.9286,0.1559,
0.722187,-0.1090,0.2217,1.0137,-1.6721,-1.3294,-0.2553,0.5038,-0.9286,0.1559,
0.723313,-0.1090,0.2217,1.0137,-1.6721,-1.3294,-0.2553,1.0226,-0.1105,0.3647,
0.724458,-0.1090,0.2217,1.0137,-0.7404,-1.8422,0.4238,1.0226,-0.1105,0.3647,
0.759613,-0.1090,0.2217,1.0137,-0.7404,-1.8422,0.4238,1.3816,0.1366,0.8441,
0.761321,-0.1090,0.2217,1.0137,-0.7375,-2.1794,0.5715,1.3816,0.1366,0.8441,
0.768236,-0.1089,0.0993,0.7163,-0.7375,-2.1794,0.5715,1.3816,0.1366,0.8441,
0.769560,-0.1098,0.1899,0.7232,-0.7375,-2.1794,0.5715,1.3816,0.1366,0.8441,
0.770321,-0.0830,0.4095,0.4565,-0.7375,-2.1794,0.5715,1.3816,0.1366,0.8441,
0.798268,-0.0830,0.4095,0.4565,-0.7375,-2.1794,0.5715,0.2642,0.3135,0.2411,
0.801037,-0.0830,0.4095,0.4565,-0.1627,-1.9826,-1.4234,0.2642,0.3135,0.2411,
0.837087,-0.0830,0.4095,0.4565,-0.1627,-1.9826,-1.4234,-0.3377,-0.0732,0.4212,
0.838551,-0.0830,0.4095,0.4565,-0.9676,0.0270,-3.7909,-0.3377,-0.0732,0.4212,
0.839509,-0.2199,0.3601,0.6218,-0.9676,0.0270,-3.7909,-0.3377,-0.0732,0.4212,
0.840296,-0.2689,0.3230,0.5689,-0.9676,0.0270,-3.7909,-0.3377,-0.0732,0.4212,
0.841044,-0.2231,0.2840,0.5191,-0.9676,0.0270,-3.7909,-0.3377,-0.0732,0.4212,
0.841601,-0.1862,0.3495,0.7061,-0.9676,0.0270,-3.7909,-0.3377,-0.0732,0.4212,
0.877890,-0.1862,0.3495,0.7061,-0.9676,0.0270,-3.7909,-0.4634,-0.6879,0.9612,
0.880678,-0.1862,0.3495,0.7061,-1.2469,0.1559,-3.5759,-0.4634,-0.6879,0.9612,
0.916650,-0.1862,0.3495,0.7061,-1.2469,0.1559,-3.5759,0.2631,-1.6019,0.0366,
0.918562,0.1342,0.4597,0.9489,-1.2469,0.1559,-3.5759,0.2631,-1.6019,0.0366,
0.919952,0.2471,0.5155,0.7156,-1.2469,0.1559,-3.5759,0.2631,-1.6019,0.0366,
0.921051,0.0534,0.4950,0.6237,-1.2469,0.1559,-3.5759,0.2631,-1.6019,0.0366,
0.922387,-0.2037,0.2651,0.8097,-1.2469,0.1559,-3.5759,0.2631,-1.6019,0.0366,
0.923723,-0.2037,0.2651,0.8097,0.3400,0.6142,-1.7930,0.2631,-1.6019,0.0366,
0.957295,-0.2037,0.2651,0.8097,0.3400,0.6142,-1.7930,0.0170,-1.2450,0.1037,
0.959138,-0.2037,0.2651,0.8097,-0.1017,0.5686,-1.6621,0.0170,-1.2450,0.1037,
0.996927,-0.2977,0.0772,0.7862,-0.1017,0.5686,-1.6621,0.0170,-1.2450,0.1037,
0.999294,-0.0951,0.1568,0.7196,-0.1017,0.5686,-1.6621,0.0170,-1.2450,0.1037,
1.001833,0.1995,0.3280,0.7069,-0.1017,0.5686,-1.6621,0.0170,-1.2450,0.1037,
1.003540,0.1995,0.3280,0.7069,-0.1017,0.5686,-1.6621,0.7584,-2.3678,1.7176,
1.005518,0.1995,0.3280,0.7069,-1.9741,-1.8312,-1.1766,0.7584,-2.3678,1.7176,
1.035475,0.1995,0.3280,0.7069,-1.9741,-1.8312,-1.1766,0.8277,-2.4051,1.1029,
1.037798,0.1995,0.3280,0.7069,-2.7440,-1.8980,-0.8236,0.8277,-2.4051,1.1029,
1.076208,0.5416,0.4195,0.6947,-2.7440,-1.8980,-0.8236,0.8277,-2.4051,1.1029,
1.077690,0.6944,0.5001,0.8558,-2.7440,-1.8980,-0.8236,0.8277,-2.4051,1.1029,
1.078473,0.6197,0.4754,0.9896,-2.7440,-1.8980,-0.8236,0.8277,-2.4051,1.1029,
1.079274,0.6197,0.4754,0.9896,-2.7440,-1.8980,-0.8236,-0.0959,-0.6730,-0.1530,
1.079931,0.6197,0.4754,0.9896,3.5371,0.7894,0.2739,-0.0959,-0.6730,-0.1530,
1.115101,0.6197,0.4754,0.9896,3.5371,0.7894,0.2739,-0.0224,-1.0352,-0.5419,
1.116641,0.6197,0.4754,0.9896,2.2605,1.1272,0.5546,-0.0224,-1.0352,-0.5419,
1.153106,0.5687,0.4775,0.8843,2.2605,1.1272,0.5546,-0.0224,-1.0352,-0.5419,
1.155128,0.5047,0.5273,0.8590,2.2605,1.1272,0.5546,-0.0224,-1.0352,-0.5419,
1.156552,0.5075,0.5292,0.8605,2.2605,1.1272,0.5546,-0.0224,-1.0352,-0.5419,
1.157884,0.5402,0.6053,0.7844,2.2605,1.1272,0.5546,-0.0224,-1.0352,-0.5419,
1.159420,0.6011,0.6408,0.6592,2.2605,1.1272,0.5546,-0.0224,-1.0352,-0.5419,
1.161147,0.6011,0.6408,0.6592,2.2605,1.1272,0.5546,0.4112,-1.2354,-0.7592,
1.162649,0.6011,0.6408,0.6592,1.8853,0.8577,0.7258,0.4112,-1.2354,-0.7592,
1.196166,0.6011,0.6408,0.6592,1.8853,0.8577,0.7258,0.1928,-1.3015,-1.4782,
1.198160,0.6011,0.6408,0.6592,1.6439,0.5681,0.8800,0.1928,-1.3015,-1.4782,
1.230267,0.7009,0.7730,0.5042,1.6439,0.5681,0.8800,0.1928,-1.3015,-1.4782,
1.231849,0.6316,0.8512,0.4234,1.6439,0.5681,0.8800,0.1928,-1.3015,-1.4782,
1.233367,0.5359,0.9078,0.6240,1.6439,0.5681,0.8800,0.1928,-1.3015,-1.4782,
1.234272,0.4132,0.7635,0.8170,1.6439,0.5681,0.8800,0.1928,-1.3015,-1.4782,
1.235482,0.4132,0.7635,0.8170,1.6439,0.5681,0.8800,-0.2919,-2.4232,-2.1206,
1.236580,0.4132,0.7635,0.8170,1.2433,3.3947,-1.1722,-0.2919,-2.4232,-2.1206,
1.273688,0.4132,0.7635,0.8170,1.2433,3.3947,-1.1722,0.3536,-2.9399,-1.2716,
1.275444,0.4132,0.7635,0.8170,0.6446,2.9340,-0.5823,0.3536,-2.9399,-1.2716,
1.298888,0.4575,0.5728,1.0372,0.6446,2.9340,-0.5823,0.3536,-2.9399,-1.2716,
1.301188,0.5436,0.4397,1.0483,0.6446,2.9340,-0.5823,0.3536,-2.9399,-1.2716,
1.303032,0.4006,0.3737,0.8483,0.6446,2.9340,-0.5823,0.3536,-2.9399,-1.2716,
1.304588,0.3337,0.3818,0.5305,0.6446,2.9340,-0.5823,0.3536,-2.9399,-1.2716,
1.313816,0.3337,0.3818,0.5305,0.6446,2.9340,-0.5823,1.1409,-1.5081,0.1335,
1.315241,0.3337,0.3818,0.5305,-0.3385,-0.9896,3.2755,1.1409,-1.5081,0.1335,
1.353065,0.3337,0.3818,0.5305,-0.3385,-0.9896,3.2755,0.9278,-1.7958,1.1402,
1.355207,0.3337,0.3818,0.5305,-3.2434,-2.8456,-1.8186,0.9278,-1.7958,1.1402,
1.377259,0.1438,0.1731,0.2770,-3.2434,-2.8456,-1.8186,0.9278,-1.7958,1.1402,
1.379690,0.1953,0.2165,0.3639,-3.2434,-2.8456,-1.8186,0.9278,-1.7958,1.1402,
1.380796,0.4088,0.3235,0.3722,-3.2434,-2.8456,-1.8186,0.9278,-1.7958,1.1402,
1.382189,0.6482,0.3428,0.3061,-3.2434,-2.8456,-1.8186,0.9278,-1.7958,1.1402,
1.393012,0.6482,0.3428,0.3061,-3.9535,-2.4523,-1.0408,0.9278,-1.7958,1.1402,
1.395244,0.6482,0.3428,0.3061,-3.9535,-2.4523,-1.0408,1.0535,-2.1835,2.1245,
1.432184,0.6482,0.3428,0.3061,-3.9535,-2.4523,-1.0408,0.9033,-1.0511,2.0414,
1.435284,0.6482,0.3428,0.3061,-0.4661,-1.1344,-1.0506,0.9033,-1.0511,2.0414,
1.458690,0.8553,0.3834,0.3410,-0.4661,-1.1344,-1.0506,0.9033,-1.0511,2.0414,
1.460794,0.7187,0.2597,0.3121,-0.4661,-1.1344,-1.0506,0.9033,-1.0511,2.0414,
1.461799,0.4988,0.1145,0.3761,-0.4661,-1.1344,-1.0506,0.9033,-1.0511,2.0414,
1.463098,0.5491,0.0722,0.3175,-0.4661,-1.1344,-1.0506,0.9033,-1.0511,2.0414,
1.471563,0.5491,0.0722,0.3175,-1.2779,-2.6216,-0.8041,0.9033,-1.0511,2.0414,
1.473996,0.5491,0.0722,0.3175,-1.2779,-2.6216,-0.8041,0.5859,-0.5632,1.7091,
1.516683,0.5491,0.0722,0.3175,-1.2779,-2.6216,-0.8041,0.3302,-0.7774,2.3269,
1.520643,0.5491,0.0722,0.3175,-0.4680,-2.0154,-0.8322,0.3302,-0.7774,2.3269,
1.531609,0.7171,0.1886,0.3168,-0.4680,-2.0154,-0.8322,0.3302,-0.7774,2.3269,
1.533402,0.7235,0.1489,0.3378,-0.4680,-2.0154,-0.8322,0.3302,-0.7774,2.3269,
1.534299,0.7120,0.0788,0.2479,-0.4680,-2.0154,-0.8322,0.3302,-0.7774,2.3269,
1.535020,0.7502,-0.0175,0.2137,-0.4680,-2.0154,-0.8322,0.3302,-0.7774,2.3269,
1.554038,0.7502,-0.0175,0.2137,-0.4680,-2.0154,-0.8322,-0.5007,-0.8381,2.6454,
1.555399,0.7502,-0.0175,0.2137,-0.8632,-1.0877,-0.6066,-0.5007,-0.8381,2.6454,
1.590072,0.7502,-0.0175,0.2137,-0.8632,-1.0877,-0.6066,-0.7628,-1.3217,2.3109,
1.591895,0.7502,-0.0175,0.2137,2.2505,-1.8222,-0.1630,-0.7628,-1.3217,2.3109,
1.613218,1.0997,-0.0715,0.2669,2.2505,-1.8222,-0.1630,-0.7628,-1.3217,2.3109,
1.615225,1.3944,0.0005,0.4444,2.2505,-1.8222,-0.1630,-0.7628,-1.3217,2.3109,
1.617152,1.4225,0.1528,0.5440,2.2505,-1.8222,-0.1630,-0.7628,-1.3217,2.3109,
1.618556,1.0237,0.2737,0.5048,2.2505,-1.8222,-0.1630,-0.7628,-1.3217,2.3109,
1.632300,1.0237,0.2737,0.5048,2.0574,-1.5395,0.0353,-0.7628,-1.3217,2.3109,
1.634661,1.0237,0.2737,0.5048,2.0574,-1.5395,0.0353,-0.4698,-0.6762,0.4925,
1.669971,1.0237,0.2737,0.5048,2.0574,-1.5395,0.0353,0.0117,-0.4429,-0.2414,
1.671311,1.0237,0.2737,0.5048,1.9058,0.8844,1.6334,0.0117,-0.4429,-0.2414,
1.689454,0.7860,0.2629,0.3385,1.9058,0.8844,1.6334,0.0117,-0.4429,-0.2414,
1.691217,0.7608,0.2674,0.2399,1.9058,0.8844,1.6334,0.0117,-0.4429,-0.2414,
1.692052,0.6602,0.1703,0.3390,1.9058,0.8844,1.6334,0.0117,-0.4429,-0.2414,
1.713606,0.6602,0.1703,0.3390,1.9058,0.8844,1.6334,0.7510,-1.2184,1.1945,
1.716371,0.6602,0.1703,0.3390,1.6563,1.1744,2.0141,0.7510,-1.2184,1.1945,
1.748860,0.6602,0.1703,0.3390,1.6563,1.1744,2.0141,1.2186,-1.1843,2.3642,
1.751033,0.6602,0.1703,0.3390,-1.9402,1.1983,0.5929,1.2186,-1.1843,2.3642,
1.766232,0.7417,0.0480,0.2401,-1.9402,1.1983,0.5929,1.2186,-1.1843,2.3642,
1.767978,0.9178,0.0006,0.0930,-1.9402,1.1983,0.5929,1.2186,-1.1843,2.3642,
1.768755,1.0451,0.1507,0.0088,-1.9402,1.1983,0.5929,1.2186,-1.1843,2.3642,
1.769631,1.0649,0.0551,-0.0277,-1.9402,1.1983,0.5929,1.2186,-1.1843,2.3642,
1.789135,1.0649,0.0551,-0.0277,-1.9402,1.1983,0.5929,0.7531,-1.4709,2.2097,
1.790492,1.0649,0.0551,-0.0277,0.7511,0.9890,-1.2652,0.7531,-1.4709,2.2097,
1.828915,1.0649,0.0551,-0.0277,0.7511,0.9890,-1.2652,0.3441,-2.3795,3.0694,
1.830450,1.0649,0.0551,-0.0277,0.4663,-2.5253,-0.5238,0.3441,-2.3795,3.0694,
1.847382,0.9454,-0.2323,-0.0755,0.4663,-2.5253,-0.5238,0.3441,-2.3795,3.0694,
1.849331,0.8807,-0.4981,-0.0174,0.4663,-2.5253,-0.5238,0.3441,-2.3795,3.0694,
1.850469,1.1186,-0.5013,0.1273,0.4663,-2.5253,-0.5238,0.3441,-2.3795,3.0694,
1.851924,1.3185,-0.4883,0.2617,0.4663,-2.5253,-0.5238,0.3441,-2.3795,3.0694,
1.867552,1.3185,-0.4883,0.2617,0.4663,-2.5253,-0.5238,1.0141,-1.8522,3.5285,
1.869880,1.3185,-0.4883,0.2617,0.7145,-1.2306,0.0509,1.0141,-1.8522,3.5285,
1.907406,1.3185,-0.4883,0.2617,0.7145,-1.2306,0.0509,1.7129,-0.4056,2.8638,
1.909728,1.3185,-0.4883,0.2617,4.9356,-1.3557,2.6677,1.7129,-0.4056,2.8638,
1.946917,1.4388,-0.5234,0.3537,4.9356,-1.3557,2.6677,1.7129,-0.4056,2.8638,
1.949749,1.4157,-0.5745,0.2734,4.9356,-1.3557,2.6677,1.7129,-0.4056,2.8638,
1.951700,1.1953,-0.6892,0.4138,4.9356,-1.3557,2.6677,1.7129,-0.4056,2.8638,
1.953326,1.1953,-0.6892,0.4138,4.9356,-1.3557,2.6677,2.0890,0.1942,2.5858,
1.954993,1.1953,-0.6892,0.4138,5.2016,-0.5048,2.1774,2.0890,0.1942,2.5858,
1.986504,1.1953,-0.6892,0.4138,5.2016,-0.5048,2.1774,1.5680,-0.1947,2.2630,
1.988690,1.1953,-0.6892,0.4138,3.1447,-1.3011,0.9227,1.5680,-0.1947,2.2630,
2.024445,1.1366,-0.7028,0.2009,3.1447,-1.3011,0.9227,1.5680,-0.1947,2.2630,
2.026648,1.1068,-0.6599,-0.0248,3.1447,-1.3011,0.9227,1.5680,-0.1947,2.2630,
2.028004,1.0904,-0.6318,-0.0353,3.1447,-1.3011,0.9227,1.5680,-0.1947,2.2630,
2.030047,1.0491,-0.6488,0.0027,3.1447,-1.3011,0.9227,1.5680,-0.1947,2.2630,
2.031317,1.0786,-0.7003,0.0234,3.1447,-1.3011,0.9227,1.5680,-0.1947,2.2630,
2.032657,1.0821,-0.6738,0.0598,3.1447,-1.3011,0.9227,1.5680,-0.1947,2.2630,
2.033934,1.0821,-0.6738,0.0598,3.1447,-1.3011,0.9227,1.2304,-0.3715,1.7921,
2.035249,1.0821,-0.6738,0.0598,2.7244,-0.5447,-1.1579,1.2304,-0.3715,1.7921,
2.065982,1.0821,-0.6738,0.0598,2.7244,-0.5447,-1.1579,0.9704,0.2730,1.4491,
2.068293,1.0821,-0.6738,0.0598,2.9967,-0.1518,-1.4299,0.9704,0.2730,1.4491,
2.100611,1.1185,-0.6461,0.1029,2.9967,-0.1518,-1.4299,0.9704,0.2730,1.4491,
2.102869,1.0580,-0.6287,0.0508,2.9967,-0.1518,-1.4299,0.9704,0.2730,1.4491,
2.104539,0.9890,-0.5834,-0.0262,2.9967,-0.1518,-1.4299,0.9704,0.2730,1.4491,
2.105917,0.9930,-0.4952,-0.0373,2.9967,-0.1518,-1.4299,0.9704,0.2730,1.4491,
2.107588,0.9930,-0.4952,-0.0373,2.9967,-0.1518,-1.4299,0.5486,0.8674,1.1445,
2.110421,0.9930,-0.4952,-0.0373,3.3758,0.2454,-1.0624,0.5486,0.8674,1.1445,
2.146041,0.9930,-0.4952,-0.0373,3.3758,0.2454,-1.0624,0.5347,0.3220,0.2614,
2.147420,0.9930,-0.4952,-0.0373,3.3663,0.2719,-1.2572,0.5347,0.3220,0.2614,
2.174503,1.0259,-0.5172,-0.0276,3.3663,0.2719,-1.2572,0.5347,0.3220,0.2614,
2.176231,1.0494,-0.4945,0.1596,3.3663,0.2719,-1.2572,0.5347,0.3220,0.2614,
2.178071,0.9100,-0.6712,0.1803,3.3663,0.2719,-1.2572,0.5347,0.3220,0.2614,
2.179597,0.7911,-0.6997,0.0943,3.3663,0.2719,-1.2572,0.5347,0.3220,0.2614,
2.184223,0.7911,-0.6997,0.0943,3.3663,0.2719,-1.2572,0.8703,-0.0189,-0.3235,
2.185438,0.7911,-0.6997,0.0943,1.5755,0.3678,-0.7361,0.8703,-0.0189,-0.3235,
2.224279,0.7911,-0.6997,0.0943,1.5755,0.3678,-0.7361,0.4431,0.4828,-0.0145,
2.225904,0.7911,-0.6997,0.0943,1.5709,0.3148,-0.9629,0.4431,0.4828,-0.0145,
2.250422,0.7734,-0.6412,-0.0024,1.5709,0.3148,-0.9629,0.4431,0.4828,-0.0145,
2.252629,0.7740,-0.6320,0.0074,1.5709,0.3148,-0.9629,0.4431,0.4828,-0.0145,
2.253909,0.7511,-0.6925,0.1313,1.5709,0.3148,-0.9629,0.4431,0.4828,-0.0145,
2.255188,0.7479,-0.6874,0.1519,1.5709,0.3148,-0.9629,0.4431,0.4828,-0.0145,
2.266125,0.7479,-0.6874,0.1519,1.5709,0.3148,-0.9629,0.2908,0.4999,0.0313,
2.268339,0.7479,-0.6874,0.1519,0.1477,-0.0314,-2.0979,0.2908,0.4999,0.0313,
2.303813,0.7479,-0.6874,0.1519,0.1477,-0.0314,-2.0979,0.6913,-0.1627,-0.0912,
2.305777,0.7479,-0.6874,0.1519,0.0213,0.0511,-1.3714,0.6913,-0.1627,-0.0912,
2.328558,0.7555,-0.6262,0.0819,0.0213,0.0511,-1.3714,0.6913,-0.1627,-0.0912,
2.331072,0.7689,-0.5964,0.1522,0.0213,0.0511,-1.3714,0.6913,-0.1627,-0.0912,
2.332578,0.7895,-0.6376,0.2344,0.0213,0.0511,-1.3714,0.6913,-0.1627,-0.0912,
2.333995,0.9202,-0.6524,0.1754,0.0213,0.0511,-1.3714,0.6913,-0.1627,-0.0912,
2.345036,0.9202,-0.6524,0.1754,0.0213,0.0511,-1.3714,0.8277,-0.9052,-0.0731,
2.347576,0.9202,-0.6524,0.1754,-0.0882,-0.0548,-1.2739,0.8277,-0.9052,-0.0731,
2.382466,0.9202,-0.6524,0.1754,-0.0882,-0.0548,-1.2739,0.7105,-0.8317,-0.0092,
2.383757,0.9202,-0.6524,0.1754,1.0887,-0.1437,-0.8647,0.7105,-0.8317,-0.0092,
2.406423,0.9574,-0.6258,0.0711,1.0887,-0.1437,-0.8647,0.7105,-0.8317,-0.0092,
2.408350,1.0428,-0.6841,0.2081,1.0887,-0.1437,-0.8647,0.7105,-0.8317,-0.0092,
2.409805,1.1279,-0.6946,0.1122,1.0887,-0.1437,-0.8647,0.7105,-0.8317,-0.0092,
2.411542,0.8968,-0.6865,0.0995,1.0887,-0.1437,-0.8647,0.7105,-0.8317,-0.0092,
2.424542,0.8968,-0.6865,0.0995,1.0887,-0.1437,-0.8647,0.3590,-0.5356,-0.1839,
2.426556,0.8968,-0.6865,0.0995,2.2436,-0.7035,-0.9641,0.3590,-0.5356,-0.1839,
2.462446,0.8968,-0.6865,0.0995,2.2436,-0.7035,-0.9641,0.1140,-0.7454,-0.2670,
2.463733,0.8968,-0.6865,0.0995,2.7068,-2.0845,0.7752,0.1140,-0.7454,-0.2670,
2.475205,1.2139,-0.8589,0.3046,2.7068,-2.0845,0.7752,0.1140,-0.7454,-0.2670,
2.477644,1.0342,-0.8016,0.3342,2.7068,-2.0845,0.7752,0.1140,-0.7454,-0.2670,
2.479071,1.0215,-0.8149,0.2567,2.7068,-2.0845,0.7752,0.1140,-0.7454,-0.2670,
2.502956,1.0215,-0.8149,0.2567,2.7068,-2.0845,0.7752,0.1054,-1.1001,-0.3118,
2.504566,1.0215,-0.8149,0.2567,2.4846,-2.1389,1.0746,0.1054,-1.1001,-0.3118,
2.541534,1.0215,-0.8149,0.2567,2.4846,-2.1389,1.0746,0.2993,-1.3441,-0.4353,
2.543888,1.0215,-0.8149,0.2567,-1.6469,-2.3175,0.6358,0.2993,-1.3441,-0.4353,
2.554428,0.7903,-0.8488,0.2508,-1.6469,-2.3175,0.6358,0.2993,-1.3441,-0.4353,
2.555855,0.7173,-0.8220,0.2139,-1.6469,-2.3175,0.6358,0.2993,-1.3441,-0.4353,
2.556780,0.5430,-0.8267,0.1873,-1.6469,-2.3175,0.6358,0.2993,-1.3441,-0.4353,
2.557702,0.3532,-0.8504,0.0814,-1.6469,-2.3175,0.6358,0.2993,-1.3441,-0.4353,
2.581742,0.3532,-0.8504,0.0814,-1.6469,-2.3175,0.6358,0.3760,-1.1374,-0.3139,
2.583173,0.3532,-0.8504,0.0814,-1.7370,-2.3839,0.9068,0.3760,-1.1374,-0.3139,
2.620164,0.3532,-0.8504,0.0814,-1.7370,-2.3839,0.9068,0.5017,-0.0072,-0.1307,
2.621281,0.5097,-0.8369,0.3101,-1.7370,-2.3839,0.9068,0.5017,-0.0072,-0.1307,
2.621845,0.4919,-0.8184,0.3946,-1.7370,-2.3839,0.9068,0.5017,-0.0072,-0.1307,
2.622464,0.5607,-0.6516,0.4092,-1.7370,-2.3839,0.9068,0.5017,-0.0072,-0.1307,
2.623044,0.3560,-0.5466,0.1519,-1.7370,-2.3839,0.9068,0.5017,-0.0072,-0.1307,
2.623554,0.3560,-0.5466,0.1519,-3.9460,-2.4216,1.2041,0.5017,-0.0072,-0.1307,
2.659364,0.3560,-0.5466,0.1519,-3.9460,-2.4216,1.2041,-0.0437,0.9920,0.0387,
2.660744,0.3560,-0.5466,0.1519,-3.7867,-2.3497,0.8655,-0.0437,0.9920,0.0387,
2.699404,0.3560,-0.5466,0.1519,-3.7867,-2.3497,0.8655,-0.3271,0.3220,-0.0689,
2.700884,0.3560,-0.5466,0.1519,-2.5217,2.4764,-0.6655,-0.3271,0.3220,-0.0689,
2.701942,0.4027,-0.4132,0.0416,-2.5217,2.4764,-0.6655,-0.3271,0.3220,-0.0689,
2.702928,0.5430,-0.3646,0.1351,-2.5217,2.4764,-0.6655,-0.3271,0.3220,-0.0689,
2.703655,0.5774,-0.3273,0.0904,-2.5217,2.4764,-0.6655,-0.3271,0.3220,-0.0689,
2.704566,0.6022,-0.3193,0.0960,-2.5217,2.4764,-0.6655,-0.3271,0.3220,-0.0689,
2.738615,0.6022,-0.3193,0.0960,-2.5217,2.4764,-0.6655,-0.6413,0.3124,-0.1626,
2.739957,0.6022,-0.3193,0.0960,-2.4815,2.4122,-0.6059,-0.6413,0.3124,-0.1626,
2.779565,0.6073,-0.3949,0.0753,-2.4815,2.4122,-0.6059,-0.6413,0.3124,-0.1626,
2.781586,0.5758,-0.4325,0.0132,-2.4815,2.4122,-0.6059,-0.6413,0.3124,-0.1626,
2.782848,0.5809,-0.4923,0.0158,-2.4815,2.4122,-0.6059,-0.6413,0.3124,-0.1626,
2.784112,0.5809,-0.4923,0.0158,-2.4815,2.4122,-0.6059,-0.8650,0.4541,-0.1360,
2.785273,0.5809,-0.4923,0.0158,-2.2967,1.3856,-1.2382,-0.8650,0.4541,-0.1360,
2.818416,0.5809,-0.4923,0.0158,-2.2967,1.3856,-1.2382,-1.0365,0.3156,0.1346,
2.819953,0.5809,-0.4923,0.0158,-2.2319,-0.3824,-0.3803,-1.0365,0.3156,0.1346,
2.866963,0.5504,-0.4981,0.0544,-2.2319,-0.3824,-0.3803,-1.0365,0.3156,0.1346,
2.868892,0.5783,-0.6707,0.1659,-2.2319,-0.3824,-0.3803,-1.0365,0.3156,0.1346,
2.870257,0.6250,-0.7268,0.1026,-2.2319,-0.3824,-0.3803,-1.0365,0.3156,0.1346,
2.871382,0.6103,-0.5833,-0.0301,-2.2319,-0.3824,-0.3803,-1.0365,0.3156,0.1346,
2.872755,0.6103,-0.5833,-0.0301,-2.0503,-0.1593,-0.2145,-1.0365,0.3156,0.1346,
2.873540,0.6103,-0.5833,-0.0301,-2.0503,-0.1593,-0.2145,-0.4517,-0.1787,0.6236,
2.894873,0.6737,-0.5611,-0.0680,-2.0503,-0.1593,-0.2145,-0.4517,-0.1787,0.6236,
2.896576,0.7716,-0.5033,0.0887,-2.0503,-0.1593,-0.2145,-0.4517,-0.1787,0.6236,
2.901307,0.7716,-0.5033,0.0887,-2.0503,-0.1593,-0.2145,-0.0671,-0.7252,0.8409,
2.902786,0.7716,-0.5033,0.0887,-0.8727,0.8918,-1.0413,-0.0671,-0.7252,0.8409,
2.936195,0.7716,-0.5033,0.0887,-0.8727,0.8918,-1.0413,-0.1140,-0.9318,0.6097,
2.937006,0.7716,-0.5033,0.0887,-0.7349,1.0551,-0.7194,-0.1140,-0.9318,0.6097,
2.963911,0.9329,-0.5309,-0.0763,-0.7349,1.0551,-0.7194,-0.1140,-0.9318,0.6097,
2.964630,0.9597,-0.3842,-0.0907,-0.7349,1.0551,-0.7194,-0.1140,-0.9318,0.6097,
2.965100,0.9794,-0.4170,-0.1480,-0.7349,1.0551,-0.7194,-0.1140,-0.9318,0.6097,
2.965632,0.9372,-0.5911,-0.1292,-0.7349,1.0551,-0.7194,-0.1140,-0.9318,0.6097,
2.975339,0.9372,-0.5911,-0.1292,-0.7349,1.0551,-0.7194,-0.0267,-0.8669,-0.2500,
2.976283,0.9372,-0.5911,-0.1292,1.8113,1.9708,-1.4234,-0.0267,-0.8669,-0.2500,
3.014737,0.9372,-0.5911,-0.1292,1.8113,1.9708,-1.4234,0.3696,-1.2972,-0.6484,
3.015548,0.9372,-0.5911,-0.1292,1.6054,1.7343,-1.0975,0.3696,-1.2972,-0.6484,
3.054698,0.6620,-1.3048,0.2474,1.6054,1.7343,-1.0975,0.3696,-1.2972,-0.6484,
3.055498,0.6620,-1.3048,0.2474,1.6054,1.7343,-1.0975,0.4815,-1.5976,-0.2670,
3.056677,0.6620,-1.3048,0.2474,1.5176,1.6203,-0.7034,0.4815,-1.5976,-0.2670,
3.094571,0.6620,-1.3048,0.2474,1.5176,1.6203,-0.7034,0.7542,-1.6882,0.2560,
3.095427,0.6620,-1.3048,0.2474,1.5792,1.6797,-0.3525,0.7542,-1.6882,0.2560,
3.134277,0.6620,-1.3048,0.2474,1.5792,1.6797,-0.3525,0.1544,-0.5515,0.7855,
3.136410,0.6620,-1.3048,0.2474,0.7104,-6.5701,2.4779,0.1544,-0.5515,0.7855,
3.137257,0.8340,-1.4825,0.2606,0.7104,-6.5701,2.4779,0.1544,-0.5515,0.7855,
3.137757,1.0509,-1.1859,0.0185,0.7104,-6.5701,2.4779,0.1544,-0.5515,0.7855,
3.138228,1.0094,-0.9008,-0.1618,0.7104,-6.5701,2.4779,0.1544,-0.5515,0.7855,
3.138642,0.7170,-0.8043,-0.0116,0.7104,-6.5701,2.4779,0.1544,-0.5515,0.7855,
3.174346,0.7170,-0.8043,-0.0116,0.7104,-6.5701,2.4779,-0.1982,0.1398,0.7972,
3.176145,0.7170,-0.8043,-0.0116,0.8937,-6.2125,2.4385,-0.1982,0.1398,0.7972,
3.214114,0.7170,-0.8043,-0.0116,0.2452,-0.7010,0.6241,-0.1982,0.1398,0.7972,
3.214951,0.5570,-0.6587,0.1751,0.2452,-0.7010,0.6241,-0.1982,0.1398,0.7972,
3.215375,0.5118,-0.4659,0.1824,0.2452,-0.7010,0.6241,-0.1982,0.1398,0.7972,
3.215907,0.5333,-0.3638,0.1125,0.2452,-0.7010,0.6241,-0.1982,0.1398,0.7972,
3.216395,0.5333,-0.3638,0.1125,0.2452,-0.7010,0.6241,0.8128,-0.4663,0.7524,
3.253983,0.5333,-0.3638,0.1125,0.2452,-0.7010,0.6241,1.3188,-0.7358,0.7461,
3.255180,0.5333,-0.3638,0.1125,-1.5895,3.2488,1.3167,1.3188,-0.7358,0.7461,
3.293036,0.5333,-0.3638,0.1125,-1.5895,3.2488,1.3167,1.1366,-0.4162,0.2710,
3.295325,0.5333,-0.3638,0.1125,-1.4773,3.2735,1.0830,1.1366,-0.4162,0.2710,
3.296727,0.5978,-0.3782,-0.0223,-1.4773,3.2735,1.0830,1.1366,-0.4162,0.2710,
3.297684,0.7578,-0.4344,-0.0634,-1.4773,3.2735,1.0830,1.1366,-0.4162,0.2710,
3.298925,0.7891,-0.6472,-0.0133,-1.4773,3.2735,1.0830,1.1366,-0.4162,0.2710,
3.300143,0.7712,-0.9252,0.1502,-1.4773,3.2735,1.0830,1.1366,-0.4162,0.2710,
3.301112,0.7275,-0.7930,0.1929,-1.4773,3.2735,1.0830,1.1366,-0.4162,0.2710,
3.333591,0.7275,-0.7930,0.1929,-1.4773,3.2735,1.0830,0.6157,0.1739,-0.0060,
3.336060,0.7275,-0.7930,0.1929,0.7130,0.6521,0.2056,0.6157,0.1739,-0.0060,
3.373730,0.7275,-0.7930,0.1929,-0.4496,1.0612,-0.5570,0.6157,0.1739,-0.0060,
3.375369,0.7275,-0.7930,0.1929,-0.4496,1.0612,-0.5570,0.0703,-0.4578,-0.1637,
3.376836,0.6112,-0.5451,-0.1484,-0.4496,1.0612,-0.5570,0.0703,-0.4578,-0.1637,
3.378139,0.6351,-0.5236,-0.2398,-0.4496,1.0612,-0.5570,0.0703,-0.4578,-0.1637,
3.379980,0.5509,-1.2008,0.1568,-0.4496,1.0612,-0.5570,0.0703,-0.4578,-0.1637,
3.381112,0.2938,-1.3195,0.1309,-0.4496,1.0612,-0.5570,0.0703,-0.4578,-0.1637,
3.411878,0.2938,-1.3195,0.1309,-0.4496,1.0612,-0.5570,-0.2088,0.0951,-0.0465,
3.413250,0.2938,-1.3195,0.1309,-0.4546,1.0282,-0.5143,-0.2088,0.0951,-0.0465,
3.452571,0.2938,-1.3195,0.1309,-0.4546,1.0282,-0.5143,-0.1151,0.3667,0.0728,
3.454723,0.2938,-1.3195,0.1309,-2.3323,-4.0786,0.9635,-0.1151,0.3667,0.0728,
3.456074,0.5352,-0.9337,-0.0042,-2.3323,-4.0786,0.9635,-0.1151,0.3667,0.0728,
3.457194,0.5540,-0.8565,-0.0375,-2.3323,-4.0786,0.9635,-0.1151,0.3667,0.0728,
3.458436,0.4751,-0.8282,-0.0255,-2.3323,-4.0786,0.9635,-0.1151,0.3667,0.0728,
3.459655,0.6300,-0.7051,0.0026,-2.3323,-4.0786,0.9635,-0.1151,0.3667,0.0728,
3.491586,0.6300,-0.7051,0.0026,-2.3323,-4.0786,0.9635,0.2524,0.4040,0.1431,
3.493782,0.6300,-0.7051,0.0026,-1.3538,-0.5542,-0.3347,0.2524,0.4040,0.1431,
3.531515,0.6300,-0.7051,0.0026,-1.3538,-0.5542,-0.3347,0.1236,1.0826,0.2241,
3.533816,0.6300,-0.7051,0.0026,2.1507,2.6791,-0.9465,0.1236,1.0826,0.2241,
3.536438,0.8311,-0.6376,0.0368,2.1507,2.6791,-0.9465,0.1236,1.0826,0.2241,
3.537766,0.9781,-0.4190,-0.0389,2.1507,2.6791,-0.9465,0.1236,1.0826,0.2241,
3.539842,0.9107,-0.3467,-0.1513,2.1507,2.6791,-0.9465,0.1236,1.0826,0.2241,
3.541239,0.8619,-0.3985,-0.0746,2.1507,2.6791,-0.9465,0.1236,1.0826,0.2241,
3.570835,0.8619,-0.3985,-0.0746,2.1507,2.6791,-0.9465,-0.2131,1.3159,0.1239,
3.573041,0.8619,-0.3985,-0.0746,2.1787,2.6697,-1.2125,-0.2131,1.3159,0.1239,
3.611243,0.8619,-0.3985,-0.0746,2.1787,2.6697,-1.2125,-0.4315,1.6493,0.0941,
3.613941,0.8619,-0.3985,-0.0746,0.6064,2.7037,-1.4667,-0.4315,1.6493,0.0941,
3.615482,0.7693,-0.4087,-0.0309,0.6064,2.7037,-1.4667,-0.4315,1.6493,0.0941,
3.616941,0.5851,-0.5834,-0.0384,0.6064,2.7037,-1.4667,-0.4315,1.6493,0.0941,
3.618046,0.4737,-0.7913,-0.0617,0.6064,2.7037,-1.4667,-0.4315,1.6493,0.0941,
3.619349,0.4883,-0.8534,-0.0839,0.6064,2.7037,-1.4667,-0.4315,1.6493,0.0941,
3.650362,0.4883,-0.8534,-0.0839,0.6064,2.7037,-1.4667,-0.1832,1.3542,0.5351,
3.652652,0.4883,-0.8534,-0.0839,0.8088,2.8009,-1.7344,-0.1832,1.3542,0.5351,
3.690700,0.4883,-0.8534,-0.0839,0.8088,2.8009,-1.7344,-0.1790,1.0890,0.3775,
3.693418,0.4883,-0.8534,-0.0839,-1.0641,-1.1204,-2.2373,-0.1790,1.0890,0.3775,
3.694733,0.6232,-0.9843,-0.0963,-1.0641,-1.1204,-2.2373,-0.1790,1.0890,0.3775,
3.696116,0.7175,-1.0078,-0.1474,-1.0641,-1.1204,-2.2373,-0.1790,1.0890,0.3775,
3.698126,0.7363,-0.8956,-0.2229,-1.0641,-1.1204,-2.2373,-0.1790,1.0890,0.3775,
3.699525,0.7333,-0.6699,-0.0419,-1.0641,-1.1204,-2.2373,-0.1790,1.0890,0.3775,
3.729380,0.7333,-0.6699,-0.0419,-1.0641,-1.1204,-2.2373,-0.0778,0.6139,0.2624,
3.732846,0.7333,-0.6699,-0.0419,1.0001,-0.8550,-2.8722,-0.0778,0.6139,0.2624,
3.769677,0.7333,-0.6699,-0.0419,1.0001,-0.8550,-2.8722,0.4431,-0.2479,0.4819,
3.771573,0.7333,-0.6699,-0.0419,1.2880,-1.0136,1.8365,0.4431,-0.2479,0.4819,
3.772970,0.7607,-0.7898,0.2674,1.2880,-1.0136,1.8365,0.4431,-0.2479,0.4819,
3.773914,0.6901,-0.9545,0.3490,1.2880,-1.0136,1.8365,0.4431,-0.2479,0.4819,
3.775132,0.7915,-0.9098,0.4450,1.2880,-1.0136,1.8365,0.4431,-0.2479,0.4819,
3.776468,0.7766,-0.8600,0.3725,1.2880,-1.0136,1.8365,0.4431,-0.2479,0.4819,
3.808417,0.7766,-0.8600,0.3725,1.2880,-1.0136,1.8365,0.2865,-0.0892,0.8941,
3.810547,0.7766,-0.8600,0.3725,1.5310,-0.8095,1.7402,0.2865,-0.0892,0.8941,
3.848066,0.7766,-0.8600,0.3725,1.5310,-0.8095,1.7402,0.0298,0.1281,1.8188,
3.850169,0.6212,-0.8734,0.1560,1.5310,-0.8095,1.7402,0.0298,0.1281,1.8188,
3.851170,0.4646,-1.0251,0.1194,1.5310,-0.8095,1.7402,0.0298,0.1281,1.8188,
3.851944,0.3437,-1.0693,0.1690,1.5310,-0.8095,1.7402,0.0298,0.1281,1.8188,
3.852936,0.2929,-0.9814,0.0432,1.5310,-0.8095,1.7402,0.0298,0.1281,1.8188,
3.853722,0.2929,-0.9814,0.0432,0.8649,-0.7433,0.3464,0.0298,0.1281,1.8188,
3.887377,0.2929,-0.9814,0.0432,0.8649,-0.7433,0.3464,-0.1140,-1.0842,2.5091,
3.888778,0.2929,-0.9814,0.0432,1.6134,-0.2515,0.5804,-0.1140,-1.0842,2.5091,
3.927416,0.2929,-0.9814,0.0432,1.6134,-0.2515,0.5804,-0.8171,-1.3750,1.1402,
3.929121,0.2929,-0.9814,0.0432,-1.4599,-0.5670,-0.2923,-0.8171,-1.3750,1.1402,
3.930038,0.1763,-0.8793,0.0077,-1.4599,-0.5670,-0.2923,-0.8171,-1.3750,1.1402,
3.930935,0.1353,-1.0867,0.3366,-1.4599,-0.5670,-0.2923,-0.8171,-1.3750,1.1402,
3.934301,0.3293,-1.3496,0.3639,-1.4599,-0.5670,-0.2923,-0.8171,-1.3750,1.1402,
3.935340,0.4746,-1.2450,0.2217,-1.4599,-0.5670,-0.2923,-0.8171,-1.3750,1.1402,
3.967220,0.4746,-1.2450,0.2217,-1.4599,-0.5670,-0.2923,-1.2975,-0.5452,-0.6154,
3.968876,0.4746,-1.2450,0.2217,-1.2625,-3.0361,2.5120,-1.2975,-0.5452,-0.6154,
4.006971,0.4746,-1.2450,0.2217,-1.2625,-3.0361,2.5120,-1.4786,-0.4184,-0.4300,
4.009400,0.4746,-1.2450,0.2217,-0.5885,0.5220,0.5762,-1.4786,-0.4184,-0.4300,
4.010702,0.3857,-0.8785,0.0839,-0.5885,0.5220,0.5762,-1.4786,-0.4184,-0.4300,
4.011808,0.4416,-0.8294,0.0600,-0.5885,0.5220,0.5762,-1.4786,-0.4184,-0.4300,
4.013444,0.3630,-0.8619,0.0055,-0.5885,0.5220,0.5762,-1.4786,-0.4184,-0.4300,
4.014682,0.2662,-0.8133,0.0219,-0.5885,0.5220,0.5762,-1.4786,-0.4184,-0.4300,
4.047256,0.2662,-0.8133,0.0219,-0.5885,0.5220,0.5762,-0.9375,-0.6272,-0.5632,
4.049498,0.2662,-0.8133,0.0219,-0.7649,0.4020,1.0022,-0.9375,-0.6272,-0.5632,
4.086705,0.2662,-0.8133,0.0219,-0.7649,0.4020,1.0022,-0.3686,-0.7816,-0.7368,
4.088826,0.2662,-0.8133,0.0219,-2.2550,0.3420,0.9196,-0.3686,-0.7816,-0.7368,
4.089849,0.2450,-0.8441,0.0402,-2.2550,0.3420,0.9196,-0.3686,-0.7816,-0.7368,
4.090364,0.2828,-0.8837,-0.0174,-2.2550,0.3420,0.9196,-0.3686,-0.7816,-0.7368,
4.090853,0.2982,-0.8624,-0.0123,-2.2550,0.3420,0.9196,-0.3686,-0.7816,-0.7368,
4.091597,0.3280,-0.6877,0.0116,-2.2550,0.3420,0.9196,-0.3686,-0.7816,-0.7368,
4.126932,0.3280,-0.6877,0.0116,-2.2550,0.3420,0.9196,-0.2259,-0.4418,-0.4449,
4.129528,0.3280,-0.6877,0.0116,-2.3516,0.2435,1.0645,-0.2259,-0.4418,-0.4449,
4.165464,0.3280,-0.6877,0.0116,-2.3516,0.2435,1.0645,-0.4336,0.0077,0.1282,
4.168389,0.3280,-0.6877,0.0116,-1.7021,1.7931,1.1048,-0.4336,0.0077,0.1282,
4.170010,0.3447,-0.5096,0.0190,-1.7021,1.7931,1.1048,-0.4336,0.0077,0.1282,
4.171162,0.2711,-0.5543,-0.0871,-1.7021,1.7931,1.1048,-0.4336,0.0077,0.1282,
4.172591,0.2401,-0.5927,-0.1799,-1.7021,1.7931,1.1048,-0.4336,0.0077,0.1282,
4.173729,0.3495,-0.4263,-0.1831,-1.7021,1.7931,1.1048,-0.4336,0.0077,0.1282,
4.209654,0.3495,-0.4263,-0.1831,-1.7201,3.4750,-0.2685,-0.4336,0.0077,0.1282,
4.211999,0.3495,-0.4263,-0.1831,-1.7201,3.4750,-0.2685,-0.2727,-0.3172,0.8760,
4.244589,0.3495,-0.4263,-0.1831,-1.7201,3.4750,-0.2685,0.1704,-0.6325,0.7631,
4.247097,0.4177,-0.1478,-0.0836,-1.7201,3.4750,-0.2685,0.1704,-0.6325,0.7631,
4.248003,0.3449,-0.0093,-0.1154,-1.7201,3.4750,-0.2685,0.1704,-0.6325,0.7631,
4.248694,0.3872,-0.5277,-0.2828,-1.7201,3.4750,-0.2685,0.1704,-0.6325,0.7631,
4.249635,0.4199,-0.8878,-0.2891,-1.7201,3.4750,-0.2685,0.1704,-0.6325,0.7631,
4.250396,0.4199,-0.8878,-0.2891,-0.4744,6.4100,-0.3162,0.1704,-0.6325,0.7631,
4.283576,0.4199,-0.8878,-0.2891,-0.4744,6.4100,-0.3162,-0.4251,-0.6282,0.8792,
4.285123,0.4199,-0.8878,-0.2891,-0.1346,6.4193,-0.0668,-0.4251,-0.6282,0.8792,
4.323288,0.4199,-0.8878,-0.2891,-0.1346,6.4193,-0.0668,-1.3668,-1.6519,1.2659,
4.324558,0.4199,-0.8878,-0.2891,-0.0592,0.5356,-2.7073,-1.3668,-1.6519,1.2659,
4.325164,0.3618,-0.6623,-0.6805,-0.0592,0.5356,-2.7073,-1.3668,-1.6519,1.2659,
4.325629,0.2198,-0.9577,-0.5512,-0.0592,0.5356,-2.7073,-1.3668,-1.6519,1.2659,
4.326138,0.4087,-1.5374,-0.0338,-0.0592,0.5356,-2.7073,-1.3668,-1.6519,1.2659,
4.326643,0.6838,-1.5181,-0.0944,-0.0592,0.5356,-2.7073,-1.3668,-1.6519,1.2659,
4.363937,0.6838,-1.5181,-0.0944,0.5025,0.7163,-2.6472,-1.3668,-1.6519,1.2659,
4.365955,0.6838,-1.5181,-0.0944,0.5025,0.7163,-2.6472,0.2450,-0.8317,1.4140,
4.403450,0.6838,-1.5181,-0.0944,0.5025,0.7163,-2.6472,1.0088,-0.6687,0.6981,
4.405816,0.6838,-1.5181,-0.0944,3.0459,-4.4742,0.6846,1.0088,-0.6687,0.6981,
4.407052,0.6095,-1.1133,-0.2801,3.0459,-4.4742,0.6846,1.0088,-0.6687,0.6981,
4.408215,0.3034,-1.3031,-0.4323,3.0459,-4.4742,0.6846,1.0088,-0.6687,0.6981,
4.409731,0.2504,-1.7370,-0.4594,3.0459,-4.4742,0.6846,1.0088,-0.6687,0.6981,
4.410750,0.2833,-1.9039,-0.0898,3.0459,-4.4742,0.6846,1.0088,-0.6687,0.6981,
4.442921,0.2833,-1.9039,-0.0898,3.0459,-4.4742,0.6846,0.2301,0.1324,-0.1967,
4.444467,0.2833,-1.9039,-0.0898,0.1371,-6.8915,-1.2632,0.2301,0.1324,-0.1967,
4.483066,0.2833,-1.9039,-0.0898,0.1371,-6.8915,-1.2632,0.2301,1.4522,-0.6271,
4.486137,0.2833,-1.9039,-0.0898,-4.5186,-2.3114,1.3701,0.2301,1.4522,-0.6271,
4.487479,0.1802,-1.7607,-0.0785,-4.5186,-2.3114,1.3701,0.2301,1.4522,-0.6271,
4.488479,-0.0839,-1.1194,0.0947,-4.5186,-2.3114,1.3701,0.2301,1.4522,-0.6271,
4.489989,-0.6057,-0.6579,-0.1098,-4.5186,-2.3114,1.3701,0.2301,1.4522,-0.6271,
4.491099,-0.5989,-0.8387,-0.3167,-4.5186,-2.3114,1.3701,0.2301,1.4522,-0.6271,
4.522154,-0.5989,-0.8387,-0.3167,-4.5186,-2.3114,1.3701,0.3526,0.8013,0.5160,
4.524956,-0.5989,-0.8387,-0.3167,-4.3059,-2.1952,1.1314,0.3526,0.8013,0.5160,
4.562269,-0.5989,-0.8387,-0.3167,-4.3059,-2.1952,1.1314,0.3504,0.5063,1.1487,
4.564787,-0.5989,-0.8387,-0.3167,-4.1755,0.4913,1.3697,0.3504,0.5063,1.1487,
4.566308,-0.1413,-0.9311,0.1125,-4.1755,0.4913,1.3697,0.3504,0.5063,1.1487,
4.567293,0.1260,-0.9831,0.2459,-4.1755,0.4913,1.3697,0.3504,0.5063,1.1487,
4.568340,0.1866,-0.9496,0.1443,-4.1755,0.4913,1.3697,0.3504,0.5063,1.1487,
4.569590,0.2140,-0.8724,0.0217,-4.1755,0.4913,1.3697,0.3504,0.5063,1.1487,
4.601765,0.2140,-0.8724,0.0217,-4.1755,0.4913,1.3697,0.6019,0.2304,0.8387,
4.604227,0.2140,-0.8724,0.0217,-3.8048,0.5750,1.1050,0.6019,0.2304,0.8387,
4.641913,0.2140,-0.8724,0.0217,-3.8048,0.5750,1.1050,0.6924,0.0770,0.5010,
4.644437,0.2140,-0.8724,0.0217,0.3789,0.8676,1.0791,0.6924,0.0770,0.5010,
4.645821,0.2105,-0.8541,-0.0443,0.3789,0.8676,1.0791,0.6924,0.0770,0.5010,
4.646989,0.2086,-0.9345,-0.0976,0.3789,0.8676,1.0791,0.6924,0.0770,0.5010,
4.648005,0.2100,-1.0183,-0.1039,0.3789,0.8676,1.0791,0.6924,0.0770,0.5010,
4.649193,0.1702,-1.0664,-0.0785,0.3789,0.8676,1.0791,0.6924,0.0770,0.5010,
4.680908,0.1702,-1.0664,-0.0785,0.3789,0.8676,1.0791,0.4122,0.3167,0.2731,
4.683449,0.1702,-1.0664,-0.0785,0.3965,-0.2224,-0.4028,0.4122,0.3167,0.2731,
4.721103,0.1409,-1.0740,-0.0570,0.3965,-0.2224,-0.4028,0.4122,0.3167,0.2731,
4.723632,0.1463,-1.0197,-0.0367,0.3965,-0.2224,-0.4028,0.4122,0.3167,0.2731,
4.725012,0.0928,-0.9824,0.0395,0.3965,-0.2224,-0.4028,0.4122,0.3167,0.2731,
4.726475,0.0928,-0.9824,0.0395,0.3965,-0.2224,-0.4028,0.3888,0.2187,0.1729,
4.727605,0.0928,-0.9824,0.0395,-0.2198,-0.3850,0.1701,0.3888,0.2187,0.1729,
4.760822,0.0928,-0.9824,0.0395,-0.2198,-0.3850,0.1701,0.6264,0.0088,0.2955,
4.763438,0.0928,-0.9824,0.0395,-0.8176,0.7308,0.6001,0.6264,0.0088,0.2955,
4.799927,0.0928,-0.9824,0.0395,-0.8176,0.7308,0.6001,0.8309,0.1430,0.3860,
4.802931,0.0928,-0.9824,0.0395,-0.6578,0.7355,0.2695,0.8309,0.1430,0.3860,
4.804274,0.0425,-0.9098,0.0458,-0.6578,0.7355,0.2695,0.8309,0.1430,0.3860,
4.805234,0.0432,-0.9030,0.0483,-0.6578,0.7355,0.2695,0.8309,0.1430,0.3860,
4.806647,0.0725,-0.9247,0.0600,-0.6578,0.7355,0.2695,0.8309,0.1430,0.3860,
4.807641,0.1045,-0.9745,0.0075,-0.6578,0.7355,0.2695,0.8309,0.1430,0.3860,
4.808550,0.0669,-1.0588,-0.1091,-0.6578,0.7355,0.2695,0.8309,0.1430,0.3860,
4.840200,0.0669,-1.0588,-0.1091,-0.6578,0.7355,0.2695,0.7766,0.4008,0.2251,
4.842737,0.0669,-1.0588,-0.1091,-0.5555,0.7213,-0.0455,0.7766,0.4008,0.2251,
4.878867,0.0669,-1.0588,-0.1091,-0.5555,0.7213,-0.0455,0.4463,0.3135,0.2326,
4.881135,0.0669,-1.0588,-0.1091,-0.1808,-0.1684,-1.6747,0.4463,0.3135,0.2326,
4.882590,0.0708,-0.9767,-0.1955,-0.1808,-0.1684,-1.6747,0.4463,0.3135,0.2326,
4.883844,0.0263,-0.9249,-0.1735,-0.1808,-0.1684,-1.6747,0.4463,0.3135,0.2326,
4.884953,0.0490,-0.8802,-0.0636,-0.1808,-0.1684,-1.6747,0.4463,0.3135,0.2326,
4.886546,0.0547,-0.9596,0.0385,-0.1808,-0.1684,-1.6747,0.4463,0.3135,0.2326,
4.918773,0.0547,-0.9596,0.0385,-0.1808,-0.1684,-1.6747,0.4900,0.1345,0.4638,
4.921363,0.0547,-0.9596,0.0385,-0.3594,0.6229,-1.5197,0.4900,0.1345,0.4638,
4.959205,0.0723,-0.9731,0.0598,-0.3594,0.6229,-1.5197,0.4900,0.1345,0.4638,
4.961784,0.1328,-0.9716,0.0400,-0.3594,0.6229,-1.5197,0.4900,0.1345,0.4638,
4.963157,0.1548,-0.9997,-0.0069,-0.3594,0.6229,-1.5197,0.4900,0.1345,0.4638,
4.964154,0.1548,-0.9997,-0.0069,-0.3594,0.6229,-1.5197,0.7020,0.1089,0.6044,
4.965301,0.1548,-0.9997,-0.0069,0.6165,0.0239,-0.8249,0.7020,0.1089,0.6044,
4.998222,0.1548,-0.9997,-0.0069,0.6165,0.0239,-0.8249,0.6690,0.1451,0.5085,
5.000805,0.1548,-0.9997,-0.0069,0.8537,-0.2709,-2.2396,0.6690,0.1451,0.5085,
5.038078,0.1548,-0.9997,-0.0069,0.8537,-0.2709,-2.2396,0.6327,0.3689,0.4052,
5.041242,0.1548,-0.9997,-0.0069,1.0124,-0.2981,-2.4430,0.6327,0.3689,0.4052,
5.042683,0.1519,-0.9826,-0.0951,1.0124,-0.2981,-2.4430,0.6327,0.3689,0.4052,
5.043502,0.1216,-0.9926,-0.1137,1.0124,-0.2981,-2.4430,0.6327,0.3689,0.4052,
5.044611,0.1018,-1.0535,-0.0641,1.0124,-0.2981,-2.4430,0.6327,0.3689,0.4052,
5.045769,0.1341,-1.1216,-0.0827,1.0124,-0.2981,-2.4430,0.6327,0.3689,0.4052,
5.046903,0.1837,-1.2413,-0.1359,1.0124,-0.2981,-2.4430,0.6327,0.3689,0.4052,
5.078064,0.1837,-1.2413,-0.1359,1.0124,-0.2981,-2.4430,0.6040,0.4306,0.4520,
5.080808,0.1837,-1.2413,-0.1359,1.1924,-0.3304,-2.6297,0.6040,0.4306,0.4520,
5.126267,0.1837,-1.2413,-0.1359,1.1924,-0.3304,-2.6297,0.1694,0.0365,0.2038,
5.128482,0.1837,-1.2413,-0.1359,1.8552,-2.1110,-2.8084,0.1694,0.0365,0.2038,
5.129530,0.2457,-1.2181,-0.1039,1.8552,-2.1110,-2.8084,0.1694,0.0365,0.2038,
5.130332,0.2181,-1.2958,-0.0384,1.8552,-2.1110,-2.8084,0.1694,0.0365,0.2038,
5.131055,0.2677,-1.3273,-0.0854,1.8552,-2.1110,-2.8084,0.1694,0.0365,0.2038,
5.131881,0.3107,-1.2316,-0.1012,1.8552,-2.1110,-2.8084,0.1694,0.0365,0.2038,
5.157084,0.3107,-1.2316,-0.1012,1.8552,-2.1110,-2.8084,-0.7425,-0.2671,-0.2020,
5.158846,0.3107,-1.2316,-0.1012,2.4804,-2.9084,-2.1702,-0.7425,-0.2671,-0.2020,
5.196360,0.3107,-1.2316,-0.1012,2.4804,-2.9084,-2.1702,-1.9409,-0.2927,-0.4556,
5.198206,0.3107,-1.2316,-0.1012,0.2513,-0.1891,-3.0960,-1.9409,-0.2927,-0.4556,
5.199298,0.1888,-1.1030,-0.1577,0.2513,-0.1891,-3.0960,-1.9409,-0.2927,-0.4556,
5.200141,0.0476,-0.9919,-0.2923,0.2513,-0.1891,-3.0960,-1.9409,-0.2927,-0.4556,
5.200930,-0.0633,-0.9521,-0.3043,0.2513,-0.1891,-3.0960,-1.9409,-0.2927,-0.4556,
5.201731,-0.1137,-0.9819,-0.0399,0.2513,-0.1891,-3.0960,-1.9409,-0.2927,-0.4556,
5.235532,-0.1137,-0.9819,-0.0399,0.2513,-0.1891,-3.0960,-2.6888,-0.2660,-0.5408,
5.237987,-0.1137,-0.9819,-0.0399,0.0396,-0.1834,-2.0155,-2.6888,-0.2660,-0.5408,
5.275844,-0.1520,-1.0640,0.2511,0.0396,-0.1834,-2.0155,-2.6888,-0.2660,-0.5408,
5.277771,-0.2082,-1.1876,0.3434,0.0396,-0.1834,-2.0155,-2.6888,-0.2660,-0.5408,
5.278741,-0.2849,-1.2372,0.2515,0.0396,-0.1834,-2.0155,-2.6888,-0.2660,-0.5408,
5.279803,-0.2849,-1.2372,0.2515,0.0396,-0.1834,-2.0155,-2.2637,0.3550,-0.5461,
5.280540,-0.2849,-1.2372,0.2515,-2.2602,-0.8704,3.0709,-2.2637,0.3550,-0.5461,
5.315407,-0.2849,-1.2372,0.2515,-2.2602,-0.8704,3.0709,-1.7811,0.4157,-0.2851,
5.317935,-0.2849,-1.2372,0.2515,-3.2316,-2.5290,2.3483,-1.7811,0.4157,-0.2851,
5.355088,-0.2849,-1.2372,0.2515,-3.2316,-2.5290,2.3483,-1.7055,-0.0722,-0.2276,
5.357606,-0.2849,-1.2372,0.2515,-3.2552,-2.6411,2.9458,-1.7055,-0.0722,-0.2276,
5.359160,-0.3174,-1.2406,0.0480,-3.2552,-2.6411,2.9458,-1.7055,-0.0722,-0.2276,
5.360351,-0.1442,-1.2394,-0.1582,-3.2552,-2.6411,2.9458,-1.7055,-0.0722,-0.2276,
5.361627,0.0811,-1.1695,-0.1648,-3.2552,-2.6411,2.9458,-1.7055,-0.0722,-0.2276,
5.362939,0.2303,-1.0283,-0.1408,-3.2552,-2.6411,2.9458,-1.7055,-0.0722,-0.2276,
5.364060,0.3217,-0.9496,-0.1369,-3.2552,-2.6411,2.9458,-1.7055,-0.0722,-0.2276,
5.394653,0.3217,-0.9496,-0.1369,-3.2552,-2.6411,2.9458,-1.5276,-0.3577,-0.7293,
5.397303,0.3217,-0.9496,-0.1369,1.0030,-0.9587,1.5941,-1.5276,-0.3577,-0.7293,
5.433866,0.3217,-0.9496,-0.1369,1.0030,-0.9587,1.5941,-1.2155,-0.7124,-1.0319,
5.437170,0.3217,-0.9496,-0.1369,-0.9592,-0.0125,2.2655,-1.2155,-0.7124,-1.0319,
5.438468,0.2281,-0.9606,-0.1032,-0.9592,-0.0125,2.2655,-1.2155,-0.7124,-1.0319,
5.439732,0.0156,-0.9601,-0.1433,-0.9592,-0.0125,2.2655,-1.2155,-0.7124,-1.0319,
5.440826,-0.1295,-0.8736,-0.1252,-0.9592,-0.0125,2.2655,-1.2155,-0.7124,-1.0319,
5.441945,-0.1970,-0.7789,-0.0663,-0.9592,-0.0125,2.2655,-1.2155,-0.7124,-1.0319,
5.473780,-0.1970,-0.7789,-0.0663,-0.9592,-0.0125,2.2655,-0.9407,-1.0938,-0.7411,
5.476633,-0.1970,-0.7789,-0.0663,-1.0464,-0.1874,2.6186,-0.9407,-1.0938,-0.7411,
5.513143,-0.1938,-0.7229,-0.0228,-1.0464,-0.1874,2.6186,-0.9407,-1.0938,-0.7411,
5.515504,-0.1181,-0.6841,-0.0250,-1.0464,-0.1874,2.6186,-0.9407,-1.0938,-0.7411,
5.519196,-0.0562,-0.6552,-0.0673,-1.0464,-0.1874,2.6186,-0.9407,-1.0938,-0.7411,
5.520831,-0.0562,-0.6552,-0.0673,-1.0464,-0.1874,2.6186,-0.5209,-0.8264,-0.2958,
5.522172,-0.0562,-0.6552,-0.0673,-3.0054,1.6742,3.6282,-0.5209,-0.8264,-0.2958,
5.553570,-0.0562,-0.6552,-0.0673,-3.0054,1.6742,3.6282,-0.0064,-0.5973,-0.0476,
5.556680,-0.0562,-0.6552,-0.0673,-1.4714,2.5335,2.7324,-0.0064,-0.5973,-0.0476,
5.592844,-0.0562,-0.6552,-0.0673,-1.4714,2.5335,2.7324,0.4314,-0.4961,0.0089,
5.595886,-0.0562,-0.6552,-0.0673,-1.3677,2.5577,2.5621,0.4314,-0.4961,0.0089,
5.597449,-0.0352,-0.6310,-0.1149,-1.3677,2.5577,2.5621,0.4314,-0.4961,0.0089,
5.598605,0.0205,-0.6223,-0.2021,-1.3677,2.5577,2.5621,0.4314,-0.4961,0.0089,
5.599980,0.1438,-0.6469,-0.3250,-1.3677,2.5577,2.5621,0.4314,-0.4961,0.0089,
5.601844,0.2626,-0.7043,-0.4547,-1.3677,2.5577,2.5621,0.4314,-0.4961,0.0089,
5.603610,0.3662,-0.8123,-0.5549,-1.3677,2.5577,2.5621,0.4314,-0.4961,0.0089,
5.632501,0.3662,-0.8123,-0.5549,-1.3677,2.5577,2.5621,0.6221,-0.2522,-0.2851,
5.635564,0.3662,-0.8123,-0.5549,1.3034,1.7730,-0.7362,0.6221,-0.2522,-0.2851,
5.671795,0.3662,-0.8123,-0.5549,1.3034,1.7730,-0.7362,0.4335,-0.3513,-0.6644,
5.674380,0.3662,-0.8123,-0.5549,1.7257,-1.1341,-3.6102,0.4335,-0.3513,-0.6644,
5.677183,0.3417,-0.9406,-0.6262,1.7257,-1.1341,-3.6102,0.4335,-0.3513,-0.6644,
5.678481,0.2899,-1.0337,-0.7298,1.7257,-1.1341,-3.6102,0.4335,-0.3513,-0.6644,
5.679910,0.3354,-1.0933,-0.8361,1.7257,-1.1341,-3.6102,0.4335,-0.3513,-0.6644,
5.681192,0.3163,-1.0664,-0.7968,1.7257,-1.1341,-3.6102,0.4335,-0.3513,-0.6644,
5.710461,0.3163,-1.0664,-0.7968,1.7257,-1.1341,-3.6102,0.0128,-0.5547,-0.8604,
5.712858,0.3163,-1.0664,-0.7968,1.4763,-1.1653,-3.5210,0.0128,-0.5547,-0.8604,
5.750962,0.3163,-1.0664,-0.7968,1.4763,-1.1653,-3.5210,0.1203,-0.6091,-0.7442,
5.753798,0.3163,-1.0664,-0.7968,0.5663,-0.1937,-3.2317,0.1203,-0.6091,-0.7442,
5.755131,0.2594,-0.9017,-0.6932,0.5663,-0.1937,-3.2317,0.1203,-0.6091,-0.7442,
5.756372,0.1685,-0.7923,-0.6306,0.5663,-0.1937,-3.2317,0.1203,-0.6091,-0.7442,
5.757602,0.0236,-0.9418,-0.6209,0.5663,-0.1937,-3.2317,0.1203,-0.6091,-0.7442,
5.758844,0.0166,-1.5680,-0.8061,0.5663,-0.1937,-3.2317,0.1203,-0.6091,-0.7442,
5.790132,0.0166,-1.5680,-0.8061,0.5663,-0.1937,-3.2317,-0.0054,-0.4237,-0.6398,
5.792500,0.0166,-1.5680,-0.8061,0.3987,-0.2397,-3.1440,-0.0054,-0.4237,-0.6398,
5.830558,0.0166,-1.5680,-0.8061,0.3987,-0.2397,-3.1440,-0.0032,0.8962,-0.6984,
5.832961,0.0166,-1.5680,-0.8061,-0.5754,-5.7220,-3.0701,-0.0032,0.8962,-0.6984,
5.834415,0.5176,-1.9398,-0.6629,-0.5754,-5.7220,-3.0701,-0.0032,0.8962,-0.6984,
5.835770,0.4079,-0.9330,0.1604,-0.5754,-5.7220,-3.0701,-0.0032,0.8962,-0.6984,
5.836916,-1.0257,-0.0643,0.1123,-0.5754,-5.7220,-3.0701,-0.0032,0.8962,-0.6984,
5.838135,-1.1248,-0.6025,-0.4601,-0.5754,-5.7220,-3.0701,-0.0032,0.8962,-0.6984,
5.870095,-1.1248,-0.6025,-0.4601,-0.5754,-5.7220,-3.0701,0.7584,0.8546,0.9389,
5.872289,-1.1248,-0.6025,-0.4601,-7.7489,3.7180,2.7506,0.7584,0.8546,0.9389,
5.909775,-1.1248,-0.6025,-0.4601,-7.7489,3.7180,2.7506,0.9321,1.7888,0.8260,
5.913187,-1.1248,-0.6025,-0.4601,1.1952,-2.9366,4.3636,0.9321,1.7888,0.8260,
5.914851,0.0085,-1.2794,-0.2505,1.1952,-2.9366,4.3636,0.9321,1.7888,0.8260,
5.916116,0.6171,-1.3806,0.2838,1.1952,-2.9366,4.3636,0.9321,1.7888,0.8260,
5.917389,0.3532,-1.0476,0.4414,1.1952,-2.9366,4.3636,0.9321,1.7888,0.8260,
5.919551,0.1209,-0.8214,-0.0394,1.1952,-2.9366,4.3636,0.9321,1.7888,0.8260,
5.949063,0.1209,-0.8214,-0.0394,1.1952,-2.9366,4.3636,1.2112,0.9260,0.4222,
5.951413,0.1209,-0.8214,-0.0394,1.2337,-2.7349,3.7825,1.2112,0.9260,0.4222,
5.989525,0.1209,-0.8214,-0.0394,1.2337,-2.7349,3.7825,0.8735,0.3902,0.7631,
5.991841,0.0923,-0.8451,-0.2559,1.2337,-2.7349,3.7825,0.8735,0.3902,0.7631,
5.993361,0.0234,-0.9538,-0.1117,1.2337,-2.7349,3.7825,0.8735,0.3902,0.7631,
5.994372,-0.0218,-1.0620,0.0085,1.2337,-2.7349,3.7825,0.8735,0.3902,0.7631,
5.996056,0.0720,-1.0984,0.0287,1.2337,-2.7349,3.7825,0.8735,0.3902,0.7631,
5.997033,0.0720,-1.0984,0.0287,-0.9219,0.9283,0.5376,0.8735,0.3902,0.7631,
6.028217,0.0720,-1.0984,0.0287,-0.9219,0.9283,0.5376,0.8959,0.1846,0.7695,
6.031213,0.0720,-1.0984,0.0287,-0.6329,1.0185,0.1842,0.8959,0.1846,0.7695,
6.069644,0.0720,-1.0984,0.0287,-0.6329,1.0185,0.1842,0.8160,0.0663,0.4744,
6.072983,0.0720,-1.0984,0.0287,-0.6092,-0.8938,1.0956,0.8160,0.0663,0.4744,
6.074320,0.1363,-1.0708,-0.0634,-0.6092,-0.8938,1.0956,0.8160,0.0663,0.4744,
6.075295,0.1089,-0.9753,-0.1520,-0.6092,-0.8938,1.0956,0.8160,0.0663,0.4744,
6.076382,0.0891,-0.9254,-0.1520,-0.6092,-0.8938,1.0956,0.8160,0.0663,0.4744,
6.077447,0.1033,-0.9061,-0.0597,-0.6092,-0.8938,1.0956,0.8160,0.0663,0.4744,
6.107087,0.1033,-0.9061,-0.0597,-0.6092,-0.8938,1.0956,0.5944,0.0301,0.4126,
6.109756,0.1033,-0.9061,-0.0597,-0.0757,0.5273,-0.2330,0.5944,0.0301,0.4126,
6.147332,0.1646,-0.9037,0.0348,-0.0757,0.5273,-0.2330,0.5944,0.0301,0.4126,
6.149933,0.1983,-0.9066,0.1113,-0.0757,0.5273,-0.2330,0.5944,0.0301,0.4126,
6.151283,0.1631,-0.9157,0.0563,-0.0757,0.5273,-0.2330,0.5944,0.0301,0.4126,
6.153555,0.1631,-0.9157,0.0563,-0.0757,0.5273,-0.2330,0.9651,0.2059,0.2763,
6.155060,0.1631,-0.9157,0.0563,0.7462,0.8180,1.2164,0.9651,0.2059,0.2763,
6.186623,0.1631,-0.9157,0.0563,0.7462,0.8180,1.2164,1.2293,0.1025,0.2156,
6.191655,0.1631,-0.9157,0.0563,0.1454,0.3439,-1.6847,1.2293,0.1025,0.2156,
6.226271,0.1631,-0.9157,0.0563,0.1454,0.3439,-1.6847,0.8234,-0.0040,0.2251,
6.228618,0.1631,-0.9157,0.0563,0.2283,0.3439,-1.9690,0.8234,-0.0040,0.2251,
6.230001,0.1226,-0.9516,-0.0981,0.2283,0.3439,-1.9690,0.8234,-0.0040,0.2251,
6.231278,0.1082,-0.9772,-0.2107,0.2283,0.3439,-1.9690,0.8234,-0.0040,0.2251,
6.232536,0.0872,-0.9477,-0.2393,0.2283,0.3439,-1.9690,0.8234,-0.0040,0.2251,
6.233890,0.0442,-0.9281,-0.2278,0.2283,0.3439,-1.9690,0.8234,-0.0040,0.2251,
6.235118,0.0307,-0.9442,-0.1342,0.2283,0.3439,-1.9690,0.8234,-0.0040,0.2251,
6.266372,0.0307,-0.9442,-0.1342,0.2283,0.3439,-1.9690,0.4751,0.1004,0.2955,
6.268286,0.0307,-0.9442,-0.1342,0.3379,0.3418,-2.1195,0.4751,0.1004,0.2955,
6.306410,0.0307,-0.9442,-0.1342,0.3379,0.3418,-2.1195,0.5518,0.1835,0.3604,
6.309345,0.0446,-0.9574,-0.0436,0.3379,0.3418,-2.1195,0.5518,0.1835,0.3604,
6.310761,0.0759,-0.9716,0.0082,0.3379,0.3418,-2.1195,0.5518,0.1835,0.3604,
6.311880,0.0969,-0.9838,0.0331,0.3379,0.3418,-2.1195,0.5518,0.1835,0.3604,
6.313257,0.0845,-0.9604,0.0053,0.3379,0.3418,-2.1195,0.5518,0.1835,0.3604,
6.314192,0.0845,-0.9604,0.0053,-0.1651,0.4854,-1.8405,0.5518,0.1835,0.3604,
6.344826,0.0845,-0.9604,0.0053,-0.1651,0.4854,-1.8405,0.7212,0.2442,0.3721,
6.347465,0.0845,-0.9604,0.0053,0.4275,0.1896,-0.6349,0.7212,0.2442,0.3721,
6.385095,0.0845,-0.9604,0.0053,0.4275,0.1896,-0.6349,0.7286,0.4242,0.4041,
6.387476,0.0845,-0.9604,0.0053,0.5236,-0.0538,-0.9783,0.7286,0.4242,0.4041,
6.388813,0.0681,-0.9550,-0.0101,0.5236,-0.0538,-0.9783,0.7286,0.4242,0.4041,
6.390149,0.0867,-0.9912,-0.0187,0.5236,-0.0538,-0.9783,0.7286,0.4242,0.4041,
6.391909,0.0823,-1.0378,0.0527,0.5236,-0.0538,-0.9783,0.7286,0.4242,0.4041,
6.393306,0.0361,-1.0938,0.0962,0.5236,-0.0538,-0.9783,0.7286,0.4242,0.4041,
6.426626,0.0361,-1.0938,0.0962,0.5236,-0.0538,-0.9783,0.8575,0.4679,0.4765,
6.429247,0.0361,-1.0938,0.0962,0.7168,-0.0910,-1.2879,0.8575,0.4679,0.4765,
6.464883,0.0361,-1.0938,0.0962,0.7168,-0.0910,-1.2879,0.7286,0.3891,0.6651,
6.467326,0.0361,-1.0938,0.0962,0.8887,-1.4135,-1.8365,0.7286,0.3891,0.6651,
6.468613,0.0456,-1.1368,-0.0275,0.8887,-1.4135,-1.8365,0.7286,0.3891,0.6651,
6.470190,0.1277,-1.1517,-0.1374,0.8887,-1.4135,-1.8365,0.7286,0.3891,0.6651,
6.471251,0.2372,-1.1817,-0.1284,0.8887,-1.4135,-1.8365,0.7286,0.3891,0.6651,
6.472679,0.3688,-1.2491,-0.0492,0.8887,-1.4135,-1.8365,0.7286,0.3891,0.6651,
6.504801,0.3688,-1.2491,-0.0492,0.8887,-1.4135,-1.8365,0.3313,0.0013,0.3519,
6.507673,0.3688,-1.2491,-0.0492,1.0057,-1.4153,-1.9302,0.3313,0.0013,0.3519,
6.543772,0.3688,-1.2491,-0.0492,1.0057,-1.4153,-1.9302,-0.2184,-0.2628,-0.4225,
6.546290,0.3688,-1.2491,-0.0492,3.6014,-2.6396,-2.1363,-0.2184,-0.2628,-0.4225,
6.547635,0.4715,-1.3454,0.0099,3.6014,-2.6396,-2.1363,-0.2184,-0.2628,-0.4225,
6.548753,0.4114,-1.4290,-0.0152,3.6014,-2.6396,-2.1363,-0.2184,-0.2628,-0.4225,
6.550110,0.1465,-1.3491,-0.1782,3.6014,-2.6396,-2.1363,-0.2184,-0.2628,-0.4225,
6.551230,-0.0758,-1.1627,-0.3331,3.6014,-2.6396,-2.1363,-0.2184,-0.2628,-0.4225,
6.583027,-0.0758,-1.1627,-0.3331,3.6014,-2.6396,-2.1363,-1.5596,-0.2149,-0.5205,
6.585370,-0.0758,-1.1627,-0.3331,1.4201,-3.0459,-2.6613,-1.5596,-0.2149,-0.5205,
6.622586,-0.0758,-1.1627,-0.3331,1.4201,-3.0459,-2.6613,-2.5194,-0.4088,-0.4801,
6.625157,-0.0758,-1.1627,-0.3331,-1.4732,-0.2626,-0.5171,-2.5194,-0.4088,-0.4801,
6.626746,-0.1198,-1.0473,-0.2437,-1.4732,-0.2626,-0.5171,-2.5194,-0.4088,-0.4801,
6.627876,-0.1051,-1.0224,-0.0526,-1.4732,-0.2626,-0.5171,-2.5194,-0.4088,-0.4801,
6.629183,-0.1269,-1.0324,0.1211,-1.4732,-0.2626,-0.5171,-2.5194,-0.4088,-0.4801,
6.630191,-0.1909,-1.0300,0.2567,-1.4732,-0.2626,-0.5171,-2.5194,-0.4088,-0.4801,
6.662083,-0.1909,-1.0300,0.2567,-1.6722,-0.3118,0.3585,-2.5194,-0.4088,-0.4801,
6.664464,-0.1909,-1.0300,0.2567,-1.6722,-0.3118,0.3585,-2.2648,0.0993,-0.5738,
6.702019,-0.1909,-1.0300,0.2567,-1.6722,-0.3118,0.3585,-1.9963,0.5670,-0.3277,
6.705005,-0.1909,-1.0300,0.2567,-3.1541,-0.3207,3.9268,-1.9963,0.5670,-0.3277,
6.707040,-0.2798,-1.0161,0.2814,-3.1541,-0.3207,3.9268,-1.9963,0.5670,-0.3277,
6.708441,-0.3028,-1.0263,0.1670,-3.1541,-0.3207,3.9268,-1.9963,0.5670,-0.3277,
6.709532,-0.2414,-1.0684,0.0326,-3.1541,-0.3207,3.9268,-1.9963,0.5670,-0.3277,
6.710692,-0.1120,-1.0901,-0.0783,-3.1541,-0.3207,3.9268,-1.9963,0.5670,-0.3277,
6.741271,-0.1120,-1.0901,-0.0783,-3.1541,-0.3207,3.9268,-1.9527,0.0439,-0.1168,
6.743397,-0.1120,-1.0901,-0.0783,-3.1477,-0.4701,4.5936,-1.9527,0.0439,-0.1168,
6.781814,-0.1120,-1.0901,-0.0783,-3.1477,-0.4701,4.5936,-1.6416,-0.0562,-0.3437,
6.784160,-0.1120,-1.0901,-0.0783,-1.7016,-1.0200,2.4296,-1.6416,-0.0562,-0.3437,
6.785475,0.0515,-1.0329,-0.0885,-1.7016,-1.0200,2.4296,-1.6416,-0.0562,-0.3437,
6.786568,0.1482,-0.9882,-0.0585,-1.7016,-1.0200,2.4296,-1.6416,-0.0562,-0.3437,
6.787947,0.2093,-0.9420,-0.0714,-1.7016,-1.0200,2.4296,-1.6416,-0.0562,-0.3437,
6.789305,0.1646,-0.9362,-0.0570,-1.7016,-1.0200,2.4296,-1.6416,-0.0562,-0.3437,
6.821468,0.1646,-0.9362,-0.0570,-1.7016,-1.0200,2.4296,-1.1633,-0.3534,-0.7762,
6.823933,0.1646,-0.9362,-0.0570,0.7352,-0.1247,2.6541,-1.1633,-0.3534,-0.7762,
6.861212,0.1646,-0.9362,-0.0570,0.7352,-0.1247,2.6541,-0.8448,-0.7880,-0.9115,
6.863737,0.1646,-0.9362,-0.0570,-1.6188,-0.0183,2.0850,-0.8448,-0.7880,-0.9115,
6.865112,0.0916,-0.9296,-0.1349,-1.6188,-0.0183,2.0850,-0.8448,-0.7880,-0.9115,
6.866201,-0.0719,-0.9484,-0.2234,-1.6188,-0.0183,2.0850,-0.8448,-0.7880,-0.9115,
6.867462,-0.1584,-0.9088,-0.0963,-1.6188,-0.0183,2.0850,-0.8448,-0.7880,-0.9115,
6.868489,-0.1403,-0.8160,0.0019,-1.6188,-0.0183,2.0850,-0.8448,-0.7880,-0.9115,
6.899574,-0.1403,-0.8160,0.0019,-1.6188,-0.0183,2.0850,-0.4677,-0.6410,-0.5738,
6.901908,-0.1403,-0.8160,0.0019,-1.7020,-0.1122,2.2455,-0.4677,-0.6410,-0.5738,
6.939236,-0.1046,-0.7481,-0.0416,-1.7020,-0.1122,2.2455,-0.4677,-0.6410,-0.5738,
6.941355,-0.0169,-0.7596,-0.1486,-1.7020,-0.1122,2.2455,-0.4677,-0.6410,-0.5738,
6.942588,0.0696,-0.8104,-0.2754,-1.7020,-0.1122,2.2455,-0.4677,-0.6410,-0.5738,
6.943860,0.0696,-0.8104,-0.2754,-1.7020,-0.1122,2.2455,-0.0693,-0.2373,-0.2468,
6.944945,0.0696,-0.8104,-0.2754,-2.1207,1.3552,3.0995,-0.0693,-0.2373,-0.2468,
6.978632,0.0696,-0.8104,-0.2754,-2.1207,1.3552,3.0995,0.0117,-0.5632,-0.2074,
6.980463,0.0696,-0.8104,-0.2754,0.0196,1.0471,0.5501,0.0117,-0.5632,-0.2074,
7.010274,0.1365,-0.8214,-0.3526,0.0196,1.0471,0.5501,0.0117,-0.5632,-0.2074,
7.012292,0.1844,-0.7781,-0.3453,0.0196,1.0471,0.5501,0.0117,-0.5632,-0.2074,
7.013672,0.1951,-0.7461,-0.3255,0.0196,1.0471,0.5501,0.0117,-0.5632,-0.2074,
7.014824,0.2232,-0.7488,-0.3218,0.0196,1.0471,0.5501,0.0117,-0.5632,-0.2074,
7.017942,0.2232,-0.7488,-0.3218,0.0196,1.0471,0.5501,0.1768,-0.6133,-0.2819,
7.019444,0.2232,-0.7488,-0.3218,0.0101,1.0414,0.5096,0.1768,-0.6133,-0.2819,
7.057844,0.2232,-0.7488,-0.3218,0.0101,1.0414,0.5096,0.4804,-0.3396,-0.3554,
7.059765,0.2232,-0.7488,-0.3218,0.7464,1.5156,0.2739,0.4804,-0.3396,-0.3554,
7.081547,0.2249,-0.7774,-0.3499,0.7464,1.5156,0.2739,0.4804,-0.3396,-0.3554,
7.083726,0.2198,-0.8184,-0.4108,0.7464,1.5156,0.2739,0.4804,-0.3396,-0.3554,
7.084750,0.2269,-0.8812,-0.5200,0.7464,1.5156,0.2739,0.4804,-0.3396,-0.3554,
7.085976,0.2100,-0.9545,-0.6524,0.7464,1.5156,0.2739,0.4804,-0.3396,-0.3554,
7.096665,0.2100,-0.9545,-0.6524,0.7464,1.5156,0.2739,0.4687,-0.4919,-0.5014,
7.097953,0.2100,-0.9545,-0.6524,0.6684,0.2994,-1.7491,0.4687,-0.4919,-0.5014,
7.136629,0.2100,-0.9545,-0.6524,0.6684,0.2994,-1.7491,-0.0171,-0.8093,-0.6185,
7.138682,0.2100,-0.9545,-0.6524,1.0779,-0.8280,-3.7899,-0.0171,-0.8093,-0.6185,
7.169232,0.2203,-0.9997,-0.7601,1.0779,-0.8280,-3.7899,-0.0171,-0.8093,-0.6185,
7.171303,0.2936,-1.0136,-0.7931,1.0779,-0.8280,-3.7899,-0.0171,-0.8093,-0.6185,
7.173253,0.3073,-0.9780,-0.6912,1.0779,-0.8280,-3.7899,-0.0171,-0.8093,-0.6185,
7.174449,0.2450,-0.8697,-0.5537,1.0779,-0.8280,-3.7899,-0.0171,-0.8093,-0.6185,
7.179118,0.2450,-0.8697,-0.5537,1.0779,-0.8280,-3.7899,-0.2695,-0.7358,-0.6984,
7.181327,0.2450,-0.8697,-0.5537,0.9210,-0.8977,-3.5854,-0.2695,-0.7358,-0.6984,
7.215378,0.2450,-0.8697,-0.5537,0.9210,-0.8977,-3.5854,0.1715,-0.7731,-0.5930,
7.216886,0.2450,-0.8697,-0.5537,-0.3638,0.9879,-0.7381,0.1715,-0.7731,-0.5930,
7.255328,0.2450,-0.8697,-0.5537,-0.3638,0.9879,-0.7381,0.6040,-0.6964,-0.4950,
7.257535,0.2450,-0.8697,-0.5537,-0.4285,1.0216,-0.8832,0.6040,-0.6964,-0.4950,
7.258861,0.1407,-0.7625,-0.4692,-0.4285,1.0216,-0.8832,0.6040,-0.6964,-0.4950,
7.260015,0.0688,-0.7715,-0.3524,-0.4285,1.0216,-0.8832,0.6040,-0.6964,-0.4950,
7.261120,0.1443,-1.1399,-0.4171,-0.4285,1.0216,-0.8832,0.6040,-0.6964,-0.4950,
7.262242,0.4033,-1.6479,-0.4970,-0.4285,1.0216,-0.8832,0.6040,-0.6964,-0.4950,
7.263568,0.2763,-1.5584,-0.3793,-0.4285,1.0216,-0.8832,0.6040,-0.6964,-0.4950,
7.294474,0.2763,-1.5584,-0.3793,-0.4285,1.0216,-0.8832,0.1587,0.5713,-0.3735,
7.296002,0.2763,-1.5584,-0.3793,0.5574,-5.2421,-0.7060,0.1587,0.5713,-0.3735,
7.334907,-0.5451,-0.9022,-0.3311,0.5574,-5.2421,-0.7060,0.1587,0.5713,-0.3735,
7.336682,-0.7032,-0.5827,-0.1433,0.5574,-5.2421,-0.7060,0.1587,0.5713,-0.3735,
7.338020,-0.3431,-0.8736,-0.1225,0.5574,-5.2421,-0.7060,0.1587,0.5713,-0.3735,
7.339196,-0.3431,-0.8736,-0.1225,0.5574,-5.2421,-0.7060,0.4825,0.6682,0.6587,
7.340666,-0.3431,-0.8736,-0.1225,-7.0674,1.3474,1.3192,0.4825,0.6682,0.6587,
7.374124,-0.3431,-0.8736,-0.1225,-7.0674,1.3474,1.3192,1.0759,1.4117,0.9026,
7.376188,-0.3431,-0.8736,-0.1225,1.4575,-0.9355,3.9420,1.0759,1.4117,0.9026,
7.413464,-0.3431,-0.8736,-0.1225,1.4575,-0.9355,3.9420,1.1696,1.1508,0.4606,
7.415331,-0.3431,-0.8736,-0.1225,1.4899,-0.7775,3.3747,1.1696,1.1508,0.4606,
7.416942,0.2232,-1.0769,0.0905,1.4899,-0.7775,3.3747,1.1696,1.1508,0.4606,
7.418150,0.4578,-1.0913,0.1712,1.4899,-0.7775,3.3747,1.1696,1.1508,0.4606,
7.419524,0.2965,-0.9530,0.1147,1.4899,-0.7775,3.3747,1.1696,1.1508,0.4606,
7.420689,0.1495,-0.8162,-0.1137,1.4899,-0.7775,3.3747,1.1696,1.1508,0.4606,
7.421690,0.0891,-0.8253,-0.2793,1.4899,-0.7775,3.3747,1.1696,1.1508,0.4606,
7.453411,0.0891,-0.8253,-0.2793,1.4899,-0.7775,3.3747,0.8447,0.2687,0.3285,
7.455205,0.0891,-0.8253,-0.2793,1.5647,-0.6783,2.9892,0.8447,0.2687,0.3285,
7.493616,0.0891,-0.8253,-0.2793,1.5647,-0.6783,2.9892,0.4964,0.1952,0.4222,
7.495326,0.0891,-0.8253,-0.2793,-0.6382,1.1030,-0.4008,0.4964,0.1952,0.4222,
7.497714,0.0163,-0.9467,-0.2092,-0.6382,1.1030,-0.4008,0.4964,0.1952,0.4222,
7.499071,0.0063,-0.9914,-0.0597,-0.6382,1.1030,-0.4008,0.4964,0.1952,0.4222,
7.500107,0.0036,-0.9855,-0.0248,-0.6382,1.1030,-0.4008,0.4964,0.1952,0.4222,
7.501106,0.0315,-0.9987,-0.0827,-0.6382,1.1030,-0.4008,0.4964,0.1952,0.4222,
7.532617,0.0315,-0.9987,-0.0827,-0.6382,1.1030,-0.4008,0.5752,0.2570,0.4691,
7.534584,0.0315,-0.9987,-0.0827,-1.1527,-0.1021,0.7746,0.5752,0.2570,0.4691,
7.572728,0.1331,-1.0236,-0.1613,-1.1527,-0.1021,0.7746,0.5752,0.2570,0.4691,
7.574553,0.1934,-1.0300,-0.1479,-1.1527,-0.1021,0.7746,0.5752,0.2570,0.4691,
7.575708,0.2460,-0.9604,-0.0839,-1.1527,-0.1021,0.7746,0.5752,0.2570,0.4691,
7.577258,0.2460,-0.9604,-0.0839,-1.1527,-0.1021,0.7746,0.5007,0.1004,0.4233,
7.578481,0.2460,-0.9604,-0.0839,0.7267,-0.1798,-0.1570,0.5007,0.1004,0.4233,
7.612667,0.2460,-0.9604,-0.0839,0.7267,-0.1798,-0.1570,0.5518,-0.0296,0.1911,
7.614559,0.2460,-0.9604,-0.0839,1.1221,0.5620,1.3886,0.5518,-0.0296,0.1911,
7.651554,0.2460,-0.9604,-0.0839,1.1221,0.5620,1.3886,0.9854,0.0077,0.0100,
7.653447,0.2460,-0.9604,-0.0839,1.1070,0.5801,0.9927,0.9854,0.0077,0.0100,
7.654723,0.2833,-0.9147,-0.0226,1.1070,0.5801,0.9927,0.9854,0.0077,0.0100,
7.655956,0.2420,-0.9340,0.0761,1.1070,0.5801,0.9927,0.9854,0.0077,0.0100,
7.657124,0.1512,-0.9447,0.0981,1.1070,0.5801,0.9927,0.9854,0.0077,0.0100,
7.658141,0.0534,-0.9508,-0.0231,1.1070,0.5801,0.9927,0.9854,0.0077,0.0100,
7.659352,-0.0262,-0.9506,-0.1357,1.1070,0.5801,0.9927,0.9854,0.0077,0.0100,
7.691266,-0.0262,-0.9506,-0.1357,1.1070,0.5801,0.9927,1.0130,0.0184,0.1303,
7.693155,-0.0262,-0.9506,-0.1357,1.1377,0.5878,0.5921,1.0130,0.0184,0.1303,
7.730966,-0.0262,-0.9506,-0.1357,1.1377,0.5878,0.5921,0.6700,0.0791,0.3594,
7.732982,-0.0262,-0.9506,-0.1357,-1.0325,0.4052,-1.2867,0.6700,0.0791,0.3594,
7.734172,-0.0628,-0.9499,-0.1914,-1.0325,0.4052,-1.2867,0.6700,0.0791,0.3594,
7.735279,-0.0431,-0.9645,-0.1735,-1.0325,0.4052,-1.2867,0.6700,0.0791,0.3594,
7.736415,0.0090,-0.9653,-0.0959,-1.0325,0.4052,-1.2867,0.6700,0.0791,0.3594,
7.737352,0.0615,-0.9626,-0.0138,-1.0325,0.4052,-1.2867,0.6700,0.0791,0.3594,
7.770570,0.0615,-0.9626,-0.0138,-1.0325,0.4052,-1.2867,0.6359,0.2996,0.4329,
7.772409,0.0615,-0.9626,-0.0138,-0.6456,0.2740,-1.3007,0.6359,0.2996,0.4329,
7.810358,0.0984,-0.9711,0.0388,-0.6456,0.2740,-1.3007,0.6359,0.2996,0.4329,
7.812255,0.1023,-0.9750,0.0246,-0.6456,0.2740,-1.3007,0.6359,0.2996,0.4329,
7.813423,0.0964,-0.9482,-0.0751,-0.6456,0.2740,-1.3007,0.6359,0.2996,0.4329,
7.814607,0.0964,-0.9482,-0.0751,-0.6456,0.2740,-1.3007,0.8746,0.3784,0.3977,
7.815929,0.0964,-0.9482,-0.0751,0.3903,0.2546,-0.7481,0.8746,0.3784,0.3977,
7.850471,0.0964,-0.9482,-0.0751,0.8686,0.0904,-2.4061,0.8746,0.3784,0.3977,
7.852477,0.0964,-0.9482,-0.0751,0.8686,0.0904,-2.4061,0.6903,0.3412,0.4659,
7.889389,0.0964,-0.9482,-0.0751,0.8686,0.0904,-2.4061,0.2982,0.3699,0.4403,
7.891067,0.0964,-0.9482,-0.0751,1.0349,0.0827,-2.4831,0.2982,0.3699,0.4403,
7.892555,0.1047,-0.9435,-0.1799,1.0349,0.0827,-2.4831,0.2982,0.3699,0.4403,
7.893433,0.1228,-0.9985,-0.1753,1.0349,0.0827,-2.4831,0.2982,0.3699,0.4403,
7.894632,0.1622,-0.9978,-0.0934,1.0349,0.0827,-2.4831,0.2982,0.3699,0.4403,
7.895575,0.1829,-0.9565,-0.0157,1.0349,0.0827,-2.4831,0.2982,0.3699,0.4403,
7.896896,0.1663,-0.9833,0.0163,1.0349,0.0827,-2.4831,0.2982,0.3699,0.4403,
7.929176,0.1663,-0.9833,0.0163,1.0349,0.0827,-2.4831,0.4026,0.4093,0.2124,
7.931035,0.1663,-0.9833,0.0163,1.1152,0.0657,-2.5964,0.4026,0.4093,0.2124,
7.969518,0.1663,-0.9833,0.0163,1.1152,0.0657,-2.5964,0.5315,0.5063,0.2305,
7.971636,0.1663,-0.9833,0.0163,1.5067,-0.1571,-1.3238,0.5315,0.5063,0.2305,
7.973570,0.1336,-1.0613,-0.0035,1.5067,-0.1571,-1.3238,0.5315,0.5063,0.2305,
7.975166,0.0872,-1.0979,-0.0758,1.5067,-0.1571,-1.3238,0.5315,0.5063,0.2305,
7.976778,0.0764,-1.1539,-0.1474,1.5067,-0.1571,-1.3238,0.5315,0.5063,0.2305,
7.978179,0.1524,-1.2394,-0.1142,1.5067,-0.1571,-1.3238,0.5315,0.5063,0.2305,
8.008434,0.1524,-1.2394,-0.1142,1.5067,-0.1571,-1.3238,0.1896,0.2112,0.3381,
8.010346,0.1524,-1.2394,-0.1142,1.0837,-1.7387,-2.4474,0.1896,0.2112,0.3381,
8.048043,0.1524,-1.2394,-0.1142,1.0837,-1.7387,-2.4474,-0.2077,-0.2373,-0.1584,
8.049858,0.1524,-1.2394,-0.1142,3.0084,-3.6704,-2.3709,-0.2077,-0.2373,-0.1584,
8.051271,0.2860,-1.3215,-0.0472,3.0084,-3.6704,-2.3709,-0.2077,-0.2373,-0.1584,
8.052619,0.3813,-1.3921,-0.0724,3.0084,-3.6704,-2.3709,-0.2077,-0.2373,-0.1584,
8.053810,0.2758,-1.3913,-0.2310,3.0084,-3.6704,-2.3709,-0.2077,-0.2373,-0.1584,
8.055119,0.0512,-1.2132,-0.4484,3.0084,-3.6704,-2.3709,-0.2077,-0.2373,-0.1584,
8.087467,0.0512,-1.2132,-0.4484,3.0084,-3.6704,-2.3709,-1.3199,-0.3683,-0.4119,
8.089495,0.0512,-1.2132,-0.4484,2.7872,-3.5619,-1.8267,-1.3199,-0.3683,-0.4119,
8.127494,0.0512,-1.2132,-0.4484,2.7872,-3.5619,-1.8267,-2.5758,-0.4706,-0.3064,
8.129371,0.0512,-1.2132,-0.4484,-0.7010,-0.9278,-3.1466,-2.5758,-0.4706,-0.3064,
8.130648,-0.0883,-1.0574,-0.4596,-0.7010,-0.9278,-3.1466,-2.5758,-0.4706,-0.3064,
8.131899,-0.0536,-1.0368,-0.1733,-0.7010,-0.9278,-3.1466,-2.5758,-0.4706,-0.3064,
8.133220,-0.0152,-1.0439,0.1888,-0.7010,-0.9278,-3.1466,-2.5758,-0.4706,-0.3064,
8.134157,-0.1320,-1.0742,0.3473,-0.7010,-0.9278,-3.1466,-2.5758,-0.4706,-0.3064,
8.166790,-0.1320,-1.0742,0.3473,-0.7010,-0.9278,-3.1466,-2.3244,0.0642,-0.3970,
8.168747,-0.1320,-1.0742,0.3473,-0.8451,-0.9958,-2.2046,-2.3244,0.0642,-0.3970,
8.206508,-0.1320,-1.0742,0.3473,-0.8451,-0.9958,-2.2046,-1.9516,0.5595,-0.2947,
8.208692,-0.1320,-1.0742,0.3473,-2.0157,-0.9335,4.7343,-1.9516,0.5595,-0.2947,
8.210219,-0.2654,-1.1326,0.3050,-2.0157,-0.9335,4.7343,-1.9516,0.5595,-0.2947,
8.211809,-0.2703,-1.1375,0.0996,-2.0157,-0.9335,4.7343,-1.9516,0.5595,-0.2947,
8.213262,-0.1681,-1.1087,-0.0702,-2.0157,-0.9335,4.7343,-1.9516,0.5595,-0.2947,
8.214487,-0.0384,-1.1238,-0.1518,-2.0157,-0.9335,4.7343,-1.9516,0.5595,-0.2947,
8.245881,-0.0384,-1.1238,-0.1518,-2.0157,-0.9335,4.7343,-2.0166,0.1931,-0.2393,
8.247780,-0.0384,-1.1238,-0.1518,-2.2949,-1.4938,2.3090,-2.0166,0.1931,-0.2393,
8.285498,-0.0384,-1.1238,-0.1518,-2.2949,-1.4938,2.3090,-2.0272,-0.0743,-0.5003,
8.287489,-0.0384,-1.1238,-0.1518,0.2414,-0.9294,1.9328,-2.0272,-0.0743,-0.5003,
8.288879,0.0791,-1.0811,-0.1853,0.2414,-0.9294,1.9328,-2.0272,-0.0743,-0.5003,
8.290254,0.1341,-1.0344,-0.1613,0.2414,-0.9294,1.9328,-2.0272,-0.0743,-0.5003,
8.291382,0.1416,-1.0056,-0.1127,0.2414,-0.9294,1.9328,-2.0272,-0.0743,-0.5003,
8.293191,0.1113,-0.9907,-0.0971,0.2414,-0.9294,1.9328,-2.0272,-0.0743,-0.5003,
8.325576,0.1113,-0.9907,-0.0971,0.2414,-0.9294,1.9328,-1.6597,-0.5792,-0.8774,
8.328043,0.1113,-0.9907,-0.0971,0.0116,-1.1915,2.5145,-1.6597,-0.5792,-0.8774,
8.365115,0.1113,-0.9907,-0.0971,0.0116,-1.1915,2.5145,-1.4658,-0.7220,-1.0574,
8.367172,0.1113,-0.9907,-0.0971,-0.8473,-0.9731,2.4366,-1.4658,-0.7220,-1.0574,
8.368386,0.0417,-1.0007,-0.2603,-0.8473,-0.9731,2.4366,-1.4658,-0.7220,-1.0574,
8.369864,0.0102,-0.9753,-0.2818,-0.8473,-0.9731,2.4366,-1.4658,-0.7220,-1.0574,
8.370881,-0.0084,-0.9249,-0.2036,-0.8473,-0.9731,2.4366,-1.4658,-0.7220,-1.0574,
8.371714,-0.0194,-0.8722,-0.2043,-0.8473,-0.9731,2.4366,-1.4658,-0.7220,-1.0574,
8.404509,-0.0194,-0.8722,-0.2043,-0.8473,-0.9731,2.4366,-1.1910,-0.5899,-0.9573,
8.406750,-0.0194,-0.8722,-0.2043,-1.0442,-1.2327,2.8285,-1.1910,-0.5899,-0.9573,
8.444171,-0.0194,-0.8722,-0.2043,-1.0442,-1.2327,2.8285,-0.8416,-0.6559,-0.7496,
8.446312,-0.0194,-0.8722,-0.2043,-1.6969,-0.2517,3.1944,-0.8416,-0.6559,-0.7496,
8.447681,0.0178,-0.8038,-0.2009,-1.6969,-0.2517,3.1944,-0.8416,-0.6559,-0.7496,
8.449164,0.0449,-0.7307,-0.2165,-1.6969,-0.2517,3.1944,-0.8416,-0.6559,-0.7496,
8.450376,0.0212,-0.6704,-0.2674,-1.6969,-0.2517,3.1944,-0.8416,-0.6559,-0.7496,
8.451687,-0.0018,-0.6225,-0.2881,-1.6969,-0.2517,3.1944,-0.8416,-0.6559,-0.7496,
8.483899,-0.0018,-0.6225,-0.2881,-1.6969,-0.2517,3.1944,-0.2983,-0.5174,-0.3884,
8.486004,-0.0018,-0.6225,-0.2881,-1.4480,1.5206,2.7462,-0.2983,-0.5174,-0.3884,
8.523716,-0.0018,-0.6225,-0.2881,-1.4480,1.5206,2.7462,0.3068,-0.3715,-0.0167,
8.525237,-0.0018,-0.6225,-0.2881,-1.2692,2.3226,2.2443,0.3068,-0.3715,-0.0167,
8.526853,0.0122,-0.5966,-0.2957,-1.2692,2.3226,2.2443,0.3068,-0.3715,-0.0167,
8.528176,0.0178,-0.5907,-0.2923,-1.2692,2.3226,2.2443,0.3068,-0.3715,-0.0167,
8.529291,0.0605,-0.5978,-0.3030,-1.2692,2.3226,2.2443,0.3068,-0.3715,-0.0167,
8.530645,0.1492,-0.6069,-0.3556,-1.2692,2.3226,2.2443,0.3068,-0.3715,-0.0167,
8.562915,0.1492,-0.6069,-0.3556,-1.2692,2.3226,2.2443,0.8394,-0.3875,0.1069,
8.564892,0.1492,-0.6069,-0.3556,-1.1374,2.4548,1.9601,0.8394,-0.3875,0.1069,
8.602623,0.2091,-0.6288,-0.4264,-1.1374,2.4548,1.9601,0.8394,-0.3875,0.1069,
8.604730,0.2543,-0.7107,-0.5420,-1.1374,2.4548,1.9601,0.8394,-0.3875,0.1069,
8.606185,0.2789,-0.8612,-0.6922,-1.1374,2.4548,1.9601,0.8394,-0.3875,0.1069,
8.607600,0.2789,-0.8612,-0.6922,-1.1374,2.4548,1.9601,1.0088,-0.0849,-0.0305,
8.608688,0.2789,-0.8612,-0.6922,0.5644,2.0794,0.2119,1.0088,-0.0849,-0.0305,
8.642289,0.2789,-0.8612,-0.6922,0.5644,2.0794,0.2119,0.6530,0.0184,-0.2872,
8.644107,0.2789,-0.8612,-0.6922,1.2706,-0.8681,-3.4169,0.6530,0.0184,-0.2872,
8.681878,0.2789,-0.8612,-0.6922,1.2706,-0.8681,-3.4169,0.2535,-0.4003,-0.4779,
8.684176,0.2789,-0.8612,-0.6922,1.1574,-0.8407,-3.4193,0.2535,-0.4003,-0.4779,
8.685857,0.2953,-1.0119,-0.8163,1.1574,-0.8407,-3.4193,0.2535,-0.4003,-0.4779,
8.687297,0.2916,-1.0100,-0.8764,1.1574,-0.8407,-3.4193,0.2535,-0.4003,-0.4779,
8.688829,0.2814,-0.8895,-0.8217,1.1574,-0.8407,-3.4193,0.2535,-0.4003,-0.4779,
8.690140,0.2631,-0.7793,-0.6433,1.1574,-0.8407,-3.4193,0.2535,-0.4003,-0.4779,
8.691335,0.2408,-0.6946,-0.4709,1.1574,-0.8407,-3.4193,0.2535,-0.4003,-0.4779,
8.721495,0.2408,-0.6946,-0.4709,1.1574,-0.8407,-3.4193,0.4953,-0.4578,-0.4151,
8.723483,0.2408,-0.6946,-0.4709,0.8169,0.8979,-2.0555,0.4953,-0.4578,-0.4151,
8.761889,0.2408,-0.6946,-0.4709,0.8169,0.8979,-2.0555,0.9044,-0.4972,-0.3948,
8.764259,0.2408,-0.6946,-0.4709,0.0814,-0.1084,-1.5777,0.9044,-0.4972,-0.3948,
8.765498,0.2047,-0.6567,-0.4325,0.0814,-0.1084,-1.5777,0.9044,-0.4972,-0.3948,
8.766961,0.2147,-0.7297,-0.5315,0.0814,-0.1084,-1.5777,0.9044,-0.4972,-0.3948,
8.768439,0.1578,-1.3224,-0.7494,0.0814,-0.1084,-1.5777,0.9044,-0.4972,-0.3948,
8.769953,0.2665,-2.2645,-1.0115,0.0814,-0.1084,-1.5777,0.9044,-0.4972,-0.3948,
8.801390,0.2665,-2.2645,-1.0115,0.0814,-0.1084,-1.5777,-0.1619,0.2804,-0.5514,
8.803711,0.2665,-2.2645,-1.0115,-0.1511,-0.1731,-1.5180,-0.1619,0.2804,-0.5514,
8.840777,0.2665,-2.2645,-1.0115,-0.1511,-0.1731,-1.5180,0.0607,0.4402,0.1186,
8.842818,0.2665,-2.2645,-1.0115,-2.2726,-4.7043,-1.0951,0.0607,0.4402,0.1186,
8.844210,0.4304,-1.6816,-0.6749,-2.2726,-4.7043,-1.0951,0.0607,0.4402,0.1186,
8.845488,-0.7718,-0.1803,0.1142,-2.2726,-4.7043,-1.0951,0.0607,0.4402,0.1186,
8.846992,-1.0310,-0.2426,0.1419,-2.2726,-4.7043,-1.0951,0.0607,0.4402,0.1186,
8.848037,-0.0567,-1.0957,-0.1369,-2.2726,-4.7043,-1.0951,0.0607,0.4402,0.1186,
8.880385,-0.0567,-1.0957,-0.1369,-2.2726,-4.7043,-1.0951,1.1952,1.8165,1.1423,
8.882257,-0.0567,-1.0957,-0.1369,-2.1045,-4.3632,-1.6316,1.1952,1.8165,1.1423,
8.920238,-0.0567,-1.0957,-0.1369,-2.1045,-4.3632,-1.6316,1.1963,1.8741,0.6598,
8.922589,-0.0567,-1.0957,-0.1369,-3.7651,0.3236,3.1360,1.1963,1.8741,0.6598,
8.924110,0.4844,-1.4131,0.0744,-3.7651,0.3236,3.1360,1.1963,1.8741,0.6598,
8.925435,0.4878,-1.2103,-0.0641,-3.7651,0.3236,3.1360,1.1963,1.8741,0.6598,
8.926713,0.3205,-0.9247,-0.3541,-3.7651,0.3236,3.1360,1.1963,1.8741,0.6598,
8.928050,0.2484,-0.7955,-0.2407,-3.7651,0.3236,3.1360,1.1963,1.8741,0.6598,
8.959524,0.2484,-0.7955,-0.2407,-3.7651,0.3236,3.1360,1.0684,0.6021,0.3711,
8.961758,0.2484,-0.7955,-0.2407,1.7019,-0.1211,0.2797,1.0684,0.6021,0.3711,
8.999292,0.2484,-0.7955,-0.2407,1.7019,-0.1211,0.2797,1.0631,0.5670,0.6161,
9.001384,0.2484,-0.7955,-0.2407,-1.3030,0.6427,1.2508,1.0631,0.5670,0.6161,
9.002773,0.1394,-0.7801,-0.0169,-1.3030,0.6427,1.2508,1.0631,0.5670,0.6161,
9.003894,-0.0169,-0.9098,-0.0414,-1.3030,0.6427,1.2508,1.0631,0.5670,0.6161,
9.004855,-0.0484,-1.0444,-0.1626,-1.3030,0.6427,1.2508,1.0631,0.5670,0.6161,
9.006063,0.0307,-1.0708,-0.2349,-1.3030,0.6427,1.2508,1.0631,0.5670,0.6161,
9.039477,0.0307,-1.0708,-0.2349,-1.3030,0.6427,1.2508,0.8575,0.3657,0.7652,
9.041451,0.0307,-1.0708,-0.2349,-1.0198,0.7343,0.8877,0.8575,0.3657,0.7652,
9.078625,0.0307,-1.0708,-0.2349,-1.0198,0.7343,0.8877,0.7094,0.0333,0.6065,
9.080832,0.0307,-1.0708,-0.2349,-0.0648,-0.3999,-0.6855,0.7094,0.0333,0.6065,
9.082208,0.0979,-1.0146,-0.2319,-0.0648,-0.3999,-0.6855,0.7094,0.0333,0.6065,
9.083734,0.1668,-1.0192,-0.1552,-0.0648,-0.3999,-0.6855,0.7094,0.0333,0.6065,
9.084833,0.2022,-0.9850,-0.0905,-0.0648,-0.3999,-0.6855,0.7094,0.0333,0.6065,
9.086159,0.1898,-0.9105,-0.0199,-0.0648,-0.3999,-0.6855,0.7094,0.0333,0.6065,
9.118376,0.1898,-0.9105,-0.0199,-0.0648,-0.3999,-0.6855,0.7361,-0.1329,0.4094,
9.120624,0.1898,-0.9105,-0.0199,0.0982,-0.3435,-0.9494,0.7361,-0.1329,0.4094,
9.158204,0.1898,-0.9105,-0.0199,0.0982,-0.3435,-0.9494,1.0365,-0.1680,0.2901,
9.160329,0.1898,-0.9105,-0.0199,1.0028,0.8073,0.4118,1.0365,-0.1680,0.2901,
9.161658,0.1492,-0.8666,0.0290,1.0028,0.8073,0.4118,1.0365,-0.1680,0.2901,
9.162746,0.1311,-0.8751,0.0427,1.0028,0.8073,0.4118,1.0365,-0.1680,0.2901,
9.163855,0.1094,-0.9130,-0.0067,1.0028,0.8073,0.4118,1.0365,-0.1680,0.2901,
9.165071,0.1106,-0.9582,-0.1362,1.0028,0.8073,0.4118,1.0365,-0.1680,0.2901,
9.198011,0.1106,-0.9582,-0.1362,1.0028,0.8073,0.4118,1.0205,-0.0200,0.2507,
9.200071,0.1106,-0.9582,-0.1362,0.4723,0.8709,-0.0465,1.0205,-0.0200,0.2507,
9.237914,0.1106,-0.9582,-0.1362,0.4723,0.8709,-0.0465,0.6785,0.0194,0.2273,
9.239973,0.1304,-0.9833,-0.2151,0.4723,0.8709,-0.0465,0.6785,0.0194,0.2273,
9.241078,0.1231,-0.9799,-0.1933,0.4723,0.8709,-0.0465,0.6785,0.0194,0.2273,
9.242191,0.0972,-0.9474,-0.1723,0.4723,0.8709,-0.0465,0.6785,0.0194,0.2273,
9.243206,0.0820,-0.9208,-0.1178,0.4723,0.8709,-0.0465,0.6785,0.0194,0.2273,
9.244305,0.0820,-0.9208,-0.1178,0.5500,0.3377,-1.8501,0.6785,0.0194,0.2273,
9.276527,0.0820,-0.9208,-0.1178,0.5500,0.3377,-1.8501,0.4762,0.1462,0.2486,
9.278727,0.0820,-0.9208,-0.1178,0.6365,0.3365,-2.0050,0.4762,0.1462,0.2486,
9.316337,0.0820,-0.9208,-0.1178,0.6365,0.3365,-2.0050,0.6381,0.1686,0.3317,
9.318483,0.0820,-0.9208,-0.1178,0.1960,0.6510,-0.5377,0.6381,0.1686,0.3317,
9.319811,0.0603,-0.9279,-0.0062,0.1960,0.6510,-0.5377,0.6381,0.1686,0.3317,
9.320890,0.0344,-0.9623,0.0668,0.1960,0.6510,-0.5377,0.6381,0.1686,0.3317,
9.322092,0.0305,-1.0024,0.0522,0.1960,0.6510,-0.5377,0.6381,0.1686,0.3317,
9.323272,0.0363,-1.0256,-0.0279,0.1960,0.6510,-0.5377,0.6381,0.1686,0.3317,
9.356277,0.0363,-1.0256,-0.0279,0.1960,0.6510,-0.5377,0.7883,0.1867,0.4819,
9.358115,0.0363,-1.0256,-0.0279,0.3809,0.6300,-0.8326,0.7883,0.1867,0.4819,
9.396137,0.0363,-1.0256,-0.0279,0.3809,0.6300,-0.8326,0.5230,0.3220,0.5106,
9.398465,0.0363,-1.0256,-0.0279,0.4096,-0.1912,-1.1075,0.5230,0.3220,0.5106,
9.399861,0.0571,-1.0312,-0.1088,0.4096,-0.1912,-1.1075,0.5230,0.3220,0.5106,
9.400819,0.0925,-1.0004,-0.1296,0.4096,-0.1912,-1.1075,0.5230,0.3220,0.5106,
9.402040,0.1412,-0.9626,-0.0543,0.4096,-0.1912,-1.1075,0.5230,0.3220,0.5106,
9.403091,0.1468,-0.9386,0.0935,0.4096,-0.1912,-1.1075,0.5230,0.3220,0.5106,
9.434735,0.1468,-0.9386,0.0935,0.4096,-0.1912,-1.1075,0.5305,0.4392,0.4403,
9.436884,0.1468,-0.9386,0.0935,1.4109,0.2972,-1.3086,0.5305,0.4392,0.4403,
9.474914,0.1468,-0.9386,0.0935,1.4109,0.2972,-1.3086,1.0301,0.2772,0.5692,
9.477308,0.1468,-0.9386,0.0935,1.4336,-1.4476,-0.2855,1.0301,0.2772,0.5692,
9.479412,0.1206,-0.9882,0.1511,1.4336,-1.4476,-0.2855,1.0301,0.2772,0.5692,
9.480527,0.0879,-1.1382,0.1411,1.4336,-1.4476,-0.2855,1.0301,0.2772,0.5692,
9.481756,0.1150,-1.2997,0.0500,1.4336,-1.4476,-0.2855,1.0301,0.2772,0.5692,
9.482915,0.2753,-1.3449,-0.0262,1.4336,-1.4476,-0.2855,1.0301,0.2772,0.5692,
9.514644,0.2753,-1.3449,-0.0262,1.4336,-1.4476,-0.2855,1.0461,-0.1851,0.4616,
9.517089,0.2753,-1.3449,-0.0262,1.5722,-1.4973,-0.6800,1.0461,-0.1851,0.4616,
9.554005,0.2753,-1.3449,-0.0262,1.5722,-1.4973,-0.6800,0.3345,-0.3023,0.0654,
9.555837,0.2753,-1.3449,-0.0262,3.0865,-2.9694,-2.6052,0.3345,-0.3023,0.0654,
9.557216,0.3505,-1.2914,-0.0265,3.0865,-2.9694,-2.6052,0.3345,-0.3023,0.0654,
9.558324,0.1766,-1.2479,-0.1667,3.0865,-2.9694,-2.6052,0.3345,-0.3023,0.0654,
9.559775,-0.0699,-1.2699,-0.2947,3.0865,-2.9694,-2.6052,0.3345,-0.3023,0.0654,
9.560907,-0.0067,-1.2335,-0.1662,3.0865,-2.9694,-2.6052,0.3345,-0.3023,0.0654,
9.593716,-0.0067,-1.2335,-0.1662,3.0865,-2.9694,-2.6052,-1.0419,-0.1212,0.0110,
9.596058,-0.0067,-1.2335,-0.1662,3.0308,-2.8515,-2.1678,-1.0419,-0.1212,0.0110,
9.633440,-0.0067,-1.2335,-0.1662,3.0308,-2.8515,-2.1678,-1.9303,-0.1137,-0.4598,
9.635360,-0.0067,-1.2335,-0.1662,0.4298,-1.9335,-2.2444,-1.9303,-0.1137,-0.4598,
9.636837,0.1416,-1.1368,-0.0245,0.4298,-1.9335,-2.2444,-1.9303,-0.1137,-0.4598,
9.637804,0.0737,-1.0429,-0.0238,0.4298,-1.9335,-2.2444,-1.9303,-0.1137,-0.4598,
9.639103,-0.0795,-0.9995,-0.0685,0.4298,-1.9335,-2.2444,-1.9303,-0.1137,-0.4598,
9.640210,-0.2153,-0.9836,-0.0480,0.4298,-1.9335,-2.2444,-1.9303,-0.1137,-0.4598,
9.672701,-0.2153,-0.9836,-0.0480,0.4298,-1.9335,-2.2444,-2.3383,-0.2746,-0.6963,
9.674844,-0.2153,-0.9836,-0.0480,-0.7686,0.0917,-0.1903,-2.3383,-0.2746,-0.6963,
9.712533,-0.2153,-0.9836,-0.0480,-0.7686,0.0917,-0.1903,-2.1114,0.0567,-0.4215,
9.714552,-0.2153,-0.9836,-0.0480,-3.4439,0.1636,2.6516,-2.1114,0.0567,-0.4215,
9.715998,-0.3265,-0.9838,0.1037,-3.4439,0.1636,2.6516,-2.1114,0.0567,-0.4215,
9.716975,-0.3682,-0.9877,0.2205,-3.4439,0.1636,2.6516,-2.1114,0.0567,-0.4215,
9.718044,-0.3116,-1.0134,0.1646,-3.4439,0.1636,2.6516,-2.1114,0.0567,-0.4215,
9.719562,-0.1606,-1.0364,0.1069,-3.4439,0.1636,2.6516,-2.1114,0.0567,-0.4215,
9.752480,-0.1606,-1.0364,0.1069,-3.4439,0.1636,2.6516,-1.9750,0.3284,-0.2148,
9.754423,-0.1606,-1.0364,0.1069,-3.4884,0.0482,3.3639,-1.9750,0.3284,-0.2148,
9.792929,-0.1606,-1.0364,0.1069,-3.4884,0.0482,3.3639,-1.8259,0.0546,-0.3160,
9.795128,-0.0997,-1.0315,0.0497,-3.4884,0.0482,3.3639,-1.8259,0.0546,-0.3160,
9.796516,-0.0736,-1.0041,-0.0490,-3.4884,0.0482,3.3639,-1.8259,0.0546,-0.3160,
9.797654,-0.0247,-1.0026,-0.0976,-3.4884,0.0482,3.3639,-1.8259,0.0546,-0.3160,
9.798772,-0.0257,-1.0342,-0.0328,-3.4884,0.0482,3.3639,-1.8259,0.0546,-0.3160,
9.800202,-0.0257,-1.0342,-0.0328,-1.3941,-0.3859,2.7748,-1.8259,0.0546,-0.3160,
9.831195,-0.0257,-1.0342,-0.0328,-1.3941,-0.3859,2.7748,-1.4530,0.0088,-0.4737,
9.833154,-0.0257,-1.0342,-0.0328,-1.5483,-0.5397,3.2706,-1.4530,0.0088,-0.4737,
9.871343,-0.0257,-1.0342,-0.0328,-1.5483,-0.5397,3.2706,-0.9907,-0.3672,-0.8092,
9.873427,-0.0257,-1.0342,-0.0328,-0.7940,-0.5962,2.7002,-0.9907,-0.3672,-0.8092,
9.874756,0.0217,-1.0124,-0.0384,-0.7940,-0.5962,2.7002,-0.9907,-0.3672,-0.8092,
9.875877,0.1177,-1.0017,-0.1354,-0.7940,-0.5962,2.7002,-0.9907,-0.3672,-0.8092,
9.877397,0.1128,-1.0051,-0.2197,-0.7940,-0.5962,2.7002,-0.9907,-0.3672,-0.8092,
9.878642,0.0454,-1.0043,-0.1980,-0.7940,-0.5962,2.7002,-0.9907,-0.3672,-0.8092,
9.910648,0.0454,-1.0043,-0.1980,-0.7940,-0.5962,2.7002,-0.7968,-0.8189,-1.0074,
9.912855,0.0454,-1.0043,-0.1980,-0.0575,-0.6025,1.7364,-0.7968,-0.8189,-1.0074,
9.950866,0.0454,-1.0043,-0.1980,-0.0575,-0.6025,1.7364,-0.5508,-0.4375,-0.5695,
9.953257,-0.1408,-0.9689,-0.1584,-0.0575,-0.6025,1.7364,-0.5508,-0.4375,-0.5695,
9.954376,-0.2453,-0.8089,-0.1474,-0.0575,-0.6025,1.7364,-0.5508,-0.4375,-0.5695,
9.955479,-0.1691,-0.6775,-0.1738,-0.0575,-0.6025,1.7364,-0.5508,-0.4375,-0.5695,
9.957704,-0.0707,-0.6706,-0.2241,-0.0575,-0.6025,1.7364,-0.5508,-0.4375,-0.5695,
9.958954,-0.0707,-0.6706,-0.2241,-2.8681,1.0916,2.1584,-0.5508,-0.4375,-0.5695,
9.990454,-0.0707,-0.6706,-0.2241,-2.8681,1.0916,2.1584,-0.2749,-0.3342,-0.1072,
9.992695,-0.0707,-0.6706,-0.2241,-2.8090,1.0284,2.2335,-0.2749,-0.3342,-0.1072,
10.029796,-0.0707,-0.6706,-0.2241,-2.8090,1.0284,2.2335,-0.1481,-0.6538,-0.0987,
10.031729,-0.0707,-0.6706,-0.2241,-0.3996,1.9295,1.3846,-0.1481,-0.6538,-0.0987,
10.033226,0.0681,-0.7266,-0.2613,-0.3996,1.9295,1.3846,-0.1481,-0.6538,-0.0987,
10.034347,0.1631,-0.7642,-0.2708,-0.3996,1.9295,1.3846,-0.1481,-0.6538,-0.0987,
10.035319,0.1873,-0.7632,-0.3043,-0.3996,1.9295,1.3846,-0.1481,-0.6538,-0.0987,
10.036318,0.2162,-0.7625,-0.3441,-0.3996,1.9295,1.3846,-0.1481,-0.6538,-0.0987,
10.069514,0.2162,-0.7625,-0.3441,-0.3996,1.9295,1.3846,0.1012,-0.5036,-0.2425,
10.071728,0.2162,-0.7625,-0.3441,-0.4023,1.9038,1.3442,0.1012,-0.5036,-0.2425,
10.109367,0.2162,-0.7625,-0.3441,-0.4023,1.9038,1.3442,0.3909,-0.2192,-0.4332,
10.111371,0.2162,-0.7625,-0.3441,1.0537,1.4967,0.3220,0.3909,-0.2192,-0.4332,
10.112600,0.2455,-0.7652,-0.3790,1.0537,1.4967,0.3220,0.3909,-0.2192,-0.4332,
10.113866,0.2540,-0.7488,-0.3873,1.0537,1.4967,0.3220,0.3909,-0.2192,-0.4332,
10.114967,0.2428,-0.7495,-0.4242,1.0537,1.4967,0.3220,0.3909,-0.2192,-0.4332,
10.116461,0.2108,-0.8248,-0.5256,1.0537,1.4967,0.3220,0.3909,-0.2192,-0.4332,
10.148383,0.2108,-0.8248,-0.5256,1.0537,1.4967,0.3220,0.4634,-0.1606,-0.6047,
10.150517,0.2108,-0.8248,-0.5256,1.0350,1.4058,-0.8336,0.4634,-0.1606,-0.6047,
10.188228,0.2108,-0.8248,-0.5256,1.0350,1.4058,-0.8336,0.0287,-0.4844,-0.6090,
10.190739,0.2108,-0.8248,-0.5256,0.4011,-0.9185,-3.6748,0.0287,-0.4844,-0.6090,
10.191917,0.1695,-0.9601,-0.6627,0.4011,-0.9185,-3.6748,0.0287,-0.4844,-0.6090,
10.193317,0.1824,-1.0447,-0.7941,0.4011,-0.9185,-3.6748,0.0287,-0.4844,-0.6090,
10.194585,0.2093,-1.0258,-0.7741,0.4011,-0.9185,-3.6748,0.0287,-0.4844,-0.6090,
10.195931,0.1729,-0.9430,-0.6854,0.4011,-0.9185,-3.6748,0.0287,-0.4844,-0.6090,
10.227295,0.1729,-0.9430,-0.6854,0.4011,-0.9185,-3.6748,-0.2024,-0.6059,-0.5088,
10.228598,0.1729,-0.9430,-0.6854,0.3033,-0.9616,-3.5079,-0.2024,-0.6059,-0.5088,
10.267211,0.1729,-0.9430,-0.6854,0.3033,-0.9616,-3.5079,0.2088,-0.9297,-0.4151,
10.268672,0.1729,-0.9430,-0.6854,-0.3317,0.8959,-2.1031,0.2088,-0.9297,-0.4151,
10.269590,0.1138,-0.8109,-0.6145,-0.3317,0.8959,-2.1031,0.2088,-0.9297,-0.4151,
10.270484,0.0808,-0.7053,-0.5065,-0.3317,0.8959,-2.1031,0.2088,-0.9297,-0.4151,
10.271381,0.0793,-0.7986,-0.4122,-0.3317,0.8959,-2.1031,0.2088,-0.9297,-0.4151,
10.272180,0.1426,-1.1724,-0.5273,-0.3317,0.8959,-2.1031,0.2088,-0.9297,-0.4151,
10.306901,0.1426,-1.1724,-0.5273,-0.3317,0.8959,-2.1031,0.5305,-0.7997,-0.4513,
10.309723,0.1426,-1.1724,-0.5273,-0.3670,0.9308,-2.2049,0.5305,-0.7997,-0.4513,
10.346274,0.1426,-1.1724,-0.5273,-0.3670,0.9308,-2.2049,0.1363,0.7183,-0.7059,
10.347599,0.1426,-1.1724,-0.5273,0.3082,-2.6890,-1.9840,0.1363,0.7183,-0.7059,
10.348425,0.4622,-1.6014,-0.7792,0.3082,-2.6890,-1.9840,0.1363,0.7183,-0.7059,
10.349167,0.7360,-1.7280,-0.4254,0.3082,-2.6890,-1.9840,0.1363,0.7183,-0.7059,
10.349906,-0.2085,-1.0791,-0.2686,0.3082,-2.6890,-1.9840,0.1363,0.7183,-0.7059,
10.350615,-1.0738,-0.3645,-0.0692,0.3082,-2.6890,-1.9840,0.1363,0.7183,-0.7059,
10.386133,-1.0738,-0.3645,-0.0692,0.3082,-2.6890,-1.9840,0.4783,0.7832,0.4009,
10.388213,-1.0738,-0.3645,-0.0692,-3.6154,-1.2607,0.8909,0.4783,0.7832,0.4009,
10.426058,-1.0738,-0.3645,-0.0692,-3.6154,-1.2607,0.8909,1.0599,1.6695,1.0614,
10.428114,-1.0738,-0.3645,-0.0692,-2.1666,-0.2008,3.2758,1.0599,1.6695,1.0614,
10.429517,-0.7792,-0.6814,-0.1579,-2.1666,-0.2008,3.2758,1.0599,1.6695,1.0614,
10.430658,0.0977,-1.0527,0.0324,-2.1666,-0.2008,3.2758,1.0599,1.6695,1.0614,
10.431895,0.5125,-1.1768,0.2630,-2.1666,-0.2008,3.2758,1.0599,1.6695,1.0614,
10.433759,0.4179,-1.0745,0.1494,-2.1666,-0.2008,3.2758,1.0599,1.6695,1.0614,
10.465473,0.4179,-1.0745,0.1494,-2.1666,-0.2008,3.2758,1.2442,1.6919,0.5671,
10.467699,0.4179,-1.0745,0.1494,-2.0912,-0.0393,2.6617,1.2442,1.6919,0.5671,
10.505312,0.4179,-1.0745,0.1494,-2.0912,-0.0393,2.6617,0.8298,0.5702,0.4073,
10.508044,0.4179,-1.0745,0.1494,1.2559,0.7148,0.4373,0.8298,0.5702,0.4073,
10.509418,0.2662,-0.8519,-0.2143,1.2559,0.7148,0.4373,0.8298,0.5702,0.4073,
10.510540,0.1453,-0.7779,-0.3700,1.2559,0.7148,0.4373,0.8298,0.5702,0.4073,
10.511762,-0.0362,-0.9249,-0.1489,1.2559,0.7148,0.4373,0.8298,0.5702,0.4073,
10.512770,-0.1269,-1.0386,-0.0199,1.2559,0.7148,0.4373,0.8298,0.5702,0.4073,
10.545003,-0.1269,-1.0386,-0.0199,1.2559,0.7148,0.4373,0.5156,0.4764,0.6406,
10.547015,-0.1269,-1.0386,-0.0199,1.4419,0.7717,0.2123,0.5156,0.4764,0.6406,
10.584519,-0.1269,-1.0386,-0.0199,1.4419,0.7717,0.2123,0.5869,0.4306,0.7652,
10.586911,-0.1269,-1.0386,-0.0199,-1.7465,-0.0988,0.7320,0.5869,0.4306,0.7652,
10.588259,-0.0741,-1.0290,-0.0287,-1.7465,-0.0988,0.7320,0.5869,0.4306,0.7652,
10.589440,-0.0211,-0.9689,-0.0844,-1.7465,-0.0988,0.7320,0.5869,0.4306,0.7652,
10.590259,0.0412,-0.9528,-0.1274,-1.7465,-0.0988,0.7320,0.5869,0.4306,0.7652,
10.591488,0.1580,-0.9921,-0.0915,-1.7465,-0.0988,0.7320,0.5869,0.4306,0.7652,
10.624208,0.1580,-0.9921,-0.0915,-1.7465,-0.0988,0.7320,0.4729,0.3135,0.8142,
10.626230,0.1580,-0.9921,-0.0915,-0.0909,0.2053,0.1910,0.4729,0.3135,0.8142,
10.663555,0.1580,-0.9921,-0.0915,-0.0909,0.2053,0.1910,0.7307,0.0301,0.3871,
10.665410,0.1580,-0.9921,-0.0915,2.5460,0.4367,1.7679,0.7307,0.0301,0.3871,
10.666805,0.2587,-0.9848,0.0241,2.5460,0.4367,1.7679,0.7307,0.0301,0.3871,
10.668051,0.3627,-0.9403,0.1201,2.5460,0.4367,1.7679,0.7307,0.0301,0.3871,
10.669270,0.3320,-0.9276,0.1311,2.5460,0.4367,1.7679,0.7307,0.0301,0.3871,
10.670375,0.2206,-0.9677,0.0378,2.5460,0.4367,1.7679,0.7307,0.0301,0.3871,
10.703134,0.2206,-0.9677,0.0378,2.5460,0.4367,1.7679,1.1611,0.0780,-0.0582,
10.705347,0.2206,-0.9677,0.0378,2.4794,0.4572,1.2944,1.1611,0.0780,-0.0582,
10.743850,0.2206,-0.9677,0.0378,2.4794,0.4572,1.2944,0.8852,0.1174,-0.0092,
10.745862,0.2206,-0.9677,0.0378,0.3886,0.3205,-0.8001,0.8852,0.1174,-0.0092,
10.746922,0.0952,-0.9731,-0.1054,0.3886,0.3205,-0.8001,0.8852,0.1174,-0.0092,
10.748071,0.0009,-0.9545,-0.1965,0.3886,0.3205,-0.8001,0.8852,0.1174,-0.0092,
10.749147,-0.0587,-0.9323,-0.1594,0.3886,0.3205,-0.8001,0.8852,0.1174,-0.0092,
10.750400,-0.0831,-0.9357,-0.0712,0.3886,0.3205,-0.8001,0.8852,0.1174,-0.0092,
10.782054,-0.0831,-0.9357,-0.0712,0.3886,0.3205,-0.8001,0.5635,0.0748,0.2326,
10.784208,-0.0831,-0.9357,-0.0712,0.4709,0.3195,-1.0034,0.5635,0.0748,0.2326,
10.822910,-0.0831,-0.9357,-0.0712,0.4709,0.3195,-1.0034,0.7041,0.1718,0.4297,
10.824956,-0.0831,-0.9357,-0.0712,-1.1173,0.5500,-1.1445,0.7041,0.1718,0.4297,
10.826409,-0.0851,-0.9540,0.0019,-1.1173,0.5500,-1.1445,0.7041,0.1718,0.4297,
10.827544,-0.0294,-0.9753,0.0573,-1.1173,0.5500,-1.1445,0.7041,0.1718,0.4297,
10.828626,0.0119,-1.0073,0.0397,-1.1173,0.5500,-1.1445,0.7041,0.1718,0.4297,
10.830216,0.0534,-1.0185,-0.0074,-1.1173,0.5500,-1.1445,0.7041,0.1718,0.4297,
10.861566,0.0534,-1.0185,-0.0074,-1.1173,0.5500,-1.1445,0.8373,0.2208,0.5021,
10.863458,0.0534,-1.0185,-0.0074,-0.0585,-0.0473,-0.4237,0.8373,0.2208,0.5021,
10.901403,0.0534,-1.0185,-0.0074,-0.0585,-0.0473,-0.4237,0.8181,0.3262,0.4691,
10.902699,0.0534,-1.0185,-0.0074,1.2775,-0.0886,-1.3724,0.8181,0.3262,0.4691,
10.903372,0.1033,-0.9855,-0.0414,1.2775,-0.0886,-1.3724,0.8181,0.3262,0.4691,
10.903799,0.1382,-0.9785,-0.0360,1.2775,-0.0886,-1.3724,0.8181,0.3262,0.4691,
10.904406,0.1512,-1.0420,-0.0336,1.2775,-0.0886,-1.3724,0.8181,0.3262,0.4691,
10.904938,0.1328,-1.0513,-0.0446,1.2775,-0.0886,-1.3724,0.8181,0.3262,0.4691,
10.940253,0.1328,-1.0513,-0.0446,1.2775,-0.0886,-1.3724,0.8415,0.4200,0.3892,
10.941447,0.1328,-1.0513,-0.0446,1.4227,-0.1267,-1.6665,0.8415,0.4200,0.3892,
10.980823,0.1328,-1.0513,-0.0446,1.4227,-0.1267,-1.6665,0.9821,0.4605,0.4669,
10.981888,0.1328,-1.0513,-0.0446,1.2540,-0.5667,-2.0270,0.9821,0.4605,0.4669,
10.982631,0.1045,-1.0288,-0.0260,1.2540,-0.5667,-2.0270,0.9821,0.4605,0.4669,
10.983069,0.0471,-1.0444,-0.0475,1.2540,-0.5667,-2.0270,0.9821,0.4605,0.4669,
10.983434,0.0427,-1.0488,-0.1254,1.2540,-0.5667,-2.0270,0.9821,0.4605,0.4669,
10.983836,0.1199,-1.0715,-0.2016,1.2540,-0.5667,-2.0270,0.9821,0.4605,0.4669,
11.020138,0.1199,-1.0715,-0.2016,1.2540,-0.5667,-2.0270,0.7861,0.3657,0.6672,
11.022089,0.1199,-1.0715,-0.2016,1.5081,-0.6241,-2.2810,0.7861,0.3657,0.6672,
11.060480,0.1199,-1.0715,-0.2016,1.5081,-0.6241,-2.2810,0.1331,-0.0945,0.1484,
11.063321,0.1199,-1.0715,-0.2016,2.0648,-1.0878,-3.4879,0.1331,-0.0945,0.1484,
11.066151,0.2880,-1.1475,-0.1623,2.0648,-1.0878,-3.4879,0.1331,-0.0945,0.1484,
11.069156,0.4189,-1.2115,-0.0111,2.0648,-1.0878,-3.4879,0.1331,-0.0945,0.1484,
11.070563,0.3957,-1.3351,0.1484,2.0648,-1.0878,-3.4879,0.1331,-0.0945,0.1484,
11.071653,0.1355,-1.3987,0.0981,2.0648,-1.0878,-3.4879,0.1331,-0.0945,0.1484,
11.099523,0.1355,-1.3987,0.0981,2.0648,-1.0878,-3.4879,-0.6104,-0.0882,-0.5493,
11.101572,0.1355,-1.3987,0.0981,3.4231,-3.1933,-0.8743,-0.6104,-0.0882,-0.5493,
11.139374,-0.1801,-1.2851,-0.1821,3.4231,-3.1933,-0.8743,-0.6104,-0.0882,-0.5493,
11.141200,-0.2646,-1.1651,-0.2986,3.4231,-3.1933,-0.8743,-0.6104,-0.0882,-0.5493,
11.142544,-0.1987,-1.0957,-0.1716,3.4231,-3.1933,-0.8743,-0.6104,-0.0882,-0.5493,
11.143649,-0.1987,-1.0957,-0.1716,3.4231,-3.1933,-0.8743,-2.0571,0.0834,-0.4588,
11.144880,-0.1987,-1.0957,-0.1716,-1.9235,-1.7529,-2.9288,-2.0571,0.0834,-0.4588,
11.178702,-0.1987,-1.0957,-0.1716,-1.9235,-1.7529,-2.9288,-2.7324,0.0173,-0.5205,
11.180636,-0.1987,-1.0957,-0.1716,-2.5413,-0.4022,2.1423,-2.7324,0.0173,-0.5205,
11.218876,-0.1987,-1.0957,-0.1716,-2.5413,-0.4022,2.1423,-2.2563,0.7034,-0.4769,
11.220969,-0.1987,-1.0957,-0.1716,-2.7025,-0.4561,2.9690,-2.2563,0.7034,-0.4769,
11.222284,-0.1955,-1.0696,0.0373,-2.7025,-0.4561,2.9690,-2.2563,0.7034,-0.4769,
11.223892,-0.2602,-1.0525,0.2259,-2.7025,-0.4561,2.9690,-2.2563,0.7034,-0.4769,
11.225036,-0.3279,-1.0217,0.3214,-2.7025,-0.4561,2.9690,-2.2563,0.7034,-0.4769,
11.226334,-0.3357,-1.0403,0.2288,-2.7025,-0.4561,2.9690,-2.2563,0.7034,-0.4769,
11.227548,-0.2639,-1.0664,0.0453,-2.7025,-0.4561,2.9690,-2.2563,0.7034,-0.4769,
11.257935,-0.2639,-1.0664,0.0453,-2.7025,-0.4561,2.9690,-2.0933,0.7300,-0.1818,
11.260176,-0.2639,-1.0664,0.0453,-2.7685,-0.5690,3.7092,-2.0933,0.7300,-0.1818,
11.299037,-0.2639,-1.0664,0.0453,-2.7685,-0.5690,3.7092,-1.9335,0.1995,-0.1935,
11.300494,-0.1527,-1.0627,-0.0416,-2.7685,-0.5690,3.7092,-1.9335,0.1995,-0.1935,
11.301749,0.0163,-0.9951,0.0028,-2.7685,-0.5690,3.7092,-1.9335,0.1995,-0.1935,
11.302916,0.0791,-0.9804,0.0207,-2.7685,-0.5690,3.7092,-1.9335,0.1995,-0.1935,
11.304041,0.1707,-0.9609,-0.0602,-2.7685,-0.5690,3.7092,-1.9335,0.1995,-0.1935,
11.305127,0.1707,-0.9609,-0.0602,-2.7101,-0.8073,3.2398,-1.9335,0.1995,-0.1935,
11.336911,0.1707,-0.9609,-0.0602,-2.7101,-0.8073,3.2398,-1.3678,0.2208,-0.5994,
11.338919,0.1707,-0.9609,-0.0602,0.3623,-0.1998,2.8225,-1.3678,0.2208,-0.5994,
11.377015,0.1707,-0.9609,-0.0602,0.3623,-0.1998,2.8225,-0.9641,-0.4312,-1.1139,
11.379355,0.1707,-0.9609,-0.0602,0.4193,-0.5329,1.7149,-0.9641,-0.4312,-1.1139,
11.380747,0.1766,-0.9868,-0.1137,0.4193,-0.5329,1.7149,-0.9641,-0.4312,-1.1139,
11.381696,0.1265,-1.0087,-0.1667,0.4193,-0.5329,1.7149,-0.9641,-0.4312,-1.1139,
11.382981,0.0918,-0.9997,-0.1992,0.4193,-0.5329,1.7149,-0.9641,-0.4312,-1.1139,
11.384039,-0.0914,-0.9486,-0.1437,0.4193,-0.5329,1.7149,-0.9641,-0.4312,-1.1139,
11.416562,-0.0914,-0.9486,-0.1437,0.4193,-0.5329,1.7149,-0.7042,-0.9713,-1.1171,
11.418762,-0.0914,-0.9486,-0.1437,0.1431,-0.6623,1.9773,-0.7042,-0.9713,-1.1171,
11.457156,-0.0914,-0.9486,-0.1437,0.1431,-0.6623,1.9773,-0.3537,-0.2565,-0.4321,
11.459395,-0.0914,-0.9486,-0.1437,-3.1296,1.1362,2.9542,-0.3537,-0.2565,-0.4321,
11.461081,-0.2563,-0.7962,-0.0328,-3.1296,1.1362,2.9542,-0.3537,-0.2565,-0.4321,
11.462189,-0.2390,-0.6721,-0.0314,-3.1296,1.1362,2.9542,-0.3537,-0.2565,-0.4321,
11.463648,-0.0941,-0.6858,-0.1594,-3.1296,1.1362,2.9542,-0.3537,-0.2565,-0.4321,
11.464755,0.0317,-0.7710,-0.2837,-3.1296,1.1362,2.9542,-0.3537,-0.2565,-0.4321,
11.496017,0.0317,-0.7710,-0.2837,-3.1296,1.1362,2.9542,-0.0650,-0.0818,-0.0902,
11.498051,0.0317,-0.7710,-0.2837,-3.0975,1.1037,2.9317,-0.0650,-0.0818,-0.0902,
11.536077,0.0317,-0.7710,-0.2837,-3.0975,1.1037,2.9317,0.0767,-0.6101,-0.1903,
11.538095,0.0317,-0.7710,-0.2837,-0.8945,1.5261,0.9259,0.0767,-0.6101,-0.1903,
11.539520,0.1394,-0.8236,-0.3744,-0.8945,1.5261,0.9259,0.0767,-0.6101,-0.1903,
11.540461,0.2374,-0.8060,-0.3741,-0.8945,1.5261,0.9259,0.0767,-0.6101,-0.1903,
11.541696,0.2684,-0.7383,-0.3006,-0.8945,1.5261,0.9259,0.0767,-0.6101,-0.1903,
11.542993,0.2941,-0.6824,-0.2735,-0.8945,1.5261,0.9259,0.0767,-0.6101,-0.1903,
11.574712,0.2941,-0.6824,-0.2735,-0.8945,1.5261,0.9259,0.4165,-0.4951,-0.3405,
11.576884,0.2941,-0.6824,-0.2735,1.3915,1.7152,0.3670,0.4165,-0.4951,-0.3405,
11.614902,0.2941,-0.6824,-0.2735,1.3915,1.7152,0.3670,0.7020,-0.4258,-0.5749,
11.616921,0.2941,-0.6824,-0.2735,1.9699,1.6756,-0.9688,0.7020,-0.4258,-0.5749,
11.618212,0.3122,-0.6789,-0.3243,1.9699,1.6756,-0.9688,0.7020,-0.4258,-0.5749,
11.619642,0.3427,-0.7232,-0.4188,1.9699,1.6756,-0.9688,0.7020,-0.4258,-0.5749,
11.620894,0.3779,-0.8475,-0.5488,1.9699,1.6756,-0.9688,0.7020,-0.4258,-0.5749,
11.622128,0.3505,-0.9919,-0.6763,1.9699,1.6756,-0.9688,0.7020,-0.4258,-0.5749,
11.654159,0.3505,-0.9919,-0.6763,1.9699,1.6756,-0.9688,0.4655,-0.6187,-0.7719,
11.656333,0.3505,-0.9919,-0.6763,1.7419,1.6602,-1.0802,0.4655,-0.6187,-0.7719,
11.693859,0.3505,-0.9919,-0.6763,1.7419,1.6602,-1.0802,-0.0160,-0.7060,-0.7528,
11.695872,0.3505,-0.9919,-0.6763,1.3153,-1.0231,-4.0502,-0.0160,-0.7060,-0.7528,
11.697194,0.3288,-1.0515,-0.7760,1.3153,-1.0231,-4.0502,-0.0160,-0.7060,-0.7528,
11.698497,0.2848,-1.0166,-0.7863,1.3153,-1.0231,-4.0502,-0.0160,-0.7060,-0.7528,
11.699932,0.2122,-0.9083,-0.6986,1.3153,-1.0231,-4.0502,-0.0160,-0.7060,-0.7528,
11.701153,0.1170,-0.7635,-0.4914,1.3153,-1.0231,-4.0502,-0.0160,-0.7060,-0.7528,
11.733355,0.1170,-0.7635,-0.4914,1.3153,-1.0231,-4.0502,0.1523,-0.9297,-0.3767,
11.735152,0.1170,-0.7635,-0.4914,1.2804,-1.0139,-3.9687,0.1523,-0.9297,-0.3767,
11.773423,0.0588,-0.6758,-0.3111,1.2804,-1.0139,-3.9687,0.1523,-0.9297,-0.3767,
11.775287,0.1006,-0.8692,-0.2461,1.2804,-1.0139,-3.9687,0.1523,-0.9297,-0.3767,
11.776381,0.2271,-1.6449,-0.3634,1.2804,-1.0139,-3.9687,0.1523,-0.9297,-0.3767,
11.777496,0.2271,-1.6449,-0.3634,1.2804,-1.0139,-3.9687,0.7989,-0.7507,-0.0870,
11.778762,0.2271,-1.6449,-0.3634,-0.5267,1.3857,-1.7604,0.7989,-0.7507,-0.0870,
11.812739,0.2271,-1.6449,-0.3634,-0.5267,1.3857,-1.7604,0.1853,1.1060,-0.4119,
11.814762,0.2271,-1.6449,-0.3634,0.4574,-6.4033,-0.4505,0.1853,1.1060,-0.4119,
11.852785,0.2271,-1.6449,-0.3634,0.4574,-6.4033,-0.4505,0.0660,0.9984,0.2315,
11.854845,0.2271,-1.6449,-0.3634,0.4181,-6.2697,-0.5490,0.0660,0.9984,0.2315,
11.856237,0.4500,-2.2484,-0.4464,0.4181,-6.2697,-0.5490,0.0660,0.9984,0.2315,
11.857473,-0.0186,-1.3249,-0.6675,0.4181,-6.2697,-0.5490,0.0660,0.9984,0.2315,
11.858705,-0.6785,-0.3296,-0.0663,0.4181,-6.2697,-0.5490,0.0660,0.9984,0.2315,
11.859985,-0.6853,-0.7205,-0.1511,0.4181,-6.2697,-0.5490,0.0660,0.9984,0.2315,
11.861074,-0.1830,-1.0043,0.0822,0.4181,-6.2697,-0.5490,0.0660,0.9984,0.2315,
11.892089,-0.1830,-1.0043,0.0822,0.4181,-6.2697,-0.5490,0.7723,0.8450,1.2510,
11.894386,-0.1830,-1.0043,0.0822,-6.1612,1.6808,-0.3378,0.7723,0.8450,1.2510,
11.931984,-0.1830,-1.0043,0.0822,-6.1612,1.6808,-0.3378,0.8831,0.8930,1.1253,
11.934175,-0.1830,-1.0043,0.0822,-0.1605,-0.1978,3.9226,0.8831,0.8930,1.1253,
11.935320,0.2530,-1.0083,0.2552,-0.1605,-0.1978,3.9226,0.8831,0.8930,1.1253,
11.936863,0.2794,-0.9838,0.2200,-0.1605,-0.1978,3.9226,0.8831,0.8930,1.1253,
11.941815,0.1873,-0.8434,0.0664,-0.1605,-0.1978,3.9226,0.8831,0.8930,1.1253,
11.944854,0.1553,-0.8580,-0.1071,-0.1605,-0.1978,3.9226,0.8831,0.8930,1.1253,
11.970763,0.1553,-0.8580,-0.1071,-0.1605,-0.1978,3.9226,0.8511,0.3582,0.6885,
11.973874,0.1553,-0.8580,-0.1071,0.0732,-0.0987,3.5207,0.8511,0.3582,0.6885,
12.010858,0.1553,-0.8580,-0.1071,0.0732,-0.0987,3.5207,0.7883,0.4818,0.4030,
12.012539,0.1553,-0.8580,-0.1071,0.4110,0.7955,0.8916,0.7883,0.4818,0.4030,
12.013878,0.0737,-1.0368,-0.1032,0.4110,0.7955,0.8916,0.7883,0.4818,0.4030,
12.014696,0.0051,-1.1343,-0.0587,0.4110,0.7955,0.8916,0.7883,0.4818,0.4030,
12.015902,0.0109,-1.0747,-0.0604,0.4110,0.7955,0.8916,0.7883,0.4818,0.4030,
12.017022,0.0412,-0.9965,-0.1225,0.4110,0.7955,0.8916,0.7883,0.4818,0.4030,
12.050420,0.0412,-0.9965,-0.1225,0.4110,0.7955,0.8916,0.6050,0.5222,0.3967,
12.052211,0.0412,-0.9965,-0.1225,-0.6235,-0.6762,0.3145,0.6050,0.5222,0.3967,
12.080886,0.0669,-0.9694,-0.1369,-0.6235,-0.6762,0.3145,0.6050,0.5222,0.3967,
12.082794,0.0837,-0.9291,-0.0907,-0.6235,-0.6762,0.3145,0.6050,0.5222,0.3967,
12.083922,0.1436,-0.8749,0.0209,-0.6235,-0.6762,0.3145,0.6050,0.5222,0.3967,
12.089777,0.1436,-0.8749,0.0209,-0.6235,-0.6762,0.3145,0.3707,0.3241,0.4371,
12.092582,0.1436,-0.8749,0.0209,0.3022,0.7506,0.2705,0.3707,0.3241,0.4371,
12.130973,0.1436,-0.8749,0.0209,0.3022,0.7506,0.2705,0.7702,0.1398,0.3146,
12.133448,0.1436,-0.8749,0.0209,1.0213,0.5896,1.5529,0.7702,0.1398,0.3146,
12.170384,0.1568,-0.8988,0.1919,1.0213,0.5896,1.5529,0.7702,0.1398,0.3146,
12.173214,0.1499,-0.9655,0.1546,1.0213,0.5896,1.5529,0.7702,0.1398,0.3146,
12.174585,0.1768,-0.9650,-0.0597,1.0213,0.5896,1.5529,0.7702,0.1398,0.3146,
12.175522,0.1697,-0.9347,-0.1860,1.0213,0.5896,1.5529,0.7702,0.1398,0.3146,
12.177269,0.1697,-0.9347,-0.1860,1.0213,0.5896,1.5529,1.1100,0.1686,0.1815,
12.178387,0.1697,-0.9347,-0.1860,1.0712,0.6007,1.0979,1.1100,0.1686,0.1815,
12.209889,0.1697,-0.9347,-0.1860,1.0712,0.6007,1.0979,0.7467,0.1654,0.0654,
12.212100,0.1697,-0.9347,-0.1860,0.3038,0.5084,-1.9063,0.7467,0.1654,0.0654,
12.251502,0.1697,-0.9347,-0.1860,0.3038,0.5084,-1.9063,0.6114,0.1633,0.2315,
12.254063,0.1697,-0.9347,-0.1860,0.3889,0.4986,-2.1117,0.6114,0.1633,0.2315,
12.257425,0.0874,-0.9508,-0.2268,0.3889,0.4986,-2.1117,0.6114,0.1633,0.2315,
12.258810,-0.0147,-0.9699,-0.1398,0.3889,0.4986,-2.1117,0.6114,0.1633,0.2315,
12.260193,-0.0465,-0.9772,-0.0538,0.3889,0.4986,-2.1117,0.6114,0.1633,0.2315,
12.261011,-0.0120,-0.9828,0.0405,0.3889,0.4986,-2.1117,0.6114,0.1633,0.2315,
12.262439,0.0029,-0.9714,0.1003,0.3889,0.4986,-2.1117,0.6114,0.1633,0.2315,
12.288742,0.0029,-0.9714,0.1003,0.3889,0.4986,-2.1117,0.8777,0.1207,0.4435,
12.291405,0.0029,-0.9714,0.1003,-0.4030,0.2353,-0.3596,0.8777,0.1207,0.4435,
12.328667,0.0029,-0.9714,0.1003,-0.4030,0.2353,-0.3596,1.0098,0.0674,0.5479,
12.331747,0.0029,-0.9714,0.1003,0.5910,0.2133,-1.1646,1.0098,0.0674,0.5479,
12.333174,0.0210,-0.9599,0.0475,0.5910,0.2133,-1.1646,1.0098,0.0674,0.5479,
12.334482,0.0596,-0.9687,-0.0194,0.5910,0.2133,-1.1646,1.0098,0.0674,0.5479,
12.335601,0.1055,-0.9990,-0.0736,0.5910,0.2133,-1.1646,1.0098,0.0674,0.5479,
12.336642,0.1375,-1.0112,-0.0773,0.5910,0.2133,-1.1646,1.0098,0.0674,0.5479,
12.368468,0.1375,-1.0112,-0.0773,0.5910,0.2133,-1.1646,0.7680,0.2890,0.4542,
12.370512,0.1375,-1.0112,-0.0773,0.7674,0.1736,-1.4364,0.7680,0.2890,0.4542,
12.408361,0.1375,-1.0112,-0.0773,0.7674,0.1736,-1.4364,0.7510,0.4189,0.3232,
12.410677,0.1375,-1.0112,-0.0773,1.3116,-0.2241,-1.6181,0.7510,0.4189,0.3232,
12.412290,0.1167,-1.0158,0.0048,1.3116,-0.2241,-1.6181,0.7510,0.4189,0.3232,
12.413631,0.0598,-1.0095,0.0502,1.3116,-0.2241,-1.6181,0.7510,0.4189,0.3232,
12.414641,0.0464,-1.0605,0.0131,1.3116,-0.2241,-1.6181,0.7510,0.4189,0.3232,
12.415941,0.1255,-1.1761,-0.0477,1.3116,-0.2241,-1.6181,0.7510,0.4189,0.3232,
12.447742,0.1255,-1.1761,-0.0477,1.3116,-0.2241,-1.6181,0.7329,0.4104,0.3732,
12.450349,0.1255,-1.1761,-0.0477,1.4572,-0.2738,-1.8613,0.7329,0.4104,0.3732,
12.487572,0.1255,-1.1761,-0.0477,1.4572,-0.2738,-1.8613,0.4069,0.1420,0.0334,
12.490134,0.1255,-1.1761,-0.0477,1.7076,-1.8077,-2.1750,0.4069,0.1420,0.0334,
12.491631,0.2206,-1.2694,-0.0482,1.7076,-1.8077,-2.1750,0.4069,0.1420,0.0334,
12.492953,0.2623,-1.3368,-0.0287,1.7076,-1.8077,-2.1750,0.4069,0.1420,0.0334,
12.493910,0.1915,-1.3378,-0.1156,1.7076,-1.8077,-2.1750,0.4069,0.1420,0.0334,
12.495159,0.0972,-1.3862,-0.2962,1.7076,-1.8077,-2.1750,0.4069,0.1420,0.0334,
12.526843,0.0972,-1.3862,-0.2962,1.7076,-1.8077,-2.1750,-0.5454,0.0056,-0.1924,
12.529566,0.0972,-1.3862,-0.2962,2.1164,-3.5186,-3.0820,-0.5454,0.0056,-0.1924,
12.566674,0.0972,-1.3862,-0.2962,2.1164,-3.5186,-3.0820,-1.9431,-0.0189,-0.1914,
12.568878,0.0972,-1.3862,-0.2962,0.6111,-1.9604,-3.6932,-1.9431,-0.0189,-0.1914,
12.570451,0.0129,-1.3251,-0.3783,0.6111,-1.9604,-3.6932,-1.9431,-0.0189,-0.1914,
12.571701,0.0324,-1.2110,-0.3121,0.6111,-1.9604,-3.6932,-1.9431,-0.0189,-0.1914,
12.573022,0.0710,-1.0884,-0.1875,0.6111,-1.9604,-3.6932,-1.9431,-0.0189,-0.1914,
12.574283,-0.0003,-0.9701,-0.0934,0.6111,-1.9604,-3.6932,-1.9431,-0.0189,-0.1914,
12.606223,-0.0003,-0.9701,-0.0934,0.6111,-1.9604,-3.6932,-2.6334,-0.2767,-0.5173,
12.608965,-0.0003,-0.9701,-0.0934,0.3985,-1.8933,-2.6168,-2.6334,-0.2767,-0.5173,
12.646066,-0.0003,-0.9701,-0.0934,0.3985,-1.8933,-2.6168,-2.2818,0.3326,-0.5056,
12.648473,-0.0003,-0.9701,-0.0934,-1.8353,0.1886,1.9995,-2.2818,0.3326,-0.5056,
12.649867,-0.1813,-0.9645,0.0717,-1.8353,0.1886,1.9995,-2.2818,0.3326,-0.5056,
12.651027,-0.3311,-1.0317,0.2933,-1.8353,0.1886,1.9995,-2.2818,0.3326,-0.5056,
12.652019,-0.3736,-1.0906,0.3006,-1.8353,0.1886,1.9995,-2.2818,0.3326,-0.5056,
12.653533,-0.2901,-1.0793,0.1519,-1.8353,0.1886,1.9995,-2.2818,0.3326,-0.5056,
12.684988,-0.2901,-1.0793,0.1519,-1.8353,0.1886,1.9995,-1.7982,0.7769,-0.2798,
12.687558,-0.2901,-1.0793,0.1519,-1.9576,0.0806,2.6476,-1.7982,0.7769,-0.2798,
12.726043,-0.2901,-1.0793,0.1519,-1.9576,0.0806,2.6476,-1.7705,0.3678,-0.1956,
12.728564,-0.2901,-1.0793,0.1519,-3.1362,-0.9784,3.7527,-1.7705,0.3678,-0.1956,
12.730069,-0.1940,-1.0798,-0.0299,-3.1362,-0.9784,3.7527,-1.7705,0.3678,-0.1956,
12.731344,-0.1327,-1.0879,-0.2043,-3.1362,-0.9784,3.7527,-1.7705,0.3678,-0.1956,
12.733174,-0.0372,-1.0083,-0.2314,-3.1362,-0.9784,3.7527,-1.7705,0.3678,-0.1956,
12.734355,0.0644,-0.9506,-0.0810,-3.1362,-0.9784,3.7527,-1.7705,0.3678,-0.1956,
12.764259,0.0644,-0.9506,-0.0810,-3.1362,-0.9784,3.7527,-1.6970,0.1611,-0.3171,
12.766694,0.0644,-0.9506,-0.0810,-0.8020,-0.4930,1.3015,-1.6970,0.1611,-0.3171,
12.803689,0.0644,-0.9506,-0.0810,-0.8020,-0.4930,1.3015,-1.2879,-0.2479,-0.6750,
12.805961,0.0644,-0.9506,-0.0810,0.3657,-0.1323,2.0323,-1.2879,-0.2479,-0.6750,
12.807217,0.1402,-0.9455,-0.0512,0.3657,-0.1323,2.0323,-1.2879,-0.2479,-0.6750,
12.808346,0.1270,-0.9804,-0.1442,0.3657,-0.1323,2.0323,-1.2879,-0.2479,-0.6750,
12.809491,0.0534,-0.9560,-0.2354,0.3657,-0.1323,2.0323,-1.2879,-0.2479,-0.6750,
12.810620,-0.0897,-0.9118,-0.2146,0.3657,-0.1323,2.0323,-1.2879,-0.2479,-0.6750,
12.845124,-0.0897,-0.9118,-0.2146,0.3657,-0.1323,2.0323,-1.1590,-0.7891,-0.7421,
12.847845,-0.0897,-0.9118,-0.2146,0.2074,-0.3176,2.4374,-1.1590,-0.7891,-0.7421,
12.883237,-0.0897,-0.9118,-0.2146,0.2074,-0.3176,2.4374,-0.8394,-0.5750,-0.2329,
12.885966,-0.0897,-0.9118,-0.2146,-2.5155,0.7552,2.7878,-0.8394,-0.5750,-0.2329,
12.887362,-0.2053,-0.8436,-0.1293,-2.5155,0.7552,2.7878,-0.8394,-0.5750,-0.2329,
12.888463,-0.2334,-0.7510,-0.0629,-2.5155,0.7552,2.7878,-0.8394,-0.5750,-0.2329,
12.889930,-0.1044,-0.6824,-0.0597,-2.5155,0.7552,2.7878,-0.8394,-0.5750,-0.2329,
12.890879,0.0319,-0.6613,-0.1188,-2.5155,0.7552,2.7878,-0.8394,-0.5750,-0.2329,
12.923214,0.0319,-0.6613,-0.1188,-2.5155,0.7552,2.7878,-0.2344,-0.3609,-0.0081,
12.925904,0.0319,-0.6613,-0.1188,-2.4177,0.7043,2.8336,-0.2344,-0.3609,-0.0081,
12.960892,0.0764,-0.6635,-0.2016,-2.4177,0.7043,2.8336,-0.2344,-0.3609,-0.0081,
12.963256,0.1099,-0.6811,-0.2654,-2.4177,0.7043,2.8336,-0.2344,-0.3609,-0.0081,
12.964471,0.1807,-0.7129,-0.3448,-2.4177,0.7043,2.8336,-0.2344,-0.3609,-0.0081,
12.965820,0.1807,-0.7129,-0.3448,-2.4177,0.7043,2.8336,0.2940,-0.4375,-0.0785,
12.966831,0.1807,-0.7129,-0.3448,-0.6243,2.3410,2.7812,0.2940,-0.4375,-0.0785,
13.002507,0.1807,-0.7129,-0.3448,-0.6243,2.3410,2.7812,0.6562,-0.3449,-0.2212,
13.004491,0.1807,-0.7129,-0.3448,1.2005,2.0213,0.4303,0.6562,-0.3449,-0.2212,
13.044113,0.1807,-0.7129,-0.3448,1.2005,2.0213,0.4303,0.6434,-0.3257,-0.6217,
13.046965,0.1807,-0.7129,-0.3448,1.0092,2.0614,0.2072,0.6434,-0.3257,-0.6217,
13.048289,0.2858,-0.7300,-0.4188,1.0092,2.0614,0.2072,0.6434,-0.3257,-0.6217,
13.049799,0.3569,-0.7679,-0.5253,1.0092,2.0614,0.2072,0.6434,-0.3257,-0.6217,
13.051045,0.3644,-0.8898,-0.6885,1.0092,2.0614,0.2072,0.6434,-0.3257,-0.6217,
13.052598,0.3451,-1.0092,-0.8173,1.0092,2.0614,0.2072,0.6434,-0.3257,-0.6217,
13.053869,0.2406,-1.0112,-0.8241,1.0092,2.0614,0.2072,0.6434,-0.3257,-0.6217,
13.082010,0.2406,-1.0112,-0.8241,1.0092,2.0614,0.2072,0.1949,-0.4653,-0.8795,
13.085007,0.2406,-1.0112,-0.8241,2.3221,0.2759,-3.0656,0.1949,-0.4653,-0.8795,
13.122253,0.2406,-1.0112,-0.8241,2.3221,0.2759,-3.0656,-0.0426,-0.5984,-0.6388,
13.125174,0.2406,-1.0112,-0.8241,0.1456,-0.2010,-3.6769,-0.0426,-0.5984,-0.6388,
13.127288,0.1331,-0.9144,-0.7193,0.1456,-0.2010,-3.6769,-0.0426,-0.5984,-0.6388,
13.128382,0.0708,-0.8768,-0.7076,0.1456,-0.2010,-3.6769,-0.0426,-0.5984,-0.6388,
13.129602,0.0241,-1.0175,-0.7198,0.1456,-0.2010,-3.6769,-0.0426,-0.5984,-0.6388,
13.130931,0.1890,-1.3825,-0.7391,0.1456,-0.2010,-3.6769,-0.0426,-0.5984,-0.6388,
13.161563,0.1890,-1.3825,-0.7391,0.1456,-0.2010,-3.6769,-0.1982,-0.6378,-0.6803,
13.164247,0.1890,-1.3825,-0.7391,-0.0008,-0.2630,-3.5125,-0.1982,-0.6378,-0.6803,
13.200986,0.1890,-1.3825,-0.7391,-0.0008,-0.2630,-3.5125,0.1012,0.6991,-0.5983,
13.203348,0.1890,-1.3825,-0.7391,1.1108,-3.6851,-2.2091,0.1012,0.6991,-0.5983,
13.204696,0.6740,-1.4622,-0.3797,1.1108,-3.6851,-2.2091,0.1012,0.6991,-0.5983,
13.206038,0.0666,-0.7854,0.0551,1.1108,-3.6851,-2.2091,0.1012,0.6991,-0.5983,
13.207202,-1.0076,-0.4749,-0.1958,1.1108,-3.6851,-2.2091,0.1012,0.6991,-0.5983,
13.208432,-0.6458,-0.8810,-0.3468,1.1108,-3.6851,-2.2091,0.1012,0.6991,-0.5983,
13.240198,-0.6458,-0.8810,-0.3468,1.1108,-3.6851,-2.2091,0.7233,0.8748,0.6246,
13.242849,-0.6458,-0.8810,-0.3468,-6.7593,2.0495,1.8540,0.7233,0.8748,0.6246,
13.279510,-0.6458,-0.8810,-0.3468,-6.7593,2.0495,1.8540,1.0642,1.5790,0.6800,
13.282017,-0.6458,-0.8810,-0.3468,0.6520,-1.9078,3.9063,1.0642,1.5790,0.6800,
13.283645,0.1065,-1.2137,-0.1271,0.6520,-1.9078,3.9063,1.0642,1.5790,0.6800,
13.284908,0.3491,-1.1829,0.2792,0.6520,-1.9078,3.9063,1.0642,1.5790,0.6800,
13.286195,0.2159,-1.0202,0.1568,0.6520,-1.9078,3.9063,1.0642,1.5790,0.6800,
13.287193,0.1275,-0.9137,-0.1208,0.6520,-1.9078,3.9063,1.0642,1.5790,0.6800,
13.318464,0.1275,-0.9137,-0.1208,0.6520,-1.9078,3.9063,1.1622,0.5127,0.6651,
13.320646,0.1275,-0.9137,-0.1208,0.8283,-1.7176,3.3885,1.1622,0.5127,0.6651,
13.357471,0.1275,-0.9137,-0.1208,0.8283,-1.7176,3.3885,0.8021,-0.1446,0.8611,
13.359431,0.1275,-0.9137,-0.1208,-0.1889,0.2031,0.5347,0.8021,-0.1446,0.8611,
13.360037,0.1023,-0.9220,-0.2029,-0.1889,0.2031,0.5347,0.8021,-0.1446,0.8611,
13.360651,0.0263,-1.0263,-0.1479,-0.1889,0.2031,0.5347,0.8021,-0.1446,0.8611,
13.361028,0.0080,-1.1013,-0.0866,-0.1889,0.2031,0.5347,0.8021,-0.1446,0.8611,
13.361639,0.0884,-1.0549,0.0043,-0.1889,0.2031,0.5347,0.8021,-0.1446,0.8611,
13.399252,0.0884,-1.0549,0.0043,-0.1889,0.2031,0.5347,0.8628,-0.3001,0.6779,
13.400708,0.0884,-1.0549,0.0043,0.0899,0.2876,0.2134,0.8628,-0.3001,0.6779,
13.437242,0.0884,-1.0549,0.0043,0.0899,0.2876,0.2134,1.0365,-0.2256,0.4606,
13.438612,0.0884,-1.0549,0.0043,0.0349,-0.5788,1.0694,1.0365,-0.2256,0.4606,
13.440370,0.0847,-0.9973,-0.0018,0.0349,-0.5788,1.0694,1.0365,-0.2256,0.4606,
13.441277,0.0737,-0.9850,-0.0932,0.0349,-0.5788,1.0694,1.0365,-0.2256,0.4606,
13.441953,0.1131,-0.9557,-0.1310,0.0349,-0.5788,1.0694,1.0365,-0.2256,0.4606,
13.442821,0.1370,-0.9030,-0.0338,0.0349,-0.5788,1.0694,1.0365,-0.2256,0.4606,
13.476541,0.1370,-0.9030,-0.0338,0.0349,-0.5788,1.0694,1.0184,-0.2458,0.3626,
13.478140,0.1370,-0.9030,-0.0338,0.6414,0.4784,0.1103,1.0184,-0.2458,0.3626,
13.516665,0.1370,-0.9030,-0.0338,0.6414,0.4784,0.1103,1.2229,-0.0381,0.2070,
13.518374,0.1370,-0.9030,-0.0338,0.7761,0.9870,-0.0417,1.2229,-0.0381,0.2070,
13.519286,0.1465,-0.8773,0.0160,0.7761,0.9870,-0.0417,1.2229,-0.0381,0.2070,
13.519860,0.1255,-0.8912,-0.0409,0.7761,0.9870,-0.0417,1.2229,-0.0381,0.2070,
13.520500,0.0720,-0.9259,-0.1349,0.7761,0.9870,-0.0417,1.2229,-0.0381,0.2070,
13.521077,0.0556,-0.9267,-0.2004,0.7761,0.9870,-0.0417,1.2229,-0.0381,0.2070,
13.555583,0.0556,-0.9267,-0.2004,0.7761,0.9870,-0.0417,1.0461,-0.1414,0.2454,
13.557058,0.0556,-0.9267,-0.2004,0.8582,0.9848,-0.4386,1.0461,-0.1414,0.2454,
13.584069,0.0449,-0.9100,-0.1870,0.8582,0.9848,-0.4386,1.0461,-0.1414,0.2454,
13.585898,0.0332,-0.9144,-0.1354,0.8582,0.9848,-0.4386,1.0461,-0.1414,0.2454,
13.586654,0.0439,-0.9364,-0.1122,0.8582,0.9848,-0.4386,1.0461,-0.1414,0.2454,
13.595811,0.0439,-0.9364,-0.1122,0.8582,0.9848,-0.4386,0.7691,-0.2426,0.2986,
13.597304,0.0439,-0.9364,-0.1122,0.2813,0.7868,-1.8887,0.7691,-0.2426,0.2986,
13.635607,0.0439,-0.9364,-0.1122,0.2813,0.7868,-1.8887,0.6967,-0.0541,0.3338,
13.637103,0.0439,-0.9364,-0.1122,0.4048,0.3457,-1.3148,0.6967,-0.0541,0.3338,
13.671732,0.0493,-0.9692,-0.0973,0.4048,0.3457,-1.3148,0.6967,-0.0541,0.3338,
13.673511,0.0410,-0.9765,-0.0619,0.4048,0.3457,-1.3148,0.6967,-0.0541,0.3338,
13.674315,0.0283,-0.9704,-0.0111,0.4048,0.3457,-1.3148,0.6967,-0.0541,0.3338,
13.676260,0.0075,-0.9626,0.0180,0.4048,0.3457,-1.3148,0.6967,-0.0541,0.3338,
13.676853,0.0075,-0.9626,0.0180,0.4048,0.3457,-1.3148,0.7670,0.0077,0.3924,
13.677543,0.0075,-0.9626,0.0180,0.5472,0.3221,-1.5840,0.7670,0.0077,0.3924,
13.714026,0.0075,-0.9626,0.0180,0.5472,0.3221,-1.5840,0.9619,-0.0178,0.5479,
13.715779,0.0075,-0.9626,0.0180,0.5544,0.2100,-1.0793,0.9619,-0.0178,0.5479,
13.753731,0.0075,-0.9626,0.0180,0.5544,0.2100,-1.0793,1.0482,0.1302,0.4787,
13.755412,0.0075,-0.9626,0.0180,0.7319,0.1479,-1.4539,1.0482,0.1302,0.4787,
13.756676,0.0390,-0.9706,-0.0160,0.7319,0.1479,-1.4539,1.0482,0.1302,0.4787,
13.757142,0.1424,-1.0070,-0.0326,0.7319,0.1479,-1.4539,1.0482,0.1302,0.4787,
13.757729,0.1570,-1.0320,0.0241,0.7319,0.1479,-1.4539,1.0482,0.1302,0.4787,
13.758229,0.0786,-1.0447,0.0461,0.7319,0.1479,-1.4539,1.0482,0.1302,0.4787,
13.758730,0.0219,-1.0425,-0.0216,0.7319,0.1479,-1.4539,1.0482,0.1302,0.4787,
13.794575,0.0219,-1.0425,-0.0216,0.7319,0.1479,-1.4539,1.1015,0.3582,0.5010,
13.795523,0.0219,-1.0425,-0.0216,1.9040,-0.5145,-1.6832,1.1015,0.3582,0.5010,
13.834271,0.0219,-1.0425,-0.0216,1.9040,-0.5145,-1.6832,0.4847,0.1121,0.5543,
13.836194,0.0219,-1.0425,-0.0216,1.5039,-0.9674,-3.2438,0.4847,0.1121,0.5543,
13.837225,0.0217,-1.0334,-0.1420,1.5039,-0.9674,-3.2438,0.4847,0.1121,0.5543,
13.838030,0.1531,-1.1351,-0.2383,1.5039,-0.9674,-3.2438,0.4847,0.1121,0.5543,
13.838849,0.4453,-1.3427,-0.1464,1.5039,-0.9674,-3.2438,0.4847,0.1121,0.5543,
13.839743,0.5604,-1.4475,-0.0282,1.5039,-0.9674,-3.2438,0.4847,0.1121,0.5543,
13.873524,0.5604,-1.4475,-0.0282,1.5039,-0.9674,-3.2438,-0.4485,-0.1404,-0.3853,
13.877607,0.5604,-1.4475,-0.0282,1.3255,-0.9073,-3.0273,-0.4485,-0.1404,-0.3853,
13.914035,0.5604,-1.4475,-0.0282,1.3255,-0.9073,-3.0273,-1.6767,0.0834,-0.7943,
13.916628,0.5604,-1.4475,-0.0282,4.4246,-4.1834,-1.8284,-1.6767,0.0834,-0.7943,
13.918316,0.2543,-1.4788,-0.0663,4.4246,-4.1834,-1.8284,-1.6767,0.0834,-0.7943,
13.919659,-0.1447,-1.3305,-0.2864,4.4246,-4.1834,-1.8284,-1.6767,0.0834,-0.7943,
13.922118,-0.3365,-1.1333,-0.3929,4.4246,-4.1834,-1.8284,-1.6767,0.0834,-0.7943,
13.923574,-0.3284,-1.0386,-0.2444,4.4246,-4.1834,-1.8284,-1.6767,0.0834,-0.7943,
13.952470,-0.3284,-1.0386,-0.2444,4.4246,-4.1834,-1.8284,-2.9284,-0.2852,-0.5184,
13.954552,-0.3284,-1.0386,-0.2444,-2.4992,-1.5928,-2.8742,-2.9284,-0.2852,-0.5184,
13.984704,-0.2505,-1.0808,0.0822,-2.4992,-1.5928,-2.8742,-2.9284,-0.2852,-0.5184,
13.986535,-0.2365,-1.1548,0.3681,-2.4992,-1.5928,-2.8742,-2.9284,-0.2852,-0.5184,
13.987553,-0.2827,-1.2120,0.3962,-2.4992,-1.5928,-2.8742,-2.9284,-0.2852,-0.5184,
13.993116,-0.2827,-1.2120,0.3962,-2.4992,-1.5928,-2.8742,-2.6089,0.1015,-0.5600,
13.995174,-0.2827,-1.2120,0.3962,-2.5480,-1.4560,3.8591,-2.6089,0.1015,-0.5600,
14.031540,-0.2827,-1.2120,0.3962,-2.5480,-1.4560,3.8591,-2.0400,1.1785,-0.4918,
14.033333,-0.2827,-1.2120,0.3962,-1.9353,-1.7286,1.6773,-2.0400,1.1785,-0.4918,
14.036531,-0.2595,-1.2213,0.1665,-1.9353,-1.7286,1.6773,-2.0400,1.1785,-0.4918,
14.037822,-0.1694,-1.1846,-0.0636,-1.9353,-1.7286,1.6773,-2.0400,1.1785,-0.4918,
14.038538,-0.0829,-1.0965,-0.1542,-1.9353,-1.7286,1.6773,-2.0400,1.1785,-0.4918,
14.071717,-0.0829,-1.0965,-0.1542,-1.9353,-1.7286,1.6773,-2.0230,0.6362,-0.4620,
14.073816,-0.0829,-1.0965,-0.1542,-2.1301,-1.8822,2.3987,-2.0230,0.6362,-0.4620,
14.112459,-0.0829,-1.0965,-0.1542,-2.1301,-1.8822,2.3987,-1.7045,-0.1467,-0.6697,
14.114958,-0.0255,-1.0000,-0.0861,-2.1301,-1.8822,2.3987,-1.7045,-0.1467,-0.6697,
14.116269,0.1226,-0.9311,-0.0218,-2.1301,-1.8822,2.3987,-1.7045,-0.1467,-0.6697,
14.117141,0.2259,-0.9499,-0.0211,-2.1301,-1.8822,2.3987,-1.7045,-0.1467,-0.6697,
14.117933,0.2118,-0.9689,-0.0656,-2.1301,-1.8822,2.3987,-1.7045,-0.1467,-0.6697,
14.119259,0.2118,-0.9689,-0.0656,0.3584,-0.0614,2.7415,-1.7045,-0.1467,-0.6697,
14.151431,0.2118,-0.9689,-0.0656,0.3584,-0.0614,2.7415,-1.2208,-0.9542,-1.1054,
14.153985,0.2118,-0.9689,-0.0656,0.0828,-0.2583,3.1675,-1.2208,-0.9542,-1.1054,
14.191252,0.2118,-0.9689,-0.0656,0.0828,-0.2583,3.1675,-0.9854,-1.3856,-1.0138,
14.194172,0.2118,-0.9689,-0.0656,-0.8994,-0.2916,2.4310,-0.9854,-1.3856,-1.0138,
14.195591,0.0498,-0.9621,-0.2385,-0.8994,-0.2916,2.4310,-0.9854,-1.3856,-1.0138,
14.196994,-0.1965,-0.9032,-0.1640,-0.8994,-0.2916,2.4310,-0.9854,-1.3856,-1.0138,
14.198148,-0.3279,-0.7705,0.0312,-0.8994,-0.2916,2.4310,-0.9854,-1.3856,-1.0138,
14.199215,-0.2649,-0.6435,0.1133,-0.8994,-0.2916,2.4310,-0.9854,-1.3856,-1.0138,
14.231688,-0.2649,-0.6435,0.1133,-0.8994,-0.2916,2.4310,-0.4293,-0.7444,-0.3384,
14.234086,-0.2649,-0.6435,0.1133,-0.8844,-0.3693,2.5723,-0.4293,-0.7444,-0.3384,
14.269540,-0.2649,-0.6435,0.1133,-0.8844,-0.3693,2.5723,0.3419,-0.2660,0.0366,
14.271575,-0.2649,-0.6435,0.1133,-3.3627,2.4115,4.6773,0.3419,-0.2660,0.0366,
14.273285,-0.1354,-0.5736,0.0896,-3.3627,2.4115,4.6773,0.3419,-0.2660,0.0366,
14.274347,-0.0391,-0.5866,-0.0231,-3.3627,2.4115,4.6773,0.3419,-0.2660,0.0366,
14.275608,0.0378,-0.6518,-0.1718,-3.3627,2.4115,4.6773,0.3419,-0.2660,0.0366,
14.277097,0.1556,-0.7043,-0.3477,-3.3627,2.4115,4.6773,0.3419,-0.2660,0.0366,
14.309917,0.1556,-0.7043,-0.3477,-3.3627,2.4115,4.6773,0.7680,-0.3939,0.1207,
14.311891,0.1556,-0.7043,-0.3477,-0.3718,2.6333,1.8507,0.7680,-0.3939,0.1207,
14.349731,0.1556,-0.7043,-0.3477,-0.3718,2.6333,1.8507,0.7073,-0.4983,-0.0934,
14.351489,0.1556,-0.7043,-0.3477,2.2513,0.8756,-2.0097,0.7073,-0.4983,-0.0934,
14.352704,0.2284,-0.7444,-0.4843,2.2513,0.8756,-2.0097,0.7073,-0.4983,-0.0934,
14.353448,0.3337,-0.8297,-0.5627,2.2513,0.8756,-2.0097,0.7073,-0.4983,-0.0934,
14.354306,0.3960,-0.9313,-0.6155,2.2513,0.8756,-2.0097,0.7073,-0.4983,-0.0934,
14.355345,0.3364,-1.0131,-0.7098,2.2513,0.8756,-2.0097,0.7073,-0.4983,-0.0934,
14.388958,0.3364,-1.0131,-0.7098,2.2513,0.8756,-2.0097,0.4431,-0.3662,-0.4950,
14.390823,0.3364,-1.0131,-0.7098,2.0862,0.9007,-2.1199,0.4431,-0.3662,-0.4950,
14.428791,0.3364,-1.0131,-0.7098,2.0862,0.9007,-2.1199,-0.0149,-0.5260,-0.5834,
14.431280,0.3364,-1.0131,-0.7098,1.2036,-1.0831,-4.0953,-0.0149,-0.5260,-0.5834,
14.433324,0.2227,-1.0754,-0.7941,1.2036,-1.0831,-4.0953,-0.0149,-0.5260,-0.5834,
14.434158,0.1780,-1.0212,-0.7934,1.2036,-1.0831,-4.0953,-0.0149,-0.5260,-0.5834,
14.435428,0.1925,-0.9115,-0.6834,1.2036,-1.0831,-4.0953,-0.0149,-0.5260,-0.5834,
14.436686,0.1585,-0.8155,-0.5361,1.2036,-1.0831,-4.0953,-0.0149,-0.5260,-0.5834,
14.468441,0.1585,-0.8155,-0.5361,1.2036,-1.0831,-4.0953,0.0937,-0.6783,-0.4151,
14.470798,0.1585,-0.8155,-0.5361,1.1270,-1.0727,-4.0274,0.0937,-0.6783,-0.4151,
14.507412,0.0466,-0.7991,-0.4396,1.1270,-1.0727,-4.0274,0.0937,-0.6783,-0.4151,
14.510305,0.0036,-1.0464,-0.5468,1.1270,-1.0727,-4.0274,0.0937,-0.6783,-0.4151,
14.511398,0.1204,-1.5565,-0.7184,1.1270,-1.0727,-4.0274,0.0937,-0.6783,-0.4151,
14.512913,0.1204,-1.5565,-0.7184,1.1270,-1.0727,-4.0274,0.3473,-0.5217,-0.2585,
14.513612,0.1204,-1.5565,-0.7184,-0.0044,0.8534,-2.0073,0.3473,-0.5217,-0.2585,
14.547145,0.1204,-1.5565,-0.7184,-0.0044,0.8534,-2.0073,-0.0895,0.6682,-0.4779,
14.548836,0.1204,-1.5565,-0.7184,-0.5061,-5.3588,-1.8168,-0.0895,0.6682,-0.4779,
14.587196,0.1204,-1.5565,-0.7184,-0.5061,-5.3588,-1.8168,0.2279,0.6330,0.2912,
14.589843,0.1204,-1.5565,-0.7184,-0.4770,-5.2218,-1.9067,0.2279,0.6330,0.2912,
14.592542,0.1976,-1.8409,-0.3431,-0.4770,-5.2218,-1.9067,0.2279,0.6330,0.2912,
14.593860,-0.1352,-1.0395,-0.1941,-0.4770,-5.2218,-1.9067,0.2279,0.6330,0.2912,
14.595168,-0.6568,-0.4627,-0.1525,-0.4770,-5.2218,-1.9067,0.2279,0.6330,0.2912,
14.596520,-0.6057,-0.9083,-0.1682,-0.4770,-5.2218,-1.9067,0.2279,0.6330,0.2912,
14.597491,0.0324,-1.0588,0.1753,-0.4770,-5.2218,-1.9067,0.2279,0.6330,0.2912,
14.626180,0.0324,-1.0588,0.1753,-0.4770,-5.2218,-1.9067,0.7350,0.8290,1.0060,
14.627944,0.0324,-1.0588,0.1753,-5.7273,1.5422,1.3236,0.7350,0.8290,1.0060,
14.666211,0.0324,-1.0588,0.1753,-5.7273,1.5422,1.3236,1.0013,0.7555,0.7120,
14.667790,0.0324,-1.0588,0.1753,0.7880,-0.2367,4.7760,1.0013,0.7555,0.7120,
14.669991,0.2828,-1.0254,0.3094,0.7880,-0.2367,4.7760,1.0013,0.7555,0.7120,
14.671059,0.2296,-0.9154,0.2071,0.7880,-0.2367,4.7760,1.0013,0.7555,0.7120,
14.671900,0.1192,-0.8426,0.0717,0.7880,-0.2367,4.7760,1.0013,0.7555,0.7120,
14.672855,0.0774,-0.9464,-0.0592,0.7880,-0.2367,4.7760,1.0013,0.7555,0.7120,
14.705152,0.0774,-0.9464,-0.0592,0.7880,-0.2367,4.7760,1.0802,0.2847,0.4957,
14.706660,0.0774,-0.9464,-0.0592,0.9344,-0.1182,4.2812,1.0802,0.2847,0.4957,
14.745748,0.0368,-1.1126,-0.0993,0.9344,-0.1182,4.2812,1.0802,0.2847,0.4957,
14.747995,0.0503,-1.0874,-0.0617,0.9344,-0.1182,4.2812,1.0802,0.2847,0.4957,
14.749330,0.0332,-0.9887,-0.0888,0.9344,-0.1182,4.2812,1.0802,0.2847,0.4957,
14.750589,0.0332,-0.9887,-0.0888,0.9344,-0.1182,4.2812,1.1025,0.2091,0.2848,
14.751715,0.0332,-0.9887,-0.0888,0.0112,0.2848,1.2846,1.1025,0.2091,0.2848,
14.785096,0.0332,-0.9887,-0.0888,0.0112,0.2848,1.2846,0.8628,0.2698,0.2699,
14.787564,0.0332,-0.9887,-0.0888,-0.4145,-0.1175,0.1129,0.8628,0.2698,0.2699,
14.824836,0.0332,-0.9887,-0.0888,-0.4145,-0.1175,0.1129,0.5582,0.0834,0.3572,
14.827253,0.0332,-0.9887,-0.0888,-0.2743,-0.0832,-0.1050,0.5582,0.0834,0.3572,
14.828497,-0.0101,-0.9662,-0.1897,-0.2743,-0.0832,-0.1050,0.5582,0.0834,0.3572,
14.829865,0.0334,-0.9552,-0.2012,-0.2743,-0.0832,-0.1050,0.5582,0.0834,0.3572,
14.831008,0.0713,-0.9357,-0.0978,-0.2743,-0.0832,-0.1050,0.5582,0.0834,0.3572,
14.831988,0.1231,-0.9188,0.0243,-0.2743,-0.0832,-0.1050,0.5582,0.0834,0.3572,
14.833196,0.1702,-0.9362,0.0595,-0.2743,-0.0832,-0.1050,0.5582,0.0834,0.3572,
14.864424,0.1702,-0.9362,0.0595,-0.2743,-0.0832,-0.1050,0.8479,0.1153,0.2326,
14.866463,0.1702,-0.9362,0.0595,0.3119,0.6973,-0.2213,0.8479,0.1153,0.2326,
14.904690,0.1702,-0.9362,0.0595,0.3119,0.6973,-0.2213,0.9172,0.1963,0.0845,
14.907255,0.1702,-0.9362,0.0595,1.0434,0.4968,-0.0333,0.9172,0.1963,0.0845,
14.908682,0.1568,-0.9743,-0.0201,1.0434,0.4968,-0.0333,0.9172,0.1963,0.0845,
14.909922,0.1211,-0.9640,-0.1457,1.0434,0.4968,-0.0333,0.9172,0.1963,0.0845,
14.912069,0.0713,-0.9501,-0.2239,1.0434,0.4968,-0.0333,0.9172,0.1963,0.0845,
14.913502,0.0034,-0.9584,-0.2280,1.0434,0.4968,-0.0333,0.9172,0.1963,0.0845,
14.943430,0.0034,-0.9584,-0.2280,1.0434,0.4968,-0.0333,0.5560,0.0546,0.1218,
14.945962,0.0034,-0.9584,-0.2280,1.0725,0.4948,-0.2478,0.5560,0.0546,0.1218,
14.983483,0.0034,-0.9584,-0.2280,1.0725,0.4948,-0.2478,0.4538,0.1036,0.2677,
14.985946,0.0034,-0.9584,-0.2280,-0.0845,0.5570,-2.0280,0.4538,0.1036,0.2677,
14.987217,-0.0133,-0.9452,-0.1550,-0.0845,0.5570,-2.0280,0.4538,0.1036,0.2677,
14.988407,-0.0005,-0.9464,-0.0558,-0.0845,0.5570,-2.0280,0.4538,0.1036,0.2677,
14.989721,0.0398,-0.9565,0.0397,-0.0845,0.5570,-2.0280,0.4538,0.1036,0.2677,
14.990558,0.0583,-0.9675,0.0886,-0.0845,0.5570,-2.0280,0.4538,0.1036,0.2677,
15.023454,0.0583,-0.9675,0.0886,-0.0845,0.5570,-2.0280,0.7521,0.2304,0.2880,
15.025596,0.0583,-0.9675,0.0886,0.1456,0.4912,-0.1031,0.7521,0.2304,0.2880,
15.062427,0.0583,-0.9675,0.0886,0.1456,0.4912,-0.1031,0.8607,0.2879,0.2859,
15.066142,0.0583,-0.9675,0.0886,0.5578,0.3778,-1.5400,0.8607,0.2879,0.2859,
15.067826,0.0620,-0.9785,0.0151,0.5578,0.3778,-1.5400,0.8607,0.2879,0.2859,
15.068803,0.0617,-0.9677,-0.1159,0.5578,0.3778,-1.5400,0.8607,0.2879,0.2859,
15.070084,0.0669,-0.9521,-0.1711,0.5578,0.3778,-1.5400,0.8607,0.2879,0.2859,
15.071087,0.0710,-0.9616,-0.0795,0.5578,0.3778,-1.5400,0.8607,0.2879,0.2859,
15.102790,0.0710,-0.9616,-0.0795,0.5578,0.3778,-1.5400,0.6327,0.3902,0.3423,
15.104943,0.0710,-0.9616,-0.0795,0.6916,0.3523,-1.7566,0.6327,0.3902,0.3423,
15.142819,0.0710,-0.9616,-0.0795,0.6916,0.3523,-1.7566,0.7052,0.4104,0.3871,
15.145036,0.0710,-0.9616,-0.0795,0.8308,0.2443,-1.0394,0.7052,0.4104,0.3871,
15.146626,0.0613,-0.9806,0.0334,0.8308,0.2443,-1.0394,0.7052,0.4104,0.3871,
15.147758,0.0542,-0.9785,0.0715,0.8308,0.2443,-1.0394,0.7052,0.4104,0.3871,
15.148874,0.0617,-0.9858,0.0353,0.8308,0.2443,-1.0394,0.7052,0.4104,0.3871,
15.149995,0.1021,-1.0239,-0.0555,0.8308,0.2443,-1.0394,0.7052,0.4104,0.3871,
15.181870,0.1021,-1.0239,-0.0555,0.8308,0.2443,-1.0394,0.8117,0.3081,0.4233,
15.184203,0.1021,-1.0239,-0.0555,0.9931,0.1947,-1.3271,0.8117,0.3081,0.4233,
15.221235,0.1021,-1.0239,-0.0555,0.9931,0.1947,-1.3271,0.6871,0.2826,0.3721,
15.224027,0.1602,-1.0950,-0.0797,0.9931,0.1947,-1.3271,0.6871,0.2826,0.3721,
15.225510,0.2223,-1.1490,-0.1010,0.9931,0.1947,-1.3271,0.6871,0.2826,0.3721,
15.226986,0.2662,-1.1800,-0.1259,0.9931,0.1947,-1.3271,0.6871,0.2826,0.3721,
15.228082,0.2931,-1.2736,-0.0934,0.9931,0.1947,-1.3271,0.6871,0.2826,0.3721,
15.229394,0.2931,-1.2736,-0.0934,1.5762,-0.4475,-1.9626,0.6871,0.2826,0.3721,
15.260714,0.2931,-1.2736,-0.0934,1.5762,-0.4475,-1.9626,0.2684,-0.1627,0.0110,
15.263860,0.2931,-1.2736,-0.0934,3.0131,-2.0572,-2.7423,0.2684,-0.1627,0.0110,
15.301020,0.2931,-1.2736,-0.0934,2.1003,-3.2751,-3.1692,0.2684,-0.1627,0.0110,
15.303717,0.2931,-1.2736,-0.0934,2.1003,-3.2751,-3.1692,-0.6158,-0.2895,-0.3171,
15.304885,0.2694,-1.3657,-0.0985,2.1003,-3.2751,-3.1692,-0.6158,-0.2895,-0.3171,
15.306404,0.1993,-1.3425,-0.1977,2.1003,-3.2751,-3.1692,-0.6158,-0.2895,-0.3171,
