
time,gFx,gFy,gFz,ax,ay,az,wx,wy,wz,
0.056103,0.0000,0.0000,0.0000,0.1290,-0.0297,0.2247,0.0000,0.0000,0.0000,
0.117383,0.0000,0.0000,0.0000,0.1853,-0.1602,0.2758,0.0000,0.0000,0.0000,
0.177226,0.0000,0.0000,0.0000,0.1870,-0.2973,0.3303,0.0000,0.0000,0.0000,
0.237051,0.0000,0.0000,0.0000,0.2274,-0.4108,0.3784,0.0000,0.0000,0.0000,
0.297184,0.0000,0.0000,0.0000,0.2274,-0.4108,0.3784,0.3237,0.0426,-0.0173,
0.297948,0.0000,0.0000,0.0000,0.2880,-0.5087,0.4225,0.3237,0.0426,-0.0173,
0.357613,0.0000,0.0000,0.0000,0.2880,-0.5087,0.4225,0.2284,0.0121,-0.0722,
0.358426,0.0000,0.0000,0.0000,0.8145,0.9075,-0.0314,0.2284,0.0121,-0.0722,
0.418048,0.0000,0.0000,0.0000,0.8145,0.9075,-0.0314,0.1838,-0.0191,-0.0912,
0.418914,0.0000,0.0000,0.0000,0.8576,0.8798,-0.0198,0.1838,-0.0191,-0.0912,
0.425263,-0.2614,-0.9900,-0.0398,0.8576,0.8798,-0.0198,0.1838,-0.0191,-0.0912,
0.477207,-0.2614,-0.9900,-0.0398,0.8576,0.8798,-0.0198,0.1117,0.0408,-0.1058,
0.478503,-0.2614,-0.9900,-0.0398,-1.5823,-12.1963,-9.8236,0.1117,0.0408,-0.1058,
0.485295,-0.2062,-0.9624,0.0806,-1.5823,-12.1963,-9.8236,0.1117,0.0408,-0.1058,
0.486348,-0.1986,-0.9653,0.0840,-1.5823,-12.1963,-9.8236,0.1117,0.0408,-0.1058,
0.487138,-0.1903,-0.9777,0.0928,-1.5823,-12.1963,-9.8236,0.1117,0.0408,-0.1058,
0.537330,-0.1903,-0.9777,0.0928,-1.5823,-12.1963,-9.8236,0.1496,0.1184,-0.1480,
0.538331,-0.1903,-0.9777,0.0928,-0.8074,-12.0555,-8.5206,0.1496,0.1184,-0.1480,
0.545717,-0.1805,-0.9907,0.1024,-0.8074,-12.0555,-8.5206,0.1496,0.1184,-0.1480,
0.546424,-0.1713,-0.9956,0.1082,-0.8074,-12.0555,-8.5206,0.1496,0.1184,-0.1480,
0.547159,-0.1647,-0.9953,0.1068,-0.8074,-12.0555,-8.5206,0.1496,0.1184,-0.1480,
0.597816,-0.1647,-0.9953,0.1068,-0.8074,-12.0555,-8.5206,0.1795,0.1837,-0.1089,
0.598782,-0.1647,-0.9953,0.1068,-0.4392,-12.2226,-8.3717,0.1795,0.1837,-0.1089,
0.605317,-0.1610,-0.9895,0.1226,-0.4392,-12.2226,-8.3717,0.1795,0.1837,-0.1089,
0.606139,-0.1630,-0.9817,0.1305,-0.4392,-12.2226,-8.3717,0.1795,0.1837,-0.1089,
0.606759,-0.1600,-0.9792,0.1437,-0.4392,-12.2226,-8.3717,0.1795,0.1837,-0.1089,
0.657328,-0.1600,-0.9792,0.1437,-0.4392,-12.2226,-8.3717,0.1557,0.2558,-0.0588,
0.658452,-0.1600,-0.9792,0.1437,-0.2446,-12.0746,-7.9877,0.1557,0.2558,-0.0588,
0.667443,-0.1749,-0.9848,0.1568,-0.2446,-12.0746,-7.9877,0.1557,0.2558,-0.0588,
0.670059,-0.1859,-0.9895,0.1752,-0.2446,-12.0746,-7.9877,0.1557,0.2558,-0.0588,
0.671639,-0.1874,-0.9868,0.1981,-0.2446,-12.0746,-7.9877,0.1557,0.2558,-0.0588,
0.718664,-0.1874,-0.9868,0.1981,-0.2446,-12.0746,-7.9877,0.1539,0.2191,-0.0038,
0.720180,-0.1874,-0.9868,0.1981,-0.3347,-12.1504,-7.4266,0.1539,0.2191,-0.0038,
0.726040,-0.1918,-0.9672,0.2074,-0.3347,-12.1504,-7.4266,0.1539,0.2191,-0.0038,
0.728360,-0.2011,-0.9555,0.2306,-0.3347,-12.1504,-7.4266,0.1539,0.2191,-0.0038,
0.730380,-0.2238,-0.9562,0.2463,-0.3347,-12.1504,-7.4266,0.1539,0.2191,-0.0038,
0.778120,-0.2238,-0.9562,0.2463,-0.3347,-12.1504,-7.4266,-0.1375,0.1996,0.0072,
0.780708,-0.2238,-0.9562,0.2463,-0.5650,-11.8023,-6.9466,-0.1375,0.1996,0.0072,
0.785959,-0.2355,-0.9445,0.2411,-0.5650,-11.8023,-6.9466,-0.1375,0.1996,0.0072,
0.787326,-0.2262,-0.9440,0.2172,-0.5650,-11.8023,-6.9466,-0.1375,0.1996,0.0072,
0.788393,-0.2260,-0.9426,0.1984,-0.5650,-11.8023,-6.9466,-0.1375,0.1996,0.0072,
0.838216,-0.2260,-0.9426,0.1984,-0.5650,-11.8023,-6.9466,-0.2023,0.1715,-0.0557,
0.839478,-0.2260,-0.9426,0.1984,-0.4596,-11.4846,-7.4388,-0.2023,0.1715,-0.0557,
0.845139,-0.2081,-0.9460,0.2169,-0.4596,-11.4846,-7.4388,-0.2023,0.1715,-0.0557,
0.846223,-0.2035,-0.9362,0.2111,-0.4596,-11.4846,-7.4388,-0.2023,0.1715,-0.0557,
0.846997,-0.2130,-0.9372,0.2155,-0.4596,-11.4846,-7.4388,-0.2023,0.1715,-0.0557,
0.897314,-0.2130,-0.9372,0.2155,-0.4596,-11.4846,-7.4388,-0.1894,0.1715,0.0096,
0.898715,-0.2130,-0.9372,0.2155,-0.2189,-11.2414,-7.2929,-0.1894,0.1715,0.0096,
0.905564,-0.2182,-0.9416,0.2243,-0.2189,-11.2414,-7.2929,-0.1894,0.1715,0.0096,
0.906666,-0.2155,-0.9433,0.2150,-0.2189,-11.2414,-7.2929,-0.1894,0.1715,0.0096,
0.907780,-0.2228,-0.9418,0.2086,-0.2189,-11.2414,-7.2929,-0.1894,0.1715,0.0096,
0.958228,-0.2228,-0.9418,0.2086,-0.2189,-11.2414,-7.2929,-0.1626,0.0548,0.0548,
0.959393,-0.2228,-0.9418,0.2086,-0.2241,-11.1037,-7.3798,-0.1626,0.0548,0.0548,
0.966164,-0.2340,-0.9435,0.2094,-0.2241,-11.1037,-7.3798,-0.1626,0.0548,0.0548,
0.967900,-0.2450,-0.9509,0.2125,-0.2241,-11.1037,-7.3798,-0.1626,0.0548,0.0548,
0.968914,-0.2463,-0.9499,0.2116,-0.2241,-11.1037,-7.3798,-0.1626,0.0548,0.0548,
1.018170,-0.2463,-0.9499,0.2116,-0.2241,-11.1037,-7.3798,-0.1601,-0.1132,-0.0069,
1.019653,-0.2463,-0.9499,0.2116,-0.4449,-11.0240,-7.3794,-0.1601,-0.1132,-0.0069,
1.026150,-0.2516,-0.9496,0.1972,-0.4449,-11.0240,-7.3794,-0.1601,-0.1132,-0.0069,
1.028330,-0.2428,-0.9655,0.1925,-0.4449,-11.0240,-7.3794,-0.1601,-0.1132,-0.0069,
1.029295,-0.2463,-0.9829,0.1994,-0.4449,-11.0240,-7.3794,-0.1601,-0.1132,-0.0069,
1.077775,-0.2463,-0.9829,0.1994,-0.4449,-11.0240,-7.3794,-0.1009,-0.1394,-0.0887,
1.079331,-0.2463,-0.9829,0.1994,-0.4999,-11.1920,-7.5372,-0.1009,-0.1394,-0.0887,
1.087565,-0.2243,-0.9922,0.1930,-0.4999,-11.1920,-7.5372,-0.1009,-0.1394,-0.0887,
1.089531,-0.1862,-0.9719,0.1796,-0.4999,-11.1920,-7.5372,-0.1009,-0.1394,-0.0887,
1.090819,-0.1498,-0.9445,0.1681,-0.4999,-11.1920,-7.5372,-0.1009,-0.1394,-0.0887,
1.138224,-0.1498,-0.9445,0.1681,-0.4999,-11.1920,-7.5372,-0.2371,-0.2647,-0.1773,
1.139641,-0.1498,-0.9445,0.1681,0.3648,-10.6501,-7.8854,-0.2371,-0.2647,-0.1773,
1.145823,-0.1312,-0.9391,0.1654,0.3648,-10.6501,-7.8854,-0.2371,-0.2647,-0.1773,
1.146992,-0.1204,-0.9321,0.1505,0.3648,-10.6501,-7.8854,-0.2371,-0.2647,-0.1773,
1.147682,-0.1429,-0.9413,0.1615,0.3648,-10.6501,-7.8854,-0.2371,-0.2647,-0.1773,
1.198513,-0.1429,-0.9413,0.1615,0.3648,-10.6501,-7.8854,-0.2695,-0.2695,-0.0539,
1.200129,-0.1429,-0.9413,0.1615,0.3034,-10.3711,-8.0067,-0.2695,-0.2695,-0.0539,
1.205672,-0.1512,-0.9814,0.1779,0.3034,-10.3711,-8.0067,-0.2695,-0.2695,-0.0539,
1.207458,-0.1500,-1.0100,0.1837,0.3034,-10.3711,-8.0067,-0.2695,-0.2695,-0.0539,
1.209479,-0.1529,-1.0352,0.1986,0.3034,-10.3711,-8.0067,-0.2695,-0.2695,-0.0539,
1.257299,-0.1529,-1.0352,0.1986,0.3034,-10.3711,-8.0067,-0.2518,-0.4204,0.2222,
1.258387,-0.1529,-1.0352,0.1986,0.0294,-11.0628,-7.6967,-0.2518,-0.4204,0.2222,
1.266008,-0.1659,-1.0378,0.1986,0.0294,-11.0628,-7.6967,-0.2518,-0.4204,0.2222,
1.267128,-0.2016,-1.0161,0.2509,0.0294,-11.0628,-7.6967,-0.2518,-0.4204,0.2222,
1.267812,-0.2311,-0.9799,0.3007,0.0294,-11.0628,-7.6967,-0.2518,-0.4204,0.2222,
1.318494,-0.2311,-0.9799,0.3007,0.0294,-11.0628,-7.6967,-0.3312,-0.5695,0.3676,
1.320036,-0.2311,-0.9799,0.3007,-1.0231,-10.3353,-6.7529,-0.3312,-0.5695,0.3676,
1.328734,-0.2748,-0.9191,0.3176,-1.0231,-10.3353,-6.7529,-0.3312,-0.5695,0.3676,
1.329896,-0.2851,-0.8737,0.3049,-1.0231,-10.3353,-6.7529,-0.3312,-0.5695,0.3676,
1.330890,-0.2514,-1.1920,0.1715,-1.0231,-10.3353,-6.7529,-0.3312,-0.5695,0.3676,
1.378473,-0.2514,-1.1920,0.1715,-1.0231,-10.3353,-6.7529,-0.3464,0.1355,-0.3850,
1.380003,-0.2514,-1.1920,0.1715,-1.3735,-12.0206,-8.0592,-0.3464,0.1355,-0.3850,
1.385554,-0.2761,-1.4292,-0.1278,-1.3735,-12.0206,-8.0592,-0.3464,0.1355,-0.3850,
1.386796,-0.0391,-1.1287,-0.1217,-1.3735,-12.0206,-8.0592,-0.3464,0.1355,-0.3850,
1.387756,0.0095,-1.0523,0.0728,-1.3735,-12.0206,-8.0592,-0.3464,0.1355,-0.3850,
1.438727,0.0095,-1.0523,0.0728,-1.3735,-12.0206,-8.0592,-0.4210,-0.5976,0.3096,
1.441675,0.0095,-1.0523,0.0728,1.0677,-10.5047,-9.0428,-0.4210,-0.5976,0.3096,
1.445836,-0.0914,-1.0740,-0.0242,1.0677,-10.5047,-9.0428,-0.4210,-0.5976,0.3096,
1.447632,-0.1590,-1.0156,-0.1429,1.0677,-10.5047,-9.0428,-0.4210,-0.5976,0.3096,
1.449303,-0.2441,-0.8671,-0.2253,1.0677,-10.5047,-9.0428,-0.4210,-0.5976,0.3096,
1.497711,-0.2441,-0.8671,-0.2253,1.0677,-10.5047,-9.0428,-0.5566,-0.5059,0.1458,
1.499704,-0.2441,-0.8671,-0.2253,-1.8084,-8.3216,-11.9952,-0.5566,-0.5059,0.1458,
1.512500,-0.3320,-0.7334,-0.2514,-1.8084,-8.3216,-11.9952,-0.5566,-0.5059,0.1458,
1.514882,-0.3975,-0.7078,-0.2372,-1.8084,-8.3216,-11.9952,-0.5566,-0.5059,0.1458,
1.517590,-0.3924,-0.8517,-0.2064,-1.8084,-8.3216,-11.9952,-0.5566,-0.5059,0.1458,
1.557410,-0.3924,-0.8517,-0.2064,-1.8084,-8.3216,-11.9952,-0.3929,0.1348,-0.1859,
1.560401,-0.3924,-0.8517,-0.2064,-3.3015,-7.7513,-11.7966,-0.3929,0.1348,-0.1859,
1.565229,-0.2507,-1.0364,-0.1815,-3.3015,-7.7513,-11.7966,-0.3929,0.1348,-0.1859,
1.567120,-0.1134,-1.1055,-0.1529,-3.3015,-7.7513,-11.7966,-0.3929,0.1348,-0.1859,
1.568995,-0.0667,-1.0821,-0.1630,-3.3015,-7.7513,-11.7966,-0.3929,0.1348,-0.1859,
1.618495,-0.0667,-1.0821,-0.1630,-3.3015,-7.7513,-11.7966,-0.1180,0.1177,0.7427,
1.621846,-0.0667,-1.0821,-0.1630,-0.0540,-9.7983,-11.3520,-0.1180,0.1177,0.7427,
1.626664,-0.1366,-0.9931,-0.1564,-0.0540,-9.7983,-11.3520,-0.1180,0.1177,0.7427,
1.629657,-0.1896,-0.9431,-0.1617,-0.0540,-9.7983,-11.3520,-0.1180,0.1177,0.7427,
1.631878,-0.2118,-0.9443,-0.1461,-0.0540,-9.7983,-11.3520,-0.1180,0.1177,0.7427,
1.677524,-0.2118,-0.9443,-0.1461,-0.0540,-9.7983,-11.3520,-0.1687,0.5234,0.3908,
1.679953,-0.2118,-0.9443,-0.1461,-1.2301,-8.3088,-11.1560,-0.1687,0.5234,0.3908,
1.685061,-0.2343,-0.9196,-0.1275,-1.2301,-8.3088,-11.1560,-0.1687,0.5234,0.3908,
1.686787,-0.2480,-0.8764,-0.1322,-1.2301,-8.3088,-11.1560,-0.1687,0.5234,0.3908,
1.688166,-0.2993,-0.8473,-0.1375,-1.2301,-8.3088,-11.1560,-0.1687,0.5234,0.3908,
1.741399,-0.2993,-0.8473,-0.1375,-1.2301,-8.3088,-11.1560,0.1172,0.4940,0.1458,
1.743529,-0.2993,-0.8473,-0.1375,-1.7605,-7.2382,-11.0258,0.1172,0.4940,0.1458,
1.745530,-0.3252,-0.8666,-0.1246,-1.7605,-7.2382,-11.0258,0.1172,0.4940,0.1458,
1.747726,-0.3474,-0.9299,-0.0921,-1.7605,-7.2382,-11.0258,0.1172,0.4940,0.1458,
1.749525,-0.3608,-0.9983,-0.0616,-1.7605,-7.2382,-11.0258,0.1172,0.4940,0.1458,
1.797792,-0.3608,-0.9983,-0.0616,-1.7605,-7.2382,-11.0258,0.2437,0.5337,0.3260,
1.800919,-0.3608,-0.9983,-0.0616,-2.0184,-8.7700,-10.2387,0.2437,0.5337,0.3260,
1.805345,-0.3411,-1.0273,-0.0691,-2.0184,-8.7700,-10.2387,0.2437,0.5337,0.3260,
1.807501,-0.3130,-1.0036,-0.0618,-2.0184,-8.7700,-10.2387,0.2437,0.5337,0.3260,
1.809107,-0.2946,-0.9533,-0.0225,-2.0184,-8.7700,-10.2387,0.2437,0.5337,0.3260,
1.859158,-0.2946,-0.9533,-0.0225,-2.0184,-8.7700,-10.2387,0.2284,0.4879,0.1648,
1.861626,-0.2946,-0.9533,-0.0225,-1.0233,-8.4248,-9.8043,0.2284,0.4879,0.1648,
1.865063,-0.2766,-0.8961,0.0012,-1.0233,-8.4248,-9.8043,0.2284,0.4879,0.1648,
1.866940,-0.2917,-0.8771,0.0227,-1.0233,-8.4248,-9.8043,0.2284,0.4879,0.1648,
1.868671,-0.3205,-0.8922,0.0217,-1.0233,-8.4248,-9.8043,0.2284,0.4879,0.1648,
1.917540,-0.3205,-0.8922,0.0217,-1.0233,-8.4248,-9.8043,0.1997,0.5747,-0.0496,
1.919685,-0.3205,-0.8922,0.0217,-0.9503,-7.9003,-9.3084,0.1997,0.5747,-0.0496,
1.925311,-0.3423,-0.9323,0.0227,-0.9503,-7.9003,-9.3084,0.1997,0.5747,-0.0496,
1.927395,-0.3508,-0.9606,0.0139,-0.9503,-7.9003,-9.3084,0.1997,0.5747,-0.0496,
1.929123,-0.3643,-0.9633,-0.0066,-0.9503,-7.9003,-9.3084,0.1997,0.5747,-0.0496,
1.977825,-0.3643,-0.9633,-0.0066,-0.9503,-7.9003,-9.3084,0.0586,0.5906,-0.0667,
1.980172,-0.3643,-0.9633,-0.0066,-1.0391,-8.5786,-9.4999,0.0586,0.5906,-0.0667,
1.985407,-0.3982,-0.9577,-0.0127,-1.0391,-8.5786,-9.4999,0.0586,0.5906,-0.0667,
1.988138,-0.4178,-0.9643,-0.0164,-1.0391,-8.5786,-9.4999,0.0586,0.5906,-0.0667,
1.990534,-0.4126,-0.9709,0.0049,-1.0391,-8.5786,-9.4999,0.0586,0.5906,-0.0667,
2.037767,-0.4126,-0.9709,0.0049,-1.0391,-8.5786,-9.4999,0.1795,0.7158,-0.1058,
2.040131,-0.4126,-0.9709,0.0049,-1.1249,-8.6321,-9.2726,0.1795,0.7158,-0.1058,
2.046984,-0.3931,-0.9939,0.0621,-1.1249,-8.6321,-9.2726,0.1795,0.7158,-0.1058,
2.049511,-0.3889,-0.9968,0.1168,-1.1249,-8.6321,-9.2726,0.1795,0.7158,-0.1058,
2.051475,-0.4097,-0.9614,0.1107,-1.1249,-8.6321,-9.2726,0.1795,0.7158,-0.1058,
2.098220,-0.4097,-0.9614,0.1107,-1.1249,-8.6321,-9.2726,-0.1949,0.2295,0.1758,
2.100013,-0.4097,-0.9614,0.1107,-0.7909,-8.4131,-8.1219,-0.1949,0.2295,0.1758,
2.105353,-0.5184,-0.9496,-0.1019,-0.7909,-8.4131,-8.1219,-0.1949,0.2295,0.1758,
2.107198,-0.6474,-1.2763,-0.0838,-0.7909,-8.4131,-8.1219,-0.1949,0.2295,0.1758,
2.109226,-0.5883,-1.2015,-0.1627,-0.7909,-8.4131,-8.1219,-0.1949,0.2295,0.1758,
2.158285,-0.5883,-1.2015,-0.1627,-0.7909,-8.4131,-8.1219,-0.2579,-0.0246,0.1868,
2.160904,-0.5883,-1.2015,-0.1627,-2.4675,-10.7527,-10.7732,-0.2579,-0.0246,0.1868,
2.165853,-0.4827,-0.9624,-0.2101,-2.4675,-10.7527,-10.7732,-0.2579,-0.0246,0.1868,
2.167586,-0.3867,-0.8026,-0.2834,-2.4675,-10.7527,-10.7732,-0.2579,-0.0246,0.1868,
2.168856,-0.2981,-0.7635,-0.3919,-2.4675,-10.7527,-10.7732,-0.2579,-0.0246,0.1868,
2.217668,-0.2981,-0.7635,-0.3919,-2.4675,-10.7527,-10.7732,-0.3544,0.0579,-0.1553,
2.219873,-0.2981,-0.7635,-0.3919,0.4390,-6.1512,-12.9568,-0.3544,0.0579,-0.1553,
2.235277,-0.1930,-0.7803,-0.4270,0.4390,-6.1512,-12.9568,-0.3544,0.0579,-0.1553,
2.237151,-0.0195,-0.7723,-0.3450,0.4390,-6.1512,-12.9568,-0.3544,0.0579,-0.1553,
2.238427,0.1366,-0.8610,-0.1688,0.4390,-6.1512,-12.9568,-0.3544,0.0579,-0.1553,
2.277424,0.1366,-0.8610,-0.1688,0.4390,-6.1512,-12.9568,0.1807,-0.8884,0.4720,
2.278676,0.1366,-0.8610,-0.1688,4.5406,-6.9261,-10.7994,0.1807,-0.8884,0.4720,
2.285042,0.0963,-1.1116,-0.1048,4.5406,-6.9261,-10.7994,0.1807,-0.8884,0.4720,
2.286133,-0.1610,-1.3779,-0.1134,4.5406,-6.9261,-10.7994,0.1807,-0.8884,0.4720,
2.286910,-0.3677,-1.4180,-0.1715,4.5406,-6.9261,-10.7994,0.1807,-0.8884,0.4720,
2.338011,-0.3677,-1.4180,-0.1715,4.5406,-6.9261,-10.7994,0.8557,-0.2732,0.0567,
2.340422,-0.3677,-1.4180,-0.1715,-0.6811,-12.7756,-10.9746,0.8557,-0.2732,0.0567,
2.350789,-0.4774,-1.2162,-0.2602,-0.6811,-12.7756,-10.9746,0.8557,-0.2732,0.0567,
2.352806,-0.3836,-0.8639,-0.2262,-0.6811,-12.7756,-10.9746,0.8557,-0.2732,0.0567,
2.354516,-0.2575,-0.6985,-0.1197,-0.6811,-12.7756,-10.9746,0.8557,-0.2732,0.0567,
2.397378,-0.2575,-0.6985,-0.1197,-0.6811,-12.7756,-10.9746,0.0775,-0.2402,-0.6507,
2.399727,-0.2575,-0.6985,-0.1197,0.2660,-5.8562,-10.5225,0.0775,-0.2402,-0.6507,
2.405313,-0.2971,-0.7781,-0.0948,0.2660,-5.8562,-10.5225,0.0775,-0.2402,-0.6507,
2.407565,-0.3259,-0.8595,-0.0464,0.2660,-5.8562,-10.5225,0.0775,-0.2402,-0.6507,
2.409563,-0.2766,-0.8983,-0.0298,0.2660,-5.8562,-10.5225,0.0775,-0.2402,-0.6507,
2.458859,-0.2766,-0.8983,-0.0298,0.2660,-5.8562,-10.5225,0.0922,-0.4455,-0.2640,
2.461261,-0.2766,-0.8983,-0.0298,-0.1332,-7.6875,-9.6880,0.0922,-0.4455,-0.2640,
2.466068,-0.2240,-0.8915,-0.0274,-0.1332,-7.6875,-9.6880,0.0922,-0.4455,-0.2640,
2.467748,-0.1918,-0.8622,0.0027,-0.1332,-7.6875,-9.6880,0.0922,-0.4455,-0.2640,
2.468918,-0.1725,-0.8536,0.0489,-0.1332,-7.6875,-9.6880,0.0922,-0.4455,-0.2640,
2.517135,-0.1725,-0.8536,0.0489,-0.1332,-7.6875,-9.6880,0.2846,-0.2170,-0.1877,
2.519141,-0.1725,-0.8536,0.0489,0.6853,-7.2034,-8.9645,0.2846,-0.2170,-0.1877,
2.531000,-0.1832,-0.8776,0.0833,0.6853,-7.2034,-8.9645,0.2846,-0.2170,-0.1877,
2.533155,-0.2189,-0.9228,0.1351,0.6853,-7.2034,-8.9645,0.2846,-0.2170,-0.1877,
2.534451,-0.2221,-0.9303,0.1522,0.6853,-7.2034,-8.9645,0.2846,-0.2170,-0.1877,
2.577496,-0.2221,-0.9303,0.1522,0.6853,-7.2034,-8.9645,0.1948,-0.4809,0.0548,
2.579530,-0.2221,-0.9303,0.1522,0.0376,-8.0893,-8.0064,0.1948,-0.4809,0.0548,
2.585119,-0.2016,-0.8842,0.1275,0.0376,-8.0893,-8.0064,0.1948,-0.4809,0.0548,
2.586954,-0.1862,-0.8392,0.0694,0.0376,-8.0893,-8.0064,0.1948,-0.4809,0.0548,
2.588606,-0.1837,-0.8419,0.0193,0.0376,-8.0893,-8.0064,0.1948,-0.4809,0.0548,
2.637423,-0.1837,-0.8419,0.0193,0.0376,-8.0893,-8.0064,-0.1766,-0.2928,-0.1016,
2.640238,-0.1837,-0.8419,0.0193,0.1429,-7.1414,-9.3588,-0.1766,-0.2928,-0.1016,
2.646692,-0.2067,-0.9132,-0.0042,0.1429,-7.1414,-9.3588,-0.1766,-0.2928,-0.1016,
2.648829,-0.2345,-1.0315,0.0232,0.1429,-7.1414,-9.3588,-0.1766,-0.2928,-0.1016,
2.650646,-0.2492,-1.0979,0.0762,0.1429,-7.1414,-9.3588,-0.1766,-0.2928,-0.1016,
2.697789,-0.2492,-1.0979,0.0762,0.1429,-7.1414,-9.3588,0.0500,-0.3025,-0.2476,
2.700420,-0.2492,-1.0979,0.0762,-0.6144,-9.4909,-8.8039,0.0500,-0.3025,-0.2476,
2.705295,-0.2231,-1.0913,0.1378,-0.6144,-9.4909,-8.8039,0.0500,-0.3025,-0.2476,
2.707413,-0.1700,-1.1028,0.2130,-0.6144,-9.4909,-8.8039,0.0500,-0.3025,-0.2476,
2.709826,-0.1441,-1.1263,0.2675,-0.6144,-9.4909,-8.8039,0.0500,-0.3025,-0.2476,
2.760491,-0.1441,-1.1263,0.2675,-0.6144,-9.4909,-8.8039,-0.3165,-0.7075,-0.0967,
2.762932,-0.1441,-1.1263,0.2675,0.1580,-9.7099,-6.9669,-0.3165,-0.7075,-0.0967,
2.765215,-0.1463,-1.1234,0.2912,0.1580,-9.7099,-6.9669,-0.3165,-0.7075,-0.0967,
2.767052,-0.1888,-1.3747,0.2206,0.1580,-9.7099,-6.9669,-0.3165,-0.7075,-0.0967,
2.768227,-0.3542,-1.4278,-0.0381,0.1580,-9.7099,-6.9669,-0.3165,-0.7075,-0.0967,
2.817683,-0.3542,-1.4278,-0.0381,0.1580,-9.7099,-6.9669,-0.0251,0.0518,-0.0796,
2.819323,-0.3542,-1.4278,-0.0381,-2.0316,-12.4323,-9.9476,-0.0251,0.0518,-0.0796,
2.841487,-0.3420,-1.1209,-0.0244,-2.0316,-12.4323,-9.9476,-0.0251,0.0518,-0.0796,
2.844167,-0.1041,-0.8834,-0.0721,-2.0316,-12.4323,-9.9476,-0.0251,0.0518,-0.0796,
2.845751,-0.0418,-0.8988,-0.2555,-2.0316,-12.4323,-9.9476,-0.0251,0.0518,-0.0796,
2.878115,-0.0418,-0.8988,-0.2555,-2.0316,-12.4323,-9.9476,-0.6042,-0.7986,-0.2421,
2.880750,-0.0418,-0.8988,-0.2555,0.8021,-6.9981,-12.0660,-0.6042,-0.7986,-0.2421,
2.885130,-0.1007,-0.9118,-0.2392,0.8021,-6.9981,-12.0660,-0.6042,-0.7986,-0.2421,
2.887033,-0.2140,-0.8856,-0.2492,0.8021,-6.9981,-12.0660,-0.6042,-0.7986,-0.2421,
2.888477,-0.3535,-0.7948,-0.2951,0.8021,-6.9981,-12.0660,-0.6042,-0.7986,-0.2421,
2.937687,-0.3535,-0.7948,-0.2951,0.8021,-6.9981,-12.0660,-0.4289,-0.3264,-0.1309,
2.940006,-0.3535,-0.7948,-0.2951,-2.6475,-5.5574,-12.4066,-0.4289,-0.3264,-0.1309,
2.951679,-0.4490,-0.7244,-0.3252,-2.6475,-5.5574,-12.4066,-0.4289,-0.3264,-0.1309,
2.953790,-0.4669,-0.8253,-0.2729,-2.6475,-5.5574,-12.4066,-0.4289,-0.3264,-0.1309,
2.955520,-0.3814,-1.0589,-0.2069,-2.6475,-5.5574,-12.4066,-0.4289,-0.3264,-0.1309,
2.998125,-0.3814,-1.0589,-0.2069,-2.6475,-5.5574,-12.4066,-0.3244,-0.2726,0.5771,
3.000526,-0.3814,-1.0589,-0.2069,-3.0069,-7.8623,-11.4785,-0.3244,-0.2726,0.5771,
3.006023,-0.3112,-1.1478,-0.1910,-3.0069,-7.8623,-11.4785,-0.3244,-0.2726,0.5771,
3.008229,-0.2927,-1.0838,-0.1722,-3.0069,-7.8623,-11.4785,-0.3244,-0.2726,0.5771,
3.010008,-0.2722,-0.9514,-0.1798,-3.0069,-7.8623,-11.4785,-0.3244,-0.2726,0.5771,
3.058142,-0.2722,-0.9514,-0.1798,-3.0069,-7.8623,-11.4785,-0.2414,-0.4644,0.6504,
3.060677,-0.2722,-0.9514,-0.1798,-1.9785,-6.6242,-11.1648,-0.2414,-0.4644,0.6504,
3.068979,-0.3066,-0.8434,-0.1940,-1.9785,-6.6242,-11.1648,-0.2414,-0.4644,0.6504,
3.071229,-0.3225,-0.8050,-0.1625,-1.9785,-6.6242,-11.1648,-0.2414,-0.4644,0.6504,
3.073106,-0.3147,-0.7957,-0.1373,-1.9785,-6.6242,-11.1648,-0.2414,-0.4644,0.6504,
3.118724,-0.3147,-0.7957,-0.1373,-1.9785,-6.6242,-11.1648,-0.3696,-0.1297,0.0377,
3.121030,-0.3147,-0.7957,-0.1373,-2.5279,-4.8513,-10.6824,-0.3696,-0.1297,0.0377,
3.128771,-0.3017,-0.7764,-0.1285,-2.5279,-4.8513,-10.6824,-0.3696,-0.1297,0.0377,
3.130963,-0.3125,-0.7899,-0.1344,-2.5279,-4.8513,-10.6824,-0.3696,-0.1297,0.0377,
3.132415,-0.3440,-0.8358,-0.1353,-2.5279,-4.8513,-10.6824,-0.3696,-0.1297,0.0377,
3.179565,-0.3440,-0.8358,-0.1353,-2.5279,-4.8513,-10.6824,-0.0001,-0.1700,0.0188,
3.182250,-0.3440,-0.8358,-0.1353,-2.8481,-5.0586,-10.6046,-0.0001,-0.1700,0.0188,
3.186392,-0.3445,-0.8981,-0.0953,-2.8481,-5.0586,-10.6046,-0.0001,-0.1700,0.0188,
3.188329,-0.3264,-0.9567,-0.0420,-2.8481,-5.0586,-10.6046,-0.0001,-0.1700,0.0188,
3.189554,-0.3362,-1.0024,-0.0090,-2.8481,-5.0586,-10.6046,-0.0001,-0.1700,0.0188,
3.237596,-0.3362,-1.0024,-0.0090,-2.8481,-5.0586,-10.6046,0.2345,-0.0637,0.1385,
3.239662,-0.3362,-1.0024,-0.0090,-2.8191,-6.6995,-9.3721,0.2345,-0.0637,0.1385,
3.246707,-0.3447,-0.9963,-0.0064,-2.8191,-6.6995,-9.3721,0.2345,-0.0637,0.1385,
3.249151,-0.3367,-0.9438,-0.0520,-2.8191,-6.6995,-9.3721,0.2345,-0.0637,0.1385,
3.250381,-0.3225,-0.8883,-0.0796,-2.8191,-6.6995,-9.3721,0.2345,-0.0637,0.1385,
3.298155,-0.3225,-0.8883,-0.0796,-2.8191,-6.6995,-9.3721,0.1380,0.2882,-0.3062,
3.299941,-0.3225,-0.8883,-0.0796,-2.6422,-5.6249,-10.0763,0.1380,0.2882,-0.3062,
3.305471,-0.3090,-0.8854,-0.0611,-2.6422,-5.6249,-10.0763,0.1380,0.2882,-0.3062,
3.307771,-0.3088,-0.9362,-0.0208,-2.6422,-5.6249,-10.0763,0.1380,0.2882,-0.3062,
3.309620,-0.3230,-0.9975,0.0049,-2.6422,-5.6249,-10.0763,0.1380,0.2882,-0.3062,
3.359524,-0.3230,-0.9975,0.0049,-2.6422,-5.6249,-10.0763,-0.0227,0.3645,-0.0362,
3.362954,-0.3230,-0.9975,0.0049,-2.4766,-6.6490,-9.2214,-0.0227,0.3645,-0.0362,
3.366607,-0.3716,-0.9978,-0.0142,-2.4766,-6.6490,-9.2214,-0.0227,0.3645,-0.0362,
3.368788,-0.4063,-0.9555,0.0007,-2.4766,-6.6490,-9.2214,-0.0227,0.3645,-0.0362,
3.370518,-0.4344,-0.9328,0.0730,-2.4766,-6.6490,-9.2214,-0.0227,0.3645,-0.0362,
3.419234,-0.4344,-0.9328,0.0730,-2.4766,-6.6490,-9.2214,-0.3507,0.4006,0.0609,
3.422540,-0.4344,-0.9328,0.0730,-3.2688,-5.8720,-8.4768,-0.3507,0.4006,0.0609,
3.426277,-0.4295,-0.9123,-0.0496,-3.2688,-5.8720,-8.4768,-0.3507,0.4006,0.0609,
3.428431,-0.4600,-1.0852,-0.1244,-3.2688,-5.8720,-8.4768,-0.3507,0.4006,0.0609,
3.430191,-0.5861,-1.4124,-0.1085,-3.2688,-5.8720,-8.4768,-0.3507,0.4006,0.0609,
3.479275,-0.5861,-1.4124,-0.1085,-3.2688,-5.8720,-8.4768,-0.2786,0.2558,0.5081,
3.482511,-0.5861,-1.4124,-0.1085,-4.3991,-10.5558,-10.2046,-0.2786,0.2558,0.5081,
3.485602,-0.4463,-1.2592,-0.1793,-4.3991,-10.5558,-10.2046,-0.2786,0.2558,0.5081,
3.487791,-0.3809,-1.0171,-0.3684,-4.3991,-10.5558,-10.2046,-0.2786,0.2558,0.5081,
3.489751,-0.4002,-0.8378,-0.4935,-4.3991,-10.5558,-10.2046,-0.2786,0.2558,0.5081,
3.538540,-0.4002,-0.8378,-0.4935,-4.3991,-10.5558,-10.2046,-0.1534,0.2393,-0.2842,
3.541803,-0.4002,-0.8378,-0.4935,-2.4244,-4.7112,-13.8744,-0.1534,0.2393,-0.2842,
3.548564,-0.3181,-0.7281,-0.4776,-2.4244,-4.7112,-13.8744,-0.1534,0.2393,-0.2842,
3.553164,-0.1136,-0.7202,-0.3313,-2.4244,-4.7112,-13.8744,-0.1534,0.2393,-0.2842,
3.555466,0.0596,-0.8629,-0.1796,-2.4244,-4.7112,-13.8744,-0.1534,0.2393,-0.2842,
3.598606,0.0596,-0.8629,-0.1796,-2.4244,-4.7112,-13.8744,0.2027,-0.8322,0.2637,
3.602945,0.0596,-0.8629,-0.1796,1.9204,-4.8083,-10.7639,0.2027,-0.8322,0.2637,
3.605321,0.0022,-1.1221,-0.1424,1.9204,-4.8083,-10.7639,0.2027,-0.8322,0.2637,
3.607391,-0.2636,-1.3591,-0.1160,1.9204,-4.8083,-10.7639,0.2027,-0.8322,0.2637,
3.609611,-0.4886,-1.3422,-0.1881,1.9204,-4.8083,-10.7639,0.2027,-0.8322,0.2637,
3.659611,-0.4886,-1.3422,-0.1881,1.9204,-4.8083,-10.7639,0.8002,-0.3600,-0.2030,
3.663274,-0.4886,-1.3422,-0.1881,-3.6882,-9.7989,-10.9925,0.8002,-0.3600,-0.2030,
3.665766,-0.5451,-1.1011,-0.2362,-3.6882,-9.7989,-10.9925,0.8002,-0.3600,-0.2030,
3.667619,-0.3816,-0.8163,-0.1881,-3.6882,-9.7989,-10.9925,0.8002,-0.3600,-0.2030,
3.668957,-0.2375,-0.7342,-0.1060,-3.6882,-9.7989,-10.9925,0.8002,-0.3600,-0.2030,
3.717151,-0.2375,-0.7342,-0.1060,-1.4723,-4.0420,-10.2857,0.8002,-0.3600,-0.2030,
3.718831,-0.2375,-0.7342,-0.1060,-1.4723,-4.0420,-10.2857,0.0738,-0.2964,-0.5872,
3.725856,-0.2309,-0.7911,-0.0972,-1.4723,-4.0420,-10.2857,0.0738,-0.2964,-0.5872,
3.727104,-0.2636,-0.8148,-0.0980,-1.4723,-4.0420,-10.2857,0.0738,-0.2964,-0.5872,
3.727858,-0.2619,-0.8065,-0.0870,-1.4723,-4.0420,-10.2857,0.0738,-0.2964,-0.5872,
3.779171,-0.2619,-0.8065,-0.0870,-1.4723,-4.0420,-10.2857,0.0024,-0.6006,-0.1235,
3.784052,-0.2619,-0.8065,-0.0870,-2.0210,-4.6679,-10.0937,0.0024,-0.6006,-0.1235,
3.785904,-0.2402,-0.8114,-0.0501,-2.0210,-4.6679,-10.0937,0.0024,-0.6006,-0.1235,
3.787414,-0.2099,-0.8312,0.0024,-2.0210,-4.6679,-10.0937,0.0024,-0.6006,-0.1235,
3.788846,-0.1903,-0.8727,0.0064,-2.0210,-4.6679,-10.0937,0.0024,-0.6006,-0.1235,
3.839473,-0.1903,-0.8727,0.0064,-2.0210,-4.6679,-10.0937,0.2125,-0.4174,-0.0533,
3.844007,-0.1903,-0.8727,0.0064,-1.5909,-5.2531,-9.1687,0.2125,-0.4174,-0.0533,
3.846194,-0.1879,-0.9003,-0.0010,-1.5909,-5.2531,-9.1687,0.2125,-0.4174,-0.0533,
3.847892,-0.1891,-0.9018,0.0398,-1.5909,-5.2531,-9.1687,0.2125,-0.4174,-0.0533,
3.849763,-0.1825,-0.9052,0.0677,-1.5909,-5.2531,-9.1687,0.2125,-0.4174,-0.0533,
3.898934,-0.1825,-0.9052,0.0677,-1.5909,-5.2531,-9.1687,0.1649,-0.7986,0.1129,
3.901913,-0.1825,-0.9052,0.0677,-1.8138,-5.7110,-8.6204,0.1649,-0.7986,0.1129,
3.905395,-0.1862,-0.9027,0.0459,-1.8138,-5.7110,-8.6204,0.1649,-0.7986,0.1129,
3.908002,-0.2016,-0.8771,0.0137,-1.8138,-5.7110,-8.6204,0.1649,-0.7986,0.1129,
3.910185,-0.2172,-0.8661,-0.0249,-1.8138,-5.7110,-8.6204,0.1649,-0.7986,0.1129,
3.959010,-0.2172,-0.8661,-0.0249,-1.8138,-5.7110,-8.6204,-0.1894,-0.5689,-0.0667,
3.962086,-0.2172,-0.8661,-0.0249,-2.5273,-5.2378,-9.4881,-0.1894,-0.5689,-0.0667,
3.966916,-0.2565,-0.9330,-0.0269,-2.5273,-5.2378,-9.4881,-0.1894,-0.5689,-0.0667,
3.969882,-0.2753,-1.0603,0.0330,-2.5273,-5.2378,-9.4881,-0.1894,-0.5689,-0.0667,
3.972466,-0.2873,-1.1160,0.0955,-2.5273,-5.2378,-9.4881,-0.1894,-0.5689,-0.0667,
4.018707,-0.2873,-1.1160,0.0955,-2.5273,-5.2378,-9.4881,-0.2860,-0.9329,0.0524,
4.021985,-0.2873,-1.1160,0.0955,-3.5832,-7.4840,-8.2103,-0.2860,-0.9329,0.0524,
4.025588,-0.3134,-1.1067,0.1627,-3.5832,-7.4840,-8.2103,-0.2860,-0.9329,0.0524,
4.027908,-0.3550,-1.0723,0.2250,-3.5832,-7.4840,-8.2103,-0.2860,-0.9329,0.0524,
4.029810,-0.3982,-1.2384,0.2042,-3.5832,-7.4840,-8.2103,-0.2860,-0.9329,0.0524,
4.079288,-0.3982,-1.2384,0.2042,-3.5832,-7.4840,-8.2103,-0.6024,-0.1571,-0.6153,
4.082692,-0.3982,-1.2384,0.2042,-5.1929,-8.3964,-6.9716,-0.6024,-0.1571,-0.6153,
4.084992,-0.3169,-1.4959,-0.0271,-5.1929,-8.3964,-6.9716,-0.6024,-0.1571,-0.6153,
4.086858,-0.1852,-1.1514,-0.1612,-5.1929,-8.3964,-6.9716,-0.6024,-0.1571,-0.6153,
4.088673,0.0232,-0.9274,0.0020,-5.1929,-8.3964,-6.9716,-0.6024,-0.1571,-0.6153,
4.139299,0.0232,-0.9274,0.0020,-5.1929,-8.3964,-6.9716,-0.5083,-0.7986,-0.1223,
4.144171,0.0232,-0.9274,0.0020,-1.3409,-5.1531,-8.8252,-0.5083,-0.7986,-0.1223,
4.146349,0.0376,-0.9558,-0.0679,-1.3409,-5.1531,-8.8252,-0.5083,-0.7986,-0.1223,
4.147910,-0.0821,-1.0010,-0.1490,-1.3409,-5.1531,-8.8252,-0.5083,-0.7986,-0.1223,
4.149688,-0.1483,-1.0207,-0.2548,-1.3409,-5.1531,-8.8252,-0.5083,-0.7986,-0.1223,
4.199063,-0.1483,-1.0207,-0.2548,-1.3409,-5.1531,-8.8252,-0.6757,-1.0007,-0.0142,
4.202166,-0.1483,-1.0207,-0.2548,-3.5197,-5.6011,-11.0131,-0.6757,-1.0007,-0.0142,
4.205845,-0.2619,-0.8754,-0.3276,-3.5197,-5.6011,-11.0131,-0.6757,-1.0007,-0.0142,
4.208024,-0.3701,-0.7049,-0.3090,-3.5197,-5.6011,-11.0131,-0.6757,-1.0007,-0.0142,
4.209998,-0.4503,-0.6421,-0.2941,-3.5197,-5.6011,-11.0131,-0.6757,-1.0007,-0.0142,
4.258274,-0.4503,-0.6421,-0.2941,-3.5197,-5.6011,-11.0131,-0.4191,-0.2799,-0.4846,
4.262044,-0.4503,-0.6421,-0.2941,-6.8559,-1.6144,-11.1481,-0.4191,-0.2799,-0.4846,
4.269368,-0.4310,-0.7889,-0.2494,-6.8559,-1.6144,-11.1481,-0.4191,-0.2799,-0.4846,
4.272444,-0.3313,-1.0295,-0.2140,-6.8559,-1.6144,-11.1481,-0.4191,-0.2799,-0.4846,
4.274257,-0.2287,-1.1192,-0.1964,-6.8559,-1.6144,-11.1481,-0.4191,-0.2799,-0.4846,
4.318153,-0.2287,-1.1192,-0.1964,-6.8559,-1.6144,-11.1481,-0.2145,-0.4284,0.8154,
4.321712,-0.2287,-1.1192,-0.1964,-4.8909,-6.0338,-9.9748,-0.2145,-0.4284,0.8154,
4.325646,-0.2089,-1.0779,-0.1544,-4.8909,-6.0338,-9.9748,-0.2145,-0.4284,0.8154,
4.327647,-0.2450,-0.9729,-0.1664,-4.8909,-6.0338,-9.9748,-0.2145,-0.4284,0.8154,
4.329459,-0.2580,-0.9032,-0.1906,-4.8909,-6.0338,-9.9748,-0.2145,-0.4284,0.8154,
4.379095,-0.2580,-0.9032,-0.1906,-4.8909,-6.0338,-9.9748,-0.1797,-0.0130,0.3450,
4.382541,-0.2580,-0.9032,-0.1906,-5.0525,-3.6644,-9.7979,-0.1797,-0.0130,0.3450,
4.386054,-0.1901,-0.9042,-0.1793,-5.0525,-3.6644,-9.7979,-0.1797,-0.0130,0.3450,
4.388469,-0.1471,-0.8881,-0.1309,-5.0525,-3.6644,-9.7979,-0.1797,-0.0130,0.3450,
4.390289,-0.1925,-0.8370,-0.1087,-5.0525,-3.6644,-9.7979,-0.1797,-0.0130,0.3450,
4.438294,-0.1925,-0.8370,-0.1087,-5.0525,-3.6644,-9.7979,0.0635,0.3144,0.2931,
4.441637,-0.1925,-0.8370,-0.1087,-4.2048,-2.8515,-8.9495,0.0635,0.3144,0.2931,
4.445421,-0.2702,-0.8233,-0.1200,-4.2048,-2.8515,-8.9495,0.0635,0.3144,0.2931,
4.447687,-0.3709,-0.8678,-0.1107,-4.2048,-2.8515,-8.9495,0.0635,0.3144,0.2931,
4.449472,-0.4197,-0.9306,-0.0733,-4.2048,-2.8515,-8.9495,0.0635,0.3144,0.2931,
4.499161,-0.4197,-0.9306,-0.0733,-4.2048,-2.8515,-8.9495,0.3029,0.4391,0.1251,
4.503359,-0.4197,-0.9306,-0.0733,-6.1486,-3.8149,-8.7111,0.3029,0.4391,0.1251,
4.506745,-0.4019,-0.9746,-0.0508,-6.1486,-3.8149,-8.7111,0.3029,0.4391,0.1251,
4.508676,-0.3645,-0.9802,-0.0628,-6.1486,-3.8149,-8.7111,0.3029,0.4391,0.1251,
4.511330,-0.3538,-0.9455,-0.0980,-6.1486,-3.8149,-8.7111,0.3029,0.4391,0.1251,
4.558850,-0.3538,-0.9455,-0.0980,-6.1486,-3.8149,-8.7111,0.2528,0.5796,-0.2036,
4.561961,-0.3538,-0.9455,-0.0980,-5.2453,-4.0079,-9.0447,0.2528,0.5796,-0.2036,
4.565404,-0.3235,-0.8939,-0.1026,-5.2453,-4.0079,-9.0447,0.2528,0.5796,-0.2036,
4.569072,-0.3017,-0.8988,-0.0804,-5.2453,-4.0079,-9.0447,0.2528,0.5796,-0.2036,
4.570504,-0.2802,-0.9330,-0.0486,-5.2453,-4.0079,-9.0447,0.2528,0.5796,-0.2036,
4.621100,-0.2802,-0.9330,-0.0486,-5.2453,-4.0079,-9.0447,0.1087,0.7317,-0.1492,
4.624896,-0.2802,-0.9330,-0.0486,-4.2462,-3.9711,-8.6718,0.1087,0.7317,-0.1492,
4.627084,-0.2924,-0.9496,-0.0213,-4.2462,-3.9711,-8.6718,0.1087,0.7317,-0.1492,
4.628960,-0.3066,-0.9895,-0.0227,-4.2462,-3.9711,-8.6718,0.1087,0.7317,-0.1492,
4.630509,-0.3376,-1.0615,-0.0283,-4.2462,-3.9711,-8.6718,0.1087,0.7317,-0.1492,
4.678961,-0.3376,-1.0615,-0.0283,-4.2462,-3.9711,-8.6718,0.3744,0.9479,0.0756,
4.682156,-0.3376,-1.0615,-0.0283,-4.3768,-5.2950,-8.5806,0.3744,0.9479,0.0756,
4.687265,-0.3516,-1.0735,-0.0110,-4.3768,-5.2950,-8.5806,0.3744,0.9479,0.0756,
4.690082,-0.3374,-1.0073,0.0403,-4.3768,-5.2950,-8.5806,0.3744,0.9479,0.0756,
4.692664,-0.3459,-0.9118,0.0027,-4.3768,-5.2950,-8.5806,0.3744,0.9479,0.0756,
4.739218,-0.3459,-0.9118,0.0027,-4.3768,-5.2950,-8.5806,-0.2340,0.6596,0.3315,
4.742738,-0.3459,-0.9118,0.0027,-4.0181,-3.7602,-8.2798,-0.2340,0.6596,0.3315,
4.745380,-0.4376,-0.9054,-0.2460,-4.0181,-3.7602,-8.2798,-0.2340,0.6596,0.3315,
4.747847,-0.6724,-1.3584,-0.3088,-4.0181,-3.7602,-8.2798,-0.2340,0.6596,0.3315,
4.750033,-0.6357,-1.3063,-0.4691,-4.0181,-3.7602,-8.2798,-0.2340,0.6596,0.3315,
4.799280,-0.6357,-1.3063,-0.4691,-4.0181,-3.7602,-8.2798,-0.1864,0.1122,-0.2152,
4.802617,-0.6357,-1.3063,-0.4691,-6.4943,-7.4217,-12.7915,-0.1864,0.1122,-0.2152,
4.805586,-0.4999,-0.9010,-0.5649,-6.4943,-7.4217,-12.7915,-0.1864,0.1122,-0.2152,
4.807634,-0.2458,-0.5861,-0.4666,-6.4943,-7.4217,-12.7915,-0.1864,0.1122,-0.2152,
4.809691,0.0205,-0.5182,-0.1783,-6.4943,-7.4217,-12.7915,-0.1864,0.1122,-0.2152,
4.859270,0.0205,-0.5182,-0.1783,-6.4943,-7.4217,-12.7915,0.2895,-0.6477,-0.4504,
4.862996,0.0205,-0.5182,-0.1783,-0.2574,0.2980,-9.9364,0.2895,-0.6477,-0.4504,
4.865737,0.0244,-0.8893,-0.0762,-0.2574,0.2980,-9.9364,0.2895,-0.6477,-0.4504,
4.867756,-0.2023,-1.3085,-0.0388,-0.2574,0.2980,-9.9364,0.2895,-0.6477,-0.4504,
4.869421,-0.4393,-1.5272,-0.1412,-0.2574,0.2980,-9.9364,0.2895,-0.6477,-0.4504,
4.918197,-0.4393,-1.5272,-0.1412,-0.2574,0.2980,-9.9364,1.0079,-0.4339,0.3560,
4.921157,-0.4393,-1.5272,-0.1412,-5.0234,-9.8881,-9.7421,1.0079,-0.4339,0.3560,
4.925463,-0.5693,-1.3755,-0.2756,-5.0234,-9.8881,-9.7421,1.0079,-0.4339,0.3560,
4.927811,-0.4886,-0.9291,-0.2414,-5.0234,-9.8881,-9.7421,1.0079,-0.4339,0.3560,
4.929440,-0.3100,-0.6484,-0.1417,-5.0234,-9.8881,-9.7421,1.0079,-0.4339,0.3560,
4.978781,-0.3100,-0.6484,-0.1417,-5.0234,-9.8881,-9.7421,0.1569,-0.3160,-0.7582,
4.981985,-0.3100,-0.6484,-0.1417,-4.0112,-1.5734,-9.8954,0.1569,-0.3160,-0.7582,
4.986708,-0.2340,-0.6294,-0.0867,-4.0112,-1.5734,-9.8954,0.1569,-0.3160,-0.7582,
4.989301,-0.2487,-0.7266,-0.0454,-4.0112,-1.5734,-9.8954,0.1569,-0.3160,-0.7582,
4.991181,-0.2748,-0.8290,-0.0782,-4.0112,-1.5734,-9.8954,0.1569,-0.3160,-0.7582,
5.038672,-0.2748,-0.8290,-0.0782,-4.0112,-1.5734,-9.8954,-0.0593,-0.7106,-0.2396,
5.042210,-0.2748,-0.8290,-0.0782,-4.0320,-3.3525,-9.2286,-0.0593,-0.7106,-0.2396,
5.046397,-0.2658,-0.8170,-0.0923,-4.0320,-3.3525,-9.2286,-0.0593,-0.7106,-0.2396,
5.048572,-0.1849,-0.8145,-0.0799,-4.0320,-3.3525,-9.2286,-0.0593,-0.7106,-0.2396,
5.050302,-0.1322,-0.8593,-0.0440,-4.0320,-3.3525,-9.2286,-0.0593,-0.7106,-0.2396,
5.099118,-0.1322,-0.8593,-0.0440,-4.0320,-3.3525,-9.2286,-0.0373,-0.4400,0.1611,
5.102061,-0.1322,-0.8593,-0.0440,-2.9922,-3.5700,-8.7833,-0.0373,-0.4400,0.1611,
5.105477,-0.1429,-0.9018,-0.0176,-2.9922,-3.5700,-8.7833,-0.0373,-0.4400,0.1611,
5.107690,-0.2067,-0.9064,-0.0164,-2.9922,-3.5700,-8.7833,-0.0373,-0.4400,0.1611,
5.110060,-0.1996,-0.8666,-0.0039,-2.9922,-3.5700,-8.7833,-0.0373,-0.4400,0.1611,
5.160426,-0.1996,-0.8666,-0.0039,-2.9922,-3.5700,-8.7833,-0.1186,-1.0673,-0.1156,
5.164009,-0.1996,-0.8666,-0.0039,-3.9849,-3.6160,-8.3011,-0.1186,-1.0673,-0.1156,
5.165975,-0.1954,-0.8485,0.0264,-3.9849,-3.6160,-8.3011,-0.1186,-1.0673,-0.1156,
5.167880,-0.2497,-0.8673,0.0335,-3.9849,-3.6160,-8.3011,-0.1186,-1.0673,-0.1156,
5.169777,-0.2851,-0.8983,-0.0147,-3.9849,-3.6160,-8.3011,-0.1186,-1.0673,-0.1156,
5.218550,-0.2851,-0.8983,-0.0147,-3.9849,-3.6160,-8.3011,-0.2884,-0.9519,-0.0747,
5.221780,-0.2851,-0.8983,-0.0147,-5.3209,-3.7329,-8.1481,-0.2884,-0.9519,-0.0747,
5.226621,-0.2844,-0.9687,-0.0567,-5.3209,-3.7329,-8.1481,-0.2884,-0.9519,-0.0747,
5.229461,-0.2939,-1.1197,0.0010,-5.3209,-3.7329,-8.1481,-0.2884,-0.9519,-0.0747,
5.231273,-0.3178,-1.2047,0.0767,-5.3209,-3.7329,-8.1481,-0.2884,-0.9519,-0.0747,
5.279336,-0.3178,-1.2047,0.0767,-5.3209,-3.7329,-8.1481,0.0286,-1.2811,0.0157,
5.284410,-0.3178,-1.2047,0.0767,-6.1164,-6.6484,-7.0302,0.0286,-1.2811,0.0157,
5.286761,-0.3210,-1.1620,0.1363,-6.1164,-6.6484,-7.0302,0.0286,-1.2811,0.0157,
5.288837,-0.3252,-1.0725,0.1888,-6.1164,-6.6484,-7.0302,0.0286,-1.2811,0.0157,
5.290617,-0.3200,-0.9709,0.2040,-6.1164,-6.6484,-7.0302,0.0286,-1.2811,0.0157,
5.338150,-0.3200,-0.9709,0.2040,-6.1164,-6.6484,-7.0302,-0.7734,-1.1718,-0.1150,
5.340248,-0.3200,-0.9709,0.2040,-6.7371,-4.2218,-5.4298,-0.7734,-1.1718,-0.1150,
5.345472,-0.3838,-0.9743,0.2118,-6.7371,-4.2218,-5.4298,-0.7734,-1.1718,-0.1150,
5.347511,-0.4591,-1.3655,0.0501,-6.7371,-4.2218,-5.4298,-0.7734,-1.1718,-0.1150,
5.349505,-0.4891,-1.2155,-0.1710,-6.7371,-4.2218,-5.4298,-0.7734,-1.1718,-0.1150,
5.398722,-0.4891,-1.2155,-0.1710,-6.7371,-4.2218,-5.4298,-0.6580,-1.0032,-0.5573,
5.402180,-0.4891,-1.2155,-0.1710,-8.7698,-6.3131,-8.6770,-0.6580,-1.0032,-0.5573,
5.407102,-0.1884,-0.9567,-0.2895,-8.7698,-6.3131,-8.6770,-0.6580,-1.0032,-0.5573,
5.410154,-0.0010,-0.8869,-0.4222,-8.7698,-6.3131,-8.6770,-0.6580,-1.0032,-0.5573,
5.412608,-0.0032,-0.8365,-0.3613,-8.7698,-6.3131,-8.6770,-0.6580,-1.0032,-0.5573,
5.459005,-0.0032,-0.8365,-0.3613,-8.7698,-6.3131,-8.6770,-0.7099,-1.6782,-0.2983,
5.462472,-0.0032,-0.8365,-0.3613,-4.7471,-2.3947,-9.8854,-0.7099,-1.6782,-0.2983,
5.465367,-0.1603,-0.7982,-0.3760,-4.7471,-2.3947,-9.8854,-0.7099,-1.6782,-0.2983,
5.467331,-0.4200,-0.7845,-0.3225,-4.7471,-2.3947,-9.8854,-0.7099,-1.6782,-0.2983,
5.469186,-0.5561,-0.7916,-0.2753,-4.7471,-2.3947,-9.8854,-0.7099,-1.6782,-0.2983,
5.518947,-0.5561,-0.7916,-0.2753,-4.7471,-2.3947,-9.8854,-0.8357,-0.3673,-0.2524,
5.522397,-0.5561,-0.7916,-0.2753,-10.5766,-1.7170,-8.4771,-0.8357,-0.3673,-0.2524,
5.525545,-0.4209,-0.9646,-0.3127,-10.5766,-1.7170,-8.4771,-0.8357,-0.3673,-0.2524,
5.527603,-0.2726,-1.1045,-0.3630,-10.5766,-1.7170,-8.4771,-0.8357,-0.3673,-0.2524,
5.529832,-0.2108,-1.1055,-0.2959,-10.5766,-1.7170,-8.4771,-0.8357,-0.3673,-0.2524,
5.578861,-0.2108,-1.1055,-0.2959,-10.5766,-1.7170,-8.4771,-0.4100,-1.0881,0.8679,
5.582863,-0.2108,-1.1055,-0.2959,-7.3746,-4.4609,-8.1313,-0.4100,-1.0881,0.8679,
5.587295,-0.2621,-1.0325,-0.2182,-7.3746,-4.4609,-8.1313,-0.4100,-1.0881,0.8679,
5.589997,-0.3447,-0.9296,-0.2592,-7.3746,-4.4609,-8.1313,-0.4100,-1.0881,0.8679,
5.592043,-0.3965,-0.8702,-0.2592,-7.3746,-4.4609,-8.1313,-0.4100,-1.0881,0.8679,
5.638663,-0.3965,-0.8702,-0.2592,-7.3746,-4.4609,-8.1313,-0.5346,-0.8712,-0.0808,
5.641879,-0.3965,-0.8702,-0.2592,-9.2555,-1.7906,-7.2241,-0.5346,-0.8712,-0.0808,
5.645122,-0.3696,-0.8422,-0.2182,-9.2555,-1.7906,-7.2241,-0.5346,-0.8712,-0.0808,
5.647196,-0.2919,-0.7950,-0.1984,-9.2555,-1.7906,-7.2241,-0.5346,-0.8712,-0.0808,
5.649197,-0.2118,-0.7733,-0.1901,-9.2555,-1.7906,-7.2241,-0.5346,-0.8712,-0.0808,
5.699061,-0.2118,-0.7733,-0.1901,-9.2555,-1.7906,-7.2241,-0.3183,-0.6104,-0.0570,
5.703513,-0.2118,-0.7733,-0.1901,-7.6633,-0.7172,-6.0911,-0.3183,-0.6104,-0.0570,
5.706151,-0.1957,-0.8392,-0.1620,-7.6633,-0.7172,-6.0911,-0.3183,-0.6104,-0.0570,
5.707794,-0.2296,-0.9433,-0.1451,-7.6633,-0.7172,-6.0911,-0.3183,-0.6104,-0.0570,
5.710799,-0.2963,-0.9953,-0.1461,-7.6633,-0.7172,-6.0911,-0.3183,-0.6104,-0.0570,
5.759983,-0.2963,-0.9953,-0.1461,-7.6633,-0.7172,-6.0911,0.0842,-0.5646,0.1245,
5.762995,-0.2963,-0.9953,-0.1461,-8.5902,-2.7915,-5.3507,0.0842,-0.5646,0.1245,
5.765533,-0.3411,-0.9792,-0.1261,-8.5902,-2.7915,-5.3507,0.0842,-0.5646,0.1245,
5.767167,-0.3709,-0.9423,-0.0777,-8.5902,-2.7915,-5.3507,0.0842,-0.5646,0.1245,
5.768720,-0.3801,-0.9118,-0.0269,-8.5902,-2.7915,-5.3507,0.0842,-0.5646,0.1245,
5.818617,-0.3801,-0.9118,-0.0269,-8.5902,-2.7915,-5.3507,0.2748,-0.2573,-0.1156,
5.822211,-0.3801,-0.9118,-0.0269,-9.4447,-1.9556,-4.1028,0.2748,-0.2573,-0.1156,
5.825586,-0.3486,-0.8834,-0.0149,-9.4447,-1.9556,-4.1028,0.2748,-0.2573,-0.1156,
5.827956,-0.3164,-0.8761,-0.0029,-9.4447,-1.9556,-4.1028,0.2748,-0.2573,-0.1156,
5.830332,-0.2939,-0.9084,-0.0440,-9.4447,-1.9556,-4.1028,0.2748,-0.2573,-0.1156,
5.879747,-0.2939,-0.9084,-0.0440,-9.4447,-1.9556,-4.1028,0.0341,-0.0313,-0.2311,
5.883613,-0.2939,-0.9084,-0.0440,-8.6908,-2.0215,-4.3127,0.0341,-0.0313,-0.2311,
5.886037,-0.2714,-0.9247,-0.0723,-8.6908,-2.0215,-4.3127,0.0341,-0.0313,-0.2311,
5.888023,-0.3010,-0.9369,-0.0687,-8.6908,-2.0215,-4.3127,0.0341,-0.0313,-0.2311,
5.889838,-0.4114,-0.9411,-0.0657,-8.6908,-2.0215,-4.3127,0.0341,-0.0313,-0.2311,
5.938520,-0.4114,-0.9411,-0.0657,-8.6908,-2.0215,-4.3127,-0.2591,0.0823,0.0848,
5.942252,-0.4114,-0.9411,-0.0657,-9.8156,-2.2957,-4.4825,-0.2591,0.0823,0.0848,
5.946416,-0.4913,-0.9628,-0.0107,-9.8156,-2.2957,-4.4825,-0.2591,0.0823,0.0848,
5.948808,-0.4972,-0.9777,0.0051,-9.8156,-2.2957,-4.4825,-0.2591,0.0823,0.0848,
5.950544,-0.5248,-1.0173,-0.1805,-9.8156,-2.2957,-4.4825,-0.2591,0.0823,0.0848,
5.997785,-0.5248,-1.0173,-0.1805,-9.8156,-2.2957,-4.4825,-0.0184,0.1428,0.3865,
6.001163,-0.5248,-1.0173,-0.1805,-10.8361,-2.8911,-5.4642,-0.0184,0.1428,0.3865,
6.006597,-0.6321,-1.3576,-0.1717,-10.8361,-2.8911,-5.4642,-0.0184,0.1428,0.3865,
6.010764,-0.5690,-1.3066,-0.2194,-10.8361,-2.8911,-5.4642,-0.0184,0.1428,0.3865,
6.013331,-0.4390,-0.9961,-0.3980,-10.8361,-2.8911,-5.4642,-0.0184,0.1428,0.3865,
6.057963,-0.4390,-0.9961,-0.3980,-10.8361,-2.8911,-5.4642,-0.3996,-0.4711,-0.2970,
6.061869,-0.4390,-0.9961,-0.3980,-9.8803,-2.4906,-7.3917,-0.3996,-0.4711,-0.2970,
6.066239,-0.3457,-0.7444,-0.5744,-9.8803,-2.4906,-7.3917,-0.3996,-0.4711,-0.2970,
6.068606,-0.1571,-0.5399,-0.4652,-9.8803,-2.4906,-7.3917,-0.3996,-0.4711,-0.2970,
6.070629,-0.0061,-0.6496,-0.2111,-9.8803,-2.4906,-7.3917,-0.3996,-0.4711,-0.2970,
6.118146,-0.0061,-0.6496,-0.2111,-9.8803,-2.4906,-7.3917,-0.3574,-1.4271,-0.1266,
6.120509,-0.0061,-0.6496,-0.2111,-5.9737,0.8522,-5.0831,-0.3574,-1.4271,-0.1266,
6.133585,-0.0821,-1.0452,-0.1952,-5.9737,0.8522,-5.0831,-0.3574,-1.4271,-0.1266,
6.136175,-0.3420,-1.3721,-0.2033,-5.9737,0.8522,-5.0831,-0.3574,-1.4271,-0.1266,
6.138083,-0.5133,-1.4197,-0.2507,-5.9737,0.8522,-5.0831,-0.3574,-1.4271,-0.1266,
6.179125,-0.5133,-1.4197,-0.2507,-5.9737,0.8522,-5.0831,0.7256,-0.9641,-0.1431,
6.182440,-0.5133,-1.4197,-0.2507,-11.0723,-6.6416,-5.0629,0.7256,-0.9641,-0.1431,
6.186712,-0.5580,-1.2059,-0.2880,-11.0723,-6.6416,-5.0629,0.7256,-0.9641,-0.1431,
6.188587,-0.4148,-0.9045,-0.2375,-11.0723,-6.6416,-5.0629,0.7256,-0.9641,-0.1431,
6.190316,-0.2355,-0.7596,-0.1871,-11.0723,-6.6416,-5.0629,0.7256,-0.9641,-0.1431,
6.238309,-0.2355,-0.7596,-0.1871,-11.0723,-6.6416,-5.0629,0.0463,-0.8126,-0.8053,
6.243240,-0.2355,-0.7596,-0.1871,-8.7182,-0.4475,-4.3099,0.0463,-0.8126,-0.8053,
6.247997,-0.2020,-0.7403,-0.1305,-8.7182,-0.4475,-4.3099,0.0463,-0.8126,-0.8053,
6.251239,-0.2296,-0.7386,-0.1165,-8.7182,-0.4475,-4.3099,0.0463,-0.8126,-0.8053,
6.253556,-0.2304,-0.7417,-0.1388,-8.7182,-0.4475,-4.3099,0.0463,-0.8126,-0.8053,
6.297486,-0.2304,-0.7417,-0.1388,-8.7182,-0.4475,-4.3099,-0.2524,-0.9592,-0.2921,
6.299662,-0.2304,-0.7417,-0.1388,-8.9900,-0.4317,-3.3841,-0.2524,-0.9592,-0.2921,
6.306510,-0.2106,-0.7361,-0.1173,-8.9900,-0.4317,-3.3841,-0.2524,-0.9592,-0.2921,
6.308844,-0.1908,-0.7872,-0.0838,-8.9900,-0.4317,-3.3841,-0.2524,-0.9592,-0.2921,
6.311137,-0.1906,-0.8869,-0.0347,-8.9900,-0.4317,-3.3841,-0.2524,-0.9592,-0.2921,
6.357954,-0.1906,-0.8869,-0.0347,-8.9900,-0.4317,-3.3841,0.0182,-0.4204,-0.1205,
6.360529,-0.1906,-0.8869,-0.0347,-8.7548,-1.9069,-1.9854,0.0182,-0.4204,-0.1205,
6.366308,-0.1893,-0.9670,-0.0178,-8.7548,-1.9069,-1.9854,0.0182,-0.4204,-0.1205,
6.368228,-0.1910,-0.9970,0.0098,-8.7548,-1.9069,-1.9854,0.0182,-0.4204,-0.1205,
6.370084,-0.1859,-0.9841,0.0462,-8.7548,-1.9069,-1.9854,0.0182,-0.4204,-0.1205,
6.418144,-0.1859,-0.9841,0.0462,-8.7548,-1.9069,-1.9854,0.3567,-0.7576,0.0866,
6.421586,-0.1859,-0.9841,0.0462,-8.6990,-2.8238,-1.0836,0.3567,-0.7576,0.0866,
6.426045,-0.1644,-0.9316,0.0586,-8.6990,-2.8238,-1.0836,0.3567,-0.7576,0.0866,
6.428998,-0.1783,-0.8617,0.0327,-8.6990,-2.8238,-1.0836,0.3567,-0.7576,0.0866,
6.430937,-0.2103,-0.8233,-0.0122,-8.6990,-2.8238,-1.0836,0.3567,-0.7576,0.0866,
6.477637,-0.2103,-0.8233,-0.0122,-8.6990,-2.8238,-1.0836,-0.3642,-0.3972,-0.0564,
6.480983,-0.2103,-0.8233,-0.0122,-8.9483,-1.1930,-1.3297,-0.3642,-0.3972,-0.0564,
6.485219,-0.2277,-0.8673,-0.0809,-8.9483,-1.1930,-1.3297,-0.3642,-0.3972,-0.0564,
6.487406,-0.2304,-1.0298,-0.0992,-8.9483,-1.1930,-1.3297,-0.3642,-0.3972,-0.0564,
6.489376,-0.2279,-1.1898,-0.0403,-8.9483,-1.1930,-1.3297,-0.3642,-0.3972,-0.0564,
6.537945,-0.2279,-1.1898,-0.0403,-8.9483,-1.1930,-1.3297,0.1514,-0.3887,0.1458,
6.540750,-0.2279,-1.1898,-0.0403,-9.1151,-4.7532,-1.4499,0.1514,-0.3887,0.1458,
6.545893,-0.2206,-1.2599,0.0535,-9.1151,-4.7532,-1.4499,0.1514,-0.3887,0.1458,
6.548556,-0.2174,-1.2142,0.1236,-9.1151,-4.7532,-1.4499,0.1514,-0.3887,0.1458,
6.550231,-0.2272,-1.1072,0.1739,-9.1151,-4.7532,-1.4499,0.1514,-0.3887,0.1458,
6.599235,-0.2272,-1.1072,0.1739,-9.1151,-4.7532,-1.4499,-0.0990,-1.2830,0.0304,
6.602365,-0.2272,-1.1072,0.1739,-9.0303,-3.8324,0.9170,-0.0990,-1.2830,0.0304,
6.605831,-0.2763,-0.9709,0.2546,-9.0303,-3.8324,0.9170,-0.0990,-1.2830,0.0304,
6.607989,-0.2707,-0.9167,0.2624,-9.0303,-3.8324,0.9170,-0.0990,-1.2830,0.0304,
6.609971,-0.3447,-1.3080,-0.0603,-9.0303,-3.8324,0.9170,-0.0990,-1.2830,0.0304,
6.658655,-0.3447,-1.3080,-0.0603,-9.0303,-3.8324,0.9170,-0.0483,0.1538,-0.3905,
6.662225,-0.3447,-1.3080,-0.0603,-10.3389,-5.9210,-0.9641,-0.0483,0.1538,-0.3905,
6.665150,-0.3772,-1.3061,-0.2844,-10.3389,-5.9210,-0.9641,-0.0483,0.1538,-0.3905,
6.667104,-0.1253,-1.0195,-0.1986,-10.3389,-5.9210,-0.9641,-0.0483,0.1538,-0.3905,
6.668798,0.0435,-0.9323,-0.3638,-10.3389,-5.9210,-0.9641,-0.0483,0.1538,-0.3905,
6.718475,0.0435,-0.9323,-0.3638,-10.3389,-5.9210,-0.9641,-0.4772,-1.2433,0.1849,
6.722687,0.0435,-0.9323,-0.3638,-6.5289,-2.2238,-3.6671,-0.4772,-1.2433,0.1849,
6.726815,-0.0655,-0.8688,-0.3943,-6.5289,-2.2238,-3.6671,-0.4772,-1.2433,0.1849,
6.728522,-0.2829,-0.7400,-0.3679,-6.5289,-2.2238,-3.6671,-0.4772,-1.2433,0.1849,
6.729965,-0.4798,-0.7222,-0.3591,-6.5289,-2.2238,-3.6671,-0.4772,-1.2433,0.1849,
6.779133,-0.4798,-0.7222,-0.3591,-6.5289,-2.2238,-3.6671,-0.2169,0.2289,-0.0838,
6.782767,-0.4798,-0.7222,-0.3591,-11.5920,-0.1109,-3.1114,-0.2169,0.2289,-0.0838,
6.785307,-0.5209,-0.8514,-0.2463,-11.5920,-0.1109,-3.1114,-0.2169,0.2289,-0.0838,
6.787312,-0.3003,-1.0078,-0.2441,-11.5920,-0.1109,-3.1114,-0.2169,0.2289,-0.0838,
6.789101,-0.0493,-1.0938,-0.2927,-11.5920,-0.1109,-3.1114,-0.2169,0.2289,-0.0838,
6.838431,-0.0493,-1.0938,-0.2927,-11.5920,-0.1109,-3.1114,0.0671,-0.0234,0.9064,
6.841062,-0.0493,-1.0938,-0.2927,-7.2741,-3.6596,-2.3973,0.0671,-0.0234,0.9064,
6.846987,-0.0125,-1.0816,-0.3025,-7.2741,-3.6596,-2.3973,0.0671,-0.0234,0.9064,
6.850001,-0.1160,-1.0034,-0.2328,-7.2741,-3.6596,-2.3973,0.0671,-0.0234,0.9064,
6.851942,-0.2172,-0.9355,-0.2040,-7.2741,-3.6596,-2.3973,0.0671,-0.0234,0.9064,
6.897921,-0.2172,-0.9355,-0.2040,-7.2741,-3.6596,-2.3973,-0.0074,0.4452,0.8105,
6.901074,-0.2172,-0.9355,-0.2040,-8.4092,-1.6413,-1.7242,-0.0074,0.4452,0.8105,
6.906239,-0.3127,-0.8893,-0.2612,-8.4092,-1.6413,-1.7242,-0.0074,0.4452,0.8105,
6.909198,-0.3726,-0.7933,-0.2448,-8.4092,-1.6413,-1.7242,-0.0074,0.4452,0.8105,
6.912491,-0.3621,-0.7112,-0.1832,-8.4092,-1.6413,-1.7242,-0.0074,0.4452,0.8105,
6.958711,-0.3621,-0.7112,-0.1832,-8.4092,-1.6413,-1.7242,-0.0734,0.7158,0.1129,
6.962070,-0.3621,-0.7112,-0.1832,-9.5939,0.7497,-1.6267,-0.0734,0.7158,0.1129,
6.965633,-0.3125,-0.6965,-0.1803,-9.5939,0.7497,-1.6267,-0.0734,0.7158,0.1129,
6.967455,-0.3117,-0.7948,-0.1854,-9.5939,0.7497,-1.6267,-0.0734,0.7158,0.1129,
6.969005,-0.3577,-0.9677,-0.1512,-9.5939,0.7497,-1.6267,-0.0734,0.7158,0.1129,
7.018689,-0.3577,-0.9677,-0.1512,-9.5939,0.7497,-1.6267,0.4037,0.6443,0.1165,
7.021688,-0.3577,-0.9677,-0.1512,-9.4768,-1.7063,-1.6229,0.4037,0.6443,0.1165,
7.034543,-0.3840,-1.0488,-0.0870,-9.4768,-1.7063,-1.6229,0.4037,0.6443,0.1165,
7.037223,-0.3577,-1.0418,-0.0474,-9.4768,-1.7063,-1.6229,0.4037,0.6443,0.1165,
7.039336,-0.3125,-1.0044,-0.0738,-9.4768,-1.7063,-1.6229,0.4037,0.6443,0.1165,
7.078729,-0.3125,-1.0044,-0.0738,-9.4768,-1.7063,-1.6229,0.5900,0.6852,0.1025,
7.081517,-0.3125,-1.0044,-0.0738,-8.8783,-1.9695,-1.3164,0.5900,0.6852,0.1025,
7.086064,-0.3086,-0.9438,-0.0728,-8.8783,-1.9695,-1.3164,0.5900,0.6852,0.1025,
7.088041,-0.2751,-0.8878,-0.0665,-8.8783,-1.9695,-1.3164,0.5900,0.6852,0.1025,
7.089794,-0.2617,-0.9081,-0.0283,-8.8783,-1.9695,-1.3164,0.5900,0.6852,0.1025,
7.139376,-0.2617,-0.9081,-0.0283,-8.8783,-1.9695,-1.3164,0.5277,0.9607,-0.0081,
7.143551,-0.2617,-0.9081,-0.0283,-8.3228,-1.0505,-1.4616,0.5277,0.9607,-0.0081,
7.145246,-0.2541,-0.9465,-0.0037,-8.3228,-1.0505,-1.4616,0.5277,0.9607,-0.0081,
7.146825,-0.3017,-0.9580,-0.0300,-8.3228,-1.0505,-1.4616,0.5277,0.9607,-0.0081,
7.148168,-0.3826,-0.9575,-0.0344,-8.3228,-1.0505,-1.4616,0.5277,0.9607,-0.0081,
7.199165,-0.3826,-0.9575,-0.0344,-8.3228,-1.0505,-1.4616,0.3493,0.9937,0.2405,
7.203744,-0.3826,-0.9575,-0.0344,-9.3048,-1.4812,-2.0303,0.3493,0.9937,0.2405,
7.206078,-0.4564,-0.9333,-0.0244,-9.3048,-1.4812,-2.0303,0.3493,0.9937,0.2405,
7.207933,-0.4915,-0.8927,0.0054,-9.3048,-1.4812,-2.0303,0.3493,0.9937,0.2405,
7.209669,-0.4642,-0.8898,0.0706,-9.3048,-1.4812,-2.0303,0.3493,0.9937,0.2405,
7.259194,-0.4642,-0.8898,0.0706,-9.3048,-1.4812,-2.0303,-0.1161,0.9852,-0.0521,
7.262274,-0.4642,-0.8898,0.0706,-9.8802,-0.7803,-1.4782,-0.1161,0.9852,-0.0521,
7.265723,-0.3926,-0.8927,0.0530,-9.8802,-0.7803,-1.4782,-0.1161,0.9852,-0.0521,
7.268227,-0.3892,-0.9580,-0.1913,-9.8802,-0.7803,-1.4782,-0.1161,0.9852,-0.0521,
7.270208,-0.5275,-1.3410,-0.0525,-9.8802,-0.7803,-1.4782,-0.1161,0.9852,-0.0521,
7.318293,-0.5275,-1.3410,-0.0525,-9.8802,-0.7803,-1.4782,-0.0465,1.0078,0.6290,
7.321986,-0.5275,-1.3410,-0.0525,-10.1630,-5.0952,-3.0607,-0.0465,1.0078,0.6290,
7.327174,-0.4627,-1.2367,-0.1564,-10.1630,-5.0952,-3.0607,-0.0465,1.0078,0.6290,
7.329914,-0.4302,-0.9782,-0.3259,-10.1630,-5.0952,-3.0607,-0.0465,1.0078,0.6290,
7.331998,-0.3545,-0.9350,-0.3743,-10.1630,-5.0952,-3.0607,-0.0465,1.0078,0.6290,
7.377700,-0.3545,-0.9350,-0.3743,-10.1630,-5.0952,-3.0607,-0.1137,1.2466,-0.0008,
7.380879,-0.3545,-0.9350,-0.3743,-8.0597,-0.9304,-6.3822,-0.1137,1.2466,-0.0008,
7.385313,-0.2250,-0.8947,-0.5172,-8.0597,-0.9304,-6.3822,-0.1137,1.2466,-0.0008,
7.391730,-0.0435,-0.7901,-0.4583,-8.0597,-0.9304,-6.3822,-0.1137,1.2466,-0.0008,
7.394136,0.1014,-0.7808,-0.2619,-8.0597,-0.9304,-6.3822,-0.1137,1.2466,-0.0008,
7.437758,0.1014,-0.7808,-0.2619,-8.0597,-0.9304,-6.3822,0.4288,0.2405,0.1654,
7.440059,0.1014,-0.7808,-0.2619,-3.4568,0.5433,-5.5994,0.4288,0.2405,0.1654,
7.452445,0.1217,-0.9753,-0.1590,-3.4568,0.5433,-5.5994,0.4288,0.2405,0.1654,
7.454648,-0.1314,-1.3281,-0.1204,-3.4568,0.5433,-5.5994,0.4288,0.2405,0.1654,
7.456354,-0.4060,-1.4881,-0.1510,-3.4568,0.5433,-5.5994,0.4288,0.2405,0.1654,
7.498426,-0.4060,-1.4881,-0.1510,-3.4568,0.5433,-5.5994,1.2632,0.8037,0.3120,
7.501712,-0.4060,-1.4881,-0.1510,-8.1137,-6.4360,-5.0426,1.2632,0.8037,0.3120,
7.504867,-0.5260,-1.3022,-0.2279,-8.1137,-6.4360,-5.0426,1.2632,0.8037,0.3120,
7.506564,-0.5192,-0.9426,-0.2538,-8.1137,-6.4360,-5.0426,1.2632,0.8037,0.3120,
7.509158,-0.3181,-0.7178,-0.1864,-8.1137,-6.4360,-5.0426,1.2632,0.8037,0.3120,
7.558450,-0.3181,-0.7178,-0.1864,-8.1137,-6.4360,-5.0426,0.3243,1.1422,-0.4467,
7.562076,-0.3181,-0.7178,-0.1864,-7.0768,0.8675,-6.0754,0.3243,1.1422,-0.4467,
7.565355,-0.2116,-0.7066,-0.1407,-7.0768,0.8675,-6.0754,0.3243,1.1422,-0.4467,
7.567186,-0.1891,-0.7124,-0.1244,-7.0768,0.8675,-6.0754,0.3243,1.1422,-0.4467,
7.568707,-0.1835,-0.7435,-0.1124,-7.0768,0.8675,-6.0754,0.3243,1.1422,-0.4467,
7.618048,-0.1835,-0.7435,-0.1124,-7.0768,0.8675,-6.0754,0.0598,0.9082,0.0017,
7.620839,-0.1835,-0.7435,-0.1124,-5.5759,0.5601,-5.6113,0.0598,0.9082,0.0017,
7.625637,-0.2106,-0.7542,-0.0911,-5.5759,0.5601,-5.6113,0.0598,0.9082,0.0017,
7.628449,-0.2279,-0.8031,-0.0459,-5.5759,0.5601,-5.6113,0.0598,0.9082,0.0017,
7.630287,-0.2133,-0.8983,0.0156,-5.5759,0.5601,-5.6113,0.0598,0.9082,0.0017,
7.678583,-0.2133,-0.8983,0.0156,-5.5759,0.5601,-5.6113,0.3341,0.7714,0.1184,
7.681890,-0.2133,-0.8983,0.0156,-5.6095,-0.9894,-4.6133,0.3341,0.7714,0.1184,
7.685404,-0.2091,-0.9785,-0.0159,-5.6095,-0.9894,-4.6133,0.3341,0.7714,0.1184,
7.687797,-0.2340,-0.9951,-0.0393,-5.6095,-0.9894,-4.6133,0.3341,0.7714,0.1184,
7.690009,-0.2272,-0.9604,0.0015,-5.6095,-0.9894,-4.6133,0.3341,0.7714,0.1184,
7.738240,-0.2272,-0.9604,0.0015,-5.6095,-0.9894,-4.6133,0.4587,0.4232,0.3053,
7.741191,-0.2272,-0.9604,0.0015,-5.4013,-1.6660,-5.0938,0.4587,0.4232,0.3053,
7.747722,-0.2443,-0.9145,0.0381,-5.4013,-1.6660,-5.0938,0.4587,0.4232,0.3053,
7.750249,-0.2621,-0.8888,0.0288,-5.4013,-1.6660,-5.0938,0.4587,0.4232,0.3053,
7.751890,-0.2919,-0.8893,0.0188,-5.4013,-1.6660,-5.0938,0.4587,0.4232,0.3053,
7.798388,-0.2919,-0.8893,0.0188,-5.4013,-1.6660,-5.0938,0.1233,0.2808,0.1458,
7.801435,-0.2919,-0.8893,0.0188,-5.7837,-0.9713,-5.0750,0.1233,0.2808,0.1458,
7.805249,-0.3481,-0.9240,0.0132,-5.7837,-0.9713,-5.0750,0.1233,0.2808,0.1458,
7.807682,-0.3784,-0.9892,0.0005,-5.7837,-0.9713,-5.0750,0.1233,0.2808,0.1458,
7.809504,-0.3430,-1.0474,0.0022,-5.7837,-0.9713,-5.0750,0.1233,0.2808,0.1458,
7.858396,-0.3430,-1.0474,0.0022,-5.7837,-0.9713,-5.0750,0.0958,0.1116,-0.0765,
7.861247,-0.3430,-1.0474,0.0022,-6.1681,-2.5312,-5.3164,0.0958,0.1116,-0.0765,
7.865724,-0.3134,-1.0745,0.0252,-6.1681,-2.5312,-5.3164,0.0958,0.1116,-0.0765,
7.868083,-0.2937,-1.0532,0.0923,-6.1681,-2.5312,-5.3164,0.0958,0.1116,-0.0765,
7.870198,-0.2817,-0.9988,0.1686,-6.1681,-2.5312,-5.3164,0.0958,0.1116,-0.0765,
7.918368,-0.2817,-0.9988,0.1686,-6.1681,-2.5312,-5.3164,-0.3782,0.4213,-0.9898,
7.922009,-0.2817,-0.9988,0.1686,-5.6526,-2.0493,-3.6320,-0.3782,0.4213,-0.9898,
7.929343,-0.2323,-1.0413,0.1857,-5.6526,-2.0493,-3.6320,-0.3782,0.4213,-0.9898,
7.931356,-0.2040,-1.3745,0.0327,-5.6526,-2.0493,-3.6320,-0.3782,0.4213,-0.9898,
7.932832,-0.2013,-1.4480,-0.1510,-5.6526,-2.0493,-3.6320,-0.3782,0.4213,-0.9898,
7.977278,-0.2013,-1.4480,-0.1510,-5.6526,-2.0493,-3.6320,0.5039,0.0622,0.2271,
7.979687,-0.2013,-1.4480,-0.1510,-4.9615,-6.5470,-6.8472,0.5039,0.0622,0.2271,
7.985310,-0.0584,-1.1041,-0.0799,-4.9615,-6.5470,-6.8472,0.5039,0.0622,0.2271,
7.987352,0.1239,-0.9841,-0.0603,-4.9615,-6.5470,-6.8472,0.5039,0.0622,0.2271,
7.988942,-0.0628,-0.9773,-0.0577,-4.9615,-6.5470,-6.8472,0.5039,0.0622,0.2271,
8.037662,-0.0628,-0.9773,-0.0577,-4.9615,-6.5470,-6.8472,-0.0434,0.4116,0.0884,
8.039902,-0.0628,-0.9773,-0.0577,-3.4726,-1.9389,-6.0115,-0.0434,0.4116,0.0884,
8.046269,-0.1769,-0.9780,-0.1757,-3.4726,-1.9389,-6.0115,-0.0434,0.4116,0.0884,
8.049001,-0.2152,-0.8864,-0.2739,-3.4726,-1.9389,-6.0115,-0.0434,0.4116,0.0884,
8.051360,-0.2279,-0.7410,-0.3293,-3.4726,-1.9389,-6.0115,-0.0434,0.4116,0.0884,
8.097945,-0.2279,-0.7410,-0.3293,-3.4726,-1.9389,-6.0115,0.1429,0.7756,-0.1510,
8.102156,-0.2279,-0.7410,-0.3293,-4.8759,0.4104,-8.7342,0.1429,0.7756,-0.1510,
8.105513,-0.2812,-0.6936,-0.3391,-4.8759,0.4104,-8.7342,0.1429,0.7756,-0.1510,
8.107311,-0.2853,-0.7879,-0.3359,-4.8759,0.4104,-8.7342,0.1429,0.7756,-0.1510,
8.110049,-0.2282,-1.0066,-0.3247,-4.8759,0.4104,-8.7342,0.1429,0.7756,-0.1510,
8.158850,-0.2282,-1.0066,-0.3247,-4.8759,0.4104,-8.7342,0.5271,1.0707,0.4049,
8.163583,-0.2282,-1.0066,-0.3247,-4.6174,-2.2815,-8.9264,0.5271,1.0707,0.4049,
8.165682,-0.1908,-1.1620,-0.2653,-4.6174,-2.2815,-8.9264,0.5271,1.0707,0.4049,
8.167247,-0.1549,-1.1336,-0.2362,-4.6174,-2.2815,-8.9264,0.5271,1.0707,0.4049,
8.169057,-0.1881,-1.0603,-0.2018,-4.6174,-2.2815,-8.9264,0.5271,1.0707,0.4049,
8.217812,-0.1881,-1.0603,-0.2018,-4.6174,-2.2815,-8.9264,0.5747,1.2869,1.0487,
8.220631,-0.1881,-1.0603,-0.2018,-3.4003,-2.8833,-8.0914,0.5747,1.2869,1.0487,
8.225493,-0.2402,-0.9966,-0.2318,-3.4003,-2.8833,-8.0914,0.5747,1.2869,1.0487,
8.227937,-0.2595,-0.9457,-0.2563,-3.4003,-2.8833,-8.0914,0.5747,1.2869,1.0487,
8.230370,-0.2553,-0.8812,-0.2248,-3.4003,-2.8833,-8.0914,0.5747,1.2869,1.0487,
8.279312,-0.2553,-0.8812,-0.2248,-3.4003,-2.8833,-8.0914,0.4440,1.5704,0.3664,
8.282342,-0.2553,-0.8812,-0.2248,-3.1896,-1.2366,-8.6014,0.4440,1.5704,0.3664,
8.286047,-0.2570,-0.8216,-0.1798,-3.1896,-1.2366,-8.6014,0.4440,1.5704,0.3664,
8.288673,-0.2922,-0.7921,-0.1644,-3.1896,-1.2366,-8.6014,0.4440,1.5704,0.3664,
8.290539,-0.3489,-0.8280,-0.1617,-3.1896,-1.2366,-8.6014,0.4440,1.5704,0.3664,
8.338343,-0.3489,-0.8280,-0.1617,-3.1896,-1.2366,-8.6014,0.4904,1.5533,0.2998,
8.341561,-0.3489,-0.8280,-0.1617,-3.3283,-0.8453,-8.1671,0.4904,1.5533,0.2998,
8.347706,-0.3652,-0.8739,-0.1600,-3.3283,-0.8453,-8.1671,0.4904,1.5533,0.2998,
8.350341,-0.3687,-0.9247,-0.1444,-3.3283,-0.8453,-8.1671,0.4904,1.5533,0.2998,
8.352239,-0.3594,-0.9677,-0.1060,-3.3283,-0.8453,-8.1671,0.4904,1.5533,0.2998,
8.397783,-0.3594,-0.9677,-0.1060,-3.3283,-0.8453,-8.1671,0.4666,1.4171,0.3346,
8.400383,-0.3594,-0.9677,-0.1060,-2.6547,-2.3994,-7.7645,0.4666,1.4171,0.3346,
8.406408,-0.3535,-0.9589,-0.0921,-2.6547,-2.3994,-7.7645,0.4666,1.4171,0.3346,
8.408548,-0.3767,-0.9130,-0.1080,-2.6547,-2.3994,-7.7645,0.4666,1.4171,0.3346,
8.410375,-0.4270,-0.8627,-0.1397,-2.6547,-2.3994,-7.7645,0.4666,1.4171,0.3346,
8.458637,-0.4270,-0.8627,-0.1397,-2.6547,-2.3994,-7.7645,0.5925,1.5313,-0.2830,
8.462636,-0.4270,-0.8627,-0.1397,-2.6619,-1.5321,-8.1470,0.5925,1.5313,-0.2830,
8.465690,-0.4248,-0.8571,-0.1419,-2.6619,-1.5321,-8.1470,0.5925,1.5313,-0.2830,
8.467968,-0.3562,-0.8927,-0.1043,-2.6619,-1.5321,-8.1470,0.5925,1.5313,-0.2830,
8.470291,-0.2985,-0.9692,-0.0762,-2.6619,-1.5321,-8.1470,0.5925,1.5313,-0.2830,
8.518499,-0.2985,-0.9692,-0.0762,-2.6619,-1.5321,-8.1470,0.6132,1.5350,-0.1138,
8.522095,-0.2985,-0.9692,-0.0762,-0.8771,-2.7704,-7.5815,0.6132,1.5350,-0.1138,
8.525325,-0.2981,-1.0166,-0.1007,-0.8771,-2.7704,-7.5815,0.6132,1.5350,-0.1138,
8.527579,-0.3386,-1.0190,-0.1402,-0.8771,-2.7704,-7.5815,0.6132,1.5350,-0.1138,
8.529731,-0.3899,-0.9941,-0.1444,-0.8771,-2.7704,-7.5815,0.6132,1.5350,-0.1138,
8.579102,-0.3899,-0.9941,-0.1444,-0.8771,-2.7704,-7.5815,0.6206,1.6309,0.0622,
8.582236,-0.3899,-0.9941,-0.1444,-1.1303,-3.2454,-8.2501,0.6206,1.6309,0.0622,
8.585144,-0.4449,-0.9550,-0.1300,-1.1303,-3.2454,-8.2501,0.6206,1.6309,0.0622,
8.587378,-0.4754,-0.9357,-0.1029,-1.1303,-3.2454,-8.2501,0.6206,1.6309,0.0622,
8.589299,-0.4647,-0.9167,-0.0520,-1.1303,-3.2454,-8.2501,0.6206,1.6309,0.0622,
8.639062,-0.4647,-0.9167,-0.0520,-1.1303,-3.2454,-8.2501,0.3225,1.9406,-0.2091,
8.641974,-0.4647,-0.9167,-0.0520,-1.1268,-2.6803,-7.1956,0.3225,1.9406,-0.2091,
8.645035,-0.4351,-0.9049,-0.0122,-1.1268,-2.6803,-7.1956,0.3225,1.9406,-0.2091,
8.647177,-0.4065,-0.8991,-0.0261,-1.1268,-2.6803,-7.1956,0.3225,1.9406,-0.2091,
8.648702,-0.2998,-0.9355,-0.2780,-1.1268,-2.6803,-7.1956,0.3225,1.9406,-0.2091,
8.698927,-0.2998,-0.9355,-0.2780,-1.1268,-2.6803,-7.1956,0.6487,1.9314,0.0915,
8.701972,-0.2998,-0.9355,-0.2780,1.1031,-2.8873,-9.0807,0.6487,1.9314,0.0915,
8.705597,-0.3025,-1.2760,-0.1327,1.1031,-2.8873,-9.0807,0.6487,1.9314,0.0915,
8.707551,-0.2595,-1.3146,-0.1869,1.1031,-2.8873,-9.0807,0.6487,1.9314,0.0915,
8.709600,-0.2719,-1.1214,-0.2235,1.1031,-2.8873,-9.0807,0.6487,1.9314,0.0915,
8.757861,-0.2719,-1.1214,-0.2235,1.1031,-2.8873,-9.0807,0.4324,1.8398,0.0964,
8.760794,-0.2719,-1.1214,-0.2235,2.1874,-5.0019,-8.2548,0.4324,1.8398,0.0964,
8.767951,-0.2907,-0.9475,-0.1759,2.1874,-5.0019,-8.2548,0.4324,1.8398,0.0964,
8.770914,-0.3305,-0.9047,-0.1928,2.1874,-5.0019,-8.2548,0.4324,1.8398,0.0964,
8.774011,-0.3806,-0.8737,-0.2482,2.1874,-5.0019,-8.2548,0.4324,1.8398,0.0964,
8.818245,-0.3806,-0.8737,-0.2482,2.1874,-5.0019,-8.2548,0.1355,1.6651,0.1055,
8.821132,-0.3806,-0.8737,-0.2482,1.7723,-2.6627,-8.0085,0.1355,1.6651,0.1055,
8.828481,-0.3899,-0.8197,-0.2536,1.7723,-2.6627,-8.0085,0.1355,1.6651,0.1055,
8.831096,-0.3139,-0.8060,-0.2292,1.7723,-2.6627,-8.0085,0.1355,1.6651,0.1055,
8.833238,-0.1810,-0.8400,-0.1761,1.7723,-2.6627,-8.0085,0.1355,1.6651,0.1055,
8.880233,-0.1810,-0.8400,-0.1761,1.7723,-2.6627,-8.0085,-0.0092,1.8331,0.0945,
8.882908,-0.1810,-0.8400,-0.1761,4.2986,-2.3409,-6.6854,-0.0092,1.8331,0.0945,
8.885275,-0.1016,-0.9238,-0.1788,4.2986,-2.3409,-6.6854,-0.0092,1.8331,0.0945,
8.887596,-0.0630,-0.9978,-0.2072,4.2986,-2.3409,-6.6854,-0.0092,1.8331,0.0945,
8.889521,-0.0672,-1.0134,-0.2262,4.2986,-2.3409,-6.6854,-0.0092,1.8331,0.0945,
8.939091,-0.0672,-1.0134,-0.2262,4.2986,-2.3409,-6.6854,0.4672,1.8147,0.1165,
8.943855,-0.0672,-1.0134,-0.2262,5.9527,-4.0903,-6.5000,0.4672,1.8147,0.1165,
8.945830,-0.0762,-0.9941,-0.2597,5.9527,-4.0903,-6.5000,0.4672,1.8147,0.1165,
8.947455,-0.0647,-0.9880,-0.2670,5.9527,-4.0903,-6.5000,0.4672,1.8147,0.1165,
8.949202,-0.0408,-0.9751,-0.2587,5.9527,-4.0903,-6.5000,0.4672,1.8147,0.1165,
8.998890,-0.0408,-0.9751,-0.2587,5.9527,-4.0903,-6.5000,0.5350,1.9888,0.1226,
9.002202,-0.0408,-0.9751,-0.2587,6.6645,-3.8283,-6.2047,0.5350,1.9888,0.1226,
9.005488,-0.0635,-0.9550,-0.2563,6.6645,-3.8283,-6.2047,0.5350,1.9888,0.1226,
9.007991,-0.0953,-0.9413,-0.2590,6.6645,-3.8283,-6.2047,0.5350,1.9888,0.1226,
9.010590,-0.1138,-0.9475,-0.2548,6.6645,-3.8283,-6.2047,0.5350,1.9888,0.1226,
9.059445,-0.1138,-0.9475,-0.2548,6.6645,-3.8283,-6.2047,0.5790,2.2087,0.2882,
9.062945,-0.1138,-0.9475,-0.2548,6.4119,-3.7131,-5.4055,0.5790,2.2087,0.2882,
9.065209,-0.1192,-0.9748,-0.2348,6.4119,-3.7131,-5.4055,0.5790,2.2087,0.2882,
9.067135,-0.1114,-0.9914,-0.2233,6.4119,-3.7131,-5.4055,0.5790,2.2087,0.2882,
9.069000,-0.0960,-1.0036,-0.2199,6.4119,-3.7131,-5.4055,0.5790,2.2087,0.2882,
9.119121,-0.0960,-1.0036,-0.2199,6.4119,-3.7131,-5.4055,0.6200,2.2576,0.3401,
9.122885,-0.0960,-1.0036,-0.2199,7.0031,-4.4605,-4.1968,0.6200,2.2576,0.3401,
9.125307,-0.1075,-1.0039,-0.2133,7.0031,-4.4605,-4.1968,0.6200,2.2576,0.3401,
9.127260,-0.1319,-0.9944,-0.2223,7.0031,-4.4605,-4.1968,0.6200,2.2576,0.3401,
9.129102,-0.1566,-0.9900,-0.2218,7.0031,-4.4605,-4.1968,0.6200,2.2576,0.3401,
9.178901,-0.1566,-0.9900,-0.2218,7.0031,-4.4605,-4.1968,0.6035,2.2625,0.2387,
9.181714,-0.1566,-0.9900,-0.2218,6.6977,-4.4895,-3.2841,0.6035,2.2625,0.2387,
9.185494,-0.1554,-0.9870,-0.2147,6.6977,-4.4895,-3.2841,0.6035,2.2625,0.2387,
9.187877,-0.1527,-0.9817,-0.2135,6.6977,-4.4895,-3.2841,0.6035,2.2625,0.2387,
9.189800,-0.1429,-0.9773,-0.2177,6.6977,-4.4895,-3.2841,0.6035,2.2625,0.2387,
9.238270,-0.1429,-0.9773,-0.2177,6.6977,-4.4895,-3.2841,0.4422,2.2350,0.1935,
9.241597,-0.1429,-0.9773,-0.2177,6.9537,-4.4427,-2.2517,0.4422,2.2350,0.1935,
9.245618,-0.1207,-0.9699,-0.2411,6.9537,-4.4427,-2.2517,0.4422,2.2350,0.1935,
9.249058,-0.1305,-0.9641,-0.2123,6.9537,-4.4427,-2.2517,0.4422,2.2350,0.1935,
9.251023,-0.1395,-0.9558,-0.2223,6.9537,-4.4427,-2.2517,0.4422,2.2350,0.1935,
9.297903,-0.1395,-0.9558,-0.2223,6.9537,-4.4427,-2.2517,0.5051,2.1617,0.2460,
9.300774,-0.1395,-0.9558,-0.2223,6.9761,-4.2863,-1.3109,0.5051,2.1617,0.2460,
9.305524,-0.0977,-0.9687,-0.2272,6.9761,-4.2863,-1.3109,0.5051,2.1617,0.2460,
9.307807,-0.0682,-0.9848,-0.2165,6.9761,-4.2863,-1.3109,0.5051,2.1617,0.2460,
9.310345,-0.0662,-1.0002,-0.2006,6.9761,-4.2863,-1.3109,0.5051,2.1617,0.2460,
9.357753,-0.0662,-1.0002,-0.2006,6.9761,-4.2863,-1.3109,0.4617,2.0805,0.4641,
9.360779,-0.0662,-1.0002,-0.2006,7.6023,-4.8168,-0.1670,0.4617,2.0805,0.4641,
9.369602,-0.0887,-1.0132,-0.2140,7.6023,-4.8168,-0.1670,0.4617,2.0805,0.4641,
9.371961,-0.1165,-1.0198,-0.2182,7.6023,-4.8168,-0.1670,0.4617,2.0805,0.4641,
9.373832,-0.1402,-1.0105,-0.2196,7.6023,-4.8168,-0.1670,0.4617,2.0805,0.4641,
9.419682,-0.1402,-1.0105,-0.2196,7.6023,-4.8168,-0.1670,0.4226,1.8257,0.2698,
9.422760,-0.1402,-1.0105,-0.2196,6.7056,-5.0046,0.4734,0.4226,1.8257,0.2698,
9.425485,-0.1573,-0.9763,-0.2016,6.7056,-5.0046,0.4734,0.4226,1.8257,0.2698,
9.427382,-0.1717,-0.9460,-0.2067,6.7056,-5.0046,0.4734,0.4226,1.8257,0.2698,
9.428734,-0.1823,-0.9352,-0.1703,6.7056,-5.0046,0.4734,0.4226,1.8257,0.2698,
9.478771,-0.1823,-0.9352,-0.1703,6.7056,-5.0046,0.4734,0.2821,1.4342,0.2088,
9.482083,-0.1823,-0.9352,-0.1703,6.0392,-4.2689,1.6419,0.2821,1.4342,0.2088,
9.486904,-0.1818,-0.9396,-0.1356,6.0392,-4.2689,1.6419,0.2821,1.4342,0.2088,
9.490760,-0.1705,-0.9470,-0.1187,6.0392,-4.2689,1.6419,0.2821,1.4342,0.2088,
9.492681,-0.1507,-0.9572,-0.0787,6.0392,-4.2689,1.6419,0.2821,1.4342,0.2088,
9.538684,-0.1507,-0.9572,-0.0787,6.0392,-4.2689,1.6419,0.0916,1.1006,0.2069,
9.541576,-0.1507,-0.9572,-0.0787,6.1151,-4.4931,3.0549,0.0916,1.1006,0.2069,
9.545353,-0.1498,-0.9528,-0.0643,6.1151,-4.4931,3.0549,0.0916,1.1006,0.2069,
9.547144,-0.1495,-0.9570,-0.0508,6.1151,-4.4931,3.0549,0.0916,1.1006,0.2069,
9.548793,-0.1429,-0.9482,-0.0708,6.1151,-4.4931,3.0549,0.0916,1.1006,0.2069,
9.598789,-0.1429,-0.9482,-0.0708,6.1151,-4.4931,3.0549,-0.0355,1.1739,0.2112,
9.601771,-0.1429,-0.9482,-0.0708,5.9528,-4.4479,3.6218,-0.0355,1.1739,0.2112,
9.605307,-0.0963,-0.9335,-0.0704,5.9528,-4.4479,3.6218,-0.0355,1.1739,0.2112,
9.607193,-0.0366,-0.9362,-0.0733,5.9528,-4.4479,3.6218,-0.0355,1.1739,0.2112,
9.608827,0.0100,-0.9660,-0.0774,5.9528,-4.4479,3.6218,-0.0355,1.1739,0.2112,
9.658586,0.0100,-0.9660,-0.0774,5.9528,-4.4479,3.6218,0.1197,0.9693,0.3645,
9.661558,0.0100,-0.9660,-0.0774,7.1944,-4.6908,4.0370,0.1197,0.9693,0.3645,
9.665472,0.0205,-0.9948,-0.0755,7.1944,-4.6908,4.0370,0.1197,0.9693,0.3645,
9.667651,-0.0103,-1.0078,-0.0660,7.1944,-4.6908,4.0370,0.1197,0.9693,0.3645,
9.669415,-0.0559,-1.0205,-0.0325,7.1944,-4.6908,4.0370,0.1197,0.9693,0.3645,
9.718901,-0.0559,-1.0205,-0.0325,7.1944,-4.6908,4.0370,0.1942,0.6242,0.4488,
9.722291,-0.0559,-1.0205,-0.0325,6.3993,-5.3017,4.7628,0.1942,0.6242,0.4488,
9.725386,-0.1046,-1.0034,0.0000,6.3993,-5.3017,4.7628,0.1942,0.6242,0.4488,
9.727036,-0.1290,-0.9763,0.0489,6.3993,-5.3017,4.7628,0.1942,0.6242,0.4488,
9.728418,-0.1595,-1.1788,-0.0606,6.3993,-5.3017,4.7628,0.1942,0.6242,0.4488,
9.778554,-0.1595,-1.1788,-0.0606,6.3993,-5.3017,4.7628,0.0415,1.2197,-0.1657,
9.781935,-0.1595,-1.1788,-0.0606,5.2274,-6.9191,4.7530,0.0415,1.2197,-0.1657,
9.787915,-0.4373,-1.3789,-0.2651,5.2274,-6.9191,4.7530,0.0415,1.2197,-0.1657,
9.791522,-0.3589,-1.1707,-0.2084,5.2274,-6.9191,4.7530,0.0415,1.2197,-0.1657,
9.793494,-0.0384,-0.9496,-0.1439,5.2274,-6.9191,4.7530,0.0415,1.2197,-0.1657,
9.837291,-0.0384,-0.9496,-0.1439,5.2274,-6.9191,4.7530,0.2595,0.5050,0.0970,
9.839841,-0.0384,-0.9496,-0.1439,6.0801,-4.4922,4.1855,0.2595,0.5050,0.0970,
9.845080,0.1180,-0.9856,-0.1415,6.0801,-4.4922,4.1855,0.2595,0.5050,0.0970,
9.847202,0.0396,-1.0283,-0.1383,6.0801,-4.4922,4.1855,0.2595,0.5050,0.0970,
9.848874,-0.1400,-0.9912,-0.1317,6.0801,-4.4922,4.1855,0.2595,0.5050,0.0970,
9.898763,-0.1400,-0.9912,-0.1317,6.0801,-4.4922,4.1855,-0.0208,0.5600,0.4006,
9.901714,-0.1400,-0.9912,-0.1317,4.9804,-4.9381,4.4553,-0.0208,0.5600,0.4006,
9.907502,-0.2985,-0.8983,-0.1725,4.9804,-4.9381,4.4553,-0.0208,0.5600,0.4006,
9.909687,-0.3777,-0.8786,-0.2438,4.9804,-4.9381,4.4553,-0.0208,0.5600,0.4006,
9.911871,-0.3599,-0.8849,-0.2861,4.9804,-4.9381,4.4553,-0.0208,0.5600,0.4006,
9.958380,-0.3599,-0.8849,-0.2861,4.9804,-4.9381,4.4553,-0.0807,1.0505,0.0909,
9.961285,-0.3599,-0.8849,-0.2861,2.5544,-3.9582,3.2766,-0.0807,1.0505,0.0909,
9.965237,-0.2814,-0.8830,-0.3271,2.5544,-3.9582,3.2766,-0.0807,1.0505,0.0909,
9.967003,-0.2152,-0.9025,-0.3687,2.5544,-3.9582,3.2766,-0.0807,1.0505,0.0909,
9.968375,-0.1810,-0.9206,-0.4136,2.5544,-3.9582,3.2766,-0.0807,1.0505,0.0909,
10.018896,-0.1810,-0.9206,-0.4136,2.5544,-3.9582,3.2766,0.2907,0.7622,0.2876,
10.023349,-0.1810,-0.9206,-0.4136,4.0414,-4.3189,2.2896,0.2907,0.7622,0.2876,
10.025303,-0.2072,-0.9345,-0.3906,4.0414,-4.3189,2.2896,0.2907,0.7622,0.2876,
10.026942,-0.2819,-0.9633,-0.3638,4.0414,-4.3189,2.2896,0.2907,0.7622,0.2876,
10.028436,-0.3108,-0.9174,-0.3770,4.0414,-4.3189,2.2896,0.2907,0.7622,0.2876,
10.079873,-0.3108,-0.9174,-0.3770,4.0414,-4.3189,2.2896,-0.0263,0.9949,0.4030,
10.083637,-0.3108,-0.9174,-0.3770,2.5212,-4.3101,2.8842,-0.0263,0.9949,0.4030,
10.085325,-0.3071,-0.8536,-0.3902,2.5212,-4.3101,2.8842,-0.0263,0.9949,0.4030,
10.086833,-0.3078,-0.8370,-0.3711,2.5212,-4.3101,2.8842,-0.0263,0.9949,0.4030,
10.088186,-0.3196,-0.8685,-0.3271,2.5212,-4.3101,2.8842,-0.0263,0.9949,0.4030,
10.139041,-0.3196,-0.8685,-0.3271,2.5212,-4.3101,2.8842,0.1184,1.1251,0.4201,
10.142026,-0.3196,-0.8685,-0.3271,2.1163,-3.9380,3.7014,0.1184,1.1251,0.4201,
10.146153,-0.3112,-0.9108,-0.2988,2.1163,-3.9380,3.7014,0.1184,1.1251,0.4201,
10.149397,-0.2697,-0.9142,-0.2866,2.1163,-3.9380,3.7014,0.1184,1.1251,0.4201,
10.150959,-0.2326,-0.9206,-0.2773,2.1163,-3.9380,3.7014,0.1184,1.1251,0.4201,
10.199676,-0.2326,-0.9206,-0.2773,2.1163,-3.9380,3.7014,0.2345,0.9418,0.3328,
10.203421,-0.2326,-0.9206,-0.2773,2.6152,-4.4534,4.4481,0.2345,0.9418,0.3328,
10.205319,-0.2507,-0.9501,-0.2668,2.6152,-4.4534,4.4481,0.2345,0.9418,0.3328,
10.206812,-0.2885,-0.9753,-0.2318,2.6152,-4.4534,4.4481,0.2345,0.9418,0.3328,
10.208238,-0.3279,-1.0071,-0.2101,2.6152,-4.4534,4.4481,0.2345,0.9418,0.3328,
10.259457,-0.3279,-1.0071,-0.2101,2.6152,-4.4534,4.4481,0.4788,0.7213,0.4201,
10.263013,-0.3279,-1.0071,-0.2101,1.3867,-5.2092,5.2414,0.4788,0.7213,0.4201,
10.265132,-0.3516,-1.0207,-0.2062,1.3867,-5.2092,5.2414,0.4788,0.7213,0.4201,
10.266584,-0.3755,-0.9919,-0.1852,1.3867,-5.2092,5.2414,0.4788,0.7213,0.4201,
10.268245,-0.3765,-0.9289,-0.1845,1.3867,-5.2092,5.2414,0.4788,0.7213,0.4201,
10.319712,-0.3765,-0.9289,-0.1845,1.3867,-5.2092,5.2414,0.1581,0.4720,0.4782,
10.322620,-0.3765,-0.9289,-0.1845,0.8015,-4.3694,5.5132,0.1581,0.4720,0.4782,
10.325706,-0.3843,-0.8695,-0.1717,0.8015,-4.3694,5.5132,0.1581,0.4720,0.4782,
10.327735,-0.3909,-0.8602,-0.1783,0.8015,-4.3694,5.5132,0.1581,0.4720,0.4782,
10.329494,-0.3667,-0.8771,-0.1725,0.8015,-4.3694,5.5132,0.1581,0.4720,0.4782,
10.379418,-0.3667,-0.8771,-0.1725,0.8015,-4.3694,5.5132,0.2192,0.5166,0.1752,
10.384895,-0.3667,-0.8771,-0.1725,0.7824,-3.8538,5.6945,0.2192,0.5166,0.1752,
10.387071,-0.3342,-0.8983,-0.1546,0.7824,-3.8538,5.6945,0.2192,0.5166,0.1752,
10.388871,-0.2678,-0.9174,-0.1590,0.7824,-3.8538,5.6945,0.2192,0.5166,0.1752,
10.390328,-0.2541,-0.9367,-0.1502,0.7824,-3.8538,5.6945,0.2192,0.5166,0.1752,
10.438916,-0.2541,-0.9367,-0.1502,0.7824,-3.8538,5.6945,0.3347,0.4330,0.2191,
10.442024,-0.2541,-0.9367,-0.1502,1.7171,-4.3350,5.9437,0.3347,0.4330,0.2191,
10.446808,-0.2775,-0.9409,-0.1444,1.7171,-4.3350,5.9437,0.3347,0.4330,0.2191,
10.449686,-0.3081,-0.9325,-0.1302,1.7171,-4.3350,5.9437,0.3347,0.4330,0.2191,
10.451189,-0.3579,-0.9282,-0.1004,1.7171,-4.3350,5.9437,0.3347,0.4330,0.2191,
10.499347,-0.3579,-0.9282,-0.1004,1.7171,-4.3350,5.9437,0.4275,0.4262,0.0359,
10.502873,-0.3579,-0.9282,-0.1004,0.5465,-4.0642,6.3928,0.4275,0.4262,0.0359,
10.505186,-0.3884,-0.9189,-0.0994,0.5465,-4.0642,6.3928,0.4275,0.4262,0.0359,
10.506812,-0.3943,-0.9040,-0.1197,0.5465,-4.0642,6.3928,0.4275,0.4262,0.0359,
10.509324,-0.3926,-0.8803,-0.1312,0.5465,-4.0642,6.3928,0.4275,0.4262,0.0359,
10.557885,-0.3926,-0.8803,-0.1312,0.5465,-4.0642,6.3928,0.3512,0.2405,-0.2231,
10.560200,-0.3926,-0.8803,-0.1312,0.0347,-3.3739,6.0292,0.3512,0.2405,-0.2231,
10.566319,-0.3828,-0.8790,-0.1317,0.0347,-3.3739,6.0292,0.3512,0.2405,-0.2231,
10.569245,-0.3877,-0.9137,-0.1112,0.0347,-3.3739,6.0292,0.3512,0.2405,-0.2231,
10.570809,-0.3977,-0.9533,-0.0948,0.0347,-3.3739,6.0292,0.3512,0.2405,-0.2231,
10.618438,-0.3977,-0.9533,-0.0948,0.0347,-3.3739,6.0292,-0.0709,-0.0344,0.0212,
10.622198,-0.3977,-0.9533,-0.0948,-0.1287,-3.9250,6.3247,-0.0709,-0.0344,0.0212,
10.636889,-0.4068,-0.9516,-0.0906,-0.1287,-3.9250,6.3247,-0.0709,-0.0344,0.0212,
10.639974,-0.4312,-0.9194,-0.0901,-0.1287,-3.9250,6.3247,-0.0709,-0.0344,0.0212,
10.642147,-0.5067,-0.8930,-0.2878,-0.1287,-3.9250,6.3247,-0.0709,-0.0344,0.0212,
10.679884,-0.5067,-0.8930,-0.2878,-0.1287,-3.9250,6.3247,-0.2756,-0.3667,0.3102,
10.683870,-0.5067,-0.8930,-0.2878,-1.0298,-3.5320,4.4897,-0.2756,-0.3667,0.3102,
10.685314,-0.6279,-1.0901,-0.2978,-1.0298,-3.5320,4.4897,-0.2756,-0.3667,0.3102,
10.686843,-0.6291,-1.2301,-0.2348,-1.0298,-3.5320,4.4897,-0.2756,-0.3667,0.3102,
10.688389,-0.4984,-1.0997,-0.2626,-1.0298,-3.5320,4.4897,-0.2756,-0.3667,0.3102,
10.739032,-0.4984,-1.0997,-0.2626,-1.0298,-3.5320,4.4897,-0.1613,-0.1596,-0.1694,
10.742169,-0.4984,-1.0997,-0.2626,-0.7700,-5.6401,4.6967,-0.1613,-0.1596,-0.1694,
10.745357,-0.3938,-1.0232,-0.2492,-0.7700,-5.6401,4.6967,-0.1613,-0.1596,-0.1694,
10.747401,-0.3425,-0.9496,-0.3132,-0.7700,-5.6401,4.6967,-0.1613,-0.1596,-0.1694,
10.749244,-0.2309,-0.8397,-0.4226,-0.7700,-5.6401,4.6967,-0.1613,-0.1596,-0.1694,
10.799734,-0.2309,-0.8397,-0.4226,-0.7700,-5.6401,4.6967,-0.0813,-0.4113,-0.6275,
10.804916,-0.2309,-0.8397,-0.4226,1.7931,-3.1082,3.1722,-0.0813,-0.4113,-0.6275,
10.806943,-0.1165,-0.7916,-0.4422,1.7931,-3.1082,3.1722,-0.0813,-0.4113,-0.6275,
10.808481,-0.0078,-0.7305,-0.3569,1.7931,-3.1082,3.1722,-0.0813,-0.4113,-0.6275,
10.810012,0.0452,-0.7884,-0.2380,1.7931,-3.1082,3.1722,-0.0813,-0.4113,-0.6275,
10.860627,0.0452,-0.7884,-0.2380,1.7931,-3.1082,3.1722,-0.0337,-1.2042,0.0524,
10.863600,0.0452,-0.7884,-0.2380,4.6929,-2.4542,4.7611,-0.0337,-1.2042,0.0524,
10.865515,-0.0965,-1.0251,-0.2179,4.6929,-2.4542,4.7611,-0.0337,-1.2042,0.0524,
10.867153,-0.3225,-1.2274,-0.2853,4.6929,-2.4542,4.7611,-0.0337,-1.2042,0.0524,
10.868627,-0.4175,-1.2113,-0.3103,4.6929,-2.4542,4.7611,-0.0337,-1.2042,0.0524,
10.918817,-0.4175,-1.2113,-0.3103,4.6929,-2.4542,4.7611,0.7733,-0.9965,-0.2286,
10.922456,-0.4175,-1.2113,-0.3103,0.6663,-6.4551,3.6078,0.7733,-0.9965,-0.2286,
10.927321,-0.4415,-1.0762,-0.2595,0.6663,-6.4551,3.6078,0.7733,-0.9965,-0.2286,
10.929784,-0.3809,-0.9904,-0.2257,0.6663,-6.4551,3.6078,0.7733,-0.9965,-0.2286,
10.931688,-0.3193,-0.9763,-0.2196,0.6663,-6.4551,3.6078,0.7733,-0.9965,-0.2286,
10.979359,-0.3193,-0.9763,-0.2196,0.6663,-6.4551,3.6078,0.1380,-1.1852,-0.3276,
10.983095,-0.3193,-0.9763,-0.2196,1.8700,-3.8047,4.0093,0.1380,-1.1852,-0.3276,
10.985217,-0.2709,-0.9162,-0.2306,1.8700,-3.8047,4.0093,0.1380,-1.1852,-0.3276,
10.987046,-0.2375,-0.8194,-0.2287,1.8700,-3.8047,4.0093,0.1380,-1.1852,-0.3276,
10.988632,-0.2448,-0.7852,-0.1659,1.8700,-3.8047,4.0093,0.1380,-1.1852,-0.3276,
11.039284,-0.2448,-0.7852,-0.1659,1.8700,-3.8047,4.0093,-0.1681,-1.6446,-0.2433,
11.042409,-0.2448,-0.7852,-0.1659,3.0238,-1.8435,4.0769,-0.1681,-1.6446,-0.2433,
11.045657,-0.2311,-0.8145,-0.1351,3.0238,-1.8435,4.0769,-0.1681,-1.6446,-0.2433,
11.047414,-0.2052,-0.8781,-0.1437,3.0238,-1.8435,4.0769,-0.1681,-1.6446,-0.2433,
11.049379,-0.2221,-0.9235,-0.1363,3.0238,-1.8435,4.0769,-0.1681,-1.6446,-0.2433,
11.099405,-0.2221,-0.9235,-0.1363,3.0238,-1.8435,4.0769,-0.2609,-1.5353,-0.4950,
11.104215,-0.2221,-0.9235,-0.1363,3.6288,-3.1142,3.8825,-0.2609,-1.5353,-0.4950,
11.106750,-0.2658,-0.9235,-0.1385,3.6288,-3.1142,3.8825,-0.2609,-1.5353,-0.4950,
11.108148,-0.2990,-0.9186,-0.1454,3.6288,-3.1142,3.8825,-0.2609,-1.5353,-0.4950,
11.110156,-0.3071,-0.9274,-0.1385,3.6288,-3.1142,3.8825,-0.2609,-1.5353,-0.4950,
11.158839,-0.3071,-0.9274,-0.1385,3.6288,-3.1142,3.8825,-0.3403,-1.2598,-0.2647,
11.162130,-0.3071,-0.9274,-0.1385,3.0643,-3.0645,3.4370,-0.3403,-1.2598,-0.2647,
11.164992,-0.2844,-0.9128,-0.1424,3.0643,-3.0645,3.4370,-0.3403,-1.2598,-0.2647,
11.166638,-0.2216,-0.8915,-0.1432,3.0643,-3.0645,3.4370,-0.3403,-1.2598,-0.2647,
11.168067,-0.1397,-0.8558,-0.1094,3.0643,-3.0645,3.4370,-0.3403,-1.2598,-0.2647,
11.219523,-0.1397,-0.8558,-0.1094,3.0643,-3.0645,3.4370,-0.2414,-0.8199,-0.1095,
11.222583,-0.1397,-0.8558,-0.1094,4.9177,-2.3388,3.4060,-0.2414,-0.8199,-0.1095,
11.225346,-0.0919,-0.8754,-0.0860,4.9177,-2.3388,3.4060,-0.2414,-0.8199,-0.1095,
11.227265,-0.0982,-0.9216,-0.0616,4.9177,-2.3388,3.4060,-0.2414,-0.8199,-0.1095,
11.229027,-0.0953,-0.9545,-0.0704,4.9177,-2.3388,3.4060,-0.2414,-0.8199,-0.1095,
11.278142,-0.0953,-0.9545,-0.0704,4.9177,-2.3388,3.4060,-0.3776,-1.0759,0.1544,
11.282369,-0.0953,-0.9545,-0.0704,5.5439,-3.3364,3.5523,-0.3776,-1.0759,0.1544,
11.285647,-0.1190,-0.9694,-0.0457,5.5439,-3.3364,3.5523,-0.3776,-1.0759,0.1544,
11.287908,-0.2226,-0.9479,-0.0083,5.5439,-3.3364,3.5523,-0.3776,-1.0759,0.1544,
11.290017,-0.3408,-0.9504,-0.0083,5.5439,-3.3364,3.5523,-0.3776,-1.0759,0.1544,
11.338774,-0.3408,-0.9504,-0.0083,5.5439,-3.3364,3.5523,-0.5773,-1.1981,0.1953,
11.342180,-0.3408,-0.9504,-0.0083,3.4877,-3.4619,3.8314,-0.5773,-1.1981,0.1953,
11.345131,-0.4358,-0.9587,-0.0442,3.4877,-3.4619,3.8314,-0.5773,-1.1981,0.1953,
11.346908,-0.4639,-0.9616,-0.0665,3.4877,-3.4619,3.8314,-0.5773,-1.1981,0.1953,
11.348457,-0.4300,-0.9475,-0.0716,3.4877,-3.4619,3.8314,-0.5773,-1.1981,0.1953,
11.399884,-0.4300,-0.9475,-0.0716,3.4877,-3.4619,3.8314,-0.5016,-1.4051,-0.1235,
11.405266,-0.4300,-0.9475,-0.0716,2.8926,-3.5537,2.8791,-0.5016,-1.4051,-0.1235,
11.407248,-0.4031,-0.9399,-0.0418,2.8926,-3.5537,2.8791,-0.5016,-1.4051,-0.1235,
11.408942,-0.3836,-0.9699,0.0122,2.8926,-3.5537,2.8791,-0.5016,-1.4051,-0.1235,
11.410218,-0.3716,-1.0144,0.0325,2.8926,-3.5537,2.8791,-0.5016,-1.4051,-0.1235,
11.458668,-0.3716,-1.0144,0.0325,2.8926,-3.5537,2.8791,-0.5150,-1.6403,-0.0759,
11.462096,-0.3716,-1.0144,0.0325,3.7091,-4.2228,3.3907,-0.5150,-1.6403,-0.0759,
11.465937,-0.3481,-1.0071,0.0474,3.7091,-4.2228,3.3907,-0.5150,-1.6403,-0.0759,
11.468480,-0.3056,-0.9587,0.0845,3.7091,-4.2228,3.3907,-0.5150,-1.6403,-0.0759,
11.469794,-0.3144,-0.9448,0.1314,3.7091,-4.2228,3.3907,-0.5150,-1.6403,-0.0759,
11.519393,-0.3144,-0.9448,0.1314,3.7091,-4.2228,3.3907,-1.2383,-0.5469,-1.0789,
11.525832,-0.3144,-0.9448,0.1314,4.4242,-3.5048,3.8821,-1.2383,-0.5469,-1.0789,
11.527570,-0.2954,-1.3691,0.0472,4.4242,-3.5048,3.8821,-1.2383,-0.5469,-1.0789,
11.529246,-0.5409,-1.4761,-0.2971,4.4242,-3.5048,3.8821,-1.2383,-0.5469,-1.0789,
11.530619,-0.2497,-1.0200,-0.2612,4.4242,-3.5048,3.8821,-1.2383,-0.5469,-1.0789,
11.578524,-0.2497,-1.0200,-0.2612,4.4242,-3.5048,3.8821,0.1722,-1.1755,-0.1083,
11.581507,-0.2497,-1.0200,-0.2612,4.8265,-3.9205,-0.0385,0.1722,-1.1755,-0.1083,
11.585393,0.0989,-0.8937,-0.3176,4.8265,-3.9205,-0.0385,0.1722,-1.1755,-0.1083,
11.587350,0.1617,-0.9477,-0.3345,4.8265,-3.9205,-0.0385,0.1722,-1.1755,-0.1083,
11.589455,0.0647,-0.9159,-0.2744,4.8265,-3.9205,-0.0385,0.1722,-1.1755,-0.1083,
11.638805,0.0647,-0.9159,-0.2744,4.8265,-3.9205,-0.0385,-1.0025,-1.4778,-0.0014,
11.642099,0.0647,-0.9159,-0.2744,8.0712,-2.9114,-0.6677,-1.0025,-1.4778,-0.0014,
11.647032,-0.0738,-0.8058,-0.4038,8.0712,-2.9114,-0.6677,-1.0025,-1.4778,-0.0014,
11.649494,-0.2128,-0.6941,-0.4046,8.0712,-2.9114,-0.6677,-1.0025,-1.4778,-0.0014,
11.650806,-0.3821,-0.7051,-0.3181,8.0712,-2.9114,-0.6677,-1.0025,-1.4778,-0.0014,
11.698342,-0.3821,-0.7051,-0.3181,8.0712,-2.9114,-0.6677,-0.1418,-0.1559,-0.8969,
11.702196,-0.3821,-0.7051,-0.3181,3.6529,-0.7597,-1.2141,-0.1418,-0.1559,-0.8969,
11.705339,-0.3941,-0.8908,-0.3579,3.6529,-0.7597,-1.2141,-0.1418,-0.1559,-0.8969,
11.707223,-0.2157,-1.0816,-0.3997,3.6529,-0.7597,-1.2141,-0.1418,-0.1559,-0.8969,
11.709751,-0.0811,-1.1295,-0.3428,3.6529,-0.7597,-1.2141,-0.1418,-0.1559,-0.8969,
11.757502,-0.0811,-1.1295,-0.3428,3.6529,-0.7597,-1.2141,-0.0691,-0.6672,0.6406,
11.760166,-0.0811,-1.1295,-0.3428,6.4679,-4.6971,-1.6780,-0.0691,-0.6672,0.6406,
11.764929,-0.0667,-1.1077,-0.2621,6.4679,-4.6971,-1.6780,-0.0691,-0.6672,0.6406,
11.766754,-0.1776,-1.0359,-0.2492,6.4679,-4.6971,-1.6780,-0.0691,-0.6672,0.6406,
11.768121,-0.2690,-0.9220,-0.2841,6.4679,-4.6971,-1.6780,-0.0691,-0.6672,0.6406,
11.819851,-0.2690,-0.9220,-0.2841,6.4679,-4.6971,-1.6780,-0.0856,-0.2744,0.5661,
11.823338,-0.2690,-0.9220,-0.2841,4.9876,-3.0534,-1.2813,-0.0856,-0.2744,0.5661,
11.829784,-0.2802,-0.8969,-0.2971,4.9876,-3.0534,-1.2813,-0.0856,-0.2744,0.5661,
11.832178,-0.2160,-0.8417,-0.2685,4.9876,-3.0534,-1.2813,-0.0856,-0.2744,0.5661,
11.834427,-0.1275,-0.7650,-0.2350,4.9876,-3.0534,-1.2813,-0.0856,-0.2744,0.5661,
11.878836,-0.1275,-0.7650,-0.2350,4.9876,-3.0534,-1.2813,-0.2017,0.1849,0.1666,
11.883718,-0.1275,-0.7650,-0.2350,6.4252,-1.6025,-0.7143,-0.2017,0.1849,0.1666,
11.887034,-0.0733,-0.7381,-0.2519,6.4252,-1.6025,-0.7143,-0.2017,0.1849,0.1666,
11.889478,-0.1366,-0.8277,-0.2424,6.4252,-1.6025,-0.7143,-0.2017,0.1849,0.1666,
11.891459,-0.2883,-0.9795,-0.1788,6.4252,-1.6025,-0.7143,-0.2017,0.1849,0.1666,
11.939309,-0.2883,-0.9795,-0.1788,6.4252,-1.6025,-0.7143,0.2895,0.5435,0.3804,
11.942526,-0.2883,-0.9795,-0.1788,4.9068,-3.8271,0.0011,0.2895,0.5435,0.3804,
11.956888,-0.3090,-1.0735,-0.1625,4.9068,-3.8271,0.0011,0.2895,0.5435,0.3804,
11.959241,-0.2917,-1.0823,-0.1793,4.9068,-3.8271,0.0011,0.2895,0.5435,0.3804,
11.960911,-0.2893,-1.0378,-0.1102,4.9068,-3.8271,0.0011,0.2895,0.5435,0.3804,
11.999150,-0.2893,-1.0378,-0.1102,4.9068,-3.8271,0.0011,0.4972,0.3627,0.3920,
12.001967,-0.2893,-1.0378,-0.1102,4.9690,-4.5138,0.7283,0.4972,0.3627,0.3920,
12.005569,-0.3105,-0.9848,-0.0493,4.9690,-4.5138,0.7283,0.4972,0.3627,0.3920,
12.007587,-0.3486,-0.9284,-0.0696,4.9690,-4.5138,0.7283,0.4972,0.3627,0.3920,
12.009301,-0.3899,-0.8832,-0.0989,4.9690,-4.5138,0.7283,0.4972,0.3627,0.3920,
12.059223,-0.3899,-0.8832,-0.0989,4.9690,-4.5138,0.7283,0.4648,0.4470,-0.0973,
12.063722,-0.3899,-0.8832,-0.0989,3.9826,-3.0069,0.8653,0.4648,0.4470,-0.0973,
12.065493,-0.4004,-0.8568,-0.1082,3.9826,-3.0069,0.8653,0.4648,0.4470,-0.0973,
12.067014,-0.3772,-0.8463,-0.0687,3.9826,-3.0069,0.8653,0.4648,0.4470,-0.0973,
12.068610,-0.3242,-0.8688,-0.0352,3.9826,-3.0069,0.8653,0.4648,0.4470,-0.0973,
12.118245,-0.3242,-0.8688,-0.0352,3.9826,-3.0069,0.8653,0.1789,0.4391,-0.0032,
12.122740,-0.3242,-0.8688,-0.0352,4.5158,-2.7383,1.5602,0.1789,0.4391,-0.0032,
12.125455,-0.3274,-0.9367,-0.0369,4.5158,-2.7383,1.5602,0.1789,0.4391,-0.0032,
12.127132,-0.3728,-0.9782,-0.0474,4.5158,-2.7383,1.5602,0.1789,0.4391,-0.0032,
12.128780,-0.3838,-0.9602,-0.0330,4.5158,-2.7383,1.5602,0.1789,0.4391,-0.0032,
12.178860,-0.3838,-0.9602,-0.0330,4.5158,-2.7383,1.5602,-0.2243,0.5417,0.0316,
12.183112,-0.3838,-0.9602,-0.0330,3.8696,-3.6177,1.7732,-0.2243,0.5417,0.0316,
12.185250,-0.3633,-0.9418,0.0156,3.8696,-3.6177,1.7732,-0.2243,0.5417,0.0316,
12.186890,-0.3393,-0.9076,-0.0770,3.8696,-3.6177,1.7732,-0.2243,0.5417,0.0316,
12.188433,-0.3811,-1.0173,-0.1957,3.8696,-3.6177,1.7732,-0.2243,0.5417,0.0316,
12.239115,-0.3811,-1.0173,-0.1957,3.8696,-3.6177,1.7732,0.0445,0.5820,0.6077,
12.242463,-0.3811,-1.0173,-0.1957,3.8966,-4.2990,0.4846,0.0445,0.5820,0.6077,
12.245879,-0.5375,-1.3938,-0.1537,3.8966,-4.2990,0.4846,0.0445,0.5820,0.6077,
12.247802,-0.4644,-1.3015,-0.2832,3.8966,-4.2990,0.4846,0.0445,0.5820,0.6077,
12.249538,-0.4468,-1.0684,-0.3762,3.8966,-4.2990,0.4846,0.0445,0.5820,0.6077,
12.299120,-0.4468,-1.0684,-0.3762,3.8966,-4.2990,0.4846,-0.2011,0.5820,0.0334,
12.301858,-0.4468,-1.0684,-0.3762,3.3519,-5.0770,-0.9822,-0.2011,0.5820,0.0334,
12.305497,-0.4183,-0.8759,-0.4972,3.3519,-5.0770,-0.9822,-0.2011,0.5820,0.0334,
12.307414,-0.2768,-0.6853,-0.5079,3.3519,-5.0770,-0.9822,-0.2011,0.5820,0.0334,
12.309719,-0.0628,-0.6159,-0.3501,3.3519,-5.0770,-0.9822,-0.2011,0.5820,0.0334,
12.361570,-0.0628,-0.6159,-0.3501,3.3519,-5.0770,-0.9822,-0.0416,-0.2262,-0.4809,
12.364989,-0.0628,-0.6159,-0.3501,6.9233,-0.4699,-0.5399,-0.0416,-0.2262,-0.4809,
12.366646,0.0630,-0.7310,-0.2372,6.9233,-0.4699,-0.5399,-0.0416,-0.2262,-0.4809,
12.367988,-0.0227,-1.0051,-0.2125,6.9233,-0.4699,-0.5399,-0.0416,-0.2262,-0.4809,
12.369427,-0.2753,-1.2560,-0.2338,6.9233,-0.4699,-0.5399,-0.0416,-0.2262,-0.4809,
12.417900,-0.2753,-1.2560,-0.2338,6.9233,-0.4699,-0.5399,0.6694,-0.6281,0.6028,
12.421998,-0.2753,-1.2560,-0.2338,4.9524,-6.7380,0.2781,0.6694,-0.6281,0.6028,
12.427423,-0.5111,-1.3176,-0.2568,4.9524,-6.7380,0.2781,0.6694,-0.6281,0.6028,
12.430090,-0.6120,-1.1773,-0.2399,4.9524,-6.7380,0.2781,0.6694,-0.6281,0.6028,
12.431985,-0.5847,-0.9797,-0.2279,4.9524,-6.7380,0.2781,0.6694,-0.6281,0.6028,
12.478461,-0.5847,-0.9797,-0.2279,4.9524,-6.7380,0.2781,0.4782,-0.1449,-0.7992,
12.481594,-0.5847,-0.9797,-0.2279,1.9403,-3.8892,-0.0620,0.4782,-0.1449,-0.7992,
12.485287,-0.4146,-0.8546,-0.1920,1.9403,-3.8892,-0.0620,0.4782,-0.1449,-0.7992,
12.487213,-0.2849,-0.8282,-0.1290,1.9403,-3.8892,-0.0620,0.4782,-0.1449,-0.7992,
12.488638,-0.2284,-0.8241,-0.1248,1.9403,-3.8892,-0.0620,0.4782,-0.1449,-0.7992,
12.538414,-0.2284,-0.8241,-0.1248,1.9403,-3.8892,-0.0620,-0.0416,-0.6275,-0.4070,
12.541174,-0.2284,-0.8241,-0.1248,5.2146,-2.0064,0.7210,-0.0416,-0.6275,-0.4070,
12.553636,-0.2145,-0.7806,-0.1427,5.2146,-2.0064,0.7210,-0.0416,-0.6275,-0.4070,
12.555799,-0.1776,-0.7735,-0.1371,5.2146,-2.0064,0.7210,-0.0416,-0.6275,-0.4070,
12.557737,-0.1586,-0.8167,-0.0958,5.2146,-2.0064,0.7210,-0.0416,-0.6275,-0.4070,
12.598622,-0.1586,-0.8167,-0.0958,5.2146,-2.0064,0.7210,-0.1241,-0.6403,-0.2604,
12.601111,-0.1586,-0.8167,-0.0958,5.8249,-1.7640,0.7300,-0.1241,-0.6403,-0.2604,
12.605236,-0.1693,-0.8475,-0.0858,5.8249,-1.7640,0.7300,-0.1241,-0.6403,-0.2604,
12.606896,-0.1908,-0.8607,-0.0838,5.8249,-1.7640,0.7300,-0.1241,-0.6403,-0.2604,
12.608395,-0.2272,-0.8644,-0.0713,5.8249,-1.7640,0.7300,-0.1241,-0.6403,-0.2604,
12.659069,-0.2272,-0.8644,-0.0713,5.8249,-1.7640,0.7300,0.1404,-0.6727,0.0231,
12.662544,-0.2272,-0.8644,-0.0713,5.1451,-2.1660,0.7415,0.1404,-0.6727,0.0231,
12.665610,-0.2519,-0.8666,-0.0442,5.1451,-2.1660,0.7415,0.1404,-0.6727,0.0231,
12.667630,-0.2609,-0.8749,0.0049,5.1451,-2.1660,0.7415,0.1404,-0.6727,0.0231,
12.670038,-0.2612,-0.8856,0.0364,5.1451,-2.1660,0.7415,0.1404,-0.6727,0.0231,
12.718125,-0.2612,-0.8856,0.0364,5.1451,-2.1660,0.7415,-0.0996,-0.8645,-0.0081,
12.722919,-0.2612,-0.8856,0.0364,4.8409,-2.3290,1.3957,-0.0996,-0.8645,-0.0081,
12.726052,-0.2514,-0.8927,0.0166,4.8409,-2.3290,1.3957,-0.0996,-0.8645,-0.0081,
12.727506,-0.2284,-0.9008,-0.0682,4.8409,-2.3290,1.3957,-0.0996,-0.8645,-0.0081,
12.729124,-0.1798,-0.9440,-0.1415,4.8409,-2.3290,1.3957,-0.0996,-0.8645,-0.0081,
12.778746,-0.1798,-0.9440,-0.1415,4.8409,-2.3290,1.3957,-0.0068,-0.4956,-0.2042,
12.781715,-0.1798,-0.9440,-0.1415,5.6196,-2.8409,-0.6220,-0.0068,-0.4956,-0.2042,
12.785255,-0.1632,-1.0535,-0.0926,5.6196,-2.8409,-0.6220,-0.0068,-0.4956,-0.2042,
12.787293,-0.1810,-1.1747,-0.0313,5.6196,-2.8409,-0.6220,-0.0068,-0.4956,-0.2042,
12.788903,-0.2736,-1.1654,-0.0056,5.6196,-2.8409,-0.6220,-0.0068,-0.4956,-0.2042,
12.838773,-0.2736,-1.1654,-0.0056,5.6196,-2.8409,-0.6220,0.0488,-1.0905,0.1611,
12.841803,-0.2736,-1.1654,-0.0056,4.6892,-4.9684,0.4048,0.0488,-1.0905,0.1611,
12.845129,-0.3450,-1.0584,0.0559,4.6892,-4.9684,0.4048,0.0488,-1.0905,0.1611,
12.846963,-0.3691,-0.9856,0.1769,4.6892,-4.9684,0.4048,0.0488,-1.0905,0.1611,
12.849027,-0.3870,-0.9680,0.2289,4.6892,-4.9684,0.4048,0.0488,-1.0905,0.1611,
12.859449,-0.3142,-1.2128,0.1136,4.6892,-4.9684,0.4048,0.0488,-1.0905,0.1611,
12.897293,-0.3142,-1.2128,0.1136,4.6892,-4.9684,0.4048,-0.8156,-0.4876,-0.8230,
12.899816,-0.3142,-1.2128,0.1136,4.2723,-5.3945,1.1311,-0.8156,-0.4876,-0.8230,
12.917306,-0.4058,-1.3464,-0.1131,4.2723,-5.3945,1.1311,-0.8156,-0.4876,-0.8230,
12.920837,-0.2712,-1.0899,-0.1102,4.2723,-5.3945,1.1311,-0.8156,-0.4876,-0.8230,
12.922278,-0.0589,-0.9795,-0.1268,4.2723,-5.3945,1.1311,-0.8156,-0.4876,-0.8230,
12.958408,-0.0589,-0.9795,-0.1268,4.2723,-5.3945,1.1311,-0.0080,-0.6623,-0.1950,
12.961150,-0.0589,-0.9795,-0.1268,6.5236,-2.8347,-1.2255,-0.0080,-0.6623,-0.1950,
12.977089,-0.0496,-1.0325,-0.1952,6.5236,-2.8347,-1.2255,-0.0080,-0.6623,-0.1950,
12.978415,-0.1195,-1.0093,-0.1820,6.5236,-2.8347,-1.2255,-0.0080,-0.6623,-0.1950,
12.979522,-0.1366,-0.9496,-0.2240,6.5236,-2.8347,-1.2255,-0.0080,-0.6623,-0.1950,
13.017250,-0.1366,-0.9496,-0.2240,6.5236,-2.8347,-1.2255,-0.5859,-1.1101,0.0677,
13.019151,-0.1366,-0.9496,-0.2240,5.6885,-2.4701,-2.4327,-0.5859,-1.1101,0.0677,
13.036528,-0.1732,-0.8295,-0.3132,5.6885,-2.4701,-2.4327,-0.5859,-1.1101,0.0677,
13.038505,-0.2976,-0.7085,-0.3208,5.6885,-2.4701,-2.4327,-0.5859,-1.1101,0.0677,
13.039816,-0.4021,-0.6528,-0.3486,5.6885,-2.4701,-2.4327,-0.5859,-1.1101,0.0677,
13.077365,-0.4021,-0.6528,-0.3486,5.6885,-2.4701,-2.4327,-0.4857,-0.5389,-0.3642,
13.079478,-0.4021,-0.6528,-0.3486,3.0656,0.4503,-3.8474,-0.4857,-0.5389,-0.3642,
13.107118,-0.4649,-0.7640,-0.3660,3.0656,0.4503,-3.8474,-0.4857,-0.5389,-0.3642,
13.109542,-0.3706,-0.9941,-0.3498,3.0656,0.4503,-3.8474,-0.4857,-0.5389,-0.3642,
13.111044,-0.2761,-1.0938,-0.2384,3.0656,0.4503,-3.8474,-0.4857,-0.5389,-0.3642,
13.138756,-0.2761,-1.0938,-0.2384,3.0656,0.4503,-3.8474,-0.1210,-0.6819,0.1043,
13.140929,-0.2761,-1.0938,-0.2384,4.0764,-3.6537,-2.8428,-0.1210,-0.6819,0.1043,
13.156953,-0.2577,-1.1109,-0.1683,4.0764,-3.6537,-2.8428,-0.1210,-0.6819,0.1043,
13.159255,-0.2824,-1.0762,-0.2130,4.0764,-3.6537,-2.8428,-0.1210,-0.6819,0.1043,
13.161278,-0.2822,-0.9753,-0.2362,4.0764,-3.6537,-2.8428,-0.1210,-0.6819,0.1043,
13.197785,-0.2822,-0.9753,-0.2362,4.0764,-3.6537,-2.8428,-0.0563,-0.6220,0.7555,
13.199982,-0.2822,-0.9753,-0.2362,4.2596,-2.7504,-3.0062,-0.0563,-0.6220,0.7555,
13.216672,-0.2597,-0.9189,-0.2384,4.2596,-2.7504,-3.0062,-0.0563,-0.6220,0.7555,
13.218710,-0.2201,-0.8678,-0.2199,4.2596,-2.7504,-3.0062,-0.0563,-0.6220,0.7555,
13.221197,-0.1759,-0.7972,-0.1888,4.2596,-2.7504,-3.0062,-0.0563,-0.6220,0.7555,
13.257504,-0.1759,-0.7972,-0.1888,4.2596,-2.7504,-3.0062,-0.2420,-0.0386,0.2185,
13.260099,-0.1759,-0.7972,-0.1888,5.4606,-1.1822,-2.6195,-0.2420,-0.0386,0.2185,
13.277159,-0.1695,-0.7718,-0.1879,5.4606,-1.1822,-2.6195,-0.2420,-0.0386,0.2185,
13.279487,-0.2375,-0.7999,-0.1625,5.4606,-1.1822,-2.6195,-0.2420,-0.0386,0.2185,
13.281003,-0.3213,-0.8417,-0.1248,5.4606,-1.1822,-2.6195,-0.2420,-0.0386,0.2185,
13.317407,-0.3213,-0.8417,-0.1248,5.4606,-1.1822,-2.6195,-0.0856,0.2069,0.0102,
13.319356,-0.3213,-0.8417,-0.1248,4.0607,-1.6319,-1.8728,-0.0856,0.2069,0.0102,
13.336728,-0.3562,-0.9321,-0.0818,4.0607,-1.6319,-1.8728,-0.0856,0.2069,0.0102,
13.338767,-0.3528,-1.0454,-0.0577,4.0607,-1.6319,-1.8728,-0.0856,0.2069,0.0102,
13.340059,-0.3232,-1.0960,-0.0716,4.0607,-1.6319,-1.8728,-0.0856,0.2069,0.0102,
13.377654,-0.3232,-1.0960,-0.0716,4.0607,-1.6319,-1.8728,0.6328,0.3682,0.3273,
13.379815,-0.3232,-1.0960,-0.0716,4.0802,-4.1627,-1.3104,0.6328,0.3682,0.3273,
13.397139,-0.2841,-1.0735,-0.0621,4.0802,-4.1627,-1.3104,0.6328,0.3682,0.3273,
13.399485,-0.2670,-1.0205,-0.0657,4.0802,-4.1627,-1.3104,0.6328,0.3682,0.3273,
13.401173,-0.2824,-0.9594,-0.1038,4.0802,-4.1627,-1.3104,0.6328,0.3682,0.3273,
13.438548,-0.2824,-0.9594,-0.1038,4.0802,-4.1627,-1.3104,0.6200,0.7396,0.1116,
13.441352,-0.2824,-0.9594,-0.1038,4.5832,-2.9418,-1.6468,0.6200,0.7396,0.1116,
13.457128,-0.3042,-0.8671,-0.1544,4.5832,-2.9418,-1.6468,0.6200,0.7396,0.1116,
13.459329,-0.3345,-0.8233,-0.1309,4.5832,-2.9418,-1.6468,0.6200,0.7396,0.1116,
13.460407,-0.4060,-0.8314,-0.0662,4.5832,-2.9418,-1.6468,0.6200,0.7396,0.1116,
13.497959,-0.4060,-0.8314,-0.0662,4.5832,-2.9418,-1.6468,0.3854,0.9485,-0.0356,
13.500507,-0.4060,-0.8314,-0.0662,3.3804,-1.6844,-1.1304,0.3854,0.9485,-0.0356,
13.516787,-0.4898,-0.8610,-0.0266,3.3804,-1.6844,-1.1304,0.3854,0.9485,-0.0356,
13.519407,-0.5260,-0.8993,-0.0056,3.3804,-1.6844,-1.1304,0.3854,0.9485,-0.0356,
13.521481,-0.4874,-0.8781,-0.0098,3.3804,-1.6844,-1.1304,0.3854,0.9485,-0.0356,
13.560877,-0.4874,-0.8781,-0.0098,3.3804,-1.6844,-1.1304,-0.1882,1.0957,-0.2585,
13.564088,-0.4874,-0.8781,-0.0098,2.5639,-2.1022,-0.1432,-0.1882,1.0957,-0.2585,
13.576902,-0.3633,-0.9071,-0.2350,2.5639,-2.1022,-0.1432,-0.1882,1.0957,-0.2585,
13.579452,-0.3828,-1.2934,-0.0997,2.5639,-2.1022,-0.1432,-0.1882,1.0957,-0.2585,
13.581359,-0.3247,-1.2668,-0.2003,2.5639,-2.1022,-0.1432,-0.1882,1.0957,-0.2585,
13.617624,-0.3247,-1.2668,-0.2003,2.5639,-2.1022,-0.1432,0.2143,1.1299,0.5154,
13.620683,-0.3247,-1.2668,-0.2003,4.1676,-5.9392,-1.4848,0.2143,1.1299,0.5154,
13.637828,-0.3178,-1.0896,-0.2306,4.1676,-5.9392,-1.4848,0.2143,1.1299,0.5154,
13.640660,-0.3303,-1.0093,-0.1546,4.1676,-5.9392,-1.4848,0.2143,1.1299,0.5154,
13.642576,-0.3266,-0.9897,-0.2008,4.1676,-5.9392,-1.4848,0.2143,1.1299,0.5154,
13.678428,-0.3266,-0.9897,-0.2008,4.1676,-5.9392,-1.4848,-0.0227,1.2002,0.1263,
13.681970,-0.3266,-0.9897,-0.2008,4.2103,-3.3477,-1.0198,-0.0227,1.2002,0.1263,
13.697830,-0.3137,-0.9711,-0.2526,4.2103,-3.3477,-1.0198,-0.0227,1.2002,0.1263,
13.702813,-0.2384,-0.9233,-0.2917,4.2103,-3.3477,-1.0198,-0.0227,1.2002,0.1263,
13.704934,-0.1769,-0.9025,-0.3147,4.2103,-3.3477,-1.0198,-0.0227,1.2002,0.1263,
13.737246,-0.1769,-0.9025,-0.3147,4.2103,-3.3477,-1.0198,-0.0599,1.4855,0.0640,
13.739653,-0.1769,-0.9025,-0.3147,5.5964,-2.5149,-1.5408,-0.0599,1.4855,0.0640,
13.757179,-0.1075,-0.8903,-0.3425,5.5964,-2.5149,-1.5408,-0.0599,1.4855,0.0640,
13.760136,-0.0337,-0.8942,-0.3550,5.5964,-2.5149,-1.5408,-0.0599,1.4855,0.0640,
13.761712,0.0591,-0.9062,-0.3347,5.5964,-2.5149,-1.5408,-0.0599,1.4855,0.0640,
13.797953,0.0591,-0.9062,-0.3347,5.5964,-2.5149,-1.5408,0.1673,1.4855,-0.0985,
13.800855,0.0591,-0.9062,-0.3347,7.7050,-2.5201,-1.0569,0.1673,1.4855,-0.0985,
13.820156,0.1031,-0.9477,-0.3015,7.7050,-2.5201,-1.0569,0.1673,1.4855,-0.0985,
13.822787,0.0599,-1.0176,-0.2687,7.7050,-2.5201,-1.0569,0.1673,1.4855,-0.0985,
13.825306,-0.0450,-1.0975,-0.2348,7.7050,-2.5201,-1.0569,0.1673,1.4855,-0.0985,
13.858031,-0.0450,-1.0975,-0.2348,7.7050,-2.5201,-1.0569,0.7635,1.3780,0.4049,
13.861056,-0.0450,-1.0975,-0.2348,6.5108,-4.3668,0.3524,0.7635,1.3780,0.4049,
13.878725,-0.1495,-1.1321,-0.1964,6.5108,-4.3668,0.3524,0.7635,1.3780,0.4049,
13.881234,-0.2463,-1.1260,-0.2231,6.5108,-4.3668,0.3524,0.7635,1.3780,0.4049,
13.882941,-0.2961,-1.0454,-0.2399,6.5108,-4.3668,0.3524,0.7635,1.3780,0.4049,
13.918540,-0.2961,-1.0454,-0.2399,6.5108,-4.3668,0.3524,0.7317,2.0438,0.0145,
13.921265,-0.2961,-1.0454,-0.2399,3.8261,-3.7852,0.6780,0.7317,2.0438,0.0145,
13.936859,-0.2797,-0.9128,-0.2392,3.8261,-3.7852,0.6780,0.7317,2.0438,0.0145,
13.939395,-0.2042,-0.8583,-0.1903,3.8261,-3.7852,0.6780,0.7317,2.0438,0.0145,
13.941477,-0.1339,-0.9081,-0.1373,3.8261,-3.7852,0.6780,0.7317,2.0438,0.0145,
13.977406,-0.1339,-0.9081,-0.1373,3.8261,-3.7852,0.6780,0.2999,2.0811,0.1013,
13.980034,-0.1339,-0.9081,-0.1373,4.9806,-2.3193,2.2977,0.2999,2.0811,0.1013,
13.997143,-0.1055,-0.9457,-0.1412,4.9806,-2.3193,2.2977,0.2999,2.0811,0.1013,
13.999704,-0.1099,-0.9264,-0.1424,4.9806,-2.3193,2.2977,0.2999,2.0811,0.1013,
14.001730,-0.1600,-0.9159,-0.1041,4.9806,-2.3193,2.2977,0.2999,2.0811,0.1013,
14.038495,-0.1600,-0.9159,-0.1041,4.9806,-2.3193,2.2977,0.4788,1.6590,0.2674,
14.041930,-0.1600,-0.9159,-0.1041,4.3418,-2.3483,3.1409,0.4788,1.6590,0.2674,
14.057026,-0.2165,-0.9262,-0.0872,4.3418,-2.3483,3.1409,0.4788,1.6590,0.2674,
14.059499,-0.2485,-0.9523,-0.1029,4.3418,-2.3483,3.1409,0.4788,1.6590,0.2674,
14.061250,-0.2438,-0.9658,-0.1094,4.3418,-2.3483,3.1409,0.4788,1.6590,0.2674,
14.099353,-0.2438,-0.9658,-0.1094,4.3418,-2.3483,3.1409,0.3579,1.6846,0.2179,
14.102739,-0.2438,-0.9658,-0.1094,3.1579,-2.7866,3.4883,0.3579,1.6846,0.2179,
14.120543,-0.2057,-0.9562,-0.1212,3.1579,-2.7866,3.4883,0.3579,1.6846,0.2179,
14.124209,-0.1534,-0.9431,-0.1226,3.1579,-2.7866,3.4883,0.3579,1.6846,0.2179,
14.126222,-0.1327,-0.9501,-0.1200,3.1579,-2.7866,3.4883,0.3579,1.6846,0.2179,
14.157958,-0.1327,-0.9501,-0.1200,3.1579,-2.7866,3.4883,0.3054,1.3975,0.4995,
14.161330,-0.1327,-0.9501,-0.1200,3.9128,-2.6100,3.7323,0.3054,1.3975,0.4995,
14.177414,-0.1351,-0.9682,-0.1182,3.9128,-2.6100,3.7323,0.3054,1.3975,0.4995,
14.180107,-0.1908,-0.9834,-0.0921,3.9128,-2.6100,3.7323,0.3054,1.3975,0.4995,
14.181661,-0.2575,-0.9909,-0.0533,3.9128,-2.6100,3.7323,0.3054,1.3975,0.4995,
14.217837,-0.2575,-0.9909,-0.0533,3.9128,-2.6100,3.7323,0.5137,1.2711,0.5869,
14.221438,-0.2575,-0.9909,-0.0533,2.5191,-3.0482,4.6110,0.5137,1.2711,0.5869,
14.238185,-0.2680,-1.0083,-0.0518,2.5191,-3.0482,4.6110,0.5137,1.2711,0.5869,
14.241136,-0.2436,-1.0149,-0.0589,2.5191,-3.0482,4.6110,0.5137,1.2711,0.5869,
14.243347,-0.2602,-0.9956,-0.0266,2.5191,-3.0482,4.6110,0.5137,1.2711,0.5869,
14.278674,-0.2602,-0.9956,-0.0266,2.5191,-3.0482,4.6110,0.4190,0.9119,0.4482,
14.281470,-0.2602,-0.9956,-0.0266,2.3296,-3.0748,5.0034,0.4190,0.9119,0.4482,
14.297481,-0.2949,-0.9638,0.0264,2.3296,-3.0748,5.0034,0.4190,0.9119,0.4482,
14.299994,-0.2822,-0.9260,0.0193,2.3296,-3.0748,5.0034,0.4190,0.9119,0.4482,
14.301579,-0.2663,-0.9125,0.0298,2.3296,-3.0748,5.0034,0.4190,0.9119,0.4482,
14.338488,-0.2663,-0.9125,0.0298,2.3296,-3.0748,5.0034,0.1038,0.3517,-0.0209,
14.341624,-0.2663,-0.9125,0.0298,2.1648,-2.2314,5.6151,0.1038,0.3517,-0.0209,
14.358006,-0.2372,-0.9628,0.0310,2.1648,-2.2314,5.6151,0.1038,0.3517,-0.0209,
14.360452,-0.1998,-1.1930,-0.0916,2.1648,-2.2314,5.6151,0.1038,0.3517,-0.0209,
14.362419,-0.1373,-1.3633,-0.2086,2.1648,-2.2314,5.6151,0.1038,0.3517,-0.0209,
14.397629,-0.1373,-1.3633,-0.2086,2.1648,-2.2314,5.6151,0.3842,0.7744,0.0854,
14.400263,-0.1373,-1.3633,-0.2086,3.0856,-6.5315,3.4242,0.3842,0.7744,0.0854,
14.418092,-0.0953,-1.1835,-0.1085,3.0856,-6.5315,3.4242,0.3842,0.7744,0.0854,
14.421602,-0.0723,-0.9624,-0.0621,3.0856,-6.5315,3.4242,0.3842,0.7744,0.0854,
14.423168,-0.1378,-0.9125,-0.0704,3.0856,-6.5315,3.4242,0.3842,0.7744,0.0854,
14.458950,-0.1378,-0.9125,-0.0704,3.0856,-6.5315,3.4242,0.3817,0.5344,0.3291,
14.462739,-0.1378,-0.9125,-0.0704,3.0778,-1.9972,4.6324,0.3817,0.5344,0.3291,
14.476969,-0.1954,-0.9150,-0.0945,3.0778,-1.9972,4.6324,0.3817,0.5344,0.3291,
14.479511,-0.1622,-0.8800,-0.1698,3.0778,-1.9972,4.6324,0.3817,0.5344,0.3291,
14.481264,-0.0980,-0.8209,-0.2233,3.0778,-1.9972,4.6324,0.3817,0.5344,0.3291,
14.517717,-0.0980,-0.8209,-0.2233,3.0778,-1.9972,4.6324,-0.0954,0.7928,0.0976,
14.520788,-0.0980,-0.8209,-0.2233,3.3002,-1.0925,3.2600,-0.0954,0.7928,0.0976,
14.539341,-0.0657,-0.8133,-0.2714,3.3002,-1.0925,3.2600,-0.0954,0.7928,0.0976,
14.541941,-0.0906,-0.8693,-0.2919,3.3002,-1.0925,3.2600,-0.0954,0.7928,0.0976,
14.543844,-0.2128,-1.0046,-0.3037,3.3002,-1.0925,3.2600,-0.0954,0.7928,0.0976,
14.579144,-0.2128,-1.0046,-0.3037,3.3002,-1.0925,3.2600,0.3206,1.0444,0.1226,
14.584872,-0.2128,-1.0046,-0.3037,1.9142,-2.8770,2.6468,0.3206,1.0444,0.1226,
14.597244,-0.3208,-1.1243,-0.3152,1.9142,-2.8770,2.6468,0.3206,1.0444,0.1226,
14.599738,-0.3359,-1.1424,-0.2897,1.9142,-2.8770,2.6468,0.3206,1.0444,0.1226,
14.601587,-0.2763,-1.0992,-0.2397,1.9142,-2.8770,2.6468,0.3206,1.0444,0.1226,
14.639186,-0.2763,-1.0992,-0.2397,1.9142,-2.8770,2.6468,0.6859,1.5117,0.9510,
14.642155,-0.2763,-1.0992,-0.2397,1.0579,-3.6932,3.2978,0.6859,1.5117,0.9510,
14.657530,-0.2074,-1.0034,-0.2226,1.0579,-3.6932,3.2978,0.6859,1.5117,0.9510,
14.661509,-0.2057,-0.9110,-0.2643,1.0579,-3.6932,3.2978,0.6859,1.5117,0.9510,
14.663534,-0.2309,-0.8651,-0.2695,1.0579,-3.6932,3.2978,0.6859,1.5117,0.9510,
14.698708,-0.2309,-0.8651,-0.2695,1.0579,-3.6932,3.2978,0.4068,1.7445,0.7488,
14.701629,-0.2309,-0.8651,-0.2695,1.3790,-1.4320,3.1265,0.4068,1.7445,0.7488,
14.717611,-0.2270,-0.8446,-0.2634,1.3790,-1.4320,3.1265,0.4068,1.7445,0.7488,
14.720591,-0.2089,-0.8365,-0.2573,1.3790,-1.4320,3.1265,0.4068,1.7445,0.7488,
14.722224,-0.2179,-0.8488,-0.2384,1.3790,-1.4320,3.1265,0.4068,1.7445,0.7488,
14.759216,-0.2179,-0.8488,-0.2384,1.3790,-1.4320,3.1265,0.2632,1.8386,0.4696,
14.761819,-0.2179,-0.8488,-0.2384,1.0661,-1.2300,3.6367,0.2632,1.8386,0.4696,
14.777163,-0.2800,-0.8815,-0.2135,1.0661,-1.2300,3.6367,0.2632,1.8386,0.4696,
14.779553,-0.3848,-0.9323,-0.2052,1.0661,-1.2300,3.6367,0.2632,1.8386,0.4696,
14.781440,-0.4688,-0.9863,-0.2343,1.0661,-1.2300,3.6367,0.2632,1.8386,0.4696,
14.822310,-0.4688,-0.9863,-0.2343,1.0661,-1.2300,3.6367,0.4923,1.7121,0.8050,
14.825265,-0.4688,-0.9863,-0.2343,-1.7642,-2.5639,3.8460,0.4923,1.7121,0.8050,
14.849007,-0.5016,-0.9861,-0.2145,-1.7642,-2.5639,3.8460,0.4923,1.7121,0.8050,
14.852870,-0.5101,-0.9455,-0.1588,-1.7642,-2.5639,3.8460,0.4923,1.7121,0.8050,
14.854937,-0.5009,-0.8935,-0.1224,-1.7642,-2.5639,3.8460,0.4923,1.7121,0.8050,
14.878151,-0.5009,-0.8935,-0.1224,-1.7642,-2.5639,3.8460,0.4843,1.1929,0.5912,
14.881399,-0.5009,-0.8935,-0.1224,-2.3066,-1.5599,4.9339,0.4843,1.1929,0.5912,
14.898905,-0.4713,-0.8549,-0.1141,-2.3066,-1.5599,4.9339,0.4843,1.1929,0.5912,
14.902220,-0.4698,-0.8502,-0.0831,-2.3066,-1.5599,4.9339,0.4843,1.1929,0.5912,
14.904663,-0.4744,-0.8646,-0.0708,-2.3066,-1.5599,4.9339,0.4843,1.1929,0.5912,
14.938227,-0.4744,-0.8646,-0.0708,-2.3066,-1.5599,4.9339,0.5118,0.9186,0.1575,
14.941308,-0.4744,-0.8646,-0.0708,-2.2485,-1.1344,5.3509,0.5118,0.9186,0.1575,
14.957227,-0.4784,-0.8776,-0.1007,-2.2485,-1.1344,5.3509,0.5118,0.9186,0.1575,
14.959802,-0.4622,-0.8681,-0.1138,-2.2485,-1.1344,5.3509,0.5118,0.9186,0.1575,
14.962566,-0.4275,-0.8754,-0.0909,-2.2485,-1.1344,5.3509,0.5118,0.9186,0.1575,
14.998375,-0.4275,-0.8754,-0.0909,-2.2485,-1.1344,5.3509,0.5271,0.8990,-0.1327,
15.001436,-0.4275,-0.8754,-0.0909,-2.0839,-1.0470,5.0261,0.5271,0.8990,-0.1327,
15.017232,-0.3965,-0.9269,-0.0674,-2.0839,-1.0470,5.0261,0.5271,0.8990,-0.1327,
15.020678,-0.3840,-0.9817,-0.0569,-2.0839,-1.0470,5.0261,0.5271,0.8990,-0.1327,
15.022306,-0.3858,-0.9975,-0.0445,-2.0839,-1.0470,5.0261,0.5271,0.8990,-0.1327,
15.057823,-0.3858,-0.9975,-0.0445,-2.0839,-1.0470,5.0261,0.5167,1.0066,-0.0246,
15.061075,-0.3858,-0.9975,-0.0445,-2.0349,-2.0372,5.3294,0.5167,1.0066,-0.0246,
15.077447,-0.3926,-0.9802,-0.0320,-2.0349,-2.0372,5.3294,0.5167,1.0066,-0.0246,
15.080739,-0.4002,-0.9477,-0.0151,-2.0349,-2.0372,5.3294,0.5167,1.0066,-0.0246,
15.082297,-0.4197,-0.9128,0.0105,-2.0349,-2.0372,5.3294,0.5167,1.0066,-0.0246,
15.117723,-0.4197,-0.9128,0.0105,-2.0349,-2.0372,5.3294,0.2846,1.0463,-0.1407,
15.121020,-0.4197,-0.9128,0.0105,-2.7269,-1.0193,5.7092,0.2846,1.0463,-0.1407,
15.137099,-0.4322,-0.8808,0.0139,-2.7269,-1.0193,5.7092,0.2846,1.0463,-0.1407,
15.139744,-0.4994,-0.8615,-0.2502,-2.7269,-1.0193,5.7092,0.2846,1.0463,-0.1407,
15.141792,-0.5387,-1.1475,-0.1632,-2.7269,-1.0193,5.7092,0.2846,1.0463,-0.1407,
15.178904,-0.5387,-1.1475,-0.1632,-2.7269,-1.0193,5.7092,0.3438,0.8807,0.0615,
15.183175,-0.5387,-1.1475,-0.1632,-4.2453,-3.2778,4.0230,0.3438,0.8807,0.0615,
15.197298,-0.5263,-1.2658,-0.1266,-4.2453,-3.2778,4.0230,0.3438,0.8807,0.0615,
15.201003,-0.4420,-1.0935,-0.2099,-4.2453,-3.2778,4.0230,0.3438,0.8807,0.0615,
15.202726,-0.4390,-0.9489,-0.2582,-4.2453,-3.2778,4.0230,0.3438,0.8807,0.0615,
15.238102,-0.4390,-0.9489,-0.2582,-4.2453,-3.2778,4.0230,-0.1613,0.6535,0.1391,
15.240975,-0.4390,-0.9489,-0.2582,-3.4087,-1.2707,3.0291,-0.1613,0.6535,0.1391,
15.257805,-0.4529,-0.8666,-0.3496,-3.4087,-1.2707,3.0291,-0.1613,0.6535,0.1391,
15.261241,-0.4202,-0.7796,-0.4637,-3.4087,-1.2707,3.0291,-0.1613,0.6535,0.1391,
15.264099,-0.2336,-0.7337,-0.4371,-3.4087,-1.2707,3.0291,-0.1613,0.6535,0.1391,
15.301467,-0.2336,-0.7337,-0.4371,-3.4087,-1.2707,3.0291,0.2577,0.8593,-0.5108,
15.304152,-0.2336,-0.7337,-0.4371,-1.7022,0.8085,1.3603,0.2577,0.8593,-0.5108,
15.317520,0.0166,-0.7415,-0.3156,-1.7022,0.8085,1.3603,0.2577,0.8593,-0.5108,
15.321871,0.1747,-0.8593,-0.1832,-1.7022,0.8085,1.3603,0.2577,0.8593,-0.5108,
15.323308,0.0344,-1.1243,-0.1942,-1.7022,0.8085,1.3603,0.2577,0.8593,-0.5108,
15.358845,0.0344,-1.1243,-0.1942,-1.7022,0.8085,1.3603,0.2296,-0.2476,0.4665,
15.362516,0.0344,-1.1243,-0.1942,0.6392,-2.9167,3.6140,0.2296,-0.2476,0.4665,
15.383640,-0.2697,-1.2861,-0.2133,0.6392,-2.9167,3.6140,0.2296,-0.2476,0.4665,
15.385824,-0.4681,-1.1681,-0.2250,0.6392,-2.9167,3.6140,0.2296,-0.2476,0.4665,
15.387599,-0.5368,-1.0139,-0.2575,0.6392,-2.9167,3.6140,0.2296,-0.2476,0.4665,
15.417488,-0.5368,-1.0139,-0.2575,0.6392,-2.9167,3.6140,1.1398,0.5423,-0.1248,
15.419823,-0.5368,-1.0139,-0.2575,-4.7139,-1.6152,2.6372,1.1398,0.5423,-0.1248,
15.437588,-0.4016,-0.8597,-0.2050,-4.7139,-1.6152,2.6372,1.1398,0.5423,-0.1248,
15.440018,-0.2621,-0.8312,-0.1471,-4.7139,-1.6152,2.6372,1.1398,0.5423,-0.1248,
15.441497,-0.2555,-0.8595,-0.1292,-4.7139,-1.6152,2.6372,1.1398,0.5423,-0.1248,
15.478584,-0.2555,-0.8595,-0.1292,-4.7139,-1.6152,2.6372,0.3243,0.2350,-0.3771,
15.481589,-0.2555,-0.8595,-0.1292,-2.3064,0.1678,3.4586,0.3243,0.2350,-0.3771,
15.504578,-0.2966,-0.8810,-0.1185,-2.3064,0.1678,3.4586,0.3243,0.2350,-0.3771,
15.508132,-0.3166,-0.8622,-0.1073,-2.3064,0.1678,3.4586,0.3243,0.2350,-0.3771,
15.510126,-0.2978,-0.8290,-0.1004,-2.3064,0.1678,3.4586,0.3243,0.2350,-0.3771,
15.538387,-0.2978,-0.8290,-0.1004,-2.3064,0.1678,3.4586,0.3023,-0.1987,-0.0728,
15.542489,-0.2978,-0.8290,-0.1004,-2.7975,0.5507,3.5884,0.3023,-0.1987,-0.0728,
15.568696,-0.2553,-0.7999,-0.0706,-2.7975,0.5507,3.5884,0.3023,-0.1987,-0.0728,
15.571052,-0.2389,-0.8314,-0.0523,-2.7975,0.5507,3.5884,0.3023,-0.1987,-0.0728,
15.572410,-0.2621,-0.8817,-0.0330,-2.7975,0.5507,3.5884,0.3023,-0.1987,-0.0728,
15.597569,-0.2621,-0.8817,-0.0330,-2.7975,0.5507,3.5884,0.0964,-0.1345,-0.2647,
15.599740,-0.2621,-0.8817,-0.0330,-2.4579,0.0957,4.1296,0.0964,-0.1345,-0.2647,
15.617165,-0.2634,-0.9162,-0.0127,-2.4579,0.0957,4.1296,0.0964,-0.1345,-0.2647,
15.618499,-0.2726,-0.9289,0.0090,-2.4579,0.0957,4.1296,0.0964,-0.1345,-0.2647,
15.619245,-0.2621,-0.9169,0.0435,-2.4579,0.0957,4.1296,0.0964,-0.1345,-0.2647,
15.657800,-0.2621,-0.9169,0.0435,-2.4579,0.0957,4.1296,0.2033,-0.7240,-0.0441,
15.661287,-0.2621,-0.9169,0.0435,-2.4344,-0.1908,4.7621,0.2033,-0.7240,-0.0441,
15.685038,-0.2526,-0.9035,0.0359,-2.4344,-0.1908,4.7621,0.2033,-0.7240,-0.0441,
15.687249,-0.2541,-0.8861,-0.0247,-2.4344,-0.1908,4.7621,0.2033,-0.7240,-0.0441,
15.689291,-0.2873,-0.8876,-0.0562,-2.4344,-0.1908,4.7621,0.2033,-0.7240,-0.0441,
15.717519,-0.2873,-0.8876,-0.0562,-2.4344,-0.1908,4.7621,-0.0587,-0.7845,0.0243,
15.720461,-0.2873,-0.8876,-0.0562,-2.4402,0.1209,3.7211,-0.0587,-0.7845,0.0243,
15.737162,-0.3115,-0.9477,-0.0601,-2.4402,0.1209,3.7211,-0.0587,-0.7845,0.0243,
15.739065,-0.3059,-1.0579,-0.0161,-2.4402,0.1209,3.7211,-0.0587,-0.7845,0.0243,
15.740346,-0.2726,-1.1119,0.0559,-2.4402,0.1209,3.7211,-0.0587,-0.7845,0.0243,
15.778282,-0.2726,-1.1119,0.0559,-2.4402,0.1209,3.7211,-0.0129,-0.6819,-0.2219,
15.781000,-0.2726,-1.1119,0.0559,-2.1841,-2.0634,4.7804,-0.0129,-0.6819,-0.2219,
15.803746,-0.2597,-1.1080,0.0926,-2.1841,-2.0634,4.7804,-0.0129,-0.6819,-0.2219,
15.806673,-0.3108,-1.0823,0.1424,-2.1841,-2.0634,4.7804,-0.0129,-0.6819,-0.2219,
15.809570,-0.3938,-1.0273,0.1898,-2.1841,-2.0634,4.7804,-0.0129,-0.6819,-0.2219,
15.838430,-0.3938,-1.0273,0.1898,-2.1841,-2.0634,4.7804,-0.2322,-1.1663,0.3163,
15.841601,-0.3938,-1.0273,0.1898,-3.0844,-1.2442,6.0688,-0.2322,-1.1663,0.3163,
15.857407,-0.4305,-0.9677,0.2204,-3.0844,-1.2442,6.0688,-0.2322,-1.1663,0.3163,
15.859341,-0.3662,-1.2433,0.0870,-3.0844,-1.2442,6.0688,-0.2322,-1.1663,0.3163,
15.860963,-0.4889,-1.2558,-0.1141,-3.0844,-1.2442,6.0688,-0.2322,-1.1663,0.3163,
15.899092,-0.4889,-1.2558,-0.1141,-3.0844,-1.2442,6.0688,-0.6195,-0.0783,-0.7979,
15.902339,-0.4889,-1.2558,-0.1141,-3.9682,-3.6260,3.3699,-0.6195,-0.0783,-0.7979,
15.917328,-0.2658,-0.9492,-0.0870,-3.9682,-3.6260,3.3699,-0.6195,-0.0783,-0.7979,
15.920211,0.0049,-0.9049,-0.2301,-3.9682,-3.6260,3.3699,-0.6195,-0.0783,-0.7979,
15.921893,0.0305,-1.0119,-0.3313,-3.9682,-3.6260,3.3699,-0.6195,-0.0783,-0.7979,
15.958055,0.0305,-1.0119,-0.3313,0.9310,-1.3386,1.4631,-0.6195,-0.0783,-0.7979,
15.961999,0.0305,-1.0119,-0.3313,0.9310,-1.3386,1.4631,-0.4839,-1.0527,-0.3648,
15.987373,-0.0701,-1.0198,-0.2358,0.9310,-1.3386,1.4631,-0.4839,-1.0527,-0.3648,
15.990032,-0.2157,-0.9325,-0.2954,0.9310,-1.3386,1.4631,-0.4839,-1.0527,-0.3648,
15.991634,-0.2822,-0.8400,-0.3801,0.9310,-1.3386,1.4631,-0.4839,-1.0527,-0.3648,
16.017849,-0.2822,-0.8400,-0.3801,0.9310,-1.3386,1.4631,-0.8156,-1.0148,0.1177,
16.019983,-0.2822,-0.8400,-0.3801,-1.8780,0.1443,1.2974,-0.8156,-1.0148,0.1177,
16.038737,-0.3496,-0.7185,-0.3990,-1.8780,0.1443,1.2974,-0.8156,-1.0148,0.1177,
16.041188,-0.4143,-0.6851,-0.4048,-1.8780,0.1443,1.2974,-0.8156,-1.0148,0.1177,
16.044977,-0.4082,-0.8209,-0.4349,-1.8780,0.1443,1.2974,-0.8156,-1.0148,0.1177,
16.077832,-0.4082,-0.8209,-0.4349,-1.8780,0.1443,1.2974,-0.6781,-0.5457,-0.4534,
16.081601,-0.4082,-0.8209,-0.4349,-2.9535,0.1131,1.0789,-0.6781,-0.5457,-0.4534,
16.097320,-0.3240,-0.9846,-0.4134,-2.9535,0.1131,1.0789,-0.6781,-0.5457,-0.4534,
16.100178,-0.2773,-1.0613,-0.2988,-2.9535,0.1131,1.0789,-0.6781,-0.5457,-0.4534,
16.102109,-0.2709,-1.0359,-0.2651,-2.9535,0.1131,1.0789,-0.6781,-0.5457,-0.4534,
16.138673,-0.2709,-1.0359,-0.2651,-2.9535,0.1131,1.0789,-0.5101,-0.9617,0.6907,
16.141550,-0.2709,-1.0359,-0.2651,-1.3221,-2.1723,2.9450,-0.5101,-0.9617,0.6907,
16.157625,-0.3025,-0.9577,-0.2707,-1.3221,-2.1723,2.9450,-0.5101,-0.9617,0.6907,
16.159925,-0.3144,-0.8949,-0.2702,-1.3221,-2.1723,2.9450,-0.5101,-0.9617,0.6907,
16.161909,-0.3132,-0.8654,-0.2514,-1.3221,-2.1723,2.9450,-0.5101,-0.9617,0.6907,
16.198122,-0.3132,-0.8654,-0.2514,-1.3221,-2.1723,2.9450,-0.3727,-0.8780,0.2082,
16.200702,-0.3132,-0.8654,-0.2514,-1.1267,-0.7031,3.1849,-0.3727,-0.8780,0.2082,
16.217278,-0.2939,-0.8500,-0.2238,-1.1267,-0.7031,3.1849,-0.3727,-0.8780,0.2082,
16.219416,-0.2465,-0.8138,-0.2194,-1.1267,-0.7031,3.1849,-0.3727,-0.8780,0.2082,
16.220854,-0.2502,-0.8167,-0.2143,-1.1267,-0.7031,3.1849,-0.3727,-0.8780,0.2082,
16.258289,-0.2502,-0.8167,-0.2143,-1.1267,-0.7031,3.1849,-0.4845,-0.8407,0.0505,
16.262388,-0.2502,-0.8167,-0.2143,-0.1902,-0.3689,3.6238,-0.4845,-0.8407,0.0505,
16.278385,-0.3064,-0.8319,-0.1837,-0.1902,-0.3689,3.6238,-0.4845,-0.8407,0.0505,
16.281205,-0.3647,-0.8656,-0.1568,-0.1902,-0.3689,3.6238,-0.4845,-0.8407,0.0505,
16.283622,-0.3840,-0.9137,-0.1419,-0.1902,-0.3689,3.6238,-0.4845,-0.8407,0.0505,
16.318409,-0.3840,-0.9137,-0.1419,-0.1902,-0.3689,3.6238,-0.1284,-0.6593,0.0622,
16.321142,-0.3840,-0.9137,-0.1419,-1.2012,-1.4375,4.3619,-0.1284,-0.6593,0.0622,
16.337204,-0.3804,-0.9514,-0.1368,-1.2012,-1.4375,4.3619,-0.1284,-0.6593,0.0622,
16.339993,-0.3626,-0.9704,-0.1353,-1.2012,-1.4375,4.3619,-0.1284,-0.6593,0.0622,
16.341903,-0.3574,-0.9709,-0.1278,-1.2012,-1.4375,4.3619,-0.1284,-0.6593,0.0622,
16.379085,-0.3574,-0.9709,-0.1278,-1.2012,-1.4375,4.3619,0.1783,-0.4210,0.0780,
16.382220,-0.3574,-0.9709,-0.1278,-0.6974,-2.0027,4.3930,0.1783,-0.4210,0.0780,
16.397072,-0.3484,-0.9377,-0.1322,-0.6974,-2.0027,4.3930,0.1783,-0.4210,0.0780,
16.399770,-0.3611,-0.9220,-0.1412,-0.6974,-2.0027,4.3930,0.1783,-0.4210,0.0780,
16.401719,-0.3669,-0.9396,-0.1466,-0.6974,-2.0027,4.3930,0.1783,-0.4210,0.0780,
16.438123,-0.3669,-0.9396,-0.1466,-0.6974,-2.0027,4.3930,0.3109,-0.1468,-0.1486,
16.441404,-0.3669,-0.9396,-0.1466,-0.6983,-1.5747,3.9948,0.3109,-0.1468,-0.1486,
16.457738,-0.3726,-0.9665,-0.1390,-0.6983,-1.5747,3.9948,0.3109,-0.1468,-0.1486,
16.461243,-0.3767,-0.9650,-0.1182,-0.6983,-1.5747,3.9948,0.3109,-0.1468,-0.1486,
16.462846,-0.4158,-0.9372,-0.1112,-0.6983,-1.5747,3.9948,0.3109,-0.1468,-0.1486,
16.499352,-0.4158,-0.9372,-0.1112,-0.6983,-1.5747,3.9948,0.0054,-0.0130,0.0805,
16.504524,-0.4158,-0.9372,-0.1112,-1.1811,-1.4790,4.2419,0.0054,-0.0130,0.0805,
16.517294,-0.4769,-0.9093,-0.0799,-1.1811,-1.4790,4.2419,0.0054,-0.0130,0.0805,
16.521273,-0.5035,-0.9079,-0.0291,-1.1811,-1.4790,4.2419,0.0054,-0.0130,0.0805,
16.522932,-0.4942,-0.9228,0.0420,-1.1811,-1.4790,4.2419,0.0054,-0.0130,0.0805,
16.558591,-0.4942,-0.9228,0.0420,-1.1811,-1.4790,4.2419,-0.3568,0.2063,-0.0716,
16.563178,-0.4942,-0.9228,0.0420,-1.9672,-1.3163,5.7214,-0.3568,0.2063,-0.0716,
16.579054,-0.4845,-0.9113,-0.0801,-1.9672,-1.3163,5.7214,-0.3568,0.2063,-0.0716,
16.581635,-0.5331,-0.9978,-0.1673,-1.9672,-1.3163,5.7214,-0.3568,0.2063,-0.0716,
16.583423,-0.6411,-1.1891,-0.1664,-1.9672,-1.3163,5.7214,-0.3568,0.2063,-0.0716,
16.618744,-0.6411,-1.1891,-0.1664,-1.9672,-1.3163,5.7214,-0.1094,0.1159,0.3144,
16.622260,-0.6411,-1.1891,-0.1664,-3.3636,-4.0385,3.8165,-0.1094,0.1159,0.3144,
16.637685,-0.5439,-1.0525,-0.1710,-3.3636,-4.0385,3.8165,-0.1094,0.1159,0.3144,
16.639587,-0.4578,-0.8922,-0.2570,-3.3636,-4.0385,3.8165,-0.1094,0.1159,0.3144,
16.640562,-0.4231,-0.8160,-0.3459,-3.3636,-4.0385,3.8165,-0.1094,0.1159,0.3144,
16.678484,-0.4231,-0.8160,-0.3459,-3.3636,-4.0385,3.8165,-0.4808,-0.0954,-0.1663,
16.682652,-0.4231,-0.8160,-0.3459,-1.1430,-0.5101,2.1860,-0.4808,-0.0954,-0.1663,
16.698141,-0.4402,-0.8700,-0.3657,-1.1430,-0.5101,2.1860,-0.4808,-0.0954,-0.1663,
16.700870,-0.3464,-0.8959,-0.4104,-1.1430,-0.5101,2.1860,-0.4808,-0.0954,-0.1663,
16.702844,-0.2113,-0.8893,-0.4737,-1.1430,-0.5101,2.1860,-0.4808,-0.0954,-0.1663,
16.739968,-0.2113,-0.8893,-0.4737,-1.1430,-0.5101,2.1860,-0.2310,-0.2133,-0.3496,
16.742898,-0.2113,-0.8893,-0.4737,0.8294,-1.2988,1.0808,-0.2310,-0.2133,-0.3496,
16.758002,-0.0684,-0.8087,-0.4747,0.8294,-1.2988,1.0808,-0.2310,-0.2133,-0.3496,
16.760641,0.0310,-0.7711,-0.3181,0.8294,-1.2988,1.0808,-0.2310,-0.2133,-0.3496,
16.762406,-0.0239,-0.9147,-0.2636,0.8294,-1.2988,1.0808,-0.2310,-0.2133,-0.3496,
16.797875,-0.0239,-0.9147,-0.2636,0.8294,-1.2988,1.0808,-0.1449,-0.8004,0.0695,
16.800154,-0.0239,-0.9147,-0.2636,2.6928,-1.5504,3.1294,-0.1449,-0.8004,0.0695,
16.817101,-0.2255,-1.1383,-0.2807,2.6928,-1.5504,3.1294,-0.1449,-0.8004,0.0695,
16.819987,-0.3858,-1.1893,-0.2880,2.6928,-1.5504,3.1294,-0.1449,-0.8004,0.0695,
16.821906,-0.4742,-1.1092,-0.2653,2.6928,-1.5504,3.1294,-0.1449,-0.8004,0.0695,
16.858816,-0.4742,-1.1092,-0.2653,2.6928,-1.5504,3.1294,0.7531,-0.5731,-0.2347,
16.861825,-0.4742,-1.1092,-0.2653,-1.4145,-3.3821,2.8451,0.7531,-0.5731,-0.2347,
16.891033,-0.4632,-1.0149,-0.2316,-1.4145,-3.3821,2.8451,0.7531,-0.5731,-0.2347,
16.894254,-0.3726,-0.9005,-0.2038,-1.4145,-3.3821,2.8451,0.7531,-0.5731,-0.2347,
16.896604,-0.3125,-0.8485,-0.1884,-1.4145,-3.3821,2.8451,0.7531,-0.5731,-0.2347,
16.917969,-0.3125,-0.8485,-0.1884,-1.4145,-3.3821,2.8451,0.0274,-0.5756,-0.4271,
16.921038,-0.3125,-0.8485,-0.1884,0.1322,-0.5637,3.2411,0.0274,-0.5756,-0.4271,
16.940654,-0.2919,-0.8531,-0.1537,0.1322,-0.5637,3.2411,0.0274,-0.5756,-0.4271,
16.942116,-0.2719,-0.8744,-0.1248,0.1322,-0.5637,3.2411,0.0274,-0.5756,-0.4271,
16.943226,-0.2409,-0.8727,-0.1204,0.1322,-0.5637,3.2411,0.0274,-0.5756,-0.4271,
16.978411,-0.2409,-0.8727,-0.1204,0.1322,-0.5637,3.2411,-0.0496,-0.5921,-0.4253,
16.982164,-0.2409,-0.8727,-0.1204,0.8358,-0.7403,3.8120,-0.0496,-0.5921,-0.4253,
16.998221,-0.2035,-0.8671,-0.1136,0.8358,-0.7403,3.8120,-0.0496,-0.5921,-0.4253,
17.000605,-0.1925,-0.8546,-0.1019,0.8358,-0.7403,3.8120,-0.0496,-0.5921,-0.4253,
17.002325,-0.2016,-0.8571,-0.0936,0.8358,-0.7403,3.8120,-0.0496,-0.5921,-0.4253,
17.038506,-0.2016,-0.8571,-0.0936,0.8358,-0.7403,3.8120,-0.0361,-0.3905,-0.2506,
17.041534,-0.2016,-0.8571,-0.0936,1.1825,-0.5009,3.9633,-0.0361,-0.3905,-0.2506,
17.058668,-0.2094,-0.8742,-0.0716,1.1825,-0.5009,3.9633,-0.0361,-0.3905,-0.2506,
17.061400,-0.2177,-0.8805,-0.0450,1.1825,-0.5009,3.9633,-0.0361,-0.3905,-0.2506,
17.063287,-0.2011,-0.8812,-0.0049,1.1825,-0.5009,3.9633,-0.0361,-0.3905,-0.2506,
17.099723,-0.2011,-0.8812,-0.0049,1.1825,-0.5009,3.9633,0.1245,-0.3942,0.1379,
17.104004,-0.2011,-0.8812,-0.0049,1.2657,-0.7076,4.7307,0.1245,-0.3942,0.1379,
17.117145,-0.1803,-0.8805,0.0325,1.2657,-0.7076,4.7307,0.1245,-0.3942,0.1379,
17.120241,-0.1742,-0.8859,0.0369,1.2657,-0.7076,4.7307,0.1245,-0.3942,0.1379,
17.122104,-0.2045,-0.9086,0.0249,1.2657,-0.7076,4.7307,0.1245,-0.3942,0.1379,
17.158727,-0.2045,-0.9086,0.0249,1.2657,-0.7076,4.7307,-0.0239,-0.5701,0.0854,
17.162022,-0.2045,-0.9086,0.0249,1.4303,-0.9640,4.8622,-0.0239,-0.5701,0.0854,
17.177582,-0.2511,-0.9499,0.0051,1.4303,-0.9640,4.8622,-0.0239,-0.5701,0.0854,
17.180459,-0.3025,-1.0129,-0.0293,1.4303,-0.9640,4.8622,-0.0239,-0.5701,0.0854,
17.182185,-0.3261,-1.0681,-0.0318,1.4303,-0.9640,4.8622,-0.0239,-0.5701,0.0854,
17.218385,-0.3261,-1.0681,-0.0318,1.4303,-0.9640,4.8622,-0.0019,0.0249,-0.0081,
17.221017,-0.3261,-1.0681,-0.0318,0.3263,-2.5333,4.2502,-0.0019,0.0249,-0.0081,
17.238611,-0.3083,-1.1177,0.0122,0.3263,-2.5333,4.2502,-0.0019,0.0249,-0.0081,
17.243930,-0.2988,-1.1116,0.0723,0.3263,-2.5333,4.2502,-0.0019,0.0249,-0.0081,
17.245873,-0.3088,-1.0620,0.1229,0.3263,-2.5333,4.2502,-0.0019,0.0249,-0.0081,
17.277906,-0.3088,-1.0620,0.1229,0.3263,-2.5333,4.2502,-0.1381,-0.6324,0.1715,
17.281945,-0.3088,-1.0620,0.1229,0.5760,-2.4750,5.7056,-0.1381,-0.6324,0.1715,
17.299771,-0.3298,-0.9907,0.1788,0.5760,-2.4750,5.7056,-0.1381,-0.6324,0.1715,
17.302216,-0.3601,-1.0139,0.1253,0.5760,-2.4750,5.7056,-0.1381,-0.6324,0.1715,
17.303963,-0.3672,-1.3850,-0.1002,0.5760,-2.4750,5.7056,-0.1381,-0.6324,0.1715,
17.337667,-0.3672,-1.3850,-0.1002,0.5760,-2.4750,5.7056,-0.7301,0.7482,-1.0594,
17.341088,-0.3672,-1.3850,-0.1002,-0.0041,-5.6912,3.6148,-0.7301,0.7482,-1.0594,
17.357274,-0.4757,-1.3271,-0.2507,-0.0041,-5.6912,3.6148,-0.7301,0.7482,-1.0594,
17.359364,-0.1407,-0.9760,-0.1324,-0.0041,-5.6912,3.6148,-0.7301,0.7482,-1.0594,
17.361207,0.1068,-1.0271,-0.2634,-0.0041,-5.6912,3.6148,-0.7301,0.7482,-1.0594,
17.398867,0.1068,-1.0271,-0.2634,-0.0041,-5.6912,3.6148,-0.0929,-0.4388,0.0310,
17.403933,0.1068,-1.0271,-0.2634,4.2610,-2.1150,2.1756,-0.0929,-0.4388,0.0310,
17.423574,0.0730,-1.0589,-0.3112,4.2610,-2.1150,2.1756,-0.0929,-0.4388,0.0310,
17.425557,-0.0555,-0.9670,-0.4305,4.2610,-2.1150,2.1756,-0.0929,-0.4388,0.0310,
17.427000,-0.2436,-0.7569,-0.4525,4.2610,-2.1150,2.1756,-0.0929,-0.4388,0.0310,
17.458748,-0.2436,-0.7569,-0.4525,4.2610,-2.1150,2.1756,-0.2982,-0.4088,0.1000,
17.463001,-0.2436,-0.7569,-0.4525,1.0992,0.4188,0.3207,-0.2982,-0.4088,0.1000,
17.476965,-0.3799,-0.5895,-0.3623,1.0992,0.4188,0.3207,-0.2982,-0.4088,0.1000,
17.479038,-0.3709,-0.6902,-0.2575,1.0992,0.4188,0.3207,-0.2982,-0.4088,0.1000,
17.480494,-0.2128,-0.9472,-0.2355,1.0992,0.4188,0.3207,-0.2982,-0.4088,0.1000,
17.518202,-0.2128,-0.9472,-0.2355,1.0992,0.4188,0.3207,-0.0819,0.5185,-0.3410,
17.521554,-0.2128,-0.9472,-0.2355,1.2055,-1.4181,2.5386,-0.0819,0.5185,-0.3410,
17.541597,-0.0967,-1.1229,-0.3283,1.2055,-1.4181,2.5386,-0.0819,0.5185,-0.3410,
17.543548,-0.0662,-1.1190,-0.3139,1.2055,-1.4181,2.5386,-0.0819,0.5185,-0.3410,
17.547574,-0.1107,-1.0256,-0.2636,1.2055,-1.4181,2.5386,-0.0819,0.5185,-0.3410,
17.578026,-0.1107,-1.0256,-0.2636,1.2055,-1.4181,2.5386,0.3573,0.3499,1.3297,
17.581030,-0.1107,-1.0256,-0.2636,2.2575,-2.2411,2.3160,0.3573,0.3499,1.3297,
17.600001,-0.2267,-0.9404,-0.2485,2.2575,-2.2411,2.3160,0.3573,0.3499,1.3297,
17.602663,-0.2744,-0.8771,-0.2531,2.2575,-2.2411,2.3160,0.3573,0.3499,1.3297,
17.604577,-0.2983,-0.8280,-0.2514,2.2575,-2.2411,2.3160,0.3573,0.3499,1.3297,
17.637971,-0.2983,-0.8280,-0.2514,2.2575,-2.2411,2.3160,0.1019,0.6608,0.4708,
17.640566,-0.2983,-0.8280,-0.2514,0.7990,-0.4324,2.3638,0.1019,0.6608,0.4708,
17.656855,-0.2878,-0.7642,-0.2133,0.7990,-0.4324,2.3638,0.1019,0.6608,0.4708,
17.659229,-0.2707,-0.7212,-0.1935,0.7990,-0.4324,2.3638,0.1019,0.6608,0.4708,
17.660583,-0.3132,-0.7767,-0.2038,0.7990,-0.4324,2.3638,0.1019,0.6608,0.4708,
17.698868,-0.3132,-0.7767,-0.2038,0.7990,-0.4324,2.3638,0.2846,0.6193,0.4299,
17.702193,-0.3132,-0.7767,-0.2038,0.6278,0.0264,2.9189,0.2846,0.6193,0.4299,
17.726279,-0.3916,-0.8881,-0.1942,0.6278,0.0264,2.9189,0.2846,0.6193,0.4299,
17.729474,-0.4226,-0.9650,-0.1087,0.6278,0.0264,2.9189,0.2846,0.6193,0.4299,
17.730816,-0.3884,-0.9870,-0.0821,0.6278,0.0264,2.9189,0.2846,0.6193,0.4299,
17.757895,-0.3884,-0.9870,-0.0821,0.6278,0.0264,2.9189,0.6627,0.5185,0.2778,
17.760609,-0.3884,-0.9870,-0.0821,-0.1560,-1.9568,4.0229,0.6627,0.5185,0.2778,
17.780422,-0.3667,-0.9907,-0.0708,-0.1560,-1.9568,4.0229,0.6627,0.5185,0.2778,
17.782950,-0.3926,-0.9604,-0.0831,-0.1560,-1.9568,4.0229,0.6627,0.5185,0.2778,
17.784357,-0.3946,-0.8878,-0.1163,-0.1560,-1.9568,4.0229,0.6627,0.5185,0.2778,
17.820682,-0.3946,-0.8878,-0.1163,-0.1560,-1.9568,4.0229,0.5112,0.5075,0.0652,
17.824009,-0.3946,-0.8878,-0.1163,-0.2037,-0.8516,3.4585,0.5112,0.5075,0.0652,
17.837027,-0.3801,-0.8534,-0.1011,-0.2037,-0.8516,3.4585,0.5112,0.5075,0.0652,
17.841125,-0.3425,-0.8788,-0.0511,-0.2037,-0.8516,3.4585,0.5112,0.5075,0.0652,
17.843387,-0.3298,-0.9453,-0.0066,-0.2037,-0.8516,3.4585,0.5112,0.5075,0.0652,
17.878820,-0.3298,-0.9453,-0.0066,-0.2037,-0.8516,3.4585,0.3927,0.7274,-0.1394,
17.882458,-0.3298,-0.9453,-0.0066,0.2317,-1.2502,4.4030,0.3927,0.7274,-0.1394,
17.898541,-0.3445,-0.9765,-0.0054,0.2317,-1.2502,4.4030,0.3927,0.7274,-0.1394,
17.901129,-0.3577,-0.9697,-0.0037,0.2317,-1.2502,4.4030,0.3927,0.7274,-0.1394,
17.902518,-0.4009,-0.9604,0.0235,0.2317,-1.2502,4.4030,0.3927,0.7274,-0.1394,
17.939003,-0.4009,-0.9604,0.0235,0.2317,-1.2502,4.4030,0.0219,0.9632,0.1196,
17.942180,-0.4009,-0.9604,0.0235,-0.7055,-1.3066,4.7113,0.0219,0.9632,0.1196,
17.959466,-0.4549,-0.9560,0.0386,-0.7055,-1.3066,4.7113,0.0219,0.9632,0.1196,
17.963007,-0.4832,-0.9235,-0.1737,-0.7055,-1.3066,4.7113,0.0219,0.9632,0.1196,
17.964849,-0.5016,-1.1458,-0.1002,-0.7055,-1.3066,4.7113,0.0219,0.9632,0.1196,
17.998997,-0.5016,-1.1458,-0.1002,-0.7055,-1.3066,4.7113,0.0128,0.8746,0.3688,
18.002579,-0.5016,-1.1458,-0.1002,-1.8415,-3.2039,3.7423,0.0128,0.8746,0.3688,
18.019240,-0.5646,-1.3315,-0.0696,-1.8415,-3.2039,3.7423,0.0128,0.8746,0.3688,
18.021901,-0.4605,-1.1830,-0.1930,-1.8415,-3.2039,3.7423,0.0128,0.8746,0.3688,
18.024140,-0.4507,-1.0234,-0.3210,-1.8415,-3.2039,3.7423,0.0128,0.8746,0.3688,
18.059681,-0.4507,-1.0234,-0.3210,-1.8415,-3.2039,3.7423,-0.3758,0.4403,0.2161,
18.063144,-0.4507,-1.0234,-0.3210,-1.3579,-2.1083,1.7595,-0.3758,0.4403,0.2161,
18.077777,-0.4327,-0.8954,-0.4261,-1.3579,-2.1083,1.7595,-0.3758,0.4403,0.2161,
18.080554,-0.3599,-0.7823,-0.4801,-1.3579,-2.1083,1.7595,-0.3758,0.4403,0.2161,
18.082226,-0.1901,-0.7017,-0.4495,-1.3579,-2.1083,1.7595,-0.3758,0.4403,0.2161,
18.118524,-0.1901,-0.7017,-0.4495,-1.3579,-2.1083,1.7595,0.1044,0.4751,-0.4546,
18.121724,-0.1901,-0.7017,-0.4495,0.9727,0.9826,0.7295,0.1044,0.4751,-0.4546,
18.146670,0.0515,-0.7088,-0.2839,0.9727,0.9826,0.7295,0.1044,0.4751,-0.4546,
18.150141,0.1033,-0.8859,-0.1964,0.9727,0.9826,0.7295,0.1044,0.4751,-0.4546,
18.151802,-0.1092,-1.1490,-0.2072,0.9727,0.9826,0.7295,0.1044,0.4751,-0.4546,
18.178501,-0.1092,-1.1490,-0.2072,0.9727,0.9826,0.7295,0.1795,-0.4693,0.4665,
18.181061,-0.1092,-1.1490,-0.2072,1.6603,-3.3345,3.0586,0.1795,-0.4693,0.4665,
18.197835,-0.3418,-1.2296,-0.2257,1.6603,-3.3345,3.0586,0.1795,-0.4693,0.4665,
18.200415,-0.4952,-1.1356,-0.2333,1.6603,-3.3345,3.0586,0.1795,-0.4693,0.4665,
18.202487,-0.5363,-1.0046,-0.2507,1.6603,-3.3345,3.0586,0.1795,-0.4693,0.4665,
18.238621,-0.5363,-1.0046,-0.2507,1.6603,-3.3345,3.0586,0.8845,0.1067,-0.4045,
18.242493,-0.5363,-1.0046,-0.2507,-2.2790,-1.8106,2.3137,0.8845,0.1067,-0.4045,
18.259214,-0.3982,-0.8688,-0.1918,-2.2790,-1.8106,2.3137,0.8845,0.1067,-0.4045,
18.260102,-0.2880,-0.8023,-0.1515,-2.2790,-1.8106,2.3137,0.8845,0.1067,-0.4045,
18.260899,-0.2580,-0.7906,-0.1739,-2.2790,-1.8106,2.3137,0.8845,0.1067,-0.4045,
18.297920,-0.2580,-0.7906,-0.1739,-2.2790,-1.8106,2.3137,0.0225,-0.1645,-0.3716,
18.301100,-0.2580,-0.7906,-0.1739,0.1568,0.5439,2.7904,0.0225,-0.1645,-0.3716,
18.321809,-0.2817,-0.7962,-0.1639,0.1568,0.5439,2.7904,0.0225,-0.1645,-0.3716,
18.324382,-0.2941,-0.8175,-0.1234,0.1568,0.5439,2.7904,0.0225,-0.1645,-0.3716,
18.325970,-0.2619,-0.8422,-0.0733,0.1568,0.5439,2.7904,0.0225,-0.1645,-0.3716,
