
time,gFx,gFy,gFz,ax,ay,az,wx,wy,wz,
0.054171,0.0000,0.0000,0.0000,0.0000,0.0000,0.0000,0.4964,-0.2075,0.1037,
0.089166,0.0000,0.0000,0.0000,0.0000,0.0000,0.0000,0.2173,-0.3023,-0.0944,
0.091038,-0.0577,0.5191,1.0730,0.0000,0.0000,0.0000,0.2173,-0.3023,-0.0944,
0.091949,0.0052,0.5628,1.1506,0.0000,0.0000,0.0000,0.2173,-0.3023,-0.0944,
0.093018,0.0830,0.5706,1.0679,0.0000,0.0000,0.0000,0.2173,-0.3023,-0.0944,
0.093992,0.1165,0.5008,1.0806,0.0000,0.0000,0.0000,0.2173,-0.3023,-0.0944,
0.094935,0.0958,0.4364,1.1804,0.0000,0.0000,0.0000,0.2173,-0.3023,-0.0944,
0.096139,0.0763,0.3644,1.2519,0.0000,0.0000,0.0000,0.2173,-0.3023,-0.0944,
0.097091,0.0371,0.2862,1.1100,0.0000,0.0000,0.0000,0.2173,-0.3023,-0.0944,
0.097787,0.0574,0.2802,0.9859,0.0000,0.0000,0.0000,0.2173,-0.3023,-0.0944,
0.098636,0.1291,0.2751,0.9130,0.0000,0.0000,0.0000,0.2173,-0.3023,-0.0944,
0.099526,0.1678,0.2511,0.8483,0.0000,0.0000,0.0000,0.2173,-0.3023,-0.0944,
0.100393,0.1673,0.2476,0.8094,0.0000,0.0000,0.0000,0.2173,-0.3023,-0.0944,
0.101157,0.1583,0.2482,0.8104,0.0000,0.0000,0.0000,0.2173,-0.3023,-0.0944,
0.102416,0.1645,0.2635,0.8049,0.0000,0.0000,0.0000,0.2173,-0.3023,-0.0944,
0.129317,0.1645,0.2635,0.8049,0.0000,0.0000,0.0000,-0.0778,-0.2064,-0.2191,
0.131008,0.1645,0.2635,0.8049,0.0000,0.0000,-0.0000,-0.0778,-0.2064,-0.2191,
0.169861,0.1645,0.2635,0.8049,-0.1372,0.2238,0.1905,-0.0778,-0.2064,-0.2191,
0.171792,0.1645,0.2635,0.8049,-0.1372,0.2238,0.1905,-0.2823,-0.1073,-0.2074,
0.173101,0.1517,0.2846,0.8149,-0.1372,0.2238,0.1905,-0.2823,-0.1073,-0.2074,
0.174399,0.1282,0.2934,0.8792,-0.1372,0.2238,0.1905,-0.2823,-0.1073,-0.2074,
0.175377,0.0983,0.3027,0.9473,-0.1372,0.2238,0.1905,-0.2823,-0.1073,-0.2074,
0.176877,0.0962,0.3354,0.9206,-0.1372,0.2238,0.1905,-0.2823,-0.1073,-0.2074,
0.208779,0.0962,0.3354,0.9206,-0.1372,0.2238,0.1905,-0.1502,0.1207,-0.1179,
0.210583,0.0962,0.3354,0.9206,-0.0430,0.1328,0.0841,-0.1502,0.1207,-0.1179,
0.247327,0.0760,0.3483,0.8127,-0.0430,0.1328,0.0841,-0.1502,0.1207,-0.1179,
0.249649,0.0608,0.3533,0.7278,-0.0430,0.1328,0.0841,-0.1502,0.1207,-0.1179,
0.251131,0.0663,0.3599,0.6958,-0.0430,0.1328,0.0841,-0.1502,0.1207,-0.1179,
0.252488,0.0663,0.3599,0.6958,-0.0430,0.1328,0.0841,-0.0501,0.1047,-0.0955,
0.253793,0.0663,0.3599,0.6958,-0.3581,0.4233,0.0855,-0.0501,0.1047,-0.0955,
0.290240,0.0663,0.3599,0.6958,-0.3581,0.4233,0.0855,-0.2834,0.0205,-0.0838,
0.291955,0.0663,0.3599,0.6958,-0.2279,0.3423,0.0351,-0.2834,0.0205,-0.0838,
0.326155,0.0610,0.3618,0.7178,-0.2279,0.3423,0.0351,-0.2834,0.0205,-0.0838,
0.328658,0.0504,0.3728,0.7902,-0.2279,0.3423,0.0351,-0.2834,0.0205,-0.0838,
0.330400,0.0487,0.3752,0.8768,-0.2279,0.3423,0.0351,-0.2834,0.0205,-0.0838,
0.331507,0.0478,0.4005,0.9119,-0.2279,0.3423,0.0351,-0.2834,0.0205,-0.0838,
0.333087,0.0478,0.4005,0.9119,-0.2279,0.3423,0.0351,-0.3217,0.2197,-0.0294,
0.334139,0.0478,0.4005,0.9119,-0.3926,0.7671,0.1685,-0.3217,0.2197,-0.0294,
0.368267,0.0478,0.4005,0.9119,-0.2503,0.6276,0.1237,-0.3217,0.2197,-0.0294,
0.370571,0.0478,0.4005,0.9119,-0.2503,0.6276,0.1237,-0.0501,0.2421,0.0153,
0.403112,0.0532,0.4169,0.8966,-0.2503,0.6276,0.1237,-0.0501,0.2421,0.0153,
0.406253,0.0624,0.4373,0.8610,-0.2503,0.6276,0.1237,-0.0501,0.2421,0.0153,
0.407776,0.0696,0.4506,0.8496,-0.2503,0.6276,0.1237,-0.0501,0.2421,0.0153,
0.409000,0.0683,0.4595,0.8906,-0.2503,0.6276,0.1237,-0.0501,0.2421,0.0153,
0.410052,0.0683,0.4595,0.8906,-0.2503,0.6276,0.1237,-0.0767,0.2123,0.0419,
0.411053,0.0683,0.4595,0.8906,-0.0176,0.9804,-0.0697,-0.0767,0.2123,0.0419,
0.446350,0.0683,0.4595,0.8906,-0.0176,0.9804,-0.0697,-0.1193,0.2368,0.1101,
0.447995,0.0683,0.4595,0.8906,0.0400,0.8529,-0.0761,-0.1193,0.2368,0.1101,
0.481072,0.0686,0.4645,0.9810,0.0400,0.8529,-0.0761,-0.1193,0.2368,0.1101,
0.483548,0.1002,0.4700,1.0133,0.0400,0.8529,-0.0761,-0.1193,0.2368,0.1101,
0.486219,0.1102,0.4729,1.0083,0.0400,0.8529,-0.0761,-0.1193,0.2368,0.1101,
0.488068,0.1133,0.4623,1.0216,0.0400,0.8529,-0.0761,-0.1193,0.2368,0.1101,
0.489436,0.1133,0.4623,1.0216,0.0400,0.8529,-0.0761,0.1821,0.1547,0.1293,
0.490737,0.1133,0.4623,1.0216,0.2375,0.8923,0.9635,0.1821,0.1547,0.1293,
0.525780,0.1133,0.4623,1.0216,0.2375,0.8923,0.9635,0.3707,0.1089,0.0387,
0.527407,0.1133,0.4623,1.0216,0.2307,0.6567,0.8709,0.3707,0.1089,0.0387,
0.559679,0.1135,0.4816,1.0319,0.2307,0.6567,0.8709,0.3707,0.1089,0.0387,
0.561902,0.1015,0.5075,1.0272,0.2307,0.6567,0.8709,0.3707,0.1089,0.0387,
0.563824,0.1078,0.5338,1.0099,0.2307,0.6567,0.8709,0.3707,0.1089,0.0387,
0.565437,0.1025,0.5490,0.9196,0.2307,0.6567,0.8709,0.3707,0.1089,0.0387,
0.567001,0.1025,0.5490,0.9196,0.2307,0.6567,0.8709,0.4506,0.1483,-0.0540,
0.567904,0.1025,0.5490,0.9196,0.3839,1.0240,0.6343,0.4506,0.1483,-0.0540,
0.606392,0.1025,0.5490,0.9196,0.3839,1.0240,0.6343,0.0138,0.2368,-0.0880,
0.608182,0.1025,0.5490,0.9196,0.4275,0.9042,0.5613,0.0138,0.2368,-0.0880,
0.630608,0.0854,0.5104,0.8850,0.4275,0.9042,0.5613,0.0138,0.2368,-0.0880,
0.632252,0.1024,0.4512,1.0119,0.4275,0.9042,0.5613,0.0138,0.2368,-0.0880,
0.633163,0.0769,0.3915,1.2313,0.4275,0.9042,0.5613,0.0138,0.2368,-0.0880,
0.633916,0.0232,0.3536,1.3071,0.4275,0.9042,0.5613,0.0138,0.2368,-0.0880,
0.644041,0.0232,0.3536,1.3071,0.4275,0.9042,0.5613,-0.3441,0.1430,-0.1669,
0.645666,0.0232,0.3536,1.3071,0.2925,-0.0638,1.8234,-0.3441,0.1430,-0.1669,
0.684451,0.0232,0.3536,1.3071,0.2925,-0.0638,1.8234,0.3281,0.1121,-0.2095,
0.686066,0.0232,0.3536,1.3071,-1.0960,-1.3577,1.4402,0.3281,0.1121,-0.2095,
0.724593,-0.0449,0.3189,1.1824,-1.0960,-1.3577,1.4402,0.3281,0.1121,-0.2095,
0.726415,-0.1199,0.2565,0.9880,-1.0960,-1.3577,1.4402,0.3281,0.1121,-0.2095,
0.728321,-0.1525,0.2447,0.8492,-1.0960,-1.3577,1.4402,0.3281,0.1121,-0.2095,
0.729490,-0.1525,0.2447,0.8492,-1.0960,-1.3577,1.4402,0.3142,0.3486,-0.0870,
0.730278,-0.1525,0.2447,0.8492,-0.8677,-1.3391,1.3543,0.3142,0.3486,-0.0870,
0.763528,-0.1525,0.2447,0.8492,-0.8677,-1.3391,1.3543,-0.0767,0.1036,0.0824,
0.765284,-0.1525,0.2447,0.8492,-1.9321,-1.4805,-2.0039,-0.0767,0.1036,0.0824,
0.803138,-0.2236,0.2336,0.7453,-1.9321,-1.4805,-2.0039,-0.0767,0.1036,0.0824,
0.805472,-0.2251,0.2703,0.6793,-1.9321,-1.4805,-2.0039,-0.0767,0.1036,0.0824,
0.806808,-0.1865,0.2824,0.7085,-1.9321,-1.4805,-2.0039,-0.0767,0.1036,0.0824,
0.808065,-0.1593,0.2576,0.8036,-1.9321,-1.4805,-2.0039,-0.0767,0.1036,0.0824,
0.809354,-0.1093,0.2551,0.8950,-1.9321,-1.4805,-2.0039,-0.0767,0.1036,0.0824,
0.810637,-0.1093,0.2551,0.8950,-1.9321,-1.4805,-2.0039,-0.3409,-0.3481,0.2230,
0.811511,-0.1093,0.2551,0.8950,-1.2196,-1.1988,-0.7242,-0.3409,-0.3481,0.2230,
0.842493,-0.1093,0.2551,0.8950,-1.2196,-1.1988,-0.7242,-0.3143,-0.7912,0.3285,
0.844333,-0.1093,0.2551,0.8950,-1.4356,-1.0000,-0.7080,-0.3143,-0.7912,0.3285,
0.880251,-0.0455,0.2955,1.0471,-1.4356,-1.0000,-0.7080,-0.3143,-0.7912,0.3285,
0.882259,-0.0277,0.3192,1.0562,-1.4356,-1.0000,-0.7080,-0.3143,-0.7912,0.3285,
0.883572,0.0219,0.3551,0.9832,-1.4356,-1.0000,-0.7080,-0.3143,-0.7912,0.3285,
0.884752,0.0635,0.3020,0.8937,-1.4356,-1.0000,-0.7080,-0.3143,-0.7912,0.3285,
0.885834,0.0635,0.3020,0.8937,-1.4356,-1.0000,-0.7080,0.0905,-1.4187,0.2486,
0.886840,0.0635,0.3020,0.8937,-0.6164,-0.3982,0.7703,0.0905,-1.4187,0.2486,
0.923923,0.0635,0.3020,0.8937,-0.6164,-0.3982,0.7703,0.0255,-1.4698,0.1293,
0.926020,0.0635,0.3020,0.8937,-1.0816,-0.3740,0.7697,0.0255,-1.4698,0.1293,
0.958525,0.0950,0.3365,0.7805,-1.0816,-0.3740,0.7697,0.0255,-1.4698,0.1293,
0.960719,0.1178,0.3290,0.7658,-1.0816,-0.3740,0.7697,0.0255,-1.4698,0.1293,
0.962763,0.1595,0.3853,0.8331,-1.0816,-0.3740,0.7697,0.0255,-1.4698,0.1293,
0.964321,0.2111,0.3594,0.6507,-1.0816,-0.3740,0.7697,0.0255,-1.4698,0.1293,
0.968545,0.2111,0.3594,0.6507,-1.0816,-0.3740,0.7697,-0.0629,-0.9808,-0.0284,
0.969820,0.2111,0.3594,0.6507,-0.4368,-0.2174,-1.1083,-0.0629,-0.9808,-0.0284,
1.002036,0.2111,0.3594,0.6507,-0.4368,-0.2174,-1.1083,-0.3260,-0.9798,-0.3384,
1.003644,0.2111,0.3594,0.6507,-0.6901,-0.1149,-1.0181,-0.3260,-0.9798,-0.3384,
1.040838,0.3665,0.3502,0.4244,-0.6901,-0.1149,-1.0181,-0.3260,-0.9798,-0.3384,
1.042682,0.1664,0.2189,0.5075,-0.6901,-0.1149,-1.0181,-0.3260,-0.9798,-0.3384,
1.043722,0.1486,0.3143,0.7245,-0.6901,-0.1149,-1.0181,-0.3260,-0.9798,-0.3384,
1.044999,0.1486,0.3143,0.7245,-0.6901,-0.1149,-1.0181,-0.2621,-1.1417,-0.3288,
1.046232,0.1486,0.3143,0.7245,0.3934,-0.0590,-3.0509,-0.2621,-1.1417,-0.3288,
1.081411,0.1486,0.3143,0.7245,0.3934,-0.0590,-3.0509,0.1044,-1.7414,-0.3384,
1.083662,0.1486,0.3143,0.7245,-0.9876,0.0303,-1.2785,0.1044,-1.7414,-0.3384,
1.119467,0.1365,0.4351,0.8468,-0.9876,0.0303,-1.2785,0.1044,-1.7414,-0.3384,
1.121469,0.2632,0.3862,0.5744,-0.9876,0.0303,-1.2785,0.1044,-1.7414,-0.3384,
1.123567,-0.2092,0.5383,0.7205,-0.9876,0.0303,-1.2785,0.1044,-1.7414,-0.3384,
1.125063,-0.1179,0.7263,0.8193,-0.9876,0.0303,-1.2785,0.1044,-1.7414,-0.3384,
1.126219,0.3302,0.6025,0.7259,-0.9876,0.0303,-1.2785,0.1044,-1.7414,-0.3384,
1.127376,0.3302,0.6025,0.7259,-0.9876,0.0303,-1.2785,0.2524,-2.3060,0.2358,
1.128639,0.3302,0.6025,0.7259,-3.4352,2.2472,-1.0656,0.2524,-2.3060,0.2358,
1.159832,0.3302,0.6025,0.7259,-3.4352,2.2472,-1.0656,0.0213,-2.0823,0.2933,
1.161311,0.3302,0.6025,0.7259,-3.8985,2.1545,-0.7304,0.0213,-2.0823,0.2933,
1.197622,0.5510,0.3784,0.5850,-3.8985,2.1545,-0.7304,0.0213,-2.0823,0.2933,
1.199861,0.5457,0.3723,0.5992,-3.8985,2.1545,-0.7304,0.0213,-2.0823,0.2933,
1.201402,0.4712,0.4577,0.5119,-3.8985,2.1545,-0.7304,0.0213,-2.0823,0.2933,
1.202817,0.2868,0.5386,0.4376,-3.8985,2.1545,-0.7304,0.0213,-2.0823,0.2933,
1.204151,0.2868,0.5386,0.4376,-3.8985,2.1545,-0.7304,-0.6030,-1.8331,0.1570,
1.205615,0.2868,0.5386,0.4376,0.8829,0.4730,-1.4957,-0.6030,-1.8331,0.1570,
1.240483,0.2868,0.5386,0.4376,0.0280,0.6130,-0.9699,-0.6030,-1.8331,0.1570,
1.241642,0.2868,0.5386,0.4376,0.0280,0.6130,-0.9699,-0.1715,-2.6767,0.6672,
1.274995,0.2777,0.4044,0.4085,0.0280,0.6130,-0.9699,-0.1715,-2.6767,0.6672,
1.277407,0.4011,0.3475,0.5329,0.0280,0.6130,-0.9699,-0.1715,-2.6767,0.6672,
1.279327,0.5388,0.3693,0.5649,0.0280,0.6130,-0.9699,-0.1715,-2.6767,0.6672,
1.280538,0.4771,0.3109,0.2220,0.0280,0.6130,-0.9699,-0.1715,-2.6767,0.6672,
1.281449,0.4771,0.3109,0.2220,0.0280,0.6130,-0.9699,2.3276,-4.4749,0.8100,
1.282527,0.4771,0.3109,0.2220,-1.3180,-0.4933,-1.8545,2.3276,-4.4749,0.8100,
1.319196,0.4771,0.3109,0.2220,-1.3180,-0.4933,-1.8545,3.2927,-5.4965,1.2169,
1.321730,0.4771,0.3109,0.2220,-2.3634,-0.7077,0.1445,3.2927,-5.4965,1.2169,
1.353685,0.5306,0.2527,-0.0468,-2.3634,-0.7077,0.1445,3.2927,-5.4965,1.2169,
1.356405,0.4853,0.0243,-0.2613,-2.3634,-0.7077,0.1445,3.2927,-5.4965,1.2169,
1.357965,0.4911,-0.2450,-0.4285,-2.3634,-0.7077,0.1445,3.2927,-5.4965,1.2169,
1.359443,0.7261,-0.3909,-0.3664,-2.3634,-0.7077,0.1445,3.2927,-5.4965,1.2169,
1.360771,0.7261,-0.3909,-0.3664,-2.3634,-0.7077,0.1445,2.2690,-5.9396,2.6433,
1.362008,0.7261,-0.3909,-0.3664,-3.0759,-4.1644,-4.2264,2.2690,-5.9396,2.6433,
1.397891,0.7261,-0.3909,-0.3664,-3.0759,-4.1644,-4.2264,2.1422,-6.0419,3.4146,
1.399614,0.7261,-0.3909,-0.3664,-3.2661,-2.8979,-1.9185,2.1422,-6.0419,3.4146,
1.430176,1.2444,-0.3586,-0.1360,-3.2661,-2.8979,-1.9185,2.1422,-6.0419,3.4146,
1.431786,1.5346,-0.4058,0.0182,-3.2661,-2.8979,-1.9185,2.1422,-6.0419,3.4146,
1.432979,1.4940,-0.4851,-0.1050,-3.2661,-2.8979,-1.9185,2.1422,-6.0419,3.4146,
1.434462,1.3497,-0.5433,-0.2878,-3.2661,-2.8979,-1.9185,2.1422,-6.0419,3.4146,
1.438332,1.3497,-0.5433,-0.2878,4.5584,-4.3422,1.3938,2.1422,-6.0419,3.4146,
1.440170,1.3497,-0.5433,-0.2878,4.5584,-4.3422,1.3938,1.9643,-3.3233,3.3432,
1.477355,1.3497,-0.5433,-0.2878,4.5584,-4.3422,1.3938,-0.0948,-0.7071,3.8662,
1.479759,1.3497,-0.5433,-0.2878,4.4560,-2.9367,1.5675,-0.0948,-0.7071,3.8662,
1.516746,1.4412,-0.5961,-0.3481,4.4560,-2.9367,1.5675,-0.0948,-0.7071,3.8662,
1.518756,1.7439,-0.5364,-0.1439,4.4560,-2.9367,1.5675,-0.0948,-0.7071,3.8662,
1.520431,1.7949,-0.5237,0.1153,4.4560,-2.9367,1.5675,-0.0948,-0.7071,3.8662,
1.521660,1.7949,-0.5237,0.1153,4.4560,-2.9367,1.5675,-0.8309,-0.3246,3.1376,
1.523172,1.7949,-0.5237,0.1153,5.6729,-3.3891,-0.0122,-0.8309,-0.3246,3.1376,
1.555649,1.7949,-0.5237,0.1153,5.6729,-3.3891,-0.0122,-0.0309,-0.0423,2.4483,
1.557180,1.7949,-0.5237,0.1153,7.7402,-2.1502,4.1222,-0.0309,-0.0423,2.4483,
1.595428,1.5896,-0.5198,0.2489,7.7402,-2.1502,4.1222,-0.0309,-0.0423,2.4483,
1.598305,1.4437,-0.5320,0.3142,7.7402,-2.1502,4.1222,-0.0309,-0.0423,2.4483,
1.601545,1.3560,-0.5087,0.2992,7.7402,-2.1502,4.1222,-0.0309,-0.0423,2.4483,
1.604044,1.3508,-0.4881,0.2359,7.7402,-2.1502,4.1222,-0.0309,-0.0423,2.4483,
1.605355,1.5000,-0.3411,0.1202,7.7402,-2.1502,4.1222,-0.0309,-0.0423,2.4483,
1.606772,1.5000,-0.3411,0.1202,7.7402,-2.1502,4.1222,0.3100,1.2168,2.4270,
1.608081,1.5000,-0.3411,0.1202,4.9385,-0.9139,4.4305,0.3100,1.2168,2.4270,
1.636241,1.5000,-0.3411,0.1202,4.9385,-0.9139,4.4305,0.6061,1.6578,1.7985,
1.637718,1.5000,-0.3411,0.1202,4.9352,-0.2584,3.6247,0.6061,1.6578,1.7985,
1.645888,1.4868,-0.1578,-0.0806,4.9352,-0.2584,3.6247,0.6061,1.6578,1.7985,
1.647439,1.5531,-0.0291,-0.2705,4.9352,-0.2584,3.6247,0.6061,1.6578,1.7985,
1.648163,1.5044,-0.0351,-0.3386,4.9352,-0.2584,3.6247,0.6061,1.6578,1.7985,
1.675785,1.5044,-0.0351,-0.3386,4.9352,-0.2584,3.6247,0.0394,1.9486,0.8110,
1.677829,1.5044,-0.0351,-0.3386,6.1860,3.5084,-1.0722,0.0394,1.9486,0.8110,
1.714690,1.5044,-0.0351,-0.3386,6.1860,3.5084,-1.0722,-0.7116,2.3833,0.3306,
1.717015,1.5044,-0.0351,-0.3386,4.0218,4.4762,-4.3973,-0.7116,2.3833,0.3306,
1.718471,1.3710,-0.0370,-0.4318,4.0218,4.4762,-4.3973,-0.7116,2.3833,0.3306,
1.719917,1.2612,0.0150,-0.4436,4.0218,4.4762,-4.3973,-0.7116,2.3833,0.3306,
1.721215,1.1652,-0.0480,-0.5658,4.0218,4.4762,-4.3973,-0.7116,2.3833,0.3306,
1.723484,1.1203,-0.1487,-0.5139,4.0218,4.4762,-4.3973,-0.7116,2.3833,0.3306,
1.754491,1.1203,-0.1487,-0.5139,4.0218,4.4762,-4.3973,-0.8416,1.5289,-0.0529,
1.756399,1.1203,-0.1487,-0.5139,3.8842,4.3076,-4.6103,-0.8416,1.5289,-0.0529,
1.795433,1.1587,-0.1579,-0.2696,3.8842,4.3076,-4.6103,-0.8416,1.5289,-0.0529,
1.798185,1.2520,-0.1467,-0.0923,3.8842,4.3076,-4.6103,-0.8416,1.5289,-0.0529,
1.800281,1.3192,-0.1297,-0.1199,3.8842,4.3076,-4.6103,-0.8416,1.5289,-0.0529,
1.801551,1.3192,-0.1297,-0.1199,3.8842,4.3076,-4.6103,-0.3601,0.7566,-0.4833,
1.803437,1.3192,-0.1297,-0.1199,2.1735,2.7375,-4.0352,-0.3601,0.7566,-0.4833,
1.833553,1.3192,-0.1297,-0.1199,2.1735,2.7375,-4.0352,-0.1087,0.4690,-1.0287,
1.835019,1.3192,-0.1297,-0.1199,1.9493,2.2810,-4.0447,-0.1087,0.4690,-1.0287,
1.870333,1.2786,-0.2507,-0.0993,1.9493,2.2810,-4.0447,-0.1087,0.4690,-1.0287,
1.874572,1.1632,-0.2855,0.0019,1.9493,2.2810,-4.0447,-0.1087,0.4690,-1.0287,
1.876125,0.9761,-0.3525,-0.0435,1.9493,2.2810,-4.0447,-0.1087,0.4690,-1.0287,
1.877267,1.0257,-0.3176,-0.1849,1.9493,2.2810,-4.0447,-0.1087,0.4690,-1.0287,
1.878551,1.0257,-0.3176,-0.1849,0.7431,0.1415,-1.2965,-0.1087,0.4690,-1.0287,
1.880004,1.0257,-0.3176,-0.1849,0.7431,0.1415,-1.2965,0.2812,0.1835,-1.0596,
1.913474,1.0257,-0.3176,-0.1849,0.7431,0.1415,-1.2965,0.6690,-0.2937,-0.9136,
1.917467,1.0257,-0.3176,-0.1849,0.6052,-0.2104,-1.2258,0.6690,-0.2937,-0.9136,
1.950127,1.1520,-0.3252,-0.0957,0.6052,-0.2104,-1.2258,0.6690,-0.2937,-0.9136,
1.952464,1.0739,-0.3249,-0.0613,0.6052,-0.2104,-1.2258,0.6690,-0.2937,-0.9136,
1.954315,1.0756,-0.2970,-0.2592,0.6052,-0.2104,-1.2258,0.6690,-0.2937,-0.9136,
1.956209,1.0737,-0.4233,-0.4880,0.6052,-0.2104,-1.2258,0.6690,-0.2937,-0.9136,
1.958264,1.0737,-0.4233,-0.4880,0.6052,-0.2104,-1.2258,0.7808,-0.3715,-0.9168,
1.959914,1.0737,-0.4233,-0.4880,0.8272,-0.5815,-2.1657,0.7808,-0.3715,-0.9168,
1.994111,1.0737,-0.4233,-0.4880,0.8272,-0.5815,-2.1657,-0.0757,-0.3342,-0.7741,
1.995884,1.0737,-0.4233,-0.4880,0.7265,-0.8564,-1.9651,-0.0757,-0.3342,-0.7741,
2.029252,1.0401,-0.6463,-0.2476,0.7265,-0.8564,-1.9651,-0.0757,-0.3342,-0.7741,
2.030780,0.9856,-0.7004,0.1658,0.7265,-0.8564,-1.9651,-0.0757,-0.3342,-0.7741,
2.031755,1.0116,-0.6777,0.3468,0.7265,-0.8564,-1.9651,-0.0757,-0.3342,-0.7741,
2.032969,1.0265,-0.6407,0.2684,0.7265,-0.8564,-1.9651,-0.0757,-0.3342,-0.7741,
2.033924,1.0265,-0.6407,0.2684,0.7265,-0.8564,-1.9651,0.3771,-0.1393,-0.2340,
2.034685,1.0265,-0.6407,0.2684,0.0603,-3.9517,-0.4596,0.3771,-0.1393,-0.2340,
2.070939,1.0265,-0.6407,0.2684,0.0603,-3.9517,-0.4596,1.1313,0.3891,0.0291,
2.072639,1.0265,-0.6407,0.2684,0.0628,-3.8250,-0.6970,1.1313,0.3891,0.0291,
2.112088,1.0265,-0.6407,0.2684,-0.2027,-3.3340,1.8068,1.1313,0.3891,0.0291,
2.114901,0.9769,-0.5722,0.1816,-0.2027,-3.3340,1.8068,1.1313,0.3891,0.0291,
2.116308,0.9394,-0.5367,0.1141,-0.2027,-3.3340,1.8068,1.1313,0.3891,0.0291,
2.117813,0.8575,-0.5244,0.2777,-0.2027,-3.3340,1.8068,1.1313,0.3891,0.0291,
2.119659,0.8575,-0.5244,0.2777,-0.2027,-3.3340,1.8068,1.8003,-0.1425,0.0803,
2.150368,0.8575,-0.5244,0.2777,-0.2027,-3.3340,1.8068,1.8290,-0.4780,0.5788,
2.152660,0.8575,-0.5244,0.2777,-1.4948,-2.4325,2.6573,1.8290,-0.4780,0.5788,
2.188910,0.7892,-0.5683,0.4171,-1.4948,-2.4325,2.6573,1.8290,-0.4780,0.5788,
2.190346,0.8743,-0.4839,0.3561,-1.4948,-2.4325,2.6573,1.8290,-0.4780,0.5788,
2.191278,0.5296,-0.2365,-1.0548,-1.4948,-2.4325,2.6573,1.8290,-0.4780,0.5788,
2.192149,0.8272,-0.2315,-0.4532,-1.4948,-2.4325,2.6573,1.8290,-0.4780,0.5788,
2.192917,0.6514,-0.3626,0.1309,-1.4948,-2.4325,2.6573,1.8290,-0.4780,0.5788,
2.193694,0.6514,-0.3626,0.1309,-1.4948,-2.4325,2.6573,-0.3026,0.1143,0.8366,
2.194425,0.6514,-0.3626,0.1309,-2.5848,0.3619,-4.5916,-0.3026,0.1143,0.8366,
2.229603,0.6514,-0.3626,0.1309,-2.5848,0.3619,-4.5916,1.2570,0.0898,0.8206,
2.231314,0.6514,-0.3626,0.1309,-2.4060,0.6334,-4.6603,1.2570,0.0898,0.8206,
2.267644,0.5557,-0.3398,0.3507,-2.4060,0.6334,-4.6603,1.2570,0.0898,0.8206,
2.269522,0.7286,-0.4113,1.4452,-2.4060,0.6334,-4.6603,1.2570,0.0898,0.8206,
2.270609,0.3073,-0.5248,0.4037,-2.4060,0.6334,-4.6603,1.2570,0.0898,0.8206,
2.271849,0.7694,-0.2305,-2.1539,-2.4060,0.6334,-4.6603,1.2570,0.0898,0.8206,
2.273285,0.7694,-0.2305,-2.1539,-3.6094,-0.1987,6.5721,1.2570,0.0898,0.8206,
2.274376,0.7694,-0.2305,-2.1539,-3.6094,-0.1987,6.5721,2.9593,-1.2333,1.2776,
2.309645,0.7694,-0.2305,-2.1539,-3.6094,-0.1987,6.5721,-0.9396,1.2147,1.4172,
2.311059,0.7694,-0.2305,-2.1539,-3.2501,0.3321,6.1278,-0.9396,1.2147,1.4172,
2.344879,0.9949,-0.3750,0.4551,-3.2501,0.3321,6.1278,-0.9396,1.2147,1.4172,
2.346506,0.7365,-0.4328,-0.0235,-3.2501,0.3321,6.1278,-0.9396,1.2147,1.4172,
2.347412,0.7810,-0.3641,0.0730,-3.2501,0.3321,6.1278,-0.9396,1.2147,1.4172,
2.348467,0.6309,-0.3757,0.0701,-3.2501,0.3321,6.1278,-0.9396,1.2147,1.4172,
2.350023,0.6309,-0.3757,0.0701,-2.0454,1.0762,-0.7320,-0.9396,1.2147,1.4172,
2.351061,0.6309,-0.3757,0.0701,-2.0454,1.0762,-0.7320,-0.3036,0.9132,1.0486,
2.387777,0.6309,-0.3757,0.0701,-2.0454,1.0762,-0.7320,0.3547,0.1771,1.5109,
2.389139,0.6309,-0.3757,0.0701,-1.6915,1.5205,-0.8411,0.3547,0.1771,1.5109,
2.422584,0.4695,-0.4130,0.0280,-1.6915,1.5205,-0.8411,0.3547,0.1771,1.5109,
2.424286,0.4661,-0.4347,-0.1077,-1.6915,1.5205,-0.8411,0.3547,0.1771,1.5109,
2.425233,0.4564,-0.4878,-0.1042,-1.6915,1.5205,-0.8411,0.3547,0.1771,1.5109,
2.426419,0.5493,-0.5822,0.1029,-1.6915,1.5205,-0.8411,0.3547,0.1771,1.5109,
2.427440,0.5493,-0.5822,0.1029,-1.6915,1.5205,-0.8411,-0.0980,-0.1041,2.3418,
2.428621,0.5493,-0.5822,0.1029,-2.9921,1.2790,-1.8930,-0.0980,-0.1041,2.3418,
2.467225,0.5493,-0.5822,0.1029,-2.9921,1.2790,-1.8930,0.6498,-0.2735,2.4398,
2.468624,0.5493,-0.5822,0.1029,-2.3395,1.9057,-1.9276,0.6498,-0.2735,2.4398,
2.506784,0.4223,-0.5569,0.5698,-2.3395,1.9057,-1.9276,0.6498,-0.2735,2.4398,
2.509283,1.8751,-0.1040,0.4739,-2.3395,1.9057,-1.9276,0.6498,-0.2735,2.4398,
2.510278,1.0062,-0.3368,-0.6029,-2.3395,1.9057,-1.9276,0.6498,-0.2735,2.4398,
2.511230,1.0062,-0.3368,-0.6029,-2.3395,1.9057,-1.9276,0.2077,0.2250,1.2947,
2.512044,1.0062,-0.3368,-0.6029,3.5617,3.3456,1.0358,0.2077,0.2250,1.2947,
2.546610,1.0062,-0.3368,-0.6029,3.5617,3.3456,1.0358,-0.3675,0.4999,1.3756,
2.548644,1.0062,-0.3368,-0.6029,2.6938,1.7348,-1.5971,-0.3675,0.4999,1.3756,
2.585276,0.9896,-0.5565,0.0400,2.6938,1.7348,-1.5971,-0.3675,0.4999,1.3756,
2.587480,0.9549,-0.5855,0.1273,2.6938,1.7348,-1.5971,-0.3675,0.4999,1.3756,
2.588762,0.7533,-0.5690,0.0374,2.6938,1.7348,-1.5971,-0.3675,0.4999,1.3756,
2.590340,0.8299,-0.5790,0.0174,2.6938,1.7348,-1.5971,-0.3675,0.4999,1.3756,
2.591736,1.0021,-0.7583,0.0019,2.6938,1.7348,-1.5971,-0.3675,0.4999,1.3756,
2.593067,1.0021,-0.7583,0.0019,2.6938,1.7348,-1.5971,-0.2653,0.2975,0.9218,
2.594579,1.0021,-0.7583,0.0019,2.4647,0.5484,-1.0410,-0.2653,0.2975,0.9218,
2.633415,1.0021,-0.7583,0.0019,2.4647,0.5484,-1.0410,-0.0245,-0.1574,0.6491,
2.635175,1.0021,-0.7583,0.0019,2.5861,0.6887,-0.9733,-0.0245,-0.1574,0.6491,
2.636779,0.8009,-0.9689,0.2092,2.5861,0.6887,-0.9733,-0.0245,-0.1574,0.6491,
2.638519,0.7483,-1.0587,-0.0034,2.5861,0.6887,-0.9733,-0.0245,-0.1574,0.6491,
2.640097,0.7282,-1.1489,-0.0736,2.5861,0.6887,-0.9733,-0.0245,-0.1574,0.6491,
2.666088,0.7282,-1.1489,-0.0736,2.5861,0.6887,-0.9733,0.5124,0.0226,2.0606,
2.668038,0.7282,-1.1489,-0.0736,3.1468,1.1010,-1.1097,0.5124,0.0226,2.0606,
2.704543,0.7282,-1.1489,-0.0736,3.1468,1.1010,-1.1097,0.8746,0.2229,2.7434,
2.706687,0.7282,-1.1489,-0.0736,3.9578,1.5527,-1.4043,0.8746,0.2229,2.7434,
2.747327,0.7282,-1.1489,-0.0736,1.8453,-2.2256,-1.3171,0.8746,0.2229,2.7434,
2.750012,0.7282,-1.1489,-0.0736,1.8453,-2.2256,-1.3171,0.3430,-1.8309,0.3104,
2.784948,0.1495,-1.0200,0.2427,1.8453,-2.2256,-1.3171,0.3430,-1.8309,0.3104,
2.786762,0.2208,-0.9328,0.2562,1.8453,-2.2256,-1.3171,0.3430,-1.8309,0.3104,
2.788143,0.2108,-0.9611,0.1438,1.8453,-2.2256,-1.3171,0.3430,-1.8309,0.3104,
2.789843,0.2108,-0.9611,0.1438,1.8453,-2.2256,-1.3171,-1.3092,-2.1963,-0.5813,
2.791232,0.2108,-0.9611,0.1438,-3.0284,-1.0928,1.4096,-1.3092,-2.1963,-0.5813,
2.823916,0.2108,-0.9611,0.1438,-3.0284,-1.0928,1.4096,-2.1476,-1.5689,0.2805,
2.826137,0.2108,-0.9611,0.1438,-2.8830,-1.0023,2.3782,-2.1476,-1.5689,0.2805,
2.864550,0.2108,-0.9611,0.1438,-2.8830,-1.0023,2.3782,-1.7758,-1.6892,0.1815,
2.866937,0.3488,-1.1856,-0.0411,-2.8830,-1.0023,2.3782,-1.7758,-1.6892,0.1815,
2.868331,0.3772,-1.1282,-0.0802,-2.8830,-1.0023,2.3782,-1.7758,-1.6892,0.1815,
2.869628,0.4451,-1.0947,0.0058,-2.8830,-1.0023,2.3782,-1.7758,-1.6892,0.1815,
2.870668,0.4768,-0.9679,0.0292,-2.8830,-1.0023,2.3782,-1.7758,-1.6892,0.1815,
2.871717,0.4768,-0.9679,0.0292,-0.8260,-2.5783,0.7978,-1.7758,-1.6892,0.1815,
2.903169,0.4768,-0.9679,0.0292,-0.8260,-2.5783,0.7978,-0.7702,-1.3356,-0.3757,
2.904854,0.4768,-0.9679,0.0292,-0.8565,-2.6322,1.2758,-0.7702,-1.3356,-0.3757,
2.945324,0.3906,-0.7869,-0.0863,-0.8565,-2.6322,1.2758,-0.7702,-1.3356,-0.3757,
2.946953,0.4473,-0.7488,-0.0482,-0.8565,-2.6322,1.2758,-0.7702,-1.3356,-0.3757,
2.947898,0.3383,-0.7327,-0.1235,-0.8565,-2.6322,1.2758,-0.7702,-1.3356,-0.3757,
2.948941,0.3383,-0.7327,-0.1235,-0.8565,-2.6322,1.2758,-0.6743,-0.6666,-0.7038,
2.949887,0.3383,-0.7327,-0.1235,-0.5617,0.1388,1.6243,-0.6743,-0.6666,-0.7038,
2.983476,0.3383,-0.7327,-0.1235,-0.5617,0.1388,1.6243,-0.7713,-0.7870,-0.3746,
2.985675,0.3383,-0.7327,-0.1235,-1.9805,0.9861,1.7263,-0.7713,-0.7870,-0.3746,
3.022740,0.3383,-0.7327,-0.1235,-1.8869,0.9878,1.7204,-0.7713,-0.7870,-0.3746,
3.025937,0.3383,-0.7327,-0.1235,-1.8869,0.9878,1.7204,0.4548,-0.9254,-0.1051,
3.027053,0.2430,-0.5746,-0.0902,-1.8869,0.9878,1.7204,0.4548,-0.9254,-0.1051,
3.028219,0.3029,-0.8881,0.0270,-1.8869,0.9878,1.7204,0.4548,-0.9254,-0.1051,
3.029724,0.2870,-0.8067,0.0478,-1.8869,0.9878,1.7204,0.4548,-0.9254,-0.1051,
3.030867,0.2628,-0.6447,0.0080,-1.8869,0.9878,1.7204,0.4548,-0.9254,-0.1051,
3.032006,0.1392,-0.5519,-0.0768,-1.8869,0.9878,1.7204,0.4548,-0.9254,-0.1051,
3.063057,0.1392,-0.5519,-0.0768,-1.8869,0.9878,1.7204,1.0152,-0.4631,0.1452,
3.064442,0.1392,-0.5519,-0.0768,-2.3863,1.6961,1.9771,1.0152,-0.4631,0.1452,
3.101606,0.1392,-0.5519,-0.0768,-2.3863,1.6961,1.9771,1.0780,-0.2703,0.5117,
3.103230,0.1392,-0.5519,-0.0768,-2.9296,2.7672,-0.6044,1.0780,-0.2703,0.5117,
3.104409,0.0942,-0.4923,-0.1801,-2.9296,2.7672,-0.6044,1.0780,-0.2703,0.5117,
3.105146,0.1744,-0.5707,-0.2517,-2.9296,2.7672,-0.6044,1.0780,-0.2703,0.5117,
3.106249,0.1778,-0.6481,-0.2894,-2.9296,2.7672,-0.6044,1.0780,-0.2703,0.5117,
3.106983,0.3796,-0.8920,-0.3885,-2.9296,2.7672,-0.6044,1.0780,-0.2703,0.5117,
3.141527,0.3796,-0.8920,-0.3885,-2.9296,2.7672,-0.6044,1.0077,-0.9713,0.4361,
3.143837,0.3796,-0.8920,-0.3885,-2.6662,2.8493,-0.7611,1.0077,-0.9713,0.4361,
3.182326,0.7087,-1.0046,-0.6512,-2.6662,2.8493,-0.7611,1.0077,-0.9713,0.4361,
3.184434,1.0211,-0.8888,-0.8183,-2.6662,2.8493,-0.7611,1.0077,-0.9713,0.4361,
3.186065,1.0881,-0.8170,-0.5107,-2.6662,2.8493,-0.7611,1.0077,-0.9713,0.4361,
3.187550,1.0881,-0.8170,-0.5107,-2.6662,2.8493,-0.7611,0.2077,-1.4187,-0.1701,
3.188609,1.0881,-0.8170,-0.5107,2.7473,-0.6609,-4.2294,0.2077,-1.4187,-0.1701,
3.221076,1.0881,-0.8170,-0.5107,3.9187,-0.2826,-1.9501,0.2077,-1.4187,-0.1701,
3.222812,1.0881,-0.8170,-0.5107,3.9187,-0.2826,-1.9501,-0.3846,-1.0362,-0.7783,
3.260176,1.0881,-0.8170,-0.5107,3.9187,-0.2826,-1.9501,-0.1694,-0.9436,-0.4662,
3.261734,1.0881,-0.8170,-0.5107,3.7783,-0.3726,-1.6955,-0.1694,-0.9436,-0.4662,
3.262683,0.8462,-0.8661,-0.3648,3.7783,-0.3726,-1.6955,-0.1694,-0.9436,-0.4662,
3.263391,0.6114,-0.9389,-0.3883,3.7783,-0.3726,-1.6955,-0.1694,-0.9436,-0.4662,
3.264167,0.5631,-1.0031,-0.4357,3.7783,-0.3726,-1.6955,-0.1694,-0.9436,-0.4662,
3.264839,0.4602,-1.0476,-0.2999,3.7783,-0.3726,-1.6955,-0.1694,-0.9436,-0.4662,
3.265621,0.2596,-1.1404,0.2635,3.7783,-0.3726,-1.6955,-0.1694,-0.9436,-0.4662,
3.299756,0.2596,-1.1404,0.2635,3.7783,-0.3726,-1.6955,0.2056,-0.0636,0.0643,
3.301491,0.2596,-1.1404,0.2635,-0.3137,-2.1594,0.8200,0.2056,-0.0636,0.0643,
3.339457,0.2596,-1.1404,0.2635,-0.3137,-2.1594,0.8200,-0.1992,0.4967,1.3895,
3.342149,0.2596,-1.1404,0.2635,-5.8024,-1.3718,-0.2572,-0.1992,0.4967,1.3895,
3.344111,-0.1767,-1.1375,-0.1767,-5.8024,-1.3718,-0.2572,-0.1992,0.4967,1.3895,
3.345234,-0.2622,-0.9350,-0.4963,-5.8024,-1.3718,-0.2572,-0.1992,0.4967,1.3895,
3.346840,-0.1190,-0.9523,-0.1247,-5.8024,-1.3718,-0.2572,-0.1992,0.4967,1.3895,
3.348038,-0.0738,-0.8524,0.2445,-5.8024,-1.3718,-0.2572,-0.1992,0.4967,1.3895,
3.379043,-0.0738,-0.8524,0.2445,-5.8024,-1.3718,-0.2572,0.3622,0.5936,2.1884,
3.381420,-0.0738,-0.8524,0.2445,-5.0081,-1.0058,-0.4593,0.3622,0.5936,2.1884,
3.419565,0.1018,-0.7073,0.4851,-5.0081,-1.0058,-0.4593,0.3622,0.5936,2.1884,
3.422137,0.2589,-0.5394,0.3781,-5.0081,-1.0058,-0.4593,0.3622,0.5936,2.1884,
3.423436,0.2450,-0.3315,0.0781,-5.0081,-1.0058,-0.4593,0.3622,0.5936,2.1884,
3.424410,0.2450,-0.3315,0.0781,-5.0081,-1.0058,-0.4593,1.2069,0.6522,1.7858,
3.425757,0.2450,-0.3315,0.0781,-1.6296,2.2710,5.1625,1.2069,0.6522,1.7858,
3.458092,0.2450,-0.3315,0.0781,-1.6296,2.2710,5.1625,0.9534,0.1920,1.0284,
3.459975,0.2450,-0.3315,0.0781,-0.4646,4.2363,2.1428,0.9534,0.1920,1.0284,
3.498282,0.2450,-0.3315,0.0781,-0.4646,4.2363,2.1428,0.8245,1.2722,1.8177,
3.500428,0.1883,-0.3503,0.0234,-0.4646,4.2363,2.1428,0.8245,1.2722,1.8177,
3.501580,0.0962,-0.8375,0.2059,-0.4646,4.2363,2.1428,0.8245,1.2722,1.8177,
3.503741,-0.0384,-1.7419,0.1783,-0.4646,4.2363,2.1428,0.8245,1.2722,1.8177,
3.504718,-0.0250,-3.1291,-0.0050,-0.4646,4.2363,2.1428,0.8245,1.2722,1.8177,
3.505745,0.3943,-1.7803,-0.3094,-0.4646,4.2363,2.1428,0.8245,1.2722,1.8177,
3.506960,0.3943,-1.7803,-0.3094,0.1559,4.3243,1.7143,0.8245,1.2722,1.8177,
3.537287,0.3943,-1.7803,-0.3094,0.1559,4.3243,1.7143,0.6945,-0.8221,2.0393,
3.539885,0.3943,-1.7803,-0.3094,0.2757,-12.1110,0.0414,0.6945,-0.8221,2.0393,
3.577306,0.3943,-1.7803,-0.3094,0.2757,-12.1110,0.0414,0.5933,-0.7731,0.2859,
3.579740,0.5719,-0.7713,-0.1061,0.2757,-12.1110,0.0414,0.5933,-0.7731,0.2859,
3.580517,0.2799,-0.8841,-0.0294,0.2757,-12.1110,0.0414,0.5933,-0.7731,0.2859,
3.581330,0.0715,-0.9699,-0.0470,0.2757,-12.1110,0.0414,0.5933,-0.7731,0.2859,
3.581959,-0.0931,-0.9467,0.0326,0.2757,-12.1110,0.0414,0.5933,-0.7731,0.2859,
3.582893,-0.0931,-0.9467,0.0326,2.2915,1.0396,-0.3101,0.5933,-0.7731,0.2859,
3.616690,-0.0931,-0.9467,0.0326,2.2915,1.0396,-0.3101,0.5571,1.2434,-0.3501,
3.619102,-0.0931,-0.9467,0.0326,2.1147,1.0144,-0.5517,0.5571,1.2434,-0.3501,
3.656475,-0.1039,-0.9242,-0.0375,2.1147,1.0144,-0.5517,0.5571,1.2434,-0.3501,
3.659033,0.0080,-0.8465,-0.0336,2.1147,1.0144,-0.5517,0.5571,1.2434,-0.3501,
3.660267,0.1414,-0.8573,0.0805,2.1147,1.0144,-0.5517,0.5571,1.2434,-0.3501,
3.662004,0.1414,-0.8573,0.0805,2.1147,1.0144,-0.5517,0.6146,0.4360,0.2752,
3.663351,0.1414,-0.8573,0.0805,-1.3896,0.7086,-0.3243,0.6146,0.4360,0.2752,
3.695919,0.1414,-0.8573,0.0805,-1.3896,0.7086,-0.3243,0.8117,-0.0189,0.3082,
3.699268,0.1414,-0.8573,0.0805,0.6032,1.0426,-0.5026,0.8117,-0.0189,0.3082,
3.735993,0.1414,-0.8573,0.0805,0.6032,1.0426,-0.5026,0.8309,0.1526,0.2443,
3.737735,0.1414,-0.8573,0.0805,0.6882,1.0098,-0.8071,0.8309,0.1526,0.2443,
3.739656,0.1499,-0.8324,0.0217,0.6882,1.0098,-0.8071,0.8309,0.1526,0.2443,
3.740940,0.0972,-0.9193,-0.1034,0.6882,1.0098,-0.8071,0.8309,0.1526,0.2443,
3.742142,0.0151,-1.0021,-0.0724,0.6882,1.0098,-0.8071,0.8309,0.1526,0.2443,
3.743487,-0.0526,-1.0600,-0.0468,0.6882,1.0098,-0.8071,0.8309,0.1526,0.2443,
3.744857,-0.1129,-0.9831,0.0339,0.6882,1.0098,-0.8071,0.8309,0.1526,0.2443,
3.774940,-0.1129,-0.9831,0.0339,0.6882,1.0098,-0.8071,0.9321,-0.0434,0.5287,
3.777096,-0.1129,-0.9831,0.0339,-0.8602,-0.4342,-1.4086,0.9321,-0.0434,0.5287,
3.815824,-0.1129,-0.9831,0.0339,-0.8602,-0.4342,-1.4086,0.9289,0.0567,0.6342,
3.817954,-0.1129,-0.9831,0.0339,0.7502,0.0436,-1.4837,0.9289,0.0567,0.6342,
3.819445,-0.0606,-0.8434,0.0226,0.7502,0.0436,-1.4837,0.9289,0.0567,0.6342,
3.820575,0.1255,-0.9533,-0.0082,0.7502,0.0436,-1.4837,0.9289,0.0567,0.6342,
3.821545,0.2076,-1.0894,-0.0233,0.7502,0.0436,-1.4837,0.9289,0.0567,0.6342,
3.822705,0.1998,-1.0503,-0.0485,0.7502,0.0436,-1.4837,0.9289,0.0567,0.6342,
3.854979,0.1998,-1.0503,-0.0485,0.7502,0.0436,-1.4837,0.7084,0.4072,0.2379,
3.857506,0.1998,-1.0503,-0.0485,0.8510,-0.0002,-1.7208,0.7084,0.4072,0.2379,
3.895057,0.1658,-1.0857,-0.1034,0.8510,-0.0002,-1.7208,0.7084,0.4072,0.2379,
3.897735,0.1338,-1.0977,-0.1677,0.8510,-0.0002,-1.7208,0.7084,0.4072,0.2379,
3.899155,0.1206,-1.1404,-0.2251,0.8510,-0.0002,-1.7208,0.7084,0.4072,0.2379,
3.900200,0.1206,-1.1404,-0.2251,0.8510,-0.0002,-1.7208,0.3931,0.6543,0.0078,
3.901304,0.1206,-1.1404,-0.2251,1.6141,-1.1439,-2.8346,0.3931,0.6543,0.0078,
3.934297,0.1206,-1.1404,-0.2251,1.6141,-1.1439,-2.8346,-0.3643,0.3369,-0.0273,
3.937183,0.1206,-1.1404,-0.2251,2.1856,-2.8645,-4.1219,-0.3643,0.3369,-0.0273,
3.974081,0.1206,-1.1404,-0.2251,2.1856,-2.8645,-4.1219,-1.5766,-0.3971,-0.4215,
3.977063,0.1206,-1.1404,-0.2251,1.9736,-2.7399,-3.4654,-1.5766,-0.3971,-0.4215,
3.978573,0.1937,-1.2584,-0.2881,1.9736,-2.7399,-3.4654,-1.5766,-0.3971,-0.4215,
3.983954,0.3674,-1.3840,-0.2635,1.9736,-2.7399,-3.4654,-1.5766,-0.3971,-0.4215,
3.985876,0.5188,-1.5140,-0.2295,1.9736,-2.7399,-3.4654,-1.5766,-0.3971,-0.4215,
3.987515,0.4873,-1.3141,-0.2461,1.9736,-2.7399,-3.4654,-1.5766,-0.3971,-0.4215,
3.988778,0.1680,-1.0234,-0.2332,1.9736,-2.7399,-3.4654,-1.5766,-0.3971,-0.4215,
4.013575,0.1680,-1.0234,-0.2332,1.9736,-2.7399,-3.4654,-2.6216,-0.5686,-0.9200,
4.016694,0.1680,-1.0234,-0.2332,3.1674,-2.8871,-2.1946,-2.6216,-0.5686,-0.9200,
4.043561,-0.1789,-0.9633,-0.1178,3.1674,-2.8871,-2.1946,-2.6216,-0.5686,-0.9200,
4.046227,-0.3015,-1.2567,0.1912,3.1674,-2.8871,-2.1946,-2.6216,-0.5686,-0.9200,
4.047566,-0.2339,-1.5389,0.4057,3.1674,-2.8871,-2.1946,-2.6216,-0.5686,-0.9200,
4.057711,-0.2339,-1.5389,0.4057,3.1674,-2.8871,-2.1946,-2.7197,-0.2309,-0.7911,
4.060185,-0.2339,-1.5389,0.4057,-3.2446,-2.6352,2.6875,-2.7197,-0.2309,-0.7911,
4.093000,-0.2339,-1.5389,0.4057,-3.2446,-2.6352,2.6875,-2.1082,0.0344,-0.5269,
4.095294,-0.2339,-1.5389,0.4057,-2.5690,-3.0715,2.1012,-2.1082,0.0344,-0.5269,
4.131237,-0.1508,-1.4397,0.2730,-2.5690,-3.0715,2.1012,-2.1082,0.0344,-0.5269,
4.134304,-0.1493,-1.2543,0.0187,-2.5690,-3.0715,2.1012,-2.1082,0.0344,-0.5269,
4.135823,-0.1586,-1.1690,-0.2256,-2.5690,-3.0715,2.1012,-2.1082,0.0344,-0.5269,
4.137104,-0.1349,-1.0730,-0.2432,-2.5690,-3.0715,2.1012,-2.1082,0.0344,-0.5269,
4.138232,-0.1349,-1.0730,-0.2432,-2.5690,-3.0715,2.1012,-2.0666,-0.0253,-0.4598,
4.139562,-0.1349,-1.0730,-0.2432,-2.6932,-3.2242,2.8286,-2.0666,-0.0253,-0.4598,
4.171822,-0.1349,-1.0730,-0.2432,-2.6932,-3.2242,2.8286,-1.9292,-0.4642,-0.4300,
4.174383,-0.1349,-1.0730,-0.2432,-1.1792,-0.5045,2.9700,-1.9292,-0.4642,-0.4300,
4.212687,-0.1349,-1.0730,-0.2432,-1.1792,-0.5045,2.9700,-1.2656,-0.8381,-0.7283,
4.215268,-0.1349,-1.0730,-0.2432,-1.2990,-0.7091,3.4112,-1.2656,-0.8381,-0.7283,
4.216793,-0.0208,-0.9772,-0.0345,-1.2990,-0.7091,3.4112,-1.2656,-0.8381,-0.7283,
4.217872,0.1856,-0.9066,0.1785,-1.2990,-0.7091,3.4112,-1.2656,-0.8381,-0.7283,
4.219611,0.1969,-0.8832,0.0209,-1.2990,-0.7091,3.4112,-1.2656,-0.8381,-0.7283,
4.220836,-0.0081,-0.8275,-0.0619,-1.2990,-0.7091,3.4112,-1.2656,-0.8381,-0.7283,
4.221880,-0.1132,-0.7058,-0.0126,-1.2990,-0.7091,3.4112,-1.2656,-0.8381,-0.7283,
4.251161,-0.1132,-0.7058,-0.0126,-1.2990,-0.7091,3.4112,-0.7819,-1.1204,-0.6942,
4.253975,-0.1132,-0.7058,-0.0126,-1.1991,0.8808,3.8344,-0.7819,-1.1204,-0.6942,
4.291131,-0.1139,-0.6039,-0.0060,-1.1991,0.8808,3.8344,-0.7819,-1.1204,-0.6942,
4.293668,-0.0978,-0.5458,0.0290,-1.1991,0.8808,3.8344,-0.7819,-1.1204,-0.6942,
4.294811,-0.1012,-0.5057,0.0822,-1.1991,0.8808,3.8344,-0.7819,-1.1204,-0.6942,
4.296219,-0.1012,-0.5057,0.0822,-1.1991,0.8808,3.8344,0.0074,-0.9840,-0.2606,
4.297516,-0.1012,-0.5057,0.0822,-2.3602,3.2975,4.3326,0.0074,-0.9840,-0.2606,
4.330970,-0.1012,-0.5057,0.0822,-2.3602,3.2975,4.3326,0.8916,-0.6762,0.1921,
4.333380,-0.1012,-0.5057,0.0822,-1.6496,3.7552,2.8974,0.8916,-0.6762,0.1921,
4.370437,-0.1012,-0.5057,0.0822,-1.6496,3.7552,2.8974,1.4871,-0.6293,0.4094,
4.372736,-0.1012,-0.5057,0.0822,-1.3957,3.9070,2.3585,1.4871,-0.6293,0.4094,
4.374077,-0.1181,-0.4608,0.0610,-1.3957,3.9070,2.3585,1.4871,-0.6293,0.4094,
4.375200,-0.0526,-0.4676,-0.0453,-1.3957,3.9070,2.3585,1.4871,-0.6293,0.4094,
4.376424,0.0144,-0.6120,-0.2503,-1.3957,3.9070,2.3585,1.4871,-0.6293,0.4094,
4.377544,0.1033,-0.8512,-0.5635,-1.3957,3.9070,2.3585,1.4871,-0.6293,0.4094,
4.379527,0.2423,-1.2037,-0.9605,-1.3957,3.9070,2.3585,1.4871,-0.6293,0.4094,
4.409638,0.2423,-1.2037,-0.9605,-1.3957,3.9070,2.3585,0.8543,-0.9201,0.1207,
4.411937,0.2423,-1.2037,-0.9605,-1.2240,3.9452,2.0484,0.8543,-0.9201,0.1207,
4.450043,0.2423,-1.2037,-0.9605,-1.2240,3.9452,2.0484,-0.4741,-0.6964,-0.5429,
4.452115,0.2423,-1.2037,-0.9605,1.3899,-2.5078,-5.9463,-0.4741,-0.6964,-0.5429,
4.453566,0.3403,-1.4522,-1.2465,1.3899,-2.5078,-5.9463,-0.4741,-0.6964,-0.5429,
4.454775,0.4570,-1.2272,-1.1527,1.3899,-2.5078,-5.9463,-0.4741,-0.6964,-0.5429,
4.456064,0.3273,-0.9692,-0.5600,1.3899,-2.5078,-5.9463,-0.4741,-0.6964,-0.5429,
4.457041,0.1238,-0.8460,-0.4015,1.3899,-2.5078,-5.9463,-0.4741,-0.6964,-0.5429,
4.488253,0.1238,-0.8460,-0.4015,1.3899,-2.5078,-5.9463,-0.4325,-0.3332,-0.7475,
4.490749,0.1238,-0.8460,-0.4015,1.8628,-1.0549,-3.5772,-0.4325,-0.3332,-0.7475,
4.528506,0.1238,-0.8460,-0.4015,1.8628,-1.0549,-3.5772,-0.2259,-0.8679,-0.7283,
4.530854,0.1238,-0.8460,-0.4015,-0.2209,-3.4188,-2.1783,-0.2259,-0.8679,-0.7283,
4.532317,0.0180,-0.8639,-0.5854,-0.2209,-3.4188,-2.1783,-0.2259,-0.8679,-0.7283,
4.533692,0.0197,-1.1500,-0.7054,-0.2209,-3.4188,-2.1783,-0.2259,-0.8679,-0.7283,
4.534906,0.2738,-1.7502,-0.4433,-0.2209,-3.4188,-2.1783,-0.2259,-0.8679,-0.7283,
4.536363,0.1949,-1.6767,0.1230,-0.2209,-3.4188,-2.1783,-0.2259,-0.8679,-0.7283,
4.568163,0.1949,-1.6767,0.1230,-0.2209,-3.4188,-2.1783,-0.1630,-0.0296,-0.7272,
4.570410,0.1949,-1.6767,0.1230,-0.4639,-3.4226,-2.0850,-0.1630,-0.0296,-0.7272,
4.607683,0.1949,-1.6767,0.1230,-0.4639,-3.4226,-2.0850,0.4996,0.2240,0.5511,
4.609635,0.1949,-1.6767,0.1230,-5.2240,0.5322,2.8656,0.4996,0.2240,0.5511,
4.610562,-0.5971,-0.6071,-0.0687,-5.2240,0.5322,2.8656,0.4996,0.2240,0.5511,
4.611464,-0.8207,-0.2973,-0.2002,-5.2240,0.5322,2.8656,0.4996,0.2240,0.5511,
4.612424,-0.4435,-0.8160,0.0712,-5.2240,0.5322,2.8656,0.4996,0.2240,0.5511,
4.615869,0.0119,-1.2667,0.3480,-5.2240,0.5322,2.8656,0.4996,0.2240,0.5511,
4.647150,0.0119,-1.2667,0.3480,-5.2240,0.5322,2.8656,1.1537,1.1785,1.2244,
4.649075,0.0119,-1.2667,0.3480,-4.8468,0.7148,2.3608,1.1537,1.1785,1.2244,
4.687167,0.0119,-1.2667,0.3480,-4.8468,0.7148,2.3608,1.0322,0.2847,0.6310,
4.688971,0.0119,-1.2667,0.3480,-1.3862,-1.9211,4.5521,1.0322,0.2847,0.6310,
4.689983,0.1998,-1.3542,0.2474,-1.3862,-1.9211,4.5521,1.0322,0.2847,0.6310,
4.690672,0.2880,-1.1055,-0.0135,-1.3862,-1.9211,4.5521,1.0322,0.2847,0.6310,
4.691448,0.2648,-0.9032,-0.1171,-1.3862,-1.9211,4.5521,1.0322,0.2847,0.6310,
4.692291,0.2118,-0.8624,-0.0822,-1.3862,-1.9211,4.5521,1.0322,0.2847,0.6310,
4.725767,0.2118,-0.8624,-0.0822,-1.3862,-1.9211,4.5521,0.9971,-0.1851,0.1911,
4.727384,0.2118,-0.8624,-0.0822,1.9220,0.0180,1.2915,0.9971,-0.1851,0.1911,
4.766258,0.2118,-0.8624,-0.0822,1.9220,0.0180,1.2915,1.2208,0.1750,0.0685,
4.768532,0.2118,-0.8624,-0.0822,0.3804,0.0941,0.0920,1.2208,0.1750,0.0685,
4.770203,0.1431,-0.8956,-0.0683,0.3804,0.0941,0.0920,1.2208,0.1750,0.0685,
4.771470,0.0791,-0.9570,-0.1589,0.3804,0.0941,0.0920,1.2208,0.1750,0.0685,
4.772433,0.0681,-1.0212,-0.2114,0.3804,0.0941,0.0920,1.2208,0.1750,0.0685,
4.774900,0.0879,-1.0178,-0.1836,0.3804,0.0941,0.0920,1.2208,0.1750,0.0685,
4.805118,0.0879,-1.0178,-0.1836,0.3804,0.0941,0.0920,1.0343,0.6330,-0.2116,
4.807073,0.0879,-1.0178,-0.1836,0.2637,0.1407,-0.3079,1.0343,0.6330,-0.2116,
4.834536,0.0104,-0.9614,-0.1518,0.2637,0.1407,-0.3079,1.0343,0.6330,-0.2116,
4.835977,-0.0536,-0.9015,-0.1533,0.2637,0.1407,-0.3079,1.0343,0.6330,-0.2116,
4.836813,-0.0509,-0.8661,-0.1337,0.2637,0.1407,-0.3079,1.0343,0.6330,-0.2116,
4.844618,-0.0509,-0.8661,-0.1337,0.2637,0.1407,-0.3079,0.7606,0.8109,-0.1498,
4.845749,-0.0509,-0.8661,-0.1337,-0.6152,0.1409,-0.7694,0.7606,0.8109,-0.1498,
4.883781,-0.0509,-0.8661,-0.1337,-0.6152,0.1409,-0.7694,0.7265,0.6405,0.1570,
4.884585,-0.0509,-0.8661,-0.1337,-0.9551,0.7964,-0.2191,0.7265,0.6405,0.1570,
4.922688,-0.0348,-0.8832,-0.0700,-0.9551,0.7964,-0.2191,0.7265,0.6405,0.1570,
4.924824,0.0085,-0.9340,-0.0275,-0.9551,0.7964,-0.2191,0.7265,0.6405,0.1570,
4.926395,0.0940,-0.9552,-0.0392,-0.9551,0.7964,-0.2191,0.7265,0.6405,0.1570,
4.927541,0.1710,-0.9523,-0.0499,-0.9551,0.7964,-0.2191,0.7265,0.6405,0.1570,
4.928541,0.1710,-0.9523,-0.0499,-0.9551,0.7964,-0.2191,0.8202,0.4413,0.3647,
4.929967,0.1710,-0.9523,-0.0499,-0.8099,0.8042,-0.5324,0.8202,0.4413,0.3647,
4.964120,0.1710,-0.9523,-0.0499,-0.8099,0.8042,-0.5324,0.8490,0.1366,0.3594,
4.966181,0.1710,-0.9523,-0.0499,1.1373,0.1286,-0.5152,0.8490,0.1366,0.3594,
5.005616,0.1710,-0.9523,-0.0499,1.1373,0.1286,-0.5152,0.8373,0.0855,0.2496,
5.008235,0.1710,-0.9523,-0.0499,1.2124,0.1221,-0.8204,0.8373,0.0855,0.2496,
5.009562,0.2184,-0.9846,-0.0399,1.2124,0.1221,-0.8204,0.8373,0.0855,0.2496,
5.010564,0.2208,-0.9599,-0.0509,1.2124,0.1221,-0.8204,0.8373,0.0855,0.2496,
5.011362,0.1553,-0.9103,-0.0705,1.2124,0.1221,-0.8204,0.8373,0.0855,0.2496,
5.012597,0.0669,-0.9474,-0.0348,1.2124,0.1221,-0.8204,0.8373,0.0855,0.2496,
5.013871,-0.0003,-0.9907,0.0214,1.2124,0.1221,-0.8204,0.8373,0.0855,0.2496,
5.043657,-0.0003,-0.9907,0.0214,1.2124,0.1221,-0.8204,0.8586,0.2645,0.3295,
5.045942,-0.0003,-0.9907,0.0214,1.1914,0.3444,-1.2167,0.8586,0.2645,0.3295,
5.083414,-0.0003,-0.9907,0.0214,1.1914,0.3444,-1.2167,0.8650,0.3230,0.5298,
5.085888,-0.0003,-0.9907,0.0214,-0.5300,-0.3750,-1.2466,0.8650,0.3230,0.5298,
5.087104,-0.0660,-1.0029,-0.0091,-0.5300,-0.3750,-1.2466,0.8650,0.3230,0.5298,
5.088440,-0.0851,-1.0381,-0.0834,-0.5300,-0.3750,-1.2466,0.8650,0.3230,0.5298,
5.089620,0.0310,-1.0388,-0.1408,-0.5300,-0.3750,-1.2466,0.8650,0.3230,0.5298,
5.090581,0.2044,-0.9694,-0.1042,-0.5300,-0.3750,-1.2466,0.8650,0.3230,0.5298,
5.123116,0.2044,-0.9694,-0.1042,-0.3321,-0.3995,-1.4721,0.8650,0.3230,0.5298,
5.125392,0.2044,-0.9694,-0.1042,-0.3321,-0.3995,-1.4721,0.6679,0.5382,0.4446,
5.163032,0.2044,-0.9694,-0.1042,-0.3321,-0.3995,-1.4721,0.4868,0.8376,0.1452,
5.165235,0.2044,-0.9694,-0.1042,1.9831,-0.4003,-2.3210,0.4868,0.8376,0.1452,
5.166567,0.3019,-1.0175,-0.0443,1.9831,-0.4003,-2.3210,0.4868,0.8376,0.1452,
5.167830,0.3307,-1.1353,-0.1186,1.9831,-0.4003,-2.3210,0.4868,0.8376,0.1452,
5.168980,0.3009,-1.1468,-0.2249,1.9831,-0.4003,-2.3210,0.4868,0.8376,0.1452,
5.170313,0.2995,-1.1832,-0.2872,1.9831,-0.4003,-2.3210,0.4868,0.8376,0.1452,
5.202266,0.2995,-1.1832,-0.2872,1.9831,-0.4003,-2.3210,-0.1747,0.3369,-0.0486,
5.204380,0.2995,-1.1832,-0.2872,3.2151,-1.7959,-3.3109,-0.1747,0.3369,-0.0486,
5.235329,0.3811,-1.2934,-0.2280,3.2151,-1.7959,-3.3109,-0.1747,0.3369,-0.0486,
5.237991,0.4079,-1.3789,-0.1880,3.2151,-1.7959,-3.3109,-0.1747,0.3369,-0.0486,
5.239449,0.2662,-1.2379,-0.3091,3.2151,-1.7959,-3.3109,-0.1747,0.3369,-0.0486,
5.243174,0.2662,-1.2379,-0.3091,3.2151,-1.7959,-3.3109,-1.1644,-0.2075,-0.5962,
5.244613,0.2662,-1.2379,-0.3091,3.3304,-3.1469,-3.1262,-1.1644,-0.2075,-0.5962,
5.281655,0.2662,-1.2379,-0.3091,3.3304,-3.1469,-3.1262,-2.4523,0.0386,-0.9424,
5.284211,0.2662,-1.2379,-0.3091,-1.6451,-0.7430,-1.7424,-2.4523,0.0386,-0.9424,
5.322541,0.2662,-1.2379,-0.3091,-1.6451,-0.7430,-1.7424,-2.8368,0.6522,-0.9946,
5.324783,0.2662,-1.2379,-0.3091,-2.0111,-0.8378,-0.6676,-2.8368,0.6522,-0.9946,
5.326240,0.0383,-0.9855,-0.4733,-2.0111,-0.8378,-0.6676,-2.8368,0.6522,-0.9946,
5.327203,-0.1352,-0.9491,-0.2815,-2.0111,-0.8378,-0.6676,-2.8368,0.6522,-0.9946,
5.328175,-0.2693,-1.2487,0.1577,-2.0111,-0.8378,-0.6676,-2.8368,0.6522,-0.9946,
5.329823,-0.3416,-1.6327,0.4265,-2.0111,-0.8378,-0.6676,-2.8368,0.6522,-0.9946,
5.331208,-0.3822,-1.6403,0.3085,-2.0111,-0.8378,-0.6676,-2.8368,0.6522,-0.9946,
5.360541,-0.3822,-1.6403,0.3085,-2.0111,-0.8378,-0.6676,-2.0144,1.2307,-0.7442,
5.363486,-0.3822,-1.6403,0.3085,-2.3338,-0.9814,0.0394,-2.0144,1.2307,-0.7442,
5.401020,-0.3822,-1.6403,0.3085,-2.3338,-0.9814,0.0394,-1.7428,0.7406,-0.4172,
5.403417,-0.3822,-1.6403,0.3085,-4.8099,-5.6723,4.8715,-1.7428,0.7406,-0.4172,
5.404739,-0.3577,-1.3210,-0.0135,-4.8099,-5.6723,4.8715,-1.7428,0.7406,-0.4172,
5.406411,-0.1901,-1.1482,-0.2141,-4.8099,-5.6723,4.8715,-1.7428,0.7406,-0.4172,
5.407525,-0.0677,-1.0515,-0.2398,-4.8099,-5.6723,4.8715,-1.7428,0.7406,-0.4172,
5.409053,0.0933,-0.9164,-0.1643,-4.8099,-5.6723,4.8715,-1.7428,0.7406,-0.4172,
5.440175,0.0933,-0.9164,-0.1643,-4.8099,-5.6723,4.8715,-1.7055,-0.4035,-0.3394,
5.443019,0.0933,-0.9164,-0.1643,-1.8597,-1.0367,1.1225,-1.7055,-0.4035,-0.3394,
5.480573,0.0933,-0.9164,-0.1643,-1.8597,-1.0367,1.1225,-1.2698,-0.9510,-0.5344,
5.483616,0.0933,-0.9164,-0.1643,0.4684,0.5565,3.5725,-1.2698,-0.9510,-0.5344,
5.486047,0.3192,-0.8644,-0.0035,0.4684,0.5565,3.5725,-1.2698,-0.9510,-0.5344,
5.487054,0.2377,-0.8827,-0.0064,0.4684,0.5565,3.5725,-1.2698,-0.9510,-0.5344,
5.488043,0.0126,-0.8175,0.0053,0.4684,0.5565,3.5725,-1.2698,-0.9510,-0.5344,
5.489263,-0.1161,-0.6841,-0.0099,0.4684,0.5565,3.5725,-1.2698,-0.9510,-0.5344,
5.518569,-0.1161,-0.6841,-0.0099,0.4684,0.5565,3.5725,-0.6562,-0.9276,-0.4247,
5.520527,-0.1161,-0.6841,-0.0099,0.4493,0.4288,3.7905,-0.6562,-0.9276,-0.4247,
5.558670,-0.1161,-0.6841,-0.0099,0.4493,0.4288,3.7905,-0.0149,-0.7326,0.0494,
5.561478,-0.1161,-0.6841,-0.0099,-2.7800,2.7754,3.7894,-0.0149,-0.7326,0.0494,
5.563018,-0.1699,-0.6125,-0.0162,-2.7800,2.7754,3.7894,-0.0149,-0.7326,0.0494,
5.564283,-0.1870,-0.5353,0.0270,-2.7800,2.7754,3.7894,-0.0149,-0.7326,0.0494,
5.565616,-0.1132,-0.4918,0.0644,-2.7800,2.7754,3.7894,-0.0149,-0.7326,0.0494,
5.566903,-0.0135,-0.5438,0.0192,-2.7800,2.7754,3.7894,-0.0149,-0.7326,0.0494,
5.597657,-0.0135,-0.5438,0.0192,-2.7800,2.7754,3.7894,0.7872,-0.5696,0.4787,
5.600307,-0.0135,-0.5438,0.0192,-2.4872,2.8621,3.4805,0.7872,-0.5696,0.4787,
5.627162,0.0249,-0.6235,-0.0981,-2.4872,2.8621,3.4805,0.7872,-0.5696,0.4787,
5.629862,0.0459,-0.7290,-0.2515,-2.4872,2.8621,3.4805,0.7872,-0.5696,0.4787,
5.631133,0.1111,-0.9020,-0.4623,-2.4872,2.8621,3.4805,0.7872,-0.5696,0.4787,
5.637940,0.1111,-0.9020,-0.4623,-1.0105,3.5495,2.9395,0.7872,-0.5696,0.4787,
5.640228,0.1111,-0.9020,-0.4623,-1.0105,3.5495,2.9395,1.3007,-0.6197,0.4712,
5.677992,0.1111,-0.9020,-0.4623,-1.0105,3.5495,2.9395,0.8714,-0.8189,0.1474,
5.680551,0.1111,-0.9020,-0.4623,0.6556,0.1844,-1.9233,0.8714,-0.8189,0.1474,
5.714811,0.2105,-1.0884,-0.7098,0.6556,0.1844,-1.9233,0.8714,-0.8189,0.1474,
5.717884,0.3508,-1.2250,-0.9067,0.6556,0.1844,-1.9233,0.8714,-0.8189,0.1474,
5.719110,0.4465,-1.1644,-0.9416,0.6556,0.1844,-1.9233,0.8714,-0.8189,0.1474,
5.720239,0.3371,-1.0437,-0.7699,0.6556,0.1844,-1.9233,0.8714,-0.8189,0.1474,
5.721568,0.3371,-1.0437,-0.7699,3.0014,-2.1259,-5.7027,0.8714,-0.8189,0.1474,
5.722992,0.3371,-1.0437,-0.7699,3.0014,-2.1259,-5.7027,-0.0501,-0.3790,-0.4151,
5.757286,0.3371,-1.0437,-0.7699,0.8790,-0.5093,-2.7874,-0.0501,-0.3790,-0.4151,
5.760166,0.3371,-1.0437,-0.7699,0.8790,-0.5093,-2.7874,-0.3665,-0.2000,-0.7570,
5.796981,0.3371,-1.0437,-0.7699,0.8790,-0.5093,-2.7874,-0.3558,-1.0181,-0.8231,
5.799722,0.3371,-1.0437,-0.7699,0.7001,-0.5781,-2.5737,-0.3558,-1.0181,-0.8231,
5.801385,0.2154,-0.9975,-0.6365,0.7001,-0.5781,-2.5737,-0.3558,-1.0181,-0.8231,
5.802747,0.1732,-0.9870,-0.5806,0.7001,-0.5781,-2.5737,-0.3558,-1.0181,-0.8231,
5.803867,0.1768,-0.9357,-0.5654,0.7001,-0.5781,-2.5737,-0.3558,-1.0181,-0.8231,
5.805123,0.0696,-0.8614,-0.5122,0.7001,-0.5781,-2.5737,-0.3558,-1.0181,-0.8231,
5.806452,0.0041,-0.8639,-0.4176,0.7001,-0.5781,-2.5737,-0.3558,-1.0181,-0.8231,
5.836748,0.0041,-0.8639,-0.4176,0.7001,-0.5781,-2.5737,0.2418,-1.0021,-0.6377,
5.839224,0.0041,-0.8639,-0.4176,0.5927,-0.5677,-2.5683,0.2418,-1.0021,-0.6377,
5.877208,0.0041,-0.8639,-0.4176,0.5927,-0.5677,-2.5683,0.2098,0.4285,-0.3693,
5.879881,0.0041,-0.8639,-0.4176,-0.7122,-0.6688,-1.0573,0.2098,0.4285,-0.3693,
5.881169,0.1453,-1.2316,-0.3656,-0.7122,-0.6688,-1.0573,0.2098,0.4285,-0.3693,
5.882613,0.0735,-1.8074,-0.0145,-0.7122,-0.6688,-1.0573,0.2098,0.4285,-0.3693,
5.883871,-0.6770,-1.3649,-0.2522,-0.7122,-0.6688,-1.0573,0.2098,0.4285,-0.3693,
5.885271,-0.7227,-0.5323,-0.2828,-0.7122,-0.6688,-1.0573,0.2098,0.4285,-0.3693,
5.914964,-0.7227,-0.5323,-0.2828,-0.7122,-0.6688,-1.0573,-0.0362,0.2964,0.7535,
5.917054,-0.7227,-0.5323,-0.2828,-5.4359,-3.0256,1.3533,-0.0362,0.2964,0.7535,
5.955944,-0.7227,-0.5323,-0.2828,-5.4359,-3.0256,1.3533,0.7499,1.0101,1.1722,
5.958656,-0.7227,-0.5323,-0.2828,-0.5721,-0.1409,4.5431,0.7499,1.0101,1.1722,
5.960120,-0.4000,-0.6728,-0.0854,-0.5721,-0.1409,4.5431,0.7499,1.0101,1.1722,
5.961287,0.0889,-1.0280,0.2682,-0.5721,-0.1409,4.5431,0.7499,1.0101,1.1722,
5.963012,0.3776,-1.1622,0.3625,-0.5721,-0.1409,4.5431,0.7499,1.0101,1.1722,
5.964241,0.3884,-1.0432,0.1338,-0.5721,-0.1409,4.5431,0.7499,1.0101,1.1722,
5.996145,0.3884,-1.0432,0.1338,-0.5309,-0.0148,4.0244,0.7499,1.0101,1.1722,
5.998674,0.3884,-1.0432,0.1338,-0.5309,-0.0148,4.0244,1.1526,0.8908,0.3338,
6.026635,0.2323,-0.8876,-0.0678,-0.5309,-0.0148,4.0244,1.1526,0.8908,0.3338,
6.028389,0.1407,-0.9000,-0.2031,-0.5309,-0.0148,4.0244,1.1526,0.8908,0.3338,
6.029278,0.0454,-0.9811,-0.2229,-0.5309,-0.0148,4.0244,1.1526,0.8908,0.3338,
6.032904,0.0454,-0.9811,-0.2229,-0.5309,-0.0148,4.0244,1.0120,0.3454,0.0142,
6.034048,0.0454,-0.9811,-0.2229,1.6867,0.1702,1.3856,1.0120,0.3454,0.0142,
6.073232,0.0454,-0.9811,-0.2229,1.6867,0.1702,1.3856,0.8490,0.2155,0.1591,
6.075018,0.0454,-0.9811,-0.2229,-0.8811,-0.0213,-0.2396,0.8490,0.2155,0.1591,
6.097502,-0.0553,-0.9841,-0.1606,-0.8811,-0.0213,-0.2396,0.8490,0.2155,0.1591,
6.099760,-0.0333,-0.9430,-0.1530,-0.8811,-0.0213,-0.2396,0.8490,0.2155,0.1591,
6.101291,0.0261,-0.9555,-0.1423,-0.8811,-0.0213,-0.2396,0.8490,0.2155,0.1591,
6.102598,0.1109,-0.9775,-0.0878,-0.8811,-0.0213,-0.2396,0.8490,0.2155,0.1591,
6.113705,0.1109,-0.9775,-0.0878,-0.8811,-0.0213,-0.2396,0.7723,0.0578,0.3626,
6.116449,0.1109,-0.9775,-0.0878,-0.7353,0.0297,-0.5234,0.7723,0.0578,0.3626,
6.152455,0.1109,-0.9775,-0.0878,-0.7353,0.0297,-0.5234,0.8000,0.0951,0.2720,
6.154298,0.1109,-0.9775,-0.0878,0.4455,0.1078,0.0652,0.8000,0.0951,0.2720,
6.186641,0.1534,-0.9631,-0.0326,0.4455,0.1078,0.0652,0.8000,0.0951,0.2720,
6.190837,0.1495,-0.9496,-0.0189,0.4455,0.1078,0.0652,0.8000,0.0951,0.2720,
6.192652,0.1719,-0.9325,-0.0272,0.4455,0.1078,0.0652,0.8000,0.0951,0.2720,
6.194132,0.1499,-0.9350,-0.0675,0.4455,0.1078,0.0652,0.8000,0.0951,0.2720,
6.195158,0.1499,-0.9350,-0.0675,0.4455,0.1078,0.0652,0.9427,0.2890,0.0803,
6.196341,0.1499,-0.9350,-0.0675,1.0413,0.3883,0.1857,0.9427,0.2890,0.0803,
6.231965,0.1499,-0.9350,-0.0675,1.0413,0.3883,0.1857,0.9896,0.3294,0.0281,
6.234570,0.1499,-0.9350,-0.0675,0.1681,0.3807,-0.8561,0.9896,0.3294,0.0281,
6.272045,0.1052,-0.9474,-0.0846,0.1681,0.3807,-0.8561,0.9896,0.3294,0.0281,
6.274513,0.0725,-0.9374,-0.1154,0.1681,0.3807,-0.8561,0.9896,0.3294,0.0281,
6.275814,0.0253,-0.9372,-0.1198,0.1681,0.3807,-0.8561,0.9896,0.3294,0.0281,
6.276952,0.0253,-0.9372,-0.1198,0.2126,0.3774,-1.1758,0.9896,0.3294,0.0281,
6.278063,0.0253,-0.9372,-0.1198,0.2126,0.3774,-1.1758,0.8820,0.2080,0.1271,
6.311959,0.0253,-0.9372,-0.1198,0.2126,0.3774,-1.1758,0.8458,0.1547,0.2933,
6.314544,0.0253,-0.9372,-0.1198,-0.3937,0.3651,-0.9324,0.8458,0.1547,0.2933,
6.351321,-0.0015,-0.9445,-0.0724,-0.3937,0.3651,-0.9324,0.8458,0.1547,0.2933,
6.353550,-0.0086,-0.9408,-0.0443,-0.3937,0.3651,-0.9324,0.8458,0.1547,0.2933,
6.354790,-0.0091,-0.9369,-0.0343,-0.3937,0.3651,-0.9324,0.8458,0.1547,0.2933,
6.356071,0.0109,-0.9489,0.0065,-0.3937,0.3651,-0.9324,0.8458,0.1547,0.2933,
6.357177,0.0205,-0.9706,0.0322,-0.3937,0.3651,-0.9324,0.8458,0.1547,0.2933,
6.358156,0.0459,-0.9865,-0.0028,-0.3937,0.3651,-0.9324,0.8458,0.1547,0.2933,
6.359183,0.0459,-0.9865,-0.0028,-0.3937,0.3651,-0.9324,0.8969,0.2261,0.4669,
6.360467,0.0459,-0.9865,-0.0028,0.1024,0.0729,-0.6533,0.8969,0.2261,0.4669,
6.390829,0.0459,-0.9865,-0.0028,0.3186,0.0353,-1.0140,0.8969,0.2261,0.4669,
6.393571,0.0459,-0.9865,-0.0028,0.3186,0.0353,-1.0140,0.9981,0.1782,0.5682,
6.430442,0.0459,-0.9865,-0.0028,0.3186,0.0353,-1.0140,0.8309,0.1984,0.5255,
6.433307,0.0459,-0.9865,-0.0028,1.7879,-0.7804,-2.2336,0.8309,0.1984,0.5255,
6.436945,0.0891,-1.0305,-0.0504,1.7879,-0.7804,-2.2336,0.8309,0.1984,0.5255,
6.438249,0.1419,-1.0549,-0.1117,1.7879,-0.7804,-2.2336,0.8309,0.1984,0.5255,
6.439447,0.2416,-1.0603,-0.0915,1.7879,-0.7804,-2.2336,0.8309,0.1984,0.5255,
6.440657,0.2594,-1.0899,-0.0668,1.7879,-0.7804,-2.2336,0.8309,0.1984,0.5255,
6.470562,0.2594,-1.0899,-0.0668,1.7879,-0.7804,-2.2336,0.5550,0.3923,0.2614,
6.473183,0.2594,-1.0899,-0.0668,1.8779,-0.8030,-2.3966,0.5550,0.3923,0.2614,
6.509806,0.2594,-1.0899,-0.0668,1.8779,-0.8030,-2.3966,0.1459,0.4306,0.1058,
6.512433,0.2594,-1.0899,-0.0668,2.4148,-1.5528,-2.9943,0.1459,0.4306,0.1058,
6.513924,0.2130,-1.1319,-0.1491,2.4148,-1.5528,-2.9943,0.1459,0.4306,0.1058,
6.515023,0.1565,-1.1583,-0.2214,2.4148,-1.5528,-2.9943,0.1459,0.4306,0.1058,
6.516687,0.1372,-1.1534,-0.3353,2.4148,-1.5528,-2.9943,0.1459,0.4306,0.1058,
6.518798,0.2589,-1.1807,-0.3990,2.4148,-1.5528,-2.9943,0.1459,0.4306,0.1058,
6.549637,0.2589,-1.1807,-0.3990,2.4148,-1.5528,-2.9943,-0.7415,0.0429,-0.0412,
6.553165,0.2589,-1.1807,-0.3990,2.3621,-1.4852,-2.6691,-0.7415,0.0429,-0.0412,
6.588560,0.2589,-1.1807,-0.3990,2.3621,-1.4852,-2.6691,-1.6608,-0.4077,-0.6367,
6.591003,0.2589,-1.1807,-0.3990,2.5357,-1.9595,-3.6756,-1.6608,-0.4077,-0.6367,
6.593519,0.3776,-1.2213,-0.2227,2.5357,-1.9595,-3.6756,-1.6608,-0.4077,-0.6367,
6.596128,0.3703,-1.2562,-0.0839,2.5357,-1.9595,-3.6756,-1.6608,-0.4077,-0.6367,
6.597570,0.2303,-1.1749,-0.0944,2.5357,-1.9595,-3.6756,-1.6608,-0.4077,-0.6367,
6.598701,-0.0387,-1.0058,-0.1320,2.5357,-1.9595,-3.6756,-1.6608,-0.4077,-0.6367,
6.628294,-0.0387,-1.0058,-0.1320,2.5357,-1.9595,-3.6756,-2.4448,-0.3672,-0.9360,
6.631253,-0.0387,-1.0058,-0.1320,1.4591,-1.5448,-0.6144,-2.4448,-0.3672,-0.9360,
6.669463,-0.0387,-1.0058,-0.1320,1.4591,-1.5448,-0.6144,-2.6653,0.3305,-0.5930,
6.671980,-0.0387,-1.0058,-0.1320,-4.0709,-3.5231,2.3237,-2.6653,0.3305,-0.5930,
6.674041,-0.3357,-0.9924,-0.0895,-4.0709,-3.5231,2.3237,-2.6653,0.3305,-0.5930,
6.675299,-0.4032,-1.3530,0.0668,-4.0709,-3.5231,2.3237,-2.6653,0.3305,-0.5930,
6.676727,-0.3394,-1.6825,0.3143,-4.0709,-3.5231,2.3237,-2.6653,0.3305,-0.5930,
6.677695,-0.3098,-1.4920,0.2059,-4.0709,-3.5231,2.3237,-2.6653,0.3305,-0.5930,
6.707576,-0.3098,-1.4920,0.2059,-4.0709,-3.5231,2.3237,-2.0730,1.0187,-0.2628,
6.710554,-0.3098,-1.4920,0.2059,-4.1733,-3.6125,3.0321,-2.0730,1.0187,-0.2628,
6.748062,-0.3098,-1.4920,0.2059,-4.1733,-3.6125,3.0321,-1.9942,0.4786,-0.0923,
6.750663,-0.3098,-1.4920,0.2059,-3.1259,-3.2017,2.3217,-1.9942,0.4786,-0.0923,
6.753344,-0.2793,-1.2428,-0.1288,-3.1259,-3.2017,2.3217,-1.9942,0.4786,-0.0923,
6.754562,-0.1603,-1.1241,-0.2153,-3.1259,-3.2017,2.3217,-1.9942,0.4786,-0.0923,
6.756011,-0.0323,-0.9936,-0.1762,-3.1259,-3.2017,2.3217,-1.9942,0.4786,-0.0923,
6.757170,0.0693,-0.9225,-0.0751,-3.1259,-3.2017,2.3217,-1.9942,0.4786,-0.0923,
6.787026,0.0693,-0.9225,-0.0751,-3.1259,-3.2017,2.3217,-1.8355,0.0450,-0.2148,
6.790311,0.0693,-0.9225,-0.0751,-3.1559,-3.3769,2.9462,-1.8355,0.0450,-0.2148,
6.827507,0.0693,-0.9225,-0.0751,-3.1559,-3.3769,2.9462,-1.1196,-0.4844,-0.5877,
6.830066,0.1925,-0.8993,0.0808,-3.1559,-3.3769,2.9462,-1.1196,-0.4844,-0.5877,
6.831304,0.2110,-0.8868,0.0099,-3.1559,-3.3769,2.9462,-1.1196,-0.4844,-0.5877,
6.832765,0.1057,-0.8148,-0.1044,-3.1559,-3.3769,2.9462,-1.1196,-0.4844,-0.5877,
6.833933,-0.0252,-0.6885,-0.1069,-3.1559,-3.3769,2.9462,-1.1196,-0.4844,-0.5877,
6.834792,-0.0252,-0.6885,-0.1069,-0.0985,-0.1442,3.2074,-1.1196,-0.4844,-0.5877,
6.866457,-0.0252,-0.6885,-0.1069,-0.0985,-0.1442,3.2074,-0.6413,-0.9926,-0.6771,
6.869797,-0.0252,-0.6885,-0.1069,0.0170,1.1036,3.3146,-0.6413,-0.9926,-0.6771,
6.906312,-0.0252,-0.6885,-0.1069,0.0170,1.1036,3.3146,0.0096,-0.8445,-0.3054,
6.908717,-0.0252,-0.6885,-0.1069,-2.0770,3.5100,4.0903,0.0096,-0.8445,-0.3054,
6.910153,-0.1080,-0.5973,-0.0507,-2.0770,3.5100,4.0903,0.0096,-0.8445,-0.3054,
6.911413,-0.1308,-0.5387,0.0268,-2.0770,3.5100,4.0903,0.0096,-0.8445,-0.3054,
6.912476,-0.1295,-0.4962,0.0727,-2.0770,3.5100,4.0903,0.0096,-0.8445,-0.3054,
6.913669,-0.0966,-0.4617,0.0475,-2.0770,3.5100,4.0903,0.0096,-0.8445,-0.3054,
6.945717,-0.0966,-0.4617,0.0475,-2.0770,3.5100,4.0903,0.8245,-0.3981,0.1197,
6.948081,-0.0966,-0.4617,0.0475,-1.9411,3.5770,3.7491,0.8245,-0.3981,0.1197,
6.984522,-0.0267,-0.5196,-0.0595,-1.9411,3.5770,3.7491,0.8245,-0.3981,0.1197,
6.987015,0.0185,-0.6867,-0.2617,-1.9411,3.5770,3.7491,0.8245,-0.3981,0.1197,
6.988311,0.0720,-0.9284,-0.5525,-1.9411,3.5770,3.7491,0.8245,-0.3981,0.1197,
6.989805,0.0720,-0.9284,-0.5525,-1.9411,3.5770,3.7491,1.3539,-0.3704,0.2528,
6.991133,0.0720,-0.9284,-0.5525,-0.9245,3.5857,2.1852,1.3539,-0.3704,0.2528,
7.025060,0.0720,-0.9284,-0.5525,-0.9245,3.5857,2.1852,0.7574,-0.6495,0.0100,
7.027627,0.0720,-0.9284,-0.5525,1.2904,-2.1705,-5.9872,0.7574,-0.6495,0.0100,
7.065070,0.0720,-0.9284,-0.5525,1.2904,-2.1705,-5.9872,-0.3430,-0.6772,-0.5685,
7.067641,0.0720,-0.9284,-0.5525,1.1445,-2.1872,-5.7503,-0.3430,-0.6772,-0.5685,
7.070186,0.1710,-1.2047,-0.9478,1.1445,-2.1872,-5.7503,-0.3430,-0.6772,-0.5685,
7.071546,0.3129,-1.3356,-1.2270,1.1445,-2.1872,-5.7503,-0.3430,-0.6772,-0.5685,
7.072927,0.4981,-1.2037,-1.1371,1.1445,-2.1872,-5.7503,-0.3430,-0.6772,-0.5685,
7.074135,0.4419,-1.0354,-0.6683,1.1445,-2.1872,-5.7503,-0.3430,-0.6772,-0.5685,
7.075694,0.2613,-0.9135,-0.4814,1.1445,-2.1872,-5.7503,-0.3430,-0.6772,-0.5685,
7.103672,0.2613,-0.9135,-0.4814,1.1445,-2.1872,-5.7503,-0.3484,-0.6400,-0.8369,
7.106181,0.2613,-0.9135,-0.4814,2.9823,-1.2046,-4.0966,-0.3484,-0.6400,-0.8369,
7.143866,0.2613,-0.9135,-0.4814,2.9823,-1.2046,-4.0966,0.0309,-0.8978,-0.7102,
7.146570,0.2613,-0.9135,-0.4814,-0.4982,-0.0642,-0.9861,0.0309,-0.8978,-0.7102,
7.147915,0.1175,-0.8629,-0.5158,-0.4982,-0.0642,-0.9861,0.0309,-0.8978,-0.7102,
7.149264,-0.0005,-0.8556,-0.4628,-0.4982,-0.0642,-0.9861,0.0309,-0.8978,-0.7102,
7.150439,0.0576,-1.0779,-0.3687,-0.4982,-0.0642,-0.9861,0.0309,-0.8978,-0.7102,
7.151635,0.0131,-1.7370,-0.2307,-0.4982,-0.0642,-0.9861,0.0309,-0.8978,-0.7102,
7.183252,0.0131,-1.7370,-0.2307,-0.4982,-0.0642,-0.9861,0.1630,0.4424,-0.5078,
7.185865,0.0131,-1.7370,-0.2307,-0.7272,-0.0649,-1.0487,0.1630,0.4424,-0.5078,
7.222427,0.0131,-1.7370,-0.2307,-0.7272,-0.0649,-1.0487,-0.1236,0.7481,0.3487,
7.224782,0.0131,-1.7370,-0.2307,-4.7427,-4.3989,0.6185,-0.1236,0.7481,0.3487,
7.226252,-0.4828,-1.7353,-0.2986,-4.7427,-4.3989,0.6185,-0.1236,0.7481,0.3487,
7.227466,-0.6177,-0.6740,-0.3062,-4.7427,-4.3989,0.6185,-0.1236,0.7481,0.3487,
7.228392,-0.4816,-0.3645,0.0175,-4.7427,-4.3989,0.6185,-0.1236,0.7481,0.3487,
7.229577,-0.3560,-0.8688,0.1269,-4.7427,-4.3989,0.6185,-0.1236,0.7481,0.3487,
7.262692,-0.3560,-0.8688,0.1269,-4.7427,-4.3989,0.6185,0.6114,1.0261,1.3543,
7.264961,-0.3560,-0.8688,0.1269,-4.3066,-4.1954,0.3474,0.6114,1.0261,1.3543,
7.303510,-0.3560,-0.8688,0.1269,-4.3066,-4.1954,0.3474,0.9576,1.1220,0.9442,
7.306219,-0.3560,-0.8688,0.1269,-3.1503,1.3161,3.9273,0.9576,1.1220,0.9442,
7.307660,0.0195,-1.2599,0.2542,-3.1503,1.3161,3.9273,0.9576,1.1220,0.9442,
7.308776,0.3109,-1.1790,0.2252,-3.1503,1.3161,3.9273,0.9576,1.1220,0.9442,
7.309757,0.2973,-0.9210,0.1152,-3.1503,1.3161,3.9273,0.9576,1.1220,0.9442,
7.310860,0.2394,-0.8482,0.0136,-3.1503,1.3161,3.9273,0.9576,1.1220,0.9442,
7.342301,0.2394,-0.8482,0.0136,-3.1503,1.3161,3.9273,1.1004,0.6927,0.3210,
7.344535,0.2394,-0.8482,0.0136,2.3057,-0.0590,3.2984,1.1004,0.6927,0.3210,
7.381965,0.2394,-0.8482,0.0136,2.3057,-0.0590,3.2984,1.2346,0.4669,0.1122,
7.384372,0.2394,-0.8482,0.0136,1.4628,-0.4133,-0.0091,1.2346,0.4669,0.1122,
7.385718,0.2369,-0.9767,-0.0937,1.4628,-0.4133,-0.0091,1.2346,0.4669,0.1122,
7.388216,0.2137,-1.0686,-0.1880,1.4628,-0.4133,-0.0091,1.2346,0.4669,0.1122,
7.389555,0.1443,-1.0427,-0.2302,1.4628,-0.4133,-0.0091,1.2346,0.4669,0.1122,
7.390850,0.0637,-1.0029,-0.1586,1.4628,-0.4133,-0.0091,1.2346,0.4669,0.1122,
7.422332,0.0637,-1.0029,-0.1586,1.4628,-0.4133,-0.0091,1.1462,0.1824,0.0068,
7.426374,0.0637,-1.0029,-0.1586,1.4303,-0.3420,-0.4459,1.1462,0.1824,0.0068,
7.460834,0.0637,-1.0029,-0.1586,-0.3884,0.4113,-0.3668,1.1462,0.1824,0.0068,
7.463581,0.0637,-1.0029,-0.1586,-0.3884,0.4113,-0.3668,0.9502,0.3284,0.1495,
7.466060,-0.0035,-0.9616,-0.1188,-0.3884,0.4113,-0.3668,0.9502,0.3284,0.1495,
7.467028,-0.0377,-0.9037,-0.0976,-0.3884,0.4113,-0.3668,0.9502,0.3284,0.1495,
7.468291,-0.0594,-0.8734,-0.0678,-0.3884,0.4113,-0.3668,0.9502,0.3284,0.1495,
7.469419,-0.0201,-0.8780,-0.0468,-0.3884,0.4113,-0.3668,0.9502,0.3284,0.1495,
7.499768,-0.0201,-0.8780,-0.0468,-0.3884,0.4113,-0.3668,0.9736,0.4743,0.3508,
7.501954,-0.0201,-0.8780,-0.0468,-0.2600,0.4352,-0.7400,0.9736,0.4743,0.3508,
7.540778,0.0363,-0.9296,-0.0663,-0.2600,0.4352,-0.7400,0.9736,0.4743,0.3508,
7.543092,0.1028,-0.9662,-0.0944,-0.2600,0.4352,-0.7400,0.9736,0.4743,0.3508,
7.544130,0.1705,-0.9543,-0.1247,-0.2600,0.4352,-0.7400,0.9736,0.4743,0.3508,
7.545267,0.1705,-0.9543,-0.1247,-0.2600,0.4352,-0.7400,1.0450,0.3252,0.4297,
7.546604,0.1705,-0.9543,-0.1247,-0.3062,1.0447,-0.5069,1.0450,0.3252,0.4297,
7.579471,0.1705,-0.9543,-0.1247,-0.3062,1.0447,-0.5069,0.9214,0.2240,0.2624,
7.581782,0.1705,-0.9543,-0.1247,1.4377,0.4216,-1.3904,0.9214,0.2240,0.2624,
7.620224,0.1705,-0.9543,-0.1247,1.4377,0.4216,-1.3904,0.6764,0.2293,0.1932,
7.623628,0.1705,-0.9543,-0.1247,1.4909,0.4048,-1.6255,0.6764,0.2293,0.1932,
7.625265,0.1934,-0.9484,-0.1296,1.4909,0.4048,-1.6255,0.6764,0.2293,0.1932,
7.626710,0.1421,-0.9550,-0.1499,1.4909,0.4048,-1.6255,0.6764,0.2293,0.1932,
7.627966,0.0671,-0.9726,-0.1660,1.4909,0.4048,-1.6255,0.6764,0.2293,0.1932,
7.629269,0.0417,-0.9616,-0.0753,1.4909,0.4048,-1.6255,0.6764,0.2293,0.1932,
7.630353,0.0053,-0.9479,0.0295,1.4909,0.4048,-1.6255,0.6764,0.2293,0.1932,
7.658620,0.0053,-0.9479,0.0295,1.4909,0.4048,-1.6255,0.6775,0.2517,0.2773,
7.660723,0.0053,-0.9479,0.0295,0.8848,0.3164,-1.9928,0.6775,0.2517,0.2773,
7.702071,0.0053,-0.9479,0.0295,0.8848,0.3164,-1.9928,0.8362,0.1803,0.4936,
7.704448,-0.0599,-0.9291,0.0412,0.8848,0.3164,-1.9928,0.8362,0.1803,0.4936,
7.706379,-0.0704,-0.9462,0.0024,0.8848,0.3164,-1.9928,0.8362,0.1803,0.4936,
7.707552,-0.0001,-1.0114,-0.0311,0.8848,0.3164,-1.9928,0.8362,0.1803,0.4936,
7.708996,0.1150,-1.0258,-0.0179,0.8848,0.3164,-1.9928,0.8362,0.1803,0.4936,
7.710250,0.1150,-1.0258,-0.0179,-0.1444,0.4913,-0.7847,0.8362,0.1803,0.4936,
7.737653,0.1150,-1.0258,-0.0179,-0.1444,0.4913,-0.7847,0.7808,0.3135,0.5639,
7.741066,0.1150,-1.0258,-0.0179,0.0855,0.4391,-1.0619,0.7808,0.3135,0.5639,
7.778415,0.1150,-1.0258,-0.0179,0.0855,0.4391,-1.0619,0.7233,0.4573,0.3658,
7.780855,0.1150,-1.0258,-0.0179,1.5837,-0.4534,-1.6524,0.7233,0.4573,0.3658,
7.782229,0.1761,-1.0464,0.0141,1.5837,-0.4534,-1.6524,0.7233,0.4573,0.3658,
7.783204,0.1854,-1.0718,-0.0392,1.5837,-0.4534,-1.6524,0.7233,0.4573,0.3658,
7.784131,0.1944,-1.0960,-0.1144,1.5837,-0.4534,-1.6524,0.7233,0.4573,0.3658,
7.785238,0.1807,-1.1475,-0.1911,1.5837,-0.4534,-1.6524,0.7233,0.4573,0.3658,
7.816799,0.1807,-1.1475,-0.1911,1.5837,-0.4534,-1.6524,0.3355,0.3049,0.1793,
7.818560,0.1807,-1.1475,-0.1911,2.5090,-1.2154,-2.7374,0.3355,0.3049,0.1793,
7.857160,0.1807,-1.1475,-0.1911,2.5090,-1.2154,-2.7374,-0.7137,-0.0860,-0.2500,
7.859770,0.1807,-1.1475,-0.1911,3.9397,-3.8978,-4.0783,-0.7137,-0.0860,-0.2500,
7.861152,0.2394,-1.2826,-0.2984,3.9397,-3.8978,-4.0783,-0.7137,-0.0860,-0.2500,
7.862419,0.3803,-1.4097,-0.3189,3.9397,-3.8978,-4.0783,-0.7137,-0.0860,-0.2500,
7.863682,0.4299,-1.4790,-0.2420,3.9397,-3.8978,-4.0783,-0.7137,-0.0860,-0.2500,
7.864925,0.2828,-1.3290,-0.2525,3.9397,-3.8978,-4.0783,-0.7137,-0.0860,-0.2500,
7.896290,0.2828,-1.3290,-0.2525,3.9397,-3.8978,-4.0783,-1.9686,-0.1286,-0.7964,
7.898398,0.2828,-1.3290,-0.2525,3.5662,-3.7534,-3.2627,-1.9686,-0.1286,-0.7964,
7.938040,0.2828,-1.3290,-0.2525,3.5662,-3.7534,-3.2627,-3.0925,-0.1659,-0.8529,
7.947705,0.2828,-1.3290,-0.2525,0.0373,-0.7010,-2.2562,-3.0925,-0.1659,-0.8529,
7.949305,0.0280,-1.0171,-0.3702,0.0373,-0.7010,-2.2562,-3.0925,-0.1659,-0.8529,
7.950505,-0.2395,-0.8885,-0.3106,0.0373,-0.7010,-2.2562,-3.0925,-0.1659,-0.8529,
7.952602,-0.3497,-1.1478,0.0006,0.0373,-0.7010,-2.2562,-3.0925,-0.1659,-0.8529,
7.954095,-0.2913,-1.5641,0.4414,0.0373,-0.7010,-2.2562,-3.0925,-0.1659,-0.8529,
7.972521,-0.3084,-1.6479,0.5059,0.0373,-0.7010,-2.2562,-3.0925,-0.1659,-0.8529,
7.974442,-0.3084,-1.6479,0.5059,0.0373,-0.7010,-2.2562,-2.8059,0.4093,-0.6143,
7.975435,-0.3084,-1.6479,0.5059,-3.5003,-4.4572,4.8900,-2.8059,0.4093,-0.6143,
8.013863,-0.3084,-1.6479,0.5059,-3.5003,-4.4572,4.8900,-2.0421,1.0133,-0.2201,
8.015548,-0.3084,-1.6479,0.5059,-3.0685,-2.0954,1.0280,-2.0421,1.0133,-0.2201,
8.053784,-0.3084,-1.6479,0.5059,-3.0685,-2.0954,1.0280,-2.1881,0.1771,0.0323,
8.054914,-0.3084,-1.6479,0.5059,-3.0237,-2.3114,1.8183,-2.1881,0.1771,0.0323,
8.055683,-0.3778,-1.4077,0.1177,-3.0237,-2.3114,1.8183,-2.1881,0.1771,0.0323,
8.056224,-0.2930,-1.1886,-0.2791,-3.0237,-2.3114,1.8183,-2.1881,0.1771,0.0323,
8.056840,-0.1088,-0.9960,-0.3018,-3.0237,-2.3114,1.8183,-2.1881,0.1771,0.0323,
8.057396,0.0427,-0.8592,-0.1369,-3.0237,-2.3114,1.8183,-2.1881,0.1771,0.0323,
8.057912,0.1988,-0.8346,0.1296,-3.0237,-2.3114,1.8183,-2.1881,0.1771,0.0323,
8.092708,0.1988,-0.8346,0.1296,-3.0237,-2.3114,1.8183,-1.8035,-0.4493,-0.2766,
8.093646,0.1988,-0.8346,0.1296,-3.0073,-2.5360,2.4496,-1.8035,-0.4493,-0.2766,
8.132801,0.1988,-0.8346,0.1296,-3.0073,-2.5360,2.4496,-1.0482,-0.7507,-0.5461,
8.134152,0.1988,-0.8346,0.1296,0.9288,0.7811,4.5032,-1.0482,-0.7507,-0.5461,
8.134720,0.2108,-0.8228,0.0756,0.9288,0.7811,4.5032,-1.0482,-0.7507,-0.5461,
8.135128,-0.0035,-0.7613,-0.0079,0.9288,0.7811,4.5032,-1.0482,-0.7507,-0.5461,
8.135584,-0.1542,-0.6474,-0.0419,0.9288,0.7811,4.5032,-1.0482,-0.7507,-0.5461,
8.136058,-0.1672,-0.5675,-0.0807,0.9288,0.7811,4.5032,-1.0482,-0.7507,-0.5461,
8.172265,-0.1672,-0.5675,-0.0807,0.9288,0.7811,4.5032,-0.3846,-0.8807,-0.2074,
8.173133,-0.1672,-0.5675,-0.0807,-1.5052,2.4345,3.9416,-0.3846,-0.8807,-0.2074,
8.212362,-0.1672,-0.5675,-0.0807,-1.5052,2.4345,3.9416,0.3952,-0.8029,0.1761,
8.213392,-0.1672,-0.5675,-0.0807,-0.1730,3.7847,3.9238,0.3952,-0.8029,0.1761,
8.213901,-0.0961,-0.5433,-0.0641,-0.1730,3.7847,3.9238,0.3952,-0.8029,0.1761,
8.214331,0.0319,-0.5052,-0.0133,-0.1730,3.7847,3.9238,0.3952,-0.8029,0.1761,
8.214809,0.0850,-0.5160,0.0011,-0.1730,3.7847,3.9238,0.3952,-0.8029,0.1761,
8.215304,0.0759,-0.5570,-0.0680,-0.1730,3.7847,3.9238,0.3952,-0.8029,0.1761,
8.251679,0.0759,-0.5570,-0.0680,-0.1730,3.7847,3.9238,1.2730,-0.8157,0.1580,
8.253877,0.0759,-0.5570,-0.0680,0.0116,3.9185,3.4166,1.2730,-0.8157,0.1580,
8.291362,0.0950,-0.6560,-0.2129,0.0116,3.9185,3.4166,1.2730,-0.8157,0.1580,
8.292362,0.1023,-0.8846,-0.4547,0.0116,3.9185,3.4166,1.2730,-0.8157,0.1580,
8.292878,0.1465,-1.1795,-0.8036,0.0116,3.9185,3.4166,1.2730,-0.8157,0.1580,
8.293353,0.1465,-1.1795,-0.8036,0.0116,3.9185,3.4166,1.6053,-0.9500,-0.0795,
8.293834,0.1465,-1.1795,-0.8036,0.9187,2.3522,0.6696,1.6053,-0.9500,-0.0795,
8.330634,0.1465,-1.1795,-0.8036,0.9187,2.3522,0.6696,0.3142,-0.8551,-0.4108,
8.331580,0.1465,-1.1795,-0.8036,1.7784,-2.9761,-7.1378,0.3142,-0.8551,-0.4108,
8.370466,0.1465,-1.1795,-0.8036,1.7784,-2.9761,-7.1378,-0.7436,-0.6176,-0.8103,
8.371727,0.1465,-1.1795,-0.8036,1.5330,-3.0248,-6.7475,-0.7436,-0.6176,-0.8103,
8.372370,0.1910,-1.3576,-1.1229,1.5330,-3.0248,-6.7475,-0.7436,-0.6176,-0.8103,
8.372922,0.2232,-1.2186,-1.2009,1.5330,-3.0248,-6.7475,-0.7436,-0.6176,-0.8103,
8.373465,0.2709,-1.0923,-0.9492,1.5330,-3.0248,-6.7475,-0.7436,-0.6176,-0.8103,
8.374044,0.1463,-0.9975,-0.5903,1.5330,-3.0248,-6.7475,-0.7436,-0.6176,-0.8103,
8.374461,0.0415,-0.9015,-0.4718,1.5330,-3.0248,-6.7475,-0.7436,-0.6176,-0.8103,
8.411055,0.0415,-0.9015,-0.4718,1.5330,-3.0248,-6.7475,-0.5327,-1.1960,-0.8359,
8.413036,0.0415,-0.9015,-0.4718,1.0471,-0.6051,-2.8416,-0.5327,-1.1960,-0.8359,
8.450980,0.0415,-0.9015,-0.4718,1.0471,-0.6051,-2.8416,0.0607,-1.2674,-0.7517,
8.453399,0.0415,-0.9015,-0.4718,0.3163,-2.7345,0.1586,0.0607,-1.2674,-0.7517,
8.455833,0.0178,-0.8756,-0.4503,0.3163,-2.7345,0.1586,0.0607,-1.2674,-0.7517,
8.457473,0.0530,-1.1314,-0.4225,0.3163,-2.7345,0.1586,0.0607,-1.2674,-0.7517,
8.458995,0.1917,-1.6486,-0.2202,0.3163,-2.7345,0.1586,0.0607,-1.2674,-0.7517,
8.459975,-0.0399,-1.5579,-0.0883,0.3163,-2.7345,0.1586,0.0607,-1.2674,-0.7517,
8.490056,-0.0399,-1.5579,-0.0883,0.3163,-2.7345,0.1586,0.0703,0.3465,-0.5951,
8.491820,-0.0399,-1.5579,-0.0883,0.0477,-2.6939,0.1204,0.0703,0.3465,-0.5951,
8.530008,-0.0399,-1.5579,-0.0883,0.0477,-2.6939,0.1204,0.2247,0.3039,0.7588,
8.531963,-0.0399,-1.5579,-0.0883,-6.2733,0.4312,1.9928,0.2247,0.3039,0.7588,
8.533310,-0.8815,-0.6799,-0.1850,-6.2733,0.4312,1.9928,0.2247,0.3039,0.7588,
8.534499,-0.8556,-0.4752,-0.2082,-6.2733,0.4312,1.9928,0.2247,0.3039,0.7588,
8.535789,-0.3580,-1.0000,-0.0223,-6.2733,0.4312,1.9928,0.2247,0.3039,0.7588,
8.536791,0.1197,-1.1561,0.2454,-6.2733,0.4312,1.9928,0.2247,0.3039,0.7588,
8.569386,0.1197,-1.1561,0.2454,-6.2733,0.4312,1.9928,0.8341,1.1220,1.1391,
8.571248,0.1197,-1.1561,0.2454,-5.9021,0.5493,1.6412,0.8341,1.1220,1.1391,
8.609339,0.1197,-1.1561,0.2454,-5.9021,0.5493,1.6412,1.0407,0.4700,0.3519,
8.611570,0.1197,-1.1561,0.2454,0.2605,-1.0129,4.1266,1.0407,0.4700,0.3519,
8.612982,0.3263,-1.0789,0.1976,0.2605,-1.0129,4.1266,1.0407,0.4700,0.3519,
8.614240,0.3026,-0.9091,0.0326,0.2605,-1.0129,4.1266,1.0407,0.4700,0.3519,
8.615188,0.2078,-0.8837,-0.1205,0.2605,-1.0129,4.1266,1.0407,0.4700,0.3519,
8.616572,0.1590,-0.9655,-0.1550,0.2605,-1.0129,4.1266,1.0407,0.4700,0.3519,
8.648726,0.1590,-0.9655,-0.1550,0.2605,-1.0129,4.1266,1.2421,0.0450,-0.0476,
8.650687,0.1590,-0.9655,-0.1550,2.1009,0.6567,1.4611,1.2421,0.0450,-0.0476,
8.688661,0.1590,-0.9655,-0.1550,2.1009,0.6567,1.4611,1.3529,0.0887,-0.0806,
8.691464,0.1590,-0.9655,-0.1550,0.0838,0.1927,0.4127,1.3529,0.0887,-0.0806,
8.692846,0.0896,-0.9987,-0.1088,0.0838,0.1927,0.4127,1.3529,0.0887,-0.0806,
8.693811,0.0168,-0.9628,-0.1340,0.0838,0.1927,0.4127,1.3529,0.0887,-0.0806,
8.695030,-0.0423,-0.9704,-0.1591,0.0838,0.1927,0.4127,1.3529,0.0887,-0.0806,
8.696281,-0.0824,-1.0065,-0.1582,0.0838,0.1927,0.4127,1.3529,0.0887,-0.0806,
8.728009,-0.0824,-1.0065,-0.1582,0.0838,0.1927,0.4127,1.1366,-0.0168,0.1048,
8.730074,-0.0824,-1.0065,-0.1582,0.1234,0.2565,-0.0286,1.1366,-0.0168,0.1048,
8.767713,-0.0824,-1.0065,-0.1582,0.1234,0.2565,-0.0286,0.8149,0.0589,0.2283,
8.769687,-0.0824,-1.0065,-0.1582,-0.4527,0.3567,-0.6957,0.8149,0.0589,0.2283,
8.770831,-0.0570,-0.9804,-0.1933,-0.4527,0.3567,-0.6957,0.8149,0.0589,0.2283,
8.772105,-0.0018,-0.9237,-0.1608,-0.4527,0.3567,-0.6957,0.8149,0.0589,0.2283,
8.773347,0.1226,-0.8903,-0.0719,-0.4527,0.3567,-0.6957,0.8149,0.0589,0.2283,
8.774588,0.1741,-0.8986,0.0160,-0.4527,0.3567,-0.6957,0.8149,0.0589,0.2283,
8.807187,0.1741,-0.8986,0.0160,-0.4527,0.3567,-0.6957,0.9545,0.2868,0.0547,
8.809031,0.1741,-0.8986,0.0160,-0.4327,0.3801,-1.0512,0.9545,0.2868,0.0547,
8.846827,0.1741,-0.8986,0.0160,-0.4327,0.3801,-1.0512,1.1068,0.1909,0.0259,
8.848816,0.1741,-0.8986,0.0160,1.3737,0.9884,0.0450,1.1068,0.1909,0.0259,
8.850069,0.1201,-0.9359,0.0121,1.3737,0.9884,0.0450,1.1068,0.1909,0.0259,
8.851155,0.0552,-0.9579,-0.0436,1.3737,0.9884,0.0450,1.1068,0.1909,0.0259,
8.852430,0.0236,-0.9469,-0.1154,1.3737,0.9884,0.0450,1.1068,0.1909,0.0259,
8.853455,-0.0005,-0.9413,-0.0968,1.3737,0.9884,0.0450,1.1068,0.1909,0.0259,
8.886660,-0.0005,-0.9413,-0.0968,1.3737,0.9884,0.0450,0.9566,-0.0860,0.1570,
8.888573,-0.0005,-0.9413,-0.0968,0.3233,0.5817,-1.0059,0.9566,-0.0860,0.1570,
8.927413,-0.0005,-0.9413,-0.0968,0.3233,0.5817,-1.0059,0.9129,0.0216,0.3338,
8.930222,-0.0005,-0.9413,-0.0968,-0.1889,0.6308,-0.6600,0.9129,0.0216,0.3338,
8.931772,-0.0189,-0.9355,-0.0355,-0.1889,0.6308,-0.6600,0.9129,0.0216,0.3338,
8.933191,-0.0462,-0.9284,-0.0126,-0.1889,0.6308,-0.6600,0.9129,0.0216,0.3338,
8.935745,-0.0545,-0.9596,0.0041,-0.1889,0.6308,-0.6600,0.9129,0.0216,0.3338,
8.937156,-0.0477,-1.0195,-0.0062,-0.1889,0.6308,-0.6600,0.9129,0.0216,0.3338,
8.965347,-0.0477,-1.0195,-0.0062,-0.1889,0.6308,-0.6600,0.9182,0.1420,0.4755,
8.967316,-0.0477,-1.0195,-0.0062,0.0006,0.5899,-0.9995,0.9182,0.1420,0.4755,
9.005172,0.0056,-1.0390,-0.0841,0.0006,0.5899,-0.9995,0.9182,0.1420,0.4755,
9.008220,0.0928,-1.0728,-0.1435,0.0006,0.5899,-0.9995,0.9182,0.1420,0.4755,
9.009993,0.1551,-1.0842,-0.1525,0.0006,0.5899,-0.9995,0.9182,0.1420,0.4755,
9.011027,0.1551,-1.0842,-0.1525,0.0006,0.5899,-0.9995,0.7670,0.1760,0.4925,
9.012315,0.1551,-1.0842,-0.1525,0.7424,-0.4481,-1.8818,0.7670,0.1760,0.4925,
9.045181,0.1551,-1.0842,-0.1525,0.7424,-0.4481,-1.8818,0.4900,0.3028,0.3402,
9.047117,0.1551,-1.0842,-0.1525,2.2441,-0.6724,-2.4418,0.4900,0.3028,0.3402,
9.084821,0.1551,-1.0842,-0.1525,2.2441,-0.6724,-2.4418,0.3100,0.3401,0.2092,
9.086756,0.1551,-1.0842,-0.1525,2.3037,-0.6831,-2.5091,0.3100,0.3401,0.2092,
9.088037,0.1612,-1.0456,-0.1164,2.3037,-0.6831,-2.5091,0.3100,0.3401,0.2092,
9.089335,0.1609,-1.0637,-0.0934,2.3037,-0.6831,-2.5091,0.3100,0.3401,0.2092,
9.092652,0.1856,-1.1018,-0.0783,2.3037,-0.6831,-2.5091,0.3100,0.3401,0.2092,
9.094044,0.1863,-1.1182,-0.0951,2.3037,-0.6831,-2.5091,0.3100,0.3401,0.2092,
9.095341,0.1487,-1.1578,-0.2539,2.3037,-0.6831,-2.5091,0.3100,0.3401,0.2092,
9.124273,0.1487,-1.1578,-0.2539,2.3037,-0.6831,-2.5091,-0.1747,0.1931,0.0057,
9.126196,0.1487,-1.1578,-0.2539,2.4170,-1.2548,-2.6039,-0.1747,0.1931,0.0057,
9.163868,0.1487,-1.1578,-0.2539,2.4170,-1.2548,-2.6039,-1.4371,-0.0658,-0.3373,
9.166082,0.1487,-1.1578,-0.2539,2.9552,-2.3607,-3.9630,-1.4371,-0.0658,-0.3373,
9.167393,0.1758,-1.2435,-0.4135,2.9552,-2.3607,-3.9630,-1.4371,-0.0658,-0.3373,
9.168497,0.2687,-1.2694,-0.3556,2.9552,-2.3607,-3.9630,-1.4371,-0.0658,-0.3373,
9.169955,0.2970,-1.2345,-0.2654,2.9552,-2.3607,-3.9630,-1.4371,-0.0658,-0.3373,
9.171191,0.2232,-1.0640,-0.1982,2.9552,-2.3607,-3.9630,-1.4371,-0.0658,-0.3373,
9.203462,0.2232,-1.0640,-0.1982,2.9552,-2.3607,-3.9630,-2.5258,-0.4951,-0.7155,
9.205994,0.2232,-1.0640,-0.1982,2.6289,-2.3013,-2.9303,-2.5258,-0.4951,-0.7155,
9.244008,0.2232,-1.0640,-0.1982,2.6289,-2.3013,-2.9303,-2.7655,-0.1819,-0.7996,
9.246111,0.2232,-1.0640,-0.1982,-0.3188,-0.5772,0.6089,-2.7655,-0.1819,-0.7996,
9.247414,0.0100,-0.9550,-0.0919,-0.3188,-0.5772,0.6089,-2.7655,-0.1819,-0.7996,
9.248342,-0.3015,-1.1710,0.0107,-0.3188,-0.5772,0.6089,-2.7655,-0.1819,-0.7996,
9.249459,-0.3888,-1.5570,0.2403,-0.3188,-0.5772,0.6089,-2.7655,-0.1819,-0.7996,
9.250666,-0.4547,-1.6566,0.2884,-0.3188,-0.5772,0.6089,-2.7655,-0.1819,-0.7996,
9.282902,-0.4547,-1.6566,0.2884,-0.3188,-0.5772,0.6089,-2.2275,0.8685,-0.4641,
9.285000,-0.4547,-1.6566,0.2884,-0.5598,-0.7408,1.4380,-2.2275,0.8685,-0.4641,
9.322549,-0.4547,-1.6566,0.2884,-0.5598,-0.7408,1.4380,-2.0624,0.5095,0.0068,
9.324472,-0.4547,-1.6566,0.2884,-4.6230,-5.5913,4.8631,-2.0624,0.5095,0.0068,
9.326279,-0.4767,-1.4216,0.0282,-4.6230,-5.5913,4.8631,-2.0624,0.5095,0.0068,
9.327692,-0.3145,-1.2479,-0.1880,-4.6230,-5.5913,4.8631,-2.0624,0.5095,0.0068,
9.328803,-0.1254,-1.0877,-0.1948,-4.6230,-5.5913,4.8631,-2.0624,0.5095,0.0068,
9.330086,0.0908,-0.9413,-0.0890,-4.6230,-5.5913,4.8631,-2.0624,0.5095,0.0068,
9.363439,0.0908,-0.9413,-0.0890,-4.6230,-5.5913,4.8631,-1.9772,0.0269,0.0046,
9.365320,0.0908,-0.9413,-0.0890,-1.4273,-1.3976,2.2027,-1.9772,0.0269,0.0046,
9.401916,0.0908,-0.9413,-0.0890,-1.4273,-1.3976,2.2027,-1.2336,0.1515,-0.5110,
9.403968,0.0908,-0.9413,-0.0890,0.9137,0.7107,4.4923,-1.2336,0.1515,-0.5110,
9.405272,0.1920,-0.8937,0.0725,0.9137,0.7107,4.4923,-1.2336,0.1515,-0.5110,
9.406351,0.1668,-0.8729,0.0883,0.9137,0.7107,4.4923,-1.2336,0.1515,-0.5110,
9.407605,0.0779,-0.7994,-0.0455,0.9137,0.7107,4.4923,-1.2336,0.1515,-0.5110,
9.409290,-0.0252,-0.6802,-0.0858,0.9137,0.7107,4.4923,-1.2336,0.1515,-0.5110,
9.441146,-0.0252,-0.6802,-0.0858,0.9137,0.7107,4.4923,-0.6456,-0.6804,-0.7134,
9.443371,-0.0252,-0.6802,-0.0858,0.7613,0.5758,4.6606,-0.6456,-0.6804,-0.7134,
9.471727,-0.1156,-0.5553,-0.0602,0.7613,0.5758,4.6606,-0.6456,-0.6804,-0.7134,
9.473931,-0.1413,-0.4972,-0.0050,0.7613,0.5758,4.6606,-0.6456,-0.6804,-0.7134,
9.474751,-0.1098,-0.4784,0.0341,0.7613,0.5758,4.6606,-0.6456,-0.6804,-0.7134,
9.480899,-0.1098,-0.4784,0.0341,0.7613,0.5758,4.6606,0.0277,-0.8850,-0.2905,
9.483765,-0.1098,-0.4784,0.0341,-1.5128,3.2403,3.7405,0.0277,-0.8850,-0.2905,
9.521076,-0.1098,-0.4784,0.0341,-1.5128,3.2403,3.7405,0.8543,-0.4589,0.1612,
9.522970,-0.1098,-0.4784,0.0341,-0.9805,3.9675,4.0074,0.8543,-0.4589,0.1612,
9.560144,-0.1098,-0.4784,0.0341,-0.9805,3.9675,4.0074,1.4445,-0.3427,0.2454,
9.562027,-0.1098,-0.4784,0.0341,0.1109,0.5276,-1.0459,1.4445,-0.3427,0.2454,
9.563286,-0.0453,-0.4925,0.0449,0.1109,0.5276,-1.0459,1.4445,-0.3427,0.2454,
9.564270,-0.0098,-0.5619,-0.0375,0.1109,0.5276,-1.0459,1.4445,-0.3427,0.2454,
9.565324,-0.0054,-0.6660,-0.1958,0.1109,0.5276,-1.0459,1.4445,-0.3427,0.2454,
9.566654,0.0227,-0.8666,-0.4117,0.1109,0.5276,-1.0459,1.4445,-0.3427,0.2454,
9.567867,0.1104,-1.1150,-0.7457,0.1109,0.5276,-1.0459,1.4445,-0.3427,0.2454,
9.599561,0.1104,-1.1150,-0.7457,0.1109,0.5276,-1.0459,1.0599,-0.5419,0.0291,
9.601247,0.1104,-1.1150,-0.7457,0.1861,0.6506,-1.4047,1.0599,-0.5419,0.0291,
9.639912,0.1104,-1.1150,-0.7457,0.1861,0.6506,-1.4047,-0.2717,-0.5004,-0.4311,
9.642112,0.1104,-1.1150,-0.7457,2.3374,-2.5584,-7.2170,-0.2717,-0.5004,-0.4311,
9.643682,0.2088,-1.2853,-1.0487,2.3374,-2.5584,-7.2170,-0.2717,-0.5004,-0.4311,
9.644621,0.2975,-1.2218,-1.2214,2.3374,-2.5584,-7.2170,-0.2717,-0.5004,-0.4311,
9.645786,0.3222,-1.1245,-0.9321,2.3374,-2.5584,-7.2170,-0.2717,-0.5004,-0.4311,
9.647031,0.2401,-1.0776,-0.6206,2.3374,-2.5584,-7.2170,-0.2717,-0.5004,-0.4311,
9.679151,0.2401,-1.0776,-0.6206,2.3374,-2.5584,-7.2170,-0.6914,-0.1393,-0.7719,
9.680913,0.2401,-1.0776,-0.6206,2.0382,-2.6215,-6.8452,-0.6914,-0.1393,-0.7719,
9.719831,0.2401,-1.0776,-0.6206,2.0382,-2.6215,-6.8452,-0.6221,-0.8839,-0.8582,
9.721852,0.2401,-1.0776,-0.6206,0.6188,-0.8374,-1.9338,-0.6221,-0.8839,-0.8582,
9.723211,0.1531,-1.0349,-0.5854,0.6188,-0.8374,-1.9338,-0.6221,-0.8839,-0.8582,
9.724343,0.0593,-0.9411,-0.5803,0.6188,-0.8374,-1.9338,-0.6221,-0.8839,-0.8582,
9.725451,-0.0194,-0.8123,-0.4631,0.6188,-0.8374,-1.9338,-0.6221,-0.8839,-0.8582,
9.726766,-0.0401,-0.7227,-0.2214,0.6188,-0.8374,-1.9338,-0.6221,-0.8839,-0.8582,
9.758156,-0.0401,-0.7227,-0.2214,0.6188,-0.8374,-1.9338,0.1576,-1.2972,-0.6388,
9.760407,-0.0401,-0.7227,-0.2214,0.5793,-0.8215,-1.9128,0.1576,-1.2972,-0.6388,
9.799341,-0.0401,-0.7227,-0.2214,0.5793,-0.8215,-1.9128,0.6423,0.4487,-0.5429,
9.801356,-0.0401,-0.7227,-0.2214,-1.0279,0.9674,0.6260,0.6423,0.4487,-0.5429,
9.802703,0.0955,-0.9890,-0.2439,-1.0279,0.9674,0.6260,0.6423,0.4487,-0.5429,
9.803916,0.2196,-1.4927,-0.0846,-1.0279,0.9674,0.6260,0.6423,0.4487,-0.5429,
9.805055,-0.4777,-1.6286,-0.3942,-1.0279,0.9674,0.6260,0.6423,0.4487,-0.5429,
9.806492,-0.7574,-1.0146,-0.5302,-1.0279,0.9674,0.6260,0.6423,0.4487,-0.5429,
9.841598,-0.7574,-1.0146,-0.5302,-1.0279,0.9674,0.6260,0.0266,0.6927,0.4446,
9.844492,-0.7574,-1.0146,-0.5302,-4.3261,-4.2032,0.3163,0.0266,0.6927,0.4446,
9.872256,-0.5720,-0.6755,-0.0697,-4.3261,-4.2032,0.3163,0.0266,0.6927,0.4446,
9.874585,-0.3050,-0.8116,0.1985,-4.3261,-4.2032,0.3163,0.0266,0.6927,0.4446,
9.876039,0.0771,-0.9416,0.2992,-4.3261,-4.2032,0.3163,0.0266,0.6927,0.4446,
9.883379,0.0771,-0.9416,0.2992,-4.3261,-4.2032,0.3163,0.8085,1.2956,1.2840,
9.886080,0.0771,-0.9416,0.2992,-3.2659,1.5022,4.5876,0.8085,1.2956,1.2840,
9.916842,0.0771,-0.9416,0.2992,-3.2659,1.5022,4.5876,1.2133,1.3638,1.0390,
9.918800,0.0771,-0.9416,0.2992,2.7329,-0.2107,2.5674,1.2133,1.3638,1.0390,
9.956038,0.0771,-0.9416,0.2992,2.7329,-0.2107,2.5674,1.0407,0.0663,0.4627,
9.958523,0.0771,-0.9416,0.2992,2.8532,-0.1005,2.1313,1.0407,0.0663,0.4627,
9.960375,0.3009,-1.0388,0.1108,2.8532,-0.1005,2.1313,1.0407,0.0663,0.4627,
9.961414,0.3354,-1.0061,-0.0284,2.8532,-0.1005,2.1313,1.0407,0.0663,0.4627,
9.962496,0.3434,-0.9594,-0.1105,2.8532,-0.1005,2.1313,1.0407,0.0663,0.4627,
9.963742,0.3263,-1.0078,-0.1938,2.8532,-0.1005,2.1313,1.0407,0.0663,0.4627,
9.964851,0.2618,-1.0036,-0.2234,2.8532,-0.1005,2.1313,1.0407,0.0663,0.4627,
9.997203,0.2618,-1.0036,-0.2234,2.8532,-0.1005,2.1313,1.0333,-0.0466,-0.0966,
9.999761,0.2618,-1.0036,-0.2234,2.7724,-0.0187,1.7038,1.0333,-0.0466,-0.0966,
10.037272,0.2618,-1.0036,-0.2234,2.7724,-0.0187,1.7038,0.9832,0.0642,-0.1615,
10.039651,0.2618,-1.0036,-0.2234,1.7493,0.1924,-0.4862,0.9832,0.0642,-0.1615,
10.040973,0.1079,-0.9455,-0.1662,1.7493,0.1924,-0.4862,0.9832,0.0642,-0.1615,
10.042335,-0.0289,-0.9369,-0.1081,1.7493,0.1924,-0.4862,0.9832,0.0642,-0.1615,
10.043627,-0.0951,-0.9875,-0.1208,1.7493,0.1924,-0.4862,0.9832,0.0642,-0.1615,
10.044840,-0.0511,-0.9846,-0.0885,1.7493,0.1924,-0.4862,0.9832,0.0642,-0.1615,
10.076149,-0.0511,-0.9846,-0.0885,1.7493,0.1924,-0.4862,0.8543,-0.1404,0.1655,
10.078215,-0.0511,-0.9846,-0.0885,-1.0080,0.3879,0.0506,0.8543,-0.1404,0.1655,
10.115194,-0.0511,-0.9846,-0.0885,-1.0080,0.3879,0.0506,0.9214,0.0706,0.1847,
10.117939,-0.0511,-0.9846,-0.0885,-0.1193,0.9607,0.5388,0.9214,0.0706,0.1847,
10.119082,-0.0137,-0.9245,-0.0453,-0.1193,0.9607,0.5388,0.9214,0.0706,0.1847,
10.120201,0.0346,-0.8939,0.0006,-0.1193,0.9607,0.5388,0.9214,0.0706,0.1847,
10.121150,0.0539,-0.9213,-0.0094,-0.1193,0.9607,0.5388,0.9214,0.0706,0.1847,
10.122425,0.0451,-0.9592,-0.0629,-0.1193,0.9607,0.5388,0.9214,0.0706,0.1847,
10.155476,0.0451,-0.9592,-0.0629,-0.1193,0.9607,0.5388,0.9683,0.3465,0.1367,
10.158190,0.0451,-0.9592,-0.0629,-0.0712,0.9662,0.1510,0.9683,0.3465,0.1367,
10.195870,0.0451,-0.9592,-0.0629,-0.0712,0.9662,0.1510,0.7627,0.2410,0.1080,
10.198329,0.0451,-0.9592,-0.0629,0.2910,0.5744,-0.9387,0.7627,0.2410,0.1080,
10.200523,0.0542,-0.9594,-0.1113,0.2910,0.5744,-0.9387,0.7627,0.2410,0.1080,
10.201631,0.0754,-0.9401,-0.1257,0.2910,0.5744,-0.9387,0.7627,0.2410,0.1080,
10.202825,0.0532,-0.9364,-0.0949,0.2910,0.5744,-0.9387,0.7627,0.2410,0.1080,
10.203941,0.0339,-0.9455,-0.0497,0.2910,0.5744,-0.9387,0.7627,0.2410,0.1080,
10.234023,0.0339,-0.9455,-0.0497,0.2910,0.5744,-0.9387,0.7030,0.2538,0.1058,
10.236369,0.0339,-0.9455,-0.0497,0.3280,0.5632,-1.1971,0.7030,0.2538,0.1058,
10.274269,0.0339,-0.9455,-0.0497,0.3280,0.5632,-1.1971,0.8042,0.3550,0.2411,
10.276746,0.0339,-0.9455,-0.0497,0.1877,0.6411,-1.0279,0.8042,0.3550,0.2411,
10.278250,0.0151,-0.9464,-0.0113,0.1877,0.6411,-1.0279,0.8042,0.3550,0.2411,
10.279511,-0.0308,-0.9482,0.0388,0.1877,0.6411,-1.0279,0.8042,0.3550,0.2411,
10.280570,-0.0528,-0.9543,0.0703,0.1877,0.6411,-1.0279,0.8042,0.3550,0.2411,
10.281534,-0.0611,-0.9897,0.0749,0.1877,0.6411,-1.0279,0.8042,0.3550,0.2411,
10.313705,-0.0611,-0.9897,0.0749,0.1877,0.6411,-1.0279,1.0152,0.3305,0.4851,
10.315335,-0.0611,-0.9897,0.0749,-0.4132,0.3981,-0.3101,1.0152,0.3305,0.4851,
10.353659,-0.0382,-1.0236,0.0388,-0.4132,0.3981,-0.3101,1.0152,0.3305,0.4851,
10.356036,0.0253,-1.0390,-0.0145,-0.4132,0.3981,-0.3101,1.0152,0.3305,0.4851,
10.356929,0.1216,-1.0188,-0.0446,-0.4132,0.3981,-0.3101,1.0152,0.3305,0.4851,
10.358142,0.1216,-1.0188,-0.0446,-0.4132,0.3981,-0.3101,1.0482,0.3380,0.6267,
10.359413,0.1216,-1.0188,-0.0446,0.6629,-0.2669,-1.3599,1.0482,0.3380,0.6267,
10.393507,0.1216,-1.0188,-0.0446,0.6629,-0.2669,-1.3599,0.8501,0.5510,0.3903,
10.396262,0.1216,-1.0188,-0.0446,1.5878,-0.6172,-2.1882,0.8501,0.5510,0.3903,
10.433668,0.1216,-1.0188,-0.0446,1.5878,-0.6172,-2.1882,0.6381,0.6650,0.2028,
10.436356,0.1216,-1.0188,-0.0446,1.6824,-0.6531,-2.3798,0.6381,0.6650,0.2028,
10.437722,0.1653,-1.0061,-0.0316,1.6824,-0.6531,-2.3798,0.6381,0.6650,0.2028,
10.439372,0.1157,-1.0525,-0.0472,1.6824,-0.6531,-2.3798,0.6381,0.6650,0.2028,
10.440496,0.0630,-1.1165,-0.1083,1.6824,-0.6531,-2.3798,0.6381,0.6650,0.2028,
10.441710,0.0693,-1.1839,-0.2075,1.6824,-0.6531,-2.3798,0.6381,0.6650,0.2028,
10.442765,0.1973,-1.3161,-0.2867,1.6824,-0.6531,-2.3798,0.6381,0.6650,0.2028,
10.472108,0.1973,-1.3161,-0.2867,1.6824,-0.6531,-2.3798,-0.0757,0.4221,0.0355,
10.474560,0.1973,-1.3161,-0.2867,1.6970,-0.6379,-2.3019,-0.0757,0.4221,0.0355,
10.511586,0.1973,-1.3161,-0.2867,1.6970,-0.6379,-2.3019,-1.2016,-0.0349,-0.4215,
10.513337,0.1973,-1.3161,-0.2867,2.4541,-3.0214,-3.6208,-1.2016,-0.0349,-0.4215,
10.518797,0.3723,-1.4441,-0.2578,2.4541,-3.0214,-3.6208,-1.2016,-0.0349,-0.4215,
10.519910,0.4575,-1.4456,-0.1811,2.4541,-3.0214,-3.6208,-1.2016,-0.0349,-0.4215,
10.520757,0.2714,-1.2826,-0.1999,2.4541,-3.0214,-3.6208,-1.2016,-0.0349,-0.4215,
10.521430,0.0065,-1.0498,-0.3084,2.4541,-3.0214,-3.6208,-1.2016,-0.0349,-0.4215,
10.550626,0.0065,-1.0498,-0.3084,2.4541,-3.0214,-3.6208,-2.3777,-0.1659,-0.6335,
10.552372,0.0065,-1.0498,-0.3084,2.4744,-2.3667,-2.4436,-2.3777,-0.1659,-0.6335,
10.591974,-0.1904,-0.9482,-0.2898,2.4744,-2.3667,-2.4436,-2.3777,-0.1659,-0.6335,
10.594171,-0.2959,-1.0354,-0.0763,2.4744,-2.3667,-2.4436,-2.3777,-0.1659,-0.6335,
10.595087,-0.2715,-1.2775,0.2071,2.4744,-2.3667,-2.4436,-2.3777,-0.1659,-0.6335,
10.596682,-0.2715,-1.2775,0.2071,2.4744,-2.3667,-2.4436,-2.8645,-0.4077,-0.5003,
10.597660,-0.2715,-1.2775,0.2071,-2.5511,-0.7090,0.4141,-2.8645,-0.4077,-0.5003,
10.630870,-0.2715,-1.2775,0.2071,-2.5511,-0.7090,0.4141,-2.2925,0.4179,-0.2926,
10.633265,-0.2715,-1.2775,0.2071,-3.2061,-2.6445,3.2359,-2.2925,0.4179,-0.2926,
10.670938,-0.2715,-1.2775,0.2071,-3.2061,-2.6445,3.2359,-2.1348,0.3965,0.0323,
10.673099,-0.2715,-1.2775,0.2071,-3.1744,-2.7822,3.9926,-2.1348,0.3965,0.0323,
10.674407,-0.2705,-1.3882,0.3290,-3.1744,-2.7822,3.9926,-2.1348,0.3965,0.0323,
10.675391,-0.3052,-1.2548,0.1944,-3.1744,-2.7822,3.9926,-2.1348,0.3965,0.0323,
10.676665,-0.3563,-1.1854,-0.0758,-3.1744,-2.7822,3.9926,-2.1348,0.3965,0.0323,
10.677976,-0.2776,-1.1473,-0.1713,-3.1744,-2.7822,3.9926,-2.1348,0.3965,0.0323,
10.679394,-0.0814,-1.0122,-0.0880,-3.1744,-2.7822,3.9926,-2.1348,0.3965,0.0323,
10.710384,-0.0814,-1.0122,-0.0880,-3.1744,-2.7822,3.9926,-2.1742,-0.0242,0.1431,
10.712639,-0.0814,-1.0122,-0.0880,-3.0641,-2.9848,4.7393,-2.1742,-0.0242,0.1431,
10.749810,-0.0814,-1.0122,-0.0880,-3.0641,-2.9848,4.7393,-1.6586,-0.0274,-0.2212,
10.752492,-0.0814,-1.0122,-0.0880,-1.0684,-0.8218,2.8719,-1.6586,-0.0274,-0.2212,
10.753838,0.0564,-0.9386,-0.0392,-1.0684,-0.8218,2.8719,-1.6586,-0.0274,-0.2212,
10.755038,0.1104,-0.9162,0.0229,-1.0684,-0.8218,2.8719,-1.6586,-0.0274,-0.2212,
10.756452,0.0747,-0.8820,-0.0104,-1.0684,-0.8218,2.8719,-1.6586,-0.0274,-0.2212,
10.757685,0.0246,-0.8116,-0.0976,-1.0684,-0.8218,2.8719,-1.6586,-0.0274,-0.2212,
10.789297,0.0246,-0.8116,-0.0976,-1.0684,-0.8218,2.8719,-0.9928,-0.6165,-0.5046,
10.791579,0.0246,-0.8116,-0.0976,0.5122,0.6023,3.8695,-0.9928,-0.6165,-0.5046,
10.828702,0.0002,-0.6997,-0.1408,0.5122,0.6023,3.8695,-0.9928,-0.6165,-0.5046,
10.831171,-0.0269,-0.6523,-0.1017,0.5122,0.6023,3.8695,-0.9928,-0.6165,-0.5046,
10.833140,-0.0462,-0.6032,-0.0191,0.5122,0.6023,3.8695,-0.9928,-0.6165,-0.5046,
10.834339,-0.0462,-0.6032,-0.0191,0.5122,0.6023,3.8695,-0.4144,-0.9148,-0.3906,
10.835952,-0.0462,-0.6032,-0.0191,-0.3912,2.6237,3.3907,-0.4144,-0.9148,-0.3906,
10.868938,-0.0462,-0.6032,-0.0191,-0.3912,2.6237,3.3907,0.3963,-0.7252,-0.0966,
10.870973,-0.0462,-0.6032,-0.0191,-0.7111,3.4413,3.9309,0.3963,-0.7252,-0.0966,
10.908983,-0.0462,-0.6032,-0.0191,-0.7111,3.4413,3.9309,1.1387,-0.5036,0.0973,
10.911192,-0.0462,-0.6032,-0.0191,-0.5887,3.5540,3.4616,1.1387,-0.5036,0.0973,
10.912772,-0.0851,-0.5473,0.0424,-0.5887,3.5540,3.4616,1.1387,-0.5036,0.0973,
10.913941,-0.0829,-0.5592,0.0138,-0.5887,3.5540,3.4616,1.1387,-0.5036,0.0973,
10.915070,-0.0330,-0.6005,-0.0898,-0.5887,3.5540,3.4616,1.1387,-0.5036,0.0973,
10.917595,-0.0230,-0.7156,-0.2593,-0.5887,3.5540,3.4616,1.1387,-0.5036,0.0973,
10.918919,-0.0186,-0.9152,-0.5210,-0.5887,3.5540,3.4616,1.1387,-0.5036,0.0973,
10.947719,-0.0186,-0.9152,-0.5210,-0.5887,3.5540,3.4616,1.2410,-0.3683,0.0100,
10.950070,-0.0186,-0.9152,-0.5210,-0.5271,3.6565,2.9568,1.2410,-0.3683,0.0100,
10.987759,-0.0186,-0.9152,-0.5210,-0.5271,3.6565,2.9568,0.0916,-0.4226,-0.3437,
10.990172,-0.0186,-0.9152,-0.5210,0.0910,0.2701,-2.3262,0.0916,-0.4226,-0.3437,
10.991320,0.0534,-1.1153,-0.8718,0.0910,0.2701,-2.3262,0.0916,-0.4226,-0.3437,
10.992715,0.0979,-1.2176,-1.1283,0.0910,0.2701,-2.3262,0.0916,-0.4226,-0.3437,
10.993987,0.2110,-1.1329,-1.2377,0.0910,0.2701,-2.3262,0.0916,-0.4226,-0.3437,
10.995131,0.2396,-1.0354,-0.8261,0.0910,0.2701,-2.3262,0.0916,-0.4226,-0.3437,
11.027439,0.2396,-1.0354,-0.8261,0.0910,0.2701,-2.3262,-0.7404,-0.3332,-0.7240,
11.029905,0.2396,-1.0354,-0.8261,1.5952,-1.8838,-6.9687,-0.7404,-0.3332,-0.7240,
11.066875,0.1280,-0.9565,-0.4907,1.5952,-1.8838,-6.9687,-0.7404,-0.3332,-0.7240,
11.069188,0.0923,-0.8915,-0.4694,1.5952,-1.8838,-6.9687,-0.7404,-0.3332,-0.7240,
11.070579,0.0429,-0.8519,-0.4115,1.5952,-1.8838,-6.9687,-0.7404,-0.3332,-0.7240,
11.071582,0.0429,-0.8519,-0.4115,1.5952,-1.8838,-6.9687,-0.4623,-0.8807,-0.8721,
11.072662,0.0429,-0.8519,-0.4115,0.4638,0.2772,-0.8293,-0.4623,-0.8807,-0.8721,
11.106464,0.0429,-0.8519,-0.4115,0.4638,0.2772,-0.8293,0.1630,-0.9084,-0.8454,
11.108393,0.0429,-0.8519,-0.4115,-0.2832,-4.8871,0.5385,0.1630,-0.9084,-0.8454,
11.146015,0.0429,-0.8519,-0.4115,-0.2832,-4.8871,0.5385,0.0703,0.5052,-0.5237,
11.148099,0.0429,-0.8519,-0.4115,-0.5362,-4.8097,0.4896,0.0703,0.5052,-0.5237,
11.149600,0.0312,-1.0752,-0.5268,-0.5362,-4.8097,0.4896,0.0703,0.5052,-0.5237,
11.150962,0.2242,-1.6083,-0.3507,-0.5362,-4.8097,0.4896,0.0703,0.5052,-0.5237,
11.152321,-0.1694,-1.6249,-0.0599,-0.5362,-4.8097,0.4896,0.0703,0.5052,-0.5237,
11.153337,-0.8974,-0.8094,-0.2657,-0.5362,-4.8097,0.4896,0.0703,0.5052,-0.5237,
11.154630,-0.8779,-0.4815,-0.2080,-0.5362,-4.8097,0.4896,0.0703,0.5052,-0.5237,
11.185427,-0.8779,-0.4815,-0.2080,-0.5362,-4.8097,0.4896,0.1587,0.3880,0.7716,
11.187554,-0.8779,-0.4815,-0.2080,-0.3011,-4.6863,0.4126,0.1587,0.3880,0.7716,
11.225900,-0.8779,-0.4815,-0.2080,-0.3011,-4.6863,0.4126,0.9640,1.3340,1.1146,
11.228273,-0.8779,-0.4815,-0.2080,-7.2766,2.4181,1.7141,0.9640,1.3340,1.1146,
11.229718,-0.3866,-0.8746,0.0615,-7.2766,2.4181,1.7141,0.9640,1.3340,1.1146,
11.230855,0.1790,-1.0982,0.3317,-7.2766,2.4181,1.7141,0.9640,1.3340,1.1146,
11.232093,0.3823,-1.1451,0.1792,-7.2766,2.4181,1.7141,0.9640,1.3340,1.1146,
11.233378,0.2936,-0.9416,0.0827,-7.2766,2.4181,1.7141,0.9640,1.3340,1.1146,
11.265281,0.2936,-0.9416,0.0827,-7.2766,2.4181,1.7141,1.1377,0.8898,0.3615,
11.267818,0.2936,-0.9416,0.0827,2.5699,-0.7677,4.4865,1.1377,0.8898,0.3615,
11.304626,0.2936,-0.9416,0.0827,2.5699,-0.7677,4.4865,1.1867,0.3358,0.0728,
11.306946,0.2936,-0.9416,0.0827,0.9992,0.3621,0.4039,1.1867,0.3358,0.0728,
11.308302,0.1780,-0.8499,-0.0854,0.9992,0.3621,0.4039,1.1867,0.3358,0.0728,
11.309447,0.1106,-0.9738,-0.2121,0.9992,0.3621,0.4039,1.1867,0.3358,0.0728,
11.310700,0.0918,-1.0469,-0.2161,0.9992,0.3621,0.4039,1.1867,0.3358,0.0728,
11.311956,0.0661,-0.9963,-0.1728,0.9992,0.3621,0.4039,1.1867,0.3358,0.0728,
11.344023,0.0661,-0.9963,-0.1728,0.9992,0.3621,0.4039,1.1547,0.1132,0.0856,
11.346060,0.0661,-0.9963,-0.1728,1.0067,0.4404,-0.0439,1.1547,0.1132,0.0856,
11.384223,0.0661,-0.9963,-0.1728,1.0067,0.4404,-0.0439,1.0738,-0.0615,0.1133,
11.386489,0.0661,-0.9963,-0.1728,0.1153,0.2103,-0.3291,1.0738,-0.0615,0.1133,
11.387682,0.0341,-0.9709,-0.1447,0.1153,0.2103,-0.3291,1.0738,-0.0615,0.1133,
11.388800,-0.0067,-0.9916,-0.1569,0.1153,0.2103,-0.3291,1.0738,-0.0615,0.1133,
11.390183,-0.0167,-0.9616,-0.1411,0.1153,0.2103,-0.3291,1.0738,-0.0615,0.1133,
11.391297,-0.0211,-0.9149,-0.1266,0.1153,0.2103,-0.3291,1.0738,-0.0615,0.1133,
11.423252,-0.0211,-0.9149,-0.1266,0.1153,0.2103,-0.3291,0.9278,0.0610,0.1932,
11.425082,-0.0211,-0.9149,-0.1266,0.1856,0.2455,-0.6819,0.9278,0.0610,0.1932,
11.463240,-0.0211,-0.9149,-0.1266,0.1856,0.2455,-0.6819,1.0514,0.2687,0.1239,
11.465442,-0.0211,-0.9149,-0.1266,0.0283,0.8858,-0.6982,1.0514,0.2687,0.1239,
11.466772,0.0705,-0.8903,-0.0885,0.0283,0.8858,-0.6982,1.0514,0.2687,0.1239,
11.467746,0.1392,-0.9027,-0.0494,0.0283,0.8858,-0.6982,1.0514,0.2687,0.1239,
11.468925,0.1231,-0.9482,-0.0905,0.0283,0.8858,-0.6982,1.0514,0.2687,0.1239,
11.470112,0.1055,-0.9633,-0.1376,0.0283,0.8858,-0.6982,1.0514,0.2687,0.1239,
11.502879,0.1055,-0.9633,-0.1376,0.0283,0.8858,-0.6982,1.0407,0.1132,0.0877,
11.505052,0.1055,-0.9633,-0.1376,1.1363,0.7296,-0.8371,1.0407,0.1132,0.0877,
11.542697,0.1055,-0.9633,-0.1376,1.1363,0.7296,-0.8371,0.7510,0.0045,0.1548,
11.545128,0.1055,-0.9633,-0.1376,0.1217,0.7326,-1.4707,0.7510,0.0045,0.1548,
11.546776,0.0708,-0.9394,-0.1518,0.1217,0.7326,-1.4707,0.7510,0.0045,0.1548,
11.547773,0.0073,-0.9420,-0.1525,0.1217,0.7326,-1.4707,0.7510,0.0045,0.1548,
11.549013,-0.0389,-0.9274,-0.0844,0.1217,0.7326,-1.4707,0.7510,0.0045,0.1548,
11.550275,-0.0814,-0.9440,0.0097,0.1217,0.7326,-1.4707,0.7510,0.0045,0.1548,
11.581437,-0.0814,-0.9440,0.0097,0.1217,0.7326,-1.4707,0.7371,0.1057,0.3189,
11.583762,-0.0814,-0.9440,0.0097,0.2442,0.7098,-1.7303,0.7371,0.1057,0.3189,
11.622143,-0.0814,-0.9440,0.0097,0.2442,0.7098,-1.7303,0.9619,0.2357,0.5362,
11.624756,-0.0814,-0.9440,0.0097,-0.4619,0.5529,-0.5233,0.9619,0.2357,0.5362,
11.626170,-0.0949,-0.9511,0.0537,-0.4619,0.5529,-0.5233,0.9619,0.2357,0.5362,
11.627302,-0.0692,-0.9499,0.0292,-0.4619,0.5529,-0.5233,0.9619,0.2357,0.5362,
11.628398,-0.0218,-0.9645,-0.0128,-0.4619,0.5529,-0.5233,0.9619,0.2357,0.5362,
11.629804,0.0263,-1.0144,-0.0255,-0.4619,0.5529,-0.5233,0.9619,0.2357,0.5362,
11.660876,0.0263,-1.0144,-0.0255,-0.4619,0.5529,-0.5233,1.0098,0.1164,0.6310,
11.663028,0.0263,-1.0144,-0.0255,-0.2082,0.4920,-0.8992,1.0098,0.1164,0.6310,
11.702767,0.0263,-1.0144,-0.0255,-0.2082,0.4920,-0.8992,0.9246,0.2314,0.5000,
11.705169,0.0818,-1.0073,-0.0135,-0.2082,0.4920,-0.8992,0.9246,0.2314,0.5000,
11.706366,0.1368,-0.9797,0.0297,-0.2082,0.4920,-0.8992,0.9246,0.2314,0.5000,
11.707549,0.1421,-1.0710,0.0720,-0.2082,0.4920,-0.8992,0.9246,0.2314,0.5000,
11.708487,0.1096,-1.1441,0.0434,-0.2082,0.4920,-0.8992,0.9246,0.2314,0.5000,
11.710223,0.1096,-1.1441,0.0434,1.0636,-0.0330,-1.6929,0.9246,0.2314,0.5000,
11.740809,0.1096,-1.1441,0.0434,1.0636,-0.0330,-1.6929,0.9086,0.4594,0.3189,
11.743033,0.1096,-1.1441,0.0434,2.1676,-0.7732,-1.3598,0.9086,0.4594,0.3189,
11.780330,0.1096,-1.1441,0.0434,2.1676,-0.7732,-1.3598,0.5124,0.4967,0.3093,
11.783192,0.1096,-1.1441,0.0434,2.2177,-1.8448,-4.1718,0.5124,0.4967,0.3093,
11.784541,0.0666,-1.1424,-0.0590,2.2177,-1.8448,-4.1718,0.5124,0.4967,0.3093,
11.785954,0.0774,-1.1355,-0.2336,2.2177,-1.8448,-4.1718,0.5124,0.4967,0.3093,
11.787429,0.2235,-1.2389,-0.3907,2.2177,-1.8448,-4.1718,0.5124,0.4967,0.3093,
11.789275,0.4123,-1.3904,-0.2957,2.2177,-1.8448,-4.1718,0.5124,0.4967,0.3093,
11.820139,0.4123,-1.3904,-0.2957,2.2177,-1.8448,-4.1718,-0.6520,0.1398,-0.0923,
11.822909,0.4123,-1.3904,-0.2957,2.1563,-1.7644,-3.8512,-0.6520,0.1398,-0.0923,
11.848318,0.3960,-1.4712,-0.1396,2.1563,-1.7644,-3.8512,-0.6520,0.1398,-0.0923,
11.851147,0.2061,-1.3601,-0.2087,2.1563,-1.7644,-3.8512,-0.6520,0.1398,-0.0923,
11.852944,0.0293,-1.1590,-0.3091,2.1563,-1.7644,-3.8512,-0.6520,0.1398,-0.0923,
11.858706,0.0293,-1.1590,-0.3091,2.1563,-1.7644,-3.8512,-1.8930,-0.0498,-0.6729,
11.859991,0.0293,-1.1590,-0.3091,3.9398,-3.8851,-2.9405,-1.8930,-0.0498,-0.6729,
11.897926,0.0293,-1.1590,-0.3091,3.9398,-3.8851,-2.9405,-2.9433,-0.2724,-0.7666,
11.899691,0.0293,-1.1590,-0.3091,-1.3528,-0.7291,-1.3360,-2.9433,-0.2724,-0.7666,
11.935677,-0.1879,-1.0268,-0.2324,-1.3528,-0.7291,-1.3360,-2.9433,-0.2724,-0.7666,
11.937564,-0.3609,-1.0872,0.0282,-1.3528,-0.7291,-1.3360,-2.9433,-0.2724,-0.7666,
11.938072,-0.4249,-1.2951,0.2699,-1.3528,-0.7291,-1.3360,-2.9433,-0.2724,-0.7666,
11.938574,-0.4266,-1.3649,0.3686,-1.3528,-0.7291,-1.3360,-2.9433,-0.2724,-0.7666,
11.940740,-0.4266,-1.3649,0.3686,-1.5212,-0.8015,-0.2872,-2.9433,-0.2724,-0.7666,
11.941485,-0.4266,-1.3649,0.3686,-1.5212,-0.8015,-0.2872,-2.6547,-0.0040,-0.4918,
11.977339,-0.4266,-1.3649,0.3686,-1.5212,-0.8015,-0.2872,-2.1135,0.9707,-0.1509,
11.978779,-0.4266,-1.3649,0.3686,-4.0981,-2.9379,4.9266,-2.1135,0.9707,-0.1509,
12.018438,-0.4266,-1.3649,0.3686,-4.0980,-3.1015,5.6552,-2.1135,0.9707,-0.1509,
12.020368,-0.4266,-1.3649,0.3686,-4.0980,-3.1015,5.6552,-2.1423,0.8013,0.0291,
12.021220,-0.4379,-1.2362,0.2169,-4.0980,-3.1015,5.6552,-2.1423,0.8013,0.0291,
12.022062,-0.4271,-1.1697,-0.0739,-4.0980,-3.1015,5.6552,-2.1423,0.8013,0.0291,
12.023032,-0.3218,-1.0916,-0.1589,-4.0980,-3.1015,5.6552,-2.1423,0.8013,0.0291,
12.023801,-0.1674,-0.9435,-0.0592,-4.0980,-3.1015,5.6552,-2.1423,0.8013,0.0291,
12.024630,0.0337,-0.8868,-0.0099,-4.0980,-3.1015,5.6552,-2.1423,0.8013,0.0291,
12.058614,0.0337,-0.8868,-0.0099,-4.0980,-3.1015,5.6552,-1.6842,0.2282,-0.1775,
12.060413,0.0337,-0.8868,-0.0099,-2.9243,-1.0372,2.5013,-1.6842,0.2282,-0.1775,
12.097293,0.0337,-0.8868,-0.0099,-2.9243,-1.0372,2.5013,-1.0664,-0.4791,-0.6441,
12.099526,0.0337,-0.8868,-0.0099,1.4562,0.6499,3.6401,-1.0664,-0.4791,-0.6441,
12.100478,0.2218,-0.8761,0.0202,1.4562,0.6499,3.6401,-1.0664,-0.4791,-0.6441,
12.101405,0.2281,-0.8746,-0.0560,1.4562,0.6499,3.6401,-1.0664,-0.4791,-0.6441,
12.102396,0.0456,-0.7957,-0.1183,1.4562,0.6499,3.6401,-1.0664,-0.4791,-0.6441,
12.103413,-0.0785,-0.7166,-0.0890,1.4562,0.6499,3.6401,-1.0664,-0.4791,-0.6441,
12.136177,-0.0785,-0.7166,-0.0890,1.4562,0.6499,3.6401,-0.5497,-1.0011,-0.6228,
12.137980,-0.0785,-0.7166,-0.0890,1.3611,0.5516,3.7838,-0.5497,-1.0011,-0.6228,
12.176254,-0.0785,-0.7166,-0.0890,1.3611,0.5516,3.7838,0.1193,-0.8445,-0.2659,
12.178434,-0.0785,-0.7166,-0.0890,-0.7067,2.0009,2.9889,0.1193,-0.8445,-0.2659,
12.179986,-0.1310,-0.6762,-0.0551,-0.7067,2.0009,2.9889,0.1193,-0.8445,-0.2659,
12.181217,-0.1398,-0.6450,0.0021,-0.7067,2.0009,2.9889,0.1193,-0.8445,-0.2659,
12.182601,-0.1137,-0.5944,0.0695,-0.7067,2.0009,2.9889,0.1193,-0.8445,-0.2659,
12.183953,-0.0966,-0.5998,0.0180,-0.7067,2.0009,2.9889,0.1193,-0.8445,-0.2659,
12.216642,-0.0966,-0.5998,0.0180,-0.7067,2.0009,2.9889,0.8224,-0.5728,-0.0028,
12.219143,-0.0966,-0.5998,0.0180,-1.2105,3.2081,3.7779,0.8224,-0.5728,-0.0028,
12.255833,-0.0096,-0.6547,-0.1098,-1.2105,3.2081,3.7779,0.8224,-0.5728,-0.0028,
12.257868,0.0493,-0.7693,-0.2473,-1.2105,3.2081,3.7779,0.8224,-0.5728,-0.0028,
12.259222,0.0552,-0.9240,-0.4550,-1.2105,3.2081,3.7779,0.8224,-0.5728,-0.0028,
12.260405,0.0552,-0.9240,-0.4550,-1.2105,3.2081,3.7779,1.3561,-0.7454,-0.0007,
12.261551,0.0552,-0.9240,-0.4550,0.3327,1.6910,0.3270,1.3561,-0.7454,-0.0007,
12.294963,0.0552,-0.9240,-0.4550,0.3327,1.6910,0.3270,0.9768,-0.9819,-0.1339,
12.297171,0.0552,-0.9240,-0.4550,1.9577,-1.4048,-6.3735,0.9768,-0.9819,-0.1339,
12.335012,0.0552,-0.9240,-0.4550,1.9577,-1.4048,-6.3735,-0.0149,-0.9500,-0.5163,
12.337144,0.0552,-0.9240,-0.4550,1.8335,-1.3828,-6.2623,-0.0149,-0.9500,-0.5163,
12.338459,0.1028,-1.0537,-0.7401,1.8335,-1.3828,-6.2623,-0.0149,-0.9500,-0.5163,
12.339656,0.2159,-1.1338,-1.0130,1.8335,-1.3828,-6.2623,-0.0149,-0.9500,-0.5163,
12.340868,0.2660,-1.1487,-1.0311,1.8335,-1.3828,-6.2623,-0.0149,-0.9500,-0.5163,
12.342094,0.2868,-1.1055,-0.8720,1.8335,-1.3828,-6.2623,-0.0149,-0.9500,-0.5163,
12.343093,0.2047,-1.0422,-0.6837,1.8335,-1.3828,-6.2623,-0.0149,-0.9500,-0.5163,
12.374076,0.2047,-1.0422,-0.6837,1.8335,-1.3828,-6.2623,-0.3441,-1.0927,-0.6910,
12.376245,0.2047,-1.0422,-0.6837,1.6704,-1.4025,-6.0246,-0.3441,-1.0927,-0.6910,
12.407436,0.1712,-0.9567,-0.5972,1.6704,-1.4025,-6.0246,-0.3441,-1.0927,-0.6910,
12.409691,0.1881,-0.8798,-0.4618,1.6704,-1.4025,-6.0246,-0.3441,-1.0927,-0.6910,
12.411354,0.1409,-0.8048,-0.2974,1.6704,-1.4025,-6.0246,-0.3441,-1.0927,-0.6910,
12.414320,0.1409,-0.8048,-0.2974,1.6704,-1.4025,-6.0246,-0.2429,-1.6690,-0.7453,
12.416215,0.1409,-0.8048,-0.2974,1.8213,-0.6721,-3.7882,-0.2429,-1.6690,-0.7453,
12.453438,0.1409,-0.8048,-0.2974,1.8213,-0.6721,-3.7882,0.3164,-0.7625,-0.8348,
12.455417,0.1409,-0.8048,-0.2974,1.0487,0.8034,-0.3051,0.3164,-0.7625,-0.8348,
12.493708,0.1409,-0.8048,-0.2974,1.0487,0.8034,-0.3051,0.2418,0.3337,-0.4353,
12.495906,0.1409,-0.8048,-0.2974,0.8303,0.8079,-0.3991,0.2418,0.3337,-0.4353,
12.497099,0.1688,-0.9719,-0.2964,0.8303,0.8079,-0.3991,0.2418,0.3337,-0.4353,
12.498430,0.0498,-1.4998,-0.0265,0.8303,0.8079,-0.3991,0.2418,0.3337,-0.4353,
12.500005,-0.6101,-1.5687,-0.1364,0.8303,0.8079,-0.3991,0.2418,0.3337,-0.4353,
12.501289,-0.6448,-0.8837,-0.4159,0.8303,0.8079,-0.3991,0.2418,0.3337,-0.4353,
12.502711,-0.5275,-0.8209,-0.1877,0.8303,0.8079,-0.3991,0.2418,0.3337,-0.4353,
12.533431,-0.5275,-0.8209,-0.1877,0.8303,0.8079,-0.3991,0.0064,-0.2533,0.5756,
12.536203,-0.5275,-0.8209,-0.1877,-4.4104,-3.3521,1.1436,0.0064,-0.2533,0.5756,
12.573082,-0.5275,-0.8209,-0.1877,-4.4104,-3.3521,1.1436,0.4548,0.2005,0.9176,
12.575274,-0.5275,-0.8209,-0.1877,-3.3869,0.8313,3.7197,0.4548,0.2005,0.9176,
12.576669,-0.4132,-0.9315,0.1365,-3.3869,0.8313,3.7197,0.4548,0.2005,0.9176,
12.577650,-0.0682,-0.9345,0.3339,-3.3869,0.8313,3.7197,0.4548,0.2005,0.9176,
12.578727,0.1077,-0.9452,0.2376,-3.3869,0.8313,3.7197,0.4548,0.2005,0.9176,
12.580122,0.1707,-0.8861,0.1988,-3.3869,0.8313,3.7197,0.4548,0.2005,0.9176,
12.612556,0.1707,-0.8861,0.1988,-3.3869,0.8313,3.7197,0.8799,-0.0882,0.5415,
12.615190,0.1707,-0.8861,0.1988,-3.1181,0.9073,3.3263,0.8799,-0.0882,0.5415,
12.652264,0.1707,-0.8861,0.1988,1.8889,0.8180,3.8634,0.8799,-0.0882,0.5415,
12.654867,0.1707,-0.8861,0.1988,1.8889,0.8180,3.8634,1.6458,-0.4173,-0.0114,
12.656427,0.2462,-0.9203,0.2266,1.8889,0.8180,3.8634,1.6458,-0.4173,-0.0114,
12.657690,0.2406,-1.1959,0.1157,1.8889,0.8180,3.8634,1.6458,-0.4173,-0.0114,
12.658806,0.1861,-1.1976,-0.1789,1.8889,0.8180,3.8634,1.6458,-0.4173,-0.0114,
12.659773,0.0236,-0.9946,-0.3553,1.8889,0.8180,3.8634,1.6458,-0.4173,-0.0114,
12.691479,0.0236,-0.9946,-0.3553,1.8889,0.8180,3.8634,1.2772,0.0738,-0.3671,
12.693875,0.0236,-0.9946,-0.3553,1.4746,-1.1664,-0.1649,1.2772,0.0738,-0.3671,
12.731576,0.0236,-0.9946,-0.3553,1.4746,-1.1664,-0.1649,0.7265,0.4924,-0.1850,
12.733592,0.0236,-0.9946,-0.3553,-1.7196,1.2080,0.2609,0.7265,0.4924,-0.1850,
12.734916,-0.1589,-0.9264,-0.2757,-1.7196,1.2080,0.2609,0.7265,0.4924,-0.1850,
12.736267,-0.1889,-0.8844,-0.0646,-1.7196,1.2080,0.2609,0.7265,0.4924,-0.1850,
12.737395,-0.1603,-0.8534,0.1411,-1.7196,1.2080,0.2609,0.7265,0.4924,-0.1850,
12.738612,-0.1293,-0.8631,0.1717,-1.7196,1.2080,0.2609,0.7265,0.4924,-0.1850,
12.770719,-0.1293,-0.8631,0.1717,-1.7196,1.2080,0.2609,1.1302,0.8024,0.0504,
12.772983,-0.1293,-0.8631,0.1717,-1.6929,1.2183,-0.1830,1.1302,0.8024,0.0504,
12.810510,-0.1293,-0.8631,0.1717,-0.8088,0.8923,0.2133,1.1302,0.8024,0.0504,
12.812664,-0.1293,-0.8631,0.1717,-0.8088,0.8923,0.2133,1.1569,0.5713,0.3061,
12.813936,-0.1210,-0.9225,0.0246,-0.8088,0.8923,0.2133,1.1569,0.5713,0.3061,
12.814908,-0.0264,-0.9770,-0.1337,-0.8088,0.8923,0.2133,1.1569,0.5713,0.3061,
12.816235,0.1106,-1.0051,-0.2195,-0.8088,0.8923,0.2133,1.1569,0.5713,0.3061,
12.817232,0.2140,-0.9760,-0.1950,-0.8088,0.8923,0.2133,1.1569,0.5713,0.3061,
12.850220,0.2140,-0.9760,-0.1950,-0.6963,0.8726,-0.0573,1.1569,0.5713,0.3061,
12.852495,0.2140,-0.9760,-0.1950,-0.6963,0.8726,-0.0573,0.6988,0.4892,0.2496,
12.889507,0.2140,-0.9760,-0.1950,-0.6963,0.8726,-0.0573,0.7659,0.4200,0.1016,
12.891913,0.2140,-0.9760,-0.1950,1.8786,0.3262,-2.0223,0.7659,0.4200,0.1016,
12.893408,0.1824,-0.9430,-0.0443,1.8786,0.3262,-2.0223,0.7659,0.4200,0.1016,
12.894238,0.0410,-0.9333,0.0822,1.8786,0.3262,-2.0223,0.7659,0.4200,0.1016,
12.896711,-0.0555,-0.9496,0.1074,1.8786,0.3262,-2.0223,0.7659,0.4200,0.1016,
12.897827,-0.0992,-0.9755,0.0566,1.8786,0.3262,-2.0223,0.7659,0.4200,0.1016,
12.929212,-0.0992,-0.9755,0.0566,-0.0338,0.4997,-0.1182,0.7659,0.4200,0.1016,
12.931742,-0.0992,-0.9755,0.0566,-0.0338,0.4997,-0.1182,1.0429,0.6043,0.2496,
12.969576,-0.0992,-0.9755,0.0566,-0.0338,0.4997,-0.1182,0.9896,0.4424,0.5181,
12.971672,-0.0992,-0.9755,0.0566,-0.3279,0.2016,-1.6030,0.9896,0.4424,0.5181,
12.973232,-0.1200,-0.9799,-0.0194,-0.3279,0.2016,-1.6030,0.9896,0.4424,0.5181,
12.974221,-0.1161,-0.9689,-0.0490,-0.3279,0.2016,-1.6030,0.9896,0.4424,0.5181,
12.975190,-0.0369,-0.9836,-0.0328,-0.3279,0.2016,-1.6030,0.9896,0.4424,0.5181,
12.976487,0.1128,-1.0139,0.0085,-0.3279,0.2016,-1.6030,0.9896,0.4424,0.5181,
13.009069,0.1128,-1.0139,0.0085,-0.3279,0.2016,-1.6030,0.7712,0.3454,0.5106,
13.011197,0.1128,-1.0139,0.0085,-0.1092,0.1423,-1.8605,0.7712,0.3454,0.5106,
13.048293,0.1128,-1.0139,0.0085,-0.1092,0.1423,-1.8605,0.7861,0.5681,0.0994,
13.050666,0.1128,-1.0139,0.0085,2.7157,-0.8789,-1.7612,0.7861,0.5681,0.0994,
13.051982,0.2352,-1.0605,0.0168,2.7157,-0.8789,-1.7612,0.7861,0.5681,0.0994,
13.053193,0.2345,-1.1583,-0.0184,2.7157,-0.8789,-1.7612,0.7861,0.5681,0.0994,
13.054416,0.1104,-1.2164,-0.1367,2.7157,-0.8789,-1.7612,0.7861,0.5681,0.0994,
13.055416,0.0317,-1.1991,-0.3458,2.7157,-0.8789,-1.7612,0.7861,0.5681,0.0994,
13.087422,0.0317,-1.1991,-0.3458,2.7157,-0.8789,-1.7612,0.3409,0.7502,0.0941,
13.089549,0.0317,-1.1991,-0.3458,2.7601,-0.8919,-1.8351,0.3409,0.7502,0.0941,
13.127900,0.0317,-1.1991,-0.3458,2.7601,-0.8919,-1.8351,-0.8746,0.3401,-0.0028,
13.130098,0.0317,-1.1991,-0.3458,1.7380,-2.1670,-4.2922,-0.8746,0.3401,-0.0028,
13.131598,0.1297,-1.2367,-0.3917,1.7380,-2.1670,-4.2922,-0.8746,0.3401,-0.0028,
13.133063,0.2782,-1.3420,-0.2735,1.7380,-2.1670,-4.2922,-0.8746,0.3401,-0.0028,
13.134198,0.3373,-1.3999,-0.2573,1.7380,-2.1670,-4.2922,-0.8746,0.3401,-0.0028,
13.135442,0.3290,-1.3278,-0.2493,1.7380,-2.1670,-4.2922,-0.8746,0.3401,-0.0028,
13.167373,0.3290,-1.3278,-0.2493,1.7380,-2.1670,-4.2922,-2.1838,-0.2810,-0.5749,
13.170063,0.3290,-1.3278,-0.2493,3.6402,-3.3692,-3.0902,-2.1838,-0.2810,-0.5749,
13.207046,0.1497,-1.1544,-0.1308,3.6402,-3.3692,-3.0902,-2.1838,-0.2810,-0.5749,
13.209486,-0.2297,-0.9728,-0.0533,3.6402,-3.3692,-3.0902,-2.1838,-0.2810,-0.5749,
13.210776,-0.4733,-1.0295,0.0507,3.6402,-3.3692,-3.0902,-2.1838,-0.2810,-0.5749,
13.211899,-0.4733,-1.0295,0.0507,3.6402,-3.3692,-3.0902,-2.8634,-0.4993,-0.8124,
13.213628,-0.4733,-1.0295,0.0507,-1.5457,-0.3699,0.1399,-2.8634,-0.4993,-0.8124,
13.245375,-0.4733,-1.0295,0.0507,-1.5457,-0.3699,0.1399,-2.6323,0.0163,-0.3405,
13.247604,-0.4733,-1.0295,0.0507,-4.6108,-3.4741,3.2341,-2.6323,0.0163,-0.3405,
13.286203,-0.4733,-1.0295,0.0507,-4.6108,-3.4741,3.2341,-2.1881,0.8376,0.1133,
13.288046,-0.4733,-1.0295,0.0507,-4.5583,-3.5858,4.0222,-2.1881,0.8376,0.1133,
13.289928,-0.5454,-1.3197,0.1521,-4.5583,-3.5858,4.0222,-2.1881,0.8376,0.1133,
13.291234,-0.5046,-1.4575,0.2467,-4.5583,-3.5858,4.0222,-2.1881,0.8376,0.1133,
13.292632,-0.4239,-1.3136,0.1160,-4.5583,-3.5858,4.0222,-2.1881,0.8376,0.1133,
13.293765,-0.3335,-1.2469,-0.1218,-4.5583,-3.5858,4.0222,-2.1881,0.8376,0.1133,
13.295081,-0.1850,-1.1539,-0.1975,-4.5583,-3.5858,4.0222,-2.1881,0.8376,0.1133,
13.325768,-0.1850,-1.1539,-0.1975,-4.5583,-3.5858,4.0222,-2.1966,0.1686,0.1602,
13.328185,-0.1850,-1.1539,-0.1975,-4.4384,-3.7645,4.7842,-2.1966,0.1686,0.1602,
13.365056,-0.1850,-1.1539,-0.1975,-4.4384,-3.7645,4.7842,-1.7609,-0.5515,-0.1051,
13.367592,-0.1850,-1.1539,-0.1975,-1.3343,-1.8333,2.2769,-1.7609,-0.5515,-0.1051,
13.369623,-0.0235,-1.0356,-0.1218,-1.3343,-1.8333,2.2769,-1.7609,-0.5515,-0.1051,
13.370628,0.1343,-0.9865,0.0976,-1.3343,-1.8333,2.2769,-1.7609,-0.5515,-0.1051,
13.371687,0.2069,-0.9367,0.0549,-1.3343,-1.8333,2.2769,-1.7609,-0.5515,-0.1051,
13.373169,0.1507,-0.8646,-0.1244,-1.3343,-1.8333,2.2769,-1.7609,-0.5515,-0.1051,
13.404513,0.1507,-0.8646,-0.1244,-1.3343,-1.8333,2.2769,-1.2059,-1.0501,-0.3874,
13.407140,0.1507,-0.8646,-0.1244,2.0311,0.1029,4.1644,-1.2059,-1.0501,-0.3874,
13.444629,0.1507,-0.8646,-0.1244,2.0311,0.1029,4.1644,-0.6690,-1.2567,-0.3394,
13.446899,0.1507,-0.8646,-0.1244,-0.5956,2.6319,4.0558,-0.6690,-1.2567,-0.3394,
13.448200,-0.0509,-0.7574,-0.0836,-0.5956,2.6319,4.0558,-0.6690,-1.2567,-0.3394,
13.449292,-0.1459,-0.6584,-0.0270,-0.5956,2.6319,4.0558,-0.6690,-1.2567,-0.3394,
13.450563,-0.1449,-0.5521,0.0593,-0.5956,2.6319,4.0558,-0.6690,-1.2567,-0.3394,
13.451730,-0.1049,-0.4793,0.1389,-0.5956,2.6319,4.0558,-0.6690,-1.2567,-0.3394,
13.484247,-0.1049,-0.4793,0.1389,-0.5956,2.6319,4.0558,0.3398,-0.9276,-0.1221,
13.486607,-0.1049,-0.4793,0.1389,-0.4775,2.6456,3.8472,0.3398,-0.9276,-0.1221,
13.523488,-0.1151,-0.4864,0.1191,-0.4775,2.6456,3.8472,0.3398,-0.9276,-0.1221,
13.526316,-0.1107,-0.4959,0.0331,-0.4775,2.6456,3.8472,0.3398,-0.9276,-0.1221,
13.527611,-0.0905,-0.5487,-0.1122,-0.4775,2.6456,3.8472,0.3398,-0.9276,-0.1221,
13.528728,-0.0905,-0.5487,-0.1122,-0.4775,2.6456,3.8472,1.3358,-0.4557,-0.0316,
13.529982,-0.0905,-0.5487,-0.1122,-0.3773,4.4242,4.3940,1.3358,-0.4557,-0.0316,
13.562975,-0.0905,-0.5487,-0.1122,-0.3773,4.4242,4.3940,1.7587,-0.3949,0.0249,
13.565322,-0.0905,-0.5487,-0.1122,-0.1944,1.7240,-1.1716,1.7587,-0.3949,0.0249,
13.602479,-0.0905,-0.5487,-0.1122,-0.1944,1.7240,-1.1716,0.4176,-0.6112,0.0377,
13.605079,-0.0905,-0.5487,-0.1122,-0.1138,1.7383,-1.3244,0.4176,-0.6112,0.0377,
13.606669,-0.1085,-0.7498,-0.3460,-0.1138,1.7383,-1.3244,0.4176,-0.6112,0.0377,
13.607962,-0.0946,-1.0471,-0.7582,-0.1138,1.7383,-1.3244,0.4176,-0.6112,0.0377,
13.609259,-0.1269,-1.3794,-1.1241,-0.1138,1.7383,-1.3244,0.4176,-0.6112,0.0377,
13.610362,-0.0477,-1.3882,-1.2409,-0.1138,1.7383,-1.3244,0.4176,-0.6112,0.0377,
13.611372,0.0019,-1.1111,-0.9329,-0.1138,1.7383,-1.3244,0.4176,-0.6112,0.0377,
13.643008,0.0019,-1.1111,-0.9329,-0.1138,1.7383,-1.3244,-0.9460,-0.3023,-0.2404,
13.645761,0.0019,-1.1111,-0.9329,0.2214,-3.3112,-7.6537,-0.9460,-0.3023,-0.2404,
13.683318,0.0019,-1.1111,-0.9329,0.2214,-3.3112,-7.6537,-0.6498,0.1675,-0.5237,
13.685631,0.0019,-1.1111,-0.9329,-0.2192,0.6546,-1.1326,-0.6498,0.1675,-0.5237,
13.686974,-0.0682,-0.9333,-0.4682,-0.2192,0.6546,-1.1326,-0.6498,0.1675,-0.5237,
13.688768,-0.0909,-0.8675,-0.4357,-0.2192,0.6546,-1.1326,-0.6498,0.1675,-0.5237,
13.690336,-0.0836,-0.8392,-0.4784,-0.2192,0.6546,-1.1326,-0.6498,0.1675,-0.5237,
13.691304,-0.0423,-0.7505,-0.3924,-0.2192,0.6546,-1.1326,-0.6498,0.1675,-0.5237,
13.721886,-0.0423,-0.7505,-0.3924,-0.4119,0.6476,-1.0968,-0.6498,0.1675,-0.5237,
13.724950,-0.0423,-0.7505,-0.3924,-0.4119,0.6476,-1.0968,-0.0671,-0.4152,-0.6963,
13.762050,0.0100,-0.7654,-0.3338,-0.4119,0.6476,-1.0968,-0.0671,-0.4152,-0.6963,
13.764289,0.1111,-1.1548,-0.6819,-0.4119,0.6476,-1.0968,-0.0671,-0.4152,-0.6963,
13.765323,0.1746,-1.7062,-0.6793,-0.4119,0.6476,-1.0968,-0.0671,-0.4152,-0.6963,
13.766809,0.1746,-1.7062,-0.6793,-0.4119,0.6476,-1.0968,0.4879,-0.1105,-0.9701,
13.767941,0.1746,-1.7062,-0.6793,0.2904,0.6093,-1.3400,0.4879,-0.1105,-0.9701,
13.801229,0.1746,-1.7062,-0.6793,0.2904,0.6093,-1.3400,0.0650,0.9654,-0.7911,
13.803508,0.1746,-1.7062,-0.6793,-2.2889,-3.1323,0.2738,0.0650,0.9654,-0.7911,
13.841249,0.1746,-1.7062,-0.6793,-2.2889,-3.1323,0.2738,0.5369,0.8195,0.3295,
13.843822,0.1746,-1.7062,-0.6793,-2.2296,-3.0102,0.0601,0.5369,0.8195,0.3295,
13.845186,-0.2004,-1.5230,-0.1652,-2.2296,-3.0102,0.0601,0.5369,0.8195,0.3295,
13.846711,-0.5695,-0.6042,-0.0585,-2.2296,-3.0102,0.0601,0.5369,0.8195,0.3295,
13.847981,-0.9355,-0.4168,-0.1039,-2.2296,-3.0102,0.0601,0.5369,0.8195,0.3295,
13.849107,-0.5607,-0.7654,-0.0985,-2.2296,-3.0102,0.0601,0.5369,0.8195,0.3295,
13.850089,0.1135,-1.0564,0.1191,-2.2296,-3.0102,0.0601,0.5369,0.8195,0.3295,
13.880564,0.1135,-1.0564,0.1191,-2.2296,-3.0102,0.0601,0.8501,1.6951,0.9634,
13.882766,0.1135,-1.0564,0.1191,-4.5500,2.2646,2.3616,0.8501,1.6951,0.9634,
13.920395,0.1135,-1.0564,0.1191,-4.5500,2.2646,2.3616,0.9587,1.0517,0.5213,
13.923134,0.1135,-1.0564,0.1191,2.4120,-0.6962,3.6743,0.9587,1.0517,0.5213,
13.924448,0.2565,-1.1710,0.2054,2.4120,-0.6962,3.6743,0.9587,1.0517,0.5213,
13.925454,0.2210,-1.0222,0.2305,2.4120,-0.6962,3.6743,0.9587,1.0517,0.5213,
13.926644,0.2543,-0.9838,0.0133,2.4120,-0.6962,3.6743,0.9587,1.0517,0.5213,
13.927895,0.2540,-1.0947,-0.1484,2.4120,-0.6962,3.6743,0.9587,1.0517,0.5213,
13.959723,0.2540,-1.0947,-0.1484,2.4184,-0.5895,3.1416,0.9587,1.0517,0.5213,
13.962124,0.2540,-1.0947,-0.1484,2.4184,-0.5895,3.1416,1.2431,0.1909,0.1655,
14.000108,0.2540,-1.0947,-0.1484,2.4184,-0.5895,3.1416,1.2304,0.0131,0.0323,
14.002509,0.2540,-1.0947,-0.1484,1.6886,-0.6271,-0.0129,1.2304,0.0131,0.0323,
14.004139,0.1736,-1.0930,-0.1215,1.6886,-0.6271,-0.0129,1.2304,0.0131,0.0323,
14.005403,0.0859,-1.0254,-0.1000,1.6886,-0.6271,-0.0129,1.2304,0.0131,0.0323,
14.006840,0.0107,-1.0041,-0.0548,1.6886,-0.6271,-0.0129,1.2304,0.0131,0.0323,
14.007932,-0.0814,-0.9599,-0.0546,1.6886,-0.6271,-0.0129,1.2304,0.0131,0.0323,
14.038333,-0.0814,-0.9599,-0.0546,1.6886,-0.6271,-0.0129,1.1558,-0.0636,0.0291,
14.040188,-0.0814,-0.9599,-0.0546,1.6740,-0.5730,-0.4581,1.1558,-0.0636,0.0291,
14.078256,-0.0814,-0.9599,-0.0546,1.6740,-0.5730,-0.4581,1.0929,0.2538,0.1442,
14.080191,-0.0814,-0.9599,-0.0546,-0.4265,0.5893,-0.1516,1.0929,0.2538,0.1442,
14.081480,-0.0768,-0.8973,-0.0358,-0.4265,0.5893,-0.1516,1.0929,0.2538,0.1442,
14.082596,-0.0567,-0.8981,-0.0099,-0.4265,0.5893,-0.1516,1.0929,0.2538,0.1442,
14.083708,-0.0536,-0.9115,-0.0326,-0.4265,0.5893,-0.1516,1.0929,0.2538,0.1442,
14.084672,-0.0619,-0.9120,-0.1037,-0.4265,0.5893,-0.1516,1.0929,0.2538,0.1442,
14.117669,-0.0619,-0.9120,-0.1037,-0.4265,0.5893,-0.1516,0.9150,0.4285,0.3370,
14.119936,-0.0619,-0.9120,-0.1037,-0.3701,1.0319,-0.5048,0.9150,0.4285,0.3370,
14.157911,-0.0619,-0.9120,-0.1037,-0.3701,1.0319,-0.5048,0.7222,0.1707,0.4425,
14.160015,-0.0619,-0.9120,-0.1037,1.0259,0.6056,-1.2524,0.7222,0.1707,0.4425,
14.161343,-0.0106,-0.9379,-0.1340,1.0259,0.6056,-1.2524,0.7222,0.1707,0.4425,
14.162651,0.0774,-0.9526,-0.1083,1.0259,0.6056,-1.2524,0.7222,0.1707,0.4425,
14.163650,0.1402,-0.9555,-0.0529,1.0259,0.6056,-1.2524,0.7222,0.1707,0.4425,
14.164740,0.1619,-0.9181,0.0121,1.0259,0.6056,-1.2524,0.7222,0.1707,0.4425,
14.197473,0.1619,-0.9181,0.0121,1.0259,0.6056,-1.2524,0.8320,0.2495,0.2901,
14.199956,0.1619,-0.9181,0.0121,1.1251,0.5764,-1.5483,0.8320,0.2495,0.2901,
14.237588,0.1619,-0.9181,0.0121,1.1251,0.5764,-1.5483,1.1249,0.3326,0.2667,
14.240038,0.1619,-0.9181,0.0121,1.2936,0.6277,-0.4818,1.1249,0.3326,0.2667,
14.241416,0.1011,-0.9132,0.0654,1.2936,0.6277,-0.4818,1.1249,0.3326,0.2667,
14.242645,-0.0328,-0.9831,0.0837,1.2936,0.6277,-0.4818,1.1249,0.3326,0.2667,
14.243681,-0.1313,-1.0466,0.0199,1.2936,0.6277,-0.4818,1.1249,0.3326,0.2667,
14.244771,-0.1764,-1.0535,-0.0871,1.2936,0.6277,-0.4818,1.1249,0.3326,0.2667,
14.276378,-0.1764,-1.0535,-0.0871,1.2936,0.6277,-0.4818,1.1941,0.3348,0.5128,
14.278564,-0.1764,-1.0535,-0.0871,1.4838,0.5467,-0.9210,1.1941,0.3348,0.5128,
14.316787,-0.1764,-1.0535,-0.0871,1.4838,0.5467,-0.9210,0.8650,0.6139,0.6864,
14.318792,-0.1764,-1.0535,-0.0871,-0.4430,-0.5580,-2.5347,0.8650,0.6139,0.6864,
14.320318,-0.1471,-1.0312,-0.1836,-0.4430,-0.5580,-2.5347,0.8650,0.6139,0.6864,
14.321472,-0.0013,-1.0674,-0.1511,-0.4430,-0.5580,-2.5347,0.8650,0.6139,0.6864,
14.322844,0.1480,-1.0952,-0.0289,-0.4430,-0.5580,-2.5347,0.8650,0.6139,0.6864,
14.323982,0.2631,-1.1184,-0.0394,-0.4430,-0.5580,-2.5347,0.8650,0.6139,0.6864,
14.355153,0.2631,-1.1184,-0.0394,-0.4430,-0.5580,-2.5347,0.8213,0.7928,0.5010,
14.357265,0.2631,-1.1184,-0.0394,2.5874,-1.1119,-2.6640,0.8213,0.7928,0.5010,
14.393811,0.3293,-1.1297,-0.1726,2.5874,-1.1119,-2.6640,0.8213,0.7928,0.5010,
14.396419,0.3210,-1.1732,-0.3355,2.5874,-1.1119,-2.6640,0.8213,0.7928,0.5010,
14.398000,0.3388,-1.3078,-0.3829,2.5874,-1.1119,-2.6640,0.8213,0.7928,0.5010,
14.399393,0.3388,-1.3078,-0.3829,2.5874,-1.1119,-2.6640,0.2695,0.4999,0.0504,
14.400351,0.3388,-1.3078,-0.3829,4.4627,-2.1754,-4.8524,0.2695,0.4999,0.0504,
14.435475,0.3388,-1.3078,-0.3829,4.4627,-2.1754,-4.8524,-1.0898,-0.0924,-0.4982,
14.437898,0.3388,-1.3078,-0.3829,3.0005,-3.9685,-3.8395,-1.0898,-0.0924,-0.4982,
14.475114,0.3388,-1.3078,-0.3829,3.0005,-3.9685,-3.8395,-2.5023,-0.2756,-0.7666,
14.477364,0.3388,-1.3078,-0.3829,2.6457,-3.7820,-2.8231,-2.5023,-0.2756,-0.7666,
14.478711,0.3202,-1.4570,-0.2444,2.6457,-3.7820,-2.8231,-2.5023,-0.2756,-0.7666,
14.479987,0.2289,-1.5047,-0.2126,2.6457,-3.7820,-2.8231,-2.5023,-0.2756,-0.7666,
14.481232,0.0681,-1.2482,-0.2705,2.6457,-3.7820,-2.8231,-2.5023,-0.2756,-0.7666,
14.482301,-0.1481,-1.0688,-0.2165,2.6457,-3.7820,-2.8231,-2.5023,-0.2756,-0.7666,
14.483600,-0.3834,-1.1590,0.0578,2.6457,-3.7820,-2.8231,-2.5023,-0.2756,-0.7666,
14.514408,-0.3834,-1.1590,0.0578,2.6457,-3.7820,-2.8231,-3.0605,-0.1414,-0.7496,
14.517189,-0.3834,-1.1590,0.0578,2.3102,-3.7237,-1.5880,-3.0605,-0.1414,-0.7496,
14.554030,-0.3834,-1.1590,0.0578,2.3102,-3.7237,-1.5880,-2.2871,1.0261,-0.3309,
14.556276,-0.3834,-1.1590,0.0578,-3.4667,-1.9805,2.2085,-2.2871,1.0261,-0.3309,
14.557468,-0.5808,-1.4250,0.3258,-3.4667,-1.9805,2.2085,-2.2871,1.0261,-0.3309,
14.558770,-0.7283,-1.5325,0.4040,-3.4667,-1.9805,2.2085,-2.2871,1.0261,-0.3309,
14.560186,-0.7020,-1.2528,0.2208,-3.4667,-1.9805,2.2085,-2.2871,1.0261,-0.3309,
14.561328,-0.5590,-0.9904,-0.1469,-3.4667,-1.9805,2.2085,-2.2871,1.0261,-0.3309,
14.593432,-0.5590,-0.9904,-0.1469,-3.4667,-1.9805,2.2085,-2.2200,1.3074,0.1911,
14.596035,-0.5590,-0.9904,-0.1469,-6.2611,-2.5249,4.0301,-2.2200,1.3074,0.1911,
14.633171,-0.5590,-0.9904,-0.1469,-6.2611,-2.5249,4.0301,-2.3053,0.1079,0.2933,
14.635386,-0.5590,-0.9904,-0.1469,0.4469,0.4460,2.6497,-2.3053,0.1079,0.2933,
14.637056,-0.3199,-0.9535,-0.2486,0.4469,0.4460,2.6497,-2.3053,0.1079,0.2933,
14.638673,0.0622,-0.9149,-0.0240,0.4469,0.4460,2.6497,-2.3053,0.1079,0.2933,
14.640025,0.2924,-0.9130,0.0705,0.4469,0.4460,2.6497,-2.3053,0.1079,0.2933,
14.641141,0.3188,-0.9188,0.0319,0.4469,0.4460,2.6497,-2.3053,0.1079,0.2933,
14.672702,0.3188,-0.9188,0.0319,0.4469,0.4460,2.6497,-1.5947,-0.3939,-0.4023,
14.675044,0.3188,-0.9188,0.0319,0.3490,0.2189,3.1868,-1.5947,-0.3939,-0.4023,
14.712641,0.3188,-0.9188,0.0319,0.9890,1.0009,3.9749,-1.5947,-0.3939,-0.4023,
14.715048,0.3188,-0.9188,0.0319,0.9890,1.0009,3.9749,-1.0525,-0.8338,-0.7251,
14.716425,0.0696,-0.8448,-0.0536,0.9890,1.0009,3.9749,-1.0525,-0.8338,-0.7251,
14.717420,-0.1127,-0.7232,-0.0345,0.9890,1.0009,3.9749,-1.0525,-0.8338,-0.7251,
14.718529,-0.2048,-0.6887,-0.0431,0.9890,1.0009,3.9749,-1.0525,-0.8338,-0.7251,
14.719862,-0.2300,-0.6672,-0.0199,0.9890,1.0009,3.9749,-1.0525,-0.8338,-0.7251,
14.751359,-0.2300,-0.6672,-0.0199,0.9890,1.0009,3.9749,-0.2940,-0.9968,-0.4641,
14.753694,-0.2300,-0.6672,-0.0199,0.9726,0.9374,4.0099,-0.2940,-0.9968,-0.4641,
14.791910,-0.1789,-0.6491,0.0449,0.9726,0.9374,4.0099,-0.2940,-0.9968,-0.4641,
14.794096,-0.1078,-0.5883,0.0370,0.9726,0.9374,4.0099,-0.2940,-0.9968,-0.4641,
14.795413,-0.0743,-0.5011,0.0077,0.9726,0.9374,4.0099,-0.2940,-0.9968,-0.4641,
14.796913,-0.0743,-0.5011,0.0077,0.9726,0.9374,4.0099,0.6849,-0.5899,-0.1211,
14.798008,-0.0743,-0.5011,0.0077,-1.8484,2.5784,3.8199,0.6849,-0.5899,-0.1211,
14.831376,-0.0743,-0.5011,0.0077,-0.5450,3.9995,3.1353,0.6849,-0.5899,-0.1211,
14.833674,-0.0743,-0.5011,0.0077,-0.5450,3.9995,3.1353,1.3646,-0.2618,0.0164,
14.871180,-0.0743,-0.5011,0.0077,-0.5450,3.9995,3.1353,1.3156,-0.3768,-0.0220,
14.873685,-0.0743,-0.5011,0.0077,-0.4989,4.0910,2.6007,1.3156,-0.3768,-0.0220,
14.875061,-0.0489,-0.5199,-0.1029,-0.4989,4.0910,2.6007,1.3156,-0.3768,-0.0220,
14.876605,0.0078,-0.6626,-0.2737,-0.4989,4.0910,2.6007,1.3156,-0.3768,-0.0220,
14.877729,0.0486,-0.9032,-0.4765,-0.4989,4.0910,2.6007,1.3156,-0.3768,-0.0220,
14.879928,0.1069,-1.1661,-0.8535,-0.4989,4.0910,2.6007,1.3156,-0.3768,-0.0220,
14.881276,0.1258,-1.3737,-1.2321,-0.4989,4.0910,2.6007,1.3156,-0.3768,-0.0220,
14.910595,0.1258,-1.3737,-1.2321,-0.4989,4.0910,2.6007,0.0383,-0.5153,-0.2542,
14.913121,0.1258,-1.3737,-1.2321,0.7383,0.4234,-2.4259,0.0383,-0.5153,-0.2542,
14.950554,0.1258,-1.3737,-1.2321,0.7383,0.4234,-2.4259,-0.9034,-0.4706,-0.5205,
14.953408,0.1258,-1.3737,-1.2321,1.0975,-3.3160,-7.7534,-0.9034,-0.4706,-0.5205,
14.954779,0.1370,-1.3437,-1.3086,1.0975,-3.3160,-7.7534,-0.9034,-0.4706,-0.5205,
14.956131,0.0581,-1.1446,-0.8351,1.0975,-3.3160,-7.7534,-0.9034,-0.4706,-0.5205,
14.957420,-0.0668,-0.9902,-0.4960,1.0975,-3.3160,-7.7534,-0.9034,-0.4706,-0.5205,
14.958518,-0.1295,-0.9181,-0.3951,1.0975,-3.3160,-7.7534,-0.9034,-0.4706,-0.5205,
14.989939,-0.1295,-0.9181,-0.3951,1.0975,-3.3160,-7.7534,-0.7329,-0.8189,-0.5738,
14.992134,-0.1295,-0.9181,-0.3951,0.9817,-3.3582,-7.3599,-0.7329,-0.8189,-0.5738,
15.029845,-0.1295,-0.9181,-0.3951,0.9817,-3.3582,-7.3599,-0.0160,-0.6059,-0.3405,
15.032369,-0.1295,-0.9181,-0.3951,-1.1843,0.3945,-0.4450,-0.0160,-0.6059,-0.3405,
15.033732,-0.1410,-0.8018,-0.3727,-1.1843,0.3945,-0.4450,-0.0160,-0.6059,-0.3405,
15.035108,-0.0917,-0.8385,-0.3954,-1.1843,0.3945,-0.4450,-0.0160,-0.6059,-0.3405,
15.036551,0.1214,-1.2809,-0.4652,-1.1843,0.3945,-0.4450,-0.0160,-0.6059,-0.3405,
15.037910,-0.1017,-1.7612,-0.0463,-1.1843,0.3945,-0.4450,-0.0160,-0.6059,-0.3405,
15.068650,-0.1017,-1.7612,-0.0463,-1.1843,0.3945,-0.4450,0.1310,0.9270,-0.3277,
15.071116,-0.1017,-1.7612,-0.0463,-0.5624,-3.3556,0.6535,0.1310,0.9270,-0.3277,
15.109507,-0.1017,-1.7612,-0.0463,-6.1903,1.3404,2.5446,0.1310,0.9270,-0.3277,
15.111916,-0.1017,-1.7612,-0.0463,-6.1903,1.3404,2.5446,0.2599,1.2104,0.3743,
15.113306,-0.6946,-1.2880,-0.2148,-6.1903,1.3404,2.5446,0.2599,1.2104,0.3743,
15.114403,-0.6252,-0.5358,-0.0929,-6.1903,1.3404,2.5446,0.2599,1.2104,0.3743,
15.115855,-0.4972,-0.6252,0.0278,-6.1903,1.3404,2.5446,0.2599,1.2104,0.3743,
15.116926,-0.1491,-0.9306,0.2239,-6.1903,1.3404,2.5446,0.2599,1.2104,0.3743,
15.148370,-0.1491,-0.9306,0.2239,-6.1903,1.3404,2.5446,1.0407,1.5854,0.9953,
15.150756,-0.1491,-0.9306,0.2239,-5.9244,1.4573,2.1088,1.0407,1.5854,0.9953,
15.188411,-0.1491,-0.9306,0.2239,-5.9244,1.4573,2.1088,1.0833,1.0730,0.9314,
15.190734,-0.1491,-0.9306,0.2239,0.5708,-0.4056,4.2523,1.0833,1.0730,0.9314,
15.192031,0.1050,-1.0984,0.2120,0.5708,-0.4056,4.2523,1.0833,1.0730,0.9314,
15.193246,0.1477,-1.0280,0.0859,0.5708,-0.4056,4.2523,1.0833,1.0730,0.9314,
15.194242,0.1932,-0.9271,-0.0663,0.5708,-0.4056,4.2523,1.0833,1.0730,0.9314,
15.195238,0.2342,-0.9753,-0.1589,0.5708,-0.4056,4.2523,1.0833,1.0730,0.9314,
15.227966,0.2342,-0.9753,-0.1589,0.5708,-0.4056,4.2523,0.9917,0.4967,0.4606,
15.230555,0.2342,-0.9753,-0.1589,0.6875,-0.3129,3.8153,0.9917,0.4967,0.4606,
15.267821,0.2342,-0.9753,-0.1589,0.6875,-0.3129,3.8153,1.1739,0.2623,0.0568,
