
time,gFx,gFy,gFz,ax,ay,az,wx,wy,wz,
0.063392,0.0000,0.0000,0.0000,0.0000,0.0000,0.0000,-0.2962,0.0461,0.5351,
0.090289,-0.0920,0.4424,1.1064,0.0000,0.0000,0.0000,-0.2962,0.0461,0.5351,
0.091577,-0.0786,0.4330,1.1015,0.0000,0.0000,0.0000,-0.2962,0.0461,0.5351,
0.092442,-0.0828,0.3964,1.1152,0.0000,0.0000,0.0000,-0.2962,0.0461,0.5351,
0.093342,-0.0506,0.3054,1.1797,0.0000,0.0000,0.0000,-0.2962,0.0461,0.5351,
0.094032,-0.0338,0.2229,1.1389,0.0000,0.0000,0.0000,-0.2962,0.0461,0.5351,
0.094968,0.0295,0.2084,1.1225,0.0000,0.0000,0.0000,-0.2962,0.0461,0.5351,
0.104655,0.0295,0.2084,1.1225,0.0000,0.0000,0.0000,-0.3079,0.4764,0.5937,
0.143468,0.0295,0.2084,1.1225,0.0000,0.0000,0.0000,0.0255,0.3774,0.3998,
0.145041,0.0295,0.2084,1.1225,0.0000,0.0000,-0.0000,0.0255,0.3774,0.3998,
0.171195,0.1266,0.2154,1.1511,0.0000,0.0000,-0.0000,0.0255,0.3774,0.3998,
0.172439,0.1492,0.1758,1.1579,0.0000,0.0000,-0.0000,0.0255,0.3774,0.3998,
0.173295,0.1448,0.1030,1.0185,0.0000,0.0000,-0.0000,0.0255,0.3774,0.3998,
0.173954,0.0999,0.0878,0.9479,0.0000,0.0000,-0.0000,0.0255,0.3774,0.3998,
0.188336,0.0999,0.0878,0.9479,0.0000,0.0000,-0.0000,0.6349,-0.4216,0.0313,
0.189459,0.0999,0.0878,0.9479,0.5431,-0.5603,-0.2877,0.6349,-0.4216,0.0313,
0.222106,0.0999,0.0878,0.9479,0.5431,-0.5603,-0.2877,0.8277,0.1409,-0.2063,
0.223087,0.0999,0.0878,0.9479,-0.0244,-0.1060,-1.3512,0.8277,0.1409,-0.2063,
0.262343,0.0889,0.1913,0.9032,-0.0244,-0.1060,-1.3512,0.8277,0.1409,-0.2063,
0.263955,0.0775,0.2736,0.8678,-0.0244,-0.1060,-1.3512,0.8277,0.1409,-0.2063,
0.265293,-0.0191,0.2676,0.8313,-0.0244,-0.1060,-1.3512,0.8277,0.1409,-0.2063,
0.266387,-0.0191,0.2676,0.8313,-0.0244,-0.1060,-1.3512,0.7339,0.5478,-0.3522,
0.267565,-0.0191,0.2676,0.8313,0.1519,-0.2716,-0.8631,0.7339,0.5478,-0.3522,
0.305835,-0.0191,0.2676,0.8313,0.1519,-0.2716,-0.8631,0.1108,-0.2724,-0.5834,
0.307526,-0.0191,0.2676,0.8313,-1.4165,0.5052,-2.4980,0.1108,-0.2724,-0.5834,
0.340457,-0.0473,0.3165,0.5999,-1.4165,0.5052,-2.4980,0.1108,-0.2724,-0.5834,
0.342009,-0.1876,0.3667,0.5851,-1.4165,0.5052,-2.4980,0.1108,-0.2724,-0.5834,
0.343151,-0.2534,0.2955,0.6643,-1.4165,0.5052,-2.4980,0.1108,-0.2724,-0.5834,
0.344236,-0.1238,0.3027,0.6666,-1.4165,0.5052,-2.4980,0.1108,-0.2724,-0.5834,
0.345445,-0.0506,0.3535,0.6887,-1.4165,0.5052,-2.4980,0.1108,-0.2724,-0.5834,
0.346388,-0.0712,0.3663,0.6639,-1.4165,0.5052,-2.4980,0.1108,-0.2724,-0.5834,
0.347986,-0.0712,0.3663,0.6639,-1.4165,0.5052,-2.4980,-0.0501,-0.7859,-0.1775,
0.349104,-0.0712,0.3663,0.6639,-1.1633,0.4675,-1.7198,-0.0501,-0.7859,-0.1775,
0.381612,-0.0712,0.3663,0.6639,-1.1633,0.4675,-1.7198,-0.3793,-0.4930,-0.2500,
0.383385,-0.0712,0.3663,0.6639,-1.0398,0.4730,-1.4054,-0.3793,-0.4930,-0.2500,
0.419082,-0.0501,0.3683,0.6093,-1.0398,0.4730,-1.4054,-0.3793,-0.4930,-0.2500,
0.424359,-0.0225,0.3434,0.6747,-1.0398,0.4730,-1.4054,-0.3793,-0.4930,-0.2500,
0.425940,-0.0521,0.2724,0.7061,-1.0398,0.4730,-1.4054,-0.3793,-0.4930,-0.2500,
0.427275,-0.0012,0.2531,0.8336,-1.0398,0.4730,-1.4054,-0.3793,-0.4930,-0.2500,
0.428529,-0.0012,0.2531,0.8336,-1.0398,0.4730,-1.4054,-0.3121,-0.8317,-0.1733,
0.429694,-0.0012,0.2531,0.8336,-0.5482,0.6202,-1.4390,-0.3121,-0.8317,-0.1733,
0.461309,-0.0012,0.2531,0.8336,-0.5482,0.6202,-1.4390,0.2844,-1.5390,0.1953,
0.463388,-0.0012,0.2531,0.8336,-0.8681,0.4469,-1.1549,0.2844,-1.5390,0.1953,
0.495938,0.0994,0.2748,0.7878,-0.8681,0.4469,-1.1549,0.2844,-1.5390,0.1953,
0.497509,0.1785,0.3805,0.8242,-0.8681,0.4469,-1.1549,0.2844,-1.5390,0.1953,
0.499182,0.2120,0.4465,0.7580,-0.8681,0.4469,-1.1549,0.2844,-1.5390,0.1953,
0.500489,0.1364,0.4098,0.7867,-0.8681,0.4469,-1.1549,0.2844,-1.5390,0.1953,
0.501618,0.1364,0.4098,0.7867,-0.8681,0.4469,-1.1549,0.0234,-1.0842,0.0504,
0.502445,0.1364,0.4098,0.7867,-0.2211,-0.1791,0.3822,0.0234,-1.0842,0.0504,
0.539896,0.1364,0.4098,0.7867,-0.2211,-0.1791,0.3822,-0.1907,-0.8679,-0.0795,
0.541947,0.1364,0.4098,0.7867,-0.4029,-0.1073,0.3338,-0.1907,-0.8679,-0.0795,
0.568725,0.1658,0.4202,0.9150,-0.4029,-0.1073,0.3338,-0.1907,-0.8679,-0.0795,
0.570427,0.2326,0.4321,0.9894,-0.4029,-0.1073,0.3338,-0.1907,-0.8679,-0.0795,
0.571656,0.3996,0.4289,0.8569,-0.4029,-0.1073,0.3338,-0.1907,-0.8679,-0.0795,
0.579153,0.3996,0.4289,0.8569,-0.4029,-0.1073,0.3338,0.5752,-1.9673,-0.4705,
0.580850,0.3996,0.4289,0.8569,0.2316,0.9628,0.3455,0.5752,-1.9673,-0.4705,
0.620910,0.3996,0.4289,0.8569,0.2316,0.9628,0.3455,0.5198,-1.8959,-1.4036,
0.622724,0.3996,0.4289,0.8569,1.1688,0.8111,1.5091,0.5198,-1.8959,-1.4036,
0.646974,0.4949,0.4896,0.8121,1.1688,0.8111,1.5091,0.5198,-1.8959,-1.4036,
0.648680,0.5064,0.4515,0.7843,1.1688,0.8111,1.5091,0.5198,-1.8959,-1.4036,
0.650269,0.4732,0.4081,0.8979,1.1688,0.8111,1.5091,0.5198,-1.8959,-1.4036,
0.651392,0.1216,0.5400,1.0057,1.1688,0.8111,1.5091,0.5198,-1.8959,-1.4036,
0.661033,0.1216,0.5400,1.0057,1.1688,0.8111,1.5091,-0.0117,-0.3800,-1.5016,
0.662556,0.1216,0.5400,1.0057,2.3698,0.6805,0.8683,-0.0117,-0.3800,-1.5016,
0.698420,0.1216,0.5400,1.0057,2.3698,0.6805,0.8683,0.2386,-0.2586,0.1058,
0.700566,0.1216,0.5400,1.0057,-2.3212,2.4178,1.4004,0.2386,-0.2586,0.1058,
0.726569,-0.3141,0.7250,0.9796,-2.3212,2.4178,1.4004,0.2386,-0.2586,0.1058,
0.728214,0.0242,0.6529,0.8479,-2.3212,2.4178,1.4004,0.2386,-0.2586,0.1058,
0.729434,0.4590,0.5900,0.8527,-2.3212,2.4178,1.4004,0.2386,-0.2586,0.1058,
0.730982,0.4744,0.5673,0.9724,-2.3212,2.4178,1.4004,0.2386,-0.2586,0.1058,
0.738443,0.4744,0.5673,0.9724,-2.3212,2.4178,1.4004,-0.3015,0.1590,0.0760,
0.739996,0.4744,0.5673,0.9724,-2.0773,2.2864,1.2187,-0.3015,0.1590,0.0760,
0.776970,0.4744,0.5673,0.9724,-2.0773,2.2864,1.2187,-0.7372,0.2559,-0.3629,
0.778055,0.4744,0.5673,0.9724,1.5478,1.4640,1.2059,-0.7372,0.2559,-0.3629,
0.802282,0.2298,0.5507,0.8952,1.5478,1.4640,1.2059,-0.7372,0.2559,-0.3629,
0.803491,0.1201,0.5400,1.1209,1.5478,1.4640,1.2059,-0.7372,0.2559,-0.3629,
0.804381,0.1396,0.5014,1.3405,1.5478,1.4640,1.2059,-0.7372,0.2559,-0.3629,
0.805294,0.2280,0.4732,1.1802,1.5478,1.4640,1.2059,-0.7372,0.2559,-0.3629,
0.816646,0.2280,0.4732,1.1802,1.5478,1.4640,1.2059,-0.3793,0.2240,0.1282,
0.818098,0.2280,0.4732,1.1802,0.2729,0.7228,3.5684,-0.3793,0.2240,0.1282,
0.860404,0.2280,0.4732,1.1802,0.2729,0.7228,3.5684,-0.0394,0.3262,0.0174,
0.861872,0.2280,0.4732,1.1802,0.8273,-0.9714,3.4043,-0.0394,0.3262,0.0174,
0.880775,0.3751,0.3842,1.1524,0.8273,-0.9714,3.4043,-0.0394,0.3262,0.0174,
0.882642,0.2799,0.2825,1.3430,0.8273,-0.9714,3.4043,-0.0394,0.3262,0.0174,
0.883908,0.2302,0.2816,1.2252,0.8273,-0.9714,3.4043,-0.0394,0.3262,0.0174,
0.885123,0.1554,0.2778,1.0225,0.8273,-0.9714,3.4043,-0.0394,0.3262,0.0174,
0.895852,0.1554,0.2778,1.0225,0.8273,-0.9714,3.4043,0.4868,0.4168,-0.2872,
0.897686,0.1554,0.2778,1.0225,0.9434,-1.0739,3.2083,0.4868,0.4168,-0.2872,
0.943767,0.1554,0.2778,1.0225,0.9434,-1.0739,3.2083,0.8810,-0.2298,-0.5355,
0.945132,0.1554,0.2778,1.0225,-0.5020,-1.9486,0.0991,0.8810,-0.2298,-0.5355,
0.961494,0.1374,0.1903,0.9613,-0.5020,-1.9486,0.0991,0.8810,-0.2298,-0.5355,
0.962978,0.0429,0.2535,0.8506,-0.5020,-1.9486,0.0991,0.8810,-0.2298,-0.5355,
0.964157,0.1273,0.2619,0.7672,-0.5020,-1.9486,0.0991,0.8810,-0.2298,-0.5355,
0.965441,0.0690,0.2933,0.8171,-0.5020,-1.9486,0.0991,0.8810,-0.2298,-0.5355,
0.978758,0.0690,0.2933,0.8171,-0.5020,-1.9486,0.0991,0.6178,-0.4706,-0.3245,
0.980500,0.0690,0.2933,0.8171,-0.5673,-2.0356,0.2189,0.6178,-0.4706,-0.3245,
1.015170,0.0690,0.2933,0.8171,-0.5673,-2.0356,0.2189,0.1768,0.0748,-0.0710,
1.016753,0.0690,0.2933,0.8171,-0.6462,-1.1947,-0.9876,0.1768,0.0748,-0.0710,
1.076328,0.0598,0.3340,0.7328,-0.6462,-1.1947,-0.9876,0.1768,0.0748,-0.0710,
1.078055,0.1240,0.3711,0.7769,-0.6462,-1.1947,-0.9876,0.1768,0.0748,-0.0710,
1.079488,0.0813,0.3724,0.7731,-0.6462,-1.1947,-0.9876,0.1768,0.0748,-0.0710,
1.080779,0.0813,0.3724,0.7731,-0.6462,-1.1947,-0.9876,0.0735,0.1356,0.0632,
1.081985,0.0813,0.3724,0.7731,-0.5730,-1.1398,-0.9217,0.0735,0.1356,0.0632,
1.094503,0.0813,0.3724,0.7731,-0.5730,-1.1398,-0.9217,0.3004,-0.6506,-0.0582,
1.096054,0.0813,0.3724,0.7731,-0.5980,-0.9476,-1.0048,0.3004,-0.6506,-0.0582,
1.133192,0.0946,0.3147,0.7245,-0.5980,-0.9476,-1.0048,0.3004,-0.6506,-0.0582,
1.134939,0.1583,0.2911,0.6301,-0.5980,-0.9476,-1.0048,0.3004,-0.6506,-0.0582,
1.135954,0.1650,0.3602,0.5617,-0.5980,-0.9476,-1.0048,0.3004,-0.6506,-0.0582,
1.137302,0.1276,0.3925,0.6080,-0.5980,-0.9476,-1.0048,0.3004,-0.6506,-0.0582,
1.138626,0.1054,0.4297,0.6192,-0.5980,-0.9476,-1.0048,0.3004,-0.6506,-0.0582,
1.139916,0.0964,0.5305,0.5720,-0.5980,-0.9476,-1.0048,0.3004,-0.6506,-0.0582,
1.141230,0.0964,0.5305,0.5720,-0.5980,-0.9476,-1.0048,0.3643,-0.9382,-0.0508,
1.142350,0.0964,0.5305,0.5720,-0.4733,-0.7311,-2.2319,0.3643,-0.9382,-0.0508,
1.177981,0.0964,0.5305,0.5720,-0.7337,-0.7145,-2.0219,0.3643,-0.9382,-0.0508,
1.179753,0.0964,0.5305,0.5720,-0.7337,-0.7145,-2.0219,0.1150,-0.8828,0.1357,
1.213258,0.1677,0.6018,0.4833,-0.7337,-0.7145,-2.0219,0.1150,-0.8828,0.1357,
1.215010,0.2720,0.5161,0.4759,-0.7337,-0.7145,-2.0219,0.1150,-0.8828,0.1357,
1.216128,0.3265,0.3751,0.5329,-0.7337,-0.7145,-2.0219,0.1150,-0.8828,0.1357,
1.217189,0.2959,0.4408,0.5891,-0.7337,-0.7145,-2.0219,0.1150,-0.8828,0.1357,
1.218337,0.2959,0.4408,0.5891,-0.7337,-0.7145,-2.0219,-0.3590,-1.3121,-0.1956,
1.219458,0.2959,0.4408,0.5891,-0.9349,1.0744,-2.4744,-0.3590,-1.3121,-0.1956,
1.260789,0.2959,0.4408,0.5891,-0.9349,1.0744,-2.4744,-0.7574,-1.2780,-0.3661,
1.261939,0.2959,0.4408,0.5891,-1.1938,1.1985,-2.3379,-0.7574,-1.2780,-0.3661,
1.295669,0.1823,0.5056,0.7609,-1.1938,1.1985,-2.3379,-0.7574,-1.2780,-0.3661,
1.297004,0.1805,0.5436,0.8615,-1.1938,1.1985,-2.3379,-0.7574,-1.2780,-0.3661,
1.297892,0.2551,0.5299,0.8297,-1.1938,1.1985,-2.3379,-0.7574,-1.2780,-0.3661,
1.298757,0.1867,0.6186,0.8276,-1.1938,1.1985,-2.3379,-0.7574,-1.2780,-0.3661,
1.299623,0.1867,0.6186,0.8276,-1.1938,1.1985,-2.3379,-0.6562,-0.7571,0.1868,
1.300662,0.1867,0.6186,0.8276,-0.8816,1.3084,0.6516,-0.6562,-0.7571,0.1868,
1.333019,0.1867,0.6186,0.8276,-0.8816,1.3084,0.6516,-0.4389,-1.2184,0.4797,
1.334475,0.1867,0.6186,0.8276,-1.2560,1.4277,0.7000,-0.4389,-1.2184,0.4797,
1.365271,0.3853,0.6142,0.7713,-1.2560,1.4277,0.7000,-0.4389,-1.2184,0.4797,
1.366658,0.6173,0.5191,0.7772,-1.2560,1.4277,0.7000,-0.4389,-1.2184,0.4797,
1.367603,0.5421,0.3197,0.7631,-1.2560,1.4277,0.7000,-0.4389,-1.2184,0.4797,
1.368466,0.5347,0.3474,1.0101,-1.2560,1.4277,0.7000,-0.4389,-1.2184,0.4797,
1.377578,0.5347,0.3474,1.0101,-1.2560,1.4277,0.7000,-0.7191,-2.0781,0.2955,
1.378752,0.5347,0.3474,1.0101,0.4668,1.5971,0.2681,-0.7191,-2.0781,0.2955,
1.412842,0.5347,0.3474,1.0101,-0.2181,1.8532,0.4923,-0.7191,-2.0781,0.2955,
1.414737,0.5347,0.3474,1.0101,-0.2181,1.8532,0.4923,-0.5572,-1.9087,1.0710,
1.446623,0.5379,0.2282,0.8202,-0.2181,1.8532,0.4923,-0.5572,-1.9087,1.0710,
1.447795,0.5302,0.2579,0.6680,-0.2181,1.8532,0.4923,-0.5572,-1.9087,1.0710,
1.448648,0.5215,0.2513,0.4338,-0.2181,1.8532,0.4923,-0.5572,-1.9087,1.0710,
1.450154,0.5781,0.0746,0.3566,-0.2181,1.8532,0.4923,-0.5572,-1.9087,1.0710,
1.451225,0.5781,0.0746,0.3566,-0.2181,1.8532,0.4923,-0.1481,-2.4541,1.7229,
1.452130,0.5781,0.0746,0.3566,-0.2843,-0.3112,1.7767,-0.1481,-2.4541,1.7229,
1.492764,0.5781,0.0746,0.3566,-0.2843,-0.3112,1.7767,0.4921,-4.0861,1.6377,
1.493838,0.5781,0.0746,0.3566,-1.4126,-0.0322,2.7074,0.4921,-4.0861,1.6377,
1.528329,0.7327,-0.0672,0.4825,-1.4126,-0.0322,2.7074,0.4921,-4.0861,1.6377,
1.529203,0.8277,-0.0629,0.5536,-1.4126,-0.0322,2.7074,0.4921,-4.0861,1.6377,
1.529674,0.7480,-0.0966,0.4108,-1.4126,-0.0322,2.7074,0.4921,-4.0861,1.6377,
1.530743,0.3262,-0.2377,0.4664,-1.4126,-0.0322,2.7074,0.4921,-4.0861,1.6377,
1.531187,0.3262,-0.2377,0.4664,-1.4126,-0.0322,2.7074,1.0823,-3.6024,2.0542,
1.531662,0.3262,-0.2377,0.4664,-0.3808,-3.2210,-0.1557,1.0823,-3.6024,2.0542,
1.577742,0.3262,-0.2377,0.4664,-0.3808,-3.2210,-0.1557,2.6322,-3.6845,3.2494,
1.578724,0.3262,-0.2377,0.4664,-1.1655,-2.4842,1.1760,2.6322,-3.6845,3.2494,
1.612076,0.4348,-0.3863,0.1933,-1.1655,-2.4842,1.1760,2.6322,-3.6845,3.2494,
1.613409,0.7498,-0.4661,-0.0049,-1.1655,-2.4842,1.1760,2.6322,-3.6845,3.2494,
1.614218,0.8875,-0.3937,-0.0900,-1.1655,-2.4842,1.1760,2.6322,-3.6845,3.2494,
1.615178,0.8875,-0.3937,-0.0900,-1.1655,-2.4842,1.1760,3.3992,-3.5886,3.9333,
1.616134,0.8875,-0.3937,-0.0900,-3.2619,-4.3143,-0.3565,3.3992,-3.5886,3.9333,
1.661927,0.8875,-0.3937,-0.0900,-3.2619,-4.3143,-0.3565,1.6330,-2.6405,4.0878,
1.663283,0.8875,-0.3937,-0.0900,-0.0303,-2.9781,-2.4342,1.6330,-2.6405,4.0878,
1.694890,0.9397,-0.3621,-0.1645,-0.0303,-2.9781,-2.4342,1.6330,-2.6405,4.0878,
1.695932,0.8763,-0.4394,-0.1805,-0.0303,-2.9781,-2.4342,1.6330,-2.6405,4.0878,
1.696931,0.9676,-0.5071,-0.0974,-0.0303,-2.9781,-2.4342,1.6330,-2.6405,4.0878,
1.697836,1.3577,-0.4487,0.1566,-0.0303,-2.9781,-2.4342,1.6330,-2.6405,4.0878,
1.698625,1.5369,-0.4431,0.3655,-0.0303,-2.9781,-2.4342,1.6330,-2.6405,4.0878,
1.699509,1.5369,-0.4431,0.3655,0.2025,-1.5236,-1.7048,1.6330,-2.6405,4.0878,
1.700426,1.5369,-0.4431,0.3655,0.2025,-1.5236,-1.7048,0.2812,-1.9417,4.0303,
1.729139,1.5369,-0.4431,0.3655,0.2025,-1.5236,-1.7048,0.2631,-1.1268,3.0907,
1.731025,1.5369,-0.4431,0.3655,0.5567,-0.4646,-1.3067,0.2631,-1.1268,3.0907,
1.765081,1.3909,-0.4638,0.3138,0.5567,-0.4646,-1.3067,0.2631,-1.1268,3.0907,
1.766313,1.2333,-0.5159,0.1291,0.5567,-0.4646,-1.3067,0.2631,-1.1268,3.0907,
1.767211,1.1573,-0.5323,0.0022,0.5567,-0.4646,-1.3067,0.2631,-1.1268,3.0907,
1.767982,1.2238,-0.4227,-0.0593,0.5567,-0.4646,-1.3067,0.2631,-1.1268,3.0907,
1.768733,1.2238,-0.4227,-0.0593,0.5567,-0.4646,-1.3067,0.3941,-0.8328,2.6230,
1.778836,1.2238,-0.4227,-0.0593,3.9893,-0.4439,1.1778,0.3941,-0.8328,2.6230,
1.813702,1.2238,-0.4227,-0.0593,3.9893,-0.4439,1.1778,0.2322,-0.6708,2.3344,
1.815066,1.2238,-0.4227,-0.0593,4.2952,0.2731,1.2951,0.2322,-0.6708,2.3344,
1.845840,1.1605,-0.3886,0.0102,4.2952,0.2731,1.2951,0.2322,-0.6708,2.3344,
1.847051,1.1203,-0.4205,-0.0535,4.2952,0.2731,1.2951,0.2322,-0.6708,2.3344,
1.847968,1.1572,-0.5206,-0.0861,4.2952,0.2731,1.2951,0.2322,-0.6708,2.3344,
1.848853,1.2308,-0.5733,0.0035,4.2952,0.2731,1.2951,0.2322,-0.6708,2.3344,
1.849736,1.2308,-0.5733,0.0035,4.2952,0.2731,1.2951,-0.3132,0.3124,2.0723,
1.850798,1.2308,-0.5733,0.0035,3.8808,1.6318,0.1212,-0.3132,0.3124,2.0723,
1.886683,1.2308,-0.5733,0.0035,3.8808,1.6318,0.1212,-0.6584,1.6280,1.9913,
1.888130,1.2308,-0.5733,0.0035,4.1894,2.1179,-0.1775,-0.6584,1.6280,1.9913,
1.918081,1.2877,-0.5374,0.0989,4.1894,2.1179,-0.1775,-0.6584,1.6280,1.9913,
1.919616,1.3419,-0.5443,0.0468,4.1894,2.1179,-0.1775,-0.6584,1.6280,1.9913,
1.920559,1.4274,-0.5348,-0.0452,4.1894,2.1179,-0.1775,-0.6584,1.6280,1.9913,
1.921582,1.4362,-0.5542,-0.0854,4.1894,2.1179,-0.1775,-0.6584,1.6280,1.9913,
1.929033,1.4362,-0.5542,-0.0854,4.1894,2.1179,-0.1775,-0.6189,2.5196,1.4353,
1.930478,1.4362,-0.5542,-0.0854,5.3474,1.1548,-0.0304,-0.6189,2.5196,1.4353,
1.965785,1.4362,-0.5542,-0.0854,5.3474,1.1548,-0.0304,0.0255,1.8826,-0.0145,
1.967007,1.4362,-0.5542,-0.0854,5.2135,1.1123,-0.5320,0.0255,1.8826,-0.0145,
1.999305,1.4563,-0.6047,0.1673,5.2135,1.1123,-0.5320,0.0255,1.8826,-0.0145,
2.001039,1.5513,-0.5589,-0.4511,5.2135,1.1123,-0.5320,0.0255,1.8826,-0.0145,
2.002474,1.4191,-0.4462,-0.6140,5.2135,1.1123,-0.5320,0.0255,1.8826,-0.0145,
2.003865,1.2464,-0.7081,-0.1885,5.2135,1.1123,-0.5320,0.0255,1.8826,-0.0145,
2.006505,1.2464,-0.7081,-0.1885,6.7848,0.8165,-4.8064,0.0255,1.8826,-0.0145,
2.008695,1.2464,-0.7081,-0.1885,6.7848,0.8165,-4.8064,0.5273,1.2051,-1.0734,
2.046596,1.2464,-0.7081,-0.1885,6.7848,0.8165,-4.8064,0.6072,0.6725,-1.3365,
2.047811,1.2464,-0.7081,-0.1885,6.3071,0.3685,-4.9965,0.6072,0.6725,-1.3365,
2.079326,1.0822,-0.7869,-0.0887,6.3071,0.3685,-4.9965,0.6072,0.6725,-1.3365,
2.080525,1.1192,-0.9460,0.2542,6.3071,0.3685,-4.9965,0.6072,0.6725,-1.3365,
2.081439,0.9465,-1.0842,0.3341,6.3071,0.3685,-4.9965,0.6072,0.6725,-1.3365,
2.084715,0.9465,-1.0842,0.3341,2.5165,-3.3263,-0.9091,0.6072,0.6725,-1.3365,
2.086019,0.9465,-1.0842,0.3341,2.5165,-3.3263,-0.9091,1.4871,0.2336,-1.2833,
2.129273,0.9465,-1.0842,0.3341,2.5165,-3.3263,-0.9091,1.6181,-0.6378,-0.5994,
2.130698,0.9465,-1.0842,0.3341,-1.8817,-5.0379,0.1418,1.6181,-0.6378,-0.5994,
2.150359,0.5810,-1.0758,0.1316,-1.8817,-5.0379,0.1418,1.6181,-0.6378,-0.5994,
2.151838,0.6962,-1.0494,0.2774,-1.8817,-5.0379,0.1418,1.6181,-0.6378,-0.5994,
2.152666,0.4799,-0.8529,-0.1335,-1.8817,-5.0379,0.1418,1.6181,-0.6378,-0.5994,
2.153651,0.6583,-0.8272,0.0776,-1.8817,-5.0379,0.1418,1.6181,-0.6378,-0.5994,
2.165077,0.6583,-0.8272,0.0776,-1.8817,-5.0379,0.1418,1.1995,-1.1492,0.0121,
2.166545,0.6583,-0.8272,0.0776,-1.9049,-4.9730,0.2766,1.1995,-1.1492,0.0121,
2.212494,0.6583,-0.8272,0.0776,-1.9049,-4.9730,0.2766,2.1188,-1.2003,-0.4406,
2.213644,0.6583,-0.8272,0.0776,-1.7643,-3.3147,0.3840,2.1188,-1.2003,-0.4406,
2.230235,0.8672,-0.8991,0.5489,-1.7643,-3.3147,0.3840,2.1188,-1.2003,-0.4406,
2.231120,0.6957,-0.7387,0.3650,-1.7643,-3.3147,0.3840,2.1188,-1.2003,-0.4406,
2.231752,0.7608,-0.7357,0.2905,-1.7643,-3.3147,0.3840,2.1188,-1.2003,-0.4406,
2.232340,0.5802,-0.8219,0.4051,-1.7643,-3.3147,0.3840,2.1188,-1.2003,-0.4406,
2.246478,0.5802,-0.8219,0.4051,-1.7643,-3.3147,0.3840,1.7129,-0.9840,-0.4066,
2.247579,0.5802,-0.8219,0.4051,-2.1737,-2.3292,1.6563,1.7129,-0.9840,-0.4066,
2.282433,0.5802,-0.8219,0.4051,-2.1737,-2.3292,1.6563,0.7254,-0.7294,0.1804,
2.283628,0.5802,-0.8219,0.4051,-2.6098,-0.2502,-1.1527,0.7254,-0.7294,0.1804,
2.298274,0.5671,-0.5689,0.1825,-2.6098,-0.2502,-1.1527,0.7254,-0.7294,0.1804,
2.299323,0.5134,-0.5018,-0.1814,-2.6098,-0.2502,-1.1527,0.7254,-0.7294,0.1804,
2.300069,0.7409,-0.5363,0.2467,-2.6098,-0.2502,-1.1527,0.7254,-0.7294,0.1804,
2.331461,0.7409,-0.5363,0.2467,-2.6098,-0.2502,-1.1527,0.7041,-1.0085,0.2422,
2.332757,0.7409,-0.5363,0.2467,-2.5557,-0.2053,-0.9201,0.7041,-1.0085,0.2422,
2.363685,0.7409,-0.5363,0.2467,-2.5557,-0.2053,-0.9201,0.7968,-0.6442,0.4222,
2.364873,0.7409,-0.5363,0.2467,-2.0964,-0.0497,-0.0435,0.7968,-0.6442,0.4222,
2.380275,0.6660,-0.5648,0.1585,-2.0964,-0.0497,-0.0435,0.7968,-0.6442,0.4222,
2.381982,0.9628,-0.6622,0.3572,-2.0964,-0.0497,-0.0435,0.7968,-0.6442,0.4222,
2.382808,0.4486,-0.4453,-0.0141,-2.0964,-0.0497,-0.0435,0.7968,-0.6442,0.4222,
2.383830,0.5115,-0.3518,-0.0562,-2.0964,-0.0497,-0.0435,0.7968,-0.6442,0.4222,
2.384662,0.7359,-0.4327,0.1632,-2.0964,-0.0497,-0.0435,0.7968,-0.6442,0.4222,
2.402925,0.7359,-0.4327,0.1632,-2.0964,-0.0497,-0.0435,-0.1651,1.3361,1.2968,
2.404514,0.7359,-0.4327,0.1632,-1.7008,0.3766,-0.4334,-0.1651,1.3361,1.2968,
2.446957,0.7359,-0.4327,0.1632,-1.7008,0.3766,-0.4334,-0.0256,0.7438,0.9794,
2.448062,0.7359,-0.4327,0.1632,-1.0617,1.7086,-1.3899,-0.0256,0.7438,0.9794,
2.453825,0.6428,-0.4063,0.0366,-1.0617,1.7086,-1.3899,-0.0256,0.7438,0.9794,
2.454912,0.7724,-0.3357,0.1581,-1.0617,1.7086,-1.3899,-0.0256,0.7438,0.9794,
2.455785,1.0213,-0.4841,0.7078,-1.0617,1.7086,-1.3899,-0.0256,0.7438,0.9794,
2.456621,0.8967,-0.4227,0.1949,-1.0617,1.7086,-1.3899,-0.0256,0.7438,0.9794,
2.481596,0.8967,-0.4227,0.1949,-1.0052,1.6002,-1.6453,-0.0256,0.7438,0.9794,
2.483483,0.8967,-0.4227,0.1949,-1.0052,1.6002,-1.6453,1.0589,0.1931,0.0675,
2.546194,0.8967,-0.4227,0.1949,-1.0052,1.6002,-1.6453,0.3078,0.2133,0.1133,
2.547737,0.8967,-0.4227,0.1949,1.2359,1.5759,1.8640,0.3078,0.2133,0.1133,
2.550164,0.6222,-0.2416,0.1576,1.2359,1.5759,1.8640,0.3078,0.2133,0.1133,
2.551299,0.2622,-0.2086,-0.5199,1.2359,1.5759,1.8640,0.3078,0.2133,0.1133,
2.552536,0.5352,-0.3712,0.2292,1.2359,1.5759,1.8640,0.3078,0.2133,0.1133,
2.565287,0.5352,-0.3712,0.2292,1.2359,1.5759,1.8640,-0.1864,-0.0945,0.3892,
2.568592,0.5352,-0.3712,0.2292,1.2817,1.6691,1.8870,-0.1864,-0.0945,0.3892,
2.599509,0.5352,-0.3712,0.2292,1.2817,1.6691,1.8870,-0.2354,0.3934,0.3199,
2.600829,0.5352,-0.3712,0.2292,-3.0152,2.8967,-3.1641,-0.2354,0.3934,0.3199,
2.603413,0.6034,-0.3661,0.2228,-3.0152,2.8967,-3.1641,-0.2354,0.3934,0.3199,
2.604638,0.7465,-0.4015,0.2597,-3.0152,2.8967,-3.1641,-0.2354,0.3934,0.3199,
2.605641,0.7669,-0.4615,0.1827,-3.0152,2.8967,-3.1641,-0.2354,0.3934,0.3199,
2.606645,0.7666,-0.5128,0.1267,-3.0152,2.8967,-3.1641,-0.2354,0.3934,0.3199,
2.647293,0.7666,-0.5128,0.1267,-3.0152,2.8967,-3.1641,-0.2024,0.1643,0.5181,
2.649715,0.7666,-0.5128,0.1267,-0.1554,1.5694,-0.3500,-0.2024,0.1643,0.5181,
2.681730,0.7666,-0.5128,0.1267,-0.1554,1.5694,-0.3500,0.2418,-0.2234,0.6725,
2.683085,0.7666,-0.5128,0.1267,0.7039,0.2729,-0.4518,0.2418,-0.2234,0.6725,
2.684340,0.7893,-0.5292,0.2002,0.7039,0.2729,-0.4518,0.2418,-0.2234,0.6725,
2.685134,0.8272,-0.6258,0.1918,0.7039,0.2729,-0.4518,0.2418,-0.2234,0.6725,
2.685986,0.8212,-0.6826,0.1819,0.7039,0.2729,-0.4518,0.2418,-0.2234,0.6725,
2.687065,0.9090,-0.6411,0.2360,0.7039,0.2729,-0.4518,0.2418,-0.2234,0.6725,
2.719272,0.9090,-0.6411,0.2360,0.8126,0.4464,-0.3509,0.2418,-0.2234,0.6725,
2.720675,0.9090,-0.6411,0.2360,0.8126,0.4464,-0.3509,0.0714,-0.3896,0.6747,
2.764906,0.9083,-0.5458,0.1542,0.8126,0.4464,-0.3509,0.0714,-0.3896,0.6747,
2.766246,0.8671,-0.5430,0.0380,0.8126,0.4464,-0.3509,0.0714,-0.3896,0.6747,
2.767244,1.1576,-0.7061,0.1353,0.8126,0.4464,-0.3509,0.0714,-0.3896,0.6747,
2.768008,1.1732,-0.7302,0.2515,0.8126,0.4464,-0.3509,0.0714,-0.3896,0.6747,
2.769410,1.1732,-0.7302,0.2515,0.8126,0.4464,-0.3509,-0.7063,-0.0999,0.5682,
2.770747,1.1732,-0.7302,0.2515,1.5922,0.5420,-0.4485,-0.7063,-0.0999,0.5682,
2.798791,1.1732,-0.7302,0.2515,1.5922,0.5420,-0.4485,-0.7383,-0.1222,0.1911,
2.799989,1.1732,-0.7302,0.2515,1.5954,0.6352,-0.2217,-0.7383,-0.1222,0.1911,
2.835099,1.0007,-1.0061,0.3141,1.5954,0.6352,-0.2217,-0.7383,-0.1222,0.1911,
2.837324,0.9358,-1.3122,0.4018,1.5954,0.6352,-0.2217,-0.7383,-0.1222,0.1911,
2.838458,0.7263,-1.2102,0.2845,1.5954,0.6352,-0.2217,-0.7383,-0.1222,0.1911,
2.839345,0.1782,-1.2427,0.2414,1.5954,0.6352,-0.2217,-0.7383,-0.1222,0.1911,
2.840217,0.1782,-1.2427,0.2414,1.5954,0.6352,-0.2217,-0.1044,-0.7007,0.4861,
2.841137,0.1782,-1.2427,0.2414,0.6646,-5.3480,1.6228,-0.1044,-0.7007,0.4861,
2.882002,0.1782,-1.2427,0.2414,1.1771,-4.6858,1.8207,-0.1044,-0.7007,0.4861,
2.883926,0.1782,-1.2427,0.2414,1.1771,-4.6858,1.8207,0.2865,-1.2013,2.1884,
2.917951,0.1782,-1.2427,0.2414,-4.2000,-2.0307,-0.1179,0.2865,-1.2013,2.1884,
2.919416,0.1087,-1.0717,0.0885,-4.2000,-2.0307,-0.1179,0.2865,-1.2013,2.1884,
2.920866,0.3536,-0.9127,0.0334,-4.2000,-2.0307,-0.1179,0.2865,-1.2013,2.1884,
2.922140,-0.0917,-0.9144,0.1194,-4.2000,-2.0307,-0.1179,0.2865,-1.2013,2.1884,
2.923084,-0.0917,-0.9144,0.1194,-4.2000,-2.0307,-0.1179,-0.1502,-1.3281,2.6785,
2.964511,-0.0917,-0.9144,0.1194,-4.2000,-2.0307,-0.1179,-0.4261,-1.2397,-0.0667,
2.965530,-0.0917,-0.9144,0.1194,1.6054,3.1680,1.7337,-0.4261,-1.2397,-0.0667,
2.998072,1.1052,-0.3832,0.3005,1.6054,3.1680,1.7337,-0.4261,-1.2397,-0.0667,
2.999200,0.9299,-0.3188,0.2822,1.6054,3.1680,1.7337,-0.4261,-1.2397,-0.0667,
2.999891,0.5949,-0.6662,0.0946,1.6054,3.1680,1.7337,-0.4261,-1.2397,-0.0667,
3.000432,1.0014,-0.5316,0.0151,1.6054,3.1680,1.7337,-0.4261,-1.2397,-0.0667,
3.000992,0.8235,-0.6665,-0.2091,1.6054,3.1680,1.7337,-0.4261,-1.2397,-0.0667,
3.001567,0.8235,-0.6665,-0.2091,1.6054,3.1680,1.7337,-0.7542,-1.4069,-0.8359,
3.002934,0.8235,-0.6665,-0.2091,1.2958,2.9258,2.2454,-0.7542,-1.4069,-0.8359,
3.035717,0.8235,-0.6665,-0.2091,1.2958,2.9258,2.2454,-0.5380,-2.4882,-0.4918,
3.037724,0.8235,-0.6665,-0.2091,1.1474,2.7467,2.9440,-0.5380,-2.4882,-0.4918,
3.082244,0.6516,-0.9149,-0.1819,1.1474,2.7467,2.9440,-0.5380,-2.4882,-0.4918,
3.084029,0.6908,-0.7944,0.0052,1.1474,2.7467,2.9440,-0.5380,-2.4882,-0.4918,
3.085984,0.5228,-0.6766,-0.0824,1.1474,2.7467,2.9440,-0.5380,-2.4882,-0.4918,
3.087733,0.4716,-0.6463,-0.0698,1.1474,2.7467,2.9440,-0.5380,-2.4882,-0.4918,
3.089532,0.4716,-0.6463,-0.0698,1.1474,2.7467,2.9440,0.3100,-2.8919,-0.3842,
3.091312,0.4716,-0.6463,-0.0698,-0.1391,0.1866,0.4780,0.3100,-2.8919,-0.3842,
3.115522,0.4716,-0.6463,-0.0698,-0.1391,0.1866,0.4780,0.5369,-2.9090,-0.3522,
3.116743,0.4716,-0.6463,-0.0698,-0.0750,0.1300,1.0019,0.5369,-2.9090,-0.3522,
3.154526,0.4442,-0.8407,0.0389,-0.0750,0.1300,1.0019,0.5369,-2.9090,-0.3522,
3.155942,0.2946,-1.0925,0.1647,-0.0750,0.1300,1.0019,0.5369,-2.9090,-0.3522,
3.157007,0.1094,-1.1883,0.2186,-0.0750,0.1300,1.0019,0.5369,-2.9090,-0.3522,
3.161674,0.1094,-1.1883,0.2186,-0.0750,0.1300,1.0019,0.6604,-1.9481,0.0217,
3.163086,0.1094,-1.1883,0.2186,-2.6311,-1.8281,2.9359,0.6604,-1.9481,0.0217,
3.198622,0.1094,-1.1883,0.2186,-2.6311,-1.8281,2.9359,0.3760,-0.6517,0.5468,
3.199721,0.1094,-1.1883,0.2186,-3.7521,-1.2238,1.6759,0.3760,-0.6517,0.5468,
3.232477,0.1679,-0.9052,0.0265,-3.7521,-1.2238,1.6759,0.3760,-0.6517,0.5468,
3.233964,0.1895,-0.8490,-0.1413,-3.7521,-1.2238,1.6759,0.3760,-0.6517,0.5468,
3.234674,0.3740,-0.7217,-0.1172,-3.7521,-1.2238,1.6759,0.3760,-0.6517,0.5468,
3.235354,0.5702,-0.5799,-0.2052,-3.7521,-1.2238,1.6759,0.3760,-0.6517,0.5468,
3.236209,0.7426,-0.4990,-0.3541,-3.7521,-1.2238,1.6759,0.3760,-0.6517,0.5468,
3.237175,0.7426,-0.4990,-0.3541,-3.7521,-1.2238,1.6759,0.0255,-0.1872,0.6054,
3.237981,0.7426,-0.4990,-0.3541,-3.4845,-1.0703,1.6768,0.0255,-0.1872,0.6054,
3.273211,0.7426,-0.4990,-0.3541,-3.4845,-1.0703,1.6768,-0.0810,0.1441,0.1282,
3.282091,0.7426,-0.4990,-0.3541,-3.3902,-1.0298,1.6405,-0.0810,0.1441,0.1282,
3.316142,0.9008,-0.5099,-0.5244,-3.3902,-1.0298,1.6405,-0.0810,0.1441,0.1282,
3.317489,0.9237,-0.5146,-0.5427,-3.3902,-1.0298,1.6405,-0.0810,0.1441,0.1282,
3.318396,0.8984,-0.5383,-0.5181,-3.3902,-1.0298,1.6405,-0.0810,0.1441,0.1282,
3.319257,0.8393,-0.6279,-0.4331,-3.3902,-1.0298,1.6405,-0.0810,0.1441,0.1282,
3.320084,0.8393,-0.6279,-0.4331,-3.3902,-1.0298,1.6405,-0.0309,-0.1340,-0.6537,
3.320877,0.8393,-0.6279,-0.4331,3.2832,2.4246,-3.1193,-0.0309,-0.1340,-0.6537,
3.367604,0.8393,-0.6279,-0.4331,3.2832,2.4246,-3.1193,-0.4549,0.0003,-1.1576,
3.369366,0.8393,-0.6279,-0.4331,2.8825,2.0908,-2.9290,-0.4549,0.0003,-1.1576,
3.392106,0.8200,-0.6351,-0.4026,2.8825,2.0908,-2.9290,-0.4549,0.0003,-1.1576,
3.394560,0.7959,-0.5712,-0.4027,2.8825,2.0908,-2.9290,-0.4549,0.0003,-1.1576,
3.395942,0.7589,-0.7247,-0.4699,2.8825,2.0908,-2.9290,-0.4549,0.0003,-1.1576,
3.397515,0.7589,-0.7247,-0.4699,2.8825,2.0908,-2.9290,-0.7393,0.3454,-1.1736,
3.399001,0.7589,-0.7247,-0.4699,1.7748,1.0088,-1.7812,-0.7393,0.3454,-1.1736,
3.425640,0.6555,-0.9732,-0.3177,1.7748,1.0088,-1.7812,-0.7393,0.3454,-1.1736,
3.429475,0.6669,-1.1666,0.0811,1.7748,1.0088,-1.7812,-0.7393,0.3454,-1.1736,
3.430855,0.5504,-1.3081,0.1973,1.7748,1.0088,-1.7812,-0.7393,0.3454,-1.1736,
3.432691,0.5504,-1.3081,0.1973,-0.1486,-3.6816,1.1552,-0.7393,0.3454,-1.1736,
3.434194,0.5504,-1.3081,0.1973,-0.1486,-3.6816,1.1552,-0.1694,1.1071,-0.7869,
3.470996,0.5504,-1.3081,0.1973,-0.1486,-3.6816,1.1552,0.0106,1.1912,-0.1339,
3.472767,0.5504,-1.3081,0.1973,-0.2701,-3.6508,0.8238,0.0106,1.1912,-0.1339,
3.510623,0.4732,-0.7840,0.3515,-0.2701,-3.6508,0.8238,0.0106,1.1912,-0.1339,
3.512177,0.4732,-0.7840,0.3515,-0.2701,-3.6508,0.8238,-0.5199,1.0666,-0.0156,
3.512916,0.4732,-0.7840,0.3515,-0.3378,-3.6237,0.6691,-0.5199,1.0666,-0.0156,
3.550286,0.4732,-0.7840,0.3515,-0.3378,-3.6237,0.6691,0.0032,2.1564,0.2688,
3.552711,0.4732,-0.7840,0.3515,-0.3678,-3.4901,0.0881,0.0032,2.1564,0.2688,
3.590674,0.2506,-0.8079,0.4318,-0.3678,-3.4901,0.0881,0.0032,2.1564,0.2688,
3.592534,0.2350,-0.8543,0.1993,-0.3678,-3.4901,0.0881,0.0032,2.1564,0.2688,
3.593802,0.4079,-0.7129,0.0209,-0.3678,-3.4901,0.0881,0.0032,2.1564,0.2688,
3.595128,0.4079,-0.7129,0.0209,-0.3678,-3.4901,0.0881,0.8234,2.1223,1.7101,
3.596222,0.4079,-0.7129,0.0209,-3.1570,-0.4651,3.3508,0.8234,2.1223,1.7101,
3.630867,0.4079,-0.7129,0.0209,-3.1570,-0.4651,3.3508,0.9683,0.6085,1.8944,
3.632874,0.4079,-0.7129,0.0209,-1.6584,2.1219,-0.8165,0.9683,0.6085,1.8944,
3.669169,0.4079,-0.7129,0.0209,-1.6584,2.1219,-0.8165,0.9939,0.1079,0.7716,
3.671491,0.4079,-0.7129,0.0209,-1.3882,2.2346,-1.1369,0.9939,0.1079,0.7716,
3.672499,0.4231,-0.5548,-0.1188,-1.3882,2.2346,-1.1369,0.9939,0.1079,0.7716,
3.673253,0.3996,-0.5118,-0.0634,-1.3882,2.2346,-1.1369,0.9939,0.1079,0.7716,
3.673965,0.4265,-0.7356,0.1340,-1.3882,2.2346,-1.1369,0.9939,0.1079,0.7716,
3.674710,0.6461,-0.7647,0.2430,-1.3882,2.2346,-1.1369,0.9939,0.1079,0.7716,
3.675356,0.6283,-0.8026,0.1768,-1.3882,2.2346,-1.1369,0.9939,0.1079,0.7716,
3.708656,0.6283,-0.8026,0.1768,-1.3882,2.2346,-1.1369,1.1281,-0.3374,0.2156,
3.710268,0.6283,-0.8026,0.1768,0.2029,0.5280,0.8950,1.1281,-0.3374,0.2156,
3.748830,0.6283,-0.8026,0.1768,0.2029,0.5280,0.8950,0.7425,0.1111,0.1197,
3.750786,0.6283,-0.8026,0.1768,-0.5703,-0.0297,-0.3682,0.7425,0.1111,0.1197,
3.752117,0.5513,-0.8372,0.0879,-0.5703,-0.0297,-0.3682,0.7425,0.1111,0.1197,
3.753547,0.4991,-0.7920,0.0441,-0.5703,-0.0297,-0.3682,0.7425,0.1111,0.1197,
3.754707,0.3977,-0.8429,0.1128,-0.5703,-0.0297,-0.3682,0.7425,0.1111,0.1197,
3.755870,0.4480,-0.8397,0.1155,-0.5703,-0.0297,-0.3682,0.7425,0.1111,0.1197,
3.788749,0.4480,-0.8397,0.1155,-0.5703,-0.0297,-0.3682,0.5528,0.2698,0.0281,
3.790706,0.4480,-0.8397,0.1155,-0.5384,-0.0509,-0.5907,0.5528,0.2698,0.0281,
3.829062,0.4727,-0.8309,0.1355,-0.5384,-0.0509,-0.5907,0.5528,0.2698,0.0281,
3.831190,0.4438,-0.8443,0.1594,-0.5384,-0.0509,-0.5907,0.5528,0.2698,0.0281,
3.832527,0.4959,-0.8091,0.1546,-0.5384,-0.0509,-0.5907,0.5528,0.2698,0.0281,
3.834077,0.4959,-0.8091,0.1546,-0.5384,-0.0509,-0.5907,0.4058,0.3603,0.0824,
3.835391,0.4959,-0.8091,0.1546,-0.7510,-0.1941,-0.2492,0.4058,0.3603,0.0824,
3.868049,0.4959,-0.8091,0.1546,-0.7510,-0.1941,-0.2492,-0.1854,0.5851,-0.0561,
3.870229,0.4959,-0.8091,0.1546,-0.4025,2.1122,-0.5465,-0.1854,0.5851,-0.0561,
3.907252,0.4959,-0.8091,0.1546,-0.4025,2.1122,-0.5465,-0.1012,0.3859,0.3775,
3.908326,0.4959,-0.8091,0.1546,-0.2527,2.1586,-0.5828,-0.1012,0.3859,0.3775,
3.909639,0.5220,-0.6753,0.1331,-0.2527,2.1586,-0.5828,-0.1012,0.3859,0.3775,
3.910496,0.4451,-0.3137,0.0478,-0.2527,2.1586,-0.5828,-0.1012,0.3859,0.3775,
3.911175,0.3405,-0.3000,0.0417,-0.2527,2.1586,-0.5828,-0.1012,0.3859,0.3775,
3.911886,0.3781,-0.1222,0.0945,-0.2527,2.1586,-0.5828,-0.1012,0.3859,0.3775,
3.912542,0.4248,-0.1363,0.2889,-0.2527,2.1586,-0.5828,-0.1012,0.3859,0.3775,
3.947015,0.4248,-0.1363,0.2889,-0.2527,2.1586,-0.5828,0.5465,0.4605,1.0177,
3.948518,0.4248,-0.1363,0.2889,-0.9211,6.2581,-0.5452,0.5465,0.4605,1.0177,
3.989834,0.4248,-0.1363,0.2889,0.4947,1.2006,-0.8611,0.5465,0.4605,1.0177,
3.992567,0.4248,-0.1363,0.2889,0.4947,1.2006,-0.8611,0.2556,0.6192,0.8600,
3.994503,0.5232,-0.3789,0.1582,0.4947,1.2006,-0.8611,0.2556,0.6192,0.8600,
3.995720,0.4727,-0.7769,0.1020,0.4947,1.2006,-0.8611,0.2556,0.6192,0.8600,
3.997085,0.4832,-0.9853,0.1225,0.4947,1.2006,-0.8611,0.2556,0.6192,0.8600,
3.998844,0.5044,-1.2013,0.0488,0.4947,1.2006,-0.8611,0.2556,0.6192,0.8600,
4.027017,0.5044,-1.2013,0.0488,0.7773,1.3201,-0.8776,0.2556,0.6192,0.8600,
4.029198,0.5044,-1.2013,0.0488,0.7773,1.3201,-0.8776,-0.0906,0.3678,0.8078,
4.068236,0.5044,-1.2013,0.0488,0.7773,1.3201,-0.8776,-0.5593,0.7076,2.8063,
4.070660,0.5044,-1.2013,0.0488,0.4862,-6.3700,-2.7576,-0.5593,0.7076,2.8063,
4.072144,0.4446,-1.4109,-0.1418,0.4862,-6.3700,-2.7576,-0.5593,0.7076,2.8063,
4.073684,0.1348,-2.0512,-0.1413,0.4862,-6.3700,-2.7576,-0.5593,0.7076,2.8063,
4.074937,0.0901,-1.5687,0.0932,0.4862,-6.3700,-2.7576,-0.5593,0.7076,2.8063,
4.076231,0.3068,-0.7588,0.1375,0.4862,-6.3700,-2.7576,-0.5593,0.7076,2.8063,
4.105668,0.3068,-0.7588,0.1375,0.4862,-6.3700,-2.7576,-0.2344,0.1143,3.8758,
4.107705,0.3068,-0.7588,0.1375,1.8568,-5.8905,-2.6426,-0.2344,0.1143,3.8758,
4.145768,0.3068,-0.7588,0.1375,1.8568,-5.8905,-2.6426,-1.4104,0.2986,2.6816,
4.148449,0.3068,-0.7588,0.1375,1.9180,-0.9644,-0.8542,-1.4104,0.2986,2.6816,
4.149958,0.4021,-0.8988,-0.0802,1.9180,-0.9644,-0.8542,-1.4104,0.2986,2.6816,
4.151227,0.3877,-1.2127,-0.2185,1.9180,-0.9644,-0.8542,-1.4104,0.2986,2.6816,
4.152463,1.7208,-2.7392,-0.6741,1.9180,-0.9644,-0.8542,-1.4104,0.2986,2.6816,
4.153806,1.3988,-1.9029,-0.2977,1.9180,-0.9644,-0.8542,-1.4104,0.2986,2.6816,
4.185828,1.3988,-1.9029,-0.2977,1.9180,-0.9644,-0.8542,-2.9093,-0.8232,0.2507,
4.188513,1.3988,-1.9029,-0.2977,10.6568,-9.2967,-4.0352,-2.9093,-0.8232,0.2507,
4.225506,0.3674,-0.8299,-0.0448,10.6568,-9.2967,-4.0352,-2.9093,-0.8232,0.2507,
4.228677,-0.0887,-1.0095,-0.0973,10.6568,-9.2967,-4.0352,-2.9093,-0.8232,0.2507,
4.229676,-0.4173,-1.3515,0.2635,10.6568,-9.2967,-4.0352,-2.9093,-0.8232,0.2507,
4.231122,-0.4173,-1.3515,0.2635,10.6568,-9.2967,-4.0352,-3.0137,-1.6360,-0.8987,
4.232233,-0.4173,-1.3515,0.2635,-1.5428,-0.6730,1.4560,-3.0137,-1.6360,-0.8987,
4.265923,-0.4173,-1.3515,0.2635,-1.5428,-0.6730,1.4560,-2.2871,-0.1297,-0.9030,
4.268874,-0.4173,-1.3515,0.2635,-6.5213,-3.4887,4.8522,-2.2871,-0.1297,-0.9030,
4.305037,-0.4173,-1.3515,0.2635,-6.5213,-3.4887,4.8522,-1.4690,1.5311,-0.3629,
4.307873,-0.4173,-1.3515,0.2635,-6.6773,-3.5712,5.2298,-1.4690,1.5311,-0.3629,
4.310838,-0.6208,-1.4502,0.5733,-6.6773,-3.5712,5.2298,-1.4690,1.5311,-0.3629,
4.312219,-0.6668,-1.3593,0.4067,-6.6773,-3.5712,5.2298,-1.4690,1.5311,-0.3629,
4.313609,-0.3042,-1.2059,-0.0634,-6.6773,-3.5712,5.2298,-1.4690,1.5311,-0.3629,
4.314756,0.0642,-1.1473,-0.3424,-6.6773,-3.5712,5.2298,-1.4690,1.5311,-0.3629,
4.315754,0.1854,-1.0398,-0.3126,-6.6773,-3.5712,5.2298,-1.4690,1.5311,-0.3629,
4.343937,0.1854,-1.0398,-0.3126,-6.6773,-3.5712,5.2298,-1.8344,-0.3981,-0.3405,
4.345658,0.1854,-1.0398,-0.3126,-6.6471,-3.7168,5.8425,-1.8344,-0.3981,-0.3405,
4.384487,0.1854,-1.0398,-0.3126,-6.6471,-3.7168,5.8425,-1.3401,-1.3515,-0.7996,
4.387135,0.1854,-1.0398,-0.3126,0.4292,-1.0465,1.1528,-1.3401,-1.3515,-0.7996,
4.388423,0.3649,-0.9508,-0.0341,0.4292,-1.0465,1.1528,-1.3401,-1.3515,-0.7996,
4.389539,0.3916,-0.9396,0.0368,0.4292,-1.0465,1.1528,-1.3401,-1.3515,-0.7996,
4.390964,0.2699,-0.8829,-0.0978,0.4292,-1.0465,1.1528,-1.3401,-1.3515,-0.7996,
4.392165,0.0676,-0.8556,-0.1633,0.4292,-1.0465,1.1528,-1.3401,-1.3515,-0.7996,
4.424338,0.0676,-0.8556,-0.1633,0.4292,-1.0465,1.1528,-0.7052,-1.5262,-0.8913,
4.427716,0.0676,-0.8556,-0.1633,0.6877,0.2931,2.9741,-0.7052,-1.5262,-0.8913,
4.463370,0.0676,-0.8556,-0.1633,0.6877,0.2931,2.9741,-0.6040,-1.4751,-0.5632,
4.466695,0.0676,-0.8556,-0.1633,-3.2569,2.1487,3.4168,-0.6040,-1.4751,-0.5632,
4.468194,-0.1095,-0.7806,-0.1103,-3.2569,2.1487,3.4168,-0.6040,-1.4751,-0.5632,
4.469206,-0.2031,-0.6792,-0.0468,-3.2569,2.1487,3.4168,-0.6040,-1.4751,-0.5632,
4.470648,-0.1906,-0.5993,-0.0101,-3.2569,2.1487,3.4168,-0.6040,-1.4751,-0.5632,
4.471929,-0.1100,-0.5460,-0.0460,-3.2569,2.1487,3.4168,-0.6040,-1.4751,-0.5632,
4.504197,-0.1100,-0.5460,-0.0460,-3.2569,2.1487,3.4168,-0.2557,-0.9787,-0.2212,
4.506541,-0.1100,-0.5460,-0.0460,-3.1247,2.0590,3.5083,-0.2557,-0.9787,-0.2212,
4.542330,-0.0135,-0.5473,-0.1459,-3.1247,2.0590,3.5083,-0.2557,-0.9787,-0.2212,
4.545515,0.0832,-0.6052,-0.2691,-3.1247,2.0590,3.5083,-0.2557,-0.9787,-0.2212,
4.548181,0.2081,-0.6887,-0.3995,-3.1247,2.0590,3.5083,-0.2557,-0.9787,-0.2212,
4.549483,0.2081,-0.6887,-0.3995,-1.4988,3.2155,2.4658,-0.2557,-0.9787,-0.2212,
4.550819,0.2081,-0.6887,-0.3995,-1.4988,3.2155,2.4658,0.2375,-0.7401,-0.0880,
4.582194,0.2081,-0.6887,-0.3995,-1.4988,3.2155,2.4658,0.3409,-0.6655,-0.2116,
4.584063,0.2081,-0.6887,-0.3995,1.4265,1.3886,-0.7687,0.3409,-0.6655,-0.2116,
4.620966,0.2081,-0.6887,-0.3995,1.4265,1.3886,-0.7687,0.3398,-0.5558,-0.4630,
4.622746,0.2081,-0.6887,-0.3995,1.3276,1.3914,-0.8422,0.3398,-0.5558,-0.4630,
4.624457,0.2995,-0.7644,-0.4831,1.3276,1.3914,-0.8422,0.3398,-0.5558,-0.4630,
4.625856,0.3459,-0.8101,-0.5471,1.3276,1.3914,-0.8422,0.3398,-0.5558,-0.4630,
4.627286,0.3337,-0.8585,-0.5779,1.3276,1.3914,-0.8422,0.3398,-0.5558,-0.4630,
4.628551,0.2714,-0.9364,-0.6407,1.3276,1.3914,-0.8422,0.3398,-0.5558,-0.4630,
4.629977,0.2318,-1.0344,-0.7560,1.3276,1.3914,-0.8422,0.3398,-0.5558,-0.4630,
4.660915,0.2318,-1.0344,-0.7560,1.3276,1.3914,-0.8422,0.2471,-0.7326,-0.7517,
4.662896,0.2318,-1.0344,-0.7560,1.1034,-0.4584,-2.6190,0.2471,-0.7326,-0.7517,
4.700913,0.2318,-1.0344,-0.7560,1.1034,-0.4584,-2.6190,-0.0128,-0.9329,-0.9072,
4.702795,0.2318,-1.0344,-0.7560,1.1628,-1.0573,-3.5076,-0.0128,-0.9329,-0.9072,
4.704262,0.2611,-1.0923,-0.8210,1.1628,-1.0573,-3.5076,-0.0128,-0.9329,-0.9072,
4.705494,0.3312,-1.0302,-0.7697,1.1628,-1.0573,-3.5076,-0.0128,-0.9329,-0.9072,
4.706631,0.3214,-0.8761,-0.6949,1.1628,-1.0573,-3.5076,-0.0128,-0.9329,-0.9072,
4.707720,0.2208,-0.7317,-0.5525,1.1628,-1.0573,-3.5076,-0.0128,-0.9329,-0.9072,
4.740304,0.2208,-0.7317,-0.5525,1.1628,-1.0573,-3.5076,0.3015,-1.1108,-0.6729,
4.742305,0.2208,-0.7317,-0.5525,1.0857,-1.0420,-3.4711,0.3015,-1.1108,-0.6729,
4.779932,0.2208,-0.7317,-0.5525,1.0857,-1.0420,-3.4711,1.0429,-0.7614,-0.3469,
4.782233,0.2208,-0.7317,-0.5525,-0.3214,1.8605,-0.3193,1.0429,-0.7614,-0.3469,
4.783543,0.1487,-0.6325,-0.3634,-0.3214,1.8605,-0.3193,1.0429,-0.7614,-0.3469,
4.784764,0.1131,-0.7769,-0.3126,-0.3214,1.8605,-0.3193,1.0429,-0.7614,-0.3469,
4.785696,0.1341,-1.3842,-0.4398,-0.3214,1.8605,-0.3193,1.0429,-0.7614,-0.3469,
4.786943,0.1177,-2.0830,-0.3272,-0.3214,1.8605,-0.3193,1.0429,-0.7614,-0.3469,
4.819266,0.1177,-2.0830,-0.3272,-0.3214,1.8605,-0.3193,0.3643,1.3052,-0.2596,
4.821183,0.1177,-2.0830,-0.3272,-0.5861,1.8604,-0.5443,0.3643,1.3052,-0.2596,
4.860465,0.1177,-2.0830,-0.3272,-0.5861,1.8604,-0.5443,-0.0117,1.3723,0.2805,
4.862693,-0.2141,-1.4583,-0.5268,-0.5861,1.8604,-0.5443,-0.0117,1.3723,0.2805,
4.864311,-0.7017,-0.4266,-0.2024,-0.5861,1.8604,-0.5443,-0.0117,1.3723,0.2805,
4.865528,-0.6807,-0.4654,-0.2532,-0.5861,1.8604,-0.5443,-0.0117,1.3723,0.2805,
4.866873,-0.1669,-0.7605,0.1707,-0.5861,1.8604,-0.5443,-0.0117,1.3723,0.2805,
4.868010,-0.1669,-0.7605,0.1707,-2.0901,-7.0916,-0.8602,-0.0117,1.3723,0.2805,
4.898158,-0.1669,-0.7605,0.1707,-2.0901,-7.0916,-0.8602,0.6508,1.5758,1.1711,
4.899703,-0.1669,-0.7605,0.1707,-6.9350,3.7170,2.0341,0.6508,1.5758,1.1711,
4.938228,-0.1669,-0.7605,0.1707,-6.9350,3.7170,2.0341,0.9321,1.6397,0.8323,
4.939719,-0.1669,-0.7605,0.1707,1.8118,-1.4489,4.4429,0.9321,1.6397,0.8323,
4.940641,0.2716,-1.0466,0.4599,1.8118,-1.4489,4.4429,0.9321,1.6397,0.8323,
4.941443,0.4267,-1.1959,0.2271,1.8118,-1.4489,4.4429,0.9321,1.6397,0.8323,
4.942169,0.4011,-1.0481,-0.0717,1.8118,-1.4489,4.4429,0.9321,1.6397,0.8323,
4.942957,0.3701,-0.9736,-0.2647,1.8118,-1.4489,4.4429,0.9321,1.6397,0.8323,
4.977246,0.3701,-0.9736,-0.2647,1.8118,-1.4489,4.4429,0.8852,0.6352,0.2699,
4.978672,0.3701,-0.9736,-0.2647,1.8232,-1.3289,4.0026,0.8852,0.6352,0.2699,
5.017277,0.3701,-0.9736,-0.2647,0.4300,-0.4863,-0.2926,0.8852,0.6352,0.2699,
5.019094,0.3701,-0.9736,-0.2647,0.4300,-0.4863,-0.2926,0.8511,0.8088,0.0483,
5.021982,0.2472,-1.0349,-0.2097,0.4300,-0.4863,-0.2926,0.8511,0.8088,0.0483,
5.023086,0.0701,-1.0464,-0.1115,0.4300,-0.4863,-0.2926,0.8511,0.8088,0.0483,
5.024125,-0.0450,-0.9931,-0.0663,0.4300,-0.4863,-0.2926,0.8511,0.8088,0.0483,
5.024883,-0.0465,-0.9394,-0.0375,0.4300,-0.4863,-0.2926,0.8511,0.8088,0.0483,
5.058671,-0.0465,-0.9394,-0.0375,0.4300,-0.4863,-0.2926,0.8799,0.8504,0.3125,
5.060024,-0.0465,-0.9394,-0.0375,0.4917,-0.4076,-0.6736,0.8799,0.8504,0.3125,
5.096102,-0.0465,-0.9394,-0.0375,0.4917,-0.4076,-0.6736,0.9246,0.4860,0.5852,
5.097202,-0.0465,-0.9394,-0.0375,-1.7473,0.3063,0.2641,0.9246,0.4860,0.5852,
5.097788,0.0224,-0.9257,-0.0761,-1.7473,0.3063,0.2641,0.9246,0.4860,0.5852,
5.098220,0.1055,-0.9135,-0.0854,-1.7473,0.3063,0.2641,0.9246,0.4860,0.5852,
5.098568,0.2147,-0.8969,-0.0306,-1.7473,0.3063,0.2641,0.9246,0.4860,0.5852,
5.098930,0.3229,-0.9027,0.0065,-1.7473,0.3063,0.2641,0.9246,0.4860,0.5852,
5.135082,0.3229,-0.9027,0.0065,-1.7473,0.3063,0.2641,1.0503,0.5052,0.4393,
5.136207,0.3229,-0.9027,0.0065,0.7224,0.8181,0.0614,1.0503,0.5052,0.4393,
5.175073,0.3229,-0.9027,0.0065,0.7224,0.8181,0.0614,1.0216,0.4136,0.1644,
5.176180,0.3229,-0.9027,0.0065,1.6494,0.6010,-1.2380,1.0216,0.4136,0.1644,
5.176818,0.3632,-0.9223,-0.0460,1.6494,0.6010,-1.2380,1.0216,0.4136,0.1644,
5.177246,0.3322,-0.9298,-0.1325,1.6494,0.6010,-1.2380,1.0216,0.4136,0.1644,
5.177687,0.2218,-0.9296,-0.2082,1.6494,0.6010,-1.2380,1.0216,0.4136,0.1644,
5.178090,0.1409,-0.9369,-0.2143,1.6494,0.6010,-1.2380,1.0216,0.4136,0.1644,
5.214734,0.1409,-0.9369,-0.2143,1.6494,0.6010,-1.2380,0.6839,0.2613,0.1623,
5.215756,0.1409,-0.9369,-0.2143,1.6843,0.5963,-1.4889,0.6839,0.2613,0.1623,
5.256812,0.1409,-0.9369,-0.2143,1.6843,0.5963,-1.4889,0.5305,0.3060,0.3295,
5.258764,0.1409,-0.9369,-0.2143,0.0825,0.5366,-1.7780,0.5305,0.3060,0.3295,
5.260067,0.1182,-0.9425,-0.1550,0.0825,0.5366,-1.7780,0.5305,0.3060,0.3295,
5.261280,0.1282,-0.9206,-0.0482,0.0825,0.5366,-1.7780,0.5305,0.3060,0.3295,
5.262277,0.1135,-0.9152,0.0825,0.0825,0.5366,-1.7780,0.5305,0.3060,0.3295,
5.263454,0.0876,-0.9323,0.1167,0.0825,0.5366,-1.7780,0.5305,0.3060,0.3295,
5.295069,0.0876,-0.9323,0.1167,0.2497,0.5266,-2.0835,0.5305,0.3060,0.3295,
5.297801,0.0876,-0.9323,0.1167,0.2497,0.5266,-2.0835,0.8671,0.1867,0.4361,
5.335738,0.0876,-0.9323,0.1167,0.2497,0.5266,-2.0835,0.9257,0.1388,0.5490,
5.338396,0.0876,-0.9323,0.1167,0.0843,0.4263,-0.3204,0.9257,0.1388,0.5490,
5.339587,0.0701,-0.9770,0.0314,0.0843,0.4263,-0.3204,0.9257,0.1388,0.5490,
5.340708,0.1138,-1.0163,-0.1166,0.0843,0.4263,-0.3204,0.9257,0.1388,0.5490,
5.341872,0.1773,-1.0471,-0.1029,0.0843,0.4263,-0.3204,0.9257,0.1388,0.5490,
5.343190,0.2056,-1.0486,0.0436,0.0843,0.4263,-0.3204,0.9257,0.1388,0.5490,
5.376655,0.2056,-1.0486,0.0436,0.0843,0.4263,-0.3204,0.7425,0.3497,0.4957,
5.379276,0.2056,-1.0486,0.0436,1.0103,-0.5263,-1.9091,0.7425,0.3497,0.4957,
5.413749,0.2056,-1.0486,0.0436,1.0103,-0.5263,-1.9091,0.8330,0.3848,0.4584,
5.415956,0.2056,-1.0486,0.0436,1.2554,-1.3841,-1.7673,0.8330,0.3848,0.4584,
5.417133,0.1883,-1.0767,0.0749,1.2554,-1.3841,-1.7673,0.8330,0.3848,0.4584,
5.418055,0.1631,-1.1482,-0.0216,1.2554,-1.3841,-1.7673,0.8330,0.3848,0.4584,
5.418820,0.1663,-1.1446,-0.0954,1.2554,-1.3841,-1.7673,0.8330,0.3848,0.4584,
5.419564,0.1695,-1.1463,-0.1875,1.2554,-1.3841,-1.7673,0.8330,0.3848,0.4584,
5.453645,0.1695,-1.1463,-0.1875,1.2554,-1.3841,-1.7673,0.5997,0.2794,0.4499,
5.457243,0.1695,-1.1463,-0.1875,1.4219,-1.3959,-1.9662,0.5997,0.2794,0.4499,
5.493401,0.1695,-1.1463,-0.1875,1.4219,-1.3959,-1.9662,-0.2323,0.0514,-0.0007,
5.495464,0.1695,-1.1463,-0.1875,2.7130,-2.4724,-4.1705,-0.2323,0.0514,-0.0007,
5.496608,0.2794,-1.2413,-0.2945,2.7130,-2.4724,-4.1705,-0.2323,0.0514,-0.0007,
5.497428,0.4771,-1.3293,-0.2835,2.7130,-2.4724,-4.1705,-0.2323,0.0514,-0.0007,
5.498376,0.5394,-1.3745,-0.1821,2.7130,-2.4724,-4.1705,-0.2323,0.0514,-0.0007,
5.499217,0.3874,-1.3046,-0.2007,2.7130,-2.4724,-4.1705,-0.2323,0.0514,-0.0007,
5.532994,0.3874,-1.3046,-0.2007,2.7130,-2.4724,-4.1705,-1.2773,-0.1606,-0.6164,
5.535749,0.3874,-1.3046,-0.2007,2.4260,-2.3708,-3.6155,-1.2773,-0.1606,-0.6164,
5.572916,0.3874,-1.3046,-0.2007,2.4260,-2.3708,-3.6155,-2.2978,-0.6293,-0.7389,
5.574943,0.3874,-1.3046,-0.2007,2.6378,-2.5707,-2.2430,-2.2978,-0.6293,-0.7389,
5.575838,0.1705,-1.1241,-0.2532,2.6378,-2.5707,-2.2430,-2.2978,-0.6293,-0.7389,
5.576605,0.0031,-0.9870,-0.2420,2.6378,-2.5707,-2.2430,-2.2978,-0.6293,-0.7389,
5.577323,-0.1122,-1.0403,-0.1745,2.6378,-2.5707,-2.2430,-2.2978,-0.6293,-0.7389,
5.578179,-0.1708,-1.1937,0.0717,2.6378,-2.5707,-2.2430,-2.2978,-0.6293,-0.7389,
5.612249,-0.1708,-1.1937,0.0717,2.6378,-2.5707,-2.2430,-2.5620,-0.2160,-0.6420,
5.614600,-0.1708,-1.1937,0.0717,-2.0743,-0.7185,-0.2805,-2.5620,-0.2160,-0.6420,
5.653170,-0.2006,-1.2863,0.2774,-2.0743,-0.7185,-0.2805,-2.5620,-0.2160,-0.6420,
5.655740,-0.2365,-1.2359,0.2684,-2.0743,-0.7185,-0.2805,-2.5620,-0.2160,-0.6420,
5.657156,-0.2576,-1.1109,0.1116,-2.0743,-0.7185,-0.2805,-2.5620,-0.2160,-0.6420,
5.658411,-0.2576,-1.1109,0.1116,-2.0743,-0.7185,-0.2805,-2.1465,0.8003,-0.5248,
5.659660,-0.2576,-1.1109,0.1116,-3.6132,-2.1606,3.7173,-2.1465,0.8003,-0.5248,
5.692349,-0.2576,-1.1109,0.1116,-3.6132,-2.1606,3.7173,-2.0379,0.6991,-0.3607,
5.695030,-0.2576,-1.1109,0.1116,-2.2054,-1.1477,0.7800,-2.0379,0.6991,-0.3607,
5.732200,-0.2576,-1.1109,0.1116,-2.2054,-1.1477,0.7800,-2.0219,0.1814,-0.3054,
5.734603,-0.2576,-1.1109,0.1116,-2.2986,-1.3573,1.5000,-2.0219,0.1814,-0.3054,
5.735961,-0.1647,-1.1231,-0.1345,-2.2986,-1.3573,1.5000,-2.0219,0.1814,-0.3054,
5.737203,-0.0812,-1.1282,-0.1982,-2.2986,-1.3573,1.5000,-2.0219,0.1814,-0.3054,
5.738218,0.0293,-1.0234,-0.1308,-2.2986,-1.3573,1.5000,-2.0219,0.1814,-0.3054,
5.739352,0.2132,-0.9396,-0.0533,-2.2986,-1.3573,1.5000,-2.0219,0.1814,-0.3054,
5.740426,0.2997,-0.8487,-0.0213,-2.2986,-1.3573,1.5000,-2.0219,0.1814,-0.3054,
5.771079,0.2997,-0.8487,-0.0213,-2.2986,-1.3573,1.5000,-1.5255,-0.4887,-0.6367,
5.773558,0.2997,-0.8487,-0.0213,-2.4241,-1.5728,2.0554,-1.5255,-0.4887,-0.6367,
5.802911,0.2088,-0.8253,-0.0932,-2.4241,-1.5728,2.0554,-1.5255,-0.4887,-0.6367,
5.805492,0.0334,-0.8165,-0.1396,-2.4241,-1.5728,2.0554,-1.5255,-0.4887,-0.6367,
5.806623,-0.0890,-0.7947,-0.1017,-2.4241,-1.5728,2.0554,-1.5255,-0.4887,-0.6367,
5.810176,-0.0890,-0.7947,-0.1017,-2.4241,-1.5728,2.0554,-1.0866,-1.0948,-0.7176,
5.811667,-0.0890,-0.7947,-0.1017,0.5421,0.3669,3.4281,-1.0866,-1.0948,-0.7176,
5.850403,-0.0890,-0.7947,-0.1017,0.5421,0.3669,3.4281,-0.7308,-1.0362,-0.3160,
5.852539,-0.0890,-0.7947,-0.1017,-2.4358,0.9694,3.1841,-0.7308,-1.0362,-0.3160,
5.865629,-0.1652,-0.7693,-0.0856,-2.4358,0.9694,3.1841,-0.7308,-1.0362,-0.3160,
5.868232,-0.1481,-0.7144,-0.0387,-2.4358,0.9694,3.1841,-0.7308,-1.0362,-0.3160,
5.870155,-0.0394,-0.6330,-0.0240,-2.4358,0.9694,3.1841,-0.7308,-1.0362,-0.3160,
5.889112,-0.0394,-0.6330,-0.0240,-2.4358,0.9694,3.1841,-0.1939,-0.4844,-0.0050,
5.891289,-0.0394,-0.6330,-0.0240,-2.3155,0.9204,3.2288,-0.1939,-0.4844,-0.0050,
5.929449,-0.0394,-0.6330,-0.0240,-2.3155,0.9204,3.2288,0.5007,-0.0242,0.0867,
5.932039,-0.0394,-0.6330,-0.0240,-2.0290,2.4733,3.5664,0.5007,-0.0242,0.0867,
5.953613,0.0334,-0.5722,-0.0898,-2.0290,2.4733,3.5664,0.5007,-0.0242,0.0867,
5.956345,0.1221,-0.5700,-0.1860,-2.0290,2.4733,3.5664,0.5007,-0.0242,0.0867,
5.957813,0.2367,-0.6330,-0.3287,-2.0290,2.4733,3.5664,0.5007,-0.0242,0.0867,
5.958948,0.3317,-0.7310,-0.5017,-2.0290,2.4733,3.5664,0.5007,-0.0242,0.0867,
5.960466,0.4148,-0.8370,-0.6519,-2.0290,2.4733,3.5664,0.5007,-0.0242,0.0867,
5.969206,0.4148,-0.8370,-0.6519,-2.0290,2.4733,3.5664,0.7542,0.0461,-0.0657,
5.972254,0.4148,-0.8370,-0.6519,0.6882,2.4975,0.4705,0.7542,0.0461,-0.0657,
6.008851,0.4148,-0.8370,-0.6519,0.6882,2.4975,0.4705,0.4122,-0.2767,-0.5461,
6.011252,0.4148,-0.8370,-0.6519,2.8241,-0.4331,-3.8584,0.4122,-0.2767,-0.5461,
6.042045,0.4900,-0.9467,-0.7716,2.8241,-0.4331,-3.8584,0.4122,-0.2767,-0.5461,
6.045024,0.5003,-1.0574,-0.8994,2.8241,-0.4331,-3.8584,0.4122,-0.2767,-0.5461,
6.046747,0.4187,-1.1607,-0.9587,2.8241,-0.4331,-3.8584,0.4122,-0.2767,-0.5461,
6.048049,0.3984,-1.0889,-0.9255,2.8241,-0.4331,-3.8584,0.4122,-0.2767,-0.5461,
6.049400,0.3984,-1.0889,-0.9255,2.8241,-0.4331,-3.8584,-0.1619,-0.7028,-1.0521,
6.050848,0.3984,-1.0889,-0.9255,2.5193,-0.5278,-3.6866,-0.1619,-0.7028,-1.0521,
6.088312,0.3984,-1.0889,-0.9255,2.5193,-0.5278,-3.6866,-0.2695,-1.1907,-1.0479,
6.091045,0.3984,-1.0889,-0.9255,1.5563,-1.5777,-4.3782,-0.2695,-1.1907,-1.0479,
6.129104,0.3984,-1.0889,-0.9255,1.5563,-1.5777,-4.3782,0.4538,-1.2386,-0.5408,
6.131789,0.3984,-1.0889,-0.9255,1.5494,-1.5257,-4.3484,0.4538,-1.2386,-0.5408,
6.133192,0.3539,-0.8805,-0.7328,1.5494,-1.5257,-4.3484,0.4538,-1.2386,-0.5408,
6.134472,0.2210,-0.6733,-0.5464,1.5494,-1.5257,-4.3484,0.4538,-1.2386,-0.5408,
6.135732,0.0727,-0.6008,-0.3990,1.5494,-1.5257,-4.3484,0.4538,-1.2386,-0.5408,
6.137083,0.1995,-0.8634,-0.2964,1.5494,-1.5257,-4.3484,0.4538,-1.2386,-0.5408,
6.138327,0.3385,-1.5587,-0.0998,1.5494,-1.5257,-4.3484,0.4538,-1.2386,-0.5408,
6.167183,0.3385,-1.5587,-0.0998,1.5494,-1.5257,-4.3484,0.7403,1.0804,-0.2606,
6.169536,0.3385,-1.5587,-0.0998,-0.9099,1.7807,-0.2132,0.7403,1.0804,-0.2606,
6.207058,0.3385,-1.5587,-0.0998,-0.9099,1.7807,-0.2132,-0.2599,1.4362,0.2859,
6.209382,0.3385,-1.5587,-0.0998,-2.7245,-6.4032,-1.3380,-0.2599,1.4362,0.2859,
6.211032,0.1605,-2.0141,-0.6634,-2.7245,-6.4032,-1.3380,-0.2599,1.4362,0.2859,
6.212161,-0.5397,-1.1004,-0.8124,-2.7245,-6.4032,-1.3380,-0.2599,1.4362,0.2859,
6.213376,-0.8371,-0.3415,-0.1433,-2.7245,-6.4032,-1.3380,-0.2599,1.4362,0.2859,
6.214645,-0.4151,-0.5568,-0.1298,-2.7245,-6.4032,-1.3380,-0.2599,1.4362,0.2859,
6.246599,-0.4151,-0.5568,-0.1298,-2.7245,-6.4032,-1.3380,0.3504,0.8472,1.3458,
6.249009,-0.4151,-0.5568,-0.1298,-2.3327,-6.1185,-1.5199,0.3504,0.8472,1.3458,
6.286378,0.2149,-0.9093,0.1585,-2.3327,-6.1185,-1.5199,0.3504,0.8472,1.3458,
6.289680,0.6083,-1.1468,0.3967,-2.3327,-6.1185,-1.5199,0.3504,0.8472,1.3458,
6.291260,0.5638,-1.0710,0.1428,-2.3327,-6.1185,-1.5199,0.3504,0.8472,1.3458,
6.292362,0.5638,-1.0710,0.1428,-2.3327,-6.1185,-1.5199,0.9843,1.8293,1.0837,
6.293541,0.5638,-1.0710,0.1428,-5.3448,3.4063,2.6933,0.9843,1.8293,1.0837,
6.325801,0.5638,-1.0710,0.1428,-5.3448,3.4063,2.6933,1.0407,0.6064,0.5639,
6.328492,0.5638,-1.0710,0.1428,3.1781,-0.8545,3.3592,1.0407,0.6064,0.5639,
6.365240,0.5638,-1.0710,0.1428,3.1781,-0.8545,3.3592,0.9523,0.1760,0.3721,
6.367929,0.5638,-1.0710,0.1428,3.2467,-0.7253,2.9363,0.9523,0.1760,0.3721,
6.369221,0.3735,-0.9474,-0.3001,3.2467,-0.7253,2.9363,0.9523,0.1760,0.3721,
6.370803,0.2872,-0.9665,-0.3504,3.2467,-0.7253,2.9363,0.9523,0.1760,0.3721,
6.372044,0.1670,-1.0432,-0.1235,3.2467,-0.7253,2.9363,0.9523,0.1760,0.3721,
6.373992,0.0574,-1.0202,-0.0223,3.2467,-0.7253,2.9363,0.9523,0.1760,0.3721,
6.375139,0.0009,-0.9335,-0.0690,3.2467,-0.7253,2.9363,0.9523,0.1760,0.3721,
6.404604,0.0009,-0.9335,-0.0690,3.2467,-0.7253,2.9363,1.0887,0.3667,0.3242,
6.407200,0.0009,-0.9335,-0.0690,-0.0339,-0.1742,0.0894,1.0887,0.3667,0.3242,
6.447269,0.0009,-0.9335,-0.0690,-0.0339,-0.1742,0.0894,1.0706,0.2005,0.5074,
6.450860,0.0009,-0.9335,-0.0690,-1.3517,0.7933,0.3457,1.0706,0.2005,0.5074,
6.452419,0.0004,-0.9010,-0.0998,-1.3517,0.7933,0.3457,1.0706,0.2005,0.5074,
6.453686,0.0434,-0.9245,-0.1164,-1.3517,0.7933,0.3457,1.0706,0.2005,0.5074,
6.454657,0.0876,-0.9267,-0.0614,-1.3517,0.7933,0.3457,1.0706,0.2005,0.5074,
6.455655,0.1316,-0.9118,0.0102,-1.3517,0.7933,0.3457,1.0706,0.2005,0.5074,
6.483856,0.1316,-0.9118,0.0102,-1.3517,0.7933,0.3457,1.0791,0.2453,0.4893,
6.486145,0.1316,-0.9118,0.0102,-1.1515,0.8515,-0.0876,1.0791,0.2453,0.4893,
6.524107,0.1316,-0.9118,0.0102,-1.1515,0.8515,-0.0876,1.1483,0.3326,0.3157,
6.526932,0.1316,-0.9118,0.0102,0.1406,0.8814,0.2984,1.1483,0.3326,0.3157,
6.529328,0.1863,-0.9201,0.0285,0.1406,0.8814,0.2984,1.1483,0.3326,0.3157,
6.530532,0.1986,-0.9120,-0.0753,0.1406,0.8814,0.2984,1.1483,0.3326,0.3157,
6.531545,0.2010,-0.8893,-0.1689,0.1406,0.8814,0.2984,1.1483,0.3326,0.3157,
6.532914,0.1631,-0.9196,-0.1950,0.1406,0.8814,0.2984,1.1483,0.3326,0.3157,
6.563601,0.1631,-0.9196,-0.1950,0.1406,0.8814,0.2984,0.8671,0.2645,0.1911,
6.565773,0.1631,-0.9196,-0.1950,0.7146,1.0028,-1.3911,0.8671,0.2645,0.1911,
6.603838,0.1409,-0.9455,-0.1552,0.7146,1.0028,-1.3911,0.8671,0.2645,0.1911,
6.606067,0.1216,-0.9565,-0.1225,0.7146,1.0028,-1.3911,0.8671,0.2645,0.1911,
6.607488,0.0889,-0.9552,-0.0463,0.7146,1.0028,-1.3911,0.8671,0.2645,0.1911,
6.608625,0.0889,-0.9552,-0.0463,0.7146,1.0028,-1.3911,0.6242,0.2708,0.2188,
6.609951,0.0889,-0.9552,-0.0463,0.1091,0.5554,-1.2495,0.6242,0.2708,0.2188,
6.642708,0.0889,-0.9552,-0.0463,0.1091,0.5554,-1.2495,0.7307,0.3028,0.3743,
6.645017,0.0889,-0.9552,-0.0463,-0.2513,0.3095,0.0610,0.7307,0.3028,0.3743,
6.682192,0.0889,-0.9552,-0.0463,-0.2513,0.3095,0.0610,1.0343,0.3689,0.5682,
6.684590,0.0889,-0.9552,-0.0463,-0.0184,0.2932,-0.3493,1.0343,0.3689,0.5682,
6.685862,0.0603,-0.9635,0.0559,-0.0184,0.2932,-0.3493,1.0343,0.3689,0.5682,
6.687208,0.0637,-0.9841,0.0786,-0.0184,0.2932,-0.3493,1.0343,0.3689,0.5682,
6.688453,0.0696,-0.9846,0.0344,-0.0184,0.2932,-0.3493,1.0343,0.3689,0.5682,
6.689712,0.1045,-1.0134,-0.0582,-0.0184,0.2932,-0.3493,1.0343,0.3689,0.5682,
6.691160,0.1673,-1.0395,-0.1171,-0.0184,0.2932,-0.3493,1.0343,0.3689,0.5682,
6.722098,0.1673,-1.0395,-0.1171,-0.0184,0.2932,-0.3493,0.9140,0.4061,0.6587,
6.725006,0.1673,-1.0395,-0.1171,0.2521,0.2629,-0.7026,0.9140,0.4061,0.6587,
6.762239,0.1673,-1.0395,-0.1171,0.2521,0.2629,-0.7026,0.6796,0.3486,0.4489,
6.764829,0.1673,-1.0395,-0.1171,1.4266,-0.2457,-2.3595,0.6796,0.3486,0.4489,
6.766183,0.2293,-1.0263,-0.0932,1.4266,-0.2457,-2.3595,0.6796,0.3486,0.4489,
6.767289,0.2692,-1.0784,-0.0602,1.4266,-0.2457,-2.3595,0.6796,0.3486,0.4489,
6.768536,0.2589,-1.1798,-0.0602,1.4266,-0.2457,-2.3595,0.6796,0.3486,0.4489,
6.769515,0.1905,-1.2069,-0.1235,1.4266,-0.2457,-2.3595,0.6796,0.3486,0.4489,
6.802116,0.1905,-1.2069,-0.1235,2.2671,-1.5170,-2.4761,0.6796,0.3486,0.4489,
6.804691,0.1905,-1.2069,-0.1235,2.2671,-1.5170,-2.4761,0.6104,0.4424,0.3615,
6.840550,0.1905,-1.2069,-0.1235,2.2671,-1.5170,-2.4761,-0.0181,0.1888,0.2795,
6.842839,0.1905,-1.2069,-0.1235,3.2517,-2.8410,-4.0989,-0.0181,0.1888,0.2795,
6.844544,0.1580,-1.2147,-0.2542,3.2517,-2.8410,-4.0989,-0.0181,0.1888,0.2795,
6.845805,0.3158,-1.2978,-0.3179,3.2517,-2.8410,-4.0989,-0.0181,0.1888,0.2795,
6.847226,0.5259,-1.3730,-0.1919,3.2517,-2.8410,-4.0989,-0.0181,0.1888,0.2795,
6.848745,0.5052,-1.4333,-0.1098,3.2517,-2.8410,-4.0989,-0.0181,0.1888,0.2795,
6.881695,0.5052,-1.4333,-0.1098,3.2517,-2.8410,-4.0989,-1.0664,-0.1904,-0.4566,
6.884520,0.5052,-1.4333,-0.1098,3.0116,-2.7376,-3.6193,-1.0664,-0.1904,-0.4566,
6.920660,0.5052,-1.4333,-0.1098,3.0116,-2.7376,-3.6193,-2.0613,-0.4748,-0.7847,
6.923514,0.5052,-1.4333,-0.1098,2.5300,-1.8243,-1.9924,-2.0613,-0.4748,-0.7847,
6.924733,0.3395,-1.2264,-0.1880,2.5300,-1.8243,-1.9924,-2.0613,-0.4748,-0.7847,
6.925684,0.1199,-0.9694,-0.2307,2.5300,-1.8243,-1.9924,-2.0613,-0.4748,-0.7847,
6.927510,-0.1141,-0.9401,-0.2300,2.5300,-1.8243,-1.9924,-2.0613,-0.4748,-0.7847,
6.928651,-0.1647,-1.1546,-0.0673,2.5300,-1.8243,-1.9924,-2.0613,-0.4748,-0.7847,
6.959523,-0.1647,-1.1546,-0.0673,2.5300,-1.8243,-1.9924,-2.5354,-0.6250,-0.4960,
6.962390,-0.1647,-1.1546,-0.0673,2.3003,-1.8320,-0.9519,-2.5354,-0.6250,-0.4960,
6.999705,-0.0206,-1.2611,0.2435,2.3003,-1.8320,-0.9519,-2.5354,-0.6250,-0.4960,
7.002251,0.0163,-1.2059,0.3600,2.3003,-1.8320,-0.9519,-2.5354,-0.6250,-0.4960,
7.003755,-0.0900,-1.1118,0.2862,2.3003,-1.8320,-0.9519,-2.5354,-0.6250,-0.4960,
7.004880,-0.0900,-1.1118,0.2862,2.3003,-1.8320,-0.9519,-2.1604,-0.0519,-0.5078,
7.006795,-0.0900,-1.1118,0.2862,-1.9949,-1.0436,1.4299,-2.1604,-0.0519,-0.5078,
7.038871,-0.0900,-1.1118,0.2862,-1.9949,-1.0436,1.4299,-1.9612,0.2464,-0.4726,
7.041590,-0.0900,-1.1118,0.2862,-2.0346,-1.5201,4.2395,-1.9612,0.2464,-0.4726,
7.078773,-0.0900,-1.1118,0.2862,-2.0346,-1.5201,4.2395,-2.0432,-0.5153,-0.3086,
7.081664,-0.0900,-1.1118,0.2862,-2.0610,-1.7237,4.9630,-2.0432,-0.5153,-0.3086,
7.083049,-0.1860,-1.1382,-0.0485,-2.0610,-1.7237,4.9630,-2.0432,-0.5153,-0.3086,
7.084360,-0.1611,-1.1697,-0.3152,-2.0610,-1.7237,4.9630,-2.0432,-0.5153,-0.3086,
7.085239,-0.0137,-1.0530,-0.1303,-2.0610,-1.7237,4.9630,-2.0432,-0.5153,-0.3086,
7.086532,0.1563,-0.9420,0.0493,-2.0610,-1.7237,4.9630,-2.0432,-0.5153,-0.3086,
7.087843,0.3119,-0.9227,0.0541,-2.0610,-1.7237,4.9630,-2.0432,-0.5153,-0.3086,
7.118124,0.3119,-0.9227,0.0541,-2.0610,-1.7237,4.9630,-1.4062,-0.8786,-0.6207,
7.121063,0.3119,-0.9227,0.0541,-1.3665,-0.9709,2.2493,-1.4062,-0.8786,-0.6207,
7.157520,0.3119,-0.9227,0.0541,-1.3665,-0.9709,2.2493,-0.8778,-1.3260,-1.1118,
7.160082,0.2831,-0.9162,-0.0253,-1.3665,-0.9709,2.2493,-0.8778,-1.3260,-1.1118,
7.161351,0.1712,-0.8824,-0.1117,-1.3665,-0.9709,2.2493,-0.8778,-1.3260,-1.1118,
7.162443,-0.0103,-0.8434,-0.1110,-1.3665,-0.9709,2.2493,-0.8778,-1.3260,-1.1118,
7.163862,-0.1706,-0.7857,-0.0201,-1.3665,-0.9709,2.2493,-0.8778,-1.3260,-1.1118,
7.164944,-0.1706,-0.7857,-0.0201,0.9705,0.2808,3.6088,-0.8778,-1.3260,-1.1118,
7.197946,-0.1706,-0.7857,-0.0201,0.9705,0.2808,3.6088,-0.5838,-1.3952,-0.9775,
7.200493,-0.1706,-0.7857,-0.0201,0.8275,0.1235,3.8429,-0.5838,-1.3952,-0.9775,
7.237053,-0.1706,-0.7857,-0.0201,0.8275,0.1235,3.8429,-0.1204,-0.7305,-0.5014,
7.239521,-0.1706,-0.7857,-0.0201,-2.8985,1.2631,3.8209,-0.1204,-0.7305,-0.5014,
7.241000,-0.1909,-0.7205,0.0331,-2.8985,1.2631,3.8209,-0.1204,-0.7305,-0.5014,
7.242173,-0.1308,-0.6740,0.0282,-2.8985,1.2631,3.8209,-0.1204,-0.7305,-0.5014,
7.243418,-0.0597,-0.6381,-0.0673,-2.8985,1.2631,3.8209,-0.1204,-0.7305,-0.5014,
7.244442,0.0065,-0.6313,-0.2178,-2.8985,1.2631,3.8209,-0.1204,-0.7305,-0.5014,
7.277082,0.0065,-0.6313,-0.2178,-2.8985,1.2631,3.8209,0.2908,-0.1979,-0.1179,
7.280001,0.0065,-0.6313,-0.2178,-2.2559,2.5850,3.1587,0.2908,-0.1979,-0.1179,
7.318050,0.0972,-0.6789,-0.3490,-2.2559,2.5850,3.1587,0.2908,-0.1979,-0.1179,
7.320672,0.1729,-0.7483,-0.4501,-2.2559,2.5850,3.1587,0.2908,-0.1979,-0.1179,
7.321773,0.2398,-0.7842,-0.5141,-2.2559,2.5850,3.1587,0.2908,-0.1979,-0.1179,
7.323003,0.2398,-0.7842,-0.5141,-2.2559,2.5850,3.1587,0.3526,-0.4280,-0.0263,
7.324453,0.2398,-0.7842,-0.5141,0.0671,1.7335,-0.3832,0.3526,-0.4280,-0.0263,
7.355555,0.2398,-0.7842,-0.5141,0.0671,1.7335,-0.3832,0.3536,-0.5388,-0.3267,
7.358709,0.2398,-0.7842,-0.5141,2.2841,-0.0331,-2.4271,0.3536,-0.5388,-0.3267,
7.394731,0.2398,-0.7842,-0.5141,2.2841,-0.0331,-2.4271,0.2887,-0.5004,-0.8529,
7.396372,0.2398,-0.7842,-0.5141,2.0220,-0.0487,-2.4532,0.2887,-0.5004,-0.8529,
7.397480,0.3122,-0.8172,-0.5449,2.0220,-0.0487,-2.4532,0.2887,-0.5004,-0.8529,
7.398337,0.4033,-0.8873,-0.6194,2.0220,-0.0487,-2.4532,0.2887,-0.5004,-0.8529,
7.399108,0.4954,-1.0581,-0.7592,2.0220,-0.0487,-2.4532,0.2887,-0.5004,-0.8529,
7.399844,0.4563,-1.1864,-0.8310,2.0220,-0.0487,-2.4532,0.2887,-0.5004,-0.8529,
7.400590,0.3559,-1.1065,-0.7816,2.0220,-0.0487,-2.4532,0.2887,-0.5004,-0.8529,
7.433873,0.3559,-1.1065,-0.7816,2.0220,-0.0487,-2.4532,-0.2418,-0.5867,-1.1501,
7.435347,0.3559,-1.1065,-0.7816,1.6773,-0.1785,-2.2807,-0.2418,-0.5867,-1.1501,
7.474057,0.3559,-1.1065,-0.7816,1.6773,-0.1785,-2.2807,0.0149,-1.4187,-0.9669,
7.475386,0.3559,-1.1065,-0.7816,1.2377,-1.6686,-3.4046,0.0149,-1.4187,-0.9669,
7.475909,0.3036,-0.9078,-0.7115,1.2377,-1.6686,-3.4046,0.0149,-1.4187,-0.9669,
7.476294,0.2719,-0.7207,-0.5464,1.2377,-1.6686,-3.4046,0.0149,-1.4187,-0.9669,
7.476929,0.1934,-0.5988,-0.3289,1.2377,-1.6686,-3.4046,0.0149,-1.4187,-0.9669,
7.477406,0.1670,-0.7425,-0.2588,1.2377,-1.6686,-3.4046,0.0149,-1.4187,-0.9669,
7.512368,0.1670,-0.7425,-0.2588,1.2377,-1.6686,-3.4046,0.9619,-0.7635,-0.4683,
7.513555,0.1670,-0.7425,-0.2588,-0.3747,2.1252,0.2157,0.9619,-0.7635,-0.4683,
7.552520,0.2078,-1.2423,-0.2163,-0.3747,2.1252,0.2157,0.9619,-0.7635,-0.4683,
7.553868,0.2394,-1.8619,-0.1362,-0.3747,2.1252,0.2157,0.9619,-0.7635,-0.4683,
7.554469,-0.3694,-1.7527,-0.8442,-0.3747,2.1252,0.2157,0.9619,-0.7635,-0.4683,
7.554965,-0.3694,-1.7527,-0.8442,-0.3747,2.1252,0.2157,0.5869,1.7484,-0.1584,
7.555426,-0.3694,-1.7527,-0.8442,-2.4564,-6.8175,-0.3705,0.5869,1.7484,-0.1584,
7.593753,-0.3694,-1.7527,-0.8442,-2.4564,-6.8175,-0.3705,-0.1939,0.9132,0.9122,
7.596092,-0.3694,-1.7527,-0.8442,-6.5966,2.4666,1.8171,-0.1939,0.9132,0.9122,
7.633060,-0.3694,-1.7527,-0.8442,-6.5966,2.4666,1.8171,0.5869,1.1444,1.5791,
7.634917,-0.3694,-1.7527,-0.8442,-6.0708,2.6361,1.4784,0.5869,1.1444,1.5791,
7.636552,-0.8844,-0.7307,-0.5759,-6.0708,2.6361,1.4784,0.5869,1.1444,1.5791,
7.637898,-0.5410,-0.5321,-0.1750,-6.0708,2.6361,1.4784,0.5869,1.1444,1.5791,
7.639310,0.1397,-0.7600,0.2415,-6.0708,2.6361,1.4784,0.5869,1.1444,1.5791,
7.640489,0.5474,-1.0041,0.4250,-6.0708,2.6361,1.4784,0.5869,1.1444,1.5791,
7.641743,0.5914,-1.1021,0.2493,-6.0708,2.6361,1.4784,0.5869,1.1444,1.5791,
7.672605,0.5914,-1.1021,0.2493,-6.0708,2.6361,1.4784,1.1515,1.5034,1.0017,
7.674929,0.5914,-1.1021,0.2493,-5.7743,2.7899,0.9318,1.1515,1.5034,1.0017,
7.712251,0.5914,-1.1021,0.2493,-5.7743,2.7899,0.9318,1.0088,0.1388,0.4755,
7.714707,0.5914,-1.1021,0.2493,3.8062,-0.3890,3.9062,1.0088,0.1388,0.4755,
7.716027,0.4780,-0.9298,-0.1345,3.8062,-0.3890,3.9062,1.0088,0.1388,0.4755,
7.716922,0.4077,-0.8258,-0.4291,3.8062,-0.3890,3.9062,1.0088,0.1388,0.4755,
7.718199,0.2003,-0.9494,-0.3155,3.8062,-0.3890,3.9062,1.0088,0.1388,0.4755,
7.719448,0.0048,-1.0337,-0.1237,3.8062,-0.3890,3.9062,1.0088,0.1388,0.4755,
7.750864,0.0048,-1.0337,-0.1237,3.8062,-0.3890,3.9062,0.7361,-0.0114,0.2390,
7.752397,0.0048,-1.0337,-0.1237,0.6071,0.4181,-0.9560,0.7361,-0.0114,0.2390,
7.791378,-0.0699,-0.9535,-0.0988,0.6071,0.4181,-0.9560,0.7361,-0.0114,0.2390,
7.793680,-0.0809,-0.8609,-0.1242,0.6071,0.4181,-0.9560,0.7361,-0.0114,0.2390,
7.794794,0.0122,-0.8600,-0.1132,0.6071,0.4181,-0.9560,0.7361,-0.0114,0.2390,
7.796047,0.0122,-0.8600,-0.1132,0.6071,0.4181,-0.9560,0.6988,0.0642,0.4595,
7.797045,0.0122,-0.8600,-0.1132,-1.6487,0.9137,0.5036,0.6988,0.0642,0.4595,
7.831591,0.0122,-0.8600,-0.1132,-1.6487,0.9137,0.5036,0.7595,-0.0658,0.6971,
7.834234,0.0122,-0.8600,-0.1132,1.3578,1.0858,1.2477,0.7595,-0.0658,0.6971,
7.870828,0.0122,-0.8600,-0.1132,1.3578,1.0858,1.2477,1.0354,-0.1212,0.4531,
7.874478,0.0122,-0.8600,-0.1132,1.5121,1.1270,0.8382,1.0354,-0.1212,0.4531,
7.876131,0.1600,-0.8766,-0.0404,1.5121,1.1270,0.8382,1.0354,-0.1212,0.4531,
7.877541,0.2447,-0.8766,0.0033,1.5121,1.1270,0.8382,1.0354,-0.1212,0.4531,
7.878661,0.3009,-0.8854,0.0236,1.5121,1.1270,0.8382,1.0354,-0.1212,0.4531,
7.879635,0.2877,-0.9704,-0.0705,1.5121,1.1270,0.8382,1.0354,-0.1212,0.4531,
7.880823,0.2665,-1.0908,-0.1555,1.5121,1.1270,0.8382,1.0354,-0.1212,0.4531,
7.909668,0.2665,-1.0908,-0.1555,1.5121,1.1270,0.8382,1.1632,-0.2319,0.1825,
7.911505,0.2665,-1.0908,-0.1555,1.5622,1.1435,0.3884,1.1632,-0.2319,0.1825,
7.949755,0.2665,-1.0908,-0.1555,1.5622,1.1435,0.3884,0.8969,-0.2682,-0.0039,
7.952425,0.2665,-1.0908,-0.1555,1.9383,-0.2861,-1.3441,0.8969,-0.2682,-0.0039,
7.954084,0.2763,-1.0192,-0.2209,1.9383,-0.2861,-1.3441,0.8969,-0.2682,-0.0039,
7.955380,0.1470,-0.9445,-0.2549,1.9383,-0.2861,-1.3441,0.8969,-0.2682,-0.0039,
7.956886,0.0517,-0.9264,-0.1606,1.9383,-0.2861,-1.3441,0.8969,-0.2682,-0.0039,
7.957858,0.0273,-0.9357,-0.0165,1.9383,-0.2861,-1.3441,0.8969,-0.2682,-0.0039,
7.989565,0.0273,-0.9357,-0.0165,1.9383,-0.2861,-1.3441,0.7766,0.0503,0.0600,
7.992473,0.0273,-0.9357,-0.0165,-0.0123,0.5991,-1.5711,0.7766,0.0503,0.0600,
8.030526,-0.0399,-0.9257,0.0896,-0.0123,0.5991,-1.5711,0.7766,0.0503,0.0600,
8.033029,-0.0697,-0.9396,0.0986,-0.0123,0.5991,-1.5711,0.7766,0.0503,0.0600,
8.034489,-0.0348,-1.0119,0.0578,-0.0123,0.5991,-1.5711,0.7766,0.0503,0.0600,
8.038045,-0.0348,-1.0119,0.0578,-0.0123,0.5991,-1.5711,1.1387,0.1569,0.3189,
8.039336,-0.0348,-1.0119,0.0578,-1.0780,0.3539,0.1952,1.1387,0.1569,0.3189,
8.069942,-0.0348,-1.0119,0.0578,-1.0780,0.3539,0.1952,1.2879,0.1526,0.5650,
8.072627,-0.0348,-1.0119,0.0578,0.0806,-0.4698,-1.9704,1.2879,0.1526,0.5650,
8.109150,-0.0348,-1.0119,0.0578,0.0806,-0.4698,-1.9704,0.8703,0.2964,0.5831,
8.111416,0.0026,-1.0444,-0.0150,0.0806,-0.4698,-1.9704,0.8703,0.2964,0.5831,
8.112368,0.0442,-1.0197,-0.1152,0.0806,-0.4698,-1.9704,0.8703,0.2964,0.5831,
8.115134,0.0957,-1.0576,-0.1440,0.0806,-0.4698,-1.9704,0.8703,0.2964,0.5831,
8.116657,0.1336,-1.0840,-0.1401,0.0806,-0.4698,-1.9704,0.8703,0.2964,0.5831,
8.118379,0.1785,-1.1336,-0.2131,0.0806,-0.4698,-1.9704,0.8703,0.2964,0.5831,
8.119687,0.1785,-1.1336,-0.2131,0.3145,-0.4981,-2.2697,0.8703,0.2964,0.5831,
8.147865,0.1785,-1.1336,-0.2131,0.3145,-0.4981,-2.2697,0.4985,0.3571,0.4148,
8.149530,0.1785,-1.1336,-0.2131,0.4864,-0.5173,-2.4207,0.4985,0.3571,0.4148,
8.188399,0.1785,-1.1336,-0.2131,0.4864,-0.5173,-2.4207,0.2279,0.3710,0.2997,
8.191227,0.1785,-1.1336,-0.2131,1.9458,-1.4662,-3.4577,0.2279,0.3710,0.2997,
8.192512,0.2450,-1.1976,-0.2300,1.9458,-1.4662,-3.4577,0.2279,0.3710,0.2997,
8.193735,0.2753,-1.2032,-0.2351,1.9458,-1.4662,-3.4577,0.2279,0.3710,0.2997,
8.195107,0.3564,-1.2528,-0.3130,1.9458,-1.4662,-3.4577,0.2279,0.3710,0.2997,
8.196240,0.4842,-1.3310,-0.2551,1.9458,-1.4662,-3.4577,0.2279,0.3710,0.2997,
8.227507,0.4842,-1.3310,-0.2551,1.9458,-1.4662,-3.4577,-0.5486,-0.1712,-0.1658,
8.230479,0.4842,-1.3310,-0.2551,3.6360,-2.6046,-3.9003,-0.5486,-0.1712,-0.1658,
8.267053,0.4842,-1.3310,-0.2551,3.6360,-2.6046,-3.9003,-1.8099,-0.6762,-0.6963,
8.270593,0.4842,-1.3310,-0.2551,2.7137,-2.5451,-3.0611,-1.8099,-0.6762,-0.6963,
8.272514,0.4565,-1.4287,-0.2102,2.7137,-2.5451,-3.0611,-1.8099,-0.6762,-0.6963,
8.273967,0.3422,-1.3149,-0.2906,2.7137,-2.5451,-3.0611,-1.8099,-0.6762,-0.6963,
8.275113,0.1392,-1.0574,-0.2781,2.7137,-2.5451,-3.0611,-1.8099,-0.6762,-0.6963,
8.276228,-0.0970,-0.9264,-0.1306,2.7137,-2.5451,-3.0611,-1.8099,-0.6762,-0.6963,
8.306253,-0.0970,-0.9264,-0.1306,2.7137,-2.5451,-3.0611,-2.7782,-0.9404,-0.8114,
8.308135,-0.0970,-0.9264,-0.1306,2.3574,-2.5227,-1.9220,-2.7782,-0.9404,-0.8114,
8.346972,-0.0970,-0.9264,-0.1306,2.3574,-2.5227,-1.9220,-2.5194,0.0365,-0.6622,
8.349371,-0.0970,-0.9264,-0.1306,-2.8130,-1.2054,2.7121,-2.5194,0.0365,-0.6622,
8.351438,-0.2456,-1.0583,0.1321,-2.8130,-1.2054,2.7121,-2.5194,0.0365,-0.6622,
8.353362,-0.2363,-1.3784,0.3524,-2.8130,-1.2054,2.7121,-2.5194,0.0365,-0.6622,
8.354905,-0.2270,-1.4548,0.4086,-2.8130,-1.2054,2.7121,-2.5194,0.0365,-0.6622,
8.356182,-0.2771,-1.2479,0.2002,-2.8130,-1.2054,2.7121,-2.5194,0.0365,-0.6622,
8.386148,-0.2771,-1.2479,0.2002,-2.8130,-1.2054,2.7121,-1.9921,0.8557,-0.4076,
8.388533,-0.2771,-1.2479,0.2002,-2.9871,-1.3512,3.3851,-1.9921,0.8557,-0.4076,
8.429359,-0.2771,-1.2479,0.2002,-2.9871,-1.3512,3.3851,-2.0240,-0.3640,0.0259,
8.431846,-0.2610,-1.1546,-0.1474,-2.9871,-1.3512,3.3851,-2.0240,-0.3640,0.0259,
8.432864,-0.0426,-1.0869,-0.2544,-2.9871,-1.3512,3.3851,-2.0240,-0.3640,0.0259,
8.434286,0.3144,-0.9511,-0.1679,-2.9871,-1.3512,3.3851,-2.0240,-0.3640,0.0259,
8.435616,0.4106,-0.9162,-0.1308,-2.9871,-1.3512,3.3851,-2.0240,-0.3640,0.0259,
8.437601,0.4106,-0.9162,-0.1308,-3.4858,-3.1215,4.4410,-2.0240,-0.3640,0.0259,
8.465357,0.4106,-0.9162,-0.1308,-3.4858,-3.1215,4.4410,-1.8504,-1.0671,-0.3149,
8.468565,0.4106,-0.9162,-0.1308,1.2465,-0.4177,1.8228,-1.8504,-1.0671,-0.3149,
8.496100,0.3889,-0.9418,0.0317,1.2465,-0.4177,1.8228,-1.8504,-1.0671,-0.3149,
8.498685,0.2442,-0.9184,0.0593,1.2465,-0.4177,1.8228,-1.8504,-1.0671,-0.3149,
8.501960,0.0102,-0.7935,-0.0499,1.2465,-0.4177,1.8228,-1.8504,-1.0671,-0.3149,
8.507259,0.0102,-0.7935,-0.0499,1.2465,-0.4177,1.8228,-1.1228,-1.3601,-0.9051,
8.510334,0.0102,-0.7935,-0.0499,0.9849,0.3492,4.1555,-1.1228,-1.3601,-0.9051,
8.544530,0.0102,-0.7935,-0.0499,0.9849,0.3492,4.1555,-0.6999,-1.5827,-0.8625,
8.547053,0.0102,-0.7935,-0.0499,-2.6233,2.3043,4.6669,-0.6999,-1.5827,-0.8625,
8.582783,-0.1269,-0.7144,-0.0431,-2.6233,2.3043,4.6669,-0.6999,-1.5827,-0.8625,
8.585303,-0.1796,-0.6589,0.0651,-2.6233,2.3043,4.6669,-0.6999,-1.5827,-0.8625,
8.588835,-0.1554,-0.6225,0.1018,-2.6233,2.3043,4.6669,-0.6999,-1.5827,-0.8625,
8.592159,-0.1554,-0.6225,0.1018,-2.6233,2.3043,4.6669,-0.2035,-1.0479,-0.3341,
8.593903,-0.1554,-0.6225,0.1018,-2.5172,2.2174,4.7035,-0.2035,-1.0479,-0.3341,
8.624011,-0.1554,-0.6225,0.1018,-2.5172,2.2174,4.7035,0.3760,-0.5015,0.0068,
8.626421,-0.1554,-0.6225,0.1018,-1.4225,2.3512,3.2294,0.3760,-0.5015,0.0068,
8.663949,-0.1159,-0.6117,0.0248,-1.4225,2.3512,3.2294,0.3760,-0.5015,0.0068,
8.666828,-0.0763,-0.6401,-0.0761,-1.4225,2.3512,3.2294,0.3760,-0.5015,0.0068,
8.667851,0.0312,-0.7102,-0.2253,-1.4225,2.3512,3.2294,0.3760,-0.5015,0.0068,
8.669221,0.1236,-0.7991,-0.4440,-1.4225,2.3512,3.2294,0.3760,-0.5015,0.0068,
8.672021,0.1707,-0.8763,-0.6746,-1.4225,2.3512,3.2294,0.3760,-0.5015,0.0068,
8.673573,0.2318,-0.9296,-0.8019,-1.4225,2.3512,3.2294,0.3760,-0.5015,0.0068,
8.674600,0.2318,-0.9296,-0.8019,-1.4225,2.3512,3.2294,0.4740,-0.4567,-0.0273,
8.675885,0.2318,-0.9296,-0.8019,0.8709,0.3205,-2.2522,0.4740,-0.4567,-0.0273,
8.703245,0.2318,-0.9296,-0.8019,0.8709,0.3205,-2.2522,-0.0128,-0.3683,-0.2755,
8.706593,0.2318,-0.9296,-0.8019,0.8192,0.3039,-2.1980,-0.0128,-0.3683,-0.2755,
8.742677,0.2318,-0.9296,-0.8019,0.8192,0.3039,-2.1980,-0.1982,-0.3609,-0.6771,
8.745266,0.2318,-0.9296,-0.8019,2.1319,-0.8443,-3.1180,-0.1982,-0.3609,-0.6771,
8.748975,0.3153,-0.9384,-0.7709,2.1319,-0.8443,-3.1180,-0.1982,-0.3609,-0.6771,
8.750548,0.3298,-0.9540,-0.7269,2.1319,-0.8443,-3.1180,-0.1982,-0.3609,-0.6771,
8.751842,0.3481,-1.0505,-0.7460,2.1319,-0.8443,-3.1180,-0.1982,-0.3609,-0.6771,
8.753230,0.3684,-1.1162,-0.7699,2.1319,-0.8443,-3.1180,-0.1982,-0.3609,-0.6771,
8.782289,0.3684,-1.1162,-0.7699,2.1319,-0.8443,-3.1180,-0.3249,-0.9063,-1.0532,
8.785300,0.3684,-1.1162,-0.7699,1.8903,-0.9346,-2.9124,-0.3249,-0.9063,-1.0532,
8.809590,0.3544,-1.0532,-0.7704,1.8903,-0.9346,-2.9124,-0.3249,-0.9063,-1.0532,
8.812357,0.3021,-0.8587,-0.6670,1.8903,-0.9346,-2.9124,-0.3249,-0.9063,-1.0532,
8.814071,0.2140,-0.6357,-0.4591,1.8903,-0.9346,-2.9124,-0.3249,-0.9063,-1.0532,
8.823920,0.2140,-0.6357,-0.4591,1.8903,-0.9346,-2.9124,-0.3505,-1.4677,-1.1661,
8.827065,0.2140,-0.6357,-0.4591,1.8279,-1.3195,-2.5475,-0.3505,-1.4677,-1.1661,
8.861308,0.2140,-0.6357,-0.4591,1.8279,-1.3195,-2.5475,0.4389,-1.2525,-0.8646,
8.863213,0.2140,-0.6357,-0.4591,-0.3478,3.1077,1.4140,0.4389,-1.2525,-0.8646,
8.897372,0.0889,-0.5101,-0.3091,-0.3478,3.1077,1.4140,0.4389,-1.2525,-0.8646,
8.898666,0.0735,-0.5194,-0.1970,-0.3478,3.1077,1.4140,0.4389,-1.2525,-0.8646,
8.899295,0.1177,-0.7991,-0.2082,-0.3478,3.1077,1.4140,0.4389,-1.2525,-0.8646,
8.899680,0.1854,-1.4661,-0.3736,-0.3478,3.1077,1.4140,0.4389,-1.2525,-0.8646,
8.900366,0.1854,-1.4661,-0.3736,-0.3478,3.1077,1.4140,1.3795,0.1814,-0.6526,
8.900847,0.1854,-1.4661,-0.3736,-0.5901,3.2461,0.9126,1.3795,0.1814,-0.6526,
8.939700,0.1854,-1.4661,-0.3736,-0.5901,3.2461,0.9126,0.4090,1.6898,-0.2510,
8.941120,0.1854,-1.4661,-0.3736,-0.9179,-5.3672,-0.7749,0.4090,1.6898,-0.2510,
8.980240,0.1854,-1.4661,-0.3736,-0.9179,-5.3672,-0.7749,-0.0757,0.5137,0.8142,
8.982649,0.1854,-1.4661,-0.3736,-0.6972,-5.2231,-0.7785,-0.0757,0.5137,0.8142,
8.984084,0.0745,-2.0783,-0.8195,-0.6972,-5.2231,-0.7785,-0.0757,0.5137,0.8142,
8.985308,-0.4029,-1.4534,-1.0550,-0.6972,-5.2231,-0.7785,-0.0757,0.5137,0.8142,
8.986494,-0.8265,-0.3528,-0.1208,-0.6972,-5.2231,-0.7785,-0.0757,0.5137,0.8142,
8.988674,-0.5964,-0.4569,0.1736,-0.6972,-5.2231,-0.7785,-0.0757,0.5137,0.8142,
8.990019,0.0598,-0.9648,0.1719,-0.6972,-5.2231,-0.7785,-0.0757,0.5137,0.8142,
9.020364,0.0598,-0.9648,0.1719,-0.6972,-5.2231,-0.7785,1.0599,1.7058,1.4385,
9.022743,0.0598,-0.9648,0.1719,-7.4907,1.7936,0.0225,1.0599,1.7058,1.4385,
9.059454,0.0598,-0.9648,0.1719,-7.4907,1.7936,0.0225,1.3358,1.6514,0.6363,
9.061896,0.0598,-0.9648,0.1719,2.7614,-1.5377,4.7778,1.3358,1.6514,0.6363,
9.063274,0.5863,-1.2599,0.3070,2.7614,-1.5377,4.7778,1.3358,1.6514,0.6363,
9.064548,0.6696,-1.1263,0.1797,2.7614,-1.5377,4.7778,1.3358,1.6514,0.6363,
9.065746,0.4114,-0.9052,-0.2263,2.7614,-1.5377,4.7778,1.3358,1.6514,0.6363,
9.066917,0.2213,-0.9188,-0.3301,2.7614,-1.5377,4.7778,1.3358,1.6514,0.6363,
9.099415,0.2213,-0.9188,-0.3301,2.7614,-1.5377,4.7778,1.1600,0.4818,0.2677,
9.101779,0.2213,-0.9188,-0.3301,2.7676,-1.3883,4.2412,1.1600,0.4818,0.2677,
9.139233,0.2213,-0.9188,-0.3301,2.7676,-1.3883,4.2412,1.0897,0.1771,0.2550,
9.141638,0.2213,-0.9188,-0.3301,0.9037,0.2369,-0.7274,1.0897,0.1771,0.2550,
9.142993,0.0916,-1.0576,-0.1794,0.9037,0.2369,-0.7274,1.0897,0.1771,0.2550,
9.144078,0.0559,-1.0273,-0.1200,0.9037,0.2369,-0.7274,1.0897,0.1771,0.2550,
9.145184,0.0039,-0.8927,-0.1306,0.9037,0.2369,-0.7274,1.0897,0.1771,0.2550,
9.146276,-0.0274,-0.8578,-0.1919,0.9037,0.2369,-0.7274,1.0897,0.1771,0.2550,
9.178049,-0.0274,-0.8578,-0.1919,0.9037,0.2369,-0.7274,1.0620,0.0514,0.3764,
9.180329,-0.0274,-0.8578,-0.1919,-1.1948,0.6477,-0.1766,1.0620,0.0514,0.3764,
9.210189,0.0019,-0.8981,-0.1872,-1.1948,0.6477,-0.1766,1.0620,0.0514,0.3764,
9.212281,0.0884,-0.9110,-0.0783,-1.1948,0.6477,-0.1766,1.0620,0.0514,0.3764,
9.213681,0.2391,-0.9025,0.0402,-1.1948,0.6477,-0.1766,1.0620,0.0514,0.3764,
9.218031,0.2391,-0.9025,0.0402,-1.1948,0.6477,-0.1766,0.8831,-0.0423,0.5788,
9.219408,0.2391,-0.9025,0.0402,0.0011,0.9142,0.1903,0.8831,-0.0423,0.5788,
9.258234,0.2391,-0.9025,0.0402,0.0011,0.9142,0.1903,1.1867,0.1377,0.2571,
9.260872,0.2391,-0.9025,0.0402,1.5867,0.8040,-0.1557,1.1867,0.1377,0.2571,
9.296969,0.2391,-0.9025,0.0402,1.5867,0.8040,-0.1557,1.1505,0.2048,0.0014,
9.299311,0.2391,-0.9025,0.0402,1.5590,0.8012,-0.6010,1.1505,0.2048,0.0014,
9.300877,0.3342,-0.9096,0.0686,1.5590,0.8012,-0.6010,1.1505,0.2048,0.0014,
9.301969,0.3051,-0.9157,-0.0433,1.5590,0.8012,-0.6010,1.1505,0.2048,0.0014,
9.303252,0.1543,-0.9291,-0.2146,1.5590,0.8012,-0.6010,1.1505,0.2048,0.0014,
9.304490,0.0749,-0.9484,-0.2793,1.5590,0.8012,-0.6010,1.1505,0.2048,0.0014,
9.305508,0.0664,-0.9311,-0.1711,1.5590,0.8012,-0.6010,1.1505,0.2048,0.0014,
9.336823,0.0664,-0.9311,-0.1711,1.5590,0.8012,-0.6010,0.6722,0.1526,0.1207,
9.339136,0.0664,-0.9311,-0.1711,1.5798,0.7895,-0.8536,0.6722,0.1526,0.1207,
9.376342,0.0664,-0.9311,-0.1711,1.5798,0.7895,-0.8536,0.8554,0.2698,0.2550,
9.378192,0.0664,-0.9311,-0.1711,-0.1985,0.6492,-1.9731,0.8554,0.2698,0.2550,
9.379185,0.0752,-0.9132,0.0129,-0.1985,0.6492,-1.9731,0.8554,0.2698,0.2550,
9.380073,0.0459,-0.9220,0.1528,-0.1985,0.6492,-1.9731,0.8554,0.2698,0.2550,
9.380970,0.0031,-0.9435,0.1631,-0.1985,0.6492,-1.9731,0.8554,0.2698,0.2550,
9.381656,-0.0289,-0.9824,0.1162,-0.1985,0.6492,-1.9731,0.8554,0.2698,0.2550,
9.417989,-0.0289,-0.9824,0.1162,-0.1985,0.6492,-1.9731,1.2687,0.3944,0.4584,
9.420476,-0.0289,-0.9824,0.1162,-0.6395,0.4362,0.3583,1.2687,0.3944,0.4584,
9.456213,-0.0289,-0.9824,0.1162,-0.6395,0.4362,0.3583,1.1324,0.3923,0.7237,
9.459514,-0.0289,-0.9824,0.1162,-0.2914,-0.4357,-2.0925,1.1324,0.3923,0.7237,
9.461138,-0.0374,-0.9973,0.0021,-0.2914,-0.4357,-2.0925,1.1324,0.3923,0.7237,
9.462139,-0.0186,-1.0241,-0.1044,-0.2914,-0.4357,-2.0925,1.1324,0.3923,0.7237,
9.463362,0.0898,-1.0830,-0.0905,-0.2914,-0.4357,-2.0925,1.1324,0.3923,0.7237,
9.464644,0.2264,-1.0943,-0.0201,-0.2914,-0.4357,-2.0925,1.1324,0.3923,0.7237,
9.496259,0.2264,-1.0943,-0.0201,-0.2914,-0.4357,-2.0925,0.8181,0.5393,0.6832,
9.498508,0.2264,-1.0943,-0.0201,0.0056,-0.4734,-2.3714,0.8181,0.5393,0.6832,
9.535952,0.2264,-1.0943,-0.0201,0.0056,-0.4734,-2.3714,0.7723,0.6011,0.3317,
9.540130,0.2264,-1.0943,-0.0201,2.9196,-1.6537,-2.2971,0.7723,0.6011,0.3317,
9.541863,0.3097,-1.1333,-0.0206,2.9196,-1.6537,-2.2971,0.7723,0.6011,0.3317,
9.543011,0.3522,-1.2291,-0.0509,2.9196,-1.6537,-2.2971,0.7723,0.6011,0.3317,
9.544057,0.3454,-1.3036,-0.0924,2.9196,-1.6537,-2.2971,0.7723,0.6011,0.3317,
9.545194,0.3144,-1.3989,-0.1721,2.9196,-1.6537,-2.2971,0.7723,0.6011,0.3317,
9.575676,0.3144,-1.3989,-0.1721,2.8721,-1.6544,-2.3907,0.7723,0.6011,0.3317,
9.578500,0.3144,-1.3989,-0.1721,2.8721,-1.6544,-2.3907,0.3526,0.3252,-0.0667,
9.614632,0.3144,-1.3989,-0.1721,2.8721,-1.6544,-2.3907,-0.7457,0.1601,-0.3661,
9.617237,0.3144,-1.3989,-0.1721,2.9266,-3.8748,-3.3003,-0.7457,0.1601,-0.3661,
9.621834,0.2995,-1.4712,-0.2100,2.9266,-3.8748,-3.3003,-0.7457,0.1601,-0.3661,
9.625492,0.2907,-1.4639,-0.2972,2.9266,-3.8748,-3.3003,-0.7457,0.1601,-0.3661,
9.627072,0.2132,-1.3241,-0.4379,2.9266,-3.8748,-3.3003,-0.7457,0.1601,-0.3661,
9.628265,0.0828,-1.0886,-0.4345,2.9266,-3.8748,-3.3003,-0.7457,0.1601,-0.3661,
9.654375,0.0828,-1.0886,-0.4345,2.9266,-3.8748,-3.3003,-2.2328,-0.2362,-0.4119,
9.657183,0.0828,-1.0886,-0.4345,1.5121,-2.7462,-4.6208,-2.2328,-0.2362,-0.4119,
9.693275,0.0828,-1.0886,-0.4345,1.5121,-2.7462,-4.6208,-2.9135,-0.6847,-0.5706,
9.695317,0.0828,-1.0886,-0.4345,-1.0312,-0.4693,0.2684,-2.9135,-0.6847,-0.5706,
9.696968,0.0280,-0.9828,-0.2573,-1.0312,-0.4693,0.2684,-2.9135,-0.6847,-0.5706,
9.698155,-0.0338,-1.0515,-0.0297,-1.0312,-0.4693,0.2684,-2.9135,-0.6847,-0.5706,
9.699088,-0.1212,-1.1519,0.2599,-1.0312,-0.4693,0.2684,-2.9135,-0.6847,-0.5706,
9.700247,-0.2087,-1.1900,0.4013,-1.0312,-0.4693,0.2684,-2.9135,-0.6847,-0.5706,
9.732579,-0.2087,-1.1900,0.4013,-1.0312,-0.4693,0.2684,-2.3926,0.4349,-0.6271,
9.735114,-0.2087,-1.1900,0.4013,-1.2735,-0.5565,1.1736,-2.3926,0.4349,-0.6271,
9.773604,-0.2820,-1.1561,0.3217,-1.2735,-0.5565,1.1736,-2.3926,0.4349,-0.6271,
9.776246,-0.3142,-1.1441,0.0370,-1.2735,-0.5565,1.1736,-2.3926,0.4349,-0.6271,
9.778205,-0.3150,-1.1719,-0.2400,-1.2735,-0.5565,1.1736,-2.3926,0.4349,-0.6271,
9.779489,-0.3150,-1.1719,-0.2400,-1.2735,-0.5565,1.1736,-2.1859,0.8301,-0.3884,
9.780674,-0.3150,-1.1719,-0.2400,-3.6334,-1.6803,4.4836,-2.1859,0.8301,-0.3884,
9.813329,-0.3150,-1.1719,-0.2400,-2.6628,-1.0254,1.0515,-2.1859,0.8301,-0.3884,
9.815971,-0.3150,-1.1719,-0.2400,-2.6628,-1.0254,1.0515,-2.3340,0.1696,-0.1424,
9.852743,-0.3150,-1.1719,-0.2400,-2.6628,-1.0254,1.0515,-2.0070,0.1803,-0.3714,
9.855323,-0.3150,-1.1719,-0.2400,-2.7767,-1.2776,1.7597,-2.0070,0.1803,-0.3714,
9.857215,-0.1877,-1.0850,-0.1960,-2.7767,-1.2776,1.7597,-2.0070,0.1803,-0.3714,
9.858417,0.0021,-0.9672,-0.1191,-2.7767,-1.2776,1.7597,-2.0070,0.1803,-0.3714,
9.859988,0.1761,-0.9552,-0.0900,-2.7767,-1.2776,1.7597,-2.0070,0.1803,-0.3714,
9.860983,0.2912,-0.9853,-0.0152,-2.7767,-1.2776,1.7597,-2.0070,0.1803,-0.3714,
9.862121,0.2907,-0.9574,-0.0959,-2.7767,-1.2776,1.7597,-2.0070,0.1803,-0.3714,
9.891700,0.2907,-0.9574,-0.0959,-2.7767,-1.2776,1.7597,-1.5170,-0.6549,-0.9498,
9.894318,0.2907,-0.9574,-0.0959,1.0757,-0.4837,3.4393,-1.5170,-0.6549,-0.9498,
9.932007,0.2907,-0.9574,-0.0959,1.0757,-0.4837,3.4393,-1.3082,-1.1928,-0.7411,
9.934841,0.2907,-0.9574,-0.0959,-2.6708,1.0270,3.4508,-1.3082,-1.1928,-0.7411,
9.936178,0.1018,-0.8663,-0.2231,-2.6708,1.0270,3.4508,-1.3082,-1.1928,-0.7411,
9.937476,-0.1923,-0.7742,-0.0978,-2.6708,1.0270,3.4508,-1.3082,-1.1928,-0.7411,
9.938672,-0.2962,-0.7075,-0.0201,-2.6708,1.0270,3.4508,-1.3082,-1.1928,-0.7411,
9.939648,-0.2292,-0.6645,-0.0375,-2.6708,1.0270,3.4508,-1.3082,-1.1928,-0.7411,
9.970925,-0.2292,-0.6645,-0.0375,-2.4668,0.8527,3.7243,-1.3082,-1.1928,-0.7411,
9.972771,-0.2292,-0.6645,-0.0375,-2.4668,0.8527,3.7243,-0.8373,-0.9521,-0.0476,
9.998359,-0.0997,-0.6245,-0.0832,-2.4668,0.8527,3.7243,-0.8373,-0.9521,-0.0476,
10.000894,-0.0157,-0.6039,-0.1560,-2.4668,0.8527,3.7243,-0.8373,-0.9521,-0.0476,
10.002219,0.0444,-0.5661,-0.2366,-2.4668,0.8527,3.7243,-0.8373,-0.9521,-0.0476,
10.012734,0.0444,-0.5661,-0.2366,-2.1391,2.2695,3.9583,-0.8373,-0.9521,-0.0476,
10.015013,0.0444,-0.5661,-0.2366,-2.1391,2.2695,3.9583,-0.1992,-0.5185,0.1591,
10.050559,0.0444,-0.5661,-0.2366,-2.1391,2.2695,3.9583,0.4144,-0.1883,0.1101,
10.052925,0.0444,-0.5661,-0.2366,0.5424,2.5802,0.7606,0.4144,-0.1883,0.1101,
10.086717,0.1350,-0.5729,-0.3822,0.5424,2.5802,0.7606,0.4144,-0.1883,0.1101,
10.089041,0.2772,-0.6709,-0.5923,0.5424,2.5802,0.7606,0.4144,-0.1883,0.1101,
10.090509,0.4478,-0.8128,-0.8513,0.5424,2.5802,0.7606,0.4144,-0.1883,0.1101,
10.091939,0.5333,-0.9174,-0.9793,0.5424,2.5802,0.7606,0.4144,-0.1883,0.1101,
10.093376,0.5333,-0.9174,-0.9793,0.5424,2.5802,0.7606,0.5390,-0.1222,-0.3235,
10.095235,0.5333,-0.9174,-0.9793,0.4477,2.6220,0.5732,0.5390,-0.1222,-0.3235,
10.130649,0.5333,-0.9174,-0.9793,0.4477,2.6220,0.5732,0.2194,-0.3055,-0.8540,
10.132346,0.5333,-0.9174,-0.9793,3.3635,-0.2008,-4.6483,0.2194,-0.3055,-0.8540,
10.167869,0.5333,-0.9174,-0.9793,3.3635,-0.2008,-4.6483,0.1992,-0.4834,-0.8039,
10.169509,0.5333,-0.9174,-0.9793,3.1255,-0.2072,-4.6100,0.1992,-0.4834,-0.8039,
10.170798,0.4575,-0.9447,-0.9846,3.1255,-0.2072,-4.6100,0.1992,-0.4834,-0.8039,
10.171595,0.2948,-0.8937,-0.9504,3.1255,-0.2072,-4.6100,0.1992,-0.4834,-0.8039,
10.172185,0.1223,-0.7911,-0.8576,3.1255,-0.2072,-4.6100,0.1992,-0.4834,-0.8039,
10.172795,-0.0216,-0.7366,-0.7047,3.1255,-0.2072,-4.6100,0.1992,-0.4834,-0.8039,
10.173329,0.0405,-0.9924,-0.8129,3.1255,-0.2072,-4.6100,0.1992,-0.4834,-0.8039,
10.207625,0.0405,-0.9924,-0.8129,3.1255,-0.2072,-4.6100,0.2812,-0.1851,-0.6686,
10.208921,0.0405,-0.9924,-0.8129,-0.4663,0.6173,-3.6433,0.2812,-0.1851,-0.6686,
10.247757,0.4973,-1.7185,-0.7494,-0.4663,0.6173,-3.6433,0.2812,-0.1851,-0.6686,
10.249941,0.3273,-1.7385,-0.3074,-0.4663,0.6173,-3.6433,0.2812,-0.1851,-0.6686,
10.251208,-1.0371,-0.3897,-0.0450,-0.4663,0.6173,-3.6433,0.2812,-0.1851,-0.6686,
10.252319,-1.0371,-0.3897,-0.0450,-0.4663,0.6173,-3.6433,-0.0107,1.2818,-0.5067,
10.253690,-1.0371,-0.3897,-0.0450,0.6566,-5.9472,-1.6124,-0.0107,1.2818,-0.5067,
10.287761,-1.0371,-0.3897,-0.0450,0.6566,-5.9472,-1.6124,0.6040,1.3329,0.8568,
10.290058,-1.0371,-0.3897,-0.0450,-8.7359,2.5442,3.2868,0.6040,1.3329,0.8568,
10.328052,-1.0371,-0.3897,-0.0450,-8.7359,2.5442,3.2868,1.2847,2.5686,1.0848,
10.330207,-1.0371,-0.3897,-0.0450,-8.5956,2.7745,2.5921,1.2847,2.5686,1.0848,
10.331511,-1.0640,-0.3762,-0.1601,-8.5956,2.7745,2.5921,1.2847,2.5686,1.0848,
10.332743,0.0258,-1.1250,-0.0490,-8.5956,2.7745,2.5921,1.2847,2.5686,1.0848,
10.333896,0.5689,-1.2689,0.5071,-8.5956,2.7745,2.5921,1.2847,2.5686,1.0848,
10.335102,0.4118,-1.0295,0.3131,-8.5956,2.7745,2.5921,1.2847,2.5686,1.0848,
10.336379,0.2010,-0.9667,-0.3424,-8.5956,2.7745,2.5921,1.2847,2.5686,1.0848,
10.368595,0.2010,-0.9667,-0.3424,-8.5956,2.7745,2.5921,1.1856,1.4938,0.7514,
10.370770,0.2010,-0.9667,-0.3424,2.0900,-1.4884,4.3780,1.1856,1.4938,0.7514,
10.406731,0.2010,-0.9667,-0.3424,2.0900,-1.4884,4.3780,0.9800,0.4360,1.0369,
10.408602,0.2010,-0.9667,-0.3424,-0.0576,-1.1399,0.6644,0.9800,0.4360,1.0369,
10.410118,0.1673,-1.0613,-0.3666,-0.0576,-1.1399,0.6644,0.9800,0.4360,1.0369,
10.411376,0.1377,-1.0859,-0.0949,-0.0576,-1.1399,0.6644,0.9800,0.4360,1.0369,
10.412640,0.1167,-1.0686,-0.0751,-0.0576,-1.1399,0.6644,0.9800,0.4360,1.0369,
10.413729,0.1179,-0.9916,-0.1557,-0.0576,-1.1399,0.6644,0.9800,0.4360,1.0369,
10.446059,0.1179,-0.9916,-0.1557,-0.0576,-1.1399,0.6644,1.0556,0.2677,0.9719,
10.448130,0.1179,-0.9916,-0.1557,0.2776,-0.9818,0.2515,1.0556,0.2677,0.9719,
10.487201,0.1304,-0.9027,-0.1689,0.2776,-0.9818,0.2515,1.0556,0.2677,0.9719,
10.489290,0.1922,-0.8680,-0.1750,0.2776,-0.9818,0.2515,1.0556,0.2677,0.9719,
10.491071,0.2206,-0.8766,-0.1345,0.2776,-0.9818,0.2515,1.0556,0.2677,0.9719,
10.492094,0.2206,-0.8766,-0.1345,0.2776,-0.9818,0.2515,1.0141,-0.1851,0.7322,
10.493354,0.2206,-0.8766,-0.1345,0.6189,0.5900,-0.0060,1.0141,-0.1851,0.7322,
10.527600,0.2206,-0.8766,-0.1345,0.6189,0.5900,-0.0060,0.9704,-0.3278,0.5042,
10.530522,0.2206,-0.8766,-0.1345,1.5360,1.0750,0.2072,0.9704,-0.3278,0.5042,
10.565993,0.2206,-0.8766,-0.1345,1.5360,1.0750,0.2072,1.0184,-0.0849,0.1974,
10.568483,0.2206,-0.8766,-0.1345,1.5888,1.1040,-0.1790,1.0184,-0.0849,0.1974,
10.569663,0.2135,-0.8749,-0.0917,1.5888,1.1040,-0.1790,1.0184,-0.0849,0.1974,
10.571083,0.2306,-0.8783,-0.0963,1.5888,1.1040,-0.1790,1.0184,-0.0849,0.1974,
10.572321,0.2806,-0.8702,-0.1181,1.5888,1.1040,-0.1790,1.0184,-0.0849,0.1974,
10.573515,0.2726,-0.8639,-0.0753,1.5888,1.1040,-0.1790,1.0184,-0.0849,0.1974,
10.574650,0.1761,-0.8732,-0.0609,1.5888,1.1040,-0.1790,1.0184,-0.0849,0.1974,
10.605367,0.1761,-0.8732,-0.0609,1.5888,1.1040,-0.1790,1.0631,-0.2256,0.0174,
10.607831,0.1761,-0.8732,-0.0609,1.7826,1.1861,-0.3542,1.0631,-0.2256,0.0174,
10.645130,0.1761,-0.8732,-0.0609,1.7826,1.1861,-0.3542,0.9566,-0.3140,0.0717,
10.647780,0.1761,-0.8732,-0.0609,-0.0466,0.7874,-0.6412,0.9566,-0.3140,0.0717,
10.653314,0.0903,-0.8751,-0.0944,-0.0466,0.7874,-0.6412,0.9566,-0.3140,0.0717,
10.661105,0.0547,-0.9098,-0.1059,-0.0466,0.7874,-0.6412,0.9566,-0.3140,0.0717,
10.667279,0.0146,-0.9442,-0.0348,-0.0466,0.7874,-0.6412,0.9566,-0.3140,0.0717,
10.668567,-0.0086,-0.9731,0.0436,-0.0466,0.7874,-0.6412,0.9566,-0.3140,0.0717,
10.684409,-0.0086,-0.9731,0.0436,0.0483,0.7763,-1.0238,0.9566,-0.3140,0.0717,
10.687233,-0.0086,-0.9731,0.0436,0.0483,0.7763,-1.0238,1.0450,-0.0967,0.2486,
10.724051,-0.0086,-0.9731,0.0436,0.0483,0.7763,-1.0238,1.2847,-0.0093,0.5287,
10.725803,-0.0086,-0.9731,0.0436,-0.4774,-0.1652,-0.3360,1.2847,-0.0093,0.5287,
10.726547,-0.0286,-1.0100,0.0717,-0.4774,-0.1652,-0.3360,1.2847,-0.0093,0.5287,
10.727261,-0.0286,-1.0298,0.0092,-0.4774,-0.1652,-0.3360,1.2847,-0.0093,0.5287,
10.727842,0.0371,-1.0332,-0.0653,-0.4774,-0.1652,-0.3360,1.2847,-0.0093,0.5287,
10.728959,0.1390,-1.0517,-0.0499,-0.4774,-0.1652,-0.3360,1.2847,-0.0093,0.5287,
10.763988,0.1390,-1.0517,-0.0499,-0.4774,-0.1652,-0.3360,1.2186,0.0205,0.6875,
10.766787,0.1390,-1.0517,-0.0499,-0.2101,-0.2053,-0.7889,1.2186,0.0205,0.6875,
10.804229,0.1390,-1.0517,-0.0499,-0.2101,-0.2053,-0.7889,1.0365,0.1835,0.5788,
10.806601,0.1390,-1.0517,-0.0499,1.3396,-0.6587,-2.0395,1.0365,0.1835,0.5788,
10.808007,0.1688,-1.0517,-0.0331,1.3396,-0.6587,-2.0395,1.0365,0.1835,0.5788,
10.809017,0.1162,-1.0666,-0.0546,1.3396,-0.6587,-2.0395,1.0365,0.1835,0.5788,
10.810455,0.0989,-1.1512,-0.0753,1.3396,-0.6587,-2.0395,1.0365,0.1835,0.5788,
10.811609,0.1426,-1.2127,-0.0702,1.3396,-0.6587,-2.0395,1.0365,0.1835,0.5788,
10.842837,0.1426,-1.2127,-0.0702,1.3396,-0.6587,-2.0395,0.8554,0.2826,0.5927,
10.845316,0.1426,-1.2127,-0.0702,1.5985,-1.6567,-2.4866,0.8554,0.2826,0.5927,
10.882568,0.1426,-1.2127,-0.0702,1.5985,-1.6567,-2.4866,0.2397,-0.1084,0.1953,
10.885420,0.1426,-1.2127,-0.0702,4.3171,-3.3571,-3.5667,0.2397,-0.1084,0.1953,
10.886838,0.2386,-1.2289,-0.1494,4.3171,-3.3571,-3.5667,0.2397,-0.1084,0.1953,
10.887955,0.4502,-1.2904,-0.2290,4.3171,-3.3571,-3.5667,0.2397,-0.1084,0.1953,
10.889214,0.5035,-1.4426,-0.1425,4.3171,-3.3571,-3.5667,0.2397,-0.1084,0.1953,
10.891029,0.3576,-1.4485,-0.1757,4.3171,-3.3571,-3.5667,0.2397,-0.1084,0.1953,
10.922160,0.3576,-1.4485,-0.1757,4.3171,-3.3571,-3.5667,-0.8906,-0.3683,-0.5099,
10.924742,0.3576,-1.4485,-0.1757,4.0293,-3.2360,-3.1779,-0.8906,-0.3683,-0.5099,
10.961368,0.1595,-1.2555,-0.2639,4.0293,-3.2360,-3.1779,-0.8906,-0.3683,-0.5099,
10.964252,-0.0286,-1.0908,-0.2588,4.0293,-3.2360,-3.1779,-0.8906,-0.3683,-0.5099,
10.965136,-0.1266,-1.0637,-0.1181,4.0293,-3.2360,-3.1779,-0.8906,-0.3683,-0.5099,
10.966334,-0.1266,-1.0637,-0.1181,1.4519,-2.5547,-2.8557,-0.8906,-0.3683,-0.5099,
10.968892,-0.1266,-1.0637,-0.1181,1.4519,-2.5547,-2.8557,-2.2094,-0.4439,-0.6068,
11.001889,-0.1266,-1.0637,-0.1181,1.4519,-2.5547,-2.8557,-2.8198,-0.5899,-0.5408,
11.004170,-0.1266,-1.0637,-0.1181,-2.1664,-0.8608,0.6686,-2.8198,-0.5899,-0.5408,
11.041352,-0.1266,-1.0637,-0.1181,-2.1664,-0.8608,0.6686,-2.3468,0.2357,-0.4577,
11.044372,-0.1266,-1.0637,-0.1181,-2.3169,-0.9432,1.5507,-2.3468,0.2357,-0.4577,
11.045749,-0.1889,-1.0913,-0.0052,-2.3169,-0.9432,1.5507,-2.3468,0.2357,-0.4577,
11.047189,-0.2502,-1.1248,0.1685,-2.3169,-0.9432,1.5507,-2.3468,0.2357,-0.4577,
11.048424,-0.3013,-1.1341,0.2850,-2.3169,-0.9432,1.5507,-2.3468,0.2357,-0.4577,
11.049688,-0.3186,-1.0828,0.2493,-2.3169,-0.9432,1.5507,-2.3468,0.2357,-0.4577,
11.051017,-0.2387,-1.0793,0.0891,-2.3169,-0.9432,1.5507,-2.3468,0.2357,-0.4577,
11.080714,-0.2387,-1.0793,0.0891,-2.3169,-0.9432,1.5507,-2.1263,0.7247,-0.2191,
11.083016,-0.2387,-1.0793,0.0891,-3.3547,-1.1343,4.1708,-2.1263,0.7247,-0.2191,
11.120608,-0.2387,-1.0793,0.0891,-3.3547,-1.1343,4.1708,-2.0869,-0.0924,-0.1807,
11.122850,-0.2387,-1.0793,0.0891,-0.8780,-1.2576,1.6718,-2.0869,-0.0924,-0.1807,
11.124409,-0.1557,-1.1475,-0.0577,-0.8780,-1.2576,1.6718,-2.0869,-0.0924,-0.1807,
11.125437,-0.0680,-1.1111,-0.1547,-0.8780,-1.2576,1.6718,-2.0869,-0.0924,-0.1807,
11.126841,0.1360,-1.0166,-0.1623,-0.8780,-1.2576,1.6718,-2.0869,-0.0924,-0.1807,
11.128135,0.2750,-0.9579,-0.0751,-0.8780,-1.2576,1.6718,-2.0869,-0.0924,-0.1807,
11.159703,0.2750,-0.9579,-0.0751,-0.8780,-1.2576,1.6718,-1.7556,-0.3896,-0.5227,
11.161703,0.2750,-0.9579,-0.0751,-1.0032,-1.4710,2.2924,-1.7556,-0.3896,-0.5227,
11.200679,0.2750,-0.9579,-0.0751,-1.0032,-1.4710,2.2924,-1.2709,-0.8253,-0.9467,
11.203322,0.2750,-0.9579,-0.0751,1.0480,-0.1484,3.3273,-1.2709,-0.8253,-0.9467,
11.204702,0.2100,-0.9315,-0.0446,1.0480,-0.1484,3.3273,-1.2709,-0.8253,-0.9467,
11.205831,0.1272,-0.9142,-0.0700,1.0480,-0.1484,3.3273,-1.2709,-0.8253,-0.9467,
11.207148,0.0806,-0.8907,-0.1604,1.0480,-0.1484,3.3273,-1.2709,-0.8253,-0.9467,
11.208318,-0.1420,-0.8184,-0.1464,1.0480,-0.1484,3.3273,-1.2709,-0.8253,-0.9467,
11.239272,-0.1420,-0.8184,-0.1464,1.0480,-0.1484,3.3273,-0.9971,-1.4432,-0.9743,
11.241933,-0.1420,-0.8184,-0.1464,0.9271,-0.3456,3.6752,-0.9971,-1.4432,-0.9743,
11.278930,-0.1420,-0.8184,-0.1464,0.9271,-0.3456,3.6752,-0.5721,-0.8008,-0.4502,
11.281635,-0.1420,-0.8184,-0.1464,-2.1422,0.6994,3.3581,-0.5721,-0.8008,-0.4502,
11.283316,-0.2720,-0.7344,-0.0338,-2.1422,0.6994,3.3581,-0.5721,-0.8008,-0.4502,
11.284486,-0.2072,-0.6804,-0.0106,-2.1422,0.6994,3.3581,-0.5721,-0.8008,-0.4502,
11.285450,-0.0892,-0.6589,-0.0822,-2.1422,0.6994,3.3581,-0.5721,-0.8008,-0.4502,
11.287027,0.0317,-0.6875,-0.1999,-2.1422,0.6994,3.3581,-0.5721,-0.8008,-0.4502,
11.318482,0.0317,-0.6875,-0.1999,-2.1422,0.6994,3.3581,-0.0448,-0.2660,-0.2691,
11.321320,0.0317,-0.6875,-0.1999,-1.9302,2.0075,3.4821,-0.0448,-0.2660,-0.2691,
11.358016,0.0996,-0.7131,-0.3118,-1.9302,2.0075,3.4821,-0.0448,-0.2660,-0.2691,
11.360838,0.1790,-0.7188,-0.4367,-1.9302,2.0075,3.4821,-0.0448,-0.2660,-0.2691,
11.362162,0.2701,-0.7278,-0.4995,-1.9302,2.0075,3.4821,-0.0448,-0.2660,-0.2691,
11.363586,0.2701,-0.7278,-0.4995,-1.9302,2.0075,3.4821,0.2247,-0.3449,-0.3693,
11.364743,0.2701,-0.7278,-0.4995,0.6503,1.5700,0.2948,0.2247,-0.3449,-0.3693,
11.398294,0.2701,-0.7278,-0.4995,0.6503,1.5700,0.2948,0.3654,-0.3800,-0.5461,
11.402859,0.2701,-0.7278,-0.4995,1.8692,0.8687,-1.5804,0.3654,-0.3800,-0.5461,
11.437608,0.2701,-0.7278,-0.4995,1.8692,0.8687,-1.5804,0.4527,-0.5750,-0.8369,
11.440139,0.2701,-0.7278,-0.4995,1.6503,0.8835,-1.6757,0.4527,-0.5750,-0.8369,
11.441386,0.3090,-0.7434,-0.5290,1.6503,0.8835,-1.6757,0.4527,-0.5750,-0.8369,
11.442693,0.3244,-0.7757,-0.5779,1.6503,0.8835,-1.6757,0.4527,-0.5750,-0.8369,
11.444462,0.3356,-0.8619,-0.6905,1.6503,0.8835,-1.6757,0.4527,-0.5750,-0.8369,
11.445793,0.3622,-0.9596,-0.8466,1.6503,0.8835,-1.6757,0.4527,-0.5750,-0.8369,
11.447115,0.3109,-1.0219,-0.8801,1.6503,0.8835,-1.6757,0.4527,-0.5750,-0.8369,
11.477232,0.3109,-1.0219,-0.8801,1.6503,0.8835,-1.6757,0.0170,-0.4844,-0.8582,
11.479676,0.3109,-1.0219,-0.8801,1.4129,0.8173,-1.6230,0.0170,-0.4844,-0.8582,
11.517393,0.3109,-1.0219,-0.8801,1.4129,0.8173,-1.6230,-0.0874,-0.9989,-0.6175,
11.520230,0.3109,-1.0219,-0.8801,0.8710,-1.1075,-3.8719,-0.0874,-0.9989,-0.6175,
11.521590,0.1465,-0.9765,-0.8100,0.8710,-1.1075,-3.8719,-0.0874,-0.9989,-0.6175,
11.522847,0.0454,-0.8441,-0.6631,0.8710,-1.1075,-3.8719,-0.0874,-0.9989,-0.6175,
11.524228,0.0183,-0.8893,-0.4401,0.8710,-1.1075,-3.8719,-0.0874,-0.9989,-0.6175,
11.525330,0.0505,-1.3212,-0.5244,0.8710,-1.1075,-3.8719,-0.0874,-0.9989,-0.6175,
11.556296,0.0505,-1.3212,-0.5244,0.8710,-1.1075,-3.8719,0.1758,-0.6165,-0.4620,
11.559312,0.0505,-1.3212,-0.5244,-1.4577,-1.4018,-0.9020,0.1758,-0.6165,-0.4620,
11.595614,0.4624,-1.5118,-0.5437,-1.4577,-1.4018,-0.9020,0.1758,-0.6165,-0.4620,
11.598072,0.3845,-1.0019,-0.3521,-1.4577,-1.4018,-0.9020,0.1758,-0.6165,-0.4620,
11.599254,-0.7115,-0.6433,-0.2261,-1.4577,-1.4018,-0.9020,0.1758,-0.6165,-0.4620,
11.600560,-0.7115,-0.6433,-0.2261,-1.4577,-1.4018,-0.9020,0.1938,1.1529,-0.5131,
11.601766,-0.7115,-0.6433,-0.2261,-1.7311,-1.7142,0.5812,0.1938,1.1529,-0.5131,
11.635881,-0.7115,-0.6433,-0.2261,-1.7311,-1.7142,0.5812,0.8628,1.4927,0.5213,
11.638211,-0.7115,-0.6433,-0.2261,-3.5352,-0.7333,2.4535,0.8628,1.4927,0.5213,
11.674994,-0.7115,-0.6433,-0.2261,-3.5352,-0.7333,2.4535,1.1675,2.4696,0.8004,
11.677624,-0.7115,-0.6433,-0.2261,-3.5310,-0.4947,1.7952,1.1675,2.4696,0.8004,
11.678934,-0.7699,-0.7588,-0.2004,-3.5310,-0.4947,1.7952,1.1675,2.4696,0.8004,
11.680039,0.0139,-1.0258,-0.2056,-3.5310,-0.4947,1.7952,1.1675,2.4696,0.8004,
11.681306,0.3390,-1.1321,0.0014,-3.5310,-0.4947,1.7952,1.1675,2.4696,0.8004,
11.682262,0.3344,-1.0244,0.1419,-3.5310,-0.4947,1.7952,1.1675,2.4696,0.8004,
11.683402,0.2606,-0.9025,-0.1430,-3.5310,-0.4947,1.7952,1.1675,2.4696,0.8004,
11.714557,0.2606,-0.9025,-0.1430,-3.5310,-0.4947,1.7952,1.0791,1.8016,0.6523,
11.716399,0.2606,-0.9025,-0.1430,-3.4407,-0.3122,1.2302,1.0791,1.8016,0.6523,
11.754154,0.2606,-0.9025,-0.1430,-3.4407,-0.3122,1.2302,0.7670,0.8333,0.8845,
11.756379,0.2606,-0.9025,-0.1430,0.6709,0.2689,0.9591,0.7670,0.8333,0.8845,
11.757775,0.1746,-0.8539,-0.3749,0.6709,0.2689,0.9591,0.7670,0.8333,0.8845,
11.759001,0.0713,-0.9201,-0.2253,0.6709,0.2689,0.9591,0.7670,0.8333,0.8845,
11.760012,0.0222,-0.9604,-0.0636,0.6709,0.2689,0.9591,0.7670,0.8333,0.8845,
11.761278,0.0639,-0.9648,-0.0832,0.6709,0.2689,0.9591,0.7670,0.8333,0.8845,
11.793731,0.0639,-0.9648,-0.0832,0.6709,0.2689,0.9591,0.7435,0.8557,1.1679,
11.796229,0.0639,-0.9648,-0.0832,-0.9452,0.1914,0.6270,0.7435,0.8557,1.1679,
11.834220,0.0639,-0.9648,-0.0832,-0.9452,0.1914,0.6270,0.7105,0.3167,1.0944,
11.837017,0.0639,-0.9648,-0.0832,0.6730,-0.1809,0.2130,0.7105,0.3167,1.0944,
11.838215,0.1072,-0.9601,-0.1437,0.6730,-0.1809,0.2130,0.7105,0.3167,1.0944,
11.839504,0.1517,-1.0080,-0.1418,0.6730,-0.1809,0.2130,0.7105,0.3167,1.0944,
11.840698,0.2775,-1.0234,-0.1249,0.6730,-0.1809,0.2130,0.7105,0.3167,1.0944,
11.841795,0.3552,-0.9489,-0.0792,0.6730,-0.1809,0.2130,0.7105,0.3167,1.0944,
11.873063,0.3552,-0.9489,-0.0792,0.6730,-0.1809,0.2130,0.8405,-0.3981,0.6736,
11.875902,0.3552,-0.9489,-0.0792,0.9354,-0.1073,-0.0921,0.8405,-0.3981,0.6736,
11.913249,0.3552,-0.9489,-0.0792,0.9354,-0.1073,-0.0921,1.1089,-0.3044,0.1953,
11.915741,0.3552,-0.9489,-0.0792,2.5881,1.0095,0.6471,1.1089,-0.3044,0.1953,
11.917400,0.3732,-0.8541,-0.0016,2.5881,1.0095,0.6471,1.1089,-0.3044,0.1953,
11.918486,0.3004,-0.8573,0.0275,2.5881,1.0095,0.6471,1.1089,-0.3044,0.1953,
11.919593,0.1758,-0.9015,-0.0135,2.5881,1.0095,0.6471,1.1089,-0.3044,0.1953,
11.920584,0.1060,-0.9137,-0.1132,2.5881,1.0095,0.6471,1.1089,-0.3044,0.1953,
11.952313,0.1060,-0.9137,-0.1132,2.5881,1.0095,0.6471,1.0706,-0.0498,0.0792,
11.954916,0.1060,-0.9137,-0.1132,2.5765,1.0208,0.2323,1.0706,-0.0498,0.0792,
11.992719,0.1060,-0.9137,-0.1132,0.4234,0.7232,-0.9727,1.0706,-0.0498,0.0792,
11.995206,0.1060,-0.9137,-0.1132,0.4234,0.7232,-0.9727,0.6903,-0.1510,0.1911,
11.996386,0.0671,-0.9364,-0.2205,0.4234,0.7232,-0.9727,0.6903,-0.1510,0.1911,
11.997731,0.0219,-0.9377,-0.2402,0.4234,0.7232,-0.9727,0.6903,-0.1510,0.1911,
11.998822,0.0698,-0.9206,-0.2227,0.4234,0.7232,-0.9727,0.6903,-0.1510,0.1911,
12.000049,0.1372,-0.9105,-0.0949,0.4234,0.7232,-0.9727,0.6903,-0.1510,0.1911,
12.031564,0.1372,-0.9105,-0.0949,0.4234,0.7232,-0.9727,0.4783,-0.0019,0.2422,
12.034184,0.1372,-0.9105,-0.0949,0.1227,0.6639,-1.8139,0.4783,-0.0019,0.2422,
12.072152,0.1372,-0.9105,-0.0949,0.1227,0.6639,-1.8139,0.7584,-0.0807,0.2816,
12.074476,0.1372,-0.9105,-0.0949,0.2173,0.1229,0.6717,0.7584,-0.0807,0.2816,
12.075869,0.1248,-0.9162,0.0226,0.2173,0.1229,0.6717,0.7584,-0.0807,0.2816,
12.077100,0.0630,-0.9741,0.1316,0.2173,0.1229,0.6717,0.7584,-0.0807,0.2816,
12.078290,0.0383,-1.0442,0.1411,0.2173,0.1229,0.6717,0.7584,-0.0807,0.2816,
12.079542,0.0437,-1.0725,0.0478,0.2173,0.1229,0.6717,0.7584,-0.0807,0.2816,
12.111012,0.0437,-1.0725,0.0478,0.2173,0.1229,0.6717,1.1302,-0.1105,0.4542,
12.113668,0.0437,-1.0725,0.0478,0.3833,0.1061,0.2348,1.1302,-0.1105,0.4542,
12.151394,0.0437,-1.0725,0.0478,0.3833,0.1061,0.2348,0.9960,0.0695,0.5756,
12.154271,0.0437,-1.0725,0.0478,0.4852,-0.9853,-1.7656,0.9960,0.0695,0.5756,
12.155499,0.0520,-1.0837,-0.0800,0.4852,-0.9853,-1.7656,0.9960,0.0695,0.5756,
12.156836,0.0957,-1.1079,-0.1770,0.4852,-0.9853,-1.7656,0.9960,0.0695,0.5756,
12.157959,0.1619,-1.1231,-0.1604,0.4852,-0.9853,-1.7656,0.9960,0.0695,0.5756,
12.158924,0.1646,-1.1487,-0.0529,0.4852,-0.9853,-1.7656,0.9960,0.0695,0.5756,
12.190517,0.1646,-1.1487,-0.0529,0.4852,-0.9853,-1.7656,0.8383,0.4061,0.5500,
12.192948,0.1646,-1.1487,-0.0529,0.7043,-1.0090,-2.0520,0.8383,0.4061,0.5500,
12.230435,0.1646,-1.1487,-0.0529,0.7043,-1.0090,-2.0520,0.8234,0.4413,0.5724,
12.232974,0.1646,-1.1487,-0.0529,1.7590,-1.6239,-2.3090,0.8234,0.4413,0.5724,
12.234487,0.1218,-1.1724,0.0085,1.7590,-1.6239,-2.3090,0.8234,0.4413,0.5724,
12.235766,0.0723,-1.1617,-0.0770,1.7590,-1.6239,-2.3090,0.8234,0.4413,0.5724,
12.237131,0.1192,-1.2076,-0.2075,1.7590,-1.6239,-2.3090,0.8234,0.4413,0.5724,
12.238429,0.3576,-1.2804,-0.2461,1.7590,-1.6239,-2.3090,0.8234,0.4413,0.5724,
12.269573,0.3576,-1.2804,-0.2461,1.7590,-1.6239,-2.3090,0.0181,0.0535,0.2060,
12.272271,0.3576,-1.2804,-0.2461,2.1337,-2.2607,-3.3235,0.0181,0.0535,0.2060,
12.309567,0.3576,-1.2804,-0.2461,2.1337,-2.2607,-3.3235,-1.2038,0.0461,-0.4417,
12.312140,0.3576,-1.2804,-0.2461,3.0621,-2.3769,-3.5141,-1.2038,0.0461,-0.4417,
12.313576,0.5010,-1.3498,-0.1887,3.0621,-2.3769,-3.5141,-1.2038,0.0461,-0.4417,
12.314852,0.3141,-1.2767,-0.2486,3.0621,-2.3769,-3.5141,-1.2038,0.0461,-0.4417,
12.315950,0.0852,-1.0923,-0.3118,3.0621,-2.3769,-3.5141,-1.2038,0.0461,-0.4417,
12.316918,-0.0264,-1.0043,-0.2185,3.0621,-2.3769,-3.5141,-1.2038,0.0461,-0.4417,
12.348951,-0.0264,-1.0043,-0.2185,3.0621,-2.3769,-3.5141,-2.3713,-0.2000,-0.6058,
12.351672,-0.0264,-1.0043,-0.2185,2.7754,-2.2812,-2.5495,-2.3713,-0.2000,-0.6058,
12.388245,-0.0264,-1.0043,-0.2185,2.7754,-2.2812,-2.5495,-2.4970,-0.1489,-0.5759,
12.390781,-0.0264,-1.0043,-0.2185,-1.4718,-0.8516,0.2563,-2.4970,-0.1489,-0.5759,
12.392164,-0.1227,-1.0772,-0.0761,-1.4718,-0.8516,0.2563,-2.4970,-0.1489,-0.5759,
12.393420,-0.1901,-1.1905,0.1069,-1.4718,-0.8516,0.2563,-2.4970,-0.1489,-0.5759,
12.394551,-0.2563,-1.2570,0.2493,-1.4718,-0.8516,0.2563,-2.4970,-0.1489,-0.5759,
12.395718,-0.3040,-1.1900,0.2569,-1.4718,-0.8516,0.2563,-2.4970,-0.1489,-0.5759,
12.427787,-0.3040,-1.1900,0.2569,-1.4718,-0.8516,0.2563,-2.0176,0.8088,-0.3980,
12.430679,-0.3040,-1.1900,0.2569,-1.6416,-0.9433,1.0067,-2.0176,0.8088,-0.3980,
12.467693,-0.3040,-1.1900,0.2569,-1.6416,-0.9433,1.0067,-1.9228,0.6128,-0.2372,
12.471195,-0.3040,-1.1900,0.2569,-3.2928,-1.8570,4.3293,-1.9228,0.6128,-0.2372,
12.472943,-0.2590,-1.0664,0.1245,-3.2928,-1.8570,4.3293,-1.9228,0.6128,-0.2372,
12.474296,-0.1567,-1.0737,-0.0365,-3.2928,-1.8570,4.3293,-1.9228,0.6128,-0.2372,
12.475520,-0.0484,-1.0627,-0.1464,-3.2928,-1.8570,4.3293,-1.9228,0.6128,-0.2372,
12.476663,0.0945,-0.9870,-0.1623,-3.2928,-1.8570,4.3293,-1.9228,0.6128,-0.2372,
12.507069,0.0945,-0.9870,-0.1623,-3.2928,-1.8570,4.3293,-1.8717,0.1132,-0.4641,
12.509616,0.0945,-0.9870,-0.1623,-1.1436,-0.7775,1.8134,-1.8717,0.1132,-0.4641,
12.547742,0.0945,-0.9870,-0.1623,-1.1436,-0.7775,1.8134,-1.5873,-0.2895,-0.9275,
12.550197,0.0945,-0.9870,-0.1623,0.7049,-0.2094,2.7359,-1.5873,-0.2895,-0.9275,
12.551526,0.1605,-0.9506,-0.1648,0.7049,-0.2094,2.7359,-1.5873,-0.2895,-0.9275,
12.552625,0.2144,-0.9567,-0.0428,0.7049,-0.2094,2.7359,-1.5873,-0.2895,-0.9275,
12.553950,0.1771,-0.9704,-0.0238,0.7049,-0.2094,2.7359,-1.5873,-0.2895,-0.9275,
12.554897,0.0500,-0.9093,-0.1284,0.7049,-0.2094,2.7359,-1.5873,-0.2895,-0.9275,
12.586414,0.0500,-0.9093,-0.1284,0.7049,-0.2094,2.7359,-1.1782,-1.1289,-1.1938,
12.588928,0.0500,-0.9093,-0.1284,0.4372,-0.4345,3.1620,-1.1782,-1.1289,-1.1938,
12.626311,0.0500,-0.9093,-0.1284,0.4372,-0.4345,3.1620,-0.8277,-1.2482,-0.8433,
12.631102,0.0500,-0.9093,-0.1284,-2.3213,0.7045,3.2357,-0.8277,-1.2482,-0.8433,
12.632496,-0.1190,-0.8072,-0.1137,-2.3213,0.7045,3.2357,-0.8277,-1.2482,-0.8433,
12.634270,-0.2070,-0.7532,-0.0607,-2.3213,0.7045,3.2357,-0.8277,-1.2482,-0.8433,
12.635441,-0.1738,-0.6990,-0.0179,-2.3213,0.7045,3.2357,-0.8277,-1.2482,-0.8433,
12.636734,-0.1041,-0.6543,-0.0458,-2.3213,0.7045,3.2357,-0.8277,-1.2482,-0.8433,
12.665697,-0.1041,-0.6543,-0.0458,-2.3213,0.7045,3.2357,-0.3984,-0.4866,-0.2841,
12.670345,-0.1041,-0.6543,-0.0458,-2.2977,0.6100,3.3445,-0.3984,-0.4866,-0.2841,
12.706167,-0.1041,-0.6543,-0.0458,-2.3234,1.9952,3.5113,-0.3984,-0.4866,-0.2841,
12.709479,-0.1041,-0.6543,-0.0458,-2.3234,1.9952,3.5113,-0.0746,-0.3268,-0.0401,
12.710706,-0.0311,-0.6775,-0.1831,-2.3234,1.9952,3.5113,-0.0746,-0.3268,-0.0401,
12.712054,0.0461,-0.7244,-0.2864,-2.3234,1.9952,3.5113,-0.0746,-0.3268,-0.0401,
12.713775,0.1304,-0.7483,-0.3634,-2.3234,1.9952,3.5113,-0.0746,-0.3268,-0.0401,
12.714624,0.2144,-0.7368,-0.4022,-2.3234,1.9952,3.5113,-0.0746,-0.3268,-0.0401,
12.745134,0.2144,-0.7368,-0.4022,-2.3234,1.9952,3.5113,0.0586,-0.4141,-0.0998,
12.747683,0.2144,-0.7368,-0.4022,-0.0001,1.3923,0.8674,0.0586,-0.4141,-0.0998,
12.784736,0.2144,-0.7368,-0.4022,-0.0001,1.3923,0.8674,0.3089,-0.3129,-0.3895,
12.787998,0.2144,-0.7368,-0.4022,1.8390,1.1360,-0.5581,0.3089,-0.3129,-0.3895,
12.789337,0.2929,-0.7300,-0.4215,1.8390,1.1360,-0.5581,0.3089,-0.3129,-0.3895,
12.790937,0.3329,-0.7508,-0.4677,1.8390,1.1360,-0.5581,0.3089,-0.3129,-0.3895,
12.792136,0.3622,-0.8111,-0.5747,1.8390,1.1360,-0.5581,0.3089,-0.3129,-0.3895,
12.793536,0.3857,-0.9345,-0.7196,1.8390,1.1360,-0.5581,0.3089,-0.3129,-0.3895,
12.824648,0.3857,-0.9345,-0.7196,1.8390,1.1360,-0.5581,0.3057,-0.3885,-0.7847,
12.827230,0.3857,-0.9345,-0.7196,1.6079,1.1214,-0.6291,0.3057,-0.3885,-0.7847,
12.864199,0.3857,-0.9345,-0.7196,1.6079,1.1214,-0.6291,-0.3537,-0.7326,-0.9221,
12.867430,0.3857,-0.9345,-0.7196,1.5637,-1.6411,-3.8544,-0.3537,-0.7326,-0.9221,
12.868785,0.3493,-1.0713,-0.8481,1.5637,-1.6411,-3.8544,-0.3537,-0.7326,-0.9221,
12.870206,0.3058,-1.1028,-0.9556,1.5637,-1.6411,-3.8544,-0.3537,-0.7326,-0.9221,
12.871462,0.3359,-0.9953,-0.9060,1.5637,-1.6411,-3.8544,-0.3537,-0.7326,-0.9221,
12.872705,0.3254,-0.8265,-0.6468,1.5637,-1.6411,-3.8544,-0.3537,-0.7326,-0.9221,
12.903400,0.3254,-0.8265,-0.6468,1.5637,-1.6411,-3.8544,-0.4187,-1.2834,-0.8561,
12.906153,0.3254,-0.8265,-0.6468,1.4814,-1.7497,-3.5585,-0.4187,-1.2834,-0.8561,
12.944229,0.3254,-0.8265,-0.6468,1.4814,-1.7497,-3.5585,0.5465,-1.0096,-0.5695,
12.946943,0.3254,-0.8265,-0.6468,0.8695,0.3321,-1.6795,0.5465,-1.0096,-0.5695,
12.948292,0.1978,-0.6653,-0.3717,0.8695,0.3321,-1.6795,0.5465,-1.0096,-0.5695,
12.949593,0.0852,-0.6245,-0.2517,0.8695,0.3321,-1.6795,0.5465,-1.0096,-0.5695,
12.951941,0.0478,-0.9276,-0.3350,0.8695,0.3321,-1.6795,0.5465,-1.0096,-0.5695,
12.953221,0.2716,-1.2978,-0.5530,0.8695,0.3321,-1.6795,0.5465,-1.0096,-0.5695,
12.982944,0.2716,-1.2978,-0.5530,0.8695,0.3321,-1.6795,0.9108,0.1686,-0.5152,
12.984761,0.2716,-1.2978,-0.5530,-0.8036,-0.7213,0.5529,0.9108,0.1686,-0.5152,
13.022764,0.2716,-1.2978,-0.5530,-0.8036,-0.7213,0.5529,0.4879,1.1582,-0.1765,
13.025201,0.2716,-1.2978,-0.5530,-3.0263,-2.6811,-0.6987,0.4879,1.1582,-0.1765,
13.026684,0.5711,-1.4062,-0.5163,-3.0263,-2.6811,-0.6987,0.4879,1.1582,-0.1765,
13.027855,-0.0457,-1.1842,-0.5153,-3.0263,-2.6811,-0.6987,0.4879,1.1582,-0.1765,
13.028985,-0.7406,-0.8932,-0.4120,-3.0263,-2.6811,-0.6987,0.4879,1.1582,-0.1765,
13.030450,-0.4454,-0.7407,-0.1012,-3.0263,-2.6811,-0.6987,0.4879,1.1582,-0.1765,
13.062778,-0.4454,-0.7407,-0.1012,-3.0263,-2.6811,-0.6987,0.7446,0.9334,0.8323,
13.065177,-0.4454,-0.7407,-0.1012,-2.8308,-2.4515,-1.0251,0.7446,0.9334,0.8323,
13.102024,-0.0225,-0.8666,-0.2175,-2.8308,-2.4515,-1.0251,0.7446,0.9334,0.8323,
13.104551,0.3180,-1.0845,-0.2554,-2.8308,-2.4515,-1.0251,0.7446,0.9334,0.8323,
13.105892,0.4416,-1.0366,0.0060,-2.8308,-2.4515,-1.0251,0.7446,0.9334,0.8323,
13.107280,0.4416,-1.0366,0.0060,-2.8308,-2.4515,-1.0251,0.9438,1.6781,0.8707,
13.108661,0.4416,-1.0366,0.0060,-2.4931,0.3305,1.3170,0.9438,1.6781,0.8707,
13.141367,0.4416,-1.0366,0.0060,-2.4931,0.3305,1.3170,1.0556,1.3010,0.4957,
13.143596,0.4416,-1.0366,0.0060,1.1019,0.6650,2.0530,1.0556,1.3010,0.4957,
13.181220,0.4416,-1.0366,0.0060,1.1019,0.6650,2.0530,0.9023,0.7161,0.6779,
13.183680,0.4416,-1.0366,0.0060,1.2610,0.7914,1.6364,0.9023,0.7161,0.6779,
13.185064,0.3400,-0.8082,0.0165,1.2610,0.7914,1.6364,0.9023,0.7161,0.6779,
13.186272,0.1661,-0.7908,-0.2114,1.2610,0.7914,1.6364,0.9023,0.7161,0.6779,
13.187618,0.0168,-0.9570,-0.2500,1.2610,0.7914,1.6364,0.9023,0.7161,0.6779,
13.188735,-0.0326,-1.0354,-0.1980,1.2610,0.7914,1.6364,0.9023,0.7161,0.6779,
13.190194,0.0354,-0.9934,-0.1538,1.2610,0.7914,1.6364,0.9023,0.7161,0.6779,
13.223245,0.0354,-0.9934,-0.1538,-1.4465,-0.2331,0.0112,0.9023,0.7161,0.6779,
13.225736,0.0354,-0.9934,-0.1538,-1.4465,-0.2331,0.0112,0.6210,0.6458,0.9431,
13.260071,0.0354,-0.9934,-0.1538,-1.4465,-0.2331,0.0112,0.5614,0.3028,0.8462,
13.262178,0.0354,-0.9934,-0.1538,0.3288,0.3069,0.3952,0.5614,0.3028,0.8462,
13.263483,0.0884,-0.9325,-0.1459,0.3288,0.3069,0.3952,0.5614,0.3028,0.8462,
13.264483,0.1499,-0.9384,-0.1557,0.3288,0.3069,0.3952,0.5614,0.3028,0.8462,
13.265451,0.2352,-0.9745,-0.1103,0.3288,0.3069,0.3952,0.5614,0.3028,0.8462,
13.266717,0.2826,-0.9819,-0.0690,0.3288,0.3069,0.3952,0.5614,0.3028,0.8462,
13.299634,0.2826,-0.9819,-0.0690,0.3288,0.3069,0.3952,0.6274,-0.1126,0.5351,
13.302188,0.2826,-0.9819,-0.0690,0.5309,0.3647,0.1577,0.6274,-0.1126,0.5351,
13.339733,0.2826,-0.9819,-0.0690,0.5309,0.3647,0.1577,0.8426,-0.3566,0.1665,
13.342671,0.2826,-0.9819,-0.0690,1.9007,0.4006,0.6632,0.8426,-0.3566,0.1665,
13.344166,0.3070,-0.9530,-0.0436,1.9007,0.4006,0.6632,0.8426,-0.3566,0.1665,
13.345268,0.2877,-0.9132,-0.0463,1.9007,0.4006,0.6632,0.8426,-0.3566,0.1665,
13.346089,0.1778,-0.8944,-0.0323,1.9007,0.4006,0.6632,0.8426,-0.3566,0.1665,
13.347460,0.0974,-0.9142,-0.0621,1.9007,0.4006,0.6632,0.8426,-0.3566,0.1665,
13.379366,0.0974,-0.9142,-0.0621,1.9007,0.4006,0.6632,1.0216,-0.2778,0.0515,
13.381848,0.0974,-0.9142,-0.0621,1.8994,0.4353,0.2753,1.0216,-0.2778,0.0515,
13.422315,0.0974,-0.9142,-0.0621,1.8994,0.4353,0.2753,0.9076,-0.2756,0.1804,
13.424767,0.0974,-0.9142,-0.0621,0.2785,0.7674,-0.2940,0.9076,-0.2756,0.1804,
13.425970,0.0840,-0.9428,-0.1359,0.2785,0.7674,-0.2940,0.9076,-0.2756,0.1804,
13.427401,0.0556,-0.9538,-0.1963,0.2785,0.7674,-0.2940,0.9076,-0.2756,0.1804,
13.428677,0.0583,-0.9279,-0.1845,0.2785,0.7674,-0.2940,0.9076,-0.2756,0.1804,
13.429649,0.0752,-0.9249,-0.1582,0.2785,0.7674,-0.2940,0.9076,-0.2756,0.1804,
13.459530,0.0752,-0.9249,-0.1582,0.2785,0.7674,-0.2940,0.6924,-0.2511,0.2901,
13.461946,0.0752,-0.9249,-0.1582,-0.1588,0.5956,-1.5356,0.6924,-0.2511,0.2901,
13.497976,0.0752,-0.9249,-0.1582,-0.1588,0.5956,-1.5356,0.6413,-0.0274,0.3008,
13.502105,0.0752,-0.9249,-0.1582,0.3738,0.3400,-0.7958,0.6413,-0.0274,0.3008,
13.503780,0.0752,-0.9594,-0.1186,0.3738,0.3400,-0.7958,0.6413,-0.0274,0.3008,
13.505007,0.1184,-0.9662,-0.0846,0.3738,0.3400,-0.7958,0.6413,-0.0274,0.3008,
13.506215,0.1248,-0.9609,-0.0377,0.3738,0.3400,-0.7958,0.6413,-0.0274,0.3008,
13.507561,0.0952,-0.9626,-0.0077,0.3738,0.3400,-0.7958,0.6413,-0.0274,0.3008,
13.536632,0.0952,-0.9626,-0.0077,0.3738,0.3400,-0.7958,0.7382,0.0482,0.3008,
13.538749,0.0952,-0.9626,-0.0077,0.4825,0.3371,-1.0648,0.7382,0.0482,0.3008,
13.576216,0.0952,-0.9626,-0.0077,0.4825,0.3371,-1.0648,0.8245,0.0312,0.3945,
13.578189,0.0952,-0.9626,-0.0077,0.5002,0.2840,-0.7672,0.8245,0.0312,0.3945,
13.579467,0.0906,-0.9660,-0.0292,0.5002,0.2840,-0.7672,0.8245,0.0312,0.3945,
13.580831,0.0938,-0.9706,-0.0191,0.5002,0.2840,-0.7672,0.8245,0.0312,0.3945,
13.581922,0.1060,-0.9985,0.0243,0.5002,0.2840,-0.7672,0.8245,0.0312,0.3945,
13.583014,0.1079,-1.0564,0.0326,0.5002,0.2840,-0.7672,0.8245,0.0312,0.3945,
13.616116,0.1079,-1.0564,0.0326,0.5002,0.2840,-0.7672,0.8383,0.0812,0.3913,
13.618356,0.1079,-1.0564,0.0326,0.6428,0.2600,-1.0737,0.8383,0.0812,0.3913,
13.656595,0.1079,-1.0564,0.0326,0.8630,-0.5536,-0.9950,0.8383,0.0812,0.3913,
13.659003,0.1079,-1.0564,0.0326,0.8630,-0.5536,-0.9950,0.7063,0.1750,0.4041,
13.660150,0.0876,-1.0884,-0.0104,0.8630,-0.5536,-0.9950,0.7063,0.1750,0.4041,
13.661240,0.0617,-1.0916,-0.0888,0.8630,-0.5536,-0.9950,0.7063,0.1750,0.4041,
13.662471,0.0815,-1.1118,-0.1159,0.8630,-0.5536,-0.9950,0.7063,0.1750,0.4041,
13.663773,0.1485,-1.1695,-0.1005,0.8630,-0.5536,-0.9950,0.7063,0.1750,0.4041,
13.695356,0.1485,-1.1695,-0.1005,0.8630,-0.5536,-0.9950,0.5518,0.1579,0.5021,
13.697615,0.1485,-1.1695,-0.1005,1.0146,-1.3086,-2.3172,0.5518,0.1579,0.5021,
13.734704,0.1485,-1.1695,-0.1005,1.0146,-1.3086,-2.3172,0.3451,-0.1670,0.2464,
13.736085,0.1485,-1.1695,-0.1005,3.1063,-2.6555,-2.7080,0.3451,-0.1670,0.2464,
13.737259,0.2618,-1.2367,-0.1335,3.1063,-2.6555,-2.7080,0.3451,-0.1670,0.2464,
13.738143,0.3464,-1.2557,-0.1296,3.1063,-2.6555,-2.7080,0.3451,-0.1670,0.2464,
13.739085,0.3139,-1.3004,-0.1349,3.1063,-2.6555,-2.7080,0.3451,-0.1670,0.2464,
13.740089,0.2061,-1.3412,-0.1970,3.1063,-2.6555,-2.7080,0.3451,-0.1670,0.2464,
13.773938,0.2061,-1.3412,-0.1970,3.1063,-2.6555,-2.7080,-0.3601,-0.3278,-0.1658,
13.775024,0.2061,-1.3412,-0.1970,2.9743,-2.5921,-2.5269,-0.3601,-0.3278,-0.1658,
13.816083,0.2061,-1.3412,-0.1970,1.0059,-2.3455,-2.9086,-0.3601,-0.3278,-0.1658,
13.818432,0.2061,-1.3412,-0.1970,1.0059,-2.3455,-2.9086,-1.5266,-0.4535,-0.2596,
13.819576,0.1138,-1.2772,-0.2500,1.0059,-2.3455,-2.9086,-1.5266,-0.4535,-0.2596,
13.820608,0.0410,-1.1280,-0.2654,1.0059,-2.3455,-2.9086,-1.5266,-0.4535,-0.2596,
13.821825,-0.0130,-0.9946,-0.2310,1.0059,-2.3455,-2.9086,-1.5266,-0.4535,-0.2596,
13.823035,-0.0858,-0.9916,-0.1352,1.0059,-2.3455,-2.9086,-1.5266,-0.4535,-0.2596,
13.854833,-0.0858,-0.9916,-0.1352,1.0059,-2.3455,-2.9086,-2.3436,-0.6602,-0.3096,
13.857345,-0.0858,-0.9916,-0.1352,0.8665,-2.2985,-1.9499,-2.3436,-0.6602,-0.3096,
13.893293,-0.0858,-0.9916,-0.1352,0.8665,-2.2985,-1.9499,-2.2232,0.0919,-0.3427,
13.896662,-0.0858,-0.9916,-0.1352,-1.2190,-0.0381,0.2039,-2.2232,0.0919,-0.3427,
13.898748,-0.1422,-1.0449,0.0473,-1.2190,-0.0381,0.2039,-2.2232,0.0919,-0.3427,
13.900434,-0.1684,-1.0769,0.2122,-1.2190,-0.0381,0.2039,-2.2232,0.0919,-0.3427,
13.901711,-0.1911,-1.0774,0.2300,-1.2190,-0.0381,0.2039,-2.2232,0.0919,-0.3427,
13.902948,-0.1679,-1.0723,0.1372,-1.2190,-0.0381,0.2039,-2.2232,0.0919,-0.3427,
13.933456,-0.1679,-1.0723,0.1372,-2.2546,-0.7902,3.8041,-2.2232,0.0919,-0.3427,
13.936231,-0.1679,-1.0723,0.1372,-2.2546,-0.7902,3.8041,-1.9090,0.5851,-0.2564,
13.972757,-0.1679,-1.0723,0.1372,-2.2546,-0.7902,3.8041,-1.9239,0.0940,-0.1669,
13.975596,-0.1679,-1.0723,0.1372,-1.9323,-1.3611,1.1560,-1.9239,0.0940,-0.1669,
13.978988,-0.1603,-1.1368,-0.0294,-1.9323,-1.3611,1.1560,-1.9239,0.0940,-0.1669,
13.980740,-0.1596,-1.1563,-0.1985,-1.9323,-1.3611,1.1560,-1.9239,0.0940,-0.1669,
13.981885,-0.0970,-1.0610,-0.2222,-1.9323,-1.3611,1.1560,-1.9239,0.0940,-0.1669,
13.982989,0.0317,-0.9902,-0.1203,-1.9323,-1.3611,1.1560,-1.9239,0.0940,-0.1669,
14.012105,0.0317,-0.9902,-0.1203,-1.9323,-1.3611,1.1560,-1.9452,-0.2405,-0.2596,
14.014315,0.0317,-0.9902,-0.1203,-1.9671,-1.5717,1.8615,-1.9452,-0.2405,-0.2596,
14.052477,0.0317,-0.9902,-0.1203,-1.9671,-1.5717,1.8615,-1.5340,-0.4386,-0.5227,
14.054749,0.0317,-0.9902,-0.1203,-0.1205,-0.3380,3.0454,-1.5340,-0.4386,-0.5227,
14.056324,0.0933,-0.9557,-0.0519,-0.1205,-0.3380,3.0454,-1.5340,-0.4386,-0.5227,
14.057597,0.0620,-0.9606,-0.0758,-0.1205,-0.3380,3.0454,-1.5340,-0.4386,-0.5227,
14.058877,0.0266,-0.9623,-0.1445,-0.1205,-0.3380,3.0454,-1.5340,-0.4386,-0.5227,
14.060202,0.0065,-0.9064,-0.2283,-0.1205,-0.3380,3.0454,-1.5340,-0.4386,-0.5227,
14.092030,0.0065,-0.9064,-0.2283,-0.1205,-0.3380,3.0454,-1.2645,-1.0075,-0.7261,
14.093949,0.0065,-0.9064,-0.2283,-0.2121,-0.5563,3.4711,-1.2645,-1.0075,-0.7261,
14.131757,0.0065,-0.9064,-0.2283,-0.2121,-0.5563,3.4711,-1.0525,-0.9244,-0.4875,
14.134035,0.0065,-0.9064,-0.2283,-0.9543,-0.2019,2.7579,-1.0525,-0.9244,-0.4875,
14.134991,-0.0763,-0.8683,-0.2014,-0.9543,-0.2019,2.7579,-1.0525,-0.9244,-0.4875,
14.135818,-0.1740,-0.8116,-0.0995,-0.9543,-0.2019,2.7579,-1.0525,-0.9244,-0.4875,
14.136975,-0.1603,-0.7148,-0.0617,-0.9543,-0.2019,2.7579,-1.0525,-0.9244,-0.4875,
14.137797,-0.1071,-0.6679,-0.1645,-0.9543,-0.2019,2.7579,-1.0525,-0.9244,-0.4875,
14.171471,-0.1071,-0.6679,-0.1645,-0.9543,-0.2019,2.7579,-0.5891,-0.4248,-0.1200,
14.173755,-0.1071,-0.6679,-0.1645,-2.1798,1.4317,3.7226,-0.5891,-0.4248,-0.1200,
14.211624,-0.1071,-0.6679,-0.1645,-2.1798,1.4317,3.7226,-0.3260,-0.2426,0.0121,
14.214035,-0.1071,-0.6679,-0.1645,-0.4787,1.5907,1.2963,-0.3260,-0.2426,0.0121,
14.215342,-0.0492,-0.6792,-0.2762,-0.4787,1.5907,1.2963,-0.3260,-0.2426,0.0121,
14.216963,0.0161,-0.7092,-0.3663,-0.4787,1.5907,1.2963,-0.3260,-0.2426,0.0121,
14.218326,0.0945,-0.7300,-0.4552,-0.4787,1.5907,1.2963,-0.3260,-0.2426,0.0121,
14.219284,0.1619,-0.7275,-0.4789,-0.4787,1.5907,1.2963,-0.3260,-0.2426,0.0121,
14.250491,0.1619,-0.7275,-0.4789,-0.4787,1.5907,1.2963,-0.2099,-0.2117,-0.1179,
14.252980,0.1619,-0.7275,-0.4789,-0.4690,1.5209,1.3497,-0.2099,-0.2117,-0.1179,
14.290749,0.1619,-0.7275,-0.4789,-0.4690,1.5209,1.3497,0.0074,-0.2724,-0.3991,
14.292851,0.1619,-0.7275,-0.4789,1.1992,1.2262,-0.0419,0.0074,-0.2724,-0.3991,
14.294345,0.2074,-0.7319,-0.4936,1.1992,1.2262,-0.0419,0.0074,-0.2724,-0.3991,
14.295614,0.2335,-0.7398,-0.5530,1.1992,1.2262,-0.0419,0.0074,-0.2724,-0.3991,
14.296945,0.2369,-0.7669,-0.6509,1.1992,1.2262,-0.0419,0.0074,-0.2724,-0.3991,
14.297957,0.2340,-0.8140,-0.7526,1.1992,1.2262,-0.0419,0.0074,-0.2724,-0.3991,
14.330226,0.2340,-0.8140,-0.7526,1.1992,1.2262,-0.0419,0.0799,-0.3598,-0.6686,
14.332800,0.2340,-0.8140,-0.7526,1.0294,1.1991,-0.0556,0.0799,-0.3598,-0.6686,
14.369643,0.2340,-0.8140,-0.7526,1.0294,1.1991,-0.0556,-0.1225,-0.3150,-0.7570,
14.372127,0.2340,-0.8140,-0.7526,1.1826,0.2617,-2.3093,-0.1225,-0.3150,-0.7570,
14.373553,0.2428,-0.8871,-0.8403,1.1826,0.2617,-2.3093,-0.1225,-0.3150,-0.7570,
14.374825,0.2120,-0.9474,-0.8796,1.1826,0.2617,-2.3093,-0.1225,-0.3150,-0.7570,
14.375924,0.1218,-0.9355,-0.8344,1.1826,0.2617,-2.3093,-0.1225,-0.3150,-0.7570,
14.377124,-0.0042,-0.7986,-0.7213,1.1826,0.2617,-2.3093,-0.1225,-0.3150,-0.7570,
14.409376,-0.0042,-0.7986,-0.7213,1.1826,0.2617,-2.3093,0.0106,-0.6091,-0.5408,
14.412024,-0.0042,-0.7986,-0.7213,-0.1263,-0.4514,-2.8613,0.0106,-0.6091,-0.5408,
14.449038,-0.0042,-0.7986,-0.7213,-0.1263,-0.4514,-2.8613,0.4623,-0.7145,-0.3086,
14.451077,-0.0680,-0.6799,-0.4943,-0.1263,-0.4514,-2.8613,0.4623,-0.7145,-0.3086,
14.452954,-0.0702,-0.8631,-0.3907,-0.1263,-0.4514,-2.8613,0.4623,-0.7145,-0.3086,
14.454158,0.0681,-1.3303,-0.8752,-0.1263,-0.4514,-2.8613,0.4623,-0.7145,-0.3086,
14.455404,0.4004,-1.5802,-1.0782,-0.1263,-0.4514,-2.8613,0.4623,-0.7145,-0.3086,
14.456685,0.4004,-1.5802,-1.0782,-1.3679,-0.9836,-0.7624,0.4623,-0.7145,-0.3086,
14.490806,0.4004,-1.5802,-1.0782,-1.3679,-0.9836,-0.7624,0.1544,0.3241,-0.4247,
14.493205,0.4004,-1.5802,-1.0782,-1.5465,-0.9576,-0.8164,0.1544,0.3241,-0.4247,
14.528718,0.4004,-1.5802,-1.0782,-1.5465,-0.9576,-0.8164,0.5688,1.2807,0.1474,
14.531270,0.4004,-1.5802,-1.0782,-1.8897,-1.8076,-0.3505,0.5688,1.2807,0.1474,
14.532437,0.2076,-1.1062,-0.5002,-1.8897,-1.8076,-0.3505,0.5688,1.2807,0.1474,
14.533810,-0.7335,-0.4923,0.0397,-1.8897,-1.8076,-0.3505,0.5688,1.2807,0.1474,
14.534949,-0.8940,-0.5839,-0.0411,-1.8897,-1.8076,-0.3505,0.5688,1.2807,0.1474,
14.536219,-0.0465,-1.0053,-0.4877,-1.8897,-1.8076,-0.3505,0.5688,1.2807,0.1474,
14.567531,-0.0465,-1.0053,-0.4877,-1.8897,-1.8076,-0.3505,1.1686,1.9380,0.8249,
14.569275,-0.0465,-1.0053,-0.4877,-1.9122,-1.5273,-0.8562,1.1686,1.9380,0.8249,
14.607809,-0.0465,-1.0053,-0.4877,-1.9122,-1.5273,-0.8562,1.3124,2.5431,0.5191,
14.610365,-0.0465,-1.0053,-0.4877,-3.2117,-0.0247,1.1825,1.3124,2.5431,0.5191,
14.611707,0.4629,-1.2010,-0.1875,-3.2117,-0.0247,1.1825,1.3124,2.5431,0.5191,
14.612697,0.4087,-0.9853,0.1954,-3.2117,-0.0247,1.1825,1.3124,2.5431,0.5191,
14.613823,0.2870,-0.8314,-0.0187,-3.2117,-0.0247,1.1825,1.3124,2.5431,0.5191,
14.615094,0.1409,-0.8597,-0.2825,-3.2117,-0.0247,1.1825,1.3124,2.5431,0.5191,
14.646902,0.1409,-0.8597,-0.2825,-3.2117,-0.0247,1.1825,1.2357,1.5896,0.4616,
14.648709,0.1409,-0.8597,-0.2825,1.0260,0.5276,2.5777,1.2357,1.5896,0.4616,
14.687638,0.1409,-0.8597,-0.2825,1.0260,0.5276,2.5777,0.9672,1.0059,0.7663,
14.690438,0.1409,-0.8597,-0.2825,-1.2691,-0.2194,0.4926,0.9672,1.0059,0.7663,
14.692927,0.0205,-0.9714,-0.2615,-1.2691,-0.2194,0.4926,0.9672,1.0059,0.7663,
14.694076,0.0107,-1.0212,-0.1687,-1.2691,-0.2194,0.4926,0.9672,1.0059,0.7663,
14.695330,0.0425,-0.9606,-0.1816,-1.2691,-0.2194,0.4926,0.9672,1.0059,0.7663,
14.696519,0.0732,-0.9188,-0.2200,-1.2691,-0.2194,0.4926,0.9672,1.0059,0.7663,
14.725587,0.0732,-0.9188,-0.2200,-1.2691,-0.2194,0.4926,0.7829,1.0730,0.9303,
14.727515,0.0732,-0.9188,-0.2200,-1.0002,-0.0949,0.1367,0.7829,1.0730,0.9303,
14.766334,0.0732,-0.9188,-0.2200,-1.0002,-0.0949,0.1367,0.7126,0.7481,0.8686,
14.768774,0.0732,-0.9188,-0.2200,0.2229,0.2465,0.0267,0.7126,0.7481,0.8686,
14.770248,0.1133,-0.9543,-0.1848,0.2229,0.2465,0.0267,0.7126,0.7481,0.8686,
14.771244,0.1795,-1.0031,-0.1474,0.2229,0.2465,0.0267,0.7126,0.7481,0.8686,
14.772366,0.2697,-0.9821,-0.1186,0.2229,0.2465,0.0267,0.7126,0.7481,0.8686,
14.773541,0.3144,-0.9364,-0.0956,0.2229,0.2465,0.0267,0.7126,0.7481,0.8686,
14.805887,0.3144,-0.9364,-0.0956,0.3974,0.3101,-0.2705,0.7126,0.7481,0.8686,
14.808399,0.3144,-0.9364,-0.0956,0.3974,0.3101,-0.2705,0.7734,0.1398,0.4989,
14.845653,0.3144,-0.9364,-0.0956,0.3974,0.3101,-0.2705,0.8810,-0.0530,0.1847,
14.848385,0.3144,-0.9364,-0.0956,2.1247,0.5338,0.2428,0.8810,-0.0530,0.1847,
14.849566,0.2992,-0.9027,-0.0761,2.1247,0.5338,0.2428,0.8810,-0.0530,0.1847,
14.850954,0.2401,-0.8973,-0.1042,2.1247,0.5338,0.2428,0.8810,-0.0530,0.1847,
14.852304,0.1463,-0.9037,-0.1452,2.1247,0.5338,0.2428,0.8810,-0.0530,0.1847,
14.853632,0.1111,-0.9179,-0.1455,2.1247,0.5338,0.2428,0.8810,-0.0530,0.1847,
14.884769,0.1111,-0.9179,-0.1455,2.1247,0.5338,0.2428,0.8469,-0.0626,0.1410,
14.887024,0.1111,-0.9179,-0.1455,0.9064,0.8917,-0.4179,0.8469,-0.0626,0.1410,
14.924122,0.1111,-0.9179,-0.1455,0.9064,0.8917,-0.4179,0.7595,-0.0988,0.1634,
14.926296,0.1111,-0.9179,-0.1455,0.6008,0.5527,-0.6562,0.7595,-0.0988,0.1634,
14.927664,0.1160,-0.9306,-0.1499,0.6008,0.5527,-0.6562,0.7595,-0.0988,0.1634,
14.928934,0.1426,-0.9469,-0.1218,0.6008,0.5527,-0.6562,0.7595,-0.0988,0.1634,
14.931305,0.1282,-0.9504,-0.1103,0.6008,0.5527,-0.6562,0.7595,-0.0988,0.1634,
14.932094,0.0874,-0.9396,-0.1120,0.6008,0.5527,-0.6562,0.7595,-0.0988,0.1634,
14.964072,0.0874,-0.9396,-0.1120,0.6008,0.5527,-0.6562,0.6967,-0.0999,0.1399,
14.966664,0.0874,-0.9396,-0.1120,0.6460,0.5593,-0.9087,0.6967,-0.0999,0.1399,
15.003350,0.0874,-0.9396,-0.1120,0.6460,0.5593,-0.9087,0.6807,-0.0349,0.1836,
15.005705,0.0874,-0.9396,-0.1120,-0.0572,0.4474,-0.8866,0.6807,-0.0349,0.1836,
15.010255,0.0483,-0.9513,-0.1017,-0.0572,0.4474,-0.8866,0.6807,-0.0349,0.1836,
15.011605,0.0136,-0.9719,-0.0854,-0.0572,0.4474,-0.8866,0.6807,-0.0349,0.1836,
15.012314,0.0024,-0.9672,-0.0883,-0.0572,0.4474,-0.8866,0.6807,-0.0349,0.1836,
15.013018,0.0004,-0.9750,-0.0221,-0.0572,0.4474,-0.8866,0.6807,-0.0349,0.1836,
15.042567,0.0004,-0.9750,-0.0221,-0.0572,0.4474,-0.8866,0.7030,0.0898,0.3072,
15.044191,0.0004,-0.9750,-0.0221,0.0614,0.4445,-1.1422,0.7030,0.0898,0.3072,
15.083659,0.0004,-0.9750,-0.0221,-0.2506,0.2996,-0.7431,0.7030,0.0898,0.3072,
15.085998,0.0004,-0.9750,-0.0221,-0.2506,0.2996,-0.7431,0.8064,0.2250,0.4648,
15.087392,-0.0064,-0.9621,0.0263,-0.2506,0.2996,-0.7431,0.8064,0.2250,0.4648,
15.088677,-0.0247,-0.9672,0.0111,-0.2506,0.2996,-0.7431,0.8064,0.2250,0.4648,
15.089687,0.0012,-1.0178,-0.0108,-0.2506,0.2996,-0.7431,0.8064,0.2250,0.4648,
15.091265,0.0759,-1.0642,0.0004,-0.2506,0.2996,-0.7431,0.8064,0.2250,0.4648,
15.122341,0.0759,-1.0642,0.0004,0.1577,-0.1867,-0.7553,0.8064,0.2250,0.4648,
15.124872,0.0759,-1.0642,0.0004,0.1577,-0.1867,-0.7553,0.7744,0.3518,0.5660,
15.161585,0.0759,-1.0642,0.0004,0.1577,-0.1867,-0.7553,0.8810,0.4093,0.4808,
15.164279,0.0759,-1.0642,0.0004,1.3619,-1.3754,-0.9082,0.8810,0.4093,0.4808,
15.165712,0.1316,-1.0989,0.0373,1.3619,-1.3754,-0.9082,0.8810,0.4093,0.4808,
15.166872,0.1319,-1.1495,0.0417,1.3619,-1.3754,-0.9082,0.8810,0.4093,0.4808,
15.167990,0.1030,-1.1614,-0.0260,1.3619,-1.3754,-0.9082,0.8810,0.4093,0.4808,
15.169121,0.0762,-1.1282,-0.1247,1.3619,-1.3754,-0.9082,0.8810,0.4093,0.4808,
15.201318,0.0762,-1.1282,-0.1247,1.3619,-1.3754,-0.9082,0.8692,0.3071,0.5724,
15.203602,0.0762,-1.1282,-0.1247,1.5714,-1.4010,-1.2198,0.8692,0.3071,0.5724,
15.241564,0.0762,-1.1282,-0.1247,1.5714,-1.4010,-1.2198,0.4218,-0.1212,0.3519,
15.244174,0.0762,-1.1282,-0.1247,2.4568,-2.0342,-3.1870,0.4218,-0.1212,0.3519,
15.245641,0.1729,-1.1587,-0.2007,2.4568,-2.0342,-3.1870,0.4218,-0.1212,0.3519,
15.246762,0.3620,-1.3178,-0.1899,2.4568,-2.0342,-3.1870,0.4218,-0.1212,0.3519,
15.248033,0.4160,-1.4443,-0.1066,2.4568,-2.0342,-3.1870,0.4218,-0.1212,0.3519,
15.249273,0.3031,-1.3884,-0.0856,2.4568,-2.0342,-3.1870,0.4218,-0.1212,0.3519,
15.280932,0.3031,-1.3884,-0.0856,2.4568,-2.0342,-3.1870,-0.2685,-0.2128,-0.1861,
15.283293,0.3031,-1.3884,-0.0856,2.3330,-1.9821,-3.0355,-0.2685,-0.2128,-0.1861,
15.320536,0.3031,-1.3884,-0.0856,2.3330,-1.9821,-3.0355,-1.2666,-0.3854,-0.1999,
