
time,gFx,gFy,gFz,ax,ay,az,wx,wy,wz,
0.043273,0.0000,0.0000,0.0000,-1.3854,1.8441,-0.9794,0.0000,0.0000,0.0000,
0.103093,0.0000,0.0000,0.0000,-1.2842,1.8382,-0.9938,0.0000,0.0000,0.0000,
0.163238,0.0000,0.0000,0.0000,-1.2271,1.9035,-1.0048,0.0000,0.0000,0.0000,
0.223529,0.0000,0.0000,0.0000,-1.1821,2.0855,-1.0172,0.0000,0.0000,0.0000,
0.283610,0.0000,0.0000,0.0000,-1.1821,2.0855,-1.0172,-0.2120,0.2509,-0.0344,
0.284477,0.0000,0.0000,0.0000,-1.0708,2.2873,-1.0341,-0.2120,0.2509,-0.0344,
0.343775,0.0000,0.0000,0.0000,-1.0708,2.2873,-1.0341,-0.1381,0.3566,0.0438,
0.344661,0.0000,0.0000,0.0000,-0.8811,2.4652,-1.0538,-0.1381,0.3566,0.0438,
0.403047,0.0000,0.0000,0.0000,-0.8811,2.4652,-1.0538,-0.1058,0.3322,0.0609,
0.403876,0.0000,0.0000,0.0000,-0.6522,2.6267,-1.0701,-0.1058,0.3322,0.0609,
0.431266,-0.1764,-0.9799,0.1302,-0.6522,2.6267,-1.0701,-0.1058,0.3322,0.0609,
0.465202,-0.1764,-0.9799,0.1302,-0.6522,2.6267,-1.0701,-0.1155,0.0945,0.0615,
0.466100,-0.1764,-0.9799,0.1302,-2.2866,-9.1921,-8.5060,-0.1155,0.0945,0.0615,
0.490243,-0.1153,-0.9689,0.1903,-2.2866,-9.1921,-8.5060,-0.1155,0.0945,0.0615,
0.491042,-0.1148,-1.0110,0.2003,-2.2866,-9.1921,-8.5060,-0.1155,0.0945,0.0615,
0.491602,-0.1187,-1.1456,0.1336,-2.2866,-9.1921,-8.5060,-0.1155,0.0945,0.0615,
0.524196,-0.1187,-1.1456,0.1336,-2.2866,-9.1921,-8.5060,-0.1821,-0.0796,-0.3453,
0.525244,-0.1187,-1.1456,0.1336,-1.7711,-10.6662,-8.4621,-0.1821,-0.0796,-0.3453,
0.550454,-0.1407,-1.1952,-0.0132,-1.7711,-10.6662,-8.4621,-0.1821,-0.0796,-0.3453,
0.551625,-0.0760,-1.1021,0.0853,-1.7711,-10.6662,-8.4621,-0.1821,-0.0796,-0.3453,
0.552403,0.0000,-0.9995,0.1407,-1.7711,-10.6662,-8.4621,-0.1821,-0.0796,-0.3453,
0.583149,0.0000,-0.9995,0.1407,-1.7711,-10.6662,-8.4621,-0.0270,0.1715,-0.0631,
0.584186,0.0000,-0.9995,0.1407,-0.5300,-9.1077,-8.3891,-0.0270,0.1715,-0.0631,
0.610874,0.0000,-1.0122,0.1779,-0.5300,-9.1077,-8.3891,-0.0270,0.1715,-0.0631,
0.611716,-0.0872,-1.0586,0.1642,-0.5300,-9.1077,-8.3891,-0.0270,0.1715,-0.0631,
0.612226,-0.2038,-1.0647,0.0955,-0.5300,-9.1077,-8.3891,-0.0270,0.1715,-0.0631,
0.642920,-0.2038,-1.0647,0.0955,-0.5300,-9.1077,-8.3891,-0.2212,0.2747,0.3218,
0.644037,-0.2038,-1.0647,0.0955,-2.3933,-9.6458,-8.8307,-0.2212,0.2747,0.3218,
0.670448,-0.2546,-1.0185,-0.0007,-2.3933,-9.6458,-8.8307,-0.2212,0.2747,0.3218,
0.671725,-0.2453,-0.9467,-0.0789,-2.3933,-9.6458,-8.8307,-0.2212,0.2747,0.3218,
0.672574,-0.2052,-0.9272,-0.1031,-2.3933,-9.6458,-8.8307,-0.2212,0.2747,0.3218,
0.703864,-0.2052,-0.9272,-0.1031,-2.2241,-8.0255,-10.7571,-0.2212,0.2747,0.3218,
0.706078,-0.2052,-0.9272,-0.1031,-2.2241,-8.0255,-10.7571,-0.3831,0.2173,0.0041,
0.733469,-0.1959,-0.9362,-0.1109,-2.2241,-8.0255,-10.7571,-0.3831,0.2173,0.0041,
0.735251,-0.2370,-0.9455,-0.1200,-2.2241,-8.0255,-10.7571,-0.3831,0.2173,0.0041,
0.736488,-0.2609,-0.9264,-0.1371,-2.2241,-8.0255,-10.7571,-0.3831,0.2173,0.0041,
0.766252,-0.2609,-0.9264,-0.1371,-2.2241,-8.0255,-10.7571,-0.1998,0.0933,-0.0557,
0.767981,-0.2609,-0.9264,-0.1371,-2.6518,-7.7510,-11.0590,-0.1998,0.0933,-0.0557,
0.790603,-0.2763,-0.8979,-0.1341,-2.6518,-7.7510,-11.0590,-0.1998,0.0933,-0.0557,
0.792040,-0.3122,-0.9362,-0.1092,-2.6518,-7.7510,-11.0590,-0.1998,0.0933,-0.0557,
0.792902,-0.2900,-0.9919,-0.1094,-2.6518,-7.7510,-11.0590,-0.1998,0.0933,-0.0557,
0.823599,-0.2900,-0.9919,-0.1094,-2.6518,-7.7510,-11.0590,-0.2206,0.3969,0.2540,
0.824885,-0.2900,-0.9919,-0.1094,-2.7713,-8.2039,-10.7610,-0.2206,0.3969,0.2540,
0.850505,-0.2604,-1.0344,-0.1038,-2.7713,-8.2039,-10.7610,-0.2206,0.3969,0.2540,
0.851956,-0.2533,-1.0376,-0.1048,-2.7713,-8.2039,-10.7610,-0.2206,0.3969,0.2540,
0.852906,-0.2399,-0.9758,-0.0985,-2.7713,-8.2039,-10.7610,-0.2206,0.3969,0.2540,
0.883554,-0.2399,-0.9758,-0.0985,-2.7713,-8.2039,-10.7610,-0.1852,0.4140,0.5276,
0.884831,-0.2399,-0.9758,-0.0985,-1.9767,-7.8638,-10.6160,-0.1852,0.4140,0.5276,
0.911320,-0.2414,-0.9245,-0.1319,-1.9767,-7.8638,-10.6160,-0.1852,0.4140,0.5276,
0.912618,-0.2565,-0.9003,-0.1505,-1.9767,-7.8638,-10.6160,-0.1852,0.4140,0.5276,
0.913897,-0.2724,-0.9025,-0.1268,-1.9767,-7.8638,-10.6160,-0.1852,0.4140,0.5276,
0.943726,-0.2724,-0.9025,-0.1268,-1.9767,-7.8638,-10.6160,-0.2182,0.3688,0.0994,
0.945012,-0.2724,-0.9025,-0.1268,-2.0189,-6.9453,-10.8416,-0.2182,0.3688,0.0994,
0.970508,-0.2619,-0.9010,-0.1029,-2.0189,-6.9453,-10.8416,-0.2182,0.3688,0.0994,
0.971854,-0.2570,-0.9110,-0.0958,-2.0189,-6.9453,-10.8416,-0.2182,0.3688,0.0994,
0.972597,-0.2485,-0.9257,-0.0950,-2.0189,-6.9453,-10.8416,-0.2182,0.3688,0.0994,
1.005024,-0.2485,-0.9257,-0.0950,-2.0189,-6.9453,-10.8416,-0.2078,0.4232,0.0066,
1.006314,-0.2485,-0.9257,-0.0950,-1.5401,-6.9851,-10.4715,-0.2078,0.4232,0.0066,
1.030356,-0.2646,-0.9450,-0.0784,-1.5401,-6.9851,-10.4715,-0.2078,0.4232,0.0066,
1.031560,-0.2756,-0.9545,-0.0655,-1.5401,-6.9851,-10.4715,-0.2078,0.4232,0.0066,
1.032584,-0.2846,-0.9733,-0.0660,-1.5401,-6.9851,-10.4715,-0.2078,0.4232,0.0066,
1.064015,-0.2846,-0.9733,-0.0660,-1.5401,-6.9851,-10.4715,-0.0685,0.4873,0.1776,
1.065371,-0.2846,-0.9733,-0.0660,-1.6018,-7.2943,-10.1186,-0.0685,0.4873,0.1776,
1.090955,-0.3222,-0.9792,-0.0454,-1.6018,-7.2943,-10.1186,-0.0685,0.4873,0.1776,
1.092735,-0.3567,-0.9597,-0.0540,-1.6018,-7.2943,-10.1186,-0.0685,0.4873,0.1776,
1.093580,-0.3608,-0.9389,-0.0481,-1.6018,-7.2943,-10.1186,-0.0685,0.4873,0.1776,
1.122694,-0.3608,-0.9389,-0.0481,-1.6018,-7.2943,-10.1186,0.1337,0.5063,-0.0197,
1.125018,-0.3608,-0.9389,-0.0481,-2.0281,-6.8993,-9.8842,0.1337,0.5063,-0.0197,
1.150986,-0.3308,-0.9455,-0.0259,-2.0281,-6.8993,-9.8842,0.1337,0.5063,-0.0197,
1.152220,-0.2819,-0.9602,-0.0086,-2.0281,-6.8993,-9.8842,0.1337,0.5063,-0.0197,
1.153332,-0.2455,-0.9550,-0.0166,-2.0281,-6.8993,-9.8842,0.1337,0.5063,-0.0197,
1.185735,-0.2455,-0.9550,-0.0166,-2.0281,-6.8993,-9.8842,0.2040,0.6895,-0.0918,
1.187021,-0.2455,-0.9550,-0.0166,-0.5628,-7.0858,-9.5225,0.2040,0.6895,-0.0918,
1.211608,-0.2839,-0.9826,-0.0264,-0.5628,-7.0858,-9.5225,0.2040,0.6895,-0.0918,
1.213923,-0.3691,-0.9990,-0.0650,-0.5628,-7.0858,-9.5225,0.2040,0.6895,-0.0918,
1.215810,-0.4595,-1.0039,-0.0616,-0.5628,-7.0858,-9.5225,0.2040,0.6895,-0.0918,
1.242398,-0.4595,-1.0039,-0.0616,-0.5628,-7.0858,-9.5225,0.1942,0.5606,0.0072,
1.244812,-0.4595,-1.0039,-0.0616,-2.2695,-7.5998,-9.8861,0.1942,0.5606,0.0072,
1.270071,-0.4786,-0.9802,-0.0193,-2.2695,-7.5998,-9.8861,0.1942,0.5606,0.0072,
1.271349,-0.4490,-0.9531,0.0235,-2.2695,-7.5998,-9.8861,0.1942,0.5606,0.0072,
1.272215,-0.4141,-0.9443,-0.0489,-2.2695,-7.5998,-9.8861,0.1942,0.5606,0.0072,
1.303059,-0.4141,-0.9443,-0.0489,-2.2695,-7.5998,-9.8861,0.0390,0.3285,-0.1553,
1.304854,-0.4141,-0.9443,-0.0489,-1.5388,-7.0093,-9.6867,0.0390,0.3285,-0.1553,
1.334860,-0.4041,-1.0723,-0.1546,-1.5388,-7.0093,-9.6867,0.0390,0.3285,-0.1553,
1.336752,-0.3958,-1.2829,-0.1131,-1.5388,-7.0093,-9.6867,0.0390,0.3285,-0.1553,
1.337618,-0.3095,-1.2260,-0.1085,-1.5388,-7.0093,-9.6867,0.0390,0.3285,-0.1553,
1.362954,-0.3095,-1.2260,-0.1085,-1.5388,-7.0093,-9.6867,0.0433,0.2106,0.2979,
1.364250,-0.3095,-1.2260,-0.1085,-0.3070,-9.8280,-10.2258,0.0433,0.2106,0.2979,
1.390295,-0.2944,-1.0454,-0.2045,-0.3070,-9.8280,-10.2258,0.0433,0.2106,0.2979,
1.392108,-0.2910,-0.9526,-0.2963,-0.3070,-9.8280,-10.2258,0.0433,0.2106,0.2979,
1.393447,-0.2555,-0.9262,-0.3657,-0.3070,-9.8280,-10.2258,0.0433,0.2106,0.2979,
1.430341,-0.2555,-0.9262,-0.3657,-0.3070,-9.8280,-10.2258,0.1117,-0.3538,-0.1468,
1.432717,-0.2555,-0.9262,-0.3657,0.2258,-6.8513,-12.7364,0.1117,-0.3538,-0.1468,
1.452792,-0.1004,-0.8385,-0.3389,0.2258,-6.8513,-12.7364,0.1117,-0.3538,-0.1468,
1.453930,0.0247,-0.7650,-0.2282,0.2258,-6.8513,-12.7364,0.1117,-0.3538,-0.1468,
1.454686,0.0958,-0.8404,-0.0528,0.2258,-6.8513,-12.7364,0.1117,-0.3538,-0.1468,
1.482528,0.0958,-0.8404,-0.0528,0.2258,-6.8513,-12.7364,0.5344,-0.1987,-0.0722,
1.483760,0.0958,-0.8404,-0.0528,3.4500,-6.0704,-9.7460,0.5344,-0.1987,-0.0722,
1.511251,0.0672,-1.0640,-0.0112,3.4500,-6.0704,-9.7460,0.5344,-0.1987,-0.0722,
1.512378,-0.0735,-1.2853,0.0073,3.4500,-6.0704,-9.7460,0.5344,-0.1987,-0.0722,
1.513247,-0.1632,-1.3083,-0.0366,3.4500,-6.0704,-9.7460,0.5344,-0.1987,-0.0722,
1.542921,-0.1632,-1.3083,-0.0366,3.4500,-6.0704,-9.7460,0.7043,-0.1749,0.2833,
1.544642,-0.1632,-1.3083,-0.0366,0.9138,-11.0288,-9.6673,0.7043,-0.1749,0.2833,
1.571815,-0.2460,-1.1624,-0.1512,0.9138,-11.0288,-9.6673,0.7043,-0.1749,0.2833,
1.573591,-0.2795,-0.9721,-0.0662,0.9138,-11.0288,-9.6673,0.7043,-0.1749,0.2833,
1.575489,-0.2367,-0.8852,-0.0217,0.9138,-11.0288,-9.6673,0.7043,-0.1749,0.2833,
1.602704,-0.2367,-0.8852,-0.0217,0.9138,-11.0288,-9.6673,0.4770,-0.0832,-0.3990,
1.604698,-0.2367,-0.8852,-0.0217,0.1505,-7.1777,-9.5847,0.4770,-0.0832,-0.3990,
1.630554,-0.2177,-0.8937,-0.0584,0.1505,-7.1777,-9.5847,0.4770,-0.0832,-0.3990,
1.632524,-0.2020,-0.8849,-0.0542,0.1505,-7.1777,-9.5847,0.4770,-0.0832,-0.3990,
1.633676,-0.1881,-0.8817,0.0010,0.1505,-7.1777,-9.5847,0.4770,-0.0832,-0.3990,
1.662760,-0.1881,-0.8817,0.0010,0.1505,-7.1777,-9.5847,0.0744,-0.1773,-0.0625,
1.664629,-0.1881,-0.8817,0.0010,0.5233,-7.1560,-9.3906,0.0744,-0.1773,-0.0625,
1.690212,-0.1373,-0.8800,0.0599,0.5233,-7.1560,-9.3906,0.0744,-0.1773,-0.0625,
1.691918,-0.0916,-0.8720,0.0726,0.5233,-7.1560,-9.3906,0.0744,-0.1773,-0.0625,
1.693086,-0.0948,-0.8654,0.0679,0.5233,-7.1560,-9.3906,0.0744,-0.1773,-0.0625,
1.722453,-0.0948,-0.8654,0.0679,0.5233,-7.1560,-9.3906,0.1716,0.0560,-0.0283,
1.724324,-0.0948,-0.8654,0.0679,1.3819,-6.9822,-8.7464,0.1716,0.0560,-0.0283,
1.753331,-0.1116,-0.8742,0.0887,1.3819,-6.9822,-8.7464,0.1716,0.0560,-0.0283,
1.755159,-0.1292,-0.9067,0.1160,1.3819,-6.9822,-8.7464,0.1716,0.0560,-0.0283,
1.756708,-0.1551,-0.9172,0.1353,1.3819,-6.9822,-8.7464,0.1716,0.0560,-0.0283,
1.782605,-0.1551,-0.9172,0.1353,1.3819,-6.9822,-8.7464,0.2424,0.0182,0.1208,
1.784524,-0.1551,-0.9172,0.1353,0.8514,-7.5455,-8.0792,0.2424,0.0182,0.1208,
1.810496,-0.1781,-0.9076,0.1520,0.8514,-7.5455,-8.0792,0.2424,0.0182,0.1208,
1.812512,-0.1964,-0.9008,0.1495,0.8514,-7.5455,-8.0792,0.2424,0.0182,0.1208,
1.814098,-0.2245,-0.9216,0.1344,0.8514,-7.5455,-8.0792,0.2424,0.0182,0.1208,
1.842405,-0.2245,-0.9216,0.1344,0.8514,-7.5455,-8.0792,0.1380,-0.2237,0.0780,
1.844156,-0.2245,-0.9216,0.1344,0.1288,-7.6597,-8.1100,0.1380,-0.2237,0.0780,
1.872168,-0.2475,-0.9584,0.1082,0.1288,-7.6597,-8.1100,0.1380,-0.2237,0.0780,
1.874397,-0.2458,-1.0007,0.0774,0.1288,-7.6597,-8.1100,0.1380,-0.2237,0.0780,
1.876271,-0.2064,-1.0486,0.0980,0.1288,-7.6597,-8.1100,0.1380,-0.2237,0.0780,
1.903694,-0.2064,-1.0486,0.0980,0.2212,-8.8796,-8.4836,0.1380,-0.2237,0.0780,
1.905622,-0.2064,-1.0486,0.0980,0.2212,-8.8796,-8.4836,0.0628,-0.1083,-0.2146,
1.930250,-0.1647,-1.0830,0.1661,0.2212,-8.8796,-8.4836,0.0628,-0.1083,-0.2146,
1.932540,-0.1432,-1.0701,0.2162,0.2212,-8.8796,-8.4836,0.0628,-0.1083,-0.2146,
1.934293,-0.1722,-1.0290,0.2651,0.2212,-8.8796,-8.4836,0.0628,-0.1083,-0.2146,
1.964004,-0.1722,-1.0290,0.2651,0.2212,-8.8796,-8.4836,0.0030,-0.4815,0.2979,
1.965884,-0.1722,-1.0290,0.2651,0.4163,-8.6401,-6.8710,0.0030,-0.4815,0.2979,
1.990501,-0.2111,-0.9890,0.3169,0.4163,-8.6401,-6.8710,0.0030,-0.4815,0.2979,
1.992833,-0.2372,-0.9511,0.3506,0.4163,-8.6401,-6.8710,0.0030,-0.4815,0.2979,
1.994597,-0.1945,-0.9303,0.3897,0.4163,-8.6401,-6.8710,0.0030,-0.4815,0.2979,
2.022700,-0.1945,-0.9303,0.3897,0.4163,-8.6401,-6.8710,-0.2426,-0.7124,-0.1187,
2.024589,-0.1945,-0.9303,0.3897,-0.1533,-7.5853,-5.7076,-0.2426,-0.7124,-0.1187,
2.056006,-0.1737,-1.1813,0.3757,-0.1533,-7.5853,-5.7076,-0.2426,-0.7124,-0.1187,
2.058730,-0.1297,-1.3208,-0.0430,-0.1533,-7.5853,-5.7076,-0.2426,-0.7124,-0.1187,
2.061139,-0.0926,-1.1944,-0.0535,-0.1533,-7.5853,-5.7076,-0.2426,-0.7124,-0.1187,
2.084173,-0.0926,-1.1944,-0.0535,0.7262,-9.8148,-10.0073,-0.2426,-0.7124,-0.1187,
2.086557,-0.0926,-1.1944,-0.0535,0.7262,-9.8148,-10.0073,-0.3342,0.1819,-0.4381,
2.111180,-0.0347,-1.0479,0.0186,0.7262,-9.8148,-10.0073,-0.3342,0.1819,-0.4381,
2.113283,-0.0726,-1.0874,-0.0472,0.7262,-9.8148,-10.0073,-0.3342,0.1819,-0.4381,
2.115192,-0.1410,-1.0554,0.0017,0.7262,-9.8148,-10.0073,-0.3342,0.1819,-0.4381,
2.143948,-0.1410,-1.0554,0.0017,0.2342,-8.2481,-9.4262,-0.3342,0.1819,-0.4381,
2.146552,-0.1410,-1.0554,0.0017,0.2342,-8.2481,-9.4262,-0.2316,-0.1523,0.2246,
2.173263,-0.1705,-0.9475,-0.0464,0.2342,-8.2481,-9.4262,-0.2316,-0.1523,0.2246,
2.175924,-0.1840,-0.8409,-0.1832,0.2342,-8.2481,-9.4262,-0.2316,-0.1523,0.2246,
2.178747,-0.2678,-0.7652,-0.2663,0.2342,-8.2481,-9.4262,-0.2316,-0.1523,0.2246,
2.203702,-0.2678,-0.7652,-0.2663,-1.0840,-5.0756,-11.9866,-0.2316,-0.1523,0.2246,
2.206178,-0.2678,-0.7652,-0.2663,-1.0840,-5.0756,-11.9866,-0.5541,-0.2152,-0.1119,
2.235322,-0.3540,-0.7400,-0.2878,-1.0840,-5.0756,-11.9866,-0.5541,-0.2152,-0.1119,
2.236895,-0.3750,-0.8385,-0.2736,-1.0840,-5.0756,-11.9866,-0.5541,-0.2152,-0.1119,
2.237986,-0.3147,-0.9944,-0.2167,-1.0840,-5.0756,-11.9866,-0.5541,-0.2152,-0.1119,
2.263176,-0.3147,-0.9944,-0.2167,-1.0840,-5.0756,-11.9866,-0.3739,-0.0472,-0.3532,
2.264854,-0.3147,-0.9944,-0.2167,-1.6149,-6.9508,-11.4084,-0.3739,-0.0472,-0.3532,
2.290575,-0.2463,-1.0606,-0.1314,-1.6149,-6.9508,-11.4084,-0.3739,-0.0472,-0.3532,
2.292978,-0.2231,-1.0488,-0.0850,-1.6149,-6.9508,-11.4084,-0.3739,-0.0472,-0.3532,
2.295000,-0.2316,-1.0352,-0.1158,-1.6149,-6.9508,-11.4084,-0.3739,-0.0472,-0.3532,
2.323086,-0.2316,-1.0352,-0.1158,-1.6149,-6.9508,-11.4084,-0.3770,-0.0948,0.8031,
2.325413,-0.2316,-1.0352,-0.1158,-0.7591,-7.0940,-10.3317,-0.3770,-0.0948,0.8031,
2.351037,-0.2353,-0.9817,-0.1266,-0.7591,-7.0940,-10.3317,-0.3770,-0.0948,0.8031,
2.353693,-0.2235,-0.9328,-0.1231,-0.7591,-7.0940,-10.3317,-0.3770,-0.0948,0.8031,
2.355917,-0.1901,-0.8949,-0.1055,-0.7591,-7.0940,-10.3317,-0.3770,-0.0948,0.8031,
2.382759,-0.1901,-0.8949,-0.1055,-0.7591,-7.0940,-10.3317,-0.2182,0.1807,0.2051,
2.384942,-0.1901,-0.8949,-0.1055,-0.2542,-5.5504,-10.1566,-0.2182,0.1807,0.2051,
2.412183,-0.1869,-0.8546,-0.1033,-0.2542,-5.5504,-10.1566,-0.2182,0.1807,0.2051,
2.414402,-0.2287,-0.8436,-0.1173,-0.2542,-5.5504,-10.1566,-0.2182,0.1807,0.2051,
2.415686,-0.2978,-0.8698,-0.1129,-0.2542,-5.5504,-10.1566,-0.2182,0.1807,0.2051,
2.442814,-0.2978,-0.8698,-0.1129,-0.2542,-5.5504,-10.1566,-0.2768,0.2405,0.0206,
2.445163,-0.2978,-0.8698,-0.1129,-1.1262,-5.0968,-10.1180,-0.2768,0.2405,0.0206,
2.473510,-0.2981,-0.8852,-0.0897,-1.1262,-5.0968,-10.1180,-0.2768,0.2405,0.0206,
2.475870,-0.3032,-0.9426,-0.0281,-1.1262,-5.0968,-10.1180,-0.2768,0.2405,0.0206,
2.477876,-0.3218,-1.0132,0.0034,-1.1262,-5.0968,-10.1180,-0.2768,0.2405,0.0206,
2.506347,-0.3218,-1.0132,0.0034,-1.1818,-6.3847,-8.8952,-0.2768,0.2405,0.0206,
2.508867,-0.3218,-1.0132,0.0034,-1.1818,-6.3847,-8.8952,0.0873,0.3761,0.0927,
2.531250,-0.3225,-1.0574,0.0313,-1.1818,-6.3847,-8.8952,0.0873,0.3761,0.0927,
2.533430,-0.3315,-1.0339,0.0308,-1.1818,-6.3847,-8.8952,0.0873,0.3761,0.0927,
2.534689,-0.3269,-0.9738,0.0000,-1.1818,-6.3847,-8.8952,0.0873,0.3761,0.0927,
2.562878,-0.3269,-0.9738,0.0000,-1.1818,-6.3847,-8.8952,0.3188,0.4165,-0.0002,
2.564766,-0.3269,-0.9738,0.0000,-0.9713,-6.0718,-8.8958,0.3188,0.4165,-0.0002,
2.590847,-0.2941,-0.9286,-0.0054,-0.9713,-6.0718,-8.8958,0.3188,0.4165,-0.0002,
2.593223,-0.2406,-0.9301,0.0244,-0.9713,-6.0718,-8.8958,0.3188,0.4165,-0.0002,
2.595021,-0.2272,-0.9435,0.0181,-0.9713,-6.0718,-8.8958,0.3188,0.4165,-0.0002,
2.623257,-0.2272,-0.9435,0.0181,-0.9713,-6.0718,-8.8958,0.2168,0.5802,-0.1156,
2.625992,-0.2272,-0.9435,0.0181,0.2514,-5.8401,-8.6786,0.2168,0.5802,-0.1156,
2.650541,-0.2861,-0.9733,-0.0129,0.2514,-5.8401,-8.6786,0.2168,0.5802,-0.1156,
2.652480,-0.3709,-1.0039,-0.0134,0.2514,-5.8401,-8.6786,0.2168,0.5802,-0.1156,
2.654128,-0.3877,-0.9900,0.0567,0.2514,-5.8401,-8.6786,0.2168,0.5802,-0.1156,
2.682991,-0.3877,-0.9900,0.0567,0.2514,-5.8401,-8.6786,-0.0251,0.6260,0.0353,
2.685156,-0.3877,-0.9900,0.0567,-0.9931,-6.3585,-8.2262,-0.0251,0.6260,0.0353,
2.712538,-0.3840,-0.9689,-0.0511,-0.9931,-6.3585,-8.2262,-0.0251,0.6260,0.0353,
2.714683,-0.3985,-1.1568,-0.0941,-0.9931,-6.3585,-8.2262,-0.0251,0.6260,0.0353,
2.717052,-0.4722,-1.4449,-0.1407,-0.9931,-6.3585,-8.2262,-0.0251,0.6260,0.0353,
2.744297,-0.4722,-1.4449,-0.1407,-0.9931,-6.3585,-8.2262,0.0305,0.4940,0.5527,
2.745763,-0.4722,-1.4449,-0.1407,-1.4948,-10.8853,-10.0757,0.0305,0.4940,0.5527,
2.770609,-0.3569,-1.2577,-0.2179,-1.4948,-10.8853,-10.0757,0.0305,0.4940,0.5527,
2.773203,-0.3562,-0.9589,-0.4129,-1.4948,-10.8853,-10.0757,0.0305,0.4940,0.5527,
2.775044,-0.3110,-0.7945,-0.4517,-1.4948,-10.8853,-10.0757,0.0305,0.4940,0.5527,
2.802815,-0.3110,-0.7945,-0.4517,-1.4948,-10.8853,-10.0757,0.0384,-0.6110,-0.2152,
2.804801,-0.3110,-0.7945,-0.4517,0.1280,-4.4922,-13.1006,0.0384,-0.6110,-0.2152,
2.830311,-0.1617,-0.6816,-0.3855,0.1280,-4.4922,-13.1006,0.0384,-0.6110,-0.2152,
2.831653,0.0291,-0.7337,-0.0865,0.1280,-4.4922,-13.1006,0.0384,-0.6110,-0.2152,
2.832415,0.0977,-0.9863,-0.0088,0.1280,-4.4922,-13.1006,0.0384,-0.6110,-0.2152,
2.863714,0.0977,-0.9863,-0.0088,3.8387,-6.3655,-8.8600,0.0384,-0.6110,-0.2152,
2.866158,0.0977,-0.9863,-0.0088,3.8387,-6.3655,-8.8600,0.6132,-0.1009,-0.1083,
2.891563,-0.0410,-1.2865,0.0254,3.8387,-6.3655,-8.8600,0.6132,-0.1009,-0.1083,
2.893817,-0.2367,-1.4280,-0.0525,3.8387,-6.3655,-8.8600,0.6132,-0.1009,-0.1083,
2.895612,-0.3389,-1.3034,-0.1363,3.8387,-6.3655,-8.8600,0.6132,-0.1009,-0.1083,
2.924565,-0.3389,-1.3034,-0.1363,3.8387,-6.3655,-8.8600,0.8564,-0.2683,0.6046,
2.926632,-0.3389,-1.3034,-0.1363,-0.3799,-9.9421,-10.2526,0.8564,-0.2683,0.6046,
2.950752,-0.3862,-1.0251,-0.1319,-0.3799,-9.9421,-10.2526,0.8564,-0.2683,0.6046,
2.952964,-0.3042,-0.8253,-0.1038,-0.3799,-9.9421,-10.2526,0.8564,-0.2683,0.6046,
2.954114,-0.2504,-0.8018,-0.0611,-0.3799,-9.9421,-10.2526,0.8564,-0.2683,0.6046,
2.983338,-0.2504,-0.8018,-0.0611,0.3663,-5.2851,-9.6316,0.8564,-0.2683,0.6046,
2.985024,-0.2504,-0.8018,-0.0611,0.3663,-5.2851,-9.6316,0.2931,-0.1339,-0.6098,
3.010882,-0.2538,-0.8302,-0.0322,0.3663,-5.2851,-9.6316,0.2931,-0.1339,-0.6098,
3.012341,-0.2392,-0.8131,-0.0271,0.3663,-5.2851,-9.6316,0.2931,-0.1339,-0.6098,
3.013509,-0.1994,-0.8036,0.0310,0.3663,-5.2851,-9.6316,0.2931,-0.1339,-0.6098,
3.044520,-0.1994,-0.8036,0.0310,0.3663,-5.2851,-9.6316,0.0372,-0.3367,-0.0942,
3.046723,-0.1994,-0.8036,0.0310,0.6897,-5.2386,-8.7642,0.0372,-0.3367,-0.0942,
3.071946,-0.1761,-0.8275,0.0760,0.6897,-5.2386,-8.7642,0.0372,-0.3367,-0.0942,
3.074352,-0.1349,-0.8461,0.0967,0.6897,-5.2386,-8.7642,0.0372,-0.3367,-0.0942,
3.076241,-0.1752,-0.8558,0.1104,0.6897,-5.2386,-8.7642,0.0372,-0.3367,-0.0942,
3.103161,-0.1752,-0.8558,0.1104,0.8048,-5.7253,-8.0133,0.0372,-0.3367,-0.0942,
3.106055,-0.1752,-0.8558,0.1104,0.8048,-5.7253,-8.0133,0.0549,-0.0063,0.2570,
3.130724,-0.2196,-0.8659,0.1209,0.8048,-5.7253,-8.0133,0.0549,-0.0063,0.2570,
3.132722,-0.2240,-0.8693,0.1349,0.8048,-5.7253,-8.0133,0.0549,-0.0063,0.2570,
3.133712,-0.2140,-0.8834,0.1590,0.8048,-5.7253,-8.0133,0.0549,-0.0063,0.2570,
3.163661,-0.2140,-0.8834,0.1590,0.8048,-5.7253,-8.0133,0.1123,-0.4186,0.0475,
3.165836,-0.2140,-0.8834,0.1590,0.3870,-6.0389,-7.5595,0.1123,-0.4186,0.0475,
3.191668,-0.2196,-0.8981,0.1419,0.3870,-6.0389,-7.5595,0.1123,-0.4186,0.0475,
3.194165,-0.2397,-0.9025,0.0880,0.3870,-6.0389,-7.5595,0.1123,-0.4186,0.0475,
3.196067,-0.2529,-0.9328,0.0484,0.3870,-6.0389,-7.5595,0.1123,-0.4186,0.0475,
3.225539,-0.2529,-0.9328,0.0484,-0.2088,-6.4580,-8.6813,0.1123,-0.4186,0.0475,
3.228282,-0.2529,-0.9328,0.0484,-0.2088,-6.4580,-8.6813,-0.1216,-0.3050,-0.0893,
3.250957,-0.2333,-1.0061,0.0567,-0.2088,-6.4580,-8.6813,-0.1216,-0.3050,-0.0893,
3.252458,-0.2138,-1.0826,0.1075,-0.2088,-6.4580,-8.6813,-0.1216,-0.3050,-0.0893,
3.253501,-0.1869,-1.0928,0.1923,-0.2088,-6.4580,-8.6813,-0.1216,-0.3050,-0.0893,
3.282693,-0.1869,-1.0928,0.1923,-0.2088,-6.4580,-8.6813,-0.0282,-0.2256,-0.0753,
3.284752,-0.1869,-1.0928,0.1923,0.3095,-7.8832,-7.2589,-0.0282,-0.2256,-0.0753,
3.312146,-0.1815,-1.0574,0.2595,0.3095,-7.8832,-7.2589,-0.0282,-0.2256,-0.0753,
3.314492,-0.2204,-1.0247,0.3218,0.3095,-7.8832,-7.2589,-0.0282,-0.2256,-0.0753,
3.316082,-0.2932,-1.0124,0.3657,0.3095,-7.8832,-7.2589,-0.0282,-0.2256,-0.0753,
3.344075,-0.2932,-1.0124,0.3657,0.3095,-7.8832,-7.2589,0.1667,-1.0368,0.3768,
3.346217,-0.2932,-1.0124,0.3657,-0.9591,-7.1009,-5.6109,0.1667,-1.0368,0.3768,
3.370879,-0.4033,-1.2257,0.3701,-0.9591,-7.1009,-5.6109,0.1667,-1.0368,0.3768,
3.372290,-0.3159,-1.4109,0.0564,-0.9591,-7.1009,-5.6109,0.1667,-1.0368,0.3768,
3.373248,-0.1818,-1.1839,-0.0037,-0.9591,-7.1009,-5.6109,0.1667,-1.0368,0.3768,
3.403072,-0.1818,-1.1839,-0.0037,-0.9591,-7.1009,-5.6109,-0.1516,-0.0325,-0.3777,
3.405431,-0.1818,-1.1839,-0.0037,-0.0775,-8.6862,-9.2426,-0.1516,-0.0325,-0.3777,
3.431308,-0.0980,-0.8891,0.1200,-0.0775,-8.6862,-9.2426,-0.1516,-0.0325,-0.3777,
3.434291,-0.0740,-0.9555,0.0506,-0.0775,-8.6862,-9.2426,-0.1516,-0.0325,-0.3777,
3.435698,-0.1410,-1.0071,-0.0090,-0.0775,-8.6862,-9.2426,-0.1516,-0.0325,-0.3777,
3.464255,-0.1410,-1.0071,-0.0090,0.1528,-6.7969,-9.2743,-0.1516,-0.0325,-0.3777,
3.466945,-0.1410,-1.0071,-0.0090,0.1528,-6.7969,-9.2743,-0.3348,-0.3691,-0.0918,
3.494071,-0.1698,-0.9936,-0.0994,0.1528,-6.7969,-9.2743,-0.3348,-0.3691,-0.0918,
3.496885,-0.1827,-0.8646,-0.2304,0.1528,-6.7969,-9.2743,-0.3348,-0.3691,-0.0918,
3.498509,-0.2370,-0.7698,-0.2878,0.1528,-6.7969,-9.2743,-0.3348,-0.3691,-0.0918,
3.523516,-0.2370,-0.7698,-0.2878,-0.9408,-4.0966,-11.8964,-0.3348,-0.3691,-0.0918,
3.526582,-0.2370,-0.7698,-0.2878,-0.9408,-4.0966,-11.8964,-0.4717,-0.0936,-0.2604,
3.553845,-0.3259,-0.7691,-0.2819,-0.9408,-4.0966,-11.8964,-0.4717,-0.0936,-0.2604,
3.556571,-0.3310,-0.9018,-0.2402,-0.9408,-4.0966,-11.8964,-0.4717,-0.0936,-0.2604,
3.558734,-0.2792,-1.0764,-0.1691,-0.9408,-4.0966,-11.8964,-0.4717,-0.0936,-0.2604,
3.584236,-0.2792,-1.0764,-0.1691,-0.9408,-4.0966,-11.8964,-0.2041,0.1575,-0.0228,
3.588138,-0.2792,-1.0764,-0.1691,-1.3693,-6.8337,-10.6288,-0.2041,0.1575,-0.0228,
3.610752,-0.2296,-1.1182,-0.1065,-1.3693,-6.8337,-10.6288,-0.2041,0.1575,-0.0228,
3.614232,-0.2057,-1.0640,-0.0804,-1.3693,-6.8337,-10.6288,-0.2041,0.1575,-0.0228,
3.615306,-0.2064,-0.9961,-0.0899,-1.3693,-6.8337,-10.6288,-0.2041,0.1575,-0.0228,
3.643454,-0.2064,-0.9961,-0.0899,-0.4516,-5.9189,-9.7656,-0.2041,0.1575,-0.0228,
3.646195,-0.2064,-0.9961,-0.0899,-0.4516,-5.9189,-9.7656,-0.2475,0.1556,0.7830,
3.671277,-0.2458,-0.9282,-0.0855,-0.4516,-5.9189,-9.7656,-0.2475,0.1556,0.7830,
3.674026,-0.2709,-0.8974,-0.0845,-0.4516,-5.9189,-9.7656,-0.2475,0.1556,0.7830,
3.676047,-0.2788,-0.8698,-0.0765,-0.4516,-5.9189,-9.7656,-0.2475,0.1556,0.7830,
3.702901,-0.2788,-0.8698,-0.0765,-0.8984,-4.5536,-9.5270,-0.2475,0.1556,0.7830,
3.705591,-0.2788,-0.8698,-0.0765,-0.8984,-4.5536,-9.5270,-0.2328,0.4000,0.1691,
3.731114,-0.2814,-0.8277,-0.0733,-0.8984,-4.5536,-9.5270,-0.2328,0.4000,0.1691,
3.733882,-0.2819,-0.8070,-0.0806,-0.8984,-4.5536,-9.5270,-0.2328,0.4000,0.1691,
3.735294,-0.3115,-0.8453,-0.0677,-0.8984,-4.5536,-9.5270,-0.2328,0.4000,0.1691,
3.763308,-0.3115,-0.8453,-0.0677,-0.8984,-4.5536,-9.5270,-0.2243,0.3212,-0.0997,
3.766779,-0.3115,-0.8453,-0.0677,-0.9987,-4.1102,-9.2962,-0.2243,0.3212,-0.0997,
3.791924,-0.3310,-0.8852,-0.0232,-0.9987,-4.1102,-9.2962,-0.2243,0.3212,-0.0997,
3.794591,-0.3508,-0.9523,0.0503,-0.9987,-4.1102,-9.2962,-0.2243,0.3212,-0.0997,
3.796660,-0.3516,-1.0115,0.0806,-0.9987,-4.1102,-9.2962,-0.2243,0.3212,-0.0997,
3.823368,-0.3516,-1.0115,0.0806,-0.9987,-4.1102,-9.2962,0.0231,0.4720,0.1880,
3.828166,-0.3516,-1.0115,0.0806,-1.1856,-5.6542,-7.7500,0.0231,0.4720,0.1880,
3.850638,-0.3550,-1.0000,0.0469,-1.1856,-5.6542,-7.7500,0.0231,0.4720,0.1880,
3.853418,-0.3379,-0.9233,-0.0176,-1.1856,-5.6542,-7.7500,0.0231,0.4720,0.1880,
3.854965,-0.3247,-0.8676,-0.0730,-1.1856,-5.6542,-7.7500,0.0231,0.4720,0.1880,
3.883162,-0.3247,-0.8676,-0.0730,-1.1856,-5.6542,-7.7500,0.1685,0.2943,-0.0008,
3.886035,-0.3247,-0.8676,-0.0730,-0.6500,-4.2526,-9.1836,0.1685,0.2943,-0.0008,
3.911881,-0.3391,-0.8766,-0.0625,-0.6500,-4.2526,-9.1836,0.1685,0.2943,-0.0008,
3.914559,-0.3352,-0.9372,-0.0115,-0.6500,-4.2526,-9.1836,0.1685,0.2943,-0.0008,
3.916515,-0.3142,-0.9697,0.0134,-0.6500,-4.2526,-9.1836,0.1685,0.2943,-0.0008,
3.945571,-0.3142,-0.9697,0.0134,-0.6500,-4.2526,-9.1836,0.0848,0.5728,-0.0845,
3.948219,-0.3142,-0.9697,0.0134,-0.3553,-5.2445,-8.2718,0.0848,0.5728,-0.0845,
3.971499,-0.3313,-0.9868,0.0247,-0.3553,-5.2445,-8.2718,0.0848,0.5728,-0.0845,
3.974332,-0.4033,-0.9912,0.0420,-0.3553,-5.2445,-8.2718,0.0848,0.5728,-0.0845,
3.976218,-0.4762,-0.9804,-0.0027,-0.3553,-5.2445,-8.2718,0.0848,0.5728,-0.0845,
4.003340,-0.4762,-0.9804,-0.0027,-0.3553,-5.2445,-8.2718,-0.1974,0.4397,-0.0680,
4.006415,-0.4762,-0.9804,-0.0027,-1.6495,-5.2909,-8.2985,-0.1974,0.4397,-0.0680,
4.031534,-0.5023,-1.0645,-0.1317,-1.6495,-5.2909,-8.2985,-0.1974,0.4397,-0.0680,
4.034314,-0.5097,-1.3681,-0.0489,-1.6495,-5.2909,-8.2985,-0.1974,0.4397,-0.0680,
4.036196,-0.3977,-1.3254,-0.1187,-1.6495,-5.2909,-8.2985,-0.1974,0.4397,-0.0680,
4.064957,-0.3977,-1.3254,-0.1187,-0.5697,-8.6935,-9.3272,-0.1974,0.4397,-0.0680,
4.067881,-0.3977,-1.3254,-0.1187,-0.5697,-8.6935,-9.3272,-0.0312,0.4830,0.4103,
4.090954,-0.3440,-1.1070,-0.1722,-0.5697,-8.6935,-9.3272,-0.0312,0.4830,0.4103,
4.094374,-0.3828,-0.9792,-0.2888,-0.5697,-8.6935,-9.3272,-0.0312,0.4830,0.4103,
4.097315,-0.3770,-0.9040,-0.3000,-0.5697,-8.6935,-9.3272,-0.0312,0.4830,0.4103,
4.124589,-0.3770,-0.9040,-0.3000,-0.5697,-8.6935,-9.3272,-0.0050,0.0444,-0.1559,
4.127888,-0.3770,-0.9040,-0.3000,-0.1777,-4.5642,-11.0247,-0.0050,0.0444,-0.1559,
4.151705,-0.2753,-0.8651,-0.3156,-0.1777,-4.5642,-11.0247,-0.0050,0.0444,-0.1559,
4.154693,-0.0997,-0.8463,-0.3208,-0.1777,-4.5642,-11.0247,-0.0050,0.0444,-0.1559,
4.156356,0.0943,-0.8348,-0.1991,-0.1777,-4.5642,-11.0247,-0.0050,0.0444,-0.1559,
4.183007,0.0943,-0.8348,-0.1991,-0.1777,-4.5642,-11.0247,0.5741,-0.0942,-0.2250,
4.186066,0.0943,-0.8348,-0.1991,4.3370,-3.8532,-10.0624,0.5741,-0.0942,-0.2250,
4.216009,0.1546,-0.9130,-0.0120,4.3370,-3.8532,-10.0624,0.5741,-0.0942,-0.2250,
4.218533,-0.0142,-1.0869,0.0203,4.3370,-3.8532,-10.0624,0.5741,-0.0942,-0.2250,
4.219950,-0.2350,-1.2328,-0.0274,4.3370,-3.8532,-10.0624,0.5741,-0.0942,-0.2250,
4.243899,-0.2350,-1.2328,-0.0274,1.1357,-8.0776,-8.5333,0.5741,-0.0942,-0.2250,
4.246086,-0.2350,-1.2328,-0.0274,1.1357,-8.0776,-8.5333,0.8160,-0.0673,0.6492,
4.270633,-0.3931,-1.2404,-0.0618,1.1357,-8.0776,-8.5333,0.8160,-0.0673,0.6492,
4.273043,-0.4547,-1.0645,-0.0921,1.1357,-8.0776,-8.5333,0.8160,-0.0673,0.6492,
4.274422,-0.3745,-0.8593,-0.0332,1.1357,-8.0776,-8.5333,0.8160,-0.0673,0.6492,
4.302543,-0.3745,-0.8593,-0.0332,1.1357,-8.0776,-8.5333,0.6273,-0.2347,-0.5011,
4.305056,-0.3745,-0.8593,-0.0332,-0.2453,-4.8129,-8.7769,0.6273,-0.2347,-0.5011,
4.337201,-0.3147,-0.8153,-0.0274,-0.2453,-4.8129,-8.7769,0.6273,-0.2347,-0.5011,
4.339686,-0.2885,-0.8321,-0.0454,-0.2453,-4.8129,-8.7769,0.6273,-0.2347,-0.5011,
4.341340,-0.2639,-0.8566,-0.0068,-0.2453,-4.8129,-8.7769,0.6273,-0.2347,-0.5011,
4.363783,-0.2639,-0.8566,-0.0068,0.5397,-4.7842,-8.6326,0.6273,-0.2347,-0.5011,
4.366468,-0.2639,-0.8566,-0.0068,0.5397,-4.7842,-8.6326,-0.0447,-0.6208,-0.1211,
4.391669,-0.2560,-0.8671,0.0489,0.5397,-4.7842,-8.6326,-0.0447,-0.6208,-0.1211,
4.394175,-0.2231,-0.8627,0.0779,0.5397,-4.7842,-8.6326,-0.0447,-0.6208,-0.1211,
4.395931,-0.1776,-0.8585,0.0899,0.5397,-4.7842,-8.6326,-0.0447,-0.6208,-0.1211,
4.424159,-0.1776,-0.8585,0.0899,0.5397,-4.7842,-8.6326,-0.1204,-0.6532,-0.0295,
4.426516,-0.1776,-0.8585,0.0899,1.0627,-4.7134,-7.7573,-0.1204,-0.6532,-0.0295,
4.450707,-0.1808,-0.8600,0.1080,1.0627,-4.7134,-7.7573,-0.1204,-0.6532,-0.0295,
4.453074,-0.2218,-0.8661,0.1268,1.0627,-4.7134,-7.7573,-0.1204,-0.6532,-0.0295,
4.454281,-0.2568,-0.8798,0.1405,1.0627,-4.7134,-7.7573,-0.1204,-0.6532,-0.0295,
4.483335,-0.2568,-0.8798,0.1405,-0.0280,-4.7773,-7.2950,-0.1204,-0.6532,-0.0295,
4.485994,-0.2568,-0.8798,0.1405,-0.0280,-4.7773,-7.2950,-0.1296,-0.6135,-0.0252,
4.514434,-0.2775,-0.8864,0.1454,-0.0280,-4.7773,-7.2950,-0.1296,-0.6135,-0.0252,
4.516383,-0.2687,-0.8930,0.1612,-0.0280,-4.7773,-7.2950,-0.1296,-0.6135,-0.0252,
4.518350,-0.2680,-0.8961,0.1742,-0.0280,-4.7773,-7.2950,-0.1296,-0.6135,-0.0252,
4.542611,-0.2680,-0.8961,0.1742,-0.0280,-4.7773,-7.2950,-0.1449,-0.9519,0.0139,
4.544428,-0.2680,-0.8961,0.1742,-0.5526,-4.8393,-7.0293,-0.1449,-0.9519,0.0139,
4.576185,-0.2866,-0.8996,0.1405,-0.5526,-4.8393,-7.0293,-0.1449,-0.9519,0.0139,
4.578504,-0.3020,-0.9167,0.0743,-0.5526,-4.8393,-7.0293,-0.1449,-0.9519,0.0139,
4.581196,-0.2731,-0.9545,0.0723,-0.5526,-4.8393,-7.0293,-0.1449,-0.9519,0.0139,
4.602203,-0.2731,-0.9545,0.0723,-1.0641,-5.2502,-8.0506,-0.1449,-0.9519,0.0139,
4.603815,-0.2731,-0.9545,0.0723,-1.0641,-5.2502,-8.0506,-0.2310,-0.8334,-0.1681,
4.630743,-0.2191,-1.0400,0.1204,-1.0641,-5.2502,-8.0506,-0.2310,-0.8334,-0.1681,
4.632873,-0.2047,-1.0779,0.2013,-1.0641,-5.2502,-8.0506,-0.2310,-0.8334,-0.1681,
4.634174,-0.2482,-1.0425,0.2463,-1.0641,-5.2502,-8.0506,-0.2310,-0.8334,-0.1681,
4.665210,-0.2482,-1.0425,0.2463,-1.0641,-5.2502,-8.0506,-0.1595,-1.1113,0.2949,
4.667666,-0.2482,-1.0425,0.2463,-1.2938,-5.9658,-6.3506,-0.1595,-1.1113,0.2949,
4.691165,-0.2973,-0.9763,0.2841,-1.2938,-5.9658,-6.3506,-0.1595,-1.1113,0.2949,
4.694034,-0.3098,-0.9186,0.3176,-1.2938,-5.9658,-6.3506,-0.1595,-1.1113,0.2949,
4.696035,-0.3464,-0.9758,0.3134,-1.2938,-5.9658,-6.3506,-0.1595,-1.1113,0.2949,
4.724180,-0.3464,-0.9758,0.3134,-1.2938,-5.9658,-6.3506,-0.5670,-1.1150,-0.2359,
4.728154,-0.3464,-0.9758,0.3134,-2.8621,-5.1522,-5.6709,-0.5670,-1.1150,-0.2359,
4.751241,-0.2680,-1.3860,0.1258,-2.8621,-5.1522,-5.6709,-0.5670,-1.1150,-0.2359,
4.754406,-0.3259,-1.4136,-0.1156,-2.8621,-5.1522,-5.6709,-0.5670,-1.1150,-0.2359,
4.756567,-0.1720,-1.1368,-0.0452,-2.8621,-5.1522,-5.6709,-0.5670,-1.1150,-0.2359,
4.784554,-0.1720,-1.1368,-0.0452,-1.5003,-6.3929,-9.0217,-0.5670,-1.1150,-0.2359,
4.787652,-0.1720,-1.1368,-0.0452,-1.5003,-6.3929,-9.0217,-0.3568,-0.5237,-0.4058,
4.811946,-0.0667,-0.9929,-0.1774,-1.5003,-6.3929,-9.0217,-0.3568,-0.5237,-0.4058,
4.815018,-0.1463,-0.9660,-0.0904,-1.5003,-6.3929,-9.0217,-0.3568,-0.5237,-0.4058,
4.817332,-0.2360,-0.9294,-0.0713,-1.5003,-6.3929,-9.0217,-0.3568,-0.5237,-0.4058,
4.843004,-0.2360,-0.9294,-0.0713,-1.5003,-6.3929,-9.0217,-0.7478,-0.9299,-0.0289,
4.846580,-0.2360,-0.9294,-0.0713,-2.6043,-4.1210,-9.1381,-0.7478,-0.9299,-0.0289,
4.872082,-0.2350,-0.8759,-0.2441,-2.6043,-4.1210,-9.1381,-0.7478,-0.9299,-0.0289,
4.874978,-0.3181,-0.7715,-0.3403,-2.6043,-4.1210,-9.1381,-0.7478,-0.9299,-0.0289,
4.876881,-0.3880,-0.6841,-0.3662,-2.6043,-4.1210,-9.1381,-0.7478,-0.9299,-0.0289,
4.903256,-0.3880,-0.6841,-0.3662,-4.5212,-1.2279,-11.6923,-0.7478,-0.9299,-0.0289,
4.906185,-0.3880,-0.6841,-0.3662,-4.5212,-1.2279,-11.6923,-0.8467,-0.5011,-0.6293,
4.930813,-0.3555,-0.7295,-0.3985,-4.5212,-1.2279,-11.6923,-0.8467,-0.5011,-0.6293,
4.933810,-0.3042,-0.9580,-0.2746,-4.5212,-1.2279,-11.6923,-0.8467,-0.5011,-0.6293,
4.935317,-0.2702,-1.1383,-0.1666,-4.5212,-1.2279,-11.6923,-0.8467,-0.5011,-0.6293,
4.966299,-0.2702,-1.1383,-0.1666,-3.8226,-5.3323,-9.4360,-0.8467,-0.5011,-0.6293,
4.969309,-0.2702,-1.1383,-0.1666,-3.8226,-5.3323,-9.4360,-0.5175,-0.8603,0.2998,
4.992104,-0.3042,-1.1568,-0.1322,-3.8226,-5.3323,-9.4360,-0.5175,-0.8603,0.2998,
4.994894,-0.3305,-1.0742,-0.1776,-3.8226,-5.3323,-9.4360,-0.5175,-0.8603,0.2998,
4.997238,-0.3547,-0.9338,-0.1901,-3.8226,-5.3323,-9.4360,-0.5175,-0.8603,0.2998,
5.023289,-0.3547,-0.9338,-0.1901,-3.8226,-5.3323,-9.4360,-0.6787,-1.0881,0.4641,
5.026437,-0.3547,-0.9338,-0.1901,-4.8547,-2.9341,-9.3206,-0.6787,-1.0881,0.4641,
5.051325,-0.3518,-0.8480,-0.1688,-4.8547,-2.9341,-9.3206,-0.6787,-1.0881,0.4641,
5.054040,-0.2868,-0.8480,-0.1466,-4.8547,-2.9341,-9.3206,-0.6787,-1.0881,0.4641,
5.055532,-0.2152,-0.8546,-0.1077,-4.8547,-2.9341,-9.3206,-0.6787,-1.0881,0.4641,
5.083617,-0.2152,-0.8546,-0.1077,-3.8756,-1.8727,-8.1810,-0.6787,-1.0881,0.4641,
5.086597,-0.2152,-0.8546,-0.1077,-3.8756,-1.8727,-8.1810,-0.4478,-0.7692,-0.2396,
5.111350,-0.1727,-0.8759,-0.0909,-3.8756,-1.8727,-8.1810,-0.4478,-0.7692,-0.2396,
5.117923,-0.2016,-0.9137,-0.0960,-3.8756,-1.8727,-8.1810,-0.4478,-0.7692,-0.2396,
5.120314,-0.2736,-0.9333,-0.1168,-3.8756,-1.8727,-8.1810,-0.4478,-0.7692,-0.2396,
5.143190,-0.2736,-0.9333,-0.1168,-4.7634,-2.4396,-7.9897,-0.4478,-0.7692,-0.2396,
5.146673,-0.2736,-0.9333,-0.1168,-4.7634,-2.4396,-7.9897,-0.2646,-0.7906,0.0701,
5.170242,-0.3164,-0.9558,-0.1043,-4.7634,-2.4396,-7.9897,-0.2646,-0.7906,0.0701,
5.173857,-0.3352,-0.9897,-0.0677,-4.7634,-2.4396,-7.9897,-0.2646,-0.7906,0.0701,
5.175481,-0.3425,-1.0149,-0.0374,-4.7634,-2.4396,-7.9897,-0.2646,-0.7906,0.0701,
5.202190,-0.3425,-1.0149,-0.0374,-4.7634,-2.4396,-7.9897,-0.0551,-0.4937,0.2100,
5.205326,-0.3425,-1.0149,-0.0374,-5.6585,-3.1259,-7.0267,-0.0551,-0.4937,0.2100,
5.231752,-0.3530,-1.0046,-0.0484,-5.6585,-3.1259,-7.0267,-0.0551,-0.4937,0.2100,
5.236150,-0.3423,-0.9653,-0.0371,-5.6585,-3.1259,-7.0267,-0.0551,-0.4937,0.2100,
5.237812,-0.3298,-0.9338,-0.0291,-5.6585,-3.1259,-7.0267,-0.0551,-0.4937,0.2100,
5.262121,-0.3298,-0.9338,-0.0291,-5.6585,-3.1259,-7.0267,0.1966,-0.3862,-0.1376,
5.265053,-0.3298,-0.9338,-0.0291,-5.6089,-2.3142,-6.9016,0.1966,-0.3862,-0.1376,
5.289931,-0.3408,-0.9147,-0.0611,-5.6089,-2.3142,-6.9016,0.1966,-0.3862,-0.1376,
5.292817,-0.3596,-0.9115,-0.0745,-5.6089,-2.3142,-6.9016,0.1966,-0.3862,-0.1376,
5.294590,-0.3469,-0.9264,-0.0623,-5.6089,-2.3142,-6.9016,0.1966,-0.3862,-0.1376,
5.322108,-0.3469,-0.9264,-0.0623,-5.6089,-2.3142,-6.9016,-0.0318,-0.3703,-0.3386,
5.324873,-0.3469,-0.9264,-0.0623,-6.0152,-2.2876,-7.1836,-0.0318,-0.3703,-0.3386,
5.350460,-0.3628,-0.9565,-0.0374,-6.0152,-2.2876,-7.1836,-0.0318,-0.3703,-0.3386,
5.353276,-0.4290,-0.9900,-0.0213,-6.0152,-2.2876,-7.1836,-0.0318,-0.3703,-0.3386,
5.354764,-0.4637,-1.0088,0.0376,-6.0152,-2.2876,-7.1836,-0.0318,-0.3703,-0.3386,
5.381933,-0.4637,-1.0088,0.0376,-6.0152,-2.2876,-7.1836,-0.0880,-0.2213,0.0298,
5.386365,-0.4637,-1.0088,0.0376,-7.3323,-3.0558,-6.0924,-0.0880,-0.2213,0.0298,
5.411344,-0.4615,-0.9804,0.1009,-7.3323,-3.0558,-6.0924,-0.0880,-0.2213,0.0298,
5.414167,-0.4720,-0.9277,-0.0735,-7.3323,-3.0558,-6.0924,-0.0880,-0.2213,0.0298,
5.416499,-0.5189,-1.0835,-0.1605,-7.3323,-3.0558,-6.0924,-0.0880,-0.2213,0.0298,
5.442306,-0.5189,-1.0835,-0.1605,-7.3323,-3.0558,-6.0924,-0.3086,-0.6287,0.2082,
5.445402,-0.5189,-1.0835,-0.1605,-7.9415,-3.6241,-7.8253,-0.3086,-0.6287,0.2082,
5.469862,-0.6301,-1.2255,-0.2507,-7.9415,-3.6241,-7.8253,-0.3086,-0.6287,0.2082,
5.473138,-0.4459,-0.9922,-0.3486,-7.9415,-3.6241,-7.8253,-0.3086,-0.6287,0.2082,
5.474958,-0.2795,-0.8883,-0.4444,-7.9415,-3.6241,-7.8253,-0.3086,-0.6287,0.2082,
5.505678,-0.2795,-0.8883,-0.4444,-7.9415,-3.6241,-7.8253,-0.3648,-1.2848,-0.4180,
5.508871,-0.2795,-0.8883,-0.4444,-5.9303,-1.5326,-10.2316,-0.3648,-1.2848,-0.4180,
5.530780,-0.1168,-0.8360,-0.3992,-5.9303,-1.5326,-10.2316,-0.3648,-1.2848,-0.4180,
5.534110,0.0239,-0.7908,-0.2377,-5.9303,-1.5326,-10.2316,-0.3648,-1.2848,-0.4180,
5.536059,0.0264,-0.9176,-0.1268,-5.9303,-1.5326,-10.2316,-0.3648,-1.2848,-0.4180,
5.562787,0.0264,-0.9176,-0.1268,-3.5343,-1.8430,-6.7800,-0.3648,-1.2848,-0.4180,
5.565956,0.0264,-0.9176,-0.1268,-3.5343,-1.8430,-6.7800,0.2070,-1.3331,0.0145,
5.591526,-0.1896,-1.1825,-0.0787,-3.5343,-1.8430,-6.7800,0.2070,-1.3331,0.0145,
5.594995,-0.3977,-1.3232,-0.1246,-3.5343,-1.8430,-6.7800,0.2070,-1.3331,0.0145,
5.596970,-0.4713,-1.2330,-0.2182,-3.5343,-1.8430,-6.7800,0.2070,-1.3331,0.0145,
5.623487,-0.4713,-1.2330,-0.2182,-8.7569,-4.9584,-7.4552,0.2070,-1.3331,0.0145,
5.626547,-0.4713,-1.2330,-0.2182,-8.7569,-4.9584,-7.4552,0.4569,-1.4339,0.0945,
5.651879,-0.3990,-1.0141,-0.1896,-8.7569,-4.9584,-7.4552,0.4569,-1.4339,0.0945,
5.654416,-0.2639,-0.8617,-0.1622,-8.7569,-4.9584,-7.4552,0.4569,-1.4339,0.0945,
5.656362,-0.2138,-0.8666,-0.1512,-8.7569,-4.9584,-7.4552,0.4569,-1.4339,0.0945,
5.682079,-0.2138,-0.8666,-0.1512,-8.7569,-4.9584,-7.4552,0.0916,-1.4320,-0.4937,
5.686786,-0.2138,-0.8666,-0.1512,-6.7424,-1.5016,-6.5513,0.0916,-1.4320,-0.4937,
5.710118,-0.2250,-0.8722,-0.1058,-6.7424,-1.5016,-6.5513,0.0916,-1.4320,-0.4937,
5.712933,-0.2372,-0.8351,-0.0625,-6.7424,-1.5016,-6.5513,0.0916,-1.4320,-0.4937,
5.715730,-0.2292,-0.8287,-0.0545,-6.7424,-1.5016,-6.5513,0.0916,-1.4320,-0.4937,
5.742887,-0.2292,-0.8287,-0.0545,-7.4542,-1.1754,-5.0941,0.0916,-1.4320,-0.4937,
5.746416,-0.2292,-0.8287,-0.0545,-7.4542,-1.1754,-5.0941,-0.1742,-1.8376,-0.0124,
5.770109,-0.2235,-0.8717,-0.0384,-7.4542,-1.1754,-5.0941,-0.1742,-1.8376,-0.0124,
5.773069,-0.2077,-0.9233,0.0049,-7.4542,-1.1754,-5.0941,-0.1742,-1.8376,-0.0124,
5.774526,-0.2079,-0.9472,0.0274,-7.4542,-1.1754,-5.0941,-0.1742,-1.8376,-0.0124,
5.802960,-0.2079,-0.9472,0.0274,-7.4542,-1.1754,-5.0941,-0.1479,-1.0478,0.1080,
5.806097,-0.2079,-0.9472,0.0274,-7.5831,-2.2210,-3.6752,-0.1479,-1.0478,0.1080,
5.830996,-0.1788,-0.9399,0.0154,-7.5831,-2.2210,-3.6752,-0.1479,-1.0478,0.1080,
5.834521,-0.1549,-0.9308,0.0264,-7.5831,-2.2210,-3.6752,-0.1479,-1.0478,0.1080,
5.836585,-0.1356,-0.9101,0.0479,-7.5831,-2.2210,-3.6752,-0.1479,-1.0478,0.1080,
5.862244,-0.1356,-0.9101,0.0479,-7.5831,-2.2210,-3.6752,-0.1088,-0.5212,0.0365,
5.866319,-0.1356,-0.9101,0.0479,-6.9633,-1.7746,-3.1892,-0.1088,-0.5212,0.0365,
5.889942,-0.1231,-0.8544,0.0596,-6.9633,-1.7746,-3.1892,-0.1088,-0.5212,0.0365,
5.892492,-0.1534,-0.8248,0.0643,-6.9633,-1.7746,-3.1892,-0.1088,-0.5212,0.0365,
5.894317,-0.2023,-0.8461,0.0904,-6.9633,-1.7746,-3.1892,-0.1088,-0.5212,0.0365,
5.921704,-0.2023,-0.8461,0.0904,-6.9633,-1.7746,-3.1892,-0.1650,-0.9293,0.0695,
5.925035,-0.2023,-0.8461,0.0904,-7.7156,-1.0712,-2.4561,-0.1650,-0.9293,0.0695,
5.949712,-0.2416,-0.8993,0.0809,-7.7156,-1.0712,-2.4561,-0.1650,-0.9293,0.0695,
5.953061,-0.3017,-0.9460,0.0513,-7.7156,-1.0712,-2.4561,-0.1650,-0.9293,0.0695,
5.954669,-0.3244,-1.0029,0.0337,-7.7156,-1.0712,-2.4561,-0.1650,-0.9293,0.0695,
5.982612,-0.3244,-1.0029,0.0337,-7.7156,-1.0712,-2.4561,-0.2670,-0.5029,0.0170,
5.985899,-0.3244,-1.0029,0.0337,-8.9921,-2.4992,-2.6135,-0.2670,-0.5029,0.0170,
6.010061,-0.3044,-1.0501,0.0633,-8.9921,-2.4992,-2.6135,-0.2670,-0.5029,0.0170,
6.013450,-0.2758,-1.0869,0.1268,-8.9921,-2.4992,-2.6135,-0.2670,-0.5029,0.0170,
6.015202,-0.2919,-1.0987,0.2223,-8.9921,-2.4992,-2.6135,-0.2670,-0.5029,0.0170,
6.042306,-0.2919,-1.0987,0.2223,-8.6628,-3.3371,-0.5244,-0.2670,-0.5029,0.0170,
6.045285,-0.2919,-1.0987,0.2223,-8.6628,-3.3371,-0.5244,-0.0734,-0.6703,0.3694,
6.072218,-0.3078,-1.0738,0.2722,-8.6628,-3.3371,-0.5244,-0.0734,-0.6703,0.3694,
6.075152,-0.2961,-1.0418,0.2665,-8.6628,-3.3371,-0.5244,-0.0734,-0.6703,0.3694,
6.077119,-0.2621,-1.3000,0.1546,-8.6628,-3.3371,-0.5244,-0.0734,-0.6703,0.3694,
6.103206,-0.2621,-1.3000,0.1546,-8.6628,-3.3371,-0.5244,-0.4558,-0.3709,-0.4076,
6.106401,-0.2621,-1.3000,0.1546,-8.4213,-5.2205,-0.8037,-0.4558,-0.3709,-0.4076,
6.131365,-0.2863,-1.3007,-0.1278,-8.4213,-5.2205,-0.8037,-0.4558,-0.3709,-0.4076,
6.134608,-0.1996,-1.0115,0.0107,-8.4213,-5.2205,-0.8037,-0.4558,-0.3709,-0.4076,
6.136922,-0.1231,-0.9164,0.0762,-8.4213,-5.2205,-0.8037,-0.4558,-0.3709,-0.4076,
6.162362,-0.1231,-0.9164,0.0762,-8.4213,-5.2205,-0.8037,-0.2175,-0.4058,-0.1425,
6.165962,-0.1231,-0.9164,0.0762,-7.1990,-1.4991,-1.3225,-0.2175,-0.4058,-0.1425,
6.189791,-0.1305,-1.0049,0.0125,-7.1990,-1.4991,-1.3225,-0.2175,-0.4058,-0.1425,
6.192617,-0.1055,-1.0176,-0.0967,-7.1990,-1.4991,-1.3225,-0.2175,-0.4058,-0.1425,
6.194687,-0.0987,-0.9042,-0.2326,-7.1990,-1.4991,-1.3225,-0.2175,-0.4058,-0.1425,
6.221848,-0.0987,-0.9042,-0.2326,-7.1990,-1.4991,-1.3225,-0.7747,-0.7576,0.1110,
6.224382,-0.0987,-0.9042,-0.2326,-6.9972,-1.3081,-3.9406,-0.7747,-0.7576,0.1110,
6.251243,-0.2084,-0.7723,-0.3105,-6.9972,-1.3081,-3.9406,-0.7747,-0.7576,0.1110,
6.254340,-0.3508,-0.7105,-0.3244,-6.9972,-1.3081,-3.9406,-0.7747,-0.7576,0.1110,
6.256327,-0.4441,-0.8014,-0.3098,-6.9972,-1.3081,-3.9406,-0.7747,-0.7576,0.1110,
6.282256,-0.4441,-0.8014,-0.3098,-10.4375,-0.2418,-4.1358,-0.7747,-0.7576,0.1110,
6.285690,-0.4441,-0.8014,-0.3098,-10.4375,-0.2418,-4.1358,-0.3238,-0.2421,-0.4045,
6.310190,-0.3557,-0.9917,-0.2426,-10.4375,-0.2418,-4.1358,-0.3238,-0.2421,-0.4045,
6.314054,-0.2431,-1.1229,-0.1771,-10.4375,-0.2418,-4.1358,-0.3238,-0.2421,-0.4045,
6.316124,-0.2243,-1.1224,-0.1116,-10.4375,-0.2418,-4.1358,-0.3238,-0.2421,-0.4045,
6.342374,-0.2243,-1.1224,-0.1116,-10.4375,-0.2418,-4.1358,-0.2542,-0.3215,0.7671,
6.345239,-0.2243,-1.1224,-0.1116,-8.2944,-3.3680,-1.9691,-0.2542,-0.3215,0.7671,
6.370583,-0.2607,-1.0662,-0.1107,-8.2944,-3.3680,-1.9691,-0.2542,-0.3215,0.7671,
6.373690,-0.2800,-0.9919,-0.1197,-8.2944,-3.3680,-1.9691,-0.2542,-0.3215,0.7671,
6.375294,-0.2663,-0.9027,-0.1251,-8.2944,-3.3680,-1.9691,-0.2542,-0.3215,0.7671,
6.404222,-0.2663,-0.9027,-0.1251,-8.2944,-3.3680,-1.9691,-0.2780,-0.1016,0.6461,
6.407923,-0.2663,-0.9027,-0.1251,-8.2538,-0.8535,-1.8739,-0.2780,-0.1016,0.6461,
6.430598,-0.2553,-0.8627,-0.1319,-8.2538,-0.8535,-1.8739,-0.2780,-0.1016,0.6461,
6.433083,-0.2233,-0.8165,-0.1182,-8.2538,-0.8535,-1.8739,-0.2780,-0.1016,0.6461,
6.434928,-0.2279,-0.7737,-0.1036,-8.2538,-0.8535,-1.8739,-0.2780,-0.1016,0.6461,
6.462552,-0.2279,-0.7737,-0.1036,-7.6737,0.5573,-1.5790,-0.2780,-0.1016,0.6461,
6.465827,-0.2279,-0.7737,-0.1036,-7.6737,0.5573,-1.5790,-0.2279,0.1929,0.1013,
6.489696,-0.2687,-0.7725,-0.1077,-7.6737,0.5573,-1.5790,-0.2279,0.1929,0.1013,
6.491093,-0.3452,-0.8185,-0.1075,-7.6737,0.5573,-1.5790,-0.2279,0.1929,0.1013,
6.492106,-0.3704,-0.8702,-0.0792,-7.6737,0.5573,-1.5790,-0.2279,0.1929,0.1013,
6.522544,-0.3704,-0.8702,-0.0792,-7.6737,0.5573,-1.5790,-0.2249,0.2570,0.0408,
6.524096,-0.3704,-0.8702,-0.0792,-8.9808,-0.3242,-1.2503,-0.2249,0.2570,0.0408,
6.549909,-0.3687,-0.9325,-0.0442,-8.9808,-0.3242,-1.2503,-0.2249,0.2570,0.0408,
6.551335,-0.3716,-0.9797,-0.0293,-8.9808,-0.3242,-1.2503,-0.2249,0.2570,0.0408,
6.552334,-0.3711,-0.9611,-0.0479,-8.9808,-0.3242,-1.2503,-0.2249,0.2570,0.0408,
6.582600,-0.3711,-0.9611,-0.0479,-8.9808,-0.3242,-1.2503,0.0244,0.2442,0.2002,
6.585433,-0.3711,-0.9611,-0.0479,-8.8570,-1.1316,-0.9560,0.0244,0.2442,0.2002,
6.610550,-0.3667,-0.9176,-0.0599,-8.8570,-1.1316,-0.9560,0.0244,0.2442,0.2002,
6.613807,-0.3904,-0.9570,-0.0645,-8.8570,-1.1316,-0.9560,0.0244,0.2442,0.2002,
6.615879,-0.3613,-1.0141,-0.0391,-8.8570,-1.1316,-0.9560,0.0244,0.2442,0.2002,
6.642116,-0.3613,-1.0141,-0.0391,-8.7040,-1.6283,-1.0553,0.0244,0.2442,0.2002,
6.644369,-0.3613,-1.0141,-0.0391,-8.7040,-1.6283,-1.0553,0.2461,0.5325,-0.1150,
6.670090,-0.3147,-1.0501,-0.0178,-8.7040,-1.6283,-1.0553,0.2461,0.5325,-0.1150,
6.672329,-0.3188,-1.0185,-0.0139,-8.7040,-1.6283,-1.0553,0.2461,0.5325,-0.1150,
6.673956,-0.4258,-0.9763,-0.0322,-8.7040,-1.6283,-1.0553,0.2461,0.5325,-0.1150,
6.702690,-0.4258,-0.9763,-0.0322,-9.2055,-1.2036,-1.2598,0.2461,0.5325,-0.1150,
6.705571,-0.4258,-0.9763,-0.0322,-9.2055,-1.2036,-1.2598,0.1282,0.5368,0.3297,
6.730467,-0.5382,-0.9394,-0.0186,-9.2055,-1.2036,-1.2598,0.1282,0.5368,0.3297,
6.733156,-0.5483,-0.9003,-0.1537,-9.2055,-1.2036,-1.2598,0.1282,0.5368,0.3297,
6.735210,-0.5004,-1.0806,-0.1222,-9.2055,-1.2036,-1.2598,0.1282,0.5368,0.3297,
6.762346,-0.5004,-1.0806,-0.1222,-9.8063,-2.1635,-2.2602,0.1282,0.5368,0.3297,
6.764766,-0.5004,-1.0806,-0.1222,-9.8063,-2.1635,-2.2602,0.1728,0.5753,0.2216,
6.789509,-0.5133,-1.3146,-0.1178,-9.8063,-2.1635,-2.2602,0.1728,0.5753,0.2216,
6.792399,-0.3442,-1.2384,-0.2047,-9.8063,-2.1635,-2.2602,0.1728,0.5753,0.2216,
6.793987,-0.3240,-1.1236,-0.2675,-9.8063,-2.1635,-2.2602,0.1728,0.5753,0.2216,
6.822142,-0.3240,-1.1236,-0.2675,-7.8666,-2.4911,-3.8724,0.1728,0.5753,0.2216,
6.825909,-0.3240,-1.1236,-0.2675,-7.8666,-2.4911,-3.8724,-0.0832,0.1642,0.2753,
6.850407,-0.3152,-0.9968,-0.3652,-7.8666,-2.4911,-3.8724,-0.0832,0.1642,0.2753,
6.852881,-0.2675,-0.8495,-0.4500,-7.8666,-2.4911,-3.8724,-0.0832,0.1642,0.2753,
6.854351,-0.1346,-0.7857,-0.3965,-7.8666,-2.4911,-3.8724,-0.0832,0.1642,0.2753,
6.882346,-0.1346,-0.7857,-0.3965,-5.9934,0.8360,-5.0935,-0.0832,0.1642,0.2753,
6.884951,-0.1346,-0.7857,-0.3965,-5.9934,0.8360,-5.0935,0.3695,-0.0283,-0.3386,
6.909823,0.0755,-0.8053,-0.2238,-5.9934,0.8360,-5.0935,0.3695,-0.0283,-0.3386,
6.912361,0.1700,-0.9562,-0.0716,-5.9934,0.8360,-5.0935,0.3695,-0.0283,-0.3386,
6.913743,0.0320,-1.1717,-0.0726,-5.9934,0.8360,-5.0935,0.3695,-0.0283,-0.3386,
6.941897,0.0320,-1.1717,-0.0726,-4.3605,-2.9863,-2.1705,0.3695,-0.0283,-0.3386,
6.945265,0.0320,-1.1717,-0.0726,-4.3605,-2.9863,-2.1705,0.7440,0.2167,0.4861,
6.969219,-0.1803,-1.2983,-0.0845,-4.3605,-2.9863,-2.1705,0.7440,0.2167,0.4861,
6.971254,-0.3215,-1.2238,-0.1263,-4.3605,-2.9863,-2.1705,0.7440,0.2167,0.4861,
6.973043,-0.3726,-1.0029,-0.1959,-4.3605,-2.9863,-2.1705,0.7440,0.2167,0.4861,
7.001513,-0.3726,-1.0029,-0.1959,-4.3605,-2.9863,-2.1705,1.0305,0.6022,-0.0765,
7.004818,-0.3726,-1.0029,-0.1959,-8.0224,-1.2965,-3.9860,1.0305,0.6022,-0.0765,
7.029963,-0.3147,-0.8397,-0.1546,-8.0224,-1.2965,-3.9860,1.0305,0.6022,-0.0765,
7.032490,-0.2648,-0.8180,-0.0923,-8.0224,-1.2965,-3.9860,1.0305,0.6022,-0.0765,
7.034078,-0.2609,-0.8522,-0.0809,-8.0224,-1.2965,-3.9860,1.0305,0.6022,-0.0765,
7.061525,-0.2609,-0.8522,-0.0809,-8.0224,-1.2965,-3.9860,0.4110,0.6968,-0.3557,
7.064053,-0.2609,-0.8522,-0.0809,-6.9758,-0.0077,-3.4436,0.4110,0.6968,-0.3557,
7.089341,-0.2377,-0.8226,-0.0794,-6.9758,-0.0077,-3.4436,0.4110,0.6968,-0.3557,
7.091353,-0.2216,-0.7940,-0.0071,-6.9758,-0.0077,-3.4436,0.4110,0.6968,-0.3557,
7.093140,-0.1888,-0.8004,0.0342,-6.9758,-0.0077,-3.4436,0.4110,0.6968,-0.3557,
7.122236,-0.1888,-0.8004,0.0342,-6.9758,-0.0077,-3.4436,0.3603,0.6950,-0.0038,
7.124286,-0.1888,-0.8004,0.0342,-6.1914,0.4341,-2.6324,0.3603,0.6950,-0.0038,
7.149849,-0.1498,-0.8287,0.0762,-6.1914,0.4341,-2.6324,0.3603,0.6950,-0.0038,
7.151508,-0.1725,-0.8634,0.1024,-6.1914,0.4341,-2.6324,0.3603,0.6950,-0.0038,
7.152637,-0.2274,-0.9010,0.1158,-6.1914,0.4341,-2.6324,0.3603,0.6950,-0.0038,
7.182142,-0.2274,-0.9010,0.1158,-6.3975,-0.5954,-2.1791,0.3603,0.6950,-0.0038,
7.184397,-0.2274,-0.9010,0.1158,-6.3975,-0.5954,-2.1791,0.3732,0.7482,0.1403,
7.209445,-0.2819,-0.9225,0.1510,-6.3975,-0.5954,-2.1791,0.3732,0.7482,0.1403,
7.212134,-0.3086,-0.9355,0.1998,-6.3975,-0.5954,-2.1791,0.3732,0.7482,0.1403,
7.213851,-0.3112,-0.9355,0.1874,-6.3975,-0.5954,-2.1791,0.3732,0.7482,0.1403,
7.241763,-0.3112,-0.9355,0.1874,-6.3975,-0.5954,-2.1791,0.2003,0.3083,0.2906,
7.244263,-0.3112,-0.9355,0.1874,-6.9245,-0.9262,-1.8020,0.2003,0.3083,0.2906,
7.269410,-0.3183,-0.9179,0.1551,-6.9245,-0.9262,-1.8020,0.2003,0.3083,0.2906,
7.272114,-0.3174,-0.8922,0.1229,-6.9245,-0.9262,-1.8020,0.2003,0.3083,0.2906,
7.274148,-0.2998,-0.9108,0.0914,-6.9245,-0.9262,-1.8020,0.2003,0.3083,0.2906,
7.301502,-0.2998,-0.9108,0.0914,-6.9245,-0.9262,-1.8020,-0.0471,0.1477,-0.1113,
7.303716,-0.2998,-0.9108,0.0914,-6.6665,-0.6511,-2.8185,-0.0471,0.1477,-0.1113,
7.329470,-0.2770,-0.9777,0.0945,-6.6665,-0.6511,-2.8185,-0.0471,0.1477,-0.1113,
7.331643,-0.2846,-1.0706,0.1327,-6.6665,-0.6511,-2.8185,-0.0471,0.1477,-0.1113,
7.333118,-0.2924,-1.1006,0.1864,-6.6665,-0.6511,-2.8185,-0.0471,0.1477,-0.1113,
7.362096,-0.2924,-1.1006,0.1864,-6.5750,-2.4996,-1.8808,-0.0471,0.1477,-0.1113,
7.364819,-0.2924,-1.1006,0.1864,-6.5750,-2.4996,-1.8808,0.0299,0.0548,-0.0301,
7.390980,-0.2436,-1.0826,0.2697,-6.5750,-2.4996,-1.8808,0.0299,0.0548,-0.0301,
7.393564,-0.2089,-1.0701,0.3178,-6.5750,-2.4996,-1.8808,0.0299,0.0548,-0.0301,
7.395255,-0.1906,-1.3542,0.2316,-6.5750,-2.4996,-1.8808,0.0299,0.0548,-0.0301,
7.422595,-0.1906,-1.3542,0.2316,-5.6739,-5.0323,-1.4450,0.0299,0.0548,-0.0301,
7.425904,-0.1906,-1.3542,0.2316,-5.6739,-5.0323,-1.4450,-0.2096,0.4036,-0.6996,
7.450466,-0.1380,-1.3857,-0.0161,-5.6739,-5.0323,-1.4450,-0.2096,0.4036,-0.6996,
7.453577,-0.1065,-1.1395,0.0469,-5.6739,-5.0323,-1.4450,-0.2096,0.4036,-0.6996,
7.456310,-0.0037,-0.9966,0.0396,-5.6739,-5.0323,-1.4450,-0.2096,0.4036,-0.6996,
7.482362,-0.0037,-0.9966,0.0396,-5.6739,-5.0323,-1.4450,0.2730,0.0964,-0.1590,
7.485384,-0.0037,-0.9966,0.0396,-3.9483,-1.6205,-3.4213,0.2730,0.0964,-0.1590,
7.513345,0.0056,-1.0603,-0.0672,-3.9483,-1.6205,-3.4213,0.2730,0.0964,-0.1590,
7.516272,-0.1876,-1.0210,-0.1021,-3.9483,-1.6205,-3.4213,0.2730,0.0964,-0.1590,
7.518503,-0.2763,-0.8864,-0.2389,-3.9483,-1.6205,-3.4213,0.2730,0.0964,-0.1590,
7.544974,-0.2763,-0.8864,-0.2389,-3.9483,-1.6205,-3.4213,-0.1839,0.2821,0.0451,
7.547697,-0.2763,-0.8864,-0.2389,-6.5220,-0.5445,-6.2570,-0.1839,0.2821,0.0451,
7.570852,-0.3044,-0.7623,-0.3298,-6.5220,-0.5445,-6.2570,-0.1839,0.2821,0.0451,
7.575062,-0.3459,-0.7163,-0.2900,-6.5220,-0.5445,-6.2570,-0.1839,0.2821,0.0451,
7.577725,-0.3464,-0.7928,-0.2360,-6.5220,-0.5445,-6.2570,-0.1839,0.2821,0.0451,
7.601725,-0.3464,-0.7928,-0.2360,-6.5220,-0.5445,-6.2570,0.0518,0.6541,-0.2506,
7.605910,-0.3464,-0.7928,-0.2360,-7.1543,0.4041,-6.2154,0.0518,0.6541,-0.2506,
7.629499,-0.2687,-0.9748,-0.2003,-7.1543,0.4041,-6.2154,0.0518,0.6541,-0.2506,
7.632752,-0.2169,-1.1082,-0.1815,-7.1543,0.4041,-6.2154,0.0518,0.6541,-0.2506,
7.634359,-0.1867,-1.1119,-0.1666,-7.1543,0.4041,-6.2154,0.0518,0.6541,-0.2506,
7.663262,-0.1867,-1.1119,-0.1666,-7.1543,0.4041,-6.2154,0.2156,0.8752,0.7097,
7.667168,-0.1867,-1.1119,-0.1666,-5.3374,-2.7150,-5.7473,0.2156,0.8752,0.7097,
7.697616,-0.1903,-1.0378,-0.1463,-5.3374,-2.7150,-5.7473,0.2156,0.8752,0.7097,
7.699647,-0.2135,-0.9638,-0.1463,-5.3374,-2.7150,-5.7473,0.2156,0.8752,0.7097,
7.700899,-0.2326,-0.9049,-0.1583,-5.3374,-2.7150,-5.7473,0.2156,0.8752,0.7097,
7.722314,-0.2326,-0.9049,-0.1583,-5.3374,-2.7150,-5.7473,0.0916,1.0505,0.6125,
7.724484,-0.2326,-0.9049,-0.1583,-5.1113,-0.5479,-5.9010,0.0916,1.0505,0.6125,
7.750448,-0.2592,-0.8771,-0.1615,-5.1113,-0.5479,-5.9010,0.0916,1.0505,0.6125,
7.752510,-0.2744,-0.8597,-0.1446,-5.1113,-0.5479,-5.9010,0.0916,1.0505,0.6125,
7.753634,-0.2802,-0.8316,-0.1248,-5.1113,-0.5479,-5.9010,0.0916,1.0505,0.6125,
7.781673,-0.2802,-0.8316,-0.1248,-5.0781,0.1996,-5.8075,0.0916,1.0505,0.6125,
7.783666,-0.2802,-0.8316,-0.1248,-5.0781,0.1996,-5.8075,0.2724,1.3150,-0.0160,
7.810826,-0.3166,-0.8637,-0.1175,-5.0781,0.1996,-5.8075,0.2724,1.3150,-0.0160,
7.812764,-0.3577,-0.9218,-0.0894,-5.0781,0.1996,-5.8075,0.2724,1.3150,-0.0160,
7.813727,-0.3760,-0.9575,-0.0589,-5.0781,0.1996,-5.8075,0.2724,1.3150,-0.0160,
7.842208,-0.3760,-0.9575,-0.0589,-5.6297,-1.1066,-5.4643,0.2724,1.3150,-0.0160,
7.845360,-0.3760,-0.9575,-0.0589,-5.6297,-1.1066,-5.4643,0.3866,1.2882,0.1153,
7.870378,-0.3828,-0.9646,-0.0249,-5.6297,-1.1066,-5.4643,0.3866,1.2882,0.1153,
7.872428,-0.3877,-0.9589,-0.0254,-5.6297,-1.1066,-5.4643,0.3866,1.2882,0.1153,
7.874042,-0.4065,-0.9360,-0.0520,-5.6297,-1.1066,-5.4643,0.3866,1.2882,0.1153,
7.903588,-0.4065,-0.9360,-0.0520,-5.4122,-0.9467,-5.6546,0.3866,1.2882,0.1153,
7.906455,-0.4065,-0.9360,-0.0520,-5.4122,-0.9467,-5.6546,0.1978,1.0530,0.2411,
7.930986,-0.4141,-0.8795,-0.0682,-5.4122,-0.9467,-5.6546,0.1978,1.0530,0.2411,
7.933766,-0.3733,-0.8387,-0.0606,-5.4122,-0.9467,-5.6546,0.1978,1.0530,0.2411,
7.935304,-0.3467,-0.8673,-0.0151,-5.4122,-0.9467,-5.6546,0.1978,1.0530,0.2411,
7.962406,-0.3467,-0.8673,-0.0151,-5.4122,-0.9467,-5.6546,0.3817,1.0566,-0.3282,
7.965174,-0.3467,-0.8673,-0.0151,-4.4958,-0.3271,-5.4562,0.3817,1.0566,-0.3282,
7.991569,-0.3149,-0.9328,0.0173,-4.4958,-0.3271,-5.4562,0.3817,1.0566,-0.3282,
7.996926,-0.2956,-0.9821,0.0271,-4.4958,-0.3271,-5.4562,0.3817,1.0566,-0.3282,
7.998611,-0.3046,-0.9941,0.0066,-4.4958,-0.3271,-5.4562,0.3817,1.0566,-0.3282,
8.022867,-0.3046,-0.9941,0.0066,-4.4958,-0.3271,-5.4562,0.3255,1.2045,-0.0148,
8.025148,-0.3046,-0.9941,0.0066,-3.8036,-1.6881,-5.4699,0.3255,1.2045,-0.0148,
8.049514,-0.3396,-0.9880,-0.0129,-3.8036,-1.6881,-5.4699,0.3255,1.2045,-0.0148,
8.052035,-0.3789,-0.9648,-0.0090,-3.8036,-1.6881,-5.4699,0.3255,1.2045,-0.0148,
8.053704,-0.4014,-0.9445,0.0208,-3.8036,-1.6881,-5.4699,0.3255,1.2045,-0.0148,
8.084092,-0.4014,-0.9445,0.0208,-4.2963,-1.3028,-5.5219,0.3255,1.2045,-0.0148,
8.086769,-0.4014,-0.9445,0.0208,-4.2963,-1.3028,-5.5219,0.3921,1.3138,0.0072,
8.109907,-0.4041,-0.9396,0.0696,-4.2963,-1.3028,-5.5219,0.3921,1.3138,0.0072,
8.112690,-0.4085,-0.9340,0.0327,-4.2963,-1.3028,-5.5219,0.3921,1.3138,0.0072,
8.115715,-0.4124,-0.9648,-0.1407,-4.2963,-1.3028,-5.5219,0.3921,1.3138,0.0072,
8.142517,-0.4124,-0.9648,-0.1407,-4.2963,-1.3028,-5.5219,0.1850,1.2081,0.1654,
8.145604,-0.4124,-0.9648,-0.1407,-3.9608,-1.5425,-7.1718,0.1850,1.2081,0.1654,
8.171153,-0.4664,-1.2230,-0.0472,-3.9608,-1.5425,-7.1718,0.1850,1.2081,0.1654,
8.173882,-0.4356,-1.2269,-0.1378,-3.9608,-1.5425,-7.1718,0.1850,1.2081,0.1654,
8.176441,-0.3396,-1.0972,-0.1527,-3.9608,-1.5425,-7.1718,0.1850,1.2081,0.1654,
8.201943,-0.3396,-1.0972,-0.1527,-2.7005,-2.9109,-7.3516,0.1850,1.2081,0.1654,
8.204852,-0.3396,-1.0972,-0.1527,-2.7005,-2.9109,-7.3516,0.1343,1.1245,0.3987,
8.230899,-0.3039,-1.0728,-0.1847,-2.7005,-2.9109,-7.3516,0.1343,1.1245,0.3987,
8.233940,-0.2624,-0.9885,-0.3508,-2.7005,-2.9109,-7.3516,0.1343,1.1245,0.3987,
8.237628,-0.1742,-0.8356,-0.4420,-2.7005,-2.9109,-7.3516,0.1343,1.1245,0.3987,
8.262998,-0.1742,-0.8356,-0.4420,-0.6270,-0.3437,-10.1159,0.1343,1.1245,0.3987,
8.265719,-0.1742,-0.8356,-0.4420,-0.6270,-0.3437,-10.1159,0.1270,0.6523,-0.0185,
8.290134,-0.0972,-0.7144,-0.3987,-0.6270,-0.3437,-10.1159,0.1270,0.6523,-0.0185,
8.293195,0.0000,-0.7322,-0.2155,-0.6270,-0.3437,-10.1159,0.1270,0.6523,-0.0185,
8.295220,0.0156,-0.9606,-0.0814,-0.6270,-0.3437,-10.1159,0.1270,0.6523,-0.0185,
8.321758,0.0156,-0.9606,-0.0814,-0.6270,-0.3437,-10.1159,0.7598,0.5582,0.1214,
8.325073,0.0156,-0.9606,-0.0814,1.3496,-1.7014,-6.7344,0.7598,0.5582,0.1214,
8.349702,-0.1138,-1.2389,-0.0616,1.3496,-1.7014,-6.7344,0.7598,0.5582,0.1214,
8.352421,-0.2668,-1.3953,-0.0550,1.3496,-1.7014,-6.7344,0.7598,0.5582,0.1214,
8.353505,-0.3547,-1.3139,-0.1092,1.3496,-1.7014,-6.7344,0.7598,0.5582,0.1214,
8.381737,-0.3547,-1.3139,-0.1092,1.3496,-1.7014,-6.7344,1.0476,0.9253,0.3694,
8.384257,-0.3547,-1.3139,-0.1092,-1.7804,-5.5409,-7.3540,1.0476,0.9253,0.3694,
8.411216,-0.4117,-1.0044,-0.1808,-1.7804,-5.5409,-7.3540,1.0476,0.9253,0.3694,
8.414368,-0.3349,-0.8111,-0.1063,-1.7804,-5.5409,-7.3540,1.0476,0.9253,0.3694,
8.417037,-0.2988,-0.8004,-0.0591,-1.7804,-5.5409,-7.3540,1.0476,0.9253,0.3694,
8.442705,-0.2988,-0.8004,-0.0591,-1.7804,-5.5409,-7.3540,0.5234,1.0652,-0.4937,
8.444723,-0.2988,-0.8004,-0.0591,-0.9080,-0.8244,-7.1230,0.5234,1.0652,-0.4937,
8.470074,-0.2907,-0.8084,-0.0806,-0.9080,-0.8244,-7.1230,0.5234,1.0652,-0.4937,
8.472232,-0.2739,-0.7901,-0.0589,-0.9080,-0.8244,-7.1230,0.5234,1.0652,-0.4937,
8.473509,-0.2487,-0.8038,0.0230,-0.9080,-0.8244,-7.1230,0.5234,1.0652,-0.4937,
8.503465,-0.2487,-0.8038,0.0230,-0.1321,-0.9153,-6.2856,0.5234,1.0652,-0.4937,
8.505982,-0.2487,-0.8038,0.0230,-0.1321,-0.9153,-6.2856,0.2296,0.9803,0.0683,
8.532058,-0.2008,-0.8619,0.0591,-0.1321,-0.9153,-6.2856,0.2296,0.9803,0.0683,
8.535707,-0.1725,-0.9274,0.1065,-0.1321,-0.9153,-6.2856,0.2296,0.9803,0.0683,
8.537315,-0.2069,-0.9650,0.1361,-0.1321,-0.9153,-6.2856,0.2296,0.9803,0.0683,
8.563955,-0.2069,-0.9650,0.1361,-0.1321,-0.9153,-6.2856,0.4941,1.0750,0.0518,
8.566793,-0.2069,-0.9650,0.1361,0.7085,-2.6327,-5.1553,0.4941,1.0750,0.0518,
8.592184,-0.2766,-0.9721,0.1134,0.7085,-2.6327,-5.1553,0.4941,1.0750,0.0518,
8.594575,-0.3340,-0.9426,0.1156,0.7085,-2.6327,-5.1553,0.4941,1.0750,0.0518,
8.596334,-0.3450,-0.8974,0.1080,0.7085,-2.6327,-5.1553,0.4941,1.0750,0.0518,
8.622433,-0.3450,-0.8974,0.1080,-0.1826,-2.1613,-5.4184,0.4941,1.0750,0.0518,
8.625282,-0.3450,-0.8974,0.1080,-0.1826,-2.1613,-5.4184,0.3970,0.8679,0.1874,
8.649567,-0.3220,-0.8346,0.0765,-0.1826,-2.1613,-5.4184,0.3970,0.8679,0.1874,
8.651772,-0.2900,-0.7996,0.0574,-0.1826,-2.1613,-5.4184,0.3970,0.8679,0.1874,
8.653134,-0.2712,-0.8211,0.0694,-0.1826,-2.1613,-5.4184,0.3970,0.8679,0.1874,
8.681818,-0.2712,-0.8211,0.0694,-0.1826,-2.1613,-5.4184,0.0958,0.6406,0.0628,
8.684552,-0.2712,-0.8211,0.0694,0.8914,-1.5194,-5.7202,0.0958,0.6406,0.0628,
8.710491,-0.2824,-0.9035,0.0584,0.8914,-1.5194,-5.7202,0.0958,0.6406,0.0628,
8.714451,-0.2895,-1.0063,0.0579,0.8914,-1.5194,-5.7202,0.0958,0.6406,0.0628,
8.716347,-0.2775,-1.0493,0.0750,0.8914,-1.5194,-5.7202,0.0958,0.6406,0.0628,
8.743257,-0.2775,-1.0493,0.0750,1.0468,-3.7761,-5.5609,0.0958,0.6406,0.0628,
8.748042,-0.2775,-1.0493,0.0750,1.0468,-3.7761,-5.5609,0.1978,0.3432,-0.0020,
8.770366,-0.2900,-1.0317,0.1136,1.0468,-3.7761,-5.5609,0.1978,0.3432,-0.0020,
8.772909,-0.3257,-0.9909,0.1522,1.0468,-3.7761,-5.5609,0.1978,0.3432,-0.0020,
8.774254,-0.3454,-0.9763,0.1976,1.0468,-3.7761,-5.5609,0.1978,0.3432,-0.0020,
8.801643,-0.3454,-0.9763,0.1976,1.0468,-3.7761,-5.5609,0.2296,0.0243,-0.3410,
8.803948,-0.3454,-0.9763,0.1976,0.4330,-3.1162,-4.3853,0.2296,0.0243,-0.3410,
8.830325,-0.3579,-1.2279,0.2179,0.4330,-3.1162,-4.3853,0.2296,0.0243,-0.3410,
8.834632,-0.2814,-1.4390,-0.0484,0.4330,-3.1162,-4.3853,0.2296,0.0243,-0.3410,
8.836653,-0.1341,-1.2435,-0.0125,0.4330,-3.1162,-4.3853,0.2296,0.0243,-0.3410,
8.864415,-0.1341,-1.2435,-0.0125,0.4330,-3.1162,-4.3853,0.4953,0.0451,-0.2176,
8.867192,-0.1341,-1.2435,-0.0125,2.4511,-5.6474,-6.3853,0.4953,0.0451,-0.2176,
8.890353,-0.0511,-1.0628,0.1143,2.4511,-5.6474,-6.3853,0.4953,0.0451,-0.2176,
8.892910,-0.1344,-0.9968,0.0960,2.4511,-5.6474,-6.3853,0.4953,0.0451,-0.2176,
8.894139,-0.2575,-1.0080,-0.0110,2.4511,-5.6474,-6.3853,0.4953,0.0451,-0.2176,
8.923684,-0.2575,-1.0080,-0.0110,1.2813,-3.4594,-6.4706,0.4953,0.0451,-0.2176,
8.926533,-0.2575,-1.0080,-0.0110,1.2813,-3.4594,-6.4706,0.1930,0.5173,0.0200,
8.949844,-0.2421,-0.9267,-0.0547,1.2813,-3.4594,-6.4706,0.1930,0.5173,0.0200,
8.952742,-0.1356,-0.8509,-0.1576,1.2813,-3.4594,-6.4706,0.1930,0.5173,0.0200,
8.954371,-0.0923,-0.8067,-0.1874,1.2813,-3.4594,-6.4706,0.1930,0.5173,0.0200,
8.982094,-0.0923,-0.8067,-0.1874,1.2813,-3.4594,-6.4706,-0.2188,0.6571,-0.1852,
8.985987,-0.0923,-0.8067,-0.1874,3.0792,-1.4343,-8.0343,-0.2188,0.6571,-0.1852,
9.011085,-0.0594,-0.7813,-0.2492,3.0792,-1.4343,-8.0343,-0.2188,0.6571,-0.1852,
9.014317,-0.1126,-0.8466,-0.2704,3.0792,-1.4343,-8.0343,-0.2188,0.6571,-0.1852,
9.016054,-0.2145,-1.0193,-0.2665,3.0792,-1.4343,-8.0343,-0.2188,0.6571,-0.1852,
9.042491,-0.2145,-1.0193,-0.2665,2.0108,-3.3904,-8.5882,-0.2188,0.6571,-0.1852,
9.045212,-0.2145,-1.0193,-0.2665,2.0108,-3.3904,-8.5882,0.2498,0.8270,-0.3355,
9.070848,-0.2485,-1.1277,-0.2326,2.0108,-3.3904,-8.5882,0.2498,0.8270,-0.3355,
9.074556,-0.2443,-1.1473,-0.1705,2.0108,-3.3904,-8.5882,0.2498,0.8270,-0.3355,
9.076044,-0.2397,-1.0989,-0.1737,2.0108,-3.3904,-8.5882,0.2498,0.8270,-0.3355,
9.104271,-0.2397,-1.0989,-0.1737,2.0108,-3.3904,-8.5882,0.3548,1.2039,0.6669,
9.106975,-0.2397,-1.0989,-0.1737,2.2119,-4.3209,-7.5149,0.3548,1.2039,0.6669,
9.132071,-0.2455,-1.0476,-0.1871,2.2119,-4.3209,-7.5149,0.3548,1.2039,0.6669,
9.134808,-0.2778,-0.9931,-0.1524,2.2119,-4.3209,-7.5149,0.3548,1.2039,0.6669,
9.136620,-0.2770,-0.9484,-0.1700,2.2119,-4.3209,-7.5149,0.3548,1.2039,0.6669,
9.162174,-0.2770,-0.9484,-0.1700,2.2119,-4.3209,-7.5149,0.2174,1.4274,0.4946,
9.166558,-0.2770,-0.9484,-0.1700,2.5351,-3.1140,-7.1806,0.2174,1.4274,0.4946,
9.190106,-0.2653,-0.8913,-0.1757,2.5351,-3.1140,-7.1806,0.2174,1.4274,0.4946,
9.192940,-0.2680,-0.8368,-0.1515,2.5351,-3.1140,-7.1806,0.2174,1.4274,0.4946,
9.194566,-0.2621,-0.8153,-0.1410,2.5351,-3.1140,-7.1806,0.2174,1.4274,0.4946,
9.222726,-0.2621,-0.8153,-0.1410,2.5351,-3.1140,-7.1806,0.2345,1.4574,-0.2573,
9.225780,-0.2621,-0.8153,-0.1410,3.2201,-1.9118,-6.4525,0.2345,1.4574,-0.2573,
9.251197,-0.2682,-0.8375,-0.1407,3.2201,-1.9118,-6.4525,0.2345,1.4574,-0.2573,
9.254268,-0.2978,-0.9206,-0.1055,3.2201,-1.9118,-6.4525,0.2345,1.4574,-0.2573,
9.255946,-0.3274,-1.0036,-0.0784,3.2201,-1.9118,-6.4525,0.2345,1.4574,-0.2573,
9.283089,-0.3274,-1.0036,-0.0784,3.2201,-1.9118,-6.4525,0.5552,1.6651,-0.1290,
9.286356,-0.3274,-1.0036,-0.0784,2.9106,-3.7196,-5.3863,0.5552,1.6651,-0.1290,
9.311762,-0.3420,-1.0579,-0.0557,2.9106,-3.7196,-5.3863,0.5552,1.6651,-0.1290,
9.314865,-0.3589,-1.0686,-0.0469,2.9106,-3.7196,-5.3863,0.5552,1.6651,-0.1290,
9.318001,-0.3643,-1.0115,-0.0384,2.9106,-3.7196,-5.3863,0.5552,1.6651,-0.1290,
9.342147,-0.3643,-1.0115,-0.0384,2.9996,-3.9626,-4.5729,0.5552,1.6651,-0.1290,
9.345311,-0.3643,-1.0115,-0.0384,2.9996,-3.9626,-4.5729,0.7507,1.6571,0.1788,
9.371771,-0.3716,-0.9479,-0.0503,2.9996,-3.9626,-4.5729,0.7507,1.6571,0.1788,
9.375015,-0.3591,-0.9008,-0.0542,2.9996,-3.9626,-4.5729,0.7507,1.6571,0.1788,
9.376827,-0.3523,-0.8681,-0.0647,2.9996,-3.9626,-4.5729,0.7507,1.6571,0.1788,
9.405706,-0.3523,-0.8681,-0.0647,2.9996,-3.9626,-4.5729,0.4764,1.5979,-0.1749,
9.408775,-0.3523,-0.8681,-0.0647,3.5258,-2.7026,-4.3473,0.4764,1.5979,-0.1749,
9.430443,-0.3936,-0.8617,-0.1016,3.5258,-2.7026,-4.3473,0.4764,1.5979,-0.1749,
9.433525,-0.4354,-0.8727,-0.0989,3.5258,-2.7026,-4.3473,0.4764,1.5979,-0.1749,
9.435912,-0.4681,-0.9032,-0.0784,3.5258,-2.7026,-4.3473,0.4764,1.5979,-0.1749,
9.462701,-0.4681,-0.9032,-0.0784,3.5258,-2.7026,-4.3473,0.5033,1.6938,-0.4375,
9.466293,-0.4681,-0.9032,-0.0784,2.6077,-2.9960,-3.9487,0.5033,1.6938,-0.4375,
9.489722,-0.4275,-0.9333,-0.0672,2.6077,-2.9960,-3.9487,0.5033,1.6938,-0.4375,
9.492378,-0.3264,-0.9875,-0.0958,2.6077,-2.9960,-3.9487,0.5033,1.6938,-0.4375,
9.494076,-0.2143,-1.0601,-0.1070,2.6077,-2.9960,-3.9487,0.5033,1.6938,-0.4375,
9.522212,-0.2143,-1.0601,-0.1070,2.6077,-2.9960,-3.9487,0.2962,1.6834,-0.0716,
9.524924,-0.2143,-1.0601,-0.1070,5.2399,-4.4080,-3.6040,0.2962,1.6834,-0.0716,
9.552575,-0.1546,-1.0782,-0.1437,5.2399,-4.4080,-3.6040,0.2962,1.6834,-0.0716,
9.555137,-0.1656,-1.0679,-0.1747,5.2399,-4.4080,-3.6040,0.2962,1.6834,-0.0716,
9.556950,-0.2235,-1.0454,-0.1913,5.2399,-4.4080,-3.6040,0.2962,1.6834,-0.0716,
9.582470,-0.2235,-1.0454,-0.1913,5.2399,-4.4080,-3.6040,0.1227,1.5429,0.2155,
9.585881,-0.2235,-1.0454,-0.1913,5.4046,-4.3420,-3.7813,0.1227,1.5429,0.2155,
9.609782,-0.2565,-1.0093,-0.1827,5.4046,-4.3420,-3.7813,0.1227,1.5429,0.2155,
9.613050,-0.2211,-1.0034,-0.1864,5.4046,-4.3420,-3.7813,0.1227,1.5429,0.2155,
9.615091,-0.1930,-1.0032,-0.2274,5.4046,-4.3420,-3.7813,0.1227,1.5429,0.2155,
9.642569,-0.1930,-1.0032,-0.2274,5.4046,-4.3420,-3.7813,0.0861,1.9387,-0.2915,
9.645553,-0.1930,-1.0032,-0.2274,5.8158,-3.8749,-3.3670,0.0861,1.9387,-0.2915,
9.671204,-0.1515,-0.9841,-0.2221,5.8158,-3.8749,-3.3670,0.0861,1.9387,-0.2915,
9.674138,-0.1114,-0.9711,-0.2282,5.8158,-3.8749,-3.3670,0.0861,1.9387,-0.2915,
9.676187,-0.0704,-0.9619,-0.2338,5.8158,-3.8749,-3.3670,0.0861,1.9387,-0.2915,
9.701946,-0.0704,-0.9619,-0.2338,5.8158,-3.8749,-3.3670,0.0818,2.1379,-0.1449,
9.704523,-0.0704,-0.9619,-0.2338,6.9850,-3.3249,-2.5020,0.0818,2.1379,-0.1449,
9.730155,-0.0645,-0.9619,-0.2172,6.9850,-3.3249,-2.5020,0.0818,2.1379,-0.1449,
9.734498,-0.0689,-0.9856,-0.2035,6.9850,-3.3249,-2.5020,0.0818,2.1379,-0.1449,
9.736688,-0.0906,-1.0056,-0.1952,6.9850,-3.3249,-2.5020,0.0818,2.1379,-0.1449,
9.762101,-0.0906,-1.0056,-0.1952,6.9850,-3.3249,-2.5020,0.3915,2.3010,-0.0264,
9.765068,-0.0906,-1.0056,-0.1952,6.6931,-3.6785,-1.1745,0.3915,2.3010,-0.0264,
9.790103,-0.1041,-0.9975,-0.1845,6.6931,-3.6785,-1.1745,0.3915,2.3010,-0.0264,
9.793049,-0.1026,-0.9983,-0.1622,6.6931,-3.6785,-1.1745,0.3915,2.3010,-0.0264,
9.794981,-0.1129,-1.0171,-0.1429,6.6931,-3.6785,-1.1745,0.3915,2.3010,-0.0264,
9.822975,-0.1129,-1.0171,-0.1429,6.2543,-3.6837,0.1834,0.3915,2.3010,-0.0264,
9.826142,-0.1129,-1.0171,-0.1429,6.2543,-3.6837,0.1834,0.5906,2.2784,-0.0973,
9.849366,-0.1559,-1.0290,-0.1356,6.2543,-3.6837,0.1834,0.5906,2.2784,-0.0973,
9.851274,-0.2008,-1.0166,-0.1041,6.2543,-3.6837,0.1834,0.5906,2.2784,-0.0973,
9.852948,-0.2416,-1.0019,-0.0662,6.2543,-3.6837,0.1834,0.5906,2.2784,-0.0973,
9.882055,-0.2416,-1.0019,-0.0662,6.2543,-3.6837,0.1834,0.6597,2.1703,0.0035,
9.885169,-0.2416,-1.0019,-0.0662,4.6902,-3.4147,1.6622,0.6597,2.1703,0.0035,
9.909715,-0.2453,-0.9951,-0.0415,4.6902,-3.4147,1.6622,0.6597,2.1703,0.0035,
9.912073,-0.2228,-0.9812,-0.0472,4.6902,-3.4147,1.6622,0.6597,2.1703,0.0035,
9.914392,-0.2040,-0.9526,-0.0264,4.6902,-3.4147,1.6622,0.6597,2.1703,0.0035,
9.943360,-0.2040,-0.9526,-0.0264,4.7269,-2.8271,2.6694,0.6597,2.1703,0.0035,
9.946266,-0.2040,-0.9526,-0.0264,4.7269,-2.8271,2.6694,0.4605,1.9448,0.1104,
9.970946,-0.2072,-0.9262,-0.0161,4.7269,-2.8271,2.6694,0.4605,1.9448,0.1104,
9.973187,-0.2077,-0.9242,-0.0107,4.7269,-2.8271,2.6694,0.4605,1.9448,0.1104,
9.974511,-0.2106,-0.9562,-0.0061,4.7269,-2.8271,2.6694,0.4605,1.9448,0.1104,
10.004107,-0.2106,-0.9562,-0.0061,4.3174,-2.7915,3.4269,0.4605,1.9448,0.1104,
10.006834,-0.2106,-0.9562,-0.0061,4.3174,-2.7915,3.4269,0.4007,1.8440,0.0536,
10.030770,-0.1976,-0.9912,-0.0222,4.3174,-2.7915,3.4269,0.4007,1.8440,0.0536,
10.034432,-0.1913,-1.0061,-0.0149,4.3174,-2.7915,3.4269,0.4007,1.8440,0.0536,
10.036108,-0.1781,-1.0044,-0.0127,4.3174,-2.7915,3.4269,0.4007,1.8440,0.0536,
10.063208,-0.1781,-1.0044,-0.0127,4.2283,-3.1722,3.8740,0.4007,1.8440,0.0536,
10.066885,-0.1781,-1.0044,-0.0127,4.2283,-3.1722,3.8740,0.4306,1.8538,0.1452,
10.090279,-0.1644,-0.9934,-0.0293,4.2283,-3.1722,3.8740,0.4306,1.8538,0.1452,
10.093012,-0.1637,-0.9795,-0.0076,4.2283,-3.1722,3.8740,0.4306,1.8538,0.1452,
10.094655,-0.1473,-0.9496,-0.0112,4.2283,-3.1722,3.8740,0.4306,1.8538,0.1452,
10.122130,-0.1473,-0.9496,-0.0112,4.1356,-2.5558,4.3022,0.4306,1.8538,0.1452,
10.125029,-0.1473,-0.9496,-0.0112,4.1356,-2.5558,4.3022,0.3701,1.5661,0.1324,
10.150039,-0.1429,-0.9438,0.0235,4.1356,-2.5558,4.3022,0.3701,1.5661,0.1324,
10.152694,-0.1495,-0.9460,0.0230,4.1356,-2.5558,4.3022,0.3701,1.5661,0.1324,
10.154037,-0.1412,-0.9577,0.0330,4.1356,-2.5558,4.3022,0.3701,1.5661,0.1324,
10.183054,-0.1412,-0.9577,0.0330,4.1356,-2.5558,4.3022,0.1960,1.3419,0.1208,
10.185773,-0.1412,-0.9577,0.0330,3.8244,-2.5639,5.0676,0.1960,1.3419,0.1208,
10.210101,-0.1309,-0.9653,0.0340,3.8244,-2.5639,5.0676,0.1960,1.3419,0.1208,
10.212476,-0.1388,-0.9699,0.0462,3.8244,-2.5639,5.0676,0.1960,1.3419,0.1208,
10.214101,-0.1507,-0.9809,0.0410,3.8244,-2.5639,5.0676,0.1960,1.3419,0.1208,
10.242425,-0.1507,-0.9809,0.0410,3.4153,-2.7661,5.4374,0.1960,1.3419,0.1208,
10.245214,-0.1507,-0.9809,0.0410,3.4153,-2.7661,5.4374,0.0543,1.0707,0.1611,
10.271689,-0.1488,-0.9917,0.0420,3.4153,-2.7661,5.4374,0.0543,1.0707,0.1611,
10.274304,-0.1522,-0.9919,0.0384,3.4153,-2.7661,5.4374,0.0543,1.0707,0.1611,
10.275865,-0.1432,-0.9839,0.0281,3.4153,-2.7661,5.4374,0.0543,1.0707,0.1611,
10.302960,-0.1432,-0.9839,0.0281,3.4153,-2.7661,5.4374,-0.1497,0.7469,0.1367,
10.306016,-0.1432,-0.9839,0.0281,3.2475,-2.8176,5.5644,-0.1497,0.7469,0.1367,
10.329934,-0.1427,-0.9733,0.0313,3.2475,-2.8176,5.5644,-0.1497,0.7469,0.1367,
10.332673,-0.1346,-0.9631,0.0279,3.2475,-2.8176,5.5644,-0.1497,0.7469,0.1367,
10.334545,-0.1104,-0.9641,0.0376,3.2475,-2.8176,5.5644,-0.1497,0.7469,0.1367,
10.363242,-0.1104,-0.9641,0.0376,3.2475,-2.8176,5.5644,-0.2469,0.5038,0.1721,
10.366227,-0.1104,-0.9641,0.0376,3.4015,-2.6968,5.8906,-0.2469,0.5038,0.1721,
10.390743,-0.0889,-0.9733,0.0491,3.4015,-2.6968,5.8906,-0.2469,0.5038,0.1721,
10.393596,-0.0831,-0.9919,0.0667,3.4015,-2.6968,5.8906,-0.2469,0.5038,0.1721,
10.395167,-0.0806,-0.9870,0.0735,3.4015,-2.6968,5.8906,-0.2469,0.5038,0.1721,
10.422635,-0.0806,-0.9870,0.0735,3.6421,-3.0249,6.4067,-0.2469,0.5038,0.1721,
10.425551,-0.0806,-0.9870,0.0735,3.6421,-3.0249,6.4067,-0.1668,0.2521,0.3053,
10.450953,-0.0711,-0.9741,0.0860,3.6421,-3.0249,6.4067,-0.1668,0.2521,0.3053,
10.455167,-0.0555,-1.0623,0.0931,3.6421,-3.0249,6.4067,-0.1668,0.2521,0.3053,
10.456884,-0.0875,-1.2726,-0.0403,3.6421,-3.0249,6.4067,-0.1668,0.2521,0.3053,
10.481603,-0.0875,-1.2726,-0.0403,3.6421,-3.0249,6.4067,0.0366,0.4965,-0.1077,
10.484694,-0.0875,-1.2726,-0.0403,3.5206,-5.8521,5.3658,0.0366,0.4965,-0.1077,
10.509506,-0.1586,-1.3056,-0.1016,3.5206,-5.8521,5.3658,0.0366,0.4965,-0.1077,
10.511874,-0.0437,-1.1009,-0.0848,3.5206,-5.8521,5.3658,0.0366,0.4965,-0.1077,
10.514413,0.0508,-1.0672,-0.0757,3.5206,-5.8521,5.3658,0.0366,0.4965,-0.1077,
10.542214,0.0508,-1.0672,-0.0757,3.5206,-5.8521,5.3658,0.4239,0.3816,0.1978,
10.545239,0.0508,-1.0672,-0.0757,4.6887,-3.6930,4.9885,0.4239,0.3816,0.1978,
10.570671,-0.0472,-1.0596,-0.0535,4.6887,-3.6930,4.9885,0.4239,0.3816,0.1978,
10.572951,-0.1468,-0.9895,-0.0396,4.6887,-3.6930,4.9885,0.4239,0.3816,0.1978,
10.574116,-0.1837,-0.9313,-0.0745,4.6887,-3.6930,4.9885,0.4239,0.3816,0.1978,
10.602722,-0.1837,-0.9313,-0.0745,4.6887,-3.6930,4.9885,0.1215,0.6406,0.3114,
10.605542,-0.1837,-0.9313,-0.0745,2.3526,-2.3160,4.9735,0.1215,0.6406,0.3114,
10.630340,-0.1994,-0.9003,-0.1339,2.3526,-2.3160,4.9735,0.1215,0.6406,0.3114,
10.633126,-0.1991,-0.8815,-0.1950,2.3526,-2.3160,4.9735,0.1215,0.6406,0.3114,
10.634866,-0.2248,-0.8952,-0.2184,2.3526,-2.3160,4.9735,0.1215,0.6406,0.3114,
10.662142,-0.2248,-0.8952,-0.2184,1.7971,-1.9722,3.6842,0.1215,0.6406,0.3114,
10.664661,-0.2248,-0.8952,-0.2184,1.7971,-1.9722,3.6842,0.0824,0.8422,0.2283,
10.691334,-0.2595,-0.9448,-0.2475,1.7971,-1.9722,3.6842,0.0824,0.8422,0.2283,
10.694101,-0.2841,-0.9741,-0.2792,1.7971,-1.9722,3.6842,0.0824,0.8422,0.2283,
10.695595,-0.3225,-0.9665,-0.2489,1.7971,-1.9722,3.6842,0.0824,0.8422,0.2283,
10.724164,-0.3225,-0.9665,-0.2489,1.7971,-1.9722,3.6842,0.3805,0.9302,0.5038,
10.726869,-0.3225,-0.9665,-0.2489,0.6590,-2.6456,3.4752,0.3805,0.9302,0.5038,
10.750168,-0.3635,-0.9655,-0.2340,0.6590,-2.6456,3.4752,0.3805,0.9302,0.5038,
10.754051,-0.3657,-0.9746,-0.2392,0.6590,-2.6456,3.4752,0.3805,0.9302,0.5038,
10.755861,-0.3545,-0.9511,-0.2160,0.6590,-2.6456,3.4752,0.3805,0.9302,0.5038,
10.783963,-0.3545,-0.9511,-0.2160,0.2528,-2.5131,3.8781,0.3805,0.9302,0.5038,
10.787525,-0.3545,-0.9511,-0.2160,0.2528,-2.5131,3.8781,0.1759,0.8606,0.6315,
10.824650,-0.3364,-0.9198,-0.1991,0.2528,-2.5131,3.8781,0.1759,0.8606,0.6315,
10.826549,-0.3445,-0.8913,-0.1859,0.2528,-2.5131,3.8781,0.1759,0.8606,0.6315,
10.827778,-0.3457,-0.8761,-0.1666,0.2528,-2.5131,3.8781,0.1759,0.8606,0.6315,
10.842498,-0.3457,-0.8761,-0.1666,0.2324,-1.8227,4.4764,0.1759,0.8606,0.6315,
10.844174,-0.3457,-0.8761,-0.1666,0.2324,-1.8227,4.4764,0.0738,0.9174,0.3114,
10.871963,-0.3225,-0.8817,-0.1608,0.2324,-1.8227,4.4764,0.0738,0.9174,0.3114,
10.874223,-0.3017,-0.8847,-0.1534,0.2324,-1.8227,4.4764,0.0738,0.9174,0.3114,
10.875760,-0.2995,-0.8981,-0.1434,0.2324,-1.8227,4.4764,0.0738,0.9174,0.3114,
10.904525,-0.2995,-0.8981,-0.1434,0.4462,-2.0530,4.8552,0.0738,0.9174,0.3114,
10.906558,-0.2995,-0.8981,-0.1434,0.4462,-2.0530,4.8552,0.0262,0.7647,0.0964,
10.929458,-0.3159,-0.9399,-0.1368,0.4462,-2.0530,4.8552,0.0262,0.7647,0.0964,
10.931086,-0.3252,-0.9736,-0.1270,0.4462,-2.0530,4.8552,0.0262,0.7647,0.0964,
10.932161,-0.3337,-0.9775,-0.1114,0.4462,-2.0530,4.8552,0.0262,0.7647,0.0964,
10.963472,-0.3337,-0.9775,-0.1114,0.4462,-2.0530,4.8552,0.1435,0.6871,0.2601,
10.965311,-0.3337,-0.9775,-0.1114,-0.1069,-2.7985,5.2470,0.1435,0.6871,0.2601,
10.989645,-0.3425,-0.9738,-0.0931,-0.1069,-2.7985,5.2470,0.1435,0.6871,0.2601,
10.992238,-0.3469,-0.9709,-0.0818,-0.1069,-2.7985,5.2470,0.1435,0.6871,0.2601,
10.994035,-0.3584,-0.9540,-0.0679,-0.1069,-2.7985,5.2470,0.1435,0.6871,0.2601,
11.023058,-0.3584,-0.9540,-0.0679,-0.1069,-2.7985,5.2470,0.1606,0.6370,0.3706,
11.026347,-0.3584,-0.9540,-0.0679,-0.4681,-2.5485,5.7099,0.1606,0.6370,0.3706,
11.049823,-0.3704,-0.9220,-0.0694,-0.4681,-2.5485,5.7099,0.1606,0.6370,0.3706,
11.052422,-0.3838,-0.8952,-0.0577,-0.4681,-2.5485,5.7099,0.1606,0.6370,0.3706,
11.053974,-0.4026,-0.8869,-0.0472,-0.4681,-2.5485,5.7099,0.1606,0.6370,0.3706,
11.082257,-0.4026,-0.8869,-0.0472,-0.4681,-2.5485,5.7099,0.1936,0.4818,0.0823,
11.085141,-0.4026,-0.8869,-0.0472,-1.0044,-1.8512,5.9202,0.1936,0.4818,0.0823,
11.110794,-0.4165,-0.8869,-0.0374,-1.0044,-1.8512,5.9202,0.1936,0.4818,0.0823,
11.114820,-0.4185,-0.9045,-0.0396,-1.0044,-1.8512,5.9202,0.1936,0.4818,0.0823,
11.117072,-0.4019,-0.9088,-0.0440,-1.0044,-1.8512,5.9202,0.1936,0.4818,0.0823,
11.143846,-0.4019,-0.9088,-0.0440,-1.0044,-1.8512,5.9202,0.1679,0.4494,-0.0722,
11.146607,-0.4019,-0.9088,-0.0440,-1.1678,-1.9710,5.9242,0.1679,0.4494,-0.0722,
11.169834,-0.3904,-0.8983,-0.0413,-1.1678,-1.9710,5.9242,0.1679,0.4494,-0.0722,
11.172771,-0.3992,-0.8949,-0.0391,-1.1678,-1.9710,5.9242,0.1679,0.4494,-0.0722,
11.174475,-0.4168,-0.9150,-0.0525,-1.1678,-1.9710,5.9242,0.1679,0.4494,-0.0722,
11.202345,-0.4168,-0.9150,-0.0525,-1.1678,-1.9710,5.9242,0.2149,0.3444,-0.2048,
11.206774,-0.4168,-0.9150,-0.0525,-1.5055,-1.9221,5.8014,0.2149,0.3444,-0.2048,
11.230729,-0.4192,-0.9416,-0.0667,-1.5055,-1.9221,5.8014,0.2149,0.3444,-0.2048,
11.234344,-0.3862,-0.9555,-0.0542,-1.5055,-1.9221,5.8014,0.2149,0.3444,-0.2048,
11.236051,-0.3315,-0.9741,-0.0279,-1.5055,-1.9221,5.8014,0.2149,0.3444,-0.2048,
11.262804,-0.3315,-0.9741,-0.0279,-1.5055,-1.9221,5.8014,0.2290,0.4757,-0.2824,
11.265547,-0.3315,-0.9741,-0.0279,-0.9135,-2.3513,5.9682,0.2290,0.4757,-0.2824,
11.290569,-0.3007,-0.9861,-0.0068,-0.9135,-2.3513,5.9682,0.2290,0.4757,-0.2824,
11.293965,-0.3147,-0.9821,0.0271,-0.9135,-2.3513,5.9682,0.2290,0.4757,-0.2824,
11.295892,-0.3858,-0.9294,-0.0313,-0.9135,-2.3513,5.9682,0.2290,0.4757,-0.2824,
11.322057,-0.3858,-0.9294,-0.0313,-0.9135,-2.3513,5.9682,-0.3018,0.1593,-0.0814,
11.326496,-0.3858,-0.9294,-0.0313,-1.6979,-1.8431,5.9430,-0.3018,0.1593,-0.0814,
11.349697,-0.5082,-0.9338,-0.2514,-1.6979,-1.8431,5.9430,-0.3018,0.1593,-0.0814,
11.353355,-0.6333,-1.2655,-0.1642,-1.6979,-1.8431,5.9430,-0.3018,0.1593,-0.0814,
11.355738,-0.5895,-1.2330,-0.1493,-1.6979,-1.8431,5.9430,-0.3018,0.1593,-0.0814,
11.383670,-0.5895,-1.2330,-0.1493,-3.6628,-4.8936,4.8616,-0.3018,0.1593,-0.0814,
11.387021,-0.5895,-1.2330,-0.1493,-3.6628,-4.8936,4.8616,-0.1711,-0.0533,0.1391,
11.411021,-0.4415,-1.0061,-0.1669,-3.6628,-4.8936,4.8616,-0.1711,-0.0533,0.1391,
11.414042,-0.4517,-1.0173,-0.2338,-3.6628,-4.8936,4.8616,-0.1711,-0.0533,0.1391,
11.415737,-0.4314,-0.9553,-0.3093,-3.6628,-4.8936,4.8616,-0.1711,-0.0533,0.1391,
11.442686,-0.4314,-0.9553,-0.3093,-2.0983,-2.2327,3.3573,-0.1711,-0.0533,0.1391,
11.445732,-0.4314,-0.9553,-0.3093,-2.0983,-2.2327,3.3573,-0.3269,-0.4039,-0.4681,
11.474136,-0.3513,-0.8575,-0.3630,-2.0983,-2.2327,3.3573,-0.3269,-0.4039,-0.4681,
11.476954,-0.1981,-0.7781,-0.3750,-2.0983,-2.2327,3.3573,-0.3269,-0.4039,-0.4681,
11.478747,-0.0450,-0.7293,-0.2597,-2.0983,-2.2327,3.3573,-0.3269,-0.4039,-0.4681,
11.502224,-0.0450,-0.7293,-0.2597,-2.0983,-2.2327,3.3573,0.3768,-0.9183,-0.5206,
11.505087,-0.0450,-0.7293,-0.2597,1.6883,0.0438,3.7740,0.3768,-0.9183,-0.5206,
11.532155,-0.0081,-0.8092,-0.0848,1.6883,0.0438,3.7740,0.3768,-0.9183,-0.5206,
11.533816,-0.1388,-1.0110,-0.1146,1.6883,0.0438,3.7740,0.3768,-0.9183,-0.5206,
11.534968,-0.2905,-1.1277,-0.1617,1.6883,0.0438,3.7740,0.3768,-0.9183,-0.5206,
11.562275,-0.2905,-1.1277,-0.1617,1.6883,0.0438,3.7740,0.3304,-1.0796,0.4879,
11.565092,-0.2905,-1.1277,-0.1617,-0.3518,-3.7490,4.4659,0.3304,-1.0796,0.4879,
11.590279,-0.4165,-1.1627,-0.1673,-0.3518,-3.7490,4.4659,0.3304,-1.0796,0.4879,
11.593069,-0.4962,-1.1202,-0.1600,-0.3518,-3.7490,4.4659,0.3304,-1.0796,0.4879,
11.594274,-0.4307,-1.0190,-0.1273,-0.3518,-3.7490,4.4659,0.3304,-1.0796,0.4879,
11.622992,-0.4307,-1.0190,-0.1273,-1.2833,-2.5009,4.3656,0.3304,-1.0796,0.4879,
11.627466,-0.4307,-1.0190,-0.1273,-1.2833,-2.5009,4.3656,0.7104,-1.0331,-0.3990,
11.649841,-0.3049,-0.9323,-0.1214,-1.2833,-2.5009,4.3656,0.7104,-1.0331,-0.3990,
11.652469,-0.2670,-0.8986,-0.1700,-1.2833,-2.5009,4.3656,0.7104,-1.0331,-0.3990,
11.654134,-0.2507,-0.8693,-0.1163,-1.2833,-2.5009,4.3656,0.7104,-1.0331,-0.3990,
11.681976,-0.2507,-0.8693,-0.1163,-1.2833,-2.5009,4.3656,-0.0917,-1.6293,-0.1242,
11.684681,-0.2507,-0.8693,-0.1163,0.7286,-0.8521,4.0801,-0.0917,-1.6293,-0.1242,
11.709690,-0.2778,-0.8641,-0.0464,0.7286,-0.8521,4.0801,-0.0917,-1.6293,-0.1242,
11.712237,-0.2504,-0.9106,-0.0161,0.7286,-0.8521,4.0801,-0.0917,-1.6293,-0.1242,
11.714812,-0.2020,-0.9409,-0.0569,0.7286,-0.8521,4.0801,-0.0917,-1.6293,-0.1242,
11.741700,-0.2020,-0.9409,-0.0569,0.7286,-0.8521,4.0801,-0.1717,-1.7985,-0.0270,
11.744079,-0.2020,-0.9409,-0.0569,1.7167,-1.5625,4.3270,-0.1717,-1.7985,-0.0270,
11.769762,-0.2152,-0.9357,-0.0591,1.7167,-1.5625,4.3270,-0.1717,-1.7985,-0.0270,
11.772402,-0.2712,-0.9013,-0.0533,1.7167,-1.5625,4.3270,-0.1717,-1.7985,-0.0270,
11.774060,-0.2871,-0.8883,-0.0442,1.7167,-1.5625,4.3270,-0.1717,-1.7985,-0.0270,
11.801838,-0.2871,-0.8883,-0.0442,1.7167,-1.5625,4.3270,-0.3171,-1.0796,-0.1932,
11.804834,-0.2871,-0.8883,-0.0442,1.2785,-1.0753,4.1718,-0.3171,-1.0796,-0.1932,
11.830947,-0.2570,-0.8920,-0.0286,1.2785,-1.0753,4.1718,-0.3171,-1.0796,-0.1932,
11.833808,-0.2023,-0.8859,-0.0164,1.2785,-1.0753,4.1718,-0.3171,-1.0796,-0.1932,
11.835583,-0.1378,-0.8629,-0.0090,1.2785,-1.0753,4.1718,-0.3171,-1.0796,-0.1932,
11.861637,-0.1378,-0.8629,-0.0090,1.2785,-1.0753,4.1718,-0.2548,-0.5848,-0.0252,
11.864022,-0.1378,-0.8629,-0.0090,2.9072,-0.8630,4.4259,-0.2548,-0.5848,-0.0252,
11.893137,-0.1024,-0.8502,-0.0032,2.9072,-0.8630,4.4259,-0.2548,-0.5848,-0.0252,
11.895627,-0.0928,-0.8898,0.0073,2.9072,-0.8630,4.4259,-0.2548,-0.5848,-0.0252,
11.897015,-0.1400,-0.9323,0.0630,2.9072,-0.8630,4.4259,-0.2548,-0.5848,-0.0252,
11.923127,-0.1400,-0.9323,0.0630,2.9072,-0.8630,4.4259,-0.1210,-0.9898,0.1312,
11.925446,-0.1400,-0.9323,0.0630,3.0755,-1.5794,5.0086,-0.1210,-0.9898,0.1312,
11.949636,-0.2497,-0.9599,0.1402,3.0755,-1.5794,5.0086,-0.1210,-0.9898,0.1312,
11.952611,-0.3169,-0.9633,0.0975,3.0755,-1.5794,5.0086,-0.1210,-0.9898,0.1312,
11.954170,-0.3523,-0.9523,0.0056,3.0755,-1.5794,5.0086,-0.1210,-0.9898,0.1312,
11.981909,-0.3523,-0.9523,0.0056,3.0755,-1.5794,5.0086,-0.2426,-0.8951,0.2497,
11.984864,-0.3523,-0.9523,0.0056,1.3541,-1.8680,4.2194,-0.2426,-0.8951,0.2497,
12.010209,-0.3672,-0.9538,0.0010,1.3541,-1.8680,4.2194,-0.2426,-0.8951,0.2497,
12.013202,-0.3889,-1.0024,0.0613,1.3541,-1.8680,4.2194,-0.2426,-0.8951,0.2497,
12.015127,-0.3906,-1.0325,0.1283,1.3541,-1.8680,4.2194,-0.2426,-0.8951,0.2497,
12.042482,-0.3906,-1.0325,0.1283,1.2681,-2.7382,5.2234,-0.2426,-0.8951,0.2497,
12.047001,-0.3906,-1.0325,0.1283,1.2681,-2.7382,5.2234,-0.2114,-1.1144,0.1568,
12.069706,-0.4131,-1.0393,0.1686,1.2681,-2.7382,5.2234,-0.2114,-1.1144,0.1568,
12.072480,-0.4283,-1.0124,0.1962,1.2681,-2.7382,5.2234,-0.2114,-1.1144,0.1568,
12.074147,-0.4136,-0.9587,0.2172,1.2681,-2.7382,5.2234,-0.2114,-1.1144,0.1568,
12.102586,-0.4136,-0.9587,0.2172,1.4447,-2.1101,5.7159,-0.2114,-1.1144,0.1568,
12.105407,-0.4136,-0.9587,0.2172,1.4447,-2.1101,5.7159,-0.2340,-1.5811,0.1984,
12.130576,-0.3660,-0.9059,0.2243,1.4447,-2.1101,5.7159,-0.2340,-1.5811,0.1984,
12.133489,-0.3327,-1.1280,0.2231,1.4447,-2.1101,5.7159,-0.2340,-1.5811,0.1984,
12.134977,-0.3728,-1.2751,0.0020,1.4447,-2.1101,5.7159,-0.2340,-1.5811,0.1984,
12.163746,-0.3728,-1.2751,0.0020,1.4447,-2.1101,5.7159,-0.6775,-0.6574,-0.5108,
12.166816,-0.3728,-1.2751,0.0020,2.0225,-5.2278,3.3554,-0.6775,-0.6574,-0.5108,
12.189735,-0.3349,-1.2203,-0.0726,2.0225,-5.2278,3.3554,-0.6775,-0.6574,-0.5108,
12.192587,-0.1630,-1.0786,-0.0945,2.0225,-5.2278,3.3554,-0.6775,-0.6574,-0.5108,
12.194270,-0.0796,-0.9900,-0.2008,2.0225,-5.2278,3.3554,-0.6775,-0.6574,-0.5108,
12.221816,-0.0796,-0.9900,-0.2008,2.0225,-5.2278,3.3554,-0.3513,-1.2219,-0.1193,
12.224554,-0.0796,-0.9900,-0.2008,4.8972,-2.3833,1.2531,-0.3513,-1.2219,-0.1193,
12.252301,-0.0767,-0.8993,-0.2199,4.8972,-2.3833,1.2531,-0.3513,-1.2219,-0.1193,
12.254471,-0.1634,-0.7930,-0.2555,4.8972,-2.3833,1.2531,-0.3513,-1.2219,-0.1193,
12.255891,-0.2665,-0.7066,-0.3027,4.8972,-2.3833,1.2531,-0.3513,-1.2219,-0.1193,
12.282391,-0.2665,-0.7066,-0.3027,4.8972,-2.3833,1.2531,-0.9121,-0.9580,-0.4155,
12.285435,-0.2665,-0.7066,-0.3027,3.2209,0.3314,0.1158,-0.9121,-0.9580,-0.4155,
12.311733,-0.3613,-0.6946,-0.3132,3.2209,0.3314,0.1158,-0.9121,-0.9580,-0.4155,
12.314006,-0.3489,-0.8375,-0.3117,3.2209,0.3314,0.1158,-0.9121,-0.9580,-0.4155,
12.315888,-0.2785,-1.0713,-0.2790,3.2209,0.3314,0.1158,-0.9121,-0.9580,-0.4155,
12.343049,-0.2785,-1.0713,-0.2790,2.9639,-3.1793,0.4564,-0.9121,-0.9580,-0.4155,
12.346213,-0.2785,-1.0713,-0.2790,2.9639,-3.1793,0.4564,-0.4411,-0.4882,-0.1779,
12.370838,-0.2516,-1.1852,-0.1957,2.9639,-3.1793,0.4564,-0.4411,-0.4882,-0.1779,
12.373630,-0.2204,-1.1329,-0.1581,2.9639,-3.1793,0.4564,-0.4411,-0.4882,-0.1779,
12.375626,-0.2060,-1.0464,-0.1622,2.9639,-3.1793,0.4564,-0.4411,-0.4882,-0.1779,
12.402072,-0.2060,-1.0464,-0.1622,3.9093,-3.0989,1.5452,-0.4411,-0.4882,-0.1779,
12.404678,-0.2060,-1.0464,-0.1622,3.9093,-3.0989,1.5452,-0.2536,-0.4424,0.8416,
12.430197,-0.2585,-0.9660,-0.1586,3.9093,-3.0989,1.5452,-0.2536,-0.4424,0.8416,
12.432861,-0.3007,-0.8771,-0.1656,3.9093,-3.0989,1.5452,-0.2536,-0.4424,0.8416,
12.434346,-0.3083,-0.8177,-0.1537,3.9093,-3.0989,1.5452,-0.2536,-0.4424,0.8416,
12.462771,-0.3083,-0.8177,-0.1537,3.9093,-3.0989,1.5452,-0.4313,-0.2708,0.2289,
12.465112,-0.3083,-0.8177,-0.1537,3.2366,-1.1479,1.6353,-0.4313,-0.2708,0.2289,
12.490350,-0.2819,-0.7811,-0.1546,3.2366,-1.1479,1.6353,-0.4313,-0.2708,0.2289,
12.493090,-0.2267,-0.7723,-0.1341,3.2366,-1.1479,1.6353,-0.4313,-0.2708,0.2289,
12.494700,-0.2582,-0.8270,-0.1102,3.2366,-1.1479,1.6353,-0.4313,-0.2708,0.2289,
12.521481,-0.2582,-0.8270,-0.1102,3.2366,-1.1479,1.6353,-0.3263,-0.1816,-0.0588,
12.524453,-0.2582,-0.8270,-0.1102,3.7606,-1.3089,2.1462,-0.3263,-0.1816,-0.0588,
12.550477,-0.2988,-0.8998,-0.1175,3.7606,-1.3089,2.1462,-0.3263,-0.1816,-0.0588,
12.552512,-0.3303,-0.9729,-0.0687,3.7606,-1.3089,2.1462,-0.3263,-0.1816,-0.0588,
12.553718,-0.3574,-0.9902,-0.0430,3.7606,-1.3089,2.1462,-0.3263,-0.1816,-0.0588,
12.563360,-0.3804,-0.9606,-0.0535,3.7606,-1.3089,2.1462,-0.3263,-0.1816,-0.0588,
12.586993,-0.3804,-0.9606,-0.0535,2.5830,-2.6341,2.6964,-0.3263,-0.1816,-0.0588,
12.589070,-0.3804,-0.9606,-0.0535,2.5830,-2.6341,2.6964,-0.0948,-0.1077,0.2002,
12.621185,-0.3709,-0.9047,-0.0816,2.5830,-2.6341,2.6964,-0.0948,-0.1077,0.2002,
12.623181,-0.3411,-0.8502,-0.0933,2.5830,-2.6341,2.6964,-0.0948,-0.1077,0.2002,
12.624518,-0.3354,-0.8788,-0.0777,2.5830,-2.6341,2.6964,-0.0948,-0.1077,0.2002,
12.641437,-0.3354,-0.8788,-0.0777,2.5830,-2.6341,2.6964,-0.0343,-0.1278,0.0585,
12.643292,-0.3354,-0.8788,-0.0777,3.1207,-1.9264,2.4648,-0.0343,-0.1278,0.0585,
12.681657,-0.3274,-0.9819,-0.0237,3.1207,-1.9264,2.4648,-0.0343,-0.1278,0.0585,
12.684809,-0.3296,-1.0584,0.0098,3.1207,-1.9264,2.4648,-0.0343,-0.1278,0.0585,
12.686725,-0.3525,-1.0513,-0.0081,3.1207,-1.9264,2.4648,-0.0343,-0.1278,0.0585,
12.701137,-0.3525,-1.0513,-0.0081,3.1207,-1.9264,2.4648,0.1215,0.1990,-0.0002,
12.702595,-0.3525,-1.0513,-0.0081,2.9036,-3.5420,3.0889,0.1215,0.1990,-0.0002,
12.741368,-0.4332,-1.0041,-0.0239,2.9036,-3.5420,3.0889,0.1215,0.1990,-0.0002,
12.744125,-0.5387,-0.9465,-0.0166,2.9036,-3.5420,3.0889,0.1215,0.1990,-0.0002,
12.745635,-0.6467,-0.9113,0.0137,2.9036,-3.5420,3.0889,0.1215,0.1990,-0.0002,
12.761684,-0.6467,-0.9113,0.0137,2.9036,-3.5420,3.0889,-0.0270,0.0597,0.2277,
12.763848,-0.6467,-0.9113,0.0137,0.0769,-2.2336,3.3234,-0.0270,0.0597,0.2277,
12.802581,-0.6685,-0.8742,-0.0985,0.0769,-2.2336,3.3234,-0.0270,0.0597,0.2277,
12.804490,-0.6470,-0.9924,-0.2108,0.0769,-2.2336,3.3234,-0.0270,0.0597,0.2277,
12.805737,-0.7444,-1.2738,-0.2624,0.0769,-2.2336,3.3234,-0.0270,0.0597,0.2277,
12.821483,-0.7444,-1.2738,-0.2624,0.0769,-2.2336,3.3234,-0.3098,-0.3569,-0.0802,
12.822712,-0.7444,-1.2738,-0.2624,-0.8694,-5.8144,0.6531,-0.3098,-0.3569,-0.0802,
12.861449,-0.6003,-1.2071,-0.2983,-0.8694,-5.8144,0.6531,-0.3098,-0.3569,-0.0802,
12.863776,-0.4613,-1.0217,-0.3926,-0.8694,-5.8144,0.6531,-0.3098,-0.3569,-0.0802,
12.865128,-0.3027,-0.9035,-0.3740,-0.8694,-5.8144,0.6531,-0.3098,-0.3569,-0.0802,
12.883828,-0.3027,-0.9035,-0.3740,3.5590,-2.2359,-0.5368,-0.3098,-0.3569,-0.0802,
12.886022,-0.3027,-0.9035,-0.3740,3.5590,-2.2359,-0.5368,-0.3617,-0.9403,-0.1046,
12.921078,-0.1512,-0.8251,-0.3919,3.5590,-2.2359,-0.5368,-0.3617,-0.9403,-0.1046,
12.924330,-0.0481,-0.8143,-0.3139,3.5590,-2.2359,-0.5368,-0.3617,-0.9403,-0.1046,
12.926208,0.0235,-0.8414,-0.1305,3.5590,-2.2359,-0.5368,-0.3617,-0.9403,-0.1046,
12.941545,0.0235,-0.8414,-0.1305,3.5590,-2.2359,-0.5368,0.0506,-1.2280,-0.5218,
12.944166,0.0235,-0.8414,-0.1305,6.8009,-1.5302,1.5304,0.0506,-1.2280,-0.5218,
12.981162,-0.0396,-0.9484,-0.0777,6.8009,-1.5302,1.5304,0.0506,-1.2280,-0.5218,
12.983032,-0.2460,-1.0711,-0.1500,6.8009,-1.5302,1.5304,0.0506,-1.2280,-0.5218,
12.984753,-0.4466,-1.1524,-0.2096,6.8009,-1.5302,1.5304,0.0506,-1.2280,-0.5218,
13.003115,-0.4466,-1.1524,-0.2096,6.8009,-1.5302,1.5304,0.1685,-1.3587,0.0249,
13.005354,-0.4466,-1.1524,-0.2096,2.2563,-4.4186,0.1609,0.1685,-1.3587,0.0249,
13.041908,-0.4911,-1.0501,-0.2294,2.2563,-4.4186,0.1609,0.1685,-1.3587,0.0249,
13.044220,-0.3579,-0.9052,-0.2094,2.2563,-4.4186,0.1609,0.1685,-1.3587,0.0249,
13.045224,-0.2250,-0.9137,-0.1493,2.2563,-4.4186,0.1609,0.1685,-1.3587,0.0249,
13.062582,-0.2250,-0.9137,-0.1493,4.5344,-2.0050,0.1034,0.1685,-1.3587,0.0249,
13.065807,-0.2250,-0.9137,-0.1493,4.5344,-2.0050,0.1034,0.2980,-1.3459,-0.4198,
13.101695,-0.1920,-0.9716,-0.1239,4.5344,-2.0050,0.1034,0.2980,-1.3459,-0.4198,
13.105046,-0.2001,-0.9558,-0.0858,4.5344,-2.0050,0.1034,0.2980,-1.3459,-0.4198,
13.106788,-0.2358,-0.9027,-0.0677,4.5344,-2.0050,0.1034,0.2980,-1.3459,-0.4198,
13.121854,-0.2358,-0.9027,-0.0677,4.5344,-2.0050,0.1034,0.0305,-1.3453,-0.1468,
13.124246,-0.2358,-0.9027,-0.0677,4.3299,-1.6961,0.3079,0.0305,-1.3453,-0.1468,
13.161585,-0.2785,-0.8737,-0.0723,4.3299,-1.6961,0.3079,0.0305,-1.3453,-0.1468,
13.164895,-0.2531,-0.8759,-0.0296,4.3299,-1.6961,0.3079,0.0305,-1.3453,-0.1468,
13.166788,-0.2089,-0.8898,-0.0249,4.3299,-1.6961,0.3079,0.0305,-1.3453,-0.1468,
13.182806,-0.2089,-0.8898,-0.0249,4.3299,-1.6961,0.3079,-0.0056,-1.2127,-0.0374,
13.186848,-0.2089,-0.8898,-0.0249,4.6334,-1.5545,0.1992,-0.0056,-1.2127,-0.0374,
13.221286,-0.2257,-0.8976,-0.0293,4.6334,-1.5545,0.1992,-0.0056,-1.2127,-0.0374,
13.222969,-0.2580,-0.8883,-0.0042,4.6334,-1.5545,0.1992,-0.0056,-1.2127,-0.0374,
13.223914,-0.2575,-0.8698,0.0208,4.6334,-1.5545,0.1992,-0.0056,-1.2127,-0.0374,
13.241292,-0.2575,-0.8698,0.0208,4.6334,-1.5545,0.1992,0.0567,-0.6019,0.0725,
13.242837,-0.2575,-0.8698,0.0208,4.1374,-1.3265,0.2734,0.0567,-0.6019,0.0725,
13.281618,-0.2057,-0.8600,0.0232,4.1374,-1.3265,0.2734,0.0567,-0.6019,0.0725,
13.284036,-0.1928,-0.8458,0.0518,4.1374,-1.3265,0.2734,0.0567,-0.6019,0.0725,
13.285308,-0.1823,-0.8338,0.0506,4.1374,-1.3265,0.2734,0.0567,-0.6019,0.0725,
13.302446,-0.1823,-0.8338,0.0506,4.1374,-1.3265,0.2734,-0.1174,-0.7356,0.1324,
13.304873,-0.1823,-0.8338,0.0506,4.8947,-0.9953,0.3018,-0.1174,-0.7356,0.1324,
13.341674,-0.1928,-0.8473,0.0694,4.8947,-0.9953,0.3018,-0.1174,-0.7356,0.1324,
13.344907,-0.2340,-0.9103,0.0821,4.8947,-0.9953,0.3018,-0.1174,-0.7356,0.1324,
13.346526,-0.2861,-0.9983,0.0643,4.8947,-0.9953,0.3018,-0.1174,-0.7356,0.1324,
13.361924,-0.2861,-0.9983,0.0643,4.8947,-0.9953,0.3018,-0.1870,-0.6837,-0.0374,
13.366671,-0.2861,-0.9983,0.0643,3.8781,-2.6196,0.1709,-0.1870,-0.6837,-0.0374,
13.401572,-0.3027,-1.0545,0.0564,3.8781,-2.6196,0.1709,-0.1870,-0.6837,-0.0374,
13.404118,-0.2707,-1.0381,0.0787,3.8781,-2.6196,0.1709,-0.1870,-0.6837,-0.0374,
13.405719,-0.2328,-1.0093,0.1258,3.8781,-2.6196,0.1709,-0.1870,-0.6837,-0.0374,
13.421795,-0.2328,-1.0093,0.1258,3.8781,-2.6196,0.1709,-0.0190,-0.5273,-0.0588,
13.424462,-0.2328,-1.0093,0.1258,4.3173,-2.6618,0.6280,-0.0190,-0.5273,-0.0588,
13.461763,-0.2443,-0.9975,0.1867,4.3173,-2.6618,0.6280,-0.0190,-0.5273,-0.0588,
13.465003,-0.3020,-0.9724,0.2311,4.3173,-2.6618,0.6280,-0.0190,-0.5273,-0.0588,
13.466937,-0.3525,-0.9252,0.2553,4.3173,-2.6618,0.6280,-0.0190,-0.5273,-0.0588,
13.482085,-0.3525,-0.9252,0.2553,3.1395,-1.8641,1.6068,-0.0190,-0.5273,-0.0588,
13.486470,-0.3525,-0.9252,0.2553,3.1395,-1.8641,1.6068,-0.2255,-1.0429,0.3138,
13.521919,-0.3601,-0.9042,0.2687,3.1395,-1.8641,1.6068,-0.2255,-1.0429,0.3138,
13.525582,-0.3093,-1.2589,0.1200,3.1395,-1.8641,1.6068,-0.2255,-1.0429,0.3138,
13.527231,-0.3501,-1.4395,-0.1212,3.1395,-1.8641,1.6068,-0.2255,-1.0429,0.3138,
13.542214,-0.3501,-1.4395,-0.1212,3.1395,-1.8641,1.6068,-0.9946,-0.2744,-0.7705,
13.544900,-0.3501,-1.4395,-0.1212,3.0813,-6.8659,-2.3403,-0.9946,-0.2744,-0.7705,
13.584724,-0.2108,-1.1627,-0.1138,3.0813,-6.8659,-2.3403,-0.9946,-0.2744,-0.7705,
13.586585,-0.0300,-1.1229,-0.0921,3.0813,-6.8659,-2.3403,-0.9946,-0.2744,-0.7705,
13.587615,-0.1417,-1.1168,-0.0271,3.0813,-6.8659,-2.3403,-0.9946,-0.2744,-0.7705,
13.601639,-0.1417,-1.1168,-0.0271,3.0813,-6.8659,-2.3403,0.0237,-0.7136,-0.0509,
13.604494,-0.1417,-1.1168,-0.0271,4.8193,-3.4128,-1.2196,0.0237,-0.7136,-0.0509,
13.641667,-0.2321,-1.0110,-0.0384,4.8193,-3.4128,-1.2196,0.0237,-0.7136,-0.0509,
13.644439,-0.2463,-0.8957,-0.1502,4.8193,-3.4128,-1.2196,0.0237,-0.7136,-0.0509,
13.646281,-0.2516,-0.7874,-0.2199,4.8193,-3.4128,-1.2196,0.0237,-0.7136,-0.0509,
13.662019,-0.2516,-0.7874,-0.2199,3.7447,-0.2096,-3.2677,0.0237,-0.7136,-0.0509,
13.664908,-0.2516,-0.7874,-0.2199,3.7447,-0.2096,-3.2677,-0.7820,-0.5206,0.1562,
13.701529,-0.2846,-0.6836,-0.2775,3.7447,-0.2096,-3.2677,-0.7820,-0.5206,0.1562,
13.704225,-0.2668,-0.6755,-0.3327,3.7447,-0.2096,-3.2677,-0.7820,-0.5206,0.1562,
13.705801,-0.2822,-0.8165,-0.3103,3.7447,-0.2096,-3.2677,-0.7820,-0.5206,0.1562,
13.722423,-0.2822,-0.8165,-0.3103,3.7447,-0.2096,-3.2677,-0.6128,-0.1486,-0.5176,
13.725694,-0.2822,-0.8165,-0.3103,3.3541,-0.3876,-3.9056,-0.6128,-0.1486,-0.5176,
13.761641,-0.2907,-1.0156,-0.1964,3.3541,-0.3876,-3.9056,-0.6128,-0.1486,-0.5176,
13.764679,-0.2751,-1.1375,-0.1393,3.3541,-0.3876,-3.9056,-0.6128,-0.1486,-0.5176,
13.766472,-0.2883,-1.1370,-0.1419,3.3541,-0.3876,-3.9056,-0.6128,-0.1486,-0.5176,
13.784828,-0.2883,-1.1370,-0.1419,3.1453,-3.3965,-2.1092,-0.6128,-0.1486,-0.5176,
13.787741,-0.2883,-1.1370,-0.1419,3.1453,-3.3965,-2.1092,-0.1271,-0.1119,0.3969,
13.822128,-0.2863,-1.0112,-0.1534,3.1453,-3.3965,-2.1092,-0.1271,-0.1119,0.3969,
13.826280,-0.2941,-0.8856,-0.1366,3.1453,-3.3965,-2.1092,-0.1271,-0.1119,0.3969,
13.827897,-0.3293,-0.8549,-0.1224,3.1453,-3.3965,-2.1092,-0.1271,-0.1119,0.3969,
13.843616,-0.3293,-0.8549,-0.1224,3.0194,-0.8501,-1.8952,-0.1271,-0.1119,0.3969,
13.846756,-0.3293,-0.8549,-0.1224,3.0194,-0.8501,-1.8952,-0.1894,-0.0961,0.6461,
13.881411,-0.3359,-0.8561,-0.1241,3.0194,-0.8501,-1.8952,-0.1894,-0.0961,0.6461,
13.884266,-0.3305,-0.8488,-0.1224,3.0194,-0.8501,-1.8952,-0.1894,-0.0961,0.6461,
13.885652,-0.3108,-0.8485,-0.1219,3.0194,-0.8501,-1.8952,-0.1894,-0.0961,0.6461,
13.903512,-0.3108,-0.8485,-0.1219,3.3714,-0.9193,-1.7367,-0.1894,-0.0961,0.6461,
13.906291,-0.3108,-0.8485,-0.1219,3.3714,-0.9193,-1.7367,-0.2224,0.2454,0.1513,
13.946049,-0.2939,-0.8558,-0.1234,3.3714,-0.9193,-1.7367,-0.2224,0.2454,0.1513,
13.948824,-0.2981,-0.8876,-0.1251,3.3714,-0.9193,-1.7367,-0.2224,0.2454,0.1513,
13.949979,-0.3108,-0.9465,-0.0970,3.3714,-0.9193,-1.7367,-0.2224,0.2454,0.1513,
13.963274,-0.3108,-0.9465,-0.0970,3.3714,-0.9193,-1.7367,-0.1058,0.2045,0.1526,
13.965709,-0.3108,-0.9465,-0.0970,3.4177,-1.9095,-1.3249,-0.1058,0.2045,0.1526,
14.002798,-0.3269,-0.9941,-0.0662,3.4177,-1.9095,-1.3249,-0.1058,0.2045,0.1526,
14.006473,-0.3496,-1.0168,-0.0376,3.4177,-1.9095,-1.3249,-0.1058,0.2045,0.1526,
14.008351,-0.3520,-0.9861,-0.0271,3.4177,-1.9095,-1.3249,-0.1058,0.2045,0.1526,
14.022246,-0.3520,-0.9861,-0.0271,3.4177,-1.9095,-1.3249,0.1624,0.5221,0.4122,
14.025491,-0.3520,-0.9861,-0.0271,3.1138,-2.3811,-0.5000,0.1624,0.5221,0.4122,
14.062835,-0.3628,-0.9272,-0.0244,3.1138,-2.3811,-0.5000,0.1624,0.5221,0.4122,
14.065534,-0.3845,-0.8734,-0.0291,3.1138,-2.3811,-0.5000,0.1624,0.5221,0.4122,
14.067159,-0.4031,-0.8561,-0.0425,3.1138,-2.3811,-0.5000,0.1624,0.5221,0.4122,
14.086265,-0.4031,-0.8561,-0.0425,3.1138,-2.3811,-0.5000,0.4098,0.4922,0.1342,
14.088901,-0.4031,-0.8561,-0.0425,2.7603,-1.2398,-0.5483,0.4098,0.4922,0.1342,
14.121493,-0.3946,-0.8805,-0.0550,2.7603,-1.2398,-0.5483,0.4098,0.4922,0.1342,
14.125419,-0.3731,-0.9081,-0.0687,2.7603,-1.2398,-0.5483,0.4098,0.4922,0.1342,
14.127199,-0.3919,-0.9365,-0.0701,2.7603,-1.2398,-0.5483,0.4098,0.4922,0.1342,
14.141955,-0.3919,-0.9365,-0.0701,2.7603,-1.2398,-0.5483,0.2681,0.6003,-0.0166,
14.144466,-0.3919,-0.9365,-0.0701,2.8399,-1.9982,-0.7637,0.2681,0.6003,-0.0166,
14.181931,-0.4730,-0.9431,-0.0677,2.8399,-1.9982,-0.7637,0.2681,0.6003,-0.0166,
14.185198,-0.5346,-0.9289,-0.0305,2.8399,-1.9982,-0.7637,0.2681,0.6003,-0.0166,
14.186441,-0.5246,-0.9162,0.0418,2.8399,-1.9982,-0.7637,0.2681,0.6003,-0.0166,
14.202403,-0.5246,-0.9162,0.0418,1.5729,-1.8304,0.4502,0.2681,0.6003,-0.0166,
14.205125,-0.5246,-0.9162,0.0418,1.5729,-1.8304,0.4502,0.3011,0.5551,0.1043,
14.242213,-0.4818,-0.9238,0.0508,1.5729,-1.8304,0.4502,0.3011,0.5551,0.1043,
14.244650,-0.4542,-0.9697,-0.1011,1.5729,-1.8304,0.4502,0.3011,0.5551,0.1043,
14.246440,-0.5563,-1.2467,-0.0550,1.5729,-1.8304,0.4502,0.3011,0.5551,0.1043,
14.262451,-0.5563,-1.2467,-0.0550,1.5729,-1.8304,0.4502,-0.0153,0.5673,0.3346,
14.265371,-0.5563,-1.2467,-0.0550,1.2573,-5.0691,-0.3132,-0.0153,0.5673,0.3346,
14.303361,-0.5272,-1.1998,-0.1639,1.2573,-5.0691,-0.3132,-0.0153,0.5673,0.3346,
14.306505,-0.4981,-1.0095,-0.2328,1.2573,-5.0691,-0.3132,-0.0153,0.5673,0.3346,
14.307960,-0.4566,-0.9506,-0.3064,1.2573,-5.0691,-0.3132,-0.0153,0.5673,0.3346,
14.322232,-0.4566,-0.9506,-0.3064,1.2573,-5.0691,-0.3132,-0.2224,0.1281,0.3505,
14.324888,-0.4566,-0.9506,-0.3064,2.4284,-2.3620,-2.6070,-0.2224,0.1281,0.3505,
14.362421,-0.4048,-0.9553,-0.3635,2.4284,-2.3620,-2.6070,-0.2224,0.1281,0.3505,
14.365022,-0.2392,-0.8815,-0.4202,2.4284,-2.3620,-2.6070,-0.2224,0.1281,0.3505,
14.366545,-0.0662,-0.8360,-0.3809,2.4284,-2.3620,-2.6070,-0.2224,0.1281,0.3505,
14.385211,-0.0662,-0.8360,-0.3809,2.4284,-2.3620,-2.6070,0.0231,0.0047,-0.3618,
14.387960,-0.0662,-0.8360,-0.3809,6.2533,-1.2454,-3.2251,0.0231,0.0047,-0.3618,
14.422269,0.1038,-0.8529,-0.1705,6.2533,-1.2454,-3.2251,0.0231,0.0047,-0.3618,
14.425494,0.1178,-1.0095,-0.0344,6.2533,-1.2454,-3.2251,0.0231,0.0047,-0.3618,
14.426834,-0.1002,-1.2333,-0.0635,6.2533,-1.2454,-3.2251,0.0231,0.0047,-0.3618,
14.442749,-0.1002,-1.2333,-0.0635,5.7625,-4.9729,-0.3255,0.0231,0.0047,-0.3618,
14.445963,-0.1002,-1.2333,-0.0635,5.7625,-4.9729,-0.3255,0.8399,0.0432,0.2613,
14.482586,-0.3169,-1.3154,-0.1070,5.7625,-4.9729,-0.3255,0.8399,0.0432,0.2613,
14.485573,-0.4114,-1.2045,-0.1197,5.7625,-4.9729,-0.3255,0.8399,0.0432,0.2613,
14.487234,-0.4312,-0.9926,-0.1327,5.7625,-4.9729,-0.3255,0.8399,0.0432,0.2613,
14.503792,-0.4312,-0.9926,-0.1327,2.7302,-2.8154,-1.3300,0.8399,0.0432,0.2613,
14.506635,-0.4312,-0.9926,-0.1327,2.7302,-2.8154,-1.3300,1.0158,0.1874,0.3877,
14.542682,-0.3821,-0.8849,-0.0989,2.7302,-2.8154,-1.3300,1.0158,0.1874,0.3877,
14.547736,-0.3645,-0.8891,-0.0621,2.7302,-2.8154,-1.3300,1.0158,0.1874,0.3877,
14.549630,-0.3325,-0.8507,-0.0784,2.7302,-2.8154,-1.3300,1.0158,0.1874,0.3877,
14.562472,-0.3325,-0.8507,-0.0784,2.7302,-2.8154,-1.3300,0.4397,0.3407,-0.4559,
14.565673,-0.3325,-0.8507,-0.0784,3.6466,-1.3785,-1.0329,0.4397,0.3407,-0.4559,
14.602393,-0.3257,-0.8109,-0.0300,3.6466,-1.3785,-1.0329,0.4397,0.3407,-0.4559,
14.606432,-0.2919,-0.7911,0.0340,3.6466,-1.3785,-1.0329,0.4397,0.3407,-0.4559,
14.608208,-0.2228,-0.7962,0.0540,3.6466,-1.3785,-1.0329,0.4397,0.3407,-0.4559,
14.621682,-0.2228,-0.7962,0.0540,3.6466,-1.3785,-1.0329,0.0861,0.3932,-0.1394,
14.625099,-0.2228,-0.7962,0.0540,4.5766,-0.7021,0.3092,0.0861,0.3932,-0.1394,
14.662490,-0.1710,-0.8177,0.0665,4.5766,-0.7021,0.3092,0.0861,0.3932,-0.1394,
14.665166,-0.1683,-0.8358,0.0723,4.5766,-0.7021,0.3092,0.0861,0.3932,-0.1394,
14.666881,-0.2397,-0.8373,0.0875,4.5766,-0.7021,0.3092,0.0861,0.3932,-0.1394,
14.682641,-0.2397,-0.8373,0.0875,4.3682,-1.0606,0.7725,0.0861,0.3932,-0.1394,
14.685205,-0.2397,-0.8373,0.0875,4.3682,-1.0606,0.7725,0.1190,0.5289,0.0896,
14.721503,-0.2880,-0.8473,0.0943,4.3682,-1.0606,0.7725,0.1190,0.5289,0.0896,
14.724563,-0.3171,-0.8710,0.0738,4.3682,-1.0606,0.7725,0.1190,0.5289,0.0896,
14.726492,-0.3247,-0.8952,0.0530,4.3682,-1.0606,0.7725,0.1190,0.5289,0.0896,
14.742558,-0.3247,-0.8952,0.0530,4.3682,-1.0606,0.7725,-0.0025,0.6022,0.2650,
14.746496,-0.3247,-0.8952,0.0530,3.6080,-1.6980,0.6480,-0.0025,0.6022,0.2650,
14.782407,-0.3098,-0.8908,0.0237,3.6080,-1.6980,0.6480,-0.0025,0.6022,0.2650,
14.785454,-0.2973,-0.8883,0.0254,3.6080,-1.6980,0.6480,-0.0025,0.6022,0.2650,
14.786679,-0.3149,-0.9225,0.0442,3.6080,-1.6980,0.6480,-0.0025,0.6022,0.2650,
14.803861,-0.3149,-0.9225,0.0442,3.6080,-1.6980,0.6480,-0.0813,0.1697,0.1055,
14.806577,-0.3149,-0.9225,0.0442,3.7571,-2.0248,0.7743,-0.0813,0.1697,0.1055,
14.841814,-0.3718,-0.9753,0.0486,3.7571,-2.0248,0.7743,-0.0813,0.1697,0.1055,
14.844555,-0.4009,-1.0176,0.0545,3.7571,-2.0248,0.7743,-0.0813,0.1697,0.1055,
14.845917,-0.3933,-1.0315,0.0738,3.7571,-2.0248,0.7743,-0.0813,0.1697,0.1055,
14.863459,-0.3933,-1.0315,0.0738,3.7571,-2.0248,0.7743,0.0604,-0.1003,0.0677,
14.866580,-0.3933,-1.0315,0.0738,3.0067,-3.1112,1.0804,0.0604,-0.1003,0.0677,
14.901958,-0.3762,-1.0066,0.1261,3.0067,-3.1112,1.0804,0.0604,-0.1003,0.0677,
14.905513,-0.3858,-0.9777,0.1823,3.0067,-3.1112,1.0804,0.0604,-0.1003,0.0677,
14.908206,-0.4051,-0.9741,0.2365,3.0067,-3.1112,1.0804,0.0604,-0.1003,0.0677,
14.921984,-0.4051,-0.9741,0.2365,3.0067,-3.1112,1.0804,-0.0123,-0.4290,0.1910,
14.926247,-0.4051,-0.9741,0.2365,2.9301,-2.5821,2.5794,-0.0123,-0.4290,0.1910,
14.961806,-0.4769,-1.1153,0.2990,2.9301,-2.5821,2.5794,-0.0123,-0.4290,0.1910,
14.965007,-0.4681,-1.3755,-0.0027,2.9301,-2.5821,2.5794,-0.0123,-0.4290,0.1910,
14.966840,-0.2746,-1.3139,-0.0980,2.9301,-2.5821,2.5794,-0.0123,-0.4290,0.1910,
14.982195,-0.2746,-1.3139,-0.0980,4.1474,-5.8484,-0.8452,-0.0123,-0.4290,0.1910,
14.985918,-0.2746,-1.3139,-0.0980,4.1474,-5.8484,-0.8452,-0.2518,0.3096,-0.8810,
15.021463,-0.1561,-0.9587,0.0024,4.1474,-5.8484,-0.8452,-0.2518,0.3096,-0.8810,
15.024082,-0.0230,-0.8707,0.0704,4.1474,-5.8484,-0.8452,-0.2518,0.3096,-0.8810,
15.025688,-0.0645,-0.9191,-0.0107,4.1474,-5.8484,-0.8452,-0.2518,0.3096,-0.8810,
15.041718,-0.0645,-0.9191,-0.0107,4.1474,-5.8484,-0.8452,0.3066,-0.0924,0.0487,
15.044897,-0.0645,-0.9191,-0.0107,6.0180,-1.8000,-0.0735,0.3066,-0.0924,0.0487,
15.082033,-0.1910,-0.9897,-0.0704,6.0180,-1.8000,-0.0735,0.3066,-0.0924,0.0487,
15.084779,-0.1637,-0.9264,-0.1981,6.0180,-1.8000,-0.0735,0.3066,-0.0924,0.0487,
15.086676,-0.1053,-0.7996,-0.2575,6.0180,-1.8000,-0.0735,0.3066,-0.0924,0.0487,
15.101747,-0.1053,-0.7996,-0.2575,6.0180,-1.8000,-0.0735,-0.3800,0.2381,-0.1119,
15.106195,-0.1053,-0.7996,-0.2575,5.6112,-0.6232,-2.4361,-0.3800,0.2381,-0.1119,
15.142155,-0.1236,-0.7408,-0.2773,5.6112,-0.6232,-2.4361,-0.3800,0.2381,-0.1119,
15.145025,-0.2072,-0.8273,-0.2631,5.6112,-0.6232,-2.4361,-0.3800,0.2381,-0.1119,
15.146381,-0.2846,-1.0454,-0.2299,5.6112,-0.6232,-2.4361,-0.3800,0.2381,-0.1119,
15.161686,-0.2846,-1.0454,-0.2299,5.6112,-0.6232,-2.4361,0.1642,0.6480,-0.3563,
15.164240,-0.2846,-1.0454,-0.2299,3.7052,-2.9051,-1.9115,0.1642,0.6480,-0.3563,
15.202763,-0.3005,-1.2062,-0.2294,3.7052,-2.9051,-1.9115,0.1642,0.6480,-0.3563,
15.206937,-0.2492,-1.1908,-0.1859,3.7052,-2.9051,-1.9115,0.1642,0.6480,-0.3563,
15.208475,-0.2262,-1.0821,-0.1639,3.7052,-2.9051,-1.9115,0.1642,0.6480,-0.3563,
15.224483,-0.2262,-1.0821,-0.1639,3.7052,-2.9051,-1.9115,0.5259,1.1098,0.7207,
15.229645,-0.2262,-1.0821,-0.1639,4.2616,-3.2605,-1.0905,0.5259,1.1098,0.7207,
15.262166,-0.2553,-0.9775,-0.1649,4.2616,-3.2605,-1.0905,0.5259,1.1098,0.7207,
15.266154,-0.3044,-0.9137,-0.1639,4.2616,-3.2605,-1.0905,0.5259,1.1098,0.7207,
15.267676,-0.3081,-0.8844,-0.1876,4.2616,-3.2605,-1.0905,0.5259,1.1098,0.7207,
15.283300,-0.3081,-0.8844,-0.1876,4.2616,-3.2605,-1.0905,0.1991,1.2491,0.6559,
15.288358,-0.3081,-0.8844,-0.1876,3.7415,-1.6115,-1.0140,0.1991,1.2491,0.6559,
15.321810,-0.2934,-0.8373,-0.1808,3.7415,-1.6115,-1.0140,0.1991,1.2491,0.6559,
15.325441,-0.2775,-0.8167,-0.1480,3.7415,-1.6115,-1.0140,0.1991,1.2491,0.6559,
15.327847,-0.2651,-0.8251,-0.1351,3.7415,-1.6115,-1.0140,0.1991,1.2491,0.6559,
15.342062,-0.2651,-0.8251,-0.1351,3.7415,-1.6115,-1.0140,0.3029,1.4904,-0.1199,
15.344694,-0.2651,-0.8251,-0.1351,4.1883,-1.1256,-0.0276,0.3029,1.4904,-0.1199,
15.382363,-0.2709,-0.8805,-0.1217,4.1883,-1.1256,-0.0276,0.3029,1.4904,-0.1199,
15.386096,-0.3188,-0.9836,-0.1029,4.1883,-1.1256,-0.0276,0.3029,1.4904,-0.1199,
15.387459,-0.3972,-1.0464,-0.0635,4.1883,-1.1256,-0.0276,0.3029,1.4904,-0.1199,
15.403017,-0.3972,-1.0464,-0.0635,4.1883,-1.1256,-0.0276,0.4831,1.6919,0.1129,
15.406031,-0.3972,-1.0464,-0.0635,2.6644,-3.1786,1.1382,0.4831,1.6919,0.1129,
15.441698,-0.4434,-1.0366,-0.0899,2.6644,-3.1786,1.1382,0.4831,1.6919,0.1129,
15.444347,-0.4588,-0.9755,-0.0838,2.6644,-3.1786,1.1382,0.4831,1.6919,0.1129,
15.445961,-0.4837,-0.8898,-0.0963,2.6644,-3.1786,1.1382,0.4831,1.6919,0.1129,
15.462173,-0.4837,-0.8898,-0.0963,2.6644,-3.1786,1.1382,0.3750,1.4146,0.4299,
15.465241,-0.4837,-0.8898,-0.0963,1.7601,-1.7129,1.2506,0.3750,1.4146,0.4299,
15.501156,-0.4688,-0.8488,-0.0826,1.7601,-1.7129,1.2506,0.3750,1.4146,0.4299,
15.503530,-0.4283,-0.8644,-0.0564,1.7601,-1.7129,1.2506,0.3750,1.4146,0.4299,
15.504755,-0.3503,-0.9093,-0.0437,1.7601,-1.7129,1.2506,0.3750,1.4146,0.4299,
15.522953,-0.3503,-0.9093,-0.0437,2.9071,-1.8917,2.1582,0.3750,1.4146,0.4299,
15.525792,-0.3503,-0.9093,-0.0437,2.9071,-1.8917,2.1582,0.4727,1.6162,-0.1223,
15.561904,-0.3095,-0.9184,-0.0557,2.9071,-1.8917,2.1582,0.4727,1.6162,-0.1223,
15.565101,-0.3332,-0.9343,-0.0672,2.9071,-1.8917,2.1582,0.4727,1.6162,-0.1223,
15.566382,-0.3762,-0.9555,-0.0850,2.9071,-1.8917,2.1582,0.4727,1.6162,-0.1223,
15.583153,-0.3762,-0.9555,-0.0850,2.9071,-1.8917,2.1582,0.5900,1.7378,-0.0466,
15.586069,-0.3762,-0.9555,-0.0850,2.3139,-2.2036,2.1478,0.5900,1.7378,-0.0466,
15.621560,-0.3906,-0.9580,-0.0794,2.3139,-2.2036,2.1478,0.5900,1.7378,-0.0466,
15.624258,-0.3645,-0.9528,-0.0513,2.3139,-2.2036,2.1478,0.5900,1.7378,-0.0466,
15.625816,-0.3345,-0.9440,-0.0235,2.3139,-2.2036,2.1478,0.5900,1.7378,-0.0466,
15.641843,-0.3345,-0.9440,-0.0235,2.3139,-2.2036,2.1478,0.8942,2.1073,-0.0961,
15.644468,-0.3345,-0.9440,-0.0235,2.3442,-1.9251,3.0698,0.8942,2.1073,-0.0961,
15.681865,-0.3291,-0.9308,-0.0564,2.3442,-1.9251,3.0698,0.8942,2.1073,-0.0961,
15.684473,-0.3293,-0.9846,-0.2055,2.3442,-1.9251,3.0698,0.8942,2.1073,-0.0961,
15.686257,-0.3892,-1.1903,-0.1454,2.3442,-1.9251,3.0698,0.8942,2.1073,-0.0961,
15.701684,-0.3892,-1.1903,-0.1454,2.3442,-1.9251,3.0698,0.6853,2.0340,0.0469,
15.704582,-0.3892,-1.1903,-0.1454,1.3067,-4.1131,2.1698,0.6853,2.0340,0.0469,
15.743264,-0.4427,-1.1600,-0.2079,1.3067,-4.1131,2.1698,0.6853,2.0340,0.0469,
15.746314,-0.4085,-0.9702,-0.1974,1.3067,-4.1131,2.1698,0.6853,2.0340,0.0469,
15.747862,-0.4346,-0.9247,-0.2025,1.3067,-4.1131,2.1698,0.6853,2.0340,0.0469,
15.761965,-0.4346,-0.9247,-0.2025,1.3067,-4.1131,2.1698,0.5821,1.7830,0.2662,
15.764421,-0.4346,-0.9247,-0.2025,0.5655,-1.4289,1.8390,0.5821,1.7830,0.2662,
15.803052,-0.4041,-0.8705,-0.2431,0.5655,-1.4289,1.8390,0.5821,1.7830,0.2662,
15.806323,-0.3701,-0.8326,-0.2660,0.5655,-1.4289,1.8390,0.5821,1.7830,0.2662,
15.808051,-0.3208,-0.8409,-0.2814,0.5655,-1.4289,1.8390,0.5821,1.7830,0.2662,
15.825749,-0.3208,-0.8409,-0.2814,0.5655,-1.4289,1.8390,0.1178,1.6412,-0.1455,
15.828322,-0.3208,-0.8409,-0.2814,1.3009,-0.5302,1.3599,0.1178,1.6412,-0.1455,
15.861677,-0.2406,-0.8815,-0.2690,1.3009,-0.5302,1.3599,0.1178,1.6412,-0.1455,
15.864267,-0.1700,-0.9242,-0.2231,1.3009,-0.5302,1.3599,0.1178,1.6412,-0.1455,
15.865639,-0.1363,-0.9814,-0.1295,1.3009,-0.5302,1.3599,0.1178,1.6412,-0.1455,
15.881771,-0.1363,-0.9814,-0.1295,1.3009,-0.5302,1.3599,0.4239,1.5875,-0.2091,
15.884259,-0.1363,-0.9814,-0.1295,2.5718,-1.7948,3.1696,0.4239,1.5875,-0.2091,
15.921771,-0.1549,-1.0369,-0.0413,2.5718,-1.7948,3.1696,0.4239,1.5875,-0.2091,
15.924051,-0.1845,-1.0938,-0.0330,2.5718,-1.7948,3.1696,0.4239,1.5875,-0.2091,
15.925056,-0.2448,-1.1292,-0.0403,2.5718,-1.7948,3.1696,0.4239,1.5875,-0.2091,
15.941919,-0.2448,-1.1292,-0.0403,2.5718,-1.7948,3.1696,0.7800,1.2515,-0.0392,
15.944450,-0.2448,-1.1292,-0.0403,1.0778,-3.0464,4.0506,0.7800,1.2515,-0.0392,
15.982407,-0.3061,-1.1065,-0.0437,1.0778,-3.0464,4.0506,0.7800,1.2515,-0.0392,
15.985371,-0.3313,-1.0603,-0.0577,1.0778,-3.0464,4.0506,0.7800,1.2515,-0.0392,
15.986475,-0.2917,-0.9839,-0.0413,1.0778,-3.0464,4.0506,0.7800,1.2515,-0.0392,
16.001622,-0.2917,-0.9839,-0.0413,1.0778,-3.0464,4.0506,1.0561,1.5136,-0.2854,
16.004298,-0.2917,-0.9839,-0.0413,0.1982,-1.3472,3.8412,1.0561,1.5136,-0.2854,
16.042853,-0.2502,-0.9313,-0.0515,0.1982,-1.3472,3.8412,1.0561,1.5136,-0.2854,
16.045985,-0.1996,-0.9049,-0.0547,0.1982,-1.3472,3.8412,1.0561,1.5136,-0.2854,
16.047543,-0.1947,-0.8832,-0.0344,0.1982,-1.3472,3.8412,1.0561,1.5136,-0.2854,
16.062496,-0.1947,-0.8832,-0.0344,0.1982,-1.3472,3.8412,0.6334,1.4329,-0.1028,
16.065522,-0.1947,-0.8832,-0.0344,0.6428,-0.0761,3.6697,0.6334,1.4329,-0.1028,
16.102830,-0.1896,-0.8766,0.0005,0.6428,-0.0761,3.6697,0.6334,1.4329,-0.1028,
16.105983,-0.1837,-0.8817,0.0376,0.6428,-0.0761,3.6697,0.6334,1.4329,-0.1028,
16.107243,-0.2006,-0.8874,0.0437,0.6428,-0.0761,3.6697,0.6334,1.4329,-0.1028,
16.125612,-0.2006,-0.8874,0.0437,0.6428,-0.0761,3.6697,0.5118,1.3877,0.0408,
16.128666,-0.2006,-0.8874,0.0437,0.2448,0.0257,4.3293,0.5118,1.3877,0.0408,
16.163723,-0.2402,-0.9015,0.0467,0.2448,0.0257,4.3293,0.5118,1.3877,0.0408,
16.166048,-0.2822,-0.9269,0.0393,0.2448,0.0257,4.3293,0.5118,1.3877,0.0408,
16.167343,-0.2875,-0.9382,0.0564,0.2448,0.0257,4.3293,0.5118,1.3877,0.0408,
16.181669,-0.2875,-0.9382,0.0564,0.2448,0.0257,4.3293,0.4422,1.3157,0.0909,
16.184149,-0.2875,-0.9382,0.0564,-0.8901,-0.3617,4.3534,0.4422,1.3157,0.0909,
16.221785,-0.2621,-0.9465,0.0713,-0.8901,-0.3617,4.3534,0.4422,1.3157,0.0909,
16.224433,-0.2348,-0.9496,0.0809,-0.8901,-0.3617,4.3534,0.4422,1.3157,0.0909,
16.226017,-0.2099,-0.9506,0.0855,-0.8901,-0.3617,4.3534,0.4422,1.3157,0.0909,
16.241507,-0.2099,-0.9506,0.0855,-0.8901,-0.3617,4.3534,0.4904,1.1495,0.2430,
16.243288,-0.2099,-0.9506,0.0855,-0.3108,-0.3891,4.5027,0.4904,1.1495,0.2430,
16.282296,-0.2003,-0.9580,0.0804,-0.3108,-0.3891,4.5027,0.4904,1.1495,0.2430,
16.285367,-0.2157,-0.9616,0.0638,-0.3108,-0.3891,4.5027,0.4904,1.1495,0.2430,
16.286899,-0.2665,-0.9668,0.0738,-0.3108,-0.3891,4.5027,0.4904,1.1495,0.2430,
16.301858,-0.2665,-0.9668,0.0738,-0.3108,-0.3891,4.5027,0.3854,1.0157,0.2100,
16.304617,-0.2665,-0.9668,0.0738,-0.9813,-0.4622,4.2296,0.3854,1.0157,0.2100,
16.342993,-0.3183,-0.9777,0.0921,-0.9813,-0.4622,4.2296,0.3854,1.0157,0.2100,
16.346082,-0.3425,-1.0005,0.0977,-0.9813,-0.4622,4.2296,0.3854,1.0157,0.2100,
16.348875,-0.3371,-1.0178,0.1158,-0.9813,-0.4622,4.2296,0.3854,1.0157,0.2100,
16.362014,-0.3371,-1.0178,0.1158,-1.7503,-0.9108,4.5415,0.3854,1.0157,0.2100,
16.364725,-0.3371,-1.0178,0.1158,-1.7503,-0.9108,4.5415,0.1722,0.6834,0.1147,
16.401888,-0.3083,-1.0207,0.1444,-1.7503,-0.9108,4.5415,0.1722,0.6834,0.1147,
16.404657,-0.2563,-1.0141,0.1634,-1.7503,-0.9108,4.5415,0.1722,0.6834,0.1147,
16.406220,-0.2397,-1.0161,0.2023,-1.7503,-0.9108,4.5415,0.1722,0.6834,0.1147,
16.422242,-0.2397,-1.0161,0.2023,-0.8254,-0.8678,5.3323,0.1722,0.6834,0.1147,
16.425166,-0.2397,-1.0161,0.2023,-0.8254,-0.8678,5.3323,0.1050,0.1947,0.1831,
16.462068,-0.2511,-1.0234,0.2311,-0.8254,-0.8678,5.3323,0.1050,0.1947,0.1831,
16.464733,-0.2573,-1.0239,0.2404,-0.8254,-0.8678,5.3323,0.1050,0.1947,0.1831,
16.465900,-0.2326,-1.0374,0.2206,-0.8254,-0.8678,5.3323,0.1050,0.1947,0.1831,
16.481879,-0.2326,-1.0374,0.2206,-0.8254,-0.8678,5.3323,0.1252,-0.0502,0.1446,
16.484192,-0.2326,-1.0374,0.2206,-0.6378,-1.0663,5.4284,0.1252,-0.0502,0.1446,
16.522924,-0.2081,-1.1563,0.1566,-0.6378,-1.0663,5.4284,0.1252,-0.0502,0.1446,
16.526501,-0.2191,-1.2045,0.0437,-0.6378,-1.0663,5.4284,0.1252,-0.0502,0.1446,
16.528100,-0.2062,-1.0361,0.0540,-0.6378,-1.0663,5.4284,0.1252,-0.0502,0.1446,
16.543621,-0.2062,-1.0361,0.0540,-0.4529,-1.0245,3.7483,0.1252,-0.0502,0.1446,
16.546430,-0.2062,-1.0361,0.0540,-0.4529,-1.0245,3.7483,0.1936,0.3749,0.0200,
16.582321,-0.1747,-0.8583,0.0606,-0.4529,-1.0245,3.7483,0.1936,0.3749,0.0200,
16.586644,-0.1673,-0.8507,0.0283,-0.4529,-1.0245,3.7483,0.1936,0.3749,0.0200,
16.588124,-0.2226,-0.9330,0.0132,-0.4529,-1.0245,3.7483,0.1936,0.3749,0.0200,
16.602157,-0.2226,-0.9330,0.0132,-0.5876,0.0205,3.2352,0.1936,0.3749,0.0200,
16.604748,-0.2226,-0.9330,0.0132,-0.5876,0.0205,3.2352,-0.0392,0.2466,0.1629,
16.641939,-0.2551,-0.9861,-0.0787,-0.5876,0.0205,3.2352,-0.0392,0.2466,0.1629,
16.645049,-0.2426,-0.9379,-0.1732,-0.5876,0.0205,3.2352,-0.0392,0.2466,0.1629,
16.646565,-0.2209,-0.8676,-0.2262,-0.5876,0.0205,3.2352,-0.0392,0.2466,0.1629,
16.662320,-0.2209,-0.8676,-0.2262,-0.5876,0.0205,3.2352,-0.2951,0.3303,0.0505,
16.666152,-0.2209,-0.8676,-0.2262,-0.5674,0.6091,1.0396,-0.2951,0.3303,0.0505,
16.702851,-0.2570,-0.8624,-0.2309,-0.5674,0.6091,1.0396,-0.2951,0.3303,0.0505,
16.706252,-0.3308,-0.9379,-0.2206,-0.5674,0.6091,1.0396,-0.2951,0.3303,0.0505,
16.707468,-0.3713,-1.0276,-0.1835,-0.5674,0.6091,1.0396,-0.2951,0.3303,0.0505,
16.721762,-0.3713,-1.0276,-0.1835,-0.5674,0.6091,1.0396,-0.0117,0.3535,0.0567,
16.724209,-0.3713,-1.0276,-0.1835,-2.0997,-0.9840,1.5543,-0.0117,0.3535,0.0567,
16.761216,-0.3376,-1.0447,-0.1564,-2.0997,-0.9840,1.5543,-0.0117,0.3535,0.0567,
16.763930,-0.2814,-1.0200,-0.1234,-2.0997,-0.9840,1.5543,-0.0117,0.3535,0.0567,
16.765566,-0.2746,-0.9841,-0.1131,-2.0997,-0.9840,1.5543,-0.0117,0.3535,0.0567,
16.781885,-0.2746,-0.9841,-0.1131,-2.0997,-0.9840,1.5543,-0.0196,0.5429,0.5276,
16.785166,-0.2746,-0.9841,-0.1131,-1.0869,-0.5809,2.2760,-0.0196,0.5429,0.5276,
16.821140,-0.2836,-0.9286,-0.1331,-1.0869,-0.5809,2.2760,-0.0196,0.5429,0.5276,
16.823934,-0.2773,-0.9023,-0.1388,-1.0869,-0.5809,2.2760,-0.0196,0.5429,0.5276,
16.825596,-0.2929,-0.9157,-0.1246,-1.0869,-0.5809,2.2760,-0.0196,0.5429,0.5276,
16.845072,-0.2929,-0.9157,-0.1246,-1.0950,0.0277,2.2416,-0.0196,0.5429,0.5276,
16.847880,-0.2929,-0.9157,-0.1246,-1.0950,0.0277,2.2416,-0.0092,0.7207,0.3480,
16.883764,-0.3029,-0.9167,-0.1202,-1.0950,0.0277,2.2416,-0.0092,0.7207,0.3480,
16.886651,-0.3066,-0.9057,-0.1173,-1.0950,0.0277,2.2416,-0.0092,0.7207,0.3480,
16.888127,-0.3259,-0.8854,-0.1239,-1.0950,0.0277,2.2416,-0.0092,0.7207,0.3480,
16.902476,-0.3259,-0.8854,-0.1239,-1.0950,0.0277,2.2416,-0.0031,0.8471,0.1959,
16.904683,-0.3259,-0.8854,-0.1239,-1.4479,0.3079,2.3067,-0.0031,0.8471,0.1959,
16.941438,-0.3540,-0.8825,-0.1073,-1.4479,0.3079,2.3067,-0.0031,0.8471,0.1959,
16.944092,-0.4026,-0.9045,-0.0860,-1.4479,0.3079,2.3067,-0.0031,0.8471,0.1959,
16.945388,-0.4332,-0.9362,-0.0713,-1.4479,0.3079,2.3067,-0.0031,0.8471,0.1959,
16.963467,-0.4332,-0.9362,-0.0713,-1.4479,0.3079,2.3067,0.1319,0.7750,0.2747,
16.965898,-0.4332,-0.9362,-0.0713,-2.5370,-0.2039,2.8751,0.1319,0.7750,0.2747,
17.001890,-0.4456,-0.9377,-0.0557,-2.5370,-0.2039,2.8751,0.1319,0.7750,0.2747,
17.003805,-0.4564,-0.9250,-0.0357,-2.5370,-0.2039,2.8751,0.1319,0.7750,0.2747,
17.004897,-0.4463,-0.8944,-0.0406,-2.5370,-0.2039,2.8751,0.1319,0.7750,0.2747,
17.022207,-0.4463,-0.8944,-0.0406,-2.5370,-0.2039,2.8751,0.1930,0.7720,0.2069,
17.024131,-0.4463,-0.8944,-0.0406,-2.6671,0.2196,3.1416,0.1930,0.7720,0.2069,
17.066503,-0.4253,-0.8722,-0.0408,-2.6671,0.2196,3.1416,0.1930,0.7720,0.2069,
17.071521,-0.4041,-0.8634,-0.0320,-2.6671,0.2196,3.1416,0.1930,0.7720,0.2069,
17.073097,-0.3858,-0.8722,-0.0322,-2.6671,0.2196,3.1416,0.1930,0.7720,0.2069,
17.083964,-0.3858,-0.8722,-0.0322,-2.6671,0.2196,3.1416,0.1887,0.6461,-0.0735,
17.085428,-0.3858,-0.8722,-0.0322,-2.1614,0.4657,3.1923,0.1887,0.6461,-0.0735,
17.120743,-0.3875,-0.9071,-0.0178,-2.1614,0.4657,3.1923,0.1887,0.6461,-0.0735,
17.122659,-0.3850,-0.9333,-0.0027,-2.1614,0.4657,3.1923,0.1887,0.6461,-0.0735,
17.123724,-0.3797,-0.9462,-0.0042,-2.1614,0.4657,3.1923,0.1887,0.6461,-0.0735,
17.141559,-0.3797,-0.9462,-0.0042,-2.1614,0.4657,3.1923,0.2351,0.6834,-0.1394,
17.144166,-0.3797,-0.9462,-0.0042,-2.2895,-0.1915,3.3722,0.2351,0.6834,-0.1394,
17.181052,-0.3848,-0.9604,-0.0029,-2.2895,-0.1915,3.3722,0.2351,0.6834,-0.1394,
17.183141,-0.3997,-0.9721,-0.0022,-2.2895,-0.1915,3.3722,0.2351,0.6834,-0.1394,
17.184341,-0.4322,-0.9748,0.0081,-2.2895,-0.1915,3.3722,0.2351,0.6834,-0.1394,
17.201939,-0.4322,-0.9748,0.0081,-2.2895,-0.1915,3.3722,0.1520,0.7928,-0.1345,
17.204666,-0.4322,-0.9748,0.0081,-3.0081,-0.4229,3.4408,0.1520,0.7928,-0.1345,
17.241948,-0.4363,-0.9501,0.0235,-3.0081,-0.4229,3.4408,0.1520,0.7928,-0.1345,
17.244988,-0.4346,-0.9176,-0.0836,-3.0081,-0.4229,3.4408,0.1520,0.7928,-0.1345,
17.246416,-0.4788,-1.0210,-0.2824,-3.0081,-0.4229,3.4408,0.1520,0.7928,-0.1345,
17.262998,-0.4788,-1.0210,-0.2824,-3.7150,-0.8611,0.6368,0.1520,0.7928,-0.1345,
17.266227,-0.4788,-1.0210,-0.2824,-3.7150,-0.8611,0.6368,-0.1962,0.4531,-0.2921,
17.302169,-0.5768,-1.3484,-0.1182,-3.7150,-0.8611,0.6368,-0.1962,0.4531,-0.2921,
17.305163,-0.4820,-1.2863,-0.1351,-3.7150,-0.8611,0.6368,-0.1962,0.4531,-0.2921,
17.306524,-0.4356,-1.0769,-0.2099,-3.7150,-0.8611,0.6368,-0.1962,0.4531,-0.2921,
17.322081,-0.4356,-1.0769,-0.2099,-3.7150,-0.8611,0.6368,-0.0001,0.5808,0.1678,
17.326164,-0.4356,-1.0769,-0.2099,-3.4436,-1.3897,1.3354,-0.0001,0.5808,0.1678,
17.362755,-0.4329,-0.9128,-0.3171,-3.4436,-1.3897,1.3354,-0.0001,0.5808,0.1678,
17.366003,-0.3843,-0.7860,-0.3924,-3.4436,-1.3897,1.3354,-0.0001,0.5808,0.1678,
17.368104,-0.2157,-0.7095,-0.3518,-3.4436,-1.3897,1.3354,-0.0001,0.5808,0.1678,
17.383985,-0.2157,-0.7095,-0.3518,-3.4436,-1.3897,1.3354,0.1252,-0.0484,-0.4381,
17.387929,-0.2157,-0.7095,-0.3518,-1.3471,2.1909,0.0120,0.1252,-0.0484,-0.4381,
17.422120,-0.0699,-0.7242,-0.2240,-1.3471,2.1909,0.0120,0.1252,-0.0484,-0.4381,
17.424888,-0.0442,-0.8773,-0.0980,-1.3471,2.1909,0.0120,0.1252,-0.0484,-0.4381,
17.426425,-0.1710,-1.0613,-0.0901,-1.3471,2.1909,0.0120,0.1252,-0.0484,-0.4381,
17.442179,-0.1710,-1.0613,-0.0901,-1.3471,2.1909,0.0120,0.6511,-0.2152,-0.1822,
17.444953,-0.1710,-1.0613,-0.0901,-1.1310,-1.1369,2.2876,0.6511,-0.2152,-0.1822,
17.481521,-0.3472,-1.1473,-0.1209,-1.1310,-1.1369,2.2876,0.6511,-0.2152,-0.1822,
17.484481,-0.4674,-1.1319,-0.1634,-1.1310,-1.1369,2.2876,0.6511,-0.2152,-0.1822,
17.487221,-0.5436,-1.0369,-0.1832,-1.1310,-1.1369,2.2876,0.6511,-0.2152,-0.1822,
17.501435,-0.5436,-1.0369,-0.1832,-1.1310,-1.1369,2.2876,0.6847,-0.4565,0.5063,
17.503533,-0.5436,-1.0369,-0.1832,-4.5136,-0.7947,0.9928,0.6847,-0.4565,0.5063,
17.543101,-0.4771,-0.9198,-0.1204,-4.5136,-0.7947,0.9928,0.6847,-0.4565,0.5063,
17.546165,-0.3926,-0.8602,-0.0816,-4.5136,-0.7947,0.9928,0.6847,-0.4565,0.5063,
17.547851,-0.3276,-0.8458,-0.0574,-4.5136,-0.7947,0.9928,0.6847,-0.4565,0.5063,
17.563294,-0.3276,-0.8458,-0.0574,-4.5136,-0.7947,0.9928,0.6224,-0.3154,-0.5689,
17.565868,-0.3276,-0.8458,-0.0574,-2.3605,1.1937,1.7881,0.6224,-0.3154,-0.5689,
17.601275,-0.2836,-0.8331,-0.0298,-2.3605,1.1937,1.7881,0.6224,-0.3154,-0.5689,
17.603519,-0.2844,-0.8380,-0.0330,-2.3605,1.1937,1.7881,0.6224,-0.3154,-0.5689,
17.605140,-0.2646,-0.8470,-0.0105,-2.3605,1.1937,1.7881,0.6224,-0.3154,-0.5689,
17.621571,-0.2646,-0.8470,-0.0105,-2.3605,1.1937,1.7881,0.0219,-0.8945,-0.0441,
17.623963,-0.2646,-0.8470,-0.0105,-1.8787,1.2447,2.0277,0.0219,-0.8945,-0.0441,
17.662968,-0.2485,-0.8607,0.0176,-1.8787,1.2447,2.0277,0.0219,-0.8945,-0.0441,
17.665839,-0.2641,-0.8654,0.0342,-1.8787,1.2447,2.0277,0.0219,-0.8945,-0.0441,
17.667280,-0.2939,-0.8663,-0.0032,-1.8787,1.2447,2.0277,0.0219,-0.8945,-0.0441,
17.681885,-0.2939,-0.8663,-0.0032,-1.8787,1.2447,2.0277,-0.0752,-0.7662,0.0096,
17.684147,-0.2939,-0.8663,-0.0032,-2.0169,1.0585,2.0300,-0.0752,-0.7662,0.0096,
17.721207,-0.3286,-0.8612,0.0149,-2.0169,1.0585,2.0300,-0.0752,-0.7662,0.0096,
17.724838,-0.3457,-0.8368,0.0271,-2.0169,1.0585,2.0300,-0.0752,-0.7662,0.0096,
17.726174,-0.2946,-0.8292,0.0379,-2.0169,1.0585,2.0300,-0.0752,-0.7662,0.0096,
17.743268,-0.2946,-0.8292,0.0379,-2.0169,1.0585,2.0300,-0.2017,-0.4962,0.0292,
17.746240,-0.2946,-0.8292,0.0379,-1.9420,1.4047,2.4780,-0.2017,-0.4962,0.0292,
17.782227,-0.2905,-0.8412,0.0679,-1.9420,1.4047,2.4780,-0.2017,-0.4962,0.0292,
17.785284,-0.2695,-0.8597,0.0625,-1.9420,1.4047,2.4780,-0.2017,-0.4962,0.0292,
17.786847,-0.2726,-0.9037,0.0865,-1.9420,1.4047,2.4780,-0.2017,-0.4962,0.0292,
17.802019,-0.2726,-0.9037,0.0865,-1.9420,1.4047,2.4780,-0.0813,-0.9537,0.1263,
17.804484,-0.2726,-0.9037,0.0865,-1.5847,0.6495,2.9979,-0.0813,-0.9537,0.1263,
17.841917,-0.3308,-0.9687,0.1031,-1.5847,0.6495,2.9979,-0.0813,-0.9537,0.1263,
17.844711,-0.3753,-1.0264,0.1126,-1.5847,0.6495,2.9979,-0.0813,-0.9537,0.1263,
17.846469,-0.4097,-1.0491,0.1007,-1.5847,0.6495,2.9979,-0.0813,-0.9537,0.1263,
17.861795,-0.4097,-1.0491,0.1007,-2.6982,-0.7864,3.0574,-0.0813,-0.9537,0.1263,
17.864658,-0.4097,-1.0491,0.1007,-2.6982,-0.7864,3.0574,-0.0019,-0.9305,0.1917,
17.901284,-0.4251,-1.0283,0.1297,-2.6982,-0.7864,3.0574,-0.0019,-0.9305,0.1917,
17.903976,-0.4674,-0.9812,0.1823,-2.6982,-0.7864,3.0574,-0.0019,-0.9305,0.1917,
17.905331,-0.4999,-0.9333,0.2573,-2.6982,-0.7864,3.0574,-0.0019,-0.9305,0.1917,
17.921976,-0.4999,-0.9333,0.2573,-2.6982,-0.7864,3.0574,-0.2383,-1.1272,0.4684,
17.925031,-0.4999,-0.9333,0.2573,-3.3022,0.3168,4.5393,-0.2383,-1.1272,0.4684,
17.961989,-0.5057,-0.9047,0.2448,-3.3022,0.3168,4.5393,-0.2383,-1.1272,0.4684,
17.964310,-0.4862,-1.2064,0.0875,-3.3022,0.3168,4.5393,-0.2383,-1.1272,0.4684,
17.965208,-0.4881,-1.3261,-0.0796,-3.3022,0.3168,4.5393,-0.2383,-1.1272,0.4684,
17.982929,-0.4881,-1.3261,-0.0796,-2.8697,-3.6245,1.3833,-0.2383,-1.1272,0.4684,
17.985461,-0.4881,-1.3261,-0.0796,-2.8697,-3.6245,1.3833,-0.8083,-0.4204,-0.4962,
18.021910,-0.3227,-1.0777,0.0337,-2.8697,-3.6245,1.3833,-0.8083,-0.4204,-0.4962,
18.023649,-0.1886,-0.9201,0.0066,-2.8697,-3.6245,1.3833,-0.8083,-0.4204,-0.4962,
18.024573,-0.2101,-0.9504,-0.0081,-2.8697,-3.6245,1.3833,-0.8083,-0.4204,-0.4962,
18.042480,-0.2101,-0.9504,-0.0081,-2.8697,-3.6245,1.3833,-0.5902,-0.7888,-0.1052,
18.044735,-0.2101,-0.9504,-0.0081,-0.3577,0.0323,2.3556,-0.5902,-0.7888,-0.1052,
18.082160,-0.2086,-0.9455,-0.0599,-0.3577,0.0323,2.3556,-0.5902,-0.7888,-0.1052,
18.084458,-0.2094,-0.8942,-0.2077,-0.3577,0.0323,2.3556,-0.5902,-0.7888,-0.1052,
18.085950,-0.2521,-0.7992,-0.3393,-0.3577,0.0323,2.3556,-0.5902,-0.7888,-0.1052,
18.104454,-0.2521,-0.7992,-0.3393,-0.6357,1.3851,-0.5235,-0.5902,-0.7888,-0.1052,
18.107079,-0.2521,-0.7992,-0.3393,-0.6357,1.3851,-0.5235,-1.2640,-0.9678,-0.0686,
18.142070,-0.3384,-0.7383,-0.3484,-0.6357,1.3851,-0.5235,-1.2640,-0.9678,-0.0686,
18.144219,-0.4007,-0.7290,-0.3437,-0.6357,1.3851,-0.5235,-1.2640,-0.9678,-0.0686,
18.145281,-0.4102,-0.8304,-0.3242,-0.6357,1.3851,-0.5235,-1.2640,-0.9678,-0.0686,
18.162311,-0.4102,-0.8304,-0.3242,-0.6357,1.3851,-0.5235,-0.8565,-0.4455,-0.5970,
18.165901,-0.4102,-0.8304,-0.3242,-2.1511,0.8914,0.1611,-0.8565,-0.4455,-0.5970,
18.202574,-0.3437,-1.0139,-0.2636,-2.1511,0.8914,0.1611,-0.8565,-0.4455,-0.5970,
18.204811,-0.3095,-1.0957,-0.1935,-2.1511,0.8914,0.1611,-0.8565,-0.4455,-0.5970,
18.205918,-0.3244,-1.0718,-0.1737,-2.1511,0.8914,0.1611,-0.8565,-0.4455,-0.5970,
18.222226,-0.3244,-1.0718,-0.1737,-2.1511,0.8914,0.1611,-0.5810,-0.7527,0.3731,
18.224736,-0.3244,-1.0718,-0.1737,-1.4272,-1.5649,1.9307,-0.5810,-0.7527,0.3731,
18.262476,-0.3704,-0.9902,-0.1881,-1.4272,-1.5649,1.9307,-0.5810,-0.7527,0.3731,
18.266607,-0.3797,-0.9076,-0.1830,-1.4272,-1.5649,1.9307,-0.5810,-0.7527,0.3731,
18.268352,-0.3608,-0.8424,-0.1903,-1.4272,-1.5649,1.9307,-0.5810,-0.7527,0.3731,
18.282418,-0.3608,-0.8424,-0.1903,-1.4272,-1.5649,1.9307,-0.6977,-0.6526,0.5001,
18.285060,-0.3608,-0.8424,-0.1903,-1.2765,0.4528,2.0375,-0.6977,-0.6526,0.5001,
18.321158,-0.3281,-0.8097,-0.1893,-1.2765,0.4528,2.0375,-0.6977,-0.6526,0.5001,
18.323774,-0.2897,-0.7891,-0.1852,-1.2765,0.4528,2.0375,-0.6977,-0.6526,0.5001,
18.325270,-0.2973,-0.8016,-0.1825,-1.2765,0.4528,2.0375,-0.6977,-0.6526,0.5001,
18.341674,-0.2973,-0.8016,-0.1825,-1.2765,0.4528,2.0375,-0.5676,-0.5359,-0.0985,
18.344136,-0.2973,-0.8016,-0.1825,-0.4117,0.6865,2.3275,-0.5676,-0.5359,-0.0985,
18.381637,-0.3513,-0.8211,-0.1666,-0.4117,0.6865,2.3275,-0.5676,-0.5359,-0.0985,
18.383758,-0.3821,-0.8575,-0.1583,-0.4117,0.6865,2.3275,-0.5676,-0.5359,-0.0985,
