
time,gFx,gFy,gFz,ax,ay,az,wx,wy,wz,
0.027351,-0.2121,-0.9773,0.1666,0.0000,0.0000,0.0000,0.0000,0.0000,0.0000,
0.085778,-0.2028,-1.0227,0.1744,0.0000,0.0000,0.0000,0.0000,0.0000,0.0000,
0.086502,-0.2028,-1.0227,0.1744,-2.6424,-13.1983,-7.5455,0.0000,0.0000,0.0000,
0.145626,-0.2817,-0.9795,0.1957,-2.6424,-13.1983,-7.5455,0.0000,0.0000,0.0000,
0.146594,-0.2817,-0.9795,0.1957,-3.3738,-12.9799,-7.2671,0.0000,0.0000,0.0000,
0.205972,-0.2797,-0.8986,0.2404,-3.3738,-12.9799,-7.2671,0.0000,0.0000,0.0000,
0.206916,-0.2797,-0.8986,0.2404,-3.3219,-12.2433,-6.8103,0.0000,0.0000,0.0000,
0.265340,-0.2162,-0.9040,0.2424,-3.3219,-12.2433,-6.8103,0.0000,0.0000,0.0000,
0.266421,-0.2162,-0.9040,0.2424,-2.7540,-12.2258,-6.8136,0.0000,0.0000,0.0000,
0.325547,-0.2042,-0.9203,0.2551,-2.7540,-12.2258,-6.8136,0.0000,0.0000,0.0000,
0.326393,-0.2042,-0.9203,0.2551,-2.7540,-12.2258,-6.8136,0.0073,0.0322,-0.0954,
0.326926,-0.2042,-0.9203,0.2551,-2.6113,-12.2796,-6.7291,0.0073,0.0322,-0.0954,
0.385513,-0.2243,-0.9108,0.2494,-2.6113,-12.2796,-6.7291,0.0073,0.0322,-0.0954,
0.386462,-0.2243,-0.9108,0.2494,-2.6113,-12.2796,-6.7291,0.0665,0.1452,-0.0612,
0.387022,-0.2243,-0.9108,0.2494,-2.7479,-12.1315,-6.8071,0.0665,0.1452,-0.0612,
0.445238,-0.2108,-0.9245,0.2548,-2.7479,-12.1315,-6.8071,0.0665,0.1452,-0.0612,
0.445963,-0.2108,-0.9245,0.2548,-2.7479,-12.1315,-6.8071,-0.0367,0.1623,-0.0979,
0.446635,-0.2108,-0.9245,0.2548,-2.4887,-12.1929,-6.7860,-0.0367,0.1623,-0.0979,
0.508357,-0.2262,-0.9594,0.2580,-2.4887,-12.1929,-6.7860,-0.0367,0.1623,-0.0979,
0.509332,-0.2262,-0.9594,0.2580,-2.4887,-12.1929,-6.7860,-0.1418,0.0359,-0.0735,
0.509998,-0.2262,-0.9594,0.2580,-2.5352,-12.4008,-6.8033,-0.1418,0.0359,-0.0735,
0.564915,-0.2328,-0.9584,0.3132,-2.5352,-12.4008,-6.8033,-0.1418,0.0359,-0.0735,
0.565742,-0.2328,-0.9584,0.3132,-2.5352,-12.4008,-6.8033,-0.2371,-0.1578,-0.0215,
0.566440,-0.2328,-0.9584,0.3132,-2.5972,-12.2168,-6.3166,-0.2371,-0.1578,-0.0215,
0.625290,-0.2340,-0.9198,0.3633,-2.5972,-12.2168,-6.3166,-0.2371,-0.1578,-0.0215,
0.626077,-0.2340,-0.9198,0.3633,-2.5972,-12.2168,-6.3166,-0.3580,-0.2793,0.1660,
0.626729,-0.2340,-0.9198,0.3633,-2.7271,-11.6030,-5.8887,-0.3580,-0.2793,0.1660,
0.686381,-0.1261,-1.2228,0.1004,-2.7271,-11.6030,-5.8887,-0.3580,-0.2793,0.1660,
0.688998,-0.1261,-1.2228,0.1004,-2.7271,-11.6030,-5.8887,-0.2591,-0.2854,-0.2512,
0.690646,-0.1261,-1.2228,0.1004,-1.8694,-14.3513,-8.5113,-0.2591,-0.2854,-0.2512,
0.744746,-0.1261,-1.2228,0.1004,-1.8395,-14.1431,-8.5627,-0.2591,-0.2854,-0.2512,
0.747734,-0.1341,-0.9729,0.2250,-1.8395,-14.1431,-8.5627,-0.2591,-0.2854,-0.2512,
0.750160,-0.1341,-0.9729,0.2250,-1.8395,-14.1431,-8.5627,-0.0801,0.0200,-0.1315,
0.805549,-0.1341,-0.9729,0.2250,-1.8395,-14.1431,-8.5627,-0.2921,0.1483,0.2130,
0.807017,-0.2424,-0.8632,-0.0440,-1.8395,-14.1431,-8.5627,-0.2921,0.1483,0.2130,
0.808021,-0.2424,-0.8632,-0.0440,-2.9307,-10.4718,-10.0127,-0.2921,0.1483,0.2130,
0.865169,-0.2985,-0.9267,-0.1437,-2.9307,-10.4718,-10.0127,-0.2921,0.1483,0.2130,
0.866723,-0.2985,-0.9267,-0.1437,-2.9307,-10.4718,-10.0127,-0.4466,0.0145,-0.1669,
0.867699,-0.2985,-0.9267,-0.1437,-3.4095,-10.7643,-11.0569,-0.4466,0.0145,-0.1669,
0.927189,-0.2971,-1.0581,-0.0081,-3.4095,-10.7643,-11.0569,-0.4466,0.0145,-0.1669,
0.928884,-0.2971,-1.0581,-0.0081,-3.4095,-10.7643,-11.0569,-0.3061,-0.0533,-0.0081,
0.929843,-0.2971,-1.0581,-0.0081,-3.4168,-11.7662,-9.7725,-0.3061,-0.0533,-0.0081,
0.985322,-0.2172,-0.9697,-0.0342,-3.4168,-11.7662,-9.7725,-0.3061,-0.0533,-0.0081,
0.987157,-0.2172,-0.9697,-0.0342,-3.4168,-11.7662,-9.7725,-0.3348,0.2295,0.6461,
0.989437,-0.2172,-0.9697,-0.0342,-2.5835,-10.6181,-10.0676,-0.3348,0.2295,0.6461,
1.044778,-0.2372,-0.8817,-0.0572,-2.5835,-10.6181,-10.0676,-0.3348,0.2295,0.6461,
1.046065,-0.2372,-0.8817,-0.0572,-2.5835,-10.6181,-10.0676,-0.3660,0.4158,0.2185,
1.046815,-0.2372,-0.8817,-0.0572,-2.6020,-9.4541,-10.3292,-0.3660,0.4158,0.2185,
1.104615,-0.2810,-0.9152,-0.0603,-2.6020,-9.4541,-10.3292,-0.3660,0.4158,0.2185,
1.107065,-0.2810,-0.9152,-0.0603,-2.6020,-9.4541,-10.3292,-0.2744,0.4507,-0.1150,
1.109306,-0.2810,-0.9152,-0.0603,-2.7514,-9.5010,-10.3836,-0.2744,0.4507,-0.1150,
1.166821,-0.3193,-1.0405,0.0508,-2.7514,-9.5010,-10.3836,-0.2744,0.4507,-0.1150,
1.168243,-0.3193,-1.0405,0.0508,-2.7514,-9.5010,-10.3836,-0.0770,0.5594,0.1129,
1.169110,-0.3193,-1.0405,0.0508,-2.8230,-10.5211,-9.2985,-0.0770,0.5594,0.1129,
1.225638,-0.3169,-0.9194,0.0535,-2.8230,-10.5211,-9.2985,-0.0770,0.5594,0.1129,
1.226922,-0.3169,-0.9194,0.0535,-2.8230,-10.5211,-9.2985,0.1691,0.4751,0.1061,
1.228032,-0.3169,-0.9194,0.0535,-2.4627,-9.2850,-9.2574,0.1691,0.4751,0.1061,
1.284932,-0.3425,-0.9609,0.0193,-2.4627,-9.2850,-9.2574,0.1691,0.4751,0.1061,
1.287151,-0.3425,-0.9609,0.0193,-2.4627,-9.2850,-9.2574,0.2540,0.6657,-0.2640,
1.288738,-0.3425,-0.9609,0.0193,-2.3895,-9.7535,-9.5639,0.2540,0.6657,-0.2640,
1.345290,-0.4146,-0.9558,0.0696,-2.3895,-9.7535,-9.5639,0.2540,0.6657,-0.2640,
1.346737,-0.4146,-0.9558,0.0696,-2.3895,-9.7535,-9.5639,0.1655,0.6400,-0.1364,
1.347929,-0.4146,-0.9558,0.0696,-2.6637,-9.7479,-9.0165,0.1655,0.6400,-0.1364,
1.404853,-0.3801,-1.1947,0.0083,-2.6637,-9.7479,-9.0165,0.1655,0.6400,-0.1364,
1.407243,-0.3801,-1.1947,0.0083,-2.6637,-9.7479,-9.0165,-0.0477,0.5032,-0.1791,
1.408972,-0.3801,-1.1947,0.0083,-1.9017,-12.0581,-9.5478,-0.0477,0.5032,-0.1791,
1.464504,-0.3672,-1.0063,-0.1329,-1.9017,-12.0581,-9.5478,-0.0477,0.5032,-0.1791,
1.467235,-0.3672,-1.0063,-0.1329,-1.9017,-12.0581,-9.5478,0.0806,0.4305,0.1862,
1.468952,-0.3672,-1.0063,-0.1329,-1.4591,-10.1922,-10.8672,0.0806,0.4305,0.1862,
1.525256,-0.1217,-0.8343,-0.2213,-1.4591,-10.1922,-10.8672,0.0806,0.4305,0.1862,
1.528403,-0.1217,-0.8343,-0.2213,-1.4591,-10.1922,-10.8672,0.2259,-0.1455,-0.0881,
1.530018,-0.1217,-0.8343,-0.2213,1.0712,-8.5122,-11.7051,0.2259,-0.1455,-0.0881,
1.584828,-0.0755,-1.1373,0.0555,1.0712,-8.5122,-11.7051,0.2259,-0.1455,-0.0881,
1.586761,-0.0755,-1.1373,0.0555,1.0712,-8.5122,-11.7051,0.7886,0.0493,-0.0185,
1.587940,-0.0755,-1.1373,0.0555,1.4613,-11.6172,-9.0013,0.7886,0.0493,-0.0185,
1.647034,-0.3999,-1.0657,-0.0701,1.4613,-11.6172,-9.0013,0.7886,0.0493,-0.0185,
1.649688,-0.3999,-1.0657,-0.0701,1.4613,-11.6172,-9.0013,0.7568,-0.3758,0.4916,
1.651504,-0.3999,-1.0657,-0.0701,-1.7286,-11.3507,-10.2028,0.7568,-0.3758,0.4916,
1.704600,-0.2133,-0.9013,-0.0129,-1.7286,-11.3507,-10.2028,0.7568,-0.3758,0.4916,
1.706998,-0.2133,-0.9013,-0.0129,-1.7286,-11.3507,-10.2028,0.5039,-0.4449,-0.1865,
1.708799,-0.2133,-0.9013,-0.0129,-0.1261,-10.0838,-9.6530,0.5039,-0.4449,-0.1865,
1.764747,-0.1319,-0.8724,0.1429,-0.1261,-10.0838,-9.6530,0.5039,-0.4449,-0.1865,
1.767401,-0.1319,-0.8724,0.1429,-0.1261,-10.0838,-9.6530,0.0751,-0.5725,0.0958,
1.769299,-0.1319,-0.8724,0.1429,0.3955,-9.8398,-8.1731,0.0751,-0.5725,0.0958,
1.828284,-0.1319,-0.8724,0.1429,0.3955,-9.8398,-8.1731,-0.0966,-0.4638,0.0823,
1.830510,-0.2201,-0.8348,0.1483,0.3955,-9.8398,-8.1731,-0.0966,-0.4638,0.0823,
1.832167,-0.2201,-0.8348,0.1483,-0.7904,-9.4274,-8.1774,-0.0966,-0.4638,0.0823,
1.884947,-0.2223,-0.8920,0.2529,-0.7904,-9.4274,-8.1774,-0.0966,-0.4638,0.0823,
1.887104,-0.2223,-0.8920,0.2529,-0.7904,-9.4274,-8.1774,-0.0709,-0.2866,-0.0283,
1.888481,-0.2223,-0.8920,0.2529,-0.9730,-9.8513,-7.1908,-0.0709,-0.2866,-0.0283,
1.947105,-0.2763,-0.9372,0.1564,-0.9730,-9.8513,-7.1908,-0.0709,-0.2866,-0.0283,
1.949518,-0.2763,-0.9372,0.1564,-0.9730,-9.8513,-7.1908,-0.0416,-0.3471,0.1446,
1.951411,-0.2763,-0.9372,0.1564,-1.6572,-10.1927,-8.1656,-0.0416,-0.3471,0.1446,
2.005131,-0.2160,-1.0865,0.2123,-1.6572,-10.1927,-8.1656,-0.0416,-0.3471,0.1446,
2.007689,-0.2160,-1.0865,0.2123,-1.6572,-10.1927,-8.1656,-0.0948,-0.2732,-0.0454,
2.009590,-0.2160,-1.0865,0.2123,-1.2661,-11.5504,-7.6473,-0.0948,-0.2732,-0.0454,
2.065479,-0.2514,-0.9387,0.3960,-1.2661,-11.5504,-7.6473,-0.0948,-0.2732,-0.0454,
2.068885,-0.2514,-0.9387,0.3960,-1.2661,-11.5504,-7.6473,-0.0874,-0.3783,0.1941,
2.070714,-0.2514,-0.9387,0.3960,-1.7936,-9.9525,-5.8737,-0.0874,-0.3783,0.1941,
2.125719,-0.1869,-1.2399,0.2788,-1.7936,-9.9525,-5.8737,-0.0874,-0.3783,0.1941,
2.129046,-0.1869,-1.2399,0.2788,-1.7936,-9.9525,-5.8737,0.2876,-0.5444,0.3425,
2.131406,-0.1869,-1.2399,0.2788,-1.4248,-12.8152,-7.0439,0.2876,-0.5444,0.3425,
2.186415,-0.0442,-1.0327,0.1407,-1.4248,-12.8152,-7.0439,0.2876,-0.5444,0.3425,
2.189524,-0.0442,-1.0327,0.1407,-1.4248,-12.8152,-7.0439,-0.4863,0.0939,-0.3600,
2.190918,-0.0442,-1.0327,0.1407,-0.1620,-10.7342,-8.4046,-0.4863,0.0939,-0.3600,
2.244469,-0.1920,-0.8641,-0.1380,-0.1620,-10.7342,-8.4046,-0.4863,0.0939,-0.3600,
2.246768,-0.1920,-0.8641,-0.1380,-0.1620,-10.7342,-8.4046,-0.2304,-0.0173,-0.0899,
2.248338,-0.1920,-0.8641,-0.1380,-1.5925,-8.8034,-11.1494,-0.2304,-0.0173,-0.0899,
2.305514,-0.1920,-0.8641,-0.1380,-1.5925,-8.8034,-11.1494,-0.5914,-0.1156,-0.3239,
2.308422,-0.2844,-0.8246,-0.2147,-1.5925,-8.8034,-11.1494,-0.5914,-0.1156,-0.3239,
2.310253,-0.2844,-0.8246,-0.2147,-2.5231,-8.0623,-11.9076,-0.5914,-0.1156,-0.3239,
2.365625,-0.2922,-1.0862,-0.0093,-2.5231,-8.0623,-11.9076,-0.5914,-0.1156,-0.3239,
2.368231,-0.2922,-1.0862,-0.0093,-2.5231,-8.0623,-11.9076,-0.3898,0.3621,-0.1009,
2.370595,-0.2922,-1.0862,-0.0093,-2.5306,-10.2121,-9.8824,-0.3898,0.3621,-0.1009,
2.425838,-0.2726,-0.9242,-0.0728,-2.5306,-10.2121,-9.8824,-0.3898,0.3621,-0.1009,
2.428536,-0.2726,-0.9242,-0.0728,-2.5306,-10.2121,-9.8824,-0.3617,0.3939,0.6083,
2.430352,-0.2726,-0.9242,-0.0728,-2.0435,-8.3686,-10.4757,-0.3617,0.3939,0.6083,
2.484638,-0.2656,-0.8441,-0.0525,-2.0435,-8.3686,-10.4757,-0.3617,0.3939,0.6083,
2.487214,-0.2656,-0.8441,-0.0525,-2.0435,-8.3686,-10.4757,-0.2157,0.4348,0.0976,
2.488832,-0.2656,-0.8441,-0.0525,-1.7039,-7.3533,-10.2368,-0.2157,0.4348,0.0976,
2.547072,-0.3540,-0.9391,0.0508,-1.7039,-7.3533,-10.2368,-0.2157,0.4348,0.0976,
2.550081,-0.3540,-0.9391,0.0508,-1.7039,-7.3533,-10.2368,-0.1949,0.2698,-0.1180,
2.552557,-0.3540,-0.9391,0.0508,-2.3297,-8.0537,-9.1741,-0.1949,0.2698,-0.1180,
2.604976,-0.3655,-0.9621,0.0904,-2.3297,-8.0537,-9.1741,-0.1949,0.2698,-0.1180,
2.607783,-0.3655,-0.9621,0.0904,-2.3297,-8.0537,-9.1741,0.0079,0.2912,0.0677,
2.609577,-0.3655,-0.9621,0.0904,-2.2914,-8.1592,-8.7523,0.0079,0.2912,0.0677,
2.666611,-0.2709,-0.8913,0.0335,-2.2914,-8.1592,-8.7523,0.0079,0.2912,0.0677,
2.669149,-0.2709,-0.8913,0.0335,-2.2914,-8.1592,-8.7523,0.0134,0.2527,0.0261,
2.671836,-0.2709,-0.8913,0.0335,-1.1429,-7.4315,-9.2734,0.0134,0.2527,0.0261,
2.726301,-0.2709,-0.8913,0.0335,-1.1429,-7.4315,-9.2734,0.0091,0.3694,-0.2280,
2.730525,-0.4593,-0.9995,0.0325,-1.1429,-7.4315,-9.2734,0.0091,0.3694,-0.2280,
2.733262,-0.4593,-0.9995,0.0325,-2.8018,-8.4179,-9.2412,0.0091,0.3694,-0.2280,
2.785292,-0.3960,-0.9572,-0.0134,-2.8018,-8.4179,-9.2412,0.0091,0.3694,-0.2280,
2.787840,-0.3960,-0.9572,-0.0134,-2.8018,-8.4179,-9.2412,0.0140,0.4018,-0.1852,
2.789916,-0.3960,-0.9572,-0.0134,-1.9836,-7.9351,-9.6438,0.0140,0.4018,-0.1852,
2.844698,-0.4226,-1.1900,-0.1564,-1.9836,-7.9351,-9.6438,0.0140,0.4018,-0.1852,
2.846770,-0.4226,-1.1900,-0.1564,-1.9836,-7.9351,-9.6438,-0.0178,0.2161,0.1403,
2.849058,-0.4226,-1.1900,-0.1564,-2.0495,-10.1192,-10.9880,-0.0178,0.2161,0.1403,
2.904772,-0.1275,-0.8959,-0.3020,-2.0495,-10.1192,-10.9880,-0.0178,0.2161,0.1403,
2.907479,-0.1275,-0.8959,-0.3020,-2.0495,-10.1192,-10.9880,0.0164,-0.4760,0.1623,
2.909265,-0.1275,-0.8959,-0.3020,0.8355,-7.2504,-12.4188,0.0164,-0.4760,0.1623,
2.967184,-0.1275,-0.8959,-0.3020,0.8355,-7.2504,-12.4188,0.6218,-0.4803,-0.2830,
2.969689,0.0388,-1.0835,0.1090,0.8355,-7.2504,-12.4188,0.6218,-0.4803,-0.2830,
2.971523,0.0388,-1.0835,0.1090,2.0964,-9.1004,-8.4675,0.6218,-0.4803,-0.2830,
3.024834,-0.3853,-1.0860,-0.1507,2.0964,-9.1004,-8.4675,0.6218,-0.4803,-0.2830,
3.027464,-0.3853,-1.0860,-0.1507,2.0964,-9.1004,-8.4675,0.8020,-0.3593,0.4684,
3.029359,-0.3853,-1.0860,-0.1507,-2.1961,-9.5452,-11.0934,0.8020,-0.3593,0.4684,
3.086410,-0.3853,-1.0860,-0.1507,-2.1961,-9.5452,-11.0934,0.7513,-0.1229,-0.1156,
3.089318,-0.1395,-0.9501,0.0344,-2.1961,-9.5452,-11.0934,0.7513,-0.1229,-0.1156,
3.090570,-0.1395,-0.9501,0.0344,0.0196,-8.6060,-9.3449,0.7513,-0.1229,-0.1156,
3.144910,-0.2511,-0.8106,0.1178,0.0196,-8.6060,-9.3449,0.7513,-0.1229,-0.1156,
3.146821,-0.2511,-0.8106,0.1178,0.0196,-8.6060,-9.3449,0.3206,-0.3294,-0.1162,
3.148380,-0.2511,-0.8106,0.1178,-1.1688,-7.4549,-8.5548,0.3206,-0.3294,-0.1162,
3.204648,-0.1837,-0.8197,0.1783,-1.1688,-7.4549,-8.5548,0.3206,-0.3294,-0.1162,
3.207127,-0.1837,-0.8197,0.1783,-1.1688,-7.4549,-8.5548,0.1539,-0.2744,0.1306,
3.208748,-0.1837,-0.8197,0.1783,-0.6880,-7.6414,-7.9877,0.1539,-0.2744,0.1306,
3.266604,-0.1837,-0.8197,0.1783,-0.6880,-7.6414,-7.9877,-0.0111,0.0438,0.0279,
3.269010,-0.2262,-0.8573,0.2064,-0.6880,-7.6414,-7.9877,-0.0111,0.0438,0.0279,
3.270815,-0.2262,-0.8573,0.2064,-1.1393,-8.0116,-7.7163,-0.0111,0.0438,0.0279,
3.325636,-0.2262,-0.8573,0.2064,-1.1393,-8.0116,-7.7163,-0.2237,-0.2689,0.0170,
3.328897,-0.2514,-0.8935,0.1891,-1.1393,-8.0116,-7.7163,-0.2237,-0.2689,0.0170,
3.330596,-0.2514,-0.8935,0.1891,-1.3994,-8.2452,-7.8822,-0.2237,-0.2689,0.0170,
3.384846,-0.2492,-1.1351,0.2399,-1.3994,-8.2452,-7.8822,-0.2237,-0.2689,0.0170,
3.388055,-0.2492,-1.1351,0.2399,-1.3994,-8.2452,-7.8822,-0.1595,-0.2531,-0.0002,
3.389952,-0.2492,-1.1351,0.2399,-1.5382,-10.4320,-7.3893,-0.1595,-0.2531,-0.0002,
3.446295,-0.3577,-1.0117,0.4576,-1.5382,-10.4320,-7.3893,-0.1595,-0.2531,-0.0002,
3.450391,-0.3577,-1.0117,0.4576,-1.5382,-10.4320,-7.3893,-0.0086,-0.4076,0.2815,
3.452295,-0.3577,-1.0117,0.4576,-2.7132,-9.0859,-5.2551,-0.0086,-0.4076,0.2815,
3.505911,-0.2988,-1.2135,0.1478,-2.7132,-9.0859,-5.2551,-0.0086,-0.4076,0.2815,
3.509839,-0.2988,-1.2135,0.1478,-2.7132,-9.0859,-5.2551,0.4978,-0.8639,0.3071,
3.511514,-0.2988,-1.2135,0.1478,-2.5407,-11.1394,-8.3215,0.4978,-0.8639,0.3071,
3.565923,-0.0215,-0.9472,0.0579,-2.5407,-11.1394,-8.3215,0.4978,-0.8639,0.3071,
3.569694,-0.0215,-0.9472,0.0579,-2.5407,-11.1394,-8.3215,-0.4106,-0.1859,-0.2250,
3.571594,-0.0215,-0.9472,0.0579,-0.1344,-8.4709,-9.2053,-0.4106,-0.1859,-0.2250,
3.626473,-0.2358,-0.8055,-0.2358,-0.1344,-8.4709,-9.2053,-0.4106,-0.1859,-0.2250,
3.630724,-0.2358,-0.8055,-0.2358,-0.1344,-8.4709,-9.2053,-0.4979,-0.2433,-0.0985,
3.632636,-0.2358,-0.8055,-0.2358,-2.3913,-6.7509,-12.0499,-0.4979,-0.2433,-0.0985,
3.685597,-0.2358,-0.8055,-0.2358,-2.3913,-6.7509,-12.0499,-0.4607,0.0945,-0.3777,
3.689019,-0.2739,-1.0794,-0.0989,-2.3913,-6.7509,-12.0499,-0.4607,0.0945,-0.3777,
3.690958,-0.2739,-1.0794,-0.0989,-2.9008,-9.0400,-10.6525,-0.4607,0.0945,-0.3777,
3.744843,-0.3430,-1.0034,-0.0271,-2.9008,-9.0400,-10.6525,-0.4607,0.0945,-0.3777,
3.747272,-0.3430,-1.0034,-0.0271,-2.9008,-9.0400,-10.6525,-0.1253,0.3664,0.2986,
3.748905,-0.3430,-1.0034,-0.0271,-3.4265,-8.0248,-9.9040,-0.1253,0.3664,0.2986,
3.805266,-0.2585,-0.8834,-0.0098,-3.4265,-8.0248,-9.9040,-0.1253,0.3664,0.2986,
3.808850,-0.2585,-0.8834,-0.0098,-3.4265,-8.0248,-9.9040,-0.3813,0.2631,0.6516,
3.811204,-0.2585,-0.8834,-0.0098,-2.3148,-6.6412,-9.6904,-0.3813,0.2631,0.6516,
3.866159,-0.2370,-0.8571,-0.0012,-2.3148,-6.6412,-9.6904,-0.3813,0.2631,0.6516,
3.869132,-0.2370,-0.8571,-0.0012,-2.3148,-6.6412,-9.6904,-0.3098,0.5105,-0.1840,
3.871132,-0.2370,-0.8571,-0.0012,-1.8415,-6.1253,-9.5392,-0.3098,0.5105,-0.1840,
3.924500,-0.3716,-1.0266,0.0826,-1.8415,-6.1253,-9.5392,-0.3098,0.5105,-0.1840,
3.928292,-0.3716,-1.0266,0.0826,-1.8415,-6.1253,-9.5392,0.0109,0.5209,-0.1633,
3.930920,-0.3716,-1.0266,0.0826,-2.8745,-7.5919,-8.6505,0.0109,0.5209,-0.1633,
3.984920,-0.3076,-0.8756,0.0171,-2.8745,-7.5919,-8.6505,0.0109,0.5209,-0.1633,
3.988421,-0.3076,-0.8756,0.0171,-2.8745,-7.5919,-8.6505,0.1062,0.5490,0.1703,
3.990764,-0.3076,-0.8756,0.0171,-1.9145,-6.1097,-9.2586,0.1062,0.5490,0.1703,
4.045131,-0.3076,-0.8756,0.0171,-1.9145,-6.1097,-9.2586,0.1826,0.5282,-0.2885,
4.048188,-0.2985,-0.9897,0.1033,-1.9145,-6.1097,-9.2586,0.1826,0.5282,-0.2885,
4.049958,-0.2985,-0.9897,0.1033,-1.5413,-7.2374,-8.3784,0.1826,0.5282,-0.2885,
4.104424,-0.2985,-0.9897,0.1033,-1.5413,-7.2374,-8.3784,0.0952,0.8129,-0.2182,
4.106364,-0.3433,-0.9714,0.1124,-1.5413,-7.2374,-8.3784,0.0952,0.8129,-0.2182,
4.107789,-0.3433,-0.9714,0.1124,-1.6416,-7.0595,-8.2342,0.0952,0.8129,-0.2182,
4.165621,-0.4109,-0.8927,-0.0208,-1.6416,-7.0595,-8.2342,0.0952,0.8129,-0.2182,
4.168371,-0.4109,-0.8927,-0.0208,-1.6416,-7.0595,-8.2342,-0.0978,1.0175,-0.1883,
4.170245,-0.4109,-0.8927,-0.0208,-1.8097,-6.2452,-9.4223,-0.0978,1.0175,-0.1883,
4.226948,-0.4302,-1.0398,-0.1490,-1.8097,-6.2452,-9.4223,-0.0978,1.0175,-0.1883,
4.230930,-0.4302,-1.0398,-0.1490,-1.8097,-6.2452,-9.4223,-0.1742,0.4433,0.2686,
4.233386,-0.4302,-1.0398,-0.1490,-1.5900,-7.5480,-10.5320,-0.1742,0.4433,0.2686,
4.286312,-0.1654,-0.8952,-0.3440,-1.5900,-7.5480,-10.5320,-0.1742,0.4433,0.2686,
4.290053,-0.1654,-0.8952,-0.3440,-1.5900,-7.5480,-10.5320,-0.1681,-0.3459,0.1202,
4.291746,-0.1654,-0.8952,-0.3440,1.0985,-6.0348,-12.3866,-0.1681,-0.3459,0.1202,
4.345043,0.0078,-1.1646,0.1485,1.0985,-6.0348,-12.3866,-0.1681,-0.3459,0.1202,
4.348245,0.0078,-1.1646,0.1485,1.0985,-6.0348,-12.3866,0.5155,-0.2628,-0.2072,
4.350017,0.0078,-1.1646,0.1485,2.5415,-8.5791,-7.6031,0.5155,-0.2628,-0.2072,
4.406545,-0.4424,-1.0953,-0.0542,2.5415,-8.5791,-7.6031,0.5155,-0.2628,-0.2072,
4.412209,-0.4424,-1.0953,-0.0542,2.5415,-8.5791,-7.6031,0.9541,-0.1810,0.5973,
4.414270,-0.4424,-1.0953,-0.0542,-1.9059,-8.3027,-9.7161,0.9541,-0.1810,0.5973,
4.467045,-0.2143,-0.9010,0.0071,-1.9059,-8.3027,-9.7161,0.9541,-0.1810,0.5973,
4.470623,-0.2143,-0.9010,0.0071,-1.9059,-8.3027,-9.7161,0.8258,-0.2219,-0.2347,
4.472968,-0.2143,-0.9010,0.0071,0.2170,-6.8905,-9.2601,0.8258,-0.2219,-0.2347,
4.527310,-0.2233,-0.8480,0.0748,0.2170,-6.8905,-9.2601,0.8258,-0.2219,-0.2347,
4.530816,-0.2233,-0.8480,0.0748,0.2170,-6.8905,-9.2601,0.0836,-0.7210,-0.0380,
4.532536,-0.2233,-0.8480,0.0748,-0.1100,-6.5519,-8.6885,0.0836,-0.7210,-0.0380,
4.584811,-0.1732,-0.8937,0.1075,-0.1100,-6.5519,-8.6885,0.0836,-0.7210,-0.0380,
4.588965,-0.1732,-0.8937,0.1075,-0.1100,-6.5519,-8.6885,-0.0557,-0.6697,0.0958,
4.590378,-0.1732,-0.8937,0.1075,-0.0203,-6.9389,-8.4359,-0.0557,-0.6697,0.0958,
4.644843,-0.2558,-0.8505,0.1375,-0.0203,-6.9389,-8.4359,-0.0557,-0.6697,0.0958,
4.648134,-0.2558,-0.8505,0.1375,-0.0203,-6.9389,-8.4359,-0.3788,-0.3025,-0.0759,
4.649990,-0.2558,-0.8505,0.1375,-1.1182,-6.3373,-8.1522,-0.3788,-0.3025,-0.0759,
4.706067,-0.1402,-0.8895,0.1351,-1.1182,-6.3373,-8.1522,-0.3788,-0.3025,-0.0759,
4.709253,-0.1402,-0.8895,0.1351,-1.1182,-6.3373,-8.1522,-0.4662,0.0573,0.0518,
4.711106,-0.1402,-0.8895,0.1351,-0.0474,-6.4088,-8.1142,-0.4662,0.0573,0.0518,
4.766337,-0.2370,-1.0110,0.1588,-0.0474,-6.4088,-8.1142,-0.4662,0.0573,0.0518,
4.769917,-0.2370,-1.0110,0.1588,-0.0474,-6.4088,-8.1142,-0.3306,-0.0686,0.0738,
4.771940,-0.2370,-1.0110,0.1588,-0.9666,-7.3021,-7.8003,-0.3306,-0.0686,0.0738,
4.825810,-0.3547,-0.9868,0.2243,-0.9666,-7.3021,-7.8003,-0.3306,-0.0686,0.0738,
4.829493,-0.3547,-0.9868,0.2243,-0.9666,-7.3021,-7.8003,-0.0935,-0.0240,0.2839,
4.831406,-0.3547,-0.9868,0.2243,-2.0920,-6.9038,-7.1080,-0.0935,-0.0240,0.2839,
4.887226,-0.2849,-1.3444,0.2700,-2.0920,-6.9038,-7.1080,-0.0935,-0.0240,0.2839,
4.891256,-0.2849,-1.3444,0.2700,-2.0920,-6.9038,-7.1080,0.3402,-0.3819,0.1373,
4.893185,-0.2849,-1.3444,0.2700,-1.4609,-10.3587,-6.6531,0.3402,-0.3819,0.1373,
4.947164,0.0296,-0.9172,0.2155,-1.4609,-10.3587,-6.6531,0.3402,-0.3819,0.1373,
4.953033,0.0296,-0.9172,0.2155,-1.4609,-10.3587,-6.6531,-0.1943,0.0316,-0.3526,
4.955249,0.0296,-0.9172,0.2155,1.5674,-6.1751,-7.1955,-0.1943,0.0316,-0.3526,
5.008169,-0.2233,-0.8700,-0.2670,1.5674,-6.1751,-7.1955,-0.1943,0.0316,-0.3526,
5.011598,-0.2233,-0.8700,-0.2670,1.5674,-6.1751,-7.1955,0.2571,0.0848,0.0915,
5.013360,-0.2233,-0.8700,-0.2670,-1.0162,-5.6748,-11.9264,0.2571,0.0848,0.0915,
5.065479,-0.1796,-0.9475,-0.1715,-1.0162,-5.6748,-11.9264,0.2571,0.0848,0.0915,
5.068844,-0.1796,-0.9475,-0.1715,-1.0162,-5.6748,-11.9264,-0.4075,0.3981,-0.3257,
5.070557,-0.1796,-0.9475,-0.1715,-0.4887,-6.2804,-10.9288,-0.4075,0.3981,-0.3257,
5.126271,-0.2235,-1.1209,-0.0508,-0.4887,-6.2804,-10.9288,-0.4075,0.3981,-0.3257,
5.131268,-0.2235,-1.1209,-0.0508,-0.4887,-6.2804,-10.9288,0.1606,0.9229,0.0212,
5.133204,-0.2235,-1.1209,-0.0508,-0.6364,-7.7538,-9.6257,0.1606,0.9229,0.0212,
5.186362,-0.2927,-0.8915,-0.0684,-0.6364,-7.7538,-9.6257,0.1606,0.9229,0.0212,
5.190653,-0.2927,-0.8915,-0.0684,-0.6364,-7.7538,-9.6257,0.0616,1.2081,0.6254,
5.192635,-0.2927,-0.8915,-0.0684,-0.6439,-5.5710,-9.6815,0.0616,1.2081,0.6254,
5.246667,-0.3088,-0.8766,-0.0200,-0.6439,-5.5710,-9.6815,0.0616,1.2081,0.6254,
5.251649,-0.3088,-0.8766,-0.0200,-0.6439,-5.5710,-9.6815,0.0500,1.3260,0.1159,
5.255596,-0.3088,-0.8766,-0.0200,-0.0260,-5.4498,-8.9886,0.0500,1.3260,0.1159,
5.306851,-0.3999,-0.9531,0.0381,-0.0260,-5.4498,-8.9886,0.0500,1.3260,0.1159,
5.310477,-0.3999,-0.9531,0.0381,-0.0260,-5.4498,-8.9886,0.1001,1.0389,-0.2317,
5.312645,-0.3999,-0.9531,0.0381,-0.2696,-6.1493,-8.1511,0.1001,1.0389,-0.2317,
5.367106,-0.4317,-0.8888,0.0569,-0.2696,-6.1493,-8.1511,0.1001,1.0389,-0.2317,
5.370778,-0.4317,-0.8888,0.0569,-0.2696,-6.1493,-8.1511,-0.0642,0.8978,0.0463,
5.372851,-0.4317,-0.8888,0.0569,-0.0977,-5.4604,-7.7203,-0.0642,0.8978,0.0463,
5.428588,-0.3931,-0.9323,0.0017,-0.0977,-5.4604,-7.7203,-0.0642,0.8978,0.0463,
5.431360,-0.3931,-0.9323,0.0017,-0.0977,-5.4604,-7.7203,0.0836,0.5209,-0.1724,
5.433008,-0.3931,-0.9323,0.0017,0.6542,-5.8186,-8.0364,0.0836,0.5209,-0.1724,
5.485116,-0.3931,-0.9323,0.0017,0.6542,-5.8186,-8.0364,0.1685,0.4189,-0.3398,
5.487840,-0.2722,-0.9907,0.0884,0.6542,-5.8186,-8.0364,0.1685,0.4189,-0.3398,
5.490131,-0.2722,-0.9907,0.0884,2.0054,-6.3388,-7.0694,0.1685,0.4189,-0.3398,
5.545301,-0.3103,-0.9562,0.0804,2.0054,-6.3388,-7.0694,0.1685,0.4189,-0.3398,
5.548301,-0.3103,-0.9562,0.0804,2.0054,-6.3388,-7.0694,0.1844,0.8166,-0.2427,
5.549685,-0.3103,-0.9562,0.0804,1.8444,-5.9467,-6.9956,0.1844,0.8166,-0.2427,
5.605764,-0.4972,-1.3552,-0.1053,1.8444,-5.9467,-6.9956,0.1844,0.8166,-0.2427,
5.609645,-0.4972,-1.3552,-0.1053,1.8444,-5.9467,-6.9956,0.0079,0.6516,-0.0472,
5.611964,-0.4972,-1.3552,-0.1053,0.3273,-9.7550,-8.5621,0.0079,0.6516,-0.0472,
5.666464,-0.3865,-0.9567,-0.3235,0.3273,-9.7550,-8.5621,0.0079,0.6516,-0.0472,
5.669206,-0.3865,-0.9567,-0.3235,0.3273,-9.7550,-8.5621,0.0354,0.0334,0.1776,
5.670828,-0.3865,-0.9567,-0.3235,1.6434,-5.9216,-10.5687,0.0354,0.0334,0.1776,
5.725237,-0.3865,-0.9567,-0.3235,1.6434,-5.9216,-10.5687,0.3273,-0.5420,-0.4296,
5.727659,0.1368,-0.8268,0.0870,1.6434,-5.9216,-10.5687,0.3273,-0.5420,-0.4296,
5.729919,0.1368,-0.8268,0.0870,6.6473,-4.6017,-6.6147,0.3273,-0.5420,-0.4296,
5.786705,-0.3564,-1.1461,-0.0633,6.6473,-4.6017,-6.6147,0.3273,-0.5420,-0.4296,
5.790056,-0.3564,-1.1461,-0.0633,6.6473,-4.6017,-6.6147,1.0097,-0.1303,0.3865,
5.791733,-0.3564,-1.1461,-0.0633,1.6094,-7.8999,-8.3035,1.0097,-0.1303,0.3865,
5.846403,-0.3667,-0.9203,0.0376,1.6094,-7.8999,-8.3035,1.0097,-0.1303,0.3865,
5.850475,-0.3667,-0.9203,0.0376,1.6094,-7.8999,-8.3035,0.7440,-0.7094,0.4097,
5.852595,-0.3667,-0.9203,0.0376,1.4336,-6.2454,-7.5813,0.7440,-0.7094,0.4097,
5.906235,-0.2546,-0.8321,0.0181,1.4336,-6.2454,-7.5813,0.7440,-0.7094,0.4097,
5.909322,-0.2546,-0.8321,0.0181,1.4336,-6.2454,-7.5813,0.3457,-0.7650,-0.2720,
5.912022,-0.2546,-0.8321,0.0181,2.2489,-5.6262,-8.0248,0.3457,-0.7650,-0.2720,
5.965437,-0.1925,-0.8910,0.1021,2.2489,-5.6262,-8.0248,0.3457,-0.7650,-0.2720,
5.968769,-0.1925,-0.8910,0.1021,2.2489,-5.6262,-8.0248,-0.0172,-1.2530,0.2466,
5.970637,-0.1925,-0.8910,0.1021,2.3382,-6.1961,-7.4780,-0.0172,-1.2530,0.2466,
6.025366,-0.3296,-0.8866,0.1248,2.3382,-6.1961,-7.4780,-0.0172,-1.2530,0.2466,
6.029176,-0.3296,-0.8866,0.1248,2.3382,-6.1961,-7.4780,-0.4081,-1.2555,0.1782,
6.031270,-0.3296,-0.8866,0.1248,0.3514,-6.0694,-7.5221,-0.4081,-1.2555,0.1782,
6.086324,-0.1625,-0.8712,0.0630,0.3514,-6.0694,-7.5221,-0.4081,-1.2555,0.1782,
6.089559,-0.1625,-0.8712,0.0630,0.3514,-6.0694,-7.5221,-0.5163,-0.8309,0.0738,
6.091460,-0.1625,-0.8712,0.0630,1.4821,-5.6387,-8.2318,-0.5163,-0.8309,0.0738,
6.145395,-0.3247,-0.9885,0.1195,1.4821,-5.6387,-8.2318,-0.5163,-0.8309,0.0738,
6.148377,-0.3247,-0.9885,0.1195,1.4821,-5.6387,-8.2318,-0.3116,-1.5041,0.0976,
6.149981,-0.3247,-0.9885,0.1195,-0.7370,-6.4689,-7.7643,-0.3116,-1.5041,0.0976,
6.205281,-0.3247,-0.9885,0.1195,-0.7370,-6.4689,-7.7643,-0.1626,-1.6880,0.4299,
6.209477,-0.3958,-1.0369,0.2123,-0.7370,-6.4689,-7.7643,-0.1626,-1.6880,0.4299,
6.211611,-0.3958,-1.0369,0.2123,-2.2392,-6.7837,-6.9789,-0.1626,-1.6880,0.4299,
6.266163,-0.4967,-0.9093,0.2739,-2.2392,-6.7837,-6.9789,-0.1626,-1.6880,0.4299,
6.269563,-0.4967,-0.9093,0.2739,-2.2392,-6.7837,-6.9789,-0.0832,-1.7442,0.9449,
6.271683,-0.4967,-0.9093,0.2739,-4.0190,-5.4867,-6.4660,-0.0832,-1.7442,0.9449,
6.328422,-0.4383,-1.0659,-0.0821,-4.0190,-5.4867,-6.4660,-0.0832,-1.7442,0.9449,
6.332276,-0.4383,-1.0659,-0.0821,-4.0190,-5.4867,-6.4660,-0.7154,-1.9207,0.5020,
6.334223,-0.4383,-1.0659,-0.0821,-4.3494,-6.8836,-9.9409,-0.7154,-1.9207,0.5020,
6.386522,0.0044,-0.8805,0.0550,-4.3494,-6.8836,-9.9409,-0.7154,-1.9207,0.5020,
6.391095,0.0044,-0.8805,0.0550,-4.3494,-6.8836,-9.9409,-1.1485,-1.6415,-0.1907,
6.393353,0.0044,-0.8805,0.0550,-0.8227,-4.5256,-8.3260,-1.1485,-1.6415,-0.1907,
6.445598,0.0044,-0.8805,0.0550,-0.8227,-4.5256,-8.3260,-1.1045,-1.4290,-0.3080,
6.449871,-0.2282,-0.9042,-0.1564,-0.8227,-4.5256,-8.3260,-1.1045,-1.4290,-0.3080,
6.452137,-0.2282,-0.9042,-0.1564,-4.0167,-4.1424,-9.9426,-1.1045,-1.4290,-0.3080,
6.506305,-0.4339,-0.9289,-0.2345,-4.0167,-4.1424,-9.9426,-1.1045,-1.4290,-0.3080,
6.509738,-0.4339,-0.9289,-0.2345,-4.0167,-4.1424,-9.9426,-0.9897,-1.3758,-0.1168,
6.511748,-0.4339,-0.9289,-0.2345,-6.7294,-3.8195,-10.1799,-0.9897,-1.3758,-0.1168,
6.566140,-0.4339,-0.9289,-0.2345,-6.7294,-3.8195,-10.1799,-0.9103,-1.3673,0.1403,
6.571052,-0.4451,-1.0564,-0.1016,-6.7294,-3.8195,-10.1799,-0.9103,-1.3673,0.1403,
6.573047,-0.4451,-1.0564,-0.1016,-7.4467,-4.6121,-8.3240,-0.9103,-1.3673,0.1403,
6.626436,-0.3191,-1.0068,-0.1195,-7.4467,-4.6121,-8.3240,-0.9103,-1.3673,0.1403,
6.630927,-0.3191,-1.0068,-0.1195,-7.4467,-4.6121,-8.3240,-0.7655,-1.4137,0.4018,
6.633014,-0.3191,-1.0068,-0.1195,-6.6387,-3.6507,-7.8936,-0.7655,-1.4137,0.4018,
6.687447,-0.2358,-0.9357,-0.0916,-6.6387,-3.6507,-7.8936,-0.7655,-1.4137,0.4018,
6.692154,-0.2358,-0.9357,-0.0916,-6.6387,-3.6507,-7.8936,-0.8083,-1.2427,0.0560,
6.694219,-0.2358,-0.9357,-0.0916,-6.1899,-2.5191,-6.9711,-0.8083,-1.2427,0.0560,
6.746599,-0.3762,-0.9169,-0.0770,-6.1899,-2.5191,-6.9711,-0.8083,-1.2427,0.0560,
6.749874,-0.3762,-0.9169,-0.0770,-6.1899,-2.5191,-6.9711,-0.6726,-1.3306,-0.2463,
6.752129,-0.3762,-0.9169,-0.0770,-8.0349,-2.0631,-6.1712,-0.6726,-1.3306,-0.2463,
6.805758,-0.3762,-0.9169,-0.0770,-8.0349,-2.0631,-6.1712,-0.6494,-1.1193,-0.0368,
6.809143,-0.3723,-0.9377,-0.0388,-8.0349,-2.0631,-6.1712,-0.6494,-1.1193,-0.0368,
6.811257,-0.3723,-0.9377,-0.0388,-8.4158,-2.0746,-5.1585,-0.6494,-1.1193,-0.0368,
6.866535,-0.4346,-0.9059,-0.0599,-8.4158,-2.0746,-5.1585,-0.6494,-1.1193,-0.0368,
6.871245,-0.4346,-0.9059,-0.0599,-8.4158,-2.0746,-5.1585,-0.3489,-0.9513,0.0377,
6.873754,-0.4346,-0.9059,-0.0599,-9.2425,-1.5690,-4.8194,-0.3489,-0.9513,0.0377,
6.925916,-0.4046,-0.9213,-0.0589,-9.2425,-1.5690,-4.8194,-0.3489,-0.9513,0.0377,
6.929068,-0.4046,-0.9213,-0.0589,-9.2425,-1.5690,-4.8194,-0.3226,-1.0545,-0.2133,
6.931054,-0.4046,-0.9213,-0.0589,-9.1716,-1.6194,-4.3400,-0.3226,-1.0545,-0.2133,
6.986379,-0.3701,-0.9220,0.0120,-9.1716,-1.6194,-4.3400,-0.3226,-1.0545,-0.2133,
6.989983,-0.3701,-0.9220,0.0120,-9.1716,-1.6194,-4.3400,-0.3208,-0.9525,-0.2708,
6.992005,-0.3701,-0.9220,0.0120,-9.1172,-1.5984,-3.1558,-0.3208,-0.9525,-0.2708,
7.046332,-0.5013,-0.8790,-0.1334,-9.1172,-1.5984,-3.1558,-0.3208,-0.9525,-0.2708,
7.049361,-0.5013,-0.8790,-0.1334,-9.1172,-1.5984,-3.1558,-0.3031,-0.6629,-0.2983,
7.051291,-0.5013,-0.8790,-0.1334,-10.6366,-1.1813,-4.1634,-0.3031,-0.6629,-0.2983,
7.106904,-0.3794,-1.0799,-0.2231,-10.6366,-1.1813,-4.1634,-0.3031,-0.6629,-0.2983,
7.111456,-0.3794,-1.0799,-0.2231,-10.6366,-1.1813,-4.1634,-0.2847,-0.9629,-0.1932,
7.114767,-0.3794,-1.0799,-0.2231,-9.6745,-3.1751,-4.5985,-0.2847,-0.9629,-0.1932,
7.166985,-0.1280,-0.8238,-0.1639,-9.6745,-3.1751,-4.5985,-0.2847,-0.9629,-0.1932,
7.170476,-0.1280,-0.8238,-0.1639,-9.6745,-3.1751,-4.5985,-0.1748,-1.3312,-0.0942,
7.173047,-0.1280,-0.8238,-0.1639,-7.3689,-0.6473,-3.5133,-0.1748,-1.3312,-0.0942,
7.226407,-0.1280,-0.8238,-0.1639,-7.3689,-0.6473,-3.5133,0.2657,-1.6819,-0.1095,
7.229901,-0.1808,-1.0369,-0.0335,-7.3689,-0.6473,-3.5133,0.2657,-1.6819,-0.1095,
7.231606,-0.1808,-1.0369,-0.0335,-8.0593,-2.7483,-1.6254,0.2657,-1.6819,-0.1095,
7.286750,-0.3933,-1.1810,-0.0694,-8.0593,-2.7483,-1.6254,0.2657,-1.6819,-0.1095,
7.291091,-0.3933,-1.1810,-0.0694,-8.0593,-2.7483,-1.6254,0.4898,-1.6684,0.4549,
7.293507,-0.3933,-1.1810,-0.0694,-10.1619,-4.1104,-1.5078,0.4898,-1.6684,0.4549,
7.347452,-0.2360,-0.9069,-0.0012,-10.1619,-4.1104,-1.5078,0.4898,-1.6684,0.4549,
7.351610,-0.2360,-0.9069,-0.0012,-10.1619,-4.1104,-1.5078,0.4104,-1.5475,0.1361,
7.353867,-0.2360,-0.9069,-0.0012,-8.4476,-1.2490,-0.4448,0.4104,-1.5475,0.1361,
7.407271,-0.2722,-0.9223,0.0530,-8.4476,-1.2490,-0.4448,0.4104,-1.5475,0.1361,
7.410698,-0.2722,-0.9223,0.0530,-8.4476,-1.2490,-0.4448,0.2449,-1.5640,0.2741,
7.413323,-0.2722,-0.9223,0.0530,-8.7324,-1.3324,0.4929,0.2449,-1.5640,0.2741,
7.465227,-0.2653,-0.9377,0.1224,-8.7324,-1.3324,0.4929,0.2449,-1.5640,0.2741,
7.469142,-0.2653,-0.9377,0.1224,-8.7324,-1.3324,0.4929,-0.0874,-1.7295,0.4934,
7.470474,-0.2653,-0.9377,0.1224,-8.4036,-1.3010,1.7138,-0.0874,-1.7295,0.4934,
7.526795,-0.2653,-0.9377,0.1224,-8.4036,-1.3010,1.7138,-0.2102,-1.3709,0.2497,
7.530645,-0.2971,-0.8343,0.1417,-8.4036,-1.3010,1.7138,-0.2102,-1.3709,0.2497,
7.532330,-0.2971,-0.8343,0.1417,-8.3999,-0.1257,2.4976,-0.2102,-1.3709,0.2497,
7.586527,-0.1967,-0.7884,0.1676,-8.3999,-0.1257,2.4976,-0.2102,-1.3709,0.2497,
7.589966,-0.1967,-0.7884,0.1676,-8.3999,-0.1257,2.4976,-0.5065,-0.9977,-0.0093,
7.592340,-0.1967,-0.7884,0.1676,-7.2102,0.3761,3.2582,-0.5065,-0.9977,-0.0093,
7.645303,-0.2856,-0.8688,0.2213,-7.2102,0.3761,3.2582,-0.5065,-0.9977,-0.0093,
7.648547,-0.2856,-0.8688,0.2213,-7.2102,0.3761,3.2582,-0.5450,-0.8187,0.0958,
7.650238,-0.2856,-0.8688,0.2213,-7.9451,-0.4571,4.3531,-0.5450,-0.8187,0.0958,
7.706335,-0.3015,-1.0911,0.2284,-7.9451,-0.4571,4.3531,-0.5450,-0.8187,0.0958,
7.709779,-0.3015,-1.0911,0.2284,-7.9451,-0.4571,4.3531,-0.3611,-0.4943,0.1061,
7.711683,-0.3015,-1.0911,0.2284,-7.9057,-2.6329,4.8257,-0.3611,-0.4943,0.1061,
7.766474,-0.4146,-1.0139,0.2797,-7.9057,-2.6329,4.8257,-0.3611,-0.4943,0.1061,
7.769762,-0.4146,-1.0139,0.2797,-7.9057,-2.6329,4.8257,0.0250,-0.4803,0.4097,
7.771548,-0.4146,-1.0139,0.2797,-8.8169,-1.8260,5.5333,0.0250,-0.4803,0.4097,
7.825226,-0.1940,-1.1903,0.0701,-8.8169,-1.8260,5.5333,0.0250,-0.4803,0.4097,
7.828570,-0.1940,-1.1903,0.0701,-8.8169,-1.8260,5.5333,0.2437,-0.9555,-0.0655,
7.830285,-0.1940,-1.1903,0.0701,-6.3459,-3.4306,3.6215,0.2437,-0.9555,-0.0655,
7.885983,-0.2756,-0.9428,0.3078,-6.3459,-3.4306,3.6215,0.2437,-0.9555,-0.0655,
7.890024,-0.2756,-0.9428,0.3078,-6.3459,-3.4306,3.6215,-0.4607,-0.3264,-0.0148,
7.891805,-0.2756,-0.9428,0.3078,-7.0869,-1.0560,6.1728,-0.4607,-0.3264,-0.0148,
7.946354,-0.2248,-0.8764,-0.1222,-7.0869,-1.0560,6.1728,-0.4607,-0.3264,-0.0148,
7.951278,-0.2248,-0.8764,-0.1222,-7.0869,-1.0560,6.1728,-0.4943,-0.3374,0.1568,
7.952989,-0.2248,-0.8764,-0.1222,-6.4132,-0.4125,2.2083,-0.4943,-0.3374,0.1568,
8.005730,-0.3169,-0.8251,-0.1688,-6.4132,-0.4125,2.2083,-0.4943,-0.3374,0.1568,
8.011106,-0.3169,-0.8251,-0.1688,-6.4132,-0.4125,2.2083,-0.7899,-0.6251,-0.2585,
8.012972,-0.3169,-0.8251,-0.1688,-7.1836,-0.0369,2.1870,-0.7899,-0.6251,-0.2585,
8.066206,-0.3230,-1.1519,0.0149,-7.1836,-0.0369,2.1870,-0.7899,-0.6251,-0.2585,
8.069689,-0.3230,-1.1519,0.0149,-7.1836,-0.0369,2.1870,-0.2444,-0.1009,-0.0961,
8.071698,-0.3230,-1.1519,0.0149,-7.2404,-3.4336,4.3716,-0.2444,-0.1009,-0.0961,
8.125980,-0.3176,-0.9118,-0.0369,-7.2404,-3.4336,4.3716,-0.2444,-0.1009,-0.0961,
8.130591,-0.3176,-0.9118,-0.0369,-7.2404,-3.4336,4.3716,-0.2285,0.3267,0.8196,
8.133091,-0.3176,-0.9118,-0.0369,-7.0072,-1.0163,3.9149,-0.2285,0.3267,0.8196,
8.186596,-0.2314,-0.8180,-0.1026,-7.0072,-1.0163,3.9149,-0.2285,0.3267,0.8196,
8.191181,-0.2314,-0.8180,-0.1026,-7.0072,-1.0163,3.9149,-0.1626,0.5722,0.2295,
8.192925,-0.2314,-0.8180,-0.1026,-5.9204,0.0286,3.2498,-0.1626,0.5722,0.2295,
8.246095,-0.3203,-0.9340,-0.0704,-5.9204,0.0286,3.2498,-0.1626,0.5722,0.2295,
8.248976,-0.3203,-0.9340,-0.0704,-5.9204,0.0286,3.2498,-0.1491,0.7732,-0.2396,
8.250683,-0.3203,-0.9340,-0.0704,-6.9600,-1.1465,3.4889,-0.1491,0.7732,-0.2396,
8.305743,-0.3401,-1.0371,0.0450,-6.9600,-1.1465,3.4889,-0.1491,0.7732,-0.2396,
8.309511,-0.3401,-1.0371,0.0450,-6.9600,-1.1465,3.4889,-0.0111,0.9027,0.0530,
8.310878,-0.3401,-1.0371,0.0450,-7.3835,-2.1857,4.4546,-0.0111,0.9027,0.0530,
8.366543,-0.3149,-0.9216,0.0425,-7.3835,-2.1857,4.4546,-0.0111,0.9027,0.0530,
8.370668,-0.3149,-0.9216,0.0425,-7.3835,-2.1857,4.4546,0.2272,0.9552,0.0780,
8.372874,-0.3149,-0.9216,0.0425,-7.2522,-0.9728,4.1416,0.2272,0.9552,0.0780,
8.426167,-0.2658,-0.9731,0.0611,-7.2522,-0.9728,4.1416,0.2272,0.9552,0.0780,
8.431972,-0.2658,-0.9731,0.0611,-7.2522,-0.9728,4.1416,0.3328,1.1128,-0.4100,
8.433900,-0.2658,-0.9731,0.0611,-7.0211,-1.4371,3.9255,0.3328,1.1128,-0.4100,
8.486267,-0.4168,-0.9406,-0.0088,-7.0211,-1.4371,3.9255,0.3328,1.1128,-0.4100,
8.490438,-0.4168,-0.9406,-0.0088,-7.0211,-1.4371,3.9255,0.2388,1.3315,0.0121,
8.492157,-0.4168,-0.9406,-0.0088,-8.8167,-1.1022,2.7264,0.2388,1.3315,0.0121,
8.546322,-0.3660,-0.9553,-0.1380,-8.8167,-1.1022,2.7264,0.2388,1.3315,0.0121,
8.549387,-0.3660,-0.9553,-0.1380,-8.8167,-1.1022,2.7264,0.1594,1.4488,-0.1156,
8.551456,-0.3660,-0.9553,-0.1380,-8.4880,-1.1812,0.9334,0.1594,1.4488,-0.1156,
8.606376,-0.4669,-1.0784,-0.1617,-8.4880,-1.1812,0.9334,0.1594,1.4488,-0.1156,
8.610524,-0.4669,-1.0784,-0.1617,-8.4880,-1.1812,0.9334,0.1795,1.0041,0.2888,
8.612620,-0.4669,-1.0784,-0.1617,-9.6329,-2.3716,0.2602,0.1795,1.0041,0.2888,
8.664837,-0.2690,-0.9558,-0.3071,-9.6329,-2.3716,0.2602,0.1795,1.0041,0.2888,
8.667968,-0.2690,-0.9558,-0.3071,-9.6329,-2.3716,0.2602,0.1227,0.5863,0.0945,
8.669562,-0.2690,-0.9558,-0.3071,-7.5979,-1.0472,-1.4796,0.1227,0.5863,0.0945,
8.726699,0.0706,-0.8707,-0.0012,-7.5979,-1.0472,-1.4796,0.1227,0.5863,0.0945,
8.732175,0.0706,-0.8707,-0.0012,-7.5979,-1.0472,-1.4796,0.4019,0.2644,-0.1480,
8.734010,0.0706,-0.8707,-0.0012,-4.2951,-0.1955,1.3228,0.4019,0.2644,-0.1480,
8.785564,-0.2810,-1.2001,-0.0701,-4.2951,-0.1955,1.3228,0.4019,0.2644,-0.1480,
8.789523,-0.2810,-1.2001,-0.0701,-4.2951,-0.1955,1.3228,1.1899,0.6938,0.4171,
8.791362,-0.2810,-1.2001,-0.0701,-7.7189,-3.3433,0.1264,1.1899,0.6938,0.4171,
8.846748,-0.3613,-0.9203,-0.0100,-7.7189,-3.3433,0.1264,1.1899,0.6938,0.4171,
8.849727,-0.3613,-0.9203,-0.0100,-7.7189,-3.3433,0.1264,1.0317,0.5991,0.1153,
8.851663,-0.3613,-0.9203,-0.0100,-8.2756,-0.4313,-0.0681,1.0317,0.5991,0.1153,
8.905723,-0.2805,-0.8480,0.0442,-8.2756,-0.4313,-0.0681,1.0317,0.5991,0.1153,
8.909698,-0.2805,-0.8480,0.0442,-8.2756,-0.4313,-0.0681,0.5766,0.5704,-0.3392,
8.911360,-0.2805,-0.8480,0.0442,-7.5335,0.2277,-0.1759,0.5766,0.5704,-0.3392,
8.966039,-0.2805,-0.8480,0.0442,-7.5335,0.2277,-0.1759,0.4452,0.4647,-0.0447,
8.969378,-0.1522,-0.8280,0.1026,-7.5335,0.2277,-0.1759,0.4452,0.4647,-0.0447,
8.971076,-0.1522,-0.8280,0.1026,-6.3053,0.3702,-0.0005,0.4452,0.4647,-0.0447,
9.025833,-0.2553,-0.8702,0.1485,-6.3053,0.3702,-0.0005,0.4452,0.4647,-0.0447,
9.030135,-0.2553,-0.8702,0.1485,-6.3053,0.3702,-0.0005,0.2583,0.7213,-0.1877,
9.032599,-0.2553,-0.8702,0.1485,-7.3052,-0.0876,0.0954,0.2583,0.7213,-0.1877,
9.085585,-0.2553,-0.8702,0.1485,-7.3052,-0.0876,0.0954,0.0751,0.7854,0.1306,
9.088453,-0.2998,-0.8727,0.2262,-7.3052,-0.0876,0.0954,0.0751,0.7854,0.1306,
9.090179,-0.2998,-0.8727,0.2262,-7.6599,-0.1228,0.5401,0.0751,0.7854,0.1306,
9.146545,-0.3078,-1.0044,0.1681,-7.6599,-0.1228,0.5401,0.0751,0.7854,0.1306,
9.149507,-0.3078,-1.0044,0.1681,-7.6599,-0.1228,0.5401,0.1783,0.5545,0.1758,
9.151163,-0.3078,-1.0044,0.1681,-7.5356,-1.3554,-0.2794,0.1783,0.5545,0.1758,
9.205184,-0.3560,-1.0408,0.2343,-7.5356,-1.3554,-0.2794,0.1783,0.5545,0.1758,
9.208447,-0.3560,-1.0408,0.2343,-7.5356,-1.3554,-0.2794,0.0011,0.2925,0.1281,
9.210283,-0.3560,-1.0408,0.2343,-7.8335,-1.6652,0.1854,0.0011,0.2925,0.1281,
9.267199,-0.4402,-1.0615,0.4830,-7.8335,-1.6652,0.1854,0.0011,0.2925,0.1281,
9.270950,-0.4402,-1.0615,0.4830,-7.8335,-1.6652,0.1854,-0.0306,-0.3526,0.3706,
9.272526,-0.4402,-1.0615,0.4830,-8.5112,-1.7943,2.6251,-0.0306,-0.3526,0.3706,
9.326482,-0.1520,-1.0332,0.1226,-8.5112,-1.7943,2.6251,-0.0306,-0.3526,0.3706,
9.330501,-0.1520,-1.0332,0.1226,-8.5112,-1.7943,2.6251,-0.0172,0.0707,-0.2188,
9.332230,-0.1520,-1.0332,0.1226,-5.6628,-1.5103,-0.9268,-0.0172,0.0707,-0.2188,
9.387038,-0.1520,-1.0332,0.1226,-5.6628,-1.5103,-0.9268,-0.0129,0.0060,0.0414,
9.390708,-0.2402,-0.8776,-0.0430,-5.6628,-1.5103,-0.9268,-0.0129,0.0060,0.0414,
9.393037,-0.2402,-0.8776,-0.0430,-6.5727,-0.0128,-2.5717,-0.0129,0.0060,0.0414,
9.445931,-0.2604,-0.8500,-0.1852,-6.5727,-0.0128,-2.5717,-0.0129,0.0060,0.0414,
9.449034,-0.2604,-0.8500,-0.1852,-6.5727,-0.0128,-2.5717,-0.3379,-0.0050,-0.3648,
9.450968,-0.2604,-0.8500,-0.1852,-6.7261,0.3010,-3.8789,-0.3379,-0.0050,-0.3648,
9.505771,-0.2111,-1.1695,-0.0100,-6.7261,0.3010,-3.8789,-0.3379,-0.0050,-0.3648,
9.508688,-0.2111,-1.1695,-0.0100,-6.7261,0.3010,-3.8789,0.2137,0.7946,-0.3288,
9.510244,-0.2111,-1.1695,-0.0100,-6.4165,-2.9243,-2.1920,0.2137,0.7946,-0.3288,
9.569506,-0.3428,-0.8869,-0.0635,-6.4165,-2.9243,-2.1920,0.2137,0.7946,-0.3288,
9.572878,-0.3428,-0.8869,-0.0635,-6.4165,-2.9243,-2.1920,0.2272,1.1422,0.8068,
9.575970,-0.3428,-0.8869,-0.0635,-7.4282,-0.1180,-3.0947,0.2272,1.1422,0.8068,
9.625441,-0.2817,-0.8260,-0.0098,-7.4282,-0.1180,-3.0947,0.2272,1.1422,0.8068,
9.629117,-0.2817,-0.8260,-0.0098,-7.4282,-0.1180,-3.0947,0.1557,1.1269,0.1342,
9.631024,-0.2817,-0.8260,-0.0098,-6.2915,0.6181,-2.8854,0.1557,1.1269,0.1342,
9.685006,-0.4048,-0.9369,0.0276,-6.2915,0.6181,-2.8854,0.1557,1.1269,0.1342,
9.688036,-0.4048,-0.9369,0.0276,-6.2915,0.6181,-2.8854,0.1655,1.1257,-0.2476,
9.689862,-0.4048,-0.9369,0.0276,-7.3161,-0.5049,-2.8377,0.1655,1.1257,-0.2476,
9.745016,-0.4390,-0.9247,0.0401,-7.3161,-0.5049,-2.8377,0.1655,1.1257,-0.2476,
9.748748,-0.4390,-0.9247,0.0401,-7.3161,-0.5049,-2.8377,0.0897,1.0957,0.0921,
9.750816,-0.4390,-0.9247,0.0401,-7.4604,-0.4202,-3.0000,0.0897,1.0957,0.0921,
9.806733,-0.3652,-0.8832,0.0498,-7.4604,-0.4202,-3.0000,0.0897,1.0957,0.0921,
9.810519,-0.3652,-0.8832,0.0498,-7.4604,-0.4202,-3.0000,0.0543,0.9070,-0.0472,
9.812848,-0.3652,-0.8832,0.0498,-6.4269,0.0146,-3.1023,0.0543,0.9070,-0.0472,
9.865906,-0.3652,-0.8832,0.0498,-6.4269,0.0146,-3.1023,0.3304,0.9467,-0.3514,
9.869310,-0.3645,-0.9450,0.0386,-6.4269,0.0146,-3.1023,0.3304,0.9467,-0.3514,
9.871226,-0.3645,-0.9450,0.0386,-6.2946,-0.6468,-3.4365,0.3304,0.9467,-0.3514,
9.925325,-0.3645,-0.9450,0.0386,-6.2946,-0.6468,-3.4365,0.2302,1.0493,-0.1376,
9.929565,-0.3645,-0.9450,0.0386,-6.1606,-0.7425,-3.7332,0.2302,1.0493,-0.1376,
9.931419,-0.4126,-0.9203,0.0508,-6.1606,-0.7425,-3.7332,0.2302,1.0493,-0.1376,
9.986020,-0.4009,-1.1710,0.0279,-6.1606,-0.7425,-3.7332,0.2302,1.0493,-0.1376,
9.989195,-0.4009,-1.1710,0.0279,-6.1606,-0.7425,-3.7332,-0.0978,0.9210,-0.2500,
9.991108,-0.4009,-1.1710,0.0279,-6.2858,-2.9973,-4.0550,-0.0978,0.9210,-0.2500,
10.045773,-0.3567,-1.1067,-0.0501,-6.2858,-2.9973,-4.0550,-0.0978,0.9210,-0.2500,
10.049817,-0.3567,-1.1067,-0.0501,-6.2858,-2.9973,-4.0550,0.2076,1.0255,0.0976,
10.052010,-0.3567,-1.1067,-0.0501,-5.6282,-2.4000,-4.9948,0.2076,1.0255,0.0976,
10.105838,-0.2516,-0.9411,-0.2890,-5.6282,-2.4000,-4.9948,0.2076,1.0255,0.0976,
10.109489,-0.2516,-0.9411,-0.2890,-5.6282,-2.4000,-4.9948,0.2540,0.8746,-0.0405,
10.111964,-0.2516,-0.9411,-0.2890,-4.2769,-0.8312,-7.5729,0.2540,0.8746,-0.0405,
10.167820,-0.0037,-0.8483,0.0222,-4.2769,-0.8312,-7.5729,0.2540,0.8746,-0.0405,
10.171678,-0.0037,-0.8483,0.0222,-4.2769,-0.8312,-7.5729,0.3096,0.3340,-0.0289,
10.173953,-0.0037,-0.8483,0.0222,-1.6499,0.0404,-4.6592,0.3096,0.3340,-0.0289,
10.227081,-0.2778,-1.2015,-0.0274,-1.6499,0.0404,-4.6592,0.3096,0.3340,-0.0289,
10.232010,-0.2778,-1.2015,-0.0274,-1.6499,0.0404,-4.6592,1.1135,0.7066,0.2821,
10.234486,-0.2778,-1.2015,-0.0274,-4.1398,-3.5969,-5.4911,1.1135,0.7066,0.2821,
10.286620,-0.2824,-0.9294,-0.0274,-4.1398,-3.5969,-5.4911,1.1135,0.7066,0.2821,
10.291621,-0.2824,-0.9294,-0.0274,-4.1398,-3.5969,-5.4911,0.9730,0.6015,-0.1211,
10.293820,-0.2824,-0.9294,-0.0274,-3.8663,-1.2534,-6.0363,0.9730,0.6015,-0.1211,
10.345429,-0.2524,-0.8734,0.0432,-3.8663,-1.2534,-6.0363,0.9730,0.6015,-0.1211,
10.349469,-0.2524,-0.8734,0.0432,-3.8663,-1.2534,-6.0363,0.4611,0.4983,-0.2017,
10.351435,-0.2524,-0.8734,0.0432,-3.4502,-0.9839,-5.7264,0.4611,0.4983,-0.2017,
10.405149,-0.1598,-0.8673,0.1542,-3.4502,-0.9839,-5.7264,0.4611,0.4983,-0.2017,
10.409511,-0.1598,-0.8673,0.1542,-3.4502,-0.9839,-5.7264,0.3658,0.5869,0.0371,
10.412653,-0.1598,-0.8673,0.1542,-2.3315,-1.0408,-4.8097,0.3658,0.5869,0.0371,
10.466398,-0.2993,-0.8793,0.1634,-2.3315,-1.0408,-4.8097,0.3658,0.5869,0.0371,
10.470523,-0.2993,-0.8793,0.1634,-2.3315,-1.0408,-4.8097,0.2999,0.7982,-0.1339,
10.472988,-0.2993,-0.8793,0.1634,-3.4470,-1.2826,-4.8877,0.2999,0.7982,-0.1339,
10.525561,-0.3061,-0.8866,0.2030,-3.4470,-1.2826,-4.8877,0.2999,0.7982,-0.1339,
10.529347,-0.3061,-0.8866,0.2030,-3.4470,-1.2826,-4.8877,0.1581,0.9003,0.1129,
10.530926,-0.3061,-0.8866,0.2030,-3.1748,-1.4265,-4.5981,0.1581,0.9003,0.1129,
10.586858,-0.3086,-0.9240,0.1864,-3.1748,-1.4265,-4.5981,0.1581,0.9003,0.1129,
10.591975,-0.3086,-0.9240,0.1864,-3.1748,-1.4265,-4.5981,0.1368,0.7543,0.1245,
10.593787,-0.3086,-0.9240,0.1864,-2.7705,-1.8265,-4.7953,0.1368,0.7543,0.1245,
10.645955,-0.3894,-1.0247,0.1781,-2.7705,-1.8265,-4.7953,0.1368,0.7543,0.1245,
10.648856,-0.3894,-1.0247,0.1781,-2.7705,-1.8265,-4.7953,0.1252,0.3468,0.0505,
10.650472,-0.3894,-1.0247,0.1781,-3.2667,-2.8548,-4.9043,0.1252,0.3468,0.0505,
10.706767,-0.3941,-1.0845,0.3784,-3.2667,-2.8548,-4.9043,0.1252,0.3468,0.0505,
10.710424,-0.3941,-1.0845,0.3784,-3.2667,-2.8548,-4.9043,0.0066,-0.1199,0.1483,
10.712464,-0.3941,-1.0845,0.3784,-3.1841,-3.4507,-2.9393,0.0066,-0.1199,0.1483,
10.765775,-0.1287,-1.0613,0.1116,-3.1841,-3.4507,-2.9393,0.0066,-0.1199,0.1483,
10.771370,-0.1287,-1.0613,0.1116,-3.1841,-3.4507,-2.9393,-0.1467,0.1147,-0.3563,
10.773351,-0.1287,-1.0613,0.1116,-0.6725,-3.2717,-5.6141,-0.1467,0.1147,-0.3563,
10.826476,-0.2428,-0.9308,0.1165,-0.6725,-3.2717,-5.6141,-0.1467,0.1147,-0.3563,
10.831262,-0.2428,-0.9308,0.1165,-0.6725,-3.2717,-5.6141,0.0512,-0.1071,-0.0075,
10.832940,-0.2428,-0.9308,0.1165,-1.8954,-1.9385,-5.5161,0.0512,-0.1071,-0.0075,
10.884815,-0.2428,-0.9308,0.1165,-1.7774,-1.9083,-5.4737,0.0512,-0.1071,-0.0075,
10.887832,-0.2001,-0.8629,-0.1805,-1.7774,-1.9083,-5.4737,0.0512,-0.1071,-0.0075,
10.889792,-0.2001,-0.8629,-0.1805,-1.7774,-1.9083,-5.4737,-0.2664,0.4531,0.0915,
10.946320,-0.1915,-0.9831,-0.1578,-1.7774,-1.9083,-5.4737,-0.2664,0.4531,0.0915,
10.950007,-0.1915,-0.9831,-0.1578,-1.7774,-1.9083,-5.4737,0.0109,0.3254,-0.3557,
10.951934,-0.1915,-0.9831,-0.1578,-1.1360,-2.3067,-8.0215,0.0109,0.3254,-0.3557,
11.006114,-0.3073,-1.0672,-0.0711,-1.1360,-2.3067,-8.0215,0.0109,0.3254,-0.3557,
11.009620,-0.3073,-1.0672,-0.0711,-1.1360,-2.3067,-8.0215,0.3634,0.8948,0.1232,
11.011639,-0.3073,-1.0672,-0.0711,-2.2104,-3.1606,-7.1985,0.3634,0.8948,0.1232,
11.066446,-0.2990,-0.9396,-0.0877,-2.2104,-3.1606,-7.1985,0.3634,0.8948,0.1232,
11.069937,-0.2990,-0.9396,-0.0877,-2.2104,-3.1606,-7.1985,0.3383,1.1764,0.5417,
11.072068,-0.2990,-0.9396,-0.0877,-1.5166,-2.0396,-7.4002,0.3383,1.1764,0.5417,
11.125546,-0.3327,-0.8773,-0.0821,-1.5166,-2.0396,-7.4002,0.3383,1.1764,0.5417,
11.129982,-0.3327,-0.8773,-0.0821,-1.5166,-2.0396,-7.4002,0.2516,1.3902,0.1819,
11.131948,-0.3327,-0.8773,-0.0821,-1.1564,-1.5598,-7.3011,0.2516,1.3902,0.1819,
11.186591,-0.3159,-1.0051,-0.0076,-1.1564,-1.5598,-7.3011,0.2516,1.3902,0.1819,
11.192182,-0.3159,-1.0051,-0.0076,-1.1564,-1.5598,-7.3011,0.3548,1.4592,-0.1352,
11.194352,-0.3159,-1.0051,-0.0076,-0.4303,-2.8947,-6.4530,0.3548,1.4592,-0.1352,
11.245114,-0.3877,-0.9753,-0.0105,-0.4303,-2.8947,-6.4530,0.3548,1.4592,-0.1352,
11.247960,-0.3877,-0.9753,-0.0105,-0.4303,-2.8947,-6.4530,0.6914,1.5612,0.0573,
11.249920,-0.3877,-0.9753,-0.0105,-0.5778,-2.7548,-6.3884,0.6914,1.5612,0.0573,
11.306346,-0.3015,-0.9135,0.0086,-0.5778,-2.7548,-6.3884,0.6914,1.5612,0.0573,
11.310459,-0.3015,-0.9135,0.0086,-0.5778,-2.7548,-6.3884,0.6694,1.5912,-0.1223,
11.312615,-0.3015,-0.9135,0.0086,0.9025,-2.3889,-6.0982,0.6694,1.5912,-0.1223,
11.366899,-0.3354,-0.9675,-0.0149,0.9025,-2.3889,-6.0982,0.6694,1.5912,-0.1223,
11.369953,-0.3354,-0.9675,-0.0149,0.9025,-2.3889,-6.0982,0.8832,2.0621,-0.4705,
11.371353,-0.3354,-0.9675,-0.0149,1.0820,-3.0931,-6.1686,0.8832,2.0621,-0.4705,
11.426347,-0.4483,-0.8793,-0.0303,1.0820,-3.0931,-6.1686,0.8832,2.0621,-0.4705,
11.429363,-0.4483,-0.8793,-0.0303,1.0820,-3.0931,-6.1686,0.8008,2.2344,-0.2384,
11.431291,-0.4483,-0.8793,-0.0303,0.5945,-2.3986,-6.0085,0.8008,2.2344,-0.2384,
11.486427,-0.4092,-1.0176,-0.1055,0.5945,-2.3986,-6.0085,0.8008,2.2344,-0.2384,
11.490891,-0.4092,-1.0176,-0.1055,0.5945,-2.3986,-6.0085,0.5754,2.1275,-0.2604,
11.493013,-0.4092,-1.0176,-0.1055,1.6414,-3.9009,-6.2659,0.5754,2.1275,-0.2604,
11.546344,-0.3423,-1.0085,-0.0904,1.6414,-3.9009,-6.2659,0.5754,2.1275,-0.2604,
11.549732,-0.3423,-1.0085,-0.0904,1.6414,-3.9009,-6.2659,0.6487,2.1281,-0.0973,
11.551382,-0.3423,-1.0085,-0.0904,2.8292,-3.8634,-5.5434,0.6487,2.1281,-0.0973,
11.610637,-0.3227,-0.9091,-0.1407,2.8292,-3.8634,-5.5434,0.6487,2.1281,-0.0973,
11.614736,-0.3227,-0.9091,-0.1407,2.8292,-3.8634,-5.5434,0.5735,1.9393,-0.1297,
11.616780,-0.3227,-0.9091,-0.1407,3.5128,-2.9958,-5.4583,0.5735,1.9393,-0.1297,
11.665803,-0.1273,-0.9462,-0.0901,3.5128,-2.9958,-5.4583,0.5735,1.9393,-0.1297,
11.669363,-0.1273,-0.9462,-0.0901,3.5128,-2.9958,-5.4583,0.4397,1.8043,-0.3007,
11.671382,-0.1273,-0.9462,-0.0901,5.7613,-3.3521,-4.3464,0.4397,1.8043,-0.3007,
11.726332,-0.1334,-1.0029,-0.1009,5.7613,-3.3521,-4.3464,0.4397,1.8043,-0.3007,
11.729806,-0.1334,-1.0029,-0.1009,5.7613,-3.3521,-4.3464,0.6291,1.8031,-0.2170,
11.731966,-0.1334,-1.0029,-0.1009,5.9232,-3.8493,-3.8417,0.6291,1.8031,-0.2170,
11.786190,-0.1419,-1.0151,-0.0325,5.9232,-3.8493,-3.8417,0.6291,1.8031,-0.2170,
11.789402,-0.1419,-1.0151,-0.0325,5.9232,-3.8493,-3.8417,0.5888,1.8807,-0.1101,
11.791475,-0.1419,-1.0151,-0.0325,6.0325,-3.9506,-2.5746,0.5888,1.8807,-0.1101,
11.846014,-0.1634,-0.9738,-0.0039,6.0325,-3.9506,-2.5746,0.5888,1.8807,-0.1101,
11.849353,-0.1634,-0.9738,-0.0039,6.0325,-3.9506,-2.5746,0.6028,1.9094,-0.1626,
11.851206,-0.1634,-0.9738,-0.0039,5.9734,-3.5258,-1.6427,0.6028,1.9094,-0.1626,
11.906932,-0.1358,-1.0408,-0.0032,5.9734,-3.5258,-1.6427,0.6028,1.9094,-0.1626,
11.912126,-0.1358,-1.0408,-0.0032,5.9734,-3.5258,-1.6427,0.5595,1.9754,-0.2836,
11.914423,-0.1358,-1.0408,-0.0032,6.2830,-4.0896,-0.9597,0.5595,1.9754,-0.2836,
11.966326,-0.1942,-0.9643,-0.0459,6.2830,-4.0896,-0.9597,0.5595,1.9754,-0.2836,
11.970049,-0.1942,-0.9643,-0.0459,6.2830,-4.0896,-0.9597,0.6273,2.1073,-0.1804,
11.971825,-0.1942,-0.9643,-0.0459,5.6653,-3.2184,-0.6724,0.6273,2.1073,-0.1804,
12.027333,-0.1634,-0.9831,0.0110,5.6653,-3.2184,-0.6724,0.6273,2.1073,-0.1804,
12.031581,-0.1634,-0.9831,0.0110,5.6653,-3.2184,-0.6724,0.5564,1.9558,-0.2983,
12.033937,-0.1634,-0.9831,0.0110,5.8399,-3.2655,0.5841,0.5564,1.9558,-0.2983,
12.087793,-0.1634,-0.9831,0.0110,5.8399,-3.2655,0.5841,0.4880,1.8783,-0.2469,
12.091142,-0.1808,-0.9597,0.0567,5.8399,-3.2655,0.5841,0.4880,1.8783,-0.2469,
12.092656,-0.1808,-0.9597,0.0567,5.4419,-2.8534,1.6570,0.4880,1.8783,-0.2469,
12.146006,-0.1598,-0.9795,0.0953,5.4419,-2.8534,1.6570,0.4880,1.8783,-0.2469,
12.148903,-0.1598,-0.9795,0.0953,5.4419,-2.8534,1.6570,0.3774,1.8202,-0.1376,
12.150647,-0.1598,-0.9795,0.0953,5.3822,-2.8918,2.6405,0.3774,1.8202,-0.1376,
12.207854,-0.1534,-0.9323,0.0836,5.3822,-2.8918,2.6405,0.3774,1.8202,-0.1376,
12.210949,-0.1534,-0.9323,0.0836,5.3822,-2.8918,2.6405,0.2046,1.6131,0.0041,
12.212950,-0.1534,-0.9323,0.0836,5.1849,-2.3313,3.0824,0.2046,1.6131,0.0041,
12.265925,-0.1456,-0.9614,0.1292,5.1849,-2.3313,3.0824,0.2046,1.6131,0.0041,
12.269055,-0.1456,-0.9614,0.1292,5.1849,-2.3313,3.0824,0.1227,1.4494,0.1220,
12.270798,-0.1456,-0.9614,0.1292,5.0293,-2.5866,4.0541,0.1227,1.4494,0.1220,
12.326483,-0.1393,-0.9599,0.1241,5.0293,-2.5866,4.0541,0.1227,1.4494,0.1220,
12.330700,-0.1393,-0.9599,0.1241,5.0293,-2.5866,4.0541,-0.0001,1.0090,0.1636,
12.332330,-0.1393,-0.9599,0.1241,4.8892,-2.5785,4.4456,-0.0001,1.0090,0.1636,
12.386161,-0.1524,-1.1114,0.1906,4.8892,-2.5785,4.4456,-0.0001,1.0090,0.1636,
12.390047,-0.1524,-1.1114,0.1906,4.8892,-2.5785,4.4456,0.0146,0.5728,0.1849,
12.392108,-0.1524,-1.1114,0.1906,4.6496,-4.1052,5.3849,0.0146,0.5728,0.1849,
12.446435,-0.0963,-1.0203,0.1246,4.6496,-4.1052,5.3849,0.0146,0.5728,0.1849,
12.450143,-0.0963,-1.0203,0.1246,4.6496,-4.1052,5.3849,0.0384,0.4195,-0.0832,
12.451669,-0.0963,-1.0203,0.1246,5.0940,-3.1788,4.8560,0.0384,0.4195,-0.0832,
12.506401,-0.1493,-0.9997,0.1407,5.0940,-3.1788,4.8560,0.0384,0.4195,-0.0832,
12.509926,-0.1493,-0.9997,0.1407,5.0940,-3.1788,4.8560,0.2980,0.3664,0.1159,
12.511606,-0.1493,-0.9997,0.1407,4.4521,-2.9082,5.0834,0.2980,0.3664,0.1159,
12.565921,-0.2152,-0.9521,-0.0726,4.4521,-2.9082,5.0834,0.2980,0.3664,0.1159,
12.569492,-0.2152,-0.9521,-0.0726,4.4521,-2.9082,5.0834,0.2040,0.6070,0.2277,
12.571114,-0.2152,-0.9521,-0.0726,3.7768,-2.4145,2.9893,0.2040,0.6070,0.2277,
12.628620,-0.2152,-0.9521,-0.0726,3.7768,-2.4145,2.9893,0.0384,0.6687,0.0493,
12.631454,-0.3161,-0.9284,-0.1539,3.7768,-2.4145,2.9893,0.0384,0.6687,0.0493,
12.633611,-0.3161,-0.9284,-0.1539,2.6618,-2.1722,2.3677,0.0384,0.6687,0.0493,
12.685144,-0.3955,-0.9577,-0.1058,2.6618,-2.1722,2.3677,0.0384,0.6687,0.0493,
12.687458,-0.3955,-0.9577,-0.1058,2.6618,-2.1722,2.3677,0.1936,0.8276,0.2112,
12.689568,-0.3955,-0.9577,-0.1058,1.7498,-2.4587,3.0298,0.1936,0.8276,0.2112,
12.746933,-0.3623,-0.9531,-0.0535,1.7498,-2.4587,3.0298,0.1936,0.8276,0.2112,
12.749951,-0.3623,-0.9531,-0.0535,1.7498,-2.4587,3.0298,0.1697,1.0011,0.3700,
12.752082,-0.3623,-0.9531,-0.0535,1.9510,-2.4320,3.7395,0.1697,1.0011,0.3700,
12.807051,-0.3623,-0.9531,-0.0535,1.9510,-2.4320,3.7395,-0.0147,1.0921,0.3548,
12.812989,-0.3672,-0.8812,-0.0581,1.9510,-2.4320,3.7395,-0.0147,1.0921,0.3548,
12.814827,-0.3672,-0.8812,-0.0581,1.7843,-1.8177,3.9804,-0.0147,1.0921,0.3548,
12.866917,-0.3415,-0.9460,-0.0225,1.7843,-1.8177,3.9804,-0.0147,1.0921,0.3548,
12.870533,-0.3415,-0.9460,-0.0225,1.7843,-1.8177,3.9804,-0.0080,0.9027,-0.0252,
12.872261,-0.3415,-0.9460,-0.0225,1.8177,-2.5022,4.6463,-0.0080,0.9027,-0.0252,
12.926396,-0.3691,-0.9406,-0.0335,1.8177,-2.5022,4.6463,-0.0080,0.9027,-0.0252,
12.930808,-0.3691,-0.9406,-0.0335,1.8177,-2.5022,4.6463,-0.0153,0.7634,0.0072,
12.932568,-0.3691,-0.9406,-0.0335,1.2750,-2.4131,4.7637,-0.0153,0.7634,0.0072,
12.986310,-0.3819,-0.9071,-0.0073,1.2750,-2.4131,4.7637,-0.0153,0.7634,0.0072,
12.989628,-0.3819,-0.9071,-0.0073,1.2750,-2.4131,4.7637,-0.0624,0.7042,0.1446,
12.991736,-0.3819,-0.9071,-0.0073,0.9470,-2.0931,5.2182,-0.0624,0.7042,0.1446,
13.046770,-0.4349,-0.8915,0.0300,0.9470,-2.0931,5.2182,-0.0624,0.7042,0.1446,
13.050666,-0.4349,-0.8915,0.0300,0.9470,-2.0931,5.2182,-0.0355,0.4611,0.0218,
13.052332,-0.4349,-0.8915,0.0300,0.2743,-1.9679,5.7514,-0.0355,0.4611,0.0218,
13.106379,-0.3349,-0.9523,0.0525,0.2743,-1.9679,5.7514,-0.0355,0.4611,0.0218,
13.109875,-0.3349,-0.9523,0.0525,0.2743,-1.9679,5.7514,0.1447,0.4391,-0.1083,
13.112885,-0.3349,-0.9523,0.0525,1.1010,-2.5218,6.0432,0.1447,0.4391,-0.1083,
13.167136,-0.4261,-0.9455,-0.0318,1.1010,-2.5218,6.0432,0.1447,0.4391,-0.1083,
13.170263,-0.4261,-0.9455,-0.0318,1.1010,-2.5218,6.0432,0.1361,0.4953,-0.0747,
13.172460,-0.4261,-0.9455,-0.0318,0.0048,-2.3531,5.2483,0.1361,0.4953,-0.0747,
13.227039,-0.3836,-0.9575,-0.0655,0.0048,-2.3531,5.2483,0.1361,0.4953,-0.0747,
13.231064,-0.3836,-0.9575,-0.0655,0.0048,-2.3531,5.2483,0.1752,0.4281,-0.2775,
13.234770,-0.3836,-0.9575,-0.0655,0.2190,-2.3643,4.9335,0.1752,0.4281,-0.2775,
13.286200,-0.5038,-1.1876,-0.1490,0.2190,-2.3643,4.9335,0.1752,0.4281,-0.2775,
13.289876,-0.5038,-1.1876,-0.1490,0.2190,-2.3643,4.9335,0.0005,0.0163,0.1135,
13.291279,-0.5038,-1.1876,-0.1490,-1.1369,-4.5348,4.1310,0.0005,0.0163,0.1135,
13.345298,-0.2516,-0.9071,-0.2932,-1.1369,-4.5348,4.1310,0.0005,0.0163,0.1135,
13.349020,-0.2516,-0.9071,-0.2932,-1.1369,-4.5348,4.1310,-0.0642,-0.1559,0.0005,
13.350984,-0.2516,-0.9071,-0.2932,1.4359,-1.8152,2.6851,-0.0642,-0.1559,0.0005,
13.405121,0.0213,-0.8644,0.0435,1.4359,-1.8152,2.6851,-0.0642,-0.1559,0.0005,
13.407510,0.0213,-0.8644,0.0435,1.4359,-1.8152,2.6851,0.2986,-0.6733,-0.5475,
13.409065,0.0213,-0.8644,0.0435,4.1093,-1.3411,5.9140,0.2986,-0.6733,-0.5475,
13.466186,-0.4400,-1.1522,-0.1302,4.1093,-1.3411,5.9140,0.2986,-0.6733,-0.5475,
13.469425,-0.4400,-1.1522,-0.1302,4.1093,-1.3411,5.9140,0.9370,-0.3282,0.4342,
13.471600,-0.4400,-1.1522,-0.1302,-0.3571,-3.8805,3.7844,0.9370,-0.3282,0.4342,
13.528078,-0.3591,-0.9413,0.0237,-0.3571,-3.8805,3.7844,0.9370,-0.3282,0.4342,
13.530680,-0.3591,-0.9413,0.0237,-0.3571,-3.8805,3.7844,0.8087,-0.6880,0.3511,
13.532487,-0.3591,-0.9413,0.0237,0.8603,-1.7049,4.7526,0.8087,-0.6880,0.3511,
13.585762,-0.3225,-0.8143,0.0215,0.8603,-1.7049,4.7526,0.8087,-0.6880,0.3511,
13.588708,-0.3225,-0.8143,0.0215,1.0339,-1.5128,4.2267,0.8087,-0.6880,0.3511,
13.590358,-0.3225,-0.8143,0.0215,1.0339,-1.5128,4.2267,0.3463,-0.9531,-0.0814,
13.645454,-0.3225,-0.8143,0.0215,1.0339,-1.5128,4.2267,0.0989,-1.1730,0.2668,
13.648669,-0.1979,-0.8233,0.0872,1.0339,-1.5128,4.2267,0.0989,-1.1730,0.2668,
13.650124,-0.1979,-0.8233,0.0872,2.9063,-0.3272,4.4266,0.0989,-1.1730,0.2668,
13.706591,-0.3454,-0.8495,0.1148,2.9063,-0.3272,4.4266,0.0989,-1.1730,0.2668,
13.709760,-0.3454,-0.8495,0.1148,2.9063,-0.3272,4.4266,-0.3232,-0.8853,-0.0680,
13.711473,-0.3454,-0.8495,0.1148,1.7479,-0.6191,4.3562,-0.3232,-0.8853,-0.0680,
13.766196,-0.2304,-0.7967,0.1393,1.7479,-0.6191,4.3562,-0.3232,-0.8853,-0.0680,
13.769729,-0.2304,-0.7967,0.1393,1.7479,-0.6191,4.3562,-0.5596,-0.9898,-0.0673,
13.771834,-0.2304,-0.7967,0.1393,2.9905,-0.1527,4.5311,-0.5596,-0.9898,-0.0673,
13.826393,-0.3413,-1.0273,0.0872,2.9905,-0.1527,4.5311,-0.5596,-0.9898,-0.0673,
13.829428,-0.3413,-1.0273,0.0872,2.9905,-0.1527,4.5311,-0.4332,-1.3080,0.0615,
13.831649,-0.3413,-1.0273,0.0872,2.1113,-2.4889,3.8481,-0.4332,-1.3080,0.0615,
13.886170,-0.3679,-1.0462,0.2700,2.1113,-2.4889,3.8481,-0.4332,-1.3080,0.0615,
13.890942,-0.3679,-1.0462,0.2700,2.1113,-2.4889,3.8481,-0.3214,-1.2860,0.0799,
13.892723,-0.3679,-1.0462,0.2700,2.0865,-2.7447,5.3668,-0.3214,-1.2860,0.0799,
13.947108,-0.4143,-1.2059,0.3528,2.0865,-2.7447,5.3668,-0.3214,-1.2860,0.0799,
13.950621,-0.4143,-1.2059,0.3528,2.0865,-2.7447,5.3668,-0.0660,-1.7753,0.6602,
13.952332,-0.4143,-1.2059,0.3528,1.9748,-4.4412,5.7649,-0.0660,-1.7753,0.6602,
14.006633,-0.1002,-0.9125,0.1698,1.9748,-4.4412,5.7649,-0.0660,-1.7753,0.6602,
14.010968,-0.1002,-0.9125,0.1698,1.9748,-4.4412,5.7649,-0.6800,-0.7790,0.0878,
14.012836,-0.1002,-0.9125,0.1698,5.3825,-1.6900,3.4154,-0.6800,-0.7790,0.0878,
14.066824,-0.2551,-0.8531,-0.1200,5.3825,-1.6900,3.4154,-0.6800,-0.7790,0.0878,
14.070396,-0.2551,-0.8531,-0.1200,5.3825,-1.6900,3.4154,-0.8657,-1.1028,0.0200,
14.072266,-0.2551,-0.8531,-0.1200,3.9657,-1.1872,0.5300,-0.8657,-1.1028,0.0200,
14.126236,-0.3862,-0.8270,-0.1869,3.9657,-1.1872,0.5300,-0.8657,-1.1028,0.0200,
14.130408,-0.3862,-0.8270,-0.1869,3.9657,-1.1872,0.5300,-1.1516,-1.3850,-0.4772,
14.132306,-0.3862,-0.8270,-0.1869,2.7036,-0.9427,-0.1668,-1.1516,-1.3850,-0.4772,
14.185938,-0.3862,-0.8270,-0.1869,2.7036,-0.9427,-0.1668,-0.8626,-0.9904,-0.2329,
14.189758,-0.3965,-1.1527,-0.0188,2.7036,-0.9427,-0.1668,-0.8626,-0.9904,-0.2329,
14.191435,-0.3965,-1.1527,-0.0188,2.4884,-4.0292,1.4684,-0.8626,-0.9904,-0.2329,
14.245502,-0.3481,-0.8852,-0.1349,2.4884,-4.0292,1.4684,-0.8626,-0.9904,-0.2329,
14.247450,-0.3481,-0.8852,-0.1349,2.4884,-4.0292,1.4684,-0.7001,-0.8212,0.7573,
14.248907,-0.3481,-0.8852,-0.1349,3.1562,-1.5714,0.2843,-0.7001,-0.8212,0.7573,
14.304897,-0.2665,-0.8632,-0.0958,3.1562,-1.5714,0.2843,-0.7001,-0.8212,0.7573,
14.307390,-0.2665,-0.8632,-0.0958,3.1562,-1.5714,0.2843,-0.6647,-0.7026,0.0915,
14.309281,-0.2665,-0.8632,-0.0958,4.2522,-1.6391,0.6555,-0.6647,-0.7026,0.0915,
14.365490,-0.3828,-0.8321,-0.0562,4.2522,-1.6391,0.6555,-0.6647,-0.7026,0.0915,
14.369362,-0.3828,-0.8321,-0.0562,4.2522,-1.6391,0.6555,-0.5780,-0.6752,-0.3746,
14.371259,-0.3828,-0.8321,-0.0562,3.0656,-1.2844,1.0274,-0.5780,-0.6752,-0.3746,
14.426018,-0.3828,-0.8321,-0.0562,3.0656,-1.2844,1.0274,-0.3953,-0.4950,-0.1571,
14.429038,-0.3017,-0.9575,-0.0581,3.0656,-1.2844,1.0274,-0.3953,-0.4950,-0.1571,
14.430633,-0.3017,-0.9575,-0.0581,3.7841,-2.4269,0.9599,-0.3953,-0.4950,-0.1571,
14.485588,-0.3213,-0.9628,-0.0027,3.7841,-2.4269,0.9599,-0.3953,-0.4950,-0.1571,
14.488210,-0.3213,-0.9628,-0.0027,3.7841,-2.4269,0.9599,-0.0386,-0.1028,-0.0313,
14.490354,-0.3213,-0.9628,-0.0027,3.5838,-2.4665,1.4822,-0.0386,-0.1028,-0.0313,
14.545341,-0.2428,-0.9900,-0.0081,3.5838,-2.4665,1.4822,-0.0386,-0.1028,-0.0313,
14.548366,-0.2428,-0.9900,-0.0081,3.5838,-2.4665,1.4822,0.1649,-0.0331,-0.3325,
14.550245,-0.2428,-0.9900,-0.0081,4.2749,-2.6417,1.3497,0.1649,-0.0331,-0.3325,
14.607249,-0.5346,-0.8830,-0.0012,4.2749,-2.6417,1.3497,0.1649,-0.0331,-0.3325,
14.610450,-0.5346,-0.8830,-0.0012,4.2749,-2.6417,1.3497,0.0237,0.0066,0.0286,
14.612203,-0.5346,-0.8830,-0.0012,1.2828,-1.4635,1.3847,0.0237,0.0066,0.0286,
14.664703,-0.5585,-1.2255,-0.2446,1.2828,-1.4635,1.3847,0.0237,0.0066,0.0286,
14.667513,-0.5585,-1.2255,-0.2446,1.2828,-1.4635,1.3847,-0.0581,-0.1523,0.2100,
14.669120,-0.5585,-1.2255,-0.2446,1.0693,-4.8332,-1.0323,-0.0581,-0.1523,0.2100,
14.725326,-0.1053,-0.8852,-0.3564,1.0693,-4.8332,-1.0323,-0.0581,-0.1523,0.2100,
14.727569,-0.1053,-0.8852,-0.3564,1.0693,-4.8332,-1.0323,-0.1045,-0.8908,0.1794,
14.731091,-0.1053,-0.8852,-0.3564,5.6658,-1.6193,-2.2543,-0.1045,-0.8908,0.1794,
14.786006,-0.1578,-1.1084,-0.0259,5.6658,-1.6193,-2.2543,-0.1045,-0.8908,0.1794,
14.789156,-0.1578,-1.1084,-0.0259,5.6658,-1.6193,-2.2543,0.3286,-0.8541,-0.1309,
14.790874,-0.1578,-1.1084,-0.0259,5.1654,-3.7665,0.6181,0.3286,-0.8541,-0.1309,
14.845483,-0.4048,-1.0989,-0.0828,5.1654,-3.7665,0.6181,0.3286,-0.8541,-0.1309,
14.849317,-0.4048,-1.0989,-0.0828,5.1654,-3.7665,0.6181,0.7659,-0.8554,0.4879,
14.850891,-0.4048,-1.0989,-0.0828,2.8178,-3.6963,-0.4874,0.7659,-0.8554,0.4879,
14.906228,-0.4048,-1.0989,-0.0828,2.8178,-3.6963,-0.4874,0.7446,-0.8004,-0.1028,
14.910154,-0.2358,-0.9220,-0.0662,2.8178,-3.6963,-0.4874,0.7446,-0.8004,-0.1028,
14.911844,-0.2358,-0.9220,-0.0662,4.5906,-2.0794,-1.0379,0.7446,-0.8004,-0.1028,
14.965420,-0.2336,-0.8348,0.0017,4.5906,-2.0794,-1.0379,0.7446,-0.8004,-0.1028,
14.969430,-0.2336,-0.8348,0.0017,4.5906,-2.0794,-1.0379,0.2547,-0.9720,0.1904,
14.971578,-0.2336,-0.8348,0.0017,4.5365,-1.2026,-0.9222,0.2547,-0.9720,0.1904,
15.025507,-0.2331,-0.8717,0.0987,4.5365,-1.2026,-0.9222,0.2547,-0.9720,0.1904,
15.028749,-0.2331,-0.8717,0.0987,4.5365,-1.2026,-0.9222,0.0213,-1.2585,0.2619,
15.030700,-0.2331,-0.8717,0.0987,4.5384,-1.6580,-0.5237,0.0213,-1.2585,0.2619,
15.086417,-0.2646,-0.8488,0.1713,4.5384,-1.6580,-0.5237,0.0213,-1.2585,0.2619,
15.089995,-0.2646,-0.8488,0.1713,4.5384,-1.6580,-0.5237,-0.1326,-0.3471,0.0964,
15.091984,-0.2646,-0.8488,0.1713,4.1878,-1.4757,-0.1599,-0.1326,-0.3471,0.0964,
15.146201,-0.2101,-0.8595,0.1879,4.1878,-1.4757,-0.1599,-0.1326,-0.3471,0.0964,
15.151036,-0.2101,-0.8595,0.1879,4.1878,-1.4757,-0.1599,-0.3367,-0.1321,0.1636,
15.152822,-0.2101,-0.8595,0.1879,4.7434,-1.5966,0.0258,-0.3367,-0.1321,0.1636,
15.206351,-0.2101,-0.8595,0.1879,4.7434,-1.5966,0.0258,-0.2731,-0.4357,0.0457,
15.209688,-0.3699,-0.9929,0.1363,4.7434,-1.5966,0.0258,-0.2731,-0.4357,0.0457,
15.211296,-0.3699,-0.9929,0.1363,3.1516,-2.8808,-0.4900,-0.2731,-0.4357,0.0457,
15.265120,-0.4161,-1.0083,0.2937,3.1516,-2.8808,-0.4900,-0.2731,-0.4357,0.0457,
15.269094,-0.4161,-1.0083,0.2937,3.1516,-2.8808,-0.4900,-0.3831,-0.4650,0.1727,
15.271046,-0.4161,-1.0083,0.2937,2.6826,-3.0203,1.0332,-0.3831,-0.4650,0.1727,
15.325631,-0.2726,-1.1910,0.4121,2.6826,-3.0203,1.0332,-0.3831,-0.4650,0.1727,
15.331653,-0.2726,-1.1910,0.4121,2.6826,-3.0203,1.0332,0.0470,-0.9024,0.3896,
15.335304,-0.2726,-1.1910,0.4121,4.1149,-4.8805,2.0430,0.0470,-0.9024,0.3896,
15.386111,-0.2726,-1.1910,0.4121,4.1149,-4.8805,2.0430,-0.5578,-0.2439,-0.5628,
15.389439,-0.0738,-1.0308,0.1578,4.1149,-4.8805,2.0430,-0.5578,-0.2439,-0.5628,
15.390841,-0.0738,-1.0308,0.1578,5.9160,-3.2490,-0.7200,-0.5578,-0.2439,-0.5628,
15.445532,-0.2460,-0.9255,-0.1410,5.9160,-3.2490,-0.7200,-0.5578,-0.2439,-0.5628,
15.449281,-0.2460,-0.9255,-0.1410,5.9160,-3.2490,-0.7200,0.0928,-0.0954,0.2094,
15.450608,-0.2460,-0.9255,-0.1410,4.0200,-2.0292,-3.6719,0.0928,-0.0954,0.2094,
15.507053,-0.2453,-0.7696,-0.2722,4.0200,-2.0292,-3.6719,0.0928,-0.0954,0.2094,
15.510407,-0.2453,-0.7696,-0.2722,4.0200,-2.0292,-3.6719,-0.5932,-0.1193,-0.0759,
15.512482,-0.2453,-0.7696,-0.2722,4.0972,-0.5311,-4.8477,-0.5932,-0.1193,-0.0759,
15.566216,-0.2443,-1.1292,-0.0215,4.0972,-0.5311,-4.8477,-0.5932,-0.1193,-0.0759,
15.569559,-0.2443,-1.1292,-0.0215,4.0972,-0.5311,-4.8477,-0.0520,0.3835,-0.3086,
15.571716,-0.2443,-1.1292,-0.0215,3.9437,-3.8475,-2.1830,-0.0520,0.3835,-0.3086,
15.624832,-0.2492,-0.9479,-0.1021,3.9437,-3.8475,-2.1830,-0.0520,0.3835,-0.3086,
15.627708,-0.2492,-0.9479,-0.1021,3.9437,-3.8475,-2.1830,0.1508,0.9082,0.6248,
15.629600,-0.2492,-0.9479,-0.1021,4.0078,-2.1165,-2.7650,0.1508,0.9082,0.6248,
15.686235,-0.2492,-0.9479,-0.1021,4.0078,-2.1165,-2.7650,0.0934,1.2491,0.3163,
15.689684,-0.2599,-0.8597,-0.1051,4.0078,-2.1165,-2.7650,0.0934,1.2491,0.3163,
15.691787,-0.2599,-0.8597,-0.1051,4.2398,-1.4828,-2.4086,0.0934,1.2491,0.3163,
15.745507,-0.3032,-0.9262,-0.0249,4.2398,-1.4828,-2.4086,0.0934,1.2491,0.3163,
15.748407,-0.3032,-0.9262,-0.0249,4.2398,-1.4828,-2.4086,0.1080,1.4268,-0.1126,
15.750323,-0.3032,-0.9262,-0.0249,3.9248,-2.1521,-1.0599,0.1080,1.4268,-0.1126,
15.805826,-0.3970,-0.9856,0.0398,3.9248,-2.1521,-1.0599,0.1080,1.4268,-0.1126,
15.809571,-0.3970,-0.9856,0.0398,3.9248,-2.1521,-1.0599,0.1978,1.3450,-0.0099,
15.811788,-0.3970,-0.9856,0.0398,2.9711,-2.6594,0.0746,0.1978,1.3450,-0.0099,
15.866074,-0.3872,-0.8764,0.0432,2.9711,-2.6594,0.0746,0.1978,1.3450,-0.0099,
15.869079,-0.3872,-0.8764,0.0432,2.9711,-2.6594,0.0746,0.4080,1.2417,0.0903,
15.870559,-0.3872,-0.8764,0.0432,3.0993,-1.6148,0.5313,0.4080,1.2417,0.0903,
15.924977,-0.3682,-0.9181,0.0120,3.0993,-1.6148,0.5313,0.4080,1.2417,0.0903,
15.939420,-0.3682,-0.9181,0.0120,3.0993,-1.6148,0.5313,0.4550,1.0707,-0.1688,
15.942233,-0.3682,-0.9181,0.0120,3.2457,-1.9944,0.5042,0.4550,1.0707,-0.1688,
15.984491,-0.4869,-0.9318,0.0496,3.2457,-1.9944,0.5042,0.4550,1.0707,-0.1688,
15.986893,-0.4869,-0.9318,0.0496,3.2457,-1.9944,0.5042,0.3310,1.1483,-0.0973,
15.988325,-0.4869,-0.9318,0.0496,1.9596,-2.0313,1.1512,0.3310,1.1483,-0.0973,
16.045123,-0.3516,-1.1556,-0.0042,1.9596,-2.0313,1.1512,0.3310,1.1483,-0.0973,
16.048015,-0.3516,-1.1556,-0.0042,1.9596,-2.0313,1.1512,-0.0208,0.9626,-0.2463,
16.049721,-0.3516,-1.1556,-0.0042,3.1691,-4.1588,0.9926,-0.0208,0.9626,-0.2463,
16.105010,-0.3704,-1.0581,-0.0967,3.1691,-4.1588,0.9926,-0.0208,0.9626,-0.2463,
16.107674,-0.3704,-1.0581,-0.0967,3.1691,-4.1588,0.9926,0.2162,1.0414,0.4061,
16.109752,-0.3704,-1.0581,-0.0967,2.9014,-3.1947,0.4790,0.2162,1.0414,0.4061,
16.166794,-0.1471,-0.9680,-0.3560,2.9014,-3.1947,0.4790,0.2162,1.0414,0.4061,
16.169828,-0.1471,-0.9680,-0.3560,2.9014,-3.1947,0.4790,0.2162,0.9888,0.0255,
16.171516,-0.1471,-0.9680,-0.3560,5.1132,-2.4058,-1.7342,0.2162,0.9888,0.0255,
16.225084,0.0921,-1.0005,0.0630,5.1132,-2.4058,-1.7342,0.2162,0.9888,0.0255,
16.228707,0.0921,-1.0005,0.0630,5.1132,-2.4058,-1.7342,0.5967,0.7341,-0.1028,
16.230672,0.0921,-1.0005,0.0630,7.3315,-2.6674,2.5927,0.5967,0.7341,-0.1028,
16.285206,0.0921,-1.0005,0.0630,7.3315,-2.6674,2.5927,1.3444,1.3309,0.2436,
16.288700,-0.2863,-1.2316,-0.1068,7.3315,-2.6674,2.5927,1.3444,1.3309,0.2436,
16.291010,-0.2863,-1.2316,-0.1068,3.4760,-4.7862,0.8671,1.3444,1.3309,0.2436,
16.345453,-0.2394,-0.8490,0.0039,3.4760,-4.7862,0.8671,1.3444,1.3309,0.2436,
16.348581,-0.2394,-0.8490,0.0039,3.4760,-4.7862,0.8671,1.1532,1.1855,-0.1419,
16.350368,-0.2394,-0.8490,0.0039,3.8670,-0.9597,1.8791,1.1532,1.1855,-0.1419,
16.406373,-0.2531,-0.8028,0.0296,3.8670,-0.9597,1.8791,1.1532,1.1855,-0.1419,
16.409360,-0.2531,-0.8028,0.0296,3.8670,-0.9597,1.8791,0.4434,1.1006,-0.3086,
16.411158,-0.2531,-0.8028,0.0296,3.4221,-0.2621,2.1569,0.4434,1.1006,-0.3086,
16.466381,-0.1703,-0.9223,0.1713,3.4221,-0.2621,2.1569,0.4434,1.1006,-0.3086,
16.470125,-0.1703,-0.9223,0.1713,3.4221,-0.2621,2.1569,0.5106,1.2692,0.1391,
16.473510,-0.1703,-0.9223,0.1713,4.0535,-1.3476,3.7466,0.5106,1.2692,0.1391,
16.526137,-0.3232,-0.8698,0.1468,4.0535,-1.3476,3.7466,0.5106,1.2692,0.1391,
16.529652,-0.3232,-0.8698,0.1468,4.0535,-1.3476,3.7466,0.4703,1.3383,0.0029,
16.531327,-0.3232,-0.8698,0.1468,2.4028,-0.7721,3.6871,0.4703,1.3383,0.0029,
16.586337,-0.3159,-0.8983,0.1749,2.4028,-0.7721,3.6871,0.4703,1.3383,0.0029,
16.590048,-0.3159,-0.8983,0.1749,2.4028,-0.7721,3.6871,0.2498,1.1135,0.0475,
16.592413,-0.3159,-0.8983,0.1749,2.2954,-0.9932,4.1842,0.2498,1.1135,0.0475,
16.646157,-0.3452,-1.0061,0.1932,2.2954,-0.9932,4.1842,0.2498,1.1135,0.0475,
16.650698,-0.3452,-1.0061,0.1932,2.2954,-0.9932,4.1842,0.1667,0.7714,0.1397,
16.652412,-0.3452,-1.0061,0.1932,1.8942,-2.0315,4.5474,0.1667,0.7714,0.1397,
16.708449,-0.3088,-1.0039,0.2853,1.8942,-2.0315,4.5474,0.1667,0.7714,0.1397,
16.711723,-0.3088,-1.0039,0.2853,1.8942,-2.0315,4.5474,0.1038,0.4360,0.0414,
16.713525,-0.3088,-1.0039,0.2853,2.1802,-1.9974,5.5508,0.1038,0.4360,0.0414,
16.765859,-0.3655,-1.1517,0.4613,2.1802,-1.9974,5.5508,0.1038,0.4360,0.0414,
16.770006,-0.3655,-1.1517,0.4613,2.1802,-1.9974,5.5508,0.1746,-0.1657,0.1544,
16.771585,-0.3655,-1.1517,0.4613,1.6084,-3.4375,7.2817,0.1746,-0.1657,0.1544,
16.826192,-0.1143,-1.0041,0.0823,1.6084,-3.4375,7.2817,0.1746,-0.1657,0.1544,
16.831337,-0.1143,-1.0041,0.0823,1.6084,-3.4375,7.2817,0.1074,0.4103,-0.2738,
16.833283,-0.1143,-1.0041,0.0823,4.0018,-1.9126,3.4679,0.1074,0.4103,-0.2738,
16.886132,-0.1928,-0.8316,-0.1229,4.0018,-1.9126,3.4679,0.1074,0.4103,-0.2738,
16.890716,-0.1928,-0.8316,-0.1229,4.0018,-1.9126,3.4679,0.1734,0.3621,0.0707,
16.892427,-0.1928,-0.8316,-0.1229,3.1053,-0.1357,1.4404,0.1734,0.3621,0.0707,
16.946270,-0.2775,-0.9306,-0.1515,3.1053,-0.1357,1.4404,0.1734,0.3621,0.0707,
16.949570,-0.2775,-0.9306,-0.1515,3.1053,-0.1357,1.4404,-0.1980,0.4030,-0.4956,
16.951199,-0.2775,-0.9306,-0.1515,2.1537,-1.0781,1.2993,-0.1980,0.4030,-0.4956,
17.006283,-0.3032,-1.1527,-0.0078,2.1537,-1.0781,1.2993,-0.1980,0.4030,-0.4956,
17.008906,-0.3032,-1.1527,-0.0078,2.1537,-1.0781,1.2993,0.2272,1.0646,-0.2537,
17.010734,-0.3032,-1.1527,-0.0078,1.5055,-3.0938,2.8986,0.2272,1.0646,-0.2537,
17.068217,-0.3701,-0.8529,-0.1060,1.5055,-3.0938,2.8986,0.2272,1.0646,-0.2537,
17.072258,-0.3701,-0.8529,-0.1060,1.5055,-3.0938,2.8986,0.0573,1.2747,0.8288,
17.074363,-0.3701,-0.8529,-0.1060,0.7744,-0.1823,2.1147,0.0573,1.2747,0.8288,
17.126005,-0.2744,-0.8659,0.0281,0.7744,-0.1823,2.1147,0.0573,1.2747,0.8288,
17.131437,-0.2744,-0.8659,0.0281,0.7744,-0.1823,2.1147,0.1184,1.2753,0.1550,
17.133684,-0.2744,-0.8659,0.0281,1.7575,-0.4585,3.7352,0.1184,1.2753,0.1550,
17.186103,-0.4175,-0.9533,0.0235,1.7575,-0.4585,3.7352,0.1184,1.2753,0.1550,
17.189953,-0.4175,-0.9533,0.0235,1.7575,-0.4585,3.7352,0.2357,1.3010,-0.0173,
17.192221,-0.4175,-0.9533,0.0235,0.0703,-1.2671,3.9226,0.2357,1.3010,-0.0173,
17.246425,-0.5057,-0.9030,0.0750,0.0703,-1.2671,3.9226,0.2357,1.3010,-0.0173,
17.249444,-0.5057,-0.9030,0.0750,0.0703,-1.2671,3.9226,0.2363,1.0603,0.3340,
17.251237,-0.5057,-0.9030,0.0750,-1.0043,-0.7435,4.5883,0.2363,1.0603,0.3340,
17.305479,-0.3845,-0.8287,0.0105,-1.0043,-0.7435,4.5883,0.2363,1.0603,0.3340,
17.308709,-0.3845,-0.8287,0.0105,-1.0043,-0.7435,4.5883,0.1710,0.8435,0.0872,
17.309980,-0.3845,-0.8287,0.0105,0.1099,-0.0171,4.0333,0.1710,0.8435,0.0872,
17.366293,-0.4136,-0.9257,0.0489,0.1099,-0.0171,4.0333,0.1710,0.8435,0.0872,
17.371690,-0.4136,-0.9257,0.0489,0.1099,-0.0171,4.0333,0.0922,0.9271,-0.2274,
17.373652,-0.4136,-0.9257,0.0489,-0.4251,-0.9153,4.5377,0.0922,0.9271,-0.2274,
17.425037,-0.4449,-1.0002,-0.0623,-0.4251,-0.9153,4.5377,0.0922,0.9271,-0.2274,
17.428362,-0.4449,-1.0002,-0.0623,-0.4251,-0.9153,4.5377,0.2992,1.0933,-0.1425,
17.430184,-0.4449,-1.0002,-0.0623,-1.0645,-1.5496,3.5374,0.2992,1.0933,-0.1425,
17.486642,-0.4725,-1.1409,-0.1266,-1.0645,-1.5496,3.5374,0.2992,1.0933,-0.1425,
17.490271,-0.4725,-1.1409,-0.1266,-1.0645,-1.5496,3.5374,0.3909,0.9894,0.0793,
17.492219,-0.4725,-1.1409,-0.1266,-1.6414,-2.8347,2.9517,0.3909,0.9894,0.0793,
17.545292,-0.3000,-0.9646,-0.2519,-1.6414,-2.8347,2.9517,0.3909,0.9894,0.0793,
17.549076,-0.3000,-0.9646,-0.2519,-1.6414,-2.8347,2.9517,0.4178,0.8154,0.0371,
17.551007,-0.3000,-0.9646,-0.2519,-0.0955,-1.0252,1.6616,0.4178,0.8154,0.0371,
17.606230,-0.0120,-0.8707,-0.0542,-0.0955,-1.0252,1.6616,0.4178,0.8154,0.0371,
17.609021,-0.0120,-0.8707,-0.0542,-0.0955,-1.0252,1.6616,0.5967,0.4861,-0.2225,
17.611008,-0.0120,-0.8707,-0.0542,2.5278,0.0167,3.4775,0.5967,0.4861,-0.2225,
17.667091,-0.2507,-1.1424,0.0496,2.5278,0.0167,3.4775,0.5967,0.4861,-0.2225,
17.670836,-0.2507,-1.1424,0.0496,2.5278,0.0167,3.4775,1.1972,0.4647,0.0047,
17.672894,-0.2507,-1.1424,0.0496,-0.0267,-2.4015,4.0819,1.1972,0.4647,0.0047,
17.725053,-0.3572,-0.9264,0.0616,-0.0267,-2.4015,4.0819,1.1972,0.4647,0.0047,
17.727753,-0.3572,-0.9264,0.0616,-0.0267,-2.4015,4.0819,1.1105,0.4946,-0.0362,
17.729370,-0.3572,-0.9264,0.0616,-1.1286,-0.0565,3.6263,1.1105,0.4946,-0.0362,
17.785783,-0.2907,-0.8524,0.0552,-1.1286,-0.0565,3.6263,1.1105,0.4946,-0.0362,
17.790025,-0.2907,-0.8524,0.0552,-1.1286,-0.0565,3.6263,0.7116,0.3926,-0.4546,
17.792694,-0.2907,-0.8524,0.0552,-0.7093,0.8837,3.0437,0.7116,0.3926,-0.4546,
17.845940,-0.1962,-0.8351,0.1942,-0.7093,0.8837,3.0437,0.7116,0.3926,-0.4546,
17.849516,-0.1962,-0.8351,0.1942,-0.7093,0.8837,3.0437,0.3218,0.2784,-0.0796,
17.851083,-0.1962,-0.8351,0.1942,0.0211,1.1641,4.1418,0.3218,0.2784,-0.0796,
17.906267,-0.2492,-0.8952,0.2023,0.0211,1.1641,4.1418,0.3218,0.2784,-0.0796,
17.908988,-0.2492,-0.8952,0.2023,0.0211,1.1641,4.1418,0.0726,0.2912,-0.2665,
17.910229,-0.2492,-0.8952,0.2023,-0.6182,0.6266,4.1031,0.0726,0.2912,-0.2665,
17.966080,-0.3225,-0.8864,0.2954,-0.6182,0.6266,4.1031,0.0726,0.2912,-0.2665,
17.969273,-0.3225,-0.8864,0.2954,-0.6182,0.6266,4.1031,-0.1021,-0.1077,-0.0386,
17.971140,-0.3225,-0.8864,0.2954,-1.4630,0.7354,5.0199,-0.1021,-0.1077,-0.0386,
18.025762,-0.3332,-0.9616,0.1854,-1.4630,0.7354,5.0199,-0.1021,-0.1077,-0.0386,
18.030351,-0.3332,-0.9616,0.1854,-1.4630,0.7354,5.0199,-0.3434,-0.3905,0.0884,
18.033033,-0.3332,-0.9616,0.1854,-1.5002,-0.0254,3.9900,-0.3434,-0.3905,0.0884,
18.085370,-0.2624,-1.0672,0.3337,-1.5002,-0.0254,3.9900,-0.3434,-0.3905,0.0884,
18.088746,-0.2624,-1.0672,0.3337,-1.5002,-0.0254,3.9900,-0.2108,-0.5964,-0.0130,
18.090367,-0.2624,-1.0672,0.3337,-0.7027,-1.1093,5.5677,-0.2108,-0.5964,-0.0130,
18.145875,-0.2946,-0.8373,0.3682,-0.7027,-1.1093,5.5677,-0.2108,-0.5964,-0.0130,
18.149150,-0.2946,-0.8373,0.3682,-0.7027,-1.1093,5.5677,-0.1131,-0.9812,0.3468,
18.151134,-0.2946,-0.8373,0.3682,-0.8600,1.1198,5.8674,-0.1131,-0.9812,0.3468,
18.206207,-0.2467,-1.3134,-0.1432,-0.8600,1.1198,5.8674,-0.1131,-0.9812,0.3468,
18.209817,-0.2467,-1.3134,-0.1432,-0.8600,1.1198,5.8674,-0.1363,-1.1681,0.0096,
18.211297,-0.2467,-1.3134,-0.1432,-0.0140,-3.6044,0.7208,-0.1363,-1.1681,0.0096,
18.266110,-0.2213,-1.0530,0.1664,-0.0140,-3.6044,0.7208,-0.1363,-1.1681,0.0096,
18.269648,-0.2213,-1.0530,0.1664,-0.0140,-3.6044,0.7208,-0.5230,-0.3929,-0.6049,
18.271073,-0.2213,-1.0530,0.1664,0.1094,-1.0640,3.9366,-0.5230,-0.3929,-0.6049,
18.325957,-0.4720,-0.7559,-0.3860,0.1094,-1.0640,3.9366,-0.5230,-0.3929,-0.6049,
18.329103,-0.4720,-0.7559,-0.3860,0.1094,-1.0640,3.9366,-0.5370,-0.4064,0.1953,
18.330842,-0.4720,-0.7559,-0.3860,-2.3827,1.8401,-1.4138,-0.5370,-0.4064,0.1953,
18.385691,-0.4720,-0.7559,-0.3860,-2.3827,1.8401,-1.4138,-0.8492,-0.4607,-0.2537,
18.389935,-0.3042,-0.9870,-0.0662,-2.3827,1.8401,-1.4138,-0.8492,-0.4607,-0.2537,
18.393393,-0.3042,-0.9870,-0.0662,-0.6284,-0.5561,2.0935,-0.8492,-0.4607,-0.2537,
18.445782,-0.3042,-0.9870,-0.0662,-0.6284,-0.5561,2.0935,-0.6128,-0.4809,0.0719,
18.448954,-0.3613,-0.9626,-0.0713,-0.6284,-0.5561,2.0935,-0.6128,-0.4809,0.0719,
18.450586,-0.3613,-0.9626,-0.0713,-1.2344,-0.4208,2.4029,-0.6128,-0.4809,0.0719,
18.505732,-0.2653,-0.8717,-0.0503,-1.2344,-0.4208,2.4029,-0.6128,-0.4809,0.0719,
18.508504,-0.2653,-0.8717,-0.0503,-1.2344,-0.4208,2.4029,-0.6366,-0.4943,0.2295,
18.509926,-0.2653,-0.8717,-0.0503,-0.0516,0.3155,2.8543,-0.6366,-0.4943,0.2295,
18.565683,-0.2856,-0.8937,-0.0596,-0.0516,0.3155,2.8543,-0.6366,-0.4943,0.2295,
18.568600,-0.2856,-0.8937,-0.0596,-0.0516,0.3155,2.8543,-0.5859,-0.2329,-0.1095,
18.570475,-0.2856,-0.8937,-0.0596,-0.1468,-0.0242,3.0009,-0.5859,-0.2329,-0.1095,
18.624702,-0.3203,-1.0022,-0.0342,-0.1468,-0.0242,3.0009,-0.5859,-0.2329,-0.1095,
18.626996,-0.3203,-1.0022,-0.0342,-0.1468,-0.0242,3.0009,-0.2902,-0.0411,0.0762,
18.628738,-0.3203,-1.0022,-0.0342,-0.4645,-1.1836,3.4607,-0.2902,-0.0411,0.0762,
18.685750,-0.3034,-0.9702,0.0789,-0.4645,-1.1836,3.4607,-0.2902,-0.0411,0.0762,
18.689525,-0.3034,-0.9702,0.0789,-0.4645,-1.1836,3.4607,0.0580,0.1184,0.2234,
18.691640,-0.3034,-0.9702,0.0789,-0.2275,-0.9174,4.6252,0.0580,0.1184,0.2234,
18.745524,-0.3721,-0.8812,-0.0220,-0.2275,-0.9174,4.6252,0.0580,0.1184,0.2234,
18.747999,-0.3721,-0.8812,-0.0220,-0.2275,-0.9174,4.6252,0.4074,0.4299,0.0658,
18.749728,-0.3721,-0.8812,-0.0220,-0.8588,-0.0190,3.5454,0.4074,0.4299,0.0658,
18.806198,-0.4378,-0.9074,-0.0107,-0.8588,-0.0190,3.5454,0.4074,0.4299,0.0658,
18.810876,-0.4378,-0.9074,-0.0107,-0.8588,-0.0190,3.5454,0.0622,0.3022,-0.1028,
18.812451,-0.4378,-0.9074,-0.0107,-1.5890,-0.2049,3.5553,0.0622,0.3022,-0.1028,
18.865611,-0.4820,-1.0046,0.0716,-1.5890,-0.2049,3.5553,0.0622,0.3022,-0.1028,
18.869082,-0.4820,-1.0046,0.0716,-1.5890,-0.2049,3.5553,0.0140,0.3132,-0.0435,
18.870762,-0.4820,-1.0046,0.0716,-2.1233,-1.1324,4.3750,0.0140,0.3132,-0.0435,
18.925808,-0.4424,-1.0608,-0.0462,-2.1233,-1.1324,4.3750,0.0140,0.3132,-0.0435,
18.929057,-0.4424,-1.0608,-0.0462,-2.1233,-1.1324,4.3750,-0.2811,0.3755,-0.1889,
18.930936,-0.4424,-1.0608,-0.0462,-1.8680,-1.6776,3.2985,-0.2811,0.3755,-0.1889,
18.985608,-0.3906,-1.0002,-0.2499,-1.8680,-1.6776,3.2985,-0.2811,0.3755,-0.1889,
18.988777,-0.3906,-1.0002,-0.2499,-1.8680,-1.6776,3.2985,-0.1620,0.1874,0.2149,
18.990645,-0.3906,-1.0002,-0.2499,-1.4259,-1.1335,1.4561,-0.1620,0.1874,0.2149,
19.045258,-0.1214,-0.8781,-0.3462,-1.4259,-1.1335,1.4561,-0.1620,0.1874,0.2149,
19.052788,-0.1214,-0.8781,-0.3462,-1.4259,-1.1335,1.4561,-0.0465,-0.2689,-0.1498,
19.056065,-0.1214,-0.8781,-0.3462,1.2527,0.0220,0.5794,-0.0465,-0.2689,-0.1498,
19.104802,-0.0418,-1.0498,0.1011,1.2527,0.0220,0.5794,-0.0465,-0.2689,-0.1498,
19.107998,-0.0418,-1.0498,0.1011,1.2527,0.0220,0.5794,0.5888,-0.2842,-0.0008,
19.110089,-0.0418,-1.0498,0.1011,2.0417,-1.6055,4.8347,0.5888,-0.2842,-0.0008,
19.166044,-0.4019,-1.0816,-0.1297,2.0417,-1.6055,4.8347,0.5888,-0.2842,-0.0008,
19.168800,-0.4019,-1.0816,-0.1297,2.0417,-1.6055,4.8347,1.1196,-0.1071,0.6913,
19.170471,-0.4019,-1.0816,-0.1297,-1.2863,-1.7593,2.0436,1.1196,-0.1071,0.6913,
19.223803,-0.2988,-0.9198,-0.0254,-1.2863,-1.7593,2.0436,1.1196,-0.1071,0.6913,
19.226459,-0.2988,-0.9198,-0.0254,-1.2863,-1.7593,2.0436,0.9303,-0.0887,-0.0185,
19.228325,-0.2988,-0.9198,-0.0254,0.0182,-0.0669,2.4767,0.9303,-0.0887,-0.0185,
19.284272,-0.2475,-0.8678,0.1212,0.0182,-0.0669,2.4767,0.9303,-0.0887,-0.0185,
19.287446,-0.2475,-0.8678,0.1212,0.0182,-0.0669,2.4767,0.3084,-0.2812,-0.0307,
19.289122,-0.2475,-0.8678,0.1212,0.4483,0.5715,3.5408,0.3084,-0.2812,-0.0307,
19.344512,-0.1952,-0.8138,0.1185,0.4483,0.5715,3.5408,0.3084,-0.2812,-0.0307,
19.347005,-0.1952,-0.8138,0.1185,0.4483,0.5715,3.5408,0.3628,-0.2005,0.2185,
19.348302,-0.1952,-0.8138,0.1185,1.0733,1.1237,3.2729,0.3628,-0.2005,0.2185,
19.405491,-0.3108,-0.7952,0.2143,1.0733,1.1237,3.2729,0.3628,-0.2005,0.2185,
19.408947,-0.3108,-0.7952,0.2143,1.0733,1.1237,3.2729,0.0219,0.0988,-0.1144,
19.410259,-0.3108,-0.7952,0.2143,-0.0313,1.3292,4.0650,0.0219,0.0988,-0.1144,
19.464627,-0.3516,-0.8177,0.2318,-0.0313,1.3292,4.0650,0.0219,0.0988,-0.1144,
19.467733,-0.3516,-0.8177,0.2318,-0.0313,1.3292,4.0650,-0.0502,-0.4064,0.1465,
19.469084,-0.3516,-0.8177,0.2318,-0.4269,1.1119,4.2169,-0.0502,-0.4064,0.1465,
19.525365,-0.3398,-1.0725,0.1823,-0.4269,1.1119,4.2169,-0.0502,-0.4064,0.1465,
19.528934,-0.3398,-1.0725,0.1823,-0.4269,1.1119,4.2169,-0.1003,-0.4534,0.1526,
19.530301,-0.3398,-1.0725,0.1823,-0.1474,-1.4225,3.6412,-0.1003,-0.4534,0.1526,
19.583513,-0.3960,-0.9775,0.4603,-0.1474,-1.4225,3.6412,-0.1003,-0.4534,0.1526,
19.586301,-0.3960,-0.9775,0.4603,-0.1474,-1.4225,3.6412,-0.1216,-0.3807,0.3560,
19.588046,-0.3960,-0.9775,0.4603,-0.5862,-0.5280,6.3502,-0.1216,-0.3807,0.3560,
19.645037,-0.2441,-1.3899,-0.1114,-0.5862,-0.5280,6.3502,-0.1216,-0.3807,0.3560,
19.648044,-0.2441,-1.3899,-0.1114,-0.5862,-0.5280,6.3502,0.4611,-0.6483,0.0518,
19.649660,-0.2441,-1.3899,-0.1114,1.2455,-4.6502,0.4789,0.4611,-0.6483,0.0518,
19.703652,-0.1395,-0.9108,0.1334,1.2455,-4.6502,0.4789,0.4611,-0.6483,0.0518,
19.706187,-0.1395,-0.9108,0.1334,1.2455,-4.6502,0.4789,-0.3440,0.0414,-0.4003,
19.707421,-0.1395,-0.9108,0.1334,2.2013,0.0709,2.8863,-0.3440,0.0414,-0.4003,
19.763731,-0.3884,-0.8028,-0.2607,2.2013,0.0709,2.8863,-0.3440,0.0414,-0.4003,
19.766238,-0.3884,-0.8028,-0.2607,2.2013,0.0709,2.8863,-0.4857,-0.2732,-0.0930,
19.767276,-0.3884,-0.8028,-0.2607,-0.3758,1.1628,-0.8668,-0.4857,-0.2732,-0.0930,
19.825088,-0.3176,-1.0388,-0.0125,-0.3758,1.1628,-0.8668,-0.4857,-0.2732,-0.0930,
19.828335,-0.3176,-1.0388,-0.0125,-0.3758,1.1628,-0.8668,-0.5364,-0.0002,-0.4840,
19.829703,-0.3176,-1.0388,-0.0125,0.2071,-1.1617,1.8304,-0.5364,-0.0002,-0.4840,
19.883135,-0.3342,-0.9851,-0.0308,0.2071,-1.1617,1.8304,-0.5364,-0.0002,-0.4840,
19.885685,-0.3342,-0.9851,-0.0308,0.2071,-1.1617,1.8304,-0.1711,0.2870,0.4983,
19.887098,-0.3342,-0.9851,-0.0308,-0.0805,-0.6310,1.8323,-0.1711,0.2870,0.4983,
19.943729,-0.2814,-0.8441,-0.0515,-0.0805,-0.6310,1.8323,-0.1711,0.2870,0.4983,
19.946538,-0.2814,-0.8441,-0.0515,-0.0805,-0.6310,1.8323,-0.2774,0.4256,0.5582,
19.948493,-0.2814,-0.8441,-0.0515,0.7485,0.5839,1.8277,-0.2774,0.4256,0.5582,
20.003072,-0.3542,-0.8148,-0.0733,0.7485,0.5839,1.8277,-0.2774,0.4256,0.5582,
20.005337,-0.3542,-0.8148,-0.0733,0.7485,0.5839,1.8277,-0.3727,0.7500,-0.3221,
20.006542,-0.3542,-0.8148,-0.0733,0.0420,0.8004,1.8590,-0.3727,0.7500,-0.3221,
20.063598,-0.3762,-0.9956,0.0344,0.0420,0.8004,1.8590,-0.3727,0.7500,-0.3221,
20.066963,-0.3762,-0.9956,0.0344,0.0420,0.8004,1.8590,-0.3214,0.6480,-0.1767,
20.069218,-0.3762,-0.9956,0.0344,-0.4438,-0.9722,3.2505,-0.3214,0.6480,-0.1767,
20.123677,-0.3762,-0.9956,0.0344,-0.4438,-0.9722,3.2505,-0.0190,0.6999,0.0860,
20.126991,-0.3880,-0.9135,0.0288,-0.4438,-0.9722,3.2505,-0.0190,0.6999,0.0860,
20.129174,-0.3880,-0.9135,0.0288,-0.7104,-0.1915,3.4229,-0.0190,0.6999,0.0860,
20.183622,-0.2533,-0.9448,0.0195,-0.7104,-0.1915,3.4229,-0.0190,0.6999,0.0860,
20.186963,-0.2533,-0.9448,0.0195,-0.7104,-0.1915,3.4229,0.3273,0.5961,-0.2793,
20.189128,-0.2533,-0.9448,0.0195,0.4748,-0.4544,3.3390,0.3273,0.5961,-0.2793,
20.246266,-0.2533,-0.9448,0.0195,0.4748,-0.4544,3.3390,0.3151,0.8887,-0.0961,
20.249784,-0.4950,-0.9973,0.0503,0.4748,-0.4544,3.3390,0.3151,0.8887,-0.0961,
20.251519,-0.4950,-0.9973,0.0503,-2.1728,-0.8561,3.5722,0.3151,0.8887,-0.0961,
20.305618,-0.4605,-0.8954,0.0225,-2.1728,-0.8561,3.5722,0.3151,0.8887,-0.0961,
20.308714,-0.4605,-0.8954,0.0225,-2.1728,-0.8561,3.5722,0.1361,0.8221,0.0579,
20.310183,-0.4605,-0.8954,0.0225,-1.9585,0.1898,3.2660,0.1361,0.8221,0.0579,
20.363820,-0.5285,-1.1512,-0.0730,-1.9585,0.1898,3.2660,0.1361,0.8221,0.0579,
20.366703,-0.5285,-1.1512,-0.0730,-1.9585,0.1898,3.2660,-0.0636,0.4775,-0.0472,
20.368269,-0.5285,-1.1512,-0.0730,-2.7866,-2.3086,2.4351,-0.0636,0.4775,-0.0472,
20.425684,-0.3816,-0.9687,-0.2814,-2.7866,-2.3086,2.4351,-0.0636,0.4775,-0.0472,
20.429042,-0.3816,-0.9687,-0.2814,-2.7866,-2.3086,2.4351,-0.1675,-0.0478,0.0896,
20.431014,-0.3816,-0.9687,-0.2814,-1.3503,-0.5511,0.4817,-0.1675,-0.0478,0.0896,
20.485411,0.1109,-0.8231,-0.0024,-1.3503,-0.5511,0.4817,-0.1675,-0.0478,0.0896,
20.489161,0.1109,-0.8231,-0.0024,-1.3503,-0.5511,0.4817,0.0176,-0.5090,-0.1394,
20.491223,0.1109,-0.8231,-0.0024,3.5346,0.8467,3.2527,0.0176,-0.5090,-0.1394,
20.545882,0.1109,-0.8231,-0.0024,3.5346,0.8467,3.2527,1.0781,0.0249,0.3877,
20.549473,-0.3960,-1.2658,-0.0704,3.5346,0.8467,3.2527,1.0781,0.0249,0.3877,
20.550886,-0.3960,-1.2658,-0.0704,-1.4214,-3.3803,2.2569,1.0781,0.0249,0.3877,
20.605169,-0.4395,-0.8673,0.0200,-1.4214,-3.3803,2.2569,1.0781,0.0249,0.3877,
20.607734,-0.4395,-0.8673,0.0200,-1.4214,-3.3803,2.2569,0.8478,-0.5053,0.3981,
20.609450,-0.4395,-0.8673,0.0200,-1.4830,0.5930,2.5451,0.8478,-0.5053,0.3981,
20.664908,-0.3291,-0.8360,0.0105,-1.4830,0.5930,2.5451,0.8478,-0.5053,0.3981,
20.667568,-0.3291,-0.8360,0.0105,-1.4830,0.5930,2.5451,0.2485,-0.6941,-0.3459,
20.669172,-0.3291,-0.8360,0.0105,-0.3723,0.9977,1.9893,0.2485,-0.6941,-0.3459,
20.723492,-0.3291,-0.8360,0.0105,-0.3723,0.9977,1.9893,0.1166,-0.6147,0.1385,
20.726263,-0.1608,-0.8070,0.1099,-0.3723,0.9977,1.9893,0.1166,-0.6147,0.1385,
20.727684,-0.1608,-0.8070,0.1099,1.2925,1.3185,2.7540,0.1166,-0.6147,0.1385,
20.785154,-0.2687,-0.8282,0.1820,1.2925,1.3185,2.7540,0.1166,-0.6147,0.1385,
20.787674,-0.2687,-0.8282,0.1820,1.2925,1.3185,2.7540,-0.0642,-0.3215,-0.0008,
20.789135,-0.2687,-0.8282,0.1820,0.3459,1.0978,3.3285,-0.0642,-0.3215,-0.0008,
20.844822,-0.2741,-0.8783,0.2189,0.3459,1.0978,3.3285,-0.0642,-0.3215,-0.0008,
20.847458,-0.2741,-0.8783,0.2189,0.3459,1.0978,3.3285,-0.0099,-0.1706,0.0475,
20.848996,-0.2741,-0.8783,0.2189,0.3132,0.6020,3.6809,-0.0099,-0.1706,0.0475,
20.905192,-0.3684,-1.0012,0.1766,0.3132,0.6020,3.6809,-0.0099,-0.1706,0.0475,
20.909201,-0.3684,-1.0012,0.1766,0.3132,0.6020,3.6809,0.0042,-0.3257,0.1202,
20.911193,-0.3684,-1.0012,0.1766,-0.5423,-0.6127,3.1918,0.0042,-0.3257,0.1202,
20.965432,-0.4302,-0.9738,0.3775,-0.5423,-0.6127,3.1918,0.0042,-0.3257,0.1202,
20.967851,-0.4302,-0.9738,0.3775,-0.5423,-0.6127,3.1918,-0.0129,-0.3056,0.1330,
20.969742,-0.4302,-0.9738,0.3775,-1.0789,-0.3569,5.0889,-0.0129,-0.3056,0.1330,
21.025765,-0.4339,-1.1668,0.4788,-1.0789,-0.3569,5.0889,-0.0129,-0.3056,0.1330,
21.029339,-0.4339,-1.1668,0.4788,-1.0789,-0.3569,5.0889,0.0983,-1.1748,0.6303,
21.031305,-0.4339,-1.1668,0.4788,-0.8790,-2.3136,5.9541,0.0983,-1.1748,0.6303,
21.084230,-0.4339,-1.1668,0.4788,-0.8790,-2.3136,5.9541,-0.4326,-0.0460,-0.2109,
21.087939,-0.1495,-0.9037,0.1854,-0.8790,-2.3136,5.9541,-0.4326,-0.0460,-0.2109,
21.090570,-0.1495,-0.9037,0.1854,2.0708,0.2287,2.8781,-0.4326,-0.0460,-0.2109,
21.145407,-0.2685,-0.9113,-0.0493,2.0708,0.2287,2.8781,-0.4326,-0.0460,-0.2109,
21.148545,-0.2685,-0.9113,-0.0493,2.0708,0.2287,2.8781,-0.4014,-0.5823,-0.1645,
21.150345,-0.2685,-0.9113,-0.0493,0.7754,0.1852,0.7273,-0.4014,-0.5823,-0.1645,
21.205657,-0.3880,-0.7982,-0.2008,0.7754,0.1852,0.7273,-0.4014,-0.5823,-0.1645,
21.208970,-0.3880,-0.7982,-0.2008,0.7754,0.1852,0.7273,-0.7294,-0.5676,-0.2494,
21.210697,-0.3880,-0.7982,-0.2008,-0.4061,1.2707,-0.5687,-0.7294,-0.5676,-0.2494,
21.264023,-0.2641,-1.1378,0.0464,-0.4061,1.2707,-0.5687,-0.7294,-0.5676,-0.2494,
21.267124,-0.2641,-1.1378,0.0464,-0.4061,1.2707,-0.5687,-0.3580,0.0127,-0.2677,
21.269341,-0.2641,-1.1378,0.0464,0.5968,-2.0250,2.1158,-0.3580,0.0127,-0.2677,
21.324280,-0.3608,-0.9167,-0.0420,0.5968,-2.0250,2.1158,-0.3580,0.0127,-0.2677,
21.327439,-0.3608,-0.9167,-0.0420,0.5968,-2.0250,2.1158,-0.2230,0.2185,0.8050,
21.328598,-0.3608,-0.9167,-0.0420,-0.2040,0.0620,1.3902,-0.2230,0.2185,0.8050,
21.383586,-0.3032,-0.7962,-0.0665,-0.2040,0.0620,1.3902,-0.2230,0.2185,0.8050,
21.385578,-0.3032,-0.7962,-0.0665,-0.2040,0.0620,1.3902,-0.2774,0.4262,0.2112,
21.386520,-0.3032,-0.7962,-0.0665,0.6897,1.0740,1.3406,-0.2774,0.4262,0.2112,
21.445070,-0.3775,-0.9018,0.0249,0.6897,1.0740,1.3406,-0.2774,0.4262,0.2112,
21.448027,-0.3775,-0.9018,0.0249,0.6897,1.0740,1.3406,-0.2371,0.5227,-0.2787,
21.449716,-0.3775,-0.9018,0.0249,-0.1350,0.0172,2.4950,-0.2371,0.5227,-0.2787,
21.506040,-0.4334,-0.9944,0.1195,-0.1350,0.0172,2.4950,-0.2371,0.5227,-0.2787,
21.508457,-0.4334,-0.9944,0.1195,-0.1350,0.0172,2.4950,0.1453,0.5185,0.0182,
21.509568,-0.4334,-0.9944,0.1195,-0.8659,-0.8531,3.5531,0.1453,0.5185,0.0182,
21.565245,-0.4378,-0.8185,0.0393,-0.8659,-0.8531,3.5531,0.1453,0.5185,0.0182,
21.569800,-0.4378,-0.8185,0.0393,-0.8659,-0.8531,3.5531,0.3109,0.4946,0.2051,
21.571596,-0.4378,-0.8185,0.0393,-0.8781,0.8689,2.7302,0.3109,0.4946,0.2051,
21.624075,-0.3078,-0.8424,0.0472,-0.8781,0.8689,2.7302,0.3109,0.4946,0.2051,
21.627216,-0.3078,-0.8424,0.0472,-0.8781,0.8689,2.7302,0.0964,0.3407,-0.2842,
21.628964,-0.3078,-0.8424,0.0472,0.3591,0.6654,2.7404,0.0964,0.3407,-0.2842,
21.684256,-0.5326,-0.9592,0.0980,0.3591,0.6654,2.7404,0.0964,0.3407,-0.2842,
21.687073,-0.5326,-0.9592,0.0980,0.3591,0.6654,2.7404,0.0292,0.5606,-0.1694,
21.688577,-0.5326,-0.9592,0.0980,-2.0599,-0.4135,3.2902,0.0292,0.5606,-0.1694,
21.744676,-0.5326,-0.9592,0.0980,-2.0599,-0.4135,3.2902,-0.1125,0.6840,-0.2085,
21.748145,-0.4625,-1.3269,0.0923,-2.0599,-0.4135,3.2902,-0.1125,0.6840,-0.2085,
21.750123,-0.4625,-1.3269,0.0923,-1.5386,-3.9907,3.3509,-0.1125,0.6840,-0.2085,
21.803596,-0.4625,-1.3269,0.0923,-1.5386,-3.9907,3.3509,-0.0758,0.4348,0.2967,
21.806370,-0.5253,-0.8969,-0.1793,-1.5386,-3.9907,3.3509,-0.0758,0.4348,0.2967,
21.808188,-0.5253,-0.8969,-0.1793,-2.2512,0.2202,0.8127,-0.0758,0.4348,0.2967,
21.864644,-0.5253,-0.8969,-0.1793,-2.2512,0.2202,0.8127,-0.0795,0.0652,-0.0527,
21.867955,-0.2934,-0.9746,-0.1586,-2.2512,0.2202,0.8127,-0.0795,0.0652,-0.0527,
21.869671,-0.2934,-0.9746,-0.1586,0.0699,-0.5839,1.1091,-0.0795,0.0652,-0.0527,
21.924026,-0.0760,-0.8290,-0.2118,0.0699,-0.5839,1.1091,-0.0795,0.0652,-0.0527,
21.926819,-0.0760,-0.8290,-0.2118,0.0699,-0.5839,1.1091,0.0769,-0.1058,-0.0154,
21.928028,-0.0760,-0.8290,-0.2118,2.1710,0.8526,0.5875,0.0769,-0.1058,-0.0154,
21.984808,-0.2226,-1.1375,0.0843,2.1710,0.8526,0.5875,0.0769,-0.1058,-0.0154,
21.987185,-0.2226,-1.1375,0.0843,2.1710,0.8526,0.5875,0.7250,0.0628,0.2411,
21.988569,-0.2226,-1.1375,0.0843,0.7768,-2.1351,3.3145,0.7250,0.0628,0.2411,
22.044490,-0.4041,-1.0694,-0.0459,0.7768,-2.1351,3.3145,0.7250,0.0628,0.2411,
22.047078,-0.4041,-1.0694,-0.0459,0.7768,-2.1351,3.3145,0.9981,0.1532,0.2442,
22.048504,-0.4041,-1.0694,-0.0459,-0.8687,-1.3917,1.5555,0.9981,0.1532,0.2442,
22.106258,-0.3604,-0.8871,0.0740,-0.8687,-1.3917,1.5555,0.9981,0.1532,0.2442,
22.109128,-0.3604,-0.8871,0.0740,-0.8687,-1.3917,1.5555,0.4288,-0.2256,-0.2243,
22.111048,-0.3604,-0.8871,0.0740,-0.4214,0.4747,2.2874,0.4288,-0.2256,-0.2243,
22.164128,-0.3604,-0.8871,0.0740,-0.4214,0.4747,2.2874,0.1313,-0.0228,0.1031,
22.167154,-0.2316,-0.8251,0.1109,-0.4214,0.4747,2.2874,0.1313,-0.0228,0.1031,
22.168814,-0.2316,-0.8251,0.1109,0.7985,1.1257,2.4691,0.1313,-0.0228,0.1031,
22.225268,-0.3142,-0.8265,0.1546,0.7985,1.1257,2.4691,0.1313,-0.0228,0.1031,
22.228036,-0.3142,-0.8265,0.1546,0.7985,1.1257,2.4691,-0.0239,0.1214,-0.0234,
22.229308,-0.3142,-0.8265,0.1546,0.0289,1.1062,2.8419,-0.0239,0.1214,-0.0234,
22.284563,-0.3699,-0.9360,0.2150,0.0289,1.1062,2.8419,-0.0239,0.1214,-0.0234,
22.287980,-0.3699,-0.9360,0.2150,0.0289,1.1062,2.8419,-0.0581,0.3193,-0.0240,
22.289041,-0.3699,-0.9360,0.2150,-0.5533,0.0351,3.5053,-0.0581,0.3193,-0.0240,
22.344372,-0.3572,-0.8876,0.1962,-0.5533,0.0351,3.5053,-0.0581,0.3193,-0.0240,
22.347440,-0.3572,-0.8876,0.1962,-0.5533,0.0351,3.5053,0.1294,0.1990,-0.0576,
22.349220,-0.3572,-0.8876,0.1962,-0.4790,0.5208,3.3538,0.1294,0.1990,-0.0576,
22.404875,-0.3946,-0.9418,0.1913,-0.4790,0.5208,3.3538,0.1294,0.1990,-0.0576,
22.408879,-0.3946,-0.9418,0.1913,-0.4790,0.5208,3.3538,0.2113,0.0732,0.1245,
22.410599,-0.3946,-0.9418,0.1913,-0.8318,0.0013,3.1953,0.2113,0.0732,0.1245,
22.464305,-0.3946,-0.9418,0.1913,-0.8318,0.0013,3.1953,-0.0294,-0.0673,0.1581,
22.467358,-0.4209,-0.8742,0.2780,-0.8318,0.0013,3.1953,-0.0294,-0.0673,0.1581,
22.469709,-0.4209,-0.8742,0.2780,-1.0245,0.6532,3.9691,-0.0294,-0.0673,0.1581,
22.524819,-0.2802,-1.3615,-0.0706,-1.0245,0.6532,3.9691,-0.0294,-0.0673,0.1581,
22.528072,-0.2802,-1.3615,-0.0706,-1.0245,0.6532,3.9691,0.1526,-0.2976,-0.2133,
22.529625,-0.2802,-1.3615,-0.0706,0.4794,-4.1559,0.4740,0.1526,-0.2976,-0.2133,
22.584007,-0.2118,-0.9628,0.2748,0.4794,-4.1559,0.4740,0.1526,-0.2976,-0.2133,
22.587004,-0.2118,-0.9628,0.2748,0.4794,-4.1559,0.4740,-0.0343,-0.1480,-0.4064,
22.588997,-0.2118,-0.9628,0.2748,0.8829,-0.1668,3.9191,-0.0343,-0.1480,-0.4064,
22.644845,-0.2414,-0.8820,-0.0801,0.8829,-0.1668,3.9191,-0.0343,-0.1480,-0.4064,
22.649129,-0.2414,-0.8820,-0.0801,0.8829,-0.1668,3.9191,0.0182,0.1526,0.1825,
22.650545,-0.2414,-0.8820,-0.0801,0.5585,0.6500,0.3347,0.0182,0.1526,0.1825,
22.704531,-0.1693,-0.8590,-0.1903,0.5585,0.6500,0.3347,0.0182,0.1526,0.1825,
22.707388,-0.1693,-0.8590,-0.1903,0.5585,0.6500,0.3347,-0.3257,0.2747,-0.2628,
22.710502,-0.1693,-0.8590,-0.1903,1.2709,0.8567,-0.6164,-0.3257,0.2747,-0.2628,
22.765511,-0.3442,-1.0855,-0.0354,1.2709,0.8567,-0.6164,-0.3257,0.2747,-0.2628,
22.768951,-0.3442,-1.0855,-0.0354,1.2709,0.8567,-0.6164,0.1154,0.2283,-0.5304,
22.770605,-0.3442,-1.0855,-0.0354,-0.7132,-1.2996,1.0282,0.1154,0.2283,-0.5304,
22.824329,-0.3814,-1.0623,0.0217,-0.7132,-1.2996,1.0282,0.1154,0.2283,-0.5304,
22.827091,-0.3814,-1.0623,0.0217,-0.7132,-1.2996,1.0282,0.2956,0.7274,0.3877,
22.828801,-0.3814,-1.0623,0.0217,-1.2085,-1.0270,1.5278,0.2956,0.7274,0.3877,
22.885114,-0.3672,-0.8478,-0.0274,-1.2085,-1.0270,1.5278,0.2956,0.7274,0.3877,
22.887955,-0.3672,-0.8478,-0.0274,-1.2085,-1.0270,1.5278,0.1759,0.8117,0.5356,
22.889808,-0.3672,-0.8478,-0.0274,-0.8226,1.0109,1.0039,0.1759,0.8117,0.5356,
22.945566,-0.3046,-0.7955,0.0161,-0.8226,1.0109,1.0039,0.1759,0.8117,0.5356,
22.948896,-0.3046,-0.7955,0.0161,-0.8226,1.0109,1.0039,0.0879,0.8209,-0.2188,
22.950605,-0.3046,-0.7955,0.0161,-0.1402,1.4934,1.4937,0.0879,0.8209,-0.2188,
23.005206,-0.3902,-1.0396,0.1043,-0.1402,1.4934,1.4937,0.0879,0.8209,-0.2188,
23.008752,-0.3902,-1.0396,0.1043,-0.1402,1.4934,1.4937,0.2437,0.9320,-0.5200,
23.010405,-0.3902,-1.0396,0.1043,-1.2866,-0.8207,2.4345,0.2437,0.9320,-0.5200,
23.064558,-0.3902,-1.0396,0.1043,-1.2866,-0.8207,2.4345,0.5039,1.1190,-0.0338,
23.068276,-0.3985,-0.9406,0.1156,-1.2866,-0.8207,2.4345,0.5039,1.1190,-0.0338,
23.070199,-0.3985,-0.9406,0.1156,-1.6092,0.2204,2.4800,0.5039,1.1190,-0.0338,
23.124071,-0.3975,-0.8632,0.1197,-1.6092,0.2204,2.4800,0.5039,1.1190,-0.0338,
23.127616,-0.3975,-0.8632,0.1197,-1.6092,0.2204,2.4800,0.4318,1.1208,-0.2030,
23.129058,-0.3975,-0.8632,0.1197,-1.7161,1.0240,2.3949,0.4318,1.1208,-0.2030,
23.185056,-0.5483,-0.8644,0.0090,-1.7161,1.0240,2.3949,0.4318,1.1208,-0.2030,
23.188420,-0.5483,-0.8644,0.0090,-1.7161,1.0240,2.3949,0.3365,1.0603,-0.2671,
23.190399,-0.5483,-0.8644,0.0090,-3.4097,1.0743,1.1853,0.3365,1.0603,-0.2671,
23.246502,-0.2001,-1.1155,-0.0239,-3.4097,1.0743,1.1853,0.3365,1.0603,-0.2671,
23.250176,-0.2001,-1.1155,-0.0239,-3.4097,1.0743,1.1853,0.1282,1.0933,-0.0741,
23.251978,-0.2001,-1.1155,-0.0239,-0.1666,-1.3523,0.8502,0.1282,1.0933,-0.0741,
23.306108,-0.3474,-1.0488,-0.0770,-0.1666,-1.3523,0.8502,0.1282,1.0933,-0.0741,
23.312364,-0.3474,-1.0488,-0.0770,-0.1666,-1.3523,0.8502,0.2675,1.1251,0.1807,
23.314631,-0.3474,-1.0488,-0.0770,-1.6392,-0.6938,0.3344,0.2675,1.1251,0.1807,
23.364897,-0.3100,-1.0075,-0.1156,-1.6392,-0.6938,0.3344,0.2675,1.1251,0.1807,
23.368536,-0.3100,-1.0075,-0.1156,-1.6392,-0.6938,0.3344,0.4727,1.0988,-0.0820,
23.370697,-0.3100,-1.0075,-0.1156,-1.2984,-0.2769,-0.1132,0.4727,1.0988,-0.0820,
23.424936,-0.2174,-0.9401,-0.0220,-1.2984,-0.2769,-0.1132,0.4727,1.0988,-0.0820,
23.428204,-0.2174,-0.9401,-0.0220,-1.2984,-0.2769,-0.1132,0.5912,1.1073,-0.1779,
23.429879,-0.2174,-0.9401,-0.0220,-0.5189,0.4259,0.5966,0.5912,1.1073,-0.1779,
23.484296,-0.2433,-0.9496,0.0569,-0.5189,0.4259,0.5966,0.5912,1.1073,-0.1779,
23.486764,-0.2433,-0.9496,0.0569,-0.5189,0.4259,0.5966,0.6254,1.0029,-0.1150,
23.488066,-0.2433,-0.9496,0.0569,-0.9027,0.3706,1.1283,0.6254,1.0029,-0.1150,
23.545267,-0.2631,-0.9785,0.1031,-0.9027,0.3706,1.1283,0.6254,1.0029,-0.1150,
23.548237,-0.2631,-0.9785,0.1031,-0.9027,0.3706,1.1283,0.6010,1.0066,-0.1095,
23.550039,-0.2631,-0.9785,0.1031,-1.1682,0.1116,1.2903,0.6010,1.0066,-0.1095,
23.607091,-0.3049,-0.9360,0.1652,-1.1682,0.1116,1.2903,0.6010,1.0066,-0.1095,
23.610445,-0.3049,-0.9360,0.1652,-1.1682,0.1116,1.2903,0.4495,0.9656,-0.2072,
23.612133,-0.3049,-0.9360,0.1652,-1.6643,0.5443,1.6537,0.4495,0.9656,-0.2072,
23.665046,-0.3049,-0.9360,0.1652,-1.6643,0.5443,1.6537,0.2119,1.0847,-0.2176,
23.668367,-0.2272,-0.9162,0.0933,-1.6643,0.5443,1.6537,0.2119,1.0847,-0.2176,
23.670186,-0.2272,-0.9162,0.0933,-1.0173,0.7527,0.8115,0.2119,1.0847,-0.2176,
23.724865,-0.2868,-0.8949,0.1527,-1.0173,0.7527,0.8115,0.2119,1.0847,-0.2176,
23.729211,-0.2868,-0.8949,0.1527,-1.0173,0.7527,0.8115,0.1661,0.9412,-0.0857,
23.731052,-0.2868,-0.8949,0.1527,-1.6883,0.9710,1.3631,0.1661,0.9412,-0.0857,
23.785831,-0.3733,-0.9015,0.1229,-1.6883,0.9710,1.3631,0.1661,0.9412,-0.0857,
23.790305,-0.3733,-0.9015,0.1229,-1.6883,0.9710,1.3631,0.1306,0.8520,0.0878,
23.792159,-0.3733,-0.9015,0.1229,-2.5276,0.9050,1.0419,0.1306,0.8520,0.0878,
23.845393,-0.3733,-0.9015,0.1229,-2.5276,0.9050,1.0419,0.3609,0.4855,0.2760,
23.848377,-0.3669,-1.1070,0.1024,-2.5276,0.9050,1.0419,0.3609,0.4855,0.2760,
23.850200,-0.3669,-1.1070,0.1024,-2.3263,-1.1273,0.7633,0.3609,0.4855,0.2760,
23.904993,-0.3095,-0.8874,0.0056,-2.3263,-1.1273,0.7633,0.3609,0.4855,0.2760,
23.908784,-0.3095,-0.8874,0.0056,-2.3263,-1.1273,0.7633,0.3451,0.3572,-0.0002,
23.910704,-0.3095,-0.8874,0.0056,-1.6241,0.9992,-0.3758,0.3451,0.3572,-0.0002,
23.964878,-0.2785,-0.8966,0.0958,-1.6241,0.9992,-0.3758,0.3451,0.3572,-0.0002,
23.968504,-0.2785,-0.8966,0.0958,-1.6241,0.9992,-0.3758,-0.0514,-0.0936,-0.1602,
23.970027,-0.2785,-0.8966,0.0958,-1.3441,0.9043,0.3649,-0.0514,-0.0936,-0.1602,
24.025793,-0.3159,-0.9902,0.1246,-1.3441,0.9043,0.3649,-0.0514,-0.0936,-0.1602,
24.029954,-0.3159,-0.9902,0.1246,-1.3441,0.9043,0.3649,-0.0581,0.0078,-0.0276,
24.031248,-0.3159,-0.9902,0.1246,-1.7741,-0.0015,0.6871,-0.0581,0.0078,-0.0276,
24.085139,-0.3425,-0.9602,0.0931,-1.7741,-0.0015,0.6871,-0.0581,0.0078,-0.0276,
24.089857,-0.3425,-0.9602,0.0931,-1.7741,-0.0015,0.6871,0.0635,0.2448,0.1361,
24.091748,-0.3425,-0.9602,0.0931,-1.9797,0.2856,0.3840,0.0635,0.2448,0.1361,
24.143276,-0.2700,-0.9360,0.1019,-1.9797,0.2856,0.3840,0.0635,0.2448,0.1361,
24.145842,-0.2700,-0.9360,0.1019,-1.9797,0.2856,0.3840,0.1563,-0.0057,-0.0582,
24.147068,-0.2700,-0.9360,0.1019,-1.2134,0.5111,0.4097,0.1563,-0.0057,-0.0582,
24.204319,-0.3159,-0.9663,0.1036,-1.2134,0.5111,0.4097,0.1563,-0.0057,-0.0582,
24.206494,-0.3159,-0.9663,0.1036,-1.2134,0.5111,0.4097,0.1123,0.1764,0.0182,
24.209447,-0.3159,-0.9663,0.1036,-1.6872,0.2132,0.3564,0.1123,0.1764,0.0182,
24.262797,-0.3254,-0.9506,0.1258,-1.6872,0.2132,0.3564,0.1123,0.1764,0.0182,
24.264906,-0.3254,-0.9506,0.1258,-1.6872,0.2132,0.3564,0.1636,0.2204,0.0719,
24.265829,-0.3254,-0.9506,0.1258,-1.7270,0.3545,0.5183,0.1636,0.2204,0.0719,
24.323342,-0.3254,-0.9506,0.1258,-1.7270,0.3545,0.5183,0.1569,0.1269,-0.0185,
24.325687,-0.3491,-0.9303,0.1217,-1.7270,0.3545,0.5183,0.1569,0.1269,-0.0185,
24.327481,-0.3491,-0.9303,0.1217,-1.9263,0.5410,0.3865,0.1569,0.1269,-0.0185,
24.384824,-0.3775,-0.9340,0.1302,-1.9263,0.5410,0.3865,0.1569,0.1269,-0.0185,
24.387462,-0.3775,-0.9340,0.1302,-1.9263,0.5410,0.3865,0.0641,0.0994,-0.0472,
24.389159,-0.3775,-0.9340,0.1302,-2.2095,0.5017,0.4210,0.0641,0.0994,-0.0472,
24.444532,-0.3579,-0.9321,0.1256,-2.2095,0.5017,0.4210,0.0641,0.0994,-0.0472,
24.447419,-0.3579,-0.9321,0.1256,-2.2095,0.5017,0.4210,0.0659,0.0438,-0.0441,
24.448977,-0.3579,-0.9321,0.1256,-2.0276,0.5201,0.3509,0.0659,0.0438,-0.0441,
24.505871,-0.5544,-0.8177,-0.4317,-2.0276,0.5201,0.3509,0.0659,0.0438,-0.0441,
24.509343,-0.5544,-0.8177,-0.4317,-2.0276,0.5201,0.3509,0.0806,0.5515,-0.1859,
24.511082,-0.5544,-0.8177,-0.4317,-3.9475,1.6341,-5.1712,0.0806,0.5515,-0.1859,
24.564546,-0.3840,-0.9494,0.1156,-3.9475,1.6341,-5.1712,0.0806,0.5515,-0.1859,
24.567700,-0.3840,-0.9494,0.1156,-3.9475,1.6341,-5.1712,-0.0789,-0.0967,-0.0399,
24.570124,-0.3840,-0.9494,0.1156,-2.2961,0.3512,0.2434,-0.0789,-0.0967,-0.0399,
24.624746,-0.3840,-0.9494,0.1156,-2.2961,0.3512,0.2434,-0.0502,-0.1388,-0.0057,
24.627342,-0.3584,-0.9416,0.1043,-2.2961,0.3512,0.2434,-0.0502,-0.1388,-0.0057,
24.628508,-0.3584,-0.9416,0.1043,-2.0438,0.4298,0.1563,-0.0502,-0.1388,-0.0057,
24.686016,-0.3171,-0.9560,0.1148,-2.0438,0.4298,0.1563,-0.0502,-0.1388,-0.0057,
24.690428,-0.3171,-0.9560,0.1148,-2.0438,0.4298,0.1563,-0.0355,-0.1064,0.0121,
24.692133,-0.3171,-0.9560,0.1148,-1.6358,0.2893,0.2745,-0.0355,-0.1064,0.0121,
24.745503,-0.2998,-0.9536,0.0999,-1.6358,0.2893,0.2745,-0.0355,-0.1064,0.0121,
24.749170,-0.2998,-0.9536,0.0999,-1.6358,0.2893,0.2745,0.0323,-0.0374,-0.0081,
24.750405,-0.2998,-0.9536,0.0999,-1.4523,0.3105,0.1207,0.0323,-0.0374,-0.0081,
24.805681,-0.3247,-0.9540,0.1165,-1.4523,0.3105,0.1207,0.0323,-0.0374,-0.0081,
24.810885,-0.3247,-0.9540,0.1165,-1.4523,0.3105,0.1207,0.0445,0.0060,-0.0215,
24.812320,-0.3247,-0.9540,0.1165,-1.5376,0.2765,0.2460,0.0445,0.0060,-0.0215,
24.864689,-0.3413,-0.9391,0.1207,-1.5376,0.2765,0.2460,0.0445,0.0060,-0.0215,
24.868967,-0.3413,-0.9391,0.1207,-1.5376,0.2765,0.2460,0.0512,-0.0038,0.0066,
24.870445,-0.3413,-0.9391,0.1207,-1.6969,0.4189,0.2542,0.0512,-0.0038,0.0066,
24.925363,-0.3398,-0.9423,0.1146,-1.6969,0.4189,0.2542,0.0512,-0.0038,0.0066,
24.928616,-0.3398,-0.9423,0.1146,-1.6969,0.4189,0.2542,0.0268,-0.0460,-0.0124,
24.930153,-0.3398,-0.9423,0.1146,-1.2388,0.2930,0.1135,0.0268,-0.0460,-0.0124,
24.985123,-0.3345,-0.9518,0.1165,-1.2388,0.2930,0.1135,0.0268,-0.0460,-0.0124,
24.988463,-0.3345,-0.9518,0.1165,-1.2388,0.2930,0.1135,0.0164,-0.0478,-0.0105,
24.990524,-0.3345,-0.9518,0.1165,-0.6369,0.0544,0.0630,0.0164,-0.0478,-0.0105,
25.044686,-0.3293,-0.9382,0.1151,-0.6369,0.0544,0.0630,0.0164,-0.0478,-0.0105,
25.048476,-0.3293,-0.9382,0.1151,-0.6369,0.0544,0.0630,0.0237,-0.0191,-0.0087,
25.050260,-0.3293,-0.9382,0.1151,-0.3112,0.1026,0.0147,0.0237,-0.0191,-0.0087,
25.105015,-0.3374,-0.9475,0.1170,-0.3112,0.1026,0.0147,0.0237,-0.0191,-0.0087,
25.110175,-0.3374,-0.9475,0.1170,-0.3112,0.1026,0.0147,0.0354,0.0133,-0.0044,
25.112958,-0.3374,-0.9475,0.1170,-0.2465,-0.0371,0.0141,0.0354,0.0133,-0.0044,
25.163583,-0.3345,-0.9369,0.1261,-0.2465,-0.0371,0.0141,0.0354,0.0133,-0.0044,
25.166292,-0.3345,-0.9369,0.1261,-0.2465,-0.0371,0.0141,0.0427,0.0279,0.0053,
25.167530,-0.3345,-0.9369,0.1261,-0.1286,0.0346,0.0924,0.0427,0.0279,0.0053,
25.224203,-0.3359,-0.9387,0.1297,-0.1286,0.0346,0.0924,0.0427,0.0279,0.0053,
25.226853,-0.3359,-0.9387,0.1297,-0.1286,0.0346,0.0924,0.0354,0.0389,0.0005,
25.228308,-0.3359,-0.9387,0.1297,-0.0864,-0.0057,0.0962,0.0354,0.0389,0.0005,
25.284612,-0.3359,-0.9394,0.1263,-0.0864,-0.0057,0.0962,0.0354,0.0389,0.0005,
25.287645,-0.3359,-0.9394,0.1263,-0.0864,-0.0057,0.0962,0.0299,0.0255,0.0011,
25.289454,-0.3359,-0.9394,0.1263,-0.0506,-0.0304,0.0246,0.0299,0.0255,0.0011,
25.343357,-0.3401,-0.9401,0.1368,-0.0506,-0.0304,0.0246,0.0299,0.0255,0.0011,
25.345840,-0.3401,-0.9401,0.1368,-0.0506,-0.0304,0.0246,0.0030,0.0286,0.0029,
25.347089,-0.3401,-0.9401,0.1368,-0.0779,-0.0444,0.1121,0.0030,0.0286,0.0029,
25.404244,-0.3401,-0.9401,0.1368,-0.0779,-0.0444,0.1121,-0.0208,0.0261,0.0023,
25.407066,-0.3364,-0.9328,0.1307,-0.0779,-0.0444,0.1121,-0.0208,0.0261,0.0023,
25.409456,-0.3364,-0.9328,0.1307,-0.0238,0.0185,0.0345,-0.0208,0.0261,0.0023,
25.463414,-0.3389,-0.9428,0.1307,-0.0238,0.0185,0.0345,-0.0208,0.0261,0.0023,
25.465775,-0.3389,-0.9428,0.1307,-0.0238,0.0185,0.0345,-0.0263,0.0182,-0.0002,
25.466856,-0.3389,-0.9428,0.1307,-0.0373,-0.0838,0.0315,-0.0263,0.0182,-0.0002,
25.524047,-0.3418,-0.9409,0.1292,-0.0373,-0.0838,0.0315,-0.0263,0.0182,-0.0002,
25.527537,-0.3418,-0.9409,0.1292,-0.0373,-0.0838,0.0315,-0.0245,0.0047,-0.0032,
25.529390,-0.3418,-0.9409,0.1292,-0.0574,-0.0678,0.0162,-0.0245,0.0047,-0.0032,
25.584457,-0.3418,-0.9409,0.1292,-0.0574,-0.0678,0.0162,0.0195,0.0090,-0.0099,
25.585766,-0.3362,-0.9423,0.1248,-0.0574,-0.0678,0.0162,0.0195,0.0090,-0.0099,
25.586639,-0.3362,-0.9423,0.1248,0.0126,-0.0885,-0.0339,0.0195,0.0090,-0.0099,
25.643055,-0.3349,-0.9401,0.1204,0.0126,-0.0885,-0.0339,0.0195,0.0090,-0.0099,
25.644458,-0.3349,-0.9401,0.1204,0.0126,-0.0885,-0.0339,-0.0477,-0.0417,0.0200,
25.645294,-0.3349,-0.9401,0.1204,0.0233,-0.0643,-0.0604,-0.0477,-0.0417,0.0200,
