
time,gFx,gFy,gFz,ax,ay,az,wx,wy,wz,
0.052574,0.0000,0.0000,0.0000,-3.4165,-0.7960,1.4300,0.0000,0.0000,0.0000,
0.113103,0.0000,0.0000,0.0000,-3.3603,-0.7521,1.3746,0.0000,0.0000,0.0000,
0.171226,0.0000,0.0000,0.0000,-3.3897,-0.6808,1.3535,0.0000,0.0000,0.0000,
0.231041,0.0000,0.0000,0.0000,-3.4200,-0.5456,1.3013,0.0000,0.0000,0.0000,
0.291485,0.0000,0.0000,0.0000,-3.4200,-0.5456,1.3013,-0.1485,0.0707,-0.0808,
0.292461,0.0000,0.0000,0.0000,-3.4168,-0.3984,1.2272,-0.1485,0.0707,-0.0808,
0.351137,0.0000,0.0000,0.0000,-3.3540,-0.2618,1.1289,-0.1485,0.0707,-0.0808,
0.352142,0.0000,0.0000,0.0000,-3.3540,-0.2618,1.1289,-0.0795,0.1141,-0.0173,
0.412136,0.0000,0.0000,0.0000,-3.3540,-0.2618,1.1289,-0.0318,0.1269,0.0243,
0.413767,0.0000,0.0000,0.0000,-3.2927,-0.1492,1.0457,-0.0318,0.1269,0.0243,
0.438915,-0.2169,-0.9768,0.1077,-3.2927,-0.1492,1.0457,-0.0318,0.1269,0.0243,
0.471150,-0.2169,-0.9768,0.1077,-6.3402,-12.9923,-7.1121,-0.0318,0.1269,0.0243,
0.472192,-0.2169,-0.9768,0.1077,-6.3402,-12.9923,-7.1121,-0.0172,0.1636,0.1263,
0.498417,-0.2211,-0.9352,0.1801,-6.3402,-12.9923,-7.1121,-0.0172,0.1636,0.1263,
0.499410,-0.2201,-0.9340,0.1742,-6.3402,-12.9923,-7.1121,-0.0172,0.1636,0.1263,
0.500147,-0.2187,-0.9299,0.1625,-6.3402,-12.9923,-7.1121,-0.0172,0.1636,0.1263,
0.531121,-0.2187,-0.9299,0.1625,-6.3402,-12.9923,-7.1121,-0.1216,0.1067,0.1947,
0.532240,-0.2187,-0.9299,0.1625,-6.3047,-12.3757,-6.6663,-0.1216,0.1067,0.1947,
0.558593,-0.2353,-0.9394,0.1820,-6.3047,-12.3757,-6.6663,-0.1216,0.1067,0.1947,
0.559546,-0.2448,-0.9428,0.1871,-6.3047,-12.3757,-6.6663,-0.1216,0.1067,0.1947,
0.560221,-0.2592,-0.9443,0.1749,-6.3047,-12.3757,-6.6663,-0.1216,0.1067,0.1947,
0.590048,-0.2592,-0.9443,0.1749,-6.3047,-12.3757,-6.6663,-0.1956,-0.0826,0.2167,
0.590956,-0.2592,-0.9443,0.1749,-6.7143,-12.3046,-6.6189,-0.1956,-0.0826,0.2167,
0.619498,-0.2631,-0.9594,0.1945,-6.7143,-12.3046,-6.6189,-0.1956,-0.0826,0.2167,
0.620674,-0.2783,-0.9675,0.2040,-6.7143,-12.3046,-6.6189,-0.1956,-0.0826,0.2167,
0.621520,-0.2700,-0.9609,0.2062,-6.7143,-12.3046,-6.6189,-0.1956,-0.0826,0.2167,
0.650684,-0.2700,-0.9609,0.2062,-6.7143,-12.3046,-6.6189,-0.1638,-0.3105,0.2534,
0.651780,-0.2700,-0.9609,0.2062,-6.9313,-12.2240,-6.3412,-0.1638,-0.3105,0.2534,
0.677813,-0.2651,-0.9729,0.2494,-6.9313,-12.2240,-6.3412,-0.1638,-0.3105,0.2534,
0.678754,-0.2402,-1.1143,0.2812,-6.9313,-12.2240,-6.3412,-0.1638,-0.3105,0.2534,
0.679467,-0.2287,-1.2870,0.0660,-6.9313,-12.2240,-6.3412,-0.1638,-0.3105,0.2534,
0.710936,-0.2287,-1.2870,0.0660,-6.7003,-15.2934,-7.6662,-0.1638,-0.3105,0.2534,
0.714430,-0.2287,-1.2870,0.0660,-6.7003,-15.2934,-7.6662,-0.1943,0.0719,-0.2995,
0.737892,-0.2211,-1.2396,-0.0044,-6.7003,-15.2934,-7.6662,-0.1943,0.0719,-0.2995,
0.740362,-0.1195,-1.0244,0.1468,-6.7003,-15.2934,-7.6662,-0.1943,0.0719,-0.2995,
0.742120,-0.0936,-0.9523,0.2223,-6.7003,-15.2934,-7.6662,-0.1943,0.0719,-0.2995,
0.772584,-0.0936,-0.9523,0.2223,-6.7003,-15.2934,-7.6662,0.0079,0.0273,0.1581,
0.773744,-0.0936,-0.9523,0.2223,-5.3094,-11.9707,-6.1830,0.0079,0.0273,0.1581,
0.800154,-0.1187,-0.9409,0.1786,-5.3094,-11.9707,-6.1830,0.0079,0.0273,0.1581,
0.801541,-0.2023,-0.9599,0.0909,-5.3094,-11.9707,-6.1830,0.0079,0.0273,0.1581,
0.802408,-0.2592,-0.9511,-0.0315,-5.3094,-11.9707,-6.1830,0.0079,0.0273,0.1581,
0.831298,-0.2592,-0.9511,-0.0315,-5.3094,-11.9707,-6.1830,-0.4759,0.1935,0.2570,
0.832867,-0.2592,-0.9511,-0.0315,-6.9029,-11.7016,-8.7628,-0.4759,0.1935,0.2570,
0.860684,-0.2775,-0.9172,-0.1507,-6.9029,-11.7016,-8.7628,-0.4759,0.1935,0.2570,
0.863292,-0.2961,-0.8739,-0.2062,-6.9029,-11.7016,-8.7628,-0.4759,0.1935,0.2570,
0.865042,-0.3225,-0.8666,-0.2101,-6.9029,-11.7016,-8.7628,-0.4759,0.1935,0.2570,
0.893004,-0.3225,-0.8666,-0.2101,-7.4682,-10.4971,-10.6377,-0.4759,0.1935,0.2570,
0.895718,-0.3225,-0.8666,-0.2101,-7.4682,-10.4971,-10.6377,-0.3354,0.0341,-0.0735,
0.918185,-0.3552,-0.8888,-0.2001,-7.4682,-10.4971,-10.6377,-0.3354,0.0341,-0.0735,
0.919521,-0.3445,-0.9335,-0.1590,-7.4682,-10.4971,-10.6377,-0.3354,0.0341,-0.0735,
0.920678,-0.3254,-0.9714,-0.1094,-7.4682,-10.4971,-10.6377,-0.3354,0.0341,-0.0735,
0.950355,-0.3254,-0.9714,-0.1094,-7.4682,-10.4971,-10.6377,-0.2591,0.1788,0.2857,
0.952957,-0.3254,-0.9714,-0.1094,-7.4503,-11.2859,-9.7267,-0.2591,0.1788,0.2857,
0.977768,-0.3127,-1.0005,-0.0818,-7.4503,-11.2859,-9.7267,-0.2591,0.1788,0.2857,
0.979598,-0.2985,-1.0173,-0.0816,-7.4503,-11.2859,-9.7267,-0.2591,0.1788,0.2857,
0.980811,-0.2875,-1.0007,-0.0975,-7.4503,-11.2859,-9.7267,-0.2591,0.1788,0.2857,
1.010687,-0.2875,-1.0007,-0.0975,-7.4503,-11.2859,-9.7267,-0.1491,0.4342,0.6767,
1.013468,-0.2875,-1.0007,-0.0975,-6.9410,-11.2421,-9.7366,-0.1491,0.4342,0.6767,
1.038699,-0.2873,-0.9628,-0.0875,-6.9410,-11.2421,-9.7366,-0.1491,0.4342,0.6767,
1.041364,-0.3051,-0.9362,-0.0945,-6.9410,-11.2421,-9.7366,-0.1491,0.4342,0.6767,
1.043539,-0.3025,-0.8971,-0.1112,-6.9410,-11.2421,-9.7366,-0.1491,0.4342,0.6767,
1.073104,-0.3025,-0.8971,-0.1112,-6.8869,-9.9170,-10.0065,-0.1491,0.4342,0.6767,
1.074522,-0.3025,-0.8971,-0.1112,-6.8869,-9.9170,-10.0065,-0.1442,0.4189,0.3254,
1.098677,-0.3193,-0.8580,-0.1165,-6.8869,-9.9170,-10.0065,-0.1442,0.4189,0.3254,
1.100141,-0.3594,-0.8492,-0.0831,-6.8869,-9.9170,-10.0065,-0.1442,0.4189,0.3254,
1.101126,-0.3760,-0.8485,-0.0784,-6.8869,-9.9170,-10.0065,-0.1442,0.4189,0.3254,
1.131239,-0.3760,-0.8485,-0.0784,-7.3704,-9.2173,-9.8113,-0.1442,0.4189,0.3254,
1.132618,-0.3760,-0.8485,-0.0784,-7.3704,-9.2173,-9.8113,-0.1479,0.3939,0.1385,
1.158039,-0.3665,-0.8856,-0.0811,-7.3704,-9.2173,-9.8113,-0.1479,0.3939,0.1385,
1.159149,-0.3777,-0.9462,-0.0362,-7.3704,-9.2173,-9.8113,-0.1479,0.3939,0.1385,
1.159795,-0.3953,-0.9665,0.0112,-7.3704,-9.2173,-9.8113,-0.1479,0.3939,0.1385,
1.190395,-0.3953,-0.9665,0.0112,-7.3704,-9.2173,-9.8113,0.1233,0.4641,0.2870,
1.191570,-0.3953,-0.9665,0.0112,-7.3143,-10.2190,-9.0427,0.1233,0.4641,0.2870,
1.217924,-0.4134,-0.9597,0.0432,-7.3143,-10.2190,-9.0427,0.1233,0.4641,0.2870,
1.219760,-0.4500,-0.9362,0.0127,-7.3143,-10.2190,-9.0427,0.1233,0.4641,0.2870,
1.220693,-0.4776,-0.8781,-0.0393,-7.3143,-10.2190,-9.0427,0.1233,0.4641,0.2870,
1.249721,-0.4776,-0.8781,-0.0393,-7.3143,-10.2190,-9.0427,0.1636,0.4372,-0.1889,
1.250860,-0.4776,-0.8781,-0.0393,-7.8551,-9.3014,-9.6379,0.1636,0.4372,-0.1889,
1.277778,-0.4266,-0.8331,-0.0601,-7.8551,-9.3014,-9.6379,0.1636,0.4372,-0.1889,
1.280155,-0.3315,-0.8534,-0.0208,-7.8551,-9.3014,-9.6379,0.1636,0.4372,-0.1889,
1.281175,-0.3152,-0.9037,0.0088,-7.8551,-9.3014,-9.6379,0.1636,0.4372,-0.1889,
1.310178,-0.3152,-0.9037,0.0088,-5.9104,-9.6372,-9.2732,0.1636,0.4372,-0.1889,
1.312815,-0.3152,-0.9037,0.0088,-5.9104,-9.6372,-9.2732,0.1252,0.6785,-0.3636,
1.337806,-0.3753,-0.9399,-0.0149,-5.9104,-9.6372,-9.2732,0.1252,0.6785,-0.3636,
1.338829,-0.4632,-0.9812,-0.0169,-5.9104,-9.6372,-9.2732,0.1252,0.6785,-0.3636,
1.339654,-0.5150,-0.9953,-0.0064,-5.9104,-9.6372,-9.2732,0.1252,0.6785,-0.3636,
1.369265,-0.5150,-0.9953,-0.0064,-5.9104,-9.6372,-9.2732,0.2828,0.8294,-0.0570,
1.370593,-0.5150,-0.9953,-0.0064,-7.4487,-10.5893,-9.5336,0.2828,0.8294,-0.0570,
1.399970,-0.4840,-0.9457,0.0056,-7.4487,-10.5893,-9.5336,0.2828,0.8294,-0.0570,
1.401675,-0.4598,-0.9328,0.0696,-7.4487,-10.5893,-9.5336,0.2828,0.8294,-0.0570,
1.403394,-0.4615,-0.8952,-0.1967,-7.4487,-10.5893,-9.5336,0.2828,0.8294,-0.0570,
1.429467,-0.4615,-0.8952,-0.1967,-7.4487,-10.5893,-9.5336,0.0347,0.6944,-0.0246,
1.431257,-0.4615,-0.8952,-0.1967,-6.4361,-9.5578,-11.5134,0.0347,0.6944,-0.0246,
1.457320,-0.4889,-1.1874,-0.0828,-6.4361,-9.5578,-11.5134,0.0347,0.6944,-0.0246,
1.459575,-0.5600,-1.3015,-0.1524,-6.4361,-9.5578,-11.5134,0.0347,0.6944,-0.0246,
1.461189,-0.4461,-1.1292,-0.2103,-6.4361,-9.5578,-11.5134,0.0347,0.6944,-0.0246,
1.489663,-0.4461,-1.1292,-0.2103,-5.9651,-11.8800,-11.7035,0.0347,0.6944,-0.0246,
1.491681,-0.4461,-1.1292,-0.2103,-5.9651,-11.8800,-11.7035,0.1001,0.3499,0.2802,
1.517770,-0.4310,-1.0256,-0.2614,-5.9651,-11.8800,-11.7035,0.1001,0.3499,0.2802,
1.520007,-0.3845,-0.9511,-0.3264,-5.9651,-11.8800,-11.7035,0.1001,0.3499,0.2802,
1.522170,-0.2338,-0.8497,-0.3948,-5.9651,-11.8800,-11.7035,0.1001,0.3499,0.2802,
1.550774,-0.2338,-0.8497,-0.3948,-5.9651,-11.8800,-11.7035,0.2382,-0.1486,-0.3477,
1.553026,-0.2338,-0.8497,-0.3948,-3.7913,-9.1314,-13.5269,0.2382,-0.1486,-0.3477,
1.577952,-0.0787,-0.7579,-0.3213,-3.7913,-9.1314,-13.5269,0.2382,-0.1486,-0.3477,
1.580116,0.0718,-0.7515,-0.1346,-3.7913,-9.1314,-13.5269,0.2382,-0.1486,-0.3477,
1.581774,0.0623,-0.9387,-0.0574,-3.7913,-9.1314,-13.5269,0.2382,-0.1486,-0.3477,
1.610236,0.0623,-0.9387,-0.0574,-3.7913,-9.1314,-13.5269,0.6028,-0.1975,0.3303,
1.612709,0.0623,-0.9387,-0.0574,-0.9915,-10.1595,-10.1897,0.6028,-0.1975,0.3303,
1.638596,-0.1349,-1.1573,-0.0352,-0.9915,-10.1595,-10.1897,0.6028,-0.1975,0.3303,
1.640649,-0.2770,-1.2599,-0.1031,-0.9915,-10.1595,-10.1897,0.6028,-0.1975,0.3303,
1.642215,-0.3757,-1.2177,-0.0948,-0.9915,-10.1595,-10.1897,0.6028,-0.1975,0.3303,
1.671221,-0.3757,-1.2177,-0.0948,-0.9915,-10.1595,-10.1897,0.6743,-0.2616,0.3590,
1.673723,-0.3757,-1.2177,-0.0948,-5.4398,-13.1739,-10.4967,0.6743,-0.2616,0.3590,
1.701626,-0.4437,-1.0630,-0.1908,-5.4398,-13.1739,-10.4967,0.6743,-0.2616,0.3590,
1.703527,-0.3457,-0.8974,-0.0589,-5.4398,-13.1739,-10.4967,0.6743,-0.2616,0.3590,
1.706288,-0.2873,-0.8937,-0.0181,-5.4398,-13.1739,-10.4967,0.6743,-0.2616,0.3590,
1.729609,-0.2873,-0.8937,-0.0181,-5.4398,-13.1739,-10.4967,0.4330,-0.0160,-0.5255,
1.731390,-0.2873,-0.8937,-0.0181,-4.5567,-10.3316,-9.6989,0.4330,-0.0160,-0.5255,
1.757333,-0.2741,-0.8827,-0.0980,-4.5567,-10.3316,-9.6989,0.4330,-0.0160,-0.5255,
1.759141,-0.2704,-0.8395,-0.0672,-4.5567,-10.3316,-9.6989,0.4330,-0.0160,-0.5255,
1.760644,-0.2568,-0.8329,0.0315,-4.5567,-10.3316,-9.6989,0.4330,-0.0160,-0.5255,
1.792948,-0.2568,-0.8329,0.0315,-4.3085,-9.7960,-9.1932,0.4330,-0.0160,-0.5255,
1.794947,-0.2568,-0.8329,0.0315,-4.3085,-9.7960,-9.1932,0.0854,-0.3331,-0.0838,
1.817741,-0.2145,-0.8282,0.0523,-4.3085,-9.7960,-9.1932,0.0854,-0.3331,-0.0838,
1.818867,-0.1952,-0.8475,0.0530,-4.3085,-9.7960,-9.1932,0.0854,-0.3331,-0.0838,
1.819629,-0.2160,-0.8539,0.0948,-4.3085,-9.7960,-9.1932,0.0854,-0.3331,-0.0838,
1.851592,-0.2160,-0.8539,0.0948,-4.3085,-9.7960,-9.1932,-0.0001,-0.2323,-0.0441,
1.852818,-0.2160,-0.8539,0.0948,-4.0773,-9.9490,-8.5487,-0.0001,-0.2323,-0.0441,
1.876156,-0.2568,-0.8448,0.0941,-4.0773,-9.9490,-8.5487,-0.0001,-0.2323,-0.0441,
1.877930,-0.3039,-0.8392,0.1314,-4.0773,-9.9490,-8.5487,-0.0001,-0.2323,-0.0441,
1.879239,-0.3235,-0.8524,0.1483,-4.0773,-9.9490,-8.5487,-0.0001,-0.2323,-0.0441,
1.909269,-0.3235,-0.8524,0.1483,-4.0773,-9.9490,-8.5487,0.0744,-0.4614,0.1208,
1.911583,-0.3235,-0.8524,0.1483,-5.2534,-9.8893,-8.0057,0.0744,-0.4614,0.1208,
1.936329,-0.3147,-0.8588,0.1678,-5.2534,-9.8893,-8.0057,0.0744,-0.4614,0.1208,
1.938361,-0.3088,-0.8575,0.1515,-5.2534,-9.8893,-8.0057,0.0744,-0.4614,0.1208,
1.939733,-0.3044,-0.8695,0.1092,-5.2534,-9.8893,-8.0057,0.0744,-0.4614,0.1208,
1.970151,-0.3044,-0.8695,0.1092,-5.2534,-9.8893,-8.0057,-0.0624,-0.5719,0.0646,
1.971511,-0.3044,-0.8695,0.1092,-5.3676,-9.9432,-8.3353,-0.0624,-0.5719,0.0646,
1.997487,-0.2988,-0.9433,0.0958,-5.3676,-9.9432,-8.3353,-0.0624,-0.5719,0.0646,
2.000751,-0.2773,-1.0457,0.1082,-5.3676,-9.9432,-8.3353,-0.0624,-0.5719,0.0646,
2.002474,-0.2453,-1.1050,0.1608,-5.3676,-9.9432,-8.3353,-0.0624,-0.5719,0.0646,
2.028953,-0.2453,-1.1050,0.1608,-4.9489,-12.1749,-7.7992,-0.0624,-0.5719,0.0646,
2.031777,-0.2453,-1.1050,0.1608,-4.9489,-12.1749,-7.7992,0.1032,-0.0948,-0.0637,
2.057055,-0.2296,-1.1270,0.2172,-4.9489,-12.1749,-7.7992,0.1032,-0.0948,-0.0637,
2.059742,-0.2507,-1.1062,0.3100,-4.9489,-12.1749,-7.7992,0.1032,-0.0948,-0.0637,
2.061800,-0.2658,-1.0606,0.3513,-4.9489,-12.1749,-7.7992,0.1032,-0.0948,-0.0637,
2.088738,-0.2658,-1.0606,0.3513,-4.9489,-12.1749,-7.7992,0.0744,-0.6171,0.4922,
2.091233,-0.2658,-1.0606,0.3513,-5.3088,-11.7103,-5.8912,0.0744,-0.6171,0.4922,
2.119826,-0.2890,-1.0200,0.3689,-5.3088,-11.7103,-5.8912,0.0744,-0.6171,0.4922,
2.122418,-0.3132,-1.1094,0.4217,-5.3088,-11.7103,-5.8912,0.0744,-0.6171,0.4922,
2.124858,-0.3108,-1.1749,0.0882,-5.3088,-11.7103,-5.8912,0.0744,-0.6171,0.4922,
2.151914,-0.3108,-1.1749,0.0882,-6.0762,-12.6763,-8.3896,0.0744,-0.6171,0.4922,
2.154353,-0.3108,-1.1749,0.0882,-6.0762,-12.6763,-8.3896,-0.5334,0.2143,-0.4516,
2.177092,-0.3161,-1.0400,-0.0662,-6.0762,-12.6763,-8.3896,-0.5334,0.2143,-0.4516,
2.179396,-0.1722,-1.0122,0.0447,-6.0762,-12.6763,-8.3896,-0.5334,0.2143,-0.4516,
2.181078,-0.1974,-1.0623,-0.0706,-6.0762,-12.6763,-8.3896,-0.5334,0.2143,-0.4516,
2.209089,-0.1974,-1.0623,-0.0706,-4.8351,-11.3921,-10.0082,-0.5334,0.2143,-0.4516,
2.210972,-0.1974,-1.0623,-0.0706,-4.8351,-11.3921,-10.0082,-0.2530,-0.0350,-0.2995,
2.240140,-0.2289,-1.0286,-0.1051,-4.8351,-11.3921,-10.0082,-0.2530,-0.0350,-0.2995,
2.242527,-0.2455,-0.9372,-0.1757,-4.8351,-11.3921,-10.0082,-0.2530,-0.0350,-0.2995,
2.244297,-0.2976,-0.7825,-0.2575,-4.8351,-11.3921,-10.0082,-0.2530,-0.0350,-0.2995,
2.269760,-0.2976,-0.7825,-0.2575,-4.8351,-11.3921,-10.0082,-0.6042,-0.2714,0.0817,
2.271945,-0.2976,-0.7825,-0.2575,-5.8774,-8.3362,-11.8485,-0.6042,-0.2714,0.0817,
2.297216,-0.3630,-0.6790,-0.3335,-5.8774,-8.3362,-11.8485,-0.6042,-0.2714,0.0817,
2.299602,-0.4398,-0.7303,-0.3193,-5.8774,-8.3362,-11.8485,-0.6042,-0.2714,0.0817,
2.302401,-0.4556,-0.8981,-0.2411,-5.8774,-8.3362,-11.8485,-0.6042,-0.2714,0.0817,
2.329475,-0.4556,-0.8981,-0.2411,-7.5105,-9.0822,-11.6807,-0.6042,-0.2714,0.0817,
2.331372,-0.4556,-0.8981,-0.2411,-7.5105,-9.0822,-11.6807,-0.4497,-0.0105,-0.2140,
2.357826,-0.3950,-1.0217,-0.1915,-7.5105,-9.0822,-11.6807,-0.4497,-0.0105,-0.2140,
2.359738,-0.3413,-1.0459,-0.1356,-7.5105,-9.0822,-11.6807,-0.4497,-0.0105,-0.2140,
2.361108,-0.3240,-1.0061,-0.0906,-7.5105,-9.0822,-11.6807,-0.4497,-0.0105,-0.2140,
2.388360,-0.3240,-1.0061,-0.0906,-7.5105,-9.0822,-11.6807,-0.3073,-0.0698,0.5276,
2.390031,-0.3240,-1.0061,-0.0906,-6.2293,-9.8366,-10.2070,-0.3073,-0.0698,0.5276,
2.420963,-0.3244,-0.9602,-0.0989,-6.2293,-9.8366,-10.2070,-0.3073,-0.0698,0.5276,
2.422764,-0.3411,-0.9277,-0.1219,-6.2293,-9.8366,-10.2070,-0.3073,-0.0698,0.5276,
2.424742,-0.3379,-0.8874,-0.1024,-6.2293,-9.8366,-10.2070,-0.3073,-0.0698,0.5276,
2.448981,-0.3379,-0.8874,-0.1024,-6.2293,-9.8366,-10.2070,-0.3446,0.0835,0.2839,
2.450509,-0.3379,-0.8874,-0.1024,-6.3868,-8.2738,-10.3055,-0.3446,0.0835,0.2839,
2.477353,-0.3042,-0.8307,-0.0645,-6.3868,-8.2738,-10.3055,-0.3446,0.0835,0.2839,
2.481394,-0.3139,-0.7992,-0.0792,-6.3868,-8.2738,-10.3055,-0.3446,0.0835,0.2839,
2.484925,-0.3288,-0.8045,-0.0958,-6.3868,-8.2738,-10.3055,-0.3446,0.0835,0.2839,
2.508478,-0.3288,-0.8045,-0.0958,-6.3868,-8.2738,-10.3055,-0.3721,0.2185,0.0805,
2.510652,-0.3288,-0.8045,-0.0958,-6.1637,-7.1454,-10.2645,-0.3721,0.2185,0.0805,
2.537845,-0.3699,-0.8380,-0.0953,-6.1637,-7.1454,-10.2645,-0.3721,0.2185,0.0805,
2.539735,-0.3924,-0.8724,-0.0816,-6.1637,-7.1454,-10.2645,-0.3721,0.2185,0.0805,
2.541115,-0.3953,-0.9247,-0.0200,-6.1637,-7.1454,-10.2645,-0.3721,0.2185,0.0805,
2.569843,-0.3953,-0.9247,-0.0200,-6.6787,-8.1270,-9.5466,-0.3721,0.2185,0.0805,
2.572081,-0.3953,-0.9247,-0.0200,-6.6787,-8.1270,-9.5466,0.0140,0.1910,0.0206,
2.597064,-0.4180,-0.9682,-0.0105,-6.6787,-8.1270,-9.5466,0.0140,0.1910,0.0206,
2.599992,-0.4261,-0.9577,0.0032,-6.6787,-8.1270,-9.5466,0.0140,0.1910,0.0206,
2.601430,-0.4146,-0.9440,0.0078,-6.6787,-8.1270,-9.5466,0.0140,0.1910,0.0206,
2.629428,-0.4146,-0.9440,0.0078,-6.6787,-8.1270,-9.5466,0.2821,0.3175,-0.0240,
2.631536,-0.4146,-0.9440,0.0078,-6.7037,-8.3070,-9.3205,0.2821,0.3175,-0.0240,
2.671642,-0.3924,-0.9291,-0.0249,-6.7037,-8.3070,-9.3205,0.2821,0.3175,-0.0240,
2.673541,-0.3674,-0.9005,-0.0418,-6.7037,-8.3070,-9.3205,0.2821,0.3175,-0.0240,
2.675489,-0.3469,-0.8976,-0.0027,-6.7037,-8.3070,-9.3205,0.2821,0.3175,-0.0240,
2.688337,-0.3469,-0.8976,-0.0027,-6.7037,-8.3070,-9.3205,0.0512,0.4311,-0.1407,
2.689446,-0.3469,-0.8976,-0.0027,-5.8187,-7.9115,-9.4887,0.0512,0.4311,-0.1407,
2.716590,-0.3992,-0.9045,0.0213,-5.8187,-7.9115,-9.4887,0.0512,0.4311,-0.1407,
2.717886,-0.4959,-0.9110,-0.0156,-5.8187,-7.9115,-9.4887,0.0512,0.4311,-0.1407,
2.719064,-0.5632,-0.9174,-0.0029,-5.8187,-7.9115,-9.4887,0.0512,0.4311,-0.1407,
2.748772,-0.5632,-0.9174,-0.0029,-5.8187,-7.9115,-9.4887,-0.2285,0.2845,-0.0557,
2.750555,-0.5632,-0.9174,-0.0029,-7.6963,-8.0469,-9.5439,-0.2285,0.2845,-0.0557,
2.776307,-0.5700,-0.9262,-0.0484,-7.6963,-8.0469,-9.5439,-0.2285,0.2845,-0.0557,
2.778152,-0.5407,-1.0611,-0.1407,-7.6963,-8.0469,-9.5439,-0.2285,0.2845,-0.0557,
2.779688,-0.5597,-1.3305,-0.0735,-7.6963,-8.0469,-9.5439,-0.2285,0.2845,-0.0557,
2.808644,-0.5597,-1.3305,-0.0735,-7.6963,-8.0469,-9.5439,0.0867,0.3541,0.4293,
2.810642,-0.5597,-1.3305,-0.0735,-7.4520,-12.0083,-10.2726,0.0867,0.3541,0.4293,
2.837898,-0.4705,-1.2653,-0.1383,-7.4520,-12.0083,-10.2726,0.0867,0.3541,0.4293,
2.839948,-0.4554,-1.0979,-0.2274,-7.4520,-12.0083,-10.2726,0.0867,0.3541,0.4293,
2.841898,-0.4520,-0.9553,-0.3142,-7.4520,-12.0083,-10.2726,0.0867,0.3541,0.4293,
2.870212,-0.4520,-0.9553,-0.3142,-7.4520,-12.0083,-10.2726,-0.1381,-0.0826,0.0151,
2.872731,-0.4520,-0.9553,-0.3142,-6.2401,-8.2236,-12.6495,-0.1381,-0.0826,0.0151,
2.896351,-0.3469,-0.8360,-0.3618,-6.2401,-8.2236,-12.6495,-0.1381,-0.0826,0.0151,
2.898096,-0.1952,-0.7657,-0.3337,-6.2401,-8.2236,-12.6495,-0.1381,-0.0826,0.0151,
2.899808,-0.0217,-0.7818,-0.1964,-6.2401,-8.2236,-12.6495,-0.1381,-0.0826,0.0151,
2.928390,-0.0217,-0.7818,-0.1964,-6.2401,-8.2236,-12.6495,0.3420,-0.2873,-0.4149,
2.930166,-0.0217,-0.7818,-0.1964,-2.1440,-6.4823,-11.4670,0.3420,-0.2873,-0.4149,
2.957242,0.0621,-0.9245,-0.0349,-2.1440,-6.4823,-11.4670,0.3420,-0.2873,-0.4149,
2.959290,-0.0733,-1.1495,-0.0205,-2.1440,-6.4823,-11.4670,0.3420,-0.2873,-0.4149,
2.961324,-0.2885,-1.2672,-0.0967,-2.1440,-6.4823,-11.4670,0.3420,-0.2873,-0.4149,
2.989460,-0.2885,-1.2672,-0.0967,-4.8887,-11.4350,-10.4851,0.3420,-0.2873,-0.4149,
2.991493,-0.2885,-1.2672,-0.0967,-4.8887,-11.4350,-10.4851,0.7262,-0.2140,0.6889,
3.017117,-0.4009,-1.2071,-0.1456,-4.8887,-11.4350,-10.4851,0.7262,-0.2140,0.6889,
3.019616,-0.4451,-1.0432,-0.1832,-4.8887,-11.4350,-10.4851,0.7262,-0.2140,0.6889,
3.021623,-0.3985,-0.9001,-0.0850,-4.8887,-11.4350,-10.4851,0.7262,-0.2140,0.6889,
3.048773,-0.3985,-0.9001,-0.0850,-6.0361,-8.1259,-10.3802,0.7262,-0.2140,0.6889,
3.051322,-0.3985,-0.9001,-0.0850,-6.0361,-8.1259,-10.3802,0.7953,0.1122,-0.3942,
3.077027,-0.3376,-0.8788,-0.0056,-6.0361,-8.1259,-10.3802,0.7953,0.1122,-0.3942,
3.078867,-0.3200,-0.8913,-0.0599,-6.0361,-8.1259,-10.3802,0.7953,0.1122,-0.3942,
3.080210,-0.3034,-0.8431,-0.0635,-6.0361,-8.1259,-10.3802,0.7953,0.1122,-0.3942,
3.108659,-0.3034,-0.8431,-0.0635,-5.0411,-7.8183,-10.1984,0.7953,0.1122,-0.3942,
3.110727,-0.3034,-0.8431,-0.0635,-5.0411,-7.8183,-10.1984,0.1093,-0.0887,-0.2592,
3.139412,-0.2924,-0.7935,0.0015,-5.0411,-7.8183,-10.1984,0.1093,-0.0887,-0.2592,
3.141857,-0.2543,-0.7689,0.0418,-5.0411,-7.8183,-10.1984,0.1093,-0.0887,-0.2592,
3.143772,-0.2125,-0.7799,0.0618,-5.0411,-7.8183,-10.1984,0.1093,-0.0887,-0.2592,
3.168731,-0.2125,-0.7799,0.0618,-5.0411,-7.8183,-10.1984,0.0885,-0.0588,-0.1449,
3.171509,-0.2125,-0.7799,0.0618,-4.1952,-7.2091,-8.9609,0.0885,-0.0588,-0.1449,
3.196440,-0.1984,-0.8033,0.0696,-4.1952,-7.2091,-8.9609,0.0885,-0.0588,-0.1449,
3.198674,-0.2101,-0.8365,0.1182,-4.1952,-7.2091,-8.9609,0.0885,-0.0588,-0.1449,
3.200377,-0.2397,-0.8651,0.1485,-4.1952,-7.2091,-8.9609,0.0885,-0.0588,-0.1449,
3.229739,-0.2397,-0.8651,0.1485,-4.1952,-7.2091,-8.9609,0.4080,-0.1614,0.0939,
3.231378,-0.2397,-0.8651,0.1485,-4.4541,-8.1147,-8.1154,0.4080,-0.1614,0.0939,
3.256894,-0.2800,-0.8803,0.1522,-4.4541,-8.1147,-8.1154,0.4080,-0.1614,0.0939,
3.259348,-0.3034,-0.8727,0.1344,-4.4541,-8.1147,-8.1154,0.4080,-0.1614,0.0939,
3.261257,-0.2956,-0.8466,0.0721,-4.4541,-8.1147,-8.1154,0.4080,-0.1614,0.0939,
3.290118,-0.2956,-0.8466,0.0721,-4.4541,-8.1147,-8.1154,-0.0208,-0.1920,0.2057,
3.293241,-0.2956,-0.8466,0.0721,-5.1047,-7.9796,-8.8434,-0.0208,-0.1920,0.2057,
3.317773,-0.2712,-0.8803,0.0369,-5.1047,-7.9796,-8.8434,-0.0208,-0.1920,0.2057,
3.319977,-0.2597,-0.9646,0.0682,-5.1047,-7.9796,-8.8434,-0.0208,-0.1920,0.2057,
3.324572,-0.2924,-1.0811,0.1407,-5.1047,-7.9796,-8.8434,-0.0208,-0.1920,0.2057,
3.349225,-0.2924,-1.0811,0.1407,-5.1047,-7.9796,-8.8434,-0.0477,0.1190,-0.1578,
3.350688,-0.2924,-1.0811,0.1407,-5.0755,-10.1626,-8.1656,-0.0477,0.1190,-0.1578,
3.377306,-0.3352,-1.1282,0.2103,-5.0755,-10.1626,-8.1656,-0.0477,0.1190,-0.1578,
3.380045,-0.3249,-1.1028,0.2885,-5.0755,-10.1626,-8.1656,-0.0477,0.1190,-0.1578,
3.381561,-0.3408,-1.0667,0.3254,-5.0755,-10.1626,-8.1656,-0.0477,0.1190,-0.1578,
3.409299,-0.3408,-1.0667,0.3254,-5.0755,-10.1626,-8.1656,0.0506,-0.8993,0.0139,
3.412219,-0.3408,-1.0667,0.3254,-5.7042,-9.9880,-6.3169,0.0506,-0.8993,0.0139,
3.437768,-0.4175,-1.2743,0.3491,-5.7042,-9.9880,-6.3169,0.0506,-0.8993,0.0139,
3.441303,-0.4566,-1.3838,0.0584,-5.7042,-9.9880,-6.3169,0.0506,-0.8993,0.0139,
3.443445,-0.4270,-1.0850,0.0215,-5.7042,-9.9880,-6.3169,0.0506,-0.8993,0.0139,
3.469344,-0.4270,-1.0850,0.0215,-5.7042,-9.9880,-6.3169,-0.1229,0.1190,0.0670,
3.472038,-0.4270,-1.0850,0.0215,-6.6984,-10.0381,-9.2497,-0.1229,0.1190,0.0670,
3.497097,-0.2194,-0.9191,0.1314,-6.6984,-10.0381,-9.2497,-0.1229,0.1190,0.0670,
3.499714,-0.1796,-0.9230,-0.0007,-6.6984,-10.0381,-9.2497,-0.1229,0.1190,0.0670,
3.501391,-0.1586,-0.9167,-0.0865,-6.6984,-10.0381,-9.2497,-0.1229,0.1190,0.0670,
3.529817,-0.1586,-0.9167,-0.0865,-4.0558,-8.1800,-10.2956,-0.1229,0.1190,0.0670,
3.533181,-0.1586,-0.9167,-0.0865,-4.0558,-8.1800,-10.2956,-0.6244,-0.2286,-0.2622,
3.558654,-0.1612,-0.8908,-0.1520,-4.0558,-8.1800,-10.2956,-0.6244,-0.2286,-0.2622,
3.562270,-0.2436,-0.8138,-0.2240,-4.0558,-8.1800,-10.2956,-0.6244,-0.2286,-0.2622,
3.563599,-0.3169,-0.7574,-0.2665,-4.0558,-8.1800,-10.2956,-0.6244,-0.2286,-0.2622,
3.591695,-0.3169,-0.7574,-0.2665,-4.0558,-8.1800,-10.2956,-0.4136,-0.1248,-0.1309,
3.594710,-0.3169,-0.7574,-0.2665,-5.7158,-6.1933,-11.9846,-0.4136,-0.1248,-0.1309,
3.617615,-0.4041,-0.7845,-0.2792,-5.7158,-6.1933,-11.9846,-0.4136,-0.1248,-0.1309,
3.620852,-0.4058,-0.8776,-0.2900,-5.7158,-6.1933,-11.9846,-0.4136,-0.1248,-0.1309,
3.623077,-0.3599,-1.0054,-0.2223,-5.7158,-6.1933,-11.9846,-0.4136,-0.1248,-0.1309,
3.650803,-0.3599,-1.0054,-0.2223,-6.1239,-8.4147,-11.5253,-0.4136,-0.1248,-0.1309,
3.654875,-0.3599,-1.0054,-0.2223,-6.1239,-8.4147,-11.5253,-0.2322,-0.0673,-0.0142,
3.679009,-0.3652,-1.0505,-0.1446,-6.1239,-8.4147,-11.5253,-0.2322,-0.0673,-0.0142,
3.682536,-0.4070,-1.0078,-0.0982,-6.1239,-8.4147,-11.5253,-0.2322,-0.0673,-0.0142,
3.684403,-0.4559,-0.9282,-0.1146,-6.1239,-8.4147,-11.5253,-0.2322,-0.0673,-0.0142,
3.708790,-0.4559,-0.9282,-0.1146,-6.1239,-8.4147,-11.5253,-0.4735,-0.1248,0.6413,
3.711828,-0.4559,-0.9282,-0.1146,-7.0389,-7.3480,-10.4236,-0.4735,-0.1248,0.6413,
3.737606,-0.4595,-0.8700,-0.1131,-7.0389,-7.3480,-10.4236,-0.4735,-0.1248,0.6413,
3.741201,-0.4383,-0.8463,-0.1204,-7.0389,-7.3480,-10.4236,-0.4735,-0.1248,0.6413,
3.743388,-0.3914,-0.8233,-0.1212,-7.0389,-7.3480,-10.4236,-0.4735,-0.1248,0.6413,
3.768932,-0.3914,-0.8233,-0.1212,-7.0389,-7.3480,-10.4236,-0.4894,-0.0191,-0.0105,
3.771948,-0.3914,-0.8233,-0.1212,-6.4137,-5.8918,-10.3954,-0.4894,-0.0191,-0.0105,
3.797295,-0.3305,-0.8080,-0.1146,-6.4137,-5.8918,-10.3954,-0.4894,-0.0191,-0.0105,
3.800486,-0.3015,-0.8297,-0.1134,-6.4137,-5.8918,-10.3954,-0.4894,-0.0191,-0.0105,
3.802731,-0.3288,-0.8553,-0.1116,-6.4137,-5.8918,-10.3954,-0.4894,-0.0191,-0.0105,
3.829354,-0.3288,-0.8553,-0.1116,-6.4137,-5.8918,-10.3954,-0.4668,0.0200,-0.0386,
3.832320,-0.3288,-0.8553,-0.1116,-5.7713,-5.8805,-10.2273,-0.4668,0.0200,-0.0386,
3.856570,-0.3775,-0.8798,-0.0972,-5.7713,-5.8805,-10.2273,-0.4668,0.0200,-0.0386,
3.859273,-0.3892,-0.9098,-0.0669,-5.7713,-5.8805,-10.2273,-0.4668,0.0200,-0.0386,
3.861424,-0.3748,-0.9411,-0.0415,-5.7713,-5.8805,-10.2273,-0.4668,0.0200,-0.0386,
3.889029,-0.3748,-0.9411,-0.0415,-5.7713,-5.8805,-10.2273,0.0305,0.1825,0.0744,
3.892215,-0.3748,-0.9411,-0.0415,-6.1429,-6.5121,-9.5021,0.0305,0.1825,0.0744,
3.915619,-0.3833,-0.9589,-0.0086,-6.1429,-6.5121,-9.5021,0.0305,0.1825,0.0744,
3.918754,-0.4031,-0.9448,0.0005,-6.1429,-6.5121,-9.5021,0.0305,0.1825,0.0744,
3.920738,-0.3950,-0.9042,-0.0562,-6.1429,-6.5121,-9.5021,0.0305,0.1825,0.0744,
3.949270,-0.3950,-0.9042,-0.0562,-6.1429,-6.5121,-9.5021,0.2626,0.4537,-0.1003,
3.952039,-0.3950,-0.9042,-0.0562,-6.1291,-6.1380,-9.6971,0.2626,0.4537,-0.1003,
3.976807,-0.3523,-0.8786,-0.0941,-6.1291,-6.1380,-9.6971,0.2626,0.4537,-0.1003,
3.979257,-0.3015,-0.8954,-0.0845,-6.1291,-6.1380,-9.6971,0.2626,0.4537,-0.1003,
3.980836,-0.3152,-0.9482,-0.0462,-6.1291,-6.1380,-9.6971,0.2626,0.4537,-0.1003,
4.009154,-0.3152,-0.9482,-0.0462,-6.1291,-6.1380,-9.6971,0.2149,0.7384,-0.0759,
4.012997,-0.3152,-0.9482,-0.0462,-5.0416,-6.6887,-9.7033,0.2149,0.7384,-0.0759,
4.035730,-0.4109,-0.9804,-0.0384,-5.0416,-6.6887,-9.7033,0.2149,0.7384,-0.0759,
4.038435,-0.4898,-0.9558,-0.0611,-5.0416,-6.6887,-9.7033,0.2149,0.7384,-0.0759,
4.040378,-0.5312,-0.9137,-0.0188,-5.0416,-6.6887,-9.7033,0.2149,0.7384,-0.0759,
4.068385,-0.5312,-0.9137,-0.0188,-5.0416,-6.6887,-9.7033,-0.1290,0.5056,0.0304,
4.070917,-0.5312,-0.9137,-0.0188,-6.7319,-6.3757,-9.5219,-0.1290,0.5056,0.0304,
4.096011,-0.5661,-0.9098,-0.1429,-6.7319,-6.3757,-9.5219,-0.1290,0.5056,0.0304,
4.098723,-0.5825,-1.1214,-0.1434,-6.7319,-6.3757,-9.5219,-0.1290,0.5056,0.0304,
4.100759,-0.6272,-1.3760,-0.1011,-6.7319,-6.3757,-9.5219,-0.1290,0.5056,0.0304,
4.128321,-0.6272,-1.3760,-0.1011,-7.3339,-10.9194,-10.3816,-0.1290,0.5056,0.0304,
4.131302,-0.6272,-1.3760,-0.1011,-7.3339,-10.9194,-10.3816,0.2510,0.5136,0.4299,
4.157140,-0.4820,-1.2098,-0.1915,-7.3339,-10.9194,-10.3816,0.2510,0.5136,0.4299,
4.161927,-0.4652,-1.0017,-0.3144,-7.3339,-10.9194,-10.3816,0.2510,0.5136,0.4299,
4.164021,-0.4759,-0.8737,-0.3963,-7.3339,-10.9194,-10.3816,0.2510,0.5136,0.4299,
4.189251,-0.4759,-0.8737,-0.3963,-7.3339,-10.9194,-10.3816,-0.0404,-0.1962,-0.1254,
4.194650,-0.4759,-0.8737,-0.3963,-5.6703,-5.9633,-13.2858,-0.0404,-0.1962,-0.1254,
4.216139,-0.3604,-0.7948,-0.3743,-5.6703,-5.9633,-13.2858,-0.0404,-0.1962,-0.1254,
4.219514,-0.1783,-0.7681,-0.3271,-5.6703,-5.9633,-13.2858,-0.0404,-0.1962,-0.1254,
4.221665,-0.0227,-0.8248,-0.1488,-5.6703,-5.9633,-13.2858,-0.0404,-0.1962,-0.1254,
4.248495,-0.0227,-0.8248,-0.1488,-5.6703,-5.9633,-13.2858,0.4184,-0.3282,-0.1712,
4.252417,-0.0227,-0.8248,-0.1488,-1.4196,-5.5151,-10.8465,0.4184,-0.3282,-0.1712,
4.278563,0.0125,-0.9619,-0.0362,-1.4196,-5.5151,-10.8465,0.4184,-0.3282,-0.1712,
4.281935,-0.1722,-1.1390,-0.0259,-1.4196,-5.5151,-10.8465,0.4184,-0.3282,-0.1712,
4.283622,-0.4021,-1.2101,-0.1092,-1.4196,-5.5151,-10.8465,0.4184,-0.3282,-0.1712,
4.308331,-0.4021,-1.2101,-0.1092,-5.3226,-9.4786,-10.4828,0.4184,-0.3282,-0.1712,
4.311662,-0.4021,-1.2101,-0.1092,-5.3226,-9.4786,-10.4828,0.6328,-0.5450,0.7060,
4.335600,-0.5382,-1.1255,-0.1622,-5.3226,-9.4786,-10.4828,0.6328,-0.5450,0.7060,
4.338234,-0.5099,-0.9186,-0.1163,-5.3226,-9.4786,-10.4828,0.6328,-0.5450,0.7060,
4.339712,-0.4063,-0.8119,-0.1051,-5.3226,-9.4786,-10.4828,0.6328,-0.5450,0.7060,
4.368612,-0.4063,-0.8119,-0.1051,-5.6380,-5.8504,-10.4631,0.6328,-0.5450,0.7060,
4.372317,-0.4063,-0.8119,-0.1051,-5.6380,-5.8504,-10.4631,0.3958,-0.5035,-0.4369,
4.396299,-0.3992,-0.8258,-0.0823,-5.6380,-5.8504,-10.4631,0.3958,-0.5035,-0.4369,
4.399075,-0.3403,-0.8241,-0.0743,-5.6380,-5.8504,-10.4631,0.3958,-0.5035,-0.4369,
4.400757,-0.3037,-0.8175,-0.0716,-5.6380,-5.8504,-10.4631,0.3958,-0.5035,-0.4369,
4.428539,-0.3037,-0.8175,-0.0716,-5.6380,-5.8504,-10.4631,-0.1626,-0.9452,-0.0686,
4.432578,-0.3037,-0.8175,-0.0716,-5.0518,-5.9191,-10.0548,-0.1626,-0.9452,-0.0686,
4.458265,-0.2729,-0.8488,0.0000,-5.0518,-5.9191,-10.0548,-0.1626,-0.9452,-0.0686,
4.461654,-0.2431,-0.8773,0.0396,-5.0518,-5.9191,-10.0548,-0.1626,-0.9452,-0.0686,
4.463304,-0.2382,-0.8886,0.0508,-5.0518,-5.9191,-10.0548,-0.1626,-0.9452,-0.0686,
4.488005,-0.2382,-0.8886,0.0508,-4.8973,-6.4826,-8.7025,-0.1626,-0.9452,-0.0686,
4.491174,-0.2382,-0.8886,0.0508,-4.8973,-6.4826,-8.7025,-0.0948,-0.8022,0.0713,
4.515445,-0.2756,-0.8700,0.0493,-4.8973,-6.4826,-8.7025,-0.0948,-0.8022,0.0713,
4.518667,-0.3083,-0.8400,0.0545,-4.8973,-6.4826,-8.7025,-0.0948,-0.8022,0.0713,
4.521688,-0.3420,-0.8221,0.0718,-4.8973,-6.4826,-8.7025,-0.0948,-0.8022,0.0713,
4.549802,-0.3420,-0.8221,0.0718,-6.2688,-5.6684,-8.3491,-0.0948,-0.8022,0.0713,
4.553048,-0.3420,-0.8221,0.0718,-6.2688,-5.6684,-8.3491,-0.2218,-0.6800,-0.0325,
4.578850,-0.3594,-0.8145,0.0977,-6.2688,-5.6684,-8.3491,-0.2218,-0.6800,-0.0325,
4.582478,-0.3454,-0.8297,0.1236,-6.2688,-5.6684,-8.3491,-0.2218,-0.6800,-0.0325,
4.583965,-0.3342,-0.8585,0.1412,-6.2688,-5.6684,-8.3491,-0.2218,-0.6800,-0.0325,
4.608038,-0.3342,-0.8585,0.1412,-6.6623,-5.8346,-7.4506,-0.2218,-0.6800,-0.0325,
4.611645,-0.3342,-0.8585,0.1412,-6.6623,-5.8346,-7.4506,-0.2780,-1.2390,0.0426,
4.636553,-0.3479,-0.8781,0.1248,-6.6623,-5.8346,-7.4506,-0.2780,-1.2390,0.0426,
4.639320,-0.3784,-0.8930,0.0674,-6.6623,-5.8346,-7.4506,-0.2780,-1.2390,0.0426,
4.641505,-0.4026,-0.9311,0.0330,-6.6623,-5.8346,-7.4506,-0.2780,-1.2390,0.0426,
4.668132,-0.4026,-0.9311,0.0330,-7.9336,-6.2824,-8.1732,-0.2780,-1.2390,0.0426,
4.671015,-0.4026,-0.9311,0.0330,-7.9336,-6.2824,-8.1732,-0.3910,-1.1364,-0.0808,
4.695695,-0.3865,-1.0046,0.0657,-7.9336,-6.2824,-8.1732,-0.3910,-1.1364,-0.0808,
4.698750,-0.3601,-1.0593,0.1329,-7.9336,-6.2824,-8.1732,-0.3910,-1.1364,-0.0808,
4.700864,-0.3513,-1.0510,0.1764,-7.9336,-6.2824,-8.1732,-0.3910,-1.1364,-0.0808,
4.729039,-0.3513,-1.0510,0.1764,-7.9370,-7.2438,-6.4342,-0.3910,-1.1364,-0.0808,
4.732198,-0.3513,-1.0510,0.1764,-7.9370,-7.2438,-6.4342,-0.2566,-1.1015,0.1849,
4.755596,-0.3689,-0.9968,0.2081,-7.9370,-7.2438,-6.4342,-0.2566,-1.1015,0.1849,
4.758638,-0.4168,-0.9291,0.2333,-7.9370,-7.2438,-6.4342,-0.2566,-1.1015,0.1849,
4.760631,-0.5104,-1.1668,0.2345,-7.9370,-7.2438,-6.4342,-0.2566,-1.1015,0.1849,
4.789169,-0.5104,-1.1668,0.2345,-7.9370,-7.2438,-6.4342,-0.7136,-0.9763,-0.1663,
4.792494,-0.5104,-1.1668,0.2345,-9.9984,-8.0718,-5.4406,-0.7136,-0.9763,-0.1663,
4.816271,-0.4947,-1.3948,0.0608,-9.9984,-8.0718,-5.4406,-0.7136,-0.9763,-0.1663,
4.819505,-0.4107,-1.1204,-0.0650,-9.9984,-8.0718,-5.4406,-0.7136,-0.9763,-0.1663,
4.821584,-0.1859,-0.9110,-0.0667,-9.9984,-8.0718,-5.4406,-0.7136,-0.9763,-0.1663,
4.848143,-0.1859,-0.9110,-0.0667,-9.9984,-8.0718,-5.4406,-0.6836,-0.8877,-0.5206,
4.850688,-0.1859,-0.9110,-0.0667,-7.1451,-5.3172,-8.0560,-0.6836,-0.8877,-0.5206,
4.875926,-0.1942,-0.9284,-0.1180,-7.1451,-5.3172,-8.0560,-0.6836,-0.8877,-0.5206,
4.877992,-0.2878,-0.9023,-0.0750,-7.1451,-5.3172,-8.0560,-0.6836,-0.8877,-0.5206,
4.879596,-0.3061,-0.8681,-0.1896,-7.1451,-5.3172,-8.0560,-0.6836,-0.8877,-0.5206,
4.910385,-0.3061,-0.8681,-0.1896,-7.1451,-5.3172,-8.0560,-1.0941,-0.8780,-0.2915,
4.914684,-0.3061,-0.8681,-0.1896,-8.7646,-4.6173,-8.7723,-1.0941,-0.8780,-0.2915,
4.935535,-0.3244,-0.8492,-0.3210,-8.7646,-4.6173,-8.7723,-1.0941,-0.8780,-0.2915,
4.937747,-0.4046,-0.7833,-0.3472,-8.7646,-4.6173,-8.7723,-1.0941,-0.8780,-0.2915,
4.939327,-0.4085,-0.7227,-0.3547,-8.7646,-4.6173,-8.7723,-1.0941,-0.8780,-0.2915,
4.967325,-0.4085,-0.7227,-0.3547,-8.7646,-4.6173,-8.7723,-0.7728,-0.5805,-0.5005,
4.969393,-0.4085,-0.7227,-0.3547,-10.1077,-2.8289,-9.8648,-0.7728,-0.5805,-0.5005,
4.996167,-0.4068,-0.8062,-0.3276,-10.1077,-2.8289,-9.8648,-0.7728,-0.5805,-0.5005,
4.998217,-0.4139,-0.9792,-0.2304,-10.1077,-2.8289,-9.8648,-0.7728,-0.5805,-0.5005,
4.999559,-0.4678,-1.0794,-0.1735,-10.1077,-2.8289,-9.8648,-0.7728,-0.5805,-0.5005,
5.028005,-0.4678,-1.0794,-0.1735,-10.9430,-6.0812,-7.6601,-0.7728,-0.5805,-0.5005,
5.030268,-0.4678,-1.0794,-0.1735,-10.9430,-6.0812,-7.6601,-0.6678,-0.8401,0.4708,
5.055613,-0.4600,-1.0327,-0.1986,-10.9430,-6.0812,-7.6601,-0.6678,-0.8401,0.4708,
5.058516,-0.4246,-0.9218,-0.1796,-10.9430,-6.0812,-7.6601,-0.6678,-0.8401,0.4708,
5.060632,-0.4310,-0.8351,-0.1412,-10.9430,-6.0812,-7.6601,-0.6678,-0.8401,0.4708,
5.087760,-0.4310,-0.8351,-0.1412,-10.9430,-6.0812,-7.6601,-0.6537,-0.9281,0.2094,
5.090561,-0.4310,-0.8351,-0.1412,-10.7148,-3.1866,-6.7747,-0.6537,-0.9281,0.2094,
5.115386,-0.3994,-0.8258,-0.1593,-10.7148,-3.1866,-6.7747,-0.6537,-0.9281,0.2094,
5.117830,-0.3589,-0.8299,-0.1554,-10.7148,-3.1866,-6.7747,-0.6537,-0.9281,0.2094,
5.119461,-0.3266,-0.8402,-0.1554,-10.7148,-3.1866,-6.7747,-0.6537,-0.9281,0.2094,
5.148811,-0.3266,-0.8402,-0.1554,-9.9227,-3.0026,-6.3830,-0.6537,-0.9281,0.2094,
5.151455,-0.3266,-0.8402,-0.1554,-9.9227,-3.0026,-6.3830,-0.6067,-0.7088,-0.2531,
5.178458,-0.3127,-0.8500,-0.1507,-9.9227,-3.0026,-6.3830,-0.6067,-0.7088,-0.2531,
5.181659,-0.3325,-0.8531,-0.1263,-9.9227,-3.0026,-6.3830,-0.6067,-0.7088,-0.2531,
5.183922,-0.3650,-0.8663,-0.1043,-9.9227,-3.0026,-6.3830,-0.6067,-0.7088,-0.2531,
5.208412,-0.3650,-0.8663,-0.1043,-10.5080,-3.1101,-5.4025,-0.6067,-0.7088,-0.2531,
5.212333,-0.3650,-0.8663,-0.1043,-10.5080,-3.1101,-5.4025,-0.3574,-0.7460,-0.0075,
5.235978,-0.3921,-0.9186,-0.0958,-10.5080,-3.1101,-5.4025,-0.3574,-0.7460,-0.0075,
5.238651,-0.4131,-0.9746,-0.0743,-10.5080,-3.1101,-5.4025,-0.3574,-0.7460,-0.0075,
5.240386,-0.4263,-0.9760,-0.0537,-10.5080,-3.1101,-5.4025,-0.3574,-0.7460,-0.0075,
5.269447,-0.4263,-0.9760,-0.0537,-10.5080,-3.1101,-5.4025,-0.0697,-0.3245,0.1446,
5.272366,-0.4263,-0.9760,-0.0537,-11.1959,-4.0355,-4.5691,-0.0697,-0.3245,0.1446,
5.297059,-0.4192,-0.9374,-0.0513,-11.1959,-4.0355,-4.5691,-0.0697,-0.3245,0.1446,
5.299762,-0.4165,-0.9003,-0.0550,-11.1959,-4.0355,-4.5691,-0.0697,-0.3245,0.1446,
5.301980,-0.4263,-0.8935,-0.0318,-11.1959,-4.0355,-4.5691,-0.0697,-0.3245,0.1446,
5.329864,-0.4263,-0.8935,-0.0318,-11.1959,-4.0355,-4.5691,0.1276,-0.1779,-0.1590,
5.332992,-0.4263,-0.8935,-0.0318,-11.2003,-3.1652,-4.2610,0.1276,-0.1779,-0.1590,
5.357009,-0.4525,-0.8969,-0.0364,-11.2003,-3.1652,-4.2610,0.1276,-0.1779,-0.1590,
5.359633,-0.4920,-0.9005,-0.0726,-11.2003,-3.1652,-4.2610,0.1276,-0.1779,-0.1590,
5.361876,-0.5175,-0.9125,-0.0689,-11.2003,-3.1652,-4.2610,0.1276,-0.1779,-0.1590,
5.388534,-0.5175,-0.9125,-0.0689,-11.2003,-3.1652,-4.2610,-0.0899,-0.2915,-0.1235,
5.390908,-0.5175,-0.9125,-0.0689,-12.1659,-3.3743,-4.5261,-0.0899,-0.2915,-0.1235,
5.415597,-0.5627,-0.9071,-0.0601,-12.1659,-3.3743,-4.5261,-0.0899,-0.2915,-0.1235,
5.418883,-0.6128,-0.9203,-0.0384,-12.1659,-3.3743,-4.5261,-0.0899,-0.2915,-0.1235,
5.422082,-0.6411,-0.9303,-0.0870,-12.1659,-3.3743,-4.5261,-0.0899,-0.2915,-0.1235,
5.448493,-0.6411,-0.9303,-0.0870,-13.4210,-3.4592,-4.4855,-0.0899,-0.2915,-0.1235,
5.451102,-0.6411,-0.9303,-0.0870,-13.4210,-3.4592,-4.4855,-0.2939,-0.4876,0.0780,
5.475501,-0.6794,-1.0088,-0.1798,-13.4210,-3.4592,-4.4855,-0.2939,-0.4876,0.0780,
5.478081,-0.7410,-1.2167,-0.1637,-13.4210,-3.4592,-4.4855,-0.2939,-0.4876,0.0780,
5.479602,-0.5922,-1.1028,-0.1239,-13.4210,-3.4592,-4.4855,-0.2939,-0.4876,0.0780,
5.508669,-0.5922,-1.1028,-0.1239,-12.9619,-5.0507,-4.6474,-0.2939,-0.4876,0.0780,
5.511445,-0.5922,-1.1028,-0.1239,-12.9619,-5.0507,-4.6474,-0.1296,-0.3276,0.0933,
5.538481,-0.4280,-0.9389,-0.2585,-12.9619,-5.0507,-4.6474,-0.1296,-0.3276,0.0933,
5.541067,-0.3533,-0.8578,-0.4112,-12.9619,-5.0507,-4.6474,-0.1296,-0.3276,0.0933,
5.542454,-0.2741,-0.7967,-0.4583,-12.9619,-5.0507,-4.6474,-0.1296,-0.3276,0.0933,
5.568536,-0.2741,-0.7967,-0.4583,-12.9619,-5.0507,-4.6474,-0.1644,-1.0460,-0.4045,
5.571752,-0.2741,-0.7967,-0.4583,-9.9813,-1.9885,-7.5064,-0.1644,-1.0460,-0.4045,
5.595757,-0.1261,-0.7383,-0.3638,-9.9813,-1.9885,-7.5064,-0.1644,-1.0460,-0.4045,
5.598756,-0.0261,-0.7852,-0.1454,-9.9813,-1.9885,-7.5064,-0.1644,-1.0460,-0.4045,
5.600701,-0.1590,-0.9995,-0.1173,-9.9813,-1.9885,-7.5064,-0.1644,-1.0460,-0.4045,
5.628742,-0.1590,-0.9995,-0.1173,-9.9813,-1.9885,-7.5064,0.1337,-1.3502,0.2979,
5.633221,-0.1590,-0.9995,-0.1173,-9.0868,-4.0100,-3.6048,0.1337,-1.3502,0.2979,
5.655550,-0.4060,-1.2101,-0.1427,-9.0868,-4.0100,-3.6048,0.1337,-1.3502,0.2979,
5.658417,-0.5424,-1.2020,-0.1918,-9.0868,-4.0100,-3.6048,0.1337,-1.3502,0.2979,
5.660318,-0.5399,-1.0613,-0.1908,-9.0868,-4.0100,-3.6048,0.1337,-1.3502,0.2979,
5.688245,-0.5399,-1.0613,-0.1908,-9.0868,-4.0100,-3.6048,0.5589,-1.0759,-0.1022,
5.691231,-0.5399,-1.0613,-0.1908,-12.8345,-4.4537,-3.8464,0.5589,-1.0759,-0.1022,
5.716292,-0.4307,-0.9152,-0.1224,-12.8345,-4.4537,-3.8464,0.5589,-1.0759,-0.1022,
5.719306,-0.3159,-0.8856,-0.0897,-12.8345,-4.4537,-3.8464,0.5589,-1.0759,-0.1022,
5.721824,-0.3010,-0.9096,-0.0855,-12.8345,-4.4537,-3.8464,0.5589,-1.0759,-0.1022,
5.749188,-0.3010,-0.9096,-0.0855,-12.8345,-4.4537,-3.8464,0.1716,-1.0099,-0.4223,
5.752427,-0.3010,-0.9096,-0.0855,-10.6985,-3.1395,-2.5060,0.1716,-1.0099,-0.4223,
5.775723,-0.2924,-0.8927,-0.0708,-10.6985,-3.1395,-2.5060,0.1716,-1.0099,-0.4223,
5.778489,-0.3122,-0.8544,-0.0816,-10.6985,-3.1395,-2.5060,0.1716,-1.0099,-0.4223,
5.780474,-0.3095,-0.8392,-0.0584,-10.6985,-3.1395,-2.5060,0.1716,-1.0099,-0.4223,
5.807721,-0.3095,-0.8392,-0.0584,-10.6985,-3.1395,-2.5060,-0.1247,-1.2463,0.1006,
5.810703,-0.3095,-0.8392,-0.0584,-10.8969,-2.4715,-1.6860,-0.1247,-1.2463,0.1006,
5.835384,-0.2866,-0.8263,-0.0322,-10.8969,-2.4715,-1.6860,-0.1247,-1.2463,0.1006,
5.838049,-0.2614,-0.8141,0.0217,-10.8969,-2.4715,-1.6860,-0.1247,-1.2463,0.1006,
5.839577,-0.2907,-0.8187,0.0423,-10.8969,-2.4715,-1.6860,-0.1247,-1.2463,0.1006,
5.868342,-0.2907,-0.8187,0.0423,-10.7024,-2.1763,-0.1410,-0.1247,-1.2463,0.1006,
5.871131,-0.2907,-0.8187,0.0423,-10.7024,-2.1763,-0.1410,-0.1986,-0.6953,-0.0057,
5.896098,-0.3142,-0.8302,0.0349,-10.7024,-2.1763,-0.1410,-0.1986,-0.6953,-0.0057,
5.899051,-0.3225,-0.8473,0.0555,-10.7024,-2.1763,-0.1410,-0.1986,-0.6953,-0.0057,
5.901176,-0.2910,-0.8519,0.0970,-10.7024,-2.1763,-0.1410,-0.1986,-0.6953,-0.0057,
5.928103,-0.2910,-0.8519,0.0970,-10.7024,-2.1763,-0.1410,-0.0538,-0.6471,0.0964,
5.930564,-0.2910,-0.8519,0.0970,-10.6615,-2.4241,0.6865,-0.0538,-0.6471,0.0964,
5.957792,-0.2531,-0.8478,0.1317,-10.6615,-2.4241,0.6865,-0.0538,-0.6471,0.0964,
5.961202,-0.2619,-0.8593,0.1566,-10.6615,-2.4241,0.6865,-0.0538,-0.6471,0.0964,
5.963013,-0.3029,-0.8651,0.1476,-10.6615,-2.4241,0.6865,-0.0538,-0.6471,0.0964,
5.988222,-0.3029,-0.8651,0.1476,-10.6886,-2.4323,1.5988,-0.0538,-0.6471,0.0964,
5.990929,-0.3029,-0.8651,0.1476,-10.6886,-2.4323,1.5988,-0.0825,-0.8444,0.2253,
6.016143,-0.3469,-0.8974,0.0799,-10.6886,-2.4323,1.5988,-0.0825,-0.8444,0.2253,
6.017948,-0.3618,-0.9773,0.0457,-10.6886,-2.4323,1.5988,-0.0825,-0.8444,0.2253,
6.019135,-0.3748,-1.0586,0.0999,-10.6886,-2.4323,1.5988,-0.0825,-0.8444,0.2253,
6.047690,-0.3748,-1.0586,0.0999,-10.6886,-2.4323,1.5988,-0.1076,-0.3374,-0.0667,
6.050486,-0.3748,-1.0586,0.0999,-11.3125,-4.2428,1.4335,-0.1076,-0.3374,-0.0667,
6.077349,-0.3779,-1.0664,0.1818,-11.3125,-4.2428,1.4335,-0.1076,-0.3374,-0.0667,
6.080318,-0.3767,-1.0163,0.2748,-11.3125,-4.2428,1.4335,-0.1076,-0.3374,-0.0667,
6.081901,-0.4180,-0.9829,0.3474,-11.3125,-4.2428,1.4335,-0.1076,-0.3374,-0.0667,
6.108414,-0.4180,-0.9829,0.3474,-11.3125,-4.2428,1.4335,-0.1033,-1.2304,0.4598,
6.111038,-0.4180,-0.9829,0.3474,-11.6236,-3.3926,4.1661,-0.1033,-1.2304,0.4598,
6.135530,-0.4578,-0.9775,0.3423,-11.6236,-3.3926,4.1661,-0.1033,-1.2304,0.4598,
6.138298,-0.4363,-1.3173,0.2301,-11.6236,-3.3926,4.1661,-0.1033,-1.2304,0.4598,
6.140674,-0.4644,-1.3198,-0.0581,-11.6236,-3.3926,4.1661,-0.1033,-1.2304,0.4598,
6.169222,-0.4644,-1.3198,-0.0581,-12.0233,-6.7009,0.6517,-0.1033,-1.2304,0.4598,
6.171992,-0.4644,-1.3198,-0.0581,-12.0233,-6.7009,0.6517,-0.4839,0.0774,-0.3587,
6.195581,-0.2700,-0.9900,0.0181,-12.0233,-6.7009,0.6517,-0.4839,0.0774,-0.3587,
6.198716,-0.1649,-0.9919,-0.0235,-12.0233,-6.7009,0.6517,-0.4839,0.0774,-0.3587,
6.201084,-0.2651,-1.0483,-0.0647,-12.0233,-6.7009,0.6517,-0.4839,0.0774,-0.3587,
6.228046,-0.2651,-1.0483,-0.0647,-12.0233,-6.7009,0.6517,-0.5101,-0.5579,-0.0454,
6.230299,-0.2651,-1.0483,-0.0647,-10.1315,-4.1834,0.8880,-0.5101,-0.5579,-0.0454,
6.255808,-0.3340,-0.9870,-0.0770,-10.1315,-4.1834,0.8880,-0.5101,-0.5579,-0.0454,
6.258790,-0.3310,-0.8580,-0.2333,-10.1315,-4.1834,0.8880,-0.5101,-0.5579,-0.0454,
6.260050,-0.3393,-0.7215,-0.3017,-10.1315,-4.1834,0.8880,-0.5101,-0.5579,-0.0454,
6.288263,-0.3393,-0.7215,-0.3017,-10.1315,-4.1834,0.8880,-0.8003,-0.4308,-0.0753,
6.290781,-0.3393,-0.7215,-0.3017,-10.7437,-0.9835,-0.9341,-0.8003,-0.4308,-0.0753,
6.316416,-0.3760,-0.6413,-0.2966,-10.7437,-0.9835,-0.9341,-0.8003,-0.4308,-0.0753,
6.318912,-0.3777,-0.7124,-0.2739,-10.7437,-0.9835,-0.9341,-0.8003,-0.4308,-0.0753,
6.321391,-0.3259,-0.9387,-0.1957,-10.7437,-0.9835,-0.9341,-0.8003,-0.4308,-0.0753,
6.348986,-0.3259,-0.9387,-0.1957,-10.6479,-3.2546,0.3787,-0.8003,-0.4308,-0.0753,
6.352806,-0.3259,-0.9387,-0.1957,-10.6479,-3.2546,0.3787,-0.3513,0.0951,-0.0832,
6.377176,-0.3247,-1.1168,-0.1507,-10.6479,-3.2546,0.3787,-0.3513,0.0951,-0.0832,
6.379464,-0.3408,-1.0894,-0.1393,-10.6479,-3.2546,0.3787,-0.3513,0.0951,-0.0832,
6.381527,-0.3310,-0.9804,-0.1312,-10.6479,-3.2546,0.3787,-0.3513,0.0951,-0.0832,
6.408044,-0.3310,-0.9804,-0.1312,-10.6479,-3.2546,0.3787,-0.1320,0.2082,0.7408,
6.410581,-0.3310,-0.9804,-0.1312,-10.5282,-3.4672,1.0381,-0.1320,0.2082,0.7408,
6.441883,-0.3525,-0.8981,-0.1393,-10.5282,-3.4672,1.0381,-0.1320,0.2082,0.7408,
6.443749,-0.3699,-0.8544,-0.1434,-10.5282,-3.4672,1.0381,-0.1320,0.2082,0.7408,
6.444890,-0.3772,-0.8321,-0.1432,-10.5282,-3.4672,1.0381,-0.1320,0.2082,0.7408,
6.467801,-0.3772,-0.8321,-0.1432,-10.5282,-3.4672,1.0381,-0.1241,0.4372,0.2766,
6.469983,-0.3772,-0.8321,-0.1432,-10.7428,-1.7307,0.8884,-0.1241,0.4372,0.2766,
6.496913,-0.3706,-0.7970,-0.1461,-10.7428,-1.7307,0.8884,-0.1241,0.4372,0.2766,
6.499483,-0.3828,-0.7742,-0.1505,-10.7428,-1.7307,0.8884,-0.1241,0.4372,0.2766,
6.501289,-0.4165,-0.7923,-0.1478,-10.7428,-1.7307,0.8884,-0.1241,0.4372,0.2766,
6.528427,-0.4165,-0.7923,-0.1478,-11.1063,-1.2609,0.6804,-0.1241,0.4372,0.2766,
6.531120,-0.4165,-0.7923,-0.1478,-11.1063,-1.2609,0.6804,-0.1369,0.4739,-0.0081,
6.555793,-0.4371,-0.8429,-0.1229,-11.1063,-1.2609,0.6804,-0.1369,0.4739,-0.0081,
6.558405,-0.4451,-0.9001,-0.0599,-11.1063,-1.2609,0.6804,-0.1369,0.4739,-0.0081,
6.559670,-0.4334,-0.9562,-0.0296,-11.1063,-1.2609,0.6804,-0.1369,0.4739,-0.0081,
6.589134,-0.4334,-0.9562,-0.0296,-11.1063,-1.2609,0.6804,0.1655,0.5056,0.1959,
6.591737,-0.4334,-0.9562,-0.0296,-11.2645,-2.7974,1.6376,0.1655,0.5056,0.1959,
6.616842,-0.4395,-0.9856,-0.0423,-11.2645,-2.7974,1.6376,0.1655,0.5056,0.1959,
6.619689,-0.4424,-0.9584,-0.0459,-11.2645,-2.7974,1.6376,0.1655,0.5056,0.1959,
6.621705,-0.4270,-0.8939,-0.0484,-11.2645,-2.7974,1.6376,0.1655,0.5056,0.1959,
6.647763,-0.4270,-0.8939,-0.0484,-11.2645,-2.7974,1.6376,0.3249,0.5215,0.0304,
6.650873,-0.4270,-0.8939,-0.0484,-11.1186,-2.0191,1.1529,0.3249,0.5215,0.0304,
6.675754,-0.3968,-0.8446,-0.0530,-11.1186,-2.0191,1.1529,0.3249,0.5215,0.0304,
6.678278,-0.3704,-0.8571,-0.0340,-11.1186,-2.0191,1.1529,0.3249,0.5215,0.0304,
6.679966,-0.3628,-0.9067,-0.0259,-11.1186,-2.0191,1.1529,0.3249,0.5215,0.0304,
6.708536,-0.3628,-0.9067,-0.0259,-11.1186,-2.0191,1.1529,0.3622,0.7561,-0.1999,
6.711284,-0.3628,-0.9067,-0.0259,-10.5550,-2.1253,0.9628,0.3622,0.7561,-0.1999,
6.736454,-0.3821,-0.9321,-0.0442,-10.5550,-2.1253,0.9628,0.3622,0.7561,-0.1999,
6.739649,-0.4539,-0.9506,-0.0506,-10.5550,-2.1253,0.9628,0.3622,0.7561,-0.1999,
6.742234,-0.5468,-0.9548,-0.0462,-10.5550,-2.1253,0.9628,0.3622,0.7561,-0.1999,
6.768151,-0.5468,-0.9548,-0.0462,-10.5550,-2.1253,0.9628,0.3200,0.7518,0.1275,
6.771613,-0.5468,-0.9548,-0.0462,-12.3652,-2.5370,0.2997,0.3200,0.7518,0.1275,
6.795495,-0.5800,-0.9098,-0.0169,-12.3652,-2.5370,0.2997,0.3200,0.7518,0.1275,
6.797815,-0.5419,-0.8739,0.0472,-12.3652,-2.5370,0.2997,0.3200,0.7518,0.1275,
6.799067,-0.5050,-0.8671,-0.0388,-12.3652,-2.5370,0.2997,0.3200,0.7518,0.1275,
6.828066,-0.5050,-0.8671,-0.0388,-11.9105,-1.5990,-0.0294,0.3200,0.7518,0.1275,
6.831228,-0.5050,-0.8671,-0.0388,-11.9105,-1.5990,-0.0294,0.0421,0.6419,0.0518,
6.856049,-0.5368,-0.9680,-0.1024,-11.9105,-1.5990,-0.0294,0.0421,0.6419,0.0518,
6.859391,-0.6682,-1.1900,-0.1092,-11.9105,-1.5990,-0.0294,0.0421,0.6419,0.0518,
6.861233,-0.5756,-1.0960,-0.0936,-11.9105,-1.5990,-0.0294,0.0421,0.6419,0.0518,
6.889408,-0.5756,-1.0960,-0.0936,-12.4671,-3.7003,-0.8258,0.0421,0.6419,0.0518,
6.892488,-0.5756,-1.0960,-0.0936,-12.4671,-3.7003,-0.8258,-0.1265,0.2937,0.4061,
6.918408,-0.5097,-0.9562,-0.1888,-12.4671,-3.7003,-0.8258,-0.1265,0.2937,0.4061,
6.921152,-0.4837,-0.8983,-0.2279,-12.4671,-3.7003,-0.8258,-0.1265,0.2937,0.4061,
6.923797,-0.4520,-0.9284,-0.2768,-12.4671,-3.7003,-0.8258,-0.1265,0.2937,0.4061,
6.948413,-0.4520,-0.9284,-0.2768,-12.4671,-3.7003,-0.8258,-0.1131,0.2216,-0.1321,
6.950879,-0.4520,-0.9284,-0.2768,-11.1271,-1.9355,-2.6464,-0.1131,0.2216,-0.1321,
6.976864,-0.3398,-0.9286,-0.3051,-11.1271,-1.9355,-2.6464,-0.1131,0.2216,-0.1321,
6.980575,-0.2133,-0.8874,-0.3909,-11.1271,-1.9355,-2.6464,-0.1131,0.2216,-0.1321,
6.982136,-0.0880,-0.8297,-0.3647,-11.1271,-1.9355,-2.6464,-0.1131,0.2216,-0.1321,
7.008939,-0.0880,-0.8297,-0.3647,-7.5931,-0.9998,-3.4918,-0.1131,0.2216,-0.1321,
7.012195,-0.0880,-0.8297,-0.3647,-7.5931,-0.9998,-3.4918,0.2718,-0.1626,-0.1095,
7.039163,-0.0269,-0.8392,-0.1888,-7.5931,-0.9998,-3.4918,0.2718,-0.1626,-0.1095,
7.042143,-0.1202,-0.9826,-0.1085,-7.5931,-0.9998,-3.4918,0.2718,-0.1626,-0.1095,
7.043981,-0.2856,-1.1439,-0.1214,-7.5931,-0.9998,-3.4918,0.2718,-0.1626,-0.1095,
7.069048,-0.2856,-1.1439,-0.1214,-7.5931,-0.9998,-3.4918,0.7537,-0.1969,0.4892,
7.072779,-0.2856,-1.1439,-0.1214,-9.4109,-3.9678,-1.1527,0.7537,-0.1969,0.4892,
7.096275,-0.4356,-1.2013,-0.1048,-9.4109,-3.9678,-1.1527,0.7537,-0.1969,0.4892,
7.099130,-0.5060,-1.1363,-0.0911,-9.4109,-3.9678,-1.1527,0.7537,-0.1969,0.4892,
7.101391,-0.4779,-0.9770,-0.1029,-9.4109,-3.9678,-1.1527,0.7537,-0.1969,0.4892,
7.127737,-0.4779,-0.9770,-0.1029,-9.4109,-3.9678,-1.1527,0.7354,-0.0173,-0.2268,
7.130046,-0.4779,-0.9770,-0.1029,-11.1423,-2.2030,-1.3322,0.7354,-0.0173,-0.2268,
7.156099,-0.4077,-0.8434,-0.1087,-11.1423,-2.2030,-1.3322,0.7354,-0.0173,-0.2268,
7.158808,-0.3787,-0.7940,-0.0933,-11.1423,-2.2030,-1.3322,0.7354,-0.0173,-0.2268,
7.160464,-0.4095,-0.8148,-0.0787,-11.1423,-2.2030,-1.3322,0.7354,-0.0173,-0.2268,
7.188680,-0.4095,-0.8148,-0.0787,-11.1423,-2.2030,-1.3322,0.1905,-0.0594,-0.1645,
7.192005,-0.4095,-0.8148,-0.0787,-10.5582,-0.6996,-1.2700,0.1905,-0.0594,-0.1645,
7.215202,-0.3757,-0.8395,-0.0173,-10.5582,-0.6996,-1.2700,0.1905,-0.0594,-0.1645,
7.217275,-0.3196,-0.8583,0.0259,-10.5582,-0.6996,-1.2700,0.1905,-0.0594,-0.1645,
7.222981,-0.2824,-0.8656,0.0454,-10.5582,-0.6996,-1.2700,0.1905,-0.0594,-0.1645,
7.248257,-0.2824,-0.8656,0.0454,-10.5582,-0.6996,-1.2700,0.1343,0.0744,0.0744,
7.251515,-0.2824,-0.8656,0.0454,-9.2792,-1.1708,-0.1045,0.1343,0.0744,0.0744,
7.277030,-0.2660,-0.8549,0.0501,-9.2792,-1.1708,-0.1045,0.1343,0.0744,0.0744,
7.280076,-0.2983,-0.8356,0.0327,-9.2792,-1.1708,-0.1045,0.1343,0.0744,0.0744,
7.281912,-0.3403,-0.8141,0.0447,-9.2792,-1.1708,-0.1045,0.1343,0.0744,0.0744,
7.309165,-0.3403,-0.8141,0.0447,-9.2792,-1.1708,-0.1045,0.2156,0.5221,0.1043,
7.312722,-0.3403,-0.8141,0.0447,-9.7480,-0.5932,-0.2784,0.2156,0.5221,0.1043,
7.336898,-0.3594,-0.8094,0.0811,-9.7480,-0.5932,-0.2784,0.2156,0.5221,0.1043,
7.342070,-0.3792,-0.8502,0.1002,-9.7480,-0.5932,-0.2784,0.2156,0.5221,0.1043,
7.343718,-0.3623,-0.8856,0.0970,-9.7480,-0.5932,-0.2784,0.2156,0.5221,0.1043,
7.367803,-0.3623,-0.8856,0.0970,-9.7480,-0.5932,-0.2784,0.1594,0.5270,0.1434,
7.370516,-0.3623,-0.8856,0.0970,-9.8274,-1.2145,-0.0739,0.1594,0.5270,0.1434,
7.395680,-0.3437,-0.8939,0.0963,-9.8274,-1.2145,-0.0739,0.1594,0.5270,0.1434,
7.398386,-0.3340,-0.9123,0.0911,-9.8274,-1.2145,-0.0739,0.1594,0.5270,0.1434,
7.399742,-0.3572,-0.9387,0.0694,-9.8274,-1.2145,-0.0739,0.1594,0.5270,0.1434,
7.428050,-0.3572,-0.9387,0.0694,-9.8274,-1.2145,-0.0739,0.1771,0.2931,0.0677,
7.430829,-0.3572,-0.9387,0.0694,-9.6504,-1.6682,-0.5991,0.1771,0.2931,0.0677,
7.456963,-0.3816,-0.9494,0.0577,-9.6504,-1.6682,-0.5991,0.1771,0.2931,0.0677,
7.460257,-0.4327,-0.9562,0.0635,-9.6504,-1.6682,-0.5991,0.1771,0.2931,0.0677,
7.462096,-0.4791,-0.9528,0.0970,-9.6504,-1.6682,-0.5991,0.1771,0.2931,0.0677,
7.487626,-0.4791,-0.9528,0.0970,-9.6504,-1.6682,-0.5991,0.0176,0.0475,0.0896,
7.490718,-0.4791,-0.9528,0.0970,-10.7412,-1.7437,-0.4445,0.0176,0.0475,0.0896,
7.516050,-0.4935,-0.9453,0.1485,-10.7412,-1.7437,-0.4445,0.0176,0.0475,0.0896,
7.518943,-0.4820,-0.9176,0.1810,-10.7412,-1.7437,-0.4445,0.0176,0.0475,0.0896,
7.521403,-0.4505,-0.8847,0.2113,-10.7412,-1.7437,-0.4445,0.0176,0.0475,0.0896,
7.548504,-0.4505,-0.8847,0.2113,-10.4142,-1.0291,0.7296,0.0176,0.0475,0.0896,
7.551430,-0.4505,-0.8847,0.2113,-10.4142,-1.0291,0.7296,-0.0581,-0.5139,-0.0942,
7.582020,-0.4493,-0.8886,0.2555,-10.4142,-1.0291,0.7296,-0.0581,-0.5139,-0.0942,
7.588653,-0.4854,-1.2169,0.1744,-10.4142,-1.0291,0.7296,-0.0581,-0.5139,-0.0942,
7.591196,-0.4180,-1.4302,-0.1141,-10.4142,-1.0291,0.7296,-0.0581,-0.5139,-0.0942,
7.609793,-0.4180,-1.4302,-0.1141,-10.4142,-1.0291,0.7296,-0.1919,0.6229,-0.7381,
7.611690,-0.4180,-1.4302,-0.1141,-10.3345,-6.5610,-2.4143,-0.1919,0.6229,-0.7381,
7.636796,-0.2758,-1.1898,-0.0921,-10.3345,-6.5610,-2.4143,-0.1919,0.6229,-0.7381,
7.638429,-0.0943,-1.0036,0.0056,-10.3345,-6.5610,-2.4143,-0.1919,0.6229,-0.7381,
7.639445,-0.0603,-0.9562,-0.0010,-10.3345,-6.5610,-2.4143,-0.1919,0.6229,-0.7381,
7.667940,-0.0603,-0.9562,-0.0010,-10.3345,-6.5610,-2.4143,0.2614,0.0188,0.1862,
7.670324,-0.0603,-0.9562,-0.0010,-6.8854,-1.9773,-1.3828,0.2614,0.0188,0.1862,
7.695580,-0.1676,-0.9267,-0.0503,-6.8854,-1.9773,-1.3828,0.2614,0.0188,0.1862,
7.698356,-0.2279,-0.8480,-0.1717,-6.8854,-1.9773,-1.3828,0.2614,0.0188,0.1862,
7.699971,-0.2360,-0.7479,-0.2839,-6.8854,-1.9773,-1.3828,0.2614,0.0188,0.1862,
7.728279,-0.2360,-0.7479,-0.2839,-8.5299,0.1293,-4.1577,0.2614,0.0188,0.1862,
7.730874,-0.2360,-0.7479,-0.2839,-8.5299,0.1293,-4.1577,-0.2866,0.1385,-0.2757,
7.756921,-0.3166,-0.7237,-0.3020,-8.5299,0.1293,-4.1577,-0.2866,0.1385,-0.2757,
7.759099,-0.3953,-0.8404,-0.2191,-8.5299,0.1293,-4.1577,-0.2866,0.1385,-0.2757,
7.760202,-0.3816,-1.0163,-0.1791,-8.5299,0.1293,-4.1577,-0.2866,0.1385,-0.2757,
7.787830,-0.3816,-1.0163,-0.1791,-10.0390,-2.6055,-3.3036,-0.2866,0.1385,-0.2757,
7.791246,-0.3816,-1.0163,-0.1791,-10.0390,-2.6055,-3.3036,0.4281,0.6840,-0.1724,
7.816795,-0.3330,-1.1492,-0.1498,-10.0390,-2.6055,-3.3036,0.4281,0.6840,-0.1724,
7.818400,-0.2963,-1.1536,-0.0901,-10.0390,-2.6055,-3.3036,0.4281,0.6840,-0.1724,
7.819485,-0.3232,-1.0615,-0.0765,-10.0390,-2.6055,-3.3036,0.4281,0.6840,-0.1724,
7.847958,-0.3232,-1.0615,-0.0765,-9.1322,-2.8911,-2.7895,0.4281,0.6840,-0.1724,
7.849592,-0.3232,-1.0615,-0.0765,-9.1322,-2.8911,-2.7895,0.3579,0.9797,1.0640,
7.875354,-0.3608,-0.9465,-0.1380,-9.1322,-2.8911,-2.7895,0.3579,0.9797,1.0640,
7.877959,-0.3606,-0.8588,-0.1397,-9.1322,-2.8911,-2.7895,0.3579,0.9797,1.0640,
7.879420,-0.3484,-0.8358,-0.1273,-9.1322,-2.8911,-2.7895,0.3579,0.9797,1.0640,
7.908584,-0.3484,-0.8358,-0.1273,-8.8110,-0.3979,-3.7600,0.3579,0.9797,1.0640,
7.911215,-0.3484,-0.8358,-0.1273,-8.8110,-0.3979,-3.7600,0.3481,1.2399,0.3499,
7.935504,-0.3286,-0.8001,-0.1051,-8.8110,-0.3979,-3.7600,0.3481,1.2399,0.3499,
7.938179,-0.3494,-0.7970,-0.0916,-8.8110,-0.3979,-3.7600,0.3481,1.2399,0.3499,
7.940258,-0.4024,-0.8207,-0.0760,-8.8110,-0.3979,-3.7600,0.3481,1.2399,0.3499,
7.969912,-0.4024,-0.8207,-0.0760,-9.0009,-0.2435,-3.8700,0.3481,1.2399,0.3499,
7.973483,-0.4024,-0.8207,-0.0760,-9.0009,-0.2435,-3.8700,0.5259,1.2564,0.0170,
7.998652,-0.4246,-0.8558,-0.0743,-9.0009,-0.2435,-3.8700,0.5259,1.2564,0.0170,
8.001458,-0.4551,-0.9025,-0.0349,-9.0009,-0.2435,-3.8700,0.5259,1.2564,0.0170,
8.003251,-0.4933,-0.9179,0.0090,-9.0009,-0.2435,-3.8700,0.5259,1.2564,0.0170,
8.028876,-0.4933,-0.9179,0.0090,-9.5542,-1.2495,-3.6385,0.5259,1.2564,0.0170,
8.031444,-0.4933,-0.9179,0.0090,-9.5542,-1.2495,-3.6385,0.5039,1.0536,0.2918,
8.055467,-0.5402,-0.9032,-0.0046,-9.5542,-1.2495,-3.6385,0.5039,1.0536,0.2918,
8.057606,-0.5829,-0.8556,-0.0315,-9.5542,-1.2495,-3.6385,0.5039,1.0536,0.2918,
8.059045,-0.5810,-0.8021,-0.0247,-9.5542,-1.2495,-3.6385,0.5039,1.0536,0.2918,
8.087762,-0.5810,-0.8021,-0.0247,-9.5542,-1.2495,-3.6385,0.4880,0.7463,-0.0032,
8.089926,-0.5810,-0.8021,-0.0247,-10.0296,-0.1180,-4.4160,0.4880,0.7463,-0.0032,
8.115357,-0.5233,-0.7869,-0.0501,-10.0296,-0.1180,-4.4160,0.4880,0.7463,-0.0032,
8.117764,-0.4324,-0.8370,-0.0225,-10.0296,-0.1180,-4.4160,0.4880,0.7463,-0.0032,
8.119926,-0.3787,-0.8939,-0.0161,-10.0296,-0.1180,-4.4160,0.4880,0.7463,-0.0032,
8.147656,-0.3787,-0.8939,-0.0161,-10.0296,-0.1180,-4.4160,0.4355,0.9369,-0.1907,
8.149938,-0.3787,-0.8939,-0.0161,-7.8756,-1.1554,-4.7391,0.4355,0.9369,-0.1907,
8.176306,-0.3911,-0.9352,-0.0235,-7.8756,-1.1554,-4.7391,0.4355,0.9369,-0.1907,
8.179090,-0.4573,-0.9316,-0.0335,-7.8756,-1.1554,-4.7391,0.4355,0.9369,-0.1907,
8.180960,-0.5141,-0.9128,0.0027,-7.8756,-1.1554,-4.7391,0.4355,0.9369,-0.1907,
8.207359,-0.5141,-0.9128,0.0027,-7.8756,-1.1554,-4.7391,0.4575,1.2222,-0.0405,
8.210661,-0.5141,-0.9128,0.0027,-8.8985,-1.4490,-4.9811,0.4575,1.2222,-0.0405,
8.235748,-0.5153,-0.9020,0.0535,-8.8985,-1.4490,-4.9811,0.4575,1.2222,-0.0405,
8.238746,-0.4534,-0.8966,0.0972,-8.8985,-1.4490,-4.9811,0.4575,1.2222,-0.0405,
8.240388,-0.4178,-0.8852,-0.0188,-8.8985,-1.4490,-4.9811,0.4575,1.2222,-0.0405,
8.268171,-0.4178,-0.8852,-0.0188,-7.5371,-1.2953,-5.6490,0.4575,1.2222,-0.0405,
8.270850,-0.4178,-0.8852,-0.0188,-7.5371,-1.2953,-5.6490,0.2852,1.3523,-0.3080,
8.295592,-0.4168,-0.9831,-0.1214,-7.5371,-1.2953,-5.6490,0.2852,1.3523,-0.3080,
8.298157,-0.5407,-1.2186,-0.0379,-7.5371,-1.2953,-5.6490,0.2852,1.3523,-0.3080,
8.299496,-0.4952,-1.1199,-0.1593,-7.5371,-1.2953,-5.6490,0.2852,1.3523,-0.3080,
8.327817,-0.4952,-1.1199,-0.1593,-7.5371,-1.2953,-5.6490,0.3188,1.1904,0.1935,
8.330806,-0.4952,-1.1199,-0.1593,-7.8247,-3.7217,-7.4537,0.3188,1.1904,0.1935,
8.356013,-0.4969,-1.0095,-0.1568,-7.8247,-3.7217,-7.4537,0.3188,1.1904,0.1935,
8.358007,-0.4710,-1.0049,-0.1244,-7.8247,-3.7217,-7.4537,0.3188,1.1904,0.1935,
8.359167,-0.4485,-0.9709,-0.1551,-7.8247,-3.7217,-7.4537,0.3188,1.1904,0.1935,
8.388161,-0.4485,-0.9709,-0.1551,-7.8247,-3.7217,-7.4537,0.3084,1.0493,0.0267,
8.391187,-0.4485,-0.9709,-0.1551,-6.8561,-2.3326,-7.7277,0.3084,1.0493,0.0267,
8.416460,-0.4529,-0.8932,-0.1803,-6.8561,-2.3326,-7.7277,0.3084,1.0493,0.0267,
8.418846,-0.4424,-0.8615,-0.2060,-6.8561,-2.3326,-7.7277,0.3084,1.0493,0.0267,
8.420393,-0.3889,-0.8685,-0.2577,-6.8561,-2.3326,-7.7277,0.3084,1.0493,0.0267,
8.447741,-0.3889,-0.8685,-0.2577,-6.8561,-2.3326,-7.7277,0.1587,0.9516,-0.0551,
8.449664,-0.3889,-0.8685,-0.2577,-5.8493,-1.3690,-8.9290,0.1587,0.9516,-0.0551,
8.476355,-0.3193,-0.8905,-0.2983,-5.8493,-1.3690,-8.9290,0.1587,0.9516,-0.0551,
8.478282,-0.2162,-0.8952,-0.2900,-5.8493,-1.3690,-8.9290,0.1587,0.9516,-0.0551,
8.479431,-0.1287,-0.9062,-0.2184,-5.8493,-1.3690,-8.9290,0.1587,0.9516,-0.0551,
8.507757,-0.1287,-0.9062,-0.2184,-5.8493,-1.3690,-8.9290,0.6016,0.9058,-0.1645,
8.510248,-0.1287,-0.9062,-0.2184,-2.9604,-1.8332,-8.7451,0.6016,0.9058,-0.1645,
8.535253,-0.0901,-0.9455,-0.1344,-2.9604,-1.8332,-8.7451,0.6016,0.9058,-0.1645,
8.537940,-0.1168,-1.0195,-0.0767,-2.9604,-1.8332,-8.7451,0.6016,0.9058,-0.1645,
8.539694,-0.2160,-1.0957,-0.0523,-2.9604,-1.8332,-8.7451,0.6016,0.9058,-0.1645,
8.567500,-0.2160,-1.0957,-0.0523,-2.9604,-1.8332,-8.7451,1.1196,0.8667,0.1440,
8.569693,-0.2160,-1.0957,-0.0523,-3.4740,-3.9886,-7.4958,1.1196,0.8667,0.1440,
8.595627,-0.3310,-1.1194,-0.0410,-3.4740,-3.9886,-7.4958,1.1196,0.8667,0.1440,
8.597746,-0.4126,-1.0611,-0.0679,-3.4740,-3.9886,-7.4958,1.1196,0.8667,0.1440,
8.599152,-0.4666,-0.9577,-0.0738,-3.4740,-3.9886,-7.4958,1.1196,0.8667,0.1440,
8.627669,-0.4666,-0.9577,-0.0738,-3.4740,-3.9886,-7.4958,0.9498,1.1153,-0.2115,
8.629970,-0.4666,-0.9577,-0.0738,-5.4588,-3.0604,-8.1647,0.9498,1.1153,-0.2115,
8.655693,-0.4686,-0.8676,-0.0987,-5.4588,-3.0604,-8.1647,0.9498,1.1153,-0.2115,
8.658449,-0.4058,-0.8285,-0.0305,-5.4588,-3.0604,-8.1647,0.9498,1.1153,-0.2115,
8.660326,-0.3425,-0.8400,-0.0283,-5.4588,-3.0604,-8.1647,0.9498,1.1153,-0.2115,
8.688117,-0.3425,-0.8400,-0.0283,-3.7479,-2.2384,-8.0301,0.9498,1.1153,-0.2115,
8.690977,-0.3425,-0.8400,-0.0283,-3.7479,-2.2384,-8.0301,0.5161,1.2448,-0.1119,
8.715963,-0.2805,-0.8368,-0.0222,-3.7479,-2.2384,-8.0301,0.5161,1.2448,-0.1119,
8.718448,-0.2455,-0.8358,0.0415,-3.7479,-2.2384,-8.0301,0.5161,1.2448,-0.1119,
8.720374,-0.2365,-0.8509,0.0833,-3.7479,-2.2384,-8.0301,0.5161,1.2448,-0.1119,
8.748709,-0.2365,-0.8509,0.0833,-2.0906,-2.5457,-7.0927,0.5161,1.2448,-0.1119,
8.751504,-0.2365,-0.8509,0.0833,-2.0906,-2.5457,-7.0927,0.5735,1.3010,0.1336,
8.777958,-0.2599,-0.8861,0.0743,-2.0906,-2.5457,-7.0927,0.5735,1.3010,0.1336,
8.781250,-0.3034,-0.9008,0.0701,-2.0906,-2.5457,-7.0927,0.5735,1.3010,0.1336,
8.783378,-0.3518,-0.9003,0.0950,-2.0906,-2.5457,-7.0927,0.5735,1.3010,0.1336,
8.809370,-0.3518,-0.9003,0.0950,-2.0906,-2.5457,-7.0927,0.6468,1.4006,0.3621,
8.813555,-0.3518,-0.9003,0.0950,-2.4862,-3.2887,-7.1072,0.6468,1.4006,0.3621,
8.835628,-0.3782,-0.8974,0.1124,-2.4862,-3.2887,-7.1072,0.6468,1.4006,0.3621,
8.838414,-0.3972,-0.9001,0.0992,-2.4862,-3.2887,-7.1072,0.6468,1.4006,0.3621,
8.840416,-0.3924,-0.9040,0.0733,-2.4862,-3.2887,-7.1072,0.6468,1.4006,0.3621,
8.868535,-0.3924,-0.9040,0.0733,-2.0944,-3.6098,-7.3782,0.6468,1.4006,0.3621,
8.871076,-0.3924,-0.9040,0.0733,-2.0944,-3.6098,-7.3782,0.5295,1.2069,0.2955,
8.897612,-0.3877,-0.8947,0.0699,-2.0944,-3.6098,-7.3782,0.5295,1.2069,0.2955,
8.900918,-0.4048,-0.8959,0.0650,-2.0944,-3.6098,-7.3782,0.5295,1.2069,0.2955,
8.902848,-0.4324,-0.9008,0.0569,-2.0944,-3.6098,-7.3782,0.5295,1.2069,0.2955,
8.929968,-0.4324,-0.9008,0.0569,-2.0944,-3.6098,-7.3782,0.3640,0.6260,0.2454,
8.933099,-0.4324,-0.9008,0.0569,-1.9117,-3.8015,-7.5351,0.3640,0.6260,0.2454,
8.956054,-0.4718,-0.9179,0.0662,-1.9117,-3.8015,-7.5351,0.3640,0.6260,0.2454,
8.958937,-0.4818,-0.9220,0.0823,-1.9117,-3.8015,-7.5351,0.3640,0.6260,0.2454,
8.961082,-0.4441,-0.8935,0.0999,-1.9117,-3.8015,-7.5351,0.3640,0.6260,0.2454,
8.988694,-0.4441,-0.8935,0.0999,-1.7930,-3.8061,-7.0903,0.3640,0.6260,0.2454,
8.991385,-0.4441,-0.8935,0.0999,-1.7930,-3.8061,-7.0903,-0.0221,0.0047,-0.1003,
9.015664,-0.4314,-0.8793,0.1385,-1.7930,-3.8061,-7.0903,-0.0221,0.0047,-0.1003,
9.019088,-0.4603,-0.9328,0.1781,-1.7930,-3.8061,-7.0903,-0.0221,0.0047,-0.1003,
9.021126,-0.4774,-1.1243,0.1246,-1.7930,-3.8061,-7.0903,-0.0221,0.0047,-0.1003,
9.048212,-0.4774,-1.1243,0.1246,-1.7930,-3.8061,-7.0903,-0.0062,0.8105,-0.6678,
9.051052,-0.4774,-1.1243,0.1246,-2.1614,-6.0038,-6.8219,-0.0062,0.8105,-0.6678,
9.076717,-0.3823,-1.2902,-0.0425,-2.1614,-6.0038,-6.8219,-0.0062,0.8105,-0.6678,
9.079683,-0.2140,-1.2093,-0.0364,-2.1614,-6.0038,-6.8219,-0.0062,0.8105,-0.6678,
9.081558,-0.1945,-1.0425,0.0884,-2.1614,-6.0038,-6.8219,-0.0062,0.8105,-0.6678,
9.108360,-0.1945,-1.0425,0.0884,-2.1614,-6.0038,-6.8219,0.4978,0.1648,0.2992,
9.111663,-0.1945,-1.0425,0.0884,0.7445,-5.2623,-7.1710,0.4978,0.1648,0.2992,
9.139818,-0.2485,-0.9433,0.0728,0.7445,-5.2623,-7.1710,0.4978,0.1648,0.2992,
9.142213,-0.3259,-0.9191,-0.0313,0.7445,-5.2623,-7.1710,0.4978,0.1648,0.2992,
9.144078,-0.2959,-0.8524,-0.1441,0.7445,-5.2623,-7.1710,0.4978,0.1648,0.2992,
9.168084,-0.2959,-0.8524,-0.1441,0.7445,-5.2623,-7.1710,0.0189,0.5899,-0.0417,
9.170583,-0.2959,-0.8524,-0.1441,0.0294,-3.5290,-9.4323,0.0189,0.5899,-0.0417,
9.196210,-0.2235,-0.7962,-0.2081,0.0294,-3.5290,-9.4323,0.0189,0.5899,-0.0417,
9.198776,-0.1744,-0.8001,-0.2162,0.0294,-3.5290,-9.4323,0.0189,0.5899,-0.0417,
9.200739,-0.1793,-0.8597,-0.2072,0.0294,-3.5290,-9.4323,0.0189,0.5899,-0.0417,
9.228991,-0.1793,-0.8597,-0.2072,0.0294,-3.5290,-9.4323,0.3054,0.8300,-0.2518,
9.231791,-0.1793,-0.8597,-0.2072,1.4541,-3.5361,-9.9012,0.3054,0.8300,-0.2518,
9.255721,-0.2707,-0.9714,-0.1896,1.4541,-3.5361,-9.9012,0.3054,0.8300,-0.2518,
9.258366,-0.3525,-1.0852,-0.1898,1.4541,-3.5361,-9.9012,0.3054,0.8300,-0.2518,
9.259788,-0.3950,-1.1028,-0.1776,1.4541,-3.5361,-9.9012,0.3054,0.8300,-0.2518,
9.289631,-0.3950,-1.1028,-0.1776,1.4541,-3.5361,-9.9012,0.6670,1.2540,0.3914,
9.293296,-0.3950,-1.1028,-0.1776,-0.1913,-6.0929,-9.5121,0.6670,1.2540,0.3914,
9.315557,-0.4178,-1.0706,-0.1617,-0.1913,-6.0929,-9.5121,0.6670,1.2540,0.3914,
9.318478,-0.4185,-1.0039,-0.1608,-0.1913,-6.0929,-9.5121,0.6670,1.2540,0.3914,
9.321531,-0.4209,-0.9423,-0.1583,-0.1913,-6.0929,-9.5121,0.6670,1.2540,0.3914,
9.348613,-0.4209,-0.9423,-0.1583,0.3112,-4.8999,-9.1474,0.6670,1.2540,0.3914,
9.351240,-0.4209,-0.9423,-0.1583,0.3112,-4.8999,-9.1474,0.6450,1.3266,0.5411,
9.377479,-0.4153,-0.9093,-0.1417,0.3112,-4.8999,-9.1474,0.6450,1.3266,0.5411,
9.379332,-0.4136,-0.8754,-0.1300,0.3112,-4.8999,-9.1474,0.6450,1.3266,0.5411,
9.381139,-0.4092,-0.8556,-0.1224,0.3112,-4.8999,-9.1474,0.6450,1.3266,0.5411,
9.408968,-0.4092,-0.8556,-0.1224,0.3112,-4.8999,-9.1474,0.4843,1.5918,0.0738,
9.411709,-0.4092,-0.8556,-0.1224,1.1839,-4.3574,-8.4776,0.4843,1.5918,0.0738,
9.436075,-0.3801,-0.8299,-0.1148,1.1839,-4.3574,-8.4776,0.4843,1.5918,0.0738,
9.439940,-0.3586,-0.8040,-0.1229,1.1839,-4.3574,-8.4776,0.4843,1.5918,0.0738,
9.441576,-0.3745,-0.8172,-0.1134,1.1839,-4.3574,-8.4776,0.4843,1.5918,0.0738,
9.469449,-0.3745,-0.8172,-0.1134,1.1839,-4.3574,-8.4776,0.5570,1.5802,-0.2970,
9.472368,-0.3745,-0.8172,-0.1134,2.1598,-4.0957,-7.9568,0.5570,1.5802,-0.2970,
9.496640,-0.4324,-0.9015,-0.0897,2.1598,-4.0957,-7.9568,0.5570,1.5802,-0.2970,
9.499759,-0.4747,-0.9704,-0.0750,2.1598,-4.0957,-7.9568,0.5570,1.5802,-0.2970,
9.501779,-0.4903,-0.9929,-0.0608,2.1598,-4.0957,-7.9568,0.5570,1.5802,-0.2970,
9.530293,-0.4903,-0.9929,-0.0608,1.6217,-5.9645,-6.9746,0.5570,1.5802,-0.2970,
9.533371,-0.4903,-0.9929,-0.0608,1.6217,-5.9645,-6.9746,0.7415,1.5301,0.0438,
9.556267,-0.5043,-0.9621,-0.0450,1.6217,-5.9645,-6.9746,0.7415,1.5301,0.0438,
9.559119,-0.5101,-0.9088,-0.0247,1.6217,-5.9645,-6.9746,0.7415,1.5301,0.0438,
9.560660,-0.5133,-0.8666,-0.0139,1.6217,-5.9645,-6.9746,0.7415,1.5301,0.0438,
9.589973,-0.5133,-0.8666,-0.0139,1.9592,-5.0067,-6.0663,0.7415,1.5301,0.0438,
9.593332,-0.5133,-0.8666,-0.0139,1.9592,-5.0067,-6.0663,0.8539,1.4952,0.0316,
9.616643,-0.5206,-0.8646,0.0105,1.9592,-5.0067,-6.0663,0.8539,1.4952,0.0316,
9.618814,-0.5099,-0.8509,-0.0042,1.9592,-5.0067,-6.0663,0.8539,1.4952,0.0316,
9.619930,-0.5079,-0.8094,-0.0606,1.9592,-5.0067,-6.0663,0.8539,1.4952,0.0316,
9.648593,-0.5079,-0.8094,-0.0606,2.4977,-4.6403,-6.0205,0.8539,1.4952,0.0316,
9.651200,-0.5079,-0.8094,-0.0606,2.4977,-4.6403,-6.0205,0.6059,1.3242,-0.1486,
9.676613,-0.5426,-0.8128,-0.0489,2.4977,-4.6403,-6.0205,0.6059,1.3242,-0.1486,
9.679830,-0.5666,-0.8334,-0.0044,2.4977,-4.6403,-6.0205,0.6059,1.3242,-0.1486,
9.681649,-0.5707,-0.8348,0.0230,2.4977,-4.6403,-6.0205,0.6059,1.3242,-0.1486,
9.708798,-0.5707,-0.8348,0.0230,2.4977,-4.6403,-6.0205,0.5882,1.2185,-0.3422,
9.712474,-0.5707,-0.8348,0.0230,2.2515,-4.9481,-4.6922,0.5882,1.2185,-0.3422,
9.737874,-0.5375,-0.8444,-0.0247,2.2515,-4.9481,-4.6922,0.5882,1.2185,-0.3422,
9.742303,-0.4507,-0.9291,-0.1305,2.2515,-4.9481,-4.6922,0.5882,1.2185,-0.3422,
9.744142,-0.3442,-1.0557,-0.0606,2.2515,-4.9481,-4.6922,0.5882,1.2185,-0.3422,
9.768574,-0.3442,-1.0557,-0.0606,4.7594,-7.0860,-4.9985,0.5882,1.2185,-0.3422,
9.771469,-0.3442,-1.0557,-0.0606,4.7594,-7.0860,-4.9985,0.4459,1.2399,-0.0069,
9.796242,-0.2328,-1.0611,-0.0938,4.7594,-7.0860,-4.9985,0.4459,1.2399,-0.0069,
9.800379,-0.2414,-1.0334,-0.1156,4.7594,-7.0860,-4.9985,0.4459,1.2399,-0.0069,
9.802142,-0.3308,-0.9773,-0.1849,4.7594,-7.0860,-4.9985,0.4459,1.2399,-0.0069,
9.829248,-0.3308,-0.9773,-0.1849,4.7594,-7.0860,-4.9985,0.1221,1.0261,0.3071,
9.831740,-0.3308,-0.9773,-0.1849,5.2091,-6.4601,-5.6903,0.1221,1.0261,0.3071,
9.855928,-0.3770,-0.9523,-0.1947,5.2091,-6.4601,-5.6903,0.1221,1.0261,0.3071,
9.858227,-0.3464,-0.9553,-0.1739,5.2091,-6.4601,-5.6903,0.1221,1.0261,0.3071,
9.859351,-0.2851,-0.9782,-0.1612,5.2091,-6.4601,-5.6903,0.1221,1.0261,0.3071,
9.888122,-0.2851,-0.9782,-0.1612,5.2091,-6.4601,-5.6903,0.3561,1.5240,-0.2592,
9.890814,-0.2851,-0.9782,-0.1612,5.9081,-6.4575,-4.8437,0.3561,1.5240,-0.2592,
9.915691,-0.2147,-0.9980,-0.1642,5.9081,-6.4575,-4.8437,0.3561,1.5240,-0.2592,
9.918734,-0.1747,-0.9968,-0.1832,5.9081,-6.4575,-4.8437,0.3561,1.5240,-0.2592,
9.920709,-0.1732,-0.9897,-0.1847,5.9081,-6.4575,-4.8437,0.3561,1.5240,-0.2592,
9.949779,-0.1732,-0.9897,-0.1847,7.2227,-6.4811,-4.3087,0.3561,1.5240,-0.2592,
9.952853,-0.1732,-0.9897,-0.1847,7.2227,-6.4811,-4.3087,0.4972,1.5747,-0.0826,
9.975977,-0.2001,-0.9865,-0.1705,7.2227,-6.4811,-4.3087,0.4972,1.5747,-0.0826,
9.978971,-0.2101,-1.0058,-0.1803,7.2227,-6.4811,-4.3087,0.4972,1.5747,-0.0826,
9.980969,-0.2228,-1.0129,-0.1603,7.2227,-6.4811,-4.3087,0.4972,1.5747,-0.0826,
10.010176,-0.2228,-1.0129,-0.1603,6.9152,-6.6881,-3.2721,0.4972,1.5747,-0.0826,
10.014077,-0.2228,-1.0129,-0.1603,6.9152,-6.6881,-3.2721,0.7055,1.7671,-0.0783,
10.036930,-0.2323,-0.9975,-0.1202,6.9152,-6.6881,-3.2721,0.7055,1.7671,-0.0783,
10.039518,-0.2223,-0.9799,-0.0975,6.9152,-6.6881,-3.2721,0.7055,1.7671,-0.0783,
10.041506,-0.2538,-0.9809,-0.0547,6.9152,-6.6881,-3.2721,0.7055,1.7671,-0.0783,
10.069247,-0.2538,-0.9809,-0.0547,6.9152,-6.6881,-3.2721,0.7886,1.8092,-0.1486,
10.072635,-0.2538,-0.9809,-0.0547,6.7051,-6.3082,-1.3980,0.7886,1.8092,-0.1486,
10.098131,-0.2995,-0.9846,-0.0584,6.7051,-6.3082,-1.3980,0.7886,1.8092,-0.1486,
10.101404,-0.3411,-0.9694,-0.0283,6.7051,-6.3082,-1.3980,0.7886,1.8092,-0.1486,
10.103071,-0.3589,-0.9575,-0.0176,6.7051,-6.3082,-1.3980,0.7886,1.8092,-0.1486,
10.128790,-0.3589,-0.9575,-0.0176,5.6780,-5.9744,-0.2039,0.7886,1.8092,-0.1486,
10.132553,-0.3589,-0.9575,-0.0176,5.6780,-5.9744,-0.2039,0.7983,1.7787,-0.1993,
10.155787,-0.3459,-0.9374,-0.0161,5.6780,-5.9744,-0.2039,0.7983,1.7787,-0.1993,
10.158294,-0.3325,-0.9032,0.0191,5.6780,-5.9744,-0.2039,0.7983,1.7787,-0.1993,
10.159657,-0.3073,-0.8881,0.0452,5.6780,-5.9744,-0.2039,0.7983,1.7787,-0.1993,
10.188290,-0.3073,-0.8881,0.0452,6.0841,-5.1130,1.1800,0.7983,1.7787,-0.1993,
10.190931,-0.3073,-0.8881,0.0452,6.0841,-5.1130,1.1800,0.6389,1.5514,-0.1999,
10.216164,-0.2954,-0.9027,0.0892,6.0841,-5.1130,1.1800,0.6389,1.5514,-0.1999,
10.218597,-0.2941,-0.9211,0.0689,6.0841,-5.1130,1.1800,0.6389,1.5514,-0.1999,
10.220113,-0.3051,-0.9389,0.0689,6.0841,-5.1130,1.1800,0.6389,1.5514,-0.1999,
10.251005,-0.3051,-0.9389,0.0689,6.0841,-5.1130,1.1800,0.5399,1.4745,0.0041,
10.253565,-0.3051,-0.9389,0.0689,5.9641,-5.4581,2.0810,0.5399,1.4745,0.0041,
10.275972,-0.3059,-0.9431,0.0745,5.9641,-5.4581,2.0810,0.5399,1.4745,0.0041,
10.278248,-0.3125,-0.9516,0.0701,5.9641,-5.4581,2.0810,0.5399,1.4745,0.0041,
10.279989,-0.2939,-0.9475,0.0330,5.9641,-5.4581,2.0810,0.5399,1.4745,0.0041,
10.309346,-0.2939,-0.9475,0.0330,5.9172,-5.4755,2.3879,0.5399,1.4745,0.0041,
10.312107,-0.2939,-0.9475,0.0330,5.9172,-5.4755,2.3879,0.4263,1.4842,0.0615,
10.336706,-0.2692,-0.9409,0.0442,5.9172,-5.4755,2.3879,0.4263,1.4842,0.0615,
10.339263,-0.2296,-0.9445,0.0530,5.9172,-5.4755,2.3879,0.4263,1.4842,0.0615,
10.340856,-0.2147,-0.9479,0.0506,5.9172,-5.4755,2.3879,0.4263,1.4842,0.0615,
10.369676,-0.2147,-0.9479,0.0506,6.4798,-5.4071,3.2168,0.4263,1.4842,0.0615,
10.372411,-0.2147,-0.9479,0.0506,6.4798,-5.4071,3.2168,0.3878,1.4012,0.1067,
10.396569,-0.2147,-0.9558,0.0606,6.4798,-5.4071,3.2168,0.3878,1.4012,0.1067,
10.399130,-0.2145,-0.9609,0.0682,6.4798,-5.4071,3.2168,0.3878,1.4012,0.1067,
10.401041,-0.2103,-0.9665,0.0721,6.4798,-5.4071,3.2168,0.3878,1.4012,0.1067,
10.428118,-0.2103,-0.9665,0.0721,6.4798,-5.4071,3.2168,0.3078,1.2100,0.1642,
10.430846,-0.2103,-0.9665,0.0721,6.2980,-5.5384,3.9956,0.3078,1.2100,0.1642,
10.456592,-0.2064,-0.9704,0.0647,6.2980,-5.5384,3.9956,0.3078,1.2100,0.1642,
10.458683,-0.2086,-0.9792,0.0694,6.2980,-5.5384,3.9956,0.3078,1.2100,0.1642,
10.460247,-0.2069,-0.9782,0.0955,6.2980,-5.5384,3.9956,0.3078,1.2100,0.1642,
10.488642,-0.2069,-0.9782,0.0955,6.2980,-5.5384,3.9956,0.2449,0.9766,0.2271,
10.491405,-0.2069,-0.9782,0.0955,6.1185,-5.6384,4.7068,0.2449,0.9766,0.2271,
10.516360,-0.1928,-0.9702,0.1031,6.1185,-5.6384,4.7068,0.2449,0.9766,0.2271,
10.519648,-0.1803,-0.9580,0.1297,6.1185,-5.6384,4.7068,0.2449,0.9766,0.2271,
10.522397,-0.1671,-0.9435,0.1559,6.1185,-5.6384,4.7068,0.2449,0.9766,0.2271,
10.548727,-0.1671,-0.9435,0.1559,6.1185,-5.6384,4.7068,0.1105,0.6266,0.1868,
10.551679,-0.1671,-0.9435,0.1559,6.3456,-5.3221,5.6548,0.1105,0.6266,0.1868,
10.575792,-0.1683,-0.9785,0.1786,6.3456,-5.3221,5.6548,0.1105,0.6266,0.1868,
10.578770,-0.1972,-1.1878,0.0352,6.3456,-5.3221,5.6548,0.1105,0.6266,0.1868,
10.580897,-0.3555,-1.2570,-0.0831,6.3456,-5.3221,5.6548,0.1105,0.6266,0.1868,
10.608297,-0.3555,-1.2570,-0.0831,4.3183,-8.3358,3.5949,0.1105,0.6266,0.1868,
10.611260,-0.3555,-1.2570,-0.0831,4.3183,-8.3358,3.5949,0.2571,0.7915,-0.0869,
10.636761,-0.2751,-1.0967,0.0254,4.3183,-8.3358,3.5949,0.2571,0.7915,-0.0869,
10.639285,-0.1073,-1.0254,0.0308,4.3183,-8.3358,3.5949,0.2571,0.7915,-0.0869,
10.640896,-0.0989,-1.0635,0.0151,4.3183,-8.3358,3.5949,0.2571,0.7915,-0.0869,
10.669661,-0.0989,-1.0635,0.0151,4.3183,-8.3358,3.5949,0.3726,0.3450,0.0139,
10.672126,-0.0989,-1.0635,0.0151,6.6262,-6.2520,4.7399,0.3726,0.3450,0.0139,
10.696121,-0.1903,-1.0325,0.0679,6.6262,-6.2520,4.7399,0.3726,0.3450,0.0139,
10.698764,-0.3337,-0.9646,0.0581,6.6262,-6.2520,4.7399,0.3726,0.3450,0.0139,
10.700479,-0.3950,-0.9274,-0.0249,6.6262,-6.2520,4.7399,0.3726,0.3450,0.0139,
10.728457,-0.3950,-0.9274,-0.0249,6.6262,-6.2520,4.7399,-0.0575,0.5093,0.1416,
10.731347,-0.3950,-0.9274,-0.0249,3.6545,-4.8717,4.4191,-0.0575,0.5093,0.1416,
10.755783,-0.4036,-0.8915,-0.0950,3.6545,-4.8717,4.4191,-0.0575,0.5093,0.1416,
10.758720,-0.3643,-0.8676,-0.1441,3.6545,-4.8717,4.4191,-0.0575,0.5093,0.1416,
10.760377,-0.3042,-0.9152,-0.1764,3.6545,-4.8717,4.4191,-0.0575,0.5093,0.1416,
10.789887,-0.3042,-0.9152,-0.1764,4.3729,-4.7557,3.2050,-0.0575,0.5093,0.1416,
10.792732,-0.3042,-0.9152,-0.1764,4.3729,-4.7557,3.2050,0.0250,0.7011,0.0994,
10.816756,-0.2871,-0.9777,-0.2121,4.3729,-4.7557,3.2050,0.0250,0.7011,0.0994,
10.820557,-0.3054,-0.9609,-0.2497,4.3729,-4.7557,3.2050,0.0250,0.7011,0.0994,
10.822747,-0.3845,-0.9118,-0.2507,4.3729,-4.7557,3.2050,0.0250,0.7011,0.0994,
10.848212,-0.3845,-0.9118,-0.2507,4.3729,-4.7557,3.2050,0.2162,0.6272,0.3664,
10.850691,-0.3845,-0.9118,-0.2507,3.4399,-4.7529,2.7122,0.2162,0.6272,0.3664,
10.875560,-0.4659,-0.8597,-0.2546,3.4399,-4.7529,2.7122,0.2162,0.6272,0.3664,
10.879010,-0.4994,-0.8314,-0.2387,3.4399,-4.7529,2.7122,0.2162,0.6272,0.3664,
10.880931,-0.4837,-0.8678,-0.2116,3.4399,-4.7529,2.7122,0.2162,0.6272,0.3664,
10.907783,-0.4837,-0.8678,-0.2116,3.4399,-4.7529,2.7122,0.0384,0.7824,0.2998,
10.910518,-0.4837,-0.8678,-0.2116,2.3046,-4.3695,3.3522,0.0384,0.7824,0.2998,
10.936083,-0.4549,-0.9176,-0.1639,2.3046,-4.3695,3.3522,0.0384,0.7824,0.2998,
10.938405,-0.4522,-0.9328,-0.1324,2.3046,-4.3695,3.3522,0.0384,0.7824,0.2998,
10.939692,-0.4622,-0.8969,-0.1317,2.3046,-4.3695,3.3522,0.0384,0.7824,0.2998,
10.968420,-0.4622,-0.8969,-0.1317,2.3046,-4.3695,3.3522,-0.0636,0.6663,0.4446,
10.971033,-0.4622,-0.8969,-0.1317,2.3639,-4.7907,4.4241,-0.0636,0.6663,0.4446,
10.995923,-0.4864,-0.8568,-0.1517,2.3639,-4.7907,4.4241,-0.0636,0.6663,0.4446,
10.998735,-0.4842,-0.8439,-0.1415,2.3639,-4.7907,4.4241,-0.0636,0.6663,0.4446,
11.000803,-0.4766,-0.8507,-0.1224,2.3639,-4.7907,4.4241,-0.0636,0.6663,0.4446,
11.028885,-0.4766,-0.8507,-0.1224,2.0858,-4.4692,4.7633,-0.0636,0.6663,0.4446,
11.031604,-0.4766,-0.8507,-0.1224,2.0858,-4.4692,4.7633,-0.1479,0.4775,0.1165,
11.056903,-0.4547,-0.8605,-0.1075,2.0858,-4.4692,4.7633,-0.1479,0.4775,0.1165,
11.059958,-0.4231,-0.8812,-0.0965,2.0858,-4.4692,4.7633,-0.1479,0.4775,0.1165,
11.061567,-0.3977,-0.8988,-0.0953,2.0858,-4.4692,4.7633,-0.1479,0.4775,0.1165,
11.089777,-0.3977,-0.8988,-0.0953,2.0858,-4.4692,4.7633,-0.1314,0.3847,0.1629,
11.092292,-0.3977,-0.8988,-0.0953,2.7214,-4.9899,5.2123,-0.1314,0.3847,0.1629,
11.115514,-0.3960,-0.9045,-0.0853,2.7214,-4.9899,5.2123,-0.1314,0.3847,0.1629,
11.118358,-0.4036,-0.8903,-0.0840,2.7214,-4.9899,5.2123,-0.1314,0.3847,0.1629,
11.120531,-0.4153,-0.8895,-0.1104,2.7214,-4.9899,5.2123,-0.1314,0.3847,0.1629,
11.147991,-0.4153,-0.8895,-0.1104,2.7214,-4.9899,5.2123,-0.1351,0.3230,0.1801,
11.150885,-0.4153,-0.8895,-0.1104,2.4562,-4.9895,5.2169,-0.1351,0.3230,0.1801,
11.176685,-0.4427,-0.8903,-0.1016,2.4562,-4.9895,5.2169,-0.1351,0.3230,0.1801,
11.179499,-0.4481,-0.8891,-0.0831,2.4562,-4.9895,5.2169,-0.1351,0.3230,0.1801,
11.181468,-0.4388,-0.8959,-0.0562,2.4562,-4.9895,5.2169,-0.1351,0.3230,0.1801,
11.207677,-0.4388,-0.8959,-0.0562,2.4562,-4.9895,5.2169,0.2388,0.3102,0.1116,
11.209932,-0.4388,-0.8959,-0.0562,2.1280,-5.0586,5.8527,0.2388,0.3102,0.1116,
11.236408,-0.4510,-0.9216,-0.0384,2.1280,-5.0586,5.8527,0.2388,0.3102,0.1116,
11.238334,-0.4681,-0.9350,-0.0205,2.1280,-5.0586,5.8527,0.2388,0.3102,0.1116,
11.239202,-0.4656,-0.9191,-0.0200,2.1280,-5.0586,5.8527,0.2388,0.3102,0.1116,
11.268576,-0.4656,-0.9191,-0.0200,1.7665,-5.1365,6.2162,0.2388,0.3102,0.1116,
11.271105,-0.4656,-0.9191,-0.0200,1.7665,-5.1365,6.2162,0.5583,0.3487,0.0255,
11.295754,-0.4495,-0.8920,-0.0259,1.7665,-5.1365,6.2162,0.5583,0.3487,0.0255,
11.298243,-0.4261,-0.8727,-0.0437,1.7665,-5.1365,6.2162,0.5583,0.3487,0.0255,
11.300035,-0.4324,-0.8600,-0.0723,1.7665,-5.1365,6.2162,0.5583,0.3487,0.0255,
11.328570,-0.4324,-0.8600,-0.0723,1.7665,-5.1365,6.2162,0.3402,0.3896,0.0060,
11.331342,-0.4324,-0.8600,-0.0723,1.9427,-4.3204,5.7023,0.3402,0.3896,0.0060,
11.355802,-0.4732,-0.8610,-0.0931,1.9427,-4.3204,5.7023,0.3402,0.3896,0.0060,
11.358561,-0.5165,-0.8732,-0.0814,1.9427,-4.3204,5.7023,0.3402,0.3896,0.0060,
11.360176,-0.5585,-0.8720,-0.0530,1.9427,-4.3204,5.7023,0.3402,0.3896,0.0060,
11.387745,-0.5585,-0.8720,-0.0530,1.9427,-4.3204,5.7023,0.1166,0.3034,-0.1425,
11.390897,-0.5585,-0.8720,-0.0530,0.5544,-4.2747,5.9301,0.1166,0.3034,-0.1425,
11.417137,-0.5766,-0.8678,-0.0264,0.5544,-4.2747,5.9301,0.1166,0.3034,-0.1425,
11.419747,-0.6071,-0.8739,-0.1268,0.5544,-4.2747,5.9301,0.1166,0.3034,-0.1425,
11.421620,-0.6619,-1.0100,-0.1854,0.5544,-4.2747,5.9301,0.1166,0.3034,-0.1425,
11.448186,-0.6619,-1.0100,-0.1854,-0.5275,-5.6072,4.6831,0.1166,0.3034,-0.1425,
11.450766,-0.6619,-1.0100,-0.1854,-0.5275,-5.6072,4.6831,-0.1070,-0.0454,0.1538,
11.476191,-0.7461,-1.1986,-0.1410,-0.5275,-5.6072,4.6831,-0.1070,-0.0454,0.1538,
11.478911,-0.6636,-1.0926,-0.1424,-0.5275,-5.6072,4.6831,-0.1070,-0.0454,0.1538,
11.480575,-0.6044,-0.9680,-0.1571,-0.5275,-5.6072,4.6831,-0.1070,-0.0454,0.1538,
11.507729,-0.6044,-0.9680,-0.1571,-0.5275,-5.6072,4.6831,-0.1998,-0.1730,-0.0350,
11.510412,-0.6044,-0.9680,-0.1571,0.1321,-5.3045,4.9422,-0.1998,-0.1730,-0.0350,
11.542743,-0.5676,-0.8927,-0.2260,0.1321,-5.3045,4.9422,-0.1998,-0.1730,-0.0350,
11.544683,-0.4634,-0.8678,-0.3010,0.1321,-5.3045,4.9422,-0.1998,-0.1730,-0.0350,
11.545800,-0.3012,-0.8766,-0.3288,0.1321,-5.3045,4.9422,-0.1998,-0.1730,-0.0350,
11.555470,-0.1077,-0.8497,-0.3252,0.1321,-5.3045,4.9422,-0.1998,-0.1730,-0.0350,
11.579742,-0.1077,-0.8497,-0.3252,0.1321,-5.3045,4.9422,-0.0416,-0.4485,-0.6984,
11.582058,-0.1077,-0.8497,-0.3252,4.9955,-4.0586,3.2421,-0.0416,-0.4485,-0.6984,
11.606988,0.0071,-0.8334,-0.1910,4.9955,-4.0586,3.2421,-0.0416,-0.4485,-0.6984,
11.609113,-0.0508,-0.9157,-0.0638,4.9955,-4.0586,3.2421,-0.0416,-0.4485,-0.6984,
11.610335,-0.2558,-1.0190,-0.1099,4.9955,-4.0586,3.2421,-0.0416,-0.4485,-0.6984,
11.627654,-0.2558,-1.0190,-0.1099,4.9955,-4.0586,3.2421,0.2913,-0.8523,0.2564,
11.629702,-0.2558,-1.0190,-0.1099,3.6288,-5.4307,5.0683,0.2913,-0.8523,0.2564,
11.667448,-0.4437,-1.0933,-0.1388,3.6288,-5.4307,5.0683,0.2913,-0.8523,0.2564,
11.669318,-0.5666,-1.1021,-0.1402,3.6288,-5.4307,5.0683,0.2913,-0.8523,0.2564,
11.670350,-0.5834,-1.0171,-0.1143,3.6288,-5.4307,5.0683,0.2913,-0.8523,0.2564,
11.690194,-0.5834,-1.0171,-0.1143,3.6288,-5.4307,5.0683,0.6358,-0.8688,0.2393,
11.692653,-0.5834,-1.0171,-0.1143,0.8814,-5.4074,4.5212,0.6358,-0.8688,0.2393,
11.726952,-0.4852,-0.9152,-0.0919,0.8814,-5.4074,4.5212,0.6358,-0.8688,0.2393,
11.730291,-0.4065,-0.8930,-0.0814,0.8814,-5.4074,4.5212,0.6358,-0.8688,0.2393,
11.732050,-0.3872,-0.8639,-0.0963,0.8814,-5.4074,4.5212,0.6358,-0.8688,0.2393,
11.748403,-0.3872,-0.8639,-0.0963,0.8814,-5.4074,4.5212,0.3316,-0.9299,-0.3264,
11.750638,-0.3872,-0.8639,-0.0963,3.0181,-3.6222,4.1841,0.3316,-0.9299,-0.3264,
11.789874,-0.3823,-0.7906,-0.0655,3.0181,-3.6222,4.1841,0.3316,-0.9299,-0.3264,
11.792558,-0.3547,-0.7723,-0.0173,3.0181,-3.6222,4.1841,0.3316,-0.9299,-0.3264,
11.794294,-0.3044,-0.8084,0.0178,3.0181,-3.6222,4.1841,0.3316,-0.9299,-0.3264,
11.807927,-0.3044,-0.8084,0.0178,3.0181,-3.6222,4.1841,-0.0263,-1.1571,-0.0502,
11.810487,-0.3044,-0.8084,0.0178,4.0644,-2.9224,4.8115,-0.0263,-1.1571,-0.0502,
11.847306,-0.2790,-0.8338,0.0508,4.0644,-2.9224,4.8115,-0.0263,-1.1571,-0.0502,
11.849721,-0.2951,-0.8492,0.0457,4.0644,-2.9224,4.8115,-0.0263,-1.1571,-0.0502,
11.850846,-0.3408,-0.8448,0.0530,4.0644,-2.9224,4.8115,-0.0263,-1.1571,-0.0502,
11.868069,-0.3408,-0.8448,0.0530,4.0644,-2.9224,4.8115,-0.1106,-0.9103,0.0725,
11.870421,-0.3408,-0.8448,0.0530,4.0023,-3.2663,4.6584,-0.1106,-0.9103,0.0725,
11.908239,-0.3914,-0.8414,0.0779,4.0023,-3.2663,4.6584,-0.1106,-0.9103,0.0725,
11.912249,-0.3770,-0.8314,0.0765,4.0023,-3.2663,4.6584,-0.1106,-0.9103,0.0725,
11.913394,-0.3342,-0.8246,0.0926,4.0023,-3.2663,4.6584,-0.1106,-0.9103,0.0725,
11.928960,-0.3342,-0.8246,0.0926,4.0023,-3.2663,4.6584,-0.1131,-0.5951,0.1116,
11.932164,-0.3342,-0.8246,0.0926,4.2434,-3.1007,4.7596,-0.1131,-0.5951,0.1116,
11.968709,-0.3083,-0.8128,0.1175,4.2434,-3.1007,4.7596,-0.1131,-0.5951,0.1116,
11.971212,-0.3269,-0.8072,0.1029,4.2434,-3.1007,4.7596,-0.1131,-0.5951,0.1116,
11.972804,-0.3792,-0.8331,0.0804,4.2434,-3.1007,4.7596,-0.1131,-0.5951,0.1116,
11.991000,-0.3792,-0.8331,0.0804,4.0116,-3.2521,4.2985,-0.1131,-0.5951,0.1116,
11.993777,-0.3792,-0.8331,0.0804,4.0116,-3.2521,4.2985,-0.4478,-1.0765,0.1122,
12.028939,-0.4329,-0.9154,0.0537,4.0116,-3.2521,4.2985,-0.4478,-1.0765,0.1122,
12.031465,-0.4559,-1.0068,0.0633,4.0116,-3.2521,4.2985,-0.4478,-1.0765,0.1122,
12.033085,-0.4573,-1.0381,0.0738,4.0116,-3.2521,4.2985,-0.4478,-1.0765,0.1122,
12.049042,-0.4573,-1.0381,0.0738,4.0116,-3.2521,4.2985,-0.5108,-1.0631,-0.0722,
12.051543,-0.4573,-1.0381,0.0738,3.4630,-5.3379,3.8322,-0.5108,-1.0631,-0.0722,
12.088506,-0.4532,-1.0217,0.1275,3.4630,-5.3379,3.8322,-0.5108,-1.0631,-0.0722,
12.090750,-0.4576,-0.9900,0.1869,3.4630,-5.3379,3.8322,-0.5108,-1.0631,-0.0722,
12.092164,-0.4547,-0.9548,0.2194,3.4630,-5.3379,3.8322,-0.5108,-1.0631,-0.0722,
12.108739,-0.4547,-0.9548,0.2194,3.6921,-4.5862,4.8006,-0.5108,-1.0631,-0.0722,
12.112558,-0.4547,-0.9548,0.2194,3.6921,-4.5862,4.8006,-0.3874,-1.4406,0.3206,
12.148519,-0.4288,-0.8888,0.2573,3.6921,-4.5862,4.8006,-0.3874,-1.4406,0.3206,
12.151382,-0.4139,-0.8834,0.3010,3.6921,-4.5862,4.8006,-0.3874,-1.4406,0.3206,
12.153116,-0.4141,-1.3171,0.2314,3.6921,-4.5862,4.8006,-0.3874,-1.4406,0.3206,
12.168841,-0.4141,-1.3171,0.2314,3.6921,-4.5862,4.8006,-0.7111,-1.6580,-0.1126,
12.173365,-0.4141,-1.3171,0.2314,4.3950,-8.3391,4.2278,-0.7111,-1.6580,-0.1126,
12.208859,-0.6130,-1.3242,-0.0623,4.3950,-8.3391,4.2278,-0.7111,-1.6580,-0.1126,
12.211364,-0.4051,-1.0637,-0.0366,4.3950,-8.3391,4.2278,-0.7111,-1.6580,-0.1126,
12.213295,-0.2238,-0.9572,-0.1024,4.3950,-8.3391,4.2278,-0.7111,-1.6580,-0.1126,
12.227390,-0.2238,-0.9572,-0.1024,4.3950,-8.3391,4.2278,-0.4173,-0.6904,-0.3184,
12.230125,-0.2238,-0.9572,-0.1024,6.2562,-4.7350,0.7849,-0.4173,-0.6904,-0.3184,
12.268639,-0.2255,-0.9296,-0.1041,6.2562,-4.7350,0.7849,-0.4173,-0.6904,-0.3184,
12.273988,-0.2265,-0.9052,-0.0821,6.2562,-4.7350,0.7849,-0.4173,-0.6904,-0.3184,
12.276741,-0.2961,-0.8419,-0.1517,6.2562,-4.7350,0.7849,-0.4173,-0.6904,-0.3184,
12.290019,-0.2961,-0.8419,-0.1517,6.2562,-4.7350,0.7849,-1.1228,-1.0973,-0.1565,
12.293130,-0.2961,-0.8419,-0.1517,5.5495,-3.4913,-0.0395,-1.1228,-1.0973,-0.1565,
12.327619,-0.3411,-0.7256,-0.2682,5.5495,-3.4913,-0.0395,-1.1228,-1.0973,-0.1565,
12.330484,-0.4087,-0.6555,-0.2971,5.5495,-3.4913,-0.0395,-1.1228,-1.0973,-0.1565,
12.332278,-0.4654,-0.7124,-0.3222,5.5495,-3.4913,-0.0395,-1.1228,-1.0973,-0.1565,
12.347892,-0.4654,-0.7124,-0.3222,5.5495,-3.4913,-0.0395,-1.1106,-0.8969,-0.4607,
12.349370,-0.4654,-0.7124,-0.3222,3.9063,-2.2026,-1.8796,-1.1106,-0.8969,-0.4607,
12.389686,-0.4791,-0.9128,-0.3029,3.9063,-2.2026,-1.8796,-1.1106,-0.8969,-0.4607,
12.392691,-0.4451,-1.0740,-0.2162,3.9063,-2.2026,-1.8796,-1.1106,-0.8969,-0.4607,
12.394115,-0.3994,-1.0999,-0.1375,3.9063,-2.2026,-1.8796,-1.1106,-0.8969,-0.4607,
12.407996,-0.3994,-1.0999,-0.1375,3.9063,-2.2026,-1.8796,-0.6317,-0.8041,0.0658,
12.410742,-0.3994,-1.0999,-0.1375,4.4323,-5.7693,-0.1633,-0.6317,-0.8041,0.0658,
12.447774,-0.3706,-1.0325,-0.1349,4.4323,-5.7693,-0.1633,-0.6317,-0.8041,0.0658,
12.450459,-0.3977,-0.9213,-0.1353,4.4323,-5.7693,-0.1633,-0.6317,-0.8041,0.0658,
12.452408,-0.4146,-0.8400,-0.1173,4.4323,-5.7693,-0.1633,-0.6317,-0.8041,0.0658,
12.467825,-0.4146,-0.8400,-0.1173,4.4323,-5.7693,-0.1633,-0.7472,-0.8725,0.5808,
12.470442,-0.4146,-0.8400,-0.1173,4.4600,-3.4764,-0.1914,-0.7472,-0.8725,0.5808,
12.509115,-0.4158,-0.8148,-0.1371,4.4600,-3.4764,-0.1914,-0.7472,-0.8725,0.5808,
12.512677,-0.3858,-0.7745,-0.1495,4.4600,-3.4764,-0.1914,-0.7472,-0.8725,0.5808,
12.514741,-0.3735,-0.7503,-0.1671,4.4600,-3.4764,-0.1914,-0.7472,-0.8725,0.5808,
12.528414,-0.3735,-0.7503,-0.1671,4.4600,-3.4764,-0.1914,-0.6965,-0.5933,-0.0105,
12.531084,-0.3735,-0.7503,-0.1671,4.9733,-2.7640,-0.8850,-0.6965,-0.5933,-0.0105,
12.567621,-0.3975,-0.7645,-0.1693,4.9733,-2.7640,-0.8850,-0.6965,-0.5933,-0.0105,
12.570542,-0.3958,-0.7816,-0.1627,4.9733,-2.7640,-0.8850,-0.6965,-0.5933,-0.0105,
12.572470,-0.3965,-0.8273,-0.1358,4.9733,-2.7640,-0.8850,-0.6965,-0.5933,-0.0105,
12.587991,-0.3965,-0.8273,-0.1358,4.9733,-2.7640,-0.8850,-0.6293,-0.5493,-0.0912,
12.590797,-0.3965,-0.8273,-0.1358,4.7379,-3.4867,-0.6568,-0.6293,-0.5493,-0.0912,
12.627076,-0.4029,-0.9093,-0.1195,4.7379,-3.4867,-0.6568,-0.6293,-0.5493,-0.0912,
12.629761,-0.4090,-0.9812,-0.1236,4.7379,-3.4867,-0.6568,-0.6293,-0.5493,-0.0912,
12.631436,-0.4207,-1.0102,-0.1344,4.7379,-3.4867,-0.6568,-0.6293,-0.5493,-0.0912,
12.648187,-0.4207,-1.0102,-0.1344,4.4928,-5.2535,-0.7263,-0.6293,-0.5493,-0.0912,
12.651027,-0.4207,-1.0102,-0.1344,4.4928,-5.2535,-0.7263,-0.4234,-0.3557,0.1550,
12.687794,-0.4212,-0.9509,-0.1305,4.4928,-5.2535,-0.7263,-0.4234,-0.3557,0.1550,
12.690446,-0.4334,-0.8917,-0.1165,4.4928,-5.2535,-0.7263,-0.4234,-0.3557,0.1550,
12.692060,-0.4456,-0.8876,-0.0901,4.4928,-5.2535,-0.7263,-0.4234,-0.3557,0.1550,
12.708379,-0.4456,-0.8876,-0.0901,4.2911,-4.1226,-0.3650,-0.4234,-0.3557,0.1550,
12.710819,-0.4456,-0.8876,-0.0901,4.2911,-4.1226,-0.3650,0.0409,-0.1303,0.0579,
12.749755,-0.4351,-0.9384,-0.0647,4.2911,-4.1226,-0.3650,0.0409,-0.1303,0.0579,
12.753166,-0.4266,-0.9814,-0.0481,4.2911,-4.1226,-0.3650,0.0409,-0.1303,0.0579,
12.754517,-0.4488,-0.9753,-0.0621,4.2911,-4.1226,-0.3650,0.0409,-0.1303,0.0579,
12.768482,-0.4488,-0.9753,-0.0621,4.2911,-4.1226,-0.3650,0.0744,0.0634,0.1428,
12.771430,-0.4488,-0.9753,-0.0621,4.2446,-4.9484,-0.1336,0.0744,0.0634,0.1428,
12.807338,-0.5162,-0.9013,-0.1070,4.2446,-4.9484,-0.1336,0.0744,0.0634,0.1428,
12.810290,-0.5891,-0.8302,-0.1041,4.2446,-4.9484,-0.1336,0.0744,0.0634,0.1428,
12.811695,-0.6157,-0.8026,-0.0418,4.2446,-4.9484,-0.1336,0.0744,0.0634,0.1428,
12.829784,-0.6157,-0.8026,-0.0418,2.6578,-3.3503,0.0837,0.0744,0.0634,0.1428,
12.832685,-0.6157,-0.8026,-0.0418,2.6578,-3.3503,0.0837,0.0622,0.1000,0.1501,
12.867564,-0.5693,-0.8404,0.0291,2.6578,-3.3503,0.0837,0.0622,0.1000,0.1501,
12.870206,-0.5138,-0.8793,0.0137,2.6578,-3.3503,0.0837,0.0622,0.1000,0.1501,
12.871788,-0.5417,-0.8756,-0.1107,2.6578,-3.3503,0.0837,0.0622,0.1000,0.1501,
12.887896,-0.5417,-0.8756,-0.1107,2.6578,-3.3503,0.0837,-0.0905,0.2729,-0.0478,
12.890077,-0.5417,-0.8756,-0.1107,3.3498,-4.0181,-0.4620,-0.0905,0.2729,-0.0478,
12.927521,-0.7088,-1.0867,-0.1722,3.3498,-4.0181,-0.4620,-0.0905,0.2729,-0.0478,
12.929600,-0.7457,-1.1168,-0.2282,3.3498,-4.0181,-0.4620,-0.0905,0.2729,-0.0478,
12.930388,-0.6675,-0.9345,-0.3577,3.3498,-4.0181,-0.4620,-0.0905,0.2729,-0.0478,
12.948175,-0.6675,-0.9345,-0.3577,3.3498,-4.0181,-0.4620,-0.3061,-0.3740,0.2430,
12.949878,-0.6675,-0.9345,-0.3577,2.1602,-4.6856,-2.8335,-0.3061,-0.3740,0.2430,
12.987800,-0.5825,-0.9113,-0.3437,2.1602,-4.6856,-2.8335,-0.3061,-0.3740,0.2430,
12.990285,-0.4945,-0.9450,-0.3352,2.1602,-4.6856,-2.8335,-0.3061,-0.3740,0.2430,
12.991630,-0.3286,-0.8881,-0.3494,2.1602,-4.6856,-2.8335,-0.3061,-0.3740,0.2430,
13.009513,-0.3286,-0.8881,-0.3494,5.5212,-4.2871,-2.9179,-0.3061,-0.3740,0.2430,
13.012308,-0.3286,-0.8881,-0.3494,5.5212,-4.2871,-2.9179,-0.3312,-0.5255,-0.0863,
13.048334,-0.1808,-0.8392,-0.3586,5.5212,-4.2871,-2.9179,-0.3312,-0.5255,-0.0863,
13.050672,-0.0635,-0.8077,-0.3078,5.5212,-4.2871,-2.9179,-0.3312,-0.5255,-0.0863,
13.052527,-0.0384,-0.8316,-0.1647,5.5212,-4.2871,-2.9179,-0.3312,-0.5255,-0.0863,
13.067787,-0.0384,-0.8316,-0.1647,5.5212,-4.2871,-2.9179,0.1313,-0.6122,-0.2555,
13.070344,-0.0384,-0.8316,-0.1647,8.2925,-3.5726,-1.3391,0.1313,-0.6122,-0.2555,
13.108690,-0.1459,-0.9641,-0.1129,8.2925,-3.5726,-1.3391,0.1313,-0.6122,-0.2555,
13.111713,-0.3323,-1.1353,-0.1471,8.2925,-3.5726,-1.3391,0.1313,-0.6122,-0.2555,
13.113802,-0.4605,-1.2225,-0.1847,8.2925,-3.5726,-1.3391,0.1313,-0.6122,-0.2555,
13.127941,-0.4605,-1.2225,-0.1847,4.1409,-7.3709,-1.9744,0.1313,-0.6122,-0.2555,
13.131178,-0.4605,-1.2225,-0.1847,4.1409,-7.3709,-1.9744,0.5601,-0.7723,0.2369,
13.168409,-0.5009,-1.1194,-0.1903,4.1409,-7.3709,-1.9744,0.5601,-0.7723,0.2369,
13.171345,-0.4097,-0.9240,-0.1385,4.1409,-7.3709,-1.9744,0.5601,-0.7723,0.2369,
13.173054,-0.3533,-0.8419,-0.1146,4.1409,-7.3709,-1.9744,0.5601,-0.7723,0.2369,
13.188360,-0.3533,-0.8419,-0.1146,5.1880,-3.6785,-1.7877,0.5601,-0.7723,0.2369,
13.191369,-0.3533,-0.8419,-0.1146,5.1880,-3.6785,-1.7877,0.7684,-0.4406,-0.2280,
13.228399,-0.3858,-0.8439,-0.1661,5.1880,-3.6785,-1.7877,0.7684,-0.4406,-0.2280,
13.231167,-0.4170,-0.8571,-0.0801,5.1880,-3.6785,-1.7877,0.7684,-0.4406,-0.2280,
13.232951,-0.3946,-0.8529,-0.0017,5.1880,-3.6785,-1.7877,0.7684,-0.4406,-0.2280,
13.248620,-0.3946,-0.8529,-0.0017,4.6764,-3.6521,-1.0355,0.7684,-0.4406,-0.2280,
13.251786,-0.3946,-0.8529,-0.0017,4.6764,-3.6521,-1.0355,0.2278,-0.3569,-0.0802,
13.288805,-0.3335,-0.8368,0.0120,4.6764,-3.6521,-1.0355,0.2278,-0.3569,-0.0802,
13.293000,-0.2717,-0.8170,0.0261,4.6764,-3.6521,-1.0355,0.2278,-0.3569,-0.0802,
13.294770,-0.2370,-0.8087,0.0596,4.6764,-3.6521,-1.0355,0.2278,-0.3569,-0.0802,
13.308751,-0.2370,-0.8087,0.0596,4.6764,-3.6521,-1.0355,0.1881,-0.1468,-0.0301,
13.312492,-0.2370,-0.8087,0.0596,6.1753,-3.1772,-0.6059,0.1881,-0.1468,-0.0301,
13.348515,-0.2768,-0.8175,0.0662,6.1753,-3.1772,-0.6059,0.1881,-0.1468,-0.0301,
13.351002,-0.3188,-0.8329,0.0887,6.1753,-3.1772,-0.6059,0.1881,-0.1468,-0.0301,
13.352845,-0.3481,-0.8412,0.1173,6.1753,-3.1772,-0.6059,0.1881,-0.1468,-0.0301,
13.368681,-0.3481,-0.8412,0.1173,5.0968,-3.5163,-0.0457,0.1881,-0.1468,-0.0301,
13.372249,-0.3481,-0.8412,0.1173,5.0968,-3.5163,-0.0457,0.2437,0.4213,0.2375,
13.408650,-0.3501,-0.8549,0.1432,5.0968,-3.5163,-0.0457,0.2437,0.4213,0.2375,
13.411962,-0.3547,-0.8607,0.1571,5.0968,-3.5163,-0.0457,0.2437,0.4213,0.2375,
13.413795,-0.3782,-0.8502,0.1297,5.0968,-3.5163,-0.0457,0.2437,0.4213,0.2375,
13.429382,-0.3782,-0.8502,0.1297,4.8745,-3.7171,0.1565,0.2437,0.4213,0.2375,
13.432248,-0.3782,-0.8502,0.1297,4.8745,-3.7171,0.1565,0.0152,-0.0344,0.2185,
13.467578,-0.4187,-0.8439,0.0992,4.8745,-3.7171,0.1565,0.0152,-0.0344,0.2185,
13.469954,-0.4845,-0.8966,0.0674,4.8745,-3.7171,0.1565,0.0152,-0.0344,0.2185,
13.471089,-0.5233,-0.9738,0.0423,4.8745,-3.7171,0.1565,0.0152,-0.0344,0.2185,
13.487958,-0.5233,-0.9738,0.0423,4.8745,-3.7171,0.1565,-0.1815,-0.1303,-0.0118,
13.490218,-0.5233,-0.9738,0.0423,3.4660,-4.9699,-0.7619,-0.1815,-0.1303,-0.0118,
13.527058,-0.5004,-1.0339,0.0936,3.4660,-4.9699,-0.7619,-0.1815,-0.1303,-0.0118,
13.529732,-0.4867,-1.0386,0.1827,3.4660,-4.9699,-0.7619,-0.1815,-0.1303,-0.0118,
13.531182,-0.4722,-0.9941,0.2619,3.4660,-4.9699,-0.7619,-0.1815,-0.1303,-0.0118,
13.548065,-0.4722,-0.9941,0.2619,3.4660,-4.9699,-0.7619,-0.0679,-0.3374,0.0487,
13.550273,-0.4722,-0.9941,0.2619,3.9216,-5.0956,1.3490,-0.0679,-0.3374,0.0487,
13.588578,-0.4317,-0.9257,0.3093,3.9216,-5.0956,1.3490,-0.0679,-0.3374,0.0487,
13.590227,-0.4620,-1.1427,0.3161,3.9216,-5.0956,1.3490,-0.0679,-0.3374,0.0487,
13.591031,-0.4446,-1.3567,0.0340,3.9216,-5.0956,1.3490,-0.0679,-0.3374,0.0487,
13.608307,-0.4446,-1.3567,0.0340,3.9216,-5.0956,1.3490,-0.1082,-0.2812,-0.4827,
13.609928,-0.4446,-1.3567,0.0340,4.1360,-8.6441,-1.2157,-0.1082,-0.2812,-0.4827,
13.647205,-0.3298,-1.1871,-0.0677,4.1360,-8.6441,-1.2157,-0.1082,-0.2812,-0.4827,
13.650029,-0.1195,-0.9797,-0.0633,4.1360,-8.6441,-1.2157,-0.1082,-0.2812,-0.4827,
13.651506,-0.0264,-1.0005,-0.1615,4.1360,-8.6441,-1.2157,-0.1082,-0.2812,-0.4827,
13.667594,-0.0264,-1.0005,-0.1615,4.1360,-8.6441,-1.2157,0.0702,-0.0979,-0.2231,
13.670629,-0.0264,-1.0005,-0.1615,8.0900,-4.8704,-3.0404,0.0702,-0.0979,-0.2231,
13.708476,-0.1847,-0.9506,-0.1967,8.0900,-4.8704,-3.0404,0.0702,-0.0979,-0.2231,
13.712861,-0.3393,-0.8114,-0.2631,8.0900,-4.8704,-3.0404,0.0702,-0.0979,-0.2231,
13.714554,-0.4251,-0.7144,-0.3403,8.0900,-4.8704,-3.0404,0.0702,-0.0979,-0.2231,
13.729658,-0.4251,-0.7144,-0.3403,8.0900,-4.8704,-3.0404,-0.2585,-0.1907,-0.0044,
13.731729,-0.4251,-0.7144,-0.3403,4.1523,-2.0275,-4.8324,-0.2585,-0.1907,-0.0044,
13.767549,-0.4974,-0.7799,-0.2714,4.1523,-2.0275,-4.8324,-0.2585,-0.1907,-0.0044,
13.770507,-0.4549,-0.9282,-0.1710,4.1523,-2.0275,-4.8324,-0.2585,-0.1907,-0.0044,
13.772331,-0.3308,-1.0403,-0.1495,4.1523,-2.0275,-4.8324,-0.2585,-0.1907,-0.0044,
13.788022,-0.3308,-1.0403,-0.1495,4.1523,-2.0275,-4.8324,0.2070,0.6926,0.1214,
13.790673,-0.3308,-1.0403,-0.1495,5.0563,-5.1437,-2.8062,0.2070,0.6926,0.1214,
13.828002,-0.2949,-1.0818,-0.1480,5.0563,-5.1437,-2.8062,0.2070,0.6926,0.1214,
13.830849,-0.3120,-1.0095,-0.1434,5.0563,-5.1437,-2.8062,0.2070,0.6926,0.1214,
13.832926,-0.3547,-0.9277,-0.1087,5.0563,-5.1437,-2.8062,0.2070,0.6926,0.1214,
13.847561,-0.3547,-0.9277,-0.1087,5.0563,-5.1437,-2.8062,0.3976,0.7860,0.8856,
13.850251,-0.3547,-0.9277,-0.1087,5.0021,-4.2805,-2.1344,0.3976,0.7860,0.8856,
13.887990,-0.4151,-0.8764,-0.1356,5.0021,-4.2805,-2.1344,0.3976,0.7860,0.8856,
13.890867,-0.4058,-0.8033,-0.1410,5.0021,-4.2805,-2.1344,0.3976,0.7860,0.8856,
13.892577,-0.3784,-0.7554,-0.1204,5.0021,-4.2805,-2.1344,0.3976,0.7860,0.8856,
13.909297,-0.3784,-0.7554,-0.1204,5.0021,-4.2805,-2.1344,0.2363,0.9394,0.3621,
13.913328,-0.3784,-0.7554,-0.1204,5.0067,-2.9598,-1.8660,0.2363,0.9394,0.3621,
13.949756,-0.3672,-0.7569,-0.1002,5.0067,-2.9598,-1.8660,0.2363,0.9394,0.3621,
13.952551,-0.3894,-0.8001,-0.0889,5.0067,-2.9598,-1.8660,0.2363,0.9394,0.3621,
13.954137,-0.4429,-0.8573,-0.1055,5.0067,-2.9598,-1.8660,0.2363,0.9394,0.3621,
13.969778,-0.4429,-0.8573,-0.1055,5.0067,-2.9598,-1.8660,0.3567,1.0774,0.0115,
13.972234,-0.4429,-0.8573,-0.1055,4.4214,-4.0022,-1.2361,0.3567,1.0774,0.0115,
14.007701,-0.4901,-0.8905,-0.0650,4.4214,-4.0022,-1.2361,0.3567,1.0774,0.0115,
14.010629,-0.5141,-0.8993,-0.0337,4.4214,-4.0022,-1.2361,0.3567,1.0774,0.0115,
14.011682,-0.5258,-0.8852,-0.0127,4.4214,-4.0022,-1.2361,0.3567,1.0774,0.0115,
14.027767,-0.5258,-0.8852,-0.0127,4.4214,-4.0022,-1.2361,0.4978,0.9662,0.1116,
14.030427,-0.5258,-0.8852,-0.0127,3.6022,-4.2619,0.1031,0.4978,0.9662,0.1116,
14.068008,-0.5329,-0.8615,0.0010,3.6022,-4.2619,0.1031,0.4978,0.9662,0.1116,
14.070141,-0.5297,-0.8434,0.0122,3.6022,-4.2619,0.1031,0.4978,0.9662,0.1116,
14.071397,-0.5136,-0.8380,0.0002,3.6022,-4.2619,0.1031,0.4978,0.9662,0.1116,
14.087773,-0.5136,-0.8380,0.0002,3.6022,-4.2619,0.1031,0.5699,0.9345,-0.0692,
14.090132,-0.5136,-0.8380,0.0002,3.7109,-3.8095,0.5781,0.5699,0.9345,-0.0692,
14.127388,-0.4688,-0.8512,-0.0042,3.7109,-3.8095,0.5781,0.5699,0.9345,-0.0692,
14.132179,-0.4449,-0.8541,-0.0012,3.7109,-3.8095,0.5781,0.5699,0.9345,-0.0692,
14.134062,-0.4727,-0.8505,-0.0066,3.7109,-3.8095,0.5781,0.5699,0.9345,-0.0692,
14.150295,-0.4727,-0.8505,-0.0066,4.0108,-3.8002,0.8827,0.5699,0.9345,-0.0692,
14.153127,-0.4727,-0.8505,-0.0066,4.0108,-3.8002,0.8827,0.3671,0.9968,-0.1358,
14.187954,-0.5600,-0.8585,-0.0059,4.0108,-3.8002,0.8827,0.3671,0.9968,-0.1358,
14.190878,-0.6203,-0.8590,0.0071,4.0108,-3.8002,0.8827,0.3671,0.9968,-0.1358,
14.192021,-0.6164,-0.8566,0.0474,4.0108,-3.8002,0.8827,0.3671,0.9968,-0.1358,
14.207894,-0.6164,-0.8566,0.0474,4.0108,-3.8002,0.8827,0.3554,1.1397,-0.0716,
14.210143,-0.6164,-0.8566,0.0474,2.4963,-3.7671,1.8339,0.3554,1.1397,-0.0716,
14.247647,-0.5583,-0.8612,-0.0230,2.4963,-3.7671,1.8339,0.3554,1.1397,-0.0716,
14.250575,-0.4434,-1.0210,-0.0694,2.4963,-3.7671,1.8339,0.3554,1.1397,-0.0716,
14.255335,-0.5365,-1.2817,-0.0090,2.4963,-3.7671,1.8339,0.3554,1.1397,-0.0716,
14.268526,-0.5365,-1.2817,-0.0090,3.1194,-7.8223,1.7932,0.3554,1.1397,-0.0716,
14.272244,-0.5365,-1.2817,-0.0090,3.1194,-7.8223,1.7932,0.3548,1.3150,0.1929,
14.308526,-0.5026,-1.1886,-0.1300,3.1194,-7.8223,1.7932,0.3548,1.3150,0.1929,
14.311078,-0.5099,-0.9360,-0.1984,3.1194,-7.8223,1.7932,0.3548,1.3150,0.1929,
14.312822,-0.4881,-0.8656,-0.2008,3.1194,-7.8223,1.7932,0.3548,1.3150,0.1929,
14.330251,-0.4881,-0.8656,-0.2008,3.1194,-7.8223,1.7932,0.0616,0.9821,0.3603,
14.334515,-0.4881,-0.8656,-0.2008,3.5753,-3.9109,0.3546,0.0616,0.9821,0.3603,
14.367775,-0.4202,-0.8778,-0.2807,3.5753,-3.9109,0.3546,0.0616,0.9821,0.3603,
14.370910,-0.3389,-0.8573,-0.3428,3.5753,-3.9109,0.3546,0.0616,0.9821,0.3603,
14.372415,-0.2724,-0.8180,-0.3362,3.5753,-3.9109,0.3546,0.0616,0.9821,0.3603,
14.387937,-0.2724,-0.8180,-0.3362,3.5753,-3.9109,0.3546,0.1099,0.7665,-0.1950,
14.390465,-0.2724,-0.8180,-0.3362,5.5496,-3.4414,-0.5216,0.1099,0.7665,-0.1950,
14.428024,-0.1681,-0.8456,-0.1630,5.5496,-3.4414,-0.5216,0.1099,0.7665,-0.1950,
14.430387,-0.0975,-0.9511,-0.0322,5.5496,-3.4414,-0.5216,0.1099,0.7665,-0.1950,
14.431586,-0.1715,-1.1400,-0.0144,5.5496,-3.4414,-0.5216,0.1099,0.7665,-0.1950,
14.450195,-0.1715,-1.1400,-0.0144,5.5496,-3.4414,-0.5216,0.9095,0.4775,0.0750,
14.452915,-0.1715,-1.1400,-0.0144,6.3532,-6.3632,2.7751,0.9095,0.4775,0.0750,
14.487332,-0.3232,-1.2841,-0.0603,6.3532,-6.3632,2.7751,0.9095,0.4775,0.0750,
14.489748,-0.4490,-1.2067,-0.1373,6.3532,-6.3632,2.7751,0.9095,0.4775,0.0750,
14.491166,-0.5040,-0.9487,-0.1168,6.3532,-6.3632,2.7751,0.9095,0.4775,0.0750,
14.507935,-0.5040,-0.9487,-0.1168,6.3532,-6.3632,2.7751,1.2204,0.6975,0.3658,
14.509991,-0.5040,-0.9487,-0.1168,3.0758,-4.4423,1.7463,1.2204,0.6975,0.3658,
14.548995,-0.4234,-0.8255,-0.0579,3.0758,-4.4423,1.7463,1.2204,0.6975,0.3658,
14.551807,-0.3398,-0.8663,-0.0281,3.0758,-4.4423,1.7463,1.2204,0.6975,0.3658,
14.553059,-0.2961,-0.8900,-0.0562,3.0758,-4.4423,1.7463,1.2204,0.6975,0.3658,
14.568352,-0.2961,-0.8900,-0.0562,4.9070,-3.5980,2.4382,1.2204,0.6975,0.3658,
14.571356,-0.2961,-0.8900,-0.0562,4.9070,-3.5980,2.4382,0.8643,1.1208,-0.3972,
14.608601,-0.3095,-0.8886,-0.0310,4.9070,-3.5980,2.4382,0.8643,1.1208,-0.3972,
14.610989,-0.3440,-0.8375,-0.0132,4.9070,-3.5980,2.4382,0.8643,1.1208,-0.3972,
14.612864,-0.3535,-0.8038,0.0337,4.9070,-3.5980,2.4382,0.8643,1.1208,-0.3972,
14.627917,-0.3535,-0.8038,0.0337,4.9070,-3.5980,2.4382,0.6731,1.0108,0.1629,
14.630649,-0.3535,-0.8038,0.0337,4.0831,-2.5115,3.5575,0.6731,1.0108,0.1629,
14.668377,-0.3266,-0.8021,0.0733,4.0831,-2.5115,3.5575,0.6731,1.0108,0.1629,
14.670708,-0.3166,-0.8422,0.1016,4.0831,-2.5115,3.5575,0.6731,1.0108,0.1629,
14.672485,-0.3540,-0.8732,0.1266,4.0831,-2.5115,3.5575,0.6731,1.0108,0.1629,
14.687632,-0.3540,-0.8732,0.1266,4.0831,-2.5115,3.5575,0.6774,1.1354,0.0243,
14.690368,-0.3540,-0.8732,0.1266,3.8910,-3.0769,4.6991,0.6774,1.1354,0.0243,
14.727376,-0.3904,-0.8485,0.1180,3.8910,-3.0769,4.6991,0.6774,1.1354,0.0243,
14.730315,-0.3994,-0.8163,0.1094,3.8910,-3.0769,4.6991,0.6774,1.1354,0.0243,
14.732171,-0.4073,-0.8163,0.1099,3.8910,-3.0769,4.6991,0.6774,1.1354,0.0243,
14.749581,-0.4073,-0.8163,0.1099,3.8910,-3.0769,4.6991,0.4086,1.0628,0.0396,
14.752770,-0.4073,-0.8163,0.1099,3.1228,-2.3740,4.8080,0.4086,1.0628,0.0396,
14.787371,-0.4266,-0.8292,0.1290,3.1228,-2.3740,4.8080,0.4086,1.0628,0.0396,
14.790302,-0.4559,-0.8676,0.1598,3.1228,-2.3740,4.8080,0.4086,1.0628,0.0396,
14.791689,-0.4730,-0.9228,0.1744,3.1228,-2.3740,4.8080,0.4086,1.0628,0.0396,
14.808396,-0.4730,-0.9228,0.1744,3.1228,-2.3740,4.8080,0.1160,0.8135,-0.0576,
14.810962,-0.4730,-0.9228,0.1744,2.2437,-3.3289,5.7341,0.1160,0.8135,-0.0576,
14.848930,-0.4757,-0.9956,0.1319,2.2437,-3.3289,5.7341,0.1160,0.8135,-0.0576,
14.851807,-0.4742,-1.0161,0.1202,2.2437,-3.3289,5.7341,0.1160,0.8135,-0.0576,
14.854344,-0.4358,-1.0227,0.1659,2.2437,-3.3289,5.7341,0.1160,0.8135,-0.0576,
14.867679,-0.4358,-1.0227,0.1659,2.2437,-3.3289,5.7341,0.1105,0.6901,-0.0875,
14.870154,-0.4358,-1.0227,0.1659,2.4158,-4.2413,5.8721,0.1105,0.6901,-0.0875,
14.907420,-0.3535,-1.0422,0.2116,2.4158,-4.2413,5.8721,0.1105,0.6901,-0.0875,
14.910057,-0.2829,-1.0554,0.2424,2.4158,-4.2413,5.8721,0.1105,0.6901,-0.0875,
14.911622,-0.2973,-1.0207,0.2717,2.4158,-4.2413,5.8721,0.1105,0.6901,-0.0875,
14.928402,-0.2973,-1.0207,0.2717,2.4158,-4.2413,5.8721,0.2516,0.4079,0.0005,
14.931748,-0.2973,-1.0207,0.2717,3.5493,-4.0939,7.0759,0.2516,0.4079,0.0005,
14.968621,-0.3775,-0.9597,0.2810,3.5493,-4.0939,7.0759,0.2516,0.4079,0.0005,
14.971254,-0.4742,-0.9975,0.2868,3.5493,-4.0939,7.0759,0.2516,0.4079,0.0005,
14.972975,-0.4576,-1.2115,0.0889,3.5493,-4.0939,7.0759,0.2516,0.4079,0.0005,
14.987728,-0.4576,-1.2115,0.0889,3.5493,-4.0939,7.0759,0.3133,0.4549,-0.1846,
14.990381,-0.4576,-1.2115,0.0889,1.9552,-5.9038,5.2384,0.3133,0.4549,-0.1846,
15.028447,-0.3738,-1.2729,-0.0489,1.9552,-5.9038,5.2384,0.3133,0.4549,-0.1846,
15.031018,-0.2871,-0.9584,-0.0203,1.9552,-5.9038,5.2384,0.3133,0.4549,-0.1846,
15.032420,-0.1483,-0.8683,-0.0718,1.9552,-5.9038,5.2384,0.3133,0.4549,-0.1846,
15.048052,-0.1483,-0.8683,-0.0718,1.9552,-5.9038,5.2384,0.4379,0.5826,-0.2463,
15.050682,-0.1483,-0.8683,-0.0718,4.6442,-2.2912,3.8046,0.4379,0.5826,-0.2463,
15.087561,-0.1554,-0.9154,-0.1483,4.6442,-2.2912,3.8046,0.4379,0.5826,-0.2463,
15.090013,-0.2702,-0.8986,-0.1950,4.6442,-2.2912,3.8046,0.4379,0.5826,-0.2463,
15.091611,-0.3855,-0.8175,-0.2431,4.6442,-2.2912,3.8046,0.4379,0.5826,-0.2463,
15.109409,-0.3855,-0.8175,-0.2431,4.6442,-2.2912,3.8046,-0.1284,0.3309,0.0139,
15.112585,-0.3855,-0.8175,-0.2431,2.1541,-1.6792,2.1876,-0.1284,0.3309,0.0139,
15.148342,-0.4437,-0.7515,-0.3205,2.1541,-1.6792,2.1876,-0.1284,0.3309,0.0139,
15.151639,-0.4603,-0.8114,-0.2937,2.1541,-1.6792,2.1876,-0.1284,0.3309,0.0139,
15.152993,-0.3968,-0.9531,-0.2155,2.1541,-1.6792,2.1876,-0.1284,0.3309,0.0139,
15.168962,-0.3968,-0.9531,-0.2155,2.1541,-1.6792,2.1876,0.1954,1.0640,0.0243,
15.171146,-0.3968,-0.9531,-0.2155,1.8272,-2.9921,2.7057,0.1954,1.0640,0.0243,
15.207738,-0.3413,-1.0584,-0.1656,1.8272,-2.9921,2.7057,0.1954,1.0640,0.0243,
15.210934,-0.3252,-1.0630,-0.1678,1.8272,-2.9921,2.7057,0.1954,1.0640,0.0243,
15.212227,-0.3371,-0.9841,-0.1625,1.8272,-2.9921,2.7057,0.1954,1.0640,0.0243,
15.227922,-0.3371,-0.9841,-0.1625,1.8272,-2.9921,2.7057,0.2388,1.0450,0.6437,
15.230339,-0.3371,-0.9841,-0.1625,2.2056,-3.2928,3.4550,0.2388,1.0450,0.6437,
15.268387,-0.3760,-0.8871,-0.1647,2.2056,-3.2928,3.4550,0.2388,1.0450,0.6437,
15.271213,-0.3987,-0.8260,-0.1686,2.2056,-3.2928,3.4550,0.2388,1.0450,0.6437,
15.272927,-0.3819,-0.8077,-0.1590,2.2056,-3.2928,3.4550,0.2388,1.0450,0.6437,
15.287676,-0.3819,-0.8077,-0.1590,2.2056,-3.2928,3.4550,0.1135,1.0976,0.3621,
15.291155,-0.3819,-0.8077,-0.1590,1.6613,-1.6956,3.7597,0.1135,1.0976,0.3621,
15.327365,-0.3823,-0.8236,-0.1190,1.6613,-1.6956,3.7597,0.1135,1.0976,0.3621,
15.330745,-0.4295,-0.8441,-0.0928,1.6613,-1.6956,3.7597,0.1135,1.0976,0.3621,
15.332211,-0.4703,-0.8512,-0.1351,1.6613,-1.6956,3.7597,0.1135,1.0976,0.3621,
15.348125,-0.4703,-0.8512,-0.1351,1.6613,-1.6956,3.7597,0.2095,1.1813,0.1544,
15.350429,-0.4703,-0.8512,-0.1351,0.4771,-2.0893,4.2626,0.2095,1.1813,0.1544,
15.387958,-0.5209,-0.8556,-0.1395,0.4771,-2.0893,4.2626,0.2095,1.1813,0.1544,
15.390465,-0.5698,-0.8786,-0.0784,0.4771,-2.0893,4.2626,0.2095,1.1813,0.1544,
15.391605,-0.5546,-0.8654,-0.0366,0.4771,-2.0893,4.2626,0.2095,1.1813,0.1544,
15.408019,-0.5546,-0.8654,-0.0366,-0.6230,-2.2154,5.4512,0.2095,1.1813,0.1544,
15.410751,-0.5546,-0.8654,-0.0366,-0.6230,-2.2154,5.4512,0.2131,0.9485,0.3346,
15.449023,-0.5145,-0.8426,-0.0247,-0.6230,-2.2154,5.4512,0.2131,0.9485,0.3346,
15.452302,-0.5126,-0.8163,-0.0279,-0.6230,-2.2154,5.4512,0.2131,0.9485,0.3346,
15.454236,-0.5285,-0.7960,-0.0171,-0.6230,-2.2154,5.4512,0.2131,0.9485,0.3346,
15.471395,-0.5285,-0.7960,-0.0171,-0.6230,-2.2154,5.4512,0.2815,0.7592,0.2540,
15.474178,-0.5285,-0.7960,-0.0171,-0.5352,-1.5388,5.7818,0.2815,0.7592,0.2540,
15.507413,-0.5368,-0.7913,-0.0125,-0.5352,-1.5388,5.7818,0.2815,0.7592,0.2540,
15.509933,-0.5292,-0.7989,-0.0188,-0.5352,-1.5388,5.7818,0.2815,0.7592,0.2540,
15.511466,-0.5202,-0.8155,-0.0171,-0.5352,-1.5388,5.7818,0.2815,0.7592,0.2540,
15.527918,-0.5202,-0.8155,-0.0171,-0.5352,-1.5388,5.7818,0.3609,0.6675,-0.0454,
15.530705,-0.5202,-0.8155,-0.0171,-0.6646,-1.6110,5.8158,0.3609,0.6675,-0.0454,
15.568602,-0.5060,-0.8238,-0.0059,-0.6646,-1.6110,5.8158,0.3609,0.6675,-0.0454,
15.572124,-0.5021,-0.8463,-0.0271,-0.6646,-1.6110,5.8158,0.3609,0.6675,-0.0454,
15.573570,-0.5324,-0.8803,-0.0371,-0.6646,-1.6110,5.8158,0.3609,0.6675,-0.0454,
15.587592,-0.5324,-0.8803,-0.0371,-0.6646,-1.6110,5.8158,0.3487,0.6425,-0.1174,
15.590951,-0.5324,-0.8803,-0.0371,-1.0529,-2.0790,5.6324,0.3487,0.6425,-0.1174,
15.628796,-0.5834,-0.9147,-0.0369,-1.0529,-2.0790,5.6324,0.3487,0.6425,-0.1174,
15.632766,-0.6294,-0.9340,-0.0293,-1.0529,-2.0790,5.6324,0.3487,0.6425,-0.1174,
15.634179,-0.6699,-0.9323,-0.0083,-1.0529,-2.0790,5.6324,0.3487,0.6425,-0.1174,
15.648553,-0.6699,-0.9323,-0.0083,-1.0529,-2.0790,5.6324,0.4171,0.5680,-0.0704,
15.652787,-0.6699,-0.9323,-0.0083,-2.6502,-2.4098,5.8846,0.4171,0.5680,-0.0704,
15.688656,-0.7019,-0.8949,-0.0005,-2.6502,-2.4098,5.8846,0.4171,0.5680,-0.0704,
15.691609,-0.7237,-0.8363,-0.2274,-2.6502,-2.4098,5.8846,0.4171,0.5680,-0.0704,
15.693306,-0.7442,-0.9843,-0.1546,-2.6502,-2.4098,5.8846,0.4171,0.5680,-0.0704,
15.708608,-0.7442,-0.9843,-0.1546,-2.6502,-2.4098,5.8846,0.0079,0.0719,-0.0466,
15.710834,-0.7442,-0.9843,-0.1546,-3.5055,-2.8251,4.4252,0.0079,0.0719,-0.0466,
15.748400,-0.7464,-1.0989,-0.1041,-3.5055,-2.8251,4.4252,0.0079,0.0719,-0.0466,
15.750877,-0.5915,-0.9909,-0.2008,-3.5055,-2.8251,4.4252,0.0079,0.0719,-0.0466,
15.752405,-0.5079,-0.8597,-0.3068,-3.5055,-2.8251,4.4252,0.0079,0.0719,-0.0466,
15.768666,-0.5079,-0.8597,-0.3068,-3.5055,-2.8251,4.4252,-0.2792,-0.1895,0.0567,
15.771629,-0.5079,-0.8597,-0.3068,-1.1791,-1.6418,2.9696,-0.2792,-0.1895,0.0567,
15.807924,-0.3760,-0.8048,-0.3662,-1.1791,-1.6418,2.9696,-0.2792,-0.1895,0.0567,
15.812319,-0.2538,-0.7930,-0.3244,-1.1791,-1.6418,2.9696,-0.2792,-0.1895,0.0567,
15.813985,-0.1226,-0.8402,-0.1146,-1.1791,-1.6418,2.9696,-0.2792,-0.1895,0.0567,
15.828792,-0.1226,-0.8402,-0.1146,-1.1791,-1.6418,2.9696,0.3603,-0.3624,-0.4675,
15.830755,-0.1226,-0.8402,-0.1146,2.6054,-1.4148,4.8079,0.3603,-0.3624,-0.4675,
15.867529,-0.0840,-1.0312,-0.0469,2.6054,-1.4148,4.8079,0.3603,-0.3624,-0.4675,
15.868978,-0.2685,-1.2411,-0.0403,2.6054,-1.4148,4.8079,0.3603,-0.3624,-0.4675,
15.869716,-0.5028,-1.3046,-0.1185,2.6054,-1.4148,4.8079,0.3603,-0.3624,-0.4675,
15.888205,-0.5028,-1.3046,-0.1185,2.6054,-1.4148,4.8079,0.7666,-0.6208,0.5276,
15.889819,-0.5028,-1.3046,-0.1185,-0.9897,-5.7387,4.4073,0.7666,-0.6208,0.5276,
15.927500,-0.6142,-1.1019,-0.1879,-0.9897,-5.7387,4.4073,0.7666,-0.6208,0.5276,
15.929193,-0.5847,-0.8412,-0.1566,-0.9897,-5.7387,4.4073,0.7666,-0.6208,0.5276,
15.929977,-0.5233,-0.7439,-0.0828,-0.9897,-5.7387,4.4073,0.7666,-0.6208,0.5276,
15.947798,-0.5233,-0.7439,-0.0828,-0.9897,-5.7387,4.4073,0.3585,-0.7540,-0.1419,
15.949246,-0.5233,-0.7439,-0.0828,-0.7261,-0.1771,4.3055,0.3585,-0.7540,-0.1419,
15.987369,-0.4532,-0.7745,-0.0506,-0.7261,-0.1771,4.3055,0.3585,-0.7540,-0.1419,
15.989477,-0.3931,-0.7825,-0.0999,-0.7261,-0.1771,4.3055,0.3585,-0.7540,-0.1419,
15.991084,-0.3384,-0.7588,-0.0672,-0.7261,-0.1771,4.3055,0.3585,-0.7540,-0.1419,
16.008632,-0.3384,-0.7588,-0.0672,1.0424,-0.1130,4.1931,0.3585,-0.7540,-0.1419,
16.012174,-0.3384,-0.7588,-0.0672,1.0424,-0.1130,4.1931,-0.0606,-0.6190,-0.5542,
16.047774,-0.2844,-0.7540,-0.0213,1.0424,-0.1130,4.1931,-0.0606,-0.6190,-0.5542,
16.049359,-0.2509,-0.7708,-0.0115,1.0424,-0.1130,4.1931,-0.0606,-0.6190,-0.5542,
16.050355,-0.2678,-0.8092,-0.0024,1.0424,-0.1130,4.1931,-0.0606,-0.6190,-0.5542,
16.068021,-0.2678,-0.8092,-0.0024,1.0424,-0.1130,4.1931,-0.1998,-0.8425,-0.0728,
16.070070,-0.2678,-0.8092,-0.0024,1.7968,-0.5492,4.6826,-0.1998,-0.8425,-0.0728,
16.107488,-0.3220,-0.8414,0.0171,1.7968,-0.5492,4.6826,-0.1998,-0.8425,-0.0728,
16.109978,-0.3762,-0.8519,0.0093,1.7968,-0.5492,4.6826,-0.1998,-0.8425,-0.0728,
16.111214,-0.3797,-0.8251,0.0388,1.7968,-0.5492,4.6826,-0.1998,-0.8425,-0.0728,
16.127630,-0.3797,-0.8251,0.0388,1.7968,-0.5492,4.6826,-0.1662,-0.4772,0.0115,
16.130204,-0.3797,-0.8251,0.0388,0.8833,-0.7576,4.9933,-0.1662,-0.4772,0.0115,
16.168166,-0.3748,-0.7830,0.1038,0.8833,-0.7576,4.9933,-0.1662,-0.4772,0.0115,
16.170821,-0.3699,-0.7794,0.1363,0.8833,-0.7576,4.9933,-0.1662,-0.4772,0.0115,
16.172590,-0.3806,-0.8104,0.1380,0.8833,-0.7576,4.9933,-0.1662,-0.4772,0.0115,
16.191300,-0.3806,-0.8104,0.1380,1.0187,-0.6195,5.8251,-0.1662,-0.4772,0.0115,
16.194112,-0.3806,-0.8104,0.1380,1.0187,-0.6195,5.8251,-0.1314,-0.8126,-0.0264,
16.227063,-0.4202,-0.8402,0.1068,1.0187,-0.6195,5.8251,-0.1314,-0.8126,-0.0264,
16.229751,-0.4813,-0.8751,0.0596,1.0187,-0.6195,5.8251,-0.1314,-0.8126,-0.0264,
16.231459,-0.4896,-0.9550,0.0374,1.0187,-0.6195,5.8251,-0.1314,-0.8126,-0.0264,
16.248269,-0.4896,-0.9550,0.0374,0.1905,-2.1053,4.6866,-0.1314,-0.8126,-0.0264,
16.250812,-0.4896,-0.9550,0.0374,0.1905,-2.1053,4.6866,-0.2334,-0.5713,0.0475,
16.287671,-0.4490,-1.0576,0.0945,0.1905,-2.1053,4.6866,-0.2334,-0.5713,0.0475,
16.290919,-0.4361,-1.0989,0.1507,0.1905,-2.1053,4.6866,-0.2334,-0.5713,0.0475,
16.292045,-0.4686,-1.0679,0.2199,0.1905,-2.1053,4.6866,-0.2334,-0.5713,0.0475,
16.307976,-0.4686,-1.0679,0.2199,0.1905,-2.1053,4.6866,-0.2163,-0.4699,0.0738,
16.311101,-0.4686,-1.0679,0.2199,0.4675,-3.2253,6.4153,-0.2163,-0.4699,0.0738,
16.348139,-0.5380,-0.9902,0.2665,0.4675,-3.2253,6.4153,-0.2163,-0.4699,0.0738,
16.350933,-0.5377,-0.9191,0.3191,0.4675,-3.2253,6.4153,-0.2163,-0.4699,0.0738,
16.353136,-0.4849,-0.8153,0.3142,0.4675,-3.2253,6.4153,-0.2163,-0.4699,0.0738,
16.368195,-0.4849,-0.8153,0.3142,0.4675,-3.2253,6.4153,-0.4564,-1.1077,0.2705,
16.370776,-0.4849,-0.8153,0.3142,0.6229,-0.8839,7.1755,-0.4564,-1.1077,0.2705,
16.408386,-0.4930,-1.0928,0.2209,0.6229,-0.8839,7.1755,-0.4564,-1.1077,0.2705,
16.411276,-0.5837,-1.2018,-0.1070,0.6229,-0.8839,7.1755,-0.4564,-1.1077,0.2705,
16.412879,-0.3904,-1.1070,-0.0401,0.6229,-0.8839,7.1755,-0.4564,-1.1077,0.2705,
16.429252,-0.3904,-1.1070,-0.0401,0.6229,-0.8839,7.1755,-0.5468,0.4036,-0.7185,
16.431952,-0.3904,-1.1070,-0.0401,1.6192,-3.8022,3.7147,-0.5468,0.4036,-0.7185,
16.468464,-0.1559,-1.0273,-0.0967,1.6192,-3.8022,3.7147,-0.5468,0.4036,-0.7185,
16.470961,-0.1468,-1.0689,-0.1952,1.6192,-3.8022,3.7147,-0.5468,0.4036,-0.7185,
16.472204,-0.2551,-1.0207,-0.1625,1.6192,-3.8022,3.7147,-0.5468,0.4036,-0.7185,
16.489807,-0.2551,-1.0207,-0.1625,1.6192,-3.8022,3.7147,-0.3880,-0.5701,-0.1461,
16.492982,-0.2551,-1.0207,-0.1625,2.7154,-2.8422,2.6142,-0.3880,-0.5701,-0.1461,
16.527410,-0.3244,-0.7899,-0.2384,2.7154,-2.8422,2.6142,-0.3880,-0.5701,-0.1461,
16.531013,-0.3882,-0.6321,-0.3506,2.7154,-2.8422,2.6142,-0.3880,-0.5701,-0.1461,
16.532634,-0.4703,-0.6582,-0.3017,2.7154,-2.8422,2.6142,-0.3880,-0.5701,-0.1461,
16.547672,-0.4703,-0.6582,-0.3017,2.7154,-2.8422,2.6142,-0.5541,-0.4950,-0.1859,
16.550094,-0.4703,-0.6582,-0.3017,0.7343,0.6065,1.2648,-0.5541,-0.4950,-0.1859,
16.592400,-0.4791,-0.8519,-0.2106,0.7343,0.6065,1.2648,-0.5541,-0.4950,-0.1859,
16.594775,-0.4036,-1.0115,-0.1862,0.7343,0.6065,1.2648,-0.5541,-0.4950,-0.1859,
16.596247,-0.3469,-1.0874,-0.1805,0.7343,0.6065,1.2648,-0.5541,-0.4950,-0.1859,
16.607823,-0.3469,-1.0874,-0.1805,0.7343,0.6065,1.2648,-0.4185,-0.0460,0.0304,
16.609667,-0.3469,-1.0874,-0.1805,1.9270,-3.6610,2.5728,-0.4185,-0.0460,0.0304,
16.647441,-0.3418,-1.0176,-0.1630,1.9270,-3.6610,2.5728,-0.4185,-0.0460,0.0304,
16.649802,-0.3474,-0.9338,-0.1239,1.9270,-3.6610,2.5728,-0.4185,-0.0460,0.0304,
16.651055,-0.3990,-0.8759,-0.1395,1.9270,-3.6610,2.5728,-0.4185,-0.0460,0.0304,
16.669425,-0.3990,-0.8759,-0.1395,1.9270,-3.6610,2.5728,-0.0685,0.0780,0.8483,
16.671979,-0.3990,-0.8759,-0.1395,1.5890,-1.7670,3.0453,-0.0685,0.0780,0.8483,
16.708933,-0.4151,-0.8048,-0.1520,1.5890,-1.7670,3.0453,-0.0685,0.0780,0.8483,
16.711596,-0.4095,-0.7234,-0.1715,1.5890,-1.7670,3.0453,-0.0685,0.0780,0.8483,
16.713263,-0.4009,-0.6956,-0.1532,1.5890,-1.7670,3.0453,-0.0685,0.0780,0.8483,
16.727726,-0.4009,-0.6956,-0.1532,1.5890,-1.7670,3.0453,-0.3171,0.2851,0.1367,
16.730993,-0.4009,-0.6956,-0.1532,1.7621,-0.2716,3.0756,-0.3171,0.2851,0.1367,
16.768627,-0.4048,-0.7376,-0.1368,1.7621,-0.2716,3.0756,-0.3171,0.2851,0.1367,
16.771503,-0.4346,-0.8211,-0.1368,1.7621,-0.2716,3.0756,-0.3171,0.2851,0.1367,
16.773255,-0.4764,-0.9086,-0.1024,1.7621,-0.2716,3.0756,-0.3171,0.2851,0.1367,
16.788718,-0.4764,-0.9086,-0.1024,1.7621,-0.2716,3.0756,-0.0239,0.3517,0.1049,
16.793255,-0.4764,-0.9086,-0.1024,0.9244,-2.3994,3.7480,-0.0239,0.3517,0.1049,
16.828122,-0.4652,-0.9475,-0.0396,0.9244,-2.3994,3.7480,-0.0239,0.3517,0.1049,
16.830508,-0.4671,-0.9638,-0.0362,0.9244,-2.3994,3.7480,-0.0239,0.3517,0.1049,
16.832149,-0.4874,-0.9250,-0.0432,0.9244,-2.3994,3.7480,-0.0239,0.3517,0.1049,
16.848938,-0.4874,-0.9250,-0.0432,0.9244,-2.3994,3.7480,0.3408,0.4672,0.3994,
16.851602,-0.4874,-0.9250,-0.0432,0.7922,-2.5709,4.3711,0.3408,0.4672,0.3994,
16.887628,-0.4874,-0.8370,-0.0577,0.7922,-2.5709,4.3711,0.3408,0.4672,0.3994,
16.890416,-0.4754,-0.7879,-0.0711,0.7922,-2.5709,4.3711,0.3408,0.4672,0.3994,
16.892616,-0.4722,-0.8082,-0.0459,0.7922,-2.5709,4.3711,0.3408,0.4672,0.3994,
16.908370,-0.4722,-0.8082,-0.0459,0.9254,-1.4089,4.3386,0.3408,0.4672,0.3994,
16.911165,-0.4722,-0.8082,-0.0459,0.9254,-1.4089,4.3386,0.3939,0.4305,-0.0765,
16.950063,-0.4754,-0.8673,-0.0049,0.9254,-1.4089,4.3386,0.3939,0.4305,-0.0765,
16.952828,-0.4957,-0.9213,-0.0076,0.9254,-1.4089,4.3386,0.3939,0.4305,-0.0765,
16.954649,-0.5436,-0.9360,-0.0203,0.9254,-1.4089,4.3386,0.3939,0.4305,-0.0765,
16.968146,-0.5436,-0.9360,-0.0203,0.9254,-1.4089,4.3386,0.2730,0.6700,-0.0881,
16.970289,-0.5436,-0.9360,-0.0203,-0.0088,-2.4702,4.5930,0.2730,0.6700,-0.0881,
17.007786,-0.5964,-0.9054,-0.0271,-0.0088,-2.4702,4.5930,0.2730,0.6700,-0.0881,
17.010903,-0.6325,-0.8761,0.0147,-0.0088,-2.4702,4.5930,0.2730,0.6700,-0.0881,
17.012574,-0.6479,-0.8490,0.0657,-0.0088,-2.4702,4.5930,0.2730,0.6700,-0.0881,
17.029154,-0.6479,-0.8490,0.0657,-0.0088,-2.4702,4.5930,0.1539,0.7085,0.0066,
17.032055,-0.6479,-0.8490,0.0657,-1.2010,-1.5339,5.5028,0.1539,0.7085,0.0066,
17.068922,-0.6352,-0.8260,-0.0933,-1.2010,-1.5339,5.5028,0.1539,0.7085,0.0066,
17.072460,-0.6521,-1.0293,-0.0261,-1.2010,-1.5339,5.5028,0.1539,0.7085,0.0066,
17.074025,-0.7542,-1.1791,-0.0806,-1.2010,-1.5339,5.5028,0.1539,0.7085,0.0066,
17.088819,-0.7542,-1.1791,-0.0806,-2.4165,-4.7604,4.2358,0.1539,0.7085,0.0066,
17.092209,-0.7542,-1.1791,-0.0806,-2.4165,-4.7604,4.2358,0.0470,0.4867,0.2527,
17.128559,-0.6299,-1.0254,-0.1270,-2.4165,-4.7604,4.2358,0.0470,0.4867,0.2527,
17.132274,-0.6032,-0.9154,-0.2248,-2.4165,-4.7604,4.2358,0.0470,0.4867,0.2527,
17.133795,-0.5759,-0.8751,-0.2959,-2.4165,-4.7604,4.2358,0.0470,0.4867,0.2527,
17.148723,-0.5759,-0.8751,-0.2959,-2.4165,-4.7604,4.2358,-0.2346,0.0145,0.1642,
17.151599,-0.5759,-0.8751,-0.2959,-0.6163,-1.9059,2.2389,-0.2346,0.0145,0.1642,
17.188515,-0.4989,-0.8466,-0.3716,-0.6163,-1.9059,2.2389,-0.2346,0.0145,0.1642,
17.190894,-0.3498,-0.8038,-0.4129,-0.6163,-1.9059,2.2389,-0.2346,0.0145,0.1642,
17.192366,-0.1471,-0.7547,-0.3892,-0.6163,-1.9059,2.2389,-0.2346,0.0145,0.1642,
17.209406,-0.1471,-0.7547,-0.3892,-0.6163,-1.9059,2.2389,-0.1149,-0.2292,-0.4003,
17.212372,-0.1471,-0.7547,-0.3892,3.5371,-0.7530,1.4067,-0.1149,-0.2292,-0.4003,
17.248122,-0.0156,-0.7967,-0.1708,3.5371,-0.7530,1.4067,-0.1149,-0.2292,-0.4003,
17.250910,-0.1334,-1.0205,-0.1024,3.5371,-0.7530,1.4067,-0.1149,-0.2292,-0.4003,
17.252303,-0.3679,-1.2010,-0.1292,3.5371,-0.7530,1.4067,-0.1149,-0.2292,-0.4003,
17.267654,-0.3679,-1.2010,-0.1292,3.5371,-0.7530,1.4067,0.3646,-0.5976,0.3774,
17.270137,-0.3679,-1.2010,-0.1292,1.3968,-5.0074,3.7743,0.3646,-0.5976,0.3774,
17.308278,-0.5268,-1.1981,-0.1507,1.3968,-5.0074,3.7743,0.3646,-0.5976,0.3774,
17.312814,-0.5891,-1.0469,-0.1212,1.3968,-5.0074,3.7743,0.3646,-0.5976,0.3774,
17.314270,-0.5500,-0.8998,-0.1280,1.3968,-5.0074,3.7743,0.3646,-0.5976,0.3774,
17.327669,-0.5500,-0.8998,-0.1280,1.3968,-5.0074,3.7743,0.8612,-0.3361,0.0799,
17.330244,-0.5500,-0.8998,-0.1280,-0.0539,-1.9811,3.3231,0.8612,-0.3361,0.0799,
17.368490,-0.4722,-0.8307,-0.0599,-0.0539,-1.9811,3.3231,0.8612,-0.3361,0.0799,
17.370619,-0.4634,-0.8431,-0.0655,-0.0539,-1.9811,3.3231,0.8612,-0.3361,0.0799,
17.371772,-0.4439,-0.8207,-0.0804,-0.0539,-1.9811,3.3231,0.8612,-0.3361,0.0799,
17.390670,-0.4439,-0.8207,-0.0804,0.9115,-0.9143,3.4162,0.8612,-0.3361,0.0799,
17.394458,-0.4439,-0.8207,-0.0804,0.9115,-0.9143,3.4162,0.3054,-0.2812,-0.5218,
17.426730,-0.4275,-0.7816,-0.0151,0.9115,-0.9143,3.4162,0.3054,-0.2812,-0.5218,
17.428106,-0.3987,-0.7740,0.0076,0.9115,-0.9143,3.4162,0.3054,-0.2812,-0.5218,
17.428924,-0.3323,-0.7672,0.0371,0.9115,-0.9143,3.4162,0.3054,-0.2812,-0.5218,
17.447500,-0.3323,-0.7672,0.0371,0.9115,-0.9143,3.4162,0.0683,-0.3691,-0.0759,
17.449030,-0.3323,-0.7672,0.0371,1.9482,-0.2309,4.3617,0.0683,-0.3691,-0.0759,
17.487456,-0.3088,-0.7767,0.0574,1.9482,-0.2309,4.3617,0.0683,-0.3691,-0.0759,
17.489615,-0.3254,-0.7781,0.0669,1.9482,-0.2309,4.3617,0.0683,-0.3691,-0.0759,
17.490788,-0.3713,-0.7950,0.0923,1.9482,-0.2309,4.3617,0.0683,-0.3691,-0.0759,
17.508094,-0.3713,-0.7950,0.0923,1.6098,-0.4794,4.7983,0.0683,-0.3691,-0.0759,
17.510745,-0.3713,-0.7950,0.0923,1.6098,-0.4794,4.7983,-0.0740,-0.1058,-0.0093,
17.548119,-0.4107,-0.8165,0.1454,1.6098,-0.4794,4.7983,-0.0740,-0.1058,-0.0093,
17.550869,-0.4256,-0.8253,0.1603,1.6098,-0.4794,4.7983,-0.0740,-0.1058,-0.0093,
17.552507,-0.4178,-0.8356,0.1451,1.6098,-0.4794,4.7983,-0.0740,-0.1058,-0.0093,
17.568469,-0.4178,-0.8356,0.1451,1.2001,-0.8841,5.2678,-0.0740,-0.1058,-0.0093,
17.571145,-0.4178,-0.8356,0.1451,1.2001,-0.8841,5.2678,0.0360,-0.1901,0.1348,
17.607304,-0.4019,-0.8429,0.1158,1.2001,-0.8841,5.2678,0.0360,-0.1901,0.1348,
17.610172,-0.4082,-0.8519,0.0821,1.2001,-0.8841,5.2678,0.0360,-0.1901,0.1348,
17.611783,-0.4112,-0.8795,0.0440,1.2001,-0.8841,5.2678,0.0360,-0.1901,0.1348,
17.628043,-0.4112,-0.8795,0.0440,1.2001,-0.8841,5.2678,-0.0819,-0.2952,0.0909,
17.631139,-0.4112,-0.8795,0.0440,1.3849,-1.3421,4.1586,-0.0819,-0.2952,0.0909,
17.668331,-0.4165,-0.9528,0.0435,1.3849,-1.3421,4.1586,-0.0819,-0.2952,0.0909,
17.670756,-0.4231,-1.0251,0.0897,1.3849,-1.3421,4.1586,-0.0819,-0.2952,0.0909,
17.672421,-0.4373,-1.0305,0.1698,1.3849,-1.3421,4.1586,-0.0819,-0.2952,0.0909,
17.688209,-0.4373,-1.0305,0.1698,1.1647,-2.8215,5.3383,-0.0819,-0.2952,0.0909,
17.691258,-0.4373,-1.0305,0.1698,1.1647,-2.8215,5.3383,0.0256,-0.0594,0.0408,
17.728326,-0.4830,-0.9694,0.2296,1.1647,-2.8215,5.3383,0.0256,-0.0594,0.0408,
17.731960,-0.5458,-0.9120,0.2973,1.1647,-2.8215,5.3383,0.0256,-0.0594,0.0408,
17.733404,-0.6027,-0.8348,0.3406,1.1647,-2.8215,5.3383,0.0256,-0.0594,0.0408,
17.748477,-0.6027,-0.8348,0.3406,-0.2816,-0.9724,6.8813,0.0256,-0.0594,0.0408,
17.752133,-0.6027,-0.8348,0.3406,-0.2816,-0.9724,6.8813,-0.2133,-0.9366,0.4861,
17.787103,-0.6772,-1.0804,0.2800,-0.2816,-0.9724,6.8813,-0.2133,-0.9366,0.4861,
17.789739,-0.5763,-1.3242,0.0066,-0.2816,-0.9724,6.8813,-0.2133,-0.9366,0.4861,
17.791608,-0.4598,-1.1380,0.0005,-0.2816,-0.9724,6.8813,-0.2133,-0.9366,0.4861,
17.807389,-0.4598,-1.1380,0.0005,-0.2816,-0.9724,6.8813,-0.4790,0.4922,-0.8511,
17.809950,-0.4598,-1.1380,0.0005,1.1733,-3.9430,3.4602,-0.4790,0.4922,-0.8511,
17.848741,-0.2441,-0.9145,0.0261,1.1733,-3.9430,3.4602,-0.4790,0.4922,-0.8511,
17.851113,-0.1879,-0.9997,-0.0625,1.1733,-3.9430,3.4602,-0.4790,0.4922,-0.8511,
17.852359,-0.2944,-1.0376,-0.0349,1.1733,-3.9430,3.4602,-0.4790,0.4922,-0.8511,
17.867637,-0.2944,-1.0376,-0.0349,1.1733,-3.9430,3.4602,-0.1070,-0.2005,-0.0698,
17.869847,-0.2944,-1.0376,-0.0349,2.5252,-2.8099,3.2285,-0.1070,-0.2005,-0.0698,
17.907688,-0.3032,-0.9462,-0.0919,2.5252,-2.8099,3.2285,-0.1070,-0.2005,-0.0698,
17.910924,-0.3205,-0.7933,-0.2167,2.5252,-2.8099,3.2285,-0.1070,-0.2005,-0.0698,
17.913306,-0.3503,-0.6685,-0.2871,2.5252,-2.8099,3.2285,-0.1070,-0.2005,-0.0698,
17.930221,-0.3503,-0.6685,-0.2871,2.0543,0.7080,0.8427,-0.1070,-0.2005,-0.0698,
17.933080,-0.3503,-0.6685,-0.2871,2.0543,0.7080,0.8427,-0.7068,-0.2054,0.0047,
17.967492,-0.4253,-0.6211,-0.2985,2.0543,0.7080,0.8427,-0.7068,-0.2054,0.0047,
17.969758,-0.4595,-0.7327,-0.2919,2.0543,0.7080,0.8427,-0.7068,-0.2054,0.0047,
17.970940,-0.4288,-0.9900,-0.2348,2.0543,0.7080,0.8427,-0.7068,-0.2054,0.0047,
17.987923,-0.4288,-0.9900,-0.2348,2.0543,0.7080,0.8427,-0.1919,0.3096,-0.4919,
17.990013,-0.4288,-0.9900,-0.2348,1.1680,-2.4601,1.5586,-0.1919,0.3096,-0.4919,
18.031154,-0.3894,-1.1023,-0.1761,1.1680,-2.4601,1.5586,-0.1919,0.3096,-0.4919,
18.033812,-0.3674,-1.0667,-0.1163,1.1680,-2.4601,1.5586,-0.1919,0.3096,-0.4919,
18.035058,-0.4065,-0.9843,-0.1021,1.1680,-2.4601,1.5586,-0.1919,0.3096,-0.4919,
18.047724,-0.4065,-0.9843,-0.1021,1.1680,-2.4601,1.5586,0.0268,0.2753,0.7060,
18.050545,-0.4065,-0.9843,-0.1021,1.2976,-2.3879,2.9473,0.0268,0.2753,0.7060,
18.088118,-0.4422,-0.8937,-0.1075,1.2976,-2.3879,2.9473,0.0268,0.2753,0.7060,
18.091316,-0.4495,-0.8505,-0.1341,1.2976,-2.3879,2.9473,0.0268,0.2753,0.7060,
18.092649,-0.4466,-0.8277,-0.1405,1.2976,-2.3879,2.9473,0.0268,0.2753,0.7060,
18.108391,-0.4466,-0.8277,-0.1405,1.1447,-1.1089,2.7030,0.0268,0.2753,0.7060,
18.111246,-0.4466,-0.8277,-0.1405,1.1447,-1.1089,2.7030,-0.1155,0.3676,0.6064,
18.148387,-0.4354,-0.7694,-0.1251,1.1447,-1.1089,2.7030,-0.1155,0.3676,0.6064,
18.151077,-0.4383,-0.7320,-0.1143,1.1447,-1.1089,2.7030,-0.1155,0.3676,0.6064,
18.152445,-0.4759,-0.7454,-0.1080,1.1447,-1.1089,2.7030,-0.1155,0.3676,0.6064,
18.168314,-0.4759,-0.7454,-0.1080,1.1447,-1.1089,2.7030,-0.0984,0.5521,0.0536,
18.170886,-0.4759,-0.7454,-0.1080,0.8644,-0.4195,3.2076,-0.0984,0.5521,0.0536,
18.208266,-0.4915,-0.7874,-0.0777,0.8644,-0.4195,3.2076,-0.0984,0.5521,0.0536,
18.211477,-0.5077,-0.8529,-0.0430,0.8644,-0.4195,3.2076,-0.0984,0.5521,0.0536,
18.214053,-0.5209,-0.9213,-0.0171,0.8644,-0.4195,3.2076,-0.0984,0.5521,0.0536,
18.230734,-0.5209,-0.9213,-0.0171,0.3123,-2.1534,4.2544,-0.0984,0.5521,0.0536,
18.233410,-0.5209,-0.9213,-0.0171,0.3123,-2.1534,4.2544,0.1453,0.4690,0.1501,
18.267178,-0.5377,-0.9330,0.0061,0.3123,-2.1534,4.2544,0.1453,0.4690,0.1501,
18.269770,-0.5483,-0.8788,-0.0046,0.3123,-2.1534,4.2544,0.1453,0.4690,0.1501,
18.271201,-0.5553,-0.7977,-0.0296,0.3123,-2.1534,4.2544,0.1453,0.4690,0.1501,
18.287943,-0.5553,-0.7977,-0.0296,0.3123,-2.1534,4.2544,0.3170,0.2760,0.2882,
18.290789,-0.5553,-0.7977,-0.0296,-0.0194,-0.9623,4.1567,0.3170,0.2760,0.2882,
18.329374,-0.5531,-0.7672,-0.0437,-0.0194,-0.9623,4.1567,0.3170,0.2760,0.2882,
18.334871,-0.5228,-0.8021,-0.0242,-0.0194,-0.9623,4.1567,0.3170,0.2760,0.2882,
