
time,gFx,gFy,gFz,ax,ay,az,wx,wy,wz,
0.030479,-0.2265,0.1970,0.8983,0.0000,0.0000,0.0000,0.0000,0.0000,0.0000,
0.031015,-0.2262,0.1832,0.8275,0.0000,0.0000,0.0000,0.0000,0.0000,0.0000,
0.031495,-0.2194,0.1725,0.9319,0.0000,0.0000,0.0000,0.0000,0.0000,0.0000,
0.031847,-0.2271,0.1747,1.0288,0.0000,0.0000,0.0000,0.0000,0.0000,0.0000,
0.032193,-0.2733,0.1954,1.0852,0.0000,0.0000,0.0000,0.0000,0.0000,0.0000,
0.032546,-0.2654,0.1763,1.0946,0.0000,0.0000,0.0000,0.0000,0.0000,0.0000,
0.032887,-0.3080,0.1306,1.0788,0.0000,0.0000,0.0000,0.0000,0.0000,0.0000,
0.080749,-0.3080,0.1306,1.0788,0.0000,0.0000,0.0000,0.5241,1.0506,0.9431,
0.095194,-0.3724,0.1019,0.9974,0.0000,0.0000,0.0000,0.5241,1.0506,0.9431,
0.096323,-0.5246,-0.0029,0.8926,0.0000,0.0000,0.0000,0.5241,1.0506,0.9431,
0.096983,-0.5107,0.1570,0.8262,0.0000,0.0000,0.0000,0.5241,1.0506,0.9431,
0.121915,-0.5107,0.1570,0.8262,0.0000,0.0000,0.0000,0.4953,0.3614,2.0563,
0.124105,-0.5107,0.1570,0.8262,0.0000,0.0000,-0.0000,0.4953,0.3614,2.0563,
0.161571,-0.5107,0.1570,0.8262,0.0000,0.0000,-0.0000,0.0937,-0.1531,1.2297,
0.163653,-0.5107,0.1570,0.8262,1.4292,1.3683,-0.6872,0.0937,-0.1531,1.2297,
0.183073,-0.2728,0.3390,0.7742,1.4292,1.3683,-0.6872,0.0937,-0.1531,1.2297,
0.185124,-0.1057,0.4169,0.7548,1.4292,1.3683,-0.6872,0.0937,-0.1531,1.2297,
0.186451,-0.1231,0.4159,0.7737,1.4292,1.3683,-0.6872,0.0937,-0.1531,1.2297,
0.187948,-0.1797,0.3611,0.8067,1.4292,1.3683,-0.6872,0.0937,-0.1531,1.2297,
0.201886,-0.1797,0.3611,0.8067,0.6397,0.6873,-0.3717,0.0937,-0.1531,1.2297,
0.203571,-0.1797,0.3611,0.8067,0.6397,0.6873,-0.3717,-0.1012,-0.3917,0.2219,
0.230447,-0.2284,0.2944,0.8668,0.6397,0.6873,-0.3717,-0.1012,-0.3917,0.2219,
0.232099,-0.2512,0.2680,0.9443,0.6397,0.6873,-0.3717,-0.1012,-0.3917,0.2219,
0.232866,-0.2016,0.2845,0.9490,0.6397,0.6873,-0.3717,-0.1012,-0.3917,0.2219,
0.242538,-0.2016,0.2845,0.9490,0.6397,0.6873,-0.3717,0.3259,-0.6421,0.2710,
0.244057,-0.2016,0.2845,0.9490,-0.0738,-0.1662,0.4292,0.3259,-0.6421,0.2710,
0.279985,-0.2016,0.2845,0.9490,-0.2090,-0.2901,0.3209,0.3259,-0.6421,0.2710,
0.283188,-0.2016,0.2845,0.9490,-0.2090,-0.2901,0.3209,0.7627,-0.6187,0.3136,
0.306908,-0.1617,0.3077,0.8991,-0.2090,-0.2901,0.3209,0.7627,-0.6187,0.3136,
0.308786,-0.1714,0.3142,0.8583,-0.2090,-0.2901,0.3209,0.7627,-0.6187,0.3136,
0.310704,-0.2245,0.3294,0.8326,-0.2090,-0.2901,0.3209,0.7627,-0.6187,0.3136,
0.312042,-0.2344,0.3867,0.8075,-0.2090,-0.2901,0.3209,0.7627,-0.6187,0.3136,
0.319326,-0.2344,0.3867,0.8075,-0.2090,-0.2901,0.3209,0.5070,-0.3055,0.4020,
0.321510,-0.2344,0.3867,0.8075,0.0332,-0.4053,0.4919,0.5070,-0.3055,0.4020,
0.362461,-0.2344,0.3867,0.8075,0.0332,-0.4053,0.4919,-0.0043,-0.2788,0.6076,
0.364349,-0.2344,0.3867,0.8075,-0.3557,0.2087,-0.3061,-0.0043,-0.2788,0.6076,
0.385127,-0.1689,0.4062,0.8045,-0.3557,0.2087,-0.3061,-0.0043,-0.2788,0.6076,
0.387023,-0.1012,0.4169,0.9256,-0.3557,0.2087,-0.3061,-0.0043,-0.2788,0.6076,
0.388264,-0.0192,0.4095,1.1044,-0.3557,0.2087,-0.3061,-0.0043,-0.2788,0.6076,
0.390279,0.0372,0.3952,1.1824,-0.3557,0.2087,-0.3061,-0.0043,-0.2788,0.6076,
0.399830,0.0372,0.3952,1.1824,-0.3557,0.2087,-0.3061,-0.1801,-0.3800,0.4819,
0.402733,0.0372,0.3952,1.1824,1.0265,0.4679,1.7944,-0.1801,-0.3800,0.4819,
0.438368,0.0372,0.3952,1.1824,1.0265,0.4679,1.7944,-0.3473,0.1739,0.1665,
0.440071,0.0372,0.3952,1.1824,0.6790,-0.2662,1.1437,-0.3473,0.1739,0.1665,
0.462361,0.0211,0.3447,1.1056,0.6790,-0.2662,1.1437,-0.3473,0.1739,0.1665,
0.463669,-0.0610,0.3248,1.0074,0.6790,-0.2662,1.1437,-0.3473,0.1739,0.1665,
0.464696,-0.1264,0.2796,0.9703,0.6790,-0.2662,1.1437,-0.3473,0.1739,0.1665,
0.465497,-0.1964,0.2157,0.9207,0.6790,-0.2662,1.1437,-0.3473,0.1739,0.1665,
0.477574,-0.1964,0.2157,0.9207,0.6790,-0.2662,1.1437,-0.7223,-0.0210,0.2443,
0.478977,-0.1964,0.2157,0.9207,0.5486,-0.0179,0.8998,-0.7223,-0.0210,0.2443,
0.516345,-0.1964,0.2157,0.9207,0.5486,-0.0179,0.8998,-0.7894,-1.1151,0.2859,
0.517255,-0.1964,0.2157,0.9207,0.5379,-0.0274,0.8437,-0.7894,-1.1151,0.2859,
0.529609,0.0001,0.3313,1.0490,0.5379,-0.0274,0.8437,-0.7894,-1.1151,0.2859,
0.531109,0.1856,0.3127,1.1737,0.5379,-0.0274,0.8437,-0.7894,-1.1151,0.2859,
0.532406,0.1832,0.2408,1.2738,0.5379,-0.0274,0.8437,-0.7894,-1.1151,0.2859,
0.555997,0.1832,0.2408,1.2738,0.5379,-0.0274,0.8437,-0.3686,-0.5665,-0.3533,
0.556963,0.1832,0.2408,1.2738,0.3184,0.1022,0.6935,-0.3686,-0.5665,-0.3533,
0.596196,0.1832,0.2408,1.2738,0.3184,0.1022,0.6935,0.3696,0.2272,-0.4417,
0.597823,0.1832,0.2408,1.2738,1.4742,-1.1465,1.5772,0.3696,0.2272,-0.4417,
0.610589,0.0990,0.1407,1.2200,1.4742,-1.1465,1.5772,0.3696,0.2272,-0.4417,
0.612593,0.0763,0.0928,0.9668,1.4742,-1.1465,1.5772,0.3696,0.2272,-0.4417,
0.613660,0.0828,0.1191,0.8044,1.4742,-1.1465,1.5772,0.3696,0.2272,-0.4417,
0.615087,0.1546,0.1866,0.7588,1.4742,-1.1465,1.5772,0.3696,0.2272,-0.4417,
0.636506,0.1546,0.1866,0.7588,1.4742,-1.1465,1.5772,0.3931,-0.4290,-0.4268,
0.638601,0.1546,0.1866,0.7588,1.2054,-1.1494,1.4365,0.3931,-0.4290,-0.4268,
0.677990,0.1987,0.2202,0.8722,1.2054,-1.1494,1.4365,0.3931,-0.4290,-0.4268,
0.680148,0.1613,0.2073,1.0228,1.2054,-1.1494,1.4365,0.3931,-0.4290,-0.4268,
0.681528,0.1275,0.1263,1.1545,1.2054,-1.1494,1.4365,0.3931,-0.4290,-0.4268,
0.682744,0.1275,0.1263,1.1545,1.2054,-1.1494,1.4365,-0.0575,-0.2852,-0.5919,
0.683953,0.1275,0.1263,1.1545,1.2696,-0.8623,-1.7266,-0.0575,-0.2852,-0.5919,
0.715389,0.1275,0.1263,1.1545,1.2696,-0.8623,-1.7266,-0.3164,1.5833,-0.1850,
0.717026,0.1275,0.1263,1.1545,1.7073,-0.6667,-1.5731,-0.3164,1.5833,-0.1850,
0.756583,0.0556,0.0737,1.1800,1.7073,-0.6667,-1.5731,-0.3164,1.5833,-0.1850,
0.758753,-0.0321,0.1557,1.0023,1.7073,-0.6667,-1.5731,-0.3164,1.5833,-0.1850,
0.759834,-0.0611,0.1597,0.8420,1.7073,-0.6667,-1.5731,-0.3164,1.5833,-0.1850,
0.761007,-0.0098,0.0558,0.9290,1.7073,-0.6667,-1.5731,-0.3164,1.5833,-0.1850,
0.762486,-0.0098,0.0558,0.9290,1.7073,-0.6667,-1.5731,-1.0461,2.0243,0.1889,
0.763658,-0.0098,0.0558,0.9290,0.6381,-0.7170,-0.4649,-1.0461,2.0243,0.1889,
0.796481,-0.0098,0.0558,0.9290,0.6381,-0.7170,-0.4649,-0.7478,1.7462,0.4275,
0.799459,-0.0098,0.0558,0.9290,1.1609,-0.4194,-0.3931,-0.7478,1.7462,0.4275,
0.831572,-0.1458,0.0695,1.1400,1.1609,-0.4194,-0.3931,-0.7478,1.7462,0.4275,
0.833277,-0.2325,0.1458,1.2690,1.1609,-0.4194,-0.3931,-0.7478,1.7462,0.4275,
0.834209,-0.1989,0.1963,1.1937,1.1609,-0.4194,-0.3931,-0.7478,1.7462,0.4275,
0.835094,-0.1358,0.4143,1.0056,1.1609,-0.4194,-0.3931,-0.7478,1.7462,0.4275,
0.838094,-0.1358,0.4143,1.0056,1.1609,-0.4194,-0.3931,1.0482,1.8751,0.6204,
0.839433,-0.1358,0.4143,1.0056,0.2427,-0.6646,2.3340,1.0482,1.8751,0.6204,
0.874465,-0.1358,0.4143,1.0056,0.5962,-1.0480,2.3520,1.0482,1.8751,0.6204,
0.876253,-0.1358,0.4143,1.0056,0.5962,-1.0480,2.3520,1.4551,0.9143,-0.7006,
0.914134,-0.0580,0.4301,0.8507,0.5962,-1.0480,2.3520,1.4551,0.9143,-0.7006,
0.916726,-0.1625,0.3407,0.7119,0.5962,-1.0480,2.3520,1.4551,0.9143,-0.7006,
0.918030,-0.2606,0.3787,0.6454,0.5962,-1.0480,2.3520,1.4551,0.9143,-0.7006,
0.919039,-0.2606,0.3787,0.6454,0.5962,-1.0480,2.3520,-0.0575,0.2815,-0.9584,
0.919943,-0.2606,0.3787,0.6454,1.4050,1.4845,-0.9317,-0.0575,0.2815,-0.9584,
0.955358,-0.2606,0.3787,0.6454,1.4050,1.4845,-0.9317,-1.1644,-0.6165,-0.3799,
0.957620,-0.2606,0.3787,0.6454,-0.5350,1.6585,-3.3100,-1.1644,-0.6165,-0.3799,
0.994037,-0.3043,0.3851,0.5895,-0.5350,1.6585,-3.3100,-1.1644,-0.6165,-0.3799,
0.996403,-0.3368,0.3663,0.5817,-0.5350,1.6585,-3.3100,-1.1644,-0.6165,-0.3799,
0.998194,-0.2754,0.3194,0.5603,-0.5350,1.6585,-3.3100,-1.1644,-0.6165,-0.3799,
0.999614,-0.1993,0.2471,0.5348,-0.5350,1.6585,-3.3100,-1.1644,-0.6165,-0.3799,
1.001036,-0.1315,0.2238,0.6600,-0.5350,1.6585,-3.3100,-1.1644,-0.6165,-0.3799,
1.003232,-0.1315,0.2238,0.6600,-0.5350,1.6585,-3.3100,-1.6150,-3.4107,-0.0444,
1.005340,-0.1315,0.2238,0.6600,-0.7878,1.0834,-3.6204,-1.6150,-3.4107,-0.0444,
1.033779,-0.1315,0.2238,0.6600,-0.7878,1.0834,-3.6204,-1.4456,-2.8855,0.5458,
1.036035,-0.1315,0.2238,0.6600,-1.7748,1.5121,-3.5294,-1.4456,-2.8855,0.5458,
1.071147,-0.0470,0.1664,1.0516,-1.7748,1.5121,-3.5294,-1.4456,-2.8855,0.5458,
1.073522,0.0671,0.2229,1.3126,-1.7748,1.5121,-3.5294,-1.4456,-2.8855,0.5458,
1.074804,0.0304,0.0783,1.1256,-1.7748,1.5121,-3.5294,-1.4456,-2.8855,0.5458,
1.076054,-0.1415,0.0476,0.9983,-1.7748,1.5121,-3.5294,-1.4456,-2.8855,0.5458,
1.077244,-0.1415,0.0476,0.9983,-1.7748,1.5121,-3.5294,0.4804,0.2591,0.9186,
1.078728,-0.1415,0.0476,0.9983,0.4000,0.2602,2.0339,0.4804,0.2591,0.9186,
1.112033,-0.1415,0.0476,0.9983,0.4000,0.2602,2.0339,0.7936,-1.6914,0.0430,
1.115840,-0.1415,0.0476,0.9983,-0.2145,-0.0335,1.9614,0.7936,-1.6914,0.0430,
1.151300,-0.2385,0.4677,1.0327,-0.2145,-0.0335,1.9614,0.7936,-1.6914,0.0430,
1.153349,0.1117,0.1386,1.0284,-0.2145,-0.0335,1.9614,0.7936,-1.6914,0.0430,
1.154865,0.3409,-0.2256,1.2883,-0.2145,-0.0335,1.9614,0.7936,-1.6914,0.0430,
1.156157,0.3409,-0.2256,1.2883,-0.2145,-0.0335,1.9614,0.3483,-2.3391,-0.5493,
1.157594,0.3409,-0.2256,1.2883,-1.9748,0.4032,0.6161,0.3483,-2.3391,-0.5493,
1.191883,0.3409,-0.2256,1.2883,-1.9748,0.4032,0.6161,1.5585,-2.8344,-1.2556,
1.194003,0.3409,-0.2256,1.2883,1.7942,-3.3191,3.8360,1.5585,-2.8344,-1.2556,
1.229048,0.4618,-0.1259,1.5389,1.7942,-3.3191,3.8360,1.5585,-2.8344,-1.2556,
1.230955,0.4001,0.0087,1.1900,1.7942,-3.3191,3.8360,1.5585,-2.8344,-1.2556,
1.232583,0.0686,0.0864,0.8546,1.7942,-3.3191,3.8360,1.5585,-2.8344,-1.2556,
1.234689,-0.0715,0.0821,0.7014,1.7942,-3.3191,3.8360,1.5585,-2.8344,-1.2556,
1.236279,0.0541,0.1993,0.6281,1.7942,-3.3191,3.8360,1.5585,-2.8344,-1.2556,
1.238835,0.0541,0.1993,0.6281,1.7942,-3.3191,3.8360,2.3308,-4.1276,-1.2044,
1.240756,0.0541,0.1993,0.6281,-3.1408,-1.8591,-1.3720,2.3308,-4.1276,-1.2044,
1.270429,0.0541,0.1993,0.6281,-3.1408,-1.8591,-1.3720,1.4093,-3.6163,-0.7304,
1.271994,0.0541,0.1993,0.6281,-4.0010,-2.3047,-0.6016,1.4093,-3.6163,-0.7304,
1.307117,0.3500,0.3037,0.3306,-4.0010,-2.3047,-0.6016,1.4093,-3.6163,-0.7304,
1.308714,0.3142,0.3462,0.5249,-4.0010,-2.3047,-0.6016,1.4093,-3.6163,-0.7304,
1.309826,0.2780,0.1737,0.7758,-4.0010,-2.3047,-0.6016,1.4093,-3.6163,-0.7304,
1.310875,0.4205,0.1007,0.6311,-4.0010,-2.3047,-0.6016,1.4093,-3.6163,-0.7304,
1.311934,0.4205,0.1007,0.6311,-4.0010,-2.3047,-0.6016,0.6274,-3.0954,-1.0798,
1.312888,0.4205,0.1007,0.6311,-1.7522,-1.1408,-1.6739,0.6274,-3.0954,-1.0798,
1.348743,0.4205,0.1007,0.6311,-1.7522,-1.1408,-1.6739,0.7063,-2.4946,-1.5645,
1.350108,0.4205,0.1007,0.6311,-2.0586,-1.5640,-1.0100,0.7063,-2.4946,-1.5645,
1.384169,0.6180,0.2136,0.4742,-2.0586,-1.5640,-1.0100,0.7063,-2.4946,-1.5645,
1.385432,0.5162,0.3423,0.4003,-2.0586,-1.5640,-1.0100,0.7063,-2.4946,-1.5645,
1.385967,0.3108,0.3983,0.5434,-2.0586,-1.5640,-1.0100,0.7063,-2.4946,-1.5645,
1.386483,0.2340,0.3480,0.8367,-2.0586,-1.5640,-1.0100,0.7063,-2.4946,-1.5645,
1.388334,0.2340,0.3480,0.8367,-2.0586,-1.5640,-1.0100,0.1406,-2.5905,-2.0268,
1.389043,0.2340,0.3480,0.8367,-0.3035,-2.4521,-0.8154,0.1406,-2.5905,-2.0268,
1.428730,0.2340,0.3480,0.8367,-0.3035,-2.4521,-0.8154,0.4186,-1.9715,-1.6550,
1.430235,0.2340,0.3480,0.8367,-0.3976,-2.7678,-0.2956,0.4186,-1.9715,-1.6550,
1.442508,0.4462,0.2288,0.6192,-0.3976,-2.7678,-0.2956,0.4186,-1.9715,-1.6550,
1.444011,0.5237,0.2456,0.4901,-0.3976,-2.7678,-0.2956,0.4186,-1.9715,-1.6550,
1.444870,0.2431,0.3443,0.4592,-0.3976,-2.7678,-0.2956,0.4186,-1.9715,-1.6550,
1.467815,0.2431,0.3443,0.4592,-0.3976,-2.7678,-0.2956,0.2737,-1.8970,-0.0859,
1.469308,0.2431,0.3443,0.4592,-2.4838,-1.7205,1.7165,0.2737,-1.8970,-0.0859,
1.507943,0.2431,0.3443,0.4592,-2.4838,-1.7205,1.7165,0.6232,-1.7809,2.8521,
1.509684,0.2431,0.3443,0.4592,-3.9981,-1.3087,0.7408,0.6232,-1.7809,2.8521,
1.519727,-0.0344,0.3142,0.5942,-3.9981,-1.3087,0.7408,0.6232,-1.7809,2.8521,
1.520641,0.1862,0.3404,0.5897,-3.9981,-1.3087,0.7408,0.6232,-1.7809,2.8521,
1.521312,0.4405,0.3407,0.4762,-3.9981,-1.3087,0.7408,0.6232,-1.7809,2.8521,
1.521788,0.7066,0.3475,0.3495,-3.9981,-1.3087,0.7408,0.6232,-1.7809,2.8521,
1.546450,0.7066,0.3475,0.3495,-3.9981,-1.3087,0.7408,0.0969,-0.2117,4.1730,
1.547932,0.7066,0.3475,0.3495,-2.5803,0.1911,0.3761,0.0969,-0.2117,4.1730,
1.586764,0.7066,0.3475,0.3495,-2.5803,0.1911,0.3761,-0.1854,-0.6836,2.9277,
1.588694,0.7066,0.3475,0.3495,2.1316,0.3957,0.5185,-0.1854,-0.6836,2.9277,
1.598979,0.9653,0.3680,0.2954,2.1316,0.3957,0.5185,-0.1854,-0.6836,2.9277,
1.601032,1.1058,0.2742,0.4825,2.1316,0.3957,0.5185,-0.1854,-0.6836,2.9277,
1.602742,0.8628,0.1907,0.6336,2.1316,0.3957,0.5185,-0.1854,-0.6836,2.9277,
1.604094,0.7143,-0.0845,0.6997,2.1316,0.3957,0.5185,-0.1854,-0.6836,2.9277,
1.626707,0.7143,-0.0845,0.6997,2.1316,0.3957,0.5185,1.6660,-1.3089,3.2526,
1.628669,0.7143,-0.0845,0.6997,1.6174,1.0910,1.0019,1.6660,-1.3089,3.2526,
1.668458,0.7143,-0.0845,0.6997,1.6174,1.0910,1.0019,3.2096,-1.9524,4.1464,
1.670728,0.8901,-0.3582,0.4621,1.6174,1.0910,1.0019,3.2096,-1.9524,4.1464,
1.672010,1.2516,-0.2700,0.1367,1.6174,1.0910,1.0019,3.2096,-1.9524,4.1464,
1.673261,1.5524,-0.1184,-0.1127,1.6174,1.0910,1.0019,3.2096,-1.9524,4.1464,
1.674608,1.3806,-0.0534,0.1344,1.6174,1.0910,1.0019,3.2096,-1.9524,4.1464,
1.675981,1.3806,-0.0534,0.1344,0.8887,-2.9064,1.3607,3.2096,-1.9524,4.1464,
1.705427,1.3806,-0.0534,0.1344,0.8887,-2.9064,1.3607,2.9359,-2.4296,3.3336,
1.706638,1.3806,-0.0534,0.1344,0.6076,-1.9844,2.1237,2.9359,-2.4296,3.3336,
1.744933,1.3806,-0.0534,0.1344,0.6076,-1.9844,2.1237,1.1846,-1.0213,4.4180,
1.746276,1.3806,-0.0534,0.1344,2.5645,-5.7843,-0.4218,1.1846,-1.0213,4.4180,
1.747155,0.9497,-0.2663,0.2622,2.5645,-5.7843,-0.4218,1.1846,-1.0213,4.4180,
1.748039,0.9739,-0.6872,0.0934,2.5645,-5.7843,-0.4218,1.1846,-1.0213,4.4180,
1.748800,1.1845,-0.8699,0.1023,2.5645,-5.7843,-0.4218,1.1846,-1.0213,4.4180,
1.749609,1.2929,-0.8201,0.2232,2.5645,-5.7843,-0.4218,1.1846,-1.0213,4.4180,
1.784836,1.2929,-0.8201,0.2232,2.5645,-5.7843,-0.4218,0.2269,-0.2543,4.8676,
1.786249,1.2929,-0.8201,0.2232,2.9790,-4.0215,-0.3427,0.2269,-0.2543,4.8676,
1.823999,1.2827,-0.8249,0.2342,2.9790,-4.0215,-0.3427,0.2269,-0.2543,4.8676,
1.825073,1.2531,-0.7861,0.2501,2.9790,-4.0215,-0.3427,0.2269,-0.2543,4.8676,
1.825730,1.2683,-0.7753,0.3254,2.9790,-4.0215,-0.3427,0.2269,-0.2543,4.8676,
1.826227,1.2683,-0.7753,0.3254,2.9790,-4.0215,-0.3427,0.1949,-0.8306,3.8268,
1.826665,1.2683,-0.7753,0.3254,4.5806,-2.7553,1.1235,0.1949,-0.8306,3.8268,
1.863846,1.2683,-0.7753,0.3254,4.5806,-2.7553,1.1235,0.8895,-1.5742,2.9139,
1.865459,1.2683,-0.7753,0.3254,5.0482,0.1632,1.1398,0.8895,-1.5742,2.9139,
1.903267,1.3126,-0.7572,0.4161,5.0482,0.1632,1.1398,0.8895,-1.5742,2.9139,
1.904777,1.2921,-0.6337,0.2487,5.0482,0.1632,1.1398,0.8895,-1.5742,2.9139,
1.905620,1.2271,-0.3534,0.0772,5.0482,0.1632,1.1398,0.8895,-1.5742,2.9139,
1.906293,1.2184,-0.2584,0.0511,5.0482,0.1632,1.1398,0.8895,-1.5742,2.9139,
1.906963,1.2184,-0.2584,0.0511,5.0482,0.1632,1.1398,0.7084,-1.3057,2.4952,
1.907709,1.2184,-0.2584,0.0511,5.4210,0.8159,1.2956,0.7084,-1.3057,2.4952,
1.946165,1.2184,-0.2584,0.0511,5.4210,0.8159,1.2956,-0.2930,-0.0104,1.6004,
1.948306,1.2184,-0.2584,0.0511,5.6590,1.2245,1.3357,-0.2930,-0.0104,1.6004,
1.978908,1.2694,-0.2306,0.0959,5.6590,1.2245,1.3357,-0.2930,-0.0104,1.6004,
1.980889,1.2435,-0.2322,0.0551,5.6590,1.2245,1.3357,-0.2930,-0.0104,1.6004,
1.982832,1.0960,-0.2899,0.1240,5.6590,1.2245,1.3357,-0.2930,-0.0104,1.6004,
1.984489,1.2520,-0.5179,-0.0523,5.6590,1.2245,1.3357,-0.2930,-0.0104,1.6004,
1.986518,1.2520,-0.5179,-0.0523,5.6590,1.2245,1.3357,-0.7020,1.1241,0.4148,
1.987731,1.2520,-0.5179,-0.0523,5.3242,4.5628,-0.5162,-0.7020,1.1241,0.4148,
2.023605,1.2520,-0.5179,-0.0523,5.3242,4.5628,-0.5162,-1.1399,1.6184,-0.4971,
2.025617,1.2520,-0.5179,-0.0523,5.1037,4.3433,-0.6255,-1.1399,1.6184,-0.4971,
2.056189,1.0689,-0.5668,-0.2473,5.1037,4.3433,-0.6255,-1.1399,1.6184,-0.4971,
2.058300,0.9167,-0.5436,-0.4280,5.1037,4.3433,-0.6255,-1.1399,1.6184,-0.4971,
2.059656,0.8335,-0.6100,-0.4208,5.1037,4.3433,-0.6255,-1.1399,1.6184,-0.4971,
2.060949,0.6781,-0.6987,0.0347,5.1037,4.3433,-0.6255,-1.1399,1.6184,-0.4971,
2.072062,0.6781,-0.6987,0.0347,5.1037,4.3433,-0.6255,-1.9590,0.9366,-0.8774,
2.074186,0.6781,-0.6987,0.0347,0.6426,0.4763,-3.5877,-1.9590,0.9366,-0.8774,
2.101937,0.6781,-0.6987,0.0347,0.6426,0.4763,-3.5877,-0.8906,-0.0541,-0.7006,
2.103495,0.6781,-0.6987,0.0347,0.4493,0.2921,-3.2451,-0.8906,-0.0541,-0.7006,
2.136899,0.7098,-0.8242,-0.1100,0.4493,0.2921,-3.2451,-0.8906,-0.0541,-0.7006,
2.139271,0.4303,-0.8850,-0.0913,0.4493,0.2921,-3.2451,-0.8906,-0.0541,-0.7006,
2.142035,0.5373,-0.9181,0.0883,0.4493,0.2921,-3.2451,-0.8906,-0.0541,-0.7006,
2.145057,0.6642,-0.7640,0.0461,0.4493,0.2921,-3.2451,-0.8906,-0.0541,-0.7006,
2.146353,0.6642,-0.7640,0.0461,0.4493,0.2921,-3.2451,1.4509,-1.0139,0.1506,
2.147260,0.6642,-0.7640,0.0461,-1.9333,-2.1656,-0.9892,1.4509,-1.0139,0.1506,
2.186839,0.6642,-0.7640,0.0461,-1.9333,-2.1656,-0.9892,2.2637,-1.0330,0.8302,
2.188430,0.6642,-0.7640,0.0461,-1.6998,-1.9352,-1.2353,2.2637,-1.0330,0.8302,
2.221343,0.6527,-0.4999,-0.0850,-1.6998,-1.9352,-1.2353,2.2637,-1.0330,0.8302,
2.224039,0.8077,-0.4963,0.0171,-1.6998,-1.9352,-1.2353,2.2637,-1.0330,0.8302,
2.225339,0.9628,-0.5497,-0.0358,-1.6998,-1.9352,-1.2353,2.2637,-1.0330,0.8302,
2.226545,0.9628,-0.5497,-0.0358,-1.6998,-1.9352,-1.2353,1.6171,-0.9308,0.7013,
2.227818,0.9628,-0.5497,-0.0358,-0.0849,1.0050,-1.0746,1.6171,-0.9308,0.7013,
2.263152,0.9628,-0.5497,-0.0358,-0.0849,1.0050,-1.0746,1.1409,-1.5444,-0.6217,
2.265349,0.9628,-0.5497,-0.0358,3.7443,1.3381,-1.9094,1.1409,-1.5444,-0.6217,
2.305884,1.0986,-0.5575,-0.1391,3.7443,1.3381,-1.9094,1.1409,-1.5444,-0.6217,
2.308071,1.3354,-0.4722,-0.1595,3.7443,1.3381,-1.9094,1.1409,-1.5444,-0.6217,
2.309787,1.0599,-0.4699,-0.2084,3.7443,1.3381,-1.9094,1.1409,-1.5444,-0.6217,
2.311123,1.0787,-0.5543,0.0157,3.7443,1.3381,-1.9094,1.1409,-1.5444,-0.6217,
2.312503,1.0713,-0.6220,0.1692,3.7443,1.3381,-1.9094,1.1409,-1.5444,-0.6217,
2.313701,1.0713,-0.6220,0.1692,2.6873,0.6894,-0.5221,1.1409,-1.5444,-0.6217,
2.315139,1.0713,-0.6220,0.1692,2.6873,0.6894,-0.5221,0.5976,-1.7020,-1.3237,
2.339388,1.0713,-0.6220,0.1692,2.6873,0.6894,-0.5221,0.5124,-0.8807,-1.8489,
2.340487,1.0713,-0.6220,0.1692,2.1927,0.0923,-0.3519,0.5124,-0.8807,-1.8489,
2.376765,0.6333,-0.4455,-0.1734,2.1927,0.0923,-0.3519,0.5124,-0.8807,-1.8489,
2.378930,0.7203,-0.5845,-0.0490,2.1927,0.0923,-0.3519,0.5124,-0.8807,-1.8489,
2.380630,0.6338,-0.7118,-0.4340,2.1927,0.0923,-0.3519,0.5124,-0.8807,-1.8489,
2.382172,0.1051,-0.9627,-0.2345,2.1927,0.0923,-0.3519,0.5124,-0.8807,-1.8489,
2.383550,0.1051,-0.9627,-0.2345,2.1927,0.0923,-0.3519,0.0735,-1.1044,-1.1032,
2.384827,0.1051,-0.9627,-0.2345,-1.9845,-0.5734,-2.0131,0.0735,-1.1044,-1.1032,
2.420056,0.1051,-0.9627,-0.2345,-1.9845,-0.5734,-2.0131,1.1696,-0.8519,-0.4087,
2.421947,0.1051,-0.9627,-0.2345,-2.0073,-0.6846,-1.9079,1.1696,-0.8519,-0.4087,
2.459149,0.9446,-1.5319,0.8003,-2.0073,-0.6846,-1.9079,1.1696,-0.8519,-0.4087,
2.460918,0.8848,-1.3604,0.5840,-2.0073,-0.6846,-1.9079,1.1696,-0.8519,-0.4087,
2.462146,1.1483,-0.8815,0.5472,-2.0073,-0.6846,-1.9079,1.1696,-0.8519,-0.4087,
2.463062,1.1483,-0.8815,0.5472,-2.0073,-0.6846,-1.9079,2.0570,-1.1300,-0.5067,
2.464038,1.1483,-0.8815,0.5472,-2.2120,-7.5471,3.8740,2.0570,-1.1300,-0.5067,
2.498613,1.1483,-0.8815,0.5472,-2.2120,-7.5471,3.8740,0.0543,0.3390,0.2986,
2.500980,1.1483,-0.8815,0.5472,0.0094,-1.8356,2.4767,0.0543,0.3390,0.2986,
2.537400,1.1016,-0.6772,0.1850,0.0094,-1.8356,2.4767,0.0543,0.3390,0.2986,
2.539334,0.3462,-0.5931,0.0469,0.0094,-1.8356,2.4767,0.0543,0.3390,0.2986,
2.540125,1.0678,-0.6988,0.5486,0.0094,-1.8356,2.4767,0.0543,0.3390,0.2986,
2.540940,0.6901,-0.5138,0.3887,0.0094,-1.8356,2.4767,0.0543,0.3390,0.2986,
2.541869,-0.0249,-0.0794,-0.7206,0.0094,-1.8356,2.4767,0.0543,0.3390,0.2986,
2.542711,-0.0249,-0.0794,-0.7206,0.0094,-1.8356,2.4767,0.6466,1.4117,0.1921,
2.543566,-0.0249,-0.0794,-0.7206,-2.6845,1.0029,0.0350,0.6466,1.4117,0.1921,
2.577918,-0.0249,-0.0794,-0.7206,-2.6845,1.0029,0.0350,-0.2525,0.9675,0.3988,
2.579656,-0.0249,-0.0794,-0.7206,-2.5084,1.1154,-0.2238,-0.2525,0.9675,0.3988,
2.606415,0.8063,-0.1857,0.0844,-2.5084,1.1154,-0.2238,-0.2525,0.9675,0.3988,
2.608672,0.4203,-0.3292,0.0951,-2.5084,1.1154,-0.2238,-0.2525,0.9675,0.3988,
2.609970,0.5566,-0.2284,0.0256,-2.5084,1.1154,-0.2238,-0.2525,0.9675,0.3988,
2.611152,0.6908,-0.2791,0.0149,-2.5084,1.1154,-0.2238,-0.2525,0.9675,0.3988,
2.617759,0.6908,-0.2791,0.0149,-2.5084,1.1154,-0.2238,-0.1683,0.6916,0.3423,
2.619866,0.6908,-0.2791,0.0149,-2.1915,2.9544,-0.4381,-0.1683,0.6916,0.3423,
2.657022,0.6908,-0.2791,0.0149,-2.1915,2.9544,-0.4381,0.0181,0.6916,0.3530,
2.658785,0.6908,-0.2791,0.0149,-0.5918,2.3529,-1.4307,0.0181,0.6916,0.3530,
2.684016,0.7726,-0.3039,-0.0395,-0.5918,2.3529,-1.4307,0.0181,0.6916,0.3530,
2.685823,0.7717,-0.3615,-0.0163,-0.5918,2.3529,-1.4307,0.0181,0.6916,0.3530,
2.686904,0.7286,-0.2876,0.0749,-0.5918,2.3529,-1.4307,0.0181,0.6916,0.3530,
2.688742,0.9189,-0.5901,0.1713,-0.5918,2.3529,-1.4307,0.0181,0.6916,0.3530,
2.698931,0.9189,-0.5901,0.1713,-0.5918,2.3529,-1.4307,-0.0075,0.5798,0.6981,
2.700447,0.9189,-0.5901,0.1713,-0.3973,2.5106,-1.5719,-0.0075,0.5798,0.6981,
2.737797,0.9189,-0.5901,0.1713,-0.3973,2.5106,-1.5719,-0.0480,0.1420,0.9165,
2.739824,0.9189,-0.5901,0.1713,0.7644,0.7303,-0.1891,-0.0480,0.1420,0.9165,
2.762974,0.8823,-0.6920,0.1447,0.7644,0.7303,-0.1891,-0.0480,0.1420,0.9165,
2.765024,0.7506,-0.6990,0.0965,0.7644,0.7303,-0.1891,-0.0480,0.1420,0.9165,
2.766325,0.8176,-0.6473,-0.0614,0.7644,0.7303,-0.1891,-0.0480,0.1420,0.9165,
2.767586,0.7285,-0.6141,-0.0373,0.7644,0.7303,-0.1891,-0.0480,0.1420,0.9165,
2.776118,0.7285,-0.6141,-0.0373,0.7644,0.7303,-0.1891,0.1193,-0.3928,0.8984,
2.778634,0.7285,-0.6141,-0.0373,0.1897,-0.2828,-1.3567,0.1193,-0.3928,0.8984,
2.815994,0.7285,-0.6141,-0.0373,0.1897,-0.2828,-1.3567,0.4921,-0.5995,1.1125,
2.817368,0.7285,-0.6141,-0.0373,-0.0808,-0.9018,-0.3011,0.4921,-0.5995,1.1125,
2.840521,0.7219,-0.6357,0.1086,-0.0808,-0.9018,-0.3011,0.4921,-0.5995,1.1125,
2.842308,0.8160,-0.8326,0.0163,-0.0808,-0.9018,-0.3011,0.4921,-0.5995,1.1125,
2.843036,0.6004,-0.7767,0.1792,-0.0808,-0.9018,-0.3011,0.4921,-0.5995,1.1125,
2.843974,0.4953,-0.8295,0.0089,-0.0808,-0.9018,-0.3011,0.4921,-0.5995,1.1125,
2.855429,0.4953,-0.8295,0.0089,0.2823,-0.5075,-0.2962,0.4921,-0.5995,1.1125,
2.857060,0.4953,-0.8295,0.0089,0.2823,-0.5075,-0.2962,0.3526,-0.3310,1.4715,
2.895567,0.4953,-0.8295,0.0089,-2.7984,-1.5330,-1.0701,0.3526,-0.3310,1.4715,
2.897620,0.4953,-0.8295,0.0089,-2.7984,-1.5330,-1.0701,0.0330,-0.4280,2.2534,
2.918601,0.2645,-0.8947,-0.0050,-2.7984,-1.5330,-1.0701,0.0330,-0.4280,2.2534,
2.920521,0.2293,-1.0190,0.0257,-2.7984,-1.5330,-1.0701,0.0330,-0.4280,2.2534,
2.922221,0.9822,-0.7324,0.1974,-2.7984,-1.5330,-1.0701,0.0330,-0.4280,2.2534,
2.923655,1.8778,-0.4252,0.3446,-2.7984,-1.5330,-1.0701,0.0330,-0.4280,2.2534,
2.934777,1.8778,-0.4252,0.3446,-2.1730,-1.0554,-0.9049,0.0330,-0.4280,2.2534,
2.936793,1.8778,-0.4252,0.3446,-2.1730,-1.0554,-0.9049,0.1587,-0.8583,2.0297,
2.974381,1.8778,-0.4252,0.3446,-2.1730,-1.0554,-0.9049,0.2301,-0.6836,0.3189,
2.975923,1.8778,-0.4252,0.3446,8.9239,1.1136,1.2535,0.2301,-0.6836,0.3189,
3.015407,1.5603,-0.9325,0.1344,8.9239,1.1136,1.2535,0.2301,-0.6836,0.3189,
3.017584,1.3188,-0.9361,0.0013,8.9239,1.1136,1.2535,0.2301,-0.6836,0.3189,
3.020110,0.9535,-0.7635,0.0187,8.9239,1.1136,1.2535,0.2301,-0.6836,0.3189,
3.022317,0.9535,-0.7635,0.0187,8.9239,1.1136,1.2535,0.3270,-1.9769,0.2347,
3.023599,0.9535,-0.7635,0.0187,8.7533,1.1309,1.5492,0.3270,-1.9769,0.2347,
3.041386,0.8301,-0.5913,0.0662,8.7533,1.1309,1.5492,0.3270,-1.9769,0.2347,
3.043043,0.7585,-0.6456,0.2027,8.7533,1.1309,1.5492,0.3270,-1.9769,0.2347,
3.043857,0.5546,-0.4228,0.0727,8.7533,1.1309,1.5492,0.3270,-1.9769,0.2347,
3.052949,0.5546,-0.4228,0.0727,4.2305,0.3992,0.2194,0.3270,-1.9769,0.2347,
3.054850,0.5546,-0.4228,0.0727,4.2305,0.3992,0.2194,0.3707,-3.1412,-0.2713,
3.092214,0.5546,-0.4228,0.0727,4.2305,0.3992,0.2194,0.2812,-3.8943,-1.0968,
3.093740,0.5546,-0.4228,0.0727,3.8686,0.1363,1.0454,0.2812,-3.8943,-1.0968,
3.135566,0.4233,-1.4502,0.0945,3.8686,0.1363,1.0454,0.2812,-3.8943,-1.0968,
3.138813,0.4233,-1.4502,0.0945,3.8686,0.1363,1.0454,0.1917,-3.1465,-1.2130,
3.140168,0.4233,-1.4502,0.0945,3.5772,-0.1588,1.7478,0.1917,-3.1465,-1.2130,
3.172563,0.4233,-1.4502,0.0945,3.5772,-0.1588,1.7478,-1.0280,-0.4482,-0.4492,
3.174025,0.4233,-1.4502,0.0945,3.4055,-0.3399,2.1139,-1.0280,-0.4482,-0.4492,
3.212633,0.4233,-1.4502,0.0945,3.4055,-0.3399,2.1139,-2.1156,1.2285,-0.6676,
3.215679,0.4233,-1.4502,0.0945,-1.0772,-4.8272,1.1237,-2.1156,1.2285,-0.6676,
3.216712,0.6454,-1.2120,-0.1369,-1.0772,-4.8272,1.1237,-2.1156,1.2285,-0.6676,
3.217519,0.7409,-0.9257,-0.2437,-1.0772,-4.8272,1.1237,-2.1156,1.2285,-0.6676,
3.219068,0.5538,-0.7947,-0.0326,-1.0772,-4.8272,1.1237,-2.1156,1.2285,-0.6676,
3.220680,0.4507,-0.7488,0.1277,-1.0772,-4.8272,1.1237,-2.1156,1.2285,-0.6676,
3.251237,0.4507,-0.7488,0.1277,-1.0772,-4.8272,1.1237,-1.4168,1.2498,-0.4023,
3.252917,0.4507,-0.7488,0.1277,-1.2633,-4.9581,1.1299,-1.4168,1.2498,-0.4023,
3.291522,0.4507,-0.7488,0.1277,-1.2633,-4.9581,1.1299,0.2013,-0.2692,-0.2191,
3.293996,0.4507,-0.7488,0.1277,-2.2653,-0.5378,2.1747,0.2013,-0.2692,-0.2191,
3.295515,0.4959,-0.6804,-0.0555,-2.2653,-0.5378,2.1747,0.2013,-0.2692,-0.2191,
3.296505,0.4434,-0.4889,-0.0140,-2.2653,-0.5378,2.1747,0.2013,-0.2692,-0.2191,
3.299733,0.3302,-0.4898,-0.1823,-2.2653,-0.5378,2.1747,0.2013,-0.2692,-0.2191,
3.301053,0.3774,-0.5011,-0.2486,-2.2653,-0.5378,2.1747,0.2013,-0.2692,-0.2191,
3.330361,0.3774,-0.5011,-0.2486,-2.2653,-0.5378,2.1747,0.5859,-1.0160,0.0664,
3.333023,0.3774,-0.5011,-0.2486,-3.2415,1.9237,0.7083,0.5859,-1.0160,0.0664,
3.370336,0.3774,-0.5011,-0.2486,-3.2415,1.9237,0.7083,0.3664,-0.4503,-0.0273,
3.372019,0.3774,-0.5011,-0.2486,-1.2315,1.0588,0.4249,0.3664,-0.4503,-0.0273,
3.373036,0.6019,-0.5543,-0.1660,-1.2315,1.0588,0.4249,0.3664,-0.4503,-0.0273,
3.373799,0.6122,-0.5673,-0.1542,-1.2315,1.0588,0.4249,0.3664,-0.4503,-0.0273,
3.374587,0.5355,-0.6242,-0.2170,-1.2315,1.0588,0.4249,0.3664,-0.4503,-0.0273,
3.375483,0.6088,-0.6139,-0.1733,-1.2315,1.0588,0.4249,0.3664,-0.4503,-0.0273,
3.409713,0.6088,-0.6139,-0.1733,-1.2315,1.0588,0.4249,0.5092,-0.0967,0.0462,
3.411750,0.6088,-0.6139,-0.1733,-1.1883,1.0939,0.3087,0.5092,-0.0967,0.0462,
3.449765,0.6088,-0.6139,-0.1733,-1.1883,1.0939,0.3087,0.3206,0.2027,0.2166,
3.452008,0.6088,-0.6139,-0.1733,-1.3268,1.1946,-0.9616,0.3206,0.2027,0.2166,
3.453670,0.5237,-0.5805,-0.3121,-1.3268,1.1946,-0.9616,0.3206,0.2027,0.2166,
3.454760,0.5540,-0.5397,-0.4027,-1.3268,1.1946,-0.9616,0.3206,0.2027,0.2166,
3.456059,0.6630,-0.5597,-0.4521,-1.3268,1.1946,-0.9616,0.3206,0.2027,0.2166,
3.459484,0.8342,-0.5363,-0.5131,-1.3268,1.1946,-0.9616,0.3206,0.2027,0.2166,
3.489670,0.8342,-0.5363,-0.5131,-1.3268,1.1946,-0.9616,0.0660,0.1867,-0.0731,
3.491753,0.8342,-0.5363,-0.5131,-1.3360,1.1583,-1.0115,0.0660,0.1867,-0.0731,
3.529539,0.8342,-0.5363,-0.5131,-1.3360,1.1583,-1.0115,-0.0149,0.0035,-0.5525,
3.533712,0.8342,-0.5363,-0.5131,0.7787,1.2071,-2.4271,-0.0149,0.0035,-0.5525,
3.535122,0.8863,-0.5697,-0.3707,0.7787,1.2071,-2.4271,-0.0149,0.0035,-0.5525,
3.536303,0.7067,-0.6552,-0.2517,0.7787,1.2071,-2.4271,-0.0149,0.0035,-0.5525,
3.537363,0.5438,-0.6567,-0.3167,0.7787,1.2071,-2.4271,-0.0149,0.0035,-0.5525,
3.538546,0.5728,-0.6591,-0.3201,0.7787,1.2071,-2.4271,-0.0149,0.0035,-0.5525,
3.568588,0.5728,-0.6591,-0.3201,0.7787,1.2071,-2.4271,-0.2514,0.2932,-0.7528,
3.571458,0.5728,-0.6591,-0.3201,-1.2462,-0.0215,-0.9664,-0.2514,0.2932,-0.7528,
3.608129,0.5728,-0.6591,-0.3201,-1.2462,-0.0215,-0.9664,-0.7681,1.2040,-1.2524,
3.610785,0.5728,-0.6591,-0.3201,1.3118,-7.2751,1.7626,-0.7681,1.2040,-1.2524,
3.612821,0.7942,-1.1490,-0.0463,1.3118,-7.2751,1.7626,-0.7681,1.2040,-1.2524,
3.614016,1.2874,-1.7822,0.3246,1.3118,-7.2751,1.7626,-0.7681,1.2040,-1.2524,
3.616411,0.6532,-1.1697,-0.2715,1.3118,-7.2751,1.7626,-0.7681,1.2040,-1.2524,
3.618033,0.0630,0.0574,-0.1987,1.3118,-7.2751,1.7626,-0.7681,1.2040,-1.2524,
3.647571,0.0630,0.0574,-0.1987,1.3118,-7.2751,1.7626,-1.0493,1.3468,0.3157,
3.650000,0.0630,0.0574,-0.1987,1.2772,-7.1232,1.5797,-1.0493,1.3468,0.3157,
3.688694,0.0630,0.0574,-0.1987,1.2772,-7.1232,1.5797,0.2737,0.6298,1.1594,
3.691139,0.4123,-0.2883,-0.2495,1.2772,-7.1232,1.5797,0.2737,0.6298,1.1594,
3.692501,0.5772,-0.5932,0.1511,1.2772,-7.1232,1.5797,0.2737,0.6298,1.1594,
3.693753,0.8008,-0.6728,0.4226,1.2772,-7.1232,1.5797,0.2737,0.6298,1.1594,
3.695388,0.8391,-0.8732,0.1098,1.2772,-7.1232,1.5797,0.2737,0.6298,1.1594,
3.696659,0.8391,-0.8732,0.1098,-3.8915,3.8750,0.3211,0.2737,0.6298,1.1594,
3.727590,0.8391,-0.8732,0.1098,-3.8915,3.8750,0.3211,0.7499,0.2101,0.9059,
3.730670,0.8391,-0.8732,0.1098,-3.5988,4.0972,0.0599,0.7499,0.2101,0.9059,
3.767065,0.8391,-0.8732,0.1098,-3.5988,4.0972,0.0599,0.4101,0.5521,0.9293,
3.769570,0.8391,-0.8732,0.1098,0.7721,-0.5644,2.6911,0.4101,0.5521,0.9293,
3.771014,0.6825,-0.7906,0.0705,0.7721,-0.5644,2.6911,0.4101,0.5521,0.9293,
3.772531,0.4780,-0.6144,0.0119,0.7721,-0.5644,2.6911,0.4101,0.5521,0.9293,
3.773730,0.3952,-0.5946,0.0214,0.7721,-0.5644,2.6911,0.4101,0.5521,0.9293,
3.774970,0.3256,-0.7117,0.0424,0.7721,-0.5644,2.6911,0.4101,0.5521,0.9293,
3.806658,0.3256,-0.7117,0.0424,0.7721,-0.5644,2.6911,0.3164,0.9004,1.7996,
3.809333,0.3256,-0.7117,0.0424,-2.3569,1.2481,0.6325,0.3164,0.9004,1.7996,
3.846468,0.3256,-0.7117,0.0424,-2.3569,1.2481,0.6325,-0.1119,1.0741,3.3613,
3.849289,0.3256,-0.7117,0.0424,-4.3087,0.1198,0.3782,-0.1119,1.0741,3.3613,
3.850523,0.1250,-0.9701,0.0133,-4.3087,0.1198,0.3782,-0.1119,1.0741,3.3613,
3.852018,0.0605,-0.8692,-0.0326,-4.3087,0.1198,0.3782,-0.1119,1.0741,3.3613,
3.853195,0.0740,-0.6609,0.0835,-4.3087,0.1198,0.3782,-0.1119,1.0741,3.3613,
3.854300,0.0935,-0.7278,0.1524,-4.3087,0.1198,0.3782,-0.1119,1.0741,3.3613,
3.888002,0.0935,-0.7278,0.1524,-4.3087,0.1198,0.3782,0.0756,0.8621,4.2849,
3.891495,0.0935,-0.7278,0.1524,-2.7902,0.8576,0.1952,0.0756,0.8621,4.2849,
3.908975,0.0967,-0.9973,0.1585,-2.7902,0.8576,0.1952,0.0756,0.8621,4.2849,
3.910892,0.2284,-1.2396,-0.0575,-2.7902,0.8576,0.1952,0.0756,0.8621,4.2849,
3.912296,0.1942,-1.2262,0.2286,-2.7902,0.8576,0.1952,0.0756,0.8621,4.2849,
3.924965,0.1942,-1.2262,0.2286,-2.7902,0.8576,0.1952,0.4666,0.1537,4.2508,
3.926788,0.1942,-1.2262,0.2286,-0.6937,-0.1765,0.6091,0.4666,0.1537,4.2508,
3.964648,0.1942,-1.2262,0.2286,-0.6937,-0.1765,0.6091,0.6210,0.1473,3.8577,
3.966836,0.1942,-1.2262,0.2286,4.3477,-6.6325,-0.4656,0.6210,0.1473,3.8577,
3.997451,0.2670,-1.4001,0.0805,4.3477,-6.6325,-0.4656,0.6210,0.1473,3.8577,
3.999970,1.0724,-2.4086,-0.3123,4.3477,-6.6325,-0.4656,0.6210,0.1473,3.8577,
4.002019,1.1164,-1.5992,-0.1706,4.3477,-6.6325,-0.4656,0.6210,0.1473,3.8577,
4.003336,0.4927,-0.7021,0.0803,4.3477,-6.6325,-0.4656,0.6210,0.1473,3.8577,
4.005338,0.4927,-0.7021,0.0803,4.3477,-6.6325,-0.4656,0.3100,-0.9808,1.1455,
4.006729,0.4927,-0.7021,0.0803,4.6934,-6.5083,-0.5643,0.3100,-0.9808,1.1455,
4.044879,0.4927,-0.7021,0.0803,4.6934,-6.5083,-0.5643,0.6967,0.1004,-0.4449,
4.047420,0.4927,-0.7021,0.0803,4.8259,0.0299,-0.9652,0.6967,0.1004,-0.4449,
4.083844,0.4927,-0.7021,0.0803,4.8259,0.0299,-0.9652,1.1846,0.6213,0.2209,
4.086654,0.4927,-0.7021,0.0803,4.8564,-0.0148,-1.4187,1.1846,0.6213,0.2209,
4.088295,0.0425,-0.7239,0.0439,4.8564,-0.0148,-1.4187,1.1846,0.6213,0.2209,
4.089515,-0.3980,-1.0271,0.1182,4.8564,-0.0148,-1.4187,1.1846,0.6213,0.2209,
4.090641,-0.3939,-1.0657,0.2173,4.8564,-0.0148,-1.4187,1.1846,0.6213,0.2209,
4.091957,-0.1198,-0.9022,-0.0377,4.8564,-0.0148,-1.4187,1.1846,0.6213,0.2209,
4.093231,0.0952,-0.9081,-0.0047,4.8564,-0.0148,-1.4187,1.1846,0.6213,0.2209,
4.123956,0.0952,-0.9081,-0.0047,-3.1668,0.0407,-0.6529,1.1846,0.6213,0.2209,
4.126745,0.0952,-0.9081,-0.0047,-3.1668,0.0407,-0.6529,0.9513,-0.1435,0.7833,
4.163343,0.0952,-0.9081,-0.0047,-3.1668,0.0407,-0.6529,0.8777,0.0908,0.3210,
4.165721,0.0952,-0.9081,-0.0047,1.5394,0.0077,-1.5187,0.8777,0.0908,0.3210,
4.166933,0.2215,-1.0127,0.0410,1.5394,0.0077,-1.5187,0.8777,0.0908,0.3210,
4.168087,0.1800,-1.0657,0.0930,1.5394,0.0077,-1.5187,0.8777,0.0908,0.3210,
4.169066,0.1441,-1.1275,-0.0609,1.5394,0.0077,-1.5187,0.8777,0.0908,0.3210,
4.170381,0.1539,-1.2335,-0.0016,1.5394,0.0077,-1.5187,0.8777,0.0908,0.3210,
4.202754,0.1539,-1.2335,-0.0016,1.5394,0.0077,-1.5187,0.5518,0.0748,0.0441,
4.206035,0.1539,-1.2335,-0.0016,1.5365,-0.0364,-1.7031,0.5518,0.0748,0.0441,
4.243083,0.1539,-1.2335,-0.0016,1.5365,-0.0364,-1.7031,-0.2365,-0.2394,-0.0902,
4.246411,0.1539,-1.2335,-0.0016,1.3285,-2.2057,-2.0070,-0.2365,-0.2394,-0.0902,
4.247812,0.1587,-1.3068,0.0600,1.3285,-2.2057,-2.0070,-0.2365,-0.2394,-0.0902,
4.248869,0.1614,-1.4070,-0.2478,1.3285,-2.2057,-2.0070,-0.2365,-0.2394,-0.0902,
4.249991,0.1412,-1.4143,-0.4584,1.3285,-2.2057,-2.0070,-0.2365,-0.2394,-0.0902,
4.251140,0.1553,-1.2838,-0.4499,1.3285,-2.2057,-2.0070,-0.2365,-0.2394,-0.0902,
4.282594,0.1553,-1.2838,-0.4499,1.3285,-2.2057,-2.0070,-1.9633,-0.0849,-0.1690,
4.285029,0.1553,-1.2838,-0.4499,1.2396,-3.4514,-4.9259,-1.9633,-0.0849,-0.1690,
4.321821,0.1553,-1.2838,-0.4499,1.2396,-3.4514,-4.9259,-2.7548,-0.2820,-0.6857,
4.324389,0.1553,-1.2838,-0.4499,0.9237,-0.7030,0.1171,-2.7548,-0.2820,-0.6857,
4.325895,0.2127,-1.1973,-0.2051,0.9237,-0.7030,0.1171,-2.7548,-0.2820,-0.6857,
4.326897,0.2091,-1.1062,0.0583,0.9237,-0.7030,0.1171,-2.7548,-0.2820,-0.6857,
4.328095,0.0293,-0.9806,0.1998,0.9237,-0.7030,0.1171,-2.7548,-0.2820,-0.6857,
4.329349,-0.1481,-0.9711,0.2564,0.9237,-0.7030,0.1171,-2.7548,-0.2820,-0.6857,
4.361875,-0.1481,-0.9711,0.2564,0.9237,-0.7030,0.1171,-2.3244,-0.0892,-0.9935,
4.364404,-0.1481,-0.9711,0.2564,0.5219,-0.7570,1.0237,-2.3244,-0.0892,-0.9935,
4.401931,-0.1481,-0.9711,0.2564,0.5219,-0.7570,1.0237,-2.0123,0.5585,-0.8305,
4.404485,-0.1481,-0.9711,0.2564,-3.1991,-0.7931,3.5714,-2.0123,0.5585,-0.8305,
4.406169,-0.2353,-1.0925,0.2728,-3.1991,-0.7931,3.5714,-2.0123,0.5585,-0.8305,
4.407417,-0.2124,-1.1942,0.0881,-3.1991,-0.7931,3.5714,-2.0123,0.5585,-0.8305,
4.408769,-0.1772,-1.1866,-0.0487,-3.1991,-0.7931,3.5714,-2.0123,0.5585,-0.8305,
4.409904,-0.1476,-1.1162,-0.0082,-3.1991,-0.7931,3.5714,-2.0123,0.5585,-0.8305,
4.441071,-0.1476,-1.1162,-0.0082,-3.1991,-0.7931,3.5714,-1.7321,0.4115,-0.7624,
4.443713,-0.1476,-1.1162,-0.0082,-3.4658,-0.9488,4.1483,-1.7321,0.4115,-0.7624,
4.480481,-0.1476,-1.1162,-0.0082,-3.4658,-0.9488,4.1483,-1.2389,-0.1670,-0.9978,
4.483105,-0.1476,-1.1162,-0.0082,-2.9610,-1.3240,2.4467,-1.2389,-0.1670,-0.9978,
4.484490,-0.0208,-1.0205,0.0180,-2.9610,-1.3240,2.4467,-1.2389,-0.1670,-0.9978,
4.486231,0.1983,-0.9098,-0.0399,-2.9610,-1.3240,2.4467,-1.2389,-0.1670,-0.9978,
4.487363,0.2418,-0.8995,-0.0976,-2.9610,-1.3240,2.4467,-1.2389,-0.1670,-0.9978,
4.489612,0.2147,-0.9320,-0.1091,-2.9610,-1.3240,2.4467,-1.2389,-0.1670,-0.9978,
4.520126,0.2147,-0.9320,-0.1091,-2.9610,-1.3240,2.4467,-0.7936,-0.7337,-1.2705,
4.522665,0.2147,-0.9320,-0.1091,-0.0854,0.3819,2.0896,-0.7936,-0.7337,-1.2705,
4.560186,0.2147,-0.9320,-0.1091,-0.0854,0.3819,2.0896,-0.4272,-1.0362,-1.0084,
4.562653,0.2147,-0.9320,-0.1091,-2.3541,0.6872,1.9688,-0.4272,-1.0362,-1.0084,
4.563969,0.1326,-0.9069,-0.1303,-2.3541,0.6872,1.9688,-0.4272,-1.0362,-1.0084,
4.565156,-0.0123,-0.8744,-0.1362,-2.3541,0.6872,1.9688,-0.4272,-1.0362,-1.0084,
4.566428,-0.0970,-0.8187,-0.0846,-2.3541,0.6872,1.9688,-0.4272,-1.0362,-1.0084,
4.567680,-0.1110,-0.7774,-0.0590,-2.3541,0.6872,1.9688,-0.4272,-1.0362,-1.0084,
4.598610,-0.1110,-0.7774,-0.0590,-2.3541,0.6872,1.9688,-0.1066,-1.0235,-0.4502,
4.600825,-0.1110,-0.7774,-0.0590,-2.3480,0.6194,2.0724,-0.1066,-1.0235,-0.4502,
4.638820,-0.0768,-0.7527,-0.0748,-2.3480,0.6194,2.0724,-0.1066,-1.0235,-0.4502,
4.641083,-0.0240,-0.7258,-0.1154,-2.3480,0.6194,2.0724,-0.1066,-1.0235,-0.4502,
4.642703,0.0021,-0.7126,-0.1757,-2.3480,0.6194,2.0724,-0.1066,-1.0235,-0.4502,
4.643710,0.0021,-0.7126,-0.1757,-2.3480,0.6194,2.0724,0.0852,-0.9052,-0.0412,
4.645365,0.0021,-0.7126,-0.1757,-2.9637,1.7209,2.4190,0.0852,-0.9052,-0.0412,
4.678559,0.0021,-0.7126,-0.1757,-2.9637,1.7209,2.4190,0.1385,-0.9670,0.1740,
4.680813,0.0021,-0.7126,-0.1757,-1.5302,1.9819,0.9113,0.1385,-0.9670,0.1740,
4.718225,0.0021,-0.7126,-0.1757,-1.5302,1.9819,0.9113,0.2450,-0.8626,0.1143,
4.720552,0.0021,-0.7126,-0.1757,-1.3549,1.9887,0.8758,0.2450,-0.8626,0.1143,
4.722307,0.0319,-0.7241,-0.2486,-1.3549,1.9887,0.8758,0.2450,-0.8626,0.1143,
4.723442,0.1277,-0.7390,-0.2920,-1.3549,1.9887,0.8758,0.2450,-0.8626,0.1143,
4.724618,0.2455,-0.7591,-0.3089,-1.3549,1.9887,0.8758,0.2450,-0.8626,0.1143,
4.725765,0.3486,-0.7898,-0.3556,-1.3549,1.9887,0.8758,0.2450,-0.8626,0.1143,
4.727062,0.3972,-0.8714,-0.4174,-1.3549,1.9887,0.8758,0.2450,-0.8626,0.1143,
4.757781,0.3972,-0.8714,-0.4174,-1.3549,1.9887,0.8758,0.3899,-0.5238,-0.2319,
4.760087,0.3972,-0.8714,-0.4174,1.3144,1.2011,-0.4129,0.3899,-0.5238,-0.2319,
4.797078,0.3972,-0.8714,-0.4174,1.3144,1.2011,-0.4129,-0.0096,-0.6144,-0.5333,
4.799331,0.3972,-0.8714,-0.4174,1.5694,-1.4707,-2.6108,-0.0096,-0.6144,-0.5333,
4.803790,0.3698,-1.0136,-0.5024,1.5694,-1.4707,-2.6108,-0.0096,-0.6144,-0.5333,
4.804998,0.3618,-1.1128,-0.6062,1.5694,-1.4707,-2.6108,-0.0096,-0.6144,-0.5333,
4.805926,0.3813,-1.1062,-0.6754,1.5694,-1.4707,-2.6108,-0.0096,-0.6144,-0.5333,
4.806751,0.3710,-1.0087,-0.6719,1.5694,-1.4707,-2.6108,-0.0096,-0.6144,-0.5333,
4.836454,0.3710,-1.0087,-0.6719,1.5694,-1.4707,-2.6108,-0.4506,-1.1747,-0.8124,
4.838773,0.3710,-1.0087,-0.6719,1.4103,-1.5726,-2.3111,-0.4506,-1.1747,-0.8124,
4.876056,0.2924,-0.8487,-0.5046,1.4103,-1.5726,-2.3111,-0.4506,-1.1747,-0.8124,
4.878893,0.1993,-0.7219,-0.3966,1.4103,-1.5726,-2.3111,-0.4506,-1.1747,-0.8124,
4.879833,0.1052,-0.9171,-0.5862,1.4103,-1.5726,-2.3111,-0.4506,-1.1747,-0.8124,
4.880669,0.1052,-0.9171,-0.5862,1.4103,-1.5726,-2.3111,-0.1630,-0.9904,-0.6090,
4.881879,0.1052,-0.9171,-0.5862,0.5098,0.4757,-1.4511,-0.1630,-0.9904,-0.6090,
4.915972,0.1052,-0.9171,-0.5862,0.5098,0.4757,-1.4511,-0.6626,-0.5217,-0.5376,
4.918273,0.1052,-0.9171,-0.5862,-0.1080,-6.8354,-4.3485,-0.6626,-0.5217,-0.5376,
4.955922,0.1052,-0.9171,-0.5862,-0.1080,-6.8354,-4.3485,-0.1374,0.7566,-0.8817,
4.958262,0.1052,-0.9171,-0.5862,-0.5279,-6.8331,-4.3072,-0.1374,0.7566,-0.8817,
4.960162,0.0566,-1.7204,-1.1102,-0.5279,-6.8331,-4.3072,-0.1374,0.7566,-0.8817,
4.961765,0.5447,-2.1692,-0.8720,-0.5279,-6.8331,-4.3072,-0.1374,0.7566,-0.8817,
4.962955,0.5804,-0.7051,0.6896,-0.5279,-6.8331,-4.3072,-0.1374,0.7566,-0.8817,
4.964155,-0.9504,0.4263,0.5542,-0.5279,-6.8331,-4.3072,-0.1374,0.7566,-0.8817,
4.965467,-1.2656,-0.1246,-0.5112,-0.5279,-6.8331,-4.3072,-0.1374,0.7566,-0.8817,
4.995475,-1.2656,-0.1246,-0.5112,-0.5279,-6.8331,-4.3072,1.2506,1.1220,0.7375,
4.998805,-1.2656,-0.1246,-0.5112,-7.9505,7.6912,5.8057,1.2506,1.1220,0.7375,
5.035058,-1.2656,-0.1246,-0.5112,-7.9505,7.6912,5.8057,0.7158,1.9444,0.9900,
5.037625,-1.2656,-0.1246,-0.5112,0.1874,-6.4048,1.8332,0.7158,1.9444,0.9900,
5.039584,-0.0423,-1.2081,-0.2126,0.1874,-6.4048,1.8332,0.7158,1.9444,0.9900,
5.040843,0.5186,-1.9943,0.1721,0.1874,-6.4048,1.8332,0.7158,1.9444,0.9900,
5.042160,0.3454,-1.6078,-0.2942,0.1874,-6.4048,1.8332,0.7158,1.9444,0.9900,
5.043394,0.1773,-0.8473,-0.4780,0.1874,-6.4048,1.8332,0.7158,1.9444,0.9900,
5.074394,0.1773,-0.8473,-0.4780,0.1874,-6.4048,1.8332,0.4719,0.2368,0.4669,
5.077128,0.1773,-0.8473,-0.4780,0.3274,-6.2019,1.6075,0.4719,0.2368,0.4669,
5.115496,0.1773,-0.8473,-0.4780,0.3274,-6.2019,1.6075,0.9161,0.1249,0.5554,
5.118142,0.1773,-0.8473,-0.4780,-0.3818,1.9405,1.2558,0.9161,0.1249,0.5554,
5.119534,0.1998,-0.6802,0.0138,-0.3818,1.9405,1.2558,0.9161,0.1249,0.5554,
5.120615,0.1648,-0.8233,0.1382,-0.3818,1.9405,1.2558,0.9161,0.1249,0.5554,
5.122041,0.1233,-1.0432,0.0268,-0.3818,1.9405,1.2558,0.9161,0.1249,0.5554,
5.123233,0.1680,-1.1529,-0.0932,-0.3818,1.9405,1.2558,0.9161,0.1249,0.5554,
5.153898,0.1680,-1.1529,-0.0932,-0.3818,1.9405,1.2558,1.1547,0.3752,0.6278,
5.156611,0.1680,-1.1529,-0.0932,-0.1686,2.0520,0.7691,1.1547,0.3752,0.6278,
5.194388,0.1680,-1.1529,-0.0932,-0.0031,-1.0169,0.6459,1.1547,0.3752,0.6278,
5.197352,0.1680,-1.1529,-0.0932,-0.0031,-1.0169,0.6459,1.1260,-0.0445,0.4414,
5.198814,0.2482,-1.1314,-0.1611,-0.0031,-1.0169,0.6459,1.1260,-0.0445,0.4414,
5.200293,0.2995,-1.0510,-0.1523,-0.0031,-1.0169,0.6459,1.1260,-0.0445,0.4414,
5.202177,0.2626,-0.9587,-0.1149,-0.0031,-1.0169,0.6459,1.1260,-0.0445,0.4414,
5.203200,0.1905,-0.8595,-0.0592,-0.0031,-1.0169,0.6459,1.1260,-0.0445,0.4414,
5.233336,0.1905,-0.8595,-0.0592,-0.0031,-1.0169,0.6459,1.0205,-0.2597,0.2422,
5.235910,0.1905,-0.8595,-0.0592,0.7864,0.5360,-0.0588,1.0205,-0.2597,0.2422,
5.270112,0.0903,-0.8199,-0.0582,0.7864,0.5360,-0.0588,1.0205,-0.2597,0.2422,
5.273548,-0.0181,-0.8434,-0.1025,0.7864,0.5360,-0.0588,1.0205,-0.2597,0.2422,
5.274896,-0.0308,-0.8651,-0.1086,0.7864,0.5360,-0.0588,1.0205,-0.2597,0.2422,
5.276300,-0.0308,-0.8651,-0.1086,0.7864,0.5360,-0.0588,0.8852,-0.0690,0.2869,
5.277399,-0.0308,-0.8651,-0.1086,-1.3977,1.6687,-0.2123,0.8852,-0.0690,0.2869,
5.312345,-0.0308,-0.8651,-0.1086,-1.3977,1.6687,-0.2123,0.7648,0.1153,0.4925,
5.315253,-0.0308,-0.8651,-0.1086,-0.2172,0.7193,-0.4095,0.7648,0.1153,0.4925,
5.352125,-0.0308,-0.8651,-0.1086,-0.2172,0.7193,-0.4095,0.7766,0.1846,0.4733,
5.354643,-0.0308,-0.8651,-0.1086,-0.0309,0.7366,-0.7135,0.7766,0.1846,0.4733,
5.356034,0.0422,-0.8973,-0.1037,-0.0309,0.7366,-0.7135,0.7766,0.1846,0.4733,
5.357260,0.1243,-0.9572,-0.0846,-0.0309,0.7366,-0.7135,0.7766,0.1846,0.4733,
5.358742,0.1763,-0.9741,-0.0492,-0.0309,0.7366,-0.7135,0.7766,0.1846,0.4733,
5.359998,0.2149,-0.9467,-0.0255,-0.0309,0.7366,-0.7135,0.7766,0.1846,0.4733,
5.360964,0.2149,-0.9330,-0.0243,-0.0309,0.7366,-0.7135,0.7766,0.1846,0.4733,
5.391863,0.2149,-0.9330,-0.0243,-0.0309,0.7366,-0.7135,0.8831,0.1228,0.3466,
5.394146,0.2149,-0.9330,-0.0243,0.1048,0.7350,-1.0503,0.8831,0.1228,0.3466,
5.432299,0.2149,-0.9330,-0.0243,0.1048,0.7350,-1.0503,0.9939,0.0759,0.3018,
5.435169,0.2149,-0.9330,-0.0243,1.0810,0.7447,-0.9053,0.9939,0.0759,0.3018,
5.436491,0.1805,-0.9399,-0.0270,1.0810,0.7447,-0.9053,0.9939,0.0759,0.3018,
5.438147,0.0896,-0.9491,-0.0084,1.0810,0.7447,-0.9053,0.9939,0.0759,0.3018,
5.439299,-0.0115,-0.9948,-0.0279,1.0810,0.7447,-0.9053,0.9939,0.0759,0.3018,
5.440579,-0.0755,-1.0168,-0.0685,1.0810,0.7447,-0.9053,0.9939,0.0759,0.3018,
5.470728,-0.0755,-1.0168,-0.0685,1.0810,0.7447,-0.9053,0.8969,0.2165,0.4787,
5.473387,-0.0755,-1.0168,-0.0685,-0.6967,0.2647,-1.3352,0.8969,0.2165,0.4787,
5.511545,-0.0755,-1.0168,-0.0685,-0.6967,0.2647,-1.3352,0.7382,0.5041,0.6576,
5.515401,-0.1051,-0.9890,-0.0248,-0.6967,0.2647,-1.3352,0.7382,0.5041,0.6576,
5.516603,-0.1378,-0.9860,0.0517,-0.6967,0.2647,-1.3352,0.7382,0.5041,0.6576,
5.518343,-0.1207,-0.9985,0.0304,-0.6967,0.2647,-1.3352,0.7382,0.5041,0.6576,
5.519509,0.0515,-1.0061,-0.0116,-0.6967,0.2647,-1.3352,0.7382,0.5041,0.6576,
5.520766,0.0515,-1.0061,-0.0116,-1.5841,0.2011,-1.0885,0.7382,0.5041,0.6576,
5.550368,0.0515,-1.0061,-0.0116,-1.5841,0.2011,-1.0885,0.6178,0.8493,0.8046,
5.553177,0.0515,-1.0061,-0.0116,-1.2006,0.1708,-1.3155,0.6178,0.8493,0.8046,
5.590042,0.0515,-1.0061,-0.0116,-1.2006,0.1708,-1.3155,0.6956,0.6991,0.7407,
5.593038,0.0515,-1.0061,-0.0116,2.6076,-0.0763,-1.1839,0.6956,0.6991,0.7407,
5.594262,0.2633,-1.0241,0.0666,2.6076,-0.0763,-1.1839,0.6956,0.6991,0.7407,
5.595442,0.3984,-1.0041,0.1184,2.6076,-0.0763,-1.1839,0.6956,0.6991,0.7407,
5.596670,0.4443,-0.9628,0.0883,2.6076,-0.0763,-1.1839,0.6956,0.6991,0.7407,
5.597740,0.3696,-0.9982,-0.0082,2.6076,-0.0763,-1.1839,0.6956,0.6991,0.7407,
5.629112,0.3696,-0.9982,-0.0082,2.6076,-0.0763,-1.1839,0.8224,0.2453,0.6843,
5.631696,0.3696,-0.9982,-0.0082,2.8433,-0.1475,-1.4747,0.8224,0.2453,0.6843,
5.668852,0.2758,-1.0090,-0.1022,2.8433,-0.1475,-1.4747,0.8224,0.2453,0.6843,
5.671477,0.2853,-1.0197,-0.1716,2.8433,-0.1475,-1.4747,0.8224,0.2453,0.6843,
5.672671,0.4837,-1.2049,-0.0367,2.8433,-0.1475,-1.4747,0.8224,0.2453,0.6843,
5.673852,0.4837,-1.2049,-0.0367,2.8433,-0.1475,-1.4747,0.3835,-0.3779,0.6278,
5.675456,0.4837,-1.2049,-0.0367,4.2117,0.0145,-2.2331,0.3835,-0.3779,0.6278,
5.708473,0.4837,-1.2049,-0.0367,4.2117,0.0145,-2.2331,-0.4315,-0.6314,-0.3384,
5.710919,0.4837,-1.2049,-0.0367,4.5075,-2.0992,-2.2923,-0.4315,-0.6314,-0.3384,
5.748140,0.4837,-1.2049,-0.0367,4.5075,-2.0992,-2.2923,-1.5340,-0.2735,-0.8327,
5.750756,0.4837,-1.2049,-0.0367,4.0939,-1.9571,-1.6682,-1.5340,-0.2735,-0.8327,
5.752229,0.4908,-1.4165,0.1098,4.0939,-1.9571,-1.6682,-1.5340,-0.2735,-0.8327,
5.753218,0.2311,-1.4908,0.0155,4.0939,-1.9571,-1.6682,-1.5340,-0.2735,-0.8327,
5.754201,-0.1205,-1.3960,-0.3006,4.0939,-1.9571,-1.6682,-1.5340,-0.2735,-0.8327,
5.755692,-0.4156,-1.1558,-0.5175,4.0939,-1.9571,-1.6682,-1.5340,-0.2735,-0.8327,
5.756979,-0.3411,-1.0232,-0.3788,4.0939,-1.9571,-1.6682,-1.5340,-0.2735,-0.8327,
5.787702,-0.3411,-1.0232,-0.3788,4.0939,-1.9571,-1.6682,-2.9647,-0.6357,-0.4162,
5.790246,-0.3411,-1.0232,-0.3788,-1.1813,-3.1280,-2.7439,-2.9647,-0.6357,-0.4162,
5.828270,-0.3411,-1.0232,-0.3788,-1.1813,-3.1280,-2.7439,-2.7431,-0.2703,-0.6963,
5.830459,-0.3411,-1.0232,-0.3788,-1.8824,-0.4298,1.2772,-2.7431,-0.2703,-0.6963,
5.831892,-0.0780,-1.0398,0.0747,-1.8824,-0.4298,1.2772,-2.7431,-0.2703,-0.6963,
5.833160,-0.0264,-1.1390,0.4035,-1.8824,-0.4298,1.2772,-2.7431,-0.2703,-0.6963,
5.834403,-0.2314,-1.2767,0.3962,-1.8824,-0.4298,1.2772,-2.7431,-0.2703,-0.6963,
5.835732,-0.4181,-1.4079,0.1431,-1.8824,-0.4298,1.2772,-2.7431,-0.2703,-0.6963,
5.867410,-0.4181,-1.4079,0.1431,-1.8824,-0.4298,1.2772,-2.2009,1.1444,-0.8188,
5.870272,-0.4181,-1.4079,0.1431,-2.2351,-0.5605,2.0821,-2.2009,1.1444,-0.8188,
5.906666,-0.4181,-1.4079,0.1431,-2.2351,-0.5605,2.0821,-2.1742,0.7523,-0.4769,
5.910743,-0.4181,-1.4079,0.1431,-4.7703,-3.5899,3.9466,-2.1742,0.7523,-0.4769,
5.912248,-0.5207,-1.4009,-0.0988,-4.7703,-3.5899,3.9466,-2.1742,0.7523,-0.4769,
5.913385,-0.4945,-1.2088,-0.1865,-4.7703,-3.5899,3.9466,-2.1742,0.7523,-0.4769,
5.915284,-0.2424,-0.9604,-0.0421,-4.7703,-3.5899,3.9466,-2.1742,0.7523,-0.4769,
5.916481,0.0368,-0.8128,0.1265,-4.7703,-3.5899,3.9466,-2.1742,0.7523,-0.4769,
5.946293,0.0368,-0.8128,0.1265,-4.7703,-3.5899,3.9466,-1.5819,-0.1350,-0.5365,
5.949060,0.0368,-0.8128,0.1265,-3.3660,-0.1805,2.7392,-1.5819,-0.1350,-0.5365,
5.986330,0.0368,-0.8128,0.1265,-3.3660,-0.1805,2.7392,-0.9428,-0.4514,-1.2012,
5.988884,0.0368,-0.8128,0.1265,1.4128,0.7018,2.5941,-0.9428,-0.4514,-1.2012,
5.990060,0.2995,-0.8069,0.1130,1.4128,0.7018,2.5941,-0.9428,-0.4514,-1.2012,
5.991674,0.4079,-0.8744,-0.1186,1.4128,0.7018,2.5941,-0.9428,-0.4514,-1.2012,
5.992792,0.1824,-0.9711,-0.2429,1.4128,0.7018,2.5941,-0.9428,-0.4514,-1.2012,
5.993898,-0.1794,-0.9311,-0.1640,1.4128,0.7018,2.5941,-0.9428,-0.4514,-1.2012,
6.025845,-0.1794,-0.9311,-0.1640,1.4128,0.7018,2.5941,-0.6690,-0.8487,-1.2012,
6.028574,-0.1794,-0.9311,-0.1640,1.0733,0.5198,2.8481,-0.6690,-0.8487,-1.2012,
6.063627,-0.3279,-0.7771,-0.0372,1.0733,0.5198,2.8481,-0.6690,-0.8487,-1.2012,
6.067088,-0.3736,-0.6100,0.1235,1.0733,0.5198,2.8481,-0.6690,-0.8487,-1.2012,
6.068232,-0.3245,-0.5016,0.1194,1.0733,0.5198,2.8481,-0.6690,-0.8487,-1.2012,
6.069296,-0.3245,-0.5016,0.1194,1.0733,0.5198,2.8481,-0.1289,-0.1414,-0.5056,
6.070410,-0.3245,-0.5016,0.1194,-4.7927,1.5285,3.4055,-0.1289,-0.1414,-0.5056,
6.104048,-0.3245,-0.5016,0.1194,-4.7927,1.5285,3.4055,0.6274,0.4232,0.1069,
6.105940,-0.3245,-0.5016,0.1194,-3.6905,4.0154,3.4242,0.6274,0.4232,0.1069,
6.144397,-0.3245,-0.5016,0.1194,-3.6905,4.0154,3.4242,1.0620,0.0621,0.2997,
6.147078,-0.3245,-0.5016,0.1194,-3.5295,4.0999,2.9814,1.0620,0.0621,0.2997,
6.148693,-0.2065,-0.4915,0.0104,-3.5295,4.0999,2.9814,1.0620,0.0621,0.2997,
6.149895,-0.0255,-0.5724,-0.1044,-3.5295,4.0999,2.9814,1.0620,0.0621,0.2997,
6.152057,0.1819,-0.6692,-0.2534,-3.5295,4.0999,2.9814,1.0620,0.0621,0.2997,
6.153376,0.4006,-0.8087,-0.4552,-3.5295,4.0999,2.9814,1.0620,0.0621,0.2997,
6.154722,0.5594,-0.9963,-0.6961,-3.5295,4.0999,2.9814,1.0620,0.0621,0.2997,
6.183764,0.5594,-0.9963,-0.6961,-3.5295,4.0999,2.9814,0.9012,-0.3204,-0.1488,
6.185798,0.5594,-0.9963,-0.6961,1.9650,1.1993,-1.9661,0.9012,-0.3204,-0.1488,
6.223859,0.5594,-0.9963,-0.6961,1.9650,1.1993,-1.9661,0.2343,0.0599,-0.8508,
6.225948,0.5594,-0.9963,-0.6961,4.4279,-1.9331,-5.3102,0.2343,0.0599,-0.8508,
6.227016,0.7092,-1.1761,-0.8967,4.4279,-1.9331,-5.3102,0.2343,0.0599,-0.8508,
6.228113,0.8032,-1.2125,-0.8615,4.4279,-1.9331,-5.3102,0.2343,0.0599,-0.8508,
6.228956,0.5039,-1.0420,-0.6700,4.4279,-1.9331,-5.3102,0.2343,0.0599,-0.8508,
6.229745,0.1934,-0.8033,-0.5361,4.4279,-1.9331,-5.3102,0.2343,0.0599,-0.8508,
6.262554,0.1934,-0.8033,-0.5361,4.4279,-1.9331,-5.3102,0.0437,-0.1787,-0.7219,
6.264428,0.1934,-0.8033,-0.5361,4.1123,-1.9607,-5.2213,0.0437,-0.1787,-0.7219,
6.302775,0.1934,-0.8033,-0.5361,4.1123,-1.9607,-5.2213,0.6690,-0.1830,-0.0976,
6.306125,0.1934,-0.8033,-0.5361,-1.4527,2.3687,-0.8066,0.6690,-0.1830,-0.0976,
6.307510,0.0508,-0.6543,-0.4052,-1.4527,2.3687,-0.8066,0.6690,-0.1830,-0.0976,
6.309022,0.0661,-0.6535,-0.0700,-1.4527,2.3687,-0.8066,0.6690,-0.1830,-0.0976,
6.310152,-0.0032,-1.2741,0.2095,-1.4527,2.3687,-0.8066,0.6690,-0.1830,-0.0976,
6.311415,-0.1139,-2.1389,-0.3898,-1.4527,2.3687,-0.8066,0.6690,-0.1830,-0.0976,
6.342255,-0.1139,-2.1389,-0.3898,-1.4527,2.3687,-0.8066,0.2716,1.5502,-0.1051,
6.344919,-0.1139,-2.1389,-0.3898,-1.6083,2.3443,-1.0460,0.2716,1.5502,-0.1051,
6.384863,-0.1139,-2.1389,-0.3898,-1.6083,2.3443,-1.0460,-0.5987,1.3713,0.2166,
6.387169,-0.1139,-2.1389,-0.3898,-3.9625,-8.2068,-1.9659,-0.5987,1.3713,0.2166,
6.392018,-0.3003,-1.9611,-1.1456,-3.9625,-8.2068,-1.9659,-0.5987,1.3713,0.2166,
6.394232,-0.3704,-0.9369,-0.0643,-3.9625,-8.2068,-1.9659,-0.5987,1.3713,0.2166,
6.395631,-0.4022,-0.5773,0.1028,-3.9625,-8.2068,-1.9659,-0.5987,1.3713,0.2166,
6.396916,-0.2847,-0.7280,0.1919,-3.9625,-8.2068,-1.9659,-0.5987,1.3713,0.2166,
6.422131,-0.2847,-0.7280,0.1919,-3.9625,-8.2068,-1.9659,-0.0235,0.6565,1.1328,
6.424091,-0.2847,-0.7280,0.1919,-5.5973,2.0948,3.0106,-0.0235,0.6565,1.1328,
6.460906,-0.2847,-0.7280,0.1919,-5.5973,2.0948,3.0106,0.6061,0.7385,1.3948,
6.463460,-0.2847,-0.7280,0.1919,-1.0573,-0.0935,5.8010,0.6061,0.7385,1.3948,
6.464886,-0.0961,-0.8773,0.3879,-1.0573,-0.0935,5.8010,0.6061,0.7385,1.3948,
6.466208,0.0490,-1.0300,0.4482,-1.0573,-0.0935,5.8010,0.6061,0.7385,1.3948,
6.467205,0.2325,-1.0532,0.3656,-1.0573,-0.0935,5.8010,0.6061,0.7385,1.3948,
6.469699,0.4065,-1.0732,0.1585,-1.0573,-0.0935,5.8010,0.6061,0.7385,1.3948,
6.501003,0.4065,-1.0732,0.1585,-1.0573,-0.0935,5.8010,1.3571,0.7034,0.8600,
6.503632,0.4065,-1.0732,0.1585,-0.7611,0.0432,5.1527,1.3571,0.7034,0.8600,
6.540663,0.5052,-1.1348,-0.0971,-0.7611,0.0432,5.1527,1.3571,0.7034,0.8600,
6.543568,0.3818,-1.0674,-0.3678,-0.7611,0.0432,5.1527,1.3571,0.7034,0.8600,
6.544805,0.1846,-0.9582,-0.3631,-0.7611,0.0432,5.1527,1.3571,0.7034,0.8600,
6.546046,0.1846,-0.9582,-0.3631,-0.7611,0.0432,5.1527,1.0748,0.6852,0.1420,
6.547214,0.1846,-0.9582,-0.3631,2.8378,-0.9196,-0.2214,1.0748,0.6852,0.1420,
6.582535,0.1846,-0.9582,-0.3631,2.8378,-0.9196,-0.2214,0.5060,0.3326,-0.0124,
6.584824,0.1846,-0.9582,-0.3631,-0.4852,0.7194,-0.9481,0.5060,0.3326,-0.0124,
6.619977,0.1846,-0.9582,-0.3631,-0.4852,0.7194,-0.9481,0.6551,0.3326,0.2741,
6.625188,0.1846,-0.9582,-0.3631,-0.3782,0.7331,-1.1999,0.6551,0.3326,0.2741,
6.626704,0.0578,-0.9208,-0.1208,-0.3782,0.7331,-1.1999,0.6551,0.3326,0.2741,
6.628092,0.0354,-0.8949,0.0158,-0.3782,0.7331,-1.1999,0.6551,0.3326,0.2741,
6.629121,0.0246,-0.8771,0.0024,-0.3782,0.7331,-1.1999,0.6551,0.3326,0.2741,
6.630370,0.0258,-0.9098,-0.0851,-0.3782,0.7331,-1.1999,0.6551,0.3326,0.2741,
6.631762,0.0823,-0.9457,-0.1379,-0.3782,0.7331,-1.1999,0.6551,0.3326,0.2741,
6.659454,0.0823,-0.9457,-0.1379,-0.3782,0.7331,-1.1999,0.7329,0.1356,0.5128,
6.662460,0.0823,-0.9457,-0.1379,-0.6433,0.8825,-0.6714,0.7329,0.1356,0.5128,
6.699345,0.0823,-0.9457,-0.1379,-0.6433,0.8825,-0.6714,0.7084,0.1569,0.4020,
6.701591,0.0823,-0.9457,-0.1379,0.9579,0.5803,-1.4498,0.7084,0.1569,0.4020,
6.703216,0.1707,-0.9535,-0.0981,0.9579,0.5803,-1.4498,0.7084,0.1569,0.4020,
6.704236,0.2184,-0.9359,-0.1086,0.9579,0.5803,-1.4498,0.7084,0.1569,0.4020,
6.706232,0.1907,-0.9367,-0.1735,0.9579,0.5803,-1.4498,0.7084,0.1569,0.4020,
6.707630,0.1206,-0.9401,-0.1753,0.9579,0.5803,-1.4498,0.7084,0.1569,0.4020,
6.738863,0.1206,-0.9401,-0.1753,0.9579,0.5803,-1.4498,0.5901,0.2922,0.3349,
6.742738,0.1206,-0.9401,-0.1753,1.0739,0.5745,-1.6611,0.5901,0.2922,0.3349,
6.778161,0.0776,-0.9411,-0.1134,1.0739,0.5745,-1.6611,0.5901,0.2922,0.3349,
6.780648,0.0742,-0.9482,-0.0297,1.0739,0.5745,-1.6611,0.5901,0.2922,0.3349,
6.782010,0.0835,-0.9208,0.0891,1.0739,0.5745,-1.6611,0.5901,0.2922,0.3349,
6.782951,0.0835,-0.9208,0.0891,1.0739,0.5745,-1.6611,0.5571,0.1888,0.5042,
6.784064,0.0835,-0.9208,0.0891,0.2652,0.5573,-1.6531,0.5571,0.1888,0.5042,
6.818824,0.0835,-0.9208,0.0891,0.2652,0.5573,-1.6531,0.7659,0.0557,0.5266,
6.821611,0.0835,-0.9208,0.0891,0.4453,0.5469,-0.1017,0.7659,0.0557,0.5266,
6.857194,0.0835,-0.9208,0.0891,0.4453,0.5469,-0.1017,0.7925,0.3539,0.5181,
6.860517,0.0835,-0.9208,0.0891,0.6500,0.5114,-0.4057,0.7925,0.3539,0.5181,
6.862313,0.0935,-0.9230,0.1284,0.6500,0.5114,-0.4057,0.7925,0.3539,0.5181,
6.863469,0.0898,-0.9821,0.0300,0.6500,0.5114,-0.4057,0.7925,0.3539,0.5181,
6.865343,0.0832,-0.9780,-0.0497,0.6500,0.5114,-0.4057,0.7925,0.3539,0.5181,
6.866702,0.0864,-0.9853,-0.0377,0.6500,0.5114,-0.4057,0.7925,0.3539,0.5181,
6.867709,0.1404,-1.0713,0.0043,0.6500,0.5114,-0.4057,0.7925,0.3539,0.5181,
6.896811,0.1404,-1.0713,0.0043,0.6500,0.5114,-0.4057,0.8351,0.3199,0.6512,
6.899585,0.1404,-1.0713,0.0043,1.0418,-0.2099,-1.7782,0.8351,0.3199,0.6512,
6.937535,0.1404,-1.0713,0.0043,1.0418,-0.2099,-1.7782,0.7861,0.0184,0.2731,
6.939905,0.1404,-1.0713,0.0043,2.6061,-2.8650,-1.0657,0.7861,0.0184,0.2731,
6.941538,0.2193,-1.2245,0.0832,2.6061,-2.8650,-1.0657,0.7861,0.0184,0.2731,
6.942876,0.2794,-1.3356,0.1028,2.6061,-2.8650,-1.0657,0.7861,0.0184,0.2731,
6.944024,0.2714,-1.2860,0.0358,2.6061,-2.8650,-1.0657,0.7861,0.0184,0.2731,
6.945384,0.1311,-1.2658,-0.0919,2.6061,-2.8650,-1.0657,0.7861,0.0184,0.2731,
6.977093,0.1311,-1.2658,-0.0919,2.6061,-2.8650,-1.0657,0.0266,-0.0114,-0.2670,
6.979932,0.1311,-1.2658,-0.0919,2.4610,-2.8187,-1.0580,0.0266,-0.0114,-0.2670,
7.016436,0.1311,-1.2658,-0.0919,2.4610,-2.8187,-1.0580,-1.4999,0.2272,-0.2148,
7.018632,0.1311,-1.2658,-0.0919,-0.6442,-2.7920,-3.7710,-1.4999,0.2272,-0.2148,
7.019845,-0.1132,-1.3400,-0.2974,-0.6442,-2.7920,-3.7710,-1.4999,0.2272,-0.2148,
7.021089,-0.1804,-1.2736,-0.4169,-0.6442,-2.7920,-3.7710,-1.4999,0.2272,-0.2148,
7.022633,-0.0614,-1.1416,-0.2637,-0.6442,-2.7920,-3.7710,-1.4999,0.2272,-0.2148,
7.024812,0.0185,-1.0127,-0.0758,-0.6442,-2.7920,-3.7710,-1.4999,0.2272,-0.2148,
7.058395,0.0185,-1.0127,-0.0758,-0.6442,-2.7920,-3.7710,-2.6195,0.3997,-0.4918,
7.061076,0.0185,-1.0127,-0.0758,-0.8138,-2.6857,-2.6991,-2.6195,0.3997,-0.4918,
7.096289,0.0185,-1.0127,-0.0758,-0.8138,-2.6857,-2.6991,-2.4459,0.8077,-0.7602,
7.098787,0.0185,-1.0127,-0.0758,-1.0041,-0.1937,-0.0405,-2.4459,0.8077,-0.7602,
7.100140,-0.0865,-0.9469,0.0554,-1.0041,-0.1937,-0.0405,-2.4459,0.8077,-0.7602,
7.101771,-0.3003,-1.0024,0.1910,-1.0041,-0.1937,-0.0405,-2.4459,0.8077,-0.7602,
7.102883,-0.4686,-1.1255,0.2154,-1.0041,-0.1937,-0.0405,-2.4459,0.8077,-0.7602,
7.104129,-0.4916,-1.2137,0.0998,-1.0041,-0.1937,-0.0405,-2.4459,0.8077,-0.7602,
7.135494,-0.4916,-1.2137,0.0998,-1.0041,-0.1937,-0.0405,-2.0262,1.4522,-0.3799,
7.138181,-0.4916,-1.2137,0.0998,-4.8413,-1.0729,3.2390,-2.0262,1.4522,-0.3799,
7.174691,-0.4916,-1.2137,0.0998,-4.8413,-1.0729,3.2390,-1.7854,1.0591,-0.0902,
7.177653,-0.4916,-1.2137,0.0998,-2.7978,-0.8793,1.6791,-1.7854,1.0591,-0.0902,
7.180098,-0.4000,-1.1614,-0.0067,-2.7978,-0.8793,1.6791,-1.7854,1.0591,-0.0902,
7.182063,-0.2163,-1.0757,-0.0533,-2.7978,-0.8793,1.6791,-1.7854,1.0591,-0.0902,
7.183303,0.0019,-1.0075,-0.1042,-2.7978,-0.8793,1.6791,-1.7854,1.0591,-0.0902,
7.184384,0.1917,-0.9355,-0.1455,-2.7978,-0.8793,1.6791,-1.7854,1.0591,-0.0902,
7.214171,0.1917,-0.9355,-0.1455,-2.7978,-0.8793,1.6791,-1.4573,0.5830,-0.4140,
7.216710,0.1917,-0.9355,-0.1455,-2.9623,-1.0203,2.1787,-1.4573,0.5830,-0.4140,
7.253390,0.1917,-0.9355,-0.1455,-2.9623,-1.0203,2.1787,-1.0653,-0.0849,-0.9669,
7.255870,0.1917,-0.9355,-0.1455,1.6597,0.3356,1.7504,-1.0653,-0.0849,-0.9669,
7.258159,0.3635,-0.8898,-0.1237,1.6597,0.3356,1.7504,-1.0653,-0.0849,-0.9669,
7.259921,0.3620,-0.9516,-0.1413,1.6597,0.3356,1.7504,-1.0653,-0.0849,-0.9669,
7.261539,0.1524,-0.9811,-0.2366,1.6597,0.3356,1.7504,-1.0653,-0.0849,-0.9669,
7.262689,-0.1063,-0.9056,-0.2710,1.6597,0.3356,1.7504,-1.0653,-0.0849,-0.9669,
7.293474,-0.1063,-0.9056,-0.2710,1.3801,0.1709,2.0627,-1.0653,-0.0849,-0.9669,
7.296049,-0.1063,-0.9056,-0.2710,1.3801,0.1709,2.0627,-0.8405,-0.6154,-0.9104,
7.333021,-0.1063,-0.9056,-0.2710,1.3801,0.1709,2.0627,-0.4102,-0.5164,-0.2990,
7.335533,-0.1063,-0.9056,-0.2710,-2.2581,0.3944,1.4151,-0.4102,-0.5164,-0.2990,
7.336893,-0.2429,-0.7962,-0.1499,-2.2581,0.3944,1.4151,-0.4102,-0.5164,-0.2990,
7.338288,-0.2556,-0.7124,-0.0297,-2.2581,0.3944,1.4151,-0.4102,-0.5164,-0.2990,
7.339473,-0.2092,-0.6398,-0.0106,-2.2581,0.3944,1.4151,-0.4102,-0.5164,-0.2990,
7.341589,-0.1010,-0.5910,-0.0472,-2.2581,0.3944,1.4151,-0.4102,-0.5164,-0.2990,
7.372403,-0.1010,-0.5910,-0.0472,-2.2581,0.3944,1.4151,0.1907,0.0354,0.1687,
7.374709,-0.1010,-0.5910,-0.0472,-3.3500,2.8007,3.1521,0.1907,0.0354,0.1687,
7.412208,-0.1010,-0.5910,-0.0472,-3.3500,2.8007,3.1521,0.6860,0.0493,0.2166,
7.414775,-0.1010,-0.5910,-0.0472,0.0072,2.6752,1.3497,0.6860,0.0493,0.2166,
7.416171,0.0224,-0.6032,-0.1205,0.0072,2.6752,1.3497,0.6860,0.0493,0.2166,
7.417301,0.1680,-0.6777,-0.1948,0.0072,2.6752,1.3497,0.6860,0.0493,0.2166,
7.418949,0.2494,-0.7183,-0.2395,0.0072,2.6752,1.3497,0.6860,0.0493,0.2166,
7.420080,0.3134,-0.7478,-0.3187,0.0072,2.6752,1.3497,0.6860,0.0493,0.2166,
7.452034,0.3134,-0.7478,-0.3187,0.0072,2.6752,1.3497,0.9790,-0.0189,0.0057,
7.454749,0.3134,-0.7478,-0.3187,0.0112,2.7448,0.9746,0.9790,-0.0189,0.0057,
7.490990,0.3877,-0.8419,-0.4425,0.0112,2.7448,0.9746,0.9790,-0.0189,0.0057,
7.495991,0.4578,-0.9772,-0.5901,0.0112,2.7448,0.9746,0.9790,-0.0189,0.0057,
7.497206,0.5203,-1.0921,-0.7350,0.0112,2.7448,0.9746,0.9790,-0.0189,0.0057,
7.498569,0.5203,-1.0921,-0.7350,0.0112,2.7448,0.9746,0.9182,-0.1404,-0.3661,
7.499902,0.5203,-1.0921,-0.7350,2.2018,0.9478,-1.9250,0.9182,-0.1404,-0.3661,
7.530692,0.5203,-1.0921,-0.7350,2.2018,0.9478,-1.9250,0.4122,-0.2703,-0.7794,
7.533682,0.5203,-1.0921,-0.7350,2.9115,-1.3665,-5.1301,0.4122,-0.2703,-0.7794,
7.571085,0.5203,-1.0921,-0.7350,2.9115,-1.3665,-5.1301,-0.0267,-0.3704,-0.7144,
7.575018,0.5203,-1.0921,-0.7350,2.6389,-1.4023,-5.0059,-0.0267,-0.3704,-0.7144,
7.576749,0.5257,-1.1197,-0.8087,2.6389,-1.4023,-5.0059,-0.0267,-0.3704,-0.7144,
7.577952,0.4255,-1.0666,-0.7743,2.6389,-1.4023,-5.0059,-0.0267,-0.3704,-0.7144,
7.579215,0.2144,-0.9699,-0.6841,2.6389,-1.4023,-5.0059,-0.0267,-0.3704,-0.7144,
7.580191,0.0664,-0.8771,-0.6067,2.6389,-1.4023,-5.0059,-0.0267,-0.3704,-0.7144,
7.581123,0.0263,-0.8856,-0.4990,2.6389,-1.4023,-5.0059,-0.0267,-0.3704,-0.7144,
7.610296,0.0263,-0.8856,-0.4990,2.6389,-1.4023,-5.0059,0.1236,-0.9457,-0.2031,
7.612890,0.0263,-0.8856,-0.4990,-1.1236,0.3694,-3.1903,0.1236,-0.9457,-0.2031,
7.653594,0.0263,-0.8856,-0.4990,-1.1236,0.3694,-3.1903,0.0916,-0.0509,-0.1498,
7.656596,0.0263,-0.8856,-0.4990,0.1866,-5.9587,-0.0813,0.0916,-0.0509,-0.1498,
7.658227,0.0771,-1.2198,-0.5051,0.1866,-5.9587,-0.0813,0.0916,-0.0509,-0.1498,
7.659781,0.1426,-1.7746,-0.2583,0.1866,-5.9587,-0.0813,0.0916,-0.0509,-0.1498,
7.661553,0.5047,-1.7053,-0.0661,0.1866,-5.9587,-0.0813,0.0916,-0.0509,-0.1498,
7.662876,-0.0453,-0.7974,-0.0614,0.1866,-5.9587,-0.0813,0.0916,-0.0509,-0.1498,
7.689753,-0.0453,-0.7974,-0.0614,0.1866,-5.9587,-0.0813,-0.0480,1.3947,-0.3427,
7.693147,-0.0453,-0.7974,-0.0614,-0.0813,-5.8950,-0.1885,-0.0480,1.3947,-0.3427,
7.732128,-0.0453,-0.7974,-0.0614,-0.0813,-5.8950,-0.1885,0.5528,0.9846,0.7056,
7.734970,-0.0453,-0.7974,-0.0614,-6.8193,4.0191,1.6129,0.5528,0.9846,0.7056,
7.736308,-0.8835,-0.2558,0.0124,-6.8193,4.0191,1.6129,0.5528,0.9846,0.7056,
7.737623,-0.4977,-0.6269,-0.1281,-6.8193,4.0191,1.6129,0.5528,0.9846,0.7056,
7.738951,0.0293,-1.0698,-0.0140,-6.8193,4.0191,1.6129,0.5528,0.9846,0.7056,
7.740150,0.2660,-1.2895,0.2176,-6.8193,4.0191,1.6129,0.5528,0.9846,0.7056,
7.768882,0.2660,-1.2895,0.2176,-6.8193,4.0191,1.6129,0.6785,1.2488,1.0315,
7.771736,0.2660,-1.2895,0.2176,-6.4184,4.0864,1.2344,0.6785,1.2488,1.0315,
7.809133,0.2660,-1.2895,0.2176,-6.4184,4.0864,1.2344,0.6466,0.4967,0.7780,
7.811456,0.2660,-1.2895,0.2176,0.2010,-1.8913,2.4893,0.6466,0.4967,0.7780,
7.812908,0.2252,-1.1890,0.1018,0.2010,-1.8913,2.4893,0.6466,0.4967,0.7780,
7.814132,0.1951,-0.9411,-0.0990,0.2010,-1.8913,2.4893,0.6466,0.4967,0.7780,
7.815731,0.1727,-0.8477,-0.1586,0.2010,-1.8913,2.4893,0.6466,0.4967,0.7780,
7.816959,0.0828,-0.9171,-0.0482,0.2010,-1.8913,2.4893,0.6466,0.4967,0.7780,
7.848055,0.0828,-0.9171,-0.0482,0.2010,-1.8913,2.4893,0.5827,-0.0690,0.5543,
7.850385,0.0828,-0.9171,-0.0482,0.1867,0.9075,0.2666,0.5827,-0.0690,0.5543,
7.888048,0.0478,-0.9875,0.0195,0.1867,0.9075,0.2666,0.5827,-0.0690,0.5543,
7.890323,0.0828,-1.0075,0.0319,0.1867,0.9075,0.2666,0.5827,-0.0690,0.5543,
7.892169,0.0674,-1.0214,0.0121,0.1867,0.9075,0.2666,0.5827,-0.0690,0.5543,
7.893502,0.0674,-1.0214,0.0121,0.1867,0.9075,0.2666,0.7158,-0.0796,0.3860,
7.894335,0.0674,-1.0214,0.0121,-0.4774,-0.0554,1.1799,0.7158,-0.0796,0.3860,
7.926992,0.0674,-1.0214,0.0121,-0.4774,-0.0554,1.1799,0.8447,-0.0136,0.2795,
7.929714,0.0674,-1.0214,0.0121,0.0468,0.8925,0.8880,0.8447,-0.0136,0.2795,
7.967271,0.0674,-1.0214,0.0121,0.0468,0.8925,0.8880,0.9821,0.0173,0.3263,
7.976332,0.0674,-1.0214,0.0121,0.1709,0.9065,0.4959,0.9821,0.0173,0.3263,
7.987641,0.1338,-0.9472,-0.0006,0.1709,0.9065,0.4959,0.9821,0.0173,0.3263,
7.989380,0.1238,-0.8815,0.0331,0.1709,0.9065,0.4959,0.9821,0.0173,0.3263,
7.990599,0.0676,-0.9049,0.0466,0.1709,0.9065,0.4959,0.9821,0.0173,0.3263,
7.993586,0.0571,-0.9518,-0.0468,0.1709,0.9065,0.4959,0.9821,0.0173,0.3263,
7.996239,0.1069,-0.9704,-0.1056,0.1709,0.9065,0.4959,0.9821,0.0173,0.3263,
8.006514,0.1069,-0.9704,-0.1056,0.1709,0.9065,0.4959,0.9662,0.0578,0.4212,
8.010168,0.1069,-0.9704,-0.1056,0.3295,0.9065,0.1153,0.9662,0.0578,0.4212,
8.045092,0.1069,-0.9704,-0.1056,0.3295,0.9065,0.1153,0.7734,0.0951,0.2592,
8.046266,0.1069,-0.9704,-0.1056,0.4904,0.3942,-1.3618,0.7734,0.0951,0.2592,
8.047651,0.1817,-0.9655,-0.1347,0.4904,0.3942,-1.3618,0.7734,0.0951,0.2592,
8.048542,0.1819,-0.9538,-0.1623,0.4904,0.3942,-1.3618,0.7734,0.0951,0.2592,
8.049131,0.0740,-0.9413,-0.1352,0.4904,0.3942,-1.3618,0.7734,0.0951,0.2592,
8.049695,-0.0379,-0.9486,0.0077,0.4904,0.3942,-1.3618,0.7734,0.0951,0.2592,
8.084612,-0.0379,-0.9486,0.0077,0.4904,0.3942,-1.3618,0.7457,0.1814,0.3562,
8.086115,-0.0379,-0.9486,0.0077,0.2123,0.5202,-1.6373,0.7457,0.1814,0.3562,
8.115170,-0.1076,-0.9420,0.1030,0.2123,0.5202,-1.6373,0.7457,0.1814,0.3562,
8.116303,-0.1400,-0.9550,0.0356,0.2123,0.5202,-1.6373,0.7457,0.1814,0.3562,
8.116811,-0.0176,-0.9592,-0.0959,0.2123,0.5202,-1.6373,0.7457,0.1814,0.3562,
8.124837,-0.0176,-0.9592,-0.0959,0.2123,0.5202,-1.6373,0.9268,0.3209,0.7631,
8.126324,-0.0176,-0.9592,-0.0959,-1.0409,0.4502,-0.9003,0.9268,0.3209,0.7631,
8.164796,-0.0176,-0.9592,-0.0959,-1.0409,0.4502,-0.9003,0.7766,0.2293,0.8387,
8.166692,-0.0176,-0.9592,-0.0959,2.2049,0.1228,-1.4563,0.7766,0.2293,0.8387,
8.203764,-0.0176,-0.9592,-0.0959,2.2049,0.1228,-1.4563,0.8096,0.5265,0.5394,
8.205832,-0.0176,-0.9592,-0.0959,2.4029,0.0694,-1.7333,0.8096,0.5265,0.5394,
8.207173,0.1568,-0.9948,-0.0937,2.4029,0.0694,-1.7333,0.8096,0.5265,0.5394,
8.208551,0.2450,-0.9792,0.0121,2.4029,0.0694,-1.7333,0.8096,0.5265,0.5394,
8.209740,0.2355,-0.9706,0.0385,2.4029,0.0694,-1.7333,0.8096,0.5265,0.5394,
8.211000,0.2142,-1.0593,-0.0634,2.4029,0.0694,-1.7333,0.8096,0.5265,0.5394,
8.212314,0.2814,-1.1319,-0.0956,2.4029,0.0694,-1.7333,0.8096,0.5265,0.5394,
8.243130,0.2814,-1.1319,-0.0956,2.4029,0.0694,-1.7333,0.8160,0.2836,0.5618,
8.244608,0.2814,-1.1319,-0.0956,2.5932,0.0031,-2.0067,0.8160,0.2836,0.5618,
8.282726,0.2814,-1.1319,-0.0956,2.5932,0.0031,-2.0067,0.2354,-0.1702,-0.0465,
8.284050,0.2814,-1.1319,-0.0956,3.3037,-1.3100,-2.6957,0.2354,-0.1702,-0.0465,
8.285444,0.3857,-1.1570,-0.0805,3.3037,-1.3100,-2.6957,0.2354,-0.1702,-0.0465,
8.286237,0.4307,-1.2276,-0.0902,3.3037,-1.3100,-2.6957,0.2354,-0.1702,-0.0465,
8.286851,0.3129,-1.4021,-0.0428,3.3037,-1.3100,-2.6957,0.2354,-0.1702,-0.0465,
8.287502,0.1438,-1.4839,-0.0348,3.3037,-1.3100,-2.6957,0.2354,-0.1702,-0.0465,
8.322988,0.1438,-1.4839,-0.0348,3.3037,-1.3100,-2.6957,-0.6946,-0.0200,-0.7379,
8.324399,0.1438,-1.4839,-0.0348,2.9892,-3.6906,-2.1599,-0.6946,-0.0200,-0.7379,
8.362393,0.1438,-1.4839,-0.0348,2.9892,-3.6906,-2.1599,-2.0187,0.1228,-0.6090,
8.364072,0.1438,-1.4839,-0.0348,-2.0186,-1.0617,-3.9087,-2.0187,0.1228,-0.6090,
8.366482,-0.0831,-1.3295,-0.2356,-2.0186,-1.0617,-3.9087,-2.0187,0.1228,-0.6090,
8.367669,-0.2446,-1.0569,-0.3783,-2.0186,-1.0617,-3.9087,-2.0187,0.1228,-0.6090,
8.368698,-0.2578,-0.9577,-0.3494,-2.0186,-1.0617,-3.9087,-2.0187,0.1228,-0.6090,
8.369519,-0.2128,-1.0449,-0.0954,-2.0186,-1.0617,-3.9087,-2.0187,0.1228,-0.6090,
8.402710,-0.2128,-1.0449,-0.0954,-2.1898,-1.0257,-2.7474,-2.0187,0.1228,-0.6090,
8.404608,-0.2128,-1.0449,-0.0954,-2.1898,-1.0257,-2.7474,-2.8443,-0.0413,-0.5323,
8.443787,-0.2128,-1.0449,-0.0954,-2.1898,-1.0257,-2.7474,-2.3905,0.9825,-0.5440,
8.446299,-0.2128,-1.0449,-0.0954,-2.9271,-1.6427,2.9068,-2.3905,0.9825,-0.5440,
8.447649,-0.2197,-1.1900,0.2335,-2.9271,-1.6427,2.9068,-2.3905,0.9825,-0.5440,
8.449006,-0.3174,-1.2789,0.3634,-2.9271,-1.6427,2.9068,-2.3905,0.9825,-0.5440,
8.450116,-0.4293,-1.2931,0.2269,-2.9271,-1.6427,2.9068,-2.3905,0.9825,-0.5440,
8.452238,-0.4689,-1.2372,-0.0235,-2.9271,-1.6427,2.9068,-2.3905,0.9825,-0.5440,
8.481818,-0.4689,-1.2372,-0.0235,-2.9271,-1.6427,2.9068,-2.1657,1.1273,-0.1669,
8.484045,-0.4689,-1.2372,-0.0235,-3.0163,-1.7602,3.6578,-2.1657,1.1273,-0.1669,
8.521920,-0.4689,-1.2372,-0.0235,-3.0163,-1.7602,3.6578,-2.0517,0.3326,-0.0007,
8.524363,-0.4689,-1.2372,-0.0235,-4.6452,-2.5447,2.7231,-2.0517,0.3326,-0.0007,
8.526062,-0.3653,-1.1771,-0.2109,-4.6452,-2.5447,2.7231,-2.0517,0.3326,-0.0007,
8.527541,-0.1203,-1.0469,-0.1059,-4.6452,-2.5447,2.7231,-2.0517,0.3326,-0.0007,
8.529090,0.1170,-0.9775,0.1331,-4.6452,-2.5447,2.7231,-2.0517,0.3326,-0.0007,
8.530271,0.2450,-0.9159,-0.0045,-4.6452,-2.5447,2.7231,-2.0517,0.3326,-0.0007,
8.560747,0.2450,-0.9159,-0.0045,-4.6452,-2.5447,2.7231,-1.3902,0.4381,-0.4396,
8.563577,0.2450,-0.9159,-0.0045,0.0532,-0.2118,3.2783,-1.3902,0.4381,-0.4396,
8.600150,0.2450,-0.9159,-0.0045,0.0532,-0.2118,3.2783,-1.0578,-0.1680,-0.8742,
8.603087,0.2450,-0.9159,-0.0045,-0.0191,0.6916,1.5136,-1.0578,-0.1680,-0.8742,
8.604293,0.2174,-0.8717,-0.1867,-0.0191,0.6916,1.5136,-1.0578,-0.1680,-0.8742,
8.605868,0.1304,-0.8729,-0.2102,-0.0191,0.6916,1.5136,-1.0578,-0.1680,-0.8742,
8.607279,-0.0369,-0.8624,-0.2341,-0.0191,0.6916,1.5136,-1.0578,-0.1680,-0.8742,
8.608804,-0.2019,-0.7652,-0.0739,-0.0191,0.6916,1.5136,-1.0578,-0.1680,-0.8742,
8.640036,-0.2019,-0.7652,-0.0739,-0.0191,0.6916,1.5136,-0.8043,-0.9489,-0.6729,
8.641675,-0.2019,-0.7652,-0.0739,-0.1190,0.5340,1.8159,-0.8043,-0.9489,-0.6729,
8.680095,-0.2019,-0.7652,-0.0739,-0.1190,0.5340,1.8159,-0.0927,-0.2597,-0.1594,
8.682613,-0.2019,-0.7652,-0.0739,-3.3299,2.5483,4.4251,-0.0927,-0.2597,-0.1594,
8.683938,-0.2593,-0.6308,0.1211,-3.3299,2.5483,4.4251,-0.0927,-0.2597,-0.1594,
8.685315,-0.2231,-0.5746,0.1296,-3.3299,2.5483,4.4251,-0.0927,-0.2597,-0.1594,
8.686648,-0.1288,-0.5973,-0.0003,-3.3299,2.5483,4.4251,-0.0927,-0.2597,-0.1594,
8.687944,0.0236,-0.6413,-0.1389,-3.3299,2.5483,4.4251,-0.0927,-0.2597,-0.1594,
8.719737,0.0236,-0.6413,-0.1389,-3.3299,2.5483,4.4251,0.6221,0.1665,0.1005,
8.721993,0.0236,-0.6413,-0.1389,-3.2630,2.6005,4.1254,0.6221,0.1665,0.1005,
8.759602,0.0236,-0.6413,-0.1389,-3.2630,2.6005,4.1254,0.9928,0.0099,0.0408,
8.762176,0.0236,-0.6413,-0.1389,-0.7582,2.8570,1.9038,0.9928,0.0099,0.0408,
8.763672,0.1798,-0.6797,-0.2444,-0.7582,2.8570,1.9038,0.9928,0.0099,0.0408,
8.765149,0.2816,-0.7246,-0.3563,-0.7582,2.8570,1.9038,0.9928,0.0099,0.0408,
8.766428,0.3593,-0.7891,-0.5009,-0.7582,2.8570,1.9038,0.9928,0.0099,0.0408,
8.767686,0.4177,-0.8937,-0.6409,-0.7582,2.8570,1.9038,0.9928,0.0099,0.0408,
8.798898,0.4177,-0.8937,-0.6409,-0.7582,2.8570,1.9038,0.8351,-0.0317,-0.2233,
8.801670,0.4177,-0.8937,-0.6409,2.3392,1.3271,-2.0053,0.8351,-0.0317,-0.2233,
8.838772,0.4177,-0.8937,-0.6409,2.3392,1.3271,-2.0053,0.2961,-0.1691,-0.6058,
8.840550,0.4177,-0.8937,-0.6409,2.1748,-1.5563,-5.3611,0.2961,-0.1691,-0.6058,
8.841597,0.4189,-1.0371,-0.7535,2.1748,-1.5563,-5.3611,0.2961,-0.1691,-0.6058,
8.842416,0.3701,-1.1250,-0.8554,2.1748,-1.5563,-5.3611,0.2961,-0.1691,-0.6058,
8.843084,0.2924,-1.1373,-0.9138,2.1748,-1.5563,-5.3611,0.2961,-0.1691,-0.6058,
8.843864,0.1868,-1.0334,-0.8200,2.1748,-1.5563,-5.3611,0.2961,-0.1691,-0.6058,
8.878345,0.1868,-1.0334,-0.8200,2.1748,-1.5563,-5.3611,-0.2173,-0.3481,-0.6686,
8.880926,0.1868,-1.0334,-0.8200,1.9385,-1.5933,-5.1741,-0.2173,-0.3481,-0.6686,
8.918339,0.0784,-0.8736,-0.6219,1.9385,-1.5933,-5.1741,-0.2173,-0.3481,-0.6686,
8.920969,-0.0396,-0.7268,-0.4704,1.9385,-1.5933,-5.1741,-0.2173,-0.3481,-0.6686,
8.922710,-0.0914,-0.6723,-0.3558,1.9385,-1.5933,-5.1741,-0.2173,-0.3481,-0.6686,
8.924053,-0.0914,-0.6723,-0.3558,1.9385,-1.5933,-5.1741,-0.0693,-0.6421,-0.2457,
8.925177,-0.0914,-0.6723,-0.3558,-0.8530,0.5472,-3.0615,-0.0693,-0.6421,-0.2457,
8.958085,-0.0914,-0.6723,-0.3558,-1.2965,-1.6223,-0.7403,-0.0693,-0.6421,-0.2457,
8.960827,-0.0914,-0.6723,-0.3558,-1.2965,-1.6223,-0.7403,0.4037,-0.0338,-0.0923,
8.998681,-0.0914,-0.6723,-0.3558,-1.2965,-1.6223,-0.7403,-0.0693,1.7942,-0.3363,
9.000514,-0.0914,-0.6723,-0.3558,-1.6047,-1.6263,-0.8267,-0.0693,1.7942,-0.3363,
9.002390,0.0273,-0.9491,-0.3863,-1.6047,-1.6263,-0.8267,-0.0693,1.7942,-0.3363,
9.003552,0.1561,-1.6984,-0.4191,-1.6047,-1.6263,-0.8267,-0.0693,1.7942,-0.3363,
9.004908,0.0195,-2.0747,-0.4359,-1.6047,-1.6263,-0.8267,-0.0693,1.7942,-0.3363,
9.006282,-0.2094,-1.0569,-0.2957,-1.6047,-1.6263,-0.8267,-0.0693,1.7942,-0.3363,
9.007415,-0.5810,-0.5536,0.1101,-1.6047,-1.6263,-0.8267,-0.0693,1.7942,-0.3363,
9.037223,-0.5810,-0.5536,0.1101,-1.6047,-1.6263,-0.8267,-0.0192,1.4117,0.2763,
9.040148,-0.5810,-0.5536,0.1101,-4.4109,-2.7534,0.8198,-0.0192,1.4117,0.2763,
9.068577,-0.5781,-0.7534,0.0104,-4.4109,-2.7534,0.8198,-0.0192,1.4117,0.2763,
9.071223,-0.1518,-0.9328,0.2633,-4.4109,-2.7534,0.8198,-0.0192,1.4117,0.2763,
9.072289,0.0407,-1.0632,0.3302,-4.4109,-2.7534,0.8198,-0.0192,1.4117,0.2763,
9.076300,0.0407,-1.0632,0.3302,-4.4109,-2.7534,0.8198,0.5624,0.9537,1.2073,
9.078020,0.0407,-1.0632,0.3302,-3.7362,0.4389,4.4718,0.5624,0.9537,1.2073,
9.116677,0.0407,-1.0632,0.3302,-3.7362,0.4389,4.4718,0.9033,0.8237,1.3011,
9.119185,0.0407,-1.0632,0.3302,1.5340,-0.8098,3.4911,0.9033,0.8237,1.3011,
9.155566,0.0407,-1.0632,0.3302,1.5340,-0.8098,3.4911,1.1526,0.6256,0.5500,
9.158619,0.0407,-1.0632,0.3302,1.6697,-0.6927,2.9758,1.1526,0.6256,0.5500,
9.160119,0.1328,-1.0334,0.3063,1.6697,-0.6927,2.9758,1.1526,0.6256,0.5500,
9.161635,0.3056,-1.0288,0.1687,1.6697,-0.6927,2.9758,1.1526,0.6256,0.5500,
9.162788,0.3671,-1.1192,-0.0362,1.6697,-0.6927,2.9758,1.1526,0.6256,0.5500,
9.163898,0.2169,-1.0896,-0.2019,1.6697,-0.6927,2.9758,1.1526,0.6256,0.5500,
9.164977,0.1025,-0.9606,-0.2371,1.6697,-0.6927,2.9758,1.1526,0.6256,0.5500,
9.195444,0.1025,-0.9606,-0.2371,1.6697,-0.6927,2.9758,0.9076,0.8748,0.0654,
9.197940,0.1025,-0.9606,-0.2371,1.6211,-0.6310,2.5497,0.9076,0.8748,0.0654,
9.235219,0.1025,-0.9606,-0.2371,1.6211,-0.6310,2.5497,0.6860,0.8727,0.1218,
9.237622,0.1025,-0.9606,-0.2371,0.1655,0.0670,-1.2431,0.6860,0.8727,0.1218,
9.238946,0.0371,-0.9267,-0.1977,0.1655,0.0670,-1.2431,0.6860,0.8727,0.1218,
9.240288,0.0217,-0.9242,-0.0226,0.1655,0.0670,-1.2431,0.6860,0.8727,0.1218,
9.241729,0.0532,-0.9034,0.1008,0.1655,0.0670,-1.2431,0.6860,0.8727,0.1218,
9.242682,0.0749,-0.8920,0.1135,0.1655,0.0670,-1.2431,0.6860,0.8727,0.1218,
9.274737,0.0749,-0.8920,0.1135,0.1655,0.0670,-1.2431,1.0216,0.7609,0.3317,
9.277362,0.0749,-0.8920,0.1135,-0.3934,0.9293,1.0201,1.0216,0.7609,0.3317,
9.315189,0.0749,-0.8920,0.1135,-0.3934,0.9293,1.0201,1.1164,0.5936,0.4851,
9.317499,0.0749,-0.8920,0.1135,0.4719,0.4816,-1.3363,1.1164,0.5936,0.4851,
9.318547,0.0903,-0.9227,-0.0006,0.4719,0.4816,-1.3363,1.1164,0.5936,0.4851,
9.319229,0.1096,-0.9645,-0.1501,0.4719,0.4816,-1.3363,1.1164,0.5936,0.4851,
9.319961,0.1607,-0.9738,-0.2471,0.4719,0.4816,-1.3363,1.1164,0.5936,0.4851,
9.320664,0.1736,-0.9442,-0.2317,0.4719,0.4816,-1.3363,1.1164,0.5936,0.4851,
9.352758,0.1736,-0.9442,-0.2317,0.4719,0.4816,-1.3363,0.7180,0.3891,0.3721,
9.353890,0.1736,-0.9442,-0.2317,0.6094,0.4777,-1.5988,0.7180,0.3891,0.3721,
9.393028,0.1736,-0.9442,-0.2317,0.6094,0.4777,-1.5988,0.5816,0.4924,0.3594,
9.394862,0.1736,-0.9442,-0.2317,0.4445,0.6869,-1.8475,0.5816,0.4924,0.3594,
9.396061,0.0986,-0.9147,-0.1227,0.4445,0.6869,-1.8475,0.5816,0.4924,0.3594,
9.397485,-0.0052,-0.9337,-0.0568,0.4445,0.6869,-1.8475,0.5816,0.4924,0.3594,
9.398830,-0.0489,-0.9699,0.0011,0.4445,0.6869,-1.8475,0.5816,0.4924,0.3594,
9.399881,-0.0311,-0.9689,0.0275,0.4445,0.6869,-1.8475,0.5816,0.4924,0.3594,
9.432440,-0.0311,-0.9689,0.0275,0.4445,0.6869,-1.8475,0.7595,0.4370,0.6161,
9.434447,-0.0311,-0.9689,0.0275,0.6834,0.6633,-2.1121,0.7595,0.4370,0.6161,
9.467347,0.0158,-0.9303,-0.0082,0.6834,0.6633,-2.1121,0.7595,0.4370,0.6161,
9.469552,0.0683,-0.9252,-0.0253,0.6834,0.6633,-2.1121,0.7595,0.4370,0.6161,
9.471377,0.1473,-0.9565,-0.0548,0.6834,0.6633,-2.1121,0.7595,0.4370,0.6161,
9.472675,0.1473,-0.9565,-0.0548,0.6834,0.6633,-2.1121,0.8777,0.3081,0.7098,
9.474297,0.1473,-0.9565,-0.0548,-0.1109,0.3758,-1.0250,0.8777,0.3081,0.7098,
9.511652,0.1473,-0.9565,-0.0548,-0.1109,0.3758,-1.0250,0.8021,0.4711,0.5373,
9.513504,0.1473,-0.9565,-0.0548,1.7295,0.4635,-1.7543,0.8021,0.4711,0.5373,
9.535261,0.2220,-0.9447,-0.0384,1.7295,0.4635,-1.7543,0.8021,0.4711,0.5373,
9.536748,0.2406,-0.9909,0.0126,1.7295,0.4635,-1.7543,0.8021,0.4711,0.5373,
9.537561,0.2247,-1.0600,-0.0023,1.7295,0.4635,-1.7543,0.8021,0.4711,0.5373,
9.538317,0.1993,-1.0618,-0.0900,1.7295,0.4635,-1.7543,0.8021,0.4711,0.5373,
9.552330,0.1993,-1.0618,-0.0900,2.6139,-0.5215,-1.9168,0.8021,0.4711,0.5373,
9.554290,0.1993,-1.0618,-0.0900,2.6139,-0.5215,-1.9168,0.8650,0.6075,0.3924,
9.591334,0.1993,-1.0618,-0.0900,2.6139,-0.5215,-1.9168,0.5795,0.1760,0.1985,
9.593423,0.1993,-1.0618,-0.0900,3.1817,-2.9625,-3.3733,0.5795,0.1760,0.1985,
9.623597,0.2389,-1.1155,-0.1845,3.1817,-2.9625,-3.3733,0.5795,0.1760,0.1985,
9.625672,0.3078,-1.2672,-0.1733,3.1817,-2.9625,-3.3733,0.5795,0.1760,0.1985,
9.626774,0.2814,-1.4790,-0.1186,3.1817,-2.9625,-3.3733,0.5795,0.1760,0.1985,
9.627770,0.1976,-1.5032,-0.1240,3.1817,-2.9625,-3.3733,0.5795,0.1760,0.1985,
9.630200,0.1976,-1.5032,-0.1240,3.1817,-2.9625,-3.3733,-0.2749,-0.1904,-0.3948,
9.631603,0.1976,-1.5032,-0.1240,2.9669,-2.8881,-3.2164,-0.2749,-0.1904,-0.3948,
9.669969,0.1976,-1.5032,-0.1240,2.9669,-2.8881,-3.2164,-1.4978,0.1079,-0.6398,
9.671895,0.1976,-1.5032,-0.1240,-0.2016,-3.3161,-3.7121,-1.4978,0.1079,-0.6398,
9.710310,0.1976,-1.5032,-0.1240,-0.2016,-3.3161,-3.7121,-3.0999,-0.0615,-0.5227,
9.712713,0.1976,-1.5032,-0.1240,-0.4003,-3.2130,-2.4539,-3.0999,-0.0615,-0.5227,
9.714227,-0.0338,-1.3317,-0.2380,-0.4003,-3.2130,-2.4539,-3.0999,-0.0615,-0.5227,
9.715290,-0.2326,-1.2010,-0.4631,-0.4003,-3.2130,-2.4539,-3.0999,-0.0615,-0.5227,
9.716434,-0.2720,-1.1727,-0.4347,-0.4003,-3.2130,-2.4539,-3.0999,-0.0615,-0.5227,
9.717790,-0.2278,-1.1434,0.0229,-0.4003,-3.2130,-2.4539,-3.0999,-0.0615,-0.5227,
9.719130,-0.3111,-1.1844,0.4262,-0.4003,-3.2130,-2.4539,-3.0999,-0.0615,-0.5227,
9.750978,-0.3111,-1.1844,0.4262,-0.4003,-3.2130,-2.4539,-3.0328,0.4104,-0.6217,
9.753167,-0.3111,-1.1844,0.4262,-3.0326,-1.5455,1.4512,-3.0328,0.4104,-0.6217,
9.789425,-0.3111,-1.1844,0.4262,-3.0326,-1.5455,1.4512,-2.5215,1.0954,-0.2383,
9.792354,-0.3111,-1.1844,0.4262,-6.2957,-2.9195,3.4322,-2.5215,1.0954,-0.2383,
9.793698,-0.4850,-1.2909,0.4548,-6.2957,-2.9195,3.4322,-2.5215,1.0954,-0.2383,
9.795034,-0.6345,-1.3217,0.1269,-6.2957,-2.9195,3.4322,-2.5215,1.0954,-0.2383,
9.796293,-0.6685,-1.2645,-0.2366,-6.2957,-2.9195,3.4322,-2.5215,1.0954,-0.2383,
9.797436,-0.3907,-1.1822,-0.2664,-6.2957,-2.9195,3.4322,-2.5215,1.0954,-0.2383,
9.829550,-0.3907,-1.1822,-0.2664,-6.2957,-2.9195,3.4322,-2.7527,0.6842,0.4158,
9.832006,-0.3907,-1.1822,-0.2664,-6.1096,-3.1668,4.3930,-2.7527,0.6842,0.4158,
9.868711,-0.3907,-1.1822,-0.2664,-6.1096,-3.1668,4.3930,-2.3212,0.2027,-0.0582,
9.870963,-0.3907,-1.1822,-0.2664,-0.3526,-1.8519,2.8866,-2.3212,0.2027,-0.0582,
9.872523,0.0126,-1.1219,-0.1257,-0.3526,-1.8519,2.8866,-2.3212,0.2027,-0.0582,
9.873714,0.3657,-1.0759,0.0290,-0.3526,-1.8519,2.8866,-2.3212,0.2027,-0.0582,
9.874908,0.4700,-1.0168,-0.0951,-0.3526,-1.8519,2.8866,-2.3212,0.2027,-0.0582,
9.875915,0.2672,-1.0000,-0.2959,-0.3526,-1.8519,2.8866,-2.3212,0.2027,-0.0582,
9.908119,0.2672,-1.0000,-0.2959,-0.3526,-1.8519,2.8866,-1.9015,-0.5334,-0.8167,
9.910240,0.2672,-1.0000,-0.2959,-0.5391,-2.1617,3.5161,-1.9015,-0.5334,-0.8167,
9.948406,0.2672,-1.0000,-0.2959,1.5592,-1.1140,2.9901,-1.9015,-0.5334,-0.8167,
9.950940,0.2672,-1.0000,-0.2959,1.5592,-1.1140,2.9901,-1.6714,-1.2972,-0.6548,
9.952336,-0.1093,-0.9428,-0.3021,1.5592,-1.1140,2.9901,-1.6714,-1.2972,-0.6548,
9.954449,-0.2517,-0.7967,-0.2231,1.5592,-1.1140,2.9901,-1.6714,-1.2972,-0.6548,
9.955503,-0.3006,-0.6780,-0.0949,1.5592,-1.1140,2.9901,-1.6714,-1.2972,-0.6548,
9.956738,-0.2747,-0.5714,-0.0709,1.5592,-1.1140,2.9901,-1.6714,-1.2972,-0.6548,
9.988705,-0.2747,-0.5714,-0.0709,1.5592,-1.1140,2.9901,-1.0909,-0.4226,-0.0263,
9.991289,-0.2747,-0.5714,-0.0709,-3.0604,1.6069,4.2835,-1.0909,-0.4226,-0.0263,
10.027151,-0.2747,-0.5714,-0.0709,-3.0604,1.6069,4.2835,-0.6094,0.1771,0.1580,
10.029673,-0.2747,-0.5714,-0.0709,-0.5624,2.3247,2.0412,-0.6094,0.1771,0.1580,
10.031016,-0.1515,-0.5446,-0.2258,-0.5624,2.3247,2.0412,-0.6094,0.1771,0.1580,
10.032355,-0.0198,-0.5876,-0.3922,-0.5624,2.3247,2.0412,-0.6094,0.1771,0.1580,
10.033595,0.1028,-0.6411,-0.5068,-0.5624,2.3247,2.0412,-0.6094,0.1771,0.1580,
10.034787,0.2279,-0.7119,-0.5889,-0.5624,2.3247,2.0412,-0.6094,0.1771,0.1580,
10.066807,0.2279,-0.7119,-0.5889,-0.5624,2.3247,2.0412,-0.4070,-0.2607,-0.1402,
10.069262,0.2279,-0.7119,-0.5889,-0.5381,2.1925,2.1385,-0.4070,-0.2607,-0.1402,
10.106948,0.2279,-0.7119,-0.5889,-0.5381,2.1925,2.1385,-0.2067,-0.2991,-0.2766,
10.109486,0.2279,-0.7119,-0.5889,1.8587,1.1935,0.3751,-0.2067,-0.2991,-0.2766,
10.110761,0.2596,-0.7139,-0.5872,1.8587,1.1935,0.3751,-0.2067,-0.2991,-0.2766,
10.112099,0.1927,-0.6313,-0.5078,1.8587,1.1935,0.3751,-0.2067,-0.2991,-0.2766,
10.113368,0.1157,-0.5622,-0.4977,1.8587,1.1935,0.3751,-0.2067,-0.2991,-0.2766,
10.114455,0.0789,-0.5367,-0.5837,1.8587,1.1935,0.3751,-0.2067,-0.2991,-0.2766,
10.145667,0.0789,-0.5367,-0.5837,1.8587,1.1935,0.3751,-0.0629,-0.0594,-0.3224,
10.148702,0.0789,-0.5367,-0.5837,1.7421,1.1541,0.3890,-0.0629,-0.0594,-0.3224,
10.185509,0.0547,-0.5453,-0.7157,1.7421,1.1541,0.3890,-0.0629,-0.0594,-0.3224,
10.187653,0.0522,-0.6098,-0.8163,1.7421,1.1541,0.3890,-0.0629,-0.0594,-0.3224,
10.189127,0.0696,-0.6970,-0.8488,1.7421,1.1541,0.3890,-0.0629,-0.0594,-0.3224,
10.190366,0.0696,-0.6970,-0.8488,1.7421,1.1541,0.3890,-0.1321,-0.1041,-0.3458,
10.191651,0.0696,-0.6970,-0.8488,0.2469,2.4237,0.0610,-0.1321,-0.1041,-0.3458,
10.225253,0.0696,-0.6970,-0.8488,0.2469,2.4237,0.0610,-0.2120,-0.6357,-0.3586,
10.227189,0.0696,-0.6970,-0.8488,0.1809,0.8751,-2.1920,-0.2120,-0.6357,-0.3586,
10.266245,0.0696,-0.6970,-0.8488,0.1809,0.8751,-2.1920,-0.0235,-1.1321,-0.3863,
10.268795,0.0696,-0.6970,-0.8488,0.3296,0.8480,-2.1283,-0.0235,-1.1321,-0.3863,
10.270012,0.0960,-0.7891,-0.8574,0.3296,0.8480,-2.1283,-0.0235,-1.1321,-0.3863,
10.271381,0.1104,-0.8148,-0.8373,0.3296,0.8480,-2.1283,-0.0235,-1.1321,-0.3863,
10.272625,0.1319,-0.7593,-0.7850,0.3296,0.8480,-2.1283,-0.0235,-1.1321,-0.3863,
10.273722,0.0986,-0.7197,-0.7909,0.3296,0.8480,-2.1283,-0.0235,-1.1321,-0.3863,
10.275042,-0.0049,-0.9780,-1.1080,0.3296,0.8480,-2.1283,-0.0235,-1.1321,-0.3863,
10.304137,-0.0049,-0.9780,-1.1080,0.3296,0.8480,-2.1283,-0.3910,-1.0820,-0.6793,
10.307158,-0.0049,-0.9780,-1.1080,0.7773,0.0951,-1.6111,-0.3910,-1.0820,-0.6793,
10.343989,-0.0049,-0.9780,-1.1080,0.7773,0.0951,-1.6111,-0.5603,-1.2802,-1.0873,
10.346877,-0.0049,-0.9780,-1.1080,0.5101,-8.0563,-6.7402,-0.5603,-1.2802,-1.0873,
10.348483,-0.0453,-1.7319,-1.8556,0.5101,-8.0563,-6.7402,-0.5603,-1.2802,-1.0873,
10.349660,0.3122,-2.0734,-1.1110,0.5101,-8.0563,-6.7402,-0.5603,-1.2802,-1.0873,
10.350801,0.1091,-0.6811,-0.2639,0.5101,-8.0563,-6.7402,-0.5603,-1.2802,-1.0873,
10.352145,-0.9365,0.5372,0.4568,0.5101,-8.0563,-6.7402,-0.5603,-1.2802,-1.0873,
10.383827,-0.9365,0.5372,0.4568,0.5101,-8.0563,-6.7402,1.0567,-0.0732,-0.1637,
10.386081,-0.9365,0.5372,0.4568,0.4731,-7.6601,-6.9442,1.0567,-0.0732,-0.1637,
10.423116,-0.9365,0.5372,0.4568,0.4731,-7.6601,-6.9442,1.2634,2.5654,0.8792,
10.425282,-0.9365,0.5372,0.4568,-7.3659,6.3955,5.9311,1.2634,2.5654,0.8792,
10.426577,-1.2455,-0.4036,-0.1533,-7.3659,6.3955,5.9311,1.2634,2.5654,0.8792,
10.428040,-0.3318,-1.3674,-0.4249,-7.3659,6.3955,5.9311,1.2634,2.5654,0.8792,
10.429185,0.1096,-1.2953,-0.1257,-7.3659,6.3955,5.9311,1.2634,2.5654,0.8792,
10.430573,-0.1176,-0.9657,-0.2437,-7.3659,6.3955,5.9311,1.2634,2.5654,0.8792,
10.462434,-0.1176,-0.9657,-0.2437,-7.3659,6.3955,5.9311,1.3987,3.5359,0.9495,
10.464273,-0.1176,-0.9657,-0.2437,-2.1263,-3.2767,2.5849,1.3987,3.5359,0.9495,
10.503232,-0.1176,-0.9657,-0.2437,0.0291,-0.0542,2.6567,1.3987,3.5359,0.9495,
10.505363,-0.1176,-0.9657,-0.2437,0.0291,-0.0542,2.6567,1.5755,3.0895,0.8877,
10.506635,-0.0421,-0.8934,-0.3067,0.0291,-0.0542,2.6567,1.5755,3.0895,0.8877,
10.507756,0.1675,-0.8949,-0.1254,0.0291,-0.0542,2.6567,1.5755,3.0895,0.8877,
10.508793,0.2824,-0.9589,-0.1154,0.0291,-0.0542,2.6567,1.5755,3.0895,0.8877,
10.509932,0.2528,-1.0405,-0.2139,0.0291,-0.0542,2.6567,1.5755,3.0895,0.8877,
10.542068,0.2528,-1.0405,-0.2139,0.0291,-0.0542,2.6567,1.5457,2.9297,0.8110,
10.544032,0.2528,-1.0405,-0.2139,-0.1517,0.2372,1.9063,1.5457,2.9297,0.8110,
10.582282,0.2528,-1.0405,-0.2139,-0.1517,0.2372,1.9063,1.5116,2.5186,1.1583,
10.584649,0.2528,-1.0405,-0.2139,0.5407,-0.3464,0.8679,1.5116,2.5186,1.1583,
10.586045,0.1839,-1.0210,-0.2464,0.5407,-0.3464,0.8679,1.5116,2.5186,1.1583,
10.587196,0.1568,-0.9479,-0.1848,0.5407,-0.3464,0.8679,1.5116,2.5186,1.1583,
10.588459,0.1754,-0.9418,-0.1435,0.5407,-0.3464,0.8679,1.5116,2.5186,1.1583,
10.589587,0.2868,-1.0681,-0.2290,0.5407,-0.3464,0.8679,1.5116,2.5186,1.1583,
10.622506,0.2868,-1.0681,-0.2290,0.8110,-0.1359,0.2491,1.5116,2.5186,1.1583,
10.624630,0.2868,-1.0681,-0.2290,0.8110,-0.1359,0.2491,1.4104,1.5374,1.1786,
10.655301,0.3180,-1.0410,-0.2368,0.8110,-0.1359,0.2491,1.4104,1.5374,1.1786,
10.657765,0.3530,-0.9201,-0.2635,0.8110,-0.1359,0.2491,1.4104,1.5374,1.1786,
10.659075,0.3173,-0.8661,-0.2657,0.8110,-0.1359,0.2491,1.4104,1.5374,1.1786,
10.662032,0.3173,-0.8661,-0.2657,1.6700,-0.1370,-0.1127,1.4104,1.5374,1.1786,
10.663505,0.3173,-0.8661,-0.2657,1.6700,-0.1370,-0.1127,1.1579,0.8024,0.8931,
10.700194,0.3173,-0.8661,-0.2657,1.6700,-0.1370,-0.1127,0.9896,0.6746,0.5618,
10.702248,0.3173,-0.8661,-0.2657,2.1525,1.1878,-0.9809,0.9896,0.6746,0.5618,
10.742223,0.3173,-0.8661,-0.2657,2.1525,1.1878,-0.9809,0.9523,0.4168,0.3146,
10.743761,0.3173,-0.8661,-0.2657,2.2169,1.2244,-1.3438,0.9523,0.4168,0.3146,
10.744638,0.2152,-0.8785,-0.2261,2.2169,1.2244,-1.3438,0.9523,0.4168,0.3146,
10.745302,0.1910,-0.9159,-0.1931,2.2169,1.2244,-1.3438,0.9523,0.4168,0.3146,
10.745893,0.1663,-0.9355,-0.1811,2.2169,1.2244,-1.3438,0.9523,0.4168,0.3146,
10.746476,0.1641,-0.9552,-0.1902,2.2169,1.2244,-1.3438,0.9523,0.4168,0.3146,
10.747223,0.1487,-0.9482,-0.1841,2.2169,1.2244,-1.3438,0.9523,0.4168,0.3146,
10.779072,0.1487,-0.9482,-0.1841,2.2169,1.2244,-1.3438,0.8511,0.3827,0.1825,
10.780219,0.1487,-0.9482,-0.1841,1.0672,0.7842,-1.0481,0.8511,0.3827,0.1825,
10.818546,0.1487,-0.9482,-0.1841,1.0672,0.7842,-1.0481,0.6210,0.2187,0.1389,
10.820706,0.1487,-0.9482,-0.1841,0.5208,0.8056,-1.7407,0.6210,0.2187,0.1389,
10.821706,0.0982,-0.9289,-0.2300,0.5208,0.8056,-1.7407,0.6210,0.2187,0.1389,
10.822464,0.0950,-0.9249,-0.2947,0.5208,0.8056,-1.7407,0.6210,0.2187,0.1389,
10.823262,0.1179,-0.9355,-0.2207,0.5208,0.8056,-1.7407,0.6210,0.2187,0.1389,
10.823839,0.1231,-0.9384,-0.1442,0.5208,0.8056,-1.7407,0.6210,0.2187,0.1389,
10.858178,0.1231,-0.9384,-0.1442,0.5208,0.8056,-1.7407,0.5379,0.1143,0.1101,
10.859354,0.1231,-0.9384,-0.1442,0.5527,0.8044,-1.9231,0.5379,0.1143,0.1101,
10.898343,0.1231,-0.9384,-0.1442,0.5527,0.8044,-1.9231,0.6125,0.1334,0.1953,
10.899890,0.1231,-0.9384,-0.1442,0.6014,0.8062,-1.4691,0.6125,0.1334,0.1953,
10.901967,0.0957,-0.9267,-0.1376,0.6014,0.8062,-1.4691,0.6125,0.1334,0.1953,
10.903445,0.0444,-0.9196,-0.1259,0.6014,0.8062,-1.4691,0.6125,0.1334,0.1953,
10.904347,0.0175,-0.9091,-0.1027,0.6014,0.8062,-1.4691,0.6125,0.1334,0.1953,
10.905616,0.0390,-0.8988,-0.0734,0.6014,0.8062,-1.4691,0.6125,0.1334,0.1953,
10.938123,0.0390,-0.8988,-0.0734,-0.0118,1.0349,-1.0620,0.6125,0.1334,0.1953,
10.940222,0.0390,-0.8988,-0.0734,-0.0118,1.0349,-1.0620,0.6743,0.0003,0.3977,
10.976952,0.0390,-0.8988,-0.0734,-0.0118,1.0349,-1.0620,0.7829,0.1366,0.4190,
10.978880,0.0390,-0.8988,-0.0734,0.7635,0.7504,-0.5730,0.7829,0.1366,0.4190,
10.979765,0.0703,-0.9271,-0.0397,0.7635,0.7504,-0.5730,0.7829,0.1366,0.4190,
10.980528,0.0972,-0.9450,-0.0113,0.7635,0.7504,-0.5730,0.7829,0.1366,0.4190,
10.981373,0.1238,-0.9377,-0.0094,0.7635,0.7504,-0.5730,0.7829,0.1366,0.4190,
10.981932,0.1233,-0.9347,-0.0441,0.7635,0.7504,-0.5730,0.7829,0.1366,0.4190,
11.016485,0.1233,-0.9347,-0.0441,0.7635,0.7504,-0.5730,0.8266,0.1771,0.2124,
11.017898,0.1233,-0.9347,-0.0441,0.8367,0.7217,-0.8840,0.8266,0.1771,0.2124,
11.055348,0.0393,-0.9577,-0.0267,0.8367,0.7217,-0.8840,0.8266,0.1771,0.2124,
11.057621,-0.1576,-0.9811,0.0375,0.8367,0.7217,-0.8840,0.8266,0.1771,0.2124,
11.059023,-0.2392,-0.9953,0.0070,0.8367,0.7217,-0.8840,0.8266,0.1771,0.2124,
11.060309,-0.2392,-0.9953,0.0070,0.8367,0.7217,-0.8840,0.7915,0.4434,0.1964,
11.061588,-0.2392,-0.9953,0.0070,-0.0065,0.4794,-1.0882,0.7915,0.4434,0.1964,
11.096173,-0.2392,-0.9953,0.0070,-0.0065,0.4794,-1.0882,0.7425,0.2506,0.6523,
11.097698,-0.2392,-0.9953,0.0070,-0.4454,-1.0016,-0.7491,0.7425,0.2506,0.6523,
11.135708,-0.2392,-0.9953,0.0070,-0.4454,-1.0016,-0.7491,0.5401,-0.3736,0.3263,
11.137211,-0.2392,-0.9953,0.0070,-0.3333,-1.0175,-0.9484,0.5401,-0.3736,0.3263,
11.138253,-0.1034,-1.0837,0.0065,-0.3333,-1.0175,-0.9484,0.5401,-0.3736,0.3263,
11.139129,0.1297,-1.2421,0.1416,-0.3333,-1.0175,-0.9484,0.5401,-0.3736,0.3263,
11.139987,0.2921,-1.4255,0.0612,-0.3333,-1.0175,-0.9484,0.5401,-0.3736,0.3263,
11.140762,0.3669,-1.5152,-0.1174,-0.3333,-1.0175,-0.9484,0.5401,-0.3736,0.3263,
11.141610,0.2523,-1.4429,-0.2332,-0.3333,-1.0175,-0.9484,0.5401,-0.3736,0.3263,
11.175898,0.2523,-1.4429,-0.2332,-0.3333,-1.0175,-0.9484,-0.3793,-0.6282,-0.1466,
11.177806,0.2523,-1.4429,-0.2332,3.1930,-4.3913,-2.2226,-0.3793,-0.6282,-0.1466,
11.215466,0.2523,-1.4429,-0.2332,3.1930,-4.3913,-2.2226,-1.7780,-0.6101,-0.0305,
11.217408,0.2523,-1.4429,-0.2332,-0.0100,-1.6245,-3.8776,-1.7780,-0.6101,-0.0305,
11.218815,0.0520,-1.2892,-0.3187,-0.0100,-1.6245,-3.8776,-1.7780,-0.6101,-0.0305,
11.219899,-0.0523,-1.1798,-0.3880,-0.0100,-1.6245,-3.8776,-1.7780,-0.6101,-0.0305,
11.220984,-0.0580,-1.0962,-0.3226,-0.0100,-1.6245,-3.8776,-1.7780,-0.6101,-0.0305,
11.222168,-0.0577,-1.0407,-0.0751,-0.0100,-1.6245,-3.8776,-1.7780,-0.6101,-0.0305,
11.256991,-0.0577,-1.0407,-0.0751,-0.0100,-1.6245,-3.8776,-2.6461,-0.3800,-0.0497,
11.258774,-0.0577,-1.0407,-0.0751,-0.0303,-1.5980,-2.7816,-2.6461,-0.3800,-0.0497,
11.294424,-0.0577,-1.0407,-0.0751,-0.0303,-1.5980,-2.7816,-2.6408,-0.0093,-0.1956,
11.296414,-0.0577,-1.0407,-0.0751,-1.3138,-0.5392,1.6811,-2.6408,-0.0093,-0.1956,
11.297920,-0.1422,-1.0478,0.0803,-1.3138,-0.5392,1.6811,-2.6408,-0.0093,-0.1956,
11.299036,-0.2341,-1.1201,0.0199,-1.3138,-0.5392,1.6811,-2.6408,-0.0093,-0.1956,
11.300128,-0.2485,-1.2042,-0.0580,-1.3138,-0.5392,1.6811,-2.6408,-0.0093,-0.1956,
11.301249,-0.1623,-1.2022,-0.0226,-1.3138,-0.5392,1.6811,-2.6408,-0.0093,-0.1956,
11.333877,-0.1623,-1.2022,-0.0226,-1.3138,-0.5392,1.6811,-2.5950,0.2368,-0.1062,
11.335855,-0.1623,-1.2022,-0.0226,-1.3530,-0.7431,2.6494,-2.5950,0.2368,-0.1062,
11.374576,-0.0260,-1.1502,0.0050,-1.3530,-0.7431,2.6494,-2.5950,0.2368,-0.1062,
11.376634,0.1470,-1.1111,-0.1044,-1.3530,-0.7431,2.6494,-2.5950,0.2368,-0.1062,
11.377609,0.2455,-1.1038,-0.3226,-1.3530,-0.7431,2.6494,-2.5950,0.2368,-0.1062,
11.378639,0.2455,-1.1038,-0.3226,-1.3530,-0.7431,2.6494,-2.4853,-0.1329,-0.3022,
11.379869,0.2455,-1.1038,-0.3226,-1.4350,-2.1426,3.2110,-2.4853,-0.1329,-0.3022,
11.415476,0.2455,-1.1038,-0.3226,1.7443,-1.7813,1.8820,-2.4853,-0.1329,-0.3022,
11.417450,0.2455,-1.1038,-0.3226,1.7443,-1.7813,1.8820,-2.5769,-0.9169,-0.7251,
11.453302,0.2455,-1.1038,-0.3226,1.7443,-1.7813,1.8820,-2.4821,-1.4197,-0.8529,
11.455583,0.2455,-1.1038,-0.3226,1.6890,-2.2241,2.7189,-2.4821,-1.4197,-0.8529,
11.457218,0.1900,-1.1167,-0.3365,1.6890,-2.2241,2.7189,-2.4821,-1.4197,-0.8529,
11.458528,0.0275,-1.0786,-0.2534,1.6890,-2.2241,2.7189,-2.4821,-1.4197,-0.8529,
11.459507,-0.0267,-1.0197,-0.2427,1.6890,-2.2241,2.7189,-2.4821,-1.4197,-0.8529,
11.460480,0.0515,-1.0354,-0.2175,1.6890,-2.2241,2.7189,-2.4821,-1.4197,-0.8529,
11.461636,0.0461,-1.0762,-0.2307,1.6890,-2.2241,2.7189,-2.4821,-1.4197,-0.8529,
11.492594,0.0461,-1.0762,-0.2307,1.6890,-2.2241,2.7189,-2.3820,-1.5742,-1.0489,
11.494759,0.0461,-1.0762,-0.2307,-0.0396,-2.0816,3.6259,-2.3820,-1.5742,-1.0489,
11.531923,0.0461,-1.0762,-0.2307,-0.0396,-2.0816,3.6259,-1.7939,-1.2749,-1.0297,
11.533410,0.0461,-1.0762,-0.2307,-0.2698,-2.0917,4.2449,-1.7939,-1.2749,-1.0297,
11.534218,0.0210,-1.0483,-0.2288,-0.2698,-2.0917,4.2449,-1.7939,-1.2749,-1.0297,
11.535016,-0.0843,-0.8846,-0.2185,-0.2698,-2.0917,4.2449,-1.7939,-1.2749,-1.0297,
11.535746,-0.2033,-0.6877,-0.2691,-0.2698,-2.0917,4.2449,-1.7939,-1.2749,-1.0297,
11.536475,-0.1686,-0.5961,-0.3678,-0.2698,-2.0917,4.2449,-1.7939,-1.2749,-1.0297,
11.571445,-0.1686,-0.5961,-0.3678,-0.2698,-2.0917,4.2449,-1.0163,-1.1342,-0.6111,
11.572903,-0.1686,-0.5961,-0.3678,-0.1531,-2.3231,4.4828,-1.0163,-1.1342,-0.6111,
11.611686,-0.1686,-0.5961,-0.3678,-0.1531,-2.3231,4.4828,-0.5199,-1.2951,-0.4385,
11.613189,-0.1686,-0.5961,-0.3678,-1.1999,1.2894,3.3648,-0.5199,-1.2951,-0.4385,
11.615002,-0.0391,-0.5700,-0.4127,-1.1999,1.2894,3.3648,-0.5199,-1.2951,-0.4385,
11.615969,0.0605,-0.5661,-0.3832,-1.1999,1.2894,3.3648,-0.5199,-1.2951,-0.4385,
11.616697,0.0564,-0.5228,-0.3653,-1.1999,1.2894,3.3648,-0.5199,-1.2951,-0.4385,
11.617616,-0.0316,-0.4732,-0.4159,-1.1999,1.2894,3.3648,-0.5199,-1.2951,-0.4385,
11.650517,-0.0316,-0.4732,-0.4159,-1.1999,1.2894,3.3648,-0.0757,-0.9680,-0.3629,
11.653857,-0.0316,-0.4732,-0.4159,0.5680,2.1880,2.9531,-0.0757,-0.9680,-0.3629,
11.690684,-0.0316,-0.4732,-0.4159,0.5680,2.1880,2.9531,0.2876,-0.7667,-0.2148,
11.693251,-0.0931,-0.4652,-0.4872,0.5680,2.1880,2.9531,0.2876,-0.7667,-0.2148,
11.694163,-0.0970,-0.4828,-0.5610,0.5680,2.1880,2.9531,0.2876,-0.7667,-0.2148,
11.694821,-0.0687,-0.4940,-0.6592,0.5680,2.1880,2.9531,0.2876,-0.7667,-0.2148,
11.695434,-0.0509,-0.5429,-0.6788,0.5680,2.1880,2.9531,0.2876,-0.7667,-0.2148,
11.696052,-0.0509,-0.5429,-0.6788,-0.4077,2.6158,1.0666,0.2876,-0.7667,-0.2148,
11.729376,-0.0509,-0.5429,-0.6788,-0.4077,2.6158,1.0666,0.3526,-0.6698,-0.1200,
11.730830,-0.0509,-0.5429,-0.6788,-0.2633,2.6650,0.9342,0.3526,-0.6698,-0.1200,
11.769413,-0.0509,-0.5429,-0.6788,-0.2633,2.6650,0.9342,0.2247,-0.3939,-0.1978,
11.770349,-0.0509,-0.5429,-0.6788,0.2589,1.0811,-0.4269,0.2247,-0.3939,-0.1978,
11.771024,-0.0372,-0.6447,-0.6827,0.2589,1.0811,-0.4269,0.2247,-0.3939,-0.1978,
11.771562,-0.0228,-0.7527,-0.7418,0.2589,1.0811,-0.4269,0.2247,-0.3939,-0.1978,
11.772055,0.0009,-0.8133,-0.7907,0.2589,1.0811,-0.4269,0.2247,-0.3939,-0.1978,
11.772534,0.0586,-0.7681,-0.7494,0.2589,1.0811,-0.4269,0.2247,-0.3939,-0.1978,
11.809251,0.0586,-0.7681,-0.7494,0.2589,1.0811,-0.4269,0.2322,-0.4013,-0.4588,
11.810575,0.0586,-0.7681,-0.7494,0.2214,1.1319,-0.4967,0.2322,-0.4013,-0.4588,
11.849391,0.0786,-0.6499,-0.6326,0.2214,1.1319,-0.4967,0.2322,-0.4013,-0.4588,
11.851312,0.0337,-0.5399,-0.5280,0.2214,1.1319,-0.4967,0.2322,-0.4013,-0.4588,
11.852656,-0.0018,-0.6335,-0.6773,0.2214,1.1319,-0.4967,0.2322,-0.4013,-0.4588,
11.853875,-0.0018,-0.6335,-0.6773,0.2214,1.1319,-0.4967,0.5028,-0.3587,-0.6942,
11.854897,-0.0018,-0.6335,-0.6773,0.9017,0.3159,-0.8664,0.5028,-0.3587,-0.6942,
11.888583,-0.0018,-0.6335,-0.6773,0.9017,0.3159,-0.8664,-0.2301,-0.1808,-0.8966,
11.890056,-0.0018,-0.6335,-0.6773,0.4571,0.0232,-1.8946,-0.2301,-0.1808,-0.8966,
11.928152,-0.0018,-0.6335,-0.6773,0.4571,0.0232,-1.8946,-0.4528,-0.7060,-0.5525,
11.929584,-0.0018,-0.6335,-0.6773,0.4637,-0.0857,-1.7362,-0.4528,-0.7060,-0.5525,
11.930403,0.0415,-1.1336,-1.3123,0.4637,-0.0857,-1.7362,-0.4528,-0.7060,-0.5525,
11.931117,0.0124,-1.8267,-1.4596,0.4637,-0.0857,-1.7362,-0.4528,-0.7060,-0.5525,
11.932440,-0.1061,-1.5306,-0.7381,0.4637,-0.0857,-1.7362,-0.4528,-0.7060,-0.5525,
11.933149,-0.3680,-0.2074,-0.2202,0.4637,-0.0857,-1.7362,-0.4528,-0.7060,-0.5525,
11.933911,-0.6443,-0.0977,-0.0499,0.4637,-0.0857,-1.7362,-0.4528,-0.7060,-0.5525,
11.967802,-0.6443,-0.0977,-0.0499,0.4637,-0.0857,-1.7362,0.5944,-0.1893,0.0664,
11.969185,-0.6443,-0.0977,-0.0499,-1.1953,-3.9769,-1.5631,0.5944,-0.1893,0.0664,
12.007387,-0.6443,-0.0977,-0.0499,-1.1953,-3.9769,-1.5631,0.8927,1.2956,0.3434,
12.008896,-0.6443,-0.0977,-0.0499,-3.9363,0.8311,1.6301,0.8927,1.2956,0.3434,
12.009681,-0.6113,-0.8309,-0.5808,-3.9363,0.8311,1.6301,0.8927,1.2956,0.3434,
12.010528,-0.0008,-1.2262,-0.7203,-3.9363,0.8311,1.6301,0.8927,1.2956,0.3434,
12.011259,0.0004,-0.9907,-0.4269,-3.9363,0.8311,1.6301,0.8927,1.2956,0.3434,
12.011946,-0.2322,-0.8072,-0.5305,-3.9363,0.8311,1.6301,0.8927,1.2956,0.3434,
12.049794,-0.2322,-0.8072,-0.5305,-3.9363,0.8311,1.6301,1.2090,1.7473,0.4425,
12.051654,-0.2322,-0.8072,-0.5305,-4.1311,1.0924,1.2280,1.2090,1.7473,0.4425,
12.087076,-0.0687,-0.8297,-0.4572,-4.1311,1.0924,1.2280,1.2090,1.7473,0.4425,
12.089246,0.1287,-0.8521,-0.3819,-4.1311,1.0924,1.2280,1.2090,1.7473,0.4425,
12.090492,0.1903,-0.8868,-0.3868,-4.1311,1.0924,1.2280,1.2090,1.7473,0.4425,
12.092064,0.1903,-0.8868,-0.3868,-4.1311,1.0924,1.2280,1.4881,1.9422,0.4851,
12.093227,0.1903,-0.8868,-0.3868,-1.2433,-0.1284,0.5103,1.4881,1.9422,0.4851,
12.127701,0.1903,-0.8868,-0.3868,-1.2433,-0.1284,0.5103,1.5095,1.7430,0.3168,
12.129942,0.1903,-0.8868,-0.3868,1.1668,0.0952,0.5636,1.5095,1.7430,0.3168,
12.167027,0.1903,-0.8868,-0.3868,1.1668,0.0952,0.5636,1.4828,1.4703,0.2997,
12.169229,0.1903,-0.8868,-0.3868,1.0041,0.3491,0.0076,1.4828,1.4703,0.2997,
12.170647,0.1944,-0.9100,-0.4611,1.0041,0.3491,0.0076,1.4828,1.4703,0.2997,
12.172030,0.2015,-0.8932,-0.4201,1.0041,0.3491,0.0076,1.4828,1.4703,0.2997,
12.173269,0.2125,-0.8761,-0.3536,1.0041,0.3491,0.0076,1.4828,1.4703,0.2997,
12.174356,0.1976,-0.8988,-0.3619,1.0041,0.3491,0.0076,1.4828,1.4703,0.2997,
12.175243,0.1446,-0.9203,-0.3648,1.0041,0.3491,0.0076,1.4828,1.4703,0.2997,
12.206037,0.1446,-0.9203,-0.3648,1.0041,0.3491,0.0076,1.3965,1.2360,0.5405,
12.208154,0.1446,-0.9203,-0.3648,1.3138,0.5009,-0.2186,1.3965,1.2360,0.5405,
12.242420,0.1270,-0.9213,-0.3272,1.3138,0.5009,-0.2186,1.3965,1.2360,0.5405,
12.244422,0.1595,-0.9511,-0.3411,1.3138,0.5009,-0.2186,1.3965,1.2360,0.5405,
12.245759,0.2308,-1.0058,-0.3529,1.3138,0.5009,-0.2186,1.3965,1.2360,0.5405,
12.247361,0.2308,-1.0058,-0.3529,0.8860,0.2619,-0.3382,1.3965,1.2360,0.5405,
12.248811,0.2308,-1.0058,-0.3529,0.8860,0.2619,-0.3382,1.2101,0.5521,0.6758,
12.284937,0.2308,-1.0058,-0.3529,0.8860,0.2619,-0.3382,1.0844,-0.2405,0.3263,
12.286379,0.2308,-1.0058,-0.3529,1.8589,-0.0774,-0.3979,1.0844,-0.2405,0.3263,
12.325350,0.2308,-1.0058,-0.3529,1.8589,-0.0774,-0.3979,1.1185,-0.4546,0.1420,
12.327329,0.2308,-1.0058,-0.3529,1.9236,0.0319,-0.8021,1.1185,-0.4546,0.1420,
12.328573,0.2560,-1.0048,-0.3199,1.9236,0.0319,-0.8021,1.1185,-0.4546,0.1420,
12.329800,0.2064,-0.9254,-0.2576,1.9236,0.0319,-0.8021,1.1185,-0.4546,0.1420,
12.331027,0.1570,-0.9054,-0.2385,1.9236,0.0319,-0.8021,1.1185,-0.4546,0.1420,
12.332078,0.0720,-0.9411,-0.2341,1.9236,0.0319,-0.8021,1.1185,-0.4546,0.1420,
12.333056,0.0085,-0.9516,-0.2253,1.9236,0.0319,-0.8021,1.1185,-0.4546,0.1420,
12.364469,0.0085,-0.9516,-0.2253,1.9236,0.0319,-0.8021,1.1047,-0.4375,0.0813,
12.366426,0.0085,-0.9516,-0.2253,0.4931,0.5630,-0.4532,1.1047,-0.4375,0.0813,
12.403729,0.0085,-0.9516,-0.2253,0.4931,0.5630,-0.4532,1.0514,-0.3076,-0.0007,
12.405294,0.0085,-0.9516,-0.2253,-0.3645,0.5668,-0.8844,1.0514,-0.3076,-0.0007,
12.406208,0.0034,-0.9425,-0.2371,-0.3645,0.5668,-0.8844,1.0514,-0.3076,-0.0007,
12.406956,-0.0155,-0.9394,-0.2339,-0.3645,0.5668,-0.8844,1.0514,-0.3076,-0.0007,
12.407787,-0.0208,-0.9328,-0.2405,-0.3645,0.5668,-0.8844,1.0514,-0.3076,-0.0007,
12.408653,-0.0301,-0.9276,-0.1777,-0.3645,0.5668,-0.8844,1.0514,-0.3076,-0.0007,
12.442988,-0.0301,-0.9276,-0.1777,-0.3645,0.5668,-0.8844,0.9864,-0.1041,0.1016,
12.444056,-0.0301,-0.9276,-0.1777,-0.3143,0.6063,-1.2451,0.9864,-0.1041,0.1016,
12.468713,-0.0562,-0.9391,-0.1506,-0.3143,0.6063,-1.2451,0.9864,-0.1041,0.1016,
12.470178,-0.0467,-0.9460,-0.2173,-0.3143,0.6063,-1.2451,0.9864,-0.1041,0.1016,
12.470777,-0.0096,-0.9245,-0.2053,-0.3143,0.6063,-1.2451,0.9864,-0.1041,0.1016,
12.483787,-0.0096,-0.9245,-0.2053,-0.3143,0.6063,-1.2451,0.9864,-0.1478,0.3690,
12.484704,-0.0096,-0.9245,-0.2053,-0.4846,0.6385,-1.0680,0.9864,-0.1478,0.3690,
12.522340,-0.0096,-0.9245,-0.2053,-0.4846,0.6385,-1.0680,0.9854,-0.1489,0.4861,
12.523623,-0.0096,-0.9245,-0.2053,1.1310,0.9555,-1.1026,0.9854,-0.1489,0.4861,
12.556694,0.0979,-0.9039,-0.1516,1.1310,0.9555,-1.1026,0.9854,-0.1489,0.4861,
12.558028,0.2201,-0.8883,-0.0873,1.1310,0.9555,-1.1026,0.9854,-0.1489,0.4861,
12.558787,0.1722,-0.8856,0.0434,1.1310,0.9555,-1.1026,0.9854,-0.1489,0.4861,
12.559440,0.1047,-0.9071,0.0268,1.1310,0.9555,-1.1026,0.9854,-0.1489,0.4861,
12.561874,0.1047,-0.9071,0.0268,1.1310,0.9555,-1.1026,1.0919,-0.1489,0.3817,
12.562679,0.1047,-0.9071,0.0268,1.2591,0.9423,-1.5033,1.0919,-0.1489,0.3817,
12.602350,0.1047,-0.9071,0.0268,1.2591,0.9423,-1.5033,1.3305,-0.1712,0.4499,
12.604067,0.1047,-0.9071,0.0268,1.5265,0.8425,-0.6017,1.3305,-0.1712,0.4499,
12.641492,0.1047,-0.9071,0.0268,1.5265,0.8425,-0.6017,1.2399,0.3113,0.5522,
12.643125,0.1047,-0.9071,0.0268,1.7216,0.7789,-1.0569,1.2399,0.3113,0.5522,
12.643854,0.0683,-0.9433,-0.0824,1.7216,0.7789,-1.0569,1.2399,0.3113,0.5522,
12.644744,0.0175,-0.9941,-0.0978,1.7216,0.7789,-1.0569,1.2399,0.3113,0.5522,
12.645545,-0.0299,-0.9677,-0.0477,1.7216,0.7789,-1.0569,1.2399,0.3113,0.5522,
12.646432,-0.0802,-0.8661,0.0998,1.7216,0.7789,-1.0569,1.2399,0.3113,0.5522,
12.647117,-0.1036,-0.8219,0.1560,1.7216,0.7789,-1.0569,1.2399,0.3113,0.5522,
12.681387,-0.1036,-0.8219,0.1560,1.7216,0.7789,-1.0569,1.0716,0.3380,0.6566,
12.683141,-0.1036,-0.8219,0.1560,0.5503,0.4013,-1.5414,1.0716,0.3380,0.6566,
12.721689,-0.0020,-0.9218,-0.0118,0.5503,0.4013,-1.5414,1.0716,0.3380,0.6566,
12.723734,0.0698,-1.0149,-0.0008,0.5503,0.4013,-1.5414,1.0716,0.3380,0.6566,
12.724921,0.0075,-1.0420,0.0600,0.5503,0.4013,-1.5414,1.0716,0.3380,0.6566,
12.725773,0.0075,-1.0420,0.0600,0.5503,0.4013,-1.5414,0.7158,0.2314,0.7120,
12.726740,0.0075,-1.0420,0.0600,1.0035,0.5474,-1.1675,0.7158,0.2314,0.7120,
12.761294,0.0075,-1.0420,0.0600,1.0035,0.5474,-1.1675,0.3792,0.2133,0.6694,
12.763496,0.0075,-1.0420,0.0600,1.8945,0.1264,-1.1379,0.3792,0.2133,0.6694,
12.800122,0.0075,-1.0420,0.0600,1.8945,0.1264,-1.1379,0.0096,0.2549,0.6395,
12.802369,0.0075,-1.0420,0.0600,2.1164,0.0867,-1.1078,0.0096,0.2549,0.6395,
12.806072,0.0432,-0.9518,0.0874,2.1164,0.0867,-1.1078,0.0096,0.2549,0.6395,
12.807786,0.1143,-0.8749,0.0397,2.1164,0.0867,-1.1078,0.0096,0.2549,0.6395,
12.809108,0.0898,-0.8551,0.0304,2.1164,0.0867,-1.1078,0.0096,0.2549,0.6395,
12.810306,0.1201,-0.9122,0.0898,2.1164,0.0867,-1.1078,0.0096,0.2549,0.6395,
12.811583,0.1766,-1.0559,-0.1113,2.1164,0.0867,-1.1078,0.0096,0.2549,0.6395,
12.841007,0.1766,-1.0559,-0.1113,2.1164,0.0867,-1.1078,-0.6711,-0.3087,0.2624,
12.842609,0.1766,-1.0559,-0.1113,2.8706,0.2565,-1.4335,-0.6711,-0.3087,0.2624,
12.881516,0.1766,-1.0559,-0.1113,2.8706,0.2565,-1.4335,-2.0762,-0.8008,-0.3863,
12.883064,0.1412,-1.4854,-0.3167,2.8706,0.2565,-1.4335,-2.0762,-0.8008,-0.3863,
12.883805,0.0114,-1.8714,-0.4386,2.8706,0.2565,-1.4335,-2.0762,-0.8008,-0.3863,
12.884701,-0.0992,-1.4727,-0.5407,2.8706,0.2565,-1.4335,-2.0762,-0.8008,-0.3863,
12.885517,-0.1615,-0.9635,-0.2285,2.8706,0.2565,-1.4335,-2.0762,-0.8008,-0.3863,
12.886243,-0.1615,-0.9635,-0.2285,1.5744,-6.0808,-4.8781,-2.0762,-0.8008,-0.3863,
12.918474,-0.1615,-0.9635,-0.2285,1.5744,-6.0808,-4.8781,-3.0818,-1.2056,-0.5344,
12.920579,-0.1615,-0.9635,-0.2285,1.3417,-5.9427,-3.6889,-3.0818,-1.2056,-0.5344,
12.958060,-0.1615,-0.9635,-0.2285,1.3417,-5.9427,-3.6889,-2.9647,-0.0242,-0.8369,
12.959416,-0.1615,-0.9635,-0.2285,-0.5518,-1.3183,1.3737,-2.9647,-0.0242,-0.8369,
12.960283,-0.1405,-1.0637,0.0114,-0.5518,-1.3183,1.3737,-2.9647,-0.0242,-0.8369,
12.960896,-0.1266,-1.3635,0.1262,-0.5518,-1.3183,1.3737,-2.9647,-0.0242,-0.8369,
12.961679,-0.2927,-1.6244,0.1074,-0.5518,-1.3183,1.3737,-2.9647,-0.0242,-0.8369,
12.962357,-0.4674,-1.5816,0.0519,-0.5518,-1.3183,1.3737,-2.9647,-0.0242,-0.8369,
12.997471,-0.4674,-1.5816,0.0519,-0.5518,-1.3183,1.3737,-2.3841,1.2796,-0.9722,
12.998844,-0.4674,-1.5816,0.0519,-1.0206,-1.4720,2.2784,-2.3841,1.2796,-0.9722,
13.037598,-0.4674,-1.5816,0.0519,-1.0206,-1.4720,2.2784,-2.1721,1.0410,-0.9584,
13.041043,-0.4674,-1.5816,0.0519,-3.9419,-5.1506,3.4633,-2.1721,1.0410,-0.9584,
13.042527,-0.4354,-1.2604,-0.1213,-3.9419,-5.1506,3.4633,-2.1721,1.0410,-0.9584,
13.043531,-0.3135,-1.0210,-0.2473,-3.9419,-5.1506,3.4633,-2.1721,1.0410,-0.9584,
13.044176,-0.2053,-0.9047,-0.1183,-3.9419,-5.1506,3.4633,-2.1721,1.0410,-0.9584,
13.044919,-0.0025,-0.8387,0.0730,-3.9419,-5.1506,3.4633,-2.1721,1.0410,-0.9584,
13.077096,-0.0025,-0.8387,0.0730,-3.9419,-5.1506,3.4633,-1.7343,-0.3023,-1.0553,
13.078300,-0.0025,-0.8387,0.0730,-2.0468,0.1462,2.9763,-1.7343,-0.3023,-1.0553,
13.118137,-0.0025,-0.8387,0.0730,-2.0468,0.1462,2.9763,-1.3412,-1.3611,-1.4473,
13.119967,-0.0025,-0.8387,0.0730,1.5282,0.9696,3.1203,-1.3412,-1.3611,-1.4473,
13.120916,0.1839,-0.7845,0.0314,1.5282,0.9696,3.1203,-1.3412,-1.3611,-1.4473,
13.121897,0.2921,-0.7769,-0.1938,1.5282,0.9696,3.1203,-1.3412,-1.3611,-1.4473,
13.122720,0.1939,-0.8690,-0.2258,1.5282,0.9696,3.1203,-1.3412,-1.3611,-1.4473,
13.123511,-0.0536,-0.8702,-0.0929,1.5282,0.9696,3.1203,-1.3412,-1.3611,-1.4473,
13.156428,-0.0536,-0.8702,-0.0929,1.5282,0.9696,3.1203,-1.0546,-1.7702,-1.6103,
13.157789,-0.0536,-0.8702,-0.0929,1.2698,0.7151,3.4841,-1.0546,-1.7702,-1.6103,
13.197589,-0.0536,-0.8702,-0.0929,1.2698,0.7151,3.4841,-0.1353,-1.3633,-0.8934,
13.198914,-0.0536,-0.8702,-0.0929,-2.9901,1.1746,4.2537,-0.1353,-1.3633,-0.8934,
13.199735,-0.2449,-0.7674,-0.0470,-2.9901,1.1746,4.2537,-0.1353,-1.3633,-0.8934,
13.200417,-0.3377,-0.6279,-0.0206,-2.9901,1.1746,4.2537,-0.1353,-1.3633,-0.8934,
13.201332,-0.3355,-0.4999,-0.0360,-2.9901,1.1746,4.2537,-0.1353,-1.3633,-0.8934,
13.202432,-0.3716,-0.4644,-0.0878,-2.9901,1.1746,4.2537,-0.1353,-1.3633,-0.8934,
13.236116,-0.3716,-0.4644,-0.0878,-2.9901,1.1746,4.2537,0.8458,-0.5835,0.0462,
13.238119,-0.3716,-0.4644,-0.0878,-2.8174,1.3093,3.9177,0.8458,-0.5835,0.0462,
13.276655,-0.3382,-0.5326,-0.1772,-2.8174,1.3093,3.9177,0.8458,-0.5835,0.0462,
13.278651,-0.1366,-0.5658,-0.2832,-2.8174,1.3093,3.9177,0.8458,-0.5835,0.0462,
13.280106,0.0385,-0.6100,-0.3910,-2.8174,1.3093,3.9177,0.8458,-0.5835,0.0462,
13.280947,0.0385,-0.6100,-0.3910,-2.8174,1.3093,3.9177,1.5435,-0.7976,0.5831,
13.282320,0.0385,-0.6100,-0.3910,-3.7533,4.0209,2.8869,1.5435,-0.7976,0.5831,
13.314460,0.0385,-0.6100,-0.3910,-3.7533,4.0209,2.8869,1.8471,-0.9617,0.6768,
13.316699,0.0385,-0.6100,-0.3910,0.3925,2.9533,-0.8876,1.8471,-0.9617,0.6768,
13.354289,0.0385,-0.6100,-0.3910,0.3925,2.9533,-0.8876,0.8714,-0.8136,0.0867,
13.359654,0.0385,-0.6100,-0.3910,0.5133,3.0082,-1.1882,0.8714,-0.8136,0.0867,
13.360492,0.2083,-0.7131,-0.5859,0.5133,3.0082,-1.1882,0.8714,-0.8136,0.0867,
13.361405,0.3100,-0.9416,-0.9768,0.5133,3.0082,-1.1882,0.8714,-0.8136,0.0867,
13.362113,0.3930,-1.1930,-1.0758,0.5133,3.0082,-1.1882,0.8714,-0.8136,0.0867,
13.362851,0.4675,-1.1954,-0.9971,0.5133,3.0082,-1.1882,0.8714,-0.8136,0.0867,
13.363581,0.2609,-0.9377,-0.8476,0.5133,3.0082,-1.1882,0.8714,-0.8136,0.0867,
13.394746,0.2609,-0.9377,-0.8476,0.5133,3.0082,-1.1882,-0.1822,-0.0988,-0.7155,
13.396216,0.2609,-0.9377,-0.8476,3.6660,-1.6905,-6.8526,-0.1822,-0.0988,-0.7155,
13.434165,0.2609,-0.9377,-0.8476,3.6660,-1.6905,-6.8526,-0.0245,0.3838,-0.9562,
13.436057,0.2609,-0.9377,-0.8476,-0.5449,1.3900,-3.0697,-0.0245,0.3838,-0.9562,
13.437015,-0.1173,-0.7385,-0.5542,-0.5449,1.3900,-3.0697,-0.0245,0.3838,-0.9562,
13.437935,-0.1440,-0.6985,-0.5068,-0.5449,1.3900,-3.0697,-0.0245,0.3838,-0.9562,
13.438742,0.1258,-0.8370,0.1714,-0.5449,1.3900,-3.0697,-0.0245,0.3838,-0.9562,
13.439551,-0.1655,-1.0400,1.1777,-0.5449,1.3900,-3.0697,-0.0245,0.3838,-0.9562,
13.473624,-0.1655,-1.0400,1.1777,-0.5449,1.3900,-3.0697,1.1132,1.1731,-0.6878,
13.475032,-0.1655,-1.0400,1.1777,-0.9175,1.4752,-3.4527,1.1132,1.1731,-0.6878,
13.513145,-0.1655,-1.0400,1.1777,-0.9175,1.4752,-3.4527,-0.8757,0.4924,1.1892,
13.514417,-0.1655,-1.0400,1.1777,-5.3232,-4.3392,5.4115,-0.8757,0.4924,1.1892,
13.515234,-1.4529,-2.2796,-0.6089,-5.3232,-4.3392,5.4115,-0.8757,0.4924,1.1892,
13.515904,-1.6093,-3.4386,-2.0234,-5.3232,-4.3392,5.4115,-0.8757,0.4924,1.1892,
13.516569,-0.1012,-1.1307,1.3856,-5.3232,-4.3392,5.4115,-0.8757,0.4924,1.1892,
13.517168,-0.1571,-0.1906,0.6918,-5.3232,-4.3392,5.4115,-0.8757,0.4924,1.1892,
13.553025,-0.1571,-0.1906,0.6918,-5.3232,-4.3392,5.4115,0.0745,0.5233,1.3575,
13.555088,-0.1571,-0.1906,0.6918,-6.0116,-6.1836,3.0852,0.0745,0.5233,1.3575,
13.592748,-0.1571,-0.1906,0.6918,-6.0116,-6.1836,3.0852,1.1132,0.8482,0.8185,
13.594988,-0.1571,-0.1906,0.6918,3.1179,-0.1286,6.2908,1.1132,0.8482,0.8185,
13.596658,0.1424,-0.4578,0.2213,3.1179,-0.1286,6.2908,1.1132,0.8482,0.8185,
13.598336,0.3249,-0.9162,0.4453,3.1179,-0.1286,6.2908,1.1132,0.8482,0.8185,
13.599693,0.4106,-1.5675,0.5264,3.1179,-0.1286,6.2908,1.1132,0.8482,0.8185,
13.601142,0.4013,-1.6803,0.2569,3.1179,-0.1286,6.2908,1.1132,0.8482,0.8185,
13.632340,0.4013,-1.6803,0.2569,3.1179,-0.1286,6.2908,2.2072,0.8930,-0.0007,
13.634357,0.4013,-1.6803,0.2569,2.9952,0.0437,5.3713,2.2072,0.8930,-0.0007,
13.671659,0.3224,-1.2562,-0.2241,2.9952,0.0437,5.3713,2.2072,0.8930,-0.0007,
13.673599,0.1123,-0.9181,-0.6815,2.9952,0.0437,5.3713,2.2072,0.8930,-0.0007,
13.674296,-0.1005,-0.8768,-0.7828,2.9952,0.0437,5.3713,2.2072,0.8930,-0.0007,
13.675124,-0.1005,-0.8768,-0.7828,2.9952,0.0437,5.3713,1.8759,1.0101,-0.2308,
13.675788,-0.1005,-0.8768,-0.7828,2.6806,-2.8084,-1.3399,1.8759,1.0101,-0.2308,
13.711678,-0.1005,-0.8768,-0.7828,2.6806,-2.8084,-1.3399,0.2439,1.4235,0.0004,
13.713317,-0.1005,-0.8768,-0.7828,-1.5096,1.1880,-3.7307,0.2439,1.4235,0.0004,
13.750978,-0.1005,-0.8768,-0.7828,-1.5096,1.1880,-3.7307,0.4240,1.1348,0.0739,
13.752738,-0.1005,-0.8768,-0.7828,-1.4859,1.1793,-3.8331,0.4240,1.1348,0.0739,
13.753700,-0.2280,-0.8898,-0.4679,-1.4859,1.1793,-3.8331,0.4240,1.1348,0.0739,
13.754573,-0.1144,-0.8607,-0.1188,-1.4859,1.1793,-3.8331,0.4240,1.1348,0.0739,
13.755486,0.0901,-0.8316,-0.0450,-1.4859,1.1793,-3.8331,0.4240,1.1348,0.0739,
13.756266,0.1778,-0.8360,-0.0328,-1.4859,1.1793,-3.8331,0.4240,1.1348,0.0739,
13.757144,0.1793,-0.8236,-0.0470,-1.4859,1.1793,-3.8331,0.4240,1.1348,0.0739,
13.791387,0.1793,-0.8236,-0.0470,-1.4859,1.1793,-3.8331,0.9459,1.0623,-0.0263,
13.793576,0.1793,-0.8236,-0.0470,1.3681,1.6136,-0.1330,0.9459,1.0623,-0.0263,
13.829955,0.1793,-0.8236,-0.0470,1.3681,1.6136,-0.1330,0.8522,0.9729,0.1112,
13.831463,0.1793,-0.8236,-0.0470,0.6771,1.2084,-1.0038,0.8522,0.9729,0.1112,
13.832254,0.1517,-0.8084,-0.1007,0.6771,1.2084,-1.0038,0.8522,0.9729,0.1112,
13.832977,0.0657,-0.8741,-0.1117,0.6771,1.2084,-1.0038,0.8522,0.9729,0.1112,
13.833705,0.0100,-0.9276,-0.0824,0.6771,1.2084,-1.0038,0.8522,0.9729,0.1112,
13.834267,0.0674,-0.9184,-0.0587,0.6771,1.2084,-1.0038,0.8522,0.9729,0.1112,
13.869952,0.0674,-0.9184,-0.0587,0.6771,1.2084,-1.0038,0.8415,0.4605,0.3690,
13.871978,0.0674,-0.9184,-0.0587,0.8089,1.1815,-1.3066,0.8415,0.4605,0.3690,
13.910644,0.0674,-0.9184,-0.0587,0.8089,1.1815,-1.3066,1.4189,0.0024,0.2827,
13.912638,0.0674,-0.9184,-0.0587,1.4156,0.5418,-0.9147,1.4189,0.0024,0.2827,
13.913765,0.1482,-0.9130,0.0067,1.4156,0.5418,-0.9147,1.4189,0.0024,0.2827,
13.915985,0.1717,-0.9609,0.0392,1.4156,0.5418,-0.9147,1.4189,0.0024,0.2827,
13.917093,0.1304,-0.9457,-0.0558,1.4156,0.5418,-0.9147,1.4189,0.0024,0.2827,
13.918110,0.0864,-0.9122,-0.3236,1.4156,0.5418,-0.9147,1.4189,0.0024,0.2827,
13.949183,0.0864,-0.9122,-0.3236,1.4156,0.5418,-0.9147,1.7981,0.2261,0.1410,
13.951323,0.0864,-0.9122,-0.3236,1.4560,0.4466,-1.5717,1.7981,0.2261,0.1410,
13.988741,0.0864,-0.9122,-0.3236,1.4560,0.4466,-1.5717,0.5997,0.8163,0.3445,
13.990323,0.0864,-0.9122,-0.3236,1.0720,0.3162,-4.9567,0.5997,0.8163,0.3445,
13.991289,0.0019,-0.9594,-0.6287,1.0720,0.3162,-4.9567,0.5997,0.8163,0.3445,
13.991963,-0.1598,-1.0063,-0.5872,1.0720,0.3162,-4.9567,0.5997,0.8163,0.3445,
13.992607,-0.1677,-1.0537,-0.3912,1.0720,0.3162,-4.9567,0.5997,0.8163,0.3445,
13.993351,-0.0582,-1.0344,-0.3629,1.0720,0.3162,-4.9567,0.5997,0.8163,0.3445,
14.028687,-0.0582,-1.0344,-0.3629,1.0720,0.3162,-4.9567,-0.5966,0.6458,0.7365,
14.030870,-0.0582,-1.0344,-0.3629,-0.5742,-0.5581,-5.7105,-0.5966,0.6458,0.7365,
14.068703,-0.0582,-1.0344,-0.3629,-0.5742,-0.5581,-5.7105,-2.1476,-0.6048,0.1847,
14.070589,-0.0582,-1.0344,-0.3629,4.6490,-3.6483,-3.4149,-2.1476,-0.6048,0.1847,
14.071864,0.1521,-1.0495,-0.4714,4.6490,-3.6483,-3.4149,-2.1476,-0.6048,0.1847,
14.072946,0.4500,-1.3943,-0.2894,4.6490,-3.6483,-3.4149,-2.1476,-0.6048,0.1847,
14.073763,0.6200,-1.6381,-0.1401,4.6490,-3.6483,-3.4149,-2.1476,-0.6048,0.1847,
14.074638,0.5687,-1.5015,0.1326,4.6490,-3.6483,-3.4149,-2.1476,-0.6048,0.1847,
14.107206,0.5687,-1.5015,0.1326,4.6490,-3.6483,-3.4149,-2.7729,-0.7252,-0.9680,
14.109248,0.5687,-1.5015,0.1326,4.2071,-3.5754,-2.3243,-2.7729,-0.7252,-0.9680,
14.147717,0.5687,-1.5015,0.1326,4.2071,-3.5754,-2.3243,-2.5141,0.6373,-0.9158,
14.150942,0.5687,-1.5015,0.1326,0.2586,-4.8800,3.4361,-2.5141,0.6373,-0.9158,
14.152678,-0.0328,-1.3557,0.2672,0.2586,-4.8800,3.4361,-2.5141,0.6373,-0.9158,
14.153679,-0.4034,-1.6161,0.1848,0.2586,-4.8800,3.4361,-2.5141,0.6373,-0.9158,
14.155108,-0.4532,-1.8787,0.0529,0.2586,-4.8800,3.4361,-2.5141,0.6373,-0.9158,
14.156354,-0.3357,-1.6840,0.0129,0.2586,-4.8800,3.4361,-2.5141,0.6373,-0.9158,
14.187030,-0.3357,-1.6840,0.0129,0.2586,-4.8800,3.4361,-2.2435,-0.0796,-0.1328,
14.188467,-0.3357,-1.6840,0.0129,0.2120,-4.9707,4.2230,-2.2435,-0.0796,-0.1328,
14.226399,-0.3357,-1.6840,0.0129,0.2120,-4.9707,4.2230,-2.0112,-1.5444,-0.1402,
14.227810,-0.3357,-1.6840,0.0129,-2.9652,-6.3765,3.4424,-2.0112,-1.5444,-0.1402,
14.228848,-0.1022,-1.3078,0.0617,-2.9652,-6.3765,3.4424,-2.0112,-1.5444,-0.1402,
14.229662,0.0051,-1.0004,-0.1731,-2.9652,-6.3765,3.4424,-2.0112,-1.5444,-0.1402,
14.230562,0.0068,-0.8497,-0.2163,-2.9652,-6.3765,3.4424,-2.0112,-1.5444,-0.1402,
14.231444,-0.0074,-0.7769,0.0434,-2.9652,-6.3765,3.4424,-2.0112,-1.5444,-0.1402,
14.266168,-0.0074,-0.7769,0.0434,-2.9652,-6.3765,3.4424,-2.0581,-2.4030,-0.3948,
14.268112,-0.0074,-0.7769,0.0434,0.1381,0.6634,2.6147,-2.0581,-2.4030,-0.3948,
14.306916,-0.0074,-0.7769,0.0434,0.1370,2.6123,5.4689,-2.0581,-2.4030,-0.3948,
14.308999,-0.0074,-0.7769,0.0434,0.1370,2.6123,5.4689,-1.5819,-2.0727,-0.4247,
14.310091,0.0376,-0.7043,0.1724,0.1370,2.6123,5.4689,-1.5819,-2.0727,-0.4247,
14.311110,-0.0123,-0.6357,0.1274,0.1370,2.6123,5.4689,-1.5819,-2.0727,-0.4247,
14.312430,-0.0748,-0.6008,0.0866,0.1370,2.6123,5.4689,-1.5819,-2.0727,-0.4247,
14.313274,-0.0919,-0.6357,0.0837,0.1370,2.6123,5.4689,-1.5819,-2.0727,-0.4247,
14.345121,-0.0919,-0.6357,0.0837,0.1370,2.6123,5.4689,-0.8991,-1.8320,-0.3224,
14.346641,-0.0919,-0.6357,0.0837,0.3352,2.4211,5.6606,-0.8991,-1.8320,-0.3224,
14.387247,-0.0919,-0.6357,0.0837,0.3352,2.4211,5.6606,-0.1641,-2.0216,-0.2010,
14.389323,-0.0907,-0.6929,0.0864,0.3352,2.4211,5.6606,-0.1641,-2.0216,-0.2010,
14.390688,-0.0931,-0.6694,0.0480,0.3352,2.4211,5.6606,-0.1641,-2.0216,-0.2010,
14.392165,-0.0953,-0.5695,-0.0072,0.3352,2.4211,5.6606,-0.1641,-2.0216,-0.2010,
14.393872,-0.0548,-0.4999,-0.1540,0.3352,2.4211,5.6606,-0.1641,-2.0216,-0.2010,
14.395779,-0.0548,-0.4999,-0.1540,-0.1170,2.1737,5.0314,-0.1641,-2.0216,-0.2010,
14.424741,-0.0548,-0.4999,-0.1540,0.2088,2.2459,4.6459,-0.1641,-2.0216,-0.2010,
14.426305,-0.0548,-0.4999,-0.1540,0.2088,2.2459,4.6459,0.6264,-2.3721,-0.1861,
14.452750,0.0576,-0.5844,-0.3419,0.2088,2.2459,4.6459,0.6264,-2.3721,-0.1861,
14.454076,0.0930,-0.8499,-0.5068,0.2088,2.2459,4.6459,0.6264,-2.3721,-0.1861,
14.454742,0.0578,-1.0935,-0.6375,0.2088,2.2459,4.6459,0.6264,-2.3721,-0.1861,
14.463537,0.0578,-1.0935,-0.6375,0.2088,2.2459,4.6459,1.2858,-2.5319,-0.3948,
14.464818,0.0578,-1.0935,-0.6375,1.0188,3.5158,1.6855,1.2858,-2.5319,-0.3948,
14.503303,0.0578,-1.0935,-0.6375,1.0188,3.5158,1.6855,0.8991,-2.8727,-0.7432,
14.504431,0.0578,-1.0935,-0.6375,2.0735,-1.1595,-2.7337,0.8991,-2.8727,-0.7432,
14.541154,0.0642,-1.1937,-0.5798,2.0735,-1.1595,-2.7337,0.8991,-2.8727,-0.7432,
14.542488,-0.0548,-1.1040,-0.3766,2.0735,-1.1595,-2.7337,0.8991,-2.8727,-0.7432,
14.543067,-0.2251,-0.9377,-0.1599,2.0735,-1.1595,-2.7337,0.8991,-2.8727,-0.7432,
14.543594,-0.3997,-0.8700,-0.0937,2.0735,-1.1595,-2.7337,0.8991,-2.8727,-0.7432,
14.544080,-0.3997,-0.8700,-0.0937,-0.9249,-0.3159,0.5376,0.8991,-2.8727,-0.7432,
14.544626,-0.3997,-0.8700,-0.0937,-0.9249,-0.3159,0.5376,0.4154,-2.6863,-1.0564,
14.583027,-0.3997,-0.8700,-0.0937,-0.9249,-0.3159,0.5376,0.3451,-2.5010,-0.9594,
14.585089,-0.3997,-0.8700,-0.0937,-4.0387,-1.9197,-0.5659,0.3451,-2.5010,-0.9594,
14.624151,-0.3997,-0.8700,-0.0937,-4.0387,-1.9197,-0.5659,0.0831,-2.1505,-0.5717,
14.626427,-0.3997,-0.8700,-0.0937,-3.9881,-1.8526,-0.6906,0.0831,-2.1505,-0.5717,
14.627759,-0.6450,-0.9684,-0.3534,-3.9881,-1.8526,-0.6906,0.0831,-2.1505,-0.5717,
14.628958,-0.5402,-1.0234,-0.4081,-3.9881,-1.8526,-0.6906,0.0831,-2.1505,-0.5717,
14.630405,-0.4359,-1.4456,-0.1330,-3.9881,-1.8526,-0.6906,0.0831,-2.1505,-0.5717,
14.631334,-0.6814,-2.4228,0.1677,-3.9881,-1.8526,-0.6906,0.0831,-2.1505,-0.5717,
14.632598,0.0432,-1.6012,-0.1303,-3.9881,-1.8526,-0.6906,0.0831,-2.1505,-0.5717,
14.662699,0.0432,-1.6012,-0.1303,-3.9881,-1.8526,-0.6906,-0.4197,-1.2173,-0.2297,
14.664939,0.0432,-1.6012,-0.1303,-3.8987,-1.8470,-0.5882,-0.4197,-1.2173,-0.2297,
14.702244,0.7099,-0.5873,0.1414,-3.8987,-1.8470,-0.5882,-0.4197,-1.2173,-0.2297,
14.704702,0.4343,-0.3276,0.4196,-3.8987,-1.8470,-0.5882,-0.4197,-1.2173,-0.2297,
14.706049,0.1939,-0.5663,-0.0829,-3.8987,-1.8470,-0.5882,-0.4197,-1.2173,-0.2297,
14.707211,0.1939,-0.5663,-0.0829,-3.8987,-1.8470,-0.5882,0.5784,-2.1271,-0.7496,
14.708639,0.1939,-0.5663,-0.0829,1.5103,-5.4989,2.5441,0.5784,-2.1271,-0.7496,
14.741486,0.1939,-0.5663,-0.0829,1.5103,-5.4989,2.5441,1.0461,-2.4221,-0.8945,
14.742995,0.1939,-0.5663,-0.0829,3.9890,3.5731,2.0091,1.0461,-2.4221,-0.8945,
14.781544,0.1939,-0.5663,-0.0829,3.9890,3.5731,2.0091,0.6327,-2.7662,-0.9189,
14.783598,0.1939,-0.5663,-0.0829,3.7087,3.5774,1.6380,0.6327,-2.7662,-0.9189,
14.786649,0.2770,-0.9562,-0.1540,3.7087,3.5774,1.6380,0.6327,-2.7662,-0.9189,
14.787759,0.2631,-1.1991,-0.1130,3.7087,3.5774,1.6380,0.6327,-2.7662,-0.9189,
14.789053,0.1468,-1.1023,-0.3358,3.7087,3.5774,1.6380,0.6327,-2.7662,-0.9189,
14.790181,-0.0379,-0.9584,-0.3807,3.7087,3.5774,1.6380,0.6327,-2.7662,-0.9189,
14.791254,-0.1584,-0.9701,-0.2459,3.7087,3.5774,1.6380,0.6327,-2.7662,-0.9189,
14.820792,-0.1584,-0.9701,-0.2459,3.7087,3.5774,1.6380,0.3739,-2.1984,-0.7730,
14.823322,-0.1584,-0.9701,-0.2459,1.7235,-0.9772,-1.8364,0.3739,-2.1984,-0.7730,
14.861548,-0.1584,-0.9701,-0.2459,-0.5994,0.2200,-1.4630,0.3739,-2.1984,-0.7730,
14.862995,-0.1584,-0.9701,-0.2459,-0.5994,0.2200,-1.4630,-0.1545,-1.7052,-0.4726,
14.863760,-0.1076,-0.9741,-0.2644,-0.5994,0.2200,-1.4630,-0.1545,-1.7052,-0.4726,
14.864321,-0.0389,-0.9489,-0.2214,-0.5994,0.2200,-1.4630,-0.1545,-1.7052,-0.4726,
14.865026,-0.0108,-0.9819,-0.1093,-0.5994,0.2200,-1.4630,-0.1545,-1.7052,-0.4726,
14.865698,0.0412,-1.0129,-0.0311,-0.5994,0.2200,-1.4630,-0.1545,-1.7052,-0.4726,
14.900523,0.0412,-1.0129,-0.0311,-0.5994,0.2200,-1.4630,-0.4027,-2.0674,-0.3416,
14.903015,0.0412,-1.0129,-0.0311,-0.6389,0.2057,-1.3163,-0.4027,-2.0674,-0.3416,
14.940495,0.0412,-1.0129,-0.0311,-0.6389,0.2057,-1.3163,0.0820,-1.8618,-0.4769,
14.942190,0.0412,-1.0129,-0.0311,0.7628,-0.0783,0.9179,0.0820,-1.8618,-0.4769,
14.943065,0.1297,-0.9885,0.1140,0.7628,-0.0783,0.9179,0.0820,-1.8618,-0.4769,
14.943734,0.1898,-0.9682,0.2945,0.7628,-0.0783,0.9179,0.0820,-1.8618,-0.4769,
14.944394,0.1670,-0.9980,0.2672,0.7628,-0.0783,0.9179,0.0820,-1.8618,-0.4769,
14.945104,0.1089,-1.0268,0.0634,0.7628,-0.0783,0.9179,0.0820,-1.8618,-0.4769,
14.979319,0.1089,-1.0268,0.0634,0.7628,-0.0783,0.9179,0.7691,-1.8480,-0.5461,
14.980746,0.1089,-1.0268,0.0634,1.5886,-0.0794,2.6931,0.7691,-1.8480,-0.5461,
15.019680,0.1089,-1.0268,0.0634,1.5886,-0.0794,2.6931,0.4591,-2.1857,-0.4630,
15.021682,0.1089,-1.0268,0.0634,1.8443,-0.5466,-1.1556,0.4591,-2.1857,-0.4630,
15.022957,0.1331,-1.0290,-0.0929,1.8443,-0.5466,-1.1556,0.4591,-2.1857,-0.4630,
15.023951,0.2000,-1.0510,-0.2068,1.8443,-0.5466,-1.1556,0.4591,-2.1857,-0.4630,
15.025199,0.2604,-1.0620,-0.2053,1.8443,-0.5466,-1.1556,0.4591,-2.1857,-0.4630,
15.026253,0.1839,-1.0447,0.0344,1.8443,-0.5466,-1.1556,0.4591,-2.1857,-0.4630,
15.058967,0.1839,-1.0447,0.0344,1.8443,-0.5466,-1.1556,-0.2152,-2.2687,-0.6686,
15.060859,0.1839,-1.0447,0.0344,1.6066,-0.5473,-1.0377,-0.2152,-2.2687,-0.6686,
15.098778,0.1839,-1.0447,0.0344,1.6066,-0.5473,-1.0377,-0.0927,-2.1984,-0.8305,
15.100235,0.1839,-1.0447,0.0344,-0.1302,-0.3059,2.9376,-0.0927,-2.1984,-0.8305,
15.101742,0.0530,-1.0180,0.2401,-0.1302,-0.3059,2.9376,-0.0927,-2.1984,-0.8305,
15.102941,-0.0953,-1.0017,0.4296,-0.1302,-0.3059,2.9376,-0.0927,-2.1984,-0.8305,
15.104050,-0.2182,-1.0158,0.5012,-0.1302,-0.3059,2.9376,-0.0927,-2.1984,-0.8305,
15.105891,-0.3702,-1.0478,0.4670,-0.1302,-0.3059,2.9376,-0.0927,-2.1984,-0.8305,
15.138159,-0.3702,-1.0478,0.4670,-0.1302,-0.3059,2.9376,0.3366,-2.5063,-0.7815,
15.140064,-0.3702,-1.0478,0.4670,-0.3628,-0.3145,2.8315,0.3366,-2.5063,-0.7815,
15.177260,-0.5495,-1.0515,0.2579,-0.3628,-0.3145,2.8315,0.3366,-2.5063,-0.7815,
15.179493,-0.6015,-1.0706,-0.1413,-0.3628,-0.3145,2.8315,0.3366,-2.5063,-0.7815,
15.181040,-0.4784,-1.0913,-0.4271,-0.3628,-0.3145,2.8315,0.3366,-2.5063,-0.7815,
15.182691,-0.4784,-1.0913,-0.4271,-0.3628,-0.3145,2.8315,-0.3952,-2.4893,-0.3363,
15.184080,-0.4784,-1.0913,-0.4271,-4.5328,-0.4940,4.6952,-0.3952,-2.4893,-0.3363,
15.216635,-0.4784,-1.0913,-0.4271,-4.5328,-0.4940,4.6952,-1.8877,-1.5358,-0.2734,
15.218084,-0.4784,-1.0913,-0.4271,-4.8609,-0.9636,-1.3088,-1.8877,-1.5358,-0.2734,
15.256658,-0.4784,-1.0913,-0.4271,-4.8609,-0.9636,-1.3088,-1.8483,-0.5068,-0.3842,
15.259077,-0.1701,-1.0745,-0.2867,-4.8609,-0.9636,-1.3088,-1.8483,-0.5068,-0.3842,
15.260446,-0.0040,-1.0784,0.0024,-4.8609,-0.9636,-1.3088,-1.8483,-0.5068,-0.3842,
15.261703,-0.1291,-1.0102,0.0099,-4.8609,-0.9636,-1.3088,-1.8483,-0.5068,-0.3842,
15.262920,-0.1010,-1.1099,-0.0521,-4.8609,-0.9636,-1.3088,-1.8483,-0.5068,-0.3842,
