
time,gFx,gFy,gFz,ax,ay,az,wx,wy,wz,
0.051871,0.0000,0.0000,0.0000,0.0000,0.0000,0.0000,-0.5305,0.1547,0.2145,
0.090532,-0.0950,0.3649,0.9219,0.0000,0.0000,0.0000,-0.5305,0.1547,0.2145,
0.092456,-0.0614,0.4082,0.9231,0.0000,0.0000,0.0000,-0.5305,0.1547,0.2145,
0.093406,-0.0207,0.4396,0.9746,0.0000,0.0000,0.0000,-0.5305,0.1547,0.2145,
0.094391,-0.0043,0.4395,1.0122,0.0000,0.0000,0.0000,-0.5305,0.1547,0.2145,
0.095466,-0.0159,0.4279,0.9994,0.0000,0.0000,0.0000,-0.5305,0.1547,0.2145,
0.096391,-0.0352,0.3950,0.9247,0.0000,0.0000,0.0000,-0.5305,0.1547,0.2145,
0.097235,-0.1200,0.4041,0.9080,0.0000,0.0000,0.0000,-0.5305,0.1547,0.2145,
0.097939,-0.1211,0.3986,0.9496,0.0000,0.0000,0.0000,-0.5305,0.1547,0.2145,
0.098829,-0.1201,0.3414,1.0127,0.0000,0.0000,0.0000,-0.5305,0.1547,0.2145,
0.099719,-0.0760,0.2840,1.0344,0.0000,0.0000,0.0000,-0.5305,0.1547,0.2145,
0.100500,-0.0832,0.2980,1.1043,0.0000,0.0000,0.0000,-0.5305,0.1547,0.2145,
0.101375,-0.1459,0.2835,1.0959,0.0000,0.0000,0.0000,-0.5305,0.1547,0.2145,
0.102182,-0.1459,0.2835,1.0959,0.0000,0.0000,0.0000,-0.0331,0.1462,0.0068,
0.131421,-0.1459,0.2835,1.0959,0.0000,0.0000,0.0000,0.1001,-0.0253,0.0313,
0.171973,-0.1817,0.2326,1.0474,0.0000,0.0000,0.0000,0.1001,-0.0253,0.0313,
0.173841,-0.1767,0.1939,1.0541,0.0000,0.0000,0.0000,0.1001,-0.0253,0.0313,
0.175143,-0.1932,0.2257,1.1303,0.0000,0.0000,0.0000,0.1001,-0.0253,0.0313,
0.176375,-0.0291,0.1535,1.1788,0.0000,0.0000,0.0000,0.1001,-0.0253,0.0313,
0.177491,-0.0291,0.1535,1.1788,0.0000,0.0000,0.0000,-0.2141,-0.5260,0.1708,
0.179421,-0.0291,0.1535,1.1788,-0.3598,-0.3246,0.0232,-0.2141,-0.5260,0.1708,
0.211635,-0.0291,0.1535,1.1788,-0.3598,-0.3246,0.0232,0.0447,-0.6719,0.1133,
0.214263,-0.0291,0.1535,1.1788,-0.3277,-0.1743,-0.0011,0.0447,-0.6719,0.1133,
0.251990,0.0571,0.1114,1.2462,-0.3277,-0.1743,-0.0011,0.0447,-0.6719,0.1133,
0.253884,0.1156,0.0768,1.1726,-0.3277,-0.1743,-0.0011,0.0447,-0.6719,0.1133,
0.255344,0.1446,0.0868,1.0089,-0.3277,-0.1743,-0.0011,0.0447,-0.6719,0.1133,
0.256504,0.1446,0.0868,1.0089,-0.3277,-0.1743,-0.0011,0.6487,-0.2160,0.0558,
0.257650,0.1446,0.0868,1.0089,1.3276,-1.0015,0.6224,0.6487,-0.2160,0.0558,
0.290935,0.1446,0.0868,1.0089,1.3276,-1.0015,0.6224,0.4740,-0.1606,-0.0465,
0.292017,0.1446,0.0868,1.0089,1.4422,-0.4089,-2.0646,0.4740,-0.1606,-0.0465,
0.331271,0.1446,0.0868,1.0089,1.4422,-0.4089,-2.0646,0.0255,-0.9041,-0.2872,
0.333162,0.1545,0.1309,0.8593,1.4422,-0.4089,-2.0646,0.0255,-0.9041,-0.2872,
0.334541,0.1447,0.1965,0.7807,1.4422,-0.4089,-2.0646,0.0255,-0.9041,-0.2872,
0.336071,0.1486,0.2594,0.7695,1.4422,-0.4089,-2.0646,0.0255,-0.9041,-0.2872,
0.337498,0.1570,0.3022,0.8036,1.4422,-0.4089,-2.0646,0.0255,-0.9041,-0.2872,
0.338981,0.1838,0.2698,0.9024,1.4422,-0.4089,-2.0646,0.0255,-0.9041,-0.2872,
0.340297,0.1838,0.2698,0.9024,0.9698,0.5190,-1.5038,0.0255,-0.9041,-0.2872,
0.369133,0.1838,0.2698,0.9024,0.9698,0.5190,-1.5038,-0.5081,-0.1425,-0.2180,
0.370566,0.1838,0.2698,0.9024,0.7458,0.5701,-1.2337,-0.5081,-0.1425,-0.2180,
0.408871,0.0963,0.2379,0.9411,0.7458,0.5701,-1.2337,-0.5081,-0.1425,-0.2180,
0.410429,0.0632,0.2552,0.9209,0.7458,0.5701,-1.2337,-0.5081,-0.1425,-0.2180,
0.411123,0.1069,0.1873,0.9407,0.7458,0.5701,-1.2337,-0.5081,-0.1425,-0.2180,
0.412160,-0.1128,0.1774,1.1416,0.7458,0.5701,-1.2337,-0.5081,-0.1425,-0.2180,
0.413174,-0.1128,0.1774,1.1416,0.7458,0.5701,-1.2337,-1.4349,0.7854,0.2550,
0.414055,-0.1128,0.1774,1.1416,0.0165,0.4767,-0.2397,-1.4349,0.7854,0.2550,
0.448292,-0.1128,0.1774,1.1416,0.0165,0.4767,-0.2397,-1.0770,1.2829,1.1146,
0.450166,-0.1128,0.1774,1.1416,0.3734,0.7544,-0.2654,-1.0770,1.2829,1.1146,
0.485680,-0.1808,0.1556,1.2412,0.3734,0.7544,-0.2654,-1.0770,1.2829,1.1146,
0.488012,-0.0040,0.1766,1.1915,0.3734,0.7544,-0.2654,-1.0770,1.2829,1.1146,
0.489012,0.0103,0.1592,1.1501,0.3734,0.7544,-0.2654,-1.0770,1.2829,1.1146,
0.490308,-0.0295,0.1567,1.1529,0.3734,0.7544,-0.2654,-1.0770,1.2829,1.1146,
0.491196,-0.0295,0.1567,1.1529,0.3734,0.7544,-0.2654,0.4261,0.7097,1.0177,
0.492219,-0.0295,0.1567,1.1529,-0.7346,0.0795,1.7670,0.4261,0.7097,1.0177,
0.529011,-0.0295,0.1567,1.1529,-0.7346,0.0795,1.7670,1.1238,0.6533,-0.2702,
0.530909,-0.0295,0.1567,1.1529,-0.3916,-0.3072,1.5886,1.1238,0.6533,-0.2702,
0.563114,0.0545,0.3672,0.9442,-0.3916,-0.3072,1.5886,1.1238,0.6533,-0.2702,
0.564644,-0.1038,0.4014,0.6940,-0.3916,-0.3072,1.5886,1.1238,0.6533,-0.2702,
0.566048,-0.1761,0.2651,0.6362,-0.3916,-0.3072,1.5886,1.1238,0.6533,-0.2702,
0.567101,-0.1657,0.2455,0.5083,-0.3916,-0.3072,1.5886,1.1238,0.6533,-0.2702,
0.567917,-0.1657,0.2455,0.5083,-0.3916,-0.3072,1.5886,0.4005,0.2922,-0.6771,
0.568643,-0.1657,0.2455,0.5083,-0.7826,0.6335,-3.8214,0.4005,0.2922,-0.6771,
0.607643,-0.1657,0.2455,0.5083,-0.7826,0.6335,-3.8214,0.1672,-1.6360,-0.4545,
0.609444,-0.1657,0.2455,0.5083,-1.2161,0.5152,-3.4111,0.1672,-1.6360,-0.4545,
0.646004,-0.0958,0.3695,0.5671,-1.2161,0.5152,-3.4111,0.1672,-1.6360,-0.4545,
0.647879,-0.0252,0.3338,0.5341,-1.2161,0.5152,-3.4111,0.1672,-1.6360,-0.4545,
0.649344,-0.1069,0.2011,1.0937,-1.2161,0.5152,-3.4111,0.1672,-1.6360,-0.4545,
0.650691,-0.1069,0.2011,1.0937,-1.2161,0.5152,-3.4111,0.9576,-2.4381,-0.6100,
0.651931,-0.1069,0.2011,1.0937,-0.9013,0.1072,-1.0290,0.9576,-2.4381,-0.6100,
0.685308,-0.1069,0.2011,1.0937,-0.9013,0.1072,-1.0290,1.4210,-1.5934,-0.0188,
0.686523,-0.1069,0.2011,1.0937,-0.3274,-0.3893,-0.2904,1.4210,-1.5934,-0.0188,
0.724745,0.0450,0.2119,0.9997,-0.3274,-0.3893,-0.2904,1.4210,-1.5934,-0.0188,
0.727219,0.0787,0.2117,0.9151,-0.3274,-0.3893,-0.2904,1.4210,-1.5934,-0.0188,
0.728750,0.0278,0.3162,0.8589,-0.3274,-0.3893,-0.2904,1.4210,-1.5934,-0.0188,
0.730242,0.1686,0.4220,0.7319,-0.3274,-0.3893,-0.2904,1.4210,-1.5934,-0.0188,
0.731645,0.3880,0.4710,0.9665,-0.3274,-0.3893,-0.2904,1.4210,-1.5934,-0.0188,
0.733035,0.3880,0.4710,0.9665,-0.3274,-0.3893,-0.2904,1.3838,-1.3153,0.4531,
0.734332,0.3880,0.4710,0.9665,-0.7639,-0.7657,-0.0409,1.3838,-1.3153,0.4531,
0.764455,0.3880,0.4710,0.9665,-0.7639,-0.7657,-0.0409,0.8660,-0.4067,0.1623,
0.765809,0.3880,0.4710,0.9665,-0.8395,-0.9512,0.0973,0.8660,-0.4067,0.1623,
0.802335,0.3282,0.4498,0.9551,-0.8395,-0.9512,0.0973,0.8660,-0.4067,0.1623,
0.804167,0.2572,0.4333,0.7783,-0.8395,-0.9512,0.0973,0.8660,-0.4067,0.1623,
0.805382,0.2386,0.5935,0.8314,-0.8395,-0.9512,0.0973,0.8660,-0.4067,0.1623,
0.806540,0.1933,0.6197,0.9668,-0.8395,-0.9512,0.0973,0.8660,-0.4067,0.1623,
0.807857,0.1933,0.6197,0.9668,-0.8395,-0.9512,0.0973,0.1992,-0.3555,0.0121,
0.809348,0.1933,0.6197,0.9668,0.5628,1.6886,0.3258,0.1992,-0.3555,0.0121,
0.845012,0.1933,0.6197,0.9668,0.5628,1.6886,0.3258,0.4101,-1.1225,-0.0518,
0.847128,0.1933,0.6197,0.9668,0.1866,1.4309,0.4336,0.4101,-1.1225,-0.0518,
0.881423,0.2284,0.5058,1.0065,0.1866,1.4309,0.4336,0.4101,-1.1225,-0.0518,
0.883786,0.3171,0.4378,1.0885,0.1866,1.4309,0.4336,0.4101,-1.1225,-0.0518,
0.884906,0.4081,0.4538,0.9372,0.1866,1.4309,0.4336,0.4101,-1.1225,-0.0518,
0.886319,0.4027,0.5747,0.7607,0.1866,1.4309,0.4336,0.4101,-1.1225,-0.0518,
0.889478,0.4027,0.5747,0.7607,1.0764,0.2164,1.4643,0.4101,-1.1225,-0.0518,
0.891201,0.4027,0.5747,0.7607,1.0764,0.2164,1.4643,0.6136,-1.0043,-0.0923,
0.925535,0.4027,0.5747,0.7607,1.0764,0.2164,1.4643,0.1725,-1.6477,-0.5173,
0.927642,0.4027,0.5747,0.7607,0.5948,0.0997,1.5453,0.1725,-1.6477,-0.5173,
0.952892,0.3557,0.5555,0.5840,0.5948,0.0997,1.5453,0.1725,-1.6477,-0.5173,
0.956812,0.3276,0.5475,0.7774,0.5948,0.0997,1.5453,0.1725,-1.6477,-0.5173,
0.959070,0.2049,0.6269,0.9537,0.5948,0.0997,1.5453,0.1725,-1.6477,-0.5173,
0.960310,0.0847,0.5513,0.9159,0.5948,0.0997,1.5453,0.1725,-1.6477,-0.5173,
0.965493,0.0847,0.5513,0.9159,0.5948,0.0997,1.5453,0.0106,-1.3931,-0.2052,
0.967066,0.0847,0.5513,0.9159,0.0155,1.0267,-0.7518,0.0106,-1.3931,-0.2052,
1.003334,0.3149,0.3475,0.8395,0.0155,1.0267,-0.7518,0.0106,-1.3931,-0.2052,
1.005120,0.5108,0.4082,0.9258,0.0155,1.0267,-0.7518,0.0106,-1.3931,-0.2052,
1.006375,0.6243,0.4847,0.9317,0.0155,1.0267,-0.7518,0.0106,-1.3931,-0.2052,
1.007728,0.6243,0.4847,0.9317,0.0155,1.0267,-0.7518,0.0735,-0.5888,0.2081,
1.008633,0.6243,0.4847,0.9317,-1.0943,0.0141,0.9760,0.0735,-0.5888,0.2081,
1.042963,0.6243,0.4847,0.9317,-1.0943,0.0141,0.9760,1.4615,-1.9129,-0.8795,
1.044887,0.6243,0.4847,0.9317,-1.4050,-0.5164,1.4364,1.4615,-1.9129,-0.8795,
1.082513,0.6572,0.3733,0.8304,-1.4050,-0.5164,1.4364,1.4615,-1.9129,-0.8795,
1.084699,0.2848,0.0638,0.7910,-1.4050,-0.5164,1.4364,1.4615,-1.9129,-0.8795,
1.086225,-0.0076,0.2086,0.6347,-1.4050,-0.5164,1.4364,1.4615,-1.9129,-0.8795,
1.087504,-0.0076,0.2086,0.6347,-1.4050,-0.5164,1.4364,2.6152,-2.2645,-1.8074,
1.088990,-0.0076,0.2086,0.6347,1.7632,-2.2356,2.0436,2.6152,-2.2645,-1.8074,
1.123339,-0.0076,0.2086,0.6347,1.7632,-2.2356,2.0436,2.0687,-2.4882,-0.1104,
1.124813,-0.0076,0.2086,0.6347,1.1155,-2.5924,2.8065,2.0687,-2.4882,-0.1104,
1.160594,-0.0023,0.6249,0.4237,1.1155,-2.5924,2.8065,2.0687,-2.4882,-0.1104,
1.162189,0.0466,0.9310,0.4106,1.1155,-2.5924,2.8065,2.0687,-2.4882,-0.1104,
1.162890,0.1420,0.7832,0.3772,1.1155,-2.5924,2.8065,2.0687,-2.4882,-0.1104,
1.163652,0.2836,0.4942,0.3028,1.1155,-2.5924,2.8065,2.0687,-2.4882,-0.1104,
1.164370,0.2836,0.4942,0.3028,1.1155,-2.5924,2.8065,0.8074,-2.4147,0.9474,
1.165441,0.2836,0.4942,0.3028,-3.0611,0.2760,-1.1759,0.8074,-2.4147,0.9474,
1.201479,0.2836,0.4942,0.3028,-3.0611,0.2760,-1.1759,-0.4847,-0.2394,1.2094,
1.203808,0.2836,0.4942,0.3028,-3.2245,0.6034,-1.1776,-0.4847,-0.2394,1.2094,
1.240668,0.4831,0.5471,0.5750,-3.2245,0.6034,-1.1776,-0.4847,-0.2394,1.2094,
1.242899,0.5298,0.5884,0.4381,-3.2245,0.6034,-1.1776,-0.4847,-0.2394,1.2094,
1.244240,0.6113,0.6331,0.4062,-3.2245,0.6034,-1.1776,-0.4847,-0.2394,1.2094,
1.245549,0.6338,0.3701,0.4687,-3.2245,0.6034,-1.1776,-0.4847,-0.2394,1.2094,
1.246662,0.6338,0.3701,0.4687,-3.2245,0.6034,-1.1776,-0.9673,0.1260,0.7876,
1.247920,0.6338,0.3701,0.4687,0.0555,0.1720,-0.8027,-0.9673,0.1260,0.7876,
1.280395,0.6338,0.3701,0.4687,0.0555,0.1720,-0.8027,-0.5252,-0.6559,0.2528,
1.282251,0.6338,0.3701,0.4687,-0.1305,0.3218,-0.7306,-0.5252,-0.6559,0.2528,
1.315502,0.6328,0.0584,0.5498,-0.1305,0.3218,-0.7306,-0.5252,-0.6559,0.2528,
1.317605,0.8283,0.2640,0.5145,-0.1305,0.3218,-0.7306,-0.5252,-0.6559,0.2528,
1.319736,0.9956,0.4731,0.4703,-0.1305,0.3218,-0.7306,-0.5252,-0.6559,0.2528,
1.322016,0.8970,0.6604,0.6102,-0.1305,0.3218,-0.7306,-0.5252,-0.6559,0.2528,
1.323477,0.8970,0.6604,0.6102,-0.1305,0.3218,-0.7306,-0.1183,-0.1925,-1.4335,
1.324637,0.8970,0.6604,0.6102,1.7478,-3.5856,-0.2069,-0.1183,-0.1925,-1.4335,
1.360439,0.8970,0.6604,0.6102,1.7478,-3.5856,-0.2069,0.1022,0.1153,-3.0964,
1.362530,0.8970,0.6604,0.6102,2.3805,-4.0480,-0.1961,0.1022,0.1153,-3.0964,
1.395300,0.4492,0.6067,0.5646,2.3805,-4.0480,-0.1961,0.1022,0.1153,-3.0964,
1.397298,-0.3028,0.5394,0.3181,2.3805,-4.0480,-0.1961,0.1022,0.1153,-3.0964,
1.398747,-0.7126,0.4691,0.0743,2.3805,-4.0480,-0.1961,0.1022,0.1153,-3.0964,
1.400196,-0.5875,0.1473,-0.0257,2.3805,-4.0480,-0.1961,0.1022,0.1153,-3.0964,
1.401544,-0.5875,0.1473,-0.0257,-10.3108,-3.4315,-3.8070,0.1022,0.1153,-3.0964,
1.403822,-0.5875,0.1473,-0.0257,-10.3108,-3.4315,-3.8070,0.3377,-1.7446,0.3466,
1.439197,-0.5875,0.1473,-0.0257,-10.3108,-3.4315,-3.8070,1.1441,-2.1601,5.8572,
1.441891,-0.5875,0.1473,-0.0257,-11.3949,-2.1794,-2.9431,1.1441,-2.1601,5.8572,
1.471513,-0.1155,-0.2917,0.1642,-11.3949,-2.1794,-2.9431,1.1441,-2.1601,5.8572,
1.474421,0.2330,-0.3253,0.5165,-11.3949,-2.1794,-2.9431,1.1441,-2.1601,5.8572,
1.476111,0.6094,-0.2974,0.3737,-11.3949,-2.1794,-2.9431,1.1441,-2.1601,5.8572,
1.478953,0.9173,-0.3909,-0.1580,-11.3949,-2.1794,-2.9431,1.1441,-2.1601,5.8572,
1.480557,0.9173,-0.3909,-0.1580,-2.9707,-5.7035,-0.2599,1.1441,-2.1601,5.8572,
1.482156,0.9173,-0.3909,-0.1580,-2.9707,-5.7035,-0.2599,1.1579,-0.2703,7.6586,
1.518775,0.9173,-0.3909,-0.1580,-2.9707,-5.7035,-0.2599,0.9065,-2.4743,5.9105,
1.521018,0.9173,-0.3909,-0.1580,-3.5206,-3.9072,0.5143,0.9065,-2.4743,5.9105,
1.549649,1.0910,-0.3671,-0.3022,-3.5206,-3.9072,0.5143,0.9065,-2.4743,5.9105,
1.552156,1.1302,-0.2090,-0.1016,-3.5206,-3.9072,0.5143,0.9065,-2.4743,5.9105,
1.553763,1.4626,-0.3061,0.0609,-3.5206,-3.9072,0.5143,0.9065,-2.4743,5.9105,
1.555620,1.4549,-0.4878,-0.0858,-3.5206,-3.9072,0.5143,0.9065,-2.4743,5.9105,
1.557599,1.4549,-0.4878,-0.0858,-3.5206,-3.9072,0.5143,1.9047,-3.6685,4.7408,
1.559208,1.4549,-0.4878,-0.0858,3.1140,-2.3512,-3.0662,1.9047,-3.6685,4.7408,
1.597944,1.4549,-0.4878,-0.0858,3.1140,-2.3512,-3.0662,1.5840,-2.5393,4.6694,
1.600071,1.4549,-0.4878,-0.0858,3.1349,-0.8935,-2.2499,1.5840,-2.5393,4.6694,
1.630232,1.3350,-0.5821,-0.4056,3.1349,-0.8935,-2.2499,1.5840,-2.5393,4.6694,
1.631966,1.4836,-0.8091,-0.2924,3.1349,-0.8935,-2.2499,1.5840,-2.5393,4.6694,
1.633314,1.7571,-1.0116,0.1643,3.1349,-0.8935,-2.2499,1.5840,-2.5393,4.6694,
1.634569,1.8260,-1.2126,0.3103,3.1349,-0.8935,-2.2499,1.5840,-2.5393,4.6694,
1.636774,1.8260,-1.2126,0.3103,3.1349,-0.8935,-2.2499,0.4985,-1.8980,4.7493,
1.638828,1.8260,-1.2126,0.3103,9.1161,-6.8505,1.4590,0.4985,-1.8980,4.7493,
1.678177,1.8260,-1.2126,0.3103,9.1161,-6.8505,1.4590,1.1462,-1.4123,4.3296,
1.679959,1.8260,-1.2126,0.3103,9.5247,-5.3548,1.6100,1.1462,-1.4123,4.3296,
1.716760,1.6595,-1.2072,0.1715,9.5247,-5.3548,1.6100,1.1462,-1.4123,4.3296,
1.718878,1.6549,-1.0361,0.0521,9.5247,-5.3548,1.6100,1.1462,-1.4123,4.3296,
1.720161,1.6766,-0.7512,-0.0094,9.5247,-5.3548,1.6100,1.1462,-1.4123,4.3296,
1.721445,1.6766,-0.7512,-0.0094,9.5247,-5.3548,1.6100,1.5276,-1.5273,3.2654,
1.722801,1.6766,-0.7512,-0.0094,9.2411,-2.3350,0.3860,1.5276,-1.5273,3.2654,
1.756466,1.6766,-0.7512,-0.0094,9.2411,-2.3350,0.3860,0.8138,-0.3928,1.4758,
1.759011,1.6766,-0.7512,-0.0094,7.6038,1.9935,-0.5646,0.8138,-0.3928,1.4758,
1.795430,1.6550,-0.5140,-0.0392,7.6038,1.9935,-0.5646,0.8138,-0.3928,1.4758,
1.797751,1.5784,-0.4132,-0.0330,7.6038,1.9935,-0.5646,0.8138,-0.3928,1.4758,
1.799527,1.4103,-0.4907,-0.0747,7.6038,1.9935,-0.5646,0.8138,-0.3928,1.4758,
1.801346,1.3055,-0.5188,-0.1091,7.6038,1.9935,-0.5646,0.8138,-0.3928,1.4758,
1.803565,1.2039,-0.4773,-0.0566,7.6038,1.9935,-0.5646,0.8138,-0.3928,1.4758,
1.804942,1.2039,-0.4773,-0.0566,7.4714,2.0519,-0.8116,0.8138,-0.3928,1.4758,
1.806722,1.2039,-0.4773,-0.0566,7.4714,2.0519,-0.8116,-0.2834,1.3042,0.4765,
1.836005,1.2039,-0.4773,-0.0566,7.4714,2.0519,-0.8116,-0.9747,2.4323,0.0792,
1.838151,1.2039,-0.4773,-0.0566,7.2756,2.0194,-1.1848,-0.9747,2.4323,0.0792,
1.848277,1.2653,-0.5198,-0.0877,7.2756,2.0194,-1.1848,-0.9747,2.4323,0.0792,
1.850395,1.1776,-0.5388,-0.0869,7.2756,2.0194,-1.1848,-0.9747,2.4323,0.0792,
1.851904,1.0351,-0.5615,-0.1415,7.2756,2.0194,-1.1848,-0.9747,2.4323,0.0792,
1.874992,1.0351,-0.5615,-0.1415,7.2756,2.0194,-1.1848,-1.1207,2.4333,-0.0816,
1.877669,1.0351,-0.5615,-0.1415,4.8368,1.8389,-1.7518,-1.1207,2.4333,-0.0816,
1.914114,1.0351,-0.5615,-0.1415,4.8368,1.8389,-1.7518,-1.0738,1.4053,-0.0710,
1.916475,1.0351,-0.5615,-0.1415,2.2192,0.9419,-2.6481,-1.0738,1.4053,-0.0710,
1.918614,0.9145,-0.5979,-0.2205,2.2192,0.9419,-2.6481,-1.0738,1.4053,-0.0710,
1.920217,0.8204,-0.6424,-0.2349,2.2192,0.9419,-2.6481,-1.0738,1.4053,-0.0710,
1.921342,0.7843,-0.6637,-0.3580,2.2192,0.9419,-2.6481,-1.0738,1.4053,-0.0710,
1.922598,0.6099,-0.7455,-0.2444,2.2192,0.9419,-2.6481,-1.0738,1.4053,-0.0710,
1.955591,0.6099,-0.7455,-0.2444,2.2057,0.9898,-2.4591,-1.0738,1.4053,-0.0710,
1.957698,0.6099,-0.7455,-0.2444,2.2057,0.9898,-2.4591,-0.6978,0.2655,0.1868,
1.992745,0.5433,-0.9118,-0.0485,2.2057,0.9898,-2.4591,-0.6978,0.2655,0.1868,
1.994633,0.5997,-0.8648,0.0257,2.2057,0.9898,-2.4591,-0.6978,0.2655,0.1868,
1.995683,0.6373,-0.7918,-0.0359,2.2057,0.9898,-2.4591,-0.6978,0.2655,0.1868,
1.996839,0.6373,-0.7918,-0.0359,2.2057,0.9898,-2.4591,0.8181,-0.7145,0.2305,
1.997643,0.6373,-0.7918,-0.0359,-1.2362,-1.3104,-0.7309,0.8181,-0.7145,0.2305,
2.033690,0.6373,-0.7918,-0.0359,-1.2362,-1.3104,-0.7309,2.0613,-1.5774,-0.0966,
2.035990,0.6373,-0.7918,-0.0359,-1.2736,-1.3632,-0.7962,2.0613,-1.5774,-0.0966,
2.071065,0.7109,-0.7045,0.0522,-1.2736,-1.3632,-0.7962,2.0613,-1.5774,-0.0966,
2.073888,0.6850,-0.6408,-0.0662,-1.2736,-1.3632,-0.7962,2.0613,-1.5774,-0.0966,
2.075498,0.6828,-0.6391,0.0811,-1.2736,-1.3632,-0.7962,2.0613,-1.5774,-0.0966,
2.076623,0.9676,-0.6269,0.2584,-1.2736,-1.3632,-0.7962,2.0613,-1.5774,-0.0966,
2.077632,0.9676,-0.6269,0.2584,-1.2736,-1.3632,-0.7962,1.9185,-1.3718,-0.0785,
2.079009,0.9676,-0.6269,0.2584,-0.4108,0.3092,-0.5399,1.9185,-1.3718,-0.0785,
2.112939,0.9676,-0.6269,0.2584,-0.4108,0.3092,-0.5399,1.4402,-1.5358,-0.2052,
2.114989,0.9676,-0.6269,0.2584,-0.5042,0.1905,-0.4461,1.4402,-1.5358,-0.2052,
2.151828,0.6326,-0.5546,-0.3681,-0.5042,0.1905,-0.4461,1.4402,-1.5358,-0.2052,
2.154007,0.8196,-0.5172,0.0771,-0.5042,0.1905,-0.4461,1.4402,-1.5358,-0.2052,
2.155626,0.8410,-0.4925,-0.1782,-0.5042,0.1905,-0.4461,1.4402,-1.5358,-0.2052,
2.156933,0.8748,-0.5001,-0.1464,-0.5042,0.1905,-0.4461,1.4402,-1.5358,-0.2052,
2.158274,0.8748,-0.5001,-0.1464,-0.5042,0.1905,-0.4461,0.8309,-1.1939,-0.5429,
2.159356,0.8748,-0.5001,-0.1464,0.2184,0.8624,-1.1146,0.8309,-1.1939,-0.5429,
2.192305,0.8748,-0.5001,-0.1464,0.2184,0.8624,-1.1146,0.1523,-1.3270,-1.0063,
2.193814,0.8748,-0.5001,-0.1464,-0.0504,0.5301,-0.7190,0.1523,-1.3270,-1.0063,
2.227002,0.8165,-0.5530,-0.2145,-0.0504,0.5301,-0.7190,0.1523,-1.3270,-1.0063,
2.229227,0.7483,-0.6481,-0.2362,-0.0504,0.5301,-0.7190,0.1523,-1.3270,-1.0063,
2.230623,0.6307,-0.8023,-0.2146,-0.0504,0.5301,-0.7190,0.1523,-1.3270,-1.0063,
2.232088,0.7533,-0.9605,0.3252,-0.0504,0.5301,-0.7190,0.1523,-1.3270,-1.0063,
2.233286,0.7533,-0.9605,0.3252,-0.0504,0.5301,-0.7190,-0.3984,-0.4983,-0.5482,
2.234369,0.7533,-0.9605,0.3252,-0.9480,-2.6988,0.6032,-0.3984,-0.4983,-0.5482,
2.271465,0.7533,-0.9605,0.3252,-0.9480,-2.6988,0.6032,1.1973,0.1579,-0.8870,
2.274114,0.7533,-0.9605,0.3252,-1.1167,-2.9141,0.2733,1.1973,0.1579,-0.8870,
2.311922,0.8058,-1.0339,0.2486,-1.1167,-2.9141,0.2733,1.1973,0.1579,-0.8870,
2.313768,0.7660,-0.8708,-0.0277,-1.1167,-2.9141,0.2733,1.1973,0.1579,-0.8870,
2.314817,0.8647,-0.7585,-0.0686,-1.1167,-2.9141,0.2733,1.1973,0.1579,-0.8870,
2.315911,0.8647,-0.7585,-0.0686,-0.5327,-2.9907,-0.4702,1.1973,0.1579,-0.8870,
2.316731,0.8647,-0.7585,-0.0686,-0.5327,-2.9907,-0.4702,0.5986,0.6767,-0.8114,
2.350308,0.8647,-0.7585,-0.0686,-0.5327,-2.9907,-0.4702,-0.3260,1.0453,-0.4364,
2.352052,0.8647,-0.7585,-0.0686,-1.9230,-2.3625,1.0697,-0.3260,1.0453,-0.4364,
2.389025,0.8068,-0.8900,0.2310,-1.9230,-2.3625,1.0697,-0.3260,1.0453,-0.4364,
2.391026,0.5164,-0.8056,0.0529,-1.9230,-2.3625,1.0697,-0.3260,1.0453,-0.4364,
2.392481,0.6874,-0.7547,0.2508,-1.9230,-2.3625,1.0697,-0.3260,1.0453,-0.4364,
2.393570,0.7774,-0.7702,0.4549,-1.9230,-2.3625,1.0697,-0.3260,1.0453,-0.4364,
2.394709,0.7111,-0.4861,0.2004,-1.9230,-2.3625,1.0697,-0.3260,1.0453,-0.4364,
2.396124,0.7111,-0.4861,0.2004,-1.9230,-2.3625,1.0697,0.4868,0.8131,-0.4758,
2.396936,0.7111,-0.4861,0.2004,-1.9340,-2.4802,0.6784,0.4868,0.8131,-0.4758,
2.430032,0.7111,-0.4861,0.2004,-1.9340,-2.4802,0.6784,0.4538,1.1657,-0.4854,
2.431631,0.7111,-0.4861,0.2004,-1.9074,-2.6035,0.1901,0.4538,1.1657,-0.4854,
2.466489,0.6840,-0.4525,0.3038,-1.9074,-2.6035,0.1901,0.4538,1.1657,-0.4854,
2.469148,0.2171,-0.4504,-0.0816,-1.9074,-2.6035,0.1901,0.4538,1.1657,-0.4854,
2.470609,0.2978,-0.4019,-0.0034,-1.9074,-2.6035,0.1901,0.4538,1.1657,-0.4854,
2.472549,0.6488,-0.4368,0.1267,-1.9074,-2.6035,0.1901,0.4538,1.1657,-0.4854,
2.473286,0.6488,-0.4368,0.1267,-1.9074,-2.6035,0.1901,-0.0352,0.5798,0.0526,
2.474085,0.6488,-0.4368,0.1267,-3.7184,0.8529,-1.5068,-0.0352,0.5798,0.0526,
2.508914,0.6488,-0.4368,0.1267,-3.7184,0.8529,-1.5068,0.0064,0.3337,0.2539,
2.510302,0.6488,-0.4368,0.1267,-3.5498,0.9121,-1.5773,0.0064,0.3337,0.2539,
2.548576,0.7550,-0.5452,0.2685,-3.5498,0.9121,-1.5773,0.0064,0.3337,0.2539,
2.550360,0.7798,-0.5556,0.2232,-3.5498,0.9121,-1.5773,0.0064,0.3337,0.2539,
2.551435,0.7728,-0.4426,0.2110,-3.5498,0.9121,-1.5773,0.0064,0.3337,0.2539,
2.552836,0.7728,-0.4426,0.2110,-3.5498,0.9121,-1.5773,0.2908,-0.2692,0.4073,
2.553800,0.7728,-0.4426,0.2110,-0.4774,0.1217,0.0055,0.2908,-0.2692,0.4073,
2.588218,0.7728,-0.4426,0.2110,-0.4774,0.1217,0.0055,0.5422,-0.3513,0.5330,
2.590129,0.7728,-0.4426,0.2110,-0.8978,0.7135,-0.4052,0.5422,-0.3513,0.5330,
2.628213,0.7610,-0.5452,0.1707,-0.8978,0.7135,-0.4052,0.5422,-0.3513,0.5330,
2.629755,0.6518,-0.5062,0.1813,-0.8978,0.7135,-0.4052,0.5422,-0.3513,0.5330,
2.631132,0.7288,-0.4639,0.1616,-0.8978,0.7135,-0.4052,0.5422,-0.3513,0.5330,
2.632482,0.7741,-0.4677,0.1466,-0.8978,0.7135,-0.4052,0.5422,-0.3513,0.5330,
2.633789,0.7690,-0.4561,0.2083,-0.8978,0.7135,-0.4052,0.5422,-0.3513,0.5330,
2.635179,0.7690,-0.4561,0.2083,-0.8978,0.7135,-0.4052,0.5624,-0.1329,0.5756,
2.636314,0.7690,-0.4561,0.2083,-0.7658,0.8257,-0.4746,0.5624,-0.1329,0.5756,
2.667444,0.7690,-0.4561,0.2083,-0.7658,0.8257,-0.4746,0.3579,-0.0040,0.7599,
2.668865,0.7690,-0.4561,0.2083,-0.5827,1.0024,-0.5400,0.3579,-0.0040,0.7599,
2.704376,0.6684,-0.4873,0.2061,-0.5827,1.0024,-0.5400,0.3579,-0.0040,0.7599,
2.706922,0.5678,-0.5122,0.0808,-0.5827,1.0024,-0.5400,0.3579,-0.0040,0.7599,
2.707596,0.6321,-0.5569,0.2316,-0.5827,1.0024,-0.5400,0.3579,-0.0040,0.7599,
2.708541,0.7020,-0.8300,0.1230,-0.5827,1.0024,-0.5400,0.3579,-0.0040,0.7599,
2.709377,0.7020,-0.8300,0.1230,-0.5827,1.0024,-0.5400,-0.3004,0.2943,1.0688,
2.710097,0.7020,-0.8300,0.1230,-0.7900,-0.6722,-0.9758,-0.3004,0.2943,1.0688,
2.747779,0.7020,-0.8300,0.1230,-0.7900,-0.6722,-0.9758,-0.6978,0.5084,0.9857,
2.750154,0.7020,-0.8300,0.1230,-0.4912,-0.3246,-0.9259,-0.6978,0.5084,0.9857,
2.782481,0.7858,-0.8363,-0.0277,-0.4912,-0.3246,-0.9259,-0.6978,0.5084,0.9857,
2.784500,0.5731,-0.8022,0.0835,-0.4912,-0.3246,-0.9259,-0.6978,0.5084,0.9857,
2.786461,0.4994,-0.8096,0.2436,-0.4912,-0.3246,-0.9259,-0.6978,0.5084,0.9857,
2.788283,0.4620,-0.8357,0.1140,-0.4912,-0.3246,-0.9259,-0.6978,0.5084,0.9857,
2.789638,0.4620,-0.8357,0.1140,-0.4912,-0.3246,-0.9259,-0.5444,0.3795,1.8784,
2.791020,0.4620,-0.8357,0.1140,-0.7569,-1.0249,-0.8996,-0.5444,0.3795,1.8784,
2.826261,0.4620,-0.8357,0.1140,-0.7569,-1.0249,-0.8996,-0.2333,0.2037,2.4409,
2.827854,0.4620,-0.8357,0.1140,-0.0338,-0.4071,-0.8635,-0.2333,0.2037,2.4409,
2.836509,0.3384,-0.8692,0.0676,-0.0338,-0.4071,-0.8635,-0.2333,0.2037,2.4409,
2.837551,0.3180,-0.9890,0.2399,-0.0338,-0.4071,-0.8635,-0.2333,0.2037,2.4409,
2.838848,0.8906,-0.4907,0.1649,-0.0338,-0.4071,-0.8635,-0.2333,0.2037,2.4409,
2.865740,0.8906,-0.4907,0.1649,-0.0338,-0.4071,-0.8635,-0.0799,-0.7976,0.9580,
2.868666,0.8906,-0.4907,0.1649,-1.4572,-0.5596,-0.1839,-0.0799,-0.7976,0.9580,
2.870086,1.3667,-0.3516,0.1772,-1.4572,-0.5596,-0.1839,-0.0799,-0.7976,0.9580,
2.871012,1.3262,-0.7317,0.2250,-1.4572,-0.5596,-0.1839,-0.0799,-0.7976,0.9580,
2.904445,1.3262,-0.7317,0.2250,-1.4572,-0.5596,-0.1839,-0.2088,-0.1553,0.6267,
2.906769,1.3262,-0.7317,0.2250,-1.2442,-0.4018,-0.0827,-0.2088,-0.1553,0.6267,
2.944307,1.3262,-0.7317,0.2250,-1.2442,-0.4018,-0.0827,0.1033,-0.8945,1.2339,
2.946782,1.3262,-0.7317,0.2250,-0.8871,-0.1562,0.0626,0.1033,-0.8945,1.2339,
2.986966,1.3262,-0.7317,0.2250,-0.8871,-0.1562,0.0626,0.3164,-2.1782,1.1157,
2.989065,1.3262,-0.7317,0.2250,6.7057,2.3191,0.2957,0.3164,-2.1782,1.1157,
3.024005,0.2452,-1.3188,0.2997,6.7057,2.3191,0.2957,0.3164,-2.1782,1.1157,
3.025499,0.2100,-1.3444,0.1438,6.7057,2.3191,0.2957,0.3164,-2.1782,1.1157,
3.026454,0.2320,-1.2785,0.1094,6.7057,2.3191,0.2957,0.3164,-2.1782,1.1157,
3.027258,0.2320,-1.2785,0.1094,6.7057,2.3191,0.2957,-0.3643,-1.9481,0.4552,
3.028058,0.2320,-1.2785,0.1094,-2.4304,-4.3121,0.9646,-0.3643,-1.9481,0.4552,
3.067044,0.2320,-1.2785,0.1094,-2.4304,-4.3121,0.9646,-1.0568,-0.3289,-0.1818,
3.069564,0.2320,-1.2785,0.1094,-2.4514,-4.2326,1.3555,-1.0568,-0.3289,-0.1818,
3.105648,0.3158,-1.1253,0.0866,-2.4514,-4.2326,1.3555,-1.0568,-0.3289,-0.1818,
3.107730,0.5061,-1.0332,0.0766,-2.4514,-4.2326,1.3555,-1.0568,-0.3289,-0.1818,
3.108859,0.2956,-0.9289,0.1186,-2.4514,-4.2326,1.3555,-1.0568,-0.3289,-0.1818,
3.109434,0.2956,-0.9289,0.1186,-2.4514,-4.2326,1.3555,-1.7971,1.8240,-1.0532,
3.110324,0.2956,-0.9289,0.1186,-1.3548,-1.5910,0.7131,-1.7971,1.8240,-1.0532,
3.143829,0.2956,-0.9289,0.1186,-1.3548,-1.5910,0.7131,-1.7375,2.3524,-0.7634,
3.146591,0.2956,-0.9289,0.1186,-1.6539,0.2189,1.8038,-1.7375,2.3524,-0.7634,
3.183079,0.2956,-0.9289,0.1186,-1.6192,0.2165,1.7975,-1.7375,2.3524,-0.7634,
3.184754,0.2956,-0.9289,0.1186,-1.6192,0.2165,1.7975,-0.7574,1.0634,-0.0092,
3.186193,0.4387,-0.8927,0.1641,-1.6192,0.2165,1.7975,-0.7574,1.0634,-0.0092,
3.188235,0.4390,-0.8734,0.2914,-1.6192,0.2165,1.7975,-0.7574,1.0634,-0.0092,
3.189823,0.2120,-0.7214,0.1406,-1.6192,0.2165,1.7975,-0.7574,1.0634,-0.0092,
3.191215,0.1834,-0.5426,-0.1034,-1.6192,0.2165,1.7975,-0.7574,1.0634,-0.0092,
3.193039,0.3598,-0.6516,-0.1542,-1.6192,0.2165,1.7975,-0.7574,1.0634,-0.0092,
3.221447,0.3598,-0.6516,-0.1542,-1.6192,0.2165,1.7975,0.1086,-0.3310,-0.0114,
3.223156,0.3598,-0.6516,-0.1542,-1.5927,0.2095,1.7937,0.1086,-0.3310,-0.0114,
3.263261,0.3598,-0.6516,-0.1542,-1.5927,0.2095,1.7937,0.3132,-0.6975,-0.4236,
3.264854,0.3598,-0.6516,-0.1542,-2.0200,1.6590,-1.0846,0.3132,-0.6975,-0.4236,
3.266106,0.4473,-0.8123,-0.0465,-2.0200,1.6590,-1.0846,0.3132,-0.6975,-0.4236,
3.266927,0.5465,-0.8495,-0.0568,-2.0200,1.6590,-1.0846,0.3132,-0.6975,-0.4236,
3.267732,0.4998,-0.9113,0.0317,-2.0200,1.6590,-1.0846,0.3132,-0.6975,-0.4236,
3.268600,0.4861,-0.8986,0.0534,-2.0200,1.6590,-1.0846,0.3132,-0.6975,-0.4236,
3.301984,0.4861,-0.8986,0.0534,-2.0200,1.6590,-1.0846,0.0415,-0.3278,-0.2841,
3.303628,0.4861,-0.8986,0.0534,-0.3364,-0.5232,0.0558,0.0415,-0.3278,-0.2841,
3.341518,0.4861,-0.8986,0.0534,-0.3364,-0.5232,0.0558,-0.0298,-0.1904,-0.1104,
3.343533,0.4861,-0.8986,0.0534,-2.2303,0.8765,0.1016,-0.0298,-0.1904,-0.1104,
3.345719,0.3527,-0.7693,-0.0047,-2.2303,0.8765,0.1016,-0.0298,-0.1904,-0.1104,
3.347030,0.2926,-0.7012,0.0214,-2.2303,0.8765,0.1016,-0.0298,-0.1904,-0.1104,
3.348508,0.3053,-0.7481,0.0109,-2.2303,0.8765,0.1016,-0.0298,-0.1904,-0.1104,
3.349685,0.3842,-0.7723,0.0265,-2.2303,0.8765,0.1016,-0.0298,-0.1904,-0.1104,
3.380713,0.3842,-0.7723,0.0265,-2.2303,0.8765,0.1016,-0.0661,0.0685,0.0962,
3.382813,0.3842,-0.7723,0.0265,-2.1586,0.8802,0.1064,-0.0661,0.0685,0.0962,
3.420786,0.3842,-0.7723,0.0265,-2.1586,0.8802,0.1064,-0.0331,0.4157,0.2571,
3.423148,0.3842,-0.7723,0.0265,-0.4351,0.7001,-0.2445,-0.0331,0.4157,0.2571,
3.424551,0.5035,-0.7847,0.0033,-0.4351,0.7001,-0.2445,-0.0331,0.4157,0.2571,
3.425908,0.5626,-0.7290,-0.0880,-0.4351,0.7001,-0.2445,-0.0331,0.4157,0.2571,
3.427199,0.5596,-0.7295,-0.1557,-0.4351,0.7001,-0.2445,-0.0331,0.4157,0.2571,
3.429181,0.6031,-0.7395,-0.2024,-0.4351,0.7001,-0.2445,-0.0331,0.4157,0.2571,
3.460759,0.6031,-0.7395,-0.2024,-0.4351,0.7001,-0.2445,-0.1715,0.4583,-0.1253,
3.464258,0.6031,-0.7395,-0.2024,-0.4656,0.6626,-0.2780,-0.1715,0.4583,-0.1253,
3.499902,0.6031,-0.7395,-0.2024,-0.4656,0.6626,-0.2780,-0.4879,0.2208,-0.6335,
3.502676,0.6031,-0.7395,-0.2024,0.5483,0.8100,-1.8081,-0.4879,0.2208,-0.6335,
3.504141,0.6627,-0.7268,-0.2121,0.5483,0.8100,-1.8081,-0.4879,0.2208,-0.6335,
3.506813,0.7094,-0.5673,-0.1418,0.5483,0.8100,-1.8081,-0.4879,0.2208,-0.6335,
3.508027,0.5745,-0.4361,-0.1266,0.5483,0.8100,-1.8081,-0.4879,0.2208,-0.6335,
3.509355,0.7998,-0.6135,-0.1706,0.5483,0.8100,-1.8081,-0.4879,0.2208,-0.6335,
3.539797,0.7998,-0.6135,-0.1706,0.5483,0.8100,-1.8081,-0.4261,0.0493,-0.4705,
3.542163,0.7998,-0.6135,-0.1706,1.2220,2.5516,-1.2342,-0.4261,0.0493,-0.4705,
3.580015,0.7998,-0.6135,-0.1706,1.2220,2.5516,-1.2342,0.0330,0.0557,-0.3267,
3.582392,0.7998,-0.6135,-0.1706,1.4535,0.6871,-1.6860,0.0330,0.0557,-0.3267,
3.583689,0.7912,-0.5834,-0.2696,1.4535,0.6871,-1.6860,0.0330,0.0557,-0.3267,
3.584806,0.7099,-0.7439,-0.2771,1.4535,0.6871,-1.6860,0.0330,0.0557,-0.3267,
3.586281,0.6923,-0.8343,-0.0328,1.4535,0.6871,-1.6860,0.0330,0.0557,-0.3267,
3.587381,0.5474,-1.1336,0.4123,1.4535,0.6871,-1.6860,0.0330,0.0557,-0.3267,
3.619277,0.5474,-1.1336,0.4123,1.4535,0.6871,-1.6860,0.5539,0.1686,0.2262,
3.621598,0.5474,-1.1336,0.4123,1.4963,0.7275,-1.8620,0.5539,0.1686,0.2262,
3.658631,0.5474,-1.1336,0.4123,1.4963,0.7275,-1.8620,-0.2014,0.3284,1.1509,
3.661139,0.5474,-1.1336,0.4123,-1.5441,-2.0538,0.4072,-0.2014,0.3284,1.1509,
3.662672,0.2613,-1.3078,-0.1244,-1.5441,-2.0538,0.4072,-0.2014,0.3284,1.1509,
3.664513,0.3354,-0.6591,-0.1682,-1.5441,-2.0538,0.4072,-0.2014,0.3284,1.1509,
3.666396,0.3735,-0.6955,-0.0954,-1.5441,-2.0538,0.4072,-0.2014,0.3284,1.1509,
3.667742,0.3493,-0.6188,-0.0201,-1.5441,-2.0538,0.4072,-0.2014,0.3284,1.1509,
3.697857,0.3493,-0.6188,-0.0201,-1.5441,-2.0538,0.4072,-1.1431,0.6373,1.8316,
3.700589,0.3493,-0.6188,-0.0201,-0.9322,-1.6694,0.6448,-1.1431,0.6373,1.8316,
3.738138,0.3493,-0.6188,-0.0201,-0.9322,-1.6694,0.6448,-1.1026,0.9430,2.6965,
3.740750,0.3493,-0.6188,-0.0201,-0.7543,1.7570,0.3041,-1.1026,0.9430,2.6965,
3.742330,0.1920,-0.8612,0.0647,-0.7543,1.7570,0.3041,-1.1026,0.9430,2.6965,
3.743305,0.0334,-0.7361,0.1956,-0.7543,1.7570,0.3041,-1.1026,0.9430,2.6965,
3.744306,-0.1288,-0.5560,0.0805,-0.7543,1.7570,0.3041,-1.1026,0.9430,2.6965,
3.745690,-0.1185,-0.5832,0.0344,-0.7543,1.7570,0.3041,-1.1026,0.9430,2.6965,
3.777498,-0.1185,-0.5832,0.0344,-0.7543,1.7570,0.3041,-0.3089,0.2932,3.2303,
3.780186,-0.1185,-0.5832,0.0344,-3.2314,3.0850,1.5290,-0.3089,0.2932,3.2303,
3.816923,-0.0499,-0.7933,0.0686,-3.2314,3.0850,1.5290,-0.3089,0.2932,3.2303,
3.819649,-0.0536,-0.9074,0.0417,-3.2314,3.0850,1.5290,-0.3089,0.2932,3.2303,
3.820857,0.0212,-0.9298,-0.0597,-3.2314,3.0850,1.5290,-0.3089,0.2932,3.2303,
3.822194,0.0212,-0.9298,-0.0597,-3.2314,3.0850,1.5290,0.0191,-0.5611,2.9863,
3.823372,0.0212,-0.9298,-0.0597,-1.6555,0.8385,0.7012,0.0191,-0.5611,2.9863,
3.856703,0.0212,-0.9298,-0.0597,-1.6555,0.8385,0.7012,0.2663,-0.3438,2.6337,
3.859526,0.0212,-0.9298,-0.0597,-0.0270,-13.7112,0.3846,0.2663,-0.3438,2.6337,
3.891647,-0.0133,-1.0449,0.1470,-0.0270,-13.7112,0.3846,0.2663,-0.3438,2.6337,
3.894682,-0.1303,-3.2058,0.1621,-0.0270,-13.7112,0.3846,0.2663,-0.3438,2.6337,
3.896359,0.2545,-2.9349,-0.3267,-0.0270,-13.7112,0.3846,0.2663,-0.3438,2.6337,
3.899814,0.7861,-0.9142,-0.1987,-0.0270,-13.7112,0.3846,0.2663,-0.3438,2.6337,
3.900878,0.7861,-0.9142,-0.1987,-0.0270,-13.7112,0.3846,0.1044,-1.3537,2.2768,
3.901968,0.7861,-0.9142,-0.1987,0.8615,-13.4863,0.3317,0.1044,-1.3537,2.2768,
3.935605,0.7861,-0.9142,-0.1987,0.8615,-13.4863,0.3317,0.1395,-1.1342,0.1325,
3.937835,0.7861,-0.9142,-0.1987,4.0446,1.4843,-0.2782,0.1395,-1.1342,0.1325,
3.969499,0.4070,-0.7451,-0.0055,4.0446,1.4843,-0.2782,0.1395,-1.1342,0.1325,
3.976160,-0.1076,-0.9355,0.0236,4.0446,1.4843,-0.2782,0.1395,-1.1342,0.1325,
3.977115,-0.2786,-0.9506,0.0585,4.0446,1.4843,-0.2782,0.1395,-1.1342,0.1325,
3.978092,-0.2786,-0.9506,0.0585,4.0446,1.4843,-0.2782,0.4218,0.5201,-0.6185,
3.979127,-0.2786,-0.9506,0.0585,3.7328,1.4724,-0.4307,0.4218,0.5201,-0.6185,
4.014884,-0.2786,-0.9506,0.0585,3.7328,1.4724,-0.4307,0.3845,0.5638,0.1080,
4.017253,-0.2786,-0.9506,0.0585,-1.8384,1.0001,-0.3473,0.3845,0.5638,0.1080,
4.054464,-0.2212,-0.9640,-0.0648,-1.8384,1.0001,-0.3473,0.3845,0.5638,0.1080,
4.056538,-0.1422,-0.8197,-0.1054,-1.8384,1.0001,-0.3473,0.3845,0.5638,0.1080,
4.057289,-0.0123,-0.8602,-0.0446,-1.8384,1.0001,-0.3473,0.3845,0.5638,0.1080,
4.058165,0.0024,-0.9491,0.0006,-1.8384,1.0001,-0.3473,0.3845,0.5638,0.1080,
4.059076,-0.0560,-0.9171,-0.0062,-1.8384,1.0001,-0.3473,0.3845,0.5638,0.1080,
4.059672,-0.1149,-0.9550,-0.0558,-1.8384,1.0001,-0.3473,0.3845,0.5638,0.1080,
4.060590,-0.1149,-0.9550,-0.0558,-1.8384,1.0001,-0.3473,0.4367,-0.0818,0.2901,
4.061372,-0.1149,-0.9550,-0.0558,0.1543,1.0039,-0.3139,0.4367,-0.0818,0.2901,
4.093725,-0.1149,-0.9550,-0.0558,0.1543,1.0039,-0.3139,0.6019,-0.0104,0.2582,
4.095513,-0.1149,-0.9550,-0.0558,0.2514,0.9766,-0.5412,0.6019,-0.0104,0.2582,
4.133459,-0.1149,-0.9550,-0.0558,0.2514,0.9766,-0.5412,0.5710,0.1121,0.3594,
4.135479,-0.1149,-0.9550,-0.0558,0.2268,0.1917,-1.4816,0.5710,0.1121,0.3594,
4.136506,-0.0360,-1.0356,-0.1037,0.2268,0.1917,-1.4816,0.5710,0.1121,0.3594,
4.137416,0.0349,-0.9694,-0.1186,0.2268,0.1917,-1.4816,0.5710,0.1121,0.3594,
4.138131,0.0158,-0.9574,-0.1235,0.2268,0.1917,-1.4816,0.5710,0.1121,0.3594,
4.139270,0.0134,-0.9828,-0.1161,0.2268,0.1917,-1.4816,0.5710,0.1121,0.3594,
4.174672,0.0134,-0.9828,-0.1161,0.2268,0.1917,-1.4816,0.4463,0.0301,0.4158,
4.177615,0.0134,-0.9828,-0.1161,0.3833,0.1659,-1.6274,0.4463,0.0301,0.4158,
4.196794,0.0381,-0.9726,-0.0751,0.3833,0.1659,-1.6274,0.4463,0.0301,0.4158,
4.199487,0.0339,-0.9413,0.0133,0.3833,0.1659,-1.6274,0.4463,0.0301,0.4158,
4.200586,-0.0509,-0.9335,0.0585,0.3833,0.1659,-1.6274,0.4463,0.0301,0.4158,
4.212818,-0.0509,-0.9335,0.0585,0.3833,0.1659,-1.6274,0.4474,-0.0839,0.3476,
4.214351,-0.0509,-0.9335,0.0585,1.0958,0.2893,-1.8919,0.4474,-0.0839,0.3476,
4.252746,-0.0509,-0.9335,0.0585,1.0958,0.2893,-1.8919,0.6210,-0.1574,0.3381,
4.255340,-0.0509,-0.9335,0.0585,0.5082,0.5637,-0.8255,0.6210,-0.1574,0.3381,
4.285413,-0.1313,-0.9399,0.0111,0.5082,0.5637,-0.8255,0.6210,-0.1574,0.3381,
4.288197,-0.0694,-0.9679,-0.1220,0.5082,0.5637,-0.8255,0.6210,-0.1574,0.3381,
4.289644,0.0757,-1.0696,-0.1125,0.5082,0.5637,-0.8255,0.6210,-0.1574,0.3381,
4.291538,0.1600,-1.1566,0.0671,0.5082,0.5637,-0.8255,0.6210,-0.1574,0.3381,
4.292809,0.1600,-1.1566,0.0671,0.5082,0.5637,-0.8255,0.4090,-0.4482,0.3263,
4.294107,0.1600,-1.1566,0.0671,1.6127,-0.6966,-1.7899,0.4090,-0.4482,0.3263,
4.331344,0.1600,-1.1566,0.0671,1.6127,-0.6966,-1.7899,0.2823,-0.4397,-0.1211,
4.333454,0.1600,-1.1566,0.0671,0.7932,-2.5639,-0.9425,0.2823,-0.4397,-0.1211,
4.370758,0.1600,-1.1566,0.0671,0.7932,-2.5639,-0.9425,-0.2354,-0.3736,-0.2457,
4.373565,0.1600,-1.1566,0.0671,0.6669,-2.5002,-0.8507,-0.2354,-0.3736,-0.2457,
4.375889,0.1424,-1.1920,0.1841,0.6669,-2.5002,-0.8507,-0.2354,-0.3736,-0.2457,
4.377097,0.0168,-1.2833,0.1274,0.6669,-2.5002,-0.8507,-0.2354,-0.3736,-0.2457,
4.378350,-0.2185,-1.3007,-0.1855,0.6669,-2.5002,-0.8507,-0.2354,-0.3736,-0.2457,
4.379685,-0.3404,-1.2479,-0.5161,0.6669,-2.5002,-0.8507,-0.2354,-0.3736,-0.2457,
4.380907,-0.1102,-1.1942,-0.4565,0.6669,-2.5002,-0.8507,-0.2354,-0.3736,-0.2457,
4.411166,-0.1102,-1.1942,-0.4565,0.6669,-2.5002,-0.8507,-1.7705,-0.2373,0.0323,
4.413895,-0.1102,-1.1942,-0.4565,0.6590,-2.3960,-0.1631,-1.7705,-0.2373,0.0323,
4.451213,-0.1102,-1.1942,-0.4565,0.6590,-2.3960,-0.1631,-2.3383,-0.3118,-0.3607,
4.453584,-0.1102,-1.1942,-0.4565,-0.3904,-1.7143,-3.4751,-2.3383,-0.3118,-0.3607,
4.455001,0.1121,-1.1409,-0.2129,-0.3904,-1.7143,-3.4751,-2.3383,-0.3118,-0.3607,
4.456309,0.1492,-1.0488,0.0050,-0.3904,-1.7143,-3.4751,-2.3383,-0.3118,-0.3607,
4.457572,0.0004,-0.9843,0.1269,-0.3904,-1.7143,-3.4751,-2.3383,-0.3118,-0.3607,
4.458632,-0.2468,-0.9875,0.1282,-0.3904,-1.7143,-3.4751,-2.3383,-0.3118,-0.3607,
4.490296,-0.2468,-0.9875,0.1282,-0.3904,-1.7143,-3.4751,-1.8973,0.0163,-0.6058,
4.494436,-0.2468,-0.9875,0.1282,0.1549,0.0778,1.9634,-1.8973,0.0163,-0.6058,
4.530463,-0.3939,-1.0564,0.1182,0.1549,0.0778,1.9634,-1.8973,0.0163,-0.6058,
4.533264,-0.3152,-1.0747,0.0940,0.1549,0.0778,1.9634,-1.8973,0.0163,-0.6058,
4.534412,-0.1938,-1.0315,0.0400,0.1549,0.0778,1.9634,-1.8973,0.0163,-0.6058,
4.535460,-0.1938,-1.0315,0.0400,0.1549,0.0778,1.9634,-1.5127,0.1185,-0.3373,
4.536727,-0.1938,-1.0315,0.0400,-2.5728,-0.4572,2.4900,-1.5127,0.1185,-0.3373,
4.569561,-0.1938,-1.0315,0.0400,-2.5728,-0.4572,2.4900,-1.2155,-0.3619,-0.2905,
4.571990,-0.1938,-1.0315,0.0400,-0.2638,0.3266,0.8267,-1.2155,-0.3619,-0.2905,
4.610820,-0.1938,-1.0315,0.0400,-0.2638,0.3266,0.8267,-1.0855,-0.4663,-0.4651,
4.614423,-0.1154,-0.9814,-0.0253,-0.2638,0.3266,0.8267,-1.0855,-0.4663,-0.4651,
4.616229,-0.0692,-0.9572,-0.1611,-0.2638,0.3266,0.8267,-1.0855,-0.4663,-0.4651,
4.617256,0.0131,-0.9555,-0.2100,-0.2638,0.3266,0.8267,-1.0855,-0.4663,-0.4651,
4.618133,0.0972,-0.9697,-0.1511,-0.2638,0.3266,0.8267,-1.0855,-0.4663,-0.4651,
4.619624,0.0928,-0.9921,-0.1379,-0.2638,0.3266,0.8267,-1.0855,-0.4663,-0.4651,
4.620463,0.0928,-0.9921,-0.1379,-0.3932,0.2268,1.2203,-1.0855,-0.4663,-0.4651,
4.648344,0.0928,-0.9921,-0.1379,-0.3932,0.2268,1.2203,-0.8512,-0.4471,-0.7751,
4.650687,0.0928,-0.9921,-0.1379,-0.6308,0.1356,1.5186,-0.8512,-0.4471,-0.7751,
4.688525,0.0928,-0.9921,-0.1379,-0.6308,0.1356,1.5186,-0.5529,-0.4866,-0.8636,
4.690593,0.0928,-0.9921,-0.1379,0.1740,-0.1257,1.5093,-0.5529,-0.4866,-0.8636,
4.691586,-0.0313,-0.9912,-0.1677,0.1740,-0.1257,1.5093,-0.5529,-0.4866,-0.8636,
4.692734,-0.1313,-0.9557,-0.1506,0.1740,-0.1257,1.5093,-0.5529,-0.4866,-0.8636,
4.693463,-0.2080,-0.8873,-0.1093,0.1740,-0.1257,1.5093,-0.5529,-0.4866,-0.8636,
4.694158,-0.2783,-0.8030,-0.0927,0.1740,-0.1257,1.5093,-0.5529,-0.4866,-0.8636,
4.728750,-0.2783,-0.8030,-0.0927,0.1740,-0.1257,1.5093,-0.2237,-0.5558,-0.5291,
4.731058,-0.2783,-0.8030,-0.0927,-2.4517,0.8270,1.9104,-0.2237,-0.5558,-0.5291,
4.768135,-0.2329,-0.7371,-0.0839,-2.4517,0.8270,1.9104,-0.2237,-0.5558,-0.5291,
4.770347,-0.1486,-0.7388,-0.1220,-2.4517,0.8270,1.9104,-0.2237,-0.5558,-0.5291,
4.771234,-0.0663,-0.7757,-0.1894,-2.4517,0.8270,1.9104,-0.2237,-0.5558,-0.5291,
4.772332,-0.0663,-0.7757,-0.1894,-2.4517,0.8270,1.9104,0.1257,-0.4589,-0.0966,
4.773163,-0.0663,-0.7757,-0.1894,-1.8465,2.0938,1.7027,0.1257,-0.4589,-0.0966,
4.807655,-0.0663,-0.7757,-0.1894,-1.8465,2.0938,1.7027,0.3483,-0.5217,0.0100,
4.810353,-0.0663,-0.7757,-0.1894,0.3423,1.6798,0.2400,0.3483,-0.5217,0.0100,
4.847652,-0.0663,-0.7757,-0.1894,0.3423,1.6798,0.2400,0.5507,-0.5324,-0.0657,
4.850690,-0.0663,-0.7757,-0.1894,0.3698,1.7104,0.0388,0.5507,-0.5324,-0.0657,
4.851908,0.0146,-0.7933,-0.2297,0.3698,1.7104,0.0388,0.5507,-0.5324,-0.0657,
4.853026,0.0683,-0.7881,-0.2676,0.3698,1.7104,0.0388,0.5507,-0.5324,-0.0657,
4.853999,0.1214,-0.8006,-0.3067,0.3698,1.7104,0.0388,0.5507,-0.5324,-0.0657,
4.854964,0.1719,-0.8534,-0.3460,0.3698,1.7104,0.0388,0.5507,-0.5324,-0.0657,
4.856550,0.1812,-0.9232,-0.4056,0.3698,1.7104,0.0388,0.5507,-0.5324,-0.0657,
4.887082,0.1812,-0.9232,-0.4056,0.3698,1.7104,0.0388,0.6935,-0.5068,-0.2798,
4.890043,0.1812,-0.9232,-0.4056,0.3100,1.7469,-0.2129,0.6935,-0.5068,-0.2798,
4.927041,0.1812,-0.9232,-0.4056,0.3100,1.7469,-0.2129,0.4815,-0.5196,-0.5717,
4.929471,0.1812,-0.9232,-0.4056,1.1969,0.4804,-1.8449,0.4815,-0.5196,-0.5717,
4.930947,0.1805,-1.0012,-0.5085,1.1969,0.4804,-1.8449,0.4815,-0.5196,-0.5717,
4.933047,0.1592,-1.0574,-0.6113,1.1969,0.4804,-1.8449,0.4815,-0.5196,-0.5717,
4.934167,0.1160,-1.0356,-0.6267,1.1969,0.4804,-1.8449,0.4815,-0.5196,-0.5717,
4.935521,0.0820,-0.9594,-0.5879,1.1969,0.4804,-1.8449,0.4815,-0.5196,-0.5717,
4.965918,0.0820,-0.9594,-0.5879,0.3792,-0.4221,-3.6473,0.4815,-0.5196,-0.5717,
4.970578,0.0820,-0.9594,-0.5879,0.3792,-0.4221,-3.6473,0.0437,-0.0402,-0.6303,
5.005853,0.0671,-0.9352,-0.6045,0.3792,-0.4221,-3.6473,0.0437,-0.0402,-0.6303,
5.008994,0.0393,-1.0469,-0.5026,0.3792,-0.4221,-3.6473,0.0437,-0.0402,-0.6303,
5.010190,0.1245,-1.5184,-0.5674,0.3792,-0.4221,-3.6473,0.0437,-0.0402,-0.6303,
5.011309,0.1245,-1.5184,-0.5674,0.3792,-0.4221,-3.6473,0.0138,-0.4546,-0.7176,
5.013158,0.1245,-1.5184,-0.5674,-0.2583,-1.8784,-3.0888,0.0138,-0.4546,-0.7176,
5.045949,0.1245,-1.5184,-0.5674,-0.2583,-1.8784,-3.0888,0.1566,0.5542,-1.5336,
5.048763,0.1245,-1.5184,-0.5674,-1.2596,-1.4480,4.9059,0.1566,0.5542,-1.5336,
5.085344,0.1245,-1.5184,-0.5674,-1.2596,-1.4480,4.9059,0.8756,0.7513,-0.5706,
5.087966,0.5873,-1.9811,-0.0990,-1.2596,-1.4480,4.9059,0.8756,0.7513,-0.5706,
5.089476,0.3813,-1.1927,0.8674,-1.2596,-1.4480,4.9059,0.8756,0.7513,-0.5706,
5.090635,-0.8578,-0.1823,0.0573,-1.2596,-1.4480,4.9059,0.8756,0.7513,-0.5706,
5.091809,-1.2690,-0.3591,-0.9431,-1.2596,-1.4480,4.9059,0.8756,0.7513,-0.5706,
5.093080,-0.7093,-1.0354,-0.6028,-1.2596,-1.4480,4.9059,0.8756,0.7513,-0.5706,
5.094332,-0.7093,-1.0354,-0.6028,-1.5098,-1.3940,4.4465,0.8756,0.7513,-0.5706,
5.124217,-0.7093,-1.0354,-0.6028,-1.5098,-1.3940,4.4465,0.1725,-0.1435,1.4214,
5.126801,-0.7093,-1.0354,-0.6028,-0.9423,-1.2707,4.3157,0.1725,-0.1435,1.4214,
5.164234,-0.7093,-1.0354,-0.6028,-0.9423,-1.2707,4.3157,0.1949,0.5766,1.2627,
5.166978,-0.7093,-1.0354,-0.6028,-7.7650,0.4225,-2.3863,0.1949,0.5766,1.2627,
5.171670,-0.1779,-1.4612,0.3378,-7.7650,0.4225,-2.3863,0.1949,0.5766,1.2627,
5.173490,0.0307,-1.3928,0.2999,-7.7650,0.4225,-2.3863,0.1949,0.5766,1.2627,
5.174670,0.2005,-1.0068,0.1262,-7.7650,0.4225,-2.3863,0.1949,0.5766,1.2627,
5.176058,0.4311,-0.7405,0.1487,-7.7650,0.4225,-2.3863,0.1949,0.5766,1.2627,
5.203523,0.4311,-0.7405,0.1487,-7.7650,0.4225,-2.3863,0.6498,0.2751,0.6694,
5.206416,0.4311,-0.7405,0.1487,1.6575,-0.4461,3.1265,0.6498,0.2751,0.6694,
5.243514,0.4311,-0.7405,0.1487,1.6575,-0.4461,3.1265,0.9023,-0.1041,0.0984,
5.246220,0.4311,-0.7405,0.1487,2.5174,0.3590,0.5678,0.9023,-0.1041,0.0984,
5.247524,0.4558,-0.7820,0.0173,2.5174,0.3590,0.5678,0.9023,-0.1041,0.0984,
5.248909,0.3180,-0.9892,-0.0695,2.5174,0.3590,0.5678,0.9023,-0.1041,0.0984,
5.250058,0.1519,-1.1329,-0.0463,2.5174,0.3590,0.5678,0.9023,-0.1041,0.0984,
5.251314,0.0444,-1.1385,-0.0526,2.5174,0.3590,0.5678,0.9023,-0.1041,0.0984,
5.283100,0.0444,-1.1385,-0.0526,2.5174,0.3590,0.5678,0.6690,-0.1084,0.0100,
5.285782,0.0444,-1.1385,-0.0526,2.4824,0.3730,0.3034,0.6690,-0.1084,0.0100,
5.328121,0.0444,-1.1385,-0.0526,-0.6647,-0.2012,-0.5801,0.6690,-0.1084,0.0100,
5.330936,0.0444,-1.1385,-0.0526,-0.6647,-0.2012,-0.5801,0.4900,-0.2234,0.2177,
5.332351,-0.0396,-1.0329,-0.1149,-0.6647,-0.2012,-0.5801,0.4900,-0.2234,0.2177,
5.333482,-0.0734,-0.9140,-0.1472,-0.6647,-0.2012,-0.5801,0.4900,-0.2234,0.2177,
5.334621,-0.0758,-0.8881,-0.0963,-0.6647,-0.2012,-0.5801,0.4900,-0.2234,0.2177,
5.336487,-0.0301,-0.9203,-0.0375,-0.6647,-0.2012,-0.5801,0.4900,-0.2234,0.2177,
5.361867,-0.0301,-0.9203,-0.0375,-0.6647,-0.2012,-0.5801,0.4367,-0.2192,0.3977,
5.363684,-0.0301,-0.9203,-0.0375,-0.4974,-0.1860,-0.7354,0.4367,-0.2192,0.3977,
5.385987,0.0613,-0.9604,0.0236,-0.4974,-0.1860,-0.7354,0.4367,-0.2192,0.3977,
5.388238,0.1189,-0.9968,0.0104,-0.4974,-0.1860,-0.7354,0.4367,-0.2192,0.3977,
5.389608,0.1338,-1.0131,-0.0570,-0.4974,-0.1860,-0.7354,0.4367,-0.2192,0.3977,
5.405340,0.1338,-1.0131,-0.0570,-0.4974,-0.1860,-0.7354,0.6530,-0.0285,0.3508,
5.407498,0.1338,-1.0131,-0.0570,-0.2765,0.8411,-0.3180,0.6530,-0.0285,0.3508,
5.442261,0.1338,-1.0131,-0.0570,-0.2765,0.8411,-0.3180,0.7009,-0.0828,0.2198,
5.444681,0.1338,-1.0131,-0.0570,1.1433,0.0868,-0.5831,0.7009,-0.0828,0.2198,
5.474660,0.1170,-0.9887,-0.0639,1.1433,0.0868,-0.5831,0.7009,-0.0828,0.2198,
5.477009,0.0867,-0.9548,-0.0668,1.1433,0.0868,-0.5831,0.7009,-0.0828,0.2198,
5.478305,0.0048,-0.9496,-0.0924,1.1433,0.0868,-0.5831,0.7009,-0.0828,0.2198,
5.479638,-0.0675,-0.9504,-0.0797,1.1433,0.0868,-0.5831,0.7009,-0.0828,0.2198,
5.482067,-0.0675,-0.9504,-0.0797,0.0763,0.5386,-1.2440,0.7009,-0.0828,0.2198,
5.483417,-0.0675,-0.9504,-0.0797,0.0763,0.5386,-1.2440,0.6700,0.0216,0.1612,
5.520678,-0.0675,-0.9504,-0.0797,0.0763,0.5386,-1.2440,0.6785,0.1856,0.3317,
5.522989,-0.0675,-0.9504,-0.0797,-0.5402,0.4691,-1.1672,0.6785,0.1856,0.3317,
5.561117,-0.0675,-0.9504,-0.0797,-0.3257,0.4314,-1.4322,0.6785,0.1856,0.3317,
5.563461,-0.0675,-0.9504,-0.0797,-0.3257,0.4314,-1.4322,0.7467,0.1654,0.5224,
5.564718,-0.0900,-0.9462,-0.0575,-0.3257,0.4314,-1.4322,0.7467,0.1654,0.5224,
5.566038,-0.0697,-0.9482,-0.0529,-0.3257,0.4314,-1.4322,0.7467,0.1654,0.5224,
5.567040,-0.0489,-0.9741,-0.0301,-0.3257,0.4314,-1.4322,0.7467,0.1654,0.5224,
5.568146,0.0012,-0.9836,-0.0555,-0.3257,0.4314,-1.4322,0.7467,0.1654,0.5224,
5.569493,0.0708,-0.9736,-0.0705,-0.3257,0.4314,-1.4322,0.7467,0.1654,0.5224,
5.600295,0.0708,-0.9736,-0.0705,-0.3257,0.4314,-1.4322,0.7126,0.1654,0.5181,
5.602779,0.0708,-0.9736,-0.0705,-0.1157,0.3841,-1.6769,0.7126,0.1654,0.5181,
5.639549,0.0708,-0.9736,-0.0705,-0.1157,0.3841,-1.6769,0.7361,0.2165,0.4073,
5.641891,0.0708,-0.9736,-0.0705,1.3290,0.2052,-1.9210,0.7361,0.2165,0.4073,
5.643282,0.1170,-0.9496,-0.0140,1.3290,0.2052,-1.9210,0.7361,0.2165,0.4073,
5.644295,0.1025,-0.9721,0.0326,1.3290,0.2052,-1.9210,0.7361,0.2165,0.4073,
5.645770,0.0596,-0.9956,0.0290,1.3290,0.2052,-1.9210,0.7361,0.2165,0.4073,
5.646767,0.0290,-0.9956,-0.0116,1.3290,0.2052,-1.9210,0.7361,0.2165,0.4073,
5.679781,0.0290,-0.9956,-0.0116,1.3290,0.2052,-1.9210,0.7893,0.1739,0.4915,
5.682688,0.0290,-0.9956,-0.0116,1.5100,-0.0446,-1.5705,0.7893,0.1739,0.4915,
5.719229,0.0290,-0.9956,-0.0116,1.5100,-0.0446,-1.5705,0.4421,-0.1180,0.2869,
5.721136,0.0290,-0.9956,-0.0116,2.2704,-2.0688,-2.0588,0.4421,-0.1180,0.2869,
5.722259,0.0686,-1.0376,-0.0643,2.2704,-2.0688,-2.0588,0.4421,-0.1180,0.2869,
5.723011,0.1617,-1.2318,0.0131,2.2704,-2.0688,-2.0588,0.4421,-0.1180,0.2869,
5.723953,0.1746,-1.3112,-0.0060,2.2704,-2.0688,-2.0588,0.4421,-0.1180,0.2869,
5.724784,0.1023,-1.0188,-0.2737,2.2704,-2.0688,-2.0588,0.4421,-0.1180,0.2869,
5.758526,0.1023,-1.0188,-0.2737,2.2704,-2.0688,-2.0588,-0.5721,-0.0967,-0.1903,
5.760944,0.1023,-1.0188,-0.2737,2.1542,-1.9883,-1.8129,-0.5721,-0.0967,-0.1903,
5.797142,0.1023,-1.0188,-0.2737,2.1542,-1.9883,-1.8129,-1.9356,-0.0008,-0.6004,
5.798767,0.1023,-1.0188,-0.2737,1.3849,-2.0041,-3.3676,-1.9356,-0.0008,-0.6004,
5.799653,0.0945,-1.2149,-0.3038,1.3849,-2.0041,-3.3676,-1.9356,-0.0008,-0.6004,
5.800724,0.0510,-1.3967,-0.2024,1.3849,-2.0041,-3.3676,-1.9356,-0.0008,-0.6004,
5.801386,-0.0988,-1.2005,-0.1626,1.3849,-2.0041,-3.3676,-1.9356,-0.0008,-0.6004,
5.802769,-0.2409,-1.0302,-0.0748,1.3849,-2.0041,-3.3676,-1.9356,-0.0008,-0.6004,
5.836356,-0.2409,-1.0302,-0.0748,1.3849,-2.0041,-3.3676,-2.5236,0.2517,-0.7645,
5.837720,-0.2409,-1.0302,-0.0748,1.0698,-1.9261,-2.3348,-2.5236,0.2517,-0.7645,
5.876687,-0.3514,-0.9938,0.0935,1.0698,-1.9261,-2.3348,-2.5236,0.2517,-0.7645,
5.877989,-0.4078,-1.1336,0.2164,1.0698,-1.9261,-2.3348,-2.5236,0.2517,-0.7645,
5.878622,-0.3724,-1.3044,0.1839,1.0698,-1.9261,-2.3348,-2.5236,0.2517,-0.7645,
5.879228,-0.3724,-1.3044,0.1839,1.0698,-1.9261,-2.3348,-2.2296,0.4956,-0.5365,
5.879910,-0.3724,-1.3044,0.1839,-2.1846,-0.6440,0.6104,-2.2296,0.4956,-0.5365,
5.917437,-0.3724,-1.3044,0.1839,-2.1846,-0.6440,0.6104,-1.8621,0.8248,-0.3309,
5.919909,-0.3724,-1.3044,0.1839,-3.7289,-2.3445,3.2398,-1.8621,0.8248,-0.3309,
5.956859,-0.3724,-1.3044,0.1839,-3.7289,-2.3445,3.2398,-1.6810,0.7534,-0.3757,
5.959439,-0.3724,-1.3044,0.1839,-3.8706,-2.4435,3.8210,-1.6810,0.7534,-0.3757,
5.960783,-0.3487,-1.2868,0.0556,-3.8706,-2.4435,3.8210,-1.6810,0.7534,-0.3757,
5.961952,-0.2759,-1.1685,-0.0470,-3.8706,-2.4435,3.8210,-1.6810,0.7534,-0.3757,
5.963338,-0.1354,-1.0456,-0.0775,-3.8706,-2.4435,3.8210,-1.6810,0.7534,-0.3757,
5.964314,-0.0272,-0.9755,-0.0468,-3.8706,-2.4435,3.8210,-1.6810,0.7534,-0.3757,
5.966114,0.1377,-0.9582,-0.0651,-3.8706,-2.4435,3.8210,-1.6810,0.7534,-0.3757,
5.996232,0.1377,-0.9582,-0.0651,-3.8706,-2.4435,3.8210,-1.2506,0.2900,-0.6377,
5.998997,0.1377,-0.9582,-0.0651,-1.8565,-0.8174,2.2102,-1.2506,0.2900,-0.6377,
6.035789,0.1377,-0.9582,-0.0651,-1.8565,-0.8174,2.2102,-0.9556,-0.5377,-0.9136,
6.038094,0.1377,-0.9582,-0.0651,0.3913,-0.2492,1.8264,-0.9556,-0.5377,-0.9136,
6.039497,0.1551,-1.0078,-0.1423,0.3913,-0.2492,1.8264,-0.9556,-0.5377,-0.9136,
6.040829,0.0449,-1.0105,-0.1865,0.3913,-0.2492,1.8264,-0.9556,-0.5377,-0.9136,
6.042035,-0.1215,-0.9208,-0.1616,0.3913,-0.2492,1.8264,-0.9556,-0.5377,-0.9136,
6.043168,-0.2778,-0.7757,-0.0585,0.3913,-0.2492,1.8264,-0.9556,-0.5377,-0.9136,
6.074922,-0.2778,-0.7757,-0.0585,0.3913,-0.2492,1.8264,-0.6914,-0.8690,-0.6154,
6.077595,-0.2778,-0.7757,-0.0585,0.2697,-0.3513,2.0763,-0.6914,-0.8690,-0.6154,
6.116855,-0.2888,-0.6494,0.0698,0.2697,-0.3513,2.0763,-0.6914,-0.8690,-0.6154,
6.119815,-0.2204,-0.5719,0.0576,0.2697,-0.3513,2.0763,-0.6914,-0.8690,-0.6154,
6.121123,-0.1198,-0.6115,-0.0446,0.2697,-0.3513,2.0763,-0.6914,-0.8690,-0.6154,
6.122254,-0.1198,-0.6115,-0.0446,0.2697,-0.3513,2.0763,-0.0575,-0.4834,-0.0007,
6.123466,-0.1198,-0.6115,-0.0446,-2.9663,1.6723,2.8605,-0.0575,-0.4834,-0.0007,
6.154956,-0.1198,-0.6115,-0.0446,-2.9663,1.6723,2.8605,0.4719,-0.5238,0.3104,
6.157620,-0.1198,-0.6115,-0.0446,-1.7194,3.2354,2.6896,0.4719,-0.5238,0.3104,
6.194477,-0.1198,-0.6115,-0.0446,-1.7194,3.2354,2.6896,0.7063,-0.6187,0.4414,
6.196944,-0.1198,-0.6115,-0.0446,-1.4563,3.2711,2.3956,0.7063,-0.6187,0.4414,
6.198297,-0.0313,-0.6882,-0.1520,-1.4563,3.2711,2.3956,0.7063,-0.6187,0.4414,
6.199395,0.0275,-0.7026,-0.2666,-1.4563,3.2711,2.3956,0.7063,-0.6187,0.4414,
6.200514,0.0774,-0.7271,-0.3624,-1.4563,3.2711,2.3956,0.7063,-0.6187,0.4414,
6.202297,0.1849,-0.8131,-0.4440,-1.4563,3.2711,2.3956,0.7063,-0.6187,0.4414,
6.203441,0.2582,-0.9227,-0.5253,-1.4563,3.2711,2.3956,0.7063,-0.6187,0.4414,
6.234034,0.2582,-0.9227,-0.5253,-1.4563,3.2711,2.3956,0.7403,-0.3864,0.1655,
6.236301,0.2582,-0.9227,-0.5253,0.7939,2.1040,-0.9133,0.7403,-0.3864,0.1655,
6.273435,0.2582,-0.9227,-0.5253,0.7939,2.1040,-0.9133,0.3483,-0.0019,-0.2457,
6.275310,0.2582,-0.9227,-0.5253,2.2012,-0.4429,-3.8209,0.3483,-0.0019,-0.2457,
6.276948,0.2784,-1.0197,-0.6419,2.2012,-0.4429,-3.8209,0.3483,-0.0019,-0.2457,
6.278250,0.2235,-1.0923,-0.7758,2.2012,-0.4429,-3.8209,0.3483,-0.0019,-0.2457,
6.279717,0.0791,-1.1233,-0.8244,2.2012,-0.4429,-3.8209,0.3483,-0.0019,-0.2457,
6.280914,-0.0330,-1.1485,-0.7416,2.2012,-0.4429,-3.8209,0.3483,-0.0019,-0.2457,
6.312678,-0.0330,-1.1485,-0.7416,2.2012,-0.4429,-3.8209,-0.3089,-0.0359,-0.3427,
6.314746,-0.0330,-1.1485,-0.7416,2.0419,-0.4712,-3.6430,-0.3089,-0.0359,-0.3427,
6.352408,-0.0308,-1.3838,-0.7032,2.0419,-0.4712,-3.6430,-0.3089,-0.0359,-0.3427,
6.354849,0.1223,-1.7698,-0.9026,2.0419,-0.4712,-3.6430,-0.3089,-0.0359,-0.3427,
6.356007,0.4033,-1.5797,-0.0580,2.0419,-0.4712,-3.6430,-0.3089,-0.0359,-0.3427,
6.357439,0.4033,-1.5797,-0.0580,2.0419,-0.4712,-3.6430,-0.9534,0.1089,-0.6707,
6.358922,0.4033,-1.5797,-0.0580,-0.6425,-2.5794,-4.2838,-0.9534,0.1089,-0.6707,
6.392736,0.4033,-1.5797,-0.0580,-0.6425,-2.5794,-4.2838,0.2684,0.3262,-0.4428,
6.395123,0.4033,-1.5797,-0.0580,-0.3100,-2.7165,2.1985,0.2684,0.3262,-0.4428,
6.432045,0.4033,-1.5797,-0.0580,-0.3100,-2.7165,2.1985,1.1963,0.3060,0.9623,
6.434267,0.4033,-1.5797,-0.0580,0.0187,-2.5156,1.7096,1.1963,0.3060,0.9623,
6.435799,-0.3477,-0.3679,0.7209,0.0187,-2.5156,1.7096,1.1963,0.3060,0.9623,
6.437049,-1.0823,0.0410,0.1861,0.0187,-2.5156,1.7096,1.1963,0.3060,0.9623,
6.438159,-0.7850,-0.6951,-0.2173,0.0187,-2.5156,1.7096,1.1963,0.3060,0.9623,
6.439584,-0.0672,-1.4588,-0.0426,0.0187,-2.5156,1.7096,1.1963,0.3060,0.9623,
6.440732,0.2726,-1.6303,-0.0255,0.0187,-2.5156,1.7096,1.1963,0.3060,0.9623,
6.471593,0.2726,-1.6303,-0.0255,0.0187,-2.5156,1.7096,0.9449,1.2967,0.7003,
6.475425,0.2726,-1.6303,-0.0255,-6.6178,2.7785,1.8338,0.9449,1.2967,0.7003,
6.513497,0.2726,-1.6303,-0.0255,-6.6178,2.7785,1.8338,0.6445,0.0823,0.2869,
6.516119,0.2726,-1.6303,-0.0255,1.8739,-1.9874,-0.3026,0.6445,0.0823,0.2869,
6.517443,0.2763,-1.1529,-0.1953,1.8739,-1.9874,-0.3026,0.6445,0.0823,0.2869,
6.518728,0.0942,-0.8150,-0.4323,1.8739,-1.9874,-0.3026,0.6445,0.0823,0.2869,
6.519980,-0.0289,-0.7544,-0.2825,1.8739,-1.9874,-0.3026,0.6445,0.0823,0.2869,
6.521234,-0.0900,-0.7644,-0.0678,1.8739,-1.9874,-0.3026,0.6445,0.0823,0.2869,
6.551050,-0.0900,-0.7644,-0.0678,1.8739,-1.9874,-0.3026,0.3867,-0.2799,0.3956,
6.553628,-0.0900,-0.7644,-0.0678,2.0124,-1.9256,-0.4436,0.3867,-0.2799,0.3956,
6.591136,-0.0900,-0.7644,-0.0678,2.0124,-1.9256,-0.4436,0.6711,0.1569,0.3530,
6.593204,-0.0900,-0.7644,-0.0678,-0.6385,2.0031,0.4294,0.6711,0.1569,0.3530,
6.594790,-0.0922,-0.8790,0.0468,-0.6385,2.0031,0.4294,0.6711,0.1569,0.3530,
6.595670,-0.0186,-1.0478,0.0818,-0.6385,2.0031,0.4294,0.6711,0.1569,0.3530,
6.596913,0.0437,-1.1292,0.0109,-0.6385,2.0031,0.4294,0.6711,0.1569,0.3530,
6.597726,0.1177,-1.0845,-0.1010,-0.6385,2.0031,0.4294,0.6711,0.1569,0.3530,
6.629982,0.1177,-1.0845,-0.1010,-0.6385,2.0031,0.4294,0.9182,0.3433,0.1857,
6.632772,0.1177,-1.0845,-0.1010,0.5633,-0.7606,1.0188,0.9182,0.3433,0.1857,
6.670089,0.1177,-1.0845,-0.1010,0.5633,-0.7606,1.0188,0.6498,0.0727,0.1389,
6.672750,0.1177,-1.0845,-0.1010,1.2294,0.5115,-0.7140,0.6498,0.0727,0.1389,
6.674172,0.1470,-1.0009,-0.1858,1.2294,0.5115,-0.7140,0.6498,0.0727,0.1389,
6.675365,0.1013,-0.9394,-0.1826,1.2294,0.5115,-0.7140,0.6498,0.0727,0.1389,
6.676646,0.0889,-0.9362,-0.0961,1.2294,0.5115,-0.7140,0.6498,0.0727,0.1389,
6.677925,0.1023,-0.9455,-0.0279,1.2294,0.5115,-0.7140,0.6498,0.0727,0.1389,
6.709585,0.1023,-0.9455,-0.0279,1.2294,0.5115,-0.7140,0.5060,0.0365,0.0696,
6.712061,0.1023,-0.9455,-0.0279,1.2348,0.5165,-0.8974,0.5060,0.0365,0.0696,
6.746485,0.0933,-0.9460,0.0165,1.2348,0.5165,-0.8974,0.5060,0.0365,0.0696,
6.749552,0.0315,-0.9548,0.0114,1.2348,0.5165,-0.8974,0.5060,0.0365,0.0696,
6.750636,-0.0545,-0.9584,-0.1049,1.2348,0.5165,-0.8974,0.5060,0.0365,0.0696,
6.751944,-0.0545,-0.9584,-0.1049,1.2348,0.5165,-0.8974,0.7201,0.0812,-0.0284,
6.753232,-0.0545,-0.9584,-0.1049,0.8478,0.6187,0.3315,0.7201,0.0812,-0.0284,
6.788973,-0.0545,-0.9584,-0.1049,0.8478,0.6187,0.3315,0.6541,0.0024,0.0941,
6.791350,-0.0545,-0.9584,-0.1049,-0.4445,0.3628,-1.7019,0.6541,0.0024,0.0941,
6.827680,-0.0545,-0.9584,-0.1049,-0.4445,0.3628,-1.7019,0.3281,-0.0178,0.1974,
6.830528,-0.0545,-0.9584,-0.1049,-0.3608,0.3558,-1.8004,0.3281,-0.0178,0.1974,
6.832014,-0.0826,-0.9731,-0.2085,-0.3608,0.3558,-1.8004,0.3281,-0.0178,0.1974,
6.832999,-0.0450,-0.9926,-0.2393,-0.3608,0.3558,-1.8004,0.3281,-0.0178,0.1974,
6.834341,0.0078,-0.9885,-0.1860,-0.3608,0.3558,-1.8004,0.3281,-0.0178,0.1974,
6.835426,0.0268,-0.9809,-0.0878,-0.3608,0.3558,-1.8004,0.3281,-0.0178,0.1974,
6.837023,0.0425,-0.9902,-0.0399,-0.3608,0.3558,-1.8004,0.3281,-0.0178,0.1974,
6.867047,0.0425,-0.9902,-0.0399,0.5525,0.2328,-1.1603,0.3281,-0.0178,0.1974,
6.869352,0.0425,-0.9902,-0.0399,0.5525,0.2328,-1.1603,0.4090,0.0450,0.1932,
6.907125,0.0425,-0.9902,-0.0399,0.5525,0.2328,-1.1603,0.7467,0.1153,0.2134,
6.909139,0.0425,-0.9902,-0.0399,0.6874,0.2485,-0.2746,0.7467,0.1153,0.2134,
6.910601,0.0644,-0.9934,-0.0094,0.6874,0.2485,-0.2746,0.7467,0.1153,0.2134,
6.911794,0.0398,-0.9821,0.0234,0.6874,0.2485,-0.2746,0.7467,0.1153,0.2134,
6.912911,-0.0084,-0.9745,0.0312,0.6874,0.2485,-0.2746,0.7467,0.1153,0.2134,
6.913882,-0.0460,-0.9811,-0.0179,0.6874,0.2485,-0.2746,0.7467,0.1153,0.2134,
6.947474,-0.0460,-0.9811,-0.0179,0.6874,0.2485,-0.2746,0.9779,0.0003,0.3093,
6.950373,-0.0460,-0.9811,-0.0179,0.7947,0.2158,-0.6461,0.9779,0.0003,0.3093,
6.988440,-0.0460,-0.9811,-0.0179,0.7947,0.2158,-0.6461,0.8799,0.1132,0.4009,
6.991635,-0.0799,-1.0009,-0.0575,0.7947,0.2158,-0.6461,0.8799,0.1132,0.4009,
6.992653,-0.1098,-0.9975,-0.0880,0.7947,0.2158,-0.6461,0.8799,0.1132,0.4009,
6.993942,-0.0907,-1.0122,-0.1281,0.7947,0.2158,-0.6461,0.8799,0.1132,0.4009,
6.994644,-0.0387,-1.0549,-0.1152,0.7947,0.2158,-0.6461,0.8799,0.1132,0.4009,
6.996020,-0.0387,-1.0549,-0.1152,-0.1254,0.0754,-1.6403,0.8799,0.1132,0.4009,
7.025918,-0.0387,-1.0549,-0.1152,-0.1254,0.0754,-1.6403,0.8298,-0.0466,0.6012,
7.027966,-0.0387,-1.0549,-0.1152,0.1032,0.0153,-1.9305,0.8298,-0.0466,0.6012,
7.066212,-0.0387,-1.0549,-0.1152,0.1032,0.0153,-1.9305,0.8170,-0.5984,0.7173,
7.068126,-0.0387,-1.0549,-0.1152,0.7000,-0.6550,-2.6409,0.8170,-0.5984,0.7173,
7.069257,0.0070,-1.0969,-0.0477,0.7000,-0.6550,-2.6409,0.8170,-0.5984,0.7173,
7.070090,0.0544,-1.1341,0.0116,0.7000,-0.6550,-2.6409,0.8170,-0.5984,0.7173,
7.072884,0.1490,-1.2230,0.0769,0.7000,-0.6550,-2.6409,0.8170,-0.5984,0.7173,
7.074348,0.2323,-1.3886,0.1914,0.7000,-0.6550,-2.6409,0.8170,-0.5984,0.7173,
7.105369,0.2323,-1.3886,0.1914,0.7000,-0.6550,-2.6409,0.3952,-0.8210,0.1889,
7.107215,0.2323,-1.3886,0.1914,2.4943,-2.5483,-0.9476,0.3952,-0.8210,0.1889,
7.144938,0.1287,-1.3454,0.0683,2.4943,-2.5483,-0.9476,0.3952,-0.8210,0.1889,
7.146873,-0.1921,-1.1912,-0.3822,2.4943,-2.5483,-0.9476,0.3952,-0.8210,0.1889,
7.147807,-0.3560,-1.1475,-0.5896,2.4943,-2.5483,-0.9476,0.3952,-0.8210,0.1889,
7.148817,-0.3560,-1.1475,-0.5896,2.4943,-2.5483,-0.9476,-0.7191,-0.5377,-0.2020,
7.149553,-0.3560,-1.1475,-0.5896,-0.4078,-2.2515,-4.4826,-0.7191,-0.5377,-0.2020,
7.185365,-0.3560,-1.1475,-0.5896,-0.4078,-2.2515,-4.4826,-2.4043,-0.4674,-0.1093,
7.187504,-0.3560,-1.1475,-0.5896,0.5691,-0.3335,-1.2396,-2.4043,-0.4674,-0.1093,
7.224607,-0.3560,-1.1475,-0.5896,0.5691,-0.3335,-1.2396,-2.7420,-0.5728,-0.5024,
7.227029,-0.3560,-1.1475,-0.5896,0.3643,-0.3061,-0.1777,-2.7420,-0.5728,-0.5024,
7.228221,-0.1713,-1.1219,-0.3656,0.3643,-0.3061,-0.1777,-2.7420,-0.5728,-0.5024,
7.229599,0.0422,-1.0305,-0.0260,0.3643,-0.3061,-0.1777,-2.7420,-0.5728,-0.5024,
7.230438,0.0312,-0.9789,0.1924,0.3643,-0.3061,-0.1777,-2.7420,-0.5728,-0.5024,
7.231540,-0.0807,-1.0131,0.2789,0.3643,-0.3061,-0.1777,-2.7420,-0.5728,-0.5024,
7.232556,-0.2409,-1.0940,0.2471,0.3643,-0.3061,-0.1777,-2.7420,-0.5728,-0.5024,
7.263988,-0.2409,-1.0940,0.2471,0.3643,-0.3061,-0.1777,-2.3010,-0.1073,-0.6292,
7.266598,-0.2409,-1.0940,0.2471,0.1184,-0.3698,0.7093,-2.3010,-0.1073,-0.6292,
7.304214,-0.2409,-1.0940,0.2471,0.1184,-0.3698,0.7093,-2.1199,0.3859,-0.2755,
7.308012,-0.2409,-1.0940,0.2471,-2.0872,-0.9048,4.3052,-2.1199,0.3859,-0.2755,
7.309698,-0.4208,-1.1482,0.1445,-2.0872,-0.9048,4.3052,-2.1199,0.3859,-0.2755,
7.311132,-0.4364,-1.1392,0.0031,-2.0872,-0.9048,4.3052,-2.1199,0.3859,-0.2755,
7.312391,-0.3350,-1.1084,-0.1306,-2.0872,-0.9048,4.3052,-2.1199,0.3859,-0.2755,
7.313604,-0.2111,-1.0508,-0.1867,-2.0872,-0.9048,4.3052,-2.1199,0.3859,-0.2755,
7.343002,-0.2111,-1.0508,-0.1867,-2.0872,-0.9048,4.3052,-2.1955,0.4626,-0.1115,
7.345703,-0.2111,-1.0508,-0.1867,-2.9117,-1.2437,1.8991,-2.1955,0.4626,-0.1115,
7.382818,-0.0716,-1.0019,-0.0709,-2.9117,-1.2437,1.8991,-2.1955,0.4626,-0.1115,
7.385624,0.0148,-0.9706,-0.0011,-2.9117,-1.2437,1.8991,-2.1955,0.4626,-0.1115,
7.386856,0.0928,-0.9628,-0.1037,-2.9117,-1.2437,1.8991,-2.1955,0.4626,-0.1115,
7.387913,0.0928,-0.9628,-0.1037,-2.9117,-1.2437,1.8991,-1.7300,0.0493,-0.3693,
7.390311,0.0928,-0.9628,-0.1037,0.2677,-0.2729,2.9486,-1.7300,0.0493,-0.3693,
7.423986,0.0928,-0.9628,-0.1037,0.2677,-0.2729,2.9486,-1.1644,-0.3609,-0.5014,
7.426734,0.0928,-0.9628,-0.1037,-1.5924,1.7525,3.0527,-1.1644,-0.3609,-0.5014,
7.462311,0.0928,-0.9628,-0.1037,-1.5924,1.7525,3.0527,-0.3920,-0.4248,-0.0305,
7.464750,0.0928,-0.9628,-0.1037,-1.5106,1.6627,3.1397,-0.3920,-0.4248,-0.0305,
7.466075,-0.0890,-0.8641,-0.1709,-1.5106,1.6627,3.1397,-0.3920,-0.4248,-0.0305,
7.467361,-0.1904,-0.7339,-0.0751,-1.5106,1.6627,3.1397,-0.3920,-0.4248,-0.0305,
7.469434,-0.2229,-0.6560,-0.0121,-1.5106,1.6627,3.1397,-0.3920,-0.4248,-0.0305,
7.470413,-0.1833,-0.5460,0.0297,-1.5106,1.6627,3.1397,-0.3920,-0.4248,-0.0305,
7.471555,-0.1188,-0.4632,-0.0416,-1.5106,1.6627,3.1397,-0.3920,-0.4248,-0.0305,
7.503474,-0.1188,-0.4632,-0.0416,-1.5106,1.6627,3.1397,0.5752,-0.4812,0.3924,
7.507066,-0.1188,-0.4632,-0.0416,-1.2737,1.7181,2.8799,0.5752,-0.4812,0.3924,
7.540362,-0.0350,-0.4551,-0.0937,-1.2737,1.7181,2.8799,0.5752,-0.4812,0.3924,
7.542759,0.0879,-0.4845,-0.1853,-1.2737,1.7181,2.8799,0.5752,-0.4812,0.3924,
7.544061,0.2442,-0.6039,-0.3184,-1.2737,1.7181,2.8799,0.5752,-0.4812,0.3924,
7.545608,0.2442,-0.6039,-0.3184,-1.2737,1.7181,2.8799,1.4839,-0.7614,0.3785,
7.546970,0.2442,-0.6039,-0.3184,-0.4842,4.4179,2.7763,1.4839,-0.7614,0.3785,
7.581228,0.2442,-0.6039,-0.3184,-0.4842,4.4179,2.7763,1.6224,-0.5164,-0.1434,
7.583930,0.2442,-0.6039,-0.3184,2.6114,2.9243,-1.2884,1.6224,-0.5164,-0.1434,
7.620792,0.2442,-0.6039,-0.3184,2.6114,2.9243,-1.2884,0.1608,0.2900,-0.8902,
7.623264,0.2442,-0.6039,-0.3184,2.2155,2.9052,-1.3216,0.1608,0.2900,-0.8902,
7.625288,0.2904,-0.8746,-0.6658,2.2155,2.9052,-1.3216,0.1608,0.2900,-0.8902,
7.626505,0.3498,-1.2093,-1.1899,2.2155,2.9052,-1.3216,0.1608,0.2900,-0.8902,
7.627773,0.4394,-1.3031,-1.0799,2.2155,2.9052,-1.3216,0.1608,0.2900,-0.8902,
7.629577,0.1966,-0.9868,-0.4887,2.2155,2.9052,-1.3216,0.1608,0.2900,-0.8902,
7.630759,-0.0282,-1.0012,-0.0883,2.2155,2.9052,-1.3216,0.1608,0.2900,-0.8902,
7.660593,-0.0282,-1.0012,-0.0883,2.8049,-2.0408,-6.5676,0.1608,0.2900,-0.8902,
7.663315,-0.0282,-1.0012,-0.0883,2.8049,-2.0408,-6.5676,0.4421,0.7598,-1.2897,
7.700627,-0.0282,-1.0012,-0.0883,2.8049,-2.0408,-6.5676,0.3675,0.2005,-0.9296,
7.703071,-0.0282,-1.0012,-0.0883,-3.0498,-6.7331,1.6840,0.3675,0.2005,-0.9296,
7.704443,-0.3548,-1.8052,-0.0526,-3.0498,-6.7331,1.6840,0.3675,0.2005,-0.9296,
7.705974,-0.3274,-2.1680,-0.0397,-3.0498,-6.7331,1.6840,0.3675,0.2005,-0.9296,
7.706990,-0.2962,-0.8272,-0.2222,-3.0498,-6.7331,1.6840,0.3675,0.2005,-0.9296,
7.708147,-0.8950,-0.2832,-0.3597,-3.0498,-6.7331,1.6840,0.3675,0.2005,-0.9296,
7.739599,-0.8950,-0.2832,-0.3597,-3.0498,-6.7331,1.6840,-0.2504,-0.4759,0.5852,
7.742326,-0.8950,-0.2832,-0.3597,-2.7392,-6.6300,1.7601,-0.2504,-0.4759,0.5852,
7.779714,-0.8950,-0.2832,-0.3597,-2.7392,-6.6300,1.7601,0.4900,-0.6005,1.1029,
7.781970,-0.8950,-0.2832,-0.3597,-5.6938,3.6375,0.3418,0.4900,-0.6005,1.1029,
7.783375,-0.5989,-0.7178,0.0248,-5.6938,3.6375,0.3418,0.4900,-0.6005,1.1029,
7.784611,-0.0755,-1.2403,0.3720,-5.6938,3.6375,0.3418,0.4900,-0.6005,1.1029,
7.786152,0.1834,-1.4969,0.3549,-5.6938,3.6375,0.3418,0.4900,-0.6005,1.1029,
7.787248,0.2897,-1.1707,0.1150,-5.6938,3.6375,0.3418,0.4900,-0.6005,1.1029,
7.818853,0.2897,-1.1707,0.1150,-5.6938,3.6375,0.3418,1.2570,0.0844,0.0387,
7.821240,0.2897,-1.1707,0.1150,1.4368,-3.0099,4.3570,1.2570,0.0844,0.0387,
7.859345,0.2897,-1.1707,0.1150,1.4368,-3.0099,4.3570,1.0216,-0.1286,-0.1722,
7.861609,0.2227,-0.7903,-0.1266,1.4368,-3.0099,4.3570,1.0216,-0.1286,-0.1722,
7.862909,0.0139,-0.7920,-0.2205,1.4368,-3.0099,4.3570,1.0216,-0.1286,-0.1722,
7.863860,-0.1469,-0.8937,-0.2195,1.4368,-3.0099,4.3570,1.0216,-0.1286,-0.1722,
7.864844,-0.1154,-0.9748,-0.1626,1.4368,-3.0099,4.3570,1.0216,-0.1286,-0.1722,
7.865826,-0.1154,-0.9748,-0.1626,0.3651,1.6965,-0.6297,1.0216,-0.1286,-0.1722,
7.898032,-0.1154,-0.9748,-0.1626,0.3651,1.6965,-0.6297,0.6285,-0.6293,0.1026,
7.900634,-0.1154,-0.9748,-0.1626,0.4245,1.6947,-0.8617,0.6285,-0.6293,0.1026,
7.938309,-0.1154,-0.9748,-0.1626,0.4245,1.6947,-0.8617,0.5369,-0.0146,0.0057,
7.942169,-0.1154,-0.9748,-0.1626,-0.4819,-0.0368,-0.0767,0.5369,-0.0146,0.0057,
7.943728,-0.0497,-1.0207,-0.0766,-0.4819,-0.0368,-0.0767,0.5369,-0.0146,0.0057,
7.944734,-0.0262,-1.0166,-0.0238,-0.4819,-0.0368,-0.0767,0.5369,-0.0146,0.0057,
7.945767,-0.0541,-1.0004,-0.0502,-0.4819,-0.0368,-0.0767,0.5369,-0.0146,0.0057,
7.947287,-0.0978,-0.9716,-0.0824,-0.4819,-0.0368,-0.0767,0.5369,-0.0146,0.0057,
7.977349,-0.0978,-0.9716,-0.0824,-0.4819,-0.0368,-0.0767,0.4463,0.3571,-0.0284,
7.979781,-0.0978,-0.9716,-0.0824,-0.4942,-0.0240,-0.2443,0.4463,0.3571,-0.0284,
8.017793,-0.0978,-0.9716,-0.0824,-0.4942,-0.0240,-0.2443,0.3750,0.0961,0.1431,
8.020559,-0.0978,-0.9716,-0.0824,-0.5825,0.2338,-0.2662,0.3750,0.0961,0.1431,
8.022448,-0.0858,-0.9621,-0.0939,-0.5825,0.2338,-0.2662,0.3750,0.0961,0.1431,
8.024501,-0.0225,-0.9719,-0.0661,-0.5825,0.2338,-0.2662,0.3750,0.0961,0.1431,
8.025930,0.0591,-0.9831,-0.0455,-0.5825,0.2338,-0.2662,0.3750,0.0961,0.1431,
8.027075,0.1177,-1.0021,-0.0326,-0.5825,0.2338,-0.2662,0.3750,0.0961,0.1431,
8.056546,0.1177,-1.0021,-0.0326,-0.5825,0.2338,-0.2662,0.4804,0.1217,0.0675,
8.059423,0.1177,-1.0021,-0.0326,0.7100,0.1627,-0.1802,0.4804,0.1217,0.0675,
8.096316,0.1177,-1.0021,-0.0326,0.7100,0.1627,-0.1802,0.6775,0.1292,-0.0476,
8.098618,0.1177,-1.0021,-0.0326,0.8800,0.0453,-0.0722,0.6775,0.1292,-0.0476,
8.100019,0.1218,-1.0131,-0.0050,0.8800,0.0453,-0.0722,0.6775,0.1292,-0.0476,
8.101012,0.0764,-1.0021,0.0021,0.8800,0.0453,-0.0722,0.6775,0.1292,-0.0476,
8.102665,0.0185,-0.9789,-0.0282,0.8800,0.0453,-0.0722,0.6775,0.1292,-0.0476,
8.103702,-0.0433,-0.9767,-0.1134,0.8800,0.0453,-0.0722,0.6775,0.1292,-0.0476,
8.135832,-0.0433,-0.9767,-0.1134,0.8800,0.0453,-0.0722,0.7190,0.1558,0.0004,
8.138240,-0.0433,-0.9767,-0.1134,0.8662,0.0415,-0.3451,0.7190,0.1558,0.0004,
8.176180,-0.0433,-0.9767,-0.1134,0.8662,0.0415,-0.3451,0.4037,0.5052,0.0717,
8.178785,-0.0433,-0.9767,-0.1134,-0.1672,0.1137,-1.9211,0.4037,0.5052,0.0717,
8.180204,-0.0423,-0.9870,-0.1965,-0.1672,0.1137,-1.9211,0.4037,0.5052,0.0717,
8.181425,-0.0255,-1.0061,-0.1665,-0.1672,0.1137,-1.9211,0.4037,0.5052,0.0717,
8.182685,-0.0575,-0.9924,-0.0411,-0.1672,0.1137,-1.9211,0.4037,0.5052,0.0717,
8.183770,-0.0594,-0.9584,0.0317,-0.1672,0.1137,-1.9211,0.4037,0.5052,0.0717,
8.215223,-0.0594,-0.9584,0.0317,-0.1672,0.1137,-1.9211,0.4229,0.4946,0.2507,
8.218077,-0.0594,-0.9584,0.0317,-0.0601,0.1021,-2.0460,0.4229,0.4946,0.2507,
8.255425,-0.0594,-0.9584,0.0317,-0.0601,0.1021,-2.0460,0.5614,0.4019,0.3956,
8.258526,-0.0594,-0.9584,0.0317,0.0453,0.3184,-0.6114,0.5614,0.4019,0.3956,
8.261494,-0.0115,-0.9452,0.0339,0.0453,0.3184,-0.6114,0.5614,0.4019,0.3956,
8.262837,0.0405,-0.9501,0.0304,0.0453,0.3184,-0.6114,0.5614,0.4019,0.3956,
8.264008,0.0676,-0.9638,0.0024,0.0453,0.3184,-0.6114,0.5614,0.4019,0.3956,
8.264796,0.0745,-1.0053,-0.0143,0.0453,0.3184,-0.6114,0.5614,0.4019,0.3956,
8.296216,0.0745,-1.0053,-0.0143,0.0453,0.3184,-0.6114,0.5060,0.2964,0.3583,
8.298574,0.0745,-1.0053,-0.0143,1.1890,0.2155,-0.8065,0.5060,0.2964,0.3583,
8.334831,0.0745,-1.0053,-0.0143,1.1890,0.2155,-0.8065,0.4676,-0.0349,0.3189,
8.337387,0.0745,-1.0053,-0.0143,1.8185,-0.4768,-0.9779,0.4676,-0.0349,0.3189,
8.338836,0.0918,-1.0332,0.0048,1.8185,-0.4768,-0.9779,0.4676,-0.0349,0.3189,
8.339829,0.1155,-1.0442,0.0173,1.8185,-0.4768,-0.9779,0.4676,-0.0349,0.3189,
8.340829,0.1402,-1.0483,-0.0055,1.8185,-0.4768,-0.9779,0.4676,-0.0349,0.3189,
8.342004,0.1121,-1.0542,0.0033,1.8185,-0.4768,-0.9779,0.4676,-0.0349,0.3189,
8.373459,0.1121,-1.0542,0.0033,1.8185,-0.4768,-0.9779,0.4399,-0.0935,0.1239,
8.376841,0.1121,-1.0542,0.0033,1.8310,-0.4914,-1.1308,0.4399,-0.0935,0.1239,
8.413068,0.0112,-1.0354,0.0510,1.8310,-0.4914,-1.1308,0.4399,-0.0935,0.1239,
8.415424,-0.1256,-1.0991,0.0490,1.8310,-0.4914,-1.1308,0.4399,-0.0935,0.1239,
8.416794,-0.2138,-1.2423,-0.0135,1.8310,-0.4914,-1.1308,0.4399,-0.0935,0.1239,
8.417924,-0.2138,-1.2423,-0.0135,1.8310,-0.4914,-1.1308,0.4538,0.0024,0.0089,
8.419143,-0.2138,-1.2423,-0.0135,0.6802,-0.7084,-1.0050,0.4538,0.0024,0.0089,
8.453436,-0.2138,-1.2423,-0.0135,-0.2495,-2.3238,-2.7832,0.4538,0.0024,0.0089,
8.456173,-0.2138,-1.2423,-0.0135,-0.2495,-2.3238,-2.7832,0.3835,-0.0455,0.2326,
8.492733,-0.2138,-1.2423,-0.0135,-0.2495,-2.3238,-2.7832,-0.3750,-0.1648,0.2337,
8.495305,-0.2138,-1.2423,-0.0135,-0.1658,-2.2724,-2.6000,-0.3750,-0.1648,0.2337,
8.496609,-0.1520,-1.2548,-0.1389,-0.1658,-2.2724,-2.6000,-0.3750,-0.1648,0.2337,
8.497852,0.0510,-1.1895,-0.2576,-0.1658,-2.2724,-2.6000,-0.3750,-0.1648,0.2337,
8.499074,0.2157,-1.1715,-0.2764,-0.1658,-2.2724,-2.6000,-0.3750,-0.1648,0.2337,
8.500313,0.2416,-1.1915,-0.1987,-0.1658,-2.2724,-2.6000,-0.3750,-0.1648,0.2337,
8.501390,0.1441,-1.1868,-0.1100,-0.1658,-2.2724,-2.6000,-0.3750,-0.1648,0.2337,
8.531947,0.1441,-1.1868,-0.1100,-0.1658,-2.2724,-2.6000,-1.3497,-0.2501,-0.2617,
8.533974,0.1441,-1.1868,-0.1100,2.6699,-1.7341,-2.6120,-1.3497,-0.2501,-0.2617,
8.571181,0.1441,-1.1868,-0.1100,2.6699,-1.7341,-2.6120,-2.0432,0.0099,-0.5749,
8.573291,0.1441,-1.1868,-0.1100,-1.2176,-0.3166,-0.9209,-2.0432,0.0099,-0.5749,
8.574210,-0.0184,-1.0965,-0.0912,-1.2176,-0.3166,-0.9209,-2.0432,0.0099,-0.5749,
8.575015,-0.1918,-1.0129,-0.1389,-1.2176,-0.3166,-0.9209,-2.0432,0.0099,-0.5749,
8.576021,-0.3157,-1.0197,-0.0873,-1.2176,-0.3166,-0.9209,-2.0432,0.0099,-0.5749,
8.576923,-0.3247,-1.0911,0.0554,-1.2176,-0.3166,-0.9209,-2.0432,0.0099,-0.5749,
8.611204,-0.3247,-1.0911,0.0554,-1.2176,-0.3166,-0.9209,-2.1838,0.3848,-0.3948,
8.613471,-0.3247,-1.0911,0.0554,-1.3586,-0.3514,-0.0581,-2.1838,0.3848,-0.3948,
8.651616,-0.2551,-1.1641,0.1682,-1.3586,-0.3514,-0.0581,-2.1838,0.3848,-0.3948,
8.653915,-0.2109,-1.1849,0.1866,-1.3586,-0.3514,-0.0581,-2.1838,0.3848,-0.3948,
8.654704,-0.2180,-1.1514,0.1377,-1.3586,-0.3514,-0.0581,-2.1838,0.3848,-0.3948,
8.655508,-0.2180,-1.1514,0.1377,-1.3586,-0.3514,-0.0581,-1.7673,0.8962,-0.3394,
8.656428,-0.2180,-1.1514,0.1377,-2.3648,-1.4324,2.9663,-1.7673,0.8962,-0.3394,
8.690437,-0.2180,-1.1514,0.1377,-2.3648,-1.4324,2.9663,-1.4190,0.6629,-0.3011,
8.693555,-0.2180,-1.1514,0.1377,-1.7550,-0.7878,1.7559,-1.4190,0.6629,-0.3011,
8.732030,-0.2180,-1.1514,0.1377,-1.8741,-0.9209,2.3042,-1.4190,0.6629,-0.3011,
8.734298,-0.2180,-1.1514,0.1377,-1.8741,-0.9209,2.3042,-1.5372,0.0429,-0.3874,
8.735586,-0.2219,-1.0715,-0.0411,-1.8741,-0.9209,2.3042,-1.5372,0.0429,-0.3874,
8.736768,-0.1225,-0.9916,-0.2168,-1.8741,-0.9209,2.3042,-1.5372,0.0429,-0.3874,
8.737731,0.0144,-0.9775,-0.2368,-1.8741,-0.9209,2.3042,-1.5372,0.0429,-0.3874,
8.739063,0.0801,-0.9850,-0.1645,-1.8741,-0.9209,2.3042,-1.5372,0.0429,-0.3874,
8.740184,0.0261,-1.0078,-0.0917,-1.8741,-0.9209,2.3042,-1.5372,0.0429,-0.3874,
8.770108,0.0261,-1.0078,-0.0917,-1.8741,-0.9209,2.3042,-1.4275,-0.2682,-0.6398,
8.772628,0.0261,-1.0078,-0.0917,0.1454,-0.2895,1.5984,-1.4275,-0.2682,-0.6398,
8.810004,0.0261,-1.0078,-0.0917,0.1454,-0.2895,1.5984,-1.0898,-0.4589,-0.4715,
8.812718,0.0261,-1.0078,-0.0917,-2.1731,0.8737,2.9014,-1.0898,-0.4589,-0.4715,
8.814057,-0.0878,-0.9570,-0.1069,-2.1731,0.8737,2.9014,-1.0898,-0.4589,-0.4715,
8.815473,-0.2058,-0.8536,-0.0819,-2.1731,0.8737,2.9014,-1.0898,-0.4589,-0.4715,
8.816620,-0.2727,-0.7522,-0.0155,-2.1731,0.8737,2.9014,-1.0898,-0.4589,-0.4715,
8.818061,-0.2197,-0.7095,-0.0282,-2.1731,0.8737,2.9014,-1.0898,-0.4589,-0.4715,
8.849280,-0.2197,-0.7095,-0.0282,-2.1731,0.8737,2.9014,-0.5401,-0.2607,-0.0540,
8.852091,-0.2197,-0.7095,-0.0282,-2.1190,0.7812,3.0502,-0.5401,-0.2607,-0.0540,
8.889481,-0.1454,-0.7026,-0.1029,-2.1190,0.7812,3.0502,-0.5401,-0.2607,-0.0540,
8.892333,-0.0797,-0.6936,-0.1672,-2.1190,0.7812,3.0502,-0.5401,-0.2607,-0.0540,
8.893460,0.0153,-0.6794,-0.2339,-2.1190,0.7812,3.0502,-0.5401,-0.2607,-0.0540,
8.894611,0.0153,-0.6794,-0.2339,-1.6038,2.2263,2.7275,-0.5401,-0.2607,-0.0540,
8.896068,0.0153,-0.6794,-0.2339,-1.6038,2.2263,2.7275,-0.0799,-0.1989,0.1708,
8.928030,0.0153,-0.6794,-0.2339,-1.6038,2.2263,2.7275,0.3259,-0.4344,0.1911,
8.930149,0.0153,-0.6794,-0.2339,1.1722,2.5571,1.1087,0.3259,-0.4344,0.1911,
8.968530,0.0153,-0.6794,-0.2339,1.1722,2.5571,1.1087,0.8351,-0.4610,0.0419,
8.971132,0.0153,-0.6794,-0.2339,1.2292,2.6257,0.7917,0.8351,-0.4610,0.0419,
8.973053,0.1421,-0.6667,-0.2520,1.2292,2.6257,0.7917,0.8351,-0.4610,0.0419,
8.974318,0.2132,-0.6596,-0.2666,1.2292,2.6257,0.7917,0.8351,-0.4610,0.0419,
8.975542,0.2372,-0.7046,-0.3294,1.2292,2.6257,0.7917,0.8351,-0.4610,0.0419,
8.976695,0.2010,-0.8253,-0.4484,1.2292,2.6257,0.7917,0.8351,-0.4610,0.0419,
8.977928,0.1876,-0.9677,-0.6087,1.2292,2.6257,0.7917,0.8351,-0.4610,0.0419,
9.010307,0.1876,-0.9677,-0.6087,2.0170,1.1115,-1.5852,0.8351,-0.4610,0.0419,
9.013087,0.1876,-0.9677,-0.6087,2.0170,1.1115,-1.5852,0.9086,-0.4951,-0.1956,
9.047051,0.1876,-0.9677,-0.6087,2.0170,1.1115,-1.5852,0.4485,-0.0061,-0.4683,
9.049896,0.2738,-1.0368,-0.6751,2.0170,1.1115,-1.5852,0.4485,-0.0061,-0.4683,
9.051191,0.2704,-0.9782,-0.6018,2.0170,1.1115,-1.5852,0.4485,-0.0061,-0.4683,
9.052768,0.0752,-0.8272,-0.5095,2.0170,1.1115,-1.5852,0.4485,-0.0061,-0.4683,
9.053875,-0.0643,-0.6706,-0.3133,2.0170,1.1115,-1.5852,0.4485,-0.0061,-0.4683,
9.054960,-0.0643,-0.6706,-0.3133,1.7941,0.0337,-3.0062,0.4485,-0.0061,-0.4683,
9.086694,-0.0643,-0.6706,-0.3133,1.7941,0.0337,-3.0062,0.5220,0.2282,-0.3565,
9.089400,-0.0643,-0.6706,-0.3133,1.6103,0.0844,-3.1490,0.5220,0.2282,-0.3565,
9.126382,-0.0643,-0.6706,-0.3133,1.6103,0.0844,-3.1490,1.0802,-0.1861,0.0536,
9.129449,-0.0643,-0.6706,-0.3133,-1.4624,2.9070,1.1241,1.0802,-0.1861,0.0536,
9.130872,-0.0255,-0.5287,-0.0008,-1.4624,2.9070,1.1241,1.0802,-0.1861,0.0536,
9.132392,-0.2507,-0.7967,-0.0358,-1.4624,2.9070,1.1241,1.0802,-0.1861,0.0536,
9.133706,-0.9858,-2.2843,-0.6150,-1.4624,2.9070,1.1241,1.0802,-0.1861,0.0536,
9.134978,-0.4589,-2.7751,-0.8324,-1.4624,2.9070,1.1241,1.0802,-0.1861,0.0536,
9.166913,-0.4589,-2.7751,-0.8324,-1.4624,2.9070,1.1241,-0.2461,0.7278,0.1698,
9.169488,-0.4589,-2.7751,-0.8324,-1.4403,2.8387,1.1857,-0.2461,0.7278,0.1698,
9.206132,-0.4589,-2.7751,-0.8324,-1.4403,2.8387,1.1857,0.0096,0.8887,0.2763,
9.209119,-0.4589,-2.7751,-0.8324,-4.2896,-10.1741,-2.0277,0.0096,0.8887,0.2763,
9.211225,0.2034,-0.9743,0.1079,-4.2896,-10.1741,-2.0277,0.0096,0.8887,0.2763,
9.212498,-0.3738,-0.2338,0.2200,-4.2896,-10.1741,-2.0277,0.0096,0.8887,0.2763,
9.213990,-0.2383,-0.4850,0.0515,-4.2896,-10.1741,-2.0277,0.0096,0.8887,0.2763,
9.215629,-0.0636,-0.8995,0.2613,-4.2896,-10.1741,-2.0277,0.0096,0.8887,0.2763,
9.244523,-0.0636,-0.8995,0.2613,-2.1846,4.2449,3.7452,0.0096,0.8887,0.2763,
9.246276,-0.0636,-0.8995,0.2613,-2.1846,4.2449,3.7452,0.7393,-0.1872,0.5405,
9.285430,-0.0636,-0.8995,0.2613,-2.1846,4.2449,3.7452,1.2538,0.1505,0.3934,
9.288488,-0.0636,-0.8995,0.2613,0.0526,-1.0169,3.6565,1.2538,0.1505,0.3934,
9.289674,-0.1330,-1.1580,0.3703,0.0526,-1.0169,3.6565,1.2538,0.1505,0.3934,
9.290776,-0.0299,-1.1329,0.2699,0.0526,-1.0169,3.6565,1.2538,0.1505,0.3934,
9.291563,0.1297,-0.9699,0.0300,0.0526,-1.0169,3.6565,1.2538,0.1505,0.3934,
9.292863,0.1297,-0.9699,-0.3135,0.0526,-1.0169,3.6565,1.2538,0.1505,0.3934,
9.326013,0.1297,-0.9699,-0.3135,0.0526,-1.0169,3.6565,1.2804,0.3657,0.0962,
9.328614,0.1297,-0.9699,-0.3135,0.0708,-0.9396,3.1160,1.2804,0.3657,0.0962,
9.364566,0.1297,-0.9699,-0.3135,0.0708,-0.9396,3.1160,0.5007,0.8195,-0.0582,
9.368180,0.1297,-0.9699,-0.3135,0.7770,-0.3400,-3.2401,0.5007,0.8195,-0.0582,
9.369610,0.0263,-1.0491,-0.5483,0.7770,-0.3400,-3.2401,0.5007,0.8195,-0.0582,
9.370919,0.0459,-1.0652,-0.3731,0.7770,-0.3400,-3.2401,0.5007,0.8195,-0.0582,
9.372787,0.0627,-1.0403,-0.1396,0.7770,-0.3400,-3.2401,0.5007,0.8195,-0.0582,
9.374069,0.0175,-0.9714,-0.0553,0.7770,-0.3400,-3.2401,0.5007,0.8195,-0.0582,
9.403361,0.0175,-0.9714,-0.0553,0.7770,-0.3400,-3.2401,0.2524,0.7172,-0.0188,
9.405620,0.0175,-0.9714,-0.0553,0.7362,-0.3269,-3.2790,0.2524,0.7172,-0.0188,
9.443378,0.0175,-0.9714,-0.0553,0.7362,-0.3269,-3.2790,0.3473,0.4093,0.0664,
9.445620,0.0175,-0.9714,-0.0553,0.4641,0.1319,-0.0181,0.3473,0.4093,0.0664,
9.447216,0.0363,-0.9342,-0.0013,0.4641,0.1319,-0.0181,0.3473,0.4093,0.0664,
9.449362,0.0720,-0.9357,0.0463,0.4641,0.1319,-0.0181,0.3473,0.4093,0.0664,
9.450596,0.0864,-0.9584,0.0026,0.4641,0.1319,-0.0181,0.3473,0.4093,0.0664,
9.451569,0.0823,-0.9743,-0.0639,0.4641,0.1319,-0.0181,0.3473,0.4093,0.0664,
9.482832,0.0823,-0.9743,-0.0639,0.4641,0.1319,-0.0181,0.4516,0.2645,-0.0177,
9.485493,0.0823,-0.9743,-0.0639,0.8426,0.3879,0.3934,0.4516,0.2645,-0.0177,
9.522191,0.0867,-0.9943,-0.1384,0.8426,0.3879,0.3934,0.4516,0.2645,-0.0177,
9.524640,0.0754,-0.9848,-0.1240,0.8426,0.3879,0.3934,0.4516,0.2645,-0.0177,
9.525984,0.0639,-0.9723,-0.0685,0.8426,0.3879,0.3934,0.4516,0.2645,-0.0177,
9.527213,0.0639,-0.9723,-0.0685,0.8426,0.3879,0.3934,0.3654,0.3465,-0.1307,
9.528350,0.0639,-0.9723,-0.0685,0.7268,0.1201,-0.7664,0.3654,0.3465,-0.1307,
9.562436,0.0639,-0.9723,-0.0685,0.7268,0.1201,-0.7664,0.4112,0.3742,-0.1072,
9.564793,0.0639,-0.9723,-0.0685,-0.2108,-0.0486,-0.0426,0.4112,0.3742,-0.1072,
9.602764,0.0639,-0.9723,-0.0685,-0.2108,-0.0486,-0.0426,0.5262,0.2133,0.0462,
9.604476,0.0639,-0.9723,-0.0685,-0.1902,-0.0466,-0.2426,0.5262,0.2133,0.0462,
9.606148,0.0400,-0.9914,-0.0238,-0.1902,-0.0466,-0.2426,0.5262,0.2133,0.0462,
9.606991,-0.0098,-1.0046,-0.0013,-0.1902,-0.0466,-0.2426,0.5262,0.2133,0.0462,
9.607973,-0.0785,-1.0085,-0.0355,-0.1902,-0.0466,-0.2426,0.5262,0.2133,0.0462,
9.609143,-0.0655,-1.0166,-0.0871,-0.1902,-0.0466,-0.2426,0.5262,0.2133,0.0462,
9.609987,-0.0176,-1.0073,-0.0822,-0.1902,-0.0466,-0.2426,0.5262,0.2133,0.0462,
9.641469,-0.0176,-1.0073,-0.0822,-0.1902,-0.0466,-0.2426,0.4016,0.2708,0.1879,
9.643957,-0.0176,-1.0073,-0.0822,-0.1142,-0.0478,-0.3914,0.4016,0.2708,0.1879,
9.682117,-0.0176,-1.0073,-0.0822,-0.1142,-0.0478,-0.3914,0.4154,0.4285,0.2283,
9.684664,-0.0176,-1.0073,-0.0822,-0.1134,-0.0491,-1.0288,0.4154,0.4285,0.2283,
9.686144,0.0060,-0.9797,-0.0431,-0.1134,-0.0491,-1.0288,0.4154,0.4285,0.2283,
9.687114,0.0168,-0.9667,0.0141,-0.1134,-0.0491,-1.0288,0.4154,0.4285,0.2283,
9.688158,-0.0003,-0.9772,0.0390,-0.1134,-0.0491,-1.0288,0.4154,0.4285,0.2283,
9.689227,-0.0113,-0.9626,0.0011,-0.1134,-0.0491,-1.0288,0.4154,0.4285,0.2283,
9.720969,-0.0113,-0.9626,0.0011,-0.1134,-0.0491,-1.0288,0.5763,0.4743,0.2752,
9.723764,-0.0113,-0.9626,0.0011,0.2657,0.2512,-0.3709,0.5763,0.4743,0.2752,
9.748969,0.0024,-0.9501,-0.0468,0.2657,0.2512,-0.3709,0.5763,0.4743,0.2752,
9.750899,-0.0216,-0.9721,-0.0240,0.2657,0.2512,-0.3709,0.5763,0.4743,0.2752,
9.752262,-0.0291,-0.9821,0.0028,0.2657,0.2512,-0.3709,0.5763,0.4743,0.2752,
9.759953,-0.0291,-0.9821,0.0028,0.2657,0.2512,-0.3709,0.5294,0.3774,0.3359,
9.761242,-0.0291,-0.9821,0.0028,0.2264,0.2365,-0.9534,0.5294,0.3774,0.3359,
9.800958,-0.0291,-0.9821,0.0028,0.2264,0.2365,-0.9534,0.4836,0.3635,0.3881,
9.803795,-0.0291,-0.9821,0.0028,0.2618,-0.0756,-0.8393,0.4836,0.3635,0.3881,
9.824577,-0.0340,-0.9819,0.0146,0.2618,-0.0756,-0.8393,0.4836,0.3635,0.3881,
9.829032,-0.0318,-1.0014,0.0070,0.2618,-0.0756,-0.8393,0.4836,0.3635,0.3881,
9.830170,-0.0196,-1.0100,-0.0040,0.2618,-0.0756,-0.8393,0.4836,0.3635,0.3881,
9.831551,-0.0130,-1.0043,0.0187,0.2618,-0.0756,-0.8393,0.4836,0.3635,0.3881,
9.839283,-0.0130,-1.0043,0.0187,0.2618,-0.0756,-0.8393,0.5177,0.3348,0.4116,
9.841256,-0.0130,-1.0043,0.0187,0.4257,-0.1044,-1.0125,0.5177,0.3348,0.4116,
9.879276,-0.0130,-1.0043,0.0187,0.4257,-0.1044,-1.0125,0.7190,0.1547,0.5106,
9.881193,-0.0130,-1.0043,0.0187,0.8673,-0.3439,-1.3053,0.7190,0.1547,0.5106,
9.910759,-0.0042,-1.0095,0.0092,0.8673,-0.3439,-1.3053,0.7190,0.1547,0.5106,
9.912881,0.0095,-1.0390,-0.0240,0.8673,-0.3439,-1.3053,0.7190,0.1547,0.5106,
9.913710,0.0591,-1.0596,-0.0529,0.8673,-0.3439,-1.3053,0.7190,0.1547,0.5106,
9.914428,0.1815,-1.1421,-0.0030,0.8673,-0.3439,-1.3053,0.7190,0.1547,0.5106,
9.918505,0.1815,-1.1421,-0.0030,0.8673,-0.3439,-1.3053,0.8181,-0.2607,0.6630,
9.919620,0.1815,-1.1421,-0.0030,1.0851,-0.4114,-1.5998,0.8181,-0.2607,0.6630,
9.959168,0.1815,-1.1421,-0.0030,2.7505,-2.3153,-1.1527,0.8181,-0.2607,0.6630,
9.961483,0.1815,-1.1421,-0.0030,2.7505,-2.3153,-1.1527,0.4293,-0.5356,0.0611,
9.997410,0.1815,-1.1421,-0.0030,2.7505,-2.3153,-1.1527,-0.0629,0.0216,-0.3256,
9.999704,0.1815,-1.1421,-0.0030,2.5847,-2.2598,-1.1094,-0.0629,0.0216,-0.3256,
10.000783,0.2799,-1.4363,0.2476,2.5847,-2.2598,-1.1094,-0.0629,0.0216,-0.3256,
10.001824,0.1719,-1.4610,0.3410,2.5847,-2.2598,-1.1094,-0.0629,0.0216,-0.3256,
10.002639,-0.2280,-1.1165,-0.1076,2.5847,-2.2598,-1.1094,-0.0629,0.0216,-0.3256,
10.003530,-0.4530,-0.9958,-0.5119,2.5847,-2.2598,-1.1094,-0.0629,0.0216,-0.3256,
10.004410,-0.2456,-1.0764,-0.4320,2.5847,-2.2598,-1.1094,-0.0629,0.0216,-0.3256,
10.038568,-0.2456,-1.0764,-0.4320,2.5847,-2.2598,-1.1094,-1.5851,0.0216,0.1974,
10.041006,-0.2456,-1.0764,-0.4320,-0.6896,-1.9328,-2.0033,-1.5851,0.0216,0.1974,
10.077711,-0.2456,-1.0764,-0.4320,-0.6896,-1.9328,-2.0033,-2.3862,-0.2234,-0.1605,
10.080414,-0.2456,-1.0764,-0.4320,0.4845,-0.4615,-2.1986,-2.3862,-0.2234,-0.1605,
10.081866,0.0197,-1.0784,-0.1589,0.4845,-0.4615,-2.1986,-2.3862,-0.2234,-0.1605,
10.082981,0.0994,-0.9907,-0.0394,0.4845,-0.4615,-2.1986,-2.3862,-0.2234,-0.1605,
10.084181,0.0173,-0.9399,0.0832,0.4845,-0.4615,-2.1986,-2.3862,-0.2234,-0.1605,
10.085346,-0.1320,-0.9635,0.2147,0.4845,-0.4615,-2.1986,-2.3862,-0.2234,-0.1605,
10.117101,-0.1320,-0.9635,0.2147,0.4845,-0.4615,-2.1986,-2.2722,0.1174,-0.4769,
10.119591,-0.1320,-0.9635,0.2147,0.2918,-0.4658,-1.2898,-2.2722,0.1174,-0.4769,
10.149192,-0.2510,-1.0561,0.2708,0.2918,-0.4658,-1.2898,-2.2722,0.1174,-0.4769,
10.151057,-0.2737,-1.1355,0.1927,0.2918,-0.4658,-1.2898,-2.2722,0.1174,-0.4769,
10.152416,-0.2251,-1.1118,0.0202,0.2918,-0.4658,-1.2898,-2.2722,0.1174,-0.4769,
10.157330,-0.2251,-1.1118,0.0202,-0.6063,0.0605,3.3240,-2.2722,0.1174,-0.4769,
10.158856,-0.2251,-1.1118,0.0202,-0.6063,0.0605,3.3240,-1.9154,0.4424,-0.2734,
10.196768,-0.2251,-1.1118,0.0202,-0.6063,0.0605,3.3240,-1.7225,0.0727,-0.2372,
10.199506,-0.2251,-1.1118,0.0202,-1.6458,-1.2459,2.5224,-1.7225,0.0727,-0.2372,
10.235896,-0.2251,-1.1118,0.0202,-1.6458,-1.2459,2.5224,-1.5372,-0.2053,-0.5749,
10.237880,-0.2251,-1.1118,0.0202,-1.8128,-1.3579,3.0499,-1.5372,-0.2053,-0.5749,
10.240255,-0.1645,-1.0825,-0.0790,-1.8128,-1.3579,3.0499,-1.5372,-0.2053,-0.5749,
10.241357,-0.0760,-1.0659,-0.1340,-1.8128,-1.3579,3.0499,-1.5372,-0.2053,-0.5749,
10.242632,0.0828,-1.0324,-0.0822,-1.8128,-1.3579,3.0499,-1.5372,-0.2053,-0.5749,
10.243704,0.0874,-1.0175,-0.0316,-1.8128,-1.3579,3.0499,-1.5372,-0.2053,-0.5749,
10.244986,-0.0391,-1.0043,-0.0712,-1.8128,-1.3579,3.0499,-1.5372,-0.2053,-0.5749,
10.275632,-0.0391,-1.0043,-0.0712,-1.8128,-1.3579,3.0499,-1.1111,-0.1712,-0.8359,
10.278259,-0.0391,-1.0043,-0.0712,0.3609,-0.7633,2.1817,-1.1111,-0.1712,-0.8359,
10.315331,-0.0391,-1.0043,-0.0712,0.3609,-0.7633,2.1817,-0.6211,-0.1499,-0.6207,
10.318069,-0.0391,-1.0043,-0.0712,-1.5031,0.1194,2.2399,-0.6211,-0.1499,-0.6207,
10.319545,-0.1474,-0.9530,-0.0902,-1.5031,0.1194,2.2399,-0.6211,-0.1499,-0.6207,
10.320578,-0.2329,-0.8639,-0.1276,-1.5031,0.1194,2.2399,-0.6211,-0.1499,-0.6207,
10.321590,-0.2637,-0.7960,-0.1166,-1.5031,0.1194,2.2399,-0.6211,-0.1499,-0.6207,
10.323059,-0.1857,-0.7622,-0.1083,-1.5031,0.1194,2.2399,-0.6211,-0.1499,-0.6207,
10.354557,-0.1857,-0.7622,-0.1083,-1.5031,0.1194,2.2399,-0.1801,-0.2075,-0.1871,
10.357302,-0.1857,-0.7622,-0.1083,-1.5199,0.0937,2.2693,-0.1801,-0.2075,-0.1871,
10.395155,-0.1857,-0.7622,-0.1083,-1.5199,0.0937,2.2693,0.2620,-0.4993,0.1644,
10.397419,-0.1857,-0.7622,-0.1083,-1.8132,1.8789,1.9215,0.2620,-0.4993,0.1644,
10.398853,-0.1071,-0.7170,-0.1315,-1.8132,1.8789,1.9215,0.2620,-0.4993,0.1644,
10.400180,-0.0443,-0.6863,-0.1371,-1.8132,1.8789,1.9215,0.2620,-0.4993,0.1644,
10.401269,0.0266,-0.7168,-0.1716,-1.8132,1.8789,1.9215,0.2620,-0.4993,0.1644,
10.402472,0.1011,-0.7381,-0.2605,-1.8132,1.8789,1.9215,0.2620,-0.4993,0.1644,
10.434148,0.1011,-0.7381,-0.2605,-1.8132,1.8789,1.9215,0.7329,-0.7646,0.2326,
10.436911,0.1011,-0.7381,-0.2605,0.4451,2.3618,0.9361,0.7329,-0.7646,0.2326,
10.475433,0.1011,-0.7381,-0.2605,0.4451,2.3618,0.9361,1.0024,-0.6123,-0.0657,
10.477756,0.1011,-0.7381,-0.2605,3.0478,1.4094,-1.9609,1.0024,-0.6123,-0.0657,
10.479223,0.2249,-0.7635,-0.3521,3.0478,1.4094,-1.9609,1.0024,-0.6123,-0.0657,
10.480279,0.2965,-0.8206,-0.4572,3.0478,1.4094,-1.9609,1.0024,-0.6123,-0.0657,
10.481178,0.3625,-0.8732,-0.5410,3.0478,1.4094,-1.9609,1.0024,-0.6123,-0.0657,
10.482180,0.4324,-0.9127,-0.6109,3.0478,1.4094,-1.9609,1.0024,-0.6123,-0.0657,
10.514079,0.4324,-0.9127,-0.6109,3.0478,1.4094,-1.9609,0.5976,0.2368,-0.5834,
10.516056,0.4324,-0.9127,-0.6109,2.7609,1.4413,-2.1486,0.5976,0.2368,-0.5834,
10.552942,0.4324,-0.9127,-0.6109,2.7609,1.4413,-2.1486,0.1278,0.3689,-0.6835,
10.554832,0.4324,-0.9127,-0.6109,1.3572,-1.0570,-2.1451,0.1278,0.3689,-0.6835,
10.555963,0.3315,-0.9269,-0.3639,1.3572,-1.0570,-2.1451,0.1278,0.3689,-0.6835,
10.556790,-0.2141,-1.3891,-0.3697,1.3572,-1.0570,-2.1451,0.1278,0.3689,-0.6835,
10.557593,-0.4821,-1.9415,-0.4574,1.3572,-1.0570,-2.1451,0.1278,0.3689,-0.6835,
10.558532,-0.2170,-1.2013,0.1252,1.3572,-1.0570,-2.1451,0.1278,0.3689,-0.6835,
10.592084,-0.2170,-1.2013,0.1252,1.3572,-1.0570,-2.1451,0.0351,-0.0828,-0.2585,
10.593762,-0.2170,-1.2013,0.1252,1.2461,-1.0413,-2.1206,0.0351,-0.0828,-0.2585,
10.631414,-0.2170,-1.2013,0.1252,1.2461,-1.0413,-2.1206,0.1736,-0.3427,0.3285,
10.633206,-0.2170,-1.2013,0.1252,-3.8140,-2.7551,1.0445,0.1736,-0.3427,0.3285,
10.634179,-0.3673,-0.6315,-0.0199,-3.8140,-2.7551,1.0445,0.1736,-0.3427,0.3285,
10.635116,-0.3438,-0.8206,-0.1391,-3.8140,-2.7551,1.0445,0.1736,-0.3427,0.3285,
10.635880,-0.2109,-1.0652,0.0993,-3.8140,-2.7551,1.0445,0.1736,-0.3427,0.3285,
10.636597,-0.1838,-1.1429,0.2176,-3.8140,-2.7551,1.0445,0.1736,-0.3427,0.3285,
10.671105,-0.1838,-1.1429,0.2176,-3.8140,-2.7551,1.0445,0.4666,-0.2788,0.4382,
10.673370,-0.1838,-1.1429,0.2176,-2.5105,-0.2718,2.5575,0.4666,-0.2788,0.4382,
10.710898,-0.1838,-1.1429,0.2176,-2.5105,-0.2718,2.5575,0.9246,-0.2426,0.3466,
10.712869,-0.1838,-1.1429,0.2176,0.6461,0.6424,1.9991,0.9246,-0.2426,0.3466,
10.714188,-0.0699,-1.0078,0.1465,0.6461,0.6424,1.9991,0.9246,-0.2426,0.3466,
10.715332,0.0837,-0.8556,0.0346,0.6461,0.6424,1.9991,0.9246,-0.2426,0.3466,
10.716408,0.1714,-0.9025,-0.0555,0.6461,0.6424,1.9991,0.9246,-0.2426,0.3466,
10.717480,0.1565,-1.0508,-0.1816,0.6461,0.6424,1.9991,0.9246,-0.2426,0.3466,
10.750560,0.1565,-1.0508,-0.1816,0.6461,0.6424,1.9991,0.8383,-0.0264,0.0654,
10.752716,0.1565,-1.0508,-0.1816,0.6617,0.6782,1.6489,0.8383,-0.0264,0.0654,
10.790072,0.1565,-1.0508,-0.1816,0.6617,0.6782,1.6489,0.5443,0.1729,-0.1711,
10.791964,0.1565,-1.0508,-0.1816,1.1968,-0.7914,-0.8675,0.5443,0.1729,-0.1711,
10.793123,0.1223,-1.1209,-0.2327,1.1968,-0.7914,-0.8675,0.5443,0.1729,-0.1711,
10.794211,0.0989,-1.0557,-0.1709,1.1968,-0.7914,-0.8675,0.5443,0.1729,-0.1711,
10.795367,0.0249,-0.9706,-0.1010,1.1968,-0.7914,-0.8675,0.5443,0.1729,-0.1711,
10.796340,-0.0716,-0.9149,-0.0255,1.1968,-0.7914,-0.8675,0.5443,0.1729,-0.1711,
10.830139,-0.0716,-0.9149,-0.0255,1.1968,-0.7914,-0.8675,0.5550,0.1207,-0.0699,
10.832693,-0.0716,-0.9149,-0.0255,1.1458,-0.7581,-1.0643,0.5550,0.1207,-0.0699,
10.870405,-0.0716,-0.9149,-0.0255,1.1458,-0.7581,-1.0643,0.6690,-0.1084,0.2646,
10.872269,-0.0716,-0.9149,-0.0255,-0.5870,0.6697,0.1517,0.6690,-0.1084,0.2646,
10.873797,-0.1413,-0.9071,-0.0062,-0.5870,0.6697,0.1517,0.6690,-0.1084,0.2646,
10.874888,-0.1225,-0.9399,-0.0275,-0.5870,0.6697,0.1517,0.6690,-0.1084,0.2646,
10.876321,-0.0406,-0.9846,-0.0387,-0.5870,0.6697,0.1517,0.6690,-0.1084,0.2646,
10.877311,0.0444,-1.0036,-0.0773,-0.5870,0.6697,0.1517,0.6690,-0.1084,0.2646,
10.909599,0.0444,-1.0036,-0.0773,-0.5870,0.6697,0.1517,0.6445,-0.0008,0.3327,
10.912259,0.0444,-1.0036,-0.0773,-0.2271,0.2341,-0.1315,0.6445,-0.0008,0.3327,
10.949400,0.0444,-1.0036,-0.0773,-0.2271,0.2341,-0.1315,0.5560,0.0056,0.1868,
10.953751,0.0444,-1.0036,-0.0773,1.1201,0.3334,-0.8573,0.5560,0.0056,0.1868,
10.955174,0.0925,-0.9870,-0.1108,1.1201,0.3334,-0.8573,0.5560,0.0056,0.1868,
10.956312,0.1021,-0.9628,-0.1147,1.1201,0.3334,-0.8573,0.5560,0.0056,0.1868,
10.957120,0.0828,-0.9472,-0.0785,1.1201,0.3334,-0.8573,0.5560,0.0056,0.1868,
10.958109,0.0190,-0.9650,-0.0585,1.1201,0.3334,-0.8573,0.5560,0.0056,0.1868,
10.988857,0.0190,-0.9650,-0.0585,1.1201,0.3334,-0.8573,0.5646,0.0045,0.1325,
10.990543,0.0190,-0.9650,-0.0585,1.1519,0.3272,-1.0584,0.5646,0.0045,0.1325,
11.028935,0.0190,-0.9650,-0.0585,1.1519,0.3272,-1.0584,0.5379,0.0173,0.2688,
11.031480,0.0190,-0.9650,-0.0585,0.0834,0.1432,-0.8801,0.5379,0.0173,0.2688,
11.032829,-0.0377,-0.9885,-0.0687,0.0834,0.1432,-0.8801,0.5379,0.0173,0.2688,
11.033908,-0.0626,-0.9970,-0.0629,0.0834,0.1432,-0.8801,0.5379,0.0173,0.2688,
11.034954,-0.0812,-0.9745,-0.0529,0.0834,0.1432,-0.8801,0.5379,0.0173,0.2688,
11.036059,-0.0658,-0.9623,-0.0438,0.0834,0.1432,-0.8801,0.5379,0.0173,0.2688,
11.068098,-0.0658,-0.9623,-0.0438,0.0834,0.1432,-0.8801,0.5124,-0.0466,0.4552,
11.070678,-0.0658,-0.9623,-0.0438,0.2546,0.1259,-1.0613,0.5124,-0.0466,0.4552,
11.108002,-0.0658,-0.9623,-0.0438,0.2546,0.1259,-1.0613,0.4335,-0.0594,0.4638,
11.110797,-0.0658,-0.9623,-0.0438,0.1962,0.2193,-1.0819,0.4335,-0.0594,0.4638,
11.112263,-0.0057,-0.9777,-0.0536,0.1962,0.2193,-1.0819,0.4335,-0.0594,0.4638,
11.113444,0.0385,-0.9828,-0.0570,0.1962,0.2193,-1.0819,0.4335,-0.0594,0.4638,
11.114391,0.0510,-0.9594,-0.0206,0.1962,0.2193,-1.0819,0.4335,-0.0594,0.4638,
11.115404,0.0415,-0.9750,0.0478,0.1962,0.2193,-1.0819,0.4335,-0.0594,0.4638,
11.146722,0.0415,-0.9750,0.0478,0.1962,0.2193,-1.0819,0.4154,-0.0743,0.3967,
11.148762,0.0415,-0.9750,0.0478,1.2524,0.1842,-0.8366,0.4154,-0.0743,0.3967,
11.187455,0.0415,-0.9750,0.0478,1.2524,0.1842,-0.8366,0.5582,-0.0892,0.3967,
11.189660,0.0415,-0.9750,0.0478,1.0041,-0.1800,-0.4928,0.5582,-0.0892,0.3967,
11.190657,0.0288,-1.0100,0.0908,1.0041,-0.1800,-0.4928,0.5582,-0.0892,0.3967,
11.191458,0.0122,-1.0180,0.0432,1.0041,-0.1800,-0.4928,0.5582,-0.0892,0.3967,
11.192219,-0.0264,-0.9916,0.0055,1.0041,-0.1800,-0.4928,0.5582,-0.0892,0.3967,
11.192850,-0.0406,-1.0163,-0.0033,1.0041,-0.1800,-0.4928,0.5582,-0.0892,0.3967,
11.226613,-0.0406,-1.0163,-0.0033,1.0041,-0.1800,-0.4928,0.6125,-0.1947,0.5394,
11.228555,-0.0406,-1.0163,-0.0033,1.1823,-0.2247,-0.7233,0.6125,-0.1947,0.5394,
11.266447,-0.0406,-1.0163,-0.0033,1.1823,-0.2247,-0.7233,0.5646,-0.3790,0.4456,
11.268494,-0.0406,-1.0163,-0.0033,1.5387,-1.4344,-1.4141,0.5646,-0.3790,0.4456,
11.269537,-0.0013,-1.1175,0.0053,1.5387,-1.4344,-1.4141,0.5646,-0.3790,0.4456,
11.270405,0.1275,-1.2482,-0.0099,1.5387,-1.4344,-1.4141,0.5646,-0.3790,0.4456,
11.271292,0.2293,-1.3378,-0.0182,1.5387,-1.4344,-1.4141,0.5646,-0.3790,0.4456,
11.272286,0.1732,-1.3232,-0.1015,1.5387,-1.4344,-1.4141,0.5646,-0.3790,0.4456,
11.305901,0.1732,-1.3232,-0.1015,1.5387,-1.4344,-1.4141,0.0777,-0.2021,-0.0614,
11.308201,0.1732,-1.3232,-0.1015,1.4789,-1.4118,-1.4296,0.0777,-0.2021,-0.0614,
11.346553,0.1732,-1.3232,-0.1015,1.4789,-1.4118,-1.4296,-1.2538,-0.1009,0.0004,
11.349367,-0.0269,-1.1927,-0.3355,1.4789,-1.4118,-1.4296,-1.2538,-0.1009,0.0004,
11.350567,-0.1444,-1.0581,-0.5180,1.4789,-1.4118,-1.4296,-1.2538,-0.1009,0.0004,
11.352060,-0.0323,-0.9956,-0.4262,1.4789,-1.4118,-1.4296,-1.2538,-0.1009,0.0004,
11.353451,0.0762,-1.0026,-0.1953,1.4789,-1.4118,-1.4296,-1.2538,-0.1009,0.0004,
11.354747,0.0762,-1.0026,-0.1953,2.3810,-2.8466,-2.3752,-1.2538,-0.1009,0.0004,
11.384851,0.0762,-1.0026,-0.1953,0.7211,-0.1880,-3.5781,-1.2538,-0.1009,0.0004,
11.387398,0.0762,-1.0026,-0.1953,0.7211,-0.1880,-3.5781,-2.5407,-0.2895,-0.2265,
11.425017,0.0762,-1.0026,-0.1953,0.7211,-0.1880,-3.5781,-2.5886,-0.1467,-0.7506,
11.427650,0.0762,-1.0026,-0.1953,-1.8888,-1.2395,2.1092,-2.5886,-0.1467,-0.7506,
11.429117,-0.0003,-1.0019,0.0302,-1.8888,-1.2395,2.1092,-2.5886,-0.1467,-0.7506,
11.430534,-0.2891,-1.1226,0.1216,-1.8888,-1.2395,2.1092,-2.5886,-0.1467,-0.7506,
11.431984,-0.5319,-1.2482,0.1553,-1.8888,-1.2395,2.1092,-2.5886,-0.1467,-0.7506,
11.433131,-0.6133,-1.2750,0.2125,-1.8888,-1.2395,2.1092,-2.5886,-0.1467,-0.7506,
11.464508,-0.6133,-1.2750,0.2125,-1.8888,-1.2395,2.1092,-2.1433,0.6011,-0.2819,
11.467222,-0.6133,-1.2750,0.2125,-2.0025,-1.3384,2.9028,-2.1433,0.6011,-0.2819,
11.504579,-0.6133,-1.2750,0.2125,-3.1650,-1.8066,3.7497,-2.1433,0.6011,-0.2819,
11.507239,-0.6133,-1.2750,0.2125,-3.1650,-1.8066,3.7497,-1.7258,0.4733,-0.0444,
11.508509,-0.4352,-1.1705,0.1470,-3.1650,-1.8066,3.7497,-1.7258,0.4733,-0.0444,
11.509706,-0.1271,-1.0334,0.0214,-3.1650,-1.8066,3.7497,-1.7258,0.4733,-0.0444,
11.510786,-0.0348,-0.9806,-0.0431,-3.1650,-1.8066,3.7497,-1.7258,0.4733,-0.0444,
11.511975,-0.0726,-0.9645,-0.0810,-3.1650,-1.8066,3.7497,-1.7258,0.4733,-0.0444,
11.543895,-0.0726,-0.9645,-0.0810,-3.1650,-1.8066,3.7497,-1.3273,0.0109,-0.3203,
11.546391,-0.0726,-0.9645,-0.0810,-3.2309,-1.9115,4.1783,-1.3273,0.0109,-0.3203,
11.584090,-0.0726,-0.9645,-0.0810,-3.2309,-1.9115,4.1783,-0.8512,-0.2756,-0.5642,
11.586693,-0.0726,-0.9645,-0.0810,-0.0375,-0.1061,2.4563,-0.8512,-0.2756,-0.5642,
11.587884,-0.0369,-0.9533,-0.1049,-0.0375,-0.1061,2.4563,-0.8512,-0.2756,-0.5642,
11.589093,0.0569,-0.9174,-0.1000,-0.0375,-0.1061,2.4563,-0.8512,-0.2756,-0.5642,
11.590336,0.1289,-0.8893,-0.1022,-0.0375,-0.1061,2.4563,-0.8512,-0.2756,-0.5642,
11.591601,0.0683,-0.8937,-0.1530,-0.0375,-0.1061,2.4563,-0.8512,-0.2756,-0.5642,
11.622735,0.0683,-0.8937,-0.1530,-0.0375,-0.1061,2.4563,-0.4144,-0.5973,-0.9094,
11.625476,0.0683,-0.8937,-0.1530,0.9889,0.4899,2.1536,-0.4144,-0.5973,-0.9094,
11.663652,0.0683,-0.8937,-0.1530,0.9889,0.4899,2.1536,0.0053,-0.7113,-0.8305,
11.666201,0.0683,-0.8937,-0.1530,-2.3113,1.3724,2.2683,0.0053,-0.7113,-0.8305,
11.667600,-0.1046,-0.8692,-0.1660,-2.3113,1.3724,2.2683,0.0053,-0.7113,-0.8305,
11.668809,-0.2602,-0.8104,-0.1010,-2.3113,1.3724,2.2683,0.0053,-0.7113,-0.8305,
11.669628,-0.3382,-0.7442,-0.0404,-2.3113,1.3724,2.2683,0.0053,-0.7113,-0.8305,
11.670909,-0.3396,-0.7205,-0.0727,-2.3113,1.3724,2.2683,0.0053,-0.7113,-0.8305,
11.702120,-0.3396,-0.7205,-0.0727,-2.3113,1.3724,2.2683,0.3323,-0.5494,-0.2532,
11.704447,-0.3396,-0.7205,-0.0727,-2.2954,1.3908,2.1108,0.3323,-0.5494,-0.2532,
11.742237,-0.3396,-0.7205,-0.0727,-2.2954,1.3908,2.1108,0.4580,-0.4077,0.1165,
11.744686,-0.3396,-0.7205,-0.0727,-1.8572,2.0108,1.3834,0.4580,-0.4077,0.1165,
11.746238,-0.2138,-0.7383,-0.1626,-1.8572,2.0108,1.3834,0.4580,-0.4077,0.1165,
11.747193,-0.0533,-0.7815,-0.2356,-1.8572,2.0108,1.3834,0.4580,-0.4077,0.1165,
11.748549,0.0156,-0.8262,-0.3155,-1.8572,2.0108,1.3834,0.4580,-0.4077,0.1165,
11.749878,0.0652,-0.8546,-0.3509,-1.8572,2.0108,1.3834,0.4580,-0.4077,0.1165,
11.781250,0.0652,-0.8546,-0.3509,-1.8572,2.0108,1.3834,0.5230,-0.5409,0.0590,
11.783706,0.0652,-0.8546,-0.3509,-1.7454,2.0344,1.1661,0.5230,-0.5409,0.0590,
11.821189,0.0652,-0.8546,-0.3509,-1.7454,2.0344,1.1661,0.7222,-0.4972,-0.2340,
11.823899,0.0652,-0.8546,-0.3509,0.8581,1.1291,-0.8476,0.7222,-0.4972,-0.2340,
11.825473,0.1250,-0.8539,-0.3416,0.8581,1.1291,-0.8476,0.7222,-0.4972,-0.2340,
11.826621,0.1763,-0.8656,-0.3595,0.8581,1.1291,-0.8476,0.7222,-0.4972,-0.2340,
11.827871,0.1846,-0.9245,-0.3646,0.8581,1.1291,-0.8476,0.7222,-0.4972,-0.2340,
11.829280,0.1387,-1.0149,-0.4037,0.8581,1.1291,-0.8476,0.7222,-0.4972,-0.2340,
11.860940,0.1387,-1.0149,-0.4037,0.8581,1.1291,-0.8476,0.7691,-0.1489,-0.5110,
11.863557,0.1387,-1.0149,-0.4037,1.6135,0.3133,-1.5019,0.7691,-0.1489,-0.5110,
11.900360,0.1387,-1.0149,-0.4037,1.6135,0.3133,-1.5019,0.2493,-0.0285,-0.4673,
11.903060,0.1387,-1.0149,-0.4037,0.3755,-0.3990,-3.5073,0.2493,-0.0285,-0.4673,
11.904291,0.0832,-1.0544,-0.4865,0.3755,-0.3990,-3.5073,0.2493,-0.0285,-0.4673,
11.905582,0.0371,-1.0105,-0.6131,0.3755,-0.3990,-3.5073,0.2493,-0.0285,-0.4673,
11.906684,0.0554,-0.9660,-0.6316,0.3755,-0.3990,-3.5073,0.2493,-0.0285,-0.4673,
11.908854,0.1309,-0.9428,-0.5258,0.3755,-0.3990,-3.5073,0.2493,-0.0285,-0.4673,
11.940096,0.1309,-0.9428,-0.5258,0.3755,-0.3990,-3.5073,-0.1044,-0.4216,-0.3490,
11.942606,0.1309,-0.9428,-0.5258,0.2756,-0.4046,-3.4060,-0.1044,-0.4216,-0.3490,
11.980054,0.1309,-0.9428,-0.5258,0.2756,-0.4046,-3.4060,0.0362,-0.3939,-0.4034,
11.982455,0.1309,-0.9428,-0.5258,0.2395,0.2448,-1.9830,0.0362,-0.3939,-0.4034,
11.983860,0.0674,-0.9149,-0.4266,0.2395,0.2448,-1.9830,0.0362,-0.3939,-0.4034,
11.985006,0.0034,-0.9723,-0.3509,0.2395,0.2448,-1.9830,0.0362,-0.3939,-0.4034,
11.986264,0.0244,-1.2560,-0.2586,0.2395,0.2448,-1.9830,0.0362,-0.3939,-0.4034,
11.987523,-0.2263,-1.8267,-0.1340,0.2395,0.2448,-1.9830,0.0362,-0.3939,-0.4034,
12.019441,-0.2263,-1.8267,-0.1340,-0.0003,0.2295,-1.9591,0.0362,-0.3939,-0.4034,
12.021990,-0.2263,-1.8267,-0.1340,-0.0003,0.2295,-1.9591,-0.0043,0.4850,-0.5216,
12.058907,-0.2263,-1.8267,-0.1340,-0.0003,0.2295,-1.9591,0.0916,0.9899,-0.0145,
12.061256,-0.2263,-1.8267,-0.1340,-2.6766,-6.4189,0.1582,0.0916,0.9899,-0.0145,
12.062695,-0.4007,-1.8184,-0.2427,-2.6766,-6.4189,0.1582,0.0916,0.9899,-0.0145,
12.063909,-0.2881,-0.6797,0.2611,-2.6766,-6.4189,0.1582,0.0916,0.9899,-0.0145,
12.065720,-0.6311,-0.3469,0.1184,-2.6766,-6.4189,0.1582,0.0916,0.9899,-0.0145,
12.066801,-0.5068,-0.7315,-0.0443,-2.6766,-6.4189,0.1582,0.0916,0.9899,-0.0145,
12.098028,-0.5068,-0.7315,-0.0443,-2.6766,-6.4189,0.1582,0.4154,0.4786,0.9751,
12.100254,-0.5068,-0.7315,-0.0443,-4.9517,3.8397,3.1057,0.4154,0.4786,0.9751,
12.137822,-0.5068,-0.7315,-0.0443,-4.9517,3.8397,3.1057,0.5220,0.6117,1.0113,
12.139793,-0.5068,-0.7315,-0.0443,-0.1322,-1.0037,3.0661,0.5220,0.6117,1.0113,
12.140640,-0.1823,-1.0481,0.1526,-0.1322,-1.0037,3.0661,0.5220,0.6117,1.0113,
12.141397,0.0002,-1.1534,0.1731,-0.1322,-1.0037,3.0661,0.5220,0.6117,1.0113,
12.142363,0.1272,-1.0581,0.0749,-0.1322,-1.0037,3.0661,0.5220,0.6117,1.0113,
12.142977,0.2247,-0.9218,-0.0001,-0.1322,-1.0037,3.0661,0.5220,0.6117,1.0113,
12.177458,0.2247,-0.9218,-0.0001,-0.1322,-1.0037,3.0661,0.7499,0.6405,0.4073,
12.180079,0.2247,-0.9218,-0.0001,-0.0171,-0.9415,2.7354,0.7499,0.6405,0.4073,
12.219252,0.2247,-0.9218,-0.0001,-0.0171,-0.9415,2.7354,0.7329,0.6693,-0.0774,
12.222344,0.2247,-0.9218,-0.0001,2.2338,0.4194,0.0939,0.7329,0.6693,-0.0774,
12.223717,0.2345,-0.9274,-0.1264,2.2338,0.4194,0.0939,0.7329,0.6693,-0.0774,
12.224817,0.2061,-1.0031,-0.1958,2.2338,0.4194,0.0939,0.7329,0.6693,-0.0774,
12.226230,0.1648,-1.0300,-0.1757,2.2338,0.4194,0.0939,0.7329,0.6693,-0.0774,
12.227470,0.0363,-1.0175,-0.1227,2.2338,0.4194,0.0939,0.7329,0.6693,-0.0774,
12.257090,0.0363,-1.0175,-0.1227,2.2338,0.4194,0.0939,0.5560,0.4786,-0.1371,
12.259522,0.0363,-1.0175,-0.1227,2.1251,0.4351,-0.1183,0.5560,0.4786,-0.1371,
12.296554,0.0363,-1.0175,-0.1227,2.1251,0.4351,-0.1183,0.5294,0.3188,0.0621,
12.298693,0.0363,-1.0175,-0.1227,0.4792,-0.1693,-0.5036,0.5294,0.3188,0.0621,
12.301516,-0.0413,-0.9960,-0.0814,0.4792,-0.1693,-0.5036,0.5294,0.3188,0.0621,
12.303867,-0.0247,-0.9699,-0.0621,0.4792,-0.1693,-0.5036,0.5294,0.3188,0.0621,
12.305007,-0.0189,-0.9516,-0.0563,0.4792,-0.1693,-0.5036,0.5294,0.3188,0.0621,
12.306810,0.0109,-0.9540,-0.0551,0.4792,-0.1693,-0.5036,0.5294,0.3188,0.0621,
12.336453,0.0109,-0.9540,-0.0551,0.4792,-0.1693,-0.5036,0.5124,0.2559,0.1857,
12.339087,0.0109,-0.9540,-0.0551,-0.0828,0.3862,-0.0275,0.5124,0.2559,0.1857,
12.376610,0.0109,-0.9540,-0.0551,0.4165,0.2143,0.1790,0.5124,0.2559,0.1857,
12.379803,0.0109,-0.9540,-0.0551,0.4165,0.2143,0.1790,0.5955,0.2836,0.1410,
12.381009,0.0468,-0.9804,-0.0282,0.4165,0.2143,0.1790,0.5955,0.2836,0.1410,
12.382105,0.0466,-0.9777,-0.0121,0.4165,0.2143,0.1790,0.5955,0.2836,0.1410,
12.382983,0.0136,-0.9719,0.0014,0.4165,0.2143,0.1790,0.5955,0.2836,0.1410,
12.383944,-0.0030,-0.9753,-0.0455,0.4165,0.2143,0.1790,0.5955,0.2836,0.1410,
12.415155,-0.0030,-0.9753,-0.0455,0.4165,0.2143,0.1790,0.7030,0.3284,0.1825,
12.417710,-0.0030,-0.9753,-0.0455,0.4770,0.2147,-0.0909,0.7030,0.3284,0.1825,
12.455558,0.0202,-0.9872,-0.1020,0.4770,0.2147,-0.0909,0.7030,0.3284,0.1825,
12.458116,0.0425,-0.9968,-0.1249,0.4770,0.2147,-0.0909,0.7030,0.3284,0.1825,
12.459325,0.0490,-0.9985,-0.0780,0.4770,0.2147,-0.0909,0.7030,0.3284,0.1825,
12.460449,0.0490,-0.9985,-0.0780,0.4770,0.2147,-0.0909,0.5475,0.2762,0.2528,
12.461376,0.0490,-0.9985,-0.0780,0.4139,0.1137,-1.0465,0.5475,0.2762,0.2528,
12.494603,0.0490,-0.9985,-0.0780,0.4139,0.1137,-1.0465,0.5251,0.2069,0.2486,
12.496831,0.0490,-0.9985,-0.0780,0.3178,0.0852,-0.6485,0.5251,0.2069,0.2486,
12.535620,0.0490,-0.9985,-0.0780,0.4546,0.0664,-0.8817,0.5251,0.2069,0.2486,
12.537850,0.0490,-0.9985,-0.0780,0.4546,0.0664,-0.8817,0.6508,0.2485,0.3615,
12.539215,-0.0018,-0.9904,-0.0194,0.4546,0.0664,-0.8817,0.6508,0.2485,0.3615,
12.540479,-0.0455,-0.9763,0.0050,0.4546,0.0664,-0.8817,0.6508,0.2485,0.3615,
12.541451,-0.0631,-1.0002,-0.0118,0.4546,0.0664,-0.8817,0.6508,0.2485,0.3615,
12.542542,-0.0621,-1.0361,-0.0890,0.4546,0.0664,-0.8817,0.6508,0.2485,0.3615,
12.543353,-0.0037,-1.0454,-0.1401,0.4546,0.0664,-0.8817,0.6508,0.2485,0.3615,
12.573581,-0.0037,-1.0454,-0.1401,0.4546,0.0664,-0.8817,0.4857,0.3369,0.4382,
12.575881,-0.0037,-1.0454,-0.1401,0.2024,-0.3309,-1.5214,0.4857,0.3369,0.4382,
12.613439,-0.0037,-1.0454,-0.1401,0.2024,-0.3309,-1.5214,0.3611,0.3433,0.3828,
12.615676,-0.0037,-1.0454,-0.1401,0.9873,-0.8102,-1.9460,0.3611,0.3433,0.3828,
12.617092,0.0371,-1.0710,-0.1105,0.9873,-0.8102,-1.9460,0.3611,0.3433,0.3828,
12.618281,0.0170,-1.0864,-0.0959,0.9873,-0.8102,-1.9460,0.3611,0.3433,0.3828,
12.619617,0.0139,-1.0684,-0.1349,0.9873,-0.8102,-1.9460,0.3611,0.3433,0.3828,
12.620720,0.0681,-1.0600,-0.1503,0.9873,-0.8102,-1.9460,0.3611,0.3433,0.3828,
12.653362,0.0681,-1.0600,-0.1503,0.9873,-0.8102,-1.9460,0.4144,0.2101,0.4989,
12.656036,0.0681,-1.0600,-0.1503,1.1671,-0.8281,-2.0634,0.4144,0.2101,0.4989,
12.692107,0.0681,-1.0600,-0.1503,1.1671,-0.8281,-2.0634,0.2269,-0.0924,0.4116,
12.693901,0.0681,-1.0600,-0.1503,2.4923,-1.0789,-2.7025,0.2269,-0.0924,0.4116,
12.694934,0.1424,-1.0723,-0.1953,2.4923,-1.0789,-2.7025,0.2269,-0.0924,0.4116,
12.695734,0.2289,-1.1680,-0.1775,2.4923,-1.0789,-2.7025,0.2269,-0.0924,0.4116,
12.696654,0.2540,-1.2777,-0.0341,2.4923,-1.0789,-2.7025,0.2269,-0.0924,0.4116,
12.697458,0.1475,-1.1971,0.0021,2.4923,-1.0789,-2.7025,0.2269,-0.0924,0.4116,
12.731538,0.1475,-1.1971,0.0021,2.4923,-1.0789,-2.7025,-0.4432,-0.4067,-0.0476,
12.733541,0.1475,-1.1971,0.0021,2.4181,-1.0431,-2.5065,-0.4432,-0.4067,-0.0476,
12.772178,0.1475,-1.1971,0.0021,2.4181,-1.0431,-2.5065,-1.5276,-0.5803,-0.2372,
12.774048,0.1475,-1.1971,0.0021,2.2371,-2.0782,-0.6509,-1.5276,-0.5803,-0.2372,
12.775398,0.0258,-1.1653,-0.1007,2.2371,-2.0782,-0.6509,-1.5276,-0.5803,-0.2372,
12.776340,-0.0917,-1.1678,-0.1557,2.2371,-2.0782,-0.6509,-1.5276,-0.5803,-0.2372,
12.777057,-0.2605,-1.0271,-0.1892,2.2371,-2.0782,-0.6509,-1.5276,-0.5803,-0.2372,
12.777806,-0.4090,-0.9921,-0.0692,2.2371,-2.0782,-0.6509,-1.5276,-0.5803,-0.2372,
12.810615,-0.4090,-0.9921,-0.0692,2.2371,-2.0782,-0.6509,-2.2861,0.0482,-0.2489,
12.812773,-0.4090,-0.9921,-0.0692,-1.7155,-0.6002,-0.6690,-2.2861,0.0482,-0.2489,
12.851193,-0.4576,-1.0576,0.0984,-1.7155,-0.6002,-0.6690,-2.2861,0.0482,-0.2489,
12.853674,-0.4359,-1.1258,0.1812,-1.7155,-0.6002,-0.6690,-2.2861,0.0482,-0.2489,
12.854931,-0.3511,-1.1319,0.1709,-1.7155,-0.6002,-0.6690,-2.2861,0.0482,-0.2489,
12.856221,-0.3511,-1.1319,0.1709,-1.7155,-0.6002,-0.6690,-2.1923,0.4626,-0.0774,
12.857240,-0.3511,-1.1319,0.1709,-3.2907,-1.0951,2.9671,-2.1923,0.4626,-0.0774,
12.891178,-0.3511,-1.1319,0.1709,-3.2907,-1.0951,2.9671,-1.8302,0.4743,0.1037,
12.893818,-0.3511,-1.1319,0.1709,-0.4196,-0.2266,2.7861,-1.8302,0.4743,0.1037,
12.930429,-0.3511,-1.1319,0.1709,-0.4196,-0.2266,2.7861,-1.4413,0.0333,-0.0358,
12.932724,-0.3511,-1.1319,0.1709,-0.4282,-0.3587,3.2760,-1.4413,0.0333,-0.0358,
12.935465,-0.1989,-1.0757,0.1426,-0.4282,-0.3587,3.2760,-1.4413,0.0333,-0.0358,
12.936632,-0.0990,-1.0087,0.0857,-0.4282,-0.3587,3.2760,-1.4413,0.0333,-0.0358,
12.937643,-0.0714,-0.9240,-0.0380,-0.4282,-0.3587,3.2760,-1.4413,0.0333,-0.0358,
12.938987,0.0097,-0.8744,-0.0788,-0.4282,-0.3587,3.2760,-1.4413,0.0333,-0.0358,
12.940139,0.0749,-0.9164,-0.0985,-0.4282,-0.3587,3.2760,-1.4413,0.0333,-0.0358,
12.970157,0.0749,-0.9164,-0.0985,-0.4282,-0.3587,3.2760,-1.0738,-0.1968,-0.4556,
12.972895,0.0749,-0.9164,-0.0985,-0.5658,-0.4597,3.6101,-1.0738,-0.1968,-0.4556,
12.999849,0.1221,-0.9792,-0.1467,-0.5658,-0.4597,3.6101,-1.0738,-0.1968,-0.4556,
13.002430,0.0205,-1.0061,-0.1772,-0.5658,-0.4597,3.6101,-1.0738,-0.1968,-0.4556,
13.003772,-0.1418,-0.9528,-0.1650,-0.5658,-0.4597,3.6101,-1.0738,-0.1968,-0.4556,
13.009122,-0.1418,-0.9528,-0.1650,-0.5658,-0.4597,3.6101,-0.7958,-0.3438,-0.8604,
13.011989,-0.1418,-0.9528,-0.1650,1.0239,0.2337,2.1803,-0.7958,-0.3438,-0.8604,
13.050201,-0.1418,-0.9528,-0.1650,1.0239,0.2337,2.1803,-0.3675,-0.5302,-0.7464,
13.052944,-0.1418,-0.9528,-0.1650,-1.0420,0.0624,1.7665,-0.3675,-0.5302,-0.7464,
13.089014,-0.2473,-0.8507,-0.1391,-1.0420,0.0624,1.7665,-0.3675,-0.5302,-0.7464,
13.091147,-0.2903,-0.7764,-0.1098,-1.0420,0.0624,1.7665,-0.3675,-0.5302,-0.7464,
13.092820,-0.2805,-0.7598,-0.1369,-1.0420,0.0624,1.7665,-0.3675,-0.5302,-0.7464,
13.093957,-0.2104,-0.7823,-0.1843,-1.0420,0.0624,1.7665,-0.3675,-0.5302,-0.7464,
13.095448,-0.2104,-0.7823,-0.1843,-1.0420,0.0624,1.7665,-0.0267,-0.2724,-0.2926,
13.096595,-0.2104,-0.7823,-0.1843,-2.4198,1.6367,1.9070,-0.0267,-0.2724,-0.2926,
13.128607,-0.2104,-0.7823,-0.1843,-2.4198,1.6367,1.9070,0.1044,-0.1126,-0.0465,
13.131142,-0.2104,-0.7823,-0.1843,-0.3170,0.9450,0.4356,0.1044,-0.1126,-0.0465,
13.168905,-0.1102,-0.8333,-0.2637,-0.3170,0.9450,0.4356,0.1044,-0.1126,-0.0465,
13.171202,-0.0394,-0.8556,-0.3128,-0.3170,0.9450,0.4356,0.1044,-0.1126,-0.0465,
13.172475,0.0112,-0.8407,-0.2908,-0.3170,0.9450,0.4356,0.1044,-0.1126,-0.0465,
13.173634,0.0112,-0.8407,-0.2908,-0.3170,0.9450,0.4356,0.2077,-0.2660,-0.0816,
13.174752,0.0112,-0.8407,-0.2908,-0.3075,0.9559,0.3522,0.2077,-0.2660,-0.0816,
13.207753,0.0112,-0.8407,-0.2908,-0.3075,0.9559,0.3522,0.4932,-0.2245,-0.1456,
13.210578,0.0112,-0.8407,-0.2908,0.7749,1.1657,0.4720,0.4932,-0.2245,-0.1456,
13.247963,0.0530,-0.8179,-0.2561,0.7749,1.1657,0.4720,0.4932,-0.2245,-0.1456,
13.250455,0.0757,-0.8187,-0.2495,0.7749,1.1657,0.4720,0.4932,-0.2245,-0.1456,
13.251487,0.0762,-0.8414,-0.2669,0.7749,1.1657,0.4720,0.4932,-0.2245,-0.1456,
13.252875,0.0661,-0.8700,-0.3140,0.7749,1.1657,0.4720,0.4932,-0.2245,-0.1456,
13.254028,0.0737,-0.9215,-0.4061,0.7749,1.1657,0.4720,0.4932,-0.2245,-0.1456,
13.255408,0.0862,-1.0009,-0.5075,0.7749,1.1657,0.4720,0.4932,-0.2245,-0.1456,
13.256573,0.0862,-1.0009,-0.5075,0.7749,1.1657,0.4720,0.6732,-0.0935,-0.2510,
13.257583,0.0862,-1.0009,-0.5075,0.7498,0.2123,-1.2422,0.6732,-0.0935,-0.2510,
13.287004,0.0862,-1.0009,-0.5075,0.7498,0.2123,-1.2422,0.5571,-0.1499,-0.4034,
13.288730,0.0862,-1.0009,-0.5075,0.6057,0.2657,-1.4244,0.5571,-0.1499,-0.4034,
13.318552,0.0918,-1.0478,-0.6040,0.6057,0.2657,-1.4244,0.5571,-0.1499,-0.4034,
13.320604,0.1004,-1.0366,-0.6651,0.6057,0.2657,-1.4244,0.5571,-0.1499,-0.4034,
13.321980,0.0679,-1.0075,-0.6082,0.6057,0.2657,-1.4244,0.5571,-0.1499,-0.4034,
13.326491,0.0679,-1.0075,-0.6082,0.6057,0.2657,-1.4244,0.0586,-0.1446,-0.4066,
13.328872,0.0679,-1.0075,-0.6082,0.5703,-0.6981,-3.5077,0.0586,-0.1446,-0.4066,
13.365842,0.0679,-1.0075,-0.6082,0.5703,-0.6981,-3.5077,-0.1907,-0.1915,-0.2510,
13.367708,0.0679,-1.0075,-0.6082,-0.7120,0.4403,-1.3892,-0.1907,-0.1915,-0.2510,
13.405598,0.0679,-1.0075,-0.6082,-0.7120,0.4403,-1.3892,0.0532,-0.4706,-0.1200,
13.407914,0.0679,-1.0075,-0.6082,-0.6940,0.4370,-1.3792,0.0532,-0.4706,-0.1200,
13.409438,-0.0037,-0.9486,-0.4897,-0.6940,0.4370,-1.3792,0.0532,-0.4706,-0.1200,
13.410791,-0.0577,-0.8824,-0.4166,-0.6940,0.4370,-1.3792,0.0532,-0.4706,-0.1200,
13.412566,-0.0523,-0.9030,-0.3521,-0.6940,0.4370,-1.3792,0.0532,-0.4706,-0.1200,
13.413674,-0.0501,-1.1952,-0.3783,-0.6940,0.4370,-1.3792,0.0532,-0.4706,-0.1200,
13.414850,-0.0015,-1.6723,-0.4960,-0.6940,0.4370,-1.3792,0.0532,-0.4706,-0.1200,
13.445988,-0.0015,-1.6723,-0.4960,-0.8084,0.4289,-1.3713,0.0532,-0.4706,-0.1200,
13.448284,-0.0015,-1.6723,-0.4960,-0.8084,0.4289,-1.3713,0.0394,0.0344,-0.3352,
13.485692,-0.0015,-1.6723,-0.4960,-0.8084,0.4289,-1.3713,0.2769,0.9803,-0.5301,
13.488050,-0.0015,-1.6723,-0.4960,-0.0227,-5.0398,-1.1640,0.2769,0.9803,-0.5301,
13.489402,0.2704,-1.5721,-0.2881,-0.0227,-5.0398,-1.1640,0.2769,0.9803,-0.5301,
13.490398,0.0534,-0.7532,0.1724,-0.0227,-5.0398,-1.1640,0.2769,0.9803,-0.5301,
13.491506,-0.5566,-0.3017,0.0422,-0.0227,-5.0398,-1.1640,0.2769,0.9803,-0.5301,
13.493049,-0.6179,-0.6000,-0.2051,-0.0227,-5.0398,-1.1640,0.2769,0.9803,-0.5301,
13.524072,-0.6179,-0.6000,-0.2051,-0.0227,-5.0398,-1.1640,0.7957,0.6874,0.4499,
13.526612,-0.6179,-0.6000,-0.2051,-4.2262,4.0779,2.3059,0.7957,0.6874,0.4499,
13.564478,-0.2016,-1.0263,-0.1843,-4.2262,4.0779,2.3059,0.7957,0.6874,0.4499,
13.566687,0.1668,-1.2328,0.0119,-4.2262,4.0779,2.3059,0.7957,0.6874,0.4499,
13.568014,0.2235,-1.1443,-0.0091,-4.2262,4.0779,2.3059,0.7957,0.6874,0.4499,
13.569327,0.2235,-1.1443,-0.0091,-4.2262,4.0779,2.3059,0.6828,1.0442,0.4872,
13.570477,0.2235,-1.1443,-0.0091,0.1457,-1.5401,1.3795,0.6828,1.0442,0.4872,
13.606428,0.2235,-1.1443,-0.0091,0.1457,-1.5401,1.3795,0.5486,0.9249,0.1420,
13.608748,0.2235,-1.1443,-0.0091,-0.2315,0.8218,0.2007,0.5486,0.9249,0.1420,
13.643828,0.2235,-1.1443,-0.0091,-0.2315,0.8218,0.2007,0.3835,0.1579,0.3104,
13.645704,0.2235,-1.1443,-0.0091,-0.1218,0.8383,0.0505,0.3835,0.1579,0.3104,
13.647164,0.1091,-0.9347,-0.0951,-0.1218,0.8383,0.0505,0.3835,0.1579,0.3104,
13.648260,0.0087,-0.8453,-0.1841,-0.1218,0.8383,0.0505,0.3835,0.1579,0.3104,
13.649579,-0.0416,-0.9093,-0.1931,-0.1218,0.8383,0.0505,0.3835,0.1579,0.3104,
13.650666,-0.0543,-0.9978,-0.0941,-0.1218,0.8383,0.0505,0.3835,0.1579,0.3104,
13.651990,-0.0382,-1.0544,-0.0189,-0.1218,0.8383,0.0505,0.3835,0.1579,0.3104,
13.682965,-0.0382,-1.0544,-0.0189,-0.1218,0.8383,0.0505,0.3686,0.0802,0.4552,
13.684750,-0.0382,-1.0544,-0.0189,0.0463,0.8512,-0.0896,0.3686,0.0802,0.4552,
13.723428,-0.0382,-1.0544,-0.0189,0.0463,0.8512,-0.0896,0.4868,0.0173,0.3924,
13.724756,-0.0382,-1.0544,-0.0189,-0.2780,-0.5070,0.7042,0.4868,0.0173,0.3924,
13.726382,0.0224,-1.0642,-0.0555,-0.2780,-0.5070,0.7042,0.4868,0.0173,0.3924,
13.727847,0.0945,-1.0449,-0.1174,-0.2780,-0.5070,0.7042,0.4868,0.0173,0.3924,
13.729223,0.1348,-1.0141,-0.0868,-0.2780,-0.5070,0.7042,0.4868,0.0173,0.3924,
13.730927,0.1416,-0.9819,-0.0194,-0.2780,-0.5070,0.7042,0.4868,0.0173,0.3924,
13.764660,0.1416,-0.9819,-0.0194,-0.2780,-0.5070,0.7042,0.5369,-0.1648,0.2049,
13.766469,0.1416,-0.9819,-0.0194,1.2277,-0.2319,0.3133,0.5369,-0.1648,0.2049,
13.802231,0.1416,-0.9819,-0.0194,1.2277,-0.2319,0.3133,0.6604,-0.0200,0.0408,
13.804125,0.1416,-0.9819,-0.0194,0.6358,0.3818,1.0381,0.6604,-0.0200,0.0408,
13.804866,0.1040,-0.9675,0.0326,0.6358,0.3818,1.0381,0.6604,-0.0200,0.0408,
13.805625,0.0654,-0.9533,0.0282,0.6358,0.3818,1.0381,0.6604,-0.0200,0.0408,
13.806145,0.0185,-0.9377,0.0207,0.6358,0.3818,1.0381,0.6604,-0.0200,0.0408,
13.806632,-0.0423,-0.9367,-0.0226,0.6358,0.3818,1.0381,0.6604,-0.0200,0.0408,
13.840574,-0.0423,-0.9367,-0.0226,0.6358,0.3818,1.0381,0.7883,0.1558,0.0611,
13.841867,-0.0423,-0.9367,-0.0226,0.6447,0.3944,0.7223,0.7883,0.1558,0.0611,
13.880522,-0.0423,-0.9367,-0.0226,0.6447,0.3944,0.7223,0.7084,0.1015,0.2528,
13.881983,-0.0423,-0.9367,-0.0226,-0.5176,0.3684,-0.4702,0.7084,0.1015,0.2528,
13.882607,-0.0873,-0.9582,-0.0744,-0.5176,0.3684,-0.4702,0.7084,0.1015,0.2528,
13.883050,-0.0704,-0.9721,-0.1054,-0.5176,0.3684,-0.4702,0.7084,0.1015,0.2528,
13.883402,-0.0399,-0.9723,-0.1029,-0.5176,0.3684,-0.4702,0.7084,0.1015,0.2528,
13.884296,-0.0242,-0.9875,-0.0880,-0.5176,0.3684,-0.4702,0.7084,0.1015,0.2528,
13.920799,-0.0242,-0.9875,-0.0880,-0.5176,0.3684,-0.4702,0.6210,0.1643,0.3530,
13.922713,-0.0242,-0.9875,-0.0880,-0.3754,0.3611,-0.6967,0.6210,0.1643,0.3530,
13.960703,-0.0242,-0.9875,-0.0880,-0.3754,0.3611,-0.6967,0.5773,0.2932,0.3956,
13.962620,-0.0242,-0.9875,-0.0880,0.1834,0.0600,-1.1029,0.5773,0.2932,0.3956,
13.963561,-0.0111,-0.9963,-0.0746,0.1834,0.0600,-1.1029,0.5773,0.2932,0.3956,
13.964332,0.0078,-0.9748,-0.0575,0.1834,0.0600,-1.1029,0.5773,0.2932,0.3956,
13.964929,0.0327,-0.9557,-0.0450,0.1834,0.0600,-1.1029,0.5773,0.2932,0.3956,
13.965712,0.0432,-0.9464,-0.0512,0.1834,0.0600,-1.1029,0.5773,0.2932,0.3956,
14.000010,0.0432,-0.9464,-0.0512,0.1834,0.0600,-1.1029,0.5731,0.0887,0.4148,
14.002129,0.0432,-0.9464,-0.0512,0.8484,0.2973,-0.9402,0.5731,0.0887,0.4148,
14.039774,0.0432,-0.9464,-0.0512,0.8484,0.2973,-0.9402,0.5443,0.0226,0.3967,
14.041675,0.0432,-0.9464,-0.0512,1.2252,-0.0023,-1.2337,0.5443,0.0226,0.3967,
14.042579,0.0351,-0.9592,-0.0663,1.2252,-0.0023,-1.2337,0.5443,0.0226,0.3967,
14.043409,0.0478,-1.0026,-0.0609,1.2252,-0.0023,-1.2337,0.5443,0.0226,0.3967,
14.044287,0.0757,-1.0002,-0.0590,1.2252,-0.0023,-1.2337,0.5443,0.0226,0.3967,
14.044986,0.0627,-0.9596,-0.0133,1.2252,-0.0023,-1.2337,0.5443,0.0226,0.3967,
14.079280,0.0627,-0.9596,-0.0133,1.3440,-0.0275,-1.4014,0.5443,0.0226,0.3967,
14.081360,0.0627,-0.9596,-0.0133,1.3440,-0.0275,-1.4014,0.5038,0.0503,0.3658,
14.119093,0.0627,-0.9596,-0.0133,1.3440,-0.0275,-1.4014,0.6871,-0.2043,0.5085,
14.121400,0.0627,-0.9596,-0.0133,1.3336,0.1017,-0.9337,0.6871,-0.2043,0.5085,
14.122497,0.0288,-0.9469,0.0246,1.3336,0.1017,-0.9337,0.6871,-0.2043,0.5085,
14.123282,0.0139,-1.0019,0.0234,1.3336,0.1017,-0.9337,0.6871,-0.2043,0.5085,
14.124003,0.0410,-1.1033,-0.0365,1.3336,0.1017,-0.9337,0.6871,-0.2043,0.5085,
14.124835,0.1372,-1.2338,-0.0944,1.3336,0.1017,-0.9337,0.6871,-0.2043,0.5085,
14.158823,0.1372,-1.2338,-0.0944,1.3336,0.1017,-0.9337,0.6285,-0.4173,0.5117,
14.160933,0.1372,-1.2338,-0.0944,1.4832,0.0498,-1.1704,0.6285,-0.4173,0.5117,
14.198488,0.2247,-1.3652,-0.0321,1.4832,0.0498,-1.1704,0.6285,-0.4173,0.5117,
14.200914,0.1724,-1.4165,0.0177,1.4832,0.0498,-1.1704,0.6285,-0.4173,0.5117,
14.202094,-0.0545,-1.3388,-0.0795,1.4832,0.0498,-1.1704,0.6285,-0.4173,0.5117,
14.203242,-0.0545,-1.3388,-0.0795,1.4832,0.0498,-1.1704,-0.0107,-0.2980,-0.1093,
14.204385,-0.0545,-1.3388,-0.0795,2.3584,-2.4955,-1.7949,-0.0107,-0.2980,-0.1093,
14.237755,-0.0545,-1.3388,-0.0795,2.3584,-2.4955,-1.7949,-1.1431,-0.0690,-0.1775,
14.239842,-0.0545,-1.3388,-0.0795,0.4514,-3.1192,-1.9324,-1.1431,-0.0690,-0.1775,
14.277960,-0.0545,-1.3388,-0.0795,0.4514,-3.1192,-1.9324,-2.3628,-0.0615,-0.0071,
14.280333,-0.0545,-1.3388,-0.0795,0.4402,-3.0353,-1.0070,-2.3628,-0.0615,-0.0071,
14.281669,-0.2747,-1.1707,-0.2859,0.4402,-3.0353,-1.0070,-2.3628,-0.0615,-0.0071,
14.282989,-0.3262,-1.0190,-0.3692,0.4402,-3.0353,-1.0070,-2.3628,-0.0615,-0.0071,
14.284263,-0.2238,-0.9657,-0.2493,0.4402,-3.0353,-1.0070,-2.3628,-0.0615,-0.0071,
14.285692,-0.1359,-0.9530,-0.0472,0.4402,-3.0353,-1.0070,-2.3628,-0.0615,-0.0071,
14.286829,-0.1926,-0.9946,0.1015,0.4402,-3.0353,-1.0070,-2.3628,-0.0615,-0.0071,
14.317715,-0.1926,-0.9946,0.1015,0.4402,-3.0353,-1.0070,-2.5130,0.0631,-0.2947,
14.320142,-0.1926,-0.9946,0.1015,-1.3810,0.1395,-1.0526,-2.5130,0.0631,-0.2947,
14.356878,-0.1926,-0.9946,0.1015,-1.3810,0.1395,-1.0526,-1.9942,0.6256,-0.1669,
14.359417,-0.1926,-0.9946,0.1015,-2.2429,-0.8799,3.4738,-1.9942,0.6256,-0.1669,
14.360745,-0.3313,-1.0776,0.1897,-2.2429,-0.8799,3.4738,-1.9942,0.6256,-0.1669,
14.362069,-0.4059,-1.1473,0.2063,-2.2429,-0.8799,3.4738,-1.9942,0.6256,-0.1669,
14.363406,-0.3494,-1.1280,0.1594,-2.2429,-0.8799,3.4738,-1.9942,0.6256,-0.1669,
14.364745,-0.2522,-1.0131,0.0515,-2.2429,-0.8799,3.4738,-1.9942,0.6256,-0.1669,
14.395852,-0.2522,-1.0131,0.0515,-2.2429,-0.8799,3.4738,-1.5479,0.2325,0.0451,
14.398533,-0.2522,-1.0131,0.0515,-2.2076,-0.9961,4.0002,-1.5479,0.2325,0.0451,
14.436489,-0.1415,-0.9061,-0.0854,-2.2076,-0.9961,4.0002,-1.5479,0.2325,0.0451,
14.439027,-0.0103,-0.8820,-0.1198,-2.2076,-0.9961,4.0002,-1.5479,0.2325,0.0451,
14.440227,0.0774,-0.9118,-0.0927,-2.2076,-0.9961,4.0002,-1.5479,0.2325,0.0451,
14.441046,0.0774,-0.9118,-0.0927,-2.2076,-0.9961,4.0002,-1.1654,-0.1276,-0.1690,
14.442270,0.0774,-0.9118,-0.0927,-1.6201,-0.5387,3.1644,-1.1654,-0.1276,-0.1690,
14.476316,0.0774,-0.9118,-0.0927,-1.6201,-0.5387,3.1644,-0.8000,0.0557,-0.6420,
14.478609,0.0774,-0.9118,-0.0927,0.9521,0.2562,1.8349,-0.8000,0.0557,-0.6420,
14.515340,0.0774,-0.9118,-0.0927,0.9521,0.2562,1.8349,-0.4868,-0.2937,-0.7751,
14.517520,0.0774,-0.9118,-0.0927,0.6910,0.2056,1.9764,-0.4868,-0.2937,-0.7751,
14.518855,0.0571,-0.9860,-0.1508,0.6910,0.2056,1.9764,-0.4868,-0.2937,-0.7751,
14.519864,-0.0201,-1.0158,-0.1921,0.6910,0.2056,1.9764,-0.4868,-0.2937,-0.7751,
14.520791,-0.1403,-0.9540,-0.1880,0.6910,0.2056,1.9764,-0.4868,-0.2937,-0.7751,
14.521955,-0.2397,-0.8521,-0.1342,0.6910,0.2056,1.9764,-0.4868,-0.2937,-0.7751,
14.523140,-0.2817,-0.7566,-0.0866,0.6910,0.2056,1.9764,-0.4868,-0.2937,-0.7751,
14.554789,-0.2817,-0.7566,-0.0866,0.6910,0.2056,1.9764,-0.1353,-0.3523,-0.3714,
14.556858,-0.2817,-0.7566,-0.0866,-1.0950,0.0530,1.5043,-0.1353,-0.3523,-0.3714,
14.594985,-0.2817,-0.7566,-0.0866,-1.0950,0.0530,1.5043,0.1459,-0.1510,0.0355,
14.597928,-0.2817,-0.7566,-0.0866,-2.2992,2.0427,2.1754,0.1459,-0.1510,0.0355,
14.599661,-0.2808,-0.7168,-0.0834,-2.2992,2.0427,2.1754,0.1459,-0.1510,0.0355,
14.602116,-0.2280,-0.7344,-0.1108,-2.2992,2.0427,2.1754,0.1459,-0.1510,0.0355,
14.603155,-0.1422,-0.7991,-0.2095,-2.2992,2.0427,2.1754,0.1459,-0.1510,0.0355,
14.604264,-0.0472,-0.8306,-0.2864,-2.2992,2.0427,2.1754,0.1459,-0.1510,0.0355,
14.634143,-0.0472,-0.8306,-0.2864,-2.1990,2.0456,2.0196,0.1459,-0.1510,0.0355,
14.637092,-0.0472,-0.8306,-0.2864,-2.1990,2.0456,2.0196,0.3217,-0.2650,0.0845,
14.675115,0.0740,-0.8187,-0.2959,-2.1990,2.0456,2.0196,0.3217,-0.2650,0.0845,
14.677614,0.1675,-0.8304,-0.2915,-2.1990,2.0456,2.0196,0.3217,-0.2650,0.0845,
14.679276,0.1907,-0.8355,-0.3311,-2.1990,2.0456,2.0196,0.3217,-0.2650,0.0845,
14.680690,0.1907,-0.8355,-0.3311,-2.1990,2.0456,2.0196,0.5038,-0.3843,-0.1136,
14.682074,0.1907,-0.8355,-0.3311,0.0073,1.2960,0.1560,0.5038,-0.3843,-0.1136,
14.713855,0.1907,-0.8355,-0.3311,0.0073,1.2960,0.1560,0.7105,-0.3672,-0.3938,
14.716462,0.1907,-0.8355,-0.3311,2.0823,1.0936,-0.7839,0.7105,-0.3672,-0.3938,
14.753366,0.1907,-0.8355,-0.3311,2.0823,1.0936,-0.7839,0.6061,-0.3406,-0.5376,
14.756408,0.1907,-0.8355,-0.3311,1.8825,1.1347,-0.9946,0.6061,-0.3406,-0.5376,
14.757574,0.2052,-0.8629,-0.3790,1.8825,1.1347,-0.9946,0.6061,-0.3406,-0.5376,
14.758745,0.1768,-0.9369,-0.4025,1.8825,1.1347,-0.9946,0.6061,-0.3406,-0.5376,
14.760013,0.1221,-0.9806,-0.4557,1.8825,1.1347,-0.9946,0.6061,-0.3406,-0.5376,
14.761017,0.0740,-0.9543,-0.5100,1.8825,1.1347,-0.9946,0.6061,-0.3406,-0.5376,
14.762212,0.0346,-0.9232,-0.5835,1.8825,1.1347,-0.9946,0.6061,-0.3406,-0.5376,
14.792706,0.0346,-0.9232,-0.5835,1.8825,1.1347,-0.9946,0.2013,-0.2597,-0.4300,
14.795849,0.0346,-0.9232,-0.5835,1.1039,0.0311,-2.2287,0.2013,-0.2597,-0.4300,
14.832191,0.0346,-0.9232,-0.5835,1.1039,0.0311,-2.2287,-0.1481,-0.4386,-0.2851,
14.834734,0.0346,-0.9232,-0.5835,-0.4777,0.2395,-3.2679,-0.1481,-0.4386,-0.2851,
14.836405,-0.0023,-0.9066,-0.5752,-0.4777,0.2395,-3.2679,-0.1481,-0.4386,-0.2851,
14.837551,-0.1256,-0.9723,-0.5622,-0.4777,0.2395,-3.2679,-0.1481,-0.4386,-0.2851,
14.838700,-0.2825,-1.5057,-0.5767,-0.4777,0.2395,-3.2679,-0.1481,-0.4386,-0.2851,
14.839846,-0.2449,-2.2164,-0.6360,-0.4777,0.2395,-3.2679,-0.1481,-0.4386,-0.2851,
14.871989,-0.2449,-2.2164,-0.6360,-0.4777,0.2395,-3.2679,-0.7596,0.4104,-0.5685,
14.874920,-0.2449,-2.2164,-0.6360,-0.7174,0.1552,-2.9417,-0.7596,0.4104,-0.5685,
14.904587,0.0581,-1.2792,0.1172,-0.7174,0.1552,-2.9417,-0.7596,0.4104,-0.5685,
14.908743,-0.2512,-0.2375,0.4807,-0.7174,0.1552,-2.9417,-0.7596,0.4104,-0.5685,
14.910120,-0.6467,-0.3408,-0.1049,-0.7174,0.1552,-2.9417,-0.7596,0.4104,-0.5685,
14.911386,-0.6467,-0.3408,-0.1049,-2.1153,-6.8993,-0.9647,-0.7596,0.4104,-0.5685,
14.912808,-0.6467,-0.3408,-0.1049,-2.1153,-6.8993,-0.9647,0.1725,0.8951,-0.3011,
14.951586,-0.6467,-0.3408,-0.1049,-2.1153,-6.8993,-0.9647,0.7307,0.2591,0.7024,
14.954300,-0.6467,-0.3408,-0.1049,-4.1613,4.4427,3.2711,0.7307,0.2591,0.7024,
14.992622,-0.6467,-0.3408,-0.1049,-4.1613,4.4427,3.2711,0.6636,0.6075,0.4350,
14.995531,-0.6467,-0.3408,-0.1049,-3.9820,4.4279,2.9668,0.6636,0.6075,0.4350,
14.996916,-0.2920,-0.9538,-0.0719,-3.9820,4.4279,2.9668,0.6636,0.6075,0.4350,
14.998204,-0.0235,-1.3713,0.1404,-3.9820,4.4279,2.9668,0.6636,0.6075,0.4350,
14.999618,-0.0208,-1.2389,0.0490,-3.9820,4.4279,2.9668,0.6636,0.6075,0.4350,
15.000762,-0.0460,-0.9140,-0.0287,-3.9820,4.4279,2.9668,0.6636,0.6075,0.4350,
15.001812,-0.0726,-0.8299,-0.0670,-3.9820,4.4279,2.9668,0.6636,0.6075,0.4350,
15.030116,-0.0726,-0.8299,-0.0670,-3.9820,4.4279,2.9668,0.6743,0.8312,0.2496,
15.032385,-0.0726,-0.8299,-0.0670,-0.3510,-1.9957,2.2068,0.6743,0.8312,0.2496,
15.070146,-0.0726,-0.8299,-0.0670,-0.3510,-1.9957,2.2068,0.7851,0.4775,0.4393,
15.072986,-0.0726,-0.8299,-0.0670,-0.5545,0.6019,0.5289,0.7851,0.4775,0.4393,
15.074052,-0.1144,-0.8937,-0.0795,-0.5545,0.6019,0.5289,0.7851,0.4775,0.4393,
15.075394,-0.0103,-1.0168,-0.1127,-0.5545,0.6019,0.5289,0.7851,0.4775,0.4393,
15.076546,0.1412,-1.0938,-0.1076,-0.5545,0.6019,0.5289,0.7851,0.4775,0.4393,
15.077643,0.2523,-1.1016,-0.0888,-0.5545,0.6019,0.5289,0.7851,0.4775,0.4393,
15.109621,0.2523,-1.1016,-0.0888,-0.5545,0.6019,0.5289,0.7776,0.3007,0.2486,
15.112178,0.2523,-1.1016,-0.0888,-0.4671,0.6278,0.2314,0.7776,0.3007,0.2486,
15.149380,0.2523,-1.1016,-0.0888,-0.4671,0.6278,0.2314,0.6636,0.2559,0.0121,
15.151835,0.2523,-1.1016,-0.0888,2.0564,-0.9363,-0.1779,0.6636,0.2559,0.0121,
15.153225,0.1939,-1.0364,-0.1125,2.0564,-0.9363,-0.1779,0.6636,0.2559,0.0121,
15.154208,0.1087,-0.9494,-0.1384,2.0564,-0.9363,-0.1779,0.6636,0.2559,0.0121,
15.155805,0.0647,-0.9196,-0.1117,2.0564,-0.9363,-0.1779,0.6636,0.2559,0.0121,
15.156984,0.0395,-0.9120,-0.0426,2.0564,-0.9363,-0.1779,0.6636,0.2559,0.0121,
15.189135,0.0395,-0.9120,-0.0426,2.0564,-0.9363,-0.1779,0.6072,0.3603,0.0078,
15.191489,0.0395,-0.9120,-0.0426,0.8121,0.5441,-0.3490,0.6072,0.3603,0.0078,
15.229039,0.0395,-0.9120,-0.0426,0.8121,0.5441,-0.3490,0.7361,0.3529,0.1058,
15.231518,-0.0057,-0.9301,0.0053,0.8121,0.5441,-0.3490,0.7361,0.3529,0.1058,
15.232732,-0.0472,-0.9511,0.0092,0.8121,0.5441,-0.3490,0.7361,0.3529,0.1058,
