time,gFx,gFy,gFz,ax,ay,az,wx,wy,wz
2022-01-25 17:38:19.3490,0.235,-0.319,-0.766,-1.22,-1.81,-1.35,0.36,-0.5,0.62
2022-01-25 17:38:19.3570,0.226,-0.338,-0.801,-1.18,-1.75,-0.78,0.45,-0.78,0.59
2022-01-25 17:38:19.3670,0.211,-0.351,-0.79,-1.18,-1.59,-0.55,0.47,-0.88,0.58
2022-01-25 17:38:19.3760,0.189,-0.365,-0.763,-1.1,-1.51,-0.72,0.4,-0.82,0.57
2022-01-25 17:38:19.3860,0.162,-0.382,-0.741,-0.97,-1.41,-0.97,0.26,-0.59,0.55
2022-01-25 17:38:19.3960,0.125,-0.394,-0.722,-0.48060253500938416,-1.2,-1.37,0.26,-0.59,0.55
2022-01-25 17:38:19.4060,0.091,-0.402,-0.682,-0.49,-1.2,-1.37,-0.14,0.22,0.45
2022-01-25 17:38:19.4170,0.063,-0.418,-0.653,-0.2,-1.12,-1.77,-0.32,0.63,0.4
2022-01-25 17:38:19.4260,0.056,-0.439,-0.631,0.03,-0.94,-2.02,-0.32,0.63,0.4
2022-01-25 17:38:19.4370,0.069,-0.459,-0.632,0.08,-0.7,-2.23,-0.44,0.91,0.36
2022-01-25 17:38:19.4460,0.101,-0.465,-0.665,-0.03,-0.49,-2.15,-0.49,0.8,0.33
2022-01-25 17:38:19.4560,0.134,-0.469,-0.704,-0.5678671123087407,-0.3086008393764496,-1.48,-0.4,0.54,0.37
2022-01-25 17:38:19.4660,0.158,-0.479,-0.716,-0.57,-0.31,-1.48,-0.25,0.27,0.43
2022-01-25 17:38:19.4760,0.158,-0.484,-0.704,-0.68,-0.13,-1.58,-0.11,0.04,0.46
2022-01-25 17:38:19.4870,0.142,-0.491,-0.702,-0.68,-0.13,-1.58,-0.11,0.04,0.46
2022-01-25 17:38:19.4960,0.118,-0.498,-0.705,-0.52,-0.05,-1.58,-0.0,-0.13,0.45
2022-01-25 17:38:19.5150,0.092,-0.508,-0.703,-0.09,0.11,-1.59,0.06,-0.23,0.4
2022-01-25 17:38:19.5170,0.069,-0.511,-0.702,-0.09,0.11,-1.59,0.11,-0.2,0.29
2022-01-25 17:38:19.5260,0.055,-0.511,-0.7,0.16,0.11,-1.61,0.11,-0.2,0.29
2022-01-25 17:38:19.5370,0.049,-0.514,-0.698,0.16,0.11,-1.61,0.14,-0.12,0.27
2022-01-25 17:38:19.5470,0.044,-0.52,-0.689,0.19,0.13,-1.64,0.18,-0.0,0.27
2022-01-25 17:38:19.5570,0.046,-0.524,-0.676,0.18,0.2,-1.86,0.24,0.28,0.26
2022-01-25 17:38:19.5670,0.05,-0.536,-0.659,0.18,0.2,-1.86,0.25,0.42,0.27
2022-01-25 17:38:19.5760,0.051,-0.555,-0.644,0.16,0.32,-2.01,0.25,0.53,0.27
2022-01-25 17:38:19.5870,0.056,-0.57,-0.632,0.18,0.48,-2.14,0.24,0.59,0.25
2022-01-25 17:38:19.5970,0.067,-0.582,-0.635,0.14,0.6,-2.21,0.23,0.58,0.23
2022-01-25 17:38:19.6070,0.081,-0.595,-0.658,0.06,0.7,-2.11,0.23,0.58,0.23
2022-01-25 17:38:19.6170,0.089,-0.602,-0.665,-0.04,0.8,-1.87,0.24,0.53,0.21
2022-01-25 17:38:19.6270,0.09,-0.606,-0.641,-0.06,0.83,-1.87,0.23,0.54,0.22
2022-01-25 17:38:19.6370,0.094,-0.621,-0.625,-0.04,0.86,-2.11,0.19,0.57,0.21
2022-01-25 17:38:19.6460,0.101,-0.645,-0.618,-0.06,1.02,-2.21,0.13,0.6,0.21
2022-01-25 17:38:19.6570,0.103,-0.658,-0.605,-0.07,1.23,-2.28,0.07,0.63,0.2
2022-01-25 17:38:19.6670,0.106,-0.663,-0.596,-0.06,1.32,-2.4,0.01,0.62,0.19
2022-01-25 17:38:19.6770,0.118,-0.675,-0.613,-0.18,1.5,-2.19,0.01,0.62,0.19
2022-01-25 17:38:19.6870,0.146,-0.686,-0.654,-0.4236341361701489,1.6,-1.74,-0.04,0.33,0.12
2022-01-25 17:38:19.6980,0.177,-0.693,-0.716,-0.43,1.6,-1.74,-0.04,0.33,0.12
2022-01-25 17:38:19.7070,0.203,-0.697,-0.775,-0.71,1.66,-1.1,0.04,-0.18,0.09
2022-01-25 17:38:19.7170,0.231,-0.704,-0.809,-0.97,1.7,-0.58,0.04,-0.18,0.09
2022-01-25 17:38:19.7250,0.249,-0.727,-0.829,-1.25,1.79,-0.29,0.08,-0.36,0.1
2022-01-25 17:38:19.7360,0.254,-0.753,-0.851,-1.44,2.03,-0.11,0.08,-0.5,0.13
2022-01-25 17:38:19.7460,0.248,-0.781,-0.893,-1.5,2.29,0.15,0.03,-0.61,0.17
2022-01-25 17:38:19.7560,0.256,-0.818,-0.97,-1.7,2.96,1.43,-0.13,-0.84,0.24
2022-01-25 17:38:19.7670,0.268,-0.857,-1.057,-1.7,2.96,1.43,-0.14,-0.9,0.31
2022-01-25 17:38:19.7760,0.254,-0.871,-1.13,-1.73,3.38,2.91,-0.09,-0.92,0.39
2022-01-25 17:38:19.7870,0.208,-0.846,-1.194,-1.73,3.38,2.91,-0.02,-0.88,0.47
2022-01-25 17:38:19.7970,0.146,-0.801,-1.24,-1.31,3.05,3.51,0.06,-0.76,0.57
2022-01-25 17:38:19.8070,0.085,-0.781,-1.26,-0.8,2.64,3.88,0.06,-0.76,0.57
2022-01-25 17:38:19.8180,0.017,-0.766,-1.261,-0.29,2.49,4.03,0.23981605470180511,-0.3812919557094574,0.77
2022-01-25 17:38:19.8270,-0.049,-0.738,-1.257,0.31,2.3,4.01,0.32,-0.22,0.75
2022-01-25 17:38:19.8380,-0.101,-0.701,-1.259,0.86,1.97,4.0,0.37,-0.08,0.6
2022-01-25 17:38:19.8480,-0.135,-0.66,-1.256,1.55,1.12,3.99,0.37,0.02,0.34
2022-01-25 17:38:19.8580,-0.164,-0.604,-1.235,1.81,0.49,3.76,0.37,0.02,0.34
2022-01-25 17:38:19.8690,-0.189,-0.532,-1.2,1.81,0.49,3.76,0.28,0.15,-0.32
2022-01-25 17:38:19.8780,-0.2,-0.467,-1.135,2.04,-0.26,3.38,0.18,0.26,-0.58
2022-01-25 17:38:19.8880,-0.2,-0.417,-1.047,2.14,-0.87,2.67,0.01,0.36,-0.8
2022-01-25 17:38:19.8980,-0.184,-0.365,-0.994,2.18,-1.35,1.84,-0.22,0.36,-0.97
2022-01-25 17:38:19.9080,-0.146,-0.313,-0.983,1.74,-2.34,1.37,-0.22,0.29880401492118835,-1.03
2022-01-25 17:38:19.9190,-0.129,-0.274,-0.965,1.74,-2.34,1.37,-0.63,0.29,-0.98
2022-01-25 17:38:19.9280,-0.132,-0.244,-0.912,1.72,-2.63,1.08,-0.63,0.29,-0.98
2022-01-25 17:38:19.9380,-0.136,-0.221,-0.857,1.84,-2.86,0.48,-0.79,0.38,-0.74
2022-01-25 17:38:19.9480,-0.138,-0.215,-0.816,1.95,-2.99,-0.04,-0.79,0.41,-0.64
2022-01-25 17:38:19.9580,-0.13,-0.237,-0.77,2.02,-2.92,-0.5,-0.79,0.41,-0.64
2022-01-25 17:38:19.9680,-0.114,-0.276,-0.738,1.98,-2.57,-0.98,-0.78,0.41,-0.57
2022-01-25 17:38:19.9780,-0.09,-0.324,-0.719,1.87,-2.08,-1.29,-0.76,0.28,-0.54
2022-01-25 17:38:19.9890,-0.061,-0.373,-0.721,1.68,-1.54,-1.46,-0.76,0.28,-0.54
2022-01-25 17:38:19.9980,-0.016,-0.417,-0.739,1.41,-0.99,-1.43,-0.74,0.12,-0.58
2022-01-25 17:38:20.0080,0.03,-0.446,-0.758,0.97,-0.52,-1.27,-0.71,-0.1,-0.65
2022-01-25 17:38:20.0190,0.065,-0.462,-0.764,0.57,-0.19,-1.14,-0.58,-0.47,-0.79
2022-01-25 17:38:20.0290,0.087,-0.458,-0.755,0.26,-0.02,-1.16,-0.49,-0.54,-0.87
2022-01-25 17:38:20.0390,0.099,-0.443,-0.741,0.08,-0.04,-1.3,-0.49,-0.54,-0.87
2022-01-25 17:38:20.0480,0.108,-0.425,-0.74,-0.04,-0.14,-1.44,-0.4,-0.53,-0.95
2022-01-25 17:38:20.0590,0.116,-0.406,-0.743,-0.19,-0.43,-1.45,-0.25,-0.41,-1.09
2022-01-25 17:38:20.0680,0.121,-0.384,-0.741,-0.19,-0.43,-1.45,-0.17,-0.32,-1.11
2022-01-25 17:38:20.0790,0.132,-0.368,-0.74,-0.34,-0.72,-1.5,-0.1,-0.24,-1.08
2022-01-25 17:38:20.0890,0.148,-0.358,-0.739,-0.34,-0.72,-1.5,-0.03,-0.16,-1.01
2022-01-25 17:38:20.1000,0.159,-0.345,-0.729,-0.54,-0.92,-1.67,-0.03,-0.16,-1.01
2022-01-25 17:38:20.1090,0.167,-0.337,-0.704,-0.54,-0.92,-1.67,0.17,0.04,-0.76
2022-01-25 17:38:20.1190,0.176,-0.336,-0.677,-0.59,-0.97,-1.95,0.26,0.07,-0.62
2022-01-25 17:38:20.1280,0.187,-0.343,-0.661,-0.64,-0.96,-2.17,0.26,0.07,-0.62
2022-01-25 17:38:20.1390,0.19,-0.354,-0.645,-0.71,-0.9,-2.3,0.38,-0.01,-0.44
2022-01-25 17:38:20.1490,0.184,-0.368,-0.628,-0.69,-0.81,-2.46,0.4,-0.08,-0.4
2022-01-25 17:38:20.1590,0.177,-0.384,-0.616,-0.6,-0.7,-2.59,0.4,-0.08,-0.4
2022-01-25 17:38:20.1690,0.183,-0.398,-0.598,-0.54,-0.56,-2.7,0.37,-0.09,-0.33
2022-01-25 17:38:20.1780,0.16,-0.413,-0.606,-0.31,-0.33,-2.69,0.35,-0.11,-0.26
2022-01-25 17:38:20.1890,0.149,-0.429,-0.617,-0.31,-0.33,-2.69,0.3244297504425049,-0.07,-0.19
2022-01-25 17:38:20.1990,0.15,-0.435,-0.615,-0.25,-0.22,-2.61,0.32,-0.07,-0.19
2022-01-25 17:38:20.2090,0.143,-0.453,-0.614,-0.24,-0.18,-2.63,0.22,0.17,-0.04
2022-01-25 17:38:20.2190,0.132,-0.489,-0.616,-0.15,0.03,-2.62,0.16,0.32,0.0
2022-01-25 17:38:20.2290,0.119,-0.523,-0.635,-0.01,0.38,-2.56,0.16,0.32,0.0
2022-01-25 17:38:20.2390,0.119,-0.552,-0.667,0.12,0.68,-2.31,0.1,0.46,0.02
2022-01-25 17:38:20.2490,0.133,-0.581,-0.703,0.12,0.96,-1.98,0.03,0.56,-0.02
2022-01-25 17:38:20.2590,0.143,-0.594,-0.747,0.02,1.22,-1.6,0.03,0.56,-0.02
2022-01-25 17:38:20.2690,0.147,-0.588,-0.791,0.0,1.29,-1.15,0.04,0.52,0.03
2022-01-25 17:38:20.2790,0.141,-0.583,-0.835,0.14,1.2,-0.25,0.09,0.53,0.12
2022-01-25 17:38:20.2900,0.131,-0.593,-0.889,0.14,1.2,-0.25,0.09,0.53,0.12
2022-01-25 17:38:20.3000,0.127,-0.607,-0.952,0.26,1.31,0.3,0.14,0.47,0.23
2022-01-25 17:38:20.3090,0.123,-0.608,-1.018,0.38,1.37,1.56,0.19,0.32,0.33
2022-01-25 17:38:20.3220,0.108,-0.595,-1.052,0.38,1.37,1.56,0.24,-0.0,0.36
2022-01-25 17:38:20.3290,0.077,-0.566,-1.081,0.58,1.18,1.86,0.24,-0.0,0.36
2022-01-25 17:38:20.3390,0.089,-0.559,-1.09,0.83,0.86,2.15,0.38,0.04,0.27
2022-01-25 17:38:20.3490,0.137,-0.613,-1.113,0.56,0.91,2.2,0.45,0.2,0.29
2022-01-25 17:38:20.3590,0.18,-0.688,-1.124,0.06,1.5,2.52,0.46,0.43,0.35
2022-01-25 17:38:20.3690,0.218,-0.756,-1.095,-0.33,2.19,2.51,0.37,0.65,0.38
2022-01-25 17:38:20.3790,0.265,-0.808,-1.085,-0.68,2.79,2.26,0.19,0.83,0.35
2022-01-25 17:38:20.3900,0.326,-0.843,-1.099,-1.16,3.23,2.25,0.19,0.83,0.35
2022-01-25 17:38:20.4000,0.384,-0.855,-1.13,-1.71,3.49,2.47,-0.07,0.9,0.28
2022-01-25 17:38:20.4090,0.424,-0.825,-1.167,-2.46,3.14,3.12,-0.38,0.86,0.21
2022-01-25 17:38:20.4200,0.446,-0.762,-1.189,-2.46,3.14,3.12,-0.81,0.75,0.21
2022-01-25 17:38:20.4300,0.422,-0.717,-1.171,-2.52,2.63,3.28,-0.87,0.68,0.26
2022-01-25 17:38:20.4400,0.41,-0.642,-1.156,-2.21,2.22,2.97,-0.87,0.68,0.26
2022-01-25 17:38:20.4500,0.371,-0.551,-1.145,-2.04,1.48,2.9,-0.71,0.49,0.31
2022-01-25 17:38:20.4600,0.311,-0.452,-1.084,-1.53,0.64,2.62,-0.71,0.49,0.31
2022-01-25 17:38:20.4690,0.258,-0.349,-1.039,-0.93,-0.31,1.99,-0.5,0.29,0.26
2022-01-25 17:38:20.4800,0.238,-0.275,-1.026,-0.44,-1.22,1.62,-0.45,0.13,0.24
2022-01-25 17:38:20.4900,0.248,-0.228,-1.01,-0.31,-1.84,1.49,-0.45,0.13,0.24
2022-01-25 17:38:20.5000,0.278,-0.2,-0.99,-0.78,-2.42,1.05,-0.4,-0.13,0.26
2022-01-25 17:38:20.5100,0.294,-0.182,-0.951,-0.78,-2.42,1.05,-0.35,-0.12,0.3
2022-01-25 17:38:20.5200,0.285,-0.173,-0.909,-0.91,-2.54,0.63,-0.3,0.02,0.37
2022-01-25 17:38:20.5300,0.257,-0.168,-0.854,-0.78,-2.59,0.17,-0.3,0.02,0.37
2022-01-25 17:38:20.5400,0.231,-0.164,-0.822,-0.5,-2.62,-0.36,-0.23,0.36,0.48
2022-01-25 17:38:20.5500,0.221,-0.171,-0.802,-0.28,-2.63,-0.62,-0.27,0.44,0.46
2022-01-25 17:38:20.5600,0.225,-0.194,-0.787,-0.21,-2.51,-0.82,-0.36,0.4,0.43
2022-01-25 17:38:20.5700,0.231,-0.224,-0.778,-0.24,-2.23,-0.95,-0.48,0.27,0.42
2022-01-25 17:38:20.5800,0.233,-0.256,-0.766,-0.28,-1.91,-1.05,-0.57,0.1,0.45
2022-01-25 17:38:20.5900,0.237,-0.295,-0.748,-0.36,-1.1,-1.4,-0.59,-0.05,0.53
2022-01-25 17:38:20.6000,0.237,-0.331,-0.736,-0.36,-1.1,-1.4,-0.52,-0.2,0.66
2022-01-25 17:38:20.6100,0.221,-0.348,-0.734,-0.35,-0.5859500652551651,-1.5597705030441285,-0.36,-0.29,0.79
2022-01-25 17:38:20.6210,0.198,-0.358,-0.723,-0.2,-0.59,-1.56,-0.13,-0.35,0.91
2022-01-25 17:38:20.6300,0.173,-0.362,-0.72,0.14,-0.46,-1.75,0.12,-0.35,1.02
2022-01-25 17:38:20.6400,0.15,-0.37,-0.697,0.14,-0.46,-1.75,0.12,-0.35,1.02
2022-01-25 17:38:20.6500,0.137,-0.368,-0.67,0.29,-0.42,-2.0,0.41,-0.21,1.12
2022-01-25 17:38:20.6610,0.137,-0.372,-0.641,0.3,-0.5,-2.26,0.41,-0.21,1.12
2022-01-25 17:38:20.6700,0.127,-0.39,-0.618,0.24,-0.46,-2.53,0.38,-0.0,1.02
2022-01-25 17:38:20.6800,0.12,-0.394,-0.604,0.31,-0.37,-2.81,0.34,0.12,0.92
2022-01-25 17:38:20.6910,0.118,-0.405,-0.6,0.31,-0.37,-2.81,0.34,0.12,0.92
2022-01-25 17:38:20.7010,0.126,-0.419,-0.594,0.29,-0.28,-2.84,0.32,0.27,0.81
2022-01-25 17:38:20.7190,0.139,-0.419,-0.6,0.05,-0.25,-2.78,0.31,0.41,0.72
2022-01-25 17:38:20.7210,0.154,-0.426,-0.601,0.05,-0.25,-2.78,0.33,0.61,0.59
2022-01-25 17:38:20.7300,0.174,-0.428,-0.614,-0.25,-0.25,-2.59,0.33,0.67,0.55
2022-01-25 17:38:20.7400,0.187,-0.43,-0.618,-0.25,-0.25,-2.59,0.33,0.67,0.55
2022-01-25 17:38:20.7500,0.187,-0.451,-0.626,-0.33,-0.22,-2.54,0.36,0.73,0.53
2022-01-25 17:38:20.7600,0.171,-0.46,-0.643,-0.23,-0.05,-2.4,0.36,0.73,0.53
2022-01-25 17:38:20.7700,0.165,-0.469,-0.662,-0.05,-0.02,-2.19,0.59,0.62,0.52
2022-01-25 17:38:20.7790,0.175,-0.485,-0.673,0.01,0.03,-1.99,0.69,0.56,0.51
2022-01-25 17:38:20.7900,0.194,-0.513,-0.673,-0.1,0.16,-1.87,0.69,0.56,0.51
2022-01-25 17:38:20.8000,0.21,-0.542,-0.662,-0.37,0.58,-1.93,0.69,0.66,0.55
2022-01-25 17:38:20.8100,0.219,-0.563,-0.648,-0.37,0.58,-1.93,0.61,0.81,0.59
2022-01-25 17:38:20.8200,0.234,-0.596,-0.655,-0.44,0.73,-2.01,0.61,0.81,0.6313979625701904
2022-01-25 17:38:20.8310,0.244,-0.641,-0.681,-0.54,1.04,-1.83,0.44,0.9,0.66
2022-01-25 17:38:20.8410,0.245,-0.674,-0.733,-0.53,1.64,-0.86,0.37,0.7,0.64
2022-01-25 17:38:20.8510,0.241,-0.687,-0.811,-0.53,1.64,-0.86,0.32,0.4,0.61
2022-01-25 17:38:20.8610,0.238,-0.694,-0.876,-0.46,1.7,-0.07,0.26,0.09,0.56
2022-01-25 17:38:20.8710,0.253,-0.703,-0.915,-0.47,1.74,0.54,0.26,0.09,0.56
2022-01-25 17:38:20.8810,0.282,-0.729,-0.91,-0.68,1.81,0.83,0.01,0.01,0.51
2022-01-25 17:38:20.8910,0.318,-0.778,-0.896,-1.02,2.11,0.73,-0.19,0.31,0.58
2022-01-25 17:38:20.9000,0.355,-0.834,-0.887,-1.4,2.61,0.6,-0.35,0.71,0.7
2022-01-25 17:38:20.9100,0.397,-0.899,-0.907,-1.77,3.19,0.54,-0.35,0.71,0.7
2022-01-25 17:38:20.9200,0.437,-0.96,-0.977,-2.17,3.87,0.86,-0.45,1.02,0.89
2022-01-25 17:38:20.9310,0.437,-0.97,-1.083,-2.47,4.41,1.63,-0.58,0.7,0.87
2022-01-25 17:38:20.9410,0.374,-0.9,-1.226,-1.54,3.62,4.11,-0.58,0.7,0.87
2022-01-25 17:38:20.9520,0.292,-0.865,-1.311,-0.8,3.5,4.76,-0.88,0.12,0.78
2022-01-25 17:38:20.9600,0.235,-0.864,-1.372,-0.8,3.5,4.76,-0.88,0.12,0.78
2022-01-25 17:38:20.9700,0.186,-0.813,-1.469,-0.32,3.48,5.4,-0.46,-0.12,0.61
2022-01-25 17:38:20.9800,0.143,-0.718,-1.538,0.12,2.88,6.32,-0.06,-0.08,0.44
2022-01-25 17:38:20.9900,0.107,-0.609,-1.547,0.7969328087568284,0.79,6.79,-0.06,-0.08,0.44
2022-01-25 17:38:21.0010,0.079,-0.468,-1.516,0.79,0.79,6.79,0.57,0.29,0.05
2022-01-25 17:38:21.0100,0.066,-0.342,-1.446,1.04,-0.67,6.42,0.57,0.29,0.05
2022-01-25 17:38:21.0200,0.061,-0.256,-1.357,1.15,-1.82,5.68,0.7,0.67,-0.17
2022-01-25 17:38:21.0300,0.051,-0.178,-1.27,1.26,-2.7,4.85,0.72,0.67,-0.17
2022-01-25 17:38:21.0400,0.029,-0.127,-1.184,1.45,-3.47,4.05,0.64,0.58,-0.24
2022-01-25 17:38:21.0500,-0.007,-0.1,-1.107,1.76,-3.95,3.28,0.64,0.31,-0.21
2022-01-25 17:38:21.0600,-0.052,-0.085,-1.035,2.21,-4.22,2.58,0.69,-0.06,-0.16
2022-01-25 17:38:21.0710,-0.079,-0.09,-0.954,2.66,-4.38,1.9,0.75,-0.43,-0.11
2022-01-25 17:38:21.0810,-0.088,-0.126,-0.857,2.86,-4.31,1.1,0.75,-0.68,-0.09
2022-01-25 17:38:21.0920,-0.093,-0.184,-0.749,2.91,-3.95,0.14,0.75,-0.68,-0.09
2022-01-25 17:38:21.1020,-0.088,-0.263,-0.645,2.75,-2.61,-1.83,0.52,-0.81,-0.15
2022-01-25 17:38:21.1110,-0.081,-0.327,-0.579,2.75,-2.61,-1.83,0.33,-0.73,-0.28
2022-01-25 17:38:21.1220,-0.082,-0.352,-0.514,2.66,-2.21,-2.43,0.33,-0.73,-0.28
2022-01-25 17:38:21.1320,-0.076,-0.404,-0.478,2.63,-1.89,-3.01,-0.16,-0.4,-0.68
2022-01-25 17:38:21.1420,-0.056,-0.445,-0.454,2.52,-1.39,-3.34,-0.38,-0.27,-0.94
2022-01-25 17:38:21.1520,-0.027,-0.475,-0.452,2.31,-0.99,-3.55,-0.56,-0.24,-1.22
2022-01-25 17:38:21.1620,0.017,-0.495,-0.468,2.02,-0.66,-3.53,-0.67,-0.29,-1.5
2022-01-25 17:38:21.1720,0.072,-0.5,-0.491,1.6,-0.42,-3.4,-0.7,-0.38,-1.73
2022-01-25 17:38:21.1820,0.121,-0.478,-0.513,1.12,-0.35,-3.19,-0.7,-0.46,-1.89
2022-01-25 17:38:21.1920,0.164,-0.443,-0.518,0.71,-0.53,-3.07,-0.67,-0.45,-1.94
2022-01-25 17:38:21.2020,0.194,-0.407,-0.518,0.37,-0.77,-3.08,-0.61,-0.35,-1.88
2022-01-25 17:38:21.2120,0.211,-0.365,-0.517,0.18,-1.36,-3.15,-0.61,-0.35,-1.88
2022-01-25 17:38:21.2230,0.231,-0.335,-0.533,-0.06,-1.54,-3.0,-0.39,-0.09,-1.53
2022-01-25 17:38:21.2320,0.247,-0.313,-0.548,-0.06,-1.54,-3.0,-0.39,-0.09,-1.53
2022-01-25 17:38:21.2410,0.257,-0.298,-0.559,-0.13,-1.69,-2.9,-0.05,0.07,-1.04
2022-01-25 17:38:21.2520,0.261,-0.31,-0.564,-0.16,-1.72,-2.81,0.12,0.03,-0.82
2022-01-25 17:38:21.2620,0.255,-0.315,-0.571,-0.12,-1.55,-2.75,0.28,-0.07,-0.65
2022-01-25 17:38:21.2720,0.247,-0.317,-0.565,-0.01,-1.54,-2.71,0.38,-0.18,-0.5
2022-01-25 17:38:21.2820,0.235,-0.333,-0.552,0.1,-1.48,-2.78,0.45,-0.24,-0.39
2022-01-25 17:38:21.2920,0.235,-0.356,-0.533,0.21,-1.32,-2.91,0.46,-0.24,-0.32
2022-01-25 17:38:21.3020,0.24,-0.383,-0.514,0.13,-0.88,-3.26,0.4,-0.15,-0.25
2022-01-25 17:38:21.3120,0.242,-0.408,-0.49,0.13,-0.88,-3.26,0.3,0.02,-0.19
2022-01-25 17:38:21.3210,0.244,-0.443,-0.473,0.12,-0.64,-3.49,0.2,0.16,-0.13
2022-01-25 17:38:21.3310,0.249,-0.477,-0.492,0.1,-0.31,-3.58,0.11,0.21,-0.1
2022-01-25 17:38:21.3410,0.251,-0.51,-0.536,0.07,0.35,-2.79,0.11,0.21,-0.1
2022-01-25 17:38:21.3510,0.257,-0.554,-0.604,0.07,0.35,-2.79,0.06,-0.05,-0.1
2022-01-25 17:38:21.3610,0.265,-0.599,-0.675,-0.09,1.22,-1.4,0.06,-0.31,-0.14
2022-01-25 17:38:21.3730,0.286,-0.643,-0.742,-0.09,1.22,-1.4,0.02,-0.54,-0.17
2022-01-25 17:38:21.3810,0.314,-0.691,-0.796,-0.67,2.13,-0.3,0.02,-0.54,-0.17
2022-01-25 17:38:21.3920,0.348,-0.724,-0.844,-0.67,2.13,-0.3,-0.07,-0.61,-0.19
2022-01-25 17:38:21.4010,0.369,-0.724,-0.912,-1.02,2.4,0.18,-0.37,-0.3,-0.22
2022-01-25 17:38:21.4110,0.373,-0.69,-1.011,-1.22,2.32,0.91,-0.37,-0.3,-0.20296190679073334
2022-01-25 17:38:21.4220,0.37,-0.66,-1.11,-1.24,2.03,1.88,-0.52,0.35,-0.18
2022-01-25 17:38:21.4310,0.364,-0.632,-1.199,-1.18,1.77,2.82,-0.55,0.67,-0.14
2022-01-25 17:38:21.4410,0.366,-0.638,-1.256,-1.09,1.58,3.61,-0.55,0.67,-0.14
2022-01-25 17:38:21.4520,0.378,-0.711,-1.286,-1.08,1.84,4.09,-0.56,1.0,-0.01
2022-01-25 17:38:21.4620,0.398,-0.832,-1.31,-1.25,4.03,4.64,-0.31,1.15,0.46
2022-01-25 17:38:21.4730,0.424,-0.955,-1.363,-1.25,4.03,4.64,-0.31,1.15,0.46
2022-01-25 17:38:21.4830,0.458,-1.064,-1.412,-1.46,5.21,5.2,0.03,0.22,0.45
2022-01-25 17:38:21.4930,0.486,-1.142,-1.423,-1.77,6.24,5.65,0.06,-0.14,0.3
2022-01-25 17:38:21.5030,0.486,-1.13,-1.379,-1.99,6.82,5.61,0.06,-0.14,0.3
2022-01-25 17:38:21.5130,0.474,-1.046,-1.317,-1.95,6.44,5.09,-0.14,-0.06,0.1
2022-01-25 17:38:21.5230,0.471,-0.941,-1.279,-1.88,5.56,4.49,-0.16,0.13,0.05
2022-01-25 17:38:21.5330,0.469,-0.798,-1.28,-1.87,4.46,4.22,-0.16,0.13,0.05
2022-01-25 17:38:21.5430,0.458,-0.634,-1.28,-1.82,2.97,4.27,0.15,0.32,0.14
2022-01-25 17:38:21.5540,0.439,-0.482,-1.269,-1.45,-0.09,4.14,0.15,0.32,0.14
2022-01-25 17:38:21.5640,0.414,-0.344,-1.258,-1.45,-0.09,4.14,0.65,-0.23,0.38
2022-01-25 17:38:21.5730,0.387,-0.225,-1.229,-1.2,-1.44,4.04,0.65,-0.23,0.38
2022-01-25 17:38:21.5830,0.354,-0.133,-1.165,-0.97,-2.63,3.69,0.89,-0.97,0.43
2022-01-25 17:38:21.5930,0.324,-0.079,-1.064,-0.71,-3.5,3.0,0.89,-0.97,0.43
2022-01-25 17:38:21.6030,0.309,-0.049,-0.94,-0.55,-4.06,1.94,0.9,-1.08,0.38
2022-01-25 17:38:21.6130,0.302,-0.044,-0.816,-0.53,-4.37,0.73,0.87,-1.02,0.31
2022-01-25 17:38:21.6230,0.305,-0.057,-0.699,-0.59,-4.45,-0.47,0.62,-0.64,0.17
2022-01-25 17:38:21.6330,0.314,-0.092,-0.603,-0.71,-4.34,-1.56,0.62,-0.64,0.17
2022-01-25 17:38:21.6430,0.326,-0.15,-0.534,-0.87,-3.99,-2.41,0.38,-0.47,0.12
2022-01-25 17:38:21.6530,0.336,-0.215,-0.497,-1.03,-3.4,-3.02,0.08,-0.38,0.1
2022-01-25 17:38:21.6630,0.34,-0.266,-0.487,-1.16,-2.78,-3.3,-0.62,-0.4,0.14
2022-01-25 17:38:21.6730,0.325,-0.287,-0.494,-1.19,-2.34,-3.39,-0.92,-0.45,0.23
2022-01-25 17:38:21.6830,0.297,-0.314,-0.519,-1.04,-2.1,-3.32,-0.92,-0.45,0.23
2022-01-25 17:38:21.6930,0.263,-0.333,-0.556,-0.8,-1.75,-3.09,-1.1,-0.5,0.33
2022-01-25 17:38:21.7030,0.224,-0.337,-0.591,-0.52,-1.52,-2.78,-1.13,-0.56,0.42
2022-01-25 17:38:21.7130,0.187,-0.339,-0.617,-0.2,-1.41,-2.52,-0.8,-0.66,0.61
2022-01-25 17:38:21.7230,0.154,-0.339,-0.625,0.08,-1.32,-2.36,-0.58,-0.67,0.7
2022-01-25 17:38:21.7340,0.128,-0.342,-0.614,0.3,-1.26,-2.38,-0.58,-0.67,0.7
2022-01-25 17:38:21.7440,0.114,-0.351,-0.585,0.44,-1.18,-2.57,-0.37,-0.63,0.78
2022-01-25 17:38:21.7540,0.112,-0.363,-0.555,0.45,-1.07,-2.91,-0.14,-0.42,0.83
2022-01-25 17:38:21.7640,0.11,-0.371,-0.53,0.37,-0.94,-3.46,-0.09,-0.3,0.79
2022-01-25 17:38:21.7740,0.1,-0.379,-0.509,0.35,-0.87,-3.46,-0.08,-0.22,0.73
2022-01-25 17:38:21.7840,0.092,-0.384,-0.501,0.39,-0.8,-3.65,-0.08,-0.18,0.64
2022-01-25 17:38:21.7940,0.085,-0.393,-0.503,0.41,-0.75,-3.69,-0.08,-0.18,0.55
2022-01-25 17:38:21.8040,0.079,-0.4,-0.503,0.43,-0.65,-3.69,-0.09,-0.2,0.45
2022-01-25 17:38:21.8140,0.074,-0.405,-0.511,0.45,-0.59,-3.68,-0.1,-0.23,0.36
2022-01-25 17:38:21.8240,0.064,-0.405,-0.519,0.53,-0.56,-3.53,-0.11,-0.25,0.27
2022-01-25 17:38:21.8340,0.057,-0.4,-0.525,0.53,-0.56,-3.53,-0.12,-0.24,0.18
2022-01-25 17:38:21.8440,0.052,-0.402,-0.533,0.56,-0.59,-3.48,-0.13,-0.17,0.12
2022-01-25 17:38:21.8540,0.049,-0.416,-0.535,0.57,-0.54,-3.42,-0.13,-0.1,0.09
2022-01-25 17:38:21.8640,0.046,-0.441,-0.547,0.58,-0.35,-3.41,-0.13,-0.1,0.09
2022-01-25 17:38:21.8740,0.051,-0.469,-0.585,0.59,-0.09,-3.24,-0.06,-0.04,0.06
2022-01-25 17:38:21.8840,0.064,-0.493,-0.637,0.51,0.19,-2.81,-0.0,-0.0,0.04
2022-01-25 17:38:21.8940,0.077,-0.512,-0.691,0.37,0.43,-2.31,0.06,0.04,-0.0
2022-01-25 17:38:21.9040,0.095,-0.52,-0.75,0.23,0.59,-1.76,0.1,0.08,-0.06
2022-01-25 17:38:21.9140,0.119,-0.531,-0.809,0.05,0.65,-1.17,0.12,0.14,-0.13
2022-01-25 17:38:21.9240,0.149,-0.555,-0.846,-0.47,1.02,-0.3,0.12,0.14,-0.13
2022-01-25 17:38:21.9350,0.177,-0.577,-0.88,-0.47,1.02,-0.3,0.02,0.38,-0.07
2022-01-25 17:38:21.9450,0.203,-0.61,-0.935,-0.71,1.25,0.08,-0.06,0.47,0.06
2022-01-25 17:38:21.9540,0.232,-0.644,-1.002,-1.2,1.9,1.33,-0.1,0.48,0.23
2022-01-25 17:38:21.9650,0.263,-0.663,-1.067,-1.2,1.9,1.33,-0.08,0.46,0.41
2022-01-25 17:38:21.9740,0.294,-0.702,-1.117,-1.74,2.59,2.4,-0.05,0.41,0.58
2022-01-25 17:38:21.9840,0.324,-0.774,-1.149,-2.03,3.31,2.67,-0.03,0.42,0.74
2022-01-25 17:38:22.0030,0.35,-0.864,-1.16,-2.26,4.27,2.73,-0.02,0.44,0.89
2022-01-25 17:38:22.0020,0.366,-0.97,-1.169,-2.26,4.27,2.73,-0.04,0.37,1.0
2022-01-25 17:38:22.0130,0.359,-1.035,-1.197,-2.38,5.24,2.87,-0.04,0.37,1.0
2022-01-25 17:38:22.0230,0.313,-1.018,-1.277,-2.24,5.71,3.23,-0.39,-0.29,0.91
2022-01-25 17:38:22.0330,0.244,-0.964,-1.365,-1.75,5.34,4.14,-0.63,-0.49,0.8
2022-01-25 17:38:22.0430,0.17,-0.957,-1.405,-1.11,4.96,4.82,-0.63,-0.49,0.8
2022-01-25 17:38:22.0530,0.099,-0.886,-1.486,-0.48,4.91,5.22,-0.76,-0.6,0.65
2022-01-25 17:38:22.0630,0.035,-0.716,-1.575,0.14,4.0,6.07,-0.48,-0.38,0.01
2022-01-25 17:38:22.0730,-0.015,-0.513,-1.585,0.66,2.25,6.77,-0.18,0.07,-0.29
2022-01-25 17:38:22.0830,-0.053,-0.337,-1.543,1.1,0.32,6.65,0.09,0.49,-0.48
2022-01-25 17:38:22.0930,-0.068,-0.182,-1.509,1.6,-2.77,5.87,0.29,0.76,-0.56
2022-01-25 17:38:22.1040,-0.065,-0.082,-1.445,1.6,-2.77,5.87,0.46,0.77,-0.52
2022-01-25 17:38:22.1130,-0.053,-0.044,-1.378,1.65,-3.58,5.21,0.59,0.49,-0.41
2022-01-25 17:38:22.1240,-0.041,-0.025,-1.323,1.59,-3.93,4.62,0.71,0.04,-0.26
2022-01-25 17:38:22.1340,-0.043,-0.025,-1.254,1.57,-4.1,4.1,0.71,0.04,-0.26
2022-01-25 17:38:22.1440,-0.064,-0.036,-1.158,1.63,-4.13,3.39,0.82,-0.66,-0.02
2022-01-25 17:38:22.1530,-0.108,-0.049,-1.037,1.87,-4.06,2.42,0.82,-0.73,0.01
2022-01-25 17:38:22.1630,-0.153,-0.053,-0.922,2.26,-4.06,1.23,0.79,-0.71,-0.01
2022-01-25 17:38:22.1750,-0.192,-0.083,-0.825,2.63,-4.02,0.18,0.73,-0.65,-0.11
2022-01-25 17:38:22.1850,-0.216,-0.105,-0.733,3.05,-3.58,-1.56,0.63,-0.57,-0.25
2022-01-25 17:38:22.1950,-0.216,-0.173,-0.663,3.05,-3.58,-1.56,0.51,-0.44,-0.41
2022-01-25 17:38:22.2050,-0.196,-0.249,-0.604,2.96,-2.86,-2.16,0.36,-0.3,-0.58
2022-01-25 17:38:22.2150,-0.163,-0.308,-0.552,2.72,-2.23,-2.74,0.2,-0.17,-0.78
2022-01-25 17:38:22.2250,-0.12,-0.36,-0.521,2.37,-1.67,-3.18,0.04,-0.09,-0.98
2022-01-25 17:38:22.2350,-0.07,-0.399,-0.504,1.95,-1.21,-3.43,0.04,-0.09,-0.98
2022-01-25 17:38:22.2460,-0.017,-0.432,-0.493,1.03,-0.51,-3.68,-0.12,-0.04,-1.18
2022-01-25 17:38:22.2550,0.028,-0.446,-0.487,1.03,-0.51,-3.68,-0.26,-0.02,-1.36
2022-01-25 17:38:22.2650,0.063,-0.442,-0.488,0.68,-0.39,-3.74,-0.46,-0.05,-1.57
2022-01-25 17:38:22.2750,0.093,-0.423,-0.489,0.43,-0.42,-3.76,-0.49,-0.09,-1.6
2022-01-25 17:38:22.2860,0.127,-0.403,-0.501,0.19,-0.56,-3.74,-0.48,-0.11,-1.6
2022-01-25 17:38:22.2950,0.155,-0.382,-0.509,-0.06,-0.69,-3.65,-0.43,-0.12,-1.55
2022-01-25 17:38:22.3050,0.167,-0.35,-0.521,-0.25,-0.85,-3.59,-0.34,-0.1,-1.47
2022-01-25 17:38:22.3150,0.168,-0.315,-0.531,-0.27,-1.13,-3.49,-0.23,-0.07,-1.35
2022-01-25 17:38:22.3250,0.166,-0.289,-0.536,-0.13,-1.59,-3.38,-0.09,-0.06,-1.22
2022-01-25 17:38:22.3350,0.164,-0.278,-0.541,-0.13,-1.59,-3.38,-0.09,-0.06,-1.22
2022-01-25 17:38:22.3450,0.166,-0.28,-0.543,-0.08,-1.63,-3.34,0.06,-0.07,-1.09
2022-01-25 17:38:22.3550,0.173,-0.286,-0.541,-0.06,-1.58,-3.33,0.33,-0.17,-0.84
2022-01-25 17:38:22.3660,0.178,-0.292,-0.535,-0.13,-1.48,-3.41,0.41,-0.23,-0.74
2022-01-25 17:38:22.3760,0.185,-0.297,-0.526,-0.13,-1.48,-3.41,0.44,-0.27,-0.68
2022-01-25 17:38:22.3850,0.193,-0.301,-0.516,-0.19,-1.47,-3.49,0.39,-0.24,-0.65
2022-01-25 17:38:22.3950,0.2,-0.312,-0.507,-0.27,-1.44,-3.58,0.28,-0.15,-0.63
2022-01-25 17:38:22.4050,0.204,-0.33,-0.505,-0.31,-1.33,-3.64,0.28,-0.15,-0.63
2022-01-25 17:38:22.4160,0.214,-0.367,-0.518,-0.35,-1.14,-3.63,0.13,-0.0,-0.61
2022-01-25 17:38:22.4260,0.231,-0.425,-0.561,-0.44,-0.71,-3.43,-0.21,0.25,-0.42
2022-01-25 17:38:22.4350,0.252,-0.487,-0.635,-0.57,-0.1,-2.94,-0.21,0.25,-0.42
2022-01-25 17:38:22.4450,0.284,-0.551,-0.731,-0.76,0.53,-2.15,-0.39,0.24,-0.11
2022-01-25 17:38:22.4550,0.315,-0.624,-0.839,-1.06,1.23,-1.18,-0.34,0.16,0.05
2022-01-25 17:38:22.4650,0.33,-0.676,-0.948,-1.32,1.95,-0.12,-0.34,0.16,0.05
2022-01-25 17:38:22.4750,0.321,-0.708,-1.051,-1.4,2.44,0.93,0.02,0.06,0.36
2022-01-25 17:38:22.4860,0.297,-0.708,-1.145,-1.25,2.69,1.91,0.28,0.04,0.45
2022-01-25 17:38:22.4950,0.277,-0.685,-1.246,-1.02,2.61,2.85,0.52,-0.01,0.47
2022-01-25 17:38:22.5060,0.271,-0.654,-1.319,-0.88,2.32,3.82,0.52,-0.01,0.47
2022-01-25 17:38:22.5160,0.273,-0.633,-1.332,-0.9,1.77,4.41,0.57,0.25,0.47
2022-01-25 17:38:22.5260,0.274,-0.652,-1.28,-0.9,1.77,4.41,0.36,0.59,0.6
2022-01-25 17:38:22.5360,0.284,-0.726,-1.226,-0.92,2.04,3.86,0.12,0.92,0.82
2022-01-25 17:38:22.5460,0.301,-0.839,-1.2,-1.02,2.85,3.42,0.12,0.92,0.82
2022-01-25 17:38:22.5550,0.317,-0.932,-1.241,-1.15,3.94,3.3,-0.12,1.02,0.97
2022-01-25 17:38:22.5660,0.327,-1.004,-1.319,-1.26,4.77,3.88,-0.46,0.59,0.79
2022-01-25 17:38:22.5760,0.32,-1.052,-1.379,-1.3,5.46,4.62,-0.5,0.35,0.6
2022-01-25 17:38:22.5860,0.299,-1.022,-1.417,-1.17,5.81,5.14,-0.44,0.21,0.46
2022-01-25 17:38:22.5960,0.286,-0.93,-1.434,-0.96,5.34,5.45,-0.3,0.15,0.4
2022-01-25 17:38:22.6060,0.291,-0.82,-1.436,-0.88,4.41,5.56,-0.3,0.15,0.4
2022-01-25 17:38:22.6160,0.296,-0.681,-1.413,-0.95,3.29,5.52,0.26,0.16,0.47
2022-01-25 17:38:22.6260,0.286,-0.529,-1.364,-0.98,1.87,5.23,0.58,0.15,0.58
2022-01-25 17:38:22.6360,0.268,-0.391,-1.301,-0.85,0.34,4.7,0.81,0.05,0.7
2022-01-25 17:38:22.6460,0.252,-0.285,-1.234,-0.7,-1.0,4.11,0.93,-0.14,0.77
2022-01-25 17:38:22.6560,0.236,-0.207,-1.156,-0.58,-2.05,3.46,0.93,-0.14,0.77
2022-01-25 17:38:22.6660,0.212,-0.152,-1.081,-0.46,-2.84,2.74,0.83,-0.61,0.73
2022-01-25 17:38:22.6770,0.19,-0.117,-0.999,-0.29,-3.42,2.04,0.83,-0.61,0.73
2022-01-25 17:38:22.6870,0.179,-0.103,-0.911,-0.18,-3.79,1.24,0.73,-0.73,0.62
2022-01-25 17:38:22.6960,0.182,-0.104,-0.823,-0.19,-3.95,0.39,0.51,-0.63,0.32
2022-01-25 17:38:22.7060,0.2,-0.125,-0.736,-0.34,-3.96,-0.45,0.34,-0.46,0.18
2022-01-25 17:38:22.7170,0.221,-0.163,-0.657,-0.6,-3.74,-1.27,0.13,-0.31,0.08
2022-01-25 17:38:22.7260,0.245,-0.208,-0.601,-0.86,-3.38,-2.01,0.13,-0.31,0.08
2022-01-25 17:38:22.7370,0.267,-0.257,-0.568,-1.13,-2.93,-2.5,-0.41,-0.2,0.06
2022-01-25 17:38:22.7460,0.275,-0.291,-0.56,-1.34,-2.45,-2.76,-0.64,-0.21,0.13
2022-01-25 17:38:22.7560,0.274,-0.311,-0.561,-1.41,-2.13,-2.84,-0.8,-0.26,0.24
2022-01-25 17:38:22.7670,0.261,-0.327,-0.577,-1.4,-1.89,-2.83,-0.8,-0.26,0.24
2022-01-25 17:38:22.7770,0.236,-0.332,-0.594,-1.28,-1.68,-2.7,-0.86,-0.3,0.39
2022-01-25 17:38:22.7870,0.199,-0.331,-0.609,-1.05,-1.59,-2.58,-0.7,-0.4,0.73
2022-01-25 17:38:22.7970,0.161,-0.326,-0.613,-0.44,-1.54,-2.53,-0.52,-0.43,0.88
2022-01-25 17:38:22.8070,0.127,-0.33,-0.609,-0.44,-1.54,-2.53,-0.34,-0.43,1.0
2022-01-25 17:38:22.8170,0.092,-0.343,-0.598,-0.18,-1.43,-2.6,-0.34,-0.43,1.0
2022-01-25 17:38:22.8270,0.058,-0.35,-0.581,0.08,-1.29,-2.76,-0.16,-0.41,1.07
2022-01-25 17:38:22.8360,0.034,-0.351,-0.563,0.31,-1.24,-2.93,0.06,-0.33,1.03
2022-01-25 17:38:22.8470,0.021,-0.365,-0.535,0.43,-1.22,-3.13,0.06,-0.33,1.03
2022-01-25 17:38:22.8570,0.012,-0.378,-0.512,0.46,-1.08,-3.42,0.09,-0.26,0.96
2022-01-25 17:38:22.8670,0.003,-0.385,-0.495,0.49,-0.97,-3.62,0.07,-0.11,0.78
2022-01-25 17:38:22.8770,-0.0,-0.384,-0.487,0.51,-0.93,-3.76,0.05,-0.07,0.69
2022-01-25 17:38:22.8870,-0.002,-0.378,-0.484,0.49,-0.97,-3.83,0.05,-0.07,0.69
2022-01-25 17:38:22.8970,-0.002,-0.375,-0.474,0.46,-1.03,-3.86,0.01,0.05,0.57
2022-01-25 17:38:22.9070,0.004,-0.375,-0.471,0.43,-1.06,-3.96,0.01,0.05,0.57
2022-01-25 17:38:22.9170,0.015,-0.379,-0.476,0.33,-1.06,-3.96,-0.04,0.18,0.46
2022-01-25 17:38:22.9270,0.028,-0.397,-0.485,0.2,-0.99,-3.9,-0.04,0.18,0.46
2022-01-25 17:38:22.9370,0.042,-0.423,-0.507,0.07,-0.77,-3.8,-0.07,0.24,0.41
2022-01-25 17:38:22.9470,0.061,-0.448,-0.538,-0.09,-0.2264612004160881,-3.24,-0.16,0.39,0.17
2022-01-25 17:38:22.9570,0.072,-0.483,-0.578,-0.25,-0.23,-3.24,-0.16,0.39,0.17
2022-01-25 17:38:22.9670,0.076,-0.51,-0.635,-0.3,0.11,-2.8,-0.22,0.38,-0.0
2022-01-25 17:38:22.9770,0.092,-0.538,-0.687,-0.32,0.39,-2.25,-0.31,0.33,-0.24
2022-01-25 17:38:22.9870,0.128,-0.563,-0.739,-0.49,0.69,-1.77,-0.31,0.33,-0.24
2022-01-25 17:38:22.9970,0.173,-0.586,-0.781,-1.22,1.22,-0.91,-0.36,0.39,-0.23
2022-01-25 17:38:23.0080,0.212,-0.609,-0.82,-1.22,1.22,-0.91,-0.41,0.71,0.12
2022-01-25 17:38:23.0170,0.239,-0.621,-0.884,-1.54,1.46,-0.49,-0.42,0.87,0.37
2022-01-25 17:38:23.0270,0.245,-0.632,-0.95,-1.7,1.61,0.14,-0.42,0.87,0.37
2022-01-25 17:38:23.0370,0.235,-0.641,-1.03,-1.65,1.74,0.8,-0.41,0.95,0.57
2022-01-25 17:38:23.0470,0.219,-0.682,-1.094,-1.47,1.89,1.57,-0.43,0.97,0.7
2022-01-25 17:38:23.0570,0.205,-0.778,-1.144,-1.25,2.47,2.13,-0.56,0.91,0.85
2022-01-25 17:38:23.0670,0.199,-0.897,-1.193,-1.09,3.54,2.61,-0.97,1.25,0.72
2022-01-25 17:38:23.0770,0.173,-1.018,-1.175,-0.98,4.76,2.99,-0.97,1.25,0.72
2022-01-25 17:38:23.0880,0.12,-1.075,-1.254,-0.52,6.02,2.68,-1.51,1.26,0.15
2022-01-25 17:38:23.0980,0.09,-1.008,-1.513,0.05,6.29,4.11,-1.51,1.26,0.15
2022-01-25 17:38:23.1070,0.052,-0.981,-1.623,0.45,5.8,6.37,-1.21,0.65,-0.12
2022-01-25 17:38:23.1170,0.02,-0.896,-1.71,0.9,5.65,7.19,-1.21,0.65,-0.12
2022-01-25 17:38:23.1270,-0.007,-0.739,-1.787,1.29,4.69,8.01,-0.87,0.41,-0.2
2022-01-25 17:38:23.1370,0.031,-0.564,-1.847,1.49,3.15,8.72,0.23,-0.13,-0.36
2022-01-25 17:38:23.1480,0.125,-0.413,-1.83,0.95,1.49,9.16,0.77,-0.3,-0.32
2022-01-25 17:38:23.1580,0.207,-0.281,-1.752,-0.01,0.06,8.81,0.77,-0.3,-0.32
2022-01-25 17:38:23.1680,0.254,-0.157,-1.636,-0.74,-1.29,7.98,1.21,-0.41,-0.17
2022-01-25 17:38:23.1780,0.264,-0.066,-1.493,-1.15,-2.56,6.79,1.5,-0.45,0.04
2022-01-25 17:38:23.1880,0.237,-0.012,-1.324,-1.2,-3.5,5.4,1.54,-0.27,0.16
2022-01-25 17:38:23.1980,0.156,-0.008,-1.155,-0.83,-4.02,3.71,1.27,0.46,0.22
2022-01-25 17:38:23.2080,0.055,0.026,-1.058,0.06,-4.2,2.28,1.27,0.46,0.22
2022-01-25 17:38:23.2180,-0.037,0.055,-0.992,1.08,-4.7,1.51,1.27,0.58,0.18
2022-01-25 17:38:23.2280,-0.113,0.044,-0.915,1.99,-5.0,0.94,1.34,0.43,-0.07
2022-01-25 17:38:23.2370,-0.167,0.002,-0.803,2.73,-4.93,0.16,1.31,0.29,-0.24
2022-01-25 17:38:23.2470,-0.193,-0.047,-0.701,3.23,-4.58,-0.88,1.22,0.11,-0.41
2022-01-25 17:38:23.2570,-0.195,-0.115,-0.61,3.46,-4.19,-1.79,1.07,-0.04,-0.58
2022-01-25 17:38:23.2670,-0.173,-0.213,-0.526,3.44,-3.52,-2.6,0.87,-0.14,-0.76
2022-01-25 17:38:23.2770,-0.152,-0.296,-0.447,3.22,-2.63,-3.35,0.87,-0.14,-0.76
2022-01-25 17:38:23.2880,-0.128,-0.359,-0.386,3.05,-1.96,-4.1,0.63,-0.17,-0.95
2022-01-25 17:38:23.2980,-0.1,-0.411,-0.349,2.84,-1.37,-4.56,0.35,-0.16,-1.16
2022-01-25 17:38:23.3080,-0.067,-0.449,-0.32,2.59,-0.92,-4.91,0.06,-0.12,-1.38
2022-01-25 17:38:23.3180,-0.052,-0.459,-0.316,2.35,-0.54,-5.13,-0.22,-0.1,-1.58
2022-01-25 17:38:23.3280,-0.026,-0.427,-0.313,2.31,-0.56,-5.18,-0.47,-0.09,-1.81
2022-01-25 17:38:23.3380,0.018,-0.439,-0.339,2.06,-0.71,-5.18,-0.69,-0.14,-1.99
2022-01-25 17:38:23.3480,0.062,-0.432,-0.358,1.38,-0.51,-4.82,-0.97,-0.21,-2.22
2022-01-25 17:38:23.3560,0.094,-0.398,-0.384,1.38,-0.51,-4.82,-0.97,-0.25,-2.25
2022-01-25 17:38:23.3680,0.109,-0.35,-0.436,1.19,-0.74,-4.53,-0.97,-0.25,-2.25
2022-01-25 17:38:23.3760,0.119,-0.282,-0.475,1.27,-0.61,-4.58,-0.84,-0.31,-2.24
2022-01-25 17:38:23.3860,0.126,-0.233,-0.491,1.22,-1.02,-4.13,-0.6,-0.37,-2.18
2022-01-25 17:38:23.3960,0.131,-0.215,-0.498,1.19,-1.58,-3.82,-0.36,-0.42,-2.06
2022-01-25 17:38:23.4060,0.133,-0.204,-0.486,1.17,-1.9,-3.73,-0.13,-0.47,-1.89
2022-01-25 17:38:23.4160,0.138,-0.197,-0.463,1.17,-1.97,-3.71,0.06,-0.51,-1.69
2022-01-25 17:38:23.4260,0.15,-0.188,-0.448,1.17,-2.04,-3.89,0.18,-0.56,-1.5
2022-01-25 17:38:23.4360,0.18,-0.204,-0.449,1.11,-2.08,-4.11,0.26,-0.66,-1.29
2022-01-25 17:38:23.4460,0.223,-0.237,-0.445,0.96,-2.15,-4.23,0.3,-0.75,-1.11
2022-01-25 17:38:23.4560,0.267,-0.249,-0.441,0.59,-1.89,-4.22,0.29,-0.8,-0.97
2022-01-25 17:38:23.4660,0.302,-0.261,-0.434,0.13,-1.62,-4.28,0.18,-0.71,-0.89
2022-01-25 17:38:23.4760,0.328,-0.295,-0.435,-0.31,-1.51,-4.33,-0.04,-0.47,-0.81
2022-01-25 17:38:23.4860,0.348,-0.359,-0.487,-0.63,-1.33,-4.42,-0.34,-0.2,-0.7
2022-01-25 17:38:23.4960,0.395,-0.443,-0.607,-0.85,-0.86,-4.34,-0.65,-0.08,-0.58
2022-01-25 17:38:23.5060,0.461,-0.516,-0.792,-1.07,-0.12,-3.71,-0.88,-0.25,-0.49
2022-01-25 17:38:23.5160,0.529,-0.537,-0.968,-1.61,0.83,-2.38,-0.94,-0.61,-0.46
2022-01-25 17:38:23.5270,0.582,-0.544,-1.107,-2.31,1.52,-0.56,-0.86,-0.88,-0.44
2022-01-25 17:38:23.5370,0.606,-0.559,-1.209,-3.03,1.72,1.01,-0.74,-0.9,-0.34
2022-01-25 17:38:23.5470,0.608,-0.559,-1.288,-3.55,1.9,2.25,-0.64,-0.62,-0.21
2022-01-25 17:38:23.5570,0.598,-0.542,-1.365,-3.76,2.08,3.13,-0.57,-0.13,-0.08
2022-01-25 17:38:23.5670,0.573,-0.514,-1.446,-3.75,2.09,3.87,-0.51,0.39,0.03
2022-01-25 17:38:23.5770,0.539,-0.489,-1.527,-3.58,1.93,4.62,-0.43,0.75,0.14
2022-01-25 17:38:23.5870,0.519,-0.497,-1.574,-3.23,1.69,5.43,-0.32,0.9,0.26
2022-01-25 17:38:23.5970,0.519,-0.566,-1.577,-2.85,1.5,6.19,-0.18,0.9,0.4
2022-01-25 17:38:23.6070,0.525,-0.677,-1.561,-2.64,1.74,6.55,-0.04,0.77,0.58
2022-01-25 17:38:23.6170,0.517,-0.788,-1.544,-2.62,2.53,6.53,0.04,0.51,0.75
2022-01-25 17:38:23.6270,0.507,-0.849,-1.532,-2.64,3.65,6.37,0.07,0.19,0.79
2022-01-25 17:38:23.6370,0.495,-0.89,-1.514,-2.55,4.62,6.22,0.04,-0.05,0.7
2022-01-25 17:38:23.6470,0.466,-0.887,-1.493,-2.49,5.11,6.09,-0.02,-0.14,0.55
2022-01-25 17:38:23.6570,0.424,-0.802,-1.493,-2.37,5.45,5.9,-0.07,-0.12,0.38
2022-01-25 17:38:23.6670,0.39,-0.667,-1.502,-2.06,5.22,5.72,-0.05,-0.01,0.27
2022-01-25 17:38:23.6770,0.375,-0.526,-1.497,-1.66,4.22,5.76,0.12,0.15,0.26
2022-01-25 17:38:23.6870,0.365,-0.389,-1.477,-1.36,2.82,5.84,0.43,0.27,0.36
2022-01-25 17:38:23.6970,0.354,-0.259,-1.428,-1.23,1.42,5.78,0.79,0.27,0.54
2022-01-25 17:38:23.7070,0.345,-0.168,-1.344,-1.12,-0.03,5.56,1.09,0.16,0.75
2022-01-25 17:38:23.7170,0.332,-0.112,-1.236,-1.04,-1.34,5.03,1.25,-0.03,0.95
2022-01-25 17:38:23.7270,0.31,-0.068,-1.115,-0.99,-2.26,4.18,1.28,-0.22,1.08
2022-01-25 17:38:23.7370,0.287,-0.044,-0.992,-0.9,-2.9,3.12,1.24,-0.37,1.13
2022-01-25 17:38:23.7470,0.273,-0.048,-0.874,-0.76,-3.43,1.96,1.16,-0.44,1.1
2022-01-25 17:38:23.7570,0.265,-0.068,-0.76,-0.63,-3.72,0.8,1.07,-0.43,1.01
2022-01-25 17:38:23.7670,0.253,-0.087,-0.655,-0.59,-3.74,-0.31,0.96,-0.35,0.9
2022-01-25 17:38:23.7770,0.243,-0.103,-0.571,-0.57,-3.62,-1.38,0.79,-0.26,0.76
2022-01-25 17:38:23.7870,0.239,-0.119,-0.507,-0.5,-3.53,-2.34,0.57,-0.21,0.61
2022-01-25 17:38:23.7970,0.243,-0.141,-0.462,-0.46,-3.43,-3.1,0.28,-0.2,0.44
2022-01-25 17:38:23.8080,0.244,-0.164,-0.438,-0.49,-3.3,-3.67,-0.05,-0.22,0.3
2022-01-25 17:38:23.8180,0.239,-0.183,-0.425,-0.56,-3.06,-4.07,-0.38,-0.24,0.22
2022-01-25 17:38:23.8280,0.233,-0.199,-0.428,-0.58,-2.82,-4.29,-0.69,-0.28,0.18
2022-01-25 17:38:23.8380,0.215,-0.203,-0.446,-0.56,-2.57,-4.44,-0.9,-0.31,0.2
2022-01-25 17:38:23.8480,0.196,-0.2,-0.467,-0.51,-2.36,-4.39,-1.0,-0.36,0.26
2022-01-25 17:38:23.8590,0.178,-0.2,-0.488,-0.37,-2.26,-4.26,-0.98,-0.41,0.36
2022-01-25 17:38:23.8680,0.161,-0.213,-0.498,-0.24,-2.21,-4.09,-0.88,-0.45,0.49
2022-01-25 17:38:23.8780,0.143,-0.228,-0.502,-0.13,-2.11,-3.96,-0.74,-0.48,0.63
2022-01-25 17:38:23.8880,0.131,-0.244,-0.499,-0.03,-1.92,-3.91,-0.61,-0.44,0.76
2022-01-25 17:38:23.8980,0.126,-0.26,-0.498,0.07,-1.73,-3.92,-0.49,-0.36,0.86
2022-01-25 17:38:23.9080,0.121,-0.275,-0.5,0.1,-1.53,-3.99,-0.4,-0.27,0.91
2022-01-25 17:38:23.9180,0.111,-0.284,-0.512,0.09,-1.35,-4.0,-0.35,-0.2,0.9
2022-01-25 17:38:23.9280,0.094,-0.295,-0.525,0.09,-1.21,-3.99,-0.32,-0.15,0.84
2022-01-25 17:38:23.9350,0.082,-0.305,-0.531,0.4,-0.88,-3.7,-0.3,-0.09,0.73
2022-01-25 17:38:23.9480,0.075,-0.312,-0.548,0.42,-0.79,-3.52,-0.3,-0.05,0.59
2022-01-25 17:38:23.9570,0.079,-0.325,-0.565,0.42,-0.79,-3.52,-0.31,-0.04,0.42
2022-01-25 17:38:23.9680,0.087,-0.345,-0.587,0.25,-0.38,-3.14,-0.32,-0.06,0.26
2022-01-25 17:38:23.9780,0.098,-0.364,-0.612,0.25,-0.38,-3.14,-0.34,-0.08,0.1
2022-01-25 17:38:23.9880,0.11,-0.392,-0.611,0.13,-0.14,-2.98,-0.33,-0.0,-0.0
2022-01-25 17:38:23.9970,0.132,-0.413,-0.623,-0.01,0.16,-3.0,-0.3,0.13,-0.05
2022-01-25 17:38:24.0080,0.163,-0.441,-0.652,-0.53,0.73,-2.54,-0.27,0.27,-0.06
2022-01-25 17:38:24.0180,0.195,-0.488,-0.695,-0.8,1.24,-2.06,-0.25,0.34,-0.04
2022-01-25 17:38:24.0280,0.222,-0.535,-0.762,-0.8,1.24,-2.06,-0.25,0.34,-0.04
2022-01-25 17:38:24.0380,0.245,-0.572,-0.845,-1.02,1.69,-1.37,-0.17,0.08,-0.0
2022-01-25 17:38:24.0470,0.259,-0.594,-0.923,-1.23,2.06,-0.55,-0.12,-0.22,0.01
2022-01-25 17:38:24.0580,0.261,-0.582,-0.985,-1.36,2.2,0.19,-0.07,-0.46,0.02
2022-01-25 17:38:24.0680,0.262,-0.556,-1.028,-1.41,2.04,0.72,-0.03,-0.53,0.05
2022-01-25 17:38:24.0780,0.262,-0.536,-1.066,-1.47,1.79,1.12,-0.02,-0.44,0.13
2022-01-25 17:38:24.0880,0.259,-0.506,-1.096,-1.5,1.26,1.76,-0.06,-0.21,0.25
2022-01-25 17:38:24.0980,0.257,-0.47,-1.129,-1.5,1.26,1.76,-0.17,0.11,0.4
2022-01-25 17:38:24.1080,0.257,-0.472,-1.156,-1.48,0.98,2.07,-0.34,0.49,0.59
2022-01-25 17:38:24.1180,0.269,-0.527,-1.196,-1.48,1.15,2.34,-0.55,0.89,0.79
2022-01-25 17:38:24.1280,0.282,-0.623,-1.248,-1.57,1.86,2.76,-0.71,1.23,1.02
2022-01-25 17:38:24.1380,0.281,-0.719,-1.339,-1.59,2.91,3.3,-0.81,1.35,1.22
2022-01-25 17:38:24.1480,0.254,-0.752,-1.501,-1.45,3.81,4.35,-0.87,1.05,1.28
2022-01-25 17:38:24.1580,0.199,-0.737,-1.639,-1.06,4.02,6.01,-0.91,0.51,1.14
2022-01-25 17:38:24.1680,0.139,-0.755,-1.668,0.11,4.28,7.17,-0.88,0.15,0.92
2022-01-25 17:38:24.1780,0.069,-0.763,-1.667,0.11,4.28,7.17,-0.74,0.02,0.75
2022-01-25 17:38:24.1880,0.005,-0.661,-1.671,0.78,4.21,7.15,-0.48,0.02,0.54
2022-01-25 17:38:24.1980,-0.033,-0.479,-1.653,1.34,2.97,7.17,-0.1,0.07,0.28
2022-01-25 17:38:24.2080,-0.034,-0.312,-1.596,1.64,1.15,6.87,0.34,0.18,0.03
2022-01-25 17:38:24.2180,-0.015,-0.19,-1.543,1.57,-0.41,6.32,0.75,0.26,-0.12
2022-01-25 17:38:24.2290,-0.016,-0.094,-1.469,1.44,-1.59,5.81,1.04,0.26,-0.14
2022-01-25 17:38:24.2380,-0.032,-0.014,-1.377,1.53,-2.59,5.05,1.19,0.21,-0.05
2022-01-25 17:38:24.2480,-0.064,0.046,-1.289,2.08,-4.1,3.38,1.23,0.11,0.1
2022-01-25 17:38:24.2580,-0.101,0.092,-1.208,2.44,-4.61,2.6,1.19,-0.02,0.21
2022-01-25 17:38:24.2690,-0.138,0.113,-1.109,2.44,-4.61,2.6,1.12,-0.08,0.23
2022-01-25 17:38:24.2780,-0.178,0.112,-1.009,2.79,-4.85,1.65,1.08,-0.05,0.18
2022-01-25 17:38:24.2880,-0.212,0.111,-0.907,3.47,-5.0,-0.26,1.08,0.05,0.07
2022-01-25 17:38:24.2990,-0.22,0.093,-0.798,3.47,-5.0,-0.26,1.09,0.2,-0.09
2022-01-25 17:38:24.3080,-0.194,0.035,-0.69,3.21,-4.23,-2.3,1.06,0.38,-0.27
2022-01-25 17:38:24.3190,-0.144,-0.065,-0.588,3.21,-4.23,-2.3,0.97,0.58,-0.44
2022-01-25 17:38:24.3280,-0.086,-0.182,-0.511,2.76,-3.26,-3.21,0.81,0.73,-0.58
2022-01-25 17:38:24.3380,-0.032,-0.282,-0.458,2.27,-2.18,-3.85,0.59,0.8,-0.69
2022-01-25 17:38:24.3490,0.017,-0.349,-0.428,1.86,-1.31,-4.28,0.37,0.77,-0.83
2022-01-25 17:38:24.3590,0.059,-0.385,-0.412,1.49,-0.75,-4.5,0.18,0.63,-0.99
2022-01-25 17:38:24.3680,0.098,-0.408,-0.422,1.19,-0.43,-4.59,0.02,0.36,-1.16
2022-01-25 17:38:24.3790,0.142,-0.416,-0.438,0.88,-0.22,-4.44,-0.1,0.03,-1.34
2022-01-25 17:38:24.3880,0.185,-0.409,-0.445,0.49,-0.15,-4.32,-0.18,-0.3,-1.51
2022-01-25 17:38:24.3990,0.217,-0.391,-0.447,0.14,-0.18,-4.28,-0.24,-0.56,-1.65
2022-01-25 17:38:24.4090,0.244,-0.363,-0.447,-0.15,-0.33,-4.29,-0.3,-0.72,-1.74
2022-01-25 17:38:24.4190,0.261,-0.331,-0.447,-0.51,-0.82,-4.35,-0.36,-0.75,-1.77
2022-01-25 17:38:24.4290,0.264,-0.295,-0.447,-0.5,-1.11,-4.36,-0.41,-0.64,-1.7
2022-01-25 17:38:24.4390,0.26,-0.256,-0.459,-0.44,-1.42,-4.23,-0.44,-0.44,-1.55
2022-01-25 17:38:24.4490,0.255,-0.221,-0.488,-0.35,-1.65,-3.94,-0.45,-0.23,-1.33
2022-01-25 17:38:24.4590,0.249,-0.204,-0.523,-0.26,-1.73,-3.61,-0.41,-0.04,-1.05
2022-01-25 17:38:24.4690,0.246,-0.196,-0.559,-0.22,-1.75,-3.26,-0.31,0.09,-0.75
2022-01-25 17:38:24.4790,0.247,-0.199,-0.596,-0.22,-1.75,-3.26,-0.17,0.16,-0.47
2022-01-25 17:38:24.4890,0.243,-0.224,-0.632,-0.18,-1.65,-2.91,-0.01,0.19,-0.23
2022-01-25 17:38:24.4990,0.239,-0.264,-0.663,-0.058248354345560076,-0.96,-2.23,0.15,0.19,-0.04
2022-01-25 17:38:24.5090,0.24,-0.306,-0.693,-0.09,-0.55,-1.96,0.28,0.2,0.13
2022-01-25 17:38:24.5200,0.253,-0.363,-0.715,-0.09,-0.55,-1.96,0.36,0.21,0.25
2022-01-25 17:38:24.5290,0.272,-0.43,-0.748,-0.4,0.64,-1.33,0.37,0.21,0.33
2022-01-25 17:38:24.5390,0.281,-0.5,-0.788,-0.4,0.64,-1.33,0.33,0.19,0.4
2022-01-25 17:38:24.5500,0.284,-0.563,-0.821,-0.46,1.28,-0.95,0.3,0.18,0.5
2022-01-25 17:38:24.5590,0.303,-0.617,-0.86,-0.74,2.3,-0.18,0.32,0.16,0.6
2022-01-25 17:38:24.5700,0.324,-0.66,-0.902,-0.94,2.65,0.23,0.38,0.12,0.69
2022-01-25 17:38:24.5800,0.332,-0.685,-0.937,-1.0,2.76,0.59,0.47,0.06,0.75
2022-01-25 17:38:24.5900,0.328,-0.675,-0.976,-0.98,2.52,0.99,0.54,-0.02,0.74
2022-01-25 17:38:24.6000,0.317,-0.644,-1.007,-0.98,2.52,0.99,0.52,-0.11,0.68
2022-01-25 17:38:24.6090,0.311,-0.616,-1.032,-0.91,1.86,1.52,0.42,-0.16,0.59
2022-01-25 17:38:24.6200,0.308,-0.599,-1.044,-0.91,1.86,1.52,0.21,-0.14,0.51
2022-01-25 17:38:24.6290,0.307,-0.591,-1.05,-0.91,1.68,1.62,-0.08,0.02,0.48
2022-01-25 17:38:24.6390,0.315,-0.613,-1.055,-0.93,1.66,1.67,-0.38,0.34,0.52
2022-01-25 17:38:24.6500,0.336,-0.679,-1.067,-1.22,2.77,1.89,-0.59,0.77,0.66
2022-01-25 17:38:24.6600,0.372,-0.766,-1.123,-1.22,2.77,1.89,-0.66,1.1,0.85
2022-01-25 17:38:24.6700,0.42,-0.833,-1.212,-1.55,3.65,2.56,-0.64,1.19,1.0
2022-01-25 17:38:24.6790,0.471,-0.878,-1.299,-1.98,4.27,3.45,-0.62,1.04,1.02
2022-01-25 17:38:24.6900,0.507,-0.911,-1.376,-2.42,4.72,4.29,-0.57,0.73,0.95
2022-01-25 17:38:24.6990,0.516,-0.901,-1.423,-2.68,5.01,4.98,-0.46,0.4,0.85
2022-01-25 17:38:24.7100,0.505,-0.826,-1.454,-2.71,4.77,5.36,-0.3,0.11,0.77
2022-01-25 17:38:24.7200,0.487,-0.709,-1.456,-2.6,3.9,5.62,-0.13,-0.08,0.7
2022-01-25 17:38:24.7300,0.462,-0.587,-1.426,-2.2,1.5,5.17,0.06,-0.12,0.69
2022-01-25 17:38:24.7400,0.424,-0.463,-1.365,-1.84,0.23,4.53,0.28,0.0,0.74
2022-01-25 17:38:24.7500,0.38,-0.344,-1.296,-1.84,0.23,4.53,0.5,0.19,0.85
2022-01-25 17:38:24.7600,0.342,-0.229,-1.24,-1.43,-0.98,3.9,0.71,0.3,0.98
2022-01-25 17:38:24.7700,0.317,-0.132,-1.189,-0.91,-3.14,2.95,0.85,0.26,1.05
2022-01-25 17:38:24.7810,0.302,-0.07,-1.13,-0.91,-3.14,2.95,0.9,0.11,1.04
2022-01-25 17:38:24.7900,0.29,-0.028,-1.056,-0.81,-3.78,2.38,0.9,0.11,1.04
2022-01-25 17:38:24.8000,0.289,-0.008,-0.964,-0.76,-4.24,1.65,0.78,-0.16,0.79
2022-01-25 17:38:24.8100,0.296,-0.02,-0.865,-0.83,-4.43,0.74,0.67,-0.13,0.62
2022-01-25 17:38:24.8200,0.307,-0.041,-0.774,-0.94,-4.34,-0.19,0.53,-0.0,0.47
2022-01-25 17:38:24.8300,0.316,-0.065,-0.689,-1.07,-4.18,-1.06,0.37,0.18,0.33
2022-01-25 17:38:24.8400,0.324,-0.098,-0.634,-1.16,-3.96,-1.82,0.18,0.32,0.24
2022-01-25 17:38:24.8500,0.325,-0.139,-0.607,-1.19,-3.21,-2.46,-0.05,0.38,0.19
2022-01-25 17:38:24.8600,0.329,-0.18,-0.606,-1.21,-2.79,-2.43,-0.3,0.33,0.18
2022-01-25 17:38:24.8710,0.327,-0.218,-0.618,-1.21,-2.79,-2.43,-0.3,0.33,0.18
2022-01-25 17:38:24.8800,0.312,-0.242,-0.638,-1.15,-2.4,-2.32,-0.76,-0.0,0.23
2022-01-25 17:38:24.8900,0.287,-0.26,-0.654,-0.99,-2.14,-2.16,-0.91,-0.17,0.28
2022-01-25 17:38:24.9000,0.251,-0.282,-0.666,-0.74,-1.86,-2.06,-0.97,-0.28,0.34
2022-01-25 17:38:24.9100,0.21,-0.288,-0.676,-0.41,-1.6,-2.0,-0.93,-0.35,0.44
2022-01-25 17:38:24.9210,0.171,-0.285,-0.682,-0.06,-1.5,-1.95,-0.83,-0.4,0.55
2022-01-25 17:38:24.9310,0.142,-0.282,-0.671,0.24,-1.48,-1.97,-0.67,-0.4,0.68
2022-01-25 17:38:24.9400,0.116,-0.28,-0.656,0.45,-1.46,-2.13,-0.52,-0.33,0.81
2022-01-25 17:38:24.9500,0.092,-0.278,-0.638,0.81,-1.45,-2.5,-0.37,-0.23,0.93
2022-01-25 17:38:24.9610,0.072,-0.278,-0.625,0.94,-1.44,-2.64,-0.25,-0.11,1.01
2022-01-25 17:38:24.9710,0.057,-0.282,-0.614,1.04,-1.37,-2.75,-0.17,0.0,1.03
2022-01-25 17:38:24.9810,0.043,-0.295,-0.605,1.04,-1.37,-2.75,-0.12,0.1,1.01
2022-01-25 17:38:24.9900,0.024,-0.308,-0.602,1.15,-1.25,-2.83,-0.1,0.14,0.96
2022-01-25 17:38:25.0010,0.006,-0.316,-0.595,1.32,-1.13,-2.86,-0.09,0.17,0.87
2022-01-25 17:38:25.0110,-0.012,-0.321,-0.588,1.47,-1.06,-2.95,-0.11,0.18,0.76
2022-01-25 17:38:25.0200,-0.028,-0.325,-0.589,1.62,-1.02,-2.99,-0.14,0.16,0.64
2022-01-25 17:38:25.0310,-0.043,-0.33,-0.592,1.77,-0.98,-2.99,-0.14,0.16,0.64
2022-01-25 17:38:25.0410,-0.06,-0.333,-0.605,1.9,-0.92,-2.94,-0.16,0.01,0.44
2022-01-25 17:38:25.0500,-0.076,-0.336,-0.61,2.17,-0.84,-2.8,-0.14,-0.07,0.37
2022-01-25 17:38:25.0610,-0.082,-0.348,-0.604,2.17,-0.84,-2.8,-0.1,-0.13,0.3
2022-01-25 17:38:25.0710,-0.086,-0.368,-0.595,2.2,-0.48,-2.98,-0.06,-0.13,0.26
2022-01-25 17:38:25.0810,-0.083,-0.392,-0.59,2.2,-0.48,-2.98,0.0,-0.1,0.22
2022-01-25 17:38:25.0910,-0.068,-0.419,-0.596,2.13,-0.23,-3.01,0.05,-0.06,0.19
2022-01-25 17:38:25.1010,-0.046,-0.451,-0.616,1.94,0.03,-2.91,0.09,-0.04,0.16
2022-01-25 17:38:25.1110,-0.024,-0.485,-0.647,1.71,0.35,-2.69,0.14,-0.07,0.13
2022-01-25 17:38:25.1210,-0.002,-0.516,-0.691,1.48,0.67,-2.35,0.15,-0.16,0.1
2022-01-25 17:38:25.1310,0.02,-0.548,-0.74,1.01,1.26,-1.41,0.14,-0.28,0.06
2022-01-25 17:38:25.1410,0.032,-0.58,-0.792,0.9,1.56,-0.89,0.1,-0.41,0.0
2022-01-25 17:38:25.1510,0.032,-0.598,-0.836,0.9,1.56,-0.89,0.04,-0.49,-0.11
2022-01-25 17:38:25.1610,0.028,-0.599,-0.864,0.88,1.67,-0.52,-0.01,-0.44,-0.26
2022-01-25 17:38:25.1710,0.032,-0.603,-0.883,0.88,1.69,-0.26,-0.04,-0.26,-0.42
2022-01-25 17:38:25.1810,0.053,-0.606,-0.908,0.8,1.75,-0.1,-0.05,-0.0,-0.58
2022-01-25 17:38:25.1910,0.092,-0.608,-0.958,0.21,1.87,0.72,-0.08,0.25,-0.71
2022-01-25 17:38:25.2010,0.149,-0.649,-1.005,-0.32,2.41,1.12,-0.14,0.45,-0.8
2022-01-25 17:38:25.2110,0.213,-0.729,-1.033,-0.32,2.41,1.12,-0.2,0.61,-0.79
2022-01-25 17:38:25.2210,0.255,-0.811,-1.081,-1.08,4.01,1.97,-0.25,0.67,-0.68
2022-01-25 17:38:25.2310,0.27,-0.827,-1.177,-1.12,4.01,3.07,-0.31,0.51,-0.55
2022-01-25 17:38:25.2410,0.274,-0.793,-1.323,-1.12,4.01,3.07,-0.44,0.09,-0.46
2022-01-25 17:38:25.2510,0.277,-0.817,-1.397,-1.14,3.78,4.41,-0.53,-0.26,-0.34
2022-01-25 17:38:25.2620,0.259,-0.86,-1.427,-1.15,4.23,4.91,-0.43,-0.42,-0.13
2022-01-25 17:38:25.2710,0.224,-0.792,-1.496,-0.95,4.51,5.24,-0.15,-0.55,0.04
2022-01-25 17:38:25.2820,0.187,-0.643,-1.566,-0.64,3.57,5.98,0.2,-0.69,0.04
2022-01-25 17:38:25.2910,0.161,-0.484,-1.592,-0.36,2.02,6.57,0.46,-0.79,-0.16
2022-01-25 17:38:25.3010,0.158,-0.358,-1.571,-0.21,0.46,6.72,0.53,-0.78,-0.5
2022-01-25 17:38:25.3110,0.158,-0.27,-1.522,-0.27,-0.7,6.42,0.45,-0.63,-0.83
2022-01-25 17:38:25.3210,0.158,-0.193,-1.489,-0.28,-1.54,5.96,0.32,-0.44,-1.07
2022-01-25 17:38:25.3320,0.15,-0.122,-1.454,-0.1,-2.98,5.3,0.24,-0.26,-1.19
2022-01-25 17:38:25.3410,0.118,-0.063,-1.408,-0.1,-2.98,5.3,0.28,-0.16,-1.16
2022-01-25 17:38:25.3510,0.088,-0.041,-1.352,0.26,-3.5,4.84,0.43,-0.19,-1.01
2022-01-25 17:38:25.3620,0.057,-0.072,-1.268,0.56,-3.62,4.25,0.65,-0.31,-0.72
2022-01-25 17:38:25.3720,0.022,-0.134,-1.161,0.88,-3.26,3.37,0.91,-0.5,-0.35
2022-01-25 17:38:25.3810,-0.007,-0.21,-1.041,1.18,-2.7,2.33,1.15,-0.7,0.06
2022-01-25 17:38:25.3920,-0.036,-0.308,-0.918,1.56,-1.13,0.02,1.32,-0.88,0.42
2022-01-25 17:38:25.4020,-0.06,-0.395,-0.806,1.56,-1.13,0.02,1.42,-1.02,0.67
2022-01-25 17:38:25.4120,-0.08,-0.444,-0.705,1.67,-0.5,-1.01,1.47,-1.14,0.76
2022-01-25 17:38:25.4220,-0.087,-0.464,-0.626,1.72,-0.24,-1.89,1.44,-1.24,0.64
2022-01-25 17:38:25.4320,-0.076,-0.474,-0.541,1.32,-0.21,-3.41,1.31,-1.25,0.35
2022-01-25 17:38:25.4420,-0.048,-0.498,-0.459,1.32,-0.21,-3.41,1.15,-1.16,-0.07
2022-01-25 17:38:25.4520,-0.031,-0.494,-0.475,0.97,-0.04,-3.99,0.9,-1.19,-0.55
2022-01-25 17:38:25.4620,0.011,-0.479,-0.441,0.71,-0.32,-3.7,0.61,-1.14,-1.03
2022-01-25 17:38:25.4720,0.05,-0.51,-0.365,-0.14,-0.09,-4.9,0.3,-0.93,-1.41
2022-01-25 17:38:25.4820,0.087,-0.507,-0.337,-0.14,-0.09,-4.9,-0.02,-0.65,-1.66
2022-01-25 17:38:25.4920,0.124,-0.482,-0.351,-0.77,-0.41,-4.85,-0.34,-0.4,-1.77
2022-01-25 17:38:25.5020,0.156,-0.448,-0.405,-0.77,-0.41,-4.85,-0.6,-0.29,-1.77
2022-01-25 17:38:25.5120,0.173,-0.404,-0.454,-1.0,-0.69,-4.32,-0.73,-0.31,-1.69
2022-01-25 17:38:25.5220,0.172,-0.359,-0.468,-1.06,-1.08,-3.94,-0.69,-0.37,-1.56
2022-01-25 17:38:25.5330,0.154,-0.332,-0.458,-0.75,-1.55,-4.0,-0.56,-0.39,-1.4
2022-01-25 17:38:25.5420,0.14,-0.327,-0.475,-0.75,-1.55,-4.0,-0.36,-0.41,-1.21
2022-01-25 17:38:25.5520,0.12,-0.317,-0.488,-0.58,-1.57,-3.86,-0.17,-0.43,-0.99
2022-01-25 17:38:25.5620,0.108,-0.319,-0.515,-0.39,-1.63,-3.73,0.01,-0.49,-0.79
2022-01-25 17:38:25.5720,0.102,-0.333,-0.548,-0.3,-1.58,-3.43,0.18,-0.59,-0.6
2022-01-25 17:38:25.5820,0.097,-0.369,-0.557,-0.25,-1.02,-3.08,0.32,-0.65,-0.45
2022-01-25 17:38:25.5930,0.086,-0.428,-0.571,-0.25,-1.02,-3.08,0.43,-0.68,-0.29
2022-01-25 17:38:25.6020,0.06,-0.503,-0.614,-0.15,-0.43,-2.85,0.48,-0.69,-0.13
2022-01-25 17:38:25.6120,0.019,-0.582,-0.664,0.46,1.01,-1.84,0.47,-0.67,0.02
2022-01-25 17:38:25.6220,-0.031,-0.646,-0.749,0.46,1.01,-1.84,0.46,-0.68,0.12
2022-01-25 17:38:25.6330,-0.088,-0.698,-0.888,1.34,2.02,0.44,0.42,-0.72,0.12
2022-01-25 17:38:25.6430,-0.109,-0.754,-0.897,1.34,2.02,0.44,0.57,-0.43,-0.07
2022-01-25 17:38:25.6520,-0.095,-0.791,-1.009,1.48,2.52,0.4,0.82,-0.28,-0.36
2022-01-25 17:38:25.6630,-0.005,-0.836,-1.072,0.18,3.26,2.02,0.99,-0.14,-0.63
2022-01-25 17:38:25.6730,0.09,-0.93,-1.03,-0.61,4.07,1.86,1.02,0.05,-0.65
2022-01-25 17:38:25.6830,0.131,-0.963,-1.086,-0.61,4.07,1.86,0.9,0.05,-0.44
2022-01-25 17:38:25.6930,0.12,-0.918,-1.142,-0.64,3.52,3.04,0.76,-0.03,-0.18
2022-01-25 17:38:25.7030,0.09,-0.864,-1.147,-0.64,3.52,3.04,0.74,0.0,0.03
2022-01-25 17:38:25.7130,0.074,-0.806,-1.143,-0.36,2.92,3.06,0.84,0.19,0.14
2022-01-25 17:38:25.7220,0.087,-0.753,-1.113,-0.26,2.27,3.06,0.97,0.55,0.19
2022-01-25 17:38:25.7330,0.141,-0.738,-1.045,-0.99,1.64,2.05,1.09,1.08,0.3
2022-01-25 17:38:25.7430,0.232,-0.784,-0.956,-0.99,1.64,2.05,1.2,1.76,0.57
2022-01-25 17:38:25.7530,0.325,-0.865,-0.879,-1.83,2.11,1.22,1.35,2.43,1.01
2022-01-25 17:38:25.7630,0.377,-0.919,-0.92,-2.54,2.82,0.75,1.53,2.68,1.48
2022-01-25 17:38:25.7730,0.376,-0.867,-1.044,-2.8,2.97,1.62,1.64,2.3,1.7
2022-01-25 17:38:25.7830,0.34,-0.801,-1.102,-2.61,2.17,2.88,1.64,1.54,1.64
2022-01-25 17:38:25.7930,0.299,-0.775,-1.07,-2.22,1.49,3.34,1.57,0.79,1.4
2022-01-25 17:38:25.8030,0.248,-0.712,-0.994,-1.85,1.09,2.96,1.51,0.27,1.1
2022-01-25 17:38:25.8130,0.179,-0.6,-0.921,-1.35,0.2,2.29,1.44,0.01,0.82
2022-01-25 17:38:25.8230,0.114,-0.485,-0.868,-0.7,-1.05,1.7,1.25,-0.12,0.59
2022-01-25 17:38:25.8330,0.099,-0.424,-0.854,-0.22,-2.64,1.32,0.84,-0.23,0.38
2022-01-25 17:38:25.8430,0.115,-0.442,-0.861,-0.39,-2.4,1.48,0.26,-0.32,0.21
2022-01-25 17:38:25.8530,0.099,-0.448,-0.914,-0.39,-2.4,1.48,-0.38,-0.4,0.02
2022-01-25 17:38:25.8630,0.036,-0.394,-0.955,-0.12,-2.46,2.05,-0.38,-0.37,-0.19
2022-01-25 17:38:25.8730,-0.028,-0.332,-0.949,1.12,-3.45,2.08,-1.29,-0.15,-0.4
2022-01-25 17:38:25.8830,-0.058,-0.303,-0.949,1.12,-3.45,2.08,-1.41,0.14,-0.56
2022-01-25 17:38:25.8930,-0.04,-0.327,-0.931,1.34,-3.51,1.95,-1.34,0.41,-0.64
2022-01-25 17:38:25.9030,0.014,-0.402,-0.911,1.13,-3.03,1.67,-1.17,0.53,-0.6
2022-01-25 17:38:25.9130,0.079,-0.5,-0.879,0.63,-2.12,1.4,-0.93,0.49,-0.44
2022-01-25 17:38:25.9240,0.127,-0.582,-0.832,0.07,-1.08,0.98,-0.71,0.26,-0.23
2022-01-25 17:38:25.9340,0.148,-0.626,-0.78,-0.3,-0.31,0.47,-0.57,-0.08,-0.09
2022-01-25 17:38:25.9430,0.147,-0.643,-0.716,-0.46,0.09,-0.11,-0.56,-0.38,-0.06
2022-01-25 17:38:25.9530,0.129,-0.627,-0.654,-0.26,0.06,-1.41,-0.67,-0.57,-0.14
2022-01-25 17:38:25.9640,0.106,-0.598,-0.613,-0.26,0.06,-1.41,-0.83,-0.63,-0.27
2022-01-25 17:38:25.9730,0.09,-0.572,-0.605,0.03,-0.33,-1.86,-0.99,-0.6,-0.38
2022-01-25 17:38:25.9840,0.088,-0.535,-0.623,0.03,-0.33,-1.86,-1.08,-0.53,-0.44
2022-01-25 17:38:25.9930,0.089,-0.495,-0.647,0.01,-0.62,-1.72,-1.06,-0.41,-0.43
2022-01-25 17:38:26.0040,0.086,-0.453,-0.667,0.0,-0.93,-1.55,-0.9,-0.27,-0.35
2022-01-25 17:38:26.0140,0.081,-0.408,-0.678,0.04,-1.28,-1.42,-0.62,-0.17,-0.23
2022-01-25 17:38:26.0240,0.081,-0.377,-0.672,0.08,-1.65,-1.39,-0.3,-0.15,-0.12
2022-01-25 17:38:26.0340,0.086,-0.372,-0.656,0.06,-1.87,-1.49,-0.04,-0.21,-0.02
2022-01-25 17:38:26.0440,0.086,-0.379,-0.624,-0.01,-1.88,-1.7,0.13,-0.31,0.06
2022-01-25 17:38:26.0540,0.08,-0.379,-0.594,-0.01,-1.82,-2.02,0.21,-0.41,0.1
2022-01-25 17:38:26.0640,0.074,-0.38,-0.565,0.0,-1.85,-2.3,0.24,-0.49,0.14
2022-01-25 17:38:26.0740,0.061,-0.385,-0.545,0.03,-1.84,-2.56,0.24764575064182281,-0.51,0.17
2022-01-25 17:38:26.0840,0.046,-0.385,-0.532,0.12,-1.82,-2.72,0.25,-0.46,0.19
2022-01-25 17:38:26.0940,0.032,-0.384,-0.518,0.32,-1.87,-2.98,0.26,-0.34,0.18
2022-01-25 17:38:26.1040,0.012,-0.385,-0.501,0.32,-1.87,-2.98,0.28,-0.18,0.15
2022-01-25 17:38:26.1140,-0.009,-0.393,-0.493,0.7,-1.79,-3.16,0.29,-0.06,0.1
2022-01-25 17:38:26.1240,-0.026,-0.422,-0.493,0.7,-1.79,-3.16,0.27,-0.0,0.08
2022-01-25 17:38:26.1340,-0.036,-0.461,-0.502,0.9,-1.11,-2.99,0.25,-0.03,0.08
2022-01-25 17:38:26.1440,-0.021,-0.5,-0.517,0.9,-1.11,-2.99,0.24,-0.1,0.11
2022-01-25 17:38:26.1540,0.015,-0.546,-0.538,0.66,-0.73,-2.84,0.25,-0.24,0.17
2022-01-25 17:38:26.1640,0.058,-0.596,-0.589,0.24,-0.29,-2.55,0.27,-0.48,0.27
2022-01-25 17:38:26.1740,0.091,-0.643,-0.652,-0.23,0.18,-1.98,0.3,-0.77,0.38
2022-01-25 17:38:26.1840,0.093,-0.67,-0.708,-0.58,0.59,-1.36,0.36,-1.04,0.46
2022-01-25 17:38:26.1940,0.066,-0.667,-0.765,-0.62,0.75,-0.8,0.44,-1.23,0.47
2022-01-25 17:38:26.2040,0.023,-0.652,-0.821,-0.44,0.63,-0.21,0.53,-1.34,0.42
2022-01-25 17:38:26.2140,-0.018,-0.648,-0.851,0.12,0.43,0.57,0.6,-1.31,0.32
2022-01-25 17:38:26.2240,-0.039,-0.677,-0.847,0.12,0.43,0.57,0.63,-1.08,0.25
2022-01-25 17:38:26.2340,-0.021,-0.745,-0.831,0.16,0.76,0.5,0.62,-0.72,0.24
2022-01-25 17:38:26.2440,0.044,-0.855,-0.845,-0.22,1.49,0.44,0.62,-0.72,0.24
2022-01-25 17:38:26.2540,0.113,-0.979,-0.877,-1.59,3.79,1.0,0.27,-0.03,0.28
2022-01-25 17:38:26.2650,0.146,-1.077,-0.915,-1.59,3.79,1.0,-0.03,0.3,0.29
2022-01-25 17:38:26.2740,0.122,-1.073,-1.006,-1.76,4.59,1.43,-0.33,0.54,0.24
2022-01-25 17:38:26.2850,0.076,-0.994,-1.136,-1.4,4.27,2.49,-0.65,0.64,0.05
2022-01-25 17:38:26.2950,0.035,-0.997,-1.197,-0.44,3.92,4.05,-0.89,0.8,-0.12
2022-01-25 17:38:26.3050,-0.001,-0.991,-1.267,-0.016969496905803683,3.66,4.82,-0.98,0.91,-0.24
2022-01-25 17:38:26.3150,-0.024,-0.891,-1.371,-0.02,3.66,5.718606144189835,-0.93,0.83,-0.36
2022-01-25 17:38:26.3250,-0.022,-0.813,-1.433,0.23,2.1,6.21,-0.75,0.63,-0.44
2022-01-25 17:38:26.3350,0.002,-0.749,-1.487,0.23,2.1,6.21,-0.52,0.3,-0.49
2022-01-25 17:38:26.3450,0.026,-0.678,-1.499,-0.16,0.82,6.59,-0.29,-0.05,-0.49
2022-01-25 17:38:26.3550,0.021,-0.604,-1.442,-0.01,0.05,5.95,-0.06,-0.26,-0.42
2022-01-25 17:38:26.3650,-0.023,-0.51,-1.364,-0.01,0.05,5.95,0.15,-0.36,-0.29
2022-01-25 17:38:26.3740,-0.091,-0.422,-1.264,0.5,-0.89,5.14,0.3,-0.39,-0.15
2022-01-25 17:38:26.3840,-0.146,-0.35,-1.144,1.14,-1.75,4.13,0.4,-0.36,-0.06
2022-01-25 17:38:26.3950,-0.179,-0.297,-1.013,1.59,-2.45,2.93,0.4,-0.26,-0.04
2022-01-25 17:38:26.4050,-0.198,-0.269,-0.878,1.86,-2.93,1.66,0.32,-0.1,-0.06
2022-01-25 17:38:26.4150,-0.199,-0.262,-0.739,1.99,-3.21,-1.0,0.18,0.14,-0.1
2022-01-25 17:38:26.4250,-0.181,-0.275,-0.624,1.99,-3.21,-1.0,-0.01,0.42,-0.12
2022-01-25 17:38:26.4340,-0.144,-0.305,-0.549,1.8,-3.02,-2.02,-0.25,0.65,-0.12
2022-01-25 17:38:26.4450,-0.093,-0.348,-0.499,1.46,-2.67,-2.7,-0.51,0.81,-0.11
2022-01-25 17:38:26.4550,-0.033,-0.392,-0.463,1.0,-2.2,-3.18,-0.77,0.92,-0.12
2022-01-25 17:38:26.4650,0.025,-0.428,-0.44,0.5,-1.71,-3.54,-1.02,1.0,-0.12
2022-01-25 17:38:26.4750,0.075,-0.44,-0.434,-0.35,-1.15,-3.87,-1.24,1.07,-0.15
2022-01-25 17:38:26.4850,0.118,-0.431,-0.439,-0.35,-1.15,-3.87,-1.39,1.12,-0.18
2022-01-25 17:38:26.4950,0.15,-0.41,-0.447,-0.64,-1.16,-3.89,-1.45,1.12,-0.23
2022-01-25 17:38:26.5050,0.173,-0.378,-0.459,-0.83,-1.27,-3.87,-1.44,1.06,-0.29
2022-01-25 17:38:26.5150,0.189,-0.344,-0.464,-0.99,-1.69,-3.85,-1.35,0.96,-0.33
2022-01-25 17:38:26.5250,0.206,-0.308,-0.468,-0.99,-1.69,-3.85,-1.22,0.8,-0.35
2022-01-25 17:38:26.5440,0.221,-0.273,-0.482,-1.17,-2.16,-3.75,-1.22,0.8,-0.35
2022-01-25 17:38:26.5460,0.238,-0.255,-0.489,-1.17,-2.16,-3.75,-1.08,0.31,-0.33
2022-01-25 17:38:26.5550,0.251,-0.257,-0.479,-1.29,-2.18,-3.77,-1.09,0.12,-0.26
2022-01-25 17:38:26.5650,0.261,-0.254,-0.467,-1.38,-2.05,-3.96,-1.1,0.04,-0.16
2022-01-25 17:38:26.5750,0.263,-0.236,-0.472,-1.46,-2.02,-4.08,-1.12,0.06,-0.05
2022-01-25 17:38:26.5850,0.261,-0.222,-0.471,-1.45,-2.1,-4.07,-1.12,0.21,0.07
2022-01-25 17:38:26.5950,0.262,-0.213,-0.474,-1.42,-2.13,-4.14,-1.11,0.47,0.21
2022-01-25 17:38:26.6050,0.265,-0.21,-0.499,-1.4,-2.11,-4.11,-1.12,0.71,0.36
2022-01-25 17:38:26.6160,0.271,-0.224,-0.531,-1.39,-2.01,-3.87,-1.14,0.91,0.5
2022-01-25 17:38:26.6260,0.275,-0.252,-0.568,-1.38,-1.73,-3.58,-1.15,1.03,0.63
2022-01-25 17:38:26.6350,0.275,-0.292,-0.609,-1.34,-1.34,-3.23,-1.14,1.09,0.71
2022-01-25 17:38:26.6450,0.277,-0.348,-0.637,-1.27,-0.81,-2.88,-1.1,1.13,0.76
2022-01-25 17:38:26.6550,0.282,-0.41,-0.669,-1.2,0.56,-2.31,-1.08,1.15,0.79
2022-01-25 17:38:26.6660,0.282,-0.477,-0.716,-1.2,0.56,-2.31,-1.08,1.2,0.84
2022-01-25 17:38:26.6760,0.271,-0.526,-0.786,-1.1,1.29,-1.84,-1.13,1.26,0.92
2022-01-25 17:38:26.6860,0.238,-0.549,-0.87,-0.87,1.77,-1.1,-1.25,1.41,0.95
2022-01-25 17:38:26.6960,0.175,-0.584,-0.963,-0.38,2.09,-0.32,-1.34,1.65,0.93
2022-01-25 17:38:26.7060,0.086,-0.637,-1.13,0.44,2.59,0.73,-1.27,1.83,0.83
2022-01-25 17:38:26.7150,0.02,-0.696,-1.332,1.46,3.25,2.53,-1.27,1.83,0.83
2022-01-25 17:38:26.7260,0.018,-0.724,-1.498,2.1,3.84,4.49,-0.41,1.57,0.2
2022-01-25 17:38:26.7360,0.056,-0.746,-1.583,1.86,4.33,6.61,0.03,1.19,-0.28
2022-01-25 17:38:26.7460,0.068,-0.754,-1.582,1.86,4.33,6.61,0.21,0.87,-0.68
2022-01-25 17:38:26.7550,0.029,-0.696,-1.527,2.54,3.6,5.87,0.14,0.75,-0.93
2022-01-25 17:38:26.7660,-0.034,-0.617,-1.456,2.54,3.6,5.87,-0.05,0.86,-1.07
2022-01-25 17:38:26.7760,-0.077,-0.584,-1.396,3.73,2.83,4.68,-0.16,1.14,-1.1
2022-01-25 17:38:26.7860,-0.08,-0.652,-1.356,3.73,2.83,4.68,-0.1,1.37,-1.01
2022-01-25 17:38:26.7960,-0.053,-0.821,-1.362,3.64,5.58,4.64,0.08,1.32,-0.82
2022-01-25 17:38:26.8060,-0.008,-0.963,-1.412,3.64,5.58,4.64,0.31,0.82,-0.67
2022-01-25 17:38:26.8160,0.063,-0.981,-1.473,3.23,6.71,5.23,0.58,-0.07,-0.75
2022-01-25 17:38:26.8260,0.151,-0.897,-1.492,1.55,5.55,5.79,0.8,-1.15,-1.11
2022-01-25 17:38:26.8360,0.222,-0.763,-1.444,1.55,5.55,5.79,0.93,-2.09,-1.59
2022-01-25 17:38:26.8460,0.262,-0.567,-1.356,0.78,4.08,5.16,0.9,-2.64,-2.04
2022-01-25 17:38:26.8560,0.279,-0.339,-1.225,0.29,1.99,4.14,0.76,-2.59,-2.29
2022-01-25 17:38:26.8660,0.29,-0.162,-1.122,-0.22,-1.79,1.89,0.6,-2.09,-2.26
2022-01-25 17:38:26.8760,0.298,-0.02,-1.073,-0.22,-1.79,1.89,0.53,-1.46,-1.94
2022-01-25 17:38:26.8860,0.32,0.089,-1.058,-0.38,-3.1,1.47,0.59,-0.96,-1.46
2022-01-25 17:38:26.8960,0.358,0.173,-1.077,-0.7,-4.11,1.41,0.59,-0.96,-1.46
2022-01-25 17:38:26.9060,0.39,0.233,-1.091,-1.12,-4.93,1.64,0.97,-1.04,-0.57
2022-01-25 17:38:26.9160,0.414,0.247,-1.044,-1.48,-5.51,1.66,1.06,-1.43,-0.24
2022-01-25 17:38:26.9260,0.444,0.208,-0.977,-1.86,-5.58,1.07,1.06,-1.88,0.08
2022-01-25 17:38:26.9370,0.474,0.169,-0.916,-2.34,-5.25,0.46,0.98,-2.34,0.41
2022-01-25 17:38:26.9460,0.502,0.133,-0.825,-2.86,-5.0,-0.22,0.84,-2.66,0.71
2022-01-25 17:38:26.9560,0.518,0.092,-0.728,-3.38,-4.69,-1.18,0.61,-2.76,0.99
2022-01-25 17:38:26.9660,0.522,0.074,-0.645,-3.79,-4.41,-2.12,0.29,-2.59,1.22
2022-01-25 17:38:26.9760,0.524,0.055,-0.592,-4.09,-4.29,-2.92,-0.13,-2.23,1.4
2022-01-25 17:38:26.9870,0.531,0.032,-0.587,-4.66,-3.79,-3.33,-0.61,-1.77,1.53
2022-01-25 17:38:26.9960,0.541,0.004,-0.617,-4.66,-3.79,-3.33,-1.09,-1.3,1.63
2022-01-25 17:38:27.0070,0.554,-0.026,-0.673,-4.94,-3.41,-3.02,-1.48,-0.89,1.75
2022-01-25 17:38:27.0160,0.565,-0.049,-0.753,-5.19,-2.98,-2.45,-1.68,-0.59,1.9
2022-01-25 17:38:27.0260,0.575,-0.061,-0.82,-5.6,-2.36,-1.17,-1.68,-0.4,2.09
2022-01-25 17:38:27.0370,0.575,-0.083,-0.862,-5.6,-2.36,-1.17,-1.55,-0.26,2.33
2022-01-25 17:38:27.0470,0.561,-0.111,-0.881,-5.66,-1.97,-0.87,-1.34,-0.12,2.61
2022-01-25 17:38:27.0570,0.532,-0.139,-0.896,-5.32,-1.2,-0.65,-1.1,0.04,2.88
2022-01-25 17:38:27.0670,0.491,-0.159,-0.894,-5.32,-1.2,-0.65,-0.85,0.25,3.1
2022-01-25 17:38:27.0770,0.446,-0.187,-0.884,-4.95,-0.92,-0.74,-0.63,0.51,3.24
2022-01-25 17:38:27.0860,0.398,-0.231,-0.877,-4.55,-0.53,-0.85,-0.45,0.76,3.32
2022-01-25 17:38:27.0970,0.339,-0.27,-0.889,-4.05,-0.04,-0.9,-0.33,0.96,3.34
2022-01-25 17:38:27.1070,0.263,-0.304,-0.91,-3.43,0.36,-0.76,-0.19,1.12,3.31
2022-01-25 17:38:27.1170,0.16,-0.333,-0.946,-1.44,0.98,-0.15,-0.02,1.28,3.22
2022-01-25 17:38:27.1270,0.016,-0.347,-0.982,-1.44,0.98,-0.15,0.23,1.51,3.04
2022-01-25 17:38:27.1370,-0.164,-0.398,-1.063,0.11,1.05,0.16,0.78,1.46,2.79
2022-01-25 17:38:27.1470,-0.399,-0.547,-1.352,2.13,1.97,1.75,2.17,-0.09,2.71
2022-01-25 17:38:27.1570,-0.577,-0.411,-1.052,5.61,0.87,0.64,2.61,-0.31,2.57
2022-01-25 17:38:27.1670,-0.599,-0.382,-1.076,5.61,0.87,0.64,3.15,-0.9,2.47
2022-01-25 17:38:27.1770,-0.606,-0.33,-1.033,5.29,-0.56,0.48,3.64,-1.43,2.38
2022-01-25 17:38:27.1870,-0.595,-0.255,-0.867,5.29,-0.56,0.48,4.16,-1.75,2.21
2022-01-25 17:38:27.1970,-0.617,-0.294,-0.865,4.99,-1.36,-0.56,4.57,-2.12,2.07
2022-01-25 17:38:27.2070,-0.623,-0.324,-0.781,4.96,-1.28,-0.32,4.88,-2.38,1.87
2022-01-25 17:38:27.2170,-0.607,-0.328,-0.611,4.62,-1.47,-1.3,5.04,-2.37,1.63
2022-01-25 17:38:27.2270,-0.612,-0.292,-0.432,4.23,-1.88,-2.51,4.97,-2.06,1.34
2022-01-25 17:38:27.2380,-0.584,-0.334,0.125,3.27,-2.09,-8.97,4.35,-0.94,1.15
2022-01-25 17:38:27.2470,-0.436,-0.449,-0.052,1.87,-1.4,-6.77,3.12,-0.66,1.09
2022-01-25 17:38:27.2570,-0.374,-0.512,-0.034,1.33,-0.83,-7.09,1.62,-0.25,0.93
2022-01-25 17:38:27.2680,-0.324,-0.547,-0.133,1.33,-0.83,-7.09,0.12,0.21,0.55
2022-01-25 17:38:27.2780,-0.211,-0.539,-0.286,-0.38,-0.39,-4.39,-1.15,0.88,0.05
2022-01-25 17:38:27.2880,-0.125,-0.689,-0.43,-0.38,-0.39,-4.39,-2.02,1.69,-0.33
2022-01-25 17:38:27.2970,-0.04,-0.824,-0.463,-0.97,1.38,-3.22,-2.71,2.99,-0.59
2022-01-25 17:38:27.3070,0.119,-0.94,-0.643,-1.68,2.85,-3.27,-3.24,3.84,-0.61
2022-01-25 17:38:27.3180,0.313,-1.01,-1.032,-4.33,5.11,2.5,-3.62,3.94,-0.27
2022-01-25 17:38:27.3280,0.286,-1.033,-1.242,-4.33,5.11,2.5,-3.84,3.63,0.37
2022-01-25 17:38:27.3370,0.197,-0.889,-1.314,-3.34,5.19,3.78,-3.88,3.21,0.83
2022-01-25 17:38:27.3470,0.061,-0.809,-1.715,-2.27,4.11,4.47,-3.73,2.03,1.13
2022-01-25 17:38:27.3580,-0.106,-0.708,-1.966,-0.55,3.8,9.44,-3.0,1.15,1.09
2022-01-25 17:38:27.3690,-0.205,-0.573,-1.826,0.92,2.83,9.53,-1.81,0.96,0.81
2022-01-25 17:38:27.3780,-0.28,-0.531,-1.987,0.98,2.99,9.47,-0.61,0.74,0.49
2022-01-25 17:38:27.3880,-0.281,-0.451,-1.928,1.98,1.95,9.16,0.51,0.47,0.18
2022-01-25 17:38:27.3980,-0.26,-0.352,-1.737,2.56,1.5,10.42,1.33,0.22,-0.04
2022-01-25 17:38:27.4080,-0.25,-0.252,-1.476,2.5,0.47,9.44,1.74,0.1,-0.15
2022-01-25 17:38:27.4180,-0.249,-0.149,-1.282,2.3,-0.64,7.39,1.76,0.02,-0.25
2022-01-25 17:38:27.4280,-0.264,-0.055,-1.152,2.25,-1.79,4.96,1.46,-0.06,-0.41
2022-01-25 17:38:27.4380,-0.285,-0.002,-1.096,2.29,-2.91,3.31,0.97,-0.19,-0.65
2022-01-25 17:38:27.4490,-0.307,-0.004,-1.082,2.47,-3.86,2.23,0.49,-0.37,-0.93
2022-01-25 17:38:27.4590,-0.329,-0.021,-1.068,2.69,-4.27,1.86,0.15,-0.54,-1.2
2022-01-25 17:38:27.4690,-0.343,-0.034,-1.051,2.91,-4.19,1.74,-0.02,-0.67,-1.48
2022-01-25 17:38:27.4790,-0.34,-0.049,-1.017,3.12,-4.02,1.6,-0.04,-0.74,-1.74
2022-01-25 17:38:27.4890,-0.311,-0.079,-0.956,3.24,-3.91,1.41,0.01,-0.66,-1.95
2022-01-25 17:38:27.4990,-0.261,-0.112,-0.905,3.17,-3.72,1.0,0.13,-0.54,-2.08
2022-01-25 17:38:27.5090,-0.207,-0.159,-0.851,2.87,-3.43,0.41,0.26,-0.41,-2.16
2022-01-25 17:38:27.5190,-0.174,-0.231,-0.76,2.41,-3.1,-0.06,0.31,-0.11,-2.22
2022-01-25 17:38:27.5290,-0.147,-0.295,-0.681,2.0,-2.62,-0.63,0.27,0.29,-2.25
2022-01-25 17:38:27.5390,-0.119,-0.351,-0.605,1.85,-1.9,-1.57,0.15,0.82,-2.27
2022-01-25 17:38:27.5490,-0.05,-0.371,-0.646,1.78,-1.29,-2.36,0.18,1.04,-2.37
2022-01-25 17:38:27.5590,0.008,-0.407,-0.678,1.59,-0.85,-2.82,0.34,0.96,-2.49
2022-01-25 17:38:27.5690,0.049,-0.432,-0.657,1.1,-0.66,-2.28,0.56,0.76,-2.6
2022-01-25 17:38:27.5790,0.068,-0.422,-0.612,0.74,-0.32,-2.1,0.74,0.53,-2.66
2022-01-25 17:38:27.5890,0.076,-0.383,-0.55,0.56,-0.18,-2.34,0.86,0.35,-2.71
2022-01-25 17:38:27.5990,0.085,-0.334,-0.489,0.56,-0.41,-2.79,0.92,0.23,-2.74
2022-01-25 17:38:27.6090,0.106,-0.291,-0.439,0.63,-0.87,-3.36,0.93,0.15,-2.77
2022-01-25 17:38:27.6190,0.139,-0.264,-0.403,0.66,-1.39,-3.9,0.89,0.09,-2.78
2022-01-25 17:38:27.6290,0.18,-0.26,-0.393,0.56,-1.82,-4.32,0.81,-0.01,-2.74
2022-01-25 17:38:27.6390,0.219,-0.269,-0.401,0.33,-2.04,-4.59,0.7,-0.14,-2.66
2022-01-25 17:38:27.6490,0.238,-0.28,-0.397,0.03,-2.04,-4.58,0.59,-0.24,-2.53
2022-01-25 17:38:27.6590,0.241,-0.277,-0.399,-0.22,-1.93,-4.51,0.5,-0.32,-2.39
2022-01-25 17:38:27.6700,0.244,-0.265,-0.389,-0.27,-1.84,-4.53,0.44,-0.35,-2.27
2022-01-25 17:38:27.6790,0.247,-0.255,-0.391,-0.22,-1.9,-4.51,0.38,-0.36,-2.16
2022-01-25 17:38:27.6890,0.25,-0.255,-0.413,-0.18,-2.0,-4.61,0.3,-0.36,-2.06
2022-01-25 17:38:27.6990,0.258,-0.282,-0.428,-0.15,-2.05,-4.51,0.19,-0.34,-1.94
2022-01-25 17:38:27.7090,0.277,-0.339,-0.453,-0.13,-1.98,-4.3,0.07,-0.26,-1.8
2022-01-25 17:38:27.7190,0.299,-0.371,-0.476,-0.17,-1.59,-4.16,-0.12,-0.11,-1.66
2022-01-25 17:38:27.7290,0.373,-0.434,-0.479,-0.31,-0.95,-3.88,-0.41,0.2,-1.52
2022-01-25 17:38:27.7390,0.457,-0.557,-0.624,-0.48,-0.7,-3.87,-0.72,0.31,-1.36
2022-01-25 17:38:27.7500,0.482,-0.554,-0.748,-1.3,0.39,-3.39,-0.9,0.23,-1.2
2022-01-25 17:38:27.7600,0.519,-0.522,-0.88,-1.85,1.41,-2.11,-0.97,0.1,-1.02
2022-01-25 17:38:27.7690,0.505,-0.503,-0.961,-2.09,1.35,-0.8,-0.93,0.03,-0.78
2022-01-25 17:38:27.7790,0.495,-0.514,-1.111,-2.32,1.12,0.26,-0.77,-0.15,-0.52
2022-01-25 17:38:27.7890,0.494,-0.51,-1.224,-2.12,1.11,1.16,-0.48,-0.36,-0.35
2022-01-25 17:38:27.7990,0.502,-0.485,-1.275,-2.1,1.27,2.64,-0.22,-0.55,-0.29
2022-01-25 17:38:27.8100,0.518,-0.458,-1.297,-2.12,1.19,3.52,-0.14,-0.68,-0.33
2022-01-25 17:38:27.8200,0.524,-0.459,-1.278,-2.29,0.94,3.92,-0.23,-0.59,-0.39
2022-01-25 17:38:27.8300,0.512,-0.495,-1.269,-2.47,0.75,4.02,-0.45,-0.32,-0.35
2022-01-25 17:38:27.8400,0.519,-0.547,-1.308,-2.49,0.91,3.75,-0.73,0.06,-0.28
2022-01-25 17:38:27.8500,0.545,-0.621,-1.402,-2.35,1.39,3.77,-0.96,0.36,-0.21
2022-01-25 17:38:27.8600,0.568,-0.684,-1.538,-2.46,2.05,4.22,-1.03,0.43,-0.21
2022-01-25 17:38:27.8700,0.582,-0.712,-1.647,-2.67,2.88,5.28,-0.94,0.37,-0.26
2022-01-25 17:38:27.8800,0.556,-0.701,-1.695,-2.84,3.51,6.59,-0.77,0.23,-0.35
2022-01-25 17:38:27.8900,0.524,-0.622,-1.752,-2.89,3.79,7.41,-0.59,0.0,-0.46
2022-01-25 17:38:27.9000,0.488,-0.543,-1.713,-2.54,3.56,8.02,-0.39,-0.15,-0.51
2022-01-25 17:38:27.9100,0.43,-0.432,-1.657,-2.25,2.8,8.23,-0.19,-0.16,-0.47
2022-01-25 17:38:27.9200,0.358,-0.293,-1.557,-1.84,2.02,7.84,0.0,-0.01,-0.36
2022-01-25 17:38:27.9300,0.29,-0.163,-1.449,-1.21,0.84,7.15,0.22,0.2,-0.21
2022-01-25 17:38:27.9400,0.242,-0.066,-1.341,-0.47,-0.54,6.14,0.46,0.34,-0.05
2022-01-25 17:38:27.9500,0.214,-0.028,-1.229,0.19,-1.81,5.11,0.85,0.25,0.31
2022-01-25 17:38:27.9660,0.191,-0.029,-1.114,0.87,-2.93,2.97,0.85,0.25,0.31
2022-01-25 17:38:27.9750,0.169,-0.039,-1.0,1.1,-2.97,1.87,0.99,-0.14,0.58
2022-01-25 17:38:27.9860,0.155,-0.066,-0.885,1.3,-2.94,0.78,0.99,-0.31,0.6
2022-01-25 17:38:27.9960,0.151,-0.105,-0.772,1.38,-2.73,-0.32,0.99,-0.31,0.6
2022-01-25 17:38:28.0060,0.151,-0.14,-0.674,1.35,-2.45,-1.38,0.82,-0.55,0.4
2022-01-25 17:38:28.0160,0.15,-0.152,-0.597,1.29,-2.25,-2.26,0.63,-0.66,0.17
2022-01-25 17:38:28.0250,0.15,-0.153,-0.537,1.25,-2.25,-2.97,0.37,-0.78,-0.1
2022-01-25 17:38:28.0350,0.163,-0.157,-0.494,1.15,-2.3,-3.5,0.07,-0.88,-0.37
2022-01-25 17:38:28.0450,0.182,-0.174,-0.462,0.94,-2.26,-3.9,0.07,-0.88,-0.37
2022-01-25 17:38:28.0550,0.208,-0.194,-0.442,0.68,-2.06,-4.21,-0.58,-1.0,-0.77
2022-01-25 17:38:28.0650,0.232,-0.212,-0.43,0.08,-1.57,-4.56,-0.58,-1.0,-0.77
2022-01-25 17:38:28.0750,0.248,-0.232,-0.433,0.08,-1.57,-4.56,-1.02,-1.02,-0.85
2022-01-25 17:38:28.0850,0.261,-0.236,-0.445,-0.13,-1.29,-4.54,-1.02,-1.02,-0.85
2022-01-25 17:38:28.0960,0.272,-0.233,-0.454,-0.31,-1.18,-4.51,-1.09,-1.0,-0.74
2022-01-25 17:38:28.1070,0.277,-0.229,-0.471,-0.47,-1.09,-4.46,-0.93,-1.0,-0.36
2022-01-25 17:38:28.1150,0.277,-0.222,-0.479,-0.58,-1.05,-4.34,-0.77,-1.01,-0.14
2022-01-25 17:38:28.1270,0.275,-0.225,-0.485,-0.65,-1.0,-4.35,-0.61,-1.05,0.05
2022-01-25 17:38:28.1360,0.283,-0.237,-0.498,-0.73,-0.88,-4.31,-0.47,-1.09,0.19
2022-01-25 17:38:28.1460,0.303,-0.244,-0.509,-0.95,-0.7,-4.22,-0.3698078691959381,-1.09,0.19
2022-01-25 17:38:28.1570,0.32,-0.244,-0.514,-1.25,-0.61,-4.16,-0.37,-1.08,0.27
2022-01-25 17:38:28.1670,0.329,-0.247,-0.527,-1.5,-0.58,-4.14,-0.29,-1.03,0.3
2022-01-25 17:38:28.1760,0.328,-0.248,-0.548,-1.67,-0.53,-4.01,-0.19,-0.92,0.26
2022-01-25 17:38:28.1870,0.321,-0.243,-0.564,-1.74,-0.51,-3.83,-0.19,-0.81,0.2
2022-01-25 17:38:28.1960,0.318,-0.234,-0.568,-1.77,-0.56,-3.72,-0.22,-0.61,0.15
2022-01-25 17:38:28.2150,0.309,-0.224,-0.568,-1.77,-0.71,-3.72,-0.22,-0.61,0.15
2022-01-25 17:38:28.2250,0.298,-0.222,-0.58,-1.7,-0.65,-3.55,-0.27,-0.32,0.11
2022-01-25 17:38:28.2350,0.304,-0.242,-0.615,-1.84,-0.36,-3.21,-0.34,0.03,0.09
2022-01-25 17:38:28.2360,0.334,-0.288,-0.65,-1.84,-0.36,-3.21,-0.42,0.42,0.1
2022-01-25 17:38:28.2460,0.366,-0.332,-0.698,-2.12,0.17,-2.84,-0.53,0.98,0.27
2022-01-25 17:38:28.2550,0.375,-0.331,-0.766,-2.32,0.56,-2.33,-0.47,1.17,0.31
2022-01-25 17:38:28.2750,0.407,-0.34,-0.78,-2.43,0.77,-1.57,-0.37,1.08,0.41
2022-01-25 17:38:28.2750,0.357,-0.35,-0.876,-2.43,0.77,-1.57,-0.34,0.91,0.46
2022-01-25 17:38:28.2860,0.318,-0.322,-0.957,-1.8,0.72,-0.41,-0.33,0.74,0.56
2022-01-25 17:38:28.2960,0.256,-0.356,-0.991,-1.33,0.59,0.1,-0.32,0.41,0.66
2022-01-25 17:38:28.3060,0.204,-0.405,-1.104,-0.64,1.04,0.65,-0.27,0.01,0.68
2022-01-25 17:38:28.3160,0.175,-0.44,-1.191,-0.19,1.52,1.77,-0.2,-0.35,0.64
2022-01-25 17:38:28.3260,0.137,-0.468,-1.238,0.07,1.84,2.51,-0.2,-0.35,0.64
2022-01-25 17:38:28.3370,0.08,-0.5,-1.252,0.44,2.14,2.87,-0.15,-0.58,0.58
2022-01-25 17:38:28.3470,0.02,-0.524,-1.248,1.46,2.71,2.86,-0.39,-0.25,0.62
2022-01-25 17:38:28.3570,-0.03,-0.575,-1.244,1.46,2.71,2.86,-0.39,-0.25,0.62
2022-01-25 17:38:28.3670,-0.066,-0.664,-1.257,1.9,3.35,2.82,-0.65,0.29,0.75
2022-01-25 17:38:28.3770,-0.082,-0.749,-1.284,2.19,4.3,3.01,-0.81,0.97,0.8
2022-01-25 17:38:28.3870,-0.13,-0.739,-1.486,2.49,5.12,3.43,-0.78,0.56,0.51
2022-01-25 17:38:28.3970,-0.146,-0.658,-1.673,2.99,4.71,5.85,-0.78,0.56,0.51
2022-01-25 17:38:28.4070,-0.141,-0.699,-1.71,3.12,4.22,7.14,-0.65,-0.23,-0.18
2022-01-25 17:38:28.4170,-0.136,-0.703,-1.73,3.05,4.82,7.42,-0.65,-0.23,-0.18
2022-01-25 17:38:28.4270,-0.125,-0.571,-1.723,3.0,4.58,7.55,-0.43,-0.36,-0.6
2022-01-25 17:38:28.4370,-0.088,-0.386,-1.684,2.81,3.12,7.38,-0.1,-0.28,-1.05
2022-01-25 17:38:28.4470,-0.037,-0.204,-1.614,2.4,1.3,6.92,0.53,0.43,-1.54
2022-01-25 17:38:28.4570,0.012,-0.066,-1.527,1.92,-0.41,6.16,0.53,0.43,-1.54
2022-01-25 17:38:28.4670,0.042,0.056,-1.46,1.55,-1.7,5.36,0.93,0.91,-1.33
2022-01-25 17:38:28.4770,0.048,0.163,-1.401,1.42,-2.94,4.77,0.93,0.91,-1.33
2022-01-25 17:38:28.4870,0.035,0.236,-1.348,1.53,-3.96,4.25,1.09,0.81,-1.13
2022-01-25 17:38:28.4970,-0.0,0.28,-1.293,1.79,-4.69,3.76,1.3,0.18,-0.79
2022-01-25 17:38:28.5070,-0.039,0.287,-1.206,2.25,-5.12,3.22,1.36,-0.09,-0.7
2022-01-25 17:38:28.5180,-0.068,0.279,-1.102,2.63,-5.24,2.32,1.38,-0.24,-0.66
2022-01-25 17:38:28.5280,-0.098,0.263,-0.985,2.92,-5.25,1.31,1.38,-0.24,-0.66
2022-01-25 17:38:28.5370,-0.119,0.243,-0.865,3.2,-5.2,0.18,1.36,-0.19,-0.67
2022-01-25 17:38:28.5480,-0.117,0.195,-0.742,3.36,-5.07,-0.98,1.36,-0.19,-0.67
2022-01-25 17:38:28.5580,-0.088,0.108,-0.626,3.27,-4.6,-2.15,1.29,-0.03,-0.71
2022-01-25 17:38:28.5670,-0.044,0.009,-0.537,2.96,-3.79,-3.21,1.14,0.12,-0.77
2022-01-25 17:38:28.5770,0.01,-0.076,-0.489,2.54,-2.91,-3.94,0.71,0.14,-1.01
2022-01-25 17:38:28.5870,0.062,-0.128,-0.462,2.03,-2.2,-4.3,0.71,0.14,-1.01
2022-01-25 17:38:28.5980,0.107,-0.183,-0.438,1.6,-1.8,-4.54,0.5,0.0,-1.19
2022-01-25 17:38:28.6080,0.152,-0.248,-0.421,1.19,-1.17,-4.75,0.3,-0.16,-1.32
2022-01-25 17:38:28.6180,0.191,-0.248,-0.426,0.78,-0.67,-4.86,0.12,-0.39,-1.44
2022-01-25 17:38:28.6280,0.229,-0.233,-0.431,0.42,-0.75,-4.79,-0.03,-0.79,-1.62
2022-01-25 17:38:28.6380,0.259,-0.225,-0.434,0.05,-0.82,-4.78,-0.14,-0.79,-1.62
2022-01-25 17:38:28.6480,0.29,-0.205,-0.437,-0.27,-0.86,-4.77,-0.3,-0.91,-1.7
2022-01-25 17:38:28.6580,0.315,-0.179,-0.447,-0.6,-1.03,-4.76,-0.38,-0.82,-1.68
2022-01-25 17:38:28.6680,0.329,-0.164,-0.45,-0.85,-1.19,-4.69,-0.46,-0.67,-1.62
2022-01-25 17:38:28.6770,0.333,-0.151,-0.454,-0.98,-1.24,-4.72,-0.46,-0.67,-1.62
2022-01-25 17:38:28.6880,0.324,-0.134,-0.477,-1.01,-1.31,-4.66,-0.52,-0.31,-1.37
2022-01-25 17:38:28.6980,0.315,-0.13,-0.507,-0.91,-1.38,-4.43,-0.47,-0.2,-1.19
2022-01-25 17:38:28.7070,0.316,-0.139,-0.548,-0.83,-1.3,-4.13,-0.35,-0.18,-0.99
2022-01-25 17:38:28.7170,0.322,-0.15,-0.584,-0.85,-1.13,-3.75,-0.23,-0.23,-0.81
2022-01-25 17:38:28.7270,0.329,-0.156,-0.622,-0.91,-0.98,-3.4,-0.23,-0.23,-0.81
2022-01-25 17:38:28.7370,0.329,-0.175,-0.645,-0.97,-0.86,-3.06,-0.09,-0.36,-0.44
2022-01-25 17:38:28.7470,0.316,-0.206,-0.66,-0.95,-0.6,-2.88,-0.06,-0.35,-0.26
2022-01-25 17:38:28.7570,0.297,-0.232,-0.685,-0.82,-0.021644930541515353,-2.47,-0.05,-0.26,-0.09
2022-01-25 17:38:28.7680,0.288,-0.26,-0.718,-0.68,-0.03,-2.47,-0.05,-0.16,0.05
2022-01-25 17:38:28.7780,0.284,-0.308,-0.77,-0.64,0.29,-2.12,-0.05,-0.08,0.16
2022-01-25 17:38:28.7870,0.276,-0.371,-0.839,-0.6,0.83,-1.57,-0.04,-0.05,0.23
2022-01-25 17:38:28.7970,0.266,-0.43,-0.921,-0.53,1.43,-0.85,-0.04,-0.05,0.23
2022-01-25 17:38:28.8070,0.263,-0.498,-0.984,-0.45,2.03,-0.09,0.08,0.05,0.27
2022-01-25 17:38:28.8170,0.268,-0.563,-1.041,-0.45,2.7,0.52,0.12,0.14,0.26
2022-01-25 17:38:28.8270,0.274,-0.616,-1.097,-0.51,3.3,1.05,0.14,0.22,0.22
2022-01-25 17:38:28.8370,0.265,-0.648,-1.167,-0.53,3.76,1.66,0.18,0.26,0.15
2022-01-25 17:38:28.8470,0.26,-0.653,-1.242,-0.41,4.0,2.35,0.25,0.23,0.04
2022-01-25 17:38:28.8570,0.264,-0.618,-1.317,-0.38,3.95,3.12,0.3,0.17,-0.08
2022-01-25 17:38:28.8680,0.257,-0.548,-1.362,-0.39,3.47,3.83,0.29,0.17,-0.17
2022-01-25 17:38:28.8770,0.249,-0.459,-1.354,-0.27,2.7,4.15,0.29,0.33,-0.18
2022-01-25 17:38:28.8890,0.276,-0.422,-1.315,-0.22,1.84,3.98,-0.01,0.61,-0.05
2022-01-25 17:38:28.8980,0.35,-0.492,-1.272,-0.58,1.74,3.57,-0.01,0.61,-0.05
2022-01-25 17:38:28.9080,0.443,-0.562,-1.279,-1.31,2.57,3.24,-0.22,0.84,0.11
2022-01-25 17:38:28.9190,0.544,-0.576,-1.32,-2.17,3.11,3.45,-0.62,0.88,0.02
2022-01-25 17:38:28.9290,0.629,-0.585,-1.361,-3.08,3.25,3.88,-0.8,0.73,-0.14
2022-01-25 17:38:28.9380,0.675,-0.568,-1.41,-3.75,3.37,4.29,-0.8,0.73,-0.14
2022-01-25 17:38:28.9490,0.68,-0.509,-1.452,-4.01,3.17,4.78,-0.89,0.36,-0.29
2022-01-25 17:38:28.9590,0.683,-0.42,-1.489,-3.98,2.61,5.14,-0.74,0.24,-0.21
2022-01-25 17:38:28.9680,0.674,-0.28,-1.506,-3.96,1.73,5.5,-0.74,0.24,-0.21
2022-01-25 17:38:28.9780,0.641,-0.128,-1.467,-3.79,0.31,5.53,-0.21,0.49,0.41
2022-01-25 17:38:28.9890,0.598,-0.017,-1.406,-3.4,-1.03,5.05,0.03,0.58,0.84
2022-01-25 17:38:28.9990,0.535,0.08,-1.363,-2.91,-2.06,4.48,0.28,0.54,1.21
2022-01-25 17:38:29.0090,0.435,0.161,-1.315,-2.17,-3.02,4.12,0.28,0.54,1.21
2022-01-25 17:38:29.0190,0.336,0.211,-1.235,-1.12,-3.8,3.57,0.62,0.07,1.46
2022-01-25 17:38:29.0290,0.271,0.224,-1.143,-0.22,-4.31,2.77,0.62,0.07,1.46
2022-01-25 17:38:29.0390,0.221,0.186,-1.037,0.33,-4.4,1.86,0.66,-0.25,1.31
2022-01-25 17:38:29.0490,0.199,0.124,-0.909,0.72,-4.03,0.77,0.63,-0.48,1.05
2022-01-25 17:38:29.0590,0.192,0.066,-0.773,0.79,-3.5,-0.53,0.51,-0.56,0.76
2022-01-25 17:38:29.0690,0.189,0.039,-0.666,0.87,-3.05,-1.79,0.29,-0.52,0.48
2022-01-25 17:38:29.0800,0.241,0.014,-0.544,0.59,-2.85,-2.88,-0.3,-0.22,0.15
2022-01-25 17:38:29.0890,0.187,0.003,-0.521,0.25,-2.66,-3.99,-0.3,-0.22,0.15
2022-01-25 17:38:29.0990,0.164,-0.018,-0.536,0.87,-2.44,-3.93,-0.93,-0.09,0.27
2022-01-25 17:38:29.1090,0.179,-0.016,-0.496,0.84,-2.3,-4.01,-1.15,-0.14,0.44
2022-01-25 17:38:29.1200,0.11,-0.053,-0.547,0.88,-2.13,-4.3,-1.15,-0.14,0.44
2022-01-25 17:38:29.1290,0.083,-0.066,-0.587,1.54,-1.69,-3.67,-1.25,-0.24,0.58
2022-01-25 17:38:29.1390,0.06,-0.08,-0.591,1.66,-1.5,-3.52,-1.08,-0.4,0.73
2022-01-25 17:38:29.1490,0.032,-0.112,-0.636,1.91,-1.22,-3.38,-1.08,-0.4,0.73
2022-01-25 17:38:29.1590,0.023,-0.142,-0.643,2.08,-0.8,-3.03,-0.74,-0.36,0.76
2022-01-25 17:38:29.1690,0.021,-0.158,-0.646,2.09,-0.49,-3.04,-0.74,-0.36,0.76
2022-01-25 17:38:29.1790,0.027,-0.176,-0.638,2.05,-0.28,-3.03,-0.48,-0.1,0.7
2022-01-25 17:38:29.1890,0.041,-0.188,-0.628,1.93,-0.07,-3.16,-0.4,0.0,0.65
2022-01-25 17:38:29.2000,0.054,-0.199,-0.632,1.77,0.08,-3.23,-0.4,0.0,0.65
2022-01-25 17:38:29.2090,0.067,-0.204,-0.638,1.64,0.2,-3.19,-0.25,0.01,0.57
2022-01-25 17:38:29.2200,0.081,-0.208,-0.655,1.49,0.25,-3.12,-0.16,-0.08,0.55
2022-01-25 17:38:29.2290,0.086,-0.204,-0.675,1.36,0.29,-2.94,-0.16,-0.08,0.55
2022-01-25 17:38:29.2390,0.076,-0.187,-0.695,1.32,0.23,-2.75,0.02,-0.16,0.57
2022-01-25 17:38:29.2490,0.066,-0.164,-0.689,1.42,0.02,-2.58,0.02,-0.16,0.57
2022-01-25 17:38:29.2600,0.033,-0.183,-0.703,1.49,-0.13,-2.71,0.19,-0.2,0.65
2022-01-25 17:38:29.2690,0.023,-0.174,-0.729,1.83,0.01,-2.38,0.54,-0.08,0.76
2022-01-25 17:38:29.2790,0.025,-0.201,-0.68,1.79,-0.12,-2.39,0.54,-0.08,0.76
2022-01-25 17:38:29.2890,0.024,-0.227,-0.677,1.76,0.28,-2.77,0.78,0.29,0.73
2022-01-25 17:38:29.3000,0.034,-0.252,-0.668,1.76,0.28,-2.77,0.79,0.39,0.65
2022-01-25 17:38:29.3100,0.069,-0.292,-0.686,1.65,0.49,-2.81,0.79,0.39,0.65
2022-01-25 17:38:29.3200,0.129,-0.331,-0.72,1.23,0.8,-2.55,0.76,0.32,0.54
2022-01-25 17:38:29.3300,0.179,-0.359,-0.764,0.67,1.08,-2.15,0.63,-0.25,0.31
2022-01-25 17:38:29.3390,0.224,-0.386,-0.797,0.19,1.27,-1.73,0.49,-0.62,0.22
2022-01-25 17:38:29.3500,0.25,-0.411,-0.847,-0.25,1.48,-1.39,0.49,-0.62,0.22
2022-01-25 17:38:29.3600,0.256,-0.431,-0.907,-0.52,1.66,-0.85,0.31,-0.91,0.18
2022-01-25 17:38:29.3700,0.247,-0.45,-0.955,-0.63,1.82,-0.29,0.11,-1.03,0.17
2022-01-25 17:38:29.3800,0.237,-0.482,-0.989,-0.61,2.01,0.12,-0.26,-0.58,0.28
2022-01-25 17:38:29.3900,0.256,-0.534,-1.03,-0.65,2.38,0.43,-0.26,-0.58,0.28
2022-01-25 17:38:29.4000,0.297,-0.594,-1.103,-0.98,2.96,0.88,-0.44,-0.25,0.33
2022-01-25 17:38:29.4100,0.342,-0.652,-1.196,-1.43,3.58,1.66,-0.58,0.0,0.35
2022-01-25 17:38:29.4200,0.373,-0.711,-1.296,-1.86,4.2,2.57,-0.65,0.16,0.37
2022-01-25 17:38:29.4300,0.364,-0.741,-1.406,-2.08,4.81,3.57,-0.61,-0.05,0.2988620698451996
2022-01-25 17:38:29.4400,0.308,-0.681,-1.539,-1.86,4.99,4.66,-0.56,-0.43,0.09
2022-01-25 17:38:29.4510,0.252,-0.581,-1.662,-0.87,3.44,7.01,-0.65,-0.64,-0.11
2022-01-25 17:38:29.4600,0.246,-0.569,-1.692,-0.87,3.44,7.01,-0.67,-0.58,-0.2
2022-01-25 17:38:29.4700,0.246,-0.571,-1.691,-0.95,3.58,7.11,-0.51,-0.3,-0.26
2022-01-25 17:38:29.4800,0.234,-0.464,-1.694,-0.95,3.45,7.1,-0.18,0.08,-0.36
2022-01-25 17:38:29.4910,0.237,-0.294,-1.685,-0.86,2.21,7.08,-0.18,0.08,-0.36
2022-01-25 17:38:29.5000,0.252,-0.142,-1.664,-0.92,0.54,6.99,0.57,0.56,-0.41
2022-01-25 17:38:29.5100,0.249,-0.006,-1.616,-1.0,-0.88,6.73,0.57,0.56,-0.41
2022-01-25 17:38:29.5200,0.227,0.126,-1.532,-0.85,-2.28,6.19,0.8,0.55,-0.32
2022-01-25 17:38:29.5310,0.189,0.211,-1.439,-0.55,-3.56,5.33,0.94,0.25,-0.04
2022-01-25 17:38:29.5400,0.132,0.263,-1.347,-0.08,-4.36,4.45,0.95,0.08,0.07
2022-01-25 17:38:29.5500,0.06,0.288,-1.264,0.55,-4.91,3.61,0.95,0.08,0.07
2022-01-25 17:38:29.5600,-0.001,0.278,-1.165,1.25,-5.15,2.79,0.94,-0.02,0.11
2022-01-25 17:38:29.5710,-0.049,0.255,-1.064,1.81,-5.09,1.82,0.94,-0.02,0.11
2022-01-25 17:38:29.5810,-0.089,0.225,-0.952,2.26,-4.94,0.83,0.9,0.05,0.06
2022-01-25 17:38:29.5910,-0.113,0.183,-0.844,2.63,-4.71,-0.25,0.81,0.18,-0.0
2022-01-25 17:38:29.6010,-0.115,0.11,-0.744,2.83,-4.3,-1.27,0.66,0.32,-0.05
2022-01-25 17:38:29.6110,-0.097,0.013,-0.661,2.82,-3.57,-2.2,0.46,0.45,-0.12127849459648132
2022-01-25 17:38:29.6210,-0.066,-0.088,-0.609,2.65,-2.62,-2.92,0.04,0.58,-0.17
2022-01-25 17:38:29.6310,-0.029,-0.179,-0.581,2.38,-1.67,-3.35,-0.11,0.58,-0.26
2022-01-25 17:38:29.6410,0.007,-0.254,-0.571,2.08,-0.8,-3.57,-0.19,0.56,-0.37
2022-01-25 17:38:29.6510,0.046,-0.307,-0.57,1.78,-0.11,-3.63,-0.19,0.56,-0.37
2022-01-25 17:38:29.6610,0.084,-0.338,-0.575,1.46,0.39,-3.61,-0.17,0.45,-0.62
2022-01-25 17:38:29.6710,0.119,-0.355,-0.578,1.14,0.68,-3.56,-0.11,0.4,-0.72
2022-01-25 17:38:29.6810,0.146,-0.363,-0.582,0.88,0.86,-3.53,-0.11,0.4,-0.72
2022-01-25 17:38:29.6910,0.168,-0.356,-0.585,0.68,0.92,-3.48,-0.03,0.36,-0.83
2022-01-25 17:38:29.7010,0.186,-0.34,-0.59,0.53,0.86,-3.45,0.15,0.23,-1.0
2022-01-25 17:38:29.7110,0.194,-0.316,-0.592,0.43,0.69,-3.38,0.15,0.23,-1.0
2022-01-25 17:38:29.7210,0.199,-0.293,-0.586,0.41,0.45,-3.39,0.22,0.15,-1.02
2022-01-25 17:38:29.7310,0.199,-0.27,-0.586,0.41,0.25,-3.43,0.29,0.05,-0.98
2022-01-25 17:38:29.7410,0.195,-0.24,-0.584,0.46,-0.01,-3.41,0.37,-0.06,-0.9
2022-01-25 17:38:29.7510,0.194,-0.22,-0.573,0.5,-0.31,-3.45,0.47,-0.13,-0.78
2022-01-25 17:38:29.7610,0.186,-0.206,-0.56,0.52,-0.5,-3.56,0.59,-0.15,-0.62
2022-01-25 17:38:29.7710,0.17,-0.197,-0.552,0.64,-0.66,-3.66,0.87,-0.08,-0.32
2022-01-25 17:38:29.7810,0.162,-0.191,-0.557,0.78,-0.8,-3.7,0.87,-0.08,-0.32
2022-01-25 17:38:29.7910,0.161,-0.198,-0.563,0.85,-0.92,-3.61,0.95,-0.09,-0.21
2022-01-25 17:38:29.8010,0.165,-0.227,-0.566,0.83,-0.87,-3.54,0.94,-0.17,-0.02
2022-01-25 17:38:29.8110,0.168,-0.265,-0.57,0.78,-0.63,-3.49,0.94,-0.17,-0.02
2022-01-25 17:38:29.8210,0.172,-0.299,-0.593,0.74,-0.35,-3.4,0.8,-0.38,0.11
2022-01-25 17:38:29.8310,0.181,-0.349,-0.635,0.66,-0.09,-3.08,0.8,-0.38,0.11
2022-01-25 17:38:29.8410,0.194,-0.415,-0.687,0.53,0.4,-2.65,0.69,-0.54,0.14
2022-01-25 17:38:29.8510,0.212,-0.478,-0.748,0.09,1.53,-1.5,0.46,-0.8,0.19
2022-01-25 17:38:29.8620,0.222,-0.528,-0.807,0.09,1.53,-1.5,0.38,-0.86,0.22
2022-01-25 17:38:29.8720,0.227,-0.562,-0.88,-0.18,2.2,-0.16,0.38,-0.86,0.22
2022-01-25 17:38:29.8810,0.217,-0.584,-0.966,-0.18,2.2,-0.16,0.36,-0.88,0.23
2022-01-25 17:38:29.8910,0.19,-0.584,-1.075,-0.11,2.33,0.74,0.39,-0.88,0.16
2022-01-25 17:38:29.9010,0.173,-0.56,-1.162,0.07,2.24,1.8,0.47,-0.82,-0.02
2022-01-25 17:38:29.9120,0.184,-0.53,-1.204,0.1,1.92,2.54,0.49,-0.67,-0.28
2022-01-25 17:38:29.9210,0.222,-0.506,-1.22,-0.13,1.62,2.88,0.39,-0.42,-0.53
2022-01-25 17:38:29.9310,0.271,-0.495,-1.207,-0.55,1.37,2.97,0.17,0.01,-0.67
2022-01-25 17:38:29.9420,0.325,-0.518,-1.182,-1.48,1.7,2.57,-0.36,1.15,-0.22
2022-01-25 17:38:29.9520,0.386,-0.608,-1.172,-1.48,1.7,2.57,-0.5,1.48,0.3
2022-01-25 17:38:29.9620,0.463,-0.736,-1.216,-2.0,2.79,2.58,-0.55,1.41,0.73
2022-01-25 17:38:29.9720,0.54,-0.819,-1.309,-2.66,4.04,3.18,-0.57,0.9,0.92
2022-01-25 17:38:29.9820,0.571,-0.847,-1.434,-3.27,4.72,4.18,-0.5,0.17,0.85
2022-01-25 17:38:29.9920,0.522,-0.823,-1.557,-3.32,4.93,5.45,-0.32,-0.46,0.61
2022-01-25 17:38:30.0020,0.451,-0.747,-1.619,-2.75,4.57,6.54,-0.07,-0.8,0.35
2022-01-25 17:38:30.0120,0.391,-0.652,-1.609,-2.13,3.77,6.94,0.19,-0.81,0.15
2022-01-25 17:38:30.0220,0.353,-0.542,-1.547,-1.68,2.81,6.67,0.46,-0.6,0.07
2022-01-25 17:38:30.0320,0.315,-0.402,-1.463,-1.41,1.64,5.98,0.46,-0.6,0.07
2022-01-25 17:38:30.0420,0.273,-0.257,-1.361,-1.06,0.17,5.11,0.85,-0.02,0.25
2022-01-25 17:38:30.0520,0.243,-0.146,-1.257,-0.7,-1.26,4.11,0.92,0.09,0.43
2022-01-25 17:38:30.0620,0.229,-0.062,-1.174,-0.46,-2.35,3.15,0.9,-0.01,0.56
2022-01-25 17:38:30.0720,0.213,0.005,-1.107,-0.34,-3.21,2.43,0.84,-0.25,0.59
2022-01-25 17:38:30.0820,0.192,0.055,-1.033,-0.04,-4.42,1.06,0.75,-0.49,0.54
2022-01-25 17:38:30.0930,0.184,0.062,-0.939,-0.04,-4.42,1.06,0.62,-0.63,0.45
2022-01-25 17:38:30.1020,0.201,0.028,-0.835,-0.1,-4.45,0.11,0.47,-0.65,0.35
2022-01-25 17:38:30.1120,0.226,-0.022,-0.735,-0.37,-4.1,-0.9,0.47,-0.65,0.35
2022-01-25 17:38:30.1220,0.246,-0.064,-0.654,-0.69,-3.66,-1.84,0.27,-0.6,0.25
2022-01-25 17:38:30.1330,0.254,-0.095,-0.595,-0.91,-3.31,-2.57,-0.27,-0.44,0.07
2022-01-25 17:38:30.1430,0.259,-0.13,-0.56,-1.03,-3.0,-3.1,-0.27,-0.44,0.07
2022-01-25 17:38:30.1530,0.259,-0.166,-0.549,-1.11,-2.62,-3.41,-0.78,-0.39,0.04
2022-01-25 17:38:30.1620,0.251,-0.192,-0.557,-1.12,-2.23,-3.5,-0.93,-0.43,0.06
2022-01-25 17:38:30.1720,0.235,-0.205,-0.581,-1.06,-1.94,-3.4,-1.0,-0.51,0.1
2022-01-25 17:38:30.1830,0.208,-0.214,-0.603,-0.93,-1.74,-3.2,-1.01,-0.57,0.18
2022-01-25 17:38:30.1920,0.176,-0.223,-0.621,-0.69,-1.56,-3.04,-1.01,-0.57,0.18
2022-01-25 17:38:30.2030,0.145,-0.231,-0.634,-0.21,-1.23,-2.86,-0.82,-0.61,0.39
2022-01-25 17:38:30.2120,0.121,-0.238,-0.634,-0.05,-1.07,-2.93,-0.82,-0.5794135928153992,0.52
2022-01-25 17:38:30.2220,0.1,-0.251,-0.625,-0.05,-1.07,-2.93,-0.65,-0.51,0.64
2022-01-25 17:38:30.2330,0.078,-0.258,-0.608,0.09,-0.9,-3.05,-0.3,-0.4,0.74
2022-01-25 17:38:30.2420,0.06,-0.259,-0.581,0.23,-0.81,-3.28,-0.19,-0.29,0.8
2022-01-25 17:38:30.2530,0.049,-0.26,-0.56,0.32,-0.79,-3.55,-0.15,-0.18,0.81
2022-01-25 17:38:30.2630,0.036,-0.265,-0.544,0.38,-0.76,-3.75,-0.15,-0.1,0.76
2022-01-25 17:38:30.2730,0.024,-0.27,-0.542,0.46,-0.69,-3.89,-0.17,-0.06,0.67
2022-01-25 17:38:30.2830,0.009,-0.277,-0.548,0.55,-0.63,-3.88,-0.17,-0.04,0.55
2022-01-25 17:38:30.2930,-0.008,-0.286,-0.55,0.68,-0.55,-3.84,-0.15,-0.03,0.4
2022-01-25 17:38:30.3030,-0.016,-0.292,-0.557,0.82,-0.46,-3.81,-0.13,-0.03,0.23
2022-01-25 17:38:30.3130,-0.01,-0.297,-0.56,0.84,-0.38,-3.76,-0.12,-0.02,0.05
2022-01-25 17:38:30.3230,-0.0,-0.306,-0.565,0.75,-0.32,-3.73,-0.12,-0.02,0.05
2022-01-25 17:38:30.3330,0.01,-0.32,-0.571,0.66,-0.2,-3.69,-0.14,-0.01,-0.21
2022-01-25 17:38:30.3430,0.03,-0.335,-0.583,0.55,-0.05,-3.63,-0.19,-0.01,-0.21
2022-01-25 17:38:30.3530,0.07,-0.367,-0.61,0.31,0.15,-3.49,-0.26,-0.04,-0.22
2022-01-25 17:38:30.3630,0.113,-0.407,-0.665,-0.1,0.53,-3.17,-0.27,-0.11,-0.15
2022-01-25 17:38:30.3720,0.141,-0.442,-0.73,-0.51,0.94,-2.59,-0.23,-0.18,-0.08
2022-01-25 17:38:30.3830,0.15,-0.468,-0.786,-0.73,1.29,-1.98,-0.23,-0.18,-0.08
2022-01-25 17:38:30.3930,0.147,-0.477,-0.861,-0.81,1.54,-1.42,-0.2,-0.41,-0.1
2022-01-25 17:38:30.4030,0.132,-0.467,-0.957,-0.77,1.6,-0.63,-0.2,-0.41,-0.1
2022-01-25 17:38:30.4130,0.117,-0.456,-1.06,-0.64,1.49,0.34,-0.32,-0.34,-0.25
2022-01-25 17:38:30.4230,0.131,-0.473,-1.137,-0.57,1.45,1.3,-0.32,-0.34,-0.25
2022-01-25 17:38:30.4330,0.167,-0.501,-1.213,-0.82,1.73,1.99,-0.38,-0.13,-0.3
2022-01-25 17:38:30.4430,0.186,-0.502,-1.276,-1.16,1.99,2.74,-0.48,0.52,-0.2
2022-01-25 17:38:30.4530,0.188,-0.488,-1.31,-1.26,1.98,3.25,-0.48,0.52,-0.2
2022-01-25 17:38:30.4630,0.214,-0.51,-1.336,-1.23,1.93,3.55,-0.6,1.22,0.33
2022-01-25 17:38:30.4730,0.281,-0.604,-1.38,-1.51,2.37,3.8,-0.6,1.22,0.33
2022-01-25 17:38:30.4830,0.341,-0.718,-1.467,-2.11,3.47,4.33,-0.34,0.87,0.85
2022-01-25 17:38:30.4930,0.335,-0.763,-1.594,-2.47,4.54,5.28,-0.34,0.87,0.85
2022-01-25 17:38:30.5030,0.281,-0.754,-1.713,-2.19,4.78,6.58,-0.11,-0.32,0.86
2022-01-25 17:38:30.5130,0.227,-0.805,-1.749,-1.65,4.78,7.58,-0.0,-0.61,0.74
2022-01-25 17:38:30.5230,0.166,-0.83,-1.759,-1.18,5.38,7.76,0.19,-0.66,0.44
2022-01-25 17:38:30.5330,0.09,-0.721,-1.778,-0.61,5.31,7.92,0.19,-0.66,0.44
2022-01-25 17:38:30.5430,0.026,-0.559,-1.754,0.07,3.99,8.03,0.78,-0.22,-0.53
2022-01-25 17:38:30.5530,-0.0,-0.402,-1.707,0.73,0.78,7.24,0.78,-0.22,-0.53
2022-01-25 17:38:30.5640,0.008,-0.283,-1.643,0.73,0.78,7.24,1.24,0.23,-1.02
2022-01-25 17:38:30.5730,0.011,-0.187,-1.555,0.65,-0.36,6.58,1.3924750089645386,0.27,-0.98
2022-01-25 17:38:30.5840,-0.01,-0.073,-1.46,0.73,-1.46,5.73,1.53,0.2,-0.81
2022-01-25 17:38:30.5930,-0.041,0.017,-1.35,1.39,-3.59,3.75,1.61,0.02,-0.63
2022-01-25 17:38:30.6040,-0.072,0.066,-1.239,1.39,-3.59,3.75,1.61,0.02,-0.63
2022-01-25 17:38:30.6140,-0.101,0.079,-1.133,1.7,-4.13,2.75,1.61,-0.19,-0.47
2022-01-25 17:38:30.6240,-0.13,0.072,-1.015,1.98,-4.32,1.73,1.55,-0.32,-0.36
2022-01-25 17:38:30.6340,-0.166,0.061,-0.898,2.26,-4.37,0.61,1.45,-0.35,-0.3
2022-01-25 17:38:30.6440,-0.2,0.052,-0.783,2.6,-4.39,-0.47,1.35,-0.27,-0.27
2022-01-25 17:38:30.6540,-0.224,0.036,-0.673,2.91,-4.41,-1.55,1.11,-0.01,-0.2
2022-01-25 17:38:30.6640,-0.221,0.003,-0.566,3.09,-4.32,-2.57,0.93,0.09,-0.17
2022-01-25 17:38:30.6740,-0.189,-0.051,-0.478,2.99,-4.05,-3.54,0.69,0.18,-0.15
2022-01-25 17:38:30.6840,-0.135,-0.119,-0.403,2.63,-3.54,-4.32,0.41,0.27,-0.19
2022-01-25 17:38:30.6940,-0.073,-0.18,-0.341,1.52,-2.4,-5.54,0.41,0.27,-0.19
2022-01-25 17:38:30.7050,-0.016,-0.223,-0.305,1.02,-2.04,-5.84,0.12,0.33,-0.29
2022-01-25 17:38:30.7130,0.031,-0.247,-0.292,0.64,-1.8,-5.91,-0.14,0.33,-0.64
2022-01-25 17:38:30.7250,0.069,-0.265,-0.291,0.64,-1.8,-5.91,-0.52,0.22,-0.86
2022-01-25 17:38:30.7330,0.104,-0.28,-0.3,0.33,-1.59,-5.92,-0.63,0.1,-1.05
2022-01-25 17:38:30.7440,0.133,-0.289,-0.322,0.04,-1.4,-5.83,-0.68,-0.01,-1.2
2022-01-25 17:38:30.7540,0.15,-0.294,-0.347,-0.26,-1.14,-5.39,-0.68,-0.01,-1.2
2022-01-25 17:38:30.7640,0.164,-0.29,-0.377,-0.26,-1.14,-5.39,-0.69,-0.1,-1.31
2022-01-25 17:38:30.7740,0.172,-0.275,-0.407,-0.36,-1.23,-4.85,-0.66,-0.19,-1.37
2022-01-25 17:38:30.7830,0.165,-0.248,-0.439,-0.36,-1.23,-4.85,-0.51,-0.28,-1.36
2022-01-25 17:38:30.7940,0.152,-0.217,-0.458,-0.24,-1.45,-4.58,-0.51,-0.28,-1.36
2022-01-25 17:38:30.8040,0.134,-0.2,-0.492,-0.08,-1.65,-4.42,-0.4,-0.25,-1.29
2022-01-25 17:38:30.8140,0.106,-0.198,-0.528,0.15,-1.74,-4.07,-0.25,-0.17,-1.18
2022-01-25 17:38:30.8240,0.076,-0.209,-0.568,0.47,-1.68,-3.73,-0.03,-0.03,-1.08
2022-01-25 17:38:30.8340,0.057,-0.224,-0.605,0.79,-1.55,-3.34,0.21,0.12,-0.93
2022-01-25 17:38:30.8440,0.058,-0.266,-0.624,0.98,-1.36,-2.99,0.44,0.26,-0.93
2022-01-25 17:38:30.8540,0.083,-0.33,-0.614,0.97,-0.9,-2.84,0.72,0.62,-0.68
2022-01-25 17:38:30.8640,0.133,-0.403,-0.587,0.73,-0.3,-2.99,0.72,0.62,-0.68
2022-01-25 17:38:30.8740,0.195,-0.495,-0.574,0.28,0.42,-3.2,0.74,0.77,-0.46
2022-01-25 17:38:30.8840,0.252,-0.576,-0.597,-0.25,1.28,-3.23,0.71,0.76,-0.22
2022-01-25 17:38:30.8940,0.292,-0.633,-0.643,-0.7,1.94,-2.85,0.61,0.57,-0.01
2022-01-25 17:38:30.9040,0.308,-0.689,-0.705,-0.99,2.43,-2.37,0.3,-0.24,0.34
2022-01-25 17:38:30.9150,0.305,-0.744,-0.802,-1.08,2.95,-1.63,0.3,-0.24,0.34
2022-01-25 17:38:30.9240,0.302,-0.786,-0.881,-1.08,3.43,-0.68,0.17,-0.68,0.46
2022-01-25 17:38:30.9340,0.31,-0.807,-0.931,-1.15,3.78,0.01,0.03,-0.93,0.5
2022-01-25 17:38:30.9450,0.323,-0.81,-0.975,-1.36,3.93,0.45,-0.17,-0.91,0.45
2022-01-25 17:38:30.9550,0.328,-0.791,-1.013,-1.56,3.91,0.85,-0.46,-0.61,0.34
2022-01-25 17:38:30.9650,0.349,-0.767,-1.062,-1.69,3.74,1.18,-1.12,0.54,0.15
2022-01-25 17:38:30.9750,0.37,-0.733,-1.142,-1.93,3.57,1.72,-1.12,0.54,0.15
2022-01-25 17:38:30.9850,0.382,-0.687,-1.214,-2.06,3.3,2.49,-1.34,1.21,0.12
2022-01-25 17:38:30.9940,0.415,-0.65,-1.266,-2.08,2.96,3.12,-1.46,1.8,0.17
2022-01-25 17:38:31.0050,0.496,-0.684,-1.275,-2.35,2.83,3.52,-1.49,2.26,0.4
2022-01-25 17:38:31.0150,0.61,-0.779,-1.292,-3.07,3.53,3.55,-1.36,2.07,1.19
2022-01-25 17:38:31.0250,0.722,-0.821,-1.345,-4.02,4.52,3.81,-1.36,1.32,1.45
2022-01-25 17:38:31.0350,0.806,-0.799,-1.414,-5.56,4.61,5.16,-1.4,0.29,1.53
2022-01-25 17:38:31.0440,0.791,-0.732,-1.56,-5.56,4.61,5.16,-1.4,0.29,1.53
2022-01-25 17:38:31.0540,0.641,-0.608,-1.67,-3.51,2.65,7.44,-0.89,-0.87,1.14
2022-01-25 17:38:31.0640,0.459,-0.457,-1.702,-1.8762507578730585,1.2188380694389345,7.58,-0.3867325186729431,-0.815532386302948,0.9
2022-01-25 17:38:31.0740,0.307,-0.299,-1.68,-0.58,-0.35,7.22,-0.39,-0.82,0.9
2022-01-25 17:38:31.0840,0.205,-0.149,-1.619,-0.58,-0.35,7.22,0.48,0.02,0.92
2022-01-25 17:38:31.0940,0.171,-0.067,-1.536,0.35,-2.42,5.74,0.72,0.4,1.17
2022-01-25 17:38:31.1040,0.182,-0.038,-1.458,0.35,-2.42,5.74,0.72,0.4,1.17
2022-01-25 17:38:31.1140,0.195,-0.006,-1.384,0.2,-2.76,5.03,0.85,0.57,1.45
2022-01-25 17:38:31.1240,0.185,0.044,-1.3,0.13,-3.24,4.33,0.91,0.54,1.59
2022-01-25 17:38:31.1340,0.17,0.072,-1.197,0.26,-3.83,3.48,0.91,0.39,1.54
2022-01-25 17:38:31.1440,0.168,0.061,-1.101,0.37,-4.11,2.51,0.69,-0.07,1.07
2022-01-25 17:38:31.1540,0.169,0.02,-1.002,0.33,-4.02,1.61,0.69,-0.07,1.07
2022-01-25 17:38:31.1650,0.165,-0.04,-0.895,0.28,-3.65,0.64,0.51,-0.23,0.82
2022-01-25 17:38:31.1750,0.158,-0.107,-0.797,0.29,-3.07,-0.4,0.32,-0.29,0.63
2022-01-25 17:38:31.1850,0.146,-0.152,-0.721,0.32,-2.48,-1.3,-0.01,-0.2,0.35
2022-01-25 17:38:31.1950,0.131,-0.172,-0.662,0.41,-2.14,-2.01,-0.14,-0.13,0.2
2022-01-25 17:38:31.2050,0.116,-0.184,-0.622,0.53,-1.97,-2.54,-0.14,-0.13,0.2
2022-01-25 17:38:31.2150,0.097,-0.194,-0.592,0.66,-1.85,-2.91,-0.27,-0.07,0.06
2022-01-25 17:38:31.2250,0.073,-0.206,-0.573,0.86,-1.72,-3.19,-0.38,-0.04,-0.08
2022-01-25 17:38:31.2350,0.06,-0.213,-0.557,1.08,-1.57,-3.38,-0.46,-0.01,-0.2
2022-01-25 17:38:31.2460,0.053,-0.222,-0.556,1.19,-1.47,-3.53,-0.48,-0.04,-0.3
2022-01-25 17:38:31.2560,0.048,-0.238,-0.562,1.26,-1.3,-3.52,-0.4,-0.12,-0.36
2022-01-25 17:38:31.2650,0.05,-0.252,-0.559,1.3,-1.11,-3.49,-0.25,-0.43,-0.32
2022-01-25 17:38:31.2750,0.066,-0.27,-0.543,1.23,-0.94,-3.57,0.07,-0.58,-0.24
2022-01-25 17:38:31.2860,0.086,-0.291,-0.519,1.03,-0.73,-3.76,0.07,-0.58,-0.24
2022-01-25 17:38:31.2960,0.102,-0.307,-0.49,0.78,-0.54,-4.02,0.2,-0.74,-0.0
2022-01-25 17:38:31.3050,0.104,-0.303,-0.476,0.59,-0.43,-4.3,0.2,-0.74,-0.0
2022-01-25 17:38:31.3160,0.088,-0.288,-0.472,0.56,-0.53,-4.39,0.21,-0.75,0.07
2022-01-25 17:38:31.3260,0.071,-0.279,-0.475,0.66,-0.7,-4.43,0.21,-0.73,0.11
2022-01-25 17:38:31.3350,0.06,-0.281,-0.483,0.74,-0.77,-4.38,0.16,-0.61,0.1
2022-01-25 17:38:31.3460,0.047,-0.289,-0.496,0.78,-0.75,-4.3,0.16,-0.61,0.1
2022-01-25 17:38:31.3560,0.033,-0.298,-0.514,0.86,-0.68,-4.17,0.12,-0.55,0.03
2022-01-25 17:38:31.3660,0.018,-0.304,-0.549,0.94,-0.6,-3.95,0.09,-0.53,-0.07
2022-01-25 17:38:31.3740,0.012,-0.311,-0.581,0.94,-0.6,-3.95,0.1,-0.52,-0.19
2022-01-25 17:38:31.3800,0.026,-0.328,-0.608,1.0,-0.56,-3.61,0.12,-0.51,-0.29
2022-01-25 17:38:31.3900,0.052,-0.344,-0.635,0.98,-0.48,-3.31,0.14,-0.47,-0.33
2022-01-25 17:38:31.4000,0.069,-0.359,-0.645,0.76,-0.31,-3.04,0.16,-0.38,-0.3
2022-01-25 17:38:31.4100,0.087,-0.381,-0.662,0.51,-0.18,-2.8,0.19,-0.24,-0.24
2022-01-25 17:38:31.4200,0.111,-0.405,-0.693,0.33,-0.02,-2.73,0.2,-0.13,-0.19
2022-01-25 17:38:31.4300,0.131,-0.432,-0.733,0.14,0.18,-2.5,0.2,-0.08,-0.19
2022-01-25 17:38:31.4400,0.135,-0.456,-0.797,-0.11,0.42,-2.19,0.18,-0.12,-0.23
2022-01-25 17:38:31.4510,0.134,-0.48,-0.871,-0.27,0.67,-1.72,0.18,-0.24,-0.3
2022-01-25 17:38:31.4600,0.148,-0.513,-0.949,-0.29,0.87,-1.07,0.21,-0.42,-0.4
2022-01-25 17:38:31.4700,0.164,-0.546,-1.012,-0.34,1.12,-0.32,0.27,-0.56,-0.49
2022-01-25 17:38:31.4800,0.183,-0.573,-1.048,-0.52,1.43,0.45,0.32,-0.61,-0.54
2022-01-25 17:38:31.4900,0.195,-0.583,-1.064,-0.72,1.73,0.98,0.33,-0.49,-0.53
2022-01-25 17:38:31.5000,0.219,-0.604,-1.055,-0.91,1.93,1.32,0.23,-0.21,-0.5
2022-01-25 17:38:31.5100,0.263,-0.663,-1.058,-1.04,2.01,1.4,-0.02,0.15,-0.46
2022-01-25 17:38:31.5200,0.305,-0.761,-1.091,-1.3,2.31,1.3,-0.32,0.46,-0.42
2022-01-25 17:38:31.5300,0.334,-0.857,-1.191,-1.69,3.03,1.39,-0.54,0.49,-0.34
2022-01-25 17:38:31.5410,0.332,-0.869,-1.372,-2.02,4.1,1.81,-0.66,0.01,-0.3
2022-01-25 17:38:31.5510,0.314,-0.827,-1.552,-2.24,4.97,2.98,-0.72,-0.84,-0.3
2022-01-25 17:38:31.5610,0.273,-0.814,-1.648,-2.24,4.92,4.84,-0.73,-1.64,-0.3
2022-01-25 17:38:31.5710,0.187,-0.732,-1.727,-2.18,4.63,6.36,-0.65,-2.22,-0.3
2022-01-25 17:38:31.5810,0.068,-0.542,-1.771,-1.87,4.54,7.16,-0.46,-2.43,-0.39
2022-01-25 17:38:31.5910,-0.037,-0.363,-1.757,-1.12,3.45,7.87,-0.19,-2.22,-0.56
2022-01-25 17:38:31.6010,-0.108,-0.24,-1.699,-0.13,1.53,8.15,0.12,-1.69,-0.71
2022-01-25 17:38:31.6110,-0.154,-0.142,-1.642,0.7,-0.11,7.88,0.44,-1.1,-0.78
2022-01-25 17:38:31.6210,-0.182,-0.073,-1.572,1.25,-1.25,7.3,0.74,-0.65,-0.7
2022-01-25 17:38:31.6310,-0.206,-0.041,-1.483,1.62,-2.26,6.76,1.06,-0.43,-0.48
2022-01-25 17:38:31.6410,-0.243,0.005,-1.382,1.84,-2.9,6.06,1.38,-0.47,-0.21
2022-01-25 17:38:31.6510,-0.3,0.053,-1.273,2.06,-3.34,5.2,1.6,-0.73,0.05
2022-01-25 17:38:31.6610,-0.34,0.074,-1.151,2.4,-3.98,4.25,1.65,-1.06,0.23
2022-01-25 17:38:31.6710,-0.365,0.062,-1.011,2.84,-4.55,3.22,1.54,-1.25,0.31
2022-01-25 17:38:31.6810,-0.39,0.043,-0.868,3.05,-4.8,2.04,1.33,-1.23,0.29
2022-01-25 17:38:31.6910,-0.419,0.032,-0.757,3.18,-4.75,0.7,1.06,-1.07,0.2
2022-01-25 17:38:31.7010,-0.431,0.015,-0.645,3.31,-4.68,-0.63,0.8,-0.77,0.08
2022-01-25 17:38:31.7110,-0.414,-0.03,-0.554,3.54,-4.64,-1.61,0.55,-0.41,-0.05
2022-01-25 17:38:31.7210,-0.365,-0.1,-0.498,3.55,-4.46,-2.7,0.32,-0.09,-0.19
2022-01-25 17:38:31.7310,-0.294,-0.178,-0.455,3.31,-3.97,-3.46,0.07,0.17,-0.35
2022-01-25 17:38:31.7410,-0.218,-0.248,-0.429,2.8,-3.25,-3.98,-0.18,0.35,-0.53
2022-01-25 17:38:31.7510,-0.145,-0.305,-0.421,2.13,-2.47,-4.38,-0.43,0.45,-0.73
2022-01-25 17:38:31.7610,-0.076,-0.351,-0.424,1.46,-1.79,-4.61,-0.64,0.44,-0.94
2022-01-25 17:38:31.7710,-0.017,-0.377,-0.442,0.83,-1.19,-4.68,-0.79,0.33,-1.14
2022-01-25 17:38:31.7810,0.031,-0.376,-0.468,0.24,-0.71,-4.65,-0.87,0.1,-1.32
2022-01-25 17:38:31.7910,0.074,-0.363,-0.497,-0.23,-0.45,-4.49,-0.89,-0.18,-1.48
2022-01-25 17:38:31.8010,0.112,-0.35,-0.514,-0.65,-0.43,-4.26,-0.88,-0.44,-1.6
2022-01-25 17:38:31.8110,0.142,-0.332,-0.516,-1.04,-0.49,-4.03,-0.85,-0.59,-1.66
2022-01-25 17:38:31.8210,0.161,-0.307,-0.517,-1.38,-0.54,-3.93,-0.83,-0.62,-1.68
2022-01-25 17:38:31.8310,0.162,-0.278,-0.525,-1.64,-0.66,-3.96,-0.81,-0.52,-1.62
2022-01-25 17:38:31.8420,0.16,-0.25,-0.53,-1.77,-0.86,-3.96,-0.78,-0.31,-1.51
2022-01-25 17:38:31.8520,0.163,-0.233,-0.553,-1.72,-1.07,-3.92,-0.72,-0.09,-1.37
2022-01-25 17:38:31.8620,0.168,-0.232,-0.57,-1.67,-1.26,-3.87,-0.62,0.14,-1.18
2022-01-25 17:38:31.8720,0.178,-0.248,-0.582,-1.65,-1.34,-3.65,-0.48,0.34,-0.98
2022-01-25 17:38:31.8820,0.186,-0.263,-0.608,-1.65,-1.25,-3.54,-0.32,0.43,-0.77
2022-01-25 17:38:31.8920,0.191,-0.286,-0.625,-1.68,-1.07,-3.39,-0.14,0.43,-0.57
2022-01-25 17:38:31.9020,0.192,-0.309,-0.635,-1.69,-0.89,-3.15,0.01,0.37,-0.4
2022-01-25 17:38:31.9120,0.192,-0.334,-0.634,-1.68,-0.66,-3.0,0.09,0.32,-0.25
2022-01-25 17:38:31.9220,0.187,-0.363,-0.638,-1.65,-0.44,-2.92,0.11,0.3,-0.13
2022-01-25 17:38:31.9320,0.173,-0.408,-0.655,-1.61,-0.19,-2.95,0.08,0.31,-0.01
2022-01-25 17:38:31.9420,0.156,-0.464,-0.684,-1.51,0.12,-2.85,0.05,0.36,0.09
2022-01-25 17:38:31.9540,0.142,-0.519,-0.737,-1.17,1.14,-2.31,0.06,0.43,0.14
2022-01-25 17:38:31.9640,0.137,-0.588,-0.8,-1.02,1.7,-1.79,0.09,0.51,0.08
2022-01-25 17:38:31.9740,0.133,-0.671,-0.877,-0.94,2.41,-1.1,0.1,0.45,-0.03
2022-01-25 17:38:31.9840,0.125,-0.738,-0.966,-0.85,3.23,-0.34,0.1,0.45,-0.03
2022-01-25 17:38:31.9940,0.108,-0.752,-1.074,-0.72,3.76,0.61,0.12,0.24,-0.2
2022-01-25 17:38:32.0040,0.073,-0.705,-1.175,-0.48,3.75,1.66,0.15,-0.33,-0.68
2022-01-25 17:38:32.0140,0.024,-0.606,-1.246,-0.1,3.12,2.62,0.13,-0.33,-0.68
2022-01-25 17:38:32.0240,-0.015,-0.497,-1.262,0.39,2.08,3.18,-0.23,0.02,-0.91
2022-01-25 17:38:32.0340,-0.012,-0.427,-1.249,0.7,1.06,3.24,-0.53,0.63,-0.78
2022-01-25 17:38:32.0440,0.047,-0.452,-1.217,0.59,0.59,3.05,-0.53,0.63,-0.78
2022-01-25 17:38:32.0540,0.154,-0.598,-1.203,-0.05,1.21,2.72,-0.8,1.3,-0.048108939081430435
2022-01-25 17:38:32.0640,0.268,-0.755,-1.24,-1.02,2.89,2.67,-0.99,1.7,0.25
2022-01-25 17:38:32.0740,0.349,-0.823,-1.334,-2.47,4.91,4.2,-1.04,1.12,0.33
2022-01-25 17:38:32.0850,0.386,-0.837,-1.482,-2.47,4.91,4.2,-1.04,1.12,0.33
2022-01-25 17:38:32.0940,0.373,-0.805,-1.643,-2.63,5.04,5.71,-1.09,0.21,0.19
2022-01-25 17:38:32.1040,0.307,-0.72,-1.73,-2.37,4.7,7.18,-0.98,-0.86,-0.42
2022-01-25 17:38:32.1150,0.227,-0.591,-1.74,-1.68,3.82,7.74,-0.69,-0.86,-0.42
2022-01-25 17:38:32.1240,0.172,-0.461,-1.702,-1.01,2.58,7.71,0.06,-0.32,-0.69
2022-01-25 17:38:32.1340,0.14,-0.348,-1.617,-0.33,0.32,6.28,0.37,0.31,-0.51
2022-01-25 17:38:32.1440,0.137,-0.259,-1.522,-0.33,0.32,6.28,0.62,0.82,-0.15
2022-01-25 17:38:32.1550,0.151,-0.192,-1.452,-0.31,-0.52,5.41,0.8,1.0,0.23
2022-01-25 17:38:32.1650,0.159,-0.122,-1.401,-0.37,-1.21,4.8,0.8,1.0,0.23
2022-01-25 17:38:32.1740,0.157,-0.046,-1.349,-0.34,-2.01,4.38,0.92,0.52,0.68
2022-01-25 17:38:32.1840,0.145,0.009,-1.275,-0.24,-2.82,3.84,0.92,0.52,0.68
2022-01-25 17:38:32.1940,0.139,0.035,-1.172,-0.09,-3.37,3.11,0.88,0.2,0.67
2022-01-25 17:38:32.2040,0.147,0.036,-1.064,-0.07,-3.67,2.05,0.66,-0.09,0.45
2022-01-25 17:38:32.2140,0.165,0.009,-0.952,-0.2,-3.66,1.05,0.66,-0.09,0.45
2022-01-25 17:38:32.2250,0.189,-0.017,-0.852,-0.42,-3.44,-0.05,0.51,-0.05,0.35
2022-01-25 17:38:32.2350,0.213,-0.047,-0.769,-0.68,-3.24,-0.96,0.34,0.05,0.31
2022-01-25 17:38:32.2450,0.231,-0.076,-0.707,-0.9,-2.96,-1.72,0.18,0.15,0.32
2022-01-25 17:38:32.2550,0.24,-0.098,-0.663,-1.05,-2.71,-2.27,-0.11,0.21,0.45
2022-01-25 17:38:32.2650,0.241,-0.113,-0.632,-1.12,-2.52,-2.66,-0.23,0.18,0.53
2022-01-25 17:38:32.2750,0.232,-0.122,-0.608,-1.1,-2.38,-2.94,-0.31,0.14,0.59
2022-01-25 17:38:32.2850,0.212,-0.132,-0.584,-0.99,-2.29,-3.18,-0.36,0.08,0.66
2022-01-25 17:38:32.2950,0.181,-0.149,-0.57,-0.77,-2.15,-3.42,-0.32,-0.01,0.73
2022-01-25 17:38:32.3050,0.153,-0.168,-0.566,-0.48,-1.94,-3.53,-0.32,-0.01,0.73
2022-01-25 17:38:32.3150,0.137,-0.184,-0.557,-0.27,-1.73,-3.58,-0.22,-0.11,0.79
2022-01-25 17:38:32.3250,0.127,-0.197,-0.539,-0.17,-1.57,-3.7,-0.08,-0.21,0.83
2022-01-25 17:38:32.3350,0.114,-0.207,-0.509,-0.12,-1.46,-3.91,0.18,-0.26,0.93
2022-01-25 17:38:32.3450,0.101,-0.211,-0.473,0.03,-1.39,-4.58,0.25,-0.21,0.96
2022-01-25 17:38:32.3560,0.089,-0.209,-0.439,0.03,-1.39,-4.58,0.26,-0.12,0.97
2022-01-25 17:38:32.3650,0.076,-0.204,-0.41,0.1,-1.46,-4.89,0.26,-0.12,0.97
2022-01-25 17:38:32.3750,0.062,-0.207,-0.392,0.18,-1.52,-5.15,0.21,-0.02,0.98
2022-01-25 17:38:32.3850,0.051,-0.211,-0.379,0.28,-1.51,-5.3,0.02,0.15,0.94
2022-01-25 17:38:32.3950,0.044,-0.218,-0.376,0.35,-1.48,-5.41,0.02,0.15,0.94
2022-01-25 17:38:32.4050,0.034,-0.232,-0.389,0.41,-1.41,-5.4,-0.07,0.2,0.89
2022-01-25 17:38:32.4150,0.031,-0.246,-0.412,0.48,-1.26,-5.24,-0.15,0.13,0.71
2022-01-25 17:38:32.4250,0.036,-0.256,-0.437,0.48,-1.12,-5.01,-0.17,0.05,0.57
2022-01-25 17:38:32.4350,0.049,-0.258,-0.456,0.39,-1.03,-4.78,-0.17,0.05,0.57
2022-01-25 17:38:32.4450,0.066,-0.254,-0.463,0.25,-1.02,-4.62,-0.25,-0.02,0.42
2022-01-25 17:38:32.4550,0.089,-0.25,-0.461,0.05,-1.03,-4.6,-0.41,-0.05,0.26
2022-01-25 17:38:32.4650,0.116,-0.246,-0.469,-0.21,-1.04,-4.62,-0.66,-0.06,0.12
2022-01-25 17:38:32.4760,0.153,-0.254,-0.491,-0.5,-0.99,-4.53,-1.32,-0.04,-0.02
2022-01-25 17:38:32.4850,0.192,-0.277,-0.542,-0.89,-0.77,-4.31,-1.32,-0.04,-0.02
2022-01-25 17:38:32.4950,0.226,-0.297,-0.631,-1.26,-0.41,-3.74,-1.59,-0.07,-0.02
2022-01-25 17:38:32.5050,0.252,-0.295,-0.726,-1.59,-0.1,-2.9,-1.73,-0.08,-0.05
2022-01-25 17:38:32.5150,0.264,-0.262,-0.818,-1.81,-0.03,-2.0,-1.73,-0.08,-0.05
2022-01-25 17:38:32.5250,0.271,-0.231,-0.891,-1.91,-0.23,-1.19,-1.6,0.24,-0.04
2022-01-25 17:38:32.5360,0.285,-0.236,-0.96,-1.98,-0.31,-0.55,-1.6,0.24,-0.04
2022-01-25 17:38:32.5460,0.302,-0.269,-1.052,-2.11,-0.01,0.13,-1.83,0.67,0.45
2022-01-25 17:38:32.5560,0.314,-0.314,-1.159,-2.23,0.49,1.04,-2.02,0.83,0.84
2022-01-25 17:38:32.5660,0.329,-0.39,-1.297,-2.29,1.17,2.12,-2.15,0.91,1.27
2022-01-25 17:38:32.5760,0.34,-0.507,-1.458,-2.38,2.21,3.5,-2.11,0.84,1.64
2022-01-25 17:38:32.5850,0.332,-0.609,-1.648,-2.4,3.6,5.11,-2.11,0.84,1.64
2022-01-25 17:38:32.5960,0.268,-0.624,-1.854,-2.16,4.61,7.02,-1.55,0.41,1.73
2022-01-25 17:38:32.6060,0.158,-0.592,-2.011,-1.34,4.72,8.98,-1.17,0.3,1.52
2022-01-25 17:38:32.6160,0.057,-0.596,-2.111,0.71,4.78,11.23,-1.17,0.3,1.52
2022-01-25 17:38:32.6270,-0.02,-0.589,-2.185,0.71,4.78,11.23,-0.36,0.19,0.82
2022-01-25 17:38:32.6360,-0.066,-0.505,-2.211,1.41,4.6,11.84,-0.36,0.19,0.82
2022-01-25 17:38:32.6470,-0.067,-0.366,-2.178,1.78,3.63,11.97,0.58,0.17,-0.03
2022-01-25 17:38:32.6580,-0.031,-0.236,-2.077,1.69,2.2,11.48,0.94,0.26,-0.24
2022-01-25 17:38:32.6680,-0.001,-0.148,-1.947,1.33,0.98,10.36,1.2,0.27,-0.27
2022-01-25 17:38:32.6760,-0.0,-0.042,-1.84,1.12,0.03,9.14,1.2,0.27,-0.27
2022-01-25 17:38:32.6860,-0.033,0.063,-1.734,1.22,-1.17,8.14,1.63,0.09,0.01
2022-01-25 17:38:32.6960,-0.108,0.155,-1.622,1.65,-2.29,7.1,1.83,-0.03,0.2
2022-01-25 17:38:32.7060,-0.202,0.234,-1.496,2.48,-3.33,6.01,2.0,-0.13,0.35
2022-01-25 17:38:32.7160,-0.284,0.279,-1.357,3.39,-4.21,4.76,2.0,-0.13,0.35
2022-01-25 17:38:32.7260,-0.341,0.288,-1.211,4.12,-4.76,3.41,2.14,-0.23,0.45
2022-01-25 17:38:32.7360,-0.371,0.268,-1.058,4.59,-4.98,2.01,2.14,-0.23,0.45
2022-01-25 17:38:32.7460,-0.382,0.215,-0.906,4.79,-4.92,0.54,2.0,-0.08,0.45
2022-01-25 17:38:32.7560,-0.378,0.142,-0.755,4.84,-4.52,-0.89,1.88,0.05,0.43
2022-01-25 17:38:32.7660,-0.36,0.067,-0.625,4.74,-3.98,-2.3,1.73,0.2,0.35
2022-01-25 17:38:32.7760,-0.327,-0.009,-0.514,4.53,-3.41,-3.46,1.53,0.3,0.16
2022-01-25 17:38:32.7870,-0.268,-0.074,-0.434,4.15,-2.85,-4.44,1.28,0.32,-0.15
2022-01-25 17:38:32.7960,-0.198,-0.128,-0.384,3.56,-2.38,-5.09,1.28,0.32,-0.15
2022-01-25 17:38:32.8060,-0.125,-0.177,-0.341,2.9,-1.98,-5.49,0.78,0.22,-0.98
2022-01-25 17:38:32.8160,-0.049,-0.224,-0.307,2.22,-1.58,-5.87,0.55,0.1,-1.37
2022-01-25 17:38:32.8270,0.025,-0.258,-0.286,1.53,-1.19,-6.14,0.55,0.1,-1.37
2022-01-25 17:38:32.8370,0.086,-0.271,-0.273,0.87,-0.95,-6.31,0.1,-0.24,-1.9
2022-01-25 17:38:32.8470,0.137,-0.268,-0.277,0.36,-0.87,-6.39,-0.14,-0.39,-2.03
2022-01-25 17:38:32.8560,0.181,-0.258,-0.271,-0.45,-0.97,-6.46,-0.35,-0.46,-2.1
2022-01-25 17:38:32.8670,0.216,-0.236,-0.26,-0.45,-0.97,-6.46,-0.35,-0.5,-2.11
2022-01-25 17:38:32.8770,0.232,-0.208,-0.288,-0.74,-1.14,-6.51,-0.54,-0.5,-2.11
2022-01-25 17:38:32.8870,0.228,-0.177,-0.32,-0.81,-1.35,-6.21,-0.67,-0.51,-2.07
2022-01-25 17:38:32.8970,0.217,-0.148,-0.361,-0.72,-1.55,-5.93,-0.74,-0.51,-1.96
2022-01-25 17:38:32.9070,0.206,-0.121,-0.403,-0.59,-1.74,-5.53,-0.71,-0.52,-1.82
2022-01-25 17:38:32.9170,0.201,-0.103,-0.432,-0.48,-1.89,-5.18,-0.64,-0.51,-1.62
2022-01-25 17:38:32.9270,0.194,-0.103,-0.457,-0.44,-1.95,-4.95,-0.48,-0.45,-1.1
2022-01-25 17:38:32.9370,0.182,-0.126,-0.485,-0.37,-1.82,-4.72,-0.41,-0.39,-0.8
2022-01-25 17:38:32.9460,0.176,-0.163,-0.518,-0.27,-1.48,-4.46,-0.34,-0.32,-0.51
2022-01-25 17:38:32.9570,0.173,-0.201,-0.55,-0.23,-1.06,-4.14,-0.28,-0.22,-0.23
2022-01-25 17:38:32.9670,0.162,-0.242,-0.59,-0.21,-0.66,-3.84,-0.22,-0.1,0.03
2022-01-25 17:38:32.9770,0.155,-0.301,-0.636,-0.11,-0.18,-3.43,-0.22,-0.1,0.03
2022-01-25 17:38:32.9870,0.147,-0.36,-0.698,-0.06,0.44,-2.97,-0.13,0.02,0.41
2022-01-25 17:38:32.9970,0.139,-0.412,-0.772,0.02,1.02,-2.33,-0.11,0.03,0.47
2022-01-25 17:38:33.0070,0.131,-0.46,-0.851,0.08,1.52,-1.58,-0.11,0.03,0.47
2022-01-25 17:38:33.0170,0.126,-0.517,-0.94,0.16,2.01,-0.81,-0.11,0.03,0.43
2022-01-25 17:38:33.0270,0.139,-0.578,-1.052,0.16,2.59,0.14,-0.04,-0.06,0.04
2022-01-25 17:38:33.0370,0.172,-0.62,-1.144,-0.03,3.17,1.22,0.02,-0.08,-0.22
2022-01-25 17:38:33.0470,0.213,-0.638,-1.213,-0.39,3.53,2.05,0.02,-0.08,-0.22
2022-01-25 17:38:33.0570,0.248,-0.627,-1.269,-0.79,3.64,2.68,0.04,-0.05,-0.41
2022-01-25 17:38:33.0680,0.268,-0.576,-1.318,-1.09,3.44,3.24,-0.07,0.28,-0.33
2022-01-25 17:38:33.0770,0.274,-0.508,-1.341,-1.23,2.88,3.64,-0.23,0.56,-0.08
2022-01-25 17:38:33.0870,0.278,-0.451,-1.356,-1.24,2.22,3.85,-0.23,0.56,-0.08
2022-01-25 17:38:33.0970,0.287,-0.476,-1.357,-1.22,1.81,3.96,-0.63,1.1,0.61
2022-01-25 17:38:33.1080,0.293,-0.569,-1.414,-1.24,2.37,4.02,-0.73,1.02,0.71
2022-01-25 17:38:33.1170,0.302,-0.609,-1.533,-1.2,3.26,4.78,-0.73,1.02,0.71
2022-01-25 17:38:33.1280,0.331,-0.647,-1.658,-1.25,3.62,6.01,-0.78,0.28,0.09
2022-01-25 17:38:33.1380,0.365,-0.685,-1.745,-1.53,4.13,7.17,-0.78,0.28,0.09
2022-01-25 17:38:33.1470,0.377,-0.648,-1.773,-1.81,4.43,7.87,-0.62,-0.11,-0.71
2022-01-25 17:38:33.1580,0.367,-0.557,-1.77,-1.85,3.97,8.02,-0.62,-0.11,-0.71
2022-01-25 17:38:33.1670,0.357,-0.424,-1.735,-1.73,3.05,7.91,-0.41,-0.06,-0.84
2022-01-25 17:38:33.1780,0.353,-0.278,-1.671,-1.63,1.72,7.47,0.19,0.39,-0.49
2022-01-25 17:38:33.1870,0.361,-0.172,-1.587,-1.59,0.36,6.78,0.19,0.39,-0.49
2022-01-25 17:38:33.1980,0.36,-0.092,-1.508,-1.62,-0.58,5.97,0.43,0.58,-0.09
2022-01-25 17:38:33.2080,0.334,-0.002,-1.438,-1.5,-1.41,5.23,0.58,0.61,0.31
2022-01-25 17:38:33.2180,0.27,0.093,-1.395,-1.11,-2.38,4.63,0.64,0.45,0.59
2022-01-25 17:38:33.2280,0.197,0.171,-1.367,-0.39,-3.37,4.28,0.79,-0.21,0.64
2022-01-25 17:38:33.2380,0.152,0.209,-1.337,0.27,-4.13,4.04,0.79,-0.21,0.64
2022-01-25 17:38:33.2480,0.141,0.206,-1.252,0.59,-4.48,3.66,0.98,-0.43,0.49
2022-01-25 17:38:33.2580,0.16,0.169,-1.125,0.56,-4.46,2.71,1.26,-0.37,0.33
2022-01-25 17:38:33.2680,0.192,0.118,-0.984,0.28,-4.15,1.44,1.26,-0.20559071004390717,0.38
2022-01-25 17:38:33.2780,0.223,0.076,-0.853,-0.09,-3.79,0.07,1.17,-0.07,0.47
2022-01-25 17:38:33.2880,0.251,0.028,-0.742,-0.42,-3.5,-1.11,1.17,-0.07,0.5836805105209351
2022-01-25 17:38:33.2980,0.271,-0.018,-0.656,-0.7,-3.13,-2.15,1.0,0.01,0.58
2022-01-25 17:38:33.3080,0.278,-0.07,-0.6,-0.88,-2.77,-2.86,0.56,-0.08,0.82
2022-01-25 17:38:33.3180,0.271,-0.113,-0.558,-0.93,-2.35,-3.36,0.56,-0.08,0.82
2022-01-25 17:38:33.3280,0.255,-0.146,-0.534,-0.88,-2.02,-3.7,0.28,-0.3,0.94
2022-01-25 17:38:33.3380,0.226,-0.168,-0.516,-0.73,-1.76,-3.91,0.28,-0.3,0.94
2022-01-25 17:38:33.3480,0.193,-0.175,-0.501,-0.49,-1.63,-4.07,0.24,-0.41,0.96
2022-01-25 17:38:33.3580,0.161,-0.182,-0.482,-0.24,-1.61,-4.22,0.24,-0.51,0.97
2022-01-25 17:38:33.3680,0.132,-0.189,-0.462,-0.01,-1.57,-4.42,0.32,-0.54,0.96
2022-01-25 17:38:33.3780,0.107,-0.194,-0.449,0.19,-1.55,-4.6,0.32,-0.54,0.96
2022-01-25 17:38:33.3880,0.086,-0.204,-0.437,0.34,-1.53,-4.71,0.37,-0.52,0.93
2022-01-25 17:38:33.3980,0.065,-0.217,-0.423,0.46,-1.46,-4.84,0.37,-0.52,0.93
2022-01-25 17:38:33.4080,0.047,-0.227,-0.412,0.58,-1.39,-4.96,0.36,-0.47,0.91
2022-01-25 17:38:33.4180,0.03,-0.241,-0.402,0.68,-1.32,-5.06,0.33,-0.38,0.87
2022-01-25 17:38:33.4280,0.016,-0.25,-0.397,0.78,-1.23,-5.14,0.31,-0.26,0.81
2022-01-25 17:38:33.4390,0.005,-0.254,-0.404,0.85,-1.19,-5.16,0.28,-0.15,0.72
2022-01-25 17:38:33.4480,-0.003,-0.262,-0.421,0.92,-1.17,-5.05,0.26,-0.01,0.49
2022-01-25 17:38:33.4590,-0.006,-0.276,-0.441,0.96,-1.11,-4.86,0.27,-0.0,0.38
2022-01-25 17:38:33.4690,-0.007,-0.286,-0.474,0.96,-1.0,-4.64,0.28,-0.04,0.27
2022-01-25 17:38:33.4780,-0.003,-0.292,-0.507,0.95,-0.95,-4.28,0.28,-0.04,0.27
2022-01-25 17:38:33.4890,0.007,-0.304,-0.535,0.88,-0.9,-3.97,0.3,-0.13,0.09
2022-01-25 17:38:33.4990,0.023,-0.314,-0.562,0.75,-0.8,-3.68,0.3,-0.12,0.01
2022-01-25 17:38:33.5080,0.039,-0.323,-0.573,0.58,-0.74,-3.44,0.25,-0.03,-0.05
2022-01-25 17:38:33.5180,0.058,-0.332,-0.578,0.41,-0.68,-3.36,0.25,-0.03,-0.05
2022-01-25 17:38:33.5290,0.081,-0.344,-0.6,0.21,-0.61,-3.27,0.14,0.12,-0.09
2022-01-25 17:38:33.5390,0.097,-0.37,-0.658,0.0,-0.48,-2.99,-0.04,0.26,-0.12
2022-01-25 17:38:33.5480,0.101,-0.413,-0.765,-0.1,-0.16,-2.29,-0.28,0.23,-0.19
2022-01-25 17:38:33.5590,0.114,-0.445,-0.879,-0.11,0.29,-1.19,-0.25,0.13,-0.27
2022-01-25 17:38:33.5690,0.145,-0.46,-0.987,-0.25,0.57,-0.09,-0.25,0.13,-0.27
2022-01-25 17:38:33.5790,0.172,-0.484,-1.067,-0.55,0.75,0.93,-0.2,0.05,-0.3
2022-01-25 17:38:33.5890,0.177,-0.506,-1.106,-0.76,1.02,1.58,-0.16,0.26,-0.09
2022-01-25 17:38:33.5990,0.18,-0.534,-1.119,-0.74,1.25,1.9,-0.13,0.26,-0.09
2022-01-25 17:38:33.6090,0.223,-0.589,-1.125,-0.82,1.59,1.98,-0.12,0.53,0.12
2022-01-25 17:38:33.6190,0.286,-0.671,-1.131,-1.28,2.21,2.04,-0.19,0.88,0.37
2022-01-25 17:38:33.6290,0.345,-0.791,-1.155,-1.83,3.11,2.12,-0.29,1.19,0.69
2022-01-25 17:38:33.6390,0.376,-0.922,-1.223,-2.29,4.4,2.44,-0.34,1.32,1.0
2022-01-25 17:38:33.6490,0.348,-0.975,-1.345,-2.39,5.58,3.24,-0.33,1.11,1.18
2022-01-25 17:38:33.6590,0.281,-0.969,-1.492,-1.93,5.88,4.56,-0.36,0.57,1.13
2022-01-25 17:38:33.6690,0.202,-0.994,-1.615,-1.24,5.9,5.95,-0.58,-0.71,0.64
2022-01-25 17:38:33.6790,0.118,-0.951,-1.729,-0.48,6.14,7.1,-0.62,-1.08,0.15
2022-01-25 17:38:33.6890,0.044,-0.819,-1.799,0.23,5.49,8.13,-0.54,-1.1,-0.45
2022-01-25 17:38:33.6990,-0.025,-0.644,-1.816,0.86,4.13,8.64,-0.54,-1.1,-0.45
2022-01-25 17:38:33.7090,-0.07,-0.438,-1.776,1.4,2.37,8.63,-0.35,-0.7,-1.02
2022-01-25 17:38:33.7190,-0.088,-0.24,-1.729,1.77,0.36,8.16,-0.12,-0.02,-1.37
2022-01-25 17:38:33.7290,-0.063,-0.116,-1.671,1.9,-1.43,7.69,0.37,1.24,-1.15
2022-01-25 17:38:33.7390,-0.027,-0.053,-1.599,1.7,-2.44,7.08,0.37,1.24,-1.15
2022-01-25 17:38:33.7490,-0.002,-0.007,-1.521,1.52,-3.02,6.4,0.66,1.42,-0.72
2022-01-25 17:38:33.7590,0.002,0.011,-1.434,1.47,-3.47,5.65,1.27,0.74,0.14
2022-01-25 17:38:33.7690,-0.018,0.009,-1.341,1.61,-3.67,4.85,1.27,0.74,0.14
2022-01-25 17:38:33.7790,-0.047,0.0,-1.217,1.89,-3.74,3.92,1.53,0.19,0.43
2022-01-25 17:38:33.7890,-0.074,-0.016,-1.075,2.18,-3.78,2.71,1.71,-0.28,0.62
2022-01-25 17:38:33.8000,-0.093,-0.036,-0.912,2.36,-3.78,1.33,1.76,-0.55,0.7
2022-01-25 17:38:33.8100,-0.104,-0.073,-0.743,2.46,-3.71,-0.25,1.69,-0.59,0.69
2022-01-25 17:38:33.8190,-0.104,-0.126,-0.599,2.46,-3.47,-1.81,1.52,-0.45,0.61
2022-01-25 17:38:33.8290,-0.091,-0.179,-0.488,2.37,-3.06,-3.08,1.02,-0.03,0.2
2022-01-25 17:38:33.8400,-0.068,-0.221,-0.421,2.18,-2.68,-4.02,1.02,-0.03,0.2
2022-01-25 17:38:33.8500,-0.039,-0.26,-0.385,1.93,-2.37,-4.51,0.77,0.07,-0.07
2022-01-25 17:38:33.8600,-0.011,-0.303,-0.34,1.64,-2.03,-4.85,0.54,0.14,-0.33
2022-01-25 17:38:33.8700,0.006,-0.329,-0.318,1.43,-1.67,-5.25,0.29,0.15,-0.7470446228981018
2022-01-25 17:38:33.8800,0.025,-0.343,-0.324,1.3,-1.47,-5.37,0.05,0.09,-0.75
2022-01-25 17:38:33.8900,0.051,-0.347,-0.336,1.15,-1.35,-5.26,-0.16,-0.03,-0.93
2022-01-25 17:38:33.8990,0.086,-0.341,-0.354,0.59,-1.35,-4.95,-0.37,-0.38,-1.32
2022-01-25 17:38:33.9100,0.121,-0.32,-0.391,0.59,-1.35,-4.95,-0.34,-0.51,-1.5
2022-01-25 17:38:33.9200,0.15,-0.283,-0.404,0.29,-1.54,-4.63,-0.34,-0.51,-1.5
2022-01-25 17:38:33.9300,0.164,-0.254,-0.386,-0.02,-2.05,-4.82,-0.25,-0.36,-1.61
2022-01-25 17:38:33.9400,0.173,-0.241,-0.377,-0.02,-2.05,-4.82,-0.25,-0.36,-1.61
2022-01-25 17:38:33.9500,0.183,-0.23,-0.369,-0.06,-2.11,-4.92,-0.26,-0.16,-1.53
2022-01-25 17:38:33.9600,0.197,-0.23,-0.374,-0.12,-2.16,-4.99,-0.28,0.06,-1.4
2022-01-25 17:38:33.9700,0.212,-0.243,-0.391,-0.2,-2.07,-4.92,-0.24,0.29,-1.03
2022-01-25 17:38:33.9800,0.225,-0.262,-0.423,-0.27,-1.87,-4.72,-0.24,0.29,-1.03
2022-01-25 17:38:33.9900,0.234,-0.288,-0.45,-0.32,-1.63,-4.41,-0.1,0.16,-0.71
2022-01-25 17:38:34.0000,0.24,-0.321,-0.472,-0.34,-1.33,-4.16,-0.04,0.05,-0.58
2022-01-25 17:38:34.0100,0.241,-0.363,-0.489,-0.35,-0.97,-3.96,-0.01,-0.03,-0.48
2022-01-25 17:38:34.0200,0.243,-0.412,-0.506,-0.32,-0.51,-3.8,-0.01,-0.03,-0.48
2022-01-25 17:38:34.0300,0.248,-0.461,-0.541,-0.34,-0.01,-3.61,-0.07,-0.18,-0.39
2022-01-25 17:38:34.0410,0.245,-0.52,-0.583,-0.33,1.11,-2.85,-0.13,-0.18,-0.38
2022-01-25 17:38:34.0510,0.24,-0.582,-0.618,-0.33,1.11,-2.85,-0.13,-0.18,-0.38
2022-01-25 17:38:34.0600,0.241,-0.637,-0.673,-0.29,1.73,-2.5,-0.18,-0.15,-0.43
2022-01-25 17:38:34.0700,0.255,-0.693,-0.737,-0.33,2.28,-1.92,-0.22,-0.15,-0.43
2022-01-25 17:38:34.0800,0.276,-0.746,-0.816,-0.48,2.87,-1.29,-0.23,-0.2,-0.51
2022-01-25 17:38:34.0900,0.295,-0.784,-0.903,-0.69,3.39,-0.49,-0.2,-0.41,-0.7
2022-01-25 17:38:34.1010,0.307,-0.798,-0.992,-0.86,3.76,0.35,-0.2,-0.56,-0.81
2022-01-25 17:38:34.1100,0.311,-0.751,-1.087,-0.97,3.8,1.23,-0.2,-0.56,-0.81
2022-01-25 17:38:34.1200,0.307,-0.668,-1.158,-1.01,3.25,2.11,-0.25,-0.63,-0.86
2022-01-25 17:38:34.1300,0.291,-0.586,-1.198,-0.96,2.45,2.7,-0.36,-0.53,-0.82
2022-01-25 17:38:34.1410,0.284,-0.529,-1.22,-0.81,1.73,3.01,-0.53,-0.26,-0.69
2022-01-25 17:38:34.1510,0.3,-0.529,-1.242,-0.79,1.34,3.19,-0.74,0.14,-0.46
2022-01-25 17:38:34.1600,0.334,-0.621,-1.263,-0.97,1.63,3.37,-0.93,0.59,-0.12
2022-01-25 17:38:34.1700,0.369,-0.75,-1.334,-1.26,2.8,3.6,-1.02,0.73,0.37
2022-01-25 17:38:34.1810,0.389,-0.826,-1.484,-1.52,4.07,4.52,-0.89,0.29,0.29
2022-01-25 17:38:34.1900,0.393,-0.865,-1.622,-1.62,4.78,6.01,-0.89,0.29,0.29
2022-01-25 17:38:34.2010,0.39,-0.869,-1.703,-1.63,5.17,7.24,-0.46,-0.43,-0.28
2022-01-25 17:38:34.2110,0.369,-0.817,-1.698,-1.58,5.14,7.79,-0.46,-0.43,-0.28
2022-01-25 17:38:34.2210,0.334,-0.721,-1.655,-1.36,4.55,7.57,-0.02,-0.15,-0.57
2022-01-25 17:38:34.2300,0.298,-0.586,-1.596,-1.02,3.54,7.1,-0.02,-0.15,-0.57
2022-01-25 17:38:34.2410,0.267,-0.445,-1.518,-0.66,2.18,6.47,0.25,0.17,-0.52
2022-01-25 17:38:34.2510,0.25,-0.325,-1.447,-0.36,0.82,5.7,0.77,0.51,-0.13
2022-01-25 17:38:34.2610,0.235,-0.23,-1.368,-0.16,-0.33,5.04,0.77,0.51,-0.13
2022-01-25 17:38:34.2710,0.208,-0.138,-1.293,0.05,-1.3,4.28,1.05,0.03,0.35
2022-01-25 17:38:34.2810,0.168,-0.044,-1.234,0.38,-2.31,3.64,1.05,0.03,0.35
2022-01-25 17:38:34.2910,0.126,0.035,-1.151,0.78,-3.31,3.08,1.1,-0.37,0.48
2022-01-25 17:38:34.3010,0.098,0.087,-1.05,1.27,-4.64,1.25,1.01,-0.87,0.42
2022-01-25 17:38:34.3110,0.089,0.09,-0.942,1.2,-4.67,0.14,0.9,-0.83,0.25
2022-01-25 17:38:34.3210,0.107,0.064,-0.818,1.2,-4.67,0.14,0.9,-0.83,0.25
2022-01-25 17:38:34.3310,0.137,0.02,-0.701,0.5414822825789452,-4.057185890078545,-2.15,0.52,-0.32,-0.16
2022-01-25 17:38:34.3410,0.171,-0.022,-0.603,0.54,-4.06,-2.15,0.52,-0.32,-0.16
2022-01-25 17:38:34.3510,0.209,-0.064,-0.541,-0.19,-3.27,-3.52,0.24,-0.08,-0.31
2022-01-25 17:38:34.3610,0.247,-0.114,-0.516,-0.19,-3.27,-3.52,-0.06,0.04,-0.38
2022-01-25 17:38:34.3710,0.283,-0.163,-0.505,-0.55,-2.76,-3.71,-0.37,0.04,-0.4
2022-01-25 17:38:34.3800,0.305,-0.198,-0.496,-0.86,-2.26,-3.83,-0.63,-0.03,-0.36
2022-01-25 17:38:34.3900,0.311,-0.224,-0.492,-1.02,-1.89,-3.94,-0.84,-0.1,-0.29
2022-01-25 17:38:34.4000,0.305,-0.249,-0.5,-1.06,-1.55,-4.0,-0.97,-0.17,-0.19
2022-01-25 17:38:34.4100,0.292,-0.272,-0.53,-0.98,-1.21,-3.9,-1.01,-0.28,-0.08
2022-01-25 17:38:34.4210,0.278,-0.283,-0.565,-0.87,-0.91,-3.62,-0.82,-0.58,0.14
2022-01-25 17:38:34.4310,0.26,-0.281,-0.598,-0.77,-0.77,-3.33,-0.82,-0.58,0.14
2022-01-25 17:38:34.4420,0.233,-0.275,-0.626,-0.63,-0.72,-3.05,-0.47,-0.82,0.31
2022-01-25 17:38:34.4510,0.194,-0.264,-0.643,-0.42,-0.74,-2.83,-0.47,-0.82,0.31
2022-01-25 17:38:34.4620,0.154,-0.251,-0.649,-0.1,-0.82,-2.72,-0.3,-0.84,0.37
2022-01-25 17:38:34.4710,0.124,-0.244,-0.641,0.19,-0.92,-2.72,-0.1,-0.56,0.42
2022-01-25 17:38:34.4810,0.101,-0.238,-0.621,0.37,-0.97,-2.85,-0.07,-0.28,0.41
2022-01-25 17:38:34.4910,0.082,-0.235,-0.605,0.53,-1.02,-3.07,-0.07,-0.28,0.41
2022-01-25 17:38:34.5010,0.068,-0.238,-0.597,0.66,-1.03,-3.21,-0.05,0.01,0.39
2022-01-25 17:38:34.5110,0.058,-0.239,-0.601,0.78,-1.0,-3.27,-0.02,0.24,0.34
2022-01-25 17:38:34.5210,0.049,-0.238,-0.619,0.89,-1.0,-3.18,0.04,0.35,0.19
2022-01-25 17:38:34.5320,0.04,-0.254,-0.632,1.01,-0.99,-3.01,0.09,0.26,0.13
2022-01-25 17:38:34.5420,0.038,-0.279,-0.648,1.11,-0.8,-2.87,0.09,0.26,0.13
2022-01-25 17:38:34.5520,0.045,-0.306,-0.655,1.13,-0.56,-2.7,0.21,-0.01,0.01
2022-01-25 17:38:34.5620,0.065,-0.337,-0.642,1.02,-0.3,-2.69,0.21,-0.01,0.01
2022-01-25 17:38:34.5720,0.088,-0.37,-0.641,0.81,0.0,-2.8,0.19,-0.21,-0.18
2022-01-25 17:38:34.5820,0.102,-0.391,-0.648,0.59,0.29,-2.78,0.19,-0.21,-0.18
2022-01-25 17:38:34.5920,0.107,-0.401,-0.669,0.47,0.44,-2.69,0.07,-0.27,-0.31
2022-01-25 17:38:34.6020,0.114,-0.422,-0.718,0.41,0.55,-2.42,-0.24,-0.33,-0.53
2022-01-25 17:38:34.6120,0.121,-0.443,-0.785,0.32,0.8,-1.9,-0.35,-0.36,-0.64
2022-01-25 17:38:34.6220,0.133,-0.454,-0.874,0.23,1.01,-1.2,-0.35,-0.36,-0.64
2022-01-25 17:38:34.6320,0.148,-0.466,-0.965,0.1,1.16,-0.31,-0.37,-0.34,-0.81
2022-01-25 17:38:34.6420,0.164,-0.479,-1.034,-0.07,1.32,0.51,-0.37,-0.34,-0.81
2022-01-25 17:38:34.6520,0.172,-0.491,-1.082,-0.22,1.51,1.13,-0.23,-0.05,-0.74
2022-01-25 17:38:34.6620,0.181,-0.488,-1.127,-0.27,1.63,1.55,-0.23,-0.05,-0.6539623737335205
2022-01-25 17:38:34.6720,0.201,-0.501,-1.16,-0.36,1.61,1.98,-0.29,0.32,-0.55
2022-01-25 17:38:34.6820,0.238,-0.561,-1.178,-0.56,1.89,2.24,-0.29,0.32,-0.55
2022-01-25 17:38:34.6920,0.278,-0.611,-1.234,-0.91,2.59,2.44,-0.65,0.29,-0.72
2022-01-25 17:38:34.7020,0.303,-0.561,-1.365,-1.22,2.92,3.18,-0.65,0.29,-0.72
2022-01-25 17:38:34.7120,0.328,-0.53,-1.461,-1.39,2.37,4.49,-1.11,-0.05,-1.35
2022-01-25 17:38:34.7220,0.363,-0.574,-1.506,-1.64,2.43,5.2,-1.11,-0.05,-1.35
2022-01-25 17:38:34.7320,0.368,-0.529,-1.578,-1.92,2.91,5.66,-0.97,-0.09,-1.65
2022-01-25 17:38:34.7420,0.341,-0.4,-1.631,-1.82,2.31,6.34,-0.97,-0.09,-1.65
2022-01-25 17:38:34.7520,0.32,-0.28,-1.656,-1.52,1.13,6.75,-0.63,-0.05,-1.58
2022-01-25 17:38:34.7620,0.311,-0.17,-1.667,-1.31,0.08,6.93,-0.22,-0.08,-1.37
2022-01-25 17:38:34.7720,0.305,-0.089,-1.641,-1.21,-0.93,7.0,0.16,-0.15,-1.03
2022-01-25 17:38:34.7830,0.281,-0.046,-1.569,-1.13,-1.6,6.59,0.74,-0.22,-0.15
2022-01-25 17:38:34.7920,0.226,-0.006,-1.488,-0.82,-2.03,5.86,0.74,-0.22,-0.15
