time,gFx,gFy,gFz,ax,ay,az,wx,wy,wz
2022-01-25 17:39:14.0920,0.028,-0.514,-0.787,0.27,0.51,-0.64,-0.68,-0.74,-0.7
2022-01-25 17:39:22.3380,0.033,-0.493,-0.741,0.17,0.64,-1.18,-0.7,-0.67,-0.69
2022-01-25 17:39:22.3460,0.037,-0.471,-0.778,0.07,0.4,-1.52,-0.69,-0.6,-0.63
2022-01-25 17:39:22.3560,0.028,-0.482,-0.801,0.11,0.53,-1.04,-0.69,-0.6,-0.63
2022-01-25 17:39:22.3660,0.023,-0.472,-0.779,0.11,0.53,-1.04,-0.6,-0.32,-0.49
2022-01-25 17:39:22.3760,0.026,-0.445,-0.777,0.11,0.42,-1.29,-0.6,-0.32,-0.49
2022-01-25 17:39:22.3850,0.033,-0.437,-0.792,0.06,0.23,-1.26,-0.55,-0.2,-0.42
2022-01-25 17:39:22.3940,0.038,-0.446,-0.809,-0.01,0.27,-1.13,-0.51,-0.15,-0.35
2022-01-25 17:39:22.4050,0.037,-0.447,-0.808,-0.04,0.4,-1.0,-0.43,-0.13,-0.31
2022-01-25 17:39:22.4140,0.039,-0.455,-0.797,-0.03,0.45,-1.08,-0.33,-0.15,-0.29
2022-01-25 17:39:22.4250,0.041,-0.473,-0.793,-0.06,0.59,-1.19,-0.04,-0.23,-0.28
2022-01-25 17:39:22.4350,0.035,-0.489,-0.778,-0.07,0.78,-1.25,0.12,-0.23,-0.27
2022-01-25 17:39:22.4450,0.027,-0.5,-0.752,0.06037228234112263,1.0323338171839715,-1.6730363327264786,0.12,-0.23,-0.27
2022-01-25 17:39:22.4560,0.02,-0.511,-0.738,0.06,1.03,-1.68,0.25,-0.22,-0.29
2022-01-25 17:39:22.4660,0.016,-0.523,-0.741,0.11,1.11,-1.74,0.33,-0.22,-0.32
2022-01-25 17:39:22.4760,0.015,-0.537,-0.726,0.13,1.21,-1.72,0.34,-0.09,-0.36
2022-01-25 17:39:22.4860,0.011,-0.547,-0.693,0.15,1.32,-1.92,0.29,0.02,-0.4
2022-01-25 17:39:22.4960,0.011,-0.551,-0.677,0.19,1.37,-2.21,0.21,0.11,-0.44
2022-01-25 17:39:22.5070,0.016,-0.558,-0.682,0.18,1.45,-2.23,0.13,0.16,-0.48
2022-01-25 17:39:22.5170,0.021,-0.563,-0.687,0.18,1.45,-2.23,0.03,0.21,-0.51
2022-01-25 17:39:22.5270,0.028,-0.566,-0.688,0.16,1.48,-2.19,-0.06,0.28,-0.54
2022-01-25 17:39:22.5370,0.036,-0.569,-0.692,0.09,1.54,-2.14,-0.06,0.28,-0.54
2022-01-25 17:39:22.5470,0.046,-0.57,-0.694,0.09,1.54,-2.14,-0.2,0.43,-0.56
2022-01-25 17:39:22.5570,0.061,-0.579,-0.699,-0.06,1.71,-2.05,-0.24,0.48,-0.55
2022-01-25 17:39:22.5670,0.076,-0.591,-0.72,-0.06,1.71,-2.05,-0.26,0.5,-0.56
2022-01-25 17:39:22.5770,0.085,-0.598,-0.749,-0.12,1.85,-1.82,-0.26,0.51,-0.58
2022-01-25 17:39:22.5870,0.091,-0.604,-0.781,-0.14,1.94,-1.53,-0.28,0.51,-0.58
2022-01-25 17:39:22.5970,0.091,-0.613,-0.807,-0.11,2.04,-1.24,-0.27,0.57,-0.61
2022-01-25 17:39:22.6070,0.1,-0.623,-0.841,-0.05,2.15,-0.99,-0.27,0.57,-0.61
2022-01-25 17:39:22.6170,0.121,-0.642,-0.886,-0.1,2.3,-0.63,-0.17,0.43,-0.64
2022-01-25 17:39:22.6270,0.147,-0.659,-0.933,-0.25,2.52,-0.18,-0.09,0.24,-0.64
2022-01-25 17:39:22.6370,0.167,-0.67,-0.98,-0.44,2.69,0.28,0.02,0.04,-0.64
2022-01-25 17:39:22.6480,0.173,-0.672,-1.004,-0.56,2.8,0.72,0.02,0.04,-0.64
2022-01-25 17:39:22.6570,0.169,-0.668,-1.004,-0.56,2.8,0.87,0.15,-0.09,-0.61
2022-01-25 17:39:22.6680,0.163,-0.665,-1.013,-0.5,2.75,0.88,0.46,-0.21,-0.42
2022-01-25 17:39:22.6780,0.17,-0.67,-1.041,-0.45,2.72,1.01,0.46,-0.21,-0.42
2022-01-25 17:39:22.6870,0.193,-0.685,-1.079,-0.57,2.76,1.35,0.64,-0.28,-0.27
2022-01-25 17:39:22.6980,0.223,-0.712,-1.083,-0.84,2.88,1.7,0.92,-0.25,0.11
2022-01-25 17:39:22.7070,0.249,-0.731,-1.08,-1.15,3.07,1.69,0.95,-0.28,0.21
2022-01-25 17:39:22.7180,0.268,-0.747,-1.122,-1.42,3.16,1.77,0.95,-0.28,0.21
2022-01-25 17:39:22.7270,0.263,-0.754,-1.189,-1.6,3.22,2.33,0.65,-0.6,0.1
2022-01-25 17:39:22.7380,0.244,-0.758,-1.248,-1.41,3.17,3.59,0.38,-0.76,-0.04
2022-01-25 17:39:22.7480,0.214,-0.75,-1.302,-1.41,3.17,3.59,0.11,-0.79,-0.16
2022-01-25 17:39:22.7570,0.141,-0.691,-1.325,-1.09,2.97,4.08,-0.1,-0.67,-0.21
2022-01-25 17:39:22.7680,0.071,-0.608,-1.343,-0.38,2.27,4.24,-0.25,-0.5,-0.21
2022-01-25 17:39:22.7770,0.039,-0.522,-1.385,0.17,1.47,4.47,-0.31,-0.24,-0.2
2022-01-25 17:39:22.7880,0.025,-0.423,-1.393,0.5,-0.33,4.77,-0.31,-0.24,-0.2
2022-01-25 17:39:22.7980,0.016,-0.328,-1.356,0.5,-0.33,4.77,-0.3,0.34,-0.06
2022-01-25 17:39:22.8080,0.024,-0.259,-1.309,0.58,-1.18,4.34,-0.28,0.51,0.01
2022-01-25 17:39:22.8180,0.057,-0.226,-1.278,0.47,-1.75,3.9,-0.29,0.56,0.02
2022-01-25 17:39:22.8280,0.099,-0.207,-1.255,-0.22,-2.15,3.37,-0.29,0.56,0.02
2022-01-25 17:39:22.8380,0.144,-0.185,-1.227,-0.22,-2.15,3.37,-0.31,0.51,-0.03
2022-01-25 17:39:22.8480,0.19,-0.185,-1.182,-0.63,-2.3,3.1,-0.19,0.45,0.04
2022-01-25 17:39:22.8580,0.205,-0.203,-1.078,-0.98,-2.21,2.48,-0.04,0.5,0.18
2022-01-25 17:39:22.8680,0.218,-0.214,-0.996,-1.05,-2.03,1.45,-0.04,0.5,0.18
2022-01-25 17:39:22.8780,0.234,-0.224,-0.94,-1.15,-1.92,0.74,0.14,0.54,0.33
2022-01-25 17:39:22.8880,0.25,-0.236,-0.901,-1.28,-1.84,0.23,0.43,0.38,0.63
2022-01-25 17:39:22.8980,0.26,-0.243,-0.877,-1.4,-1.77,-0.08,0.51,0.24,0.77
2022-01-25 17:39:22.9080,0.244,-0.275,-0.839,-1.46,-1.68,-0.31,0.51,0.24,0.77
2022-01-25 17:39:22.9180,0.228,-0.252,-0.813,-1.25,-1.49,-0.67,0.52,-0.14,0.68
2022-01-25 17:39:22.9280,0.201,-0.241,-0.797,-1.17,-1.86,-0.83,0.45,-0.24,0.62
2022-01-25 17:39:22.9380,0.146,-0.262,-0.742,-0.84,-1.89,-1.05,0.45,-0.24,0.62
2022-01-25 17:39:22.9480,0.102,-0.265,-0.682,-0.37,-1.75,-1.63,0.36,-0.24,0.5359097719192505
2022-01-25 17:39:22.9580,0.066,-0.252,-0.63,0.0,-1.81,-2.18,0.15862080454826355,-0.13,0.54
2022-01-25 17:39:22.9680,0.046,-0.26,-0.579,0.43,-1.83,-3.16,0.06,0.28,0.53
2022-01-25 17:39:22.9780,0.041,-0.273,-0.535,0.43,-1.83,-3.16,-0.05,0.5,0.55
2022-01-25 17:39:22.9880,0.039,-0.284,-0.508,0.46,-1.72,-3.54,-0.16,0.5,0.55
2022-01-25 17:39:22.9990,0.037,-0.297,-0.481,0.55,-1.46,-4.06,-0.27,0.9,0.6
2022-01-25 17:39:23.0090,0.042,-0.314,-0.465,0.55,-1.46,-4.06,-0.39,0.98,0.62
2022-01-25 17:39:23.0180,0.059,-0.335,-0.476,0.54,-1.26,-4.16,-0.52,0.93,0.64
2022-01-25 17:39:23.0290,0.085,-0.35,-0.509,0.2,-0.87,-3.67,-0.52,0.93,0.64
2022-01-25 17:39:23.0380,0.105,-0.354,-0.539,0.2,-0.87,-3.67,-0.61,0.81,0.64
2022-01-25 17:39:23.0480,0.118,-0.35,-0.549,0.06,-0.8,-3.44,-0.65,0.67,0.63
2022-01-25 17:39:23.0580,0.124,-0.34,-0.547,-0.04,-0.87,-3.45,-0.66,0.49,0.59
2022-01-25 17:39:23.0690,0.124,-0.32,-0.542,-0.04,-0.87,-3.45,-0.68,0.46,0.57
2022-01-25 17:39:23.0780,0.119,-0.302,-0.539,-0.01,-1.03,-3.53,-0.73,0.46,0.56
2022-01-25 17:39:23.0890,0.111,-0.297,-0.548,0.13,-1.09,-3.47,-0.77,0.45,0.53
2022-01-25 17:39:23.0990,0.139,-0.3,-0.584,0.13,-1.09,-3.47,-0.75,0.36,0.47
2022-01-25 17:39:23.1090,0.192,-0.307,-0.681,-0.25,-0.97,-2.96,-0.75,0.36,0.47
2022-01-25 17:39:23.1180,0.212,-0.3,-0.726,-0.79,-0.91,-1.81,-0.46,0.35,0.46
2022-01-25 17:39:23.1290,0.202,-0.286,-0.728,-0.79,-0.91,-1.81,-0.26,0.44,0.56
2022-01-25 17:39:23.1390,0.185,-0.28,-0.73,-0.65,-1.01,-1.81,-0.07,0.56,0.72
2022-01-25 17:39:23.1490,0.164,-0.285,-0.731,-0.45,-1.03,-1.8,-0.07,0.56,0.72
2022-01-25 17:39:23.1580,0.151,-0.299,-0.728,-0.23,-0.95,-1.8,0.12,0.81,0.94
2022-01-25 17:39:23.1690,0.15,-0.318,-0.73,-0.11,-0.82,-1.81,0.09,0.8,0.98
2022-01-25 17:39:23.1790,0.168,-0.356,-0.75,-0.09,-0.62,-1.75,0.09,0.8,0.98
2022-01-25 17:39:23.1890,0.21,-0.4,-0.789,-0.3,-0.22,-1.48,0.04,0.5,0.87
2022-01-25 17:39:23.1990,0.251,-0.466,-0.836,-0.72,0.19,-1.06,0.11,0.33,0.78
2022-01-25 17:39:23.2090,0.274,-0.526,-0.88,-1.07,0.89,-0.58,0.11,0.33,0.78
2022-01-25 17:39:23.2190,0.272,-0.543,-0.92,-1.24,1.34,-0.17,0.19,0.21,0.6320126056671143
2022-01-25 17:39:23.2290,0.253,-0.566,-0.955,-0.98,1.69,0.57,0.16,0.28,0.6
2022-01-25 17:39:23.2390,0.234,-0.599,-0.979,-0.98,1.69,0.57,0.05,0.4,0.55
2022-01-25 17:39:23.2490,0.228,-0.627,-1.005,-0.83,1.99,0.79,-0.09,0.55,0.51
2022-01-25 17:39:23.2590,0.222,-0.652,-1.035,-0.76,2.24,1.08,-0.2,0.65,0.49
2022-01-25 17:39:23.2690,0.218,-0.69,-1.071,-0.67,2.5,1.38,-0.2,0.65,0.49
2022-01-25 17:39:23.2790,0.228,-0.756,-1.12,-0.61,2.95,1.76,-0.24,0.59,0.62
2022-01-25 17:39:23.2890,0.265,-0.835,-1.173,-0.74,3.66,2.28,-0.24,0.59,0.62
2022-01-25 17:39:23.2990,0.291,-0.921,-1.217,-1.09,4.48,2.76,0.0,0.16,0.9
2022-01-25 17:39:23.3090,0.296,-0.963,-1.254,-1.3,5.48,3.54,0.0,0.16,0.9
2022-01-25 17:39:23.3190,0.272,-0.915,-1.299,-1.3,5.48,3.54,0.13,-0.2,0.93
2022-01-25 17:39:23.3370,0.212,-0.799,-1.348,-0.48,3.61,4.42,0.15,-0.61,0.82
2022-01-25 17:39:23.3390,0.142,-0.728,-1.357,-0.48,3.61,4.42,-0.1,-0.84,0.47
2022-01-25 17:39:23.3480,0.083,-0.681,-1.36,0.54,2.53,4.5,-0.1,-0.84,0.47
2022-01-25 17:39:23.3580,0.048,-0.602,-1.378,0.54,2.53,4.5,-0.31,-0.38,0.02
2022-01-25 17:39:23.3680,0.046,-0.515,-1.398,0.73,1.71,4.66,-0.37,-0.07,-0.27
2022-01-25 17:39:23.3780,0.072,-0.432,-1.404,0.38,0.11,4.82,-0.42,0.2,-0.57
2022-01-25 17:39:23.3880,0.093,-0.331,-1.396,0.26,-0.9,4.71,-0.42,0.2,-0.57
2022-01-25 17:39:23.3980,0.094,-0.215,-1.367,0.26,-0.9,4.71,-0.45,0.67,-0.95
2022-01-25 17:39:23.4080,0.086,-0.128,-1.312,0.52,-2.66,3.77,-0.45,0.67,-0.95
2022-01-25 17:39:23.4180,0.092,-0.07,-1.263,0.55,-3.14,3.31,-0.19,0.77,-0.81
2022-01-25 17:39:23.4290,0.095,-0.026,-1.215,0.55,-3.5122356238961223,2.8155308157205585,-0.19,0.77,-0.81
2022-01-25 17:39:23.4380,0.088,0.007,-1.151,0.64,-3.52,2.81,0.05,0.62,-0.64
2022-01-25 17:39:23.4480,0.072,0.025,-1.083,0.81,-3.81,2.17,0.5,0.12,-0.33
2022-01-25 17:39:23.4600,0.046,0.014,-0.997,1.31,-3.82,0.61,0.65,-0.05,-0.26
2022-01-25 17:39:23.4700,0.027,-0.013,-0.892,1.31,-3.82,0.61,0.65,-0.05,-0.26
2022-01-25 17:39:23.4800,0.012,-0.052,-0.795,1.48,-3.58,-0.39,0.7582083344459534,-0.09,-0.22
2022-01-25 17:39:23.4900,-0.003,-0.104,-0.7,1.64,-3.22,-1.31,0.703765869140625,-0.09,-0.22
2022-01-25 17:39:23.5000,-0.006,-0.16,-0.628,1.76,-2.75,-2.16,0.59,0.16,-0.23
2022-01-25 17:39:23.5100,0.006,-0.213,-0.57,1.76,-2.27,-2.81,0.45,0.3,-0.24
2022-01-25 17:39:23.5190,0.032,-0.27,-0.537,1.64,-1.79,-3.31,0.31,0.38,-0.28
2022-01-25 17:39:23.5290,0.06,-0.318,-0.529,1.18,-0.87,-3.57,0.2,0.37,-0.37
2022-01-25 17:39:23.5390,0.084,-0.342,-0.53,1.18,-0.87,-3.57,0.2,0.37,-0.37
2022-01-25 17:39:23.5500,0.106,-0.358,-0.541,0.99,-0.67,-3.51,0.13,0.28,-0.5
2022-01-25 17:39:23.5590,0.128,-0.365,-0.546,0.83,-0.53,-3.4,0.08,-0.02,-0.81
2022-01-25 17:39:23.5700,0.153,-0.357,-0.545,0.41,-0.58,-3.38,0.08,-0.14,-0.94
2022-01-25 17:39:23.5790,0.182,-0.342,-0.538,0.41,-0.58,-3.38,0.08,-0.2,-1.01
2022-01-25 17:39:23.5890,0.204,-0.319,-0.528,0.17,-0.74,-3.46,0.08,-0.2,-1.01
2022-01-25 17:39:23.5990,0.228,-0.302,-0.512,-0.02,-0.94,-3.58,0.07,-0.16,-1.02
2022-01-25 17:39:23.6090,0.25,-0.288,-0.509,-0.23,-1.08,-3.72,-0.04,0.06,-0.89
2022-01-25 17:39:23.6190,0.262,-0.277,-0.518,-0.39,-1.19,-3.71,-0.04,0.06,-0.89
2022-01-25 17:39:23.6290,0.268,-0.272,-0.523,-0.45,-1.27,-3.63,-0.12,0.19,-0.78
2022-01-25 17:39:23.6390,0.268,-0.271,-0.541,-0.44,-1.27,-3.56,-0.2,0.28,-0.68
2022-01-25 17:39:23.6500,0.263,-0.277,-0.572,-0.39,-1.24,-3.34,-0.34,0.27,-0.46
2022-01-25 17:39:23.6600,0.256,-0.296,-0.598,-0.27,-1.1,-3.05,-0.36,0.17,-0.35
2022-01-25 17:39:23.6700,0.255,-0.312,-0.627,-0.18,-0.87,-2.8,-0.36,0.17,-0.35
2022-01-25 17:39:23.6800,0.257,-0.332,-0.649,-0.15,-0.68,-2.53,-0.35,0.06,-0.24
2022-01-25 17:39:23.6900,0.256,-0.362,-0.665,-0.14,-0.07,-2.2,-0.31,-0.11,0.05
2022-01-25 17:39:23.7010,0.245,-0.398,-0.69,-0.14,-0.07,-2.2,-0.2560264468193054,-0.14,0.2
2022-01-25 17:39:23.7100,0.219,-0.434,-0.719,0.0,0.32,-1.94,-0.15,-0.13,0.32
2022-01-25 17:39:23.7210,0.189,-0.452,-0.749,0.26,0.65,-1.67,-0.023911457508802414,-0.05,0.4
2022-01-25 17:39:23.7300,0.162,-0.482,-0.759,0.52,0.83,-1.45,0.1,0.02,0.44
2022-01-25 17:39:23.7400,0.147,-0.505,-0.792,0.75,1.13,-1.27,0.23,0.07,0.42
2022-01-25 17:39:23.7500,0.131,-0.525,-0.81,0.87,1.31,-0.99,0.36,0.13,0.38
2022-01-25 17:39:23.7610,0.12,-0.55,-0.818,1.1,1.73,-0.78,0.45,0.21,0.36
2022-01-25 17:39:23.7710,0.119,-0.59,-0.807,1.1,1.73,-0.78,0.5,0.27,0.35
2022-01-25 17:39:23.7810,0.126,-0.631,-0.796,1.09,2.09,-0.88,0.5,0.27,0.35
2022-01-25 17:39:23.7910,0.131,-0.658,-0.804,1.03,2.59429761081934,-0.771077590584755,0.48,0.28,0.33
2022-01-25 17:39:23.8000,0.132,-0.665,-0.827,1.0,2.59,-0.78,0.17,0.07,0.12
2022-01-25 17:39:23.8100,0.132,-0.643,-0.869,1.0,2.56,-0.49,0.17,0.07,0.12
2022-01-25 17:39:23.8210,0.122,-0.605,-0.924,1.02,2.27,-0.04,-0.09,-0.07,-0.05
2022-01-25 17:39:23.8310,0.118,-0.563,-0.981,1.12,1.89,0.51,-0.62,-0.06,-0.36
2022-01-25 17:39:23.8410,0.144,-0.54,-1.039,1.11,1.56,1.06,-0.86,0.13,-0.44
2022-01-25 17:39:23.8500,0.212,-0.548,-1.096,0.76,1.45,1.59,-1.04,0.39,-0.39
2022-01-25 17:39:23.8610,0.303,-0.61,-1.166,0.05,1.75,2.14,-1.13,0.67,-0.23
2022-01-25 17:39:23.8710,0.399,-0.684,-1.25,-0.81,2.54,2.84,-1.12,0.78,-0.04
2022-01-25 17:39:23.8810,0.505,-0.749,-1.366,-1.71,3.35,3.68,-1.0,0.7,0.1
2022-01-25 17:39:23.8900,0.603,-0.804,-1.49,-2.68,4.07,4.89,-0.82,0.5,0.17
2022-01-25 17:39:23.9010,0.665,-0.814,-1.573,-3.53,4.62,6.0,-0.6,0.28,0.22
2022-01-25 17:39:23.9110,0.676,-0.761,-1.608,-3.98,4.63,6.69,-0.6,0.28,0.22
2022-01-25 17:39:23.9210,0.656,-0.662,-1.604,-3.96,4.02,6.9,-0.36,0.14,0.25
2022-01-25 17:39:23.9310,0.643,-0.557,-1.572,-3.75,3.03,6.79,0.08,0.07,0.32
2022-01-25 17:39:23.9410,0.638,-0.458,-1.527,-3.66,2.02,6.42,0.08,0.07,0.32
2022-01-25 17:39:23.9510,0.624,-0.353,-1.479,-3.61,1.03,5.98,0.32,0.06,0.43
2022-01-25 17:39:23.9610,0.587,-0.22,-1.429,-3.43,-0.09,5.51,0.41,0.04,0.52
2022-01-25 17:39:23.9710,0.532,-0.094,-1.366,-3.01,-1.47,5.01,0.5,0.0,0.62
2022-01-25 17:39:23.9810,0.486,-0.007,-1.294,-2.49,-2.67,4.38,0.6,-0.04,0.73
2022-01-25 17:39:23.9910,0.45,0.041,-1.211,-2.1,-3.48,3.66,0.7,-0.08,0.84
2022-01-25 17:39:24.0020,0.424,0.049,-1.117,-1.79,-3.93,2.84,0.77,-0.13,0.94
2022-01-25 17:39:24.0110,0.411,0.023,-1.019,-1.61,-4.0,1.92,0.81,-0.2,1.03
2022-01-25 17:39:24.0220,0.39,-0.012,-0.924,-1.53,-3.79,0.99,0.81,-0.29,1.1
2022-01-25 17:39:24.0320,0.349,-0.038,-0.836,-1.34,-3.54,0.08,0.76,-0.39,1.13
2022-01-25 17:39:24.0410,0.297,-0.052,-0.761,-0.96,-3.43,-0.72,0.76,-0.39,1.13
2022-01-25 17:39:24.0510,0.251,-0.068,-0.706,-0.53,-3.37,-1.4,0.53,-0.62,1.04
2022-01-25 17:39:24.0610,0.206,-0.083,-0.671,-0.18,-3.31,-1.86,0.35,-0.68,0.95
2022-01-25 17:39:24.0720,0.156,-0.103,-0.642,0.16,-3.21,-2.18,0.1891571432352066,-0.68,0.95
2022-01-25 17:39:24.0820,0.097,-0.123,-0.612,0.59,-3.06,-2.45,0.06,-0.5,0.76
2022-01-25 17:39:24.0910,0.054,-0.144,-0.573,1.06,-2.9,-2.79,-0.03,-0.32,0.72
2022-01-25 17:39:24.1020,0.035,-0.18,-0.542,1.35,-2.67,-3.16,-0.09,-0.15,0.71
2022-01-25 17:39:24.1110,0.026,-0.218,-0.516,1.44,-2.32,-3.46,-0.09,-0.15,0.74
2022-01-25 17:39:24.1220,0.016,-0.258,-0.489,1.49,-1.95,-3.71,-0.16,0.07,0.78
2022-01-25 17:39:24.1320,0.004,-0.293,-0.472,1.55,-1.55,-3.99,-0.15,0.07,0.82
2022-01-25 17:39:24.1420,-0.019,-0.318,-0.475,1.67,-1.23,-4.1,-0.09,-0.05,0.81
2022-01-25 17:39:24.1510,-0.037,-0.339,-0.496,1.87,-1.0,-4.04,-0.09,-0.05,0.81
2022-01-25 17:39:24.1610,-0.035,-0.365,-0.515,1.97,-0.8,-3.81,0.19,-0.46,0.64
2022-01-25 17:39:24.1720,-0.019,-0.376,-0.524,1.84,-0.57,-3.67,0.32,-0.65,0.51
2022-01-25 17:39:24.1820,-0.005,-0.375,-0.523,1.4,-0.59,-3.65,0.32,-0.65,0.51
2022-01-25 17:39:24.1920,0.007,-0.361,-0.505,1.4,-0.59,-3.65,0.37,-0.76,0.38
2022-01-25 17:39:24.2010,0.02,-0.347,-0.49,1.21,-0.79,-3.82,0.24,-0.72,0.13
2022-01-25 17:39:24.2120,0.031,-0.334,-0.479,1.0,-0.95,-3.96,0.1,-0.57,0.03
2022-01-25 17:39:24.2210,0.036,-0.325,-0.481,0.84,-1.09,-4.04,0.1,-0.57,0.03
2022-01-25 17:39:24.2320,0.035,-0.315,-0.5,0.76,-1.18,-3.97,-0.06,-0.19,0.01
2022-01-25 17:39:24.2420,0.04,-0.312,-0.535,0.73,-1.27,-3.77,-0.02,-0.12,0.03
2022-01-25 17:39:24.2520,0.058,-0.329,-0.583,0.63,-1.26,-3.37,-0.02,-0.12,0.03
2022-01-25 17:39:24.2620,0.078,-0.352,-0.631,0.43,-1.05,-2.91,0.07,-0.16,0.04
2022-01-25 17:39:24.2720,0.094,-0.376,-0.664,0.22,-0.83,-2.44,0.22,-0.4,0.03
2022-01-25 17:39:24.2820,0.108,-0.399,-0.686,0.05,-0.61,-2.17,0.22,-0.4,0.03
2022-01-25 17:39:24.2920,0.127,-0.431,-0.694,-0.13,-0.4,-1.97,0.1,-0.33,0.07
2022-01-25 17:39:24.3020,0.145,-0.47,-0.709,-0.36,-0.07,-1.9,0.1,-0.1806427538394928,0.09
2022-01-25 17:39:24.3120,0.151,-0.509,-0.733,-0.55,0.31,-1.72,-0.01,-0.18,0.09
2022-01-25 17:39:24.3220,0.153,-0.533,-0.781,-0.61,0.68,-1.45,-0.22,0.03,0.11
2022-01-25 17:39:24.3320,0.158,-0.559,-0.851,-0.64,0.89,-0.93,-0.27,0.02,0.18
2022-01-25 17:39:24.3420,0.168,-0.609,-0.942,-0.7,1.23,-0.2,-0.24,-0.09,0.27
2022-01-25 17:39:24.3520,0.187,-0.667,-1.033,-0.83,1.78,0.71,-0.24,-0.09,0.27
2022-01-25 17:39:24.3620,0.203,-0.718,-1.09,-1.04,2.36,1.54,-0.15,-0.2,0.35
2022-01-25 17:39:24.3720,0.213,-0.769,-1.107,-1.21,2.85,1.98,-0.07,-0.22,0.42
2022-01-25 17:39:24.3820,0.22,-0.83,-1.112,-1.34,3.39,2.09,-0.17,-0.08,0.55
2022-01-25 17:39:24.3930,0.22,-0.901,-1.11,-1.44,4.01,2.11,-0.17,-0.08,0.55
2022-01-25 17:39:24.4030,0.201,-0.945,-1.125,-1.42,4.71,2.09,-0.36,0.03,0.62
2022-01-25 17:39:24.4130,0.16,-0.934,-1.219,-1.22,5.04,2.35,-0.88,-0.33,0.46
2022-01-25 17:39:24.4220,0.101,-0.908,-1.346,-0.78,4.88,3.43,-1.1,-0.54,0.33
2022-01-25 17:39:24.4330,0.037,-0.926,-1.444,-0.25,4.8,4.58,-1.14,-0.61,0.25
2022-01-25 17:39:24.4420,-0.039,-0.907,-1.533,0.35,5.1,5.44,-0.94,-0.6,0.19
2022-01-25 17:39:24.4530,-0.111,-0.808,-1.624,1.05,4.78,6.27,-0.94,-0.6,0.19
2022-01-25 17:39:24.4620,-0.156,-0.673,-1.689,1.63,3.78,7.11,-0.13,-0.46,-0.14
2022-01-25 17:39:24.4720,-0.178,-0.51,-1.69,1.95,2.43,7.59,0.19,-0.31,-0.41
2022-01-25 17:39:24.4820,-0.176,-0.338,-1.648,2.1,0.78,7.46,0.19,-0.31,-0.41
2022-01-25 17:39:24.4920,-0.156,-0.198,-1.565,2.0,-0.86,6.95,0.36,-0.1,-0.62
2022-01-25 17:39:24.5020,-0.147,-0.081,-1.471,1.82,-2.18,6.09,0.41,0.11,-0.73
2022-01-25 17:39:24.5130,-0.147,0.023,-1.385,1.82,-3.35,5.2,0.48,0.28,-0.72
2022-01-25 17:39:24.5220,-0.143,0.093,-1.298,1.85,-4.32,4.38,0.48,0.28,-0.72
2022-01-25 17:39:24.5320,-0.148,0.132,-1.211,1.88,-4.98,3.55,0.53,0.23,-0.65
2022-01-25 17:39:24.5430,-0.168,0.144,-1.114,2.0,-5.33,2.7,0.61,0.14,-0.57
2022-01-25 17:39:24.5530,-0.196,0.133,-1.009,2.27,-5.44,1.75,0.7,0.02,-0.48
2022-01-25 17:39:24.5630,-0.213,0.101,-0.898,2.54,-5.34,0.72,0.79,-0.08,-0.42
2022-01-25 17:39:24.5730,-0.227,0.044,-0.785,2.71,-5.03,-0.34,0.75,-0.18,-0.39
2022-01-25 17:39:24.5830,-0.235,-0.034,-0.679,2.84,-4.48,-1.42,0.75,-0.18,-0.39
2022-01-25 17:39:24.5930,-0.233,-0.118,-0.597,2.9,-3.74,-2.37,0.62,-0.18,-0.42
2022-01-25 17:39:24.6030,-0.215,-0.189,-0.544,2.84,-3.0,-3.09,0.19,-0.19,-0.67
2022-01-25 17:39:24.6130,-0.187,-0.255,-0.513,2.64,-2.34,-3.53,0.19,-0.19,-0.67
2022-01-25 17:39:24.6230,-0.155,-0.297,-0.499,2.37,-1.73,-3.78,-0.03,-0.2,-1.0937743186950684
2022-01-25 17:39:24.6330,-0.116,-0.314,-0.498,2.07,-1.39,-3.88,-0.21,-0.19,-1.09
2022-01-25 17:39:24.6430,-0.068,-0.333,-0.504,1.69,-1.21,-3.89,-0.35,-0.15,-1.29
2022-01-25 17:39:24.6530,-0.02,-0.346,-0.52,1.25,-0.98,-3.82,-0.42,-0.11,-1.44
2022-01-25 17:39:24.6630,0.029,-0.343,-0.542,0.83,-0.84,-3.68,-0.39,-0.15,-1.62
2022-01-25 17:39:24.6730,0.075,-0.338,-0.56,0.41,-0.84,-3.46,-0.32,-0.17,-1.63
2022-01-25 17:39:24.6830,0.113,-0.332,-0.563,0.03,-0.84,-3.36,-0.32,-0.17,-1.63
2022-01-25 17:39:24.6930,0.138,-0.324,-0.567,-0.27,-0.86,-3.34,-0.18,-0.14,-1.48
2022-01-25 17:39:24.7040,0.151,-0.315,-0.567,-0.42,-0.89,-3.33,-0.1,-0.1,-1.37
2022-01-25 17:39:24.7130,0.16,-0.301,-0.571,-0.49,-0.97,-3.33,-0.1,-0.1,-1.2741180658340454
2022-01-25 17:39:24.7230,0.16,-0.286,-0.573,-0.52,-1.08,-3.29,-0.0,-0.09,-1.27
2022-01-25 17:39:24.7420,0.156,-0.272,-0.563,-0.39,-1.34,-3.41,0.1,-0.07,-1.18
2022-01-25 17:39:24.7520,0.156,-0.268,-0.548,-0.37,-1.35,-3.55,0.19,-0.06,-1.08
2022-01-25 17:39:24.7560,0.164,-0.278,-0.533,-0.37,-1.35,-3.55,0.25,-0.05,-0.98
2022-01-25 17:39:24.7630,0.171,-0.301,-0.521,-0.42,-1.22,-3.68,0.28,-0.05,-0.9
2022-01-25 17:39:24.7720,0.173,-0.319,-0.508,-0.45,-1.0,-3.79,0.27,-0.08,-0.77
2022-01-25 17:39:24.7830,0.171,-0.334,-0.502,-0.42,-0.87,-3.9,0.23,-0.09,-0.73
2022-01-25 17:39:24.7920,0.171,-0.36,-0.499,-0.37,-0.71,-3.94,0.16,-0.1,-0.7
2022-01-25 17:39:24.8020,0.181,-0.396,-0.51,-0.38,-0.43,-3.94,0.05,-0.12,-0.68
2022-01-25 17:39:24.8120,0.192,-0.436,-0.538,-0.47,-0.07,-3.79,-0.12,-0.12,-0.65
2022-01-25 17:39:24.8230,0.201,-0.48,-0.584,-0.55,0.34,-3.48,-0.12,-0.12,-0.65
2022-01-25 17:39:24.8340,0.208,-0.534,-0.66,-0.62,0.82,-2.97,-0.31,-0.14,-0.58
2022-01-25 17:39:24.8430,0.215,-0.584,-0.773,-0.69,1.4,-2.15,-0.5,-0.21,-0.5
2022-01-25 17:39:24.8530,0.213,-0.627,-0.9,-0.6862524716556072,2.4,0.21,-0.77,-0.34,-0.35
2022-01-25 17:39:24.8640,0.193,-0.666,-1.027,-0.49,2.84,1.44,-0.76,-0.3,-0.28
2022-01-25 17:39:24.8740,0.174,-0.693,-1.155,-0.49,2.84,1.44,-0.62,-0.12,-0.21
2022-01-25 17:39:24.8830,0.171,-0.706,-1.27,-0.35,3.13,2.62,-0.39,0.13,-0.14
2022-01-25 17:39:24.8940,0.177,-0.716,-1.365,-0.35,3.31,3.71,-0.16,0.41,-0.04
2022-01-25 17:39:24.9040,0.179,-0.715,-1.418,-0.4,3.43,4.53,-0.16,0.41,-0.04
2022-01-25 17:39:24.9140,0.181,-0.703,-1.44,-0.37,3.38,4.96,0.05,0.86,0.17
2022-01-25 17:39:24.9240,0.194,-0.724,-1.453,-0.34,3.31,5.15,0.05,0.86,0.17
2022-01-25 17:39:24.9340,0.208,-0.755,-1.478,-0.42,3.58,5.29,0.01,0.85,0.22
2022-01-25 17:39:24.9440,0.222,-0.796,-1.511,-0.58,4.33,5.91,-0.11,0.68,0.18
2022-01-25 17:39:24.9540,0.235,-0.838,-1.54,-0.58,4.33,5.91,-0.44,0.18,-0.12
2022-01-25 17:39:24.9640,0.239,-0.841,-1.571,-0.65,4.71,6.19,-0.44,0.18,-0.12
2022-01-25 17:39:24.9740,0.222,-0.778,-1.601,-0.63,4.65,6.48,-0.59,-0.04,-0.51
2022-01-25 17:39:24.9840,0.194,-0.652,-1.619,-0.4,3.91,6.75,-0.54,0.02,-0.61
2022-01-25 17:39:24.9940,0.182,-0.508,-1.612,-0.13,2.65,6.84,-0.38,0.19,-0.61
2022-01-25 17:39:25.0040,0.181,-0.35,-1.587,-0.03,1.27,6.7,-0.14,0.34,-0.51
2022-01-25 17:39:25.0150,0.193,-0.202,-1.552,0.0,-0.25,6.42,-0.14,0.34,-0.51
2022-01-25 17:39:25.0240,0.212,-0.105,-1.497,-0.11,-1.58,6.04,0.15,0.38,-0.32
2022-01-25 17:39:25.0340,0.229,-0.05,-1.421,-0.25,-2.42,5.46,0.47,0.25,-0.06
2022-01-25 17:39:25.0440,0.245,-0.018,-1.32,-0.38,-2.94,4.68,0.76,-0.02,0.21
2022-01-25 17:39:25.0540,0.262,-0.021,-1.195,-0.57,-3.25,3.65,1.15,-0.55,0.69
2022-01-25 17:39:25.0640,0.27,-0.045,-1.059,-0.77,-3.26,2.41,1.15,-0.55,0.69
2022-01-25 17:39:25.0740,0.267,-0.077,-0.926,-0.9,-3.1,1.1,1.22,-0.71,0.84
2022-01-25 17:39:25.0840,0.254,-0.107,-0.803,-0.94,-2.91,-0.16,1.21,-0.77,0.91
2022-01-25 17:39:25.0940,0.236,-0.128,-0.704,-0.89,-2.76,-1.28,1.12,-0.79,0.89
2022-01-25 17:39:25.1040,0.216,-0.15,-0.625,-0.81,-2.67,-2.17,0.96,-0.82,0.65
2022-01-25 17:39:25.1140,0.197,-0.161,-0.573,-0.73,-2.55,-2.86,0.72,-0.82,0.65
2022-01-25 17:39:25.1240,0.175,-0.157,-0.539,-0.63,-2.55,-3.29,0.42,-0.81,0.48
2022-01-25 17:39:25.1340,0.157,-0.158,-0.516,-0.51,-2.63,-3.59,-0.21,-0.53,0.23
2022-01-25 17:39:25.1440,0.146,-0.172,-0.503,-0.43,-2.6,-3.8,-0.41,-0.32,0.19
2022-01-25 17:39:25.1540,0.138,-0.186,-0.514,-0.33,-2.28,-3.76,-0.41,-0.32,0.19
2022-01-25 17:39:25.1650,0.126,-0.191,-0.538,-0.33,-2.28,-3.76,-0.35,0.04,0.34
2022-01-25 17:39:25.1750,0.118,-0.203,-0.552,-0.22,-2.19,-3.55,-0.15,0.11,0.51
2022-01-25 17:39:25.1850,0.124,-0.236,-0.559,-0.2,-2.0,-3.45,0.07,0.07,0.67
2022-01-25 17:39:25.1950,0.129,-0.275,-0.556,-0.27,-1.63,-3.4,0.07,0.07,0.67
2022-01-25 17:39:25.2030,0.136,-0.306,-0.544,-0.35,-1.27,-3.45,0.31,-0.19,0.82
2022-01-25 17:39:25.2150,0.141,-0.336,-0.515,-0.45,-1.01,-3.6,0.31,-0.19,0.82
2022-01-25 17:39:25.2250,0.138,-0.348,-0.486,-0.54,-0.76,-3.9,0.26,-0.35,0.69
2022-01-25 17:39:25.2340,0.13,-0.338,-0.468,-0.55,-0.75,-4.14,0.26,-0.35,0.69
2022-01-25 17:39:25.2450,0.122,-0.326,-0.461,-0.53,-0.89,-4.29,0.15,-0.34,0.57
2022-01-25 17:39:25.2550,0.114,-0.313,-0.457,-0.51,-1.02,-4.34,0.05,-0.25,0.43
2022-01-25 17:39:25.2650,0.108,-0.293,-0.467,-0.47,-1.17,-4.36,-0.05,-0.12,0.28
2022-01-25 17:39:25.2750,0.107,-0.277,-0.477,-0.44,-1.36,-4.24,-0.1,0.07,0.17
2022-01-25 17:39:25.2850,0.11,-0.274,-0.495,-0.45,-1.48,-4.15,-0.11,0.37,0.07
2022-01-25 17:39:25.2950,0.114,-0.275,-0.522,-0.45,-1.48,-3.94,-0.08,0.42,0.04
2022-01-25 17:39:25.3050,0.125,-0.286,-0.543,-0.48,-1.45,-3.69,-0.08,0.42,0.04
2022-01-25 17:39:25.3150,0.131,-0.309,-0.566,-0.57,-1.06,-3.26,-0.11,0.36,-0.02
2022-01-25 17:39:25.3250,0.14,-0.336,-0.592,-0.57,-1.06,-3.26,-0.18,0.26,-0.05
2022-01-25 17:39:25.3350,0.151,-0.375,-0.629,-0.63,-0.75,-2.99,-0.18,0.15,-0.07
2022-01-25 17:39:25.3450,0.165,-0.413,-0.673,-0.73,-0.33,-2.61,-0.25,0.15,-0.07
2022-01-25 17:39:25.3550,0.183,-0.437,-0.724,-0.86,0.03,-2.16,-0.35,0.03,-0.08
2022-01-25 17:39:25.3650,0.199,-0.463,-0.774,-1.03,0.28,-1.68,-0.35,0.03,-0.08
2022-01-25 17:39:25.3750,0.2,-0.487,-0.828,-1.15,0.58,-1.2,-0.39,0.08,-0.01
2022-01-25 17:39:25.3850,0.191,-0.501,-0.885,-1.11,0.82,-0.67,-0.38,0.2,0.1
2022-01-25 17:39:25.3950,0.192,-0.523,-0.95,-1.03,1.0,-0.12,-0.33,0.34,0.26
2022-01-25 17:39:25.4060,0.199,-0.555,-1.022,-1.03,1.28,0.54,-0.25,0.43,0.48
2022-01-25 17:39:25.4150,0.207,-0.59,-1.096,-1.1,1.62,1.25,-0.17,0.37,0.88
2022-01-25 17:39:25.4250,0.206,-0.63,-1.145,-1.15,1.97,1.94,-0.17,0.37,0.88
2022-01-25 17:39:25.4350,0.2,-0.688,-1.163,-1.12,2.42,2.33,-0.34,0.42,1.12
2022-01-25 17:39:25.4450,0.198,-0.777,-1.176,-1.08,3.06,2.46,-0.34,0.42,1.12
2022-01-25 17:39:25.4550,0.194,-0.87,-1.204,-1.06,4.01,2.6,-0.45,0.5,1.19
2022-01-25 17:39:25.4650,0.181,-0.927,-1.256,-1.01,4.9,2.9,-0.65,0.29,1.18
2022-01-25 17:39:25.4750,0.146,-0.921,-1.359,-0.85,5.36,3.51,-0.83,-0.02,1.07
2022-01-25 17:39:25.4850,0.085,-0.895,-1.479,-0.46,5.23,4.59,-0.83,-0.02,1.07
2022-01-25 17:39:25.4960,0.023,-0.882,-1.571,0.13,5.11,5.68,-0.95,-0.22,0.91
2022-01-25 17:39:25.5050,-0.031,-0.812,-1.657,0.66,4.99,6.51,-0.8,-0.03,0.3
2022-01-25 17:39:25.5150,-0.096,-0.693,-1.688,1.15,4.19,7.27,-0.8,-0.03,0.3
2022-01-25 17:39:25.5250,-0.105,-0.502,-1.751,1.77,2.99,7.45,0.17,0.16,-0.38
2022-01-25 17:39:25.5350,-0.053,-0.319,-1.707,1.61,1.01,8.12,0.17,0.16,-0.38
2022-01-25 17:39:25.5460,-0.025,-0.219,-1.561,1.16,-0.6,7.17,0.38,0.97,-0.57
2022-01-25 17:39:25.5550,-0.002,-0.106,-1.482,1.01,-1.51,5.91,0.38,0.97,-0.57
2022-01-25 17:39:25.5660,0.009,-0.006,-1.421,0.94,-3.58,4.67,0.57,1.0,-0.3
2022-01-25 17:39:25.5760,0.001,0.042,-1.361,0.94,-3.58,4.67,0.71,0.72,-0.13
2022-01-25 17:39:25.5860,-0.037,0.087,-1.298,1.19,-4.08,4.13,0.71,0.72,-0.13
2022-01-25 17:39:25.5960,-0.1,0.106,-1.211,1.71,-4.54,3.49,0.99,0.12,0.07
2022-01-25 17:39:25.6060,-0.172,0.112,-1.115,2.38,-4.75,2.65,1.1,-0.05,0.05
2022-01-25 17:39:25.6160,-0.239,0.114,-1.0,3.1,-4.9,1.7,1.16,-0.13,-0.04
2022-01-25 17:39:25.6260,-0.282,0.091,-0.878,3.71,-4.96,0.58,1.14,-0.11,-0.18
2022-01-25 17:39:25.6360,-0.299,0.046,-0.756,4.06,-4.78,-0.57,1.14,-0.11,-0.18
2022-01-25 17:39:25.6460,-0.296,-0.022,-0.64,4.17,-4.38,-1.73,0.83,0.1,-0.51
2022-01-25 17:39:25.6560,-0.276,-0.103,-0.542,4.11,-3.75,-2.78,0.57,0.21,-0.69
2022-01-25 17:39:25.6670,-0.239,-0.184,-0.474,3.9,-3.01,-3.65,0.3,0.25,-0.91
2022-01-25 17:39:25.6760,-0.193,-0.254,-0.442,3.56,-2.27,-4.2,0.05,0.19,-1.15
2022-01-25 17:39:25.6860,-0.146,-0.309,-0.437,3.15,-1.62,-4.43,-0.15,0.05,-1.38
2022-01-25 17:39:25.6960,-0.102,-0.34,-0.446,2.77,-1.12,-4.43,-0.27,-0.13,-1.62
2022-01-25 17:39:25.7060,-0.063,-0.345,-0.468,2.09,-0.8,-4.12,-0.33,-0.28,-1.84
2022-01-25 17:39:25.7170,-0.025,-0.338,-0.479,2.09,-0.8,-4.12,-0.33,-0.28,-1.84
2022-01-25 17:39:25.7260,0.016,-0.33,-0.486,1.41,-0.83,-4.01,-0.38,-0.38,-2.14
2022-01-25 17:39:25.7370,0.055,-0.316,-0.492,1.09,-0.91,-3.97,-0.4,-0.33,-2.19
2022-01-25 17:39:25.7470,0.091,-0.298,-0.501,1.09,-0.91,-3.97,-0.4,-0.24,-2.19
2022-01-25 17:39:25.7560,0.121,-0.278,-0.515,0.8,-1.01,-3.89,-0.36,-0.16,-2.11
2022-01-25 17:39:25.7670,0.144,-0.252,-0.533,0.58,-1.15,-3.76,-0.36,-0.16,-2.11
2022-01-25 17:39:25.7760,0.162,-0.23,-0.551,0.44,-1.34,-3.6,-0.29,-0.09,-1.97
2022-01-25 17:39:25.7860,0.179,-0.223,-0.572,0.33,-1.45,-3.44,-0.06,-0.1,-1.58
2022-01-25 17:39:25.7960,0.187,-0.229,-0.592,0.23,-1.43,-3.23,-0.06,-0.1,-1.58
2022-01-25 17:39:25.8060,0.188,-0.234,-0.598,0.26,-1.28,-3.03,0.26,-0.25,-1.28
2022-01-25 17:39:25.8170,0.188,-0.23,-0.595,0.29,-1.32,-3.1,0.26,-0.25,-1.28
2022-01-25 17:39:25.8260,0.186,-0.232,-0.578,0.29,-1.32,-3.1,0.35,-0.35,-1.17
2022-01-25 17:39:25.8360,0.192,-0.24,-0.557,0.31,-1.28,-3.26,0.35,-0.35,-1.17
2022-01-25 17:39:25.8460,0.208,-0.258,-0.536,0.24,-1.18,-3.48,0.1,-0.31,-1.14
2022-01-25 17:39:25.8560,0.235,-0.289,-0.524,0.06,-0.97,-3.66,0.1,-0.31,-1.14
2022-01-25 17:39:25.8670,0.263,-0.332,-0.533,-0.2,-0.61,-3.76,-0.1,-0.25,-1.09
2022-01-25 17:39:25.8770,0.277,-0.378,-0.568,-0.44,-0.15,-3.6,-0.3,-0.21,-1.04
2022-01-25 17:39:25.8860,0.281,-0.419,-0.618,-0.53,0.36,-3.23,-0.48,-0.17,-1.02
2022-01-25 17:39:25.8970,0.278,-0.455,-0.688,-0.53,0.81,-2.74,-0.62,-0.16,-1.02
2022-01-25 17:39:25.9070,0.272,-0.494,-0.787,-0.46,1.24,-1.97,-0.58,-0.27,-0.95
2022-01-25 17:39:25.9170,0.292,-0.533,-0.875,-0.42,1.72,-1.05,-0.43,-0.38,-0.91
2022-01-25 17:39:25.9260,0.33,-0.551,-0.956,-0.69,2.14,-0.22,-0.43,-0.38,-0.91
2022-01-25 17:39:25.9370,0.361,-0.556,-1.017,-1.08,2.34,0.5,-0.32,-0.45,-0.88
2022-01-25 17:39:25.9470,0.375,-0.543,-1.083,-1.35,2.4,1.08,-0.31,-0.43,-0.84
2022-01-25 17:39:25.9570,0.385,-0.519,-1.155,-1.47,2.28,1.7,-0.42,-0.28,-0.75
2022-01-25 17:39:25.9670,0.403,-0.489,-1.247,-1.59,2.09,2.44,-0.72,0.28,-0.48
2022-01-25 17:39:25.9770,0.418,-0.45,-1.34,-1.75,1.84,3.36,-0.84,0.59,-0.27
2022-01-25 17:39:25.9870,0.427,-0.434,-1.416,-1.83,1.54,4.21,-0.84,0.59,-0.27
2022-01-25 17:39:25.9970,0.443,-0.477,-1.489,-1.87,1.61,4.93,-0.86,0.84,-0.01
2022-01-25 17:39:26.0070,0.466,-0.543,-1.571,-1.96,2.21,5.67,-0.48,0.84,0.42
2022-01-25 17:39:26.0180,0.505,-0.605,-1.643,-2.15,2.91,6.46,-0.48,0.84,0.42
2022-01-25 17:39:26.0270,0.561,-0.664,-1.687,-2.51,3.54,7.14,-0.27,0.61,0.46
2022-01-25 17:39:26.0380,0.606,-0.707,-1.676,-3.02,4.13,7.45,-0.16,0.29,0.41
2022-01-25 17:39:26.0480,0.613,-0.68,-1.649,-3.37,4.43,7.26,-0.16,0.29,0.41
2022-01-25 17:39:26.0570,0.585,-0.591,-1.635,-3.31,3.98,7.01,-0.01,0.19,0.53
2022-01-25 17:39:26.0670,0.553,-0.478,-1.622,-2.99,3.02,6.91,0.22,0.19,0.67
2022-01-25 17:39:26.0780,0.528,-0.363,-1.589,-2.7,1.86,6.75,0.52,0.19,0.84
2022-01-25 17:39:26.0880,0.495,-0.258,-1.536,-2.45,0.74,6.38,0.84,0.11,1.05
2022-01-25 17:39:26.0970,0.447,-0.149,-1.476,-2.09,-0.38,5.86,0.84,0.11,1.05
2022-01-25 17:39:26.1070,0.387,-0.04,-1.409,-1.62,-1.55,5.29,1.31,-0.35,1.37
2022-01-25 17:39:26.1170,0.317,0.054,-1.34,-1.04,-2.74,4.64,1.31,-0.35,1.37
2022-01-25 17:39:26.1270,0.253,0.117,-1.262,-0.43,-3.75,3.98,1.41,-0.63,1.41
2022-01-25 17:39:26.1380,0.207,0.148,-1.164,0.07,-4.45,3.2,1.41,-0.84,1.19
2022-01-25 17:39:26.1470,0.188,0.14,-1.046,0.34,-4.83,2.21,1.32,-0.7,1.01
2022-01-25 17:39:26.1570,0.179,0.11,-0.926,0.35,-4.82,1.06,1.32,-0.7,1.01
2022-01-25 17:39:26.1670,0.165,0.08,-0.806,0.36,-4.65,-0.09,1.02,-0.15,0.67
2022-01-25 17:39:26.1770,0.157,0.055,-0.699,0.43,-4.49,-1.22,1.02,-0.15,0.67
2022-01-25 17:39:26.1870,0.167,0.018,-0.616,0.44,-4.33,-2.17,0.55,0.21,0.46
2022-01-25 17:39:26.1980,0.19,-0.03,-0.557,0.29,-4.0,-2.9,0.29,0.24,0.42
2022-01-25 17:39:26.2080,0.214,-0.083,-0.52,0.05,-3.57,-3.39,0.02,0.16,0.43
2022-01-25 17:39:26.2180,0.224,-0.136,-0.504,-0.16,-3.06,-3.69,-0.21,0.04,0.48
2022-01-25 17:39:26.2270,0.217,-0.178,-0.499,-0.22,-2.58,-3.81,-0.36,-0.1,0.55
2022-01-25 17:39:26.2370,0.2,-0.209,-0.506,-0.14,-2.18,-3.84,-0.36,-0.1,0.55
2022-01-25 17:39:26.2480,0.175,-0.224,-0.516,0.02,-1.89,-3.76,-0.42,-0.26,0.69
2022-01-25 17:39:26.2580,0.148,-0.237,-0.521,0.22,-1.73,-3.71,-0.42,-0.26,0.69
2022-01-25 17:39:26.2680,0.122,-0.256,-0.517,0.44,-1.57,-3.7,-0.37,-0.27,0.74
2022-01-25 17:39:26.2780,0.096,-0.273,-0.516,0.64,-1.36,-3.75,-0.29,-0.26,0.77
2022-01-25 17:39:26.2880,0.076,-0.289,-0.507,0.83,-1.19,-3.79,-0.16,-0.22,0.7
2022-01-25 17:39:26.2980,0.066,-0.31,-0.494,0.95,-1.02,-3.91,-0.13,-0.23,0.6
2022-01-25 17:39:26.3080,0.06,-0.331,-0.489,1.0,-0.61,-4.07,-0.12,-0.28,0.5
2022-01-25 17:39:26.3180,0.057,-0.342,-0.492,0.97,-0.52,-4.05,-0.12,-0.28,0.5
2022-01-25 17:39:26.3270,0.058,-0.348,-0.493,0.97,-0.52,-4.05,-0.11,-0.32,0.4
2022-01-25 17:39:26.3360,0.056,-0.344,-0.504,0.93,-0.46,-4.05,-0.08,-0.4,0.24
2022-01-25 17:39:26.3470,0.062,-0.327,-0.516,0.89,-0.54,-3.92,-0.08,-0.4,0.24
2022-01-25 17:39:26.3560,0.065,-0.308,-0.519,0.78,-0.71,-3.84,-0.07,-0.37,0.14
2022-01-25 17:39:26.3620,0.068,-0.297,-0.519,0.74,-0.71,-3.85,-0.08,-0.3,0.04
2022-01-25 17:39:26.3720,0.075,-0.29,-0.518,0.69,-0.87,-3.83,-0.11,-0.17,-0.04
2022-01-25 17:39:26.3820,0.089,-0.296,-0.526,0.65,-0.95,-3.85,-0.16,-0.02,-0.1
2022-01-25 17:39:26.3920,0.111,-0.315,-0.556,0.56,-0.98,-3.85,-0.2,0.08,-0.17
2022-01-25 17:39:26.4020,0.144,-0.344,-0.597,0.42,-0.86,-3.73,-0.21,0.1,-0.23
2022-01-25 17:39:26.4130,0.183,-0.38,-0.64,0.2,-0.63,-3.41,-0.2,0.04,-0.28
2022-01-25 17:39:26.4230,0.221,-0.41,-0.679,-0.13,-0.29,-3.0,-0.22,-0.03,-0.29
2022-01-25 17:39:26.4330,0.248,-0.427,-0.725,-0.52,0.08,-2.59,-0.27,-0.08,-0.25
2022-01-25 17:39:26.4430,0.266,-0.444,-0.788,-0.87,0.37,-2.23,-0.32,-0.1,-0.14
2022-01-25 17:39:26.4530,0.289,-0.462,-0.862,-1.11,0.56,-1.74,-0.32,-0.12,0.0
2022-01-25 17:39:26.4630,0.31,-0.479,-0.948,-1.3,0.76,-1.12,-0.26,-0.17,0.14
2022-01-25 17:39:26.4730,0.318,-0.496,-1.023,-1.55,0.95,-0.36,-0.18,-0.23,0.25
2022-01-25 17:39:26.4830,0.304,-0.498,-1.083,-1.77,1.14,0.46,-0.12,-0.24,0.32
2022-01-25 17:39:26.4930,0.277,-0.493,-1.125,-1.83,1.29,1.15,-0.12,-0.16,0.38
2022-01-25 17:39:26.5030,0.256,-0.504,-1.156,-1.67,1.28,1.69,-0.17,0.02,0.42
2022-01-25 17:39:26.5130,0.257,-0.539,-1.179,-1.41,1.27,2.06,-0.27,0.3,0.48
2022-01-25 17:39:26.5230,0.272,-0.604,-1.212,-1.24,1.44,2.34,-0.35,0.61,0.6
2022-01-25 17:39:26.5330,0.3,-0.682,-1.256,-1.25,1.89,2.56,-0.37,0.84,0.78
2022-01-25 17:39:26.5430,0.332,-0.793,-1.292,-1.38,2.59,2.93,-0.31,0.93,1.03
2022-01-25 17:39:26.5530,0.341,-0.904,-1.331,-1.64,3.43,3.35,-0.21,0.78,1.3
2022-01-25 17:39:26.5630,0.28,-0.925,-1.42,-1.91,4.59,3.69,-0.14,0.28,1.48
2022-01-25 17:39:26.5730,0.16,-0.868,-1.551,-1.9,5.53,4.14,-0.18,-0.46,1.45
2022-01-25 17:39:26.5830,0.044,-0.84,-1.587,-1.21,5.46,5.18,-0.23,-0.93,1.29
2022-01-25 17:39:26.5930,-0.05,-0.798,-1.551,-0.12,4.91,6.32,-0.16,-0.92,1.01
2022-01-25 17:39:26.6030,-0.112,-0.668,-1.521,0.85,4.7,6.38,0.06,-0.57,0.58
2022-01-25 17:39:26.6130,-0.132,-0.506,-1.473,1.64,4.09,6.02,0.35,-0.1,0.07
2022-01-25 17:39:26.6230,-0.095,-0.389,-1.418,2.15,2.61,5.71,0.56,0.31,-0.37
2022-01-25 17:39:26.6330,-0.035,-0.314,-1.344,2.26,1.04,5.23,0.67,0.61,-0.67
2022-01-25 17:39:26.6430,-0.001,-0.212,-1.263,1.86,-0.01,4.7,0.69,0.78,-0.85
2022-01-25 17:39:26.6530,0.001,-0.11,-1.192,1.42,-0.82,3.96,0.64,0.85,-0.91
2022-01-25 17:39:26.6630,-0.034,-0.034,-1.135,1.27,-1.93,3.23,0.54,0.8,-0.88
2022-01-25 17:39:26.6740,-0.101,0.027,-1.099,1.44,-2.89,2.57,0.44,0.69,-0.84
2022-01-25 17:39:26.6830,-0.17,0.059,-1.067,1.98,-3.62,2.11,0.37,0.51,-0.85
2022-01-25 17:39:26.6930,-0.229,0.06,-1.028,2.73,-4.19,1.78,0.35,0.36,-0.94
2022-01-25 17:39:26.7030,-0.268,0.049,-0.968,3.47,-4.42,1.5,0.37,0.29,-1.07
2022-01-25 17:39:26.7130,-0.291,0.034,-0.891,4.07,-4.4,1.08,0.4,0.3,-1.22
2022-01-25 17:39:26.7230,-0.301,0.022,-0.806,4.49,-4.28,0.47,0.4,0.38,-1.35
2022-01-25 17:39:26.7330,-0.297,0.002,-0.72,4.76,-4.16,-0.3,0.34,0.47,-1.46
2022-01-25 17:39:26.7430,-0.263,-0.045,-0.636,4.93,-4.03,-1.12,0.23,0.53,-1.54
2022-01-25 17:39:26.7530,-0.195,-0.121,-0.57,4.94,-3.77,-1.94,0.08,0.54,-1.62
2022-01-25 17:39:26.7630,-0.123,-0.192,-0.529,4.62,-3.19,-2.72,-0.09,0.5,-1.73
2022-01-25 17:39:26.7730,-0.064,-0.234,-0.494,4.03,-2.38,-3.3,-0.26,0.4,-1.89
2022-01-25 17:39:26.7830,-0.014,-0.251,-0.476,3.45,-1.67,-3.66,-0.41,0.28,-2.07
2022-01-25 17:39:26.7940,0.031,-0.248,-0.472,2.99,-1.23,-4.01,-0.53,0.12,-2.26
2022-01-25 17:39:26.8040,0.076,-0.233,-0.465,2.61,-1.01,-4.15,-0.6,-0.02,-2.44
2022-01-25 17:39:26.8140,0.128,-0.213,-0.462,2.26,-0.96,-4.21,-0.64,-0.15,-2.59
2022-01-25 17:39:26.8240,0.181,-0.195,-0.46,1.87,-1.01,-4.31,-0.66,-0.23,-2.67
2022-01-25 17:39:26.8340,0.234,-0.173,-0.46,1.41,-1.06,-4.34,-0.66,-0.25,-2.69
2022-01-25 17:39:26.8440,0.284,-0.151,-0.461,0.96,-1.11,-4.4,-0.65,-0.19,-2.6
2022-01-25 17:39:26.8540,0.323,-0.132,-0.474,0.5,-1.19,-4.42,-0.61,-0.12,-2.42
2022-01-25 17:39:26.8640,0.355,-0.115,-0.507,0.08,-1.27,-4.42,-0.56,-0.13,-2.17
2022-01-25 17:39:26.8740,0.389,-0.108,-0.54,-0.23,-1.34,-4.25,-0.47,-0.21,-1.9
2022-01-25 17:39:26.8840,0.415,-0.102,-0.565,-0.52,-1.39,-3.93,-0.36,-0.31,-1.63
2022-01-25 17:39:26.8940,0.427,-0.103,-0.573,-0.84,-1.36,-3.64,-0.27,-0.36,-1.34
2022-01-25 17:39:26.9040,0.427,-0.118,-0.592,-1.06,-1.35,-3.46,-0.19,-0.39,-1.06
2022-01-25 17:39:26.9140,0.424,-0.137,-0.615,-1.15,-1.26,-3.39,-0.13,-0.41,-0.8
2022-01-25 17:39:26.9240,0.424,-0.159,-0.638,-1.15,-1.05,-3.19,-0.08,-0.42,-0.6
2022-01-25 17:39:26.9340,0.427,-0.182,-0.66,-1.15,-0.84,-2.98,-0.06,-0.4,-0.47
2022-01-25 17:39:26.9410,0.43,-0.216,-0.679,-1.24,-0.34,-2.57,-0.1,-0.32,-0.36
2022-01-25 17:39:26.9530,0.424,-0.267,-0.72,-1.24,-0.34,-2.57,-0.18,-0.22,-0.25
2022-01-25 17:39:26.9620,0.419,-0.323,-0.78,-1.27,0.06,-2.39,-0.24,-0.09,-0.13
2022-01-25 17:39:26.9720,0.432,-0.379,-0.849,-1.2,0.61,-1.91,-0.23,0.03,-0.05
2022-01-25 17:39:26.9820,0.453,-0.435,-0.915,-1.18,1.19,-1.31,-0.15,0.14,-0.02
2022-01-25 17:39:26.9920,0.474,-0.484,-0.971,-1.33,1.75,-0.61,-0.05,0.23,0.0
2022-01-25 17:39:27.0030,0.492,-0.518,-1.029,-1.52,2.31,0.0,0.04,0.29,0.03
2022-01-25 17:39:27.0130,0.515,-0.551,-1.095,-1.85,3.06,1.14,0.08,0.29,0.08
2022-01-25 17:39:27.0230,0.539,-0.561,-1.178,-2.08,3.34,1.84,0.1,0.21,0.1
2022-01-25 17:39:27.0330,0.544,-0.542,-1.265,-2.08,3.34,1.84,0.09,0.1,0.1
2022-01-25 17:39:27.0430,0.522,-0.494,-1.341,-2.28,3.34,2.7,0.03,0.05,0.13
2022-01-25 17:39:27.0530,0.484,-0.426,-1.395,-1.97,2.55,4.23,-0.06,0.15,0.22
2022-01-25 17:39:27.0630,0.461,-0.393,-1.44,-1.57,1.91,4.73,-0.16,0.36,0.39
2022-01-25 17:39:27.0730,0.476,-0.43,-1.485,-1.4,1.75,5.18,-0.19,0.56,0.58
2022-01-25 17:39:27.0830,0.513,-0.497,-1.54,-1.4,1.75,5.18,-0.14,0.63,0.73
2022-01-25 17:39:27.0930,0.555,-0.543,-1.583,-1.59,2.25,5.65,-0.08,0.56,0.78
2022-01-25 17:39:27.1030,0.608,-0.578,-1.597,-2.33,3.25,6.57,-0.06,0.46,0.78
2022-01-25 17:39:27.1130,0.672,-0.603,-1.59,-2.87,3.56,6.66,-0.12,0.42,0.77
2022-01-25 17:39:27.1230,0.729,-0.589,-1.587,-2.87,3.56,6.66,-0.22,0.41,0.83
2022-01-25 17:39:27.1330,0.758,-0.52,-1.603,-3.48,3.75,6.58,-0.28,0.38,1.0
2022-01-25 17:39:27.1430,0.764,-0.411,-1.621,-4.2,2.63,6.79,-0.22,0.31,1.32
2022-01-25 17:39:27.1530,0.758,-0.302,-1.618,-4.2,2.63,6.79,-0.02,0.2,1.81
2022-01-25 17:39:27.1630,0.729,-0.195,-1.584,-4.24,1.46,6.95,0.35,-0.01,2.39
2022-01-25 17:39:27.1730,0.668,-0.093,-1.514,-4.22,0.3,6.84,0.8,-0.36,2.99
2022-01-25 17:39:27.1830,0.596,-0.007,-1.408,-3.49,-2.11,5.67,1.23,-0.81,3.49
2022-01-25 17:39:27.1930,0.526,0.06,-1.279,-3.49,-2.11,5.67,1.53,-1.25,3.82
2022-01-25 17:39:27.2030,0.455,0.117,-1.145,-2.6,-4.03,3.29,1.67,-1.63,3.99
2022-01-25 17:39:27.2130,0.381,0.15,-1.005,-2.6,-4.03,3.29,1.69,-1.87,4.02
2022-01-25 17:39:27.2230,0.32,0.147,-0.88,-2.19,-4.78,1.97,1.61,-1.96,3.95
2022-01-25 17:39:27.2330,0.268,0.118,-0.768,-1.81,-5.24,0.63,1.47,-1.9,3.78
2022-01-25 17:39:27.2430,0.221,0.097,-0.664,-1.35,-5.18,-1.58,1.28,-1.7,3.52
2022-01-25 17:39:27.2530,0.179,0.073,-0.574,-1.14,-5.11,-2.54,1.04,-1.45,3.24
2022-01-25 17:39:27.2640,0.156,0.038,-0.496,-1.14,-5.11,-2.54,0.73,-1.18,2.93
2022-01-25 17:39:27.2730,0.141,0.015,-0.443,-1.0,-4.64,-4.07,0.39,-0.95,2.63
2022-01-25 17:39:27.2830,0.125,-0.007,-0.41,-1.0,-4.64,-4.07,0.01,-0.8,2.37
2022-01-25 17:39:27.2930,0.104,-0.044,-0.408,-1.02,-4.45,-4.56,-0.37,-0.73,2.14
2022-01-25 17:39:27.3040,0.073,-0.055,-0.407,-0.94,-3.76,-4.85,-0.66,-0.7,1.9
2022-01-25 17:39:27.3140,0.041,-0.064,-0.422,-0.74,-3.61,-4.87,-0.86,-0.7,1.65
2022-01-25 17:39:27.3240,0.003,-0.07,-0.428,-0.74,-3.61,-4.87,-0.98,-0.65,1.39
2022-01-25 17:39:27.3330,-0.049,-0.068,-0.432,-0.22,-3.3,-4.76,-1.0,-0.52,1.16
2022-01-25 17:39:27.3440,-0.097,-0.061,-0.431,0.24,-3.24,-4.76,-0.93,-0.28,1.0
2022-01-25 17:39:27.3540,-0.115,-0.077,-0.432,0.24,-3.24,-4.76,-0.84,0.02,0.92
2022-01-25 17:39:27.3630,-0.1,-0.135,-0.445,0.63,-3.22,-4.81,-0.75,0.28,0.89
2022-01-25 17:39:27.3730,-0.074,-0.191,-0.474,0.71,-2.87,-4.81,-0.67,0.4,0.89
2022-01-25 17:39:27.3840,-0.072,-0.234,-0.498,0.29,-1.62,-4.39,-0.6,0.41,0.87
2022-01-25 17:39:27.3940,-0.089,-0.266,-0.513,0.29,-1.62,-4.39,-0.55,0.38,0.83
2022-01-25 17:39:27.4030,-0.112,-0.288,-0.537,0.34,-1.17,-4.21,-0.49,0.33,0.75
2022-01-25 17:39:27.4140,-0.129,-0.308,-0.561,0.54,-0.84,-4.07,-0.41,0.28,0.62
2022-01-25 17:39:27.4240,-0.143,-0.332,-0.588,0.76,-0.59,-3.86,-0.32,0.24,0.45
2022-01-25 17:39:27.4340,-0.154,-0.349,-0.606,0.92,-0.36,-3.61,-0.25,0.25,0.27
2022-01-25 17:39:27.4440,-0.161,-0.363,-0.624,1.06,-0.1,-3.38,-0.2,0.33,0.08
2022-01-25 17:39:27.4540,-0.15,-0.384,-0.637,1.29,0.23,-3.07,-0.17,0.49,-0.11
2022-01-25 17:39:27.4640,-0.128,-0.412,-0.663,1.21,0.47,-2.92,-0.17,0.7,-0.27
2022-01-25 17:39:27.4740,-0.106,-0.445,-0.699,1.21,0.47,-2.92,-0.18,0.89,-0.39
2022-01-25 17:39:27.4840,-0.084,-0.482,-0.742,1.09,0.78,-2.65,-0.18,0.89,-0.39
2022-01-25 17:39:27.4940,-0.062,-0.519,-0.783,0.99,1.13,-2.27,-0.18,1.14,-0.53
2022-01-25 17:39:27.5040,-0.038,-0.552,-0.824,0.81,1.89,-1.47,-0.16,1.18,-0.59
2022-01-25 17:39:27.5140,-0.012,-0.578,-0.873,0.81,1.89,-1.47,-0.11,1.13,-0.63
2022-01-25 17:39:27.5240,0.023,-0.611,-0.907,0.69,2.2,-1.05,-0.03,1.07,-0.62
2022-01-25 17:39:27.5340,0.071,-0.635,-0.964,0.54,2.48,-0.58,-0.03,1.07,-0.62
2022-01-25 17:39:27.5440,0.129,-0.652,-1.024,0.27,2.8,-0.24,0.05,0.7,-0.39
2022-01-25 17:39:27.5540,0.183,-0.659,-1.072,-0.16,3.0,0.39,0.06,0.41,-0.22
2022-01-25 17:39:27.5640,0.225,-0.646,-1.107,-0.69,3.17,0.95,0.05,0.08,-0.05
2022-01-25 17:39:27.5740,0.247,-0.628,-1.122,-1.19,3.17,1.4,0.05,0.08,-0.05
2022-01-25 17:39:27.5840,0.245,-0.614,-1.137,-1.59,3.03,1.68,-0.14,-0.35,0.24
2022-01-25 17:39:27.5950,0.223,-0.606,-1.177,-1.76,2.78,1.98,-0.3,-0.43,0.35
2022-01-25 17:39:27.6050,0.192,-0.603,-1.228,-1.76,2.78,1.98,-0.45,-0.42,0.44
2022-01-25 17:39:27.6140,0.164,-0.632,-1.293,-1.56,2.74,2.39,-0.61,-0.32,0.6
2022-01-25 17:39:27.6250,0.122,-0.669,-1.379,-1.32,2.82,2.91,-0.72,-0.2,0.81
2022-01-25 17:39:27.6340,0.075,-0.62,-1.527,-0.67,3.55,4.49,-0.76,-0.25,0.92
2022-01-25 17:39:27.6450,0.037,-0.535,-1.667,-0.28,2.92,6.02,-0.77,-0.4,0.83
2022-01-25 17:39:27.6540,0.016,-0.522,-1.719,-0.01,2.29,7.16,-0.72,-0.39,0.62
2022-01-25 17:39:27.6650,-0.003,-0.511,-1.739,0.16,2.33,7.51,-0.61,-0.15,0.37
2022-01-25 17:39:27.6750,-0.025,-0.442,-1.75,0.16,2.33,7.51,-0.61,-0.15,0.37
2022-01-25 17:39:27.6850,-0.032,-0.342,-1.729,0.37,2.14,7.68,-0.42,0.21,0.09
2022-01-25 17:39:27.6950,-0.014,-0.261,-1.668,0.65,1.34,7.74,0.19,1.02,-0.48
2022-01-25 17:39:27.7050,0.005,-0.187,-1.586,0.77,0.36,7.44,0.48,1.34,-0.65
2022-01-25 17:39:27.7150,0.014,-0.104,-1.482,0.71,-0.43,6.78,0.68,1.56,-0.75
2022-01-25 17:39:27.7240,0.012,-0.051,-1.361,0.71,-1.24,5.98,0.68,1.56,-0.75
2022-01-25 17:39:27.7350,-0.01,-0.026,-1.238,1.07,-2.57,3.78,0.8,1.68,-0.85
2022-01-25 17:39:27.7450,-0.049,-0.0,-1.13,1.07,-2.57,3.78,0.76,1.58,-0.95
2022-01-25 17:39:27.7550,-0.091,0.023,-1.03,1.51,-2.85,2.63,0.76,1.58,-0.95
2022-01-25 17:39:27.7650,-0.139,0.044,-0.931,2.07,-3.16,1.65,0.68,1.2,-1.27
2022-01-25 17:39:27.7750,-0.18,0.07,-0.836,2.65,-3.41,0.71,0.68,1.2,-1.27
2022-01-25 17:39:27.7850,-0.203,0.091,-0.739,3.25,-3.67,-0.22,0.67,0.95,-1.46
2022-01-25 17:39:27.7950,-0.202,0.101,-0.651,4.0,-4.14,-2.04,0.58,0.49,-1.83
2022-01-25 17:39:27.8050,-0.179,0.098,-0.581,4.0,-4.14,-2.04,0.46,0.26,-1.99
2022-01-25 17:39:27.8150,-0.147,0.092,-0.517,4.02,-4.2,-2.85,0.46,0.26,-1.99
2022-01-25 17:39:27.8250,-0.107,0.071,-0.459,3.57,-4.01,-4.12,0.09,-0.02,-2.15
2022-01-25 17:39:27.8350,-0.054,0.037,-0.428,3.57,-4.01,-4.12,-0.11,-0.11,-2.13
2022-01-25 17:39:27.8450,0.011,-0.018,-0.412,3.2,-3.71,-4.63,-0.28,-0.17,-2.06
2022-01-25 17:39:27.8550,0.079,-0.064,-0.401,2.69,-3.25,-4.9,-0.38,-0.2,-1.95
2022-01-25 17:39:27.8650,0.142,-0.069,-0.399,1.46,-2.17,-5.16,-0.4,-0.22,-1.85
2022-01-25 17:39:27.8750,0.198,-0.065,-0.391,0.87,-2.11,-5.21,-0.37,-0.23,-1.74
2022-01-25 17:39:27.8860,0.245,-0.068,-0.392,0.37,-2.06,-5.29,-0.34,-0.25,-1.63
2022-01-25 17:39:27.8950,0.265,-0.08,-0.416,0.37,-2.06,-5.29,-0.36,-0.34,-1.45
2022-01-25 17:39:27.9050,0.325,-0.072,-0.431,-0.07,-1.95,-5.27,-0.44,-0.37,-1.35
2022-01-25 17:39:27.9160,0.348,-0.089,-0.408,-0.17,-1.74,-4.96,-0.46,-0.3,-1.18
2022-01-25 17:39:27.9250,0.336,-0.089,-0.5,-0.95,-1.78,-5.07,-0.51,-0.33,-1.01
2022-01-25 17:39:27.9360,0.35,-0.082,-0.518,-0.88,-1.48,-5.0,-0.51,-0.29,-0.89
2022-01-25 17:39:27.9450,0.351,-0.099,-0.58,-0.92,-1.5,-4.22,-0.48,-0.28,-0.8
2022-01-25 17:39:27.9550,0.358,-0.123,-0.633,-1.01,-1.45,-4.05,-0.43,-0.29,-0.75
2022-01-25 17:39:27.9650,0.357,-0.137,-0.681,-1.05,-1.18,-3.4,-0.43,-0.29,-0.75
2022-01-25 17:39:27.9750,0.348,-0.155,-0.72,-1.11,-0.91,-2.95,-0.4,-0.3,-0.74
2022-01-25 17:39:27.9860,0.337,-0.188,-0.748,-0.98,-0.46,-2.16,-0.41,-0.14,-0.72
2022-01-25 17:39:27.9960,0.334,-0.246,-0.782,-0.87,-0.02,-1.9,-0.41,0.09,-0.64
2022-01-25 17:39:28.0060,0.343,-0.31,-0.844,-0.83,0.64,-1.51,-0.36,0.28,-0.53
2022-01-25 17:39:28.0160,0.349,-0.357,-0.912,-0.83,0.64,-1.51,-0.26,0.41,-0.42
2022-01-25 17:39:28.0260,0.345,-0.389,-0.963,-0.88,1.26,-0.83,-0.07,0.42,-0.3
2022-01-25 17:39:28.0350,0.345,-0.424,-1.007,-0.86,1.7,-0.21,0.14,0.32,-0.19
2022-01-25 17:39:28.0460,0.342,-0.466,-1.029,-0.8,1.99,0.29,0.37,0.15,-0.06
2022-01-25 17:39:28.0560,0.336,-0.495,-1.046,-0.76,2.66,0.87,0.56,-0.06,0.08
2022-01-25 17:39:28.0660,0.334,-0.52,-1.072,-0.76,2.66,0.87,0.7,-0.32,0.22
2022-01-25 17:39:28.0760,0.331,-0.542,-1.091,-0.74,2.86,1.07,0.81,-0.58,0.36
2022-01-25 17:39:28.0860,0.327,-0.551,-1.11,-0.8,3.0,1.32,0.88,-0.82,0.51
2022-01-25 17:39:28.0950,0.298,-0.5,-1.12,-0.85,3.12,1.49,0.94,-1.02,0.63
2022-01-25 17:39:28.1060,0.271,-0.412,-1.123,-0.88,3.0,1.68,0.95,-1.16,0.65
2022-01-25 17:39:28.1160,0.278,-0.341,-1.132,-0.68,2.25,1.73,0.84,-1.24,0.57
2022-01-25 17:39:28.1260,0.298,-0.299,-1.118,-0.62,1.31,1.77,0.61,-1.15,0.45
2022-01-25 17:39:28.1360,0.307,-0.29,-1.135,-0.87,0.61,1.83,0.33,-1.01,0.38
2022-01-25 17:39:28.1460,0.34,-0.312,-1.152,-1.12,0.27,1.66,0.01,-0.71,0.38
2022-01-25 17:39:28.1560,0.378,-0.357,-1.178,-1.34,0.23,1.93,-0.28,-0.33,0.44
2022-01-25 17:39:28.1660,0.411,-0.374,-1.238,-1.72,0.57,2.01,-0.28,-0.33,0.44
2022-01-25 17:39:28.1760,0.435,-0.347,-1.315,-2.38,1.12,2.98,-0.68,0.31,0.52
2022-01-25 17:39:28.1860,0.46,-0.327,-1.414,-2.38,1.12,2.98,-0.77,0.37,0.47
2022-01-25 17:39:28.1960,0.481,-0.32,-1.49,-2.6,0.9,3.78,-0.76,0.29,0.39
2022-01-25 17:39:28.2070,0.507,-0.306,-1.514,-2.82,0.8,4.74,-0.64,0.17,0.3
2022-01-25 17:39:28.2160,0.531,-0.268,-1.514,-3.28,0.65,5.49,-0.46,0.04,0.24
2022-01-25 17:39:28.2260,0.546,-0.227,-1.481,-3.28,0.65,5.49,-0.26,-0.05,0.25
2022-01-25 17:39:28.2360,0.55,-0.194,-1.428,-3.51,0.26,5.42,-0.08,-0.11,0.35
2022-01-25 17:39:28.2470,0.536,-0.145,-1.376,-3.68,-0.48,4.49,0.08,-0.18,0.49
2022-01-25 17:39:28.2560,0.501,-0.081,-1.319,-3.68,-0.48,4.49,0.2,-0.25,0.66
2022-01-25 17:39:28.2660,0.44,-0.015,-1.255,-3.18,-1.72,3.39,0.3,-0.28,0.83
2022-01-25 17:39:28.2760,0.369,0.04,-1.198,-3.18,-1.72,3.39,0.38,-0.27,0.97
2022-01-25 17:39:28.2860,0.306,0.067,-1.146,-2.58,-2.41,2.78,0.42,-0.24,1.08
2022-01-25 17:39:28.2960,0.257,0.063,-1.091,-1.4,-3.19,1.74,0.43,-0.16,1.13
2022-01-25 17:39:28.3060,0.215,0.035,-1.024,-0.97,-3.14,1.19,0.44,-0.03,1.16
2022-01-25 17:39:28.3170,0.174,0.001,-0.961,-0.97,-3.14,1.19,0.44,-0.03,1.16
2022-01-25 17:39:28.3270,0.134,-0.026,-0.9,-0.19,-2.62,-0.06,0.46,0.25,1.16
2022-01-25 17:39:28.3370,0.104,-0.047,-0.848,-0.19,-2.62,-0.06,0.41,0.35,1.12
2022-01-25 17:39:28.3460,0.08,-0.068,-0.808,0.19,-2.43,-0.63,0.29,0.38,1.05
2022-01-25 17:39:28.3560,0.06,-0.098,-0.768,0.47,-2.26,-1.1,0.12,0.39,0.97
2022-01-25 17:39:28.3660,0.031,-0.124,-0.73,0.7,-2.06,-1.47,-0.06,0.41,0.88
2022-01-25 17:39:28.3770,0.003,-0.133,-0.701,0.92,-1.75,-1.86,-0.2,0.42,0.78
2022-01-25 17:39:28.3870,-0.014,-0.154,-0.673,1.23,-1.54,-2.22,-0.29,0.42,0.7
2022-01-25 17:39:28.3960,-0.017,-0.196,-0.648,1.51,-1.43,-2.49,-0.32,0.39,0.68
2022-01-25 17:39:28.4070,-0.017,-0.233,-0.628,1.66,-1.14,-2.77,-0.28,0.33,0.7
2022-01-25 17:39:28.4170,-0.018,-0.253,-0.6,1.68,-0.7,-2.99,-0.19,0.24,0.75
2022-01-25 17:39:28.4260,-0.016,-0.275,-0.581,1.68,-0.38,-3.22,-0.06,0.11,0.83
2022-01-25 17:39:28.4370,-0.015,-0.3,-0.59,1.67,-0.21,-3.48,0.12,-0.14,0.95
2022-01-25 17:39:28.4470,-0.009,-0.317,-0.624,1.51,0.18,-3.45,0.36,-0.56,1.07
2022-01-25 17:39:28.4570,0.01,-0.322,-0.658,1.51,0.18,-3.45,0.67,-1.11,1.16
2022-01-25 17:39:28.4670,0.033,-0.314,-0.678,1.27,0.25,-3.09,1.03,-1.71,1.2
2022-01-25 17:39:28.4770,0.055,-0.3,-0.668,0.4,-0.09,-2.6,1.39,-2.22,1.19
2022-01-25 17:39:28.4870,0.069,-0.278,-0.618,0.4,-0.09,-2.6,1.68,-2.49,1.17
2022-01-25 17:39:28.4970,0.071,-0.257,-0.547,-0.08,-0.41,-2.77,1.83,-2.46,1.13
2022-01-25 17:39:28.5070,0.072,-0.239,-0.479,-0.44,-0.81,-3.28,1.8,-2.13,1.05
2022-01-25 17:39:28.5170,0.069,-0.223,-0.433,-0.68,-1.16,-3.93,1.61,-1.62,0.93
2022-01-25 17:39:28.5270,0.067,-0.225,-0.409,-0.94,-1.72,-4.85,1.33,-1.03,0.79
2022-01-25 17:39:28.5370,0.067,-0.25,-0.429,-0.94,-1.72,-4.85,1.0,-0.5,0.65
2022-01-25 17:39:28.5470,0.068,-0.28,-0.484,-1.0,-1.73,-4.94,0.7,-0.12,0.51
2022-01-25 17:39:28.5570,0.08,-0.311,-0.551,-1.02,-1.5,-4.63,0.48,0.1,0.34
2022-01-25 17:39:28.5670,0.108,-0.354,-0.605,-1.05,-1.26,-4.0,0.33,0.2,0.16
2022-01-25 17:39:28.5770,0.144,-0.405,-0.664,-1.2,-0.95,-3.37,0.24,0.17,0.0
2022-01-25 17:39:28.5870,0.174,-0.459,-0.72,-1.83,-0.02,-2.24,0.15,0.04,-0.1
2022-01-25 17:39:28.5970,0.187,-0.502,-0.782,-1.83,-0.02,-2.24,0.06,-0.14,-0.13
2022-01-25 17:39:28.6070,0.176,-0.529,-0.852,-2.11,0.49,-1.69,-0.02,-0.33,-0.09
2022-01-25 17:39:28.6170,0.148,-0.558,-0.925,-2.21,0.87,-1.06,-0.07,-0.48,0.03
2022-01-25 17:39:28.6270,0.115,-0.583,-0.987,-2.09,1.13,-0.35,-0.08,-0.51,0.21
2022-01-25 17:39:28.6370,0.075,-0.603,-1.049,-1.85,1.43,0.33,-0.08,-0.42,0.45
2022-01-25 17:39:28.6470,0.03,-0.635,-1.1,-1.56,1.66,0.93,-0.09,-0.21,0.71
2022-01-25 17:39:28.6580,-0.013,-0.669,-1.13,-1.2,1.9,1.53,-0.14,0.09,0.93
2022-01-25 17:39:28.6670,-0.055,-0.717,-1.16,-0.37,2.62,2.23,-0.22,0.4,1.1
2022-01-25 17:39:28.6770,-0.081,-0.79,-1.184,0.03191315285861492,3.1979132840037345,2.49,-0.3,0.64,1.21
2022-01-25 17:39:28.6880,-0.093,-0.866,-1.221,0.24,4.0,2.72,-0.38,0.72,1.27
2022-01-25 17:39:28.6980,-0.106,-0.902,-1.303,0.34,4.73,3.13,-0.53,0.51,1.23
2022-01-25 17:39:28.7080,-0.134,-0.923,-1.426,0.45,5.08,4.06,-0.81,0.06,1.11
2022-01-25 17:39:28.7180,-0.181,-0.952,-1.525,0.45,5.08,4.06,-1.09,-0.37,0.98
2022-01-25 17:39:28.7280,-0.256,-0.899,-1.624,0.69,5.44,5.19,-1.22,-0.66,0.8
2022-01-25 17:39:28.7380,-0.325,-0.746,-1.697,1.14,5.74,6.1,-1.11,-0.7,0.48
2022-01-25 17:39:28.7480,-0.358,-0.574,-1.722,1.83,5.02,7.0,-0.81,-0.44,0.04
2022-01-25 17:39:28.7580,-0.349,-0.406,-1.691,2.4,3.49,7.61,-0.45,0.04,-0.44
2022-01-25 17:39:28.7680,-0.319,-0.247,-1.625,2.64,1.84,7.68,-0.13,0.58,-0.82
2022-01-25 17:39:28.7780,-0.257,-0.121,-1.56,2.34,-1.32,6.58,0.13,0.98,-1.02
2022-01-25 17:39:28.7880,-0.18,-0.05,-1.482,2.34,-1.32,6.58,0.35,1.16,-1.04
2022-01-25 17:39:28.7980,-0.131,0.008,-1.38,1.79,-2.46,5.95,0.58,1.15,-0.89
2022-01-25 17:39:28.8080,-0.111,0.066,-1.274,1.22,-3.14,5.13,0.8,0.99,-0.68
2022-01-25 17:39:28.8180,-0.116,0.113,-1.162,0.93,-3.79,4.13,0.96,0.75,-0.44
2022-01-25 17:39:28.8290,-0.14,0.136,-1.029,1.05,-4.94,2.02,1.08,0.58,-0.22
2022-01-25 17:39:28.8380,-0.167,0.133,-0.891,1.05,-4.94,2.02,1.14,0.5,-0.06
2022-01-25 17:39:28.8480,-0.19,0.117,-0.766,1.65,-5.23,-0.56,1.12,0.5,0.05
2022-01-25 17:39:28.8580,-0.201,0.081,-0.653,1.65,-5.23,-0.56,1.03,0.57,0.1
2022-01-25 17:39:28.8680,-0.199,0.015,-0.56,1.9,-5.12,-1.72,0.86,0.65,0.12
2022-01-25 17:39:28.8780,-0.188,-0.061,-0.497,2.02,-4.76,-2.76,0.64,0.69,0.12
2022-01-25 17:39:28.8880,-0.169,-0.143,-0.46,2.04,-4.13,-3.58,0.38,0.67,0.07
2022-01-25 17:39:28.8980,-0.149,-0.216,-0.44,1.82,-2.61,-4.42,0.12,0.61,-0.04
2022-01-25 17:39:28.9080,-0.129,-0.273,-0.432,1.82,-2.61,-4.42,-0.1,0.52,-0.22
2022-01-25 17:39:28.9190,-0.107,-0.31,-0.43,1.68,-1.91,-4.58,-0.28,0.42,-0.44
2022-01-25 17:39:28.9290,-0.083,-0.333,-0.438,1.38,-1.01,-4.67,-0.39,0.3,-0.69
2022-01-25 17:39:28.9380,-0.049,-0.346,-0.445,1.38,-1.01,-4.67,-0.47,0.19,-0.93
2022-01-25 17:39:28.9480,-0.006,-0.351,-0.446,1.18,-0.76,-4.6,-0.52,0.11,-1.15
2022-01-25 17:39:28.9580,0.032,-0.355,-0.451,0.88,-0.61,-4.58,-0.52,0.11,-1.15
2022-01-25 17:39:28.9680,0.064,-0.354,-0.451,0.51,-0.5,-4.58,-0.66,0.09,-1.45
2022-01-25 17:39:28.9780,0.097,-0.348,-0.46,0.23,-0.39,-4.57,-0.73,0.15,-1.53
2022-01-25 17:39:28.9880,0.124,-0.338,-0.485,-0.02,-0.34,-4.59,-0.79,0.2,-1.55
2022-01-25 17:39:28.9980,0.133,-0.328,-0.526,-0.26,-0.32,-4.49,-0.83,0.21,-1.51
2022-01-25 17:39:29.0080,0.133,-0.321,-0.568,-0.42,-0.34,-4.24,-0.82,0.21,-1.41
2022-01-25 17:39:29.0190,0.131,-0.314,-0.608,-0.39,-0.34,-3.84,-0.75,0.19,-1.28
2022-01-25 17:39:29.0290,0.131,-0.316,-0.653,-0.33,-0.33,-3.47,-0.61,0.14,-1.13
2022-01-25 17:39:29.0380,0.131,-0.32,-0.684,-0.26,-0.32,-3.07,-0.42,0.06,-0.98
2022-01-25 17:39:29.0490,0.128,-0.325,-0.707,-0.23,-0.23,-2.68,-0.22,-0.03,-0.82
2022-01-25 17:39:29.0590,0.119,-0.343,-0.717,-0.2,-0.17,-2.39,-0.05,-0.08,-0.64
2022-01-25 17:39:29.0680,0.1,-0.368,-0.744,-0.14,-0.09,-2.22,-0.05,-0.08,-0.64
2022-01-25 17:39:29.0790,0.081,-0.399,-0.778,0.18,0.35,-1.79,0.19,-0.06,-0.31
2022-01-25 17:39:29.0890,0.078,-0.443,-0.817,0.18,0.35,-1.79,0.29,-0.01,-0.23
2022-01-25 17:39:29.0990,0.086,-0.502,-0.857,0.34,0.66,-1.44,0.38,0.03,-0.18
2022-01-25 17:39:29.1090,0.106,-0.563,-0.897,0.34,1.1,-1.04,0.43,0.01,-0.17
2022-01-25 17:39:29.1190,0.122,-0.628,-0.929,0.24,1.67,-0.63,0.43,-0.05,-0.18
2022-01-25 17:39:29.1290,0.125,-0.68,-0.979,0.04,2.23,-0.24,0.42,-0.18,-0.19
2022-01-25 17:39:29.1390,0.132,-0.711,-1.039,-0.1,2.83,0.1,0.44,-0.35,-0.21
2022-01-25 17:39:29.1490,0.145,-0.716,-1.086,-0.27,3.46,1.23,0.5,-0.42,-0.21
2022-01-25 17:39:29.1590,0.149,-0.697,-1.128,-0.41,3.39,1.69,0.56,-0.35,-0.2
2022-01-25 17:39:29.1690,0.142,-0.653,-1.164,-0.41,3.39,1.69,0.6,-0.18,-0.18
2022-01-25 17:39:29.1790,0.123,-0.584,-1.2,-0.43,3.1,2.11,0.62,-0.01,-0.2
2022-01-25 17:39:29.1890,0.105,-0.515,-1.211,-0.09,1.78,2.84,0.64,0.18,-0.25
2022-01-25 17:39:29.1990,0.108,-0.469,-1.189,0.1,1.1,2.87,0.61,0.42,-0.31
2022-01-25 17:39:29.2090,0.142,-0.473,-1.142,0.1,1.1,2.87,0.49,0.71,-0.36
2022-01-25 17:39:29.2190,0.212,-0.538,-1.109,0.09,0.7,2.62,0.29,1.02,-0.34
2022-01-25 17:39:29.2290,0.313,-0.635,-1.108,-0.87,1.62,1.94,0.08,1.21,-0.26
2022-01-25 17:39:29.2390,0.424,-0.72,-1.141,-1.81,2.62,2.01,-0.12,1.17,-0.21
2022-01-25 17:39:29.2490,0.507,-0.774,-1.199,-1.81,2.62,2.01,-0.4,0.85,-0.25
2022-01-25 17:39:29.2590,0.531,-0.767,-1.266,-2.79,3.42,2.42,-0.79,0.38,-0.4
2022-01-25 17:39:29.2690,0.506,-0.669,-1.351,-3.52,3.75,3.63,-1.22,-0.17,-0.66
2022-01-25 17:39:29.2790,0.472,-0.539,-1.444,-3.52,3.75,3.63,-1.54,-0.64,-0.94
2022-01-25 17:39:29.2890,0.464,-0.374,-1.525,-3.24,2.83,4.43,-1.6,-0.83,-1.15
2022-01-25 17:39:29.2990,0.486,-0.209,-1.541,-3.0,0.11,5.9,-1.41,-0.58,-1.19
2022-01-25 17:39:29.3100,0.498,-0.092,-1.532,-3.2,-1.29,5.9,-1.08,-0.09,-1.0
2022-01-25 17:39:29.3190,0.472,-0.007,-1.499,-3.2,-1.29,5.9,-0.69,0.37,-0.61
2022-01-25 17:39:29.3290,0.396,0.073,-1.435,-3.18,-2.27,5.77,-0.31,0.6,-0.12
2022-01-25 17:39:29.3390,0.291,0.14,-1.342,-1.87,-3.83,4.68,-0.01,0.56,0.33
2022-01-25 17:39:29.3500,0.185,0.18,-1.236,-0.82,-4.44,3.71,0.2,0.34,0.65
2022-01-25 17:39:29.3590,0.087,0.184,-1.142,-0.82,-4.44,3.71,0.31,0.04,0.82
2022-01-25 17:39:29.3690,0.005,0.156,-1.039,0.18,-4.81,2.71,0.38,-0.23,0.84
2022-01-25 17:39:29.3790,-0.034,0.101,-0.912,1.72,-4.52,0.73,0.42,-0.36,0.78
2022-01-25 17:39:29.3900,-0.052,0.02,-0.78,1.98,-3.94,-0.55,0.41,-0.31,0.73
2022-01-25 17:39:29.4000,-0.07,-0.058,-0.67,1.98,-3.94,-0.55,0.3,-0.15,0.72
2022-01-25 17:39:29.4100,-0.087,-0.116,-0.595,2.12,-3.16,-1.8,0.12,0.02,0.76
2022-01-25 17:39:29.4200,-0.099,-0.162,-0.552,2.27,-2.46,-2.8,-0.12,0.19,0.81
2022-01-25 17:39:29.4300,-0.106,-0.195,-0.535,2.43,-1.93,-3.45,-0.12,0.19,0.81
2022-01-25 17:39:29.4400,-0.124,-0.226,-0.57,2.62,-1.11,-3.9,-0.69,0.35,0.78
2022-01-25 17:39:29.4500,-0.148,-0.261,-0.642,2.82,-0.74,-3.47,-0.89,0.19,0.67
2022-01-25 17:39:29.4600,-0.162,-0.303,-0.732,2.82,-0.74,-3.47,-0.89,0.19,0.67
2022-01-25 17:39:29.4700,-0.153,-0.335,-0.795,3.01,-0.3,-2.72,-0.72,-0.46,0.39
2022-01-25 17:39:29.4800,-0.138,-0.347,-0.806,2.84,0.46,-1.41,-0.37,-0.72,0.27
2022-01-25 17:39:29.4900,-0.124,-0.353,-0.776,2.84,0.46,-1.41,0.03,-0.83,0.21
2022-01-25 17:39:29.5000,-0.111,-0.351,-0.726,2.62,0.54,-1.43,0.33,-0.8,0.2
2022-01-25 17:39:29.5100,-0.103,-0.339,-0.676,2.4,0.55,-1.79,0.54,-0.69,0.22
2022-01-25 17:39:29.5200,-0.088,-0.312,-0.643,2.22,0.47,-2.3,0.68,-0.59,0.22
2022-01-25 17:39:29.5300,-0.056,-0.283,-0.622,2.08,0.24,-2.74,0.68,-0.59,0.22
2022-01-25 17:39:29.5400,-0.024,-0.265,-0.601,1.82,-0.12,-3.01,0.9,-0.63,0.09
2022-01-25 17:39:29.5500,-0.005,-0.259,-0.57,1.43,-0.46,-3.18,0.95,-0.68,0.01
2022-01-25 17:39:29.5600,0.005,-0.255,-0.53,0.86,-0.83,-3.68,0.97,-0.68,-0.06
2022-01-25 17:39:29.5710,0.024,-0.247,-0.488,0.86,-0.83,-3.68,0.97,-0.68,-0.06
2022-01-25 17:39:29.5800,0.05,-0.239,-0.463,0.71,-0.96,-4.07,0.91,-0.49,-0.31
2022-01-25 17:39:29.5900,0.085,-0.241,-0.433,0.47,-1.12,-4.42,0.81,-0.33,-0.45
2022-01-25 17:39:29.6000,0.12,-0.257,-0.41,0.18,-1.25,-4.63,0.67,-0.14,-0.6
2022-01-25 17:39:29.6100,0.153,-0.279,-0.414,-0.47122820578515534,-1.0958822339773178,-5.06,0.46,-0.0,-0.72
2022-01-25 17:39:29.6210,0.182,-0.3,-0.438,-0.48,-1.1,-5.06,0.22,0.08,-0.82
2022-01-25 17:39:29.6300,0.21,-0.338,-0.479,-0.75,-0.9,-4.95,0.22,0.08,-0.82
2022-01-25 17:39:29.6410,0.231,-0.376,-0.551,-0.99,-0.65,-4.68,-0.21,-0.0,-0.94
2022-01-25 17:39:29.6510,0.248,-0.393,-0.646,-1.4,0.14,-3.46,-0.34,-0.2,-1.0
2022-01-25 17:39:29.6610,0.261,-0.425,-0.726,-1.4,0.14,-3.46,-0.39,-0.4,-1.05
2022-01-25 17:39:29.6710,0.273,-0.45,-0.796,-1.69,0.74,-1.84,-0.38,-0.53,-1.08
2022-01-25 17:39:29.6890,0.275,-0.472,-0.87,-1.81,1.0,-1.14,-0.38,-0.57,-1.05
2022-01-25 17:39:29.6910,0.27,-0.504,-0.927,-1.81,1.0,-1.14,-0.38,-0.57,-1.05
2022-01-25 17:39:29.6990,0.262,-0.524,-0.987,-1.75,1.65,0.06,-0.49,-0.28,-0.74
2022-01-25 17:39:29.7100,0.249,-0.543,-1.048,-1.75,1.65,0.06,-0.56,0.06,-0.45
2022-01-25 17:39:29.7200,0.234,-0.566,-1.131,-1.65,1.88,0.61,-0.57,0.42,-0.15
2022-01-25 17:39:29.7310,0.239,-0.61,-1.229,-1.44,2.14,1.26,-0.55,0.65,0.1
2022-01-25 17:39:29.7400,0.255,-0.697,-1.33,-1.29,2.43,2.09,-0.52,0.67,0.28
2022-01-25 17:39:29.7510,0.277,-0.813,-1.415,-1.32,3.02,3.08,-0.46,0.5,0.4
2022-01-25 17:39:29.7610,0.277,-0.911,-1.495,-1.48,3.99,4.02,-0.46,0.5,0.4
2022-01-25 17:39:29.7710,0.227,-0.911,-1.583,-1.68,5.19,4.82,-0.33,-0.33,0.52
2022-01-25 17:39:29.7810,0.146,-0.828,-1.672,-1.1,5.75,6.48,-0.43,-0.8,0.41
2022-01-25 17:39:29.7910,0.073,-0.775,-1.682,-1.1,5.75,6.48,-0.58,-0.89,0.26
2022-01-25 17:39:29.8010,0.022,-0.705,-1.672,-0.38,4.97,7.19,-0.6,-0.62,0.02
2022-01-25 17:39:29.8110,-0.011,-0.515,-1.692,0.68,3.68,7.09,-0.42,-0.24,-0.37
2022-01-25 17:39:29.8210,-0.01,-0.324,-1.684,0.68,3.68,7.09,-0.15,0.12,-0.77
2022-01-25 17:39:29.8310,0.019,-0.195,-1.636,0.94,-0.03,7.09,0.12,0.37,-0.98
2022-01-25 17:39:29.8410,0.062,-0.09,-1.562,0.94,-0.03,7.09,0.37,0.47,-0.98
2022-01-25 17:39:29.8510,0.09,0.026,-1.487,0.3258919331431389,-2.329283086359501,5.82,0.57,0.38,-0.81
2022-01-25 17:39:29.8610,0.092,0.095,-1.393,0.14,-3.47,5.08,0.76,0.21,-0.52
2022-01-25 17:39:29.8710,0.061,0.143,-1.305,0.14,-3.47,5.08,0.93,-0.01,-0.21
2022-01-25 17:39:29.8810,-0.002,0.188,-1.218,0.19,-4.11,4.17,1.02,-0.18,0.06
2022-01-25 17:39:29.8910,-0.073,0.195,-1.112,0.57,-4.7,3.38,1.03,-0.24,0.25
2022-01-25 17:39:29.9010,-0.138,0.186,-1.009,1.2,-5.16,2.49,0.97,-0.19,0.35
2022-01-25 17:39:29.9110,-0.195,0.169,-0.9,1.85,-5.24,1.48,0.91,-0.06,0.37
2022-01-25 17:39:29.9210,-0.228,0.125,-0.8,2.47,-5.24,0.49,0.84,0.11,0.33
2022-01-25 17:39:29.9310,-0.227,0.051,-0.708,2.97,-5.09,-0.55,0.74,0.27,0.26
2022-01-25 17:39:29.9410,-0.202,-0.054,-0.621,3.24,-4.66,-1.46,0.6,0.41,0.21
2022-01-25 17:39:29.9510,-0.168,-0.157,-0.557,3.19,-3.89,-2.35,0.41,0.5,0.14
2022-01-25 17:39:29.9620,-0.132,-0.239,-0.515,2.66,-1.92,-3.68,0.21,0.53,0.04
2022-01-25 17:39:29.9710,-0.094,-0.296,-0.489,2.66,-1.92,-3.68,0.02,0.49,-0.11
2022-01-25 17:39:29.9810,-0.059,-0.33,-0.478,2.34,-1.17,-4.07,-0.12,0.38,-0.3
2022-01-25 17:39:29.9910,-0.027,-0.349,-0.48,2.02,-0.66,-4.27,-0.22,0.2,-0.52
2022-01-25 17:39:30.0010,0.007,-0.36,-0.487,1.72,-0.34,-4.35,-0.28,-0.03,-0.73
2022-01-25 17:39:30.0120,0.045,-0.364,-0.484,1.09,-0.01,-4.29,-0.3,-0.23,-0.92
2022-01-25 17:39:30.0220,0.079,-0.356,-0.478,0.73,0.05,-4.34,-0.31,-0.36,-1.07
2022-01-25 17:39:30.0320,0.104,-0.341,-0.467,0.73,0.05,-4.34,-0.33,-0.41,-1.17
2022-01-25 17:39:30.0420,0.122,-0.323,-0.459,0.2,-0.11,-4.56,-0.36,-0.39,-1.22
2022-01-25 17:39:30.0520,0.133,-0.3,-0.46,0.05,-0.24,-4.63,-0.41,-0.32,-1.22
2022-01-25 17:39:30.0620,0.135,-0.275,-0.469,0.05,-0.24,-4.63,-0.46,-0.21,-1.17
2022-01-25 17:39:30.0720,0.127,-0.251,-0.496,-0.02,-0.42,-4.63,-0.5,-0.12,-1.09
2022-01-25 17:39:30.0820,0.113,-0.227,-0.524,0.02,-0.6,-4.52,-0.47,-0.03,-0.99
2022-01-25 17:39:30.0920,0.099,-0.213,-0.552,0.14,-0.78,-4.25,-0.39,0.03,-0.86
2022-01-25 17:39:30.1010,0.091,-0.216,-0.579,0.31,-0.96,-3.98,-0.24,0.04,-0.7
2022-01-25 17:39:30.1120,0.09,-0.233,-0.592,0.46,-1.02,-3.72,-0.05,0.04,-0.54
2022-01-25 17:39:30.1210,0.094,-0.264,-0.592,0.55,-0.76,-3.38,0.13,0.02,-0.39
2022-01-25 17:39:30.1320,0.101,-0.324,-0.596,0.51,-0.4,-3.39,0.27,-0.02,-0.26
2022-01-25 17:39:30.1420,0.097,-0.37,-0.609,0.45,0.17,-3.31,0.32,-0.08,-0.19
2022-01-25 17:39:30.1520,0.082,-0.396,-0.627,0.52,0.55,-3.17,0.27,-0.11,-0.19
2022-01-25 17:39:30.1620,0.056,-0.416,-0.659,0.52,0.55,-3.17,0.27,-0.11,-0.19
2022-01-25 17:39:30.1720,0.036,-0.449,-0.695,0.7,0.76,-2.95,0.02,-0.01,-0.33
2022-01-25 17:39:30.1820,0.037,-0.491,-0.755,0.97,0.99,-2.64,-0.08,0.1,-0.45
2022-01-25 17:39:30.1920,0.071,-0.54,-0.816,1.11,1.82,-1.63,-0.17,0.26,-0.59
2022-01-25 17:39:30.2020,0.133,-0.596,-0.902,1.11,1.82,-1.63,-0.26,0.42,-0.68
2022-01-25 17:39:30.2120,0.21,-0.659,-1.014,0.75,2.35,-0.98,-0.33,0.5,-0.75
2022-01-25 17:39:30.2220,0.29,-0.686,-1.171,0.16,2.97,-0.1,-0.38,0.38,-0.8
2022-01-25 17:39:30.2320,0.361,-0.671,-1.306,-1.28,3.78,2.65,-0.37,0.19,-0.82
2022-01-25 17:39:30.2420,0.406,-0.614,-1.416,-1.28,3.78,2.65,-0.37,0.19,-0.82
2022-01-25 17:39:30.2520,0.408,-0.504,-1.479,-2.23,2.94,4.89,-0.21,0.0,-0.66
2022-01-25 17:39:30.2620,0.399,-0.394,-1.475,-2.12,1.77,5.33,-0.16,0.37,-0.34
2022-01-25 17:39:30.2720,0.444,-0.392,-1.469,-2.12,1.77,5.33,-0.13,0.99,0.16
2022-01-25 17:39:30.2820,0.538,-0.485,-1.492,-2.02,0.91,5.24,-0.1,1.59,0.74
2022-01-25 17:39:30.2920,0.617,-0.581,-1.544,-2.51,1.17,5.27,-0.02,1.89,1.21
2022-01-25 17:39:30.3020,0.655,-0.621,-1.616,-3.3,2.17,5.61,0.04,1.76,1.36
2022-01-25 17:39:30.3120,0.663,-0.653,-1.666,-3.87,2.94,6.24,0.02,1.37,1.22
2022-01-25 17:39:30.3220,0.619,-0.678,-1.696,-4.06,3.23,6.96,-0.05,0.9,1.01
2022-01-25 17:39:30.3330,0.588,-0.628,-1.694,-4.0,3.57,7.37,-0.11,0.54,0.81
2022-01-25 17:39:30.3430,0.55,-0.553,-1.639,-3.49,3.63,7.68,-0.07,0.41,0.76
2022-01-25 17:39:30.3530,0.498,-0.437,-1.601,-3.22,3.04,7.46,0.09,0.39,0.85
2022-01-25 17:39:30.3640,0.439,-0.317,-1.538,-2.77,2.17,6.98,0.37,0.4,1.03
2022-01-25 17:39:30.3740,0.373,-0.198,-1.45,-2.26,0.93,6.59,0.68,0.38,1.25
2022-01-25 17:39:30.3840,0.299,-0.09,-1.369,-1.65,-0.35,5.94,0.95,0.24,1.48
2022-01-25 17:39:30.3940,0.204,0.01,-1.309,-1.03,-1.61,5.08,1.15,-0.02,1.65
2022-01-25 17:39:30.4040,0.112,0.099,-1.249,-0.31,-2.79,4.39,1.3,-0.35,1.69
2022-01-25 17:39:30.4140,0.048,0.156,-1.163,0.55,-3.9,3.85,1.4,-0.61,1.59
2022-01-25 17:39:30.4250,0.025,0.155,-1.042,1.29,-4.89,3.26,1.41,-0.69,1.43
2022-01-25 17:39:30.4350,0.035,0.096,-0.909,1.7,-5.48,2.37,1.35,-0.56,1.26
2022-01-25 17:39:30.4450,0.057,0.029,-0.775,1.74,-5.44,1.17,1.21,-0.27,1.11
2022-01-25 17:39:30.4550,0.08,-0.031,-0.669,1.53,-4.92,-0.11,1.03,0.02,0.98
2022-01-25 17:39:30.4650,0.102,-0.079,-0.586,1.27,-4.38,-1.32,0.8,0.25,0.86
2022-01-25 17:39:30.4750,0.122,-0.129,-0.54,1.03,-3.9,-2.28,0.54,0.35,0.76
2022-01-25 17:39:30.4850,0.136,-0.182,-0.516,0.82,-3.5,-2.97,0.24,0.3,0.68
2022-01-25 17:39:30.4950,0.132,-0.223,-0.515,0.62,-3.03,-3.34,-0.04,0.13,0.62
2022-01-25 17:39:30.5050,0.113,-0.248,-0.528,0.5,-2.52,-3.52,-0.28,-0.1,0.57
2022-01-25 17:39:30.5150,0.095,-0.273,-0.535,0.56,-2.14,-3.5,-0.44,-0.32,0.51
2022-01-25 17:39:30.5250,0.076,-0.298,-0.543,0.69,-1.89,-3.41,-0.52,-0.46,0.46
2022-01-25 17:39:30.5350,0.056,-0.316,-0.545,0.81,-1.59,-3.37,-0.51,-0.53,0.43
2022-01-25 17:39:30.5450,0.037,-0.331,-0.546,0.94,-1.33,-3.34,-0.43,-0.55,0.4
2022-01-25 17:39:30.5550,0.018,-0.344,-0.54,1.06,-1.13,-3.35,-0.31,-0.54,0.4
2022-01-25 17:39:30.5650,0.001,-0.347,-0.532,1.19,-0.96,-3.37,-0.17,-0.54,0.4
2022-01-25 17:39:30.5750,-0.011,-0.341,-0.521,1.31,-0.85,-3.46,-0.03,-0.55,0.4
2022-01-25 17:39:30.5850,-0.011,-0.333,-0.506,1.4,-0.85,-3.55,0.09,-0.57,0.39
2022-01-25 17:39:30.5950,-0.008,-0.322,-0.487,1.42,-0.92,-3.68,0.18,-0.59,0.35
2022-01-25 17:39:30.6050,-0.006,-0.313,-0.466,1.34,-1.03,-3.83,0.21,-0.58,0.3
2022-01-25 17:39:30.6150,-0.003,-0.305,-0.45,1.25,-1.16,-4.03,0.19,-0.57,0.24
2022-01-25 17:39:30.6250,-0.002,-0.301,-0.446,1.17,-1.26,-4.23,0.14,-0.56,0.16
2022-01-25 17:39:30.6350,0.001,-0.302,-0.438,1.09,-1.34,-4.36,0.07,-0.51,0.07
2022-01-25 17:39:30.6450,0.008,-0.308,-0.428,1.03,-1.38,-4.39,0.01,-0.43,-0.03
2022-01-25 17:39:30.6550,0.015,-0.31,-0.433,0.95,-1.34,-4.5,-0.05,-0.35,-0.13
2022-01-25 17:39:30.6650,0.02,-0.315,-0.445,0.86,-1.29,-4.57,-0.11,-0.29,-0.24
2022-01-25 17:39:30.6750,0.033,-0.327,-0.467,0.78,-1.25,-4.5,-0.16,-0.25,-0.32
2022-01-25 17:39:30.6850,0.058,-0.353,-0.481,0.72,-1.17,-4.37,-0.21,-0.22,-0.39
2022-01-25 17:39:30.6950,0.086,-0.397,-0.501,0.56,-1.0,-4.17,-0.26,-0.18,-0.43
2022-01-25 17:39:30.7050,0.112,-0.445,-0.542,0.29,-0.67,-4.06,-0.3,-0.16,-0.45
2022-01-25 17:39:30.7150,0.145,-0.482,-0.593,0.03,-0.17,-3.82,-0.35,-0.14,-0.47
2022-01-25 17:39:30.7250,0.179,-0.522,-0.66,-0.22,0.31,-3.41,-0.4,-0.12,-0.47
2022-01-25 17:39:30.7350,0.213,-0.583,-0.742,-0.55,0.69,-2.89,-0.49,-0.15,-0.45
2022-01-25 17:39:30.7450,0.237,-0.628,-0.841,-0.88,1.19,-2.22,-0.57,-0.21,-0.42
2022-01-25 17:39:30.7550,0.243,-0.638,-0.938,-1.21,1.85,-1.4,-0.6,-0.23,-0.4
2022-01-25 17:39:30.7650,0.226,-0.629,-1.051,-1.4,2.26,-0.44,-0.53,-0.18,-0.31
2022-01-25 17:39:30.7750,0.216,-0.6,-1.148,-1.41,2.35,0.5,-0.32,-0.04,-0.16
2022-01-25 17:39:30.7860,0.231,-0.578,-1.221,-1.23,2.25,1.61,-0.1,0.19,0.03
2022-01-25 17:39:30.7960,0.281,-0.603,-1.262,-1.16,1.94,2.49,0.02,0.48,0.24
2022-01-25 17:39:30.8060,0.336,-0.652,-1.29,-1.36,1.82,3.14,-0.03,0.76,0.44
2022-01-25 17:39:30.8160,0.375,-0.709,-1.321,-1.83,2.17,3.49,-0.2,1.03,0.66
2022-01-25 17:39:30.8260,0.389,-0.782,-1.392,-2.29,2.67,3.76,-0.41,1.17,0.94
2022-01-25 17:39:30.8360,0.37,-0.817,-1.522,-2.55,3.32,4.12,-0.56,0.98,1.18
2022-01-25 17:39:30.8450,0.314,-0.819,-1.663,-2.57,4.03,4.94,-0.57,0.51,1.29
2022-01-25 17:39:30.8560,0.238,-0.852,-1.733,-2.3,4.28,6.32,-0.43,0.04,1.32
2022-01-25 17:39:30.8660,0.155,-0.849,-1.769,-1.73,4.35,7.55,-0.12,-0.32,1.26
2022-01-25 17:39:30.8760,0.069,-0.742,-1.779,-1.04,4.71,8.08,0.24,-0.51,1.06
2022-01-25 17:39:30.8860,-0.0,-0.601,-1.722,-0.3,4.38,8.43,0.56,-0.48,0.72
2022-01-25 17:39:30.8960,-0.039,-0.456,-1.625,0.47,3.12,8.38,0.75,-0.25,0.28
2022-01-25 17:39:30.9060,-0.062,-0.295,-1.538,1.04,1.66,7.71,0.82,0.04,-0.16
2022-01-25 17:39:30.9160,-0.075,-0.153,-1.467,1.38,0.13,6.76,0.8,0.31,-0.51
2022-01-25 17:39:30.9260,-0.087,-0.06,-1.396,1.63,-1.53,6.02,0.76,0.48,-0.71
2022-01-25 17:39:30.9360,-0.11,0.019,-1.338,1.81,-2.85,5.35,0.75,0.5,-0.77
2022-01-25 17:39:30.9430,-0.148,0.063,-1.274,2.02,-3.76,4.71,0.78,0.37,-0.72
2022-01-25 17:39:30.9550,-0.192,0.074,-1.184,2.78,-4.94,3.55,0.89,0.19,-0.57
2022-01-25 17:39:30.9640,-0.227,0.068,-1.091,3.21,-5.09,2.67,1.05,-0.02,-0.4
2022-01-25 17:39:30.9740,-0.244,0.036,-0.988,3.21,-5.09,2.67,1.21,-0.2,-0.27
2022-01-25 17:39:30.9850,-0.249,-0.019,-0.876,3.62,-4.81,0.82,1.32,-0.29,-0.2
2022-01-25 17:39:30.9950,-0.248,-0.095,-0.767,3.62,-4.81,0.82,1.33,-0.32,-0.17
2022-01-25 17:39:31.0040,-0.237,-0.185,-0.672,3.64,-4.33,-0.23,1.33,-0.32,-0.17
2022-01-25 17:39:31.0150,-0.217,-0.277,-0.619,3.44,-2.83,-2.05,1.12,-0.36,-0.28
2022-01-25 17:39:31.0250,-0.189,-0.333,-0.552,3.44,-2.83,-2.05,0.99,-0.4,-0.46
2022-01-25 17:39:31.0350,-0.172,-0.378,-0.487,2.95,-1.64,-3.2,0.83,-0.44,-0.72
2022-01-25 17:39:31.0450,-0.152,-0.422,-0.467,2.95,-1.64,-3.2,0.64,-0.51,-0.98
2022-01-25 17:39:31.0550,-0.116,-0.441,-0.417,2.59,-0.86,-3.86,0.45,-0.54,-1.25
2022-01-25 17:39:31.0660,-0.071,-0.447,-0.39,2.59,-0.86,-3.86,0.27,-0.56,-1.52
2022-01-25 17:39:31.0740,-0.021,-0.432,-0.383,1.82,-0.68,-4.52,0.12,-0.59,-1.78
2022-01-25 17:39:31.0850,0.029,-0.406,-0.376,1.38,-0.84,-4.59,-0.01,-0.61,-2.01
2022-01-25 17:39:31.0950,0.072,-0.379,-0.376,0.96,-1.06,-4.67,-0.11,-0.59,-2.2
2022-01-25 17:39:31.1050,0.109,-0.354,-0.378,0.96,-1.06,-4.67,-0.19,-0.54,-2.3
2022-01-25 17:39:31.1150,0.143,-0.332,-0.38,0.63,-1.27,-4.67,-0.23,-0.46,-2.35
2022-01-25 17:39:31.1250,0.174,-0.311,-0.396,0.35,-1.46,-4.68,-0.26,-0.4,-2.32
2022-01-25 17:39:31.1350,0.192,-0.286,-0.418,-0.1,-1.75,-4.49,-0.26,-0.37,-2.25
2022-01-25 17:39:31.1450,0.201,-0.258,-0.437,-0.19,-1.96,-4.3,-0.23,-0.37,-2.11
2022-01-25 17:39:31.1550,0.204,-0.238,-0.46,-0.2,-2.17,-4.11,-0.16,-0.41,-1.94
2022-01-25 17:39:31.1650,0.207,-0.22,-0.478,-0.2,-2.17,-4.11,-0.06,-0.49,-1.73
2022-01-25 17:39:31.1750,0.216,-0.213,-0.488,-0.19,-2.33,-3.91,0.06,-0.56,-1.5
2022-01-25 17:39:31.1850,0.228,-0.226,-0.488,-0.3,-2.48,-3.69,0.15,-0.58,-1.24
2022-01-25 17:39:31.1950,0.24,-0.261,-0.484,-0.3,-2.48,-3.69,0.19,-0.53,-0.97
2022-01-25 17:39:31.2050,0.248,-0.307,-0.474,-0.43,-2.29,-3.69,0.19,-0.4,-0.72
2022-01-25 17:39:31.2160,0.253,-0.343,-0.493,-0.6,-1.47,-3.81,0.14,-0.27,-0.55
2022-01-25 17:39:31.2250,0.256,-0.393,-0.527,-0.64,-1.11,-3.58,0.07,-0.15,-0.42
2022-01-25 17:39:31.2350,0.266,-0.461,-0.582,-0.64,-1.11,-3.58,0.07,-0.15,-0.42
2022-01-25 17:39:31.2450,0.278,-0.524,-0.668,-0.67,-0.54,-3.22,-0.06,-0.11,-0.27
2022-01-25 17:39:31.2550,0.288,-0.587,-0.74,-0.78,0.13,-2.58,-0.1,-0.14,-0.23
2022-01-25 17:39:31.2650,0.301,-0.642,-0.797,-0.9,0.75,-1.75,-0.1,-0.14,-0.23
2022-01-25 17:39:31.2750,0.318,-0.682,-0.856,-1.0,1.39,-1.11,-0.1,0.09,-0.06
2022-01-25 17:39:31.2850,0.34,-0.714,-0.922,-1.12,1.89,-0.56,-0.06,0.37,0.02
2022-01-25 17:39:31.2950,0.353,-0.72,-1.0,-1.27,2.28,0.04,-0.01,0.64,0.03
2022-01-25 17:39:31.3060,0.353,-0.697,-1.068,-1.44,2.52,1.51,0.04,0.82,-0.03
2022-01-25 17:39:31.3160,0.354,-0.675,-1.11,-1.44,2.52,1.51,0.02,0.9,-0.13
2022-01-25 17:39:31.3250,0.368,-0.645,-1.117,-1.34,2.28,2.15,-0.11,0.96,-0.25
2022-01-25 17:39:31.3350,0.408,-0.634,-1.111,-1.28,2.08,2.48,-0.33,1.05,-0.36
2022-01-25 17:39:31.3450,0.473,-0.695,-1.103,-1.7,1.93,2.43,-0.63,1.23,-0.38
2022-01-25 17:39:31.3560,0.553,-0.786,-1.146,-1.7,1.93,2.43,-0.93,1.37,-0.3
2022-01-25 17:39:31.3650,0.629,-0.855,-1.249,-2.93,3.74,2.99,-1.2,1.34,-0.21
2022-01-25 17:39:31.3760,0.689,-0.905,-1.374,-2.93,3.74,2.99,-1.43,1.19,-0.19
2022-01-25 17:39:31.3850,0.697,-0.911,-1.502,-3.95,5.05,5.28,-1.57,0.98,-0.19
2022-01-25 17:39:31.3960,0.673,-0.861,-1.606,-3.95,5.05,5.28,-1.58,0.77,-0.18
2022-01-25 17:39:31.4050,0.655,-0.785,-1.682,-3.54,4.63,7.38,-1.4,0.6,-0.08
2022-01-25 17:39:31.4160,0.645,-0.682,-1.711,-3.36,3.91,7.99,-1.03,0.48,0.1
2022-01-25 17:39:31.4260,0.624,-0.556,-1.689,-3.36,3.91,7.99,-1.03,0.48,0.1
2022-01-25 17:39:31.4360,0.584,-0.42,-1.607,-2.96,1.57,7.8,-0.06,0.42,0.7
2022-01-25 17:39:31.4460,0.539,-0.295,-1.491,-2.55,0.18,6.91,0.33,0.45,1.04
2022-01-25 17:39:31.4560,0.483,-0.199,-1.357,-2.55,0.18,6.91,0.59,0.48,1.33
2022-01-25 17:39:31.4660,0.42,-0.129,-1.233,-2.1,-1.08,5.75,0.71,0.42,1.5
2022-01-25 17:39:31.4760,0.36,-0.082,-1.123,-1.55,-2.06,4.48,0.7,0.31,1.54
2022-01-25 17:39:31.4860,0.306,-0.06,-1.02,-0.42,-3.3,2.31,0.6,0.23,1.44
2022-01-25 17:39:31.4960,0.262,-0.068,-0.912,0.06,-3.49,1.32,0.48,0.25,1.26
2022-01-25 17:39:31.5050,0.234,-0.084,-0.811,0.06,-3.49,1.32,0.36,0.37,1.04
2022-01-25 17:39:31.5150,0.213,-0.097,-0.731,0.45,-3.44,0.29,0.23,0.52,0.82
2022-01-25 17:39:31.5250,0.199,-0.106,-0.672,0.71,-3.32,-0.64,0.08,0.66,0.63
2022-01-25 17:39:31.5350,0.194,-0.119,-0.627,0.92,-3.23,-1.34,-0.09,0.76,0.48
2022-01-25 17:39:31.5460,0.194,-0.136,-0.6,1.09,-3.14,-1.87,-0.27,0.81,0.38
2022-01-25 17:39:31.5560,0.198,-0.165,-0.581,1.17,-3.0,-2.25,-0.45,0.81,0.34
2022-01-25 17:39:31.5650,0.2,-0.209,-0.571,1.22,-2.41,-2.66,-0.58,0.75,0.36
2022-01-25 17:39:31.5750,0.195,-0.254,-0.574,1.22,-2.41,-2.66,-0.64,0.62,0.43
2022-01-25 17:39:31.5850,0.183,-0.294,-0.577,1.25,-1.92,-2.72,-0.62,0.42,0.55
2022-01-25 17:39:31.5950,0.176,-0.326,-0.575,1.32,-1.46,-2.71,-0.51,0.17,0.67
2022-01-25 17:39:31.6050,0.173,-0.346,-0.56,1.43,-1.06,-2.69,-0.35,-0.09,0.78
2022-01-25 17:39:31.6150,0.166,-0.347,-0.528,1.43,-0.76,-2.76,-0.18,-0.28,0.87
2022-01-25 17:39:31.6250,0.16,-0.345,-0.484,1.41,-0.63,-2.95,-0.04,-0.36,0.91
2022-01-25 17:39:31.6360,0.157,-0.341,-0.444,1.42,-0.67,-3.34,0.05,-0.37,0.9
2022-01-25 17:39:31.6460,0.152,-0.335,-0.42,1.4,-0.72,-3.78,0.1,-0.34,0.82
2022-01-25 17:39:31.6560,0.144,-0.328,-0.404,1.37,-0.8,-4.14,0.12,-0.27,0.71
2022-01-25 17:39:31.6660,0.138,-0.316,-0.394,1.41,-0.99,-4.5,0.13,-0.19,0.56
2022-01-25 17:39:31.6760,0.137,-0.301,-0.398,1.41,-0.99,-4.5,0.13,-0.19,0.56
2022-01-25 17:39:31.6860,0.144,-0.296,-0.408,1.41,-1.28,-4.49,0.14,-0.08,0.25
2022-01-25 17:39:31.6970,0.151,-0.294,-0.416,1.33,-1.32,-4.4,0.14,-0.07,0.09
2022-01-25 17:39:31.7070,0.159,-0.291,-0.42,1.33,-1.32,-4.4,0.14,-0.07,0.09
2022-01-25 17:39:31.7170,0.169,-0.295,-0.426,1.17,-1.39,-4.28,0.16,-0.06,-0.14
2022-01-25 17:39:31.7270,0.187,-0.3,-0.454,1.17,-1.39,-4.28,0.14,-0.1,-0.23
2022-01-25 17:39:31.7370,0.22,-0.319,-0.475,1.07,-1.34,-4.18,0.1,-0.13,-0.31
2022-01-25 17:39:31.7470,0.262,-0.359,-0.496,0.51,-1.02,-3.71,0.05,-0.13,-0.37
2022-01-25 17:39:31.7570,0.302,-0.39,-0.534,0.1,-0.62,-3.47,-0.0,-0.11,-0.43
2022-01-25 17:39:31.7670,0.34,-0.414,-0.581,0.1,-0.62,-3.47,-0.06,-0.09,-0.46
2022-01-25 17:39:31.7770,0.387,-0.445,-0.638,-0.27,-0.32,-3.07,-0.06,-0.09,-0.46
2022-01-25 17:39:31.7870,0.43,-0.482,-0.698,-0.65,-0.05,-2.6,-0.12,-0.08,-0.47
2022-01-25 17:39:31.7970,0.463,-0.509,-0.754,-1.49,0.7,-1.47,-0.3,-0.05,-0.42
2022-01-25 17:39:31.8070,0.498,-0.529,-0.818,-1.49,0.7,-1.47,-0.44,0.04,-0.34
2022-01-25 17:39:31.8170,0.535,-0.566,-0.869,-1.78,0.99,-0.92,-0.59,0.27,-0.19
2022-01-25 17:39:31.8270,0.572,-0.611,-0.94,-2.1,1.26,-0.33,-0.72,0.54,0.06
2022-01-25 17:39:31.8370,0.615,-0.645,-1.029,-2.42,1.74,0.16,-0.78,0.74,0.37
2022-01-25 17:39:31.8470,0.655,-0.699,-1.112,-2.74,2.2,0.93,-0.8,0.8,0.71
2022-01-25 17:39:31.8570,0.685,-0.767,-1.174,-3.13,2.61,1.79,-0.82,0.73,1.0
2022-01-25 17:39:31.8670,0.697,-0.872,-1.212,-3.49,3.21,2.55,-0.92,0.62,1.24
2022-01-25 17:39:31.8770,0.672,-0.985,-1.27,-3.74,3.98,3.08,-1.05,0.47,1.44
2022-01-25 17:39:31.8870,0.604,-1.022,-1.406,-3.82,5.15,3.42,-1.14,0.14,1.54
2022-01-25 17:39:31.8970,0.558,-1.003,-1.575,-3.49,6.19,4.1,-1.17,-0.4,1.49
2022-01-25 17:39:31.9070,0.564,-1.006,-1.646,-2.89,6.4,5.56,-1.17,-0.4,1.49
2022-01-25 17:39:31.9170,0.563,-0.989,-1.645,-2.7,6.29,7.01,-1.11,-0.79,1.2
2022-01-25 17:39:31.9270,0.513,-0.827,-1.654,-2.88,6.05,7.3,-0.96,-0.63,1.12
2022-01-25 17:39:31.9370,0.455,-0.567,-1.665,-2.4,4.13,7.39,-0.63,-0.46,1.02
2022-01-25 17:39:31.9470,0.417,-0.335,-1.633,-1.93,1.53,7.43,-0.17,-0.35,0.95
2022-01-25 17:39:31.9580,0.395,-0.175,-1.554,-1.93,1.53,7.43,0.28,-0.3,0.95
2022-01-25 17:39:31.9670,0.373,-0.06,-1.461,-1.53,-2.13,6.17,0.63,-0.32,1.01
2022-01-25 17:39:31.9770,0.33,0.03,-1.352,-1.53,-2.13,6.17,0.86,-0.35,1.12
2022-01-25 17:39:31.9870,0.233,0.131,-1.246,-0.9102723133563996,-4.28,4.17,0.97,-0.41,1.26
2022-01-25 17:39:31.9980,0.12,0.216,-1.141,-0.92,-4.28,4.17,0.98,-0.48,1.39
2022-01-25 17:39:32.0070,0.025,0.265,-1.042,0.04,-5.37,3.17,0.92,-0.54,1.46
2022-01-25 17:39:32.0180,-0.06,0.28,-0.942,1.0,-6.24,2.18,0.83,-0.54,1.43
2022-01-25 17:39:32.0280,-0.15,0.276,-0.854,2.54,-6.89,0.29,0.74,-0.48,1.27
2022-01-25 17:39:32.0380,-0.234,0.257,-0.768,3.36,-6.9,-0.53,0.65,-0.38,1.02
2022-01-25 17:39:32.0480,-0.292,0.208,-0.677,4.09,-6.71,-1.38,0.54,-0.22,0.71
2022-01-25 17:39:32.0580,-0.311,0.108,-0.585,4.09,-6.71,-1.38,0.37,0.01,0.43
2022-01-25 17:39:32.0680,-0.29,-0.038,-0.509,4.56,-6.15,-2.26,0.11,0.26,0.21
2022-01-25 17:39:32.0780,-0.251,-0.197,-0.472,4.66,-5.05,-3.15,-0.19,0.48,0.06
2022-01-25 17:39:32.0880,-0.217,-0.28,-0.488,4.42,-3.52,-3.8,-0.48,0.57,-0.12
2022-01-25 17:39:32.0980,-0.179,-0.329,-0.515,4.1,-2.01,-4.06,-0.66,0.53,-0.35
2022-01-25 17:39:32.1070,-0.145,-0.388,-0.547,3.81,-1.33,-3.84,-0.68,0.38,-0.58
2022-01-25 17:39:32.1180,-0.106,-0.418,-0.583,3.51,-0.73,-3.59,-0.6,0.14,-0.82
2022-01-25 17:39:32.1270,-0.062,-0.423,-0.612,3.22,-0.12,-3.3,-0.47,-0.17,-1.07
2022-01-25 17:39:32.1380,-0.016,-0.422,-0.598,2.83,0.15,-2.95,-0.35,-0.41,-1.28
2022-01-25 17:39:32.1480,0.027,-0.408,-0.574,2.42,0.23,-2.79,-0.28,-0.54,-1.44
2022-01-25 17:39:32.1580,0.063,-0.388,-0.547,1.98,0.25,-3.01,-0.27,-0.5,-1.54
2022-01-25 17:39:32.1680,0.098,-0.371,-0.526,1.26,0.01,-3.55,-0.29,-0.35,-1.56
2022-01-25 17:39:32.1780,0.125,-0.345,-0.527,0.99,-0.11,-3.72,-0.3,-0.14,-1.51
2022-01-25 17:39:32.1880,0.142,-0.317,-0.541,0.99,-0.11,-3.72,-0.28,0.05,-1.41
2022-01-25 17:39:32.1980,0.147,-0.294,-0.563,0.8,-0.32,-3.69,-0.2,0.15,-1.25
2022-01-25 17:39:32.2080,0.142,-0.272,-0.584,0.72,-0.54,-3.53,-0.08,0.15,-1.06
2022-01-25 17:39:32.2180,0.14,-0.263,-0.596,0.75,-0.74,-3.3,0.09,0.08,-0.87
2022-01-25 17:39:32.2280,0.147,-0.278,-0.597,0.85,-0.96,-3.02,0.24,-0.07,-0.7
2022-01-25 17:39:32.2390,0.156,-0.307,-0.593,0.85,-0.96,-3.02,0.34,-0.23,-0.57
2022-01-25 17:39:32.2460,0.163,-0.338,-0.581,0.77,-0.79,-3.01,0.36,-0.36,-0.48
2022-01-25 17:39:32.2590,0.169,-0.373,-0.577,0.67,-0.51,-3.07,0.36,-0.36,-0.48
2022-01-25 17:39:32.2680,0.175,-0.43,-0.59,0.58,-0.22,-3.18,0.17,-0.39,-0.44
2022-01-25 17:39:32.2780,0.18,-0.488,-0.63,0.51,0.17,-3.19,0.03,-0.35,-0.44
2022-01-25 17:39:32.2890,0.189,-0.531,-0.722,0.43,0.76,-3.02,-0.07,-0.39,-0.45
2022-01-25 17:39:32.2980,0.201,-0.57,-0.824,0.37,1.32,-2.52,-0.07,-0.5,-0.45
2022-01-25 17:39:32.3080,0.214,-0.604,-0.911,0.23,1.74,-1.56,0.05,-0.63,-0.47
2022-01-25 17:39:32.3180,0.228,-0.627,-0.979,0.07,2.13,-0.59,0.23,-0.71,-0.48
2022-01-25 17:39:32.3290,0.235,-0.655,-1.025,-0.11,2.41,0.21,0.23,-0.71,-0.48
2022-01-25 17:39:32.3390,0.242,-0.664,-1.067,-0.37,2.85,1.24,0.47,-0.64,-0.5
2022-01-25 17:39:32.3480,0.256,-0.637,-1.112,-0.37,2.85,1.24,0.48,-0.5,-0.56
2022-01-25 17:39:32.3590,0.27,-0.592,-1.148,-0.48,2.81,1.68,0.4,-0.26,-0.65
2022-01-25 17:39:32.3680,0.285,-0.539,-1.192,-0.62,2.48,2.11,0.25,0.03,-0.73
2022-01-25 17:39:32.3780,0.311,-0.49,-1.23,-0.72,2.0,2.47,0.1,0.34,-0.78
2022-01-25 17:39:32.3880,0.357,-0.465,-1.242,-0.82,1.49,2.93,-0.04,0.63,-0.76
2022-01-25 17:39:32.3980,0.427,-0.516,-1.226,-1.43,0.98,3.32,-0.15,0.91,-0.64
2022-01-25 17:39:32.4090,0.509,-0.646,-1.193,-1.43,0.98,3.32,-0.23,1.17,-0.35
2022-01-25 17:39:32.4190,0.583,-0.776,-1.199,-2.75,3.13,2.84,-0.29,1.29,0.01
2022-01-25 17:39:32.4290,0.645,-0.813,-1.261,-3.36,4.26,3.08,-0.33,1.14,0.23
2022-01-25 17:39:32.4390,0.679,-0.767,-1.354,-3.36,4.26,3.08,-0.39,0.69,0.21
2022-01-25 17:39:32.4490,0.659,-0.685,-1.459,-4.09,3.89,4.74,-0.51,0.07,0.07
2022-01-25 17:39:32.4590,0.585,-0.578,-1.53,-4.09,3.89,4.74,-0.59,-0.48,-0.04
2022-01-25 17:39:32.4690,0.511,-0.444,-1.568,-3.79,3.07,6.24,-0.54,-0.87,-0.12
2022-01-25 17:39:32.4790,0.451,-0.304,-1.552,-3.09,2.0,6.24,-0.33,-1.0,-0.14
2022-01-25 17:39:32.4890,0.394,-0.184,-1.484,-2.48,0.68,6.48,-0.01,-0.9,-0.08
2022-01-25 17:39:32.4990,0.343,-0.091,-1.396,-1.99,-0.67,6.14,0.3,-0.7,0.09
2022-01-25 17:39:32.5090,0.302,-0.02,-1.299,-1.5,-1.8,5.41,0.51,-0.49,0.32
2022-01-25 17:39:32.5200,0.275,0.012,-1.201,-1.08,-2.71,4.51,0.6,-0.3,0.58
2022-01-25 17:39:32.5290,0.258,0.017,-1.119,-0.76,-3.4,3.58,0.57,-0.17,0.81
2022-01-25 17:39:32.5390,0.244,0.026,-1.059,-0.57,-3.68,2.64,0.47,-0.13,0.93
2022-01-25 17:39:32.5490,0.226,0.025,-0.999,-0.46,-3.79,1.92,0.36,-0.13,0.95
2022-01-25 17:39:32.5600,0.206,0.011,-0.931,-0.22,-3.91,0.76,0.28,-0.13,0.88
2022-01-25 17:39:32.5700,0.188,-0.01,-0.863,-0.22,-3.91,0.76,0.23,-0.11,0.77
2022-01-25 17:39:32.5800,0.177,-0.029,-0.801,-0.06,-3.78,0.08,0.23,-0.11,0.77
2022-01-25 17:39:32.5900,0.175,-0.053,-0.743,0.07,-3.6,-0.57,0.07,-0.13,0.48
2022-01-25 17:39:32.6000,0.177,-0.088,-0.69,0.13,-3.42,-1.16,-0.05,-0.16,0.36
2022-01-25 17:39:32.6090,0.182,-0.129,-0.644,0.11,-3.16,-1.73,-0.2,-0.21,0.28
2022-01-25 17:39:32.6200,0.179,-0.175,-0.612,0.05,-2.78,-2.25,-0.35,-0.26,0.29
2022-01-25 17:39:32.6300,0.165,-0.213,-0.59,-0.03,-2.33,-2.69,-0.35,-0.26,0.3739703893661499
2022-01-25 17:39:32.6400,0.141,-0.238,-0.58,-0.01,-1.85,-3.0,-0.53,-0.27,0.52
2022-01-25 17:39:32.6500,0.115,-0.251,-0.583,0.1,-1.47,-3.22,-0.53,-0.27,0.52
2022-01-25 17:39:32.6600,0.085,-0.253,-0.584,0.31,-1.21,-3.3,-0.43,-0.23,0.84
2022-01-25 17:39:32.6690,0.053,-0.261,-0.58,0.52,-1.1,-3.28,-0.26,-0.2,0.95
2022-01-25 17:39:32.6790,0.03,-0.273,-0.579,1.01,-0.99,-3.33,-0.07,-0.21,1.02
2022-01-25 17:39:32.6890,0.015,-0.287,-0.556,1.01,-0.99,-3.33,-0.07,-0.21,1.02
2022-01-25 17:39:32.6990,0.006,-0.288,-0.525,1.16,-0.88,-3.38,0.23,-0.24,0.98
2022-01-25 17:39:32.7100,0.004,-0.28,-0.487,1.23,-0.8,-3.64,0.29,-0.2,0.87
2022-01-25 17:39:32.7200,0.007,-0.277,-0.452,1.25,-0.86,-3.95,0.28,-0.1,0.73
2022-01-25 17:39:32.7300,0.016,-0.279,-0.429,1.23,-0.96,-4.32,0.21,0.07,0.6
2022-01-25 17:39:32.7400,0.031,-0.267,-0.423,1.17,-1.0,-4.63,0.12,0.29,0.47
2022-01-25 17:39:32.7500,0.058,-0.282,-0.405,1.08,-1.02,-4.81,0.1,0.57,0.35
2022-01-25 17:39:32.7600,0.074,-0.264,-0.434,0.95,-1.12,-4.87,0.12,0.78,0.25
2022-01-25 17:39:32.7700,0.088,-0.225,-0.438,0.76,-0.98,-4.94,0.13,1.01,0.19
2022-01-25 17:39:32.7800,0.108,-0.233,-0.432,0.7,-1.3,-4.63,0.12,1.27,0.22
2022-01-25 17:39:32.7900,0.141,-0.269,-0.449,0.67,-1.61,-4.64,0.07,1.45,0.33
2022-01-25 17:39:32.8000,0.18,-0.316,-0.487,0.33,-1.05,-4.38,-0.010003099218010902,1.45,0.33
2022-01-25 17:39:32.8100,0.218,-0.357,-0.535,0.33,-1.05,-4.38,-0.1,1.35,0.55
2022-01-25 17:39:32.8190,0.241,-0.39,-0.601,-0.25,-0.21,-3.44,-0.2,1.06,0.56
2022-01-25 17:39:32.8300,0.254,-0.432,-0.675,-0.25,-0.21,-3.44,-0.28,0.7,0.49
2022-01-25 17:39:32.8400,0.262,-0.475,-0.759,-0.51,0.6,-2.03,-0.36,0.28,0.39
2022-01-25 17:39:32.8500,0.274,-0.521,-0.858,-0.51,0.6,-2.03,-0.44,-0.15,0.3
2022-01-25 17:39:32.8600,0.285,-0.559,-0.949,-0.61,1.05,-1.19,-0.44,-0.15,0.3
2022-01-25 17:39:32.8700,0.291,-0.586,-1.034,-0.97,1.93,0.58,-0.57,-0.77,0.23
2022-01-25 17:39:32.8800,0.294,-0.612,-1.115,-0.97,1.93,0.58,-0.62,-0.9,0.24
2022-01-25 17:39:32.8900,0.293,-0.643,-1.169,-1.21,2.55,2.09,-0.63,-0.83,0.25
2022-01-25 17:39:32.9000,0.296,-0.67,-1.199,-1.21,2.55,2.09,-0.64,-0.5,0.26
2022-01-25 17:39:32.9100,0.303,-0.698,-1.232,-1.29,3.23,2.77,-0.68,0.02,0.26
2022-01-25 17:39:32.9200,0.321,-0.748,-1.293,-1.29,3.23,2.77,-0.7,0.54,0.28
2022-01-25 17:39:32.9300,0.357,-0.823,-1.392,-1.34,3.62,3.11,-0.7,0.54,0.28
2022-01-25 17:39:32.9400,0.388,-0.915,-1.454,-1.48,4.21,3.84,-0.65,1.02,0.52
2022-01-25 17:39:32.9500,0.392,-0.889,-1.593,-1.79,5.1,4.72,-0.58,0.75,0.62
2022-01-25 17:39:32.9600,0.385,-0.797,-1.756,-1.98,5.88,5.41,-0.58,0.12,0.53
2022-01-25 17:39:32.9700,0.38,-0.786,-1.833,-1.99,4.62,8.36,-0.6,-0.49,0.4
2022-01-25 17:39:32.9800,0.346,-0.754,-1.845,-1.99,4.62,8.36,-0.49,-0.87,0.29
2022-01-25 17:39:32.9900,0.28,-0.606,-1.849,-1.99,4.66,8.86,-0.21,-1.02,0.14
2022-01-25 17:39:33.0000,0.201,-0.407,-1.801,-1.04,2.42,8.88,0.17,-0.87,-0.01
2022-01-25 17:39:33.0100,0.139,-0.223,-1.699,-1.04,2.42,8.88,0.57,-0.44,-0.1
2022-01-25 17:39:33.0200,0.101,-0.061,-1.605,-0.31,0.41,8.25,0.94,0.04,-0.13
2022-01-25 17:39:33.0310,0.083,0.068,-1.504,0.61,-3.08,6.41,1.23,0.4,-0.12
2022-01-25 17:39:33.0410,0.071,0.125,-1.368,0.61,-3.08,6.41,1.44,0.66,-0.05
2022-01-25 17:39:33.0510,0.052,0.183,-1.251,0.81,-4.32,5.4,1.51,0.71,0.09
2022-01-25 17:39:33.0600,0.031,0.198,-1.094,1.01,-4.91,4.1,1.53,0.72,0.25
2022-01-25 17:39:33.0710,-0.01,0.182,-0.997,1.24,-5.64,3.0,1.5,0.59,0.43
2022-01-25 17:39:33.0810,-0.035,0.189,-0.874,1.54,-5.72,1.58,1.42,0.46,0.56
2022-01-25 17:39:33.0910,-0.075,0.149,-0.75,2.2,-5.9,-0.5,1.31,0.37,0.65
2022-01-25 17:39:33.1010,-0.103,0.098,-0.655,2.2,-5.9,-0.5,1.17,0.27,0.7
2022-01-25 17:39:33.1110,-0.11,0.04,-0.57,2.79,-5.16,-2.43,0.99,0.16,0.67
2022-01-25 17:39:33.1210,-0.107,-0.046,-0.499,2.79,-5.16,-2.43,0.77,0.08,0.59
2022-01-25 17:39:33.1310,-0.09,-0.134,-0.441,2.81,-4.6,-3.2,0.51,0.02,0.44
2022-01-25 17:39:33.1410,-0.071,-0.207,-0.41,2.74,-3.75,-3.85,0.22,-0.03,0.23
2022-01-25 17:39:33.1510,-0.066,-0.258,-0.391,2.38,-2.26,-4.63,-0.06,-0.05,0.0
2022-01-25 17:39:33.1610,-0.061,-0.293,-0.396,2.38,-2.26,-4.63,-0.06,-0.05,0.0
2022-01-25 17:39:33.1710,-0.047,-0.321,-0.414,2.35,-1.78,-4.77,-0.52,-0.12,-0.49
2022-01-25 17:39:33.1810,-0.022,-0.336,-0.431,2.28,-1.39,-4.71,-0.52,-0.12,-0.49
2022-01-25 17:39:33.1910,0.016,-0.351,-0.451,2.14,-1.09,-4.55,-0.65,-0.16,-0.97
2022-01-25 17:39:33.2010,0.056,-0.361,-0.469,1.54,-0.65,-4.25,-0.63,-0.15,-1.18
2022-01-25 17:39:33.2110,0.09,-0.361,-0.479,1.54,-0.65,-4.25,-0.6,-0.09,-1.33
2022-01-25 17:39:33.2210,0.117,-0.358,-0.482,1.21,-0.49,-4.12,-0.57,0.02,-1.43
2022-01-25 17:39:33.2310,0.143,-0.353,-0.494,0.95,-0.44,-4.06,-0.54,0.11,-1.47
2022-01-25 17:39:33.2410,0.165,-0.341,-0.511,0.58,-0.38,-3.92,-0.51,0.16,-1.47
2022-01-25 17:39:33.2510,0.182,-0.327,-0.532,0.58,-0.38,-3.92,-0.47,0.16,-1.45
2022-01-25 17:39:33.2610,0.192,-0.315,-0.552,0.45,-0.44,-3.76,-0.47,0.16,-1.45
2022-01-25 17:39:33.2710,0.199,-0.315,-0.569,0.32,-0.54,-3.39,-0.35,0.03,-1.31
2022-01-25 17:39:33.2810,0.205,-0.318,-0.581,0.32,-0.54,-3.39,-0.28,-0.06,-1.18
2022-01-25 17:39:33.2910,0.207,-0.318,-0.585,0.29,-0.46,-3.24,-0.28,-0.06,-1.18
2022-01-25 17:39:33.3010,0.209,-0.332,-0.587,0.27,-0.41,-3.16,-0.11,-0.19,-0.84
2022-01-25 17:39:33.3120,0.213,-0.355,-0.597,0.23,-0.17,-3.11,-0.11,-0.19,-0.84
2022-01-25 17:39:33.3220,0.219,-0.385,-0.604,0.19,0.07,-3.02,0.01,-0.2,-0.5
2022-01-25 17:39:33.3320,0.23,-0.43,-0.625,0.11,0.42,-2.94,0.04,-0.15,-0.36
2022-01-25 17:39:33.3420,0.236,-0.471,-0.673,0.0,0.87,-2.66,0.04,-0.13,-0.26
2022-01-25 17:39:33.3520,0.231,-0.51,-0.729,-0.02,1.26,-2.16,0.04,-0.13,-0.22
2022-01-25 17:39:33.3610,0.227,-0.548,-0.789,0.03,1.64,-1.62,0.03,-0.15,-0.22
2022-01-25 17:39:33.3710,0.227,-0.599,-0.857,0.03,1.64,-1.62,0.0,-0.18,-0.26
2022-01-25 17:39:33.3810,0.233,-0.65,-0.922,0.04,2.04,-1.0,0.0,-0.18,-0.26
2022-01-25 17:39:33.3910,0.237,-0.679,-0.996,-0.05,3.04,0.29,-0.01,-0.24,-0.36
2022-01-25 17:39:33.4110,0.234,-0.676,-1.085,-0.09,3.28,1.04,0.02,-0.31,-0.46
2022-01-25 17:39:33.4120,0.21,-0.627,-1.182,-0.04,3.15,1.95,0.06,-0.41,-0.6
2022-01-25 17:39:33.4210,0.162,-0.545,-1.261,0.25,2.58,2.87,0.09,-0.47,-0.77
2022-01-25 17:39:33.4310,0.116,-0.445,-1.291,0.76,1.73,3.56,0.09,-0.36,-1.0
2022-01-25 17:39:33.4420,0.104,-0.37,-1.274,0.76,1.73,3.56,0.02,-0.02,-1.26
2022-01-25 17:39:33.4520,0.14,-0.368,-1.25,1.19,0.8,3.7,-0.15,0.47,-1.44
2022-01-25 17:39:33.4620,0.225,-0.478,-1.23,1.29,0.24,3.5,-0.36,1.02,-1.43
2022-01-25 17:39:33.4710,0.343,-0.637,-1.231,0.96,0.55,3.28,-0.54,1.48,-1.2
2022-01-25 17:39:33.4820,0.458,-0.738,-1.297,0.19,1.94,3.12,-0.65,1.62,-0.91
2022-01-25 17:39:33.4920,0.554,-0.771,-1.406,-0.82,3.51,3.29,-0.66,1.37,-0.73
2022-01-25 17:39:33.5020,0.623,-0.749,-1.497,-1.76,4.41,4.11,-0.66,1.37,-0.73
2022-01-25 17:39:33.5120,0.647,-0.712,-1.555,-2.57,4.65,5.19,-0.64,0.87,-0.72
2022-01-25 17:39:33.5220,0.642,-0.646,-1.591,-3.1,4.44,5.99,-0.47,-0.29,-0.72
2022-01-25 17:39:33.5330,0.628,-0.524,-1.593,-3.26,4.1,6.47,-0.47,-0.29,-0.72
2022-01-25 17:39:33.5420,0.613,-0.396,-1.546,-3.21,3.35,6.73,0.16,-1.0,-0.43
2022-01-25 17:39:33.5510,0.586,-0.29,-1.469,-3.16,2.07,6.61,0.54,-1.04,-0.19
2022-01-25 17:39:33.5630,0.541,-0.178,-1.38,-2.87,-0.29,5.23,0.87,-0.95,0.08
2022-01-25 17:39:33.5720,0.479,-0.068,-1.292,-2.46,-1.49,4.36,1.1,-0.84,0.33
2022-01-25 17:39:33.5830,0.417,0.025,-1.219,-2.46,-1.49,4.36,1.18,-0.81,0.51
2022-01-25 17:39:33.5920,0.364,0.098,-1.157,-1.93,-2.66,3.54,1.13,-0.89,0.59
2022-01-25 17:39:33.6020,0.328,0.127,-1.091,-1.43,-3.65,2.86,0.99,-1.02,0.59
2022-01-25 17:39:33.6120,0.311,0.118,-1.014,-0.88,-4.62,1.59,0.84,-1.1,0.53
2022-01-25 17:39:33.6220,0.302,0.095,-0.927,-0.85,-4.57,0.82,0.7,-1.07,0.44
2022-01-25 17:39:33.6330,0.286,0.064,-0.835,-0.85,-4.57,0.82,0.61,-0.93,0.34
2022-01-25 17:39:33.6420,0.264,0.05,-0.761,-0.84,-4.36,-0.06,0.53,-0.74,0.25
2022-01-25 17:39:33.6520,0.245,0.036,-0.7,-0.74,-4.13,-0.94,0.44,-0.55,0.18
2022-01-25 17:39:33.6630,0.24,0.003,-0.643,-0.57,-4.08,-1.6,0.31,-0.37,0.15
2022-01-25 17:39:33.6720,0.243,-0.042,-0.603,-0.47,-3.57,-2.73,0.16,-0.26,0.17
2022-01-25 17:39:33.6830,0.242,-0.081,-0.577,-0.47,-3.57,-2.73,0.01,-0.23,0.21
2022-01-25 17:39:33.6920,0.236,-0.121,-0.555,-0.52,-3.13,-3.07,-0.12,-0.28,0.27
2022-01-25 17:39:33.7030,0.218,-0.161,-0.539,-0.51,-2.33,-3.55,-0.2,-0.39,0.33
2022-01-25 17:39:33.7130,0.192,-0.185,-0.519,-0.51,-2.33,-3.55,-0.2,-0.39,0.33
2022-01-25 17:39:33.7220,0.157,-0.219,-0.494,-0.37,-1.96,-3.72,-0.24,-0.62,0.38
2022-01-25 17:39:33.7320,0.126,-0.238,-0.477,0.11,-1.35,-4.2,-0.2,-0.7,0.35
2022-01-25 17:39:33.7420,0.105,-0.245,-0.457,0.11,-1.35,-4.2,-0.2,-0.7,0.35
2022-01-25 17:39:33.7520,0.092,-0.254,-0.44,0.32,-1.22,-4.39,-0.04,-0.63,0.17
2022-01-25 17:39:33.7620,0.081,-0.254,-0.426,0.45,-1.14,-4.59,0.06,-0.48,0.09
2022-01-25 17:39:33.7720,0.077,-0.25,-0.421,0.6,-1.1,-4.87,0.12,-0.29,0.01
2022-01-25 17:39:33.7830,0.087,-0.261,-0.417,0.6,-1.13,-4.92,0.12,-0.11,-0.05
2022-01-25 17:39:33.7930,0.1,-0.279,-0.422,0.6,-1.13,-4.92,0.05,0.03,-0.1
2022-01-25 17:39:33.8030,0.106,-0.287,-0.445,0.48,-0.98,-4.94,-0.04,0.06,-0.16
2022-01-25 17:39:33.8120,0.105,-0.285,-0.486,0.37,-0.82,-4.87,-0.13,-0.05,-0.23
2022-01-25 17:39:33.8220,0.109,-0.282,-0.525,0.34,-0.76,-4.18,-0.19,-0.23,-0.3
2022-01-25 17:39:33.8320,0.118,-0.282,-0.564,0.25480791717767715,-0.75,-3.82,-0.19,-0.23,-0.3
2022-01-25 17:39:33.8420,0.121,-0.286,-0.59,0.13,-0.73,-3.47,-0.21,-0.51,-0.34
2022-01-25 17:39:33.8520,0.125,-0.293,-0.627,0.13,-0.73,-3.47,-0.21,-0.52,-0.31
2022-01-25 17:39:33.8620,0.161,-0.288,-0.631,0.1,-0.61,-3.24,-0.23,-0.33,-0.31
2022-01-25 17:39:33.8720,0.158,-0.319,-0.671,-0.07,-0.61,-2.89,-0.26,-0.05,-0.24
2022-01-25 17:39:33.8820,0.182,-0.342,-0.741,-0.32,-0.52,-2.92,-0.29,0.24,-0.16
2022-01-25 17:39:33.8920,0.209,-0.371,-0.827,-0.29,-0.19,-2.34,-0.3,0.42,-0.06
2022-01-25 17:39:33.9020,0.231,-0.411,-0.925,-0.53,0.06,-1.69,-0.24,0.46,0.05
2022-01-25 17:39:33.9120,0.248,-0.446,-0.993,-0.74,0.4,-0.76,-0.1,0.44,0.17
2022-01-25 17:39:33.9230,0.261,-0.463,-1.039,-1.03,1.1,0.75,0.06,0.38,0.26
2022-01-25 17:39:33.9330,0.27,-0.478,-1.066,-1.03,1.1,0.75,0.17,0.36,0.32
2022-01-25 17:39:33.9430,0.279,-0.507,-1.064,-1.14,1.22,1.17,0.19,0.42,0.36
2022-01-25 17:39:33.9530,0.293,-0.526,-1.055,-1.19,1.38,1.38,0.15,0.57,0.39
2022-01-25 17:39:33.9640,0.313,-0.547,-1.049,-1.25,1.65,1.33,0.03,0.76,0.4
2022-01-25 17:39:33.9730,0.338,-0.601,-1.044,-1.34,1.8,1.26,-0.16,1.02,0.42
2022-01-25 17:39:33.9830,0.383,-0.686,-1.057,-1.47,2.09,1.21,-0.39,1.27,0.45
2022-01-25 17:39:33.9930,0.443,-0.782,-1.085,-1.64,2.72,1.2,-0.61,1.45,0.46
2022-01-25 17:39:34.0030,0.478,-0.843,-1.133,-2.48,4.64,1.68,-0.83,1.5,0.43
2022-01-25 17:39:34.0140,0.452,-0.83,-1.266,-2.59,5.18,2.28,-1.13,1.22,0.33
2022-01-25 17:39:34.0240,0.401,-0.804,-1.456,-2.59,5.18,2.28,-1.45,0.6,0.23
2022-01-25 17:39:34.0330,0.376,-0.78,-1.608,-2.17,5.06,3.78,-1.59,-0.13,0.16
2022-01-25 17:39:34.0440,0.364,-0.69,-1.728,-1.74,5.01,5.56,-1.4,-0.79,0.1
2022-01-25 17:39:34.0530,0.34,-0.529,-1.802,-1.63,4.77,6.87,-0.92,-1.21,-0.02
2022-01-25 17:39:34.0640,0.313,-0.355,-1.783,-1.6,3.78,7.95,-0.34,-1.24,-0.16
2022-01-25 17:39:34.0740,0.293,-0.209,-1.702,-1.45,2.12,8.43,0.13,-0.85,-0.26
2022-01-25 17:39:34.0840,0.275,-0.08,-1.621,-1.27,0.48,8.03,0.13,-0.85,-0.26
2022-01-25 17:39:34.0940,0.27,0.002,-1.551,-1.08,-0.96,7.2,0.58,0.5,-0.1
2022-01-25 17:39:34.1030,0.265,0.062,-1.489,-0.75,-2.96,5.84,0.71,1.07,0.12
2022-01-25 17:39:34.1140,0.243,0.108,-1.444,-0.75,-2.96,5.84,0.71,1.07,0.12
2022-01-25 17:39:34.1240,0.195,0.127,-1.397,-0.56,-3.62,5.31,1.04,1.22,0.6
2022-01-25 17:39:34.1340,0.125,0.132,-1.325,-0.2,-4.11,4.95,1.21,0.88,0.8
2022-01-25 17:39:34.1440,0.057,0.13,-1.213,0.39,-4.37,4.49,1.35,0.47,0.94
2022-01-25 17:39:34.1540,-0.0,0.112,-1.062,1.73,-4.64,2.6,1.44,0.18,1.04
2022-01-25 17:39:34.1640,-0.045,0.095,-0.908,1.73,-4.64,2.6,1.46,0.05,1.07
2022-01-25 17:39:34.1740,-0.085,0.067,-0.767,2.21,-4.61,1.13,1.38,0.07,1.07
2022-01-25 17:39:34.1840,-0.101,0.01,-0.635,2.63,-4.57,-0.31,1.38,0.07,1.07
2022-01-25 17:39:34.1940,-0.114,-0.064,-0.518,2.93,-4.37,-1.61,1.01,0.39,0.99
2022-01-25 17:39:34.2040,-0.123,-0.128,-0.447,3.08,-3.84,-2.84,0.76,0.5,0.87
2022-01-25 17:39:34.2140,-0.127,-0.189,-0.408,3.21,-3.21,-3.87,0.51,0.51,0.68
2022-01-25 17:39:34.2240,-0.117,-0.238,-0.365,3.34,-2.12,-4.8,0.27,0.47,0.39
2022-01-25 17:39:34.2340,-0.092,-0.297,-0.344,3.34,-2.12,-4.8,0.06,0.39,0.05
2022-01-25 17:39:34.2440,-0.059,-0.333,-0.328,3.23,-1.6,-5.14,-0.14,0.3,-0.33
2022-01-25 17:39:34.2540,-0.019,-0.348,-0.323,2.7,-0.7,-5.48,-0.32,0.2,-0.69
2022-01-25 17:39:34.2640,0.024,-0.349,-0.325,2.7,-0.7,-5.48,-0.48,0.13,-1.01
2022-01-25 17:39:34.2740,0.064,-0.338,-0.327,2.36,-0.52,-5.52,-0.62,0.11,-1.25
2022-01-25 17:39:34.2840,0.1,-0.321,-0.335,2.0,-0.46,-5.52,-0.72,0.15,-1.41
2022-01-25 17:39:34.2940,0.131,-0.298,-0.358,1.41,-0.56,-5.44,-0.79,0.2,-1.49
2022-01-25 17:39:34.3040,0.155,-0.282,-0.387,1.41,-0.56,-5.44,-0.79,0.2,-1.49
2022-01-25 17:39:34.3140,0.174,-0.274,-0.42,1.04,-0.67,-4.94,-0.89,0.24,-1.44
2022-01-25 17:39:34.3250,0.184,-0.266,-0.454,1.04,-0.67,-4.94,-0.9,0.21,-1.34
2022-01-25 17:39:34.3340,0.192,-0.26,-0.485,0.94,-0.63,-4.64,-0.88,0.14,-1.23
2022-01-25 17:39:34.3530,0.196,-0.255,-0.514,0.87,-0.55,-4.07,-0.83,0.05,-1.13
2022-01-25 17:39:34.3650,0.2,-0.26,-0.545,0.85,-0.49,-3.8,-0.79,-0.08,-1.02
2022-01-25 17:39:34.3670,0.195,-0.273,-0.572,0.85,-0.49,-3.8,-0.74,-0.21,-0.93
2022-01-25 17:39:34.3760,0.19,-0.281,-0.599,0.84,-0.31,-3.53,-0.72,-0.33,-0.83
2022-01-25 17:39:34.3860,0.19,-0.29,-0.635,0.9,-0.11,-3.32,-0.71,-0.37,-0.72
2022-01-25 17:39:34.3960,0.187,-0.317,-0.672,0.91,0.05,-3.04,-0.69,-0.28,-0.53
2022-01-25 17:39:34.4060,0.19,-0.361,-0.738,0.91,0.24,-2.72,-0.63,-0.14,-0.28
2022-01-25 17:39:34.4160,0.207,-0.403,-0.832,0.93,0.63,-2.34,-0.49,-0.06,-0.04
2022-01-25 17:39:34.4260,0.242,-0.436,-0.919,0.87,1.11,-1.61,-0.27,-0.03,0.09
2022-01-25 17:39:34.4360,0.271,-0.472,-0.986,0.64,1.53,-0.68,-0.02,-0.03,0.12
2022-01-25 17:39:34.4470,0.283,-0.5,-1.046,0.28,1.84,0.12,0.17,-0.04,0.07
2022-01-25 17:39:34.4570,0.295,-0.524,-1.114,0.05,2.18,0.74,0.26,-0.1,-0.02
2022-01-25 17:39:34.4660,0.309,-0.524,-1.195,-0.08,2.41,1.33,0.23,-0.23,-0.17
2022-01-25 17:39:34.4770,0.325,-0.494,-1.278,-0.22,2.6,2.05,0.14,-0.43,-0.34
2022-01-25 17:39:34.4870,0.341,-0.452,-1.354,-0.38,2.51,2.84,0.02,-0.6,-0.48
2022-01-25 17:39:34.4970,0.345,-0.405,-1.386,-0.6,2.19,3.64,-0.08,-0.62,-0.55
2022-01-25 17:39:34.5070,0.343,-0.362,-1.388,-0.77,1.79,4.29,-0.18,-0.43,-0.55
2022-01-25 17:39:34.5170,0.345,-0.359,-1.376,-0.81,1.36,4.48,-0.29,-0.02,-0.46
2022-01-25 17:39:34.5270,0.375,-0.419,-1.345,-0.77,1.04,4.46,-0.37,0.57,-0.26
2022-01-25 17:39:34.5370,0.444,-0.543,-1.328,-0.76,1.18,4.3,-0.38,1.16,0.01
2022-01-25 17:39:34.5470,0.519,-0.649,-1.361,-1.05,1.99,4.02,-0.36,1.48,0.24
2022-01-25 17:39:34.5570,0.58,-0.681,-1.435,-1.66,3.29,3.98,-0.37,1.4,0.28
2022-01-25 17:39:34.5670,0.63,-0.678,-1.524,-2.24,4.18,4.47,-0.43,0.96,0.13
2022-01-25 17:39:34.5770,0.67,-0.681,-1.594,-2.73,4.39,5.25,-0.52,0.36,-0.08
2022-01-25 17:39:34.5870,0.677,-0.638,-1.608,-3.18,4.42,6.13,-0.53,-0.15,-0.23
2022-01-25 17:39:34.5970,0.65,-0.529,-1.612,-3.52,4.46,6.65,-0.39,-0.49,-0.22
2022-01-25 17:39:34.6070,0.615,-0.387,-1.595,-3.54,3.9,6.71,-0.08,-0.66,-0.09
2022-01-25 17:39:34.6170,0.571,-0.243,-1.536,-3.29,2.73,6.71,0.3,-0.61,0.16
2022-01-25 17:39:34.6270,0.523,-0.127,-1.464,-2.98,1.25,6.42,0.69,-0.41,0.5
2022-01-25 17:39:34.6370,0.474,-0.021,-1.398,-2.58,-0.18,5.8,1.02,-0.22,0.88
2022-01-25 17:39:34.6470,0.422,0.076,-1.341,-2.16,-1.39,5.11,1.27,-0.15,1.21
2022-01-25 17:39:34.6570,0.37,0.142,-1.276,-1.71,-2.57,4.51,1.4,-0.21,1.43
2022-01-25 17:39:34.6670,0.33,0.166,-1.199,-1.25,-3.63,3.98,1.43,-0.34,1.52
2022-01-25 17:39:34.6770,0.304,0.154,-1.104,-0.84,-4.35,3.34,1.4,-0.43,1.5
2022-01-25 17:39:34.6870,0.288,0.127,-0.995,-0.56,-4.65,2.57,1.34,-0.44,1.4
2022-01-25 17:39:34.6970,0.272,0.099,-0.886,-0.42,-4.62,1.63,1.26,-0.34,1.26
2022-01-25 17:39:34.7070,0.256,0.072,-0.776,-0.33,-4.49,0.59,1.16,-0.16,1.12
2022-01-25 17:39:34.7170,0.242,0.038,-0.683,-0.23,-4.36,-0.45,1.03,0.04,1.01
2022-01-25 17:39:34.7270,0.235,0.003,-0.609,-0.11,-4.19,-1.47,0.87,0.23,0.93
2022-01-25 17:39:34.7370,0.234,-0.038,-0.552,0.01,-3.94,-2.3,0.68,0.36,0.88
2022-01-25 17:39:34.7470,0.232,-0.089,-0.512,0.06,-3.66,-2.95,0.48,0.41,0.85
2022-01-25 17:39:34.7570,0.229,-0.133,-0.476,0.07,-3.31,-3.44,0.27,0.41,0.85
2022-01-25 17:39:34.7670,0.207,-0.175,-0.447,0.1,-2.83,-3.79,0.11,0.36,0.89
2022-01-25 17:39:34.7770,0.18,-0.2,-0.454,0.14,-2.45,-4.13,-0.01,0.21,0.94
2022-01-25 17:39:34.7870,0.157,-0.218,-0.445,0.38,-2.08,-4.33,-0.08,0.03,1.0
2022-01-25 17:39:34.7970,0.132,-0.237,-0.421,0.59,-1.89,-4.25,-0.09,-0.11,1.04
2022-01-25 17:39:34.8070,0.104,-0.25,-0.401,0.76,-1.72,-4.41,-0.05,-0.22,1.07
2022-01-25 17:39:34.8180,0.082,-0.261,-0.387,0.96,-1.56,-4.65,0.02,-0.28,1.09
2022-01-25 17:39:34.8280,0.066,-0.28,-0.369,1.16,-1.48,-4.83,0.08,-0.29,1.08
2022-01-25 17:39:34.8380,0.056,-0.295,-0.359,1.3,-1.38,-4.98,0.12,-0.28,1.03
2022-01-25 17:39:34.8480,0.051,-0.305,-0.362,1.37,-1.22,-5.16,0.12,-0.28,0.93
2022-01-25 17:39:34.8580,0.05,-0.315,-0.369,1.39,-1.12,-5.22,0.1,-0.3,0.79
2022-01-25 17:39:34.8680,0.05,-0.324,-0.375,1.37,-1.04,-5.17,0.04,-0.32,0.62
2022-01-25 17:39:34.8780,0.054,-0.331,-0.382,1.33,-0.95,-5.11,-0.04,-0.3,0.44
2022-01-25 17:39:34.8880,0.059,-0.342,-0.393,1.27,-0.87,-5.06,-0.13,-0.26,0.28
2022-01-25 17:39:34.8980,0.067,-0.347,-0.421,1.2,-0.79,-5.0,-0.22,-0.22,0.12
2022-01-25 17:39:34.9080,0.08,-0.352,-0.467,1.11,-0.66,-4.88,-0.31,-0.22,-0.02
2022-01-25 17:39:34.9180,0.103,-0.366,-0.527,1.01,-0.6,-4.57,-0.39,-0.27,-0.15
2022-01-25 17:39:34.9280,0.135,-0.394,-0.614,0.85,-0.49,-4.12,-0.47,-0.4,-0.27
2022-01-25 17:39:34.9380,0.165,-0.439,-0.69,0.56,-0.28,-3.48,-0.49,-0.55,-0.38
2022-01-25 17:39:34.9480,0.187,-0.478,-0.756,0.21,0.09,-2.64,-0.31,-0.7,-0.6
2022-01-25 17:39:34.9600,0.197,-0.497,-0.814,-0.3,0.93,-1.33,-0.31,-0.7,-0.6
2022-01-25 17:39:34.9700,0.201,-0.513,-0.865,-0.4,1.12,-0.81,-0.17,-0.67,-0.68
2022-01-25 17:39:34.9800,0.211,-0.535,-0.924,-0.49,1.33,-0.32,-0.06,-0.61,-0.71
2022-01-25 17:39:34.9900,0.229,-0.559,-0.995,-0.63,1.56,0.28,-0.01,-0.52,-0.65
2022-01-25 17:39:35.0000,0.259,-0.591,-1.062,-0.86,1.84,0.97,0.02,-0.38,-0.49
2022-01-25 17:39:35.0100,0.29,-0.615,-1.132,-1.18,2.14,1.62,0.04,-0.21,-0.28
2022-01-25 17:39:35.0200,0.314,-0.642,-1.187,-1.69,2.65,2.75,0.15,0.24,0.19
2022-01-25 17:39:35.0310,0.329,-0.685,-1.2,-1.69,2.65,2.75,0.15,0.24,0.19
2022-01-25 17:39:35.0400,0.338,-0.73,-1.214,-1.84,3.5,3.04,0.14,0.59,0.56
2022-01-25 17:39:35.0500,0.338,-0.772,-1.245,-1.84,3.5,3.04,0.06,0.63,0.72
2022-01-25 17:39:35.0600,0.329,-0.833,-1.267,-1.8,3.91,3.35,-0.0,0.56,0.87
2022-01-25 17:39:35.0700,0.3,-0.885,-1.302,-1.65,4.54,3.56,-0.03,0.31,0.89
2022-01-25 17:39:35.0800,0.243,-0.854,-1.381,-1.28,4.89,4.02,-0.13,-0.07,0.73
2022-01-25 17:39:35.0900,0.193,-0.768,-1.474,-0.7,4.34,4.87,-0.27,-0.35,0.5
2022-01-25 17:39:35.1000,0.18,-0.763,-1.519,-0.33,3.61,5.71,-0.32,-0.44,0.25
2022-01-25 17:39:35.1100,0.174,-0.761,-1.531,-0.32,3.76,6.0,-0.21,-0.36,-0.02
2022-01-25 17:39:35.1200,0.149,-0.642,-1.549,-0.26,3.51,6.12,0.01,-0.15,-0.27
2022-01-25 17:39:35.1310,0.127,-0.483,-1.544,-0.03,2.15,6.25,0.01,-0.15,-0.27
2022-01-25 17:39:35.1400,0.112,-0.331,-1.508,0.17,0.61,6.12,0.3,0.16,-0.45
2022-01-25 17:39:35.1510,0.102,-0.192,-1.45,0.34,-0.88,5.71,0.81,0.83,-0.53
2022-01-25 17:39:35.1600,0.095,-0.075,-1.376,0.49,-2.25,5.14,0.81,0.83,-0.53
2022-01-25 17:39:35.1710,0.087,0.003,-1.284,0.67,-3.39,4.4,0.95,1.04,-0.4
2022-01-25 17:39:35.1810,0.075,0.037,-1.203,0.85,-4.11,3.56,1.01,1.07,-0.17
2022-01-25 17:39:35.1910,0.053,0.055,-1.132,1.09,-4.46,2.86,1.01,0.91,0.09
2022-01-25 17:39:35.2010,0.019,0.059,-1.064,1.41,-4.7,2.23,0.91,0.35,0.45
2022-01-25 17:39:35.2110,-0.019,0.043,-0.975,1.8,-4.78,1.6,0.91,0.35,0.45
2022-01-25 17:39:35.2210,-0.066,0.018,-0.879,2.2,-4.66,0.7,0.74,-0.07,0.53
2022-01-25 17:39:35.2310,-0.095,-0.005,-0.794,2.63,-4.52,-0.15,0.74,-0.07,0.53
2022-01-25 17:39:35.2410,-0.108,-0.049,-0.699,2.82,-4.32,-0.99,0.37,-0.2,0.32
2022-01-25 17:39:35.2510,-0.113,-0.11,-0.619,2.9,-3.89,-1.89,0.37,-0.2,0.32
2022-01-25 17:39:35.2610,-0.102,-0.178,-0.552,2.89,-3.3,-2.62,0.14,-0.18,0.12
2022-01-25 17:39:35.2710,-0.08,-0.239,-0.503,2.72,-2.65,-3.24,-0.11,-0.12,-0.13
2022-01-25 17:39:35.2820,-0.057,-0.29,-0.465,2.5,-2.06,-3.7,-0.51,0.07,-0.63
2022-01-25 17:39:35.2910,-0.032,-0.331,-0.446,2.29,-1.54,-4.05,-0.51,0.07,-0.63
2022-01-25 17:39:35.3010,-0.002,-0.352,-0.45,2.07,-1.12,-4.2,-0.66,0.09,-1.02
2022-01-25 17:39:35.3110,0.034,-0.361,-0.461,1.8,-0.9,-4.15,-0.66,0.05,-1.16
2022-01-25 17:39:35.3210,0.069,-0.364,-0.47,1.5,-0.74,-4.07,-0.66,0.05,-1.16
2022-01-25 17:39:35.3310,0.101,-0.363,-0.477,1.22,-0.64,-4.02,-0.59,-0.06,-1.3
2022-01-25 17:39:35.3410,0.129,-0.361,-0.482,0.96,-0.57,-3.99,-0.54,-0.11,-1.32
2022-01-25 17:39:35.3520,0.155,-0.348,-0.492,0.74,-0.52,-3.95,-0.54,-0.11,-1.32
2022-01-25 17:39:35.3610,0.175,-0.328,-0.496,0.54,-0.61,-3.88,-0.41,-0.08,-1.26
2022-01-25 17:39:35.3710,0.193,-0.318,-0.501,0.39,-0.71,-3.87,-0.41,-0.08,-1.26
2022-01-25 17:39:35.3810,0.206,-0.306,-0.505,0.27,-0.74,-3.84,-0.33,-0.02,-1.17
2022-01-25 17:39:35.3910,0.208,-0.292,-0.51,0.21,-0.82,-3.82,-0.16,0.12,-0.91
2022-01-25 17:39:35.4010,0.202,-0.282,-0.521,0.26,-0.9,-3.75,-0.04,0.18,-0.76
2022-01-25 17:39:35.4110,0.198,-0.276,-0.524,0.37,-0.96,-3.66,-0.04,0.18,-0.76
2022-01-25 17:39:35.4210,0.2,-0.283,-0.52,0.42,-0.96,-3.65,0.18,0.3,-0.44
2022-01-25 17:39:35.4320,0.206,-0.301,-0.516,0.45,-0.86,-3.68,0.18,0.3,-0.44
2022-01-25 17:39:35.4410,0.211,-0.325,-0.519,0.42,-0.67,-3.71,0.24,0.34,-0.24
2022-01-25 17:39:35.4510,0.209,-0.356,-0.527,0.43,-0.43,-3.63,0.24,0.34,-0.24
2022-01-25 17:39:35.4610,0.211,-0.389,-0.543,0.49,-0.12,-3.54,0.18,0.33,-0.2
2022-01-25 17:39:35.4720,0.222,-0.426,-0.6,0.49,0.18,-3.28,0.06,0.27,-0.2
2022-01-25 17:39:35.4810,0.243,-0.486,-0.679,0.38,0.6,-2.64,-0.11,0.15,-0.22
2022-01-25 17:39:35.4910,0.263,-0.565,-0.778,0.19,1.27,-1.82,-0.26,0.0,-0.24
2022-01-25 17:39:35.5020,0.283,-0.632,-0.877,0.0,2.07,-0.83,-0.34,-0.15,-0.26
2022-01-25 17:39:35.5120,0.301,-0.683,-0.969,-0.2,2.71,0.09,-0.34,-0.28,-0.27
2022-01-25 17:39:35.5220,0.319,-0.719,-1.044,-0.39,3.23,0.96,-0.26,-0.32,-0.25
2022-01-25 17:39:35.5320,0.334,-0.733,-1.116,-0.58,3.56,1.63,-0.02,-0.21,-0.07
2022-01-25 17:39:35.5420,0.354,-0.73,-1.186,-0.74,3.66,2.34,-0.02,-0.21,-0.07
2022-01-25 17:39:35.5510,0.372,-0.703,-1.254,-0.97,3.59,2.99,0.21,-0.07,-0.03
2022-01-25 17:39:35.5620,0.374,-0.636,-1.307,-1.13,3.22,3.67,0.21,-0.07,-0.03
2022-01-25 17:39:35.5720,0.369,-0.568,-1.305,-1.11,2.49,4.08,0.16,0.28,-0.22
2022-01-25 17:39:35.5820,0.382,-0.551,-1.272,-1.07,1.9,3.96,-0.01,0.54,-0.29
2022-01-25 17:39:35.5920,0.42,-0.586,-1.241,-1.23,1.87,3.63,-0.21,0.77,-0.27
2022-01-25 17:39:35.6020,0.476,-0.65,-1.238,-1.6,2.32,3.38,-0.38,0.87,-0.23
2022-01-25 17:39:35.6120,0.546,-0.7,-1.269,-2.11,2.99,3.45,-0.38,0.87,-0.23
2022-01-25 17:39:35.6220,0.613,-0.725,-1.322,-2.72,3.45,3.83,-0.54,0.82,-0.21
2022-01-25 17:39:35.6320,0.653,-0.72,-1.386,-3.26,3.7,4.39,-0.66,0.65,-0.19
2022-01-25 17:39:35.6420,0.652,-0.654,-1.464,-3.5,3.58,5.04,-0.75,0.38,-0.19
2022-01-25 17:39:35.6520,0.615,-0.55,-1.566,-3.34,2.87,5.84,-0.8,-0.01,-0.19
2022-01-25 17:39:35.6620,0.576,-0.452,-1.658,-2.95,1.93,6.86,-0.76,-0.45,-0.19
2022-01-25 17:39:35.6720,0.531,-0.341,-1.664,-2.61,1.02,7.56,-0.55,-0.75,-0.15
2022-01-25 17:39:35.6820,0.481,-0.226,-1.589,-2.2,-0.05,7.35,0.19,-0.54,0.16
2022-01-25 17:39:35.6920,0.436,-0.133,-1.473,-1.79,-1.13,6.44,0.56,-0.24,0.41
2022-01-25 17:39:35.7020,0.395,-0.061,-1.354,-1.41,-2.0,5.27,0.56,-0.24,0.41
2022-01-25 17:39:35.7120,0.364,-0.016,-1.24,-1.05,-2.72,4.12,0.95,0.06,0.92
2022-01-25 17:39:35.7220,0.349,-0.011,-1.135,-0.8,-3.16,3.05,0.98,-0.0,1.07
2022-01-25 17:39:35.7320,0.342,-0.02,-1.033,-0.71,-3.24,2.06,0.98,-0.0,1.1236536502838135
2022-01-25 17:39:35.7420,0.336,-0.031,-0.937,-0.69,-3.28,1.11,0.93,-0.15,1.12
2022-01-25 17:39:35.7520,0.324,-0.044,-0.837,-0.68,-3.26,0.2,0.6982778906822205,-0.38,1.01
2022-01-25 17:39:35.7620,0.306,-0.057,-0.741,-0.61,-3.24,-0.78,0.53,-0.43,0.88
2022-01-25 17:39:35.7720,0.292,-0.074,-0.666,-0.51,-3.18,-1.65,0.53,-0.43,0.88
2022-01-25 17:39:35.7830,0.28,-0.086,-0.609,-0.45,-3.08,-2.34,0.08,-0.42,0.6
2022-01-25 17:39:35.7920,0.269,-0.099,-0.57,-0.4,-3.01,-2.84,-0.16,-0.38,0.49
2022-01-25 17:39:35.8030,0.259,-0.115,-0.545,-0.35,-2.89,-3.2,-0.39,-0.31,0.43
2022-01-25 17:39:35.8130,0.249,-0.131,-0.53,-0.31,-2.73,-3.44,-0.39,-0.31,0.43
2022-01-25 17:39:35.8220,0.236,-0.151,-0.523,-0.25,-2.53,-3.59,-0.62,-0.13,0.51
2022-01-25 17:39:35.8330,0.218,-0.166,-0.531,-0.14,-2.31,-3.65,-0.62,-0.13,0.51
2022-01-25 17:39:35.8430,0.204,-0.182,-0.541,0.0,-2.11,-3.57,-0.51,-0.08,0.74
2022-01-25 17:39:35.8530,0.187,-0.195,-0.544,0.1,-1.91,-3.52,-0.39,-0.09,0.86
2022-01-25 17:39:35.8630,0.168,-0.205,-0.545,0.39,-1.64,-3.53,-0.39,-0.09,0.86
2022-01-25 17:39:35.8730,0.147,-0.222,-0.543,0.39,-1.64,-3.53,-0.14,-0.2,1.0
2022-01-25 17:39:35.8830,0.134,-0.234,-0.534,0.55,-1.47,-3.58,-0.06,-0.23,0.99
2022-01-25 17:39:35.8930,0.129,-0.241,-0.517,0.59,-1.39,-3.69,-0.06,-0.23,0.99
2022-01-25 17:39:35.9030,0.123,-0.248,-0.49,0.58,-1.32,-3.89,-0.01,-0.2,0.94
2022-01-25 17:39:35.9130,0.114,-0.25,-0.465,0.59,-1.28,-4.17,0.0,-0.13,0.86
2022-01-25 17:39:35.9230,0.105,-0.249,-0.445,0.64,-1.28,-4.4,-0.06,0.12,0.67
2022-01-25 17:39:35.9330,0.1,-0.248,-0.44,0.7,-1.3,-4.57,-0.06,0.12,0.67
2022-01-25 17:39:35.9430,0.099,-0.247,-0.438,0.72,-1.32,-4.59,-0.13,0.25,0.56
2022-01-25 17:39:35.9530,0.094,-0.253,-0.447,0.74,-1.31,-4.61,-0.27,0.45,0.33
2022-01-25 17:39:35.9630,0.096,-0.267,-0.467,0.79,-1.22,-4.49,-0.27,0.45,0.33
2022-01-25 17:39:35.9730,0.097,-0.286,-0.506,0.8,-1.05,-4.26,-0.27,0.45,0.23
2022-01-25 17:39:35.9830,0.107,-0.308,-0.546,0.81,-0.83,-3.85,-0.14,0.24,0.07
2022-01-25 17:39:35.9930,0.133,-0.324,-0.576,0.7,-0.61,-3.49,-0.14,0.24,0.07
2022-01-25 17:39:36.0030,0.152,-0.351,-0.601,0.46,-0.43,-3.2,-0.17,0.08,-0.07
2022-01-25 17:39:36.0130,0.163,-0.384,-0.628,0.31,-0.12,-2.97,-0.27,0.05,-0.11
2022-01-25 17:39:36.0230,0.174,-0.412,-0.668,0.22,0.22,-2.69,-0.39,0.02,-0.13
2022-01-25 17:39:36.0330,0.191,-0.445,-0.726,0.11,0.52,-2.26,-0.49,-0.04,-0.13
2022-01-25 17:39:36.0440,0.218,-0.476,-0.801,-0.08,0.89,-1.68,-0.49,-0.04,-0.13
2022-01-25 17:39:36.0530,0.254,-0.503,-0.908,-0.36,1.23,-0.89,-0.58,-0.5205872654914856,-0.11
2022-01-25 17:39:36.0640,0.285,-0.528,-1.039,-0.76,1.55,0.22,-0.66,-0.52,-0.11
2022-01-25 17:39:36.0730,0.29,-0.549,-1.154,-1.05,1.85,1.46,-0.63,-0.95,0.02
2022-01-25 17:39:36.0840,0.278,-0.556,-1.238,-1.11,2.09,2.48,-0.5,-0.84,0.13
2022-01-25 17:39:36.0940,0.273,-0.564,-1.271,-1.07,2.19,3.17,-0.5,-0.84,0.13
2022-01-25 17:39:36.1030,0.283,-0.601,-1.277,-1.13,2.37,3.35,-0.34,0.0,0.47
2022-01-25 17:39:36.1130,0.307,-0.668,-1.292,-1.33,2.84,3.39,-0.34,0.0,0.47
2022-01-25 17:39:36.1230,0.341,-0.76,-1.322,-1.59,3.59,3.57,-0.37,0.43,0.68
2022-01-25 17:39:36.1330,0.365,-0.85,-1.363,-1.92,4.57,3.88,-0.43,0.71,0.87
2022-01-25 17:39:36.1450,0.341,-0.86,-1.438,-2.01,5.35,4.33,-0.45,0.72,0.97
2022-01-25 17:39:36.1540,0.295,-0.77,-1.571,-1.65,5.19,5.21,-0.49,-0.08,0.54
2022-01-25 17:39:36.1630,0.268,-0.718,-1.664,-1.22,4.28,6.54,-0.49,-0.08,0.54
2022-01-25 17:39:36.1730,0.263,-0.729,-1.662,-1.04,4.05,7.17,-0.26,-0.41,-0.17
2022-01-25 17:39:36.1840,0.245,-0.652,-1.654,-1.03,4.1,7.04,-0.26,-0.41,-0.17
2022-01-25 17:39:36.1940,0.225,-0.488,-1.636,-0.84,3.09,6.98,-0.02,-0.37,-0.49
2022-01-25 17:39:36.2040,0.231,-0.321,-1.57,-0.73,1.41,6.69,0.22,-0.16,-0.72
2022-01-25 17:39:36.2140,0.239,-0.186,-1.479,-0.8,-0.17,5.95,0.6,0.53,-0.62
2022-01-25 17:39:36.2240,0.245,-0.076,-1.406,-0.83,-1.45,5.09,0.6,0.53,-0.62
2022-01-25 17:39:36.2340,0.241,0.004,-1.331,-0.81,-2.52,4.43,0.74,0.79,-0.34
2022-01-25 17:39:36.2440,0.213,0.047,-1.246,-0.63,-3.27,3.69,0.85,0.95,0.02
2022-01-25 17:39:36.2540,0.172,0.069,-1.178,-0.22,-3.71,2.92,1.03,0.8,0.67
2022-01-25 17:39:36.2640,0.124,0.077,-1.117,0.27,-3.98,2.34,1.07,0.56,0.85
2022-01-25 17:39:36.2740,0.075,0.068,-1.051,0.79,-4.12,1.78,1.07,0.34,0.91
2022-01-25 17:39:36.2840,0.032,0.045,-0.965,1.28,-4.1,1.14,1.07,0.34,0.91
2022-01-25 17:39:36.2940,-0.021,0.024,-0.875,1.72,-3.98,0.3,1.06,0.14,0.89
2022-01-25 17:39:36.3040,-0.05,0.005,-0.789,2.19,-3.9,-0.5,1.01,0.02,0.77
2022-01-25 17:39:36.3140,-0.057,-0.037,-0.684,2.38,-3.78,-1.37,0.81,0.09,0.4
2022-01-25 17:39:36.3240,-0.053,-0.089,-0.587,2.4,-3.4,-2.37,0.64,0.25,0.2
2022-01-25 17:39:36.3340,-0.042,-0.137,-0.502,2.33,-2.98,-3.25,0.43,0.45,-0.02
2022-01-25 17:39:36.3440,-0.022,-0.182,-0.436,2.22,-2.58,-4.02,0.43,0.45,-0.02
2022-01-25 17:39:36.3540,0.003,-0.227,-0.392,2.05,-2.17,-4.59,0.2,0.62,-0.24
2022-01-25 17:39:36.3640,0.028,-0.264,-0.367,1.87,-1.74,-4.95,-0.01,0.73,-0.45
2022-01-25 17:39:36.3740,0.054,-0.286,-0.36,1.7,-1.39,-5.14,-0.28,0.63,-0.82
2022-01-25 17:39:36.3840,0.085,-0.299,-0.369,1.53,-1.18,-5.16,-0.28,0.63,-0.82
2022-01-25 17:39:36.3940,0.121,-0.309,-0.378,1.3,-1.02,-5.05,-0.31,0.44,-0.97
2022-01-25 17:39:36.4040,0.153,-0.311,-0.379,1.03,-0.88,-4.98,-0.27,0.01,-1.16
2022-01-25 17:39:36.4140,0.176,-0.302,-0.375,0.78,-0.84,-5.0,-0.28,-0.15,-1.17
2022-01-25 17:39:36.4240,0.191,-0.29,-0.373,0.63,-0.89,-5.05,-0.33,-0.25,-1.13
2022-01-25 17:39:36.4340,0.202,-0.282,-0.379,0.52,-0.95,-5.07,-0.33,-0.25,-1.13
2022-01-25 17:39:36.4440,0.207,-0.274,-0.397,0.45,-0.96,-5.0,-0.39,-0.31,-1.04
2022-01-25 17:39:36.4540,0.21,-0.265,-0.42,0.42,-0.98,-4.83,-0.45,-0.33,-0.91
2022-01-25 17:39:36.4650,0.205,-0.258,-0.452,0.41,-1.01,-4.61,-0.5,-0.34,-0.74
2022-01-25 17:39:36.4750,0.193,-0.259,-0.501,0.47,-0.99,-4.29,-0.52,-0.34,-0.53
2022-01-25 17:39:36.4840,0.178,-0.266,-0.561,0.58,-0.91,-3.8,-0.51,-0.36,-0.34
2022-01-25 17:39:36.4940,0.157,-0.285,-0.627,0.73,-0.76,-3.22,-0.35,-0.42,-0.1
2022-01-25 17:39:36.5050,0.141,-0.305,-0.698,0.89,-0.51,-2.58,-0.22,-0.42,-0.09
2022-01-25 17:39:36.5150,0.135,-0.332,-0.755,1.0,-0.28,-1.93,-0.22,-0.42,-0.09
2022-01-25 17:39:36.5250,0.141,-0.378,-0.801,0.99,0.05,-1.42,-0.1,-0.38,-0.14
2022-01-25 17:39:36.5350,0.16,-0.433,-0.839,0.87,0.55,-1.0,-0.02,-0.19,-0.27
2022-01-25 17:39:36.5450,0.189,-0.493,-0.877,0.64,1.11,-0.65,-0.04,-0.06,-0.32
2022-01-25 17:39:36.5540,0.226,-0.552,-0.916,0.33,1.72,-0.26,-0.06,0.05,-0.35
2022-01-25 17:39:36.5640,0.263,-0.598,-0.961,-0.03,2.28,0.1,-0.06,0.1,-0.38
2022-01-25 17:39:36.5750,0.297,-0.634,-1.034,-0.37,2.71,0.6,-0.06,0.1,-0.38
2022-01-25 17:39:36.5850,0.33,-0.667,-1.118,-0.68,3.07,1.38,-0.06,0.08,-0.42
2022-01-25 17:39:36.5950,0.359,-0.69,-1.2,-0.98,3.4,2.19,-0.06,0.08,-0.42
2022-01-25 17:39:36.6050,0.376,-0.672,-1.289,-1.23,3.58,3.02,-0.01,0.02,-0.42
2022-01-25 17:39:36.6150,0.365,-0.595,-1.358,-1.31,3.27,3.87,0.05,-0.01,-0.4
2022-01-25 17:39:36.6250,0.342,-0.508,-1.377,-1.14,2.42,4.44,0.1,0.15,-0.34
2022-01-25 17:39:36.6350,0.342,-0.466,-1.368,-0.91,1.65,4.54,0.1,0.46,-0.24
2022-01-25 17:39:36.6450,0.377,-0.494,-1.353,-0.94,1.39,4.43,0.04,0.85,-0.13
2022-01-25 17:39:36.6550,0.432,-0.56,-1.352,-1.27,1.81,4.31,-0.1,1.19,-0.06
2022-01-25 17:39:36.6650,0.49,-0.624,-1.383,-1.71,2.5,4.41,-0.3,1.38,-0.06
2022-01-25 17:39:36.6750,0.554,-0.659,-1.43,-2.18,3.11,4.8,-0.47,1.35,-0.18
2022-01-25 17:39:36.6850,0.602,-0.655,-1.482,-2.67,3.4,5.31,-0.63,0.8,-0.56
2022-01-25 17:39:36.6960,0.618,-0.615,-1.541,-2.95,3.34,5.84,-0.56,0.33,-0.65
2022-01-25 17:39:36.7050,0.614,-0.55,-1.595,-2.85,2.31,6.86,-0.36,-0.11,-0.62
2022-01-25 17:39:36.7160,0.602,-0.46,-1.597,-2.85,2.31,6.86,-0.36,-0.11,-0.62
2022-01-25 17:39:36.7250,0.588,-0.36,-1.549,-2.73,1.45,6.74,-0.06,-0.42,-0.48
2022-01-25 17:39:36.7350,0.548,-0.244,-1.456,-2.58,0.45,6.13,0.3,-0.51,-0.25
2022-01-25 17:39:36.7460,0.486,-0.131,-1.358,-2.15,-0.74,5.17,0.84,-0.34,0.46
2022-01-25 17:39:36.7560,0.429,-0.059,-1.266,-1.57,-1.83,4.22,0.95,-0.28,0.8
2022-01-25 17:39:36.7660,0.392,-0.024,-1.189,-1.11,-2.51,3.36,0.98,-0.28,1.03
2022-01-25 17:39:36.7750,0.366,-0.004,-1.122,-0.83,-2.91,2.65,0.96,-0.33,1.12
2022-01-25 17:39:36.7850,0.341,0.002,-1.049,-0.64,-3.19,2.03,0.92,-0.35,1.13
2022-01-25 17:39:36.7950,0.315,-0.007,-0.959,-0.46,-3.33,1.29,0.92,-0.35,1.13
2022-01-25 17:39:36.8050,0.283,-0.019,-0.865,-0.26,-3.33,0.4,0.86,-0.31,1.1
2022-01-25 17:39:36.8160,0.26,-0.031,-0.77,-0.02,-3.33,-0.51,0.68,-0.11,0.99
2022-01-25 17:39:36.8250,0.245,-0.049,-0.694,0.13,-3.28,-1.39,0.55,-0.05,0.92
2022-01-25 17:39:36.8350,0.238,-0.072,-0.637,0.21,-3.18,-2.05,0.39,-0.01,0.85
2022-01-25 17:39:36.8460,0.236,-0.094,-0.59,0.23,-3.02,-2.57,0.39,-0.01,0.85
2022-01-25 17:39:36.8560,0.23,-0.114,-0.552,0.21,-2.86,-2.98,0.05,-0.02,0.74
2022-01-25 17:39:36.8650,0.221,-0.133,-0.516,0.25,-2.7,-3.35,0.05,-0.02,0.74
2022-01-25 17:39:36.8760,0.209,-0.154,-0.491,0.32,-2.53,-3.68,-0.21,-0.03,0.73
2022-01-25 17:39:36.8850,0.194,-0.17,-0.474,0.41,-2.33,-3.91,-0.25,-0.05,0.76
2022-01-25 17:39:36.8960,0.174,-0.18,-0.465,0.54,-2.19,-4.07,-0.25,-0.05,0.76
2022-01-25 17:39:36.9060,0.153,-0.187,-0.456,0.7,-2.1,-4.16,-0.23,-0.08,0.81
2022-01-25 17:39:36.9160,0.138,-0.196,-0.448,0.86,-2.03,-4.26,-0.18,-0.12,0.87
2022-01-25 17:39:36.9260,0.129,-0.214,-0.435,0.95,-1.92,-4.35,-0.11,-0.16,0.91
2022-01-25 17:39:36.9360,0.125,-0.232,-0.42,0.98,-1.75,-4.5,-0.05,-0.18,0.92
2022-01-25 17:39:36.9460,0.122,-0.248,-0.405,0.96,-1.6,-4.65,-0.02,-0.18,0.89
2022-01-25 17:39:36.9560,0.118,-0.266,-0.39,0.94,-1.46,-4.82,-0.01,-0.15,0.83
2022-01-25 17:39:36.9660,0.115,-0.279,-0.386,0.93,-1.29,-4.94,-0.03,-0.11,0.74
2022-01-25 17:39:36.9760,0.111,-0.289,-0.398,0.93,-1.19,-4.95,-0.13,-0.08,0.51
2022-01-25 17:39:36.9860,0.108,-0.304,-0.414,0.93,-1.09,-4.81,-0.13,-0.08,0.51
2022-01-25 17:39:36.9960,0.108,-0.317,-0.436,0.93,-0.93,-4.66,-0.21,-0.11,0.25
2022-01-25 17:39:37.0070,0.108,-0.319,-0.476,0.9,-0.82,-4.41,-0.23,-0.14,0.11
2022-01-25 17:39:37.0160,0.105,-0.32,-0.512,0.89,-0.8,-4.01,-0.25,-0.16,-0.02
2022-01-25 17:39:37.0260,0.099,-0.328,-0.549,0.91,-0.75,-3.7,-0.25,-0.16,-0.02
2022-01-25 17:39:37.0360,0.097,-0.344,-0.599,0.95,-0.63,-3.31,-0.25,-0.18,-0.12
2022-01-25 17:39:37.0460,0.102,-0.37,-0.644,0.95,-0.43,-2.83,-0.22,-0.18,-0.2
2022-01-25 17:39:37.0560,0.119,-0.401,-0.691,0.86,-0.13,-2.4,-0.15,-0.16,-0.4
2022-01-25 17:39:37.0660,0.145,-0.428,-0.749,0.66,0.19,-1.94,-0.18,-0.19,-0.5
2022-01-25 17:39:37.0760,0.173,-0.474,-0.819,0.4,0.5,-1.34,-0.18,-0.19,-0.5
2022-01-25 17:39:37.0860,0.194,-0.522,-0.882,0.14,1.03,-0.68,-0.25,-0.23,-0.55
2022-01-25 17:39:37.0960,0.212,-0.544,-0.967,-0.06,1.47,-0.04,-0.35,-0.3,-0.6
2022-01-25 17:39:37.1060,0.223,-0.57,-1.053,-0.23,1.71,0.81,-0.46,-0.35,-0.61
2022-01-25 17:39:37.1170,0.23,-0.608,-1.128,-0.32,2.05,1.6,-0.51,-0.2,-0.41
2022-01-25 17:39:37.1260,0.251,-0.653,-1.175,-0.42,2.51,2.25,-0.51,-0.2,-0.41
2022-01-25 17:39:37.1370,0.283,-0.694,-1.209,-0.67,3.0,2.63,-0.35,0.24,-0.07
2022-01-25 17:39:37.1460,0.319,-0.738,-1.258,-0.99,3.44,2.98,-0.35,0.45,0.08
2022-01-25 17:39:37.1560,0.35,-0.802,-1.299,-1.31,3.95,3.47,-0.24,0.61,0.21
2022-01-25 17:39:37.1660,0.36,-0.868,-1.338,-1.53,4.63,3.83,-0.16,0.63,0.31
2022-01-25 17:39:37.1760,0.347,-0.904,-1.386,-1.54,5.25,4.25,-0.16,0.63,0.31
2022-01-25 17:39:37.1870,0.315,-0.876,-1.47,-1.3,5.49,4.76,-0.13,-0.1,0.21
2022-01-25 17:39:37.1970,0.292,-0.812,-1.581,-0.96,5.05,5.73,-0.16,-0.57,0.05
2022-01-25 17:39:37.2070,0.293,-0.801,-1.634,-0.83,4.52,6.71,-0.12,-0.86,-0.1
2022-01-25 17:39:37.2160,0.274,-0.769,-1.655,-0.89,4.5,7.08,0.04,-0.95,-0.28
2022-01-25 17:39:37.2270,0.228,-0.642,-1.668,-0.69,3.98,7.24,0.04,-0.95,-0.28
2022-01-25 17:39:37.2370,0.185,-0.473,-1.659,-0.3,2.55,7.33,0.58,-0.55,-0.59
2022-01-25 17:39:37.2470,0.147,-0.326,-1.612,0.04,0.9,7.13,0.58,-0.55,-0.59
2022-01-25 17:39:37.2570,0.104,-0.187,-1.565,0.41,-0.54,6.64,0.83,-0.21,-0.59
2022-01-25 17:39:37.2670,0.07,-0.07,-1.516,0.82,-1.96,6.24,1.01,0.07,-0.48
2022-01-25 17:39:37.2770,0.035,-0.008,-1.444,1.16,-3.07,5.73,1.14,0.23,-0.3
2022-01-25 17:39:37.2870,-0.01,0.022,-1.368,1.56,-3.66,5.04,1.31,0.16,-0.0
2022-01-25 17:39:37.2970,-0.054,0.043,-1.272,2.03,-4.03,4.33,1.37,0.05,0.06
2022-01-25 17:39:37.3070,-0.104,0.049,-1.153,2.48,-4.32,3.38,1.37,0.05,0.06
2022-01-25 17:39:37.3170,-0.168,0.061,-1.028,3.01,-4.49,2.23,1.4,-0.05,0.06
2022-01-25 17:39:37.3270,-0.226,0.084,-0.901,3.64,-4.76,1.06,1.39,-0.15,-0.01
2022-01-25 17:39:37.3370,-0.26,0.091,-0.776,4.15,-5.11,-0.14,1.21,-0.25,-0.29
2022-01-25 17:39:37.3470,-0.259,0.066,-0.658,4.38,-5.2,-1.3,1.21,-0.25,-0.29
2022-01-25 17:39:37.3570,-0.238,0.019,-0.547,4.3,-4.99,-2.38,0.78,-0.19,-0.55
2022-01-25 17:39:37.3670,-0.206,-0.041,-0.45,4.06,-4.56,-3.41,0.78,-0.19,-0.55
2022-01-25 17:39:37.3770,-0.168,-0.113,-0.375,3.74,-4.0,-4.29,0.5,-0.13,-0.63
2022-01-25 17:39:37.3880,-0.124,-0.189,-0.325,3.37,-3.3,-4.95,0.2,-0.09,-0.7905774712562561
2022-01-25 17:39:37.3970,-0.078,-0.253,-0.301,2.95,-2.56,-5.37,-0.27,-0.18,-0.9
2022-01-25 17:39:37.4070,-0.043,-0.291,-0.304,2.54,-1.97,-5.55,-0.42,-0.33,-1.03
2022-01-25 17:39:37.4170,-0.003,-0.307,-0.321,2.24,-1.63,-5.48,-0.53,-0.45,-1.14
2022-01-25 17:39:37.4270,0.044,-0.325,-0.321,1.83,-1.42,-5.36,-0.53,-0.45,-1.14
2022-01-25 17:39:37.4370,0.08,-0.331,-0.324,1.39,-1.17,-5.41,-0.64,-0.59,-1.21
2022-01-25 17:39:37.4470,0.112,-0.315,-0.329,1.07,-1.1,-5.41,-0.68,-0.66,-1.2
2022-01-25 17:39:37.4580,0.146,-0.299,-0.343,0.75,-1.2,-5.39,-0.7,-0.76,-1.14
2022-01-25 17:39:37.4670,0.172,-0.294,-0.36,0.42,-1.24,-5.27,-0.7,-0.89,-1.05
2022-01-25 17:39:37.4770,0.191,-0.286,-0.388,0.16,-1.2,-5.14,-0.66,-1.01,-0.94
2022-01-25 17:39:37.4870,0.201,-0.271,-0.421,-0.04,-1.22,-4.88,-0.58,-1.15,-0.84
2022-01-25 17:39:37.4980,0.206,-0.259,-0.458,-0.18,-1.3,-4.61,-0.49,-1.29,-0.73
2022-01-25 17:39:37.5080,0.206,-0.26,-0.502,-0.29,-1.31,-4.26,-0.39,-1.41,-0.64
2022-01-25 17:39:37.5170,0.197,-0.268,-0.547,-0.36,-1.22,-3.86,-0.39,-1.41,-0.64
2022-01-25 17:39:37.5280,0.186,-0.284,-0.588,-0.35,-1.09,-3.47,-0.19,-1.42,-0.52
2022-01-25 17:39:37.5380,0.187,-0.308,-0.614,-0.38,-0.87,-3.12,-0.12,-1.25,-0.51
2022-01-25 17:39:37.5480,0.199,-0.333,-0.632,-0.52,-0.61,-2.93,-0.12,-1.25,-0.51
2022-01-25 17:39:37.5580,0.212,-0.367,-0.65,-0.75,-0.33,-2.78,-0.17,-0.66,-0.54
2022-01-25 17:39:37.5680,0.22,-0.408,-0.68,-0.94,0.05,-2.6,-0.17,-0.66,-0.54
2022-01-25 17:39:37.5780,0.218,-0.454,-0.729,-1.03,0.48,-2.28,-0.34,0.08,-0.58
2022-01-25 17:39:37.5880,0.213,-0.503,-0.814,-0.99,0.98,-1.74,-0.34,0.08,-0.58
2022-01-25 17:39:37.5980,0.231,-0.566,-0.934,-0.94,1.52,-0.83,-0.24,0.51,-0.65
2022-01-25 17:39:37.6080,0.275,-0.632,-1.055,-1.13,2.2,0.4,-0.24,0.51,-0.65
2022-01-25 17:39:37.6180,0.322,-0.69,-1.145,-1.53,2.87,1.5,0.08,0.49,-0.81
2022-01-25 17:39:37.6280,0.358,-0.734,-1.212,-1.9,3.42,2.34,0.08,0.49,-0.81
2022-01-25 17:39:37.6380,0.365,-0.751,-1.266,-2.12,3.81,2.96,0.14,0.35,-0.82
2022-01-25 17:39:37.6480,0.35,-0.729,-1.315,-2.05,3.88,3.49,0.14,0.35,-0.82
2022-01-25 17:39:37.6580,0.326,-0.683,-1.355,-1.82,3.59,3.95,-0.08,0.55,-0.41
2022-01-25 17:39:37.6680,0.299,-0.631,-1.393,-1.5,3.13,4.34,-0.24,0.77,-0.09
2022-01-25 17:39:37.6780,0.276,-0.59,-1.428,-1.19,2.64,4.72,-0.24,0.77,-0.09
2022-01-25 17:39:37.6880,0.26,-0.6,-1.439,-0.9,2.34,5.02,-0.37,1.02,0.26
2022-01-25 17:39:37.6990,0.243,-0.668,-1.466,-0.66,2.65,5.12,-0.45,1.15,0.57
2022-01-25 17:39:37.7080,0.225,-0.721,-1.535,-0.42,3.37,5.5,-0.38,0.66,0.73
2022-01-25 17:39:37.7180,0.214,-0.728,-1.606,-0.18,3.81,6.23,-0.2,0.26,0.56
2022-01-25 17:39:37.7280,0.217,-0.721,-1.636,-0.08,3.83,6.86,0.01,-0.02,0.31
2022-01-25 17:39:37.7380,0.206,-0.672,-1.623,-0.1,3.72,7.03,0.22,-0.14,0.09
2022-01-25 17:39:37.7480,0.174,-0.584,-1.575,0.06,3.08,6.8,0.22,-0.14,0.09
2022-01-25 17:39:37.7580,0.15,-0.494,-1.515,0.37,2.18,6.29,0.64,-0.02,0.03
2022-01-25 17:39:37.7680,0.153,-0.415,-1.434,0.53,1.28,5.68,0.86,0.08,0.14
2022-01-25 17:39:37.7780,0.161,-0.338,-1.35,0.45,0.46,4.87,1.04,0.1,0.26
2022-01-25 17:39:37.7880,0.159,-0.252,-1.269,0.4,-0.4,4.1,1.04,0.1,0.26
2022-01-25 17:39:37.7990,0.152,-0.181,-1.192,0.44,-1.33,3.34,1.12,0.01,0.34
