time,gFx,gFy,gFz,ax,ay,az,wx,wy,wz
2022-02-09 17:38:47.6290,0.096,-0.326,-0.745,1.48,-0.17,-1.46,-0.48,-0.16,0.49
2022-02-09 19:13:16.9810,0.123,-0.308,-0.797,1.36,-0.19,-1.55,-0.43,-0.07,0.47
2022-02-09 19:13:16.9920,0.146,-0.299,-0.851,1.05,-0.33,-0.97,-0.4,-0.06,0.46
2022-02-09 19:13:17.0010,0.149,-0.3,-0.883,0.85,-0.35,-0.51,-0.41,-0.1,0.43
2022-02-09 19:13:17.0120,0.152,-0.289,-0.891,0.82,-0.33,-0.27,-0.44,-0.15,0.37
2022-02-09 19:13:17.0220,0.155,-0.268,-0.901,0.76,-0.44,-0.23,-0.45,-0.2,0.3
2022-02-09 19:13:17.0320,0.162,-0.26,-0.918,0.7,-0.61,-0.14,-0.44,-0.27,0.24
2022-02-09 19:13:17.0420,0.187,-0.263,-0.954,0.57,-0.6,0.05,-0.4,-0.36,0.21
2022-02-09 19:13:17.0520,0.221,-0.268,-0.988,0.23,-0.55,0.41,-0.35,-0.4,0.2
2022-02-09 19:13:17.0620,0.243,-0.289,-0.969,-0.11,-0.43,0.64,-0.31,-0.35,0.23
2022-02-09 19:13:17.0720,0.264,-0.307,-0.923,-0.37,-0.2,0.31,-0.31,-0.28,0.29
2022-02-09 19:13:17.0820,0.27,-0.319,-0.899,-0.58,-0.01,-0.13,-0.36,-0.21,0.35
2022-02-09 19:13:17.0920,0.261,-0.313,-0.912,-0.63,0.11,-0.31,-0.38,-0.2,0.38
2022-02-09 19:13:17.1020,0.242,-0.285,-0.963,-0.53,0.01,-0.08,-0.38,-0.23,0.37
2022-02-09 19:13:17.1120,0.223,-0.264,-1.015,-0.38,-0.25,0.44,-0.35,-0.29,0.34
2022-02-09 19:13:17.1220,0.213,-0.258,-1.044,-0.24,-0.39,0.89,-0.32,-0.36,0.32
2022-02-09 19:13:17.1330,0.216,-0.259,-1.041,-0.22,-0.4,1.08,-0.29,-0.41,0.32
2022-02-09 19:13:17.1430,0.214,-0.27,-1.012,-0.3,-0.34,0.97,-0.29,-0.45,0.33
2022-02-09 19:13:17.1530,0.213,-0.279,-0.977,-0.32,-0.2,0.62,-0.34,-0.46,0.34
2022-02-09 19:13:17.1630,0.212,-0.287,-0.978,-0.37,-0.11,0.3,-0.35,-0.5,0.37
2022-02-09 19:13:17.1730,0.19,-0.292,-1.0,-0.39,0.01,0.42,-0.35,-0.53,0.39
2022-02-09 19:13:17.1830,0.162,-0.28,-0.997,-0.19,0.04,0.55,-0.35,-0.52,0.41
2022-02-09 19:13:17.1930,0.139,-0.269,-0.996,0.0,-0.07,0.49,-0.34,-0.47,0.43
2022-02-09 19:13:17.2030,0.121,-0.265,-1.001,0.16,-0.13,0.49,-0.31,-0.43,0.47
2022-02-09 19:13:17.2130,0.116,-0.26,-0.999,0.27,-0.15,0.5,-0.29,-0.4,0.52
2022-02-09 19:13:17.2230,0.118,-0.262,-1.004,0.23,-0.17,0.48,-0.28,-0.37,0.58
2022-02-09 19:13:17.2330,0.114,-0.265,-1.006,0.17,-0.11,0.51,-0.26,-0.36,0.63
2022-02-09 19:13:17.2430,0.098,-0.257,-1.02,0.18,-0.09,0.53,-0.2,-0.34,0.67
2022-02-09 19:13:17.2540,0.084,-0.238,-1.051,0.3,-0.18,0.71,-0.09,-0.36,0.69
2022-02-09 19:13:17.2640,0.076,-0.215,-1.08,0.36,-0.39,1.02,0.0,-0.42,0.66
2022-02-09 19:13:17.2740,0.055,-0.207,-1.082,0.41,-0.61,1.25,0.1,-0.48,0.6
2022-02-09 19:13:17.2790,0.04,-0.212,-1.051,0.56,-0.66,1.2,0.19,-0.44,0.55
2022-02-09 19:13:17.2960,0.037,-0.225,-0.991,0.62,-0.61,0.79,0.27,-0.33,0.52
2022-02-09 19:13:17.3040,0.03,-0.245,-0.955,0.59,-0.49,0.23,0.34,-0.22,0.51
2022-02-09 19:13:17.3140,0.022,-0.266,-0.925,0.65,-0.32,-0.07,0.32,-0.19,0.48
2022-02-09 19:13:17.3240,0.024,-0.279,-0.897,0.67,-0.17,-0.36,0.25,-0.21,0.43
2022-02-09 19:13:17.3350,0.02,-0.291,-0.893,0.62,-0.09,-0.6,0.16,-0.24,0.36
2022-02-09 19:13:17.3440,0.014,-0.302,-0.914,0.63,0.02,-0.56,0.11,-0.29,0.29
2022-02-09 19:13:17.3550,0.011,-0.306,-0.938,0.66,0.1,-0.32,0.1,-0.38,0.26
2022-02-09 19:13:17.3640,0.012,-0.302,-0.936,0.63,0.11,-0.13,0.09,-0.43,0.23
2022-02-09 19:13:17.3750,0.006,-0.3,-0.915,0.59,0.05,-0.21,0.08,-0.42,0.18
2022-02-09 19:13:17.3850,-0.009,-0.303,-0.907,0.62,0.05,-0.42,0.07,-0.36,0.12
2022-02-09 19:13:17.3950,-0.028,-0.296,-0.911,0.76,0.05,-0.45,0.07,-0.36,0.12
2022-02-09 19:13:17.4050,-0.026,-0.289,-0.916,0.87,-0.04,-0.4,0.0,-0.29,-0.02
2022-02-09 19:13:17.4150,-0.007,-0.291,-0.915,0.77,-0.09,-0.36,-0.05,-0.3,-0.06
2022-02-09 19:13:17.4260,0.017,-0.301,-0.91,0.53,-0.04,-0.39,-0.12,-0.31,-0.08
2022-02-09 19:13:17.4350,0.02,-0.315,-0.91,0.3,0.08,-0.45,-0.17,-0.31,-0.06
2022-02-09 19:13:17.4450,0.006,-0.335,-0.918,0.31,0.25,-0.42,-0.2,-0.3,-0.02
2022-02-09 19:13:17.4550,-0.007,-0.339,-0.922,0.43,0.45,-0.35,-0.24,-0.29,0.0
2022-02-09 19:13:17.4660,-0.01,-0.322,-0.928,0.5,0.45,-0.33,-0.27,-0.29,0.01
2022-02-09 19:13:17.4750,-0.011,-0.298,-0.943,0.48,0.27,-0.25,-0.27,-0.28,0.01
2022-02-09 19:13:17.4850,-0.022,-0.286,-0.952,0.49,0.08,-0.13,-0.24,-0.23,0.01
2022-02-09 19:13:17.4960,-0.031,-0.276,-0.96,0.59,0.0,-0.06,-0.18,-0.15,-0.0
2022-02-09 19:13:17.5050,-0.033,-0.27,-0.967,0.64,-0.08,0.03,-0.12,-0.06,0.0
2022-02-09 19:13:17.5160,-0.028,-0.273,-0.953,0.63,-0.1,0.06,-0.08,0.04,0.02
2022-02-09 19:13:17.5260,-0.011,-0.286,-0.94,0.57,-0.03,-0.12,-0.06,0.11,0.04
2022-02-09 19:13:17.5360,0.01,-0.294,-0.952,0.39,0.1,-0.19,-0.04,0.13,0.06
2022-02-09 19:13:17.5460,0.017,-0.296,-0.97,0.21,0.16,-0.04,-0.02,0.11,0.08
2022-02-09 19:13:17.5560,0.007,-0.292,-0.973,0.19,0.17,0.12,-0.02,0.09,0.08
2022-02-09 19:13:17.5660,-0.003,-0.29,-0.957,0.32,0.14,0.09,-0.02,0.08,0.07
2022-02-09 19:13:17.5760,-0.005,-0.282,-0.961,0.4,0.11,-0.05,-0.01,0.05,0.06
2022-02-09 19:13:17.5860,-0.005,-0.277,-0.988,0.4,0.02,0.06,0.03,0.0,0.04
2022-02-09 19:13:17.5960,-0.005,-0.279,-0.997,0.41,0.0,0.33,0.04,-0.04,0.04
2022-02-09 19:13:17.6060,0.001,-0.28,-0.974,0.38,0.01,0.32,0.03,-0.06,0.04
2022-02-09 19:13:17.6160,0.015,-0.284,-0.95,0.31,0.02,0.08,-0.0,-0.07,0.05
2022-02-09 19:13:17.6260,0.028,-0.292,-0.926,0.14,0.07,-0.17,-0.05,-0.07,0.08
2022-02-09 19:13:17.6360,0.039,-0.296,-0.928,0.01,0.16,-0.36,-0.09,-0.07,0.1
2022-02-09 19:13:17.6470,0.024,-0.294,-0.947,-0.06,0.18,-0.29,-0.09,-0.07,0.1
2022-02-09 19:13:17.6570,0.011,-0.277,-0.97,0.11,0.15,-0.09,-0.07,-0.07,0.1
2022-02-09 19:13:17.6670,0.0,-0.256,-0.986,0.19,-0.06,0.14,-0.03,-0.07,0.08
2022-02-09 19:13:17.6770,-0.017,-0.25,-0.992,0.33,-0.22,0.26,0.01,-0.07,0.04
2022-02-09 19:13:17.6870,-0.019,-0.248,-0.997,0.45,-0.27,0.32,0.05,-0.07,0.02
2022-02-09 19:13:17.6970,-0.004,-0.258,-0.989,0.43,-0.26,0.34,0.05,-0.07,0.02
2022-02-09 19:13:17.7070,0.013,-0.261,-0.972,0.23,-0.17,0.23,0.07,-0.11,0.06
2022-02-09 19:13:17.7170,0.013,-0.257,-0.958,0.1,-0.18,0.08,0.08,-0.06,0.09
2022-02-09 19:13:17.7270,0.002,-0.26,-0.943,0.12,-0.21,-0.07,0.1,0.01,0.12
2022-02-09 19:13:17.7370,-0.011,-0.258,-0.935,0.24,-0.2,-0.2,0.11,0.06,0.12
2022-02-09 19:13:17.7470,-0.019,-0.254,-0.924,0.36,-0.23,-0.27,0.08,0.08,0.09
2022-02-09 19:13:17.7570,-0.016,-0.254,-0.916,0.43,-0.28,-0.38,0.05,0.09,0.08
2022-02-09 19:13:17.7670,-0.006,-0.263,-0.933,0.37,-0.26,-0.41,0.05,0.07,0.08
2022-02-09 19:13:17.7780,-0.005,-0.268,-0.949,0.29,-0.18,-0.2,0.05,0.05,0.08
2022-02-09 19:13:17.7880,0.003,-0.265,-0.949,0.29,-0.15,-0.1,0.05,0.02,0.09
2022-02-09 19:13:17.7990,0.011,-0.254,-0.946,0.18,-0.2,-0.1,0.05,0.0,0.08
2022-02-09 19:13:17.8080,-0.005,-0.251,-0.933,0.15,-0.31,-0.15,0.03,0.01,0.06
2022-02-09 19:13:17.8180,-0.016,-0.261,-0.914,0.34,-0.31,-0.3,-0.01,0.03,0.05
2022-02-09 19:13:17.8280,-0.004,-0.272,-0.897,0.37,-0.2,-0.5,-0.06,0.05,0.04
2022-02-09 19:13:17.8380,0.005,-0.279,-0.905,0.26,-0.09,-0.61,-0.12,0.04,0.04
2022-02-09 19:13:17.8480,0.006,-0.281,-0.93,0.19,-0.02,-0.48,-0.14,0.03,0.04
2022-02-09 19:13:17.8580,0.004,-0.274,-0.958,0.19,-0.01,-0.22,-0.15,0.0,0.03
2022-02-09 19:13:17.8680,0.006,-0.267,-0.967,0.2,-0.08,0.02,-0.15,-0.02,0.01
2022-02-09 19:13:17.8780,0.006,-0.267,-0.965,0.18,-0.11,0.06,-0.16,-0.02,-0.0
2022-02-09 19:13:17.8880,0.01,-0.268,-0.963,0.18,-0.09,0.02,-0.15,-0.02,-0.01
2022-02-09 19:13:17.8990,0.016,-0.269,-0.971,0.12,-0.06,0.02,-0.14,-0.02,-0.0
2022-02-09 19:13:17.9090,0.018,-0.267,-0.983,0.07,-0.05,0.12,-0.13,-0.04,0.01
2022-02-09 19:13:17.9190,0.012,-0.264,-0.984,0.06,-0.06,0.22,-0.12,-0.03,0.01
2022-02-09 19:13:17.9290,0.007,-0.266,-0.966,0.12,-0.08,0.18,-0.13,-0.0,0.02
2022-02-09 19:13:17.9390,0.013,-0.272,-0.955,0.14,-0.03,-0.02,-0.15,0.01,0.03
2022-02-09 19:13:17.9490,0.01,-0.273,-0.975,0.09,0.04,-0.06,-0.14,-0.01,0.02
2022-02-09 19:13:17.9590,0.005,-0.26,-1.01,0.14,0.03,0.19,-0.1,-0.04,0.01
2022-02-09 19:13:17.9690,0.001,-0.25,-1.019,0.18,-0.1,0.5,-0.06,-0.06,-0.01
2022-02-09 19:13:17.9790,-0.002,-0.248,-1.004,0.21,-0.17,0.51,-0.03,-0.05,-0.02
2022-02-09 19:13:17.9890,-0.006,-0.252,-0.991,0.24,-0.17,0.34,-0.02,-0.03,-0.03
2022-02-09 19:13:17.9990,-0.001,-0.256,-0.982,0.27,-0.12,0.24,-0.02,-0.03,-0.02
2022-02-09 19:13:18.0100,0.013,-0.259,-0.984,0.18,-0.08,0.16,-0.01,-0.03,-0.01
2022-02-09 19:13:18.0190,0.02,-0.264,-0.987,0.05,-0.05,0.21,0.0,-0.03,0.02
2022-02-09 19:13:18.0300,0.016,-0.266,-0.984,0.0,0.0,0.21,0.0,-0.03,0.02
2022-02-09 19:13:18.0400,0.004,-0.266,-0.969,0.07,0.01,0.17,0.0,-0.01,0.04
2022-02-09 19:13:18.0500,-0.003,-0.263,-0.953,0.16,0.01,-0.01,-0.02,0.01,0.03
2022-02-09 19:13:18.0600,-0.012,-0.253,-0.954,0.24,-0.04,-0.13,-0.02,0.04,0.01
2022-02-09 19:13:18.0700,-0.015,-0.247,-0.972,0.33,-0.14,-0.07,0.01,0.05,-0.01
2022-02-09 19:13:18.0810,-0.012,-0.245,-0.999,0.35,-0.18,0.14,0.07,0.04,-0.03
2022-02-09 19:13:18.0900,0.003,-0.248,-1.012,0.28,-0.2,0.39,0.13,0.02,-0.04
2022-02-09 19:13:18.1000,0.012,-0.258,-0.995,0.14,-0.17,0.46,0.14,0.02,-0.04
2022-02-09 19:13:18.1100,0.012,-0.272,-0.951,0.08,-0.07,0.21,0.11,0.04,-0.02
2022-02-09 19:13:18.1200,0.016,-0.281,-0.925,0.09,0.06,-0.22,0.07,0.06,-0.01
2022-02-09 19:13:18.1300,0.014,-0.278,-0.934,0.05,0.11,-0.39,0.07,0.09,0.01
2022-02-09 19:13:18.1400,0.009,-0.271,-0.966,0.1,0.06,-0.22,0.12,0.12,0.03
2022-02-09 19:13:18.1510,0.007,-0.261,-0.984,0.15,-0.03,0.1,0.18,0.15,0.04
2022-02-09 19:13:18.1610,0.003,-0.252,-0.984,0.18,-0.15,0.22,0.23,0.18,0.03
2022-02-09 19:13:18.1710,-0.001,-0.247,-0.974,0.24,-0.24,0.22,0.25,0.2,0.02
2022-02-09 19:13:18.1810,-0.005,-0.247,-0.962,0.3,-0.31,0.09,0.27,0.22,0.01
2022-02-09 19:13:18.1910,-0.007,-0.244,-0.971,0.35,-0.33,0.02,0.33,0.27,-0.0
2022-02-09 19:13:18.2010,-0.013,-0.231,-0.997,0.4,-0.41,0.17,0.42,0.31,-0.03
2022-02-09 19:13:18.2110,-0.019,-0.216,-1.013,0.49,-0.59,0.44,0.53,0.37,-0.06
2022-02-09 19:13:18.2210,-0.023,-0.207,-1.009,0.59,-0.78,0.57,0.65,0.45,-0.1
2022-02-09 19:13:18.2320,-0.02,-0.21,-0.997,0.67,-0.91,0.51,0.76,0.56,-0.12
2022-02-09 19:13:18.2410,0.007,-0.231,-0.983,0.64,-0.9,0.42,0.81,0.63,-0.13
2022-02-09 19:13:18.2510,0.044,-0.26,-0.97,0.39,-0.74,0.3,0.79,0.6,-0.14
2022-02-09 19:13:18.2610,0.067,-0.285,-0.971,0.11,-0.54,0.22,0.73,0.52,-0.14
2022-02-09 19:13:18.2720,0.078,-0.305,-0.978,-0.02,-0.37,0.3,0.63,0.39,-0.14
2022-02-09 19:13:18.2810,0.086,-0.327,-0.962,-0.09,-0.23,0.35,0.49,0.24,-0.15
2022-02-09 19:13:18.2920,0.091,-0.345,-0.936,-0.12,-0.06,0.15,0.34,0.12,-0.14
2022-02-09 19:13:18.3020,0.097,-0.36,-0.927,-0.16,0.07,-0.05,0.22,0.02,-0.14
2022-02-09 19:13:18.3120,0.103,-0.373,-0.919,-0.2,0.19,-0.11,0.1,-0.07,-0.13
2022-02-09 19:13:18.3220,0.112,-0.38,-0.908,-0.29,0.31,-0.2,-0.01,-0.15,-0.11
2022-02-09 19:13:18.3320,0.11,-0.385,-0.902,-0.36,0.36,-0.31,-0.09,-0.18,-0.08
2022-02-09 19:13:18.3420,0.112,-0.395,-0.925,-0.35,0.43,-0.32,-0.1,-0.21,-0.05
2022-02-09 19:13:18.3520,0.106,-0.386,-0.946,-0.38,0.52,-0.04,-0.06,-0.18,-0.05
2022-02-09 19:13:18.3620,0.101,-0.376,-0.929,-0.32,0.39,0.06,-0.05,-0.15,-0.04
2022-02-09 19:13:18.3720,0.106,-0.387,-0.913,-0.32,0.36,-0.14,-0.08,-0.17,-0.02
2022-02-09 19:13:18.3820,0.115,-0.395,-0.904,-0.4,0.48,-0.27,-0.14,-0.22,-0.01
2022-02-09 19:13:18.3920,0.123,-0.394,-0.886,-0.5,0.56,-0.38,-0.2,-0.24,0.0
2022-02-09 19:13:18.4020,0.12,-0.388,-0.882,-0.59,0.55,-0.56,-0.21,-0.22,0.02
2022-02-09 19:13:18.4120,0.11,-0.378,-0.89,-0.56,0.49,-0.56,-0.16,-0.16,0.03
2022-02-09 19:13:18.4230,0.099,-0.369,-0.922,-0.46,0.41,-0.45,-0.07,-0.1,0.05
2022-02-09 19:13:18.4340,0.092,-0.343,-0.959,-0.38,0.3,-0.08,0.07,-0.05,0.04
2022-02-09 19:13:18.4430,0.081,-0.315,-0.96,-0.31,0.01,0.21,0.22,0.02,0.02
2022-02-09 19:13:18.4530,0.096,-0.29,-0.947,-0.21,-0.26,0.15,0.39,0.12,0.07
2022-02-09 19:13:18.4630,0.145,-0.262,-0.913,-0.47,-0.57,0.03,0.52,0.21,0.17
2022-02-09 19:13:18.4730,0.167,-0.253,-0.866,-0.93,-0.85,-0.38,0.62,0.34,0.27
2022-02-09 19:13:18.4830,0.139,-0.214,-0.851,-0.98,-1.01,-0.72,0.7,0.52,0.35
2022-02-09 19:13:18.4930,0.151,-0.188,-0.834,-0.69,-1.53,-0.83,0.76,0.65,0.44
2022-02-09 19:13:18.5030,0.134,-0.212,-0.801,-0.81,-1.71,-0.98,0.78,0.83,0.47
2022-02-09 19:13:18.5130,0.102,-0.237,-0.746,-0.45,-1.51,-1.36,0.82,1.03,0.46
2022-02-09 19:13:18.5240,0.12,-0.266,-0.721,-0.17,-1.35,-1.8,0.83,1.15,0.47
2022-02-09 19:13:18.5330,0.175,-0.331,-0.709,-0.38,-1.08,-1.96,0.78,1.17,0.52
2022-02-09 19:13:18.5440,0.211,-0.38,-0.7,-0.84,-0.47,-2.03,0.72,1.19,0.54
2022-02-09 19:13:18.5540,0.216,-0.364,-0.692,-1.0,-0.23,-2.06,0.71,1.19,0.54
2022-02-09 19:13:18.5640,0.247,-0.343,-0.688,-0.99,-0.52,-2.09,0.68,1.16,0.56
2022-02-09 19:13:18.5740,0.291,-0.306,-0.633,-1.28,-0.8,-2.14,0.63,1.08,0.58
2022-02-09 19:13:18.5840,0.304,-0.246,-0.548,-1.6,-1.3,-2.78,0.53,1.02,0.51
2022-02-09 19:13:18.5950,0.253,-0.213,-0.428,-1.53,-1.94,-3.64,0.41,1.07,0.3
2022-02-09 19:13:18.6040,0.177,-0.227,-0.332,-0.83,-2.17,-4.8,0.33,1.17,-0.03
2022-02-09 19:13:18.6140,0.072,-0.249,-0.273,0.09,-2.0,-5.61,0.31,1.31,-0.4
2022-02-09 19:13:18.6240,0.115,-0.185,-0.264,1.07,-1.89,-6.03,0.39,1.52,-0.71
2022-02-09 19:13:18.6340,0.176,-0.003,-0.217,0.51,-2.89,-6.06,0.6,1.94,-1.11
2022-02-09 19:13:18.6450,0.114,0.193,-0.075,0.4,-4.83,-6.67,0.95,2.77,-1.7
2022-02-09 19:13:18.6540,-0.019,0.315,0.108,1.6,-6.7,-8.16,1.45,3.93,-2.28
2022-02-09 19:13:18.6640,-0.096,0.356,0.24,3.31,-7.7,-9.7,2.01,5.15,-2.73
2022-02-09 19:13:18.6740,-0.102,0.416,0.304,4.38,-8.13,-10.61,2.63,6.11,-3.2
2022-02-09 19:13:18.6850,-0.094,0.529,0.309,5.0,-8.96,-10.66,3.16,6.75,-3.76
2022-02-09 19:13:18.6950,-0.051,0.654,0.397,5.55,-10.21,-10.35,3.47,7.24,-4.37
2022-02-09 19:13:18.7050,0.006,0.766,0.578,5.77,-11.43,-10.98,3.47,7.58,-4.96
2022-02-09 19:13:18.7150,0.121,0.802,0.785,5.87,-12.36,-12.25,3.06,7.74,-5.43
2022-02-09 19:13:18.7250,0.329,0.765,0.948,5.21,-12.3,-13.6,2.37,7.83,-5.68
2022-02-09 19:13:18.7350,0.566,0.679,1.073,3.65,-11.53,-14.42,1.56,7.87,-5.71
2022-02-09 19:13:18.7460,0.79,0.612,1.027,1.97,-10.24,-14.71,0.85,7.76,-5.58
2022-02-09 19:13:18.7560,1.04,0.646,0.805,0.18,-9.37,-13.04,0.3,7.58,-5.43
2022-02-09 19:13:18.7650,1.193,0.721,0.562,-1.71,-9.44,-10.02,-0.01,7.46,-5.29
2022-02-09 19:13:18.7750,1.376,0.842,0.167,-2.8,-9.72,-6.82,0.19,7.21,-5.33
2022-02-09 19:13:18.7850,1.506,0.945,-0.374,-4.42,-10.55,-1.71,0.84,6.58,-5.54
2022-02-09 19:13:18.7960,1.614,0.927,-0.84,-5.28,-10.68,4.27,1.48,5.31,-5.81
2022-02-09 19:13:18.8060,1.766,0.9,-0.909,-6.45,-9.88,8.73,1.55,3.83,-6.13
2022-02-09 19:13:18.8160,1.874,0.649,-0.569,-7.82,-8.75,8.53,1.55,3.83,-6.13
2022-02-09 19:13:18.8260,1.983,0.289,-0.186,-8.85,-5.02,5.02,0.0,1.03,-5.67
2022-02-09 19:13:18.8360,2.063,0.188,0.068,-9.99,-1.36,1.62,-0.93,0.18,-5.19
2022-02-09 19:13:18.8460,2.046,0.37,0.18,-10.59,-0.65,-0.5,-1.33,0.26,-4.99
2022-02-09 19:13:18.8560,2.025,0.596,0.084,-10.39,-2.35,-1.08,-1.05,0.93,-4.93
2022-02-09 19:13:18.8670,2.065,0.655,-0.082,-10.43,-3.78,0.35,-0.3,1.72,-4.76
2022-02-09 19:13:18.8770,2.085,0.616,-0.223,-11.02,-3.52,2.09,0.56,2.22,-4.62
2022-02-09 19:13:18.8860,2.048,0.634,-0.315,-11.23,-2.74,3.59,1.13,2.18,-4.66
2022-02-09 19:13:18.8970,2.029,0.686,-0.316,-11.0,-2.67,4.43,1.22,1.66,-4.78
2022-02-09 19:13:18.9070,2.055,0.633,-0.233,-11.19,-2.57,4.34,0.85,0.77,-4.81
2022-02-09 19:13:18.9170,2.077,0.509,-0.135,-11.67,-1.34,3.41,0.17,-0.28,-4.7
2022-02-09 19:13:18.9270,2.09,0.406,-0.075,-12.08,0.27,2.5,-0.59,-1.29,-4.43
2022-02-09 19:13:18.9370,2.071,0.33,-0.065,-12.39,1.58,1.97,-1.26,-2.13,-4.09
2022-02-09 19:13:18.9470,1.987,0.322,-0.068,-12.26,2.51,1.82,-1.77,-2.75,-3.79
2022-02-09 19:13:18.9560,1.838,0.364,-0.101,-11.46,2.71,1.8,-2.12,-3.16,-3.58
2022-02-09 19:13:18.9670,1.701,0.424,-0.148,-10.08,2.48,2.04,-2.32,-3.56,-3.42
2022-02-09 19:13:18.9770,1.627,0.525,-0.211,-9.15,2.05,2.44,-2.39,-3.85,-3.26
2022-02-09 19:13:18.9870,1.527,0.588,-0.311,-8.55,1.26,3.01,-2.32,-4.03,-3.09
2022-02-09 19:13:18.9970,1.442,0.62,-0.347,-7.8,1.04,3.82,-2.14,-3.91,-3.03
2022-02-09 19:13:19.0070,1.339,0.74,-0.29,-7.09,0.73,3.78,-1.94,-3.56,-3.03
2022-02-09 19:13:19.0170,1.349,0.671,-0.276,-6.41,-0.1,3.12,-1.7,-3.1,-2.8
2022-02-09 19:13:19.0280,1.424,0.56,-0.332,-7.07,1.22,3.05,-1.45,-2.73,-2.48
2022-02-09 19:13:19.0370,1.413,0.563,-0.44,-7.81,2.14,3.7,-1.15,-2.52,-2.31
2022-02-09 19:13:19.0470,1.369,0.536,-0.603,-7.66,2.18,4.88,-0.9,-2.84,-2.28
2022-02-09 19:13:19.0580,1.498,0.437,-0.569,-7.69,2.79,6.15,-1.06,-3.69,-2.04
2022-02-09 19:13:19.0670,1.784,0.285,-0.238,-9.58,4.01,4.96,-1.92,-4.68,-1.36
2022-02-09 19:13:19.0780,1.969,0.151,0.116,-12.64,5.66,1.02,-2.8,-5.71,-0.75
2022-02-09 19:13:19.0880,1.762,0.171,0.049,-13.6,6.72,-1.48,-3.25,-6.07,-0.45
2022-02-09 19:13:19.0980,1.488,0.281,0.215,-11.09,6.22,-0.84,-3.26,-5.61,-0.27
2022-02-09 19:13:19.1080,1.188,0.394,0.477,-8.53,5.12,-3.29,-2.29,-4.2,0.04
2022-02-09 19:13:19.1180,0.95,0.494,0.39,-5.49,4.03,-5.24,-1.26,-2.74,0.36
2022-02-09 19:13:19.1290,0.857,0.605,0.186,-3.6,3.06,-3.76,-0.66,-1.79,0.42
2022-02-09 19:13:19.1380,0.782,0.707,0.095,-2.78,1.93,-1.98,-0.35,-1.32,0.33
2022-02-09 19:13:19.1480,0.698,0.772,0.123,-2.01,0.96,-1.49,-0.18,-1.1,0.19
2022-02-09 19:13:19.1580,0.645,0.75,0.123,-1.18,0.51,-1.89,-0.0,-0.93,0.1
2022-02-09 19:13:19.1690,0.678,0.702,0.071,-0.86,0.87,-1.75,0.09,-0.8,0.08
2022-02-09 19:13:19.1780,0.733,0.696,0.011,-1.32,1.27,-1.28,0.06,-0.93,0.07
2022-02-09 19:13:19.1880,0.743,0.712,-0.021,-1.77,1.22,-0.67,-0.04,-1.09,0.06
2022-02-09 19:13:19.1980,0.795,0.721,0.034,-1.86,1.09,-0.76,-0.07,-1.17,0.09
2022-02-09 19:13:19.2090,0.873,0.775,0.019,-2.56,0.93,-1.25,-0.07,-1.17,0.09
2022-02-09 19:13:19.2190,0.84,0.859,-0.052,-3.12,0.28,-0.98,0.22,-1.02,0.03
2022-02-09 19:13:19.2290,0.77,0.896,-0.069,-2.6,-0.51,-0.37,0.36,-0.73,-0.07
2022-02-09 19:13:19.2390,0.717,0.871,0.034,-1.95,-0.69,-0.58,0.42,-0.35,-0.14
2022-02-09 19:13:19.2490,0.715,0.854,0.088,-1.51,-0.4,-1.73,0.46,-0.06,-0.14
2022-02-09 19:13:19.2590,0.819,0.837,0.069,-1.77,-0.26,-2.02,0.5,0.12,-0.07
2022-02-09 19:13:19.2690,0.88,0.843,0.049,-2.87,-0.11,-1.85,0.51,0.2,0.04
2022-02-09 19:13:19.2790,0.855,0.889,0.037,-3.19,-0.29,-1.7,0.53,0.18,0.16
2022-02-09 19:13:19.2890,0.837,0.98,-0.013,-2.87,-0.84,-1.55,0.64,0.11,0.35
2022-02-09 19:13:19.2990,0.802,1.144,-0.024,-2.69,-1.93,-1.11,0.76,0.01,0.47
2022-02-09 19:13:19.3090,0.697,1.298,-0.069,-2.16,-3.67,-1.14,0.94,-0.06,0.44
2022-02-09 19:13:19.3140,0.616,1.393,-0.149,-1.04,-5.06,-0.56,1.15,-0.15,0.32
2022-02-09 19:13:19.3920,0.579,1.426,-0.21,-0.09,-6.09,0.57,1.02,-1.07,-0.35
2022-02-09 19:13:19.3920,0.578,1.403,-0.29,-0.09,-6.09,0.57,1.02,-1.07,-0.35
Time,0.546,1.364,-0.317,-0.09,-6.09,0.57,1.02,-1.07,-0.35
Time,0.52,1.331,-0.323,-0.09,-6.09,0.57,1.02,-1.07,-0.35
Time,0.533,1.274,-0.361,-0.09,-6.09,0.57,1.02,-1.07,-0.35
Time,0.526,1.167,-0.379,-0.09,-6.09,0.57,1.02,-1.07,-0.35
2022-02-09 19:13:19.3960,0.501,1.066,-0.36,-0.09,-6.09,0.57,0.86,-0.96,-0.45
2022-02-09 19:13:19.4030,0.458,0.983,-0.345,-0.09,-6.09,0.57,0.75,-0.81,-0.53
2022-02-09 19:13:19.4130,0.434,0.92,-0.395,0.31,-5.49,1.13,0.7,-0.71,-0.58
2022-02-09 19:13:19.4230,0.408,0.857,-0.42,0.91,-1.69,0.82,0.66,-0.57,-0.61
2022-02-09 19:13:19.4300,0.334,0.805,-0.396,1.33,-0.45,1.25,0.61,-0.41,-0.68
2022-02-09 19:13:19.4400,0.244,0.777,-0.394,2.08,0.02,0.95,0.58,-0.23,-0.81
2022-02-09 19:13:19.4500,0.167,0.747,-0.459,2.88,0.3,1.01,0.61,-0.03,-0.99
2022-02-09 19:13:19.4600,0.137,0.719,-0.559,3.47,0.64,1.73,0.71,0.04,-1.25
2022-02-09 19:13:19.4700,0.123,0.689,-0.66,3.56,0.93,2.71,0.81,0.01,-1.53
2022-02-09 19:13:19.4810,0.109,0.59,-0.676,3.61,1.37,3.48,0.82,-0.07,-1.73
2022-02-09 19:13:19.4910,0.133,0.409,-0.663,3.53,2.65,3.4,0.74,-0.17,-1.86
2022-02-09 19:13:19.5110,0.247,0.277,-0.566,1.45,5.58,1.78,0.37,-0.31,-1.84
2022-02-09 19:13:19.5110,0.339,0.218,-0.465,1.45,5.58,1.78,0.08,-0.42,-1.84
2022-02-09 19:13:19.5280,0.292,0.11,-0.551,1.45,5.58,1.78,-0.1,-0.64,-1.83
2022-02-09 19:13:19.5380,0.345,0.035,-0.548,1.45,5.58,1.78,-0.23,-0.92,-1.77
2022-02-09 19:13:19.5380,0.386,0.017,-0.517,1.45,5.58,1.78,-0.31,-1.04,-1.66
2022-02-09 19:13:19.5470,0.416,0.04,-0.443,1.45,5.58,1.78,-0.39,-1.03,-1.51
2022-02-09 19:13:19.5560,0.431,0.103,-0.358,1.45,5.58,1.78,-0.47,-1.0,-1.34
2022-02-09 19:13:19.5660,0.456,0.13,-0.324,1.45,5.58,1.78,-0.51,-0.97,-1.15
2022-02-09 19:13:19.5760,0.47,0.113,-0.335,1.45,5.58,1.78,-0.5,-0.93,-0.92
2022-02-09 19:13:19.5970,0.476,0.104,-0.325,1.45,5.58,1.78,-0.51,-0.88,-0.67
2022-02-09 19:13:19.5970,0.476,0.123,-0.291,1.45,5.58,1.78,-0.56,-0.83,-0.4
2022-02-09 19:13:19.6070,0.485,0.183,-0.25,1.45,5.58,1.78,-0.69,-0.7,-0.1
2022-02-09 19:13:19.6160,0.499,0.309,-0.174,1.45,5.58,1.78,-1.05,-0.36,0.1
2022-02-09 19:13:19.6220,0.44,0.648,0.147,1.45,5.58,1.78,-1.87,0.29,0.1
2022-02-09 19:13:19.6320,0.334,1.027,0.532,1.45,5.58,1.78,-2.63,0.85,-0.09
2022-02-09 19:13:19.6430,0.24,0.996,0.224,1.45,5.58,1.78,-2.56,0.95,-0.26
2022-02-09 19:13:20.1430,0.198,0.78,-0.268,-4.46,0.26,-1.23,-0.44,-1.54,2.22
2022-02-09 19:13:20.1430,0.319,0.777,-0.322,-4.46,0.26,-1.23,-0.44,-1.54,2.22
2022-02-09 19:13:20.1430,0.606,0.894,-0.179,-4.46,0.26,-1.23,-0.44,-1.54,2.22
2022-02-09 19:13:20.1430,0.77,0.9,-0.05,-4.46,0.26,-1.23,-0.44,-1.54,2.22
2022-02-09 19:13:20.1430,0.812,0.935,-0.044,-4.46,0.26,-1.23,-0.44,-1.54,2.22
2022-02-09 19:13:20.1430,0.78,0.978,-0.163,-4.46,0.26,-1.23,-0.44,-1.54,2.22
2022-02-09 19:13:20.1430,0.793,1.034,-0.181,-4.46,0.26,-1.23,-0.44,-1.54,2.22
2022-02-09 19:13:20.1430,0.779,1.134,-0.12,-4.46,0.26,-1.23,-0.44,-1.54,2.22
2022-02-09 19:13:20.1430,0.746,1.216,-0.091,-4.46,0.26,-1.23,-0.44,-1.54,2.22
2022-02-09 19:13:20.1430,0.772,1.261,-0.155,-4.46,0.26,-1.23,-0.44,-1.54,2.22
2022-02-09 19:13:20.1430,0.842,1.186,-0.141,-4.46,0.26,-1.23,-0.44,-1.54,2.22
2022-02-09 19:13:20.1430,0.872,1.057,-0.063,-4.46,0.26,-1.23,-0.44,-1.54,2.22
2022-02-09 19:13:20.1430,0.833,0.989,0.003,-4.46,0.26,-1.23,-0.44,-1.54,2.22
2022-02-09 19:13:20.1430,0.827,0.966,0.058,-4.46,0.26,-1.23,-0.44,-1.54,2.22
2022-02-09 19:13:20.1430,0.819,0.935,0.022,-4.46,0.26,-1.23,-0.44,-1.54,2.22
2022-02-09 19:13:20.1430,0.773,0.914,-0.032,-4.46,0.26,-1.23,-0.44,-1.54,2.22
2022-02-09 19:13:20.1430,0.722,0.922,-0.075,-4.46,0.26,-1.23,-0.44,-1.54,2.22
2022-02-09 19:13:20.1430,0.685,0.997,-0.131,-4.46,0.26,-1.23,-0.44,-1.54,2.22
2022-02-09 19:13:20.1430,0.637,1.123,-0.196,-4.46,0.26,-1.23,-0.44,-1.54,2.22
2022-02-09 19:13:20.1430,0.63,1.278,-0.282,-4.46,0.26,-1.23,-0.44,-1.54,2.22
2022-02-09 19:13:20.1430,0.609,1.465,-0.352,-4.46,0.26,-1.23,-0.44,-1.54,2.22
2022-02-09 19:13:20.1430,0.509,1.573,-0.359,-4.46,0.26,-1.23,-0.44,-1.54,2.22
2022-02-09 19:13:20.1430,0.444,1.597,-0.37,-4.46,0.26,-1.23,-0.44,-1.54,2.22
2022-02-09 19:13:20.1430,0.432,1.548,-0.403,-4.46,0.26,-1.23,-0.44,-1.54,2.22
2022-02-09 19:13:20.1430,0.458,1.43,-0.45,-4.46,0.26,-1.23,-0.44,-1.54,2.22
2022-02-09 19:13:20.1430,0.533,1.264,-0.399,-4.46,0.26,-1.23,-0.44,-1.54,2.22
2022-02-09 19:13:20.1430,0.643,1.042,-0.138,-4.46,0.26,-1.23,-0.44,-1.54,2.22
2022-02-09 19:13:20.1430,0.739,0.834,0.142,-4.46,0.26,-1.23,-0.44,-1.54,2.22
2022-02-09 19:13:20.1430,0.776,0.761,0.018,-4.46,0.26,-1.23,-0.44,-1.54,2.22
2022-02-09 19:13:20.1430,0.844,0.779,-0.134,-4.46,0.26,-1.23,-0.44,-1.54,2.22
2022-02-09 19:13:20.1430,0.92,0.893,-0.163,-4.46,0.26,-1.23,-0.44,-1.54,2.22
2022-02-09 19:13:20.1430,0.917,1.017,-0.173,-4.46,0.26,-1.23,-0.44,-1.54,2.22
2022-02-09 19:13:20.1430,0.824,1.072,-0.092,-4.46,0.26,-1.23,-0.44,-1.54,2.22
2022-02-09 19:13:20.1430,0.704,1.098,-0.006,-4.46,0.26,-1.23,-0.44,-1.54,2.22
2022-02-09 19:13:20.1430,0.594,1.124,0.019,-4.46,0.26,-1.23,-0.44,-1.54,2.22
2022-02-09 19:13:20.1430,0.528,1.119,0.029,-4.46,0.26,-1.23,-0.44,-1.54,2.22
2022-02-09 19:13:20.1430,0.522,1.068,0.021,-4.46,0.26,-1.23,-0.44,-1.54,2.22
2022-02-09 19:13:20.1430,0.544,0.969,-0.015,-4.46,0.26,-1.23,-0.44,-1.54,2.22
Time,0.555,0.867,-0.09,-4.46,0.26,-1.23,-0.44,-1.54,2.22
Time,0.547,0.789,-0.169,-4.46,0.26,-1.23,-0.44,-1.54,2.22
Time,0.505,0.742,-0.192,-4.46,0.26,-1.23,-0.44,-1.54,2.22
Time,0.465,0.712,-0.174,-4.46,0.26,-1.23,-0.44,-1.54,2.22
Time,0.432,0.68,-0.162,-4.46,0.26,-1.23,-0.44,-1.54,2.22
Time,0.396,0.66,-0.171,-4.46,0.26,-1.23,-0.19,-1.44,2.1
2022-02-09 19:13:20.1430,0.319,0.655,-0.168,-4.46,0.26,-1.23,0.06,-1.24,1.87
2022-02-09 19:13:20.1440,0.234,0.653,-0.137,-4.46,0.26,-1.23,0.27,-1.02,1.57
2022-02-09 19:13:20.1450,0.195,0.663,-0.102,-4.46,0.26,-1.23,0.43,-0.69,1.25
2022-02-09 19:13:20.1470,0.161,0.667,-0.053,-4.46,0.26,-1.23,0.61,-0.38,0.9
2022-02-09 19:13:20.1490,0.108,0.644,-0.096,-4.46,0.26,-1.23,0.79,-0.19,0.58
2022-02-09 19:13:20.1550,0.07,0.592,-0.097,-4.46,0.26,-1.23,0.93,-0.04,0.31
2022-02-09 19:13:20.1540,0.051,0.538,-0.059,-4.46,0.26,-1.23,1.01,0.07,0.09
2022-02-09 19:13:20.1590,0.07,0.468,-0.012,-4.46,0.26,-1.23,1.03,0.23,-0.05
2022-02-09 19:13:20.1700,0.102,0.4,0.015,-4.46,0.26,-1.23,1.05,0.38,-0.14
2022-02-09 19:13:20.1810,0.121,0.366,0.004,-4.46,0.26,-1.23,1.07,0.45,-0.21
2022-02-09 19:13:20.2020,0.157,0.359,-0.012,-4.46,0.26,-1.23,1.02,0.4,-0.29
2022-02-09 19:13:20.2070,0.19,0.384,-0.005,-4.46,0.26,-1.23,0.89,0.29,-0.39
2022-02-09 19:13:20.2220,0.211,0.427,0.034,-4.46,0.26,-1.23,0.73,0.2,-0.52
2022-02-09 19:13:20.2320,0.23,0.483,0.045,-4.46,0.26,-1.23,0.58,0.15,-0.66
2022-02-09 19:13:20.2380,0.244,0.544,-0.013,-4.46,0.26,-1.23,0.52,0.11,-0.84
Time,0.258,0.588,-0.078,-4.46,0.26,-1.23,0.5,0.05,-1.01
2022-02-09 19:13:20.2620,0.284,0.625,-0.103,-4.46,0.26,-1.23,0.47,-0.02,-1.2
2022-02-09 19:13:20.2730,0.333,0.656,-0.055,-4.46,0.26,-1.23,0.35,-0.04,-1.36
2022-02-09 19:13:20.2780,0.397,0.653,0.101,-4.46,0.26,-1.23,0.04,0.06,-1.51
2022-02-09 19:13:20.2920,0.475,0.628,0.309,-4.46,0.26,-1.23,-0.47,0.27,-1.61
2022-02-09 19:13:20.2980,0.588,0.582,0.413,-4.46,0.26,-1.23,-0.96,0.08,-1.61
2022-02-09 19:13:20.3110,0.763,0.6,0.088,-4.46,0.26,-1.23,-1.11,-0.78,-1.62
2022-02-09 19:13:20.3180,0.858,0.716,-0.461,-4.46,0.26,-1.23,-0.8,-1.41,-1.74
Time,0.9,0.841,-0.84,-4.46,0.26,-1.23,-0.24,-1.77,-1.75
2022-02-09 19:13:20.3390,0.893,0.942,-1.05,-4.46,0.26,-1.23,0.29,-2.19,-1.5
2022-02-09 19:13:20.3530,0.894,0.972,-1.049,-4.46,0.26,-1.23,0.65,-2.62,-1.14
2022-02-09 19:13:20.3590,0.906,1.006,-0.824,-4.46,0.26,-1.23,1.1,-2.44,-0.88
2022-02-09 19:13:20.3720,0.99,1.115,-0.459,-4.46,0.26,-1.23,1.59,-1.46,-0.67
2022-02-09 19:13:20.3790,1.032,1.394,-0.237,-4.46,0.26,-1.23,1.46,-0.95,-0.39
2022-02-09 19:13:20.3910,1.258,1.474,0.16,-4.46,0.26,-1.23,0.81,-0.93,-0.08
Time,1.451,1.401,0.777,-4.46,0.26,-1.23,-0.24,-0.86,0.15
2022-02-09 19:13:20.4100,1.137,1.362,0.416,-4.46,0.26,-1.23,-0.55,-0.55,0.01
Time,0.924,1.365,-0.092,-4.46,0.26,-1.23,-0.29,-0.26,0.02
2022-02-09 19:13:20.4240,0.728,1.233,-0.111,-3.97,0.01,-0.83,0.03,0.46,0.02
2022-02-09 19:13:20.4420,0.468,1.167,-0.164,-3.97,0.01,-0.83,0.21,1.28,-0.07
2022-02-09 19:13:20.4550,0.461,1.158,-0.226,-3.97,0.01,-0.83,0.33,1.6,-0.12
2022-02-09 19:13:20.4590,0.438,1.156,-0.426,-3.97,0.01,-0.83,0.45,1.62,-0.2
2022-02-09 19:13:20.4700,0.385,1.183,-0.544,-3.97,0.01,-0.83,0.56,1.5,-0.34
2022-02-09 19:13:20.4830,0.341,1.25,-0.6,-3.97,0.01,-0.83,0.66,1.33,-0.52
2022-02-09 19:13:20.4900,0.31,1.301,-0.599,-3.97,0.01,-0.83,0.7,1.11,-0.73
2022-02-09 19:13:20.5030,0.3,1.318,-0.535,-3.97,0.01,-0.83,0.62,0.85,-0.97
2022-02-09 19:13:20.5100,0.283,1.308,-0.403,-3.97,0.01,-0.83,0.41,0.7,-1.29
2022-02-09 19:13:20.5210,0.296,1.296,-0.287,-3.97,0.01,-0.83,0.16,0.73,-1.58
Time,0.41,1.231,-0.267,-3.97,0.01,-0.83,0.05,0.98,-1.71
2022-02-09 19:13:20.5400,0.514,1.115,-0.301,-3.97,0.01,-0.83,0.09,1.34,-1.7
2022-02-09 19:13:20.5500,0.57,1.023,-0.33,-3.97,0.01,-0.83,0.26,1.7,-1.64
2022-02-09 19:13:20.5610,0.583,0.982,-0.381,-3.97,0.01,-0.83,0.48,2.04,-1.6
2022-02-09 19:13:20.5700,0.538,0.947,-0.392,-3.97,0.01,-0.83,0.64,2.23,-1.6
2022-02-09 19:13:20.5820,0.483,0.872,-0.355,-3.97,0.01,-0.83,0.7,2.3,-1.62
2022-02-09 19:13:20.5900,0.416,0.784,-0.294,-3.97,0.01,-0.83,0.66,2.36,-1.65
2022-02-09 19:13:20.6020,0.366,0.705,-0.217,-3.97,0.01,-0.83,0.57,2.49,-1.72
2022-02-09 19:13:20.6110,0.323,0.657,-0.166,-3.97,0.01,-0.83,0.53,2.64,-1.78
Time,0.338,0.605,-0.155,-3.97,0.01,-0.83,0.6,2.82,-1.73
2022-02-09 19:13:20.6320,0.37,0.534,-0.149,-3.97,0.01,-0.83,0.73,2.76,-1.6
2022-02-09 19:13:20.6410,0.339,0.459,-0.213,-3.97,0.01,-0.83,0.85,2.49,-1.49
2022-02-09 19:13:20.6500,0.265,0.411,-0.214,-3.97,0.01,-0.83,0.88,2.39,-1.46
Time,0.207,0.386,-0.117,-3.97,0.01,-0.83,0.87,2.3,-1.45
2022-02-09 19:13:20.6740,0.176,0.368,-0.077,-3.97,0.01,-0.83,0.81,2.22,-1.45
Time,0.154,0.37,-0.051,-3.97,0.01,-0.83,0.72,2.04,-1.42
2022-02-09 19:13:20.6930,0.207,0.37,-0.116,-3.53,-0.92,-0.29,0.68,1.75,-1.28
Time,0.206,0.384,-0.113,-3.53,-0.92,-0.29,0.65,1.58,-1.19
2022-02-09 19:13:20.7130,0.145,0.42,-0.085,-3.53,-0.92,-0.29,0.7,1.47,-1.12
2022-02-09 19:13:20.7220,0.113,0.476,-0.129,-3.53,-0.92,-0.29,0.79,1.37,-1.11
2022-02-09 19:13:20.7310,0.083,0.538,-0.151,-3.53,-0.92,-0.29,0.87,1.22,-1.13
2022-02-09 19:13:20.7470,0.074,0.59,-0.182,-3.53,-0.92,-0.29,0.91,1.05,-1.15
2022-02-09 19:13:20.7520,0.086,0.662,-0.185,-3.53,-0.92,-0.29,0.84,0.94,-1.21
2022-02-09 19:13:20.7670,0.057,0.736,-0.096,-3.53,-0.92,-0.29,0.7,0.72,-1.28
2022-02-09 19:13:20.7720,0.144,0.757,-0.116,-3.53,-0.92,-0.29,0.55,0.36,-1.22
2022-02-09 19:13:20.7820,0.268,0.77,-0.074,-3.53,-0.92,-0.29,0.37,0.3,-1.12
2022-02-09 19:13:20.7930,0.365,0.788,0.021,-3.53,-0.92,-0.29,0.26,0.31,-0.93
Time,0.615,0.731,-0.049,-3.53,-0.92,-0.29,0.18,0.21,-0.67
2022-02-09 19:13:20.8120,0.75,0.685,-0.106,-3.53,-0.92,-0.29,0.09,0.1,-0.35
2022-02-09 19:13:20.8250,0.805,0.698,-0.1,-3.53,-0.92,-0.29,-0.06,0.07,-0.01
2022-02-09 19:13:20.8320,0.837,0.766,-0.024,-3.53,-0.92,-0.29,-0.18,0.14,0.3
2022-02-09 19:13:20.8440,0.835,0.808,0.03,-3.53,-0.92,-0.29,-0.34,0.2,0.56
2022-02-09 19:13:20.8520,0.821,0.86,0.056,-3.53,-0.92,-0.29,-0.51,0.19,0.75
2022-02-09 19:13:20.8630,0.909,0.918,0.02,-3.01,-2.25,0.31,-0.64,0.13,0.93
2022-02-09 19:13:20.8720,1.015,1.008,0.003,-3.01,-2.25,0.31,-0.8,0.06,1.15
2022-02-09 19:13:20.8850,1.055,1.085,0.009,-3.01,-2.25,0.31,-1.04,0.06,1.4
2022-02-09 19:13:20.8930,1.04,1.111,-0.029,-3.01,-2.25,0.31,-1.31,0.12,1.74
2022-02-09 19:13:20.9050,1.009,1.138,-0.079,-3.01,-2.25,0.31,-1.59,0.22,2.14
2022-02-09 19:13:20.9130,1.004,1.22,-0.023,-3.01,-2.25,0.31,-1.79,0.58,2.49
2022-02-09 19:13:20.9260,0.997,1.32,0.149,-3.01,-2.25,0.31,-1.95,1.18,2.73
2022-02-09 19:13:20.9330,0.938,1.397,0.235,-3.01,-2.25,0.31,-2.07,1.6,2.83
2022-02-09 19:13:20.9430,0.848,1.434,0.044,-3.01,-2.25,0.31,-1.98,1.78,2.74
2022-02-09 19:13:20.9550,0.777,1.372,-0.113,-3.01,-2.25,0.31,-1.69,2.04,2.59
2022-02-09 19:13:20.9630,0.83,1.242,-0.162,-3.01,-2.25,0.31,-1.34,2.15,2.49
2022-02-09 19:13:20.9760,0.922,1.177,-0.185,-3.01,-2.25,0.31,-1.12,1.91,2.52
2022-02-09 19:13:20.9840,0.975,1.175,-0.17,-3.01,-2.25,0.31,-1.15,1.39,2.63
2022-02-09 19:13:20.9970,0.893,1.236,-0.103,-2.96,-3.93,1.14,-1.38,0.93,2.73
2022-02-09 19:13:21.0040,0.775,1.281,-0.052,-2.96,-3.93,1.14,-1.62,0.65,2.85
2022-02-09 19:13:21.0160,0.689,1.309,-0.112,-2.96,-3.93,1.14,-1.65,0.49,2.94
2022-02-09 19:13:21.0240,0.559,1.415,-0.17,-2.96,-3.93,1.14,-1.54,0.33,2.83
Time,0.391,1.561,-0.119,-2.96,-3.93,1.14,-1.35,0.31,2.58
2022-02-09 19:13:21.0440,0.296,1.62,-0.042,-2.96,-3.93,1.14,-1.2,0.45,2.23
2022-02-09 19:13:21.0540,0.239,1.56,0.055,-2.96,-3.93,1.14,-1.07,0.53,1.86
2022-02-09 19:13:21.0670,0.283,1.389,0.056,-2.96,-3.93,1.14,-0.83,0.47,1.54
2022-02-09 19:13:21.0740,0.364,1.201,-0.044,-2.96,-3.93,1.14,-0.52,0.39,1.27
2022-02-09 19:13:21.0860,0.455,1.066,-0.106,-2.96,-3.93,1.14,-0.25,0.36,1.06
2022-02-09 19:13:21.0940,0.515,0.968,-0.152,-2.46,-5.72,1.61,-0.08,0.29,0.93
2022-02-09 19:13:21.1070,0.57,0.87,-0.161,-2.46,-5.72,1.61,0.02,0.15,0.86
2022-02-09 19:13:21.1140,0.578,0.779,-0.171,-2.46,-5.72,1.61,0.14,0.03,0.81
2022-02-09 19:13:21.1260,0.575,0.72,-0.19,-2.46,-5.72,1.61,0.31,-0.02,0.81
Time,0.559,0.691,-0.217,-2.46,-5.72,1.61,0.49,-0.09,0.82
Time,0.524,0.689,-0.214,-2.46,-5.72,1.61,0.69,-0.08,0.78
2022-02-09 19:13:21.1550,0.438,0.693,-0.217,-2.46,-5.72,1.61,1.0,0.25,0.65
2022-02-09 19:13:21.1650,0.401,0.673,-0.273,-2.46,-5.72,1.61,1.35,0.43,0.56
2022-02-09 19:13:21.1770,0.416,0.682,-0.23,-1.41,-6.54,1.59,1.58,0.56,0.47
2022-02-09 19:13:21.1850,0.4,0.637,-0.147,-1.41,-6.54,1.59,1.71,0.83,0.38
2022-02-09 19:13:21.1950,0.381,0.574,-0.083,-1.41,-6.54,1.59,1.81,1.14,0.3
2022-02-09 19:13:21.2070,0.362,0.536,-0.044,-1.41,-6.54,1.59,1.88,1.41,0.23
2022-02-09 19:13:21.2150,0.338,0.516,-0.038,-1.41,-6.54,1.59,1.97,1.65,0.12
2022-02-09 19:13:21.2270,0.306,0.522,-0.054,-0.91,-6.62,1.76,2.06,1.9,-0.04
2022-02-09 19:13:21.2330,0.306,0.515,-0.042,-0.91,-6.62,1.76,2.11,2.16,-0.18
Time,0.306,0.511,-0.013,-0.91,-6.62,1.76,2.17,2.69,-0.49
2022-02-09 19:14:32.5730,0.277,0.52,0.015,-0.91,-6.62,1.76,2.17,2.69,-0.49
2022-02-09 19:14:32.5760,0.248,0.516,0.037,-0.91,-6.62,1.76,2.21,2.96,-0.63
2022-02-09 19:14:32.5730,0.25,0.518,0.066,-0.78,-2.53,-0.43,2.22,3.24,-0.74
2022-02-09 19:14:32.5750,0.263,0.533,0.112,1.66,0.73,1.59,2.18,3.55,-0.85
Time,0.268,0.557,0.195,2.71,0.91,1.49,2.09,3.82,-0.97
2022-02-09 19:14:32.6070,0.299,0.556,0.245,6.3,1.23,0.2,1.97,3.94,-1.06
2022-02-09 19:14:32.6220,0.36,0.554,0.229,5.25,3.35,-0.79,1.85,3.94,-1.12
2022-02-09 19:13:21.2350,0.449,0.535,0.223,5.25,3.35,-0.79,1.68,3.88,-1.11
Time,0.552,0.471,0.25,4.49,2.11,-1.38,1.44,3.77,-0.95
2022-02-09 19:14:32.6130,0.628,0.39,0.225,3.69,0.96,-0.15,1.19,3.59,-0.66
2022-02-09 19:14:32.6150,0.649,0.313,0.073,-3.16,-0.63,7.82,1.02,3.27,-0.34
2022-02-09 19:14:32.6190,0.672,0.253,-0.127,-3.16,-0.63,7.82,0.98,2.83,0.07
2022-02-09 19:14:32.6230,0.644,0.218,-0.402,-3.21,-1.37,9.27,1.12,2.23,0.47
2022-02-09 19:14:32.6260,0.561,0.228,-0.63,-3.21,-1.37,9.27,1.44,1.69,0.74
2022-02-09 19:14:32.6280,0.467,0.298,-0.716,-3.21,-1.37,9.27,1.99,1.64,0.85
2022-02-09 19:14:32.6400,0.354,0.407,-0.613,-5.21,-5.37,-4.38,2.43,2.26,0.93
2022-02-09 19:14:32.6230,0.201,0.511,-0.144,-5.21,-5.37,-4.38,2.3,3.31,1.01
2022-02-09 19:14:32.6350,0.133,0.644,0.562,-5.21,-5.37,-4.38,1.88,3.9,0.82
2022-02-09 19:14:32.6340,0.189,0.931,0.15,-3.64,-5.06,-1.04,2.06,3.33,0.42
2022-02-09 19:14:32.6360,0.36,1.353,-0.768,-3.64,-5.06,-1.04,2.47,2.42,-0.06
2022-02-09 19:14:32.6360,0.406,1.85,-1.066,-1.23,-3.75,-0.95,2.36,1.41,-0.61
2022-02-09 19:14:32.6460,0.387,1.946,-0.913,-1.23,-3.75,-0.95,1.9,1.0,-0.97
2022-02-09 19:14:32.6410,0.379,1.706,-0.249,-1.23,-3.75,-0.95,1.44,1.14,-1.06
2022-02-09 19:14:32.6430,0.388,1.604,-0.171,-1.23,-3.75,-0.95,1.41,1.41,-0.97
2022-02-09 19:14:32.6500,0.477,1.678,-0.171,0.62,-3.27,0.59,1.28,1.7,-0.82
2022-02-09 19:14:32.6460,0.49,1.657,-0.014,2.15,-4.77,3.04,1.17,1.74,-0.75
2022-02-09 19:14:32.6470,0.559,1.579,-0.159,2.15,-4.77,3.04,1.18,1.54,-0.66
2022-02-09 19:14:32.6470,0.739,1.501,-0.478,2.26,-4.58,1.7,1.15,1.11,-0.51
2022-02-09 19:14:32.6460,0.841,1.392,-0.386,2.26,-4.58,1.7,0.9,0.85,-0.31
2022-02-09 19:14:32.6480,0.829,1.4,-0.19,1.77,-4.34,0.75,0.84,1.0,-0.23
2022-02-09 19:14:32.6540,0.662,1.558,-0.312,1.77,-4.34,0.75,1.05,1.49,-0.34
2022-02-09 19:14:32.6510,0.46,1.673,-0.394,1.77,-4.34,0.75,1.21,1.8,-0.61
2022-02-09 19:14:32.6570,0.384,1.745,-0.4,0.42,-3.43,0.84,1.19,1.9,-0.98
2022-02-09 19:14:32.6560,0.421,1.7,-0.37,0.42,-3.43,0.84,1.1,1.9,-1.29
2022-02-09 19:14:32.6550,0.505,1.572,-0.363,0.42,-3.43,0.84,1.05,1.95,-1.45
2022-02-09 19:14:32.6580,0.566,1.414,-0.268,-0.59,-2.22,1.2,1.02,2.12,-1.46
2022-02-09 19:14:32.6590,0.612,1.254,-0.169,-0.59,-2.22,1.2,1.04,2.33,-1.35
2022-02-09 19:14:32.6590,0.636,1.094,-0.123,-0.59,-2.22,1.2,1.06,2.52,-1.16
2022-02-09 19:14:32.6620,0.64,0.954,-0.091,-1.16,-1.37,1.6,1.07,2.66,-0.91
2022-02-09 19:14:32.6610,0.612,0.839,-0.077,-1.16,-1.37,1.6,1.05,2.72,-0.68
2022-02-09 19:14:32.6680,0.56,0.759,-0.079,-1.16,-1.37,1.6,1.0,2.7,-0.5
2022-02-09 19:14:32.6630,0.496,0.721,-0.044,-1.16,-1.37,1.6,0.91,2.62,-0.39
2022-02-09 19:14:32.6640,0.419,0.717,0.004,-1.23,-0.99,2.12,0.82,2.59,-0.35
2022-02-09 19:14:32.6640,0.347,0.725,0.007,-1.23,-0.99,2.12,0.79,2.62,-0.33
2022-02-09 19:14:32.6670,0.277,0.714,-0.038,-1.23,-0.99,2.12,0.8,2.61,-0.36
2022-02-09 19:14:32.6680,0.224,0.693,-0.036,-0.83,-0.48,2.13,0.78,2.54,-0.43
2022-02-09 19:14:32.6690,0.211,0.66,0.002,-0.83,-0.48,2.13,0.73,2.46,-0.47
2022-02-09 19:14:32.6700,0.238,0.612,-0.009,-0.37,0.36,1.72,0.71,2.37,-0.49
2022-02-09 19:14:32.6710,0.263,0.567,-0.017,-0.37,0.36,1.72,0.69,2.34,-0.47
Time,0.272,0.542,0.016,-0.37,0.36,1.72,0.68,2.41,-0.45
2022-02-09 19:14:32.6750,0.236,0.535,0.053,0.16,1.29,1.13,0.68,2.56,-0.45
Time,0.2,0.538,0.052,0.16,1.29,1.13,0.74,2.65,-0.5
2022-02-09 19:14:32.6740,0.185,0.541,0.033,0.16,1.29,1.13,0.83,2.68,-0.53
2022-02-09 19:14:32.6780,0.194,0.534,-0.0,0.16,1.29,1.13,0.9,2.62,-0.54
Time,0.205,0.533,-0.059,0.52,2.04,0.42,0.91,2.45,-0.55
2022-02-09 19:14:32.6800,0.224,0.553,-0.106,0.52,2.04,0.42,0.9,2.25,-0.53
Time,0.245,0.596,-0.162,0.52,2.04,0.42,0.92,2.13,-0.54
2022-02-09 19:14:32.6810,0.27,0.66,-0.178,0.52,2.04,0.42,0.9,2.06,-0.55
2022-02-09 19:14:32.6830,0.263,0.756,-0.135,0.52,2.04,0.42,0.85,2.01,-0.62
2022-02-09 19:14:32.6850,0.229,0.843,-0.125,0.73,2.56,0.12,0.8,1.99,-0.75
2022-02-09 19:14:32.6870,0.246,0.88,-0.176,0.73,2.56,0.12,0.79,1.94,-0.83
2022-02-09 19:14:32.6860,0.301,0.876,-0.255,0.73,2.56,0.12,0.81,1.91,-0.83
2022-02-09 19:14:32.6860,0.355,0.866,-0.294,0.73,2.56,0.12,0.84,1.97,-0.78
2022-02-09 19:14:32.6870,0.403,0.852,-0.272,0.73,2.56,0.12,0.81,2.07,-0.68
2022-02-09 19:14:32.6900,0.451,0.837,-0.225,0.32,3.17,0.07,0.72,2.16,-0.58
2022-02-09 19:14:32.6900,0.518,0.842,-0.182,0.32,3.17,0.07,0.58,2.25,-0.48
2022-02-09 19:14:32.6900,0.617,0.866,-0.106,0.32,3.17,0.07,0.43,2.3,-0.32
Time,0.717,0.915,-0.107,0.32,3.17,0.07,0.38,2.37,-0.13
2022-02-09 19:14:32.6950,0.769,0.969,-0.167,0.32,3.17,0.07,0.41,2.55,0.11
2022-02-09 19:14:32.6920,0.761,0.995,-0.193,0.32,3.17,0.07,0.43,2.83,0.38
2022-02-09 19:14:32.6940,0.716,1.027,-0.194,0.32,3.17,0.07,0.46,3.09,0.6
2022-02-09 19:14:32.6960,0.697,1.072,-0.206,0.04,3.95,0.16,0.52,3.27,0.81
Time,0.721,1.115,-0.233,0.04,3.95,0.16,0.55,3.27,0.99
2022-02-09 19:14:32.6960,0.759,1.188,-0.227,0.04,3.95,0.16,0.49,3.06,1.13
2022-02-09 19:14:32.6970,0.75,1.26,-0.156,0.04,3.95,0.16,0.32,2.76,1.25
2022-02-09 19:14:32.6990,0.727,1.306,-0.053,0.04,3.95,0.16,0.15,2.58,1.41
2022-02-09 19:14:32.7010,0.72,1.344,0.036,0.04,3.95,0.16,-0.02,2.44,1.62
2022-02-09 19:14:32.7010,0.678,1.364,0.181,0.04,3.95,0.16,-0.02,2.44,1.62
2022-02-09 19:14:32.7020,0.657,1.389,0.301,0.04,3.95,0.16,-0.45,2.1,2.1
2022-02-09 19:14:32.7020,0.69,1.436,0.264,0.04,3.95,0.16,-0.42,1.81,2.34
2022-02-09 19:14:32.7040,0.73,1.476,0.118,0.38,4.68,0.86,-0.14,1.54,2.59
2022-02-09 19:14:32.7060,0.759,1.471,0.017,0.38,4.68,0.86,0.2,1.51,2.83
2022-02-09 19:14:32.7060,0.765,1.445,0.018,0.38,4.68,0.86,0.46,1.64,3.06
2022-02-09 19:14:32.7070,0.744,1.426,0.032,0.38,4.68,0.86,0.68,1.72,3.26
2022-02-09 19:14:32.7070,0.707,1.394,-0.001,0.38,4.68,0.86,0.93,1.64,3.43
2022-02-09 19:14:32.7080,0.663,1.37,-0.052,0.38,4.68,0.86,1.12,1.41,3.53
Time,0.603,1.385,-0.04,0.38,4.68,0.86,1.19,1.2,3.53
2022-02-09 19:14:32.7110,0.533,1.381,-0.006,0.38,4.68,0.86,1.18,1.0,3.41
2022-02-09 19:14:32.7110,0.461,1.36,0.003,0.38,4.68,0.86,1.14,0.79,3.16
2022-02-09 19:14:32.7130,0.393,1.327,0.021,0.38,4.68,0.86,1.08,0.59,2.83
2022-02-09 19:14:32.7120,0.344,1.284,0.059,0.38,4.68,0.86,0.89,0.2,2.14
2022-02-09 19:14:32.7120,0.302,1.22,0.097,0.38,4.68,0.86,0.89,0.2,2.14
2022-02-09 19:14:32.7140,0.298,1.109,0.093,0.38,4.68,0.86,0.81,0.04,1.91
2022-02-09 19:14:32.7160,0.323,0.985,0.042,0.38,4.68,0.86,0.77,-0.09,1.78
2022-02-09 19:14:32.6780,0.346,0.907,-0.013,0.38,4.68,0.86,0.79,-0.17,1.7
2022-02-09 19:14:32.7180,0.356,0.85,-0.072,1.04,5.12,0.5,0.88,-0.16,1.68
2022-02-09 19:14:32.7170,0.381,0.788,-0.114,1.04,5.12,0.5,0.99,-0.09,1.68
2022-02-09 19:14:32.7180,0.396,0.759,-0.134,1.04,5.12,0.5,1.11,0.0,1.69
Time,0.407,0.743,-0.143,1.04,5.12,0.5,1.17,0.07,1.69
2022-02-09 19:14:32.7220,0.395,0.721,-0.119,1.04,5.12,0.5,1.17,0.07,1.69
2022-02-09 19:14:32.7240,0.359,0.684,-0.086,1.04,5.12,0.5,1.16,0.17,1.62
2022-02-09 19:14:32.7240,0.318,0.646,-0.065,1.04,5.12,0.5,1.12,0.19,1.56
2022-02-09 19:14:32.7240,0.288,0.623,-0.055,1.04,5.12,0.5,1.08,0.18,1.47
2022-02-09 19:14:32.7280,0.261,0.603,-0.049,1.04,5.12,0.5,1.05,0.15,1.36
2022-02-09 19:14:32.7310,0.243,0.577,-0.051,1.04,5.12,0.5,1.01,0.09,1.23
2022-02-09 19:14:32.7290,0.22,0.545,-0.041,1.04,5.12,0.5,0.99,0.04,1.11
2022-02-09 19:14:32.7300,0.192,0.512,-0.014,1.04,5.12,0.5,0.97,0.03,0.98
2022-02-09 19:14:32.7310,0.167,0.489,0.005,1.04,5.12,0.5,0.96,0.06,0.83
2022-02-09 19:14:32.7310,0.153,0.483,-0.013,1.04,5.12,0.5,0.96,0.06,0.83
2022-02-09 19:14:32.7340,0.135,0.496,-0.052,1.04,5.12,0.5,1.01,0.09,0.49
2022-02-09 19:14:32.7340,0.106,0.51,-0.097,1.04,5.12,0.5,1.09,0.14,0.29
2022-02-09 19:14:32.7340,0.097,0.52,-0.136,1.04,5.12,0.5,1.09,0.14,0.29
2022-02-09 19:14:32.7360,0.126,0.514,-0.147,1.04,5.12,0.5,1.33,0.36,-0.07
2022-02-09 19:14:32.7390,0.171,0.497,-0.12,1.04,5.12,0.5,1.42,0.5,-0.22
2022-02-09 19:14:32.7390,0.226,0.483,-0.072,1.04,5.12,0.5,1.43,0.63,-0.33
2022-02-09 19:14:32.7390,0.302,0.476,0.009,1.04,5.12,0.5,1.39,0.72,-0.42
2022-02-09 19:14:32.7410,0.38,0.467,0.076,1.04,5.12,0.5,1.29,0.7,-0.49
2022-02-09 19:14:32.7430,0.445,0.48,0.092,1.04,5.12,0.5,1.13,0.58,-0.58
2022-02-09 19:14:32.7420,0.508,0.516,0.144,1.04,5.12,0.5,0.93,0.45,-0.7
2022-02-09 19:14:32.7440,0.547,0.552,0.22,1.04,5.12,0.5,0.72,0.45,-0.86
2022-02-09 19:14:32.7440,0.586,0.589,0.298,1.04,5.12,0.5,0.5,0.55,-1.04
2022-02-09 19:14:32.7480,0.629,0.605,0.373,1.04,5.12,0.5,0.2,0.58,-1.16
2022-02-09 19:14:32.7470,0.738,0.604,0.45,1.04,5.12,0.5,-0.25,0.24,-1.15
2022-02-09 19:14:32.7490,0.943,0.6,0.383,1.04,5.12,0.5,-0.65,-0.44,-0.98
2022-02-09 19:14:32.7490,1.153,0.621,-0.031,1.04,5.12,0.5,-0.65,-0.44,-0.98
2022-02-09 19:14:32.7500,1.206,0.733,-0.486,1.04,5.12,0.5,-0.66,-1.95,-0.64
2022-02-09 19:14:32.7530,1.18,0.86,-0.797,1.04,5.12,0.5,-0.32,-2.44,-0.54
2022-02-09 19:14:32.7540,1.196,0.954,-0.96,1.04,5.12,0.5,0.15,-2.75,-0.38
2022-02-09 19:14:32.7590,1.297,1.084,-0.897,1.04,5.12,0.5,0.52,-3.03,-0.16
Time,1.385,1.24,-0.524,1.04,5.12,0.5,0.6,-2.51,0.03
2022-02-09 19:14:32.7610,1.212,1.215,0.295,1.04,5.12,0.5,0.5,-0.76,0.13
2022-02-09 19:14:32.7610,0.835,1.092,0.819,1.04,5.12,0.5,0.5,-0.76,0.13
2022-02-09 19:14:32.7440,0.744,1.187,0.176,1.04,5.12,0.5,0.08,-0.01,-0.16
2022-02-09 19:14:32.7600,0.793,1.225,-0.27,1.04,5.12,0.5,0.31,0.13,-0.41
2022-02-09 19:14:32.7610,0.68,1.153,-0.284,1.04,5.12,0.5,0.48,0.34,-0.66
2022-02-09 19:14:32.7630,0.596,1.113,-0.199,1.04,5.12,0.5,0.5,0.54,-0.86
2022-02-09 19:14:32.7630,0.592,1.066,-0.245,1.04,5.12,0.5,0.56,0.68,-0.94
2022-02-09 19:14:32.7630,0.531,1.016,-0.271,1.04,5.12,0.5,0.53,0.8,-0.96
2022-02-09 19:14:32.7660,0.451,1.033,-0.267,1.4,5.37,-0.35,0.51,0.92,-1.0
2022-02-09 19:14:32.7680,0.393,1.104,-0.33,1.4,5.37,-0.35,0.49,0.94,-1.13
2022-02-09 19:14:32.7690,0.37,1.179,-0.44,1.4,5.37,-0.35,0.42,0.73,-1.32
2022-02-09 19:14:32.7690,0.373,1.24,-0.497,1.4,5.37,-0.35,0.28,0.44,-1.53
2022-02-09 19:14:32.7690,0.406,1.241,-0.479,1.4,5.37,-0.35,0.16,0.26,-1.7
2022-02-09 19:14:32.7720,0.435,1.17,-0.384,1.4,5.37,-0.35,0.08,0.32,-1.81
2022-02-09 19:14:32.7750,0.449,1.08,-0.288,1.4,5.37,-0.35,0.12,0.6,-1.87
2022-02-09 19:14:32.7740,0.474,1.019,-0.236,1.4,5.37,-0.35,0.26,0.99,-1.88
2022-02-09 19:14:32.7750,0.477,0.989,-0.238,1.4,5.37,-0.35,0.46,1.36,-1.89
2022-02-09 19:14:32.7750,0.453,0.981,-0.235,1.4,5.37,-0.35,0.62,1.63,-1.9
2022-02-09 19:14:32.7800,0.41,0.959,-0.2,1.4,5.37,-0.35,0.72,1.79,-1.98
Time,0.375,0.933,-0.19,1.4,5.37,-0.35,0.79,1.82,-2.11
2022-02-09 19:14:32.7800,0.391,0.907,-0.198,1.4,5.37,-0.35,0.79,1.74,-2.23
2022-02-09 19:14:32.7800,0.402,0.873,-0.203,1.4,5.37,-0.35,0.76,1.61,-2.31
Time,0.432,0.809,-0.188,1.4,5.37,-0.35,0.7,1.43,-2.29
2022-02-09 19:14:32.7820,0.463,0.724,-0.147,1.4,5.37,-0.35,0.64,1.3,-2.22
2022-02-09 19:14:32.7870,0.468,0.661,-0.114,1.4,5.37,-0.35,0.59,1.23,-2.08
2022-02-09 19:14:32.7870,0.464,0.609,-0.091,1.4,5.37,-0.35,0.46,0.98,-1.76
2022-02-09 19:14:32.7870,0.442,0.575,-0.078,1.4,5.37,-0.35,0.46,0.98,-1.76
2022-02-09 19:14:32.7880,0.368,0.563,-0.033,1.4,5.37,-0.35,0.31,0.82,-1.66
2022-02-09 19:14:32.7890,0.303,0.57,-0.015,1.4,5.37,-0.35,0.18,0.73,-1.57
2022-02-09 19:14:32.7930,0.245,0.568,-0.016,1.4,5.37,-0.35,0.13,0.72,-1.48
2022-02-09 19:14:32.7930,0.213,0.56,-0.054,1.4,5.37,-0.35,0.19,0.73,-1.38
2022-02-09 19:14:32.7920,0.202,0.565,-0.113,1.4,5.37,-0.35,0.32,0.7,-1.27
2022-02-09 19:14:32.7950,0.189,0.579,-0.144,1.4,5.37,-0.35,0.42,0.61,-1.21
2022-02-09 19:14:32.7970,0.169,0.6,-0.152,1.4,5.37,-0.35,0.48,0.46,-1.17
2022-02-09 19:14:32.8010,0.153,0.602,-0.13,1.4,5.37,-0.35,0.47,0.32,-1.12
2022-02-09 19:14:32.7990,0.158,0.607,-0.134,1.4,5.37,-0.35,0.4,0.15,-1.12
2022-02-09 19:14:32.8020,0.155,0.628,-0.154,1.4,5.37,-0.35,0.34,-0.06,-1.16
2022-02-09 19:14:32.8020,0.184,0.649,-0.162,1.4,5.37,-0.35,0.29,-0.19,-1.18
2022-02-09 19:14:32.8010,0.214,0.644,-0.145,1.4,5.37,-0.35,0.25,-0.21,-1.14
2022-02-09 19:14:32.8020,0.253,0.634,-0.126,1.4,5.37,-0.35,0.23,-0.21,-1.06
2022-02-09 19:14:32.8020,0.314,0.641,-0.12,1.4,5.37,-0.35,0.23,-0.19,-0.95
2022-02-09 19:14:32.8060,0.385,0.655,-0.133,1.4,5.37,-0.35,0.21,-0.19,-0.81
2022-02-09 19:14:32.8050,0.456,0.665,-0.15,1.4,5.37,-0.35,0.15,-0.18,-0.63
Time,0.526,0.684,-0.142,1.4,5.37,-0.35,0.05,-0.19,-0.44
Time,0.601,0.724,-0.132,1.4,5.37,-0.35,-0.07,-0.24,-0.23
2022-02-09 19:14:32.8060,0.669,0.761,-0.099,1.4,5.37,-0.35,-0.21,-0.29,-0.01
2022-02-09 19:14:32.8090,0.717,0.796,-0.067,1.4,5.37,-0.35,-0.36,-0.32,0.24
2022-02-09 19:14:32.8120,0.708,0.814,-0.077,1.4,5.37,-0.35,-0.45,-0.28,0.46
2022-02-09 19:14:32.8120,0.62,0.826,-0.11,1.4,5.37,-0.35,-0.48,-0.24,0.64
2022-02-09 19:14:32.8140,0.655,0.866,-0.133,1.4,5.37,-0.35,-0.54,-0.2,0.84
2022-02-09 19:14:32.8140,0.704,0.939,-0.112,1.4,5.37,-0.35,-0.69,-0.21,1.05
2022-02-09 19:14:32.8150,0.726,1.019,-0.117,1.4,5.37,-0.35,-0.9,-0.48,1.27
2022-02-09 19:14:32.8170,0.767,1.111,-0.243,1.4,5.37,-0.35,-1.08,-0.85,1.51
2022-02-09 19:14:32.8190,0.79,1.213,-0.247,1.4,5.37,-0.35,-1.12,-0.91,1.77
2022-02-09 19:14:32.8190,0.784,1.293,-0.153,1.4,5.37,-0.35,-1.08,-0.75,1.98
2022-02-09 19:14:32.8220,0.737,1.367,-0.048,1.4,5.37,-0.35,-1.15,-0.5,2.13
2022-02-09 19:14:32.8210,0.623,1.442,0.058,1.4,5.37,-0.35,-1.3,-0.21,2.13
2022-02-09 19:14:32.8210,0.491,1.484,0.132,1.4,5.37,-0.35,-1.4,0.0,1.97
2022-02-09 19:14:32.8260,0.399,1.492,0.106,1.4,5.37,-0.35,-1.33,0.17,1.69
2022-02-09 19:14:32.8250,0.383,1.522,0.021,1.4,5.37,-0.35,-1.11,0.29,1.39
2022-02-09 19:14:32.8270,0.427,1.559,-0.081,1.4,5.37,-0.35,-0.85,0.33,1.21
Time,0.502,1.496,-0.078,1.4,5.37,-0.35,-0.83,0.09,1.21
2022-02-09 19:14:32.8280,0.586,1.418,-0.023,1.4,5.37,-0.35,-0.95,-0.42,1.3
Time,0.584,1.53,-0.094,1.4,5.37,-0.35,-1.01,-0.96,1.32
2022-02-09 19:14:32.8320,0.482,1.623,-0.143,1.4,5.37,-0.35,-1.05,-1.39,1.26
2022-02-09 19:14:32.8420,0.362,1.652,-0.096,1.4,5.37,-0.35,-1.11,-1.7,1.18
Time,0.269,1.646,-0.029,1.4,5.37,-0.35,-1.11,-1.94,1.13
2022-02-09 19:14:32.8350,0.19,1.576,0.053,1.4,5.37,-0.35,-1.02,-2.0,1.07
2022-02-09 19:14:32.8360,0.155,1.495,0.119,1.4,5.37,-0.35,-0.82,-1.91,1.0
2022-02-09 19:14:32.8390,0.156,1.39,0.157,1.4,5.37,-0.35,-0.6,-1.76,0.95
2022-02-09 19:14:32.8430,0.185,1.267,0.172,1.4,5.37,-0.35,-0.39,-1.58,0.93
2022-02-09 19:14:32.8440,0.198,1.138,0.164,1.4,5.37,-0.35,-0.24,-1.41,0.93
2022-02-09 19:14:32.8450,0.206,0.976,0.166,1.4,5.37,-0.35,-0.17,-1.27,0.95
2022-02-09 19:14:32.8450,0.224,0.875,0.148,1.4,5.37,-0.35,-0.15,-1.2,0.94
2022-02-09 19:14:32.8460,0.227,0.856,0.104,1.4,5.37,-0.35,-0.15,-1.19,0.84
2022-02-09 19:14:32.8480,0.218,0.832,0.06,1.4,5.37,-0.35,-0.17,-1.27,0.71
2022-02-09 19:14:32.8490,0.214,0.795,0.03,1.4,5.37,-0.35,-0.19,-1.32,0.59
2022-02-09 19:14:32.8510,0.227,0.754,0.042,1.4,5.37,-0.35,-0.22,-1.28,0.51
2022-02-09 19:14:32.8520,0.222,0.664,0.063,1.4,5.37,-0.35,-0.25,-1.22,0.51
2022-02-09 19:14:32.8520,0.221,0.542,0.036,1.4,5.37,-0.35,-0.22,-1.15,0.54
2022-02-09 19:14:32.8530,0.227,0.495,0.023,1.4,5.37,-0.35,-0.15,-1.06,0.57
2022-02-09 19:14:32.8560,0.202,0.491,0.018,1.4,5.37,-0.35,-0.12,-0.97,0.58
2022-02-09 19:14:32.8580,0.178,0.51,0.01,1.4,5.37,-0.35,-0.15,-0.94,0.53
2022-02-09 19:14:32.8570,0.146,0.562,0.019,1.4,5.37,-0.35,-0.2,-0.84,0.42
2022-02-09 19:14:32.8590,0.103,0.592,0.019,1.4,5.37,-0.35,-0.24,-0.73,0.29
2022-02-09 19:14:32.8590,0.093,0.576,0.004,1.4,5.37,-0.35,-0.26,-0.64,0.17
2022-02-09 19:14:32.8600,0.105,0.55,-0.007,1.4,5.37,-0.35,-0.25,-0.49,0.09
2022-02-09 19:14:32.8630,0.096,0.554,-0.034,1.4,5.37,-0.35,-0.24,-0.3,0.02
2022-02-09 19:14:32.8690,0.106,0.557,-0.052,1.4,5.37,-0.35,-0.29,-0.05,-0.06
2022-02-09 19:14:32.8630,0.135,0.562,-0.054,1.4,5.37,-0.35,-0.38,0.25,-0.14
2022-02-09 19:14:32.8660,0.143,0.588,-0.061,1.4,5.37,-0.35,-0.46,0.53,-0.29
2022-02-09 19:14:32.8660,0.128,0.676,-0.048,1.4,5.37,-0.35,-0.53,0.74,-0.53
2022-02-09 19:14:32.8670,0.125,0.767,-0.014,1.4,5.37,-0.35,-0.64,0.84,-0.8
Time,0.105,0.785,0.039,1.61,5.56,-0.7,-0.78,0.96,-1.1
2022-02-09 19:14:32.8710,0.092,0.761,0.111,1.61,5.56,-0.7,-1.41,1.27,-1.49
2022-02-09 19:14:32.8710,0.126,0.736,0.154,1.61,5.56,-0.7,-1.41,1.27,-1.49
2022-02-09 19:14:32.8740,0.205,0.758,0.132,1.61,5.56,-0.7,-1.44,0.93,-1.56
2022-02-09 19:14:32.8740,0.299,0.747,0.089,1.61,5.56,-0.7,-1.44,0.93,-1.56
2022-02-09 19:14:32.8740,0.367,0.757,0.054,1.61,5.56,-0.7,-1.29,0.49,-1.62
2022-02-09 19:14:32.8790,0.453,0.827,0.053,1.61,5.56,-0.7,-1.08,-0.07,-1.67
Time,0.535,0.894,-0.012,1.61,5.56,-0.7,-0.9,-0.72,-1.62
2022-02-09 19:14:32.8780,0.616,0.889,-0.076,1.61,5.56,-0.7,-0.81,-1.48,-1.35
2022-02-09 19:14:32.8820,0.769,0.901,-0.168,1.61,5.56,-0.7,-0.61,-2.25,-0.93
Time,0.888,0.915,-0.288,1.61,5.56,-0.7,-0.3,-2.93,-0.58
2022-02-09 19:14:32.8830,0.941,0.955,-0.358,1.61,5.56,-0.7,0.03,-3.61,-0.36
2022-02-09 19:14:32.8870,0.935,1.014,-0.358,1.61,5.56,-0.7,0.35,-4.19,-0.31
2022-02-09 19:14:32.8870,0.892,1.078,-0.303,1.61,5.56,-0.7,0.72,-4.51,-0.32
2022-02-09 19:14:32.8880,0.883,1.17,-0.136,1.61,5.56,-0.7,0.81,-4.53,-0.18
2022-02-09 19:14:32.8910,0.868,1.221,0.307,1.61,5.56,-0.7,0.47,-3.87,0.12
2022-02-09 19:14:32.9010,0.686,1.255,0.674,1.61,5.56,-0.7,0.12,-3.0,0.41
Time,0.472,1.29,0.413,1.61,5.56,-0.7,0.09,-2.28,0.66
2022-02-09 19:14:32.8980,0.279,1.282,0.155,1.61,5.56,-0.7,0.07,-1.76,0.73
2022-02-09 19:14:32.9000,0.125,1.261,0.083,1.61,5.56,-0.7,0.03,-1.33,0.47
2022-02-09 19:14:32.8990,0.096,1.188,0.01,1.61,5.56,-0.7,-0.12,-1.13,0.21
2022-02-09 19:14:32.9010,0.168,1.115,0.092,1.61,5.56,-0.7,-0.42,-1.19,0.08
Time,0.287,1.043,0.144,1.61,5.56,-0.7,-0.63,-1.08,0.13
2022-02-09 19:14:32.9040,0.356,1.081,-0.043,1.61,5.56,-0.7,-0.46,-0.78,0.31
2022-02-09 19:14:32.9040,0.35,1.206,-0.105,1.61,5.56,-0.7,-0.28,-0.4,0.56
2022-02-09 19:14:32.9060,0.31,1.319,0.005,1.61,5.56,-0.7,0.03,0.19,0.4
2022-02-09 19:14:32.9060,0.246,1.403,-0.112,1.61,5.56,-0.7,0.03,0.19,0.4
2022-02-09 19:14:32.9070,0.173,1.425,-0.293,1.61,5.56,-0.7,0.19,0.09,0.18
2022-02-09 19:14:32.9100,0.131,1.422,-0.36,1.61,5.56,-0.7,0.16,-0.25,-0.02
2022-02-09 19:14:32.9100,0.113,1.396,-0.357,1.61,5.56,-0.7,-0.05,-0.73,-0.2
2022-02-09 19:14:32.9100,0.107,1.333,-0.316,1.61,5.56,-0.7,-0.37,-1.24,-0.29
2022-02-09 19:14:32.9130,0.083,1.28,-0.239,1.61,5.56,-0.7,-0.68,-1.58,-0.35
2022-02-09 19:14:32.9130,0.054,1.238,-0.159,1.61,5.56,-0.7,-0.83,-1.62,-0.38
2022-02-09 19:14:32.9140,-0.006,1.207,-0.132,1.61,5.56,-0.7,-0.84,-1.42,-0.37
2022-02-09 19:14:32.9140,-0.047,1.193,-0.159,1.61,5.56,-0.7,-0.79,-1.23,-0.35
2022-02-09 19:14:32.9170,-0.042,1.156,-0.213,1.61,5.56,-0.7,-0.76,-1.18,-0.33
2022-02-09 19:14:32.9170,-0.004,1.1,-0.251,1.61,5.56,-0.7,-0.79,-1.35,-0.32
2022-02-09 19:14:32.9190,0.028,1.013,-0.234,1.61,5.56,-0.7,-0.87,-1.66,-0.34
2022-02-09 19:14:32.9190,0.073,0.949,-0.208,1.61,5.56,-0.7,-0.94,-1.98,-0.35
2022-02-09 19:14:32.9200,0.134,0.909,-0.214,1.61,5.56,-0.7,-0.96,-2.25,-0.32
2022-02-09 19:14:32.9200,0.199,0.864,-0.245,1.61,5.56,-0.7,-0.92,-2.53,-0.22
2022-02-09 19:14:32.9240,0.242,0.832,-0.27,1.61,5.56,-0.7,-0.86,-2.81,-0.12
2022-02-09 19:14:32.9230,0.24,0.821,-0.296,1.61,5.56,-0.7,-0.79,-3.04,-0.06
2022-02-09 19:14:32.9300,0.213,0.815,-0.311,1.61,5.56,-0.7,-0.75,-3.21,-0.02
2022-02-09 19:14:32.9300,0.195,0.786,-0.301,1.61,5.56,-0.7,-0.76,-3.41,-0.01
2022-02-09 19:14:32.9330,0.19,0.764,-0.291,1.61,5.56,-0.7,-0.81,-3.59,-0.01
2022-02-09 19:14:32.9260,0.173,0.713,-0.268,1.61,5.56,-0.7,-0.87,-3.69,0.0
2022-02-09 19:14:32.9270,0.152,0.666,-0.243,1.61,5.56,-0.7,-0.95,-3.69,0.03
2022-02-09 19:14:32.9330,0.122,0.659,-0.225,1.61,5.56,-0.7,-1.03,-3.65,0.05
2022-02-09 19:14:32.9340,0.098,0.644,-0.218,1.61,5.56,-0.7,-1.11,-3.58,0.06
2022-02-09 19:14:32.9310,0.089,0.635,-0.209,1.61,5.56,-0.7,-1.22,-3.51,0.05
2022-02-09 19:14:32.9360,0.101,0.641,-0.199,1.61,5.56,-0.7,-1.34,-3.51,0.04
2022-02-09 19:14:32.9340,0.149,0.648,-0.194,1.61,5.56,-0.7,-1.45,-3.54,0.06
2022-02-09 19:14:32.9380,0.204,0.674,-0.198,1.61,5.56,-0.7,-1.5,-3.57,0.09
2022-02-09 19:14:32.9350,0.245,0.718,-0.202,1.61,5.56,-0.7,-1.5,-3.58,0.13
2022-02-09 19:14:32.9340,0.273,0.732,-0.209,1.61,5.56,-0.7,-1.45,-3.58,0.17
2022-02-09 19:14:32.9410,0.295,0.711,-0.22,1.61,5.56,-0.7,-1.39,-3.58,0.22
2022-02-09 19:14:32.9430,0.312,0.697,-0.223,1.61,5.56,-0.7,-1.32,-3.54,0.28
2022-02-09 19:14:32.9430,0.311,0.691,-0.219,1.61,5.56,-0.7,-1.32,-3.54,0.28
2022-02-09 19:14:32.9420,0.29,0.678,-0.209,1.61,5.56,-0.7,-1.17,-3.24,0.44
2022-02-09 19:14:32.9440,0.271,0.654,-0.163,1.61,5.56,-0.7,-1.14,-3.04,0.51
2022-02-09 19:14:32.9450,0.252,0.629,-0.087,1.61,5.56,-0.7,-1.16,-2.8,0.58
2022-02-09 19:14:32.9460,0.232,0.61,-0.056,1.61,5.56,-0.7,-1.17,-2.56,0.64
2022-02-09 19:14:32.9460,0.21,0.611,-0.085,1.61,5.56,-0.7,-1.16,-2.37,0.69
2022-02-09 19:14:32.9460,0.198,0.625,-0.076,1.61,5.56,-0.7,-1.21,-2.24,0.75
2022-02-09 19:14:32.9500,0.211,0.627,-0.023,1.61,5.56,-0.7,-1.31,-2.16,0.81
2022-02-09 19:14:32.9510,0.237,0.672,-0.04,1.61,5.56,-0.7,-1.41,-2.17,0.86
2022-02-09 19:14:32.9500,0.226,0.797,-0.114,1.61,5.56,-0.7,-1.46,-2.22,0.87
2022-02-09 19:14:32.9500,0.194,0.937,-0.127,1.61,5.56,-0.7,-1.52,-2.28,0.83
2022-02-09 19:14:32.9500,0.18,1.054,-0.068,1.61,5.56,-0.7,-1.6,-2.27,0.78
2022-02-09 19:14:32.9540,0.192,1.176,-0.007,1.61,5.56,-0.7,-1.69,-2.26,0.68
2022-02-09 19:14:32.9550,0.223,1.334,0.005,1.61,5.56,-0.7,-1.75,-2.34,0.52
2022-02-09 19:14:32.9540,0.255,1.485,-0.007,1.61,5.56,-0.7,-1.8,-2.44,0.29
2022-02-09 19:14:32.9590,0.292,1.571,0.008,1.61,5.56,-0.7,-1.82,-2.56,0.08
2022-02-09 19:14:32.9580,0.341,1.628,0.034,1.61,5.56,-0.7,-1.78,-2.57,-0.06
2022-02-09 19:14:32.9570,0.396,1.691,0.043,1.61,5.56,-0.7,-1.66,-2.54,-0.2
2022-02-09 19:14:32.9600,0.405,1.749,0.005,1.61,5.56,-0.7,-1.51,-2.53,-0.39
2022-02-09 19:14:32.9570,0.441,1.729,-0.033,1.61,5.56,-0.7,-1.4,-2.57,-0.55
2022-02-09 19:14:32.9610,0.544,1.633,-0.051,1.61,5.56,-0.7,-1.32,-2.65,-0.62
2022-02-09 19:14:32.9630,0.628,1.503,-0.055,1.61,5.56,-0.7,-1.27,-2.72,-0.62
2022-02-09 19:14:32.9650,0.679,1.367,-0.03,1.61,5.56,-0.7,-1.24,-2.75,-0.58
2022-02-09 19:14:32.9650,0.713,1.248,-0.005,1.61,5.56,-0.7,-1.2,-2.76,-0.51
2022-02-09 19:14:32.9680,0.735,1.12,0.021,1.61,5.56,-0.7,-1.18,-2.78,-0.34
2022-02-09 19:14:32.9640,0.764,0.989,0.049,1.61,5.56,-0.7,-1.16,-2.77,-0.1
2022-02-09 19:14:32.9660,0.761,0.902,0.074,1.61,5.56,-0.7,-1.04,-2.47,0.25
2022-02-09 19:14:32.9660,0.688,0.852,0.073,1.61,5.56,-0.7,-1.04,-2.47,0.25
2022-02-09 19:14:32.9680,0.583,0.797,0.06,1.61,5.56,-0.7,-0.95,-2.29,0.3
2022-02-09 19:14:32.9720,0.512,0.747,0.07,1.61,5.56,-0.7,-0.94,-2.13,0.31
2022-02-09 19:14:32.9720,0.472,0.702,0.112,1.61,5.56,-0.7,-1.03,-2.07,0.26
2022-02-09 19:14:32.9740,0.435,0.659,0.129,1.61,5.56,-0.7,-1.16,-2.09,0.19
2022-02-09 19:14:32.9720,0.417,0.62,0.154,1.61,5.56,-0.7,-1.32,-2.09,0.12
2022-02-09 19:14:32.9770,0.429,0.611,0.17,1.61,5.56,-0.7,-1.45,-2.14,0.05
2022-02-09 19:14:32.9740,0.405,0.664,0.139,1.61,5.56,-0.7,-1.48,-2.17,-0.08
2022-02-09 19:14:32.9760,0.362,0.729,0.101,1.61,5.56,-0.7,-1.42,-2.17,-0.27
Time,0.356,0.768,0.074,1.61,5.56,-0.7,-1.33,-2.14,-0.45
2022-02-09 19:14:32.9820,0.353,0.773,0.047,1.61,5.56,-0.7,-1.22,-2.13,-0.64
2022-02-09 19:14:32.9840,0.339,0.752,0.003,1.61,5.56,-0.7,-1.12,-2.08,-0.79
2022-02-09 19:14:32.9840,0.389,0.74,-0.021,1.61,5.56,-0.7,-1.0,-1.98,-0.86
2022-02-09 19:14:32.9810,0.458,0.727,-0.033,1.61,5.56,-0.7,-0.87,-1.76,-0.85
2022-02-09 19:14:32.9830,0.501,0.681,-0.017,1.61,5.56,-0.7,-0.74,-1.55,-0.79
2022-02-09 19:14:32.9820,0.52,0.595,0.046,1.61,5.56,-0.7,-0.64,-1.38,-0.66
2022-02-09 19:14:32.9870,0.534,0.499,0.116,1.61,5.56,-0.7,-0.63,-1.31,-0.5
2022-02-09 19:14:32.9880,0.523,0.448,0.172,1.61,5.56,-0.7,-0.66,-1.3,-0.35
2022-02-09 19:14:32.9880,0.499,0.444,0.2,1.61,5.56,-0.7,-0.68,-1.32,-0.24
Time,0.477,0.459,0.214,1.61,5.56,-0.7,-0.68,-1.34,-0.14
2022-02-09 19:14:32.9900,0.459,0.495,0.223,1.61,5.56,-0.7,-0.67,-1.36,-0.08
2022-02-09 19:14:32.9900,0.437,0.53,0.246,1.61,5.56,-0.7,-0.65,-1.33,-0.04
2022-02-09 19:14:32.9900,0.413,0.562,0.297,1.61,5.56,-0.7,-0.63,-1.24,-0.02
2022-02-09 19:14:32.9900,0.374,0.596,0.366,1.61,5.56,-0.7,-0.63,-1.07,-0.03
2022-02-09 19:14:32.9970,0.328,0.632,0.428,1.61,5.56,-0.7,-0.65,-0.84,-0.05
2022-02-09 19:14:32.9970,0.293,0.663,0.477,1.61,5.56,-0.7,-0.65,-0.84,-0.05
2022-02-09 19:14:32.9950,0.289,0.682,0.473,1.61,5.56,-0.7,-0.73,-0.5,-0.13
2022-02-09 19:14:32.9960,0.314,0.714,0.425,1.61,5.56,-0.7,-0.7,-0.42,-0.17
2022-02-09 19:14:32.9970,0.358,0.759,0.369,1.61,5.56,-0.7,-0.64,-0.39,-0.17
2022-02-09 19:14:33.0020,0.401,0.813,0.34,1.61,5.56,-0.7,-0.6,-0.45,-0.17
2022-02-09 19:14:33.0010,0.434,0.876,0.329,1.61,5.56,-0.7,-0.54,-0.63,-0.2
2022-02-09 19:14:32.9990,0.465,0.928,0.275,1.61,5.56,-0.7,-0.45,-0.93,-0.24
2022-02-09 19:14:33.0030,0.514,0.983,0.272,1.61,5.56,-0.7,-0.35,-1.22,-0.26
2022-02-09 19:14:33.0030,0.565,1.054,0.279,1.61,5.56,-0.7,-0.3,-1.53,-0.27
2022-02-09 19:14:33.0060,0.591,1.122,0.375,1.61,5.56,-0.7,-0.36,-1.75,-0.31
2022-02-09 19:14:33.0060,0.581,1.174,0.531,1.61,5.56,-0.7,-0.51,-1.71,-0.38
2022-02-09 19:14:33.0030,0.54,1.208,0.648,1.61,5.56,-0.7,-0.55,-1.47,-0.37
2022-02-09 19:14:33.0110,0.492,1.191,0.405,1.61,5.56,-0.7,-0.31,-1.39,-0.24
2022-02-09 19:14:33.0110,0.488,1.196,0.037,1.61,5.56,-0.7,-0.07,-1.32,-0.08
2022-02-09 19:14:33.0070,0.449,1.29,-0.039,1.61,5.56,-0.7,-0.08,-1.17,-0.06
2022-02-09 19:14:33.0100,0.358,1.317,0.027,1.61,5.56,-0.7,-0.12,-0.82,-0.09
2022-02-09 19:14:33.0100,0.299,1.248,-0.054,1.61,5.56,-0.7,-0.03,-0.44,-0.06
2022-02-09 19:14:33.0150,0.262,1.192,-0.177,1.61,5.56,-0.7,0.11,-0.16,-0.0
2022-02-09 19:14:33.0120,0.263,1.15,-0.277,1.61,5.56,-0.7,0.25,-0.01,0.04
2022-02-09 19:14:33.0150,0.276,1.134,-0.337,1.61,5.56,-0.7,0.37,0.04,0.06
2022-02-09 19:14:33.0160,0.292,1.127,-0.379,1.61,5.56,-0.7,0.45,-0.03,0.03
2022-02-09 19:14:33.0200,0.28,1.132,-0.378,1.61,5.56,-0.7,0.49,-0.23,-0.07
2022-02-09 19:14:33.0210,0.262,1.139,-0.328,1.61,5.56,-0.7,0.48,-0.45,-0.18
2022-02-09 19:14:33.0170,0.286,1.137,-0.255,1.61,5.56,-0.7,0.45,-0.63,-0.3
2022-02-09 19:14:33.0170,0.318,1.154,-0.202,1.61,5.56,-0.7,0.45,-0.63,-0.3
2022-02-09 19:14:33.0240,0.351,1.161,-0.168,1.61,5.56,-0.7,0.46,-0.84,-0.5
2022-02-09 19:14:33.0240,0.382,1.136,-0.133,1.61,5.56,-0.7,0.47,-0.88,-0.57
2022-02-09 19:14:33.0250,0.418,1.084,-0.1,1.61,5.56,-0.7,0.45,-0.88,-0.6
2022-02-09 19:14:33.0230,0.457,1.032,-0.066,1.61,5.56,-0.7,0.4,-0.84,-0.6
2022-02-09 19:14:33.0260,0.478,0.975,-0.034,1.61,5.56,-0.7,0.33,-0.74,-0.55
2022-02-09 19:14:33.0270,0.479,0.917,-0.012,1.61,5.56,-0.7,0.29,-0.6,-0.48
2022-02-09 19:14:33.0280,0.452,0.86,-0.016,1.61,5.56,-0.7,0.28,-0.46,-0.42
2022-02-09 19:14:33.0280,0.39,0.82,-0.012,1.61,5.56,-0.7,0.28,-0.31,-0.39
2022-02-09 19:14:33.0300,0.32,0.819,0.001,1.61,5.56,-0.7,0.33,-0.17,-0.41
2022-02-09 19:14:33.0340,0.271,0.832,-0.016,1.61,5.56,-0.7,0.4,-0.05,-0.45
2022-02-09 19:14:33.0310,0.257,0.829,-0.03,1.61,5.56,-0.7,0.46,0.01,-0.49
2022-02-09 19:14:33.0360,0.25,0.805,-0.01,1.61,5.56,-0.7,0.5,0.04,-0.54
2022-02-09 19:14:33.0330,0.274,0.783,0.007,1.61,5.56,-0.7,0.51,-0.02,-0.61
2022-02-09 19:14:33.0380,0.285,0.754,0.041,1.61,5.56,-0.7,0.48,-0.1,-0.64
2022-02-09 19:14:33.0410,0.302,0.736,0.085,1.61,5.56,-0.7,0.43,-0.17,-0.63
2022-02-09 19:14:33.0330,0.342,0.72,0.097,1.61,5.56,-0.7,0.4,-0.2,-0.6
2022-02-09 19:14:33.0420,0.384,0.691,0.054,1.61,5.56,-0.7,0.36,-0.17,-0.65
2022-02-09 19:14:33.0430,0.413,0.695,0.027,1.61,5.56,-0.7,0.33,-0.3,-0.62
2022-02-09 19:14:33.0440,0.451,0.698,0.003,1.61,5.56,-0.7,0.31,-0.4,-0.47
2022-02-09 19:14:33.0440,0.447,0.682,-0.016,1.61,5.56,-0.7,0.36,-0.4,-0.29
2022-02-09 19:14:33.0440,0.381,0.701,-0.03,1.61,5.56,-0.7,0.42,-0.28,-0.24
2022-02-09 19:14:33.0400,0.302,0.747,0.014,1.61,5.56,-0.7,0.42,-0.27,-0.19
2022-02-09 19:14:33.0470,0.315,0.749,0.01,1.61,5.56,-0.7,0.39,-0.24,-0.14
2022-02-09 19:14:33.0480,0.258,0.754,0.042,1.61,5.56,-0.7,0.35,-0.16,-0.12
2022-02-09 19:14:33.0430,0.231,0.772,0.076,1.61,5.56,-0.7,0.34,-0.06,-0.11
2022-02-09 19:14:33.0410,0.223,0.779,0.079,1.61,5.56,-0.7,0.31,-0.03,-0.07
2022-02-09 19:14:33.0500,0.234,0.788,0.083,1.61,5.56,-0.7,0.22,-0.1,-0.08
2022-02-09 19:14:33.0520,0.25,0.834,0.092,1.61,5.56,-0.7,0.11,-0.24,-0.14
2022-02-09 19:14:33.0470,0.299,0.894,0.101,1.61,5.56,-0.7,-0.01,-0.42,-0.21
2022-02-09 19:14:33.0530,0.354,0.921,0.124,1.61,5.56,-0.7,-0.09,-0.59,-0.25
2022-02-09 19:14:33.0500,0.412,0.912,0.172,1.61,5.56,-0.7,-0.18,-0.71,-0.26
2022-02-09 19:14:33.0550,0.458,0.903,0.226,1.61,5.56,-0.7,-0.29,-0.8,-0.25
2022-02-09 19:14:33.0570,0.49,0.872,0.231,1.61,5.56,-0.7,-0.43,-0.92,-0.19
2022-02-09 19:14:33.0530,0.53,0.858,0.184,1.61,5.56,-0.7,-0.57,-1.06,-0.08
2022-02-09 19:14:33.0560,0.561,0.872,0.138,1.61,5.56,-0.7,-0.67,-1.13,0.08
2022-02-09 19:14:33.0590,0.57,0.909,0.098,1.61,5.56,-0.7,-0.72,-1.1,0.25
2022-02-09 19:14:33.0610,0.56,0.952,0.066,1.61,5.56,-0.7,-0.75,-1.0,0.45
2022-02-09 19:14:33.0590,0.551,0.988,0.031,1.61,5.56,-0.7,-0.78,-0.81,0.63
2022-02-09 19:14:33.0600,0.521,1.03,-0.069,1.61,5.56,-0.7,-0.84,-0.57,0.81
2022-02-09 19:14:33.0620,0.493,1.109,-0.217,1.61,5.56,-0.7,-0.83,-0.35,0.98
2022-02-09 19:14:33.0640,0.48,1.2,-0.241,1.61,5.56,-0.7,-0.75,-0.19,1.19
2022-02-09 19:14:33.0650,0.462,1.252,-0.16,1.61,5.56,-0.7,-0.77,0.09,1.4
2022-02-09 19:14:33.0640,0.399,1.277,-0.041,1.61,5.56,-0.7,-0.89,0.55,1.52
2022-02-09 19:14:33.0650,0.345,1.301,0.072,1.61,5.56,-0.7,-1.0,1.02,1.54
2022-02-09 19:14:33.0680,0.32,1.338,0.091,1.61,5.56,-0.7,-1.09,1.4,1.43
2022-02-09 19:14:33.0680,0.323,1.332,0.081,1.61,5.56,-0.7,-1.09,1.61,1.34
2022-02-09 19:14:33.0710,0.391,1.264,0.094,1.61,5.56,-0.7,-1.05,1.53,1.39
2022-02-09 19:14:33.0700,0.492,1.179,0.14,1.61,5.56,-0.7,-1.07,1.31,1.55
2022-02-09 19:14:33.0720,0.549,1.139,0.198,1.61,5.56,-0.7,-1.06,1.01,1.76
Time,0.549,1.148,0.215,1.61,5.56,-0.7,-1.01,0.73,1.93
2022-02-09 19:14:33.0730,0.512,1.206,0.225,1.61,5.56,-0.7,-0.99,0.47,2.0
2022-02-09 19:14:33.0730,0.45,1.29,0.209,1.61,5.56,-0.7,-1.0,0.15,1.98
Time,0.411,1.35,0.162,1.61,5.56,-0.7,-1.01,-0.24,1.89
2022-02-09 19:14:33.0760,0.381,1.381,0.092,1.61,5.56,-0.7,-0.98,-0.61,1.71
2022-02-09 19:14:33.0770,0.286,1.428,0.084,1.61,5.56,-0.7,-0.95,-0.87,1.47
2022-02-09 19:14:33.0780,0.197,1.431,0.155,1.61,5.56,-0.7,-0.94,-0.99,1.22
2022-02-09 19:14:33.0770,0.179,1.342,0.246,1.61,5.56,-0.7,-0.94,-0.96,0.98
Time,0.209,1.193,0.262,1.61,5.56,-0.7,-0.92,-0.86,0.8
2022-02-09 19:14:33.0800,0.285,1.049,0.239,1.61,5.56,-0.7,-0.87,-0.73,0.71
2022-02-09 19:14:33.0800,0.389,0.924,0.2,1.61,5.56,-0.7,-0.78,-0.6,0.7
2022-02-09 19:14:33.0820,0.487,0.836,0.164,1.61,5.56,-0.7,-0.69,-0.44,0.81
2022-02-09 19:14:33.0800,0.564,0.762,0.149,1.61,5.56,-0.7,-0.58,-0.23,0.93
2022-02-09 19:14:33.0840,0.574,0.733,0.121,1.61,5.56,-0.7,-0.45,-0.03,0.98
2022-02-09 19:14:33.0850,0.574,0.736,0.075,1.59,5.52,-0.81,-0.31,0.13,1.01
2022-02-09 19:14:33.0850,0.549,0.724,0.044,1.59,5.52,-0.81,-0.19,0.22,0.99
Time,0.511,0.693,0.023,1.59,5.52,-0.81,-0.08,0.23,0.94
2022-02-09 19:14:33.0880,0.467,0.65,0.021,1.59,5.52,-0.81,0.01,0.19,0.85
2022-02-09 19:14:33.0900,0.413,0.613,0.036,1.59,5.52,-0.81,0.09,0.17,0.75
2022-02-09 19:14:33.0910,0.367,0.562,0.058,1.59,5.52,-0.81,0.17,0.18,0.66
2022-02-09 19:14:33.0890,0.327,0.508,0.081,1.59,5.52,-0.81,0.26,0.23,0.6
2022-02-09 19:14:33.0780,0.295,0.471,0.093,1.59,5.52,-0.81,0.35,0.31,0.54
2022-02-09 19:14:33.0930,0.272,0.455,0.093,1.59,5.52,-0.81,0.44,0.42,0.48
2022-02-09 19:14:33.0940,0.247,0.454,0.084,1.59,5.52,-0.81,0.52,0.52,0.41
2022-02-09 19:14:33.0940,0.23,0.464,0.064,1.59,5.52,-0.81,0.61,0.61,0.31
2022-02-09 19:14:33.0940,0.209,0.482,0.059,1.59,5.52,-0.81,0.69,0.7,0.19
2022-02-09 19:14:33.0940,0.184,0.494,0.074,1.59,5.52,-0.81,0.76,0.75,0.05
2022-02-09 19:14:33.0970,0.18,0.513,0.076,1.59,5.52,-0.81,0.81,0.76,-0.11
2022-02-09 19:14:33.0980,0.179,0.544,0.099,1.59,5.52,-0.81,0.82,0.73,-0.3
2022-02-09 19:14:33.0980,0.191,0.564,0.134,1.59,5.52,-0.81,0.76,0.65,-0.49
2022-02-09 19:14:33.0980,0.226,0.564,0.174,1.59,5.52,-0.81,0.7,0.54,-0.65
2022-02-09 19:14:33.1010,0.25,0.555,0.212,1.59,5.52,-0.81,0.64,0.41,-0.75
2022-02-09 19:14:33.0940,0.281,0.557,0.246,1.59,5.52,-0.81,0.55,0.31,-0.8
2022-02-09 19:14:33.1020,0.312,0.574,0.317,1.59,5.52,-0.81,0.4,0.26,-0.82
2022-02-09 19:14:33.1030,0.35,0.591,0.404,1.59,5.52,-0.81,0.16,0.23,-0.83
2022-02-09 19:14:33.1030,0.396,0.633,0.431,1.59,5.52,-0.81,-0.08,0.21,-0.83
2022-02-09 19:14:33.1060,0.46,0.685,0.396,1.59,5.52,-0.81,-0.26,0.14,-0.8
2022-02-09 19:14:33.0980,0.566,0.739,0.424,1.59,5.52,-0.81,-0.53,-0.02,-0.64
2022-02-09 19:14:33.1070,0.783,0.804,0.51,1.59,5.52,-0.81,-0.78,-0.31,-0.31
2022-02-09 19:14:33.1060,0.969,0.869,0.356,1.59,5.52,-0.81,-0.72,-0.45,-0.06
Time,1.007,0.867,0.104,1.59,5.52,-0.81,-0.4,-0.68,0.07
2022-02-09 19:14:33.1100,1.031,0.875,-0.03,1.59,5.52,-0.81,-0.14,-1.17,0.16
2022-02-09 19:14:33.1110,1.065,0.919,0.046,1.59,5.52,-0.81,-0.18,-1.7,0.2
2022-02-09 19:14:33.1110,1.083,1.035,0.175,1.59,5.52,-0.81,-0.29,-2.03,0.21
2022-02-09 19:14:33.1120,1.042,1.145,0.167,1.59,5.52,-0.81,-0.05,-2.14,0.25
2022-02-09 19:14:33.1140,0.908,1.236,0.123,1.59,5.52,-0.81,0.58,-1.88,0.33
2022-02-09 19:14:33.1150,0.673,1.308,-0.118,1.59,5.52,-0.81,1.27,-0.99,0.47
2022-02-09 19:14:33.1150,0.498,1.508,0.132,1.59,5.52,-0.81,1.09,0.06,0.57
2022-02-09 19:14:33.1170,0.257,1.544,0.611,1.59,5.52,-0.81,0.44,0.42,0.38
2022-02-09 19:14:33.1180,0.218,1.21,0.485,1.59,5.52,-0.81,-0.29,0.5,-0.03
2022-02-09 19:14:33.1190,0.273,1.079,0.468,1.59,5.52,-0.81,-0.67,0.5,-0.39
2022-02-09 19:14:33.1180,0.3,1.042,0.254,1.59,5.52,-0.81,-0.38,0.82,-0.5
2022-02-09 19:14:33.1220,0.406,0.944,-0.153,1.59,5.52,-0.81,0.22,1.15,-0.38
2022-02-09 19:14:33.1230,0.471,0.924,-0.231,1.59,5.52,-0.81,0.57,1.26,-0.18
2022-02-09 19:14:33.1230,0.474,0.929,-0.273,1.59,5.52,-0.81,0.78,1.26,-0.04
2022-02-09 19:14:33.1220,0.472,0.948,-0.349,1.59,5.52,-0.81,0.88,0.98,-0.04
2022-02-09 19:14:33.1060,0.401,1.013,-0.263,1.59,5.52,-0.81,0.82,0.57,-0.16
2022-02-09 19:14:33.1100,0.328,1.054,-0.098,1.59,5.52,-0.81,0.75,0.36,-0.33
2022-02-09 19:14:33.1270,0.281,1.074,-0.002,1.59,5.52,-0.81,0.69,0.39,-0.47
2022-02-09 19:14:33.1270,0.248,1.118,0.088,1.59,5.52,-0.81,0.64,0.47,-0.54
2022-02-09 19:14:33.1260,0.277,1.165,0.063,1.59,5.52,-0.81,0.74,0.57,-0.52
2022-02-09 19:14:33.1260,0.35,1.176,-0.036,1.59,5.52,-0.81,0.86,0.67,-0.49
2022-02-09 19:14:33.1300,0.442,1.15,-0.062,1.59,5.52,-0.81,0.9,0.68,-0.42
2022-02-09 19:14:33.1310,0.551,1.092,-0.051,1.59,5.52,-0.81,0.88,0.67,-0.34
2022-02-09 19:14:33.1310,0.578,1.03,0.004,1.59,5.52,-0.81,0.86,0.64,-0.23
2022-02-09 19:14:33.1300,0.135,-0.44,-0.862,1.59,5.52,-0.81,-0.59,-0.25,0.03
2022-02-09 19:14:33.1340,0.128,-0.435,-0.919,1.59,5.52,-0.81,-0.48,-0.25,0.06
2022-02-09 19:14:33.1350,0.152,-0.513,-0.926,1.59,5.52,-0.81,-0.34,-0.11,0.2
2022-02-09 19:14:33.1350,0.162,-0.503,-0.872,1.59,5.52,-0.81,-0.3,0.07,0.27
2022-02-09 19:14:33.1350,0.134,-0.448,-0.858,1.59,5.52,-0.81,-0.29,0.14,0.25
2022-02-09 19:14:33.1380,0.115,-0.44,-0.892,1.59,5.52,-0.81,-0.29,0.09,0.21
2022-02-09 19:14:33.1290,0.124,-0.455,-0.902,1.59,5.52,-0.81,-0.31,0.04,0.19
2022-02-09 19:14:33.1390,0.132,-0.467,-0.906,1.59,5.52,-0.81,-0.32,-0.03,0.18
2022-02-09 19:14:33.1400,0.135,-0.455,-0.918,1.59,5.52,-0.81,-0.33,-0.08,0.18
2022-02-09 19:14:33.1400,0.137,-0.444,-0.925,1.59,5.52,-0.81,-0.33,-0.11,0.18
2022-02-09 19:14:33.1400,0.134,-0.45,-0.935,1.59,5.52,-0.81,-0.33,-0.11,0.18
2022-02-09 19:14:33.1440,0.129,-0.447,-0.941,1.59,5.52,-0.81,-0.3,-0.16,0.23
2022-02-09 19:14:33.1440,0.11,-0.434,-0.94,1.59,5.52,-0.81,-0.28,-0.14,0.23
2022-02-09 19:14:33.1440,0.097,-0.428,-0.946,1.59,5.52,-0.81,-0.24,-0.11,0.24
2022-02-09 19:14:33.1280,0.088,-0.429,-0.955,1.59,5.52,-0.81,-0.18,-0.08,0.25
2022-02-09 19:14:33.1460,0.075,-0.421,-0.955,1.59,5.52,-0.81,-0.14,-0.06,0.25
2022-02-09 19:14:33.1470,0.067,-0.409,-0.947,1.59,5.52,-0.81,-0.12,-0.05,0.22
2022-02-09 19:14:33.1480,0.058,-0.408,-0.949,1.59,5.52,-0.81,-0.08,-0.07,0.21
2022-02-09 19:14:33.1480,0.064,-0.421,-0.944,1.59,5.52,-0.81,-0.06,-0.07,0.21
Time,0.068,-0.426,-0.921,1.59,5.52,-0.81,-0.05,-0.03,0.22
2022-02-09 19:14:33.1500,0.056,-0.422,-0.902,1.59,5.52,-0.81,-0.05,-0.02,0.23
2022-02-09 19:14:33.1520,0.045,-0.42,-0.898,1.59,5.52,-0.81,-0.06,-0.0,0.22
2022-02-09 19:14:33.1530,0.039,-0.415,-0.896,1.59,5.52,-0.81,-0.09,-0.01,0.2
2022-02-09 19:14:33.1540,0.035,-0.409,-0.899,1.59,5.52,-0.81,-0.12,-0.03,0.18
2022-02-09 19:14:33.1540,0.039,-0.404,-0.903,1.59,5.52,-0.81,-0.13,-0.04,0.17
2022-02-09 19:14:33.1570,0.048,-0.401,-0.911,1.59,5.52,-0.81,-0.12,-0.05,0.16
2022-02-09 19:14:33.1570,0.05,-0.404,-0.921,1.59,5.52,-0.81,-0.12,-0.07,0.16
2022-02-09 19:14:33.1590,0.044,-0.401,-0.918,1.59,5.52,-0.81,-0.13,-0.09,0.14
2022-02-09 19:14:33.1580,0.048,-0.394,-0.919,1.59,5.52,-0.81,-0.13,-0.07,0.13
2022-02-09 19:14:33.1610,0.048,-0.401,-0.927,1.59,5.52,-0.81,-0.09,-0.03,0.14
2022-02-09 19:14:33.1420,0.041,-0.401,-0.931,1.59,5.52,-0.81,-0.05,0.02,0.14
2022-02-09 19:14:33.1620,0.036,-0.386,-0.92,1.59,5.52,-0.81,-0.03,0.09,0.13
2022-02-09 19:14:33.1620,0.039,-0.382,-0.918,1.59,5.52,-0.81,-0.02,0.1,0.11
Time,0.049,-0.385,-0.924,1.59,5.52,-0.81,-0.04,0.06,0.1
2022-02-09 19:14:33.1620,0.059,-0.391,-0.923,1.59,5.52,-0.81,-0.07,-0.0,0.1
2022-02-09 19:14:33.1640,0.064,-0.4,-0.912,1.59,5.52,-0.81,-0.1,-0.04,0.09
2022-02-09 19:14:33.1660,0.063,-0.399,-0.91,1.59,5.52,-0.81,-0.13,-0.08,0.08
2022-02-09 19:14:33.1660,0.065,-0.394,-0.916,1.59,5.52,-0.81,-0.14,-0.11,0.09
2022-02-09 19:14:33.1670,0.065,-0.394,-0.921,1.59,5.52,-0.81,-0.13,-0.12,0.09
2022-02-09 19:14:33.1680,0.064,-0.39,-0.928,1.59,5.52,-0.81,-0.13,-0.12,0.11
2022-02-09 19:14:33.1690,0.063,-0.384,-0.926,1.59,5.52,-0.81,-0.1,-0.1,0.12
2022-02-09 19:14:33.1700,0.066,-0.385,-0.931,1.59,5.52,-0.81,-0.07,-0.08,0.15
2022-02-09 19:14:33.1700,0.07,-0.388,-0.938,1.59,5.52,-0.81,-0.04,-0.04,0.18
2022-02-09 19:14:33.1710,0.064,-0.384,-0.941,1.59,5.52,-0.81,0.02,0.01,0.2
2022-02-09 19:14:33.1750,0.055,-0.39,-0.948,1.59,5.52,-0.81,0.08,0.06,0.21
2022-02-09 19:14:33.1730,0.043,-0.392,-0.945,1.59,5.52,-0.81,0.1,0.07,0.2
2022-02-09 19:14:33.1740,0.028,-0.388,-0.939,1.59,5.52,-0.81,0.08,0.06,0.13
2022-02-09 19:14:33.1740,0.016,-0.384,-0.922,1.59,5.52,-0.81,0.08,0.06,0.13
2022-02-09 19:14:33.1760,0.011,-0.383,-0.914,1.59,5.52,-0.81,0.08,0.06,0.1
2022-02-09 19:14:33.1770,0.017,-0.387,-0.91,1.59,5.52,-0.81,0.09,0.07,0.06
2022-02-09 19:14:33.1780,0.025,-0.391,-0.902,1.59,5.52,-0.81,0.1,0.07,0.04
2022-02-09 19:14:33.1780,0.029,-0.399,-0.89,1.59,5.52,-0.81,0.09,0.07,0.02
2022-02-09 19:14:33.1650,0.027,-0.405,-0.874,1.59,5.52,-0.81,0.06,0.07,0.0
2022-02-09 19:14:33.1660,0.025,-0.408,-0.866,1.59,5.52,-0.81,0.03,0.06,-0.01
2022-02-09 19:14:33.1830,0.032,-0.409,-0.863,1.59,5.52,-0.81,-0.01,0.06,-0.01
Time,0.048,-0.415,-0.867,1.59,5.52,-0.81,-0.04,0.04,0.0
Time,0.053,-0.422,-0.88,1.59,5.52,-0.81,-0.05,0.03,0.02
2022-02-09 19:14:33.1870,0.057,-0.414,-0.892,1.59,5.52,-0.81,-0.06,0.02,0.03
2022-02-09 19:14:33.1800,0.045,-0.404,-0.901,1.59,5.52,-0.81,-0.06,0.01,0.02
2022-02-09 19:14:33.1920,0.039,-0.401,-0.909,1.59,5.52,-0.81,-0.06,0.0,0.0
2022-02-09 19:14:33.2020,0.043,-0.399,-0.916,1.59,5.52,-0.81,-0.06,0.0,-0.0
2022-02-09 19:14:33.2120,0.059,-0.399,-0.923,1.59,5.52,-0.81,-0.05,0.0,0.01
2022-02-09 19:14:33.2220,0.067,-0.408,-0.931,1.59,5.52,-0.81,-0.03,-0.0,0.03
2022-02-09 19:14:33.2320,0.055,-0.411,-0.931,1.59,5.52,-0.81,-0.02,-0.0,0.04
2022-02-09 19:14:33.2420,0.036,-0.398,-0.926,1.59,5.52,-0.81,-0.03,0.0,0.01
2022-02-09 19:14:33.2520,0.022,-0.393,-0.922,0.87,5.6,-0.07,-0.04,-0.01,-0.01
2022-02-09 19:14:33.2630,0.033,-0.403,-0.922,0.87,5.6,-0.07,-0.05,-0.01,-0.01
Time,0.045,-0.41,-0.925,0.87,5.6,-0.07,-0.05,-0.02,-0.01
2022-02-09 19:14:33.2830,0.049,-0.41,-0.924,0.87,5.6,-0.07,-0.04,-0.03,0.01
2022-02-09 19:14:33.2930,0.053,-0.406,-0.919,0.87,5.6,-0.07,-0.04,-0.01,0.02
Time,0.063,-0.398,-0.918,1.86,3.36,0.28,-0.01,0.03,0.05
2022-02-09 19:14:33.3130,0.078,-0.396,-0.93,-3.39,-3.91,1.56,0.04,0.07,0.09
2022-02-09 19:14:33.3230,0.086,-0.399,-0.945,3.85,1.84,1.67,0.08,0.11,0.13
2022-02-09 19:14:33.3330,0.074,-0.399,-0.955,0.91,-7.62,4.01,0.13,0.12,0.14
2022-02-09 19:14:33.3430,0.053,-0.388,-0.951,0.2,3.43,1.78,0.15,0.1,0.13
2022-02-09 19:14:33.3530,0.031,-0.389,-0.928,-6.1,-1.37,3.21,0.14,0.09,0.1
2022-02-09 19:14:33.3630,0.019,-0.397,-0.902,2.11,0.32,1.63,0.12,0.09,0.08
2022-02-09 19:14:33.3730,0.013,-0.403,-0.894,-0.95,1.16,-5.47,0.1,0.07,0.05
Time,0.01,-0.4,-0.891,0.4,-1.46,0.59,0.07,0.05,0.02
Time,0.006,-0.396,-0.888,-2.1,2.97,-0.63,0.04,0.02,-0.02
2022-02-09 19:14:33.4030,0.004,-0.405,-0.877,1.76,-7.17,-0.39,0.0,-0.0,-0.04
2022-02-09 19:14:33.4140,0.009,-0.409,-0.868,3.83,1.43,-0.5,-0.04,-0.01,-0.07
2022-02-09 19:14:33.4240,0.03,-0.408,-0.875,0.25,-1.93,-0.28,-0.07,-0.02,-0.07
2022-02-09 19:14:33.4340,0.054,-0.419,-0.896,1.62,2.73,1.06,-0.06,-0.04,-0.04
2022-02-09 19:14:33.4440,0.062,-0.424,-0.912,0.76,-5.63,-0.18,-0.05,-0.04,-0.02
2022-02-09 19:14:33.4540,0.058,-0.411,-0.917,-0.28,1.92,0.86,-0.04,-0.03,-0.02
2022-02-09 19:14:33.4640,0.052,-0.406,-0.918,-2.4,-2.56,-4.73,-0.04,-0.03,-0.02
Time,0.053,-0.412,-0.919,-0.23,1.44,0.72,-0.04,-0.03,-0.01
2022-02-09 19:14:33.4840,0.051,-0.413,-0.921,-3.99,0.65,-0.92,-0.03,-0.02,-0.01
2022-02-09 19:14:33.4940,0.045,-0.405,-0.925,-0.41,0.4,0.47,-0.02,-0.02,-0.01
2022-02-09 19:14:33.5040,0.037,-0.404,-0.939,0.75,2.02,-2.26,0.01,-0.01,-0.02
Time,0.036,-0.399,-0.946,2.24,-2.61,0.48,0.04,-0.0,-0.03
2022-02-09 19:14:33.5240,0.038,-0.397,-0.938,-0.02,0.65,-0.1,0.05,0.0,-0.04
2022-02-09 19:14:33.5350,0.041,-0.402,-0.919,-0.09,0.42,0.1,0.05,0.03,-0.03
2022-02-09 19:14:33.5440,0.048,-0.41,-0.907,-0.01,0.57,-0.11,0.04,0.04,-0.02
2022-02-09 19:14:33.5550,0.053,-0.413,-0.905,0.1,0.4,-0.12,0.04,0.04,-0.02
2022-02-09 19:14:33.5580,0.053,-0.412,-0.909,-0.01,0.5,-0.25,0.03,0.04,-0.01
2022-02-09 19:14:33.5680,0.054,-0.411,-0.924,0.0,0.49,-0.22,0.03,0.03,-0.01
2022-02-09 19:14:33.5780,0.056,-0.407,-0.936,-0.01,0.47,-0.06,0.06,0.02,-0.0
2022-02-09 19:14:33.5880,0.054,-0.406,-0.935,-0.03,0.43,0.05,0.07,0.02,-0.0
2022-02-09 19:14:33.5980,0.04,-0.413,-0.916,-0.01,0.41,0.05,0.08,0.04,0.0
2022-02-09 19:14:33.6080,0.031,-0.415,-0.895,0.13,0.47,-0.13,0.08,0.09,-0.0
2022-02-09 19:14:33.6180,0.029,-0.411,-0.883,0.23,0.48,-0.34,0.07,0.14,-0.0
2022-02-09 19:14:33.6280,0.033,-0.404,-0.89,0.26,0.43,-0.45,0.08,0.2,-0.01
2022-02-09 19:14:33.6380,0.049,-0.4,-0.911,0.23,0.36,-0.38,0.12,0.24,-0.01
2022-02-09 19:14:33.6480,0.061,-0.404,-0.927,0.1,0.31,-0.17,0.17,0.25,-0.02
2022-02-09 19:14:33.6580,0.067,-0.403,-0.912,0.0,0.33,-0.01,0.29,0.32,-0.03
2022-02-09 19:14:33.6690,0.076,-0.414,-0.898,-0.03,0.29,-0.14,0.22,0.26,-0.02
2022-02-09 19:14:33.6790,0.074,-0.415,-0.877,-0.09,0.38,-0.27,0.15,0.13,-0.03
2022-02-09 19:14:33.6890,0.074,-0.43,-0.879,-0.05,0.37,-0.47,0.05,-0.02,-0.05
2022-02-09 19:14:33.6990,0.075,-0.432,-0.859,-0.05,0.52,-0.45,-0.07,-0.13,-0.06
2022-02-09 19:14:33.7090,0.078,-0.435,-0.85,-0.07,0.53,-0.64,-0.17,-0.2,-0.06
2022-02-09 19:14:33.7190,0.069,-0.429,-0.88,-0.12,0.58,-0.74,-0.22,-0.28,-0.08
2022-02-09 19:14:33.7290,0.068,-0.406,-0.912,-0.05,0.53,-0.45,-0.21,-0.31,-0.08
2022-02-09 19:14:33.7390,0.07,-0.404,-0.926,-0.06,0.33,-0.15,-0.19,-0.29,-0.07
2022-02-09 19:14:33.7490,0.057,-0.401,-0.936,-0.11,0.33,-0.02,-0.14,-0.24,-0.06
