time,gFx,gFy,gFz,ax,ay,az,wx,wy,wz
2022-01-31 10:32:22.0140,-0.205,-0.594,-0.569,-0.58,-0.43,-0.84,0.21,1.11,0.58
2022-01-31 10:32:22.0270,-0.194,-0.585,-0.593,-0.61,-0.72,-1.26,0.21,1.3,0.57
2022-01-31 10:32:22.0370,-0.159,-0.596,-0.62,-0.6,-0.82,-1.08,0.15,1.36,0.56
2022-01-31 10:32:22.0480,-0.148,-0.607,-0.647,-0.86,-0.75,-0.84,0.04,1.36,0.58
2022-01-31 10:32:22.0570,-0.16,-0.599,-0.69,-1.02,-0.6,-0.63,-0.06,1.3,0.57
2022-01-31 10:32:22.0680,-0.16,-0.576,-0.747,-0.85,-0.6,-0.29,-0.13,1.13,0.51
2022-01-31 10:32:22.0780,-0.164,-0.548,-0.773,-0.8,-0.79,0.23,-0.2,0.92,0.42
2022-01-31 10:32:22.0880,-0.147,-0.545,-0.764,-0.73,-1.03,0.55,-0.29,0.75,0.34
2022-01-31 10:32:22.0980,-0.124,-0.577,-0.738,-0.8,-1.12,0.5,-0.41,0.63,0.3
2022-01-31 10:32:22.1080,-0.123,-0.604,-0.718,-1.03,-0.82,0.21,-0.52,0.57,0.27
2022-01-31 10:32:22.1180,-0.136,-0.624,-0.715,-1.07,-0.48,-0.06,-0.58,0.61,0.28
2022-01-31 10:32:22.1280,-0.136,-0.633,-0.737,-0.93,-0.22,-0.2,-0.59,0.69,0.31
2022-01-31 10:32:22.1380,-0.132,-0.638,-0.756,-0.86,-0.05,-0.08,-0.56,0.71,0.36
2022-01-31 10:32:22.1480,-0.143,-0.648,-0.765,-0.87,0.04,0.09,-0.52,0.78,0.43
2022-01-31 10:32:22.1580,-0.165,-0.646,-0.805,-0.78,0.18,0.12,-0.45,0.86,0.48
2022-01-31 10:32:22.1680,-0.184,-0.624,-0.859,-0.53,0.25,0.39,-0.33,0.89,0.5
2022-01-31 10:32:22.1780,-0.197,-0.6,-0.912,-0.31,0.09,0.88,-0.12,0.89,0.51
2022-01-31 10:32:22.1880,-0.193,-0.57,-0.926,-0.12,-0.15,1.41,0.15,0.8,0.49
2022-01-31 10:32:22.1980,-0.179,-0.55,-0.888,-0.09,-0.44,1.68,0.39,0.75,0.45
2022-01-31 10:32:22.2090,-0.154,-0.564,-0.847,-0.18,-0.72,1.43,0.55,0.76,0.42
2022-01-31 10:32:22.2190,-0.137,-0.6,-0.847,-0.38,-0.71,1.0,0.64,0.71,0.43
2022-01-31 10:32:22.2290,-0.108,-0.613,-0.879,-0.56,-0.41,0.93,0.72,0.46,0.52
2022-01-31 10:32:22.2390,-0.074,-0.606,-0.884,-0.82,-0.24,1.23,0.85,0.09,0.66
2022-01-31 10:32:22.2490,-0.072,-0.627,-0.824,-1.24,-0.37,1.49,0.98,-0.14,0.77
2022-01-31 10:32:22.2590,-0.06,-0.657,-0.759,-1.4,-0.3,1.09,1.02,-0.2,0.92
2022-01-31 10:32:22.2690,-0.062,-0.687,-0.749,-1.53,-0.05,0.47,0.99,-0.3,1.13
2022-01-31 10:32:22.2790,-0.087,-0.684,-0.77,-1.73,0.21,0.3,0.97,-0.53,1.3
2022-01-31 10:32:22.2890,-0.088,-0.641,-0.774,-1.63,0.26,0.55,0.98,-0.8,1.46
2022-01-31 10:32:22.2990,-0.1,-0.614,-0.745,-1.74,-0.12,0.76,1.0,-0.98,1.58
2022-01-31 10:32:22.3090,-0.126,-0.634,-0.677,-1.85,-0.51,0.65,0.95,-0.91,1.62
2022-01-31 10:32:22.3190,-0.162,-0.667,-0.632,-1.77,-0.42,0.14,0.85,-0.63,1.59
2022-01-31 10:32:22.3290,-0.191,-0.702,-0.636,-1.56,-0.11,-0.37,0.73,-0.34,1.59
2022-01-31 10:32:22.3400,-0.232,-0.718,-0.651,-1.37,0.25,-0.37,0.65,-0.12,1.64
2022-01-31 10:32:22.3500,-0.302,-0.698,-0.652,-1.15,0.5,-0.18,0.62,0.05,1.68
2022-01-31 10:32:22.3600,-0.349,-0.671,-0.612,-0.61,0.39,-0.07,0.55,0.22,1.71
2022-01-31 10:32:22.3700,-0.341,-0.645,-0.558,-0.12,0.15,-0.35,0.4,0.36,1.8
2022-01-31 10:32:22.3800,-0.322,-0.602,-0.545,-0.18,-0.05,-0.89,0.22,0.44,1.9
2022-01-31 10:32:22.3900,-0.308,-0.581,-0.585,-0.48,-0.37,-1.18,0.09,0.5,1.96
2022-01-31 10:32:22.4000,-0.32,-0.601,-0.591,-0.72,-0.6,-0.86,-0.08,0.63,1.97
2022-01-31 10:32:22.4100,-0.383,-0.635,-0.608,-0.77,-0.39,-0.75,-0.28,0.8,1.89
2022-01-31 10:32:22.4200,-0.457,-0.67,-0.697,-0.32,0.01,-0.77,-0.38,0.88,1.68
2022-01-31 10:32:22.4300,-0.503,-0.696,-0.741,0.41,0.44,-0.07,-0.41,0.88,1.36
2022-01-31 10:32:22.4400,-0.53,-0.704,-0.753,0.91,0.82,0.51,-0.42,0.86,0.99
2022-01-31 10:32:22.4500,-0.534,-0.751,-0.83,1.22,0.93,0.5,-0.42,0.55,0.81
2022-01-31 10:32:22.4600,-0.5,-0.723,-0.836,1.29,1.42,1.15,-0.42,0.07,0.74
2022-01-31 10:32:22.4710,-0.47,-0.639,-0.792,1.0,1.46,1.45,-0.34,-0.27,0.66
2022-01-31 10:32:22.4810,-0.499,-0.603,-0.756,0.56,0.71,1.03,-0.27,-0.44,0.55
2022-01-31 10:32:22.4910,-0.548,-0.619,-0.672,0.64,0.22,0.7,-0.3,-0.45,0.43
2022-01-31 10:32:22.5010,-0.538,-0.642,-0.57,1.11,0.34,0.01,-0.4,-0.38,0.33
2022-01-31 10:32:22.5110,-0.498,-0.659,-0.503,1.14,0.62,-1.03,-0.54,-0.25,0.3
2022-01-31 10:32:22.5210,-0.487,-0.671,-0.475,0.73,0.86,-1.82,-0.67,-0.05,0.27
2022-01-31 10:32:22.5310,-0.504,-0.665,-0.499,0.52,1.05,-2.23,-0.76,0.21,0.2
2022-01-31 10:32:22.5410,-0.481,-0.678,-0.641,0.67,1.1,-2.23,-0.7,0.35,0.17
2022-01-31 10:32:22.5510,-0.408,-0.703,-0.791,0.64,1.16,-1.16,-0.53,0.3,0.24
2022-01-31 10:32:22.5610,-0.366,-0.699,-0.938,-0.07,1.5,0.34,-0.31,-0.14,0.33
2022-01-31 10:32:22.5710,-0.365,-0.672,-0.787,-0.62,1.54,1.97,-0.09,-0.18,0.38
2022-01-31 10:32:22.5810,-0.432,-0.672,-0.636,-0.77,1.34,1.26,0.12,-0.01,0.46
2022-01-31 10:32:22.5910,-0.498,-0.668,-0.569,-0.3,1.24,-0.58,0.25,0.3,0.48
2022-01-31 10:32:22.6020,-0.412,-0.596,-0.485,0.56,1.31,-1.27,0.21,0.77,0.47
2022-01-31 10:32:22.6120,-0.342,-0.524,-0.487,0.08,0.75,-2.19,0.02,1.26,0.49
2022-01-31 10:32:22.6220,-0.427,-0.494,-0.574,-0.71,0.01,-2.5,-0.15,1.76,0.39
2022-01-31 10:32:22.6320,-0.602,-0.521,-0.767,-0.23,-0.4,-1.91,-0.09,2.01,0.08
2022-01-31 10:32:22.6420,-0.572,-0.559,-0.946,1.72,-0.25,-0.4,-0.13,1.25,-0.21
2022-01-31 10:32:22.6520,-0.488,-0.466,-0.846,2.03,0.21,1.81,-0.02,1.04,-0.63
2022-01-31 10:32:22.6620,-0.434,-0.369,-0.76,1.33,-0.43,1.15,-0.18,1.01,-1.18
2022-01-31 10:32:22.6720,-0.468,-0.346,-0.671,0.82,-1.55,0.21,-0.37,1.22,-1.84
2022-01-31 10:32:22.6820,-0.528,-0.352,-0.675,1.2,-1.96,-0.75,-0.41,1.48,-2.61
2022-01-31 10:32:22.6930,-0.431,-0.552,-0.828,2.12,-2.18,-1.22,-0.48,1.2,-2.85
2022-01-31 10:32:22.7020,-0.267,-0.616,-0.795,1.86,-0.53,0.2,-0.46,1.0,-2.73
2022-01-31 10:32:22.7120,-0.139,-0.736,-0.764,0.44,0.42,0.28,-0.39,0.79,-2.23
2022-01-31 10:32:22.7230,-0.042,-0.891,-0.786,-0.77,1.29,-0.25,-0.29,0.73,-1.48
2022-01-31 10:32:22.7330,0.038,-0.939,-0.828,-1.67,2.88,-0.13,-0.18,0.75,-0.66
2022-01-31 10:32:22.7430,0.084,-0.86,-0.864,-2.43,3.7,0.21,-0.07,0.73,0.07
2022-01-31 10:32:22.7530,0.051,-0.758,-0.869,-2.97,3.17,0.62,0.04,0.8,0.57
2022-01-31 10:32:22.7630,0.01,-0.692,-0.899,-2.82,2.14,0.67,0.17,0.9,0.87
2022-01-31 10:32:22.7730,0.002,-0.648,-0.897,-2.32,1.4,0.92,0.31,1.08,1.07
2022-01-31 10:32:22.7830,0.016,-0.575,-0.865,-2.14,0.95,1.01,0.44,1.21,1.24
2022-01-31 10:32:22.7930,0.003,-0.527,-0.841,-2.22,0.29,0.75,0.58,1.34,1.37
2022-01-31 10:32:22.8030,-0.126,-0.514,-0.977,-2.2,-0.34,0.44,0.84,1.19,1.35
2022-01-31 10:32:22.8130,-0.252,-0.519,-1.054,-1.26,-0.58,1.31,1.22,0.56,1.18
2022-01-31 10:32:22.8230,-0.915,-0.534,-0.927,-0.14,-0.62,2.71,1.46,-0.09,0.23
2022-01-31 10:32:22.8330,-0.847,-0.544,-0.735,4.93,-0.76,1.9,1.5,-0.19,-0.73
2022-01-31 10:32:22.8440,-0.185,-0.443,-0.475,7.92,-0.47,0.28,1.25,0.06,-0.75
2022-01-31 10:32:22.8540,-0.21,-0.624,-0.451,0.68,-1.62,-2.3,0.9,0.53,-0.52
2022-01-31 10:32:22.8640,-0.187,-0.856,-0.558,-0.05,-0.69,-3.17,0.51,0.89,-0.05
2022-01-31 10:32:22.8740,-0.144,-0.797,-0.646,0.13,1.95,-2.22,0.14,1.04,0.39
2022-01-31 10:32:22.8840,-0.173,-0.626,-0.752,-0.34,2.05,-1.37,-0.06,0.94,0.57
2022-01-31 10:32:22.8940,-0.282,-0.482,-0.806,-0.27,0.46,-0.33,-0.11,0.71,0.43
2022-01-31 10:32:22.9040,-0.347,-0.401,-0.837,0.69,-1.01,0.29,-0.41,0.11,0.15
2022-01-31 10:32:22.9140,-0.349,-0.404,-0.71,1.56,-2.02,0.71,-0.59,0.12,-0.17
2022-01-31 10:32:22.9240,-0.305,-0.479,-0.595,1.72,-2.03,-0.22,-0.84,0.39,-0.33
2022-01-31 10:32:22.9340,-0.278,-0.52,-0.626,1.44,-1.46,-1.71,-1.02,0.5,-0.34
2022-01-31 10:32:22.9440,-0.276,-0.416,-0.69,1.15,-0.71,-1.73,-1.09,0.51,-0.42
2022-01-31 10:32:22.9540,-0.304,-0.148,-0.754,1.14,-1.24,-1.2,-1.06,0.42,-0.79
2022-01-31 10:32:22.9640,-0.24,-0.111,-0.858,1.52,-3.64,-0.62,-0.93,0.08,-1.18
2022-01-31 10:32:22.9750,-0.176,-0.301,-0.942,1.14,-4.75,0.2,-0.66,-0.34,-1.39
2022-01-31 10:32:22.9850,-0.116,-0.571,-0.89,0.51,-3.3,1.25,-0.37,-0.55,-1.39
2022-01-31 10:32:22.9950,-0.081,-0.669,-0.772,-0.06,-0.62,1.04,-0.14,-0.37,-1.4
2022-01-31 10:32:23.0050,-0.051,-0.626,-0.686,-0.36,0.84,-0.06,-0.01,-0.09,-1.36
2022-01-31 10:32:23.0150,-0.087,-0.55,-0.642,-0.63,0.63,-1.03,0.11,0.35,-1.34
2022-01-31 10:32:23.0250,-0.137,-0.514,-0.636,-0.3,-0.15,-1.54,0.31,0.9,-1.34
2022-01-31 10:32:23.0350,-0.13,-0.541,-0.666,0.41,-0.69,-1.69,0.54,1.31,-1.27
2022-01-31 10:32:23.0450,-0.066,-0.616,-0.677,0.7,-0.65,-1.42,0.78,1.58,-1.04
2022-01-31 10:32:23.0550,-0.001,-0.731,-0.688,0.34,-0.08,-1.17,0.92,1.78,-0.68
2022-01-31 10:32:23.0650,0.056,-0.84,-0.818,-0.16,0.87,-1.13,0.82,1.61,-0.2
2022-01-31 10:32:23.0750,0.036,-0.708,-1.034,-0.7,2.08,-0.21,0.57,1.11,0.09
2022-01-31 10:32:23.0850,0.103,-0.536,-0.872,-0.58,1.45,2.08,0.27,0.87,0.26
2022-01-31 10:32:23.0950,0.024,-0.509,-0.78,-0.85,-0.62,1.44,0.02,0.47,0.19
2022-01-31 10:32:23.1060,-0.075,-0.483,-0.788,-0.89,-0.96,-0.08,-0.25,0.2,-0.05
2022-01-31 10:32:23.1160,-0.011,-0.448,-0.737,0.67,-1.2,0.0,-0.54,0.06,-0.24
2022-01-31 10:32:23.1260,0.079,-0.479,-0.755,0.17,-1.51,-0.46,-0.72,-0.03,-0.32
2022-01-31 10:32:23.1360,0.141,-0.552,-0.81,-0.57,-1.35,-0.58,-0.72,-0.06,-0.32
2022-01-31 10:32:23.1460,0.099,-0.619,-0.814,-1.42,-0.61,-0.03,-0.66,-0.01,-0.27
2022-01-31 10:32:23.1560,0.081,-0.638,-0.802,-1.14,0.14,0.08,-0.6,0.12,-0.06
2022-01-31 10:32:23.1660,0.136,-0.63,-0.796,-0.8,0.52,-0.06,-0.54,0.26,0.34
2022-01-31 10:32:23.1760,0.076,-0.659,-0.771,-1.24,0.47,-0.16,-0.43,0.47,0.65
2022-01-31 10:32:23.1860,0.022,-0.642,-0.786,-1.09,0.69,-0.37,-0.28,0.79,0.83
2022-01-31 10:32:23.1960,0.069,-0.59,-0.895,-0.16,0.75,-0.43,-0.1,0.91,1.03
2022-01-31 10:32:23.2060,-0.085,-0.583,-0.926,-0.69,0.19,0.47,0.08,0.89,0.96
2022-01-31 10:32:23.2160,-0.209,-0.552,-0.773,0.31,0.05,1.21,0.04,0.94,0.6
2022-01-31 10:32:23.2260,-0.058,-0.534,-0.702,2.19,-0.16,-0.01,-0.12,1.01,0.44
2022-01-31 10:32:23.2370,0.014,-0.596,-0.849,1.09,-0.47,-1.11,-0.1,0.99,0.45
2022-01-31 10:32:23.2470,-0.005,-0.646,-0.859,0.12,-0.01,-0.22,-0.0,0.97,0.47
2022-01-31 10:32:23.2570,-0.04,-0.558,-0.728,0.26,0.64,0.8,-0.01,1.2,0.45
2022-01-31 10:32:23.2670,-0.14,-0.459,-0.81,0.57,0.1,-0.76,0.09,1.4,0.28
2022-01-31 10:32:23.2770,-0.142,-0.415,-0.911,1.64,-0.99,-0.35,0.25,1.37,0.05
2022-01-31 10:32:23.2870,-0.071,-0.472,-0.9,2.02,-1.61,0.81,0.27,1.2,-0.1
2022-01-31 10:32:23.2970,0.048,-0.584,-0.823,1.6,-1.32,1.01,0.12,1.05,-0.03
2022-01-31 10:32:23.3070,0.117,-0.649,-0.775,0.51,-0.26,0.32,-0.12,0.9,0.15
2022-01-31 10:32:23.3170,0.097,-0.631,-0.796,-0.26,0.57,-0.3,-0.27,0.83,0.29
2022-01-31 10:32:23.3270,0.03,-0.528,-0.885,-0.25,0.64,-0.25,-0.28,0.73,0.28
2022-01-31 10:32:23.3380,-0.034,-0.468,-1.028,0.37,-0.22,0.41,-0.16,0.54,0.15
2022-01-31 10:32:23.3470,-0.067,-0.465,-1.091,1.11,-1.02,1.8,0.03,0.3,-0.03
2022-01-31 10:32:23.3580,-0.087,-0.466,-1.064,1.49,-1.12,2.69,0.23,0.08,-0.19
2022-01-31 10:32:23.3680,-0.101,-0.48,-0.942,1.74,-1.16,2.65,0.37,0.02,-0.34
2022-01-31 10:32:23.3780,-0.086,-0.506,-0.781,1.92,-1.06,1.72,0.44,0.17,-0.44
2022-01-31 10:32:23.3880,-0.015,-0.582,-0.703,1.94,-0.91,0.14,0.46,0.41,-0.4
2022-01-31 10:32:23.3980,0.061,-0.65,-0.746,1.42,-0.31,-0.88,0.46,0.49,-0.24
2022-01-31 10:32:23.4080,0.061,-0.653,-0.807,0.64,0.43,-0.67,0.4,0.36,-0.09
2022-01-31 10:32:23.4180,0.011,-0.615,-0.842,0.44,0.6,0.0,0.31,0.11,-0.07
2022-01-31 10:32:23.4280,-0.025,-0.576,-0.886,0.89,0.27,0.41,0.25,-0.18,-0.15
2022-01-31 10:32:23.4380,-0.05,-0.547,-0.907,1.27,-0.16,0.79,0.23,-0.5,-0.27
2022-01-31 10:32:23.4480,-0.064,-0.554,-0.841,1.51,-0.49,1.17,0.21,-0.69,-0.41
2022-01-31 10:32:23.4580,-0.037,-0.599,-0.754,1.66,-0.54,0.69,0.16,-0.71,-0.47
2022-01-31 10:32:23.4680,0.004,-0.621,-0.728,1.5,-0.17,-0.17,0.13,-0.68,-0.44
2022-01-31 10:32:23.4780,0.034,-0.622,-0.772,1.0,0.16,-0.65,0.17,-0.67,-0.36
2022-01-31 10:32:23.4880,0.051,-0.636,-0.778,0.71,0.13,-0.27,0.24,-0.62,-0.28
2022-01-31 10:32:23.4990,0.054,-0.638,-0.778,0.43,0.24,-0.11,0.3,-0.56,-0.21
2022-01-31 10:32:23.5090,0.047,-0.642,-0.738,0.36,0.28,-0.08,0.3,-0.5,-0.16
2022-01-31 10:32:23.5190,0.046,-0.636,-0.734,0.39,0.28,-0.36,0.25,-0.52,-0.13
2022-01-31 10:32:23.5290,0.016,-0.614,-0.804,0.36,0.25,-0.59,0.22,-0.66,-0.19
2022-01-31 10:32:23.5390,-0.031,-0.606,-0.805,0.52,0.05,0.0,0.14,-0.81,-0.29
2022-01-31 10:32:23.5490,-0.056,-0.651,-0.731,0.92,-0.11,0.32,-0.09,-0.91,-0.37
2022-01-31 10:32:23.5590,-0.049,-0.668,-0.71,1.22,0.25,-0.43,-0.39,-0.96,-0.42
2022-01-31 10:32:23.5690,-0.029,-0.662,-0.716,1.13,0.62,-0.79,-0.66,-0.91,-0.46
2022-01-31 10:32:23.5790,0.015,-0.688,-0.791,0.96,0.6,-0.87,-0.88,-0.82,-0.42
2022-01-31 10:32:23.5890,0.048,-0.714,-0.873,0.52,0.86,-0.39,-0.99,-0.73,-0.3
2022-01-31 10:32:23.5990,0.048,-0.704,-0.915,0.1,1.25,0.46,-0.99,-0.56,-0.13
2022-01-31 10:32:23.6100,0.018,-0.667,-0.969,-0.01,1.3,0.87,-0.88,-0.31,0.0
2022-01-31 10:32:23.6200,-0.019,-0.594,-1.033,0.2,1.08,1.29,-0.67,-0.11,0.02
2022-01-31 10:32:23.6300,-0.044,-0.527,-1.053,0.58,0.47,1.92,-0.43,0.01,-0.08
2022-01-31 10:32:23.6400,-0.04,-0.514,-1.008,0.88,-0.24,2.25,-0.25,0.08,-0.2
2022-01-31 10:32:23.6500,-0.029,-0.52,-0.934,0.95,-0.49,1.94,-0.11,0.17,-0.3
2022-01-31 10:32:23.6600,-0.027,-0.498,-0.886,0.84,-0.41,1.24,0.06,0.3,-0.4
2022-01-31 10:32:23.6700,0.001,-0.487,-0.846,0.91,-0.58,0.69,0.2,0.36,-0.48
2022-01-31 10:32:23.6800,0.022,-0.508,-0.798,0.73,-0.77,0.33,0.23,0.31,-0.53
2022-01-31 10:32:23.6900,0.047,-0.543,-0.744,0.54,-0.65,-0.11,0.18,0.21,-0.53
2022-01-31 10:32:23.7000,0.079,-0.578,-0.688,0.37,-0.32,-0.62,0.06,0.1,-0.45
2022-01-31 10:32:23.7100,0.086,-0.6,-0.653,0.08,0.04,-1.18,-0.11,0.02,-0.35
2022-01-31 10:32:23.7200,0.074,-0.581,-0.655,-0.06,0.33,-1.61,-0.28,-0.03,-0.26
2022-01-31 10:32:23.7300,0.056,-0.528,-0.679,0.04,0.29,-1.71,-0.4,-0.09,-0.22
2022-01-31 10:32:23.7400,0.032,-0.476,-0.692,0.21,-0.13,-1.52,-0.49,-0.1,-0.25
2022-01-31 10:32:23.7510,0.023,-0.45,-0.696,0.45,-0.63,-1.37,-0.55,0.0,-0.3
2022-01-31 10:32:23.7610,0.042,-0.438,-0.72,0.62,-0.9,-1.36,-0.55,0.12,-0.33
2022-01-31 10:32:23.7710,0.079,-0.431,-0.772,0.54,-1.01,-1.24,-0.49,0.18,-0.33
2022-01-31 10:32:23.7810,0.096,-0.406,-0.779,0.22,-1.03,-0.76,-0.37,0.2,-0.32
2022-01-31 10:32:23.7910,0.074,-0.374,-0.723,0.01,-1.2,-0.55,-0.25,0.21,-0.35
2022-01-31 10:32:23.8010,0.036,-0.341,-0.631,0.18,-1.49,-0.97,-0.16,0.26,-0.43
2022-01-31 10:32:23.8110,-0.003,-0.314,-0.519,0.59,-1.79,-1.8,-0.05,0.44,-0.55
2022-01-31 10:32:23.8210,-0.024,-0.3,-0.421,1.07,-2.1,-2.87,0.09,0.73,-0.67
2022-01-31 10:32:23.8310,-0.023,-0.281,-0.345,1.46,-2.26,-3.86,0.29,1.08,-0.79
2022-01-31 10:32:23.8410,-0.001,-0.25,-0.298,1.66,-2.45,-4.62,0.52,1.44,-0.9
2022-01-31 10:32:23.8510,0.022,-0.208,-0.291,1.67,-2.76,-5.1,0.79,1.75,-1.02
2022-01-31 10:32:23.8620,0.041,-0.161,-0.278,1.66,-3.22,-5.17,1.07,1.96,-1.18
2022-01-31 10:32:23.8720,0.034,-0.109,-0.25,1.68,-3.75,-5.12,1.32,2.1,-1.42
2022-01-31 10:32:23.9390,0.011,-0.046,-0.237,1.94,-4.31,-5.28,1.41,3.22,-3.04
2022-01-31 10:32:23.9390,-0.004,0.004,-0.199,1.94,-4.31,-5.28,1.41,3.22,-3.04
2022-01-31 10:32:23.9390,0.007,0.022,-0.088,1.94,-4.31,-5.28,1.41,3.22,-3.04
2022-01-31 10:32:23.9390,0.047,0.03,0.056,1.94,-4.31,-5.28,1.41,3.22,-3.04
Time,0.08,0.061,0.182,1.94,-4.31,-5.28,1.41,3.22,-3.04
Time,0.095,0.1,0.263,1.94,-4.31,-5.28,1.41,3.22,-3.04
2022-01-31 10:32:23.9490,0.114,0.129,0.311,1.94,-4.31,-5.28,1.1,3.54,-3.3
2022-01-31 10:32:23.9490,0.155,0.139,0.345,1.94,-4.31,-5.28,0.72,3.92,-3.52
2022-01-31 10:32:23.9650,0.228,0.124,0.354,1.94,-4.31,-5.28,0.3,4.37,-3.69
2022-01-31 10:32:23.9750,0.297,0.156,0.308,1.94,-4.31,-5.28,-0.11,4.88,-3.84
2022-01-31 10:32:23.9850,0.347,0.262,0.21,3.26,-6.02,-7.28,-0.41,5.43,-4.04
2022-01-31 10:32:23.9950,0.432,0.365,0.099,3.82,-6.78,-9.39,-0.56,5.96,-4.29
2022-01-31 10:32:24.0040,0.582,0.382,0.068,3.59,-6.9,-7.59,-0.67,6.65,-4.51
2022-01-31 10:32:24.0130,0.775,0.348,0.137,2.63,-7.68,-4.91,-0.83,7.58,-4.71
2022-01-31 10:32:24.0230,0.995,0.413,0.179,1.34,-6.89,-4.76,-1.04,8.5,-4.99
2022-01-31 10:32:24.0330,1.221,0.581,0.165,-0.3,-6.71,-4.6,-1.2,9.25,-5.38
2022-01-31 10:32:24.0430,1.484,0.734,0.108,-2.13,-7.63,-3.7,-1.18,9.83,-5.76
2022-01-31 10:32:24.0530,1.875,0.765,0.011,-4.24,-8.72,-2.29,-0.98,10.16,-5.99
2022-01-31 10:32:24.0600,2.222,0.742,-0.283,-4.24,-8.72,-2.29,-0.82,9.73,-6.08
2022-01-31 10:32:24.0700,2.37,0.714,-0.643,-4.24,-8.72,-2.29,-0.84,8.32,-6.09
2022-01-31 10:32:24.0810,2.361,0.581,-0.995,-4.24,-8.72,-2.29,-0.91,5.88,-6.02
2022-01-31 10:32:24.0910,2.315,0.282,-1.273,-4.24,-8.72,-2.29,-0.72,2.95,-5.73
2022-01-31 10:32:24.1020,2.283,0.021,-1.192,-4.24,-8.72,-2.29,-0.2,0.73,-5.15
2022-01-31 10:32:24.1110,2.185,-0.037,-0.762,-4.24,-8.72,-2.29,0.6,-0.31,-4.44
2022-01-31 10:32:24.1240,2.021,0.03,-0.188,-4.24,-8.72,-2.29,1.6,-0.11,-3.72
2022-01-31 10:32:24.1320,1.832,0.145,0.357,-4.24,-8.72,-2.29,2.73,1.21,-3.13
2022-01-31 10:32:24.1530,1.628,0.299,0.774,-4.24,-8.72,-2.29,3.79,3.03,-2.7
2022-01-31 10:32:24.1540,1.464,0.435,0.961,-4.24,-8.72,-2.29,4.63,4.76,-2.48
2022-01-31 10:32:24.1620,1.422,0.545,0.931,-4.24,-8.72,-2.29,5.2,5.98,-2.46
2022-01-31 10:32:24.1710,1.494,0.592,0.785,-4.24,-8.72,-2.29,5.57,6.45,-2.45
2022-01-31 10:32:24.1820,1.6,0.594,0.616,-4.24,-8.72,-2.29,5.82,6.27,-2.38
2022-01-31 10:32:24.1950,1.661,0.627,0.487,-4.24,-8.72,-2.29,6.02,5.58,-2.25
2022-01-31 10:32:24.2020,1.766,0.913,0.964,-4.24,-8.72,-2.29,6.21,4.6,-2.19
2022-01-31 10:32:24.2020,1.836,0.916,1.185,-4.24,-8.72,-2.29,6.21,4.6,-2.19
2022-01-31 10:32:24.2020,1.863,0.851,1.202,-4.24,-8.72,-2.29,6.21,4.6,-2.19
2022-01-31 10:32:24.2020,1.87,0.763,0.946,-4.24,-8.72,-2.29,6.21,4.6,-2.19
2022-01-31 10:32:24.2020,1.683,0.743,0.328,-4.24,-8.72,-2.29,6.21,4.6,-2.19
2022-01-31 10:32:24.2020,1.827,0.746,0.636,-4.24,-8.72,-2.29,6.21,4.6,-2.19
2022-01-31 10:32:24.2020,1.642,0.813,0.285,-4.24,-8.72,-2.29,6.21,4.6,-2.19
2022-01-31 10:32:24.2020,1.558,1.026,0.303,-4.24,-8.72,-2.29,6.21,4.6,-2.19
2022-01-31 10:32:24.2020,1.445,1.056,0.135,-4.24,-8.72,-2.29,6.21,4.6,-2.19
2022-01-31 10:32:24.2020,1.323,1.016,0.061,-4.24,-8.72,-2.29,6.21,4.6,-2.19
2022-01-31 10:32:24.2020,1.197,0.981,0.076,-4.24,-8.72,-2.29,6.21,4.6,-2.19
2022-01-31 10:32:24.2020,1.137,0.983,0.067,-4.24,-8.72,-2.29,6.21,4.6,-2.19
2022-01-31 10:32:24.2020,1.069,0.956,-0.073,-4.24,-8.72,-2.29,6.21,4.6,-2.19
2022-01-31 10:32:24.2020,1.655,0.723,0.464,-4.24,-8.72,-2.29,6.21,4.6,-2.19
2022-01-31 10:32:24.2020,0.99,0.895,-0.219,-4.24,-8.72,-2.29,6.21,4.6,-2.19
2022-01-31 10:32:24.2020,0.868,0.798,-0.188,-4.24,-8.72,-2.29,6.21,4.6,-2.19
2022-01-31 10:32:24.2020,0.868,0.798,-0.188,-4.24,-8.72,-2.29,6.21,4.6,-2.19
2022-01-31 10:32:24.2020,0.725,0.641,-0.12,-4.24,-8.72,-2.29,6.21,4.6,-2.19
2022-01-31 10:32:24.2020,0.725,0.641,-0.12,-4.24,-8.72,-2.29,6.21,4.6,-2.19
2022-01-31 10:32:24.2020,0.5,0.513,-0.235,-4.24,-8.72,-2.29,6.21,4.6,-2.19
2022-01-31 10:32:24.2020,0.784,0.296,-0.427,-4.24,-8.72,-2.29,6.21,4.6,-2.19
2022-01-31 10:32:24.2020,0.846,0.254,-0.373,-4.24,-8.72,-2.29,6.21,4.6,-2.19
2022-01-31 10:32:24.2020,0.682,0.216,-0.363,-4.24,-8.72,-2.29,6.21,4.6,-2.19
2022-01-31 10:32:24.2020,0.653,0.11,-0.582,-4.24,-8.72,-2.29,6.21,4.6,-2.19
2022-01-31 10:32:24.2020,0.876,-0.087,-0.566,-4.24,-8.72,-2.29,6.21,4.6,-2.19
2022-01-31 10:32:24.2020,0.929,-0.165,-0.487,-4.24,-8.72,-2.29,6.21,4.6,-2.19
2022-01-31 10:32:24.2020,0.942,-0.264,-0.418,-4.24,-8.72,-2.29,6.21,4.6,-2.19
2022-01-31 10:32:24.2020,0.95,-0.392,-0.427,-4.24,-8.72,-2.29,6.21,4.6,-2.19
2022-01-31 10:32:24.2020,0.939,-0.449,-0.414,-4.24,-8.72,-2.29,6.21,4.6,-2.19
2022-01-31 10:32:24.2020,0.92,-0.434,-0.396,-4.24,-8.72,-2.29,6.21,4.6,-2.19
2022-01-31 10:32:24.2020,0.893,-0.401,-0.352,-4.24,-8.72,-2.29,6.21,4.6,-2.19
2022-01-31 10:32:24.2020,0.794,-0.325,-0.247,-4.24,-8.72,-2.29,6.21,4.6,-2.19
2022-01-31 10:32:24.2020,0.859,-0.305,-0.245,-4.24,-8.72,-2.29,6.21,4.6,-2.19
2022-01-31 10:32:24.2020,0.773,-0.126,-0.28,-4.24,-8.72,-2.29,6.21,4.6,-2.19
2022-01-31 10:32:24.2020,0.583,0.142,-0.422,-4.24,-8.72,-2.29,6.21,4.6,-2.19
2022-01-31 10:32:24.2020,0.476,0.339,-0.612,-4.24,-8.72,-2.29,6.21,4.6,-2.19
2022-01-31 10:32:24.2020,0.29,0.553,-0.696,-4.24,-8.72,-2.29,6.21,4.6,-2.19
2022-01-31 10:32:24.2020,0.175,0.686,-0.898,-4.24,-8.72,-2.29,6.21,4.6,-2.19
2022-01-31 10:32:24.2020,0.175,0.686,-0.898,-4.24,-8.72,-2.29,6.21,4.6,-2.19
2022-01-31 10:32:24.2020,0.102,0.739,-0.955,-4.24,-8.72,-2.29,6.21,4.6,-2.19
2022-01-31 10:32:24.2020,0.016,0.836,-0.972,-4.24,-8.72,-2.29,6.21,4.6,-2.19
2022-01-31 10:32:24.2020,-0.197,1.032,-0.924,-4.24,-8.72,-2.29,6.21,4.6,-2.19
2022-01-31 10:32:24.2020,0.48,0.602,-0.154,-4.24,-8.72,-2.29,6.37,3.46,-2.23
2022-01-31 10:32:24.2020,0.785,0.003,-0.577,-4.24,-8.72,-2.29,5.58,0.74,-2.46
2022-01-31 10:32:24.7240,-0.299,1.032,-0.727,-4.24,-8.72,-2.29,0.25,-1.7,-0.71
2022-01-31 10:32:24.7270,-0.184,0.704,-0.381,-4.24,-8.72,-2.29,0.01,-1.75,-1.65
2022-01-31 10:32:24.7280,0.175,0.459,-0.16,-4.24,-8.72,-2.29,-0.28,-1.44,-2.16
2022-01-31 10:32:24.7280,0.641,0.513,-0.204,-4.24,-8.72,-2.29,-0.39,-0.93,-2.18
2022-01-31 10:32:24.7290,0.859,0.58,-0.382,-4.24,-8.72,-2.29,-0.33,-0.65,-2.03
Time,0.705,0.467,-0.365,-4.24,-8.72,-2.29,-0.33,-0.45,-2.11
2022-01-31 10:32:24.7320,0.781,0.432,-0.402,-4.24,-8.72,-2.29,-0.28,-0.34,-2.25
Time,1.289,0.355,-0.45,-4.24,-8.72,-2.29,-0.17,-0.33,-1.95
2022-01-31 10:32:24.7360,1.679,0.117,-0.304,-4.24,-8.72,-2.29,-0.23,-0.3,-1.15
2022-01-31 10:32:24.7390,1.059,0.048,-0.054,-4.24,-8.72,-2.29,-0.63,0.1,-1.1
2022-01-31 10:32:24.7460,0.599,0.427,-0.423,-4.24,-8.72,-2.29,-0.62,0.3,-2.05
2022-01-31 10:32:24.7560,1.06,0.664,-0.582,-4.24,-8.72,-2.29,-0.42,-0.09,-2.76
2022-01-31 10:32:24.7660,1.419,0.685,-0.587,-4.24,-8.72,-2.29,-0.15,-0.64,-2.96
2022-01-31 10:32:24.7760,1.179,0.753,-0.496,-4.24,-8.72,-2.29,0.12,-0.72,-3.27
2022-01-31 10:32:24.7910,1.101,0.795,-0.345,-7.62,-8.74,-0.62,0.29,-0.62,-3.66
2022-01-31 10:32:24.8020,1.213,0.851,-0.319,-7.62,-8.74,-0.62,0.36,-0.67,-3.96
2022-01-31 10:32:24.8110,1.122,0.922,-0.215,-7.62,-8.74,-0.62,0.26,-0.63,-4.25
2022-01-31 10:32:24.8220,1.116,0.993,-0.209,-7.62,-8.74,-0.62,0.14,-0.57,-4.32
2022-01-31 10:32:24.8320,1.23,1.044,-0.242,-7.62,-8.74,-0.62,0.08,-0.47,-4.03
2022-01-31 10:32:24.8420,1.184,1.081,-0.282,-7.62,-8.74,-0.62,0.05,-0.2,-3.6
2022-01-31 10:32:24.8520,0.868,1.075,-0.425,-7.62,-8.74,-0.62,0.21,0.23,-3.41
2022-01-31 10:32:24.8610,0.451,1.122,-0.573,-7.62,-8.74,-0.62,0.68,0.73,-3.79
2022-01-31 10:32:24.8670,0.627,1.162,-0.64,-7.62,-8.74,-0.62,1.25,1.4,-4.1
2022-01-31 10:32:24.8770,1.002,1.212,-0.899,-7.62,-8.74,-0.62,1.84,1.86,-4.25
2022-01-31 10:32:24.8930,1.37,1.031,-1.076,-7.62,-8.74,-0.62,2.44,1.84,-4.01
2022-01-31 10:32:24.9030,1.614,0.64,-1.048,-7.62,-8.74,-0.62,2.87,1.66,-3.36
2022-01-31 10:32:24.9130,1.674,0.257,-0.896,-7.62,-8.74,-0.62,3.02,1.61,-2.39
2022-01-31 10:32:24.9220,1.656,-0.045,-0.682,-7.62,-8.74,-0.62,2.86,1.8,-1.32
2022-01-31 10:32:24.9310,1.6,-0.299,-0.583,-13.66,-5.65,10.59,2.43,1.97,-0.33
2022-01-31 10:32:24.9430,1.553,-0.504,-0.566,-9.2,1.5,-0.23,1.83,1.73,0.62
2022-01-31 10:32:24.9520,1.531,-0.611,-0.458,-7.42,-1.42,-2.95,1.13,1.34,1.61
2022-01-31 10:32:24.9620,1.602,-0.7,-0.331,-11.06,-2.49,-8.68,0.51,1.1,2.85
2022-01-31 10:32:24.9700,1.774,-0.734,-0.151,-11.61,-0.11,-5.69,0.08,1.27,4.3
2022-01-31 10:32:24.9700,1.746,-0.542,0.027,-11.61,-0.11,-5.69,-0.27,1.68,5.58
2022-01-31 10:32:24.9860,1.235,-0.009,0.288,-11.61,-0.11,-5.69,-0.84,2.1,6.15
Time,0.36,0.742,0.541,-11.61,-0.11,-5.69,-1.74,2.7,5.48
2022-01-31 10:32:24.9980,0.313,1.1,0.252,-11.61,-0.11,-5.69,-2.18,3.41,4.79
2022-01-31 10:32:25.0090,0.38,1.251,-0.056,-11.61,-0.11,-5.69,-2.07,3.98,4.21
2022-01-31 10:32:25.0180,0.428,1.302,-0.408,-11.61,-0.11,-5.69,-1.44,4.57,3.7
2022-01-31 10:32:25.0280,0.372,1.537,-0.8,-11.61,-0.11,-5.69,-0.52,5.04,2.93
2022-01-31 10:32:25.0380,0.184,1.605,-0.995,-11.61,-0.11,-5.69,0.3,4.93,2.04
Time,0.232,1.267,-0.684,-11.61,-0.11,-5.69,0.57,4.26,1.43
2022-01-31 10:32:25.0590,0.491,0.877,-0.158,-11.61,-0.11,-5.69,0.12,3.55,1.42
2022-01-31 10:32:25.0690,0.685,0.538,-0.021,-11.61,-0.11,-5.69,-0.6,2.96,1.63
2022-01-31 10:32:25.0790,1.023,-0.101,-0.281,-11.61,-0.11,-5.69,-0.86,2.13,2.3
2022-01-31 10:32:25.0890,0.872,0.0,-0.249,-11.61,-0.11,-5.69,-0.68,1.38,2.59
2022-01-31 10:32:25.1000,0.821,0.359,-0.132,-10.34,-0.04,-3.02,-0.55,0.49,2.53
2022-01-31 10:32:25.1130,0.964,0.506,0.103,-10.34,-0.04,-3.02,-0.88,-0.03,2.36
2022-01-31 10:32:25.1190,0.857,0.435,0.4,-10.34,-0.04,-3.02,-1.61,-0.04,2.26
2022-01-31 10:32:25.1290,0.684,0.223,0.666,-10.34,-0.04,-3.02,-2.53,-0.23,2.15
2022-01-31 10:32:25.1420,0.674,0.132,1.031,-10.34,-0.04,-3.02,-3.82,-0.1,1.98
2022-01-31 10:32:25.1580,0.821,0.305,0.905,-10.34,-0.04,-3.02,-4.96,0.0,1.86
2022-01-31 10:32:25.1590,0.924,0.481,0.202,-10.34,-0.04,-3.02,-5.21,-0.22,1.84
2022-01-31 10:32:25.1700,0.887,0.246,0.024,-10.34,-0.04,-3.02,-5.09,0.37,1.79
2022-01-31 10:32:25.1800,0.875,0.125,-0.142,-10.34,-0.04,-3.02,-4.77,1.3,1.52
2022-01-31 10:32:25.1930,0.975,0.241,-0.498,-10.34,-0.04,-3.02,-4.26,1.85,1.11
2022-01-31 10:32:25.2000,1.12,0.113,-0.786,-10.34,-0.04,-3.02,-3.61,1.24,0.83
2022-01-31 10:32:25.2100,1.314,-0.138,-0.868,-10.34,-0.04,-3.02,-2.97,-0.06,0.86
2022-01-31 10:32:25.2200,1.566,-0.021,-0.807,-10.34,-0.04,-3.02,-2.38,-0.98,1.36
2022-01-31 10:32:25.2310,1.082,0.208,-0.903,-10.34,-0.04,-3.02,-1.56,-1.3,1.45
2022-01-31 10:32:25.2400,0.792,0.286,-0.806,-10.34,-0.04,-3.02,-0.71,-1.23,1.15
2022-01-31 10:32:25.2500,0.715,0.338,-0.566,-10.34,-0.04,-3.02,-0.29,-1.03,0.69
2022-01-31 10:32:25.2600,0.621,0.435,-0.357,-10.34,-0.04,-3.02,-0.42,-0.83,0.21
2022-01-31 10:32:25.2700,0.688,0.418,-0.312,-10.34,-0.04,-3.02,-0.72,-0.95,-0.15
2022-01-31 10:32:25.2810,0.73,0.362,-0.278,-10.34,-0.04,-3.02,-0.98,-1.18,-0.4
2022-01-31 10:32:25.2900,0.721,0.406,-0.146,-10.34,-0.04,-3.02,-1.16,-1.09,-0.66
2022-01-31 10:32:25.3010,0.792,0.361,-0.021,-10.34,-0.04,-3.02,-1.43,-1.11,-0.95
2022-01-31 10:32:25.3110,0.852,0.362,-0.081,-10.34,-0.04,-3.02,-1.57,-1.38,-1.26
2022-01-31 10:32:25.3240,0.908,0.376,-0.009,-10.34,-0.04,-3.02,-1.63,-1.61,-1.54
2022-01-31 10:32:25.3310,0.861,0.341,0.188,-10.34,-0.04,-3.02,-1.67,-1.6,-1.85
2022-01-31 10:32:25.3410,0.746,0.38,0.296,-10.34,-0.04,-3.02,-1.64,-1.13,-2.34
2022-01-31 10:32:25.3510,0.713,0.439,0.268,-10.34,-0.04,-3.02,-1.35,-0.27,-2.96
2022-01-31 10:32:25.3610,0.824,0.386,0.102,-10.34,-0.04,-3.02,-0.69,0.4,-3.43
2022-01-31 10:32:25.3710,1.094,0.066,0.155,-10.34,-0.04,-3.02,0.18,1.11,-3.34
2022-01-31 10:32:25.3810,1.189,0.149,0.299,-10.34,-0.04,-3.02,1.12,1.96,-3.02
2022-01-31 10:32:25.3910,0.937,0.535,0.147,-10.34,-0.04,-3.02,2.02,2.2,-3.15
2022-01-31 10:32:25.4050,0.813,0.676,0.087,-10.34,-0.04,-3.02,2.7,1.92,-3.62
2022-01-31 10:32:25.4120,0.955,0.716,0.093,-10.34,-0.04,-3.02,3.19,1.64,-4.16
2022-01-31 10:32:25.4210,1.127,0.637,0.125,-10.34,-0.04,-3.02,3.35,1.38,-4.53
2022-01-31 10:32:25.4310,1.3,0.533,0.088,-10.34,-0.04,-3.02,3.15,0.88,-4.55
2022-01-31 10:32:25.4420,1.545,0.411,0.043,-10.34,-0.04,-3.02,2.77,0.5,-4.25
2022-01-31 10:32:25.4520,1.824,0.139,-0.036,-10.34,-0.04,-3.02,2.31,0.18,-3.65
2022-01-31 10:32:25.4620,2.316,-0.154,-0.531,-10.34,-0.04,-3.02,2.31,-1.41,-2.46
2022-01-31 10:32:25.4720,2.336,-0.25,0.013,-10.34,-0.04,-3.02,2.16,-1.68,-0.89
2022-01-31 10:32:25.4820,1.895,-0.329,0.057,-10.34,-0.04,-3.02,1.91,-2.04,0.69
2022-01-31 10:32:25.4920,1.655,-0.26,0.104,-10.34,-0.04,-3.02,1.38,-2.26,2.0
2022-01-31 10:32:25.5020,1.518,0.048,0.111,-10.34,-0.04,-3.02,0.81,-2.76,2.83
2022-01-31 10:32:25.5120,1.388,0.291,0.015,-10.34,-0.04,-3.02,0.31,-3.25,3.4
2022-01-31 10:32:25.5220,1.274,0.378,-0.014,-10.34,-0.04,-3.02,-0.16,-3.23,3.86
2022-01-31 10:32:25.5320,1.203,0.359,-0.04,-10.34,-0.04,-3.02,-0.54,-2.86,4.28
Time,1.095,0.352,-0.109,-10.34,-0.04,-3.02,-0.75,-2.32,4.55
2022-01-31 10:32:25.5530,0.944,0.344,-0.22,-10.34,-0.04,-3.02,-0.78,-1.72,4.62
2022-01-31 10:32:25.5620,0.959,0.242,-0.36,-10.34,-0.04,-3.02,-0.66,-1.19,4.66
2022-01-31 10:32:25.5720,1.09,0.065,-0.486,-10.34,-0.04,-3.02,-0.47,-0.73,4.84
2022-01-31 10:32:25.5830,1.034,0.072,-0.519,-10.34,-0.04,-3.02,-0.37,-0.27,4.89
2022-01-31 10:32:25.5930,0.715,0.198,-0.455,-10.34,-0.04,-3.02,-0.46,0.17,4.59
2022-01-31 10:32:25.6030,0.476,0.264,-0.377,-10.34,-0.04,-3.02,-0.68,0.53,4.18
2022-01-31 10:32:25.6130,0.217,0.46,-0.31,-10.34,-0.04,-3.02,-0.94,0.69,3.63
2022-01-31 10:32:25.6240,-0.067,0.84,-0.383,-10.34,-0.04,-3.02,-1.02,0.74,2.86
2022-01-31 10:32:25.6330,-0.232,1.085,-0.592,-10.34,-0.04,-3.02,-0.82,0.8,1.88
2022-01-31 10:32:25.6430,-0.394,1.109,-0.67,-10.34,-0.04,-3.02,-0.57,0.91,0.61
2022-01-31 10:32:25.6530,-0.252,1.085,-0.58,-10.34,-0.04,-3.02,-0.5,0.79,-0.55
Time,0.018,1.066,-0.44,-10.34,-0.04,-3.02,-0.65,0.51,-1.42
2022-01-31 10:32:25.6730,0.17,0.984,-0.316,-10.34,-0.04,-3.02,-1.01,0.35,-2.08
2022-01-31 10:32:25.6830,0.23,0.771,-0.226,-10.34,-0.04,-3.02,-1.35,0.51,-2.76
2022-01-31 10:32:25.6940,0.415,0.501,-0.28,-10.34,-0.04,-3.02,-1.47,0.72,-3.31
2022-01-31 10:32:25.7040,0.692,0.198,-0.378,-10.34,-0.04,-3.02,-1.45,0.64,-3.56
2022-01-31 10:32:25.7170,0.67,0.26,-0.222,-10.34,-0.04,-3.02,-1.34,0.96,-4.08
2022-01-31 10:32:25.7240,0.741,0.361,0.013,-10.34,-0.04,-3.02,-1.16,2.23,-4.69
2022-01-31 10:32:25.7340,0.865,0.535,0.105,-10.34,-0.04,-3.02,-0.81,4.24,-5.16
2022-01-31 10:32:25.7440,0.872,0.563,0.153,-10.34,-0.04,-3.02,-0.32,5.78,-5.55
Time,0.83,0.439,0.251,-10.34,-0.04,-3.02,0.33,6.95,-6.07
2022-01-31 10:32:25.7640,0.932,0.508,0.263,-10.34,-0.04,-3.02,1.14,7.83,-6.64
2022-01-31 10:32:25.7740,1.243,0.633,0.121,-10.34,-0.04,-3.02,1.9,7.91,-6.78
2022-01-31 10:32:25.7840,1.461,0.681,0.033,-10.34,-0.04,-3.02,2.34,7.12,-6.38
2022-01-31 10:32:25.7940,1.713,0.799,-0.047,-10.34,-0.04,-3.02,2.48,5.44,-5.63
2022-01-31 10:32:25.8050,1.893,0.929,-0.009,-10.34,-0.04,-3.02,2.31,3.15,-4.69
2022-01-31 10:32:25.8150,1.73,0.927,0.033,-10.34,-0.04,-3.02,1.9,0.52,-3.75
2022-01-31 10:32:25.8250,1.435,0.832,0.254,-10.34,-0.04,-3.02,1.29,-1.35,-3.02
2022-01-31 10:32:25.8350,1.183,0.714,0.504,-10.34,-0.04,-3.02,0.6,-2.05,-2.63
2022-01-31 10:32:25.8470,1.033,0.601,0.532,-10.34,-0.04,-3.02,0.0,-2.01,-2.49
2022-01-31 10:32:25.8550,0.971,0.528,0.268,-10.34,-0.04,-3.02,-0.34,-2.11,-2.48
2022-01-31 10:32:25.8650,0.923,0.477,-0.015,-10.34,-0.04,-3.02,-0.42,-2.55,-2.48
2022-01-31 10:32:25.8750,0.877,0.442,-0.221,-10.34,-0.04,-3.02,-0.25,-3.1,-2.38
2022-01-31 10:32:25.8850,0.883,0.484,-0.376,-10.34,-0.04,-3.02,0.29,-3.18,-2.03
2022-01-31 10:32:25.8970,0.94,0.452,-0.312,-10.34,-0.04,-3.02,0.82,-3.04,-1.4
2022-01-31 10:32:25.9050,0.889,0.428,-0.172,-10.34,-0.04,-3.02,1.13,-2.97,-0.64
2022-01-31 10:32:25.9150,0.753,0.532,0.011,-10.34,-0.04,-3.02,1.14,-3.07,0.13
2022-01-31 10:32:25.9250,0.56,0.934,0.346,-10.34,-0.04,-3.02,0.95,-2.53,0.48
2022-01-31 10:32:25.9350,0.307,1.296,0.375,-10.34,-0.04,-3.02,0.65,-1.97,0.25
2022-01-31 10:32:25.9460,0.081,1.299,0.15,-10.34,-0.04,-3.02,0.38,-1.7,-0.04
2022-01-31 10:32:25.9560,0.072,1.04,-0.083,-10.34,-0.04,-3.02,0.35,-1.49,-0.01
2022-01-31 10:32:25.9660,0.167,0.814,-0.128,-10.34,-0.04,-3.02,0.51,-0.96,0.22
2022-01-31 10:32:25.9760,0.259,0.72,-0.094,-10.34,-0.04,-3.02,0.72,-0.22,0.4
2022-01-31 10:32:25.9880,0.359,0.68,-0.084,-10.34,-0.04,-3.02,0.85,0.39,0.52
2022-01-31 10:32:25.9960,0.405,0.629,-0.093,-10.34,-0.04,-3.02,0.9,0.82,0.7
2022-01-31 10:32:26.0060,0.421,0.615,-0.104,-10.34,-0.04,-3.02,0.96,1.26,0.95
2022-01-31 10:32:26.0160,0.419,0.75,-0.163,-10.34,-0.04,-3.02,1.08,1.64,1.11
Time,0.315,0.882,-0.244,-10.34,-0.04,-3.02,1.26,1.89,0.96
2022-01-31 10:32:26.0360,0.269,0.927,-0.291,-10.34,-0.04,-3.02,1.43,2.04,0.62
2022-01-31 10:32:26.0460,0.361,0.878,-0.195,-10.34,-0.04,-3.02,1.57,2.47,0.32
2022-01-31 10:32:26.0560,0.479,0.802,-0.164,-10.34,-0.04,-3.02,1.73,3.08,0.1
2022-01-31 10:32:26.0660,0.654,0.89,-0.596,-10.34,-0.04,-3.02,2.16,2.73,-0.16
2022-01-31 10:32:26.0660,1.133,0.918,-0.651,-10.34,-0.04,-3.02,2.67,2.27,-0.18
2022-01-31 10:32:54.1450,1.583,0.846,-0.577,-10.34,-0.04,-3.02,3.09,1.64,0.01
2022-01-31 10:32:26.0770,1.974,0.558,-0.425,-10.34,-0.04,-3.02,3.2,0.79,0.53
2022-01-31 10:32:54.1630,2.232,0.206,-0.265,-10.34,-0.04,-3.02,2.97,-0.1,1.31
2022-01-31 10:32:54.1240,2.371,-0.018,-0.042,-10.34,-0.04,-3.02,2.4,-0.64,2.11
2022-01-31 10:32:54.1630,2.542,-0.156,0.21,-10.34,-0.04,-3.02,1.54,-0.65,2.83
2022-01-31 10:32:54.1530,2.61,-0.274,0.617,-10.34,-0.04,-3.02,0.48,0.41,3.44
2022-01-31 10:32:54.1740,2.371,-0.302,0.848,-10.34,-0.04,-3.02,-0.77,1.88,3.79
2022-01-31 10:32:54.1800,2.007,-0.227,0.943,-10.34,-0.04,-3.02,-2.21,3.24,3.89
2022-01-31 10:32:54.1910,1.727,0.149,1.093,-10.34,-0.04,-3.02,-3.99,4.35,3.72
2022-01-31 10:32:54.1940,1.344,0.865,1.172,-10.34,-0.04,-3.02,-5.92,5.24,2.99
2022-01-31 10:32:54.1960,0.957,1.309,0.942,-10.34,-0.04,-3.02,-7.3,5.62,2.04
2022-01-31 10:32:54.1780,0.721,1.586,0.37,-10.34,-0.04,-3.02,-7.84,5.03,1.37
2022-01-31 10:32:54.1840,0.494,1.816,-0.349,-10.34,-0.04,-3.02,-7.44,3.3,1.28
2022-01-31 10:32:54.1970,0.223,1.934,-0.963,-10.34,-0.04,-3.02,-6.04,0.8,1.79
Time,-0.092,1.891,-1.371,-10.34,-0.04,-3.02,-3.69,-1.47,2.51
2022-01-31 10:32:54.2010,-0.281,1.743,-1.273,-10.34,-0.04,-3.02,-1.18,-2.83,2.86
2022-01-31 10:32:54.2010,0.004,1.318,-0.761,-10.34,-0.04,-3.02,0.43,-3.37,2.77
2022-01-31 10:32:54.2080,0.369,0.831,-0.173,-10.34,-0.04,-3.02,0.76,-3.71,2.41
2022-01-31 10:32:54.2050,0.473,0.571,0.409,-10.34,-0.04,-3.02,-0.09,-3.68,1.88
2022-01-31 10:32:54.2080,0.394,0.49,0.864,-10.34,-0.04,-3.02,-1.28,-2.45,1.46
2022-01-31 10:32:54.2100,0.318,0.425,1.026,-10.34,-0.04,-3.02,-2.17,-0.4,1.38
2022-01-31 10:32:54.2100,0.345,0.326,0.891,-10.34,-0.04,-3.02,-2.82,1.2,1.39
2022-01-31 10:32:54.2120,0.65,0.297,0.361,-10.34,-0.04,-3.02,-3.05,1.16,1.35
2022-01-31 10:32:54.2170,0.565,0.698,0.362,-10.34,-0.04,-3.02,-2.45,1.45,0.84
2022-01-31 10:32:54.2130,0.76,0.799,0.001,-10.34,-0.04,-3.02,-1.77,0.89,0.36
2022-01-31 10:32:54.2200,1.079,0.686,0.003,-10.34,-0.04,-3.02,-1.31,0.41,0.25
2022-01-31 10:32:54.2240,1.257,0.572,0.242,-10.34,-0.04,-3.02,-1.18,0.14,0.33
2022-01-31 10:32:54.2240,1.253,0.609,0.134,-10.34,-0.04,-3.02,-0.93,-0.06,0.35
2022-01-31 10:32:54.2240,1.186,0.488,-0.141,-10.34,-0.04,-3.02,-0.28,-0.51,0.44
Time,0.968,0.331,-0.17,-10.34,-0.04,-3.02,0.47,-1.01,0.45
2022-01-31 10:32:54.2300,0.832,0.234,0.273,-10.34,-0.04,-3.02,0.93,-0.55,0.44
2022-01-31 10:32:54.2290,0.696,0.273,0.755,-10.34,-0.04,-3.02,0.71,0.41,0.43
2022-01-31 10:32:54.2310,0.451,0.408,0.554,-10.34,-0.04,-3.02,0.27,0.98,0.4
2022-01-31 10:32:54.2340,0.261,0.295,0.154,-10.34,-0.04,-3.02,0.31,1.3,0.33
2022-01-31 10:32:54.2330,0.069,0.299,-0.14,-10.34,-0.04,-3.02,0.75,1.24,-0.04
2022-01-31 10:32:54.2380,-0.055,0.346,-0.191,-10.34,-0.04,-3.02,1.31,1.12,-0.55
2022-01-31 10:32:54.2350,-0.013,0.327,-0.013,-10.34,-0.04,-3.02,1.7,1.4,-0.97
Time,0.182,0.309,0.155,-10.34,-0.04,-3.02,2.03,1.88,-1.24
2022-01-31 10:32:54.2380,0.348,0.332,0.247,-10.34,-0.04,-3.02,2.3,2.36,-1.41
Time,0.424,0.34,0.297,-10.34,-0.04,-3.02,2.45,2.84,-1.6
2022-01-31 10:32:54.2430,0.45,0.311,0.275,-10.34,-0.04,-3.02,2.57,2.89,-1.83
2022-01-31 10:32:54.2440,0.371,0.428,0.3,-10.34,-0.04,-3.02,2.6,2.7,-2.13
2022-01-31 10:32:54.2450,0.289,0.568,0.336,-10.34,-0.04,-3.02,2.54,2.72,-2.3
2022-01-31 10:32:54.2470,0.243,0.648,0.277,-10.34,-0.04,-3.02,2.55,2.81,-2.37
2022-01-31 10:32:54.2490,0.412,0.694,0.139,-10.34,-0.04,-3.02,3.09,2.53,-2.63
Time,0.859,0.703,0.295,-10.34,-0.04,-3.02,3.67,2.93,-2.8
2022-01-31 10:32:54.2500,1.302,0.608,0.421,-10.34,-0.04,-3.02,3.88,3.73,-2.44
2022-01-31 10:32:54.2500,1.493,0.542,0.341,-10.34,-0.04,-3.02,4.0,3.87,-1.84
2022-01-31 10:32:54.2550,1.545,0.552,0.328,-10.34,-0.04,-3.02,4.09,3.17,-1.34
2022-01-31 10:32:54.2580,1.497,0.664,0.508,-10.34,-0.04,-3.02,3.95,2.22,-1.09
2022-01-31 10:32:54.2580,1.419,0.703,0.713,-10.34,-0.04,-3.02,3.59,1.42,-0.94
2022-01-31 10:32:54.2610,1.379,0.621,0.901,-10.34,-0.04,-3.02,3.15,1.05,-0.66
2022-01-31 10:32:54.2640,1.379,0.52,1.023,-10.34,-0.04,-3.02,2.55,0.95,-0.24
2022-01-31 10:32:54.2840,1.355,0.508,1.094,-10.34,-0.04,-3.02,1.81,0.98,0.12
Time,1.328,0.513,1.083,-10.34,-0.04,-3.02,1.1,0.98,0.45
2022-01-31 10:32:54.2890,1.237,0.559,1.03,-10.34,-0.04,-3.02,0.56,0.94,0.7
2022-01-31 10:32:54.2830,1.089,0.657,0.944,-10.34,-0.04,-3.02,0.23,0.75,0.83
2022-01-31 10:32:54.2880,0.957,0.726,0.814,-10.34,-0.04,-3.02,0.0,0.16,0.85
2022-01-31 10:32:54.2900,0.792,0.778,0.723,-10.34,-0.04,-3.02,-0.15,-0.69,0.76
Time,0.629,0.726,0.671,-10.34,-0.04,-3.02,-0.24,-1.55,0.62
2022-01-31 10:32:54.3030,0.547,0.649,0.666,-10.34,-0.04,-3.02,-0.37,-2.23,0.54
Time,0.492,0.661,0.643,-10.34,-0.04,-3.02,-0.54,-2.65,0.45
2022-01-31 10:32:54.3080,0.465,0.722,0.612,-10.34,-0.04,-3.02,-0.77,-2.78,0.32
2022-01-31 10:32:54.3110,0.444,0.781,0.487,-10.34,-0.04,-3.02,-0.95,-2.79,0.17
2022-01-31 10:32:54.3120,0.406,0.839,0.266,-10.34,-0.04,-3.02,-0.92,-2.79,-0.04
2022-01-31 10:32:54.3130,0.347,0.876,0.085,-10.34,-0.04,-3.02,-0.92,-2.79,-0.04
2022-01-31 10:32:54.3150,0.339,0.897,-0.088,-10.34,-0.04,-3.02,-0.28,-2.54,-0.67
2022-01-31 10:32:54.3180,0.287,0.95,-0.126,-10.34,-0.04,-3.02,0.18,-2.24,-1.16
2022-01-31 10:32:54.3220,0.304,0.878,-0.171,-10.34,-0.04,-3.02,0.72,-1.77,-1.68
2022-01-31 10:32:54.3220,0.335,0.817,-0.232,-10.34,-0.04,-3.02,1.25,-1.47,-2.26
Time,0.348,0.815,-0.24,-10.34,-0.04,-3.02,1.65,-1.36,-2.85
2022-01-31 10:32:54.3250,0.415,0.758,-0.165,-10.34,-0.04,-3.02,1.71,-0.95,-3.17
2022-01-31 10:32:54.3320,0.43,0.679,-0.171,-10.34,-0.04,-3.02,1.53,-0.07,-3.21
Time,0.356,0.545,-0.356,-10.34,-0.04,-3.02,1.55,1.14,-3.19
2022-01-31 10:32:54.3290,0.42,0.655,-0.469,-10.34,-0.04,-3.02,1.84,1.8,-3.08
2022-01-31 10:32:54.3320,0.477,0.834,-0.482,-10.34,-0.04,-3.02,2.29,1.93,-2.92
Time,0.436,0.844,-0.398,-10.34,-0.04,-3.02,2.58,1.79,-2.67
Time,0.384,0.712,-0.332,-10.34,-0.04,-3.02,2.72,1.52,-2.32
2022-01-31 10:32:54.3380,0.353,0.521,-0.189,-10.34,-0.04,-3.02,2.8,1.64,-1.71
2022-01-31 10:32:54.3420,0.352,0.815,-0.353,-10.34,-0.04,-3.02,2.6,0.99,-1.42
2022-01-31 10:32:54.3410,0.373,1.191,-0.385,-10.34,-0.04,-3.02,1.9,-0.38,-1.71
2022-01-31 10:32:54.3430,0.528,1.168,-0.073,-10.34,-0.04,-3.02,1.15,-1.03,-2.09
2022-01-31 10:32:54.3470,0.682,0.946,0.151,-10.34,-0.04,-3.02,0.73,-0.62,-2.22
2022-01-31 10:32:54.3490,0.764,0.776,0.152,-10.34,-0.04,-3.02,0.51,-0.0,-2.02
Time,0.761,0.717,0.112,-10.34,-0.04,-3.02,0.28,0.44,-1.73
Time,0.696,0.691,0.159,-10.34,-0.04,-3.02,0.08,0.96,-1.47
2022-01-31 10:32:54.3540,0.597,0.67,0.237,-10.34,-0.04,-3.02,-0.1,1.66,-1.33
2022-01-31 10:32:54.3590,0.52,0.657,0.29,-10.34,-0.04,-3.02,-0.23,2.53,-1.27
2022-01-31 10:32:54.3570,0.475,0.647,0.301,-10.34,-0.04,-3.02,-0.33,3.45,-1.19
2022-01-31 10:32:54.3630,0.433,0.653,0.264,-10.34,-0.04,-3.02,-0.4,4.26,-1.08
2022-01-31 10:32:54.3600,0.362,0.764,0.116,-10.34,-0.04,-3.02,-0.53,4.52,-1.06
2022-01-31 10:32:54.3620,0.318,0.943,-0.057,-10.34,-0.04,-3.02,-0.77,4.04,-1.2
2022-01-31 10:32:54.3530,0.326,0.991,-0.137,-10.34,-0.04,-3.02,-0.89,3.29,-1.31
2022-01-31 10:32:54.3640,0.339,0.98,-0.156,-10.34,-0.04,-3.02,-0.75,2.57,-1.32
2022-01-31 10:32:54.3650,0.358,0.953,-0.092,-10.34,-0.04,-3.02,-0.39,2.09,-1.21
2022-01-31 10:32:54.3680,0.356,0.951,-0.033,-10.34,-0.04,-3.02,0.07,1.74,-1.01
2022-01-31 10:32:54.3700,0.337,0.964,-0.002,-10.34,-0.04,-3.02,0.54,1.33,-0.79
2022-01-31 10:32:54.3710,0.314,0.999,0.032,-10.34,-0.04,-3.02,0.89,0.79,-0.59
2022-01-31 10:32:54.3740,0.289,1.013,0.063,-10.34,-0.04,-3.02,1.09,0.15,-0.47
2022-01-31 10:32:54.3790,0.26,1.008,0.106,-10.34,-0.04,-3.02,1.15,-0.46,-0.52
2022-01-31 10:32:54.3770,0.247,0.985,0.173,-10.34,-0.04,-3.02,1.11,-0.85,-0.71
2022-01-31 10:32:54.3760,0.247,0.901,0.187,-10.34,-0.04,-3.02,1.03,-1.07,-0.85
Time,0.242,0.818,0.224,-10.34,-0.04,-3.02,0.97,-1.05,-0.83
2022-01-31 10:32:54.3860,0.241,0.855,0.248,-10.34,-0.04,-3.02,0.88,-0.91,-0.83
2022-01-31 10:32:54.3830,0.246,0.942,0.212,-10.34,-0.04,-3.02,0.71,-0.89,-0.98
2022-01-31 10:32:54.3850,0.277,0.986,0.174,-10.34,-0.04,-3.02,0.54,-0.95,-1.18
Time,0.314,0.969,0.158,-10.34,-0.04,-3.02,0.47,-0.88,-1.3
2022-01-31 10:32:54.3880,0.336,0.988,0.15,-10.34,-0.04,-3.02,0.58,-0.6,-1.37
2022-01-31 10:32:54.3910,0.374,1.035,0.159,-10.34,-0.04,-3.02,0.78,-0.18,-1.43
2022-01-31 10:32:54.3930,0.429,1.107,0.166,-10.34,-0.04,-3.02,0.94,0.16,-1.54
Time,0.465,1.221,0.169,-10.34,-0.04,-3.02,1.01,0.36,-1.77
2022-01-31 10:32:54.4070,0.445,1.232,0.148,-10.34,-0.04,-3.02,1.02,0.38,-2.1
2022-01-31 10:32:54.4070,0.385,1.185,0.17,-10.34,-0.04,-3.02,1.06,0.39,-2.37
2022-01-31 10:32:54.4040,0.305,1.114,0.216,-10.34,-0.04,-3.02,1.16,0.51,-2.52
2022-01-31 10:32:54.4060,0.238,1.086,0.254,-10.34,-0.04,-3.02,1.31,0.67,-2.58
2022-01-31 10:32:54.4120,0.174,1.081,0.268,-10.34,-0.04,-3.02,1.53,0.79,-2.6
2022-01-31 10:32:54.4110,0.066,1.109,0.409,-10.34,-0.04,-3.02,2.28,1.66,-2.58
2022-01-31 10:32:54.4150,-0.032,1.123,0.195,-10.34,-0.04,-3.02,3.13,1.93,-2.49
Time,-0.078,1.129,-0.033,-10.34,-0.04,-3.02,3.64,1.3,-2.45
2022-01-31 10:32:54.4200,-0.118,1.161,-0.101,-10.34,-0.04,-3.02,3.78,0.14,-2.5
2022-01-31 10:32:54.4240,-0.134,1.13,-0.067,-10.34,-0.04,-3.02,3.6,-1.14,-2.57
2022-01-31 10:32:54.4270,-0.11,0.934,0.184,-10.34,-0.04,-3.02,3.17,-1.64,-2.31
2022-01-31 10:32:54.4280,-0.078,0.805,0.337,-10.34,-0.04,-3.02,2.49,-1.54,-1.84
2022-01-31 10:32:54.4330,-0.083,0.805,0.358,-10.34,-0.04,-3.02,1.52,-1.35,-1.48
2022-01-31 10:32:54.4340,-0.126,0.764,0.4,-10.34,-0.04,-3.02,0.51,-0.83,-1.2
2022-01-31 10:32:54.4370,-0.152,0.672,0.298,-10.34,-0.04,-3.02,-0.22,-0.23,-1.17
2022-01-31 10:32:54.4400,-0.185,0.682,0.156,-10.34,-0.04,-3.02,-0.62,0.26,-1.4
2022-01-31 10:32:54.4410,-0.22,0.831,0.102,-10.34,-0.04,-3.02,-1.0,0.71,-1.64
2022-01-31 10:32:54.4530,-0.226,0.952,0.02,-10.34,-0.04,-3.02,-1.41,1.19,-1.82
2022-01-31 10:32:54.4500,-0.186,1.017,-0.101,-10.34,-0.04,-3.02,-1.79,1.57,-1.85
2022-01-31 10:32:54.4470,-0.127,1.053,-0.217,-10.34,-0.04,-3.02,-2.13,1.84,-1.72
2022-01-31 10:32:54.4520,-0.135,1.128,-0.294,-10.34,-0.04,-3.02,-2.53,1.8,-1.42
Time,-0.578,1.417,-0.263,-10.34,-0.04,-3.02,-3.27,0.41,-1.16
2022-01-31 10:32:54.4570,-0.993,1.661,-0.256,-10.34,-0.04,-3.02,-4.19,-1.89,-0.95
Time,-0.799,1.636,-0.405,-10.34,-0.04,-3.02,-4.75,-3.6,-0.47
2022-01-31 10:32:54.4640,-0.531,1.622,-0.553,-10.34,-0.04,-3.02,-4.92,-4.69,0.18
2022-01-31 10:32:54.4630,-0.406,1.678,-0.735,-10.34,-0.04,-3.02,-4.7,-5.61,0.74
2022-01-31 10:32:54.4670,-0.384,1.75,-0.881,-10.34,-0.04,-3.02,-4.08,-6.43,1.03
2022-01-31 10:32:54.4700,-0.386,1.708,-0.811,-10.34,-0.04,-3.02,-3.35,-6.82,1.15
2022-01-31 10:32:54.4750,-0.39,1.557,-0.694,-10.34,-0.04,-3.02,-2.63,-6.94,1.21
Time,-0.364,1.337,-0.534,-10.34,-0.04,-3.02,-2.0,-6.91,1.25
2022-01-31 10:32:54.4770,-0.302,1.083,-0.358,-10.34,-0.04,-3.02,-1.5,-6.76,1.3
2022-01-31 10:32:54.4800,-0.265,0.879,-0.222,-10.34,-0.04,-3.02,-1.1,-6.64,1.3
2022-01-31 10:32:54.4810,-0.291,0.696,0.009,-10.34,-0.04,-3.02,-0.7,-7.4,1.17
2022-01-31 10:32:54.4850,-0.283,0.601,0.459,-10.34,-0.04,-3.02,-0.25,-7.89,0.96
2022-01-31 10:32:54.4920,-0.215,0.628,0.908,-10.34,-0.04,-3.02,0.19,-7.22,0.7
2022-01-31 10:32:54.4870,-0.151,0.667,1.115,-10.34,-0.04,-3.02,0.54,-5.32,0.5
2022-01-31 10:32:54.4910,-0.121,0.657,1.03,-10.34,-0.04,-3.02,0.65,-2.94,0.45
2022-01-31 10:32:54.4930,-0.101,0.642,0.832,-10.34,-0.04,-3.02,0.55,-0.61,0.55
2022-01-31 10:32:54.4940,-0.106,0.639,0.604,-10.34,-0.04,-3.02,0.36,1.4,0.64
2022-01-31 10:32:54.4970,-0.106,0.63,0.385,-10.34,-0.04,-3.02,0.15,2.98,0.63
2022-01-31 10:32:54.5000,-0.123,0.637,0.183,-10.34,-0.04,-3.02,-0.02,4.02,0.5
2022-01-31 10:32:54.5020,-0.152,0.658,0.014,-10.34,-0.04,-3.02,-0.12,4.51,0.22
2022-01-31 10:32:54.5030,-0.159,0.667,-0.117,-10.34,-0.04,-3.02,-0.18,4.46,-0.1
2022-01-31 10:32:54.5060,-0.111,0.657,-0.235,-10.34,-0.04,-3.02,-0.27,3.8,-0.27
2022-01-31 10:32:54.5090,-0.086,0.675,-0.339,-10.34,-0.04,-3.02,-0.29,2.93,-0.32
2022-01-31 10:32:54.5070,-0.096,0.719,-0.417,-10.34,-0.04,-3.02,-0.22,1.98,-0.33
2022-01-31 10:32:54.5130,-0.098,0.736,-0.45,-10.34,-0.04,-3.02,-0.09,1.05,-0.33
Time,-0.076,0.72,-0.411,-10.34,-0.04,-3.02,0.08,0.31,-0.29
2022-01-31 10:32:54.5150,-0.066,0.675,-0.335,-10.34,-0.04,-3.02,0.24,-0.26,-0.24
2022-01-31 10:32:54.5200,-0.1,0.643,-0.248,-10.34,-0.04,-3.02,0.39,-0.69,-0.24
Time,-0.153,0.625,-0.174,-10.34,-0.04,-3.02,0.52,-1.0,-0.32
2022-01-31 10:32:54.5200,-0.204,0.642,-0.105,-10.34,-0.04,-3.02,0.63,-1.15,-0.46
2022-01-31 10:32:54.5250,-0.237,0.674,-0.018,-10.34,-0.04,-3.02,0.74,-1.17,-0.61
2022-01-31 10:32:54.5260,-0.253,0.678,0.072,-10.34,-0.04,-3.02,0.9,-1.12,-0.69
2022-01-31 10:32:54.5270,-0.273,0.715,0.196,-10.34,-0.04,-3.02,1.2,-0.94,-0.71
2022-01-31 10:32:54.5300,-0.296,0.787,0.378,-10.34,-0.04,-3.02,1.67,-0.5,-0.7
Time,-0.32,0.906,0.652,-10.34,-0.04,-3.02,2.1,0.06,-0.69
2022-01-31 10:32:54.5320,-0.271,1.103,1.318,-10.34,-0.04,-3.02,1.78,0.15,-0.61
2022-01-31 10:32:54.5380,-0.126,1.339,1.825,-10.34,-0.04,-3.02,0.84,0.08,-0.37
Time,-0.032,1.567,1.545,-10.34,-0.04,-3.02,0.17,0.25,-0.13
2022-01-31 10:32:54.5390,-0.002,1.72,1.043,-10.34,-0.04,-3.02,-0.06,0.57,-0.02
2022-01-31 10:32:54.5390,0.059,1.689,0.681,-10.34,-0.04,-3.02,-0.02,0.78,0.01
2022-01-31 10:32:54.5440,0.191,1.514,0.484,-10.34,-0.04,-3.02,0.13,0.73,0.1
2022-01-31 10:32:54.5450,0.311,1.29,0.366,-10.34,-0.04,-3.02,0.32,0.46,0.28
2022-01-31 10:32:54.5450,0.328,1.05,0.264,-10.34,-0.04,-3.02,0.49,-0.03,0.47
2022-01-31 10:32:54.5500,0.226,0.844,0.246,-10.34,-0.04,-3.02,0.56,-0.53,0.57
2022-01-31 10:32:54.5510,0.099,0.713,0.337,-10.34,-0.04,-3.02,0.47,-0.81,0.56
2022-01-31 10:32:54.5510,-0.011,0.674,0.447,-10.34,-0.04,-3.02,0.3,-0.82,0.51
2022-01-31 10:32:54.5560,-0.163,0.805,0.517,-10.34,-0.04,-3.02,0.14,-0.67,0.44
2022-01-31 10:32:54.5580,-0.331,1.063,0.499,-10.34,-0.04,-3.02,0.04,-0.45,0.36
2022-01-31 10:32:54.5590,-0.488,1.327,0.458,-10.34,-0.04,-3.02,-0.04,-0.27,0.19
2022-01-31 10:32:54.5640,-0.587,1.522,0.36,-10.34,-0.04,-3.02,-0.12,-0.12,-0.04
2022-01-31 10:32:54.5660,-0.552,1.54,0.043,-10.34,-0.04,-3.02,-0.15,0.15,-0.21
2022-01-31 10:32:54.5700,-0.395,1.416,-0.296,-10.34,-0.04,-3.02,-0.14,0.79,-0.19
2022-01-31 10:32:54.5680,-0.312,1.246,-0.416,-10.34,-0.04,-3.02,-0.08,1.38,-0.14
2022-01-31 10:32:54.5790,-0.307,1.019,-0.433,-10.34,-0.04,-3.02,0.03,1.5,-0.19
2022-01-31 10:32:54.5750,-0.26,0.793,-0.385,-10.34,-0.04,-3.02,0.13,1.39,-0.25
2022-01-31 10:32:54.5750,-0.207,0.62,-0.318,-10.34,-0.04,-3.02,0.18,1.25,-0.3
2022-01-31 10:32:54.5910,-0.158,0.506,-0.265,-10.34,-0.04,-3.02,0.24,1.12,-0.32
2022-01-31 10:32:54.5840,-0.131,0.462,-0.236,-10.34,-0.04,-3.02,0.3,0.99,-0.32
2022-01-31 10:32:54.5930,-0.142,0.512,-0.239,-10.34,-0.04,-3.02,0.38,0.89,-0.35
2022-01-31 10:32:54.5930,-0.178,0.67,-0.262,-10.34,-0.04,-3.02,0.49,0.83,-0.42
2022-01-31 10:32:54.5960,-0.208,0.85,-0.285,-10.34,-0.04,-3.02,0.59,0.84,-0.5
2022-01-31 10:32:54.5950,-0.23,1.001,-0.296,-10.34,-0.04,-3.02,0.67,0.91,-0.57
Time,-0.236,1.114,-0.301,-10.34,-0.04,-3.02,0.73,1.02,-0.62
2022-01-31 10:32:54.5980,-0.228,1.174,-0.303,-10.34,-0.04,-3.02,0.78,1.15,-0.63
Time,-0.217,1.178,-0.309,-10.34,-0.04,-3.02,0.84,1.26,-0.61
2022-01-31 10:32:54.6020,-0.198,1.144,-0.324,-10.34,-0.04,-3.02,0.94,1.3,-0.59
2022-01-31 10:32:54.6030,-0.168,1.091,-0.329,-10.34,-0.04,-3.02,1.09,1.25,-0.57
2022-01-31 10:32:54.6060,-0.128,1.045,-0.327,-10.34,-0.04,-3.02,1.27,1.15,-0.53
Time,-0.102,1.019,-0.322,-10.34,-0.04,-3.02,1.46,1.0,-0.47
2022-01-31 10:32:54.6090,-0.058,0.996,-0.307,-10.34,-0.04,-3.02,1.64,0.79,-0.37
2022-01-31 10:32:54.6110,0.017,0.963,-0.297,-10.34,-0.04,-3.02,1.79,0.13,-0.21
2022-01-31 10:32:54.6140,0.092,0.917,-0.266,-10.34,-0.04,-3.02,1.86,-0.97,0.01
2022-01-31 10:32:54.6150,0.123,0.877,-0.207,-10.34,-0.04,-3.02,1.84,-2.12,0.27
2022-01-31 10:32:54.6170,0.101,0.85,-0.14,-10.34,-0.04,-3.02,1.75,-2.87,0.56
2022-01-31 10:32:54.6200,0.052,0.848,-0.109,-10.34,-0.04,-3.02,1.68,-3.2,0.78
Time,-0.015,0.873,-0.115,-10.34,-0.04,-3.02,1.65,-3.27,0.88
2022-01-31 10:32:54.6230,-0.076,0.894,-0.131,-10.34,-0.04,-3.02,1.69,-3.21,0.82
2022-01-31 10:32:54.6260,-0.114,0.895,-0.124,-10.34,-0.04,-3.02,1.73,-3.05,0.66
2022-01-31 10:32:54.6300,-0.141,0.91,-0.108,-10.34,-0.04,-3.02,1.77,-2.83,0.45
Time,-0.163,0.936,-0.092,-10.34,-0.04,-3.02,1.78,-2.56,0.23
Time,-0.179,0.962,-0.05,-10.34,-0.04,-3.02,1.73,-2.3,0.04
2022-01-31 10:32:54.6360,-0.204,0.983,0.009,-10.34,-0.04,-3.02,1.6,-2.17,-0.09
2022-01-31 10:32:54.6330,-0.236,1.001,0.081,-10.34,-0.04,-3.02,1.36,-2.15,-0.18
2022-01-31 10:32:54.6340,-0.255,1.006,0.131,-10.34,-0.04,-3.02,1.09,-2.11,-0.26
2022-01-31 10:32:54.6370,-0.266,1.006,0.147,-10.34,-0.04,-3.02,0.84,-1.97,-0.35
Time,-0.27,0.991,0.146,-10.34,-0.04,-3.02,0.63,-1.74,-0.46
2022-01-31 10:32:54.6380,-0.262,0.966,0.13,-10.34,-0.04,-3.02,0.49,-1.46,-0.59
2022-01-31 10:32:54.6380,-0.239,0.933,0.105,-10.34,-0.04,-3.02,0.4,-1.14,-0.7
2022-01-31 10:32:54.6400,-0.217,0.92,0.065,-10.34,-0.04,-3.02,0.38,-0.79,-0.78
2022-01-31 10:32:54.6440,-0.198,0.924,0.016,-10.34,-0.04,-3.02,0.4,-0.43,-0.83
Time,-0.195,0.942,-0.027,-10.34,-0.04,-3.02,0.45,-0.06,-0.86
2022-01-31 10:32:54.6460,-0.203,0.988,-0.064,-10.34,-0.04,-3.02,0.54,0.3,-0.9
Time,-0.2,1.045,-0.094,-10.34,-0.04,-3.02,0.65,0.63,-0.9
2022-01-31 10:32:54.6560,-0.186,1.095,-0.115,-10.34,-0.04,-3.02,0.77,0.89,-0.87
2022-01-31 10:32:54.6540,-0.156,1.122,-0.128,-10.34,-0.04,-3.02,0.88,1.05,-0.79
2022-01-31 10:32:54.6600,-0.1,1.128,-0.127,-10.34,-0.04,-3.02,0.95,1.0,-0.68
2022-01-31 10:32:54.6570,-0.03,1.126,-0.106,-10.34,-0.04,-3.02,0.95,0.65,-0.52
2022-01-31 10:32:54.6590,0.048,1.131,-0.07,-10.34,-0.04,-3.02,0.81,-0.03,-0.33
2022-01-31 10:32:54.6600,0.099,1.135,-0.044,-10.34,-0.04,-3.02,0.54,-0.78,-0.13
2022-01-31 10:32:54.6620,0.092,1.128,-0.033,-10.34,-0.04,-3.02,0.2,-1.23,-0.0
2022-01-31 10:32:54.6650,0.07,1.129,-0.043,-10.34,-0.04,-3.02,-0.12,-1.36,0.03
2022-01-31 10:32:54.6660,0.065,1.145,-0.068,-10.34,-0.04,-3.02,-0.39,-1.34,-0.0
2022-01-31 10:32:54.6680,0.073,1.171,-0.093,-10.34,-0.04,-3.02,-0.58,-1.38,-0.07
2022-01-31 10:32:54.6710,0.1,1.207,-0.104,-10.34,-0.04,-3.02,-0.68,-1.62,-0.13
Time,0.138,1.237,-0.061,-10.34,-0.04,-3.02,-0.74,-2.11,-0.13
2022-01-31 10:32:54.6720,0.172,1.242,0.035,-10.34,-0.04,-3.02,-0.83,-2.63,-0.03
2022-01-31 10:32:54.6750,0.192,1.244,0.135,-10.34,-0.04,-3.02,-0.93,-2.83,0.19
2022-01-31 10:32:54.6750,0.189,1.276,0.203,-10.34,-0.04,-3.02,-1.04,-2.62,0.49
Time,0.173,1.28,0.259,-10.34,-0.04,-3.02,-1.07,-2.08,0.75
2022-01-31 10:32:54.6790,0.155,1.209,0.332,-10.34,-0.04,-3.02,-1.07,-1.33,0.91
2022-01-31 10:32:54.6820,0.162,1.087,0.408,-10.34,-0.04,-3.02,-1.21,-0.65,1.07
2022-01-31 10:32:54.6850,0.165,0.954,0.459,-10.34,-0.04,-3.02,-1.58,-0.33,1.26
2022-01-31 10:32:54.6860,0.154,0.859,0.482,-10.34,-0.04,-3.02,-2.13,-0.31,1.47
2022-01-31 10:32:54.6880,0.11,0.83,0.451,-10.34,-0.04,-3.02,-2.67,-0.37,1.71
2022-01-31 10:32:54.6910,0.009,0.917,0.356,-10.34,-0.04,-3.02,-3.02,-0.35,1.96
2022-01-31 10:32:54.6910,-0.126,1.114,0.243,-10.34,-0.04,-3.02,-3.1,-0.19,2.12
2022-01-31 10:32:54.6910,-0.246,1.323,0.134,-10.34,-0.04,-3.02,-2.92,0.12,2.17
2022-01-31 10:32:54.6950,-0.313,1.446,0.033,-10.34,-0.04,-3.02,-2.64,0.55,2.1
2022-01-31 10:32:54.6990,-0.352,1.519,-0.034,-10.34,-0.04,-3.02,-2.37,1.06,1.95
2022-01-31 10:32:54.6970,-0.421,1.61,-0.084,-10.34,-0.04,-3.02,-2.11,1.63,1.75
2022-01-31 10:32:54.6990,-0.516,1.7,-0.145,-10.34,-0.04,-3.02,-1.84,2.19,1.53
2022-01-31 10:32:54.7040,-0.606,1.745,-0.24,-10.34,-0.04,-3.02,-1.51,2.6,1.28
2022-01-31 10:32:54.7060,-0.653,1.696,-0.345,-10.34,-0.04,-3.02,-1.14,2.77,1.07
2022-01-31 10:32:54.7060,-0.64,1.524,-0.403,-10.34,-0.04,-3.02,-0.8,2.63,0.95
2022-01-31 10:32:54.7110,-0.587,1.281,-0.387,-9.81,-0.13,-2.13,-0.57,2.14,0.91
2022-01-31 10:32:54.7120,-0.521,1.05,-0.274,-9.81,-0.13,-2.13,-0.52,1.24,0.89
2022-01-31 10:32:54.7120,-0.434,0.88,-0.045,-9.81,-0.13,-2.13,-0.83,-0.16,0.83
2022-01-31 10:32:54.7180,-0.318,0.805,0.076,-9.81,-0.13,-2.13,-1.26,-1.62,0.76
2022-01-31 10:32:54.7180,-0.271,0.812,0.084,-9.81,-0.13,-2.13,-1.51,-2.6,0.6
2022-01-31 10:32:54.7180,-0.245,0.818,0.084,-9.81,-0.13,-2.13,-1.58,-2.97,0.44
2022-01-31 10:32:54.7220,-0.205,0.802,0.077,-9.81,-0.13,-2.13,-1.49,-2.75,0.33
2022-01-31 10:32:54.7230,-0.14,0.784,0.048,-9.81,-0.13,-2.13,-1.22,-2.0,0.31
2022-01-31 10:32:54.7290,-0.054,0.751,0.015,-9.81,-0.13,-2.13,-0.87,-0.9,0.41
2022-01-31 10:32:54.7270,0.002,0.722,-0.04,-9.81,-0.13,-2.13,-0.47,0.31,0.53
Time,0.035,0.696,-0.088,-9.81,-0.13,-2.13,-0.07,1.53,0.62
2022-01-31 10:32:54.7300,0.095,0.664,-0.11,-9.81,-0.13,-2.13,0.25,2.45,0.71
Time,0.151,0.654,-0.098,-9.81,-0.13,-2.13,0.32,2.64,0.81
2022-01-31 10:32:54.7330,0.147,0.69,-0.155,-9.81,-0.13,-2.13,0.26,2.23,0.86
2022-01-31 10:32:54.7360,0.098,0.739,-0.236,-9.81,-0.13,-2.13,0.2,1.53,0.83
2022-01-31 10:32:54.7410,0.046,0.771,-0.271,-9.81,-0.13,-2.13,0.2,0.88,0.73
2022-01-31 10:32:54.7400,0.034,0.768,-0.254,-9.81,-0.13,-2.13,0.24,0.45,0.66
2022-01-31 10:32:54.7400,0.025,0.77,-0.208,-9.81,-0.13,-2.13,0.32,0.26,0.6
Time,-0.014,0.755,-0.15,-9.81,-0.13,-2.13,0.41,0.23,0.53
2022-01-31 10:32:54.7460,-0.078,0.716,-0.088,-9.81,-0.13,-2.13,0.47,0.33,0.41
2022-01-31 10:32:54.7460,-0.125,0.664,-0.032,-9.81,-0.13,-2.13,0.52,0.59,0.26
2022-01-31 10:32:54.7560,-0.151,0.606,0.002,-9.81,-0.13,-2.13,0.56,0.92,0.12
2022-01-31 10:32:54.7510,-0.182,0.559,0.019,-9.81,-0.13,-2.13,0.59,1.26,-0.01
2022-01-31 10:32:54.7520,-0.22,0.536,0.036,-9.81,-0.13,-2.13,0.61,1.57,-0.15
2022-01-31 10:32:54.7560,-0.245,0.53,0.044,-9.81,-0.13,-2.13,0.65,1.87,-0.28
2022-01-31 10:32:54.7580,-0.264,0.54,0.061,-9.81,-0.13,-2.13,0.72,2.16,-0.4
2022-01-31 10:32:54.7570,-0.272,0.577,0.091,-9.81,-0.13,-2.13,0.84,2.48,-0.5
2022-01-31 10:32:54.7600,-0.278,0.652,0.169,-9.81,-0.13,-2.13,0.97,2.79,-0.58
2022-01-31 10:32:54.7630,-0.298,0.786,0.338,-9.81,-0.13,-2.13,0.98,2.95,-0.67
2022-01-31 10:32:54.7640,-0.286,0.979,0.659,-9.81,-0.13,-2.13,0.67,2.76,-0.75
2022-01-31 10:32:54.7660,-0.165,1.241,1.112,-9.81,-0.13,-2.13,-0.11,2.05,-0.71
2022-01-31 10:32:54.7680,0.017,1.57,1.293,-9.81,-0.13,-2.13,-0.93,0.95,-0.5
2022-01-31 10:32:54.7750,0.102,1.864,1.068,-9.81,-0.13,-2.13,-1.15,-0.05,-0.28
2022-01-31 10:32:54.7710,0.103,1.945,0.801,-9.81,-0.13,-2.13,-0.73,-0.37,-0.14
2022-01-31 10:32:54.7740,0.209,1.737,0.778,-9.81,-0.13,-2.13,-0.17,-0.04,0.09
2022-01-31 10:32:54.7760,0.325,1.419,0.77,-9.81,-0.13,-2.13,0.23,0.53,0.43
2022-01-31 10:32:54.7790,0.323,1.169,0.655,-9.81,-0.13,-2.13,0.43,0.94,0.74
Time,0.179,1.008,0.525,-9.81,-0.13,-2.13,0.39,1.02,0.77
2022-01-31 10:32:54.7820,0.073,0.864,0.448,-9.81,-0.13,-2.13,0.17,0.91,0.61
2022-01-31 10:32:54.7890,0.029,0.729,0.419,-9.81,-0.13,-2.13,-0.17,0.76,0.4
2022-01-31 10:32:54.7880,-0.035,0.635,0.389,-9.81,-0.13,-2.13,-0.47,0.67,0.2
2022-01-31 10:32:54.7870,-0.159,0.651,0.351,-9.81,-0.13,-2.13,-0.61,0.72,-0.04
2022-01-31 10:32:54.7930,-0.314,0.857,0.262,-9.81,-0.13,-2.13,-0.53,0.83,-0.28
2022-01-31 10:32:54.7960,-0.452,1.198,0.078,-9.81,-0.13,-2.13,-0.22,0.89,-0.55
2022-01-31 10:32:54.7940,-0.499,1.513,-0.193,-9.81,-0.13,-2.13,0.29,0.88,-0.78
2022-01-31 10:32:54.7960,-0.431,1.588,-0.534,-9.81,-0.13,-2.13,0.76,0.83,-0.78
2022-01-31 10:32:54.8040,-0.325,1.411,-0.666,-9.81,-0.13,-2.13,0.93,0.81,-0.56
2022-01-31 10:32:54.8000,-0.262,1.182,-0.567,-9.81,-0.13,-2.13,0.82,0.63,-0.23
2022-01-31 10:32:54.8030,-0.281,1.008,-0.461,-9.81,-0.13,-2.13,0.62,0.26,-0.08
2022-01-31 10:32:54.8030,-0.304,0.874,-0.363,-9.81,-0.13,-2.13,0.48,-0.06,-0.13
Time,-0.287,0.74,-0.285,-9.81,-0.13,-2.13,0.41,-0.23,-0.26
2022-01-31 10:32:54.8090,-0.248,0.628,-0.222,-9.81,-0.13,-2.13,0.43,-0.28,-0.4
2022-01-31 10:32:54.8090,-0.213,0.582,-0.179,-9.81,-0.13,-2.13,0.49,-0.24,-0.47
2022-01-31 10:32:54.8170,-0.201,0.62,-0.154,-9.81,-0.13,-2.13,0.56,-0.11,-0.5
2022-01-31 10:32:54.8190,-0.213,0.731,-0.144,-9.81,-0.13,-2.13,0.63,0.09,-0.51
2022-01-31 10:32:54.8280,-0.234,0.854,-0.156,-9.81,-0.13,-2.13,0.73,0.27,-0.57
2022-01-31 10:32:54.8260,-0.24,0.954,-0.159,-9.81,-0.13,-2.13,0.81,0.49,-0.65
2022-01-31 10:32:54.8280,-0.233,1.039,-0.138,-9.81,-0.13,-2.13,0.83,0.81,-0.73
2022-01-31 10:32:54.8290,-0.215,1.107,-0.119,-9.81,-0.13,-2.13,0.78,1.23,-0.74
2022-01-31 10:32:54.8320,-0.205,1.155,-0.117,-9.81,-0.13,-2.13,0.7,1.65,-0.72
2022-01-31 10:32:54.8340,-0.19,1.199,-0.144,-9.81,-0.13,-2.13,0.65,1.9,-0.71
2022-01-31 10:32:54.8370,-0.136,1.213,-0.189,-9.81,-0.13,-2.13,0.69,1.71,-0.7
2022-01-31 10:32:54.8420,-0.063,1.178,-0.22,-9.81,-0.13,-2.13,0.8,1.06,-0.68
2022-01-31 10:32:54.8480,0.005,1.119,-0.205,-9.81,-0.13,-2.13,0.9,0.27,-0.57
2022-01-31 10:32:54.8450,0.048,1.046,-0.159,-9.81,-0.13,-2.13,0.98,-0.33,-0.34
2022-01-31 10:32:54.8530,0.058,0.979,-0.111,-9.81,-0.13,-2.13,1.0,-0.62,-0.07
2022-01-31 10:32:54.8490,0.041,0.931,-0.082,-9.81,-0.13,-2.13,0.97,-0.66,0.15
2022-01-31 10:32:54.8510,0.006,0.894,-0.079,-9.81,-0.13,-2.13,0.95,-0.56,0.29
2022-01-31 10:32:54.8560,-0.036,0.868,-0.102,-9.81,-0.13,-2.13,0.97,-0.44,0.34
2022-01-31 10:32:54.8540,-0.076,0.858,-0.13,-9.81,-0.13,-2.13,1.03,-0.35,0.34
2022-01-31 10:32:54.8570,-0.106,0.847,-0.155,-9.81,-0.13,-2.13,1.11,-0.28,0.34
2022-01-31 10:32:54.8610,-0.14,0.84,-0.177,-9.81,-0.13,-2.13,1.21,-0.28,0.35
2022-01-31 10:32:54.8610,-0.169,0.836,-0.184,-9.81,-0.13,-2.13,1.3,-0.31,0.35
2022-01-31 10:32:54.8640,-0.192,0.827,-0.173,-9.81,-0.13,-2.13,1.39,-0.35,0.33
2022-01-31 10:32:54.8670,-0.215,0.823,-0.187,-9.81,-0.13,-2.13,1.49,-0.42,0.27
2022-01-31 10:32:54.8700,-0.214,0.819,-0.187,-9.81,-0.13,-2.13,1.59,-0.5,0.22
2022-01-31 10:32:54.8700,-0.19,0.808,-0.192,-9.81,-0.13,-2.13,1.66,-0.61,0.19
2022-01-31 10:32:54.8700,-0.168,0.821,-0.227,-9.81,-0.13,-2.13,1.73,-0.78,0.19
2022-01-31 10:32:54.8740,-0.168,0.844,-0.259,-9.81,-0.13,-2.13,1.77,-1.02,0.14
2022-01-31 10:32:54.8780,-0.155,0.84,-0.27,-9.81,-0.13,-2.13,1.78,-1.3,0.08
2022-01-31 10:32:54.8800,-0.143,0.826,-0.258,-9.81,-0.13,-2.13,1.67,-1.74,-0.04
2022-01-31 10:32:54.8800,-0.14,0.808,-0.208,-9.81,-0.13,-2.13,1.67,-1.74,-0.04
Time,-0.167,0.817,-0.119,-9.81,-0.13,-2.13,1.54,-1.89,-0.13
2022-01-31 10:32:54.8830,-0.23,0.877,-0.012,-9.81,-0.13,-2.13,1.38,-2.15,-0.27
2022-01-31 10:32:54.8870,-0.283,0.965,0.109,-9.81,-0.13,-2.13,1.16,-2.46,-0.42
2022-01-31 10:32:54.8870,-0.278,1.049,0.196,-9.81,-0.13,-2.13,0.89,-2.61,-0.54
2022-01-31 10:32:54.8910,-0.244,1.096,0.201,-9.81,-0.13,-2.13,0.67,-2.52,-0.6
2022-01-31 10:32:54.8930,-0.205,1.108,0.163,-9.81,-0.13,-2.13,0.51,-2.23,-0.67
Time,-0.17,1.112,0.123,-9.81,-0.13,-2.13,0.41,-1.81,-0.74
2022-01-31 10:32:54.8970,-0.127,1.122,0.099,-9.81,-0.13,-2.13,0.36,-1.33,-0.81
2022-01-31 10:32:54.9000,-0.082,1.144,0.089,-9.81,-0.13,-2.13,0.33,-0.85,-0.84
2022-01-31 10:32:54.9000,-0.035,1.174,0.086,-9.81,-0.13,-2.13,0.31,-0.41,-0.83
2022-01-31 10:32:54.9020,0.017,1.211,0.077,-9.81,-0.13,-2.13,0.28,-0.09,-0.76
2022-01-31 10:32:54.9030,0.06,1.237,0.053,-9.81,-0.13,-2.13,0.22,0.09,-0.66
2022-01-31 10:32:54.9080,0.099,1.244,0.015,-9.81,-0.13,-2.13,0.11,0.14,-0.58
Time,0.139,1.238,-0.033,-9.81,-0.13,-2.13,-0.04,0.01,-0.53
2022-01-31 10:32:54.9100,0.203,1.246,-0.078,-9.81,-0.13,-2.13,-0.21,-0.36,-0.5
2022-01-31 10:32:54.9150,0.295,1.271,-0.104,-9.81,-0.13,-2.13,-0.4,-2.03,-0.34
2022-01-31 10:32:54.9150,0.403,1.31,-0.08,-9.81,-0.13,-2.13,-0.4,-2.03,-0.34
2022-01-31 10:32:54.9160,0.485,1.316,-0.032,-9.81,-0.13,-2.13,-0.31,-2.93,-0.13
2022-01-31 10:32:54.9200,0.511,1.303,0.091,-9.81,-0.13,-2.13,-0.17,-3.33,0.18
Time,0.487,1.324,0.278,-9.81,-0.13,-2.13,-0.22,-3.04,0.6
2022-01-31 10:32:54.9240,0.407,1.333,0.457,-9.81,-0.13,-2.13,-0.54,-2.31,1.02
Time,0.291,1.27,0.569,-9.81,-0.13,-2.13,-0.97,-1.44,1.32
2022-01-31 10:32:54.9250,0.184,1.148,0.588,-9.81,-0.13,-2.13,-1.43,-0.63,1.5
2022-01-31 10:32:54.9300,0.118,0.993,0.473,-9.81,-0.13,-2.13,-1.9,-0.08,1.69
2022-01-31 10:32:54.9330,0.071,0.919,0.341,-9.81,-0.13,-2.13,-2.76,0.34,2.08
2022-01-31 10:32:54.9330,0.004,0.949,0.245,-9.81,-0.13,-2.13,-2.76,0.34,2.08
2022-01-31 10:32:54.9330,-0.116,1.068,0.188,-9.81,-0.13,-2.13,-2.92,0.26,2.2
2022-01-31 10:32:54.9410,-0.259,1.287,0.148,-9.81,-0.13,-2.13,-2.79,0.14,2.23
2022-01-31 10:32:54.9490,-0.377,1.491,0.094,-9.81,-0.13,-2.13,-2.46,0.23,2.17
2022-01-31 10:32:54.9430,-0.445,1.599,0.042,-9.81,-0.13,-2.13,-2.15,0.58,2.0
2022-01-31 10:32:54.9470,-0.514,1.681,-0.009,-9.81,-0.13,-2.13,-1.92,1.09,1.75
2022-01-31 10:32:54.9510,-0.583,1.751,-0.072,-9.81,-0.13,-2.13,-1.74,1.63,1.51
2022-01-31 10:32:54.9510,-0.657,1.805,-0.133,-9.81,-0.13,-2.13,-1.55,2.14,1.26
2022-01-31 10:32:54.9550,-0.712,1.788,-0.209,-9.81,-0.13,-2.13,-1.36,2.53,1.04
2022-01-31 10:32:54.9580,-0.746,1.67,-0.293,-9.81,-0.13,-2.13,-1.22,2.59,0.91
2022-01-31 10:32:54.9570,-0.73,1.457,-0.315,-9.81,-0.13,-2.13,-1.21,2.23,0.84
2022-01-31 10:32:54.9600,-0.689,1.234,-0.238,-9.81,-0.13,-2.13,-1.39,1.42,0.78
Time,-0.636,1.059,-0.134,-9.81,-0.13,-2.13,-1.75,0.2,0.66
2022-01-31 10:32:54.9640,-0.569,0.96,-0.13,-9.81,-0.13,-2.13,-2.02,-1.17,0.45
2022-01-31 10:32:54.9660,-0.464,0.887,-0.126,-9.81,-0.13,-2.13,-2.08,-2.22,0.24
2022-01-31 10:32:54.9690,-0.357,0.838,-0.072,-9.81,-0.13,-2.13,-1.99,-2.64,0.12
2022-01-31 10:32:54.9750,-0.253,0.784,-0.016,-9.81,-0.13,-2.13,-1.86,-2.5,0.07
Time,-0.153,0.743,-0.033,-9.81,-0.13,-2.13,-1.63,-2.01,0.09
Time,-0.062,0.71,-0.082,-9.81,-0.13,-2.13,-1.3,-1.35,0.17
2022-01-31 10:32:54.9760,0.013,0.697,-0.133,-9.81,-0.13,-2.13,-0.89,-0.56,0.26
2022-01-31 10:32:54.9790,0.078,0.674,-0.162,-9.81,-0.13,-2.13,-0.47,0.24,0.37
2022-01-31 10:32:54.9790,0.154,0.636,-0.184,-9.81,-0.13,-2.13,-0.08,0.96,0.5
2022-01-31 10:32:54.9810,0.237,0.618,-0.149,-9.81,-0.13,-2.13,0.16,1.36,0.68
2022-01-31 10:32:54.9850,0.283,0.626,-0.101,-9.81,-0.13,-2.13,0.15,1.38,0.85
2022-01-31 10:32:54.9860,0.267,0.664,-0.126,-9.81,-0.13,-2.13,0.04,1.14,0.97
2022-01-31 10:32:54.9880,0.206,0.704,-0.188,-9.81,-0.13,-2.13,-0.03,0.79,0.96
2022-01-31 10:32:54.9880,0.134,0.72,-0.217,-9.81,-0.13,-2.13,-0.01,0.52,0.84
2022-01-31 10:32:54.9920,0.063,0.706,-0.203,-9.81,-0.13,-2.13,0.07,0.33,0.64
2022-01-31 10:32:54.9920,0.003,0.662,-0.144,-9.81,-0.13,-2.13,0.13,0.36,0.41
2022-01-31 10:32:55.0010,-0.053,0.604,-0.118,-9.81,-0.13,-2.13,0.21,0.46,0.19
2022-01-31 10:32:54.9980,-0.089,0.548,-0.113,-9.81,-0.13,-2.13,0.42,0.76,-0.13
2022-01-31 10:32:54.9980,-0.13,0.507,-0.109,-9.81,-0.13,-2.13,0.42,0.76,-0.13
Time,-0.176,0.471,-0.103,-9.81,-0.13,-2.13,0.51,0.9,-0.27
2022-01-31 10:32:55.0060,-0.209,0.437,-0.087,-9.81,-0.13,-2.13,0.59,1.05,-0.37
2022-01-31 10:32:55.0060,-0.242,0.411,-0.063,-9.81,-0.13,-2.13,0.66,1.23,-0.43
2022-01-31 10:32:55.0080,-0.28,0.413,-0.04,-9.81,-0.13,-2.13,0.76,1.44,-0.49
Time,-0.306,0.449,-0.008,-9.81,-0.13,-2.13,0.9,1.71,-0.52
2022-01-31 10:32:55.0120,-0.339,0.518,0.041,-9.81,-0.13,-2.13,1.11,2.11,-0.54
2022-01-31 10:32:55.0140,-0.384,0.625,0.147,-9.81,-0.13,-2.13,1.33,2.57,-0.57
2022-01-31 10:32:55.0160,-0.406,0.777,0.41,-9.81,-0.13,-2.13,1.4,2.96,-0.59
2022-01-31 10:32:55.0160,-0.349,1.018,1.043,-9.81,-0.13,-2.13,0.83,2.92,-0.54
2022-01-31 10:32:55.0250,-0.132,1.452,2.01,-9.81,-0.13,-2.13,-0.86,2.11,-0.33
2022-01-31 10:32:55.0220,0.108,2.054,2.014,-9.81,-0.13,-2.13,-2.36,0.61,0.04
2022-01-31 10:32:55.0250,0.002,2.406,1.05,-9.81,-0.13,-2.13,-1.97,0.13,0.06
2022-01-31 10:32:55.0260,0.073,2.244,0.644,-9.81,-0.13,-2.13,-0.85,0.31,0.04
2022-01-31 10:32:55.0280,0.291,1.694,0.66,-9.81,-0.13,-2.13,-0.02,0.5,0.31
2022-01-31 10:32:55.0300,0.346,1.205,0.604,-9.81,-0.13,-2.13,0.37,0.48,0.75
2022-01-31 10:32:55.0320,0.191,0.921,0.459,-9.81,-0.13,-2.13,0.5,0.34,0.97
2022-01-31 10:32:55.0350,0.06,0.737,0.393,-9.81,-0.13,-2.13,0.43,0.27,0.92
2022-01-31 10:32:55.0370,-0.006,0.585,0.37,-9.81,-0.13,-2.13,0.23,0.15,0.75
Time,-0.098,0.494,0.374,-9.81,-0.13,-2.13,0.03,0.11,0.48
2022-01-31 10:32:55.0390,-0.268,0.56,0.407,-9.81,-0.13,-2.13,-0.03,0.29,0.08
2022-01-31 10:32:55.0430,-0.493,0.846,0.358,-9.81,-0.13,-2.13,0.43,0.57,-0.98
2022-01-31 10:32:55.0430,-0.67,1.26,0.19,-9.81,-0.13,-2.13,0.43,0.57,-0.98
Time,-0.628,1.591,0.015,-9.81,-0.13,-2.13,0.8,0.73,-1.25
2022-01-31 10:32:55.0480,-0.38,1.652,-0.29,-9.81,-0.13,-2.13,1.09,1.06,-0.96
2022-01-31 10:32:55.0510,-0.225,1.523,-0.535,-9.81,-0.13,-2.13,1.06,1.23,-0.44
2022-01-31 10:32:55.0530,-0.268,1.354,-0.559,-9.81,-0.13,-2.13,0.76,0.92,-0.28
2022-01-31 10:32:55.0550,-0.28,1.14,-0.445,-9.81,-0.13,-2.13,0.43,0.38,-0.43
2022-01-31 10:32:55.0570,-0.199,0.905,-0.311,-9.81,-0.13,-2.13,0.19,-0.16,-0.59
2022-01-31 10:32:55.0590,-0.135,0.699,-0.242,-9.81,-0.13,-2.13,0.08,-0.48,-0.65
2022-01-31 10:32:55.0610,-0.117,0.553,-0.201,-9.81,-0.13,-2.13,0.11,-0.46,-0.66
2022-01-31 10:32:55.0640,-0.102,0.485,-0.172,-9.81,-0.13,-2.13,0.22,-0.31,-0.64
2022-01-31 10:32:55.0640,-0.09,0.501,-0.162,-9.81,-0.13,-2.13,0.56,0.18,-0.54
2022-01-31 10:32:55.0640,-0.089,0.588,-0.163,-9.81,-0.13,-2.13,0.56,0.18,-0.54
2022-01-31 10:32:55.0670,-0.114,0.708,-0.167,-9.81,-0.13,-2.13,0.72,0.5,-0.5
2022-01-31 10:32:55.0720,-0.148,0.841,-0.175,-9.81,-0.13,-2.13,0.85,0.85,-0.51
Time,-0.201,0.984,-0.172,-9.81,-0.13,-2.13,0.9,1.21,-0.56
2022-01-31 10:32:55.0730,-0.235,1.113,-0.173,-9.81,-0.13,-2.13,0.88,1.57,-0.57
Time,-0.265,1.224,-0.196,-9.81,-0.13,-2.13,0.81,1.91,-0.55
2022-01-31 10:32:55.0780,-0.285,1.301,-0.231,-9.81,-0.13,-2.13,0.78,2.17,-0.53
2022-01-31 10:32:55.0800,-0.273,1.317,-0.264,-9.81,-0.13,-2.13,0.81,2.29,-0.51
Time,-0.203,1.266,-0.322,-9.81,-0.13,-2.13,0.99,1.77,-0.49
2022-01-31 10:32:55.0840,-0.094,1.166,-0.333,-9.81,-0.13,-2.13,1.24,0.66,-0.4
Time,-0.01,1.062,-0.269,-9.81,-0.13,-2.13,1.43,-0.45,-0.17
2022-01-31 10:32:55.0910,0.023,0.974,-0.178,-9.81,-0.13,-2.13,1.47,-1.46,0.38
2022-01-31 10:32:55.0910,0.014,0.904,-0.107,-9.81,-0.13,-2.13,1.47,-1.46,0.38
2022-01-31 10:32:55.0910,-0.014,0.86,-0.08,-9.81,-0.13,-2.13,1.38,-1.45,0.52
2022-01-31 10:32:55.0930,-0.052,0.823,-0.095,-9.81,-0.13,-2.13,1.3,-1.38,0.53
Time,-0.089,0.806,-0.134,-9.81,-0.13,-2.13,1.29,-1.34,0.46
2022-01-31 10:32:55.0980,-0.112,0.794,-0.178,-9.81,-0.13,-2.13,1.32,-1.38,0.38
2022-01-31 10:32:55.1030,-0.12,0.782,-0.214,-9.81,-0.13,-2.13,1.41,-1.58,0.36
2022-01-31 10:32:55.1030,-0.122,0.764,-0.18,-9.81,-0.13,-2.13,1.41,-1.58,0.36
2022-01-31 10:32:55.1040,-0.138,0.771,-0.155,-9.81,-0.13,-2.13,1.43,-1.59,0.39
2022-01-31 10:32:55.1090,-0.168,0.796,-0.155,-9.81,-0.13,-2.13,1.5,-1.56,0.36
2022-01-31 10:32:55.1120,-0.184,0.826,-0.171,-9.81,-0.13,-2.13,1.59,-1.54,0.28
Time,-0.175,0.854,-0.181,-9.81,-0.13,-2.13,1.67,-1.52,0.2
2022-01-31 10:32:55.1120,-0.158,0.881,-0.198,-9.81,-0.13,-2.13,1.74,-1.52,0.14
Time,-0.158,0.918,-0.233,-9.81,-0.13,-2.13,1.79,-1.6,0.07
2022-01-31 10:32:55.1200,-0.154,0.951,-0.257,-9.81,-0.13,-2.13,1.83,-1.76,-0.01
2022-01-31 10:32:55.1190,-0.164,0.994,-0.246,-9.81,-0.13,-2.13,1.86,-1.96,-0.11
Time,-0.205,1.039,-0.151,-9.81,-0.13,-2.13,1.85,-2.4,-0.24
Time,-0.231,1.081,0.001,-9.81,-0.13,-2.13,1.74,-3.05,-0.37
2022-01-31 10:32:55.1250,-0.214,1.11,0.148,-9.81,-0.13,-2.13,1.49,-3.61,-0.45
2022-01-31 10:32:55.1260,-0.165,1.118,0.242,-9.81,-0.13,-2.13,1.16,-3.85,-0.52
2022-01-31 10:32:55.1310,-0.23,-0.718,-0.605,-9.81,-0.13,-2.13,-0.66,-0.22,-0.36
2022-01-31 10:32:55.1370,-0.231,-0.707,-0.668,-9.81,-0.13,-2.13,-0.72,-0.28,-0.33
2022-01-31 10:32:55.1370,-0.226,-0.747,-0.716,-9.81,-0.13,-2.13,-0.77,-0.46,-0.27
2022-01-31 10:32:55.1370,-0.241,-0.801,-0.729,-9.81,-0.13,-2.13,-0.83,-0.58,-0.19
Time,-0.294,-0.806,-0.696,-9.81,-0.13,-2.13,-0.89,-0.46,-0.16
2022-01-31 10:32:55.1410,-0.339,-0.761,-0.683,-9.81,-0.13,-2.13,-0.89,-0.16,-0.23
2022-01-31 10:32:55.1430,-0.308,-0.722,-0.712,-9.81,-0.13,-2.13,-0.85,0.08,-0.28
2022-01-31 10:32:55.1440,-0.217,-0.726,-0.759,-9.81,-0.13,-2.13,-0.74,0.19,-0.26
2022-01-31 10:32:55.1520,-0.133,-0.765,-0.797,-9.81,-0.13,-2.13,-0.6,0.26,-0.13
2022-01-31 10:32:55.1480,-0.091,-0.808,-0.808,-9.81,-0.13,-2.13,-0.46,0.36,0.07
2022-01-31 10:32:55.1520,-0.094,-0.821,-0.805,-9.81,-0.13,-2.13,-0.32,0.5,0.27
2022-01-31 10:32:55.1540,-0.124,-0.796,-0.802,-9.81,-0.13,-2.13,-0.2,0.65,0.41
2022-01-31 10:32:55.1570,-0.159,-0.745,-0.792,-9.81,-0.13,-2.13,-0.12,0.77,0.47
2022-01-31 10:32:55.1600,-0.19,-0.704,-0.784,-9.81,-0.13,-2.13,-0.08,0.82,0.49
2022-01-31 10:32:55.1600,-0.197,-0.694,-0.777,-9.81,-0.13,-2.13,-0.11,0.78,0.49
2022-01-31 10:32:55.1630,-0.194,-0.677,-0.762,-9.81,-0.13,-2.13,-0.17,0.74,0.49
2022-01-31 10:32:55.1650,-0.198,-0.643,-0.756,-9.81,-0.13,-2.13,-0.22,0.72,0.47
2022-01-31 10:32:55.1670,-0.202,-0.604,-0.764,-9.81,-0.13,-2.13,-0.28,0.7,0.41
Time,-0.198,-0.577,-0.786,-9.81,-0.13,-2.13,-0.33,0.62,0.33
2022-01-31 10:32:55.1710,-0.177,-0.577,-0.814,-9.81,-0.13,-2.13,-0.37,0.49,0.26
2022-01-31 10:32:55.1710,-0.143,-0.591,-0.825,-9.81,-0.13,-2.13,-0.35,0.38,0.24
2022-01-31 10:32:55.1740,-0.117,-0.606,-0.823,-9.81,-0.13,-2.13,-0.3,0.34,0.29
Time,-0.104,-0.617,-0.824,-9.81,-0.13,-2.13,-0.23,0.35,0.38
2022-01-31 10:32:55.1790,-0.117,-0.629,-0.84,-9.81,-0.13,-2.13,-0.11,0.38,0.45
2022-01-31 10:32:55.1800,-0.141,-0.631,-0.864,-9.81,-0.13,-2.13,0.02,0.34,0.49
Time,-0.159,-0.621,-0.877,-9.81,-0.13,-2.13,0.16,0.22,0.5
Time,-0.154,-0.607,-0.867,-9.81,-0.13,-2.13,0.26,0.1,0.51
Time,-0.151,-0.589,-0.84,-9.81,-0.13,-2.13,0.33,0.01,0.51
2022-01-31 10:32:55.1880,-0.156,-0.578,-0.8,-9.81,-0.13,-2.13,0.36,0.01,0.51
2022-01-31 10:32:55.1920,-0.171,-0.58,-0.761,-9.81,-0.13,-2.13,0.35,0.09,0.5
2022-01-31 10:32:55.1930,-0.196,-0.587,-0.765,-9.81,-0.13,-2.13,0.39,0.19,0.46
2022-01-31 10:32:55.1930,-0.208,-0.589,-0.802,-9.81,-0.13,-2.13,0.46,0.25,0.4
2022-01-31 10:32:55.1980,-0.194,-0.595,-0.851,-9.81,-0.13,-2.13,0.52,0.1,0.35
2022-01-31 10:32:55.1990,-0.168,-0.617,-0.893,-9.81,-0.13,-2.13,0.58,-0.17,0.33
2022-01-31 10:32:55.2000,-0.144,-0.631,-0.89,-9.81,-0.13,-2.13,0.64,-0.46,0.33
2022-01-31 10:32:55.2060,-0.118,-0.641,-0.84,-9.81,-0.13,-2.13,0.68,-0.61,0.36
2022-01-31 10:32:55.2050,-0.102,-0.657,-0.737,-9.81,-0.13,-2.13,0.68,-0.53,0.45
2022-01-31 10:32:55.2040,-0.114,-0.681,-0.645,-9.81,-0.13,-2.13,0.65,-0.3,0.55
2022-01-31 10:32:55.2080,-0.151,-0.69,-0.611,-9.81,-0.13,-2.13,0.61,-0.08,0.61
Time,-0.197,-0.674,-0.651,-9.81,-0.13,-2.13,0.57,0.09,0.6
2022-01-31 10:32:55.2130,-0.219,-0.642,-0.719,-9.81,-0.13,-2.13,0.54,0.04,0.52
2022-01-31 10:32:55.2130,-0.223,-0.597,-0.785,-9.81,-0.13,-2.13,0.53,-0.16,0.41
2022-01-31 10:32:55.2190,-0.215,-0.569,-0.79,-9.81,-0.13,-2.13,0.47,-0.38,0.29
2022-01-31 10:32:55.2230,-0.21,-0.586,-0.748,-9.81,-0.13,-2.13,0.32,-0.53,0.2
2022-01-31 10:32:55.2210,-0.203,-0.632,-0.698,-9.81,-0.13,-2.13,0.14,-0.6,0.15
2022-01-31 10:32:55.2230,-0.189,-0.666,-0.674,-9.81,-0.13,-2.13,0.03,-0.59,0.16
2022-01-31 10:32:55.2250,-0.156,-0.682,-0.659,-9.81,-0.13,-2.13,-0.0,-0.53,0.22
2022-01-31 10:32:55.2270,-0.117,-0.684,-0.669,-9.81,-0.13,-2.13,-0.01,-0.48,0.31
2022-01-31 10:32:55.2280,-0.092,-0.682,-0.691,-9.81,-0.13,-2.13,0.01,-0.48,0.42
2022-01-31 10:32:55.2320,-0.087,-0.691,-0.698,-9.81,-0.13,-2.13,0.05,-0.47,0.55
2022-01-31 10:32:55.2310,-0.131,-0.698,-0.693,-9.81,-0.13,-2.13,0.09,-0.37,0.69
2022-01-31 10:32:55.2390,-0.215,-0.698,-0.699,-9.81,-0.13,-2.13,0.17,-0.2,0.75
Time,-0.317,-0.646,-0.748,-9.81,-0.13,-2.13,0.34,-0.07,0.64
2022-01-31 10:32:55.2380,-0.361,-0.559,-0.811,-9.81,-0.13,-2.13,0.56,-0.04,0.43
2022-01-31 10:32:55.2400,-0.328,-0.53,-0.808,-9.81,-0.13,-2.13,0.77,0.01,0.26
2022-01-31 10:32:55.2420,-0.274,-0.57,-0.74,-9.81,-0.13,-2.13,0.87,0.07,0.16
2022-01-31 10:32:55.2460,-0.222,-0.633,-0.691,-9.81,-0.13,-2.13,0.89,0.08,0.12
2022-01-31 10:32:55.2440,-0.188,-0.679,-0.655,-9.81,-0.13,-2.13,0.83,0.05,0.13
2022-01-31 10:32:55.2470,-0.185,-0.682,-0.632,-9.81,-0.13,-2.13,0.68,-0.04,0.14
Time,-0.222,-0.673,-0.632,-9.81,-0.13,-2.13,0.5,-0.17,0.11
2022-01-31 10:32:55.2550,-0.263,-0.661,-0.641,-9.81,-0.13,-2.13,0.33,-0.35,0.03
2022-01-31 10:32:55.2550,-0.274,-0.647,-0.627,-9.81,-0.13,-2.13,0.14,-0.5,-0.06
2022-01-31 10:32:55.2550,-0.261,-0.649,-0.613,-9.81,-0.13,-2.13,-0.06,-0.63,-0.15
2022-01-31 10:32:55.2550,-0.232,-0.656,-0.627,-9.81,-0.13,-2.13,-0.23,-0.79,-0.23
2022-01-31 10:32:55.2590,-0.224,-0.645,-0.68,-9.81,-0.13,-2.13,-0.33,-0.99,-0.3
2022-01-31 10:32:55.2630,-0.224,-0.664,-0.709,-9.81,-0.13,-2.13,-0.39,-1.12,-0.33
2022-01-31 10:32:55.2630,-0.229,-0.708,-0.695,-9.81,-0.13,-2.13,-0.38,-1.08,-0.32
Time,-0.236,-0.73,-0.688,-9.81,-0.13,-2.13,-0.29,-0.95,-0.28
2022-01-31 10:32:55.2700,-0.239,-0.76,-0.693,-9.81,-0.13,-2.13,-0.17,-0.75,-0.16
2022-01-31 10:32:55.2700,-0.284,-0.786,-0.694,-9.81,-0.13,-2.13,-0.02,-0.5,-0.07
Time,-0.326,-0.755,-0.692,-9.81,-0.13,-2.13,0.3,-0.05,-0.02
Time,-0.345,-0.742,-0.659,-9.81,-0.13,-2.13,0.53,0.29,0.04
2022-01-31 10:32:55.2810,-0.362,-0.719,-0.644,-9.81,-0.13,-2.13,0.61,0.5,0.01
2022-01-31 10:32:55.2810,-0.364,-0.695,-0.623,-9.81,-0.13,-2.13,0.55,0.51,-0.01
2022-01-31 10:32:55.2800,-0.34,-0.73,-0.598,-9.81,-0.13,-2.13,0.4,0.47,0.04
2022-01-31 10:32:55.2820,-0.345,-0.753,-0.561,-9.81,-0.13,-2.13,0.21,0.46,0.11
2022-01-31 10:32:55.2860,-0.359,-0.775,-0.516,-9.81,-0.13,-2.13,0.03,0.61,0.21
Time,-0.38,-0.781,-0.475,-9.81,-0.13,-2.13,-0.12,0.88,0.26
2022-01-31 10:32:55.2890,-0.379,-0.739,-0.497,-9.81,-0.13,-2.13,-0.26,1.1,0.28
2022-01-31 10:32:55.2930,-0.34,-0.726,-0.567,-9.81,-0.13,-2.13,-0.4,1.21,0.3
2022-01-31 10:32:55.2930,-0.304,-0.719,-0.637,-9.81,-0.13,-2.13,-0.5,1.23,0.29
2022-01-31 10:32:55.2990,-0.274,-0.706,-0.691,-9.81,-0.13,-2.13,-0.54,1.24,0.29
2022-01-31 10:32:55.2990,-0.251,-0.695,-0.746,-9.81,-0.13,-2.13,-0.53,1.19,0.32
Time,-0.25,-0.676,-0.81,-9.81,-0.13,-2.13,-0.45,1.11,0.32
2022-01-31 10:32:55.3010,-0.262,-0.653,-0.859,-9.81,-0.13,-2.13,-0.35,1.0,0.28
Time,-0.27,-0.627,-0.884,-9.81,-0.13,-2.13,-0.26,0.86,0.2
2022-01-31 10:32:55.3030,-0.259,-0.626,-0.89,-9.81,-0.13,-2.13,-0.15,0.74,0.13
2022-01-31 10:32:55.3060,-0.238,-0.64,-0.875,-9.81,-0.13,-2.13,-0.03,0.66,0.11
Time,-0.231,-0.655,-0.848,-9.81,-0.13,-2.13,0.07,0.62,0.1
2022-01-31 10:32:55.3110,-0.249,-0.651,-0.824,-9.81,-0.13,-2.13,0.13,0.6,0.07
2022-01-31 10:32:55.3180,-0.263,-0.634,-0.826,-9.81,-0.13,-2.13,0.22,0.53,0.0
2022-01-31 10:32:55.3160,-0.262,-0.609,-0.83,-9.81,-0.13,-2.13,0.31,0.44,-0.06
2022-01-31 10:32:55.3170,-0.243,-0.604,-0.807,-9.81,-0.13,-2.13,0.38,0.38,-0.11
2022-01-31 10:32:55.3190,-0.217,-0.618,-0.771,-9.81,-0.13,-2.13,0.4,0.3,-0.14
2022-01-31 10:32:55.3260,-0.189,-0.638,-0.743,-9.81,-0.13,-2.13,0.38,0.22,-0.15
Time,-0.17,-0.659,-0.711,-9.81,-0.13,-2.13,0.32,0.17,-0.13
2022-01-31 10:32:55.3250,-0.168,-0.674,-0.689,-9.81,-0.13,-2.13,0.28,0.13,-0.11
2022-01-31 10:32:55.3270,-0.166,-0.678,-0.673,-9.81,-0.13,-2.13,0.27,0.13,-0.1
Time,-0.157,-0.674,-0.651,-9.81,-0.13,-2.13,0.26,0.17,-0.09
2022-01-31 10:32:55.3310,-0.149,-0.674,-0.644,-9.81,-0.13,-2.13,0.25,0.17,-0.1
2022-01-31 10:32:55.3320,-0.136,-0.682,-0.662,-9.81,-0.13,-2.13,0.26,0.1,-0.09
Time,-0.126,-0.697,-0.664,-9.81,-0.13,-2.13,0.26,0.01,-0.06
2022-01-31 10:32:55.3370,-0.143,-0.707,-0.647,-9.81,-0.13,-2.13,0.25,-0.05,-0.03
2022-01-31 10:32:55.3390,-0.175,-0.705,-0.63,-9.81,-0.13,-2.13,0.24,-0.06,-0.03
2022-01-31 10:32:55.3410,-0.194,-0.688,-0.618,-9.81,-0.13,-2.13,0.21,-0.09,-0.06
2022-01-31 10:32:55.3440,-0.19,-0.676,-0.602,-9.81,-0.13,-2.13,0.16,-0.12,-0.09
2022-01-31 10:32:55.3450,-0.186,-0.683,-0.581,-9.81,-0.13,-2.13,0.12,-0.11,-0.1
Time,-0.182,-0.697,-0.551,-9.81,-0.13,-2.13,0.08,-0.02,-0.1
2022-01-31 10:32:55.3470,-0.172,-0.713,-0.526,-9.81,-0.13,-2.13,0.04,0.12,-0.07
2022-01-31 10:32:55.3500,-0.177,-0.728,-0.529,-9.81,-0.13,-2.13,0.01,0.23,-0.04
Time,-0.196,-0.734,-0.557,-9.81,-0.13,-2.13,-0.02,0.29,-0.02
2022-01-31 10:32:55.3540,-0.214,-0.724,-0.591,-9.81,-0.13,-2.13,-0.04,0.27,-0.02
2022-01-31 10:32:55.3560,-0.226,-0.71,-0.619,-9.81,-0.13,-2.13,-0.06,0.19,-0.04
2022-01-31 10:32:55.3590,-0.237,-0.71,-0.626,-9.81,-0.13,-2.13,-0.08,0.1,-0.05
2022-01-31 10:32:55.3600,-0.235,-0.719,-0.614,-9.81,-0.13,-2.13,-0.12,0.05,-0.06
2022-01-31 10:32:55.3620,-0.226,-0.734,-0.591,-9.81,-0.13,-2.13,-0.19,0.06,-0.05
Time,-0.227,-0.743,-0.582,-9.81,-0.13,-2.13,-0.25,0.13,-0.05
2022-01-31 10:32:55.3650,-0.232,-0.74,-0.602,-9.81,-0.13,-2.13,-0.29,0.19,-0.05
2022-01-31 10:32:55.3670,-0.227,-0.728,-0.635,-9.81,-0.13,-2.13,-0.3,0.21,-0.04
2022-01-31 10:32:55.3740,-0.219,-0.718,-0.662,-9.81,-0.13,-2.13,-0.27,0.24,-0.02
2022-01-31 10:32:55.3710,-0.215,-0.717,-0.692,-9.81,-0.13,-2.13,-0.23,0.23,0.0
2022-01-31 10:32:55.3730,-0.212,-0.713,-0.717,-9.81,-0.13,-2.13,-0.16,0.18,0.03
Time,-0.214,-0.7,-0.731,-9.81,-0.13,-2.13,-0.09,0.13,0.05
2022-01-31 10:32:55.3790,-0.219,-0.689,-0.727,-9.81,-0.13,-2.13,-0.03,0.08,0.07
2022-01-31 10:32:55.3930,-0.225,-0.686,-0.707,-9.81,-0.13,-2.13,0.01,0.07,0.08
2022-01-31 10:32:55.4040,-0.235,-0.682,-0.676,-9.81,-0.13,-2.13,0.02,0.09,0.08
2022-01-31 10:32:55.4130,-0.247,-0.683,-0.649,-9.81,-0.13,-2.13,-0.0,0.15,0.07
2022-01-31 10:32:55.4240,-0.251,-0.687,-0.636,-9.81,-0.13,-2.13,-0.05,0.19,0.06
2022-01-31 10:32:55.4340,-0.249,-0.689,-0.64,-9.81,-0.13,-2.13,-0.11,0.18,0.06
2022-01-31 10:32:55.4440,-0.245,-0.69,-0.653,-9.81,-0.13,-2.13,-0.18,0.15,0.05
2022-01-31 10:32:55.4540,-0.248,-0.689,-0.669,-9.81,-0.13,-2.13,-0.22,0.13,0.04
2022-01-31 10:32:55.4640,-0.253,-0.689,-0.691,-9.81,-0.13,-2.13,-0.23,0.1,0.03
Time,-0.259,-0.687,-0.71,-9.81,-0.13,-2.13,-0.22,0.07,0.01
2022-01-31 10:32:55.4840,-0.26,-0.682,-0.718,-9.81,-0.13,-2.13,-0.19,0.06,-0.01
2022-01-31 10:32:55.4950,-0.252,-0.683,-0.715,-9.81,-0.13,-2.13,-0.17,0.05,-0.02
2022-01-31 10:32:55.5040,-0.24,-0.693,-0.708,-9.81,-0.13,-2.13,-0.16,0.05,-0.01
2022-01-31 10:32:55.5140,-0.233,-0.702,-0.706,-9.81,-0.13,-2.13,-0.19,0.03,0.01
2022-01-31 10:32:55.5250,-0.245,-0.698,-0.709,-9.81,-0.13,-2.13,-0.23,0.0,-0.0
2022-01-31 10:32:55.5340,-0.257,-0.682,-0.719,-9.81,-0.13,-2.13,-0.25,-0.01,-0.02
2022-01-31 10:32:55.5450,-0.264,-0.671,-0.732,-9.81,-0.13,-2.13,-0.23,-0.01,-0.05
2022-01-31 10:32:55.5540,-0.265,-0.67,-0.754,-9.81,-0.13,-2.13,-0.18,-0.01,-0.08
2022-01-31 10:32:55.5650,-0.25,-0.664,-0.77,-9.81,-0.13,-2.13,-0.12,-0.04,-0.1
2022-01-31 10:32:55.5740,-0.224,-0.665,-0.767,-9.81,-0.13,-2.13,-0.08,-0.06,-0.1
2022-01-31 10:32:55.5850,-0.208,-0.672,-0.756,-9.81,-0.13,-2.13,-0.04,-0.07,-0.09
2022-01-31 10:32:55.5960,-0.197,-0.674,-0.74,-9.81,-0.13,-2.13,-0.01,-0.07,-0.07
2022-01-31 10:32:55.6050,-0.189,-0.673,-0.724,-9.81,-0.13,-2.13,0.01,-0.02,-0.05
2022-01-31 10:32:55.6160,-0.203,-0.675,-0.718,-9.81,-0.13,-2.13,0.06,0.07,-0.02
2022-01-31 10:32:55.6250,-0.221,-0.674,-0.727,-9.81,-0.13,-2.13,0.1,0.14,-0.02
2022-01-31 10:32:55.6360,-0.223,-0.654,-0.739,-9.81,-0.13,-2.13,0.16,0.14,-0.05
2022-01-31 10:32:55.6450,-0.208,-0.633,-0.743,-9.81,-0.13,-2.13,0.2,0.1,-0.09
2022-01-31 10:32:55.6560,-0.187,-0.628,-0.721,-9.81,-0.13,-2.13,0.21,0.08,-0.13
2022-01-31 10:32:55.6660,-0.173,-0.645,-0.686,-9.81,-0.13,-2.13,0.2,0.11,-0.14
2022-01-31 10:32:55.6760,-0.168,-0.668,-0.659,-9.81,-0.13,-2.13,0.19,0.19,-0.14
