
time,gFx,gFy,gFz,ax,ay,az,wx,wy,wz,
0.066079,-0.1604,0.6361,0.8010,0.0000,0.0000,0.0000,0.0000,0.0000,0.0000,
0.066532,-0.2629,0.6441,0.7402,0.0000,0.0000,0.0000,0.0000,0.0000,0.0000,
0.066899,-0.3017,0.7005,0.5761,0.0000,0.0000,0.0000,0.0000,0.0000,0.0000,
0.092274,-0.2166,0.7202,0.7157,0.0000,0.0000,0.0000,0.0000,0.0000,0.0000,
0.093509,-0.1990,0.7029,0.9993,0.0000,0.0000,0.0000,0.0000,0.0000,0.0000,
0.094555,-0.1990,0.7029,0.9993,-0.3736,1.3198,1.8765,0.0000,0.0000,0.0000,
0.110590,-0.2165,0.6597,1.4269,-0.3736,1.3198,1.8765,0.0000,0.0000,0.0000,
0.111696,-0.2165,0.6597,1.4269,-0.7836,2.3883,5.1653,0.0000,0.0000,0.0000,
0.128231,-0.2372,0.6157,1.2567,-0.7836,2.3883,5.1653,0.0000,0.0000,0.0000,
0.129325,-0.2372,0.6157,1.2567,-0.6858,1.7798,3.6330,0.0000,0.0000,0.0000,
0.130321,-0.2372,0.6157,1.2567,-0.6858,1.7798,3.6330,0.6973,-0.8227,-0.7093,
0.140270,-0.2372,0.6157,1.2567,-0.6858,1.7798,3.6330,0.8757,-0.4410,-0.7166,
0.148204,-0.2355,0.6137,0.8729,-0.6858,1.7798,3.6330,0.8757,-0.4410,-0.7166,
0.148886,-0.2355,0.6137,0.8729,-0.1944,0.5066,0.7206,0.8757,-0.4410,-0.7166,
0.150643,-0.2355,0.6137,0.8729,-0.1944,0.5066,0.7206,0.8451,-0.3047,-0.7160,
0.160735,-0.2355,0.6137,0.8729,-0.1944,0.5066,0.7206,0.2452,-0.5075,-0.7465,
0.168486,-0.2315,0.6306,0.6674,-0.1944,0.5066,0.7206,0.2452,-0.5075,-0.7465,
0.169889,-0.2315,0.6306,0.6674,0.1288,-0.3508,-0.3713,0.2452,-0.5075,-0.7465,
0.170922,-0.2315,0.6306,0.6674,0.1288,-0.3508,-0.3713,-0.1402,-0.9077,-0.7471,
0.180544,-0.2315,0.6306,0.6674,0.1288,-0.3508,-0.3713,-0.4615,-1.4104,-0.7050,
0.188468,-0.2864,0.5602,0.7968,0.1288,-0.3508,-0.3713,-0.4615,-1.4104,-0.7050,
0.189571,-0.2864,0.5602,0.7968,-0.0403,0.0789,0.1122,-0.4615,-1.4104,-0.7050,
0.191013,-0.2864,0.5602,0.7968,-0.0403,0.0789,0.1122,-0.6790,-1.8551,-0.6231,
0.200570,-0.2864,0.5602,0.7968,-0.0403,0.0789,0.1122,-0.7370,-2.0207,-0.5071,
0.210978,-0.3742,0.4360,1.3241,-0.0403,0.0789,0.1122,-0.7370,-2.0207,-0.5071,
0.212537,-0.3742,0.4360,1.3241,-1.1247,1.3105,3.9802,-0.7370,-2.0207,-0.5071,
0.214029,-0.3742,0.4360,1.3241,-1.1247,1.3105,3.9802,-0.6197,-1.7433,-0.3495,
0.220566,-0.3742,0.4360,1.3241,-1.1247,1.3105,3.9802,-0.4151,-1.1037,-0.1931,
0.228661,-0.2956,0.4063,1.3208,-1.1247,1.3105,3.9802,-0.4151,-1.1037,-0.1931,
0.230422,-0.2956,0.4063,1.3208,-0.8456,1.1622,3.7784,-0.4151,-1.1037,-0.1931,
0.231774,-0.2956,0.4063,1.3208,-0.8456,1.1622,3.7784,-0.1940,-0.4147,-0.0593,
0.240579,-0.2956,0.4063,1.3208,-0.8456,1.1622,3.7784,0.0198,-0.0250,0.0500,
0.248493,-0.1515,0.3960,0.9868,-0.8456,1.1622,3.7784,0.0198,-0.0250,0.0500,
0.249987,-0.1515,0.3960,0.9868,-0.1013,0.2649,0.6601,0.0198,-0.0250,0.0500,
0.251229,-0.1515,0.3960,0.9868,-0.1013,0.2649,0.6601,0.1335,0.1302,0.1227,
0.260747,-0.1515,0.3960,0.9868,-0.1013,0.2649,0.6601,0.1261,0.0838,0.1563,
0.268531,-0.1461,0.4012,0.8540,-0.1013,0.2649,0.6601,0.1261,0.0838,0.1563,
0.269699,-0.1461,0.4012,0.8540,0.0689,-0.1891,-0.4027,0.1261,0.0838,0.1563,
0.270946,-0.1461,0.4012,0.8540,0.0689,-0.1891,-0.4027,0.0492,-0.0915,0.1765,
0.280610,-0.1461,0.4012,0.8540,0.0689,-0.1891,-0.4027,-0.0339,-0.2650,0.1997,
0.288449,-0.1225,0.4158,0.9187,0.0689,-0.1891,-0.4027,-0.0339,-0.2650,0.1997,
0.289817,-0.1225,0.4158,0.9187,-0.0179,0.0608,0.1344,-0.0339,-0.2650,0.1997,
0.291305,-0.1225,0.4158,0.9187,-0.0179,0.0608,0.1344,-0.0858,-0.3835,0.1991,
0.300578,-0.1225,0.4158,0.9187,-0.0179,0.0608,0.1344,-0.0773,-0.4813,0.1569,
0.310768,-0.1219,0.4132,0.8084,-0.0179,0.0608,0.1344,-0.0773,-0.4813,0.1569,
0.312213,-0.1219,0.4132,0.8084,0.1104,-0.3741,-0.7319,-0.0773,-0.4813,0.1569,
0.313664,-0.1219,0.4132,0.8084,0.1104,-0.3741,-0.7319,-0.0211,-0.6334,0.0690,
0.320744,-0.1219,0.4132,0.8084,0.1104,-0.3741,-0.7319,0.0052,-0.8264,-0.0514,
0.328591,-0.1567,0.3871,0.6572,0.1104,-0.3741,-0.7319,0.0052,-0.8264,-0.0514,
0.330701,-0.1567,0.3871,0.6572,0.4379,-1.0817,-1.8364,0.0052,-0.8264,-0.0514,
0.332312,-0.1567,0.3871,0.6572,0.4379,-1.0817,-1.8364,-0.0522,-0.9266,-0.1430,
0.340626,-0.1567,0.3871,0.6572,0.4379,-1.0817,-1.8364,-0.1653,-0.9064,-0.1607,
0.348520,-0.0839,0.3628,0.6644,0.4379,-1.0817,-1.8364,-0.1653,-0.9064,-0.1607,
0.350381,-0.0839,0.3628,0.6644,0.2581,-1.1159,-2.0436,-0.1653,-0.9064,-0.1607,
0.351687,-0.0839,0.3628,0.6644,0.2581,-1.1159,-2.0436,-0.3027,-0.9443,-0.1442,
0.360902,-0.0839,0.3628,0.6644,0.2581,-1.1159,-2.0436,-0.2563,-1.0097,-0.1968,
0.368475,0.0302,0.3650,0.6973,0.2581,-1.1159,-2.0436,-0.2563,-1.0097,-0.1968,
0.369767,0.0302,0.3650,0.6973,-0.0800,-0.9678,-1.8488,-0.2563,-1.0097,-0.1968,
0.371065,0.0302,0.3650,0.6973,-0.0800,-0.9678,-1.8488,-0.1365,-1.2058,-0.2426,
0.380673,0.0302,0.3650,0.6973,-0.0800,-0.9678,-1.8488,-0.0406,-1.4153,-0.2554,
0.388673,0.0920,0.4178,0.5645,-0.0800,-0.9678,-1.8488,-0.0406,-1.4153,-0.2554,
0.390368,0.0920,0.4178,0.5645,-0.3722,-1.6904,-2.2841,-0.0406,-1.4153,-0.2554,
0.391825,0.0920,0.4178,0.5645,-0.3722,-1.6904,-2.2841,-0.0327,-1.4654,-0.3226,
0.400565,0.0920,0.4178,0.5645,-0.3722,-1.6904,-2.2841,-0.0987,-1.4605,-0.4545,
0.408647,0.0397,0.4135,0.5411,-0.3722,-1.6904,-2.2841,-0.0987,-1.4605,-0.4545,
0.410686,0.0397,0.4135,0.5411,-0.1816,-1.8918,-2.4759,-0.0987,-1.4605,-0.4545,
0.411918,0.0397,0.4135,0.5411,-0.1816,-1.8918,-2.4759,-0.1811,-1.4874,-0.6018,
0.420609,0.0397,0.4135,0.5411,-0.1816,-1.8918,-2.4759,-0.2398,-1.5546,-0.6946,
0.428569,-0.0919,0.3913,0.6174,-0.1816,-1.8918,-2.4759,-0.2398,-1.5546,-0.6946,
0.430832,-0.0919,0.3913,0.6174,0.3227,-1.3743,-2.1685,-0.2398,-1.5546,-0.6946,
0.432137,-0.0919,0.3913,0.6174,0.3227,-1.3743,-2.1685,-0.2905,-1.7000,-0.6995,
0.440825,-0.0919,0.3913,0.6174,0.3227,-1.3743,-2.1685,-0.3308,-1.9327,-0.5908,
0.449086,-0.0595,0.4069,0.6997,0.3227,-1.3743,-2.1685,-0.3308,-1.9327,-0.5908,
0.452486,-0.0595,0.4069,0.6997,0.1358,-0.9291,-1.5976,-0.3308,-1.9327,-0.5908,
0.454460,-0.0595,0.4069,0.6997,0.1358,-0.9291,-1.5976,-0.3552,-2.0879,-0.4277,
0.462160,-0.0595,0.4069,0.6997,0.1358,-0.9291,-1.5976,-0.3668,-2.0408,-0.3061,
0.469043,0.0388,0.4694,0.7829,0.1358,-0.9291,-1.5976,-0.3668,-2.0408,-0.3061,
0.472064,0.0388,0.4694,0.7829,-0.0363,-0.4381,-0.7307,-0.3668,-2.0408,-0.3061,
0.474275,0.0388,0.4694,0.7829,-0.0363,-0.4381,-0.7307,-0.3620,-1.7751,-0.2475,
0.481168,0.0388,0.4694,0.7829,-0.0363,-0.4381,-0.7307,-0.3516,-1.3994,-0.2273,
0.488982,0.0435,0.5244,0.8465,-0.0363,-0.4381,-0.7307,-0.3516,-1.3994,-0.2273,
0.491453,0.0435,0.5244,0.8465,-0.0017,-0.0203,-0.0328,-0.3516,-1.3994,-0.2273,
0.493777,0.0435,0.5244,0.8465,-0.0017,-0.0203,-0.0328,-0.3259,-0.9956,-0.2108,
0.501212,0.0435,0.5244,0.8465,-0.0017,-0.0203,-0.0328,-0.2770,-0.6450,-0.1913,
0.509125,0.0656,0.5134,0.8094,-0.0017,-0.0203,-0.0328,-0.2770,-0.6450,-0.1913,
0.511796,0.0656,0.5134,0.8094,-0.0267,-0.2092,-0.3298,-0.2770,-0.6450,-0.1913,
0.514117,0.0656,0.5134,0.8094,-0.0267,-0.2092,-0.3298,-0.2434,-0.4776,-0.1656,
0.521246,0.0656,0.5134,0.8094,-0.0267,-0.2092,-0.3298,-0.2306,-0.5356,-0.1021,
0.529071,-0.0166,0.4678,0.8375,-0.0267,-0.2092,-0.3298,-0.2306,-0.5356,-0.1021,
0.532962,-0.0166,0.4678,0.8375,0.0070,-0.1971,-0.3527,-0.2306,-0.5356,-0.1021,
0.535220,-0.0166,0.4678,0.8375,0.0070,-0.1971,-0.3527,-0.1763,-0.8967,0.1948,
0.540985,-0.0166,0.4678,0.8375,0.0070,-0.1971,-0.3527,-0.0394,-1.0787,0.3848,
0.549021,0.0682,0.4746,0.9897,0.0070,-0.1971,-0.3527,-0.0394,-1.0787,0.3848,
0.551736,0.0682,0.4746,0.9897,0.0602,0.4188,0.8733,-0.0394,-1.0787,0.3848,
0.553899,0.0682,0.4746,0.9897,0.0602,0.4188,0.8733,0.1420,-1.2052,0.5088,
0.563083,0.0682,0.4746,0.9897,0.0602,0.4188,0.8733,0.2898,-1.2009,0.4892,
0.569074,0.2202,0.6359,1.1118,0.0602,0.4188,0.8733,0.2898,-1.2009,0.4892,
0.571589,0.2202,0.6359,1.1118,0.4965,1.4336,2.5065,0.2898,-1.2009,0.4892,
0.573648,0.2202,0.6359,1.1118,0.4965,1.4336,2.5065,0.4236,-1.0738,0.3927,
0.581242,0.2202,0.6359,1.1118,0.4965,1.4336,2.5065,0.5672,-0.8160,0.3268,
0.589076,0.2212,0.7482,0.8508,0.4965,1.4336,2.5065,0.5672,-0.8160,0.3268,
0.591334,0.2212,0.7482,0.8508,0.2886,0.9762,1.1101,0.5672,-0.8160,0.3268,
0.594282,0.2212,0.7482,0.8508,0.2886,0.9762,1.1101,0.6344,-0.3212,0.2834,
0.601283,0.2212,0.7482,0.8508,0.2886,0.9762,1.1101,0.5372,0.1699,0.2278,
0.609195,0.1224,0.7450,0.7065,0.2886,0.9762,1.1101,0.5372,0.1699,0.2278,
0.611571,0.1224,0.7450,0.7065,0.0387,0.2355,0.2233,0.5372,0.1699,0.2278,
0.613905,0.1224,0.7450,0.7065,0.0387,0.2355,0.2233,0.3479,0.4216,0.2009,
0.621231,0.1224,0.7450,0.7065,0.0387,0.2355,0.2233,0.1475,0.3935,0.2315,
0.629382,0.0875,0.6530,0.9170,0.0387,0.2355,0.2233,0.1475,0.3935,0.2315,
0.631732,0.0875,0.6530,0.9170,0.0975,0.7282,1.0225,0.1475,0.3935,0.2315,
0.633919,0.0875,0.6530,0.9170,0.0975,0.7282,1.0225,-0.0260,0.2243,0.3078,
0.641097,0.0875,0.6530,0.9170,0.0975,0.7282,1.0225,-0.1292,0.0178,0.3982,
0.649137,0.1825,0.6700,1.1062,0.0975,0.7282,1.0225,-0.1292,0.0178,0.3982,
0.652658,0.1825,0.6700,1.1062,0.4182,1.5355,2.5352,-0.1292,0.0178,0.3982,
0.654736,0.1825,0.6700,1.1062,0.4182,1.5355,2.5352,-0.1561,-0.1642,0.4001,
0.662926,0.1825,0.6700,1.1062,0.4182,1.5355,2.5352,-0.0706,-0.0964,0.1966,
0.669031,0.5192,0.7923,0.9876,0.4182,1.5355,2.5352,-0.0706,-0.0964,0.1966,
0.672249,0.5192,0.7923,0.9876,1.3673,2.0866,2.6010,-0.0706,-0.0964,0.1966,
0.674614,0.5192,0.7923,0.9876,1.3673,2.0866,2.6010,0.0333,-0.0341,-0.0929,
0.681479,0.5192,0.7923,0.9876,1.3673,2.0866,2.6010,0.0321,-0.0805,-0.4093,
0.688973,0.3900,0.7628,0.9844,1.3673,2.0866,2.6010,0.0321,-0.0805,-0.4093,
0.691209,0.3900,0.7628,0.9844,0.8915,1.7436,2.2501,0.0321,-0.0805,-0.4093,
0.694771,0.3900,0.7628,0.9844,0.8915,1.7436,2.2501,-0.0327,-0.1013,-0.6641,
0.701168,0.3900,0.7628,0.9844,0.8915,1.7436,2.2501,-0.0791,-0.0250,-0.6140,
0.709226,0.2741,0.6682,1.0194,0.8915,1.7436,2.2501,-0.0791,-0.0250,-0.6140,
0.711687,0.2741,0.6682,1.0194,0.5346,1.3031,1.9880,-0.0791,-0.0250,-0.6140,
0.713861,0.2741,0.6682,1.0194,0.5346,1.3031,1.9880,-0.0571,-0.0189,-0.5382,
0.721321,0.2741,0.6682,1.0194,0.5346,1.3031,1.9880,0.1170,-0.1850,-0.6280,
0.729547,0.2663,0.5628,0.9500,0.5346,1.3031,1.9880,0.1170,-0.1850,-0.6280,
0.732823,0.2663,0.5628,0.9500,0.3105,0.6562,1.1077,0.1170,-0.1850,-0.6280,
0.735302,0.2663,0.5628,0.9500,0.3105,0.6562,1.1077,0.0736,-0.3481,-0.7093,
0.741016,0.2663,0.5628,0.9500,0.3105,0.6562,1.1077,0.0278,-0.4801,-0.7044,
0.748863,0.3120,0.5817,1.1173,0.3105,0.6562,1.1077,0.0278,-0.4801,-0.7044,
0.751114,0.3120,0.5817,1.1173,0.6999,1.3049,2.5065,0.0278,-0.4801,-0.7044,
0.752852,0.3120,0.5817,1.1173,0.6999,1.3049,2.5065,0.0449,-0.5491,-0.6115,
0.761787,0.3120,0.5817,1.1173,0.6999,1.3049,2.5065,0.1060,-0.5149,-0.5492,
0.768852,0.4781,0.5393,1.0798,0.6999,1.3049,2.5065,0.1060,-0.5149,-0.5492,
0.771448,0.4781,0.5393,1.0798,1.0740,1.2114,2.4256,0.1060,-0.5149,-0.5492,
0.773259,0.4781,0.5393,1.0798,1.0740,1.2114,2.4256,0.1799,-0.4672,-0.5902,
0.781073,0.4781,0.5393,1.0798,1.0740,1.2114,2.4256,0.2404,-0.4446,-0.7355,
0.788823,0.4714,0.4611,1.0426,1.0740,1.2114,2.4256,0.2404,-0.4446,-0.7355,
0.790780,0.4714,0.4611,1.0426,0.8723,0.8533,1.9293,0.2404,-0.4446,-0.7355,
0.792831,0.4714,0.4611,1.0426,0.8723,0.8533,1.9293,0.2837,-0.4776,-0.9726,
0.801258,0.4714,0.4611,1.0426,0.8723,0.8533,1.9293,0.3222,-0.4947,-1.2572,
0.809077,0.2220,0.4007,1.0321,0.8723,0.8533,1.9293,0.3222,-0.4947,-1.2572,
0.811245,0.2220,0.4007,1.0321,0.2475,0.4467,1.1507,0.3222,-0.4947,-1.2572,
0.812949,0.2220,0.4007,1.0321,0.2475,0.4467,1.1507,0.3876,-0.4660,-1.5022,
0.821188,0.2220,0.4007,1.0321,0.2475,0.4467,1.1507,0.4713,-0.5063,-1.6451,
0.829654,0.0934,0.4003,0.8990,0.2475,0.4467,1.1507,0.4713,-0.5063,-1.6451,
0.832110,0.0934,0.4003,0.8990,-0.0112,-0.0481,-0.1080,0.4713,-0.5063,-1.6451,
0.835543,0.0934,0.4003,0.8990,-0.0112,-0.0481,-0.1080,0.5440,-0.6206,-1.6671,
0.840994,0.0934,0.4003,0.8990,-0.0112,-0.0481,-0.1080,0.5892,-0.7592,-1.5865,
0.849036,0.0760,0.4323,0.8089,-0.0112,-0.0481,-0.1080,0.5892,-0.7592,-1.5865,
0.851337,0.0760,0.4323,0.8089,-0.0650,-0.3700,-0.6923,0.5892,-0.7592,-1.5865,
0.853509,0.0760,0.4323,0.8089,-0.0650,-0.3700,-0.6923,0.6167,-0.9297,-1.4228,
0.863563,0.0760,0.4323,0.8089,-0.0650,-0.3700,-0.6923,0.6252,-1.1343,-1.2169,
0.869104,0.1021,0.4246,0.6982,-0.0650,-0.3700,-0.6923,0.6252,-1.1343,-1.2169,
0.871622,0.1021,0.4246,0.6982,-0.2152,-0.8950,-1.4717,0.6252,-1.1343,-1.2169,
0.873395,0.1021,0.4246,0.6982,-0.2152,-0.8950,-1.4717,0.6185,-1.3408,-1.0068,
0.881241,0.1021,0.4246,0.6982,-0.2152,-0.8950,-1.4717,0.5947,-1.5430,-0.8058,
0.889014,-0.0366,0.3401,0.6428,-0.2152,-0.8950,-1.4717,0.5947,-1.5430,-0.8058,
0.891194,-0.0366,0.3401,0.6428,0.1344,-1.2476,-2.3581,0.5947,-1.5430,-0.8058,
0.893471,-0.0366,0.3401,0.6428,0.1344,-1.2476,-2.3581,0.5311,-1.6230,-0.6268,
0.901146,-0.0366,0.3401,0.6428,0.1344,-1.2476,-2.3581,0.3931,-1.3463,-0.0202,
0.909164,-0.3305,0.2431,0.4505,0.1344,-1.2476,-2.3581,0.3931,-1.3463,-0.0202,
0.911257,-0.3305,0.2431,0.4505,2.0804,-1.5299,-2.8353,0.3931,-1.3463,-0.0202,
0.913551,-0.3305,0.2431,0.4505,2.0804,-1.5299,-2.8353,0.3277,-1.0561,0.4996,
0.921240,-0.3305,0.2431,0.4505,2.0804,-1.5299,-2.8353,0.2306,-0.7085,1.0842,
0.929783,-0.3475,0.2720,0.3996,2.0804,-1.5299,-2.8353,0.2306,-0.7085,1.0842,
0.932183,-0.3475,0.2720,0.3996,2.3188,-1.8151,-2.6660,0.2306,-0.7085,1.0842,
0.934581,-0.3475,0.2720,0.3996,2.3188,-1.8151,-2.6660,0.0834,-0.3707,1.5937,
0.941145,-0.3475,0.2720,0.3996,2.3188,-1.8151,-2.6660,-0.1310,-0.1697,1.8667,
0.949248,0.1401,0.1606,0.5729,2.3188,-1.8151,-2.6660,-0.1310,-0.1697,1.8667,
0.952051,0.1401,0.1606,0.5729,-0.8747,-1.0029,-3.5767,-0.1310,-0.1697,1.8667,
0.954168,0.1401,0.1606,0.5729,-0.8747,-1.0029,-3.5767,-0.3937,-0.1691,1.8783,
0.962834,0.1401,0.1606,0.5729,-0.8747,-1.0029,-3.5767,-0.6515,-0.3121,1.6670,
0.969021,0.2990,0.1340,0.6733,-0.8747,-1.0029,-3.5767,-0.6515,-0.3121,1.6670,
0.971219,0.2990,0.1340,0.6733,-0.9857,-0.4417,-2.2194,-0.6515,-0.3121,1.6670,
0.973249,0.2990,0.1340,0.6733,-0.9857,-0.4417,-2.2194,-0.8519,-0.4538,1.2602,
0.981348,0.2990,0.1340,0.6733,-0.9857,-0.4417,-2.2194,-0.9386,-0.3988,0.8478,
0.989138,0.2086,0.2265,0.5181,-0.9857,-0.4417,-2.2194,-0.9386,-0.3988,0.8478,
0.992674,0.2086,0.2265,0.5181,-1.3504,-1.4658,-3.3530,-0.9386,-0.3988,0.8478,
0.994993,0.2086,0.2265,0.5181,-1.3504,-1.4658,-3.3530,-1.0284,-0.1141,0.5497,
1.001376,0.2086,0.2265,0.5181,-1.3504,-1.4658,-3.3530,-1.2581,0.1534,0.3182,
1.009511,-0.0075,0.2515,0.6437,-1.3504,-1.4658,-3.3530,-1.2581,0.1534,0.3182,
1.013404,-0.0075,0.2515,0.6437,0.0327,-1.1037,-2.8250,-1.2581,0.1534,0.3182,
1.015064,-0.0075,0.2515,0.6437,0.0327,-1.1037,-2.8250,-1.5147,0.3281,0.1649,
1.021132,-0.0075,0.2515,0.6437,0.0327,-1.1037,-2.8250,-1.6179,0.4210,0.1783,
1.029515,-0.1799,0.2692,0.8600,0.0327,-1.1037,-2.8250,-1.6179,0.4210,0.1783,
1.032028,-0.1799,0.2692,0.8600,0.1569,-0.2348,-0.7500,-1.6179,0.4210,0.1783,
1.034256,-0.1799,0.2692,0.8600,0.1569,-0.2348,-0.7500,-1.5244,0.4112,0.3658,
1.041070,-0.1799,0.2692,0.8600,0.1569,-0.2348,-0.7500,-1.2972,0.3293,0.6591,
1.049080,-0.0635,0.2002,0.8145,0.1569,-0.2348,-0.7500,-1.2972,0.3293,0.6591,
1.051983,-0.0635,0.2002,0.8145,0.1180,-0.3721,-1.5137,-1.2972,0.3293,0.6591,
1.053959,-0.0635,0.2002,0.8145,0.1180,-0.3721,-1.5137,-1.0241,0.1754,0.9547,
1.063035,-0.0635,0.2002,0.8145,0.1180,-0.3721,-1.5137,-0.8152,-0.1129,1.1673,
1.069053,0.0661,0.0732,0.6146,0.1180,-0.3721,-1.5137,-0.8152,-0.1129,1.1673,
1.071855,0.0661,0.0732,0.6146,-0.3936,-0.4358,-3.6602,-0.8152,-0.1129,1.1673,
1.074030,0.0661,0.0732,0.6146,-0.3936,-0.4358,-3.6602,-0.7297,-0.4605,1.2406,
1.081152,0.0661,0.0732,0.6146,-0.3936,-0.4358,-3.6602,-0.8476,-0.5619,1.2919,
1.088803,-0.0429,0.0848,0.5317,-0.3936,-0.4358,-3.6602,-0.8476,-0.5619,1.2919,
1.090457,-0.0429,0.0848,0.5317,-1.5779,-0.1458,-4.4780,-0.8476,-0.5619,1.2919,
1.092324,-0.0429,0.0848,0.5317,-1.5779,-0.1458,-4.4780,-0.9698,-0.4550,1.3903,
1.101058,-0.0429,0.0848,0.5317,-1.5779,-0.1458,-4.4780,-1.0370,-0.2980,1.5014,
1.108787,-0.0216,0.0362,0.6359,-1.5779,-0.1458,-4.4780,-1.0370,-0.2980,1.5014,
1.110795,-0.0216,0.0362,0.6359,-1.4448,-0.4004,-3.4674,-1.0370,-0.2980,1.5014,
1.112664,-0.0216,0.0362,0.6359,-1.4448,-0.4004,-3.4674,-1.0144,-0.1160,1.5839,
1.121077,-0.0216,0.0362,0.6359,-1.4448,-0.4004,-3.4674,-0.9197,0.0893,1.6004,
1.129741,0.1908,-0.0687,0.6833,-1.4448,-0.4004,-3.4674,-0.9197,0.0893,1.6004,
1.132606,0.1908,-0.0687,0.6833,0.6160,-1.1995,-3.0153,-0.9197,0.0893,1.6004,
1.134918,0.1908,-0.0687,0.6833,0.6160,-1.1995,-3.0153,-0.7883,0.3006,1.5479,
1.141077,0.1908,-0.0687,0.6833,0.6160,-1.1995,-3.0153,-0.6295,0.4973,1.4850,
1.149142,0.3026,-0.2882,0.7181,0.6160,-1.1995,-3.0153,-0.6295,0.4973,1.4850,
1.151605,0.3026,-0.2882,0.7181,1.7497,-3.1347,-2.6883,-0.6295,0.4973,1.4850,
1.154019,0.3026,-0.2882,0.7181,1.7497,-3.1347,-2.6883,-0.4627,0.6739,1.4446,
1.163181,0.3026,-0.2882,0.7181,1.7497,-3.1347,-2.6883,-0.3644,0.8022,1.3506,
1.169025,0.3230,-0.4296,0.6298,1.7497,-3.1347,-2.6883,-0.3644,0.8022,1.3506,
1.171255,0.3230,-0.4296,0.6298,2.0221,-4.3085,-3.5671,-0.3644,0.8022,1.3506,
1.173276,0.3230,-0.4296,0.6298,2.0221,-4.3085,-3.5671,-0.3754,0.8150,1.2400,
1.181353,0.3230,-0.4296,0.6298,2.0221,-4.3085,-3.5671,-0.4542,0.6653,1.2974,
1.189119,0.2218,-0.7604,0.7240,2.0221,-4.3085,-3.5671,-0.4542,0.6653,1.2974,
1.192308,0.2218,-0.7604,0.7240,1.1087,-7.2720,-2.6517,-0.4542,0.6653,1.2974,
1.194488,0.2218,-0.7604,0.7240,1.1087,-7.2720,-2.6517,-0.5018,0.3892,1.6823,
1.201384,0.2218,-0.7604,0.7240,1.1087,-7.2720,-2.6517,-0.5544,0.2573,2.2656,
1.209192,0.7790,-0.7476,0.6182,1.1087,-7.2720,-2.6517,-0.5544,0.2573,2.2656,
1.212594,0.7790,-0.7476,0.6182,6.5070,-6.8034,-3.6691,-0.5544,0.2573,2.2656,
1.214663,0.7790,-0.7476,0.6182,6.5070,-6.8034,-3.6691,-0.7938,0.2493,2.7146,
1.221359,0.7790,-0.7476,0.6182,6.5070,-6.8034,-3.6691,-1.2679,0.1510,2.8997,
1.229934,1.3145,-0.5353,0.5485,6.5070,-6.8034,-3.6691,-1.2679,0.1510,2.8997,
1.233022,1.3145,-0.5353,0.5485,11.6011,-4.2892,-4.3005,-1.2679,0.1510,2.8997,
1.235512,1.3145,-0.5353,0.5485,11.6011,-4.2892,-4.3005,-1.8818,-0.1123,2.9205,
1.240811,1.3145,-0.5353,0.5485,11.6011,-4.2892,-4.3005,-2.4774,-0.5833,2.8844,
1.248918,1.3002,-0.4020,1.1945,11.6011,-4.2892,-4.3005,-2.4774,-0.5833,2.8844,
1.251514,1.3002,-0.4020,1.1945,11.2283,-2.3829,2.1432,-2.4774,-0.5833,2.8844,
1.253544,1.3002,-0.4020,1.1945,11.2283,-2.3829,2.1432,-2.8353,-1.0976,2.8875,
1.262556,1.3002,-0.4020,1.1945,11.2283,-2.3829,2.1432,-2.8445,-1.4886,3.0616,
1.268858,1.0977,-0.4514,1.5609,11.2283,-2.3829,2.1432,-2.8445,-1.4886,3.0616,
1.271419,1.0977,-0.4514,1.5609,8.9198,-2.1834,5.9276,-2.8445,-1.4886,3.0616,
1.273040,1.0977,-0.4514,1.5609,8.9198,-2.1834,5.9276,-2.4847,-1.8606,3.7152,
1.281056,1.0977,-0.4514,1.5609,8.9198,-2.1834,5.9276,-2.5635,-1.8423,3.8698,
1.288821,1.4082,-0.3674,1.4079,8.9198,-2.1834,5.9276,-2.5635,-1.8423,3.8698,
1.290817,1.4082,-0.3674,1.4079,11.8126,-0.7472,4.6284,-2.5635,-1.8423,3.8698,
1.292914,1.4082,-0.3674,1.4079,11.8126,-0.7472,4.6284,-2.8018,-1.7623,3.7794,
1.301209,1.4082,-0.3674,1.4079,11.8126,-0.7472,4.6284,-2.9594,-1.5876,3.4990,
1.309187,1.8156,0.0965,1.7000,11.8126,-0.7472,4.6284,-2.9594,-1.5876,3.4990,
1.311492,1.8156,0.0965,1.7000,15.7332,4.4684,7.7426,-2.9594,-1.5876,3.4990,
1.313894,1.8156,0.0965,1.7000,15.7332,4.4684,7.7426,-2.9221,-1.5088,3.0982,
1.321184,1.8156,0.0965,1.7000,15.7332,4.4684,7.7426,-2.7052,-1.4904,2.6505,
1.330111,1.6202,0.1507,1.5775,15.7332,4.4684,7.7426,-2.7052,-1.4904,2.6505,
1.332289,1.6202,0.1507,1.5775,13.7756,5.6136,6.8200,-2.7052,-1.4904,2.6505,
1.334802,1.6202,0.1507,1.5775,13.7756,5.6136,6.8200,-2.3503,-1.5662,2.2742,
1.340680,1.6202,0.1507,1.5775,13.7756,5.6136,6.8200,-1.9783,-1.7537,2.0579,
1.348781,1.4209,0.0024,1.1966,13.7756,5.6136,6.8200,-1.9783,-1.7537,2.0579,
1.350495,1.4209,0.0024,1.1966,11.7302,4.6223,3.3477,-1.9783,-1.7537,2.0579,
1.351880,1.4209,0.0024,1.1966,11.7302,4.6223,3.3477,-1.7132,-1.9370,1.9364,
1.362094,1.4209,0.0024,1.1966,11.7302,4.6223,3.3477,-1.6081,-2.1508,1.8417,
1.368599,1.1933,-0.0809,1.0212,11.7302,4.6223,3.3477,-1.6081,-2.1508,1.8417,
1.370162,1.1933,-0.0809,1.0212,9.3433,4.1658,1.8802,-1.6081,-2.1508,1.8417,
1.371616,1.1933,-0.0809,1.0212,9.3433,4.1658,1.8802,-1.6057,-2.3017,1.7684,
1.380871,1.1933,-0.0809,1.0212,9.3433,4.1658,1.8802,-1.6173,-2.3340,1.7330,
1.388635,1.1168,-0.0768,0.8414,9.3433,4.1658,1.8802,-1.6173,-2.3340,1.7330,
1.390546,1.1168,-0.0768,0.8414,8.4030,4.5488,0.3972,-1.6173,-2.3340,1.7330,
1.392992,1.1168,-0.0768,0.8414,8.4030,4.5488,0.3972,-1.6607,-2.3304,1.7079,
1.401324,1.1168,-0.0768,0.8414,8.4030,4.5488,0.3972,-1.7584,-2.3017,1.6542,
1.409042,1.1194,-0.0672,0.7566,8.4030,4.5488,0.3972,-1.7584,-2.3017,1.6542,
1.411851,1.1194,-0.0672,0.7566,8.2555,4.9952,-0.1242,-1.7584,-2.3017,1.6542,
1.414122,1.1194,-0.0672,0.7566,8.2555,4.9952,-0.1242,-1.8433,-2.2791,1.5491,
1.421285,1.1194,-0.0672,0.7566,8.2555,4.9952,-0.1242,-1.8696,-2.2882,1.4019,
1.430919,1.0856,-0.0486,0.6975,8.2555,4.9952,-0.1242,-1.8696,-2.2882,1.4019,
1.433301,1.0856,-0.0486,0.6975,7.7595,5.5330,-0.3595,-1.8696,-2.2882,1.4019,
1.435685,1.0856,-0.0486,0.6975,7.7595,5.5330,-0.3595,-1.8225,-2.3035,1.2266,
1.441081,1.0856,-0.0486,0.6975,7.7595,5.5330,-0.3595,-1.8176,-2.4654,1.0360,
1.449168,0.4895,0.4081,1.2047,7.7595,5.5330,-0.3595,-1.8176,-2.4654,1.0360,
1.452747,0.4895,0.4081,1.2047,1.5525,10.1581,4.8981,-1.8176,-2.4654,1.0360,
1.454359,0.4895,0.4081,1.2047,1.5525,10.1581,4.8981,-1.9215,-4.0664,2.2943,
1.463289,0.4895,0.4081,1.2047,1.5525,10.1581,4.8981,-1.1995,-3.0683,2.2094,
1.468778,1.5151,-0.1340,0.6773,1.5525,10.1581,4.8981,-1.1995,-3.0683,2.2094,
1.470709,1.5151,-0.1340,0.6773,11.3225,5.1289,0.1385,-1.1995,-3.0683,2.2094,
1.472147,1.5151,-0.1340,0.6773,11.3225,5.1289,0.1385,-1.1652,-2.9638,1.1135,
1.480869,1.5151,-0.1340,0.6773,11.3225,5.1289,0.1385,-1.4212,-2.0958,0.0250,
1.488725,0.7074,-0.0426,0.4955,11.3225,5.1289,0.1385,-1.4212,-2.0958,0.0250,
1.490454,0.7074,-0.0426,0.4955,2.9415,6.0277,-1.3654,-1.4212,-2.0958,0.0250,
1.492007,0.7074,-0.0426,0.4955,2.9415,6.0277,-1.3654,-1.6918,-0.9773,-0.6183,
1.500675,0.7074,-0.0426,0.4955,2.9415,6.0277,-1.3654,-1.8610,-0.1594,-0.9304,
1.508578,0.4613,-0.1813,0.5071,2.9415,6.0277,-1.3654,-1.8610,-0.1594,-0.9304,
1.510203,0.4613,-0.1813,0.5071,0.1712,4.6289,-1.0497,-1.8610,-0.1594,-0.9304,
1.511838,0.4613,-0.1813,0.5071,0.1712,4.6289,-1.0497,-1.9417,0.1943,-1.0031,
1.520693,0.4613,-0.1813,0.5071,0.1712,4.6289,-1.0497,-1.9533,0.2414,-0.8864,
1.528996,0.3464,-0.1606,0.3776,0.1712,4.6289,-1.0497,-1.9533,0.2414,-0.8864,
1.530850,0.3464,-0.1606,0.3776,-1.2141,4.7946,-2.1620,-1.9533,0.2414,-0.8864,
1.532047,0.3464,-0.1606,0.3776,-1.2141,4.7946,-2.1620,-1.8873,0.0691,-0.5468,
1.540438,0.3464,-0.1606,0.3776,-1.2141,4.7946,-2.1620,-1.7853,-0.4177,-0.0385,
1.548302,0.8596,-0.1545,0.4429,-1.2141,4.7946,-2.1620,-1.7853,-0.4177,-0.0385,
1.549422,0.8596,-0.1545,0.4429,3.5872,4.8614,-1.3272,-1.7853,-0.4177,-0.0385,
1.550582,0.8596,-0.1545,0.4429,3.5872,4.8614,-1.3272,-1.6136,-0.6328,0.1539,
1.561717,0.8596,-0.1545,0.4429,3.5872,4.8614,-1.3272,-1.4878,-0.4440,-0.1210,
1.568341,1.2230,-0.2253,0.2544,3.5872,4.8614,-1.3272,-1.4878,-0.4440,-0.1210,
1.569309,1.2230,-0.2253,0.2544,6.8951,4.1774,-2.9373,-1.4878,-0.4440,-0.1210,
1.570428,1.2230,-0.2253,0.2544,6.8951,4.1774,-2.9373,-1.5941,-0.4446,-0.6341,
1.580507,1.2230,-0.2253,0.2544,6.8951,4.1774,-2.9373,-1.8341,-0.5815,-1.1228,
1.588253,0.9152,-0.3374,0.5850,6.8951,4.1774,-2.9373,-1.8341,-0.5815,-1.1228,
1.589167,0.9152,-0.3374,0.5850,3.5464,3.0164,0.5569,-1.8341,-0.5815,-1.1228,
1.590465,0.9152,-0.3374,0.5850,3.5464,3.0164,0.5569,-2.0333,-0.6352,-1.3458,
1.600268,0.9152,-0.3374,0.5850,3.5464,3.0164,0.5569,-2.0516,-0.7042,-1.2242,
1.608209,0.7169,-0.3981,0.9593,3.5464,3.0164,0.5569,-2.0516,-0.7042,-1.2242,
1.609081,0.7169,-0.3981,0.9593,1.2669,2.3417,4.4988,-2.0516,-0.7042,-1.2242,
1.611593,0.7169,-0.3981,0.9593,1.2669,2.3417,4.4988,-1.8500,-0.7696,-0.9048,
1.620249,0.7169,-0.3981,0.9593,1.2669,2.3417,4.4988,-1.5531,-0.7165,-0.6299,
1.628178,1.1580,-0.5228,0.6789,1.2669,2.3417,4.4988,-1.5531,-0.7165,-0.6299,
1.629140,1.1580,-0.5228,0.6789,5.3278,1.0652,2.0038,-1.5531,-0.7165,-0.6299,
1.630867,1.1580,-0.5228,0.6789,5.3278,1.0652,2.0038,-1.4536,-0.2577,-0.7667,
1.640762,1.1580,-0.5228,0.6789,5.3278,1.0652,2.0038,-1.7663,-0.1135,-1.0544,
1.648821,1.2545,-0.5746,0.4427,5.3278,1.0652,2.0038,-1.7663,-0.1135,-1.0544,
1.651050,1.2545,-0.5746,0.4427,6.0494,0.4825,-0.1109,-1.7663,-0.1135,-1.0544,
1.652499,1.2545,-0.5746,0.4427,6.0494,0.4825,-0.1109,-2.0705,-0.0983,-1.3220,
1.663518,1.2545,-0.5746,0.4427,6.0494,0.4825,-0.1109,-2.1628,-0.0060,-1.4087,
1.668756,0.6832,-0.5562,0.7122,6.0494,0.4825,-0.1109,-2.1628,-0.0060,-1.4087,
1.671754,0.6832,-0.5562,0.7122,0.2205,0.5805,2.7512,-2.1628,-0.0060,-1.4087,
1.673591,0.6832,-0.5562,0.7122,0.2205,0.5805,2.7512,-2.0803,-0.2320,-1.2872,
1.681261,0.6832,-0.5562,0.7122,0.2205,0.5805,2.7512,-1.9410,-0.7696,-1.0214,
1.689012,0.9381,-0.7677,0.6431,0.2205,0.5805,2.7512,-1.9410,-0.7696,-1.0214,
1.691272,0.9381,-0.7677,0.6431,2.5039,-1.5494,2.3376,-1.9410,-0.7696,-1.0214,
1.693658,0.9381,-0.7677,0.6431,2.5039,-1.5494,2.3376,-1.6717,-0.6774,-0.6952,
1.701247,0.9381,-0.7677,0.6431,2.5039,-1.5494,2.3376,-1.5214,-0.7079,-0.6305,
1.709022,0.9202,-0.5366,0.7401,2.5039,-1.5494,2.3376,-1.5214,-0.7079,-0.6305,
1.711877,0.9202,-0.5366,0.7401,2.1707,0.6798,3.5089,-1.5214,-0.7079,-0.6305,
1.714305,0.9202,-0.5366,0.7401,2.1707,0.6798,3.5089,-1.5104,-0.9804,-0.6091,
1.721270,0.9202,-0.5366,0.7401,2.1707,0.6798,3.5089,-1.2276,-1.1422,-0.4381,
1.730939,0.7186,-0.4366,0.8184,2.1707,0.6798,3.5089,-1.2276,-1.1422,-0.4381,
1.733488,0.7186,-0.4366,0.8184,0.0464,1.6183,4.4918,-1.2276,-1.1422,-0.4381,
1.736100,0.7186,-0.4366,0.8184,0.0464,1.6183,4.4918,-0.7450,-1.2406,-0.1735,
1.740978,0.7186,-0.4366,0.8184,0.0464,1.6183,4.4918,-0.4145,-1.3420,0.0616,
1.749066,0.6622,-0.2989,0.4944,0.0464,1.6183,4.4918,-0.4145,-1.3420,0.0616,
1.751640,0.6622,-0.2989,0.4944,-0.6131,2.9279,1.4658,-0.4145,-1.3420,0.0616,
1.753480,0.6622,-0.2989,0.4944,-0.6131,2.9279,1.4658,-0.3876,-1.3799,0.2156,
1.763167,0.6622,-0.2989,0.4944,-0.6131,2.9279,1.4658,-0.4817,-1.2681,0.2272,
1.768834,1.0806,-0.3553,0.3439,-0.6131,2.9279,1.4658,-0.4817,-1.2681,0.2272,
1.770686,1.0806,-0.3553,0.3439,3.3938,2.3535,0.1552,-0.4817,-1.2681,0.2272,
1.772266,1.0806,-0.3553,0.3439,3.3938,2.3535,0.1552,-0.5141,-1.0054,0.0787,
1.781082,1.0806,-0.3553,0.3439,3.3938,2.3535,0.1552,-0.5910,-0.8264,-0.1870,
1.788822,0.9952,-0.4539,0.3451,3.3938,2.3535,0.1552,-0.5910,-0.8264,-0.1870,
1.790645,0.9952,-0.4539,0.3451,2.4558,1.3364,0.3060,-0.5910,-0.8264,-0.1870,
1.792406,0.9952,-0.4539,0.3451,2.4558,1.3364,0.3060,-0.5886,-0.7617,-0.4093,
1.801218,0.9952,-0.4539,0.3451,2.4558,1.3364,0.3060,-0.5501,-0.7482,-0.5040,
1.808838,0.9499,-0.4613,0.3046,2.4558,1.3364,0.3060,-0.5501,-0.7482,-0.5040,
1.811041,0.9499,-0.4613,0.3046,1.8770,1.1609,0.0419,-0.5501,-0.7482,-0.5040,
1.812976,0.9499,-0.4613,0.3046,1.8770,1.1609,0.0419,-0.5208,-0.7238,-0.5529,
1.821190,0.9499,-0.4613,0.3046,1.8770,1.1609,0.0419,-0.3754,-0.5149,-0.7007,
1.830835,0.7036,-0.4975,0.3076,1.8770,1.1609,0.0419,-0.3754,-0.5149,-0.7007,
1.833309,0.7036,-0.4975,0.3076,-0.6659,0.6847,0.1717,-0.3754,-0.5149,-0.7007,
1.836833,0.7036,-0.4975,0.3076,-0.6659,0.6847,0.1717,-0.2434,-0.3945,-0.6378,
1.841077,0.7036,-0.4975,0.3076,-0.6659,0.6847,0.1717,-0.1591,-0.2675,-0.4881,
1.849002,0.6935,-0.2832,0.1404,-0.6659,0.6847,0.1717,-0.1591,-0.2675,-0.4881,
1.851234,0.6935,-0.2832,0.1404,-0.8725,2.6614,-1.4195,-0.1591,-0.2675,-0.4881,
1.853288,0.6935,-0.2832,0.1404,-0.8725,2.6614,-1.4195,-0.1732,-0.1410,-0.4381,
1.863223,0.6935,-0.2832,0.1404,-0.8725,2.6614,-1.4195,-0.3901,0.0575,-0.4967,
1.868558,1.0822,-0.4307,0.0861,-0.8725,2.6614,-1.4195,-0.3901,0.0575,-0.4967,
1.870053,1.0822,-0.4307,0.0861,2.8467,1.1081,-1.9088,-0.3901,0.0575,-0.4967,
1.871521,1.0822,-0.4307,0.0861,2.8467,1.1081,-1.9088,-0.4615,-0.0115,-0.6128,
1.880735,1.0822,-0.4307,0.0861,2.8467,1.1081,-1.9088,-0.1708,-0.2620,-0.7459,
1.888602,1.5232,0.3376,-0.3562,2.8467,1.1081,-1.9088,-0.1708,-0.2620,-0.7459,
1.890255,1.5232,0.3376,-0.3562,6.9902,8.4305,-6.1237,-0.1708,-0.2620,-0.7459,
1.891845,1.5232,0.3376,-0.3562,6.9902,8.4305,-6.1237,0.2459,-0.6053,-0.9585,
1.900744,1.5232,0.3376,-0.3562,6.9902,8.4305,-6.1237,-0.0993,-0.5827,-1.3354,
1.908263,1.3764,-0.0083,-0.0315,6.9902,8.4305,-6.1237,-0.0993,-0.5827,-1.3354,
1.909234,1.3764,-0.0083,-0.0315,5.3055,4.7236,-2.7816,-0.0993,-0.5827,-1.3354,
1.910423,1.3764,-0.0083,-0.0315,5.3055,4.7236,-2.7816,-0.7987,-0.8704,-1.6518,
1.920669,1.3764,-0.0083,-0.0315,5.3055,4.7236,-2.7816,-0.7938,-1.1325,-1.9225,
1.928842,1.1667,-0.3768,0.2227,5.3055,4.7236,-2.7816,-0.7938,-1.1325,-1.9225,
1.930259,1.1667,-0.3768,0.2227,2.9687,0.7515,-0.0001,-0.7938,-1.1325,-1.9225,
1.931582,1.1667,-0.3768,0.2227,2.9687,0.7515,-0.0001,-0.1390,-0.8612,-2.2951,
1.940472,1.1667,-0.3768,0.2227,2.9687,0.7515,-0.0001,0.4120,-0.3420,-2.5162,
1.948351,0.2508,-0.6271,-0.6624,2.9687,0.7515,-0.0001,0.4120,-0.3420,-2.5162,
1.949509,0.2508,-0.6271,-0.6624,-6.2747,-2.1399,-8.4586,0.4120,-0.3420,-2.5162,
1.950736,0.2508,-0.6271,-0.6624,-6.2747,-2.1399,-8.4586,0.4737,-0.1508,-2.1363,
1.960484,0.2508,-0.6271,-0.6624,-6.2747,-2.1399,-8.4586,0.1677,-0.4697,-1.3647,
1.968341,0.7681,-0.4399,-0.5222,-6.2747,-2.1399,-8.4586,0.1677,-0.4697,-1.3647,
1.969433,0.7681,-0.4399,-0.5222,-1.3812,-0.6144,-6.8909,0.1677,-0.4697,-1.3647,
1.970727,0.7681,-0.4399,-0.5222,-1.3812,-0.6144,-6.8909,-0.1793,-0.8295,-0.7099,
1.980644,0.7681,-0.4399,-0.5222,-1.3812,-0.6144,-6.8909,-0.3027,-0.8325,-0.5938,
1.988276,0.7285,-0.3950,-0.3128,-1.3812,-0.6144,-6.8909,-0.3027,-0.8325,-0.5938,
1.989163,0.7285,-0.3950,-0.3128,-1.8634,-0.2607,-4.5081,-0.3027,-0.8325,-0.5938,
1.990327,0.7285,-0.3950,-0.3128,-1.8634,-0.2607,-4.5081,-0.5006,-0.6120,-0.7924,
2.000268,0.7285,-0.3950,-0.3128,-1.8634,-0.2607,-4.5081,-0.5037,-0.2962,-0.8174,
2.008228,0.1334,-0.1250,0.2690,-1.8634,-0.2607,-4.5081,-0.5037,-0.2962,-0.8174,
2.009072,0.1334,-0.1250,0.2690,-7.7680,2.2871,1.4201,-0.5037,-0.2962,-0.8174,
2.010406,0.1334,-0.1250,0.2690,-7.7680,2.2871,1.4201,-0.2551,-0.3200,-0.2798,
2.020272,0.1334,-0.1250,0.2690,-7.7680,2.2871,1.4201,-0.0700,-0.1514,0.2968,
2.028562,0.6532,0.1463,0.1024,-7.7680,2.2871,1.4201,-0.0700,-0.1514,0.2968,
2.029517,0.6532,0.1463,0.1024,-2.7011,4.9183,-0.0848,-0.0700,-0.1514,0.2968,
2.031375,0.6532,0.1463,0.1024,-2.7011,4.9183,-0.0848,-0.0846,-0.0726,0.5155,
2.041095,0.6532,0.1463,0.1024,-2.7011,4.9183,-0.0848,-0.2819,-0.1905,0.4752,
2.049047,0.9802,-0.5570,-0.1893,-2.7011,4.9183,-0.0848,-0.2819,-0.1905,0.4752,
2.051999,0.9802,-0.5570,-0.1893,0.5264,-1.8803,-2.8221,-0.2819,-0.1905,0.4752,
2.053584,0.9802,-0.5570,-0.1893,0.5264,-1.8803,-2.8221,-0.4511,-0.3884,0.3958,
2.061059,0.9802,-0.5570,-0.1893,0.5264,-1.8803,-2.8221,-0.4023,-0.5033,0.2846,
2.069041,0.5562,-0.9712,-0.0820,0.5264,-1.8803,-2.8221,-0.4023,-0.5033,0.2846,
2.071461,0.5562,-0.9712,-0.0820,-3.5857,-5.7888,-1.5850,-0.4023,-0.5033,0.2846,
2.073176,0.5562,-0.9712,-0.0820,-3.5857,-5.7888,-1.5850,-0.3901,-0.5534,0.0482,
2.081017,0.5562,-0.9712,-0.0820,-3.5857,-5.7888,-1.5850,-0.6943,-0.5753,-0.4228,
2.089024,-0.0045,-0.9208,0.0294,-3.5857,-5.7888,-1.5850,-0.6943,-0.5753,-0.4228,
2.091274,-0.0045,-0.9208,0.0294,-9.0323,-5.1455,-0.2994,-0.6943,-0.5753,-0.4228,
2.093388,-0.0045,-0.9208,0.0294,-9.0323,-5.1455,-0.2994,-1.3186,-0.3310,-0.5370,
2.101252,-0.0045,-0.9208,0.0294,-9.0323,-5.1455,-0.2994,-1.9209,0.2805,-0.2139,
2.109047,0.4066,-0.4887,0.1201,-9.0323,-5.1455,-0.2994,-1.9209,0.2805,-0.2139,
2.111761,0.4066,-0.4887,0.1201,-4.9596,-0.7934,0.7382,-1.9209,0.2805,-0.2139,
2.114098,0.4066,-0.4887,0.1201,-4.9596,-0.7934,0.7382,-2.2953,0.7154,0.1960,
2.121270,0.4066,-0.4887,0.1201,-4.9596,-0.7934,0.7382,-2.4090,0.6806,0.5448,
2.131218,0.8322,-0.3182,0.0320,-4.9596,-0.7934,0.7382,-2.4090,0.6806,0.5448,
2.133540,0.8322,-0.3182,0.0320,-0.7063,1.0652,-0.0477,-2.4090,0.6806,0.5448,
2.135659,0.8322,-0.3182,0.0320,-0.7063,1.0652,-0.0477,-2.3326,0.5157,0.8087,
2.141042,0.8322,-0.3182,0.0320,-0.7063,1.0652,-0.0477,-2.3680,0.2835,1.0158,
2.149079,1.2358,-0.3387,-0.1093,-0.7063,1.0652,-0.0477,-2.3680,0.2835,1.0158,
2.151600,1.2358,-0.3387,-0.1093,3.3377,1.0567,-1.2900,-2.3680,0.2835,1.0158,
2.153882,1.2358,-0.3387,-0.1093,3.3377,1.0567,-1.2900,-2.5000,0.0392,1.1704,
2.162384,1.2358,-0.3387,-0.1093,3.3377,1.0567,-1.2900,-2.5629,-0.2956,1.1960,
2.169118,1.4256,-0.4755,0.1438,3.3377,1.0567,-1.2900,-2.5629,-0.2956,1.1960,
2.171593,1.4256,-0.4755,0.1438,5.3024,-0.0757,1.4370,-2.5629,-0.2956,1.1960,
2.173939,1.4256,-0.4755,0.1438,5.3024,-0.0757,1.4370,-2.4853,-0.6273,1.1282,
2.181338,1.4256,-0.4755,0.1438,5.3024,-0.0757,1.4370,-2.2514,-1.1410,1.1814,
2.189115,1.1135,-0.5115,0.1788,5.3024,-0.0757,1.4370,-2.2514,-1.1410,1.1814,
2.191377,1.1135,-0.5115,0.1788,2.3471,-0.2521,2.1273,-2.2514,-1.1410,1.1814,
2.193715,1.1135,-0.5115,0.1788,2.3471,-0.2521,2.1273,-1.4627,-1.2174,1.2711,
2.201234,1.1135,-0.5115,0.1788,2.3471,-0.2521,2.1273,-1.1194,-1.1972,1.3396,
2.209156,0.9494,-0.5480,0.0107,2.3471,-0.2521,2.1273,-1.1194,-1.1972,1.3396,
2.211862,0.9494,-0.5480,0.0107,0.8662,-0.4177,0.7748,-1.1194,-1.1972,1.3396,
2.213980,0.9494,-0.5480,0.0107,0.8662,-0.4177,0.7748,-0.8250,-1.1068,1.3701,
2.221258,0.9494,-0.5480,0.0107,0.8662,-0.4177,0.7748,-0.5238,-0.9975,1.3445,
2.231139,1.0420,-0.3496,0.1860,0.8662,-0.4177,0.7748,-0.5238,-0.9975,1.3445,
2.233401,1.0420,-0.3496,0.1860,1.8959,1.7031,2.6696,-0.5238,-0.9975,1.3445,
2.235650,1.0420,-0.3496,0.1860,1.8959,1.7031,2.6696,-0.1995,-0.8215,1.2516,
2.241133,1.0420,-0.3496,0.1860,1.8959,1.7031,2.6696,0.0724,-0.6089,1.1917,
2.249055,0.8703,-0.3205,0.1018,1.8959,1.7031,2.6696,0.0724,-0.6089,1.1917,
2.251572,0.8703,-0.3205,0.1018,0.3133,2.1370,1.8960,0.0724,-0.6089,1.1917,
2.254042,0.8703,-0.3205,0.1018,0.3133,2.1370,1.8960,0.2220,-0.3560,1.2595,
2.261278,0.8703,-0.3205,0.1018,0.3133,2.1370,1.8960,0.2324,-0.1459,1.3921,
2.269477,1.1109,-0.4076,-0.0028,0.3133,2.1370,1.8960,0.2324,-0.1459,1.3921,
2.273731,1.1109,-0.4076,-0.0028,2.7683,1.4398,0.8283,0.2324,-0.1459,1.3921,
2.276370,1.1109,-0.4076,-0.0028,2.7683,1.4398,0.8283,0.1952,-0.0457,1.4959,
2.283427,1.1109,-0.4076,-0.0028,2.7683,1.4398,0.8283,0.1866,-0.0207,1.4978,
2.289002,1.2692,-0.3491,-0.0089,2.7683,1.4398,0.8283,0.1866,-0.0207,1.4978,
2.291120,1.2692,-0.3491,-0.0089,4.4235,2.1745,0.7045,0.1866,-0.0207,1.4978,
2.292820,1.2692,-0.3491,-0.0089,4.4235,2.1745,0.7045,0.2416,-0.0298,1.4404,
2.301074,1.2692,-0.3491,-0.0089,4.4235,2.1745,0.7045,0.3699,-0.0506,1.3561,
2.308987,1.1761,-0.2233,0.1418,4.4235,2.1745,0.7045,0.3699,-0.0506,1.3561,
2.311058,1.1761,-0.2233,0.1418,3.5920,3.5322,2.0994,0.3699,-0.0506,1.3561,
2.313100,1.1761,-0.2233,0.1418,3.5920,3.5322,2.0994,0.5861,-0.0085,1.2620,
2.321206,1.1761,-0.2233,0.1418,3.5920,3.5322,2.0994,0.8793,0.2084,1.2461,
2.331405,1.1592,-0.2671,0.1608,3.5920,3.5322,2.0994,0.8793,0.2084,1.2461,
2.333639,1.1592,-0.2671,0.1608,3.4834,3.1971,2.1280,0.8793,0.2084,1.2461,
2.336650,1.1592,-0.2671,0.1608,3.4834,3.1971,2.1280,1.1658,0.5205,1.3047,
2.340960,1.1592,-0.2671,0.1608,3.4834,3.1971,2.1280,1.3576,0.7215,1.3616,
2.348774,1.4314,-0.3139,0.2318,3.4834,3.1971,2.1280,1.3576,0.7215,1.3616,
2.351805,1.4314,-0.3139,0.2318,6.2070,2.8349,2.5244,1.3576,0.7215,1.3616,
2.353541,1.4314,-0.3139,0.2318,6.2070,2.8349,2.5244,1.4774,0.6531,1.3335,
2.360747,1.4314,-0.3139,0.2318,6.2070,2.8349,2.5244,1.6215,0.4094,1.1917,
2.368690,1.6145,-0.3996,0.1565,6.2070,2.8349,2.5244,1.6215,0.4094,1.1917,
2.370812,1.6145,-0.3996,0.1565,8.0522,2.0673,1.4768,1.6215,0.4094,1.1917,
2.372223,1.6145,-0.3996,0.1565,8.0522,2.0673,1.4768,1.9984,0.0331,0.6639,
2.380801,1.6145,-0.3996,0.1565,8.0522,2.0673,1.4768,2.1090,-0.1276,0.5253,
2.388733,1.3500,-0.4422,-0.1051,8.0522,2.0673,1.4768,2.1090,-0.1276,0.5253,
2.390513,1.3500,-0.4422,-0.1051,5.4381,1.6127,-1.3366,2.1090,-0.1276,0.5253,
2.392126,1.3500,-0.4422,-0.1051,5.4381,1.6127,-1.3366,2.1139,-0.1972,0.3976,
2.400880,1.3500,-0.4422,-0.1051,5.4381,1.6127,-1.3366,2.0613,0.1485,0.0439,
2.408642,1.0472,-0.9015,0.1311,5.4381,1.6127,-1.3366,2.0613,0.1485,0.0439,
2.410417,1.0472,-0.9015,0.1311,2.4349,-2.9536,0.7280,2.0613,0.1485,0.0439,
2.412862,1.0472,-0.9015,0.1311,2.4349,-2.9536,0.7280,1.9257,0.6720,-0.2927,
2.421250,1.0472,-0.9015,0.1311,2.4349,-2.9536,0.7280,1.7565,1.1180,-0.4472,
2.431669,0.9347,-0.9720,-0.0713,2.4349,-2.9536,0.7280,1.7565,1.1180,-0.4472,
2.434119,0.9347,-0.9720,-0.0713,1.2753,-3.7632,-1.5919,1.7565,1.1180,-0.4472,
2.436574,0.9347,-0.9720,-0.0713,1.2753,-3.7632,-1.5919,1.5507,1.2450,-0.5724,
2.440990,0.9347,-0.9720,-0.0713,1.2753,-3.7632,-1.5919,1.3711,1.1943,-0.8406,
2.449077,0.8677,-0.9881,0.0204,1.2753,-3.7632,-1.5919,1.3711,1.1943,-0.8406,
2.451569,0.8677,-0.9881,0.0204,0.5588,-4.0662,-1.0282,1.3711,1.1943,-0.8406,
2.453927,0.8677,-0.9881,0.0204,0.5588,-4.0662,-1.0282,1.3308,1.1589,-1.1387,
2.461471,0.8677,-0.9881,0.0204,0.5588,-4.0662,-1.0282,1.4981,1.0709,-1.0294,
2.469094,0.7466,-1.1311,0.3112,0.5588,-4.0662,-1.0282,1.4981,1.0709,-1.0294,
2.471823,0.7466,-1.1311,0.3112,-0.6992,-5.6495,1.5107,1.4981,1.0709,-1.0294,
2.473988,0.7466,-1.1311,0.3112,-0.6992,-5.6495,1.5107,1.7828,0.8290,-0.6561,
2.482462,0.7466,-1.1311,0.3112,-0.6992,-5.6495,1.5107,2.1609,0.5902,-0.4326,
2.488973,0.6259,-1.2144,0.5320,-0.6992,-5.6495,1.5107,2.1609,0.5902,-0.4326,
2.491469,0.6259,-1.2144,0.5320,-1.8672,-6.5451,3.3533,2.1609,0.5902,-0.4326,
2.493451,0.6259,-1.2144,0.5320,-1.8672,-6.5451,3.3533,2.5665,0.4735,-0.2108,
2.501201,0.6259,-1.2144,0.5320,-1.8672,-6.5451,3.3533,2.8371,0.3092,0.0897,
2.508970,0.6826,-1.2460,0.0996,-1.8672,-6.5451,3.3533,2.8371,0.3092,0.0897,
2.512152,0.6826,-1.2460,0.0996,-1.2417,-6.8706,-1.2049,2.8371,0.3092,0.0897,
2.514490,0.6826,-1.2460,0.0996,-1.2417,-6.8706,-1.2049,2.8207,0.2218,0.2669,
2.521181,0.6826,-1.2460,0.0996,-1.2417,-6.8706,-1.2049,2.5384,0.3361,0.2003,
2.532009,0.6291,-1.0476,0.0232,-1.2417,-6.8706,-1.2049,2.5384,0.3361,0.2003,
2.534420,0.6291,-1.0476,0.0232,-1.6655,-4.8986,-2.2302,2.5384,0.3361,0.2003,
2.536919,0.6291,-1.0476,0.0232,-1.6655,-4.8986,-2.2302,2.2690,0.4839,0.0134,
2.540970,0.6291,-1.0476,0.0232,-1.6655,-4.8986,-2.2302,1.9740,0.7679,-0.1949,
2.549003,0.6745,-0.8328,-0.2503,-1.6655,-4.8986,-2.2302,1.9740,0.7679,-0.1949,
2.551737,0.6745,-0.8328,-0.2503,-1.1468,-2.7982,-5.1412,1.9740,0.7679,-0.1949,
2.554104,0.6745,-0.8328,-0.2503,-1.1468,-2.7982,-5.1412,1.3350,1.1803,-0.5755,
2.561322,0.6745,-0.8328,-0.2503,-1.1468,-2.7982,-5.1412,1.0925,1.0777,-0.7227,
2.569209,0.6927,-0.5931,-0.2982,-1.1468,-2.7982,-5.1412,1.0925,1.0777,-0.7227,
2.572689,0.6927,-0.5931,-0.2982,-0.9438,-0.5027,-5.7840,1.0925,1.0777,-0.7227,
2.574776,0.6927,-0.5931,-0.2982,-0.9438,-0.5027,-5.7840,0.9166,0.9885,-0.9115,
2.581947,0.6927,-0.5931,-0.2982,-0.9438,-0.5027,-5.7840,0.8298,0.9512,-1.0837,
2.588943,0.5720,-0.3546,-0.1379,-0.9438,-0.5027,-5.7840,0.8298,0.9512,-1.0837,
2.591307,0.5720,-0.3546,-0.1379,-2.1608,1.7300,-4.3102,0.8298,0.9512,-1.0837,
2.593332,0.5720,-0.3546,-0.1379,-2.1608,1.7300,-4.3102,0.8274,0.9940,-1.0929,
2.601256,0.5720,-0.3546,-0.1379,-2.1608,1.7300,-4.3102,0.7541,1.3574,-0.8950,
2.609021,0.5007,-0.2180,-0.2392,-2.1608,1.7300,-4.3102,0.7541,1.3574,-0.8950,
2.610729,0.5007,-0.2180,-0.2392,-2.8994,2.9562,-5.3924,0.7541,1.3574,-0.8950,
2.613249,0.5007,-0.2180,-0.2392,-2.8994,2.9562,-5.3924,0.5293,1.8987,-0.6635,
2.621282,0.5007,-0.2180,-0.2392,-2.8994,2.9562,-5.3924,0.1994,2.3770,-0.5101,
2.632519,0.5163,-0.1902,-0.2165,-2.8994,2.9562,-5.3924,0.1994,2.3770,-0.5101,
2.634782,0.5163,-0.1902,-0.2165,-2.7050,3.1868,-5.3404,0.1994,2.3770,-0.5101,
2.637319,0.5163,-0.1902,-0.2165,-2.7050,3.1868,-5.3404,-0.1738,2.7245,-0.4527,
2.641103,0.5163,-0.1902,-0.2165,-2.7050,3.1868,-5.3404,-0.5458,2.8834,-0.4191,
2.649020,0.3795,-0.2883,-0.1389,-2.7050,3.1868,-5.3404,-0.5458,2.8834,-0.4191,
2.652075,0.3795,-0.2883,-0.1389,-3.9462,2.2566,-4.7648,-0.5458,2.8834,-0.4191,
2.654394,0.3795,-0.2883,-0.1389,-3.9462,2.2566,-4.7648,-0.9062,2.9164,-0.3586,
2.661493,0.3795,-0.2883,-0.1389,-3.9462,2.2566,-4.7648,-1.2593,2.9500,-0.2768,
2.669095,0.1812,-0.4079,-0.0627,-3.9462,2.2566,-4.7648,-1.2593,2.9500,-0.2768,
2.672224,0.1812,-0.4079,-0.0627,-5.7449,1.2151,-4.1427,-1.2593,2.9500,-0.2768,
2.674387,0.1812,-0.4079,-0.0627,-5.7449,1.2151,-4.1427,-1.5819,2.8919,-0.1754,
2.681889,0.1812,-0.4079,-0.0627,-5.7449,1.2151,-4.1427,-1.8268,2.7557,0.0225,
2.689074,0.1449,-0.4818,0.0834,-5.7449,1.2151,-4.1427,-1.8268,2.7557,0.0225,
2.691820,0.1449,-0.4818,0.0834,-5.9022,0.6942,-2.8199,-1.8268,2.7557,0.0225,
2.693870,0.1449,-0.4818,0.0834,-5.9022,0.6942,-2.8199,-1.9734,2.5926,0.4153,
2.701441,0.1449,-0.4818,0.0834,-5.9022,0.6942,-2.8199,-2.0669,2.4619,1.0555,
2.709084,0.2785,-0.4080,0.1196,-5.9022,0.6942,-2.8199,-2.0669,2.4619,1.0555,
2.712208,0.2785,-0.4080,0.1196,-4.3189,1.7250,-2.5342,-2.0669,2.4619,1.0555,
2.714326,0.2785,-0.4080,0.1196,-4.3189,1.7250,-2.5342,-2.2135,2.4472,1.9229,
2.721320,0.2785,-0.4080,0.1196,-4.3189,1.7250,-2.5342,-2.4444,2.7435,2.9327,
2.731993,0.3313,-0.3257,0.4281,-4.3189,1.7250,-2.5342,-2.4444,2.7435,2.9327,
2.734393,0.3313,-0.3257,0.4281,-3.3139,3.0542,0.4379,-2.4444,2.7435,2.9327,
2.736630,0.3313,-0.3257,0.4281,-3.3139,3.0542,0.4379,-2.7071,3.2762,3.9700,
2.741152,0.3313,-0.3257,0.4281,-3.3139,3.0542,0.4379,-3.1970,4.2829,4.0830,
2.749002,0.3606,-0.4977,0.4699,-3.3139,3.0542,0.4379,-3.1970,4.2829,4.0830,
2.751875,0.3606,-0.4977,0.4699,-2.2088,2.0906,0.7784,-3.1970,4.2829,4.0830,
2.753952,0.3606,-0.4977,0.4699,-2.2088,2.0906,0.7784,-3.7700,3.5193,2.7299,
2.761479,0.3606,-0.4977,0.4699,-2.2088,2.0906,0.7784,-3.8604,2.6842,1.1551,
2.769050,0.5172,-0.6615,1.2603,-2.2088,2.0906,0.7784,-3.8604,2.6842,1.1551,
2.771793,0.5172,-0.6615,1.2603,-0.1529,0.9391,8.6316,-3.8604,2.6842,1.1551,
2.773953,0.5172,-0.6615,1.2603,-0.1529,0.9391,8.6316,-3.3729,2.1070,0.0451,
2.782251,0.5172,-0.6615,1.2603,-0.1529,0.9391,8.6316,-2.4982,1.6751,-0.1815,
2.789024,0.6502,-1.2847,1.7571,-0.1529,0.9391,8.6316,-2.4982,1.6751,-0.1815,
2.791443,0.6502,-1.2847,1.7571,1.3120,-5.0115,13.5951,-2.4982,1.6751,-0.1815,
2.793425,0.6502,-1.2847,1.7571,1.3120,-5.0115,13.5951,-1.4249,1.2487,0.0812,
2.801202,0.6502,-1.2847,1.7571,1.3120,-5.0115,13.5951,-0.3015,0.7014,0.3359,
2.809060,0.9797,-1.1005,1.7772,1.3120,-5.0115,13.5951,-0.3015,0.7014,0.3359,
2.811736,0.9797,-1.1005,1.7772,4.6439,-3.1273,13.8158,-0.3015,0.7014,0.3359,
2.814039,0.9797,-1.1005,1.7772,4.6439,-3.1273,13.8158,0.6521,0.0349,0.4324,
2.821143,0.9797,-1.1005,1.7772,4.6439,-3.1273,13.8158,1.2629,-0.9779,0.2602,
2.831994,0.7266,-0.6532,0.8016,4.6439,-3.1273,13.8158,1.2629,-0.9779,0.2602,
2.834341,0.7266,-0.6532,0.8016,2.1865,1.1691,4.0445,1.2629,-0.9779,0.2602,
2.837781,0.7266,-0.6532,0.8016,2.1865,1.1691,4.0445,1.4511,-2.0341,-0.0001,
2.841083,0.7266,-0.6532,0.8016,2.1865,1.1691,4.0445,1.2428,-2.5069,-0.1167,
2.849126,0.4257,-0.4181,0.3856,2.1865,1.1691,4.0445,1.2428,-2.5069,-0.1167,
2.852459,0.4257,-0.4181,0.3856,-0.9377,3.3000,-0.1369,1.2428,-2.5069,-0.1167,
2.854657,0.4257,-0.4181,0.3856,-0.9377,3.3000,-0.1369,0.8683,-2.3682,-0.1473,
2.861184,0.4257,-0.4181,0.3856,-0.9377,3.3000,-0.1369,0.5397,-2.0445,-0.1454,
2.869266,0.4354,-0.7040,0.4507,-0.9377,3.3000,-0.1369,0.5397,-2.0445,-0.1454,
2.872525,0.4354,-0.7040,0.4507,-1.0181,0.3836,0.5174,0.5397,-2.0445,-0.1454,
2.874430,0.4354,-0.7040,0.4507,-1.0181,0.3836,0.5174,0.3405,-1.7311,-0.0972,
2.882044,0.4354,-0.7040,0.4507,-1.0181,0.3836,0.5174,0.2972,-1.4825,-0.0074,
2.888953,0.5602,-1.2006,0.3941,-1.0181,0.3836,0.5174,0.2972,-1.4825,-0.0074,
2.891119,0.5602,-1.2006,0.3941,0.1059,-4.5248,0.0222,0.2972,-1.4825,-0.0074,
2.893154,0.5602,-1.2006,0.3941,0.1059,-4.5248,0.0222,0.3570,-1.2736,0.1148,
2.901277,0.5602,-1.2006,0.3941,0.1059,-4.5248,0.0222,0.4548,-0.9712,0.2009,
2.908938,0.8294,-1.0960,-0.0697,0.1059,-4.5248,0.0222,0.4548,-0.9712,0.2009,
2.911827,0.8294,-1.0960,-0.0697,2.6849,-3.5098,-4.4596,0.4548,-0.9712,0.2009,
2.914338,0.8294,-1.0960,-0.0697,2.6849,-3.5098,-4.4596,0.5085,-0.6273,0.1129,
2.921136,0.8294,-1.0960,-0.0697,2.6849,-3.5098,-4.4596,-0.0510,-0.4330,-0.4307,
2.932934,0.6852,-0.8198,-0.2719,2.6849,-3.5098,-4.4596,-0.0510,-0.4330,-0.4307,
2.935478,0.6852,-0.8198,-0.2719,1.2005,-0.8140,-6.3581,-0.0510,-0.4330,-0.4307,
2.938037,0.6852,-0.8198,-0.2719,1.2005,-0.8140,-6.3581,-0.4090,-0.1141,-0.3855,
2.941093,0.6852,-0.8198,-0.2719,1.2005,-0.8140,-6.3581,-0.7419,0.3629,-0.3049,
2.949255,0.3039,-0.9161,0.1382,1.2005,-0.8140,-6.3581,-0.7419,0.3629,-0.3049,
2.952322,0.3039,-0.9161,0.1382,-2.5600,-1.7114,-2.2084,-0.7419,0.3629,-0.3049,
2.954308,0.3039,-0.9161,0.1382,-2.5600,-1.7114,-2.2084,-1.0278,-0.1288,-0.3733,
2.960874,0.3039,-0.9161,0.1382,-2.5600,-1.7114,-2.2084,-0.7358,-1.4953,-0.4032,
2.970617,0.1085,-0.8443,-0.1007,-2.5600,-1.7114,-2.2084,-0.7358,-1.4953,-0.4032,
2.972519,0.1085,-0.8443,-0.1007,-4.5405,-0.9191,-4.2532,-0.7358,-1.4953,-0.4032,
2.974494,0.1085,-0.8443,-0.1007,-4.5405,-0.9191,-4.2532,0.0278,-2.4984,-0.0862,
2.981780,0.1085,-0.8443,-0.1007,-4.5405,-0.9191,-4.2532,0.4780,-2.7091,0.4746,
2.988925,0.3225,-0.8865,-0.7021,-4.5405,-0.9191,-4.2532,0.4780,-2.7091,0.4746,
2.991547,0.3225,-0.8865,-0.7021,-2.5325,-1.2308,-9.7378,0.4780,-2.7091,0.4746,
2.993390,0.3225,-0.8865,-0.7021,-2.5325,-1.2308,-9.7378,0.4664,-2.3505,1.0751,
3.001134,0.3225,-0.8865,-0.7021,-2.5325,-1.2308,-9.7378,0.1493,-1.6639,1.6670,
3.008981,0.4620,-0.8750,-0.6209,-2.5325,-1.2308,-9.7378,0.1493,-1.6639,1.6670,
3.011725,0.4620,-0.8750,-0.6209,-1.0405,-0.8933,-8.5674,0.1493,-1.6639,1.6670,
3.013679,0.4620,-0.8750,-0.6209,-1.0405,-0.8933,-8.5674,-0.3351,-0.9052,2.2046,
3.021087,0.4620,-0.8750,-0.6209,-1.0405,-0.8933,-8.5674,-0.9117,-0.2461,2.5973,
3.032096,0.5466,-0.7934,-0.4704,-1.0405,-0.8933,-8.5674,-0.9117,-0.2461,2.5973,
3.033838,0.5466,-0.7934,-0.4704,0.1414,0.2551,-6.7271,-0.9117,-0.2461,2.5973,
3.035767,0.5466,-0.7934,-0.4704,0.1414,0.2551,-6.7271,-1.5086,0.1161,2.7635,
3.040912,0.5466,-0.7934,-0.4704,0.1414,0.2551,-6.7271,-2.0864,-0.1154,2.6444,
3.048785,0.5827,-0.7515,-0.4037,0.1414,0.2551,-6.7271,-2.0864,-0.1154,2.6444,
3.051334,0.5827,-0.7515,-0.4037,0.9151,1.0342,-5.5807,-2.0864,-0.1154,2.6444,
3.053496,0.5827,-0.7515,-0.4037,0.9151,1.0342,-5.5807,-2.6356,-0.9712,2.3518,
3.060959,0.5827,-0.7515,-0.4037,0.9151,1.0342,-5.5807,-3.1286,-2.0762,2.0964,
3.069035,0.4272,-0.8146,-0.1600,0.9151,1.0342,-5.5807,-3.1286,-2.0762,2.0964,
3.071767,0.4272,-0.8146,-0.1600,-0.2899,0.7015,-2.4083,-3.1286,-2.0762,2.0964,
3.073230,0.4272,-0.8146,-0.1600,-0.2899,0.7015,-2.4083,-3.3625,-2.9657,2.0634,
3.081647,0.4272,-0.8146,-0.1600,-0.2899,0.7015,-2.4083,-3.3149,-3.4550,2.2162,
3.088874,0.2817,-0.8684,0.0198,-0.2899,0.7015,-2.4083,-3.3149,-3.4550,2.2162,
3.090665,0.2817,-0.8684,0.0198,-1.3746,0.3814,0.3005,-3.3149,-3.4550,2.2162,
3.092382,0.2817,-0.8684,0.0198,-1.3746,0.3814,0.3005,-3.1151,-3.5741,2.4312,
3.101139,0.2817,-0.8684,0.0198,-1.3746,0.3814,0.3005,-2.9404,-3.2564,2.6694,
3.108903,0.1849,-1.0089,0.1636,-1.3746,0.3814,0.3005,-2.9404,-3.2564,2.6694,
3.111363,0.1849,-1.0089,0.1636,-1.8295,-0.8279,2.5208,-2.9404,-3.2564,2.6694,
3.113358,0.1849,-1.0089,0.1636,-1.8295,-0.8279,2.5208,-2.6454,-3.1654,2.8105,
3.121155,0.1849,-1.0089,0.1636,-1.8295,-0.8279,2.5208,-2.2764,-3.1416,3.0836,
3.129011,0.1440,-1.1598,0.4185,-1.8295,-0.8279,2.5208,-2.2764,-3.1416,3.0836,
3.131527,0.1440,-1.1598,0.4185,-1.6109,-2.1584,5.6004,-2.2764,-3.1416,3.0836,
3.133260,0.1440,-1.1598,0.4185,-1.6109,-2.1584,5.6004,-1.6167,-2.9846,3.4238,
3.141210,0.1440,-1.1598,0.4185,-1.6109,-2.1584,5.6004,-0.8916,-2.7934,3.7134,
3.148956,0.4115,-1.0630,0.0561,-1.6109,-2.1584,5.6004,-0.8916,-2.7934,3.7134,
3.151585,0.4115,-1.0630,0.0561,1.7360,-1.0537,2.3436,-0.8916,-2.7934,3.7134,
3.153623,0.4115,-1.0630,0.0561,1.7360,-1.0537,2.3436,-0.3375,-2.6663,3.8576,
3.161005,0.4115,-1.0630,0.0561,1.7360,-1.0537,2.3436,-0.1078,-2.5833,3.7580,
3.168973,0.6296,-0.9462,-0.2042,1.7360,-1.0537,2.3436,-0.1078,-2.5833,3.7580,
3.171620,0.6296,-0.9462,-0.2042,4.5915,0.2239,-0.1328,-0.1078,-2.5833,3.7580,
3.173488,0.6296,-0.9462,-0.2042,4.5915,0.2239,-0.1328,-0.1903,-2.4715,3.4190,
3.182702,0.6296,-0.9462,-0.2042,4.5915,0.2239,-0.1328,-0.4188,-2.1929,2.8918,
3.189080,0.6597,-0.8807,-0.2740,4.5915,0.2239,-0.1328,-0.4188,-2.1929,2.8918,
3.191407,0.6597,-0.8807,-0.2740,5.4337,0.9255,-0.7414,-0.4188,-2.1929,2.8918,
3.193312,0.6597,-0.8807,-0.2740,5.4337,0.9255,-0.7414,-0.6741,-1.7256,2.2491,
3.201318,0.6597,-0.8807,-0.2740,5.4337,0.9255,-0.7414,-0.9979,-1.0622,1.5998,
3.209158,0.4697,-0.9577,-0.2042,5.4337,0.9255,-0.7414,-0.9979,-1.0622,1.5998,
3.211178,0.4697,-0.9577,-0.2042,3.8399,0.1651,0.0908,-0.9979,-1.0622,1.5998,
3.213587,0.4697,-0.9577,-0.2042,3.8399,0.1651,0.0908,-1.4389,-0.2082,1.1459,
3.221265,0.4697,-0.9577,-0.2042,3.8399,0.1651,0.0908,-1.9533,0.6818,0.9358,
3.229193,0.4528,-0.9043,0.0710,3.8399,0.1651,0.0908,-1.9533,0.6818,0.9358,
3.231809,0.4528,-0.9043,0.0710,3.7035,0.6306,3.0447,-1.9533,0.6818,0.9358,
3.233790,0.4528,-0.9043,0.0710,3.7035,0.6306,3.0447,-2.3803,1.2609,0.7586,
3.241274,0.4528,-0.9043,0.0710,3.7035,0.6306,3.0447,-2.5910,1.3324,0.5008,
3.249502,0.2406,-0.9852,0.3126,3.7035,0.6306,3.0447,-2.5910,1.3324,0.5008,
3.253170,0.2406,-0.9852,0.3126,1.5432,-0.2574,5.7463,-2.5910,1.3324,0.5008,
3.255411,0.2406,-0.9852,0.3126,1.5432,-0.2574,5.7463,-2.5421,1.0899,0.2822,
3.261096,0.2406,-0.9852,0.3126,1.5432,-0.2574,5.7463,-2.2886,0.7692,0.1704,
3.269072,0.0051,-0.9710,0.2062,1.5432,-0.2574,5.7463,-2.2886,0.7692,0.1704,
3.271730,0.0051,-0.9710,0.2062,-0.8647,-0.2145,4.9906,-2.2886,0.7692,0.1704,
3.273798,0.0051,-0.9710,0.2062,-0.8647,-0.2145,4.9906,-1.9472,0.4570,0.1514,
3.282858,0.0051,-0.9710,0.2062,-0.8647,-0.2145,4.9906,-1.6179,0.1919,0.2015,
3.289001,-0.0546,-0.9831,0.1171,-0.8647,-0.2145,4.9906,-1.6179,0.1919,0.2015,
3.291381,-0.0546,-0.9831,0.1171,-1.4858,-0.3908,4.2826,-1.6179,0.1919,0.2015,
3.293375,-0.0546,-0.9831,0.1171,-1.4858,-0.3908,4.2826,-1.2007,0.0135,0.3677,
3.301213,-0.0546,-0.9831,0.1171,-1.4858,-0.3908,4.2826,-0.9667,0.0080,0.4007,
3.309012,0.1149,-0.9996,0.0794,-1.4858,-0.3908,4.2826,-0.9667,0.0080,0.4007,
3.311786,0.1149,-0.9996,0.0794,0.2068,-0.5629,3.9525,-0.9667,0.0080,0.4007,
3.314058,0.1149,-0.9996,0.0794,0.2068,-0.5629,3.9525,-0.6619,-0.0134,0.3762,
3.321174,0.1149,-0.9996,0.0794,0.2068,-0.5629,3.9525,-0.3803,-0.0146,0.3139,
3.329301,0.4547,-0.9771,-0.1881,0.2068,-0.5629,3.9525,-0.3803,-0.0146,0.3139,
3.332149,0.4547,-0.9771,-0.1881,3.5324,-0.3319,1.2983,-0.3803,-0.0146,0.3139,
3.335359,0.4547,-0.9771,-0.1881,3.5324,-0.3319,1.2983,-0.2178,-0.0482,0.2541,
3.341158,0.4547,-0.9771,-0.1881,3.5324,-0.3319,1.2983,-0.1738,-0.2357,0.2327,
3.349265,0.5400,-1.0655,-0.2527,3.5324,-0.3319,1.2983,-0.1738,-0.2357,0.2327,
3.351984,0.5400,-1.0655,-0.2527,4.3312,-1.1822,0.6049,-0.1738,-0.2357,0.2327,
3.354271,0.5400,-1.0655,-0.2527,4.3312,-1.1822,0.6049,-0.1982,-0.5753,0.2797,
3.361050,0.5400,-1.0655,-0.2527,4.3312,-1.1822,0.6049,-0.1946,-0.8502,0.3530,
3.369123,0.5878,-1.1390,-0.2361,4.3312,-1.1822,0.6049,-0.1946,-0.8502,0.3530,
3.371947,0.5878,-1.1390,-0.2361,4.7914,-1.8919,0.7358,-0.1946,-0.8502,0.3530,
3.374039,0.5878,-1.1390,-0.2361,4.7914,-1.8919,0.7358,-0.1445,-0.9443,0.3842,
3.383450,0.5878,-1.1390,-0.2361,4.7914,-1.8919,0.7358,-0.1237,-0.9364,0.3206,
3.389146,0.5971,-1.3370,-0.0590,4.7914,-1.8919,0.7358,-0.1237,-0.9364,0.3206,
3.391928,0.5971,-1.3370,-0.0590,4.8877,-3.8174,2.4273,-0.1237,-0.9364,0.3206,
3.393980,0.5971,-1.3370,-0.0590,4.8877,-3.8174,2.4273,-0.1763,-0.9400,0.1966,
3.401138,0.5971,-1.3370,-0.0590,4.8877,-3.8174,2.4273,-0.2202,-0.9712,0.0592,
3.409025,0.4544,-1.4162,0.7119,4.8877,-3.8174,2.4273,-0.2202,-0.9712,0.0592,
3.411708,0.4544,-1.4162,0.7119,3.4608,-4.5665,9.8853,-0.2202,-0.9712,0.0592,
3.414320,0.4544,-1.4162,0.7119,3.4608,-4.5665,9.8853,-0.0034,-0.8789,-0.0599,
3.421262,0.4544,-1.4162,0.7119,3.4608,-4.5665,9.8853,0.6350,-0.6261,-0.1473,
3.429199,0.4643,-1.3417,0.4525,3.4608,-4.5665,9.8853,0.6350,-0.6261,-0.1473,
3.431805,0.4643,-1.3417,0.4525,3.4784,-3.7812,7.1297,0.6350,-0.6261,-0.1473,
3.433745,0.4643,-1.3417,0.4525,3.4784,-3.7812,7.1297,1.3656,-0.4245,-0.1961,
3.441102,0.4643,-1.3417,0.4525,3.4784,-3.7812,7.1297,1.8793,-0.4006,-0.2414,
3.448905,0.5546,-1.2727,0.3760,3.4784,-3.7812,7.1297,1.8793,-0.4006,-0.2414,
3.452262,0.5546,-1.2727,0.3760,4.2389,-2.9992,5.9198,1.8793,-0.4006,-0.2414,
3.454205,0.5546,-1.2727,0.3760,4.2389,-2.9992,5.9198,2.2385,-0.4422,-0.2976,
3.460914,0.5546,-1.2727,0.3760,4.2389,-2.9992,5.9198,2.5842,-0.4129,-0.3696,
3.468844,0.4675,-1.1685,0.4459,4.2389,-2.9992,5.9198,2.5842,-0.4129,-0.3696,
3.471749,0.4675,-1.1685,0.4459,3.2417,-1.8743,5.9982,2.5842,-0.4129,-0.3696,
3.473690,0.4675,-1.1685,0.4459,3.2417,-1.8743,5.9982,3.2739,0.0826,-0.5975,
3.482091,0.4675,-1.1685,0.4459,3.2417,-1.8743,5.9982,3.2831,0.3092,-0.8852,
3.488761,0.3966,-1.0377,-0.1761,3.2417,-1.8743,5.9982,3.2831,0.3092,-0.8852,
3.491065,0.3966,-1.0377,-0.1761,2.3145,-0.5314,-0.8275,3.2831,0.3092,-0.8852,
3.492840,0.3966,-1.0377,-0.1761,2.3145,-0.5314,-0.8275,3.1102,0.4576,-1.2517,
3.501212,0.3966,-1.0377,-0.1761,2.3145,-0.5314,-0.8275,3.0057,0.5749,-1.6360,
3.509094,0.3088,-1.2573,-0.4462,2.3145,-0.5314,-0.8275,3.0057,0.5749,-1.6360,
3.511571,0.3088,-1.2573,-0.4462,1.1214,-2.7060,-4.0936,3.0057,0.5749,-1.6360,
3.513193,0.3088,-1.2573,-0.4462,1.1214,-2.7060,-4.0936,2.9569,0.7948,-2.0611,
3.520937,0.3088,-1.2573,-0.4462,1.1214,-2.7060,-4.0936,2.9202,1.0288,-2.5040,
3.529053,0.1384,-1.4713,-0.4291,1.1214,-2.7060,-4.0936,2.9202,1.0288,-2.5040,
3.531113,0.1384,-1.4713,-0.4291,-0.9899,-4.9016,-4.4932,2.9202,1.0288,-2.5040,
3.532846,0.1384,-1.4713,-0.4291,-0.9899,-4.9016,-4.4932,2.9013,1.1259,-2.9432,
3.540892,0.1384,-1.4713,-0.4291,-0.9899,-4.9016,-4.4932,2.8860,0.9769,-3.3244,
3.548862,-0.0982,-1.9049,-0.0795,-0.9899,-4.9016,-4.4932,2.8860,0.9769,-3.3244,
3.552201,-0.0982,-1.9049,-0.0795,-3.8676,-9.3413,-1.6457,2.8860,0.9769,-3.3244,
3.554455,-0.0982,-1.9049,-0.0795,-3.8676,-9.3413,-1.6457,2.8634,0.4197,-3.6115,
3.561134,-0.0982,-1.9049,-0.0795,-3.8676,-9.3413,-1.6457,2.8475,-0.4935,-3.7227,
3.569107,-0.4461,-2.2738,0.3106,-3.8676,-9.3413,-1.6457,2.8475,-0.4935,-3.7227,
3.572301,-0.4461,-2.2738,0.3106,-7.9519,-13.2590,1.6571,2.8475,-0.4935,-3.7227,
3.575157,-0.4461,-2.2738,0.3106,-7.9519,-13.2590,1.6571,2.8720,-1.2284,-3.5199,
3.599034,-0.4461,-2.2738,0.3106,-7.9519,-13.2590,1.6571,2.9508,-1.5020,-2.9878,
3.602799,-0.3743,-1.9854,0.2239,-7.9519,-13.2590,1.6571,2.9508,-1.5020,-2.9878,
3.605597,-0.3743,-1.9854,0.2239,-7.8689,-10.7791,0.3985,2.9508,-1.5020,-2.9878,
3.608269,-0.3743,-1.9854,0.2239,-7.8689,-10.7791,0.3985,3.0656,-1.4196,-2.2835,
3.611355,-0.3743,-1.9854,0.2239,-7.8689,-10.7791,0.3985,3.2018,-1.0732,-1.7380,
3.613282,-0.1868,-1.2984,0.0716,-7.8689,-10.7791,0.3985,3.2018,-1.0732,-1.7380,
3.615066,-0.1868,-1.2984,0.0716,-6.4241,-4.3491,-1.5190,3.2018,-1.0732,-1.7380,
3.616443,-0.1868,-1.2984,0.0716,-6.4241,-4.3491,-1.5190,3.3998,-0.8594,-1.5010,
3.629351,-0.1868,-1.2984,0.0716,-6.4241,-4.3491,-1.5190,3.5024,-0.8447,-1.3464,
3.631284,-0.2435,-0.7829,-0.3952,-6.4241,-4.3491,-1.5190,3.5024,-0.8447,-1.3464,
3.632871,-0.2435,-0.7829,-0.3952,-7.0684,0.5398,-6.4814,3.5024,-0.8447,-1.3464,
3.634405,-0.2435,-0.7829,-0.3952,-7.0684,0.5398,-6.4814,3.3521,-0.8722,-1.0929,
3.640840,-0.2435,-0.7829,-0.3952,-7.0684,0.5398,-6.4814,3.0320,-0.8655,-0.7520,
3.648559,0.2562,-0.3987,-0.7671,-7.0684,0.5398,-6.4814,3.0320,-0.8655,-0.7520,
3.651345,0.2562,-0.3987,-0.7671,-2.2065,4.2029,-10.3720,3.0320,-0.8655,-0.7520,
3.653459,0.2562,-0.3987,-0.7671,-2.2065,4.2029,-10.3720,2.5054,-0.7702,-0.5529,
3.660651,0.2562,-0.3987,-0.7671,-2.2065,4.2029,-10.3720,0.8818,-0.6847,-0.9176,
3.675008,0.8530,-0.5447,-0.4423,-2.2065,4.2029,-10.3720,0.8818,-0.6847,-0.9176,
3.676970,0.8530,-0.5447,-0.4423,3.5579,2.7299,-7.1679,0.8818,-0.6847,-0.9176,
3.679054,0.8530,-0.5447,-0.4423,3.5579,2.7299,-7.1679,0.5714,-1.0384,-1.2927,
3.681406,0.8530,-0.5447,-0.4423,3.5579,2.7299,-7.1679,0.7107,-1.3133,-1.7111,
3.693920,0.8275,-0.5607,0.1936,3.5579,2.7299,-7.1679,0.7107,-1.3133,-1.7111,
3.695124,0.8275,-0.5607,0.1936,3.0269,2.4644,-0.7472,0.7107,-1.3133,-1.7111,
3.696463,0.8275,-0.5607,0.1936,3.0269,2.4644,-0.7472,1.0265,-1.2064,-2.0153,
3.700450,0.8275,-0.5607,0.1936,3.0269,2.4644,-0.7472,1.2495,-0.4898,-1.9793,
3.708342,0.0611,-0.6714,0.1246,3.0269,2.4644,-0.7472,1.2495,-0.4898,-1.9793,
3.709377,0.0611,-0.6714,0.1246,-4.7772,1.2024,-1.3708,1.2495,-0.4898,-1.9793,
3.710421,0.0611,-0.6714,0.1246,-4.7772,1.2024,-1.3708,1.1719,0.6287,-1.5828,
3.720405,0.0611,-0.6714,0.1246,-4.7772,1.2024,-1.3708,0.8958,1.7850,-1.1760,
3.728393,0.0529,-0.3960,0.0354,-4.7772,1.2024,-1.3708,0.8958,1.7850,-1.1760,
3.729549,0.0529,-0.3960,0.0354,-4.9253,3.7995,-2.4001,0.8958,1.7850,-1.1760,
3.730827,0.0529,-0.3960,0.0354,-4.9253,3.7995,-2.4001,0.6747,2.7203,-1.0734,
3.740411,0.0529,-0.3960,0.0354,-4.9253,3.7995,-2.4001,0.6142,3.1186,-1.0880,
3.748443,-0.1606,-0.3936,-0.2577,-4.9253,3.7995,-2.4001,0.6142,3.1186,-1.0880,
3.750561,-0.1606,-0.3936,-0.2577,-6.9048,3.8142,-5.5102,0.6142,3.1186,-1.0880,
3.752631,-0.1606,-0.3936,-0.2577,-6.9048,3.8142,-5.5102,0.5336,2.9212,-0.9897,
3.760847,-0.1606,-0.3936,-0.2577,-6.9048,3.8142,-5.5102,0.3699,2.4112,-0.7765,
3.769015,-0.3365,-0.3591,-0.3020,-6.9048,3.8142,-5.5102,0.3699,2.4112,-0.7765,
3.771986,-0.3365,-0.3591,-0.3020,-8.4930,4.1609,-6.1521,0.3699,2.4112,-0.7765,
3.773594,-0.3365,-0.3591,-0.3020,-8.4930,4.1609,-6.1521,0.1567,1.8852,-0.4521,
3.782553,-0.3365,-0.3591,-0.3020,-8.4930,4.1609,-6.1521,-0.0877,1.4625,-0.0892,
3.788897,-0.4004,-0.3630,-0.2213,-8.4930,4.1609,-6.1521,-0.0877,1.4625,-0.0892,
3.791143,-0.4004,-0.3630,-0.2213,-8.9732,4.1793,-5.4577,-0.0877,1.4625,-0.0892,
3.792840,-0.4004,-0.3630,-0.2213,-8.9732,4.1793,-5.4577,-0.3650,1.1418,0.2883,
3.800998,-0.4004,-0.3630,-0.2213,-8.9732,4.1793,-5.4577,-0.6478,0.8950,0.6835,
3.808821,-0.2508,-0.4605,-0.1538,-8.9732,4.1793,-5.4577,-0.6478,0.8950,0.6835,
3.810609,-0.2508,-0.4605,-0.1538,-7.2804,3.3896,-4.7412,-0.6478,0.8950,0.6835,
3.812575,-0.2508,-0.4605,-0.1538,-7.2804,3.3896,-4.7412,-0.9044,0.5896,1.0470,
3.820893,-0.2508,-0.4605,-0.1538,-7.2804,3.3896,-4.7412,-1.1805,0.3214,1.3897,
3.828864,0.0054,-0.5227,-0.0114,-7.2804,3.3896,-4.7412,-1.1805,0.3214,1.3897,
3.832942,0.0054,-0.5227,-0.0114,-4.4990,3.0039,-3.1799,-1.1805,0.3214,1.3897,
3.836299,0.0054,-0.5227,-0.0114,-4.4990,3.0039,-3.1799,-1.4951,0.1675,1.6829,
3.841527,0.0054,-0.5227,-0.0114,-4.4990,3.0039,-3.1799,-2.2196,-0.1484,1.7818,
3.849765,0.4259,-0.6473,0.4328,-4.4990,3.0039,-3.1799,-2.2196,-0.1484,1.7818,
3.852290,0.4259,-0.6473,0.4328,-0.0412,2.0793,1.5106,-2.2196,-0.1484,1.7818,
3.854230,0.4259,-0.6473,0.4328,-0.0412,2.0793,1.5106,-2.4688,-0.6798,1.6077,
3.861016,0.4259,-0.6473,0.4328,-0.0412,2.0793,1.5106,-2.4059,-1.4727,1.2895,
3.868949,1.2513,-1.0538,1.4781,-0.0412,2.0793,1.5106,-2.4059,-1.4727,1.2895,
3.871554,1.2513,-1.0538,1.4781,8.2323,-1.6965,12.1545,-2.4059,-1.4727,1.2895,
3.873211,1.2513,-1.0538,1.4781,8.2323,-1.6965,12.1545,-1.7169,-1.8343,0.7611,
3.882822,1.2513,-1.0538,1.4781,8.2323,-1.6965,12.1545,-0.4359,-1.3768,-0.0508,
3.888818,1.6908,-1.4426,0.8785,8.2323,-1.6965,12.1545,-0.4359,-1.3768,-0.0508,
3.890918,1.6908,-1.4426,0.8785,12.4581,-5.4881,6.5017,-0.4359,-1.3768,-0.0508,
3.892681,1.6908,-1.4426,0.8785,12.4581,-5.4881,6.5017,0.2288,-0.4159,-0.9096,
3.901039,1.6908,-1.4426,0.8785,12.4581,-5.4881,6.5017,0.1475,0.4912,-1.2279,
3.908824,0.9605,-1.1684,0.3424,12.4581,-5.4881,6.5017,0.1475,0.4912,-1.2279,
3.910803,0.9605,-1.1684,0.3424,5.0524,-2.9476,1.1504,0.1475,0.4912,-1.2279,
3.912696,0.9605,-1.1684,0.3424,5.0524,-2.9476,1.1504,-0.0009,0.4332,-0.8767,
3.920998,0.9605,-1.1684,0.3424,5.0524,-2.9476,1.1504,-0.2123,-0.3157,-0.6372,
3.928858,0.6028,-0.9381,0.6354,5.0524,-2.9476,1.1504,-0.2123,-0.3157,-0.6372,
3.930967,0.6028,-0.9381,0.6354,1.3754,-0.7974,3.9623,-0.2123,-0.3157,-0.6372,
3.932539,0.6028,-0.9381,0.6354,1.3754,-0.7974,3.9623,-0.4249,-0.8331,-0.6922,
3.940696,0.6028,-0.9381,0.6354,1.3754,-0.7974,3.9623,-0.5971,-1.0078,-0.5706,
3.949119,0.5784,-1.0150,0.6383,1.3754,-0.7974,3.9623,-0.5971,-1.0078,-0.5706,
3.951348,0.5784,-1.0150,0.6383,0.9647,-1.6225,4.0745,-0.5971,-1.0078,-0.5706,
3.952915,0.5784,-1.0150,0.6383,0.9647,-1.6225,4.0745,-0.6924,-1.2070,-0.3513,
3.960688,0.5784,-1.0150,0.6383,0.9647,-1.6225,4.0745,-0.7688,-1.3408,-0.1662,
3.968583,0.7809,-1.1619,0.7753,0.9647,-1.6225,4.0745,-0.7688,-1.3408,-0.1662,
3.970486,0.7809,-1.1619,0.7753,2.8367,-3.0910,5.5604,-0.7688,-1.3408,-0.1662,
3.971909,0.7809,-1.1619,0.7753,2.8367,-3.0910,5.5604,-0.7908,-1.2650,-0.0618,
3.982945,0.7809,-1.1619,0.7753,2.8367,-3.0910,5.5604,-0.6338,-0.9284,-0.0190,
3.988774,0.9080,-1.3853,-0.0601,2.8367,-3.0910,5.5604,-0.6338,-0.9284,-0.0190,
3.990606,0.9080,-1.3853,-0.0601,4.0207,-5.2691,-2.4254,-0.6338,-0.9284,-0.0190,
3.992538,0.9080,-1.3853,-0.0601,4.0207,-5.2691,-2.4254,-0.4450,-0.2375,-0.0886,
4.000771,0.9080,-1.3853,-0.0601,4.0207,-5.2691,-2.4254,-0.4279,0.8235,-0.2652,
4.008736,0.1665,-1.3211,-0.8074,4.0207,-5.2691,-2.4254,-0.4279,0.8235,-0.2652,
4.011001,0.1665,-1.3211,-0.8074,-3.2531,-4.6264,-9.6690,-0.4279,0.8235,-0.2652,
4.013287,0.1665,-1.3211,-0.8074,-3.2531,-4.6264,-9.6690,-0.4799,1.8052,-0.2927,
4.020736,0.1665,-1.3211,-0.8074,-3.2531,-4.6264,-9.6690,-0.5532,2.1845,0.1673,
4.028686,-0.2190,-1.0137,-0.1588,-3.2531,-4.6264,-9.6690,-0.5532,2.1845,0.1673,
4.030714,-0.2190,-1.0137,-0.1588,-6.9071,-1.5521,-3.3558,-0.5532,2.1845,0.1673,
4.032488,-0.2190,-1.0137,-0.1588,-6.9071,-1.5521,-3.3558,-0.5116,-0.4226,0.3842,
4.040709,-0.2190,-1.0137,-0.1588,-6.9071,-1.5521,-3.3558,-0.6008,-3.3352,0.5815,
4.048920,-0.5554,-0.4920,0.2717,-6.9071,-1.5521,-3.3558,-0.6008,-3.3352,0.5815,
4.051413,-0.5554,-0.4920,0.2717,-10.0558,3.6997,1.1536,-0.6008,-3.3352,0.5815,
4.053512,-0.5554,-0.4920,0.2717,-10.0558,3.6997,1.1536,-0.5385,-4.2876,0.9321,
4.060696,-0.5554,-0.4920,0.2717,-10.0558,3.6997,1.1536,-0.0761,-2.9803,1.3915,
4.076432,-0.1021,-1.0059,-0.6467,-10.0558,3.6997,1.1536,-0.0761,-2.9803,1.3915,
4.078734,-0.1021,-1.0059,-0.6467,-5.3689,-1.1394,-7.3738,-0.0761,-2.9803,1.3915,
4.081613,-0.1021,-1.0059,-0.6467,-5.3689,-1.1394,-7.3738,-0.0272,-1.2351,1.6041,
4.083236,-0.1021,-1.0059,-0.6467,-5.3689,-1.1394,-7.3738,-0.4603,-0.2253,1.5595,
4.096585,0.1171,-1.2272,-0.5477,-5.3689,-1.1394,-7.3738,-0.4603,-0.2253,1.5595,
4.098147,0.1171,-1.2272,-0.5477,-2.8343,-3.1010,-6.1774,-0.4603,-0.2253,1.5595,
4.099381,0.1171,-1.2272,-0.5477,-2.8343,-3.1010,-6.1774,-0.9313,0.3409,1.4068,
4.101089,0.1171,-1.2272,-0.5477,-2.8343,-3.1010,-6.1774,-1.2996,0.7233,1.1856,
4.108360,0.2584,-1.0301,-0.3838,-2.8343,-3.1010,-6.1774,-1.2996,0.7233,1.1856,
4.109949,0.2584,-1.0301,-0.3838,-1.1170,-1.0077,-4.2860,-1.2996,0.7233,1.1856,
4.111043,0.2584,-1.0301,-0.3838,-1.1170,-1.0077,-4.2860,-1.5745,0.9109,0.9327,
4.120447,0.2584,-1.0301,-0.3838,-1.1170,-1.0077,-4.2860,-1.7957,0.9982,0.7104,
4.128355,0.2471,-0.9031,-0.3155,-1.1170,-1.0077,-4.2860,-1.7957,0.9982,0.7104,
4.129532,0.2471,-0.9031,-0.3155,-0.9971,0.3397,-3.2590,-1.7957,0.9982,0.7104,
4.130788,0.2471,-0.9031,-0.3155,-0.9971,0.3397,-3.2590,-2.0058,1.0740,0.5613,
4.140319,0.2471,-0.9031,-0.3155,-0.9971,0.3397,-3.2590,-2.1988,1.0746,0.4905,
4.148635,0.2647,-0.8819,-0.2118,-0.9971,0.3397,-3.2590,-2.1988,1.0746,0.4905,
4.150474,0.2647,-0.8819,-0.2118,-0.6717,0.6006,-1.8312,-2.1988,1.0746,0.4905,
4.152381,0.2647,-0.8819,-0.2118,-0.6717,0.6006,-1.8312,-2.3369,0.9329,0.4789,
4.160802,0.2647,-0.8819,-0.2118,-0.6717,0.6006,-1.8312,-2.4982,0.4277,0.5320,
4.169193,0.3354,-0.9324,0.1727,-0.6717,0.6006,-1.8312,-2.4982,0.4277,0.5320,
4.171736,0.3354,-0.9324,0.1727,0.1364,0.1249,2.3641,-2.4982,0.4277,0.5320,
4.173348,0.3354,-0.9324,0.1727,0.1364,0.1249,2.3641,-2.8085,-0.9199,0.6853,
4.183354,0.3354,-0.9324,0.1727,0.1364,0.1249,2.3641,-2.8201,-2.3279,0.8894,
4.188790,0.3700,-0.8887,0.6661,0.1364,0.1249,2.3641,-2.8201,-2.3279,0.8894,
4.190760,0.3700,-0.8887,0.6661,0.6646,0.5611,7.7393,-2.8201,-2.3279,0.8894,
4.192447,0.3700,-0.8887,0.6661,0.6646,0.5611,7.7393,-2.2880,-2.6529,1.0543,
4.200986,0.3700,-0.8887,0.6661,0.6646,0.5611,7.7393,-1.4823,-2.0402,1.1172,
4.208818,0.4693,-0.8006,0.1820,0.6646,0.5611,7.7393,-1.4823,-2.0402,1.1172,
4.210832,0.4693,-0.8006,0.1820,1.8788,1.4419,3.3675,-1.4823,-2.0402,1.1172,
4.213175,0.4693,-0.8006,0.1820,1.8788,1.4419,3.3675,-0.4389,-0.4147,0.8545,
4.221271,0.4693,-0.8006,0.1820,1.8788,1.4419,3.3675,-0.4634,-0.2314,0.7079,
4.229115,0.4248,-0.7389,-0.2816,1.8788,1.4419,3.3675,-0.4634,-0.2314,0.7079,
4.231739,0.4248,-0.7389,-0.2816,1.5506,2.0713,-1.1407,-0.4634,-0.2314,0.7079,
4.234096,0.4248,-0.7389,-0.2816,1.5506,2.0713,-1.1407,-0.7156,-0.3273,0.6279,
4.241206,0.4248,-0.7389,-0.2816,1.5506,2.0713,-1.1407,-1.0333,-0.3951,0.5748,
4.250868,0.4014,-0.7207,-0.2703,1.5506,2.0713,-1.1407,-1.0333,-0.3951,0.5748,
4.253478,0.4014,-0.7207,-0.2703,1.3838,2.2413,-0.8885,-1.0333,-0.3951,0.5748,
4.255808,0.4014,-0.7207,-0.2703,1.3838,2.2413,-0.8885,-1.3009,-0.2418,0.5216,
4.261170,0.4014,-0.7207,-0.2703,1.3838,2.2413,-0.8885,-1.4774,0.0257,0.4935,
4.269030,0.3858,-0.6815,-0.2900,1.3838,2.2413,-0.8885,-1.4774,0.0257,0.4935,
4.272263,0.3858,-0.6815,-0.2900,1.2589,2.5840,-0.8378,-1.4774,0.0257,0.4935,
4.274237,0.3858,-0.6815,-0.2900,1.2589,2.5840,-0.8378,-1.5403,0.2084,0.4337,
4.284464,0.3858,-0.6815,-0.2900,1.2589,2.5840,-0.8378,-1.5635,0.2102,0.4129,
4.289071,0.2469,-0.8116,-0.3238,1.2589,2.5840,-0.8378,-1.5635,0.2102,0.4129,
4.291530,0.2469,-0.8116,-0.3238,-0.0770,1.2533,-0.8993,-1.5635,0.2102,0.4129,
4.293315,0.2469,-0.8116,-0.3238,-0.0770,1.2533,-0.8993,-1.6820,0.0935,0.4819,
4.301193,0.2469,-0.8116,-0.3238,-0.0770,1.2533,-0.8993,-1.9172,-0.1032,0.5479,
4.309109,0.0862,-1.0312,0.2893,-0.0770,1.2533,-0.8993,-1.9172,-0.1032,0.5479,
4.311894,0.0862,-1.0312,0.2893,-1.5795,-0.9457,5.3611,-1.9172,-0.1032,0.5479,
4.314130,0.0862,-1.0312,0.2893,-1.5795,-0.9457,5.3611,-2.1402,-0.3909,0.6267,
4.321243,0.0862,-1.0312,0.2893,-1.5795,-0.9457,5.3611,-2.0785,-0.4000,0.7751,
4.329245,0.0639,-1.0751,0.2229,-1.5795,-0.9457,5.3611,-2.0785,-0.4000,0.7751,
4.331918,0.0639,-1.0751,0.2229,-1.6511,-1.4200,4.9934,-2.0785,-0.4000,0.7751,
4.335440,0.0639,-1.0751,0.2229,-1.6511,-1.4200,4.9934,-1.7602,-0.0127,0.9682,
4.341353,0.0639,-1.0751,0.2229,-1.6511,-1.4200,4.9934,-1.4640,0.2780,1.0714,
4.351857,0.2670,-0.9205,-0.2845,-1.6511,-1.4200,4.9934,-1.4640,0.2780,1.0714,
4.354043,0.2670,-0.9205,-0.2845,0.5041,0.0725,0.2133,-1.4640,0.2780,1.0714,
4.356108,0.2670,-0.9205,-0.2845,0.5041,0.0725,0.2133,-1.3100,0.1772,1.0659,
4.360892,0.2670,-0.9205,-0.2845,0.5041,0.0725,0.2133,-1.2538,-0.1691,1.0354,
4.369089,0.3854,-1.0201,-0.0785,0.5041,0.0725,0.2133,-1.2538,-0.1691,1.0354,
4.371905,0.3854,-1.0201,-0.0785,1.8207,-0.9130,2.3648,-1.2538,-0.1691,1.0354,
4.373498,0.3854,-1.0201,-0.0785,1.8207,-0.9130,2.3648,-1.2227,-0.5295,0.9999,
4.383850,0.3854,-1.0201,-0.0785,1.8207,-0.9130,2.3648,-1.1762,-0.8649,0.9675,
4.388832,0.4593,-1.1392,0.4395,1.8207,-0.9130,2.3648,-1.1762,-0.8649,0.9675,
4.391720,0.4593,-1.1392,0.4395,2.7103,-2.0775,7.5315,-1.1762,-0.8649,0.9675,
4.393321,0.4593,-1.1392,0.4395,2.7103,-2.0775,7.5315,-0.7181,-1.0311,0.9181,
4.401004,0.4593,-1.1392,0.4395,2.7103,-2.0775,7.5315,-0.3815,-0.7867,0.8784,
4.408844,0.6099,-0.9876,-0.0181,2.7103,-2.0775,7.5315,-0.3815,-0.7867,0.8784,
4.410798,0.6099,-0.9876,-0.0181,4.3176,-0.5629,3.0354,-0.3815,-0.7867,0.8784,
4.412343,0.6099,-0.9876,-0.0181,4.3176,-0.5629,3.0354,-0.1561,-0.5760,0.8002,
4.421065,0.6099,-0.9876,-0.0181,4.3176,-0.5629,3.0354,-0.0492,-0.4184,0.6719,
4.428864,0.8916,-0.8757,-0.2657,4.3176,-0.5629,3.0354,-0.0492,-0.4184,0.6719,
4.431171,0.8916,-0.8757,-0.2657,7.1044,0.5634,0.5370,-0.0492,-0.4184,0.6719,
4.433184,0.8916,-0.8757,-0.2657,7.1044,0.5634,0.5370,-0.0541,-0.4562,0.4935,
4.441113,0.8916,-0.8757,-0.2657,7.1044,0.5634,0.5370,-0.1408,-0.7012,0.2932,
4.451967,0.8954,-0.8475,-0.0059,7.1044,0.5634,0.5370,-0.1408,-0.7012,0.2932,
4.455032,0.8954,-0.8475,-0.0059,7.0771,0.8513,3.0154,-0.1408,-0.7012,0.2932,
4.457162,0.8954,-0.8475,-0.0059,7.0771,0.8513,3.0154,-0.1537,-0.7195,0.1093,
4.461379,0.8954,-0.8475,-0.0059,7.0771,0.8513,3.0154,-0.0064,-0.2998,-0.0153,
4.469133,0.7876,-0.8931,-0.1313,7.0771,0.8513,3.0154,-0.0064,-0.2998,-0.0153,
4.472857,0.7876,-0.8931,-0.1313,5.8811,0.3977,1.7258,-0.0064,-0.2998,-0.0153,
4.474422,0.7876,-0.8931,-0.1313,5.8811,0.3977,1.7258,0.1603,0.1076,-0.0685,
4.483674,0.7876,-0.8931,-0.1313,5.8811,0.3977,1.7258,0.2361,0.0612,-0.0703,
4.488950,0.6865,-1.0052,0.1543,5.8811,0.3977,1.7258,0.2361,0.0612,-0.0703,
4.492148,0.6865,-1.0052,0.1543,4.7023,-0.6937,4.3776,0.2361,0.0612,-0.0703,
4.494087,0.6865,-1.0052,0.1543,4.7023,-0.6937,4.3776,0.3289,-0.2559,-0.0868,
4.501295,0.6865,-1.0052,0.1543,4.7023,-0.6937,4.3776,0.5867,-0.3225,-0.1748,
4.508812,0.7478,-1.0931,0.4117,4.7023,-0.6937,4.3776,0.5867,-0.3225,-0.1748,
4.511117,0.7478,-1.0931,0.4117,5.1336,-1.5314,6.6898,0.5867,-0.3225,-0.1748,
4.512757,0.7478,-1.0931,0.4117,5.1336,-1.5314,6.6898,0.9826,-0.0641,-0.3147,
4.525614,0.7478,-1.0931,0.4117,5.1336,-1.5314,6.6898,1.3857,0.3232,-0.5254,
4.528997,0.7916,-1.0228,0.3090,5.1336,-1.5314,6.6898,1.3857,0.3232,-0.5254,
4.531629,0.7916,-1.0228,0.3090,5.3228,-0.8039,5.3191,1.3857,0.3232,-0.5254,
4.533714,0.7916,-1.0228,0.3090,5.3228,-0.8039,5.3191,1.7290,0.7032,-0.7630,
4.541066,0.7916,-1.0228,0.3090,5.3228,-0.8039,5.3191,2.0607,0.9335,-1.0000,
4.551401,0.7829,-0.9353,0.2441,5.3228,-0.8039,5.3191,2.0607,0.9335,-1.0000,
4.553637,0.7829,-0.9353,0.2441,4.8950,0.0712,4.1606,2.0607,0.9335,-1.0000,
4.556062,0.7829,-0.9353,0.2441,4.8950,0.0712,4.1606,2.3839,0.9683,-1.2621,
4.560989,0.7829,-0.9353,0.2441,4.8950,0.0712,4.1606,2.6478,0.8938,-1.5627,
4.568836,0.6959,-0.9904,-0.0222,4.8950,0.0712,4.1606,2.6478,0.8938,-1.5627,
4.571781,0.6959,-0.9904,-0.0222,3.6324,-0.5047,0.9420,2.6478,0.8938,-1.5627,
4.573610,0.6959,-0.9904,-0.0222,3.6324,-0.5047,0.9420,2.7651,0.8559,-2.1534,
4.581035,0.6959,-0.9904,-0.0222,3.6324,-0.5047,0.9420,2.3759,1.2291,-2.3953,
4.588914,0.4782,-1.2282,-0.3639,3.6324,-0.5047,0.9420,2.3759,1.2291,-2.3953,
4.591411,0.4782,-1.2282,-0.3639,0.9987,-2.9696,-2.9707,2.3759,1.2291,-2.3953,
4.593038,0.4782,-1.2282,-0.3639,0.9987,-2.9696,-2.9707,1.9551,1.5053,-2.5584,
4.601065,0.4782,-1.2282,-0.3639,0.9987,-2.9696,-2.9707,1.5262,1.5841,-2.5687,
4.608862,0.2053,-1.5953,-0.1860,0.9987,-2.9696,-2.9707,1.5262,1.5841,-2.5687,
4.610832,0.2053,-1.5953,-0.1860,-2.1459,-6.7542,-1.6596,1.5262,1.5841,-2.5687,
4.612536,0.2053,-1.5953,-0.1860,-2.1459,-6.7542,-1.6596,1.2605,1.3916,-2.4466,
4.621135,0.2053,-1.5953,-0.1860,-2.1459,-6.7542,-1.6596,1.2727,1.0801,-2.2676,
4.628874,0.0889,-2.0958,0.0079,-2.1459,-6.7542,-1.6596,1.2727,1.0801,-2.2676,
4.630359,0.0889,-2.0958,0.0079,-3.7006,-11.8646,-0.0885,1.2727,1.0801,-2.2676,
4.632883,0.0889,-2.0958,0.0079,-3.7006,-11.8646,-0.0885,1.5110,0.8180,-2.0733,
4.649855,0.0889,-2.0958,0.0079,-3.7006,-11.8646,-0.0885,1.8683,0.5835,-1.8443,
4.652488,-0.0843,-2.3365,-0.0740,-3.7006,-11.8646,-0.0885,1.8683,0.5835,-1.8443,
4.654883,-0.0843,-2.3365,-0.0740,-5.7295,-14.4215,-1.2475,1.8683,0.5835,-1.8443,
4.656981,-0.0843,-2.3365,-0.0740,-5.7295,-14.4215,-1.2475,2.2984,0.0642,-1.5278,
4.660765,-0.0843,-2.3365,-0.0740,-5.7295,-14.4215,-1.2475,2.7864,-0.6731,-1.1821,
4.668754,-0.0502,-1.9106,0.1272,-5.7295,-14.4215,-1.2475,2.7864,-0.6731,-1.1821,
4.671822,-0.0502,-1.9106,0.1272,-5.6280,-10.4202,0.3289,2.7864,-0.6731,-1.1821,
4.673662,-0.0502,-1.9106,0.1272,-5.6280,-10.4202,0.3289,3.2990,-1.2791,-0.9597,
4.680917,-0.0502,-1.9106,0.1272,-5.6280,-10.4202,0.3289,3.7198,-1.5570,-0.9762,
4.688774,0.0305,-1.1597,-0.0065,-5.6280,-10.4202,0.3289,3.7198,-1.5570,-0.9762,
4.691392,0.0305,-1.1597,-0.0065,-5.0281,-3.2425,-1.4088,3.7198,-1.5570,-0.9762,
4.692958,0.0305,-1.1597,-0.0065,-5.0281,-3.2425,-1.4088,3.9062,-1.2870,-1.1613,
4.711521,0.0305,-1.1597,-0.0065,-5.0281,-3.2425,-1.4088,3.8445,-1.0702,-1.3336,
4.713279,-0.0765,-0.9146,-0.2591,-5.0281,-3.2425,-1.4088,3.8445,-1.0702,-1.3336,
4.715036,-0.0765,-0.9146,-0.2591,-6.1564,-0.9725,-4.2974,3.8445,-1.0702,-1.3336,
4.716733,-0.0765,-0.9146,-0.2591,-6.1564,-0.9725,-4.2974,3.5348,-1.3359,-1.3226,
4.720822,-0.0765,-0.9146,-0.2591,-6.1564,-0.9725,-4.2974,2.9831,-1.4526,-1.1803,
4.728674,0.0469,-0.7185,-0.5066,-6.1564,-0.9725,-4.2974,2.9831,-1.4526,-1.1803,
4.730422,0.0469,-0.7185,-0.5066,-5.0346,0.8364,-6.9456,2.9831,-1.4526,-1.1803,
4.732034,0.0469,-0.7185,-0.5066,-5.0346,0.8364,-6.9456,2.2996,-0.8515,-1.0996,
4.740741,0.0469,-0.7185,-0.5066,-5.0346,0.8364,-6.9456,1.6160,0.1907,-1.1717,
4.749888,0.1071,-0.5405,-0.2571,-5.0346,0.8364,-6.9456,1.6160,0.1907,-1.1717,
4.752265,0.1071,-0.5405,-0.2571,-4.4799,2.5267,-4.6125,1.6160,0.1907,-1.1717,
4.753890,0.1071,-0.5405,-0.2571,-4.4799,2.5267,-4.6125,1.1725,0.8840,-1.2847,
4.760653,0.1071,-0.5405,-0.2571,-4.4799,2.5267,-4.6125,1.0082,0.7838,-1.2804,
4.769287,0.0959,-0.5063,-0.2259,-4.4799,2.5267,-4.6125,1.0082,0.7838,-1.2804,
4.771577,0.0959,-0.5063,-0.2259,-4.6056,2.8268,-4.3940,1.0082,0.7838,-1.2804,
4.773608,0.0959,-0.5063,-0.2259,-4.6056,2.8268,-4.3940,0.8952,0.7276,-1.1497,
4.781599,0.0959,-0.5063,-0.2259,-4.6056,2.8268,-4.3940,0.7016,0.7142,-1.0581,
4.789092,0.2959,-0.4189,-0.2099,-4.6056,2.8268,-4.3940,0.7016,0.7142,-1.0581,
4.792075,0.2959,-0.4189,-0.2099,-2.6686,3.6637,-4.2514,0.7016,0.7142,-1.0581,
4.794000,0.2959,-0.4189,-0.2099,-2.6686,3.6637,-4.2514,0.5177,0.6971,-1.1015,
4.801540,0.2959,-0.4189,-0.2099,-2.6686,3.6637,-4.2514,0.3784,0.7374,-1.1705,
4.809076,0.2217,-0.4172,0.0197,-2.6686,3.6637,-4.2514,0.3784,0.7374,-1.1705,
4.811290,0.2217,-0.4172,0.0197,-3.4356,3.6567,-1.9832,0.3784,0.7374,-1.1705,
4.813268,0.2217,-0.4172,0.0197,-3.4356,3.6567,-1.9832,0.2587,0.8119,-1.1583,
4.821474,0.2217,-0.4172,0.0197,-3.4356,3.6567,-1.9832,0.2123,1.0037,-1.0630,
4.829134,-0.0493,-0.4774,0.0219,-3.4356,3.6567,-1.9832,0.2123,1.0037,-1.0630,
4.832695,-0.0493,-0.4774,0.0219,-6.0932,3.0676,-1.9546,0.2123,1.0037,-1.0630,
4.835630,-0.0493,-0.4774,0.0219,-6.0932,3.0676,-1.9546,0.1750,1.3452,-0.8791,
4.841183,-0.0493,-0.4774,0.0219,-6.0932,3.0676,-1.9546,0.0449,1.7203,-0.5590,
4.851010,-0.0878,-0.3737,-0.0757,-6.0932,3.0676,-1.9546,0.0449,1.7203,-0.5590,
4.853285,-0.0878,-0.3737,-0.0757,-6.4248,4.0874,-3.0135,0.0449,1.7203,-0.5590,
4.855222,-0.0878,-0.3737,-0.0757,-6.4248,4.0874,-3.0135,-0.1756,1.8400,-0.1876,
4.860900,-0.0878,-0.3737,-0.0757,-6.4248,4.0874,-3.0135,-0.3241,1.7032,0.0177,
4.868986,-0.2737,-0.3349,-0.0763,-6.4248,4.0874,-3.0135,-0.3241,1.7032,0.0177,
4.871437,-0.2737,-0.3349,-0.0763,-8.1767,4.4693,-3.1766,-0.3241,1.7032,0.0177,
4.873273,-0.2737,-0.3349,-0.0763,-8.1767,4.4693,-3.1766,-0.3369,1.4405,0.1221,
4.881157,-0.2737,-0.3349,-0.0763,-8.1767,4.4693,-3.1766,-0.4011,1.0605,0.3836,
4.888801,-0.1726,-0.4345,-0.1217,-8.1767,4.4693,-3.1766,-0.4011,1.0605,0.3836,
4.891056,-0.1726,-0.4345,-0.1217,-7.0845,3.5392,-3.7000,-0.4011,1.0605,0.3836,
4.892730,-0.1726,-0.4345,-0.1217,-7.0845,3.5392,-3.7000,-0.5990,0.7405,0.7531,
4.900948,-0.1726,-0.4345,-0.1217,-7.0845,3.5392,-3.7000,-0.9068,0.5450,1.1166,
4.908931,0.2399,-0.5749,-0.0007,-7.0845,3.5392,-3.7000,-0.9068,0.5450,1.1166,
4.912586,0.2399,-0.5749,-0.0007,-2.8512,2.3110,-2.4549,-0.9068,0.5450,1.1166,
4.915033,0.2399,-0.5749,-0.0007,-2.8512,2.3110,-2.4549,-1.2813,0.3855,1.3719,
4.921284,0.2399,-0.5749,-0.0007,-2.8512,2.3110,-2.4549,-1.6417,0.1565,1.4709,
4.929103,0.8857,-0.8684,0.5319,-2.8512,2.3110,-2.4549,-1.6417,0.1565,1.4709,
4.932502,0.8857,-0.8684,0.5319,3.7654,-0.3162,3.0046,-1.6417,0.1565,1.4709,
4.934583,0.8857,-0.8684,0.5319,3.7654,-0.3162,3.0046,-1.8439,-0.2101,1.4245,
4.941257,0.8857,-0.8684,0.5319,3.7654,-0.3162,3.0046,-0.8543,-1.5698,0.6621,
4.950402,1.9312,-1.1644,2.3166,3.7654,-0.3162,3.0046,-0.8543,-1.5698,0.6621,
4.953049,1.9312,-1.1644,2.3166,14.0977,-3.1260,20.6490,-0.8543,-1.5698,0.6621,
4.955027,1.9312,-1.1644,2.3166,14.0977,-3.1260,20.6490,0.3314,-1.4941,-0.1027,
4.960933,1.9312,-1.1644,2.3166,14.0977,-3.1260,20.6490,0.7761,-0.2772,-0.7960,
4.968938,1.8142,-1.2003,0.8498,14.0977,-3.1260,20.6490,0.7761,-0.2772,-0.7960,
4.972339,1.8142,-1.2003,0.8498,12.8408,-3.5445,6.2687,0.7761,-0.2772,-0.7960,
4.973924,1.8142,-1.2003,0.8498,12.8408,-3.5445,6.2687,0.6557,0.7875,-1.0660,
4.981318,1.8142,-1.2003,0.8498,12.8408,-3.5445,6.2687,0.4517,0.6610,-1.1082,
4.989052,0.6431,-0.8981,0.3406,12.8408,-3.5445,6.2687,0.4517,0.6610,-1.1082,
4.991839,0.6431,-0.8981,0.3406,1.1687,-0.7680,1.0394,0.4517,0.6610,-1.1082,
4.993427,0.6431,-0.8981,0.3406,1.1687,-0.7680,1.0394,0.1890,0.0465,-0.9555,
5.001242,0.6431,-0.8981,0.3406,1.1687,-0.7680,1.0394,-0.0956,-0.3218,-0.7227,
5.008819,0.5893,-0.6187,0.2775,1.1687,-0.7680,1.0394,-0.0956,-0.3218,-0.7227,
5.010759,0.5893,-0.6187,0.2775,0.4484,1.8229,0.3517,-0.0956,-0.3218,-0.7227,
5.012429,0.5893,-0.6187,0.2775,0.4484,1.8229,0.3517,-0.3803,-0.5149,-0.5169,
5.021041,0.5893,-0.6187,0.2775,0.4484,1.8229,0.3517,-0.6717,-0.6413,-0.3745,
5.028910,0.5654,-0.7913,0.4506,0.4484,1.8229,0.3517,-0.6717,-0.6413,-0.3745,
5.033001,0.5654,-0.7913,0.4506,0.0862,0.0622,2.1128,-0.6717,-0.6413,-0.3745,
5.034983,0.5654,-0.7913,0.4506,0.0862,0.0622,2.1128,-0.8885,-0.7177,-0.2475,
5.041173,0.5654,-0.7913,0.4506,0.0862,0.0622,2.1128,-0.9368,-0.8166,-0.0660,
5.052425,0.6114,-1.0505,0.2966,0.0862,0.0622,2.1128,-0.9368,-0.8166,-0.0660,
5.054883,0.6114,-1.0505,0.2966,0.4647,-2.4823,0.7653,-0.9368,-0.8166,-0.0660,
5.056739,0.6114,-1.0505,0.2966,0.4647,-2.4823,0.7653,-0.8482,-0.8832,0.1276,
5.060936,0.6114,-1.0505,0.2966,0.4647,-2.4823,0.7653,-0.7981,-0.6596,0.3164,
5.068764,0.5127,-1.3684,-0.4332,0.4647,-2.4823,0.7653,-0.7981,-0.6596,0.3164,
5.071736,0.5127,-1.3684,-0.4332,-0.4963,-5.5364,-6.1691,-0.7981,-0.6596,0.3164,
5.073659,0.5127,-1.3684,-0.4332,-0.4963,-5.5364,-6.1691,-0.8891,0.1015,0.5063,
5.081144,0.5127,-1.3684,-0.4332,-0.4963,-5.5364,-6.1691,-1.0131,1.1705,0.6725,
5.088924,0.4589,-1.5201,-0.2770,-0.4963,-5.5364,-6.1691,-1.0131,1.1705,0.6725,
5.091347,0.4589,-1.5201,-0.2770,-0.8758,-6.8917,-4.5090,-1.0131,1.1705,0.6725,
5.093034,0.4589,-1.5201,-0.2770,-0.8758,-6.8917,-4.5090,-1.0779,1.8473,0.7208,
5.101388,0.4589,-1.5201,-0.2770,-0.8758,-6.8917,-4.5090,-0.9991,1.2627,0.5485,
5.108887,0.0606,-1.1388,0.6232,-0.8758,-6.8917,-4.5090,-0.9991,1.2627,0.5485,
5.111271,0.0606,-1.1388,0.6232,-4.5580,-3.0107,4.3160,-0.9991,1.2627,0.5485,
5.112942,0.0606,-1.1388,0.6232,-4.5580,-3.0107,4.3160,-0.7639,-0.7733,0.1795,
5.120999,0.0606,-1.1388,0.6232,-4.5580,-3.0107,4.3160,-0.3271,-2.7891,0.0341,
5.128874,-0.5337,-0.7137,0.4768,-4.5580,-3.0107,4.3160,-0.3271,-2.7891,0.0341,
5.131565,-0.5337,-0.7137,0.4768,-10.2947,1.2548,3.1015,-0.3271,-2.7891,0.0341,
5.134295,-0.5337,-0.7137,0.4768,-10.2947,1.2548,3.1015,0.7846,-2.3194,0.8606,
5.152138,-0.5337,-0.7137,0.4768,-10.2947,1.2548,3.1015,0.7327,-0.7592,1.1337,
5.154058,-0.1749,-1.0227,-0.5689,-10.2947,1.2548,3.1015,0.7327,-0.7592,1.1337,
5.156071,-0.1749,-1.0227,-0.5689,-6.5120,-1.6030,-7.0820,0.7327,-0.7592,1.1337,
5.157736,-0.1749,-1.0227,-0.5689,-6.5120,-1.6030,-7.0820,0.3570,0.5450,1.2748,
5.160866,-0.1749,-1.0227,-0.5689,-6.5120,-1.6030,-7.0820,-0.0791,1.2640,1.3463,
5.177813,0.1349,-1.1866,-0.6426,-6.5120,-1.6030,-7.0820,-0.0791,1.2640,1.3463,
5.179911,0.1349,-1.1866,-0.6426,-3.0963,-3.0039,-7.8038,-0.0791,1.2640,1.3463,
5.181927,0.1349,-1.1866,-0.6426,-3.0963,-3.0039,-7.8038,-0.5067,1.4277,1.3304,
5.183325,0.1349,-1.1866,-0.6426,-3.0963,-3.0039,-7.8038,-0.8842,1.2206,1.3023,
5.188615,0.2449,-0.9494,-0.4997,-3.0963,-3.0039,-7.8038,-0.8842,1.2206,1.3023,
5.190688,0.2449,-0.9494,-0.4997,-1.6492,-0.4757,-6.2527,-0.8842,1.2206,1.3023,
5.192168,0.2449,-0.9494,-0.4997,-1.6492,-0.4757,-6.2527,-1.2288,0.9506,1.2174,
5.200818,0.2449,-0.9494,-0.4997,-1.6492,-0.4757,-6.2527,-1.5886,0.7734,1.0971,
5.209004,0.2548,-0.8821,-0.3898,-1.6492,-0.4757,-6.2527,-1.5886,0.7734,1.0971,
5.211222,0.2548,-0.8821,-0.3898,-1.2483,0.3611,-4.8426,-1.5886,0.7734,1.0971,
5.212955,0.2548,-0.8821,-0.3898,-1.2483,0.3611,-4.8426,-1.9569,0.5682,0.9822,
5.221309,0.2548,-0.8821,-0.3898,-1.2483,0.3611,-4.8426,-2.3082,0.2719,0.9065,
5.228946,0.3036,-0.9010,-0.2847,-1.2483,0.3611,-4.8426,-2.3082,0.2719,0.9065,
5.231052,0.3036,-0.9010,-0.2847,-0.5374,0.3108,-3.3243,-2.3082,0.2719,0.9065,
5.232555,0.3036,-0.9010,-0.2847,-0.5374,0.3108,-3.3243,-2.6399,-0.1887,0.8704,
5.240570,0.3036,-0.9010,-0.2847,-0.5374,0.3108,-3.3243,-2.9459,-0.7794,0.8539,
5.250536,0.3219,-0.9365,-0.1055,-0.5374,0.3108,-3.3243,-2.9459,-0.7794,0.8539,
5.252060,0.3219,-0.9365,-0.1055,-0.1631,0.0498,-0.9333,-2.9459,-0.7794,0.8539,
5.253235,0.3219,-0.9365,-0.1055,-0.1631,0.0498,-0.9333,-3.1872,-1.3371,0.8747,
5.260426,0.3219,-0.9365,-0.1055,-0.1631,0.0498,-0.9333,-3.2947,-1.6932,0.9333,
5.268240,0.3202,-0.8304,0.4950,-0.1631,0.0498,-0.9333,-3.2947,-1.6932,0.9333,
5.269386,0.3202,-0.8304,0.4950,0.0102,1.1231,5.6405,-3.2947,-1.6932,0.9333,
5.270446,0.3202,-0.8304,0.4950,0.0102,1.1231,5.6405,-3.2086,-1.8478,1.0195,
5.280280,0.3202,-0.8304,0.4950,0.0102,1.1231,5.6405,-2.7333,-1.8881,1.0873,
5.288231,0.4229,-0.7195,0.7682,0.0102,1.1231,5.6405,-2.7333,-1.8881,1.0873,
5.289303,0.4229,-0.7195,0.7682,1.2354,2.2212,8.8462,-2.7333,-1.8881,1.0873,
5.290415,0.4229,-0.7195,0.7682,1.2354,2.2212,8.8462,-1.8977,-1.4635,1.0702,
5.300929,0.4229,-0.7195,0.7682,1.2354,2.2212,8.8462,-1.0938,-0.7042,0.9449,
5.309083,0.4404,-0.7522,0.0837,1.2354,2.2212,8.8462,-1.0938,-0.7042,0.9449,
5.311292,0.4404,-0.7522,0.0837,1.5796,1.9214,2.3442,-1.0938,-0.7042,0.9449,
5.313419,0.4404,-0.7522,0.0837,1.5796,1.9214,2.3442,-0.5189,0.0795,0.6652,
5.321192,0.4404,-0.7522,0.0837,1.5796,1.9214,2.3442,-0.6814,-0.0482,0.6065,
5.329033,0.4692,-0.7697,-0.2944,1.5796,1.9214,2.3442,-0.6814,-0.0482,0.6065,
5.331378,0.4692,-0.7697,-0.2944,1.9169,1.7609,-1.3289,-0.6814,-0.0482,0.6065,
5.334331,0.4692,-0.7697,-0.2944,1.9169,1.7609,-1.3289,-0.9337,-0.2125,0.5467,
5.341178,0.4692,-0.7697,-0.2944,1.9169,1.7609,-1.3289,-1.1054,-0.2082,0.4825,
5.351914,0.5165,-0.7573,-0.1963,1.9169,1.7609,-1.3289,-1.1054,-0.2082,0.4825,
5.354815,0.5165,-0.7573,-0.1963,2.4019,1.8627,-0.2230,-1.1054,-0.2082,0.4825,
5.356897,0.5165,-0.7573,-0.1963,2.4019,1.8627,-0.2230,-1.1665,-0.1050,0.4624,
5.361222,0.5165,-0.7573,-0.1963,2.4019,1.8627,-0.2230,-1.1970,-0.0604,0.4837,
5.369057,0.5278,-0.7446,-0.1482,2.4019,1.8627,-0.2230,-1.1970,-0.0604,0.4837,
5.372138,0.5278,-0.7446,-0.1482,2.5089,1.9521,0.4241,-1.1970,-0.0604,0.4837,
5.374436,0.5278,-0.7446,-0.1482,2.5089,1.9521,0.4241,-1.2844,-0.1581,0.5271,
5.381233,0.5278,-0.7446,-0.1482,2.5089,1.9521,0.4241,-1.4291,-0.4856,0.5845,
5.389412,0.5198,-0.7793,0.1548,2.5089,1.9521,0.4241,-1.4291,-0.4856,0.5845,
5.392746,0.5198,-0.7793,0.1548,2.4399,1.5753,3.5789,-1.4291,-0.4856,0.5845,
5.394699,0.5198,-0.7793,0.1548,2.4399,1.5753,3.5789,-1.5336,-0.9657,0.6554,
5.402088,0.5198,-0.7793,0.1548,2.4399,1.5753,3.5789,-1.5031,-1.1593,0.7079,
5.408998,0.4203,-0.8245,0.1516,2.4399,1.5753,3.5789,-1.5031,-1.1593,0.7079,
5.411368,0.4203,-0.8245,0.1516,1.5346,1.0986,3.7736,-1.5031,-1.1593,0.7079,
5.413338,0.4203,-0.8245,0.1516,1.5346,1.0986,3.7736,-1.3552,-0.7977,0.7391,
5.421347,0.4203,-0.8245,0.1516,1.5346,1.0986,3.7736,-1.2098,-0.1569,0.7482,
5.429166,0.3326,-0.8469,-0.1505,1.5346,1.0986,3.7736,-1.2098,-0.1569,0.7482,
5.431695,0.3326,-0.8469,-0.1505,0.7441,0.8556,0.9800,-1.2098,-0.1569,0.7482,
5.434072,0.3326,-0.8469,-0.1505,0.7441,0.8556,0.9800,-1.1970,0.2878,0.7318,
5.441296,0.3326,-0.8469,-0.1505,0.7441,0.8556,0.9800,-1.3314,0.3245,0.7256,
5.451893,0.2259,-1.0432,-0.1786,0.7441,0.8556,0.9800,-1.3314,0.3245,0.7256,
5.454707,0.2259,-1.0432,-0.1786,-0.2439,-1.0898,0.8405,-1.3314,0.3245,0.7256,
5.457020,0.2259,-1.0432,-0.1786,-0.2439,-1.0898,0.8405,-1.5092,0.0502,0.7654,
5.461087,0.2259,-1.0432,-0.1786,-0.2439,-1.0898,0.8405,-1.5910,-0.3304,0.8435,
5.469187,0.2665,-1.2082,0.3165,-0.2439,-1.0898,0.8405,-1.5910,-0.3304,0.8435,
5.472578,0.2665,-1.2082,0.3165,0.2650,-2.7253,5.8537,-1.5910,-0.3304,0.8435,
5.474539,0.2665,-1.2082,0.3165,0.2650,-2.7253,5.8537,-1.4212,-0.5552,0.9278,
5.481366,0.2665,-1.2082,0.3165,0.2650,-2.7253,5.8537,-0.9502,-0.4965,0.9682,
5.489532,0.5334,-1.0673,0.0458,0.2650,-2.7253,5.8537,-0.9502,-0.4965,0.9682,
5.492393,0.5334,-1.0673,0.0458,3.0180,-1.3431,3.3101,-0.9502,-0.4965,0.9682,
5.494320,0.5334,-1.0673,0.0458,3.0180,-1.3431,3.3101,-0.0712,-0.4611,0.8735,
5.502009,0.5334,-1.0673,0.0458,3.0180,-1.3431,3.3101,0.0217,-0.4489,0.7941,
5.509012,0.7362,-0.8998,-0.3128,3.0180,-1.3431,3.3101,0.0217,-0.4489,0.7941,
5.511247,0.7362,-0.8998,-0.3128,5.0835,0.3375,-0.2716,0.0217,-0.4489,0.7941,
5.513180,0.7362,-0.8998,-0.3128,5.0835,0.3375,-0.2716,-0.0107,-0.3383,0.6737,
5.521423,0.7362,-0.8998,-0.3128,5.0835,0.3375,-0.2716,-0.0932,-0.2443,0.5344,
5.529092,0.9050,-0.8361,-0.1206,5.0835,0.3375,-0.2716,-0.0932,-0.2443,0.5344,
5.531965,0.9050,-0.8361,-0.1206,6.7225,0.9752,1.5543,-0.0932,-0.2443,0.5344,
5.534440,0.9050,-0.8361,-0.1206,6.7225,0.9752,1.5543,-0.1585,-0.1679,0.3878,
5.541534,0.9050,-0.8361,-0.1206,6.7225,0.9752,1.5543,-0.1372,-0.1074,0.2278,
5.552261,0.8524,-0.8468,0.0814,6.7225,0.9752,1.5543,-0.1372,-0.1074,0.2278,
5.555111,0.8524,-0.8468,0.0814,6.1073,0.8644,3.4751,-0.1372,-0.1074,0.2278,
5.557311,0.8524,-0.8468,0.0814,6.1073,0.8644,3.4751,-0.0296,-0.1209,0.0800,
5.561177,0.8524,-0.8468,0.0814,6.1073,0.8644,3.4751,0.1518,-0.0860,-0.0312,
5.569075,0.6894,-1.0262,0.2416,6.1073,0.8644,3.4751,0.1518,-0.0860,-0.0312,
5.571866,0.6894,-1.0262,0.2416,4.3663,-0.8964,4.9260,0.1518,-0.0860,-0.0312,
5.574115,0.6894,-1.0262,0.2416,4.3663,-0.8964,4.9260,0.4047,0.0826,-0.1387,
5.581083,0.6894,-1.0262,0.2416,4.3663,-0.8964,4.9260,0.6973,0.2206,-0.2542,
5.588993,0.6748,-1.1247,0.4143,4.3663,-0.8964,4.9260,0.6973,0.2206,-0.2542,
5.591753,0.6748,-1.1247,0.4143,4.0413,-1.8449,6.3724,0.6973,0.2206,-0.2542,
5.593848,0.6748,-1.1247,0.4143,4.0413,-1.8449,6.3724,1.0607,0.3037,-0.3757,
5.602479,0.6748,-1.1247,0.4143,4.0413,-1.8449,6.3724,1.4957,0.4472,-0.4918,
5.609149,0.7196,-1.0923,0.4529,4.0413,-1.8449,6.3724,1.4957,0.4472,-0.4918,
5.612059,0.7196,-1.0923,0.4529,4.2589,-1.4997,6.3467,1.4957,0.4472,-0.4918,
5.614377,0.7196,-1.0923,0.4529,4.2589,-1.4997,6.3467,1.9960,0.5774,-0.6293,
5.621123,0.7196,-1.0923,0.4529,4.2589,-1.4997,6.3467,2.5213,0.5847,-0.8376,
5.628829,0.8041,-1.0758,0.2000,4.2589,-1.4997,6.3467,2.5213,0.5847,-0.8376,
5.630682,0.8041,-1.0758,0.2000,4.8161,-1.3233,3.2935,2.5213,0.5847,-0.8376,
5.632880,0.8041,-1.0758,0.2000,4.8161,-1.3233,3.2935,2.9520,0.4607,-1.1247,
5.640974,0.8041,-1.0758,0.2000,4.8161,-1.3233,3.2935,3.1322,0.4576,-1.5071,
5.649239,0.6186,-1.0610,-0.2428,4.8161,-1.3233,3.2935,3.1322,0.4576,-1.5071,
5.651096,0.6186,-1.0610,-0.2428,2.6562,-1.2274,-1.6940,3.1322,0.4576,-1.5071,
5.652943,0.6186,-1.0610,-0.2428,2.6562,-1.2274,-1.6940,2.9599,0.7643,-1.8864,
5.661074,0.6186,-1.0610,-0.2428,2.6562,-1.2274,-1.6940,2.5684,1.0984,-2.1008,
5.668958,0.4173,-1.2625,-0.5222,2.6562,-1.2274,-1.6940,2.5684,1.0984,-2.1008,
5.672115,0.4173,-1.2625,-0.5222,0.2825,-3.3353,-4.9893,2.5684,1.0984,-2.1008,
5.674120,0.4173,-1.2625,-0.5222,0.2825,-3.3353,-4.9893,2.0522,1.3440,-2.1686,
5.681028,0.4173,-1.2625,-0.5222,0.2825,-3.3353,-4.9893,1.0155,1.6256,-2.1876,
5.689261,0.3660,-1.5513,-0.5604,0.2825,-3.3353,-4.9893,1.0155,1.6256,-2.1876,
5.691997,0.3660,-1.5513,-0.5604,-0.6006,-6.3375,-5.6876,1.0155,1.6256,-2.1876,
5.693592,0.3660,-1.5513,-0.5604,-0.6006,-6.3375,-5.6876,0.7510,1.5309,-2.1314,
5.701675,0.3660,-1.5513,-0.5604,-0.6006,-6.3375,-5.6876,0.7462,1.2823,-2.0287,
5.708786,0.2813,-1.8330,-0.2696,-0.6006,-6.3375,-5.6876,0.7462,1.2823,-2.0287,
5.710655,0.2813,-1.8330,-0.2696,-1.7792,-9.2803,-3.0808,0.7462,1.2823,-2.0287,
5.712441,0.2813,-1.8330,-0.2696,-1.7792,-9.2803,-3.0808,1.0400,0.9280,-1.8925,
5.721069,0.2813,-1.8330,-0.2696,-1.7792,-9.2803,-3.0808,1.6704,0.4747,-1.7300,
5.728910,0.0288,-2.0479,0.1160,-1.7792,-9.2803,-3.0808,1.6704,0.4747,-1.7300,
5.730580,0.0288,-2.0479,0.1160,-4.5574,-11.5722,0.4001,1.6704,0.4747,-1.7300,
5.733182,0.0288,-2.0479,0.1160,-4.5574,-11.5722,0.4001,2.4480,-0.0799,-1.5517,
5.750500,0.0288,-2.0479,0.1160,-4.5574,-11.5722,0.4001,3.0595,-0.6309,-1.4112,
5.753223,-0.0942,-1.6735,0.0265,-4.5574,-11.5722,0.4001,3.0595,-0.6309,-1.4112,
5.755713,-0.0942,-1.6735,0.0265,-6.0187,-8.1026,-0.9031,3.0595,-0.6309,-1.4112,
5.757332,-0.0942,-1.6735,0.0265,-6.0187,-8.1026,-0.9031,3.4016,-1.0769,-1.3513,
5.771169,-0.0942,-1.6735,0.0265,-6.0187,-8.1026,-0.9031,3.5317,-1.4629,-1.3366,
5.772816,-0.0894,-1.1732,-0.0646,-6.0187,-8.1026,-0.9031,3.5317,-1.4629,-1.3366,
5.774375,-0.0894,-1.1732,-0.0646,-6.2137,-3.4252,-2.2237,3.5317,-1.4629,-1.3366,
5.775970,-0.0894,-1.1732,-0.0646,-6.2137,-3.4252,-2.2237,3.3747,-1.7012,-1.3385,
5.780745,-0.0894,-1.1732,-0.0646,-6.2137,-3.4252,-2.2237,3.0204,-1.8295,-1.3519,
5.788630,-0.1350,-0.9137,-0.0180,-6.2137,-3.4252,-2.2237,3.0204,-1.8295,-1.3519,
5.790644,-0.1350,-0.9137,-0.0180,-6.7628,-1.0002,-1.9952,3.0204,-1.8295,-1.3519,
5.792059,-0.1350,-0.9137,-0.0180,-6.7628,-1.0002,-1.9952,2.7467,-1.8240,-1.3116,
5.801043,-0.1350,-0.9137,-0.0180,-6.7628,-1.0002,-1.9952,2.4389,-1.3176,-1.2291,
5.808653,0.0260,-0.7327,-0.2072,-6.7628,-1.0002,-1.9952,2.4389,-1.3176,-1.2291,
5.810300,0.0260,-0.7327,-0.2072,-5.2720,0.6836,-3.9755,2.4389,-1.3176,-1.2291,
5.811734,0.0260,-0.7327,-0.2072,-5.2720,0.6836,-3.9755,2.0491,-0.4367,-1.2371,
5.820815,0.0260,-0.7327,-0.2072,-5.2720,0.6836,-3.9755,1.7156,0.3116,-1.3275,
5.828681,0.0139,-0.6607,-0.2097,-5.2720,0.6836,-3.9755,1.7156,0.3116,-1.3275,
5.831003,0.0139,-0.6607,-0.2097,-5.4198,1.3270,-4.1589,1.7156,0.3116,-1.3275,
5.834075,0.0139,-0.6607,-0.2097,-5.4198,1.3270,-4.1589,1.5555,0.6604,-1.3794,
5.841281,0.0139,-0.6607,-0.2097,-5.4198,1.3270,-4.1589,1.4694,0.6421,-1.3134,
5.849178,0.0678,-0.5938,-0.3186,-5.4198,1.3270,-4.1589,1.4694,0.6421,-1.3134,
5.851447,0.0678,-0.5938,-0.3186,-4.9085,1.9303,-5.3715,1.4694,0.6421,-1.3134,
5.853258,0.0678,-0.5938,-0.3186,-4.9085,1.9303,-5.3715,1.3106,0.4998,-1.1760,
5.861109,0.0678,-0.5938,-0.3186,-4.9085,1.9303,-5.3715,0.9532,0.4204,-0.9500,
5.868804,0.3644,-0.5080,-0.2008,-4.9085,1.9303,-5.3715,0.9532,0.4204,-0.9500,
5.872280,0.3644,-0.5080,-0.2008,-2.0201,2.7434,-4.2658,0.9532,0.4204,-0.9500,
5.874160,0.3644,-0.5080,-0.2008,-2.0201,2.7434,-4.2658,0.7798,0.4827,-0.9469,
5.880867,0.3644,-0.5080,-0.2008,-2.0201,2.7434,-4.2658,0.6014,0.6036,-0.9536,
5.889042,0.4895,-0.4589,-0.0694,-2.0201,2.7434,-4.2658,0.6014,0.6036,-0.9536,
5.892033,0.4895,-0.4589,-0.0694,-0.8366,3.1949,-2.9737,0.6014,0.6036,-0.9536,
5.893669,0.4895,-0.4589,-0.0694,-0.8366,3.1949,-2.9737,0.4645,0.7166,-0.9408,
5.901911,0.4895,-0.4589,-0.0694,-0.8366,3.1949,-2.9737,0.3705,0.9133,-0.8186,
5.908869,0.0676,-0.4191,0.0814,-0.8366,3.1949,-2.9737,0.3705,0.9133,-0.8186,
5.910949,0.0676,-0.4191,0.0814,-4.9764,3.5776,-1.5096,0.3705,0.9133,-0.8186,
5.912654,0.0676,-0.4191,0.0814,-4.9764,3.5776,-1.5096,0.2575,1.2634,-0.5999,
5.921176,0.0676,-0.4191,0.0814,-4.9764,3.5776,-1.5096,0.1530,1.7154,-0.3825,
5.928983,-0.0368,-0.3850,-0.0092,-4.9764,3.5776,-1.5096,0.1530,1.7154,-0.3825,
5.931533,-0.0368,-0.3850,-0.0092,-5.9147,3.9447,-2.4881,0.1530,1.7154,-0.3825,
5.933604,-0.0368,-0.3850,-0.0092,-5.9147,3.9447,-2.4881,0.0449,2.0019,-0.1503,
5.941311,-0.0368,-0.3850,-0.0092,-5.9147,3.9447,-2.4881,-0.0810,2.0196,0.1020,
5.949203,-0.0432,-0.4118,-0.0492,-5.9147,3.9447,-2.4881,-0.0810,2.0196,0.1020,
5.951477,-0.0432,-0.4118,-0.0492,-5.8436,3.7210,-3.0582,-0.0810,2.0196,0.1020,
5.953222,-0.0432,-0.4118,-0.0492,-5.8436,3.7210,-3.0582,-0.2141,1.8223,0.3573,
5.961076,-0.0432,-0.4118,-0.0492,-5.8436,3.7210,-3.0582,-0.3216,1.5419,0.5974,
5.968942,0.0037,-0.5053,-0.0890,-5.8436,3.7210,-3.0582,-0.3216,1.5419,0.5974,
5.972407,0.0037,-0.5053,-0.0890,-5.1891,2.9021,-3.5515,-0.3216,1.5419,0.5974,
5.974287,0.0037,-0.5053,-0.0890,-5.1891,2.9021,-3.5515,-0.4047,1.1919,0.8209,
5.980893,0.0037,-0.5053,-0.0890,-5.1891,2.9021,-3.5515,-0.5770,0.9378,1.0457,
5.989020,0.1951,-0.5702,0.0404,-5.1891,2.9021,-3.5515,-0.5770,0.9378,1.0457,
5.992339,0.1951,-0.5702,0.0404,-3.0639,2.4335,-2.2624,-0.5770,0.9378,1.0457,
5.993935,0.1951,-0.5702,0.0404,-3.0639,2.4335,-2.2624,-0.8207,0.8736,1.2339,
6.002074,0.1951,-0.5702,0.0404,-3.0639,2.4335,-2.2624,-1.1072,0.8724,1.3420,
6.008827,0.5548,-0.6551,0.3158,-3.0639,2.4335,-2.2624,-1.1072,0.8724,1.3420,
6.010783,0.5548,-0.6551,0.3158,0.7583,1.8210,0.5720,-1.1072,0.8724,1.3420,
6.012346,0.5548,-0.6551,0.3158,0.7583,1.8210,0.5720,-1.4126,0.7111,1.3603,
6.020995,0.5548,-0.6551,0.3158,0.7583,1.8210,0.5720,-1.5886,0.1607,1.2754,
6.028880,1.2225,-0.8441,1.0200,0.7583,1.8210,0.5720,-1.5886,0.1607,1.2754,
6.030828,1.2225,-0.8441,1.0200,7.4931,0.1204,7.6292,-1.5886,0.1607,1.2754,
6.032802,1.2225,-0.8441,1.0200,7.4931,0.1204,7.6292,-1.4511,-0.7250,1.0482,
6.040897,1.2225,-0.8441,1.0200,7.4931,0.1204,7.6292,-0.9991,-1.5045,0.6340,
6.049091,1.6842,-1.0348,1.3098,7.4931,0.1204,7.6292,-0.9991,-1.5045,0.6340,
6.051514,1.6842,-1.0348,1.3098,12.0137,-1.6984,10.6637,-0.9991,-1.5045,0.6340,
6.053432,1.6842,-1.0348,1.3098,12.0137,-1.6984,10.6637,0.0913,-0.9913,-0.3153,
6.061333,1.6842,-1.0348,1.3098,12.0137,-1.6984,10.6637,0.2703,-0.2131,-0.4607,
6.069038,1.2932,-1.0239,0.8391,12.0137,-1.6984,10.6637,0.2703,-0.2131,-0.4607,
6.072090,1.2932,-1.0239,0.8391,8.0123,-1.7003,5.9889,0.2703,-0.2131,-0.4607,
6.074590,1.2932,-1.0239,0.8391,8.0123,-1.7003,5.9889,0.2373,0.1113,-0.5138,
6.081061,1.2932,-1.0239,0.8391,8.0123,-1.7003,5.9889,0.0718,0.1180,-0.5450,
6.089121,0.8170,-0.5761,0.4694,8.0123,-1.7003,5.9889,0.0718,0.1180,-0.5450,
6.092098,0.8170,-0.5761,0.4694,3.1656,2.5479,2.2326,0.0718,0.1180,-0.5450,
6.094210,0.8170,-0.5761,0.4694,3.1656,2.5479,2.2326,-0.1958,0.0038,-0.5505,
6.103014,0.8170,-0.5761,0.4694,3.1656,2.5479,2.2326,-0.4530,-0.1948,-0.5150,
6.109058,0.6446,-0.7059,0.4198,3.1656,2.5479,2.2326,-0.4530,-0.1948,-0.5150,
6.111881,0.6446,-0.7059,0.4198,1.3053,1.1639,1.7196,-0.4530,-0.1948,-0.5150,
6.113778,0.6446,-0.7059,0.4198,1.3053,1.1639,1.7196,-0.6405,-0.2821,-0.3678,
6.121212,0.6446,-0.7059,0.4198,1.3053,1.1639,1.7196,-0.7535,-0.3267,-0.1509,
6.129032,0.6949,-1.1056,0.5256,1.3053,1.1639,1.7196,-0.7535,-0.3267,-0.1509,
6.131514,0.6949,-1.1056,0.5256,1.6926,-2.8014,2.8183,-0.7535,-0.3267,-0.1509,
6.134049,0.6949,-1.1056,0.5256,1.6926,-2.8014,2.8183,-0.7468,-0.4709,0.0274,
6.141271,0.6949,-1.1056,0.5256,1.6926,-2.8014,2.8183,-0.5892,-0.6370,0.1392,
6.149395,0.8768,-1.5697,-0.0439,1.6926,-2.8014,2.8183,-0.5892,-0.6370,0.1392,
6.152116,0.8768,-1.5697,-0.0439,3.4430,-7.3281,-2.6145,-0.5892,-0.6370,0.1392,
6.154306,0.8768,-1.5697,-0.0439,3.4430,-7.3281,-2.6145,-0.4053,-0.3597,0.1142,
6.161189,0.8768,-1.5697,-0.0439,3.4430,-7.3281,-2.6145,-0.3577,0.6757,-0.0679,
6.169362,0.4718,-1.5291,-0.5397,3.4430,-7.3281,-2.6145,-0.3577,0.6757,-0.0679,
6.172621,0.4718,-1.5291,-0.5397,-0.5170,-6.9031,-7.3927,-0.3577,0.6757,-0.0679,
6.175061,0.4718,-1.5291,-0.5397,-0.5170,-6.9031,-7.3927,-0.3302,1.7557,-0.2737,
6.181064,0.4718,-1.5291,-0.5397,-0.5170,-6.9031,-7.3927,-0.2612,1.8687,-0.3495,
6.188840,-0.0677,-0.9458,0.0905,-0.5170,-6.9031,-7.3927,-0.2612,1.8687,-0.3495,
6.191554,-0.0677,-0.9458,0.0905,-5.7362,-1.1679,-1.3050,-0.2612,1.8687,-0.3495,
6.193241,-0.0677,-0.9458,0.0905,-5.7362,-1.1679,-1.3050,-0.1738,0.4588,-0.3641,
6.202055,-0.0677,-0.9458,0.0905,-5.7362,-1.1679,-1.3050,-0.0730,-1.9028,-0.3159,
6.208910,-0.5479,-0.6357,0.1974,-5.7362,-1.1679,-1.3050,-0.0730,-1.9028,-0.3159,
6.210968,-0.5479,-0.6357,0.1974,-10.4166,1.9185,-0.1387,-0.0730,-1.9028,-0.3159,
6.212972,-0.5479,-0.6357,0.1974,-10.4166,1.9185,-0.1387,0.2966,-3.0194,0.0671,
6.232975,-0.5479,-0.6357,0.1974,-10.4166,1.9185,-0.1387,0.6221,-2.1581,0.5289,
6.235548,-0.3126,-1.0736,-0.5915,-10.4166,1.9185,-0.1387,0.6221,-2.1581,0.5289,
6.237983,-0.3126,-1.0736,-0.5915,-8.0117,-2.2467,-7.5897,0.6221,-2.1581,0.5289,
6.240381,-0.3126,-1.0736,-0.5915,-8.0117,-2.2467,-7.5897,0.0968,0.3171,1.1337,
6.242221,-0.3126,-1.0736,-0.5915,-8.0117,-2.2467,-7.5897,-0.3583,0.8076,1.4080,
6.258634,-0.0507,-1.2852,-0.6214,-8.0117,-2.2467,-7.5897,-0.3583,0.8076,1.4080,
6.260536,-0.0507,-1.2852,-0.6214,-5.0639,-4.0812,-7.7726,-0.3583,0.8076,1.4080,
6.262167,-0.0507,-1.2852,-0.6214,-5.0639,-4.0812,-7.7726,-0.8397,1.0874,1.5430,
6.263600,-0.0507,-1.2852,-0.6214,-5.0639,-4.0812,-7.7726,-1.2899,1.3018,1.5576,
6.268710,0.3595,-1.0164,-0.4434,-5.0639,-4.0812,-7.7726,-1.2899,1.3018,1.5576,
6.271516,0.3595,-1.0164,-0.4434,-0.6317,-1.1965,-5.7914,-1.2899,1.3018,1.5576,
6.273006,0.3595,-1.0164,-0.4434,-0.6317,-1.1965,-5.7914,-1.7187,1.4210,1.4446,
6.280705,0.3595,-1.0164,-0.4434,-0.6317,-1.1965,-5.7914,-2.1261,1.4399,1.2131,
6.289063,0.4096,-0.9946,-0.3571,-0.6317,-1.1965,-5.7914,-2.1261,1.4399,1.2131,
6.291190,0.4096,-0.9946,-0.3571,0.2016,-0.7747,-4.5665,-2.1261,1.4399,1.2131,
6.292341,0.4096,-0.9946,-0.3571,0.2016,-0.7747,-4.5665,-2.4401,1.2927,1.0042,
6.303129,0.4096,-0.9946,-0.3571,0.2016,-0.7747,-4.5665,-2.7065,0.9048,0.8796,
6.308983,0.3963,-1.0140,-0.2458,0.2016,-0.7747,-4.5665,-2.7065,0.9048,0.8796,
6.311197,0.3963,-1.0140,-0.2458,0.3068,-0.8229,-2.9642,-2.7065,0.9048,0.8796,
6.313302,0.3963,-1.0140,-0.2458,0.3068,-0.8229,-2.9642,-2.9679,0.2890,0.8106,
6.321443,0.3963,-1.0140,-0.2458,0.3068,-0.8229,-2.9642,-3.1805,-0.3866,0.7654,
6.329082,0.3163,-0.9980,0.0581,0.3068,-0.8229,-2.9642,-3.1805,-0.3866,0.7654,
6.331430,0.3163,-0.9980,0.0581,-0.2968,-0.5808,0.6495,-3.1805,-0.3866,0.7654,
6.334325,0.3163,-0.9980,0.0581,-0.2968,-0.5808,0.6495,-3.3063,-0.9455,0.7287,
6.341082,0.3163,-0.9980,0.0581,-0.2968,-0.5808,0.6495,-3.2318,-1.4727,0.7183,
6.349127,0.2154,-0.8784,0.7120,-0.2968,-0.5808,0.6495,-3.2318,-1.4727,0.7183,
6.351745,0.2154,-0.8784,0.7120,-1.1141,0.6253,7.6930,-3.2318,-1.4727,0.7183,
6.353989,0.2154,-0.8784,0.7120,-1.1141,0.6253,7.6930,-2.7663,-1.8221,0.7513,
6.361235,0.2154,-0.8784,0.7120,-1.1141,0.6253,7.6930,-1.9948,-1.6590,0.7947,
6.369573,0.2935,-0.7788,0.3764,-1.1141,0.6253,7.6930,-1.9948,-1.6590,0.7947,
6.372696,0.2935,-0.7788,0.3764,-0.1602,1.6199,4.8445,-1.9948,-1.6590,0.7947,
6.375052,0.2935,-0.7788,0.3764,-0.1602,1.6199,4.8445,-1.2453,-1.1569,0.7776,
6.381205,0.2935,-0.7788,0.3764,-0.1602,1.6199,4.8445,-0.7804,-0.7195,0.6902,
6.389050,0.3474,-0.8072,-0.1523,-0.1602,1.6199,4.8445,-0.7804,-0.7195,0.6902,
6.392227,0.3474,-0.8072,-0.1523,0.5203,1.3691,-0.1731,-0.7804,-0.7195,0.6902,
6.394243,0.3474,-0.8072,-0.1523,0.5203,1.3691,-0.1731,-0.6692,-0.5063,0.5986,
6.403354,0.3474,-0.8072,-0.1523,0.5203,1.3691,-0.1731,-0.8250,-0.4355,0.5418,
6.417989,0.3461,-0.8058,-0.2592,0.5203,1.3691,-0.1731,-0.8250,-0.4355,0.5418,
6.420323,0.3461,-0.8058,-0.2592,0.6109,1.3949,-1.0928,-0.8250,-0.4355,0.5418,
6.422734,0.3461,-0.8058,-0.2592,0.6109,1.3949,-1.0928,-1.0693,-0.4110,0.5546,
6.424896,0.3461,-0.8058,-0.2592,0.6109,1.3949,-1.0928,-1.3400,-0.3554,0.5760,
6.430594,0.3793,-0.7174,-0.2300,0.6109,1.3949,-1.0928,-1.3400,-0.3554,0.5760,
6.433815,0.3793,-0.7174,-0.2300,1.0257,2.2508,-0.5858,-1.3400,-0.3554,0.5760,
6.436150,0.3793,-0.7174,-0.2300,1.0257,2.2508,-0.5858,-1.3222,-0.4049,0.5809,
6.441246,0.3793,-0.7174,-0.2300,1.0257,2.2508,-0.5858,-1.2514,-0.4856,0.6004,
6.448800,0.3408,-0.7189,-0.1687,1.0257,2.2508,-0.5858,-1.2514,-0.4856,0.6004,
6.450936,0.3408,-0.7189,-0.1687,0.7351,2.2153,0.2529,-1.2514,-0.4856,0.6004,
6.452868,0.3408,-0.7189,-0.1687,0.7351,2.2153,0.2529,-1.1988,-0.4990,0.6560,
6.460927,0.3408,-0.7189,-0.1687,0.7351,2.2153,0.2529,-1.1995,-0.5344,0.7250,
6.469516,0.3825,-0.8336,-0.0200,0.7351,2.2153,0.2529,-1.1995,-0.5344,0.7250,
6.472067,0.3825,-0.8336,-0.0200,1.2353,1.0735,1.9090,-1.1995,-0.5344,0.7250,
6.474033,0.3825,-0.8336,-0.0200,1.2353,1.0735,1.9090,-1.2660,-0.8044,0.7904,
6.480861,0.3825,-0.8336,-0.0200,1.2353,1.0735,1.9090,-1.3448,-1.2687,0.8271,
6.489100,0.3821,-0.9471,0.2356,1.2353,1.0735,1.9090,-1.3448,-1.2687,0.8271,
6.492820,0.3821,-0.9471,0.2356,1.3646,-0.0501,4.6104,-1.3448,-1.2687,0.8271,
6.494731,0.3821,-0.9471,0.2356,1.3646,-0.0501,4.6104,-1.3228,-1.5081,0.8509,
6.503036,0.3821,-0.9471,0.2356,1.3646,-0.0501,4.6104,-1.2031,-1.2149,0.8936,
6.508987,0.3754,-0.9367,-0.0683,1.3646,-0.0501,4.6104,-1.2031,-1.2149,0.8936,
6.511363,0.3754,-0.9367,-0.0683,1.4593,0.0390,1.8342,-1.2031,-1.2149,0.8936,
6.513309,0.3754,-0.9367,-0.0683,1.4593,0.0390,1.8342,-1.1194,-0.6028,0.9602,
6.521291,0.3754,-0.9367,-0.0683,1.4593,0.0390,1.8342,-1.1494,-0.1667,1.0250,
6.529151,0.3533,-0.9490,-0.2427,1.4593,0.0390,1.8342,-1.1494,-0.1667,1.0250,
6.532775,0.3533,-0.9490,-0.2427,1.3762,-0.0925,0.2742,-1.1494,-0.1667,1.0250,
6.535321,0.3533,-0.9490,-0.2427,1.3762,-0.0925,0.2742,-1.2709,-0.1746,1.0586,
6.541165,0.3533,-0.9490,-0.2427,1.3762,-0.0925,0.2742,-1.3974,-0.5943,1.0555,
6.549095,0.2224,-1.0015,0.3457,1.3762,-0.0925,0.2742,-1.3974,-0.5943,1.0555,
6.551970,0.2224,-1.0015,0.3457,0.2504,-0.6128,6.1745,-1.3974,-0.5943,1.0555,
6.554019,0.2224,-1.0015,0.3457,0.2504,-0.6128,6.1745,-1.3363,-1.1013,1.0506,
6.561457,0.2224,-1.0015,0.3457,0.2504,-0.6128,6.1745,-0.8531,-1.2412,1.0763,
6.569728,0.5498,-1.0255,0.0277,0.2504,-0.6128,6.1745,-0.8531,-1.2412,1.0763,
6.572792,0.5498,-1.0255,0.0277,3.6353,-0.8476,3.1734,-0.8531,-1.2412,1.0763,
6.574903,0.5498,-1.0255,0.0277,3.6353,-0.8476,3.1734,-0.1677,-0.9926,1.0592,
6.580997,0.5498,-1.0255,0.0277,3.6353,-0.8476,3.1734,0.2220,-0.8423,0.9340,
6.589094,0.8817,-0.9201,-0.4222,3.6353,-0.8476,3.1734,0.2220,-0.8423,0.9340,
6.591960,0.8817,-0.9201,-0.4222,6.9895,0.2205,-1.2874,0.2220,-0.8423,0.9340,
6.593806,0.8817,-0.9201,-0.4222,6.9895,0.2205,-1.2874,0.2605,-0.8637,0.7324,
6.603593,0.8817,-0.9201,-0.4222,6.9895,0.2205,-1.2874,-0.0968,-1.0427,0.2064,
6.609096,1.0677,-0.8237,-0.1936,6.9895,0.2205,-1.2874,-0.0968,-1.0427,0.2064,
6.611947,1.0677,-0.8237,-0.1936,8.7702,1.1718,0.9048,-0.0968,-1.0427,0.2064,
6.613714,1.0677,-0.8237,-0.1936,8.7702,1.1718,0.9048,-0.1903,-0.9321,-0.0257,
6.621255,1.0677,-0.8237,-0.1936,8.7702,1.1718,0.9048,-0.0577,-0.5931,-0.1540,
6.629044,1.0108,-0.7997,0.1823,8.7702,1.1718,0.9048,-0.0577,-0.5931,-0.1540,
6.631420,1.0108,-0.7997,0.1823,8.0287,1.3826,4.5497,-0.0577,-0.5931,-0.1540,
6.633379,1.0108,-0.7997,0.1823,8.0287,1.3826,4.5497,0.2013,-0.3102,-0.1564,
6.641204,1.0108,-0.7997,0.1823,8.0287,1.3826,4.5497,0.4102,-0.1954,-0.1308,
6.649185,0.7450,-1.0316,0.1290,8.0287,1.3826,4.5497,0.4102,-0.1954,-0.1308,
6.651502,0.7450,-1.0316,0.1290,5.2189,-0.8907,3.8812,0.4102,-0.1954,-0.1308,
6.653860,0.7450,-1.0316,0.1290,5.2189,-0.8907,3.8812,0.5409,-0.1135,-0.1986,
6.661300,0.7450,-1.0316,0.1290,5.2189,-0.8907,3.8812,0.6686,-0.0085,-0.2878,
6.671378,0.6626,-1.1468,0.2862,5.2189,-0.8907,3.8812,0.6686,-0.0085,-0.2878,
6.673921,0.6626,-1.1468,0.2862,4.2036,-2.0069,5.1943,0.6686,-0.0085,-0.2878,
6.676323,0.6626,-1.1468,0.2862,4.2036,-2.0069,5.1943,0.8665,0.1113,-0.3373,
6.681208,0.6626,-1.1468,0.2862,4.2036,-2.0069,5.1943,1.2061,0.3171,-0.3745,
6.689397,0.7351,-1.0706,0.3880,4.2036,-2.0069,5.1943,1.2061,0.3171,-0.3745,
6.691943,0.7351,-1.0706,0.3880,4.6879,-1.2384,5.8566,1.2061,0.3171,-0.3745,
6.693840,0.7351,-1.0706,0.3880,4.6879,-1.2384,5.8566,1.6582,0.5224,-0.4802,
6.702604,0.7351,-1.0706,0.3880,4.6879,-1.2384,5.8566,2.1114,0.5193,-0.6879,
6.708874,0.7598,-0.9456,0.3161,4.6879,-1.2384,5.8566,2.1114,0.5193,-0.6879,
6.710843,0.7598,-0.9456,0.3161,4.6592,0.0071,4.6475,2.1114,0.5193,-0.6879,
6.712431,0.7598,-0.9456,0.3161,4.6592,0.0071,4.6475,2.5342,0.3642,-0.9628,
6.721060,0.7598,-0.9456,0.3161,4.6592,0.0071,4.6475,2.8182,0.3171,-1.2835,
6.728826,0.6924,-0.8641,-0.1781,4.6592,0.0071,4.6475,2.8182,0.3171,-1.2835,
6.730812,0.6924,-0.8641,-0.1781,3.6541,0.7753,-0.7847,2.8182,0.3171,-1.2835,
6.732368,0.6924,-0.8641,-0.1781,3.6541,0.7753,-0.7847,2.8225,0.4912,-1.6347,
6.740914,0.6924,-0.8641,-0.1781,3.6541,0.7753,-0.7847,2.5879,0.8156,-1.9469,
6.748834,0.6218,-0.9830,-0.5235,3.6541,0.7753,-0.7847,2.5879,0.8156,-1.9469,
6.751020,0.6218,-0.9830,-0.5235,2.5271,-0.5077,-4.7054,2.5879,0.8156,-1.9469,
6.753176,0.6218,-0.9830,-0.5235,2.5271,-0.5077,-4.7054,2.1744,1.2762,-2.2004,
6.761089,0.6218,-0.9830,-0.5235,2.5271,-0.5077,-4.7054,1.6276,1.8046,-2.4319,
6.771124,0.5768,-1.3634,-0.4860,2.5271,-0.5077,-4.7054,1.6276,1.8046,-2.4319,
6.773574,0.5768,-1.3634,-0.4860,1.6139,-4.4245,-4.7413,1.6276,1.8046,-2.4319,
6.775289,0.5768,-1.3634,-0.4860,1.6139,-4.4245,-4.7413,1.0943,2.1430,-2.6085,
6.780778,0.5768,-1.3634,-0.4860,1.6139,-4.4245,-4.7413,0.5580,1.8174,-2.7606,
6.788737,0.4669,-1.8223,-0.1666,1.6139,-4.4245,-4.7413,0.5580,1.8174,-2.7606,
6.790850,0.4669,-1.8223,-0.1666,0.0759,-9.1484,-1.8845,0.5580,1.8174,-2.7606,
6.792415,0.4669,-1.8223,-0.1666,0.0759,-9.1484,-1.8845,0.6698,1.3385,-2.6818,
6.803109,0.4669,-1.8223,-0.1666,0.0759,-9.1484,-1.8845,1.0125,0.8907,-2.4374,
6.808773,0.1578,-2.1417,0.0919,0.0759,-9.1484,-1.8845,1.0125,0.8907,-2.4374,
6.811689,0.1578,-2.1417,0.0919,-3.3844,-12.5268,0.3998,1.0125,0.8907,-2.4374,
6.813568,0.1578,-2.1417,0.0919,-3.3844,-12.5268,0.3998,1.5189,0.3788,-2.0184,
6.830636,0.1578,-2.1417,0.0919,-3.3844,-12.5268,0.3998,2.0992,-0.3255,-1.4900,
6.833465,-0.0781,-1.9920,0.1352,-3.3844,-12.5268,0.3998,2.0992,-0.3255,-1.4900,
6.835961,-0.0781,-1.9920,0.1352,-5.9906,-11.2619,0.5196,2.0992,-0.3255,-1.4900,
6.838523,-0.0781,-1.9920,0.1352,-5.9906,-11.2619,0.5196,2.6154,-1.1001,-1.0257,
6.841013,-0.0781,-1.9920,0.1352,-5.9906,-11.2619,0.5196,2.9813,-1.6786,-0.7875,
6.848782,0.0341,-1.2948,0.0484,-5.9906,-11.2619,0.5196,2.9813,-1.6786,-0.7875,
6.851740,0.0341,-1.2948,0.0484,-5.0667,-4.5800,-0.6406,2.9813,-1.6786,-0.7875,
6.853279,0.0341,-1.2948,0.0484,-5.0667,-4.5800,-0.6406,3.0558,-1.8551,-0.8058,
6.865957,0.0341,-1.2948,0.0484,-5.0667,-4.5800,-0.6406,2.9263,-1.8221,-0.9744,
6.872120,-0.0580,-0.8946,0.0390,-5.0667,-4.5800,-0.6406,2.9263,-1.8221,-0.9744,
6.873984,-0.0580,-0.8946,0.0390,-6.0043,-0.7163,-0.9604,2.9263,-1.8221,-0.9744,
6.875579,-0.0580,-0.8946,0.0390,-6.0043,-0.7163,-0.9604,2.7400,-1.6798,-1.1534,
6.880650,-0.0580,-0.8946,0.0390,-6.0043,-0.7163,-0.9604,2.5879,-1.2577,-1.3061,
6.888786,-0.1291,-0.7433,-0.3558,-6.0043,-0.7163,-0.9604,2.5879,-1.2577,-1.3061,
6.891597,-0.1291,-0.7433,-0.3558,-6.7712,0.6883,-5.0010,2.5879,-1.2577,-1.3061,
6.892832,-0.1291,-0.7433,-0.3558,-6.7712,0.6883,-5.0010,2.3106,-0.4660,-1.3531,
6.902404,-0.1291,-0.7433,-0.3558,-6.7712,0.6883,-5.0010,1.9092,0.3629,-1.3165,
6.908642,0.0035,-0.5416,-0.2810,-6.7712,0.6883,-5.0010,1.9092,0.3629,-1.3165,
6.910244,0.0035,-0.5416,-0.2810,-5.5146,2.5927,-4.4722,1.9092,0.3629,-1.3165,
6.911650,0.0035,-0.5416,-0.2810,-5.5146,2.5927,-4.4722,1.5879,0.7612,-1.2774,
6.920789,0.0035,-0.5416,-0.2810,-5.5146,2.5927,-4.4722,1.4230,0.7130,-1.2902,
6.928669,-0.0107,-0.4909,-0.2783,-5.5146,2.5927,-4.4722,1.4230,0.7130,-1.2902,
6.930130,-0.0107,-0.4909,-0.2783,-5.6610,3.0471,-4.6117,1.4230,0.7130,-1.2902,
6.931563,-0.0107,-0.4909,-0.2783,-5.6610,3.0471,-4.6117,1.3222,0.4362,-1.2646,
6.940751,-0.0107,-0.4909,-0.2783,-5.6610,3.0471,-4.6117,1.1334,0.1449,-1.1063,
6.948769,0.2794,-0.4125,-0.1090,-5.6610,3.0471,-4.6117,1.1334,0.1449,-1.1063,
6.950844,0.2794,-0.4125,-0.1090,-2.8543,3.7740,-3.0172,1.1334,0.1449,-1.1063,
6.952473,0.2794,-0.4125,-0.1090,-2.8543,3.7740,-3.0172,0.8873,0.0251,-0.9267,
6.961037,0.2794,-0.4125,-0.1090,-2.8543,3.7740,-3.0172,0.6698,0.1247,-0.8815,
6.971057,0.5388,-0.4092,0.0882,-2.8543,3.7740,-3.0172,0.6698,0.1247,-0.8815,
6.974055,0.5388,-0.4092,0.0882,-0.3674,3.7666,-1.0833,0.6698,0.1247,-0.8815,
6.976056,0.5388,-0.4092,0.0882,-0.3674,3.7666,-1.0833,0.4548,0.6042,-1.0391,
6.981169,0.5388,-0.4092,0.0882,-0.3674,3.7666,-1.0833,0.4200,0.9671,-0.9933,
6.989088,0.3176,-0.5597,0.0767,-0.3674,3.7666,-1.0833,0.4200,0.9671,-0.9933,
6.992690,0.3176,-0.5597,0.0767,-2.5897,2.2393,-1.2457,0.4200,0.9671,-0.9933,
6.994659,0.3176,-0.5597,0.0767,-2.5897,2.2393,-1.2457,0.3131,1.4087,-0.8339,
7.003911,0.3176,-0.5597,0.0767,-2.5897,2.2393,-1.2457,0.1640,1.8467,-0.6836,
7.009086,-0.0333,-0.5503,-0.0671,-2.5897,2.2393,-1.2457,0.1640,1.8467,-0.6836,
7.011420,-0.0333,-0.5503,-0.0671,-5.9759,2.3417,-2.7627,0.1640,1.8467,-0.6836,
7.013371,-0.0333,-0.5503,-0.0671,-5.9759,2.3417,-2.7627,0.0272,2.1290,-0.5370,
7.021197,-0.0333,-0.5503,-0.0671,-5.9759,2.3417,-2.7627,-0.0968,2.1198,-0.3122,
7.029090,-0.1610,-0.5297,-0.1494,-5.9759,2.3417,-2.7627,-0.0968,2.1198,-0.3122,
7.031519,-0.1610,-0.5297,-0.1494,-7.0645,2.6315,-3.6732,-0.0968,2.1198,-0.3122,
7.033814,-0.1610,-0.5297,-0.1494,-7.0645,2.6315,-3.6732,-0.2202,1.8321,-0.0300,
7.041171,-0.1610,-0.5297,-0.1494,-7.0645,2.6315,-3.6732,-0.3613,1.4112,0.2480,
7.049066,-0.1969,-0.5185,-0.1137,-7.0645,2.6315,-3.6732,-0.3613,1.4112,0.2480,
7.052050,-0.1969,-0.5185,-0.1137,-7.1978,2.8819,-3.3502,-0.3613,1.4112,0.2480,
7.054379,-0.1969,-0.5185,-0.1137,-7.1978,2.8819,-3.3502,-0.5281,1.0251,0.4960,
7.061220,-0.1969,-0.5185,-0.1137,-7.1978,2.8819,-3.3502,-0.7053,0.7417,0.7721,
7.071525,-0.1683,-0.5381,-0.0434,-7.1978,2.8819,-3.3502,-0.7053,0.7417,0.7721,
7.074440,-0.1683,-0.5381,-0.0434,-6.6475,2.8872,-2.5694,-0.7053,0.7417,0.7721,
7.076626,-0.1683,-0.5381,-0.0434,-6.6475,2.8872,-2.5694,-0.9007,0.5468,1.1203,
7.081133,-0.1683,-0.5381,-0.0434,-6.6475,2.8872,-2.5694,-1.1292,0.4625,1.4984,
7.089157,0.1200,-0.5993,0.0958,-6.6475,2.8872,-2.5694,-1.1292,0.4625,1.4984,
7.092293,0.1200,-0.5993,0.0958,-3.4680,2.5390,-1.0228,-1.1292,0.4625,1.4984,
7.094312,0.1200,-0.5993,0.0958,-3.4680,2.5390,-1.0228,-1.3900,0.4356,1.8411,
7.101338,0.1200,-0.5993,0.0958,-3.4680,2.5390,-1.0228,-1.6704,0.2982,2.0726,
7.109389,0.7710,-0.7530,0.5779,-3.4680,2.5390,-1.0228,-1.6704,0.2982,2.0726,
7.112895,0.7710,-0.7530,0.5779,3.2959,1.2805,3.9212,-1.6704,0.2982,2.0726,
7.114788,0.7710,-0.7530,0.5779,3.2959,1.2805,3.9212,-1.8885,-0.0708,2.1367,
7.121306,0.7710,-0.7530,0.5779,3.2959,1.2805,3.9212,-1.8421,-0.7653,1.9480,
7.128972,2.1473,-1.0194,1.9455,3.2959,1.2805,3.9212,-1.8421,-0.7653,1.9480,
7.131368,2.1473,-1.0194,1.9455,17.0222,-1.1798,17.5234,-1.8421,-0.7653,1.9480,
7.133661,2.1473,-1.0194,1.9455,17.0222,-1.1798,17.5234,-1.1940,-1.4342,1.3646,
7.141200,2.1473,-1.0194,1.9455,17.0222,-1.1798,17.5234,-0.2526,-1.3438,0.3610,
7.149038,2.2010,-1.2359,1.1846,17.0222,-1.1798,17.5234,-0.2526,-1.3438,0.3610,
7.151754,2.2010,-1.2359,1.1846,17.6616,-3.2130,10.3045,-0.2526,-1.3438,0.3610,
7.154295,2.2010,-1.2359,1.1846,17.6616,-3.2130,10.3045,0.4908,0.3483,-1.0208,
7.161315,2.2010,-1.2359,1.1846,17.6616,-3.2130,10.3045,0.3308,0.4827,-0.9457,
7.171254,1.2121,-0.9915,0.3873,17.6616,-3.2130,10.3045,0.3308,0.4827,-0.9457,
7.173633,1.2121,-0.9915,0.3873,7.8079,-0.9074,2.3848,0.3308,0.4827,-0.9457,
7.175567,1.2121,-0.9915,0.3873,7.8079,-0.9074,2.3848,-0.0437,0.2621,-0.9750,
7.180915,1.2121,-0.9915,0.3873,7.8079,-0.9074,2.3848,-0.4029,-0.0011,-0.8504,
7.188992,0.7610,-0.7550,0.2130,7.8079,-0.9074,2.3848,-0.4029,-0.0011,-0.8504,
7.192190,0.7610,-0.7550,0.2130,3.1837,1.3122,0.6697,-0.4029,-0.0011,-0.8504,
7.193799,0.7610,-0.7550,0.2130,3.1837,1.3122,0.6697,-0.7193,-0.2736,-0.7331,
7.201435,0.7610,-0.7550,0.2130,3.1837,1.3122,0.6697,-0.9368,-0.4752,-0.6531,
7.209114,0.7123,-1.0929,0.3288,3.1837,1.3122,0.6697,-0.9368,-0.4752,-0.6531,
7.211902,0.7123,-1.0929,0.3288,2.4904,-2.0920,1.9064,-0.9368,-0.4752,-0.6531,
7.213497,0.7123,-1.0929,0.3288,2.4904,-2.0920,1.9064,-0.9759,-0.5173,-0.5205,
7.221037,0.7123,-1.0929,0.3288,2.4904,-2.0920,1.9064,-0.9282,-0.2345,-0.2982,
7.228843,0.8206,-1.5782,0.1647,2.4904,-2.0920,1.9064,-0.9282,-0.2345,-0.2982,
7.231879,0.8206,-1.5782,0.1647,3.4665,-6.8659,0.4900,-0.9282,-0.2345,-0.2982,
7.234216,0.8206,-1.5782,0.1647,3.4665,-6.8659,0.4900,-0.8549,0.2939,-0.1290,
7.241056,0.8206,-1.5782,0.1647,3.4665,-6.8659,0.4900,-0.7089,0.8675,-0.1680,
7.248888,0.7986,-1.5439,-0.2475,3.4665,-6.8659,0.4900,-0.7089,0.8675,-0.1680,
7.251656,0.7986,-1.5439,-0.2475,3.2378,-6.5263,-3.4677,-0.7089,0.8675,-0.1680,
7.253773,0.7986,-1.5439,-0.2475,3.2378,-6.5263,-3.4677,-0.4408,1.3709,-0.3983,
7.261083,0.7986,-1.5439,-0.2475,3.2378,-6.5263,-3.4677,-0.1390,1.5236,-0.6012,
7.271156,0.0343,-0.9935,-0.2982,3.2378,-6.5263,-3.4677,-0.1390,1.5236,-0.6012,
7.273188,0.0343,-0.9935,-0.2982,-4.3097,-1.1724,-4.0397,-0.1390,1.5236,-0.6012,
7.274985,0.0343,-0.9935,-0.2982,-4.3097,-1.1724,-4.0397,-0.0174,1.1131,-0.6586,
7.280777,0.0343,-0.9935,-0.2982,-4.3097,-1.1724,-4.0397,-0.0999,-0.2382,-0.5688,
7.288707,-0.6423,-0.4180,0.0754,-4.3097,-1.1724,-4.0397,-0.0999,-0.2382,-0.5688,
7.292162,-0.6423,-0.4180,0.0754,-10.9657,4.4513,-0.3952,-0.0999,-0.2382,-0.5688,
7.294223,-0.6423,-0.4180,0.0754,-10.9657,4.4513,-0.3952,-0.3534,-1.8808,-0.3819,
7.301220,-0.6423,-0.4180,0.0754,-10.9657,4.4513,-0.3952,-0.3449,-2.3988,-0.0844,
7.317371,-0.7666,-0.8455,-0.1769,-10.9657,4.4513,-0.3952,-0.3449,-2.3988,-0.0844,
7.320071,-0.7666,-0.8455,-0.1769,-12.0976,0.3415,-2.5774,-0.3449,-2.3988,-0.0844,
7.322225,-0.7666,-0.8455,-0.1769,-12.0976,0.3415,-2.5774,-0.0816,-1.6175,0.3512,
7.324106,-0.7666,-0.8455,-0.1769,-12.0976,0.3415,-2.5774,-0.0138,-0.4037,0.9718,
7.328643,-0.3495,-1.2659,-0.4669,-12.0976,0.3415,-2.5774,-0.0138,-0.4037,0.9718,
7.331270,-0.3495,-1.2659,-0.4669,-7.7185,-3.6142,-5.2446,-0.0138,-0.4037,0.9718,
7.333282,-0.3495,-1.2659,-0.4669,-7.7185,-3.6142,-5.2446,-0.2129,1.1051,2.0628,
7.346501,-0.3495,-1.2659,-0.4669,-7.7185,-3.6142,-5.2446,-0.9582,1.3360,2.1569,
7.348654,0.1518,-1.2133,-0.5126,-7.7185,-3.6142,-5.2446,-0.9582,1.3360,2.1569,
7.350321,0.1518,-1.2133,-0.5126,-2.2640,-2.8474,-5.5794,-0.9582,1.3360,2.1569,
7.352075,0.1518,-1.2133,-0.5126,-2.2640,-2.8474,-5.5794,-1.3888,1.3409,2.0213,
7.360749,0.1518,-1.2133,-0.5126,-2.2640,-2.8474,-5.5794,-1.7938,1.1503,1.8093,
7.371102,0.3272,-1.0111,-0.3732,-2.2640,-2.8474,-5.5794,-1.7938,1.1503,1.8093,
7.374051,0.3272,-1.0111,-0.3732,-0.0826,-0.6732,-3.9005,-1.7938,1.1503,1.8093,
7.376164,0.3272,-1.0111,-0.3732,-0.0826,-0.6732,-3.9005,-2.1280,0.8620,1.5540,
7.381066,0.3272,-1.0111,-0.3732,-0.0826,-0.6732,-3.9005,-2.3760,0.5859,1.3041,
7.389061,0.3148,-0.9598,-0.2130,-0.0826,-0.6732,-3.9005,-2.3760,0.5859,1.3041,
7.392598,0.3148,-0.9598,-0.2130,0.1281,-0.0579,-1.8695,-2.3760,0.5859,1.3041,
7.394161,0.3148,-0.9598,-0.2130,0.1281,-0.0579,-1.8695,-2.5220,0.3929,1.1227,
7.400803,0.3148,-0.9598,-0.2130,0.1281,-0.0579,-1.8695,-2.6014,0.1394,1.0250,
7.408915,0.3855,-0.9436,-0.1402,0.1281,-0.0579,-1.8695,-2.6014,0.1394,1.0250,
7.410710,0.3855,-0.9436,-0.1402,1.0507,0.1434,-0.6382,-2.6014,0.1394,1.0250,
7.412122,0.3855,-0.9436,-0.1402,1.0507,0.1434,-0.6382,-2.6796,-0.3707,0.9737,
7.421250,0.3855,-0.9436,-0.1402,1.0507,0.1434,-0.6382,-2.7150,-1.0818,0.9364,
7.428639,0.4674,-0.8578,0.3005,1.0507,0.1434,-0.6382,-2.7150,-1.0818,0.9364,
7.430973,0.4674,-0.8578,0.3005,2.0482,0.9810,4.2266,-2.7150,-1.0818,0.9364,
7.432073,0.4674,-0.8578,0.3005,2.0482,0.9810,4.2266,-2.5348,-1.8032,0.9083,
7.440576,0.4674,-0.8578,0.3005,2.0482,0.9810,4.2266,-2.0333,-2.2241,0.8985,
7.448452,0.4957,-0.7938,0.3712,2.0482,0.9810,4.2266,-2.0333,-2.2241,0.8985,
7.449580,0.4957,-0.7938,0.3712,2.5083,1.5875,5.3478,-2.0333,-2.2241,0.8985,
7.451353,0.4957,-0.7938,0.3712,2.5083,1.5875,5.3478,-1.3638,-2.0543,0.8790,
7.460387,0.4957,-0.7938,0.3712,2.5083,1.5875,5.3478,-0.7908,-1.5472,0.8081,
7.469102,0.4738,-0.7958,-0.0086,2.5083,1.5875,5.3478,-0.7908,-1.5472,0.8081,
7.471363,0.4738,-0.7958,-0.0086,2.4467,1.5670,1.8190,-0.7908,-1.5472,0.8081,
7.472473,0.4738,-0.7958,-0.0086,2.4467,1.5670,1.8190,-0.4725,-1.1435,0.6994,
7.480383,0.4738,-0.7958,-0.0086,2.4467,1.5670,1.8190,-0.4059,-1.0237,0.6145,
7.488374,0.4164,-0.7622,-0.2117,2.4467,1.5670,1.8190,-0.4059,-1.0237,0.6145,
7.490999,0.4164,-0.7622,-0.2117,1.9656,1.9016,-0.1073,-0.4059,-1.0237,0.6145,
7.492702,0.4164,-0.7622,-0.2117,1.9656,1.9016,-0.1073,-0.5073,-1.0726,0.5937,
7.501110,0.4164,-0.7622,-0.2117,1.9656,1.9016,-0.1073,-0.6772,-1.0323,0.6126,
7.508907,0.4504,-0.7144,-0.1710,1.9656,1.9016,-0.1073,-0.6772,-1.0323,0.6126,
7.511749,0.4504,-0.7144,-0.1710,2.3549,2.3612,0.3947,-0.6772,-1.0323,0.6126,
7.513181,0.4504,-0.7144,-0.1710,2.3549,2.3612,0.3947,-0.8568,-0.7287,0.6090,
7.521013,0.4504,-0.7144,-0.1710,2.3549,2.3612,0.3947,-1.1475,0.0147,0.5497,
7.528810,0.4335,-0.7194,-0.1567,2.3549,2.3612,0.3947,-1.1475,0.0147,0.5497,
7.531738,0.4335,-0.7194,-0.1567,2.2058,2.2795,0.6921,-1.1475,0.0147,0.5497,
7.533425,0.4335,-0.7194,-0.1567,2.2058,2.2795,0.6921,-1.2398,0.1998,0.5033,
7.541150,0.4335,-0.7194,-0.1567,2.2058,2.2795,0.6921,-1.3277,0.2078,0.4874,
7.548896,0.3591,-0.8258,-0.1562,2.2058,2.2795,0.6921,-1.3277,0.2078,0.4874,
7.551581,0.3591,-0.8258,-0.1562,1.4603,1.1872,0.8812,-1.3277,0.2078,0.4874,
7.553658,0.3591,-0.8258,-0.1562,1.4603,1.1872,0.8812,-1.4120,0.0135,0.5057,
7.561167,0.3591,-0.8258,-0.1562,1.4603,1.1872,0.8812,-1.4407,-0.2760,0.5577,
7.570733,0.2996,-1.0289,-0.0656,1.4603,1.1872,0.8812,-1.4407,-0.2760,0.5577,
7.573405,0.2996,-1.0289,-0.0656,0.9034,-0.8539,1.9757,-1.4407,-0.2760,0.5577,
7.575199,0.2996,-1.0289,-0.0656,0.9034,-0.8539,1.9757,-1.3937,-0.4972,0.6609,
7.580924,0.2996,-1.0289,-0.0656,0.9034,-0.8539,1.9757,-1.3082,-0.5619,0.8044,
7.588869,0.2915,-0.9700,-0.1145,0.9034,-0.8539,1.9757,-1.3082,-0.5619,0.8044,
7.592386,0.2915,-0.9700,-0.1145,0.9166,-0.3154,1.6958,-1.3082,-0.5619,0.8044,
7.593851,0.2915,-0.9700,-0.1145,0.9166,-0.3154,1.6958,-1.2489,-0.5057,0.9340,
7.601211,0.2915,-0.9700,-0.1145,0.9166,-0.3154,1.6958,-1.2758,-0.4355,1.0079,
7.609001,0.2681,-0.9317,0.0104,0.9166,-0.3154,1.6958,-1.2758,-0.4355,1.0079,
7.611952,0.2681,-0.9317,0.0104,0.8263,0.0382,3.0790,-1.2758,-0.4355,1.0079,
7.613519,0.2681,-0.9317,0.0104,0.8263,0.0382,3.0790,-1.3925,-0.4177,1.0494,
7.621560,0.2681,-0.9317,0.0104,0.8263,0.0382,3.0790,-1.5012,-0.4342,1.0745,
7.628805,0.2723,-0.9893,0.4007,0.8263,0.0382,3.0790,-1.5012,-0.4342,1.0745,
7.630819,0.2723,-0.9893,0.4007,1.0241,-0.5439,7.0439,-1.5012,-0.4342,1.0745,
7.632930,0.2723,-0.9893,0.4007,1.0241,-0.5439,7.0439,-1.4597,-0.4135,1.0799,
7.641280,0.2723,-0.9893,0.4007,1.0241,-0.5439,7.0439,-1.2007,-0.3011,1.0726,
7.649052,0.4240,-0.8771,0.1422,1.0241,-0.5439,7.0439,-1.2007,-0.3011,1.0726,
7.651612,0.4240,-0.8771,0.1422,2.6367,0.5466,4.6017,-1.2007,-0.3011,1.0726,
7.653739,0.4240,-0.8771,0.1422,2.6367,0.5466,4.6017,-0.8164,-0.1648,1.0384,
7.661728,0.4240,-0.8771,0.1422,2.6367,0.5466,4.6017,-0.4603,-0.1789,0.9566,
7.672569,0.6721,-0.8673,-0.2456,2.6367,0.5466,4.6017,-0.4603,-0.1789,0.9566,
7.675436,0.6721,-0.8673,-0.2456,5.1362,0.6529,0.8024,-0.4603,-0.1789,0.9566,
7.677626,0.6721,-0.8673,-0.2456,5.1362,0.6529,0.8024,-0.2508,-0.2699,0.8393,
7.681197,0.6721,-0.8673,-0.2456,5.1362,0.6529,0.8024,-0.1243,-0.3689,0.7256,
7.689003,0.8335,-0.8498,-0.2888,5.1362,0.6529,0.8024,-0.1243,-0.3689,0.7256,
7.692427,0.8335,-0.8498,-0.2888,6.7189,0.8394,0.3364,-0.1243,-0.3689,0.7256,
7.694630,0.8335,-0.8498,-0.2888,6.7189,0.8394,0.3364,-0.0376,-0.5033,0.5986,
7.701239,0.8335,-0.8498,-0.2888,6.7189,0.8394,0.3364,-0.1170,-0.7201,0.2461,
7.709404,0.8628,-0.8342,-0.1538,6.7189,0.8394,0.3364,-0.1170,-0.7201,0.2461,
7.712715,0.8628,-0.8342,-0.1538,6.9339,0.9964,1.6140,-0.1170,-0.7201,0.2461,
7.714622,0.8628,-0.8342,-0.1538,6.9339,0.9964,1.6140,-0.1396,-0.6016,0.1013,
7.722391,0.8628,-0.8342,-0.1538,6.9339,0.9964,1.6140,-0.0651,-0.4116,0.0067,
7.728997,0.7961,-0.8269,0.0500,6.9339,0.9964,1.6140,-0.0651,-0.4116,0.0067,
7.731171,0.7961,-0.8269,0.0500,6.1241,1.0590,3.5575,-0.0651,-0.4116,0.0067,
7.733144,0.7961,-0.8269,0.0500,6.1241,1.0590,3.5575,0.0919,-0.2644,-0.0575,
7.741476,0.7961,-0.8269,0.0500,6.1241,1.0590,3.5575,0.2917,-0.1196,-0.1583,
7.749101,0.7391,-1.1045,0.1512,6.1241,1.0590,3.5575,0.2917,-0.1196,-0.1583,
7.752418,0.7391,-1.1045,0.1512,5.3740,-1.6549,4.4145,0.2917,-0.1196,-0.1583,
7.754890,0.7391,-1.1045,0.1512,5.3740,-1.6549,4.4145,0.4920,0.0551,-0.3018,
7.761197,0.7391,-1.1045,0.1512,5.3740,-1.6549,4.4145,0.7003,0.2524,-0.4460,
7.771823,0.8260,-1.1712,0.3345,5.3740,-1.6549,4.4145,0.7003,0.2524,-0.4460,
7.774798,0.8260,-1.1712,0.3345,5.9763,-2.2876,5.9653,0.7003,0.2524,-0.4460,
7.777055,0.8260,-1.1712,0.3345,5.9763,-2.2876,5.9653,0.9813,0.4558,-0.5908,
7.781089,0.8260,-1.1712,0.3345,5.9763,-2.2876,5.9653,1.4151,0.6030,-0.7734,
7.789121,0.8957,-1.1232,0.4064,5.9763,-2.2876,5.9653,1.4151,0.6030,-0.7734,
7.793285,0.8957,-1.1232,0.4064,6.3447,-1.7905,6.2846,1.4151,0.6030,-0.7734,
7.795188,0.8957,-1.1232,0.4064,6.3447,-1.7905,6.2846,1.9355,0.6238,-1.0141,
7.801054,0.8957,-1.1232,0.4064,6.3447,-1.7905,6.2846,2.4389,0.5602,-1.2847,
7.808845,0.7799,-1.0422,0.1593,6.3447,-1.7905,6.2846,2.4389,0.5602,-1.2847,
