
time,gFx,gFy,gFz,ax,ay,az,wx,wy,wz,
0.073625,0.0738,0.5662,0.8713,0.0000,0.0000,0.0000,0.0000,0.0000,0.0000,
0.073889,0.1080,0.5975,0.7734,0.0000,0.0000,0.0000,0.0000,0.0000,0.0000,
0.074122,0.1120,0.6555,0.6613,0.0000,0.0000,0.0000,0.0000,0.0000,0.0000,
0.092069,0.0704,0.6451,0.6049,0.0000,0.0000,0.0000,0.0000,0.0000,0.0000,
0.099699,0.1592,0.6029,0.6539,0.0000,0.0000,0.0000,0.0000,0.0000,0.0000,
0.100682,0.1592,0.6029,0.6539,-0.1676,-0.6350,-0.6887,0.0000,0.0000,0.0000,
0.116068,0.2270,0.5738,0.7418,-0.1676,-0.6350,-0.6887,0.0000,0.0000,0.0000,
0.117021,0.2270,0.5738,0.7418,-0.0825,-0.2085,-0.2696,0.0000,0.0000,0.0000,
0.136223,0.1070,0.6458,0.6919,-0.0825,-0.2085,-0.2696,0.0000,0.0000,0.0000,
0.137766,0.1070,0.6458,0.6919,-0.0531,-0.3202,-0.3431,0.0000,0.0000,0.0000,
0.141313,0.1070,0.6458,0.6919,-0.0531,-0.3202,-0.3431,-0.2831,0.0680,-0.2329,
0.149500,0.1070,0.6458,0.6919,-0.0531,-0.3202,-0.3431,-0.2659,0.0680,-0.1938,
0.156756,0.0230,0.6496,0.6539,-0.0531,-0.3202,-0.3431,-0.2659,0.0680,-0.1938,
0.158068,0.0230,0.6496,0.6539,-0.0192,-0.5432,-0.5468,-0.2659,0.0680,-0.1938,
0.159636,0.0230,0.6496,0.6539,-0.0192,-0.5432,-0.5468,-0.2910,0.0766,-0.1010,
0.169559,0.0230,0.6496,0.6539,-0.0192,-0.5432,-0.5468,-0.3264,0.0802,-0.0057,
0.176399,0.0712,0.6281,0.6567,-0.0192,-0.5432,-0.5468,-0.3264,0.0802,-0.0057,
0.177859,0.0712,0.6281,0.6567,-0.0683,-0.6022,-0.6296,-0.3264,0.0802,-0.0057,
0.179576,0.0712,0.6281,0.6567,-0.0683,-0.6022,-0.6296,-0.3649,0.0589,0.0817,
0.189801,0.0712,0.6281,0.6567,-0.0683,-0.6022,-0.6296,-0.3820,0.0344,0.1373,
0.196054,0.1769,0.6029,0.6618,-0.0683,-0.6022,-0.6296,-0.3820,0.0344,0.1373,
0.197294,0.1769,0.6029,0.6618,-0.1673,-0.5703,-0.6260,-0.3820,0.0344,0.1373,
0.199642,0.1769,0.6029,0.6618,-0.1673,-0.5703,-0.6260,-0.3631,0.0497,0.1232,
0.209885,0.1769,0.6029,0.6618,-0.1673,-0.5703,-0.6260,-0.3325,0.1633,0.0487,
0.216284,0.2471,0.6051,0.6474,-0.1673,-0.5703,-0.6260,-0.3325,0.1633,0.0487,
0.217607,0.2471,0.6051,0.6474,-0.2124,-0.5200,-0.5563,-0.3325,0.1633,0.0487,
0.219572,0.2471,0.6051,0.6474,-0.2124,-0.5200,-0.5563,-0.3252,0.3185,-0.0503,
0.229597,0.2471,0.6051,0.6474,-0.2124,-0.5200,-0.5563,-0.3484,0.3881,-0.1498,
0.236333,0.2393,0.6258,0.6738,-0.2124,-0.5200,-0.5563,-0.3484,0.3881,-0.1498,
0.237815,0.2393,0.6258,0.6738,-0.1246,-0.3258,-0.3508,-0.3484,0.3881,-0.1498,
0.241478,0.2393,0.6258,0.6738,-0.1246,-0.3258,-0.3508,-0.3704,0.3570,-0.2470,
0.249569,0.2393,0.6258,0.6738,-0.1246,-0.3258,-0.3508,-0.3484,0.2061,-0.3514,
0.256799,0.1417,0.6583,0.7026,-0.1246,-0.3258,-0.3508,-0.3484,0.2061,-0.3514,
0.258121,0.1417,0.6583,0.7026,-0.0392,-0.1822,-0.1945,-0.3484,0.2061,-0.3514,
0.259946,0.1417,0.6583,0.7026,-0.0392,-0.1822,-0.1945,-0.3050,0.1847,-0.3300,
0.269921,0.1417,0.6583,0.7026,-0.0392,-0.1822,-0.1945,-0.2433,0.2360,-0.2690,
0.276570,0.0978,0.6644,0.7451,-0.0392,-0.1822,-0.1945,-0.2433,0.2360,-0.2690,
0.277952,0.0978,0.6644,0.7451,0.0023,0.0157,0.0176,-0.2433,0.2360,-0.2690,
0.279571,0.0978,0.6644,0.7451,0.0023,0.0157,0.0176,-0.1780,0.2794,-0.1926,
0.289838,0.0978,0.6644,0.7451,0.0023,0.0157,0.0176,-0.1340,0.2653,-0.1138,
0.296170,0.0783,0.6573,0.7029,0.0023,0.0157,0.0176,-0.1340,0.2653,-0.1138,
0.297313,0.0783,0.6573,0.7029,-0.0279,-0.2347,-0.2509,-0.1340,0.2653,-0.1138,
0.299618,0.0783,0.6573,0.7029,-0.0279,-0.2347,-0.2509,-0.1279,0.2201,-0.0570,
0.309817,0.0783,0.6573,0.7029,-0.0279,-0.2347,-0.2509,-0.1499,0.1841,-0.0338,
0.316291,0.1815,0.6417,0.7023,-0.0279,-0.2347,-0.2509,-0.1499,0.1841,-0.0338,
0.317675,0.1815,0.6417,0.7023,-0.0592,-0.2094,-0.2292,-0.1499,0.1841,-0.0338,
0.319622,0.1815,0.6417,0.7023,-0.0592,-0.2094,-0.2292,-0.1951,0.1810,-0.0228,
0.329543,0.1815,0.6417,0.7023,-0.0592,-0.2094,-0.2292,-0.2293,0.1969,-0.0338,
0.336225,0.2538,0.6315,0.7745,-0.0592,-0.2094,-0.2292,-0.2293,0.1969,-0.0338,
0.337548,0.2538,0.6315,0.7745,0.0732,0.1822,0.2235,-0.2293,0.1969,-0.0338,
0.339689,0.2538,0.6315,0.7745,0.0732,0.1822,0.2235,-0.2232,0.2067,-0.0796,
0.349476,0.2538,0.6315,0.7745,0.0732,0.1822,0.2235,-0.1774,0.1975,-0.1327,
0.356982,0.2410,0.6407,0.8231,0.0732,0.1822,0.2235,-0.1774,0.1975,-0.1327,
0.358505,0.2410,0.6407,0.8231,0.1541,0.4096,0.5262,-0.1774,0.1975,-0.1327,
0.359984,0.2410,0.6407,0.8231,0.1541,0.4096,0.5262,-0.1053,0.1536,-0.1731,
0.369637,0.2410,0.6407,0.8231,0.1541,0.4096,0.5262,-0.0063,0.0906,-0.2097,
0.376531,0.2085,0.6556,0.8509,0.1541,0.4096,0.5262,-0.0063,0.0906,-0.2097,
0.377852,0.2085,0.6556,0.8509,0.1747,0.5493,0.7130,-0.0063,0.0906,-0.2097,
0.379623,0.2085,0.6556,0.8509,0.1747,0.5493,0.7130,0.1158,0.0595,-0.2500,
0.390165,0.2085,0.6556,0.8509,0.1747,0.5493,0.7130,0.2374,0.0766,-0.2855,
0.396075,0.1434,0.6922,0.8179,0.1747,0.5493,0.7130,0.2374,0.0766,-0.2855,
0.397390,0.1434,0.6922,0.8179,0.1046,0.5047,0.5963,0.2374,0.0766,-0.2855,
0.399642,0.1434,0.6922,0.8179,0.1046,0.5047,0.5963,0.3333,0.1242,-0.2836,
0.409873,0.1434,0.6922,0.8179,0.1046,0.5047,0.5963,0.3761,0.1951,-0.2335,
0.416138,0.1114,0.7037,0.7676,0.1046,0.5047,0.5963,0.3761,0.1951,-0.2335,
0.417041,0.1114,0.7037,0.7676,0.0486,0.3071,0.3350,0.3761,0.1951,-0.2335,
0.419637,0.1114,0.7037,0.7676,0.0486,0.3071,0.3350,0.3736,0.2372,-0.1657,
0.430052,0.1114,0.7037,0.7676,0.0486,0.3071,0.3350,0.2777,0.1536,-0.0509,
0.436456,0.1064,0.6833,0.7145,0.0486,0.3071,0.3350,0.2777,0.1536,-0.0509,
0.438453,0.1064,0.6833,0.7145,-0.0066,-0.0426,-0.0446,0.2777,0.1536,-0.0509,
0.440202,0.1064,0.6833,0.7145,-0.0066,-0.0426,-0.0446,0.1946,0.0894,-0.0313,
0.450032,0.1064,0.6833,0.7145,-0.0066,-0.0426,-0.0446,0.0810,0.1181,-0.0179,
0.458764,0.0862,0.6547,0.7035,-0.0066,-0.0426,-0.0446,0.0810,0.1181,-0.0179,
0.461261,0.0862,0.6547,0.7035,-0.0314,-0.2380,-0.2557,0.0810,0.1181,-0.0179,
0.463182,0.0862,0.6547,0.7035,-0.0314,-0.2380,-0.2557,-0.0650,0.2824,0.0249,
0.470202,0.0862,0.6547,0.7035,-0.0314,-0.2380,-0.2557,-0.2171,0.4834,0.0951,
0.476785,0.0602,0.6882,0.7130,-0.0314,-0.2380,-0.2557,-0.2171,0.4834,0.0951,
0.479436,0.0602,0.6882,0.7130,-0.0047,-0.0536,-0.0555,-0.2171,0.4834,0.0951,
0.481452,0.0602,0.6882,0.7130,-0.0047,-0.0536,-0.0555,-0.3557,0.5256,0.1703,
0.491964,0.0602,0.6882,0.7130,-0.0047,-0.0536,-0.0555,-0.4645,0.3875,0.2295,
0.496734,0.0867,0.7696,0.7657,-0.0047,-0.0536,-0.0555,-0.4645,0.3875,0.2295,
0.498781,0.0867,0.7696,0.7657,0.0689,0.6118,0.6087,-0.4645,0.3875,0.2295,
0.501105,0.0867,0.7696,0.7657,0.0689,0.6118,0.6087,-0.5366,0.1603,0.2625,
0.510136,0.0867,0.7696,0.7657,0.0689,0.6118,0.6087,-0.5909,-0.0254,0.2772,
0.516568,0.1688,0.8044,0.9925,0.0689,0.6118,0.6087,-0.5909,-0.0254,0.2772,
0.518167,0.1688,0.8044,0.9925,0.3697,1.7615,2.1734,-0.5909,-0.0254,0.2772,
0.520988,0.1688,0.8044,0.9925,0.3697,1.7615,2.1734,-0.5891,-0.0053,0.2637,
0.530439,0.1688,0.8044,0.9925,0.3697,1.7615,2.1734,-0.4999,0.1780,0.2344,
0.536671,0.1706,0.8090,1.0993,0.3697,1.7615,2.1734,-0.4999,0.1780,0.2344,
0.539882,0.1706,0.8090,1.0993,0.4557,2.1605,2.9355,-0.4999,0.1780,0.2344,
0.542231,0.1706,0.8090,1.0993,0.4557,2.1605,2.9355,-0.3350,0.3588,0.2148,
0.550508,0.1706,0.8090,1.0993,0.4557,2.1605,2.9355,-0.1316,0.4565,0.2142,
0.558499,0.1347,0.7898,1.0939,0.4557,2.1605,2.9355,-0.1316,0.4565,0.2142,
0.561650,0.1347,0.7898,1.0939,0.3460,2.0280,2.8087,-0.1316,0.4565,0.2142,
0.564010,0.1347,0.7898,1.0939,0.3460,2.0280,2.8087,0.0792,0.4712,0.2161,
0.569922,0.1347,0.7898,1.0939,0.3460,2.0280,2.8087,0.2600,0.3655,0.2081,
0.576691,0.0890,0.7576,0.9578,0.3460,2.0280,2.8087,0.2600,0.3655,0.2081,
0.579341,0.0890,0.7576,0.9578,0.1595,1.3568,1.7154,0.2600,0.3655,0.2081,
0.581099,0.0890,0.7576,0.9578,0.1595,1.3568,1.7154,0.3816,0.1676,0.1904,
0.591524,0.0890,0.7576,0.9578,0.1595,1.3568,1.7154,0.4353,-0.0297,0.1684,
0.596579,0.0697,0.7004,0.8228,0.1595,1.3568,1.7154,0.4353,-0.0297,0.1684,
0.598333,0.0697,0.7004,0.8228,0.0519,0.5207,0.6117,0.4353,-0.0297,0.1684,
0.600505,0.0697,0.7004,0.8228,0.0519,0.5207,0.6117,0.4176,-0.1177,0.1495,
0.610019,0.0697,0.7004,0.8228,0.0519,0.5207,0.6117,0.3492,0.2006,0.1055,
0.616323,0.0884,0.6558,0.8495,0.0519,0.5207,0.6117,0.3492,0.2006,0.1055,
0.618180,0.0884,0.6558,0.8495,0.0613,0.4544,0.5886,0.3492,0.2006,0.1055,
0.620579,0.0884,0.6558,0.8495,0.0613,0.4544,0.5886,0.1763,0.3936,0.0572,
0.629934,0.0884,0.6558,0.8495,0.0613,0.4544,0.5886,0.1110,0.4901,-0.0252,
0.636709,0.0640,0.6373,0.9427,0.0613,0.4544,0.5886,0.1110,0.4901,-0.0252,
0.638504,0.0640,0.6373,0.9427,0.0765,0.7616,1.1265,0.1110,0.4901,-0.0252,
0.640898,0.0640,0.6373,0.9427,0.0765,0.7616,1.1265,0.0737,0.4620,-0.1211,
0.649952,0.0640,0.6373,0.9427,0.0765,0.7616,1.1265,0.0609,0.3350,-0.2103,
0.657965,-0.0054,0.6121,0.9434,0.0765,0.7616,1.1265,0.0609,0.3350,-0.2103,
0.660274,-0.0054,0.6121,0.9434,-0.0058,0.6609,1.0186,0.0609,0.3350,-0.2103,
0.662329,-0.0054,0.6121,0.9434,-0.0058,0.6609,1.0186,0.0798,0.1896,-0.2769,
0.669889,-0.0054,0.6121,0.9434,-0.0058,0.6609,1.0186,0.1275,0.0497,-0.3007,
0.676292,-0.0520,0.5887,0.8121,-0.0058,0.6609,1.0186,0.1275,0.0497,-0.3007,
0.678158,-0.0520,0.5887,0.8121,-0.0019,0.0210,0.0290,0.1275,0.0497,-0.3007,
0.679837,-0.0520,0.5887,0.8121,-0.0019,0.0210,0.0290,0.1800,-0.0499,-0.2714,
0.691147,-0.0520,0.5887,0.8121,-0.0019,0.0210,0.0290,0.2087,-0.1262,-0.2005,
0.696711,-0.0600,0.5832,0.7049,-0.0019,0.0210,0.0290,0.2087,-0.1262,-0.2005,
0.698824,-0.0600,0.5832,0.7049,0.0537,-0.5225,-0.6316,0.2087,-0.1262,-0.2005,
0.700627,-0.0600,0.5832,0.7049,0.0537,-0.5225,-0.6316,0.2099,-0.1665,-0.1169,
0.710250,-0.0600,0.5832,0.7049,0.0537,-0.5225,-0.6316,0.1751,-0.1916,-0.0393,
0.720944,-0.0685,0.5691,0.5891,0.0537,-0.5225,-0.6316,0.1751,-0.1916,-0.0393,
0.723281,-0.0685,0.5691,0.5891,0.1460,-1.2124,-1.2551,0.1751,-0.1916,-0.0393,
0.725879,-0.0685,0.5691,0.5891,0.1460,-1.2124,-1.2551,0.0975,-0.2325,0.0304,
0.730894,-0.0685,0.5691,0.5891,0.1460,-1.2124,-1.2551,-0.0130,-0.2411,0.0945,
0.736359,-0.0417,0.5606,0.6727,0.1460,-1.2124,-1.2551,-0.0130,-0.2411,0.0945,
0.738542,-0.0417,0.5606,0.6727,0.0578,-0.7773,-0.9328,-0.0130,-0.2411,0.0945,
0.740824,-0.0417,0.5606,0.6727,0.0578,-0.7773,-0.9328,-0.1285,-0.1366,0.1538,
0.749875,-0.0417,0.5606,0.6727,0.0578,-0.7773,-0.9328,-0.2091,0.0289,0.1977,
0.757887,-0.0329,0.5582,0.7610,0.0578,-0.7773,-0.9328,-0.2091,0.0289,0.1977,
0.759990,-0.0329,0.5582,0.7610,0.0192,-0.3261,-0.4446,-0.2091,0.0289,0.1977,
0.761563,-0.0329,0.5582,0.7610,0.0192,-0.3261,-0.4446,-0.2159,0.1511,0.2075,
0.769737,-0.0329,0.5582,0.7610,0.0192,-0.3261,-0.4446,-0.1652,0.1762,0.1977,
0.779008,-0.0431,0.5424,0.6729,0.0192,-0.3261,-0.4446,-0.1652,0.1762,0.1977,
0.780149,-0.0431,0.5424,0.6729,0.0661,-0.8311,-1.0312,-0.1652,0.1762,0.1977,
0.781565,-0.0431,0.5424,0.6729,0.0661,-0.8311,-1.0312,-0.0986,0.0986,0.1855,
0.791381,-0.0431,0.5424,0.6729,0.0661,-0.8311,-1.0312,-0.0937,-0.0786,0.1892,
0.796215,-0.0652,0.5662,0.6414,0.0661,-0.8311,-1.0312,-0.0937,-0.0786,0.1892,
0.797703,-0.0652,0.5662,0.6414,0.1063,-0.9223,-1.0449,-0.0937,-0.0786,0.1892,
0.799623,-0.0652,0.5662,0.6414,0.1063,-0.9223,-1.0449,-0.1597,-0.0621,0.1935,
0.810372,-0.0652,0.5662,0.6414,0.1063,-0.9223,-1.0449,-0.2397,-0.0102,0.2002,
0.816052,-0.0491,0.5796,0.6874,0.1063,-0.9223,-1.0449,-0.2397,-0.0102,0.2002,
0.817339,-0.0491,0.5796,0.6874,0.0536,-0.6322,-0.7497,-0.2397,-0.0102,0.2002,
0.819546,-0.0491,0.5796,0.6874,0.0536,-0.6322,-0.7497,-0.3136,0.0711,0.2332,
0.829551,-0.0491,0.5796,0.6874,0.0536,-0.6322,-0.7497,-0.3881,0.1737,0.2894,
0.835981,-0.0318,0.5662,0.6955,0.0536,-0.6322,-0.7497,-0.3881,0.1737,0.2894,
0.837015,-0.0318,0.5662,0.6955,0.0358,-0.6385,-0.7844,-0.3881,0.1737,0.2894,
0.840339,-0.0318,0.5662,0.6955,0.0358,-0.6385,-0.7844,-0.4559,0.2806,0.3340,
0.849431,-0.0318,0.5662,0.6955,0.0358,-0.6385,-0.7844,-0.4938,0.3466,0.3334,
0.856858,0.0138,0.5518,0.7071,0.0358,-0.6385,-0.7844,-0.4938,0.3466,0.3334,
0.857906,0.0138,0.5518,0.7071,-0.0156,-0.6247,-0.8006,-0.4938,0.3466,0.3334,
0.859485,0.0138,0.5518,0.7071,-0.0156,-0.6247,-0.8006,-0.4901,0.3845,0.3040,
0.869243,0.0138,0.5518,0.7071,-0.0156,-0.6247,-0.8006,-0.4480,0.4077,0.2802,
0.875860,0.0082,0.5916,0.7884,-0.0156,-0.6247,-0.8006,-0.4480,0.4077,0.2802,
0.876889,0.0082,0.5916,0.7884,-0.0012,-0.0882,-0.1175,-0.4480,0.4077,0.2802,
0.879244,0.0082,0.5916,0.7884,-0.0012,-0.0882,-0.1175,-0.3887,0.3961,0.2814,
0.890535,0.0082,0.5916,0.7884,-0.0012,-0.0882,-0.1175,-0.3283,0.3167,0.2991,
0.895850,0.0170,0.5998,0.7556,-0.0012,-0.0882,-0.1175,-0.3283,0.3167,0.2991,
0.896814,0.0170,0.5998,0.7556,-0.0062,-0.2180,-0.2747,-0.3283,0.3167,0.2991,
0.899396,0.0170,0.5998,0.7556,-0.0062,-0.2180,-0.2747,-0.2769,0.1896,0.3193,
0.909375,0.0170,0.5998,0.7556,-0.0062,-0.2180,-0.2747,-0.2458,0.1175,0.3321,
0.916182,0.0364,0.6108,0.7258,-0.0062,-0.2180,-0.2747,-0.2458,0.1175,0.3321,
0.918329,0.0364,0.6108,0.7258,-0.0193,-0.3239,-0.3849,-0.2458,0.1175,0.3321,
0.920540,0.0364,0.6108,0.7258,-0.0193,-0.3239,-0.3849,-0.2421,0.1584,0.3340,
0.929275,0.0364,0.6108,0.7258,-0.0193,-0.3239,-0.3849,-0.2537,0.2763,0.3260,
0.935965,0.0445,0.6532,0.7791,-0.0193,-0.3239,-0.3849,-0.2537,0.2763,0.3260,
0.936861,0.0445,0.6532,0.7791,0.0073,0.1066,0.1272,-0.2537,0.2763,0.3260,
0.939855,0.0445,0.6532,0.7791,0.0073,0.1066,0.1272,-0.2476,0.4144,0.3077,
0.949258,0.0445,0.6532,0.7791,0.0073,0.1066,0.1272,-0.2146,0.4865,0.2894,
0.958100,0.0324,0.6604,0.7418,0.0073,0.1066,0.1272,-0.2146,0.4865,0.2894,
0.960115,0.0324,0.6604,0.7418,-0.0022,-0.0454,-0.0510,-0.2146,0.4865,0.2894,
0.961800,0.0324,0.6604,0.7418,-0.0022,-0.0454,-0.0510,-0.1798,0.4346,0.2778,
0.969870,0.0324,0.6604,0.7418,-0.0022,-0.0454,-0.0510,-0.1590,0.3350,0.2649,
0.976582,0.0231,0.6484,0.7505,-0.0022,-0.0454,-0.0510,-0.1590,0.3350,0.2649,
0.978765,0.0231,0.6484,0.7505,-0.0019,-0.0551,-0.0638,-0.1590,0.3350,0.2649,
0.980221,0.0231,0.6484,0.7505,-0.0019,-0.0551,-0.0638,-0.1713,0.3222,0.2045,
0.991483,0.0231,0.6484,0.7505,-0.0019,-0.0551,-0.0638,-0.1963,0.4071,0.1764,
0.996722,0.0044,0.6403,0.7405,-0.0019,-0.0551,-0.0638,-0.1963,0.4071,0.1764,
0.998389,0.0044,0.6403,0.7405,-0.0010,-0.1392,-0.1610,-0.1963,0.4071,0.1764,
1.000713,0.0044,0.6403,0.7405,-0.0010,-0.1392,-0.1610,-0.2140,0.4443,0.1794,
1.009951,0.0044,0.6403,0.7405,-0.0010,-0.1392,-0.1610,-0.2201,0.4010,0.2210,
1.016523,0.0198,0.6502,0.6678,-0.0010,-0.1392,-0.1610,-0.2201,0.4010,0.2210,
1.018189,0.0198,0.6502,0.6678,-0.0142,-0.4675,-0.4801,-0.2201,0.4010,0.2210,
1.020954,0.0198,0.6502,0.6678,-0.0142,-0.4675,-0.4801,-0.2336,0.2892,0.2784,
1.030253,0.0198,0.6502,0.6678,-0.0142,-0.4675,-0.4801,-0.2550,0.2098,0.3108,
1.036587,0.1383,0.7069,0.6861,-0.0142,-0.4675,-0.4801,-0.2550,0.2098,0.3108,
1.039497,0.1383,0.7069,0.6861,-0.0080,-0.0410,-0.0398,-0.2550,0.2098,0.3108,
1.041904,0.1383,0.7069,0.6861,-0.0080,-0.0410,-0.0398,-0.2580,0.2385,0.2723,
1.050252,0.1383,0.7069,0.6861,-0.0080,-0.0410,-0.0398,-0.2299,0.3448,0.1593,
1.059565,0.1178,0.6330,0.7288,-0.0080,-0.0410,-0.0398,-0.2299,0.3448,0.1593,
1.061947,0.1178,0.6330,0.7288,-0.0335,-0.1801,-0.2073,-0.2299,0.3448,0.1593,
1.064581,0.1178,0.6330,0.7288,-0.0335,-0.1801,-0.2073,-0.1914,0.4779,0.0127,
1.070185,0.1178,0.6330,0.7288,-0.0335,-0.1801,-0.2073,-0.1560,0.6630,-0.1211,
1.076736,0.0683,0.5850,0.7416,-0.0335,-0.1801,-0.2073,-0.1560,0.6630,-0.1211,
1.079475,0.0683,0.5850,0.7416,-0.0379,-0.3249,-0.4118,-0.1560,0.6630,-0.1211,
1.081477,0.0683,0.5850,0.7416,-0.0379,-0.3249,-0.4118,-0.1309,0.8774,-0.2464,
1.091772,0.0683,0.5850,0.7416,-0.0379,-0.3249,-0.4118,-0.0961,1.0980,-0.3752,
1.096553,0.0716,0.6127,0.7278,-0.0379,-0.3249,-0.4118,-0.0961,1.0980,-0.3752,
1.098483,0.0716,0.6127,0.7278,0.1819,-0.0402,-0.5722,-0.0961,1.0980,-0.3752,
1.100725,0.0716,0.6127,0.7278,0.1819,-0.0402,-0.5722,-0.0466,1.3325,-0.4919,
1.110012,0.0716,0.6127,0.7278,0.1819,-0.0402,-0.5722,0.0016,1.5408,-0.5958,
1.116682,0.0271,0.6544,0.6619,0.1819,-0.0402,-0.5722,0.0016,1.5408,-0.5958,
1.118614,0.0271,0.6544,0.6619,0.0273,0.3628,-1.2272,0.0016,1.5408,-0.5958,
1.120735,0.0271,0.6544,0.6619,0.0273,0.3628,-1.2272,0.0205,1.6569,-0.7033,
1.130002,0.0271,0.6544,0.6619,0.0273,0.3628,-1.2272,-0.0534,1.8414,-0.7876,
1.136673,-0.0558,0.6823,0.6188,0.0273,0.3628,-1.2272,-0.0534,1.8414,-0.7876,
1.138717,-0.0558,0.6823,0.6188,-0.4332,0.6261,-1.6441,-0.0534,1.8414,-0.7876,
1.140752,-0.0558,0.6823,0.6188,-0.4332,0.6261,-1.6441,-0.2317,2.2354,-0.8389,
1.150001,-0.0558,0.6823,0.6188,-0.4332,0.6261,-1.6441,-0.4675,2.6557,-0.8817,
1.159354,-0.0910,0.6812,0.6194,-0.4332,0.6261,-1.6441,-0.4675,2.6557,-0.8817,
1.161145,-0.0910,0.6812,0.6194,-0.3128,0.6515,-1.6456,-0.4675,2.6557,-0.8817,
1.163117,-0.0910,0.6812,0.6194,-0.3128,0.6515,-1.6456,-0.7119,2.9024,-0.9324,
1.170188,-0.0910,0.6812,0.6194,-0.3128,0.6515,-1.6456,-1.1187,2.9464,-0.8957,
1.176759,-0.2310,0.6937,0.7111,-0.3128,0.6515,-1.6456,-1.1187,2.9464,-0.8957,
1.179729,-0.2310,0.6937,0.7111,-1.1367,0.9013,-0.7857,-1.1187,2.9464,-0.8957,
1.182137,-0.2310,0.6937,0.7111,-1.1367,0.9013,-0.7857,-1.2012,2.8664,-0.7925,
1.192439,-0.2310,0.6937,0.7111,-1.1367,0.9013,-0.7857,-1.1682,2.7577,-0.6446,
1.196768,-0.3048,0.7187,0.7107,-1.1367,0.9013,-0.7857,-1.1682,2.7577,-0.6446,
1.198716,-0.3048,0.7187,0.7107,-1.3486,1.3114,-0.8216,-1.1682,2.7577,-0.6446,
1.201222,-0.3048,0.7187,0.7107,-1.3486,1.3114,-0.8216,-1.0509,2.5848,-0.4840,
1.210326,-0.3048,0.7187,0.7107,-1.3486,1.3114,-0.8216,-0.8664,2.4290,-0.3710,
1.216726,-0.2349,0.6942,0.6731,-1.3486,1.3114,-0.8216,-0.8664,2.4290,-0.3710,
1.219266,-0.2349,0.6942,0.6731,-0.2403,1.1859,-1.1735,-0.8664,2.4290,-0.3710,
1.221838,-0.2349,0.6942,0.6731,-0.2403,1.1859,-1.1735,-0.6630,2.3276,-0.3594,
1.230240,-0.2349,0.6942,0.6731,-0.2403,1.1859,-1.1735,-0.4907,2.2500,-0.4638,
1.236554,-0.3395,0.5435,0.6450,-0.2403,1.1859,-1.1735,-0.4907,2.2500,-0.4638,
1.239463,-0.3395,0.5435,0.6450,-0.8746,-0.2216,-1.3853,-0.4907,2.2500,-0.4638,
1.242092,-0.3395,0.5435,0.6450,-0.8746,-0.2216,-1.3853,-0.3961,2.2653,-0.5964,
1.250011,-0.3395,0.5435,0.6450,-0.8746,-0.2216,-1.3853,-0.3735,2.4144,-0.6507,
1.259696,-0.4295,0.4317,0.7316,-0.8746,-0.2216,-1.3853,-0.3735,2.4144,-0.6507,
1.261656,-0.4295,0.4317,0.7316,-1.3304,-1.2375,-0.4453,-0.3735,2.4144,-0.6507,
1.263641,-0.4295,0.4317,0.7316,-1.3304,-1.2375,-0.4453,-0.3368,2.5933,-0.6239,
1.269598,-0.4295,0.4317,0.7316,-1.3304,-1.2375,-0.4453,-0.2042,2.7045,-0.6251,
1.276374,-0.3966,0.3800,0.8117,-1.3304,-1.2375,-0.4453,-0.2042,2.7045,-0.6251,
1.278665,-0.3966,0.3800,0.8117,-0.5440,-1.6653,0.4749,-0.2042,2.7045,-0.6251,
1.280684,-0.3966,0.3800,0.8117,-0.5440,-1.6653,0.4749,0.0432,2.8499,-0.7021,
1.291699,-0.3966,0.3800,0.8117,-0.5440,-1.6653,0.4749,0.3858,3.0820,-0.7772,
1.296478,-0.4197,0.4088,0.6889,-0.5440,-1.6653,0.4749,0.3858,3.0820,-0.7772,
1.298017,-0.4197,0.4088,0.6889,-0.2567,-1.3588,-0.4947,0.3858,3.0820,-0.7772,
1.299719,-0.4197,0.4088,0.6889,-0.2567,-1.3588,-0.4947,0.7896,3.2867,-0.7766,
1.309465,-0.4197,0.4088,0.6889,-0.2567,-1.3588,-0.4947,1.1861,3.3227,-0.7137,
1.315878,-0.2116,0.3546,0.3672,-0.2567,-1.3588,-0.4947,1.1861,3.3227,-0.7137,
1.316969,-0.2116,0.3546,0.3672,2.3111,-1.9682,-3.2802,1.1861,3.3227,-0.7137,
1.319369,-0.2116,0.3546,0.3672,2.3111,-1.9682,-3.2802,1.4714,2.9696,-0.7320,
1.329207,-0.2116,0.3546,0.3672,2.3111,-1.9682,-3.2802,1.4982,2.3918,-0.9550,
1.335695,-0.3276,0.2659,0.1167,2.3111,-1.9682,-3.2802,1.4982,2.3918,-0.9550,
1.336684,-0.3276,0.2659,0.1167,1.6154,-2.9586,-5.3308,1.4982,2.3918,-0.9550,
1.340532,-0.3276,0.2659,0.1167,1.6154,-2.9586,-5.3308,1.2282,2.0692,-1.2683,
1.349277,-0.3276,0.2659,0.1167,1.6154,-2.9586,-5.3308,0.2722,2.4290,-1.3508,
1.357340,-0.5964,0.1819,0.1104,1.6154,-2.9586,-5.3308,0.2722,2.4290,-1.3508,
1.358068,-0.5964,0.1819,0.1104,-0.5747,-3.7403,-5.0742,0.2722,2.4290,-1.3508,
1.359702,-0.5964,0.1819,0.1104,-0.5747,-3.7403,-5.0742,-0.1426,2.9935,-1.1663,
1.369418,-0.5964,0.1819,0.1104,-0.5747,-3.7403,-5.0742,-0.3197,3.3887,-1.0942,
1.375891,-0.4259,0.0859,0.4303,-0.5747,-3.7403,-5.0742,-0.3197,3.3887,-1.0942,
1.376752,-0.4259,0.0859,0.4303,1.6178,-4.4978,-1.6233,-0.3197,3.3887,-1.0942,
1.379310,-0.4259,0.0859,0.4303,1.6178,-4.4978,-1.6233,-0.2244,3.5213,-1.1553,
1.390601,-0.4259,0.0859,0.4303,1.6178,-4.4978,-1.6233,0.0560,3.5060,-1.3239,
1.395828,-0.3710,0.0716,0.5035,1.6178,-4.4978,-1.6233,0.0560,3.5060,-1.3239,
1.396596,-0.3710,0.0716,0.5035,2.6852,-4.4137,-0.5477,0.0560,3.5060,-1.3239,
1.399224,-0.3710,0.0716,0.5035,2.6852,-4.4137,-0.5477,0.3449,3.6159,-1.4620,
1.409448,-0.3710,0.0716,0.5035,2.6852,-4.4137,-0.5477,0.5263,4.0466,-1.4534,
1.415727,-0.4903,-0.0974,0.2696,2.6852,-4.4137,-0.5477,0.5263,4.0466,-1.4534,
1.416738,-0.4903,-0.0974,0.2696,2.0802,-5.8404,-2.3466,0.5263,4.0466,-1.4534,
1.419279,-0.4903,-0.0974,0.2696,2.0802,-5.8404,-2.3466,0.6497,4.4999,-1.2787,
1.429219,-0.4903,-0.0974,0.2696,2.0802,-5.8404,-2.3466,0.7805,4.7876,-1.0985,
1.435652,-0.3875,-0.2369,0.3498,2.0802,-5.8404,-2.3466,0.7805,4.7876,-1.0985,
1.436560,-0.3875,-0.2369,0.3498,3.6465,-7.0217,-0.8921,0.7805,4.7876,-1.0985,
1.440424,-0.3875,-0.2369,0.3498,3.6465,-7.0217,-0.8921,0.9717,5.0356,-1.1003,
1.449220,-0.3875,-0.2369,0.3498,3.6465,-7.0217,-0.8921,1.2838,5.2799,-1.1822,
1.455703,-0.2808,-0.3297,0.3164,3.6465,-7.0217,-0.8921,1.2838,5.2799,-1.1822,
1.456693,-0.2808,-0.3297,0.3164,5.2075,-7.7981,-0.3572,1.2838,5.2799,-1.1822,
1.459369,-0.2808,-0.3297,0.3164,5.2075,-7.7981,-0.3572,1.6839,5.6086,-1.2323,
1.469290,-0.2808,-0.3297,0.3164,5.2075,-7.7981,-0.3572,2.1445,6.0423,-1.3520,
1.475962,-0.0386,-0.4697,0.0800,5.2075,-7.7981,-0.3572,2.1445,6.0423,-1.3520,
1.476860,-0.0386,-0.4697,0.0800,8.0363,-9.0683,-1.5451,2.1445,6.0423,-1.3520,
1.479226,-0.0386,-0.4697,0.0800,8.0363,-9.0683,-1.5451,2.6491,6.3355,-1.6856,
1.490496,-0.0386,-0.4697,0.0800,8.0363,-9.0683,-1.5451,3.0449,6.4778,-2.2561,
1.495867,-0.1961,-0.7774,-0.3556,8.0363,-9.0683,-1.5451,3.0449,6.4778,-2.2561,
1.496780,-0.1961,-0.7774,-0.3556,6.8767,-11.8377,-4.4652,3.0449,6.4778,-2.2561,
1.499292,-0.1961,-0.7774,-0.3556,6.8767,-11.8377,-4.4652,3.1854,6.5212,-2.9439,
1.519832,-0.1961,-0.7774,-0.3556,6.8767,-11.8377,-4.4652,3.0950,6.2402,-3.5365,
1.522414,-0.8364,-0.8537,-0.3798,6.8767,-11.8377,-4.4652,3.0950,6.2402,-3.5365,
1.525109,-0.8364,-0.8537,-0.3798,1.0535,-11.5955,-3.2961,3.0950,6.2402,-3.5365,
1.527156,-0.8364,-0.8537,-0.3798,1.0535,-11.5955,-3.2961,2.9154,5.5567,-3.9238,
1.529980,-0.8364,-0.8537,-0.3798,1.0535,-11.5955,-3.2961,2.7694,3.8065,-4.2561,
1.536289,-1.1565,-0.8797,-0.2821,1.0535,-11.5955,-3.2961,2.7694,3.8065,-4.2561,
1.539261,-1.1565,-0.8797,-0.2821,-1.8563,-10.6650,-1.2924,2.7694,3.8065,-4.2561,
1.541398,-1.1565,-0.8797,-0.2821,-1.8563,-10.6650,-1.2924,2.6137,3.0344,-4.3691,
1.549925,-1.1565,-0.8797,-0.2821,-1.8563,-10.6650,-1.2924,2.4041,2.3014,-4.5102,
1.558527,-0.9235,-0.9317,-0.3700,-1.8563,-10.6650,-1.2924,2.4041,2.3014,-4.5102,
1.560881,-0.9235,-0.9317,-0.3700,0.5029,-9.9103,-1.5516,2.4041,2.3014,-4.5102,
1.562667,-0.9235,-0.9317,-0.3700,0.5029,-9.9103,-1.5516,2.1054,1.5665,-4.7771,
1.569884,-0.9235,-0.9317,-0.3700,0.5029,-9.9103,-1.5516,1.8202,0.9513,-5.2035,
1.588192,-0.5778,-1.1170,-0.0925,0.5029,-9.9103,-1.5516,1.8202,0.9513,-5.2035,
1.591021,-0.5778,-1.1170,-0.0925,3.8488,-10.3662,1.4116,1.8202,0.9513,-5.2035,
1.593775,-0.5778,-1.1170,-0.0925,3.8488,-10.3662,1.4116,1.6913,0.6178,-5.6904,
1.596292,-0.5778,-1.1170,-0.0925,3.8488,-10.3662,1.4116,1.7719,0.6820,-6.0734,
1.599060,-1.5264,-1.1645,0.1992,3.8488,-10.3662,1.4116,1.7719,0.6820,-6.0734,
1.601958,-1.5264,-1.1645,0.1992,-5.6467,-9.4117,4.2871,1.7719,0.6820,-6.0734,
1.603941,-1.5264,-1.1645,0.1992,-5.6467,-9.4117,4.2871,2.0321,1.0564,-6.3043,
1.618481,-1.5264,-1.1645,0.1992,-5.6467,-9.4117,4.2871,2.3840,1.5127,-6.2878,
1.620666,-2.2364,-1.1143,0.1143,-5.6467,-9.4117,4.2871,2.3840,1.5127,-6.2878,
1.622284,-2.2364,-1.1143,0.1143,-12.9958,-7.6660,3.5707,2.3840,1.5127,-6.2878,
1.624295,-2.2364,-1.1143,0.1143,-12.9958,-7.6660,3.5707,2.7377,1.5775,-5.9488,
1.640015,-2.2364,-1.1143,0.1143,-12.9958,-7.6660,3.5707,2.9442,1.1603,-5.4558,
1.642451,-1.9146,-0.9995,0.1410,-12.9958,-7.6660,3.5707,2.9442,1.1603,-5.4558,
1.644386,-1.9146,-0.9995,0.1410,-10.3456,-5.4116,3.8513,2.9442,1.1603,-5.4558,
1.646227,-1.9146,-0.9995,0.1410,-10.3456,-5.4116,3.8513,3.0223,0.7259,-5.1217,
1.650571,-1.9146,-0.9995,0.1410,-10.3456,-5.4116,3.8513,3.2282,0.4938,-4.9543,
1.659286,-1.5799,-0.8883,-0.0738,-10.3456,-5.4116,3.8513,3.2282,0.4938,-4.9543,
1.661568,-1.5799,-0.8883,-0.0738,-7.5857,-3.3510,1.5418,3.2282,0.4938,-4.9543,
1.663428,-1.5799,-0.8883,-0.0738,-7.5857,-3.3510,1.5418,3.5660,0.3594,-4.9354,
1.669568,-1.5799,-0.8883,-0.0738,-7.5857,-3.3510,1.5418,3.7743,0.3264,-4.9726,
1.683298,-1.5220,-0.8523,-0.7437,-7.5857,-3.3510,1.5418,3.7743,0.3264,-4.9726,
1.684846,-1.5220,-0.8523,-0.7437,-7.6088,-2.0908,-5.3981,3.7743,0.3264,-4.9726,
1.686349,-1.5220,-0.8523,-0.7437,-7.6088,-2.0908,-5.3981,3.7028,0.2537,-4.9567,
1.691578,-1.5220,-0.8523,-0.7437,-7.6088,-2.0908,-5.3981,3.4066,-0.0328,-4.9873,
1.696171,-1.5452,-0.9149,-0.8883,-7.6088,-2.0908,-5.3981,3.4066,-0.0328,-4.9873,
1.697389,-1.5452,-0.9149,-0.8883,-8.5032,-1.8933,-7.2729,3.4066,-0.0328,-4.9873,
1.699581,-1.5452,-0.9149,-0.8883,-8.5032,-1.8933,-7.2729,2.9490,-0.5312,-5.1119,
1.709664,-1.5452,-0.9149,-0.8883,-8.5032,-1.8933,-7.2729,2.4274,-1.0010,-5.1675,
1.716181,-1.6829,-0.9210,-0.7063,-8.5032,-1.8933,-7.2729,2.4274,-1.0010,-5.1675,
1.717487,-1.6829,-0.9210,-0.7063,-10.6001,-1.2434,-5.9839,2.4274,-1.0010,-5.1675,
1.719746,-1.6829,-0.9210,-0.7063,-10.6001,-1.2434,-5.9839,1.5227,-1.8935,-5.0569,
1.733112,-1.6829,-0.9210,-0.7063,-10.6001,-1.2434,-5.9839,1.0999,-2.1457,-4.8285,
1.736060,-1.8423,-1.0745,-0.4299,-10.6001,-1.2434,-5.9839,1.0999,-2.1457,-4.8285,
1.737834,-1.8423,-1.0745,-0.4299,-12.9324,-2.1823,-3.7085,1.0999,-2.1457,-4.8285,
1.739822,-1.8423,-1.0745,-0.4299,-12.9324,-2.1823,-3.7085,0.8416,-2.2423,-4.5756,
1.749600,-1.8423,-1.0745,-0.4299,-12.9324,-2.1823,-3.7085,0.7469,-2.2300,-4.3544,
1.758295,-1.8297,-1.1702,-0.0324,-12.9324,-2.1823,-3.7085,0.7469,-2.2300,-4.3544,
1.760477,-1.8297,-1.1702,-0.0324,-13.5578,-2.6923,-0.1606,0.7469,-2.2300,-4.3544,
1.762552,-1.8297,-1.1702,-0.0324,-13.5578,-2.6923,-0.1606,0.7059,-2.1616,-4.1229,
1.769855,-1.8297,-1.1702,-0.0324,-13.5578,-2.6923,-0.1606,0.6528,-2.1329,-3.8920,
1.776743,-1.8721,-1.3421,0.1476,-13.5578,-2.6923,-0.1606,0.6528,-2.1329,-3.8920,
1.780013,-1.8721,-1.3421,0.1476,-14.6898,-4.0543,1.3087,0.6528,-2.1329,-3.8920,
1.782290,-1.8721,-1.3421,0.1476,-14.6898,-4.0543,1.3087,0.7401,-2.0059,-3.6202,
1.792842,-1.8721,-1.3421,0.1476,-14.6898,-4.0543,1.3087,0.9026,-1.8085,-3.2164,
1.796555,-2.2702,-1.0398,0.1928,-14.6898,-4.0543,1.3087,0.9026,-1.8085,-3.2164,
1.798871,-2.2702,-1.0398,0.1928,-19.2342,-0.8670,1.4717,0.9026,-1.8085,-3.2164,
1.801392,-2.2702,-1.0398,0.1928,-19.2342,-0.8670,1.4717,1.1274,-1.6424,-2.6483,
1.810020,-2.2702,-1.0398,0.1928,-19.2342,-0.8670,1.4717,1.3119,-1.6980,-1.9586,
1.816525,-2.1621,-0.9287,-0.2725,-19.2342,-0.8670,1.4717,1.3119,-1.6980,-1.9586,
1.819139,-2.1621,-0.9287,-0.2725,-18.6245,0.3351,-3.4089,1.3119,-1.6980,-1.9586,
1.821421,-2.1621,-0.9287,-0.2725,-18.6245,0.3351,-3.4089,1.3199,-1.7627,-1.3196,
1.830166,-2.1621,-0.9287,-0.2725,-18.6245,0.3351,-3.4089,1.2478,-1.6821,-0.7754,
1.836455,-1.8876,-0.9066,-0.2612,-18.6245,0.3351,-3.4089,1.2478,-1.6821,-0.7754,
1.839213,-1.8876,-0.9066,-0.2612,-16.1639,0.5800,-3.6242,1.2478,-1.6821,-0.7754,
1.842828,-1.8876,-0.9066,-0.2612,-16.1639,0.5800,-3.6242,1.1293,-1.4213,-0.2396,
1.850037,-1.8876,-0.9066,-0.2612,-16.1639,0.5800,-3.6242,1.0682,-1.0560,0.2558,
1.859672,-1.5680,-0.8625,-0.3568,-16.1639,0.5800,-3.6242,1.0682,-1.0560,0.2558,
1.862190,-1.5680,-0.8625,-0.3568,-13.0591,0.9855,-4.8265,1.0682,-1.0560,0.2558,
1.864728,-1.5680,-0.8625,-0.3568,-13.0591,0.9855,-4.8265,0.9979,-0.8415,0.6296,
1.869819,-1.5680,-0.8625,-0.3568,-13.0591,0.9855,-4.8265,0.8043,-0.6406,0.9424,
1.876348,-1.4887,-0.9453,-0.2586,-13.0591,0.9855,-4.8265,0.8043,-0.6406,0.9424,
1.878749,-1.4887,-0.9453,-0.2586,-12.1556,0.1108,-4.0685,0.8043,-0.6406,0.9424,
1.881134,-1.4887,-0.9453,-0.2586,-12.1556,0.1108,-4.0685,0.5819,-0.6406,1.2350,
1.890031,-1.4887,-0.9453,-0.2586,-12.1556,0.1108,-4.0685,0.4347,-0.7114,1.4787,
1.896517,-1.3254,-0.8997,-0.1272,-12.1556,0.1108,-4.0685,0.4347,-0.7114,1.4787,
1.899072,-1.3254,-0.8997,-0.1272,-10.3237,0.4732,-2.9097,0.4347,-0.7114,1.4787,
1.901414,-1.3254,-0.8997,-0.1272,-10.3237,0.4732,-2.9097,0.3803,-0.7701,1.8813,
1.909862,-1.3254,-0.8997,-0.1272,-10.3237,0.4732,-2.9097,0.4097,-0.5569,2.1892,
1.916605,-1.0560,-0.8205,-0.2487,-10.3237,0.4732,-2.9097,0.4097,-0.5569,2.1892,
1.919112,-1.0560,-0.8205,-0.2487,-7.3303,1.1193,-4.2115,0.4097,-0.5569,2.1892,
1.921111,-1.0560,-0.8205,-0.2487,-7.3303,1.1193,-4.2115,0.3761,-0.3303,2.4268,
1.940331,-1.0560,-0.8205,-0.2487,-7.3303,1.1193,-4.2115,0.2118,-0.0938,2.5642,
1.942617,-0.6177,-0.9315,-0.3316,-7.3303,1.1193,-4.2115,0.2118,-0.0938,2.5642,
1.944469,-0.6177,-0.9315,-0.3316,-2.5900,-0.1411,-5.0911,0.2118,-0.0938,2.5642,
1.946312,-0.6177,-0.9315,-0.3316,-2.5900,-0.1411,-5.0911,0.0480,0.2886,2.5911,
1.953613,-0.6177,-0.9315,-0.3316,-2.5900,-0.1411,-5.0911,0.1391,0.5696,2.6333,
1.956374,-0.4904,-0.8730,0.0403,-2.5900,-0.1411,-5.0911,0.1391,0.5696,2.6333,
1.958715,-0.4904,-0.8730,0.0403,-0.7009,0.1845,-1.3149,0.1391,0.5696,2.6333,
1.960733,-0.4904,-0.8730,0.0403,-0.7009,0.1845,-1.3149,0.3669,0.5860,2.6834,
1.969801,-0.4904,-0.8730,0.0403,-0.7009,0.1845,-1.3149,0.5526,0.7797,2.7658,
1.976574,0.0806,-0.8358,0.1237,-0.7009,0.1845,-1.3149,0.5526,0.7797,2.7658,
1.978403,0.0806,-0.8358,0.1237,5.4619,0.2759,-0.4191,0.5526,0.7797,2.7658,
1.980325,0.0806,-0.8358,0.1237,5.4619,0.2759,-0.4191,0.8037,1.2152,2.8465,
1.989688,0.0806,-0.8358,0.1237,5.4619,0.2759,-0.4191,1.0279,1.7589,2.6003,
1.996236,-0.0738,-0.8898,0.0161,5.4619,0.2759,-0.4191,1.0279,1.7589,2.6003,
1.997551,-0.0738,-0.8898,0.0161,4.4547,-0.5367,-1.3916,1.0279,1.7589,2.6003,
1.999614,-0.0738,-0.8898,0.0161,4.4547,-0.5367,-1.3916,0.9900,2.2146,2.4213,
2.009844,-0.0738,-0.8898,0.0161,4.4547,-0.5367,-1.3916,0.9723,2.7595,2.4897,
2.015993,0.5193,-0.8589,0.7790,4.4547,-0.5367,-1.3916,0.9723,2.7595,2.4897,
2.017125,0.5193,-0.8589,0.7790,10.6287,-0.4566,6.1792,0.9723,2.7595,2.4897,
2.019547,0.5193,-0.8589,0.7790,10.6287,-0.4566,6.1792,1.2557,3.7393,2.4176,
2.029472,0.5193,-0.8589,0.7790,10.6287,-0.4566,6.1792,1.7921,3.6440,1.6724,
2.035892,-0.8570,-0.6069,-0.1261,10.6287,-0.4566,6.1792,1.7921,3.6440,1.6724,
2.037009,-0.8570,-0.6069,-0.1261,-2.4932,1.7806,-2.4904,1.7921,3.6440,1.6724,
2.039412,-0.8570,-0.6069,-0.1261,-2.4932,1.7806,-2.4904,1.8434,2.7271,1.6259,
2.049338,-0.8570,-0.6069,-0.1261,-2.4932,1.7806,-2.4904,1.4133,1.9251,2.0633,
2.056223,-0.3043,-0.5122,-0.0053,-2.4932,1.7806,-2.4904,1.4133,1.9251,2.0633,
2.058740,-0.3043,-0.5122,-0.0053,3.2016,2.4963,-1.2546,1.4133,1.9251,2.0633,
2.060109,-0.3043,-0.5122,-0.0053,3.2016,2.4963,-1.2546,1.0389,1.8279,2.1311,
2.069460,-0.3043,-0.5122,-0.0053,3.2016,2.4963,-1.2546,0.8782,2.0240,1.9919,
2.076115,-0.5562,-0.5608,-0.3014,3.2016,2.4963,-1.2546,0.8782,2.0240,1.9919,
2.077291,-0.5562,-0.5608,-0.3014,1.0385,1.7834,-3.9911,0.8782,2.0240,1.9919,
2.079438,-0.5562,-0.5608,-0.3014,1.0385,1.7834,-3.9911,0.5361,2.1315,1.8196,
2.090632,-0.5562,-0.5608,-0.3014,1.0385,1.7834,-3.9911,-0.3576,1.9269,2.0652,
2.096685,-0.9309,-0.4708,0.2460,1.0385,1.7834,-3.9911,-0.3576,1.9269,2.0652,
2.099253,-0.9309,-0.4708,0.2460,-2.3207,2.4073,1.6337,-0.3576,1.9269,2.0652,
2.101608,-0.9309,-0.4708,0.2460,-2.3207,2.4073,1.6337,-0.4199,1.8493,2.2747,
2.110311,-0.9309,-0.4708,0.2460,-2.3207,2.4073,1.6337,-0.0821,1.8573,2.4463,
2.116852,-0.6760,-0.4481,0.2278,-2.3207,2.4073,1.6337,-0.0821,1.8573,2.4463,
2.119591,-0.6760,-0.4481,0.2278,0.5221,2.3059,1.7380,-0.0821,1.8573,2.4463,
2.121578,-0.6760,-0.4481,0.2278,0.5221,2.3059,1.7380,-0.0876,1.7412,2.3779,
2.130241,-0.6760,-0.4481,0.2278,0.5221,2.3059,1.7380,-0.2934,1.3924,2.2209,
2.136721,-0.4555,-0.4534,-0.1877,0.5221,2.3059,1.7380,-0.2934,1.3924,2.2209,
2.139707,-0.4555,-0.4534,-0.1877,2.9885,1.9261,-2.0801,-0.2934,1.3924,2.2209,
2.142102,-0.4555,-0.4534,-0.1877,2.9885,1.9261,-2.0801,-0.5042,0.8096,2.0823,
2.150289,-0.4555,-0.4534,-0.1877,2.9885,1.9261,-2.0801,-0.6661,0.4138,1.9766,
2.157035,-0.2755,-0.5868,0.2987,2.9885,1.9261,-2.0801,-0.6661,0.4138,1.9766,
2.159793,-0.2755,-0.5868,0.2987,4.9612,0.3703,2.8051,-0.6661,0.4138,1.9766,
2.161987,-0.2755,-0.5868,0.2987,4.9612,0.3703,2.8051,-0.6239,0.1945,1.8617,
2.170169,-0.2755,-0.5868,0.2987,4.9612,0.3703,2.8051,-0.4797,0.1774,1.7267,
2.176956,-0.2233,-0.6941,0.1477,4.9612,0.3703,2.8051,-0.4797,0.1774,1.7267,
2.179318,-0.2233,-0.6941,0.1477,5.6117,-0.8586,1.3627,-0.4797,0.1774,1.7267,
2.181638,-0.2233,-0.6941,0.1477,5.6117,-0.8586,1.3627,-0.3686,0.2635,1.5972,
2.190301,-0.2233,-0.6941,0.1477,5.6117,-0.8586,1.3627,-0.2269,0.5274,1.4659,
2.196832,-0.1777,-0.7454,0.1096,5.6117,-0.8586,1.3627,-0.2269,0.5274,1.4659,
2.200195,-0.1777,-0.7454,0.1096,6.1344,-1.4623,1.0260,-0.2269,0.5274,1.4659,
2.202436,-0.1777,-0.7454,0.1096,6.1344,-1.4623,1.0260,0.0267,0.6838,1.2478,
2.210547,-0.1777,-0.7454,0.1096,6.1344,-1.4623,1.0260,0.2918,0.8848,0.9497,
2.217081,-0.3656,-0.6974,-0.0167,6.1344,-1.4623,1.0260,0.2918,0.8848,0.9497,
2.219560,-0.3656,-0.6974,-0.0167,4.3159,-1.0223,-0.1475,0.2918,0.8848,0.9497,
2.221695,-0.3656,-0.6974,-0.0167,4.3159,-1.0223,-0.1475,0.5086,1.1279,0.7298,
2.230306,-0.3656,-0.6974,-0.0167,4.3159,-1.0223,-0.1475,0.7206,1.3466,0.5166,
2.236732,-0.4823,-0.5556,-0.1638,4.3159,-1.0223,-0.1475,0.7206,1.3466,0.5166,
2.239554,-0.4823,-0.5556,-0.1638,3.1524,0.3935,-1.4731,0.7206,1.3466,0.5166,
2.242043,-0.4823,-0.5556,-0.1638,3.1524,0.3935,-1.4731,0.8605,1.5225,0.3016,
2.250471,-0.4823,-0.5556,-0.1638,3.1524,0.3935,-1.4731,0.8446,1.6972,0.1043,
2.256955,-0.6992,-0.3944,-0.1867,3.1524,0.3935,-1.4731,0.8446,1.6972,0.1043,
2.259567,-0.6992,-0.3944,-0.1867,0.9878,2.0180,-1.5294,0.8446,1.6972,0.1043,
2.261855,-0.6992,-0.3944,-0.1867,0.9878,2.0180,-1.5294,0.8880,1.5928,-0.0252,
2.270523,-0.6992,-0.3944,-0.1867,0.9878,2.0180,-1.5294,0.5984,0.7241,-0.3392,
2.277455,-0.7917,-0.2977,-0.3782,0.9878,2.0180,-1.5294,0.5984,0.7241,-0.3392,
2.279950,-0.7917,-0.2977,-0.3782,0.0354,3.0182,-3.2627,0.5984,0.7241,-0.3392,
2.281981,-0.7917,-0.2977,-0.3782,0.0354,3.0182,-3.2627,0.3522,0.2690,-0.4143,
2.290132,-0.7917,-0.2977,-0.3782,0.0354,3.0182,-3.2627,0.1873,0.0650,-0.4565,
2.296976,-0.8773,-0.2783,-0.2149,0.0354,3.0182,-3.2627,0.1873,0.0650,-0.4565,
2.299564,-0.8773,-0.2783,-0.2149,-0.8428,3.2553,-1.6087,0.1873,0.0650,-0.4565,
2.301421,-0.8773,-0.2783,-0.2149,-0.8428,3.2553,-1.6087,0.1885,0.0082,-0.4760,
2.309983,-0.8773,-0.2783,-0.2149,-0.8428,3.2553,-1.6087,0.3052,-0.0780,-0.5048,
2.316542,-0.8457,-0.3848,-0.1819,-0.8428,3.2553,-1.6087,0.3052,-0.0780,-0.5048,
2.318244,-0.8457,-0.3848,-0.1819,-0.5634,2.2488,-1.2612,0.3052,-0.0780,-0.5048,
2.319970,-0.8457,-0.3848,-0.1819,-0.5634,2.2488,-1.2612,0.3449,-0.2850,-0.5976,
2.330395,-0.8457,-0.3848,-0.1819,-0.5634,2.2488,-1.2612,0.2533,-0.4078,-0.7228,
2.336526,-1.1942,-0.2759,-0.2708,-0.5634,2.2488,-1.2612,0.2533,-0.4078,-0.7228,
2.338356,-1.1942,-0.2759,-0.2708,-3.9986,3.3429,-2.1573,0.2533,-0.4078,-0.7228,
2.341700,-1.1942,-0.2759,-0.2708,-3.9986,3.3429,-2.1573,0.2368,-0.2997,-0.6294,
2.350059,-1.1942,-0.2759,-0.2708,-3.9986,3.3429,-2.1573,0.2881,-0.0609,-0.4314,
2.356688,-1.3919,-0.3321,-0.5319,-3.9986,3.3429,-2.1573,0.2881,-0.0609,-0.4314,
2.358879,-1.3919,-0.3321,-0.5319,-5.9273,2.7778,-4.6870,0.2881,-0.0609,-0.4314,
2.360875,-1.3919,-0.3321,-0.5319,-5.9273,2.7778,-4.6870,0.2942,0.0815,-0.1614,
2.369787,-1.3919,-0.3321,-0.5319,-5.9273,2.7778,-4.6870,0.0609,-0.1464,-0.0057,
2.377571,-1.3114,-0.2871,-0.5926,-5.9273,2.7778,-4.6870,0.0609,-0.1464,-0.0057,
2.379939,-1.3114,-0.2871,-0.5926,-5.0716,3.1256,-5.2021,0.0609,-0.1464,-0.0057,
2.382295,-1.3114,-0.2871,-0.5926,-5.0716,3.1256,-5.2021,-0.2733,-0.4976,0.0310,
2.390356,-1.3114,-0.2871,-0.5926,-5.0716,3.1256,-5.2021,-0.4675,-0.8477,0.0927,
2.396845,-1.4943,-0.2718,-0.1586,-5.0716,3.1256,-5.2021,-0.4675,-0.8477,0.0927,
2.400088,-1.4943,-0.2718,-0.1586,-6.7651,3.1420,-0.9315,-0.4675,-0.8477,0.0927,
2.402346,-1.4943,-0.2718,-0.1586,-6.7651,3.1420,-0.9315,-0.4278,-1.0700,0.2118,
2.410754,-1.4943,-0.2718,-0.1586,-6.7651,3.1420,-0.9315,-0.1933,-1.0218,0.4806,
2.416584,-1.1680,-0.2805,-0.2906,-6.7651,3.1420,-0.9315,-0.1933,-1.0218,0.4806,
2.418891,-1.1680,-0.2805,-0.2906,-3.4379,2.8820,-2.2764,-0.1933,-1.0218,0.4806,
2.420989,-1.1680,-0.2805,-0.2906,-3.4379,2.8820,-2.2764,-0.0167,-0.6674,0.7396,
2.430182,-1.1680,-0.2805,-0.2906,-3.4379,2.8820,-2.2764,0.0163,-0.4103,0.9100,
2.436778,-0.8265,-0.3613,-0.2344,-3.4379,2.8820,-2.2764,0.0163,-0.4103,0.9100,
2.439379,-0.8265,-0.3613,-0.2344,0.0677,1.8579,-1.7333,0.0163,-0.4103,0.9100,
2.441929,-0.8265,-0.3613,-0.2344,0.0677,1.8579,-1.7333,0.0126,-0.3077,0.9943,
2.450373,-0.8265,-0.3613,-0.2344,0.0677,1.8579,-1.7333,0.0486,-0.2838,0.8941,
2.457115,-0.6202,-0.3025,-0.1242,0.0677,1.8579,-1.7333,0.0486,-0.2838,0.8941,
2.459592,-0.6202,-0.3025,-0.1242,2.2391,2.1992,-0.6327,0.0486,-0.2838,0.8941,
2.461922,-0.6202,-0.3025,-0.1242,2.2391,2.1992,-0.6327,0.0969,0.1077,0.7756,
2.470212,-0.6202,-0.3025,-0.1242,2.2391,2.1992,-0.6327,0.2368,0.3325,0.8190,
2.476869,-0.6753,-0.5654,0.2963,2.2391,2.1992,-0.6327,0.2368,0.3325,0.8190,
2.479650,-0.6753,-0.5654,0.2963,1.7971,-0.5430,3.5200,0.2368,0.3325,0.8190,
2.481904,-0.6753,-0.5654,0.2963,1.7971,-0.5430,3.5200,0.5819,0.6361,0.6889,
2.490062,-0.6753,-0.5654,0.2963,1.7971,-0.5430,3.5200,1.0969,0.9495,0.4574,
2.496449,-0.5284,-0.8100,0.6723,1.7971,-0.5430,3.5200,1.0969,0.9495,0.4574,
2.498647,-0.5284,-0.8100,0.6723,3.2780,-3.0080,7.1807,1.0969,0.9495,0.4574,
2.500466,-0.5284,-0.8100,0.6723,3.2780,-3.0080,7.1807,1.4732,1.1804,0.0731,
2.510000,-0.5284,-0.8100,0.6723,3.2780,-3.0080,7.1807,1.5331,1.0454,-0.2451,
2.516397,-0.7740,-0.8195,0.1989,3.2780,-3.0080,7.1807,1.5331,1.0454,-0.2451,
2.518248,-0.7740,-0.8195,0.1989,0.8311,-3.0275,2.5004,1.5331,1.0454,-0.2451,
2.519904,-0.7740,-0.8195,0.1989,0.8311,-3.0275,2.5004,1.3168,0.8121,-0.5921,
2.530300,-0.7740,-0.8195,0.1989,0.8311,-3.0275,2.5004,1.2191,0.5091,-0.6911,
2.536301,-1.3910,-0.8818,0.9952,0.8311,-3.0275,2.5004,1.2191,0.5091,-0.6911,
2.538188,-1.3910,-0.8818,0.9952,-5.2946,-3.4925,10.1446,1.2191,0.5091,-0.6911,
2.540239,-1.3910,-0.8818,0.9952,-5.2946,-3.4925,10.1446,1.5227,0.5317,-0.5811,
2.549984,-1.3910,-0.8818,0.9952,-5.2946,-3.4925,10.1446,2.0651,0.6490,-0.3160,
2.556409,-0.8462,-0.8441,0.3848,-5.2946,-3.4925,10.1446,2.0651,0.6490,-0.3160,
2.558433,-0.8462,-0.8441,0.3848,-0.0235,-3.0024,3.9404,2.0651,0.6490,-0.3160,
2.560465,-0.8462,-0.8441,0.3848,-0.0235,-3.0024,3.9404,2.2759,0.7168,-0.2201,
2.569862,-0.8462,-0.8441,0.3848,-0.0235,-3.0024,3.9404,2.1934,0.6300,-0.2482,
2.576750,-0.6911,-0.6861,0.0461,-0.0235,-3.0024,3.9404,2.1934,0.6300,-0.2482,
2.578716,-0.6911,-0.6861,0.0461,1.4447,-1.3732,0.3953,2.1934,0.6300,-0.2482,
2.581084,-0.6911,-0.6861,0.0461,1.4447,-1.3732,0.3953,1.9222,0.3777,-0.3734,
2.590041,-0.6911,-0.6861,0.0461,1.4447,-1.3732,0.3953,1.5410,0.0210,-0.5219,
2.596791,-0.6466,-0.5108,-0.0082,1.4447,-1.3732,0.3953,1.5410,0.0210,-0.5219,
2.599092,-0.6466,-0.5108,-0.0082,1.8109,0.4451,-0.3588,1.5410,0.0210,-0.5219,
2.601107,-0.6466,-0.5108,-0.0082,1.8109,0.4451,-0.3588,1.1806,-0.3211,-0.6495,
2.610343,-0.6466,-0.5108,-0.0082,1.8109,0.4451,-0.3588,0.9295,-0.4762,-0.8267,
2.616762,-0.7019,-0.5265,0.0271,1.8109,0.4451,-0.3588,0.9295,-0.4762,-0.8267,
2.618842,-0.7019,-0.5265,0.0271,1.1708,0.4205,-0.2266,0.9295,-0.4762,-0.8267,
2.620928,-0.7019,-0.5265,0.0271,1.1708,0.4205,-0.2266,0.7689,-0.4995,-1.0802,
2.630285,-0.7019,-0.5265,0.0271,1.1708,0.4205,-0.2266,0.6497,-0.5850,-1.2323,
2.636758,-1.2015,-0.4272,0.0035,1.1708,0.4205,-0.2266,0.6497,-0.5850,-1.2323,
2.638761,-1.2015,-0.4272,0.0035,-3.8562,1.5603,-0.6322,0.6497,-0.5850,-1.2323,
2.641351,-1.2015,-0.4272,0.0035,-3.8562,1.5603,-0.6322,0.4750,-0.6656,-0.6550,
2.650358,-1.2015,-0.4272,0.0035,-3.8562,1.5603,-0.6322,0.3101,-0.9191,-0.3423,
2.656724,-0.9541,-0.3358,-0.2673,-3.8562,1.5603,-0.6322,0.3101,-0.9191,-0.3423,
2.659535,-0.9541,-0.3358,-0.2673,-1.4730,2.4934,-3.4304,0.3101,-0.9191,-0.3423,
2.661822,-0.9541,-0.3358,-0.2673,-1.4730,2.4934,-3.4304,-0.0479,-1.4524,-0.2085,
2.670271,-0.9541,-0.3358,-0.2673,-1.4730,2.4934,-3.4304,-0.5109,-2.0431,-0.1663,
2.677517,-0.8960,-0.2492,-0.2279,-1.4730,2.4934,-3.4304,-0.5109,-2.0431,-0.1663,
2.680057,-0.8960,-0.2492,-0.2279,-0.9077,3.3203,-3.2242,-0.5109,-2.0431,-0.1663,
2.682414,-0.8960,-0.2492,-0.2279,-0.9077,3.3203,-3.2242,-0.9330,-2.6448,-0.0869,
2.690258,-0.8960,-0.2492,-0.2279,-0.9077,3.3203,-3.2242,-1.1700,-3.3339,0.1171,
2.697329,-0.8782,-0.3502,0.4205,-0.9077,3.3203,-3.2242,-1.1700,-3.3339,0.1171,
2.699845,-0.8782,-0.3502,0.4205,-0.7500,2.2887,2.8063,-1.1700,-3.3339,0.1171,
2.702198,-0.8782,-0.3502,0.4205,-0.7500,2.2887,2.8063,-1.2073,-3.5959,0.3651,
2.710801,-0.8782,-0.3502,0.4205,-0.7500,2.2887,2.8063,-0.8939,-3.2734,0.5594,
2.716752,-0.5852,-0.5234,0.4250,-0.7500,2.2887,2.8063,-0.8939,-3.2734,0.5594,
2.719259,-0.5852,-0.5234,0.4250,2.0912,0.5190,2.4302,-0.8939,-3.2734,0.5594,
2.721481,-0.5852,-0.5234,0.4250,2.0912,0.5190,2.4302,-0.4767,-2.5843,0.6632,
2.730134,-0.5852,-0.5234,0.4250,2.0912,0.5190,2.4302,-0.1151,-1.7695,0.7286,
2.736777,-0.5542,-0.3319,0.3180,2.0912,0.5190,2.4302,-0.1151,-1.7695,0.7286,
2.738601,-0.5542,-0.3319,0.3180,2.4060,2.2739,1.0649,-0.1151,-1.7695,0.7286,
2.741235,-0.5542,-0.3319,0.3180,2.4060,2.2739,1.0649,0.1317,-1.0810,0.7970,
2.750589,-0.5542,-0.3319,0.3180,2.4060,2.2739,1.0649,0.4097,-0.5276,0.8642,
2.756972,-0.5444,-0.2770,0.1779,2.4060,2.2739,1.0649,0.4097,-0.5276,0.8642,
2.759581,-0.5444,-0.2770,0.1779,2.5702,2.6487,-0.4708,0.4097,-0.5276,0.8642,
2.761718,-0.5444,-0.2770,0.1779,2.5702,2.6487,-0.4708,0.7182,-0.0902,0.8795,
2.770340,-0.5444,-0.2770,0.1779,2.5702,2.6487,-0.4708,0.9875,0.3173,0.8587,
2.777632,-0.8466,-0.2277,0.1423,2.5702,2.6487,-0.4708,0.9875,0.3173,0.8587,
2.780190,-0.8466,-0.2277,0.1423,-0.2690,2.9169,-0.8890,0.9875,0.3173,0.8587,
2.782339,-0.8466,-0.2277,0.1423,-0.2690,2.9169,-0.8890,1.2374,0.7620,0.9204,
2.790320,-0.8466,-0.2277,0.1423,-0.2690,2.9169,-0.8890,1.4433,1.2073,1.1464,
2.796718,-0.6586,-0.1350,0.3925,-0.2690,2.9169,-0.8890,1.4433,1.2073,1.1464,
2.799685,-0.6586,-0.1350,0.3925,1.7481,3.5398,1.5576,1.4433,1.2073,1.1464,
2.801832,-0.6586,-0.1350,0.3925,1.7481,3.5398,1.5576,1.6766,1.5860,1.2826,
2.811036,-0.6586,-0.1350,0.3925,1.7481,3.5398,1.5576,1.9613,1.8945,1.0945,
2.816574,-0.5217,-0.2045,0.1926,1.7481,3.5398,1.5576,1.9613,1.8945,1.0945,
2.818756,-0.5217,-0.2045,0.1926,3.2933,2.5413,-0.3139,1.9613,1.8945,1.0945,
2.820853,-0.5217,-0.2045,0.1926,3.2933,2.5413,-0.3139,1.9955,1.2042,0.1458,
2.830183,-0.5217,-0.2045,0.1926,3.2933,2.5413,-0.3139,1.0584,0.0393,-0.7265,
2.836641,-0.4064,-0.2129,-0.4775,3.2933,2.5413,-0.3139,1.0584,0.0393,-0.7265,
2.838823,-0.4064,-0.2129,-0.4775,4.4561,2.4138,-6.8480,1.0584,0.0393,-0.7265,
2.842530,-0.4064,-0.2129,-0.4775,4.4561,2.4138,-6.8480,0.1165,-0.5404,-1.3612,
2.850246,-0.4064,-0.2129,-0.4775,4.4561,2.4138,-6.8480,-0.5078,-0.9637,-1.8474,
2.856765,-0.3553,-0.1809,-0.0674,4.4561,2.4138,-6.8480,-0.5078,-0.9637,-1.8474,
2.858950,-0.3553,-0.1809,-0.0674,4.8029,2.9833,-2.8751,-0.5078,-0.9637,-1.8474,
2.861291,-0.3553,-0.1809,-0.0674,4.8029,2.9833,-2.8751,-0.6862,-1.2618,-2.2494,
2.870525,-0.3553,-0.1809,-0.0674,4.8029,2.9833,-2.8751,-0.5335,-1.4927,-2.5896,
2.877412,-0.2946,-0.3305,0.1483,4.8029,2.9833,-2.8751,-0.5335,-1.4927,-2.5896,
2.879537,-0.2946,-0.3305,0.1483,5.1033,1.9329,-0.9061,-0.5335,-1.4927,-2.5896,
2.881847,-0.2946,-0.3305,0.1483,5.1033,1.9329,-0.9061,-0.2476,-1.6125,-2.9097,
2.890137,-0.2946,-0.3305,0.1483,5.1033,1.9329,-0.9061,0.1488,-1.4781,-3.2268,
2.896670,-0.3765,-0.4681,0.2091,5.1033,1.9329,-0.9061,0.1488,-1.4781,-3.2268,
2.899589,-0.3765,-0.4681,0.2091,3.8955,1.0660,-0.5350,0.1488,-1.4781,-3.2268,
2.901958,-0.3765,-0.4681,0.2091,3.8955,1.0660,-0.5350,0.5508,-1.3681,-3.5945,
2.911307,-0.3765,-0.4681,0.2091,3.8955,1.0660,-0.5350,0.8984,-1.3363,-4.0203,
2.916744,-0.6926,-0.6497,0.3723,3.8955,1.0660,-0.5350,0.8984,-1.3363,-4.0203,
2.919186,-0.6926,-0.6497,0.3723,0.2791,-0.1996,0.7867,0.8984,-1.3363,-4.0203,
2.921450,-0.6926,-0.6497,0.3723,0.2791,-0.1996,0.7867,1.2295,-1.2038,-4.4638,
2.930190,-0.6926,-0.6497,0.3723,0.2791,-0.1996,0.7867,1.5984,-0.8391,-4.9115,
2.936617,-0.9496,-0.8319,0.2855,0.2791,-0.1996,0.7867,1.5984,-0.8391,-4.9115,
2.938450,-0.9496,-0.8319,0.2855,-2.8701,-1.4593,-0.3567,1.5984,-0.8391,-4.9115,
2.941712,-0.9496,-0.8319,0.2855,-2.8701,-1.4593,-0.3567,1.9081,-0.7847,-5.2756,
2.950153,-0.9496,-0.8319,0.2855,-2.8701,-1.4593,-0.3567,2.0095,-1.3131,-5.4748,
2.956973,-1.2780,-0.9172,-0.0462,-2.8701,-1.4593,-0.3567,2.0095,-1.3131,-5.4748,
2.959881,-1.2780,-0.9172,-0.0462,-6.8106,-1.8122,-3.9195,2.0095,-1.3131,-5.4748,
2.962183,-1.2780,-0.9172,-0.0462,-6.8106,-1.8122,-3.9195,1.8733,-1.4732,-5.4320,
2.970195,-1.2780,-0.9172,-0.0462,-6.8106,-1.8122,-3.9195,1.0230,-0.6064,-5.0991,
2.977680,-1.6675,-1.0080,0.3808,-6.8106,-1.8122,-3.9195,1.0230,-0.6064,-5.0991,
2.980160,-1.6675,-1.0080,0.3808,-11.3401,-2.3049,0.0170,1.0230,-0.6064,-5.0991,
2.983219,-1.6675,-1.0080,0.3808,-11.3401,-2.3049,0.0170,-0.1169,0.8066,-4.4265,
2.990061,-1.6675,-1.0080,0.3808,-11.3401,-2.3049,0.0170,-0.4370,1.3399,-3.4455,
3.008766,-2.0352,-1.4746,0.0092,-11.3401,-2.3049,0.0170,-0.4370,1.3399,-3.4455,
3.011510,-2.0352,-1.4746,0.0092,-15.4774,-6.4848,-3.4803,-0.4370,1.3399,-3.4455,
3.014044,-2.0352,-1.4746,0.0092,-15.4774,-6.4848,-3.4803,-0.3826,1.0124,-2.1132,
3.016082,-2.0352,-1.4746,0.0092,-15.4774,-6.4848,-3.4803,-0.7388,-0.4469,0.6565,
3.018055,-1.3619,-1.7804,-0.1836,-15.4774,-6.4848,-3.4803,-0.7388,-0.4469,0.6565,
3.019901,-1.3619,-1.7804,-0.1836,-8.9677,-9.3783,-5.2460,-0.7388,-0.4469,0.6565,
3.021671,-1.3619,-1.7804,-0.1836,-8.9677,-9.3783,-5.2460,-1.1694,-0.2508,1.1440,
3.054341,-1.3619,-1.7804,-0.1836,-8.9677,-9.3783,-5.2460,-1.5329,0.2354,0.7249,
3.057249,-0.4707,-1.2395,0.1080,-8.9677,-9.3783,-5.2460,-1.5329,0.2354,0.7249,
3.059590,-0.4707,-1.2395,0.1080,-0.0983,-4.0712,-2.1937,-1.5329,0.2354,0.7249,
3.060908,-0.4707,-1.2395,0.1080,-0.0983,-4.0712,-2.1937,-1.6526,0.5085,-0.0429,
3.062050,-0.4707,-1.2395,0.1080,-0.0983,-4.0712,-2.1937,-1.6453,0.5488,-0.7693,
3.063163,-0.6111,-1.0200,0.1076,-0.0983,-4.0712,-2.1937,-1.6453,0.5488,-0.7693,
3.064317,-0.6111,-1.0200,0.1076,-1.5096,-1.7705,-1.8521,-1.6453,0.5488,-0.7693,
3.065761,-0.6111,-1.0200,0.1076,-1.5096,-1.7705,-1.8521,-1.6990,0.5402,-1.3453,
3.070330,-0.6111,-1.0200,0.1076,-1.5096,-1.7705,-1.8521,-1.8737,0.8005,-1.7668,
3.080329,-0.8530,-0.8800,-0.0656,-1.5096,-1.7705,-1.8521,-1.8737,0.8005,-1.7668,
3.081616,-0.8530,-0.8800,-0.0656,-4.0089,-0.1989,-3.1454,-1.8737,0.8005,-1.7668,
3.082707,-0.8530,-0.8800,-0.0656,-4.0089,-0.1989,-3.1454,-2.2781,0.7455,-2.1706,
3.089313,-0.8530,-0.8800,-0.0656,-4.0089,-0.1989,-3.1454,-2.7461,0.6129,-2.5340,
3.095788,-0.6902,-1.0577,0.1467,-4.0089,-0.1989,-3.1454,-2.7461,0.6129,-2.5340,
3.096805,-0.6902,-1.0577,0.1467,-2.6875,-1.6643,-0.5223,-2.7461,0.6129,-2.5340,
3.099276,-0.6902,-1.0577,0.1467,-2.6875,-1.6643,-0.5223,-3.0637,0.6868,-2.8144,
3.109505,-0.6902,-1.0577,0.1467,-2.6875,-1.6643,-0.5223,-3.3264,0.7339,-3.1748,
3.115775,-0.2064,-1.1508,0.1534,-2.6875,-1.6643,-0.5223,-3.3264,0.7339,-3.1748,
3.116654,-0.2064,-1.1508,0.1534,1.6131,-2.2655,0.1898,-3.3264,0.7339,-3.1748,
3.119324,-0.2064,-1.1508,0.1534,1.6131,-2.2655,0.1898,-3.5384,0.8426,-3.6568,
3.129319,-0.2064,-1.1508,0.1534,1.6131,-2.2655,0.1898,-3.6709,0.9593,-4.0863,
3.135889,0.1628,-0.9975,0.1032,1.6131,-2.2655,0.1898,-3.6709,0.9593,-4.0863,
3.136845,0.1628,-0.9975,0.1032,4.5606,-0.4470,0.4129,-3.6709,0.9593,-4.0863,
3.139383,0.1628,-0.9975,0.1032,4.5606,-0.4470,0.4129,-3.5927,1.1218,-4.2494,
3.149210,0.1628,-0.9975,0.1032,4.5606,-0.4470,0.4129,-3.2060,1.5066,-3.8908,
3.155805,0.2090,-0.9747,0.2194,4.5606,-0.4470,0.4129,-3.2060,1.5066,-3.8908,
3.156723,0.2090,-0.9747,0.2194,4.2586,0.0024,2.2196,-3.2060,1.5066,-3.8908,
3.160687,0.2090,-0.9747,0.2194,4.2586,0.0024,2.2196,-2.6648,1.6807,-3.2946,
3.169352,0.2090,-0.9747,0.2194,4.2586,0.0024,2.2196,-2.1969,1.6202,-2.7088,
3.176259,0.2485,-1.0768,0.1857,4.2586,0.0024,2.2196,-2.1969,1.6202,-2.7088,
3.177335,0.2485,-1.0768,0.1857,4.0403,-0.8922,2.3426,-2.1969,1.6202,-2.7088,
3.179242,0.2485,-1.0768,0.1857,4.0403,-0.8922,2.3426,-1.9525,1.3777,-2.1596,
3.189275,0.2485,-1.0768,0.1857,4.0403,-0.8922,2.3426,-1.8841,0.3405,-1.0576,
3.195949,0.1721,-1.1951,-0.0147,4.0403,-0.8922,2.3426,-1.8841,0.3405,-1.0576,
3.196897,0.1721,-1.1951,-0.0147,2.9351,-2.0225,0.7036,-1.8841,0.3405,-1.0576,
3.199310,0.1721,-1.1951,-0.0147,2.9351,-2.0225,0.7036,-1.9287,-0.1983,-0.4382,
3.209467,0.1721,-1.1951,-0.0147,2.9351,-2.0225,0.7036,-1.9055,-0.5318,0.1794,
3.216766,0.0263,-1.2968,-0.1798,2.9351,-2.0225,0.7036,-1.9055,-0.5318,0.1794,
3.219140,0.0263,-1.2968,-0.1798,1.4491,-3.0429,-0.6098,-1.9055,-0.5318,0.1794,
3.221423,0.0263,-1.2968,-0.1798,1.4491,-3.0429,-0.6098,-1.7992,-0.5373,0.7182,
3.229979,0.0263,-1.2968,-0.1798,1.4491,-3.0429,-0.6098,-1.6471,-0.2741,1.1147,
3.236682,-0.0537,-1.2281,-0.1022,1.4491,-3.0429,-0.6098,-1.6471,-0.2741,1.1147,
3.238378,-0.0537,-1.2281,-0.1022,0.8091,-2.4247,0.4180,-1.6471,-0.2741,1.1147,
3.240168,-0.0537,-1.2281,-0.1022,0.8091,-2.4247,0.4180,-1.5665,0.0888,1.4189,
3.249853,-0.0537,-1.2281,-0.1022,0.8091,-2.4247,0.4180,-1.6489,0.3900,1.6870,
3.256405,-0.2580,-0.9903,-0.1521,0.8091,-2.4247,0.4180,-1.6489,0.3900,1.6870,
3.258911,-0.2580,-0.9903,-0.1521,-0.9318,-0.1773,0.1970,-1.6489,0.3900,1.6870,
3.260938,-0.2580,-0.9903,-0.1521,-0.9318,-0.1773,0.1970,-1.8285,0.3942,1.8782,
3.270164,-0.2580,-0.9903,-0.1521,-0.9318,-0.1773,0.1970,-2.0582,-0.0468,1.8941,
3.278170,-0.3373,-0.7821,0.0920,-0.9318,-0.1773,0.1970,-2.0582,-0.0468,1.8941,
3.280855,-0.3373,-0.7821,0.0920,-1.3735,1.7427,2.8849,-2.0582,-0.0468,1.8941,
3.282890,-0.3373,-0.7821,0.0920,-1.3735,1.7427,2.8849,-2.1987,-0.6901,1.7506,
3.289982,-0.3373,-0.7821,0.0920,-1.3735,1.7427,2.8849,-2.0924,-0.9552,1.5221,
3.296870,-0.4581,-0.7517,0.2311,-1.3735,1.7427,2.8849,-2.0924,-0.9552,1.5221,
3.299472,-0.4581,-0.7517,0.2311,-2.2055,1.9042,4.5012,-2.0924,-0.9552,1.5221,
3.301342,-0.4581,-0.7517,0.2311,-2.2055,1.9042,4.5012,-1.7766,-0.6858,1.2820,
3.311318,-0.4581,-0.7517,0.2311,-2.2055,1.9042,4.5012,-1.4388,-0.1042,1.1153,
3.316590,-0.4873,-0.8243,0.0461,-2.2055,1.9042,4.5012,-1.4388,-0.1042,1.1153,
3.318631,-0.4873,-0.8243,0.0461,-2.2234,1.0830,2.8457,-1.4388,-0.1042,1.1153,
3.320701,-0.4873,-0.8243,0.0461,-2.2234,1.0830,2.8457,-1.2158,0.4908,1.0859,
3.330203,-0.4873,-0.8243,0.0461,-2.2234,1.0830,2.8457,-1.0845,1.0637,1.1250,
3.336668,-0.2849,-0.7721,0.0271,-2.2234,1.0830,2.8457,-1.0845,1.0637,1.1250,
3.338724,-0.2849,-0.7721,0.0271,-0.0529,1.5051,2.7894,-1.0845,1.0637,1.1250,
3.341979,-0.2849,-0.7721,0.0271,-0.0529,1.5051,2.7894,-0.9263,1.6343,1.1434,
3.350230,-0.2849,-0.7721,0.0271,-0.0529,1.5051,2.7894,-0.7748,2.0790,1.0927,
3.356703,-0.0360,-0.6535,-0.0114,-0.0529,1.5051,2.7894,-0.7748,2.0790,1.0927,
3.358963,-0.0360,-0.6535,-0.0114,2.4867,2.5973,2.5482,-0.7748,2.0790,1.0927,
3.361356,-0.0360,-0.6535,-0.0114,2.4867,2.5973,2.5482,-0.6270,2.4131,0.9790,
3.370263,-0.0360,-0.6535,-0.0114,2.4867,2.5973,2.5482,-0.4779,2.6050,0.6596,
3.378169,0.1459,-0.5337,-0.0297,2.4867,2.5973,2.5482,-0.4779,2.6050,0.6596,
3.380661,0.1459,-0.5337,-0.0297,4.2349,3.7448,2.4928,-0.4779,2.6050,0.6596,
3.383278,0.1459,-0.5337,-0.0297,4.2349,3.7448,2.4928,-0.1914,2.5072,0.4684,
3.390039,0.1459,-0.5337,-0.0297,4.2349,3.7448,2.4928,-0.0754,2.2445,0.2625,
3.397843,0.2480,-0.4566,-0.0717,4.2349,3.7448,2.4928,-0.0754,2.2445,0.2625,
3.400308,0.2480,-0.4566,-0.0717,5.0763,4.5329,2.1310,-0.0754,2.2445,0.2625,
3.402841,0.2480,-0.4566,-0.0717,5.0763,4.5329,2.1310,0.0688,1.8670,0.0658,
3.411616,0.2480,-0.4566,-0.0717,5.0763,4.5329,2.1310,0.2472,1.3808,-0.1040,
3.417546,0.2564,-0.3935,-0.1761,5.0763,4.5329,2.1310,0.2472,1.3808,-0.1040,
3.419785,0.2564,-0.3935,-0.1761,4.9405,5.2162,1.0977,0.2472,1.3808,-0.1040,
3.421684,0.2564,-0.3935,-0.1761,4.9405,5.2162,1.0977,0.4146,0.9605,-0.2549,
3.430331,0.2564,-0.3935,-0.1761,4.9405,5.2162,1.0977,0.6210,0.6477,-0.3966,
3.436711,0.0823,-0.3356,-0.1886,4.9405,5.2162,1.0977,0.6210,0.6477,-0.3966,
3.438546,0.0823,-0.3356,-0.1886,3.0898,5.8416,0.9087,0.6210,0.6477,-0.3966,
3.440976,0.0823,-0.3356,-0.1886,3.0898,5.8416,0.9087,0.8941,0.4205,-0.5274,
3.450224,0.0823,-0.3356,-0.1886,3.0898,5.8416,0.9087,1.1519,0.2568,-0.7479,
3.456712,-0.0627,-0.5426,-0.3334,3.0898,5.8416,0.9087,1.1519,0.2568,-0.7479,
3.459562,-0.0627,-0.5426,-0.3334,1.4835,3.9050,-0.6756,1.1519,0.2568,-0.7479,
3.462004,-0.0627,-0.5426,-0.3334,1.4835,3.9050,-0.6756,1.3632,0.1597,-0.9782,
3.470267,-0.0627,-0.5426,-0.3334,1.4835,3.9050,-0.6756,1.5001,0.2195,-1.1181,
3.478369,-0.1560,-0.6946,-0.5292,1.4835,3.9050,-0.6756,1.5001,0.2195,-1.1181,
3.481101,-0.1560,-0.6946,-0.5292,0.3053,2.5220,-2.7813,1.5001,0.2195,-1.1181,
3.483455,-0.1560,-0.6946,-0.5292,0.3053,2.5220,-2.7813,1.5740,0.4003,-1.1608,
3.489954,-0.1560,-0.6946,-0.5292,0.3053,2.5220,-2.7813,1.6253,0.4993,-1.1791,
3.496632,-0.2018,-1.0344,-0.7912,0.3053,2.5220,-2.7813,1.6253,0.4993,-1.1791,
3.499301,-0.2018,-1.0344,-0.7912,-0.4093,-0.7185,-5.5170,1.6253,0.4993,-1.1791,
3.501545,-0.2018,-1.0344,-0.7912,-0.4093,-0.7185,-5.5170,1.6155,0.3716,-1.1975,
3.511727,-0.2018,-1.0344,-0.7912,-0.4093,-0.7185,-5.5170,1.4848,0.1016,-1.2091,
3.516591,-0.4321,-1.4021,-1.2212,-0.4093,-0.7185,-5.5170,1.4848,0.1016,-1.2091,
3.518858,-0.4321,-1.4021,-1.2212,-2.8927,-4.2564,-9.8634,1.4848,0.1016,-1.2091,
3.521168,-0.4321,-1.4021,-1.2212,-2.8927,-4.2564,-9.8634,1.1977,-0.0248,-1.1407,
3.530254,-0.4321,-1.4021,-1.2212,-2.8927,-4.2564,-9.8634,0.7078,0.1413,-0.9018,
3.536345,-0.7311,-1.5055,-1.2325,-2.8927,-4.2564,-9.8634,0.7078,0.1413,-0.9018,
3.537874,-0.7311,-1.5055,-1.2325,-5.9660,-5.2477,-9.9909,0.7078,0.1413,-0.9018,
3.539674,-0.7311,-1.5055,-1.2325,-5.9660,-5.2477,-9.9909,0.1635,0.2305,-0.5848,
3.549633,-0.7311,-1.5055,-1.2325,-5.9660,-5.2477,-9.9909,-0.1193,-0.1470,-0.2867,
3.556245,-0.6823,-1.2186,-0.7498,-5.9660,-5.2477,-9.9909,-0.1193,-0.1470,-0.2867,
3.558408,-0.6823,-1.2186,-0.7498,-5.5067,-2.4603,-5.1411,-0.1193,-0.1470,-0.2867,
3.560406,-0.6823,-1.2186,-0.7498,-5.5067,-2.4603,-5.1411,-0.0332,-0.8922,0.2087,
3.569786,-0.6823,-1.2186,-0.7498,-5.5067,-2.4603,-5.1411,0.1317,-0.9637,0.3303,
3.577716,-0.2851,-1.1077,-0.5669,-5.5067,-2.4603,-5.1411,0.1317,-0.9637,0.3303,
3.579588,-0.2851,-1.1077,-0.5669,-1.4581,-1.4167,-3.2537,0.1317,-0.9637,0.3303,
3.580901,-0.2851,-1.1077,-0.5669,-1.4581,-1.4167,-3.2537,0.3602,-1.2765,0.3156,
3.589531,-0.2851,-1.1077,-0.5669,-1.4581,-1.4167,-3.2537,0.6620,-1.6564,0.2130,
3.596136,-0.2121,-1.0120,-0.2836,-1.4581,-1.4167,-3.2537,0.6620,-1.6564,0.2130,
3.597413,-0.2121,-1.0120,-0.2836,-0.5788,-0.4957,-0.5119,0.6620,-1.6564,0.2130,
3.599327,-0.2121,-1.0120,-0.2836,-0.5788,-0.4957,-0.5119,0.9582,-1.6589,0.1147,
3.610067,-0.2121,-1.0120,-0.2836,-0.5788,-0.4957,-0.5119,1.2185,-1.3999,-0.0002,
3.615921,-0.2256,-1.0907,0.1019,-0.5788,-0.4957,-0.5119,1.2185,-1.3999,-0.0002,
3.617086,-0.2256,-1.0907,0.1019,-0.5963,-1.2401,3.0680,1.2185,-1.3999,-0.0002,
3.619285,-0.2256,-1.0907,0.1019,-0.5963,-1.2401,3.0680,1.5080,-1.1287,-0.1407,
3.629230,-0.2256,-1.0907,0.1019,-0.5963,-1.2401,3.0680,1.7658,-0.9149,-0.3074,
3.635782,0.2444,-1.3725,0.0509,-0.5963,-1.2401,3.0680,1.7658,-0.9149,-0.3074,
3.636649,0.2444,-1.3725,0.0509,4.0004,-3.9335,2.2367,1.7658,-0.9149,-0.3074,
3.639266,0.2444,-1.3725,0.0509,4.0004,-3.9335,2.2367,1.7914,-0.6522,-0.4919,
3.649484,0.2444,-1.3725,0.0509,4.0004,-3.9335,2.2367,1.4420,-0.0975,-0.6288,
3.655836,0.2303,-1.4178,-0.1726,4.0004,-3.9335,2.2367,1.4420,-0.0975,-0.6288,
3.656732,0.2303,-1.4178,-0.1726,3.7326,-4.3064,-0.2582,1.4420,-0.0975,-0.6288,
3.661117,0.2303,-1.4178,-0.1726,3.7326,-4.3064,-0.2582,0.9601,0.5793,-0.6691,
3.669377,0.2303,-1.4178,-0.1726,3.7326,-4.3064,-0.2582,0.7328,0.8371,-0.6068,
3.676851,0.1474,-0.9292,-0.3706,3.7326,-4.3064,-0.2582,0.7328,0.8371,-0.6068,
3.678475,0.1474,-0.9292,-0.3706,2.7253,0.5243,-2.2975,0.7328,0.8371,-0.6068,
3.679672,0.1474,-0.9292,-0.3706,2.7253,0.5243,-2.2975,0.7866,0.4138,-0.4241,
3.689404,0.1474,-0.9292,-0.3706,2.7253,0.5243,-2.2975,0.7945,-0.4591,-0.3343,
3.695907,0.4770,-0.3711,0.0520,2.7253,0.5243,-2.2975,0.7945,-0.4591,-0.3343,
3.697113,0.4770,-0.3711,0.0520,5.7806,6.0313,1.7250,0.7945,-0.4591,-0.3343,
3.699316,0.4770,-0.3711,0.0520,5.7806,6.0313,1.7250,0.8299,-1.5917,-0.6202,
3.709950,0.4770,-0.3711,0.0520,5.7806,6.0313,1.7250,0.9857,-2.3449,-1.0680,
3.716003,0.2524,-0.5724,0.4352,5.7806,6.0313,1.7250,0.9857,-2.3449,-1.0680,
3.716840,0.2524,-0.5724,0.4352,3.3433,4.1102,5.2338,0.9857,-2.3449,-1.0680,
3.719275,0.2524,-0.5724,0.4352,3.3433,4.1102,5.2338,1.0040,-2.0969,-1.4094,
3.729353,0.2524,-0.5724,0.4352,3.3433,4.1102,5.2338,0.9277,-1.3473,-1.7057,
3.735766,-0.1237,-0.9963,0.5469,3.3433,4.1102,5.2338,0.9277,-1.3473,-1.7057,
3.736599,-0.1237,-0.9963,0.5469,-0.6771,0.0058,6.0253,0.9277,-1.3473,-1.7057,
3.739297,-0.1237,-0.9963,0.5469,-0.6771,0.0058,6.0253,0.8678,-0.5233,-1.9030,
3.749249,-0.1237,-0.9963,0.5469,-0.6771,0.0058,6.0253,0.6204,0.8267,-1.7149,
3.755721,-0.6689,-1.2340,0.3710,-0.6771,0.0058,6.0253,0.6204,0.8267,-1.7149,
3.756612,-0.6689,-1.2340,0.3710,-6.3344,-2.2980,4.0571,0.6204,0.8267,-1.7149,
3.759857,-0.6689,-1.2340,0.3710,-6.3344,-2.2980,4.0571,0.6565,1.2617,-1.3655,
3.770161,-0.6689,-1.2340,0.3710,-6.3344,-2.2980,4.0571,0.8709,1.4584,-0.8584,
3.779826,-0.8459,-1.0950,0.1642,-6.3344,-2.2980,4.0571,0.8709,1.4584,-0.8584,
3.782706,-0.8459,-1.0950,0.1642,-8.1788,-0.9267,1.8018,0.8709,1.4584,-0.8584,
3.785072,-0.8459,-1.0950,0.1642,-8.1788,-0.9267,1.8018,1.0657,1.4687,-0.3087,
3.790289,-0.8459,-1.0950,0.1642,-8.1788,-0.9267,1.8018,1.1494,1.3863,0.1739,
3.796572,-0.3360,-0.9933,-0.0506,-8.1788,-0.9267,1.8018,1.1494,1.3863,0.1739,
3.799988,-0.3360,-0.9933,-0.0506,-3.0803,0.0693,-0.5630,1.1494,1.3863,0.1739,
3.802071,-0.3360,-0.9933,-0.0506,-3.0803,0.0693,-0.5630,1.1861,1.3252,0.4830,
3.812779,-0.3360,-0.9933,-0.0506,-3.0803,0.0693,-0.5630,1.1983,1.1957,0.5319,
3.817042,0.3159,-0.7765,-0.2619,-3.0803,0.0693,-0.5630,1.1983,1.1957,0.5319,
3.819797,0.3159,-0.7765,-0.2619,3.4484,2.1860,-2.8573,1.1983,1.1957,0.5319,
3.822069,0.3159,-0.7765,-0.2619,3.4484,2.1860,-2.8573,1.1342,0.9232,0.4305,
3.830036,0.3159,-0.7765,-0.2619,3.4484,2.1860,-2.8573,1.0169,0.6703,0.2741,
3.836467,0.2630,-0.8072,-0.2042,3.4484,2.1860,-2.8573,1.0169,0.6703,0.2741,
3.838159,0.2630,-0.8072,-0.2042,3.0042,1.8755,-2.4734,1.0169,0.6703,0.2741,
3.841396,0.2630,-0.8072,-0.2042,3.0042,1.8755,-2.4734,0.8837,0.4321,0.0866,
3.849848,0.2630,-0.8072,-0.2042,3.0042,1.8755,-2.4734,0.7866,0.1218,-0.1059,
3.856409,0.0476,-0.8187,-0.0551,3.0042,1.8755,-2.4734,0.7866,0.1218,-0.1059,
3.858567,0.0476,-0.8187,-0.0551,0.8867,1.7563,-1.1397,0.7866,0.1218,-0.1059,
3.861117,0.0476,-0.8187,-0.0551,0.8867,1.7563,-1.1397,0.7230,-0.1555,-0.2409,
3.869862,0.0476,-0.8187,-0.0551,0.8867,1.7563,-1.1397,0.6864,-0.3339,-0.3136,
3.879262,-0.0447,-0.8568,0.1137,0.8867,1.7563,-1.1397,0.6864,-0.3339,-0.3136,
3.882030,-0.0447,-0.8568,0.1137,-0.0782,1.3768,0.3905,0.6864,-0.3339,-0.3136,
3.884033,-0.0447,-0.8568,0.1137,-0.0782,1.3768,0.3905,0.6925,-0.4310,-0.3728,
3.890033,-0.0447,-0.8568,0.1137,-0.0782,1.3768,0.3905,0.7347,-0.4378,-0.4156,
3.900474,-0.1634,-0.8883,0.1279,-0.0782,1.3768,0.3905,0.7347,-0.4378,-0.4156,
3.902323,-0.1634,-0.8883,0.1279,-1.3187,1.0597,0.3958,0.7347,-0.4378,-0.4156,
3.903982,-0.1634,-0.8883,0.1279,-1.3187,1.0597,0.3958,0.7896,-0.3681,-0.4241,
3.911382,-0.1634,-0.8883,0.1279,-1.3187,1.0597,0.3958,0.8422,-0.2447,-0.3881,
3.916219,-0.1941,-0.9265,0.1692,-1.3187,1.0597,0.3958,0.8422,-0.2447,-0.3881,
3.917784,-0.1941,-0.9265,0.1692,-1.6844,0.6718,0.6454,0.8422,-0.2447,-0.3881,
3.919640,-0.1941,-0.9265,0.1692,-1.6844,0.6718,0.6454,0.9362,-0.2160,-0.3264,
3.929888,-0.1941,-0.9265,0.1692,-1.6844,0.6718,0.6454,1.1726,-0.1152,-0.2036,
3.936351,-0.0828,-0.9115,0.0214,-1.6844,0.6718,0.6454,1.1726,-0.1152,-0.2036,
3.937968,-0.0828,-0.9115,0.0214,-0.6271,0.7980,-0.9937,1.1726,-0.1152,-0.2036,
3.939748,-0.0828,-0.9115,0.0214,-0.6271,0.7980,-0.9937,1.1507,0.1059,-0.2146,
3.949803,-0.0828,-0.9115,0.0214,-0.6271,0.7980,-0.9937,1.0853,0.2244,-0.3007,
3.956292,0.0665,-0.8485,-0.0838,-0.6271,0.7980,-0.9937,1.0853,0.2244,-0.3007,
3.958234,0.0665,-0.8485,-0.0838,0.8029,1.3925,-2.2037,1.0853,0.2244,-0.3007,
3.960438,0.0665,-0.8485,-0.0838,0.8029,1.3925,-2.2037,1.0334,0.2024,-0.4266,
3.969682,0.0665,-0.8485,-0.0838,0.8029,1.3925,-2.2037,0.9753,0.1676,-0.5506,
3.978630,-0.0203,-0.8196,-0.0489,0.8029,1.3925,-2.2037,0.9753,0.1676,-0.5506,
3.981003,-0.0203,-0.8196,-0.0489,-0.1206,1.6558,-1.9957,0.9753,0.1676,-0.5506,
3.982501,-0.0203,-0.8196,-0.0489,-0.1206,1.6558,-1.9957,0.9161,0.2067,-0.6000,
3.989798,-0.0203,-0.8196,-0.0489,-0.1206,1.6558,-1.9957,0.9039,0.2855,-0.6361,
3.996508,-0.0858,-0.9442,0.1096,-0.1206,1.6558,-1.9957,0.9039,0.2855,-0.6361,
3.998659,-0.0858,-0.9442,0.1096,-0.8515,0.4141,-0.5709,0.9039,0.2855,-0.6361,
4.000326,-0.0858,-0.9442,0.1096,-0.8515,0.4141,-0.5709,0.9778,0.3582,-0.6605,
4.014466,-0.0858,-0.9442,0.1096,-0.8515,0.4141,-0.5709,1.0676,0.4486,-0.6080,
4.017541,-0.0517,-1.0144,-0.0421,-0.8515,0.4141,-0.5709,1.0676,0.4486,-0.6080,
4.019389,-0.0517,-1.0144,-0.0421,-0.5989,-0.2965,-2.1881,1.0676,0.4486,-0.6080,
4.021247,-0.0517,-1.0144,-0.0421,-0.5989,-0.2965,-2.1881,1.1213,0.5091,-0.5408,
4.029881,-0.0517,-1.0144,-0.0421,-0.5989,-0.2965,-2.1881,1.0865,0.4889,-0.5274,
4.036664,0.0426,-1.0619,-0.2042,-0.5989,-0.2965,-2.1881,1.0865,0.4889,-0.5274,
4.038365,0.0426,-1.0619,-0.2042,0.2595,-0.7850,-3.8921,1.0865,0.4889,-0.5274,
4.040213,0.0426,-1.0619,-0.2042,0.2595,-0.7850,-3.8921,0.9411,0.2849,-0.4834,
4.050013,0.0426,-1.0619,-0.2042,0.2595,-0.7850,-3.8921,0.7762,0.0137,-0.4718,
4.056774,0.0905,-1.0863,-0.1419,0.2595,-0.7850,-3.8921,0.7762,0.0137,-0.4718,
4.059469,0.0905,-1.0863,-0.1419,0.6502,-1.0372,-3.3377,0.7762,0.0137,-0.4718,
4.062229,0.0905,-1.0863,-0.1419,0.6502,-1.0372,-3.3377,0.6088,-0.3034,-0.5170,
4.070426,0.0905,-1.0863,-0.1419,0.6502,-1.0372,-3.3377,0.4616,-0.6674,-0.5677,
4.079450,-0.0304,-1.1521,0.0484,0.6502,-1.0372,-3.3377,0.4616,-0.6674,-0.5677,
4.082479,-0.0304,-1.1521,0.0484,-0.6429,-1.6867,-1.4771,0.4616,-0.6674,-0.5677,
4.084867,-0.0304,-1.1521,0.0484,-0.6429,-1.6867,-1.4771,0.3681,-0.9094,-0.5799,
4.090087,-0.0304,-1.1521,0.0484,-0.6429,-1.6867,-1.4771,0.3272,-0.9436,-0.5719,
4.096452,-0.1823,-1.1855,0.0370,-0.6429,-1.6867,-1.4771,0.3272,-0.9436,-0.5719,
4.099316,-0.1823,-1.1855,0.0370,-2.2393,-2.0125,-1.5616,0.3272,-0.9436,-0.5719,
4.101281,-0.1823,-1.1855,0.0370,-2.2393,-2.0125,-1.5616,0.3046,-0.8501,-0.5304,
4.111902,-0.1823,-1.1855,0.0370,-2.2393,-2.0125,-1.5616,0.1824,-0.6754,-0.4046,
4.116491,-0.2626,-1.1572,-0.0088,-2.2393,-2.0125,-1.5616,0.1824,-0.6754,-0.4046,
4.118217,-0.2626,-1.1572,-0.0088,-3.0847,-1.7291,-1.9671,0.1824,-0.6754,-0.4046,
4.119934,-0.2626,-1.1572,-0.0088,-3.0847,-1.7291,-1.9671,0.0804,-0.7127,-0.3514,
4.129965,-0.2626,-1.1572,-0.0088,-3.0847,-1.7291,-1.9671,0.0059,-0.7530,-0.2769,
4.136675,-0.3464,-1.1144,0.0602,-3.0847,-1.7291,-1.9671,0.0059,-0.7530,-0.2769,
4.138697,-0.3464,-1.1144,0.0602,-3.9083,-1.2966,-1.2194,0.0059,-0.7530,-0.2769,
4.140844,-0.3464,-1.1144,0.0602,-3.9083,-1.2966,-1.2194,-0.0454,-0.7536,-0.1792,
4.150311,-0.3464,-1.1144,0.0602,-3.9083,-1.2966,-1.2194,-0.0790,-0.7010,-0.1077,
4.156683,-0.3450,-1.2518,0.0916,-3.9083,-1.2966,-1.2194,-0.0790,-0.7010,-0.1077,
4.160598,-0.3450,-1.2518,0.0916,-3.8506,-2.6265,-0.8321,-0.0790,-0.7010,-0.1077,
4.165923,-0.3450,-1.2518,0.0916,-3.8506,-2.6265,-0.8321,-0.0980,-0.6626,-0.0564,
4.170175,-0.3450,-1.2518,0.0916,-3.8506,-2.6265,-0.8321,-0.2085,-0.6363,0.0450,
4.179360,-0.3832,-1.3640,-0.1719,-3.8506,-2.6265,-0.8321,-0.2085,-0.6363,0.0450,
4.182526,-0.3832,-1.3640,-0.1719,-4.1441,-3.7028,-3.3050,-0.2085,-0.6363,0.0450,
4.185030,-0.3832,-1.3640,-0.1719,-4.1441,-3.7028,-3.3050,-0.4571,-0.5208,0.2167,
4.190150,-0.3832,-1.3640,-0.1719,-4.1441,-3.7028,-3.3050,-0.7644,-0.3278,0.4177,
4.196842,-0.2830,-1.2822,-0.1705,-4.1441,-3.7028,-3.3050,-0.7644,-0.3278,0.4177,
4.200491,-0.2830,-1.2822,-0.1705,-3.0161,-2.8659,-3.0922,-0.7644,-0.3278,0.4177,
4.202406,-0.2830,-1.2822,-0.1705,-3.0161,-2.8659,-3.0922,-1.0790,-0.1849,0.6217,
4.212098,-0.2830,-1.2822,-0.1705,-3.0161,-2.8659,-3.0922,-1.3789,-0.1891,0.8147,
4.216448,-0.1080,-1.1514,-0.1535,-3.0161,-2.8659,-3.0922,-1.3789,-0.1891,0.8147,
4.218353,-0.1080,-1.1514,-0.1535,-1.0890,-1.5399,-2.6115,-1.3789,-0.1891,0.8147,
4.220536,-0.1080,-1.1514,-0.1535,-1.0890,-1.5399,-2.6115,-1.6972,-0.3015,0.9430,
4.229971,-0.1080,-1.1514,-0.1535,-1.0890,-1.5399,-2.6115,-1.9874,-0.3810,1.0255,
4.236330,0.0161,-1.2582,-0.2464,-1.0890,-1.5399,-2.6115,-1.9874,-0.3810,1.0255,
4.238090,0.0161,-1.2582,-0.2464,0.3572,-2.5489,-3.0916,-1.9874,-0.3810,1.0255,
4.240108,0.0161,-1.2582,-0.2464,0.3572,-2.5489,-3.0916,-2.1853,-0.3761,1.0908,
4.249912,0.0161,-1.2582,-0.2464,0.3572,-2.5489,-3.0916,-2.3197,-0.4323,1.2057,
4.256526,0.2557,-1.3807,-0.3220,0.3572,-2.5489,-3.0916,-2.3197,-0.4323,1.2057,
4.258641,0.2557,-1.3807,-0.3220,2.9233,-3.7346,-3.3297,-2.3197,-0.4323,1.2057,
4.261140,0.2557,-1.3807,-0.3220,2.9233,-3.7346,-3.3297,-2.4944,-0.7133,1.3065,
4.269957,0.2557,-1.3807,-0.3220,2.9233,-3.7346,-3.3297,-2.7064,-1.0993,1.3737,
4.279117,0.3382,-1.3768,0.1385,2.9233,-3.7346,-3.3297,-2.7064,-1.0993,1.3737,
4.281491,0.3382,-1.3768,0.1385,3.9637,-3.7131,1.6939,-2.7064,-1.0993,1.3737,
4.283393,0.3382,-1.3768,0.1385,3.9637,-3.7131,1.6939,-2.7742,-1.5459,1.3950,
4.290062,0.3382,-1.3768,0.1385,3.9637,-3.7131,1.6939,-2.6557,-1.9185,1.3987,
4.296487,0.2851,-1.2993,0.2538,3.9637,-3.7131,1.6939,-2.6557,-1.9185,1.3987,
4.299030,0.2851,-1.2993,0.2538,3.6635,-2.9989,3.2943,-2.6557,-1.9185,1.3987,
4.301066,0.2851,-1.2993,0.2538,3.6635,-2.9989,3.2943,-2.2678,-2.0223,1.3840,
4.312481,0.2851,-1.2993,0.2538,3.6635,-2.9989,3.2943,-2.1444,-1.7945,1.3767,
4.316330,0.1281,-1.2480,-0.0208,3.6635,-2.9989,3.2943,-2.1444,-1.7945,1.3767,
4.318085,0.1281,-1.2480,-0.0208,2.3489,-2.5537,0.9492,-2.1444,-1.7945,1.3767,
4.319917,0.1281,-1.2480,-0.0208,2.3489,-2.5537,0.9492,-2.1474,-1.4487,1.3669,
4.329911,0.1281,-1.2480,-0.0208,2.3489,-2.5537,0.9492,-2.2678,-1.0889,1.3535,
4.336402,-0.0252,-1.2064,-0.1871,2.3489,-2.5537,0.9492,-2.2678,-1.0889,1.3535,
4.337986,-0.0252,-1.2064,-0.1871,1.0599,-2.2199,-0.3335,-2.2678,-1.0889,1.3535,
4.340927,-0.0252,-1.2064,-0.1871,1.0599,-2.2199,-0.3335,-2.4101,-0.8782,1.3297,
4.350072,-0.0252,-1.2064,-0.1871,1.0599,-2.2199,-0.3335,-2.4675,-0.7939,1.3101,
4.356458,-0.0735,-1.1738,0.1455,1.0599,-2.2199,-0.3335,-2.4675,-0.7939,1.3101,
4.358214,-0.0735,-1.1738,0.1455,0.7920,-1.9951,3.2922,-2.4675,-0.7939,1.3101,
4.360612,-0.0735,-1.1738,0.1455,0.7920,-1.9951,3.2922,-2.4315,-0.6174,1.2991,
4.369936,-0.0735,-1.1738,0.1455,0.7920,-1.9951,3.2922,-2.3392,-0.2111,1.2961,
4.378858,-0.0282,-1.0451,0.0959,0.7920,-1.9951,3.2922,-2.3392,-0.2111,1.2961,
4.381757,-0.0282,-1.0451,0.0959,1.4225,-0.8393,3.1457,-2.3392,-0.2111,1.2961,
4.383629,-0.0282,-1.0451,0.0959,1.4225,-0.8393,3.1457,-2.2549,0.3521,1.3156,
4.390002,-0.0282,-1.0451,0.0959,1.4225,-0.8393,3.1457,-2.2128,0.8121,1.3315,
4.396475,-0.0566,-0.9038,0.0719,1.4225,-0.8393,3.1457,-2.2128,0.8121,1.3315,
4.399180,-0.0566,-0.9038,0.0719,1.2906,0.4358,3.2358,-2.2128,0.8121,1.3315,
4.401119,-0.0566,-0.9038,0.0719,1.2906,0.4358,3.2358,-2.1541,1.0460,1.3254,
4.412107,-0.0566,-0.9038,0.0719,1.2906,0.4358,3.2358,-2.0155,1.0900,1.3315,
4.417009,-0.1290,-0.7405,0.1334,1.2906,0.4358,3.2358,-2.0155,1.0900,1.3315,
4.419364,-0.1290,-0.7405,0.1334,0.7044,1.9272,4.1266,-2.0155,1.0900,1.3315,
4.421509,-0.1290,-0.7405,0.1334,0.7044,1.9272,4.1266,-1.8047,1.0900,1.3553,
4.430227,-0.1290,-0.7405,0.1334,0.7044,1.9272,4.1266,-1.5439,1.0808,1.3847,
4.436585,-0.0746,-0.6436,0.1098,0.7044,1.9272,4.1266,-1.5439,1.0808,1.3847,
4.438734,-0.0746,-0.6436,0.1098,1.3627,2.7849,4.0951,-1.5439,1.0808,1.3847,
4.440664,-0.0746,-0.6436,0.1098,1.3627,2.7849,4.0951,-1.2659,1.0973,1.3981,
4.450282,-0.0746,-0.6436,0.1098,1.3627,2.7849,4.0951,-1.0033,1.1902,1.3889,
4.456807,-0.0151,-0.5760,0.0171,1.3627,2.7849,4.0951,-1.0033,1.1902,1.3889,
4.459288,-0.0151,-0.5760,0.0171,2.0587,3.3863,3.2894,-1.0033,1.1902,1.3889,
4.461881,-0.0151,-0.5760,0.0171,2.0587,3.3863,3.2894,-0.8005,1.3392,1.3627,
4.470380,-0.0151,-0.5760,0.0171,2.0587,3.3863,3.2894,-0.6887,1.5537,1.3107,
4.476807,0.0224,-0.5722,-0.0226,2.0587,3.3863,3.2894,-0.6887,1.5537,1.3107,
4.478464,0.0224,-0.5722,-0.0226,2.4975,3.3857,2.9575,-0.6887,1.5537,1.3107,
4.481201,0.0224,-0.5722,-0.0226,2.4975,3.3857,2.9575,-0.5225,1.7076,1.0432,
4.490153,0.0224,-0.5722,-0.0226,2.4975,3.3857,2.9575,-0.4345,1.7241,0.8727,
4.496766,0.0140,-0.5822,-0.0393,2.4975,3.3857,2.9575,-0.4345,1.7241,0.8727,
4.499661,0.0140,-0.5822,-0.0393,2.3951,3.2819,2.8244,-0.4345,1.7241,0.8727,
4.502155,0.0140,-0.5822,-0.0393,2.3951,3.2819,2.8244,-0.3710,1.9018,0.7042,
4.512967,0.0140,-0.5822,-0.0393,2.3951,3.2819,2.8244,-0.3173,2.2586,0.5563,
4.517190,-0.0365,-0.6119,-0.0330,2.3951,3.2819,2.8244,-0.3173,2.2586,0.5563,
4.519164,-0.0365,-0.6119,-0.0330,1.8025,3.0052,2.9136,-0.3173,2.2586,0.5563,
4.521313,-0.0365,-0.6119,-0.0330,1.8025,3.0052,2.9136,-0.2366,2.6447,0.4244,
4.530130,-0.0365,-0.6119,-0.0330,1.8025,3.0052,2.9136,-0.0876,2.8456,0.3413,
4.536632,0.0040,-0.4611,-0.0474,1.8025,3.0052,2.9136,-0.0876,2.8456,0.3413,
4.538737,0.0040,-0.4611,-0.0474,2.0171,4.5157,2.7963,-0.0876,2.8456,0.3413,
4.540864,0.0040,-0.4611,-0.0474,2.0171,4.5157,2.7963,0.1470,2.7815,0.3016,
4.550470,0.0040,-0.4611,-0.0474,2.0171,4.5157,2.7963,0.4848,2.4773,0.2478,
4.556644,0.1375,-0.2486,-0.1209,2.0171,4.5157,2.7963,0.4848,2.4773,0.2478,
4.559131,0.1375,-0.2486,-0.1209,3.1840,6.6195,2.1005,0.4848,2.4773,0.2478,
4.561559,0.1375,-0.2486,-0.1209,3.1840,6.6195,2.1005,0.8874,2.0686,0.1696,
4.570436,0.1375,-0.2486,-0.1209,3.1840,6.6195,2.1005,1.2838,1.5194,0.0682,
4.580563,0.0826,-0.3799,-0.2315,3.1840,6.6195,2.1005,1.2838,1.5194,0.0682,
4.583608,0.0826,-0.3799,-0.2315,2.5506,5.3987,0.8832,1.2838,1.5194,0.0682,
4.586130,0.0826,-0.3799,-0.2315,2.5506,5.3987,0.8832,1.6088,0.9355,-0.0894,
4.590132,0.0826,-0.3799,-0.2315,2.5506,5.3987,0.8832,1.8128,0.5005,-0.2879,
4.596892,-0.0189,-0.6000,-0.4740,2.5506,5.3987,0.8832,1.8128,0.5005,-0.2879,
4.599948,-0.0189,-0.6000,-0.4740,1.4360,3.3533,-1.7665,1.8128,0.5005,-0.2879,
4.602247,-0.0189,-0.6000,-0.4740,1.4360,3.3533,-1.7665,1.8476,0.3167,-0.4883,
4.613082,-0.0189,-0.6000,-0.4740,1.4360,3.3533,-1.7665,1.6925,0.3637,-0.6214,
4.617227,-0.2072,-1.0712,-0.7228,1.4360,3.3533,-1.7665,1.6925,0.3637,-0.6214,
4.619834,-0.2072,-1.0712,-0.7228,-0.5697,-1.1660,-4.4447,1.6925,0.3637,-0.6214,
4.622007,-0.2072,-1.0712,-0.7228,-0.5697,-1.1660,-4.4447,1.4084,0.5830,-0.6727,
4.630114,-0.2072,-1.0712,-0.7228,-0.5697,-1.1660,-4.4447,1.0425,0.9159,-0.6654,
4.636908,-0.3191,-1.4418,-1.0026,-0.5697,-1.1660,-4.4447,1.0425,0.9159,-0.6654,
4.639625,-0.3191,-1.4418,-1.0026,-1.8351,-4.7451,-7.2888,1.0425,0.9159,-0.6654,
4.641823,-0.3191,-1.4418,-1.0026,-1.8351,-4.7451,-7.2888,0.6785,1.2391,-0.5671,
4.650123,-0.3191,-1.4418,-1.0026,-1.8351,-4.7451,-7.2888,0.4304,1.4095,-0.3979,
4.656625,-0.3054,-1.2549,-1.1953,-1.8351,-4.7451,-7.2888,0.4304,1.4095,-0.3979,
4.658541,-0.3054,-1.2549,-1.1953,-1.8469,-2.9122,-9.1122,0.4304,1.4095,-0.3979,
4.660996,-0.3054,-1.2549,-1.1953,-1.8469,-2.9122,-9.1122,0.3187,1.1908,-0.0490,
4.670086,-0.3054,-1.2549,-1.1953,-1.8469,-2.9122,-9.1122,0.1959,0.2220,0.0701,
4.676464,-0.3297,-1.1182,-0.9683,-1.8469,-2.9122,-9.1122,0.1959,0.2220,0.0701,
4.678432,-0.3297,-1.1182,-0.9683,-2.0967,-1.6023,-6.7784,0.1959,0.2220,0.0701,
4.680837,-0.3297,-1.1182,-0.9683,-2.0967,-1.6023,-6.7784,0.1794,-0.2838,0.1953,
4.690038,-0.3297,-1.1182,-0.9683,-2.0967,-1.6023,-6.7784,0.1665,-0.7023,0.3376,
4.696653,-0.3031,-1.1139,-0.6964,-2.0967,-1.6023,-6.7784,0.1665,-0.7023,0.3376,
4.699276,-0.3031,-1.1139,-0.6964,-1.7336,-1.5980,-4.0301,0.1665,-0.7023,0.3376,
4.701496,-0.3031,-1.1139,-0.6964,-1.7336,-1.5980,-4.0301,0.1189,-0.7072,0.4610,
4.712957,-0.3031,-1.1139,-0.6964,-1.7336,-1.5980,-4.0301,0.0383,-0.1598,0.5148,
4.716925,-0.2602,-0.9971,-0.7424,-1.7336,-1.5980,-4.0301,0.0383,-0.1598,0.5148,
4.719395,-0.2602,-0.9971,-0.7424,-1.1758,-0.5030,-4.3830,0.0383,-0.1598,0.5148,
4.721553,-0.2602,-0.9971,-0.7424,-1.1758,-0.5030,-4.3830,-0.0515,0.4474,0.5136,
4.730475,-0.2602,-0.9971,-0.7424,-1.1758,-0.5030,-4.3830,-0.0069,0.5634,0.3975,
4.736637,-0.1009,-1.2894,-0.6728,-1.1758,-0.5030,-4.3830,-0.0069,0.5634,0.3975,
4.739028,-0.1009,-1.2894,-0.6728,0.4449,-3.4159,-3.5782,-0.0069,0.5634,0.3975,
4.741471,-0.1009,-1.2894,-0.6728,0.4449,-3.4159,-3.5782,0.1598,0.1016,0.2283,
4.750311,-0.1009,-1.2894,-0.6728,0.4449,-3.4159,-3.5782,0.3058,-0.4616,0.1110,
4.756665,0.0286,-1.1369,-0.3025,0.4449,-3.4159,-3.5782,0.3058,-0.4616,0.1110,
4.758786,0.0286,-1.1369,-0.3025,1.7408,-1.9330,0.0759,0.3058,-0.4616,0.1110,
4.761707,0.0286,-1.1369,-0.3025,1.7408,-1.9330,0.0759,0.3730,-0.6809,0.0591,
4.770299,0.0286,-1.1369,-0.3025,1.7408,-1.9330,0.0759,0.3486,-0.5441,0.0194,
4.776928,0.0420,-1.0269,-0.1793,1.7408,-1.9330,0.0759,0.3486,-0.5441,0.0194,
4.779219,0.0420,-1.0269,-0.1793,1.8917,-0.8429,1.2346,0.3486,-0.5441,0.0194,
4.781125,0.0420,-1.0269,-0.1793,1.8917,-0.8429,1.2346,0.1824,-0.2979,-0.0930,
4.789967,0.0420,-1.0269,-0.1793,1.8917,-0.8429,1.2346,-0.1261,0.1328,-0.1181,
4.797302,0.0928,-0.6921,0.0500,1.8917,-0.8429,1.2346,-0.1261,0.1328,-0.1181,
4.800219,0.0928,-0.6921,0.0500,2.3453,2.4452,3.4821,-0.1261,0.1328,-0.1181,
4.802174,0.0928,-0.6921,0.0500,2.3453,2.4452,3.4821,-0.2611,0.4773,-0.0203,
4.810372,0.0928,-0.6921,0.0500,2.3453,2.4452,3.4821,0.0053,0.3093,-0.1517,
4.816971,0.5404,-0.7795,-0.0831,2.3453,2.4452,3.4821,0.0053,0.3093,-0.1517,
4.819940,0.5404,-0.7795,-0.0831,6.5893,1.6011,2.2067,0.0053,0.3093,-0.1517,
4.821713,0.5404,-0.7795,-0.0831,6.5893,1.6011,2.2067,0.2380,-0.1458,-0.5970,
4.829874,0.5404,-0.7795,-0.0831,6.5893,1.6011,2.2067,0.1171,-0.3797,-1.0344,
4.836530,0.2629,-1.0034,-0.1998,6.5893,1.6011,2.2067,0.1171,-0.3797,-1.0344,
4.838397,0.2629,-1.0034,-0.1998,3.6261,-0.5450,1.0082,0.1171,-0.3797,-1.0344,
4.841323,0.2629,-1.0034,-0.1998,3.6261,-0.5450,1.0082,-0.0210,-0.2124,-1.1480,
4.850042,0.2629,-1.0034,-0.1998,3.6261,-0.5450,1.0082,0.7505,-1.9154,-0.5854,
4.856368,-0.3805,-1.3936,0.5182,3.6261,-0.5450,1.0082,0.7505,-1.9154,-0.5854,
4.858216,-0.3805,-1.3936,0.5182,-2.8191,-4.2981,7.8602,0.7505,-1.9154,-0.5854,
4.861110,-0.3805,-1.3936,0.5182,-2.8191,-4.2981,7.8602,1.0688,-3.5171,-0.4467,
4.869986,-0.3805,-1.3936,0.5182,-2.8191,-4.2981,7.8602,1.2594,-3.9038,-0.3716,
4.877078,-0.3071,-1.0581,0.9499,-2.8191,-4.2981,7.8602,1.2594,-3.9038,-0.3716,
4.879812,-0.3071,-1.0581,0.9499,-1.9902,-0.8943,11.6231,1.2594,-3.9038,-0.3716,
4.881726,-0.3071,-1.0581,0.9499,-1.9902,-0.8943,11.6231,1.4109,-3.0975,-0.3007,
4.889975,-0.3071,-1.0581,0.9499,-1.9902,-0.8943,11.6231,1.5618,-1.8519,-0.2891,
4.896351,-0.1913,-0.9137,0.4879,-1.9902,-0.8943,11.6231,1.5618,-1.8519,-0.2891,
4.898823,-0.1913,-0.9137,0.4879,-0.8028,0.6268,6.5765,1.5618,-1.8519,-0.2891,
4.901291,-0.1913,-0.9137,0.4879,-0.8028,0.6268,6.5765,1.6998,-0.5373,-0.2445,
4.910042,-0.1913,-0.9137,0.4879,-0.8028,0.6268,6.5765,1.7346,0.6691,-0.3068,
4.916447,0.0789,-0.9280,-0.5111,-0.8028,0.6268,6.5765,1.7346,0.6691,-0.3068,
4.919185,0.0789,-0.9280,-0.5111,1.7734,0.5634,-3.6315,1.7346,0.6691,-0.3068,
4.920872,0.0789,-0.9280,-0.5111,1.7734,0.5634,-3.6315,1.5654,1.4388,-0.4962,
4.930044,0.0789,-0.9280,-0.5111,1.7734,0.5634,-3.6315,1.3211,1.4541,-0.6257,
4.936732,0.0861,-0.9657,-0.0131,1.7734,0.5634,-3.6315,1.3211,1.4541,-0.6257,
4.939065,0.0861,-0.9657,-0.0131,1.6728,0.2496,0.9316,1.3211,1.4541,-0.6257,
4.941183,0.0861,-0.9657,-0.0131,1.6728,0.2496,0.9316,1.2612,0.8389,-0.7644,
4.950371,0.0861,-0.9657,-0.0131,1.6728,0.2496,0.9316,1.4292,0.3081,-0.7827,
4.956724,0.0051,-0.9874,0.2847,1.6728,0.2496,0.9316,1.4292,0.3081,-0.7827,
4.958839,0.0051,-0.9874,0.2847,0.6954,0.0821,3.5188,1.4292,0.3081,-0.7827,
4.961544,0.0051,-0.9874,0.2847,0.6954,0.0821,3.5188,1.7096,0.1890,-0.7088,
4.970258,0.0051,-0.9874,0.2847,0.6954,0.0821,3.5188,1.8776,0.3747,-0.6428,
4.976827,-0.0092,-0.9738,0.0478,0.6954,0.0821,3.5188,1.8776,0.3747,-0.6428,
4.979627,-0.0092,-0.9738,0.0478,0.4068,0.2450,0.8037,1.8776,0.3747,-0.6428,
4.981711,-0.0092,-0.9738,0.0478,0.4068,0.2450,0.8037,1.8379,0.6013,-0.5298,
4.990498,-0.0092,-0.9738,0.0478,0.4068,0.2450,0.8037,1.6870,0.7614,-0.5023,
4.997587,0.0871,-0.9585,-0.0484,0.4068,0.2450,0.8037,1.6870,0.7614,-0.5023,
5.000950,0.0871,-0.9585,-0.0484,1.2354,0.4056,-0.4897,1.6870,0.7614,-0.5023,
5.003099,0.0871,-0.9585,-0.0484,1.2354,0.4056,-0.4897,1.5557,0.8261,-0.4693,
5.011572,0.0871,-0.9585,-0.0484,1.2354,0.4056,-0.4897,1.4683,0.8695,-0.5066,
5.016820,0.0850,-0.8548,-0.1485,1.2354,0.4056,-0.4897,1.4683,0.8695,-0.5066,
5.020105,0.0850,-0.8548,-0.1485,1.1100,1.4208,-1.7559,1.4683,0.8695,-0.5066,
5.022377,0.0850,-0.8548,-0.1485,1.1100,1.4208,-1.7559,1.4060,0.8793,-0.5127,
5.030444,0.0850,-0.8548,-0.1485,1.1100,1.4208,-1.7559,1.2215,0.6575,-0.7778,
5.036560,0.0872,-0.9160,-0.1501,1.1100,1.4208,-1.7559,1.2215,0.6575,-0.7778,
5.038662,0.0872,-0.9160,-0.1501,0.9922,0.8145,-1.9974,1.2215,0.6575,-0.7778,
5.040856,0.0872,-0.9160,-0.1501,0.9922,0.8145,-1.9974,1.1244,0.4901,-0.8114,
5.050382,0.0872,-0.9160,-0.1501,0.9922,0.8145,-1.9974,1.0627,0.1865,-0.6544,
5.056601,-0.1669,-0.8010,-0.0487,0.9922,0.8145,-1.9974,1.0627,0.1865,-0.6544,
5.058635,-0.1669,-0.8010,-0.0487,-1.6339,1.9319,-1.1821,1.0627,0.1865,-0.6544,
5.060976,-0.1669,-0.8010,-0.0487,-1.6339,1.9319,-1.1821,0.9949,-0.1623,-0.5616,
5.070355,-0.1669,-0.8010,-0.0487,-1.6339,1.9319,-1.1821,0.9625,-0.4653,-0.5286,
5.076800,-0.1422,-0.9045,0.1148,-1.6339,1.9319,-1.1821,0.9625,-0.4653,-0.5286,
5.079207,-0.1422,-0.9045,0.1148,-1.4877,0.9028,0.2532,0.9625,-0.4653,-0.5286,
5.081543,-0.1422,-0.9045,0.1148,-1.4877,0.9028,0.2532,1.0169,-0.5098,-0.4889,
5.090390,-0.1422,-0.9045,0.1148,-1.4877,0.9028,0.2532,1.1299,-0.2899,-0.3893,
5.098594,-0.1102,-1.0045,0.2176,-1.4877,0.9028,0.2532,1.1299,-0.2899,-0.3893,
5.102032,-0.1102,-1.0045,0.2176,-1.2464,-0.0970,1.0624,1.1299,-0.2899,-0.3893,
5.104330,-0.1102,-1.0045,0.2176,-1.2464,-0.0970,1.0624,1.2478,-0.0126,-0.3423,
5.110386,-0.1102,-1.0045,0.2176,-1.2464,-0.0970,1.0624,1.3834,0.2543,-0.2793,
5.117029,-0.0292,-0.9066,0.0271,-1.2464,-0.0970,1.0624,1.3834,0.2543,-0.2793,
5.119479,-0.0292,-0.9066,0.0271,-0.4878,0.8326,-1.0378,1.3834,0.2543,-0.2793,
5.121525,-0.0292,-0.9066,0.0271,-0.4878,0.8326,-1.0378,1.5398,0.3759,-0.2274,
5.130619,-0.0292,-0.9066,0.0271,-0.4878,0.8326,-1.0378,1.6509,0.3777,-0.2708,
5.136652,0.0015,-0.8520,-0.2438,-0.4878,0.8326,-1.0378,1.6509,0.3777,-0.2708,
5.138918,0.0015,-0.8520,-0.2438,-0.1982,1.3332,-3.9276,1.6509,0.3777,-0.2708,
5.141116,0.0015,-0.8520,-0.2438,-0.1982,1.3332,-3.9276,1.6711,0.3655,-0.3282,
5.150314,0.0015,-0.8520,-0.2438,-0.1982,1.3332,-3.9276,1.6174,0.3460,-0.3740,
5.156651,-0.0220,-0.8800,-0.2161,-0.1982,1.3332,-3.9276,1.6174,0.3460,-0.3740,
5.158560,-0.0220,-0.8800,-0.2161,-0.4583,1.0223,-3.8677,1.6174,0.3460,-0.3740,
5.161196,-0.0220,-0.8800,-0.2161,-0.4583,1.0223,-3.8677,1.4933,0.3619,-0.4314,
5.170329,-0.0220,-0.8800,-0.2161,-0.4583,1.0223,-3.8677,1.3309,0.3887,-0.4913,
5.177073,-0.0324,-0.9297,0.0009,-0.4583,1.0223,-3.8677,1.3309,0.3887,-0.4913,
5.179487,-0.0324,-0.9297,0.0009,-0.6077,0.5013,-1.9120,1.3309,0.3887,-0.4913,
5.181663,-0.0324,-0.9297,0.0009,-0.6077,0.5013,-1.9120,1.1849,0.3759,-0.5304,
5.190447,-0.0324,-0.9297,0.0009,-0.6077,0.5013,-1.9120,1.0914,0.3527,-0.5793,
5.197291,-0.0624,-0.8889,0.1097,-0.6077,0.5013,-1.9120,1.0914,0.3527,-0.5793,
5.200492,-0.0624,-0.8889,0.1097,-0.9607,0.8719,-0.9769,1.0914,0.3527,-0.5793,
5.202740,-0.0624,-0.8889,0.1097,-0.9607,0.8719,-0.9769,1.0890,0.3399,-0.6226,
5.210301,-0.0624,-0.8889,0.1097,-0.9607,0.8719,-0.9769,1.1531,0.2916,-0.6049,
5.216765,-0.0056,-1.0166,-0.0975,-0.9607,0.8719,-0.9769,1.1531,0.2916,-0.6049,
5.219703,-0.0056,-1.0166,-0.0975,-0.4766,-0.4069,-3.1205,1.1531,0.2916,-0.6049,
5.221997,-0.0056,-1.0166,-0.0975,-0.4766,-0.4069,-3.1205,1.0987,-0.0987,-0.5787,
5.230933,-0.0056,-1.0166,-0.0975,-0.4766,-0.4069,-3.1205,0.9087,-0.2954,-0.5500,
5.236606,-0.0529,-1.1281,-0.1627,-0.4766,-0.4069,-3.1205,0.9087,-0.2954,-0.5500,
5.238458,-0.0529,-1.1281,-0.1627,-1.0207,-1.5200,-3.8302,0.9087,-0.2954,-0.5500,
5.240594,-0.0529,-1.1281,-0.1627,-1.0207,-1.5200,-3.8302,0.6931,-0.4518,-0.5017,
5.250136,-0.0529,-1.1281,-0.1627,-1.0207,-1.5200,-3.8302,0.5386,-0.6088,-0.4327,
5.256479,-0.2139,-1.2024,-0.0210,-1.0207,-1.5200,-3.8302,0.5386,-0.6088,-0.4327,
5.257742,-0.2139,-1.2024,-0.0210,-2.6553,-2.2508,-2.4406,0.5386,-0.6088,-0.4327,
5.259704,-0.2139,-1.2024,-0.0210,-2.6553,-2.2508,-2.4406,0.4408,-0.7291,-0.3618,
5.269664,-0.2139,-1.2024,-0.0210,-2.6553,-2.2508,-2.4406,0.3486,-0.7371,-0.3673,
5.276507,-0.2652,-1.1000,0.2007,-2.6553,-2.2508,-2.4406,0.3486,-0.7371,-0.3673,
5.278230,-0.2652,-1.1000,0.2007,-3.1852,-1.2451,-0.2501,0.3486,-0.7371,-0.3673,
5.280261,-0.2652,-1.1000,0.2007,-3.1852,-1.2451,-0.2501,0.2857,-0.5117,-0.4101,
5.289820,-0.2652,-1.1000,0.2007,-3.1852,-1.2451,-0.2501,0.2924,-0.1323,-0.4082,
5.298395,-0.1169,-1.1415,0.0970,-3.1852,-1.2451,-0.2501,0.2924,-0.1323,-0.4082,
5.300510,-0.1169,-1.1415,0.0970,-1.7506,-1.6477,-1.2424,0.2924,-0.1323,-0.4082,
5.302636,-0.1169,-1.1415,0.0970,-1.7506,-1.6477,-1.2424,0.2356,-0.0260,-0.4357,
5.316683,-0.0244,-1.2235,0.0266,-1.7506,-1.6477,-1.2424,0.2356,-0.0260,-0.4357,
5.318965,-0.0244,-1.2235,0.0266,-0.8347,-2.4395,-1.8842,0.2356,-0.0260,-0.4357,
5.320851,-0.0244,-1.2235,0.0266,-0.8347,-2.4395,-1.8842,0.0829,-0.4372,-0.4137,
5.330448,-0.0244,-1.2235,0.0266,-0.8347,-2.4395,-1.8842,0.0554,-0.7829,-0.4125,
5.336646,-0.2008,-1.0080,0.0342,-0.8347,-2.4395,-1.8842,0.0554,-0.7829,-0.4125,
5.338227,-0.2008,-1.0080,0.0342,-2.6316,-0.3185,-1.7471,0.0554,-0.7829,-0.4125,
5.340278,-0.2008,-1.0080,0.0342,-2.6316,-0.3185,-1.7471,0.0432,-0.7939,-0.2964,
5.350225,-0.2008,-1.0080,0.0342,-2.6316,-0.3185,-1.7471,-0.0100,-0.7041,-0.1083,
5.356716,-0.2274,-1.2852,-0.1556,-2.6316,-0.3185,-1.7471,-0.0100,-0.7041,-0.1083,
5.358563,-0.2274,-1.2852,-0.1556,-2.8805,-3.0139,-3.5137,-0.0100,-0.7041,-0.1083,
5.361278,-0.2274,-1.2852,-0.1556,-2.8805,-3.0139,-3.5137,-0.1487,-0.8385,-0.0741,
5.370002,-0.2274,-1.2852,-0.1556,-2.8805,-3.0139,-3.5137,-0.3264,-0.9674,0.0157,
5.376901,-0.4334,-1.1767,-0.1362,-2.8805,-3.0139,-3.5137,-0.3264,-0.9674,0.0157,
5.379119,-0.4334,-1.1767,-0.1362,-4.8349,-1.9172,-3.1751,-0.3264,-0.9674,0.0157,
5.381163,-0.4334,-1.1767,-0.1362,-4.8349,-1.9172,-3.1751,-0.5592,-0.9356,0.2210,
5.389895,-0.4334,-1.1767,-0.1362,-4.8349,-1.9172,-3.1751,-0.8383,-0.7798,0.4855,
5.397105,-0.3639,-1.0771,-0.1123,-4.8349,-1.9172,-3.1751,-0.8383,-0.7798,0.4855,
5.400339,-0.3639,-1.0771,-0.1123,-4.0036,-0.8921,-2.7084,-0.8383,-0.7798,0.4855,
5.402130,-0.3639,-1.0771,-0.1123,-4.0036,-0.8921,-2.7084,-1.4419,-0.7255,0.9534,
5.410268,-0.3639,-1.0771,-0.1123,-4.0036,-0.8921,-2.7084,-1.7363,-0.8806,1.0920,
5.416725,-0.0542,-1.1743,-0.1565,-4.0036,-0.8921,-2.7084,-1.7363,-0.8806,1.0920,
5.419732,-0.0542,-1.1743,-0.1565,-0.7123,-1.7780,-2.7463,-1.7363,-0.8806,1.0920,
5.421700,-0.0542,-1.1743,-0.1565,-0.7123,-1.7780,-2.7463,-2.0173,-0.9930,1.1464,
5.430849,-0.0542,-1.1743,-0.1565,-0.7123,-1.7780,-2.7463,-2.2842,-0.9747,1.1666,
5.436523,0.1175,-1.1995,-0.0699,-0.7123,-1.7780,-2.7463,-2.2842,-0.9747,1.1666,
5.438464,0.1175,-1.1995,-0.0699,1.2156,-1.9765,-1.4169,-2.2842,-0.9747,1.1666,
5.442279,0.1175,-1.1995,-0.0699,1.2156,-1.9765,-1.4169,-2.5035,-0.8483,1.1977,
5.450710,0.1175,-1.1995,-0.0699,1.2156,-1.9765,-1.4169,-2.6330,-0.6784,1.3285,
5.456396,-0.0280,-1.0528,0.0140,1.2156,-1.9765,-1.4169,-2.6330,-0.6784,1.3285,
5.457783,-0.0280,-1.0528,0.0140,0.0413,-0.5186,-0.0775,-2.6330,-0.6784,1.3285,
5.459757,-0.0280,-1.0528,0.0140,0.0413,-0.5186,-0.0775,-2.7064,-0.5532,1.6235,
5.469660,-0.0280,-1.0528,0.0140,0.0413,-0.5186,-0.0775,-2.8010,-0.6003,1.7970,
5.476166,0.2337,-1.4096,0.0922,0.0413,-0.5186,-0.0775,-2.8010,-0.6003,1.7970,
5.478187,0.2337,-1.4096,0.0922,2.9311,-4.0340,1.2204,-2.8010,-0.6003,1.7970,
5.480574,0.2337,-1.4096,0.0922,2.9311,-4.0340,1.2204,-2.8285,-0.7035,1.8630,
5.489737,0.2337,-1.4096,0.0922,2.9311,-4.0340,1.2204,-2.7760,-0.8018,1.9161,
5.496702,0.3382,-1.5980,0.1524,2.9311,-4.0340,1.2204,-2.7760,-0.8018,1.9161,
5.498484,0.3382,-1.5980,0.1524,4.2666,-5.9337,2.3024,-2.7760,-0.8018,1.9161,
5.500503,0.3382,-1.5980,0.1524,4.2666,-5.9337,2.3024,-2.6764,-0.9197,1.9656,
5.509766,0.3382,-1.5980,0.1524,4.2666,-5.9337,2.3024,-2.5304,-1.1665,1.8721,
5.516808,0.1399,-1.4341,0.0457,4.2666,-5.9337,2.3024,-2.5304,-1.1665,1.8721,
5.519832,0.1399,-1.4341,0.0457,2.6334,-4.4068,1.6756,-2.5304,-1.1665,1.8721,
5.521997,0.1399,-1.4341,0.0457,2.6334,-4.4068,1.6756,-2.3685,-1.5367,1.7457,
5.531144,0.1399,-1.4341,0.0457,2.6334,-4.4068,1.6756,-2.2061,-1.8220,1.7457,
5.536591,0.0860,-1.3238,-0.0726,2.6334,-4.4068,1.6756,-2.2061,-1.8220,1.7457,
5.538645,0.0860,-1.3238,-0.0726,2.3954,-3.4154,0.8420,-2.2061,-1.8220,1.7457,
5.540748,0.0860,-1.3238,-0.0726,2.3954,-3.4154,0.8420,-2.1108,-2.1262,1.6186,
5.550246,0.0860,-1.3238,-0.0726,2.3954,-3.4154,0.8420,-2.0210,-2.1934,1.6229,
5.556682,-0.0573,-1.2466,0.0112,2.3954,-3.4154,0.8420,-2.0210,-2.1934,1.6229,
5.558879,-0.0573,-1.2466,0.0112,1.2823,-2.7537,1.9067,-2.0210,-2.1934,1.6229,
5.561090,-0.0573,-1.2466,0.0112,1.2823,-2.7537,1.9067,-1.9269,-1.8757,1.7035,
5.570269,-0.0573,-1.2466,0.0112,1.2823,-2.7537,1.9067,-1.8267,-1.2801,1.7591,
5.576679,-0.2741,-1.1697,-0.1170,1.2823,-2.7537,1.9067,-1.8267,-1.2801,1.7591,
5.578935,-0.2741,-1.1697,-0.1170,-0.5329,-2.1102,0.8656,-1.8267,-1.2801,1.7591,
5.581278,-0.2741,-1.1697,-0.1170,-0.5329,-2.1102,0.8656,-1.7962,-0.5428,2.1934,
5.590282,-0.2741,-1.1697,-0.1170,-0.5329,-2.1102,0.8656,-1.8304,0.5720,2.4421,
5.597825,-0.3171,-0.9789,0.0299,-0.5329,-2.1102,0.8656,-1.8304,0.5720,2.4421,
5.602400,-0.3171,-0.9789,0.0299,-0.5888,-0.3903,2.5571,-1.8304,0.5720,2.4421,
5.604412,-0.3171,-0.9789,0.0299,-0.5888,-0.3903,2.5571,-1.7229,0.8414,2.5215,
5.610159,-0.3171,-0.9789,0.0299,-0.5888,-0.3903,2.5571,-1.5646,0.9739,2.5367,
5.616698,-0.1395,-0.7991,0.1946,-0.5888,-0.3903,2.5571,-1.5646,0.9739,2.5367,
5.619615,-0.1395,-0.7991,0.1946,1.4996,1.2083,4.4039,-1.5646,0.9739,2.5367,
5.621805,-0.1395,-0.7991,0.1946,1.4996,1.2083,4.4039,-1.3637,1.0912,2.5025,
5.631090,-0.1395,-0.7991,0.1946,1.4996,1.2083,4.4039,-1.1004,1.3380,2.4628,
5.636656,-0.0766,-0.6043,0.1837,1.4996,1.2083,4.4039,-1.1004,1.3380,2.4628,
5.638563,-0.0766,-0.6043,0.1837,2.4182,2.9714,4.4529,-1.1004,1.3380,2.4628,
5.641202,-0.0766,-0.6043,0.1837,2.4182,2.9714,4.4529,-0.9208,1.5634,2.4524,
5.650136,-0.0766,-0.6043,0.1837,2.4182,2.9714,4.4529,-0.8328,1.6917,2.3804,
5.656411,0.0279,-0.4377,-0.0483,2.4182,2.9714,4.4529,-0.8328,1.6917,2.3804,
5.658125,0.0279,-0.4377,-0.0483,3.6819,4.4739,2.3123,-0.8328,1.6917,2.3804,
5.660643,0.0279,-0.4377,-0.0483,3.6819,4.4739,2.3123,-0.7986,1.6929,2.2173,
5.669893,0.0279,-0.4377,-0.0483,3.6819,4.4739,2.3123,-0.7711,1.5372,1.9216,
5.676438,-0.0209,-0.4836,-0.0480,3.6819,4.4739,2.3123,-0.7711,1.5372,1.9216,
5.679397,-0.0209,-0.4836,-0.0480,3.3652,3.9179,2.4414,-0.7711,1.5372,1.9216,
5.681511,-0.0209,-0.4836,-0.0480,3.3652,3.9179,2.4414,-0.7259,1.4016,1.4690,
5.689940,-0.0209,-0.4836,-0.0480,3.3652,3.9179,2.4414,-0.6459,1.4315,1.0401,
5.697427,-0.0930,-0.6339,0.0010,3.3652,3.9179,2.4414,-0.6459,1.4315,1.0401,
5.699777,-0.0930,-0.6339,0.0010,2.6904,2.3994,3.0176,-0.6459,1.4315,1.0401,
5.701855,-0.0930,-0.6339,0.0010,2.6904,2.3994,3.0176,-0.5091,1.5256,0.8068,
5.710032,-0.0930,-0.6339,0.0010,2.6904,2.3994,3.0176,-0.3454,1.5793,0.7072,
5.716688,0.0877,-0.6297,-0.0056,2.6904,2.3994,3.0176,-0.3454,1.5793,0.7072,
5.718907,0.0877,-0.6297,-0.0056,4.3765,2.4524,3.0170,-0.3454,1.5793,0.7072,
5.720562,0.0877,-0.6297,-0.0056,4.3765,2.4524,3.0170,-0.1670,1.6184,0.5905,
5.730737,0.0877,-0.6297,-0.0056,4.3765,2.4524,3.0170,-0.0124,1.6386,0.3841,
5.736404,0.1994,-0.5124,-0.0070,4.3765,2.4524,3.0170,-0.0124,1.6386,0.3841,
5.738259,0.1994,-0.5124,-0.0070,5.3041,3.6633,3.0161,-0.0124,1.6386,0.3841,
5.740009,0.1994,-0.5124,-0.0070,5.3041,3.6633,3.0161,0.1439,1.6538,0.1641,
5.749928,0.1994,-0.5124,-0.0070,5.3041,3.6633,3.0161,0.3522,1.6752,-0.0881,
5.756503,0.1261,-0.4801,-0.1362,5.3041,3.6633,3.0161,0.3522,1.6752,-0.0881,
5.758047,0.1261,-0.4801,-0.1362,4.3369,4.0794,1.7300,0.3522,1.6752,-0.0881,
5.760208,0.1261,-0.4801,-0.1362,4.3369,4.0794,1.7300,0.5679,1.5194,-0.3588,
5.769886,0.1261,-0.4801,-0.1362,4.3369,4.0794,1.7300,0.9607,0.8530,-0.8523,
5.776465,-0.0178,-0.5436,-0.2520,4.3369,4.0794,1.7300,0.9607,0.8530,-0.8523,
5.778490,-0.0178,-0.5436,-0.2520,2.6284,3.5923,0.4897,0.9607,0.8530,-0.8523,
5.780796,-0.0178,-0.5436,-0.2520,2.6284,3.5923,0.4897,1.1360,0.5696,-1.0576,
5.790034,-0.0178,-0.5436,-0.2520,2.6284,3.5923,0.4897,1.2905,0.3368,-1.2030,
5.797805,-0.1815,-0.6050,-0.4031,2.6284,3.5923,0.4897,1.2905,0.3368,-1.2030,
5.800598,-0.1815,-0.6050,-0.4031,0.7075,3.1429,-1.1784,1.2905,0.3368,-1.2030,
5.802486,-0.1815,-0.6050,-0.4031,0.7075,3.1429,-1.1784,1.4170,0.1621,-1.2744,
5.810004,-0.1815,-0.6050,-0.4031,0.7075,3.1429,-1.1784,1.4952,0.0320,-1.2738,
5.816538,-0.3558,-0.7267,-0.6649,0.7075,3.1429,-1.1784,1.4952,0.0320,-1.2738,
5.819265,-0.3558,-0.7267,-0.6649,-1.2652,2.0737,-3.9311,1.4952,0.0320,-1.2738,
5.821087,-0.3558,-0.7267,-0.6649,-1.2652,2.0737,-3.9311,1.4762,-0.0456,-1.2537,
5.831056,-0.3558,-0.7267,-0.6649,-1.2652,2.0737,-3.9311,1.3021,-0.1097,-1.2470,
5.836684,-0.6238,-1.1445,-1.0403,-1.2652,2.0737,-3.9311,1.3021,-0.1097,-1.2470,
5.838997,-0.6238,-1.1445,-1.0403,-4.0902,-1.9376,-7.7460,1.3021,-0.1097,-1.2470,
5.841163,-0.6238,-1.1445,-1.0403,-4.0902,-1.9376,-7.7460,1.0016,-0.1635,-1.2036,
5.850405,-0.6238,-1.1445,-1.0403,-4.0902,-1.9376,-7.7460,0.5630,-0.0883,-1.0454,
5.856859,-1.0511,-1.4622,-0.9232,-4.0902,-1.9376,-7.7460,0.5630,-0.0883,-1.0454,
5.859556,-1.0511,-1.4622,-0.9232,-8.3979,-5.0165,-6.6352,0.5630,-0.0883,-1.0454,
5.861891,-1.0511,-1.4622,-0.9232,-8.3979,-5.0165,-6.6352,0.1091,0.0693,-0.7002,
5.870391,-1.0511,-1.4622,-0.9232,-8.3979,-5.0165,-6.6352,-0.0796,0.1175,-0.2482,
5.876777,-0.7785,-1.2166,-0.5475,-8.3979,-5.0165,-6.6352,-0.0796,0.1175,-0.2482,
5.879779,-0.7785,-1.2166,-0.5475,-5.7199,-2.6358,-2.8614,-0.0796,0.1175,-0.2482,
5.882261,-0.7785,-1.2166,-0.5475,-5.7199,-2.6358,-2.8614,-0.0167,0.1090,0.1275,
5.890286,-0.7785,-1.2166,-0.5475,-5.7199,-2.6358,-2.8614,0.1232,0.1774,0.3193,
5.898183,-0.4393,-0.8061,-0.5753,-5.7199,-2.6358,-2.8614,0.1232,0.1774,0.3193,
5.901318,-0.4393,-0.8061,-0.5753,-2.2685,1.3359,-3.0444,0.1232,0.1774,0.3193,
5.903627,-0.4393,-0.8061,-0.5753,-2.2685,1.3359,-3.0444,0.2777,0.2855,0.3743,
5.910073,-0.4393,-0.8061,-0.5753,-2.2685,1.3359,-3.0444,0.4396,0.1975,0.3633,
5.916695,-0.3925,-0.9811,-0.4142,-2.2685,1.3359,-3.0444,0.4396,0.1975,0.3633,
5.920316,-0.3925,-0.9811,-0.4142,-1.6760,-0.4168,-1.4420,0.4396,0.1975,0.3633,
5.922408,-0.3925,-0.9811,-0.4142,-1.6760,-0.4168,-1.4420,0.6632,-0.1818,0.2875,
5.931254,-0.3925,-0.9811,-0.4142,-1.6760,-0.4168,-1.4420,0.9454,-0.5905,0.1489,
5.936660,-0.1834,-1.1385,-0.4528,-1.6760,-0.4168,-1.4420,0.9454,-0.5905,0.1489,
5.938994,-0.1834,-1.1385,-0.4528,0.4773,-1.9581,-1.9119,0.9454,-0.5905,0.1489,
5.940980,-0.1834,-1.1385,-0.4528,0.4773,-1.9581,-1.9119,1.1427,-0.8000,-0.0271,
5.950160,-0.1834,-1.1385,-0.4528,0.4773,-1.9581,-1.9119,1.0053,-0.2692,-0.3893,
5.956630,-0.0814,-1.1984,-0.2296,0.4773,-1.9581,-1.9119,1.0053,-0.2692,-0.3893,
5.959166,-0.0814,-1.1984,-0.2296,1.4766,-2.4992,0.0988,1.0053,-0.2692,-0.3893,
5.962309,-0.0814,-1.1984,-0.2296,1.4766,-2.4992,0.0988,0.8941,0.3020,-0.5029,
5.970189,-0.0814,-1.1984,-0.2296,1.4766,-2.4992,0.0988,0.7945,0.7595,-0.5603,
5.976603,-0.0330,-1.3767,-0.3001,1.4766,-2.4992,0.0988,0.7945,0.7595,-0.5603,
5.979291,-0.0330,-1.3767,-0.3001,1.8215,-4.1881,-0.7007,0.7945,0.7595,-0.5603,
5.981475,-0.0330,-1.3767,-0.3001,1.8215,-4.1881,-0.7007,0.6155,0.7626,-0.5304,
5.989930,-0.0330,-1.3767,-0.3001,1.8215,-4.1881,-0.7007,0.4335,0.3338,-0.4901,
5.997603,0.0988,-1.1405,-0.2152,1.8215,-4.1881,-0.7007,0.4335,0.3338,-0.4901,
6.000009,0.0988,-1.1405,-0.2152,2.9715,-1.8292,0.0750,0.4335,0.3338,-0.4901,
6.001817,0.0988,-1.1405,-0.2152,2.9715,-1.8292,0.0750,0.2710,-0.1604,-0.5231,
6.009859,0.0988,-1.1405,-0.2152,2.9715,-1.8292,0.0750,0.1006,-0.4689,-0.5787,
6.016506,0.3083,-0.6806,0.2143,2.9715,-1.8292,0.0750,0.1006,-0.4689,-0.5787,
6.018902,0.3083,-0.6806,0.2143,4.8673,2.7233,4.2268,0.1006,-0.4689,-0.5787,
6.021168,0.3083,-0.6806,0.2143,4.8673,2.7233,4.2268,0.0157,-0.4995,-0.6782,
6.031077,0.3083,-0.6806,0.2143,4.8673,2.7233,4.2268,0.1403,-0.3022,-0.8108,
6.036501,0.1484,-0.7542,0.6998,4.8673,2.7233,4.2268,0.1403,-0.3022,-0.8108,
6.038572,0.1484,-0.7542,0.6998,3.1005,2.0681,8.8551,0.1403,-0.3022,-0.8108,
6.040374,0.1484,-0.7542,0.6998,3.1005,2.0681,8.8551,0.4610,-0.1678,-0.9489,
6.049922,0.1484,-0.7542,0.6998,3.1005,2.0681,8.8551,0.9106,-0.2679,-1.0765,
6.056489,-0.0934,-0.9955,0.7019,3.1005,2.0681,8.8551,0.9106,-0.2679,-1.0765,
6.058334,-0.0934,-0.9955,0.7019,0.4959,-0.2017,8.5771,0.9106,-0.2679,-1.0765,
6.060137,-0.0934,-0.9955,0.7019,0.4959,-0.2017,8.5771,1.3083,-0.4891,-1.1755,
6.069925,-0.0934,-0.9955,0.7019,0.4959,-0.2017,8.5771,1.5361,-0.6473,-1.2060,
6.076373,-0.2704,-1.1546,0.4664,0.4959,-0.2017,8.5771,1.5361,-0.6473,-1.2060,
6.078634,-0.2704,-1.1546,0.4664,-1.4643,-1.6606,5.8176,1.5361,-0.6473,-1.2060,
6.081013,-0.2704,-1.1546,0.4664,-1.4643,-1.6606,5.8176,1.6772,-0.6045,-1.1541,
6.089945,-0.2704,-1.1546,0.4664,-1.4643,-1.6606,5.8176,1.8391,-0.3431,-1.0063,
6.098124,-0.2610,-1.0447,-0.0452,-1.4643,-1.6606,5.8176,1.8391,-0.3431,-1.0063,
6.102482,-0.2610,-1.0447,-0.0452,-1.5605,-0.5135,0.3426,1.8391,-0.3431,-1.0063,
6.104121,-0.2610,-1.0447,-0.0452,-1.5605,-0.5135,0.3426,1.9998,0.0216,-0.7674,
6.109982,-0.2610,-1.0447,-0.0452,-1.5605,-0.5135,0.3426,2.0101,0.3802,-0.5194,
6.116425,0.0062,-0.8297,-0.4496,-1.5605,-0.5135,0.3426,2.0101,0.3802,-0.5194,
6.119768,0.0062,-0.8297,-0.4496,0.9321,1.6295,-4.0199,2.0101,0.3802,-0.5194,
6.121569,0.0062,-0.8297,-0.4496,0.9321,1.6295,-4.0199,1.7811,0.6288,-0.4101,
6.130960,0.0062,-0.8297,-0.4496,0.9321,1.6295,-4.0199,1.4035,0.6575,-0.4217,
6.136328,0.1253,-0.8442,-0.2044,0.9321,1.6295,-4.0199,1.4035,0.6575,-0.4217,
6.138033,0.1253,-0.8442,-0.2044,2.0083,1.5020,-1.9104,1.4035,0.6575,-0.4217,
6.140236,0.1253,-0.8442,-0.2044,2.0083,1.5020,-1.9104,0.8874,0.2372,-0.4962,
6.150032,0.1253,-0.8442,-0.2044,2.0083,1.5020,-1.9104,0.8318,-0.0010,-0.5310,
6.156526,0.0712,-0.9136,0.0950,2.0083,1.5020,-1.9104,0.8318,-0.0010,-0.5310,
6.158259,0.0712,-0.9136,0.0950,1.3663,0.8305,0.8592,0.8318,-0.0010,-0.5310,
6.160510,0.0712,-0.9136,0.0950,1.3663,0.8305,0.8592,0.8464,-0.1708,-0.5555,
6.169890,0.0712,-0.9136,0.0950,1.3663,0.8305,0.8592,0.8831,-0.2606,-0.5622,
6.176428,-0.0829,-0.9839,0.1946,1.3663,0.8305,0.8592,0.8831,-0.2606,-0.5622,
6.178542,-0.0829,-0.9839,0.1946,-0.2582,0.1452,1.6594,0.8831,-0.2606,-0.5622,
6.180885,-0.0829,-0.9839,0.1946,-0.2582,0.1452,1.6594,0.9301,-0.2716,-0.5335,
6.189846,-0.0829,-0.9839,0.1946,-0.2582,0.1452,1.6594,1.0059,-0.2166,-0.4699,
6.198427,-0.1782,-0.9778,0.0781,-0.2582,0.1452,1.6594,1.0059,-0.2166,-0.4699,
6.201464,-0.1782,-0.9778,0.0781,-1.2895,0.2033,0.3238,1.0059,-0.2166,-0.4699,
6.203342,-0.1782,-0.9778,0.0781,-1.2895,0.2033,0.3238,1.0688,-0.2166,-0.3979,
6.210034,-0.1782,-0.9778,0.0781,-1.2895,0.2033,0.3238,1.0963,-0.2655,-0.3423,
6.216673,-0.1893,-0.9163,-0.0243,-1.2895,0.2033,0.3238,1.0963,-0.2655,-0.3423,
6.219597,-0.1893,-0.9163,-0.0243,-1.4609,0.7977,-0.8883,1.0963,-0.2655,-0.3423,
6.221283,-0.1893,-0.9163,-0.0243,-1.4609,0.7977,-0.8883,1.0883,-0.2771,-0.3056,
6.231916,-0.1893,-0.9163,-0.0243,-1.4609,0.7977,-0.8883,1.0328,-0.2844,-0.2806,
6.236630,-0.2002,-0.9160,-0.0825,-1.4609,0.7977,-0.8883,1.0328,-0.2844,-0.2806,
6.238453,-0.2002,-0.9160,-0.0825,-1.5975,0.7873,-1.6413,1.0328,-0.2844,-0.2806,
6.240886,-0.2002,-0.9160,-0.0825,-1.5975,0.7873,-1.6413,0.9411,-0.3077,-0.2506,
6.250182,-0.2002,-0.9160,-0.0825,-1.5975,0.7873,-1.6413,0.8446,-0.3364,-0.2066,
6.256670,-0.1439,-0.9389,-0.0644,-1.5975,0.7873,-1.6413,0.8446,-0.3364,-0.2066,
6.259006,-0.1439,-0.9389,-0.0644,-1.0567,0.5516,-1.5977,0.8446,-0.3364,-0.2066,
6.261486,-0.1439,-0.9389,-0.0644,-1.0567,0.5516,-1.5977,0.7878,-0.3645,-0.1651,
6.270517,-0.1439,-0.9389,-0.0644,-1.0567,0.5516,-1.5977,0.7847,-0.3437,-0.1474,
6.276575,-0.0583,-0.9464,-0.1066,-1.0567,0.5516,-1.5977,0.7847,-0.3437,-0.1474,
6.278996,-0.0583,-0.9464,-0.1066,-0.2213,0.4676,-2.1069,0.7847,-0.3437,-0.1474,
6.281498,-0.0583,-0.9464,-0.1066,-0.2213,0.4676,-2.1069,0.8092,-0.2496,-0.1602,
6.290231,-0.0583,-0.9464,-0.1066,-0.2213,0.4676,-2.1069,0.8092,-0.1439,-0.2079,
6.299719,-0.0418,-0.9087,-0.0137,-0.2213,0.4676,-2.1069,0.8092,-0.1439,-0.2079,
6.302722,-0.0418,-0.9087,-0.0137,-0.0732,0.8270,-1.2925,0.8092,-0.1439,-0.2079,
6.305406,-0.0418,-0.9087,-0.0137,-0.0732,0.8270,-1.2925,0.7829,-0.0993,-0.2653,
6.310230,-0.0418,-0.9087,-0.0137,-0.0732,0.8270,-1.2925,0.7737,-0.1048,-0.3252,
6.316665,-0.0827,-0.8214,0.2138,-0.0732,0.8270,-1.2925,0.7737,-0.1048,-0.3252,
6.320672,-0.0827,-0.8214,0.2138,-0.5141,1.6684,0.8112,0.7737,-0.1048,-0.3252,
6.322796,-0.0827,-0.8214,0.2138,-0.5141,1.6684,0.8112,0.8788,-0.1055,-0.4260,
6.331665,-0.0827,-0.8214,0.2138,-0.5141,1.6684,0.8112,1.0114,-0.0676,-0.4687,
6.336428,-0.1148,-0.7846,0.2985,-0.5141,1.6684,0.8112,1.0114,-0.0676,-0.4687,
6.338310,-0.1148,-0.7846,0.2985,-0.8976,2.0055,1.4646,1.0114,-0.0676,-0.4687,
6.340614,-0.1148,-0.7846,0.2985,-0.8976,2.0055,1.4646,1.1983,-0.0401,-0.5157,
6.350682,-0.1148,-0.7846,0.2985,-0.8976,2.0055,1.4646,1.4042,-0.0511,-0.5622,
6.356960,-0.1390,-0.9337,0.0923,-0.8976,2.0055,1.4646,1.4042,-0.0511,-0.5622,
6.359915,-0.1390,-0.9337,0.0923,-1.2090,0.5070,-0.7911,1.4042,-0.0511,-0.5622,
6.362918,-0.1390,-0.9337,0.0923,-1.2090,0.5070,-0.7911,1.5422,-0.0877,-0.5915,
6.370102,-0.1390,-0.9337,0.0923,-1.2090,0.5070,-0.7911,1.5385,-0.1134,-0.6037,
6.376391,-0.1241,-1.0625,-0.2217,-1.2090,0.5070,-0.7911,1.5385,-0.1134,-0.6037,
6.378509,-0.1241,-1.0625,-0.2217,-1.1359,-0.7959,-4.0931,1.5385,-0.1134,-0.6037,
6.381179,-0.1241,-1.0625,-0.2217,-1.1359,-0.7959,-4.0931,1.4029,-0.0963,-0.6049,
6.389803,-0.1241,-1.0625,-0.2217,-1.1359,-0.7959,-4.0931,1.1696,-0.0419,-0.6123,
6.398305,-0.0778,-1.0431,-0.3012,-1.1359,-0.7959,-4.0931,1.1696,-0.0419,-0.6123,
6.401048,-0.0778,-1.0431,-0.3012,-0.7580,-0.6329,-5.0061,1.1696,-0.0419,-0.6123,
6.402702,-0.0778,-1.0431,-0.3012,-0.7580,-0.6329,-5.0061,0.8562,-0.0016,-0.6336,
6.409737,-0.0778,-1.0431,-0.3012,-0.7580,-0.6329,-5.0061,0.5239,-0.0370,-0.6550,
6.416394,-0.2643,-1.0317,0.0810,-0.7580,-0.6329,-5.0061,0.5239,-0.0370,-0.6550,
6.418328,-0.2643,-1.0317,0.0810,-2.6471,-0.5295,-1.2960,0.5239,-0.0370,-0.6550,
6.420155,-0.2643,-1.0317,0.0810,-2.6471,-0.5295,-1.2960,0.2863,-0.1635,-0.6459,
6.431315,-0.2643,-1.0317,0.0810,-2.6471,-0.5295,-1.2960,0.2075,-0.3229,-0.5958,
6.436217,-0.4562,-1.0774,0.1351,-2.6471,-0.5295,-1.2960,0.2075,-0.3229,-0.5958,
6.437699,-0.4562,-1.0774,0.1351,-4.5604,-0.9709,-0.7356,0.2075,-0.3229,-0.5958,
6.439803,-0.4562,-1.0774,0.1351,-4.5604,-0.9709,-0.7356,0.2423,-0.4347,-0.5231,
6.449867,-0.4562,-1.0774,0.1351,-4.5604,-0.9709,-0.7356,0.3058,-0.4463,-0.4205,
6.456499,-0.5652,-1.0939,0.0018,-4.5604,-0.9709,-0.7356,0.3058,-0.4463,-0.4205,
6.458023,-0.5652,-1.0939,0.0018,-5.6102,-1.1271,-2.0170,0.3058,-0.4463,-0.4205,
6.459745,-0.5652,-1.0939,0.0018,-5.6102,-1.1271,-2.0170,0.3296,-0.3651,-0.2922,
6.469757,-0.5652,-1.0939,0.0018,-5.6102,-1.1271,-2.0170,0.2460,-0.2105,-0.1608,
6.476558,-0.4951,-1.0536,0.0844,-5.6102,-1.1271,-2.0170,0.2460,-0.2105,-0.1608,
6.478508,-0.4951,-1.0536,0.0844,-4.8392,-0.7291,-1.1949,0.2460,-0.2105,-0.1608,
6.480894,-0.4951,-1.0536,0.0844,-4.8392,-0.7291,-1.1949,0.1097,-0.0102,-0.0545,
6.490052,-0.4951,-1.0536,0.0844,-4.8392,-0.7291,-1.1949,0.0548,0.1566,0.0267,
6.498736,-0.2481,-1.0665,0.0198,-4.8392,-0.7291,-1.1949,0.0548,0.1566,0.0267,
6.501605,-0.2481,-1.0665,0.0198,-2.2968,-0.8462,-1.7764,0.0548,0.1566,0.0267,
6.503328,-0.2481,-1.0665,0.0198,-2.2968,-0.8462,-1.7764,0.0877,0.2024,0.1037,
6.509998,-0.2481,-1.0665,0.0198,-2.2968,-0.8462,-1.7764,0.0645,-0.1158,0.1287,
6.516705,-0.1576,-1.1679,-0.1040,-2.2968,-0.8462,-1.7764,0.0645,-0.1158,0.1287,
6.519738,-0.1576,-1.1679,-0.1040,-1.2894,-1.8291,-2.9243,0.0645,-0.1158,0.1287,
6.521466,-0.1576,-1.1679,-0.1040,-1.2894,-1.8291,-2.9243,-0.0302,-0.1592,0.1012,
6.531736,-0.1576,-1.1679,-0.1040,-1.2894,-1.8291,-2.9243,-0.1548,-0.0541,0.1159,
6.536661,-0.2505,-1.2671,-0.1733,-1.2894,-1.8291,-2.9243,-0.1548,-0.0541,0.1159,
6.539153,-0.2505,-1.2671,-0.1733,-2.0994,-2.7836,-3.4961,-0.1548,-0.0541,0.1159,
6.541518,-0.2505,-1.2671,-0.1733,-2.0994,-2.7836,-3.4961,-0.3588,0.0680,0.1727,
6.550029,-0.2505,-1.2671,-0.1733,-2.0994,-2.7836,-3.4961,-0.6441,0.1340,0.2576,
6.556803,-0.3261,-1.2027,-0.1837,-2.0994,-2.7836,-3.4961,-0.6441,0.1340,0.2576,
6.558625,-0.3261,-1.2027,-0.1837,-2.7138,-2.1243,-3.4054,-0.6441,0.1340,0.2576,
6.560441,-0.3261,-1.2027,-0.1837,-2.7138,-2.1243,-3.4054,-0.9605,0.1413,0.3505,
6.569858,-0.3261,-1.2027,-0.1837,-2.7138,-2.1243,-3.4054,-1.2629,0.0925,0.4482,
6.576430,-0.2729,-1.0465,-0.1485,-2.7138,-2.1243,-3.4054,-1.2629,0.0925,0.4482,
6.578695,-0.2729,-1.0465,-0.1485,-2.0352,-0.5563,-2.7544,-1.2629,0.0925,0.4482,
6.580996,-0.2729,-1.0465,-0.1485,-2.0352,-0.5563,-2.7544,-1.5097,-0.0212,0.5801,
6.589744,-0.2729,-1.0465,-0.1485,-2.0352,-0.5563,-2.7544,-1.7131,-0.1574,0.7500,
6.598171,-0.1495,-1.0515,-0.1313,-2.0352,-0.5563,-2.7544,-1.7131,-0.1574,0.7500,
6.602019,-0.1495,-1.0515,-0.1313,-0.6427,-0.5750,-2.1971,-1.7131,-0.1574,0.7500,
6.603668,-0.1495,-1.0515,-0.1313,-0.6427,-0.5750,-2.1971,-1.9043,-0.2380,0.9320,
6.609832,-0.1495,-1.0515,-0.1313,-0.6427,-0.5750,-2.1971,-2.1016,-0.1507,1.0927,
6.616413,-0.1686,-1.2416,-0.0233,-0.6427,-0.5750,-2.1971,-2.1016,-0.1507,1.0927,
6.618960,-0.1686,-1.2416,-0.0233,-0.6018,-2.4287,-0.7056,-2.1016,-0.1507,1.0927,
6.620516,-0.1686,-1.2416,-0.0233,-0.6018,-2.4287,-0.7056,-2.2806,0.0638,1.2674,
6.631469,-0.1686,-1.2416,-0.0233,-0.6018,-2.4287,-0.7056,-2.4113,0.1762,1.4903,
6.636297,-0.0138,-1.3789,0.0182,-0.6018,-2.4287,-0.7056,-2.4113,0.1762,1.4903,
6.637639,-0.0138,-1.3789,0.0182,1.1843,-3.7954,0.1681,-2.4113,0.1762,1.4903,
6.639795,-0.0138,-1.3789,0.0182,1.1843,-3.7954,0.1681,-2.4907,0.1041,1.6980,
6.649962,-0.0138,-1.3789,0.0182,1.1843,-3.7954,0.1681,-2.5280,-0.0028,1.8294,
6.656554,0.1708,-1.4870,0.1732,1.1843,-3.7954,0.1681,-2.5280,-0.0028,1.8294,
6.658399,0.1708,-1.4870,0.1732,3.3034,-4.9131,2.1603,-2.5280,-0.0028,1.8294,
6.660241,0.1708,-1.4870,0.1732,3.3034,-4.9131,2.1603,-2.5622,-0.1110,1.8758,
6.670035,0.1708,-1.4870,0.1732,3.3034,-4.9131,2.1603,-2.6007,-0.3138,1.8495,
6.676342,0.3094,-1.5334,0.1683,3.3034,-4.9131,2.1603,-2.6007,-0.3138,1.8495,
6.678715,0.3094,-1.5334,0.1683,4.9362,-5.4492,2.5481,-2.6007,-0.3138,1.8495,
6.683385,0.3094,-1.5334,0.1683,4.9362,-5.4492,2.5481,-2.4382,-1.2783,1.6602,
6.689941,0.3094,-1.5334,0.1683,4.9362,-5.4492,2.5481,-2.2006,-1.9148,1.5361,
6.699262,0.2864,-1.4215,-0.0205,4.9362,-5.4492,2.5481,-2.2006,-1.9148,1.5361,
6.702086,0.2864,-1.4215,-0.0205,4.9367,-4.4361,1.0192,-2.2006,-1.9148,1.5361,
6.703953,0.2864,-1.4215,-0.0205,4.9367,-4.4361,1.0192,-2.0405,-2.3565,1.4439,
6.709915,0.2864,-1.4215,-0.0205,4.9367,-4.4361,1.0192,-2.0918,-2.3186,1.3987,
6.716499,0.2096,-1.2991,-0.1996,4.9367,-4.4361,1.0192,-2.0918,-2.3186,1.3987,
6.719477,0.2096,-1.2991,-0.1996,4.3847,-3.3174,-0.4999,-2.0918,-2.3186,1.3987,
6.721205,0.2096,-1.2991,-0.1996,4.3847,-3.3174,-0.4999,-2.2555,-1.7438,1.3468,
6.732501,0.2096,-1.2991,-0.1996,4.3847,-3.3174,-0.4999,-2.2647,-0.8336,1.2515,
6.736773,0.0515,-1.1580,0.1510,4.3847,-3.3174,-0.4999,-2.2647,-0.8336,1.2515,
6.739260,0.0515,-1.1580,0.1510,2.9876,-2.0225,3.2211,-2.2647,-0.8336,1.2515,
6.741377,0.0515,-1.1580,0.1510,2.9876,-2.0225,3.2211,-2.1071,0.1169,1.1641,
6.750011,0.0515,-1.1580,0.1510,2.9876,-2.0225,3.2211,-2.0087,0.5842,1.2527,
6.756949,-0.4231,-0.9947,-0.0447,2.9876,-2.0225,3.2211,-2.0087,0.5842,1.2527,
6.759538,-0.4231,-0.9947,-0.0447,-1.5464,-0.5190,1.6196,-2.0087,0.5842,1.2527,
6.762008,-0.4231,-0.9947,-0.0447,-1.5464,-0.5190,1.6196,-2.0191,0.4846,1.4885,
6.770239,-0.4231,-0.9947,-0.0447,-1.5464,-0.5190,1.6196,-1.9281,0.2727,1.7359,
6.776622,-0.3263,-0.8358,0.2370,-1.5464,-0.5190,1.6196,-1.9281,0.2727,1.7359,
6.779607,-0.3263,-0.8358,0.2370,-0.3871,0.9129,4.6459,-1.9281,0.2727,1.7359,
6.782277,-0.3263,-0.8358,0.2370,-0.3871,0.9129,4.6459,-1.7100,0.2470,1.8544,
6.789944,-0.3263,-0.8358,0.2370,-0.3871,0.9129,4.6459,-1.4235,0.4138,1.8672,
6.798676,-0.2311,-0.6916,0.1946,-0.3871,0.9129,4.6459,-1.4235,0.4138,1.8672,
6.801049,-0.2311,-0.6916,0.1946,0.8052,2.1974,4.3944,-1.4235,0.4138,1.8672,
6.802998,-0.2311,-0.6916,0.1946,0.8052,2.1974,4.3944,-1.1603,0.7186,1.8611,
6.809945,-0.2311,-0.6916,0.1946,0.8052,2.1974,4.3944,-0.9953,0.9978,1.8404,
6.816390,-0.0956,-0.5606,0.0777,0.8052,2.1974,4.3944,-0.9953,0.9978,1.8404,
6.819052,-0.0956,-0.5606,0.0777,2.3526,3.3742,3.3520,-0.9953,0.9978,1.8404,
6.820924,-0.0956,-0.5606,0.0777,2.3526,3.3742,3.3520,-0.9184,1.3362,1.7408,
6.832343,-0.0956,-0.5606,0.0777,2.3526,3.3742,3.3520,-0.8896,1.7833,1.5435,
6.836275,-0.1193,-0.5079,-0.0280,2.3526,3.3742,3.3520,-0.8896,1.7833,1.5435,
6.837863,-0.1193,-0.5079,-0.0280,2.2608,3.7973,2.4470,-0.8896,1.7833,1.5435,
6.839910,-0.1193,-0.5079,-0.0280,2.2608,3.7973,2.4470,-0.8683,2.1242,1.3223,
6.849960,-0.1193,-0.5079,-0.0280,2.2608,3.7973,2.4470,-0.8145,2.2946,1.1318,
6.856812,0.0249,-0.4909,-0.0450,2.2608,3.7973,2.4470,-0.8145,2.2946,1.1318,
6.858860,0.0249,-0.4909,-0.0450,3.6790,3.9089,2.4462,-0.8145,2.2946,1.1318,
6.861031,0.0249,-0.4909,-0.0450,3.6790,3.9089,2.4462,-0.7247,2.3295,0.9919,
6.870357,0.0249,-0.4909,-0.0450,3.6790,3.9089,2.4462,-0.5005,2.0576,0.6492,
6.876581,0.1906,-0.4619,-0.0182,3.6790,3.9089,2.4462,-0.5005,2.0576,0.6492,
6.879068,0.1906,-0.4619,-0.0182,5.1941,4.1911,2.8403,-0.5005,2.0576,0.6492,
6.881474,0.1906,-0.4619,-0.0182,5.1941,4.1911,2.8403,-0.3490,1.9745,0.4164,
6.890392,0.1906,-0.4619,-0.0182,5.1941,4.1911,2.8403,-0.1615,1.9275,0.1794,
6.899681,0.2036,-0.5137,-0.0118,5.1941,4.1911,2.8403,-0.1615,1.9275,0.1794,
6.902482,0.2036,-0.5137,-0.0118,5.1045,3.7453,2.9552,-0.1615,1.9275,0.1794,
6.904978,0.2036,-0.5137,-0.0118,5.1045,3.7453,2.9552,0.0578,1.8108,-0.0393,
6.910249,0.2036,-0.5137,-0.0118,5.1045,3.7453,2.9552,0.2863,1.5604,-0.2470,
6.916808,0.1599,-0.5656,-0.0804,5.1045,3.7453,2.9552,0.2863,1.5604,-0.2470,
6.920165,0.1599,-0.5656,-0.0804,4.3918,3.3409,2.2579,0.2863,1.5604,-0.2470,
6.922489,0.1599,-0.5656,-0.0804,4.3918,3.3409,2.2579,0.5025,1.2232,-0.4657,
6.932750,0.1599,-0.5656,-0.0804,4.3918,3.3409,2.2579,0.7175,0.8652,-0.6843,
6.937151,0.0224,-0.5596,-0.2520,4.3918,3.3409,2.2579,0.7175,0.8652,-0.6843,
6.939561,0.0224,-0.5596,-0.2520,2.7478,3.5231,0.4713,0.7175,0.8652,-0.6843,
6.941746,0.0224,-0.5596,-0.2520,2.7478,3.5231,0.4713,0.9271,0.5219,-0.8823,
6.950128,0.0224,-0.5596,-0.2520,2.7478,3.5231,0.4713,1.1280,0.2238,-1.0515,
6.956814,-0.1422,-0.5841,-0.4073,2.7478,3.5231,0.4713,1.1280,0.2238,-1.0515,
6.959300,-0.1422,-0.5841,-0.4073,0.8447,3.4107,-1.2148,1.1280,0.2238,-1.0515,
6.961636,-0.1422,-0.5841,-0.4073,0.8447,3.4107,-1.2148,1.3412,-0.0297,-1.1682,
6.970200,-0.1422,-0.5841,-0.4073,0.8447,3.4107,-1.2148,1.5471,-0.2093,-1.2213,
6.976944,-0.3334,-0.7179,-0.7683,0.8447,3.4107,-1.2148,1.5471,-0.2093,-1.2213,
6.979599,-0.3334,-0.7179,-0.7683,-1.2739,2.2099,-4.9369,1.5471,-0.2093,-1.2213,
6.982361,-0.3334,-0.7179,-0.7683,-1.2739,2.2099,-4.9369,1.6852,-0.2936,-1.2237,
6.990437,-0.3334,-0.7179,-0.7683,-1.2739,2.2099,-4.9369,1.6564,-0.3095,-1.2384,
6.996808,-0.5461,-1.0548,-1.0261,-1.2739,2.2099,-4.9369,1.6564,-0.3095,-1.2384,
7.000047,-0.5461,-1.0548,-1.0261,-3.5506,-1.0029,-7.6474,1.6564,-0.3095,-1.2384,
7.002301,-0.5461,-1.0548,-1.0261,-3.5506,-1.0029,-7.6474,1.4335,-0.3486,-1.2647,
7.010251,-0.5461,-1.0548,-1.0261,-3.5506,-1.0029,-7.6474,1.0865,-0.4714,-1.1620,
7.016607,-0.8275,-1.5294,-1.1366,-3.5506,-1.0029,-7.6474,1.0865,-0.4714,-1.1620,
7.019564,-0.8275,-1.5294,-1.1366,-6.4529,-5.5998,-8.8379,1.0865,-0.4714,-1.1620,
7.021934,-0.8275,-1.5294,-1.1366,-6.4529,-5.5998,-8.8379,0.6302,-0.5202,-0.8957,
7.033279,-0.8275,-1.5294,-1.1366,-6.4529,-5.5998,-8.8379,-0.0094,-0.2368,-0.5371,
7.037023,-0.8464,-1.4486,-0.6916,-6.4529,-5.5998,-8.8379,-0.0094,-0.2368,-0.5371,
7.039097,-0.8464,-1.4486,-0.6916,-6.6680,-4.8142,-4.4330,-0.0094,-0.2368,-0.5371,
7.041273,-0.8464,-1.4486,-0.6916,-6.6680,-4.8142,-4.4330,-0.4633,0.0919,-0.1022,
7.050417,-0.8464,-1.4486,-0.6916,-6.6680,-4.8142,-4.4330,-0.2336,0.0467,0.3132,
7.056811,-0.4214,-1.0229,-0.6028,-6.6680,-4.8142,-4.4330,-0.2336,0.0467,0.3132,
7.059123,-0.4214,-1.0229,-0.6028,-2.4070,-0.7043,-3.3907,-0.2336,0.0467,0.3132,
7.061349,-0.4214,-1.0229,-0.6028,-2.4070,-0.7043,-3.3907,-0.0228,0.0546,0.3700,
7.070461,-0.4214,-1.0229,-0.6028,-2.4070,-0.7043,-3.3907,0.1812,-0.0566,0.3810,
7.076549,-0.3475,-0.8652,-0.6663,-2.4070,-0.7043,-3.3907,0.1812,-0.0566,0.3810,
7.078812,-0.3475,-0.8652,-0.6663,-1.5436,0.7882,-3.9185,0.1812,-0.0566,0.3810,
7.081154,-0.3475,-0.8652,-0.6663,-1.5436,0.7882,-3.9185,0.3461,-0.3620,0.3101,
7.090187,-0.3475,-0.8652,-0.6663,-1.5436,0.7882,-3.9185,0.4378,-0.6943,0.1574,
7.097083,-0.3629,-0.8936,-0.6070,-1.5436,0.7882,-3.9185,0.4378,-0.6943,0.1574,
7.101129,-0.3629,-0.8936,-0.6070,-1.5634,0.4782,-3.3193,0.4378,-0.6943,0.1574,
7.103123,-0.3629,-0.8936,-0.6070,-1.5634,0.4782,-3.3193,0.4793,-0.8910,0.0261,
7.110429,-0.3629,-0.8936,-0.6070,-1.5634,0.4782,-3.3193,0.5154,-0.9631,-0.0558,
7.117339,-0.2917,-1.2262,-0.0122,-1.5634,0.4782,-3.3193,0.5154,-0.9631,-0.0558,
7.123066,-0.2917,-1.2262,-0.0122,-0.7753,-2.7806,2.4352,0.5154,-0.9631,-0.0558,
7.126289,-0.2917,-1.2262,-0.0122,-0.7753,-2.7806,2.4352,0.5868,-0.9069,-0.1169,
7.130316,-0.2917,-1.2262,-0.0122,-0.7753,-2.7806,2.4352,0.7090,-0.5978,-0.1535,
7.137153,-0.1386,-1.3869,0.1804,-0.7753,-2.7806,2.4352,0.7090,-0.5978,-0.1535,
7.139524,-0.1386,-1.3869,0.1804,0.7452,-4.3202,4.1723,0.7090,-0.5978,-0.1535,
7.141155,-0.1386,-1.3869,0.1804,0.7452,-4.3202,4.1723,0.7945,-0.1433,-0.1169,
7.150241,-0.1386,-1.3869,0.1804,0.7452,-4.3202,4.1723,0.8348,0.0131,-0.0167,
7.156383,0.1270,-1.0388,-0.0170,0.7452,-4.3202,4.1723,0.8348,0.0131,-0.0167,
7.157760,0.1270,-1.0388,-0.0170,3.3328,-0.8640,2.0745,0.8348,0.0131,-0.0167,
7.159647,0.1270,-1.0388,-0.0170,3.3328,-0.8640,2.0745,0.8226,-0.2899,0.0444,
7.169633,0.1270,-1.0388,-0.0170,3.3328,-0.8640,2.0745,0.6754,-0.7298,-0.0545,
7.176268,0.5541,-0.6555,-0.4958,3.3328,-0.8640,2.0745,0.6754,-0.7298,-0.0545,
7.177749,0.5541,-0.6555,-0.4958,7.4524,2.9363,-2.7444,0.6754,-0.7298,-0.0545,
7.180160,0.5541,-0.6555,-0.4958,7.4524,2.9363,-2.7444,0.3803,-0.9100,-0.3465,
7.189608,0.5541,-0.6555,-0.4958,7.4524,2.9363,-2.7444,0.0816,-0.7408,-0.6947,
7.196493,0.3563,-0.6307,0.2144,7.4524,2.9363,-2.7444,0.0816,-0.7408,-0.6947,
7.198989,0.3563,-0.6307,0.2144,5.3300,3.2364,4.1287,0.0816,-0.7408,-0.6947,
7.200602,0.3563,-0.6307,0.2144,5.3300,3.2364,4.1287,-0.0240,-0.5563,-0.9647,
7.209327,0.3563,-0.6307,0.2144,5.3300,3.2364,4.1287,0.1000,-0.4494,-1.1810,
7.216500,-0.0319,-0.9621,0.9748,5.3300,3.2364,4.1287,0.1000,-0.4494,-1.1810,
7.217947,-0.0319,-0.9621,0.9748,1.2531,0.0718,11.4145,0.1000,-0.4494,-1.1810,
7.219355,-0.0319,-0.9621,0.9748,1.2531,0.0718,11.4145,0.4659,-0.4701,-1.3471,
7.229712,-0.0319,-0.9621,0.9748,1.2531,0.0718,11.4145,0.9625,-0.6357,-1.3929,
7.235956,-0.2704,-1.1896,0.7527,1.2531,0.0718,11.4145,0.9625,-0.6357,-1.3929,
7.237163,-0.2704,-1.1896,0.7527,-1.3648,-2.0566,8.8994,0.9625,-0.6357,-1.3929,
7.239210,-0.2704,-1.1896,0.7527,-1.3648,-2.0566,8.8994,1.6626,-0.8837,-1.2066,
7.249386,-0.2704,-1.1896,0.7527,-1.3648,-2.0566,8.8994,1.8733,-0.7609,-1.0124,
7.255863,-0.3718,-1.1289,0.2708,-1.3648,-2.0566,8.8994,1.8733,-0.7609,-1.0124,
7.256817,-0.3718,-1.1289,0.2708,-2.5463,-1.3706,3.6593,1.8733,-0.7609,-1.0124,
7.259292,-0.3718,-1.1289,0.2708,-2.5463,-1.3706,3.6593,2.0266,-0.5239,-0.8193,
7.269246,-0.3718,-1.1289,0.2708,-2.5463,-1.3706,3.6593,1.9888,-0.2032,-0.6782,
7.275702,-0.2027,-0.9042,-0.4399,-2.5463,-1.3706,3.6593,1.9888,-0.2032,-0.6782,
7.276668,-0.2027,-0.9042,-0.4399,-1.0102,0.8817,-3.7643,1.9888,-0.2032,-0.6782,
7.279579,-0.2027,-0.9042,-0.4399,-1.0102,0.8817,-3.7643,1.6455,0.1700,-0.6190,
7.289300,-0.2027,-0.9042,-0.4399,-1.0102,0.8817,-3.7643,1.1708,0.4639,-0.6190,
7.296121,-0.0269,-0.8574,-0.2685,-1.0102,0.8817,-3.7643,1.1708,0.4639,-0.6190,
7.297180,-0.0269,-0.8574,-0.2685,0.5927,1.3629,-2.3577,1.1708,0.4639,-0.6190,
7.299490,-0.0269,-0.8574,-0.2685,0.5927,1.3629,-2.3577,0.9002,0.5683,-0.6117,
7.309262,-0.0269,-0.8574,-0.2685,0.5927,1.3629,-2.3577,0.8941,0.5555,-0.5811,
7.315826,-0.0006,-0.9333,0.1517,0.5927,1.3629,-2.3577,0.8941,0.5555,-0.5811,
7.317178,-0.0006,-0.9333,0.1517,0.7328,0.6324,1.5856,0.8941,0.5555,-0.5811,
7.319309,-0.0006,-0.9333,0.1517,0.7328,0.6324,1.5856,0.9961,0.4785,-0.5555,
7.330032,-0.0006,-0.9333,0.1517,0.7328,0.6324,1.5856,1.0480,0.3246,-0.5420,
7.336382,-0.1058,-0.9301,0.1429,0.7328,0.6324,1.5856,1.0480,0.3246,-0.5420,
7.338909,-0.1058,-0.9301,0.1429,-0.4004,0.6707,1.2936,1.0480,0.3246,-0.5420,
7.340742,-0.1058,-0.9301,0.1429,-0.4004,0.6707,1.2936,1.0315,0.1273,-0.5310,
7.349977,-0.1058,-0.9301,0.1429,-0.4004,0.6707,1.2936,1.0486,0.0589,-0.4999,
7.356583,-0.1468,-0.9194,0.0601,-0.4004,0.6707,1.2936,1.0486,0.0589,-0.4999,
7.358375,-0.1468,-0.9194,0.0601,-0.8933,0.7758,0.2726,1.0486,0.0589,-0.4999,
7.360219,-0.1468,-0.9194,0.0601,-0.8933,0.7758,0.2726,1.1146,0.0002,-0.4620,
7.369972,-0.1468,-0.9194,0.0601,-0.8933,0.7758,0.2726,1.1659,-0.1641,-0.4284,
7.376634,-0.1311,-0.8949,-0.0172,-0.8933,0.7758,0.2726,1.1659,-0.1641,-0.4284,
7.378544,-0.1311,-0.8949,-0.0172,-0.8131,1.0105,-0.7075,1.1659,-0.1641,-0.4284,
7.380790,-0.1311,-0.8949,-0.0172,-0.8131,1.0105,-0.7075,1.1751,-0.2802,-0.4009,
7.389904,-0.1311,-0.8949,-0.0172,-0.8131,1.0105,-0.7075,1.1226,-0.2747,-0.3924,
7.396750,-0.1531,-0.8917,-0.0474,-0.8131,1.0105,-0.7075,1.1226,-0.2747,-0.3924,
7.398670,-0.1531,-0.8917,-0.0474,-1.0852,1.0303,-1.2150,1.1226,-0.2747,-0.3924,
7.400694,-0.1531,-0.8917,-0.0474,-1.0852,1.0303,-1.2150,1.0187,-0.2319,-0.3789,
7.409967,-0.1531,-0.8917,-0.0474,-1.0852,1.0303,-1.2150,0.9142,-0.2032,-0.3496,
7.416688,-0.1896,-0.9048,0.0660,-1.0852,1.0303,-1.2150,0.9142,-0.2032,-0.3496,
7.419892,-0.1896,-0.9048,0.0660,-1.4813,0.8890,-0.2757,0.9142,-0.2032,-0.3496,
7.421789,-0.1896,-0.9048,0.0660,-1.4813,0.8890,-0.2757,0.8507,-0.1763,-0.3184,
7.430018,-0.1896,-0.9048,0.0660,-1.4813,0.8890,-0.2757,0.8727,-0.1048,-0.2940,
7.436451,-0.2255,-0.9133,0.0465,-1.4813,0.8890,-0.2757,0.8727,-0.1048,-0.2940,
7.438815,-0.2255,-0.9133,0.0465,-1.8422,0.7910,-0.6090,0.8727,-0.1048,-0.2940,
7.440635,-0.2255,-0.9133,0.0465,-1.8422,0.7910,-0.6090,0.9252,-0.1250,-0.2983,
7.449955,-0.2255,-0.9133,0.0465,-1.8422,0.7910,-0.6090,0.9692,-0.1391,-0.3172,
7.456517,-0.2140,-0.9139,-0.0875,-1.8422,0.7910,-0.6090,0.9692,-0.1391,-0.3172,
7.458241,-0.2140,-0.9139,-0.0875,-1.7292,0.7691,-2.0586,0.9692,-0.1391,-0.3172,
7.459947,-0.2140,-0.9139,-0.0875,-1.7292,0.7691,-2.0586,0.9924,-0.1207,-0.3551,
7.470089,-0.2140,-0.9139,-0.0875,-1.7292,0.7691,-2.0586,0.9924,-0.0615,-0.4021,
7.476382,-0.1860,-0.9036,-0.0856,-1.7292,0.7691,-2.0586,0.9924,-0.0615,-0.4021,
7.478259,-0.1860,-0.9036,-0.0856,-1.4661,0.8543,-2.1708,0.9924,-0.0615,-0.4021,
7.480438,-0.1860,-0.9036,-0.0856,-1.4661,0.8543,-2.1708,0.9796,0.0253,-0.4431,
7.490180,-0.1860,-0.9036,-0.0856,-1.4661,0.8543,-2.1708,0.9802,0.1029,-0.4724,
7.496731,-0.1506,-0.8805,0.0851,-1.4661,0.8543,-2.1708,0.9802,0.1029,-0.4724,
7.499141,-0.1506,-0.8805,0.0851,-1.1426,1.0622,-0.6302,0.9802,0.1029,-0.4724,
7.501536,-0.1506,-0.8805,0.0851,-1.1426,1.0622,-0.6302,1.0028,0.1682,-0.5029,
7.510357,-0.1506,-0.8805,0.0851,-1.1426,1.0622,-0.6302,1.0566,0.2311,-0.5420,
7.516884,-0.0776,-0.8926,0.0678,-1.1426,1.0622,-0.6302,1.0566,0.2311,-0.5420,
7.519979,-0.0776,-0.8926,0.0678,-0.4680,0.9223,-0.9433,1.0566,0.2311,-0.5420,
7.522383,-0.0776,-0.8926,0.0678,-0.4680,0.9223,-0.9433,1.1335,0.2947,-0.5933,
7.530413,-0.0776,-0.8926,0.0678,-0.4680,0.9223,-0.9433,1.1989,0.3417,-0.6526,
7.536704,0.0376,-0.9799,-0.1489,-0.4680,0.9223,-0.9433,1.1989,0.3417,-0.6526,
7.540108,0.0376,-0.9799,-0.1489,0.5854,0.0438,-3.2084,1.1989,0.3417,-0.6526,
7.542312,0.0376,-0.9799,-0.1489,0.5854,0.0438,-3.2084,1.2197,0.3539,-0.7143,
7.550288,0.0376,-0.9799,-0.1489,0.5854,0.0438,-3.2084,1.1378,0.3057,-0.7760,
7.556761,0.0311,-1.0668,-0.2354,0.5854,0.0438,-3.2084,1.1378,0.3057,-0.7760,
7.559519,0.0311,-1.0668,-0.2354,0.4128,-0.8271,-4.1714,1.1378,0.3057,-0.7760,
7.561758,0.0311,-1.0668,-0.2354,0.4128,-0.8271,-4.1714,0.9161,0.1884,-0.8456,
7.570426,0.0311,-1.0668,-0.2354,0.4128,-0.8271,-4.1714,0.6339,0.0302,-0.9122,
7.576605,-0.2933,-1.1149,0.0299,0.4128,-0.8271,-4.1714,0.6339,0.0302,-0.9122,
7.578771,-0.2933,-1.1149,0.0299,-2.8805,-1.3082,-1.6222,0.6339,0.0302,-0.9122,
7.581828,-0.2933,-1.1149,0.0299,-2.8805,-1.3082,-1.6222,0.4207,-0.1458,-0.9476,
7.590370,-0.2933,-1.1149,0.0299,-2.8805,-1.3082,-1.6222,0.3150,-0.2741,-0.9195,
7.596952,-0.5827,-1.0710,0.2399,-2.8805,-1.3082,-1.6222,0.3150,-0.2741,-0.9195,
7.601375,-0.5827,-1.0710,0.2399,-5.8023,-0.8797,0.4312,0.3150,-0.2741,-0.9195,
7.603138,-0.5827,-1.0710,0.2399,-5.8023,-0.8797,0.4312,0.2924,-0.2417,-0.8169,
7.610258,-0.5827,-1.0710,0.2399,-5.8023,-0.8797,0.4312,0.4469,0.1731,-0.4308,
7.617502,-0.6413,-1.1434,0.0947,-5.8023,-0.8797,0.4312,0.4469,0.1731,-0.4308,
7.620426,-0.6413,-1.1434,0.0947,-6.3618,-1.5908,-1.0045,0.4469,0.1731,-0.4308,
7.622672,-0.6413,-1.1434,0.0947,-6.3618,-1.5908,-1.0045,0.4891,0.1639,-0.2024,
7.630296,-0.6413,-1.1434,0.0947,-6.3618,-1.5908,-1.0045,0.3810,0.0094,-0.0191,
7.636692,-0.3299,-1.1247,-0.1796,-6.3618,-1.5908,-1.0045,0.3810,0.0094,-0.0191,
7.639834,-0.3299,-1.1247,-0.1796,-3.2009,-1.4078,-3.6940,0.3810,0.0094,-0.0191,
7.642028,-0.3299,-1.1247,-0.1796,-3.2009,-1.4078,-3.6940,0.1843,-0.0700,0.0860,
7.650224,-0.3299,-1.1247,-0.1796,-3.2009,-1.4078,-3.6940,0.0059,-0.0321,0.1147,
7.656713,-0.1670,-1.0956,0.0060,-3.2009,-1.4078,-3.6940,0.0059,-0.0321,0.1147,
7.658594,-0.1670,-1.0956,0.0060,-1.4821,-1.1122,-1.8156,0.0059,-0.0321,0.1147,
7.661324,-0.1670,-1.0956,0.0060,-1.4821,-1.1122,-1.8156,-0.0937,0.0644,0.0853,
7.670248,-0.1670,-1.0956,0.0060,-1.4821,-1.1122,-1.8156,-0.0656,0.1273,0.0615,
7.676543,-0.3414,-1.2434,-0.0688,-1.4821,-1.1122,-1.8156,-0.0656,0.1273,0.0615,
7.678676,-0.3414,-1.2434,-0.0688,-3.0746,-2.5451,-2.4524,-0.0656,0.1273,0.0615,
7.681489,-0.3414,-1.2434,-0.0688,-3.0746,-2.5451,-2.4524,-0.0033,0.0894,0.0915,
7.690473,-0.3414,-1.2434,-0.0688,-3.0746,-2.5451,-2.4524,-0.0674,-0.0187,0.1715,
7.697227,-0.3815,-1.2610,-0.2342,-3.0746,-2.5451,-2.4524,-0.0674,-0.0187,0.1715,
7.699741,-0.3815,-1.2610,-0.2342,-3.3432,-2.7035,-3.9712,-0.0674,-0.0187,0.1715,
7.702141,-0.3815,-1.2610,-0.2342,-3.3432,-2.7035,-3.9712,-0.3050,-0.0859,0.2753,
7.710236,-0.3815,-1.2610,-0.2342,-3.3432,-2.7035,-3.9712,-0.6575,-0.0175,0.3706,
7.717487,-0.3599,-1.1895,-0.1352,-3.3432,-2.7035,-3.9712,-0.6575,-0.0175,0.3706,
7.721147,-0.3599,-1.1895,-0.1352,-2.9781,-1.9804,-2.8170,-0.6575,-0.0175,0.3706,
7.723405,-0.3599,-1.1895,-0.1352,-2.9781,-1.9804,-2.8170,-1.0075,0.1377,0.4647,
7.730513,-0.3599,-1.1895,-0.1352,-2.9781,-1.9804,-2.8170,-1.2867,0.2287,0.5795,
7.736368,-0.2143,-1.0837,-0.2524,-2.9781,-1.9804,-2.8170,-1.2867,0.2287,0.5795,
7.739100,-0.2143,-1.0837,-0.2524,-1.3687,-0.9117,-3.6446,-1.2867,0.2287,0.5795,
7.740968,-0.2143,-1.0837,-0.2524,-1.3687,-0.9117,-3.6446,-1.5268,0.1481,0.7164,
7.750109,-0.2143,-1.0837,-0.2524,-1.3687,-0.9117,-3.6446,-1.7864,-0.0462,0.8465,
7.756733,-0.0461,-1.0112,-0.1076,-1.3687,-0.9117,-3.6446,-1.7864,-0.0462,0.8465,
7.759198,-0.0461,-1.0112,-0.1076,0.4789,-0.1776,-1.8249,-1.7864,-0.0462,0.8465,
7.761206,-0.0461,-1.0112,-0.1076,0.4789,-0.1776,-1.8249,-2.0594,-0.1342,0.9241,
7.769983,-0.0461,-1.0112,-0.1076,0.4789,-0.1776,-1.8249,-2.2751,-0.0254,0.9827,
