
time,gFx,gFy,gFz,ax,ay,az,wx,wy,wz,
0.065930,0.0127,0.5501,0.8889,0.0000,0.0000,0.0000,0.0000,0.0000,0.0000,
0.066362,-0.0004,0.5143,0.8736,0.0000,0.0000,0.0000,0.0000,0.0000,0.0000,
0.066717,0.0072,0.5330,0.8356,0.0000,0.0000,0.0000,0.0000,0.0000,0.0000,
0.091825,0.0224,0.5345,0.8195,0.0000,0.0000,0.0000,0.0000,0.0000,0.0000,
0.092948,0.0481,0.5278,0.8229,0.0000,0.0000,0.0000,0.0000,0.0000,0.0000,
0.093986,0.0481,0.5278,0.8229,-0.0105,-0.1153,-0.1798,0.0000,0.0000,0.0000,
0.108798,0.0386,0.4904,0.8507,-0.0105,-0.1153,-0.1798,0.0000,0.0000,0.0000,
0.109903,0.0386,0.4904,0.8507,-0.0069,-0.0880,-0.1526,0.0000,0.0000,0.0000,
0.128754,0.0264,0.4288,0.8571,-0.0069,-0.0880,-0.1526,0.0000,0.0000,0.0000,
0.130050,0.0264,0.4288,0.8571,-0.0113,-0.1837,-0.3672,0.0000,0.0000,0.0000,
0.131034,0.0264,0.4288,0.8571,-0.0113,-0.1837,-0.3672,-0.1737,-0.7921,-0.7851,
0.140844,0.0264,0.4288,0.8571,-0.0113,-0.1837,-0.3672,-0.0869,-0.8348,-0.8273,
0.148791,0.0236,0.4311,0.8589,-0.0113,-0.1837,-0.3672,-0.0869,-0.8348,-0.8273,
0.150576,0.0236,0.4311,0.8589,-0.0094,-0.1733,-0.3451,-0.0869,-0.8348,-0.8273,
0.151807,0.0236,0.4311,0.8589,-0.0094,-0.1733,-0.3451,0.0047,-0.8684,-0.8932,
0.160904,0.0236,0.4311,0.8589,-0.0094,-0.1733,-0.3451,0.0762,-0.9980,-1.1015,
0.169211,0.0263,0.4594,0.8176,-0.0094,-0.1733,-0.3451,0.0762,-0.9980,-1.1015,
0.170452,0.0263,0.4594,0.8176,-0.0171,-0.2999,-0.5338,0.0762,-0.9980,-1.1015,
0.172038,0.0263,0.4594,0.8176,-0.0171,-0.2999,-0.5338,0.0664,-1.1330,-1.2158,
0.180809,0.0263,0.4594,0.8176,-0.0171,-0.2999,-0.5338,0.0701,-1.2673,-1.3117,
0.191247,0.0145,0.4957,0.8159,-0.0171,-0.2999,-0.5338,0.0701,-1.2673,-1.3117,
0.192672,0.0145,0.4957,0.8159,-0.0068,-0.2337,-0.3846,0.0701,-1.2673,-1.3117,
0.194020,0.0145,0.4957,0.8159,-0.0068,-0.2337,-0.3846,0.0817,-1.3797,-1.3838,
0.200888,0.0145,0.4957,0.8159,-0.0068,-0.2337,-0.3846,0.0805,-1.4769,-1.4406,
0.209328,-0.0200,0.5028,0.8753,-0.0068,-0.2337,-0.3846,0.0805,-1.4769,-1.4406,
0.210946,-0.0200,0.5028,0.8753,-0.0018,0.0439,0.0764,0.0805,-1.4769,-1.4406,
0.212094,-0.0200,0.5028,0.8753,-0.0018,0.0439,0.0764,0.0737,-1.5331,-1.4754,
0.220888,-0.0200,0.5028,0.8753,-0.0018,0.0439,0.0764,0.0725,-1.5196,-1.4845,
0.229209,-0.0241,0.4812,0.8622,-0.0018,0.0439,0.0764,0.0725,-1.5196,-1.4845,
0.230555,-0.0241,0.4812,0.8622,0.0031,-0.0623,-0.1116,0.0725,-1.5196,-1.4845,
0.231699,-0.0241,0.4812,0.8622,0.0031,-0.0623,-0.1116,0.0615,-1.4677,-1.4894,
0.241032,-0.0241,0.4812,0.8622,0.0031,-0.0623,-0.1116,0.0255,-1.4567,-1.5004,
0.249058,-0.0144,0.4878,0.8415,0.0031,-0.0623,-0.1116,0.0255,-1.4567,-1.5004,
0.250325,-0.0144,0.4878,0.8415,0.0041,-0.1372,-0.2367,0.0255,-1.4567,-1.5004,
0.251598,-0.0144,0.4878,0.8415,0.0041,-0.1372,-0.2367,-0.0399,-1.4830,-1.5243,
0.260873,-0.0144,0.4878,0.8415,0.0041,-0.1372,-0.2367,-0.1254,-1.3993,-1.5340,
0.269089,-0.0910,0.4727,1.0181,0.0041,-0.1372,-0.2367,-0.1254,-1.3993,-1.5340,
0.270543,-0.0910,0.4727,1.0181,-0.0994,0.5164,1.1123,-0.1254,-1.3993,-1.5340,
0.271980,-0.0910,0.4727,1.0181,-0.0994,0.5164,1.1123,-0.2134,-1.0071,-1.4497,
0.280853,-0.0910,0.4727,1.0181,-0.0994,0.5164,1.1123,-0.2451,-0.5734,-1.2378,
0.291086,-0.0450,0.4617,1.0164,-0.0994,0.5164,1.1123,-0.2451,-0.5734,-1.2378,
0.292483,-0.0450,0.4617,1.0164,-0.0460,0.4723,1.0397,-0.2451,-0.5734,-1.2378,
0.293817,-0.0450,0.4617,1.0164,-0.0460,0.4723,1.0397,-0.2512,-0.4457,-1.0062,
0.300834,-0.0450,0.4617,1.0164,-0.0460,0.4723,1.0397,-0.2244,-0.5905,-0.8150,
0.309261,0.0194,0.4525,1.1045,-0.0460,0.4723,1.0397,-0.2244,-0.5905,-0.8150,
0.311160,0.0194,0.4525,1.1045,0.0308,0.7171,1.7506,-0.2244,-0.5905,-0.8150,
0.312411,0.0194,0.4525,1.1045,0.0308,0.7171,1.7506,-0.1419,-0.7365,-0.6684,
0.320980,0.0194,0.4525,1.1045,0.0308,0.7171,1.7506,-0.0356,-0.7756,-0.5951,
0.329079,0.0584,0.4584,1.0208,0.0308,0.7171,1.7506,-0.0356,-0.7756,-0.5951,
0.330828,0.0584,0.4584,1.0208,0.0612,0.4807,1.0704,-0.0356,-0.7756,-0.5951,
0.332411,0.0584,0.4584,1.0208,0.0612,0.4807,1.0704,0.0524,-0.8092,-0.5896,
0.341080,0.0584,0.4584,1.0208,0.0612,0.4807,1.0704,0.1403,-0.8984,-0.6147,
0.349193,0.0581,0.4582,0.9236,0.0612,0.4807,1.0704,0.1403,-0.8984,-0.6147,
0.350970,0.0581,0.4582,0.9236,0.0176,0.1390,0.2802,0.1403,-0.8984,-0.6147,
0.352067,0.0581,0.4582,0.9236,0.0176,0.1390,0.2802,0.2576,-1.0963,-0.6183,
0.360960,0.0581,0.4582,0.9236,0.0176,0.1390,0.2802,0.3291,-1.2515,-0.6336,
0.369476,0.1831,0.5056,0.9242,0.0176,0.1390,0.2802,0.3291,-1.2515,-0.6336,
0.370843,0.1831,0.5056,0.9242,0.1151,0.3178,0.5809,0.3291,-1.2515,-0.6336,
0.372214,0.1831,0.5056,0.9242,0.1151,0.3178,0.5809,0.4311,-1.3785,-0.7032,
0.380838,0.1831,0.5056,0.9242,0.1151,0.3178,0.5809,0.5129,-1.3913,-0.8352,
0.390971,0.1285,0.5468,0.8662,0.1151,0.3178,0.5809,0.5129,-1.3913,-0.8352,
0.392385,0.1285,0.5468,0.8662,0.0386,0.1644,0.2604,0.5129,-1.3913,-0.8352,
0.393613,0.1285,0.5468,0.8662,0.0386,0.1644,0.2604,0.5429,-1.3370,-0.9537,
0.400881,0.1285,0.5468,0.8662,0.0386,0.1644,0.2604,0.5423,-1.1971,-0.9757,
0.409259,-0.0066,0.5514,0.7567,0.0386,0.1644,0.2604,0.5423,-1.1971,-0.9757,
0.410713,-0.0066,0.5514,0.7567,0.0044,-0.3713,-0.5096,0.5423,-1.1971,-0.9757,
0.411997,-0.0066,0.5514,0.7567,0.0044,-0.3713,-0.5096,0.5197,-0.9961,-0.8725,
0.420957,-0.0066,0.5514,0.7567,0.0044,-0.3713,-0.5096,0.4549,-0.8636,-0.6538,
0.429191,-0.0515,0.6176,0.6153,0.0044,-0.3713,-0.5096,0.4549,-0.8636,-0.6538,
0.430795,-0.0515,0.6176,0.6153,0.0737,-0.8827,-0.8794,0.4549,-0.8636,-0.6538,
0.431996,-0.0515,0.6176,0.6153,0.0737,-0.8827,-0.8794,0.3327,-0.8355,-0.3948,
0.442633,-0.0515,0.6176,0.6153,0.0737,-0.8827,-0.8794,0.1287,-0.8324,-0.1602,
0.449794,-0.0158,0.6044,0.6039,0.0737,-0.8827,-0.8794,0.1287,-0.8324,-0.1602,
0.452456,-0.0158,0.6044,0.6039,0.0264,-1.0127,-1.0119,0.1287,-0.8324,-0.1602,
0.454385,-0.0158,0.6044,0.6039,0.0264,-1.0127,-1.0119,-0.1144,-0.7383,0.0585,
0.461496,-0.0158,0.6044,0.6039,0.0264,-1.0127,-1.0119,-0.3343,-0.5007,0.2650,
0.469757,0.1550,0.5222,0.6308,0.0264,-1.0127,-1.0119,-0.3343,-0.5007,0.2650,
0.471981,0.1550,0.5222,0.6308,-0.3048,-1.0269,-1.2404,-0.3343,-0.5007,0.2650,
0.474456,0.1550,0.5222,0.6308,-0.3048,-1.0269,-1.2404,-0.5310,-0.2606,0.3951,
0.481510,0.1550,0.5222,0.6308,-0.3048,-1.0269,-1.2404,-0.6593,-0.0138,0.4232,
0.492709,0.2588,0.5415,0.9219,-0.3048,-1.0269,-1.2404,-0.6593,-0.0138,0.4232,
0.495139,0.2588,0.5415,0.9219,0.2291,0.4794,0.8161,-0.6593,-0.0138,0.4232,
0.497246,0.2588,0.5415,0.9219,0.2291,0.4794,0.8161,-0.6782,0.2971,0.3603,
0.501513,0.2588,0.5415,0.9219,0.2291,0.4794,0.8161,-0.6001,0.6001,0.2393,
0.509672,0.1842,0.4600,1.0795,0.2291,0.4794,0.8161,-0.6001,0.6001,0.2393,
0.512396,0.1842,0.4600,1.0795,0.2844,0.7101,1.6664,-0.6001,0.6001,0.2393,
0.514861,0.1842,0.4600,1.0795,0.2844,0.7101,1.6664,-0.4522,0.6349,0.0915,
0.521588,0.1842,0.4600,1.0795,0.2844,0.7101,1.6664,-0.2152,0.3142,-0.0441,
0.529807,0.1278,0.5023,1.1697,0.2844,0.7101,1.6664,-0.2152,0.3142,-0.0441,
0.532734,0.1278,0.5023,1.1697,0.2728,1.0724,2.4975,-0.2152,0.3142,-0.0441,
0.534762,0.1278,0.5023,1.1697,0.2728,1.0724,2.4975,0.4390,0.1114,-0.3942,
0.542814,0.1278,0.5023,1.1697,0.2728,1.0724,2.4975,0.6669,0.2336,-0.6495,
0.549743,0.2299,0.6004,1.0660,0.2728,1.0724,2.4975,0.6669,0.2336,-0.6495,
0.552349,0.2299,0.6004,1.0660,0.4419,1.1542,2.0494,0.6669,0.2336,-0.6495,
0.554131,0.2299,0.6004,1.0660,0.4419,1.1542,2.0494,0.7732,0.3838,-0.9287,
0.561733,0.2299,0.6004,1.0660,0.4419,1.1542,2.0494,0.7658,0.4748,-1.1993,
0.569883,0.1209,0.6059,1.0298,0.4419,1.1542,2.0494,0.7658,0.4748,-1.1993,
0.572622,0.1209,0.6059,1.0298,0.1976,0.9899,1.6824,0.7658,0.4748,-1.1993,
0.574951,0.1209,0.6059,1.0298,0.1976,0.9899,1.6824,0.7194,0.5494,-1.4002,
0.581542,0.1209,0.6059,1.0298,0.1976,0.9899,1.6824,0.6663,0.5640,-1.5230,
0.592690,-0.0136,0.4929,0.8424,0.1976,0.9899,1.6824,0.6663,0.5640,-1.5230,
0.594820,-0.0136,0.4929,0.8424,0.0033,-0.1218,-0.2082,0.6663,0.5640,-1.5230,
0.596979,-0.0136,0.4929,0.8424,0.0033,-0.1218,-0.2082,0.5807,0.4382,-1.5695,
0.601409,-0.0136,0.4929,0.8424,0.0033,-0.1218,-0.2082,0.4897,0.2562,-1.4925,
0.609773,0.0750,0.6021,0.8474,0.0033,-0.1218,-0.2082,0.4897,0.2562,-1.4925,
0.611520,0.0750,0.6021,0.8474,0.0293,0.2351,0.3309,0.4897,0.2562,-1.4925,
0.613830,0.0750,0.6021,0.8474,0.0293,0.2351,0.3309,0.4561,0.1248,-1.3514,
0.621465,0.0750,0.6021,0.8474,0.0293,0.2351,0.3309,0.3932,0.0216,-1.3520,
0.629765,0.1474,0.6304,0.8753,0.0293,0.2351,0.3309,0.3932,0.0216,-1.3520,
0.632158,0.1474,0.6304,0.8753,0.1169,0.4999,0.6941,0.3932,0.0216,-1.3520,
0.634098,0.1474,0.6304,0.8753,0.1169,0.4999,0.6941,0.3443,0.0613,-1.4858,
0.642859,0.1474,0.6304,0.8753,0.1169,0.4999,0.6941,0.3431,0.1914,-1.8285,
0.650990,0.2121,0.4868,0.9659,0.1169,0.4999,0.6941,0.3431,0.1914,-1.8285,
0.653499,0.2121,0.4868,0.9659,0.1914,0.4393,0.8718,0.3431,0.1914,-1.8285,
0.655396,0.2121,0.4868,0.9659,0.1914,0.4393,0.8718,0.4054,0.3612,-2.4186,
0.661482,0.2121,0.4868,0.9659,0.1914,0.4393,0.8718,0.5618,0.5500,-3.0215,
0.670320,-0.1237,0.3376,0.8402,0.1914,0.4393,0.8718,0.5618,0.5500,-3.0215,
0.672537,-0.1237,0.3376,0.8402,0.1152,-0.3142,-0.7819,0.5618,0.5500,-3.0215,
0.675322,-0.1237,0.3376,0.8402,0.1152,-0.3142,-0.7819,0.7072,0.7161,-3.1516,
0.681435,-0.1237,0.3376,0.8402,0.1152,-0.3142,-0.7819,0.6137,0.7803,-2.9237,
0.693060,-0.2609,0.6644,0.6921,0.1152,-0.3142,-0.7819,0.6137,0.7803,-2.9237,
0.695518,-0.2609,0.6644,0.6921,0.0165,-0.0421,-0.0439,0.6137,0.7803,-2.9237,
0.697478,-0.2609,0.6644,0.6921,0.0165,-0.0421,-0.0439,0.3895,0.7888,-2.5829,
0.701433,-0.2609,0.6644,0.6921,0.0165,-0.0421,-0.0439,0.1922,0.6624,-2.1473,
0.709702,-0.1554,0.7543,0.6655,0.0165,-0.0421,-0.0439,0.1922,0.6624,-2.1473,
0.712145,-0.1554,0.7543,0.6655,-0.0257,0.1246,0.1099,0.1922,0.6624,-2.1473,
0.714211,-0.1554,0.7543,0.6655,-0.0257,0.1246,0.1099,-0.0356,0.0448,-1.2927,
0.721347,-0.1554,0.7543,0.6655,-0.0257,0.1246,0.1099,-0.1022,-0.0468,-1.0484,
0.729785,-0.2935,0.5231,0.6786,-0.0257,0.1246,0.1099,-0.1022,-0.0468,-1.0484,
0.732660,-0.2935,0.5231,0.6786,0.3018,-0.5379,-0.6978,-0.1022,-0.0468,-1.0484,
0.734690,-0.2935,0.5231,0.6786,0.3018,-0.5379,-0.6978,-0.2305,-0.0132,-0.7674,
0.743106,-0.2935,0.5231,0.6786,0.3018,-0.5379,-0.6978,-0.4070,-0.0016,-0.3880,
0.749858,-0.3717,0.4759,0.7118,0.3018,-0.5379,-0.6978,-0.4070,-0.0016,-0.3880,
0.752740,-0.3717,0.4759,0.7118,0.2624,-0.3360,-0.5025,-0.4070,-0.0016,-0.3880,
0.754750,-0.3717,0.4759,0.7118,0.2624,-0.3360,-0.5025,-0.5542,-0.0688,0.0273,
0.761578,-0.3717,0.4759,0.7118,0.2624,-0.3360,-0.5025,-0.6465,-0.1611,0.3707,
0.769791,-0.1854,0.4688,0.8392,0.2624,-0.3360,-0.5025,-0.6465,-0.1611,0.3707,
0.772267,-0.1854,0.4688,0.8392,0.0403,-0.1018,-0.1822,-0.6465,-0.1611,0.3707,
0.774163,-0.1854,0.4688,0.8392,0.0403,-0.1018,-0.1822,-0.6624,-0.2380,0.5606,
0.781561,-0.1854,0.4688,0.8392,0.0403,-0.1018,-0.1822,-0.5982,-0.3119,0.6107,
0.794269,-0.3272,0.3126,0.8184,0.0403,-0.1018,-0.1822,-0.5982,-0.3119,0.6107,
0.796557,-0.3272,0.3126,0.8184,0.2245,-0.2144,-0.5614,-0.5982,-0.3119,0.6107,
0.799272,-0.3272,0.3126,0.8184,0.2245,-0.2144,-0.5614,-0.5060,-0.3529,0.6022,
0.801746,-0.3272,0.3126,0.8184,0.2245,-0.2144,-0.5614,-0.4596,-0.3132,0.6193,
0.809785,-0.4860,0.2670,0.7848,0.2245,-0.2144,-0.5614,-0.4596,-0.3132,0.6193,
0.812121,-0.4860,0.2670,0.7848,0.1967,-0.1081,-0.3176,-0.4596,-0.3132,0.6193,
0.814157,-0.4860,0.2670,0.7848,0.1967,-0.1081,-0.3176,-0.4840,-0.1311,0.7085,
0.821343,-0.4860,0.2670,0.7848,0.1967,-0.1081,-0.3176,-0.5445,0.2250,0.8227,
0.829732,-0.4934,0.3279,0.8909,0.1967,-0.1081,-0.3176,-0.5445,0.2250,0.8227,
0.832285,-0.4934,0.3279,0.8909,-0.3125,0.2077,0.5644,-0.5445,0.2250,0.8227,
0.834699,-0.4934,0.3279,0.8909,-0.3125,0.2077,0.5644,-0.5793,0.6783,0.8740,
0.842749,-0.4934,0.3279,0.8909,-0.3125,0.2077,0.5644,-0.5878,1.1254,0.8288,
0.849453,-0.2588,0.3797,0.9165,-0.3125,0.2077,0.5644,-0.5878,1.1254,0.8288,
0.851443,-0.2588,0.3797,0.9165,-0.0608,0.0892,0.2153,-0.5878,1.1254,0.8288,
0.853098,-0.2588,0.3797,0.9165,-0.0608,0.0892,0.2153,-0.5658,1.5579,0.6999,
0.861381,-0.2588,0.3797,0.9165,-0.0608,0.0892,0.2153,-0.5261,1.8487,0.5020,
0.869625,-0.2441,0.4179,0.8558,-0.0608,0.0892,0.2153,-0.5261,1.8487,0.5020,
0.871329,-0.2441,0.4179,0.8558,0.0426,-0.0730,-0.1495,-0.5261,1.8487,0.5020,
0.872797,-0.2441,0.4179,0.8558,0.0426,-0.0730,-0.1495,-0.5274,1.8432,0.3169,
0.881433,-0.2441,0.4179,0.8558,0.0426,-0.0730,-0.1495,-0.5768,1.6330,0.2857,
0.889759,-0.3776,0.4577,0.8725,0.0426,-0.0730,-0.1495,-0.5768,1.6330,0.2857,
0.891884,-0.3776,0.4577,0.8725,-0.1911,0.2316,0.4416,-0.5768,1.6330,0.2857,
0.893590,-0.3776,0.4577,0.8725,-0.1911,0.2316,0.4416,-0.6563,1.4028,0.4403,
0.901384,-0.3776,0.4577,0.8725,-0.1911,0.2316,0.4416,-0.7974,1.0704,0.7860,
0.910073,-0.2084,0.4291,0.9398,-0.1911,0.2316,0.4416,-0.7974,1.0704,0.7860,
0.912851,-0.2084,0.4291,0.9398,-0.1033,0.2127,0.4658,-0.7974,1.0704,0.7860,
0.914763,-0.2084,0.4291,0.9398,-0.1033,0.2127,0.4658,-0.8456,0.9562,0.8074,
0.921324,-0.2084,0.4291,0.9398,-0.1033,0.2127,0.4658,-0.8829,0.9006,0.7451,
0.929718,-0.1445,0.3843,0.9990,-0.1033,0.2127,0.4658,-0.8829,0.9006,0.7451,
0.932268,-0.1445,0.3843,0.9990,-0.1041,0.2768,0.7194,-0.8829,0.9006,0.7451,
0.933733,-0.1445,0.3843,0.9990,-0.1041,0.2768,0.7194,-0.9360,0.8444,0.6498,
0.942640,-0.1445,0.3843,0.9990,-0.1041,0.2768,0.7194,-0.9922,0.8261,0.5808,
0.949511,-0.1298,0.3669,0.9916,-0.1041,0.2768,0.7194,-0.9922,0.8261,0.5808,
0.951663,-0.1298,0.3669,0.9916,-0.0772,0.2181,0.5895,-0.9922,0.8261,0.5808,
0.953099,-0.1298,0.3669,0.9916,-0.0772,0.2181,0.5895,-1.0380,0.8291,0.5515,
0.961512,-0.1298,0.3669,0.9916,-0.0772,0.2181,0.5895,-1.0649,0.8224,0.5209,
0.969565,-0.0453,0.3636,0.9495,-0.0772,0.2181,0.5895,-1.0649,0.8224,0.5209,
0.971372,-0.0453,0.3636,0.9495,-0.0075,0.0598,0.1562,-1.0649,0.8224,0.5209,
0.973055,-0.0453,0.3636,0.9495,-0.0075,0.0598,0.1562,-1.0631,0.8133,0.4885,
0.981429,-0.0453,0.3636,0.9495,-0.0075,0.0598,0.1562,-1.0619,0.7455,0.4476,
0.989778,-0.0070,0.3015,0.8502,-0.0075,0.0598,0.1562,-1.0619,0.7455,0.4476,
0.992146,-0.0070,0.3015,0.8502,0.0074,-0.3229,-0.9107,-1.0619,0.7455,0.4476,
0.993947,-0.0070,0.3015,0.8502,0.0074,-0.3229,-0.9107,-1.0997,0.6239,0.3859,
1.001365,-0.0070,0.3015,0.8502,0.0074,-0.3229,-0.9107,-1.2073,0.4895,0.3316,
1.009668,-0.0612,0.2598,0.7909,0.0074,-0.3229,-0.9107,-1.2073,0.4895,0.3316,
1.012195,-0.0612,0.2598,0.7909,0.1192,-0.5061,-1.5405,-1.2073,0.4895,0.3316,
1.014569,-0.0612,0.2598,0.7909,0.1192,-0.5061,-1.5405,-1.3777,0.3820,0.3279,
1.021541,-0.0612,0.2598,0.7909,0.1192,-0.5061,-1.5405,-1.5707,0.2885,0.3548,
1.029992,-0.0346,0.2811,0.8914,0.1192,-0.5061,-1.5405,-1.5707,0.2885,0.3548,
1.032604,-0.0346,0.2811,0.8914,0.0237,-0.1927,-0.6110,-1.5707,0.2885,0.3548,
1.034532,-0.0346,0.2811,0.8914,0.0237,-0.1927,-0.6110,-1.7473,0.1926,0.3749,
1.043367,-0.0346,0.2811,0.8914,0.0237,-0.1927,-0.6110,-1.8768,0.0888,0.3829,
1.049772,0.0579,0.2637,0.9852,0.0237,-0.1927,-0.6110,-1.8768,0.0888,0.3829,
1.052142,0.0579,0.2637,0.9852,0.0116,0.0527,0.1968,-1.8768,0.0888,0.3829,
1.054046,0.0579,0.2637,0.9852,0.0116,0.0527,0.1968,-1.9256,-0.0016,0.3584,
1.061584,0.0579,0.2637,0.9852,0.0116,0.0527,0.1968,-1.8853,-0.0835,0.3053,
1.069811,-0.0053,0.1910,0.9268,0.0116,0.0527,0.1968,-1.8853,-0.0835,0.3053,
1.072035,-0.0053,0.1910,0.9268,0.0030,-0.1076,-0.5221,-1.8853,-0.0835,0.3053,
1.074637,-0.0053,0.1910,0.9268,0.0030,-0.1076,-0.5221,-1.8059,-0.1941,0.2705,
1.081559,-0.0053,0.1910,0.9268,0.0030,-0.1076,-0.5221,-1.7424,-0.5294,0.3816,
1.090247,-0.0308,0.1473,0.8225,0.0030,-0.1076,-0.5221,-1.7424,-0.5294,0.3816,
1.092420,-0.0308,0.1473,0.8225,-0.3270,-0.1974,-1.6083,-1.7424,-0.5294,0.3816,
1.094442,-0.0308,0.1473,0.8225,-0.3270,-0.1974,-1.6083,-1.8187,-0.8281,0.5191,
1.101520,-0.0308,0.1473,0.8225,-0.3270,-0.1974,-1.6083,-1.9275,-1.1391,0.7133,
1.109885,-0.0454,0.1018,0.8705,-0.3270,-0.1974,-1.6083,-1.9275,-1.1391,0.7133,
1.112027,-0.0454,0.1018,0.8705,-0.6710,-0.2869,-1.1891,-1.9275,-1.1391,0.7133,
1.114249,-0.0454,0.1018,0.8705,-0.6710,-0.2869,-1.1891,-2.0264,-1.3962,0.9418,
1.121443,-0.0454,0.1018,0.8705,-0.6710,-0.2869,-1.1891,-2.0930,-1.5453,1.1324,
1.129772,-0.0164,0.0763,0.9523,-0.6710,-0.2869,-1.1891,-2.0930,-1.5453,1.1324,
1.132160,-0.0164,0.0763,0.9523,-0.6770,-0.1406,-0.4200,-2.0930,-1.5453,1.1324,
1.134229,-0.0164,0.0763,0.9523,-0.6770,-0.1406,-0.4200,-2.1504,-1.7163,1.2265,
1.143127,-0.0164,0.0763,0.9523,-0.6770,-0.1406,-0.4200,-2.1907,-1.8263,1.2711,
1.149703,-0.0500,0.0831,0.9308,-0.6770,-0.1406,-0.4200,-2.1907,-1.8263,1.2711,
1.151665,-0.0500,0.0831,0.9308,-1.3278,0.3367,-0.6372,-2.1907,-1.8263,1.2711,
1.153698,-0.0500,0.0831,0.9308,-1.3278,0.3367,-0.6372,-2.2042,-1.7524,1.3016,
1.161720,-0.0500,0.0831,0.9308,-1.3278,0.3367,-0.6372,-2.2598,-1.6736,1.3468,
1.169707,-0.2039,-0.0473,0.8540,-1.3278,0.3367,-0.6372,-2.2598,-1.6736,1.3468,
1.171298,-0.2039,-0.0473,0.8540,-3.0982,-0.5091,-1.3757,-2.2598,-1.6736,1.3468,
1.173787,-0.2039,-0.0473,0.8540,-3.0982,-0.5091,-1.3757,-2.3960,-1.7609,1.4727,
1.181567,-0.2039,-0.0473,0.8540,-3.0982,-0.5091,-1.3757,-2.5383,-1.9564,1.7420,
1.189856,-0.2294,-0.1284,0.8949,-3.0982,-0.5091,-1.3757,-2.5383,-1.9564,1.7420,
1.192494,-0.2294,-0.1284,0.8949,-3.5942,-0.8104,-0.9335,-2.5383,-1.9564,1.7420,
1.194818,-0.2294,-0.1284,0.8949,-3.5942,-0.8104,-0.9335,-2.6300,-2.2233,2.1244,
1.201606,-0.2294,-0.1284,0.8949,-3.5942,-0.8104,-0.9335,-2.6526,-2.5440,2.5270,
1.210492,-0.0370,-0.1202,1.0767,-3.5942,-0.8104,-0.9335,-2.6526,-2.5440,2.5270,
1.212854,-0.0370,-0.1202,1.0767,-2.0244,-0.1811,0.9380,-2.6526,-2.5440,2.5270,
1.214892,-0.0370,-0.1202,1.0767,-2.0244,-0.1811,0.9380,-2.5780,-2.8422,2.8544,
1.221269,-0.0370,-0.1202,1.0767,-2.0244,-0.1811,0.9380,-2.4070,-2.9625,3.0713,
1.229931,0.2708,-0.0894,1.1567,-2.0244,-0.1811,0.9380,-2.4070,-2.9625,3.0713,
1.231745,0.2708,-0.0894,1.1567,0.5982,0.6613,1.8707,-2.4070,-2.9625,3.0713,
1.233163,0.2708,-0.0894,1.1567,0.5982,0.6613,1.8707,-2.2042,-2.8110,3.0988,
1.242430,0.2708,-0.0894,1.1567,0.5982,0.6613,1.8707,-2.0289,-2.3724,2.8984,
1.249430,0.5044,-0.0605,1.0460,0.5982,0.6613,1.8707,-2.0289,-2.3724,2.8984,
1.251605,0.5044,-0.0605,1.0460,2.5509,1.4123,0.9540,-2.0289,-2.3724,2.8984,
1.253111,0.5044,-0.0605,1.0460,2.5509,1.4123,0.9540,-1.9378,-1.8556,2.5166,
1.261239,0.5044,-0.0605,1.0460,2.5509,1.4123,0.9540,-1.8896,-1.3565,2.0835,
1.270378,0.4907,-0.0552,0.9551,2.5509,1.4123,0.9540,-1.8896,-1.3565,2.0835,
1.272180,0.4907,-0.0552,0.9551,2.2341,1.8523,0.2052,-1.8896,-1.3565,2.0835,
1.273954,0.4907,-0.0552,0.9551,2.2341,1.8523,0.2052,-1.8181,-0.7286,1.5166,
1.281238,0.4907,-0.0552,0.9551,2.2341,1.8523,0.2052,-1.7772,-0.6925,1.3847,
1.293186,0.5405,-0.0529,0.9527,2.2341,1.8523,0.2052,-1.7772,-0.6925,1.3847,
1.294577,0.5405,-0.0529,0.9527,2.6496,2.1863,0.2893,-1.7772,-0.6925,1.3847,
1.296084,0.5405,-0.0529,0.9527,2.6496,2.1863,0.2893,-1.6788,-0.8086,1.3096,
1.301425,0.5405,-0.0529,0.9527,2.6496,2.1863,0.2893,-1.5298,-1.0829,1.3016,
1.309666,0.5883,-0.0936,0.8477,2.6496,2.1863,0.2893,-1.5298,-1.0829,1.3016,
1.311519,0.5883,-0.0936,0.8477,2.9787,2.0504,-0.6140,-1.5298,-1.0829,1.3016,
1.313361,0.5883,-0.0936,0.8477,2.9787,2.0504,-0.6140,-1.3795,-1.5263,1.3413,
1.320856,0.5883,-0.0936,0.8477,2.9787,2.0504,-0.6140,-1.2592,-2.0083,1.4116,
1.328995,0.6758,-0.0982,0.7973,2.9787,2.0504,-0.6140,-1.2592,-2.0083,1.4116,
1.330435,0.6758,-0.0982,0.7973,3.5441,2.2182,-0.9374,-1.2592,-2.0083,1.4116,
1.332313,0.6758,-0.0982,0.7973,3.5441,2.2182,-0.9374,-1.1932,-2.4500,1.4983,
1.341852,0.6758,-0.0982,0.7973,3.5441,2.2182,-0.9374,-1.1847,-2.8177,1.5136,
1.349023,0.7862,-0.0689,0.7275,3.5441,2.2182,-0.9374,-1.1847,-2.8177,1.5136,
1.350284,0.7862,-0.0689,0.7275,4.1865,2.7033,-1.3777,-1.1847,-2.8177,1.5136,
1.351402,0.7862,-0.0689,0.7275,4.1865,2.7033,-1.3777,-1.2134,-3.0321,1.4623,
1.360948,0.7862,-0.0689,0.7275,4.1865,2.7033,-1.3777,-1.2946,-3.1054,1.3590,
1.369235,0.8707,-0.0922,0.6580,4.1865,2.7033,-1.3777,-1.2946,-3.1054,1.3590,
1.370522,0.8707,-0.0922,0.6580,4.5026,2.6781,-1.7425,-1.2946,-3.1054,1.3590,
1.371705,0.8707,-0.0922,0.6580,4.5026,2.6781,-1.7425,-1.4461,-3.0993,1.1990,
1.380798,0.8707,-0.0922,0.6580,4.5026,2.6781,-1.7425,-1.6452,-3.0443,1.0017,
1.389064,1.1122,-0.1097,0.6845,4.5026,2.6781,-1.7425,-1.6452,-3.0443,1.0017,
1.391958,1.1122,-0.1097,0.6845,6.3433,2.7316,-1.0966,-1.6452,-3.0443,1.0017,
1.394218,1.1122,-0.1097,0.6845,6.3433,2.7316,-1.0966,-1.8584,-3.0071,0.7653,
1.401534,1.1122,-0.1097,0.6845,6.3433,2.7316,-1.0966,-2.0637,-3.0596,0.4672,
1.410442,1.2693,-0.1251,0.6960,6.3433,2.7316,-1.0966,-2.0637,-3.0596,0.4672,
1.412954,1.2693,-0.1251,0.6960,7.3460,2.8154,-0.5205,-2.0637,-3.0596,0.4672,
1.415002,1.2693,-0.1251,0.6960,7.3460,2.8154,-0.5205,-2.2518,-3.1549,0.1391,
1.421298,1.2693,-0.1251,0.6960,7.3460,2.8154,-0.5205,-2.4436,-3.3315,-0.1522,
1.429775,1.2954,-0.1869,0.7262,7.3460,2.8154,-0.5205,-2.4436,-3.3315,-0.1522,
1.431840,1.2954,-0.1869,0.7262,7.0273,2.4161,0.3343,-2.4436,-3.3315,-0.1522,
1.433486,1.2954,-0.1869,0.7262,7.0273,2.4161,0.3343,-2.6153,-3.5092,-0.4051,
1.443701,1.2954,-0.1869,0.7262,7.0273,2.4161,0.3343,-2.7521,-3.5477,-0.6727,
1.449716,1.3078,-0.3101,0.6820,7.0273,2.4161,0.3343,-2.7521,-3.5477,-0.6727,
1.452185,1.3078,-0.3101,0.6820,6.5476,1.3717,0.5664,-2.7521,-3.5477,-0.6727,
1.453682,1.3078,-0.3101,0.6820,6.5476,1.3717,0.5664,-3.1156,-3.3852,-1.3221,
1.461346,1.3078,-0.3101,0.6820,6.5476,1.3717,0.5664,-3.3398,-3.2734,-1.5939,
1.469496,1.0615,-0.2982,0.6310,6.5476,1.3717,0.5664,-3.3398,-3.2734,-1.5939,
1.471847,1.0615,-0.2982,0.6310,3.5487,1.5567,0.7868,-3.3398,-3.2734,-1.5939,
1.474132,1.0615,-0.2982,0.6310,3.5487,1.5567,0.7868,-3.5340,-3.0871,-1.8162,
1.481556,1.0615,-0.2982,0.6310,3.5487,1.5567,0.7868,-3.6978,-2.8739,-2.0478,
1.490094,0.8117,-0.4421,0.5789,3.5487,1.5567,0.7868,-3.6978,-2.8739,-2.0478,
1.492130,0.8117,-0.4421,0.5789,0.5894,0.1435,0.9944,-3.6978,-2.8739,-2.0478,
1.494429,0.8117,-0.4421,0.5789,0.5894,0.1435,0.9944,-3.8120,-2.6858,-2.3031,
1.501602,0.8117,-0.4421,0.5789,0.5894,0.1435,0.9944,-3.8810,-2.5868,-2.3941,
1.510463,0.4501,-0.6806,0.6025,0.5894,0.1435,0.9944,-3.8810,-2.5868,-2.3941,
1.512619,0.4501,-0.6806,0.6025,-3.3802,-2.2624,1.8998,-3.8810,-2.5868,-2.3941,
1.514938,0.4501,-0.6806,0.6025,-3.3802,-2.2624,1.8998,-3.9280,-2.6045,-2.2561,
1.521469,0.4501,-0.6806,0.6025,-3.3802,-2.2624,1.8998,-3.9739,-2.6455,-1.9696,
1.529822,0.4752,-0.6092,0.6302,-3.3802,-2.2624,1.8998,-3.9739,-2.6455,-1.9696,
1.532497,0.4752,-0.6092,0.6302,-3.4687,-1.6191,2.8266,-3.9739,-2.6455,-1.9696,
1.534752,0.4752,-0.6092,0.6302,-3.4687,-1.6191,2.8266,-4.0240,-2.5966,-1.6220,
1.544032,0.4752,-0.6092,0.6302,-3.4687,-1.6191,2.8266,-4.0557,-2.4506,-1.3104,
1.549818,0.7374,-0.4371,0.7158,-3.4687,-1.6191,2.8266,-4.0557,-2.4506,-1.3104,
1.551869,0.7374,-0.4371,0.7158,-1.1313,0.0620,4.2893,-4.0557,-2.4506,-1.3104,
1.553273,0.7374,-0.4371,0.7158,-1.1313,0.0620,4.2893,-4.0417,-2.1806,-1.1388,
1.561204,0.7374,-0.4371,0.7158,-1.1313,0.0620,4.2893,-3.9965,-1.8391,-1.1192,
1.569544,0.9671,-0.3950,0.8860,-1.1313,0.0620,4.2893,-3.9965,-1.8391,-1.1192,
1.571694,0.9671,-0.3950,0.8860,0.9617,0.4614,6.4736,-3.9965,-1.8391,-1.1192,
1.573337,0.9671,-0.3950,0.8860,0.9617,0.4614,6.4736,-3.9122,-1.5349,-1.2390,
1.581154,0.9671,-0.3950,0.8860,0.9617,0.4614,6.4736,-3.7460,-1.3535,-1.4308,
1.589501,0.9197,-0.3221,0.9893,0.9617,0.4614,6.4736,-3.7460,-1.3535,-1.4308,
1.591314,0.9197,-0.3221,0.9893,0.3594,1.0744,7.8558,-3.7460,-1.3535,-1.4308,
1.592463,0.9197,-0.3221,0.9893,0.3594,1.0744,7.8558,-3.4345,-1.2710,-1.5511,
1.600717,0.9197,-0.3221,0.9893,0.3594,1.0744,7.8558,-2.9843,-1.2906,-1.4656,
1.608915,0.6307,-0.3677,0.9449,0.3594,1.0744,7.8558,-2.9843,-1.2906,-1.4656,
1.610487,0.6307,-0.3677,0.9449,-2.6020,0.4605,7.6715,-2.9843,-1.2906,-1.4656,
1.611756,0.6307,-0.3677,0.9449,-2.6020,0.4605,7.6715,-2.4418,-1.4830,-1.1315,
1.620673,0.6307,-0.3677,0.9449,-2.6020,0.4605,7.6715,-1.8853,-1.6766,-0.6244,
1.628852,0.7956,-0.3720,0.7140,-2.6020,0.4605,7.6715,-1.8853,-1.6766,-0.6244,
1.630256,0.7956,-0.3720,0.7140,-1.0663,0.3206,5.6221,-1.8853,-1.6766,-0.6244,
1.631318,0.7956,-0.3720,0.7140,-1.0663,0.3206,5.6221,-1.4308,-1.6754,0.0713,
1.641902,0.7956,-0.3720,0.7140,-1.0663,0.3206,5.6221,-1.0839,-1.1946,0.0780,
1.648950,1.1311,-0.3290,0.4727,-1.0663,0.3206,5.6221,-1.0839,-1.1946,0.0780,
1.652008,1.1311,-0.3290,0.4727,2.2121,0.7680,3.4059,-1.0839,-1.1946,0.0780,
1.654828,1.1311,-0.3290,0.4727,2.2121,0.7680,3.4059,-1.0845,-0.8862,-0.0411,
1.661516,1.1311,-0.3290,0.4727,2.2121,0.7680,3.4059,-1.1511,-0.6950,-0.2127,
1.669303,1.0589,-0.4428,0.4261,2.2121,0.7680,3.4059,-1.1511,-0.6950,-0.2127,
1.671371,1.0589,-0.4428,0.4261,1.4914,-0.3612,3.0014,-1.1511,-0.6950,-0.2127,
1.672923,1.0589,-0.4428,0.4261,1.4914,-0.3612,3.0014,-1.1566,-0.5074,-0.2952,
1.681091,1.0589,-0.4428,0.4261,1.4914,-0.3612,3.0014,-1.0741,-0.3651,-0.2842,
1.689299,1.0429,-0.4438,0.4427,1.4914,-0.3612,3.0014,-1.0741,-0.3651,-0.2842,
1.691365,1.0429,-0.4438,0.4427,1.3157,-0.4108,3.1725,-1.0741,-0.3651,-0.2842,
1.692978,1.0429,-0.4438,0.4427,1.3157,-0.4108,3.1725,-0.9299,-0.2643,-0.2347,
1.701211,1.0429,-0.4438,0.4427,1.3157,-0.4108,3.1725,-0.7460,-0.1397,-0.1797,
1.709448,1.1062,-0.4735,0.3237,1.3157,-0.4108,3.1725,-0.7460,-0.1397,-0.1797,
1.711589,1.1062,-0.4735,0.3237,1.9267,-0.7303,1.9799,-0.7460,-0.1397,-0.1797,
1.713174,1.1062,-0.4735,0.3237,1.9267,-0.7303,1.9799,-0.5542,-0.0261,-0.1474,
1.721039,1.1062,-0.4735,0.3237,1.9267,-0.7303,1.9799,-0.4052,0.0057,-0.0844,
1.730027,1.0831,-0.5547,0.0772,1.9267,-0.7303,1.9799,-0.4052,0.0057,-0.0844,
1.731735,1.0831,-0.5547,0.0772,1.7023,-1.5366,-0.4816,-0.4052,0.0057,-0.0844,
1.733119,1.0831,-0.5547,0.0772,1.7023,-1.5366,-0.4816,-0.3551,-0.0474,0.0316,
1.742732,1.0831,-0.5547,0.0772,1.7023,-1.5366,-0.4816,-0.3954,-0.1342,0.1129,
1.749054,1.1686,-0.5526,-0.0327,1.7023,-1.5366,-0.4816,-0.3954,-0.1342,0.1129,
1.750631,1.1686,-0.5526,-0.0327,2.5483,-1.4925,-1.5424,-0.3954,-0.1342,0.1129,
1.751877,1.1686,-0.5526,-0.0327,2.5483,-1.4925,-1.5424,-0.5096,-0.1409,0.0799,
1.761026,1.1686,-0.5526,-0.0327,2.5483,-1.4925,-1.5424,-0.6782,-0.0859,-0.0692,
1.769216,1.0327,-0.5134,-0.0035,2.5483,-1.4925,-1.5424,-0.6782,-0.0859,-0.0692,
1.770609,1.0327,-0.5134,-0.0035,1.2158,-1.0907,-1.1971,-0.6782,-0.0859,-0.0692,
1.771873,1.0327,-0.5134,-0.0035,1.2158,-1.0907,-1.1971,-0.8487,-0.0230,-0.2457,
1.780789,1.0327,-0.5134,-0.0035,1.2158,-1.0907,-1.1971,-0.9641,0.0521,-0.3471,
1.788972,0.9611,-0.5261,0.0553,1.2158,-1.0907,-1.1971,-0.9641,0.0521,-0.3471,
1.790207,0.9611,-0.5261,0.0553,0.4940,-1.2426,-0.5553,-0.9641,0.0521,-0.3471,
1.791492,0.9611,-0.5261,0.0553,0.4940,-1.2426,-0.5553,-1.0338,0.0674,-0.3868,
1.800757,0.9611,-0.5261,0.0553,0.4940,-1.2426,-0.5553,-1.0551,0.0063,-0.3899,
1.808882,0.9175,-0.5571,0.1858,0.4940,-1.2426,-0.5553,-1.0551,0.0063,-0.3899,
1.810226,0.9175,-0.5571,0.1858,0.0438,-1.5811,0.7890,-1.0551,0.0063,-0.3899,
1.811384,0.9175,-0.5571,0.1858,0.0438,-1.5811,0.7890,-0.9684,-0.1666,-0.3263,
1.820607,0.9175,-0.5571,0.1858,0.0438,-1.5811,0.7890,-0.6434,-0.4946,-0.1608,
1.828830,1.1650,-0.5448,-0.0975,0.0438,-1.5811,0.7890,-0.6434,-0.4946,-0.1608,
1.830199,1.1650,-0.5448,-0.0975,2.4476,-1.4790,-1.8637,-0.6434,-0.4946,-0.1608,
1.832877,1.1650,-0.5448,-0.0975,2.4476,-1.4790,-1.8637,-0.7577,-0.4366,-0.2989,
1.842560,1.1650,-0.5448,-0.0975,2.4476,-1.4790,-1.8637,-0.9855,-0.3278,-0.4632,
1.849105,0.9926,-0.6334,-0.0106,2.4476,-1.4790,-1.8637,-0.9855,-0.3278,-0.4632,
1.852097,0.9926,-0.6334,-0.0106,0.7311,-2.3804,-0.8719,-0.9855,-0.3278,-0.4632,
1.854012,0.9926,-0.6334,-0.0106,0.7311,-2.3804,-0.8719,-1.1944,-0.2759,-0.5438,
1.863567,0.9926,-0.6334,-0.0106,0.7311,-2.3804,-0.8719,-1.2690,-0.3620,-0.5438,
1.869527,0.8971,-0.5228,0.1870,0.7311,-2.3804,-0.8719,-1.2690,-0.3620,-0.5438,
1.871803,0.8971,-0.5228,0.1870,-0.2391,-1.3514,1.2094,-1.2690,-0.3620,-0.5438,
1.873089,0.8971,-0.5228,0.1870,-0.2391,-1.3514,1.2094,-1.1657,-0.4983,-0.4937,
1.880925,0.8971,-0.5228,0.1870,-0.2391,-1.3514,1.2094,-0.9611,-0.5991,-0.4516,
1.889011,0.9132,-0.4658,0.1065,-0.2391,-1.3514,1.2094,-0.9611,-0.5991,-0.4516,
1.890546,0.9132,-0.4658,0.1065,-0.1106,-0.8396,0.5870,-0.9611,-0.5991,-0.4516,
1.891984,0.9132,-0.4658,0.1065,-0.1106,-0.8396,0.5870,-0.7741,-0.6601,-0.4962,
1.900698,0.9132,-0.4658,0.1065,-0.1106,-0.8396,0.5870,-0.6727,-0.6583,-0.5890,
1.908859,0.9810,-0.4994,-0.1173,-0.1106,-0.8396,0.5870,-0.6727,-0.6583,-0.5890,
1.910098,0.9810,-0.4994,-0.1173,0.5196,-1.2356,-1.4358,-0.6727,-0.6583,-0.5890,
1.911484,0.9810,-0.4994,-0.1173,0.5196,-1.2356,-1.4358,-0.6874,-0.6418,-0.7332,
1.920638,0.9810,-0.4994,-0.1173,0.5196,-1.2356,-1.4358,-0.7796,-0.6608,-0.8609,
1.928775,0.8487,-0.5455,-0.2194,0.5196,-1.2356,-1.4358,-0.7796,-0.6608,-0.8609,
1.930023,0.8487,-0.5455,-0.2194,-0.8193,-1.7853,-2.2518,-0.7796,-0.6608,-0.8609,
1.930905,0.8487,-0.5455,-0.2194,-0.8193,-1.7853,-2.2518,-0.8768,-0.8122,-0.8792,
1.941578,0.8487,-0.5455,-0.2194,-0.8193,-1.7853,-2.2518,-0.9409,-1.0346,-0.8120,
1.949936,0.7280,-0.5596,-0.2657,-0.8193,-1.7853,-2.2518,-0.9409,-1.0346,-0.8120,
1.953048,0.7280,-0.5596,-0.2657,-2.0343,-2.0091,-2.4416,-0.9409,-1.0346,-0.8120,
1.955112,0.7280,-0.5596,-0.2657,-2.0343,-2.0091,-2.4416,-0.9770,-1.1953,-0.6935,
1.961664,0.7280,-0.5596,-0.2657,-2.0343,-2.0091,-2.4416,-0.9922,-1.2399,-0.5346,
1.969537,0.6341,-0.5071,-0.2791,-2.0343,-2.0091,-2.4416,-0.9922,-1.2399,-0.5346,
1.971969,0.6341,-0.5071,-0.2791,-2.9573,-1.5325,-2.2406,-0.9922,-1.2399,-0.5346,
1.973927,0.6341,-0.5071,-0.2791,-2.9573,-1.5325,-2.2406,-1.0124,-1.1934,-0.3654,
1.981460,0.6341,-0.5071,-0.2791,-2.9573,-1.5325,-2.2406,-1.0814,-1.0908,-0.1907,
1.989671,0.7272,-0.4753,-0.4055,-2.9573,-1.5325,-2.2406,-1.0814,-1.0908,-0.1907,
1.992317,0.7272,-0.4753,-0.4055,-2.0152,-1.2069,-3.1416,-1.0814,-1.0908,-0.1907,
1.994241,0.7272,-0.4753,-0.4055,-2.0152,-1.2069,-3.1416,-1.2518,-1.0560,-0.0282,
2.001472,0.7272,-0.4753,-0.4055,-2.0152,-1.2069,-3.1416,-1.7552,-1.1519,0.1202,
2.011074,0.9236,-0.4505,-0.3193,-2.0152,-1.2069,-3.1416,-1.7552,-1.1519,0.1202,
2.013041,0.9236,-0.4505,-0.3193,-0.0352,-0.9234,-1.9392,-1.7552,-1.1519,0.1202,
2.015126,0.9236,-0.4505,-0.3193,-0.0352,-0.9234,-1.9392,-1.9097,-1.1024,0.0414,
2.021219,0.9236,-0.4505,-0.3193,-0.0352,-0.9234,-1.9392,-1.9275,-1.0230,-0.0612,
2.031148,0.9027,-0.4656,-0.0866,-0.0352,-0.9234,-1.9392,-1.9275,-1.0230,-0.0612,
2.033080,0.9027,-0.4656,-0.0866,-0.1884,-1.0726,0.6854,-1.9275,-1.0230,-0.0612,
2.034754,0.9027,-0.4656,-0.0866,-0.1884,-1.0726,0.6854,-1.8578,-0.9234,-0.1052,
2.041305,0.9027,-0.4656,-0.0866,-0.1884,-1.0726,0.6854,-1.7888,-0.8416,-0.0814,
2.049578,0.6927,-0.4069,-0.0948,-0.1884,-1.0726,0.6854,-1.7888,-0.8416,-0.0814,
2.051563,0.6927,-0.4069,-0.0948,-2.2026,-0.5210,0.8901,-1.7888,-0.8416,-0.0814,
2.053238,0.6927,-0.4069,-0.0948,-2.2026,-0.5210,0.8901,-1.7631,-0.7402,-0.0289,
2.061353,0.6927,-0.4069,-0.0948,-2.2026,-0.5210,0.8901,-1.7674,-0.5587,0.0249,
2.069436,0.6265,-0.3404,-0.0644,-2.2026,-0.5210,0.8901,-1.7674,-0.5587,0.0249,
2.071411,0.6265,-0.3404,-0.0644,-2.8097,0.1149,1.4095,-1.7674,-0.5587,0.0249,
2.073194,0.6265,-0.3404,-0.0644,-2.8097,0.1149,1.4095,-1.7631,-0.3853,0.0762,
2.081792,0.6265,-0.3404,-0.0644,-2.8097,0.1149,1.4095,-1.6990,-0.3101,0.1361,
2.089761,0.5496,-0.3139,0.0370,-2.8097,0.1149,1.4095,-1.6990,-0.3101,0.1361,
2.092033,0.5496,-0.3139,0.0370,-3.5293,0.3796,2.5417,-1.6990,-0.3101,0.1361,
2.094409,0.5496,-0.3139,0.0370,-3.5293,0.3796,2.5417,-1.5432,-0.2423,0.2198,
2.101786,0.5496,-0.3139,0.0370,-3.5293,0.3796,2.5417,-1.3166,-0.1336,0.3481,
2.111608,0.6248,-0.3246,-0.0132,-3.5293,0.3796,2.5417,-1.3166,-0.1336,0.3481,
2.113938,0.6248,-0.3246,-0.0132,-2.7564,0.3172,2.1264,-1.3166,-0.1336,0.3481,
2.116370,0.6248,-0.3246,-0.0132,-2.7564,0.3172,2.1264,-1.0777,-0.0542,0.4989,
2.121416,0.6248,-0.3246,-0.0132,-2.7564,0.3172,2.1264,-0.8957,0.0118,0.6089,
2.129829,0.8146,-0.2686,-0.2084,-2.7564,0.3172,2.1264,-0.8957,0.0118,0.6089,
2.132440,0.8146,-0.2686,-0.2084,-0.8551,0.9401,0.2572,-0.8957,0.0118,0.6089,
2.134655,0.8146,-0.2686,-0.2084,-0.8551,0.9401,0.2572,-0.8310,0.0509,0.6413,
2.141553,0.8146,-0.2686,-0.2084,-0.8551,0.9401,0.2572,-0.8481,0.0033,0.6193,
2.149814,0.8476,-0.2642,-0.2586,-0.8551,0.9401,0.2572,-0.8481,0.0033,0.6193,
2.152678,0.8476,-0.2642,-0.2586,-0.4889,1.0586,-0.1890,-0.8481,0.0033,0.6193,
2.154535,0.8476,-0.2642,-0.2586,-0.4889,1.0586,-0.1890,-0.8627,-0.1171,0.5777,
2.161950,0.8476,-0.2642,-0.2586,-0.4889,1.0586,-0.1890,-0.8120,-0.2075,0.5539,
2.169730,0.8663,-0.2703,-0.2877,-0.4889,1.0586,-0.1890,-0.8120,-0.2075,0.5539,
2.171930,0.8663,-0.2703,-0.2877,-0.2583,1.0559,-0.3875,-0.8120,-0.2075,0.5539,
2.174179,0.8663,-0.2703,-0.2877,-0.2583,1.0559,-0.3875,-0.7131,-0.2014,0.5423,
2.181498,0.8663,-0.2703,-0.2877,-0.2583,1.0559,-0.3875,-0.6495,-0.1922,0.5325,
2.189737,0.9749,-0.3159,-0.4275,-0.2583,1.0559,-0.3875,-0.6495,-0.1922,0.5325,
2.192542,0.9749,-0.3159,-0.4275,0.8535,0.6625,-1.6705,-0.6495,-0.1922,0.5325,
2.194867,0.9749,-0.3159,-0.4275,0.8535,0.6625,-1.6705,-0.7784,-0.3223,0.4861,
2.201532,0.9749,-0.3159,-0.4275,0.8535,0.6625,-1.6705,-0.8768,-0.4518,0.4433,
2.212342,0.8838,-0.3120,-0.3743,0.8535,0.6625,-1.6705,-0.8768,-0.4518,0.4433,
2.214813,0.8838,-0.3120,-0.3743,0.0129,0.7285,-1.0132,-0.8768,-0.4518,0.4433,
2.216591,0.8838,-0.3120,-0.3743,0.0129,0.7285,-1.0132,-0.9092,-0.4922,0.4195,
2.221407,0.8838,-0.3120,-0.3743,0.0129,0.7285,-1.0132,-0.8676,-0.4561,0.4220,
2.230015,0.7660,-0.3022,-0.2981,0.0129,0.7285,-1.0132,-0.8676,-0.4561,0.4220,
2.233060,0.7660,-0.3022,-0.2981,-1.0858,0.8392,-0.1125,-0.8676,-0.4561,0.4220,
2.234968,0.7660,-0.3022,-0.2981,-1.0858,0.8392,-0.1125,-0.8029,-0.3657,0.4678,
2.241626,0.7660,-0.3022,-0.2981,-1.0858,0.8392,-0.1125,-0.7619,-0.2924,0.5209,
2.249927,0.8046,-0.3411,-0.4376,-1.0858,0.8392,-0.1125,-0.7619,-0.2924,0.5209,
2.252533,0.8046,-0.3411,-0.4376,-0.6519,0.4883,-1.3531,-0.7619,-0.2924,0.5209,
2.254670,0.8046,-0.3411,-0.4376,-0.6519,0.4883,-1.3531,-0.7558,-0.2845,0.5197,
2.261744,0.8046,-0.3411,-0.4376,-0.6519,0.4883,-1.3531,-0.7735,-0.3034,0.5038,
2.270102,0.7096,-0.3755,-0.3528,-0.6519,0.4883,-1.3531,-0.7735,-0.3034,0.5038,
2.272777,0.7096,-0.3755,-0.3528,-1.5253,0.1867,-0.4039,-0.7735,-0.3034,0.5038,
2.275163,0.7096,-0.3755,-0.3528,-1.5253,0.1867,-0.4039,-0.7638,-0.2802,0.5228,
2.281533,0.7096,-0.3755,-0.3528,-1.5253,0.1867,-0.4039,-0.6825,-0.1965,0.6028,
2.289734,0.8873,-0.4146,-0.2245,-1.5253,0.1867,-0.4039,-0.6825,-0.1965,0.6028,
2.293093,0.8873,-0.4146,-0.2245,0.2743,-0.1480,0.9498,-0.6825,-0.1965,0.6028,
2.295199,0.8873,-0.4146,-0.2245,0.2743,-0.1480,0.9498,-0.5805,-0.0975,0.6883,
2.301492,0.8873,-0.4146,-0.2245,0.2743,-0.1480,0.9498,-0.4089,-0.0523,0.6859,
2.311445,1.1559,-0.4004,-0.1287,0.2743,-0.1480,0.9498,-0.4089,-0.0523,0.6859,
2.313616,1.1559,-0.4004,-0.1287,2.9547,0.0648,1.9233,-0.4089,-0.0523,0.6859,
2.315695,1.1559,-0.4004,-0.1287,2.9547,0.0648,1.9233,-0.1450,0.0918,0.6162,
2.321225,1.1559,-0.4004,-0.1287,2.9547,0.0648,1.9233,0.0762,0.2042,0.4965,
2.329695,1.3583,-0.4952,-0.3005,2.9547,0.0648,1.9233,0.0762,0.2042,0.4965,
2.332233,1.3583,-0.4952,-0.3005,4.9564,-0.7906,0.1943,0.0762,0.2042,0.4965,
2.334838,1.3583,-0.4952,-0.3005,4.9564,-0.7906,0.1943,0.1202,0.2409,0.3364,
2.341307,1.3583,-0.4952,-0.3005,4.9564,-0.7906,0.1943,-0.0222,0.3166,0.1007,
2.349721,1.1327,-0.4400,-0.1871,4.9564,-0.7906,0.1943,-0.0222,0.3166,0.1007,
2.352127,1.1327,-0.4400,-0.1871,2.7252,-0.2286,1.2233,-0.0222,0.3166,0.1007,
2.353780,1.1327,-0.4400,-0.1871,2.7252,-0.2286,1.2233,-0.2024,0.4736,-0.1871,
2.362322,1.1327,-0.4400,-0.1871,2.7252,-0.2286,1.2233,-0.3074,0.7271,-0.4442,
2.369748,0.9721,-0.4156,-0.2002,2.7252,-0.2286,1.2233,-0.3074,0.7271,-0.4442,
2.372433,0.9721,-0.4156,-0.2002,1.0738,-0.0700,0.9878,-0.3074,0.7271,-0.4442,
2.374777,0.9721,-0.4156,-0.2002,1.0738,-0.0700,0.9878,-0.3759,1.0937,-0.7423,
2.381367,0.9721,-0.4156,-0.2002,1.0738,-0.0700,0.9878,-0.3850,1.1022,-0.7613,
2.389714,0.8531,-0.3932,-0.3519,1.0738,-0.0700,0.9878,-0.3850,1.1022,-0.7613,
2.392208,0.8531,-0.3932,-0.3519,-0.2179,-0.0042,-0.6626,-0.3850,1.1022,-0.7613,
2.393850,0.8531,-0.3932,-0.3519,-0.2179,-0.0042,-0.6626,-0.3838,0.9635,-0.7002,
2.401366,0.8531,-0.3932,-0.3519,-0.2179,-0.0042,-0.6626,-0.3814,0.7192,-0.5829,
2.411804,0.8054,-0.4518,-0.5108,-0.2179,-0.0042,-0.6626,-0.3814,0.7192,-0.5829,
2.413813,0.8054,-0.4518,-0.5108,-0.7783,-0.7087,-2.3314,-0.3814,0.7192,-0.5829,
2.415907,0.8054,-0.4518,-0.5108,-0.7783,-0.7087,-2.3314,-0.3704,0.3850,-0.4198,
2.421157,0.8054,-0.4518,-0.5108,-0.7783,-0.7087,-2.3314,-0.3508,0.0161,-0.2182,
2.429654,0.8178,-0.4718,-0.4634,-0.7783,-0.7087,-2.3314,-0.3508,0.0161,-0.2182,
2.433132,0.8178,-0.4718,-0.4634,-0.6818,-0.9704,-1.8585,-0.3508,0.0161,-0.2182,
2.434813,0.8178,-0.4718,-0.4634,-0.6818,-0.9704,-1.8585,-0.3520,-0.2093,-0.0350,
2.441250,0.8178,-0.4718,-0.4634,-0.6818,-0.9704,-1.8585,-0.3942,-0.2588,0.0518,
2.449766,0.8923,-0.4085,-0.3116,-0.6818,-0.9704,-1.8585,-0.3942,-0.2588,0.0518,
2.452364,0.8923,-0.4085,-0.3116,0.0675,-0.3628,-0.2928,-0.3942,-0.2588,0.0518,
2.454058,0.8923,-0.4085,-0.3116,0.0675,-0.3628,-0.2928,-0.4376,-0.1397,0.0298,
2.461353,0.8923,-0.4085,-0.3116,0.0675,-0.3628,-0.2928,-0.4589,-0.0120,-0.0356,
2.469529,0.8447,-0.3991,-0.3395,0.0675,-0.3628,-0.2928,-0.4589,-0.0120,-0.0356,
2.471989,0.8447,-0.3991,-0.3395,-0.3897,-0.2897,-0.5109,-0.4589,-0.0120,-0.0356,
2.473805,0.8447,-0.3991,-0.3395,-0.3897,-0.2897,-0.5109,-0.4669,0.0143,-0.0734,
2.481574,0.8447,-0.3991,-0.3395,-0.3897,-0.2897,-0.5109,-0.4932,-0.0554,-0.0447,
2.490154,0.8129,-0.4024,-0.3580,-0.3897,-0.2897,-0.5109,-0.4932,-0.0554,-0.0447,
2.492594,0.8129,-0.4024,-0.3580,-0.6973,-0.3514,-0.6442,-0.4932,-0.0554,-0.0447,
2.494768,0.8129,-0.4024,-0.3580,-0.6973,-0.3514,-0.6442,-0.5402,-0.1721,0.0280,
2.501458,0.8129,-0.4024,-0.3580,-0.6973,-0.3514,-0.6442,-0.5683,-0.1995,0.0835,
2.512337,0.7981,-0.3832,-0.3552,-0.6973,-0.3514,-0.6442,-0.5683,-0.1995,0.0835,
2.514640,0.7981,-0.3832,-0.3552,-0.8205,-0.1779,-0.5346,-0.5683,-0.1995,0.0835,
2.516722,0.7981,-0.3832,-0.3552,-0.8205,-0.1779,-0.5346,-0.5964,-0.1543,0.1110,
2.521340,0.7981,-0.3832,-0.3552,-0.8205,-0.1779,-0.5346,-0.6459,-0.1067,0.1404,
2.529781,0.8474,-0.3468,-0.3025,-0.8205,-0.1779,-0.5346,-0.6459,-0.1067,0.1404,
2.532263,0.8474,-0.3468,-0.3025,-0.3177,0.1679,0.0545,-0.6459,-0.1067,0.1404,
2.534437,0.8474,-0.3468,-0.3025,-0.3177,0.1679,0.0545,-0.6862,-0.0255,0.1233,
2.541678,0.8474,-0.3468,-0.3025,-0.3177,0.1679,0.0545,-0.7192,0.0521,0.0927,
2.549923,0.6889,-0.3263,-0.2597,-0.3177,0.1679,0.0545,-0.7192,0.0521,0.0927,
2.552541,0.6889,-0.3263,-0.2597,-1.8603,0.3497,0.5246,-0.7192,0.0521,0.0927,
2.554788,0.6889,-0.3263,-0.2597,-1.8603,0.3497,0.5246,-0.7497,-0.0737,0.1935,
2.562266,0.6889,-0.3263,-0.2597,-1.8603,0.3497,0.5246,-0.7448,-0.2325,0.3395,
2.569714,0.5956,-0.3220,-0.2469,-1.8603,0.3497,0.5246,-0.7448,-0.2325,0.3395,
2.571628,0.5956,-0.3220,-0.2469,-2.7425,0.3981,0.7324,-0.7448,-0.2325,0.3395,
2.573255,0.5956,-0.3220,-0.2469,-2.7425,0.3981,0.7324,-0.7179,-0.3883,0.5124,
2.582265,0.5956,-0.3220,-0.2469,-2.7425,0.3981,0.7324,-0.6367,-0.5233,0.7231,
2.589319,0.2537,-0.1858,-0.1003,-2.7425,0.3981,0.7324,-0.6367,-0.5233,0.7231,
2.591363,0.2537,-0.1858,-0.1003,-6.0153,1.8049,2.2953,-0.6367,-0.5233,0.7231,
2.593216,0.2537,-0.1858,-0.1003,-6.0153,1.8049,2.2953,-0.5457,-0.8507,1.0121,
2.601098,0.2537,-0.1858,-0.1003,-6.0153,1.8049,2.2953,-0.4235,-1.2289,1.5429,
2.610719,0.6491,-0.2158,-0.1677,-6.0153,1.8049,2.2953,-0.4235,-1.2289,1.5429,
2.612421,0.6491,-0.2158,-0.1677,-1.9771,1.6940,1.8391,-0.4235,-1.2289,1.5429,
2.613981,0.6491,-0.2158,-0.1677,-1.9771,1.6940,1.8391,-0.1590,-1.2160,2.0847,
2.620988,0.6491,-0.2158,-0.1677,-1.9771,1.6940,1.8391,0.1324,-1.0511,2.2558,
2.629514,1.2083,-0.3698,-0.6263,-1.9771,1.6940,1.8391,0.1324,-1.0511,2.2558,
2.632179,1.2083,-0.3698,-0.6263,3.7472,0.5224,-2.4687,0.1324,-1.0511,2.2558,
2.633355,1.2083,-0.3698,-0.6263,3.7472,0.5224,-2.4687,0.3541,-0.6834,2.0029,
2.641136,1.2083,-0.3698,-0.6263,3.7472,0.5224,-2.4687,0.3535,-0.2368,1.5539,
2.649352,1.0514,-0.3713,-0.9179,3.7472,0.5224,-2.4687,0.3535,-0.2368,1.5539,
2.650961,1.0514,-0.3713,-0.9179,2.3851,0.7650,-5.2436,0.3535,-0.2368,1.5539,
2.652332,1.0514,-0.3713,-0.9179,2.3851,0.7650,-5.2436,0.1018,0.0705,1.2143,
2.661174,1.0514,-0.3713,-0.9179,2.3851,0.7650,-5.2436,-0.2195,0.2574,1.0493,
2.669253,1.1407,-0.3826,-0.4474,2.3851,0.7650,-5.2436,-0.2195,0.2574,1.0493,
2.671388,1.1407,-0.3826,-0.4474,3.3267,0.7697,-0.6302,-0.2195,0.2574,1.0493,
2.673558,1.1407,-0.3826,-0.4474,3.3267,0.7697,-0.6302,-0.3252,0.4303,0.9406,
2.681596,1.1407,-0.3826,-0.4474,3.3267,0.7697,-0.6302,-0.1266,0.6062,0.8239,
2.689716,1.0191,-0.3650,-0.0805,3.3267,0.7697,-0.6302,-0.1266,0.6062,0.8239,
2.692918,1.0191,-0.3650,-0.0805,2.1387,1.0059,2.8942,-0.1266,0.6062,0.8239,
2.695226,1.0191,-0.3650,-0.0805,2.1387,1.0059,2.8942,0.2161,0.7723,0.7677,
2.701403,1.0191,-0.3650,-0.0805,2.1387,1.0059,2.8942,0.5746,0.8640,0.8044,
2.712678,0.9846,-0.3797,-0.0862,2.1387,1.0059,2.8942,0.5746,0.8640,0.8044,
2.715212,0.9846,-0.3797,-0.0862,1.7674,0.9587,2.6421,0.5746,0.8640,0.8044,
2.717669,0.9846,-0.3797,-0.0862,1.7674,0.9587,2.6421,0.8465,0.8536,0.8429,
2.721403,0.9846,-0.3797,-0.0862,1.7674,0.9587,2.6421,0.9943,0.8499,0.7842,
2.729744,0.9111,-0.4196,-0.2676,1.7674,0.9587,2.6421,0.9943,0.8499,0.7842,
2.732390,0.9111,-0.4196,-0.2676,1.0257,0.7037,0.6198,0.9943,0.8499,0.7842,
2.734819,0.9111,-0.4196,-0.2676,1.0257,0.7037,0.6198,1.0493,0.8982,0.6425,
2.741656,0.9111,-0.4196,-0.2676,1.0257,0.7037,0.6198,0.7035,1.0747,0.4666,
2.749868,0.7669,-0.5801,-0.2336,1.0257,0.7037,0.6198,0.7035,1.0747,0.4666,
2.752699,0.7669,-0.5801,-0.2336,-0.4147,-0.7508,0.7007,0.7035,1.0747,0.4666,
2.754891,0.7669,-0.5801,-0.2336,-0.4147,-0.7508,0.7007,0.5911,1.3496,0.3804,
2.762497,0.7669,-0.5801,-0.2336,-0.4147,-0.7508,0.7007,0.5985,1.4486,0.2552,
2.769792,0.8592,-0.6111,-0.3367,-0.4147,-0.7508,0.7007,0.5985,1.4486,0.2552,
2.772341,0.8592,-0.6111,-0.3367,0.4365,-0.9795,-0.5915,0.5985,1.4486,0.2552,
2.774530,0.8592,-0.6111,-0.3367,0.4365,-0.9795,-0.5915,0.5807,1.1792,0.1226,
2.781686,0.8592,-0.6111,-0.3367,0.4365,-0.9795,-0.5915,0.4067,0.7412,0.1373,
2.789895,0.8646,-0.7730,-0.4578,0.4365,-0.9795,-0.5915,0.4067,0.7412,0.1373,
2.792771,0.8646,-0.7730,-0.4578,0.4541,-2.5198,-1.9750,0.4067,0.7412,0.1373,
2.795110,0.8646,-0.7730,-0.4578,0.4541,-2.5198,-1.9750,0.2906,0.4382,0.2283,
2.801694,0.8646,-0.7730,-0.4578,0.4541,-2.5198,-1.9750,0.2790,0.2274,0.2747,
2.812843,0.8793,-0.8655,-0.6325,0.4541,-2.5198,-1.9750,0.2790,0.2274,0.2747,
2.815304,0.8793,-0.8655,-0.6325,0.6237,-3.3613,-3.7356,0.2790,0.2274,0.2747,
2.817605,0.8793,-0.8655,-0.6325,0.6237,-3.3613,-3.7356,0.2319,0.0796,0.2864,
2.821409,0.8793,-0.8655,-0.6325,0.6237,-3.3613,-3.7356,0.1012,0.0466,0.2943,
2.829913,0.9154,-0.7942,-0.4786,0.6237,-3.3613,-3.7356,0.1012,0.0466,0.2943,
2.833084,0.9154,-0.7942,-0.4786,1.0259,-2.5941,-2.2175,0.1012,0.0466,0.2943,
2.836404,0.9154,-0.7942,-0.4786,1.0259,-2.5941,-2.2175,-0.0191,0.0228,0.2931,
2.841711,0.9154,-0.7942,-0.4786,1.0259,-2.5941,-2.2175,-0.0179,-0.0603,0.2363,
2.849856,0.9016,-0.7831,-0.3701,1.0259,-2.5941,-2.2175,-0.0179,-0.0603,0.2363,
2.852730,0.9016,-0.7831,-0.3701,0.9388,-2.4274,-1.1225,-0.0179,-0.0603,0.2363,
2.854771,0.9016,-0.7831,-0.3701,0.9388,-2.4274,-1.1225,0.0212,-0.1372,0.1721,
2.862446,0.9016,-0.7831,-0.3701,0.9388,-2.4274,-1.1225,-0.0008,-0.1721,0.1318,
2.869806,0.9286,-0.7606,-0.3461,0.9388,-2.4274,-1.1225,-0.0008,-0.1721,0.1318,
2.872085,0.9286,-0.7606,-0.3461,1.2428,-2.1677,-0.8457,-0.0008,-0.1721,0.1318,
2.874126,0.9286,-0.7606,-0.3461,1.2428,-2.1677,-0.8457,-0.0814,-0.1531,0.0921,
2.881490,0.9286,-0.7606,-0.3461,1.2428,-2.1677,-0.8457,-0.2085,-0.1201,-0.0044,
2.889708,0.9582,-0.7997,-0.4959,1.2428,-2.1677,-0.8457,-0.2085,-0.1201,-0.0044,
2.892967,0.9582,-0.7997,-0.4959,1.5617,-2.5355,-2.2570,-0.2085,-0.1201,-0.0044,
2.895310,0.9582,-0.7997,-0.4959,1.5617,-2.5355,-2.2570,-0.4107,-0.1269,-0.1321,
2.901468,0.9582,-0.7997,-0.4959,1.5617,-2.5355,-2.2570,-0.6013,-0.1965,-0.1975,
2.913200,0.7468,-0.6547,-0.3075,1.5617,-2.5355,-2.2570,-0.6013,-0.1965,-0.1975,
2.915677,0.7468,-0.6547,-0.3075,-0.5005,-1.1485,-0.3163,-0.6013,-0.1965,-0.1975,
2.918204,0.7468,-0.6547,-0.3075,-0.5005,-1.1485,-0.3163,-0.6367,-0.3058,-0.1559,
2.921464,0.7468,-0.6547,-0.3075,-0.5005,-1.1485,-0.3163,-0.1761,-0.3095,-0.2023,
2.929697,0.4994,-0.5712,-0.3087,-0.5005,-1.1485,-0.3163,-0.1761,-0.3095,-0.2023,
2.931787,0.4994,-0.5712,-0.3087,-2.9001,-0.3487,-0.2190,-0.1761,-0.3095,-0.2023,
2.933798,0.4994,-0.5712,-0.3087,-2.9001,-0.3487,-0.2190,-0.0228,-0.0994,-0.0203,
2.941199,0.4994,-0.5712,-0.3087,-2.9001,-0.3487,-0.2190,0.0933,-0.3828,0.7341,
2.949654,0.6933,-0.6433,-0.3338,-2.9001,-0.3487,-0.2190,0.0933,-0.3828,0.7341,
2.951801,0.6933,-0.6433,-0.3338,-0.9229,-0.9695,-0.4165,0.0933,-0.3828,0.7341,
2.953533,0.6933,-0.6433,-0.3338,-0.9229,-0.9695,-0.4165,0.3022,-0.8984,1.0707,
2.961921,0.6933,-0.6433,-0.3338,-0.9229,-0.9695,-0.4165,0.4586,-0.5966,0.8703,
2.969396,0.9260,-0.7431,-0.5388,-0.9229,-0.9695,-0.4165,0.4586,-0.5966,0.8703,
2.971495,0.9260,-0.7431,-0.5388,1.5221,-1.7638,-2.3360,0.4586,-0.5966,0.8703,
2.973490,0.9260,-0.7431,-0.5388,1.5221,-1.7638,-2.3360,0.3040,-0.0694,0.7292,
2.981311,0.9260,-0.7431,-0.5388,1.5221,-1.7638,-2.3360,0.1018,-0.1134,0.6999,
2.989568,0.8662,-0.5178,-0.2036,1.5221,-1.7638,-2.3360,0.1018,-0.1134,0.6999,
2.991448,0.8662,-0.5178,-0.2036,1.0221,0.5638,0.9423,0.1018,-0.1134,0.6999,
2.993443,0.8662,-0.5178,-0.2036,1.0221,0.5638,0.9423,0.1544,-0.1977,0.6236,
3.001336,0.8662,-0.5178,-0.2036,1.0221,0.5638,0.9423,0.1764,-0.2533,0.5796,
3.011903,0.8397,-0.5316,-0.2187,1.0221,0.5638,0.9423,0.1764,-0.2533,0.5796,
3.014105,0.8397,-0.5316,-0.2187,0.8430,0.5265,0.8091,0.1764,-0.2533,0.5796,
3.015991,0.8397,-0.5316,-0.2187,0.8430,0.5265,0.8091,0.0951,-0.1733,0.5704,
3.021190,0.8397,-0.5316,-0.2187,0.8430,0.5265,0.8091,-0.0429,0.0204,0.5166,
3.030142,1.0151,-0.5063,-0.0391,0.8430,0.5265,0.8091,-0.0429,0.0204,0.5166,
3.032626,1.0151,-0.5063,-0.0391,2.6103,0.8424,2.5560,-0.0429,0.0204,0.5166,
3.034766,1.0151,-0.5063,-0.0391,2.6103,0.8424,2.5560,-0.1144,-0.0444,0.3841,
3.041481,1.0151,-0.5063,-0.0391,2.6103,0.8424,2.5560,0.0273,-0.1837,0.2546,
3.050252,0.9528,-0.5183,-0.3101,2.6103,0.8424,2.5560,0.0273,-0.1837,0.2546,
3.052683,0.9528,-0.5183,-0.3101,2.0187,0.7474,-0.0971,0.0273,-0.1837,0.2546,
3.054482,0.9528,-0.5183,-0.3101,2.0187,0.7474,-0.0971,0.1092,-0.2063,0.1373,
3.062425,0.9528,-0.5183,-0.3101,2.0187,0.7474,-0.0971,-0.1340,-0.0242,-0.0661,
3.069635,0.6993,-0.5621,-0.2640,2.0187,0.7474,-0.0971,-0.1340,-0.0242,-0.0661,
3.072031,0.6993,-0.5621,-0.2640,-0.4692,0.3097,0.3615,-0.1340,-0.0242,-0.0661,
3.074151,0.6993,-0.5621,-0.2640,-0.4692,0.3097,0.3615,-0.4290,0.2061,-0.2506,
3.081528,0.6993,-0.5621,-0.2640,-0.4692,0.3097,0.3615,-0.5585,0.3643,-0.3135,
3.089739,0.6252,-0.5934,-0.6610,-0.4692,0.3097,0.3615,-0.5585,0.3643,-0.3135,
3.092146,0.6252,-0.5934,-0.6610,-1.2460,-0.0731,-3.5046,-0.5585,0.3643,-0.3135,
3.094484,0.6252,-0.5934,-0.6610,-1.2460,-0.0731,-3.5046,-0.9482,0.5341,-0.3441,
3.101463,0.6252,-0.5934,-0.6610,-1.2460,-0.0731,-3.5046,-1.4088,0.9177,-0.3508,
3.114390,0.7019,-0.5286,-0.3700,-1.2460,-0.0731,-3.5046,-1.4088,0.9177,-0.3508,
3.116849,0.7019,-0.5286,-0.3700,-0.5756,0.4373,-0.6169,-1.4088,0.9177,-0.3508,
3.119671,0.7019,-0.5286,-0.3700,-0.5756,0.4373,-0.6169,-1.5164,0.6587,-0.3031,
3.122391,0.7019,-0.5286,-0.3700,-0.5756,0.4373,-0.6169,-1.4681,0.1169,-0.1950,
3.131110,0.8504,-0.4768,-0.7009,-0.5756,0.4373,-0.6169,-1.4681,0.1169,-0.1950,
3.133079,0.8504,-0.4768,-0.7009,0.8337,0.8021,-3.7156,-1.4681,0.1169,-0.1950,
3.135024,0.8504,-0.4768,-0.7009,0.8337,0.8021,-3.7156,-1.4430,-0.4469,-0.1296,
3.141398,0.8504,-0.4768,-0.7009,0.8337,0.8021,-3.7156,-0.1865,-0.4665,-0.0050,
3.149766,0.5854,-0.2829,-0.5393,0.8337,0.8021,-3.7156,-0.1865,-0.4665,-0.0050,
3.152305,0.5854,-0.2829,-0.5393,-1.7356,2.6109,-1.9152,-0.1865,-0.4665,-0.0050,
3.153931,0.5854,-0.2829,-0.5393,-1.7356,2.6109,-1.9152,0.4158,-0.7151,-0.1541,
3.162015,0.5854,-0.2829,-0.5393,-1.7356,2.6109,-1.9152,0.1367,-0.7493,-0.2591,
3.169425,0.3237,-0.3274,-0.0700,-1.7356,2.6109,-1.9152,0.1367,-0.7493,-0.2591,
3.171066,0.3237,-0.3274,-0.0700,-4.2679,2.1552,2.7851,0.1367,-0.7493,-0.2591,
3.172825,0.3237,-0.3274,-0.0700,-4.2679,2.1552,2.7851,0.0921,-0.5716,-0.1865,
3.181398,0.3237,-0.3274,-0.0700,-4.2679,2.1552,2.7851,0.2271,-0.4952,-0.0625,
3.189613,0.5965,-0.3128,-0.2706,-4.2679,2.1552,2.7851,0.2271,-0.4952,-0.0625,
3.191978,0.5965,-0.3128,-0.2706,-1.5720,2.2795,0.8952,0.2271,-0.4952,-0.0625,
3.194258,0.5965,-0.3128,-0.2706,-1.5720,2.2795,0.8952,0.2460,-0.4494,0.0127,
3.201577,0.5965,-0.3128,-0.2706,-1.5720,2.2795,0.8952,0.2155,-0.4292,0.0066,
3.212831,0.7119,-0.4005,-0.3396,-1.5720,2.2795,0.8952,0.2155,-0.4292,0.0066,
3.215317,0.7119,-0.4005,-0.3396,-0.4131,1.4246,0.2692,0.2155,-0.4292,0.0066,
3.217852,0.7119,-0.4005,-0.3396,-0.4131,1.4246,0.2692,0.1910,-0.4787,-0.0496,
3.221361,0.7119,-0.4005,-0.3396,-0.4131,1.4246,0.2692,0.1073,-0.5655,-0.1083,
3.229926,0.5150,-0.4047,-0.2090,-0.4131,1.4246,0.2692,0.1073,-0.5655,-0.1083,
3.233034,0.5150,-0.4047,-0.2090,-2.3160,1.3783,1.6118,0.1073,-0.5655,-0.1083,
3.235398,0.5150,-0.4047,-0.2090,-2.3160,1.3783,1.6118,0.0297,-0.6070,-0.1358,
3.241564,0.5150,-0.4047,-0.2090,-2.3160,1.3783,1.6118,0.0096,-0.5936,-0.0722,
3.249878,0.3546,-0.3936,-0.2089,-2.3160,1.3783,1.6118,0.0096,-0.5936,-0.0722,
3.252828,0.3546,-0.3936,-0.2089,-3.8541,1.4737,1.6993,0.0096,-0.5936,-0.0722,
3.254998,0.3546,-0.3936,-0.2089,-3.8541,1.4737,1.6993,0.0224,-0.6033,0.0976,
3.263063,0.3546,-0.3936,-0.2089,-3.8541,1.4737,1.6993,0.0682,-0.6589,0.3138,
3.269630,0.4121,-0.4846,-0.2598,-3.8541,1.4737,1.6993,0.0682,-0.6589,0.3138,
3.271782,0.4121,-0.4846,-0.2598,-3.2149,0.6227,1.2873,0.0682,-0.6589,0.3138,
3.273819,0.4121,-0.4846,-0.2598,-3.2149,0.6227,1.2873,0.1971,-0.6852,0.5228,
3.281663,0.4121,-0.4846,-0.2598,-3.2149,0.6227,1.2873,0.3498,-0.7060,0.6871,
3.289738,0.4275,-0.5691,-0.3274,-3.2149,0.6227,1.2873,0.3498,-0.7060,0.6871,
3.292171,0.4275,-0.5691,-0.3274,-2.9304,-0.0786,0.6952,0.3498,-0.7060,0.6871,
3.294261,0.4275,-0.5691,-0.3274,-2.9304,-0.0786,0.6952,0.5160,-0.6192,0.9424,
3.301492,0.4275,-0.5691,-0.3274,-2.9304,-0.0786,0.6952,0.4836,-0.3981,1.0182,
3.309946,0.5259,-0.6181,-0.4128,-2.9304,-0.0786,0.6952,0.4836,-0.3981,1.0182,
3.312521,0.5259,-0.6181,-0.4128,-1.8000,-0.3632,-0.1212,0.4836,-0.3981,1.0182,
3.314723,0.5259,-0.6181,-0.4128,-1.8000,-0.3632,-0.1212,0.4354,-0.2191,0.9876,
3.321509,0.5259,-0.6181,-0.4128,-1.8000,-0.3632,-0.1212,0.4775,-0.0163,0.9559,
3.329815,0.7878,-0.5970,-0.4328,-1.8000,-0.3632,-0.1212,0.4775,-0.0163,0.9559,
3.332884,0.7878,-0.5970,-0.4328,0.8911,0.0159,-0.3523,0.4775,-0.0163,0.9559,
3.336238,0.7878,-0.5970,-0.4328,0.8911,0.0159,-0.3523,0.5172,0.1560,0.9168,
3.341322,0.7878,-0.5970,-0.4328,0.8911,0.0159,-0.3523,0.4775,0.2726,0.7610,
3.350188,1.1534,-0.5690,-0.3981,0.8911,0.0159,-0.3523,0.4775,0.2726,0.7610,
3.352187,1.1534,-0.5690,-0.3981,4.5439,0.4290,-0.1035,0.4775,0.2726,0.7610,
3.353742,1.1534,-0.5690,-0.3981,4.5439,0.4290,-0.1035,0.4451,0.3777,0.5362,
3.362793,1.1534,-0.5690,-0.3981,4.5439,0.4290,-0.1035,0.4390,0.2464,0.2558,
3.369455,1.3069,-0.5885,-0.3700,4.5439,0.4290,-0.1035,0.4390,0.2464,0.2558,
3.371329,1.3069,-0.5885,-0.3700,6.0241,0.2795,0.0595,0.4390,0.2464,0.2558,
3.372934,1.3069,-0.5885,-0.3700,6.0241,0.2795,0.0595,0.4922,0.0943,-0.0539,
3.382312,1.3069,-0.5885,-0.3700,6.0241,0.2795,0.0595,0.5936,0.1224,-0.3489,
3.389933,0.9522,-0.7112,-0.4476,6.0241,0.2795,0.0595,0.5936,0.1224,-0.3489,
3.392421,0.9522,-0.7112,-0.4476,2.4836,-0.9407,-0.7901,0.5936,0.1224,-0.3489,
3.394670,0.9522,-0.7112,-0.4476,2.4836,-0.9407,-0.7901,0.6901,0.1254,-0.5224,
3.401342,0.9522,-0.7112,-0.4476,2.4836,-0.9407,-0.7901,0.7414,-0.0444,-0.5188,
3.410192,0.8562,-0.7641,-0.4970,2.4836,-0.9407,-0.7901,0.7414,-0.0444,-0.5188,
3.412624,0.8562,-0.7641,-0.4970,1.4654,-1.4936,-1.3665,0.7414,-0.0444,-0.5188,
3.414745,0.8562,-0.7641,-0.4970,1.4654,-1.4936,-1.3665,0.8294,-0.2576,-0.4155,
3.421586,0.8562,-0.7641,-0.4970,1.4654,-1.4936,-1.3665,0.9845,-0.3144,-0.2756,
3.429946,0.8022,-0.7212,-0.3742,1.4654,-1.4936,-1.3665,0.9845,-0.3144,-0.2756,
3.432808,0.8022,-0.7212,-0.3742,0.9089,-1.0648,-0.2318,0.9845,-0.3144,-0.2756,
3.434703,0.8022,-0.7212,-0.3742,0.9089,-1.0648,-0.2318,1.1672,-0.2087,-0.1015,
3.441367,0.8022,-0.7212,-0.3742,0.9089,-1.0648,-0.2318,1.3046,-0.0762,0.0432,
3.449501,0.7192,-0.6590,-0.3144,0.9089,-1.0648,-0.2318,1.3046,-0.0762,0.0432,
3.451715,0.7192,-0.6590,-0.3144,0.0989,-0.3801,0.2244,1.3046,-0.0762,0.0432,
3.453292,0.7192,-0.6590,-0.3144,0.0989,-0.3801,0.2244,1.2246,0.1297,0.1025,
3.462364,0.7192,-0.6590,-0.3144,0.0989,-0.3801,0.2244,1.0187,0.2452,0.0701,
3.469588,0.6926,-0.5946,-0.2444,0.0989,-0.3801,0.2244,1.0187,0.2452,0.0701,
3.472473,0.6926,-0.5946,-0.2444,-0.1667,0.3314,0.7472,1.0187,0.2452,0.0701,
3.474256,0.6926,-0.5946,-0.2444,-0.1667,0.3314,0.7472,0.6944,0.2042,0.0964,
3.481624,0.6926,-0.5946,-0.2444,-0.1667,0.3314,0.7472,0.5930,0.1767,0.1782,
3.489685,0.7719,-0.6244,-0.2764,-0.1667,0.3314,0.7472,0.5930,0.1767,0.1782,
3.491943,0.7719,-0.6244,-0.2764,0.6114,0.0941,0.3267,0.5930,0.1767,0.1782,
3.493548,0.7719,-0.6244,-0.2764,0.6114,0.0941,0.3267,0.4800,0.2592,0.2051,
3.501364,0.7719,-0.6244,-0.2764,0.6114,0.0941,0.3267,0.3517,0.1242,0.2845,
3.509733,0.8514,-0.6815,-0.3246,0.6114,0.0941,0.3267,0.3517,0.1242,0.2845,
3.511839,0.8514,-0.6815,-0.3246,1.4046,-0.4118,-0.2235,0.3517,0.1242,0.2845,
3.513709,0.8514,-0.6815,-0.3246,1.4046,-0.4118,-0.2235,0.2655,-0.2087,0.3719,
3.521332,0.8514,-0.6815,-0.3246,1.4046,-0.4118,-0.2235,0.2008,-0.5429,0.4818,
3.529617,0.9852,-0.6932,-0.2907,1.4046,-0.4118,-0.2235,0.2008,-0.5429,0.4818,
3.532253,0.9852,-0.6932,-0.2907,2.7785,-0.4659,0.1258,0.2008,-0.5429,0.4818,
3.534600,0.9852,-0.6932,-0.2907,2.7785,-0.4659,0.1258,0.1910,-0.7829,0.6162,
3.541554,0.9852,-0.6932,-0.2907,2.7785,-0.4659,0.1258,0.2252,-0.7970,0.5924,
3.549980,1.2289,-0.7532,-0.3825,2.7785,-0.4659,0.1258,0.2252,-0.7970,0.5924,
3.552827,1.2289,-0.7532,-0.3825,5.2601,-0.9864,-0.7034,0.2252,-0.7970,0.5924,
3.554815,1.2289,-0.7532,-0.3825,5.2601,-0.9864,-0.7034,0.2032,-0.9082,0.6168,
3.562784,1.2289,-0.7532,-0.3825,5.2601,-0.9864,-0.7034,0.2429,-1.1476,0.2870,
3.569848,1.4026,-0.8282,-0.3375,5.2601,-0.9864,-0.7034,0.2429,-1.1476,0.2870,
3.572372,1.4026,-0.8282,-0.3375,7.0307,-1.6895,-0.1799,0.2429,-1.1476,0.2870,
3.574480,1.4026,-0.8282,-0.3375,7.0307,-1.6895,-0.1799,0.2912,-1.0822,-0.3764,
3.581601,1.4026,-0.8282,-0.3375,7.0307,-1.6895,-0.1799,0.2509,-0.6021,-1.1547,
3.589721,0.6529,-0.9427,-0.4693,7.0307,-1.6895,-0.1799,0.2509,-0.6021,-1.1547,
3.592051,0.6529,-0.9427,-0.4693,-0.3713,-2.9047,-1.4010,0.2509,-0.6021,-1.1547,
3.594249,0.6529,-0.9427,-0.4693,-0.3713,-2.9047,-1.4010,0.0029,-0.5270,-1.2408,
3.602036,0.6529,-0.9427,-0.4693,-0.3713,-2.9047,-1.4010,-0.1657,-1.1140,-0.8749,
3.609982,0.4018,-0.8951,-0.4749,-0.3713,-2.9047,-1.4010,-0.1657,-1.1140,-0.8749,
3.612686,0.4018,-0.8951,-0.4749,-2.9067,-2.5825,-1.3353,-0.1657,-1.1140,-0.8749,
3.614871,0.4018,-0.8951,-0.4749,-2.9067,-2.5825,-1.3353,-0.3924,-1.4262,-0.5426,
3.621711,0.4018,-0.8951,-0.4749,-2.9067,-2.5825,-1.3353,-0.4284,-1.1525,-0.4925,
3.630227,0.0443,-0.7510,-0.2116,-2.9067,-2.5825,-1.3353,-0.4284,-1.1525,-0.4925,
3.633060,0.0443,-0.7510,-0.2116,-6.3386,-1.2121,1.4622,-0.4284,-1.1525,-0.4925,
3.634951,0.0443,-0.7510,-0.2116,-6.3386,-1.2121,1.4622,-0.4669,-0.4152,-0.4785,
3.641204,0.0443,-0.7510,-0.2116,-6.3386,-1.2121,1.4622,-0.5261,-0.2044,-0.3367,
3.649726,0.4946,-0.5336,-0.2807,-6.3386,-1.2121,1.4622,-0.5261,-0.2044,-0.3367,
3.652562,0.4946,-0.5336,-0.2807,-1.9147,0.8779,0.8761,-0.5261,-0.2044,-0.3367,
3.654161,0.4946,-0.5336,-0.2807,-1.9147,0.8779,0.8761,-0.5939,-0.3987,-0.0203,
3.662573,0.4946,-0.5336,-0.2807,-1.9147,0.8779,0.8761,-0.6349,-0.4158,-0.0411,
3.669368,0.4318,-0.3734,-0.1875,-1.9147,0.8779,0.8761,-0.6349,-0.4158,-0.0411,
3.671193,0.4318,-0.3734,-0.1875,-2.4809,2.4320,1.9047,-0.6349,-0.4158,-0.0411,
3.672901,0.4318,-0.3734,-0.1875,-2.4809,2.4320,1.9047,-0.4974,-0.3535,-0.0447,
3.681428,0.4318,-0.3734,-0.1875,-2.4809,2.4320,1.9047,-0.2922,-0.1305,-0.0698,
3.689526,0.4758,-0.1513,-0.2217,-2.4809,2.4320,1.9047,-0.2922,-0.1305,-0.0698,
3.691500,0.4758,-0.1513,-0.2217,-2.0374,4.5753,1.6448,-0.2922,-0.1305,-0.0698,
3.693382,0.4758,-0.1513,-0.2217,-2.0374,4.5753,1.6448,-0.1053,0.1474,-0.0734,
3.701248,0.4758,-0.1513,-0.2217,-2.0374,4.5753,1.6448,-0.0405,0.3124,-0.1327,
3.709695,0.6673,-0.4577,-0.3756,-2.0374,4.5753,1.6448,-0.0405,0.3124,-0.1327,
3.711807,0.6673,-0.4577,-0.3756,-0.1912,1.5531,0.1135,-0.0405,0.3124,-0.1327,
3.713682,0.6673,-0.4577,-0.3756,-0.1912,1.5531,0.1135,-0.0503,0.3954,-0.2885,
3.721190,0.6673,-0.4577,-0.3756,-0.1912,1.5531,0.1135,0.0499,0.4981,-0.3789,
3.729705,0.5433,-0.3809,-0.1903,-0.1912,1.5531,0.1135,0.0499,0.4981,-0.3789,
3.732438,0.5433,-0.3809,-0.1903,-1.4835,2.2591,1.8656,0.0499,0.4981,-0.3789,
3.734275,0.5433,-0.3809,-0.1903,-1.4835,2.2591,1.8656,0.1996,0.6508,-0.4296,
3.741289,0.5433,-0.3809,-0.1903,-1.4835,2.2591,1.8656,0.3242,0.8346,-0.4974,
3.749673,0.4570,-0.5049,-0.0127,-1.4835,2.2591,1.8656,0.3242,0.8346,-0.4974,
3.752745,0.4570,-0.5049,-0.0127,-2.4436,1.0088,3.4500,0.3242,0.8346,-0.4974,
3.754659,0.4570,-0.5049,-0.0127,-2.4436,1.0088,3.4500,0.4335,1.1205,-0.5615,
3.763249,0.4570,-0.5049,-0.0127,-2.4436,1.0088,3.4500,0.5624,1.5023,-0.5493,
3.769798,0.3607,-0.3859,-0.1752,-2.4436,1.0088,3.4500,0.5624,1.5023,-0.5493,
3.772539,0.3607,-0.3859,-0.1752,-3.5406,2.1417,1.6029,0.5624,1.5023,-0.5493,
3.774469,0.3607,-0.3859,-0.1752,-3.5406,2.1417,1.6029,0.6779,1.7375,-0.4277,
3.781696,0.3607,-0.3859,-0.1752,-3.5406,2.1417,1.6029,0.7426,1.5029,-0.1596,
3.789705,0.6731,-0.6615,-0.2356,-3.5406,2.1417,1.6029,0.7426,1.5029,-0.1596,
3.792276,0.6731,-0.6615,-0.2356,-0.6098,-0.5440,0.6879,0.7426,1.5029,-0.1596,
3.794694,0.6731,-0.6615,-0.2356,-0.6098,-0.5440,0.6879,0.6528,1.2751,0.1404,
3.801495,0.6731,-0.6615,-0.2356,-0.6098,-0.5440,0.6879,0.5526,1.2403,0.3737,
3.810318,0.7723,-0.7214,-0.3257,-0.6098,-0.5440,0.6879,0.5526,1.2403,0.3737,
3.812572,0.7723,-0.7214,-0.3257,0.3271,-1.0520,-0.4490,0.5526,1.2403,0.3737,
3.814706,0.7723,-0.7214,-0.3257,0.3271,-1.0520,-0.4490,0.4543,1.0778,0.6162,
3.821731,0.7723,-0.7214,-0.3257,0.3271,-1.0520,-0.4490,0.3712,0.8194,0.7592,
3.830076,1.0620,-0.7978,-0.4467,0.3271,-1.0520,-0.4490,0.3712,0.8194,0.7592,
3.833548,1.0620,-0.7978,-0.4467,3.2013,-1.6789,-1.8189,0.3712,0.8194,0.7592,
3.836856,1.0620,-0.7978,-0.4467,3.2013,-1.6789,-1.8189,0.3963,0.4852,0.8141,
3.841551,1.0620,-0.7978,-0.4467,3.2013,-1.6789,-1.8189,0.3938,0.0723,0.8117,
3.850510,1.2032,-0.8322,-0.4247,3.2013,-1.6789,-1.8189,0.3938,0.0723,0.8117,
3.853370,1.2032,-0.8322,-0.4247,4.6680,-1.8872,-1.6863,0.3938,0.0723,0.8117,
3.855365,1.2032,-0.8322,-0.4247,4.6680,-1.8872,-1.6863,0.3040,-0.0426,0.7463,
3.863676,1.2032,-0.8322,-0.4247,4.6680,-1.8872,-1.6863,0.2191,-0.1006,0.6822,
3.869903,0.8157,-0.6428,-0.1688,4.6680,-1.8872,-1.6863,0.2191,-0.1006,0.6822,
3.872483,0.8157,-0.6428,-0.1688,0.9578,0.0756,0.7997,0.2191,-0.1006,0.6822,
3.874075,0.8157,-0.6428,-0.1688,0.9578,0.0756,0.7997,0.0982,-0.0285,0.7390,
3.881516,0.8157,-0.6428,-0.1688,0.9578,0.0756,0.7997,-0.0564,0.0619,0.8703,
3.889704,0.6833,-0.5560,-0.1474,0.9578,0.0756,0.7997,-0.0564,0.0619,0.8703,
3.891920,0.6833,-0.5560,-0.1474,-0.2476,1.0287,1.0016,-0.0564,0.0619,0.8703,
3.894180,0.6833,-0.5560,-0.1474,-0.2476,1.0287,1.0016,-0.2073,0.1120,0.9834,
3.901685,0.6833,-0.5560,-0.1474,-0.2476,1.0287,1.0016,-0.2732,0.1102,1.0927,
3.909977,0.5778,-0.6111,-0.2426,-0.2476,1.0287,1.0016,-0.2732,0.1102,1.0927,
3.912386,0.5778,-0.6111,-0.2426,-1.1582,0.6132,0.0844,-0.2732,0.1102,1.0927,
3.914584,0.5778,-0.6111,-0.2426,-1.1582,0.6132,0.0844,-0.2054,0.0882,1.1507,
3.922041,0.5778,-0.6111,-0.2426,-1.1582,0.6132,0.0844,-0.0466,0.2024,1.1782,
3.930257,0.5600,-0.6968,-0.3370,-1.1582,0.6132,0.0844,-0.0466,0.2024,1.1782,
3.933113,0.5600,-0.6968,-0.3370,-1.1871,-0.0786,-0.8407,-0.0466,0.2024,1.1782,
3.935240,0.5600,-0.6968,-0.3370,-1.1871,-0.0786,-0.8407,0.1238,0.3863,1.2204,
3.941488,0.5600,-0.6968,-0.3370,-1.1871,-0.0786,-0.8407,0.2423,0.7858,1.1519,
3.949965,0.6488,-0.6599,-0.2541,-1.1871,-0.0786,-0.8407,0.2423,0.7858,1.1519,
3.953269,0.6488,-0.6599,-0.2541,-0.1876,0.4423,-0.1249,0.2423,0.7858,1.1519,
3.955105,0.6488,-0.6599,-0.2541,-0.1876,0.4423,-0.1249,0.3633,1.0240,1.1165,
3.963265,0.6488,-0.6599,-0.2541,-0.1876,0.4423,-0.1249,0.5019,0.8182,1.1379,
3.969789,0.6292,-0.7346,-0.2491,-0.1876,0.4423,-0.1249,0.5019,0.8182,1.1379,
3.972571,0.6292,-0.7346,-0.2491,-0.2671,-0.1299,-0.2489,0.5019,0.8182,1.1379,
3.974341,0.6292,-0.7346,-0.2491,-0.2671,-0.1299,-0.2489,0.6217,0.6227,1.1984,
3.981752,0.6292,-0.7346,-0.2491,-0.2671,-0.1299,-0.2489,0.7597,0.4205,1.2289,
3.989809,0.5755,-0.8099,-0.1908,-0.2671,-0.1299,-0.2489,0.7597,0.4205,1.2289,
3.992201,0.5755,-0.8099,-0.1908,-0.6431,-0.6861,0.1616,0.7597,0.4205,1.2289,
3.994520,0.5755,-0.8099,-0.1908,-0.6431,-0.6861,0.1616,0.8611,0.3478,1.2448,
4.001809,0.5755,-0.8099,-0.1908,-0.6431,-0.6861,0.1616,0.9430,0.2806,1.2411,
4.010397,0.6586,-0.7983,-0.1375,-0.6431,-0.6861,0.1616,0.9430,0.2806,1.2411,
4.013015,0.6586,-0.7983,-0.1375,0.3398,-0.3862,0.5149,0.9430,0.2806,1.2411,
4.014773,0.6586,-0.7983,-0.1375,0.3398,-0.3862,0.5149,0.8734,0.2384,1.1104,
4.021769,0.6586,-0.7983,-0.1375,0.3398,-0.3862,0.5149,0.4427,-0.4030,0.9760,
4.030781,0.5115,-0.6244,-0.0741,0.3398,-0.3862,0.5149,0.4427,-0.4030,0.9760,
4.033332,0.5115,-0.6244,-0.0741,-0.9474,1.4636,1.0475,0.4427,-0.4030,0.9760,
4.035574,0.5115,-0.6244,-0.0741,-0.9474,1.4636,1.0475,0.4207,-0.8116,1.0365,
4.041604,0.5115,-0.6244,-0.0741,-0.9474,1.4636,1.0475,0.5087,-0.9027,1.0450,
4.050437,0.4191,-0.7637,-0.2212,-0.9474,1.4636,1.0475,0.5087,-0.9027,1.0450,
4.053278,0.4191,-0.7637,-0.2212,-1.6639,0.2362,-0.3629,0.5087,-0.9027,1.0450,
4.055122,0.4191,-0.7637,-0.2212,-1.6639,0.2362,-0.3629,0.5392,-0.7396,1.0115,
4.063723,0.4191,-0.7637,-0.2212,-1.6639,0.2362,-0.3629,0.6443,-0.6192,0.9070,
4.069814,0.5977,-0.7881,-0.2180,-1.6639,0.2362,-0.3629,0.6443,-0.6192,0.9070,
4.072372,0.5977,-0.7881,-0.2180,0.2574,0.1246,-0.3439,0.6443,-0.6192,0.9070,
4.073973,0.5977,-0.7881,-0.2180,0.2574,0.1246,-0.3439,0.7408,-0.5636,0.8331,
4.081707,0.5977,-0.7881,-0.2180,0.2574,0.1246,-0.3439,0.7506,-0.6443,0.7775,
4.089866,0.5248,-0.8084,-0.1731,0.2574,0.1246,-0.3439,0.7506,-0.6443,0.7775,
4.092395,0.5248,-0.8084,-0.1731,-0.3116,0.0387,0.0479,0.7506,-0.6443,0.7775,
4.094549,0.5248,-0.8084,-0.1731,-0.3116,0.0387,0.0479,0.8062,-0.8538,0.7421,
4.101753,0.5248,-0.8084,-0.1731,-0.3116,0.0387,0.0479,0.8923,-0.9613,0.8367,
4.110493,0.3975,-0.5789,-0.1620,-0.3116,0.0387,0.0479,0.8923,-0.9613,0.8367,
4.112966,0.3975,-0.5789,-0.1620,-1.4065,2.3976,0.1228,0.8923,-0.9613,0.8367,
4.115191,0.3975,-0.5789,-0.1620,-1.4065,2.3976,0.1228,1.0444,-0.7365,0.8471,
4.121595,0.3975,-0.5789,-0.1620,-1.4065,2.3976,0.1228,1.3138,-0.0316,0.8013,
4.130168,0.4388,-0.6833,-0.1502,-1.4065,2.3976,0.1228,1.3138,-0.0316,0.8013,
4.133536,0.4388,-0.6833,-0.1502,-0.8614,1.4937,0.0929,1.3138,-0.0316,0.8013,
4.135768,0.4388,-0.6833,-0.1502,-0.8614,1.4937,0.0929,1.5697,0.3912,0.6932,
4.141456,0.4388,-0.6833,-0.1502,-0.8614,1.4937,0.0929,1.7359,0.5384,0.7555,
4.150200,0.4741,-0.7683,0.0144,-0.8614,1.4937,0.0929,1.7359,0.5384,0.7555,
4.153001,0.4741,-0.7683,0.0144,-0.4146,0.7773,1.3883,1.7359,0.5384,0.7555,
4.154631,0.4741,-0.7683,0.0144,-0.4146,0.7773,1.3883,1.8672,0.4058,0.9931,
4.164153,0.4741,-0.7683,0.0144,-0.4146,0.7773,1.3883,1.8483,-0.1745,1.2582,
4.170354,0.5913,-0.8885,0.0079,-0.4146,0.7773,1.3883,1.8483,-0.1745,1.2582,
4.172458,0.5913,-0.8885,0.0079,0.9096,-0.2550,1.0015,1.8483,-0.1745,1.2582,
4.174210,0.5913,-0.8885,0.0079,0.9096,-0.2550,1.0015,1.6846,-0.7701,1.4659,
4.181768,0.5913,-0.8885,0.0079,0.9096,-0.2550,1.0015,1.5013,-0.8636,1.4329,
4.189690,0.5758,-1.0625,-0.0762,0.9096,-0.2550,1.0015,1.5013,-0.8636,1.4329,
4.191601,0.5758,-1.0625,-0.0762,1.0079,-1.8013,-0.0160,1.5013,-0.8636,1.4329,
4.193506,0.5758,-1.0625,-0.0762,1.0079,-1.8013,-0.0160,1.2973,-0.5923,1.2515,
4.201648,0.5758,-1.0625,-0.0762,1.0079,-1.8013,-0.0160,1.0859,-0.1660,0.9595,
4.210085,0.7249,-1.2631,-0.1217,1.0079,-1.8013,-0.0160,1.0859,-0.1660,0.9595,
4.212523,0.7249,-1.2631,-0.1217,2.6516,-3.6584,-0.6280,1.0859,-0.1660,0.9595,
4.214767,0.7249,-1.2631,-0.1217,2.6516,-3.6584,-0.6280,0.4665,0.3771,0.0280,
4.221829,0.7249,-1.2631,-0.1217,2.6516,-3.6584,-0.6280,0.1434,0.2885,-0.2231,
4.230318,0.4255,-1.2843,-0.1005,2.6516,-3.6584,-0.6280,0.1434,0.2885,-0.2231,
4.233235,0.4255,-1.2843,-0.1005,-0.3032,-3.8725,-0.5006,0.1434,0.2885,-0.2231,
4.235670,0.4255,-1.2843,-0.1005,-0.3032,-3.8725,-0.5006,-0.0747,0.1224,-0.2268,
4.241446,0.4255,-1.2843,-0.1005,-0.3032,-3.8725,-0.5006,-0.2231,0.0546,-0.1846,
4.249882,0.6491,-0.9016,-0.0112,-0.3032,-3.8725,-0.5006,-0.2231,0.0546,-0.1846,
4.252399,0.6491,-0.9016,-0.0112,1.8484,-0.1439,0.3938,-0.2231,0.0546,-0.1846,
4.254283,0.6491,-0.9016,-0.0112,1.8484,-0.1439,0.3938,-0.2916,0.0814,-0.1608,
4.263816,0.6491,-0.9016,-0.0112,1.8484,-0.1439,0.3938,-0.2726,0.0283,-0.2494,
4.269661,0.3145,-0.9009,0.0430,1.8484,-0.1439,0.3938,-0.2726,0.0283,-0.2494,
4.271772,0.3145,-0.9009,0.0430,-1.4658,-0.1577,0.9677,-0.2726,0.0283,-0.2494,
4.273826,0.3145,-0.9009,0.0430,-1.4658,-0.1577,0.9677,-0.0570,-0.6528,-0.2726,
4.281685,0.3145,-0.9009,0.0430,-1.4658,-0.1577,0.9677,0.2985,-0.7145,-0.2640,
4.289752,0.4589,-0.8084,-0.1405,-1.4658,-0.1577,0.9677,0.2985,-0.7145,-0.2640,
4.291653,0.4589,-0.8084,-0.1405,-0.0894,0.7254,-0.7884,0.2985,-0.7145,-0.2640,
4.293877,0.4589,-0.8084,-0.1405,-0.0894,0.7254,-0.7884,0.4665,-0.2521,-0.2323,
4.301627,0.4589,-0.8084,-0.1405,-0.0894,0.7254,-0.7884,0.5765,-0.0377,-0.1797,
4.310415,0.4787,-0.7974,-0.1175,-0.0894,0.7254,-0.7884,0.5765,-0.0377,-0.1797,
4.312506,0.4787,-0.7974,-0.1175,0.0703,0.8196,-0.6373,0.5765,-0.0377,-0.1797,
4.314555,0.4787,-0.7974,-0.1175,0.0703,0.8196,-0.6373,0.6657,0.4913,-0.0325,
4.321682,0.4787,-0.7974,-0.1175,0.0703,0.8196,-0.6373,0.7994,0.9452,0.1709,
4.330597,0.5461,-0.8503,0.0214,0.0703,0.8196,-0.6373,0.7994,0.9452,0.1709,
4.333378,0.5461,-0.8503,0.0214,0.7346,0.3124,0.5330,0.7994,0.9452,0.1709,
4.336398,0.5461,-0.8503,0.0214,0.7346,0.3124,0.5330,1.0126,1.0711,0.3297,
4.341518,0.5461,-0.8503,0.0214,0.7346,0.3124,0.5330,1.2154,1.0210,0.4824,
4.349877,0.5239,-0.8065,-0.1785,0.7346,0.3124,0.5330,1.2154,1.0210,0.4824,
4.353080,0.5239,-0.8065,-0.1785,0.5724,0.7775,-1.6942,1.2154,1.0210,0.4824,
4.354762,0.5239,-0.8065,-0.1785,0.5724,0.7775,-1.6942,1.2325,0.5292,0.5948,
4.363684,0.5239,-0.8065,-0.1785,0.5724,0.7775,-1.6942,0.5123,-1.6925,0.2760,
4.370098,0.4129,-0.7925,-0.1030,0.5724,0.7775,-1.6942,0.5123,-1.6925,0.2760,
4.372585,0.4129,-0.7925,-0.1030,-0.4512,0.9478,-1.0285,0.5123,-1.6925,0.2760,
4.374871,0.4129,-0.7925,-0.1030,-0.4512,0.9478,-1.0285,0.3981,-1.0096,0.1654,
4.381497,0.4129,-0.7925,-0.1030,-0.4512,0.9478,-1.0285,0.2289,-0.2948,0.0964,
4.389510,0.4637,-0.8802,-0.0131,-0.4512,0.9478,-1.0285,0.2289,-0.2948,0.0964,
4.391934,0.4637,-0.8802,-0.0131,0.0629,0.0966,-0.1284,0.2289,-0.2948,0.0964,
4.393265,0.4637,-0.8802,-0.0131,0.0629,0.0966,-0.1284,0.0334,-0.1495,-0.1333,
4.401230,0.4637,-0.8802,-0.0131,0.0629,0.0966,-0.1284,0.0456,-0.0945,-0.1626,
4.409855,0.4507,-0.9259,0.0337,0.0629,0.0966,-0.1284,0.0456,-0.0945,-0.1626,
4.412550,0.4507,-0.9259,0.0337,-0.0917,-0.3654,0.3396,0.0456,-0.0945,-0.1626,
4.414401,0.4507,-0.9259,0.0337,-0.0917,-0.3654,0.3396,0.0352,-0.0047,-0.1449,
4.421449,0.4507,-0.9259,0.0337,-0.0917,-0.3654,0.3396,-0.0087,0.0527,-0.1022,
4.430380,0.3979,-0.9386,-0.0243,-0.0917,-0.3654,0.3396,-0.0087,0.0527,-0.1022,
4.433072,0.3979,-0.9386,-0.0243,-0.6302,-0.5004,-0.2292,-0.0087,0.0527,-0.1022,
4.434883,0.3979,-0.9386,-0.0243,-0.6302,-0.5004,-0.2292,-0.0442,0.1548,-0.0417,
4.441579,0.3979,-0.9386,-0.0243,-0.6302,-0.5004,-0.2292,-0.0790,0.1957,0.0072,
4.449727,0.4338,-0.9042,0.0268,-0.6302,-0.5004,-0.2292,-0.0790,0.1957,0.0072,
4.452482,0.4338,-0.9042,0.0268,-0.2798,-0.1636,0.2678,-0.0790,0.1957,0.0072,
4.454263,0.4338,-0.9042,0.0268,-0.2798,-0.1636,0.2678,-0.0998,0.1554,0.0249,
4.463249,0.4338,-0.9042,0.0268,-0.2798,-0.1636,0.2678,-0.0637,0.1095,0.0530,
4.469442,0.4352,-0.8954,0.0370,-0.2798,-0.1636,0.2678,-0.0637,0.1095,0.0530,
4.471258,0.4352,-0.8954,0.0370,-0.2573,-0.0732,0.3709,-0.0637,0.1095,0.0530,
4.472985,0.4352,-0.8954,0.0370,-0.2573,-0.0732,0.3709,-0.0008,0.0607,0.1171,
4.481345,0.4352,-0.8954,0.0370,-0.2573,-0.0732,0.3709,0.0188,-0.0071,0.2204,
4.490549,0.4206,-0.9011,0.0410,-0.2573,-0.0732,0.3709,0.0188,-0.0071,0.2204,
4.492916,0.4206,-0.9011,0.0410,-0.3696,-0.1133,0.4056,0.0188,-0.0071,0.2204,
4.495354,0.4206,-0.9011,0.0410,-0.3696,-0.1133,0.4056,0.0444,-0.1061,0.3389,
4.501482,0.4206,-0.9011,0.0410,-0.3696,-0.1133,0.4056,0.0762,-0.1898,0.4104,
4.509896,0.3936,-0.8740,0.0122,-0.3696,-0.1133,0.4056,0.0762,-0.1898,0.4104,
4.512768,0.3936,-0.8740,0.0122,-0.5670,0.1868,0.1248,0.0762,-0.1898,0.4104,
4.514843,0.3936,-0.8740,0.0122,-0.5670,0.1868,0.1248,0.0811,-0.1452,0.3920,
4.521461,0.3936,-0.8740,0.0122,-0.5670,0.1868,0.1248,0.0456,-0.0401,0.2570,
4.531366,0.4098,-0.9031,-0.0109,-0.5670,0.1868,0.1248,0.0456,-0.0401,0.2570,
4.534194,0.4098,-0.9031,-0.0109,-0.3492,-0.0688,-0.1047,0.0456,-0.0401,0.2570,
4.536275,0.4098,-0.9031,-0.0109,-0.3492,-0.0688,-0.1047,0.0071,0.0454,0.0750,
4.541475,0.4098,-0.9031,-0.0109,-0.3492,-0.0688,-0.1047,-0.0063,0.0564,-0.0435,
4.550673,0.4461,-0.8808,0.0214,-0.3492,-0.0688,-0.1047,-0.0063,0.0564,-0.0435,
4.553334,0.4461,-0.8808,0.0214,0.0099,0.1509,0.2062,-0.0063,0.0564,-0.0435,
4.555327,0.4461,-0.8808,0.0214,0.0099,0.1509,0.2062,0.0035,0.0332,-0.0851,
4.561692,0.4461,-0.8808,0.0214,0.0099,0.1509,0.2062,0.0163,0.0124,-0.1022,
4.570158,0.4327,-0.8887,0.0149,0.0099,0.1509,0.2062,0.0163,0.0124,-0.1022,
4.572738,0.4327,-0.8887,0.0149,-0.1373,0.0665,0.1383,0.0163,0.0124,-0.1022,
4.574555,0.4327,-0.8887,0.0149,-0.1373,0.0665,0.1383,0.0255,-0.0077,-0.1015,
4.581499,0.4327,-0.8887,0.0149,-0.1373,0.0665,0.1383,0.0035,-0.0132,-0.0960,
4.589753,0.4341,-0.8821,0.0128,-0.1373,0.0665,0.1383,0.0035,-0.0132,-0.0960,
4.592123,0.4341,-0.8821,0.0128,-0.1360,0.1246,0.1126,0.0035,-0.0132,-0.0960,
4.593903,0.4341,-0.8821,0.0128,-0.1360,0.1246,0.1126,-0.0258,0.0222,-0.0906,
4.601531,0.4341,-0.8821,0.0128,-0.1360,0.1246,0.1126,-0.0478,0.0533,-0.0875,
4.609902,0.4476,-0.8819,0.0316,-0.1360,0.1246,0.1126,-0.0478,0.0533,-0.0875,
4.612110,0.4476,-0.8819,0.0316,-0.0166,0.1197,0.2940,-0.0478,0.0533,-0.0875,
4.614195,0.4476,-0.8819,0.0316,-0.0166,0.1197,0.2940,-0.0521,0.0595,-0.0753,
4.621430,0.4476,-0.8819,0.0316,-0.0166,0.1197,0.2940,-0.0423,0.0564,-0.0686,
4.631638,0.4435,-0.8796,0.0290,-0.0166,0.1197,0.2940,-0.0423,0.0564,-0.0686,
4.634411,0.4435,-0.8796,0.0290,-0.0659,0.1375,0.2631,-0.0423,0.0564,-0.0686,
4.636823,0.4435,-0.8796,0.0290,-0.0659,0.1375,0.2631,-0.0326,0.0350,-0.0887,
4.641379,0.4435,-0.8796,0.0290,-0.0659,0.1375,0.2631,-0.0338,0.0191,-0.0924,
4.649810,0.4468,-0.8942,0.0300,-0.0659,0.1375,0.2631,-0.0338,0.0191,-0.0924,
4.652934,0.4468,-0.8942,0.0300,-0.0464,-0.0115,0.2682,-0.0338,0.0191,-0.0924,
4.654877,0.4468,-0.8942,0.0300,-0.0464,-0.0115,0.2682,-0.0527,0.0234,-0.0655,
4.661504,0.4468,-0.8942,0.0300,-0.0464,-0.0115,0.2682,-0.0796,0.0503,-0.0240,
4.669902,0.4279,-0.8987,0.0325,-0.0464,-0.0115,0.2682,-0.0796,0.0503,-0.0240,
4.672943,0.4279,-0.8987,0.0325,-0.2343,-0.0569,0.2893,-0.0796,0.0503,-0.0240,
4.674741,0.4279,-0.8987,0.0325,-0.2343,-0.0569,0.2893,-0.0906,0.0827,0.0273,
4.681588,0.4279,-0.8987,0.0325,-0.2343,-0.0569,0.2893,-0.0772,0.0662,0.0835,
4.689785,0.4294,-0.9153,0.0340,-0.2343,-0.0569,0.2893,-0.0772,0.0662,0.0835,
4.691933,0.4294,-0.9153,0.0340,-0.2029,-0.2112,0.2988,-0.0772,0.0662,0.0835,
4.694169,0.4294,-0.9153,0.0340,-0.2029,-0.2112,0.2988,-0.0600,0.0100,0.1807,
4.701516,0.4294,-0.9153,0.0340,-0.2029,-0.2112,0.2988,-0.0497,-0.0823,0.3584,
4.709814,0.4237,-0.8662,0.0347,-0.2029,-0.2112,0.2988,-0.0497,-0.0823,0.3584,
4.712345,0.4237,-0.8662,0.0347,-0.2068,0.2956,0.3050,-0.0497,-0.0823,0.3584,
4.714598,0.4237,-0.8662,0.0347,-0.2068,0.2956,0.3050,-0.0179,-0.2222,0.5350,
4.721584,0.4237,-0.8662,0.0347,-0.2068,0.2956,0.3050,0.0200,-0.3071,0.6278,
4.731924,0.3645,-0.8870,0.0191,-0.2068,0.2956,0.3050,0.0200,-0.3071,0.6278,
4.734509,0.3645,-0.8870,0.0191,-0.6791,0.1451,0.1615,0.0200,-0.3071,0.6278,
4.736600,0.3645,-0.8870,0.0191,-0.6791,0.1451,0.1615,0.0206,-0.2777,0.6400,
4.741471,0.3645,-0.8870,0.0191,-0.6791,0.1451,0.1615,-0.0100,-0.1782,0.5912,
4.749815,0.3578,-0.9064,0.0214,-0.6791,0.1451,0.1615,-0.0100,-0.1782,0.5912,
4.752408,0.3578,-0.9064,0.0214,-0.6343,0.0071,0.1999,-0.0100,-0.1782,0.5912,
4.754243,0.3578,-0.9064,0.0214,-0.6343,0.0071,0.1999,-0.0332,-0.0749,0.4574,
4.761538,0.3578,-0.9064,0.0214,-0.6343,0.0071,0.1999,-0.0350,0.0656,0.0744,
4.769957,0.3860,-0.9241,0.0044,-0.6343,0.0071,0.1999,-0.0350,0.0656,0.0744,
4.772620,0.3860,-0.9241,0.0044,-0.3089,-0.1438,0.0382,-0.0350,0.0656,0.0744,
4.774666,0.3860,-0.9241,0.0044,-0.3089,-0.1438,0.0382,-0.0234,0.0576,-0.0148,
4.781626,0.3860,-0.9241,0.0044,-0.3089,-0.1438,0.0382,-0.0045,0.0240,-0.0386,
4.789709,0.4091,-0.9301,0.0155,-0.3089,-0.1438,0.0382,-0.0045,0.0240,-0.0386,
4.791834,0.4091,-0.9301,0.0155,-0.0859,-0.2040,0.1446,-0.0045,0.0240,-0.0386,
4.793557,0.4091,-0.9301,0.0155,-0.0859,-0.2040,0.1446,0.0114,-0.0053,-0.0331,
4.801633,0.4091,-0.9301,0.0155,-0.0859,-0.2040,0.1446,0.0273,-0.0401,-0.0203,
4.809748,0.4088,-0.9183,0.0079,-0.0859,-0.2040,0.1446,0.0273,-0.0401,-0.0203,
4.812556,0.4088,-0.9183,0.0079,-0.0918,-0.0907,0.0676,0.0273,-0.0401,-0.0203,
4.814686,0.4088,-0.9183,0.0079,-0.0918,-0.0907,0.0676,0.0420,-0.0609,-0.0117,
4.821606,0.4088,-0.9183,0.0079,-0.0918,-0.0907,0.0676,0.0530,-0.0707,0.0011,
4.832078,0.4148,-0.8906,0.0092,-0.0918,-0.0907,0.0676,0.0530,-0.0707,0.0011,
4.835083,0.4148,-0.8906,0.0092,-0.0334,0.1809,0.0756,0.0530,-0.0707,0.0011,
4.838389,0.4148,-0.8906,0.0092,-0.0334,0.1809,0.0756,0.0591,-0.0865,0.0139,
4.841541,0.4148,-0.8906,0.0092,-0.0334,0.1809,0.0756,0.0731,-0.1152,0.0170,
4.849859,0.4200,-0.8606,0.0078,-0.0334,0.1809,0.0756,0.0731,-0.1152,0.0170,
4.852942,0.4200,-0.8606,0.0078,0.0197,0.4767,0.0582,0.0731,-0.1152,0.0170,
4.854678,0.4200,-0.8606,0.0078,0.0197,0.4767,0.0582,0.0890,-0.1360,0.0115,
4.861584,0.4200,-0.8606,0.0078,0.0197,0.4767,0.0582,0.0859,-0.1140,0.0176,
4.869974,0.4132,-0.8383,0.0016,0.0197,0.4767,0.0582,0.0859,-0.1140,0.0176,
4.873017,0.4132,-0.8383,0.0016,-0.0440,0.6956,-0.0086,0.0859,-0.1140,0.0176,
4.874692,0.4132,-0.8383,0.0016,-0.0440,0.6956,-0.0086,0.0572,-0.0548,0.0530,
4.881553,0.4132,-0.8383,0.0016,-0.0440,0.6956,-0.0086,0.0133,0.0271,0.1190,
4.889736,0.4087,-0.7989,0.0181,-0.0440,0.6956,-0.0086,0.0133,0.0271,0.1190,
4.892276,0.4087,-0.7989,0.0181,-0.0742,1.0887,0.1471,0.0133,0.0271,0.1190,
4.894276,0.4087,-0.7989,0.0181,-0.0742,1.0887,0.1471,-0.0246,0.0973,0.1990,
4.901647,0.4087,-0.7989,0.0181,-0.0742,1.0887,0.1471,-0.0307,0.1059,0.2558,
4.909844,0.4099,-0.8052,0.0189,-0.0742,1.0887,0.1471,-0.0307,0.1059,0.2558,
4.912698,0.4099,-0.8052,0.0189,-0.0242,1.0437,0.1511,-0.0307,0.1059,0.2558,
4.914602,0.4099,-0.8052,0.0189,-0.0242,1.0437,0.1511,-0.0258,0.0876,0.2631,
4.921629,0.4099,-0.8052,0.0189,-0.0242,1.0437,0.1511,-0.0442,0.1401,0.2381,
4.931945,0.4248,-0.8476,0.0148,-0.0242,1.0437,0.1511,-0.0442,0.1401,0.2381,
4.934373,0.4248,-0.8476,0.0148,0.1629,0.6468,0.1062,-0.0442,0.1401,0.2381,
4.936602,0.4248,-0.8476,0.0148,0.1629,0.6468,0.1062,-0.0912,0.2152,0.2295,
4.941389,0.4248,-0.8476,0.0148,0.1629,0.6468,0.1062,-0.1388,0.3093,0.2564,
4.949824,0.4102,-0.8600,0.0153,0.1629,0.6468,0.1062,-0.1388,0.3093,0.2564,
4.952993,0.4102,-0.8600,0.0153,0.0425,0.5362,0.1041,-0.1388,0.3093,0.2564,
4.954827,0.4102,-0.8600,0.0153,0.0425,0.5362,0.1041,-0.1321,0.2891,0.3071,
4.961618,0.4102,-0.8600,0.0153,0.0425,0.5362,0.1041,-0.1193,0.2158,0.3658,
4.969829,0.4069,-0.8780,0.0088,0.0425,0.5362,0.1041,-0.1193,0.2158,0.3658,
4.972061,0.4069,-0.8780,0.0088,0.0512,0.3771,0.0379,-0.1193,0.2158,0.3658,
4.973776,0.4069,-0.8780,0.0088,0.0512,0.3771,0.0379,-0.0845,0.0998,0.3981,
4.981954,0.4069,-0.8780,0.0088,0.0512,0.3771,0.0379,-0.0423,-0.0218,0.3487,
4.989708,0.3822,-0.8317,0.0081,0.0512,0.3771,0.0379,-0.0423,-0.0218,0.3487,
4.992024,0.3822,-0.8317,0.0081,-0.1273,0.8583,0.0382,-0.0423,-0.0218,0.3487,
4.993816,0.3822,-0.8317,0.0081,-0.1273,0.8583,0.0382,-0.0057,-0.0890,0.2479,
5.001593,0.3822,-0.8317,0.0081,-0.1273,0.8583,0.0382,-0.0063,-0.0926,0.1373,
5.009869,0.3895,-0.8066,0.0095,-0.1273,0.8583,0.0382,-0.0063,-0.0926,0.1373,
5.012381,0.3895,-0.8066,0.0095,-0.0259,1.1176,0.0595,-0.0063,-0.0926,0.1373,
5.014487,0.3895,-0.8066,0.0095,-0.0259,1.1176,0.0595,-0.0350,0.0118,0.0542,
5.021680,0.3895,-0.8066,0.0095,-0.0259,1.1176,0.0595,-0.0643,0.0992,0.0151,
5.032325,0.3770,-0.7968,0.0068,-0.0259,1.1176,0.0595,-0.0643,0.0992,0.0151,
5.035163,0.3770,-0.7968,0.0068,-0.1478,1.2139,0.0369,-0.0643,0.0992,0.0151,
5.037260,0.3770,-0.7968,0.0068,-0.1478,1.2139,0.0369,-0.0851,0.1676,0.0011,
5.041542,0.3770,-0.7968,0.0068,-0.1478,1.2139,0.0369,-0.1211,0.2409,0.0041,
5.049756,0.3502,-0.8664,0.0103,-0.1478,1.2139,0.0369,-0.1211,0.2409,0.0041,
5.052942,0.3502,-0.8664,0.0103,-0.4115,0.5309,0.0726,-0.1211,0.2409,0.0041,
5.054868,0.3502,-0.8664,0.0103,-0.4115,0.5309,0.0726,-0.1657,0.3618,0.0628,
5.061612,0.3502,-0.8664,0.0103,-0.4115,0.5309,0.0726,-0.1694,0.4327,0.1715,
5.069856,0.3644,-0.9194,0.0054,-0.4115,0.5309,0.0726,-0.1694,0.4327,0.1715,
5.072876,0.3644,-0.9194,0.0054,-0.2521,0.0201,0.0240,-0.1694,0.4327,0.1715,
5.074473,0.3644,-0.9194,0.0054,-0.2521,0.0201,0.0240,-0.1352,0.4144,0.2729,
5.081528,0.3644,-0.9194,0.0054,-0.2521,0.0201,0.0240,-0.0704,0.3502,0.3352,
5.089767,0.3381,-0.8835,0.0217,-0.2521,0.0201,0.0240,-0.0704,0.3502,0.3352,
5.092518,0.3381,-0.8835,0.0217,-0.4544,0.3952,0.1734,-0.0704,0.3502,0.3352,
5.094506,0.3381,-0.8835,0.0217,-0.4544,0.3952,0.1734,0.0340,0.2507,0.3474,
5.101664,0.3381,-0.8835,0.0217,-0.4544,0.3952,0.1734,0.1812,0.2781,0.3468,
5.109854,0.2687,-0.8679,0.1168,-0.4544,0.3952,0.1734,0.1812,0.2781,0.3468,
5.112783,0.2687,-0.8679,0.1168,-1.0697,0.5747,1.0613,0.1812,0.2781,0.3468,
5.114885,0.2687,-0.8679,0.1168,-1.0697,0.5747,1.0613,0.4097,0.6245,0.4140,
5.121568,0.2687,-0.8679,0.1168,-1.0697,0.5747,1.0613,0.8330,1.3459,0.6553,
5.132628,0.4052,-0.9798,-0.1367,-1.0697,0.5747,1.0613,0.8330,1.3459,0.6553,
5.135530,0.4052,-0.9798,-0.1367,0.3679,-0.4849,-1.6037,0.8330,1.3459,0.6553,
5.138074,0.4052,-0.9798,-0.1367,0.3679,-0.4849,-1.6037,0.3492,0.0136,0.8117,
5.141562,0.4052,-0.9798,-0.1367,0.3679,-0.4849,-1.6037,-0.2225,-0.5948,0.5961,
5.149719,0.3369,-0.9569,0.1932,0.3679,-0.4849,-1.6037,-0.2225,-0.5948,0.5961,
5.152767,0.3369,-0.9569,0.1932,-0.1745,-0.2118,1.6362,-0.2225,-0.5948,0.5961,
5.154797,0.3369,-0.9569,0.1932,-0.1745,-0.2118,1.6362,-0.2793,-0.0859,0.4653,
5.161577,0.3369,-0.9569,0.1932,-0.1745,-0.2118,1.6362,-0.1266,0.5042,0.4446,
5.170014,0.2856,-0.8943,-0.0357,-0.1745,-0.2118,1.6362,-0.1266,0.5042,0.4446,
5.173250,0.2856,-0.8943,-0.0357,-0.5927,0.4345,-0.5842,-0.1266,0.5042,0.4446,
5.175219,0.2856,-0.8943,-0.0357,-0.5927,0.4345,-0.5842,-0.0869,0.6569,0.4965,
5.181996,0.2856,-0.8943,-0.0357,-0.5927,0.4345,-0.5842,-0.1486,0.4504,0.5521,
5.189731,0.3303,-0.9384,0.0914,-0.5927,0.4345,-0.5842,-0.1486,0.4504,0.5521,
5.192020,0.3303,-0.9384,0.0914,-0.0553,0.0380,0.6440,-0.1486,0.4504,0.5521,
5.193772,0.3303,-0.9384,0.0914,-0.0553,0.0380,0.6440,-0.1260,0.2183,0.5667,
5.201645,0.3303,-0.9384,0.0914,-0.0553,0.0380,0.6440,-0.0277,0.1358,0.5221,
5.209759,0.3093,-0.9843,0.0404,-0.0553,0.0380,0.6440,-0.0277,0.1358,0.5221,
5.212640,0.3093,-0.9843,0.0404,-0.1602,-0.3767,0.1462,-0.0277,0.1358,0.5221,
5.214748,0.3093,-0.9843,0.0404,-0.1602,-0.3767,0.1462,0.0279,0.1706,0.4641,
5.221681,0.3093,-0.9843,0.0404,-0.1602,-0.3767,0.1462,0.0267,0.1975,0.4427,
5.231843,0.2861,-0.9502,0.0147,-0.1602,-0.3767,0.1462,0.0267,0.1975,0.4427,
5.234397,0.2861,-0.9502,0.0147,-0.3024,-0.0143,-0.1235,0.0267,0.1975,0.4427,
5.236751,0.2861,-0.9502,0.0147,-0.3024,-0.0143,-0.1235,-0.0258,0.2183,0.4513,
5.241464,0.2861,-0.9502,0.0147,-0.3024,-0.0143,-0.1235,-0.0704,0.2439,0.4977,
5.250158,0.2766,-0.7649,0.0221,-0.3024,-0.0143,-0.1235,-0.0704,0.2439,0.4977,
5.252744,0.2766,-0.7649,0.0221,-0.3075,1.8306,-0.0561,-0.0704,0.2439,0.4977,
5.254389,0.2766,-0.7649,0.0221,-0.3075,1.8306,-0.0561,-0.1150,0.2879,0.5857,
5.261355,0.2766,-0.7649,0.0221,-0.3075,1.8306,-0.0561,-0.1712,0.3802,0.6474,
5.269543,0.3022,-0.6262,0.0066,-0.3075,1.8306,-0.0561,-0.1712,0.3802,0.6474,
5.271774,0.3022,-0.6262,0.0066,0.0529,3.2252,-0.2013,-0.1712,0.3802,0.6474,
5.273420,0.3022,-0.6262,0.0066,0.0529,3.2252,-0.2013,-0.2458,0.4584,0.6034,
5.281663,0.3022,-0.6262,0.0066,0.0529,3.2252,-0.2013,-0.3007,0.5335,0.4452,
5.289503,0.2520,-0.7621,0.0314,0.0529,3.2252,-0.2013,-0.3007,0.5335,0.4452,
5.291712,0.2520,-0.7621,0.0314,-0.3463,1.9218,0.0638,-0.3007,0.5335,0.4452,
5.293225,0.2520,-0.7621,0.0314,-0.3463,1.9218,0.0638,-0.3129,0.6489,0.1947,
5.301292,0.2520,-0.7621,0.0314,-0.3463,1.9218,0.0638,-0.2574,0.7125,-0.0490,
5.309527,0.1470,-0.9373,0.0161,-0.3463,1.9218,0.0638,-0.2574,0.7125,-0.0490,
5.311201,0.1470,-0.9373,0.0161,-1.3590,0.2106,-0.0706,-0.2574,0.7125,-0.0490,
5.313082,0.1470,-0.9373,0.0161,-1.3590,0.2106,-0.0706,-0.2280,0.6844,0.0524,
5.321235,0.1470,-0.9373,0.0161,-1.3590,0.2106,-0.0706,-0.2286,0.4913,0.3804,
5.332337,0.1836,-1.0031,0.0051,-1.3590,0.2106,-0.0706,-0.2286,0.4913,0.3804,
5.334896,0.1836,-1.0031,0.0051,-0.9539,-0.4209,-0.1680,-0.2286,0.4913,0.3804,
5.337889,0.1836,-1.0031,0.0051,-0.9539,-0.4209,-0.1680,-0.2574,0.2592,0.6107,
5.341401,0.1836,-1.0031,0.0051,-0.9539,-0.4209,-0.1680,-0.2848,0.2048,0.7347,
5.349734,0.1623,-1.0265,0.0232,-0.9539,-0.4209,-0.1680,-0.2848,0.2048,0.7347,
5.352731,0.1623,-1.0265,0.0232,-1.0288,-0.6107,0.0475,-0.2848,0.2048,0.7347,
5.354810,0.1623,-1.0265,0.0232,-1.0288,-0.6107,0.0475,-0.2482,0.2812,0.8374,
5.361491,0.1623,-1.0265,0.0232,-1.0288,-0.6107,0.0475,-0.2659,0.4235,1.0530,
5.370403,0.2464,-1.6928,0.0804,-1.0288,-0.6107,0.0475,-0.2659,0.4235,1.0530,
5.372934,0.2464,-1.6928,0.0804,-0.0160,-7.0900,0.6360,-0.2659,0.4235,1.0530,
5.374734,0.2464,-1.6928,0.0804,-0.0160,-7.0900,0.6360,-0.2488,0.3905,1.3144,
5.382470,0.2464,-1.6928,0.0804,-0.0160,-7.0900,0.6360,-0.0930,0.3728,1.4036,
5.389679,0.7130,-1.5821,0.0804,-0.0160,-7.0900,0.6360,-0.0930,0.3728,1.4036,
5.391901,0.7130,-1.5821,0.0804,4.8099,-5.9441,0.6473,-0.0930,0.3728,1.4036,
5.394116,0.7130,-1.5821,0.0804,4.8099,-5.9441,0.6473,0.1898,0.3722,1.0872,
5.402576,0.7130,-1.5821,0.0804,4.8099,-5.9441,0.6473,0.3822,0.1077,0.5814,
5.409632,0.0162,-0.9050,-0.0145,4.8099,-5.9441,0.6473,0.3822,0.1077,0.5814,
5.411621,0.0162,-0.9050,-0.0145,-1.8596,0.7251,-0.3479,0.3822,0.1077,0.5814,
5.413461,0.0162,-0.9050,-0.0145,-1.8596,0.7251,-0.3479,0.1941,0.0301,0.3328,
5.421199,0.0162,-0.9050,-0.0145,-1.8596,0.7251,-0.3479,-0.0332,0.2513,0.3438,
5.431888,0.1490,-0.9403,0.0685,-1.8596,0.7251,-0.3479,-0.0332,0.2513,0.3438,
5.434076,0.1490,-0.9403,0.0685,-0.4933,0.3921,0.4441,-0.0332,0.2513,0.3438,
5.436174,0.1490,-0.9403,0.0685,-0.4933,0.3921,0.4441,-0.0918,0.5506,0.4256,
5.441191,0.1490,-0.9403,0.0685,-0.4933,0.3921,0.4441,-0.0625,0.7339,0.5179,
5.449552,0.1942,-0.9196,0.0161,-0.4933,0.3921,0.4441,-0.0625,0.7339,0.5179,
5.452109,0.1942,-0.9196,0.0161,0.0420,0.6137,-0.0797,-0.0625,0.7339,0.5179,
5.453676,0.1942,-0.9196,0.0161,0.0420,0.6137,-0.0797,-0.0814,0.8456,0.7561,
5.461137,0.1942,-0.9196,0.0161,0.0420,0.6137,-0.0797,-0.1425,0.9678,1.0341,
5.469582,0.2281,-1.0287,0.0055,0.0420,0.6137,-0.0797,-0.1425,0.9678,1.0341,
5.471847,0.2281,-1.0287,0.0055,0.5467,-0.4237,-0.1945,-0.1425,0.9678,1.0341,
5.473526,0.2281,-1.0287,0.0055,0.5467,-0.4237,-0.1945,-0.2225,1.0100,1.0884,
5.481640,0.2281,-1.0287,0.0055,0.5467,-0.4237,-0.1945,-0.2757,0.8884,1.0359,
5.489447,0.0944,-0.9776,0.0156,0.5467,-0.4237,-0.1945,-0.2757,0.8884,1.0359,
5.491359,0.0944,-0.9776,0.0156,-0.5558,0.1110,-0.0769,-0.2757,0.8884,1.0359,
5.492950,0.0944,-0.9776,0.0156,-0.5558,0.1110,-0.0769,-0.3294,0.7870,0.9687,
5.501445,0.0944,-0.9776,0.0156,-0.5558,0.1110,-0.0769,-0.3166,0.6648,0.8648,
5.509645,0.0650,-0.9995,0.0633,-0.5558,0.1110,-0.0769,-0.3166,0.6648,0.8648,
5.512421,0.0650,-0.9995,0.0633,-0.6653,-0.0767,0.4312,-0.3166,0.6648,0.8648,
5.514673,0.0650,-0.9995,0.0633,-0.6653,-0.0767,0.4312,-0.2543,0.6001,0.7494,
5.521613,0.0650,-0.9995,0.0633,-0.6653,-0.0767,0.4312,-0.1944,0.5078,0.6034,
5.532600,0.0851,-1.0795,0.0456,-0.6653,-0.0767,0.4312,-0.1944,0.5078,0.6034,
5.535179,0.0851,-1.0795,0.0456,-0.3351,-0.8434,0.2859,-0.1944,0.5078,0.6034,
5.537671,0.0851,-1.0795,0.0456,-0.3351,-0.8434,0.2859,-0.1663,0.4223,0.4659,
5.541417,0.0851,-1.0795,0.0456,-0.3351,-0.8434,0.2859,-0.1700,0.3997,0.3157,
5.549713,0.0809,-1.0458,0.0553,-0.3351,-0.8434,0.2859,-0.1700,0.3997,0.3157,
5.552767,0.0809,-1.0458,0.0553,-0.3000,-0.5038,0.4027,-0.1700,0.3997,0.3157,
5.554962,0.0809,-1.0458,0.0553,-0.3000,-0.5038,0.4027,-0.1932,0.3887,0.1483,
5.561326,0.0809,-1.0458,0.0553,-0.3000,-0.5038,0.4027,-0.2537,0.3967,0.0206,
5.569899,0.0611,-1.0470,0.0837,-0.3000,-0.5038,0.4027,-0.2537,0.3967,0.0206,
5.572596,0.0611,-1.0470,0.0837,-0.4752,-0.5133,0.7104,-0.2537,0.3967,0.0206,
5.574478,0.0611,-1.0470,0.0837,-0.4752,-0.5133,0.7104,-0.3472,0.4816,-0.0136,
5.582311,0.0611,-1.0470,0.0837,-0.4752,-0.5133,0.7104,-0.3105,0.4785,0.0365,
5.589688,0.1187,-0.9447,0.0472,-0.4752,-0.5133,0.7104,-0.3105,0.4785,0.0365,
5.591841,0.1187,-0.9447,0.0472,0.0932,0.4895,0.4004,-0.3105,0.4785,0.0365,
5.593441,0.1187,-0.9447,0.0472,0.0932,0.4895,0.4004,-0.1413,0.3728,0.1092,
5.601607,0.1187,-0.9447,0.0472,0.0932,0.4895,0.4004,-0.0063,0.3270,0.1605,
5.609685,0.1268,-0.9218,-0.0060,0.0932,0.4895,0.4004,-0.0063,0.3270,0.1605,
5.612298,0.1268,-0.9218,-0.0060,0.1982,0.7174,-0.1166,-0.0063,0.3270,0.1605,
5.614551,0.1268,-0.9218,-0.0060,0.1982,0.7174,-0.1166,0.0352,0.2971,0.1587,
5.621624,0.1268,-0.9218,-0.0060,0.1982,0.7174,-0.1166,0.0175,0.2152,0.1275,
5.633300,0.1208,-0.9646,0.0337,0.1982,0.7174,-0.1166,0.0175,0.2152,0.1275,
5.635643,0.1208,-0.9646,0.0337,0.1664,0.3000,0.2591,0.0175,0.2152,0.1275,
5.638068,0.1208,-0.9646,0.0337,0.1664,0.3000,0.2591,0.0084,0.0998,0.0945,
5.641541,0.1208,-0.9646,0.0337,0.1664,0.3000,0.2591,0.0035,0.0509,0.0640,
5.649861,0.0920,-0.9596,0.0310,0.1664,0.3000,0.2591,0.0035,0.0509,0.0640,
5.653120,0.0920,-0.9596,0.0310,-0.1014,0.3505,0.2274,0.0035,0.0509,0.0640,
5.655297,0.0920,-0.9596,0.0310,-0.1014,0.3505,0.2274,0.0096,0.0491,0.0402,
5.661421,0.0920,-0.9596,0.0310,-0.1014,0.3505,0.2274,0.0450,0.0369,0.0304,
5.669799,0.0638,-1.0159,0.0099,-0.1014,0.3505,0.2274,0.0450,0.0369,0.0304,
5.672447,0.0638,-1.0159,0.0099,-0.3706,-0.2007,0.0126,0.0450,0.0369,0.0304,
5.674364,0.0638,-1.0159,0.0099,-0.3706,-0.2007,0.0126,0.1171,-0.0169,0.0133,
5.682891,0.0638,-1.0159,0.0099,-0.3706,-0.2007,0.0126,0.0401,0.1523,-0.0008,
5.689811,0.0825,-0.9930,0.0183,-0.3706,-0.2007,0.0126,0.0401,0.1523,-0.0008,
5.692036,0.0825,-0.9930,0.0183,-0.1855,0.0244,0.0774,0.0401,0.1523,-0.0008,
5.693409,0.0825,-0.9930,0.0183,-0.1855,0.0244,0.0774,-0.0509,0.1847,-0.0050,
5.701562,0.0825,-0.9930,0.0183,-0.1855,0.0244,0.0774,-0.0863,0.1370,-0.0014,
5.709702,0.0246,-0.9237,0.0219,-0.1855,0.0244,0.0774,-0.0863,0.1370,-0.0014,
5.712152,0.0246,-0.9237,0.0219,-0.7507,0.7035,0.1208,-0.0863,0.1370,-0.0014,
5.714059,0.0246,-0.9237,0.0219,-0.7507,0.7035,0.1208,-0.0607,0.0650,-0.0124,
5.721572,0.0246,-0.9237,0.0219,-0.7507,0.7035,0.1208,-0.0008,0.0118,0.0011,
5.732500,0.0690,-0.9791,-0.0062,-0.7507,0.7035,0.1208,-0.0008,0.0118,0.0011,
5.735606,0.0690,-0.9791,-0.0062,-0.3134,0.1614,-0.1500,-0.0008,0.0118,0.0011,
5.738044,0.0690,-0.9791,-0.0062,-0.3134,0.1614,-0.1500,0.0188,0.0894,0.0383,
5.741494,0.0690,-0.9791,-0.0062,-0.3134,0.1614,-0.1500,-0.0136,0.1871,0.0231,
5.750204,0.0938,-1.0081,0.0077,-0.3134,0.1614,-0.1500,-0.0136,0.1871,0.0231,
5.753214,0.0938,-1.0081,0.0077,-0.0625,-0.1227,-0.0171,-0.0136,0.1871,0.0231,
5.755108,0.0938,-1.0081,0.0077,-0.0625,-0.1227,-0.0171,-0.0338,0.1560,0.0194,
5.761327,0.0938,-1.0081,0.0077,-0.0625,-0.1227,-0.0171,-0.0295,0.0888,0.0035,
5.769967,0.0622,-1.0020,0.0061,-0.0625,-0.1227,-0.0171,-0.0295,0.0888,0.0035,
5.772865,0.0622,-1.0020,0.0061,-0.3678,-0.0624,-0.0291,-0.0295,0.0888,0.0035,
5.774494,0.0622,-1.0020,0.0061,-0.3678,-0.0624,-0.0291,-0.0381,0.0937,-0.0154,
5.782578,0.0622,-1.0020,0.0061,-0.3678,-0.0624,-0.0291,-0.0527,0.1383,-0.0295,
5.789671,0.0588,-1.0157,0.0183,-0.3678,-0.0624,-0.0291,-0.0527,0.1383,-0.0295,
5.791820,0.0588,-1.0157,0.0183,-0.3902,-0.1953,0.0946,-0.0527,0.1383,-0.0295,
5.793815,0.0588,-1.0157,0.0183,-0.3902,-0.1953,0.0946,-0.0600,0.1865,-0.0386,
5.801463,0.0588,-1.0157,0.0183,-0.3902,-0.1953,0.0946,-0.0723,0.2384,-0.0386,
5.809767,0.0630,-1.0100,0.0126,-0.3902,-0.1953,0.0946,-0.0723,0.2384,-0.0386,
5.811913,0.0630,-1.0100,0.0126,-0.3392,-0.1381,0.0443,-0.0723,0.2384,-0.0386,
5.814009,0.0630,-1.0100,0.0126,-0.3392,-0.1381,0.0443,-0.0796,0.2543,-0.0435,
5.823035,0.0630,-1.0100,0.0126,-0.3392,-0.1381,0.0443,-0.0772,0.2293,-0.0618,
5.830257,0.0186,-0.8818,0.0393,-0.3392,-0.1381,0.0443,-0.0772,0.2293,-0.0618,
5.832948,0.0186,-0.8818,0.0393,-0.7573,1.1194,0.3080,-0.0772,0.2293,-0.0618,
5.836932,0.0186,-0.8818,0.0393,-0.7573,1.1194,0.3080,-0.0729,0.1908,-0.0747,
5.841725,0.0186,-0.8818,0.0393,-0.7573,1.1194,0.3080,-0.0582,0.1694,-0.0570,
5.849588,-0.0020,-1.0043,0.0376,-0.7573,1.1194,0.3080,-0.0582,0.1694,-0.0570,
5.852878,-0.0020,-1.0043,0.0376,-0.9249,-0.0782,0.2855,-0.0582,0.1694,-0.0570,
5.854643,-0.0020,-1.0043,0.0376,-0.9249,-0.0782,0.2855,-0.0515,0.1413,-0.0001,
5.861281,-0.0020,-1.0043,0.0376,-0.9249,-0.0782,0.2855,-0.0582,0.0656,0.0280,
5.869771,0.0282,-0.9938,0.0536,-0.9249,-0.0782,0.2855,-0.0582,0.0656,0.0280,
5.872110,0.0282,-0.9938,0.0536,-0.5811,0.0290,0.4300,-0.0582,0.0656,0.0280,
5.873719,0.0282,-0.9938,0.0536,-0.5811,0.0290,0.4300,-0.0564,0.0136,0.0200,
5.883991,0.0282,-0.9938,0.0536,-0.5811,0.0290,0.4300,-0.0417,-0.0432,0.0084,
5.888931,0.0412,-0.9678,0.0649,-0.5811,0.0290,0.4300,-0.0417,-0.0432,0.0084,
5.890393,0.0412,-0.9678,0.0649,-0.4124,0.2874,0.5229,-0.0417,-0.0432,0.0084,
5.891429,0.0412,-0.9678,0.0649,-0.4124,0.2874,0.5229,-0.0399,-0.0560,0.0066,
5.900713,0.0412,-0.9678,0.0649,-0.4124,0.2874,0.5229,-0.0552,-0.0743,0.0121,
5.908908,0.1280,-0.9960,0.0333,-0.4124,0.2874,0.5229,-0.0552,-0.0743,0.0121,
5.910360,0.1280,-0.9960,0.0333,0.4515,0.0118,0.2079,-0.0552,-0.0743,0.0121,
5.911328,0.1280,-0.9960,0.0333,0.4515,0.0118,0.2079,-0.0833,-0.1275,0.0188,
5.920739,0.1280,-0.9960,0.0333,0.4515,0.0118,0.2079,-0.1114,-0.1861,0.0133,
5.929052,0.1286,-0.9817,0.0121,0.4515,0.0118,0.2079,-0.1114,-0.1861,0.0133,
5.931566,0.1286,-0.9817,0.0121,0.4603,0.1523,0.0117,-0.1114,-0.1861,0.0133,
5.933587,0.1286,-0.9817,0.0121,0.4603,0.1523,0.0117,-0.1321,-0.2374,0.0047,
5.941605,0.1286,-0.9817,0.0121,0.4603,0.1523,0.0117,-0.1413,-0.2955,0.0054,
5.950808,0.1123,-0.9688,0.0309,0.4603,0.1523,0.0117,-0.1413,-0.2955,0.0054,
5.953738,0.1123,-0.9688,0.0309,0.2962,0.2790,0.2157,-0.1413,-0.2955,0.0054,
5.955723,0.1123,-0.9688,0.0309,0.2962,0.2790,0.2157,-0.1425,-0.3156,0.0164,
5.961463,0.1123,-0.9688,0.0309,0.2962,0.2790,0.2157,-0.1340,-0.2887,0.0225,
5.969930,0.1212,-0.9682,0.0480,0.2962,0.2790,0.2157,-0.1340,-0.2887,0.0225,
5.973089,0.1212,-0.9682,0.0480,0.3767,0.2846,0.3977,-0.1340,-0.2887,0.0225,
5.975102,0.1212,-0.9682,0.0480,0.3767,0.2846,0.3977,-0.1199,-0.2557,0.0273,
5.982957,0.1212,-0.9682,0.0480,0.3767,0.2846,0.3977,-0.1132,-0.2209,0.0341,
5.989749,0.1366,-0.9703,0.0511,0.3767,0.2846,0.3977,-0.1132,-0.2209,0.0341,
5.992433,0.1366,-0.9703,0.0511,0.5294,0.2645,0.4494,-0.1132,-0.2209,0.0341,
5.994346,0.1366,-0.9703,0.0511,0.5294,0.2645,0.4494,-0.1187,-0.1910,0.0304,
6.001677,0.1366,-0.9703,0.0511,0.5294,0.2645,0.4494,-0.1211,-0.1507,0.0243,
6.009794,0.1474,-0.9635,0.0487,0.5294,0.2645,0.4494,-0.1211,-0.1507,0.0243,
6.012174,0.1474,-0.9635,0.0487,0.6350,0.3304,0.4465,-0.1211,-0.1507,0.0243,
6.014536,0.1474,-0.9635,0.0487,0.6350,0.3304,0.4465,-0.1138,-0.1012,0.0121,
6.021665,0.1474,-0.9635,0.0487,0.6350,0.3304,0.4465,-0.1071,-0.0639,-0.0130,
6.029950,0.1362,-0.9543,0.0346,0.6350,0.3304,0.4465,-0.1071,-0.0639,-0.0130,
6.032631,0.1362,-0.9543,0.0346,0.4888,0.4183,0.2977,-0.1071,-0.0639,-0.0130,
6.034691,0.1362,-0.9543,0.0346,0.4888,0.4183,0.2977,-0.0985,-0.0395,-0.0325,
6.041541,0.1362,-0.9543,0.0346,0.4888,0.4183,0.2977,-0.0759,-0.0523,-0.0417,
6.050975,0.1357,-0.9547,0.0140,0.4888,0.4183,0.2977,-0.0759,-0.0523,-0.0417,
6.053886,0.1357,-0.9547,0.0140,0.4439,0.4099,0.0907,-0.0759,-0.0523,-0.0417,
6.055803,0.1357,-0.9547,0.0140,0.4439,0.4099,0.0907,0.0805,-0.2771,-0.0386,
6.061342,0.1357,-0.9547,0.0140,0.4439,0.4099,0.0907,0.0297,-0.1910,-0.0472,
6.069958,0.0530,-0.9745,-0.0082,0.4439,0.4099,0.0907,0.0297,-0.1910,-0.0472,
6.072951,0.0530,-0.9745,-0.0082,-0.3835,0.2143,-0.1415,0.0297,-0.1910,-0.0472,
6.074903,0.0530,-0.9745,-0.0082,-0.3835,0.2143,-0.1415,-0.0576,-0.1152,-0.0423,
6.083324,0.0530,-0.9745,-0.0082,-0.3835,0.2143,-0.1415,-0.0967,-0.1146,-0.0368,
6.089948,0.0799,-1.0020,-0.0247,-0.3835,0.2143,-0.1415,-0.0967,-0.1146,-0.0368,
6.092299,0.0799,-1.0020,-0.0247,-0.1285,-0.0557,-0.2862,-0.0967,-0.1146,-0.0368,
6.093935,0.0799,-1.0020,-0.0247,-0.1285,-0.0557,-0.2862,-0.1010,-0.1214,-0.0276,
6.101933,0.0799,-1.0020,-0.0247,-0.1285,-0.0557,-0.2862,-0.1162,-0.0737,-0.0148,
6.109934,0.1097,-1.0024,-0.0453,-0.1285,-0.0557,-0.2862,-0.1162,-0.0737,-0.0148,
6.112619,0.1097,-1.0024,-0.0453,0.1587,-0.0597,-0.4650,-0.1162,-0.0737,-0.0148,
6.114483,0.1097,-1.0024,-0.0453,0.1587,-0.0597,-0.4650,-0.1480,0.0081,-0.0105,
6.121686,0.1097,-1.0024,-0.0453,0.1587,-0.0597,-0.4650,-0.1749,0.0582,-0.0160,
6.130018,0.1261,-0.9814,-0.0629,0.1587,-0.0597,-0.4650,-0.1749,0.0582,-0.0160,
6.132845,0.1261,-0.9814,-0.0629,0.3150,0.1458,-0.6045,-0.1749,0.0582,-0.0160,
6.134793,0.1261,-0.9814,-0.0629,0.3150,0.1458,-0.6045,-0.1999,0.0491,-0.0227,
6.142008,0.1261,-0.9814,-0.0629,0.3150,0.1458,-0.6045,-0.2183,0.0057,-0.0319,
6.150215,0.0954,-0.9688,-0.0660,0.3150,0.1458,-0.6045,-0.2183,0.0057,-0.0319,
6.152712,0.0954,-0.9688,-0.0660,0.0028,0.2678,-0.5793,-0.2183,0.0057,-0.0319,
6.154289,0.0954,-0.9688,-0.0660,0.0028,0.2678,-0.5793,-0.2299,-0.0218,-0.0466,
6.161222,0.0954,-0.9688,-0.0660,0.0028,0.2678,-0.5793,-0.2262,-0.0438,-0.0563,
6.169463,0.0716,-0.9940,-0.0458,0.0028,0.2678,-0.5793,-0.2262,-0.0438,-0.0563,
6.171990,0.0716,-0.9940,-0.0458,-0.2410,0.0197,-0.3248,-0.2262,-0.0438,-0.0563,
6.173498,0.0716,-0.9940,-0.0458,-0.2410,0.0197,-0.3248,-0.2152,-0.0566,-0.0661,
6.182725,0.0716,-0.9940,-0.0458,-0.2410,0.0197,-0.3248,-0.1975,-0.0181,-0.0789,
6.189502,0.0799,-1.0155,-0.0159,-0.2410,0.0197,-0.3248,-0.1975,-0.0181,-0.0789,
6.191730,0.0799,-1.0155,-0.0159,-0.1717,-0.1929,0.0146,-0.1975,-0.0181,-0.0789,
6.193234,0.0799,-1.0155,-0.0159,-0.1717,-0.1929,0.0146,-0.1761,0.0381,-0.0918,
6.201501,0.0799,-1.0155,-0.0159,-0.1717,-0.1929,0.0146,-0.1492,0.0491,-0.1046,
6.209703,0.0997,-1.0285,0.0084,-0.1717,-0.1929,0.0146,-0.1492,0.0491,-0.1046,
6.212083,0.0997,-1.0285,0.0084,0.0045,-0.3233,0.2837,-0.1492,0.0491,-0.1046,
6.214266,0.0997,-1.0285,0.0084,0.0045,-0.3233,0.2837,-0.1224,0.0259,-0.1138,
6.221647,0.0997,-1.0285,0.0084,0.0045,-0.3233,0.2837,-0.1034,0.0088,-0.1046,
6.230036,0.1250,-1.0081,0.0360,0.0045,-0.3233,0.2837,-0.1034,0.0088,-0.1046,
6.232646,0.1250,-1.0081,0.0360,0.2309,-0.1259,0.5692,-0.1034,0.0088,-0.1046,
6.234844,0.1250,-1.0081,0.0360,0.2309,-0.1259,0.5692,-0.0655,-0.0523,-0.0973,
6.241698,0.1250,-1.0081,0.0360,0.2309,-0.1259,0.5692,-0.0478,-0.0981,-0.0881,
6.250376,0.1353,-0.9784,0.0175,0.2309,-0.1259,0.5692,-0.0478,-0.0981,-0.0881,
6.253573,0.1353,-0.9784,0.0175,0.3113,0.1628,0.3886,-0.0478,-0.0981,-0.0881,
6.255919,0.1353,-0.9784,0.0175,0.3113,0.1628,0.3886,-0.0448,-0.0755,-0.0759,
6.261439,0.1353,-0.9784,0.0175,0.3113,0.1628,0.3886,-0.0491,-0.0053,-0.0808,
6.269950,0.1331,-0.9726,0.0155,0.3113,0.1628,0.3886,-0.0491,-0.0053,-0.0808,
6.272982,0.1331,-0.9726,0.0155,0.2682,0.2181,0.3649,-0.0491,-0.0053,-0.0808,
6.274597,0.1331,-0.9726,0.0155,0.2682,0.2181,0.3649,-0.0448,0.0295,-0.0851,
6.282885,0.1331,-0.9726,0.0155,0.2682,0.2181,0.3649,-0.0503,0.0149,-0.0857,
6.289753,0.1234,-0.9759,0.0088,0.2682,0.2181,0.3649,-0.0503,0.0149,-0.0857,
6.291891,0.1234,-0.9759,0.0088,0.1493,0.1834,0.2931,-0.0503,0.0149,-0.0857,
6.293505,0.1234,-0.9759,0.0088,0.1493,0.1834,0.2931,-0.0674,-0.0193,-0.0857,
6.301544,0.1234,-0.9759,0.0088,0.1493,0.1834,0.2931,-0.0839,-0.0407,-0.0814,
6.309852,0.1097,-0.9780,0.0100,0.1493,0.1834,0.2931,-0.0839,-0.0407,-0.0814,
6.311773,0.1097,-0.9780,0.0100,-0.0050,0.1608,0.3051,-0.0839,-0.0407,-0.0814,
6.313862,0.1097,-0.9780,0.0100,-0.0050,0.1608,0.3051,-0.0808,-0.0682,-0.0692,
6.321783,0.1097,-0.9780,0.0100,-0.0050,0.1608,0.3051,-0.0717,-0.0945,-0.0612,
6.330116,0.1200,-0.9717,-0.0292,-0.0050,0.1608,0.3051,-0.0717,-0.0945,-0.0612,
6.332938,0.1200,-0.9717,-0.0292,0.0801,0.2200,-0.0708,-0.0717,-0.0945,-0.0612,
6.335434,0.1200,-0.9717,-0.0292,0.0801,0.2200,-0.0708,-0.0784,-0.1110,-0.0600,
6.341659,0.1200,-0.9717,-0.0292,0.0801,0.2200,-0.0708,-0.0979,-0.1036,-0.0679,
6.349882,0.0721,-0.9604,-0.0126,0.0801,0.2200,-0.0708,-0.0979,-0.1036,-0.0679,
6.352752,0.0721,-0.9604,-0.0126,-0.3988,0.3299,0.1043,-0.0979,-0.1036,-0.0679,
6.355141,0.0721,-0.9604,-0.0126,-0.3988,0.3299,0.1043,-0.1022,-0.1030,-0.0637,
6.361479,0.0721,-0.9604,-0.0126,-0.3988,0.3299,0.1043,-0.0808,-0.1195,-0.0435,
6.369998,0.0773,-0.9639,-0.0171,-0.3988,0.3299,0.1043,-0.0808,-0.1195,-0.0435,
6.372615,0.0773,-0.9639,-0.0171,-0.3515,0.2944,0.0736,-0.0808,-0.1195,-0.0435,
6.374610,0.0773,-0.9639,-0.0171,-0.3515,0.2944,0.0736,-0.0717,-0.0981,-0.0240,
6.383208,0.0773,-0.9639,-0.0171,-0.3515,0.2944,0.0736,-0.0662,-0.0817,-0.0032,
6.390502,0.0920,-0.9621,-0.0294,-0.3515,0.2944,0.0736,-0.0662,-0.0817,-0.0032,
6.392445,0.0920,-0.9621,-0.0294,-0.2042,0.3125,-0.0364,-0.0662,-0.0817,-0.0032,
6.394187,0.0920,-0.9621,-0.0294,-0.2042,0.3125,-0.0364,-0.0552,-0.1049,0.0212,
6.401613,0.0920,-0.9621,-0.0294,-0.2042,0.3125,-0.0364,-0.0564,-0.1159,0.0432,
6.409893,0.1198,-0.9538,-0.0232,-0.2042,0.3125,-0.0364,-0.0564,-0.1159,0.0432,
6.411974,0.1198,-0.9538,-0.0232,0.0776,0.3946,0.0349,-0.0564,-0.1159,0.0432,
6.413911,0.1198,-0.9538,-0.0232,0.0776,0.3946,0.0349,-0.0784,-0.0591,0.0768,
6.421329,0.1198,-0.9538,-0.0232,0.0776,0.3946,0.0349,-0.0869,-0.0609,0.0774,
6.429824,0.1501,-0.9858,-0.0314,0.0776,0.3946,0.0349,-0.0869,-0.0609,0.0774,
6.431922,0.1501,-0.9858,-0.0314,0.3874,0.0820,-0.0302,-0.0869,-0.0609,0.0774,
6.434505,0.1501,-0.9858,-0.0314,0.3874,0.0820,-0.0302,-0.0991,-0.0957,0.0689,
6.441230,0.1501,-0.9858,-0.0314,0.3874,0.0820,-0.0302,-0.1126,-0.1311,0.0554,
6.449411,0.1430,-0.9951,-0.0439,0.3874,0.0820,-0.0302,-0.1126,-0.1311,0.0554,
6.452304,0.1430,-0.9951,-0.0439,0.3251,-0.0088,-0.1303,-0.1126,-0.1311,0.0554,
6.453680,0.1430,-0.9951,-0.0439,0.3251,-0.0088,-0.1303,-0.1175,-0.1446,0.0408,
6.460965,0.1430,-0.9951,-0.0439,0.3251,-0.0088,-0.1303,-0.1120,-0.1440,0.0255,
6.469316,0.1236,-0.9888,-0.0485,0.3251,-0.0088,-0.1303,-0.1120,-0.1440,0.0255,
6.471729,0.1236,-0.9888,-0.0485,0.1366,0.0516,-0.1503,-0.1120,-0.1440,0.0255,
6.472905,0.1236,-0.9888,-0.0485,0.1366,0.0516,-0.1503,-0.1010,-0.1379,0.0176,
6.482333,0.1236,-0.9888,-0.0485,0.1366,0.0516,-0.1503,-0.0833,-0.1256,0.0170,
6.488852,0.1198,-0.9729,-0.0453,0.1366,0.0516,-0.1503,-0.0833,-0.1256,0.0170,
6.489864,0.1198,-0.9729,-0.0453,0.0986,0.2064,-0.0978,-0.0833,-0.1256,0.0170,
6.490890,0.1198,-0.9729,-0.0453,0.0986,0.2064,-0.0978,-0.0637,-0.1000,0.0188,
6.500659,0.1198,-0.9729,-0.0453,0.0986,0.2064,-0.0978,-0.0466,-0.0633,0.0249,
6.508768,0.1335,-0.9760,-0.0425,0.0986,0.2064,-0.0978,-0.0466,-0.0633,0.0249,
6.509783,0.1335,-0.9760,-0.0425,0.2307,0.1758,-0.0571,-0.0466,-0.0633,0.0249,
6.510634,0.1335,-0.9760,-0.0425,0.2307,0.1758,-0.0571,-0.0313,-0.0517,0.0390,
6.520510,0.1335,-0.9760,-0.0425,0.2307,0.1758,-0.0571,-0.0228,-0.0774,0.0536,
6.529312,0.1434,-0.9705,-0.0452,0.2307,0.1758,-0.0571,-0.0228,-0.0774,0.0536,
6.530444,0.1434,-0.9705,-0.0452,0.3269,0.2293,-0.0753,-0.0228,-0.0774,0.0536,
6.531312,0.1434,-0.9705,-0.0452,0.3269,0.2293,-0.0753,-0.0252,-0.1140,0.0640,
6.540533,0.1434,-0.9705,-0.0452,0.3269,0.2293,-0.0753,-0.0319,-0.1379,0.0689,
6.548757,0.1382,-0.9705,-0.0386,0.3269,0.2293,-0.0753,-0.0319,-0.1379,0.0689,
6.550054,0.1382,-0.9705,-0.0386,0.2772,0.2291,-0.0015,-0.0319,-0.1379,0.0689,
6.551024,0.1382,-0.9705,-0.0386,0.2772,0.2291,-0.0015,-0.0387,-0.1464,0.0756,
6.560623,0.1382,-0.9705,-0.0386,0.2772,0.2291,-0.0015,-0.0478,-0.1458,0.0842,
6.568875,0.1511,-0.9585,-0.0281,0.2772,0.2291,-0.0015,-0.0478,-0.1458,0.0842,
6.570140,0.1511,-0.9585,-0.0281,0.4038,0.3460,0.1117,-0.0478,-0.1458,0.0842,
6.571035,0.1511,-0.9585,-0.0281,0.4038,0.3460,0.1117,-0.0631,-0.1342,0.0848,
6.581728,0.1511,-0.9585,-0.0281,0.4038,0.3460,0.1117,-0.0912,-0.0792,0.0805,
6.588860,0.1771,-0.9649,-0.0292,0.4038,0.3460,0.1117,-0.0912,-0.0792,0.0805,
6.590887,0.1771,-0.9649,-0.0292,0.6478,0.2820,0.1143,-0.0912,-0.0792,0.0805,
6.592664,0.1771,-0.9649,-0.0292,0.6478,0.2820,0.1143,-0.1309,0.0118,0.0750,
6.601656,0.1771,-0.9649,-0.0292,0.6478,0.2820,0.1143,-0.1865,0.0540,0.0787,
6.609424,0.1459,-0.9805,-0.0313,0.6478,0.2820,0.1143,-0.1865,0.0540,0.0787,
6.611216,0.1459,-0.9805,-0.0313,0.3306,0.1265,0.1182,-0.1865,0.0540,0.0787,
6.613093,0.1459,-0.9805,-0.0313,0.3306,0.1265,0.1182,-0.2054,-0.0352,0.0921,
6.621316,0.1459,-0.9805,-0.0313,0.3306,0.1265,0.1182,-0.2195,-0.1269,0.1007,
6.629811,0.0882,-0.9794,-0.0315,0.3306,0.1265,0.1182,-0.2195,-0.1269,0.1007,
6.632325,0.0882,-0.9794,-0.0315,-0.2262,0.1366,0.1521,-0.2195,-0.1269,0.1007,
6.634228,0.0882,-0.9794,-0.0315,-0.2262,0.1366,0.1521,-0.2262,-0.1794,0.1061,
6.641953,0.0882,-0.9794,-0.0315,-0.2262,0.1366,0.1521,-0.2195,-0.2209,0.1159,
6.650719,0.0478,-0.9985,-0.0250,-0.2262,0.1366,0.1521,-0.2195,-0.2209,0.1159,
6.653329,0.0478,-0.9985,-0.0250,-0.5993,-0.0496,0.2550,-0.2195,-0.2209,0.1159,
6.655709,0.0478,-0.9985,-0.0250,-0.5993,-0.0496,0.2550,-0.1975,-0.2814,0.1318,
6.661387,0.0478,-0.9985,-0.0250,-0.5993,-0.0496,0.2550,-0.1694,-0.3547,0.1471,
6.669738,0.0463,-0.9842,-0.0037,-0.5993,-0.0496,0.2550,-0.1694,-0.3547,0.1471,
6.672710,0.0463,-0.9842,-0.0037,-0.5762,0.0932,0.4896,-0.1694,-0.3547,0.1471,
6.674591,0.0463,-0.9842,-0.0037,-0.5762,0.0932,0.4896,-0.1413,-0.3999,0.1599,
6.683324,0.0463,-0.9842,-0.0037,-0.5762,0.0932,0.4896,-0.1059,-0.4042,0.1703,
6.689765,0.0680,-0.9797,0.0048,-0.5762,0.0932,0.4896,-0.1059,-0.4042,0.1703,
6.692504,0.0680,-0.9797,0.0048,-0.3247,0.1400,0.5992,-0.1059,-0.4042,0.1703,
6.694245,0.0680,-0.9797,0.0048,-0.3247,0.1400,0.5992,-0.0625,-0.3895,0.1788,
6.701646,0.0680,-0.9797,0.0048,-0.3247,0.1400,0.5992,-0.0265,-0.3700,0.1849,
6.709813,0.1167,-0.9921,-0.0064,-0.3247,0.1400,0.5992,-0.0265,-0.3700,0.1849,
6.712583,0.1167,-0.9921,-0.0064,0.1918,0.0213,0.5005,-0.0265,-0.3700,0.1849,
6.714666,0.1167,-0.9921,-0.0064,0.1918,0.0213,0.5005,-0.0051,-0.3596,0.1782,
6.721691,0.1167,-0.9921,-0.0064,0.1918,0.0213,0.5005,0.0096,-0.3297,0.1617,
6.730027,0.1807,-1.0207,-0.0050,0.1918,0.0213,0.5005,0.0096,-0.3297,0.1617,
6.732439,0.1807,-1.0207,-0.0050,0.8526,-0.2556,0.5128,0.0096,-0.3297,0.1617,
6.734672,0.1807,-1.0207,-0.0050,0.8526,-0.2556,0.5128,0.0334,-0.2729,0.1440,
6.748522,0.1807,-1.0207,-0.0050,0.8526,-0.2556,0.5128,0.0737,-0.2380,0.1116,
6.753554,0.2017,-1.0407,-0.0191,0.8526,-0.2556,0.5128,0.0737,-0.2380,0.1116,
6.755589,0.2017,-1.0407,-0.0191,1.0781,-0.4493,0.3618,0.0737,-0.2380,0.1116,
6.757418,0.2017,-1.0407,-0.0191,1.0781,-0.4493,0.3618,0.1287,-0.2582,0.0017,
6.761554,0.2017,-1.0407,-0.0191,1.0781,-0.4493,0.3618,0.1287,-0.2582,0.0017,
6.769904,0.1942,-1.0622,-0.0127,1.0781,-0.4493,0.3618,0.1287,-0.2582,0.0017,
6.772836,0.1942,-1.0622,-0.0127,0.9972,-0.6592,0.3960,0.1287,-0.2582,0.0017,
6.774747,0.1942,-1.0622,-0.0127,0.9972,-0.6592,0.3960,0.1281,-0.3174,-0.0570,
6.784178,0.1942,-1.0622,-0.0127,0.9972,-0.6592,0.3960,0.1861,-0.6333,-0.1296,
6.789853,0.0947,-1.0473,0.0406,0.9972,-0.6592,0.3960,0.1861,-0.6333,-0.1296,
6.792579,0.0947,-1.0473,0.0406,0.0012,-0.5134,0.8868,0.1861,-0.6333,-0.1296,
6.794335,0.0947,-1.0473,0.0406,0.0012,-0.5134,0.8868,0.2558,-0.8672,-0.1034,
6.801610,0.0947,-1.0473,0.0406,0.0012,-0.5134,0.8868,0.3596,-1.1287,-0.0289,
6.809778,-0.0586,-1.0343,0.1344,0.0012,-0.5134,0.8868,0.3596,-1.1287,-0.0289,
6.812133,-0.0586,-1.0343,0.1344,-1.5020,-0.3827,1.7475,0.3596,-1.1287,-0.0289,
6.814507,-0.0586,-1.0343,0.1344,-1.5020,-0.3827,1.7475,0.5148,-1.4396,0.0927,
6.821660,-0.0586,-1.0343,0.1344,-1.5020,-0.3827,1.7475,0.7005,-1.7628,0.2320,
6.830592,-0.0890,-0.9842,0.1430,-1.5020,-0.3827,1.7475,0.7005,-1.7628,0.2320,
6.832255,-0.0890,-0.9842,0.1430,-1.7417,0.1180,1.7163,0.7005,-1.7628,0.2320,
6.835001,-0.0890,-0.9842,0.1430,-1.7417,0.1180,1.7163,0.8874,-2.0444,0.3621,
6.841562,-0.0890,-0.9842,0.1430,-1.7417,0.1180,1.7163,1.0823,-2.2661,0.4708,
6.850990,-0.0332,-0.8910,0.1586,-1.7417,0.1180,1.7163,1.0823,-2.2661,0.4708,
6.853556,-0.0332,-0.8910,0.1586,-1.0852,1.0447,1.6795,1.0823,-2.2661,0.4708,
6.855826,-0.0332,-0.8910,0.1586,-1.0852,1.0447,1.6795,1.2912,-2.3962,0.5472,
6.861540,-0.0332,-0.8910,0.1586,-1.0852,1.0447,1.6795,1.5074,-2.3724,0.5967,
6.869890,0.0149,-0.8193,0.1528,-1.0852,1.0447,1.6795,1.5074,-2.3724,0.5967,
6.872813,0.0149,-0.8193,0.1528,-0.4879,1.7561,1.3542,1.5074,-2.3724,0.5967,
6.874840,0.0149,-0.8193,0.1528,-0.4879,1.7561,1.3542,1.7151,-2.1519,0.6217,
6.884079,0.0149,-0.8193,0.1528,-0.4879,1.7561,1.3542,1.8843,-1.7316,0.6333,
6.889811,0.0138,-0.9291,0.2326,-0.4879,1.7561,1.3542,1.8843,-1.7316,0.6333,
6.892541,0.0138,-0.9291,0.2326,-0.3779,0.6753,1.7796,1.8843,-1.7316,0.6333,
6.894452,0.0138,-0.9291,0.2326,-0.3779,0.6753,1.7796,2.0181,-1.1782,0.6480,
6.904368,0.0138,-0.9291,0.2326,-0.3779,0.6753,1.7796,2.1330,-0.5887,0.6639,
6.909782,0.0535,-1.1700,0.4539,-0.3779,0.6753,1.7796,2.1330,-0.5887,0.6639,
6.912477,0.0535,-1.1700,0.4539,0.1321,-1.7120,3.5107,2.1330,-0.5887,0.6639,
6.914332,0.0535,-1.1700,0.4539,0.1321,-1.7120,3.5107,2.2166,-0.0609,0.6785,
6.921685,0.0535,-1.1700,0.4539,0.1321,-1.7120,3.5107,2.2154,0.4614,0.6950,
6.929829,0.1261,-1.2497,0.5591,0.1321,-1.7120,3.5107,2.2154,0.4614,0.6950,
6.932581,0.1261,-1.2497,0.5591,0.9739,-2.5478,4.0591,2.2154,0.4614,0.6950,
6.934907,0.1261,-1.2497,0.5591,0.9739,-2.5478,4.0591,2.1470,0.9776,0.6785,
6.941708,0.1261,-1.2497,0.5591,0.9739,-2.5478,4.0591,2.1476,1.3698,0.6413,
6.950468,0.1626,-1.1499,0.3764,0.9739,-2.5478,4.0591,2.1476,1.3698,0.6413,
6.953898,0.1626,-1.1499,0.3764,1.4794,-1.6436,1.8175,2.1476,1.3698,0.6413,
6.956312,0.1626,-1.1499,0.3764,1.4794,-1.6436,1.8175,2.2930,1.4070,0.5588,
6.961668,0.1626,-1.1499,0.3764,1.4794,-1.6436,1.8175,2.4011,0.7167,0.3920,
6.969761,0.0827,-1.0280,0.0679,1.4794,-1.6436,1.8175,2.4011,0.7167,0.3920,
6.972404,0.0827,-1.0280,0.0679,0.8166,-0.5472,-1.6572,2.4011,0.7167,0.3920,
6.974536,0.0827,-1.0280,0.0679,0.8166,-0.5472,-1.6572,2.2814,0.3533,0.3077,
6.983986,0.0827,-1.0280,0.0679,0.8166,-0.5472,-1.6572,2.0584,0.1212,0.2344,
6.989771,0.0635,-0.9753,-0.1016,0.8166,-0.5472,-1.6572,2.0584,0.1212,0.2344,
6.992518,0.0635,-0.9753,-0.1016,0.6636,-0.1270,-3.6853,2.0584,0.1212,0.2344,
6.994456,0.0635,-0.9753,-0.1016,0.6636,-0.1270,-3.6853,1.5942,0.0821,0.1666,
7.001791,0.0635,-0.9753,-0.1016,0.6636,-0.1270,-3.6853,1.0554,0.2580,0.0536,
7.009707,0.1280,-1.0113,0.1628,0.6636,-0.1270,-3.6853,1.0554,0.2580,0.0536,
7.012154,0.1280,-1.0113,0.1628,1.2891,-0.5376,-1.2873,1.0554,0.2580,0.0536,
7.014364,0.1280,-1.0113,0.1628,1.2891,-0.5376,-1.2873,0.7561,0.5585,-0.0753,
7.021888,0.1280,-1.0113,0.1628,1.2891,-0.5376,-1.2873,0.7225,0.8542,-0.1975,
7.029845,0.0333,-1.0251,0.2733,1.2891,-0.5376,-1.2873,0.7225,0.8542,-0.1975,
7.032546,0.0333,-1.0251,0.2733,0.3512,-0.7027,-0.3005,0.7225,0.8542,-0.1975,
7.034623,0.0333,-1.0251,0.2733,0.3512,-0.7027,-0.3005,0.7689,1.0558,-0.2995,
7.041713,0.0333,-1.0251,0.2733,0.3512,-0.7027,-0.3005,0.7634,1.1401,-0.3783,
7.050516,0.0021,-0.9574,0.2872,0.3512,-0.7027,-0.3005,0.7634,1.1401,-0.3783,
7.053597,0.0021,-0.9574,0.2872,0.0321,-0.0757,-0.2754,0.7634,1.1401,-0.3783,
7.055897,0.0021,-0.9574,0.2872,0.0321,-0.0757,-0.2754,0.7066,1.1187,-0.4546,
7.061438,0.0021,-0.9574,0.2872,0.0321,-0.0757,-0.2754,0.6382,0.9984,-0.5346,
7.069827,0.0314,-0.9036,0.3271,0.0321,-0.0757,-0.2754,0.6382,0.9984,-0.5346,
7.072558,0.0314,-0.9036,0.3271,0.2832,0.4166,0.0107,0.6382,0.9984,-0.5346,
7.074593,0.0314,-0.9036,0.3271,0.2832,0.4166,0.0107,0.5722,0.8701,-0.6464,
7.083867,0.0314,-0.9036,0.3271,0.2832,0.4166,0.0107,0.5044,0.8059,-0.7717,
7.089736,0.0770,-0.8928,0.3645,0.2832,0.4166,0.0107,0.5044,0.8059,-0.7717,
7.091850,0.0770,-0.8928,0.3645,0.6440,0.4897,0.2869,0.5044,0.8059,-0.7717,
7.093470,0.0770,-0.8928,0.3645,0.6440,0.4897,0.2869,0.4451,0.7894,-0.9006,
7.102555,0.0770,-0.8928,0.3645,0.6440,0.4897,0.2869,0.3908,0.7754,-1.0233,
7.109740,0.1080,-0.9149,0.3685,0.6440,0.4897,0.2869,0.3908,0.7754,-1.0233,
7.112485,0.1080,-0.9149,0.3685,0.8151,0.2440,0.2527,0.3908,0.7754,-1.0233,
7.114688,0.1080,-0.9149,0.3685,0.8151,0.2440,0.2527,0.3376,0.7711,-1.1418,
7.121534,0.1080,-0.9149,0.3685,0.8151,0.2440,0.2527,0.2918,0.7363,-1.2402,
7.129823,0.0450,-0.9159,0.3340,0.8151,0.2440,0.2527,0.2918,0.7363,-1.2402,
7.132545,0.0450,-0.9159,0.3340,0.0268,0.2067,-0.1447,0.2918,0.7363,-1.2402,
7.134652,0.0450,-0.9159,0.3340,0.0268,0.2067,-0.1447,0.2405,0.7222,-1.3056,
7.141523,0.0450,-0.9159,0.3340,0.0268,0.2067,-0.1447,0.2057,0.6819,-1.3068,
7.151436,-0.0462,-0.8592,0.3357,0.0268,0.2067,-0.1447,0.2057,0.6819,-1.3068,
7.154337,-0.0462,-0.8592,0.3357,-1.0543,0.7348,-0.1731,0.2057,0.6819,-1.3068,
7.156479,-0.0462,-0.8592,0.3357,-1.0543,0.7348,-0.1731,0.1611,0.7088,-1.1773,
7.161483,-0.0462,-0.8592,0.3357,-1.0543,0.7348,-0.1731,0.1464,0.7241,-1.0759,
7.169848,-0.0866,-0.8172,0.3810,-1.0543,0.7348,-0.1731,0.1464,0.7241,-1.0759,
7.173001,-0.0866,-0.8172,0.3810,-1.5917,1.1220,0.2337,0.1464,0.7241,-1.0759,
7.175012,-0.0866,-0.8172,0.3810,-1.5917,1.1220,0.2337,0.1403,0.7345,-0.9580,
7.181509,-0.0866,-0.8172,0.3810,-1.5917,1.1220,0.2337,0.1330,0.7119,-0.8462,
7.190420,-0.0723,-0.8100,0.3817,-1.5917,1.1220,0.2337,0.1330,0.7119,-0.8462,
7.193030,-0.0723,-0.8100,0.3817,-1.5373,1.1697,0.2007,0.1330,0.7119,-0.8462,
7.194643,-0.0723,-0.8100,0.3817,-1.5373,1.1697,0.2007,0.1257,0.6599,-0.7485,
7.201817,-0.0723,-0.8100,0.3817,-1.5373,1.1697,0.2007,0.1220,0.6208,-0.6648,
7.209686,-0.0324,-0.8325,0.3872,-1.5373,1.1697,0.2007,0.1220,0.6208,-0.6648,
7.212433,-0.0324,-0.8325,0.3872,-1.1968,0.9287,0.2136,0.1220,0.6208,-0.6648,
7.214569,-0.0324,-0.8325,0.3872,-1.1968,0.9287,0.2136,0.1171,0.6166,-0.5982,
7.221622,-0.0324,-0.8325,0.3872,-1.1968,0.9287,0.2136,0.1055,0.6349,-0.5353,
7.229859,-0.0037,-0.8113,0.3859,-1.1968,0.9287,0.2136,0.1055,0.6349,-0.5353,
7.232464,-0.0037,-0.8113,0.3859,-0.9406,1.1174,0.1604,0.1055,0.6349,-0.5353,
7.234761,-0.0037,-0.8113,0.3859,-0.9406,1.1174,0.1604,0.0878,0.6441,-0.4766,
7.241609,-0.0037,-0.8113,0.3859,-0.9406,1.1174,0.1604,0.0713,0.6135,-0.4247,
7.251900,0.0084,-0.7906,0.3904,-0.9406,1.1174,0.1604,0.0713,0.6135,-0.4247,
7.254235,0.0084,-0.7906,0.3904,-0.8290,1.3054,0.1677,0.0713,0.6135,-0.4247,
7.256527,0.0084,-0.7906,0.3904,-0.8290,1.3054,0.1677,0.0487,0.5848,-0.3691,
7.261494,0.0084,-0.7906,0.3904,-0.8290,1.3054,0.1677,0.0230,0.5940,-0.3062,
7.269899,0.0107,-0.8002,0.3935,-0.8290,1.3054,0.1677,0.0230,0.5940,-0.3062,
7.272977,0.0107,-0.8002,0.3935,-0.7980,1.1997,0.1683,0.0230,0.5940,-0.3062,
7.275075,0.0107,-0.8002,0.3935,-0.7980,1.1997,0.1683,-0.0045,0.6202,-0.2482,
7.281681,0.0107,-0.8002,0.3935,-0.7980,1.1997,0.1683,-0.0356,0.6386,-0.1968,
7.289880,0.0062,-0.8165,0.3790,-0.7980,1.1997,0.1683,-0.0356,0.6386,-0.1968,
7.293062,0.0062,-0.8165,0.3790,-0.8128,1.0357,0.0083,-0.0356,0.6386,-0.1968,
7.294844,0.0062,-0.8165,0.3790,-0.8128,1.0357,0.0083,-0.0655,0.6404,-0.1492,
7.301705,0.0062,-0.8165,0.3790,-0.8128,1.0357,0.0083,-0.0943,0.6166,-0.1095,
7.309767,-0.0215,-0.8292,0.3132,-0.8128,1.0357,0.0083,-0.0943,0.6166,-0.1095,
7.312487,-0.0215,-0.8292,0.3132,-1.0389,0.9145,-0.6395,-0.0943,0.6166,-0.1095,
7.314474,-0.0215,-0.8292,0.3132,-1.0389,0.9145,-0.6395,-0.1450,0.5879,-0.0704,
7.321805,-0.0215,-0.8292,0.3132,-1.0389,0.9145,-0.6395,-0.2213,0.5573,-0.0350,
7.329926,-0.0491,-0.8601,0.3876,-1.0389,0.9145,-0.6395,-0.2213,0.5573,-0.0350,
7.332531,-0.0491,-0.8601,0.3876,-1.2510,0.6234,0.1057,-0.2213,0.5573,-0.0350,
7.335315,-0.0491,-0.8601,0.3876,-1.2510,0.6234,0.1057,-0.2739,0.4492,0.0231,
7.341981,-0.0491,-0.8601,0.3876,-1.2510,0.6234,0.1057,-0.2861,0.3997,0.0469,
7.351756,-0.0492,-0.8893,0.4134,-1.2510,0.6234,0.1057,-0.2861,0.3997,0.0469,
7.354598,-0.0492,-0.8893,0.4134,-1.1873,0.3563,0.3922,-0.2861,0.3997,0.0469,
7.356883,-0.0492,-0.8893,0.4134,-1.1873,0.3563,0.3922,-0.3038,0.3350,0.0567,
7.361359,-0.0492,-0.8893,0.4134,-1.1873,0.3563,0.3922,-0.3123,0.2806,0.0652,
7.370353,-0.0287,-0.9230,0.4962,-1.1873,0.3563,0.3922,-0.3123,0.2806,0.0652,
7.373603,-0.0287,-0.9230,0.4962,-0.9261,0.0441,1.2380,-0.3123,0.2806,0.0652,
7.375552,-0.0287,-0.9230,0.4962,-0.9261,0.0441,1.2380,-0.3032,0.2617,0.0628,
7.381518,-0.0287,-0.9230,0.4962,-0.9261,0.0441,1.2380,-0.2891,0.2586,0.0524,
7.390227,-0.0033,-0.9265,0.5488,-0.9261,0.0441,1.2380,-0.2891,0.2586,0.0524,
7.393508,-0.0033,-0.9265,0.5488,-0.6230,0.0223,1.7773,-0.2891,0.2586,0.0524,
7.395441,-0.0033,-0.9265,0.5488,-0.6230,0.0223,1.7773,-0.2702,0.2507,0.0353,
7.402060,-0.0033,-0.9265,0.5488,-0.6230,0.0223,1.7773,-0.2360,0.2311,0.0206,
7.409722,0.0569,-0.9032,0.5832,-0.6230,0.0223,1.7773,-0.2360,0.2311,0.0206,
7.412114,0.0569,-0.9032,0.5832,0.0080,0.2552,2.1180,-0.2360,0.2311,0.0206,
7.413786,0.0569,-0.9032,0.5832,0.0080,0.2552,2.1180,-0.1822,0.1847,0.0127,
7.421490,0.0569,-0.9032,0.5832,0.0080,0.2552,2.1180,-0.1028,0.1150,0.0176,
7.429759,0.0690,-0.9478,0.6133,0.0080,0.2552,2.1180,-0.1028,0.1150,0.0176,
7.431944,0.0690,-0.9478,0.6133,0.1525,-0.1897,2.3896,-0.1028,0.1150,0.0176,
7.434091,0.0690,-0.9478,0.6133,0.1525,-0.1897,2.3896,0.0059,0.0479,0.0451,
7.442161,0.0690,-0.9478,0.6133,0.1525,-0.1897,2.3896,0.1250,-0.0248,0.0805,
7.451205,0.0220,-0.9462,0.5890,0.1525,-0.1897,2.3896,0.1250,-0.0248,0.0805,
7.454214,0.0220,-0.9462,0.5890,-0.2845,-0.1978,2.0893,0.1250,-0.0248,0.0805,
7.456340,0.0220,-0.9462,0.5890,-0.2845,-0.1978,2.0893,0.2393,-0.1110,0.1202,
7.461312,0.0220,-0.9462,0.5890,-0.2845,-0.1978,2.0893,0.3040,-0.1824,0.1544,
7.469716,-0.0683,-0.9147,0.4946,-0.2845,-0.1978,2.0893,0.3040,-0.1824,0.1544,
7.472464,-0.0683,-0.9147,0.4946,-1.1378,0.0767,1.0762,0.3040,-0.1824,0.1544,
7.474713,-0.0683,-0.9147,0.4946,-1.1378,0.0767,1.0762,0.3193,-0.1440,0.1886,
7.481445,-0.0683,-0.9147,0.4946,-1.1378,0.0767,1.0762,0.3101,0.0802,0.2326,
7.489939,-0.0781,-1.0740,0.3198,-1.1378,0.0767,1.0762,0.3101,0.0802,0.2326,
7.492814,-0.0781,-1.0740,0.3198,-1.1836,-1.5104,-0.7044,0.3101,0.0802,0.2326,
7.494829,-0.0781,-1.0740,0.3198,-1.1836,-1.5104,-0.7044,0.2765,0.4284,0.2564,
7.501814,-0.0781,-1.0740,0.3198,-1.1836,-1.5104,-0.7044,0.2112,0.6807,0.2350,
7.509729,-0.0318,-1.1964,0.1937,-1.1836,-1.5104,-0.7044,0.2112,0.6807,0.2350,
7.512075,-0.0318,-1.1964,0.1937,-0.6322,-2.7237,-1.9814,0.2112,0.6807,0.2350,
7.514074,-0.0318,-1.1964,0.1937,-0.6322,-2.7237,-1.9814,0.1110,0.6636,0.1501,
7.521638,-0.0318,-1.1964,0.1937,-0.6322,-2.7237,-1.9814,-0.0429,0.1926,-0.1046,
7.529861,0.0172,-1.1493,0.2607,-0.6322,-2.7237,-1.9814,-0.0429,0.1926,-0.1046,
7.532754,0.0172,-1.1493,0.2607,-0.1054,-2.2577,-1.3172,-0.0429,0.1926,-0.1046,
7.535079,0.0172,-1.1493,0.2607,-0.1054,-2.2577,-1.3172,-0.0930,-0.1091,-0.2048,
7.541628,0.0172,-1.1493,0.2607,-0.1054,-2.2577,-1.3172,-0.2458,-0.3975,-0.2689,
7.552623,-0.0029,-0.9534,0.2092,-0.1054,-2.2577,-1.3172,-0.2458,-0.3975,-0.2689,
7.555008,-0.0029,-0.9534,0.2092,-0.3531,-0.3147,-1.7636,-0.2458,-0.3975,-0.2689,
7.557437,-0.0029,-0.9534,0.2092,-0.3531,-0.3147,-1.7636,-0.4553,-0.6394,-0.2811,
7.561435,-0.0029,-0.9534,0.2092,-0.3531,-0.3147,-1.7636,-0.6178,-0.9173,-0.2591,
7.569945,0.0353,-0.9666,0.0486,-0.3531,-0.3147,-1.7636,-0.6178,-0.9173,-0.2591,
7.572985,0.0353,-0.9666,0.0486,-0.0706,-0.3845,-3.1845,-0.6178,-0.9173,-0.2591,
7.574933,0.0353,-0.9666,0.0486,-0.0706,-0.3845,-3.1845,-0.7448,-1.2399,-0.2298,
7.581663,0.0353,-0.9666,0.0486,-0.0706,-0.3845,-3.1845,-0.8853,-1.4634,-0.1742,
7.589933,-0.0700,-0.9909,0.0754,-0.0706,-0.3845,-3.1845,-0.8853,-1.4634,-0.1742,
7.593051,-0.0700,-0.9909,0.0754,-1.2074,-0.5410,-2.6983,-0.8853,-1.4634,-0.1742,
7.595207,-0.0700,-0.9909,0.0754,-1.2074,-0.5410,-2.6983,-1.0112,-1.4701,-0.0698,
7.601893,-0.0700,-0.9909,0.0754,-1.2074,-0.5410,-2.6983,-1.0692,-1.2961,0.0530,
7.609797,0.0017,-0.9960,0.1331,-1.2074,-0.5410,-2.6983,-1.0692,-1.2961,0.0530,
7.611905,0.0017,-0.9960,0.1331,-0.5694,-0.4999,-1.8664,-1.0692,-1.2961,0.0530,
7.614030,0.0017,-0.9960,0.1331,-0.5694,-0.4999,-1.8664,-1.0484,-1.1281,0.1300,
7.621628,0.0017,-0.9960,0.1331,-0.5694,-0.4999,-1.8664,-1.0307,-1.0248,0.1434,
7.629792,0.0956,-0.9055,0.0541,-0.5694,-0.4999,-1.8664,-1.0307,-1.0248,0.1434,
7.632582,0.0956,-0.9055,0.0541,0.3278,0.4716,-2.3777,-1.0307,-1.0248,0.1434,
7.634870,0.0956,-0.9055,0.0541,0.3278,0.4716,-2.3777,-1.0606,-0.9839,0.1214,
7.641541,0.0956,-0.9055,0.0541,0.3278,0.4716,-2.3777,-1.1120,-0.9686,0.0878,
7.651836,0.0883,-0.8055,0.0536,0.3278,0.4716,-2.3777,-1.1120,-0.9686,0.0878,
7.654476,0.0883,-0.8055,0.0536,0.2300,1.5289,-2.1166,-1.1120,-0.9686,0.0878,
7.656854,0.0883,-0.8055,0.0536,0.2300,1.5289,-2.1166,-1.1339,-1.0157,0.0890,
7.661389,0.0883,-0.8055,0.0536,0.2300,1.5289,-2.1166,-1.1193,-1.0810,0.1330,
7.669885,0.1170,-0.8380,0.0512,0.2300,1.5289,-2.1166,-1.1193,-1.0810,0.1330,
7.672996,0.1170,-0.8380,0.0512,0.4804,1.2797,-1.8716,-1.1193,-1.0810,0.1330,
7.675123,0.1170,-0.8380,0.0512,0.4804,1.2797,-1.8716,-1.0961,-1.0945,0.1892,
7.681544,0.1170,-0.8380,0.0512,0.4804,1.2797,-1.8716,-1.0863,-1.0780,0.2277,
7.689924,0.1775,-0.9273,0.0762,0.4804,1.2797,-1.8716,-1.0863,-1.0780,0.2277,
7.692918,0.1775,-0.9273,0.0762,1.0547,0.4635,-1.3708,-1.0863,-1.0780,0.2277,
7.694923,0.1775,-0.9273,0.0762,1.0547,0.4635,-1.3708,-1.0942,-1.0566,0.2338,
7.701657,0.1775,-0.9273,0.0762,1.0547,0.4635,-1.3708,-1.1413,-0.9582,0.1630,
7.709723,0.2399,-0.9955,0.0476,1.0547,0.4635,-1.3708,-1.1413,-0.9582,0.1630,
7.712422,0.2399,-0.9955,0.0476,1.6432,-0.1535,-1.3919,-1.1413,-0.9582,0.1630,
7.714214,0.2399,-0.9955,0.0476,1.6432,-0.1535,-1.3919,-1.1956,-0.7670,0.0768,
7.721525,0.2399,-0.9955,0.0476,1.6432,-0.1535,-1.3919,-1.1969,-0.6528,0.0133,
7.729755,0.1586,-0.9831,0.0603,1.6432,-0.1535,-1.3919,-1.1969,-0.6528,0.0133,
7.732180,0.1586,-0.9831,0.0603,0.8108,0.0131,-1.0044,-1.1969,-0.6528,0.0133,
7.734511,0.1586,-0.9831,0.0603,0.8108,0.0131,-1.0044,-1.1511,-0.6443,-0.0001,
7.741624,0.1586,-0.9831,0.0603,0.8108,0.0131,-1.0044,-1.1394,-0.6168,0.0396,
7.751933,0.0402,-0.9249,0.0939,0.8108,0.0131,-1.0044,-1.1394,-0.6168,0.0396,
7.753999,0.0402,-0.9249,0.0939,-0.3713,0.6179,-0.4347,-1.1394,-0.6168,0.0396,
7.756159,0.0402,-0.9249,0.0939,-0.3713,0.6179,-0.4347,-1.1199,-0.6278,0.0793,
7.761565,0.0402,-0.9249,0.0939,-0.3713,0.6179,-0.4347,-1.0735,-0.6571,0.1379,
7.769929,0.0685,-0.9572,0.1390,-0.3713,0.6179,-0.4347,-1.0735,-0.6571,0.1379,
7.772863,0.0685,-0.9572,0.1390,-0.0912,0.3308,0.2309,-1.0735,-0.6571,0.1379,
7.774658,0.0685,-0.9572,0.1390,-0.0912,0.3308,0.2309,-0.9996,-0.6913,0.2008,
7.781581,0.0685,-0.9572,0.1390,-0.0912,0.3308,0.2309,-0.9134,-0.7389,0.2454,
7.790064,0.1742,-1.0079,0.1168,-0.0912,0.3308,0.2309,-0.9134,-0.7389,0.2454,
7.793035,0.1742,-1.0079,0.1168,0.9661,-0.1436,0.2085,-0.9134,-0.7389,0.2454,
7.795037,0.1742,-1.0079,0.1168,0.9661,-0.1436,0.2085,-0.8242,-0.8055,0.2619,
7.802045,0.1742,-1.0079,0.1168,0.9661,-0.1436,0.2085,-0.7412,-0.8807,0.2405,
7.809731,0.2449,-1.0277,0.0726,0.9661,-0.1436,0.2085,-0.7412,-0.8807,0.2405,
7.812299,0.2449,-1.0277,0.0726,1.6763,-0.3220,-0.0631,-0.7412,-0.8807,0.2405,
7.813889,0.2449,-1.0277,0.0726,1.6763,-0.3220,-0.0631,-0.6685,-0.9662,0.1746,
7.821594,0.2449,-1.0277,0.0726,1.6763,-0.3220,-0.0631,-0.6227,-1.0688,0.0897,
7.829980,0.2558,-1.0031,-0.0281,1.6763,-0.3220,-0.0631,-0.6227,-1.0688,0.0897,
7.832032,0.2558,-1.0031,-0.0281,1.7657,-0.0725,-0.9084,-0.6227,-1.0688,0.0897,
