time,gFx,gFy,gFz,ax,ay,az,wx,wy,wz
,0.112,-0.266,-0.69,1.32,0.59,-1.97,-1.67,1.76,0.17
2022-01-28 14:2:50.0830,0.184,-0.22,-0.893,0.77,0.38,-2.7,-1.61,1.57,0.14
2022-01-28 14:2:50.0900,0.217,-0.292,-0.977,-0.49,1.07,-0.08,-1.47,1.3,0.17
2022-01-28 14:2:50.0960,0.281,-0.297,-0.947,-0.49,1.07,-0.08,-1.31,0.97,0.2
2022-01-28 14:2:50.1060,0.312,-0.295,-0.952,-0.78,1.12,-0.04,-1.31,0.97,0.2
2022-01-28 14:2:50.1160,0.307,-0.299,-0.931,-0.67,1.31,-0.23,-1.05,0.44,0.37
2022-01-28 14:2:50.1270,0.297,-0.285,-0.94,-0.55,1.25,-0.21,-0.95,0.28,0.47
2022-01-28 14:2:50.1370,0.273,-0.301,-0.949,-0.31,1.46,-0.06,-0.85,0.36,0.57
2022-01-28 14:2:50.1480,0.224,-0.334,-0.886,0.9111347776651383,2.21,-1.24,-0.76,0.72,0.69
2022-01-28 14:2:50.1570,0.152,-0.365,-0.827,0.91,2.21,-1.24,-0.76,1.28,0.77
2022-01-28 14:2:50.1670,0.104,-0.351,-0.827,1.61,1.33,-0.5,-0.76,1.28,0.77
2022-01-28 14:2:50.1780,0.119,-0.244,-0.915,1.61,1.33,-0.5,-0.99,1.84,0.29
2022-01-28 14:2:50.1870,0.172,-0.139,-0.974,1.13,0.02,0.08,-1.02,1.88,-0.15
2022-01-28 14:2:50.1980,0.2,-0.109,-0.949,1.13,0.02,0.08,-0.93,1.85,-0.47
2022-01-28 14:2:50.2070,0.236,-0.123,-0.935,0.98,0.24,-0.04,-0.76,1.71,-0.63
2022-01-28 14:2:50.2170,0.279,-0.135,-0.921,0.44,0.47,-0.36,-0.57,1.49,-0.65
2022-01-28 14:2:50.2280,0.321,-0.123,-0.889,0.44,0.47,-0.36,-0.41,1.16,-0.61
2022-01-28 14:2:50.2370,0.356,-0.084,-0.906,0.22,0.18,-0.26,-0.41,1.16,-0.61
2022-01-28 14:2:50.2480,0.419,-0.036,-0.994,-0.27,-0.25,0.6,-0.14,-0.15,-0.63
2022-01-28 14:2:50.2570,0.494,-0.009,-1.032,-1.02,-0.5,1.07,0.02,-0.8,-0.69
2022-01-28 14:2:50.2670,0.53,0.011,-1.012,-1.49,-0.87,0.34,0.02,-0.8,-0.7468292117118835
2022-01-28 14:2:50.2780,0.512,0.033,-0.954,-1.49,-0.87,0.34,0.45,-1.31,-0.73
2022-01-28 14:2:50.2870,0.453,0.057,-0.881,-0.6,-1.38,-0.8,0.62,-1.17,-0.62
2022-01-28 14:2:50.2980,0.4,0.081,-0.855,-0.43,-1.53,-0.79,0.7,-0.93,-0.46
2022-01-28 14:2:50.3080,0.378,0.09,-0.861,-0.43,-1.53,-0.79,0.69,-0.65,-0.26
2022-01-28 14:2:50.3180,0.386,0.086,-0.872,-0.76,-1.51,-0.65,0.6,-0.37,-0.05
2022-01-28 14:2:50.3280,0.404,0.075,-0.879,-1.01,-1.48,-0.5,0.44,-0.14,0.13
2022-01-28 14:2:50.3380,0.428,0.068,-0.894,-1.01,-1.48,-0.5,0.23,0.1,0.26
2022-01-28 14:2:50.3480,0.445,0.068,-0.889,-1.19,-1.51,-0.51,0.02,0.35,0.36
2022-01-28 14:2:50.3570,0.439,0.067,-0.868,-1.13,-1.52,-0.69,-0.2,0.63,0.45
2022-01-28 14:2:50.3670,0.421,0.058,-0.844,-0.72,-1.36,-1.05,-0.4,0.89,0.54
2022-01-28 14:2:50.3780,0.409,0.052,-0.829,-0.72,-1.36,-1.05,-0.58,1.13,0.66
2022-01-28 14:2:50.3880,0.402,0.048,-0.812,-0.55,-1.29,-1.18,-0.75,1.35,0.78
2022-01-28 14:2:50.3980,0.404,0.041,-0.79,-0.44,-1.18,-1.35,-0.9,1.55,0.9
2022-01-28 14:2:50.4080,0.41,0.03,-0.765,-0.37,-1.03,-1.55,-1.03,1.7,1.02
2022-01-28 14:2:50.4180,0.408,0.014,-0.746,0.02,-0.62,-1.8,-1.14,1.79,1.11
2022-01-28 14:2:50.4280,0.397,-0.0,-0.728,0.02,-0.62,-1.8,-1.26,1.87,1.18
2022-01-28 14:2:50.4380,0.374,-0.011,-0.699,0.4,-0.45,-2.01,-1.39,1.94,1.23
2022-01-28 14:2:50.4480,0.357,-0.017,-0.693,0.76,-0.31,-2.04,-1.52,1.96,1.2
2022-01-28 14:2:50.4580,0.375,-0.025,-0.712,0.79,-0.15,-1.79,-1.61,1.91,1.11
2022-01-28 14:2:50.4680,0.408,-0.023,-0.739,0.63,-0.08,-1.45,-1.65,1.79,1.02
2022-01-28 14:2:50.4780,0.425,-0.038,-0.735,0.8805898001790047,0.16614110447466374,-1.49,-1.64,1.74,0.97
2022-01-28 14:2:50.4880,0.406,-0.021,-0.719,0.88,0.16,-1.49,-1.62,1.62,1.01
2022-01-28 14:2:50.4980,0.381,0.011,-0.755,1.28,-0.14,-1.02,-1.58,1.53,1.12
2022-01-28 14:2:50.5170,0.389,0.017,-0.717,1.13,0.01,-0.91,-1.56,1.39,1.25
2022-01-28 14:2:50.5200,0.429,0.008,-0.757,0.73,0.24,-0.1,-1.56,1.16,1.29
2022-01-28 14:2:50.5280,0.482,-0.008,-0.84,0.35,0.53,1.15,-1.52,0.84,1.15
2022-01-28 14:2:50.5380,0.525,-0.033,-0.957,0.48,0.7,1.61,-1.32,0.64,0.84
2022-01-28 14:2:50.5490,0.509,-0.04,-0.992,0.48,0.7,1.61,-1.04,0.7,0.5
2022-01-28 14:2:50.5700,0.443,-0.028,-0.979,1.75,0.39,1.46,-0.78,0.97,0.26
2022-01-28 14:2:50.5780,0.395,0.008,-0.964,1.99,0.07,1.54,-0.62,1.29,0.12
2022-01-28 14:2:50.5790,0.385,0.042,-0.966,1.99,0.07,1.54,-0.5,1.57,0.03
2022-01-28 14:2:50.5880,0.409,0.045,-0.977,1.57,0.24,1.94,-0.36,1.74,-0.11
2022-01-28 14:2:50.5980,0.46,0.026,-0.986,1.13,0.57,2.01,-0.18,1.82,-0.33
2022-01-28 14:2:50.6080,0.518,-0.004,-0.981,1.13,0.57,2.01,-0.0,1.85,-0.62
2022-01-28 14:2:50.6190,0.553,-0.039,-0.957,0.89,1.28,1.44,0.14,1.86,-0.88
2022-01-28 14:2:50.6290,0.564,-0.067,-0.892,0.89,1.28,1.44,0.23,1.87,-1.06
2022-01-28 14:2:50.6380,0.573,-0.08,-0.825,0.97,1.57,0.52,0.27,1.89,-1.21
2022-01-28 14:2:50.6490,0.581,-0.082,-0.776,1.08,1.55,0.21,0.3,1.85,-1.34
Time,0.584,-0.072,-0.732,1.09,1.6,-0.05,0.33,1.74,-1.5
2022-01-28 14:2:50.6670,0.594,-0.071,-0.695,1.09,1.6,-0.05,0.33,1.74,-1.5
2022-01-28 14:2:50.6780,0.604,-0.068,-0.669,1.09,1.67,-0.21,0.38,1.21,-1.92
2022-01-28 14:2:50.6890,0.614,-0.065,-0.651,1.06,1.75,-0.31,0.42,0.8,-2.17
2022-01-28 14:2:50.6990,0.616,-0.053,-0.637,1.11,1.76,-0.68,0.46,0.33,-2.43
2022-01-28 14:2:50.7090,0.61,-0.038,-0.601,1.11,1.76,-0.68,0.49,-0.14,-2.66
2022-01-28 14:2:50.7190,0.608,-0.02,-0.564,1.02,1.72,-1.36,0.48,-0.62,-2.84
2022-01-28 14:2:50.7290,0.608,-0.001,-0.538,1.02,1.72,-1.36,0.45,-1.08,-2.96
2022-01-28 14:2:50.7390,0.612,0.021,-0.51,0.61,1.56,-1.95,0.4,-1.5,-3.04
2022-01-28 14:2:50.7490,0.624,0.053,-0.499,0.61,1.56,-1.95,0.4,-1.5,-3.04
2022-01-28 14:2:50.7590,0.633,0.083,-0.496,0.33,1.43,-2.11,0.33,-2.04,-2.93
2022-01-28 14:2:50.7690,0.641,0.113,-0.497,-0.36,1.22,-2.32,0.33,-2.15,-2.78
2022-01-28 14:2:50.7790,0.66,0.137,-0.504,-0.36,1.22,-2.32,0.34,-2.19,-2.59
2022-01-28 14:2:50.7890,0.67,0.161,-0.508,-0.7,1.12,-2.41,0.34,-2.19,-2.59
2022-01-28 14:2:50.7990,0.674,0.186,-0.509,-0.97,0.98,-2.54,0.38,-2.02,-2.13
2022-01-28 14:2:50.8090,0.665,0.203,-0.512,-1.12,0.91,-2.63,0.39,-1.83,-1.87
2022-01-28 14:2:50.8190,0.65,0.222,-0.511,-1.23,0.64,-2.75,0.39,-1.62,-1.56
2022-01-28 14:2:50.8290,0.638,0.244,-0.523,-1.23,0.64,-2.75,0.39,-1.42,-1.25
2022-01-28 14:2:50.8390,0.631,0.268,-0.541,-1.31,0.44,-2.66,0.42,-1.24,-0.93
2022-01-28 14:2:50.8490,0.635,0.29,-0.556,-1.71,0.09,-2.51,0.47,-1.05,-0.67
2022-01-28 14:2:50.8590,0.649,0.304,-0.57,-1.71,0.09,-2.51,0.52,-0.86,-0.49
2022-01-28 14:2:50.8690,0.658,0.312,-0.593,-1.97,-0.11,-2.24,0.55,-0.7,-0.37
2022-01-28 14:2:50.8800,0.656,0.32,-0.608,-1.97,-0.11,-2.24,0.53,-0.56,-0.28
2022-01-28 14:2:50.8900,0.649,0.336,-0.612,-1.95,-0.29,-2.24,0.46,-0.45,-0.24
2022-01-28 14:2:50.8990,0.649,0.35,-0.629,-1.99,-0.46,-2.13,0.36,-0.41,-0.21
2022-01-28 14:2:50.9090,0.658,0.351,-0.657,-2.11,-0.51,-1.88,0.29,-0.39,-0.21
2022-01-28 14:2:50.9190,0.665,0.346,-0.669,-2.23,-0.48,-1.77,0.26,-0.39,-0.21
2022-01-28 14:2:50.9300,0.663,0.347,-0.685,-2.31,-0.56,-1.51,0.24,-0.42,-0.2
2022-01-28 14:2:50.9400,0.666,0.354,-0.701,-2.31,-0.56,-1.51,0.21,-0.45,-0.18
2022-01-28 14:2:50.9500,0.673,0.37,-0.731,-2.536536768078804,-0.9,-0.85,0.16,-0.54,-0.14
2022-01-28 14:2:50.9600,0.681,0.387,-0.776,-2.54,-0.9,-0.85,0.12,-0.59,-0.08
2022-01-28 14:2:50.9690,0.692,0.406,-0.801,-2.69,-1.08,-0.62,0.08,-0.59,-0.02
2022-01-28 14:2:50.9800,0.709,0.424,-0.842,-3.16,-1.33,0.13,0.05,-0.52,0.04
2022-01-28 14:2:50.9900,0.73,0.428,-0.885,-3.2,-1.46,0.59,0.02,-0.44,0.08
2022-01-28 14:2:51.0000,0.727,0.445,-0.935,-3.08,-1.87,1.11,-0.06,-0.38,0.08
2022-01-28 14:2:51.0190,0.71,0.489,-0.989,-2.97,-2.29,1.69,-0.06,-0.38,0.08
2022-01-28 14:2:51.0290,0.698,0.53,-1.051,-3.0,-2.48,2.17,-0.34,-0.4,0.1
2022-01-28 14:2:51.0310,0.7,0.549,-1.097,-3.0,-2.48,2.17,-0.34,-0.4,0.1
2022-01-28 14:2:51.0390,0.702,0.549,-1.137,-3.06,-2.45,2.55,-0.54,-0.33,0.27
2022-01-28 14:2:51.0490,0.697,0.555,-1.182,-3.04,-2.47,3.01,-0.54,-0.33,0.27
2022-01-28 14:2:51.0600,0.689,0.562,-1.218,-2.98,-2.5,3.36,-0.53,-0.18,0.51
2022-01-28 14:2:51.0700,0.675,0.575,-1.271,-2.86,-2.58,3.88,-0.5,-0.18,0.57
2022-01-28 14:2:51.0800,0.64,0.612,-1.316,-2.54,-2.89,4.34,-0.53,-0.25,0.58
2022-01-28 14:2:51.0900,0.597,0.653,-1.361,-1.81,-3.39,5.01,-0.53,-0.25,0.58
2022-01-28 14:2:51.1000,0.567,0.661,-1.378,-1.81,-3.39,5.01,-0.72,-0.4,0.54
2022-01-28 14:2:51.1100,0.552,0.625,-1.358,-1.67,-3.05,4.86,-0.78,-0.33,0.57
2022-01-28 14:2:51.1200,0.534,0.567,-1.312,-1.51,-2.45,4.45,-0.78,-0.33,0.57
2022-01-28 14:2:51.1300,0.514,0.496,-1.249,-1.31,-1.72,3.86,-0.73,0.12,0.94
2022-01-28 14:2:51.1400,0.499,0.413,-1.188,-0.96,-0.02,2.82,-0.58,0.37,1.26
2022-01-28 14:2:51.1500,0.49,0.326,-1.139,-0.96,-0.02,2.82,-0.37,0.52,1.6
2022-01-28 14:2:51.1600,0.477,0.254,-1.106,-0.75,0.69,2.51,-0.1,0.54,1.89
2022-01-28 14:2:51.1700,0.444,0.209,-1.074,-0.36,1.1,2.24,0.18,0.47,2.12
2022-01-28 14:2:51.1800,0.389,0.184,-1.033,0.91,1.32,1.5,0.43,0.34,2.25
2022-01-28 14:2:51.1910,0.335,0.167,-0.997,1.45,1.31,1.21,0.61,0.16,2.32
2022-01-28 14:2:51.2010,0.29,0.153,-0.968,1.89,1.27,0.82,0.76,-0.04,2.31
2022-01-28 14:2:51.2110,0.253,0.141,-0.929,1.89,1.27,0.82,0.87,-0.2,2.25
2022-01-28 14:2:51.2200,0.226,0.123,-0.886,2.21,1.27,0.36,0.95,-0.33,2.16
2022-01-28 14:2:51.2300,0.203,0.1,-0.846,2.7,1.36,-0.56,0.98,-0.38,2.05
2022-01-28 14:2:51.2410,0.18,0.078,-0.798,2.9,1.41,-1.03,0.96,-0.36,1.94
2022-01-28 14:2:51.2500,0.161,0.056,-0.756,2.9,1.41,-1.03,0.9,-0.3,1.83
2022-01-28 14:2:51.2600,0.149,0.031,-0.731,3.04,1.48,-1.32,0.83,-0.2,1.73
2022-01-28 14:2:51.2700,0.137,0.002,-0.698,3.16,1.61,-1.65,0.83,-0.2,1.73
2022-01-28 14:2:51.2800,0.118,-0.023,-0.668,3.58,1.78,-2.19,0.65,0.11,1.58
2022-01-28 14:2:51.2900,0.099,-0.041,-0.648,3.58,1.78,-2.19,0.55,0.26,1.53
2022-01-28 14:2:51.3000,0.086,-0.054,-0.637,3.75,1.79,-2.31,0.48,0.38,1.48
2022-01-28 14:2:51.3110,0.081,-0.063,-0.624,3.87,1.77,-2.41,0.44,0.45,1.42
2022-01-28 14:2:51.3210,0.081,-0.069,-0.61,3.93,1.73,-2.53,0.46,0.49,1.34
2022-01-28 14:2:51.3310,0.081,-0.076,-0.599,3.97,1.74,-2.74,0.51,0.48,1.25
2022-01-28 14:2:51.3410,0.088,-0.093,-0.585,3.97,1.74,-2.74,0.59,0.45,1.16
2022-01-28 14:2:51.3510,0.087,-0.114,-0.56,4.01,1.84,-2.95,0.69,0.44,1.08
2022-01-28 14:2:51.3600,0.083,-0.131,-0.528,4.12,1.91,-3.56,0.77,0.46,0.99
2022-01-28 14:2:51.3710,0.087,-0.141,-0.494,4.12,1.91,-3.56,0.83,0.48,0.88
2022-01-28 14:2:51.3810,0.095,-0.145,-0.478,4.08,1.84,-3.72,0.85,0.48,0.77
2022-01-28 14:2:51.3900,0.101,-0.145,-0.463,4.05,1.61,-4.03,0.84,0.48,0.63
2022-01-28 14:2:51.4010,0.108,-0.144,-0.442,3.95,1.49,-3.98,0.77,0.44,0.48
2022-01-28 14:2:51.4110,0.124,-0.14,-0.448,3.95,1.49,-3.98,0.63,0.33,0.3
2022-01-28 14:2:51.4210,0.15,-0.135,-0.472,3.73,1.36,-3.74,0.43,0.16,0.08
2022-01-28 14:2:51.4310,0.187,-0.136,-0.512,3.4,1.32,-3.38,0.19,-0.07,-0.16
2022-01-28 14:2:51.4410,0.225,-0.139,-0.571,2.69,1.31,-2.38,-0.06,-0.31,-0.42
2022-01-28 14:2:51.4510,0.255,-0.132,-0.614,2.69,1.31,-2.38,-0.31,-0.53,-0.69
2022-01-28 14:2:51.4610,0.276,-0.11,-0.674,2.44,1.16,-1.84,-0.57,-0.71,-0.95
2022-01-28 14:2:51.4710,0.29,-0.074,-0.735,2.02,0.68,-0.52,-0.8,-0.78,-1.13
2022-01-28 14:2:51.4820,0.306,-0.039,-0.818,1.76,0.44,0.18,-0.93,-0.72,-1.22
2022-01-28 14:2:51.4910,0.327,0.0,-0.89,1.76,0.44,0.18,-0.92,-0.49,-1.24
2022-01-28 14:2:51.5010,0.362,0.042,-0.968,1.38,0.16,0.88,-0.77,-0.21,-1.21
2022-01-28 14:2:51.5110,0.417,0.058,-1.062,0.17,0.3,2.46,-0.52,0.09,-1.11
2022-01-28 14:2:51.5210,0.485,0.044,-1.124,-0.59,0.65,3.04,-0.23,0.35,-0.93
2022-01-28 14:2:51.5310,0.566,0.016,-1.182,-0.59,0.65,3.04,-0.23,0.35,-0.93
2022-01-28 14:2:51.5410,0.649,-0.015,-1.24,-1.38,1.0,3.64,0.36,0.63,-0.37
2022-01-28 14:2:51.5520,0.708,-0.016,-1.319,-2.16,0.63,5.24,0.66,0.57,-0.04
2022-01-28 14:2:51.5610,0.73,0.029,-1.4,-2.15,0.07,5.88,0.97,0.46,0.26
2022-01-28 14:2:51.5710,0.732,0.074,-1.462,-2.15,0.07,5.88,1.21,0.29,0.44
2022-01-28 14:2:51.5820,0.737,0.089,-1.511,-2.24,-0.28,6.55,1.37,0.17,0.49
2022-01-28 14:2:51.5910,0.748,0.077,-1.52,-2.24,-0.28,6.55,1.49,0.16,0.43
2022-01-28 14:2:51.6010,0.761,0.056,-1.499,-2.35,-0.21,6.35,1.57,0.21,0.31
2022-01-28 14:2:51.6120,0.768,0.048,-1.471,-2.45,-0.41,5.61,1.61,0.33,0.17
2022-01-28 14:2:51.6210,0.775,0.048,-1.418,-2.45,-0.41,5.61,1.61,0.33,0.17
2022-01-28 14:2:51.6320,0.787,0.042,-1.369,-2.68,-0.52,4.74,1.61,0.53,-0.01
2022-01-28 14:2:51.6420,0.809,0.031,-1.326,-2.86,-0.58,4.52,1.57,0.51,-0.05
2022-01-28 14:2:51.6520,0.83,0.025,-1.302,-2.94,-0.66,4.3,1.51,0.4,-0.08
2022-01-28 14:2:51.6620,0.841,0.02,-1.275,-2.9,-0.74,4.01,1.43,0.25,-0.13
2022-01-28 14:2:51.6720,0.837,0.017,-1.242,-2.9,-0.74,4.01,1.33,0.11,-0.19
2022-01-28 14:2:51.6900,0.818,0.012,-1.205,-2.44,-0.82,3.26,1.24,0.0,-0.25
2022-01-28 14:2:51.6920,0.79,0.005,-1.163,-2.44,-0.82,3.26,1.19,-0.06,-0.31
2022-01-28 14:2:51.7020,0.755,0.003,-1.113,-1.73,-0.96,2.21,1.21,-0.07,-0.36
2022-01-28 14:2:51.7120,0.715,0.004,-1.05,-1.73,-0.96,2.21,1.26,-0.03,-0.39
2022-01-28 14:2:51.7220,0.678,-0.001,-0.975,-1.09,-0.94,0.75,1.31,0.01,-0.39
2022-01-28 14:2:51.7320,0.653,-0.018,-0.899,-0.94,-0.77,0.05,1.34,0.01,-0.36
2022-01-28 14:2:51.7420,0.639,-0.044,-0.826,-0.82,-0.65,-0.65,1.36,-0.05,-0.32
2022-01-28 14:2:51.7520,0.628,-0.065,-0.753,-0.82,-0.65,-0.65,1.37,-0.15,-0.29
2022-01-28 14:2:51.7620,0.612,-0.079,-0.686,-0.69,-0.6,-1.31,1.35,-0.25,-0.28
2022-01-28 14:2:51.7720,0.593,-0.085,-0.62,-0.52,-0.63,-1.95,1.3,-0.33,-0.28
2022-01-28 14:2:51.7820,0.571,-0.086,-0.563,-0.14,-0.77,-3.05,1.2,-0.36,-0.27
2022-01-28 14:2:51.7920,0.55,-0.088,-0.508,-0.14,-0.77,-3.05,1.07,-0.36,-0.26
2022-01-28 14:2:51.8020,0.534,-0.091,-0.47,0.01,-0.82,-3.46,0.91,-0.36,-0.27
2022-01-28 14:2:51.8120,0.521,-0.092,-0.45,0.21,-0.9,-3.8,0.76,-0.38,-0.28
2022-01-28 14:2:51.8220,0.509,-0.095,-0.438,0.3,-0.86,-3.93,0.64,-0.38,-0.3
2022-01-28 14:2:51.8330,0.496,-0.102,-0.427,0.3,-0.86,-3.93,0.58,-0.38,-0.32
2022-01-28 14:2:51.8420,0.476,-0.101,-0.425,0.46,-0.89,-3.96,0.52,-0.38,-0.35
2022-01-28 14:2:51.8520,0.453,-0.097,-0.416,0.86,-1.03,-4.17,0.48,-0.38,-0.36
2022-01-28 14:2:51.8630,0.43,-0.092,-0.405,0.86,-1.03,-4.17,0.43,-0.38,-0.35
2022-01-28 14:2:51.8720,0.41,-0.093,-0.405,1.04,-1.05,-4.18,0.4,-0.36,-0.32
2022-01-28 14:2:51.8820,0.393,-0.098,-0.403,1.3,-1.03,-4.23,0.4,-0.32,-0.26
2022-01-28 14:2:51.8930,0.379,-0.098,-0.403,1.3,-1.03,-4.23,0.43,-0.3,-0.2
2022-01-28 14:2:51.9030,0.367,-0.097,-0.414,1.41,-1.06,-4.14,0.46,-0.3,-0.15
2022-01-28 14:2:51.9120,0.357,-0.101,-0.422,1.49,-1.06,-4.06,0.5,-0.31,-0.1
2022-01-28 14:2:51.9220,0.347,-0.106,-0.424,1.56,-1.04,-4.04,0.54,-0.32,-0.06
2022-01-28 14:2:51.9320,0.335,-0.106,-0.424,1.65,-1.07,-4.04,0.57,-0.34,-0.03
2022-01-28 14:2:51.9430,0.326,-0.102,-0.427,1.72,-1.15,-4.03,0.6,-0.36,-0.03
2022-01-28 14:2:51.9530,0.321,-0.104,-0.439,1.74,-1.18,-3.92,0.6,-0.36,-0.03
2022-01-28 14:2:51.9630,0.311,-0.106,-0.432,1.92,-1.34,-3.97,0.69,-0.25,-0.08
2022-01-28 14:2:51.9730,0.297,-0.097,-0.434,1.92,-1.34,-3.97,0.7,-0.2,-0.13
2022-01-28 14:2:51.9830,0.291,-0.086,-0.441,1.95,-1.56,-3.71,0.65,-0.2,-0.2
2022-01-28 14:2:51.9930,0.294,-0.085,-0.462,1.95,-1.56,-3.71,0.53,-0.3,-0.29
2022-01-28 14:2:52.0030,0.312,-0.082,-0.507,1.35,-1.57,-2.59,0.36,-0.45,-0.39
2022-01-28 14:2:52.0130,0.356,-0.091,-0.583,1.35,-1.57,-2.59,0.2,-0.62,-0.5
2022-01-28 14:2:52.0230,0.406,-0.11,-0.649,0.82,-1.38,-1.95,0.2,-0.62,-0.5
2022-01-28 14:2:52.0330,0.429,-0.11,-0.707,0.5,-1.33,-1.39,0.11,-0.77,-0.59
2022-01-28 14:2:52.0430,0.423,-0.094,-0.739,0.49,-1.46,-0.95,0.03,-0.72,-0.68
2022-01-28 14:2:52.0530,0.418,-0.094,-0.755,0.49,-1.46,-0.95,0.04,-0.49,-0.66
2022-01-28 14:2:52.0630,0.423,-0.111,-0.751,0.43,-1.27,-0.99,0.07,-0.16,-0.64
2022-01-28 14:2:52.0730,0.44,-0.116,-0.761,0.27,-1.17,-0.94,0.11,0.18,-0.65
2022-01-28 14:2:52.0830,0.472,-0.113,-0.793,-0.41,-1.04,-0.23,0.13,0.46,-0.68
2022-01-28 14:2:52.0940,0.521,-0.128,-0.833,-0.41,-1.04,-0.23,0.1,0.6,-0.7
2022-01-28 14:2:52.1030,0.58,-0.154,-0.881,-1.48,-0.41,0.9,0.02,0.55,-0.71
2022-01-28 14:2:52.1130,0.643,-0.188,-0.945,-1.48,-0.41,0.9,-0.08,0.29,-0.72
2022-01-28 14:2:52.1230,0.708,-0.217,-1.005,-2.06,-0.08,1.52,-0.2,-0.13,-0.78
2022-01-28 14:2:52.1330,0.767,-0.227,-1.065,-2.65,0.11,2.09,-0.37,-0.64,-0.89
2022-01-28 14:2:52.1430,0.791,-0.22,-1.135,-2.88,0.04,3.18,-0.62,-1.1,-1.0
2022-01-28 14:2:52.1540,0.771,-0.202,-1.182,-2.88,0.04,3.18,-0.88,-1.35,-1.05
2022-01-28 14:2:52.1630,0.729,-0.184,-1.219,-2.57,-0.01,3.45,-1.14,-1.34,-1.05
2022-01-28 14:2:52.1740,0.68,-0.17,-1.263,-2.19,-0.02,3.81,-1.32,-1.08,-0.99
2022-01-28 14:2:52.1830,0.637,-0.168,-1.284,-1.84,0.1,3.99,-1.34,-0.56,-0.86
2022-01-28 14:2:52.1930,0.606,-0.172,-1.284,-1.47,0.52,4.04,-1.19,0.05,-0.7
2022-01-28 14:2:52.2030,0.6,-0.181,-1.297,-1.47,0.52,4.04,-0.98,0.57,-0.54
2022-01-28 14:2:52.2130,0.625,-0.206,-1.304,-1.63,0.84,4.12,-0.83,0.85,-0.38
2022-01-28 14:2:52.2240,0.655,-0.249,-1.311,-1.87,1.35,4.21,-0.8,0.83,-0.23
2022-01-28 14:2:52.2340,0.665,-0.29,-1.319,-1.92,1.85,4.32,-0.86,0.59,-0.1
2022-01-28 14:2:52.2440,0.649,-0.316,-1.322,-1.74,2.2,4.38,-0.86,0.59,-0.1
2022-01-28 14:2:52.2540,0.612,-0.334,-1.309,-1.36,2.46,4.28,-0.91,-0.05,0.06
2022-01-28 14:2:52.2640,0.556,-0.355,-1.279,-0.83,2.74,4.0,-0.79,-0.2,0.13
2022-01-28 14:2:52.2740,0.488,-0.372,-1.233,-0.19,2.99,3.56,-0.54,-0.22,0.18
2022-01-28 14:2:52.2840,0.421,-0.369,-1.175,0.45,3.03,2.99,-0.21,-0.15,0.21
2022-01-28 14:2:52.2940,0.362,-0.359,-1.104,1.52,2.79,1.34,0.15,0.02,0.25
2022-01-28 14:2:52.3040,0.313,-0.344,-1.002,1.52,2.79,1.34,0.45,0.26,0.3
2022-01-28 14:2:52.3140,0.283,-0.335,-0.91,1.85,2.64,0.42,0.66,0.47,0.37
2022-01-28 14:2:52.3230,0.274,-0.338,-0.837,2.0,2.59,-0.29,0.66,0.47,0.37
2022-01-28 14:2:52.3340,0.271,-0.338,-0.779,2.16,2.41,-1.25,0.86,0.63,0.5
2022-01-28 14:2:52.3440,0.266,-0.337,-0.736,2.16,2.41,-1.25,0.91,0.56,0.52
2022-01-28 14:2:52.3540,0.254,-0.336,-0.7,2.31,2.31,-1.58,0.94,0.47,0.5
2022-01-28 14:2:52.3640,0.235,-0.326,-0.663,2.78,1.86,-2.28,0.97,0.37,0.45
2022-01-28 14:2:52.3740,0.212,-0.31,-0.621,2.78,1.86,-2.28,0.99,0.29,0.38
2022-01-28 14:2:52.3840,0.19,-0.288,-0.579,3.03,1.55,-2.66,1.01,0.25,0.29
2022-01-28 14:2:52.3940,0.176,-0.261,-0.534,3.26,0.85,-3.45,1.03,0.22,0.2
2022-01-28 14:2:52.4040,0.172,-0.237,-0.494,3.23,0.56,-3.78,1.04,0.21,0.09
2022-01-28 14:2:52.4150,0.178,-0.217,-0.457,3.1,0.36,-4.04,1.03,0.2,-0.02
2022-01-28 14:2:52.4250,0.194,-0.207,-0.43,3.1,0.36,-4.04,1.0,0.17,-0.13
2022-01-28 14:2:52.4340,0.222,-0.199,-0.414,2.87,0.21,-4.19,0.93,0.09,-0.24
2022-01-28 14:2:52.4440,0.262,-0.196,-0.412,2.05,0.08,-4.12,0.81,-0.06,-0.32
2022-01-28 14:2:52.4540,0.308,-0.2,-0.419,2.05,0.08,-4.12,0.64,-0.23,-0.36
2022-01-28 14:2:52.4640,0.351,-0.199,-0.429,1.61,0.05,-4.03,0.45,-0.4,-0.36
2022-01-28 14:2:52.4740,0.39,-0.184,-0.459,1.21,-0.11,-3.77,0.23,-0.55,-0.31
2022-01-28 14:2:52.4840,0.422,-0.171,-0.512,0.55,-0.37,-2.57,0.02,-0.72,-0.25
2022-01-28 14:2:52.4950,0.445,-0.157,-0.593,0.55,-0.37,-2.57,-0.16,-0.91,-0.21
2022-01-28 14:2:52.5050,0.463,-0.13,-0.658,0.31,-0.59,-1.93,-0.3,-0.99,-0.21
2022-01-28 14:2:52.5140,0.473,-0.1,-0.716,0.12,-0.86,-1.44,-0.42,-0.93,-0.24
2022-01-28 14:2:52.5250,0.489,-0.092,-0.798,-0.09,-0.93,-0.7,-0.51,-0.7,-0.26
2022-01-28 14:2:52.5340,0.517,-0.089,-0.892,-0.42,-0.89,0.15,-0.57,-0.36,-0.28
2022-01-28 14:2:52.5450,0.557,-0.069,-0.992,-1.34,-1.12,2.12,-0.62,-0.01,-0.33
2022-01-28 14:2:52.5550,0.61,-0.053,-1.098,-1.34,-1.12,2.12,-0.65,0.24,-0.37
2022-01-28 14:2:52.5640,0.663,-0.055,-1.194,-2.34,-0.86,3.77,-0.66,0.37,-0.41
2022-01-28 14:2:52.5750,0.718,-0.067,-1.26,-2.82,-0.7,4.3,-0.63,0.4,-0.44
2022-01-28 14:2:52.5850,0.77,-0.074,-1.311,-3.1833376371860505,-0.664919051527977,4.6,-0.53,0.33,-0.43
2022-01-28 14:2:52.5950,0.809,-0.068,-1.339,-3.19,-0.67,4.6,-0.4,0.2,-0.35
2022-01-28 14:2:52.6050,0.842,-0.054,-1.367,-3.48,-0.76,4.87,-0.4,0.2,-0.35
2022-01-28 14:2:52.6150,0.869,-0.048,-1.4,-3.75,-0.78,5.2,-0.14,-0.32,-0.04
2022-01-28 14:2:52.6250,0.887,-0.043,-1.43,-3.97,-0.81,5.49,-0.0,-0.61,0.12
2022-01-28 14:2:52.6350,0.881,-0.033,-1.441,-3.99,-0.9,5.6,0.1,-0.82,0.22
2022-01-28 14:2:52.6450,0.847,-0.018,-1.429,-3.76,-1.06,5.48,0.16,-0.88,0.29
2022-01-28 14:2:52.6550,0.798,-0.002,-1.407,-3.37,-1.24,5.22,0.2,-0.79,0.31
2022-01-28 14:2:52.6650,0.739,0.009,-1.372,-2.35,-1.48,4.35,0.22,-0.59,0.29
2022-01-28 14:2:52.6750,0.681,0.015,-1.321,-2.35,-1.48,4.35,0.21,-0.36,0.25
2022-01-28 14:2:52.6850,0.636,0.004,-1.268,-1.61,-1.21,3.22,0.17,-0.17,0.21
2022-01-28 14:2:52.6950,0.602,-0.022,-1.206,-1.61,-1.21,3.22,0.15,-0.03,0.18
2022-01-28 14:2:52.7050,0.574,-0.047,-1.137,-1.34,-0.98,2.55,0.15,0.04,0.16
2022-01-28 14:2:52.7150,0.551,-0.067,-1.059,-0.87,-0.61,0.98,0.18,0.06,0.15
2022-01-28 14:2:52.7250,0.527,-0.089,-0.974,-0.87,-0.61,0.98,0.24,0.06,0.15
2022-01-28 14:2:52.7350,0.505,-0.109,-0.887,-0.65,-0.43,0.12,0.3,0.04,0.17
2022-01-28 14:2:52.7450,0.481,-0.127,-0.802,-0.42,-0.28,-0.71,0.35,0.01,0.23
2022-01-28 14:2:52.7550,0.459,-0.144,-0.717,0.0,-0.03,-2.24,0.39,-0.02,0.32
2022-01-28 14:2:52.7660,0.438,-0.162,-0.647,0.19,0.08,-2.84,0.43,-0.05,0.42
2022-01-28 14:2:52.7770,0.417,-0.177,-0.585,0.45,0.11,-3.4,0.48,-0.05,0.51
2022-01-28 14:2:52.7860,0.389,-0.185,-0.529,0.45,0.11,-3.4,0.52,-0.04,0.59
2022-01-28 14:2:52.7960,0.359,-0.193,-0.482,0.99,0.11,-4.21,0.54,-0.03,0.67
2022-01-28 14:2:52.8060,0.331,-0.201,-0.448,0.99,0.11,-4.21,0.52,-0.04,0.73
2022-01-28 14:2:52.8150,0.305,-0.207,-0.424,1.23,0.1,-4.44,0.49,-0.06,0.77
2022-01-28 14:2:52.8250,0.282,-0.214,-0.404,1.61,0.09,-4.77,0.46,-0.08,0.79
2022-01-28 14:2:52.8360,0.264,-0.22,-0.391,1.61,0.09,-4.77,0.41,-0.12,0.78
2022-01-28 14:2:52.8460,0.249,-0.225,-0.392,1.73,0.06,-4.77,0.36,-0.16,0.75
2022-01-28 14:2:52.8560,0.237,-0.228,-0.403,1.82,0.03,-4.68,0.31,-0.21,0.69
2022-01-28 14:2:52.8660,0.219,-0.229,-0.41,2.09,-0.08,-4.53,0.27,-0.24,0.61
2022-01-28 14:2:52.8760,0.202,-0.226,-0.418,2.09,-0.08,-4.53,0.27,-0.24,0.61
2022-01-28 14:2:52.8860,0.186,-0.218,-0.438,2.21,-0.2,-4.36,0.16,-0.33,0.43
2022-01-28 14:2:52.8960,0.174,-0.208,-0.477,2.29,-0.33,-4.01,0.16,-0.33,0.43
2022-01-28 14:2:52.9060,0.17,-0.199,-0.511,2.31,-0.44,-3.66,0.09,-0.45,0.18
2022-01-28 14:2:52.9160,0.173,-0.19,-0.54,2.25,-0.54,-3.4,0.09,-0.45,0.18
2022-01-28 14:2:52.9260,0.187,-0.188,-0.571,2.08,-0.59,-3.11,0.05,-0.49,0.03
2022-01-28 14:2:52.9360,0.2,-0.19,-0.6,1.91,-0.55,-2.84,-0.16,-0.49,-0.22
2022-01-28 14:2:52.9460,0.218,-0.193,-0.636,1.7,-0.52,-2.53,-0.3,-0.43,-0.28
2022-01-28 14:2:52.9560,0.247,-0.201,-0.69,1.39,-0.4,-2.05,-0.39,-0.37,-0.34
2022-01-28 14:2:52.9660,0.279,-0.205,-0.742,1.05,-0.31,-1.54,-0.38,-0.33,-0.39
2022-01-28 14:2:52.9760,0.308,-0.204,-0.783,0.74,-0.27,-1.15,-0.32,-0.26,-0.45
2022-01-28 14:2:52.9860,0.339,-0.204,-0.806,0.43,-0.22,-0.92,-0.22,-0.13,-0.5
2022-01-28 14:2:52.9960,0.379,-0.208,-0.828,0.04,-0.15,-0.73,-0.13,0.06,-0.49
2022-01-28 14:2:53.0060,0.427,-0.203,-0.854,-0.4,-0.15,-0.47,-0.08,0.34,-0.42
2022-01-28 14:2:53.0160,0.484,-0.202,-0.877,-0.92,-0.15,-0.25,-0.08,0.34,-0.42
2022-01-28 14:2:53.0260,0.546,-0.21,-0.938,-1.47,-0.05,0.32,-0.15,0.69,-0.23
2022-01-28 14:2:53.0370,0.604,-0.225,-1.02,-2.42,0.29,2.01,-0.25,0.59,-0.16
2022-01-28 14:2:53.0460,0.653,-0.241,-1.109,-2.42,0.29,2.01,-0.36,0.32,-0.17
2022-01-28 14:2:53.0560,0.681,-0.245,-1.2,-2.72,0.32,3.7,-0.47,-0.02,-0.27
2022-01-28 14:2:53.0670,0.681,-0.23,-1.279,-2.72,0.32,3.7,-0.57,-0.33,-0.41
2022-01-28 14:2:53.0770,0.661,-0.202,-1.341,-2.27,-0.05,4.55,-0.68,-0.47,-0.57
2022-01-28 14:2:53.0870,0.629,-0.179,-1.362,-2.27,-0.05,4.55,-0.68,-0.47,-0.57
2022-01-28 14:2:53.0970,0.601,-0.168,-1.359,-2.01,-0.07,4.51,-0.92,-0.11,-0.74
2022-01-28 14:2:53.1070,0.588,-0.164,-1.36,-1.81,0.07,4.53,-0.97,0.21,-0.72
2022-01-28 14:2:53.1170,0.584,-0.159,-1.366,-1.81,0.07,4.53,-0.96,0.47,-0.64
2022-01-28 14:2:53.1270,0.592,-0.157,-1.361,-1.9,0.36,4.29,-0.9,0.62,-0.51
2022-01-28 14:2:53.1370,0.607,-0.17,-1.336,-1.9,0.36,4.29,-0.82,0.66,-0.34
2022-01-28 14:2:53.1470,0.62,-0.188,-1.299,-1.93,0.87,3.54,-0.71,0.6,-0.14
2022-01-28 14:2:53.1560,0.618,-0.205,-1.253,-1.63,0.97,2.94,-0.57,0.5,0.1
2022-01-28 14:2:53.1670,0.589,-0.208,-1.19,-1.13,1.01,2.36,-0.43,0.39,0.34
2022-01-28 14:2:53.1770,0.54,-0.21,-1.13,-0.52,1.22,1.79,-0.31,0.29,0.59
2022-01-28 14:2:53.1870,0.479,-0.232,-1.071,0.09,1.48,1.29,-0.19,0.2,0.83
2022-01-28 14:2:53.1970,0.418,-0.261,-1.021,0.09,1.48,1.29,-0.06,0.09,1.02
2022-01-28 14:2:53.2070,0.351,-0.283,-0.982,0.74,1.68,0.91,0.07,-0.04,1.15
2022-01-28 14:2:53.2170,0.277,-0.302,-0.944,1.44,1.82,0.53,0.22,-0.19,1.21
2022-01-28 14:2:53.2270,0.206,-0.322,-0.908,2.71,1.97,-0.29,0.36,-0.32,1.2
2022-01-28 14:2:53.2370,0.144,-0.331,-0.859,3.19,1.84,-0.79,0.49,-0.41,1.13
2022-01-28 14:2:53.2470,0.091,-0.324,-0.81,3.19,1.84,-0.79,0.49,-0.41,1.13
2022-01-28 14:2:53.2570,0.048,-0.322,-0.763,3.56,1.71,-1.27,0.69,-0.51,0.91
2022-01-28 14:2:53.2670,0.021,-0.325,-0.722,3.8,1.64,-1.68,0.77,-0.57,0.78
2022-01-28 14:2:53.2770,0.014,-0.33,-0.69,3.79,1.62,-2.36,0.86,-0.66,0.69
2022-01-28 14:2:53.2870,0.011,-0.345,-0.655,3.79,1.62,-2.36,0.95,-0.74,0.63
2022-01-28 14:2:53.2970,0.016,-0.371,-0.618,3.67,1.75,-2.75,1.02,-0.86,0.6
2022-01-28 14:2:53.3070,0.029,-0.388,-0.601,3.12,1.76,-3.08,1.04,-1.01,0.52
2022-01-28 14:2:53.3180,0.057,-0.39,-0.59,2.65,1.64,-3.19,1.02,-1.16,0.4
2022-01-28 14:2:53.3280,0.093,-0.389,-0.581,2.65,1.64,-3.19,0.96,-1.3,0.24
2022-01-28 14:2:53.3380,0.119,-0.389,-0.581,2.26,1.55,-3.21,0.89,-1.37,0.1
2022-01-28 14:2:53.3480,0.133,-0.386,-0.575,1.99,1.44,-3.3,0.82,-1.33,0.01
2022-01-28 14:2:53.3570,0.137,-0.38,-0.565,1.64,1.08,-3.52,0.75,-1.2,-0.06
2022-01-28 14:2:53.3680,0.146,-0.363,-0.557,1.4,0.89,-3.51,0.64,-0.98,-0.13
2022-01-28 14:2:53.3780,0.161,-0.351,-0.56,1.4,0.89,-3.51,0.48,-0.67,-0.18
2022-01-28 14:2:53.3880,0.185,-0.361,-0.577,1.12,0.92,-3.38,0.48,-0.67,-0.18
2022-01-28 14:2:53.3980,0.227,-0.381,-0.623,0.18,1.26,-2.2,0.04,-0.19,-0.23
2022-01-28 14:2:53.4080,0.276,-0.397,-0.706,-0.16,1.19,-1.37,-0.22,-0.16,-0.16
2022-01-28 14:2:53.4180,0.315,-0.385,-0.788,-0.9,1.38,-1.04,-0.41,-0.09,-0.16
2022-01-28 14:2:53.4280,0.383,-0.406,-0.821,-0.9,1.38,-1.04,-0.35,-0.08,-0.07
2022-01-28 14:2:53.4370,0.391,-0.408,-0.94,-1.35690281778574,1.12,1.41,-0.25,-0.33,0.02
2022-01-28 14:2:53.4480,0.427,-0.364,-1.074,-1.36,1.12,1.41,-0.13,-0.43,0.15
2022-01-28 14:2:53.4580,0.43,-0.351,-1.035,-1.38,0.84,1.1,0.05,-0.24,0.33
2022-01-28 14:2:53.4680,0.415,-0.337,-1.046,-1.38,0.84,1.1,0.21,0.0,0.54
2022-01-28 14:2:53.4780,0.39,-0.324,-1.107,-1.14,0.67,1.69,0.32,0.17,0.7
2022-01-28 14:2:53.4880,0.386,-0.319,-1.17,-1.09,0.57,2.32,0.38,0.22,0.77
2022-01-28 14:2:53.4980,0.377,-0.321,-1.234,-1.01,0.53,2.95,0.37,0.13,0.75
2022-01-28 14:2:53.5080,0.373,-0.323,-1.314,-0.96,0.49,3.73,0.32,-0.1,0.68
2022-01-28 14:2:53.5180,0.373,-0.328,-1.396,-0.98,0.5,4.57,0.27,-0.34,0.6
2022-01-28 14:2:53.5280,0.376,-0.326,-1.433,-1.05,0.45,4.99,0.28,-0.46,0.52
2022-01-28 14:2:53.5380,0.373,-0.3,-1.436,-1.04,-0.21,4.89,0.36,-0.45,0.46
2022-01-28 14:2:53.5480,0.361,-0.263,-1.419,-1.0,-0.52,4.61,0.49,-0.37,0.43
2022-01-28 14:2:53.5580,0.354,-0.24,-1.388,-1.0,-0.52,4.61,0.61,-0.29,0.43
2022-01-28 14:2:53.5680,0.353,-0.237,-1.354,-1.03,-0.63,4.28,0.67,-0.27,0.45
2022-01-28 14:2:53.5780,0.354,-0.241,-1.329,-1.07,-0.66,4.05,0.67,-0.3,0.45
2022-01-28 14:2:53.5880,0.352,-0.242,-1.289,-1.04,-0.8,3.29,0.62,-0.35,0.41
2022-01-28 14:2:53.5980,0.34,-0.241,-1.248,-1.04,-0.8,3.29,0.55,-0.41,0.34
2022-01-28 14:2:53.6080,0.325,-0.245,-1.216,-0.94,-0.82,2.97,0.46,-0.49,0.25
2022-01-28 14:2:53.6180,0.307,-0.247,-1.189,-0.82,-0.84,2.71,0.35,-0.57,0.13
2022-01-28 14:2:53.6280,0.287,-0.242,-1.154,-0.49,-1.09,1.97,0.24,-0.61,0.01
2022-01-28 14:2:53.6380,0.261,-0.225,-1.112,-0.49,-1.09,1.97,0.14,-0.56,-0.13
2022-01-28 14:2:53.6480,0.235,-0.206,-1.049,-0.28,-1.29,1.38,0.08,-0.42,-0.25
2022-01-28 14:2:53.6580,0.214,-0.194,-0.98,-0.11,-1.42,0.69,0.06,-0.25,-0.33
2022-01-28 14:2:53.6680,0.199,-0.192,-0.909,0.04,-1.46,-0.01,0.08,-0.05,-0.37
2022-01-28 14:2:53.6780,0.202,-0.202,-0.839,0.04,-1.37,-0.7,0.11,0.12,-0.36
2022-01-28 14:2:53.6880,0.22,-0.218,-0.77,-0.11,-1.21,-1.37,0.11,0.12,-0.36
2022-01-28 14:2:53.6990,0.238,-0.229,-0.711,-0.26,-1.1,-1.96,0.22,0.3,-0.32
2022-01-28 14:2:53.7090,0.252,-0.238,-0.661,-0.37,-1.03,-2.44,0.24,0.27,-0.32
2022-01-28 14:2:53.7180,0.262,-0.254,-0.617,-0.53,-0.73,-3.15,0.24,0.17,-0.32
2022-01-28 14:2:53.7290,0.275,-0.272,-0.59,-0.53,-0.73,-3.15,0.23,-0.01,-0.32
2022-01-28 14:2:53.7390,0.289,-0.293,-0.575,-0.65,-0.54,-3.29,0.22,-0.23,-0.31
2022-01-28 14:2:53.7490,0.299,-0.309,-0.557,-0.83,-0.31,-3.55,0.22,-0.45,-0.31
2022-01-28 14:2:53.7590,0.303,-0.317,-0.55,-0.83,-0.31,-3.55,0.24,-0.66,-0.31
2022-01-28 14:2:53.7690,0.3,-0.321,-0.542,-0.86,-0.28,-3.63,0.25,-0.83,-0.32
2022-01-28 14:2:53.7790,0.284,-0.312,-0.531,-0.77,-0.36,-3.74,0.26,-0.91,-0.33
2022-01-28 14:2:53.7890,0.259,-0.294,-0.524,-0.61,-0.55,-3.83,0.24,-0.89,-0.34
2022-01-28 14:2:53.7990,0.231,-0.281,-0.524,-0.41,-0.71,-3.85,0.24,-0.89,-0.34
2022-01-28 14:2:53.8090,0.201,-0.275,-0.535,0.07,-0.82,-3.62,0.18,-0.68,-0.35
2022-01-28 14:2:53.8190,0.171,-0.273,-0.55,0.07,-0.82,-3.62,0.16,-0.55,-0.38
2022-01-28 14:2:53.8290,0.144,-0.278,-0.574,0.33,-0.74,-3.07,0.16,-0.49,-0.46
2022-01-28 14:2:53.8390,0.142,-0.282,-0.608,0.18,-0.76,-2.93,0.18,-0.45,-0.58
2022-01-28 14:2:53.8490,0.156,-0.28,-0.621,0.18,-0.76,-2.93,0.19,-0.36,-0.71
2022-01-28 14:2:53.8590,0.159,-0.284,-0.628,0.11,-0.74,-2.86,0.22,-0.29,-0.81
2022-01-28 14:2:53.8690,0.138,-0.286,-0.643,0.45,-0.76,-2.61,0.23,-0.18,-0.87
2022-01-28 14:2:53.8790,0.125,-0.282,-0.653,0.45,-0.76,-2.61,0.19,-0.03,-0.93
2022-01-28 14:2:53.8890,0.111,-0.286,-0.677,0.61,-0.73,-2.4,0.19,-0.03,-0.93
2022-01-28 14:2:53.8990,0.102,-0.303,-0.712,0.75,-0.57,-2.05,0.04,0.19,-1.08
2022-01-28 14:2:53.9090,0.095,-0.321,-0.768,0.92,-0.27,-0.85,-0.04,0.17,-1.2
2022-01-28 14:2:53.9190,0.097,-0.328,-0.836,0.92,-0.27,-0.85,-0.1,0.07,-1.32
2022-01-28 14:2:53.9290,0.105,-0.342,-0.895,0.9,-0.12,-0.29,-0.1,-0.1,-1.4
2022-01-28 14:2:53.9390,0.119,-0.365,-0.953,0.82,0.14,0.31,-0.02,-0.21,-1.42
2022-01-28 14:2:53.9490,0.139,-0.403,-0.945,0.65,0.52,0.33,0.13,-0.08,-1.39
2022-01-28 14:2:53.9590,0.155,-0.44,-0.895,0.49,0.9,-0.13,0.28,0.17,-1.35
2022-01-28 14:2:53.9690,0.164,-0.428,-0.911,0.49,0.9,-0.13,0.31,0.26,-1.36
2022-01-28 14:2:53.9790,0.172,-0.387,-1.016,0.49,0.49,0.85,0.17,0.15,-1.41
2022-01-28 14:2:53.9890,0.202,-0.388,-1.112,0.28,0.44,1.85,0.17,0.15,-1.41
2022-01-28 14:2:54.0000,0.237,-0.445,-1.158,-0.03,0.99,2.36,-0.29,-0.17,-1.41
2022-01-28 14:2:54.0090,0.253,-0.478,-1.194,-0.18,1.44,2.68,-0.5,-0.27,-1.37
2022-01-28 14:2:54.0190,0.234,-0.445,-1.236,-0.01,1.26,3.08,-0.67,-0.36,-1.38
2022-01-28 14:2:54.0300,0.212,-0.394,-1.279,0.32,0.69,3.73,-0.79,-0.46,-1.41
2022-01-28 14:2:54.0400,0.205,-0.374,-1.305,0.28,0.86,3.76,-0.84,-0.5,-1.42
2022-01-28 14:2:54.0500,0.211,-0.381,-1.311,0.28,0.86,3.76,-0.83,-0.5,-1.42
2022-01-28 14:2:54.0680,0.219,-0.387,-1.316,0.21,1.22,3.52,-0.78,-0.44,-1.38
2022-01-28 14:2:54.0700,0.215,-0.395,-1.288,0.21,1.22,3.52,-0.72,-0.31,-1.35
2022-01-28 14:2:54.0700,0.202,-0.376,-1.27,0.21,1.22,3.52,-0.7,-0.23,-1.33
2022-01-28 14:2:54.0820,0.189,-0.35,-1.265,0.33,1.28,3.24,-0.74,-0.17,-1.31
2022-01-28 14:2:54.0920,0.19,-0.35,-1.24,0.48,1.1,3.2,-0.86,-0.16,-1.3
2022-01-28 14:2:54.1020,0.221,-0.357,-1.241,0.53,1.18,2.93,-1.01,-0.22,-1.29
2022-01-28 14:2:54.1120,0.251,-0.364,-1.226,0.25,1.37,2.89,-1.12,-0.29,-1.27
2022-01-28 14:2:54.1220,0.253,-0.368,-1.168,-0.06,1.57,2.75,-1.17,-0.26,-1.22
2022-01-28 14:2:54.1320,0.228,-0.357,-1.09,-0.12,1.76,2.2,-1.15,-0.17,-1.17
2022-01-28 14:2:54.1420,0.202,-0.333,-1.04,0.1,1.81,1.42,-1.15,-0.17,-1.17
2022-01-28 14:2:54.1520,0.185,-0.312,-1.004,0.38,1.72,0.85,-0.9,-0.08,-1.18
2022-01-28 14:2:54.1620,0.167,-0.295,-0.947,0.56,1.62,0.51,-0.73,-0.08,-1.22
2022-01-28 14:2:54.1720,0.151,-0.272,-0.926,0.74,1.56,-0.07,-0.57,-0.13,-1.24
2022-01-28 14:2:54.1820,0.161,-0.258,-0.912,0.92,1.42,-0.34,-0.4,-0.22,-1.26
2022-01-28 14:2:54.1920,0.158,-0.248,-0.898,0.85,1.35,-0.47,-0.22,-0.34,-1.25
2022-01-28 14:2:54.2020,0.139,-0.251,-0.878,0.82,1.3,-0.62,-0.05,-0.43,-1.22
2022-01-28 14:2:54.2120,0.122,-0.242,-0.864,0.98,1.36,-0.82,0.11,-0.46,-1.19
2022-01-28 14:2:54.2220,0.1,-0.218,-0.836,1.12,1.32,-0.98,0.27,-0.43,-1.14
2022-01-28 14:2:54.2330,0.075,-0.189,-0.799,1.29,1.1,-1.23,0.4,-0.41,-1.08
2022-01-28 14:2:54.2420,0.044,-0.145,-0.785,1.51,0.82,-1.61,0.5,-0.43,-0.94
2022-01-28 14:2:54.2520,0.026,-0.126,-0.759,1.78,0.39,-1.78,0.58,-0.36,-0.73
2022-01-28 14:2:54.2630,0.07,-0.193,-0.713,1.98,0.07,-1.99,0.67,-0.15,-0.56
2022-01-28 14:2:54.2730,0.091,-0.222,-0.691,1.58,0.61,-2.44,0.76,0.03,-0.47
2022-01-28 14:2:54.2820,0.093,-0.165,-0.69,1.32,0.96,-2.7,0.82,0.18,-0.49
2022-01-28 14:2:54.2930,0.102,-0.137,-0.676,1.33,0.39,-2.69,0.86,0.31,-0.56
2022-01-28 14:2:54.3030,0.111,-0.175,-0.633,1.28,-0.04,-2.79,0.86,0.31,-0.56
2022-01-28 14:2:54.3110,0.135,-0.212,-0.593,1.24,0.22,-3.16,0.9,0.41,-0.74
2022-01-28 14:2:54.3230,0.181,-0.222,-0.591,1.08,0.55,-3.56,0.86,0.27,-0.85
2022-01-28 14:2:54.3330,0.233,-0.23,-0.612,0.69,0.61,-3.61,0.78,0.06,-0.94
2022-01-28 14:2:54.3430,0.28,-0.246,-0.616,0.2,0.62,-3.39,0.69,-0.12,-0.99
2022-01-28 14:2:54.3530,0.316,-0.258,-0.619,-0.26,0.73,-3.31,0.59,-0.19,-0.98
2022-01-28 14:2:54.3640,0.349,-0.257,-0.611,-0.62,0.83,-3.29,0.5,-0.14,-0.94
2022-01-28 14:2:54.3730,0.351,-0.267,-0.616,-0.96,0.8,-3.34,0.43,-0.12,-0.87
2022-01-28 14:2:54.3830,0.341,-0.268,-0.677,-1.02,0.87,-3.34,0.34,-0.17,-0.79
2022-01-28 14:2:54.3930,0.339,-0.259,-0.734,-0.91,0.89,-2.79,0.25,-0.23,-0.67
2022-01-28 14:2:54.4030,0.331,-0.261,-0.762,-0.9,0.79,-2.2,0.17,-0.29,-0.55
2022-01-28 14:2:54.4130,0.322,-0.253,-0.859,-0.84,0.79,-1.91,0.07,-0.51,-0.47
2022-01-28 14:2:54.4230,0.329,-0.239,-0.967,-0.78,0.75,-1.1,-0.04,-0.51,-0.44
2022-01-28 14:2:54.4330,0.38,-0.237,-0.936,-0.86,0.61,0.06,-0.1,-0.1,-0.47
2022-01-28 14:2:54.4430,0.349,-0.279,-0.892,-1.34,0.59,-0.13,-0.08,0.31,-0.54
2022-01-28 14:2:54.4530,0.378,-0.241,-0.936,-1.13,0.98,-0.58,0.02,0.53,-0.86
2022-01-28 14:2:54.4630,0.423,-0.174,-1.101,-1.18,0.82,-0.31,0.13,0.39,-1.14
2022-01-28 14:2:54.4730,0.43,-0.205,-1.163,-1.68,0.05,1.24,0.3,0.31,-1.36
2022-01-28 14:2:54.4830,0.422,-0.227,-1.116,-1.66,0.31,2.11,0.47,0.22,-1.5
2022-01-28 14:2:54.4930,0.363,-0.226,-1.162,-1.61,0.56,1.65,0.59,-0.02,-1.58
2022-01-28 14:2:54.5030,0.319,-0.245,-1.217,-1.03,0.54,1.99,0.61,-0.39,-1.6
2022-01-28 14:2:54.5130,0.303,-0.263,-1.302,-0.56,0.69,2.57,0.47,-0.87,-1.59
2022-01-28 14:2:54.5230,0.317,-0.253,-1.356,-0.42,0.89,3.31,0.27,-1.14,-1.57
2022-01-28 14:2:54.5330,0.346,-0.213,-1.324,-0.59,0.84,3.97,0.07,-1.26,-1.59
2022-01-28 14:2:54.5430,0.342,-0.151,-1.36,-0.98,0.52,3.63,-0.08,-1.27,-1.61
2022-01-28 14:2:54.5530,0.318,-0.126,-1.371,-1.07,-0.05,3.88,-0.15,-1.08,-1.54
2022-01-28 14:2:54.5630,0.284,-0.143,-1.327,-0.93,-0.31,4.05,-0.22,-0.73,-1.31
2022-01-28 14:2:54.5740,0.245,-0.167,-1.282,-0.68,-0.13,3.62,-0.24,-0.33,-1.04
2022-01-28 14:2:54.5840,0.242,-0.141,-1.216,-0.29,0.17,3.17,-0.23,-0.06,-0.87
2022-01-28 14:2:54.5940,0.241,-0.089,-1.188,-0.24,0.04,2.52,-0.22,0.04,-0.78
2022-01-28 14:2:54.6040,0.263,-0.065,-1.165,-0.2,-0.45,2.19,-0.21,0.07,-0.72
2022-01-28 14:2:54.6140,0.272,-0.068,-1.13,-0.38,-0.67,1.99,-0.21,-0.02,-0.66
2022-01-28 14:2:54.6240,0.257,-0.087,-1.108,-0.5,-0.65,1.64,-0.22,-0.18,-0.59
2022-01-28 14:2:54.6380,0.248,-0.099,-1.081,-0.36,-0.43,1.41,-0.24,-0.46,-0.54
2022-01-28 14:2:54.6480,0.233,-0.111,-1.09,-0.3,-0.27,1.13,-0.29,-0.87,-0.52
2022-01-28 14:2:54.6580,0.216,-0.112,-1.095,-0.24,-0.11,1.14,-0.36,-1.23,-0.53
2022-01-28 14:2:54.6680,0.206,-0.111,-1.06,-0.15,-0.04,1.22,-0.44,-1.53,-0.53
2022-01-28 14:2:54.6780,0.184,-0.16,-1.047,-0.13,0.46,0.69,-0.51,-1.69,-0.48
2022-01-28 14:2:54.6880,0.196,-0.154,-0.976,-0.13,0.46,0.69,-0.57,-1.69,-0.48
2022-01-28 14:2:54.6980,0.158,-0.123,-0.945,-0.4,0.61,0.01,-0.57,-1.69,-0.48
2022-01-28 14:2:54.7080,0.113,-0.134,-0.907,0.08,0.46,-0.71,-0.62,-1.37,-0.55
2022-01-28 14:2:54.7190,0.086,-0.157,-0.804,0.08,0.46,-0.71,-0.57,-0.94,-0.56
2022-01-28 14:2:54.7280,0.061,-0.164,-0.721,0.27,0.74,-1.7,-0.49,-0.47,-0.56
2022-01-28 14:2:54.7380,0.063,-0.138,-0.69,0.5,0.76,-2.94,-0.37,-0.01,-0.59
2022-01-28 14:2:54.7490,0.123,-0.041,-0.663,0.5,0.76,-2.94,-0.24,0.43,-0.64
2022-01-28 14:2:54.7590,0.184,-0.017,-0.666,-0.54,-0.49,-3.2,-0.1,0.73,-0.6
2022-01-28 14:2:54.7690,0.264,-0.095,-0.677,-1.21,0.24,-3.08,0.02,0.86,-0.47
2022-01-28 14:2:54.7790,0.325,-0.13,-0.699,-1.85,0.67,-2.89,0.1,0.75,-0.31
2022-01-28 14:2:54.7890,0.278,-0.114,-0.713,-1.38,0.53,-2.7,0.15,0.55,-0.16
2022-01-28 14:2:54.7990,0.235,-0.131,-0.722,-1.38,0.53,-2.7,0.22,0.36,-0.08
2022-01-28 14:2:54.8090,0.206,-0.151,-0.71,-0.91,0.62,-2.62,0.22,0.36,-0.08
2022-01-28 14:2:54.8180,0.214,-0.107,-0.622,-0.56,0.44,-3.45,0.49,0.43,-0.32
2022-01-28 14:2:54.8280,0.221,-0.048,-0.578,-0.6,-0.23,-3.99,0.65,0.51,-0.54
2022-01-28 14:2:54.8390,0.212,-0.074,-0.553,-0.6,-0.23,-3.99,0.86,0.62,-0.73
2022-01-28 14:2:54.8480,0.192,-0.09,-0.539,-0.47,-0.14,-4.16,1.09,0.54,-0.95
2022-01-28 14:2:54.8590,0.191,-0.047,-0.619,-0.21,0.02,-4.39,1.09,0.54,-0.95
2022-01-28 14:2:54.8690,0.195,0.001,-0.673,-0.13,-0.47,-3.63,1.63,-0.12,-1.53
2022-01-28 14:2:54.8790,0.184,0.03,-0.731,-0.16,-1.07,-3.05,1.84,-0.49,-1.78
2022-01-28 14:2:54.8890,0.156,0.006,-0.819,0.14,-1.51,-1.62,1.92,-0.77,-1.85
2022-01-28 14:2:54.8990,0.146,-0.029,-0.821,0.14,-1.51,-1.62,1.92,-0.77,-1.85
2022-01-28 14:2:54.9090,0.088,-0.047,-0.874,0.17,-1.3,-1.48,1.7,-0.91,-1.86
2022-01-28 14:2:54.9190,0.05,-0.104,-0.893,0.63,-1.26,-1.05,1.36,-0.79,-1.91
2022-01-28 14:2:54.9290,0.017,-0.174,-0.945,1.31,-0.22,-0.3,0.75,-0.43,-2.05
2022-01-28 14:2:54.9390,-0.0,-0.188,-0.88,1.31,-0.22,-0.3,0.75,-0.43,-2.05
2022-01-28 14:2:54.9490,0.009,-0.245,-0.885,1.55,0.02,-0.8,-0.66,0.81,-2.58
2022-01-28 14:2:54.9590,0.081,-0.331,-0.913,1.11,1.59,-0.63,-1.19,1.3,-2.84
2022-01-28 14:2:54.9690,0.111,-0.316,-1.003,0.91,1.77,0.21,-1.55,1.45,-3.09
2022-01-28 14:2:54.9800,0.082,-0.266,-1.143,0.91,1.77,0.21,-1.78,1.12,-3.25
2022-01-28 14:2:54.9890,0.1,-0.29,-1.315,1.34,1.47,1.49,-1.94,0.56,-3.27
2022-01-28 14:2:54.9990,0.131,-0.295,-1.406,1.33,1.9,3.22,-2.07,0.15,-3.18
2022-01-28 14:2:55.0090,0.119,-0.238,-1.4,1.04,2.29,4.22,-2.13,-0.01,-3.03
2022-01-28 14:2:55.0190,0.086,-0.173,-1.436,1.46,1.68,4.48,-2.08,-0.06,-2.79
2022-01-28 14:2:55.0290,0.095,-0.14,-1.466,1.46,1.68,4.48,-1.94,-0.09,-2.44
2022-01-28 14:2:55.0390,0.114,-0.138,-1.493,1.19,1.71,5.06,-1.7,-0.22,-1.94
2022-01-28 14:2:55.0500,0.123,-0.171,-1.55,1.19,1.71,5.06,-1.7,-0.22,-1.94
2022-01-28 14:2:55.0590,0.133,-0.176,-1.568,1.06,2.18,5.6,-1.06,-0.62,-0.85
2022-01-28 14:2:55.0690,0.143,-0.118,-1.529,0.73,2.01,5.51,-0.72,-0.66,-0.54
2022-01-28 14:2:55.0800,0.159,-0.07,-1.481,0.52,1.55,5.02,-0.41,-0.65,-0.46
2022-01-28 14:2:55.0890,0.179,-0.061,-1.445,0.52,1.55,5.02,-0.41,-0.65,-0.46
2022-01-28 14:2:55.1000,0.191,-0.088,-1.386,0.07,1.69,4.08,0.07,-0.53,-0.69
2022-01-28 14:2:55.1100,0.179,-0.129,-1.339,0.1,2.1,3.6,0.25,-0.44,-0.89
2022-01-28 14:2:55.1200,0.16,-0.155,-1.286,0.1,2.1,3.6,0.39,-0.36,-1.13
2022-01-28 14:2:55.1300,0.146,-0.16,-1.234,0.25,2.36,3.08,0.52,-0.25,-1.4
2022-01-28 14:2:55.1400,0.147,-0.151,-1.162,0.36,2.42,2.57,0.66,-0.11,-1.64
2022-01-28 14:2:55.1500,0.156,-0.136,-1.093,0.34,2.3,1.87,0.82,-0.0,-1.82
2022-01-28 14:2:55.1600,0.158,-0.117,-1.035,0.2,1.87,0.58,0.95,0.02,-1.9
2022-01-28 14:2:55.1700,0.163,-0.114,-0.997,0.2,1.87,0.58,1.04,-0.05,-1.88
2022-01-28 14:2:55.1800,0.164,-0.1,-0.965,0.1,1.59,-0.14,1.08,-0.16,-1.79
2022-01-28 14:2:55.1900,0.165,-0.083,-0.928,0.1,1.59,-0.14,1.08,-0.23,-1.66
2022-01-28 14:2:55.2000,0.16,-0.089,-0.874,0.06,1.32,-0.49,1.07,-0.22,-1.48
2022-01-28 14:2:55.2100,0.156,-0.109,-0.822,0.09,1.39,-1.55,1.02,-0.19,-1.3
2022-01-28 14:2:55.2210,0.148,-0.124,-0.801,0.13,1.49,-1.82,0.93,-0.2,-1.17
2022-01-28 14:2:55.2300,0.148,-0.116,-0.784,0.15,1.37,-1.94,0.8,-0.13,-1.11
2022-01-28 14:2:55.2400,0.149,-0.104,-0.73,0.15,1.1943617708981038,-2.4644072699546817,0.66,0.01,-1.07
2022-01-28 14:2:55.2500,0.143,-0.106,-0.724,0.11,1.19,-2.47,0.52,0.06,-1.02
2022-01-28 14:2:55.2600,0.144,-0.101,-0.739,0.18,1.11,-2.43,0.4,0.1,-0.94
2022-01-28 14:2:55.2700,0.146,-0.097,-0.717,0.18,1.03,-2.62,0.32,0.17,-0.83
2022-01-28 14:2:55.2800,0.146,-0.099,-0.713,0.18,1.05,-2.69,0.29,0.19,-0.73
2022-01-28 14:2:55.2900,0.155,-0.091,-0.707,0.18,1.05,-2.69,0.32,0.21,-0.65
2022-01-28 14:2:55.3000,0.173,-0.079,-0.687,0.14,0.97,-2.72,0.37,0.23,-0.61
2022-01-28 14:2:55.3100,0.202,-0.071,-0.671,-0.26,0.71,-3.09,0.44,0.22,-0.58
2022-01-28 14:2:55.3200,0.229,-0.07,-0.683,-0.52,0.65,-2.98,0.51,0.14,-0.57
2022-01-28 14:2:55.3300,0.247,-0.076,-0.702,-0.52,0.65,-2.98,0.59,0.0,-0.59
2022-01-28 14:2:55.3400,0.257,-0.087,-0.742,-0.82,0.72,-2.44,0.65,-0.15,-0.61
2022-01-28 14:2:55.3500,0.264,-0.093,-0.764,-0.82,0.72,-2.44,0.72,-0.22,-0.65
2022-01-28 14:2:55.3600,0.272,-0.088,-0.776,-0.9,0.73,-2.18,0.76,-0.24,-0.65
2022-01-28 14:2:55.3710,0.289,-0.1,-0.802,-1.17,0.64,-1.83,0.8,-0.21,-0.6
2022-01-28 14:2:55.3810,0.304,-0.118,-0.817,-1.17,0.64,-1.83,0.8,-0.21,-0.6
2022-01-28 14:2:55.3900,0.279,-0.17,-0.828,-1.37,0.76,-1.69,0.85,0.0,-0.29
2022-01-28 14:2:55.4010,0.289,-0.22,-0.808,-1.15,1.11,-1.54,0.84,0.07,-0.21
2022-01-28 14:2:55.4110,0.281,-0.186,-0.881,-1.19,1.63,-1.74,0.84,0.07,-0.21
2022-01-28 14:2:55.4210,0.274,-0.204,-0.967,-1.08,1.28,-0.24,0.69,-0.3,-0.21
2022-01-28 14:2:55.4310,0.287,-0.236,-1.009,-1.08,1.28,-0.24,0.58,-0.47,-0.19
2022-01-28 14:2:55.4400,0.299,-0.254,-1.068,-1.25,1.56,0.18,0.45,-0.55,-0.15
2022-01-28 14:2:55.4500,0.319,-0.275,-1.119,-1.65,1.88,1.26,0.32,-0.48,-0.11
2022-01-28 14:2:55.4610,0.333,-0.304,-1.151,-1.82,2.12,1.57,0.2,-0.33,-0.09
2022-01-28 14:2:55.4710,0.363,-0.327,-1.188,-1.82,2.12,1.57,0.2,-0.33,-0.09
2022-01-28 14:2:55.4810,0.393,-0.327,-1.219,-2.11,2.37,1.94,-0.08,-0.02,-0.16
2022-01-28 14:2:55.4910,0.4,-0.31,-1.276,-2.54,2.27,2.75,-0.27,-0.02,-0.25
2022-01-28 14:2:55.5010,0.378,-0.293,-1.348,-2.35,2.15,3.46,-0.51,-0.13,-0.3
2022-01-28 14:2:55.5110,0.318,-0.251,-1.407,-2.35,2.15,3.46,-0.78,-0.3,-0.37
2022-01-28 14:2:55.5210,0.211,-0.155,-1.494,-0.89,1.08,4.82,-1.0,-0.58,-0.44
2022-01-28 14:2:55.5310,0.086,-0.061,-1.605,0.25,0.24,5.89,-1.11,-0.88,-0.45
2022-01-28 14:2:55.5410,-0.018,-0.004,-1.668,1.22,-0.25,6.58,-1.08,-0.98,-0.37
2022-01-28 14:2:55.5510,-0.102,0.024,-1.662,1.22,-0.25,6.58,-0.94,-0.79,-0.2
2022-01-28 14:2:55.5610,-0.156,0.028,-1.612,2.5,-0.44,6.14,-0.71,-0.41,0.02
2022-01-28 14:2:55.5710,-0.19,0.04,-1.542,2.5,-0.44,6.14,-0.49,-0.01,0.21
2022-01-28 14:2:55.5810,-0.202,0.069,-1.48,3.01,-0.71,4.83,-0.29,0.28,0.34
2022-01-28 14:2:55.5910,-0.188,0.1,-1.417,3.01,-0.71,4.83,-0.08,0.47,0.41
2022-01-28 14:2:55.6010,-0.17,0.113,-1.351,2.82,-1.19,3.59,0.15,0.6,0.44
2022-01-28 14:2:55.6110,-0.154,0.1,-1.283,2.82,-1.19,3.59,0.4,0.7,0.46
2022-01-28 14:2:55.6210,-0.138,0.059,-1.2,2.73,-1.14,2.93,0.64,0.83,0.47
2022-01-28 14:2:55.6310,-0.123,0.02,-1.107,2.65,-0.81,2.16,0.85,0.95,0.46
2022-01-28 14:2:55.6420,-0.103,-0.015,-1.022,2.59,-0.5,1.25,1.02,1.04,0.44
2022-01-28 14:2:55.6510,-0.08,-0.055,-0.952,2.37,0.01,-0.26,1.12,1.07,0.41
2022-01-28 14:2:55.6610,-0.057,-0.09,-0.895,2.25,0.26,-0.82,1.15,1.02,0.39
2022-01-28 14:2:55.6710,-0.036,-0.117,-0.852,2.25,0.26,-0.82,1.1,0.93,0.37
2022-01-28 14:2:55.6820,-0.021,-0.145,-0.812,2.13,0.5829842843860388,-1.59,0.97,0.83,0.38
2022-01-28 14:2:55.6920,-0.006,-0.186,-0.775,1.97,0.88,-1.94,0.77,0.72,0.4
2022-01-28 14:2:55.7020,0.016,-0.225,-0.748,1.97,0.88,-1.94,0.5,0.65,0.42
2022-01-28 14:2:55.7110,0.052,-0.248,-0.711,1.83,1.22,-2.19,0.2,0.62,0.42
2022-01-28 14:2:55.7210,0.091,-0.262,-0.677,1.55,1.43,-2.53,-0.11,0.58,0.41
2022-01-28 14:2:55.7310,0.117,-0.266,-0.679,1.21,1.57,-2.87,-0.41,0.45,0.36
2022-01-28 14:2:55.7420,0.132,-0.259,-0.691,0.86,1.64,-2.76,-0.41,0.45,0.36
2022-01-28 14:2:55.7520,0.132,-0.239,-0.696,0.86,1.64,-2.76,-0.85,0.08,0.21
2022-01-28 14:2:55.7620,0.121,-0.212,-0.691,0.94,1.36,-2.75,-0.94,-0.07,0.1
2022-01-28 14:2:55.7720,0.099,-0.184,-0.68,0.94,1.36,-2.75,-0.92,-0.24,-0.03
2022-01-28 14:2:55.7820,0.077,-0.157,-0.693,1.12,1.18,-2.88,-0.79,-0.41,-0.17
2022-01-28 14:2:55.7920,0.076,-0.127,-0.701,1.31,0.77,-2.68,-0.57,-0.46,-0.32
2022-01-28 14:2:55.8020,0.082,-0.107,-0.676,1.31,0.77,-2.68,-0.34,-0.4,-0.46
2022-01-28 14:2:55.8120,0.087,-0.107,-0.684,1.14,0.61,-2.92,-0.17,-0.34,-0.58
2022-01-28 14:2:55.8220,0.09,-0.111,-0.73,1.07,0.67,-2.53,-0.05,-0.4,-0.67
2022-01-28 14:2:55.8320,0.087,-0.122,-0.786,1.07,0.67,-2.53,0.02,-0.49,-0.74
2022-01-28 14:2:55.8420,0.081,-0.12,-0.789,1.05,0.79,-1.95,0.02,-0.49,-0.74
2022-01-28 14:2:55.8520,0.084,-0.111,-0.788,1.06,0.8,-1.88,0.12,-0.51,-0.89
2022-01-28 14:2:55.8620,0.097,-0.104,-0.802,1.0,0.72,-1.92,0.16,-0.48,-0.94
2022-01-28 14:2:55.8720,0.114,-0.101,-0.813,0.63,0.62,-1.7,0.17,-0.45,-0.96
2022-01-28 14:2:55.8820,0.129,-0.105,-0.825,0.63,0.62,-1.7,0.14,-0.43,-0.95
2022-01-28 14:2:55.8930,0.146,-0.108,-0.831,0.45,0.65,-1.58,0.08,-0.41,-0.93
2022-01-28 14:2:55.9020,0.161,-0.104,-0.843,0.24,0.7,-1.52,-0.0,-0.39,-0.9
2022-01-28 14:2:55.9120,0.174,-0.111,-0.86,-0.1,0.76,-1.28,-0.08,-0.37,-0.87
2022-01-28 14:2:55.9230,0.182,-0.115,-0.884,-0.1,0.76,-1.28,-0.08,-0.37,-0.87
2022-01-28 14:2:55.9320,0.191,-0.124,-0.882,-0.22,0.82,-1.03,-0.16,-0.13,-0.84
2022-01-28 14:2:55.9420,0.201,-0.127,-0.864,-0.32,0.93,-1.02,-0.14,0.11,-0.84
2022-01-28 14:2:55.9520,0.209,-0.126,-0.842,-0.41,1.01,-1.19,-0.08,0.33,-0.86
2022-01-28 14:2:55.9630,0.22,-0.121,-0.844,-0.46,1.02,-1.4,-0.08,0.33,-0.86
2022-01-28 14:2:55.9720,0.238,-0.108,-0.857,-0.64,0.9,-1.28,0.05,0.5,-0.94
2022-01-28 14:2:55.9830,0.244,-0.092,-0.872,-0.68,0.74,-1.13,0.13,0.44,-0.97
2022-01-28 14:2:55.9930,0.242,-0.091,-0.888,-0.63,0.72,-0.96,0.22,0.32,-1.0
2022-01-28 14:2:56.0020,0.242,-0.079,-0.898,-0.6,0.62,-0.84,0.31,0.19,-1.02
2022-01-28 14:2:56.0120,0.243,-0.065,-0.91,-0.6,0.62,-0.84,0.4,0.05,-1.03
2022-01-28 14:2:56.0230,0.246,-0.065,-0.943,-0.62,0.4,-0.43,0.48,-0.09,-1.02
2022-01-28 14:2:56.0330,0.246,-0.072,-0.965,-0.62,0.4,-0.43,0.53,-0.22,-1.0
2022-01-28 14:2:56.0430,0.242,-0.091,-0.99,-0.64,0.57,0.02,0.55,-0.34,-0.95
2022-01-28 14:2:56.0530,0.243,-0.105,-1.024,-0.64,0.57,0.02,0.53,-0.44,-0.92
2022-01-28 14:2:56.0630,0.247,-0.121,-1.039,-0.76,0.8,0.52,0.49,-0.48,-0.89
2022-01-28 14:2:56.0730,0.24,-0.145,-1.055,-0.76,0.8,0.52,0.42,-0.48,-0.86
2022-01-28 14:2:56.0830,0.243,-0.176,-1.075,-0.8,1.28,0.85,0.36,-0.42,-0.82
2022-01-28 14:2:56.0930,0.243,-0.208,-1.092,-0.8,1.28,0.85,0.29,-0.32,-0.78
2022-01-28 14:2:56.1030,0.23,-0.235,-1.118,-0.84,1.58,1.01,0.29,-0.32,-0.78
2022-01-28 14:2:56.1130,0.199,-0.246,-1.152,-0.76,1.84,1.24,0.24,-0.24,-0.76
2022-01-28 14:2:56.1230,0.16,-0.237,-1.183,-0.11,1.91,1.88,0.13,-0.14,-0.85
2022-01-28 14:2:56.1330,0.14,-0.223,-1.202,0.11,1.77,2.07,0.07,-0.07,-0.92
2022-01-28 14:2:56.1440,0.147,-0.226,-1.247,0.11,1.77,2.07,0.01,-0.06,-0.94
2022-01-28 14:2:56.1530,0.154,-0.248,-1.302,0.06,1.77,2.46,-0.04,-0.07,-0.94
2022-01-28 14:2:56.1630,0.127,-0.238,-1.335,0.19,1.98,3.37,-0.05,-0.05,-0.93
2022-01-28 14:2:56.1730,0.083,-0.209,-1.348,0.62,1.72,3.52,-0.02,-0.0,-0.94
2022-01-28 14:2:56.1830,0.046,-0.186,-1.364,0.62,1.72,3.52,0.04,0.06,-0.94
2022-01-28 14:2:56.1930,0.019,-0.166,-1.375,1.0,1.5,3.66,0.11,0.12,-0.96
2022-01-28 14:2:56.2030,-0.018,-0.123,-1.383,1.29,1.31,3.78,0.19,0.19,-0.99
2022-01-28 14:2:56.2130,-0.061,-0.082,-1.376,1.66,0.91,3.87,0.26,0.32,-1.03
2022-01-28 14:2:56.2230,-0.098,-0.052,-1.354,2.53,0.18,3.63,0.33,0.52,-1.06
2022-01-28 14:2:56.2330,-0.125,-0.035,-1.343,2.53,0.18,3.63,0.4,0.68,-1.07
2022-01-28 14:2:56.2440,-0.137,-0.024,-1.341,2.88,-0.02,3.51,0.47,0.78,-1.08
2022-01-28 14:2:56.2530,-0.149,-0.014,-1.327,3.09,-0.15,3.51,0.47,0.78,-1.08
2022-01-28 14:2:56.2630,-0.165,-0.019,-1.285,3.53,-0.3,3.07,0.63,0.98,-1.05
2022-01-28 14:2:56.2740,-0.185,-0.04,-1.22,3.84,-0.16,2.46,0.7,1.13,-1.02
2022-01-28 14:2:56.2830,-0.207,-0.052,-1.149,3.84,-0.16,2.46,0.78,1.3,-1.01
2022-01-28 14:2:56.2940,-0.214,-0.05,-1.082,4.41,-0.13,1.17,0.85,1.42,-1.04
2022-01-28 14:2:56.3040,-0.199,-0.037,-1.024,4.41,-0.13,1.17,0.92,1.48,-1.1
2022-01-28 14:2:56.3130,-0.183,-0.021,-0.969,4.43,-0.3,0.64,0.98,1.46,-1.2
2022-01-28 14:2:56.3230,-0.168,-0.017,-0.917,4.42,-0.52,0.14,0.98,1.46,-1.2
2022-01-28 14:2:56.3340,-0.152,-0.029,-0.866,4.41,-0.64,-0.33,1.02,1.25,-1.34
2022-01-28 14:2:56.3440,-0.137,-0.04,-0.813,4.39,-0.59,-0.79,1.0,1.13,-1.39
2022-01-28 14:2:56.3540,-0.116,-0.038,-0.755,4.36,-0.52,-1.26,0.97,1.02,-1.44
2022-01-28 14:2:56.3640,-0.078,-0.042,-0.72,4.03,-0.59,-2.14,0.91,0.86,-1.48
2022-01-28 14:2:56.3740,-0.037,-0.05,-0.706,3.7,-0.54,-2.25,0.83,0.64,-1.5
2022-01-28 14:2:56.3840,-0.005,-0.05,-0.705,3.7,-0.54,-2.25,0.74,0.33,-1.54
2022-01-28 14:2:56.3940,0.025,-0.048,-0.717,3.42,-0.54,-2.27,0.65,-0.0,-1.59
2022-01-28 14:2:56.4040,0.055,-0.043,-0.717,2.86,-0.61,-2.12,0.58,-0.28,-1.66
2022-01-28 14:2:56.4140,0.069,-0.032,-0.71,2.86,-0.61,-2.12,0.52,-0.49,-1.75
2022-01-28 14:2:56.4240,0.074,-0.033,-0.706,2.58,-0.7,-2.25,0.46,-0.64,-1.84
2022-01-28 14:2:56.4350,0.08,-0.027,-0.705,2.58,-0.7,-2.25,0.4,-0.72,-1.92
2022-01-28 14:2:56.4440,0.092,-0.021,-0.709,2.32,-0.76,-2.28,0.33,-0.76,-1.99
2022-01-28 14:2:56.4540,0.105,-0.02,-0.724,2.32,-0.76,-2.28,0.25,-0.81,-2.04
2022-01-28 14:2:56.4640,0.122,-0.014,-0.75,1.91,-0.72,-1.95,0.15,-0.87,-2.08
2022-01-28 14:2:56.4740,0.142,-0.002,-0.776,1.64,-0.77,-1.73,0.06,-0.94,-2.1
2022-01-28 14:2:56.4840,0.154,0.003,-0.805,1.45,-0.78,-1.47,-0.02,-0.98,-2.1
2022-01-28 14:2:56.4940,0.17,0.004,-0.819,1.45,-0.78,-1.47,-0.08,-0.99,-2.08
2022-01-28 14:2:56.5040,0.189,0.018,-0.834,0.97,-0.77,-1.22,-0.13,-0.94,-2.06
2022-01-28 14:2:56.5140,0.216,0.023,-0.84,0.97,-0.77,-1.22,-0.16,-0.85,-2.01
2022-01-28 14:2:56.5240,0.244,0.028,-0.848,0.64,-0.76,-1.18,-0.18,-0.74,-1.96
2022-01-28 14:2:56.5340,0.272,0.025,-0.864,0.3,-0.74,-1.13,-0.19,-0.65,-1.88
2022-01-28 14:2:56.5440,0.295,0.023,-0.873,-0.32,-0.55,-0.92,-0.17,-0.56,-1.78
2022-01-28 14:2:56.5540,0.308,0.025,-0.881,-0.5,-0.53,-0.85,-0.14,-0.48,-1.68
2022-01-28 14:2:56.5650,0.319,0.01,-0.884,-0.5,-0.53,-0.85,-0.09,-0.44,-1.55
2022-01-28 14:2:56.5750,0.332,-0.003,-0.892,-0.81,-0.17,-0.75,-0.03,-0.4,-1.43
2022-01-28 14:2:56.5850,0.342,-0.005,-0.884,-0.94,-0.11,-0.83,0.04,-0.38,-1.33
2022-01-28 14:2:56.5950,0.36,-0.01,-0.882,-0.94,-0.11,-0.83,0.13,-0.36,-1.24
2022-01-28 14:2:56.6040,0.378,-0.021,-0.879,-1.14,-0.04,-0.87,0.21,-0.37,-1.17
2022-01-28 14:2:56.6150,0.387,-0.035,-0.882,-1.5,0.21,-0.89,0.27,-0.38,-1.11
2022-01-28 14:2:56.6250,0.39,-0.046,-0.875,-1.5,0.21,-0.89,0.27,-0.38,-1.11
2022-01-28 14:2:56.6350,0.395,-0.052,-0.863,-1.55,0.33,-0.95,0.38,-0.33,-1.05
2022-01-28 14:2:56.6450,0.392,-0.062,-0.865,-1.64,0.38,-1.08,0.4,-0.31,-1.02
2022-01-28 14:2:56.6550,0.394,-0.073,-0.873,-1.68,0.55,-1.01,0.41,-0.27,-1.0
2022-01-28 14:2:56.6650,0.4,-0.083,-0.876,-1.68,0.55,-1.01,0.42,-0.21,-0.98
2022-01-28 14:2:56.6750,0.412,-0.097,-0.882,-1.76,0.63,-0.98,0.43,-0.18,-0.94
2022-01-28 14:2:56.6850,0.416,-0.123,-0.904,-1.88,0.73,-0.93,0.43,-0.21,-0.89
2022-01-28 14:2:56.6950,0.4,-0.131,-0.931,-1.97,0.96,-0.75,0.44,-0.28,-0.86
2022-01-28 14:2:56.7050,0.387,-0.123,-0.949,-1.84,1.05,-0.47,0.44,-0.28,-0.86
2022-01-28 14:2:56.7150,0.388,-0.109,-0.973,-1.74,0.96,-0.31,0.44,-0.45,-0.93
2022-01-28 14:2:56.7250,0.399,-0.095,-0.988,-1.91,0.64,0.07,0.44,-0.48,-0.99
2022-01-28 14:2:56.7350,0.417,-0.086,-1.003,-2.12,0.53,0.21,0.41,-0.44,-1.04
2022-01-28 14:2:56.7450,0.426,-0.089,-1.028,-2.25,0.52,0.44,0.38,-0.35,-1.04
2022-01-28 14:2:56.7550,0.443,-0.107,-1.045,-2.25,0.52,0.44,0.34,-0.21,-0.98
2022-01-28 14:2:56.7650,0.462,-0.119,-1.063,-2.42,0.68,0.61,0.29,-0.05,-0.89
2022-01-28 14:2:56.7750,0.475,-0.126,-1.095,-2.75,0.85,1.07,0.24,0.02,-0.81
2022-01-28 14:2:56.7850,0.488,-0.129,-1.141,-2.88,0.9,1.51,0.18,0.01,-0.73
2022-01-28 14:2:56.7950,0.494,-0.125,-1.178,-2.88,0.9,1.51,0.11,-0.04,-0.68
2022-01-28 14:2:56.8050,0.495,-0.121,-1.2,-2.95,0.86,1.9,0.04,-0.1,-0.64
2022-01-28 14:2:56.8150,0.488,-0.112,-1.227,-2.92,0.77,2.36,-0.03,-0.19,-0.62
2022-01-28 14:2:56.8250,0.466,-0.093,-1.276,-2.92,0.77,2.36,-0.03,-0.19,-0.62
2022-01-28 14:2:56.8350,0.414,-0.051,-1.346,-2.77,0.61,2.82,-0.09,-0.66,-0.59
2022-01-28 14:2:56.8450,0.338,0.0,-1.43,-2.35,0.25,3.47,-0.07,-1.0,-0.57
2022-01-28 14:2:56.8550,0.269,0.033,-1.504,-1.7,-0.24,4.27,-0.07,-1.0,-0.57
2022-01-28 14:2:56.8660,0.22,0.054,-1.548,-0.76,-0.79,5.46,0.15,-1.49,-0.41
2022-01-28 14:2:56.8760,0.188,0.068,-1.552,-0.57,-0.95,5.52,0.35,-1.42,-0.29
2022-01-28 14:2:56.8860,0.154,0.078,-1.528,-0.57,-0.95,5.52,0.6,-1.12,-0.14
2022-01-28 14:2:56.8960,0.108,0.079,-1.482,-0.36,-1.11,5.3,0.9,-0.63,0.05
2022-01-28 14:2:56.9060,0.062,0.072,-1.419,0.44,-1.26,4.26,1.21,-0.07,0.26
2022-01-28 14:2:56.9160,0.021,0.058,-1.359,0.88,-1.27,3.67,1.49,0.42,0.5
2022-01-28 14:2:56.9260,-0.003,0.034,-1.312,1.2,-1.22,3.22,1.71,0.74,0.72
2022-01-28 14:2:56.9360,0.004,0.019,-1.271,1.24,-1.23,2.84,1.86,0.87,0.88
2022-01-28 14:2:56.9460,0.026,0.016,-1.22,1.24,-1.23,2.84,1.94,0.87,0.97
2022-01-28 14:2:56.9560,0.036,-0.0,-1.148,1.1,-1.4,2.4,1.96,0.8,0.99
2022-01-28 14:2:56.9660,0.03,-0.012,-1.074,1.05,-1.46,1.75,1.96,0.8,0.99
2022-01-28 14:2:56.9760,0.02,-0.024,-1.004,1.14,-1.53,1.06,1.91,0.71,0.96
2022-01-28 14:2:56.9860,0.011,-0.036,-0.951,1.29,-1.61,0.4,1.67,0.52,0.83
2022-01-28 14:2:56.9960,0.005,-0.05,-0.912,1.42,-1.66,-0.1,1.48,0.4,0.76
2022-01-28 14:2:57.0060,-0.003,-0.064,-0.895,1.58,-1.68,-0.62,1.27,0.25,0.71
2022-01-28 14:2:57.0160,-0.013,-0.074,-0.881,1.68,-1.69,-0.72,1.05,0.14,0.66
2022-01-28 14:2:57.0270,-0.019,-0.078,-0.855,1.75,-1.74,-0.95,0.85,0.11,0.61
2022-01-28 14:2:57.0360,-0.021,-0.093,-0.844,1.77,-1.68,-1.05,0.68,0.15,0.58
2022-01-28 14:2:57.0460,-0.023,-0.107,-0.833,1.79,-1.59,-1.14,0.54,0.24,0.55
2022-01-28 14:2:57.0560,-0.015,-0.111,-0.819,1.79,-1.59,-1.14,0.44,0.38,0.53
2022-01-28 14:2:57.0660,-0.002,-0.112,-0.798,1.75,-1.6,-1.25,0.38,0.55,0.52
2022-01-28 14:2:57.0760,0.009,-0.118,-0.785,1.65,-1.63,-1.44,0.38,0.55,0.52
2022-01-28 14:2:57.0860,0.012,-0.126,-0.776,1.59,-1.57,-1.62,0.33,0.75,0.55
2022-01-28 14:2:57.0960,0.005,-0.128,-0.768,1.59,-1.57,-1.62,0.33,0.76,0.59
2022-01-28 14:2:57.1060,-0.007,-0.143,-0.76,1.88,-1.51,-1.74,0.31,0.72,0.61
2022-01-28 14:2:57.1170,-0.006,-0.156,-0.766,1.88,-1.51,-1.74,0.31,0.61,0.62
2022-01-28 14:2:57.1270,0.004,-0.167,-0.78,1.93,-1.4,-1.69,0.3,0.47,0.6
2022-01-28 14:2:57.1360,0.01,-0.182,-0.792,1.81,-1.23,-1.4,0.31,0.3,0.57
2022-01-28 14:2:57.1470,0.007,-0.194,-0.806,1.83,-1.15,-1.24,0.33,0.16,0.53
2022-01-28 14:2:57.1580,-0.007,-0.203,-0.809,1.94,-1.1,-1.18,0.36,0.07,0.47
2022-01-28 14:2:57.1670,-0.027,-0.212,-0.806,2.13,-1.05,-1.2,0.38,0.03,0.4
2022-01-28 14:2:57.1760,-0.044,-0.225,-0.811,2.13,-1.05,-1.2,0.4,0.01,0.32
2022-01-28 14:2:57.1860,-0.048,-0.235,-0.812,2.35,-0.9,-1.12,0.4,0.04,0.23
2022-01-28 14:2:57.1970,-0.037,-0.234,-0.808,2.35,-0.9,-1.12,0.37,0.1,0.13
2022-01-28 14:2:57.2060,-0.025,-0.237,-0.811,2.26,-0.94,-1.14,0.33,0.16,0.06
2022-01-28 14:2:57.2160,-0.024,-0.25,-0.825,2.14,-0.96,-1.11,0.27,0.19,-0.0
2022-01-28 14:2:57.2260,-0.027,-0.268,-0.842,2.13,-0.86,-0.98,0.21,0.19,-0.05
2022-01-28 14:2:57.2370,-0.033,-0.279,-0.852,2.18,-0.7,-0.79,0.15,0.18,-0.11
2022-01-28 14:2:57.2470,-0.037,-0.284,-0.86,2.26,-0.59,-0.69,0.12,0.18,-0.17
2022-01-28 14:2:57.2570,-0.035,-0.291,-0.858,2.32,-0.56,-0.6,0.12,0.17,-0.24
2022-01-28 14:2:57.2670,-0.026,-0.29,-0.851,2.33,-0.48,-0.6,0.17,0.19,-0.34
2022-01-28 14:2:57.2770,-0.015,-0.29,-0.83,2.2,-0.51,-0.82,0.25,0.24,-0.43
2022-01-28 14:2:57.2870,-0.008,-0.288,-0.795,2.2,-0.51,-0.82,0.33,0.3,-0.49
2022-01-28 14:2:57.2970,0.004,-0.311,-0.758,2.17,-0.54,-1.13,0.4,0.32,-0.53
2022-01-28 14:2:57.3070,0.022,-0.319,-0.74,2.11,-0.37,-1.5,0.46,0.32,-0.57
2022-01-28 14:2:57.3170,0.045,-0.299,-0.695,1.99,-0.28,-1.64,0.46,0.32,-0.57
2022-01-28 14:2:57.3270,0.073,-0.285,-0.657,1.82,-0.48,-2.05,0.49,0.39,-0.67
2022-01-28 14:2:57.3370,0.101,-0.28,-0.621,1.4,-0.74,-2.73,0.46,0.5,-0.73
2022-01-28 14:2:57.3470,0.127,-0.266,-0.592,1.4,-0.74,-2.73,0.39,0.65,-0.79
2022-01-28 14:2:57.3570,0.154,-0.262,-0.569,1.22,-0.89,-3.0,0.32,0.76,-0.83
2022-01-28 14:2:57.3670,0.183,-0.267,-0.556,1.06,-0.95,-3.2,0.32,0.76,-0.83
2022-01-28 14:2:57.3770,0.211,-0.266,-0.541,0.87,-0.92,-3.3,0.24,0.83,-0.85
2022-01-28 14:2:57.3870,0.252,-0.254,-0.54,0.41,-1.0,-3.42,0.14,0.73,-0.83
2022-01-28 14:2:57.3980,0.302,-0.253,-0.545,0.41,-1.0,-3.42,0.11,0.54,-0.76
2022-01-28 14:2:57.4070,0.351,-0.273,-0.55,0.0,-1.01,-3.36,0.1,0.32,-0.64
2022-01-28 14:2:57.4180,0.385,-0.26,-0.553,-0.42,-0.82,-3.3,0.1,0.1,-0.42
2022-01-28 14:2:57.4270,0.403,-0.307,-0.569,-0.77,-0.87,-3.26,0.12,-0.21,-0.09
2022-01-28 14:2:57.4370,0.411,-0.414,-0.652,-0.95,-0.62,-3.16,0.18,-0.51,0.21
2022-01-28 14:2:57.4470,0.405,-0.37,-0.645,-1.1,0.52,-2.37,0.27,-0.66,0.4
2022-01-28 14:2:57.4570,0.405,-0.332,-0.664,-1.11,0.21,-2.35,0.38,-0.68,0.55
2022-01-28 14:2:57.4680,0.392,-0.365,-0.697,-1.18,-0.32,-2.24,0.38,-0.68,0.55
2022-01-28 14:2:57.4780,0.368,-0.401,-0.742,-1.16,-0.09,-1.91,0.63,-0.62,0.8
2022-01-28 14:2:57.4880,0.358,-0.426,-0.791,-1.01,0.2,-1.49,0.7,-0.65,0.85
2022-01-28 14:2:57.4980,0.393,-0.426,-0.851,-0.96,0.39,-1.01,0.7,-0.65,0.85
2022-01-28 14:2:57.5070,0.452,-0.427,-0.89,-1.34,0.32,-0.4,0.43,-0.83,0.53
2022-01-28 14:2:57.5180,0.489,-0.416,-0.872,-2.01,0.29,0.01,0.26,-0.7,0.17
2022-01-28 14:2:57.5280,0.445,-0.411,-0.825,-2.52,0.15,-0.07,0.15,-0.46,-0.19
2022-01-28 14:2:57.5380,0.418,-0.434,-0.854,-2.19,0.08,-0.58,0.04,-0.24,-0.5
2022-01-28 14:2:57.5480,0.404,-0.465,-0.884,-1.74,0.62,-0.06,-0.04,-0.01,-0.73
2022-01-28 14:2:57.5580,0.384,-0.458,-0.888,-1.49,0.61,0.0,-0.05,0.2,-0.86
2022-01-28 14:2:57.5680,0.387,-0.442,-0.889,-1.42,0.48,0.03,-0.01,0.39,-0.9
2022-01-28 14:2:57.5780,0.39,-0.414,-0.899,-1.42,0.48,0.03,0.05,0.38,-0.84
2022-01-28 14:2:57.5880,0.397,-0.401,-0.962,-1.4,0.24,0.09,0.06,0.13,-0.71
2022-01-28 14:2:57.5980,0.409,-0.383,-1.027,-1.4,0.09,0.66,0.03,-0.26,-0.57
2022-01-28 14:2:57.6090,0.405,-0.356,-1.073,-1.52,-0.04,1.31,-0.07,-0.68,-0.43
2022-01-28 14:2:57.6180,0.383,-0.343,-1.113,-1.41,-0.42,2.14,-0.18,-1.02,-0.33
2022-01-28 14:2:57.6280,0.347,-0.349,-1.13,-1.41,-0.42,2.14,-0.24,-1.14,-0.24
2022-01-28 14:2:57.6380,0.321,-0.377,-1.11,-0.96,-0.09,2.13,-0.22,-1.0,-0.16
2022-01-28 14:2:57.6490,0.308,-0.428,-1.04,-0.89,0.41,1.5,-0.13,-0.56,-0.08
2022-01-28 14:2:57.6580,0.29,-0.445,-0.95,-0.726827909052372,0.67,0.58,-0.08,-0.01,-0.08
2022-01-28 14:2:57.6690,0.27,-0.414,-0.902,-0.73,0.67,0.58,-0.08,-0.01,-0.08
2022-01-28 14:2:57.6780,0.264,-0.406,-0.915,-0.39,0.33,0.06,-0.38,0.43,-0.17
2022-01-28 14:2:57.6890,0.243,-0.388,-1.036,-0.39,0.33,0.06,-0.73,-0.05,-0.21
2022-01-28 14:2:57.6990,0.246,-0.42,-1.194,-0.22,0.54,2.63,-1.09,-0.81,-0.22
2022-01-28 14:2:57.7090,0.243,-0.466,-1.292,-0.33,1.16,3.63,-1.29,-1.45,-0.25
2022-01-28 14:2:57.7190,0.221,-0.465,-1.321,-0.33,1.16,3.63,-1.28,-1.79,-0.3
2022-01-28 14:2:57.7290,0.186,-0.48,-1.323,-0.11,1.52,3.87,-1.07,-1.84,-0.34
2022-01-28 14:2:57.7380,0.134,-0.499,-1.287,-0.11,1.52,3.87,-0.74,-1.57,-0.36
2022-01-28 14:2:57.7480,0.083,-0.501,-1.213,0.66,1.9,2.81,-0.34,-1.01,-0.34
2022-01-28 14:2:57.7590,0.037,-0.479,-1.095,1.09,1.71,1.65,0.09,-0.31,-0.27
2022-01-28 14:2:57.7680,0.012,-0.468,-0.991,1.09,1.71,1.65,0.43,0.38,-0.14
2022-01-28 14:2:57.7790,0.01,-0.474,-0.911,1.38,1.55,0.64,0.67,0.9,0.01
2022-01-28 14:2:57.7890,0.03,-0.474,-0.855,1.44,1.49,-0.67,0.79,1.25,0.1
2022-01-28 14:2:57.7990,0.051,-0.447,-0.785,1.44,1.49,-0.67,0.89,1.45,0.11
2022-01-28 14:2:57.8080,0.046,-0.423,-0.734,1.33,1.19,-1.29,0.92,1.42,0.09
2022-01-28 14:2:57.8190,0.061,-0.437,-0.714,1.49,0.87,-1.94,0.85,1.2,0.03
2022-01-28 14:2:57.8290,0.078,-0.427,-0.683,1.4,0.73,-2.18,0.75,0.9,-0.08
2022-01-28 14:2:57.8390,0.079,-0.406,-0.647,1.4,0.73,-2.18,0.64,0.56,-0.22
2022-01-28 14:2:57.8490,0.075,-0.408,-0.623,1.51,0.41,-2.72,0.57,0.22,-0.34
2022-01-28 14:2:57.8600,0.07,-0.418,-0.605,1.51,0.41,-2.72,0.53,-0.05,-0.42
2022-01-28 14:2:57.8690,0.051,-0.429,-0.583,1.57,0.48,-2.89,0.54,-0.21,-0.49
2022-01-28 14:2:57.8790,0.02,-0.435,-0.555,1.74,0.55,-3.07,0.56,-0.25,-0.56
2022-01-28 14:2:57.8890,-0.006,-0.421,-0.518,2.31,0.43,-3.66,0.6,-0.17,-0.65
2022-01-28 14:2:57.8990,-0.018,-0.4,-0.484,2.46,0.18,-3.99,0.63,-0.04,-0.74
2022-01-28 14:2:57.9090,-0.009,-0.393,-0.471,2.46,0.18,-4.113954167962074,0.64,0.08,-0.82
2022-01-28 14:2:57.9190,0.021,-0.384,-0.464,2.44,0.07,-4.12,0.61,0.18,-0.87
2022-01-28 14:2:57.9290,0.067,-0.366,-0.462,2.21,-0.04,-4.16,0.53,0.26,-0.88
2022-01-28 14:2:57.9390,0.116,-0.363,-0.471,1.41,-0.31,-4.07,0.4,0.27,-0.84
2022-01-28 14:2:57.9490,0.158,-0.375,-0.512,1.41,-0.31,-4.07,0.22,0.17,-0.74
2022-01-28 14:2:57.9590,0.186,-0.382,-0.572,1.03,-0.21,-3.7,0.02,-0.03,-0.63
2022-01-28 14:2:57.9690,0.199,-0.379,-0.635,0.76,-0.11,-3.12,-0.11,-0.27,-0.55
2022-01-28 14:2:57.9800,0.208,-0.379,-0.688,0.62,-0.11,-2.51,-0.16,-0.47,-0.52
2022-01-28 14:2:57.9900,0.216,-0.393,-0.733,0.51,-0.1,-1.99,-0.15,-0.59,-0.51
2022-01-28 14:2:57.9990,0.216,-0.406,-0.759,0.41,0.06,-1.56,-0.08,-0.55,-0.51
2022-01-28 14:2:58.0090,0.21,-0.416,-0.771,0.4,0.32,-1.2,0.03,-0.39,-0.51
2022-01-28 14:2:58.0200,0.21,-0.44,-0.803,0.4,0.32,-1.2,0.11,-0.13,-0.47
2022-01-28 14:2:58.0300,0.228,-0.45,-0.84,0.29,0.67,-0.54,0.11,0.2,-0.4
2022-01-28 14:2:58.0390,0.247,-0.455,-0.905,0.29,0.67,-0.54,0.02,0.47,-0.29
2022-01-28 14:2:58.0500,0.261,-0.458,-1.002,0.06,0.79,1.01,-0.15,0.67,-0.18
2022-01-28 14:2:58.0680,0.274,-0.437,-1.106,0.01,0.64,2.02,-0.15,0.67,-0.18
2022-01-28 14:2:58.0710,0.304,-0.417,-1.223,0.01,0.64,2.02,-0.65,0.66,-0.11
2022-01-28 14:2:58.0800,0.349,-0.414,-1.339,-0.2,0.48,3.15,-0.84,0.45,-0.2
2022-01-28 14:2:58.0850,0.392,-0.415,-1.44,-0.58,0.51,4.29,-0.9,0.16,-0.33
2022-01-28 14:2:58.0950,0.428,-0.412,-1.512,-0.98,0.6,5.27,-0.79,-0.11,-0.48
2022-01-28 14:2:58.1050,0.457,-0.406,-1.546,-1.32,0.67,6.0,-0.54,-0.32,-0.6
2022-01-28 14:2:58.1150,0.474,-0.401,-1.553,-1.63,0.69,6.35,-0.25,-0.44,-0.65
2022-01-28 14:2:58.1250,0.472,-0.394,-1.528,-1.83,0.68,6.42,0.06,-0.45,-0.63
2022-01-28 14:2:58.1350,0.45,-0.376,-1.463,-1.85,0.64,6.21,0.3,-0.33,-0.55
2022-01-28 14:2:58.1460,0.415,-0.346,-1.366,-1.68,0.48,5.62,0.41,-0.14,-0.44
2022-01-28 14:2:58.1560,0.404,-0.335,-1.278,-1.33,0.16,4.68,0.4,0.05,-0.34
2022-01-28 14:2:58.1660,0.407,-0.327,-1.201,-1.18,0.0,3.83,0.28,0.15,-0.28
2022-01-28 14:2:58.1750,0.404,-0.316,-1.163,-1.19,-0.08,3.05,0.07,0.08,-0.3
2022-01-28 14:2:58.1860,0.41,-0.309,-1.154,-1.14,-0.2,2.63,-0.15,-0.12,-0.4
2022-01-28 14:2:58.1960,0.421,-0.315,-1.139,-1.18,-0.25,2.53,-0.3,-0.34,-0.55
2022-01-28 14:2:58.2060,0.426,-0.314,-1.108,-1.29,-0.16,2.38,-0.35,-0.49,-0.71
2022-01-28 14:2:58.2160,0.427,-0.305,-1.056,-1.37,-0.1,2.07,-0.32,-0.55,-0.84
2022-01-28 14:2:58.2260,0.42,-0.294,-1.002,-1.41,-0.14,1.56,-0.24,-0.52,-0.9
2022-01-28 14:2:58.2360,0.417,-0.275,-0.941,-1.37,-0.2,1.01,-0.15,-0.44,-0.86
2022-01-28 14:2:58.2460,0.423,-0.267,-0.888,-1.34,-0.33,0.4,-0.09,-0.34,-0.75
2022-01-28 14:2:58.2560,0.432,-0.266,-0.825,-1.4,-0.41,-0.16,-0.03,-0.18,-0.59
2022-01-28 14:2:58.2660,0.427,-0.242,-0.754,-1.5,-0.38,-0.75,0.04,0.01,-0.41
2022-01-28 14:2:58.2760,0.414,-0.224,-0.684,-1.45,-0.58,-1.46,0.11,0.24,-0.23
2022-01-28 14:2:58.2860,0.405,-0.215,-0.633,-1.3,-0.78,-2.14,0.17,0.42,-0.06
2022-01-28 14:2:58.2960,0.399,-0.21,-0.602,-1.18,-0.88,-2.66,0.21,0.54,0.08
2022-01-28 14:2:58.3060,0.394,-0.202,-0.575,-1.08,-0.95,-2.96,0.22,0.6,0.19
2022-01-28 14:2:58.3160,0.389,-0.193,-0.557,-0.97,-1.05,-3.2,0.2,0.63,0.27
2022-01-28 14:2:58.3260,0.382,-0.189,-0.542,-0.87,-1.16,-3.37,0.2,0.63,0.27
2022-01-28 14:2:58.3360,0.373,-0.184,-0.525,-0.76,-1.23,-3.49,0.14,0.72,0.4
2022-01-28 14:2:58.3460,0.361,-0.18,-0.508,-0.63,-1.29,-3.62,0.12,0.79,0.47
2022-01-28 14:2:58.3560,0.343,-0.18,-0.5,-0.47,-1.37,-3.77,0.12,0.86,0.53
2022-01-28 14:2:58.3660,0.321,-0.182,-0.492,-0.24,-1.39,-3.83,0.14,0.92,0.59
2022-01-28 14:2:58.3760,0.304,-0.186,-0.489,0.04,-1.41,-3.87,0.2,0.96,0.64
2022-01-28 14:2:58.3860,0.288,-0.192,-0.488,0.28,-1.4,-3.87,0.28,0.98,0.7
2022-01-28 14:2:58.3960,0.273,-0.191,-0.496,0.49,-1.38,-3.84,0.37,0.96,0.72
2022-01-28 14:2:58.4070,0.261,-0.182,-0.514,0.7,-1.44,-3.74,0.37,0.96,0.72
2022-01-28 14:2:58.4160,0.257,-0.19,-0.541,0.88,-1.59,-3.52,0.6,0.77,0.74
2022-01-28 14:2:58.4260,0.252,-0.195,-0.558,0.98,-1.61,-3.22,0.71,0.67,0.73
2022-01-28 14:2:58.4360,0.245,-0.19,-0.564,1.04,-1.62,-2.98,0.78,0.61,0.7
2022-01-28 14:2:58.4460,0.235,-0.185,-0.574,1.14,-1.76,-2.87,0.79,0.62,0.65
2022-01-28 14:2:58.4560,0.235,-0.192,-0.585,1.27,-1.9,-2.73,0.74,0.67,0.58
2022-01-28 14:2:58.4660,0.248,-0.211,-0.604,1.31,-1.93,-2.57,0.64,0.72,0.51
2022-01-28 14:2:58.4760,0.256,-0.235,-0.653,1.24,-1.84,-2.35,0.5,0.66,0.42
2022-01-28 14:2:58.4860,0.273,-0.257,-0.715,1.18,-1.66,-1.88,0.38,0.61,0.31
2022-01-28 14:2:58.4970,0.301,-0.298,-0.739,1.1,-1.5,-1.18,0.31,0.55,0.19
2022-01-28 14:2:58.5070,0.317,-0.337,-0.787,0.84,-1.15,-0.92,0.26,0.48,0.06
2022-01-28 14:2:58.5170,0.334,-0.36,-0.852,0.72,-0.78,-0.44,0.21,0.31,-0.11
2022-01-28 14:2:58.5270,0.359,-0.367,-0.939,0.58,-0.54,0.19,0.21,0.31,-0.11
2022-01-28 14:2:58.5370,0.399,-0.405,-0.992,0.37,-0.47,1.06,-0.04,-0.06,-0.44
2022-01-28 14:2:58.5470,0.441,-0.449,-1.04,0.01,-0.12,1.62,-0.23,-0.25,-0.59
2022-01-28 14:2:58.5570,0.484,-0.47,-1.108,-0.39,0.36,2.05,-0.44,-0.44,-0.76
2022-01-28 14:2:58.5670,0.511,-0.469,-1.157,-0.83,0.65,2.68,-0.63,-0.62,-0.92
2022-01-28 14:2:58.5770,0.517,-0.468,-1.204,-1.13,0.75,3.14,-0.79,-0.74,-1.01
2022-01-28 14:2:58.5870,0.513,-0.489,-1.229,-1.24,0.82,3.54,-0.88,-0.72,-0.99
2022-01-28 14:2:58.5970,0.508,-0.521,-1.229,-1.22,1.11,3.77,-0.91,-0.55,-0.88
2022-01-28 14:2:58.6070,0.506,-0.55,-1.219,-1.19,1.54,3.73,-0.85,-0.27,-0.69
2022-01-28 14:2:58.6170,0.501,-0.57,-1.192,-1.17,1.93,3.61,-0.74,0.05,-0.49
2022-01-28 14:2:58.6270,0.502,-0.568,-1.154,-1.11,2.24,3.33,-0.66,0.33,-0.33
2022-01-28 14:2:58.6370,0.497,-0.549,-1.132,-1.07,2.32,2.96,-0.69,0.43,-0.25
2022-01-28 14:2:58.6470,0.484,-0.542,-1.159,-1.0,2.21,2.68,-0.8,0.28,-0.22
2022-01-28 14:2:58.6540,0.474,-0.557,-1.194,-0.74,2.31,3.24,-0.93,-0.03,-0.24
2022-01-28 14:2:58.6680,0.468,-0.576,-1.212,-0.74,2.31,3.24,-0.96,-0.32,-0.28
2022-01-28 14:2:58.6780,0.456,-0.582,-1.195,-0.66,2.59,3.42,-0.85,-0.49,-0.33
2022-01-28 14:2:58.6880,0.428,-0.566,-1.152,-0.35,2.72,2.82,-0.64,-0.53,-0.37
2022-01-28 14:2:58.6980,0.389,-0.541,-1.11,-0.01,2.55,2.35,-0.42,-0.48,-0.38
2022-01-28 14:2:58.7080,0.349,-0.53,-1.065,0.35,2.48,1.89,-0.21,-0.41,-0.35
2022-01-28 14:2:58.7180,0.31,-0.517,-1.017,0.7,2.4,1.39,-0.05,-0.34,-0.3
2022-01-28 14:2:58.7280,0.275,-0.498,-0.97,1.03,2.24,0.92,0.08,-0.27,-0.27
2022-01-28 14:2:58.7380,0.245,-0.472,-0.918,1.03,2.24,0.92,0.19,-0.2,-0.28
2022-01-28 14:2:58.7490,0.233,-0.45,-0.868,1.45,1.77,-0.1,0.29,-0.14,-0.33
2022-01-28 14:2:58.7580,0.229,-0.433,-0.82,1.45,1.77,-0.1,0.37,-0.09,-0.42
2022-01-28 14:2:58.7680,0.22,-0.412,-0.772,1.49,1.6,-0.57,0.42,-0.05,-0.51
2022-01-28 14:2:58.7780,0.21,-0.385,-0.725,1.67,1.1,-1.48,0.47,-0.02,-0.59
2022-01-28 14:2:58.7890,0.203,-0.365,-0.674,1.67,1.1,-1.48,0.51,0.02,-0.66
2022-01-28 14:2:58.7980,0.201,-0.357,-0.635,1.76,0.87,-1.97,0.53,0.04,-0.66
2022-01-28 14:2:58.8080,0.193,-0.346,-0.599,1.8,0.77,-2.36,0.53,0.04,-0.66
2022-01-28 14:2:58.8180,0.185,-0.327,-0.557,1.89,0.65,-2.69,0.57,0.15,-0.59
2022-01-28 14:2:58.8280,0.18,-0.31,-0.521,2.08,0.26,-3.44,0.6,0.21,-0.53
2022-01-28 14:2:58.8380,0.183,-0.288,-0.504,2.1,0.02,-3.6,0.63,0.23,-0.49
2022-01-28 14:2:58.8490,0.197,-0.263,-0.488,2.0,-0.26,-3.72,0.63,0.22,-0.44
2022-01-28 14:2:58.8590,0.216,-0.248,-0.478,2.0,-0.26,-3.72,0.62,0.17,-0.39
2022-01-28 14:2:58.8680,0.231,-0.236,-0.485,1.73,-0.61,-3.74,0.55,0.09,-0.34
2022-01-28 14:2:58.8790,0.256,-0.23,-0.496,1.73,-0.61,-3.74,0.47,0.0,-0.3
2022-01-28 14:2:58.8880,0.286,-0.232,-0.521,1.24,-0.73,-3.37,0.47,0.0,-0.3
2022-01-28 14:2:58.8990,0.32,-0.241,-0.552,0.91,-0.68,-3.06,0.37,-0.21,-0.22
2022-01-28 14:2:58.9090,0.357,-0.242,-0.59,0.54,-0.67,-2.69,0.36,-0.28,-0.16
2022-01-28 14:2:58.9190,0.391,-0.239,-0.628,0.54,-0.67,-2.69,0.35,-0.31,-0.05
2022-01-28 14:2:58.9290,0.417,-0.237,-0.676,-0.1,-0.76,-1.86,0.37,-0.31,0.1
2022-01-28 14:2:58.9390,0.439,-0.223,-0.735,-0.35,-0.92,-1.32,0.36,-0.32,0.24
2022-01-28 14:2:58.9490,0.465,-0.221,-0.812,-0.35,-0.92,-1.32,0.36,-0.32,0.24
2022-01-28 14:2:58.9590,0.484,-0.246,-0.861,-0.87,-0.82,-0.05,0.3,-0.17,0.52
2022-01-28 14:2:58.9690,0.492,-0.269,-0.913,-0.87,-0.82,-0.05,0.28,-0.02,0.64
2022-01-28 14:2:58.9790,0.495,-0.283,-0.957,-0.99,-0.63,0.46,0.28,0.13,0.71
2022-01-28 14:2:58.9890,0.493,-0.288,-1.006,-1.05,-0.52,0.9,0.29,0.2,0.72
2022-01-28 14:2:58.9990,0.493,-0.297,-1.063,-1.05,-0.53,1.39,0.29,0.17,0.69
2022-01-28 14:2:59.0090,0.5,-0.3,-1.112,-1.12,-0.5,2.47,0.24,0.05,0.6
2022-01-28 14:2:59.0190,0.522,-0.303,-1.154,-1.12,-0.5,2.47,0.14,-0.12,0.49
2022-01-28 14:2:59.0290,0.552,-0.314,-1.195,-1.33,-0.52,2.9,0.01,-0.33,0.38
2022-01-28 14:2:59.0390,0.574,-0.332,-1.236,-1.65,-0.46,3.3,0.01,-0.33,0.38
2022-01-28 14:2:59.0490,0.588,-0.335,-1.275,-1.92,-0.3,3.71,-0.15,-0.66,0.22
2022-01-28 14:2:59.0590,0.581,-0.334,-1.308,-2.12,-0.25,4.06,-0.13,-0.74,0.22
2022-01-28 14:2:59.0690,0.564,-0.339,-1.325,-2.13,-0.26,4.37,-0.07,-0.76,0.26
2022-01-28 14:2:59.0790,0.547,-0.337,-1.334,-2.04,-0.21,4.52,-0.0,-0.76,0.3
2022-01-28 14:2:59.0890,0.528,-0.328,-1.336,-1.95,-0.22,4.59,0.03,-0.77,0.31
2022-01-28 14:2:59.0990,0.509,-0.322,-1.337,-1.73,-0.39,4.58,0.0,-0.8,0.27
2022-01-28 14:2:59.1100,0.488,-0.322,-1.33,-1.73,-0.39,4.58,0.0,-0.8,0.27
2022-01-28 14:2:59.1190,0.47,-0.334,-1.297,-1.6,-0.41,4.51,-0.16,-0.75,0.07
2022-01-28 14:2:59.1300,0.448,-0.343,-1.235,-1.5,-0.3,4.19,-0.24,-0.56,-0.06
2022-01-28 14:2:59.1400,0.427,-0.339,-1.152,-1.2,-0.19,2.77,-0.3,-0.24,-0.18
2022-01-28 14:2:59.1500,0.413,-0.331,-1.057,-1.2,-0.19,2.77,-0.35,0.13,-0.27
2022-01-28 14:2:59.1600,0.416,-0.335,-0.971,-1.08,-0.25,1.81,-0.4,0.5,-0.31
2022-01-28 14:2:59.1700,0.432,-0.34,-0.896,-1.07,-0.18,0.94,-0.42,0.79,-0.32
2022-01-28 14:2:59.1800,0.455,-0.344,-0.823,-1.17,-0.09,0.19,-0.42,0.79,-0.32
2022-01-28 14:2:59.1900,0.474,-0.345,-0.753,-1.32,0.0,-0.51,-0.41,0.98,-0.3
2022-01-28 14:2:59.1990,0.488,-0.349,-0.693,-1.46,0.13,-1.77,-0.33,1.06,-0.16
2022-01-28 14:2:59.2100,0.493,-0.356,-0.644,-1.46,0.13,-1.77,-0.33,1.06,-0.16
2022-01-28 14:2:59.2200,0.491,-0.358,-0.606,-1.42,0.24,-2.24,-0.25,0.75,0.03
2022-01-28 14:2:59.2300,0.481,-0.358,-0.578,-1.17,0.32,-2.88,-0.19,0.5,0.12
2022-01-28 14:2:59.2400,0.468,-0.359,-0.557,-1.17,0.32,-2.88,-0.13,0.22,0.19
2022-01-28 14:2:59.2500,0.45,-0.358,-0.548,-0.81,0.34,-3.17,-0.05,-0.08,0.25
2022-01-28 14:2:59.2600,0.421,-0.352,-0.549,-0.81,0.34,-3.17,0.04,-0.37,0.31
2022-01-28 14:2:59.2700,0.386,-0.349,-0.553,-0.25,0.24,-3.15,0.13,-0.63,0.36
2022-01-28 14:2:59.2800,0.348,-0.349,-0.56,-0.25,0.24,-3.15,0.23,-0.83,0.41
2022-01-28 14:2:59.2900,0.303,-0.345,-0.564,0.41,0.17,-3.07,0.33,-0.95,0.45
2022-01-28 14:2:59.3000,0.256,-0.338,-0.561,0.78,0.05,-3.12,0.42,-0.95,0.47
2022-01-28 14:2:59.3100,0.214,-0.335,-0.558,1.1,-0.03,-3.17,0.5,-0.86,0.48
2022-01-28 14:2:59.3200,0.175,-0.329,-0.559,1.1,-0.03,-3.17,0.57,-0.68,0.46
2022-01-28 14:2:59.3300,0.145,-0.326,-0.553,1.4,-0.15,-3.18,0.61,-0.42,0.42
2022-01-28 14:2:59.3400,0.123,-0.318,-0.552,1.63,-0.24,-3.22,0.64,-0.14,0.35
2022-01-28 14:2:59.3500,0.106,-0.307,-0.558,1.8,-0.37,-3.24,0.65,0.12,0.25
2022-01-28 14:2:59.3600,0.095,-0.299,-0.565,1.94,-0.54,-3.17,0.65,0.12,0.25
2022-01-28 14:2:59.3700,0.095,-0.294,-0.577,2.08,-0.8,-2.95,0.61,0.41,-0.03
2022-01-28 14:2:59.3800,0.106,-0.295,-0.606,2.08,-0.8,-2.95,0.58,0.41,-0.16
2022-01-28 14:2:59.3900,0.124,-0.297,-0.626,2.01,-0.85,-2.64,0.56,0.34,-0.27
2022-01-28 14:2:59.4000,0.144,-0.298,-0.648,1.73,-0.9,-2.16,0.56,0.22,-0.35
2022-01-28 14:2:59.4110,0.159,-0.288,-0.667,1.6,-1.02,-1.93,0.57,0.1,-0.41
2022-01-28 14:2:59.4210,0.164,-0.276,-0.683,1.6,-1.02,-1.93,0.55,-0.02,-0.44
2022-01-28 14:2:59.4310,0.175,-0.276,-0.709,1.49,-1.23,-1.49,0.51,-0.13,-0.46
2022-01-28 14:2:59.4400,0.205,-0.29,-0.747,1.49,-1.23,-1.49,0.51,-0.13,-0.46
2022-01-28 14:2:59.4510,0.248,-0.314,-0.785,1.24,-1.14,-1.12,0.4,-0.24,-0.46
2022-01-28 14:2:59.4600,0.297,-0.338,-0.812,0.82,-0.93,-0.72,0.4,-0.24,-0.46
2022-01-28 14:2:59.4700,0.33,-0.358,-0.845,0.35,-0.71,-0.44,0.33,-0.06,-0.49
2022-01-28 14:2:59.4810,0.345,-0.361,-0.9,0.0,-0.52,-0.12,0.25,0.05,-0.54
2022-01-28 14:2:59.4910,0.354,-0.353,-0.98,-0.16,-0.48,0.39,0.11,0.13,-0.61
2022-01-28 14:2:59.5010,0.372,-0.364,-1.041,-0.35,-0.48,1.81,-0.08,0.21,-0.68
2022-01-28 14:2:59.5110,0.409,-0.394,-1.108,-0.35,-0.48,1.81,-0.28,0.23,-0.73
2022-01-28 14:2:59.5200,0.456,-0.415,-1.176,-1.05,0.11,3.13,-0.43,0.19,-0.79
2022-01-28 14:2:59.5310,0.501,-0.414,-1.233,-1.05,0.11,3.13,-0.52,0.09,-0.86
2022-01-28 14:2:59.5410,0.53,-0.4,-1.278,-1.45,0.18,3.69,-0.59,-0.02,-0.89
2022-01-28 14:2:59.5510,0.544,-0.399,-1.3,-1.84,0.17,4.36,-0.68,-0.09,-0.85
2022-01-28 14:2:59.5610,0.545,-0.409,-1.301,-1.84,0.17,4.36,-0.78,-0.05,-0.71
2022-01-28 14:2:59.5710,0.537,-0.422,-1.281,-1.76,0.57,4.16,-0.82,0.09,-0.52
2022-01-28 14:2:59.5820,0.525,-0.424,-1.246,-1.76,0.57,4.16,-0.8,0.25,-0.3
2022-01-28 14:2:59.5910,0.509,-0.44,-1.226,-1.61,0.68,3.8,-0.75,0.41,-0.09
2022-01-28 14:2:59.6010,0.496,-0.453,-1.189,-1.43,0.9,3.58,-0.67,0.48,0.1
2022-01-28 14:2:59.6110,0.476,-0.461,-1.171,-1.04,1.25,3.01,-0.58,0.45,0.23
2022-01-28 14:2:59.6210,0.449,-0.47,-1.147,-1.04,1.25,3.01,-0.48,0.32,0.32
2022-01-28 14:2:59.6320,0.423,-0.486,-1.116,-0.47,1.57,2.49,-0.39,0.12,0.37
2022-01-28 14:2:59.6410,0.399,-0.496,-1.077,-0.47,1.57,2.49,-0.32,-0.07,0.38
2022-01-28 14:2:59.6510,0.368,-0.508,-1.029,-0.23,1.7,2.1,-0.28,-0.23,0.35
2022-01-28 14:2:59.6610,0.328,-0.518,-0.982,0.04,1.82,1.63,-0.23,-0.32,0.3
2022-01-28 14:2:59.6710,0.281,-0.522,-0.939,0.83,1.99,0.7,-0.18,-0.37,0.22
2022-01-28 14:2:59.6810,0.24,-0.52,-0.898,1.2,1.98,0.28,-0.11,-0.36,0.14
2022-01-28 14:2:59.6910,0.209,-0.515,-0.855,1.2,1.98,0.28,-0.04,-0.29,0.05
2022-01-28 14:2:59.7010,0.195,-0.505,-0.81,1.48,1.95,-0.16,0.04,-0.16,-0.03
2022-01-28 14:2:59.7120,0.19,-0.482,-0.763,1.65,1.66,-1.09,0.11,0.02,-0.11
2022-01-28 14:2:59.7220,0.191,-0.463,-0.716,1.65,1.45,-1.53,0.18,0.23,-0.17
2022-01-28 14:2:59.7310,0.194,-0.443,-0.67,1.64,1.25,-1.98,0.24,0.44,-0.21
2022-01-28 14:2:59.7410,0.2,-0.427,-0.623,1.64,1.25,-1.98,0.3,0.63,-0.24
2022-01-28 14:2:59.7520,0.209,-0.41,-0.581,1.63,1.08,-2.42,0.33,0.77,-0.27
2022-01-28 14:2:59.7620,0.219,-0.393,-0.543,1.59,0.89,-2.81,0.36,0.86,-0.29
2022-01-28 14:2:59.7710,0.228,-0.374,-0.507,1.57,0.71,-3.15,0.38,0.89,-0.31
2022-01-28 14:2:59.7810,0.24,-0.356,-0.478,1.53,0.31,-3.72,0.39,0.84,-0.32
2022-01-28 14:2:59.7920,0.257,-0.346,-0.463,1.53,0.31,-3.72,0.41,0.73,-0.31
2022-01-28 14:2:59.8010,0.275,-0.336,-0.454,1.45,0.19,-3.83,0.42,0.55,-0.28
2022-01-28 14:2:59.8110,0.281,-0.338,-0.454,1.35,0.07,-3.9,0.45,0.34,-0.22
2022-01-28 14:2:59.8210,0.282,-0.329,-0.456,1.33,0.05,-3.85,0.47,0.09,-0.17
2022-01-28 14:2:59.8320,0.283,-0.31,-0.468,1.37,-0.25,-3.67,0.46,-0.15,-0.15
2022-01-28 14:2:59.8420,0.29,-0.293,-0.478,1.31,-0.46,-3.57,0.4,-0.38,-0.15
2022-01-28 14:2:59.8520,0.297,-0.282,-0.504,1.31,-0.46,-3.57,0.29,-0.58,-0.17
2022-01-28 14:2:59.8620,0.305,-0.277,-0.538,1.11,-0.68,-3.02,0.17,-0.73,-0.2
2022-01-28 14:2:59.8720,0.322,-0.287,-0.576,1.11,-0.68,-3.02,0.17,-0.73,-0.2
2022-01-28 14:2:59.8820,0.339,-0.291,-0.622,0.9,-0.61,-2.67,-0.06,-0.84,-0.27
2022-01-28 14:2:59.8920,0.351,-0.279,-0.683,0.48,-0.63,-1.71,-0.18,-0.81,-0.3
2022-01-28 14:2:59.9020,0.364,-0.275,-0.733,0.48,-0.63,-1.71,-0.27,-0.72,-0.34
2022-01-28 14:2:59.9120,0.368,-0.281,-0.796,0.19,-0.59,-0.68,-0.36,-0.56,-0.34
2022-01-28 14:2:59.9220,0.378,-0.301,-0.845,0.19,-0.59,-0.68,-0.41,-0.27,-0.3
2022-01-28 14:2:59.9320,0.389,-0.298,-0.877,-0.06,-0.3,0.09,-0.44,0.2,-0.21
2022-01-28 14:2:59.9420,0.408,-0.306,-0.896,-0.06,-0.3,0.09,-0.45,0.82,-0.04
2022-01-28 14:2:59.9520,0.432,-0.331,-0.924,-0.39,0.07,0.54,-0.45,1.47,0.17
2022-01-28 14:2:59.9620,0.457,-0.336,-0.962,-0.39,0.07,0.54,-0.45,2.0,0.32
2022-01-28 14:2:59.9720,0.479,-0.311,-1.027,-0.54,0.21,0.93,-0.47,2.24,0.35
2022-01-28 14:2:59.9820,0.503,-0.304,-1.097,-0.6521931713819504,-0.07987764358520508,2.38,-0.51,2.2,0.3
Time,0.537,-0.31,-1.143,-0.81,0.01,2.94,-0.58,1.97,0.16
2022-01-28 14:3:00.0020,0.576,-0.316,-1.168,-1.03,0.09,3.27,-0.58,1.97,0.16
2022-01-28 14:3:00.0130,0.622,-0.324,-1.199,-1.03,0.09,3.27,-0.64,1.11,-0.19
2022-01-28 14:3:00.0220,0.673,-0.328,-1.226,-1.33,0.23,3.63,-0.58,0.62,-0.31
2022-01-28 14:3:00.0320,0.72,-0.326,-1.233,-2.13,0.39,4.07,-0.48,0.17,-0.36
2022-01-28 14:3:00.0420,0.751,-0.319,-1.23,-2.13,0.39,4.07,-0.35,-0.21,-0.34
2022-01-28 14:3:00.0530,0.764,-0.312,-1.237,-2.43,0.38,4.03,-0.22,-0.55,-0.24
2022-01-28 14:3:00.0630,0.754,-0.299,-1.226,-2.58,0.37,4.07,-0.22,-0.55,-0.24
2022-01-28 14:3:00.0720,0.722,-0.283,-1.205,-2.3,0.13,3.74,-0.03,-1.0,0.11
2022-01-28 14:3:00.0830,0.681,-0.279,-1.183,-2.3,0.13,3.74,0.01,-1.14,0.28
2022-01-28 14:3:00.0930,0.641,-0.278,-1.178,-1.98,0.08,3.46,0.01,-1.14,0.28
2022-01-28 14:3:00.1020,0.601,-0.291,-1.165,-1.41,0.15,3.18,0.06,-1.33,0.48
2022-01-28 14:3:00.1130,0.56,-0.303,-1.136,-1.41,0.15,3.18,0.06,-1.33,0.48
2022-01-28 14:3:00.1230,0.509,-0.311,-1.11,-1.13,0.25,2.84,0.08,-1.34,0.43
2022-01-28 14:3:00.1330,0.458,-0.313,-1.066,-0.77,0.31,2.54,0.08,-1.34,0.43
2022-01-28 14:3:00.1430,0.42,-0.316,-1.025,-0.39,0.31,2.07,0.07,-1.2,0.19
2022-01-28 14:3:00.1530,0.393,-0.318,-0.978,0.05,0.33,1.11,0.04,-1.06,0.04
2022-01-28 14:3:00.1630,0.384,-0.311,-0.914,0.05,0.33,1.11,0.04,-1.06,0.04
2022-01-28 14:3:00.1730,0.389,-0.304,-0.854,0.07,0.26,0.46,0.01,-0.69,-0.21
2022-01-28 14:3:00.1830,0.404,-0.311,-0.797,-0.24,0.24,-0.77,0.01,-0.69,-0.21
2022-01-28 14:3:00.1930,0.418,-0.312,-0.741,-0.24,0.24,-0.77,0.04,-0.36,-0.28
2022-01-28 14:3:00.2030,0.429,-0.306,-0.697,-0.43,0.28,-1.34,0.08,-0.28,-0.24
2022-01-28 14:3:00.2130,0.433,-0.303,-0.66,-0.64,0.2,-2.17,0.13,-0.25,-0.17
2022-01-28 14:3:00.2230,0.431,-0.295,-0.625,-0.64,0.2,-2.17,0.13,-0.25,-0.17
2022-01-28 14:3:00.2330,0.424,-0.29,-0.598,-0.6,0.06,-2.81,0.24,-0.31,0.05
2022-01-28 14:3:00.2430,0.412,-0.284,-0.575,-0.51,-0.01,-3.04,0.28,-0.39,0.17
2022-01-28 14:3:00.2530,0.399,-0.275,-0.562,-0.42,-0.12,-3.19,0.34,-0.49,0.27
2022-01-28 14:3:00.2640,0.386,-0.265,-0.551,-0.42,-0.12,-3.19,0.4,-0.58,0.36
2022-01-28 14:3:00.2730,0.372,-0.255,-0.538,-0.26,-0.4,-3.44,0.47,-0.62,0.44
2022-01-28 14:3:00.2830,0.361,-0.249,-0.531,-0.26,-0.4,-3.44,0.47,-0.62,0.44
2022-01-28 14:3:00.2940,0.349,-0.24,-0.528,-0.16581884980201722,-0.66,-3.55,0.65,-0.6,0.62
2022-01-28 14:3:00.3030,0.336,-0.23,-0.522,-0.17,-0.66,-3.55,0.73,-0.57,0.71
2022-01-28 14:3:00.3140,0.32,-0.211,-0.522,-0.12,-0.83,-3.62,0.73,-0.57,0.71
2022-01-28 14:3:00.3230,0.303,-0.195,-0.522,-0.04,-1.09,-3.62,0.84,-0.5,0.8
2022-01-28 14:3:00.3330,0.287,-0.189,-0.527,0.06,-1.35,-3.62,0.84,-0.49,0.8
2022-01-28 14:3:00.3440,0.271,-0.186,-0.532,0.23,-1.64,-3.5,0.8,-0.5,0.75
2022-01-28 14:3:00.3530,0.258,-0.183,-0.54,0.3,-1.75,-3.41,0.7,-0.54,0.65
2022-01-28 14:3:00.3640,0.242,-0.175,-0.557,0.3,-1.75,-3.41,0.56,-0.57,0.51
2022-01-28 14:3:00.3730,0.224,-0.167,-0.572,0.37,-1.91,-3.25,0.37,-0.57,0.34
2022-01-28 14:3:00.3840,0.205,-0.17,-0.596,0.48,-2.07,-3.08,0.37,-0.57,0.34
2022-01-28 14:3:00.3940,0.189,-0.182,-0.631,0.71,-2.01,-2.54,0.02,-0.54,0.03
2022-01-28 14:3:00.4040,0.187,-0.197,-0.67,0.71,-2.01,-2.54,-0.11,-0.52,-0.08
2022-01-28 14:3:00.4140,0.191,-0.218,-0.711,0.62,-1.67,-1.79,-0.18,-0.5,-0.16
2022-01-28 14:3:00.4240,0.203,-0.25,-0.748,0.62,-1.67,-1.79,-0.22,-0.45,-0.19
2022-01-28 14:3:00.4340,0.209,-0.274,-0.781,0.47,-1.34,-1.44,-0.22,-0.45,-0.19
2022-01-28 14:3:00.4440,0.216,-0.307,-0.804,0.28,-0.74,-0.91,-0.2,-0.16,-0.14
2022-01-28 14:3:00.4540,0.237,-0.343,-0.836,0.08,-0.35,-0.63,-0.16,0.05,-0.09
2022-01-28 14:3:00.4640,0.267,-0.37,-0.875,0.08,-0.35,-0.63,-0.16,0.05,-0.09
2022-01-28 14:3:00.4740,0.297,-0.404,-0.937,-0.2,-0.07,-0.26,-0.13,0.25,-0.06
2022-01-28 14:3:00.4840,0.323,-0.45,-0.994,-0.72,0.72,0.89,-0.17,0.42,0.02
2022-01-28 14:3:00.4940,0.336,-0.497,-1.077,-0.82,1.19,1.66,-0.23,0.29,0.09
2022-01-28 14:3:00.5040,0.346,-0.543,-1.169,-0.9,1.68,2.57,-0.27,0.0,0.15
2022-01-28 14:3:00.5140,0.352,-0.567,-1.261,-0.96,1.96,3.48,-0.28,-0.39,0.22
2022-01-28 14:3:00.5240,0.344,-0.585,-1.34,-0.94,2.16,4.25,-0.27,-0.81,0.27
2022-01-28 14:3:00.5350,0.321,-0.595,-1.4,-0.94,2.16,4.25,-0.23,-1.17,0.33
2022-01-28 14:3:00.5440,0.287,-0.602,-1.439,-0.79,2.29,4.83,-0.2,-1.38,0.39
2022-01-28 14:3:00.5550,0.249,-0.612,-1.45,-0.34,2.48,5.32,-0.14,-1.41,0.46
2022-01-28 14:3:00.5640,0.212,-0.622,-1.441,-0.34,2.48,5.32,-0.03,-1.29,0.53
2022-01-28 14:3:00.5740,0.177,-0.626,-1.427,-0.11,2.58,5.21,-0.03,-1.29,0.53
2022-01-28 14:3:00.5840,0.142,-0.612,-1.407,0.31,2.5,4.83,0.24,-0.74,0.66
2022-01-28 14:3:00.5950,0.107,-0.598,-1.378,0.31,2.5,4.83,0.35,-0.37,0.72
2022-01-28 14:3:00.6040,0.086,-0.593,-1.336,0.57,2.31,4.58,0.35,-0.37,0.72
2022-01-28 14:3:00.6140,0.079,-0.582,-1.286,0.77,2.09,3.7,0.41,0.23,0.75
2022-01-28 14:3:00.6250,0.08,-0.57,-1.217,0.75,1.92,3.06,0.4,0.45,0.71
2022-01-28 14:3:00.6340,0.078,-0.559,-1.14,0.75,1.92,3.06,0.4,0.62,0.65
2022-01-28 14:3:00.6450,0.071,-0.55,-1.058,0.77,1.76,2.33,0.4,0.62,0.65
2022-01-28 14:3:00.6550,0.062,-0.532,-0.983,0.86,1.64,1.56,0.45,0.76,0.53
2022-01-28 14:3:00.6650,0.056,-0.517,-0.913,0.99,1.42,0.84,0.47,0.75,0.48
2022-01-28 14:3:00.6740,0.052,-0.502,-0.85,1.1,1.22,0.17,0.48,0.68,0.42
2022-01-28 14:3:00.6850,0.05,-0.475,-0.802,1.19,1.03,-0.43,0.45,0.54,0.34
2022-01-28 14:3:00.6950,0.048,-0.454,-0.776,1.31,0.46,-1.15,0.41,0.32,0.24
2022-01-28 14:3:00.7050,0.041,-0.437,-0.768,1.39,0.25,-1.22,0.35,0.02,0.13
2022-01-28 14:3:00.7150,0.034,-0.433,-0.763,1.39,0.25,-1.22,0.35,0.02,0.13
2022-01-28 14:3:00.7240,0.03,-0.433,-0.754,1.47,0.16,-1.25,0.3,-0.54,-0.11
2022-01-28 14:3:00.7350,0.028,-0.431,-0.73,1.49,0.14,-1.31,0.32,-0.71,-0.23
2022-01-28 14:3:00.7450,0.018,-0.424,-0.709,1.47,0.1,-1.54,0.37,-0.8,-0.33
2022-01-28 14:3:00.7550,0.001,-0.406,-0.683,1.5,0.01,-1.75,0.41,-0.81,-0.4
2022-01-28 14:3:00.7660,-0.014,-0.378,-0.656,1.6,-0.17,-1.99,0.42,-0.75,-0.46
2022-01-28 14:3:00.7750,-0.017,-0.364,-0.634,1.7,-0.47,-2.26,0.42,-0.75,-0.46
2022-01-28 14:3:00.7850,-0.011,-0.362,-0.613,1.7,-0.66,-2.47,0.36,-0.47,-0.51
2022-01-28 14:3:00.7950,-0.007,-0.357,-0.596,1.54,-0.78,-2.84,0.33,-0.29,-0.53
2022-01-28 14:3:00.8050,-0.004,-0.363,-0.576,1.54,-0.78,-2.84,0.31,-0.08,-0.53
2022-01-28 14:3:00.8160,0.003,-0.37,-0.56,1.51,-0.76,-3.02,0.3,0.13,-0.54
2022-01-28 14:3:00.8250,0.019,-0.38,-0.555,1.46,-0.71,-3.18,0.3,0.29,-0.53
2022-01-28 14:3:00.8350,0.039,-0.391,-0.555,1.34,-0.63,-3.22,0.3,0.38,-0.53
2022-01-28 14:3:00.8450,0.053,-0.395,-0.556,1.1,-0.5,-3.19,0.31,0.4,-0.55
2022-01-28 14:3:00.8550,0.068,-0.399,-0.566,1.1,-0.5,-3.19,0.32,0.35,-0.57
2022-01-28 14:3:00.8650,0.083,-0.42,-0.573,1.02,-0.49,-3.08,0.32,0.28,-0.56
2022-01-28 14:3:00.8750,0.101,-0.441,-0.578,0.93,-0.33,-2.98,0.33,0.22,-0.54
2022-01-28 14:3:00.8860,0.122,-0.447,-0.582,0.8,-0.12,-2.92,0.35,0.15,-0.53
2022-01-28 14:3:00.8950,0.141,-0.451,-0.594,0.65,-0.07,-2.86,0.35,0.1,-0.52
2022-01-28 14:3:00.9050,0.15,-0.453,-0.617,0.49,-0.05,-2.73,0.33,0.06,-0.48
2022-01-28 14:3:00.9150,0.158,-0.464,-0.643,0.42,-0.05,-2.51,0.3,0.09,-0.42
2022-01-28 14:3:00.9250,0.163,-0.476,-0.665,0.37,0.03,-2.23,0.27,0.15,-0.36
2022-01-28 14:3:00.9350,0.172,-0.489,-0.708,0.35,0.14,-2.0,0.26,0.23,-0.3
2022-01-28 14:3:00.9460,0.187,-0.497,-0.75,0.3,0.24,-1.59,0.26,0.23,-0.3
2022-01-28 14:3:00.9550,0.2,-0.498,-0.786,0.19,0.32,-1.16,0.35,0.38,-0.24
2022-01-28 14:3:00.9660,0.207,-0.501,-0.818,0.09,0.32,-0.77,0.38,0.45,-0.22
2022-01-28 14:3:00.9760,0.217,-0.507,-0.86,0.06,0.32,-0.45,0.38,0.45,-0.22
2022-01-28 14:3:00.9860,0.228,-0.517,-0.914,0.01,0.34,-0.01,0.32,0.52,-0.14
2022-01-28 14:3:00.9960,0.232,-0.51,-0.991,-0.04,0.36,1.28,0.24,0.47,-0.14
2022-01-28 14:3:01.0060,0.24,-0.495,-1.062,-0.04,0.36,1.28,0.11,0.37,-0.17
2022-01-28 14:3:01.0150,0.266,-0.499,-1.123,-0.25,0.18,2.64,-0.06,0.26,-0.2
2022-01-28 14:3:01.0260,0.305,-0.532,-1.176,-0.6,0.49,3.17,-0.18,0.13,-0.22
2022-01-28 14:3:01.0360,0.335,-0.557,-1.224,-0.89,0.79,3.64,-0.2,-0.01,-0.25
2022-01-28 14:3:01.0460,0.35,-0.542,-1.262,-1.04,0.71,4.03,-0.13,-0.15,-0.29
2022-01-28 14:3:01.0560,0.36,-0.514,-1.279,-1.1294285872578622,0.4502432066202164,4.21,-0.04,-0.28,-0.31
2022-01-28 14:3:01.0660,0.377,-0.497,-1.286,-1.3,0.29,4.28,0.01,-0.41,-0.28
2022-01-28 14:3:01.0760,0.394,-0.485,-1.283,-1.3,0.29,4.28,0.02,-0.5,-0.23
2022-01-28 14:3:01.0860,0.405,-0.473,-1.266,-1.48,0.17,4.25,0.01,-0.55,-0.16
2022-01-28 14:3:01.0960,0.41,-0.46,-1.247,-1.72,-0.06,3.89,0.0,-0.57,-0.11
2022-01-28 14:3:01.1060,0.41,-0.452,-1.226,-1.77,-0.14,3.67,-0.01,-0.57,-0.05
2022-01-28 14:3:01.1160,0.4,-0.445,-1.211,-1.73,-0.21,3.49,-0.01,-0.57,-0.05
2022-01-28 14:3:01.1270,0.386,-0.438,-1.211,-1.73,-0.21,3.49,-0.09,-0.68,-0.0
2022-01-28 14:3:01.1370,0.364,-0.436,-1.207,-1.64,-0.28,3.47,-0.14,-0.76,-0.02
2022-01-28 14:3:01.1460,0.334,-0.434,-1.194,-1.51,-0.29,3.42,-0.15,-0.79,-0.06
2022-01-28 14:3:01.1560,0.307,-0.437,-1.164,-1.07,-0.26,2.99,-0.15,-0.76,-0.1
2022-01-28 14:3:01.1660,0.29,-0.441,-1.119,-0.95,-0.2,2.54,-0.12,-0.65,-0.14
2022-01-28 14:3:01.1770,0.28,-0.439,-1.063,-0.95,-0.2,2.54,-0.09,-0.5,-0.17
2022-01-28 14:3:01.1860,0.273,-0.431,-0.997,-0.9,-0.2,1.99,-0.08,-0.32,-0.19
2022-01-28 14:3:01.1960,0.269,-0.423,-0.937,-0.87,-0.26,1.32,-0.08,-0.15,-0.2
2022-01-28 14:3:01.2060,0.269,-0.424,-0.881,-0.85,-0.32,0.16,-0.09,-0.01,-0.19
2022-01-28 14:3:01.2160,0.269,-0.425,-0.822,-0.85,-0.29,-0.42,-0.09,0.11,-0.17
2022-01-28 14:3:01.2270,0.268,-0.424,-0.769,-0.83,-0.29,-0.96,-0.07,0.21,-0.14
2022-01-28 14:3:01.2360,0.264,-0.422,-0.723,-0.83,-0.29,-0.96,-0.05,0.26,-0.13
2022-01-28 14:3:01.2460,0.26,-0.419,-0.682,-0.77,-0.3,-1.42,-0.01,0.27,-0.11
2022-01-28 14:3:01.2560,0.256,-0.419,-0.651,-0.64,-0.32,-2.14,0.03,0.23,-0.11
2022-01-28 14:3:01.2670,0.25,-0.414,-0.617,-0.64,-0.32,-2.14,0.09,0.17,-0.12
2022-01-28 14:3:01.2760,0.242,-0.407,-0.581,-0.46,-0.42,-2.8,0.15,0.09,-0.12
2022-01-28 14:3:01.2870,0.231,-0.401,-0.558,-0.46,-0.42,-2.8,0.22,0.01,-0.14
2022-01-28 14:3:01.2970,0.221,-0.392,-0.53,-0.23,-0.59,-3.29,0.28,-0.04,-0.14
2022-01-28 14:3:01.3070,0.21,-0.385,-0.497,-0.23,-0.59,-3.29,0.34,-0.05,-0.13
2022-01-28 14:3:01.3170,0.197,-0.377,-0.47,-0.12,-0.68,-3.6,0.41,-0.04,-0.12
2022-01-28 14:3:01.3270,0.184,-0.359,-0.454,0.0,-0.78,-3.87,0.47,-0.02,-0.11
2022-01-28 14:3:01.3370,0.168,-0.342,-0.442,0.3,-1.19,-4.12,0.53,-0.02,-0.1
2022-01-28 14:3:01.3470,0.151,-0.342,-0.437,0.3,-1.19,-4.12,0.57,-0.01,-0.07
2022-01-28 14:3:01.3560,0.141,-0.343,-0.427,0.58,-1.27,-4.22,0.59,0.04,-0.06
2022-01-28 14:3:01.3670,0.135,-0.337,-0.421,0.58,-1.27,-4.22,0.59,0.04,-0.06
2022-01-28 14:3:01.3770,0.13,-0.328,-0.422,0.64,-1.37,-4.27,0.6,0.09,-0.07
2022-01-28 14:3:01.3870,0.122,-0.316,-0.433,0.78,-1.66,-4.12,0.53,0.23,-0.15
2022-01-28 14:3:01.3970,0.109,-0.299,-0.486,0.78,-1.66,-4.12,0.53,0.23,-0.15
2022-01-28 14:3:01.4070,0.098,-0.303,-0.551,1.07,-1.88,-2.96,0.26,0.0,-0.28
2022-01-28 14:3:01.4180,0.081,-0.3,-0.632,1.2616750636696816,-1.94,-2.17,0.14,-0.24,-0.37
2022-01-28 14:3:01.4280,0.074,-0.319,-0.698,1.26,-1.94,-2.17,0.07,-0.46,-0.46
2022-01-28 14:3:01.4370,0.078,-0.339,-0.74,1.34,-1.78,-1.48,0.04,-0.6,-0.54
2022-01-28 14:3:01.4470,0.085,-0.352,-0.778,1.2125052425265312,-1.4260496512055398,-0.7,0.08,-0.62,-0.59
2022-01-28 14:3:01.4570,0.091,-0.37,-0.806,1.12,-1.25,-0.39,0.21,-0.43,-0.56
2022-01-28 14:3:01.4680,0.087,-0.383,-0.808,1.12,-1.25,-0.39,0.37,-0.03,-0.48
2022-01-28 14:3:01.4770,0.093,-0.401,-0.784,1.12,-0.97,-0.55,0.51,0.5,-0.37
2022-01-28 14:3:01.4870,0.114,-0.415,-0.785,1.12,-0.97,-0.55,0.51,0.5,-0.37
2022-01-28 14:3:01.4970,0.145,-0.431,-0.828,0.76,-0.74,-0.14,0.44,1.23,-0.22
2022-01-28 14:3:01.5070,0.185,-0.455,-0.879,0.48,-0.55,0.4,0.25,1.31,-0.22
2022-01-28 14:3:01.5180,0.234,-0.495,-0.951,0.48,-0.55,0.4,0.04,1.2,-0.26
2022-01-28 14:3:01.5270,0.276,-0.561,-1.002,0.13,-0.21,1.13,-0.14,0.98,-0.33
2022-01-28 14:3:01.5370,0.31,-0.607,-1.049,-0.18,0.42,1.7,-0.25,0.67,-0.45
2022-01-28 14:3:01.5480,0.345,-0.626,-1.101,-0.69,1.17,2.7,-0.32,0.34,-0.58
2022-01-28 14:3:01.5580,0.372,-0.65,-1.119,-0.69,1.17,2.7,-0.32,0.34,-0.58
2022-01-28 14:3:01.5680,0.386,-0.666,-1.134,-0.91,1.44,2.91,-0.49,-0.16,-0.7
2022-01-28 14:3:01.5770,0.384,-0.677,-1.146,-1.02,1.66,3.04,-0.61,-0.27,-0.68
2022-01-28 14:3:01.5870,0.369,-0.682,-1.137,-0.99,1.83,3.14,-0.71,-0.22,-0.61
2022-01-28 14:3:01.5980,0.36,-0.694,-1.121,-0.74,2.12,2.84,-0.76,-0.05,-0.52
2022-01-28 14:3:01.6080,0.354,-0.724,-1.105,-0.74,2.12,2.84,-0.77,0.2,-0.44
2022-01-28 14:3:01.6180,0.345,-0.74,-1.089,-0.54,2.74,2.46,-0.76,0.42,-0.4
2022-01-28 14:3:01.6280,0.334,-0.733,-1.085,-0.54,2.74,2.46,-0.76,0.42,-0.4
2022-01-28 14:3:01.6380,0.321,-0.695,-1.112,-0.39,2.79,2.38,-0.74,0.53,-0.43
2022-01-28 14:3:01.6480,0.311,-0.666,-1.163,-0.2,2.52,2.57,-0.86,0.1,-0.64
2022-01-28 14:3:01.6570,0.306,-0.674,-1.206,-0.04,2.27,3.04,-0.94,-0.23,-0.73
2022-01-28 14:3:01.6680,0.291,-0.68,-1.209,0.2,2.59,3.5,-0.92,-0.46,-0.79
2022-01-28 14:3:01.6780,0.272,-0.685,-1.187,0.2,2.59,3.5,-0.78,-0.54,-0.8
2022-01-28 14:3:01.6880,0.247,-0.69,-1.148,0.38,2.73,2.839713145494461,-0.54,-0.47,-0.77
2022-01-28 14:3:01.6980,0.213,-0.683,-1.095,0.6,2.89,2.83,-0.29,-0.27,-0.68
2022-01-28 14:3:01.7080,0.179,-0.673,-1.03,1.25,2.86,1.64,-0.05,0.02,-0.55
2022-01-28 14:3:01.7190,0.152,-0.655,-0.957,1.55,2.73,0.93,0.16,0.31,-0.43
2022-01-28 14:3:01.7280,0.146,-0.635,-0.886,1.55,2.73,0.93,0.35,0.54,-0.36
2022-01-28 14:3:01.7380,0.147,-0.613,-0.813,1.71,2.31,-0.44,0.51,0.69,-0.37
2022-01-28 14:3:01.7480,0.138,-0.592,-0.742,1.86,2.07,-1.11,0.62,0.72,-0.44
2022-01-28 14:3:01.7580,0.131,-0.573,-0.677,2.01,1.85,-1.7,0.66,0.69,-0.56
2022-01-28 14:3:01.7680,0.138,-0.547,-0.618,2.01,1.85,-1.7,0.7,0.57,-0.7
2022-01-28 14:3:01.7780,0.147,-0.521,-0.58,2.02,1.27,-2.59,0.75,0.41,-0.82
2022-01-28 14:3:01.7880,0.165,-0.5,-0.562,2.02,1.27,-2.59,0.74,0.15,-0.91
2022-01-28 14:3:01.7990,0.181,-0.501,-0.557,1.94,1.03,-2.77,0.73,-0.13,-0.96
2022-01-28 14:3:01.8080,0.17,-0.487,-0.546,1.8,0.98,-2.78,0.74,-0.39,-1.03
2022-01-28 14:3:01.8180,0.178,-0.458,-0.559,1.94,0.86,-2.84,0.72,-0.79,-1.15
2022-01-28 14:3:01.8280,0.174,-0.45,-0.624,1.89,0.55,-2.8,0.68,-1.18,-1.32
2022-01-28 14:3:01.8380,0.179,-0.471,-0.613,1.88,0.4,-2.12,0.67,-1.46,-1.51
2022-01-28 14:3:01.8490,0.22,-0.458,-0.589,1.85,0.61,-2.18,0.71,-1.56,-1.7
2022-01-28 14:3:01.8580,0.272,-0.432,-0.552,1.42,0.52,-2.42,0.71,-1.56,-1.7
2022-01-28 14:3:01.8680,0.312,-0.406,-0.528,0.39,0.0,-3.07,0.77,-1.17,-1.88
2022-01-28 14:3:01.8790,0.335,-0.418,-0.5,0.39,0.0,-3.07,0.7,-0.79,-1.78
2022-01-28 14:3:01.8890,0.323,-0.424,-0.468,0.18,0.17,-3.66,0.54,-0.38,-1.61
2022-01-28 14:3:01.8990,0.298,-0.417,-0.433,0.18,0.17,-3.66,0.36,-0.07,-1.4
2022-01-28 14:3:01.9080,0.261,-0.39,-0.463,0.84,-0.12,-3.8,0.19,0.03,-1.19
2022-01-28 14:3:01.9190,0.247,-0.381,-0.503,1.07,-0.23,-3.39,0.03,-0.06,-1.01
2022-01-28 14:3:01.9290,0.266,-0.404,-0.557,1.07,-0.23,-3.39,0.03,-0.06,-1.01
2022-01-28 14:3:01.9390,0.301,-0.423,-0.641,0.96,0.01,-2.89,-0.21,-0.59,-0.74
2022-01-28 14:3:01.9480,0.316,-0.427,-0.73,0.61,0.27,-2.13,-0.35,-0.75,-0.73
2022-01-28 14:3:01.9590,0.51,-0.43,-0.696,-1.33,0.49,-1.37,-0.33,-0.47,-0.87
2022-01-28 14:3:01.9690,0.453,-0.317,-0.706,-1.33,0.49,-1.37,-0.25,-0.33,-1.01
2022-01-28 14:3:01.9790,0.415,-0.352,-0.823,-1.1,-0.5,-1.66,-0.21,-0.07,-0.99
2022-01-28 14:3:01.9880,0.402,-0.388,-0.83,-0.57,-0.33,-0.38,-0.24,0.35,-0.86
2022-01-28 14:3:01.9990,0.369,-0.359,-0.848,-0.08,-0.02,-0.13,-0.27,0.81,-0.66
2022-01-28 14:3:02.0090,0.363,-0.374,-0.897,-0.08,-0.02,-0.13,-0.26,1.17,-0.44
2022-01-28 14:3:02.0190,0.388,-0.392,-0.947,0.11,0.13,0.32,-0.21,1.39,-0.27
2022-01-28 14:3:02.0290,0.432,-0.375,-1.0,-0.01,0.38,0.86,-0.21,1.35,-0.2
2022-01-28 14:3:02.0390,0.502,-0.375,-1.116,-0.83,0.24,2.5,-0.35,0.99,-0.2
2022-01-28 14:3:02.0490,0.566,-0.423,-1.246,-1.38,0.72,3.82,-0.61,0.42,-0.23
2022-01-28 14:3:02.0590,0.606,-0.444,-1.345,-1.75,1.04,4.86,-0.89,-0.17,-0.32
2022-01-28 14:3:02.0670,0.623,-0.411,-1.382,-1.75,1.04,4.86,-1.03,-0.3,-0.46
2022-01-28 14:3:02.0800,0.588,-0.359,-1.317,-1.93,0.95,5.28,-0.95,-0.33,-0.56
2022-01-28 14:3:02.0890,0.57,-0.359,-1.355,-1.7,0.56,4.53,-0.8,-0.13,-0.54
2022-01-28 14:3:02.0990,0.591,-0.377,-1.278,-1.42,0.54,4.94,-0.61,0.19,-0.42
2022-01-28 14:3:02.1090,0.581,-0.35,-1.209,-1.62,0.85,4.21,-0.39,0.56,-0.22
2022-01-28 14:3:02.1190,0.569,-0.32,-1.122,-1.5,0.66,3.56,-0.2,0.91,-0.01
2022-01-28 14:3:02.1290,0.568,-0.293,-1.071,-1.3,0.39,2.73,-0.04,1.11,0.16
2022-01-28 14:3:02.1390,0.586,-0.285,-1.054,-1.19,0.11,2.21,0.04,1.1,0.25
2022-01-28 14:3:02.1490,0.618,-0.288,-1.061,-1.26,0.0,2.06,0.07,0.91,0.25
2022-01-28 14:3:02.1590,0.659,-0.29,-1.061,-1.49,0.01,2.16,0.1,0.6,0.14
2022-01-28 14:3:02.1690,0.692,-0.287,-1.051,-1.84,0.02,2.21,0.12,0.23,-0.01
2022-01-28 14:3:02.1790,0.708,-0.29,-1.021,-2.15,-0.01,2.14,0.12,0.23,-0.01
2022-01-28 14:3:02.1890,0.701,-0.295,-0.982,-2.33,0.0,1.88,0.13,-0.38,-0.24
2022-01-28 14:3:02.1990,0.674,-0.299,-0.944,-2.31,0.04,1.49,0.13,-0.56,-0.26
2022-01-28 14:3:02.2090,0.635,-0.296,-0.896,-2.1,0.09,1.1,0.12,-0.64,-0.24
2022-01-28 14:3:02.2190,0.592,-0.293,-0.854,-1.77,0.07,0.61,0.13,-0.63,-0.18
2022-01-28 14:3:02.2290,0.552,-0.293,-0.823,-1.4,0.04,0.16,0.17,-0.57,-0.11
2022-01-28 14:3:02.2390,0.514,-0.298,-0.791,-1.04,0.03,-0.17,0.22,-0.45,-0.04
2022-01-28 14:3:02.2490,0.478,-0.304,-0.749,-0.71,0.06,-0.5,0.29,-0.27,0.01
2022-01-28 14:3:02.2590,0.444,-0.303,-0.702,-0.38,0.1,-0.9,0.36,-0.06,0.05
2022-01-28 14:3:02.2690,0.413,-0.305,-0.658,-0.06,0.07,-1.36,0.41,0.15,0.07
2022-01-28 14:3:02.2790,0.382,-0.312,-0.62,0.26,0.04,-1.78,0.44,0.33,0.08
2022-01-28 14:3:02.2890,0.355,-0.318,-0.592,0.59,0.07,-2.14,0.47,0.44,0.07
2022-01-28 14:3:02.2990,0.333,-0.322,-0.575,0.89,0.09,-2.4,0.49,0.49,0.04
2022-01-28 14:3:02.3090,0.317,-0.331,-0.563,1.15,0.09,-2.54,0.53,0.49,-0.01
2022-01-28 14:3:02.3190,0.311,-0.338,-0.541,1.36,0.13,-2.62,0.58,0.47,-0.09
Time,0.316,-0.337,-0.526,1.47,0.16,-2.79,0.64,0.4,-0.18
2022-01-28 14:3:02.3400,0.321,-0.339,-0.522,1.47,0.12,-2.92,0.7,0.3,-0.26
2022-01-28 14:3:02.3490,0.327,-0.34,-0.513,1.45,0.09,-2.92,0.75,0.18,-0.33
2022-01-28 14:3:02.3600,0.324,-0.339,-0.501,1.41,0.06,-2.97,0.79,0.09,-0.38
2022-01-28 14:3:02.3700,0.316,-0.34,-0.487,1.46,0.0,-3.05,0.84,0.01,-0.41
2022-01-28 14:3:02.3800,0.305,-0.336,-0.479,1.54,-0.04,-3.17,0.89,-0.05,-0.44
2022-01-28 14:3:02.3900,0.296,-0.329,-0.471,1.66,-0.12,-3.22,0.94,-0.07,-0.48
2022-01-28 14:3:02.4000,0.294,-0.326,-0.463,1.77,-0.24,-3.27,1.0,-0.05,-0.51
2022-01-28 14:3:02.4100,0.292,-0.323,-0.463,1.81,-0.32,-3.31,1.06,-0.01,-0.54
2022-01-28 14:3:02.4190,0.282,-0.268,-0.484,1.84,-0.4,-3.3,1.18,0.04,-0.71
2022-01-28 14:3:02.4290,0.276,-0.165,-0.413,1.94,-0.83,-3.08,1.29,0.36,-0.77
2022-01-28 14:3:02.4400,0.304,-0.33,-0.352,2.1,-2.13,-3.49,1.28,0.54,-0.65
2022-01-28 14:3:02.4500,0.311,-0.42,-0.412,1.89,-0.74,-4.26,1.2,0.65,-0.53
2022-01-28 14:3:02.4600,0.327,-0.405,-0.398,1.88,0.26,-3.57,1.06,0.72,-0.47
2022-01-28 14:3:02.4700,0.346,-0.378,-0.393,1.81,0.12,-3.58,0.91,0.78,-0.46
2022-01-28 14:3:02.4800,0.355,-0.353,-0.392,1.69,-0.2,-3.58,0.74,0.88,-0.47
2022-01-28 14:3:02.4900,0.362,-0.343,-0.373,1.67,-0.47,-3.5,0.59,1.05,-0.5
2022-01-28 14:3:02.5000,0.379,-0.344,-0.358,1.7,-0.61,-3.59,0.43,1.23,-0.57
2022-01-28 14:3:02.5100,0.402,-0.349,-0.398,1.66,-0.62,-3.69,0.27,1.26,-0.68
2022-01-28 14:3:02.5200,0.431,-0.366,-0.488,1.55,-0.56,-3.3,0.13,1.18,-0.85
2022-01-28 14:3:02.5300,0.48,-0.392,-0.558,1.39,-0.37,-2.36,0.05,1.05,-1.06
2022-01-28 14:3:02.5400,0.549,-0.417,-0.627,1.05,-0.08,-1.57,0.02,0.89,-1.25
2022-01-28 14:3:02.5500,0.627,-0.439,-0.713,0.52,0.24,-0.87,0.06,0.81,-1.35
2022-01-28 14:3:02.5600,0.701,-0.45,-0.772,-0.14,0.55,0.03,0.18,0.9,-1.3
2022-01-28 14:3:02.5700,0.753,-0.473,-0.808,-0.77,0.72,0.69,0.41,1.18,-1.06
2022-01-28 14:3:02.5800,0.775,-0.493,-0.836,-1.2,0.97,1.15,0.74,1.53,-0.7
2022-01-28 14:3:02.5900,0.773,-0.483,-0.898,-1.33,1.2,1.54,1.05,1.68,-0.38
2022-01-28 14:3:02.6000,0.771,-0.41,-1.009,-1.2,1.12,2.21,1.15,1.45,-0.27
2022-01-28 14:3:02.6100,0.81,-0.339,-1.137,-1.05,0.43,3.4,0.92,0.81,-0.46
2022-01-28 14:3:02.6200,0.896,-0.392,-1.268,-1.29,-0.39,4.74,0.36,-0.07,-0.87
2022-01-28 14:3:02.6320,0.988,-0.512,-1.361,-2.06,-0.01,6.07,-0.36,-0.85,-1.36
2022-01-28 14:3:02.6410,1.06,-0.62,-1.395,-2.97,1.23,7.01,-1.05,-1.36,-1.81
2022-01-28 14:3:02.6510,1.081,-0.644,-1.451,-3.73,2.51,7.26,-1.55,-1.63,-2.16
2022-01-28 14:3:02.6610,1.036,-0.546,-1.54,-4.06,3.12,7.61,-1.77,-1.78,-2.38
2022-01-28 14:3:02.6720,0.971,-0.401,-1.631,-3.13,1.41,9.03,-1.73,-1.82,-2.43
2022-01-28 14:3:02.6820,0.915,-0.301,-1.689,-3.13,1.41,9.03,-1.48,-1.66,-2.23
2022-01-28 14:3:02.6930,0.868,-0.278,-1.67,-2.63,0.6,9.51,-1.13,-1.25,-1.79
2022-01-28 14:3:02.7020,0.816,-0.351,-1.544,-2.21,0.48,9.32,-0.66,-0.55,-1.16
2022-01-28 14:3:02.7120,0.739,-0.444,-1.375,-1.75,1.22,8.16,-0.12,0.15,-0.52
2022-01-28 14:3:02.7220,0.654,-0.478,-1.247,-1.01,2.26,6.46,0.44,0.62,-0.02
2022-01-28 14:3:02.7330,0.586,-0.478,-1.145,0.6,2.6,4.24,0.91,0.78,0.29
2022-01-28 14:3:02.7430,0.528,-0.478,-1.031,1.23,2.47,3.24,1.25,0.71,0.42
2022-01-28 14:3:02.7530,0.485,-0.498,-0.896,1.69,2.53,1.98,1.44,0.5,0.44
2022-01-28 14:3:02.7630,0.445,-0.506,-0.776,2.1,2.5,0.83,1.52,0.2,0.35
2022-01-28 14:3:02.7730,0.42,-0.514,-0.694,2.1,2.5,0.83,1.54,-0.11,0.2
2022-01-28 14:3:02.7830,0.4,-0.497,-0.596,2.37,2.44,0.02,1.54,-0.27,-0.0
2022-01-28 14:3:02.7930,0.364,-0.455,-0.494,2.88,1.71,-1.89,1.52,-0.35,-0.23
2022-01-28 14:3:02.8030,0.367,-0.448,-0.432,2.88,1.71,-1.89,1.47,-0.34,-0.43
2022-01-28 14:3:02.8130,0.358,-0.429,-0.375,2.87,1.54,-2.5,1.43,-0.25,-0.63
2022-01-28 14:3:02.8230,0.339,-0.379,-0.32,3.13,0.82,-3.55,1.4,-0.1,-0.85
2022-01-28 14:3:02.8330,0.325,-0.334,-0.281,3.13,0.82,-3.55,1.37,0.01,-1.06
2022-01-28 14:3:02.8430,0.296,-0.307,-0.259,3.6,0.04,-4.11,1.33,0.04,-1.27
2022-01-28 14:3:02.8530,0.277,-0.275,-0.244,3.6,0.04,-4.11,1.29,-0.04,-1.48
2022-01-28 14:3:02.8630,0.289,-0.231,-0.255,3.84,-0.25,-4.23,1.28,-0.27,-1.7
2022-01-28 14:3:02.8730,0.344,-0.201,-0.293,3.34,-0.94,-3.78,1.3,-0.6,-1.89
2022-01-28 14:3:02.8830,0.416,-0.189,-0.323,3.34,-0.94,-3.78,1.36,-0.94,-2.02
2022-01-28 14:3:02.8930,0.469,-0.167,-0.32,2.64,-1.02,-3.48,1.39,-1.24,-2.11
2022-01-28 14:3:02.9030,0.475,-0.138,-0.362,2.06,-1.16,-3.51,1.49,-1.42,-2.16
2022-01-28 14:3:02.9130,0.516,-0.118,-0.259,1.92,-1.43,-3.21,1.52,-1.4,-2.15
2022-01-28 14:3:02.9230,0.533,-0.125,-0.292,1.55,-1.58,-4.07,1.52,-1.4,-2.15
2022-01-28 14:3:02.9350,0.54,-0.143,-0.373,1.28,-1.53,-4.1,1.32,-1.59,-1.89
2022-01-28 14:3:02.9430,0.556,-0.121,-0.413,1.17,-1.29,-3.28,1.15,-1.64,-1.68
2022-01-28 14:3:02.9540,0.579,-0.104,-0.453,0.96,-1.44,-2.97,1.15,-1.64,-1.68
2022-01-28 14:3:02.9640,0.603,-0.117,-0.382,0.66,-1.61,-2.62,0.83,-0.77,-1.06
2022-01-28 14:3:02.9730,0.582,-0.233,-0.297,0.37,-1.57,-3.1,0.83,-0.77,-1.06
2022-01-28 14:3:02.9840,0.626,-0.251,-0.516,0.56,-0.44,-4.31,0.6,-0.27,-0.62
2022-01-28 14:3:02.9940,0.672,-0.22,-0.603,0.2,-0.16,-2.23,0.1,-0.0,-0.02
2022-01-28 14:3:03.0030,0.699,-0.195,-0.682,-0.57,-0.7,-0.51,-0.08,-0.06,0.14
2022-01-28 14:3:03.0140,0.717,-0.181,-0.761,-0.76,-0.86,0.31,-0.2,-0.04,0.28
2022-01-28 14:3:03.0240,0.719,-0.205,-0.793,-0.76,-0.86,0.31,-0.2,-0.04,0.28
2022-01-28 14:3:03.0340,0.711,-0.3,-0.831,-0.75,0.13,1.0,-0.38,0.17,0.82
2022-01-28 14:3:03.0440,0.697,-0.399,-0.913,-0.64,1.16,1.75,-0.39,0.08,1.06
2022-01-28 14:3:03.0540,0.669,-0.343,-0.97,-0.41,0.76,2.39,-0.33,-0.06,1.04
2022-01-28 14:3:03.0640,0.653,-0.267,-0.981,-0.27,-0.13,2.51,-0.23,-0.19,0.82
2022-01-28 14:3:03.0740,0.671,-0.321,-0.962,-0.27,-0.13,2.51,-0.15,-0.22,0.54
2022-01-28 14:3:03.0840,0.73,-0.468,-0.965,-0.99,1.58,2.27,-0.18,-0.26,0.31
2022-01-28 14:3:03.0940,0.786,-0.594,-0.987,-0.99,1.58,2.27,-0.33,-0.21,0.06
2022-01-28 14:3:03.1040,0.835,-0.63,-0.987,-1.57,2.92,2.49,-0.55,-0.09,-0.22
2022-01-28 14:3:03.1140,0.86,-0.621,-1.028,-2.09,3.41,2.46,-0.76,0.02,-0.51
2022-01-28 14:3:03.1240,0.9,-0.601,-1.089,-2.33,3.44,2.79,-0.76,0.02,-0.51
2022-01-28 14:3:03.1340,0.939,-0.574,-1.166,-2.68,3.35,3.36,-0.86,-0.11,-0.9
2022-01-28 14:3:03.1440,0.964,-0.51,-1.245,-3.32,2.77,4.81,-0.71,-0.38,-0.97
2022-01-28 14:3:03.1540,0.968,-0.408,-1.306,-3.32,2.77,4.81,-0.49,-0.69,-0.95
2022-01-28 14:3:03.1640,0.955,-0.312,-1.347,-3.41,1.9,5.39,-0.26,-0.95,-0.83
2022-01-28 14:3:03.1740,0.933,-0.25,-1.376,-3.35,1.0,5.75,-0.06,-1.12,-0.62
2022-01-28 14:3:03.1840,0.911,-0.228,-1.403,-3.21,0.39,5.97,0.08,-1.2,-0.38
2022-01-28 14:3:03.1940,0.886,-0.221,-1.42,-3.07,0.16,6.17,0.22,-1.17,-0.15
2022-01-28 14:3:03.2040,0.849,-0.207,-1.417,-2.66,-0.06,6.23,0.38,-1.05,0.04
2022-01-28 14:3:03.2140,0.792,-0.182,-1.394,-2.19,-0.34,6.0,0.57,-0.82,0.17
2022-01-28 14:3:03.2240,0.706,-0.143,-1.33,-2.19,-0.34,6.0,0.75,-0.49,0.25
2022-01-28 14:3:03.2350,0.622,-0.117,-1.258,-0.61,-1.15,4.69,0.89,-0.14,0.31
2022-01-28 14:3:03.2440,0.546,-0.106,-1.19,-0.61,-1.15,4.69,0.96,0.13,0.33
2022-01-28 14:3:03.2540,0.479,-0.113,-1.118,0.13,-1.36,4.05,0.96,0.13,0.33
2022-01-28 14:3:03.2650,0.434,-0.132,-1.035,0.83,-1.41,3.39,1.0,0.36,0.28
2022-01-28 14:3:03.2750,0.405,-0.153,-0.949,1.31,-1.32,2.63,0.98,0.36,0.2
2022-01-28 14:3:03.2840,0.384,-0.166,-0.864,1.63,-1.2,1.84,0.95,0.32,0.08
2022-01-28 14:3:03.2950,0.369,-0.178,-0.778,1.87,-1.14,1.06,0.9,0.31,-0.06
2022-01-28 14:3:03.3040,0.357,-0.184,-0.693,2.04,-1.09,0.25,0.84,0.33,-0.21
2022-01-28 14:3:03.3150,0.341,-0.179,-0.621,2.38,-1.15,-1.24,0.77,0.36,-0.34
2022-01-28 14:3:03.3250,0.33,-0.179,-0.559,2.38,-1.15,-1.24,0.77,0.36,-0.34
2022-01-28 14:3:03.3340,0.326,-0.182,-0.508,2.53,-1.19,-1.8,0.61,0.47,-0.52
2022-01-28 14:3:03.3450,0.327,-0.185,-0.471,2.63,-1.18,-2.28,0.61,0.47,-0.52
2022-01-28 14:3:03.3550,0.332,-0.201,-0.445,2.68,-1.16,-2.61,0.42,0.52,-0.54
2022-01-28 14:3:03.3640,0.342,-0.225,-0.428,2.69,-1.02,-2.84,0.33,0.52,-0.49
2022-01-28 14:3:03.3750,0.352,-0.241,-0.422,2.65,-0.78,-2.97,0.23,0.46,-0.45
2022-01-28 14:3:03.3850,0.366,-0.25,-0.43,2.51,-0.49,-2.92,0.12,0.35,-0.43
2022-01-28 14:3:03.3950,0.382,-0.269,-0.436,2.39,-0.3,-2.83,0.0,0.21,-0.44
2022-01-28 14:3:03.4050,0.397,-0.305,-0.443,2.39,-0.3,-2.83,-0.13,0.03,-0.46
2022-01-28 14:3:03.4150,0.405,-0.336,-0.454,2.25,0.08,-2.78,-0.27,-0.18,-0.51
2022-01-28 14:3:03.4250,0.419,-0.35,-0.464,2.17,0.44,-2.68,-0.27,-0.18,-0.51
2022-01-28 14:3:03.4350,0.432,-0.354,-0.456,2.03,0.66,-2.6,-0.59,-0.47,-0.66
2022-01-28 14:3:03.4450,0.44,-0.354,-0.465,1.78,0.89,-2.71,-0.79,-0.55,-0.69
2022-01-28 14:3:03.4550,0.442,-0.353,-0.483,1.78,0.89,-2.71,-1.03,-0.55,-0.65
2022-01-28 14:3:03.4650,0.437,-0.346,-0.508,1.73,0.99,-2.58,-1.27,-0.44,-0.53
2022-01-28 14:3:03.4750,0.421,-0.337,-0.532,1.88,1.08,-2.22,-1.45,-0.26,-0.38
2022-01-28 14:3:03.4850,0.403,-0.349,-0.574,1.88,1.08,-2.22,-1.49,-0.22,-0.29
2022-01-28 14:3:03.4950,0.398,-0.37,-0.667,2.05,1.32,-1.9,-1.37,-0.45,-0.29
2022-01-28 14:3:03.5050,0.39,-0.367,-0.766,2.12,1.77,-0.13,-1.16,-0.69,-0.34
2022-01-28 14:3:03.5160,0.374,-0.339,-0.779,2.12,1.77,-0.13,-0.86,-0.83,-0.43
2022-01-28 14:3:03.5250,0.311,-0.354,-0.774,2.21,1.59,0.02,-0.86,-0.83,-0.43
2022-01-28 14:3:03.5350,0.415,-0.306,-0.724,2.75,1.78,-0.08,-0.23,-0.62,-0.73
2022-01-28 14:3:03.5450,0.487,-0.282,-0.768,0.96,1.2,-0.41,-0.08,-0.65,-0.8
2022-01-28 14:3:03.5550,0.366,-0.298,-0.878,0.96,1.2,-0.41,0.05,-0.53,-0.66
2022-01-28 14:3:03.5650,0.407,-0.336,-0.76,2.05,1.34,0.82,0.14,-0.25,-0.61
2022-01-28 14:3:03.5750,0.451,-0.26,-0.775,1.82,1.84,-0.25,0.13,-0.1,-0.68
2022-01-28 14:3:03.5850,0.507,-0.238,-0.883,1.37,1.17,-0.33,0.07,-0.14,-0.77
2022-01-28 14:3:03.5950,0.513,-0.261,-0.944,0.79,0.89,0.69,0.02,-0.2,-0.83
2022-01-28 14:3:03.6050,0.542,-0.271,-0.972,0.69,1.15,1.38,-0.03,-0.21,-0.87
2022-01-28 14:3:03.6160,0.571,-0.277,-1.019,0.45,1.32,1.63,-0.03,-0.26,-0.86
2022-01-28 14:3:03.6250,0.584,-0.282,-1.08,-0.02,1.53,2.63,0.02,-0.33,-0.83
2022-01-28 14:3:03.6360,0.59,-0.292,-1.126,-0.12,1.66,3.09,0.12,-0.36,-0.79
2022-01-28 14:3:03.6460,0.581,-0.297,-1.139,-0.050252140760421754,1.75,3.22,0.25,-0.37,-0.76
2022-01-28 14:3:03.6560,0.581,-0.289,-1.165,-0.06,1.75,3.22,0.36,-0.4,-0.78
2022-01-28 14:3:03.6660,0.596,-0.28,-1.197,-0.06,1.7,3.43,0.46,-0.44,-0.82
2022-01-28 14:3:03.6760,0.618,-0.278,-1.221,-0.21,1.61,3.74,0.55,-0.22,-0.83
2022-01-28 14:3:03.6850,0.622,-0.29,-1.113,-0.43,1.61,3.98,0.63,0.19,-0.77
2022-01-28 14:3:03.6960,0.592,-0.291,-1.173,-0.17,1.74,3.4,0.67,0.4,-0.68
2022-01-28 14:3:03.7060,0.593,-0.252,-1.2,-0.13,1.35,3.91,0.74,0.56,-0.59
2022-01-28 14:3:03.7160,0.588,-0.226,-1.181,-0.13,1.35,3.91,0.86,0.62,-0.54
2022-01-28 14:3:03.7260,0.568,-0.199,-1.177,-0.03,1.03,3.73,0.86,0.62,-0.54
2022-01-28 14:3:03.7360,0.534,-0.16,-1.153,0.57,0.33,3.56,1.15,0.45,-0.64
2022-01-28 14:3:03.7460,0.505,-0.117,-1.144,0.57,0.33,3.56,1.15,0.45,-0.64
2022-01-28 14:3:03.7560,0.484,-0.082,-1.143,0.89,-0.15,3.49,1.35,-0.1,-1.03
2022-01-28 14:3:03.7660,0.47,-0.057,-1.146,1.12,-0.55,3.48,1.43,-0.45,-1.26
2022-01-28 14:3:03.7760,0.458,-0.036,-1.145,1.33,-1.08,3.49,1.5,-0.8,-1.48
2022-01-28 14:3:03.7860,0.443,-0.004,-1.142,1.33,-1.08,3.49,1.59,-1.08,-1.68
2022-01-28 14:3:03.7960,0.411,0.045,-1.11,1.65,-1.9,3.13,1.69,-1.16,-1.83
2022-01-28 14:3:03.8060,0.358,0.092,-1.044,2.09,-2.39,2.47,1.77,-1.01,-1.9
2022-01-28 14:3:03.8160,0.296,0.128,-0.975,2.09,-2.39,2.47,1.82,-0.71,-1.89
2022-01-28 14:3:03.8260,0.241,0.134,-0.911,2.66,-2.8,1.78,1.83,-0.35,-1.81
2022-01-28 14:3:03.8360,0.214,0.112,-0.866,3.22,-2.94,1.13,1.82,-0.05,-1.71
2022-01-28 14:3:03.8460,0.22,0.078,-0.828,3.54,-2.8,0.69,1.8,0.16,-1.62
2022-01-28 14:3:03.8560,0.242,0.046,-0.779,3.55,-2.52,0.37,1.79,0.27,-1.55
2022-01-28 14:3:03.8660,0.272,0.021,-0.739,3.15,-2.04,-0.42,1.79,0.3,-1.53
2022-01-28 14:3:03.8760,0.3,0.015,-0.701,2.92,-2.01,-0.74,1.8,0.26,-1.55
2022-01-28 14:3:03.8860,0.326,0.019,-0.666,2.71,-2.08,-1.05,1.78,0.19,-1.58
2022-01-28 14:3:03.8970,0.336,0.024,-0.636,2.71,-2.08,-1.05,1.73,0.12,-1.63
2022-01-28 14:3:03.9070,0.353,0.009,-0.597,2.63,-2.16,-1.3,1.64,0.06,-1.64
2022-01-28 14:3:03.9160,0.383,-0.038,-0.566,2.52,-2.09,-1.64,1.52,0.02,-1.63
2022-01-28 14:3:03.9270,0.421,-0.095,-0.545,1.93,-1.12,-2.12,1.39,-0.05,-1.59
2022-01-28 14:3:03.9360,0.461,-0.138,-0.54,1.93,-1.12,-2.12,1.39,-0.05,-1.59
2022-01-28 14:3:03.9470,0.502,-0.162,-0.534,1.57,-0.68,-2.16,1.14,-0.2,-1.52
2022-01-28 14:3:03.9570,0.536,-0.177,-0.545,1.19,-0.42,-2.21,1.05,-0.32,-1.48
2022-01-28 14:3:03.9660,0.555,-0.193,-0.57,0.85,-0.26,-2.13,1.05,-0.32,-1.48
2022-01-28 14:3:03.9770,0.55,-0.203,-0.582,0.63,-0.09,-1.89,0.94,-0.66,-1.4
2022-01-28 14:3:03.9870,0.544,-0.204,-0.596,0.64,0.04,-1.78,0.9,-0.84,-1.38
2022-01-28 14:3:03.9970,0.555,-0.216,-0.614,0.68,0.06,-1.69,0.88,-1.05,-1.4
2022-01-28 14:3:04.0070,0.578,-0.232,-0.655,0.25,0.37,-1.24,0.89,-1.27,-1.45
2022-01-28 14:3:04.0170,0.579,-0.225,-0.702,0.25,0.37,-1.24,0.92,-1.51,-1.54
2022-01-28 14:3:04.0260,0.592,-0.189,-0.734,-0.05,0.04,-0.52,1.02,-1.59,-1.62
2022-01-28 14:3:04.0360,0.586,-0.174,-0.707,-0.05,0.04,-0.52,1.17,-1.58,-1.66
2022-01-28 14:3:04.0470,0.548,-0.159,-0.738,-0.16,-0.13,-0.88,1.17,-1.58,-1.66
2022-01-28 14:3:04.0570,0.502,-0.089,-0.779,0.11,-0.27,-0.68,1.51,-1.68,-1.78
2022-01-28 14:3:04.0660,0.45,-0.03,-0.807,0.89,-1.63,-0.07,1.67,-1.71,-1.88
2022-01-28 14:3:04.0770,0.454,-0.095,-0.747,0.89,-1.63,-0.07,1.85,-1.64,-1.93
2022-01-28 14:3:04.0860,0.455,-0.171,-0.704,0.8,-1.11,-0.65,2.01,-1.52,-1.92
2022-01-28 14:3:04.0970,0.457,-0.244,-0.683,0.69,-0.42,-1.16,2.17,-1.38,-1.86
2022-01-28 14:3:04.1070,0.458,-0.315,-0.674,0.6,0.22,-1.41,2.32,-1.27,-1.74
2022-01-28 14:3:04.1170,0.464,-0.374,-0.683,0.51,0.83,-1.54,2.46,-1.21,-1.59
2022-01-28 14:3:04.1270,0.485,-0.42,-0.715,0.41,1.31,-1.49,2.57,-1.18,-1.43
2022-01-28 14:3:04.1370,0.497,-0.434,-0.738,0.15,1.65,-1.19,2.66,-1.13,-1.26
2022-01-28 14:3:04.1470,0.488,-0.432,-0.729,-0.03,1.48,-0.95,2.72,-1.03,-1.12
2022-01-28 14:3:04.1580,0.49,-0.438,-0.72,-0.08,1.37,-1.04,2.72,-0.95,-1.01
2022-01-28 14:3:04.1670,0.493,-0.443,-0.733,-0.08,1.37,-1.04,2.65,-0.95,-0.94
2022-01-28 14:3:04.1770,0.496,-0.444,-0.745,-0.17,1.26,-0.89,2.51,-1.03,-0.91
2022-01-28 14:3:04.1870,0.501,-0.45,-0.755,-0.25,1.11,-0.73,2.31,-1.12,-0.89
2022-01-28 14:3:04.1970,0.516,-0.476,-0.76,-0.35,1.0,-0.61,2.31,-1.12,-0.89
2022-01-28 14:3:04.2080,0.537,-0.525,-0.754,-0.55,1.09,-0.52,1.76,-1.09,-0.87
2022-01-28 14:3:04.2170,0.559,-0.569,-0.764,-0.81,1.46,-0.56,1.4,-1.01,-0.87
2022-01-28 14:3:04.2280,0.57,-0.591,-0.777,-1.08,1.82,-0.48,1.4,-1.01,-0.87
2022-01-28 14:3:04.2380,0.584,-0.598,-0.774,-1.23,2.01,-0.34,0.58,-0.65,-0.98
2022-01-28 14:3:04.2480,0.593,-0.595,-0.772,-1.48,2.1,-0.4,0.15,-0.37,-1.07
2022-01-28 14:3:04.2580,0.599,-0.589,-0.784,-1.48,2.1,-0.4,-0.26,-0.02,-1.15
2022-01-28 14:3:04.2680,0.605,-0.58,-0.81,-1.5,2.11,-0.09,-0.64,0.3,-1.2
2022-01-28 14:3:04.2780,0.632,-0.58,-0.866,-1.5,2.11,-0.09,-0.97,0.5,-1.21
2022-01-28 14:3:04.2880,0.667,-0.585,-0.928,-1.66,2.22,0.42,-1.25,0.51,-1.19
2022-01-28 14:3:04.2980,0.693,-0.563,-1.017,-1.91,2.43,0.99,-1.46,0.25,-1.14
2022-01-28 14:3:04.3080,0.695,-0.509,-1.118,-2.15,2.11,2.76,-1.61,-0.15,-1.08
2022-01-28 14:3:04.3180,0.674,-0.442,-1.193,-1.97,1.64,3.46,-1.67,-0.5,-1.0
2022-01-28 14:3:04.3280,0.632,-0.365,-1.231,-1.97,1.64,3.46,-1.65,-0.63,-0.91
2022-01-28 14:3:04.3380,0.573,-0.285,-1.239,-1.08,0.47,3.84,-1.54,-0.56,-0.81
2022-01-28 14:3:04.3480,0.515,-0.205,-1.25,-1.08,0.47,3.84,-1.35,-0.37,-0.69
2022-01-28 14:3:04.3580,0.463,-0.137,-1.24,-0.52,-0.17,3.88,-1.09,-0.11,-0.56
2022-01-28 14:3:04.3680,0.423,-0.088,-1.209,0.0,-0.74,3.8,-1.09,-0.11,-0.56
2022-01-28 14:3:04.3780,0.405,-0.065,-1.19,0.65,-1.35,3.28,-0.38,0.27,-0.28
2022-01-28 14:3:04.3880,0.401,-0.061,-1.167,0.65,-1.35,3.28,-0.38,0.27,-0.28
2022-01-28 14:3:04.3980,0.393,-0.067,-1.137,0.83,-1.36,2.81,0.39,0.31,-0.08
2022-01-28 14:3:04.4090,0.381,-0.078,-1.113,0.83,-1.36,2.81,0.75,0.19,-0.04
2022-01-28 14:3:04.4180,0.365,-0.087,-1.076,1.13,-1.29,2.28,1.06,0.03,-0.06
2022-01-28 14:3:04.4290,0.349,-0.09,-1.038,1.13,-1.29,2.28,1.29,-0.16,-0.12
2022-01-28 14:3:04.4380,0.34,-0.091,-1.011,1.36,-1.45,1.66,1.46,-0.37,-0.22
2022-01-28 14:3:04.4490,0.332,-0.1,-0.981,1.36,-1.45,1.66,1.54,-0.55,-0.33
2022-01-28 14:3:04.4580,0.331,-0.109,-0.944,1.4,-1.49,1.39,1.54,-0.67,-0.44
2022-01-28 14:3:04.4680,0.338,-0.113,-0.903,1.39,-1.49,1.03,1.48,-0.67,-0.54
2022-01-28 14:3:04.4780,0.327,-0.116,-0.851,1.31,-1.61,0.15,1.36,-0.55,-0.59
2022-01-28 14:3:04.4890,0.305,-0.117,-0.802,1.31,-1.61,0.15,1.21,-0.32,-0.61
2022-01-28 14:3:04.4980,0.289,-0.114,-0.752,1.51,-1.67,-0.31,1.04,-0.04,-0.61
2022-01-28 14:3:04.5080,0.288,-0.111,-0.715,1.7,-1.76,-0.77,0.86,0.2,-0.59
2022-01-28 14:3:04.5180,0.297,-0.119,-0.693,1.74,-1.84,-1.13,0.7,0.35,-0.55
2022-01-28 14:3:04.5290,0.315,-0.134,-0.682,1.71,-1.81,-1.32,0.55,0.38,-0.5
2022-01-28 14:3:04.5380,0.34,-0.148,-0.685,1.6,-1.69,-1.41,0.44,0.3,-0.46
2022-01-28 14:3:04.5490,0.375,-0.175,-0.683,1.09,-1.33,-1.34,0.38,0.19,-0.4
2022-01-28 14:3:04.5590,0.396,-0.211,-0.677,1.09,-1.33,-1.34,0.35,0.03,-0.33
2022-01-28 14:3:04.5690,0.391,-0.225,-0.701,0.86,-0.99,-1.4,0.33,-0.21,-0.29
2022-01-28 14:3:04.5790,0.376,-0.226,-0.72,0.89,-0.84,-1.21,0.34,-0.4,-0.29
2022-01-28 14:3:04.5890,0.354,-0.22,-0.709,1.18,-0.9,-1.1,0.36,-0.55,-0.34
2022-01-28 14:3:04.5990,0.332,-0.213,-0.714,1.18,-0.9,-1.1,0.39,-0.67,-0.41
2022-01-28 14:3:04.6090,0.311,-0.21,-0.716,1.36,-0.97,-1.09,0.41,-0.71,-0.49
2022-01-28 14:3:04.6190,0.299,-0.208,-0.714,1.53,-1.02,-1.08,0.42,-0.71,-0.57
2022-01-28 14:3:04.6290,0.288,-0.211,-0.713,1.62,-1.05,-1.11,0.44,-0.64,-0.64
2022-01-28 14:3:04.6390,0.279,-0.212,-0.706,1.69,-1.03,-1.14,0.47,-0.54,-0.7
2022-01-28 14:3:04.6490,0.278,-0.205,-0.703,1.76,-1.02,-1.23,0.51,-0.43,-0.75
2022-01-28 14:3:04.6590,0.285,-0.201,-0.702,1.76,-1.08,-1.25,0.55,-0.36,-0.78
2022-01-28 14:3:04.6690,0.299,-0.205,-0.707,1.56,-1.12,-1.22,0.57,-0.35,-0.8
2022-01-28 14:3:04.6790,0.311,-0.212,-0.714,1.56,-1.12,-1.22,0.6,-0.39,-0.8
2022-01-28 14:3:04.6890,0.326,-0.219,-0.715,1.28,-1.01,-1.14,0.62,-0.43,-0.81
2022-01-28 14:3:04.6990,0.331,-0.225,-0.707,1.28,-1.01,-1.14,0.63,-0.48,-0.83
2022-01-28 14:3:04.7090,0.333,-0.226,-0.698,1.2,-0.96,-1.21,0.65,-0.51,-0.87
2022-01-28 14:3:04.7190,0.333,-0.227,-0.685,1.17,-0.96,-1.29,0.65,-0.51,-0.87
2022-01-28 14:3:04.7290,0.332,-0.228,-0.664,1.16,-0.97,-1.42,0.68,-0.49,-0.93
2022-01-28 14:3:04.7390,0.336,-0.228,-0.642,1.12,-0.98,-1.83,0.69,-0.44,-0.97
2022-01-28 14:3:04.7490,0.347,-0.228,-0.613,1.12,-0.98,-1.83,0.7,-0.36,-1.0
2022-01-28 14:3:04.7600,0.356,-0.23,-0.578,1.01,-1.0,-2.1,0.72,-0.26,-1.02
2022-01-28 14:3:04.7690,0.367,-0.239,-0.548,0.93,-0.99,-2.43,0.74,-0.15,-1.03
2022-01-28 14:3:04.7790,0.383,-0.247,-0.516,0.73,-0.85,-3.0,0.76,-0.03,-1.04
2022-01-28 14:3:04.7900,0.403,-0.251,-0.486,0.57,-0.82,-3.28,0.77,0.06,-1.04
2022-01-28 14:3:04.7990,0.434,-0.261,-0.468,0.57,-0.82,-3.28,0.77,0.11,-1.02
2022-01-28 14:3:04.8100,0.475,-0.277,-0.452,0.33,-0.75,-3.45,0.77,0.12,-0.97
2022-01-28 14:3:04.8190,0.51,-0.292,-0.446,-0.35,-0.49,-3.62,0.75,0.07,-0.89
2022-01-28 14:3:04.8300,0.537,-0.301,-0.447,-0.35,-0.49,-3.62,0.75,0.07,-0.89
2022-01-28 14:3:04.8390,0.558,-0.31,-0.449,-0.6,-0.41,-3.59,0.7,-0.14,-0.71
2022-01-28 14:3:04.8500,0.572,-0.32,-0.455,-0.8,-0.34,-3.55,0.68,-0.29,-0.62
2022-01-28 14:3:04.8600,0.574,-0.326,-0.47,-0.99,-0.23,-3.35,0.65,-0.43,-0.54
2022-01-28 14:3:04.8700,0.567,-0.324,-0.487,-0.99,-0.23,-3.35,0.62,-0.54,-0.48
2022-01-28 14:3:04.8800,0.551,-0.32,-0.501,-0.96,-0.26,-3.17,0.57,-0.63,-0.41
2022-01-28 14:3:04.8900,0.53,-0.315,-0.532,-0.83,-0.32,-3.06,0.49,-0.72,-0.33
2022-01-28 14:3:04.9000,0.499,-0.313,-0.566,-0.69,-0.4,-2.78,0.49,-0.72,-0.33
2022-01-28 14:3:04.9100,0.47,-0.318,-0.602,-0.44,-0.45,-2.48,0.33,-0.8,-0.11
2022-01-28 14:3:04.9200,0.458,-0.338,-0.642,-0.21,-0.43,-2.15,0.28,-0.77,-0.02
2022-01-28 14:3:04.9300,0.47,-0.37,-0.71,-0.12,-0.28,-1.79,0.26,-0.75,-0.01
2022-01-28 14:3:04.9390,0.485,-0.395,-0.817,-0.49,0.25,-0.2,0.3,-0.76,-0.07
2022-01-28 14:3:04.9500,0.478,-0.41,-0.921,-0.49,0.25,-0.2,0.34,-0.78,-0.22
2022-01-28 14:3:04.9600,0.441,-0.4,-1.023,-0.24,0.33,1.79,0.36,-0.83,-0.45
2022-01-28 14:3:04.9700,0.4,-0.379,-1.126,-0.24,0.33,1.79,0.28,-0.93,-0.73
2022-01-28 14:3:04.9800,0.39,-0.38,-1.21,0.13,0.11,2.77,0.11,-1.04,-0.97
2022-01-28 14:3:04.9900,0.414,-0.416,-1.269,-0.03,0.47,4.16,-0.11,-1.12,-1.12
2022-01-28 14:3:05.0000,0.446,-0.462,-1.304,-0.4,1.01,4.48,-0.34,-1.08,-1.16
2022-01-28 14:3:05.0100,0.471,-0.479,-1.298,-0.4,1.01,4.48,-0.52,-0.8,-1.14
2022-01-28 14:3:05.0200,0.49,-0.479,-1.254,-0.88,1.4,3.98,-0.65,-0.38,-1.07
2022-01-28 14:3:05.0300,0.481,-0.479,-1.245,-0.83,1.5,3.76,-0.74,-0.12,-0.98
2022-01-28 14:3:05.0400,0.447,-0.465,-1.323,-0.83,1.5,3.76,-0.74,-0.12,-0.98
2022-01-28 14:3:05.0500,0.416,-0.43,-1.411,-0.49,1.5,4.42,-0.92,-0.53,-0.94
2022-01-28 14:3:05.0600,0.42,-0.419,-1.444,-0.18,1.28,5.26,-0.92,-0.53,-0.94
2022-01-28 14:3:05.0710,0.462,-0.44,-1.408,-0.65,1.57,5.26,-1.06,-1.09,-1.12
2022-01-28 14:3:05.0800,0.488,-0.44,-1.339,-1.01,1.76,4.54,-1.08,-1.08,-1.21
2022-01-28 14:3:05.0910,0.474,-0.411,-1.251,-1.01,1.76,4.54,-1.07,-0.89,-1.24
2022-01-28 14:3:05.1000,0.453,-0.392,-1.169,-0.97,1.63,3.63,-1.01,-0.63,-1.19
2022-01-28 14:3:05.1110,0.452,-0.39,-1.098,-0.77,1.55,2.76,-0.9,-0.37,-1.04
2022-01-28 14:3:05.1200,0.446,-0.385,-1.031,-0.73,1.71,1.33,-0.73,-0.15,-0.81
2022-01-28 14:3:05.1310,0.415,-0.37,-0.97,-0.45,1.65,0.71,-0.49,0.01,-0.54
2022-01-28 14:3:05.1410,0.365,-0.351,-0.907,0.04,1.49,0.09,-0.2,0.12,-0.27
2022-01-28 14:3:05.1510,0.325,-0.338,-0.852,0.48,1.36,-0.45,0.13,0.16,-0.01
2022-01-28 14:3:05.1610,0.296,-0.331,-0.809,0.77,1.24,-0.88,0.48,0.12,0.18
2022-01-28 14:3:05.1710,0.279,-0.327,-0.787,0.96,1.13,-1.11,0.86,-0.01,0.33
2022-01-28 14:3:05.1810,0.294,-0.324,-0.777,0.96,1.13,-1.11,1.22,-0.22,0.4
2022-01-28 14:3:05.1910,0.314,-0.322,-0.764,0.83,0.98,-1.19,1.56,-0.43,0.43
2022-01-28 14:3:05.2010,0.315,-0.315,-0.732,0.48,0.59,-1.55,1.85,-0.57,0.43
2022-01-28 14:3:05.2110,0.295,-0.296,-0.691,0.48,0.59,-1.55,2.06,-0.62,0.42
2022-01-28 14:3:05.2200,0.267,-0.272,-0.644,0.6,0.23,-1.92,2.18,-0.57,0.41
2022-01-28 14:3:05.2310,0.244,-0.25,-0.599,0.98,-0.63,-2.74,2.19,-0.47,0.4
2022-01-28 14:3:05.2410,0.223,-0.236,-0.558,1.14,-0.98,-3.09,2.11,-0.33,0.38
2022-01-28 14:3:05.2510,0.21,-0.231,-0.529,1.25,-1.22,-3.33,1.93,-0.19,0.35
2022-01-28 14:3:05.2610,0.207,-0.236,-0.507,1.25,-1.22,-3.33,1.67,-0.0,0.32
2022-01-28 14:3:05.2710,0.213,-0.245,-0.483,1.23,-1.39,-3.67,1.39,0.23,0.29
2022-01-28 14:3:05.2810,0.217,-0.256,-0.46,1.21,-1.38,-3.83,1.09,0.49,0.25
2022-01-28 14:3:05.2910,0.227,-0.26,-0.441,1.21,-1.38,-3.83,0.8,0.72,0.19
2022-01-28 14:3:05.3010,0.252,-0.258,-0.437,1.18,-1.41,-3.97,0.51,0.86,0.1
2022-01-28 14:3:05.3110,0.277,-0.258,-0.439,0.82,-1.51,-3.91,0.25,0.93,-0.01
2022-01-28 14:3:05.3210,0.296,-0.268,-0.434,0.82,-1.51,-3.91,0.01,0.95,-0.1
2022-01-28 14:3:05.3310,0.318,-0.294,-0.433,0.72,-1.43,-3.92,-0.2,0.9,-0.14
2022-01-28 14:3:05.3410,0.344,-0.327,-0.447,0.59,-1.18,-3.92,-0.34,0.79,-0.13
2022-01-28 14:3:05.3510,0.361,-0.355,-0.469,0.41,-0.83,-3.78,-0.43,0.63,-0.09
2022-01-28 14:3:05.3620,0.367,-0.366,-0.489,0.28,-0.5,-3.56,-0.46,0.46,-0.04
2022-01-28 14:3:05.3710,0.353,-0.36,-0.52,0.39,-0.34,-3.08,-0.44,0.29,-0.01
2022-01-28 14:3:05.3820,0.327,-0.356,-0.565,0.39,-0.34,-3.08,-0.4,0.16,0.02
2022-01-28 14:3:05.3920,0.312,-0.368,-0.61,0.66,-0.35,-2.65,-0.33,0.06,0.05
2022-01-28 14:3:05.4020,0.326,-0.397,-0.676,0.73,0.06,-1.63,-0.26,-0.06,0.06
2022-01-28 14:3:05.4120,0.366,-0.425,-0.754,0.73,0.06,-1.63,-0.19,-0.19,0.06
2022-01-28 14:3:05.4210,0.398,-0.448,-0.828,0.34,0.36,-0.88,-0.19,-0.19,0.06
2022-01-28 14:3:05.4320,0.433,-0.487,-0.905,-0.02,0.59,-0.17,-0.07,-0.31,0.1
2022-01-28 14:3:05.4420,0.465,-0.521,-0.972,-0.37,0.97,0.57,-0.01,-0.33,0.11
2022-01-28 14:3:05.4520,0.476,-0.534,-1.042,-0.74,1.31,1.22,-0.01,-0.33,0.11
2022-01-28 14:3:05.4620,0.474,-0.532,-1.089,-0.91,1.45,2.39,0.03,-0.31,0.09
2022-01-28 14:3:05.4720,0.466,-0.524,-1.132,-0.91,1.45,2.39,-0.05,-0.17,-0.09
2022-01-28 14:3:05.4820,0.462,-0.519,-1.187,-0.86,1.38,2.78,-0.2,-0.13,-0.23
2022-01-28 14:3:05.4920,0.484,-0.521,-1.232,-0.8,1.35,3.31,-0.36,-0.11,-0.36
2022-01-28 14:3:05.5020,0.532,-0.525,-1.263,-0.98,1.4,3.75,-0.5,-0.07,-0.46
2022-01-28 14:3:05.5120,0.584,-0.511,-1.271,-1.42,1.5,4.05,-0.59,0.0,-0.51
2022-01-28 14:3:05.5220,0.615,-0.468,-1.258,-1.92,1.47,4.14,-0.62,0.13,-0.52
2022-01-28 14:3:05.5320,0.625,-0.404,-1.24,-2.23,1.16,4.01,-0.62,0.13,-0.52
2022-01-28 14:3:05.5420,0.626,-0.354,-1.224,-2.28,0.15,3.66,-0.58,0.34,-0.43
2022-01-28 14:3:05.5520,0.626,-0.331,-1.204,-2.28,0.15,3.66,-0.54,0.37,-0.33
2022-01-28 14:3:05.5620,0.631,-0.32,-1.188,-2.24,-0.04,3.46,-0.52,0.3,-0.22
2022-01-28 14:3:05.5720,0.632,-0.312,-1.188,-2.25,-0.1,3.28,-0.49,0.12,-0.11
2022-01-28 14:3:05.5820,0.62,-0.305,-1.19,-2.25,-0.14,3.25,-0.48,-0.13,-0.02
2022-01-28 14:3:05.5930,0.603,-0.307,-1.183,-2.02,-0.12,3.18,-0.45,-0.4,0.07
2022-01-28 14:3:05.6030,0.591,-0.319,-1.163,-2.02,-0.12,3.18,-0.4,-0.64,0.14
2022-01-28 14:3:05.6130,0.584,-0.325,-1.133,-1.94,0.02,2.97,-0.32,-0.82,0.18
2022-01-28 14:3:05.6230,0.567,-0.32,-1.09,-1.94,0.12,2.64,-0.2,-0.88,0.22
2022-01-28 14:3:05.6330,0.524,-0.307,-1.029,-1.88,0.1,2.2,-0.05,-0.81,0.27
2022-01-28 14:3:05.6420,0.479,-0.288,-0.952,-1.56,-0.02,1.59,0.12,-0.6,0.33
2022-01-28 14:3:05.6520,0.449,-0.269,-0.864,-1.18,-0.22,0.83,0.3,-0.34,0.38
2022-01-28 14:3:05.6630,0.436,-0.254,-0.783,-0.91,-0.45,-0.03,0.46,-0.09,0.43
2022-01-28 14:3:05.6730,0.45,-0.244,-0.722,-0.79,-0.65,-0.84,0.58,0.08,0.47
2022-01-28 14:3:05.6830,0.482,-0.229,-0.68,-0.9,-0.81,-1.45,0.68,0.15,0.48
2022-01-28 14:3:05.6930,0.514,-0.198,-0.644,-1.2,-1.02,-1.85,0.76,0.17,0.46
2022-01-28 14:3:05.7030,0.537,-0.16,-0.604,-1.53,-1.38,-2.17,0.79,0.15,0.42
2022-01-28 14:3:05.7130,0.553,-0.131,-0.568,-1.94,-2.22,-2.86,0.78,0.12,0.4
2022-01-28 14:3:05.7230,0.558,-0.112,-0.542,-1.94,-2.22,-2.86,0.71,0.09,0.4
2022-01-28 14:3:05.7330,0.545,-0.1,-0.522,-1.91,-2.68,-3.28,0.57,0.07,0.42
2022-01-28 14:3:05.7430,0.521,-0.094,-0.51,-1.91,-2.68,-3.28,0.41,0.08,0.47
2022-01-28 14:3:05.7530,0.489,-0.091,-0.503,-1.7,-2.8,-3.38,0.23,0.13,0.54
2022-01-28 14:3:05.7630,0.45,-0.084,-0.499,-1.41,-2.87,-3.45,0.06,0.28,0.63
2022-01-28 14:3:05.7730,0.404,-0.079,-0.495,-1.04,-2.96,-3.48,-0.11,0.51,0.72
2022-01-28 14:3:05.7830,0.366,-0.092,-0.497,-0.58,-3.03,-3.5,-0.24,0.73,0.8
2022-01-28 14:3:05.7930,0.341,-0.119,-0.506,-0.16,-2.95,-3.48,-0.31,0.92,0.84
2022-01-28 14:3:05.8030,0.327,-0.138,-0.508,0.14,-2.69,-3.37,-0.32,1.04,0.83
2022-01-28 14:3:05.8130,0.312,-0.155,-0.509,0.34,-2.49,-3.32,-0.32,1.04,0.83
