time,gFx,gFy,gFz,ax,ay,az,wx,wy,wz
,0.132,-0.23,-0.704,0.59,-0.62,-1.3,0.39,-0.1,-0.09
2022-01-27 13:25:31.7250,0.116,-0.227,-0.709,0.78,-0.56,-2.23,0.28,0.02,-0.16
2022-01-27 13:25:31.7320,0.18,-0.283,-0.679,0.96,-0.76,-2.15,0.23,-0.05,-0.22
2022-01-27 13:25:31.7410,0.127,-0.255,-0.773,0.83,-0.51,-1.52,0.18,-0.27,-0.32
2022-01-27 13:25:31.7510,0.137,-0.198,-0.781,0.83,-0.51,-1.52,0.15,-0.37,-0.4
2022-01-27 13:25:31.7610,0.159,-0.208,-0.775,0.71,-1.07,-1.45,0.1791955828666687,-0.48,-0.39
2022-01-27 13:25:31.7710,0.155,-0.237,-0.808,0.46,-0.72,-1.19,0.27,-0.55,-0.33
2022-01-27 13:25:31.7820,0.149,-0.245,-0.804,0.47,-0.68,-1.23,0.42,-0.58,-0.27
2022-01-27 13:25:31.7920,0.147,-0.231,-0.792,0.47,-0.68,-1.23,0.58,-0.6,-0.25
2022-01-27 13:25:31.8020,0.149,-0.236,-0.792,0.45,-0.87,-1.34,0.7417633533477783,-0.62,-0.26
2022-01-27 13:25:31.8120,0.152,-0.255,-0.793,0.38,-0.89,-1.32,0.9,-0.64,-0.26
2022-01-27 13:25:31.8220,0.151,-0.274,-0.795,0.29,-0.79,-1.3,1.05,-0.66,-0.27
2022-01-27 13:25:31.8320,0.151,-0.283,-0.792,0.21,-0.7,-1.25,1.16,-0.65,-0.28
2022-01-27 13:25:31.8430,0.152,-0.285,-0.783,0.15,-0.79,-1.31,1.21,-0.66,-0.29
2022-01-27 13:25:31.8520,0.156,-0.29,-0.779,0.06,-0.83,-1.31,1.21,-0.66,-0.31
2022-01-27 13:25:31.8620,0.161,-0.306,-0.768,0.06,-0.83,-1.31,1.14,-0.66,-0.31
2022-01-27 13:25:31.8720,0.158,-0.332,-0.751,-0.04,-0.77,-1.39,1.03,-0.63,-0.29
2022-01-27 13:25:31.8820,0.16,-0.366,-0.735,-0.06,-0.61,-1.53,0.88,-0.57,-0.27
2022-01-27 13:25:31.8930,0.161,-0.398,-0.719,-0.11,-0.33,-1.67,0.72,-0.47,-0.26
2022-01-27 13:25:31.9030,0.155,-0.417,-0.704,-0.11,0.08,-1.94,0.54,-0.37,-0.25
2022-01-27 13:25:31.9130,0.148,-0.425,-0.703,-0.11,0.08,-1.94,0.35,-0.34,-0.25
2022-01-27 13:25:31.9220,0.153,-0.432,-0.724,-0.06,0.13,-1.94,0.18,-0.38,-0.24
2022-01-27 13:25:31.9330,0.155,-0.449,-0.749,-0.14,0.2,-1.74,0.09,-0.48,-0.23
2022-01-27 13:25:31.9420,0.148,-0.452,-0.777,-0.18,0.39,-1.22,0.08,-0.61,-0.22
2022-01-27 13:25:31.9530,0.131,-0.442,-0.796,-0.18,0.39,-1.22,0.17,-0.73,-0.23
2022-01-27 13:25:31.9630,0.116,-0.436,-0.803,-0.07,0.27,-1.04,0.32,-0.78,-0.26
2022-01-27 13:25:31.9730,0.104,-0.443,-0.794,0.09,0.2,-1.04,0.49,-0.71,-0.29
2022-01-27 13:25:31.9830,0.088,-0.462,-0.779,0.09,0.2,-1.04,0.66,-0.6,-0.31
2022-01-27 13:25:31.9930,0.065,-0.478,-0.78,0.21,0.34,-1.16,0.79,-0.53,-0.33
2022-01-27 13:25:32.0030,0.064,-0.494,-0.811,0.4,0.42,-1.13,0.87,-0.52,-0.37
2022-01-27 13:25:32.0130,0.067,-0.515,-0.819,0.33,0.63,-0.68,0.94,-0.51,-0.43
2022-01-27 13:25:32.0230,0.064,-0.528,-0.812,0.33,0.63,-0.68,0.94,-0.51,-0.43
2022-01-27 13:25:32.0330,0.064,-0.541,-0.807,0.34,0.68,-0.71,1.0,-0.5,-0.47
2022-01-27 13:25:32.0430,0.068,-0.56,-0.818,0.25,0.83,-0.57,0.99,-0.59,-0.55
2022-01-27 13:25:32.0530,0.07,-0.587,-0.84,0.19,1.03,-0.32,0.91,-0.68,-0.59
2022-01-27 13:25:32.0640,0.074,-0.622,-0.856,0.19,1.03,-0.32,0.81,-0.76,-0.65
2022-01-27 13:25:32.0730,0.073,-0.647,-0.872,0.12,1.32,-0.13,0.71,-0.81,-0.72
2022-01-27 13:25:32.0830,0.066,-0.655,-0.881,0.1,1.51,0.05,0.63,-0.8,-0.81
2022-01-27 13:25:32.0930,0.068,-0.65,-0.891,0.14,1.55,0.17,0.58,-0.72,-0.9
2022-01-27 13:25:32.1030,0.068,-0.648,-0.891,0.11,1.4,0.3,0.54,-0.61,-0.97
2022-01-27 13:25:32.1140,0.077,-0.661,-0.892,0.03,1.5,0.33,0.48,-0.51,-1.0
2022-01-27 13:25:32.1240,0.098,-0.683,-0.908,0.03,1.5,0.33,0.41,-0.41,-1.0
2022-01-27 13:25:32.1330,0.108,-0.701,-0.906,-0.23,1.85,0.5,0.34,-0.3,-0.96
2022-01-27 13:25:32.1440,0.119,-0.719,-0.904,-0.23,1.85,0.5,0.26,-0.22,-0.9
2022-01-27 13:25:32.1530,0.125,-0.737,-0.91,-0.31,2.02,0.49,0.17,-0.19,-0.85
2022-01-27 13:25:32.1630,0.115,-0.736,-0.936,-0.35,2.19,0.55,0.08,-0.23,-0.83
2022-01-27 13:25:32.1730,0.094,-0.716,-0.983,-0.23,2.19,1.2640551728010179,-0.02,-0.32,-0.84
2022-01-27 13:25:32.1840,0.075,-0.688,-1.032,0.19,1.75,1.72,-0.1,-0.41,-0.89
2022-01-27 13:25:32.1940,0.048,-0.659,-1.089,0.19,1.75,1.72,-0.17,-0.51,-0.96
2022-01-27 13:25:32.2030,0.019,-0.63,-1.152,0.45,1.49,2.27,-0.2,-0.64,-1.02
2022-01-27 13:25:32.2140,0.002,-0.606,-1.197,0.73,1.24,2.87,-0.19,-0.7,-1.06
2022-01-27 13:25:32.2240,-0.013,-0.58,-1.198,0.89,1.02,3.29,-0.12,-0.65,-1.06
2022-01-27 13:25:32.2340,-0.033,-0.556,-1.182,1.04,0.79,3.29,-0.03,-0.53,-1.02
2022-01-27 13:25:32.2440,-0.056,-0.524,-1.16,1.25,0.56,3.14,0.05,-0.39,-0.98
2022-01-27 13:25:32.2530,-0.068,-0.492,-1.131,1.49,0.26,2.92,0.1,-0.3,-0.95
2022-01-27 13:25:32.2640,-0.079,-0.478,-1.102,1.62,-0.06,2.64,0.13,-0.26,-0.91
2022-01-27 13:25:32.2740,-0.099,-0.468,-1.076,1.96,-0.3,2.1,0.13,-0.29,-0.88
2022-01-27 13:25:32.2840,-0.123,-0.447,-1.049,1.96,-0.3,2.1,0.13,-0.29,-0.88
2022-01-27 13:25:32.2940,-0.143,-0.428,-1.011,2.42,-0.69,1.46,0.14,-0.37,-0.88
2022-01-27 13:25:32.3040,-0.156,-0.41,-0.965,2.42,-0.69,1.46,0.19,-0.37,-0.88
2022-01-27 13:25:32.3140,-0.163,-0.39,-0.92,2.56,-0.87,1.02,0.26,-0.35,-0.9
2022-01-27 13:25:32.3240,-0.163,-0.37,-0.87,2.65,-1.08,0.59,0.34,-0.32,-0.92
2022-01-27 13:25:32.3340,-0.155,-0.36,-0.833,2.67,-1.3,0.11,0.4,-0.3,-0.94
2022-01-27 13:25:32.3440,-0.145,-0.358,-0.808,2.53376460313797,-1.461170659661293,-0.46,0.42,-0.34,-0.94
2022-01-27 13:25:32.3540,-0.143,-0.355,-0.79,2.53,-1.47,-0.46,0.44,-0.39,-0.93
2022-01-27 13:25:32.3640,-0.148,-0.356,-0.755,2.52,-1.52,-0.62,0.44,-0.42,-0.92
2022-01-27 13:25:32.3740,-0.141,-0.363,-0.725,2.57,-1.54,-0.95,0.43,-0.47,-0.91
2022-01-27 13:25:32.3840,-0.13,-0.372,-0.723,2.51,-1.49,-1.23,0.4,-0.58,-0.89
2022-01-27 13:25:32.3940,-0.118,-0.372,-0.721,2.39,-1.42,-1.23,0.36,-0.66,-0.91
2022-01-27 13:25:32.4040,-0.105,-0.371,-0.688,2.27,-1.44,-1.25,0.33,-0.71,-0.97
2022-01-27 13:25:32.4140,-0.079,-0.365,-0.678,1.86,-1.53,-1.66,0.31,-0.77,-1.06
2022-01-27 13:25:32.4250,-0.056,-0.364,-0.679,1.63,-1.55,-1.64,0.28,-0.83,-1.13
2022-01-27 13:25:32.4340,-0.042,-0.37,-0.663,1.63,-1.55,-1.64,0.26,-0.82,-1.17
2022-01-27 13:25:32.4440,-0.023,-0.374,-0.64,1.48,-1.5,-1.79,0.22,-0.77,-1.17
2022-01-27 13:25:32.4540,-0.007,-0.379,-0.628,1.3,-1.46,-2.02,0.17,-0.69,-1.14
2022-01-27 13:25:32.4640,0.013,-0.39,-0.617,1.15,-1.42,-2.14,0.17,-0.69,-1.14
2022-01-27 13:25:32.4740,0.035,-0.412,-0.614,0.75,-1.08,-2.28,0.06,-0.51,-1.05
2022-01-27 13:25:32.4840,0.054,-0.431,-0.611,0.75,-1.08,-2.28,-0.02,-0.45,-1.0
2022-01-27 13:25:32.4950,0.072,-0.433,-0.631,0.4186579363793135,-0.8213747549057008,-2.14,-0.12,-0.45,-0.97
2022-01-27 13:25:32.5050,0.097,-0.448,-0.65,0.18,-0.66,-1.96,-0.2,-0.46,-0.95
2022-01-27 13:25:32.5150,0.121,-0.469,-0.674,0.18,-0.66,-1.96,-0.27,-0.48,-0.94
2022-01-27 13:25:32.5250,0.134,-0.484,-0.695,-0.17,-0.22,-1.57,-0.32,-0.46,-0.92
2022-01-27 13:25:32.5350,0.142,-0.494,-0.703,-0.24,-0.08,-1.52,-0.38,-0.4,-0.92
2022-01-27 13:25:32.5440,0.148,-0.504,-0.709,-0.24,-0.08,-1.52,-0.42,-0.3,-0.9
2022-01-27 13:25:32.5550,0.159,-0.516,-0.719,-0.28,0.07,-1.48,-0.47,-0.17,-0.86
2022-01-27 13:25:32.5650,0.176,-0.526,-0.74,-0.36,0.24,-1.41,-0.5,-0.07,-0.8
2022-01-27 13:25:32.5750,0.194,-0.534,-0.77,-0.62,0.52,-0.96,-0.51,0.02,-0.72
2022-01-27 13:25:32.5850,0.216,-0.538,-0.794,-0.62,0.52,-0.96,-0.48,0.07,-0.61
2022-01-27 13:25:32.5950,0.244,-0.548,-0.827,-0.81,0.61,-0.74,-0.41,0.07,-0.5
2022-01-27 13:25:32.6050,0.28,-0.564,-0.864,-1.4,0.93,-0.09,-0.31,0.03,-0.41
2022-01-27 13:25:32.6150,0.307,-0.573,-0.891,-1.4,0.93,-0.09,-0.31,0.03,-0.41
2022-01-27 13:25:32.6250,0.321,-0.572,-0.906,-1.64,1.04,0.16,-0.11,-0.04,-0.31
2022-01-27 13:25:32.6350,0.327,-0.574,-0.918,-1.77,1.04,0.31,-0.11,-0.04,-0.31
2022-01-27 13:25:32.6450,0.324,-0.578,-0.923,-1.7771783132851124,1.13,0.47,-0.08,-0.03,-0.33
2022-01-27 13:25:32.6560,0.311,-0.574,-0.924,-1.78,1.13,0.47,-0.14,0.06,-0.33
2022-01-27 13:25:32.6650,0.302,-0.57,-0.91,-1.63,1.12,0.47,-0.22,0.18,-0.31
2022-01-27 13:25:32.6750,0.306,-0.567,-0.905,-1.51,1.11,0.26,-0.31,0.28,-0.26
2022-01-27 13:25:32.6850,0.314,-0.565,-0.922,-1.51,1.11,0.26,-0.4,0.31,-0.19
2022-01-27 13:25:32.6950,0.327,-0.557,-0.949,-1.55,1.13,0.41,-0.46,0.29,-0.12
2022-01-27 13:25:32.7050,0.34,-0.553,-0.953,-1.65,1.09,0.66,-0.48,0.26,-0.05
2022-01-27 13:25:32.7160,0.345,-0.55,-0.968,-1.81,1.11,0.8,-0.5,0.13,-0.0
2022-01-27 13:25:32.7250,0.339,-0.527,-1.011,-1.76,0.94,1.2,-0.51,-0.06,-0.0
2022-01-27 13:25:32.7350,0.32,-0.486,-1.045,-1.76,0.94,1.2,-0.52,-0.26,-0.02
2022-01-27 13:25:32.7450,0.299,-0.452,-1.057,-1.6,0.58,1.51,-0.52,-0.37,-0.03
2022-01-27 13:25:32.7550,0.284,-0.428,-1.053,-1.43,0.29,1.6,-0.49,-0.38,0.0
2022-01-27 13:25:32.7660,0.276,-0.403,-1.036,-1.31,0.1,1.54,-0.49,-0.38,0.0
2022-01-27 13:25:32.7750,0.273,-0.378,-1.008,-1.25,-0.11,1.34,-0.33,-0.05,0.2
2022-01-27 13:25:32.7850,0.272,-0.351,-0.989,-1.23,-0.33,1.06,-0.23,0.15,0.35
2022-01-27 13:25:32.7950,0.274,-0.328,-0.977,-1.22,-0.58,0.87,-0.14,0.28,0.49
2022-01-27 13:25:32.8050,0.28,-0.32,-0.975,-1.24,-0.81,0.75,-0.07,0.37,0.61
2022-01-27 13:25:32.8160,0.285,-0.323,-0.971,-1.29,-0.89,0.74,-0.03,0.38,0.7
2022-01-27 13:25:32.8250,0.284,-0.333,-0.979,-1.34,-0.87,0.7,-0.03,0.38,0.7
2022-01-27 13:25:32.8350,0.276,-0.34,-0.985,-1.33,-0.78,0.78,-0.0,0.23,0.78
2022-01-27 13:25:32.8470,0.261,-0.34,-0.981,-1.27,-0.73,0.84,0.02,0.12,0.8
2022-01-27 13:25:32.8560,0.244,-0.341,-0.98,-1.14,-0.74,0.81,0.05,0.0,0.81
2022-01-27 13:25:32.8660,0.226,-0.335,-0.984,-1.02,-0.75,0.8,0.07,-0.15,0.81
2022-01-27 13:25:32.8760,0.199,-0.322,-0.988,-0.89,-0.81,0.83,0.05,-0.31,0.78
2022-01-27 13:25:32.8860,0.166,-0.312,-0.984,-0.69,-0.95,0.87,0.05,-0.31,0.78
2022-01-27 13:25:32.8950,0.132,-0.307,-0.973,-0.44,-1.07,0.83,0.04,-0.45,0.75
2022-01-27 13:25:32.9060,0.106,-0.308,-0.959,-0.19,-1.12,0.71,0.04,-0.56,0.72
2022-01-27 13:25:32.9160,0.089,-0.305,-0.933,-0.02,-1.13,0.58,0.14,-0.55,0.62
2022-01-27 13:25:32.9260,0.07,-0.302,-0.898,0.09,-1.18,0.32,0.21,-0.43,0.57
2022-01-27 13:25:32.9360,0.051,-0.302,-0.852,0.22,-1.23,-0.02,0.21,-0.43,0.57
2022-01-27 13:25:32.9460,0.035,-0.303,-0.805,0.36,-1.26,-0.46,0.26,-0.27,0.54
2022-01-27 13:25:32.9560,0.02,-0.308,-0.76,0.49,-1.28,-0.91,0.3,0.08,0.52
2022-01-27 13:25:32.9660,0.005,-0.315,-0.726,0.63,-1.26,-1.34,0.28,0.21,0.5
2022-01-27 13:25:32.9760,-0.007,-0.319,-0.701,0.77,-1.22,-1.66,0.28,0.21,0.5
2022-01-27 13:25:32.9850,-0.017,-0.327,-0.684,0.91,-1.2,-1.9,0.23,0.34,0.4
2022-01-27 13:25:33.0040,-0.023,-0.332,-0.674,1.09,-1.11,-2.13,0.21,0.32,0.33
2022-01-27 13:25:33.0050,-0.022,-0.335,-0.673,1.09,-1.11,-2.14,0.21,0.24,0.25
2022-01-27 13:25:33.0150,-0.026,-0.336,-0.67,1.09,-1.11,-2.14,0.24,0.12,0.18
2022-01-27 13:25:33.0250,-0.033,-0.329,-0.662,1.18,-1.21,-2.22,0.3,-0.02,0.12
2022-01-27 13:25:33.0370,-0.038,-0.318,-0.657,1.18,-1.21,-2.22,0.38,-0.17,0.06
2022-01-27 13:25:33.0460,-0.041,-0.309,-0.649,1.2,-1.36,-2.25,0.48,-0.31,0.06
2022-01-27 13:25:33.0560,-0.041,-0.304,-0.638,1.2,-1.49,-2.31,0.59,-0.44,-0.05
2022-01-27 13:25:33.0670,-0.037,-0.299,-0.625,1.17,-1.59,-2.4,0.69,-0.55,-0.1
2022-01-27 13:25:33.0760,-0.031,-0.295,-0.609,1.09,-1.7,-2.49,0.77,-0.65,-0.16
2022-01-27 13:25:33.0870,-0.019,-0.299,-0.594,0.97,-1.81,-2.62,0.82,-0.75,-0.21
2022-01-27 13:25:33.0960,-0.006,-0.308,-0.595,0.79,-1.83,-2.73,0.85,-0.84,-0.26
2022-01-27 13:25:33.1060,-0.001,-0.309,-0.602,0.61,-1.82,-2.69,0.88,-0.93,-0.31
2022-01-27 13:25:33.1160,-0.001,-0.309,-0.606,0.4345702932402492,-1.95,-2.5,0.89,-0.99,-0.36
2022-01-27 13:25:33.1270,-0.01,-0.313,-0.608,0.43,-1.95,-2.5,0.89,-1.02,-0.4
2022-01-27 13:25:33.1370,-0.02,-0.313,-0.602,0.45,-1.98,-2.44,0.86,-1.0,-0.45
2022-01-27 13:25:33.1460,-0.025,-0.315,-0.593,0.49,-2.09,-2.52,0.79,-0.94,-0.51
2022-01-27 13:25:33.1560,-0.026,-0.327,-0.582,0.47,-2.02,-2.59,0.68,-0.83,-0.56
2022-01-27 13:25:33.1660,-0.023,-0.34,-0.569,0.47,-2.02,-2.59,0.54,-0.68,-0.62
2022-01-27 13:25:33.1770,-0.016,-0.354,-0.551,0.42,-1.93,-2.7,0.37,-0.5,-0.7
2022-01-27 13:25:33.1870,-0.003,-0.374,-0.551,0.36,-1.82,-2.86,0.37,-0.5,-0.7
2022-01-27 13:25:33.1970,0.009,-0.394,-0.559,0.25,-1.63,-2.86,-0.02,-0.08,-0.84
2022-01-27 13:25:33.2070,0.013,-0.413,-0.566,0.17,-1.42,-2.78,-0.2,0.16,-0.86
2022-01-27 13:25:33.2170,0.022,-0.436,-0.579,0.18,-0.95,-2.62,-0.35,0.34,-0.87
2022-01-27 13:25:33.2270,0.042,-0.456,-0.612,0.18,-0.95,-2.62,-0.47,0.4,-0.88
2022-01-27 13:25:33.2370,0.07,-0.474,-0.661,0.07,-0.7,-2.33,-0.53,0.36,-0.89
2022-01-27 13:25:33.2470,0.101,-0.504,-0.705,-0.13,-0.48,-1.87,-0.5,0.28,-0.87
2022-01-27 13:25:33.2570,0.131,-0.546,-0.74,-0.37,-0.14,-1.46,-0.39,0.17,-0.8
2022-01-27 13:25:33.2670,0.142,-0.565,-0.795,-0.62,0.31,-1.13,-0.18,0.09,-0.69
2022-01-27 13:25:33.2770,0.135,-0.561,-0.829,-0.68,0.51,-0.59,0.12,0.13,-0.52
2022-01-27 13:25:33.2870,0.127,-0.579,-0.857,-0.58,0.45,-0.25,0.46,0.23,-0.34
2022-01-27 13:25:33.2970,0.135,-0.607,-0.887,-0.46,0.58,0.06,0.72,0.31,-0.2
2022-01-27 13:25:33.3070,0.159,-0.631,-0.925,-0.51,0.8,0.39,0.87,0.29,-0.12
2022-01-27 13:25:33.3170,0.18,-0.66,-0.987,-0.71,0.96,0.81,0.87,0.12,-0.12
2022-01-27 13:25:33.3270,0.181,-0.659,-1.076,-0.92,1.18,1.46,0.69,-0.21,-0.2
2022-01-27 13:25:33.3370,0.167,-0.638,-1.138,-0.827533188611269,0.91,2.97,0.38,-0.49,-0.31
2022-01-27 13:25:33.3470,0.161,-0.651,-1.134,-0.83,0.91,2.97,0.01,-0.61,-0.4
2022-01-27 13:25:33.3570,0.162,-0.678,-1.115,-0.83,1.35,2.71,-0.32,-0.59,-0.44
2022-01-27 13:25:33.3680,0.161,-0.68,-1.1,-0.83,1.35,2.71,-0.59,-0.47,-0.46
2022-01-27 13:25:33.3770,0.156,-0.664,-1.084,-0.83,1.43,2.52,-0.82,-0.3,-0.45
2022-01-27 13:25:33.3880,0.149,-0.655,-1.088,-0.78,1.35,2.32,-1.03,-0.16,-0.39
2022-01-27 13:25:33.3980,0.14,-0.66,-1.11,-0.7,1.36,2.3,-1.2,-0.11,-0.32
2022-01-27 13:25:33.4070,0.13,-0.661,-1.146,-0.61,1.51,2.45,-1.29,-0.16,-0.27
2022-01-27 13:25:33.4170,0.121,-0.653,-1.176,-0.52,1.64,2.73,-1.27,-0.26,-0.22
2022-01-27 13:25:33.4270,0.108,-0.645,-1.178,-0.34718676164746287,1.69,2.94,-1.17,-0.36,-0.14
2022-01-27 13:25:33.4380,0.093,-0.643,-1.148,-0.35,1.69,2.94,-0.98,-0.42,-0.03
2022-01-27 13:25:33.4470,0.07,-0.636,-1.092,-0.24,1.75,2.59,-0.98,-0.42,-0.03
2022-01-27 13:25:33.4580,0.041,-0.615,-1.036,-0.06,1.73,2.01,-0.46,-0.41,0.28
2022-01-27 13:25:33.4670,0.004,-0.587,-0.972,0.18,1.56,1.45,-0.16,-0.29,0.44
2022-01-27 13:25:33.4770,-0.017,-0.577,-0.921,0.49,1.29,0.81,0.09,-0.17,0.56
2022-01-27 13:25:33.4870,-0.016,-0.585,-0.893,0.67,1.17,0.32,0.28,-0.09,0.61
2022-01-27 13:25:33.4980,0.008,-0.597,-0.867,0.62,1.22,0.05,0.28,-0.09,0.61
2022-01-27 13:25:33.5080,0.038,-0.607,-0.837,0.35,1.31,-0.18,0.43,-0.03,0.53
2022-01-27 13:25:33.5170,0.068,-0.613,-0.801,0.03,1.36,-0.46,0.39,-0.01,0.44
2022-01-27 13:25:33.5270,0.087,-0.603,-0.769,-0.48,1.27,-1.09,0.32,0.03,0.35
2022-01-27 13:25:33.5380,0.098,-0.579,-0.731,-0.48,1.27,-1.09,0.24,0.11,0.3
2022-01-27 13:25:33.5470,0.104,-0.552,-0.692,-0.64,0.74,-1.83,0.19,0.21,0.3
2022-01-27 13:25:33.5580,0.114,-0.529,-0.67,-0.72,0.5,-2.04,0.17,0.3,0.34
2022-01-27 13:25:33.5680,0.116,-0.511,-0.661,-0.72,0.5,-2.04,0.19,0.38,0.42
2022-01-27 13:25:33.5780,0.105,-0.496,-0.659,-0.61,0.12,-2.12,0.25,0.44,0.52
2022-01-27 13:25:33.5880,0.094,-0.477,-0.673,-0.61,0.12,-2.12,0.36,0.44,0.63
2022-01-27 13:25:33.5970,0.085,-0.458,-0.69,-0.41,-0.34,-1.77,0.51,0.42,0.72
2022-01-27 13:25:33.6070,0.083,-0.447,-0.705,-0.4,-0.51,-1.59,0.68,0.39,0.79
2022-01-27 13:25:33.6170,0.076,-0.443,-0.711,-0.4,-0.51,-1.59,0.85,0.39,0.84
2022-01-27 13:25:33.6270,0.072,-0.435,-0.714,-0.34,-0.63,-1.48,0.98,0.38,0.86
2022-01-27 13:25:33.6370,0.075,-0.43,-0.724,-0.31,-0.79,-1.4,0.98,0.38,0.86
2022-01-27 13:25:33.6470,0.075,-0.448,-0.716,-0.35,-0.93,-1.25,1.02,0.39,0.88
2022-01-27 13:25:33.6570,0.082,-0.484,-0.694,-0.36,-0.84,-1.27,1.01,0.49,0.92
2022-01-27 13:25:33.6680,0.084,-0.519,-0.732,-0.43,-0.55,-1.44,0.79,0.57,1.04
2022-01-27 13:25:33.6780,0.072,-0.54,-0.84,-0.46,-0.28,-1.02,0.68,0.42,1.07
2022-01-27 13:25:33.6890,0.042,-0.542,-0.952,-0.38,-0.13,0.07,0.62,0.15,1.05
2022-01-27 13:25:33.6990,-0.001,-0.54,-1.063,0.22,-0.23,2.32,0.62,0.15,1.05
2022-01-27 13:25:33.7070,-0.035,-0.53,-1.124,0.22,-0.23,2.32,0.61,-0.36,0.78
2022-01-27 13:25:33.7180,-0.055,-0.531,-1.125,0.48,-0.38,2.95,0.61,-0.36,0.78
2022-01-27 13:25:33.7290,-0.053,-0.56,-1.094,0.61,-0.42,3.0,0.63,-0.31,0.4
2022-01-27 13:25:33.7380,-0.042,-0.599,-1.045,0.56,-0.18,2.73,0.53,-0.13,0.27
2022-01-27 13:25:33.7480,-0.046,-0.618,-1.019,0.42,0.16,2.27,0.53,-0.13,0.27
2022-01-27 13:25:33.7590,-0.066,-0.593,-1.028,0.46,0.33,2.02,0.0,-0.09,-0.01
2022-01-27 13:25:33.7690,-0.077,-0.555,-1.047,0.65,0.1,2.1,-0.39,-0.2,-0.23
2022-01-27 13:25:33.7780,-0.071,-0.561,-1.028,0.76,-0.23,2.26,-0.39,-0.2,-0.23
2022-01-27 13:25:33.7890,-0.05,-0.571,-0.996,0.7,-0.1,2.02,-0.73,-0.26,-0.44
2022-01-27 13:25:33.7990,-0.013,-0.549,-0.976,0.52,0.07,1.66,-1.02,-0.23,-0.83
2022-01-27 13:25:33.8090,0.022,-0.515,-0.96,0.18,-0.06,1.4,-0.97,-0.15,-0.95
2022-01-27 13:25:33.8190,0.048,-0.49,-0.904,-0.11,-0.31,1.19,-0.87,-0.01,-0.98
2022-01-27 13:25:33.8290,0.063,-0.473,-0.838,-0.31,-0.48,0.6,-0.75,0.18,-0.87
2022-01-27 13:25:33.8390,0.079,-0.472,-0.772,-0.4,-0.59,-0.09,-0.64,0.37,-0.68
2022-01-27 13:25:33.8490,0.096,-0.481,-0.727,-0.49,-0.55,-0.76,-0.55,0.49,-0.42
2022-01-27 13:25:33.8590,0.111,-0.5,-0.706,-0.59,-0.41,-1.23,-0.45,0.49,-0.18
2022-01-27 13:25:33.8690,0.125,-0.52,-0.706,-0.82,0.02,-1.47,-0.31,0.32,0.0
2022-01-27 13:25:33.8790,0.131,-0.538,-0.716,-0.82,0.02,-1.47,-0.14,0.05,0.13
2022-01-27 13:25:33.8890,0.118,-0.544,-0.724,-0.9,0.21,-1.37,0.04,-0.3,0.18
2022-01-27 13:25:33.8990,0.084,-0.537,-0.726,-0.82,0.26,-1.29,0.24,-0.63,0.18
2022-01-27 13:25:33.9090,0.045,-0.532,-0.713,-0.55,0.17,-1.26,0.42,-0.92,0.15
2022-01-27 13:25:33.9190,0.008,-0.527,-0.698,0.0,-0.02,-1.49,0.55,-1.13,0.09
2022-01-27 13:25:33.9290,-0.026,-0.527,-0.683,0.0,-0.02,-1.49,0.62,-1.27,0.03
2022-01-27 13:25:33.9390,-0.058,-0.539,-0.671,0.23,-0.07,-1.61,0.64,-1.33,-0.04
2022-01-27 13:25:33.9490,-0.087,-0.554,-0.667,0.42,0.0,-1.69,0.63,-1.35,-0.12
2022-01-27 13:25:33.9590,-0.118,-0.559,-0.665,0.62,0.09,-1.69,0.6094404458999634,-1.28,-0.25
2022-01-27 13:25:33.9690,-0.149,-0.55,-0.653,0.83,0.1,-1.68,0.57,-1.14,-0.43
2022-01-27 13:25:33.9790,-0.178,-0.528,-0.647,1.33,-0.29,-1.8,0.49,-0.95,-0.65
2022-01-27 13:25:33.9890,-0.194,-0.504,-0.638,1.33,-0.29,-1.8,0.38,-0.74,-0.91
2022-01-27 13:25:33.9990,-0.193,-0.482,-0.631,1.52,-0.79,-1.91,0.27,-0.51,-1.17
2022-01-27 13:25:34.0100,-0.171,-0.466,-0.626,1.52,-0.79,-1.91,0.16,-0.32,-1.42
2022-01-27 13:25:34.0190,-0.125,-0.462,-0.641,1.36,-0.97,-1.96,0.1,-0.15,-1.6
2022-01-27 13:25:34.0290,-0.078,-0.469,-0.652,0.99,-1.02,-1.81,0.1,-0.15,-1.6
2022-01-27 13:25:34.0400,-0.044,-0.464,-0.673,0.4,-1.02,-1.48,0.13,0.1,-1.69
2022-01-27 13:25:34.0510,-0.022,-0.457,-0.703,0.29,-1.11,-1.17,0.21,0.2,-1.61
2022-01-27 13:25:34.0600,0.003,-0.469,-0.697,0.29,-1.11,-1.17,0.31,0.36,-1.5
2022-01-27 13:25:34.0700,0.041,-0.496,-0.678,0.16,-1.02,-1.21,0.31,0.36,-1.3685121536254883
2022-01-27 13:25:34.0800,0.084,-0.538,-0.673,-0.09,-0.78,-1.38,0.37,0.68,-1.27
2022-01-27 13:25:34.0900,0.119,-0.574,-0.703,-0.38,-0.38,-1.41,0.23,0.63,-1.21
2022-01-27 13:25:34.1000,0.129,-0.57,-0.774,-0.64,-0.05,-0.41,0.23,0.63,-1.21
2022-01-27 13:25:34.1100,0.111,-0.543,-0.885,-0.64,-0.05,-0.41,-0.47,-0.2,-1.25
2022-01-27 13:25:34.1200,0.084,-0.544,-0.973,-0.42,-0.25,0.63,-0.86,-0.68,-1.28
2022-01-27 13:25:34.1290,0.068,-0.569,-0.981,-0.14,-0.16,1.44,-1.12,-0.89,-1.3
2022-01-27 13:25:34.1400,0.063,-0.574,-0.967,0.056784796267747885,0.37,1.23,-1.29,-0.93,-1.32
2022-01-27 13:25:34.1500,0.06,-0.548,-1.003,0.05,0.37,1.23,-1.29,-0.93,-1.32
2022-01-27 13:25:34.1600,0.053,-0.506,-1.049,0.07,0.25,1.49,-1.6207689046859741,-0.96,-1.28
2022-01-27 13:25:34.1700,0.036,-0.459,-1.06,0.12,-0.01,1.85,-1.72,-0.86,-1.18
2022-01-27 13:25:34.1800,0.03,-0.441,-1.044,0.28,-0.31,1.87,-1.73,-0.63,-0.98
2022-01-27 13:25:34.1900,0.042,-0.462,-1.039,0.33,-0.34,1.63,-1.66,-0.38,-0.7
2022-01-27 13:25:34.2000,0.067,-0.481,-1.042,-0.02,0.33,1.46,-1.49,-0.14,-0.43
2022-01-27 13:25:34.2110,0.093,-0.488,-1.027,-0.02,0.33,1.46,-1.25,0.05,-0.19
2022-01-27 13:25:34.2200,0.09,-0.487,-1.008,-0.26,0.5,1.27,-1.0,0.2,0.04
2022-01-27 13:25:34.2300,0.073,-0.489,-0.975,-0.22,0.57,1.05,-0.79,0.29,0.26
2022-01-27 13:25:34.2400,0.058,-0.501,-0.952,-0.04,0.65,0.69,-0.6,0.32,0.43
2022-01-27 13:25:34.2500,0.056,-0.524,-0.942,0.11,0.82,0.44,-0.42,0.28,0.52
2022-01-27 13:25:34.2600,0.06,-0.546,-0.934,0.13,1.06,0.34,-0.22,0.21,0.54
2022-01-27 13:25:34.2700,0.068,-0.572,-0.919,0.0,1.54,0.11,0.01,0.11,0.51
2022-01-27 13:25:34.2800,0.069,-0.582,-0.903,0.0,1.54,0.11,0.24,0.03,0.45
2022-01-27 13:25:34.2900,0.064,-0.571,-0.862,0.01,1.45,-0.42,0.44,0.0,0.39
2022-01-27 13:25:34.3000,0.066,-0.562,-0.806,0.01,1.45,-0.42,0.58,0.06,0.34
2022-01-27 13:25:34.3100,0.084,-0.561,-0.749,-0.01,1.31,-0.94,0.65,0.22,0.3
2022-01-27 13:25:34.3210,0.107,-0.556,-0.702,-0.18,1.24,-1.47,0.63,0.43,0.28
2022-01-27 13:25:34.3300,0.139,-0.55,-0.677,-0.37,1.13,-1.91,0.59,0.67,0.25
2022-01-27 13:25:34.3410,0.164,-0.548,-0.665,-0.63,1.03,-2.12,0.52,0.88,0.24
2022-01-27 13:25:34.3500,0.189,-0.546,-0.679,-0.8,0.96,-2.21,0.52,0.88,0.24
2022-01-27 13:25:34.3610,0.218,-0.557,-0.709,-1.17,0.98,-1.73,0.37,1.06,0.26
2022-01-27 13:25:34.3700,0.231,-0.565,-0.741,-1.17,0.98,-1.73,0.34,0.99,0.29
2022-01-27 13:25:34.3800,0.233,-0.557,-0.779,-1.23,1.03,-1.38,0.35,0.84,0.31
2022-01-27 13:25:34.3900,0.235,-0.536,-0.812,-1.2,0.92,-0.99,0.37,0.59,0.33
2022-01-27 13:25:34.4010,0.232,-0.526,-0.848,-1.2,0.68,-0.64,0.38,0.27,0.35
2022-01-27 13:25:34.4110,0.231,-0.525,-0.876,-1.18,0.54,-0.27,0.41,-0.05,0.38
2022-01-27 13:25:34.4210,0.229,-0.523,-0.883,-1.2,0.5,0.02,0.43,-0.29,0.42
2022-01-27 13:25:34.4310,0.23,-0.518,-0.896,-1.23,0.44,0.11,0.42,-0.46,0.47
2022-01-27 13:25:34.4410,0.23,-0.516,-0.923,-1.3,0.35,0.24,0.42,-0.46,0.47
2022-01-27 13:25:34.4510,0.221,-0.505,-0.958,-1.38,0.3,0.52,0.29,-0.58,0.6
2022-01-27 13:25:34.4610,0.206,-0.489,-1.024,-1.37,0.16,0.87,0.22,-0.58,0.67
2022-01-27 13:25:34.4710,0.188,-0.491,-1.081,-1.31,-0.02,1.52,0.22,-0.47,0.71
2022-01-27 13:25:34.4810,0.172,-0.493,-1.114,-1.2,-0.02,2.08,0.23,-0.35,0.72
2022-01-27 13:25:34.4910,0.155,-0.489,-1.15,-1.11,-0.03,2.42,0.23,-0.23,0.71
2022-01-27 13:25:34.5010,0.134,-0.491,-1.152,-0.99,-0.09,2.78,0.23,-0.11,0.69
2022-01-27 13:25:34.5110,0.11,-0.479,-1.143,-0.82,-0.09,2.81,0.22,-0.01,0.66
2022-01-27 13:25:34.5210,0.087,-0.466,-1.115,-0.62,-0.22,2.73,0.25,0.07,0.64
2022-01-27 13:25:34.5310,0.073,-0.465,-1.078,-0.42,-0.37,2.48,0.28,0.11,0.61
2022-01-27 13:25:34.5410,0.076,-0.474,-1.05,-0.3,-0.42,2.12,0.27,0.09,0.56
2022-01-27 13:25:34.5520,0.079,-0.49,-1.029,-0.35,-0.34,1.86,0.2,-0.03,0.5
2022-01-27 13:25:34.5610,0.074,-0.507,-1.02,-0.41,-0.2,1.66,0.08,-0.22,0.42
2022-01-27 13:25:34.5710,0.062,-0.519,-1.017,-0.41,-0.05,1.57,0.08,-0.22,0.42
2022-01-27 13:25:34.5820,0.04,-0.518,-1.02,-0.35,0.09,1.54,-0.22,-0.74,0.18
2022-01-27 13:25:34.5920,0.017,-0.504,-1.014,-0.22,0.1,1.55,-0.22,-0.74,0.18
2022-01-27 13:25:34.6010,-0.001,-0.483,-1.002,-0.07,0.0,1.47,-0.42,-1.18,-0.14
2022-01-27 13:25:34.6110,-0.012,-0.461,-0.968,0.0,-0.17,1.33,-0.43,-1.3,-0.27
2022-01-27 13:25:34.6220,-0.015,-0.44,-0.919,0.02,-0.35,0.97,-0.4,-1.29,-0.36
2022-01-27 13:25:34.6320,-0.011,-0.413,-0.857,-0.05,-0.52,0.48,-0.35,-1.17,-0.38
2022-01-27 13:25:34.6410,-0.004,-0.392,-0.797,-0.16,-0.75,-0.15,-0.31,-0.96,-0.34
2022-01-27 13:25:34.6510,0.012,-0.384,-0.747,-0.48646645177155734,-0.99,-1.25,-0.29,-0.73,-0.26
2022-01-27 13:25:34.6620,0.035,-0.388,-0.705,-0.49,-0.99,-1.25,-0.27,-0.51,-0.15
2022-01-27 13:25:34.6720,0.055,-0.394,-0.676,-0.75,-0.93,-1.67,-0.25,-0.32,-0.06
2022-01-27 13:25:34.6820,0.069,-0.406,-0.654,-0.97,-0.84,-1.97,-0.23,-0.17,0.03
2022-01-27 13:25:34.6920,0.075,-0.422,-0.627,-1.12,-0.71,-2.2,-0.22,-0.03,0.1
2022-01-27 13:25:34.7020,0.078,-0.43,-0.605,-1.18,-0.53,-2.47,-0.21,0.08,0.17
2022-01-27 13:25:34.7120,0.074,-0.437,-0.592,-1.17,-0.35,-2.84,-0.19,0.14,0.22
2022-01-27 13:25:34.7220,0.069,-0.443,-0.585,-1.17,-0.35,-2.84,-0.18,0.15,0.28
2022-01-27 13:25:34.7320,0.066,-0.449,-0.592,-1.12,-0.27,-2.92,-0.16,0.09,0.33
2022-01-27 13:25:34.7420,0.058,-0.451,-0.613,-1.1,-0.19,-2.86,-0.13,-0.03,0.37
2022-01-27 13:25:34.7520,0.039,-0.451,-0.646,-0.91,-0.15,-2.33,-0.08,-0.18,0.41
2022-01-27 13:25:34.7620,0.015,-0.453,-0.678,-0.91,-0.15,-2.33,0.0,-0.34,0.41
2022-01-27 13:25:34.7720,-0.006,-0.45,-0.712,-0.72,-0.13,-2.02,0.1,-0.48,0.35
2022-01-27 13:25:34.7830,-0.026,-0.436,-0.743,-0.57,-0.17,-1.67,0.1,-0.48,0.35
2022-01-27 13:25:34.7920,-0.042,-0.413,-0.757,-0.44,-0.33,-1.36,0.28,-0.65,0.09
2022-01-27 13:25:34.8020,-0.046,-0.389,-0.758,-0.35,-0.57,-1.2,0.28,-0.63,-0.09
2022-01-27 13:25:34.8120,-0.042,-0.366,-0.757,-0.35,-0.83,-1.18,0.2,-0.57,-0.27
2022-01-27 13:25:34.8220,-0.033,-0.338,-0.761,-0.42,-1.07,-1.17,0.08,-0.47,-0.41
2022-01-27 13:25:34.8320,-0.019,-0.312,-0.767,-0.67,-1.59,-1.08,-0.07,-0.37,-0.54
2022-01-27 13:25:34.8430,-0.006,-0.284,-0.781,-0.67,-1.59,-1.08,-0.19,-0.25,-0.65
2022-01-27 13:25:34.8520,0.012,-0.263,-0.789,-0.78,-1.86,-0.95,-0.19,-0.25,-0.65
2022-01-27 13:25:34.8620,0.036,-0.268,-0.782,-1.08,-1.98,-0.96,-0.28,0.2,-0.85
2022-01-27 13:25:34.8730,0.064,-0.273,-0.785,-1.08,-1.98,-0.96,-0.28,0.2,-0.85
2022-01-27 13:25:34.8820,0.087,-0.285,-0.79,-1.26,-1.89,-0.97,-0.49,0.98,-0.89
2022-01-27 13:25:34.8920,0.092,-0.302,-0.796,-1.34,-1.73,-0.95,-0.49,0.98,-0.89
2022-01-27 13:25:34.9020,0.085,-0.316,-0.8,-1.2,-1.51,-0.93,-0.75,2.13,-0.7
2022-01-27 13:25:34.9130,0.094,-0.333,-0.822,-0.9,-1.3,-0.93,-0.84,2.62,-0.61
2022-01-27 13:25:34.9220,0.119,-0.364,-0.877,-0.72,-1.05,-0.75,-0.89,2.88,-0.59
2022-01-27 13:25:34.9320,0.136,-0.398,-0.938,-0.68,-0.66,-0.24,-0.89,2.88,-0.59
2022-01-27 13:25:34.9430,0.132,-0.394,-1.009,-0.58,-0.25,0.34,-0.95,2.5,-0.77
2022-01-27 13:25:34.9520,0.115,-0.384,-1.065,-0.31,-0.2,1.01,-0.95,2.5,-0.77
2022-01-27 13:25:34.9630,0.101,-0.385,-1.095,0.07,-0.18,1.54,-1.07,1.4,-1.06
2022-01-27 13:25:34.9730,0.102,-0.402,-1.111,0.35,-0.06,1.81,-1.16,0.78,-1.1
2022-01-27 13:25:34.9830,0.115,-0.436,-1.121,0.43,0.23,1.92,-1.19,0.2,-1.03
2022-01-27 13:25:34.9930,0.129,-0.464,-1.135,0.34,0.68,1.99,-1.16,-0.27,-0.91
2022-01-27 13:25:35.0030,0.136,-0.471,-1.146,0.2,1.07,2.08,-1.1,-0.63,-0.76
2022-01-27 13:25:35.0130,0.132,-0.479,-1.156,0.08,1.25,2.13,-1.06,-0.87,-0.59
2022-01-27 13:25:35.0230,0.113,-0.488,-1.163,0.05,1.43,2.18,-1.02,-1.01,-0.4
2022-01-27 13:25:35.0330,0.081,-0.486,-1.172,0.16,1.63,2.2,-1.02,-1.01,-0.4
2022-01-27 13:25:35.0440,0.046,-0.486,-1.173,0.38,1.7,2.25,-0.93,-1.01,-0.07
2022-01-27 13:25:35.0530,0.005,-0.496,-1.162,0.63,1.78,2.22,-0.93,-1.01,-0.07
2022-01-27 13:25:35.0630,-0.036,-0.499,-1.134,0.96,1.95,2.08,-0.72,-0.66,0.12
2022-01-27 13:25:35.0730,-0.074,-0.488,-1.1,1.64,2.0,1.42,-0.6,-0.41,0.13
2022-01-27 13:25:35.0830,-0.097,-0.475,-1.062,1.86,1.91,1.04,-0.51,-0.15,0.09
2022-01-27 13:25:35.0930,-0.104,-0.465,-1.019,1.86,1.91,1.04,-0.45,0.06,0.03
2022-01-27 13:25:35.1030,-0.088,-0.464,-0.977,1.94,1.85,0.61,-0.4,0.23,-0.02
2022-01-27 13:25:35.1130,-0.051,-0.477,-0.937,1.81,1.88,0.19,-0.34,0.33,-0.05
2022-01-27 13:25:35.1230,-0.009,-0.486,-0.893,1.11,2.15,-0.64,-0.24,0.4,-0.06
2022-01-27 13:25:35.1330,0.03,-0.485,-0.838,1.11,2.15,-0.64,-0.11,0.47,-0.05
2022-01-27 13:25:35.1440,0.061,-0.472,-0.789,0.78,2.15,-1.18,-0.11,0.47,-0.05
2022-01-27 13:25:35.1540,0.091,-0.46,-0.749,0.52,2.02,-1.65,0.12,0.51,0.03
2022-01-27 13:25:35.1630,0.121,-0.449,-0.726,0.27,1.89,-2.04,0.12,0.51,0.03
2022-01-27 13:25:35.1730,0.148,-0.437,-0.718,0.01,1.76,-2.25,0.19,0.37,0.14
2022-01-27 13:25:35.1830,0.169,-0.432,-0.723,-0.43,1.56,-2.28,0.15,0.2,0.21
2022-01-27 13:25:35.1940,0.182,-0.427,-0.762,-0.43,1.56,-2.28,0.11,-0.07,0.27
2022-01-27 13:25:35.2040,0.182,-0.408,-0.819,-0.58,1.5,-1.89,0.12,-0.36,0.32
2022-01-27 13:25:35.2130,0.173,-0.388,-0.858,-0.63,1.3,-1.33,0.21,-0.59,0.37
2022-01-27 13:25:35.2230,0.167,-0.378,-0.895,-0.62,1.08,-0.94,0.21,-0.59,0.37
2022-01-27 13:25:35.2340,0.159,-0.358,-0.926,-0.64,0.93,-0.58,0.37,-0.76,0.41
2022-01-27 13:25:35.2440,0.158,-0.338,-0.935,-0.65,0.67,-0.26,0.73,-0.7,0.47
2022-01-27 13:25:35.2540,0.158,-0.334,-0.963,-0.71,0.4,-0.16,0.81,-0.57,0.55
2022-01-27 13:25:35.2640,0.169,-0.336,-1.013,-0.78,0.29,0.13,0.8,-0.5,0.61
2022-01-27 13:25:35.2730,0.192,-0.324,-1.071,-0.95,0.23,0.64,0.69,-0.51,0.61
2022-01-27 13:25:35.2830,0.197,-0.296,-1.126,-1.25,0.06,1.22,0.5,-0.55,0.56
2022-01-27 13:25:35.2940,0.174,-0.267,-1.171,-1.2,-0.57,2.22,0.27,-0.57,0.48
2022-01-27 13:25:35.3040,0.132,-0.246,-1.204,-1.2,-0.57,2.22,0.05,-0.55,0.36
2022-01-27 13:25:35.3140,0.094,-0.222,-1.234,-0.86,-0.77,2.54,-0.09,-0.48,0.2
2022-01-27 13:25:35.3240,0.079,-0.205,-1.25,-0.53,-1.0,2.82,-0.15,-0.37,0.04
2022-01-27 13:25:35.3340,0.08,-0.204,-1.258,-0.41,-1.14,2.97,-0.16,-0.29,-0.1
2022-01-27 13:25:35.3440,0.084,-0.203,-1.266,-0.44,-1.14,3.04,-0.16,-0.24,-0.19
2022-01-27 13:25:35.3540,0.083,-0.194,-1.253,-0.5,-1.2,2.98,-0.16,-0.2,-0.25
2022-01-27 13:25:35.3640,0.08,-0.187,-1.231,-0.5,-1.2,2.98,-0.18,-0.15,-0.29
2022-01-27 13:25:35.3740,0.082,-0.187,-1.202,-0.47,-1.25,2.77,-0.21,-0.11,-0.3
2022-01-27 13:25:35.3840,0.083,-0.193,-1.168,-0.49,-1.22,2.47,-0.21,-0.11,-0.3
2022-01-27 13:25:35.3940,0.083,-0.195,-1.128,-0.49,-1.15,2.13,-0.18,-0.05,-0.31
2022-01-27 13:25:35.4040,0.084,-0.194,-1.085,-0.49,-1.11,1.73,-0.12,-0.04,-0.33
2022-01-27 13:25:35.4140,0.092,-0.196,-1.025,-0.49,-1.11,1.31,-0.06,0.0,-0.34
2022-01-27 13:25:35.4250,0.103,-0.207,-0.955,-0.56,-1.08,0.72,0.01,0.07,-0.33
2022-01-27 13:25:35.4340,0.113,-0.219,-0.883,-0.64,-0.97,0.03,0.07,0.15,-0.28
2022-01-27 13:25:35.4440,0.121,-0.229,-0.816,-0.72,-0.86,-0.67,0.12,0.21,-0.21
2022-01-27 13:25:35.4540,0.13,-0.241,-0.759,-0.78,-0.78,-1.33,0.17,0.26,-0.13
2022-01-27 13:25:35.4650,0.133,-0.254,-0.715,-0.83,-0.67,-1.88,0.21,0.26,-0.04
2022-01-27 13:25:35.4740,0.136,-0.264,-0.68,-0.84,-0.56,-2.31,0.25,0.24,0.03
2022-01-27 13:25:35.4840,0.135,-0.277,-0.648,-0.85,-0.49,-2.64,0.29,0.21,0.09
2022-01-27 13:25:35.4940,0.129,-0.291,-0.625,-0.83,-0.39,-2.94,0.32,0.17,0.13
2022-01-27 13:25:35.5040,0.121,-0.297,-0.616,-0.75,-0.28,-3.15,0.35,0.11,0.14
2022-01-27 13:25:35.5150,0.11,-0.298,-0.615,-0.67,-0.25,-3.23,0.38,0.03,0.12
2022-01-27 13:25:35.5250,0.097,-0.295,-0.617,-0.57,-0.28,-3.24,0.38,0.03,0.12
2022-01-27 13:25:35.5340,0.086,-0.293,-0.624,-0.36,-0.4,-3.12,0.4,-0.06,0.08
2022-01-27 13:25:35.5430,0.07,-0.291,-0.632,-0.23,-0.46,-3.03,0.42,-0.23,-0.01
2022-01-27 13:25:35.5540,0.057,-0.286,-0.642,-0.13,-0.54,-2.92,0.42,-0.23,-0.01
2022-01-27 13:25:35.5740,0.046,-0.287,-0.66,-0.05,-0.57,-2.73,0.38,-0.33,-0.12
2022-01-27 13:25:35.5850,0.034,-0.288,-0.682,0.04,-0.59,-2.51,0.35,-0.36,-0.19
2022-01-27 13:25:35.5860,0.016,-0.288,-0.712,0.04,-0.59,-2.51,0.32,-0.37,-0.27
Time,-0.003,-0.285,-0.744,0.36,-0.67,-1.88,0.31,-0.38,-0.39
2022-01-27 13:25:35.6030,-0.016,-0.273,-0.785,0.36,-0.67,-1.88,0.29,-0.41,-0.54
2022-01-27 13:25:35.6130,-0.018,-0.261,-0.834,0.47,-0.81,-1.47,0.27,-0.44,-0.72
2022-01-27 13:25:35.6250,-0.007,-0.264,-0.872,0.48,-0.94,-0.98,0.26,-0.39,-0.9
2022-01-27 13:25:35.6340,0.021,-0.284,-0.892,0.38,-0.94,-0.6,0.27,-0.24,-1.03
2022-01-27 13:25:35.6450,0.053,-0.314,-0.92,0.12,-0.75,-0.4,0.28,-0.02,-1.1
2022-01-27 13:25:35.6550,0.083,-0.331,-0.95,-0.37,-0.33,0.19,0.29,0.27,-1.1
2022-01-27 13:25:35.6650,0.108,-0.351,-0.966,-0.37,-0.33,0.19,0.28,0.59,-1.04
2022-01-27 13:25:35.6750,0.135,-0.372,-1.001,-0.51,-0.16,0.36,0.23,0.84,-0.95
2022-01-27 13:25:35.6850,0.161,-0.398,-1.035,-0.66,0.03,0.72,0.23,0.84,-0.8530381917953491
2022-01-27 13:25:35.6950,0.188,-0.432,-1.063,-0.79,0.29,1.06,0.01,1.13,-0.75
2022-01-27 13:25:35.7050,0.192,-0.464,-1.113,-0.85,0.98,1.83,0.01,1.13,-0.75
2022-01-27 13:25:35.7140,0.167,-0.472,-1.178,-0.85,0.98,1.83,-0.33,0.88,-0.67
2022-01-27 13:25:35.7240,0.121,-0.436,-1.253,-0.5,1.1,2.47,-0.48,0.55,-0.75
2022-01-27 13:25:35.7330,0.075,-0.401,-1.307,0.01,0.8,3.18,-0.48,0.55,-0.75
Time,0.038,-0.404,-1.337,0.5,0.53,3.69,-0.62,-0.08,-0.87
2022-01-27 13:25:35.7450,0.028,-0.414,-1.328,0.88,0.63,3.97,-0.52,-0.21,-0.85
2022-01-27 13:25:35.7550,0.048,-0.432,-1.282,0.98,0.77,3.86,-0.32,-0.21,-0.74
2022-01-27 13:25:35.7650,0.074,-0.451,-1.229,0.79,0.98,3.41,-0.1,-0.1,-0.55
2022-01-27 13:25:35.7750,0.093,-0.47,-1.16,0.55,1.18,2.88,0.05,0.07,-0.31
2022-01-27 13:25:35.7850,0.113,-0.486,-1.111,0.38,1.37,2.21,0.07,0.13,-0.08
2022-01-27 13:25:35.8030,0.129,-0.5,-1.099,0.2,1.52,1.73,-0.04,0.08,0.1
2022-01-27 13:25:35.8140,0.125,-0.499,-1.088,0.04,1.66,1.61,-0.2,-0.06,0.19
2022-01-27 13:25:35.8160,0.107,-0.478,-1.093,0.05,1.68,1.49,-0.2,-0.06,0.19
2022-01-27 13:25:35.8250,0.091,-0.479,-1.083,0.2,1.5,1.52,-0.34,-0.35,0.18
2022-01-27 13:25:35.8350,0.076,-0.494,-1.06,0.32,1.54,1.41,-0.21,-0.4,0.16
2022-01-27 13:25:35.8460,0.06,-0.48,-1.034,0.42,1.7,1.18,0.01,-0.39,0.14
2022-01-27 13:25:35.8550,0.054,-0.459,-0.991,0.54,1.56,0.91,0.26,-0.31,0.14
2022-01-27 13:25:35.8650,0.052,-0.456,-0.922,0.57,1.31,0.51,0.49,-0.19,0.18
2022-01-27 13:25:35.8750,0.054,-0.458,-0.862,0.57,1.24,-0.16,0.66,-0.11,0.25
2022-01-27 13:25:35.8940,0.065,-0.463,-0.818,0.53,1.19,-0.73,0.75,-0.1,0.3
2022-01-27 13:25:35.9040,0.077,-0.473,-0.785,0.4,1.16,-1.13,0.79,-0.14,0.33
2022-01-27 13:25:35.9140,0.09,-0.481,-0.765,0.25,1.19,-1.43,0.79,-0.22,0.32
2022-01-27 13:25:35.9150,0.1,-0.49,-0.763,0.1,1.19,-1.61,0.8,-0.35,0.27
2022-01-27 13:25:35.9260,0.112,-0.492,-0.775,-0.04,1.21,-1.59,0.86,-0.46,0.2
2022-01-27 13:25:35.9350,0.115,-0.482,-0.778,-0.21,1.14,-1.45,0.97,-0.51,0.15
2022-01-27 13:25:35.9460,0.109,-0.465,-0.762,-0.29,0.95,-1.39,1.11,-0.5,0.12
2022-01-27 13:25:35.9560,0.108,-0.445,-0.747,-0.29,0.68,-1.51,1.26,-0.45,0.12
2022-01-27 13:25:35.9660,0.107,-0.42,-0.729,-0.32,0.37,-1.6,1.37,-0.39,0.13
2022-01-27 13:25:35.9840,0.105,-0.399,-0.711,-0.35,-0.01,-1.73,1.42,-0.31,0.13
2022-01-27 13:25:35.9940,0.098,-0.385,-0.709,-0.36,-0.34,-1.85,1.4,-0.23,0.14
Time,0.093,-0.389,-0.71,-0.32,-0.6,-1.81,1.33,-0.18,0.15
2022-01-27 13:25:36.0060,0.088,-0.398,-0.728,-0.29,-0.67,-1.74,1.23,-0.16,0.11
2022-01-27 13:25:36.0160,0.087,-0.403,-0.75,-0.25,-0.69,-1.51,1.13,-0.18,0.02
2022-01-27 13:25:36.0260,0.098,-0.414,-0.784,-0.27,-0.73,-1.25,1.05,-0.29,-0.1
2022-01-27 13:25:36.0360,0.103,-0.411,-0.833,-0.4,-0.7,-0.88,0.98,-0.43,-0.22
2022-01-27 13:25:36.0460,0.1,-0.393,-0.856,-0.47,-0.81,-0.35,0.91,-0.51,-0.3
2022-01-27 13:25:36.0640,0.097,-0.384,-0.866,-0.47,-1.06,-0.09,0.8,-0.52,-0.33
2022-01-27 13:25:36.0740,0.105,-0.391,-0.883,-0.47,-1.21,0.04,0.67,-0.48,-0.33
2022-01-27 13:25:36.0840,0.124,-0.4,-0.9,-0.57,-1.19,0.24,0.53,-0.38,-0.3
2022-01-27 13:25:36.0940,0.134,-0.401,-0.911,-0.77,-1.14,0.43,0.4,-0.21,-0.26
2022-01-27 13:25:36.1040,0.138,-0.412,-0.937,-0.86,-1.16,0.55,0.26,-0.03,-0.21
2022-01-27 13:25:36.1140,0.14,-0.424,-0.972,-0.9,-1.07,0.82,0.17,0.16,-0.15
2022-01-27 13:25:36.1150,0.136,-0.429,-1.0,-0.89,-0.96,1.17,0.11,0.31,-0.11
2022-01-27 13:25:36.1260,0.125,-0.429,-1.041,-0.82,-0.92,1.45,0.09,0.37,-0.08
2022-01-27 13:25:36.1360,0.111,-0.428,-1.07,-0.67,-0.92,1.86,0.09,0.37,-0.08
2022-01-27 13:25:36.1540,0.092,-0.427,-1.072,-0.5,-0.93,2.15,0.11,0.37,-0.1
2022-01-27 13:25:36.1560,0.081,-0.433,-1.063,-0.28,-0.95,2.18,0.14,0.32,-0.1
2022-01-27 13:25:36.1670,0.083,-0.448,-1.045,-0.14,-0.9,2.1,0.17,0.25,-0.12
2022-01-27 13:25:36.1770,0.086,-0.464,-1.021,-0.13,-0.77,1.94,0.17,0.16,-0.14
Time,0.083,-0.471,-0.996,-0.15,-0.63,1.71,0.14,0.07,-0.2
2022-01-27 13:25:36.1960,0.075,-0.467,-0.973,-0.1,-0.56,1.47,0.05,-0.03,-0.27
2022-01-27 13:25:36.2060,0.071,-0.461,-0.952,-0.02,-0.6,1.24,-0.07,-0.13,-0.36
2022-01-27 13:25:36.2170,0.074,-0.461,-0.926,0.04,-0.64,1.02,-0.18,-0.16,-0.43
2022-01-27 13:25:36.2270,0.076,-0.464,-0.89,0.01,-0.62,0.76,-0.22,-0.11,-0.47
2022-01-27 13:25:36.2370,0.078,-0.459,-0.846,0.02,-0.57,0.39,-0.2,0.07,-0.49
2022-01-27 13:25:36.2470,0.086,-0.456,-0.793,0.04,-0.6,-0.05,-0.14,0.28,-0.47
2022-01-27 13:25:36.2570,0.098,-0.45,-0.75,0.01,-0.61,-0.57,-0.06,0.47,-0.45
2022-01-27 13:25:36.2670,0.114,-0.436,-0.706,-0.05,-0.66,-0.99,-0.06,0.47,-0.45
Time,0.131,-0.42,-0.662,-0.13,-0.8,-1.41,0.09,0.73,-0.37
2022-01-27 13:25:36.2860,0.149,-0.42,-0.614,-0.21,-0.96,-1.83,0.13,0.8,-0.3
2022-01-27 13:25:36.3050,0.167,-0.424,-0.576,-0.3,-0.97,-2.29,0.14,0.81,-0.24
2022-01-27 13:25:36.3170,0.18,-0.425,-0.545,-0.41,-0.93,-2.64,0.14,0.81,-0.24
2022-01-27 13:25:36.3270,0.18,-0.424,-0.524,-0.47,-0.94,-2.93,0.11,0.67,-0.12
2022-01-27 13:25:36.3370,0.178,-0.413,-0.515,-0.41,-0.95,-3.13,0.1,0.53,-0.07
2022-01-27 13:25:36.3470,0.175,-0.403,-0.507,-0.35,-1.07,-3.21,0.1,0.37,-0.02
2022-01-27 13:25:36.3570,0.164,-0.389,-0.515,-0.3,-1.17,-3.28,0.02,0.16,-0.01
2022-01-27 13:25:36.3670,0.159,-0.375,-0.538,-0.18,-1.31,-3.2,0.02,0.16,-0.01
2022-01-27 13:25:36.3770,0.161,-0.372,-0.549,-0.14,-1.43,-2.98,-0.16,-0.22,-0.06
2022-01-27 13:25:36.3870,0.168,-0.386,-0.582,-0.18,-1.44,-2.89,-0.27,-0.43,-0.12
2022-01-27 13:25:36.3960,0.16,-0.394,-0.648,-0.28,-1.27,-2.59,-0.34,-0.6,-0.22
2022-01-27 13:25:36.4070,0.13,-0.379,-0.693,-0.24,-1.16,-1.97,-0.39,-0.68,-0.35
2022-01-27 13:25:36.4170,0.084,-0.359,-0.733,0.44,-1.42,-1.19,-0.41,-0.63,-0.48
2022-01-27 13:25:36.4270,0.051,-0.349,-0.777,0.76,-1.48,-0.79,-0.42,-0.48,-0.58
2022-01-27 13:25:36.4380,0.047,-0.35,-0.814,0.76,-1.48,-0.79,-0.41,-0.28,-0.67
2022-01-27 13:25:36.4470,0.066,-0.362,-0.857,0.82,-1.42,-0.45,-0.41,-0.06,-0.76
2022-01-27 13:25:36.4570,0.11,-0.397,-0.879,0.67,-1.25,-0.05,-0.41,-0.06,-0.8405902981758118
2022-01-27 13:25:36.4670,0.156,-0.462,-0.887,-0.03,-0.18,0.22,-0.38,0.55,-0.89
2022-01-27 13:25:36.4780,0.172,-0.5,-0.901,-0.03,-0.18,0.22,-0.39,0.86,-0.91
2022-01-27 13:25:36.4870,0.17,-0.498,-0.922,-0.07,0.24,0.35,-0.49,1.1,-0.94
2022-01-27 13:25:36.4980,0.171,-0.507,-0.957,0.1,0.29,0.56,-0.61,1.26,-0.98
2022-01-27 13:25:36.5080,0.192,-0.551,-0.973,0.24,0.45,0.89,-0.71,1.38,-1.04
2022-01-27 13:25:36.5180,0.227,-0.595,-0.996,0.21,0.97,1.04,-0.75,1.42,-1.17
2022-01-27 13:25:36.5280,0.263,-0.598,-1.057,0.03,1.49,1.27,-0.8,1.32,-1.33
2022-01-27 13:25:36.5380,0.289,-0.562,-1.095,-0.25,1.39,2.22,-0.88,1.18,-1.48
2022-01-27 13:25:36.5480,0.303,-0.508,-1.094,-0.25,1.39,2.22,-1.04,1.01,-1.6
2022-01-27 13:25:36.5580,0.312,-0.457,-1.096,-0.25,1.0,2.19,-1.3,0.82,-1.64
2022-01-27 13:25:36.5680,0.313,-0.43,-1.102,-0.21,0.67,2.17,-1.57,0.64,-1.56
2022-01-27 13:25:36.5780,0.317,-0.445,-1.105,-0.11,0.59,2.19,-1.77,0.52,-1.35
2022-01-27 13:25:36.5880,0.321,-0.486,-1.116,-0.06,0.93,2.16,-1.84,0.44,-1.08
2022-01-27 13:25:36.5980,0.319,-0.533,-1.135,-0.03,1.53,2.23,-1.84,0.44,-1.08
2022-01-27 13:25:36.6080,0.299,-0.561,-1.158,0.04,2.15,2.37,-1.51,0.26,-0.43
2022-01-27 13:25:36.6180,0.267,-0.573,-1.169,0.26,2.56,2.55,-1.16,0.13,-0.14
2022-01-27 13:25:36.6280,0.23,-0.568,-1.162,0.58,2.77,2.64,-0.8,-0.04,0.11
2022-01-27 13:25:36.6380,0.179,-0.556,-1.169,0.93,2.78,2.54,-0.49,-0.25,0.25
2022-01-27 13:25:36.6480,0.132,-0.54,-1.162,1.39,2.69,2.59,-0.22,-0.43,0.26
2022-01-27 13:25:36.6580,0.094,-0.538,-1.135,1.81,2.53,2.51,0.02,-0.56,0.18
2022-01-27 13:25:36.6680,0.068,-0.542,-1.108,2.12,2.51,2.22,0.02,-0.56,0.18
2022-01-27 13:25:36.6780,0.061,-0.552,-1.068,2.32,2.52,1.95,0.3,-0.58,-0.14
2022-01-27 13:25:36.6880,0.067,-0.57,-1.012,2.35,2.6,1.55,0.37,-0.43,-0.28
2022-01-27 13:25:36.6980,0.077,-0.584,-0.958,2.27,2.76,1.0,0.42,-0.21,-0.39
2022-01-27 13:25:36.7080,0.091,-0.583,-0.92,2.18,2.87,0.48,0.47,-0.01,-0.49
2022-01-27 13:25:36.7190,0.113,-0.56,-0.892,2.06,2.83,0.12,0.47,-0.01,-0.49
2022-01-27 13:25:36.7290,0.135,-0.53,-0.857,1.87,2.58,-0.13,0.58,0.29,-0.67
2022-01-27 13:25:36.7380,0.159,-0.5,-0.83,1.71,2.25,-0.45,0.61,0.35,-0.71
2022-01-27 13:25:36.7480,0.193,-0.481,-0.81,1.52,1.92,-0.69,0.61,0.35,-0.71
2022-01-27 13:25:36.7590,0.233,-0.471,-0.785,1.24,1.7,-0.85,0.73,0.33,-0.66
2022-01-27 13:25:36.7690,0.274,-0.461,-0.757,0.9,1.56,-1.06,0.73,0.33,-0.66
2022-01-27 13:25:36.7790,0.311,-0.452,-0.728,0.53,1.39,-1.3,0.98,0.22,-0.39
2022-01-27 13:25:36.7880,0.339,-0.451,-0.702,0.19,1.23,-1.55,1.1,0.12,-0.19
2022-01-27 13:25:36.7990,0.361,-0.443,-0.685,-0.07,1.13,-1.77,1.17,-0.01,0.04
2022-01-27 13:25:36.8090,0.384,-0.437,-0.675,-0.54,0.77,-1.95,1.22,-0.14,0.25
2022-01-27 13:25:36.8190,0.404,-0.438,-0.666,-0.79,0.66,-2.01,1.25,-0.24,0.44
2022-01-27 13:25:36.8280,0.418,-0.44,-0.662,-0.98,0.54,-2.01,1.29,-0.32,0.6
2022-01-27 13:25:36.8380,0.428,-0.44,-0.654,-0.98,0.54,-2.01,1.34,-0.35,0.73
2022-01-27 13:25:36.8480,0.426,-0.439,-0.64,-1.18,0.25,-2.14,1.37,-0.35,0.85
2022-01-27 13:25:36.8580,0.417,-0.423,-0.638,-1.18,0.25,-2.14,1.38,-0.35,0.93
2022-01-27 13:25:36.8690,0.405,-0.399,-0.648,-1.15,-0.05,-2.12,1.34,-0.36,0.96
2022-01-27 13:25:36.8790,0.406,-0.401,-0.646,-1.12,-0.42,-1.97,1.26,-0.33,0.94
2022-01-27 13:25:36.8890,0.412,-0.423,-0.657,-1.19,-0.52,-1.94,1.26,-0.33,0.94
2022-01-27 13:25:36.8990,0.42,-0.426,-0.708,-1.31,-0.42,-1.8,0.89,-0.43,0.75
2022-01-27 13:25:36.9100,0.421,-0.392,-0.776,-1.55,-0.85,-0.61,0.56,-0.57,0.54
2022-01-27 13:25:36.9200,0.424,-0.362,-0.825,-1.55,-0.85,-0.61,0.56,-0.57,0.54
2022-01-27 13:25:36.9290,0.43,-0.37,-0.853,-1.65,-1.15,-0.15,-0.21,-0.68,0.15
2022-01-27 13:25:36.9390,0.427,-0.37,-0.88,-1.77,-1.05,0.1,-0.21,-0.68,0.15
2022-01-27 13:25:36.9490,0.42,-0.342,-0.914,-1.78,-1.0,0.32,-0.67,-0.51,-0.09
2022-01-27 13:25:36.9590,0.402,-0.309,-0.943,-1.5953530029952527,-1.4641740819811822,0.85,-0.75,-0.4,-0.13
2022-01-27 13:25:36.9700,0.376,-0.298,-0.961,-1.6,-1.47,0.85,-0.75,-0.29,-0.07
2022-01-27 13:25:36.9790,0.348,-0.309,-0.968,-1.36,-1.52,0.99,-0.75,-0.29,-0.07
2022-01-27 13:25:36.9890,0.321,-0.337,-0.958,-1.1,-1.36,1.02,-0.67,-0.17,0.05
2022-01-27 13:25:36.9990,0.29,-0.373,-0.938,-0.55,-0.68,0.7,-0.29,0.1,0.34
2022-01-27 13:25:37.0100,0.254,-0.398,-0.907,-0.55,-0.68,0.7,-0.07,0.15,0.41
2022-01-27 13:25:37.0190,0.218,-0.409,-0.883,-0.2,-0.44,0.4,-0.07,0.08,0.38
2022-01-27 13:25:37.0290,0.167,-0.4,-0.864,0.14,-0.35,0.17,0.14,-0.05,0.28
2022-01-27 13:25:37.0390,0.111,-0.382,-0.841,0.62,-0.46,-0.01,0.06,-0.22,0.14
2022-01-27 13:25:37.0500,0.07,-0.381,-0.813,1.51,-0.61,-0.54,-0.16,-0.36,-0.02
2022-01-27 13:25:37.0600,0.041,-0.404,-0.789,1.51,-0.61,-0.54,-0.5,-0.46,-0.2
2022-01-27 13:25:37.0690,0.018,-0.433,-0.77,1.77,-0.33,-0.82,-0.86,-0.49,-0.39
2022-01-27 13:25:37.0800,0.001,-0.459,-0.754,2.14,0.43,-1.27,-1.15,-0.43,-0.61
2022-01-27 13:25:37.0900,-0.016,-0.456,-0.753,2.14,0.43,-1.27,-1.31,-0.29,-0.83
2022-01-27 13:25:37.1000,-0.026,-0.438,-0.736,2.32,0.53,-1.34,-1.34,-0.04,-0.98
2022-01-27 13:25:37.1100,-0.02,-0.444,-0.73,2.46,0.49,-1.55,-1.34,-0.04,-0.98
2022-01-27 13:25:37.1200,0.005,-0.454,-0.74,2.47,0.68,-1.65,-1.07,0.45,-0.99
2022-01-27 13:25:37.1300,0.032,-0.445,-0.755,2.31,0.89,-1.58,-0.85,0.54,-0.96
2022-01-27 13:25:37.1400,0.059,-0.43,-0.783,2.12,0.89,-1.45,-0.85,0.54,-0.96
2022-01-27 13:25:37.1500,0.081,-0.431,-0.801,1.93,0.83,-1.18,-0.42,0.36,-0.93
2022-01-27 13:25:37.1600,0.097,-0.434,-0.794,1.66,0.96,-1.08,-0.23,0.21,-0.92
2022-01-27 13:25:37.1700,0.105,-0.425,-0.779,1.66,0.96,-1.08,-0.06,0.08,-0.92
2022-01-27 13:25:37.1800,0.108,-0.405,-0.763,1.61,0.9,-1.22,-0.06,0.08,-0.92
2022-01-27 13:25:37.1900,0.116,-0.393,-0.759,1.6,0.71,-1.38,0.32,-0.16,-0.85
2022-01-27 13:25:37.2000,0.134,-0.387,-0.767,1.53,0.57,-1.41,0.51,-0.36,-0.82
2022-01-27 13:25:37.2100,0.151,-0.375,-0.785,1.34,0.48,-1.33,0.71,-0.58,-0.8
2022-01-27 13:25:37.2200,0.151,-0.363,-0.788,1.14,0.33,-1.14,0.89,-0.73,-0.8
2022-01-27 13:25:37.2300,0.14,-0.357,-0.781,1.11,0.15,-1.1,1.04,-0.78,-0.82
2022-01-27 13:25:37.2400,0.122,-0.341,-0.789,1.17,0.01,-1.16,1.13,-0.67,-0.86
2022-01-27 13:25:37.2500,0.104,-0.304,-0.802,1.33,-0.22,-1.04,1.19,-0.43,-0.89
2022-01-27 13:25:37.2600,0.12,-0.3,-0.84,1.51,-0.67,-0.88,1.19,-0.21,-0.91
2022-01-27 13:25:37.2710,0.162,-0.327,-0.899,1.37,-0.78,-0.47,1.16,-0.12,-0.98
2022-01-27 13:25:37.2800,0.196,-0.315,-0.962,0.99,-0.59,0.14,1.1,-0.2,-1.1
2022-01-27 13:25:37.2900,0.19,-0.273,-1.031,0.67,-0.77,0.79,1.06,-0.34,-1.2
2022-01-27 13:25:37.3000,0.176,-0.246,-1.061,0.75,-1.24,1.51,1.06,-0.34,-1.2
2022-01-27 13:25:37.3110,0.183,-0.296,-1.03,0.92,-1.58,1.85,1.3,0.2,-0.86
2022-01-27 13:25:37.3200,0.23,-0.45,-1.018,0.92,-1.19,1.61,1.3,0.2,-0.86
2022-01-27 13:25:37.3310,0.292,-0.574,-1.076,0.54,0.2,1.57,1.63,0.99,-0.2
2022-01-27 13:25:37.3400,0.335,-0.649,-1.152,0.02,1.28,2.24,1.55,1.16,-0.13
2022-01-27 13:25:37.3510,0.355,-0.74,-1.115,-0.3,1.9,3.08,1.23,1.26,-0.19
2022-01-27 13:25:37.3610,0.301,-0.773,-1.223,-0.38,2.72,2.8,1.23,1.26,-0.19
2022-01-27 13:25:37.3710,0.227,-0.638,-1.316,0.25,3.02,3.92,0.21,0.59,-1.04
2022-01-27 13:25:37.3800,0.14,-0.489,-1.376,1.07,1.74,4.85,-0.37,0.2,-1.73
2022-01-27 13:25:37.3910,0.098,-0.414,-1.398,2.02,0.4,5.41,-0.85,-0.12,-2.43
2022-01-27 13:25:37.4000,0.119,-0.389,-1.442,2.53,-0.17,5.58,-1.18,-0.49,-3.1
2022-01-27 13:25:37.4110,0.178,-0.339,-1.503,2.41,-0.19,5.93,-1.38,-0.78,-3.64
2022-01-27 13:25:37.4210,0.197,-0.29,-1.458,1.9,-0.42,6.44,-1.55,-0.89,-3.96
2022-01-27 13:25:37.4310,0.208,-0.266,-1.385,1.79,-0.62,5.91,-1.69,-0.96,-4.02
2022-01-27 13:25:37.4400,0.229,-0.278,-1.33,1.72,-0.56,5.09,-1.72,-1.1,-3.8
2022-01-27 13:25:37.4500,0.234,-0.334,-1.295,1.52,-0.16,4.46,-1.54,-1.4,-3.29
2022-01-27 13:25:37.4600,0.222,-0.391,-1.258,1.43,0.62,4.02,-1.06,-1.84,-2.62
2022-01-27 13:25:37.4700,0.196,-0.417,-1.203,1.43,1.34,3.56,-0.35,-2.42,-1.93
2022-01-27 13:25:37.4800,0.176,-0.398,-1.152,1.42,1.47,2.33,0.35,-3.03,-1.39
2022-01-27 13:25:37.4900,0.191,-0.319,-1.086,1.42,1.47,2.33,0.74,-3.53,-1.05
2022-01-27 13:25:37.5000,0.225,-0.27,-1.009,0.32,0.13,0.76,0.77,-3.8,-0.77
2022-01-27 13:25:37.5100,0.241,-0.352,-0.919,0.32,0.13,0.76,0.56,-3.38,-0.5
2022-01-27 13:25:37.5200,0.222,-0.423,-0.749,-0.12,0.91,-0.2,0.56,-3.38,-0.5
2022-01-27 13:25:37.5300,0.196,-0.363,-0.906,-0.15,1.63,-1.91,-0.46,-1.97,-0.19
2022-01-27 13:25:37.5400,0.146,-0.447,-0.909,-0.03,1.09,-0.42,-0.76,-1.03,0.05
2022-01-27 13:25:37.5510,0.051,-0.347,-0.8,0.38,1.99,-0.43,-0.76,-1.03,0.05
2022-01-27 13:25:37.5620,0.086,-0.186,-0.877,1.24,1.06,-1.52,-0.39,-0.68,-0.11
2022-01-27 13:25:37.5710,0.143,-0.223,-0.945,0.84,-0.49,-0.79,0.02,-0.98,-0.3
2022-01-27 13:25:37.5810,0.17,-0.253,-0.979,-0.2,0.12,0.19,0.4,-1.26,-0.49
2022-01-27 13:25:37.5940,0.154,-0.24,-0.93,-0.17,-0.07,-0.3,0.71,-1.44,-0.66
2022-01-27 13:25:37.6020,0.113,-0.249,-0.877,-0.17,-0.07,-0.3,0.91,-1.61,-0.75
2022-01-27 13:25:37.6110,0.089,-0.269,-0.857,0.1,-0.06,-0.82,0.99,-1.76,-0.79
2022-01-27 13:25:37.6210,0.127,-0.322,-0.84,0.19,0.06,-1.0,1.02,-1.83,-0.72
2022-01-27 13:25:37.6310,0.158,-0.35,-0.806,-0.34,0.49,-1.16,1.03,-1.76,-0.64
2022-01-27 13:25:37.6420,0.198,-0.353,-0.77,-0.79,0.67,-1.48,1.0,-1.64,-0.53
2022-01-27 13:25:37.6520,0.238,-0.396,-0.764,-1.32,0.61,-1.82,0.86,-1.41,-0.31
2022-01-27 13:25:37.6610,0.196,-0.446,-0.713,-1.82,0.96,-1.86,0.63,-0.98,-0.0
2022-01-27 13:25:37.6720,0.125,-0.432,-0.657,-1.49,1.41,-2.35,0.44,-0.46,0.19
2022-01-27 13:25:37.6820,0.116,-0.382,-0.623,-0.75,0.73,-3.22,0.24,-0.08,0.36
2022-01-27 13:25:37.6920,0.085,-0.394,-0.7,-0.75,0.73,-3.22,0.07,0.05,0.51
2022-01-27 13:25:37.7020,0.031,-0.376,-0.811,-0.47,0.84,-2.47,0.07,0.05,0.51
2022-01-27 13:25:37.7120,-0.036,-0.387,-0.885,0.75,0.72,-0.63,0.32,0.51,0.47
2022-01-27 13:25:37.7220,-0.186,-0.39,-1.032,2.25,0.68,0.83,0.6,0.45,-0.09
2022-01-27 13:25:37.7320,-0.125,-0.422,-1.266,1.62,0.93,3.15,0.8,-0.32,-0.77
2022-01-27 13:25:37.7420,-0.106,-0.549,-1.15,1.62,0.93,3.15,0.86,-0.74,-1.12
2022-01-27 13:25:37.7520,-0.015,-0.549,-1.099,1.4,2.1,2.04,0.79,-0.91,-1.1
2022-01-27 13:25:37.7620,0.152,-0.453,-1.1,0.46,2.04,1.56,0.79,-0.84,-0.82
2022-01-27 13:25:37.7720,0.257,-0.484,-1.141,-1.23,1.02,1.59,0.65,-0.86,-0.44
2022-01-27 13:25:37.7820,0.198,-0.554,-1.231,-2.32,1.9032397511601449,2.9268179476261142,0.68,-0.57,-0.36
2022-01-27 13:25:37.7930,0.197,-0.507,-1.107,-1.78,1.3636279928684236,1.7367429167032242,0.68,-0.57,-0.36
2022-01-27 13:25:37.8030,0.266,-0.592,-1.106,-1.77,1.36,1.73,0.91,0.03,-0.07
2022-01-27 13:25:37.8120,0.273,-0.606,-0.97,-2.43,2.11,1.75,0.26,0.94,0.17
2022-01-27 13:25:37.8220,0.276,-0.75,-0.953,-2.41,2.25,0.42,-0.22,1.33,0.49
2022-01-27 13:25:37.8320,0.262,-0.462,-0.8,-2.31,3.7,0.25,-0.55,1.99,0.39
2022-01-27 13:25:37.8420,0.116,-0.194,-1.065,-0.35,-1.58,1.3,-0.99,2.13,-0.04
2022-01-27 13:25:37.8530,0.076,-0.192,-1.19,0.18,-1.54,2.52,-1.03,2.05,-0.43
2022-01-27 13:25:37.8620,0.11,-0.45,-1.838,-0.22,1.05,8.85,-0.25,-0.15,-0.31
2022-01-27 13:25:37.8730,0.072,-0.697,-2.323,-0.03,3.56,13.56,-0.94,-1.55,-0.1
2022-01-27 13:25:37.8820,-0.09,-0.402,-1.671,-0.03,3.56,13.56,-1.22,-2.55,0.02
2022-01-27 13:25:37.8920,-0.153,-0.31,-1.682,1.31,0.78,7.11,-0.92,-2.97,-0.06
2022-01-27 13:25:37.9020,-0.22,-0.212,-1.318,1.67,-0.05,7.19,-0.53,-2.61,-0.19
2022-01-27 13:25:37.9130,-0.267,-0.211,-0.865,2.44,-0.98,-0.84,-0.17,-1.78,-0.24
2022-01-27 13:25:37.9230,-0.211,-0.164,-0.646,2.44,-0.98,-0.84,0.19,-1.01,-0.29
2022-01-27 13:25:37.9330,-0.212,-0.16,-0.67,1.83,-1.46,-2.98,0.56,-0.4,-0.41
2022-01-27 13:25:37.9420,-0.252,-0.167,-0.739,1.83,-1.58,-2.72,0.56,-0.4,-0.41
2022-01-27 13:25:37.9530,-0.296,-0.154,-0.846,2.71,-1.82,-0.93,1.05,0.08,-0.79
2022-01-27 13:25:37.9630,-0.301,-0.138,-0.958,2.71,-1.82,-0.93,1.0792124271392822,-0.02,-0.96
2022-01-27 13:25:37.9730,-0.267,-0.145,-1.003,2.79,-2.07,0.2,1.05,-0.21,-1.05
2022-01-27 13:25:37.9830,-0.227,-0.178,-0.966,2.46,-2.1,0.67,1.04,-0.37,-1.06
2022-01-27 13:25:37.9930,-0.2,-0.213,-0.882,2.07,-1.87,0.35,1.06,-0.42,-1.03
2022-01-27 13:25:38.0030,-0.189,-0.23,-0.786,1.81,-1.63,-0.44,1.08,-0.37,-1.01
2022-01-27 13:25:38.0130,-0.184,-0.223,-0.716,1.7,-1.56,-1.33,1.08,-0.28,-1.04
2022-01-27 13:25:38.0230,-0.175,-0.221,-0.685,1.67,-1.72,-1.98,1.05,-0.21,-1.1
2022-01-27 13:25:38.0330,-0.163,-0.233,-0.68,1.61,-1.84,-2.24,1.0,-0.19,-1.17
2022-01-27 13:25:38.0430,-0.144,-0.248,-0.696,1.52,-1.8,-2.25,0.93,-0.24,-1.21
2022-01-27 13:25:38.0530,-0.123,-0.268,-0.724,1.36,-1.74,-2.06,0.88,-0.35,-1.21
2022-01-27 13:25:38.0630,-0.11,-0.284,-0.735,1.17,-1.62,-1.74,0.88,-0.35,-1.21
2022-01-27 13:25:38.0730,-0.098,-0.297,-0.732,1.05,-1.53,-1.61,0.81,-0.58,-1.1
2022-01-27 13:25:38.0830,-0.089,-0.308,-0.723,0.92,-1.48,-1.6,0.82,-0.66,-1.02
2022-01-27 13:25:38.0930,-0.091,-0.317,-0.7,0.82,-1.44,-1.65,0.82,-0.72,-0.97
2022-01-27 13:25:38.1030,-0.096,-0.321,-0.673,0.82,-1.43,-1.84,0.79,-0.78,-0.96
2022-01-27 13:25:38.1130,-0.097,-0.331,-0.645,0.84,-1.45,-2.07,0.72,-0.81,-0.99
2022-01-27 13:25:38.1230,-0.096,-0.344,-0.617,0.83,-1.42,-2.31,0.61,-0.81,-1.05
2022-01-27 13:25:38.1330,-0.092,-0.364,-0.591,0.79,-1.33,-2.56,0.61,-0.81,-1.05
2022-01-27 13:25:38.1430,-0.091,-0.392,-0.577,0.72,-0.92,-2.93,0.29,-0.81,-1.13
2022-01-27 13:25:38.1530,-0.097,-0.428,-0.569,0.72,-0.92,-2.93,0.13,-0.77,-1.11
2022-01-27 13:25:38.1640,-0.101,-0.467,-0.566,0.76,-0.57,-3.0,-0.0,-0.72,-1.03
2022-01-27 13:25:38.1730,-0.103,-0.5,-0.58,0.79,-0.19,-3.03,-0.09,-0.66,-0.92
2022-01-27 13:25:38.1830,-0.102,-0.515,-0.604,0.79,0.15,-2.89,-0.13,-0.58,-0.83
2022-01-27 13:25:38.1930,-0.11,-0.518,-0.635,0.77,0.3,-2.67,-0.12,-0.54,-0.77
2022-01-27 13:25:38.2030,-0.132,-0.503,-0.677,0.85,0.34,-2.37,-0.07,-0.51,-0.78
2022-01-27 13:25:38.2140,-0.159,-0.48,-0.712,1.05,0.2,-1.95,-0.02,-0.54,-0.86
2022-01-27 13:25:38.2230,-0.179,-0.466,-0.736,1.31,-0.02,-1.61,-0.02,-0.54,-0.86
2022-01-27 13:25:38.2340,-0.19,-0.479,-0.738,1.51,-0.16,-1.37,0.01,-0.51,-1.07
2022-01-27 13:25:38.2430,-0.197,-0.494,-0.736,1.63,-0.04,-1.35,-0.0,-0.43,-1.17
2022-01-27 13:25:38.2540,-0.186,-0.491,-0.773,1.71,0.11,-1.38,-0.02,-0.37,-1.3
2022-01-27 13:25:38.2640,-0.16,-0.472,-0.828,1.64,0.08,-1.02,-0.03,-0.34,-1.48
2022-01-27 13:25:38.2730,-0.127,-0.459,-0.892,1.43,-0.11,-0.47,-0.04,-0.34,-1.66
2022-01-27 13:25:38.2840,-0.098,-0.467,-0.954,1.16,-0.23,0.15,-0.04,-0.39,-1.81
2022-01-27 13:25:38.2940,-0.072,-0.499,-1.029,0.92,-0.14,0.75,-0.05,-0.52,-1.89
2022-01-27 13:25:38.3040,-0.059,-0.546,-1.082,0.71,0.17,1.49,-0.05,-0.52,-1.89
2022-01-27 13:25:38.3140,-0.06,-0.591,-1.099,0.6413451245427132,1.09,2.17,-0.08,-0.74,-1.84
2022-01-27 13:25:38.3240,-0.076,-0.635,-1.118,0.64,1.09,2.17,-0.11,-0.87,-1.77
2022-01-27 13:25:38.3340,-0.099,-0.667,-1.117,0.79,1.54,2.34,-0.18,-0.96,-1.69
2022-01-27 13:25:38.3430,-0.124,-0.684,-1.094,1.02,1.88,2.33,-0.18,-0.96,-1.69
2022-01-27 13:25:38.3540,-0.143,-0.676,-1.081,1.25,2.07,2.08,-0.41,-0.98,-1.57
2022-01-27 13:25:38.3640,-0.159,-0.663,-1.074,1.57,1.96,1.84,-0.56,-0.96,-1.54
2022-01-27 13:25:38.3740,-0.177,-0.663,-1.069,1.57,1.96,1.84,-0.74,-0.9,-1.48
2022-01-27 13:25:38.3840,-0.195,-0.657,-1.077,1.73,2.04,1.75,-0.9,-0.87,-1.42
2022-01-27 13:25:38.3940,-0.207,-0.628,-1.092,1.9,2.06,1.78,-1.01,-0.91,-1.35
2022-01-27 13:25:38.4040,-0.213,-0.588,-1.098,1.99,1.87,1.89,-1.01,-0.91,-1.35
2022-01-27 13:25:38.4140,-0.222,-0.554,-1.08,2.01,1.57,1.89,-1.08,-1.0,-1.25
2022-01-27 13:25:38.4240,-0.243,-0.519,-1.046,2.07,1.33,1.67,-1.05,-0.97,-1.22
2022-01-27 13:25:38.4340,-0.264,-0.477,-1.012,2.23,1.08,1.3,-1.0,-0.92,-1.22
2022-01-27 13:25:38.4440,-0.28,-0.433,-1.005,2.41,0.76,0.93,-0.94,-0.89,-1.24
2022-01-27 13:25:38.4540,-0.291,-0.396,-0.99,2.53,0.41,0.83,-0.85,-0.84,-1.28
2022-01-27 13:25:38.4630,-0.296,-0.361,-0.964,2.62,0.12,0.65,-0.7563363909721375,-0.78,-1.34
2022-01-27 13:25:38.4730,-0.299,-0.331,-0.949,2.66,-0.16,0.37,-0.65,-0.72,-1.4
2022-01-27 13:25:38.4840,-0.304,-0.309,-0.933,2.67,-0.4,0.2,-0.54,-0.63,-1.46
2022-01-27 13:25:38.4940,-0.307,-0.295,-0.909,2.72,-0.57,0.02,-0.44,-0.51,-1.52
2022-01-27 13:25:38.5040,-0.304,-0.277,-0.912,2.76,-0.67,-0.22,-0.35,-0.4,-1.57
2022-01-27 13:25:38.5140,-0.294,-0.259,-0.917,2.75,-0.83,-0.21,-0.26,-0.29,-1.61
2022-01-27 13:25:38.5240,-0.287,-0.249,-0.912,2.69,-0.98,-0.16,-0.15,-0.17,-1.63
2022-01-27 13:25:38.5340,-0.278,-0.235,-0.915,2.67,-1.07,-0.22,-0.03,-0.08,-1.64
2022-01-27 13:25:38.5440,-0.261,-0.216,-0.921,2.63,-1.22,-0.19,0.1,-0.04,-1.64
2022-01-27 13:25:38.5540,-0.235,-0.199,-0.929,2.51,-1.42,-0.12,0.24,-0.03,-1.64
2022-01-27 13:25:38.5640,-0.21,-0.189,-0.923,2.13,-1.74,-0.08,0.36,-0.05,-1.63
2022-01-27 13:25:38.5750,-0.189,-0.186,-0.913,2.13,-1.74,-0.08,0.36,-0.05,-1.63
2022-01-27 13:25:38.5840,-0.175,-0.19,-0.902,1.87,-1.81,-0.26,0.51,-0.11,-1.58
2022-01-27 13:25:38.5950,-0.165,-0.202,-0.902,1.87,-1.81,-0.26,0.54,-0.19,-1.53
2022-01-27 13:25:38.6040,-0.157,-0.212,-0.907,1.76,-1.67686918258667,-0.16,0.53,-0.3,-1.47
2022-01-27 13:25:38.6150,-0.15,-0.222,-0.903,1.69,-1.62,-0.19,0.52,-0.4,-1.39
2022-01-27 13:25:38.6250,-0.136,-0.236,-0.895,1.69,-1.62,-0.19,0.51,-0.52,-1.3
2022-01-27 13:25:38.6350,-0.119,-0.247,-0.885,1.56,-1.53,-0.25,0.48,-0.64,-1.2
2022-01-27 13:25:38.6450,-0.101,-0.26,-0.876,1.37,-1.46,-0.33,0.44,-0.76,-1.07
2022-01-27 13:25:38.6550,-0.091,-0.28,-0.871,1.16,-1.37,-0.4,0.37,-0.87,-0.93
2022-01-27 13:25:38.6650,-0.085,-0.299,-0.865,1.02,-1.2,-0.44,0.37,-0.87,-0.93
2022-01-27 13:25:38.6740,-0.082,-0.312,-0.86,0.9,-1.03,-0.49,0.19,-1.01,-0.66
2022-01-27 13:25:38.6850,-0.08,-0.318,-0.849,0.81,-0.92,-0.54,0.12,-1.03,-0.52
2022-01-27 13:25:38.6950,-0.078,-0.317,-0.84,0.71,-0.87,-0.64,0.06,-1.01,-0.4
2022-01-27 13:25:38.7050,-0.075,-0.316,-0.838,0.62,-0.88,-0.72,0.01,-0.99,-0.3
2022-01-27 13:25:38.7150,-0.073,-0.315,-0.841,0.42,-0.89,-0.72,-0.04,-0.93,-0.21
2022-01-27 13:25:38.7250,-0.071,-0.318,-0.841,0.42,-0.89,-0.72,-0.1,-0.85,-0.12
2022-01-27 13:25:38.7350,-0.067,-0.32,-0.843,0.33,-0.85,-0.72,-0.15,-0.74,-0.04
2022-01-27 13:25:38.7450,-0.062,-0.322,-0.844,0.22,-0.81,-0.71,-0.2,-0.62,0.05
2022-01-27 13:25:38.7550,-0.057,-0.318,-0.865,0.12,-0.77,-0.7,-0.24,-0.51,0.12
2022-01-27 13:25:38.7660,-0.054,-0.315,-0.884,0.02,-0.78,-0.5,-0.24,-0.37,0.19
2022-01-27 13:25:38.7760,-0.054,-0.315,-0.891,-0.04,-0.79,-0.32,-0.24,-0.19,0.25
2022-01-27 13:25:38.7860,-0.056,-0.317,-0.9,-0.05,-0.72,-0.19,-0.22,0.03,0.33
2022-01-27 13:25:38.7960,-0.056,-0.325,-0.922,-0.05,-0.72,-0.19,-0.19,0.26,0.42
2022-01-27 13:25:38.8060,-0.054,-0.339,-0.958,-0.03,-0.62,0.02,-0.19,0.46,0.51
2022-01-27 13:25:38.8160,-0.045,-0.354,-1.005,-0.03,-0.46,0.36,-0.2,0.62,0.62
2022-01-27 13:25:38.8260,-0.026,-0.354,-1.052,-0.08,-0.29,0.81,-0.21,0.71,0.73
2022-01-27 13:25:38.8350,0.003,-0.332,-1.098,-0.23,-0.27,1.25,-0.19,0.65,0.8
2022-01-27 13:25:38.8460,0.032,-0.308,-1.125,-0.49,-0.47,1.7,-0.12,0.49,0.8
2022-01-27 13:25:38.8560,0.05,-0.297,-1.109,-0.95,-0.79,1.8,-0.07,0.33,0.76
2022-01-27 13:25:38.8660,0.049,-0.29,-1.075,-0.96,-0.84,1.46,-0.05,0.14,0.71
2022-01-27 13:25:38.8760,0.036,-0.29,-1.042,-0.87,-0.83,1.13,-0.08,-0.07,0.63
2022-01-27 13:25:38.8860,0.016,-0.302,-0.996,-0.87,-0.83,1.13,-0.15,-0.27,0.54
2022-01-27 13:25:38.8960,-0.017,-0.316,-0.944,-0.72,-0.69,0.67,-0.26,-0.42,0.45
2022-01-27 13:25:38.9050,-0.061,-0.329,-0.904,-0.46,-0.52,0.16,-0.36,-0.53,0.36
2022-01-27 13:25:38.9160,-0.097,-0.328,-0.877,-0.08,-0.36,-0.24,-0.44,-0.61,0.27
2022-01-27 13:25:38.9260,-0.117,-0.307,-0.851,0.2,-0.32,-0.53,-0.44,-0.61,0.27
2022-01-27 13:25:38.9360,-0.118,-0.283,-0.81,0.33,-0.48,-0.79,-0.39,-0.55,0.05
2022-01-27 13:25:38.9460,-0.117,-0.271,-0.788,0.3,-0.68,-1.2,-0.3,-0.46,-0.06
2022-01-27 13:25:38.9560,-0.116,-0.275,-0.788,0.25,-0.77,-1.42,-0.2,-0.38,-0.16
2022-01-27 13:25:38.9660,-0.117,-0.29,-0.787,0.21,-0.72,-1.42,-0.12,-0.34,-0.24
2022-01-27 13:25:38.9760,-0.121,-0.309,-0.786,0.2,-0.56,-1.43,-0.05,-0.32,-0.32
2022-01-27 13:25:38.9860,-0.122,-0.316,-0.775,0.22,-0.38,-1.44,0.01,-0.31,-0.38
2022-01-27 13:25:38.9960,-0.12,-0.307,-0.745,0.22,-0.31,-1.54,0.09,-0.24,-0.45
2022-01-27 13:25:39.0060,-0.124,-0.294,-0.704,0.2,-0.42,-1.84,0.21,-0.12,-0.53
2022-01-27 13:25:39.0160,-0.134,-0.281,-0.666,0.26,-0.58,-2.23,0.32,0.09,-0.62
2022-01-27 13:25:39.0260,-0.143,-0.274,-0.645,0.39,-0.73,-2.6,0.35,0.29,-0.73
2022-01-27 13:25:39.0360,-0.147,-0.285,-0.675,0.54,-0.84,-2.79,0.35,0.29,-0.73
2022-01-27 13:25:39.0470,-0.144,-0.316,-0.722,0.64,-0.76,-2.49,0.16,0.39,-0.85
2022-01-27 13:25:39.0560,-0.145,-0.365,-0.751,0.67,-0.47,-2.03,0.04,0.33,-0.83
2022-01-27 13:25:39.0660,-0.162,-0.402,-0.777,0.74,0.0,-1.75,-0.08,0.23,-0.78
2022-01-27 13:25:39.0760,-0.187,-0.405,-0.761,0.95,0.38,-1.5,-0.15,0.2,-0.71
2022-01-27 13:25:39.0860,-0.214,-0.39,-0.744,1.24,0.42,-1.66,-0.15,0.19,-0.67
2022-01-27 13:25:39.0960,-0.22,-0.349,-0.759,1.55,0.28,-1.84,-0.08,0.19,-0.62
2022-01-27 13:25:39.1060,-0.224,-0.312,-0.795,1.65,-0.12,-1.69,-0.08,0.19,-0.62
2022-01-27 13:25:39.1170,-0.232,-0.292,-0.841,1.71,-0.49,-1.34,0.12,0.01,-0.62
2022-01-27 13:25:39.1270,-0.236,-0.297,-0.857,1.81,-0.7,-0.88,0.15,-0.11,-0.6
2022-01-27 13:25:39.1360,-0.231,-0.312,-0.86,1.85,-0.67,-0.72,0.12,-0.25,-0.56
2022-01-27 13:25:39.1470,-0.232,-0.325,-0.867,1.79,-0.53,-0.69,0.07,-0.42,-0.49
2022-01-27 13:25:39.1570,-0.228,-0.327,-0.867,1.78,-0.41,-0.62,-0.02,-0.57,-0.4
2022-01-27 13:25:39.1670,-0.225,-0.329,-0.858,1.7,-0.38,-0.62,-0.09,-0.69,-0.3
2022-01-27 13:25:39.1770,-0.23,-0.336,-0.861,1.61,-0.35,-0.71,-0.17,-0.79,-0.18
2022-01-27 13:25:39.1870,-0.24,-0.331,-0.873,1.59,-0.26,-0.68,-0.24,-0.88,-0.04
2022-01-27 13:25:39.1970,-0.251,-0.318,-0.885,1.6,-0.29,-0.57,-0.3,-0.97,0.07
2022-01-27 13:25:39.2060,-0.256,-0.297,-0.896,1.61,-0.38,-0.45,-0.3,-0.97,0.07
2022-01-27 13:25:39.2170,-0.245,-0.259,-0.907,1.55,-0.56,-0.35,-0.34,-1.08,0.13
2022-01-27 13:25:39.2260,-0.225,-0.215,-0.894,1.33,-0.89,-0.24,-0.37,-1.28,0.04
2022-01-27 13:25:39.2360,-0.203,-0.171,-0.873,1.01,-1.29,-0.37,-0.3,-1.33,-0.08
2022-01-27 13:25:39.2450,-0.187,-0.128,-0.872,0.68,-1.7,-0.56,-0.19,-1.35,-0.25
2022-01-27 13:25:39.2550,-0.181,-0.098,-0.862,0.41,-2.11,-0.56,-0.05,-1.3,-0.41
2022-01-27 13:25:39.2660,-0.186,-0.082,-0.842,0.25,-2.41,-0.64,0.1,-1.19,-0.54
2022-01-27 13:25:39.2770,-0.194,-0.082,-0.834,0.22,-2.58,-0.82,0.21,-1.06,-0.64
2022-01-27 13:25:39.2860,-0.193,-0.09,-0.837,0.23,-2.62,-0.87,0.21,-1.06,-0.64
2022-01-27 13:25:39.2970,-0.184,-0.108,-0.835,0.16,-2.57,-0.81,0.32,-0.81,-0.72
2022-01-27 13:25:39.3060,-0.171,-0.123,-0.837,0.03,-2.44,-0.8,0.3,-0.69,-0.69
2022-01-27 13:25:39.3170,-0.153,-0.129,-0.834,-0.33,-2.3,-0.78,0.24,-0.57,-0.66
2022-01-27 13:25:39.3260,-0.141,-0.13,-0.834,-0.46,-2.31,-0.77,0.15,-0.44,-0.66
2022-01-27 13:25:39.3360,-0.136,-0.121,-0.841,-0.46,-2.31,-0.77,0.04,-0.31,-0.68
2022-01-27 13:25:39.3470,-0.136,-0.112,-0.861,-0.51,-2.41,-0.7,-0.02,-0.21,-0.74
2022-01-27 13:25:39.3570,-0.122,-0.089,-0.903,-0.5,-2.51,-0.49,0.0,-0.21,-0.89
2022-01-27 13:25:39.3670,-0.098,-0.064,-0.94,-0.63,-2.75,-0.08,0.09,-0.27,-1.09
2022-01-27 13:25:39.3770,-0.08,-0.052,-0.942,-0.85,-3.04,0.29,0.23,-0.38,-1.35
2022-01-27 13:25:39.3870,-0.055,-0.044,-0.951,-1.01,-3.2,0.33,0.39,-0.54,-1.63
2022-01-27 13:25:39.3970,-0.014,-0.033,-0.932,-1.24,-3.35,0.45,0.54,-0.66,-1.87
2022-01-27 13:25:39.4070,0.018,-0.044,-0.898,-1.62,-3.54,0.3,0.62,-0.68,-2.03
2022-01-27 13:25:39.4170,0.023,-0.089,-0.863,-1.92,-3.52,0.0,0.58,-0.61,-2.07
2022-01-27 13:25:39.4270,-0.006,-0.168,-0.855,-1.94,-3.16,-0.32,0.41,-0.45,-2.01
2022-01-27 13:25:39.4370,-0.057,-0.271,-0.87,-1.61,-2.44,-0.38,0.17,-0.27,-1.86
2022-01-27 13:25:39.4480,-0.116,-0.365,-0.9,-1.05,-1.47,-0.22,-0.08,-0.07,-1.64
2022-01-27 13:25:39.4570,-0.159,-0.423,-0.922,-0.41,-0.56,0.06,-0.3,0.14,-1.36
2022-01-27 13:25:39.4670,-0.162,-0.434,-0.938,0.09,0.03,0.25,-0.48,0.36,-1.08
2022-01-27 13:25:39.4770,-0.127,-0.41,-0.954,0.2,0.17,0.38,-0.62,0.56,-0.86
2022-01-27 13:25:39.4870,-0.084,-0.384,-0.982,-0.06,-0.02,0.5,-0.75,0.71,-0.64
2022-01-27 13:25:39.4970,-0.06,-0.383,-1.033,-0.39,-0.2,0.74,-0.86,0.77,-0.46
2022-01-27 13:25:39.5080,-0.071,-0.39,-1.084,-0.54,-0.13,1.19,-0.86,0.77,-0.46
2022-01-27 13:25:39.5180,-0.09,-0.394,-1.121,-0.36,0.02,1.65,-1.0,0.71,-0.23
2022-01-27 13:25:39.5270,-0.095,-0.399,-1.148,-0.11,0.15,1.97,-1.02,0.57,-0.18
2022-01-27 13:25:39.5380,-0.082,-0.398,-1.163,0.0,0.29,2.19,-1.01,0.38,-0.16
2022-01-27 13:25:39.5480,-0.073,-0.402,-1.165,-0.1,0.37,2.29,-1.0,0.17,-0.16
2022-01-27 13:25:39.5580,-0.071,-0.419,-1.158,-0.17,0.5,2.28,-1.01,-0.03,-0.12
2022-01-27 13:25:39.5680,-0.084,-0.455,-1.147,-0.1,1.21,2.03,-1.06,-0.2,-0.02
2022-01-27 13:25:39.5780,-0.109,-0.497,-1.14,-0.1,1.21,2.03,-1.1,-0.35,0.14
2022-01-27 13:25:39.5870,-0.135,-0.527,-1.136,0.1,1.74,1.93,-1.1,-0.35,0.14
2022-01-27 13:25:39.5980,-0.153,-0.528,-1.136,0.29,2.14,1.86,-1.14,-0.58,0.6
2022-01-27 13:25:39.6080,-0.165,-0.488,-1.117,0.39,2.26,1.83,-1.1,-0.67,0.83
2022-01-27 13:25:39.6180,-0.174,-0.418,-1.094,0.4,1.4,1.38,-1.02,-0.79,0.91
2022-01-27 13:25:39.6290,-0.184,-0.358,-1.062,0.4,1.4,1.38,-0.89,-0.9,0.85
2022-01-27 13:25:39.6380,-0.2,-0.305,-1.002,0.4,0.91,1.06,-0.89,-0.9,0.85
2022-01-27 13:25:39.6480,-0.215,-0.255,-0.946,0.44,0.45,0.47,-0.7,-0.97,0.69
2022-01-27 13:25:39.6580,-0.23,-0.227,-0.904,0.48,0.01,-0.07,-0.31,-1.06,0.25
2022-01-27 13:25:39.6680,-0.253,-0.228,-0.861,0.52,-0.23,-0.48,-0.15,-1.03,0.08
2022-01-27 13:25:39.6780,-0.285,-0.252,-0.812,0.66,-0.21,-0.88,0.01,-0.92,-0.06
2022-01-27 13:25:39.6880,-0.315,-0.267,-0.78,0.9,0.01,-1.35,0.2,-0.78,-0.16
2022-01-27 13:25:39.6980,-0.337,-0.274,-0.773,1.13,0.14,-1.64,0.4,-0.66,-0.23
2022-01-27 13:25:39.7080,-0.35,-0.286,-0.777,1.37,0.2,-1.61,0.62,-0.61,-0.25
2022-01-27 13:25:39.7170,-0.357,-0.307,-0.78,1.37,0.2,-1.61,0.79,-0.59,-0.21
2022-01-27 13:25:39.7170,-0.37,-0.335,-0.75,1.37,0.2,-1.61,0.88,-0.52,-0.12
2022-01-27 13:25:39.7300,-0.387,-0.367,-0.714,1.48,0.53,-1.81,0.85,-0.39,-0.01
2022-01-27 13:25:39.7380,-0.388,-0.384,-0.717,1.6,0.76,-2.14,0.7,-0.26,0.14
2022-01-27 13:25:39.7570,-0.382,-0.391,-0.75,1.6,0.89,-2.09,0.49,-0.15,0.29
2022-01-27 13:25:39.7580,-0.362,-0.371,-0.809,1.51,0.93,-1.74,0.31,-0.1,0.41
2022-01-27 13:25:39.7770,-0.331,-0.321,-0.879,1.29,0.71,-1.16,0.17,-0.12,0.48
2022-01-27 13:25:39.7780,-0.303,-0.271,-0.919,0.96,0.23,-0.47,0.08,-0.14,0.53
2022-01-27 13:25:39.7970,-0.279,-0.235,-0.926,0.65,-0.26,-0.07,0.02,-0.1,0.54
2022-01-27 13:25:39.7980,-0.254,-0.205,-0.936,0.4,-0.59,0.0,-0.05,-0.04,0.54
2022-01-27 13:25:39.8100,-0.228,-0.185,-0.964,0.14,-0.87,0.1,-0.17,0.05,0.5
2022-01-27 13:25:39.8190,-0.204,-0.183,-0.99,-0.12,-1.03,0.36,-0.32,0.2,0.44
2022-01-27 13:25:39.8290,-0.178,-0.173,-1.03,-0.34,-1.0,0.6,-0.32,0.2,0.44
2022-01-27 13:25:39.8390,-0.146,-0.141,-1.093,-0.57,-1.06,0.97,-0.46,0.45,0.14
2022-01-27 13:25:39.8490,-0.107,-0.115,-1.159,-0.84,-1.33,1.57,-0.36,0.45,-0.12
Time,-0.066,-0.11,-1.189,-1.18,-1.56,2.19,-0.17,0.34,-0.39
Time,-0.033,-0.135,-1.207,-1.55,-1.61,2.48,0.12,0.07,-0.66
2022-01-27 13:25:39.8870,-0.027,-0.189,-1.154,-1.85,-1.4,2.66,0.41,-0.12,-0.81
2022-01-27 13:25:39.8970,-0.062,-0.293,-1.067,-1.9,-0.93,2.16,0.41,-0.12,-0.81
2022-01-27 13:25:39.8980,-0.136,-0.428,-1.019,-1.56,0.03,1.32,0.51,-0.24,-0.56
2022-01-27 13:25:39.9090,-0.214,-0.573,-0.988,-0.85,1.31,0.87,0.22,-0.22,-0.17
Time,-0.261,-0.67,-0.955,-0.1,2.72,0.58,-0.2,-0.11,0.23
Time,-0.268,-0.678,-0.937,0.35,3.72,0.24,-0.63,0.0,0.5
Time,-0.247,-0.6,-0.958,0.4,3.87,0.04,-0.92,-0.0,0.65
2022-01-27 13:25:39.9570,-0.209,-0.493,-0.986,0.17,3.22,0.22,-1.01,-0.05,0.66
2022-01-27 13:25:39.9670,-0.17,-0.391,-0.99,-0.22,2.27,0.47,-0.93,-0.1,0.59
2022-01-27 13:25:39.9770,-0.147,-0.297,-1.008,-0.63,1.36,0.5,-0.71,-0.18,0.45
2022-01-27 13:25:39.9790,-0.144,-0.229,-1.026,-0.89,0.51,0.66,-0.41,-0.29,0.23
Time,-0.154,-0.184,-1.033,-0.95,-0.13,0.84,-0.08,-0.37,-0.02
2022-01-27 13:25:39.9990,-0.174,-0.16,-0.992,-0.88,-0.57,0.92,0.23,-0.39,-0.24
2022-01-27 13:25:40.0100,-0.214,-0.178,-0.938,-0.71,-0.85,0.53,0.49,-0.36,-0.4
2022-01-27 13:25:40.0280,-0.257,-0.218,-0.895,-0.34,-0.73,0.02,0.69,-0.33,-0.5
2022-01-27 13:25:40.0370,-0.283,-0.249,-0.856,0.06,-0.42,-0.38,0.84,-0.33,-0.56
2022-01-27 13:25:40.0470,-0.297,-0.275,-0.82,0.3,-0.2,-0.72,0.94,-0.35,-0.58
2022-01-27 13:25:40.0570,-0.305,-0.289,-0.775,0.42,-0.05,-1.05,1.0,-0.36,-0.59
2022-01-27 13:25:40.0670,-0.307,-0.286,-0.736,0.49,-0.02,-1.45,1.02,-0.4,-0.6
2022-01-27 13:25:40.0770,-0.308,-0.283,-0.705,0.48,-0.15,-1.79,1.01,-0.42,-0.61
2022-01-27 13:25:40.0870,-0.316,-0.289,-0.677,0.47,-0.29,-2.06,0.97,-0.45,-0.62
Time,-0.323,-0.298,-0.663,0.53,-0.32,-2.29,0.89,-0.44,-0.62
2022-01-27 13:25:40.1080,-0.324,-0.319,-0.651,0.58,-0.33,-2.39,0.79,-0.41,-0.56
2022-01-27 13:25:40.1180,-0.332,-0.35,-0.67,0.57,-0.2,-2.47,0.67,-0.4,-0.46
2022-01-27 13:25:40.1200,-0.346,-0.367,-0.707,0.63,0.04,-2.25,0.54,-0.39,-0.36
2022-01-27 13:25:40.1430,-0.356,-0.352,-0.732,0.74,0.15,-1.86,0.42,-0.35,-0.32
Time,-0.346,-0.298,-0.758,0.71,-0.6,-1.32,0.37,-0.33,-0.38
2022-01-27 13:25:40.1590,-0.309,-0.237,-0.793,0.71,-0.6,-1.32,0.4,-0.28,-0.5
2022-01-27 13:25:40.1680,-0.256,-0.191,-0.81,0.35,-1.26,-0.96,0.46,-0.19,-0.67
Time,-0.213,-0.172,-0.845,-0.15,-1.77,-0.77,0.47,-0.06,-0.8
2022-01-27 13:25:40.1880,-0.188,-0.195,-0.885,-0.55,-2.01,-0.42,0.44,0.1,-0.87
2022-01-27 13:25:40.1980,-0.173,-0.244,-0.934,-0.74,-1.85,-0.01,0.42,0.23,-0.85
2022-01-27 13:25:40.2080,-0.163,-0.283,-0.976,-0.84,-1.42,0.48,0.42,0.32,-0.77
2022-01-27 13:25:40.2180,-0.141,-0.299,-1.003,-0.89,-1.09,0.9,0.46,0.38,-0.61
2022-01-27 13:25:40.2280,-0.116,-0.316,-1.013,-1.04,-0.99,1.18,0.48,0.43,-0.37
2022-01-27 13:25:40.2290,-0.118,-0.357,-1.017,-1.24,-0.87,1.28,0.45,0.43,-0.08
2022-01-27 13:25:40.2480,-0.161,-0.408,-1.022,-1.18,-0.5,1.32,0.28,0.43,0.23
2022-01-27 13:25:40.2580,-0.221,-0.443,-1.023,-0.74,-0.01,1.37,-0.0,0.37,0.51
Time,-0.256,-0.431,-1.059,-0.15,0.36,1.36,-0.35,0.15,0.68
2022-01-27 13:25:40.2700,-0.266,-0.392,-1.069,-0.15,0.36,1.36,-0.65,-0.14,0.73
2022-01-27 13:25:40.2860,-0.277,-0.337,-1.02,0.33,-0.54,1.29,-0.89,-0.41,0.67
2022-01-27 13:25:40.2950,-0.301,-0.285,-0.96,0.5,-0.95,0.68,-1.06,-0.65,0.47
2022-01-27 13:25:40.3050,-0.336,-0.254,-0.904,0.5,-0.95,0.68,-1.15,-0.8,0.2
2022-01-27 13:25:40.3160,-0.377,-0.263,-0.842,0.76,-1.14,0.11,-1.15,-0.8,0.2
2022-01-27 13:25:40.3250,-0.44,-0.313,-0.794,1.09,-0.94,-0.52,-1.21,-0.76,0.01
2022-01-27 13:25:40.3350,-0.514,-0.38,-0.807,1.64,-0.35,-1.02,-1.21,-0.27,0.12
2022-01-27 13:25:40.3450,-0.558,-0.409,-0.838,2.33,0.42,-0.92,-1.13,0.06,0.3
2022-01-27 13:25:40.3550,-0.544,-0.372,-0.898,2.74,0.82,-0.65,-0.98,0.33,0.39
2022-01-27 13:25:40.3650,-0.498,-0.292,-0.95,2.6,0.57,-0.1,-0.74,0.52,0.38
2022-01-27 13:25:40.3760,-0.442,-0.209,-0.985,2.18,-0.13,0.37,-0.43,0.64,0.26
2022-01-27 13:25:40.3860,-0.37,-0.14,-1.001,1.67,-0.88,0.68,-0.08,0.67,0.06
2022-01-27 13:25:40.3960,-0.29,-0.09,-1.007,1.01,-1.52,0.81,-0.08,0.67,0.06
2022-01-27 13:25:40.4050,-0.219,-0.064,-1.004,0.3,-2.02,0.85,0.62,0.47,-0.51
2022-01-27 13:25:40.4160,-0.17,-0.089,-0.978,-0.34,-2.31,0.82,0.9,0.23,-0.78
2022-01-27 13:25:40.4260,-0.161,-0.155,-0.939,-0.77,-2.15,0.58,1.08,0.01,-0.94
2022-01-27 13:25:40.4360,-0.187,-0.245,-0.87,-0.82,-1.61,0.22,1.17,-0.19,-0.96
2022-01-27 13:25:40.4460,-0.218,-0.336,-0.823,-0.54,-0.85,-0.42,1.16,-0.37,-0.87
2022-01-27 13:25:40.4560,-0.23,-0.419,-0.786,-0.23,-0.08,-0.84,1.07,-0.53,-0.69
2022-01-27 13:25:40.4650,-0.216,-0.472,-0.752,-0.12,0.62,-1.15,0.91,-0.63,-0.45
2022-01-27 13:25:40.4760,-0.202,-0.505,-0.711,-0.28,1.04,-1.43,0.71,-0.64,-0.17
2022-01-27 13:25:40.4860,-0.202,-0.526,-0.68,-0.47,1.28,-1.79,0.48,-0.57,0.11
2022-01-27 13:25:40.4960,-0.219,-0.534,-0.671,-0.52,1.42,-2.06,0.48,-0.57,0.11
2022-01-27 13:25:40.5060,-0.228,-0.514,-0.688,-0.37,1.27,-1.93,0.09,-0.33,0.49
2022-01-27 13:25:40.5160,-0.222,-0.466,-0.725,-0.37,1.27,-1.93,0.04,-0.22,0.55
2022-01-27 13:25:40.5260,-0.199,-0.415,-0.783,-0.47,0.82,-1.56,0.04,-0.22,0.55
2022-01-27 13:25:40.5360,-0.169,-0.365,-0.83,-0.74,0.32,-0.99,0.31,-0.06,0.48
2022-01-27 13:25:40.5460,-0.152,-0.332,-0.87,-1.06,-0.17,-0.52,0.31,-0.0,0.46
2022-01-27 13:25:40.5560,-0.151,-0.324,-0.915,-1.25,-0.51,-0.1,0.8,0.03,0.5
2022-01-27 13:25:40.5660,-0.176,-0.352,-0.937,-1.28,-0.63,0.36,0.96,0.04,0.6
2022-01-27 13:25:40.5760,-0.224,-0.397,-0.923,-0.6,-0.04,0.51,0.98,0.07,0.76
2022-01-27 13:25:40.5860,-0.276,-0.427,-0.885,-0.12,0.21,0.17,0.84,0.09,0.91
2022-01-27 13:25:40.5960,-0.317,-0.429,-0.851,0.25,0.19,-0.15,0.84,0.09,0.91
2022-01-27 13:25:40.6200,-0.326,-0.397,-0.821,0.32,-0.13,-0.43,0.05,0.16,0.99
2022-01-27 13:25:40.6280,-0.314,-0.353,-0.831,0.17,-0.52,-0.34,-0.45,0.19,0.9
2022-01-27 13:25:40.6570,-0.298,-0.302,-0.853,-0.34,-1.79,0.89,-0.84,0.23,0.71
2022-01-27 13:25:40.6590,-0.282,-0.247,-0.907,-0.34,-1.79,0.89,-1.02,0.14,0.39
2022-01-27 13:25:40.6620,-0.264,-0.195,-0.968,-0.34,-1.79,0.89,-0.97,-0.03,0.02
2022-01-27 13:25:40.6640,-0.253,-0.165,-0.978,-0.45,-2.01,0.96,-0.71,-0.2,-0.33
2022-01-27 13:25:40.6590,-0.263,-0.179,-0.947,-0.45,-2.01,0.96,-0.36,-0.31,-0.57
2022-01-27 13:25:40.6750,-0.304,-0.244,-0.883,-0.36,-1.84,0.64,-0.13,-0.24,-0.6
2022-01-27 13:25:40.6850,-0.366,-0.357,-0.808,0.03,-1.19,0.01,-0.14,0.14,-0.36
2022-01-27 13:25:40.6950,-0.433,-0.488,-0.78,0.65,-0.09,-0.72,-0.39,0.66,-0.02
2022-01-27 13:25:40.7050,-0.457,-0.547,-0.864,1.34,1.22,-1.02,-0.71,1.01,0.2
2022-01-27 13:25:40.7160,-0.418,-0.505,-1.002,1.35,1.5,1.06,-0.92,1.02,0.27
2022-01-27 13:25:40.7260,-0.336,-0.421,-1.073,1.35,1.5,1.06,-0.92,1.02,0.27
2022-01-27 13:25:40.7360,-0.26,-0.338,-1.049,0.62,0.77,1.7,-0.66,0.84,0.23
2022-01-27 13:25:40.7470,-0.211,-0.266,-1.043,-0.05,0.04,1.41,-0.35,0.66,0.11
2022-01-27 13:25:40.7570,-0.194,-0.241,-1.056,-0.47,-0.61,1.31,-0.08,0.42,-0.04
2022-01-27 13:25:40.7670,-0.196,-0.269,-1.068,-0.59,-0.83,1.42,-0.08,0.42,-0.04
2022-01-27 13:25:40.7770,-0.211,-0.325,-1.054,-0.54,-0.56,1.53,0.12,-0.19,-0.35
2022-01-27 13:25:40.7870,-0.243,-0.387,-1.003,-0.38,-0.02,1.39,0.08,-0.44,-0.46
2022-01-27 13:25:40.7970,-0.276,-0.433,-0.936,0.21,1.01,0.26,0.01,-0.61,-0.52
2022-01-27 13:25:40.8060,-0.3,-0.46,-0.858,0.41,1.26,-0.49,-0.05,-0.65,-0.54
2022-01-27 13:25:40.8160,-0.314,-0.48,-0.791,0.41,1.26,-0.49,-0.07,-0.62,-0.51
2022-01-27 13:25:40.8270,-0.322,-0.491,-0.76,0.55,1.55,-1.43,-0.03,-0.55,-0.47
2022-01-27 13:25:40.8370,-0.318,-0.48,-0.749,0.55,1.55,-1.43,0.07,-0.49,-0.42
2022-01-27 13:25:40.8480,-0.308,-0.463,-0.743,0.48,1.43,-1.53,0.22,-0.42,-0.41
2022-01-27 13:25:40.8570,-0.297,-0.446,-0.727,0.35,1.25,-1.57,0.39,-0.32,-0.43
2022-01-27 13:25:40.8670,-0.288,-0.431,-0.712,0.23,1.04,-1.7,0.56,-0.2,-0.49
2022-01-27 13:25:40.8860,-0.279,-0.42,-0.714,0.04,0.67,-1.78,0.7,-0.13,-0.56
2022-01-27 13:25:40.8880,-0.273,-0.426,-0.726,-0.01,0.66,-1.64,0.8,-0.06,-0.61
2022-01-27 13:25:40.8970,-0.283,-0.456,-0.716,0.12,0.86,-1.71,0.82,0.04,-0.6
2022-01-27 13:25:40.9070,-0.299,-0.488,-0.717,0.3,1.09,-1.67,0.77,0.13,-0.54
2022-01-27 13:25:40.9180,-0.308,-0.505,-0.739,0.3,1.09,-1.67,0.66,0.19,-0.43
2022-01-27 13:25:40.9280,-0.304,-0.494,-0.777,0.42,1.19,-1.43,0.56,0.22,-0.32
2022-01-27 13:25:40.9370,-0.28,-0.436,-0.806,0.41,1.01,-1.04,0.49,0.24,-0.29
2022-01-27 13:25:40.9480,-0.246,-0.369,-0.844,0.2,0.39,-0.74,0.46,0.2,-0.34
2022-01-27 13:25:40.9570,-0.226,-0.32,-0.888,-0.1,-0.32,-0.36,0.45,0.15,-0.41
2022-01-27 13:25:40.9680,-0.215,-0.286,-0.91,-0.27,-0.84,0.09,0.44,0.12,-0.49
2022-01-27 13:25:40.9780,-0.213,-0.266,-0.928,-0.34,-1.22,0.32,0.42,0.1,-0.54
2022-01-27 13:25:40.9870,-0.211,-0.262,-0.938,-0.32,-1.56,0.61,0.36,0.11,-0.54
2022-01-27 13:25:40.9980,-0.211,-0.271,-0.933,-0.32,-1.56,0.61,0.36,0.11,-0.54
2022-01-27 13:25:41.0080,-0.226,-0.286,-0.925,-0.29,-1.51,0.58,0.2,0.36,-0.41
2022-01-27 13:25:41.0170,-0.241,-0.286,-0.938,0.11,-1.41,0.63,0.11,0.55,-0.32
2022-01-27 13:25:41.0280,-0.238,-0.284,-0.962,0.11,-1.41,0.63,0.0,0.74,-0.21
2022-01-27 13:25:41.0380,-0.224,-0.291,-0.989,0.14,-1.44,0.85,-0.13,0.92,-0.09
2022-01-27 13:25:41.0480,-0.209,-0.293,-1.026,0.07,-1.37,1.09,-0.26,1.08,0.05
2022-01-27 13:25:41.0580,-0.198,-0.292,-1.069,0.02,-1.34,1.44,-0.39,1.15,0.18
2022-01-27 13:25:41.0680,-0.186,-0.288,-1.113,0.0,-1.31,1.82,-0.49,1.11,0.27
2022-01-27 13:25:41.0780,-0.174,-0.276,-1.138,-0.02,-1.31,2.2,-0.55,0.96,0.31
2022-01-27 13:25:41.0880,-0.174,-0.272,-1.138,0.0,-1.36,2.37,-0.61,0.75,0.28
2022-01-27 13:25:41.0980,-0.19,-0.279,-1.109,0.21,-1.22,2.06,-0.67,0.51,0.16
2022-01-27 13:25:41.1080,-0.21,-0.297,-1.068,0.44,-0.99,1.62,-0.73,0.26,-0.01
2022-01-27 13:25:41.1180,-0.23,-0.319,-1.019,0.44,-0.99,1.62,-0.77,0.03,-0.2
2022-01-27 13:25:41.1280,-0.252,-0.354,-0.981,0.65,-0.7,1.1,-0.78,-0.18,-0.37
2022-01-27 13:25:41.1380,-0.273,-0.404,-0.952,0.87,-0.29,0.7,-0.78,-0.37,-0.48
2022-01-27 13:25:41.1480,-0.29,-0.469,-0.921,1.21,0.96,0.06,-0.76,-0.47,-0.49
2022-01-27 13:25:41.1580,-0.31,-0.537,-0.883,1.21,0.96,0.06,-0.7,-0.47,-0.43
2022-01-27 13:25:41.1680,-0.335,-0.591,-0.85,1.39,1.7,-0.33,-0.58,-0.37,-0.31
2022-01-27 13:25:41.1780,-0.35,-0.616,-0.829,1.73,2.57,-0.89,-0.4,-0.23,-0.17
2022-01-27 13:25:41.1890,-0.338,-0.61,-0.825,1.6,2.54,-0.94,-0.19,-0.1,-0.06
2022-01-27 13:25:41.1980,-0.303,-0.573,-0.825,1.25,2.18,-0.94,-0.19,-0.1,-0.06
Time,-0.258,-0.526,-0.824,0.82,1.71,-0.94,0.3,0.13,0.0
2022-01-27 13:25:41.2180,-0.22,-0.494,-0.823,0.46,1.36,-0.95,0.53,0.21,0.01
2022-01-27 13:25:41.2290,-0.185,-0.479,-0.824,0.13,1.17,-0.92,0.53,0.21,0.01
2022-01-27 13:25:41.2380,-0.156,-0.475,-0.825,-0.12,1.06,-0.88,0.85,0.32,0.1
2022-01-27 13:25:41.2480,-0.137,-0.484,-0.833,-0.28,1.07,-0.79,0.93,0.33,0.21
2022-01-27 13:25:41.2670,-0.129,-0.494,-0.842,-0.35,1.09,-0.67,0.96,0.31,0.37
2022-01-27 13:25:41.2680,-0.118,-0.494,-0.851,-0.44,1.01,-0.55,0.95,0.26,0.56
2022-01-27 13:25:41.2780,-0.11,-0.482,-0.86,-0.44,1.01,-0.55,0.95,0.26,0.56
2022-01-27 13:25:41.2870,-0.102,-0.46,-0.863,-0.52,0.82,-0.43,0.82,0.06,0.9
2022-01-27 13:25:41.2980,-0.092,-0.427,-0.865,-0.63,0.54,-0.37,0.72,-0.1,1.03
2022-01-27 13:25:41.3090,-0.08,-0.391,-0.852,-0.76,0.16,-0.31,0.61,-0.26,1.11
2022-01-27 13:25:41.3190,-0.066,-0.349,-0.839,-0.93,-0.23,-0.41,0.61,-0.26,1.11
2022-01-27 13:25:41.3290,-0.066,-0.314,-0.817,-1.14,-0.67,-0.51,0.4,-0.5,1.15
2022-01-27 13:25:41.3390,-0.072,-0.29,-0.8,-1.23,-1.03,-0.7,0.33,-0.6,1.09
2022-01-27 13:25:41.3490,-0.079,-0.272,-0.799,-1.27,-1.27,-0.85,0.28,-0.73,0.98
2022-01-27 13:25:41.3590,-0.086,-0.263,-0.791,-1.29,-1.45,-0.83,0.23,-0.84,0.85
2022-01-27 13:25:41.3690,-0.097,-0.282,-0.759,-1.33,-1.3470903128385545,-1.17,0.19,-0.84,0.74
2022-01-27 13:25:41.3800,-0.124,-0.309,-0.717,-1.33,-1.35,-1.17,0.14,-0.68,0.7
2022-01-27 13:25:41.3890,-0.171,-0.33,-0.694,-0.78,-0.88,-1.76,0.1,-0.41,0.74
2022-01-27 13:25:41.3990,-0.217,-0.339,-0.72,-0.39,-0.77,-1.5,0.06,-0.15,0.8
2022-01-27 13:25:41.4100,-0.242,-0.328,-0.764,-0.18,-0.87,-1.06,0.06,-0.15,0.8
2022-01-27 13:25:41.4190,-0.242,-0.304,-0.791,-0.2,-1.08,-0.8,-0.01,0.26,0.86
2022-01-27 13:25:41.4410,-0.233,-0.278,-0.788,-0.3,-1.3,-0.84,-0.1,0.5,0.83
2022-01-27 13:25:41.4420,-0.223,-0.259,-0.779,-0.3,-1.3,-0.84,-0.21,0.72,0.76
2022-01-27 13:25:41.4480,-0.211,-0.25,-0.788,-0.46,-1.5,-0.89,-0.34,0.9,0.65
2022-01-27 13:25:41.4590,-0.187,-0.246,-0.832,-0.46,-1.5,-0.89,-0.45,0.95,0.5
2022-01-27 13:25:41.4690,-0.157,-0.237,-0.887,-0.64,-1.49,-0.5,-0.51,0.91,0.3
2022-01-27 13:25:41.4790,-0.131,-0.235,-0.918,-1.06,-1.5,0.26,-0.52,0.84,0.04
2022-01-27 13:25:41.4890,-0.117,-0.242,-0.932,-1.06,-1.5,0.26,-0.47,0.76,-0.22
2022-01-27 13:25:41.4990,-0.126,-0.263,-0.931,-0.96,-1.14,0.32,-0.42,0.7,-0.45
2022-01-27 13:25:41.5100,-0.139,-0.3,-0.911,-0.96,-1.14,0.32,-0.4,0.76,-0.6
2022-01-27 13:25:41.5190,-0.155,-0.37,-0.892,-0.74,-0.75,0.09,-0.47,0.94,-0.62
2022-01-27 13:25:41.5290,-0.167,-0.446,-0.909,-0.49,-0.04,-0.13,-0.6,1.2,-0.47
2022-01-27 13:25:41.5390,-0.166,-0.506,-0.976,-0.26,0.75,-0.01,-0.73,1.39,-0.21
2022-01-27 13:25:41.5490,-0.151,-0.524,-1.062,-0.14,1.39,0.6,-0.73,1.39,-0.21
2022-01-27 13:25:41.5680,-0.123,-0.497,-1.116,-0.31,1.44,1.88,-0.68,1.33,0.32
2022-01-27 13:25:41.5700,-0.095,-0.437,-1.124,-0.31,1.44,1.88,-0.52,1.16,0.44
2022-01-27 13:25:41.5790,-0.077,-0.372,-1.094,-0.58,0.33,1.59,-0.32,0.97,0.43
2022-01-27 13:25:41.5890,-0.066,-0.322,-1.042,-0.61,-0.14,1.06,-0.32,0.97,0.43
2022-01-27 13:25:41.5990,-0.065,-0.293,-0.993,-0.61,-0.14,1.06,-0.06,0.6,0.18
2022-01-27 13:25:41.6080,-0.069,-0.281,-0.951,-0.48,-0.51,0.15,-0.05,0.43,0.02
2022-01-27 13:25:41.6190,-0.089,-0.293,-0.92,-0.25,-0.39,-0.16,-0.12,0.26,-0.11
2022-01-27 13:25:41.6290,-0.132,-0.321,-0.883,0.2,-0.1,-0.54,-0.2,0.14,-0.16
2022-01-27 13:25:41.6390,-0.19,-0.345,-0.833,0.2,-0.1,-0.54,-0.26,0.08,-0.15
2022-01-27 13:25:41.6490,-0.238,-0.352,-0.784,1.26,0.25,-1.52,-0.28,0.08,-0.12
2022-01-27 13:25:41.6600,-0.262,-0.34,-0.745,1.26,0.25,-1.52,-0.28,0.08,-0.12
2022-01-27 13:25:41.6700,-0.258,-0.309,-0.714,1.5,0.16,-1.92,-0.2,0.13,-0.11
2022-01-27 13:25:41.6800,-0.243,-0.274,-0.69,1.48,-0.13,-2.23,-0.14,0.19,-0.15
2022-01-27 13:25:41.6900,-0.232,-0.244,-0.686,1.35,-0.45,-2.47,-0.09,0.25,-0.21
2022-01-27 13:25:41.7000,-0.225,-0.224,-0.693,1.27,-0.73,-2.4522526627779007,-0.04,0.32,-0.28
2022-01-27 13:25:41.7100,-0.216,-0.215,-0.712,1.23,-0.93,-2.46,-0.04,0.32,-0.28
2022-01-27 13:25:41.7200,-0.203,-0.206,-0.757,1.19,-1.02,-2.27,0.09,0.41,-0.42
2022-01-27 13:25:41.7300,-0.189,-0.196,-0.798,1.1,-1.1,-1.83,0.19,0.42,-0.49
2022-01-27 13:25:41.7400,-0.176,-0.189,-0.822,1.02,-1.22,-1.44,0.34,0.4,-0.55
2022-01-27 13:25:41.7500,-0.155,-0.18,-0.873,0.95,-1.31,-1.2,0.34,0.4,-0.55
2022-01-27 13:25:41.7600,-0.125,-0.179,-0.936,0.79,-1.44,-0.69,0.58,0.05,-0.69
2022-01-27 13:25:41.7700,-0.103,-0.203,-0.988,0.34,-1.32,0.48,0.61,-0.23,-0.77
2022-01-27 13:25:41.7800,-0.091,-0.249,-1.013,0.34,-1.32,0.48,0.5,-0.49,-0.81
2022-01-27 13:25:41.7900,-0.101,-0.327,-1.035,0.22,-0.93,0.75,0.24,-0.68,-0.77
2022-01-27 13:25:41.8000,-0.136,-0.428,-1.066,0.6,0.77,1.29,-0.14,-0.67,-0.62
2022-01-27 13:25:41.8100,-0.182,-0.518,-1.112,1.0,1.68,1.73,-0.54,-0.52,-0.34
2022-01-27 13:25:41.8210,-0.205,-0.557,-1.197,1.0,1.68,1.73,-0.79,-0.37,-0.01
2022-01-27 13:25:41.8300,-0.188,-0.516,-1.281,1.2,2.12,2.55,-0.89,-0.28,0.24
2022-01-27 13:25:41.8400,-0.162,-0.42,-1.334,1.0,1.8,3.35,-0.91,-0.22,0.41
2022-01-27 13:25:41.8500,-0.165,-0.333,-1.327,0.71,0.18,3.74,-0.87,-0.1,0.5
2022-01-27 13:25:41.8600,-0.17,-0.272,-1.286,0.74,-0.33,3.32,-0.83,0.03,0.52
2022-01-27 13:25:41.8790,-0.163,-0.233,-1.268,0.66,-0.63,3.12,-0.8,0.07,0.47
2022-01-27 13:25:41.8800,-0.154,-0.219,-1.258,0.57,-0.69,3.0,-0.8,0.02,0.38
2022-01-27 13:25:41.8890,-0.161,-0.227,-1.228,0.62,-0.53,2.67,-0.81,-0.05,0.27
2022-01-27 13:25:41.8990,-0.195,-0.247,-1.173,0.62,-0.53,2.67,-0.82,-0.1,0.13
2022-01-27 13:25:41.9090,-0.236,-0.267,-1.108,0.94,-0.25,2.11,-0.82,-0.12,-0.01
2022-01-27 13:25:41.9200,-0.257,-0.28,-1.046,1.33,0.02,1.45,-0.82,-0.12,-0.01
2022-01-27 13:25:41.9310,-0.256,-0.288,-0.995,1.53,0.22,0.82,-0.78,0.03,-0.26
2022-01-27 13:25:41.9410,-0.244,-0.294,-0.98,1.51,0.38,0.31,-0.78,0.03,-0.26
2022-01-27 13:25:41.9500,-0.223,-0.292,-0.995,1.41,0.51,0.14,-0.7,0.22,-0.39
2022-01-27 13:25:41.9600,-0.204,-0.292,-1.002,1.08,0.62,0.32,-0.6,0.35,-0.45
2022-01-27 13:25:41.9710,-0.204,-0.283,-1.011,1.12,0.58,0.39,-0.41,0.48,-0.47
2022-01-27 13:25:41.9810,-0.188,-0.256,-1.025,1.12,0.58,0.39,-0.16,0.6,-0.5
2022-01-27 13:25:41.9900,-0.169,-0.223,-1.025,1.03,0.34,0.51,0.13,0.68,-0.59
2022-01-27 13:25:42.0010,-0.132,-0.176,-1.041,0.92,0.02,0.51,0.39,0.77,-0.72
2022-01-27 13:25:42.0110,-0.098,-0.146,-0.987,0.64,-0.46,0.67,0.59,1.02,-0.82
2022-01-27 13:25:42.0210,-0.057,-0.123,-1.0,0.4,-0.8,0.14,0.72,0.85,-0.94
2022-01-27 13:25:42.0310,0.01,-0.142,-1.001,0.11,-1.1,0.27,0.89,0.63,-1.02
2022-01-27 13:25:42.0410,0.054,-0.197,-0.949,-0.45,-0.98,0.3,1.09,0.4,-1.07
2022-01-27 13:25:42.0520,0.065,-0.225,-0.9,-0.8,-0.54,-0.18,1.28,0.14,-1.14
2022-01-27 13:25:42.0610,0.068,-0.242,-0.861,-0.85,-0.37,-0.64,1.47,-0.12,-1.22
2022-01-27 13:25:42.0710,0.073,-0.262,-0.815,-0.88,-0.29,-1.39,1.63,-0.32,-1.27
2022-01-27 13:25:42.0810,0.071,-0.295,-0.775,-0.88,-0.29,-1.39,1.71,-0.46,-1.23
2022-01-27 13:25:42.0910,0.058,-0.328,-0.769,-0.86,-0.12,-1.74,1.67,-0.61,-1.09
2022-01-27 13:25:42.1010,0.046,-0.351,-0.801,-0.74,0.05,-1.74,1.52,-0.81,-0.9
2022-01-27 13:25:42.1110,0.02,-0.386,-0.81,-0.66,0.12,-1.38,1.52,-0.81,-0.9
2022-01-27 13:25:42.1210,-0.006,-0.407,-0.81,-0.45,0.33,-1.24,1.14,-0.96,-0.43
2022-01-27 13:25:42.1310,-0.006,-0.388,-0.819,-0.26,0.42,-1.2,0.98,-1.04,-0.25
2022-01-27 13:25:42.1410,0.008,-0.362,-0.832,-0.34,0.14,-1.06,0.9,-1.2,-0.17
2022-01-27 13:25:42.1510,0.018,-0.349,-0.838,-0.57,-0.21,-0.89,0.9,-1.2,-0.17
2022-01-27 13:25:42.1610,0.009,-0.363,-0.826,-0.78,-0.41,-0.79,0.73,-1.58,-0.17
2022-01-27 13:25:42.1720,-0.036,-0.416,-0.801,-0.81,-0.34,-0.88,0.53,-1.63,-0.11
2022-01-27 13:25:42.1810,-0.089,-0.463,-0.795,-0.51,0.11,-1.08,0.53,-1.63,-0.11
2022-01-27 13:25:42.1920,-0.145,-0.506,-0.816,-0.14,0.54,-1.11,0.26,-1.56,0.05
2022-01-27 13:25:42.2020,-0.212,-0.57,-0.852,0.27,0.95,-0.88,-0.32,-1.39,0.65
2022-01-27 13:25:42.2110,-0.245,-0.597,-0.859,0.78,1.6,-0.52,-0.58,-1.25,0.94
2022-01-27 13:25:42.2210,-0.238,-0.527,-0.849,0.95,1.91,-0.44,-0.79,-1.1,1.1
2022-01-27 13:25:42.2310,-0.231,-0.411,-0.855,0.74,1.3,-0.55,-0.93,-0.99,1.15
2022-01-27 13:25:42.2420,-0.221,-0.323,-0.868,0.54,0.26,-0.51,-1.01,-0.96,1.11
2022-01-27 13:25:42.2520,-0.214,-0.293,-0.879,0.31,-0.5,-0.4,-1.06,-1.01,0.98
2022-01-27 13:25:42.2610,-0.222,-0.308,-0.874,0.11,-0.68,-0.31,-1.14,-1.09,0.82
2022-01-27 13:25:42.2720,-0.25,-0.333,-0.847,0.21,-0.04,-0.66,-1.3,-1.04,0.68
2022-01-27 13:25:42.2820,-0.289,-0.353,-0.775,0.21,-0.04,-0.66,-1.55,-0.65,0.61
2022-01-27 13:25:42.2930,-0.334,-0.374,-0.74,0.87,0.67,-1.77,-1.81,-0.09,0.6
2022-01-27 13:25:42.3020,-0.349,-0.363,-0.819,0.87,0.67,-1.77,-2.0,0.35,0.6
2022-01-27 13:25:42.3120,-0.318,-0.301,-0.941,1.02,0.75,-1.06,-2.0,0.35,0.6
2022-01-27 13:25:42.3210,-0.274,-0.233,-1.036,0.74,0.34,0.07,-1.78,0.68,0.45
2022-01-27 13:25:42.3320,-0.236,-0.178,-1.085,0.35,-0.13,0.94,-1.42,0.67,0.35
2022-01-27 13:25:42.3420,-0.196,-0.134,-1.068,0.03,-0.51,1.37,-1.42,0.67,0.35
2022-01-27 13:25:42.3520,-0.164,-0.107,-1.031,-0.31,-0.81,1.16,-0.67,0.59,0.07
2022-01-27 13:25:42.3620,-0.143,-0.093,-1.003,-0.57,-0.99,0.77,-0.44,0.51,-0.13
2022-01-27 13:25:42.3720,-0.138,-0.101,-0.98,-0.72,-0.96,0.22,-0.35,0.37,-0.35
2022-01-27 13:25:42.3820,-0.142,-0.115,-0.964,-0.72,-0.96,0.22,-0.35,0.15,-0.56
2022-01-27 13:25:42.3920,-0.153,-0.127,-0.933,-0.65,-0.79,0.05,-0.4,-0.12,-0.75
2022-01-27 13:25:42.4020,-0.169,-0.131,-0.887,-0.52,-0.65,-0.27,-0.44,-0.44,-0.91
2022-01-27 13:25:42.4120,-0.182,-0.124,-0.819,-0.37,-0.59,-0.72,-0.47,-0.73,-1.06
2022-01-27 13:25:42.4220,-0.203,-0.112,-0.735,-0.27,-0.64,-1.38,-0.49,-0.97,-1.2
2022-01-27 13:25:42.4320,-0.231,-0.103,-0.678,-0.12,-0.73,-2.2,-0.53,-1.13,-1.38
2022-01-27 13:25:42.4420,-0.263,-0.078,-0.637,0.08,-0.79,-2.74,-0.57,-1.2,-1.64
2022-01-27 13:25:42.4520,-0.302,-0.042,-0.624,0.6,-1.37,-3.25,-0.6,-1.21,-1.98
2022-01-27 13:25:42.4630,-0.334,-0.006,-0.612,0.84,-1.71,-3.34,-0.61,-1.12,-2.36
2022-01-27 13:25:42.4730,-0.343,0.017,-0.597,0.84,-1.71,-3.34,-0.58,-0.92,-2.71
2022-01-27 13:25:42.4820,-0.339,0.003,-0.618,0.8172132915258408,-1.8150112603604796,-3.2481885212659836,-0.49,-0.76,-2.98
2022-01-27 13:25:42.4930,-0.355,-0.045,-0.676,0.81,-1.82,-3.25,-0.35,-0.66,-3.1
2022-01-27 13:25:42.5020,-0.375,-0.071,-0.718,0.96,-1.38,-2.67,-0.21,-0.59,-3.1
2022-01-27 13:25:42.5120,-0.374,-0.077,-0.773,1.1477420666813851,-1.18,-1.7,-0.11,-0.64,-3.12
2022-01-27 13:25:42.5230,-0.347,-0.091,-0.829,1.14,-1.18,-1.7,-0.12,-0.77,-3.19
2022-01-27 13:25:42.5320,-0.331,-0.138,-0.854,0.88,-1.11,-1.14,-0.24,-0.9,-3.25
2022-01-27 13:25:42.5420,-0.353,-0.222,-0.869,0.71,-0.71,-0.88,-0.48,-0.97,-3.25
2022-01-27 13:25:42.5530,-0.431,-0.338,-0.911,0.91,0.06,-0.71,-0.77,-0.95,-3.16
2022-01-27 13:25:42.5630,-0.533,-0.465,-0.962,1.64,1.17,-0.29,-1.06,-0.8,-2.91
2022-01-27 13:25:42.5730,-0.597,-0.534,-1.012,2.63,2.42,0.22,-1.06,-0.8,-2.91
2022-01-27 13:25:42.5830,-0.6,-0.495,-1.064,3.31,2.81,1.19,-1.35,-0.11,-2.3
2022-01-27 13:25:42.5930,-0.593,-0.405,-1.132,3.31,2.81,1.19,-1.34,0.29,-2.08
2022-01-27 13:25:42.6030,-0.582,-0.329,-1.202,3.28,2.0,1.83,-1.26,0.66,-1.9
2022-01-27 13:25:42.6130,-0.555,-0.27,-1.247,3.1,0.81,2.88,-1.15,0.93,-1.79
2022-01-27 13:25:42.6230,-0.511,-0.234,-1.256,2.79,0.53,2.93,-1.01,1.13,-1.73
2022-01-27 13:25:42.6330,-0.453,-0.221,-1.226,2.36,0.46,2.59,-0.91,1.26,-1.73
2022-01-27 13:25:42.6430,-0.392,-0.199,-1.18,2.36,0.46,2.59,-0.9,1.31,-1.83
2022-01-27 13:25:42.6530,-0.358,-0.175,-1.109,1.91,0.29,2.09,-0.97,1.4,-1.98
2022-01-27 13:25:42.6630,-0.332,-0.154,-1.004,1.74,0.11,1.36,-1.04,1.61,-2.18
2022-01-27 13:25:42.6730,-0.291,-0.124,-0.935,1.45,-0.26,-0.43,-0.99,1.74,-2.33
2022-01-27 13:25:42.6830,-0.213,-0.08,-1.005,0.88,-0.63,0.22,-0.83,1.55,-2.47
2022-01-27 13:25:42.6930,-0.153,-0.06,-1.072,0.88,-0.63,0.22,-0.83,1.55,-2.47
2022-01-27 13:25:42.7030,-0.11,-0.087,-1.102,0.47,-0.78,0.85,-0.27,0.69,-2.58
2022-01-27 13:25:42.7130,-0.073,-0.134,-1.126,0.18,-0.5,1.13,0.01,0.16,-2.46
2022-01-27 13:25:42.7230,-0.08,-0.19,-1.062,0.005946472138166428,0.48,0.73,0.19,-0.16,-2.2
2022-01-27 13:25:42.7330,-0.132,-0.267,-0.994,0.0,0.48,0.73,0.21,-0.36,-1.93
2022-01-27 13:25:42.7430,-0.181,-0.324,-0.985,0.52,1.21,0.07,0.06,-0.6,-1.7
2022-01-27 13:25:42.7540,-0.202,-0.353,-0.995,1.14,2.01,0.09,-0.16,-0.85,-1.51
2022-01-27 13:25:42.7640,-0.208,-0.358,-0.979,1.13,2.07,-0.06,-0.39,-1.02,-1.33
2022-01-27 13:25:42.7740,-0.206,-0.336,-0.929,1.02,1.89,-0.55,-0.51,-1.05,-1.17
2022-01-27 13:25:42.7830,-0.219,-0.291,-0.867,1.02,1.89,-0.55,-0.5,-0.93,-1.05
2022-01-27 13:25:42.7930,-0.234,-0.237,-0.824,1.07,1.49,-1.15,-0.33,-0.72,-0.97
2022-01-27 13:25:42.8040,-0.236,-0.196,-0.818,1.15,1.0,-1.57,-0.07,-0.52,-0.93
2022-01-27 13:25:42.8130,-0.221,-0.157,-0.835,1.12,0.6,-1.63,0.24,-0.34,-0.92
2022-01-27 13:25:42.8240,-0.201,-0.131,-0.846,0.95,0.21,-1.46,0.53,-0.18,-0.91
2022-01-27 13:25:42.8330,-0.18,-0.134,-0.85,0.73,-0.09,-1.34,0.53,-0.18,-0.91
2022-01-27 13:25:42.8430,-0.156,-0.15,-0.846,0.53,-0.13,-1.29,0.95,0.04,-0.86
2022-01-27 13:25:42.8530,-0.142,-0.172,-0.838,0.18,0.05,-1.38,1.05,0.09,-0.79
2022-01-27 13:25:42.8640,-0.129,-0.194,-0.829,0.18,0.05,-1.38,1.05,0.09,-0.79
2022-01-27 13:25:42.8740,-0.11,-0.203,-0.82,-0.09,0.13,-1.53,1.14,0.07,-0.73
2022-01-27 13:25:42.8840,-0.087,-0.188,-0.819,-0.29,-0.14,-1.51,1.15,0.02,-0.77
2022-01-27 13:25:42.8950,-0.076,-0.186,-0.822,-0.29,-0.14,-1.51,1.16,-0.04,-0.84
2022-01-27 13:25:42.9040,-0.078,-0.197,-0.839,-0.38,-0.27,-1.46,1.16,-0.15,-0.9
2022-01-27 13:25:42.9140,-0.087,-0.217,-0.882,-0.35,-0.28,-1.26,1.07,-0.34,-0.93
2022-01-27 13:25:42.9240,-0.092,-0.237,-0.937,-0.26,-0.2,-0.82,0.92,-0.62,-0.92
2022-01-27 13:25:42.9340,-0.09,-0.264,-0.961,-0.3,0.07,0.01,0.71,-0.86,-0.85
2022-01-27 13:25:42.9440,-0.105,-0.314,-0.938,-0.21,0.49,-0.19,0.43,-0.92,-0.68
2022-01-27 13:25:42.9540,-0.158,-0.373,-0.923,0.23,1.04,-0.32,0.08,-0.88,-0.4
2022-01-27 13:25:42.9650,-0.208,-0.419,-0.957,0.23,1.04,-0.32,-0.28,-0.85,-0.08
2022-01-27 13:25:42.9740,-0.218,-0.425,-1.013,0.65,1.49,0.04,-0.56,-0.92,0.2
2022-01-27 13:25:42.9840,-0.203,-0.384,-1.047,0.66,1.58,0.58,-0.77,-1.05,0.39
2022-01-27 13:25:42.9940,-0.194,-0.323,-1.059,0.42,1.25,0.91,-0.92,-1.18,0.5
2022-01-27 13:25:43.0050,-0.208,-0.3,-1.044,0.22,0.74,1.02,-0.92,-1.18,0.5
2022-01-27 13:25:43.0160,-0.242,-0.323,-1.037,0.43,0.97,0.81,-1.38,-1.22,0.78
2022-01-27 13:25:43.0250,-0.288,-0.351,-1.029,0.43,0.97,0.81,-1.73,-1.05,1.04
2022-01-27 13:25:43.0350,-0.327,-0.353,-1.025,0.75,1.4,0.72,-2.09,-0.78,1.3
2022-01-27 13:25:43.0450,-0.347,-0.315,-1.045,1.03,1.63,0.67,-2.38,-0.5,1.49
2022-01-27 13:25:43.0540,-0.341,-0.231,-1.082,1.13,1.5,0.83,-2.52,-0.28,1.6
2022-01-27 13:25:43.0640,-0.316,-0.125,-1.115,1.02,0.94,1.17,-2.52,-0.28,1.6
2022-01-27 13:25:43.0750,-0.275,-0.033,-1.124,0.72,0.18,1.47,-2.44,0.0,1.59
2022-01-27 13:25:43.0850,-0.236,0.024,-1.101,0.31,-0.45,1.54,-2.29,0.11,1.52
2022-01-27 13:25:43.0950,-0.201,0.047,-1.068,-0.08,-0.74,1.29,-2.29,0.11,1.52
2022-01-27 13:25:43.1050,-0.168,0.062,-1.036,-0.42,-0.72,0.96,-1.99,0.22,1.32
2022-01-27 13:25:43.1150,-0.139,0.077,-1.022,-0.73,-0.63,0.64,-1.85,0.17,1.15
2022-01-27 13:25:43.1250,-0.135,0.1,-1.015,-1.0,-0.56,0.5,-1.68,0.08,0.92
2022-01-27 13:25:43.1350,-0.144,0.11,-0.989,-1.01,-0.59,0.44,-1.4450455904006958,0.08,0.92
2022-01-27 13:25:43.1450,-0.155,0.1,-0.959,-0.91,-0.51,0.19,-1.15,-0.06,0.4
2022-01-27 13:25:43.1540,-0.183,0.096,-0.917,-0.8,-0.27,-0.1,-1.15,-0.06,0.4
2022-01-27 13:25:43.1640,-0.211,0.077,-0.85,-0.26,0.13,-1.15,-0.55,-0.01,-0.01
2022-01-27 13:25:43.1750,-0.226,0.048,-0.798,-0.26,0.13,-1.15,-0.31,0.06,-0.17
2022-01-27 13:25:43.1840,-0.23,0.028,-0.761,-0.12,0.47,-1.66,-0.13,0.13,-0.3
2022-01-27 13:25:43.1950,-0.238,0.009,-0.727,-0.07,0.68,-2.02,-0.01,0.2,-0.42
2022-01-27 13:25:43.2050,-0.248,-0.003,-0.699,0.02,0.86,-2.36,0.12,0.25,-0.55
2022-01-27 13:25:43.2150,-0.268,0.006,-0.675,0.13,0.97,-2.64,0.12,0.25,-0.55
2022-01-27 13:25:43.2250,-0.284,0.031,-0.651,0.35,0.86,-2.88,0.45,0.44,-0.91
2022-01-27 13:25:43.2360,-0.29,0.052,-0.638,0.54,0.57,-3.13,0.66,0.56,-1.13
2022-01-27 13:25:43.2450,-0.294,0.056,-0.631,0.64,0.28,-3.27,0.84,0.69,-1.32
2022-01-27 13:25:43.2560,-0.302,0.05,-0.635,0.72,0.15,-3.36,1.0,0.81,-1.51
2022-01-27 13:25:43.2650,-0.313,0.053,-0.657,0.87,0.09,-3.34,1.0,0.9,-1.7
2022-01-27 13:25:43.2750,-0.314,0.065,-0.675,1.04,-0.07,-3.15,1.11,0.9,-1.7
2022-01-27 13:25:43.2860,-0.312,0.066,-0.685,1.22,-0.49,-2.92,1.22,1.15,-2.03
2022-01-27 13:25:43.2950,-0.304,0.071,-0.706,1.25,-0.69,-2.74,1.26,1.31,-2.14
2022-01-27 13:25:43.3050,-0.294,0.094,-0.75,1.29,-1.07,-2.33,1.26,1.31,-2.14
2022-01-27 13:25:43.3150,-0.29,0.137,-0.826,1.39,-1.67,-1.6,1.46,1.48,-2.42
2022-01-27 13:25:43.3250,-0.279,0.187,-0.921,1.44,-2.33,-0.68,1.63,1.36,-2.61
2022-01-27 13:25:43.3350,-0.237,0.228,-1.04,1.16,-2.93,0.48,1.8,0.98,-2.82
2022-01-27 13:25:43.3450,-0.196,0.25,-1.152,1.16,-2.93,0.48,1.92,0.36,-3.12
2022-01-27 13:25:43.3550,-0.186,0.195,-1.202,0.85,-3.36,1.58,1.87,-0.38,-3.42
2022-01-27 13:25:43.3650,-0.283,0.018,-1.192,0.81,-3.04,2.09,1.46,-0.96,-3.54
2022-01-27 13:25:43.3750,-0.475,-0.253,-1.17,1.74,-1.51,2.02,0.68,-1.23,-3.37
2022-01-27 13:25:43.3860,-0.616,-0.461,-1.138,3.57,1.0,1.83,-0.23,-1.08,-3.04
2022-01-27 13:25:43.3950,-0.647,-0.508,-1.106,4.88,2.98,1.54,-1.11,-0.66,-2.71
2022-01-27 13:25:43.4060,-0.671,-0.454,-1.221,5.15,3.46,1.23,-1.82,-0.09,-2.32
2022-01-27 13:25:43.4160,-0.713,-0.374,-1.41,5.37,3.04,2.34,-2.16,0.58,-1.81
2022-01-27 13:25:43.4260,-0.706,-0.242,-1.622,5.86,1.32,6.21,-2.12,1.03,-1.32
2022-01-27 13:25:43.4360,-0.644,-0.074,-1.813,5.86,1.32,6.21,-1.83,1.15,-0.95
2022-01-27 13:25:43.4460,-0.573,0.059,-1.905,5.36,-0.15,8.06,-1.42,1.2,-0.68
2022-01-27 13:25:43.4560,-0.516,0.139,-1.898,4.78,-1.29,8.94,-1.42,1.2,-0.68
2022-01-27 13:25:43.4660,-0.461,0.211,-1.882,4.34,-1.96,8.85,-0.67,0.93,-0.59
2022-01-27 13:25:43.4760,-0.406,0.259,-1.831,3.92,-2.59,8.68,-0.46,0.66,-0.75
2022-01-27 13:25:43.4860,-0.365,0.246,-1.719,3.46,-3.0,8.17,-0.36,0.38,-0.96
2022-01-27 13:25:43.4960,-0.354,0.188,-1.589,3.12,-2.83,7.07,-0.4,0.13,-1.11
2022-01-27 13:25:43.5060,-0.371,0.105,-1.471,3.04,-2.23,5.79,-0.53,-0.09,-1.16
2022-01-27 13:25:43.5160,-0.388,0.023,-1.363,3.22,-1.38,4.63,-0.71,-0.25,-1.1
2022-01-27 13:25:43.5260,-0.39,-0.027,-1.25,3.37,-0.52,3.57,-0.81,-0.37,-0.99
2022-01-27 13:25:43.5360,-0.371,-0.029,-1.148,3.37,0.04,2.46,-0.8,-0.47,-0.9
2022-01-27 13:25:43.5460,-0.337,-0.001,-1.065,3.14,0.14,1.46,-0.65,-0.61,-0.84
2022-01-27 13:25:43.5560,-0.301,0.034,-0.995,2.75,-0.06,0.65,-0.42,-0.78,-0.83
2022-01-27 13:25:43.5660,-0.271,0.058,-0.92,1.96,-0.56,-0.76,-0.17,-0.97,-0.88
2022-01-27 13:25:43.5760,-0.251,0.068,-0.832,1.96,-0.56,-0.76,0.05,-1.11,-0.98
2022-01-27 13:25:43.5860,-0.242,0.06,-0.716,1.66,-0.66,-1.62,0.2,-1.14,-1.1
2022-01-27 13:25:43.5960,-0.238,0.04,-0.613,1.46,-0.59,-2.74,0.28,-1.11,-1.22
2022-01-27 13:25:43.6060,-0.235,0.018,-0.536,1.18,-0.25,-4.49,0.3,-1.04,-1.33
2022-01-27 13:25:43.6170,-0.232,-0.003,-0.484,1.05,-0.09,-4.99,0.3,-1.04,-1.33
2022-01-27 13:25:43.6440,-0.228,-0.015,-0.451,0.8,0.05,-5.56,0.34,-0.86,-1.55
Time,-0.223,-0.028,-0.423,0.8,0.05,-5.56,0.35,-0.78,-1.66
2022-01-27 13:25:43.6450,-0.217,-0.044,-0.411,0.8,0.05,-5.56,0.35,-0.7,-1.73
2022-01-27 13:25:43.6550,-0.219,-0.068,-0.41,0.63,0.33,-5.67,0.36,-0.62,-1.77
2022-01-27 13:25:43.6660,-0.226,-0.09,-0.411,0.63,0.33,-5.67,0.41,-0.5,-1.75
2022-01-27 13:25:43.6750,-0.236,-0.107,-0.416,0.66,0.48,-5.65,0.49,-0.39,-1.71
2022-01-27 13:25:43.6860,-0.247,-0.115,-0.435,0.71,0.58,-5.59,0.57,-0.28,-1.66
2022-01-27 13:25:43.6960,-0.26,-0.121,-0.467,0.8,0.58,-5.4,0.6,-0.2,-1.61
2022-01-27 13:25:43.7070,-0.274,-0.13,-0.513,1.04,0.57,-4.62,0.6,-0.13,-1.58
2022-01-27 13:25:43.7170,-0.283,-0.14,-0.576,1.04,0.57,-4.62,0.54,-0.11,-1.57
2022-01-27 13:25:43.7300,-0.306,-0.15,-0.654,1.13,0.52,-3.99,0.42,-0.11,-1.54
Time,-0.338,-0.159,-0.725,1.36,0.55,-3.22,0.42,-0.11,-1.54
2022-01-27 13:25:43.7500,-0.366,-0.158,-0.779,1.68,0.59,-2.52,0.16,-0.0,-1.53
2022-01-27 13:25:43.7600,-0.38,-0.148,-0.83,1.98,0.55,-1.99,0.06,0.2,-1.5
2022-01-27 13:25:43.7700,-0.39,-0.139,-0.909,2.16,0.42,-1.5,-0.04,0.52,-1.39
2022-01-27 13:25:43.7800,-0.406,-0.145,-1.025,2.34,0.32,-0.73,-0.14,0.89,-1.19
Time,-0.417,-0.144,-1.185,2.6,0.39,0.39,-0.2,1.13,-0.93
2022-01-27 13:25:43.8000,-0.392,-0.122,-1.346,2.83,0.39,1.94,-0.2,1.23,-0.68
2022-01-27 13:25:43.8020,-0.337,-0.093,-1.443,2.71,0.18,3.5,-0.12,1.28,-0.46
2022-01-27 13:25:43.8120,-0.286,-0.062,-1.48,2.3,-0.1,4.44,-0.0,1.24,-0.28
2022-01-27 13:25:43.8300,-0.228,0.002,-1.508,1.92,-0.41,4.8,0.12,1.11,-0.18
Time,-0.173,0.073,-1.495,1.45,-1.05,5.07,0.22,0.9,-0.19
2022-01-27 13:25:43.8420,-0.138,0.11,-1.454,0.99,-1.77,4.94,0.27,0.6,-0.32
2022-01-27 13:25:43.8600,-0.125,0.117,-1.372,0.71,-2.16,4.53,0.27,0.33,-0.51
2022-01-27 13:25:43.8700,-0.133,0.116,-1.248,0.6,-2.26,3.73,0.21,0.15,-0.72
2022-01-27 13:25:43.8800,-0.148,0.103,-1.109,0.7,-2.27,2.51,0.09,0.09,-0.92
2022-01-27 13:25:43.8900,-0.174,0.057,-0.999,0.87,-2.15,1.15,-0.11,0.08,-1.1
2022-01-27 13:25:43.9000,-0.193,0.011,-0.934,1.15,-1.68,0.07,-0.42,0.11,-1.24
2022-01-27 13:25:43.9110,-0.197,-0.03,-0.875,1.36,-1.17,-0.58,-0.81,0.2,-1.34
2022-01-27 13:25:43.9200,-0.192,-0.064,-0.835,1.44,-0.68,-1.17,-1.19,0.39,-1.34
2022-01-27 13:25:43.9310,-0.172,-0.07,-0.819,1.45,-0.23,-1.58,-1.43,0.7,-1.23
Time,-0.13,-0.035,-0.873,1.34,-0.03,-1.75,-1.43,0.91,-1.05
2022-01-27 13:25:43.9510,-0.08,0.016,-0.994,1.03,-0.24,-1.24,-1.26,0.92,-0.83
2022-01-27 13:25:43.9520,-0.063,0.04,-1.076,0.63,-0.63,-0.05,-0.99,0.85,-0.61
2022-01-27 13:25:43.9710,-0.06,0.064,-1.12,0.55,-0.77,0.75,-0.74,0.76,-0.44
Time,-0.052,0.09,-1.116,0.59,-0.94,1.18,-0.56,0.71,-0.36
2022-01-27 13:25:43.9910,-0.039,0.105,-1.072,0.58,-1.14,1.13,-0.49,0.74,-0.37
2022-01-27 13:25:44.0010,-0.027,0.113,-1.014,0.54,-1.24,0.7,-0.53,0.8,-0.43
2022-01-27 13:25:44.0110,-0.001,0.104,-1.033,0.49,-1.25,0.13,-0.63,0.67,-0.58
2022-01-27 13:25:44.0210,0.041,0.087,-1.024,0.29,-1.1,0.33,-0.69,0.5,-0.73
2022-01-27 13:25:44.0310,0.064,0.073,-1.011,-0.07,-0.86,0.24,-0.74,0.33,-0.87
Time,0.072,0.06,-0.985,-0.28,-0.64,0.11,-0.74,0.33,-0.87
2022-01-27 13:25:44.0510,0.069,0.028,-0.957,-0.35,-0.43,-0.15,-0.84,-0.06,-1.03
2022-01-27 13:25:44.0610,0.063,-0.006,-0.926,-0.34,-0.03,-0.41,-0.89,-0.23,-1.0
2022-01-27 13:25:44.0710,0.038,-0.035,-0.905,-0.3,0.4,-0.72,-0.94,-0.36,-0.91
2022-01-27 13:25:44.0810,-0.009,-0.062,-0.877,-0.1,0.78,-0.92,-1.0,-0.42,-0.79
2022-01-27 13:25:44.0910,-0.059,-0.079,-0.856,0.31,1.15,-1.19,-1.07,-0.42,-0.66
2022-01-27 13:25:44.1010,-0.097,-0.081,-0.847,0.76,1.43,-1.4,-1.13,-0.4,-0.56
2022-01-27 13:25:44.1110,-0.119,-0.056,-0.844,1.1,1.57,-1.48,-1.17,-0.34,-0.51
2022-01-27 13:25:44.1210,-0.121,-0.01,-0.839,1.28,1.43,-1.49,-1.18,-0.26,-0.53
2022-01-27 13:25:44.1310,-0.123,0.03,-0.839,1.27,1.1,-1.53,-1.18,-0.14,-0.57
2022-01-27 13:25:44.1410,-0.124,0.064,-0.844,1.28,0.83,-1.52,-1.13,0.04,-0.62
2022-01-27 13:25:44.1510,-0.116,0.084,-0.848,1.29,0.6,-1.46,-1.03,0.28,-0.66
2022-01-27 13:25:44.1610,-0.097,0.097,-0.885,1.23,0.5,-1.4,-0.89,0.48,-0.69
2022-01-27 13:25:44.1710,-0.074,0.121,-0.941,1.09,0.46,-1.03,-0.72,0.6,-0.73
2022-01-27 13:25:44.1820,-0.059,0.155,-0.991,0.92,0.28,-0.47,-0.51,0.64,-0.82
2022-01-27 13:25:44.1920,-0.053,0.189,-1.011,0.82,-0.01,0.03,-0.28,0.62,-0.92
2022-01-27 13:25:44.2020,-0.058,0.2,-1.004,0.81,-0.32,0.23,-0.04,0.63,-1.04
2022-01-27 13:25:44.2120,-0.073,0.186,-0.981,0.9,-0.42,0.16,0.19,0.66,-1.15
2022-01-27 13:25:44.2220,-0.09,0.163,-0.979,1.1,-0.3,-0.07,0.37,0.68,-1.24
2022-01-27 13:25:44.2320,-0.097,0.14,-1.001,1.3,-0.11,-0.09,0.5,0.69,-1.31
2022-01-27 13:25:44.2420,-0.097,0.11,-1.024,1.42,0.07,0.12,0.6,0.7,-1.35
2022-01-27 13:25:44.2520,-0.107,0.078,-1.053,1.48,0.31,0.34,0.67,0.69,-1.37
2022-01-27 13:25:44.2620,-0.115,0.05,-1.076,1.62,0.57,0.63,0.74,0.63,-1.39
2022-01-27 13:25:44.2720,-0.117,0.03,-1.071,1.74,0.77,0.84,0.79,0.61,-1.4
2022-01-27 13:25:44.2820,-0.114,0.015,-1.045,1.8,0.9,0.79,0.84,0.6,-1.42
2022-01-27 13:25:44.2920,-0.11,0.002,-1.032,1.81,0.98,0.53,0.88,0.55,-1.46
2022-01-27 13:25:44.3020,-0.103,-0.005,-1.036,1.81,1.03,0.39,0.89,0.47,-1.5
2022-01-27 13:25:44.3120,-0.095,-0.011,-1.039,1.77,1.03,0.43,0.87,0.4,-1.55
2022-01-27 13:25:44.3240,-0.093,-0.02,-1.045,1.71,1.04,0.51,0.84,0.36,-1.59
2022-01-27 13:25:44.3340,-0.103,-0.029,-1.062,1.71,1.04,0.51,0.81,0.35,-1.61
2022-01-27 13:25:44.3440,-0.112,-0.04,-1.093,1.82,1.06,0.67,0.8,0.33,-1.61
2022-01-27 13:25:44.3540,-0.112,-0.049,-1.121,1.93,1.11,0.97,0.81,0.33,-1.57
2022-01-27 13:25:44.3640,-0.104,-0.047,-1.138,1.96,1.12,1.24,0.85,0.31,-1.51
2022-01-27 13:25:44.3730,-0.092,-0.034,-1.157,1.89,1.04,1.41,0.85,0.31,-1.51
2022-01-27 13:25:44.3840,-0.069,-0.017,-1.178,1.79,0.84,1.59,0.89,0.14,-1.4
2022-01-27 13:25:44.3940,-0.05,-0.001,-1.193,1.58,0.6,1.8,0.87,0.03,-1.39
2022-01-27 13:25:44.4040,-0.049,0.013,-1.198,1.38,0.37,1.93,0.82,-0.04,-1.4
2022-01-27 13:25:44.4140,-0.055,0.03,-1.211,1.36,0.17,1.98,0.76,-0.08,-1.44
2022-01-27 13:25:44.4240,-0.065,0.044,-1.234,1.4,-0.05,2.11,0.68,-0.18,-1.54
2022-01-27 13:25:44.4340,-0.077,0.058,-1.249,1.48,-0.23,2.33,0.6,-0.26,-1.66
2022-01-27 13:25:44.4440,-0.095,0.07,-1.233,1.57,-0.42,2.48,0.53,-0.3,-1.76
2022-01-27 13:25:44.4540,-0.112,0.084,-1.224,1.71,-0.57,2.32,0.53,-0.3,-1.76
2022-01-27 13:25:44.4640,-0.119,0.091,-1.234,1.87,-0.81,2.31,0.35,-0.37,-1.86
2022-01-27 13:25:44.4740,-0.125,0.084,-1.216,1.87,-0.81,2.31,0.24,-0.25,-1.84
2022-01-27 13:25:44.4840,-0.135,0.092,-1.214,1.91,-0.75,2.14,0.15,-0.15,-1.79
2022-01-27 13:25:44.4940,-0.139,0.119,-1.24,2.0,-0.83,2.12,0.09,-0.15,-1.74
2022-01-27 13:25:44.5040,-0.137,0.138,-1.239,2.01,-1.09,2.37,0.09,-0.17,-1.7
2022-01-27 13:25:44.5140,-0.139,0.156,-1.186,1.97,-1.28,2.36,0.09,-0.17,-1.7
2022-01-27 13:25:44.5250,-0.144,0.177,-1.133,1.99,-1.45,1.84,0.16,0.01,-1.67
2022-01-27 13:25:44.5340,-0.141,0.187,-1.117,2.04,-1.66,1.32,0.17,0.12,-1.64
2022-01-27 13:25:44.5440,-0.13,0.186,-1.135,2.02,-1.76,1.16,0.16,0.18,-1.6
2022-01-27 13:25:44.5540,-0.127,0.186,-1.148,1.94,-1.75,1.34,0.17,0.25,-1.56
2022-01-27 13:25:44.5640,-0.132,0.19,-1.135,1.93,-1.76,1.48,0.22,0.33,-1.53
2022-01-27 13:25:44.5740,-0.13,0.203,-1.107,2.02,-1.81,1.35,0.32,0.4,-1.5
2022-01-27 13:25:44.5850,-0.106,0.219,-1.084,2.03,-1.97,1.08,0.45,0.43,-1.47
2022-01-27 13:25:44.5950,-0.069,0.229,-1.058,1.84,-2.16,0.85,0.6,0.39,-1.44
2022-01-27 13:25:44.6040,-0.035,0.233,-1.03,1.52,-2.31,0.6,0.76,0.29,-1.41
2022-01-27 13:25:44.6150,-0.019,0.231,-0.981,1.21,-2.41,0.33,0.89,0.18,-1.41
2022-01-27 13:25:44.6250,-0.01,0.223,-0.929,1.07,-2.47,-0.14,0.98,0.03,-1.42
2022-01-27 13:25:44.6350,0.001,0.21,-0.864,0.98,-2.47,-0.66,1.03,-0.05,-1.44
2022-01-27 13:25:44.6450,0.012,0.193,-0.797,0.87,-2.44,-1.29,1.04,-0.09,-1.44
2022-01-27 13:25:44.6550,0.018,0.161,-0.757,0.7,-2.14,-2.33,1.05,-0.09,-1.4
2022-01-27 13:25:44.6650,0.017,0.128,-0.736,0.72,-1.91,-2.53,1.08,-0.04,-1.28
2022-01-27 13:25:44.6750,0.012,0.095,-0.727,0.72,-1.91,-2.53,1.16,0.03,-1.11
2022-01-27 13:25:44.6850,0.006,0.066,-0.736,0.78,-1.69,-2.61,1.28,0.09,-0.89
2022-01-27 13:25:44.6950,-0.0,0.046,-0.729,0.86,-1.53,-2.51,1.42,0.18,-0.66
2022-01-27 13:25:44.7050,0.002,0.035,-0.708,0.94,-1.47,-2.56,1.52,0.3,-0.46
2022-01-27 13:25:44.7150,0.02,0.035,-0.702,0.95,-1.5,-2.75,1.54,0.39,-0.27
2022-01-27 13:25:44.7250,0.045,0.029,-0.71,0.82,-1.65,-2.78,1.54,0.39,-0.27
2022-01-27 13:25:44.7350,0.067,0.005,-0.72,0.62,-1.72,-2.69,1.37,0.43,0.08
2022-01-27 13:25:44.7450,0.087,-0.016,-0.73,0.44,-1.62,-2.57,1.24,0.34,0.25
2022-01-27 13:25:44.7550,0.1,-0.028,-0.74,0.27,-1.53,-2.44,1.11,0.18,0.38
2022-01-27 13:25:44.7650,0.105,-0.035,-0.732,0.08,-1.54,-2.38,0.97,0.02,0.49
2022-01-27 13:25:44.7760,0.107,-0.044,-0.718,0.08,-1.54,-2.38,0.85,-0.14,0.58
2022-01-27 13:25:44.7850,0.106,-0.051,-0.71,0.03,-1.53,-2.51,0.77,-0.31,0.64
2022-01-27 13:25:44.7950,0.107,-0.054,-0.708,-0.01,-1.54,-2.58,0.74,-0.5,0.68
2022-01-27 13:25:44.8050,0.109,-0.06,-0.71,-0.19,-1.6,-2.56,0.73,-0.68,0.7
2022-01-27 13:25:44.8160,0.119,-0.064,-0.718,-0.19,-1.6,-2.56,0.73,-0.86,0.7
2022-01-27 13:25:44.8260,0.13,-0.061,-0.723,-0.62,-1.75,-2.41,0.75,-1.04,0.67
2022-01-27 13:25:44.8350,0.134,-0.059,-0.717,-0.62,-1.75,-2.41,0.8,-1.18,0.62
2022-01-27 13:25:44.8450,0.128,-0.062,-0.703,-0.8,-1.85,-2.47,0.85,-1.28,0.58
2022-01-27 13:25:44.8550,0.117,-0.068,-0.703,-0.87,-1.9,-2.59,0.87,-1.35,0.57
2022-01-27 13:25:44.8660,0.11,-0.085,-0.703,-0.92,-1.92,-2.57,0.84,-1.39,0.56
2022-01-27 13:25:44.8760,0.099,-0.11,-0.711,-0.99,-1.84,-2.55,0.76,-1.4,0.57
2022-01-27 13:25:44.8850,0.088,-0.132,-0.738,-1.03,-1.65,-2.45,0.67,-1.44,0.61
2022-01-27 13:25:44.8950,0.072,-0.16,-0.749,-1.08,-1.5,-2.17,0.56,-1.45,0.65
2022-01-27 13:25:44.9060,0.051,-0.174,-0.753,-1.08,-1.27,-2.04,0.56,-1.45,0.65
2022-01-27 13:25:44.9160,0.029,-0.175,-0.78,-1.03,-1.17,-1.98,0.37,-1.44,0.63
2022-01-27 13:25:44.9260,0.012,-0.175,-0.827,-0.95,-1.21,-1.22,0.31,-1.47,0.55
2022-01-27 13:25:44.9360,-0.003,-0.185,-0.858,-0.95,-1.21,-1.22,0.26,-1.47,0.46
2022-01-27 13:25:44.9460,-0.025,-0.206,-0.887,-0.95,-1.12,-0.89,0.19,-1.41,0.37
2022-01-27 13:25:44.9560,-0.057,-0.235,-0.93,-0.87,-0.93,-0.59,0.1,-1.32,0.32
2022-01-27 13:25:44.9660,-0.082,-0.245,-0.97,-0.68,-0.64,-0.16,-0.05,-1.16,0.28
2022-01-27 13:25:44.9760,-0.087,-0.245,-1.006,-0.55,-0.52,0.24,-0.21,-0.98,0.24
2022-01-27 13:25:44.9860,-0.081,-0.256,-1.037,-0.6,-0.49,0.6,-0.39,-0.79,0.23
2022-01-27 13:25:44.9960,-0.081,-0.264,-1.076,-0.73,-0.35,0.9,-0.59,-0.62,0.23
2022-01-27 13:25:45.0060,-0.09,-0.271,-1.105,-0.79,-0.19,1.28,-0.81,-0.48,0.24
2022-01-27 13:25:45.0160,-0.098,-0.281,-1.118,-0.74,-0.03,1.54,-1.06,-0.35,0.24
2022-01-27 13:25:45.0260,-0.099,-0.287,-1.135,-0.7,0.17,1.64,-1.35,-0.26,0.23
2022-01-27 13:25:45.0360,-0.103,-0.297,-1.162,-0.72,0.37,1.78,-1.64,-0.23,0.2
2022-01-27 13:25:45.0460,-0.111,-0.304,-1.191,-0.71,0.65,2.0,-1.96,-0.25,0.15
2022-01-27 13:25:45.0560,-0.112,-0.305,-1.21,-0.67,1.15,2.4,-2.23,-0.26,0.09
2022-01-27 13:25:45.0660,-0.118,-0.302,-1.225,-0.67,1.15,2.4,-2.42,-0.27,-0.01
2022-01-27 13:25:45.0760,-0.109,-0.277,-1.245,-0.63,1.35,2.5,-2.52,-0.27,-0.13
2022-01-27 13:25:45.0860,-0.066,-0.245,-1.263,-0.75,1.34,2.67,-2.49,-0.25,-0.24
2022-01-27 13:25:45.0960,-0.02,-0.221,-1.266,-1.19,1.26,2.81,-2.36,-0.18,-0.3
2022-01-27 13:25:45.1060,0.006,-0.203,-1.26,-1.66,1.24,2.83,-2.16,-0.15,-0.35
2022-01-27 13:25:45.1160,0.009,-0.193,-1.259,-1.93,1.26,2.75,-1.91,-0.16,-0.36
2022-01-27 13:25:45.1260,-0.008,-0.194,-1.214,-1.97,1.33,2.73,-1.91,-0.16,-0.36
2022-01-27 13:25:45.1370,-0.032,-0.192,-1.153,-1.59,1.57,1.69,-1.31,-0.17,-0.33
2022-01-27 13:25:45.1460,-0.051,-0.189,-1.081,-1.42,1.61,0.98,-0.97,-0.14,-0.33
2022-01-27 13:25:45.1570,-0.065,-0.196,-1.021,-1.42,1.61,0.98,-0.64,-0.11,-0.37
2022-01-27 13:25:45.1670,-0.071,-0.201,-0.984,-1.29,1.73,0.4,-0.33,-0.13,-0.41
2022-01-27 13:25:45.1770,-0.072,-0.213,-0.942,-1.24,1.8,0.03,-0.04,-0.14,-0.43
2022-01-27 13:25:45.1870,-0.075,-0.219,-0.899,-1.25,1.9,-0.38,0.23,-0.21,-0.45
2022-01-27 13:25:45.1970,-0.093,-0.227,-0.852,-1.23,1.92,-0.79,0.46,-0.27,-0.47
2022-01-27 13:25:45.2070,-0.116,-0.238,-0.784,-1.09,1.94,-1.25,0.46,-0.27,-0.47
2022-01-27 13:25:45.2170,-0.135,-0.245,-0.716,-0.89,1.97,-1.9,0.81,-0.32,-0.52
2022-01-27 13:25:45.2270,-0.151,-0.252,-0.665,-0.6,1.91,-3.05,0.93,-0.34,-0.55
2022-01-27 13:25:45.2370,-0.167,-0.26,-0.623,-0.6,1.91,-3.05,1.01,-0.37,-0.6
2022-01-27 13:25:45.2470,-0.176,-0.261,-0.583,-0.43,1.78,-3.82,1.07,-0.42,-0.66
2022-01-27 13:25:45.2570,-0.185,-0.26,-0.556,-0.43,1.78,-3.82,1.13,-0.49,-0.75
2022-01-27 13:25:45.2660,-0.204,-0.269,-0.529,-0.39,1.64,-4.07,1.18,-0.56,-0.85
2022-01-27 13:25:45.2770,-0.227,-0.276,-0.508,-0.25,1.6,-4.31,1.23,-0.58,-0.94
2022-01-27 13:25:45.2870,-0.249,-0.276,-0.494,-0.07,1.53,-4.49,1.23,-0.58,-0.94
2022-01-27 13:25:45.2970,-0.268,-0.275,-0.498,0.11,1.38,-4.59,1.33,-0.55,-1.01
2022-01-27 13:25:45.3080,-0.292,-0.284,-0.504,0.46,1.15,-4.44,1.33,-0.55,-1.01
2022-01-27 13:25:45.3180,-0.317,-0.296,-0.504,0.46,1.15,-4.44,1.4,-0.39,-0.98
2022-01-27 13:25:45.3280,-0.33,-0.288,-0.537,0.69,1.13,-4.41,1.39,-0.3,-0.96
2022-01-27 13:25:45.3370,-0.335,-0.265,-0.583,0.87,0.52,-3.56,1.34,-0.21,-0.96
2022-01-27 13:25:45.3470,-0.339,-0.245,-0.637,0.87,0.52,-3.56,1.23,-0.12,-0.97
2022-01-27 13:25:45.3570,-0.338,-0.231,-0.686,0.92,0.2,-3.01,1.1,-0.03,-0.99
2022-01-27 13:25:45.3680,-0.332,-0.232,-0.749,0.91,-0.16,-1.87,0.98,0.04,-1.0
2022-01-27 13:25:45.3770,-0.34,-0.248,-0.81,0.91,-0.16,-1.87,0.84,0.13,-0.99
2022-01-27 13:25:45.3870,-0.356,-0.273,-0.875,1.02,-0.09,-1.26,0.64,0.32,-0.94
2022-01-27 13:25:45.3970,-0.366,-0.293,-0.951,1.24,0.08,-0.61,0.41,0.53,-0.82
2022-01-27 13:25:45.4070,-0.357,-0.307,-1.063,1.4,0.34,1.21,0.23,0.69,-0.66
2022-01-27 13:25:45.4170,-0.331,-0.313,-1.171,1.4,0.34,1.21,0.14,0.76,-0.45
2022-01-27 13:25:45.4280,-0.298,-0.303,-1.246,1.24,0.38,2.26,0.12,0.8,-0.23
2022-01-27 13:25:45.4370,-0.255,-0.267,-1.279,0.64,-0.09,3.29,0.1,0.85,-0.05
2022-01-27 13:25:45.4470,-0.203,-0.225,-1.3,0.21,-0.5,3.48,0.04,0.83,0.09
2022-01-27 13:25:45.4580,-0.155,-0.195,-1.313,0.21,-0.5,3.48,0.04,0.83,0.09
2022-01-27 13:25:45.4680,-0.133,-0.189,-1.307,-0.19,-0.77,3.6,-0.25,0.69,0.15
2022-01-27 13:25:45.4780,-0.134,-0.199,-1.287,-0.29,-0.64,3.29,-0.51,0.66,0.14
2022-01-27 13:25:45.4880,-0.128,-0.209,-1.254,-0.29,-0.64,3.29,-0.51,0.66,0.14
2022-01-27 13:25:45.4980,-0.101,-0.208,-1.228,-0.28,-0.45,2.93,-1.03,0.82,0.33
2022-01-27 13:25:45.5080,-0.07,-0.198,-1.232,-0.71,-0.32,2.63,-1.22,0.84,0.52
2022-01-27 13:25:45.5180,-0.048,-0.183,-1.225,-0.71,-0.32,2.63,-1.34,0.79,0.71
2022-01-27 13:25:45.5280,-0.042,-0.159,-1.192,-0.88,-0.33,2.53,-1.36,0.66,0.86
2022-01-27 13:25:45.5380,-0.048,-0.127,-1.128,-0.9,-0.42,2.17,-1.28,0.49,0.9
2022-01-27 13:25:45.5480,-0.049,-0.092,-1.052,-0.82,-0.61,1.51,-1.11,0.31,0.83
2022-01-27 13:25:45.5580,-0.05,-0.064,-0.994,-0.79,-1.02,0.16,-0.8934367299079895,0.31,0.83
2022-01-27 13:25:45.5690,-0.063,-0.054,-0.946,-0.79,-1.02,0.16,-0.89,0.1,0.66
2022-01-27 13:25:45.5780,-0.093,-0.065,-0.893,-0.68,-1.06,-0.32,-0.46,-0.21,0.19
2022-01-27 13:25:45.5880,-0.122,-0.085,-0.853,-0.16,-0.7,-1.24,-0.28,-0.29,-0.02
2022-01-27 13:25:45.5980,-0.145,-0.117,-0.805,-0.16,-0.7,-1.24,-0.12,-0.28,-0.17
2022-01-27 13:25:45.6090,-0.167,-0.167,-0.756,0.25,0.11,-2.18,0.01,-0.2,-0.24
2022-01-27 13:25:45.6190,-0.196,-0.229,-0.736,0.54,0.7,-2.37,0.13,-0.09,-0.2
2022-01-27 13:25:45.6280,-0.224,-0.28,-0.744,0.54,0.7,-2.37,0.13,-0.09,-0.2
2022-01-27 13:25:45.6380,-0.227,-0.3,-0.754,0.86,1.34,-2.19,0.32,0.13,-0.0
2022-01-27 13:25:45.6490,-0.205,-0.291,-0.758,0.86,1.34,-2.19,0.41,0.25,0.1
2022-01-27 13:25:45.6580,-0.175,-0.267,-0.769,0.41,0.92,-2.04,0.41,0.25,0.1
2022-01-27 13:25:45.6690,-0.148,-0.238,-0.793,0.41,0.92,-2.04,0.66,0.45,0.28
2022-01-27 13:25:45.6780,-0.129,-0.215,-0.822,0.19,0.58,-1.8,0.81,0.53,0.37
2022-01-27 13:25:45.6880,-0.118,-0.197,-0.842,0.04,0.28,-1.51,0.97,0.62,0.46
2022-01-27 13:25:45.6980,-0.119,-0.177,-0.869,-0.01,0.01,-1.29,1.11,0.64,0.53
2022-01-27 13:25:45.7090,-0.111,-0.164,-0.906,0.05,-0.29,-1.01,1.11,0.64,0.53
2022-01-27 13:25:45.7180,-0.097,-0.153,-0.925,-0.09,-0.77,-0.43,1.34,0.55,0.6
2022-01-27 13:25:45.7290,-0.086,-0.148,-0.944,-0.09,-0.77,-0.43,1.41,0.43,0.57
2022-01-27 13:25:45.7380,-0.08,-0.153,-0.943,-0.17,-0.94,-0.21,1.44,0.32,0.54
2022-01-27 13:25:45.7490,-0.076,-0.163,-0.945,-0.22,-1.02,-0.18,1.42,0.21,0.53
2022-01-27 13:25:45.7590,-0.075,-0.184,-0.964,-0.26,-1.05,-0.13,1.35,0.07,0.55
2022-01-27 13:25:45.7690,-0.079,-0.21,-0.99,-0.28,-0.95,0.09,1.21,-0.1,0.58
2022-01-27 13:25:45.7790,-0.099,-0.24,-1.003,-0.12,-0.58,0.53,1.02,-0.25,0.62
2022-01-27 13:25:45.7890,-0.129,-0.269,-0.986,-0.12,-0.58,0.53,1.02,-0.25,0.62
2022-01-27 13:25:45.7990,-0.151,-0.292,-0.971,0.12,-0.34,0.39,0.44,-0.33,0.75
2022-01-27 13:25:45.8090,-0.163,-0.304,-0.965,0.29,-0.15,0.25,0.44,-0.33,0.75
2022-01-27 13:25:45.8190,-0.175,-0.316,-0.968,0.35,-0.01,0.2,-0.22,-0.18,0.86
2022-01-27 13:25:45.8290,-0.185,-0.315,-0.996,0.5,0.21,0.48,-0.54,-0.1,0.89
2022-01-27 13:25:45.8390,-0.182,-0.308,-1.031,0.5,0.21,0.48,-0.81,-0.06,0.9
2022-01-27 13:25:45.8490,-0.168,-0.297,-1.068,0.43,0.24,0.79,-1.04,-0.08,0.89
2022-01-27 13:25:45.8670,-0.17,-0.291,-1.088,0.26,0.33,1.29,-1.25,-0.08,0.87
2022-01-27 13:25:45.8700,-0.179,-0.278,-1.105,0.26,0.33,1.29,-1.48,-0.06,0.84
2022-01-27 13:25:45.8790,-0.179,-0.253,-1.128,0.32,0.36,1.42,-1.71,-0.01,0.8
2022-01-27 13:25:45.8890,-0.178,-0.223,-1.136,0.31,0.31,1.61,-1.93,0.14,0.75
2022-01-27 13:25:45.8990,-0.165,-0.169,-1.155,0.19,-0.11,1.78,-2.09,0.28,0.68
2022-01-27 13:25:45.9100,-0.132,-0.099,-1.202,0.19,-0.11,1.78,-2.13,0.31,0.56
2022-01-27 13:25:45.9190,-0.088,-0.037,-1.236,-0.53,-0.99,2.5,-2.03,0.24,0.37
2022-01-27 13:25:45.9290,-0.05,0.019,-1.241,-0.89,-1.38,2.53,-1.82,0.11,0.13
2022-01-27 13:25:45.9390,-0.029,0.061,-1.212,-0.89,-1.38,2.53,-1.56,-0.03,-0.13
2022-01-27 13:25:45.9490,-0.03,0.072,-1.167,-1.11,-1.65,2.23,-1.29,-0.16,-0.39
2022-01-27 13:25:45.9590,-0.049,0.045,-1.099,-1.12,-1.65,1.78,-1.29,-0.16,-0.39
2022-01-27 13:25:45.9700,-0.072,-0.011,-1.038,-0.94,-1.29,1.1,-0.87,-0.21,-0.75
2022-01-27 13:25:45.9790,-0.089,-0.077,-1.002,-0.73,0.03627714917063713,0.15,-0.75,-0.22,-0.82
2022-01-27 13:25:45.9900,-0.099,-0.132,-0.966,-0.58,0.03,0.15,-0.75,-0.24,-0.84
2022-01-27 13:25:45.9990,-0.106,-0.17,-0.921,-0.5,0.62,-0.21,-0.51,-0.24,-0.83
2022-01-27 13:25:46.0090,-0.107,-0.19,-0.869,-0.45,1.02,-0.65,-0.37,-0.23,-0.8
2022-01-27 13:25:46.0200,-0.108,-0.202,-0.818,-0.45,1.24,-1.6466250443458559,-0.23,-0.23,-0.75
2022-01-27 13:25:46.0280,-0.111,-0.208,-0.781,-0.46,1.36,-1.65,-0.08,-0.23,-0.72
2022-01-27 13:25:46.0390,-0.122,-0.214,-0.745,-0.45,1.42,-2.01,0.03,-0.22,-0.71
2022-01-27 13:25:46.0490,-0.138,-0.222,-0.71,-0.36,1.46,-2.36,0.13,-0.18,-0.71
2022-01-27 13:25:46.0680,-0.154,-0.23,-0.684,-0.05,1.56,-2.96,0.21,-0.1,-0.72
2022-01-27 13:25:46.0690,-0.168,-0.242,-0.671,0.09,1.64,-3.08,0.27,-0.01,-0.73
2022-01-27 13:25:46.0790,-0.176,-0.256,-0.674,0.19,1.74,-3.05,0.32,0.11,-0.71
2022-01-27 13:25:46.0900,-0.189,-0.268,-0.694,0.19,1.74,-3.05,0.39,0.24,-0.66
2022-01-27 13:25:46.1000,-0.196,-0.254,-0.737,0.35,1.8,-2.86,0.51,0.35,-0.62
2022-01-27 13:25:46.1100,-0.186,-0.221,-0.783,0.46,1.61,-2.44,0.65,0.42,-0.59
2022-01-27 13:25:46.1200,-0.177,-0.195,-0.828,0.41,1.21,-1.98,0.81,0.48,-0.58
2022-01-27 13:25:46.1300,-0.174,-0.161,-0.874,0.37,0.86,-1.54,0.81,0.48,-0.58
2022-01-27 13:25:46.1400,-0.161,-0.124,-0.923,0.41,0.43,-1.09,1.11,0.5,-0.69
2022-01-27 13:25:46.1500,-0.143,-0.114,-0.971,0.33,-0.06,-0.6,1.11,0.5,-0.69
2022-01-27 13:25:46.1600,-0.139,-0.142,-1.017,0.21,-0.29,-0.11,1.23,0.37,-0.97
2022-01-27 13:25:46.1700,-0.154,-0.182,-1.061,0.22,-0.13,0.35,1.14,0.34,-1.08
2022-01-27 13:25:46.1810,-0.168,-0.209,-1.107,0.42,0.14,0.79,0.95,0.39,-1.14
2022-01-27 13:25:46.1900,-0.159,-0.226,-1.166,0.61,0.31,1.25,0.74,0.44,-1.12
2022-01-27 13:25:46.2000,-0.132,-0.235,-1.248,0.59,0.4,1.84,0.59,0.43,-1.02
2022-01-27 13:25:46.2100,-0.104,-0.243,-1.324,0.38,0.43,2.65,0.54,0.35,-0.87
2022-01-27 13:25:46.2200,-0.084,-0.229,-1.355,-0.01,0.25,3.72,0.57,0.28,-0.68
2022-01-27 13:25:46.2300,-0.071,-0.201,-1.35,-0.01,0.25,3.72,0.61,0.22,-0.52
2022-01-27 13:25:46.2400,-0.062,-0.188,-1.334,-0.11,-0.08,3.68,0.55,0.18,-0.39
2022-01-27 13:25:46.2590,-0.068,-0.198,-1.31,-0.09,-0.2,3.3,0.55,0.18,-0.39
2022-01-27 13:25:46.2610,-0.078,-0.2,-1.278,0.04,-0.19,2.99,0.23,0.22,-0.26
2022-01-27 13:25:46.2710,-0.085,-0.202,-1.25,0.04,-0.19,2.99,0.23,0.22,-0.26
2022-01-27 13:25:46.2800,-0.087,-0.212,-1.223,0.14,-0.17,2.71,-0.12,0.3,-0.19
2022-01-27 13:25:46.2900,-0.087,-0.221,-1.209,0.19,-0.05,2.44,-0.23,0.28,-0.14
Time,-0.091,-0.224,-1.194,0.28,0.12,2.14,-0.31,0.25,-0.08
2022-01-27 13:25:46.3110,-0.098,-0.225,-1.159,0.28,0.12,2.14,-0.36,0.22,-0.04
2022-01-27 13:25:46.3200,-0.105,-0.224,-1.116,0.37,0.17,1.78,-0.39,0.17,0.0
2022-01-27 13:25:46.3290,-0.109,-0.215,-1.072,0.46,0.2,1.35,-0.39,0.11,0.01
2022-01-27 13:25:46.3400,-0.111,-0.208,-1.025,0.5,0.15,0.91,-0.36,0.01,-0.01
2022-01-27 13:25:46.3500,-0.111,-0.201,-0.974,0.52,0.12,0.44,-0.3,-0.11,-0.08
2022-01-27 13:25:46.3600,-0.114,-0.205,-0.915,0.5,0.08,-0.06,-0.24,-0.22,-0.18
2022-01-27 13:25:46.3700,-0.121,-0.219,-0.849,0.51,0.14,-0.64,-0.19,-0.3,-0.28
2022-01-27 13:25:46.3800,-0.132,-0.241,-0.785,0.56,0.3,-1.29,-0.16,-0.31,-0.35
2022-01-27 13:25:46.3900,-0.151,-0.268,-0.729,0.82,0.8,-2.47,-0.13,-0.27,-0.4
2022-01-27 13:25:46.4010,-0.172,-0.296,-0.694,1.02,1.07,-2.81,-0.1,-0.2,-0.42
2022-01-27 13:25:46.4110,-0.191,-0.318,-0.677,1.200491114705801,1.29,-2.98,-0.04,-0.11,-0.39
2022-01-27 13:25:46.4200,-0.201,-0.331,-0.666,1.2,1.29,-2.98,0.04,0.02,-0.35
2022-01-27 13:25:46.4300,-0.207,-0.333,-0.664,1.31,1.41,-3.09,0.15,0.16,-0.3
2022-01-27 13:25:46.4400,-0.204,-0.326,-0.674,1.39,1.41,-3.1,0.29,0.28,-0.25
2022-01-27 13:25:46.4510,-0.187,-0.313,-0.694,1.4,1.31,-3.0,0.29,0.28,-0.25
2022-01-27 13:25:46.4610,-0.167,-0.297,-0.719,1.14,0.93,-2.54,0.56,0.49,-0.15
2022-01-27 13:25:46.4720,-0.153,-0.286,-0.748,1.06,0.74,-2.25,0.7,0.56,-0.13
2022-01-27 13:25:46.4820,-0.135,-0.279,-0.773,1.06,0.74,-2.25,0.81,0.62,-0.09
2022-01-27 13:25:46.4910,-0.115,-0.281,-0.8,0.94,0.6,-1.99,0.88,0.66,-0.01
2022-01-27 13:25:46.5010,-0.095,-0.288,-0.836,0.81,0.53,-1.71,0.91,0.66,0.1
2022-01-27 13:25:46.5110,-0.08,-0.293,-0.866,0.67,0.52,-1.34,0.91,0.66,0.1
2022-01-27 13:25:46.5210,-0.069,-0.295,-0.892,0.58,0.48,-1.02,0.9,0.65,0.25
2022-01-27 13:25:46.5320,-0.061,-0.293,-0.919,0.51,0.42,-0.75,0.79,0.51,0.55
2022-01-27 13:25:46.5410,-0.049,-0.284,-0.943,0.46,0.33,-0.46,0.74,0.39,0.65
2022-01-27 13:25:46.5510,-0.047,-0.278,-0.961,0.36,0.18,-0.22,0.71,0.27,0.67
2022-01-27 13:25:46.5610,-0.055,-0.275,-0.978,0.35,0.05,-0.02,0.68,0.16,0.67
2022-01-27 13:25:46.5710,-0.051,-0.276,-0.996,0.41,-0.03,0.16,0.65,0.05,0.64
2022-01-27 13:25:46.5810,-0.037,-0.278,-1.016,0.36,-0.08,0.36,0.6,-0.06,0.61
2022-01-27 13:25:46.5910,-0.03,-0.289,-1.015,0.2,-0.11,0.57,0.55,-0.12,0.6
2022-01-27 13:25:46.6020,-0.038,-0.304,-1.001,0.15,0.05,0.46,0.51,-0.14,0.59
2022-01-27 13:25:46.6120,-0.051,-0.325,-0.992,0.15,0.05,0.46,0.46,-0.12,0.6
2022-01-27 13:25:46.6220,-0.062,-0.351,-0.981,0.25,0.22,0.38,0.39,-0.05,0.64
2022-01-27 13:25:46.6320,-0.06,-0.353,-0.969,0.34,0.44,0.28,0.28,0.08,0.69
2022-01-27 13:25:46.6420,-0.038,-0.337,-0.963,0.31,0.44,0.17,0.14,0.22,0.73
2022-01-27 13:25:46.6520,-0.012,-0.315,-0.972,0.1,0.29,0.11,-0.01,0.34,0.74
2022-01-27 13:25:46.6620,0.002,-0.292,-0.994,-0.15,0.08,0.2,-0.1,0.34,0.7
2022-01-27 13:25:46.6720,0.008,-0.273,-1.014,-0.28,-0.13,0.41,-0.14,0.29,0.58
2022-01-27 13:25:46.6820,0.012,-0.271,-1.011,-0.36,-0.31,0.56,-0.17,0.21,0.43
2022-01-27 13:25:46.6920,0.01,-0.298,-1.006,-0.36,-0.31,0.56,-0.25,0.15,0.27
2022-01-27 13:25:46.7020,-0.004,-0.345,-1.0,-0.17,0.51,0.43,-0.44,0.19,0.16
2022-01-27 13:25:46.7120,-0.008,-0.386,-0.994,-0.17,0.51,0.43,-0.72,0.35,0.16
2022-01-27 13:25:46.7220,0.017,-0.397,-1.028,-0.3,1.2,0.64,-0.99,0.5,0.23
2022-01-27 13:25:46.7500,0.057,-0.379,-1.091,-0.98,0.89,1.65,-1.16,0.54,0.33
2022-01-27 13:25:46.7500,0.093,-0.341,-1.137,-0.98,0.89,1.65,-1.23,0.45,0.42
2022-01-27 13:25:46.7530,0.112,-0.311,-1.152,-0.98,0.89,1.65,-1.2,0.3,0.49
2022-01-27 13:25:46.7600,0.113,-0.286,-1.136,-1.17,0.7,1.77,-1.13,0.12,0.51
2022-01-27 13:25:46.7700,0.105,-0.256,-1.108,-1.18,0.57,1.59,-1.04,-0.09,0.47
2022-01-27 13:25:46.7810,0.099,-0.238,-1.078,-1.13,0.37,1.29,-0.99,-0.29,0.39
2022-01-27 13:25:46.7910,0.093,-0.222,-1.044,-1.12,0.29,0.98,-0.99,-0.29,0.39
2022-01-27 13:25:46.8020,0.078,-0.209,-1.003,-1.11,0.23,0.62,-0.93,-0.61,0.07
2022-01-27 13:25:46.8120,0.059,-0.201,-0.965,-1.02,0.19,0.21,-0.89,-0.73,-0.13
2022-01-27 13:25:46.8230,0.043,-0.2,-0.922,-0.91,0.19,-0.18,-0.79,-0.83,-0.3
2022-01-27 13:25:46.8320,0.02,-0.211,-0.869,-0.83,0.25,-0.61,-0.65,-0.91,-0.42
2022-01-27 13:25:46.8430,-0.015,-0.227,-0.808,-0.68,0.42,-1.14,-0.48,-0.94,-0.48
2022-01-27 13:25:46.8530,-0.07,-0.256,-0.75,0.03,0.92,-2.3,-0.3,-0.91,-0.49
2022-01-27 13:25:46.8630,-0.119,-0.279,-0.702,0.03,0.92,-2.3,-0.14,-0.83,-0.46
2022-01-27 13:25:46.8730,-0.16,-0.291,-0.661,0.45,1.15,-2.77,-0.01,-0.69,-0.43
2022-01-27 13:25:46.8830,-0.196,-0.292,-0.638,0.8,1.26,-3.17,0.11,-0.49,-0.41
2022-01-27 13:25:46.8920,-0.224,-0.272,-0.626,1.12,1.25,-3.39,0.25,-0.25,-0.43
2022-01-27 13:25:46.9020,-0.243,-0.249,-0.627,1.38,1.03,-3.5,0.4,0.01,-0.48
2022-01-27 13:25:46.9120,-0.25,-0.235,-0.659,1.59,0.76,-3.48,0.4,0.01,-0.48
2022-01-27 13:25:46.9230,-0.241,-0.219,-0.708,1.65,0.32,-2.68,0.72,0.35,-0.64
2022-01-27 13:25:46.9330,-0.22,-0.208,-0.744,1.65,0.32,-2.68,0.89,0.44,-0.73
2022-01-27 13:25:46.9420,-0.2,-0.202,-0.768,1.51,0.12,-2.3,0.89,0.44,-0.73
2022-01-27 13:25:46.9530,-0.176,-0.203,-0.791,1.38,-0.04,-2.05,1.13,0.56,-0.85
2022-01-27 13:25:46.9630,-0.15,-0.213,-0.82,1.22,-0.15,-1.81,1.17,0.6,-0.86
2022-01-27 13:25:46.9730,-0.122,-0.224,-0.86,1.04,-0.16,-1.5,1.15,0.6,-0.85
2022-01-27 13:25:46.9830,-0.097,-0.232,-0.91,0.84,-0.17,-1.09,1.15,0.6,-0.85
2022-01-27 13:25:46.9930,-0.078,-0.249,-0.955,0.66,-0.19,-0.57,1.0,0.42,-0.82
2022-01-27 13:25:47.0030,-0.068,-0.264,-1.008,0.53,-0.11,-0.1,0.88,0.23,-0.78
2022-01-27 13:25:47.0130,-0.069,-0.284,-1.053,0.46,-0.04,0.43,0.73,0.05,-0.74
2022-01-27 13:25:47.0230,-0.067,-0.292,-1.09,0.49,0.09,0.89,0.73,0.05,-0.74
2022-01-27 13:25:47.0330,-0.058,-0.281,-1.131,0.48,0.12,1.27,0.36,-0.24,-0.69
2022-01-27 13:25:47.0430,-0.031,-0.267,-1.17,0.1,-0.16,2.06,0.17,-0.36,-0.67
2022-01-27 13:25:47.0530,-0.008,-0.26,-1.192,0.1,-0.16,2.06,0.17,-0.36,-0.67
2022-01-27 13:25:47.0630,-0.0,-0.258,-1.205,-0.15,-0.22,2.28,-0.18,-0.36,-0.54
2022-01-27 13:25:47.0730,-0.006,-0.257,-1.236,-0.24,-0.22,2.41,-0.33,-0.3,-0.41
2022-01-27 13:25:47.0830,-0.014,-0.262,-1.276,-0.21,-0.19,2.69,-0.46,-0.27,-0.28
2022-01-27 13:25:47.0930,-0.016,-0.261,-1.3,-0.14,-0.1,3.07,-0.55,-0.22,-0.15
2022-01-27 13:25:47.1030,-0.018,-0.253,-1.288,-0.14,-0.05,3.29,-0.55,-0.22,-0.15
2022-01-27 13:25:47.1130,-0.018,-0.238,-1.274,-0.13,-0.06,3.16,-0.61,-0.16,-0.04
2022-01-27 13:25:47.1230,-0.007,-0.217,-1.261,-0.15,-0.15,3.01,-0.71,-0.13,0.1
2022-01-27 13:25:47.1330,0.011,-0.195,-1.237,-0.27,-0.28,2.86,-0.8,-0.16,0.12
2022-01-27 13:25:47.1440,0.021,-0.183,-1.201,-0.47,-0.42,2.61,-0.89,-0.24,0.12
2022-01-27 13:25:47.1530,0.022,-0.178,-1.165,-0.59,-0.44,2.23,-0.98,-0.36,0.09
