
time,gFx,gFy,gFz,ax,ay,az,wx,wy,wz,
0.049871,0.0000,0.0000,0.0000,0.1979,3.0056,-0.6634,0.0000,0.0000,0.0000,
0.109068,0.0000,0.0000,0.0000,0.2104,3.0510,-0.6658,0.0000,0.0000,0.0000,
0.169736,0.0000,0.0000,0.0000,0.0647,3.1947,-0.6906,0.0000,0.0000,0.0000,
0.230518,0.0000,0.0000,0.0000,-0.0390,3.3391,-0.7078,0.0000,0.0000,0.0000,
0.289748,0.0000,0.0000,0.0000,-0.0390,3.3391,-0.7078,-0.2423,-0.0692,0.0339,
0.292182,0.0000,0.0000,0.0000,-0.0796,3.4785,-0.7170,-0.2423,-0.0692,0.0339,
0.348964,0.0000,0.0000,0.0000,-0.0796,3.4785,-0.7170,-0.1995,-0.0790,0.1432,
0.349893,0.0000,0.0000,0.0000,-0.0749,3.6697,-0.7216,-0.1995,-0.0790,0.1432,
0.409606,0.0000,0.0000,0.0000,-0.0749,3.6697,-0.7216,-0.0835,0.1281,0.2776,
0.410524,0.0000,0.0000,0.0000,-0.0196,3.7835,-0.7184,-0.0835,0.1281,0.2776,
0.437551,-0.6636,-0.6213,0.4007,-0.0196,3.7835,-0.7184,-0.0835,0.1281,0.2776,
0.469616,-0.6636,-0.6213,0.4007,-0.0196,3.7835,-0.7184,-0.1006,0.1348,0.4163,
0.470492,-0.6636,-0.6213,0.4007,-5.5769,-6.0565,-5.8363,-0.1006,0.1348,0.4163,
0.498215,-0.6042,-0.5546,0.5070,-5.5769,-6.0565,-5.8363,-0.1006,0.1348,0.4163,
0.501243,-0.6521,-0.6235,0.5033,-5.5769,-6.0565,-5.8363,-0.1006,0.1348,0.4163,
0.502595,-0.7349,-0.6724,0.4818,-5.5769,-6.0565,-5.8363,-0.1006,0.1348,0.4163,
0.529262,-0.7349,-0.6724,0.4818,-5.5769,-6.0565,-5.8363,0.0118,-0.0655,0.1506,
0.530947,-0.7349,-0.6724,0.4818,-6.1713,-6.4870,-5.0304,0.0118,-0.0655,0.1506,
0.557591,-0.7735,-0.7220,0.4600,-6.1713,-6.4870,-5.0304,0.0118,-0.0655,0.1506,
0.559321,-0.6487,-0.6917,0.4410,-6.1713,-6.4870,-5.0304,0.0118,-0.0655,0.1506,
0.560552,-0.5429,-0.6501,0.4354,-6.1713,-6.4870,-5.0304,0.0118,-0.0655,0.1506,
0.589961,-0.5429,-0.6501,0.4354,-6.1713,-6.4870,-5.0304,0.0131,-0.1688,0.2043,
0.590729,-0.5429,-0.6501,0.4354,-4.2692,-6.2677,-5.4832,0.0131,-0.1688,0.2043,
0.617999,-0.5778,-0.6152,0.3931,-4.2692,-6.2677,-5.4832,0.0131,-0.1688,0.2043,
0.619817,-0.6687,-0.5996,0.3645,-4.2692,-6.2677,-5.4832,0.0131,-0.1688,0.2043,
0.620969,-0.7300,-0.5925,0.3555,-4.2692,-6.2677,-5.4832,0.0131,-0.1688,0.2043,
0.649106,-0.7300,-0.5925,0.3555,-4.2692,-6.2677,-5.4832,0.0357,-0.1987,0.2214,
0.650502,-0.7300,-0.5925,0.3555,-6.2018,-5.6649,-6.2757,0.0357,-0.1987,0.2214,
0.679791,-0.7654,-0.5920,0.3474,-6.2018,-5.6649,-6.2757,0.0357,-0.1987,0.2214,
0.681761,-0.7488,-0.5636,0.3327,-6.2018,-5.6649,-6.2757,0.0357,-0.1987,0.2214,
0.682421,-0.7117,-0.5228,0.2900,-6.2018,-5.6649,-6.2757,0.0357,-0.1987,0.2214,
0.710973,-0.7117,-0.5228,0.2900,-6.2018,-5.6649,-6.2757,0.0577,0.2796,0.1084,
0.715600,-0.7117,-0.5228,0.2900,-5.9722,-4.9869,-6.9124,0.0577,0.2796,0.1084,
0.738492,-0.7073,-0.5187,0.2736,-5.9722,-4.9869,-6.9124,0.0577,0.2796,0.1084,
0.740244,-0.7505,-0.5546,0.3134,-5.9722,-4.9869,-6.9124,0.0577,0.2796,0.1084,
0.741379,-0.7796,-0.5993,0.3604,-5.9722,-4.9869,-6.9124,0.0577,0.2796,0.1084,
0.770344,-0.7796,-0.5993,0.3604,-5.9722,-4.9869,-6.9124,-0.1739,0.6956,0.2074,
0.772085,-0.7796,-0.5993,0.3604,-6.2871,-5.6780,-6.1794,-0.1739,0.6956,0.2074,
0.798179,-0.8094,-0.6465,0.4466,-6.2871,-5.6780,-6.1794,-0.1739,0.6956,0.2074,
0.800211,-0.8038,-0.6523,0.5920,-6.2871,-5.6780,-6.1794,-0.1739,0.6956,0.2074,
0.801525,-0.8075,-0.5925,0.6487,-6.2871,-5.6780,-6.1794,-0.1739,0.6956,0.2074,
0.830828,-0.8075,-0.5925,0.6487,-6.2871,-5.6780,-6.1794,0.6068,0.2796,0.2874,
0.832672,-0.8075,-0.5925,0.6487,-6.2222,-5.6823,-3.3021,0.6068,0.2796,0.2874,
0.857407,-0.7840,-0.5375,0.5849,-6.2222,-5.6823,-3.3021,0.6068,0.2796,0.2874,
0.858989,-0.7540,-0.4918,0.4268,-6.2222,-5.6823,-3.3021,0.6068,0.2796,0.2874,
0.860139,-0.7071,-0.4708,0.2883,-6.2222,-5.6823,-3.3021,0.6068,0.2796,0.2874,
0.890013,-0.7071,-0.4708,0.2883,-6.2222,-5.6823,-3.3021,-0.0883,0.0304,0.1469,
0.892295,-0.7071,-0.4708,0.2883,-5.0782,-4.7089,-6.8048,-0.0883,0.0304,0.1469,
0.917582,-0.7049,-0.4583,0.2231,-5.0782,-4.7089,-6.8048,-0.0883,0.0304,0.1469,
0.919278,-0.7139,-0.4463,0.2834,-5.0782,-4.7089,-6.8048,-0.0883,0.0304,0.1469,
0.920953,-0.7009,-0.4388,0.4121,-5.0782,-4.7089,-6.8048,-0.0883,0.0304,0.1469,
0.950967,-0.7009,-0.4388,0.4121,-5.0782,-4.7089,-6.8048,-0.0126,0.3089,0.0040,
0.952340,-0.7009,-0.4388,0.4121,-4.9032,-4.2671,-5.5685,-0.0126,0.3089,0.0040,
0.977578,-0.7215,-0.4441,0.4686,-4.9032,-4.2671,-5.5685,-0.0126,0.3089,0.0040,
0.979302,-0.7332,-0.4429,0.4776,-4.9032,-4.2671,-5.5685,-0.0126,0.3089,0.0040,
0.980271,-0.7185,-0.4383,0.4420,-4.9032,-4.2671,-5.5685,-0.0126,0.3089,0.0040,
1.010743,-0.7185,-0.4383,0.4420,-4.9032,-4.2671,-5.5685,0.1804,-0.0166,-0.0461,
1.013827,-0.7185,-0.4383,0.4420,-4.9048,-4.3019,-5.2399,0.1804,-0.0166,-0.0461,
1.038120,-0.6882,-0.4278,0.3963,-4.9048,-4.3019,-5.2399,0.1804,-0.0166,-0.0461,
1.039675,-0.6308,-0.4058,0.3865,-4.9048,-4.3019,-5.2399,0.1804,-0.0166,-0.0461,
1.040663,-0.5937,-0.3811,0.3787,-4.9048,-4.3019,-5.2399,0.1804,-0.0166,-0.0461,
1.070560,-0.5937,-0.3811,0.3787,-4.9048,-4.3019,-5.2399,0.1340,-0.1987,-0.0938,
1.073405,-0.5937,-0.3811,0.3787,-3.6963,-3.7865,-5.8632,0.1340,-0.1987,-0.0938,
1.099280,-0.5673,-0.3823,0.3914,-3.6963,-3.7865,-5.8632,0.1340,-0.1987,-0.0938,
1.101688,-0.5629,-0.4082,0.3982,-3.6963,-3.7865,-5.8632,0.1340,-0.1987,-0.0938,
1.102715,-0.5751,-0.4358,0.3999,-3.6963,-3.7865,-5.8632,0.1340,-0.1987,-0.0938,
1.130488,-0.5751,-0.4358,0.3999,-3.6963,-3.7865,-5.8632,0.2434,-0.3312,-0.2159,
1.133739,-0.5751,-0.4358,0.3999,-3.6557,-4.3947,-5.6845,0.2434,-0.3312,-0.2159,
1.157669,-0.5654,-0.4485,0.4051,-3.6557,-4.3947,-5.6845,0.2434,-0.3312,-0.2159,
1.160006,-0.5629,-0.4371,0.4029,-3.6557,-4.3947,-5.6845,0.2434,-0.3312,-0.2159,
1.161074,-0.5978,-0.4234,0.4163,-3.6557,-4.3947,-5.6845,0.2434,-0.3312,-0.2159,
1.189820,-0.5978,-0.4234,0.4163,-3.6557,-4.3947,-5.6845,0.0864,-0.2158,-0.3601,
1.191393,-0.5978,-0.4234,0.4163,-3.9973,-4.3081,-5.5473,0.0864,-0.2158,-0.3601,
1.217715,-0.6570,-0.4285,0.4385,-3.9973,-4.3081,-5.5473,0.0864,-0.2158,-0.3601,
1.219450,-0.6973,-0.4241,0.4591,-3.9973,-4.3081,-5.5473,0.0864,-0.2158,-0.3601,
1.220577,-0.7112,-0.4139,0.4801,-3.9973,-4.3081,-5.5473,0.0864,-0.2158,-0.3601,
1.249873,-0.7112,-0.4139,0.4801,-5.2147,-4.2097,-4.9425,0.0864,-0.2158,-0.3601,
1.251704,-0.7112,-0.4139,0.4801,-5.2147,-4.2097,-4.9425,0.1242,-0.2757,-0.1567,
1.277586,-0.7579,-0.4273,0.4737,-5.2147,-4.2097,-4.9425,0.1242,-0.2757,-0.1567,
1.279274,-0.7535,-0.4043,0.4708,-5.2147,-4.2097,-4.9425,0.1242,-0.2757,-0.1567,
1.280371,-0.7044,-0.3958,0.4854,-5.2147,-4.2097,-4.9425,0.1242,-0.2757,-0.1567,
1.309835,-0.7044,-0.3958,0.4854,-5.2147,-4.2097,-4.9425,-0.1592,-0.0270,0.0296,
1.311454,-0.7044,-0.3958,0.4854,-5.2199,-4.0046,-4.9031,-0.1592,-0.0270,0.0296,
1.337364,-0.6694,-0.3836,0.5158,-5.2199,-4.0046,-4.9031,-0.1592,-0.0270,0.0296,
1.338858,-0.6990,-0.3909,0.5062,-5.2199,-4.0046,-4.9031,-0.1592,-0.0270,0.0296,
1.339957,-0.7887,-0.4195,0.4432,-5.2199,-4.0046,-4.9031,-0.1592,-0.0270,0.0296,
1.370343,-0.7887,-0.4195,0.4432,-6.2007,-4.1140,-5.3438,-0.1592,-0.0270,0.0296,
1.372286,-0.7887,-0.4195,0.4432,-6.2007,-4.1140,-5.3438,-0.1665,-1.0545,0.1952,
1.397767,-0.8712,-0.4485,0.3899,-6.2007,-4.1140,-5.3438,-0.1665,-1.0545,0.1952,
1.399551,-0.9238,-0.5272,0.4048,-6.2007,-4.1140,-5.3438,-0.1665,-1.0545,0.1952,
1.400817,-0.8827,-0.6611,0.4126,-6.2007,-4.1140,-5.3438,-0.1665,-1.0545,0.1952,
1.430462,-0.8827,-0.6611,0.4126,-6.2007,-4.1140,-5.3438,0.0864,-0.8431,-0.0144,
1.434389,-0.8827,-0.6611,0.4126,-7.7796,-6.3796,-5.7236,0.0864,-0.8431,-0.0144,
1.457314,-0.8666,-0.7549,0.4527,-7.7796,-6.3796,-5.7236,0.0864,-0.8431,-0.0144,
1.460226,-0.6985,-0.7713,0.4554,-7.7796,-6.3796,-5.7236,0.0864,-0.8431,-0.0144,
1.462417,-0.5927,-0.8531,0.4275,-7.7796,-6.3796,-5.7236,0.0864,-0.8431,-0.0144,
1.489627,-0.5927,-0.8531,0.4275,-7.7796,-6.3796,-5.7236,-0.6674,-0.9134,-0.4859,
1.492261,-0.5927,-0.8531,0.4275,-5.1893,-8.2427,-5.5965,-0.6674,-0.9134,-0.4859,
1.517413,-0.6113,-0.9445,0.4454,-5.1893,-8.2427,-5.5965,-0.6674,-0.9134,-0.4859,
1.521232,-0.7425,-0.9076,0.5619,-5.1893,-8.2427,-5.5965,-0.6674,-0.9134,-0.4859,
1.524312,-0.8109,-0.8133,0.9242,-5.1893,-8.2427,-5.5965,-0.6674,-0.9134,-0.4859,
1.551019,-0.8109,-0.8133,0.9242,-5.1893,-8.2427,-5.5965,-0.1568,-0.8218,-0.2917,
1.553794,-0.8109,-0.8133,0.9242,-8.0758,-7.2996,-0.7253,-0.1568,-0.8218,-0.2917,
1.577727,-0.7940,-0.7464,0.9658,-8.0758,-7.2996,-0.7253,-0.1568,-0.8218,-0.2917,
1.580698,-0.6579,-0.7520,0.7642,-8.0758,-7.2996,-0.7253,-0.1568,-0.8218,-0.2917,
1.582928,-0.5651,-0.7574,0.5763,-8.0758,-7.2996,-0.7253,-0.1568,-0.8218,-0.2917,
1.609374,-0.5651,-0.7574,0.5763,-8.0758,-7.2996,-0.7253,0.0021,-0.6819,-0.4640,
1.611928,-0.5651,-0.7574,0.5763,-6.0285,-6.7830,-4.1253,0.0021,-0.6819,-0.4640,
1.637331,-0.4972,-0.7376,0.4437,-6.0285,-6.7830,-4.1253,0.0021,-0.6819,-0.4640,
1.640156,-0.4771,-0.6592,0.4131,-6.0285,-6.7830,-4.1253,0.0021,-0.6819,-0.4640,
1.641711,-0.3897,-0.5783,0.4300,-6.0285,-6.7830,-4.1253,0.0021,-0.6819,-0.4640,
1.669659,-0.3897,-0.5783,0.4300,-6.0285,-6.7830,-4.1253,0.0131,0.1122,0.0113,
1.672164,-0.3897,-0.5783,0.4300,-4.5200,-4.9304,-5.5399,0.0131,0.1122,0.0113,
1.698208,-0.3176,-0.5470,0.4989,-4.5200,-4.9304,-5.5399,0.0131,0.1122,0.0113,
1.701147,-0.3274,-0.5392,0.5646,-4.5200,-4.9304,-5.5399,0.0131,0.1122,0.0113,
1.703163,-0.3980,-0.5448,0.5832,-4.5200,-4.9304,-5.5399,0.0131,0.1122,0.0113,
1.729829,-0.3980,-0.5448,0.5832,-4.5200,-4.9304,-5.5399,0.2226,0.4855,0.3002,
1.732524,-0.3980,-0.5448,0.5832,-4.3104,-4.6569,-4.0590,0.2226,0.4855,0.3002,
1.758269,-0.4488,-0.5390,0.5959,-4.3104,-4.6569,-4.0590,0.2226,0.4855,0.3002,
1.760883,-0.4461,-0.4652,0.5881,-4.3104,-4.6569,-4.0590,0.2226,0.4855,0.3002,
1.762947,-0.4285,-0.3997,0.5610,-4.3104,-4.6569,-4.0590,0.2226,0.4855,0.3002,
1.791454,-0.4285,-0.3997,0.5610,-4.2341,-3.2671,-4.2877,0.2226,0.4855,0.3002,
1.794051,-0.4285,-0.3997,0.5610,-4.2341,-3.2671,-4.2877,-0.0059,0.7286,0.4316,
1.819701,-0.4070,-0.3738,0.5426,-4.2341,-3.2671,-4.2877,-0.0059,0.7286,0.4316,
1.822804,-0.4217,-0.3853,0.5507,-4.2341,-3.2671,-4.2877,-0.0059,0.7286,0.4316,
1.825084,-0.4295,-0.4246,0.5165,-4.2341,-3.2671,-4.2877,-0.0059,0.7286,0.4316,
1.851364,-0.4295,-0.4246,0.5165,-3.8189,-3.5080,-4.7155,-0.0059,0.7286,0.4316,
1.854087,-0.4295,-0.4246,0.5165,-3.8189,-3.5080,-4.7155,0.0790,0.0878,0.6295,
1.878839,-0.4610,-0.5104,0.4639,-3.8189,-3.5080,-4.7155,0.0790,0.0878,0.6295,
1.881702,-0.5011,-0.5844,0.4534,-3.8189,-3.5080,-4.7155,0.0790,0.0878,0.6295,
1.884173,-0.4937,-0.6208,0.4622,-3.8189,-3.5080,-4.7155,0.0790,0.0878,0.6295,
1.909175,-0.4937,-0.6208,0.4622,-3.8189,-3.5080,-4.7155,-0.2820,0.1856,0.5434,
1.911537,-0.4937,-0.6208,0.4622,-4.3777,-5.3761,-5.2404,-0.2820,0.1856,0.5434,
1.938025,-0.4512,-0.6252,0.4957,-4.3777,-5.3761,-5.2404,-0.2820,0.1856,0.5434,
1.940935,-0.4158,-0.5942,0.5099,-4.3777,-5.3761,-5.2404,-0.2820,0.1856,0.5434,
1.942814,-0.3484,-0.5612,0.5746,-4.3777,-5.3761,-5.2404,-0.2820,0.1856,0.5434,
1.970305,-0.3484,-0.5612,0.5746,-4.3777,-5.3761,-5.2404,0.1291,0.4446,0.1878,
1.972852,-0.3484,-0.5612,0.5746,-2.6855,-4.6491,-4.1110,0.1291,0.4446,0.1878,
1.997324,-0.3457,-0.5580,0.5788,-2.6855,-4.6491,-4.1110,0.1291,0.4446,0.1878,
2.000317,-0.3880,-0.6587,0.5417,-2.6855,-4.6491,-4.1110,0.1291,0.4446,0.1878,
2.002250,-0.4542,-0.7469,0.4947,-2.6855,-4.6491,-4.1110,0.1291,0.4446,0.1878,
2.029345,-0.4542,-0.7469,0.4947,-2.6855,-4.6491,-4.1110,0.7485,0.0683,-0.4432,
2.031537,-0.4542,-0.7469,0.4947,-3.5944,-6.6887,-4.9005,0.7485,0.0683,-0.4432,
2.058636,-0.6814,-0.7618,0.4156,-3.5944,-6.6887,-4.9005,0.7485,0.0683,-0.4432,
2.061630,-0.8136,-0.7278,0.2871,-3.5944,-6.6887,-4.9005,0.7485,0.0683,-0.4432,
2.063140,-0.9162,-0.6616,0.2766,-3.5944,-6.6887,-4.9005,0.7485,0.0683,-0.4432,
2.089467,-0.9162,-0.6616,0.2766,-3.5944,-6.6887,-4.9005,0.7308,0.4482,-0.1103,
2.093006,-0.9162,-0.6616,0.2766,-7.9821,-6.2717,-7.0434,0.7308,0.4482,-0.1103,
2.117838,-1.0364,-0.5866,0.2465,-7.9821,-6.2717,-7.0434,0.7308,0.4482,-0.1103,
2.122405,-1.1703,-0.5441,0.3379,-7.9821,-6.2717,-7.0434,0.7308,0.4482,-0.1103,
2.124829,-1.1747,-0.4674,0.8539,-7.9821,-6.2717,-7.0434,0.7308,0.4482,-0.1103,
2.150195,-1.1747,-0.4674,0.8539,-7.9821,-6.2717,-7.0434,-0.6186,0.9754,0.2275,
2.153551,-1.1747,-0.4674,0.8539,-9.7599,-4.4935,-1.2805,-0.6186,0.9754,0.2275,
2.177526,-0.9492,-0.4901,0.5077,-9.7599,-4.4935,-1.2805,-0.6186,0.9754,0.2275,
2.180310,-1.0254,-0.6484,0.7232,-9.7599,-4.4935,-1.2805,-0.6186,0.9754,0.2275,
2.182136,-1.1048,-0.8141,0.8334,-9.7599,-4.4935,-1.2805,-0.6186,0.9754,0.2275,
2.210243,-1.1048,-0.8141,0.8334,-9.7599,-4.4935,-1.2805,0.7412,0.0689,0.2569,
2.212661,-1.1048,-0.8141,0.8334,-8.7133,-7.6764,-1.4045,0.7412,0.0689,0.2569,
2.239596,-0.8768,-0.7110,0.8605,-8.7133,-7.6764,-1.4045,0.7412,0.0689,0.2569,
2.243098,-0.6255,-0.4476,0.6990,-8.7133,-7.6764,-1.4045,0.7412,0.0689,0.2569,
2.245394,-0.6665,-0.3401,0.4314,-8.7133,-7.6764,-1.4045,0.7412,0.0689,0.2569,
2.271487,-0.6665,-0.3401,0.4314,-4.3015,-3.4479,-5.3208,0.7412,0.0689,0.2569,
2.274176,-0.6665,-0.3401,0.4314,-4.3015,-3.4479,-5.3208,-0.0706,-0.1657,0.0040,
2.297374,-0.7537,-0.3301,0.2607,-4.3015,-3.4479,-5.3208,-0.0706,-0.1657,0.0040,
2.299264,-0.7405,-0.2978,0.3193,-4.3015,-3.4479,-5.3208,-0.0706,-0.1657,0.0040,
2.301054,-0.6057,-0.2624,0.3950,-4.3015,-3.4479,-5.3208,-0.0706,-0.1657,0.0040,
2.330080,-0.6057,-0.2624,0.3950,-4.3015,-3.4479,-5.3208,-0.8061,-0.3239,-0.2306,
2.333303,-0.6057,-0.2624,0.3950,-3.7410,-2.3311,-5.6835,-0.8061,-0.3239,-0.2306,
2.357734,-0.5739,-0.3384,0.4923,-3.7410,-2.3311,-5.6835,-0.8061,-0.3239,-0.2306,
2.360437,-0.6233,-0.4786,0.6731,-3.7410,-2.3311,-5.6835,-0.8061,-0.3239,-0.2306,
2.362753,-0.5602,-0.5167,0.7630,-3.7410,-2.3311,-5.6835,-0.8061,-0.3239,-0.2306,
2.389858,-0.5602,-0.5167,0.7630,-3.7410,-2.3311,-5.6835,0.3099,-0.2512,-0.2825,
2.392726,-0.5602,-0.5167,0.7630,-3.4290,-4.5572,-2.0968,0.3099,-0.2512,-0.2825,
2.420059,-0.5346,-0.4613,0.6809,-3.4290,-4.5572,-2.0968,0.3099,-0.2512,-0.2825,
2.422885,-0.5773,-0.3721,0.5243,-3.4290,-4.5572,-2.0968,0.3099,-0.2512,-0.2825,
2.426650,-0.5949,-0.3220,0.4263,-3.4290,-4.5572,-2.0968,0.3099,-0.2512,-0.2825,
2.449820,-0.5949,-0.3220,0.4263,-3.4290,-4.5572,-2.0968,0.4077,-0.6428,-0.2581,
2.452725,-0.5949,-0.3220,0.4263,-4.0206,-2.8525,-5.4556,0.4077,-0.6428,-0.2581,
2.477849,-0.6108,-0.3247,0.3833,-4.0206,-2.8525,-5.4556,0.4077,-0.6428,-0.2581,
2.480494,-0.6062,-0.3809,0.3767,-4.0206,-2.8525,-5.4556,0.4077,-0.6428,-0.2581,
2.482229,-0.6032,-0.4099,0.3860,-4.0206,-2.8525,-5.4556,0.4077,-0.6428,-0.2581,
2.509039,-0.6032,-0.4099,0.3860,-4.0206,-2.8525,-5.4556,-0.2857,0.0218,-0.1726,
2.511699,-0.6032,-0.4099,0.3860,-4.2606,-3.7129,-5.8790,-0.2857,0.0218,-0.1726,
2.538656,-0.6118,-0.4063,0.4493,-4.2606,-3.7129,-5.8790,-0.2857,0.0218,-0.1726,
2.541576,-0.6516,-0.4060,0.5343,-4.2606,-3.7129,-5.8790,-0.2857,0.0218,-0.1726,
2.543910,-0.7207,-0.4114,0.5448,-4.2606,-3.7129,-5.8790,-0.2857,0.0218,-0.1726,
2.572033,-0.7207,-0.4114,0.5448,-5.4456,-3.5823,-4.3225,-0.2857,0.0218,-0.1726,
2.574605,-0.7207,-0.4114,0.5448,-5.4456,-3.5823,-4.3225,0.1426,-0.6183,-0.1151,
2.597173,-0.7735,-0.4456,0.5429,-5.4456,-3.5823,-4.3225,0.1426,-0.6183,-0.1151,
2.599597,-0.7813,-0.5226,0.5270,-5.4456,-3.5823,-4.3225,0.1426,-0.6183,-0.1151,
2.601760,-0.7232,-0.6042,0.5304,-5.4456,-3.5823,-4.3225,0.1426,-0.6183,-0.1151,
2.629515,-0.7232,-0.6042,0.5304,-5.4456,-3.5823,-4.3225,0.4853,-0.4638,-0.4982,
2.631787,-0.7232,-0.6042,0.5304,-5.8468,-5.6263,-4.5253,0.4853,-0.4638,-0.4982,
2.657814,-0.7161,-0.7039,0.4485,-5.8468,-5.6263,-4.5253,0.4853,-0.4638,-0.4982,
2.660562,-0.7068,-0.7435,0.3679,-5.8468,-5.6263,-4.5253,0.4853,-0.4638,-0.4982,
2.662888,-0.7351,-0.8216,0.3125,-5.8468,-5.6263,-4.5253,0.4853,-0.4638,-0.4982,
2.691822,-0.7351,-0.8216,0.3125,-5.8468,-5.6263,-4.5253,-1.3308,-0.9195,-0.3668,
2.695662,-0.7351,-0.8216,0.3125,-6.2027,-7.7305,-6.6879,-1.3308,-0.9195,-0.3668,
2.718067,-0.8177,-0.9521,0.4449,-6.2027,-7.7305,-6.6879,-1.3308,-0.9195,-0.3668,
2.721438,-0.8544,-0.9018,0.8363,-6.2027,-7.7305,-6.6879,-1.3308,-0.9195,-0.3668,
2.723636,-0.8280,-0.8693,1.1087,-6.2027,-7.7305,-6.6879,-1.3308,-0.9195,-0.3668,
2.750258,-0.8280,-0.8693,1.1087,-6.2027,-7.7305,-6.6879,-0.2325,-0.9818,-0.2728,
2.753307,-0.8280,-0.8693,1.1087,-7.7948,-7.3671,1.1317,-0.2325,-0.9818,-0.2728,
2.778021,-0.6785,-0.8209,1.0698,-7.7948,-7.3671,1.1317,-0.2325,-0.9818,-0.2728,
2.780775,-0.6220,-0.7681,0.9445,-7.7948,-7.3671,1.1317,-0.2325,-0.9818,-0.2728,
2.782264,-0.6316,-0.7322,0.7461,-7.7948,-7.3671,1.1317,-0.2325,-0.9818,-0.2728,
2.809805,-0.6316,-0.7322,0.7461,-7.7948,-7.3671,1.1317,0.1255,-0.5548,-0.1457,
2.812227,-0.6316,-0.7322,0.7461,-6.2791,-6.1236,-2.4374,0.1255,-0.5548,-0.1457,
2.841055,-0.5617,-0.7080,0.5614,-6.2791,-6.1236,-2.4374,0.1255,-0.5548,-0.1457,
2.842912,-0.4075,-0.6291,0.3982,-6.2791,-6.1236,-2.4374,0.1255,-0.5548,-0.1457,
2.844159,-0.3112,-0.5167,0.3200,-6.2791,-6.1236,-2.4374,0.1255,-0.5548,-0.1457,
2.869756,-0.3112,-0.5167,0.3200,-6.2791,-6.1236,-2.4374,-0.2221,0.0567,0.3387,
2.871707,-0.3112,-0.5167,0.3200,-3.3069,-3.9075,-6.5984,-0.2221,0.0567,0.3387,
2.897183,-0.3249,-0.4566,0.3117,-3.3069,-3.9075,-6.5984,-0.2221,0.0567,0.3387,
2.899615,-0.3757,-0.4503,0.3347,-3.3069,-3.9075,-6.5984,-0.2221,0.0567,0.3387,
2.901398,-0.3889,-0.4415,0.4121,-3.3069,-3.9075,-6.5984,-0.2221,0.0567,0.3387,
2.930361,-0.3889,-0.4415,0.4121,-3.3069,-3.9075,-6.5984,-0.2142,1.0817,0.7156,
2.932713,-0.3889,-0.4415,0.4121,-3.8775,-3.0703,-5.6866,-0.2142,1.0817,0.7156,
2.959658,-0.2995,-0.3533,0.7176,-3.8775,-3.0703,-5.6866,-0.2142,1.0817,0.7156,
2.961280,-0.3259,-0.3301,0.5541,-3.8775,-3.0703,-5.6866,-0.2142,1.0817,0.7156,
2.962514,-0.4610,-0.4055,0.5487,-3.8775,-3.0703,-5.6866,-0.2142,1.0817,0.7156,
2.997802,-0.4610,-0.4055,0.5487,-3.8775,-3.0703,-5.6866,-0.0444,-0.6892,0.6539,
2.999393,-0.4610,-0.4055,0.5487,-4.2930,-2.5966,-4.3291,-0.0444,-0.6892,0.6539,
3.017438,-0.4793,-0.4503,0.5385,-4.2930,-2.5966,-4.3291,-0.0444,-0.6892,0.6539,
3.018806,-0.3884,-0.5021,0.4678,-4.2930,-2.5966,-4.3291,-0.0444,-0.6892,0.6539,
3.020047,-0.3931,-0.5527,0.4608,-4.2930,-2.5966,-4.3291,-0.0444,-0.6892,0.6539,
3.048783,-0.3931,-0.5527,0.4608,-4.2930,-2.5966,-4.3291,-0.2637,-0.2598,0.6503,
3.050230,-0.3931,-0.5527,0.4608,-3.9675,-3.9427,-5.1792,-0.2637,-0.2598,0.6503,
3.078127,-0.4380,-0.6132,0.4637,-3.9675,-3.9427,-5.1792,-0.2637,-0.2598,0.6503,
3.079410,-0.4385,-0.6423,0.4930,-3.9675,-3.9427,-5.1792,-0.2637,-0.2598,0.6503,
3.080123,-0.4207,-0.6472,0.5524,-3.9675,-3.9427,-5.1792,-0.2637,-0.2598,0.6503,
3.109523,-0.4207,-0.6472,0.5524,-4.0189,-4.6151,-4.2392,-0.2637,-0.2598,0.6503,
3.110759,-0.4207,-0.6472,0.5524,-4.0189,-4.6151,-4.2392,-0.3565,0.7127,0.5458,
3.136893,-0.4075,-0.6338,0.6582,-4.0189,-4.6151,-4.2392,-0.3565,0.7127,0.5458,
3.138574,-0.3249,-0.5842,0.7869,-4.0189,-4.6151,-4.2392,-0.3565,0.7127,0.5458,
3.139739,-0.3425,-0.5785,0.8062,-4.0189,-4.6151,-4.2392,-0.3565,0.7127,0.5458,
3.169246,-0.3425,-0.5785,0.8062,-4.0189,-4.6151,-4.2392,0.4468,-0.1443,0.1988,
3.170672,-0.3425,-0.5785,0.8062,-2.8182,-3.9304,-1.7350,0.4468,-0.1443,0.1988,
3.196799,-0.4244,-0.6135,0.6413,-2.8182,-3.9304,-1.7350,0.4468,-0.1443,0.1988,
3.197992,-0.4906,-0.7005,0.4879,-2.8182,-3.9304,-1.7350,0.4468,-0.1443,0.1988,
3.198694,-0.6680,-0.7554,0.4488,-2.8182,-3.9304,-1.7350,0.4468,-0.1443,0.1988,
3.229054,-0.6680,-0.7554,0.4488,-6.2192,-5.8597,-5.2808,0.4468,-0.1443,0.1988,
3.230412,-0.6680,-0.7554,0.4488,-6.2192,-5.8597,-5.2808,0.4492,-0.0020,-0.2892,
3.257950,-0.7185,-0.7310,0.4146,-6.2192,-5.8597,-5.2808,0.4492,-0.0020,-0.2892,
3.259103,-0.7608,-0.6736,0.3906,-6.2192,-5.8597,-5.2808,0.4492,-0.0020,-0.2892,
3.259997,-0.8485,-0.5737,0.3423,-6.2192,-5.8597,-5.2808,0.4492,-0.0020,-0.2892,
3.290304,-0.8485,-0.5737,0.3423,-6.2192,-5.8597,-5.2808,0.3063,1.0909,0.2471,
3.291884,-0.8485,-0.5737,0.3423,-7.7368,-4.3164,-6.3479,0.3063,1.0909,0.2471,
3.317540,-0.9687,-0.5160,0.5028,-7.7368,-4.3164,-6.3479,0.3063,1.0909,0.2471,
3.318710,-1.0481,-0.5111,0.6731,-7.7368,-4.3164,-6.3479,0.3063,1.0909,0.2471,
3.320217,-1.0523,-0.6220,0.7955,-7.7368,-4.3164,-6.3479,0.3063,1.0909,0.2471,
3.349507,-1.0523,-0.6220,0.7955,-7.7368,-4.3164,-6.3479,-0.3907,2.0224,0.1634,
3.350906,-1.0523,-0.6220,0.7955,-8.6297,-4.7538,-1.7718,-0.3907,2.0224,0.1634,
3.377062,-1.0381,-0.7503,0.8734,-8.6297,-4.7538,-1.7718,-0.3907,2.0224,0.1634,
3.378435,-1.0014,-0.8102,0.8676,-8.6297,-4.7538,-1.7718,-0.3907,2.0224,0.1634,
3.379171,-0.8121,-0.7014,0.8356,-8.6297,-4.7538,-1.7718,-0.3907,2.0224,0.1634,
3.408627,-0.8121,-0.7014,0.8356,-8.6297,-4.7538,-1.7718,0.8506,-0.3276,0.0437,
3.410090,-0.8121,-0.7014,0.8356,-5.8843,-5.6324,-1.3155,0.8506,-0.3276,0.0437,
3.437229,-0.7124,-0.4588,0.7009,-5.8843,-5.6324,-1.3155,0.8506,-0.3276,0.0437,
3.440433,-0.6540,-0.3503,0.4124,-5.8843,-5.6324,-1.3155,0.8506,-0.3276,0.0437,
3.442115,-0.6421,-0.3481,0.2614,-5.8843,-5.6324,-1.3155,0.8506,-0.3276,0.0437,
3.470017,-0.6421,-0.3481,0.2614,-5.8843,-5.6324,-1.3155,-0.5098,-0.3294,-0.1359,
3.473777,-0.6421,-0.3481,0.2614,-4.3778,-2.3639,-6.9989,-0.5098,-0.3294,-0.1359,
3.497512,-0.6181,-0.3423,0.2563,-4.3778,-2.3639,-6.9989,-0.5098,-0.3294,-0.1359,
3.500867,-0.5414,-0.3252,0.4217,-4.3778,-2.3639,-6.9989,-0.5098,-0.3294,-0.1359,
3.502646,-0.5011,-0.3855,0.5500,-4.3778,-2.3639,-6.9989,-0.5098,-0.3294,-0.1359,
3.529626,-0.5011,-0.3855,0.5500,-3.0943,-2.3152,-4.1356,-0.5098,-0.3294,-0.1359,
3.533226,-0.5011,-0.3855,0.5500,-3.0943,-2.3152,-4.1356,-0.1543,-0.0057,-0.2715,
3.560039,-0.4737,-0.4395,0.6777,-3.0943,-2.3152,-4.1356,-0.1543,-0.0057,-0.2715,
3.562791,-0.3833,-0.4134,0.6716,-3.0943,-2.3152,-4.1356,-0.1543,-0.0057,-0.2715,
3.564730,-0.4268,-0.3616,0.6181,-3.0943,-2.3152,-4.1356,-0.1543,-0.0057,-0.2715,
3.589851,-0.4268,-0.3616,0.6181,-3.0943,-2.3152,-4.1356,0.6520,-0.1077,-0.4310,
3.593314,-0.4268,-0.3616,0.6181,-2.3501,-2.1761,-3.4788,0.6520,-0.1077,-0.4310,
3.617664,-0.5561,-0.2853,0.5224,-2.3501,-2.1761,-3.4788,0.6520,-0.1077,-0.4310,
3.621317,-0.6269,-0.2536,0.3840,-2.3501,-2.1761,-3.4788,0.6520,-0.1077,-0.4310,
3.623974,-0.6611,-0.3017,0.3442,-2.3501,-2.1761,-3.4788,0.6520,-0.1077,-0.4310,
3.650011,-0.6611,-0.3017,0.3442,-2.3501,-2.1761,-3.4788,-0.0743,-0.1058,-0.1628,
3.653165,-0.6611,-0.3017,0.3442,-4.7050,-1.7648,-6.1975,-0.0743,-0.1058,-0.1628,
3.677856,-0.6670,-0.3608,0.3428,-4.7050,-1.7648,-6.1975,-0.0743,-0.1058,-0.1628,
3.681409,-0.6531,-0.4107,0.4354,-4.7050,-1.7648,-6.1975,-0.0743,-0.1058,-0.1628,
3.683370,-0.6052,-0.4253,0.5785,-4.7050,-1.7648,-6.1975,-0.0743,-0.1058,-0.1628,
3.709474,-0.6052,-0.4253,0.5785,-4.0909,-2.8136,-3.8670,-0.0743,-0.1058,-0.1628,
3.713307,-0.6052,-0.4253,0.5785,-4.0909,-2.8136,-3.8670,-0.1256,-0.0136,-0.0669,
3.737479,-0.6455,-0.4202,0.6140,-4.0909,-2.8136,-3.8670,-0.1256,-0.0136,-0.0669,
3.741137,-0.8040,-0.4305,0.5573,-4.0909,-2.8136,-3.8670,-0.1256,-0.0136,-0.0669,
3.743339,-0.8671,-0.4747,0.5150,-4.0909,-2.8136,-3.8670,-0.1256,-0.0136,-0.0669,
3.770015,-0.8671,-0.4747,0.5150,-6.9285,-3.3581,-4.5462,-0.1256,-0.0136,-0.0669,
3.773110,-0.8671,-0.4747,0.5150,-6.9285,-3.3581,-4.5462,0.4156,-0.7381,-0.1500,
3.798417,-0.8417,-0.5145,0.5226,-6.9285,-3.3581,-4.5462,0.4156,-0.7381,-0.1500,
3.801887,-0.8417,-0.6992,0.5497,-6.9285,-3.3581,-4.5462,0.4156,-0.7381,-0.1500,
3.804273,-0.8480,-0.7730,0.4891,-6.9285,-3.3581,-4.5462,0.4156,-0.7381,-0.1500,
3.829746,-0.8480,-0.7730,0.4891,-6.9614,-6.4687,-4.8569,0.4156,-0.7381,-0.1500,
3.831867,-0.8480,-0.7730,0.4891,-6.9614,-6.4687,-4.8569,0.2342,-0.1749,-0.4071,
3.858759,-0.7713,-0.7740,0.4248,-6.9614,-6.4687,-4.8569,0.2342,-0.1749,-0.4071,
3.862061,-0.7151,-0.8649,0.4439,-6.9614,-6.4687,-4.8569,0.2342,-0.1749,-0.4071,
3.864001,-0.7205,-1.0256,0.6492,-6.9614,-6.4687,-4.8569,0.2342,-0.1749,-0.4071,
3.890942,-0.7205,-1.0256,0.6492,-5.7561,-8.6729,-3.2596,0.2342,-0.1749,-0.4071,
3.896691,-0.7205,-1.0256,0.6492,-5.7561,-8.6729,-3.2596,-1.3235,-0.7833,-0.5061,
3.918515,-0.7672,-1.0046,0.8412,-5.7561,-8.6729,-3.2596,-1.3235,-0.7833,-0.5061,
3.920723,-0.8788,-0.8439,1.0603,-5.7561,-8.6729,-3.2596,-1.3235,-0.7833,-0.5061,
3.921553,-0.8011,-0.7078,1.1197,-5.7561,-8.6729,-3.2596,-1.3235,-0.7833,-0.5061,
3.949300,-0.8011,-0.7078,1.1197,-5.7561,-8.6729,-3.2596,0.1810,-0.8474,-0.2294,
3.951536,-0.8011,-0.7078,1.1197,-7.2969,-5.0341,1.3685,0.1810,-0.8474,-0.2294,
3.977326,-0.6404,-0.5981,0.9660,-7.2969,-5.0341,1.3685,0.1810,-0.8474,-0.2294,
3.979298,-0.5231,-0.5847,0.5991,-7.2969,-5.0341,1.3685,0.1810,-0.8474,-0.2294,
3.980579,-0.4654,-0.6247,0.3797,-7.2969,-5.0341,1.3685,0.1810,-0.8474,-0.2294,
4.010374,-0.4654,-0.6247,0.3797,-7.2969,-5.0341,1.3685,-0.9240,-0.6159,0.1060,
4.012367,-0.4654,-0.6247,0.3797,-4.4038,-4.0755,-5.8688,-0.9240,-0.6159,0.1060,
4.038103,-0.4055,-0.6846,0.3723,-4.4038,-4.0755,-5.8688,-0.9240,-0.6159,0.1060,
4.039802,-0.3980,-0.6269,0.4742,-4.4038,-4.0755,-5.8688,-0.9240,-0.6159,0.1060,
4.041194,-0.3628,-0.5202,0.4957,-4.4038,-4.0755,-5.8688,-0.9240,-0.6159,0.1060,
4.069095,-0.3628,-0.5202,0.4957,-4.4038,-4.0755,-5.8688,-0.4225,0.0860,0.6643,
4.073056,-0.3628,-0.5202,0.4957,-3.4588,-2.5212,-4.6038,-0.4225,0.0860,0.6643,
4.096896,-0.3467,-0.4752,0.4962,-3.4588,-2.5212,-4.6038,-0.4225,0.0860,0.6643,
4.099941,-0.3535,-0.4503,0.4705,-3.4588,-2.5212,-4.6038,-0.4225,0.0860,0.6643,
4.101598,-0.3437,-0.4080,0.4884,-3.4588,-2.5212,-4.6038,-0.4225,0.0860,0.6643,
4.131841,-0.3437,-0.4080,0.4884,-3.4588,-2.5212,-4.6038,0.1261,0.7989,0.7627,
4.134835,-0.3437,-0.4080,0.4884,-3.0299,-1.4205,-4.6697,0.1261,0.7989,0.7627,
4.158447,-0.2646,-0.3384,0.7239,-3.0299,-1.4205,-4.6697,0.1261,0.7989,0.7627,
4.163745,-0.3748,-0.3892,0.4989,-3.0299,-1.4205,-4.6697,0.1261,0.7989,0.7627,
4.165719,-0.4705,-0.4161,0.4334,-3.0299,-1.4205,-4.6697,0.1261,0.7989,0.7627,
4.189298,-0.4705,-0.4161,0.4334,-3.0299,-1.4205,-4.6697,-0.1678,-0.9488,0.6680,
4.191691,-0.4705,-0.4161,0.4334,-4.1426,-1.5169,-5.2076,-0.1678,-0.9488,0.6680,
4.217308,-0.4656,-0.4578,0.3643,-4.1426,-1.5169,-5.2076,-0.1678,-0.9488,0.6680,
4.220372,-0.4652,-0.5013,0.4578,-4.1426,-1.5169,-5.2076,-0.1678,-0.9488,0.6680,
4.222430,-0.4617,-0.5729,0.5121,-4.1426,-1.5169,-5.2076,-0.1678,-0.9488,0.6680,
4.249554,-0.4617,-0.5729,0.5121,-4.1426,-1.5169,-5.2076,-0.1586,-0.1205,0.5037,
4.252456,-0.4617,-0.5729,0.5121,-4.2991,-2.9158,-4.4067,-0.1586,-0.1205,0.5037,
4.277698,-0.4598,-0.6738,0.5490,-4.2991,-2.9158,-4.4067,-0.1586,-0.1205,0.5037,
4.281082,-0.4070,-0.6863,0.5143,-4.2991,-2.9158,-4.4067,-0.1586,-0.1205,0.5037,
4.282894,-0.3293,-0.6196,0.5082,-4.2991,-2.9158,-4.4067,-0.1586,-0.1205,0.5037,
4.310132,-0.3293,-0.6196,0.5082,-2.8341,-3.2252,-4.3959,-0.1586,-0.1205,0.5037,
4.313611,-0.3293,-0.6196,0.5082,-2.8341,-3.2252,-4.3959,-0.2655,0.1684,0.3186,
4.337293,-0.2959,-0.5307,0.5321,-2.8341,-3.2252,-4.3959,-0.2655,0.1684,0.3186,
4.340761,-0.3369,-0.5568,0.5768,-2.8341,-3.2252,-4.3959,-0.2655,0.1684,0.3186,
4.342835,-0.3582,-0.6145,0.6208,-2.8341,-3.2252,-4.3959,-0.2655,0.1684,0.3186,
4.369953,-0.3582,-0.6145,0.6208,-2.8341,-3.2252,-4.3959,0.2409,0.0512,0.0168,
4.372845,-0.3582,-0.6145,0.6208,-2.9900,-3.1064,-3.2649,0.2409,0.0512,0.0168,
4.398294,-0.3782,-0.6702,0.5820,-2.9900,-3.1064,-3.2649,0.2409,0.0512,0.0168,
4.401660,-0.4180,-0.6511,0.5495,-2.9900,-3.1064,-3.2649,0.2409,0.0512,0.0168,
4.403888,-0.5517,-0.6467,0.4114,-2.9900,-3.1064,-3.2649,0.2409,0.0512,0.0168,
4.430111,-0.5517,-0.6467,0.4114,-2.9900,-3.1064,-3.2649,0.4089,0.2375,-0.1707,
4.433279,-0.5517,-0.6467,0.4114,-4.8843,-3.5688,-5.3613,0.4089,0.2375,-0.1707,
4.457642,-0.7471,-0.6912,0.4356,-4.8843,-3.5688,-5.3613,0.4089,0.2375,-0.1707,
4.463555,-0.8551,-0.7080,0.5307,-4.8843,-3.5688,-5.3613,0.4089,0.2375,-0.1707,
4.480400,-1.0188,-0.7127,0.5331,-4.8843,-3.5688,-5.3613,0.4089,0.2375,-0.1707,
4.490590,-1.0188,-0.7127,0.5331,-9.0496,-4.4836,-4.2119,0.4089,0.2375,-0.1707,
4.492600,-1.0188,-0.7127,0.5331,-9.0496,-4.4836,-4.2119,0.5152,1.7188,0.1530,
4.517377,-1.1512,-0.6663,0.6592,-9.0496,-4.4836,-4.2119,0.5152,1.7188,0.1530,
4.519092,-1.1822,-0.5695,0.7129,-9.0496,-4.4836,-4.2119,0.5152,1.7188,0.1530,
4.520670,-1.0325,-0.5419,0.6423,-9.0496,-4.4836,-4.2119,0.5152,1.7188,0.1530,
4.550034,-1.0325,-0.5419,0.6423,-9.0496,-4.4836,-4.2119,-0.0260,1.1336,0.1848,
4.551719,-1.0325,-0.5419,0.6423,-8.1009,-2.9596,-3.0098,-0.0260,1.1336,0.1848,
4.580637,-0.7628,-0.5925,0.6514,-8.1009,-2.9596,-3.0098,-0.0260,1.1336,0.1848,
4.584026,-0.7720,-0.6863,0.7544,-8.1009,-2.9596,-3.0098,-0.0260,1.1336,0.1848,
4.586328,-0.8607,-0.8026,0.8265,-8.1009,-2.9596,-3.0098,-0.0260,1.1336,0.1848,
4.611726,-0.8607,-0.8026,0.8265,-5.9077,-5.6358,-1.1095,-0.0260,1.1336,0.1848,
4.615372,-0.8607,-0.8026,0.8265,-5.9077,-5.6358,-1.1095,0.8872,0.6376,-0.0480,
4.637368,-0.9577,-0.7879,0.7735,-5.9077,-5.6358,-1.1095,0.8872,0.6376,-0.0480,
4.640344,-0.9269,-0.5588,0.5522,-5.9077,-5.6358,-1.1095,0.8872,0.6376,-0.0480,
4.642409,-0.9191,-0.4248,0.4913,-5.9077,-5.6358,-1.1095,0.8872,0.6376,-0.0480,
4.669557,-0.9191,-0.4248,0.4913,-5.9077,-5.6358,-1.1095,0.0008,0.3945,-0.0596,
4.672492,-0.9191,-0.4248,0.4913,-6.1192,-2.2925,-4.3683,0.0008,0.3945,-0.0596,
4.697421,-0.8920,-0.3604,0.4080,-6.1192,-2.2925,-4.3683,0.0008,0.3945,-0.0596,
4.700575,-0.7632,-0.3130,0.3601,-6.1192,-2.2925,-4.3683,0.0008,0.3945,-0.0596,
4.702570,-0.6809,-0.2961,0.3574,-6.1192,-2.2925,-4.3683,0.0008,0.3945,-0.0596,
4.729834,-0.6809,-0.2961,0.3574,-6.1192,-2.2925,-4.3683,-0.5147,-0.3428,-0.2007,
4.733257,-0.6809,-0.2961,0.3574,-3.7905,-0.7945,-5.6308,-0.5147,-0.3428,-0.2007,
4.757524,-0.5380,-0.3039,0.4266,-3.7905,-0.7945,-5.6308,-0.5147,-0.3428,-0.2007,
4.761193,-0.3740,-0.3474,0.5343,-3.7905,-0.7945,-5.6308,-0.5147,-0.3428,-0.2007,
4.763858,-0.3196,-0.4344,0.6008,-3.7905,-0.7945,-5.6308,-0.5147,-0.3428,-0.2007,
4.789971,-0.3196,-0.4344,0.6008,-0.3301,-1.9093,-3.2124,-0.5147,-0.3428,-0.2007,
4.793168,-0.3196,-0.4344,0.6008,-0.3301,-1.9093,-3.2124,0.1639,-0.1083,-0.4756,
4.817432,-0.3840,-0.4639,0.5810,-0.3301,-1.9093,-3.2124,0.1639,-0.1083,-0.4756,
4.820634,-0.4713,-0.3589,0.4881,-0.3301,-1.9093,-3.2124,0.1639,-0.1083,-0.4756,
4.822843,-0.5070,-0.3061,0.4314,-0.3301,-1.9093,-3.2124,0.1639,-0.1083,-0.4756,
4.850427,-0.5070,-0.3061,0.4314,-0.3301,-1.9093,-3.2124,0.4877,-0.3349,-0.5250,
4.853810,-0.5070,-0.3061,0.4314,-2.4382,-0.8034,-4.9884,0.4877,-0.3349,-0.5250,
4.877909,-0.5668,-0.3154,0.4737,-2.4382,-0.8034,-4.9884,0.4877,-0.3349,-0.5250,
4.881821,-0.6738,-0.3828,0.3833,-2.4382,-0.8034,-4.9884,0.4877,-0.3349,-0.5250,
4.884155,-0.6675,-0.3572,0.3665,-2.4382,-0.8034,-4.9884,0.4877,-0.3349,-0.5250,
4.909747,-0.6675,-0.3572,0.3665,-2.4382,-0.8034,-4.9884,-0.3150,-0.3001,-0.0712,
4.913206,-0.6675,-0.3572,0.3665,-4.1356,-1.2643,-5.6490,-0.3150,-0.3001,-0.0712,
4.938472,-0.6758,-0.3105,0.3990,-4.1356,-1.2643,-5.6490,-0.3150,-0.3001,-0.0712,
4.941918,-0.7083,-0.2959,0.5062,-4.1356,-1.2643,-5.6490,-0.3150,-0.3001,-0.0712,
4.944579,-0.6826,-0.2954,0.5771,-4.1356,-1.2643,-5.6490,-0.3150,-0.3001,-0.0712,
4.970008,-0.6826,-0.2954,0.5771,-4.3776,-0.5121,-3.5722,-0.3150,-0.3001,-0.0712,
4.973686,-0.6826,-0.2954,0.5771,-4.3776,-0.5121,-3.5722,-0.2087,-0.3361,0.0547,
4.997926,-0.6335,-0.3484,0.5404,-4.3776,-0.5121,-3.5722,-0.2087,-0.3361,0.0547,
5.001899,-0.6450,-0.3865,0.5141,-4.3776,-0.5121,-3.5722,-0.2087,-0.3361,0.0547,
5.004336,-0.6362,-0.3801,0.4771,-4.3776,-0.5121,-3.5722,-0.2087,-0.3361,0.0547,
5.028816,-0.6362,-0.3801,0.4771,-4.3776,-0.5121,-3.5722,-0.1219,-0.5371,0.0736,
5.032151,-0.6362,-0.3801,0.4771,-4.1857,-1.2426,-4.5873,-0.1219,-0.5371,0.0736,
5.058260,-0.5991,-0.3865,0.5465,-4.1857,-1.2426,-4.5873,-0.1219,-0.5371,0.0736,
5.067897,-0.6983,-0.5133,0.4661,-4.1857,-1.2426,-4.5873,-0.1219,-0.5371,0.0736,
5.068925,-0.7508,-0.7100,0.5004,-4.1857,-1.2426,-4.5873,-0.1219,-0.5371,0.0736,
5.090181,-0.7508,-0.7100,0.5004,-4.1857,-1.2426,-4.5873,0.0992,-0.4595,-0.1127,
5.091915,-0.7508,-0.7100,0.5004,-5.7181,-4.4722,-4.4400,0.0992,-0.4595,-0.1127,
5.116652,-0.8219,-0.7879,0.5409,-5.7181,-4.4722,-4.4400,0.0992,-0.4595,-0.1127,
5.117983,-0.7891,-0.7593,0.5275,-5.7181,-4.4722,-4.4400,0.0992,-0.4595,-0.1127,
5.119007,-0.8040,-0.7884,0.5732,-5.7181,-4.4722,-4.4400,0.0992,-0.4595,-0.1127,
5.150547,-0.8040,-0.7884,0.5732,-6.1984,-5.1852,-3.7042,0.0992,-0.4595,-0.1127,
5.153217,-0.8040,-0.7884,0.5732,-6.1984,-5.1852,-3.7042,-0.5850,0.3969,0.0254,
5.176996,-0.9049,-0.9338,0.6658,-6.1984,-5.1852,-3.7042,-0.5850,0.3969,0.0254,
5.181570,-0.9670,-1.0889,0.7852,-6.1984,-5.1852,-3.7042,-0.5850,0.3969,0.0254,
5.183693,-0.9052,-1.0757,1.0154,-6.1984,-5.1852,-3.7042,-0.5850,0.3969,0.0254,
5.209474,-0.9052,-1.0757,1.0154,-6.1984,-5.1852,-3.7042,-0.3205,-0.9207,0.0736,
5.210531,-0.9052,-1.0757,1.0154,-7.3630,-7.5134,0.7460,-0.3205,-0.9207,0.0736,
5.236593,-0.7674,-0.9150,1.1436,-7.3630,-7.5134,0.7460,-0.3205,-0.9207,0.0736,
5.238118,-0.6924,-0.6846,0.9062,-7.3630,-7.5134,0.7460,-0.3205,-0.9207,0.0736,
5.238781,-0.6799,-0.6145,0.6106,-7.3630,-7.5134,0.7460,-0.3205,-0.9207,0.0736,
5.269779,-0.6799,-0.6145,0.6106,-7.3630,-7.5134,0.7460,-0.5764,-1.1901,0.1518,
5.272513,-0.6799,-0.6145,0.6106,-5.7535,-2.8556,-3.2534,-0.5764,-1.1901,0.1518,
5.297237,-0.6584,-0.6069,0.4388,-5.7535,-2.8556,-3.2534,-0.5764,-1.1901,0.1518,
5.298549,-0.5610,-0.5991,0.3748,-5.7535,-2.8556,-3.2534,-0.5764,-1.1901,0.1518,
5.299328,-0.4911,-0.5453,0.3567,-5.7535,-2.8556,-3.2534,-0.5764,-1.1901,0.1518,
5.329008,-0.4911,-0.5453,0.3567,-4.3675,-1.7876,-5.6327,-0.5764,-1.1901,0.1518,
5.330477,-0.4911,-0.5453,0.3567,-4.3675,-1.7876,-5.6327,-0.6320,-1.0062,0.5739,
5.356681,-0.4410,-0.4830,0.3743,-4.3675,-1.7876,-5.6327,-0.6320,-1.0062,0.5739,
5.358065,-0.3965,-0.4930,0.4168,-4.3675,-1.7876,-5.6327,-0.6320,-1.0062,0.5739,
5.358946,-0.3538,-0.5365,0.4859,-4.3675,-1.7876,-5.6327,-0.6320,-1.0062,0.5739,
5.389455,-0.3538,-0.5365,0.4859,-3.2638,-1.4543,-4.2746,-0.6320,-1.0062,0.5739,
5.391941,-0.3538,-0.5365,0.4859,-3.2638,-1.4543,-4.2746,-0.2301,-0.3520,0.6112,
5.417605,-0.3406,-0.5490,0.4725,-3.2638,-1.4543,-4.2746,-0.2301,-0.3520,0.6112,
5.420405,-0.3560,-0.5194,0.4363,-3.2638,-1.4543,-4.2746,-0.2301,-0.3520,0.6112,
5.422204,-0.3301,-0.4595,0.4500,-3.2638,-1.4543,-4.2746,-0.2301,-0.3520,0.6112,
5.449682,-0.3301,-0.4595,0.4500,-3.2638,-1.4543,-4.2746,-0.2747,0.0188,0.5483,
5.452958,-0.3301,-0.4595,0.4500,-3.0012,-0.5689,-4.5696,-0.2747,0.0188,0.5483,
5.477483,-0.3218,-0.4222,0.4766,-3.0012,-0.5689,-4.5696,-0.2747,0.0188,0.5483,
5.480491,-0.3244,-0.4400,0.4984,-3.0012,-0.5689,-4.5696,-0.2747,0.0188,0.5483,
5.483119,-0.3291,-0.4845,0.5053,-3.0012,-0.5689,-4.5696,-0.2747,0.0188,0.5483,
5.510814,-0.3291,-0.4845,0.5053,-3.0012,-0.5689,-4.5696,0.2934,-0.2665,0.3381,
5.513436,-0.3291,-0.4845,0.5053,-2.8713,-0.7561,-3.9991,0.2934,-0.2665,0.3381,
5.539311,-0.3279,-0.4893,0.4928,-2.8713,-0.7561,-3.9991,0.2934,-0.2665,0.3381,
5.541938,-0.3486,-0.4937,0.4691,-2.8713,-0.7561,-3.9991,0.2934,-0.2665,0.3381,
5.543742,-0.3897,-0.5600,0.4478,-2.8713,-0.7561,-3.9991,0.2934,-0.2665,0.3381,
5.569230,-0.3897,-0.5600,0.4478,-2.8713,-0.7561,-3.9991,0.2818,0.7103,0.2544,
5.572365,-0.3897,-0.5600,0.4478,-3.3667,-1.6922,-4.6424,0.2818,0.7103,0.2544,
5.597662,-0.4385,-0.6208,0.4429,-3.3667,-1.6922,-4.6424,0.2818,0.7103,0.2544,
5.600314,-0.4117,-0.6132,0.5048,-3.3667,-1.6922,-4.6424,0.2818,0.7103,0.2544,
5.602141,-0.3782,-0.5512,0.6010,-3.3667,-1.6922,-4.6424,0.2818,0.7103,0.2544,
5.629538,-0.3782,-0.5512,0.6010,-3.3667,-1.6922,-4.6424,0.0845,1.4714,0.1891,
5.634095,-0.3782,-0.5512,0.6010,-2.5245,-1.6543,-3.0950,0.0845,1.4714,0.1891,
5.657517,-0.3555,-0.5116,0.6970,-2.5245,-1.6543,-3.0950,0.0845,1.4714,0.1891,
5.660736,-0.3772,-0.4847,0.7889,-2.5245,-1.6543,-3.0950,0.0845,1.4714,0.1891,
5.663294,-0.4036,-0.4784,0.7918,-2.5245,-1.6543,-3.0950,0.0845,1.4714,0.1891,
5.689771,-0.4036,-0.4784,0.7918,-2.5245,-1.6543,-3.0950,0.4083,-0.1254,0.1506,
5.693071,-0.4036,-0.4784,0.7918,-2.1355,-1.0880,-1.1788,0.4083,-0.1254,0.1506,
5.717800,-0.4302,-0.4908,0.6746,-2.1355,-1.0880,-1.1788,0.4083,-0.1254,0.1506,
5.721427,-0.5253,-0.5561,0.6198,-2.1355,-1.0880,-1.1788,0.4083,-0.1254,0.1506,
5.724729,-0.7185,-0.7158,0.5395,-2.1355,-1.0880,-1.1788,0.4083,-0.1254,0.1506,
5.749449,-0.7185,-0.7158,0.5395,-5.5408,-3.5505,-3.7639,0.4083,-0.1254,0.1506,
5.752570,-0.7185,-0.7158,0.5395,-5.5408,-3.5505,-3.7639,0.2421,-1.0099,-0.2440,
5.778774,-0.8615,-0.8133,0.5094,-5.5408,-3.5505,-3.7639,0.2421,-1.0099,-0.2440,
5.782129,-1.0137,-0.8905,0.4781,-5.5408,-3.5505,-3.7639,0.2421,-1.0099,-0.2440,
5.784515,-1.1102,-0.8043,0.4253,-5.5408,-3.5505,-3.7639,0.2421,-1.0099,-0.2440,
5.809568,-1.1102,-0.8043,0.4253,-5.5408,-3.5505,-3.7639,0.4260,0.9919,-0.1555,
5.811902,-1.1102,-0.8043,0.4253,-9.7144,-4.5884,-4.9949,0.4260,0.9919,-0.1555,
5.837640,-1.1172,-0.6531,0.4632,-9.7144,-4.5884,-4.9949,0.4260,0.9919,-0.1555,
5.840773,-1.1717,-0.6487,0.6164,-9.7144,-4.5884,-4.9949,0.4260,0.9919,-0.1555,
5.842540,-1.2328,-0.8018,0.6653,-9.7144,-4.5884,-4.9949,0.4260,0.9919,-0.1555,
5.869565,-1.2328,-0.8018,0.6653,-10.1938,-4.6296,-2.5458,0.4260,0.9919,-0.1555,
5.872518,-1.2328,-0.8018,0.6653,-10.1938,-4.6296,-2.5458,-0.2869,0.7836,0.0418,
5.897297,-1.3396,-0.7828,0.5654,-10.1938,-4.6296,-2.5458,-0.2869,0.7836,0.0418,
5.900944,-1.2587,-0.6623,0.5184,-10.1938,-4.6296,-2.5458,-0.2869,0.7836,0.0418,
5.903457,-0.8976,-0.5939,0.6584,-10.1938,-4.6296,-2.5458,-0.2869,0.7836,0.0418,
5.929160,-0.8976,-0.5939,0.6584,-10.1938,-4.6296,-2.5458,0.5360,0.2705,0.0443,
5.931850,-0.8976,-0.5939,0.6584,-6.6414,-2.5974,-2.5549,0.5360,0.2705,0.0443,
5.958425,-0.7515,-0.5260,0.6812,-6.6414,-2.5974,-2.5549,0.5360,0.2705,0.0443,
5.961490,-0.7745,-0.4867,0.5903,-6.6414,-2.5974,-2.5549,0.5360,0.2705,0.0443,
5.963369,-0.8185,-0.4200,0.4542,-6.6414,-2.5974,-2.5549,0.5360,0.2705,0.0443,
5.990022,-0.8185,-0.4200,0.4542,-5.7865,-1.1465,-4.6246,0.5360,0.2705,0.0443,
5.992804,-0.8185,-0.4200,0.4542,-5.7865,-1.1465,-4.6246,0.3130,-0.0234,-0.0852,
6.019253,-0.7762,-0.4180,0.3828,-5.7865,-1.1465,-4.6246,0.3130,-0.0234,-0.0852,
6.023076,-0.6323,-0.4263,0.3240,-5.7865,-1.1465,-4.6246,0.3130,-0.0234,-0.0852,
6.025481,-0.5583,-0.4551,0.3442,-5.7865,-1.1465,-4.6246,0.3130,-0.0234,-0.0852,
6.051647,-0.5583,-0.4551,0.3442,-3.1546,-1.4943,-5.6823,0.3130,-0.0234,-0.0852,
6.055512,-0.5583,-0.4551,0.3442,-3.1546,-1.4943,-5.6823,-0.1287,0.2479,-0.1390,
6.077735,-0.5209,-0.4786,0.3838,-3.1546,-1.4943,-5.6823,-0.1287,0.2479,-0.1390,
6.081160,-0.4952,-0.4222,0.4004,-3.1546,-1.4943,-5.6823,-0.1287,0.2479,-0.1390,
6.083339,-0.5016,-0.3833,0.4471,-3.1546,-1.4943,-5.6823,-0.1287,0.2479,-0.1390,
6.109127,-0.5016,-0.3833,0.4471,-3.1546,-1.4943,-5.6823,0.3399,0.5612,-0.2202,
6.111819,-0.5016,-0.3833,0.4471,-2.4769,-0.7363,-4.6242,0.3399,0.5612,-0.2202,
6.137741,-0.6504,-0.4261,0.5355,-2.4769,-0.7363,-4.6242,0.3399,0.5612,-0.2202,
6.140681,-0.7498,-0.4483,0.5192,-2.4769,-0.7363,-4.6242,0.3399,0.5612,-0.2202,
6.142608,-0.7315,-0.4725,0.4879,-2.4769,-0.7363,-4.6242,0.3399,0.5612,-0.2202,
6.170883,-0.7315,-0.4725,0.4879,-4.3578,-1.6527,-4.1297,0.3399,0.5612,-0.2202,
6.174743,-0.7315,-0.4725,0.4879,-4.3578,-1.6527,-4.1297,-0.0285,0.7243,-0.2776,
6.197727,-0.6812,-0.4854,0.5385,-4.3578,-1.6527,-4.1297,-0.0285,0.7243,-0.2776,
6.201434,-0.6377,-0.4942,0.5707,-4.3578,-1.6527,-4.1297,-0.0285,0.7243,-0.2776,
6.204214,-0.6494,-0.5451,0.5487,-4.3578,-1.6527,-4.1297,-0.0285,0.7243,-0.2776,
6.229468,-0.6494,-0.5451,0.5487,-4.3578,-1.6527,-4.1297,0.5152,0.0493,-0.3375,
6.232747,-0.6494,-0.5451,0.5487,-3.3125,-2.3898,-3.4622,0.5152,0.0493,-0.3375,
6.257796,-0.8109,-0.6702,0.4840,-3.3125,-2.3898,-3.4622,0.5152,0.0493,-0.3375,
6.261069,-0.9379,-0.7097,0.4935,-3.3125,-2.3898,-3.4622,0.5152,0.0493,-0.3375,
6.263097,-0.8600,-0.6032,0.5097,-3.3125,-2.3898,-3.4622,0.5152,0.0493,-0.3375,
6.289295,-0.8600,-0.6032,0.5097,-3.3125,-2.3898,-3.4622,0.3197,0.5594,-0.1970,
6.291890,-0.8600,-0.6032,0.5097,-5.2526,-3.1306,-3.8572,0.3197,0.5594,-0.1970,
6.317921,-0.7884,-0.5272,0.4857,-5.2526,-3.1306,-3.8572,0.3197,0.5594,-0.1970,
6.320703,-0.7234,-0.4544,0.4334,-5.2526,-3.1306,-3.8572,0.3197,0.5594,-0.1970,
6.322678,-0.6824,-0.4248,0.4068,-5.2526,-3.1306,-3.8572,0.3197,0.5594,-0.1970,
6.349995,-0.6824,-0.4248,0.4068,-5.2526,-3.1306,-3.8572,0.1951,0.6003,-0.2654,
6.353093,-0.6824,-0.4248,0.4068,-3.2271,-1.4649,-4.7838,0.1951,0.6003,-0.2654,
6.380317,-0.6223,-0.4869,0.4187,-3.2271,-1.4649,-4.7838,0.1951,0.6003,-0.2654,
6.383952,-0.5978,-0.5656,0.4539,-3.2271,-1.4649,-4.7838,0.1951,0.6003,-0.2654,
6.386292,-0.6335,-0.5785,0.4515,-3.2271,-1.4649,-4.7838,0.1951,0.6003,-0.2654,
6.409295,-0.6335,-0.5785,0.4515,-3.2271,-1.4649,-4.7838,0.1126,0.1904,-0.1866,
6.412233,-0.6335,-0.5785,0.4515,-2.5377,-3.0210,-4.2749,0.1126,0.1904,-0.1866,
6.437640,-0.7286,-0.5426,0.3994,-2.5377,-3.0210,-4.2749,0.1126,0.1904,-0.1866,
6.441503,-0.7486,-0.5004,0.3313,-2.5377,-3.0210,-4.2749,0.1126,0.1904,-0.1866,
6.442820,-0.7366,-0.5053,0.3354,-2.5377,-3.0210,-4.2749,0.1126,0.1904,-0.1866,
6.472558,-0.7366,-0.5053,0.3354,-2.5377,-3.0210,-4.2749,-0.1336,0.3273,-0.1011,
6.475948,-0.7366,-0.5053,0.3354,-3.4300,-2.1994,-5.3291,-0.1336,0.3273,-0.1011,
6.497684,-0.7237,-0.4854,0.4124,-3.4300,-2.1994,-5.3291,-0.1336,0.3273,-0.1011,
6.500879,-0.7212,-0.5099,0.4849,-3.4300,-2.1994,-5.3291,-0.1336,0.3273,-0.1011,
6.503293,-0.7122,-0.5419,0.4952,-3.4300,-2.1994,-5.3291,-0.1336,0.3273,-0.1011,
6.529742,-0.7122,-0.5419,0.4952,-3.4300,-2.1994,-5.3291,0.0522,0.4073,-0.0773,
6.532622,-0.7122,-0.5419,0.4952,-2.9751,-2.5151,-3.6511,0.0522,0.4073,-0.0773,
6.558651,-0.7058,-0.5595,0.4637,-2.9751,-2.5151,-3.6511,0.0522,0.4073,-0.0773,
6.562209,-0.7264,-0.5549,0.4400,-2.9751,-2.5151,-3.6511,0.0522,0.4073,-0.0773,
6.564396,-0.7393,-0.5470,0.4139,-2.9751,-2.5151,-3.6511,0.0522,0.4073,-0.0773,
6.590083,-0.7393,-0.5470,0.4139,-2.9751,-2.5151,-3.6511,-0.1018,0.1703,-0.0553,
6.593367,-0.7393,-0.5470,0.4139,-3.0672,-2.5269,-4.3516,-0.1018,0.1703,-0.0553,
6.617972,-0.7449,-0.5346,0.3862,-3.0672,-2.5269,-4.3516,-0.1018,0.1703,-0.0553,
6.623286,-0.7415,-0.5343,0.3936,-3.0672,-2.5269,-4.3516,-0.1018,0.1703,-0.0553,
6.625162,-0.7383,-0.5573,0.4222,-3.0672,-2.5269,-4.3516,-0.1018,0.1703,-0.0553,
6.650498,-0.7383,-0.5573,0.4222,-3.0672,-2.5269,-4.3516,-0.1067,0.1422,-0.0266,
6.653929,-0.7383,-0.5573,0.4222,-2.9685,-2.5325,-4.1925,-0.1067,0.1422,-0.0266,
6.677351,-0.7283,-0.5759,0.4437,-2.9685,-2.5325,-4.1925,-0.1067,0.1422,-0.0266,
6.680552,-0.7161,-0.5820,0.4498,-2.9685,-2.5325,-4.1925,-0.1067,0.1422,-0.0266,
6.682523,-0.7337,-0.5553,0.4016,-2.9685,-2.5325,-4.1925,-0.1067,0.1422,-0.0266,
6.709822,-0.7337,-0.5553,0.4016,-2.9136,-2.4181,-4.3547,-0.1067,0.1422,-0.0266,
6.713125,-0.7337,-0.5553,0.4016,-2.9136,-2.4181,-4.3547,-0.4952,-0.7191,-0.2220,
6.740622,-0.7097,-0.5463,0.3291,-2.9136,-2.4181,-4.3547,-0.4952,-0.7191,-0.2220,
6.743855,-0.7163,-0.5334,0.3386,-2.9136,-2.4181,-4.3547,-0.4952,-0.7191,-0.2220,
6.745790,-0.7019,-0.5644,0.4652,-2.9136,-2.4181,-4.3547,-0.4952,-0.7191,-0.2220,
6.770759,-0.7019,-0.5644,0.4652,-3.0026,-2.1290,-3.7824,-0.4952,-0.7191,-0.2220,
6.775650,-0.7019,-0.5644,0.4652,-3.0026,-2.1290,-3.7824,-0.4237,-0.4418,-0.3094,
6.797427,-0.7212,-0.5932,0.5001,-3.0026,-2.1290,-3.7824,-0.4237,-0.4418,-0.3094,
6.800810,-0.6892,-0.6066,0.4268,-3.0026,-2.1290,-3.7824,-0.4237,-0.4418,-0.3094,
6.802845,-0.6807,-0.6120,0.4153,-3.0026,-2.1290,-3.7824,-0.4237,-0.4418,-0.3094,
6.832497,-0.6807,-0.6120,0.4153,-3.0391,-2.3066,-4.2580,-0.4237,-0.4418,-0.3094,
6.836397,-0.6807,-0.6120,0.4153,-3.0391,-2.3066,-4.2580,-0.1488,0.0463,-0.2550,
6.857384,-0.6597,-0.6264,0.4815,-3.0391,-2.3066,-4.2580,-0.1488,0.0463,-0.2550,
6.860683,-0.6169,-0.6362,0.4368,-3.0391,-2.3066,-4.2580,-0.1488,0.0463,-0.2550,
6.862182,-0.6259,-0.6733,0.3860,-3.0391,-2.3066,-4.2580,-0.1488,0.0463,-0.2550,
6.889953,-0.6259,-0.6733,0.3860,-3.0391,-2.3066,-4.2580,0.1187,0.3835,0.0308,
6.892995,-0.6259,-0.6733,0.3860,-2.3253,-2.9180,-4.4703,0.1187,0.3835,0.0308,
6.917345,-0.6626,-0.6492,0.3938,-2.3253,-2.9180,-4.4703,0.1187,0.3835,0.0308,
6.921176,-0.7063,-0.6123,0.3709,-2.3253,-2.9180,-4.4703,0.1187,0.3835,0.0308,
6.925550,-0.7136,-0.6003,0.3889,-2.3253,-2.9180,-4.4703,0.1187,0.3835,0.0308,
6.949805,-0.7136,-0.6003,0.3889,-3.1775,-2.1213,-4.4017,0.1187,0.3835,0.0308,
6.952811,-0.7136,-0.6003,0.3889,-3.1775,-2.1213,-4.4017,-0.1629,-0.0997,-0.1604,
6.977821,-0.6645,-0.5903,0.4214,-3.1775,-2.1213,-4.4017,-0.1629,-0.0997,-0.1604,
6.980785,-0.6797,-0.6037,0.4385,-3.1775,-2.1213,-4.4017,-0.1629,-0.0997,-0.1604,
6.982447,-0.6772,-0.6325,0.4158,-3.1775,-2.1213,-4.4017,-0.1629,-0.0997,-0.1604,
7.009526,-0.6772,-0.6325,0.4158,-3.1775,-2.1213,-4.4017,0.3564,0.6602,0.0541,
7.012631,-0.6772,-0.6325,0.4158,-2.7656,-2.3818,-4.0867,0.3564,0.6602,0.0541,
7.040245,-0.6653,-0.6819,0.4415,-2.7656,-2.3818,-4.0867,0.3564,0.6602,0.0541,
7.042985,-0.6577,-0.6567,0.4871,-2.7656,-2.3818,-4.0867,0.3564,0.6602,0.0541,
7.044849,-0.6838,-0.6267,0.4402,-2.7656,-2.3818,-4.0867,0.3564,0.6602,0.0541,
7.070843,-0.6838,-0.6267,0.4402,-2.7656,-2.3818,-4.0867,0.4401,0.6089,0.2556,
7.074660,-0.6838,-0.6267,0.4402,-2.2819,-2.6626,-3.7189,0.4401,0.6089,0.2556,
7.098870,-0.6904,-0.6147,0.3171,-2.2819,-2.6626,-3.7189,0.4401,0.6089,0.2556,
7.102123,-0.7395,-0.5727,0.2985,-2.2819,-2.6626,-3.7189,0.4401,0.6089,0.2556,
7.104507,-0.7479,-0.5221,0.3608,-2.2819,-2.6626,-3.7189,0.4401,0.6089,0.2556,
7.128995,-0.7479,-0.5221,0.3608,-2.2819,-2.6626,-3.7189,-0.0321,-0.1089,0.0333,
7.131679,-0.7479,-0.5221,0.3608,-2.7880,-1.7114,-4.4609,-0.0321,-0.1089,0.0333,
7.157672,-0.7234,-0.5465,0.3975,-2.7880,-1.7114,-4.4609,-0.0321,-0.1089,0.0333,
7.161644,-0.7066,-0.5756,0.3980,-2.7880,-1.7114,-4.4609,-0.0321,-0.1089,0.0333,
7.163879,-0.7161,-0.5915,0.3699,-2.7880,-1.7114,-4.4609,-0.0321,-0.1089,0.0333,
7.191683,-0.7161,-0.5915,0.3699,-2.7880,-1.7114,-4.4609,-0.0108,-0.0252,0.0687,
7.194376,-0.7161,-0.5915,0.3699,-2.4742,-2.3773,-4.3648,-0.0108,-0.0252,0.0687,
7.217839,-0.7129,-0.5895,0.3858,-2.4742,-2.3773,-4.3648,-0.0108,-0.0252,0.0687,
7.221610,-0.7244,-0.5822,0.3968,-2.4742,-2.3773,-4.3648,-0.0108,-0.0252,0.0687,
7.223423,-0.7161,-0.5634,0.3894,-2.4742,-2.3773,-4.3648,-0.0108,-0.0252,0.0687,
7.250326,-0.7161,-0.5634,0.3894,-2.4563,-2.1003,-4.1624,-0.0108,-0.0252,0.0687,
7.253444,-0.7161,-0.5634,0.3894,-2.4563,-2.1003,-4.1624,-0.0389,-0.1113,0.0345,
7.278861,-0.7195,-0.5671,0.3775,-2.4563,-2.1003,-4.1624,-0.0389,-0.1113,0.0345,
7.282754,-0.7303,-0.5739,0.3564,-2.4563,-2.1003,-4.1624,-0.0389,-0.1113,0.0345,
7.284053,-0.7239,-0.5798,0.3520,-2.4563,-2.1003,-4.1624,-0.0389,-0.1113,0.0345,
7.309229,-0.7239,-0.5798,0.3520,-2.4563,-2.1003,-4.1624,-0.4005,-0.6410,-0.0504,
7.311097,-0.7239,-0.5798,0.3520,-2.6642,-2.1603,-4.5589,-0.4005,-0.6410,-0.0504,
7.338793,-0.7180,-0.5715,0.3618,-2.6642,-2.1603,-4.5589,-0.4005,-0.6410,-0.0504,
7.342190,-0.7200,-0.5935,0.3992,-2.6642,-2.1603,-4.5589,-0.4005,-0.6410,-0.0504,
7.344287,-0.7056,-0.5856,0.4427,-2.6642,-2.1603,-4.5589,-0.4005,-0.6410,-0.0504,
7.373664,-0.7056,-0.5856,0.4427,-2.6642,-2.1603,-4.5589,0.1218,0.1422,0.0638,
7.376750,-0.7056,-0.5856,0.4427,-2.7082,-2.0514,-3.7162,0.1218,0.1422,0.0638,
7.397618,-0.6917,-0.6074,0.4989,-2.7082,-2.0514,-3.7162,0.1218,0.1422,0.0638,
7.400900,-0.6682,-0.5932,0.3963,-2.7082,-2.0514,-3.7162,0.1218,0.1422,0.0638,
7.403018,-0.7178,-0.5900,0.3464,-2.7082,-2.0514,-3.7162,0.1218,0.1422,0.0638,
7.429946,-0.7178,-0.5900,0.3464,-2.7082,-2.0514,-3.7162,-0.0841,-0.1749,0.0400,
7.432857,-0.7178,-0.5900,0.3464,-2.7869,-2.1014,-4.6411,-0.0841,-0.1749,0.0400,
7.457362,-0.7058,-0.5837,0.4151,-2.7869,-2.1014,-4.6411,-0.0841,-0.1749,0.0400,
7.460605,-0.6900,-0.5856,0.4339,-2.7869,-2.1014,-4.6411,-0.0841,-0.1749,0.0400,
7.462453,-0.6970,-0.5861,0.3975,-2.7869,-2.1014,-4.6411,-0.0841,-0.1749,0.0400,
7.492266,-0.6970,-0.5861,0.3975,-2.7869,-2.1014,-4.6411,-0.0401,-0.0814,0.0449,
7.495446,-0.6970,-0.5861,0.3975,-2.5841,-2.0465,-4.1335,-0.0401,-0.0814,0.0449,
7.519350,-0.7036,-0.5893,0.3924,-2.5841,-2.0465,-4.1335,-0.0401,-0.0814,0.0449,
7.522022,-0.7002,-0.5849,0.4048,-2.5841,-2.0465,-4.1335,-0.0401,-0.0814,0.0449,
7.524850,-0.6922,-0.5869,0.4107,-2.5841,-2.0465,-4.1335,-0.0401,-0.0814,0.0449,
7.549648,-0.6922,-0.5869,0.4107,-2.5663,-2.0197,-4.0044,-0.0401,-0.0814,0.0449,
7.552960,-0.6922,-0.5869,0.4107,-2.5663,-2.0197,-4.0044,-0.0083,-0.0502,0.0339,
7.577726,-0.6948,-0.5927,0.4329,-2.5663,-2.0197,-4.0044,-0.0083,-0.0502,0.0339,
7.580847,-0.6897,-0.5913,0.4222,-2.5663,-2.0197,-4.0044,-0.0083,-0.0502,0.0339,
7.582627,-0.6904,-0.5922,0.4156,-2.5663,-2.0197,-4.0044,-0.0083,-0.0502,0.0339,
7.611624,-0.6904,-0.5922,0.4156,-2.4910,-2.0880,-3.9327,-0.0083,-0.0502,0.0339,
7.614941,-0.6904,-0.5922,0.4156,-2.4910,-2.0880,-3.9327,0.0638,0.0866,0.0498,
7.638181,-0.6961,-0.5873,0.4146,-2.4910,-2.0880,-3.9327,0.0638,0.0866,0.0498,
7.641646,-0.7005,-0.5829,0.4077,-2.4910,-2.0880,-3.9327,0.0638,0.0866,0.0498,
7.644078,-0.7044,-0.5847,0.4043,-2.4910,-2.0880,-3.9327,0.0638,0.0866,0.0498,
7.671005,-0.7044,-0.5847,0.4043,-2.4910,-2.0880,-3.9327,0.0858,0.1489,0.0559,
7.674642,-0.7044,-0.5847,0.4043,-2.5632,-2.0368,-4.0189,0.0858,0.1489,0.0559,
7.697629,-0.7014,-0.5927,0.4143,-2.5632,-2.0368,-4.0189,0.0858,0.1489,0.0559,
7.700738,-0.6990,-0.5893,0.4437,-2.5632,-2.0368,-4.0189,0.0858,0.1489,0.0559,
7.702749,-0.7053,-0.5905,0.4358,-2.5632,-2.0368,-4.0189,0.0858,0.1489,0.0559,
7.731030,-0.7053,-0.5905,0.4358,-2.5632,-2.0368,-4.0189,0.2916,0.3920,0.1200,
7.734720,-0.7053,-0.5905,0.4358,-2.4044,-2.1896,-3.6601,0.2916,0.3920,0.1200,
7.764630,-0.7073,-0.5829,0.4212,-2.4044,-2.1896,-3.6601,0.2916,0.3920,0.1200,
7.767256,-0.7127,-0.5805,0.4121,-2.4044,-2.1896,-3.6601,0.2916,0.3920,0.1200,
7.768898,-0.7134,-0.5263,0.5004,-2.4044,-2.1896,-3.6601,0.2916,0.3920,0.1200,
7.790379,-0.7134,-0.5263,0.5004,-2.4044,-2.1896,-3.6601,-0.1714,-0.2860,0.0241,
7.791528,-0.7134,-0.5263,0.5004,-2.1854,-1.7422,-2.9328,-0.1714,-0.2860,0.0241,
7.817911,-0.7251,-0.5546,0.2746,-2.1854,-1.7422,-2.9328,-0.1714,-0.2860,0.0241,
7.819070,-0.7501,-0.5446,0.2631,-2.1854,-1.7422,-2.9328,-0.1714,-0.2860,0.0241,
7.820039,-0.7215,-0.5446,0.3203,-2.1854,-1.7422,-2.9328,-0.1714,-0.2860,0.0241,
