
time,gFx,gFy,gFz,ax,ay,az,wx,wy,wz,
0.047171,0.0000,0.0000,0.0000,0.0000,0.0000,0.0000,0.2567,-0.8040,0.0377,
0.077376,0.0000,0.0000,0.0000,0.0000,0.0000,0.0000,0.5315,-0.4780,-0.0422,
0.092236,0.1868,0.2571,0.9914,0.0000,0.0000,0.0000,0.5315,-0.4780,-0.0422,
0.093480,0.2059,0.2350,0.9735,0.0000,0.0000,0.0000,0.5315,-0.4780,-0.0422,
0.094362,0.1240,0.2637,1.0323,0.0000,0.0000,0.0000,0.5315,-0.4780,-0.0422,
0.095268,0.1581,0.2889,1.0815,0.0000,0.0000,0.0000,0.5315,-0.4780,-0.0422,
0.096180,0.2510,0.2731,1.1485,0.0000,0.0000,0.0000,0.5315,-0.4780,-0.0422,
0.097047,0.2766,0.2927,1.1696,0.0000,0.0000,0.0000,0.5315,-0.4780,-0.0422,
0.097896,0.2496,0.3051,1.0928,0.0000,0.0000,0.0000,0.5315,-0.4780,-0.0422,
0.098776,0.2347,0.3043,0.9968,0.0000,0.0000,0.0000,0.5315,-0.4780,-0.0422,
0.099886,0.3023,0.2874,0.8903,0.0000,0.0000,0.0000,0.5315,-0.4780,-0.0422,
0.101092,0.2863,0.3304,0.8864,0.0000,0.0000,0.0000,0.5315,-0.4780,-0.0422,
0.116380,0.2863,0.3304,0.8864,0.0000,0.0000,0.0000,0.1704,0.0812,-0.1296,
0.156071,0.2863,0.3304,0.8864,0.0000,0.0000,0.0000,0.3142,-0.0051,-0.1999,
0.157783,0.2863,0.3304,0.8864,0.0000,0.0000,-0.0000,0.3142,-0.0051,-0.1999,
0.172601,0.2144,0.3691,0.9622,0.0000,0.0000,-0.0000,0.3142,-0.0051,-0.1999,
0.174442,0.1454,0.3762,0.9839,0.0000,0.0000,-0.0000,0.3142,-0.0051,-0.1999,
0.176501,0.1399,0.3789,0.8823,0.0000,0.0000,-0.0000,0.3142,-0.0051,-0.1999,
0.177758,0.1927,0.3440,0.8166,0.0000,0.0000,-0.0000,0.3142,-0.0051,-0.1999,
0.195639,0.1927,0.3440,0.8166,0.0000,0.0000,-0.0000,0.3536,-0.4908,-0.0625,
0.197020,0.1927,0.3440,0.8166,-0.6121,0.2637,0.1383,0.3536,-0.4908,-0.0625,
0.236133,0.1927,0.3440,0.8166,-0.6121,0.2637,0.1383,0.1022,-0.4610,-0.0497,
0.237401,0.1927,0.3440,0.8166,-0.0044,-0.1388,-0.3100,0.1022,-0.4610,-0.0497,
0.248045,0.2579,0.3172,0.8870,-0.0044,-0.1388,-0.3100,0.1022,-0.4610,-0.0497,
0.249568,0.2832,0.3313,0.9229,-0.0044,-0.1388,-0.3100,0.1022,-0.4610,-0.0497,
0.250319,0.2130,0.3518,0.9307,-0.0044,-0.1388,-0.3100,0.1022,-0.4610,-0.0497,
0.251201,0.2236,0.3588,0.8726,-0.0044,-0.1388,-0.3100,0.1022,-0.4610,-0.0497,
0.276077,0.2236,0.3588,0.8726,0.0294,-0.1657,-0.1870,0.1022,-0.4610,-0.0497,
0.278119,0.2236,0.3588,0.8726,0.0294,-0.1657,-0.1870,0.2961,0.1153,-0.0593,
0.314042,0.2236,0.3588,0.8726,0.0294,-0.1657,-0.1870,0.4687,-0.2479,-0.1605,
0.315954,0.2236,0.3588,0.8726,-0.1162,0.0220,-0.0592,0.4687,-0.2479,-0.1605,
0.326817,0.2602,0.3959,0.8292,-0.1162,0.0220,-0.0592,0.4687,-0.2479,-0.1605,
0.328748,0.2786,0.3600,0.7959,-0.1162,0.0220,-0.0592,0.4687,-0.2479,-0.1605,
0.330329,0.1964,0.2878,0.7005,-0.1162,0.0220,-0.0592,0.4687,-0.2479,-0.1605,
0.331765,0.2379,0.3822,0.5713,-0.1162,0.0220,-0.0592,0.4687,-0.2479,-0.1605,
0.354674,0.2379,0.3822,0.5713,-0.1162,0.0220,-0.0592,-0.0544,-0.8253,-0.3011,
0.356285,0.2379,0.3822,0.5713,-0.2420,-0.1914,-1.4640,-0.0544,-0.8253,-0.3011,
0.394904,0.2379,0.3822,0.5713,-0.2420,-0.1914,-1.4640,-0.8586,-0.7657,-0.1179,
0.396935,0.2379,0.3822,0.5713,-0.4734,0.0832,-1.0178,-0.8586,-0.7657,-0.1179,
0.398170,0.1910,0.3547,0.6139,-0.4734,0.0832,-1.0178,-0.8586,-0.7657,-0.1179,
0.399298,0.2422,0.3431,0.7243,-0.4734,0.0832,-1.0178,-0.8586,-0.7657,-0.1179,
0.400321,0.2513,0.3393,0.8145,-0.4734,0.0832,-1.0178,-0.8586,-0.7657,-0.1179,
0.434895,0.2513,0.3393,0.8145,-0.4734,0.0832,-1.0178,-0.7681,-0.6655,-0.0327,
0.436914,0.2513,0.3393,0.8145,-0.5682,0.2709,-0.8671,-0.7681,-0.6655,-0.0327,
0.474249,0.2513,0.3393,0.8145,-0.0489,-0.1607,0.9624,-0.7681,-0.6655,-0.0327,
0.476625,0.2384,0.3235,0.9317,-0.0489,-0.1607,0.9624,-0.7681,-0.6655,-0.0327,
0.478039,0.2892,0.2789,0.9644,-0.0489,-0.1607,0.9624,-0.7681,-0.6655,-0.0327,
0.479349,0.3533,0.2770,0.8580,-0.0489,-0.1607,0.9624,-0.7681,-0.6655,-0.0327,
0.480529,0.3533,0.2770,0.8580,-0.0489,-0.1607,0.9624,-0.2386,-0.4770,-0.1530,
0.513865,0.3533,0.2770,0.8580,-0.0489,-0.1607,0.9624,-0.3143,-0.4653,-0.4076,
0.515442,0.3533,0.2770,0.8580,-0.1005,-0.4951,-0.5745,-0.3143,-0.4653,-0.4076,
0.550916,0.3318,0.2838,0.7689,-0.1005,-0.4951,-0.5745,-0.3143,-0.4653,-0.4076,
0.552250,0.3020,0.2444,0.7416,-0.1005,-0.4951,-0.5745,-0.3143,-0.4653,-0.4076,
0.553274,0.2573,0.2113,0.7427,-0.1005,-0.4951,-0.5745,-0.3143,-0.4653,-0.4076,
0.554200,0.2041,0.2213,0.7293,-0.1005,-0.4951,-0.5745,-0.3143,-0.4653,-0.4076,
0.554895,0.3553,0.2527,0.7854,-0.1005,-0.4951,-0.5745,-0.3143,-0.4653,-0.4076,
0.555906,0.3553,0.2527,0.7854,-0.1005,-0.4951,-0.5745,-0.2770,-1.4964,-0.4492,
0.556868,0.3553,0.2527,0.7854,-0.4505,-0.4074,-0.3636,-0.2770,-1.4964,-0.4492,
0.592659,0.3553,0.2527,0.7854,-0.4505,-0.4074,-0.3636,-0.3974,-1.7404,-0.2287,
0.594711,0.3553,0.2527,0.7854,-0.8323,-0.2797,-0.1385,-0.3974,-1.7404,-0.2287,
0.631217,0.3969,0.2194,0.8161,-0.8323,-0.2797,-0.1385,-0.3974,-1.7404,-0.2287,
0.633399,0.4210,0.2171,0.8262,-0.8323,-0.2797,-0.1385,-0.3974,-1.7404,-0.2287,
0.634841,0.4420,0.2278,0.7742,-0.8323,-0.2797,-0.1385,-0.3974,-1.7404,-0.2287,
0.637256,0.4557,0.1967,0.6664,-0.8323,-0.2797,-0.1385,-0.3974,-1.7404,-0.2287,
0.643686,0.4557,0.1967,0.6664,-0.8323,-0.2797,-0.1385,-0.3526,-2.1079,-0.0667,
0.645348,0.4557,0.1967,0.6664,-0.0384,-0.4566,0.1860,-0.3526,-2.1079,-0.0667,
0.672292,0.4557,0.1967,0.6664,-0.0384,-0.4566,0.1860,-0.2035,-2.5340,0.3285,
0.673812,0.4557,0.1967,0.6664,-0.6965,-0.3038,0.5755,-0.2035,-2.5340,0.3285,
0.711649,0.3520,0.1713,0.7139,-0.6965,-0.3038,0.5755,-0.2035,-2.5340,0.3285,
0.713609,0.4220,0.1895,0.6551,-0.6965,-0.3038,0.5755,-0.2035,-2.5340,0.3285,
0.715019,0.4404,0.1498,0.5187,-0.6965,-0.3038,0.5755,-0.2035,-2.5340,0.3285,
0.716329,0.4404,0.1498,0.5187,-0.6965,-0.3038,0.5755,-0.3079,-2.2783,0.9218,
0.717608,0.4404,0.1498,0.5187,-1.5605,-0.4134,-0.1889,-0.3079,-2.2783,0.9218,
0.751807,0.4404,0.1498,0.5187,-1.5605,-0.4134,-0.1889,-0.5636,-2.0823,1.4790,
0.753821,0.4404,0.1498,0.5187,-1.0719,-1.4878,0.8504,-0.5636,-2.0823,1.4790,
0.790620,0.3533,-0.0018,0.4641,-1.0719,-1.4878,0.8504,-0.5636,-2.0823,1.4790,
0.792380,0.5386,0.0458,0.6995,-1.0719,-1.4878,0.8504,-0.5636,-2.0823,1.4790,
0.794119,0.6303,-0.0507,0.9312,-1.0719,-1.4878,0.8504,-0.5636,-2.0823,1.4790,
0.795460,0.6011,-0.1444,0.7711,-1.0719,-1.4878,0.8504,-0.5636,-2.0823,1.4790,
0.796938,0.7270,-0.1095,0.8233,-1.0719,-1.4878,0.8504,-0.5636,-2.0823,1.4790,
0.798165,0.7270,-0.1095,0.8233,-1.0719,-1.4878,0.8504,-0.1215,-0.7742,1.9466,
0.799663,0.7270,-0.1095,0.8233,-1.2334,-0.8988,0.9468,-0.1215,-0.7742,1.9466,
0.831345,0.7270,-0.1095,0.8233,-1.0446,-0.2265,0.7242,-0.1215,-0.7742,1.9466,
0.833339,0.7270,-0.1095,0.8233,-1.0446,-0.2265,0.7242,-0.0874,0.6320,2.5698,
0.868367,0.8526,-0.0904,1.3140,-1.0446,-0.2265,0.7242,-0.0874,0.6320,2.5698,
0.870999,0.7695,-0.1037,0.8369,-1.0446,-0.2265,0.7242,-0.0874,0.6320,2.5698,
0.872316,0.9488,0.0553,0.9708,-1.0446,-0.2265,0.7242,-0.0874,0.6320,2.5698,
0.873448,1.1043,0.0128,0.9024,-1.0446,-0.2265,0.7242,-0.0874,0.6320,2.5698,
0.874440,1.1043,0.0128,0.9024,-1.0446,-0.2265,0.7242,-0.0991,0.4946,2.6071,
0.875376,1.1043,0.0128,0.9024,3.0981,0.2956,2.4309,-0.0991,0.4946,2.6071,
0.909716,1.1043,0.0128,0.9024,3.0981,0.2956,2.4309,0.4687,-1.0415,1.7453,
0.911687,1.1043,0.0128,0.9024,2.6727,0.5636,2.4853,0.4687,-1.0415,1.7453,
0.946367,1.0487,-0.0580,0.9953,2.6727,0.5636,2.4853,0.4687,-1.0415,1.7453,
0.949411,0.9360,-0.0530,0.8924,2.6727,0.5636,2.4853,0.4687,-1.0415,1.7453,
0.951092,0.9149,-0.0778,0.7378,2.6727,0.5636,2.4853,0.4687,-1.0415,1.7453,
0.952409,0.9618,-0.0941,0.6197,2.6727,0.5636,2.4853,0.4687,-1.0415,1.7453,
0.953950,0.9618,-0.0941,0.6197,2.6727,0.5636,2.4853,1.5798,-1.7446,1.4726,
0.955215,0.9618,-0.0941,0.6197,2.3703,0.0655,2.4556,1.5798,-1.7446,1.4726,
0.990316,0.9618,-0.0941,0.6197,2.3703,0.0655,2.4556,1.8972,-1.6317,1.5397,
0.992409,0.9618,-0.0941,0.6197,1.8942,0.0613,2.6831,1.8972,-1.6317,1.5397,
1.023430,0.8871,-0.1523,0.5136,1.8942,0.0613,2.6831,1.8972,-1.6317,1.5397,
1.025344,0.9069,-0.1209,0.3935,1.8942,0.0613,2.6831,1.8972,-1.6317,1.5397,
1.026799,0.8869,-0.2148,0.2883,1.8942,0.0613,2.6831,1.8972,-1.6317,1.5397,
1.028606,0.8670,-0.3122,0.2473,1.8942,0.0613,2.6831,1.8972,-1.6317,1.5397,
1.030419,0.8670,-0.3122,0.2473,1.8942,0.0613,2.6831,1.6298,-1.3920,1.5567,
1.031927,0.8670,-0.3122,0.2473,1.0824,-0.3880,-0.4944,1.6298,-1.3920,1.5567,
1.069226,0.8670,-0.3122,0.2473,1.0824,-0.3880,-0.4944,1.4562,-2.2133,1.5684,
1.071657,0.8670,-0.3122,0.2473,0.6435,-0.1715,0.1557,1.4562,-2.2133,1.5684,
1.108222,0.9078,-0.3678,0.2078,0.6435,-0.1715,0.1557,1.4562,-2.2133,1.5684,
1.110038,1.0442,-0.3447,0.1653,0.6435,-0.1715,0.1557,1.4562,-2.2133,1.5684,
1.110791,1.1625,-0.2457,0.0876,0.6435,-0.1715,0.1557,1.4562,-2.2133,1.5684,
1.111587,1.1625,-0.2457,0.0876,0.6435,-0.1715,0.1557,1.2154,-2.9462,1.2574,
1.112377,1.1625,-0.2457,0.0876,-0.1101,-1.5805,-1.3693,1.2154,-2.9462,1.2574,
1.146780,1.1625,-0.2457,0.0876,-0.1101,-1.5805,-1.3693,0.3686,-1.9119,0.8579,
1.148462,1.1625,-0.2457,0.0876,1.4428,-1.1511,-2.1745,0.3686,-1.9119,0.8579,
1.184466,1.0218,-0.2706,0.0043,1.4428,-1.1511,-2.1745,0.3686,-1.9119,0.8579,
1.186126,1.0321,-0.2294,-0.0652,1.4428,-1.1511,-2.1745,0.3686,-1.9119,0.8579,
1.186974,0.9858,-0.2471,-0.0343,1.4428,-1.1511,-2.1745,0.3686,-1.9119,0.8579,
1.187696,0.9265,-0.2308,0.0733,1.4428,-1.1511,-2.1745,0.3686,-1.9119,0.8579,
1.188612,0.7784,-0.2806,0.1776,1.4428,-1.1511,-2.1745,0.3686,-1.9119,0.8579,
1.189897,0.7784,-0.2806,0.1776,1.4428,-1.1511,-2.1745,-0.3420,-0.8402,0.4925,
1.190891,0.7784,-0.2806,0.1776,0.4304,-0.4105,-2.6257,-0.3420,-0.8402,0.4925,
1.225140,0.7784,-0.2806,0.1776,0.4304,-0.4105,-2.6257,-0.9076,0.2261,0.6054,
1.226866,0.7784,-0.2806,0.1776,0.4758,-0.0948,-2.4948,-0.9076,0.2261,0.6054,
1.262955,0.6046,-0.3058,0.2337,0.4758,-0.0948,-2.4948,-0.9076,0.2261,0.6054,
1.264095,0.6329,-0.1332,0.1114,0.4758,-0.0948,-2.4948,-0.9076,0.2261,0.6054,
1.264837,1.0025,-0.0327,0.0732,0.4758,-0.0948,-2.4948,-0.9076,0.2261,0.6054,
1.265434,1.1901,0.0062,0.1822,0.4758,-0.0948,-2.4948,-0.9076,0.2261,0.6054,
1.267328,1.1901,0.0062,0.1822,0.4758,-0.0948,-2.4948,-1.5862,0.4211,0.9804,
1.268244,1.1901,0.0062,0.1822,-2.3002,0.3507,-0.6628,-1.5862,0.4211,0.9804,
1.304854,1.1901,0.0062,0.1822,-2.3002,0.3507,-0.6628,-1.8515,1.1199,0.0068,
1.308039,1.1901,0.0062,0.1822,-2.0814,0.5065,-0.8052,-1.8515,1.1199,0.0068,
1.340477,2.2389,-0.0939,1.1380,-2.0814,0.5065,-0.8052,-1.8515,1.1199,0.0068,
1.341427,0.1275,0.1719,0.1103,-2.0814,0.5065,-0.8052,-1.8515,1.1199,0.0068,
1.341995,0.3676,-0.1270,-0.0923,-2.0814,0.5065,-0.8052,-1.8515,1.1199,0.0068,
1.342640,0.6189,-0.2602,0.2767,-2.0814,0.5065,-0.8052,-1.8515,1.1199,0.0068,
1.345684,0.6189,-0.2602,0.2767,-4.5155,2.4868,-1.8795,-1.8515,1.1199,0.0068,
1.346867,0.6189,-0.2602,0.2767,-4.5155,2.4868,-1.8795,-2.6323,2.1873,0.4989,
1.384920,0.6189,-0.2602,0.2767,-4.5155,2.4868,-1.8795,-3.6379,1.4416,1.1903,
1.386026,0.6189,-0.2602,0.2767,-3.9926,3.1254,-1.7385,-3.6379,1.4416,1.1903,
1.418798,0.8075,-0.4200,0.9019,-3.9926,3.1254,-1.7385,-3.6379,1.4416,1.1903,
1.420126,1.0320,-0.6637,1.1225,-3.9926,3.1254,-1.7385,-3.6379,1.4416,1.1903,
1.421233,1.0680,-0.5151,1.0777,-3.9926,3.1254,-1.7385,-3.6379,1.4416,1.1903,
1.422124,0.8625,-0.4672,0.6947,-3.9926,3.1254,-1.7385,-3.6379,1.4416,1.1903,
1.425500,0.8625,-0.4672,0.6947,-3.9926,3.1254,-1.7385,-1.5116,1.2871,0.5767,
1.426938,0.8625,-0.4672,0.6947,2.0070,-1.0117,6.9712,-1.5116,1.2871,0.5767,
1.464143,0.8625,-0.4672,0.6947,2.0070,-1.0117,6.9712,-0.2695,0.6341,0.1239,
1.465967,0.8625,-0.4672,0.6947,2.0170,-0.9003,6.5328,-0.2695,0.6341,0.1239,
1.503778,0.6787,-0.4707,0.3197,2.0170,-0.9003,6.5328,-0.2695,0.6341,0.1239,
1.505468,0.7224,-0.3768,0.2580,2.0170,-0.9003,6.5328,-0.2695,0.6341,0.1239,
1.507307,0.9134,-0.2764,0.3978,2.0170,-0.9003,6.5328,-0.2695,0.6341,0.1239,
1.508596,0.9134,-0.2764,0.3978,2.0170,-0.9003,6.5328,-0.9833,-0.0509,0.3615,
1.509743,0.9134,-0.2764,0.3978,-0.0284,0.2602,0.7133,-0.9833,-0.0509,0.3615,
1.543512,0.9134,-0.2764,0.3978,-0.0284,0.2602,0.7133,-0.9502,-0.3396,0.1207,
1.545071,0.9134,-0.2764,0.3978,2.3957,2.1324,-0.2453,-0.9502,-0.3396,0.1207,
1.581673,1.0205,-0.2337,0.3588,2.3957,2.1324,-0.2453,-0.9502,-0.3396,0.1207,
1.583449,1.1091,-0.2534,0.1353,2.3957,2.1324,-0.2453,-0.9502,-0.3396,0.1207,
1.584589,1.0335,-0.3143,-0.0543,2.3957,2.1324,-0.2453,-0.9502,-0.3396,0.1207,
1.585680,0.9598,-0.3999,0.0091,2.3957,2.1324,-0.2453,-0.9502,-0.3396,0.1207,
1.587164,0.9621,-0.4972,0.1287,2.3957,2.1324,-0.2453,-0.9502,-0.3396,0.1207,
1.588416,0.9621,-0.4972,0.1287,2.3957,2.1324,-0.2453,-1.0014,-1.0075,-0.1392,
1.589658,0.9621,-0.4972,0.1287,1.8922,0.7148,-2.3047,-1.0014,-1.0075,-0.1392,
1.626276,0.9621,-0.4972,0.1287,1.8922,0.7148,-2.3047,-1.1217,-0.7262,-0.2106,
1.628542,0.9621,-0.4972,0.1287,1.7162,0.7250,-1.7990,-1.1217,-0.7262,-0.2106,
1.659849,0.9808,-0.5071,0.2287,1.7162,0.7250,-1.7990,-1.1217,-0.7262,-0.2106,
1.661659,0.8831,-0.4915,0.2324,1.7162,0.7250,-1.7990,-1.1217,-0.7262,-0.2106,
1.662950,0.8044,-0.5083,0.1844,1.7162,0.7250,-1.7990,-1.1217,-0.7262,-0.2106,
1.663914,0.7880,-0.5540,0.2265,1.7162,0.7250,-1.7990,-1.1217,-0.7262,-0.2106,
1.665419,0.7880,-0.5540,0.2265,1.7162,0.7250,-1.7990,-0.7628,-0.6900,-0.2031,
1.667780,0.7880,-0.5540,0.2265,0.6636,-0.2379,0.3822,-0.7628,-0.6900,-0.2031,
1.702784,0.7880,-0.5540,0.2265,0.5513,-0.2247,0.8661,-0.7628,-0.6900,-0.2031,
1.704115,0.7880,-0.5540,0.2265,0.5513,-0.2247,0.8661,-0.3313,-1.4197,-0.0486,
1.737376,0.8550,-0.6213,0.3232,0.5513,-0.2247,0.8661,-0.3313,-1.4197,-0.0486,
1.738591,1.0001,-0.6325,0.4053,0.5513,-0.2247,0.8661,-0.3313,-1.4197,-0.0486,
1.739792,1.0552,-0.5824,0.4398,0.5513,-0.2247,0.8661,-0.3313,-1.4197,-0.0486,
1.741050,1.0007,-0.5531,0.3312,0.5513,-0.2247,0.8661,-0.3313,-1.4197,-0.0486,
1.742009,1.0007,-0.5531,0.3312,0.5513,-0.2247,0.8661,0.6050,-1.5028,-0.2074,
1.742783,1.0007,-0.5531,0.3312,0.3553,-1.2525,2.1751,0.6050,-1.5028,-0.2074,
1.780659,1.0007,-0.5531,0.3312,0.3553,-1.2525,2.1751,1.2538,-0.8179,-0.5195,
1.781760,1.0007,-0.5531,0.3312,0.2243,-1.4163,2.1399,1.2538,-0.8179,-0.5195,
1.798382,0.9044,-0.6063,0.1498,0.2243,-1.4163,2.1399,1.2538,-0.8179,-0.5195,
1.799666,0.8470,-0.6875,0.1233,0.2243,-1.4163,2.1399,1.2538,-0.8179,-0.5195,
1.800296,0.8424,-0.6109,0.1746,0.2243,-1.4163,2.1399,1.2538,-0.8179,-0.5195,
1.820584,0.8424,-0.6109,0.1746,0.2243,-1.4163,2.1399,1.5297,-0.8189,-0.3597,
1.822649,0.8424,-0.6109,0.1746,1.1261,-1.3327,1.9658,1.5297,-0.8189,-0.3597,
1.860542,0.8424,-0.6109,0.1746,1.1261,-1.3327,1.9658,2.0495,-1.2173,-0.4225,
1.862708,0.8424,-0.6109,0.1746,0.0330,-1.8931,0.2898,2.0495,-1.2173,-0.4225,
1.873851,0.9734,-0.5657,0.0913,0.0330,-1.8931,0.2898,2.0495,-1.2173,-0.4225,
1.875725,1.0236,-0.5495,-0.0415,0.0330,-1.8931,0.2898,2.0495,-1.2173,-0.4225,
1.877185,0.9000,-0.5381,-0.1626,0.0330,-1.8931,0.2898,2.0495,-1.2173,-0.4225,
1.878290,0.8455,-0.5981,-0.2703,0.0330,-1.8931,0.2898,2.0495,-1.2173,-0.4225,
1.901995,0.8455,-0.5981,-0.2703,0.0330,-1.8931,0.2898,1.8099,-1.1268,-0.3586,
1.903812,0.8455,-0.5981,-0.2703,0.2711,-1.4527,-2.3572,1.8099,-1.1268,-0.3586,
1.941891,0.8455,-0.5981,-0.2703,0.2711,-1.4527,-2.3572,1.5510,-0.6442,0.2443,
1.943914,0.8455,-0.5981,-0.2703,0.1764,-1.6844,-0.7411,1.5510,-0.6442,0.2443,
1.952281,0.8286,-0.6152,-0.1203,0.1764,-1.6844,-0.7411,1.5510,-0.6442,0.2443,
1.954271,0.9060,-0.5380,0.0760,0.1764,-1.6844,-0.7411,1.5510,-0.6442,0.2443,
1.955457,1.0015,-0.6308,0.0650,0.1764,-1.6844,-0.7411,1.5510,-0.6442,0.2443,
1.956934,1.0792,-0.6277,0.0937,0.1764,-1.6844,-0.7411,1.5510,-0.6442,0.2443,
1.980316,1.0792,-0.6277,0.0937,0.1764,-1.6844,-0.7411,2.3382,-1.1278,0.2986,
1.983004,1.0792,-0.6277,0.0937,0.1835,-1.6039,-0.7122,2.3382,-1.1278,0.2986,
2.019484,1.0792,-0.6277,0.0937,0.1835,-1.6039,-0.7122,2.5353,-1.5188,0.1815,
2.021543,1.0792,-0.6277,0.0937,1.0661,-1.3880,-1.3142,2.5353,-1.5188,0.1815,
2.023769,1.0232,-0.5306,-0.0658,1.0661,-1.3880,-1.3142,2.5353,-1.5188,0.1815,
2.025214,0.9183,-0.5694,-0.2356,1.0661,-1.3880,-1.3142,2.5353,-1.5188,0.1815,
2.026637,1.0898,-0.5625,0.0443,1.0661,-1.3880,-1.3142,2.5353,-1.5188,0.1815,
2.059270,1.0898,-0.5625,0.0443,1.0661,-1.3880,-1.3142,2.3404,-0.5888,0.2944,
2.061460,1.0898,-0.5625,0.0443,1.0667,-1.3100,-1.4596,2.3404,-0.5888,0.2944,
2.099014,1.1636,-0.4878,-0.0011,1.0667,-1.3100,-1.4596,2.3404,-0.5888,0.2944,
2.100952,1.0174,-0.4621,0.2493,1.0667,-1.3100,-1.4596,2.3404,-0.5888,0.2944,
2.101886,0.4733,-0.3632,-0.3292,1.0667,-1.3100,-1.4596,2.3404,-0.5888,0.2944,
2.102914,0.4733,-0.3632,-0.3292,1.0667,-1.3100,-1.4596,2.4554,-0.5899,0.4744,
2.103745,0.4733,-0.3632,-0.3292,1.8877,-0.5127,-0.0443,2.4554,-0.5899,0.4744,
2.137871,0.4733,-0.3632,-0.3292,1.8877,-0.5127,-0.0443,1.5222,-0.8253,0.9644,
2.139528,0.4733,-0.3632,-0.3292,-3.3773,2.6266,-2.5459,1.5222,-0.8253,0.9644,
2.177006,0.5517,-0.1520,-0.0926,-3.3773,2.6266,-2.5459,1.5222,-0.8253,0.9644,
2.178718,0.5604,-0.0960,-0.0781,-3.3773,2.6266,-2.5459,1.5222,-0.8253,0.9644,
2.180162,0.6796,-0.1490,0.1200,-3.3773,2.6266,-2.5459,1.5222,-0.8253,0.9644,
2.181156,0.4919,-0.2526,0.1174,-3.3773,2.6266,-2.5459,1.5222,-0.8253,0.9644,
2.182184,0.7068,-0.1998,-0.1359,-3.3773,2.6266,-2.5459,1.5222,-0.8253,0.9644,
2.183383,0.7068,-0.1998,-0.1359,-3.3773,2.6266,-2.5459,0.6104,0.3614,1.2020,
2.184365,0.7068,-0.1998,-0.1359,-2.1157,2.9516,-0.7935,0.6104,0.3614,1.2020,
2.219829,0.7068,-0.1998,-0.1359,-2.1157,2.9516,-0.7935,0.3526,0.6703,1.2734,
2.221209,0.7068,-0.1998,-0.1359,-1.7731,3.2507,-1.0498,0.3526,0.6703,1.2734,
2.249701,0.8681,-0.4168,0.1196,-1.7731,3.2507,-1.0498,0.3526,0.6703,1.2734,
2.251429,0.5669,-0.7302,-0.1473,-1.7731,3.2507,-1.0498,0.3526,0.6703,1.2734,
2.252712,0.6605,-0.3604,0.2590,-1.7731,3.2507,-1.0498,0.3526,0.6703,1.2734,
2.256483,0.6605,-0.3604,0.2590,-1.7731,3.2507,-1.0498,0.4485,0.2549,1.5099,
2.257810,0.6605,-0.3604,0.2590,-0.7040,0.7086,-0.7794,0.4485,0.2549,1.5099,
2.296490,0.6605,-0.3604,0.2590,-0.7040,0.7086,-0.7794,0.6881,-0.5590,1.1306,
2.298218,0.6605,-0.3604,0.2590,1.3196,1.3661,0.5126,0.6881,-0.5590,1.1306,
2.328333,1.1318,-0.3065,0.1557,1.3196,1.3661,0.5126,0.6881,-0.5590,1.1306,
2.330744,0.6987,-0.5579,0.2608,1.3196,1.3661,0.5126,0.6881,-0.5590,1.1306,
2.332266,0.8266,-0.5195,0.2128,1.3196,1.3661,0.5126,0.6881,-0.5590,1.1306,
2.333710,0.8102,-0.3541,0.1172,1.3196,1.3661,0.5126,0.6881,-0.5590,1.1306,
2.336095,0.8123,-0.5045,0.0416,1.3196,1.3661,0.5126,0.6881,-0.5590,1.1306,
2.338371,0.8123,-0.5045,0.0416,1.3196,1.3661,0.5126,-0.0341,-0.3587,1.3000,
2.339713,0.8123,-0.5045,0.0416,1.5687,1.6940,0.6081,-0.0341,-0.3587,1.3000,
2.377199,0.8123,-0.5045,0.0416,1.5687,1.6940,0.6081,-0.4389,-0.6091,1.6984,
2.379140,0.8123,-0.5045,0.0416,1.9198,2.1242,0.8642,-0.4389,-0.6091,1.6984,
2.389884,0.8151,-0.9026,0.0996,1.9198,2.1242,0.8642,-0.4389,-0.6091,1.6984,
2.392397,0.8680,-1.0940,0.0197,1.9198,2.1242,0.8642,-0.4389,-0.6091,1.6984,
2.393767,0.5873,-1.1669,0.1158,1.9198,2.1242,0.8642,-0.4389,-0.6091,1.6984,
2.415600,0.5873,-1.1669,0.1158,1.9198,2.1242,0.8642,-0.6264,-0.7294,2.1714,
2.418065,0.5873,-1.1669,0.1158,1.7291,1.4401,0.0141,-0.6264,-0.7294,2.1714,
2.455674,0.5873,-1.1669,0.1158,1.7291,1.4401,0.0141,-0.3484,-0.1840,2.4270,
2.458106,0.5873,-1.1669,0.1158,2.3829,1.9659,0.1574,-0.3484,-0.1840,2.4270,
2.477525,0.5523,-0.9919,0.0192,2.3829,1.9659,0.1574,-0.3484,-0.1840,2.4270,
2.494938,0.5523,-0.9919,0.0192,2.3829,1.9659,0.1574,-0.0022,-0.5569,1.0337,
2.496694,0.5523,-0.9919,0.0192,2.6208,2.1319,0.2691,-0.0022,-0.5569,1.0337,
2.534170,0.5523,-0.9919,0.0192,2.6208,2.1319,0.2691,0.1012,-0.7166,0.3998,
2.536491,0.5523,-0.9919,0.0192,-0.3736,-1.7394,-0.8489,0.1012,-0.7166,0.3998,
2.577748,0.4793,-1.0332,-0.0617,-0.3736,-1.7394,-0.8489,0.1012,-0.7166,0.3998,
2.579988,0.4524,-0.9599,-0.0841,-0.3736,-1.7394,-0.8489,0.1012,-0.7166,0.3998,
2.581142,0.4314,-0.8947,-0.0585,-0.3736,-1.7394,-0.8489,0.1012,-0.7166,0.3998,
2.582478,0.4314,-0.8947,-0.0585,-0.3736,-1.7394,-0.8489,0.1193,-0.1020,0.3317,
2.584194,0.4314,-0.8947,-0.0585,-0.2631,-1.6318,-0.8441,0.1193,-0.1020,0.3317,
2.613855,0.4314,-0.8947,-0.0585,-0.2631,-1.6318,-0.8441,0.1715,0.0429,0.2347,
2.615803,0.4314,-0.8947,-0.0585,-0.1765,-0.0471,-0.7231,0.1715,0.0429,0.2347,
2.653323,0.4751,-0.8282,-0.0270,-0.1765,-0.0471,-0.7231,0.1715,0.0429,0.2347,
2.655573,0.5792,-0.7908,0.0099,-0.1765,-0.0471,-0.7231,0.1715,0.0429,0.2347,
2.657181,0.6185,-0.7688,0.0143,-0.1765,-0.0471,-0.7231,0.1715,0.0429,0.2347,
2.658539,0.5843,-0.6760,0.0488,-0.1765,-0.0471,-0.7231,0.1715,0.0429,0.2347,
2.659935,0.4128,-0.2643,-0.0130,-0.1765,-0.0471,-0.7231,0.1715,0.0429,0.2347,
2.661269,0.1573,-0.1385,-0.0184,-0.1765,-0.0471,-0.7231,0.1715,0.0429,0.2347,
2.662202,0.1573,-0.1385,-0.0184,-0.1765,-0.0471,-0.7231,0.3771,0.4402,-0.2468,
2.663853,0.1573,-0.1385,-0.0184,0.1744,2.4627,-0.5103,0.3771,0.4402,-0.2468,
2.693309,0.1573,-0.1385,-0.0184,0.1744,2.4627,-0.5103,0.8810,0.1590,0.3168,
2.694891,0.1573,-0.1385,-0.0184,0.2737,2.4374,-0.8036,0.8810,0.1590,0.3168,
2.733005,0.1573,-0.1385,-0.0184,0.2737,2.4374,-0.8036,1.0780,-0.5153,1.0145,
2.734562,0.1573,-0.1385,-0.0184,-0.8043,5.5320,0.0434,1.0780,-0.5153,1.0145,
2.735512,0.4026,-0.2040,0.1692,-0.8043,5.5320,0.0434,1.0780,-0.5153,1.0145,
2.736153,0.6273,-0.4244,0.2344,-0.8043,5.5320,0.0434,1.0780,-0.5153,1.0145,
2.736975,0.5692,-0.7938,0.0515,-0.8043,5.5320,0.0434,1.0780,-0.5153,1.0145,
2.737655,0.1907,-1.2462,-0.1572,-0.8043,5.5320,0.0434,1.0780,-0.5153,1.0145,
2.772314,0.1907,-1.2462,-0.1572,-0.8043,5.5320,0.0434,-0.1438,-0.1989,1.8326,
2.774447,0.1907,-1.2462,-0.1572,-0.2136,5.7212,0.1238,-0.1438,-0.1989,1.8326,
2.814637,0.1907,-1.2462,-0.1572,-0.2136,5.7212,0.1238,-1.0429,-0.2895,3.9184,
2.817568,0.1907,-1.2462,-0.1572,-0.8184,-2.6915,-1.7312,-1.0429,-0.2895,3.9184,
2.819325,-0.1657,-1.4969,-0.2095,-0.8184,-2.6915,-1.7312,-1.0429,-0.2895,3.9184,
2.820646,-0.2263,-1.3405,-0.1552,-0.8184,-2.6915,-1.7312,-1.0429,-0.2895,3.9184,
2.822442,-0.1335,-1.0376,-0.3350,-0.8184,-2.6915,-1.7312,-1.0429,-0.2895,3.9184,
2.823764,-0.1562,-0.9692,-0.2740,-0.8184,-2.6915,-1.7312,-1.0429,-0.2895,3.9184,
2.851282,-0.1562,-0.9692,-0.2740,-2.6952,-1.6510,-2.5416,-1.0429,-0.2895,3.9184,
2.852998,-0.1562,-0.9692,-0.2740,-2.6952,-1.6510,-2.5416,-1.5095,-0.7444,4.7206,
2.891461,0.0857,-1.4807,-0.6026,-2.6952,-1.6510,-2.5416,-1.5095,-0.7444,4.7206,
2.893386,0.6667,-3.1364,-0.6812,-2.6952,-1.6510,-2.5416,-1.5095,-0.7444,4.7206,
2.894400,0.8582,-1.9254,-0.2241,-2.6952,-1.6510,-2.5416,-1.5095,-0.7444,4.7206,
2.895349,0.8582,-1.9254,-0.2241,-2.6952,-1.6510,-2.5416,-2.8017,-1.5390,2.8329,
2.896549,0.8582,-1.9254,-0.2241,5.2100,-11.8263,-3.8299,-2.8017,-1.5390,2.8329,
2.931304,0.8582,-1.9254,-0.2241,5.2100,-11.8263,-3.8299,-2.2573,-1.6456,0.1154,
2.933472,0.8582,-1.9254,-0.2241,1.6614,1.0202,4.1274,-2.2573,-1.6456,0.1154,
2.971112,0.8582,-1.9254,-0.2241,1.6614,1.0202,4.1274,-1.1484,-0.3928,-1.1203,
2.973466,0.8582,-1.9254,-0.2241,1.2509,0.9013,4.4557,-1.1484,-0.3928,-1.1203,
2.975043,0.8000,-0.6951,0.2677,1.2509,0.9013,4.4557,-1.1484,-0.3928,-1.1203,
2.976129,0.1284,-0.7703,0.2445,1.2509,0.9013,4.4557,-1.1484,-0.3928,-1.1203,
2.978071,-0.4376,-1.0965,0.1856,1.2509,0.9013,4.4557,-1.1484,-0.3928,-1.1203,
2.979688,-0.4904,-1.2286,0.0268,1.2509,0.9013,4.4557,-1.1484,-0.3928,-1.1203,
2.980853,-0.2209,-1.0767,-0.2200,1.2509,0.9013,4.4557,-1.1484,-0.3928,-1.1203,
3.011690,-0.2209,-1.0767,-0.2200,1.2509,0.9013,4.4557,-0.5763,-0.2969,-0.4769,
3.013532,-0.2209,-1.0767,-0.2200,1.0797,0.8231,4.5726,-0.5763,-0.2969,-0.4769,
3.049698,-0.2209,-1.0767,-0.2200,1.0797,0.8231,4.5726,-0.3526,-0.6985,-0.5312,
3.051236,-0.2209,-1.0767,-0.2200,-2.6243,-1.0257,0.9047,-0.3526,-0.6985,-0.5312,
3.052465,0.0901,-0.8153,-0.2703,-2.6243,-1.0257,0.9047,-0.3526,-0.6985,-0.5312,
3.053898,0.1302,-0.9034,-0.2593,-2.6243,-1.0257,0.9047,-0.3526,-0.6985,-0.5312,
3.054976,0.1055,-1.0173,-0.2231,-2.6243,-1.0257,0.9047,-0.3526,-0.6985,-0.5312,
3.055772,0.1179,-0.9672,-0.2056,-2.6243,-1.0257,0.9047,-0.3526,-0.6985,-0.5312,
3.089422,0.1179,-0.9672,-0.2056,-2.6243,-1.0257,0.9047,-0.2898,-0.2650,-0.7901,
3.091573,0.1179,-0.9672,-0.2056,0.2936,-0.3105,0.2776,-0.2898,-0.2650,-0.7901,
3.129144,-0.0096,-0.8876,-0.1970,0.2936,-0.3105,0.2776,-0.2898,-0.2650,-0.7901,
3.131204,-0.0831,-0.7854,-0.2185,0.2936,-0.3105,0.2776,-0.2898,-0.2650,-0.7901,
3.132315,-0.1073,-0.6765,-0.2376,0.2936,-0.3105,0.2776,-0.2898,-0.2650,-0.7901,
3.133324,-0.1073,-0.6765,-0.2376,0.2936,-0.3105,0.2776,0.0607,-0.9510,-0.5898,
3.134755,-0.1073,-0.6765,-0.2376,-1.5995,1.4042,0.3971,0.0607,-0.9510,-0.5898,
3.168691,-0.1073,-0.6765,-0.2376,-1.5995,1.4042,0.3971,0.3366,-0.9926,-0.2638,
3.170265,-0.1073,-0.6765,-0.2376,-1.7621,2.1787,-0.3320,0.3366,-0.9926,-0.2638,
3.208350,-0.1073,-0.6765,-0.2376,-1.7621,2.1787,-0.3320,0.4868,-0.5622,-0.1253,
3.209960,-0.1073,-0.6765,-0.2376,-1.7195,2.1766,-0.4775,0.4868,-0.5622,-0.1253,
3.210957,-0.1308,-0.6276,-0.2456,-1.7195,2.1766,-0.4775,0.4868,-0.5622,-0.1253,
3.211782,-0.1085,-0.6728,-0.2578,-1.7195,2.1766,-0.4775,0.4868,-0.5622,-0.1253,
3.212824,-0.0223,-0.8057,-0.3492,-1.7195,2.1766,-0.4775,0.4868,-0.5622,-0.1253,
3.213661,0.0591,-0.9262,-0.4931,-1.7195,2.1766,-0.4775,0.4868,-0.5622,-0.1253,
3.214473,0.1426,-0.9479,-0.6138,-1.7195,2.1766,-0.4775,0.4868,-0.5622,-0.1253,
3.247167,0.1426,-0.9479,-0.6138,-1.7195,2.1766,-0.4775,0.2865,-0.2778,-0.3863,
3.248506,0.1426,-0.9479,-0.6138,-1.7974,2.1453,-0.5593,0.2865,-0.2778,-0.3863,
3.287717,0.1426,-0.9479,-0.6138,-1.7974,2.1453,-0.5593,0.0660,-0.0487,-0.5983,
3.289817,0.1426,-0.9479,-0.6138,0.3304,0.0104,-3.2726,0.0660,-0.0487,-0.5983,
3.291002,0.2543,-0.8798,-0.5894,0.3304,0.0104,-3.2726,0.0660,-0.0487,-0.5983,
3.292373,0.2401,-0.8189,-0.5136,0.3304,0.0104,-3.2726,0.0660,-0.0487,-0.5983,
3.293601,0.2118,-0.8201,-0.3563,0.3304,0.0104,-3.2726,0.0660,-0.0487,-0.5983,
3.294591,0.3872,-1.2154,-0.3709,0.3304,0.0104,-3.2726,0.0660,-0.0487,-0.5983,
3.327028,0.3872,-1.2154,-0.3709,0.3304,0.0104,-3.2726,-0.3729,0.5766,-0.6814,
3.328596,0.3872,-1.2154,-0.3709,1.2623,-0.3805,-1.6511,-0.3729,0.5766,-0.6814,
3.367556,0.3872,-1.2154,-0.3709,1.2623,-0.3805,-1.6511,-0.3132,0.5180,-0.4758,
3.370093,0.3872,-1.2154,-0.3709,-4.4819,-4.3474,3.2004,-0.3132,0.5180,-0.4758,
3.371693,-0.0799,-2.1040,-0.2217,-4.4819,-4.3474,3.2004,-0.3132,0.5180,-0.4758,
3.373331,-0.2964,-1.4805,0.2584,-4.4819,-4.3474,3.2004,-0.3132,0.5180,-0.4758,
3.375555,-0.5021,-0.4911,0.2022,-4.4819,-4.3474,3.2004,-0.3132,0.5180,-0.4758,
3.377098,-0.8026,-0.5695,-0.2630,-4.4819,-4.3474,3.2004,-0.3132,0.5180,-0.4758,
3.406611,-0.8026,-0.5695,-0.2630,-4.4819,-4.3474,3.2004,0.1353,-0.7486,0.3977,
3.408656,-0.8026,-0.5695,-0.2630,-4.1892,-4.2309,3.1379,0.1353,-0.7486,0.3977,
3.446391,-0.8026,-0.5695,-0.2630,-4.1892,-4.2309,3.1379,0.4186,-0.0253,0.9559,
3.448702,-0.8026,-0.5695,-0.2630,-5.9981,1.1911,2.5213,0.4186,-0.0253,0.9559,
3.450172,-0.6023,-0.7994,0.0126,-5.9981,1.1911,2.5213,0.4186,-0.0253,0.9559,
3.451292,-0.1679,-1.0649,0.3605,-5.9981,1.1911,2.5213,0.4186,-0.0253,0.9559,
3.452429,0.1419,-1.2811,0.2977,-5.9981,1.1911,2.5213,0.4186,-0.0253,0.9559,
3.453713,0.3943,-1.2318,-0.1518,-5.9981,1.1911,2.5213,0.4186,-0.0253,0.9559,
3.489044,0.3943,-1.2318,-0.1518,-5.9981,1.1911,2.5213,0.8820,0.8706,0.1314,
3.491790,0.3943,-1.2318,-0.1518,-5.9092,1.2420,2.1317,0.8820,0.8706,0.1314,
3.526074,0.3943,-1.2318,-0.1518,-5.9092,1.2420,2.1317,0.8234,0.8152,-0.2116,
3.529655,0.3943,-1.2318,-0.1518,1.7751,-2.6869,0.7015,0.8234,0.8152,-0.2116,
3.531095,0.2929,-1.1524,-0.3695,1.7751,-2.6869,0.7015,0.8234,0.8152,-0.2116,
3.532445,0.2291,-1.1094,-0.2085,1.7751,-2.6869,0.7015,0.8234,0.8152,-0.2116,
3.533697,0.1863,-0.9963,-0.1342,1.7751,-2.6869,0.7015,0.8234,0.8152,-0.2116,
3.535088,0.0869,-0.8805,-0.1440,1.7751,-2.6869,0.7015,0.8234,0.8152,-0.2116,
3.564116,0.0869,-0.8805,-0.1440,1.7751,-2.6869,0.7015,0.7286,-0.1126,-0.1019,
3.566109,0.0869,-0.8805,-0.1440,0.6636,-0.4270,-0.4150,0.7286,-0.1126,-0.1019,
3.605052,0.0869,-0.8805,-0.1440,-1.5171,0.8038,-0.6950,0.7286,-0.1126,-0.1019,
3.607694,-0.0269,-0.8436,-0.2363,-1.5171,0.8038,-0.6950,0.7286,-0.1126,-0.1019,
3.608753,-0.1036,-0.8756,-0.2598,-1.5171,0.8038,-0.6950,0.7286,-0.1126,-0.1019,
3.610055,-0.0658,-0.8937,-0.0333,-1.5171,0.8038,-0.6950,0.7286,-0.1126,-0.1019,
3.612262,-0.0658,-0.8937,-0.0333,-1.5171,0.8038,-0.6950,0.4698,-0.5718,0.1367,
3.643982,-0.0658,-0.8937,-0.0333,-1.5171,0.8038,-0.6950,0.6349,-0.6133,0.2337,
3.646832,-0.0658,-0.8937,-0.0333,-0.2770,0.2479,-0.8117,0.6349,-0.6133,0.2337,
3.684372,-0.0658,-0.8937,-0.0333,-0.2770,0.2479,-0.8117,0.3632,-0.2628,0.1250,
3.688380,-0.0658,-0.8937,-0.0333,-0.2187,0.2582,-0.9231,0.3632,-0.2628,0.1250,
3.689868,0.0503,-0.9247,0.0483,-0.2187,0.2582,-0.9231,0.3632,-0.2628,0.1250,
3.690845,0.0737,-0.9457,-0.1633,-0.2187,0.2582,-0.9231,0.3632,-0.2628,0.1250,
3.692200,0.0244,-0.9208,-0.3885,-0.2187,0.2582,-0.9231,0.3632,-0.2628,0.1250,
3.693625,0.0036,-0.8634,-0.4926,-0.2187,0.2582,-0.9231,0.3632,-0.2628,0.1250,
3.694775,0.0034,-0.8448,-0.4279,-0.2187,0.2582,-0.9231,0.3632,-0.2628,0.1250,
3.723226,0.0034,-0.8448,-0.4279,-0.2187,0.2582,-0.9231,-0.5529,-0.0700,0.2092,
3.726858,0.0034,-0.8448,-0.4279,-0.1366,0.2414,-0.7038,-0.5529,-0.0700,0.2092,
3.763617,0.0034,-0.8448,-0.4279,-0.1366,0.2414,-0.7038,-0.7947,0.0344,0.3391,
3.765576,0.0034,-0.8448,-0.4279,-0.5327,1.0586,-2.4860,-0.7947,0.0344,0.3391,
3.766727,-0.0206,-0.8192,-0.2314,-0.5327,1.0586,-2.4860,-0.7947,0.0344,0.3391,
3.767588,0.0039,-0.7698,-0.1276,-0.5327,1.0586,-2.4860,-0.7947,0.0344,0.3391,
3.768318,-0.0230,-0.8079,-0.1894,-0.5327,1.0586,-2.4860,-0.7947,0.0344,0.3391,
3.769428,-0.0929,-0.8656,-0.2569,-0.5327,1.0586,-2.4860,-0.7947,0.0344,0.3391,
3.803684,-0.0929,-0.8656,-0.2569,-0.5327,1.0586,-2.4860,-0.7425,0.5318,0.3871,
3.805638,-0.0929,-0.8656,-0.2569,-0.7295,1.2766,-0.3276,-0.7425,0.5318,0.3871,
3.843503,-0.0985,-0.9086,-0.4022,-0.7295,1.2766,-0.3276,-0.7425,0.5318,0.3871,
3.845964,-0.0123,-0.9008,-0.3387,-0.7295,1.2766,-0.3276,-0.7425,0.5318,0.3871,
3.847325,0.0784,-0.8524,-0.2019,-0.7295,1.2766,-0.3276,-0.7425,0.5318,0.3871,
3.848544,0.0784,-0.8524,-0.2019,-0.7295,1.2766,-0.3276,-0.9375,0.9164,0.4531,
3.849784,0.0784,-0.8524,-0.2019,-0.3599,0.4966,-1.1808,-0.9375,0.9164,0.4531,
3.881962,0.0784,-0.8524,-0.2019,-0.3599,0.4966,-1.1808,-0.7638,0.6203,0.3913,
3.885065,0.0784,-0.8524,-0.2019,1.3605,1.9251,0.6063,-0.7638,0.6203,0.3913,
3.922212,0.0784,-0.8524,-0.2019,1.4307,1.8738,0.6814,-0.7638,0.6203,0.3913,
3.924574,0.0784,-0.8524,-0.2019,1.4307,1.8738,0.6814,-0.2408,-0.0327,0.2539,
3.925404,0.1407,-0.7625,-0.1459,1.4307,1.8738,0.6814,-0.2408,-0.0327,0.2539,
3.926710,0.1460,-0.7166,-0.1296,1.4307,1.8738,0.6814,-0.2408,-0.0327,0.2539,
3.929993,0.1863,-0.7175,-0.2004,1.4307,1.8738,0.6814,-0.2408,-0.0327,0.2539,
3.931612,0.2980,-0.7512,-0.2632,1.4307,1.8738,0.6814,-0.2408,-0.0327,0.2539,
3.932479,0.2606,-0.8026,-0.3626,1.4307,1.8738,0.6814,-0.2408,-0.0327,0.2539,
3.961284,0.2606,-0.8026,-0.3626,1.4307,1.8738,0.6814,-0.9332,-0.2011,0.0430,
3.964267,0.2606,-0.8026,-0.3626,1.4409,1.7553,0.9984,-0.9332,-0.2011,0.0430,
4.000643,0.2606,-0.8026,-0.3626,1.4409,1.7553,0.9984,-2.2115,-0.3704,-0.1285,
4.002925,0.2606,-0.8026,-0.3626,1.7032,0.8522,-1.6475,-2.2115,-0.3704,-0.1285,
4.003921,0.0041,-0.8358,-0.9052,1.7032,0.8522,-1.6475,-2.2115,-0.3704,-0.1285,
4.005190,-0.1313,-0.8008,-0.8102,1.7032,0.8522,-1.6475,-2.2115,-0.3704,-0.1285,
4.006192,-0.0506,-0.9477,-0.0951,1.7032,0.8522,-1.6475,-2.2115,-0.3704,-0.1285,
4.007165,-0.0269,-1.2257,0.0610,1.7032,0.8522,-1.6475,-2.2115,-0.3704,-0.1285,
4.040475,-0.0269,-1.2257,0.0610,1.7032,0.8522,-1.6475,-1.7066,-0.1861,-0.4588,
4.042446,-0.0269,-1.2257,0.0610,-0.9296,-1.2860,1.1551,-1.7066,-0.1861,-0.4588,
4.080155,-0.0269,-1.2257,0.0610,-0.9296,-1.2860,1.1551,-1.2070,-0.2256,-0.6377,
4.082274,-0.0269,-1.2257,0.0610,-1.2704,-5.6499,1.3546,-1.2070,-0.2256,-0.6377,
4.084142,-0.0260,-1.3466,-0.1301,-1.2704,-5.6499,1.3546,-1.2070,-0.2256,-0.6377,
4.085009,-0.0606,-1.4170,-0.3348,-1.2704,-5.6499,1.3546,-1.2070,-0.2256,-0.6377,
4.086213,-0.1801,-1.5130,-0.4342,-1.2704,-5.6499,1.3546,-1.2070,-0.2256,-0.6377,
4.087270,-0.0428,-1.4771,-0.4262,-1.2704,-5.6499,1.3546,-1.2070,-0.2256,-0.6377,
4.119763,-0.0428,-1.4771,-0.4262,-1.2704,-5.6499,1.3546,-0.8980,0.0003,-0.7219,
4.122394,-0.0428,-1.4771,-0.4262,-1.4810,-5.7256,1.6202,-0.8980,0.0003,-0.7219,
4.159342,-0.0428,-1.4771,-0.4262,-1.4810,-5.7256,1.6202,-0.3388,0.1718,-0.7517,
4.161840,-0.0428,-1.4771,-0.4262,-1.5886,-5.6846,0.4620,-0.3388,0.1718,-0.7517,
4.163283,0.0217,-1.4407,-0.4777,-1.5886,-5.6846,0.4620,-0.3388,0.1718,-0.7517,
4.164699,-0.2023,-1.3500,-0.3795,-1.5886,-5.6846,0.4620,-0.3388,0.1718,-0.7517,
4.166174,-0.3416,-1.0896,-0.3712,-1.5886,-5.6846,0.4620,-0.3388,0.1718,-0.7517,
4.167443,-0.3653,-0.9144,-0.4758,-1.5886,-5.6846,0.4620,-0.3388,0.1718,-0.7517,
4.199290,-0.3653,-0.9144,-0.4758,-1.6199,-5.5998,0.4609,-0.3388,0.1718,-0.7517,
4.201931,-0.3653,-0.9144,-0.4758,-1.6199,-5.5998,0.4609,-0.0181,-0.0221,-0.1924,
4.226656,-0.2793,-0.8758,-0.4347,-1.6199,-5.5998,0.4609,-0.0181,-0.0221,-0.1924,
4.228997,-0.1381,-0.9530,-0.3851,-1.6199,-5.5998,0.4609,-0.0181,-0.0221,-0.1924,
4.230447,-0.0262,-0.9704,-0.3424,-1.6199,-5.5998,0.4609,-0.0181,-0.0221,-0.1924,
4.240259,-0.0262,-0.9704,-0.3424,-3.9438,-0.9960,0.3820,-0.0181,-0.0221,-0.1924,
4.243113,-0.0262,-0.9704,-0.3424,-3.9438,-0.9960,0.3820,0.2418,-0.0658,0.2677,
4.283265,-0.0262,-0.9704,-0.3424,-1.3558,-0.4637,0.9972,0.2418,-0.0658,0.2677,
4.286298,-0.0262,-0.9704,-0.3424,-1.3558,-0.4637,0.9972,0.6008,0.1334,0.3604,
4.314259,-0.0665,-0.8314,-0.2979,-1.3558,-0.4637,0.9972,0.6008,0.1334,0.3604,
4.317055,-0.1080,-0.6843,-0.2715,-1.3558,-0.4637,0.9972,0.6008,0.1334,0.3604,
4.317842,-0.0751,-0.6188,-0.2510,-1.3558,-0.4637,0.9972,0.6008,0.1334,0.3604,
4.318609,-0.0152,-0.5656,-0.2302,-1.3558,-0.4637,0.9972,0.6008,0.1334,0.3604,
4.320335,-0.0152,-0.5656,-0.2302,-1.3558,-0.4637,0.9972,0.9449,0.1835,0.5213,
4.321048,-0.0152,-0.5656,-0.2302,-1.0837,2.5551,1.5354,0.9449,0.1835,0.5213,
4.357420,-0.0152,-0.5656,-0.2302,-1.0837,2.5551,1.5354,1.3369,0.1696,0.5426,
4.359757,-0.0152,-0.5656,-0.2302,0.7215,3.9945,1.7090,1.3369,0.1696,0.5426,
4.398319,-0.0152,-0.5656,-0.2302,0.7215,3.9945,1.7090,1.6799,-0.0807,0.2763,
4.400925,-0.0152,-0.5656,-0.2302,0.8147,4.1400,1.0981,1.6799,-0.0807,0.2763,
4.402287,0.0263,-0.4986,-0.2158,0.8147,4.1400,1.0981,1.6799,-0.0807,0.2763,
4.403703,0.0894,-0.4730,-0.1792,0.8147,4.1400,1.0981,1.6799,-0.0807,0.2763,
4.404982,0.1925,-0.4991,-0.1528,0.8147,4.1400,1.0981,1.6799,-0.0807,0.2763,
4.406387,0.2494,-0.5331,-0.1601,0.8147,4.1400,1.0981,1.6799,-0.0807,0.2763,
4.407633,0.2362,-0.5739,-0.1784,0.8147,4.1400,1.0981,1.6799,-0.0807,0.2763,
4.437091,0.2362,-0.5739,-0.1784,0.8147,4.1400,1.0981,1.6256,-0.3758,-0.2425,
4.439408,0.2362,-0.5739,-0.1784,0.7530,4.2337,0.5106,1.6256,-0.3758,-0.2425,
4.476635,0.2362,-0.5739,-0.1784,0.7530,4.2337,0.5106,1.4338,0.3071,-0.4747,
4.478988,0.2362,-0.5739,-0.1784,1.7503,3.3236,-0.0948,1.4338,0.3071,-0.4747,
4.480371,0.1966,-0.6587,-0.2354,1.7503,3.3236,-0.0948,1.4338,0.3071,-0.4747,
4.481501,0.0874,-0.7908,-0.4120,1.7503,3.3236,-0.0948,1.4338,0.3071,-0.4747,
4.482679,-0.0499,-0.8832,-0.6343,1.7503,3.3236,-0.0948,1.4338,0.3071,-0.4747,
4.484992,-0.1210,-0.8849,-0.7320,1.7503,3.3236,-0.0948,1.4338,0.3071,-0.4747,
4.516612,-0.1210,-0.8849,-0.7320,1.7503,3.3236,-0.0948,0.7457,0.7779,-0.3682,
4.518904,-0.1210,-0.8849,-0.7320,-0.9178,0.7595,-4.2446,0.7457,0.7779,-0.3682,
4.558241,-0.1210,-0.8849,-0.7320,-1.9190,-0.7907,-5.1675,0.7457,0.7779,-0.3682,
4.560840,-0.1210,-0.8849,-0.7320,-1.9190,-0.7907,-5.1675,0.0330,0.0152,-0.3096,
4.561987,-0.1122,-0.8077,-0.6541,-1.9190,-0.7907,-5.1675,0.0330,0.0152,-0.3096,
4.563590,-0.1068,-0.8578,-0.5427,-1.9190,-0.7907,-5.1675,0.0330,0.0152,-0.3096,
4.564924,-0.1464,-1.3701,-0.8872,-1.9190,-0.7907,-5.1675,0.0330,0.0152,-0.3096,
4.566350,0.1768,-1.6825,-0.5622,-1.9190,-0.7907,-5.1675,0.0330,0.0152,-0.3096,
4.595564,0.1768,-1.6825,-0.5622,-1.9190,-0.7907,-5.1675,-0.6371,0.6405,-0.2723,
4.598147,0.1768,-1.6825,-0.5622,-2.0272,-0.8293,-4.8755,-0.6371,0.6405,-0.2723,
4.627041,0.3935,-1.6542,-0.1425,-2.0272,-0.8293,-4.8755,-0.6371,0.6405,-0.2723,
4.629436,0.0859,-1.5946,0.0952,-2.0272,-0.8293,-4.8755,-0.6371,0.6405,-0.2723,
4.630738,-0.3333,-1.7028,0.3703,-2.0272,-0.8293,-4.8755,-0.6371,0.6405,-0.2723,
4.634920,-0.3333,-1.7028,0.3703,-2.0272,-0.8293,-4.8755,-1.2240,-0.2586,-0.2990,
4.636582,-0.3333,-1.7028,0.3703,1.2061,-7.0182,0.3815,-1.2240,-0.2586,-0.2990,
4.674746,-0.3333,-1.7028,0.3703,1.2061,-7.0182,0.3815,-0.5359,-0.1670,0.0568,
4.677396,-0.3333,-1.7028,0.3703,-4.0232,-5.0855,1.4205,-0.5359,-0.1670,0.0568,
4.714106,-0.3333,-1.7028,0.3703,-4.0232,-5.0855,1.4205,-0.4293,0.8962,0.1815,
4.716533,-0.3333,-1.7028,0.3703,-3.9836,-5.0385,1.5197,-0.4293,0.8962,0.1815,
4.717905,-0.4635,-1.4878,-0.2156,-3.9836,-5.0385,1.5197,-0.4293,0.8962,0.1815,
4.719055,-0.1799,-1.1600,-0.4997,-3.9836,-5.0385,1.5197,-0.4293,0.8962,0.1815,
4.720729,0.1113,-1.0928,0.0263,-3.9836,-5.0385,1.5197,-0.4293,0.8962,0.1815,
4.721856,0.0310,-1.0967,0.5408,-3.9836,-5.0385,1.5197,-0.4293,0.8962,0.1815,
4.723325,-0.0142,-1.1695,0.3192,-3.9836,-5.0385,1.5197,-0.4293,0.8962,0.1815,
4.754298,-0.0142,-1.1695,0.3192,-3.9836,-5.0385,1.5197,0.9821,0.4615,0.1165,
4.756933,-0.0142,-1.1695,0.3192,-0.3722,-1.6714,5.0821,0.9821,0.4615,0.1165,
4.793805,-0.0142,-1.1695,0.3192,-0.3722,-1.6714,5.0821,0.9055,0.7129,0.1889,
4.796592,-0.0142,-1.1695,0.3192,0.0052,-2.1767,-2.3092,0.9055,0.7129,0.1889,
4.798058,-0.0003,-1.3290,-0.3072,0.0052,-2.1767,-2.3092,0.9055,0.7129,0.1889,
4.799130,0.0664,-1.2235,-0.6475,0.0052,-2.1767,-2.3092,0.9055,0.7129,0.1889,
4.800477,0.1734,-0.9963,-0.3243,0.0052,-2.1767,-2.3092,0.9055,0.7129,0.1889,
4.801544,0.1859,-0.8956,-0.1174,0.0052,-2.1767,-2.3092,0.9055,0.7129,0.1889,
4.833620,0.1859,-0.8956,-0.1174,0.0052,-2.1767,-2.3092,0.6508,0.0439,0.2731,
4.836140,0.1859,-0.8956,-0.1174,0.1021,-2.0884,-2.5116,0.6508,0.0439,0.2731,
4.872981,0.1859,-0.8956,-0.1174,0.1021,-2.0884,-2.5116,0.7499,-0.2266,0.2784,
4.877376,0.1859,-0.8956,-0.1174,0.6095,0.8912,-0.5833,0.7499,-0.2266,0.2784,
4.878919,0.1265,-0.8812,-0.1872,0.6095,0.8912,-0.5833,0.7499,-0.2266,0.2784,
4.880966,0.0493,-0.8712,-0.3021,0.6095,0.8912,-0.5833,0.7499,-0.2266,0.2784,
4.882171,0.0385,-0.7979,-0.3148,0.6095,0.8912,-0.5833,0.7499,-0.2266,0.2784,
4.884147,0.0449,-0.7608,-0.3414,0.6095,0.8912,-0.5833,0.7499,-0.2266,0.2784,
4.913322,0.0449,-0.7608,-0.3414,0.6095,0.8912,-0.5833,0.5038,0.1260,0.2880,
4.915924,0.0449,-0.7608,-0.3414,0.7004,0.9078,-0.7636,0.5038,0.1260,0.2880,
4.952588,0.0449,-0.7608,-0.3414,0.7004,0.9078,-0.7636,-0.0054,0.3401,0.3764,
4.955142,0.0449,-0.7608,-0.3414,0.0244,1.7610,-2.0774,-0.0054,0.3401,0.3764,
4.956656,0.0327,-0.8209,-0.3624,0.0244,1.7610,-2.0774,-0.0054,0.3401,0.3764,
4.957980,-0.0018,-0.8944,-0.3753,0.0244,1.7610,-2.0774,-0.0054,0.3401,0.3764,
4.959072,-0.0194,-0.8570,-0.4208,0.0244,1.7610,-2.0774,-0.0054,0.3401,0.3764,
4.960462,-0.0084,-0.8104,-0.4450,0.0244,1.7610,-2.0774,-0.0054,0.3401,0.3764,
4.992101,-0.0084,-0.8104,-0.4450,0.0244,1.7610,-2.0774,-0.6253,0.5297,0.4904,
4.995252,-0.0084,-0.8104,-0.4450,-0.2897,1.1182,-2.5315,-0.6253,0.5297,0.4904,
5.033116,-0.0084,-0.8104,-0.4450,-0.2897,1.1182,-2.5315,-0.9289,0.3859,0.5820,
5.035724,-0.0084,-0.8104,-0.4450,-0.7170,1.5364,-1.2836,-0.9289,0.3859,0.5820,
5.037415,-0.0426,-0.7818,-0.3595,-0.7170,1.5364,-1.2836,-0.9289,0.3859,0.5820,
5.038639,-0.1080,-0.7884,-0.3062,-0.7170,1.5364,-1.2836,-0.9289,0.3859,0.5820,
5.039952,-0.0724,-0.8372,-0.3062,-0.7170,1.5364,-1.2836,-0.9289,0.3859,0.5820,
5.041085,-0.0418,-0.8363,-0.2742,-0.7170,1.5364,-1.2836,-0.9289,0.3859,0.5820,
5.072283,-0.0418,-0.8363,-0.2742,-0.7170,1.5364,-1.2836,-1.1154,0.1718,0.7556,
5.074534,-0.0418,-0.8363,-0.2742,-0.4435,1.4154,-0.8550,-1.1154,0.1718,0.7556,
5.111107,-0.0418,-0.8363,-0.2742,-0.4435,1.4154,-0.8550,-1.2538,0.1601,0.5224,
5.113683,-0.0418,-0.8363,-0.2742,1.4780,1.2603,0.2782,-1.2538,0.1601,0.5224,
5.115035,0.1121,-0.7938,-0.2019,1.4780,1.2603,0.2782,-1.2538,0.1601,0.5224,
5.116178,0.2491,-0.7771,-0.2884,1.4780,1.2603,0.2782,-1.2538,0.1601,0.5224,
5.117311,0.1602,-0.7659,-0.4574,1.4780,1.2603,0.2782,-1.2538,0.1601,0.5224,
5.118551,0.1438,-0.6958,-0.1782,1.4780,1.2603,0.2782,-1.2538,0.1601,0.5224,
5.150564,0.1438,-0.6958,-0.1782,1.4780,1.2603,0.2782,-1.3092,-0.2330,0.3359,
5.153039,0.1438,-0.6958,-0.1782,1.5998,1.0791,0.7303,-1.3092,-0.2330,0.3359,
5.189764,0.1438,-0.6958,-0.1782,1.5998,1.0791,0.7303,-1.5287,-0.3662,0.1261,
5.193088,0.1438,-0.6958,-0.1782,2.1155,1.8681,1.4758,-1.5287,-0.3662,0.1261,
5.194434,0.1551,-0.6286,-0.0541,2.1155,1.8681,1.4758,-1.5287,-0.3662,0.1261,
5.195416,0.1133,-0.7346,-0.4995,2.1155,1.8681,1.4758,-1.5287,-0.3662,0.1261,
5.196886,0.0442,-1.0136,-0.7504,2.1155,1.8681,1.4758,-1.5287,-0.3662,0.1261,
5.198126,0.0625,-1.2577,-0.6052,2.1155,1.8681,1.4758,-1.5287,-0.3662,0.1261,
5.233300,0.0625,-1.2577,-0.6052,1.0947,-1.4058,-1.6314,-1.5287,-0.3662,0.1261,
5.235758,0.0625,-1.2577,-0.6052,1.0947,-1.4058,-1.6314,-1.9729,0.1835,-0.5632,
5.268915,0.0625,-1.2577,-0.6052,1.0947,-1.4058,-1.6314,-1.3689,0.3156,-0.9690,
5.271250,0.0625,-1.2577,-0.6052,-0.2227,-4.8960,1.5062,-1.3689,0.3156,-0.9690,
5.273153,0.0625,-1.3212,-0.4137,-0.2227,-4.8960,1.5062,-1.3689,0.3156,-0.9690,
5.274326,-0.0040,-1.3285,-0.2940,-0.2227,-4.8960,1.5062,-1.3689,0.3156,-0.9690,
5.275972,-0.1278,-1.3750,-0.3174,-0.2227,-4.8960,1.5062,-1.3689,0.3156,-0.9690,
5.277029,-0.0413,-1.2584,-0.5456,-0.2227,-4.8960,1.5062,-1.3689,0.3156,-0.9690,
5.308609,-0.0413,-1.2584,-0.5456,-0.2227,-4.8960,1.5062,-0.7137,0.2719,-1.0340,
5.311551,-0.0413,-1.2584,-0.5456,-0.6010,-4.9605,1.7067,-0.7137,0.2719,-1.0340,
5.349004,-0.0413,-1.2584,-0.5456,-0.6010,-4.9605,1.7067,-0.0309,0.3646,-1.0681,
5.352596,-0.0413,-1.2584,-0.5456,-1.9263,-3.8966,0.3912,-0.0309,0.3646,-1.0681,
5.354186,-0.0213,-1.1991,-0.5337,-1.9263,-3.8966,0.3912,-0.0309,0.3646,-1.0681,
5.355467,-0.2942,-1.2523,-0.3470,-1.9263,-3.8966,0.3912,-0.0309,0.3646,-1.0681,
5.356999,-0.2727,-1.1624,-0.4384,-1.9263,-3.8966,0.3912,-0.0309,0.3646,-1.0681,
5.358265,-0.0961,-1.0171,-0.5153,-1.9263,-3.8966,0.3912,-0.0309,0.3646,-1.0681,
5.388250,-0.0961,-1.0171,-0.5153,-1.9263,-3.8966,0.3912,0.3398,-0.1574,-0.5024,
5.390762,-0.0961,-1.0171,-0.5153,-2.0250,-3.7819,0.2809,0.3398,-0.1574,-0.5024,
5.428547,-0.0961,-1.0171,-0.5153,-2.0250,-3.7819,0.2809,0.5646,-0.6804,0.0121,
5.431408,-0.0367,-0.8863,-0.4477,-2.0250,-3.7819,0.2809,0.5646,-0.6804,0.0121,
5.432694,-0.1562,-0.7884,-0.3922,-2.0250,-3.7819,0.2809,0.5646,-0.6804,0.0121,
5.433707,-0.1677,-0.7823,-0.3920,-2.0250,-3.7819,0.2809,0.5646,-0.6804,0.0121,
5.434964,-0.0900,-0.7898,-0.3639,-2.0250,-3.7819,0.2809,0.5646,-0.6804,0.0121,
5.436114,-0.0900,-0.7898,-0.3639,-2.0146,-1.5431,0.1930,0.5646,-0.6804,0.0121,
5.467933,-0.0900,-0.7898,-0.3639,-2.0146,-1.5431,0.1930,0.9150,-0.4461,0.1857,
5.470879,-0.0900,-0.7898,-0.3639,-1.8649,0.9175,0.7091,0.9150,-0.4461,0.1857,
5.507104,-0.0900,-0.7898,-0.3639,-1.8649,0.9175,0.7091,1.2442,0.0099,0.2070,
5.510314,-0.0900,-0.7898,-0.3639,-1.3178,1.3442,0.7420,1.2442,0.0099,0.2070,
5.511679,-0.1039,-0.7674,-0.2901,-1.3178,1.3442,0.7420,1.2442,0.0099,0.2070,
5.513629,-0.1036,-0.7510,-0.3187,-1.3178,1.3442,0.7420,1.2442,0.0099,0.2070,
5.514871,-0.0672,-0.7698,-0.3934,-1.3178,1.3442,0.7420,1.2442,0.0099,0.2070,
5.516098,-0.0797,-0.8148,-0.4816,-1.3178,1.3442,0.7420,1.2442,0.0099,0.2070,
5.546323,-0.0797,-0.8148,-0.4816,-1.3178,1.3442,0.7420,1.1909,0.0163,0.3295,
5.548279,-0.0797,-0.8148,-0.4816,-1.1837,1.5030,0.3159,1.1909,0.0163,0.3295,
5.586532,-0.0797,-0.8148,-0.4816,-1.1837,1.5030,0.3159,1.0109,-0.4194,0.4307,
5.588688,-0.0797,-0.8148,-0.4816,-0.3872,1.2206,-0.6558,1.0109,-0.4194,0.4307,
5.589915,-0.0753,-0.8150,-0.4655,-0.3872,1.2206,-0.6558,1.0109,-0.4194,0.4307,
5.590999,0.0576,-0.7813,-0.2459,-0.3872,1.2206,-0.6558,1.0109,-0.4194,0.4307,
5.592205,0.1612,-0.7793,-0.1963,-0.3872,1.2206,-0.6558,1.0109,-0.4194,0.4307,
5.593579,0.1514,-0.8087,-0.2793,-0.3872,1.2206,-0.6558,1.0109,-0.4194,0.4307,
5.625318,0.1514,-0.8087,-0.2793,-0.3872,1.2206,-0.6558,1.2836,-0.5377,0.1389,
5.627616,0.1514,-0.8087,-0.2793,-0.2683,1.3508,-1.1036,1.2836,-0.5377,0.1389,
5.665466,0.1514,-0.8087,-0.2793,-0.2683,1.3508,-1.1036,1.3124,-0.3353,-0.2010,
5.668052,0.1514,-0.8087,-0.2793,1.4406,1.4254,-0.3379,1.3124,-0.3353,-0.2010,
5.669447,0.1328,-0.8336,-0.3365,1.4406,1.4254,-0.3379,1.3124,-0.3353,-0.2010,
5.670715,0.1331,-0.8536,-0.3819,1.4406,1.4254,-0.3379,1.3124,-0.3353,-0.2010,
5.671829,0.1069,-0.8385,-0.3719,1.4406,1.4254,-0.3379,1.3124,-0.3353,-0.2010,
5.673210,0.0359,-0.7720,-0.3634,1.4406,1.4254,-0.3379,1.3124,-0.3353,-0.2010,
5.705176,0.0359,-0.7720,-0.3634,0.7184,1.3507,-1.6979,1.3124,-0.3353,-0.2010,
5.707598,0.0359,-0.7720,-0.3634,0.7184,1.3507,-1.6979,1.0525,0.1281,-0.3927,
5.744466,0.0359,-0.7720,-0.3634,0.7184,1.3507,-1.6979,0.6562,0.1622,-0.2947,
5.746654,0.0359,-0.7720,-0.3634,-1.1728,2.3814,-2.0009,0.6562,0.1622,-0.2947,
5.748020,-0.0582,-0.7080,-0.3658,-1.1728,2.3814,-2.0009,0.6562,0.1622,-0.2947,
5.749472,-0.1347,-0.7210,-0.3949,-1.1728,2.3814,-2.0009,0.6562,0.1622,-0.2947,
5.750616,-0.0790,-0.7210,-0.3841,-1.1728,2.3814,-2.0009,0.6562,0.1622,-0.2947,
5.751757,0.0009,-0.6787,-0.3394,-1.1728,2.3814,-2.0009,0.6562,0.1622,-0.2947,
5.784933,0.0009,-0.6787,-0.3394,-1.1728,2.3814,-2.0009,0.3526,-0.0264,-0.1956,
5.787594,0.0009,-0.6787,-0.3394,-1.2234,2.3622,-2.0965,0.3526,-0.0264,-0.1956,
5.824951,0.0009,-0.6787,-0.3394,-0.7034,2.6221,-1.7526,0.3526,-0.0264,-0.1956,
5.827775,0.0070,-0.6462,-0.3123,-0.7034,2.6221,-1.7526,0.3526,-0.0264,-0.1956,
5.829004,-0.1061,-0.7363,-0.3663,-0.7034,2.6221,-1.7526,0.3526,-0.0264,-0.1956,
5.830281,-0.2449,-1.0742,-0.5661,-0.7034,2.6221,-1.7526,0.3526,-0.0264,-0.1956,
5.831639,-0.2449,-1.0742,-0.5661,-0.7034,2.6221,-1.7526,0.2780,-0.2394,-0.1999,
5.864887,-0.2449,-1.0742,-0.5661,-0.7034,2.6221,-1.7526,-0.5327,-0.1169,-0.0092,
5.867558,-0.2449,-1.0742,-0.5661,-1.3202,-3.7785,-4.0062,-0.5327,-0.1169,-0.0092,
5.903157,-0.2449,-1.0742,-0.5661,-1.3202,-3.7785,-4.0062,-1.5436,0.2762,-0.0199,
5.907055,-0.2449,-1.0742,-0.5661,-1.3286,-3.8435,-3.3829,-1.5436,0.2762,-0.0199,
5.908876,-0.1418,-1.4343,-0.6881,-1.3286,-3.8435,-3.3829,-1.5436,0.2762,-0.0199,
5.910311,0.0916,-1.5208,-0.5354,-1.3286,-3.8435,-3.3829,-1.5436,0.2762,-0.0199,
5.911578,-0.0885,-1.4773,0.1998,-1.3286,-3.8435,-3.3829,-1.5436,0.2762,-0.0199,
5.912745,-0.1769,-1.3918,0.6256,-1.3286,-3.8435,-3.3829,-1.5436,0.2762,-0.0199,
5.914085,-0.2954,-1.2474,-0.0257,-1.3286,-3.8435,-3.3829,-1.5436,0.2762,-0.0199,
5.943348,-0.2954,-1.2474,-0.0257,-1.3286,-3.8435,-3.3829,-0.2248,0.2975,0.2283,
5.946239,-0.2954,-1.2474,-0.0257,-2.1070,-4.0785,5.0680,-0.2248,0.2975,0.2283,
5.983788,-0.2954,-1.2474,-0.0257,-2.1070,-4.0785,5.0680,-0.5891,0.8610,0.5777,
5.986535,-0.2954,-1.2474,-0.0257,0.9835,-5.1044,-0.8786,-0.5891,0.8610,0.5777,
5.987759,-0.4782,-1.6877,-0.5388,0.9835,-5.1044,-0.8786,-0.5891,0.8610,0.5777,
5.989651,0.1670,-1.6083,-0.7225,0.9835,-5.1044,-0.8786,-0.5891,0.8610,0.5777,
5.990941,0.6627,-1.1443,0.1714,0.9835,-5.1044,-0.8786,-0.5891,0.8610,0.5777,
5.992062,0.3986,-0.9484,0.5266,0.9835,-5.1044,-0.8786,-0.5891,0.8610,0.5777,
6.022322,0.3986,-0.9484,0.5266,0.9835,-5.1044,-0.8786,0.2237,0.7737,-0.0976,
6.024773,0.3986,-0.9484,0.5266,0.8509,-4.9974,-0.9521,0.2237,0.7737,-0.0976,
6.061823,0.3986,-0.9484,0.5266,0.8509,-4.9974,-0.9521,1.1057,0.7225,-0.0486,
6.064435,0.0297,-1.1045,0.0507,0.8509,-4.9974,-0.9521,1.1057,0.7225,-0.0486,
6.065813,-0.0282,-1.3334,-0.4191,0.8509,-4.9974,-0.9521,1.1057,0.7225,-0.0486,
6.067399,0.0427,-1.2330,-0.3966,0.8509,-4.9974,-0.9521,1.1057,0.7225,-0.0486,
6.068689,0.1641,-0.9897,-0.2464,0.8509,-4.9974,-0.9521,1.1057,0.7225,-0.0486,
6.070335,0.1641,-0.9897,-0.2464,0.9065,-1.4261,2.6513,1.1057,0.7225,-0.0486,
6.100924,0.1641,-0.9897,-0.2464,0.9065,-1.4261,2.6513,0.8032,0.0525,0.0962,
6.103384,0.1641,-0.9897,-0.2464,0.9230,-1.3389,2.3038,0.8032,0.0525,0.0962,
6.140941,0.1641,-0.9897,-0.2464,0.9230,-1.3389,2.3038,0.8575,-0.0999,0.0302,
6.145198,0.1641,-0.9897,-0.2464,0.8170,-0.4168,-1.4023,0.8575,-0.0999,0.0302,
6.146987,0.1597,-0.9005,-0.2395,0.8170,-0.4168,-1.4023,0.8575,-0.0999,0.0302,
6.150126,0.0268,-0.8795,-0.2251,0.8170,-0.4168,-1.4023,0.8575,-0.0999,0.0302,
6.151771,-0.0560,-0.8722,-0.2627,0.8170,-0.4168,-1.4023,0.8575,-0.0999,0.0302,
6.153138,-0.0433,-0.8702,-0.3248,0.8170,-0.4168,-1.4023,0.8575,-0.0999,0.0302,
6.180243,-0.0433,-0.8702,-0.3248,0.8170,-0.4168,-1.4023,0.8096,-0.1095,0.1346,
6.182240,-0.0433,-0.8702,-0.3248,-0.5498,1.2441,-1.4625,0.8096,-0.1095,0.1346,
6.220302,-0.0433,-0.8702,-0.3248,-0.5498,1.2441,-1.4625,0.5315,-0.1819,0.2156,
6.222950,-0.0433,-0.8702,-0.3248,0.0055,1.4664,-1.9717,0.5315,-0.1819,0.2156,
6.224293,0.0095,-0.8563,-0.3248,0.0055,1.4664,-1.9717,0.5315,-0.1819,0.2156,
6.225369,0.0266,-0.8475,-0.3013,0.0055,1.4664,-1.9717,0.5315,-0.1819,0.2156,
6.226878,0.0334,-0.8502,-0.2898,0.0055,1.4664,-1.9717,0.5315,-0.1819,0.2156,
6.227950,0.0361,-0.8521,-0.2569,0.0055,1.4664,-1.9717,0.5315,-0.1819,0.2156,
6.260087,0.0361,-0.8521,-0.2569,0.0055,1.4664,-1.9717,0.1310,-0.0732,0.2315,
6.263317,0.0361,-0.8521,-0.2569,0.0967,1.4486,-1.9884,0.1310,-0.0732,0.2315,
6.301110,0.0361,-0.8521,-0.2569,0.0967,1.4486,-1.9884,-0.2823,0.1771,0.2528,
6.303726,0.0361,-0.8521,-0.2569,-0.0143,1.2041,-1.4149,-0.2823,0.1771,0.2528,
6.305041,0.0051,-0.8732,-0.2547,-0.0143,1.2041,-1.4149,-0.2823,0.1771,0.2528,
6.306502,-0.0335,-0.8939,-0.2696,-0.0143,1.2041,-1.4149,-0.2823,0.1771,0.2528,
6.307772,-0.0438,-0.8981,-0.3419,-0.0143,1.2041,-1.4149,-0.2823,0.1771,0.2528,
6.308984,-0.0379,-0.8719,-0.4022,-0.0143,1.2041,-1.4149,-0.2823,0.1771,0.2528,
6.339239,-0.0379,-0.8719,-0.4022,-0.0143,1.2041,-1.4149,-0.8448,0.5691,0.2230,
6.341206,-0.0379,-0.8719,-0.4022,0.0418,1.1413,-1.0707,-0.8448,0.5691,0.2230,
6.379328,-0.0379,-0.8719,-0.4022,0.0418,1.1413,-1.0707,-1.3337,0.5563,0.3562,
6.381662,-0.0379,-0.8719,-0.4022,-0.3912,1.1214,-1.8119,-1.3337,0.5563,0.3562,
6.383363,-0.0753,-0.8211,-0.4298,-0.3912,1.1214,-1.8119,-1.3337,0.5563,0.3562,
6.384390,-0.0643,-0.7759,-0.4074,-0.3912,1.1214,-1.8119,-1.3337,0.5563,0.3562,
6.385359,0.0244,-0.7530,-0.1889,-0.3912,1.1214,-1.8119,-1.3337,0.5563,0.3562,
6.386502,0.1106,-0.7635,-0.0160,-0.3912,1.1214,-1.8119,-1.3337,0.5563,0.3562,
6.418468,0.1106,-0.7635,-0.0160,-0.3912,1.1214,-1.8119,-1.0120,0.0599,0.4275,
6.421246,0.1106,-0.7635,-0.0160,0.5011,1.9718,0.3991,-1.0120,0.0599,0.4275,
6.448886,0.1177,-0.7564,0.0111,0.5011,1.9718,0.3991,-1.0120,0.0599,0.4275,
6.451614,0.1140,-0.6943,-0.1577,0.5011,1.9718,0.3991,-1.0120,0.0599,0.4275,
6.452949,0.0908,-0.7305,-0.5158,0.5011,1.9718,0.3991,-1.0120,0.0599,0.4275,
6.458057,0.0908,-0.7305,-0.5158,0.5011,1.9718,0.3991,-0.8501,-0.0658,0.2880,
6.460214,0.0908,-0.7305,-0.5158,1.4143,2.2076,0.5427,-0.8501,-0.0658,0.2880,
6.498640,0.0908,-0.7305,-0.5158,1.4143,2.2076,0.5427,-1.5798,0.1270,0.2188,
6.501409,0.0908,-0.7305,-0.5158,1.6468,0.8159,-0.9545,-1.5798,0.1270,0.2188,
6.521095,0.0649,-0.8060,-0.6780,1.6468,0.8159,-0.9545,-1.5798,0.1270,0.2188,
6.523595,0.1338,-0.8109,-0.4176,1.6468,0.8159,-0.9545,-1.5798,0.1270,0.2188,
6.525111,0.1837,-0.9276,-0.2078,1.6468,0.8159,-0.9545,-1.5798,0.1270,0.2188,
6.527476,0.1060,-1.1495,-0.2454,1.6468,0.8159,-0.9545,-1.5798,0.1270,0.2188,
6.537037,0.1060,-1.1495,-0.2454,1.6468,0.8159,-0.9545,-1.6746,-0.0871,-0.2063,
6.539586,0.1060,-1.1495,-0.2454,1.5598,0.5702,-0.3520,-1.6746,-0.0871,-0.2063,
6.576702,0.1060,-1.1495,-0.2454,1.5598,0.5702,-0.3520,-1.2347,0.0525,-0.7240,
6.578732,0.1060,-1.1495,-0.2454,1.0007,-3.4716,1.4880,-1.2347,0.0525,-0.7240,
6.608693,0.0933,-1.2592,-0.3038,1.0007,-3.4716,1.4880,-1.2347,0.0525,-0.7240,
6.611218,0.0969,-1.3310,-0.3150,1.0007,-3.4716,1.4880,-1.2347,0.0525,-0.7240,
6.612638,-0.0274,-1.4534,-0.3409,1.0007,-3.4716,1.4880,-1.2347,0.0525,-0.7240,
6.613921,-0.1830,-1.4566,-0.4609,1.0007,-3.4716,1.4880,-1.2347,0.0525,-0.7240,
6.616472,-0.1830,-1.4566,-0.4609,1.0007,-3.4716,1.4880,-0.7297,-0.0221,-0.8369,
6.617766,-0.1830,-1.4566,-0.4609,0.7052,-3.5435,1.7101,-0.7297,-0.0221,-0.8369,
6.655662,-0.1830,-1.4566,-0.4609,0.7052,-3.5435,1.7101,-0.3750,-0.1680,-0.6494,
6.657564,-0.1830,-1.4566,-0.4609,-1.6527,-4.9058,0.2807,-0.3750,-0.1680,-0.6494,
6.695311,-0.1830,-1.4566,-0.4609,-1.6527,-4.9058,0.2807,-0.1129,0.0141,-0.7666,
6.697556,-0.1830,-1.4566,-0.4609,-1.8864,-4.8612,0.3137,-0.1129,0.0141,-0.7666,
6.699893,-0.1652,-1.2484,-0.5385,-1.8864,-4.8612,0.3137,-0.1129,0.0141,-0.7666,
6.701376,-0.1576,-1.1893,-0.4555,-1.8864,-4.8612,0.3137,-0.1129,0.0141,-0.7666,
6.702863,-0.1630,-1.2557,-0.4758,-1.8864,-4.8612,0.3137,-0.1129,0.0141,-0.7666,
6.703882,-0.1413,-1.2450,-0.5627,-1.8864,-4.8612,0.3137,-0.1129,0.0141,-0.7666,
6.705100,-0.0570,-1.0752,-0.4826,-1.8864,-4.8612,0.3137,-0.1129,0.0141,-0.7666,
6.735176,-0.0570,-1.0752,-0.4826,-1.8864,-4.8612,0.3137,0.1800,0.0972,-0.6143,
6.737791,-0.0570,-1.0752,-0.4826,-2.3586,-3.2616,-0.2494,0.1800,0.0972,-0.6143,
6.775016,-0.0570,-1.0752,-0.4826,-2.3586,-3.2616,-0.2494,0.2951,-0.5228,-0.0763,
6.777398,-0.0570,-1.0752,-0.4826,-1.4595,-0.5313,0.1483,0.2951,-0.5228,-0.0763,
6.778707,-0.0616,-0.9154,-0.4193,-1.4595,-0.5313,0.1483,0.2951,-0.5228,-0.0763,
6.779996,-0.0966,-0.8820,-0.4433,-1.4595,-0.5313,0.1483,0.2951,-0.5228,-0.0763,
6.781283,-0.0528,-0.9235,-0.4039,-1.4595,-0.5313,0.1483,0.2951,-0.5228,-0.0763,
6.782571,-0.0501,-0.9154,-0.3590,-1.4595,-0.5313,0.1483,0.2951,-0.5228,-0.0763,
6.815111,-0.0501,-0.9154,-0.3590,-1.4595,-0.5313,0.1483,0.3451,-0.9020,0.0696,
6.817910,-0.0501,-0.9154,-0.3590,-1.2532,-0.4603,0.0498,0.3451,-0.9020,0.0696,
6.854740,-0.0501,-0.9154,-0.3590,-1.2532,-0.4603,0.0498,0.5049,-0.3545,0.2006,
6.857271,-0.0501,-0.9154,-0.3590,-1.0993,0.2168,0.6164,0.5049,-0.3545,0.2006,
6.859367,-0.1115,-0.8531,-0.3529,-1.0993,0.2168,0.6164,0.5049,-0.3545,0.2006,
6.860632,-0.1249,-0.7705,-0.3558,-1.0993,0.2168,0.6164,0.5049,-0.3545,0.2006,
6.861900,-0.0721,-0.7256,-0.3404,-1.0993,0.2168,0.6164,0.5049,-0.3545,0.2006,
6.863051,-0.0404,-0.7200,-0.2986,-1.0993,0.2168,0.6164,0.5049,-0.3545,0.2006,
6.893874,-0.0404,-0.7200,-0.2986,-1.0993,0.2168,0.6164,0.6359,-0.2224,0.3764,
6.896853,-0.0404,-0.7200,-0.2986,-0.9856,1.8493,0.7726,0.6359,-0.2224,0.3764,
6.933694,-0.0404,-0.7200,-0.2986,-0.9856,1.8493,0.7726,0.8330,-0.1393,0.3594,
6.936415,-0.0404,-0.7200,-0.2986,-0.5359,1.7160,0.7444,0.8330,-0.1393,0.3594,
6.937446,-0.0443,-0.7310,-0.2735,-0.5359,1.7160,0.7444,0.8330,-0.1393,0.3594,
6.938602,-0.0555,-0.7581,-0.2933,-0.5359,1.7160,0.7444,0.8330,-0.1393,0.3594,
6.939985,-0.0492,-0.7986,-0.3407,-0.5359,1.7160,0.7444,0.8330,-0.1393,0.3594,
6.940998,-0.0228,-0.8319,-0.3734,-0.5359,1.7160,0.7444,0.8330,-0.1393,0.3594,
6.973222,-0.0228,-0.8319,-0.3734,-0.5359,1.7160,0.7444,0.9299,0.1377,0.3093,
6.976171,-0.0228,-0.8319,-0.3734,-0.4341,1.8157,0.3966,0.9299,0.1377,0.3093,
7.012896,-0.0228,-0.8319,-0.3734,-0.4341,1.8157,0.3966,0.9619,0.3071,0.3008,
7.015278,-0.0228,-0.8319,-0.3734,0.2130,1.2711,-0.5635,0.9619,0.3071,0.3008,
7.016994,0.0078,-0.8409,-0.3619,0.2130,1.2711,-0.5635,0.9619,0.3071,0.3008,
7.018324,0.0429,-0.8118,-0.3602,0.2130,1.2711,-0.5635,0.9619,0.3071,0.3008,
7.019931,0.0608,-0.7679,-0.3617,0.2130,1.2711,-0.5635,0.9619,0.3071,0.3008,
7.021618,0.0747,-0.7327,-0.3301,0.2130,1.2711,-0.5635,0.9619,0.3071,0.3008,
7.051855,0.0747,-0.7327,-0.3301,0.2130,1.2711,-0.5635,0.8841,0.2677,0.2145,
7.054090,0.0747,-0.7327,-0.3301,0.2585,1.3469,-0.8778,0.8841,0.2677,0.2145,
7.091769,0.0747,-0.7327,-0.3301,0.2585,1.3469,-0.8778,0.9342,0.2858,0.0515,
7.094002,0.0747,-0.7327,-0.3301,0.8329,2.2700,-0.7879,0.9342,0.2858,0.0515,
7.095103,0.0754,-0.7183,-0.2730,0.8329,2.2700,-0.7879,0.9342,0.2858,0.0515,
7.096248,0.0554,-0.7256,-0.2212,0.8329,2.2700,-0.7879,0.9342,0.2858,0.0515,
7.097189,0.0278,-0.7256,-0.2285,0.8329,2.2700,-0.7879,0.9342,0.2858,0.0515,
7.098244,-0.0081,-0.6973,-0.2981,0.8329,2.2700,-0.7879,0.9342,0.2858,0.0515,
7.131416,-0.0081,-0.6973,-0.2981,0.8329,2.2700,-0.7879,0.9726,0.3124,-0.0401,
7.133629,-0.0081,-0.6973,-0.2981,0.3412,2.5409,-0.4385,0.9726,0.3124,-0.0401,
7.170902,-0.0081,-0.6973,-0.2981,0.3412,2.5409,-0.4385,0.5997,0.1696,-0.0486,
7.172828,-0.0081,-0.6973,-0.2981,-0.0467,3.2375,-2.4840,0.5997,0.1696,-0.0486,
7.174141,-0.0313,-0.6594,-0.3837,-0.0467,3.2375,-2.4840,0.5997,0.1696,-0.0486,
7.175396,-0.0093,-0.6357,-0.4411,-0.0467,3.2375,-2.4840,0.5997,0.1696,-0.0486,
7.176802,0.0063,-0.6372,-0.4926,-0.0467,3.2375,-2.4840,0.5997,0.1696,-0.0486,
7.177764,0.0481,-0.6682,-0.5305,-0.0467,3.2375,-2.4840,0.5997,0.1696,-0.0486,
7.210373,0.0481,-0.6682,-0.5305,-0.0467,3.2375,-2.4840,0.2162,0.1750,-0.1797,
7.212327,0.0481,-0.6682,-0.5305,-0.1250,3.1987,-2.5230,0.2162,0.1750,-0.1797,
7.250170,0.0481,-0.6682,-0.5305,-0.1250,3.1987,-2.5230,-0.2014,0.5766,-0.5035,
7.252181,0.0481,-0.6682,-0.5305,0.9568,2.1775,-3.7112,-0.2014,0.5766,-0.5035,
7.253591,0.1585,-0.6860,-0.5388,0.9568,2.1775,-3.7112,-0.2014,0.5766,-0.5035,
7.254752,0.1658,-0.8741,-0.6534,0.9568,2.1775,-3.7112,-0.2014,0.5766,-0.5035,
7.256036,0.1455,-1.2985,-0.6570,0.9568,2.1775,-3.7112,-0.2014,0.5766,-0.5035,
7.257270,0.1744,-1.5416,-0.0898,0.9568,2.1775,-3.7112,-0.2014,0.5766,-0.5035,
7.289782,0.1744,-1.5416,-0.0898,0.9568,2.1775,-3.7112,-1.0173,0.2133,-0.6782,
7.291340,0.1744,-1.5416,-0.0898,0.6753,2.0473,-3.2794,-1.0173,0.2133,-0.6782,
7.330501,0.1744,-1.5416,-0.0898,0.6753,2.0473,-3.2794,-0.4964,-1.2354,-0.0284,
7.332921,0.1744,-1.5416,-0.0898,-0.0970,-4.8986,0.9530,-0.4964,-1.2354,-0.0284,
7.334300,-0.2185,-1.5250,0.2611,-0.0970,-4.8986,0.9530,-0.4964,-1.2354,-0.0284,
7.335450,-0.7129,-1.7075,0.4612,-0.0970,-4.8986,0.9530,-0.4964,-1.2354,-0.0284,
7.336807,-0.4728,-1.8646,-0.0443,-0.0970,-4.8986,0.9530,-0.4964,-1.2354,-0.0284,
7.337930,0.0075,-1.6158,-1.2595,-0.0970,-4.8986,0.9530,-0.4964,-1.2354,-0.0284,
7.369411,0.0075,-1.6158,-1.2595,-0.0970,-4.8986,0.9530,-0.8000,1.7835,0.1974,
7.371213,0.0075,-1.6158,-1.2595,-4.3221,-7.5397,0.0475,-0.8000,1.7835,0.1974,
7.409870,0.1387,-1.0625,-0.6258,-4.3221,-7.5397,0.0475,-0.8000,1.7835,0.1974,
7.412903,0.0828,-0.9289,1.0394,-4.3221,-7.5397,0.0475,-0.8000,1.7835,0.1974,
7.414253,0.1832,-1.1201,0.7751,-4.3221,-7.5397,0.0475,-0.8000,1.7835,0.1974,
7.419072,0.1832,-1.1201,0.7751,-4.3221,-7.5397,0.0475,-0.5636,0.6671,0.2571,
7.420467,0.1832,-1.1201,0.7751,0.8536,-0.8032,6.7656,-0.5636,0.6671,0.2571,
7.450253,0.1832,-1.1201,0.7751,0.8536,-0.8032,6.7656,1.4146,0.3678,0.1271,
7.453103,0.1832,-1.1201,0.7751,0.8628,-2.8644,-3.1663,1.4146,0.3678,0.1271,
7.488275,0.1832,-1.1201,0.7751,0.8628,-2.8644,-3.1663,0.6817,0.9430,0.0994,
7.491359,0.1832,-1.1201,0.7751,0.8038,-2.7546,-3.3866,0.6817,0.9430,0.0994,
7.493696,0.1685,-1.3046,-0.1303,0.8038,-2.7546,-3.3866,0.6817,0.9430,0.0994,
7.495245,0.0952,-1.2973,-0.8190,0.8038,-2.7546,-3.3866,0.6817,0.9430,0.0994,
7.497066,0.1458,-1.2010,-0.7548,0.8038,-2.7546,-3.3866,0.6817,0.9430,0.0994,
7.498345,0.1883,-1.0703,-0.0814,0.8038,-2.7546,-3.3866,0.6817,0.9430,0.0994,
7.499529,0.2059,-0.9494,-0.0270,0.8038,-2.7546,-3.3866,0.6817,0.9430,0.0994,
7.527414,0.2059,-0.9494,-0.0270,0.8038,-2.7546,-3.3866,0.9150,0.0898,0.1378,
7.529808,0.2059,-0.9494,-0.0270,0.8345,-2.6345,-3.6784,0.9150,0.0898,0.1378,
7.567625,0.2059,-0.9494,-0.0270,0.8345,-2.6345,-3.6784,1.0365,-0.2905,0.1548,
7.569775,0.2059,-0.9494,-0.0270,1.2902,0.3512,0.3685,1.0365,-0.2905,0.1548,
7.570689,0.1372,-0.8895,-0.2329,1.2902,0.3512,0.3685,1.0365,-0.2905,0.1548,
7.571580,0.0598,-0.8653,-0.3780,1.2902,0.3512,0.3685,1.0365,-0.2905,0.1548,
7.572685,-0.0010,-0.8543,-0.3529,1.2902,0.3512,0.3685,1.0365,-0.2905,0.1548,
7.573578,-0.0179,-0.8355,-0.3035,1.2902,0.3512,0.3685,1.0365,-0.2905,0.1548,
7.607063,-0.0179,-0.8355,-0.3035,1.2902,0.3512,0.3685,0.7254,-0.1393,0.2454,
7.609530,-0.0179,-0.8355,-0.3035,-0.2054,1.5241,-2.1409,0.7254,-0.1393,0.2454,
7.647137,0.0224,-0.8270,-0.3502,-0.2054,1.5241,-2.1409,0.7254,-0.1393,0.2454,
7.649383,0.0749,-0.7820,-0.3736,-0.2054,1.5241,-2.1409,0.7254,-0.1393,0.2454,
7.650514,0.1099,-0.7327,-0.3729,-0.2054,1.5241,-2.1409,0.7254,-0.1393,0.2454,
7.651689,0.1099,-0.7327,-0.3729,-0.2054,1.5241,-2.1409,0.2812,0.1462,0.2582,
7.652961,0.1099,-0.7327,-0.3729,0.4254,2.2005,-2.4151,0.2812,0.1462,0.2582,
7.687371,0.1099,-0.7327,-0.3729,0.4254,2.2005,-2.4151,-0.5177,0.0120,0.3104,
7.690161,0.1099,-0.7327,-0.3729,0.2660,2.0048,-3.7823,-0.5177,0.0120,0.3104,
7.726134,0.1099,-0.7327,-0.3729,0.2660,2.0048,-3.7823,-1.4584,0.1643,0.3934,
7.728791,0.1099,-0.7327,-0.3729,0.4001,1.8749,-3.1655,-1.4584,0.1643,0.3934,
7.730248,0.0957,-0.7376,-0.4770,0.4001,1.8749,-3.1655,-1.4584,0.1643,0.3934,
7.731748,-0.0103,-0.8157,-0.5850,0.4001,1.8749,-3.1655,-1.4584,0.1643,0.3934,
7.733265,0.0376,-0.8306,-0.5346,0.4001,1.8749,-3.1655,-1.4584,0.1643,0.3934,
7.734531,0.0828,-0.6948,-0.3326,0.4001,1.8749,-3.1655,-1.4584,0.1643,0.3934,
7.735688,-0.0826,-0.5282,-0.0795,0.4001,1.8749,-3.1655,-1.4584,0.1643,0.3934,
7.765348,-0.0826,-0.5282,-0.0795,0.5882,1.6903,-2.4985,-1.4584,0.1643,0.3934,
7.767486,-0.0826,-0.5282,-0.0795,0.5882,1.6903,-2.4985,-1.6490,-0.3577,0.4307,
7.806180,-0.0826,-0.5282,-0.0795,0.5882,1.6903,-2.4985,-1.2464,-0.3140,0.6598,
7.808780,-0.0826,-0.5282,-0.0795,-0.2072,3.6850,1.9804,-1.2464,-0.3140,0.6598,
7.810214,-0.2082,-0.4840,0.0559,-0.2072,3.6850,1.9804,-1.2464,-0.3140,0.6598,
7.811475,-0.1786,-0.5797,0.0322,-0.2072,3.6850,1.9804,-1.2464,-0.3140,0.6598,
7.812794,-0.0606,-0.7224,-0.1843,-0.2072,3.6850,1.9804,-1.2464,-0.3140,0.6598,
7.813913,0.0718,-0.7674,-0.4076,-0.2072,3.6850,1.9804,-1.2464,-0.3140,0.6598,
7.844937,0.0718,-0.7674,-0.4076,-0.2072,3.6850,1.9804,-1.3753,0.5255,0.4499,
7.847872,0.0718,-0.7674,-0.4076,0.0164,2.2676,1.7959,-1.3753,0.5255,0.4499,
7.884548,0.0718,-0.7674,-0.4076,0.0164,2.2676,1.7959,-1.6949,0.6543,0.0078,
7.887178,0.0718,-0.7674,-0.4076,1.1134,-2.4124,0.4361,-1.6949,0.6543,0.0078,
7.888666,0.0622,-0.8524,-0.4516,1.1134,-2.4124,0.4361,-1.6949,0.6543,0.0078,
7.889973,0.0188,-1.1807,-0.3072,1.1134,-2.4124,0.4361,-1.6949,0.6543,0.0078,
7.891000,0.1233,-1.4006,-0.4022,1.1134,-2.4124,0.4361,-1.6949,0.6543,0.0078,
7.891976,0.1502,-1.5467,-0.5381,1.1134,-2.4124,0.4361,-1.6949,0.6543,0.0078,
7.924558,0.1502,-1.5467,-0.5381,1.1134,-2.4124,0.4361,-1.5042,0.4253,-0.3884,
7.927333,0.1502,-1.5467,-0.5381,0.8897,-2.6306,0.9434,-1.5042,0.4253,-0.3884,
7.965032,0.1502,-1.5467,-0.5381,0.8897,-2.6306,0.9434,-0.8597,-0.1286,-0.7038,
7.971541,0.1502,-1.5467,-0.5381,1.0863,-7.9604,0.0407,-0.8597,-0.1286,-0.7038,
7.972261,0.1470,-1.7148,-0.4213,1.0863,-7.9604,0.0407,-0.8597,-0.1286,-0.7038,
7.973294,0.0376,-1.7952,-0.5664,1.0863,-7.9604,0.0407,-0.8597,-0.1286,-0.7038,
7.973855,-0.1655,-1.4756,-0.6236,1.0863,-7.9604,0.0407,-0.8597,-0.1286,-0.7038,
7.974517,-0.3025,-0.9858,-0.4154,1.0863,-7.9604,0.0407,-0.8597,-0.1286,-0.7038,
8.002941,-0.3025,-0.9858,-0.4154,1.0863,-7.9604,0.0407,-0.3494,-0.3385,-0.4758,
8.004491,-0.3025,-0.9858,-0.4154,0.9775,-7.8981,0.1570,-0.3494,-0.3385,-0.4758,
8.043436,-0.3025,-0.9858,-0.4154,0.9775,-7.8981,0.1570,0.0213,-0.3246,0.0249,
8.045734,-0.3025,-0.9858,-0.4154,-2.7808,-1.9071,0.7990,0.0213,-0.3246,0.0249,
8.047383,-0.3851,-0.7725,-0.2842,-2.7808,-1.9071,0.7990,0.0213,-0.3246,0.0249,
8.048627,-0.2319,-0.8575,-0.4521,-2.7808,-1.9071,0.7990,0.0213,-0.3246,0.0249,
8.050010,0.0214,-1.1131,-0.5647,-2.7808,-1.9071,0.7990,0.0213,-0.3246,0.0249,
8.051294,0.1087,-1.1710,-0.5730,-2.7808,-1.9071,0.7990,0.0213,-0.3246,0.0249,
8.082799,0.1087,-1.1710,-0.5730,-2.7808,-1.9071,0.7990,0.2812,-0.3087,-0.2638,
8.084798,0.1087,-1.1710,-0.5730,-0.3495,-1.5231,-0.1657,0.2812,-0.3087,-0.2638,
8.121036,-0.0123,-0.9985,-0.5324,-0.3495,-1.5231,-0.1657,0.2812,-0.3087,-0.2638,
8.122702,-0.1349,-0.8375,-0.4235,-0.3495,-1.5231,-0.1657,0.2812,-0.3087,-0.2638,
8.123641,-0.1865,-0.7498,-0.3397,-0.3495,-1.5231,-0.1657,0.2812,-0.3087,-0.2638,
8.124409,-0.1865,-0.7498,-0.3397,-0.3495,-1.5231,-0.1657,0.4410,-0.4791,-0.3224,
8.125029,-0.1865,-0.7498,-0.3397,-1.1063,0.3723,0.6315,0.4410,-0.4791,-0.3224,
8.161417,-0.1865,-0.7498,-0.3397,-1.1063,0.3723,0.6315,0.5742,-0.2831,0.0984,
8.163635,-0.1865,-0.7498,-0.3397,-2.0840,1.6190,1.2502,0.5742,-0.2831,0.0984,
8.201228,-0.1865,-0.7498,-0.3397,-2.0840,1.6190,1.2502,0.7180,0.0493,0.2773,
8.203235,-0.1865,-0.7498,-0.3397,-1.9607,1.7167,0.9788,0.7180,0.0493,0.2773,
8.204556,-0.2180,-0.7293,-0.3118,-1.9607,1.7167,0.9788,0.7180,0.0493,0.2773,
8.205666,-0.2480,-0.7476,-0.3179,-1.9607,1.7167,0.9788,0.7180,0.0493,0.2773,
8.207013,-0.2048,-0.7520,-0.4081,-1.9607,1.7167,0.9788,0.7180,0.0493,0.2773,
8.208092,-0.1093,-0.7659,-0.3687,-1.9607,1.7167,0.9788,0.7180,0.0493,0.2773,
8.209677,-0.0470,-0.7329,-0.3280,-1.9607,1.7167,0.9788,0.7180,0.0493,0.2773,
8.240859,-0.0470,-0.7329,-0.3280,-1.9607,1.7167,0.9788,0.8298,0.0823,0.2901,
8.242964,-0.0470,-0.7329,-0.3280,-1.8390,1.8215,0.6702,0.8298,0.0823,0.2901,
8.280404,-0.0470,-0.7329,-0.3280,-1.8390,1.8215,0.6702,1.0493,0.1856,0.2401,
8.282349,-0.0470,-0.7329,-0.3280,-0.1542,2.0439,0.3673,1.0493,0.1856,0.2401,
8.284100,-0.0176,-0.6995,-0.3160,-0.1542,2.0439,0.3673,1.0493,0.1856,0.2401,
8.285570,0.0104,-0.6990,-0.3040,-0.1542,2.0439,0.3673,1.0493,0.1856,0.2401,
8.287214,0.0405,-0.7085,-0.3135,-0.1542,2.0439,0.3673,1.0493,0.1856,0.2401,
8.288352,0.0461,-0.7214,-0.3184,-0.1542,2.0439,0.3673,1.0493,0.1856,0.2401,
8.319786,0.0461,-0.7214,-0.3184,-0.1542,2.0439,0.3673,1.2591,0.5340,0.1080,
8.321131,0.0461,-0.7214,-0.3184,0.6864,2.4002,0.1590,1.2591,0.5340,0.1080,
8.359986,0.0461,-0.7214,-0.3184,0.6864,2.4002,0.1590,1.2346,0.8599,0.0345,
8.362172,0.0461,-0.7214,-0.3184,0.0165,2.1395,-1.4641,1.2346,0.8599,0.0345,
8.363626,0.0112,-0.7241,-0.3690,0.0165,2.1395,-1.4641,1.2346,0.8599,0.0345,
8.364856,-0.0384,-0.7388,-0.4450,0.0165,2.1395,-1.4641,1.2346,0.8599,0.0345,
8.365870,-0.0536,-0.7793,-0.4887,0.0165,2.1395,-1.4641,1.2346,0.8599,0.0345,
8.366853,-0.0157,-0.8118,-0.5268,0.0165,2.1395,-1.4641,1.2346,0.8599,0.0345,
8.398933,-0.0157,-0.8118,-0.5268,0.0165,2.1395,-1.4641,1.0642,0.6032,0.1154,
8.401078,-0.0157,-0.8118,-0.5268,-0.0021,2.2102,-1.8281,1.0642,0.6032,0.1154,
8.438935,-0.0157,-0.8118,-0.5268,-0.0021,2.2102,-1.8281,0.6967,0.5372,-0.0444,
8.441033,-0.0157,-0.8118,-0.5268,0.5385,1.8963,-3.3584,0.6967,0.5372,-0.0444,
8.442325,0.0505,-0.7881,-0.5727,0.5385,1.8963,-3.3584,0.6967,0.5372,-0.0444,
8.444016,0.0727,-0.7481,-0.6096,0.5385,1.8963,-3.3584,0.6967,0.5372,-0.0444,
8.445279,0.0654,-0.7205,-0.5918,0.5385,1.8963,-3.3584,0.6967,0.5372,-0.0444,
8.447538,0.0363,-0.7654,-0.5732,0.5385,1.8963,-3.3584,0.6967,0.5372,-0.0444,
8.478762,0.0363,-0.7654,-0.5732,0.5385,1.8963,-3.3584,0.2556,0.7513,-0.1786,
8.480924,0.0363,-0.7654,-0.5732,0.3995,1.8872,-3.3942,0.2556,0.7513,-0.1786,
8.518639,0.0363,-0.7654,-0.5732,0.3995,1.8872,-3.3942,-0.0671,0.8024,-0.1818,
8.520784,0.0363,-0.7654,-0.5732,0.3570,2.0704,-3.3989,-0.0671,0.8024,-0.1818,
8.522147,0.0371,-0.7935,-0.5708,0.3570,2.0704,-3.3989,-0.0671,0.8024,-0.1818,
8.523356,0.0341,-0.7126,-0.5170,0.3570,2.0704,-3.3989,-0.0671,0.8024,-0.1818,
8.524493,0.0017,-0.5504,-0.4936,0.3570,2.0704,-3.3989,-0.0671,0.8024,-0.1818,
8.525780,-0.0668,-0.4925,-0.5864,0.3570,2.0704,-3.3989,-0.0671,0.8024,-0.1818,
8.560280,-0.0668,-0.4925,-0.5864,-0.3853,3.6957,-2.8191,-0.0671,0.8024,-0.1818,
8.562323,-0.0668,-0.4925,-0.5864,-0.3853,3.6957,-2.8191,-0.2248,0.7960,-0.3224,
8.599599,-0.0668,-0.4925,-0.5864,-0.3853,3.6957,-2.8191,-0.2557,0.9239,-0.3991,
8.601482,-0.2732,-0.9635,-0.5649,-0.3853,3.6957,-2.8191,-0.2557,0.9239,-0.3991,
8.602806,-0.1139,-1.8406,-0.0968,-0.3853,3.6957,-2.8191,-0.2557,0.9239,-0.3991,
8.604168,0.1187,-2.1887,0.3099,-0.3853,3.6957,-2.8191,-0.2557,0.9239,-0.3991,
8.605518,-0.3560,-2.0417,0.3261,-0.3853,3.6957,-2.8191,-0.2557,0.9239,-0.3991,
8.607531,-0.3560,-2.0417,0.3261,-1.3758,-6.7954,1.3071,-0.2557,0.9239,-0.3991,
8.637380,-0.3560,-2.0417,0.3261,-1.3758,-6.7954,1.3071,-0.1662,0.9516,-0.2766,
8.639453,-0.3560,-2.0417,0.3261,-1.5473,-6.7046,1.3246,-0.1662,0.9516,-0.2766,
8.677578,-0.3560,-2.0417,0.3261,-1.5473,-6.7046,1.3246,-0.6094,1.4213,0.4361,
8.680074,-0.3560,-2.0417,0.3261,-4.7136,-8.7236,2.5150,-0.6094,1.4213,0.4361,
8.681383,-0.6379,-2.1968,0.0720,-4.7136,-8.7236,2.5150,-0.6094,1.4213,0.4361,
8.682658,-0.2747,-1.4023,-0.4315,-4.7136,-8.7236,2.5150,-0.6094,1.4213,0.4361,
8.683799,0.0862,-0.4708,0.3026,-4.7136,-8.7236,2.5150,-0.6094,1.4213,0.4361,
8.684884,0.2203,-0.4420,1.0138,-4.7136,-8.7236,2.5150,-0.6094,1.4213,0.4361,
8.715693,0.2203,-0.4420,1.0138,-4.7136,-8.7236,2.5150,0.4218,0.8951,0.2965,
8.717238,0.2203,-0.4420,1.0138,-4.6125,-8.5301,2.2935,0.4218,0.8951,0.2965,
8.756846,0.2203,-0.4420,1.0138,0.3515,2.9670,7.8619,0.4218,0.8951,0.2965,
8.759286,0.2203,-0.4420,1.0138,0.3515,2.9670,7.8619,2.4799,1.3755,0.0185,
8.761116,-0.0235,-1.2504,0.7050,0.3515,2.9670,7.8619,2.4799,1.3755,0.0185,
8.762807,-0.0755,-1.9921,0.1568,0.3515,2.9670,7.8619,2.4799,1.3755,0.0185,
8.764439,0.0803,-1.7527,-0.2818,0.3515,2.9670,7.8619,2.4799,1.3755,0.0185,
8.766116,0.1905,-1.1052,-0.6018,0.3515,2.9670,7.8619,2.4799,1.3755,0.0185,
8.795239,0.1905,-1.1052,-0.6018,0.3515,2.9670,7.8619,1.4924,2.1969,-0.0177,
8.797888,0.1905,-1.1052,-0.6018,-0.0187,-5.6591,-1.7349,1.4924,2.1969,-0.0177,
8.835694,0.1905,-1.1052,-0.6018,-0.0187,-5.6591,-1.7349,0.5401,1.6259,0.3082,
8.837906,0.1905,-1.1052,-0.6018,-0.5685,1.3860,-2.1573,0.5401,1.6259,0.3082,
8.839482,0.1209,-0.8834,-0.4875,-0.5685,1.3860,-2.1573,0.5401,1.6259,0.3082,
8.840780,-0.0594,-0.9257,-0.2319,-0.5685,1.3860,-2.1573,0.5401,1.6259,0.3082,
8.841934,-0.0660,-0.8827,-0.0687,-0.5685,1.3860,-2.1573,0.5401,1.6259,0.3082,
8.843333,0.0674,-0.8077,0.0297,-0.5685,1.3860,-2.1573,0.5401,1.6259,0.3082,
8.874910,0.0674,-0.8077,0.0297,-0.3511,1.3805,-2.5189,0.5401,1.6259,0.3082,
8.876973,0.0674,-0.8077,0.0297,-0.3511,1.3805,-2.5189,0.9576,0.9398,0.5468,
8.914877,0.0674,-0.8077,0.0297,-0.3511,1.3805,-2.5189,1.2698,0.7129,0.3924,
8.916822,0.0674,-0.8077,0.0297,1.6830,2.5276,-0.3857,1.2698,0.7129,0.3924,
8.918270,0.2135,-0.7605,0.0187,1.6830,2.5276,-0.3857,1.2698,0.7129,0.3924,
8.919767,0.2960,-0.7574,-0.0267,1.6830,2.5276,-0.3857,1.2698,0.7129,0.3924,
8.921055,0.2953,-0.8265,-0.1266,1.6830,2.5276,-0.3857,1.2698,0.7129,0.3924,
8.922365,0.1524,-0.8663,-0.2999,1.6830,2.5276,-0.3857,1.2698,0.7129,0.3924,
8.954367,0.1524,-0.8663,-0.2999,1.6830,2.5276,-0.3857,0.9854,0.5947,0.2262,
8.956965,0.1524,-0.8663,-0.2999,1.7594,2.4616,-0.7708,0.9854,0.5947,0.2262,
8.993580,0.1524,-0.8663,-0.2999,1.7594,2.4616,-0.7708,0.5465,0.9473,0.4702,
8.996312,0.1524,-0.8663,-0.2999,1.2138,1.6488,-3.2867,0.5465,0.9473,0.4702,
8.998197,-0.1000,-0.8668,-0.2722,1.2138,1.6488,-3.2867,0.5465,0.9473,0.4702,
8.999668,-0.1349,-0.9025,-0.1359,1.2138,1.6488,-3.2867,0.5465,0.9473,0.4702,
9.000717,0.0012,-1.0109,-0.1469,1.2138,1.6488,-3.2867,0.5465,0.9473,0.4702,
9.001993,0.1612,-1.0879,-0.2539,1.2138,1.6488,-3.2867,0.5465,0.9473,0.4702,
9.032562,0.1612,-1.0879,-0.2539,1.2138,1.6488,-3.2867,0.3952,1.2051,0.5532,
9.034528,0.1612,-1.0879,-0.2539,0.4314,0.1813,-2.8556,0.3952,1.2051,0.5532,
9.072930,0.1612,-1.0879,-0.2539,0.4314,0.1813,-2.8556,-0.4751,0.8173,0.0600,
9.075033,0.1612,-1.0879,-0.2539,3.4542,-2.6072,-3.6952,-0.4751,0.8173,0.0600,
9.076541,0.2731,-1.1429,-0.3609,3.4542,-2.6072,-3.6952,-0.4751,0.8173,0.0600,
9.077782,0.3261,-1.2750,-0.3460,3.4542,-2.6072,-3.6952,-0.4751,0.8173,0.0600,
9.079010,0.3539,-1.4561,-0.1674,3.4542,-2.6072,-3.6952,-0.4751,0.8173,0.0600,
9.080492,0.2474,-1.3532,-0.1020,3.4542,-2.6072,-3.6952,-0.4751,0.8173,0.0600,
9.112021,0.2474,-1.3532,-0.1020,3.4542,-2.6072,-3.6952,-1.3849,0.4072,-0.7038,
9.114420,0.2474,-1.3532,-0.1020,3.1306,-2.5279,-3.0864,-1.3849,0.4072,-0.7038,
9.152677,0.2474,-1.3532,-0.1020,3.1306,-2.5279,-3.0864,-2.2786,0.7193,-0.5791,
9.154043,0.2474,-1.3532,-0.1020,-0.8520,-2.0067,-0.9414,-2.2786,0.7193,-0.5791,
9.154849,-0.0448,-1.2355,-0.2141,-0.8520,-2.0067,-0.9414,-2.2786,0.7193,-0.5791,
9.155525,-0.4000,-1.1292,-0.1855,-0.8520,-2.0067,-0.9414,-2.2786,0.7193,-0.5791,
9.156438,-0.5590,-1.1043,-0.0441,-0.8520,-2.0067,-0.9414,-2.2786,0.7193,-0.5791,
9.157166,-0.6311,-1.3276,0.1318,-0.8520,-2.0067,-0.9414,-2.2786,0.7193,-0.5791,
9.190780,-0.6311,-1.3276,0.1318,-0.8520,-2.0067,-0.9414,-2.4384,0.8354,-0.0465,
9.191990,-0.6311,-1.3276,0.1318,-0.8950,-2.0859,0.0250,-2.4384,0.8354,-0.0465,
9.230705,-0.6311,-1.3276,0.1318,-0.8950,-2.0859,0.0250,-1.9846,1.5598,0.2454,
9.231881,-0.6311,-1.3276,0.1318,-6.0138,-2.8342,3.3022,-1.9846,1.5598,0.2454,
9.232590,-0.5954,-1.4812,0.1956,-6.0138,-2.8342,3.3022,-1.9846,1.5598,0.2454,
9.233102,-0.4547,-1.2821,0.0622,-6.0138,-2.8342,3.3022,-1.9846,1.5598,0.2454,
9.233608,-0.3760,-1.0652,-0.0602,-6.0138,-2.8342,3.3022,-1.9846,1.5598,0.2454,
9.234243,-0.3267,-0.9638,-0.0978,-6.0138,-2.8342,3.3022,-1.9846,1.5598,0.2454,
9.270478,-0.3267,-0.9638,-0.0978,-6.0138,-2.8342,3.3022,-2.0219,1.3468,0.4968,
9.272033,-0.3267,-0.9638,-0.0978,-3.8502,-1.0681,2.7959,-2.0219,1.3468,0.4968,
9.309337,-0.1620,-0.8905,-0.0485,-3.8502,-1.0681,2.7959,-2.0219,1.3468,0.4968,
9.311647,0.1038,-0.8328,0.0510,-3.8502,-1.0681,2.7959,-2.0219,1.3468,0.4968,
9.313317,0.2279,-0.8529,0.0996,-3.8502,-1.0681,2.7959,-2.0219,1.3468,0.4968,
9.314670,0.2279,-0.8529,0.0996,-3.8502,-1.0681,2.7959,-1.5468,-0.0359,0.4947,
9.316166,0.2279,-0.8529,0.0996,0.6701,1.1047,3.9657,-1.5468,-0.0359,0.4947,
9.349546,0.2279,-0.8529,0.0996,0.6701,1.1047,3.9657,-0.9002,0.1526,-0.0028,
9.351186,0.2279,-0.8529,0.0996,0.1699,0.4451,1.9091,-0.9002,0.1526,-0.0028,
9.389006,0.2279,-0.8529,0.0996,0.1699,0.4451,1.9091,-0.8075,0.1217,-0.2404,
9.390800,0.2279,-0.8529,0.0996,0.0605,0.3093,2.1707,-0.8075,0.1217,-0.2404,
9.391634,0.1553,-0.9169,-0.0836,0.0605,0.3093,2.1707,-0.8075,0.1217,-0.2404,
9.392231,0.0190,-0.9391,-0.2918,0.0605,0.3093,2.1707,-0.8075,0.1217,-0.2404,
9.392828,-0.1496,-0.8783,-0.2456,0.0605,0.3093,2.1707,-0.8075,0.1217,-0.2404,
9.393255,-0.2471,-0.7808,-0.1198,0.0605,0.3093,2.1707,-0.8075,0.1217,-0.2404,
9.393730,-0.2334,-0.6907,-0.0607,0.0605,0.3093,2.1707,-0.8075,0.1217,-0.2404,
9.429987,-0.2334,-0.6907,-0.0607,0.0605,0.3093,2.1707,-0.2110,-0.1158,0.0387,
9.431840,-0.2334,-0.6907,-0.0607,0.0926,0.2694,2.2103,-0.2110,-0.1158,0.0387,
9.468849,-0.2334,-0.6907,-0.0607,0.0926,0.2694,2.2103,0.5923,0.4285,0.3125,
9.472418,-0.2334,-0.6907,-0.0607,-2.0643,2.4135,3.2988,0.5923,0.4285,0.3125,
9.474008,-0.1794,-0.6235,-0.0240,-2.0643,2.4135,3.2988,0.5923,0.4285,0.3125,
9.475339,-0.1486,-0.5907,-0.0206,-2.0643,2.4135,3.2988,0.5923,0.4285,0.3125,
9.476577,-0.0897,-0.6122,-0.1061,-2.0643,2.4135,3.2988,0.5923,0.4285,0.3125,
9.477830,0.0063,-0.6929,-0.2547,-2.0643,2.4135,3.2988,0.5923,0.4285,0.3125,
9.508814,0.0063,-0.6929,-0.2547,-2.0643,2.4135,3.2988,1.1025,0.8461,0.2646,
9.510900,0.0063,-0.6929,-0.2547,-0.6836,3.1738,2.2769,1.1025,0.8461,0.2646,
9.533862,0.0840,-0.8038,-0.3966,-0.6836,3.1738,2.2769,1.1025,0.8461,0.2646,
9.535521,0.1375,-0.9328,-0.5774,-0.6836,3.1738,2.2769,1.1025,0.8461,0.2646,
9.536782,0.1634,-1.0349,-0.7760,-0.6836,3.1738,2.2769,1.1025,0.8461,0.2646,
9.548851,0.1634,-1.0349,-0.7760,1.1428,0.4450,-2.5458,1.1025,0.8461,0.2646,
9.550896,0.1634,-1.0349,-0.7760,1.1428,0.4450,-2.5458,1.0567,0.9356,-0.1232,
9.587717,0.1634,-1.0349,-0.7760,1.1428,0.4450,-2.5458,0.5539,0.7577,-0.4396,
9.589888,0.1634,-1.0349,-0.7760,1.0947,-0.6291,-4.0609,0.5539,0.7577,-0.4396,
9.622077,0.2103,-1.0706,-0.8354,1.0947,-0.6291,-4.0609,0.5539,0.7577,-0.4396,
9.624001,0.1844,-1.0561,-0.7081,1.0947,-0.6291,-4.0609,0.5539,0.7577,-0.4396,
9.625162,0.0600,-0.9960,-0.6253,1.0947,-0.6291,-4.0609,0.5539,0.7577,-0.4396,
9.626108,-0.0580,-0.9357,-0.6673,1.0947,-0.6291,-4.0609,0.5539,0.7577,-0.4396,
9.627780,-0.0580,-0.9357,-0.6673,1.0947,-0.6291,-4.0609,0.1928,0.3262,-0.4651,
9.629113,-0.0580,-0.9357,-0.6673,0.8648,-0.6053,-4.0713,0.1928,0.3262,-0.4651,
9.667607,-0.0580,-0.9357,-0.6673,0.8648,-0.6053,-4.0713,-0.2131,0.1004,-0.2159,
9.670405,-0.0580,-0.9357,-0.6673,-1.9103,0.2119,-3.0860,-0.2131,0.1004,-0.2159,
9.707205,-0.0580,-0.9357,-0.6673,-1.9103,0.2119,-3.0860,-0.3026,0.5968,0.0046,
9.709604,-0.0580,-0.9357,-0.6673,-1.9511,0.1709,-2.9390,-0.3026,0.5968,0.0046,
9.711136,-0.1325,-0.9479,-0.7096,-1.9511,0.1709,-2.9390,-0.3026,0.5968,0.0046,
9.712727,-0.1855,-0.9782,-0.5302,-1.9511,0.1709,-2.9390,-0.3026,0.5968,0.0046,
9.714056,-0.2302,-1.1348,-0.5092,-1.9511,0.1709,-2.9390,-0.3026,0.5968,0.0046,
9.715640,-0.5744,-1.5948,-0.1110,-1.9511,0.1709,-2.9390,-0.3026,0.5968,0.0046,
9.717373,-0.5881,-1.5335,-0.1240,-1.9511,0.1709,-2.9390,-0.3026,0.5968,0.0046,
9.746959,-0.5881,-1.5335,-0.1240,-1.9511,0.1709,-2.9390,0.0096,1.5822,0.3466,
9.749029,-0.5881,-1.5335,-0.1240,-5.2581,-4.3218,0.7947,0.0096,1.5822,0.3466,
9.786605,0.0385,-0.8893,-0.2591,-5.2581,-4.3218,0.7947,0.0096,1.5822,0.3466,
9.788474,0.1480,-0.6188,0.2296,-5.2581,-4.3218,0.7947,0.0096,1.5822,0.3466,
9.789502,-0.0861,-0.7073,0.2154,-5.2581,-4.3218,0.7947,0.0096,1.5822,0.3466,
9.790742,-0.0861,-0.7073,0.2154,-5.2581,-4.3218,0.7947,0.4133,2.2874,0.3679,
9.792012,-0.0861,-0.7073,0.2154,-0.5141,2.3893,3.5446,0.4133,2.2874,0.3679,
9.825729,-0.0861,-0.7073,0.2154,-0.5141,2.3893,3.5446,0.8224,1.5385,0.4936,
9.827865,-0.0861,-0.7073,0.2154,-1.3312,-0.4372,2.3734,0.8224,1.5385,0.4936,
9.865398,-0.0861,-0.7073,0.2154,-1.3312,-0.4372,2.3734,0.6359,1.1113,0.4872,
9.867508,-0.0861,-0.7073,0.2154,-1.2269,-0.3562,2.0583,0.6359,1.1113,0.4872,
9.868681,-0.1559,-0.9462,-0.0209,-1.2269,-0.3562,2.0583,0.6359,1.1113,0.4872,
9.870077,-0.0658,-1.0952,-0.0287,-1.2269,-0.3562,2.0583,0.6359,1.1113,0.4872,
9.871227,0.0591,-1.0740,0.0016,-1.2269,-0.3562,2.0583,0.6359,1.1113,0.4872,
9.872352,0.1079,-0.9912,0.0749,-1.2269,-0.3562,2.0583,0.6359,1.1113,0.4872,
9.873597,0.1052,-0.9872,0.0930,-1.2269,-0.3562,2.0583,0.6359,1.1113,0.4872,
9.904308,0.1052,-0.9872,0.0930,-1.2269,-0.3562,2.0583,0.6402,1.6227,0.0824,
9.906147,0.1052,-0.9872,0.0930,-1.3051,-0.2965,1.7320,0.6402,1.6227,0.0824,
9.945028,0.1052,-0.9872,0.0930,-1.3051,-0.2965,1.7320,0.8000,1.7771,0.0014,
9.947451,0.1052,-0.9872,0.0930,-0.3549,0.1461,1.9442,0.8000,1.7771,0.0014,
9.948826,-0.0501,-1.0173,-0.0267,-0.3549,0.1461,1.9442,0.8000,1.7771,0.0014,
9.950015,-0.1100,-1.0180,-0.0727,-0.3549,0.1461,1.9442,0.8000,1.7771,0.0014,
9.950808,-0.0218,-1.0041,-0.0788,-0.3549,0.1461,1.9442,0.8000,1.7771,0.0014,
9.951542,0.0823,-0.9985,-0.0575,-0.3549,0.1461,1.9442,0.8000,1.7771,0.0014,
9.983195,0.0823,-0.9985,-0.0575,-0.3549,0.1461,1.9442,0.6956,1.7942,0.0994,
9.984430,0.0823,-0.9985,-0.0575,-1.0847,0.1028,0.4530,0.6956,1.7942,0.0994,
10.024289,0.0823,-0.9985,-0.0575,-1.0847,0.1028,0.4530,0.6295,1.7473,0.0632,
10.026451,0.0823,-0.9985,-0.0575,-0.0287,0.3079,0.6229,0.6295,1.7473,0.0632,
10.027563,0.1038,-0.9914,-0.0108,-0.0287,0.3079,0.6229,0.6295,1.7473,0.0632,
10.028561,0.0840,-0.9863,-0.0067,-0.0287,0.3079,0.6229,0.6295,1.7473,0.0632,
10.029739,0.0989,-0.9868,-0.0399,-0.0287,0.3079,0.6229,0.6295,1.7473,0.0632,
10.030991,0.1355,-0.9579,-0.0316,-0.0287,0.3079,0.6229,0.6295,1.7473,0.0632,
10.063461,0.1355,-0.9579,-0.0316,-0.0287,0.3079,0.6229,0.6530,1.6280,0.0632,
10.064993,0.1355,-0.9579,-0.0316,-0.0449,0.3217,0.2960,0.6530,1.6280,0.0632,
10.102968,0.1355,-0.9579,-0.0316,-0.0449,0.3217,0.2960,0.6785,1.5396,0.0483,
10.104425,0.1355,-0.9579,-0.0316,0.6012,0.4326,-0.0725,0.6785,1.5396,0.0483,
10.105184,0.1719,-0.9682,0.0011,0.6012,0.4326,-0.0725,0.6785,1.5396,0.0483,
10.106022,0.1802,-1.0053,-0.0394,0.6012,0.4326,-0.0725,0.6785,1.5396,0.0483,
10.107128,0.1458,-1.0117,-0.1281,0.6012,0.4326,-0.0725,0.6785,1.5396,0.0483,
10.109066,0.0767,-0.9814,-0.1877,0.6012,0.4326,-0.0725,0.6785,1.5396,0.0483,
10.142641,0.0767,-0.9814,-0.1877,0.6083,0.4279,-0.3064,0.6785,1.5396,0.0483,
10.144477,0.0767,-0.9814,-0.1877,0.6083,0.4279,-0.3064,0.4538,1.5108,0.0483,
10.182402,0.0767,-0.9814,-0.1877,0.6083,0.4279,-0.3064,0.3174,1.1390,0.2188,
10.183646,0.0767,-0.9814,-0.1877,-0.1348,0.3436,-1.7015,0.3174,1.1390,0.2188,
10.185614,0.0082,-0.9643,-0.1384,-0.1348,0.3436,-1.7015,0.3174,1.1390,0.2188,
10.186816,0.0229,-0.9579,-0.0612,-0.1348,0.3436,-1.7015,0.3174,1.1390,0.2188,
10.187603,0.0808,-0.9767,0.0346,-0.1348,0.3436,-1.7015,0.3174,1.1390,0.2188,
10.190287,0.1182,-0.9982,0.0544,-0.1348,0.3436,-1.7015,0.3174,1.1390,0.2188,
10.222407,0.1182,-0.9982,0.0544,-0.1348,0.3436,-1.7015,0.5699,0.9377,0.2667,
10.224794,0.1182,-0.9982,0.0544,-0.0446,0.4172,-0.3774,0.5699,0.9377,0.2667,
10.261277,0.1182,-0.9982,0.0544,-0.0446,0.4172,-0.3774,0.6274,0.9771,0.2603,
10.262941,0.1182,-0.9982,0.0544,0.6645,0.3720,-1.4562,0.6274,0.9771,0.2603,
10.264382,0.1294,-0.9821,-0.0199,0.6645,0.3720,-1.4562,0.6274,0.9771,0.2603,
10.265253,0.1375,-0.9577,-0.0832,0.6645,0.3720,-1.4562,0.6274,0.9771,0.2603,
10.266172,0.1368,-1.0026,-0.1225,0.6645,0.3720,-1.4562,0.6274,0.9771,0.2603,
10.267158,0.1470,-1.0290,-0.1081,0.6645,0.3720,-1.4562,0.6274,0.9771,0.2603,
10.301022,0.1470,-1.0290,-0.1081,0.6645,0.3720,-1.4562,0.3654,1.0964,0.1868,
10.303746,0.1470,-1.0290,-0.1081,0.7608,0.3587,-1.5995,0.3654,1.0964,0.1868,
10.340392,0.0525,-0.9946,-0.0653,0.7608,0.3587,-1.5995,0.3654,1.0964,0.1868,
10.341618,-0.0448,-0.9890,-0.0805,0.7608,0.3587,-1.5995,0.3654,1.0964,0.1868,
10.342112,-0.0340,-1.0268,-0.0741,0.7608,0.3587,-1.5995,0.3654,1.0964,0.1868,
10.342695,-0.0340,-1.0268,-0.0741,0.7608,0.3587,-1.5995,0.3228,1.1902,0.1879,
10.343186,-0.0340,-1.0268,-0.0741,0.0651,0.1194,-1.8124,0.3228,1.1902,0.1879,
10.380328,-0.0340,-1.0268,-0.0741,0.0651,0.1194,-1.8124,0.4666,1.1582,0.4084,
10.381413,-0.0340,-1.0268,-0.0741,0.1252,-0.4848,-1.7558,0.4666,1.1582,0.4084,
10.420298,-0.0340,-1.0268,-0.0741,0.1252,-0.4848,-1.7558,0.3750,1.0602,0.3604,
10.421661,-0.0340,-1.0268,-0.0741,0.3137,-0.4928,-1.8774,0.3750,1.0602,0.3604,
10.423419,0.0427,-1.0666,-0.0301,0.3137,-0.4928,-1.8774,0.3750,1.0602,0.3604,
10.424154,0.1006,-1.1021,-0.0802,0.3137,-0.4928,-1.8774,0.3750,1.0602,0.3604,
10.424881,0.1006,-1.1636,-0.1257,0.3137,-0.4928,-1.8774,0.3750,1.0602,0.3604,
10.425547,0.1162,-1.2626,-0.0917,0.3137,-0.4928,-1.8774,0.3750,1.0602,0.3604,
10.426520,0.1834,-1.2912,-0.0873,0.3137,-0.4928,-1.8774,0.3750,1.0602,0.3604,
10.460391,0.1834,-1.2912,-0.0873,0.3137,-0.4928,-1.8774,-0.1928,0.7449,0.0132,
10.462268,0.1834,-1.2912,-0.0873,1.2847,-2.1515,-2.1577,-0.1928,0.7449,0.0132,
10.491053,0.1546,-1.2147,-0.1755,1.2847,-2.1515,-2.1577,-0.1928,0.7449,0.0132,
10.493461,0.0014,-1.0994,-0.3521,1.2847,-2.1515,-2.1577,-0.1928,0.7449,0.0132,
10.494602,-0.1227,-1.0390,-0.3839,1.2847,-2.1515,-2.1577,-0.1928,0.7449,0.0132,
10.500781,-0.1227,-1.0390,-0.3839,0.0854,-0.8988,-3.5488,-0.1928,0.7449,0.0132,
10.502868,-0.1227,-1.0390,-0.3839,0.0854,-0.8988,-3.5488,-1.3391,0.7491,-0.0678,
10.540360,-0.1227,-1.0390,-0.3839,0.0854,-0.8988,-3.5488,-2.4576,0.7630,0.0994,
10.542881,-0.1227,-1.0390,-0.3839,-2.5339,-0.4201,0.9073,-2.4576,0.7630,0.0994,
10.579272,-0.1227,-1.0390,-0.3839,-2.5339,-0.4201,0.9073,-2.2648,0.9963,-0.0390,
10.581686,-0.1977,-1.0224,-0.1894,-2.5339,-0.4201,0.9073,-2.2648,0.9963,-0.0390,
10.582923,-0.2480,-1.0579,0.0769,-2.5339,-0.4201,0.9073,-2.2648,0.9963,-0.0390,
10.584172,-0.3492,-1.1309,0.2699,-2.5339,-0.4201,0.9073,-2.2648,0.9963,-0.0390,
10.585296,-0.4552,-1.1238,0.2457,-2.5339,-0.4201,0.9073,-2.2648,0.9963,-0.0390,
10.587020,-0.4933,-1.0957,0.1267,-2.5339,-0.4201,0.9073,-2.2648,0.9963,-0.0390,
10.588284,-0.4933,-1.0957,0.1267,-2.5407,-0.4877,1.7801,-2.2648,0.9963,-0.0390,
10.619454,-0.4933,-1.0957,0.1267,-2.5407,-0.4877,1.7801,-1.8973,1.2456,0.1399,
10.621940,-0.4933,-1.0957,0.1267,-2.5251,-0.6011,2.4874,-1.8973,1.2456,0.1399,
10.659709,-0.3988,-1.0684,0.0344,-2.5251,-0.6011,2.4874,-1.8973,1.2456,0.1399,
10.662166,-0.2343,-1.0532,0.0124,-2.5251,-0.6011,2.4874,-1.8973,1.2456,0.1399,
10.663744,-0.0335,-1.0288,-0.0138,-2.5251,-0.6011,2.4874,-1.8973,1.2456,0.1399,
10.664868,-0.0335,-1.0288,-0.0138,-2.5251,-0.6011,2.4874,-1.7524,1.0155,0.5543,
10.666236,-0.0335,-1.0288,-0.0138,-4.1370,-0.9985,3.9221,-1.7524,1.0155,0.5543,
10.698744,-0.0335,-1.0288,-0.0138,-4.1370,-0.9985,3.9221,-1.2837,0.8621,0.3093,
10.701521,-0.0335,-1.0288,-0.0138,-0.1509,-0.4942,2.7849,-1.2837,0.8621,0.3093,
10.738426,-0.0335,-1.0288,-0.0138,-0.1509,-0.4942,2.7849,-1.0184,0.3017,-0.2020,
10.741017,-0.0335,-1.0288,-0.0138,-0.2608,-0.6130,3.1202,-1.0184,0.3017,-0.2020,
10.742353,0.1336,-1.0087,-0.0790,-0.2608,-0.6130,3.1202,-1.0184,0.3017,-0.2020,
10.743436,0.1947,-1.0212,-0.1520,-0.2608,-0.6130,3.1202,-1.0184,0.3017,-0.2020,
10.744589,0.1155,-0.9965,-0.2300,-0.2608,-0.6130,3.1202,-1.0184,0.3017,-0.2020,
10.746043,0.0021,-0.9174,-0.1704,-0.2608,-0.6130,3.1202,-1.0184,0.3017,-0.2020,
10.747184,-0.1193,-0.8089,-0.0406,-0.2608,-0.6130,3.1202,-1.0184,0.3017,-0.2020,
10.777970,-0.1193,-0.8089,-0.0406,-0.2608,-0.6130,3.1202,-0.6051,-0.1063,-0.2383,
10.780787,-0.1193,-0.8089,-0.0406,1.1053,-0.1841,1.7742,-0.6051,-0.1063,-0.2383,
10.817906,-0.1193,-0.8089,-0.0406,1.1053,-0.1841,1.7742,0.1853,-0.0935,-0.0390,
10.820391,-0.1193,-0.8089,-0.0406,-1.3605,2.2877,3.0796,0.1853,-0.0935,-0.0390,
10.821703,-0.1811,-0.7080,-0.0233,-1.3605,2.2877,3.0796,0.1853,-0.0935,-0.0390,
10.822879,-0.1488,-0.6577,-0.0516,-1.3605,2.2877,3.0796,0.1853,-0.0935,-0.0390,
10.824042,-0.0929,-0.6394,-0.0810,-1.3605,2.2877,3.0796,0.1853,-0.0935,-0.0390,
10.825172,-0.0577,-0.6738,-0.1340,-1.3605,2.2877,3.0796,0.1853,-0.0935,-0.0390,
10.856968,-0.0577,-0.6738,-0.1340,-1.3605,2.2877,3.0796,0.8192,0.2975,0.1165,
10.858643,-0.0577,-0.6738,-0.1340,-1.3331,2.3545,2.7281,0.8192,0.2975,0.1165,
10.896678,-0.0577,-0.6738,-0.1340,-1.3331,2.3545,2.7281,0.9917,0.3273,0.0909,
10.899052,-0.0577,-0.6738,-0.1340,-0.4285,2.9385,1.2539,0.9917,0.3273,0.0909,
10.901622,-0.0228,-0.7024,-0.2314,-0.4285,2.9385,1.2539,0.9917,0.3273,0.0909,
10.902790,0.0178,-0.7530,-0.3433,-0.4285,2.9385,1.2539,0.9917,0.3273,0.0909,
10.903760,0.0942,-0.8717,-0.4877,-0.4285,2.9385,1.2539,0.9917,0.3273,0.0909,
10.904864,0.1983,-1.0574,-0.6284,-0.4285,2.9385,1.2539,0.9917,0.3273,0.0909,
10.935991,0.1983,-1.0574,-0.6284,-0.4285,2.9385,1.2539,0.7041,0.0695,-0.2947,
10.939628,0.1983,-1.0574,-0.6284,1.0154,0.8204,-2.2835,0.7041,0.0695,-0.2947,
10.976384,0.1983,-1.0574,-0.6284,1.0154,0.8204,-2.2835,0.1417,0.8376,-0.6324,
10.978956,0.1983,-1.0574,-0.6284,2.3245,-0.3843,-4.4266,0.1417,0.8376,-0.6324,
10.980426,0.3422,-1.1404,-0.7301,2.3245,-0.3843,-4.4266,0.1417,0.8376,-0.6324,
10.981683,0.3522,-1.0393,-0.7560,2.3245,-0.3843,-4.4266,0.1417,0.8376,-0.6324,
10.983099,0.1270,-0.8761,-0.6343,2.3245,-0.3843,-4.4266,0.1417,0.8376,-0.6324,
10.984110,-0.0567,-0.9530,-0.5439,2.3245,-0.3843,-4.4266,0.1417,0.8376,-0.6324,
11.015696,-0.0567,-0.9530,-0.5439,2.3245,-0.3843,-4.4266,-0.3356,0.7012,-0.3991,
11.018080,-0.0567,-0.9530,-0.5439,2.0672,-0.4186,-4.2405,-0.3356,0.7012,-0.3991,
11.055258,-0.2798,-1.3505,-0.2449,2.0672,-0.4186,-4.2405,-0.3356,0.7012,-0.3991,
11.058671,-0.2378,-1.4739,0.0891,2.0672,-0.4186,-4.2405,-0.3356,0.7012,-0.3991,
11.060270,-0.2695,-1.0232,0.0065,2.0672,-0.4186,-4.2405,-0.3356,0.7012,-0.3991,
11.061418,-0.2695,-1.0232,0.0065,2.0672,-0.4186,-4.2405,0.0298,0.6639,-0.1157,
11.062783,-0.2695,-1.0232,0.0065,-2.5631,-2.7297,0.3648,0.0298,0.6639,-0.1157,
11.096059,-0.2695,-1.0232,0.0065,-2.5631,-2.7297,0.3648,0.4101,0.5382,0.3988,
11.098319,-0.2695,-1.0232,0.0065,-4.6911,0.9673,2.0288,0.4101,0.5382,0.3988,
11.134784,-0.2695,-1.0232,0.0065,-4.6911,0.9673,2.0288,0.3174,0.2346,1.0827,
11.137459,-0.2695,-1.0232,0.0065,-4.2270,0.9941,1.8720,0.3174,0.2346,1.0827,
11.138785,-0.5410,-0.8043,-0.0551,-4.2270,0.9941,1.8720,0.3174,0.2346,1.0827,
11.140019,-0.4694,-0.8292,-0.0790,-4.2270,0.9941,1.8720,0.3174,0.2346,1.0827,
11.141130,-0.1975,-0.9208,0.0111,-4.2270,0.9941,1.8720,0.3174,0.2346,1.0827,
11.142115,0.0026,-1.0415,0.0891,-4.2270,0.9941,1.8720,0.3174,0.2346,1.0827,
11.143200,0.2074,-1.0884,0.0654,-4.2270,0.9941,1.8720,0.3174,0.2346,1.0827,
11.174056,0.2074,-1.0884,0.0654,-4.2270,0.9941,1.8720,0.7233,0.1441,0.5841,
11.177043,0.2074,-1.0884,0.0654,0.2035,-0.2291,2.5093,0.7233,0.1441,0.5841,
11.214465,0.2074,-1.0884,0.0654,0.2035,-0.2291,2.5093,0.9118,0.9665,-0.4044,
11.216976,0.2074,-1.0884,0.0654,2.4620,-1.2486,-0.5894,0.9118,0.9665,-0.4044,
11.218267,0.4409,-1.1365,-0.0714,2.4620,-1.2486,-0.5894,0.9118,0.9665,-0.4044,
11.219643,0.2745,-1.1556,-0.2894,2.4620,-1.2486,-0.5894,0.9118,0.9665,-0.4044,
11.220890,0.0701,-1.0972,-0.3179,2.4620,-1.2486,-0.5894,0.9118,0.9665,-0.4044,
11.222102,-0.0909,-0.9804,-0.0433,2.4620,-1.2486,-0.5894,0.9118,0.9665,-0.4044,
11.253396,-0.0909,-0.9804,-0.0433,2.4620,-1.2486,-0.5894,0.5635,1.0623,-0.3458,
11.256035,-0.0909,-0.9804,-0.0433,2.2263,-1.1972,-0.8041,0.5635,1.0623,-0.3458,
11.292813,-0.1789,-0.8942,0.0766,2.2263,-1.1972,-0.8041,0.5635,1.0623,-0.3458,
11.295384,-0.1672,-0.8829,-0.0634,2.2263,-1.1972,-0.8041,0.5635,1.0623,-0.3458,
11.297486,-0.1239,-0.9408,-0.1042,2.2263,-1.1972,-0.8041,0.5635,1.0623,-0.3458,
11.299739,-0.1239,-0.9408,-0.1042,2.2263,-1.1972,-0.8041,0.7084,0.1270,0.2241,
11.301760,-0.1239,-0.9408,-0.1042,-1.6585,0.8899,1.0179,0.7084,0.1270,0.2241,
11.332663,-0.1239,-0.9408,-0.1042,-0.1558,0.3698,-0.1834,0.7084,0.1270,0.2241,
11.334657,-0.1239,-0.9408,-0.1042,-0.1558,0.3698,-0.1834,0.7712,0.0610,0.4382,
11.372023,-0.1239,-0.9408,-0.1042,-0.1558,0.3698,-0.1834,0.6860,0.4924,0.1058,
11.373923,-0.1239,-0.9408,-0.1042,-0.1248,0.3820,-0.4465,0.6860,0.4924,0.1058,
11.374696,-0.0255,-0.9831,-0.0934,-0.1248,0.3820,-0.4465,0.6860,0.4924,0.1058,
11.375466,0.1197,-1.0007,-0.1083,-0.1248,0.3820,-0.4465,0.6860,0.4924,0.1058,
11.376577,0.2030,-0.9872,-0.1960,-0.1248,0.3820,-0.4465,0.6860,0.4924,0.1058,
11.377177,0.1795,-0.9413,-0.3189,-0.1248,0.3820,-0.4465,0.6860,0.4924,0.1058,
11.378009,0.0429,-0.8739,-0.4017,-0.1248,0.3820,-0.4465,0.6860,0.4924,0.1058,
11.411322,0.0429,-0.8739,-0.4017,-0.1248,0.3820,-0.4465,0.0170,0.7332,-0.1466,
11.413580,0.0429,-0.8739,-0.4017,1.2675,0.7680,-2.4092,0.0170,0.7332,-0.1466,
11.452037,0.0429,-0.8739,-0.4017,1.2675,0.7680,-2.4092,-0.8597,0.4147,0.0909,
11.455518,0.0429,-0.8739,-0.4017,-1.5041,2.3792,-2.5097,-0.8597,0.4147,0.0909,
11.457169,-0.0878,-0.8026,-0.3964,-1.5041,2.3792,-2.5097,-0.8597,0.4147,0.0909,
11.458338,-0.1549,-0.7605,-0.3565,-1.5041,2.3792,-2.5097,-0.8597,0.4147,0.0909,
11.459977,-0.1955,-0.7261,-0.3104,-1.5041,2.3792,-2.5097,-0.8597,0.4147,0.0909,
11.461459,-0.1808,-0.6780,-0.2674,-1.5041,2.3792,-2.5097,-0.8597,0.4147,0.0909,
11.491233,-0.1808,-0.6780,-0.2674,-1.5041,2.3792,-2.5097,-1.3763,0.6203,0.5319,
11.493510,-0.1808,-0.6780,-0.2674,-1.3052,2.2732,-1.9409,-1.3763,0.6203,0.5319,
11.531075,-0.2300,-0.7195,-0.4416,-1.3052,2.2732,-1.9409,-1.3763,0.6203,0.5319,
11.533341,-0.2791,-0.8619,-0.3731,-1.3052,2.2732,-1.9409,-1.3763,0.6203,0.5319,
11.534656,-0.2172,-0.9166,-0.0751,-1.3052,2.2732,-1.9409,-1.3763,0.6203,0.5319,
11.535783,-0.2172,-0.9166,-0.0751,-1.7886,2.2179,-1.4120,-1.3763,0.6203,0.5319,
11.537702,-0.2172,-0.9166,-0.0751,-1.7886,2.2179,-1.4120,-1.4498,0.8280,0.9580,
11.571534,-0.2172,-0.9166,-0.0751,0.4076,0.8624,1.4156,-1.4498,0.8280,0.9580,
11.573837,-0.2172,-0.9166,-0.0751,0.4076,0.8624,1.4156,-1.1409,0.5990,1.1029,
11.610391,-0.2172,-0.9166,-0.0751,0.4076,0.8624,1.4156,-1.1132,0.8940,0.7247,
11.613210,-0.2172,-0.9166,-0.0751,0.5688,0.7022,1.8308,-1.1132,0.8940,0.7247,
11.614499,-0.0653,-0.8978,-0.0333,0.5688,0.7022,1.8308,-1.1132,0.8940,0.7247,
11.615498,0.1565,-0.8143,-0.2373,0.5688,0.7022,1.8308,-1.1132,0.8940,0.7247,
11.616923,0.2267,-0.6970,-0.3228,0.5688,0.7022,1.8308,-1.1132,0.8940,0.7247,
11.618179,0.2518,-0.6205,-0.2571,0.5688,0.7022,1.8308,-1.1132,0.8940,0.7247,
11.619432,0.0696,-0.6689,-0.3785,0.5688,0.7022,1.8308,-1.1132,0.8940,0.7247,
11.649472,0.0696,-0.6689,-0.3785,0.5688,0.7022,1.8308,-1.2570,0.7438,0.2816,
11.652063,0.0696,-0.6689,-0.3785,2.7332,2.5856,0.3121,-1.2570,0.7438,0.2816,
11.689578,0.0696,-0.6689,-0.3785,2.7332,2.5856,0.3121,-1.3923,0.3039,0.1623,
11.691795,0.0696,-0.6689,-0.3785,1.4953,0.3081,0.1078,-1.3923,0.3039,0.1623,
11.693029,-0.0804,-0.7109,-0.4125,1.4953,0.3081,0.1078,-1.3923,0.3039,0.1623,
11.694172,0.0945,-0.7823,-0.3033,1.4953,0.3081,0.1078,-1.3923,0.3039,0.1623,
11.695248,0.1585,-1.1245,-0.4596,1.4953,0.3081,0.1078,-1.3923,0.3039,0.1623,
11.696717,0.1270,-1.4368,-0.6231,1.4953,0.3081,0.1078,-1.3923,0.3039,0.1623,
11.728657,0.1270,-1.4368,-0.6231,1.4953,0.3081,0.1078,-1.6277,0.0961,-0.5472,
11.730562,0.1270,-1.4368,-0.6231,1.2692,0.0520,0.6635,-1.6277,0.0961,-0.5472,
11.768444,0.1270,-1.4368,-0.6231,1.2692,0.0520,0.6635,-1.1452,0.2453,-0.8391,
11.771210,0.1270,-1.4368,-0.6231,0.4125,-6.3524,0.2792,-1.1452,0.2453,-0.8391,
11.772687,-0.0113,-1.5496,-0.4831,0.4125,-6.3524,0.2792,-1.1452,0.2453,-0.8391,
11.773981,-0.1027,-1.5650,-0.3052,0.4125,-6.3524,0.2792,-1.1452,0.2453,-0.8391,
11.775222,-0.0724,-1.6210,-0.4076,0.4125,-6.3524,0.2792,-1.1452,0.2453,-0.8391,
11.776462,-0.1549,-1.6071,-0.5764,0.4125,-6.3524,0.2792,-1.1452,0.2453,-0.8391,
11.808122,-0.1549,-1.6071,-0.5764,0.4125,-6.3524,0.2792,-0.4208,-0.1648,-0.7293,
11.810597,-0.1549,-1.6071,-0.5764,0.1972,-6.3205,0.4121,-0.4208,-0.1648,-0.7293,
11.847963,-0.1549,-1.6071,-0.5764,0.1972,-6.3205,0.4121,-0.0863,-0.5526,-0.2319,
11.850553,-0.1549,-1.6071,-0.5764,-1.1188,-5.8659,0.4668,-0.0863,-0.5526,-0.2319,
11.851912,-0.1782,-1.2098,-0.4161,-1.1188,-5.8659,0.4668,-0.0863,-0.5526,-0.2319,
11.853305,-0.3775,-0.8648,-0.2798,-1.1188,-5.8659,0.4668,-0.0863,-0.5526,-0.2319,
11.854426,-0.4506,-0.8162,-0.4381,-1.1188,-5.8659,0.4668,-0.0863,-0.5526,-0.2319,
11.855665,-0.2940,-0.8631,-0.4091,-1.1188,-5.8659,0.4668,-0.0863,-0.5526,-0.2319,
11.887566,-0.2940,-0.8631,-0.4091,-1.1188,-5.8659,0.4668,0.2173,-0.0849,0.2592,
11.890393,-0.2940,-0.8631,-0.4091,-3.2978,0.3542,1.2625,0.2173,-0.0849,0.2592,
11.927360,-0.2940,-0.8631,-0.4091,-3.2978,0.3542,1.2625,0.6413,0.2975,0.1538,
11.931069,-0.2940,-0.8631,-0.4091,-1.0697,-0.2488,1.8801,0.6413,0.2975,0.1538,
11.934233,-0.1107,-0.9215,-0.2996,-1.0697,-0.2488,1.8801,0.6413,0.2975,0.1538,
11.937086,-0.1232,-0.9538,-0.2713,-1.0697,-0.2488,1.8801,0.6413,0.2975,0.1538,
11.938325,-0.2104,-0.8917,-0.2908,-1.0697,-0.2488,1.8801,0.6413,0.2975,0.1538,
11.939630,-0.1840,-0.7691,-0.2955,-1.0697,-0.2488,1.8801,0.6413,0.2975,0.1538,
11.966222,-0.1840,-0.7691,-0.2955,-1.0240,-0.0675,1.4979,0.6413,0.2975,0.1538,
11.968245,-0.1840,-0.7691,-0.2955,-1.0240,-0.0675,1.4979,1.0301,0.3742,0.2710,
12.006668,-0.1840,-0.7691,-0.2955,-1.0240,-0.0675,1.4979,1.1782,0.4786,0.5373,
12.008852,-0.1840,-0.7691,-0.2955,-0.4220,2.4349,1.3437,1.1782,0.4786,0.5373,
12.010244,-0.0914,-0.6699,-0.2466,-0.4220,2.4349,1.3437,1.1782,0.4786,0.5373,
12.011495,-0.0220,-0.6049,-0.2332,-0.4220,2.4349,1.3437,1.1782,0.4786,0.5373,
12.012860,0.0075,-0.5622,-0.2529,-0.4220,2.4349,1.3437,1.1782,0.4786,0.5373,
12.013855,0.0679,-0.5783,-0.2212,-0.4220,2.4349,1.3437,1.1782,0.4786,0.5373,
12.045407,0.0679,-0.5783,-0.2212,-0.4220,2.4349,1.3437,1.3060,0.1174,0.4851,
12.048066,0.0679,-0.5783,-0.2212,-0.2582,2.5679,0.8555,1.3060,0.1174,0.4851,
12.086294,0.0679,-0.5783,-0.2212,-0.2582,2.5679,0.8555,1.5478,-0.0999,-0.1062,
12.088651,0.0679,-0.5783,-0.2212,1.4390,3.5171,0.6687,1.5478,-0.0999,-0.1062,
12.089901,0.1626,-0.6538,-0.1784,1.4390,3.5171,0.6687,1.5478,-0.0999,-0.1062,
12.091008,0.1849,-0.7144,-0.1535,1.4390,3.5171,0.6687,1.5478,-0.0999,-0.1062,
12.092280,0.0749,-0.7214,-0.1892,1.4390,3.5171,0.6687,1.5478,-0.0999,-0.1062,
12.093590,-0.0760,-0.7327,-0.2666,1.4390,3.5171,0.6687,1.5478,-0.0999,-0.1062,
12.124705,-0.0760,-0.7327,-0.2666,1.4390,3.5171,0.6687,1.5265,0.2378,-0.4854,
12.127070,-0.0760,-0.7327,-0.2666,1.0388,2.4166,0.2385,1.5265,0.2378,-0.4854,
12.165345,-0.0760,-0.7327,-0.2666,1.0388,2.4166,0.2385,0.8671,0.7683,-0.3544,
12.167842,-0.0787,-0.7610,-0.4103,1.0388,2.4166,0.2385,0.8671,0.7683,-0.3544,
12.169129,-0.0179,-0.8228,-0.6888,1.0388,2.4166,0.2385,0.8671,0.7683,-0.3544,
12.170285,-0.0450,-0.8468,-0.7594,1.0388,2.4166,0.2385,0.8671,0.7683,-0.3544,
12.171553,-0.0472,-0.7767,-0.5041,1.0388,2.4166,0.2385,0.8671,0.7683,-0.3544,
12.173592,-0.0472,-0.7767,-0.5041,-0.2164,1.6090,-4.0906,0.8671,0.7683,-0.3544,
12.204333,-0.0472,-0.7767,-0.5041,-0.2164,1.6090,-4.0906,-0.0671,0.5563,-0.0912,
12.206847,-0.0472,-0.7767,-0.5041,-0.2894,1.5777,-3.9931,-0.0671,0.5563,-0.0912,
12.244078,-0.0472,-0.7767,-0.5041,-0.2894,1.5777,-3.9931,0.0458,-0.2565,-0.2276,
12.246220,-0.0472,-0.7767,-0.5041,1.2463,3.1345,-1.3150,0.0458,-0.2565,-0.2276,
12.247775,0.1165,-0.6147,-0.2901,1.2463,3.1345,-1.3150,0.0458,-0.2565,-0.2276,
12.248798,0.2855,-0.5480,-0.2456,1.2463,3.1345,-1.3150,0.0458,-0.2565,-0.2276,
12.250042,0.2665,-0.8976,-0.5271,1.2463,3.1345,-1.3150,0.0458,-0.2565,-0.2276,
12.251278,0.2081,-1.4500,-0.6253,1.2463,3.1345,-1.3150,0.0458,-0.2565,-0.2276,
12.283710,0.2081,-1.4500,-0.6253,1.2463,3.1345,-1.3150,-0.1513,0.2570,-0.5600,
12.285261,0.2081,-1.4500,-0.6253,0.9980,3.0693,-1.2378,-0.1513,0.2570,-0.5600,
12.324667,0.2081,-1.4500,-0.6253,0.9980,3.0693,-1.2378,-0.8597,-0.0658,-0.4055,
12.326790,0.2081,-1.4500,-0.6253,1.7137,-4.1481,-2.4905,-0.8597,-0.0658,-0.4055,
12.328072,0.1524,-1.7974,-0.3817,1.7137,-4.1481,-2.4905,-0.8597,-0.0658,-0.4055,
12.328904,-0.2419,-1.9193,-0.0878,1.7137,-4.1481,-2.4905,-0.8597,-0.0658,-0.4055,
12.330121,-0.6731,-1.8101,0.1680,1.7137,-4.1481,-2.4905,-0.8597,-0.0658,-0.4055,
12.331224,-0.5776,-1.6637,-0.5329,1.7137,-4.1481,-2.4905,-0.8597,-0.0658,-0.4055,
12.362597,-0.5776,-1.6637,-0.5329,1.7137,-4.1481,-2.4905,-0.8650,0.5382,0.2102,
12.364948,-0.5776,-1.6637,-0.5329,-5.1038,-8.1760,1.3326,-0.8650,0.5382,0.2102,
12.401777,-0.5776,-1.6637,-0.5329,-5.1038,-8.1760,1.3326,-0.8853,0.6149,0.2315,
12.404169,-0.5776,-1.6637,-0.5329,0.2220,-0.6427,3.5762,-0.8853,0.6149,0.2315,
12.405633,-0.0428,-1.1228,-0.9761,0.2220,-0.6427,3.5762,-0.8853,0.6149,0.2315,
12.406979,0.0657,-0.8568,0.2835,0.2220,-0.6427,3.5762,-0.8853,0.6149,0.2315,
12.408256,0.1118,-1.0793,0.8459,0.2220,-0.6427,3.5762,-0.8853,0.6149,0.2315,
12.410019,0.1267,-1.3500,0.2757,0.2220,-0.6427,3.5762,-0.8853,0.6149,0.2315,
12.443389,0.1267,-1.3500,0.2757,0.2220,-0.6427,3.5762,1.2645,0.1025,0.0195,
12.445543,0.1267,-1.3500,0.2757,0.2129,-0.4920,3.0516,1.2645,0.1025,0.0195,
12.483065,0.1267,-1.3500,0.2757,0.2129,-0.4920,3.0516,0.9055,0.3412,-0.1509,
12.485034,0.1267,-1.3500,0.2757,1.4435,-3.0155,-0.8798,0.9055,0.3412,-0.1509,
12.486776,0.1929,-1.3593,-0.4723,1.4435,-3.0155,-0.8798,0.9055,0.3412,-0.1509,
12.488159,0.2264,-1.1634,-0.7521,1.4435,-3.0155,-0.8798,0.9055,0.3412,-0.1509,
12.489818,0.2271,-1.0332,-0.3043,1.4435,-3.0155,-0.8798,0.9055,0.3412,-0.1509,
12.491026,0.1656,-0.9926,-0.1481,1.4435,-3.0155,-0.8798,0.9055,0.3412,-0.1509,
12.520596,0.1656,-0.9926,-0.1481,1.4435,-3.0155,-0.8798,0.5901,-0.5590,-0.0934,
12.522299,0.1656,-0.9926,-0.1481,1.4294,-2.9180,-1.0799,0.5901,-0.5590,-0.0934,
12.560606,0.1656,-0.9926,-0.1481,1.4294,-2.9180,-1.0799,0.7702,-0.6506,0.0441,
12.562643,0.1656,-0.9926,-0.1481,0.9866,0.0872,-0.2818,0.7702,-0.6506,0.0441,
12.563570,0.0029,-0.9442,-0.1648,0.9866,0.0872,-0.2818,0.7702,-0.6506,0.0441,
12.564471,-0.1794,-0.9003,-0.2630,0.9866,0.0872,-0.2818,0.7702,-0.6506,0.0441,
12.565073,-0.2339,-0.8793,-0.2735,0.9866,0.0872,-0.2818,0.7702,-0.6506,0.0441,
12.566026,-0.1657,-0.8776,-0.2205,0.9866,0.0872,-0.2818,0.7702,-0.6506,0.0441,
12.600097,-0.1657,-0.8776,-0.2205,0.9866,0.0872,-0.2818,0.6359,-0.3566,0.3274,
12.602268,-0.1657,-0.8776,-0.2205,-2.0126,1.1338,-0.9656,0.6359,-0.3566,0.3274,
12.639883,-0.1657,-0.8776,-0.2205,-2.0126,1.1338,-0.9656,0.4005,-0.1425,0.3977,
12.641989,-0.1657,-0.8776,-0.2205,0.1588,1.6534,-1.7358,0.4005,-0.1425,0.3977,
12.643533,-0.0814,-0.8580,-0.2478,0.1588,1.6534,-1.7358,0.4005,-0.1425,0.3977,
12.644687,0.0307,-0.8355,-0.3184,0.1588,1.6534,-1.7358,0.4005,-0.1425,0.3977,
12.645640,0.0874,-0.8030,-0.3878,0.1588,1.6534,-1.7358,0.4005,-0.1425,0.3977,
12.647007,0.0840,-0.7610,-0.4088,0.1588,1.6534,-1.7358,0.4005,-0.1425,0.3977,
12.679513,0.0840,-0.7610,-0.4088,0.1588,1.6534,-1.7358,-0.0554,-0.0008,0.3050,
12.682054,0.0840,-0.7610,-0.4088,0.2729,1.6217,-1.6856,-0.0554,-0.0008,0.3050,
12.718999,0.0840,-0.7610,-0.4088,0.2729,1.6217,-1.6856,-0.4922,-0.0775,0.3775,
12.721544,0.0840,-0.7610,-0.4088,0.5169,2.3751,-1.7497,-0.4922,-0.0775,0.3775,
12.722898,0.0214,-0.7410,-0.3656,0.5169,2.3751,-1.7497,-0.4922,-0.0775,0.3775,
12.724062,-0.0374,-0.7415,-0.2664,0.5169,2.3751,-1.7497,-0.4922,-0.0775,0.3775,
12.725345,-0.0611,-0.7828,-0.2774,0.5169,2.3751,-1.7497,-0.4922,-0.0775,0.3775,
12.726807,-0.0641,-0.8661,-0.4709,0.5169,2.3751,-1.7497,-0.4922,-0.0775,0.3775,
12.760098,-0.0641,-0.8661,-0.4709,0.5169,2.3751,-1.7497,-0.9172,0.0088,0.5479,
12.762449,-0.0641,-0.8661,-0.4709,0.7139,2.2617,-1.3750,-0.9172,0.0088,0.5479,
12.798325,-0.0641,-0.8661,-0.4709,0.7139,2.2617,-1.3750,-1.4765,0.1909,0.5074,
12.800550,-0.0641,-0.8661,-0.4709,0.1542,1.0133,-1.7743,-1.4765,0.1909,0.5074,
12.802052,-0.0306,-0.9267,-0.5960,0.1542,1.0133,-1.7743,-1.4765,0.1909,0.5074,
12.803352,0.0349,-0.8746,-0.3003,0.1542,1.0133,-1.7743,-1.4765,0.1909,0.5074,
12.804517,0.0972,-0.7652,-0.0839,0.1542,1.0133,-1.7743,-1.4765,0.1909,0.5074,
12.805631,0.0725,-0.6921,-0.2319,0.1542,1.0133,-1.7743,-1.4765,0.1909,0.5074,
12.838492,0.0725,-0.6921,-0.2319,0.1542,1.0133,-1.7743,-1.4158,0.0514,0.3072,
12.840655,0.0725,-0.6921,-0.2319,1.4156,1.6113,1.1109,-1.4158,0.0514,0.3072,
12.877201,0.0725,-0.6921,-0.2319,1.4156,1.6113,1.1109,-1.4541,-0.0700,0.2955,
12.879577,0.0725,-0.6921,-0.2319,1.3936,1.8681,1.2387,-1.4541,-0.0700,0.2955,
12.880914,0.0461,-0.6924,-0.3538,1.3936,1.8681,1.2387,-1.4541,-0.0700,0.2955,
12.882775,0.0676,-0.7351,-0.1767,1.3936,1.8681,1.2387,-1.4541,-0.0700,0.2955,
12.884383,0.0556,-0.7534,-0.2004,1.3936,1.8681,1.2387,-1.4541,-0.0700,0.2955,
12.885611,-0.0802,-0.9042,-0.5021,1.3936,1.8681,1.2387,-1.4541,-0.0700,0.2955,
12.917056,-0.0802,-0.9042,-0.5021,1.3936,1.8681,1.2387,-1.8909,-0.0690,0.0739,
12.920284,-0.0802,-0.9042,-0.5021,1.4067,1.5430,1.8673,-1.8909,-0.0690,0.0739,
12.957428,-0.0802,-0.9042,-0.5021,1.4067,1.5430,1.8673,-1.8770,0.4615,-0.2755,
12.959587,-0.0802,-0.9042,-0.5021,-0.3043,-1.8600,0.9004,-1.8770,0.4615,-0.2755,
12.960624,-0.1481,-1.0984,-0.4508,-0.3043,-1.8600,0.9004,-1.8770,0.4615,-0.2755,
12.961733,-0.0734,-1.1280,-0.2674,-0.3043,-1.8600,0.9004,-1.8770,0.4615,-0.2755,
12.962904,-0.0399,-1.2066,-0.3717,-0.3043,-1.8600,0.9004,-1.8770,0.4615,-0.2755,
12.964142,0.0305,-1.4959,-0.4587,-0.3043,-1.8600,0.9004,-1.8770,0.4615,-0.2755,
12.995787,0.0305,-1.4959,-0.4587,-0.3043,-1.8600,0.9004,-1.0344,0.2943,-0.5940,
12.998047,0.0305,-1.4959,-0.4587,-0.5481,-2.0202,1.2251,-1.0344,0.2943,-0.5940,
13.035761,0.0305,-1.4959,-0.4587,-0.5481,-2.0202,1.2251,-0.5689,-0.4770,-0.8476,
13.037743,0.0305,-1.4959,-0.4587,0.2557,-6.6594,0.8365,-0.5689,-0.4770,-0.8476,
13.040276,0.0080,-1.8496,-0.5591,0.2557,-6.6594,0.8365,-0.5689,-0.4770,-0.8476,
13.041713,-0.0670,-1.5846,-0.8244,0.2557,-6.6594,0.8365,-0.5689,-0.4770,-0.8476,
13.043501,-0.1503,-1.0701,-0.6863,0.2557,-6.6594,0.8365,-0.5689,-0.4770,-0.8476,
13.044821,-0.2944,-0.8424,-0.4799,0.2557,-6.6594,0.8365,-0.5689,-0.4770,-0.8476,
13.075950,-0.2944,-0.8424,-0.4799,0.2557,-6.6594,0.8365,-0.2323,-0.3449,-0.5301,
13.078300,-0.2944,-0.8424,-0.4799,-1.4842,-3.2037,-1.0374,-0.2323,-0.3449,-0.5301,
13.115610,-0.3997,-0.8004,-0.4201,-1.4842,-3.2037,-1.0374,-0.2323,-0.3449,-0.5301,
13.117704,-0.3587,-0.9301,-0.3626,-1.4842,-3.2037,-1.0374,-0.2323,-0.3449,-0.5301,
13.119375,-0.2869,-1.0437,-0.4389,-1.4842,-3.2037,-1.0374,-0.2323,-0.3449,-0.5301,
13.120515,-0.2869,-1.0437,-0.4389,-1.4842,-3.2037,-1.0374,0.2919,-0.0690,-0.0422,
13.121351,-0.2869,-1.0437,-0.4389,-3.1722,-0.7663,1.3560,0.2919,-0.0690,-0.0422,
13.155203,-0.2869,-1.0437,-0.4389,-3.1722,-0.7663,1.3560,0.7243,0.0759,0.0014,
13.157560,-0.2869,-1.0437,-0.4389,-1.6526,-0.0276,1.0844,0.7243,0.0759,0.0014,
13.196019,-0.2869,-1.0437,-0.4389,-1.6526,-0.0276,1.0844,0.8980,0.1409,0.1804,
13.198152,-0.2869,-1.0437,-0.4389,-1.5920,0.1437,0.7693,0.8980,0.1409,0.1804,
13.199651,-0.2160,-0.9978,-0.4547,-1.5920,0.1437,0.7693,0.8980,0.1409,0.1804,
13.201059,-0.1723,-0.8729,-0.3964,-1.5920,0.1437,0.7693,0.8980,0.1409,0.1804,
13.202416,-0.1957,-0.7234,-0.3746,-1.5920,0.1437,0.7693,0.8980,0.1409,0.1804,
13.204360,-0.1826,-0.6330,-0.3399,-1.5920,0.1437,0.7693,0.8980,0.1409,0.1804,
13.206079,-0.1220,-0.6332,-0.2757,-1.5920,0.1437,0.7693,0.8980,0.1409,0.1804,
13.234125,-0.1220,-0.6332,-0.2757,-1.5920,0.1437,0.7693,0.9672,0.1207,0.4510,
13.235250,-0.1220,-0.6332,-0.2757,-1.4341,0.3084,0.4300,0.9672,0.1207,0.4510,
13.273013,-0.1220,-0.6332,-0.2757,-1.4341,0.3084,0.4300,1.1590,0.3571,0.4180,
13.274434,-0.1220,-0.6332,-0.2757,-0.8527,2.5671,1.1116,1.1590,0.3571,0.4180,
13.275189,-0.1327,-0.6799,-0.2732,-0.8527,2.5671,1.1116,1.1590,0.3571,0.4180,
13.275929,-0.1454,-0.7466,-0.3326,-0.8527,2.5671,1.1116,1.1590,0.3571,0.4180,
13.276585,-0.0641,-0.8267,-0.4117,-0.8527,2.5671,1.1116,1.1590,0.3571,0.4180,
13.277227,0.0263,-0.8668,-0.4672,-0.8527,2.5671,1.1116,1.1590,0.3571,0.4180,
13.312798,0.0263,-0.8668,-0.4672,-0.8527,2.5671,1.1116,1.1686,0.1792,0.2720,
13.314233,0.0263,-0.8668,-0.4672,0.0462,1.1046,-0.3498,1.1686,0.1792,0.2720,
13.352423,0.0996,-0.8519,-0.5058,0.0462,1.1046,-0.3498,1.1686,0.1792,0.2720,
13.354717,0.1306,-0.8226,-0.5034,0.0462,1.1046,-0.3498,1.1686,0.1792,0.2720,
13.356029,0.1199,-0.7972,-0.4149,0.0462,1.1046,-0.3498,1.1686,0.1792,0.2720,
13.357300,0.1199,-0.7972,-0.4149,0.0462,1.1046,-0.3498,1.0823,0.2708,0.1186,
13.358626,0.1199,-0.7972,-0.4149,1.7649,1.1259,-1.4055,1.0823,0.2708,0.1186,
13.392461,0.1199,-0.7972,-0.4149,1.7649,1.1259,-1.4055,0.9971,0.3241,-0.0763,
13.394328,0.1199,-0.7972,-0.4149,0.9888,1.6731,-0.0709,0.9971,0.3241,-0.0763,
13.431866,0.1199,-0.7972,-0.4149,0.9888,1.6731,-0.0709,1.0706,0.0951,-0.1392,
13.433723,0.1199,-0.7972,-0.4149,0.9113,1.7603,-0.4582,1.0706,0.0951,-0.1392,
13.435416,0.0867,-0.7764,-0.3389,0.9113,1.7603,-0.4582,1.0706,0.0951,-0.1392,
13.436561,0.0390,-0.7749,-0.2940,0.9113,1.7603,-0.4582,1.0706,0.0951,-0.1392,
13.437638,0.0126,-0.7818,-0.2732,0.9113,1.7603,-0.4582,1.0706,0.0951,-0.1392,
13.438433,0.0261,-0.7869,-0.3003,0.9113,1.7603,-0.4582,1.0706,0.0951,-0.1392,
13.439950,0.0456,-0.7735,-0.3272,0.9113,1.7603,-0.4582,1.0706,0.0951,-0.1392,
13.471379,0.0456,-0.7735,-0.3272,0.9113,1.7603,-0.4582,1.0493,0.0930,-0.2159,
13.472947,0.0456,-0.7735,-0.3272,0.8084,1.8287,-0.8346,1.0493,0.0930,-0.2159,
13.511171,0.0456,-0.7735,-0.3272,0.8084,1.8287,-0.8346,0.8234,0.1803,-0.3331,
13.513300,0.0456,-0.7735,-0.3272,0.5670,1.9241,-1.2824,0.8234,0.1803,-0.3331,
13.514594,0.0383,-0.7544,-0.3282,0.5670,1.9241,-1.2824,0.8234,0.1803,-0.3331,
13.515795,0.0178,-0.7200,-0.3008,0.5670,1.9241,-1.2824,0.8234,0.1803,-0.3331,
13.517011,-0.0203,-0.7014,-0.2769,0.5670,1.9241,-1.2824,0.8234,0.1803,-0.3331,
13.518717,-0.0963,-0.7119,-0.3433,0.5670,1.9241,-1.2824,0.8234,0.1803,-0.3331,
13.550855,-0.0963,-0.7119,-0.3433,0.5670,1.9241,-1.2824,0.6391,0.1505,-0.3394,
13.552922,-0.0963,-0.7119,-0.3433,-0.2493,2.5198,-1.3855,0.6391,0.1505,-0.3394,
13.590457,-0.0963,-0.7119,-0.3433,-0.2493,2.5198,-1.3855,0.0234,0.2272,-0.2755,
13.592604,-0.0963,-0.7119,-0.3433,-0.8376,2.7274,-3.9427,0.0234,0.2272,-0.2755,
13.593908,-0.1493,-0.7014,-0.5393,-0.8376,2.7274,-3.9427,0.0234,0.2272,-0.2755,
13.595021,-0.0526,-0.6152,-0.5938,-0.8376,2.7274,-3.9427,0.0234,0.2272,-0.2755,
13.596239,-0.0453,-0.7395,-0.5886,-0.8376,2.7274,-3.9427,0.0234,0.2272,-0.2755,
13.597350,-0.1415,-1.2726,-0.7416,-0.8376,2.7274,-3.9427,0.0234,0.2272,-0.2755,
13.630158,-0.1415,-1.2726,-0.7416,-0.8376,2.7274,-3.9427,-0.8022,0.6831,-0.2297,
13.632255,-0.1415,-1.2726,-0.7416,-0.9564,2.6239,-3.5855,-0.8022,0.6831,-0.2297,
13.670061,-0.1415,-1.2726,-0.7416,-0.9564,2.6239,-3.5855,-1.3039,0.0631,-0.2713,
13.672147,-0.1415,-1.2726,-0.7416,-0.3817,-5.2630,-1.0892,-1.3039,0.0631,-0.2713,
13.673486,0.0495,-1.6041,-0.3526,-0.3817,-5.2630,-1.0892,-1.3039,0.0631,-0.2713,
13.674577,0.0508,-1.5843,-0.0157,-0.3817,-5.2630,-1.0892,-1.3039,0.0631,-0.2713,
13.675686,-0.3333,-1.5824,0.4980,-0.3817,-5.2630,-1.0892,-1.3039,0.0631,-0.2713,
13.676856,-0.2128,-1.5164,0.3349,-0.3817,-5.2630,-1.0892,-1.3039,0.0631,-0.2713,
13.709254,-0.2128,-1.5164,0.3349,-0.3817,-5.2630,-1.0892,-0.1971,0.3305,-0.0646,
13.711257,-0.2128,-1.5164,0.3349,-0.4324,-5.1958,-1.0032,-0.1971,0.3305,-0.0646,
13.748521,-0.2128,-1.5164,0.3349,-0.4324,-5.1958,-1.0032,-0.4528,1.4426,0.1186,
13.751815,-0.2128,-1.5164,0.3349,-2.9162,-5.7593,3.9267,-0.4528,1.4426,0.1186,
13.753532,-0.2368,-1.5504,-0.4584,-2.9162,-5.7593,3.9267,-0.4528,1.4426,0.1186,
13.754779,0.0112,-1.3202,-0.8141,-2.9162,-5.7593,3.9267,-0.4528,1.4426,0.1186,
13.755758,0.1561,-1.0965,-0.0367,-2.9162,-5.7593,3.9267,-0.4528,1.4426,0.1186,
13.756944,0.0449,-1.1754,0.4482,-2.9162,-5.7593,3.9267,-0.4528,1.4426,0.1186,
13.788676,0.0449,-1.1754,0.4482,-2.9162,-5.7593,3.9267,-0.0256,0.1909,0.2347,
13.790470,0.0449,-1.1754,0.4482,0.3948,-2.2673,1.3716,-0.0256,0.1909,0.2347,
13.828352,-0.0245,-1.2020,0.1751,0.3948,-2.2673,1.3716,-0.0256,0.1909,0.2347,
13.830497,-0.0492,-1.2384,-0.3333,0.3948,-2.2673,1.3716,-0.0256,0.1909,0.2347,
13.831532,0.0845,-1.2223,-0.3546,0.3948,-2.2673,1.3716,-0.0256,0.1909,0.2347,
13.832873,0.0845,-1.2223,-0.3546,0.3948,-2.2673,1.3716,0.9385,0.3816,0.2358,
13.833962,0.0845,-1.2223,-0.3546,-0.2086,-2.3621,0.6429,0.9385,0.3816,0.2358,
13.868138,0.0845,-1.2223,-0.3546,-0.2086,-2.3621,0.6429,0.9055,0.3348,0.2390,
13.870037,0.0845,-1.2223,-0.3546,1.6750,0.2787,-0.0939,0.9055,0.3348,0.2390,
13.907406,0.0845,-1.2223,-0.3546,1.6750,0.2787,-0.0939,0.8320,-0.1212,0.1665,
13.909414,0.0845,-1.2223,-0.3546,1.7181,0.3339,-0.4063,0.8320,-0.1212,0.1665,
13.910774,0.2450,-1.0610,-0.1164,1.7181,0.3339,-0.4063,0.8320,-0.1212,0.1665,
13.912009,0.2308,-0.9249,-0.1738,1.7181,0.3339,-0.4063,0.8320,-0.1212,0.1665,
13.914167,0.1011,-0.8910,-0.3419,1.7181,0.3339,-0.4063,0.8320,-0.1212,0.1665,
13.915228,-0.0108,-0.9027,-0.3079,1.7181,0.3339,-0.4063,0.8320,-0.1212,0.1665,
13.916242,-0.0333,-0.8912,-0.2095,1.7181,0.3339,-0.4063,0.8320,-0.1212,0.1665,
13.947338,-0.0333,-0.8912,-0.2095,1.7181,0.3339,-0.4063,0.7563,-0.2298,0.2124,
13.949246,-0.0333,-0.8912,-0.2095,1.7837,0.3739,-0.6861,0.7563,-0.2298,0.2124,
13.987256,-0.0333,-0.8912,-0.2095,1.7837,0.3739,-0.6861,0.5731,0.1569,0.3050,
13.989067,-0.0333,-0.8912,-0.2095,-0.2481,1.0652,-1.2976,0.5731,0.1569,0.3050,
13.990535,-0.0362,-0.8749,-0.2405,-0.2481,1.0652,-1.2976,0.5731,0.1569,0.3050,
13.991788,-0.0374,-0.8609,-0.3629,-0.2481,1.0652,-1.2976,0.5731,0.1569,0.3050,
13.993001,0.0068,-0.8116,-0.4403,-0.2481,1.0652,-1.2976,0.5731,0.1569,0.3050,
13.994114,0.0532,-0.7578,-0.4594,-0.2481,1.0652,-1.2976,0.5731,0.1569,0.3050,
14.026392,0.0532,-0.7578,-0.4594,-0.2481,1.0652,-1.2976,-0.1353,0.3838,0.3871,
14.028226,0.0532,-0.7578,-0.4594,0.2162,1.8058,-2.8445,-0.1353,0.3838,0.3871,
14.066444,0.0449,-0.7180,-0.4535,0.2162,1.8058,-2.8445,-0.1353,0.3838,0.3871,
14.068241,-0.0123,-0.7293,-0.3812,0.2162,1.8058,-2.8445,-0.1353,0.3838,0.3871,
14.069344,-0.1000,-0.7696,-0.2141,0.2162,1.8058,-2.8445,-0.1353,0.3838,0.3871,
14.070351,-0.1000,-0.7696,-0.2141,0.2162,1.8058,-2.8445,-0.7233,0.1238,0.4787,
14.071399,-0.1000,-0.7696,-0.2141,0.0987,2.4172,-1.8353,-0.7233,0.1238,0.4787,
14.106521,-0.1000,-0.7696,-0.2141,0.0987,2.4172,-1.8353,-1.0046,0.0514,0.5468,
14.107705,-0.1000,-0.7696,-0.2141,0.9036,2.1240,-1.5483,-1.0046,0.0514,0.5468,
14.145164,-0.1000,-0.7696,-0.2141,0.9036,2.1240,-1.5483,-1.1974,0.2559,0.3508,
14.147259,-0.1000,-0.7696,-0.2141,0.9959,1.9768,-1.0739,-1.1974,0.2559,0.3508,
14.148564,-0.0428,-0.7986,-0.3600,0.9959,1.9768,-1.0739,-1.1974,0.2559,0.3508,
14.149591,0.0486,-0.7759,-0.5388,0.9959,1.9768,-1.0739,-1.1974,0.2559,0.3508,
14.150635,0.1153,-0.6965,-0.1877,0.9959,1.9768,-1.0739,-1.1974,0.2559,0.3508,
14.151438,0.0903,-0.6618,0.1157,0.9959,1.9768,-1.0739,-1.1974,0.2559,0.3508,
14.152429,-0.0208,-0.6599,-0.0402,0.9959,1.9768,-1.0739,-1.1974,0.2559,0.3508,
14.184539,-0.0208,-0.6599,-0.0402,0.9959,1.9768,-1.0739,-0.8799,0.0919,0.1868,
14.185994,-0.0208,-0.6599,-0.0402,1.0380,1.8488,-0.7334,-0.8799,0.0919,0.1868,
14.224478,-0.0208,-0.6599,-0.0402,1.0380,1.8488,-0.7334,-1.4925,0.1483,0.2102,
14.226272,-0.0208,-0.6599,-0.0402,0.7602,2.4192,1.7397,-1.4925,0.1483,0.2102,
14.228091,-0.0475,-0.7046,-0.5632,0.7602,2.4192,1.7397,-1.4925,0.1483,0.2102,
14.229322,-0.0167,-0.7972,-0.6627,0.7602,2.4192,1.7397,-1.4925,0.1483,0.2102,
14.230438,0.0581,-0.9284,-0.4821,0.7602,2.4192,1.7397,-1.4925,0.1483,0.2102,
14.231644,-0.0184,-1.2220,-0.4694,0.7602,2.4192,1.7397,-1.4925,0.1483,0.2102,
14.264327,-0.0184,-1.2220,-0.4694,0.7602,2.4192,1.7397,-2.0890,-0.0402,-0.1179,
14.266059,-0.0184,-1.2220,-0.4694,0.7164,-0.8789,-1.1849,-2.0890,-0.0402,-0.1179,
14.303668,-0.0184,-1.2220,-0.4694,0.7164,-0.8789,-1.1849,-1.6917,0.0706,-0.5024,
14.305507,-0.0184,-1.2220,-0.4694,0.6277,-4.9184,1.9338,-1.6917,0.0706,-0.5024,
14.307011,-0.0045,-1.3593,-0.3001,0.6277,-4.9184,1.9338,-1.6917,0.0706,-0.5024,
14.308349,0.0459,-1.3403,-0.2107,0.6277,-4.9184,1.9338,-1.6917,0.0706,-0.5024,
14.309788,0.0139,-1.4236,-0.3157,0.6277,-4.9184,1.9338,-1.6917,0.0706,-0.5024,
14.310962,0.0617,-1.5421,-0.4017,0.6277,-4.9184,1.9338,-1.6917,0.0706,-0.5024,
14.343466,0.0617,-1.5421,-0.4017,0.6277,-4.9184,1.9338,-1.0419,-0.3683,-0.6356,
14.345239,0.0617,-1.5421,-0.4017,0.4778,-5.0225,2.2399,-1.0419,-0.3683,-0.6356,
14.383402,0.0617,-1.5421,-0.4017,0.4778,-5.0225,2.2399,-0.6924,-0.6400,-0.6867,
14.385248,0.0617,-1.5421,-0.4017,0.4067,-6.6333,0.0291,-0.6924,-0.6400,-0.6867,
14.386786,0.1106,-1.5951,-0.5769,0.4067,-6.6333,0.0291,-0.6924,-0.6400,-0.6867,
14.387951,-0.1063,-1.4732,-0.5930,0.4067,-6.6333,0.0291,-0.6924,-0.6400,-0.6867,
14.389077,-0.3111,-1.1285,-0.4545,0.4067,-6.6333,0.0291,-0.6924,-0.6400,-0.6867,
14.390766,-0.3379,-0.9384,-0.4022,0.4067,-6.6333,0.0291,-0.6924,-0.6400,-0.6867,
14.422745,-0.3379,-0.9384,-0.4022,0.4067,-6.6333,0.0291,-0.3548,-0.6101,-0.2383,
14.424653,-0.3379,-0.9384,-0.4022,0.4463,-6.5932,0.1398,-0.3548,-0.6101,-0.2383,
14.462693,-0.3379,-0.9384,-0.4022,0.4463,-6.5932,0.1398,-0.0022,-0.3172,0.0355,
14.464635,-0.3379,-0.9384,-0.4022,-2.6844,-1.3879,1.0555,-0.0022,-0.3172,0.0355,
14.466119,-0.2813,-0.9570,-0.4284,-2.6844,-1.3879,1.0555,-0.0022,-0.3172,0.0355,
14.467359,-0.1650,-0.9897,-0.4240,-2.6844,-1.3879,1.0555,-0.0022,-0.3172,0.0355,
14.468319,-0.0856,-0.9357,-0.3753,-2.6844,-1.3879,1.0555,-0.0022,-0.3172,0.0355,
14.469346,-0.1007,-0.8399,-0.2923,-2.6844,-1.3879,1.0555,-0.0022,-0.3172,0.0355,
14.502720,-0.1007,-0.8399,-0.2923,-2.6844,-1.3879,1.0555,0.4303,-0.2288,-0.1488,
14.504487,-0.1007,-0.8399,-0.2923,-0.7829,-0.4455,1.5131,0.4303,-0.2288,-0.1488,
14.542910,-0.1007,-0.8399,-0.2923,-0.7829,-0.4455,1.5131,0.8362,-0.2671,-0.1413,
14.544711,-0.1007,-0.8399,-0.2923,-0.5370,2.0664,2.1990,0.8362,-0.2671,-0.1413,
14.546268,-0.1232,-0.7407,-0.2388,-0.5370,2.0664,2.1990,0.8362,-0.2671,-0.1413,
14.547508,-0.0865,-0.6626,-0.2551,-0.5370,2.0664,2.1990,0.8362,-0.2671,-0.1413,
14.548775,-0.0702,-0.6330,-0.2872,-0.5370,2.0664,2.1990,0.8362,-0.2671,-0.1413,
14.550120,-0.0567,-0.6455,-0.3084,-0.5370,2.0664,2.1990,0.8362,-0.2671,-0.1413,
14.581779,-0.0567,-0.6455,-0.3084,-0.5370,2.0664,2.1990,1.1324,-0.2160,0.1154,
14.584076,-0.0567,-0.6455,-0.3084,-0.4497,2.2309,1.7696,1.1324,-0.2160,0.1154,
14.620971,-0.0567,-0.6455,-0.3084,-0.4497,2.2309,1.7696,1.2527,-0.2075,0.1367,
14.622827,-0.0294,-0.6802,-0.3067,-0.4497,2.2309,1.7696,1.2527,-0.2075,0.1367,
14.624002,-0.0115,-0.7249,-0.2996,-0.4497,2.2309,1.7696,1.2527,-0.2075,0.1367,
14.625122,-0.0155,-0.7622,-0.2793,-0.4497,2.2309,1.7696,1.2527,-0.2075,0.1367,
14.626227,-0.0179,-0.7481,-0.2490,-0.4497,2.2309,1.7696,1.2527,-0.2075,0.1367,
14.627096,-0.0179,-0.7481,-0.2490,0.2242,2.3454,0.8683,1.2527,-0.2075,0.1367,
14.660148,-0.0179,-0.7481,-0.2490,0.2242,2.3454,0.8683,1.3507,-0.2075,-0.0209,
14.661091,-0.0179,-0.7481,-0.2490,0.2421,2.4969,0.3679,1.3507,-0.2075,-0.0209,
14.699679,-0.0179,-0.7481,-0.2490,0.2421,2.4969,0.3679,1.4658,-0.2884,-0.0806,
14.700762,-0.0179,-0.7481,-0.2490,0.3808,2.0775,0.3062,1.4658,-0.2884,-0.0806,
14.701317,-0.0216,-0.7131,-0.2366,0.3808,2.0775,0.3062,1.4658,-0.2884,-0.0806,
14.701800,-0.0323,-0.7317,-0.2442,0.3808,2.0775,0.3062,1.4658,-0.2884,-0.0806,
14.702276,-0.0096,-0.7923,-0.2661,0.3808,2.0775,0.3062,1.4658,-0.2884,-0.0806,
14.702879,0.0253,-0.8563,-0.2764,0.3808,2.0775,0.3062,1.4658,-0.2884,-0.0806,
14.739273,0.0253,-0.8563,-0.2764,0.3808,2.0775,0.3062,1.4988,-0.3555,-0.1232,
14.740248,0.0253,-0.8563,-0.2764,0.4872,1.6890,-0.3264,1.4988,-0.3555,-0.1232,
14.780958,0.0197,-0.9093,-0.3563,0.4872,1.6890,-0.3264,1.4988,-0.3555,-0.1232,
14.783265,-0.0049,-0.9325,-0.5107,0.4872,1.6890,-0.3264,1.4988,-0.3555,-0.1232,
14.784758,-0.0409,-0.9054,-0.6206,0.4872,1.6890,-0.3264,1.4988,-0.3555,-0.1232,
14.786201,-0.0409,-0.9054,-0.6206,0.4872,1.6890,-0.3264,1.1963,0.1878,-0.2510,
14.787445,-0.0409,-0.9054,-0.6206,0.3414,0.5811,-3.0128,1.1963,0.1878,-0.2510,
14.820042,-0.0409,-0.9054,-0.6206,0.3414,0.5811,-3.0128,0.4250,0.3284,-0.2095,
14.822273,-0.0409,-0.9054,-0.6206,-0.8634,1.9787,-3.1156,0.4250,0.3284,-0.2095,
14.859413,-0.0409,-0.9054,-0.6206,-0.8634,1.9787,-3.1156,-0.2354,0.0685,0.0494,
14.861688,-0.0409,-0.9054,-0.6206,-0.8353,1.9286,-2.9752,-0.2354,0.0685,0.0494,
14.863150,-0.1046,-0.8644,-0.6258,-0.8353,1.9286,-2.9752,-0.2354,0.0685,0.0494,
14.864296,-0.1383,-0.7727,-0.5192,-0.8353,1.9286,-2.9752,-0.2354,0.0685,0.0494,
14.865548,-0.1251,-0.6821,-0.3424,-0.8353,1.9286,-2.9752,-0.2354,0.0685,0.0494,
14.866935,0.0456,-0.6227,-0.1875,-0.8353,1.9286,-2.9752,-0.2354,0.0685,0.0494,
14.868151,0.1477,-0.6091,-0.1853,-0.8353,1.9286,-2.9752,-0.2354,0.0685,0.0494,
14.898969,0.1477,-0.6091,-0.1853,-0.8353,1.9286,-2.9752,-0.0288,-0.3374,-0.1669,
14.902358,0.1477,-0.6091,-0.1853,-0.8583,1.8966,-2.9196,-0.0288,-0.3374,-0.1669,
14.939893,0.1477,-0.6091,-0.1853,-0.8583,1.8966,-2.9196,0.0490,-0.3598,-0.2947,
14.941988,0.1477,-0.6091,-0.1853,0.8314,2.9214,-0.5319,0.0490,-0.3598,-0.2947,
14.943593,-0.0145,-0.7608,-0.3795,0.8314,2.9214,-0.5319,0.0490,-0.3598,-0.2947,
14.944588,-0.1527,-1.2035,-0.4836,0.8314,2.9214,-0.5319,0.0490,-0.3598,-0.2947,
14.946006,0.0371,-1.7016,-0.6094,0.8314,2.9214,-0.5319,0.0490,-0.3598,-0.2947,
14.947003,0.2455,-1.6730,-0.6648,0.8314,2.9214,-0.5319,0.0490,-0.3598,-0.2947,
14.978668,0.2455,-1.6730,-0.6648,0.8314,2.9214,-0.5319,-1.1889,0.5713,-0.4481,
14.981124,0.2455,-1.6730,-0.6648,0.4474,-5.5295,-3.3156,-1.1889,0.5713,-0.4481,
15.018354,-0.1716,-1.4253,0.1047,0.4474,-5.5295,-3.3156,-1.1889,0.5713,-0.4481,
15.020571,-0.4027,-1.0938,0.5384,0.4474,-5.5295,-3.3156,-1.1889,0.5713,-0.4481,
15.021924,-0.3370,-0.9286,0.4262,0.4474,-5.5295,-3.3156,-1.1889,0.5713,-0.4481,
15.023580,-0.3370,-0.9286,0.4262,0.4474,-5.5295,-3.3156,-0.6924,-0.0391,-0.2553,
15.024722,-0.3370,-0.9286,0.4262,-2.9930,-1.8755,6.0747,-0.6924,-0.0391,-0.2553,
15.056809,-0.3370,-0.9286,0.4262,-2.9930,-1.8755,6.0747,0.5294,0.1324,0.2912,
15.058588,-0.3370,-0.9286,0.4262,-0.1967,-4.5887,-3.2540,0.5294,0.1324,0.2912,
15.096251,-0.3370,-0.9286,0.4262,-0.1967,-4.5887,-3.2540,-0.5763,0.6959,0.2401,
15.097514,-0.3370,-0.9286,0.4262,-0.1732,-4.5704,-2.9839,-0.5763,0.6959,0.2401,
15.098123,-0.6421,-1.7141,-0.3646,-0.1732,-4.5704,-2.9839,-0.5763,0.6959,0.2401,
15.098664,0.0246,-1.5465,-1.2473,-0.1732,-4.5704,-2.9839,-0.5763,0.6959,0.2401,
15.099240,0.5320,-1.0574,-0.1310,-0.1732,-4.5704,-2.9839,-0.5763,0.6959,0.2401,
15.099731,0.2763,-1.0371,0.6507,-0.1732,-4.5704,-2.9839,-0.5763,0.6959,0.2401,
15.100223,0.0620,-1.0864,0.3060,-0.1732,-4.5704,-2.9839,-0.5763,0.6959,0.2401,
15.136006,0.0620,-1.0864,0.3060,-0.1732,-4.5704,-2.9839,0.9065,0.2346,-0.1275,
15.137025,0.0620,-1.0864,0.3060,-0.2420,-4.4043,-3.2716,0.9065,0.2346,-0.1275,
15.175254,0.0620,-1.0864,0.3060,-0.2420,-4.4043,-3.2716,1.0876,0.3401,-0.0667,
15.176440,0.0620,-1.0864,0.3060,1.1019,-1.0463,4.2733,1.0876,0.3401,-0.0667,
15.176992,0.0104,-1.2010,-0.2393,1.1019,-1.0463,4.2733,1.0876,0.3401,-0.0667,
15.177374,0.0569,-1.2254,-0.4858,1.1019,-1.0463,4.2733,1.0876,0.3401,-0.0667,
15.177776,0.1018,-1.1126,-0.3179,1.1019,-1.0463,4.2733,1.0876,0.3401,-0.0667,
15.178181,0.0227,-0.9877,-0.1240,1.1019,-1.0463,4.2733,1.0876,0.3401,-0.0667,
15.216704,0.0227,-0.9877,-0.1240,1.1019,-1.0463,4.2733,0.7222,0.0535,-0.0028,
15.218758,0.0227,-0.9877,-0.1240,0.5410,-0.9824,-1.3596,0.7222,0.0535,-0.0028,
15.256844,0.0227,-0.9877,-0.1240,0.5410,-0.9824,-1.3596,0.7233,0.0205,0.1623,
