
time,gFx,gFy,gFz,ax,ay,az,wx,wy,wz,
0.059270,0.0000,0.0000,0.0000,0.0000,0.0000,0.0000,0.3409,-0.1095,-0.3256,
0.086640,0.2032,0.1254,0.8815,0.0000,0.0000,0.0000,0.3409,-0.1095,-0.3256,
0.087731,0.1584,0.1320,0.8804,0.0000,0.0000,0.0000,0.3409,-0.1095,-0.3256,
0.088230,0.0831,0.1318,0.9633,0.0000,0.0000,0.0000,0.3409,-0.1095,-0.3256,
0.088634,0.1004,0.1366,0.9726,0.0000,0.0000,0.0000,0.3409,-0.1095,-0.3256,
0.089089,0.0713,0.1423,0.9704,0.0000,0.0000,0.0000,0.3409,-0.1095,-0.3256,
0.089494,0.0582,0.1485,0.9858,0.0000,0.0000,0.0000,0.3409,-0.1095,-0.3256,
0.089977,0.0741,0.1750,0.9679,0.0000,0.0000,0.0000,0.3409,-0.1095,-0.3256,
0.090588,0.0754,0.1875,0.9776,0.0000,0.0000,0.0000,0.3409,-0.1095,-0.3256,
0.091063,0.0853,0.1758,0.9808,0.0000,0.0000,0.0000,0.3409,-0.1095,-0.3256,
0.091488,0.0653,0.1625,0.9602,0.0000,0.0000,0.0000,0.3409,-0.1095,-0.3256,
0.091941,0.0552,0.1577,0.9354,0.0000,0.0000,0.0000,0.3409,-0.1095,-0.3256,
0.092352,0.0493,0.1627,0.9413,0.0000,0.0000,0.0000,0.3409,-0.1095,-0.3256,
0.101103,0.0493,0.1627,0.9413,0.0000,0.0000,0.0000,0.3153,0.0248,-0.1935,
0.139861,0.0493,0.1627,0.9413,0.0000,0.0000,0.0000,0.2940,0.1792,-0.0177,
0.143199,0.0493,0.1627,0.9413,0.0000,0.0000,-0.0000,0.2940,0.1792,-0.0177,
0.164109,0.0488,0.1658,0.9532,0.0000,0.0000,-0.0000,0.2940,0.1792,-0.0177,
0.165056,0.0600,0.1950,0.9152,0.0000,0.0000,-0.0000,0.2940,0.1792,-0.0177,
0.165497,0.0740,0.2580,0.8933,0.0000,0.0000,-0.0000,0.2940,0.1792,-0.0177,
0.165897,0.0912,0.3044,0.8932,0.0000,0.0000,-0.0000,0.2940,0.1792,-0.0177,
0.178235,0.0912,0.3044,0.8932,0.0000,0.0000,-0.0000,0.1672,0.1579,-0.0156,
0.179213,0.0912,0.3044,0.8932,0.1041,0.2998,-0.1656,0.1672,0.1579,-0.0156,
0.218799,0.0912,0.3044,0.8932,0.2113,0.7335,0.1002,0.1672,0.1579,-0.0156,
0.219863,0.0912,0.3044,0.8932,0.2113,0.7335,0.1002,0.0138,0.1505,-0.1850,
0.242196,0.0916,0.3159,0.9162,0.2113,0.7335,0.1002,0.0138,0.1505,-0.1850,
0.243102,0.0723,0.3072,0.9683,0.2113,0.7335,0.1002,0.0138,0.1505,-0.1850,
0.243595,0.0764,0.3087,0.9962,0.2113,0.7335,0.1002,0.0138,0.1505,-0.1850,
0.244074,0.0646,0.3067,1.0233,0.2113,0.7335,0.1002,0.0138,0.1505,-0.1850,
0.257465,0.0646,0.3067,1.0233,0.2113,0.7335,0.1002,0.1118,0.3007,-0.2340,
0.258328,0.0646,0.3067,1.0233,0.2278,0.4587,0.0695,0.1118,0.3007,-0.2340,
0.297525,0.0646,0.3067,1.0233,0.2278,0.4587,0.0695,0.2823,0.2943,-0.2436,
0.298570,0.0646,0.3067,1.0233,0.0557,0.2097,0.6228,0.2823,0.2943,-0.2436,
0.306691,0.0437,0.2987,1.0196,0.0557,0.2097,0.6228,0.2823,0.2943,-0.2436,
0.307830,0.0302,0.3002,1.0102,0.0557,0.2097,0.6228,0.2823,0.2943,-0.2436,
0.308243,0.0263,0.2941,1.0140,0.0557,0.2097,0.6228,0.2823,0.2943,-0.2436,
0.336493,0.0263,0.2941,1.0140,0.0557,0.2097,0.6228,0.3504,0.2037,-0.1637,
0.338760,0.0263,0.2941,1.0140,0.1120,0.0580,0.4940,0.3504,0.2037,-0.1637,
0.376696,0.0263,0.2941,1.0140,0.1120,0.0580,0.4940,0.4815,0.6693,0.0877,
0.377704,0.0263,0.2941,1.0140,0.0198,-0.1875,0.7164,0.4815,0.6693,0.0877,
0.378275,0.0159,0.2884,1.0758,0.0198,-0.1875,0.7164,0.4815,0.6693,0.0877,
0.378787,-0.0001,0.2895,1.1386,0.0198,-0.1875,0.7164,0.4815,0.6693,0.0877,
0.379240,-0.0376,0.3078,1.0973,0.0198,-0.1875,0.7164,0.4815,0.6693,0.0877,
0.379643,-0.0383,0.3297,0.9299,0.0198,-0.1875,0.7164,0.4815,0.6693,0.0877,
0.416138,-0.0383,0.3297,0.9299,0.0198,-0.1875,0.7164,0.4293,0.1718,0.1335,
0.417393,-0.0383,0.3297,0.9299,-0.3210,-0.0540,0.2598,0.4293,0.1718,0.1335,
0.455176,-0.0383,0.3297,0.9299,-0.3210,-0.0540,0.2598,0.0128,-0.5409,-0.3767,
0.456220,-0.0383,0.3297,0.9299,0.4660,-0.0612,0.7552,0.0128,-0.5409,-0.3767,
0.457664,0.0250,0.3671,0.8462,0.4660,-0.0612,0.7552,0.0128,-0.5409,-0.3767,
0.458767,0.1085,0.3516,0.9936,0.4660,-0.0612,0.7552,0.0128,-0.5409,-0.3767,
0.459249,0.0900,0.2944,1.1813,0.4660,-0.0612,0.7552,0.0128,-0.5409,-0.3767,
0.459817,0.0028,0.2403,1.1841,0.4660,-0.0612,0.7552,0.0128,-0.5409,-0.3767,
0.494930,0.0028,0.2403,1.1841,0.4660,-0.0612,0.7552,0.1928,0.3603,-0.3650,
0.495851,0.0028,0.2403,1.1841,0.5584,-0.1191,0.6661,0.1928,0.3603,-0.3650,
0.534607,0.0028,0.2403,1.1841,0.5584,-0.1191,0.6661,0.4208,0.5212,-0.1285,
0.536855,0.0028,0.2403,1.1841,-0.5112,-1.1868,-0.0679,0.4208,0.5212,-0.1285,
0.537737,-0.0653,0.2042,1.0356,-0.5112,-1.1868,-0.0679,0.4208,0.5212,-0.1285,
0.538229,-0.0767,0.2070,0.9242,-0.5112,-1.1868,-0.0679,0.4208,0.5212,-0.1285,
0.538593,-0.0571,0.2127,0.8222,-0.5112,-1.1868,-0.0679,0.4208,0.5212,-0.1285,
0.539006,-0.0705,0.2163,0.7228,-0.5112,-1.1868,-0.0679,0.4208,0.5212,-0.1285,
0.574150,-0.0705,0.2163,0.7228,-0.5112,-1.1868,-0.0679,-0.0256,0.1963,-0.2169,
0.574736,-0.0705,0.2163,0.7228,-0.3565,-1.0287,-0.0614,-0.0256,0.1963,-0.2169,
0.612815,-0.0949,0.2036,0.6810,-0.3565,-1.0287,-0.0614,-0.0256,0.1963,-0.2169,
0.613616,-0.0920,0.1882,0.6904,-0.3565,-1.0287,-0.0614,-0.0256,0.1963,-0.2169,
0.614713,-0.0892,0.1864,0.8159,-0.3565,-1.0287,-0.0614,-0.0256,0.1963,-0.2169,
0.615274,-0.0650,0.1792,0.9442,-0.3565,-1.0287,-0.0614,-0.0256,0.1963,-0.2169,
0.615696,-0.0650,0.1792,0.9442,-0.3565,-1.0287,-0.0614,-0.5508,-0.2245,-0.1956,
0.616083,-0.0650,0.1792,0.9442,-0.5416,-0.7535,-2.5178,-0.5508,-0.2245,-0.1956,
0.653798,-0.0650,0.1792,0.9442,-0.5416,-0.7535,-2.5178,-0.4762,-0.1904,-0.1861,
0.654964,-0.0650,0.1792,0.9442,-0.5277,-0.5085,-2.2847,-0.4762,-0.1904,-0.1861,
0.690922,-0.0354,0.1810,0.9980,-0.5277,-0.5085,-2.2847,-0.4762,-0.1904,-0.1861,
0.691875,-0.0359,0.2174,0.9924,-0.5277,-0.5085,-2.2847,-0.4762,-0.1904,-0.1861,
0.692405,-0.0615,0.2412,0.9665,-0.5277,-0.5085,-2.2847,-0.4762,-0.1904,-0.1861,
0.692834,-0.0997,0.2395,0.9288,-0.5277,-0.5085,-2.2847,-0.4762,-0.1904,-0.1861,
0.693382,-0.0997,0.2395,0.9288,-0.1791,-0.1821,0.2387,-0.4762,-0.1904,-0.1861,
0.693933,-0.0997,0.2395,0.9288,-0.1791,-0.1821,0.2387,-0.3707,0.0887,-0.2691,
0.734171,-0.0997,0.2395,0.9288,-0.1791,-0.1821,0.2387,-0.4623,0.0045,-0.2585,
0.735145,-0.0997,0.2395,0.9288,-0.1400,-0.0068,0.1789,-0.4623,0.0045,-0.2585,
0.769597,-0.1298,0.2310,0.9478,-0.1400,-0.0068,0.1789,-0.4623,0.0045,-0.2585,
0.770709,-0.1222,0.2232,0.9959,-0.1400,-0.0068,0.1789,-0.4623,0.0045,-0.2585,
0.771291,-0.0972,0.2304,0.9984,-0.1400,-0.0068,0.1789,-0.4623,0.0045,-0.2585,
0.771803,-0.0682,0.2542,0.9421,-0.1400,-0.0068,0.1789,-0.4623,0.0045,-0.2585,
0.772542,-0.0682,0.2542,0.9421,-0.7701,0.1180,0.0887,-0.4623,0.0045,-0.2585,
0.772967,-0.0682,0.2542,0.9421,-0.7701,0.1180,0.0887,-0.2429,-0.1382,-0.1605,
0.812019,-0.0682,0.2542,0.9421,-0.7701,0.1180,0.0887,-0.1982,-0.0903,-0.2159,
0.812789,-0.0682,0.2542,0.9421,-0.7205,0.1790,0.0650,-0.1982,-0.0903,-0.2159,
0.847062,-0.0626,0.2801,0.8693,-0.7205,0.1790,0.0650,-0.1982,-0.0903,-0.2159,
0.847873,-0.0804,0.2741,0.8732,-0.7205,0.1790,0.0650,-0.1982,-0.0903,-0.2159,
0.848544,-0.0628,0.2439,0.9273,-0.7205,0.1790,0.0650,-0.1982,-0.0903,-0.2159,
0.848906,-0.0450,0.2447,0.9711,-0.7205,0.1790,0.0650,-0.1982,-0.0903,-0.2159,
0.851816,-0.0450,0.2447,0.9711,-0.7205,0.1790,0.0650,-0.6637,0.0312,-0.2787,
0.852784,-0.0450,0.2447,0.9711,-0.1972,0.7203,-0.5058,-0.6637,0.0312,-0.2787,
0.891350,-0.0450,0.2447,0.9711,-0.1972,0.7203,-0.5058,-1.0429,0.3028,-0.2116,
0.892292,-0.0450,0.2447,0.9711,-0.0639,1.0309,-0.5243,-1.0429,0.3028,-0.2116,
0.924799,-0.0847,0.2668,1.0990,-0.0639,1.0309,-0.5243,-1.0429,0.3028,-0.2116,
0.925735,0.0137,0.2553,1.1808,-0.0639,1.0309,-0.5243,-1.0429,0.3028,-0.2116,
0.926225,0.0098,0.2273,1.1788,-0.0639,1.0309,-0.5243,-1.0429,0.3028,-0.2116,
0.926628,-0.1755,0.1814,1.1442,-0.0639,1.0309,-0.5243,-1.0429,0.3028,-0.2116,
0.931178,-0.1755,0.1814,1.1442,-0.0639,1.0309,-0.5243,-1.0397,0.8397,-0.1861,
0.932028,-0.1755,0.1814,1.1442,0.6633,1.0928,1.8102,-1.0397,0.8397,-0.1861,
0.971454,-0.1755,0.1814,1.1442,1.0553,1.3435,1.7058,-1.0397,0.8397,-0.1861,
0.972597,-0.1755,0.1814,1.1442,1.0553,1.3435,1.7058,-0.9364,1.2488,0.2102,
1.002712,-0.3195,0.1289,1.1505,1.0553,1.3435,1.7058,-0.9364,1.2488,0.2102,
1.003639,-0.3831,0.0732,1.1847,1.0553,1.3435,1.7058,-0.9364,1.2488,0.2102,
1.004435,-0.3554,0.0364,1.2223,1.0553,1.3435,1.7058,-0.9364,1.2488,0.2102,
1.004888,0.0217,0.1682,1.4425,1.0553,1.3435,1.7058,-0.9364,1.2488,0.2102,
1.010176,0.0217,0.1682,1.4425,1.0553,1.3435,1.7058,-0.1161,-0.0882,1.0134,
1.010893,0.0217,0.1682,1.4425,-1.9312,-0.0067,1.6082,-0.1161,-0.0882,1.0134,
1.049737,0.0217,0.1682,1.4425,-1.9312,-0.0067,1.6082,1.2293,0.6352,-0.0944,
1.050706,0.0217,0.1682,1.4425,-1.5734,-0.4478,1.5992,1.2293,0.6352,-0.0944,
1.080570,0.0443,0.3652,1.3427,-1.5734,-0.4478,1.5992,1.2293,0.6352,-0.0944,
1.081469,-0.2739,0.1920,0.9946,-1.5734,-0.4478,1.5992,1.2293,0.6352,-0.0944,
1.081961,-0.2920,0.1108,0.9056,-1.5734,-0.4478,1.5992,1.2293,0.6352,-0.0944,
1.082666,-0.2392,0.1615,0.6582,-1.5734,-0.4478,1.5992,1.2293,0.6352,-0.0944,
1.089478,-0.2392,0.1615,0.6582,-1.5734,-0.4478,1.5992,1.7768,0.3987,-1.0542,
1.090263,-0.2392,0.1615,0.6582,1.1707,0.1442,2.8554,1.7768,0.3987,-1.0542,
1.128708,-0.2392,0.1615,0.6582,1.1707,0.1442,2.8554,1.0098,-1.3728,-0.7964,
1.129720,-0.2392,0.1615,0.6582,0.6630,-0.1851,2.6868,1.0098,-1.3728,-0.7964,
1.158625,-0.1928,0.2403,0.5479,0.6630,-0.1851,2.6868,1.0098,-1.3728,-0.7964,
1.159248,-0.1608,0.2805,0.6283,0.6630,-0.1851,2.6868,1.0098,-1.3728,-0.7964,
1.159852,-0.1817,0.2409,0.6211,0.6630,-0.1851,2.6868,1.0098,-1.3728,-0.7964,
1.160266,-0.1244,0.1264,0.8745,0.6630,-0.1851,2.6868,1.0098,-1.3728,-0.7964,
1.169388,-0.1244,0.1264,0.8745,0.6630,-0.1851,2.6868,0.0884,-2.8504,-0.8838,
1.170444,-0.1244,0.1264,0.8745,-1.3425,-0.0123,-3.4830,0.0884,-2.8504,-0.8838,
1.208263,-0.1244,0.1264,0.8745,-1.3425,-0.0123,-3.4830,0.1480,-3.2605,-0.9051,
1.209071,-0.1244,0.1264,0.8745,-2.4060,-0.0737,-3.2604,0.1480,-3.2605,-0.9051,
1.237283,0.1774,0.0154,0.8965,-2.4060,-0.0737,-3.2604,0.1480,-3.2605,-0.9051,
1.238778,0.3775,-0.0472,1.1651,-2.4060,-0.0737,-3.2604,0.1480,-3.2605,-0.9051,
1.239554,0.4829,0.0336,1.1538,-2.4060,-0.0737,-3.2604,0.1480,-3.2605,-0.9051,
1.247952,0.4829,0.0336,1.1538,-2.4060,-0.0737,-3.2604,1.6522,-4.2097,-1.0574,
1.248891,0.4829,0.0336,1.1538,0.3216,-2.9033,0.7919,1.6522,-4.2097,-1.0574,
1.287783,0.4829,0.0336,1.1538,0.3216,-2.9033,0.7919,2.3958,-1.9353,-0.7549,
1.288709,0.4829,0.0336,1.1538,1.2359,-2.7454,-0.5413,2.3958,-1.9353,-0.7549,
1.314320,0.4602,0.0515,0.9774,1.2359,-2.7454,-0.5413,2.3958,-1.9353,-0.7549,
1.315174,0.4008,0.1002,0.8153,1.2359,-2.7454,-0.5413,2.3958,-1.9353,-0.7549,
1.315718,0.2712,0.3283,0.3347,1.2359,-2.7454,-0.5413,2.3958,-1.9353,-0.7549,
1.316254,0.3725,0.4286,0.4624,1.2359,-2.7454,-0.5413,2.3958,-1.9353,-0.7549,
1.327990,0.3725,0.4286,0.4624,1.2359,-2.7454,-0.5413,1.3305,-2.8653,-0.9935,
1.330210,0.3725,0.4286,0.4624,0.4123,-3.1653,0.0385,1.3305,-2.8653,-0.9935,
1.367636,0.3725,0.4286,0.4624,0.4123,-3.1653,0.0385,0.3600,-3.0570,-1.1459,
1.368760,0.3725,0.4286,0.4624,-0.5708,-0.6702,-1.9422,0.3600,-3.0570,-1.1459,
1.392353,0.4212,0.3578,0.7129,-0.5708,-0.6702,-1.9422,0.3600,-3.0570,-1.1459,
1.393203,0.4641,0.3913,0.8259,-0.5708,-0.6702,-1.9422,0.3600,-3.0570,-1.1459,
1.393638,0.4223,0.4765,0.7404,-0.5708,-0.6702,-1.9422,0.3600,-3.0570,-1.1459,
1.394137,0.4200,0.4364,0.6515,-0.5708,-0.6702,-1.9422,0.3600,-3.0570,-1.1459,
1.407077,0.4200,0.4364,0.6515,-0.5708,-0.6702,-1.9422,-0.6616,-0.8477,-0.7400,
1.408544,0.4200,0.4364,0.6515,-0.5149,0.0516,-0.4342,-0.6616,-0.8477,-0.7400,
1.446541,0.4200,0.4364,0.6515,-0.5149,0.0516,-0.4342,-1.1793,0.1803,-0.1637,
1.447435,0.4200,0.4364,0.6515,-1.5577,1.0774,0.2758,-1.1793,0.1803,-0.1637,
1.471497,0.2681,0.5049,0.7606,-1.5577,1.0774,0.2758,-1.1793,0.1803,-0.1637,
1.473213,0.2207,0.5672,0.8557,-1.5577,1.0774,0.2758,-1.1793,0.1803,-0.1637,
1.475339,0.2736,0.5514,0.8137,-1.5577,1.0774,0.2758,-1.1793,0.1803,-0.1637,
1.476579,0.4783,0.4146,0.7819,-1.5577,1.0774,0.2758,-1.1793,0.1803,-0.1637,
1.488331,0.4783,0.4146,0.7819,-1.5878,1.3370,0.1632,-1.1793,0.1803,-0.1637,
1.490153,0.4783,0.4146,0.7819,-1.5878,1.3370,0.1632,-0.8267,-0.1414,0.3551,
1.526875,0.4783,0.4146,0.7819,-1.5878,1.3370,0.1632,-0.8299,0.1249,0.2656,
1.528690,0.4783,0.4146,0.7819,0.6178,0.5961,1.2512,-0.8299,0.1249,0.2656,
1.544496,0.4628,0.4266,0.8690,0.6178,0.5961,1.2512,-0.8299,0.1249,0.2656,
1.546093,0.5137,0.4506,1.0116,0.6178,0.5961,1.2512,-0.8299,0.1249,0.2656,
1.547251,0.6144,0.3738,1.1671,0.6178,0.5961,1.2512,-0.8299,0.1249,0.2656,
1.565717,0.6144,0.3738,1.1671,0.6178,0.5961,1.2512,-0.2088,0.9196,0.0046,
1.567578,0.6144,0.3738,1.1671,0.8783,0.6377,1.0244,-0.2088,0.9196,0.0046,
1.606501,0.6144,0.3738,1.1671,-0.2397,0.0892,1.5744,-0.2088,0.9196,0.0046,
1.608161,0.6144,0.3738,1.1671,-0.2397,0.0892,1.5744,0.3643,0.8333,0.2315,
1.624979,0.4084,0.4052,1.0773,-0.2397,0.0892,1.5744,0.3643,0.8333,0.2315,
1.626392,0.2521,0.3601,0.9682,-0.2397,0.0892,1.5744,0.3643,0.8333,0.2315,
1.627446,0.3368,0.4106,0.8787,-0.2397,0.0892,1.5744,0.3643,0.8333,0.2315,
1.628667,0.3770,0.4290,0.8883,-0.2397,0.0892,1.5744,0.3643,0.8333,0.2315,
1.629861,0.2777,0.3816,0.7807,-0.2397,0.0892,1.5744,0.3643,0.8333,0.2315,
1.645107,0.2777,0.3816,0.7807,-0.2397,0.0892,1.5744,0.3110,0.8099,0.3029,
1.646904,0.2777,0.3816,0.7807,-0.0111,0.0287,1.4410,0.3110,0.8099,0.3029,
1.684745,0.2777,0.3816,0.7807,-0.0111,0.0287,1.4410,0.1747,0.9143,0.4520,
1.686754,0.2777,0.3816,0.7807,-0.2895,0.3241,-0.5202,0.1747,0.9143,0.4520,
1.700530,0.2527,0.4048,0.7701,-0.2895,0.3241,-0.5202,0.1747,0.9143,0.4520,
1.702738,0.3695,0.3939,0.8292,-0.2895,0.3241,-0.5202,0.1747,0.9143,0.4520,
1.704049,0.3695,0.4162,0.8533,-0.2895,0.3241,-0.5202,0.1747,0.9143,0.4520,
1.705020,0.3443,0.4063,0.8836,-0.2895,0.3241,-0.5202,0.1747,0.9143,0.4520,
1.724668,0.3443,0.4063,0.8836,-0.2895,0.3241,-0.5202,0.0788,1.2956,0.4084,
1.726330,0.3443,0.4063,0.8836,0.4448,0.2895,-0.5608,0.0788,1.2956,0.4084,
1.764238,0.3443,0.4063,0.8836,0.4448,0.2895,-0.5608,-0.1342,1.4022,0.4201,
1.767438,0.3443,0.4063,0.8836,0.3594,0.0957,-0.2892,-0.1342,1.4022,0.4201,
1.768795,0.2651,0.3972,0.8490,0.3594,0.0957,-0.2892,-0.1342,1.4022,0.4201,
1.770007,0.2918,0.3630,0.8732,0.3594,0.0957,-0.2892,-0.1342,1.4022,0.4201,
1.771334,0.3745,0.3385,1.0217,0.3594,0.0957,-0.2892,-0.1342,1.4022,0.4201,
1.804826,0.3745,0.3385,1.0217,0.3594,0.0957,-0.2892,-0.1683,1.1763,0.3658,
1.806716,0.3745,0.3385,1.0217,0.7032,0.1843,-0.4107,-0.1683,1.1763,0.3658,
1.845198,0.3745,0.3385,1.0217,0.7032,0.1843,-0.4107,0.0777,0.6320,0.3072,
1.847676,0.3745,0.3385,1.0217,0.7386,-0.4667,0.9065,0.0777,0.6320,0.3072,
1.849095,0.3289,0.3188,1.0734,0.7386,-0.4667,0.9065,0.0777,0.6320,0.3072,
1.850208,0.2397,0.2935,0.9979,0.7386,-0.4667,0.9065,0.0777,0.6320,0.3072,
1.851896,0.2173,0.2814,0.9350,0.7386,-0.4667,0.9065,0.0777,0.6320,0.3072,
1.853238,0.1929,0.2841,0.9035,0.7386,-0.4667,0.9065,0.0777,0.6320,0.3072,
1.883081,0.1929,0.2841,0.9035,0.7386,-0.4667,0.9065,0.1214,0.2325,0.3828,
1.885018,0.1929,0.2841,0.9035,0.7442,-0.4634,0.8741,0.1214,0.2325,0.3828,
1.922471,0.1929,0.2841,0.9035,0.7442,-0.4634,0.8741,0.6221,-1.2589,0.3018,
1.924731,0.1929,0.2841,0.9035,-0.0336,-0.3797,-1.7956,0.6221,-1.2589,0.3018,
1.926270,0.1954,0.3259,0.8248,-0.0336,-0.3797,-1.7956,0.6221,-1.2589,0.3018,
1.928143,0.1144,0.3399,0.7301,-0.0336,-0.3797,-1.7956,0.6221,-1.2589,0.3018,
1.929314,0.1104,0.3004,0.5920,-0.0336,-0.3797,-1.7956,0.6221,-1.2589,0.3018,
1.930671,0.3961,0.3163,0.7791,-0.0336,-0.3797,-1.7956,0.6221,-1.2589,0.3018,
1.962808,0.3961,0.3163,0.7791,-0.0336,-0.3797,-1.7956,1.6021,-2.5755,-0.0635,
1.965948,0.3961,0.3163,0.7791,-0.8771,-0.9076,-1.1972,1.6021,-2.5755,-0.0635,
2.001423,0.4493,0.4428,0.9212,-0.8771,-0.9076,-1.1972,1.6021,-2.5755,-0.0635,
2.003885,0.4377,0.3989,0.7609,-0.8771,-0.9076,-1.1972,1.6021,-2.5755,-0.0635,
2.005040,0.4459,0.3566,0.6621,-0.8771,-0.9076,-1.1972,1.6021,-2.5755,-0.0635,
2.006329,0.4177,0.4058,0.7253,-0.8771,-0.9076,-1.1972,1.6021,-2.5755,-0.0635,
2.007943,0.4177,0.4058,0.7253,-0.8771,-0.9076,-1.1972,0.9821,-1.1683,-0.1168,
2.009463,0.4177,0.4058,0.7253,0.5207,-0.6708,-0.7527,0.9821,-1.1683,-0.1168,
2.044055,0.4177,0.4058,0.7253,0.5207,-0.6708,-0.7527,0.2088,-0.0391,0.0419,
2.046166,0.4177,0.4058,0.7253,0.4855,-0.7079,-0.6877,0.2088,-0.0391,0.0419,
2.079767,0.4183,0.5672,0.6256,0.4855,-0.7079,-0.6877,0.2088,-0.0391,0.0419,
2.081938,0.4040,0.5071,0.5586,0.4855,-0.7079,-0.6877,0.2088,-0.0391,0.0419,
2.083068,0.3806,0.3546,0.7297,0.4855,-0.7079,-0.6877,0.2088,-0.0391,0.0419,
2.083968,0.3782,0.4581,0.8557,0.4855,-0.7079,-0.6877,0.2088,-0.0391,0.0419,
2.085122,0.3782,0.4581,0.8557,0.4855,-0.7079,-0.6877,0.0074,-0.2575,-0.0156,
2.086188,0.3782,0.4581,0.8557,0.0625,0.2060,-1.4984,0.0074,-0.2575,-0.0156,
2.120877,0.3782,0.4581,0.8557,0.0625,0.2060,-1.4984,0.7521,-1.3452,-0.0806,
2.122617,0.3782,0.4581,0.8557,-0.3195,-0.0333,-1.1063,0.7521,-1.3452,-0.0806,
2.163021,0.3782,0.4581,0.8557,-1.0326,-0.6351,1.1951,0.7521,-1.3452,-0.0806,
2.165137,0.4106,0.5218,0.8138,-1.0326,-0.6351,1.1951,0.7521,-1.3452,-0.0806,
2.166238,0.4475,0.4924,0.6725,-1.0326,-0.6351,1.1951,0.7521,-1.3452,-0.0806,
2.167483,0.4860,0.4626,0.5133,-1.0326,-0.6351,1.1951,0.7521,-1.3452,-0.0806,
2.168739,0.4860,0.4626,0.5133,-1.0326,-0.6351,1.1951,1.4306,-2.7715,-0.4300,
2.200462,0.4860,0.4626,0.5133,-1.0326,-0.6351,1.1951,0.8735,-2.4765,-0.8902,
2.202164,0.4860,0.4626,0.5133,-0.1884,-0.7409,-0.9780,0.8735,-2.4765,-0.8902,
2.241486,0.5716,0.4996,0.4831,-0.1884,-0.7409,-0.9780,0.8735,-2.4765,-0.8902,
2.243540,0.5959,0.6095,0.3964,-0.1884,-0.7409,-0.9780,0.8735,-2.4765,-0.8902,
2.245206,0.3313,0.5509,0.3436,-0.1884,-0.7409,-0.9780,0.8735,-2.4765,-0.8902,
2.246419,0.0996,0.4893,0.2550,-0.1884,-0.7409,-0.9780,0.8735,-2.4765,-0.8902,
2.247700,0.2133,0.4143,0.1350,-0.1884,-0.7409,-0.9780,0.8735,-2.4765,-0.8902,
2.248667,0.2133,0.4143,0.1350,-0.1884,-0.7409,-0.9780,0.1587,-1.6924,-0.5141,
2.249761,0.2133,0.4143,0.1350,-2.9102,-0.6629,-2.6723,0.1587,-1.6924,-0.5141,
2.281853,0.2133,0.4143,0.1350,-3.3765,-0.6633,-1.9576,0.1587,-1.6924,-0.5141,
2.283823,0.2133,0.4143,0.1350,-3.3765,-0.6633,-1.9576,0.1704,-2.6831,0.0643,
2.317378,0.4059,0.3754,0.1632,-3.3765,-0.6633,-1.9576,0.1704,-2.6831,0.0643,
2.320236,0.4636,0.3230,0.1291,-3.3765,-0.6633,-1.9576,0.1704,-2.6831,0.0643,
2.321847,0.2832,0.2857,0.1379,-3.3765,-0.6633,-1.9576,0.1704,-2.6831,0.0643,
2.323087,0.2019,0.1507,0.1544,-3.3765,-0.6633,-1.9576,0.1704,-2.6831,0.0643,
2.324526,0.2019,0.1507,0.1544,-3.3765,-0.6633,-1.9576,0.0575,-3.1487,-0.0880,
2.325516,0.2019,0.1507,0.1544,-2.6531,-2.3093,-2.4517,0.0575,-3.1487,-0.0880,
2.359119,0.2019,0.1507,0.1544,-2.6531,-2.3093,-2.4517,0.9076,-4.3876,0.2582,
2.362652,0.2019,0.1507,0.1544,-3.1816,-2.2895,-1.0339,0.9076,-4.3876,0.2582,
2.394540,0.1066,-0.0032,0.2364,-3.1816,-2.2895,-1.0339,0.9076,-4.3876,0.2582,
2.397410,0.0393,-0.1411,0.2112,-3.1816,-2.2895,-1.0339,0.9076,-4.3876,0.2582,
2.398755,0.2048,-0.2392,0.0453,-3.1816,-2.2895,-1.0339,0.9076,-4.3876,0.2582,
2.399829,0.6012,-0.1605,0.0767,-3.1816,-2.2895,-1.0339,0.9076,-4.3876,0.2582,
2.402929,0.6012,-0.1605,0.0767,-6.1279,-4.4996,1.1386,0.9076,-4.3876,0.2582,
2.404441,0.6012,-0.1605,0.0767,-6.1279,-4.4996,1.1386,1.9462,-4.3641,1.6441,
2.439094,0.6012,-0.1605,0.0767,-6.1279,-4.4996,1.1386,2.3052,-3.4629,2.1565,
2.440724,0.6012,-0.1605,0.0767,-6.3872,-3.7419,2.5765,2.3052,-3.4629,2.1565,
2.474835,0.7121,-0.1200,0.1653,-6.3872,-3.7419,2.5765,2.3052,-3.4629,2.1565,
2.478387,0.4883,-0.3398,0.1083,-6.3872,-3.7419,2.5765,2.3052,-3.4629,2.1565,
2.479882,0.4772,-0.5419,-0.0519,-6.3872,-3.7419,2.5765,2.3052,-3.4629,2.1565,
2.481375,1.1347,-0.5391,-0.1270,-6.3872,-3.7419,2.5765,2.3052,-3.4629,2.1565,
2.482803,1.1347,-0.5391,-0.1270,-2.3110,-7.1695,2.0217,2.3052,-3.4629,2.1565,
2.484208,1.1347,-0.5391,-0.1270,-2.3110,-7.1695,2.0217,2.1593,-2.4988,3.3634,
2.517788,1.1347,-0.5391,-0.1270,-2.3110,-7.1695,2.0217,1.2293,-1.0288,4.6470,
2.519211,1.1347,-0.5391,-0.1270,-2.5950,-5.4143,2.4167,1.2293,-1.0288,4.6470,
2.549873,1.8557,-0.4600,-0.0005,-2.5950,-5.4143,2.4167,1.2293,-1.0288,4.6470,
2.551242,1.9111,-0.4074,0.1124,-2.5950,-5.4143,2.4167,1.2293,-1.0288,4.6470,
2.551880,1.7429,-0.5733,-0.1291,-2.5950,-5.4143,2.4167,1.2293,-1.0288,4.6470,
2.552621,1.8688,-0.6524,-0.3797,-2.5950,-5.4143,2.4167,1.2293,-1.0288,4.6470,
2.556442,1.8688,-0.6524,-0.3797,-2.5950,-5.4143,2.4167,1.7800,-0.8338,4.0910,
2.558054,1.8688,-0.6524,-0.3797,8.7765,-4.2637,2.4758,1.7800,-0.8338,4.0910,
2.597225,1.8688,-0.6524,-0.3797,8.7765,-4.2637,2.4758,1.8589,-0.7252,4.4106,
2.599315,1.8688,-0.6524,-0.3797,8.8220,-2.5325,2.5779,1.8589,-0.7252,4.4106,
2.637127,2.2426,-0.5035,-0.2990,8.8220,-2.5325,2.5779,1.8589,-0.7252,4.4106,
2.639307,2.5617,-0.2323,-0.1772,8.8220,-2.5325,2.5779,1.8589,-0.7252,4.4106,
2.640733,2.3889,-0.2546,-0.1094,8.8220,-2.5325,2.5779,1.8589,-0.7252,4.4106,
2.642165,2.3889,-0.2546,-0.1094,8.8220,-2.5325,2.5779,1.6277,0.3220,3.4199,
2.643426,2.3889,-0.2546,-0.1094,11.9654,-1.9408,-0.6557,1.6277,0.3220,3.4199,
2.676054,2.3889,-0.2546,-0.1094,11.9654,-1.9408,-0.6557,2.0943,1.0112,2.4388,
2.677625,2.3889,-0.2546,-0.1094,13.1202,1.9800,-0.9802,2.0943,1.0112,2.4388,
2.715718,2.3889,-0.2546,-0.1094,9.2785,5.2892,-10.9799,2.0943,1.0112,2.4388,
2.726077,2.0238,-0.2507,-0.3328,9.2785,5.2892,-10.9799,2.0943,1.0112,2.4388,
2.727661,1.8710,-0.1573,-0.6175,9.2785,5.2892,-10.9799,2.0943,1.0112,2.4388,
2.728482,1.7282,-0.1236,-0.9831,9.2785,5.2892,-10.9799,2.0943,1.0112,2.4388,
2.729282,1.7655,0.1947,-1.6319,9.2785,5.2892,-10.9799,2.0943,1.0112,2.4388,
2.730064,1.8777,0.1763,-1.0810,9.2785,5.2892,-10.9799,2.0943,1.0112,2.4388,
2.731406,1.8777,0.1763,-1.0810,9.2785,5.2892,-10.9799,-0.1023,3.0001,2.4079,
2.754320,1.8777,0.1763,-1.0810,9.2785,5.2892,-10.9799,-0.6307,1.8315,0.8675,
2.756892,1.8777,0.1763,-1.0810,9.1993,5.4395,-11.2038,-0.6307,1.8315,0.8675,
2.784132,1.1159,-0.3469,-0.4637,9.1993,5.4395,-11.2038,-0.6307,1.8315,0.8675,
2.785851,0.9690,-0.6674,0.1090,9.1993,5.4395,-11.2038,-0.6307,1.8315,0.8675,
2.787939,1.0343,-0.5757,-0.0973,9.1993,5.4395,-11.2038,-0.6307,1.8315,0.8675,
2.793421,1.0343,-0.5757,-0.0973,9.1993,5.4395,-11.2038,2.0911,-1.1268,0.0803,
2.795379,1.0343,-0.5757,-0.0973,2.8455,1.0389,-1.9496,2.0911,-1.1268,0.0803,
2.833805,1.0343,-0.5757,-0.0973,2.8455,1.0389,-1.9496,2.1454,-0.6655,0.2411,
2.835418,1.0343,-0.5757,-0.0973,0.5799,-0.7652,-0.2625,2.1454,-0.6655,0.2411,
2.860185,0.9998,-0.6187,-0.1393,0.5799,-0.7652,-0.2625,2.1454,-0.6655,0.2411,
2.861970,0.8270,-0.6461,-0.0248,0.5799,-0.7652,-0.2625,2.1454,-0.6655,0.2411,
2.863143,0.9154,-0.5603,0.1902,0.5799,-0.7652,-0.2625,2.1454,-0.6655,0.2411,
2.864479,0.7661,-0.5557,0.2511,0.5799,-0.7652,-0.2625,2.1454,-0.6655,0.2411,
2.876167,0.7661,-0.5557,0.2511,0.5799,-0.7652,-0.2625,2.1689,0.3497,0.1964,
2.878474,0.7661,-0.5557,0.2511,0.6077,-0.6703,-0.8187,2.1689,0.3497,0.1964,
2.913317,0.7661,-0.5557,0.2511,0.6077,-0.6703,-0.8187,2.4330,0.0194,0.5117,
2.916125,0.7661,-0.5557,0.2511,-1.7926,0.5027,0.0794,2.4330,0.0194,0.5117,
2.940235,0.5491,-0.4973,0.0070,-1.7926,0.5027,0.0794,2.4330,0.0194,0.5117,
2.942135,0.4088,-0.3806,-0.2617,-1.7926,0.5027,0.0794,2.4330,0.0194,0.5117,
2.943306,0.5809,-0.2744,-0.2933,-1.7926,0.5027,0.0794,2.4330,0.0194,0.5117,
2.944816,0.3974,-0.3192,-0.4369,-1.7926,0.5027,0.0794,2.4330,0.0194,0.5117,
2.952665,0.3974,-0.3192,-0.4369,-1.7926,0.5027,0.0794,1.5925,-0.5132,0.6523,
2.954880,0.3974,-0.3192,-0.4369,-3.2302,2.6788,-3.8653,1.5925,-0.5132,0.6523,
2.992786,0.3974,-0.3192,-0.4369,-3.2302,2.6788,-3.8653,0.9619,0.0493,-0.0603,
2.994666,0.3974,-0.3192,-0.4369,-4.3829,1.7673,-4.0982,0.9619,0.0493,-0.0603,
3.009019,0.5978,-0.2768,-0.2967,-4.3829,1.7673,-4.0982,0.9619,0.0493,-0.0603,
3.010948,0.5285,-0.2985,-0.1753,-4.3829,1.7673,-4.0982,0.9619,0.0493,-0.0603,
3.012570,0.1630,-0.4774,-0.3931,-4.3829,1.7673,-4.0982,0.9619,0.0493,-0.0603,
3.032483,0.1630,-0.4774,-0.3931,-4.3829,1.7673,-4.0982,0.7606,-0.0114,0.2326,
3.034663,0.1630,-0.4774,-0.3931,-4.2458,1.7750,-4.1757,0.7606,-0.0114,0.2326,
3.072083,0.1630,-0.4774,-0.3931,-4.2458,1.7750,-4.1757,0.9214,-0.3683,0.1335,
3.074118,0.1630,-0.4774,-0.3931,2.6386,-3.5808,3.0620,0.9214,-0.3683,0.1335,
3.085354,0.4490,-0.4732,-0.4485,2.6386,-3.5808,3.0620,0.9214,-0.3683,0.1335,
3.088364,1.2502,-0.7873,0.2506,2.6386,-3.5808,3.0620,0.9214,-0.3683,0.1335,
3.089902,1.1321,-1.1802,0.7358,2.6386,-3.5808,3.0620,0.9214,-0.3683,0.1335,
3.091379,1.0254,-1.0483,0.7386,2.6386,-3.5808,3.0620,0.9214,-0.3683,0.1335,
3.092143,1.1606,-1.0406,1.0926,2.6386,-3.5808,3.0620,0.9214,-0.3683,0.1335,
3.110838,1.1606,-1.0406,1.0926,2.6386,-3.5808,3.0620,1.2346,-0.4770,0.3242,
3.112240,1.1606,-1.0406,1.0926,2.6354,-3.4683,2.8797,1.2346,-0.4770,0.3242,
3.150269,1.1606,-1.0406,1.0926,2.6354,-3.4683,2.8797,0.5007,0.8472,0.4116,
3.151677,1.1606,-1.0406,1.0926,1.9252,-2.3808,4.0645,0.5007,0.8472,0.4116,
3.162872,1.0068,-0.8194,0.4933,1.9252,-2.3808,4.0645,0.5007,0.8472,0.4116,
3.164454,0.7368,-0.4159,-0.3724,1.9252,-2.3808,4.0645,0.5007,0.8472,0.4116,
3.165243,1.1070,-0.3199,0.0915,1.9252,-2.3808,4.0645,0.5007,0.8472,0.4116,
3.165983,0.7059,-0.4300,0.1571,1.9252,-2.3808,4.0645,0.5007,0.8472,0.4116,
3.191525,0.7059,-0.4300,0.1571,1.9252,-2.3808,4.0645,-0.4506,0.6831,0.2038,
3.192860,0.7059,-0.4300,0.1571,1.9838,-2.2407,3.8834,-0.4506,0.6831,0.2038,
3.229553,0.7059,-0.4300,0.1571,1.9838,-2.2407,3.8834,-0.6051,0.7705,0.3721,
3.231685,0.7059,-0.4300,0.1571,0.7540,2.3711,-1.8450,-0.6051,0.7705,0.3721,
3.244047,0.7298,-0.3742,0.2623,0.7540,2.3711,-1.8450,-0.6051,0.7705,0.3721,
3.246063,0.8648,-0.4654,0.1877,0.7540,2.3711,-1.8450,-0.6051,0.7705,0.3721,
3.247561,0.8335,-0.5895,0.2094,0.7540,2.3711,-1.8450,-0.6051,0.7705,0.3721,
3.249093,0.7484,-0.7401,0.2955,0.7540,2.3711,-1.8450,-0.6051,0.7705,0.3721,
3.269517,0.7484,-0.7401,0.2955,0.7540,2.3711,-1.8450,-0.7766,0.4349,0.2614,
3.271499,0.7484,-0.7401,0.2955,0.5008,0.9495,0.2267,-0.7766,0.4349,0.2614,
3.308821,0.7484,-0.7401,0.2955,0.5008,0.9495,0.2267,-0.1619,-0.7518,0.3476,
3.310261,0.7484,-0.7401,0.2955,0.0076,-1.9608,1.1872,-0.1619,-0.7518,0.3476,
3.311783,0.7268,-0.8712,0.4193,0.0076,-1.9608,1.1872,-0.1619,-0.7518,0.3476,
3.313216,0.8735,-0.9607,0.2611,0.0076,-1.9608,1.1872,-0.1619,-0.7518,0.3476,
3.314443,0.6444,-0.5845,0.1080,0.0076,-1.9608,1.1872,-0.1619,-0.7518,0.3476,
3.354390,0.6444,-0.5845,0.1080,0.0076,-1.9608,1.1872,0.0692,-0.6538,0.5309,
3.355971,0.6444,-0.5845,0.1080,0.0996,-1.7750,1.3383,0.0692,-0.6538,0.5309,
3.387970,0.6444,-0.5845,0.1080,0.0996,-1.7750,1.3383,-0.3420,-0.2969,0.1964,
3.389870,0.6444,-0.5845,0.1080,0.1312,-1.6664,1.4884,-0.3420,-0.2969,0.1964,
3.427799,0.6444,-0.5845,0.1080,0.1312,-1.6664,1.4884,-0.3878,-0.6229,-0.7144,
3.430075,0.6444,-0.5845,0.1080,-0.0849,-1.8257,1.7426,-0.3878,-0.6229,-0.7144,
3.448100,0.5357,-1.0681,0.2977,-0.0849,-1.8257,1.7426,-0.3878,-0.6229,-0.7144,
3.468257,0.5357,-1.0681,0.2977,-0.0849,-1.8257,1.7426,-0.3484,-0.1201,-0.7624,
3.470884,0.5357,-1.0681,0.2977,-0.2783,-2.0062,1.8333,-0.3484,-0.1201,-0.7624,
3.507569,0.5357,-1.0681,0.2977,-0.2783,-2.0062,1.8333,-0.5742,0.0514,-0.0007,
3.510057,0.5357,-1.0681,0.2977,-0.4670,-2.0753,0.7512,-0.5742,0.0514,-0.0007,
3.535640,0.7998,-0.6965,0.2061,-0.4670,-2.0753,0.7512,-0.5742,0.0514,-0.0007,
3.538309,0.9061,-0.8270,0.0173,-0.4670,-2.0753,0.7512,-0.5742,0.0514,-0.0007,
3.539761,0.7507,-0.9127,0.0385,-0.4670,-2.0753,0.7512,-0.5742,0.0514,-0.0007,
3.541572,0.6754,-0.8087,0.0236,-0.4670,-2.0753,0.7512,-0.5742,0.0514,-0.0007,
3.547466,0.6754,-0.8087,0.0236,-0.4561,-2.0225,0.8264,-0.5742,0.0514,-0.0007,
3.550119,0.6754,-0.8087,0.0236,-0.4561,-2.0225,0.8264,-0.2205,-0.1116,0.0259,
3.588245,0.6754,-0.8087,0.0236,-0.4561,-2.0225,0.8264,0.1789,-0.0008,-0.0220,
3.589956,0.6754,-0.8087,0.0236,-0.4772,-1.8392,-0.6597,0.1789,-0.0008,-0.0220,
3.625946,0.8081,-0.8201,0.0143,-0.4772,-1.8392,-0.6597,0.1789,-0.0008,-0.0220,
3.628342,0.8279,-0.7972,0.1389,-0.4772,-1.8392,-0.6597,0.1789,-0.0008,-0.0220,
3.629312,0.9285,-0.8947,0.1255,-0.4772,-1.8392,-0.6597,0.1789,-0.0008,-0.0220,
3.630391,0.9285,-0.8947,0.1255,-0.5070,-1.8663,-0.7364,0.1789,-0.0008,-0.0220,
3.631440,0.9285,-0.8947,0.1255,-0.5070,-1.8663,-0.7364,0.4442,-0.0754,-0.1413,
3.665576,0.9285,-0.8947,0.1255,-0.5070,-1.8663,-0.7364,0.7744,-0.2479,-0.2350,
3.667505,0.9285,-0.8947,0.1255,0.8685,-1.7571,0.4191,0.7744,-0.2479,-0.2350,
3.705431,0.9249,-0.7935,0.2044,0.8685,-1.7571,0.4191,0.7744,-0.2479,-0.2350,
3.707510,0.8951,-0.7090,0.2046,0.8685,-1.7571,0.4191,0.7744,-0.2479,-0.2350,
3.708513,0.7944,-0.6347,0.0976,0.8685,-1.7571,0.4191,0.7744,-0.2479,-0.2350,
3.709519,0.7908,-0.5932,0.0876,0.8685,-1.7571,0.4191,0.7744,-0.2479,-0.2350,
3.710447,0.7268,-0.5277,0.1419,0.8685,-1.7571,0.4191,0.7744,-0.2479,-0.2350,
3.711220,0.5851,-0.3152,0.0644,0.8685,-1.7571,0.4191,0.7744,-0.2479,-0.2350,
3.712201,0.5851,-0.3152,0.0644,0.8685,-1.7571,0.4191,0.6626,-0.2841,-0.1062,
3.712969,0.5851,-0.3152,0.0644,0.1692,-0.0285,0.0829,0.6626,-0.2841,-0.1062,
3.745026,0.5851,-0.3152,0.0644,0.1692,-0.0285,0.0829,0.4783,-0.2032,0.0259,
3.746357,0.5851,-0.3152,0.0644,0.1630,-0.0427,0.0272,0.4783,-0.2032,0.0259,
3.786213,0.5851,-0.3152,0.0644,0.1630,-0.0427,0.0272,0.1555,-0.1276,0.1293,
3.789666,0.4636,-0.1564,-0.0577,0.1630,-0.0427,0.0272,0.1555,-0.1276,0.1293,
3.790926,0.4658,-0.0977,-0.0585,0.1630,-0.0427,0.0272,0.1555,-0.1276,0.1293,
3.791928,0.5975,-0.2555,0.1179,0.1630,-0.0427,0.0272,0.1555,-0.1276,0.1293,
3.793758,0.6075,-0.1913,0.0688,0.1630,-0.0427,0.0272,0.1555,-0.1276,0.1293,
3.795059,0.6075,-0.1913,0.0688,-2.4142,4.4628,-0.8125,0.1555,-0.1276,0.1293,
3.823878,0.6075,-0.1913,0.0688,-2.4142,4.4628,-0.8125,-0.0203,-0.5718,0.1687,
3.825673,0.6075,-0.1913,0.0688,-2.3582,4.4409,-0.6187,-0.0203,-0.5718,0.1687,
3.863898,0.7666,-0.1659,-0.0746,-2.3582,4.4409,-0.6187,-0.0203,-0.5718,0.1687,
3.865691,0.8504,-0.3227,-0.0128,-2.3582,4.4409,-0.6187,-0.0203,-0.5718,0.1687,
3.866975,0.6938,-0.4935,0.0080,-2.3582,4.4409,-0.6187,-0.0203,-0.5718,0.1687,
3.868125,0.6938,-0.4935,0.0080,-2.3582,4.4409,-0.6187,-0.0916,-1.0235,0.0451,
3.868973,0.6938,-0.4935,0.0080,-0.2873,2.9782,-0.9412,-0.0916,-1.0235,0.0451,
3.903561,0.6938,-0.4935,0.0080,-0.2873,2.9782,-0.9412,0.0458,-1.4219,0.0132,
3.905425,0.6938,-0.4935,0.0080,0.8478,-0.1302,-1.2895,0.0458,-1.4219,0.0132,
3.942684,0.6938,-0.4935,0.0080,0.8478,-0.1302,-1.2895,-0.0075,-1.5742,-0.0753,
3.944015,0.6938,-0.4935,0.0080,0.8166,-0.1513,-0.7828,-0.0075,-1.5742,-0.0753,
3.945622,0.7668,-0.6245,-0.1425,0.8166,-0.1513,-0.7828,-0.0075,-1.5742,-0.0753,
3.946457,0.9525,-0.6367,-0.1413,0.8166,-0.1513,-0.7828,-0.0075,-1.5742,-0.0753,
3.946975,0.9503,-0.6743,-0.0409,0.8166,-0.1513,-0.7828,-0.0075,-1.5742,-0.0753,
3.947497,0.6153,-0.7779,-0.0287,0.8166,-0.1513,-0.7828,-0.0075,-1.5742,-0.0753,
3.948022,0.3718,-0.7569,-0.0851,0.8166,-0.1513,-0.7828,-0.0075,-1.5742,-0.0753,
3.982802,0.3718,-0.7569,-0.0851,0.8166,-0.1513,-0.7828,-0.2141,-1.1417,0.3381,
3.985017,0.3718,-0.7569,-0.0851,0.9061,-0.0497,-0.3682,-0.2141,-1.1417,0.3381,
4.023027,0.3718,-0.7569,-0.0851,0.9061,-0.0497,-0.3682,0.0927,-1.3675,1.4928,
4.027268,0.3718,-0.7569,-0.0851,-3.5128,-0.7327,0.7782,0.0927,-1.3675,1.4928,
4.028413,0.1790,-0.7522,0.0251,-3.5128,-0.7327,0.7782,0.0927,-1.3675,1.4928,
4.029294,-0.1813,-0.8917,-0.0468,-3.5128,-0.7327,0.7782,0.0927,-1.3675,1.4928,
4.030171,-0.2478,-0.9457,-0.1826,-3.5128,-0.7327,0.7782,0.0927,-1.3675,1.4928,
4.031125,0.5333,-0.2216,-0.0748,-3.5128,-0.7327,0.7782,0.0927,-1.3675,1.4928,
4.062294,0.5333,-0.2216,-0.0748,-3.5128,-0.7327,0.7782,0.2088,-1.8522,1.3170,
4.065171,0.5333,-0.2216,-0.0748,-6.4157,0.3870,0.5281,0.2088,-1.8522,1.3170,
4.102523,0.6596,-0.3459,-0.2339,-6.4157,0.3870,0.5281,0.2088,-1.8522,1.3170,
4.105214,1.2271,-0.9137,-0.1836,-6.4157,0.3870,0.5281,0.2088,-1.8522,1.3170,
4.106925,1.8002,-0.5065,-0.3052,-6.4157,0.3870,0.5281,0.2088,-1.8522,1.3170,
4.108496,1.8002,-0.5065,-0.3052,-6.4157,0.3870,0.5281,-0.1151,-2.5457,-0.5408,
4.109887,1.8002,-0.5065,-0.3052,5.2370,1.1714,-0.1287,-0.1151,-2.5457,-0.5408,
4.142042,1.8002,-0.5065,-0.3052,5.2370,1.1714,-0.1287,-0.4315,-1.6424,-0.1307,
4.144478,1.8002,-0.5065,-0.3052,8.7102,1.3678,-2.4724,-0.4315,-1.6424,-0.1307,
4.181234,1.8002,-0.5065,-0.3052,8.7102,1.3678,-2.4724,-0.5359,-1.5625,0.1921,
4.184335,1.8002,-0.5065,-0.3052,8.8056,1.3299,-1.8796,-0.5359,-1.5625,0.1921,
4.185992,2.0761,-0.2834,-0.3763,8.8056,1.3299,-1.8796,-0.5359,-1.5625,0.1921,
4.187536,1.4843,-0.6127,-0.5898,8.8056,1.3299,-1.8796,-0.5359,-1.5625,0.1921,
4.189195,1.1961,-0.7786,-0.6575,8.8056,1.3299,-1.8796,-0.5359,-1.5625,0.1921,
4.190903,0.9906,-1.0776,-0.4438,8.8056,1.3299,-1.8796,-0.5359,-1.5625,0.1921,
4.192655,0.8750,-1.4150,-0.3028,8.8056,1.3299,-1.8796,-0.5359,-1.5625,0.1921,
4.221341,0.8750,-1.4150,-0.3028,8.8056,1.3299,-1.8796,-0.1896,-1.2109,0.3551,
4.223449,0.8750,-1.4150,-0.3028,8.9238,1.3725,-1.4864,-0.1896,-1.2109,0.3551,
4.251806,0.5997,-1.1624,-0.1709,8.9238,1.3725,-1.4864,-0.1896,-1.2109,0.3551,
4.253511,0.4392,-0.7928,-0.1960,8.9238,1.3725,-1.4864,-0.1896,-1.2109,0.3551,
4.254286,0.6588,0.1556,-0.6998,8.9238,1.3725,-1.4864,-0.1896,-1.2109,0.3551,
4.261741,0.6588,0.1556,-0.6998,1.6179,-4.8857,0.9225,-0.1896,-1.2109,0.3551,
4.263640,0.6588,0.1556,-0.6998,1.6179,-4.8857,0.9225,0.0873,-0.5462,0.4446,
4.300100,0.6588,0.1556,-0.6998,1.6179,-4.8857,0.9225,0.2024,-0.9350,-0.1328,
4.302863,0.6588,0.1556,-0.6998,0.0046,3.3342,-0.9892,0.2024,-0.9350,-0.1328,
4.339472,0.6588,0.1556,-0.6998,0.0046,3.3342,-0.9892,0.9225,-0.1851,0.0472,
4.340909,0.6588,0.1556,-0.6998,0.0473,3.4351,-1.1816,0.9225,-0.1851,0.0472,
4.341784,0.8394,-0.4840,-0.6668,0.0473,3.4351,-1.1816,0.9225,-0.1851,0.0472,
4.342558,0.1658,-1.8799,0.2386,0.0473,3.4351,-1.1816,0.9225,-0.1851,0.0472,
4.343494,0.5206,-1.2059,-0.0519,0.0473,3.4351,-1.1816,0.9225,-0.1851,0.0472,
4.344622,0.2169,-1.1209,-0.4362,0.0473,3.4351,-1.1816,0.9225,-0.1851,0.0472,
4.346250,0.1700,-1.2469,-0.5366,0.0473,3.4351,-1.1816,0.9225,-0.1851,0.0472,
4.379912,0.1700,-1.2469,-0.5366,-3.4368,-6.5155,2.7490,0.9225,-0.1851,0.0472,
4.382200,0.1700,-1.2469,-0.5366,-3.4368,-6.5155,2.7490,0.0479,1.1859,0.0419,
4.419162,0.1700,-1.2469,-0.5366,-3.4368,-6.5155,2.7490,-0.1726,2.7859,-0.2659,
4.420210,0.1700,-1.2469,-0.5366,-2.9814,-2.3479,-0.2922,-0.1726,2.7859,-0.2659,
4.420927,0.4077,-0.9440,-0.3196,-2.9814,-2.3479,-0.2922,-0.1726,2.7859,-0.2659,
4.421480,0.5816,-0.7241,-0.1176,-2.9814,-2.3479,-0.2922,-0.1726,2.7859,-0.2659,
4.422001,0.6476,-0.6113,-0.0321,-2.9814,-2.3479,-0.2922,-0.1726,2.7859,-0.2659,
4.422462,0.5223,-0.4087,-0.0756,-2.9814,-2.3479,-0.2922,-0.1726,2.7859,-0.2659,
4.459027,0.5223,-0.4087,-0.0756,-2.9814,-2.3479,-0.2922,0.7968,2.8626,0.0984,
4.460771,0.5223,-0.4087,-0.0756,-3.1724,-2.2104,-1.2811,0.7968,2.8626,0.0984,
4.498920,0.5223,-0.4087,-0.0756,-3.1724,-2.2104,-1.2811,1.3475,1.3670,1.1264,
4.500696,0.5223,-0.4087,-0.0756,-1.0659,2.9276,0.4548,1.3475,1.3670,1.1264,
4.501713,0.5521,-0.4246,-0.0956,-1.0659,2.9276,0.4548,1.3475,1.3670,1.1264,
4.503312,0.5232,-0.4361,-0.3030,-1.0659,2.9276,0.4548,1.3475,1.3670,1.1264,
4.505026,0.5465,-0.3374,-0.3915,-1.0659,2.9276,0.4548,1.3475,1.3670,1.1264,
4.505896,0.5408,-0.2944,-0.0707,-1.0659,2.9276,0.4548,1.3475,1.3670,1.1264,
4.538220,0.5408,-0.2944,-0.0707,-1.0659,2.9276,0.4548,1.0045,0.7790,1.1242,
4.539708,0.5408,-0.2944,-0.0707,-1.0901,4.4088,-1.8623,1.0045,0.7790,1.1242,
4.578039,0.5408,-0.2944,-0.0707,-1.0901,4.4088,-1.8623,0.7627,0.0748,0.3402,
4.579875,0.5408,-0.2944,-0.0707,-1.7440,2.7659,-0.4660,0.7627,0.0748,0.3402,
4.580943,0.4859,-0.3606,-0.1386,-1.7440,2.7659,-0.4660,0.7627,0.0748,0.3402,
4.581762,0.4375,-0.4468,-0.0890,-1.7440,2.7659,-0.4660,0.7627,0.0748,0.3402,
4.582900,0.4458,-0.7796,-0.0331,-1.7440,2.7659,-0.4660,0.7627,0.0748,0.3402,
4.583928,0.4737,-0.9215,-0.0807,-1.7440,2.7659,-0.4660,0.7627,0.0748,0.3402,
4.617900,0.4737,-0.9215,-0.0807,-1.7440,2.7659,-0.4660,0.5081,0.3486,-0.4300,
4.620126,0.4737,-0.9215,-0.0807,-1.8506,2.6199,-0.7002,0.5081,0.3486,-0.4300,
4.647921,0.3495,-0.6811,-0.1464,-1.8506,2.6199,-0.7002,0.5081,0.3486,-0.4300,
4.649742,0.2833,-0.5739,-0.1506,-1.8506,2.6199,-0.7002,0.5081,0.3486,-0.4300,
4.651112,0.2638,-0.5580,-0.2126,-1.8506,2.6199,-0.7002,0.5081,0.3486,-0.4300,
4.657278,0.2638,-0.5580,-0.2126,-1.8506,2.6199,-0.7002,-0.2546,0.3401,0.1218,
4.658532,0.2638,-0.5580,-0.2126,-2.6279,0.7113,-1.0707,-0.2546,0.3401,0.1218,
4.696929,0.2638,-0.5580,-0.2126,-2.6279,0.7113,-1.0707,-0.7574,0.0876,0.2986,
4.699488,0.2638,-0.5580,-0.2126,-2.2972,3.3307,-2.1127,-0.7574,0.0876,0.2986,
4.735768,0.2638,-0.5580,-0.2126,-2.2972,3.3307,-2.1127,-1.3199,-0.3832,-0.9946,
4.738126,0.2638,-0.5580,-0.2126,0.9117,-0.0493,0.9585,-1.3199,-0.3832,-0.9946,
4.739167,0.3578,-0.4803,-0.2227,0.9117,-0.0493,0.9585,-1.3199,-0.3832,-0.9946,
4.740135,0.5460,-0.3391,-0.3380,0.9117,-0.0493,0.9585,-1.3199,-0.3832,-0.9946,
4.741506,0.6581,-0.5817,-0.3837,0.9117,-0.0493,0.9585,-1.3199,-0.3832,-0.9946,
4.742624,0.8228,-0.7842,-0.0976,0.9117,-0.0493,0.9585,-1.3199,-0.3832,-0.9946,
4.743905,0.7634,-0.9604,0.5005,0.9117,-0.0493,0.9585,-1.3199,-0.3832,-0.9946,
4.776866,0.7634,-0.9604,0.5005,0.9117,-0.0493,0.9585,-0.4773,-0.9574,-0.8934,
4.779227,0.7634,-0.9604,0.5005,0.6799,-0.2952,1.3254,-0.4773,-0.9574,-0.8934,
4.816552,0.7634,-0.9604,0.5005,-0.0607,0.5983,0.9264,-0.4773,-0.9574,-0.8934,
4.819464,0.7634,-0.9604,0.5005,-0.0607,0.5983,0.9264,0.5528,-0.7305,1.3746,
4.820849,0.3750,-0.4913,0.5709,-0.0607,0.5983,0.9264,0.5528,-0.7305,1.3746,
4.822075,0.7128,-0.7574,-0.4213,-0.0607,0.5983,0.9264,0.5528,-0.7305,1.3746,
4.823175,0.7930,-0.9169,-0.2549,-0.0607,0.5983,0.9264,0.5528,-0.7305,1.3746,
4.824490,0.7695,-1.3542,-0.5999,-0.0607,0.5983,0.9264,0.5528,-0.7305,1.3746,
4.855461,0.7695,-1.3542,-0.5999,-0.0607,0.5983,0.9264,-1.1580,0.2048,1.7890,
4.857709,0.7695,-1.3542,-0.5999,0.4763,0.9368,1.2216,-1.1580,0.2048,1.7890,
4.895014,0.7695,-1.3542,-0.5999,0.4763,0.9368,1.2216,-0.8778,-0.0264,2.9320,
4.897326,0.7695,-1.3542,-0.5999,-0.2843,-4.7603,-0.0782,-0.8778,-0.0264,2.9320,
4.898677,0.5399,-1.5892,-0.0069,-0.2843,-4.7603,-0.0782,-0.8778,-0.0264,2.9320,
4.899663,0.0417,-1.1573,0.0138,-0.2843,-4.7603,-0.0782,-0.8778,-0.0264,2.9320,
4.900884,0.1663,-0.9890,0.3219,-0.2843,-4.7603,-0.0782,-0.8778,-0.0264,2.9320,
4.902120,0.1607,-1.0420,-0.0937,-0.2843,-4.7603,-0.0782,-0.8778,-0.0264,2.9320,
4.934907,0.1607,-1.0420,-0.0937,-0.2843,-4.7603,-0.0782,0.7627,0.5169,3.2409,
4.936696,0.1607,-1.0420,-0.0937,0.8144,-4.1075,-0.4271,0.7627,0.5169,3.2409,
4.974034,0.1607,-1.0420,-0.0937,0.8144,-4.1075,-0.4271,0.3483,0.6021,2.9671,
4.976048,0.1607,-1.0420,-0.0937,-0.9256,-0.6463,1.5809,0.3483,0.6021,2.9671,
4.977461,0.1553,-1.1297,-0.1362,-0.9256,-0.6463,1.5809,0.3483,0.6021,2.9671,
4.978733,0.6009,-2.6717,-0.0849,-0.9256,-0.6463,1.5809,0.3483,0.6021,2.9671,
4.979825,1.0121,-2.7785,-0.3761,-0.9256,-0.6463,1.5809,0.3483,0.6021,2.9671,
4.981741,1.0522,-0.8575,-0.0358,-0.9256,-0.6463,1.5809,0.3483,0.6021,2.9671,
5.012603,1.0522,-0.8575,-0.0358,-0.9256,-0.6463,1.5809,0.7425,-1.5199,1.3149,
5.014261,1.0522,-0.8575,-0.0358,6.6715,-10.5961,-0.4953,0.7425,-1.5199,1.3149,
5.048959,0.6613,-0.4786,-0.0231,6.6715,-10.5961,-0.4953,0.7425,-1.5199,1.3149,
5.051068,-0.0753,-0.9020,-0.3839,6.6715,-10.5961,-0.4953,0.7425,-1.5199,1.3149,
5.052557,-0.1725,-0.9804,-0.2195,6.6715,-10.5961,-0.4953,0.7425,-1.5199,1.3149,
5.054144,-0.1725,-0.9804,-0.2195,6.6715,-10.5961,-0.4953,0.8628,0.5329,-0.4172,
5.055399,-0.1725,-0.9804,-0.2195,-0.8530,2.2556,-1.2849,0.8628,0.5329,-0.4172,
5.094391,-0.1725,-0.9804,-0.2195,-0.8530,2.2556,-1.2849,0.3728,0.6703,0.0920,
5.095937,-0.1725,-0.9804,-0.2195,-1.0127,2.7481,-2.7241,0.3728,0.6703,0.0920,
5.100048,0.0464,-0.7918,-0.2737,-1.0127,2.7481,-2.7241,0.3728,0.6703,0.0920,
5.102558,0.1128,-0.6963,-0.3905,-1.0127,2.7481,-2.7241,0.3728,0.6703,0.0920,
5.103617,0.1942,-0.7134,-0.3538,-1.0127,2.7481,-2.7241,0.3728,0.6703,0.0920,
5.135665,0.1942,-0.7134,-0.3538,-0.8365,2.7212,-2.4749,0.3728,0.6703,0.0920,
5.137331,0.1942,-0.7134,-0.3538,-0.8365,2.7212,-2.4749,-0.6094,0.3944,0.4371,
5.173073,0.1942,-0.7134,-0.3538,-0.8365,2.7212,-2.4749,-1.2602,0.7034,0.3232,
5.175283,0.1942,-0.7134,-0.3538,-0.5733,2.8109,-2.3015,-1.2602,0.7034,0.3232,
5.176756,0.1817,-0.6858,-0.3822,-0.5733,2.8109,-2.3015,-1.2602,0.7034,0.3232,
5.178238,0.1265,-0.7048,-0.4010,-0.5733,2.8109,-2.3015,-1.2602,0.7034,0.3232,
5.179480,0.0930,-0.7600,-0.3287,-0.5733,2.8109,-2.3015,-1.2602,0.7034,0.3232,
5.180605,0.1094,-0.7947,-0.3438,-0.5733,2.8109,-2.3015,-1.2602,0.7034,0.3232,
5.212050,0.1094,-0.7947,-0.3438,-0.5733,2.8109,-2.3015,-1.3636,0.4530,0.3455,
5.214394,0.1094,-0.7947,-0.3438,-0.4591,2.7049,-1.7746,-1.3636,0.4530,0.3455,
5.252346,0.1094,-0.7947,-0.3438,-0.4591,2.7049,-1.7746,-1.2112,-0.0849,0.3807,
5.255272,0.1094,-0.7947,-0.3438,0.0563,2.3196,0.0047,-1.2112,-0.0849,0.3807,
5.256569,0.1421,-0.7637,-0.3201,0.0563,2.3196,0.0047,-1.2112,-0.0849,0.3807,
5.257580,0.2606,-0.6753,-0.0472,0.0563,2.3196,0.0047,-1.2112,-0.0849,0.3807,
5.258561,0.4343,-0.5829,0.0959,0.0563,2.3196,0.0047,-1.2112,-0.0849,0.3807,
5.260272,0.3227,-0.6027,-0.3924,0.0563,2.3196,0.0047,-1.2112,-0.0849,0.3807,
5.291084,0.3227,-0.6027,-0.3924,0.0563,2.3196,0.0047,-1.2794,-0.2959,0.0014,
5.292825,0.3227,-0.6027,-0.3924,0.0861,2.1525,0.4991,-1.2794,-0.2959,0.0014,
5.331394,0.3227,-0.6027,-0.3924,0.0861,2.1525,0.4991,-1.6650,-0.2884,-0.1978,
5.333264,0.3227,-0.6027,-0.3924,1.1992,2.9318,-0.0710,-1.6650,-0.2884,-0.1978,
5.334162,0.1135,-0.7271,-0.7838,1.1992,2.9318,-0.0710,-1.6650,-0.2884,-0.1978,
5.334798,0.1942,-0.8089,-0.2666,1.1992,2.9318,-0.0710,-1.6650,-0.2884,-0.1978,
5.335440,0.3444,-1.0153,-0.1496,1.1992,2.9318,-0.0710,-1.6650,-0.2884,-0.1978,
5.336221,0.3376,-1.1873,-0.2989,1.1992,2.9318,-0.0710,-1.6650,-0.2884,-0.1978,
5.370978,0.3376,-1.1873,-0.2989,1.0030,-0.9210,1.6740,-1.6650,-0.2884,-0.1978,
5.373385,0.3376,-1.1873,-0.2989,1.0030,-0.9210,1.6740,-1.5564,-0.3214,-0.6857,
5.411014,0.3376,-1.1873,-0.2989,1.0030,-0.9210,1.6740,-1.1750,-0.2106,-0.9200,
5.413288,0.3376,-1.1873,-0.2989,-0.2434,-6.6807,0.7803,-1.1750,-0.2106,-0.9200,
5.414696,0.2137,-1.4062,-0.3529,-0.2434,-6.6807,0.7803,-1.1750,-0.2106,-0.9200,
5.415928,0.1949,-1.5970,-0.3409,-0.2434,-6.6807,0.7803,-1.1750,-0.2106,-0.9200,
5.417211,0.1719,-1.7236,-0.4213,-0.2434,-6.6807,0.7803,-1.1750,-0.2106,-0.9200,
5.418306,0.2848,-1.5628,-0.5200,-0.2434,-6.6807,0.7803,-1.1750,-0.2106,-0.9200,
5.450922,0.2848,-1.5628,-0.5200,-0.2434,-6.6807,0.7803,-0.7042,-0.4205,-0.7602,
5.453369,0.2848,-1.5628,-0.5200,-0.4206,-6.7607,1.0418,-0.7042,-0.4205,-0.7602,
5.489652,0.2848,-1.5628,-0.5200,-0.4206,-6.7607,1.0418,-0.4187,-0.8754,-0.6601,
5.492134,0.2848,-1.5628,-0.5200,0.6098,-5.5381,-0.2112,-0.4187,-0.8754,-0.6601,
5.493531,0.3635,-1.4143,-0.5346,0.6098,-5.5381,-0.2112,-0.4187,-0.8754,-0.6601,
5.496176,0.2687,-1.3610,-0.5139,0.6098,-5.5381,-0.2112,-0.4187,-0.8754,-0.6601,
5.497257,0.0955,-1.1219,-0.4271,0.6098,-5.5381,-0.2112,-0.4187,-0.8754,-0.6601,
5.498650,-0.0751,-0.8277,-0.3072,0.6098,-5.5381,-0.2112,-0.4187,-0.8754,-0.6601,
5.529487,-0.0751,-0.8277,-0.3072,0.6098,-5.5381,-0.2112,-0.0288,-0.4599,-0.3842,
5.531986,-0.0751,-0.8277,-0.3072,0.5595,-5.4873,-0.1549,-0.0288,-0.4599,-0.3842,
5.558348,-0.0953,-0.6557,-0.2537,0.5595,-5.4873,-0.1549,-0.0288,-0.4599,-0.3842,
5.562000,0.0097,-0.6000,-0.2097,0.5595,-5.4873,-0.1549,-0.0288,-0.4599,-0.3842,
5.563501,0.1460,-0.6797,-0.1936,0.5595,-5.4873,-0.1549,-0.0288,-0.4599,-0.3842,
5.570579,0.1460,-0.6797,-0.1936,-2.6615,0.2737,1.5142,-0.0288,-0.4599,-0.3842,
5.572238,0.1460,-0.6797,-0.1936,-2.6615,0.2737,1.5142,0.5422,0.1409,0.0025,
5.608400,0.1460,-0.6797,-0.1936,-2.6615,0.2737,1.5142,1.0951,0.0503,0.0536,
5.610146,0.1460,-0.6797,-0.1936,-1.3904,2.2809,2.2831,1.0951,0.0503,0.0536,
5.640778,0.1482,-0.7613,-0.2180,-1.3904,2.2809,2.2831,1.0951,0.0503,0.0536,
5.642386,0.0737,-0.7324,-0.2818,-1.3904,2.2809,2.2831,1.0951,0.0503,0.0536,
5.643193,0.0175,-0.6049,-0.3089,-1.3904,2.2809,2.2831,1.0951,0.0503,0.0536,
5.644086,0.0236,-0.5084,-0.3304,-1.3904,2.2809,2.2831,1.0951,0.0503,0.0536,
5.647801,0.0236,-0.5084,-0.3304,-1.3904,2.2809,2.2831,1.3401,0.0163,0.2976,
5.649576,0.0236,-0.5084,-0.3304,-1.8719,3.1097,0.8068,1.3401,0.0163,0.2976,
5.687688,0.0236,-0.5084,-0.3304,-1.8719,3.1097,0.8068,1.3742,-0.0093,0.6257,
5.689948,0.0236,-0.5084,-0.3304,0.0000,3.9787,0.6585,1.3742,-0.0093,0.6257,
5.721555,0.0903,-0.4928,-0.3338,0.0000,3.9787,0.6585,1.3742,-0.0093,0.6257,
5.723957,0.2078,-0.5414,-0.2713,0.0000,3.9787,0.6585,1.3742,-0.0093,0.6257,
5.725310,0.3190,-0.6005,-0.2038,0.0000,3.9787,0.6585,1.3742,-0.0093,0.6257,
5.726578,0.2882,-0.6115,-0.1650,0.0000,3.9787,0.6585,1.3742,-0.0093,0.6257,
5.729846,0.2882,-0.6115,-0.1650,0.1135,4.0880,0.1808,1.3742,-0.0093,0.6257,
5.731611,0.2882,-0.6115,-0.1650,0.1135,4.0880,0.1808,1.2506,0.1047,0.3434,
5.767643,0.2882,-0.6115,-0.1650,0.1135,4.0880,0.1808,1.3156,0.0716,-0.1339,
5.770149,0.2882,-0.6115,-0.1650,-0.6194,3.1293,0.1717,1.3156,0.0716,-0.1339,
5.779075,0.1116,-0.6484,-0.2109,-0.6194,3.1293,0.1717,1.3156,0.0716,-0.1339,
5.780810,0.0075,-0.6899,-0.2818,-0.6194,3.1293,0.1717,1.3156,0.0716,-0.1339,
5.781936,0.0598,-0.7329,-0.4193,-0.6194,3.1293,0.1717,1.3156,0.0716,-0.1339,
5.809423,0.0598,-0.7329,-0.4193,-0.6194,3.1293,0.1717,1.1664,0.0589,-0.0476,
5.812041,0.0598,-0.7329,-0.4193,-0.6316,3.1689,-0.2698,1.1664,0.0589,-0.0476,
5.847294,0.0598,-0.7329,-0.4193,-0.6316,3.1689,-0.2698,0.2620,0.1409,-0.1914,
5.849536,0.0598,-0.7329,-0.4193,-0.8072,2.3217,-3.9036,0.2620,0.1409,-0.1914,
5.851039,0.1157,-0.7591,-0.6746,-0.8072,2.3217,-3.9036,0.2620,0.1409,-0.1914,
5.852284,0.1991,-0.7063,-0.6627,-0.8072,2.3217,-3.9036,0.2620,0.1409,-0.1914,
5.853359,0.2679,-0.8245,-0.6289,-0.8072,2.3217,-3.9036,0.2620,0.1409,-0.1914,
5.854669,0.4360,-1.1558,-0.5923,-0.8072,2.3217,-3.9036,0.2620,0.1409,-0.1914,
5.885995,0.4360,-1.1558,-0.5923,-1.0239,2.1941,-3.6585,0.2620,0.1409,-0.1914,
5.888678,0.4360,-1.1558,-0.5923,-1.0239,2.1941,-3.6585,-0.6189,0.5723,-0.5088,
5.926033,0.4360,-1.1558,-0.5923,-1.0239,2.1941,-3.6585,-0.2269,-0.0338,-0.6505,
5.928799,0.4360,-1.1558,-0.5923,1.6003,-1.7981,-1.2268,-0.2269,-0.0338,-0.6505,
5.930261,0.5550,-1.4248,0.1758,1.6003,-1.7981,-1.2268,-0.2269,-0.0338,-0.6505,
5.931829,0.2865,-1.5897,0.4121,1.6003,-1.7981,-1.2268,-0.2269,-0.0338,-0.6505,
5.933047,-0.1735,-1.9708,0.1306,1.6003,-1.7981,-1.2268,-0.2269,-0.0338,-0.6505,
5.934126,0.0749,-1.9816,-0.9219,1.6003,-1.7981,-1.2268,-0.2269,-0.0338,-0.6505,
5.964422,0.0749,-1.9816,-0.9219,1.6003,-1.7981,-1.2268,-0.5603,0.0652,0.0291,
5.966549,0.0749,-1.9816,-0.9219,-1.8622,-8.6796,1.1304,-0.5603,0.0652,0.0291,
6.004822,0.0749,-1.9816,-0.9219,-1.8622,-8.6796,1.1304,-1.3114,-0.2756,0.2390,
6.007604,0.0749,-1.9816,-0.9219,1.1733,-1.9658,2.2760,-1.3114,-0.2756,0.2390,
6.008901,0.0552,-1.5338,-1.1899,1.1733,-1.9658,2.2760,-1.3114,-0.2756,0.2390,
6.009982,0.4561,-1.0161,0.2462,1.1733,-1.9658,2.2760,-1.3114,-0.2756,0.2390,
6.011342,0.5760,-0.9125,0.7700,1.1733,-1.9658,2.2760,-1.3114,-0.2756,0.2390,
6.012631,0.3034,-1.0420,0.5423,1.1733,-1.9658,2.2760,-1.3114,-0.2756,0.2390,
6.044552,0.3034,-1.0420,0.5423,1.1733,-1.9658,2.2760,0.8799,-0.1393,-0.0305,
6.046692,0.3034,-1.0420,0.5423,1.1576,-1.8436,1.9288,0.8799,-0.1393,-0.0305,
6.084523,0.0117,-1.3251,-0.0675,1.1576,-1.8436,1.9288,0.8799,-0.1393,-0.0305,
6.086640,0.0566,-1.4172,-0.6030,1.1576,-1.8436,1.9288,0.8799,-0.1393,-0.0305,
6.088243,0.4023,-1.1026,-0.5031,1.1576,-1.8436,1.9288,0.8799,-0.1393,-0.0305,
6.089487,0.4023,-1.1026,-0.5031,1.1576,-1.8436,1.9288,1.0855,0.2016,0.3168,
6.090768,0.4023,-1.1026,-0.5031,-1.0600,-2.7216,1.6210,1.0855,0.2016,0.3168,
6.123989,0.4023,-1.1026,-0.5031,-1.0600,-2.7216,1.6210,0.6019,-0.0509,0.3146,
6.126057,0.4023,-1.1026,-0.5031,1.6774,0.3593,-0.1479,0.6019,-0.0509,0.3146,
6.163141,0.4023,-1.1026,-0.5031,1.6774,0.3593,-0.1479,0.8330,-0.2778,0.2741,
6.165100,0.4023,-1.1026,-0.5031,1.7714,0.4300,-0.4389,0.8330,-0.2778,0.2741,
6.166841,0.4978,-0.8873,-0.0756,1.7714,0.4300,-0.4389,0.8330,-0.2778,0.2741,
6.167735,0.2802,-0.8719,-0.0226,1.7714,0.4300,-0.4389,0.8330,-0.2778,0.2741,
6.168607,0.0515,-0.9088,-0.2205,1.7714,0.4300,-0.4389,0.8330,-0.2778,0.2741,
6.169303,0.0043,-0.9171,-0.3165,1.7714,0.4300,-0.4389,0.8330,-0.2778,0.2741,
6.170174,0.0894,-0.8868,-0.2420,1.7714,0.4300,-0.4389,0.8330,-0.2778,0.2741,
6.202856,0.0894,-0.8868,-0.2420,1.7714,0.4300,-0.4389,0.6253,-0.2373,0.4126,
6.204940,0.0894,-0.8868,-0.2420,-1.4122,0.9681,-1.2227,0.6253,-0.2373,0.4126,
6.242782,0.0894,-0.8868,-0.2420,-1.4122,0.9681,-1.2227,0.1480,0.1760,0.3327,
6.244070,0.0894,-0.8868,-0.2420,-0.1216,2.2724,-1.2597,0.1480,0.1760,0.3327,
6.245135,0.1460,-0.8199,-0.2456,-0.1216,2.2724,-1.2597,0.1480,0.1760,0.3327,
6.245968,0.1646,-0.7532,-0.2549,-0.1216,2.2724,-1.2597,0.1480,0.1760,0.3327,
6.246798,0.1920,-0.7383,-0.2747,-0.1216,2.2724,-1.2597,0.1480,0.1760,0.3327,
6.247674,0.1873,-0.7312,-0.3680,-0.1216,2.2724,-1.2597,0.1480,0.1760,0.3327,
6.282166,0.1873,-0.7312,-0.3680,-0.1216,2.2724,-1.2597,-0.4389,0.3763,0.3168,
6.283818,0.1873,-0.7312,-0.3680,-0.0179,2.2327,-1.0957,-0.4389,0.3763,0.3168,
6.322565,0.1873,-0.7312,-0.3680,-0.0179,2.2327,-1.0957,-1.0706,0.2868,0.3338,
6.325046,0.1873,-0.7312,-0.3680,0.0962,2.3240,-2.2018,-1.0706,0.2868,0.3338,
6.326146,0.1624,-0.7407,-0.4535,0.0962,2.3240,-2.2018,-1.0706,0.2868,0.3338,
6.327351,0.1543,-0.7847,-0.4249,0.0962,2.3240,-2.2018,-1.0706,0.2868,0.3338,
6.328582,0.1170,-0.7622,-0.4186,0.0962,2.3240,-2.2018,-1.0706,0.2868,0.3338,
6.329870,0.1416,-0.6936,-0.2947,0.0962,2.3240,-2.2018,-1.0706,0.2868,0.3338,
6.363076,0.1416,-0.6936,-0.2947,0.0962,2.3240,-2.2018,-1.4030,0.2442,0.3178,
6.365523,0.1416,-0.6936,-0.2947,0.1940,2.1874,-1.6521,-1.4030,0.2442,0.3178,
6.402295,0.1416,-0.6936,-0.2947,0.1940,2.1874,-1.6521,-1.2730,-0.1467,0.1634,
6.404822,0.1416,-0.6936,-0.2947,0.2829,2.4610,0.2831,-1.2730,-0.1467,0.1634,
6.405859,0.2504,-0.6660,-0.0885,0.2829,2.4610,0.2831,-1.2730,-0.1467,0.1634,
6.407443,0.2814,-0.6428,-0.0060,0.2829,2.4610,0.2831,-1.2730,-0.1467,0.1634,
6.408647,0.2286,-0.6604,-0.4171,0.2829,2.4610,0.2831,-1.2730,-0.1467,0.1634,
6.409843,0.1939,-0.7080,-0.6052,0.2829,2.4610,0.2831,-1.2730,-0.1467,0.1634,
6.440288,0.1939,-0.7080,-0.6052,0.2829,2.4610,0.2831,-1.7151,-0.2415,0.0249,
6.442324,0.1939,-0.7080,-0.6052,0.9440,2.5612,0.1846,-1.7151,-0.2415,0.0249,
6.481004,0.1939,-0.7080,-0.6052,0.9440,2.5612,0.1846,-1.5148,-0.2969,-0.2596,
6.483381,0.1939,-0.7080,-0.6052,1.7073,0.7275,2.3074,-1.5148,-0.2969,-0.2596,
6.484795,0.3214,-0.6875,-0.1982,1.7073,0.7275,2.3074,-1.5148,-0.2969,-0.2596,
6.486743,0.3837,-0.7486,-0.0705,1.7073,0.7275,2.3074,-1.5148,-0.2969,-0.2596,
6.487897,0.2557,-1.0581,-0.2683,1.7073,0.7275,2.3074,-1.5148,-0.2969,-0.2596,
6.489114,0.1834,-1.3107,-0.3170,1.7073,0.7275,2.3074,-1.5148,-0.2969,-0.2596,
6.519607,0.1834,-1.3107,-0.3170,1.7073,0.7275,2.3074,-1.0919,-0.2192,-0.6526,
6.521547,0.1834,-1.3107,-0.3170,1.4928,0.4955,2.6547,-1.0919,-0.2192,-0.6526,
6.559609,0.1834,-1.3107,-0.3170,1.4928,0.4955,2.6547,-0.7894,-0.2969,-0.6750,
6.561688,0.1834,-1.3107,-0.3170,-0.0483,-4.5491,0.7412,-0.7894,-0.2969,-0.6750,
6.563087,0.1815,-1.3359,-0.4154,-0.0483,-4.5491,0.7412,-0.7894,-0.2969,-0.6750,
6.564345,0.1776,-1.3576,-0.4748,-0.0483,-4.5491,0.7412,-0.7894,-0.2969,-0.6750,
6.565803,0.1927,-1.3532,-0.4953,-0.0483,-4.5491,0.7412,-0.7894,-0.2969,-0.6750,
6.567245,0.0779,-1.4483,-0.5740,-0.0483,-4.5491,0.7412,-0.7894,-0.2969,-0.6750,
6.599320,0.0779,-1.4483,-0.5740,-0.3026,-4.6080,0.8640,-0.7894,-0.2969,-0.6750,
6.602004,0.0779,-1.4483,-0.5740,-0.3026,-4.6080,0.8640,-0.3750,-0.1521,-0.8593,
6.639346,-0.0167,-1.5286,-0.6492,-0.3026,-4.6080,0.8640,-0.3750,-0.1521,-0.8593,
6.641877,0.1245,-1.3036,-0.6697,-0.3026,-4.6080,0.8640,-0.3750,-0.1521,-0.8593,
6.643008,0.2782,-1.0451,-0.6311,-0.3026,-4.6080,0.8640,-0.3750,-0.1521,-0.8593,
6.644372,0.2782,-1.0451,-0.6311,-0.3026,-4.6080,0.8640,0.0575,-0.1041,-0.7517,
6.645462,0.2782,-1.0451,-0.6311,-1.4519,-5.6314,-0.8029,0.0575,-0.1041,-0.7517,
6.678465,0.2782,-1.0451,-0.6311,-1.4519,-5.6314,-0.8029,0.4048,-0.7891,-0.4129,
6.682545,0.2782,-1.0451,-0.6311,0.2732,-2.1961,-1.1296,0.4048,-0.7891,-0.4129,
6.718288,0.2782,-1.0451,-0.6311,0.2732,-2.1961,-1.1296,0.6423,-0.9915,-0.3490,
6.720788,0.2782,-1.0451,-0.6311,0.3330,-2.0724,-1.2401,0.6423,-0.9915,-0.3490,
6.722079,0.3776,-0.9530,-0.5036,0.3330,-2.0724,-1.2401,0.6423,-0.9915,-0.3490,
6.723316,0.3945,-1.0131,-0.4298,0.3330,-2.0724,-1.2401,0.6423,-0.9915,-0.3490,
6.724569,0.2113,-1.0285,-0.3763,0.3330,-2.0724,-1.2401,0.6423,-0.9915,-0.3490,
6.725862,-0.0340,-0.9330,-0.3385,0.3330,-2.0724,-1.2401,0.6423,-0.9915,-0.3490,
6.727139,-0.1537,-0.8556,-0.3358,0.3330,-2.0724,-1.2401,0.6423,-0.9915,-0.3490,
6.758252,-0.1537,-0.8556,-0.3358,0.3330,-2.0724,-1.2401,0.8170,-0.6431,-0.3288,
6.760907,-0.1537,-0.8556,-0.3358,-0.3408,-0.8707,0.6764,0.8170,-0.6431,-0.3288,
6.791132,-0.1503,-0.7994,-0.3236,-0.3408,-0.8707,0.6764,0.8170,-0.6431,-0.3288,
6.793619,-0.0692,-0.7610,-0.3045,-0.3408,-0.8707,0.6764,0.8170,-0.6431,-0.3288,
6.796472,0.0603,-0.7422,-0.3196,-0.3408,-0.8707,0.6764,0.8170,-0.6431,-0.3288,
6.797905,0.0603,-0.7422,-0.3196,-0.3408,-0.8707,0.6764,0.8586,-0.3427,-0.0529,
6.800116,0.0603,-0.7422,-0.3196,-3.3314,1.0773,0.9768,0.8586,-0.3427,-0.0529,
6.837444,0.0603,-0.7422,-0.3196,-3.3314,1.0773,0.9768,0.9608,-0.1883,0.1176,
6.839829,0.0603,-0.7422,-0.3196,-0.6326,1.7931,0.4770,0.9608,-0.1883,0.1176,
6.876885,0.0603,-0.7422,-0.3196,-0.5250,1.9235,0.1145,0.9608,-0.1883,0.1176,
6.879594,0.0603,-0.7422,-0.3196,-0.5250,1.9235,0.1145,1.0663,-0.3513,0.1335,
6.880834,0.1727,-0.7403,-0.3492,-0.5250,1.9235,0.1145,1.0663,-0.3513,0.1335,
6.882981,0.1947,-0.7542,-0.3448,-0.5250,1.9235,0.1145,1.0663,-0.3513,0.1335,
6.886491,0.1605,-0.7960,-0.3541,-0.5250,1.9235,0.1145,1.0663,-0.3513,0.1335,
6.887851,0.1272,-0.8639,-0.4181,-0.5250,1.9235,0.1145,1.0663,-0.3513,0.1335,
6.888970,0.1470,-0.8966,-0.4762,-0.5250,1.9235,0.1145,1.0663,-0.3513,0.1335,
6.917498,0.1470,-0.8966,-0.4762,-0.5250,1.9235,0.1145,0.9704,-0.4631,0.2102,
6.920505,0.1470,-0.8966,-0.4762,-0.3585,1.0028,-0.9600,0.9704,-0.4631,0.2102,
6.957498,0.1470,-0.8966,-0.4762,-0.3585,1.0028,-0.9600,0.8032,-0.4013,0.1857,
6.960834,0.1470,-0.8966,-0.4762,0.5846,0.8604,-1.3543,0.8032,-0.4013,0.1857,
6.962451,0.2118,-0.8954,-0.4797,0.5846,0.8604,-1.3543,0.8032,-0.4013,0.1857,
6.963851,0.2521,-0.8785,-0.4337,0.5846,0.8604,-1.3543,0.8032,-0.4013,0.1857,
6.968746,0.2269,-0.8546,-0.3795,0.5846,0.8604,-1.3543,0.8032,-0.4013,0.1857,
6.971361,0.1727,-0.8490,-0.3822,0.5846,0.8604,-1.3543,0.8032,-0.4013,0.1857,
6.995734,0.1727,-0.8490,-0.3822,0.5846,0.8604,-1.3543,0.7563,-0.3172,0.1080,
6.998605,0.1727,-0.8490,-0.3822,0.6486,0.9335,-1.5912,0.7563,-0.3172,0.1080,
7.034912,0.1727,-0.8490,-0.3822,0.6486,0.9335,-1.5912,0.5646,-0.3246,0.1176,
7.036847,0.1727,-0.8490,-0.3822,-0.2015,1.1661,-1.4072,0.5646,-0.3246,0.1176,
7.038521,0.1255,-0.8536,-0.3959,-0.2015,1.1661,-1.4072,0.5646,-0.3246,0.1176,
7.039488,0.1077,-0.8683,-0.4066,-0.2015,1.1661,-1.4072,0.5646,-0.3246,0.1176,
7.040818,0.1358,-0.8504,-0.4149,-0.2015,1.1661,-1.4072,0.5646,-0.3246,0.1176,
7.042078,0.1636,-0.8255,-0.3893,-0.2015,1.1661,-1.4072,0.5646,-0.3246,0.1176,
7.074579,0.1636,-0.8255,-0.3893,-0.2015,1.1661,-1.4072,0.3281,-0.4866,0.0302,
7.076789,0.1636,-0.8255,-0.3893,-0.1413,1.1793,-1.4779,0.3281,-0.4866,0.0302,
7.114579,0.1636,-0.8255,-0.3893,-0.1413,1.1793,-1.4779,0.2290,-0.5260,-0.0667,
7.117866,0.1636,-0.8255,-0.3893,0.1537,1.4328,-1.4283,0.2290,-0.5260,-0.0667,
7.119417,0.1903,-0.8153,-0.3553,0.1537,1.4328,-1.4283,0.2290,-0.5260,-0.0667,
7.120685,0.2396,-0.7825,-0.3565,0.1537,1.4328,-1.4283,0.2290,-0.5260,-0.0667,
7.121796,0.3173,-0.7273,-0.3582,0.1537,1.4328,-1.4283,0.2290,-0.5260,-0.0667,
7.122881,0.4153,-0.6606,-0.3040,0.1537,1.4328,-1.4283,0.2290,-0.5260,-0.0667,
7.154055,0.4153,-0.6606,-0.3040,0.1537,1.4328,-1.4283,0.1725,-0.4408,-0.2894,
7.156340,0.4153,-0.6606,-0.3040,1.6332,2.4384,-0.9916,0.1725,-0.4408,-0.2894,
7.193022,0.4153,-0.6606,-0.3040,1.6332,2.4384,-0.9916,0.3696,-0.1329,-0.5344,
7.195523,0.4153,-0.6606,-0.3040,0.3359,3.6325,0.3855,0.3696,-0.1329,-0.5344,
7.199977,0.3686,-0.6125,-0.2080,0.3359,3.6325,0.3855,0.3696,-0.1329,-0.5344,
7.201876,0.2059,-0.5890,-0.1457,0.3359,3.6325,0.3855,0.3696,-0.1329,-0.5344,
7.203183,0.0603,-0.5841,-0.2014,0.3359,3.6325,0.3855,0.3696,-0.1329,-0.5344,
7.204434,-0.0164,-0.6161,-0.3473,0.3359,3.6325,0.3855,0.3696,-0.1329,-0.5344,
7.233747,-0.0164,-0.6161,-0.3473,0.3359,3.6325,0.3855,0.3643,-0.3598,-0.3970,
7.236250,-0.0164,-0.6161,-0.3473,0.2137,3.5745,0.2700,0.3643,-0.3598,-0.3970,
7.272496,-0.0164,-0.6161,-0.3473,0.2137,3.5745,0.2700,0.0937,-0.6325,-0.2894,
7.274996,-0.0164,-0.6161,-0.3473,-1.8261,3.0743,-1.8072,0.0937,-0.6325,-0.2894,
7.276312,-0.0152,-0.6643,-0.4364,-1.8261,3.0743,-1.8072,0.0937,-0.6325,-0.2894,
7.277734,0.0495,-0.6381,-0.4205,-1.8261,3.0743,-1.8072,0.0937,-0.6325,-0.2894,
7.278833,0.0972,-0.5573,-0.4186,-1.8261,3.0743,-1.8072,0.0937,-0.6325,-0.2894,
7.279921,0.0439,-0.7227,-0.5781,-1.8261,3.0743,-1.8072,0.0937,-0.6325,-0.2894,
7.312857,0.0439,-0.7227,-0.5781,-1.8261,3.0743,-1.8072,-0.3494,-0.2245,-0.3416,
7.315353,0.0439,-0.7227,-0.5781,-1.9007,2.9673,-1.6336,-0.3494,-0.2245,-0.3416,
7.352601,0.0439,-0.7227,-0.5781,-1.4304,0.8807,-2.8514,-0.3494,-0.2245,-0.3416,
7.355201,0.0439,-0.7227,-0.5781,-1.4304,0.8807,-2.8514,-0.8906,0.0408,-0.3000,
7.356478,0.0481,-1.2389,-0.6932,-1.4304,0.8807,-2.8514,-0.8906,0.0408,-0.3000,
7.357853,0.2521,-1.7316,-0.0338,-1.4304,0.8807,-2.8514,-0.8906,0.0408,-0.3000,
7.358793,0.2034,-1.9503,0.3229,-1.4304,0.8807,-2.8514,-0.8906,0.0408,-0.3000,
7.360011,-0.2370,-1.8812,0.6222,-1.4304,0.8807,-2.8514,-0.8906,0.0408,-0.3000,
7.391874,-0.2370,-1.8812,0.6222,-1.2471,-8.9452,5.7061,-0.8906,0.0408,-0.3000,
7.393559,-0.2370,-1.8812,0.6222,-1.2471,-8.9452,5.7061,-0.2898,-0.6581,-0.0167,
7.421557,-0.1481,-1.9503,0.2642,-1.2471,-8.9452,5.7061,-0.2898,-0.6581,-0.0167,
7.422936,0.4158,-1.5176,-0.9627,-1.2471,-8.9452,5.7061,-0.2898,-0.6581,-0.0167,
7.423740,0.5162,-0.8900,-0.2652,-1.2471,-8.9452,5.7061,-0.2898,-0.6581,-0.0167,
7.430987,0.5162,-0.8900,-0.2652,-1.2471,-8.9452,5.7061,-0.4293,0.0578,0.3136,
7.432582,0.5162,-0.8900,-0.2652,0.6955,-4.9487,-0.2611,-0.4293,0.0578,0.3136,
7.471632,0.5162,-0.8900,-0.2652,0.6955,-4.9487,-0.2611,-0.0096,0.2900,-0.0241,
7.473774,0.5162,-0.8900,-0.2652,-0.4962,-3.0618,5.5705,-0.0096,0.2900,-0.0241,
7.510716,0.5162,-0.8900,-0.2652,-0.4962,-3.0618,5.5705,1.3827,0.3422,0.2518,
7.513129,0.5162,-0.8900,-0.2652,-0.4294,-2.8576,4.9454,1.3827,0.3422,0.2518,
7.514547,0.2880,-0.9215,0.4558,-0.4294,-2.8576,4.9454,1.3827,0.3422,0.2518,
7.515680,0.1182,-1.3899,0.3011,-0.4294,-2.8576,4.9454,1.3827,0.3422,0.2518,
7.517781,0.0231,-1.4839,0.0991,-0.4294,-2.8576,4.9454,1.3827,0.3422,0.2518,
7.519008,-0.0233,-1.3266,-0.2354,-0.4294,-2.8576,4.9454,1.3827,0.3422,0.2518,
7.520541,0.1641,-1.1055,-0.4093,-0.4294,-2.8576,4.9454,1.3827,0.3422,0.2518,
7.550946,0.1641,-1.1055,-0.4093,-0.4294,-2.8576,4.9454,1.2218,0.1515,0.7301,
7.553120,0.1641,-1.1055,-0.4093,-0.1602,-2.6707,4.3953,1.2218,0.1515,0.7301,
7.590220,0.1641,-1.1055,-0.4093,-0.1602,-2.6707,4.3953,1.1270,0.0727,0.5351,
7.592808,0.1641,-1.1055,-0.4093,0.2848,-1.3368,-1.7603,1.1270,0.0727,0.5351,
7.594209,0.3640,-0.9902,-0.2578,0.2848,-1.3368,-1.7603,1.1270,0.0727,0.5351,
7.595498,0.4104,-0.9592,-0.1269,0.2848,-1.3368,-1.7603,1.1270,0.0727,0.5351,
7.596738,0.2719,-0.8971,-0.2087,0.2848,-1.3368,-1.7603,1.1270,0.0727,0.5351,
7.598022,0.1243,-0.7798,-0.2415,0.2848,-1.3368,-1.7603,1.1270,0.0727,0.5351,
7.629842,0.1243,-0.7798,-0.2415,0.2848,-1.3368,-1.7603,1.1984,0.1132,0.3817,
7.632266,0.1243,-0.7798,-0.2415,1.3921,1.2745,-1.1528,1.1984,0.1132,0.3817,
7.669398,0.0796,-0.7034,-0.1562,1.3921,1.2745,-1.1528,1.1984,0.1132,0.3817,
7.672055,0.1355,-0.7332,-0.1242,1.3921,1.2745,-1.1528,1.1984,0.1132,0.3817,
7.673357,0.1778,-0.8744,-0.1713,1.3921,1.2745,-1.1528,1.1984,0.1132,0.3817,
7.675332,0.1778,-0.8744,-0.1713,1.3921,1.2745,-1.1528,1.1973,0.1089,0.4702,
7.676528,0.1778,-0.8744,-0.1713,0.2196,2.3420,-1.1981,1.1973,0.1089,0.4702,
7.709843,0.1778,-0.8744,-0.1713,0.2196,2.3420,-1.1981,1.0258,0.3902,0.4702,
7.711920,0.1778,-0.8744,-0.1713,1.1227,0.8427,-2.8448,1.0258,0.3902,0.4702,
7.748803,0.1778,-0.8744,-0.1713,1.1227,0.8427,-2.8448,0.7446,0.2368,0.3988,
7.751532,0.1778,-0.8744,-0.1713,1.2600,0.8344,-3.0924,0.7446,0.2368,0.3988,
7.753115,0.1964,-0.9741,-0.2571,1.2600,0.8344,-3.0924,0.7446,0.2368,0.3988,
7.754432,0.2184,-0.9303,-0.3226,1.2600,0.8344,-3.0924,0.7446,0.2368,0.3988,
7.755613,0.2042,-0.8675,-0.2632,1.2600,0.8344,-3.0924,0.7446,0.2368,0.3988,
7.756720,0.1414,-0.8756,-0.2104,1.2600,0.8344,-3.0924,0.7446,0.2368,0.3988,
7.758010,0.1365,-0.8815,-0.1953,1.2600,0.8344,-3.0924,0.7446,0.2368,0.3988,
7.788203,0.1365,-0.8815,-0.1953,1.4270,0.8222,-3.2760,0.7446,0.2368,0.3988,
7.790968,0.1365,-0.8815,-0.1953,1.4270,0.8222,-3.2760,0.6082,0.0237,0.4872,
7.828079,0.1365,-0.8815,-0.1953,1.4270,0.8222,-3.2760,0.2919,-0.0807,0.4009,
7.830188,0.1365,-0.8815,-0.1953,1.1311,1.1647,-2.4430,0.2919,-0.0807,0.4009,
7.831880,0.2088,-0.9044,-0.1604,1.1311,1.1647,-2.4430,0.2919,-0.0807,0.4009,
7.832993,0.3539,-1.0669,-0.2070,1.1311,1.1647,-2.4430,0.2919,-0.0807,0.4009,
7.835409,0.5142,-1.2873,-0.2808,1.1311,1.1647,-2.4430,0.2919,-0.0807,0.4009,
7.837243,0.5860,-1.4099,-0.2984,1.1311,1.1647,-2.4430,0.2919,-0.0807,0.4009,
7.869558,0.5860,-1.4099,-0.2984,1.1311,1.1647,-2.4430,-0.4645,-0.5419,-0.1839,
7.872032,0.5860,-1.4099,-0.2984,4.1385,-2.3909,-2.9207,-0.4645,-0.5419,-0.1839,
7.906827,0.5860,-1.4099,-0.2984,2.7832,-2.1706,-1.9993,-0.4645,-0.5419,-0.1839,
7.909592,0.5860,-1.4099,-0.2984,2.7832,-2.1706,-1.9993,-1.5340,-1.3089,-0.3938,
7.911488,0.5027,-1.4026,-0.2779,2.7832,-2.1706,-1.9993,-1.5340,-1.3089,-0.3938,
7.912655,0.3618,-1.2225,-0.2742,2.7832,-2.1706,-1.9993,-1.5340,-1.3089,-0.3938,
7.913835,0.2372,-1.0801,-0.1577,2.7832,-2.1706,-1.9993,-1.5340,-1.3089,-0.3938,
7.915061,0.0776,-0.9885,0.0204,2.7832,-2.1706,-1.9993,-1.5340,-1.3089,-0.3938,
7.946297,0.0776,-0.9885,0.0204,2.7832,-2.1706,-1.9993,-2.1199,-1.4506,-0.4417,
7.949085,0.0776,-0.9885,0.0204,2.6086,-2.2125,-1.0978,-2.1199,-1.4506,-0.4417,
7.986187,0.0776,-0.9885,0.0204,2.6086,-2.2125,-1.0978,-2.0933,-0.8924,-0.3757,
7.989329,-0.1207,-1.0955,0.0688,2.6086,-2.2125,-1.0978,-2.0933,-0.8924,-0.3757,
7.990580,-0.1452,-1.3117,0.1030,2.6086,-2.2125,-1.0978,-2.0933,-0.8924,-0.3757,
7.991590,0.0434,-1.3136,0.2198,2.6086,-2.2125,-1.0978,-2.0933,-0.8924,-0.3757,
7.992300,0.1551,-1.1558,0.2388,2.6086,-2.2125,-1.0978,-2.0933,-0.8924,-0.3757,
7.993014,0.1551,-1.1558,0.2388,-1.6663,-1.3309,2.6544,-2.0933,-0.8924,-0.3757,
8.025272,0.1551,-1.1558,0.2388,-1.7512,-1.4740,3.2387,-2.0933,-0.8924,-0.3757,
8.026793,0.1551,-1.1558,0.2388,-1.7512,-1.4740,3.2387,-1.6299,-0.3161,-0.3725,
8.066336,0.1551,-1.1558,0.2388,-1.7512,-1.4740,3.2387,-1.2506,-1.1076,-0.5227,
8.068291,0.1551,-1.1558,0.2388,0.0673,-2.0228,4.8092,-1.2506,-1.1076,-0.5227,
8.069070,0.1915,-1.0537,0.0788,0.0673,-2.0228,4.8092,-1.2506,-1.1076,-0.5227,
8.069725,0.2308,-1.0386,-0.1003,0.0673,-2.0228,4.8092,-1.2506,-1.1076,-0.5227,
8.070649,0.2440,-0.9206,-0.1281,0.0673,-2.0228,4.8092,-1.2506,-1.1076,-0.5227,
8.071758,0.2284,-0.8372,-0.0504,0.0673,-2.0228,4.8092,-1.2506,-1.1076,-0.5227,
8.104718,0.2284,-0.8372,-0.0504,0.0673,-2.0228,4.8092,-0.9087,-2.2975,-0.6974,
8.106948,0.2284,-0.8372,-0.0504,1.1124,0.1972,2.5477,-0.9087,-2.2975,-0.6974,
8.144528,0.2284,-0.8372,-0.0504,1.1124,0.1972,2.5477,-0.4379,-2.3497,-0.8849,
8.146892,0.2284,-0.8372,-0.0504,0.6383,0.9696,3.4438,-0.4379,-2.3497,-0.8849,
8.148263,0.2335,-0.8206,-0.0216,0.6383,0.9696,3.4438,-0.4379,-2.3497,-0.8849,
8.149334,0.1854,-0.8314,-0.0172,0.6383,0.9696,3.4438,-0.4379,-2.3497,-0.8849,
8.150728,0.1392,-0.8712,-0.0306,0.6383,0.9696,3.4438,-0.4379,-2.3497,-0.8849,
8.151867,0.1553,-0.8983,-0.0731,0.6383,0.9696,3.4438,-0.4379,-2.3497,-0.8849,
8.185629,0.1553,-0.8983,-0.0731,0.5602,0.8972,3.5029,-0.4379,-2.3497,-0.8849,
8.188256,0.1553,-0.8983,-0.0731,0.5602,0.8972,3.5029,-0.0405,-2.1580,-1.0681,
8.224509,0.1553,-0.8983,-0.0731,0.5602,0.8972,3.5029,0.2599,-1.9918,-1.1341,
8.226853,0.1553,-0.8983,-0.0731,-0.0492,0.2569,3.0814,0.2599,-1.9918,-1.1341,
8.228086,0.1585,-0.9166,-0.0709,-0.0492,0.2569,3.0814,0.2599,-1.9918,-1.1341,
8.229154,0.0925,-0.8966,-0.0414,-0.0492,0.2569,3.0814,0.2599,-1.9918,-1.1341,
8.230231,0.0354,-0.8626,-0.0739,-0.0492,0.2569,3.0814,0.2599,-1.9918,-1.1341,
8.231394,0.0219,-0.8590,-0.1340,-0.0492,0.2569,3.0814,0.2599,-1.9918,-1.1341,
8.263487,0.0219,-0.8590,-0.1340,-0.0492,0.2569,3.0814,0.5251,-1.3995,-0.9669,
8.265782,0.0219,-0.8590,-0.1340,-0.1932,0.2726,2.9220,0.5251,-1.3995,-0.9669,
8.303004,0.0219,-0.8590,-0.1340,-0.1932,0.2726,2.9220,0.5965,-1.0607,-0.7400,
8.305754,0.0219,-0.8590,-0.1340,-1.2289,0.7140,1.9875,0.5965,-1.0607,-0.7400,
8.307191,0.0632,-0.8619,-0.2075,-1.2289,0.7140,1.9875,0.5965,-1.0607,-0.7400,
8.308450,0.1021,-0.8631,-0.2879,-1.2289,0.7140,1.9875,0.5965,-1.0607,-0.7400,
8.309507,0.1165,-0.8829,-0.3392,-1.2289,0.7140,1.9875,0.5965,-1.0607,-0.7400,
8.310960,0.1272,-0.9181,-0.3419,-1.2289,0.7140,1.9875,0.5965,-1.0607,-0.7400,
8.343188,0.1272,-0.9181,-0.3419,-1.2289,0.7140,1.9875,0.4570,-1.2876,-0.5078,
8.345657,0.1272,-0.9181,-0.3419,-0.5008,0.4695,0.0952,0.4570,-1.2876,-0.5078,
8.383130,0.0876,-0.9506,-0.3389,-0.5008,0.4695,0.0952,0.4570,-1.2876,-0.5078,
8.385263,0.0490,-0.9369,-0.3595,-0.5008,0.4695,0.0952,0.4570,-1.2876,-0.5078,
8.386540,0.0210,-0.8614,-0.3658,-0.5008,0.4695,0.0952,0.4570,-1.2876,-0.5078,
8.387931,0.0210,-0.8614,-0.3658,-0.5008,0.4695,0.0952,0.3707,-1.4016,-0.2990,
8.389048,0.0210,-0.8614,-0.3658,-1.0272,0.2173,-0.2576,0.3707,-1.4016,-0.2990,
8.422753,0.0210,-0.8614,-0.3658,-1.0272,0.2173,-0.2576,0.3984,-1.3899,-0.2723,
8.425047,0.0210,-0.8614,-0.3658,1.0017,1.1419,-0.9882,0.3984,-1.3899,-0.2723,
8.461832,0.0210,-0.8614,-0.3658,1.0017,1.1419,-0.9882,0.4303,-1.6179,-0.5248,
8.464365,0.0210,-0.8614,-0.3658,0.9944,1.1454,-1.0337,0.4303,-1.6179,-0.5248,
8.465671,0.0842,-0.8021,-0.3687,0.9944,1.1454,-1.0337,0.4303,-1.6179,-0.5248,
8.466917,0.2438,-0.8109,-0.4342,0.9944,1.1454,-1.0337,0.4303,-1.6179,-0.5248,
8.469255,0.4326,-0.8575,-0.4709,0.9944,1.1454,-1.0337,0.4303,-1.6179,-0.5248,
8.470918,0.5684,-0.9462,-0.4308,0.9944,1.1454,-1.0337,0.4303,-1.6179,-0.5248,
8.472178,0.5294,-0.9838,-0.4113,0.9944,1.1454,-1.0337,0.4303,-1.6179,-0.5248,
8.501260,0.5294,-0.9838,-0.4113,0.9944,1.1454,-1.0337,0.3952,-1.1886,-0.8359,
8.504014,0.5294,-0.9838,-0.4113,0.8210,1.1231,-1.0865,0.3952,-1.1886,-0.8359,
8.541508,0.5294,-0.9838,-0.4113,0.8210,1.1231,-1.0865,0.5262,-1.3537,-1.0436,
8.543929,0.5294,-0.9838,-0.4113,2.9782,-0.2012,-1.3950,0.5262,-1.3537,-1.0436,
8.545262,0.4052,-0.9438,-0.5039,2.9782,-0.2012,-1.3950,0.5262,-1.3537,-1.0436,
8.546401,0.3764,-0.8648,-0.4733,2.9782,-0.2012,-1.3950,0.5262,-1.3537,-1.0436,
8.547701,0.3258,-0.8700,-0.4083,2.9782,-0.2012,-1.3950,0.5262,-1.3537,-1.0436,
8.548980,0.2635,-1.0598,-0.4310,2.9782,-0.2012,-1.3950,0.5262,-1.3537,-1.0436,
8.579364,0.2635,-1.0598,-0.4310,2.9782,-0.2012,-1.3950,0.6871,-1.0330,-0.8998,
8.581362,0.2635,-1.0598,-0.4310,0.9987,0.0633,-1.4292,0.6871,-1.0330,-0.8998,
8.619897,0.2635,-1.0598,-0.4310,0.9987,0.0633,-1.4292,0.1001,-0.0232,-0.3309,
8.621414,0.2635,-1.0598,-0.4310,-3.1455,-5.9601,1.1768,0.1001,-0.0232,-0.3309,
8.621976,0.2753,-1.6105,-0.2251,-3.1455,-5.9601,1.1768,0.1001,-0.0232,-0.3309,
8.622486,-0.0377,-1.9948,-0.0052,-3.1455,-5.9601,1.1768,0.1001,-0.0232,-0.3309,
8.623024,-0.5207,-1.0588,-0.2679,-3.1455,-5.9601,1.1768,0.1001,-0.0232,-0.3309,
8.623560,-0.6387,-0.3933,-0.5034,-3.1455,-5.9601,1.1768,0.1001,-0.0232,-0.3309,
8.660177,-0.6387,-0.3933,-0.5034,-3.1455,-5.9601,1.1768,-0.2099,-0.5909,0.6065,
8.662772,-0.6387,-0.3933,-0.5034,-2.8074,-5.8352,1.2812,-0.2099,-0.5909,0.6065,
8.699921,-0.3401,-0.6081,-0.1877,-2.8074,-5.8352,1.2812,-0.2099,-0.5909,0.6065,
8.702553,0.1436,-0.9325,0.4350,-2.8074,-5.8352,1.2812,-0.2099,-0.5909,0.6065,
8.703853,0.3596,-1.1524,0.3815,-2.8074,-5.8352,1.2812,-0.2099,-0.5909,0.6065,
8.704988,0.3596,-1.1524,0.3815,-2.8074,-5.8352,1.2812,0.2237,0.3358,1.1295,
8.706123,0.3596,-1.1524,0.3815,-4.1555,3.1308,1.9340,0.2237,0.3358,1.1295,
8.739316,0.3596,-1.1524,0.3815,-4.1555,3.1308,1.9340,0.7329,0.0099,0.5575,
8.741568,0.3596,-1.1524,0.3815,3.0669,-0.9563,4.5145,0.7329,0.0099,0.5575,
8.778616,0.3596,-1.1524,0.3815,3.0669,-0.9563,4.5145,0.8373,-0.8349,-0.1477,
8.780933,0.3596,-1.1524,0.3815,3.0337,-0.8733,4.1663,0.8373,-0.8349,-0.1477,
8.782334,0.4756,-1.1309,0.1629,3.0337,-0.8733,4.1663,0.8373,-0.8349,-0.1477,
8.783577,0.4927,-0.9391,0.0976,3.0337,-0.8733,4.1663,0.8373,-0.8349,-0.1477,
8.784905,0.3444,-0.9081,-0.1086,3.0337,-0.8733,4.1663,0.8373,-0.8349,-0.1477,
8.786106,0.1079,-0.9721,-0.3060,3.0337,-0.8733,4.1663,0.8373,-0.8349,-0.1477,
8.787387,0.0439,-0.9802,-0.2266,3.0337,-0.8733,4.1663,0.8373,-0.8349,-0.1477,
8.818364,0.0439,-0.9802,-0.2266,3.0337,-0.8733,4.1663,0.5369,-0.5036,-0.0294,
8.820057,0.0439,-0.9802,-0.2266,0.3396,0.3442,-0.2018,0.5369,-0.5036,-0.0294,
8.857445,0.0439,-0.9802,-0.2266,0.3396,0.3442,-0.2018,0.5230,-0.6005,0.0952,
8.859544,0.0439,-0.9802,-0.2266,0.3228,0.3862,0.8013,0.5230,-0.6005,0.0952,
8.860667,0.0920,-0.9548,-0.1200,0.3228,0.3862,0.8013,0.5230,-0.6005,0.0952,
8.861670,0.1568,-0.9479,-0.0893,0.3228,0.3862,0.8013,0.5230,-0.6005,0.0952,
8.862912,0.2196,-0.9557,-0.0680,0.3228,0.3862,0.8013,0.5230,-0.6005,0.0952,
8.864122,0.2291,-0.9631,-0.0756,0.3228,0.3862,0.8013,0.5230,-0.6005,0.0952,
8.897965,0.2291,-0.9631,-0.0756,0.3548,0.4211,0.5627,0.5230,-0.6005,0.0952,
8.900263,0.2291,-0.9631,-0.0756,0.3548,0.4211,0.5627,0.6871,-0.7710,-0.0273,
8.937669,0.2291,-0.9631,-0.0756,0.3548,0.4211,0.5627,0.7691,-0.7454,-0.0444,
8.940116,0.2291,-0.9631,-0.0756,0.8285,0.4632,0.3229,0.7691,-0.7454,-0.0444,
8.941498,0.2100,-0.9577,-0.0770,0.8285,0.4632,0.3229,0.7691,-0.7454,-0.0444,
8.942748,0.1717,-0.9342,-0.1156,0.8285,0.4632,0.3229,0.7691,-0.7454,-0.0444,
8.943935,0.1404,-0.9362,-0.1174,0.8285,0.4632,0.3229,0.7691,-0.7454,-0.0444,
8.945542,0.1104,-0.9841,-0.0717,0.8285,0.4632,0.3229,0.7691,-0.7454,-0.0444,
8.976880,0.1104,-0.9841,-0.0717,0.8285,0.4632,0.3229,0.7798,-0.8530,-0.0081,
8.979290,0.1104,-0.9841,-0.0717,0.8469,0.4875,0.0580,0.7798,-0.8530,-0.0081,
9.016559,0.1104,-0.9841,-0.0717,0.8469,0.4875,0.0580,0.8181,-0.7166,0.0355,
9.019361,0.1104,-0.9841,-0.0717,0.0141,0.2660,-0.1579,0.8181,-0.7166,0.0355,
9.020824,0.0940,-1.0095,-0.0585,0.0141,0.2660,-0.1579,0.8181,-0.7166,0.0355,
9.022102,0.0781,-0.9716,-0.0558,0.0141,0.2660,-0.1579,0.8181,-0.7166,0.0355,
9.023348,0.0532,-0.9357,-0.0573,0.0141,0.2660,-0.1579,0.8181,-0.7166,0.0355,
9.024399,0.0393,-0.9516,-0.0631,0.0141,0.2660,-0.1579,0.8181,-0.7166,0.0355,
9.057884,0.0393,-0.9516,-0.0631,0.0141,0.2660,-0.1579,0.8501,-0.5515,0.0962,
9.060036,0.0393,-0.9516,-0.0631,-0.4979,0.5097,-0.2288,0.8501,-0.5515,0.0962,
9.096120,0.0393,-0.9516,-0.0631,-0.4979,0.5097,-0.2288,0.7126,-0.3502,0.3061,
9.097919,-0.0145,-0.9650,-0.1327,-0.4979,0.5097,-0.2288,0.7126,-0.3502,0.3061,
9.098631,0.0053,-0.9684,-0.1826,-0.4979,0.5097,-0.2288,0.7126,-0.3502,0.3061,
9.099242,0.0630,-0.9899,-0.1455,-0.4979,0.5097,-0.2288,0.7126,-0.3502,0.3061,
9.099932,0.1030,-0.9885,-0.1191,-0.4979,0.5097,-0.2288,0.7126,-0.3502,0.3061,
9.100590,0.1030,-0.9885,-0.1191,-0.7440,0.3119,-1.3993,0.7126,-0.3502,0.3061,
9.134502,0.1030,-0.9885,-0.1191,-0.7440,0.3119,-1.3993,0.5997,-0.2128,0.4105,
9.135886,0.1030,-0.9885,-0.1191,-0.5737,0.3199,-1.5996,0.5997,-0.2128,0.4105,
9.171687,0.1182,-0.9892,-0.1323,-0.5737,0.3199,-1.5996,0.5997,-0.2128,0.4105,
9.174187,0.1707,-0.9799,-0.1159,-0.5737,0.3199,-1.5996,0.5997,-0.2128,0.4105,
9.175750,0.2333,-0.9723,-0.1012,-0.5737,0.3199,-1.5996,0.5997,-0.2128,0.4105,
9.177399,0.2333,-0.9723,-0.1012,-0.5737,0.3199,-1.5996,0.5241,-0.1350,0.3647,
9.178864,0.2333,-0.9723,-0.1012,0.6612,0.2104,-1.4703,0.5241,-0.1350,0.3647,
9.214551,0.2333,-0.9723,-0.1012,0.6612,0.2104,-1.4703,0.5081,0.0663,0.2124,
9.216605,0.2333,-0.9723,-0.1012,1.7022,0.3370,-1.2669,0.5081,0.0663,0.2124,
9.255345,0.2333,-0.9723,-0.1012,1.7022,0.3370,-1.2669,0.5955,-0.0125,0.1879,
9.257888,0.2333,-0.9723,-0.1012,1.7456,0.3221,-1.4742,0.5955,-0.0125,0.1879,
9.259420,0.2501,-0.9694,-0.0756,1.7456,0.3221,-1.4742,0.5955,-0.0125,0.1879,
9.260715,0.2103,-0.9745,-0.0734,1.7456,0.3221,-1.4742,0.5955,-0.0125,0.1879,
9.262460,0.1947,-1.0178,-0.1032,1.7456,0.3221,-1.4742,0.5955,-0.0125,0.1879,
9.264096,0.2748,-1.1116,-0.1100,1.7456,0.3221,-1.4742,0.5955,-0.0125,0.1879,
9.265144,0.4309,-1.2289,-0.1027,1.7456,0.3221,-1.4742,0.5955,-0.0125,0.1879,
9.294073,0.4309,-1.2289,-0.1027,1.7456,0.3221,-1.4742,0.3781,-0.7305,0.1122,
9.296229,0.4309,-1.2289,-0.1027,2.4024,-1.1114,-1.7915,0.3781,-0.7305,0.1122,
9.333915,0.4309,-1.2289,-0.1027,2.4024,-1.1114,-1.7915,-0.3643,-1.3132,-0.1658,
9.336137,0.4309,-1.2289,-0.1027,3.2089,-2.8694,-2.3727,-0.3643,-1.3132,-0.1658,
9.337663,0.5650,-1.3315,-0.1125,3.2089,-2.8694,-2.3727,-0.3643,-1.3132,-0.1658,
9.338953,0.4690,-1.3549,-0.1762,3.2089,-2.8694,-2.3727,-0.3643,-1.3132,-0.1658,
9.340089,0.1607,-1.2267,-0.2703,3.2089,-2.8694,-2.3727,-0.3643,-1.3132,-0.1658,
9.341426,-0.0553,-1.1355,-0.3451,3.2089,-2.8694,-2.3727,-0.3643,-1.3132,-0.1658,
9.372490,-0.0553,-1.1355,-0.3451,3.2089,-2.8694,-2.3727,-1.6277,-1.1758,-0.1530,
9.374047,-0.0553,-1.1355,-0.3451,3.0844,-2.8128,-1.6706,-1.6277,-1.1758,-0.1530,
9.397754,-0.0707,-1.0671,-0.2876,3.0844,-2.8128,-1.6706,-1.6277,-1.1758,-0.1530,
9.399493,-0.0157,-1.0068,-0.1459,3.0844,-2.8128,-1.6706,-1.6277,-1.1758,-0.1530,
9.400778,-0.0023,-1.0527,0.0622,3.0844,-2.8128,-1.6706,-1.6277,-1.1758,-0.1530,
9.412177,-0.0023,-1.0527,0.0622,3.0844,-2.8128,-1.6706,-2.4065,-1.2727,-0.2361,
9.414232,-0.0023,-1.0527,0.0622,-1.3198,-0.5748,-1.3733,-2.4065,-1.2727,-0.2361,
9.452117,-0.0023,-1.0527,0.0622,-1.3198,-0.5748,-1.3733,-2.0965,-0.6634,-0.3128,
9.454125,-0.0023,-1.0527,0.0622,-1.0029,-1.1647,4.0302,-2.0965,-0.6634,-0.3128,
9.485564,-0.0206,-1.1233,0.2806,-1.0029,-1.1647,4.0302,-2.0965,-0.6634,-0.3128,
9.487392,-0.0020,-1.1761,0.2960,-1.0029,-1.1647,4.0302,-2.0965,-0.6634,-0.3128,
9.488528,0.0962,-1.1431,0.1790,-1.0029,-1.1647,4.0302,-2.0965,-0.6634,-0.3128,
9.489508,0.2039,-1.0649,0.0231,-1.0029,-1.1647,4.0302,-2.0965,-0.6634,-0.3128,
9.493198,0.2039,-1.0649,0.0231,-1.0029,-1.1647,4.0302,-1.5404,-0.4354,-0.2979,
9.495045,0.2039,-1.0649,0.0231,-1.0609,-1.2915,4.5626,-1.5404,-0.4354,-0.2979,
9.530937,0.2039,-1.0649,0.0231,-1.0609,-1.2915,4.5626,-1.2954,-1.4059,-0.4002,
9.532861,0.2039,-1.0649,0.0231,0.5908,-0.8785,3.2050,-1.2954,-1.4059,-0.4002,
9.572541,0.2039,-1.0649,0.0231,0.6374,-1.0180,3.6223,-1.2954,-1.4059,-0.4002,
9.574719,0.2039,-1.0649,0.0231,0.6374,-1.0180,3.6223,-1.0834,-1.9289,-0.5056,
9.576151,0.1827,-0.9743,-0.1296,0.6374,-1.0180,3.6223,-1.0834,-1.9289,-0.5056,
9.577701,0.1612,-0.8788,-0.1762,0.6374,-1.0180,3.6223,-1.0834,-1.9289,-0.5056,
9.578886,0.0813,-0.9152,-0.1630,0.6374,-1.0180,3.6223,-1.0834,-1.9289,-0.5056,
9.580054,0.0376,-0.9369,-0.1288,0.6374,-1.0180,3.6223,-1.0834,-1.9289,-0.5056,
9.581111,0.0867,-0.9408,-0.0573,0.6374,-1.0180,3.6223,-1.0834,-1.9289,-0.5056,
9.610089,0.0867,-0.9408,-0.0573,0.6374,-1.0180,3.6223,-0.6349,-1.7159,-0.5110,
9.612177,0.0867,-0.9408,-0.0573,0.0269,0.3436,2.1172,-0.6349,-1.7159,-0.5110,
9.649872,0.1651,-0.9442,-0.0961,0.0269,0.3436,2.1172,-0.6349,-1.7159,-0.5110,
9.652109,0.1602,-0.8412,-0.1064,0.0269,0.3436,2.1172,-0.6349,-1.7159,-0.5110,
9.653518,0.0493,-0.7713,-0.0309,0.0269,0.3436,2.1172,-0.6349,-1.7159,-0.5110,
9.654829,0.0493,-0.7713,-0.0309,0.0269,0.3436,2.1172,-0.1588,-1.5635,-0.7464,
9.656060,0.0493,-0.7713,-0.0309,0.4082,0.3037,2.8634,-0.1588,-1.5635,-0.7464,
9.689644,0.0493,-0.7713,-0.0309,0.4082,0.3037,2.8634,0.3750,-1.1619,-0.6846,
9.691473,0.0493,-0.7713,-0.0309,-0.9999,1.7193,3.2924,0.3750,-1.1619,-0.6846,
9.728557,0.0493,-0.7713,-0.0309,-0.9999,1.7193,3.2924,0.8383,-0.9659,-0.4502,
9.731014,0.0493,-0.7713,-0.0309,-1.0156,1.7848,2.9737,0.8383,-0.9659,-0.4502,
9.733259,-0.0181,-0.7547,-0.0055,-1.0156,1.7848,2.9737,0.8383,-0.9659,-0.4502,
9.735510,-0.0308,-0.7666,-0.0468,-1.0156,1.7848,2.9737,0.8383,-0.9659,-0.4502,
9.736665,-0.0174,-0.7786,-0.1428,-1.0156,1.7848,2.9737,0.8383,-0.9659,-0.4502,
9.737932,-0.0272,-0.8057,-0.2481,-1.0156,1.7848,2.9737,0.8383,-0.9659,-0.4502,
9.739198,-0.0313,-0.8746,-0.3648,-1.0156,1.7848,2.9737,0.8383,-0.9659,-0.4502,
9.769405,-0.0313,-0.8746,-0.3648,-1.0156,1.7848,2.9737,0.9406,-1.2610,-0.2606,
9.771803,-0.0313,-0.8746,-0.3648,-1.1862,1.3239,0.4708,0.9406,-1.2610,-0.2606,
9.810759,-0.0313,-0.8746,-0.3648,-1.1862,1.3239,0.4708,0.5720,-1.6061,-0.0731,
9.812972,-0.0313,-0.8746,-0.3648,-0.0034,-0.4059,-2.5165,0.5720,-1.6061,-0.0731,
9.815006,0.0039,-0.9582,-0.4802,-0.0034,-0.4059,-2.5165,0.5720,-1.6061,-0.0731,
9.816280,0.0784,-1.0214,-0.5571,-0.0034,-0.4059,-2.5165,0.5720,-1.6061,-0.0731,
9.817785,0.1568,-1.0300,-0.5977,-0.0034,-0.4059,-2.5165,0.5720,-1.6061,-0.0731,
9.818891,0.1162,-1.0273,-0.6084,-0.0034,-0.4059,-2.5165,0.5720,-1.6061,-0.0731,
9.848177,0.1162,-1.0273,-0.6084,-0.0034,-0.4059,-2.5165,0.2908,-1.4879,-0.2990,
9.851540,0.1162,-1.0273,-0.6084,0.0481,-0.3762,-2.5381,0.2908,-1.4879,-0.2990,
9.887528,0.1162,-1.0273,-0.6084,0.0481,-0.3762,-2.5381,-0.0735,-1.1385,-0.5525,
9.889289,0.0148,-0.9704,-0.5696,0.0481,-0.3762,-2.5381,-0.0735,-1.1385,-0.5525,
9.890170,0.0644,-0.9247,-0.6004,0.0481,-0.3762,-2.5381,-0.0735,-1.1385,-0.5525,
9.891294,0.1934,-0.9091,-0.4977,0.0481,-0.3762,-2.5381,-0.0735,-1.1385,-0.5525,
9.892222,0.3407,-0.8680,-0.4655,0.0481,-0.3762,-2.5381,-0.0735,-1.1385,-0.5525,
9.893181,0.3407,-0.8680,-0.4655,-0.1706,-0.1144,-2.8957,-0.0735,-1.1385,-0.5525,
9.926661,0.3407,-0.8680,-0.4655,-0.1706,-0.1144,-2.8957,-0.3473,-0.3193,-0.9243,
9.928083,0.3407,-0.8680,-0.4655,-0.4694,-0.1872,-2.7095,-0.3473,-0.3193,-0.9243,
9.966164,0.3407,-0.8680,-0.4655,-0.4694,-0.1872,-2.7095,0.2077,-0.6772,-0.3906,
9.967682,0.3407,-0.8680,-0.4655,1.3885,0.1027,-0.0694,0.2077,-0.6772,-0.3906,
9.968226,0.2562,-1.0583,0.0067,1.3885,0.1027,-0.0694,0.2077,-0.6772,-0.3906,
9.968706,-0.3111,-1.5010,0.1370,1.3885,0.1027,-0.0694,0.2077,-0.6772,-0.3906,
9.969173,-0.4012,-1.5074,-0.4193,1.3885,0.1027,-0.0694,0.2077,-0.6772,-0.3906,
9.969587,-0.0807,-0.9293,-0.2666,1.3885,0.1027,-0.0694,0.2077,-0.6772,-0.3906,
10.005812,-0.0807,-0.9293,-0.2666,1.3885,0.1027,-0.0694,-0.0416,-1.5742,0.3232,
10.006783,-0.0807,-0.9293,-0.2666,-3.4130,-3.4322,1.3206,-0.0416,-1.5742,0.3232,
10.047640,-0.0807,-0.9293,-0.2666,1.0403,0.8920,4.7903,-0.0416,-1.5742,0.3232,
10.049899,0.0649,-0.7498,0.2305,1.0403,0.8920,4.7903,-0.0416,-1.5742,0.3232,
10.051199,0.1851,-0.8827,0.2098,1.0403,0.8920,4.7903,-0.0416,-1.5742,0.3232,
10.052314,0.2855,-0.9975,0.1521,1.0403,0.8920,4.7903,-0.0416,-1.5742,0.3232,
10.053534,0.2855,-0.9975,0.1521,1.0403,0.8920,4.7903,0.5241,-0.6336,0.1442,
10.087997,0.2855,-0.9975,0.1521,1.0403,0.8920,4.7903,1.0312,-0.2948,-0.3213,
10.090708,0.2855,-0.9975,0.1521,1.7414,0.0622,2.1746,1.0312,-0.2948,-0.3213,
10.126272,0.2855,-0.9975,0.1521,1.7414,0.0622,2.1746,0.9427,-0.6517,-0.4002,
10.128407,0.2855,-0.9975,0.1521,1.6196,0.1308,1.8075,0.9427,-0.6517,-0.4002,
10.131951,0.3373,-1.0153,0.1304,1.6196,0.1308,1.8075,0.9427,-0.6517,-0.4002,
10.133279,0.2711,-0.9743,-0.0358,1.6196,0.1308,1.8075,0.9427,-0.6517,-0.4002,
10.134294,0.1783,-0.9245,-0.1750,1.6196,0.1308,1.8075,0.9427,-0.6517,-0.4002,
10.135538,0.1218,-0.9271,-0.2503,1.6196,0.1308,1.8075,0.9427,-0.6517,-0.4002,
10.136483,0.0659,-0.9643,-0.2510,1.6196,0.1308,1.8075,0.9427,-0.6517,-0.4002,
10.165356,0.0659,-0.9643,-0.2510,1.6196,0.1308,1.8075,0.4911,-0.8360,-0.2691,
10.167747,0.0659,-0.9643,-0.2510,1.5555,0.1565,1.6241,0.4911,-0.8360,-0.2691,
10.205497,0.0659,-0.9643,-0.2510,1.5555,0.1565,1.6241,0.2247,-0.4397,-0.2169,
10.207793,0.0659,-0.9643,-0.2510,-0.1842,0.2343,-0.5606,0.2247,-0.4397,-0.2169,
10.209185,0.0811,-1.0000,-0.2300,-0.1842,0.2343,-0.5606,0.2247,-0.4397,-0.2169,
10.210685,0.1304,-0.9968,-0.2031,-0.1842,0.2343,-0.5606,0.2247,-0.4397,-0.2169,
10.211720,0.1903,-0.9731,-0.1222,-0.1842,0.2343,-0.5606,0.2247,-0.4397,-0.2169,
10.212710,0.1969,-0.9704,-0.0871,-0.1842,0.2343,-0.5606,0.2247,-0.4397,-0.2169,
10.245311,0.1969,-0.9704,-0.0871,-0.1842,0.2343,-0.5606,0.3206,-0.5419,-0.2990,
10.247412,0.1969,-0.9704,-0.0871,0.5425,0.0828,0.3751,0.3206,-0.5419,-0.2990,
10.284935,0.1969,-0.9704,-0.0871,0.5425,0.0828,0.3751,0.3931,-0.5579,-0.2745,
10.287528,0.1969,-0.9704,-0.0871,-0.0308,0.0723,0.5694,0.3931,-0.5579,-0.2745,
10.288621,0.1776,-0.9677,-0.1193,-0.0308,0.0723,0.5694,0.3931,-0.5579,-0.2745,
10.289672,0.1221,-0.9809,-0.1134,-0.0308,0.0723,0.5694,0.3931,-0.5579,-0.2745,
10.291118,0.0632,-0.9985,-0.0790,-0.0308,0.0723,0.5694,0.3931,-0.5579,-0.2745,
10.292193,0.0517,-1.0127,-0.0648,-0.0308,0.0723,0.5694,0.3931,-0.5579,-0.2745,
10.324474,0.0517,-1.0127,-0.0648,-0.0628,0.0882,0.4237,0.3931,-0.5579,-0.2745,
10.326567,0.0517,-1.0127,-0.0648,-0.0628,0.0882,0.4237,0.4069,-0.3662,-0.1434,
10.363622,0.0517,-1.0127,-0.0648,-0.0628,0.0882,0.4237,0.4676,-0.2192,-0.1232,
10.365900,0.0517,-1.0127,-0.0648,-0.2828,-0.2234,0.5939,0.4676,-0.2192,-0.1232,
10.367336,0.0984,-1.0141,-0.0778,-0.2828,-0.2234,0.5939,0.4676,-0.2192,-0.1232,
10.368459,0.1548,-1.0227,-0.0621,-0.2828,-0.2234,0.5939,0.4676,-0.2192,-0.1232,
10.369696,0.1942,-1.0146,-0.0468,-0.2828,-0.2234,0.5939,0.4676,-0.2192,-0.1232,
10.370846,0.1771,-0.9816,-0.0636,-0.2828,-0.2234,0.5939,0.4676,-0.2192,-0.1232,
10.403413,0.1771,-0.9816,-0.0636,-0.2828,-0.2234,0.5939,0.5230,-0.2735,-0.1477,
10.405321,0.1771,-0.9816,-0.0636,-0.3217,-0.2033,0.3991,0.5230,-0.2735,-0.1477,
10.444350,0.1771,-0.9816,-0.0636,-0.3217,-0.2033,0.3991,0.5241,-0.4951,-0.0060,
10.446420,0.1771,-0.9816,-0.0636,0.3797,0.2027,0.3244,0.5241,-0.4951,-0.0060,
10.447853,0.1453,-0.9340,-0.0614,0.3797,0.2027,0.3244,0.5241,-0.4951,-0.0060,
10.449334,0.1153,-0.9208,-0.0431,0.3797,0.2027,0.3244,0.5241,-0.4951,-0.0060,
10.450818,0.0639,-0.9592,-0.0597,0.3797,0.2027,0.3244,0.5241,-0.4951,-0.0060,
10.451914,0.0542,-0.9687,-0.1000,0.3797,0.2027,0.3244,0.5241,-0.4951,-0.0060,
10.483059,0.0542,-0.9687,-0.1000,0.3797,0.2027,0.3244,0.5262,-0.4557,0.2038,
10.485326,0.0542,-0.9687,-0.1000,-0.4442,0.4878,0.0410,0.5262,-0.4557,0.2038,
10.522756,0.0542,-0.9687,-0.1000,-0.4442,0.4878,0.0410,0.5124,-0.3864,0.2507,
10.525850,0.0542,-0.9687,-0.1000,0.4349,0.1429,-1.2594,0.5124,-0.3864,0.2507,
10.527173,0.0791,-0.9679,-0.1457,0.4349,0.1429,-1.2594,0.5124,-0.3864,0.2507,
10.528296,0.1529,-0.9885,-0.1965,0.4349,0.1429,-1.2594,0.5124,-0.3864,0.2507,
10.529239,0.2401,-1.0043,-0.2097,0.4349,0.1429,-1.2594,0.5124,-0.3864,0.2507,
10.530309,0.2572,-1.0087,-0.1672,0.4349,0.1429,-1.2594,0.5124,-0.3864,0.2507,
10.562230,0.2572,-1.0087,-0.1672,0.4349,0.1429,-1.2594,0.4421,-0.3491,0.1719,
10.564614,0.2572,-1.0087,-0.1672,0.4998,0.1557,-1.3930,0.4421,-0.3491,0.1719,
10.601890,0.2572,-1.0087,-0.1672,0.4998,0.1557,-1.3930,0.4485,-0.3939,0.1538,
10.604338,0.2572,-1.0087,-0.1672,1.1362,0.2411,-1.1048,0.4485,-0.3939,0.1538,
10.606794,0.2142,-0.9846,-0.1352,1.1362,0.2411,-1.1048,0.4485,-0.3939,0.1538,
10.608342,0.1815,-0.9438,-0.1183,1.1362,0.2411,-1.1048,0.4485,-0.3939,0.1538,
10.609303,0.1724,-0.9367,-0.1371,1.1362,0.2411,-1.1048,0.4485,-0.3939,0.1538,
10.610591,0.1575,-0.9665,-0.1359,1.1362,0.2411,-1.1048,0.4485,-0.3939,0.1538,
10.641207,0.1575,-0.9665,-0.1359,1.1362,0.2411,-1.1048,0.3558,-0.3055,0.1303,
10.643844,0.1575,-0.9665,-0.1359,1.1696,0.2448,-1.2112,0.3558,-0.3055,0.1303,
10.679317,0.1575,-0.9665,-0.1359,1.1696,0.2448,-1.2112,0.2088,-0.2554,0.1378,
10.681295,0.1575,-0.9665,-0.1359,0.5340,0.3833,-1.1558,0.2088,-0.2554,0.1378,
10.682291,0.1143,-0.9914,-0.1147,0.5340,0.3833,-1.1558,0.2088,-0.2554,0.1378,
10.682946,0.0720,-1.0036,-0.1198,0.5340,0.3833,-1.1558,0.2088,-0.2554,0.1378,
10.683643,0.1211,-1.0388,-0.1574,0.5340,0.3833,-1.1558,0.2088,-0.2554,0.1378,
10.684495,0.2235,-1.0833,-0.1044,0.5340,0.3833,-1.1558,0.2088,-0.2554,0.1378,
10.718831,0.2235,-1.0833,-0.1044,0.5340,0.3833,-1.1558,-0.0469,-0.4663,0.1325,
10.720738,0.2235,-1.0833,-0.1044,0.4895,-0.3611,-1.0828,-0.0469,-0.4663,0.1325,
10.759472,0.2235,-1.0833,-0.1044,0.4895,-0.3611,-1.0828,-0.1151,-0.5281,0.0334,
10.761519,0.2235,-1.0833,-0.1044,1.0843,-1.5516,0.0840,-0.1151,-0.5281,0.0334,
10.763029,0.2731,-1.1329,-0.0157,1.0843,-1.5516,0.0840,-0.1151,-0.5281,0.0334,
10.764228,0.2291,-1.1619,0.0175,1.0843,-1.5516,0.0840,-0.1151,-0.5281,0.0334,
10.765029,0.0969,-1.2035,-0.0450,1.0843,-1.5516,0.0840,-0.1151,-0.5281,0.0334,
10.766142,-0.0013,-1.2201,-0.1679,1.0843,-1.5516,0.0840,-0.1151,-0.5281,0.0334,
10.798453,-0.0013,-1.2201,-0.1679,1.0843,-1.5516,0.0840,-0.3601,-0.6176,0.1143,
10.800215,-0.0013,-1.2201,-0.1679,1.1175,-1.5263,0.2416,-0.3601,-0.6176,0.1143,
10.817463,-0.0218,-1.1465,-0.2415,1.1175,-1.5263,0.2416,-0.3601,-0.6176,0.1143,
10.819346,-0.0079,-1.0503,-0.2544,1.1175,-1.5263,0.2416,-0.3601,-0.6176,0.1143,
10.837882,-0.0079,-1.0503,-0.2544,1.1175,-1.5263,0.2416,-1.0557,-0.7454,0.2166,
10.839661,-0.0079,-1.0503,-0.2544,-0.8245,-1.2577,-1.3256,-1.0557,-0.7454,0.2166,
10.877612,-0.0079,-1.0503,-0.2544,-0.8245,-1.2577,-1.3256,-1.7321,-0.5398,0.1751,
10.878970,-0.0079,-1.0503,-0.2544,-0.8904,0.4683,-0.4467,-1.7321,-0.5398,0.1751,
10.905202,-0.0025,-0.9831,-0.2422,-0.8904,0.4683,-0.4467,-1.7321,-0.5398,0.1751,
10.906210,-0.0323,-0.9396,-0.2170,-0.8904,0.4683,-0.4467,-1.7321,-0.5398,0.1751,
10.906799,-0.0494,-0.9399,-0.1496,-0.8904,0.4683,-0.4467,-1.7321,-0.5398,0.1751,
10.907390,-0.0115,-1.0009,-0.0619,-0.8904,0.4683,-0.4467,-1.7321,-0.5398,0.1751,
10.908048,0.0789,-1.0745,-0.0003,-0.8904,0.4683,-0.4467,-1.7321,-0.5398,0.1751,
10.917158,0.0789,-1.0745,-0.0003,-0.8904,0.4683,-0.4467,-1.7321,-0.2660,0.0984,
10.918027,0.0789,-1.0745,-0.0003,-0.8192,0.3357,0.2258,-1.7321,-0.2660,0.0984,
10.956523,0.0789,-1.0745,-0.0003,-0.8192,0.3357,0.2258,-1.0941,-0.3726,-0.1488,
10.957627,0.0789,-1.0745,-0.0003,0.2024,-0.7175,2.5248,-1.0941,-0.3726,-0.1488,
10.992659,0.1685,-1.0801,0.0400,0.2024,-0.7175,2.5248,-1.0941,-0.3726,-0.1488,
10.993754,0.1898,-1.0063,0.0781,0.2024,-0.7175,2.5248,-1.0941,-0.3726,-0.1488,
10.994255,0.1375,-0.9377,-0.0035,0.2024,-0.7175,2.5248,-1.0941,-0.3726,-0.1488,
10.994787,0.1004,-0.9181,-0.1183,0.2024,-0.7175,2.5248,-1.0941,-0.3726,-0.1488,
10.995863,0.1004,-0.9181,-0.1183,0.2024,-0.7175,2.5248,-0.4762,-0.5856,-0.4375,
10.997095,0.1004,-0.9181,-0.1183,0.7145,0.1765,2.6049,-0.4762,-0.5856,-0.4375,
11.035573,0.1004,-0.9181,-0.1183,0.7145,0.1765,2.6049,-0.2333,-0.8743,-0.5621,
11.037137,0.1004,-0.9181,-0.1183,0.0716,0.4403,0.6940,-0.2333,-0.8743,-0.5621,
11.075748,0.1004,-0.9181,-0.1183,0.0716,0.4403,0.6940,-0.1651,-0.8210,-0.6665,
11.077933,0.1004,-0.9181,-0.1183,-0.0824,0.3917,0.7711,-0.1651,-0.8210,-0.6665,
11.079043,0.0898,-0.9061,-0.1757,-0.0824,0.3917,0.7711,-0.1651,-0.8210,-0.6665,
11.079873,0.0874,-0.9164,-0.2307,-0.0824,0.3917,0.7711,-0.1651,-0.8210,-0.6665,
11.080853,0.0889,-0.9435,-0.2534,-0.0824,0.3917,0.7711,-0.1651,-0.8210,-0.6665,
11.081703,0.0703,-0.9721,-0.2293,-0.0824,0.3917,0.7711,-0.1651,-0.8210,-0.6665,
11.082382,0.0652,-0.9880,-0.2271,-0.0824,0.3917,0.7711,-0.1651,-0.8210,-0.6665,
11.115413,0.0652,-0.9880,-0.2271,-0.0824,0.3917,0.7711,-0.0533,-0.5899,-0.7144,
11.117533,0.0652,-0.9880,-0.2271,-0.2752,0.3499,0.8017,-0.0533,-0.5899,-0.7144,
11.150602,0.0271,-0.9672,-0.2393,-0.2752,0.3499,0.8017,-0.0533,-0.5899,-0.7144,
11.152542,0.0034,-0.9100,-0.2319,-0.2752,0.3499,0.8017,-0.0533,-0.5899,-0.7144,
11.153887,-0.0137,-0.8565,-0.2180,-0.2752,0.3499,0.8017,-0.0533,-0.5899,-0.7144,
11.156619,-0.0137,-0.8565,-0.2180,-0.2752,0.3499,0.8017,0.0895,-0.6229,-0.5685,
11.158159,-0.0137,-0.8565,-0.2180,-0.7392,-0.1905,0.6707,0.0895,-0.6229,-0.5685,
11.195320,-0.0137,-0.8565,-0.2180,-0.7392,-0.1905,0.6707,0.2066,-0.4716,-0.2574,
11.197645,-0.0137,-0.8565,-0.2180,-1.4272,0.8465,0.6487,0.2066,-0.4716,-0.2574,
11.234672,-0.0137,-0.8565,-0.2180,-1.4272,0.8465,0.6487,0.2162,-0.3513,-0.0092,
11.236434,-0.0137,-0.8565,-0.2180,-1.3678,0.8559,0.5764,0.2162,-0.3513,-0.0092,
11.238080,-0.0326,-0.8421,-0.2329,-1.3678,0.8559,0.5764,0.2162,-0.3513,-0.0092,
11.239340,-0.0450,-0.8509,-0.2556,-1.3678,0.8559,0.5764,0.2162,-0.3513,-0.0092,
11.240488,-0.0108,-0.8626,-0.2967,-1.3678,0.8559,0.5764,0.2162,-0.3513,-0.0092,
11.241526,0.0525,-0.8651,-0.3433,-1.3678,0.8559,0.5764,0.2162,-0.3513,-0.0092,
11.242748,0.1407,-0.8658,-0.3849,-1.3678,0.8559,0.5764,0.2162,-0.3513,-0.0092,
11.274482,0.1407,-0.8658,-0.3849,-1.3678,0.8559,0.5764,0.1704,-0.3630,0.0483,
11.276086,0.1407,-0.8658,-0.3849,-1.1608,0.9589,-0.1622,0.1704,-0.3630,0.0483,
11.314260,0.1407,-0.8658,-0.3849,-1.1608,0.9589,-0.1622,0.1715,-0.2650,-0.1530,
11.317135,0.1407,-0.8658,-0.3849,0.6751,0.7518,-1.1998,0.1715,-0.2650,-0.1530,
11.318366,0.2064,-0.8807,-0.4086,0.6751,0.7518,-1.1998,0.1715,-0.2650,-0.1530,
11.319613,0.2237,-0.8951,-0.4103,0.6751,0.7518,-1.1998,0.1715,-0.2650,-0.1530,
11.320746,0.2206,-0.9100,-0.4127,0.6751,0.7518,-1.1998,0.1715,-0.2650,-0.1530,
11.321699,0.2335,-0.9093,-0.4142,0.6751,0.7518,-1.1998,0.1715,-0.2650,-0.1530,
11.353775,0.2335,-0.9093,-0.4142,0.6751,0.7518,-1.1998,0.2226,-0.2298,-0.3938,
11.355625,0.2335,-0.9093,-0.4142,0.5439,0.7435,-1.2501,0.2226,-0.2298,-0.3938,
11.395256,0.2335,-0.9093,-0.4142,0.5439,0.7435,-1.2501,0.2716,-0.1798,-0.4151,
11.397264,0.2335,-0.9093,-0.4142,0.8900,0.5930,-1.4639,0.2716,-0.1798,-0.4151,
11.398610,0.2687,-0.8670,-0.4220,0.8900,0.5930,-1.4639,0.2716,-0.1798,-0.4151,
11.399738,0.2513,-0.8026,-0.4132,0.8900,0.5930,-1.4639,0.2716,-0.1798,-0.4151,
11.401083,0.1893,-0.7723,-0.3832,0.8900,0.5930,-1.4639,0.2716,-0.1798,-0.4151,
11.402157,0.1983,-0.8087,-0.2984,0.8900,0.5930,-1.4639,0.2716,-0.1798,-0.4151,
11.434198,0.1983,-0.8087,-0.2984,0.8900,0.5930,-1.4639,0.4676,-0.0519,-0.3522,
11.436296,0.1983,-0.8087,-0.2984,0.4825,1.5813,-1.1122,0.4676,-0.0519,-0.3522,
11.472555,0.2609,-1.0246,-0.2617,0.4825,1.5813,-1.1122,0.4676,-0.0519,-0.3522,
11.474547,0.1404,-1.6369,-0.3568,0.4825,1.5813,-1.1122,0.4676,-0.0519,-0.3522,
11.475672,-0.0257,-1.7593,-0.3512,0.4825,1.5813,-1.1122,0.4676,-0.0519,-0.3522,
11.476913,-0.0257,-1.7593,-0.3512,0.4825,1.5813,-1.1122,0.2205,0.4136,-0.3512,
11.478146,-0.0257,-1.7593,-0.3512,-0.5383,-4.9916,-0.7998,0.2205,0.4136,-0.3512,
11.512307,-0.0257,-1.7593,-0.3512,-0.5383,-4.9916,-0.7998,-0.1033,0.7673,-0.1466,
11.514394,-0.0257,-1.7593,-0.3512,-4.7313,1.7909,2.5468,-0.1033,0.7673,-0.1466,
11.551526,-0.0257,-1.7593,-0.3512,-4.7313,1.7909,2.5468,0.0916,0.5425,0.5458,
11.553282,-0.0257,-1.7593,-0.3512,-4.5002,1.8062,2.4334,0.0916,0.5425,0.5458,
11.554782,-0.1286,-0.9552,0.0072,-4.5002,1.8062,2.4334,0.0916,0.5425,0.5458,
11.556137,-0.3255,-0.6313,0.1443,-4.5002,1.8062,2.4334,0.0916,0.5425,0.5458,
11.557644,-0.4398,-0.7425,-0.0783,-4.5002,1.8062,2.4334,0.0916,0.5425,0.5458,
11.559158,-0.3001,-0.9203,-0.0262,-4.5002,1.8062,2.4334,0.0916,0.5425,0.5458,
11.560710,-0.0013,-1.1018,0.0742,-4.5002,1.8062,2.4334,0.0916,0.5425,0.5458,
11.591337,-0.0013,-1.1018,0.0742,-4.5002,1.8062,2.4334,0.2386,0.6405,0.8228,
11.593320,-0.0013,-1.1018,0.0742,-4.1754,1.8426,2.2685,0.2386,0.6405,0.8228,
11.630596,-0.0013,-1.1018,0.0742,-4.1754,1.8426,2.2685,0.3781,0.8855,0.2422,
11.631815,-0.0013,-1.1018,0.0742,-1.2943,-0.7974,2.1384,0.3781,0.8855,0.2422,
11.633314,0.2758,-1.1316,0.0532,-1.2943,-0.7974,2.1384,0.3781,0.8855,0.2422,
11.634135,0.4392,-1.0327,-0.1364,-1.2943,-0.7974,2.1384,0.3781,0.8855,0.2422,
11.634877,0.3955,-0.9860,-0.3712,-1.2943,-0.7974,2.1384,0.3781,0.8855,0.2422,
11.635524,0.3031,-0.9907,-0.2864,-1.2943,-0.7974,2.1384,0.3781,0.8855,0.2422,
11.669888,0.3031,-0.9907,-0.2864,-1.2943,-0.7974,2.1384,0.1779,0.9345,-0.1104,
11.671485,0.3031,-0.9907,-0.2864,2.3598,-0.3136,-0.8842,0.1779,0.9345,-0.1104,
11.710154,0.3031,-0.9907,-0.2864,2.3598,-0.3136,-0.8842,0.4154,0.3880,-0.0891,
11.711904,0.3031,-0.9907,-0.2864,1.2125,0.2921,0.6725,0.4154,0.3880,-0.0891,
11.713068,0.2868,-0.9670,-0.1181,1.2125,0.2921,0.6725,0.4154,0.3880,-0.0891,
11.714273,0.2772,-0.9386,-0.0670,1.2125,0.2921,0.6725,0.4154,0.3880,-0.0891,
11.715494,0.2469,-0.9235,-0.0744,1.2125,0.2921,0.6725,0.4154,0.3880,-0.0891,
11.716729,0.1675,-0.9252,-0.1215,1.2125,0.2921,0.6725,0.4154,0.3880,-0.0891,
11.750139,0.1675,-0.9252,-0.1215,1.2125,0.2921,0.6725,0.6487,0.1143,-0.0369,
11.752148,0.1675,-0.9252,-0.1215,1.1721,0.3203,0.4133,0.6487,0.1143,-0.0369,
11.789548,0.1675,-0.9252,-0.1215,1.1721,0.3203,0.4133,0.4687,0.2559,0.0739,
11.791547,0.1675,-0.9252,-0.1215,-0.1655,0.4111,-0.8220,0.4687,0.2559,0.0739,
11.792963,0.0884,-0.9403,-0.2559,-0.1655,0.4111,-0.8220,0.4687,0.2559,0.0739,
11.794203,0.1397,-0.9416,-0.2056,-0.1655,0.4111,-0.8220,0.4687,0.2559,0.0739,
11.795694,0.1959,-0.9286,-0.1095,-0.1655,0.4111,-0.8220,0.4687,0.2559,0.0739,
11.796826,0.2127,-0.9159,-0.1254,-0.1655,0.4111,-0.8220,0.4687,0.2559,0.0739,
11.828605,0.2127,-0.9159,-0.1254,-0.1655,0.4111,-0.8220,0.4261,0.2229,0.0025,
11.829565,0.2127,-0.9159,-0.1254,-0.1704,0.4210,-0.9803,0.4261,0.2229,0.0025,
11.868549,0.2127,-0.9159,-0.1254,-0.1704,0.4210,-0.9803,0.0639,0.1537,-0.0561,
11.870232,0.2127,-0.9159,-0.1254,0.4951,0.6257,-0.6514,0.0639,0.1537,-0.0561,
11.871647,0.2015,-0.8964,-0.2405,0.4951,0.6257,-0.6514,0.0639,0.1537,-0.0561,
11.872911,0.1685,-0.8651,-0.3438,0.4951,0.6257,-0.6514,0.0639,0.1537,-0.0561,
11.873909,0.1497,-0.8394,-0.3499,0.4951,0.6257,-0.6514,0.0639,0.1537,-0.0561,
11.875160,0.1587,-0.7962,-0.2840,0.4951,0.6257,-0.6514,0.0639,0.1537,-0.0561,
11.908298,0.1587,-0.7962,-0.2840,0.4951,0.6257,-0.6514,-0.5167,0.0397,-0.0092,
11.910537,0.1587,-0.7962,-0.2840,0.0543,1.3660,-2.0638,-0.5167,0.0397,-0.0092,
11.947987,0.1587,-0.7962,-0.2840,0.0543,1.3660,-2.0638,-0.7393,-0.1137,0.0856,
11.951042,0.1587,-0.7962,-0.2840,0.0202,2.3804,-0.4020,-0.7393,-0.1137,0.0856,
11.952214,0.1570,-0.7359,-0.1765,0.0202,2.3804,-0.4020,-0.7393,-0.1137,0.0856,
11.953447,0.1519,-0.6938,-0.1330,0.0202,2.3804,-0.4020,-0.7393,-0.1137,0.0856,
11.954872,0.1460,-0.7383,-0.2490,0.0202,2.3804,-0.4020,-0.7393,-0.1137,0.0856,
11.955822,0.0539,-0.8993,-0.5009,0.0202,2.3804,-0.4020,-0.7393,-0.1137,0.0856,
11.987601,0.0539,-0.8993,-0.5009,0.0202,2.3804,-0.4020,-1.0834,-0.2671,0.2475,
11.989724,0.0539,-0.8993,-0.5009,0.1280,2.2854,0.0179,-1.0834,-0.2671,0.2475,
12.027176,0.0539,-0.8993,-0.5009,0.1280,2.2854,0.0179,-1.5138,-0.1691,0.6044,
12.029356,0.0539,-0.8993,-0.5009,-1.5606,0.1931,-2.3517,-1.5138,-0.1691,0.6044,
12.031090,-0.1078,-0.9995,-0.6639,-1.5606,0.1931,-2.3517,-1.5138,-0.1691,0.6044,
12.032368,-0.0887,-0.8788,-0.3050,-1.5606,0.1931,-2.3517,-1.5138,-0.1691,0.6044,
12.033454,0.1116,-0.6863,0.1897,-1.5606,0.1931,-2.3517,-1.5138,-0.1691,0.6044,
12.034720,0.2191,-0.5937,0.1944,-1.5606,0.1931,-2.3517,-1.5138,-0.1691,0.6044,
12.066895,0.2191,-0.5937,0.1944,-1.5606,0.1931,-2.3517,-0.9854,-0.2426,0.5788,
12.068968,0.2191,-0.5937,0.1944,-1.3013,0.1107,-1.9489,-0.9854,-0.2426,0.5788,
12.107731,0.2191,-0.5937,0.1944,-1.3013,0.1107,-1.9489,-1.0941,-0.2383,0.2646,
12.109302,0.2191,-0.5937,0.1944,1.0128,2.6156,2.8824,-1.0941,-0.2383,0.2646,
12.110780,0.2022,-0.6792,-0.4833,1.0128,2.6156,2.8824,-1.0941,-0.2383,0.2646,
12.112236,0.2706,-0.7957,-0.5793,1.0128,2.6156,2.8824,-1.0941,-0.2383,0.2646,
12.113594,0.3779,-0.7378,-0.0507,1.0128,2.6156,2.8824,-1.0941,-0.2383,0.2646,
12.115019,0.2176,-0.6740,-0.2307,1.0128,2.6156,2.8824,-1.0941,-0.2383,0.2646,
12.146275,0.2176,-0.6740,-0.2307,1.0128,2.6156,2.8824,-1.3668,-0.4567,-0.0103,
12.148266,0.2176,-0.6740,-0.2307,2.1246,1.5897,0.8756,-1.3668,-0.4567,-0.0103,
12.186386,0.2176,-0.6740,-0.2307,2.1246,1.5897,0.8756,-1.2922,-0.2405,-0.2755,
12.188428,0.2176,-0.6740,-0.2307,0.7187,-1.7132,0.5115,-1.2922,-0.2405,-0.2755,
12.189711,0.0400,-0.7784,-0.6336,0.7187,-1.7132,0.5115,-1.2922,-0.2405,-0.2755,
12.190805,0.1324,-1.0564,-0.3201,0.7187,-1.7132,0.5115,-1.2922,-0.2405,-0.2755,
12.191884,0.2848,-1.3290,-0.1542,0.7187,-1.7132,0.5115,-1.2922,-0.2405,-0.2755,
12.192970,0.3522,-1.4622,-0.3424,0.7187,-1.7132,0.5115,-1.2922,-0.2405,-0.2755,
12.225537,0.3522,-1.4622,-0.3424,0.7187,-1.7132,0.5115,-0.7340,-0.2011,-0.7506,
12.227733,0.3522,-1.4622,-0.3424,0.4905,-1.8324,0.7544,-0.7340,-0.2011,-0.7506,
12.265116,0.3522,-1.4622,-0.3424,0.4905,-1.8324,0.7544,-0.7052,-0.3427,-1.0191,
12.267503,0.3522,-1.4622,-0.3424,1.2585,-6.9690,0.1472,-0.7052,-0.3427,-1.0191,
12.269028,0.3315,-1.5772,-0.4728,1.2585,-6.9690,0.1472,-0.7052,-0.3427,-1.0191,
12.270610,0.1004,-1.6803,-0.5547,1.2585,-6.9690,0.1472,-0.7052,-0.3427,-1.0191,
12.271815,-0.1523,-1.5743,-0.5412,1.2585,-6.9690,0.1472,-0.7052,-0.3427,-1.0191,
12.273166,-0.1637,-1.3537,-0.5315,1.2585,-6.9690,0.1472,-0.7052,-0.3427,-1.0191,
12.304681,-0.1637,-1.3537,-0.5315,1.2585,-6.9690,0.1472,-0.3281,-0.2277,-0.7751,
12.307094,-0.1637,-1.3537,-0.5315,1.0257,-6.9552,0.2646,-0.3281,-0.2277,-0.7751,
12.343829,-0.1637,-1.3537,-0.5315,1.0257,-6.9552,0.2646,-0.0948,-0.6570,-0.2819,
12.347463,-0.0267,-1.1864,-0.4863,1.0257,-6.9552,0.2646,-0.0948,-0.6570,-0.2819,
12.348837,0.1143,-1.1079,-0.5268,1.0257,-6.9552,0.2646,-0.0948,-0.6570,-0.2819,
12.349578,0.1695,-1.0605,-0.4794,1.0257,-6.9552,0.2646,-0.0948,-0.6570,-0.2819,
12.350263,0.0459,-0.9648,-0.3624,1.0257,-6.9552,0.2646,-0.0948,-0.6570,-0.2819,
12.351605,0.0459,-0.9648,-0.3624,-2.5810,-4.9293,-0.2766,-0.0948,-0.6570,-0.2819,
12.383931,0.0459,-0.9648,-0.3624,-2.5810,-4.9293,-0.2766,0.0863,-0.8669,-0.0774,
12.385922,0.0459,-0.9648,-0.3624,-0.2408,-1.6836,0.3579,0.0863,-0.8669,-0.0774,
12.423638,0.0459,-0.9648,-0.3624,-0.2408,-1.6836,0.3579,0.3249,-0.5899,0.0313,
12.425547,0.0459,-0.9648,-0.3624,-2.4710,0.2352,1.4047,0.3249,-0.5899,0.0313,
12.426803,-0.1266,-0.8956,-0.3280,-2.4710,0.2352,1.4047,0.3249,-0.5899,0.0313,
12.428610,-0.1508,-0.8739,-0.3509,-2.4710,0.2352,1.4047,0.3249,-0.5899,0.0313,
12.429866,-0.1261,-0.7945,-0.3372,-2.4710,0.2352,1.4047,0.3249,-0.5899,0.0313,
12.431319,-0.0924,-0.7068,-0.2896,-2.4710,0.2352,1.4047,0.3249,-0.5899,0.0313,
12.463052,-0.0924,-0.7068,-0.2896,-2.4710,0.2352,1.4047,0.4516,-0.1105,0.2433,
12.465170,-0.0924,-0.7068,-0.2896,-2.3275,0.3234,1.2338,0.4516,-0.1105,0.2433,
12.502688,-0.0924,-0.7068,-0.2896,-2.3275,0.3234,1.2338,0.6189,0.2197,0.3700,
12.504695,-0.0924,-0.7068,-0.2896,-1.1290,2.0148,1.6406,0.6189,0.2197,0.3700,
12.505973,-0.0191,-0.6816,-0.2691,-1.1290,2.0148,1.6406,0.6189,0.2197,0.3700,
12.507268,0.0415,-0.6850,-0.2561,-1.1290,2.0148,1.6406,0.6189,0.2197,0.3700,
12.508557,0.0715,-0.6826,-0.2657,-1.1290,2.0148,1.6406,0.6189,0.2197,0.3700,
12.519948,0.0969,-0.6814,-0.2730,-1.1290,2.0148,1.6406,0.6189,0.2197,0.3700,
12.542447,0.0969,-0.6814,-0.2730,-1.1290,2.0148,1.6406,0.8543,0.3752,0.3242,
12.544845,0.0969,-0.6814,-0.2730,-1.0588,2.1303,1.3053,0.8543,0.3752,0.3242,
12.581423,0.0969,-0.6814,-0.2730,-1.0588,2.1303,1.3053,1.0471,0.3859,0.3519,
12.583402,0.0779,-0.7046,-0.2749,-1.0588,2.1303,1.3053,1.0471,0.3859,0.3519,
12.584259,0.0371,-0.7007,-0.2837,-1.0588,2.1303,1.3053,1.0471,0.3859,0.3519,
12.585119,0.0312,-0.6819,-0.2991,-1.0588,2.1303,1.3053,1.0471,0.3859,0.3519,
12.585873,0.1199,-0.7119,-0.3531,-1.0588,2.1303,1.3053,1.0471,0.3859,0.3519,
12.586697,0.1199,-0.7119,-0.3531,0.0415,2.2754,0.9088,1.0471,0.3859,0.3519,
12.621219,0.1199,-0.7119,-0.3531,0.0415,2.2754,0.9088,1.2101,0.1643,0.4616,
12.622288,0.1199,-0.7119,-0.3531,-0.0036,2.3246,0.0657,1.2101,0.1643,0.4616,
12.653029,0.2420,-0.8057,-0.4108,-0.0036,2.3246,0.0657,1.2101,0.1643,0.4616,
12.654862,0.3349,-0.8734,-0.4169,-0.0036,2.3246,0.0657,1.2101,0.1643,0.4616,
12.656094,0.3322,-0.8658,-0.4086,-0.0036,2.3246,0.0657,1.2101,0.1643,0.4616,
12.661319,0.3322,-0.8658,-0.4086,-0.0036,2.3246,0.0657,1.1877,0.1909,0.1197,
12.662672,0.3322,-0.8658,-0.4086,2.3337,0.9759,-1.3318,1.1877,0.1909,0.1197,
12.700711,0.3322,-0.8658,-0.4086,2.3337,0.9759,-1.3318,1.0439,0.6171,-0.3607,
12.702453,0.3322,-0.8658,-0.4086,0.7476,1.9208,-1.2331,1.0439,0.6171,-0.3607,
12.740990,0.3322,-0.8658,-0.4086,0.7476,1.9208,-1.2331,0.8426,0.5883,-0.3640,
12.743294,0.3322,-0.8658,-0.4086,0.5528,1.9463,-1.5419,0.8426,0.5883,-0.3640,
12.744600,0.2550,-0.8091,-0.3929,0.5528,1.9463,-1.5419,0.8426,0.5883,-0.3640,
12.745766,0.1553,-0.7390,-0.3487,0.5528,1.9463,-1.5419,0.8426,0.5883,-0.3640,
12.746828,0.0767,-0.7261,-0.3470,0.5528,1.9463,-1.5419,0.8426,0.5883,-0.3640,
12.747975,-0.0064,-0.7434,-0.3758,0.5528,1.9463,-1.5419,0.8426,0.5883,-0.3640,
12.749231,-0.0526,-0.7163,-0.3951,0.5528,1.9463,-1.5419,0.8426,0.5883,-0.3640,
12.780050,-0.0526,-0.7163,-0.3951,0.5528,1.9463,-1.5419,0.4634,-0.0242,-0.1253,
12.782086,-0.0526,-0.7163,-0.3951,0.4992,1.9434,-1.6847,0.4634,-0.0242,-0.1253,
12.824417,-0.0526,-0.7163,-0.3951,0.4992,1.9434,-1.6847,0.0671,-0.4450,-0.2201,
12.826523,-0.0526,-0.7163,-0.3951,-1.2038,2.5349,-2.1749,0.0671,-0.4450,-0.2201,
12.828055,0.0334,-0.6188,-0.4775,-1.2038,2.5349,-2.1749,0.0671,-0.4450,-0.2201,
12.829658,0.1629,-0.5570,-0.4948,-1.2038,2.5349,-2.1749,0.0671,-0.4450,-0.2201,
12.830997,0.1385,-0.7366,-0.5212,-1.2038,2.5349,-2.1749,0.0671,-0.4450,-0.2201,
12.832770,0.0525,-1.2714,-0.6543,-1.2038,2.5349,-2.1749,0.0671,-0.4450,-0.2201,
12.859522,0.0525,-1.2714,-0.6543,-1.2038,2.5349,-2.1749,-0.4826,0.2080,-0.2915,
12.861727,0.0525,-1.2714,-0.6543,-0.0870,0.8794,-3.3289,-0.4826,0.2080,-0.2915,
12.899423,0.0525,-1.2714,-0.6543,-0.0870,0.8794,-3.3289,-1.0600,0.5468,-0.2862,
12.901555,0.0525,-1.2714,-0.6543,-0.8182,-8.2182,1.4417,-1.0600,0.5468,-0.2862,
12.902874,0.1563,-1.8804,-0.3756,-0.8182,-8.2182,1.4417,-1.0600,0.5468,-0.2862,
12.904079,0.2039,-1.9657,-0.0499,-0.8182,-8.2182,1.4417,-1.0600,0.5468,-0.2862,
12.905049,-0.1872,-1.5123,0.1135,-0.8182,-8.2182,1.4417,-1.0600,0.5468,-0.2862,
12.906924,-0.2170,-1.1595,0.1225,-0.8182,-8.2182,1.4417,-1.0600,0.5468,-0.2862,
12.939028,-0.2170,-1.1595,0.1225,-0.8182,-8.2182,1.4417,-0.3739,0.2900,0.0909,
12.941019,-0.2170,-1.1595,0.1225,-0.8004,-8.1131,1.5369,-0.3739,0.2900,0.0909,
12.979297,-0.2170,-1.1595,0.1225,-0.8004,-8.1131,1.5369,-0.0853,0.4477,0.4020,
12.981573,-0.2170,-1.1595,0.1225,-1.8218,-4.3535,1.7345,-0.0853,0.4477,0.4020,
12.982867,-0.1000,-1.3520,0.0549,-1.8218,-4.3535,1.7345,-0.0853,0.4477,0.4020,
12.984008,0.1360,-1.7224,-0.4225,-1.8218,-4.3535,1.7345,-0.0853,0.4477,0.4020,
12.985125,0.6845,-1.1419,-0.4706,-1.8218,-4.3535,1.7345,-0.0853,0.4477,0.4020,
12.986375,0.5538,-0.8412,0.2193,-1.8218,-4.3535,1.7345,-0.0853,0.4477,0.4020,
13.018056,0.5538,-0.8412,0.2193,-1.8218,-4.3535,1.7345,0.1310,0.4029,-0.1679,
13.019974,0.5538,-0.8412,0.2193,-1.8929,-4.2767,1.6373,0.1310,0.4029,-0.1679,
13.058249,0.5538,-0.8412,0.2193,-1.8929,-4.2767,1.6373,1.1078,0.2378,-0.1530,
13.060026,0.5538,-0.8412,0.2193,3.2516,-0.1553,2.3950,1.1078,0.2378,-0.1530,
13.061474,0.1969,-1.0173,0.3835,3.2516,-0.1553,2.3950,1.1078,0.2378,-0.1530,
13.062739,0.0178,-1.2379,-0.0360,3.2516,-0.1553,2.3950,1.1078,0.2378,-0.1530,
13.064376,-0.0238,-1.2325,-0.4758,3.2516,-0.1553,2.3950,1.1078,0.2378,-0.1530,
13.065739,0.0735,-1.0024,-0.4030,3.2516,-0.1553,2.3950,1.1078,0.2378,-0.1530,
13.096961,0.0735,-1.0024,-0.4030,3.2516,-0.1553,2.3950,0.6636,0.1622,0.2124,
13.099084,0.0735,-1.0024,-0.4030,-1.1271,-1.6115,-1.2668,0.6636,0.1622,0.2124,
13.136712,0.0735,-1.0024,-0.4030,-1.1271,-1.6115,-1.2668,0.7265,0.1909,0.1506,
13.138853,0.0735,-1.0024,-0.4030,0.3710,0.8119,0.8971,0.7265,0.1909,0.1506,
13.140118,0.1939,-0.8868,-0.0617,0.3710,0.8119,0.8971,0.7265,0.1909,0.1506,
13.141146,0.1819,-0.9086,0.0380,0.3710,0.8119,0.8971,0.7265,0.1909,0.1506,
13.142351,0.1380,-0.9477,-0.1349,0.3710,0.8119,0.8971,0.7265,0.1909,0.1506,
13.143552,0.1612,-0.9232,-0.3062,0.3710,0.8119,0.8971,0.7265,0.1909,0.1506,
13.176245,0.1612,-0.9232,-0.3062,0.3710,0.8119,0.8971,0.6764,0.0812,0.1389,
13.178042,0.1612,-0.9232,-0.3062,0.4137,0.8390,0.6200,0.6764,0.0812,0.1389,
13.215991,0.1612,-0.9232,-0.3062,0.4137,0.8390,0.6200,0.5379,0.0322,0.1399,
13.218146,0.1612,-0.9232,-0.3062,0.4723,1.0528,-0.9953,0.5379,0.0322,0.1399,
13.219422,0.1844,-0.8827,-0.2197,0.4723,1.0528,-0.9953,0.5379,0.0322,0.1399,
13.220700,0.1724,-0.8751,-0.0678,0.4723,1.0528,-0.9953,0.5379,0.0322,0.1399,
13.221793,0.1653,-0.9245,-0.1264,0.4723,1.0528,-0.9953,0.5379,0.0322,0.1399,
13.222751,0.1993,-0.9836,-0.2446,0.4723,1.0528,-0.9953,0.5379,0.0322,0.1399,
13.255641,0.1993,-0.9836,-0.2446,0.4723,1.0528,-0.9953,0.5710,-0.0796,0.1484,
13.257814,0.1993,-0.9836,-0.2446,0.5238,1.0607,-1.1937,0.5710,-0.0796,0.1484,
13.295839,0.1993,-0.9836,-0.2446,0.5238,1.0607,-1.1937,0.2855,-0.2341,0.0813,
13.298752,0.1993,-0.9836,-0.2446,0.8451,0.3889,-1.6109,0.2855,-0.2341,0.0813,
13.300017,0.2445,-0.9802,-0.3280,0.8451,0.3889,-1.6109,0.2855,-0.2341,0.0813,
13.301147,0.2350,-0.9303,-0.3116,0.8451,0.3889,-1.6109,0.2855,-0.2341,0.0813,
13.302228,0.1626,-0.8741,-0.1645,0.8451,0.3889,-1.6109,0.2855,-0.2341,0.0813,
13.303461,0.0984,-0.8663,-0.0807,0.8451,0.3889,-1.6109,0.2855,-0.2341,0.0813,
13.335252,0.0984,-0.8663,-0.0807,0.8451,0.3889,-1.6109,0.1907,-0.1584,0.0057,
13.337533,0.0984,-0.8663,-0.0807,0.4738,1.0858,-1.1933,0.1907,-0.1584,0.0057,
13.374450,0.0984,-0.8663,-0.0807,0.4738,1.0858,-1.1933,-0.0522,0.0376,0.1644,
13.377328,0.0984,-0.8663,-0.0807,-0.7231,0.7966,-1.8558,-0.0522,0.0376,0.1644,
13.378708,0.0337,-0.9186,-0.1467,-0.7231,0.7966,-1.8558,-0.0522,0.0376,0.1644,
13.379825,0.0183,-0.9504,-0.2869,-0.7231,0.7966,-1.8558,-0.0522,0.0376,0.1644,
13.381135,0.0547,-0.8881,-0.3414,-0.7231,0.7966,-1.8558,-0.0522,0.0376,0.1644,
13.382369,0.0486,-0.8106,-0.3086,-0.7231,0.7966,-1.8558,-0.0522,0.0376,0.1644,
13.414378,0.0486,-0.8106,-0.3086,-0.7231,0.7966,-1.8558,-0.7468,0.3486,0.3391,
13.416549,0.0486,-0.8106,-0.3086,-0.5925,0.7730,-1.5533,-0.7468,0.3486,0.3391,
13.454024,0.0486,-0.8106,-0.3086,-0.5925,0.7730,-1.5533,-1.0621,0.5169,0.4989,
13.455807,0.0486,-0.8106,-0.3086,-0.5106,1.7922,-1.7117,-1.0621,0.5169,0.4989,
13.457208,-0.0172,-0.7935,-0.2935,-0.5106,1.7922,-1.7117,-1.0621,0.5169,0.4989,
13.458171,0.0459,-0.8216,-0.3507,-0.5106,1.7922,-1.7117,-1.0621,0.5169,0.4989,
13.459236,0.2132,-0.8133,-0.3311,-0.5106,1.7922,-1.7117,-1.0621,0.5169,0.4989,
13.460469,0.3102,-0.7273,-0.2295,-0.5106,1.7922,-1.7117,-1.0621,0.5169,0.4989,
13.493995,0.3102,-0.7273,-0.2295,-0.5106,1.7922,-1.7117,-1.3273,0.2815,0.4297,
13.495871,0.3102,-0.7273,-0.2295,-0.3577,1.6885,-1.1903,-1.3273,0.2815,0.4297,
13.532865,0.3102,-0.7273,-0.2295,-0.3577,1.6885,-1.1903,-1.6395,-0.2149,0.2273,
13.534904,0.3102,-0.7273,-0.2295,2.1234,2.2485,-0.8007,-1.6395,-0.2149,0.2273,
13.537257,0.2919,-0.6591,-0.4684,2.1234,2.2485,-0.8007,-1.6395,-0.2149,0.2273,
13.538541,0.1754,-0.6841,-0.3939,2.1234,2.2485,-0.8007,-1.6395,-0.2149,0.2273,
13.539650,0.2396,-0.7009,-0.0382,2.1234,2.2485,-0.8007,-1.6395,-0.2149,0.2273,
13.540927,0.2877,-0.6039,0.0935,2.1234,2.2485,-0.8007,-1.6395,-0.2149,0.2273,
13.572594,0.2877,-0.6039,0.0935,2.1234,2.2485,-0.8007,-1.3263,-0.5803,0.0291,
13.574552,0.2877,-0.6039,0.0935,1.8013,2.7436,1.9253,-1.3263,-0.5803,0.0291,
13.612638,0.2877,-0.6039,0.0935,1.8013,2.7436,1.9253,-1.9484,-0.6623,-0.1424,
13.614929,0.2877,-0.6039,0.0935,0.8154,1.5040,-0.7327,-1.9484,-0.6623,-0.1424,
13.616324,0.1868,-0.5709,-0.2593,0.8154,1.5040,-0.7327,-1.9484,-0.6623,-0.1424,
13.617833,0.0935,-0.7144,-0.6861,0.8154,1.5040,-0.7327,-1.9484,-0.6623,-0.1424,
13.618816,0.1133,-0.9943,-0.4298,0.8154,1.5040,-0.7327,-1.9484,-0.6623,-0.1424,
13.619888,0.3498,-1.2557,0.0466,0.8154,1.5040,-0.7327,-1.9484,-0.6623,-0.1424,
13.651631,0.3498,-1.2557,0.0466,0.8154,1.5040,-0.7327,-1.5926,-0.2437,-0.6686,
13.653595,0.3498,-1.2557,0.0466,0.6102,1.2133,-0.1680,-1.5926,-0.2437,-0.6686,
13.692012,0.3498,-1.2557,0.0466,0.6102,1.2133,-0.1680,-0.8693,-0.3236,-1.1650,
13.693940,0.3498,-1.2557,0.0466,1.9176,-4.8943,2.8454,-0.8693,-0.3236,-1.1650,
13.695250,0.3395,-1.3635,-0.1618,1.9176,-4.8943,2.8454,-0.8693,-0.3236,-1.1650,
13.696400,0.2176,-1.4964,-0.4164,1.9176,-4.8943,2.8454,-0.8693,-0.3236,-1.1650,
13.698134,0.1885,-1.7773,-0.4460,1.9176,-4.8943,2.8454,-0.8693,-0.3236,-1.1650,
13.699283,0.2154,-1.8350,-0.5407,1.9176,-4.8943,2.8454,-0.8693,-0.3236,-1.1650,
13.731206,0.2154,-1.8350,-0.5407,1.9176,-4.8943,2.8454,-0.6829,-0.4930,-1.1629,
13.733449,0.2154,-1.8350,-0.5407,1.5932,-4.9922,3.0462,-0.6829,-0.4930,-1.1629,
13.770934,0.2154,-1.8350,-0.5407,1.5932,-4.9922,3.0462,-0.2919,-0.5398,-0.8881,
13.772699,0.2154,-1.8350,-0.5407,-0.4000,-8.5134,-0.4918,-0.2919,-0.5398,-0.8881,
13.774054,-0.0506,-1.5924,-0.6700,-0.4000,-8.5134,-0.4918,-0.2919,-0.5398,-0.8881,
13.775325,-0.1422,-1.2301,-0.5134,-0.4000,-8.5134,-0.4918,-0.2919,-0.5398,-0.8881,
13.776541,-0.0714,-1.0061,-0.3961,-0.4000,-8.5134,-0.4918,-0.2919,-0.5398,-0.8881,
13.777889,0.0117,-0.9308,-0.4220,-0.4000,-8.5134,-0.4918,-0.2919,-0.5398,-0.8881,
13.810310,0.0117,-0.9308,-0.4220,-0.4000,-8.5134,-0.4918,0.0799,-0.7380,-0.4268,
13.812636,0.0117,-0.9308,-0.4220,-2.1760,-1.8365,0.5797,0.0799,-0.7380,-0.4268,
13.856068,0.0117,-0.9308,-0.4220,-0.1524,-0.8416,0.9676,0.0799,-0.7380,-0.4268,
13.858445,0.0117,-0.9308,-0.4220,-0.1524,-0.8416,0.9676,0.4378,-1.0139,-0.3064,
13.859687,0.1231,-0.9127,-0.4022,-0.1524,-0.8416,0.9676,0.4378,-1.0139,-0.3064,
13.860831,0.1578,-0.9836,-0.3951,-0.1524,-0.8416,0.9676,0.4378,-1.0139,-0.3064,
13.861741,0.1074,-0.9909,-0.3832,-0.1524,-0.8416,0.9676,0.4378,-1.0139,-0.3064,
13.862705,-0.0411,-0.8600,-0.2859,-0.1524,-0.8416,0.9676,0.4378,-1.0139,-0.3064,
13.889542,-0.0411,-0.8600,-0.2859,-0.1524,-0.8416,0.9676,0.8181,-0.6911,-0.4076,
13.890928,-0.0411,-0.8600,-0.2859,-0.1600,-0.7001,0.7138,0.8181,-0.6911,-0.4076,
13.930108,-0.0411,-0.8600,-0.2859,-0.1600,-0.7001,0.7138,0.9523,0.2378,-0.0337,
13.932213,-0.0411,-0.8600,-0.2859,-2.6020,2.0078,1.5590,0.9523,0.2378,-0.0337,
13.932968,-0.1650,-0.6780,-0.2376,-2.6020,2.0078,1.5590,0.9523,0.2378,-0.0337,
13.933820,-0.1508,-0.5602,-0.2842,-2.6020,2.0078,1.5590,0.9523,0.2378,-0.0337,
13.934505,-0.0213,-0.5558,-0.3524,-2.6020,2.0078,1.5590,0.9523,0.2378,-0.0337,
13.935238,0.0842,-0.6584,-0.3819,-2.6020,2.0078,1.5590,0.9523,0.2378,-0.0337,
13.969128,0.0842,-0.6584,-0.3819,-2.6020,2.0078,1.5590,0.9385,0.2272,0.2518,
13.971265,0.0842,-0.6584,-0.3819,-2.5064,2.1353,1.1935,0.9385,0.2272,0.2518,
14.009711,0.0842,-0.6584,-0.3819,-2.5064,2.1353,1.1935,0.7947,-0.2319,0.2209,
14.011986,0.0842,-0.6584,-0.3819,-0.6556,2.5171,-0.1860,0.7947,-0.2319,0.2209,
14.013252,0.1089,-0.7930,-0.4130,-0.6556,2.5171,-0.1860,0.7947,-0.2319,0.2209,
14.014406,0.1267,-0.9157,-0.4557,-0.6556,2.5171,-0.1860,0.7947,-0.2319,0.2209,
14.015516,0.1397,-0.9496,-0.4916,-0.6556,2.5171,-0.1860,0.7947,-0.2319,0.2209,
14.016736,0.1270,-0.8729,-0.4728,-0.6556,2.5171,-0.1860,0.7947,-0.2319,0.2209,
14.048219,0.1270,-0.8729,-0.4728,-0.6556,2.5171,-0.1860,0.6881,0.0471,0.2113,
14.050032,0.1270,-0.8729,-0.4728,0.1362,0.2291,-1.3064,0.6881,0.0471,0.2113,
14.088156,0.1270,-0.8729,-0.4728,0.1362,0.2291,-1.3064,0.7638,0.4147,0.3551,
14.090140,0.1270,-0.8729,-0.4728,0.3495,1.4404,-0.8027,0.7638,0.4147,0.3551,
14.091589,0.1148,-0.7947,-0.4279,0.3495,1.4404,-0.8027,0.7638,0.4147,0.3551,
14.092640,0.1397,-0.7847,-0.3978,0.3495,1.4404,-0.8027,0.7638,0.4147,0.3551,
14.093592,0.1822,-0.8148,-0.3534,0.3495,1.4404,-0.8027,0.7638,0.4147,0.3551,
14.095020,0.2088,-0.8477,-0.3130,0.3495,1.4404,-0.8027,0.7638,0.4147,0.3551,
14.127613,0.2088,-0.8477,-0.3130,0.3495,1.4404,-0.8027,0.9385,0.2155,0.2976,
14.129190,0.2088,-0.8477,-0.3130,0.4273,1.5333,-1.1389,0.9385,0.2155,0.2976,
14.167480,0.2088,-0.8477,-0.3130,0.4273,1.5333,-1.1389,1.0503,-0.1244,0.0238,
14.169253,0.2088,-0.8477,-0.3130,0.9311,1.0710,-0.6910,1.0503,-0.1244,0.0238,
14.170730,0.2020,-0.8692,-0.3013,0.9311,1.0710,-0.6910,1.0503,-0.1244,0.0238,
14.171828,0.1785,-0.8455,-0.3128,0.9311,1.0710,-0.6910,1.0503,-0.1244,0.0238,
14.172883,0.1326,-0.7764,-0.3299,0.9311,1.0710,-0.6910,1.0503,-0.1244,0.0238,
14.174267,0.1167,-0.7104,-0.3350,0.9311,1.0710,-0.6910,1.0503,-0.1244,0.0238,
14.206816,0.1167,-0.7104,-0.3350,0.9311,1.0710,-0.6910,0.7307,-0.0903,-0.0582,
14.208907,0.1167,-0.7104,-0.3350,0.9018,1.1136,-0.9459,0.7307,-0.0903,-0.0582,
14.246413,0.1167,-0.7104,-0.3350,0.9018,1.1136,-0.9459,0.2706,0.2069,-0.0731,
14.248494,0.1167,-0.7104,-0.3350,0.0392,2.4138,-1.1540,0.2706,0.2069,-0.0731,
14.249891,0.0896,-0.6709,-0.2981,0.0392,2.4138,-1.1540,0.2706,0.2069,-0.0731,
14.251272,0.0383,-0.6587,-0.2595,0.0392,2.4138,-1.1540,0.2706,0.2069,-0.0731,
14.252494,-0.0076,-0.6611,-0.2876,0.0392,2.4138,-1.1540,0.2706,0.2069,-0.0731,
14.253568,0.0036,-0.6398,-0.3316,0.0392,2.4138,-1.1540,0.2706,0.2069,-0.0731,
14.285906,0.0036,-0.6398,-0.3316,0.0392,2.4138,-1.1540,0.0053,0.4115,-0.1104,
14.287632,0.0036,-0.6398,-0.3316,-1.0124,3.0057,-0.8837,0.0053,0.4115,-0.1104,
14.325527,0.0036,-0.6398,-0.3316,-1.0124,3.0057,-0.8837,-0.1023,0.9931,-0.3437,
14.327639,0.0036,-0.6398,-0.3316,-0.0681,3.2075,-1.7799,-0.1023,0.9931,-0.3437,
14.329124,0.0554,-0.5978,-0.3287,-0.0681,3.2075,-1.7799,-0.1023,0.9931,-0.3437,
14.331255,0.1455,-0.5780,-0.3890,-0.0681,3.2075,-1.7799,-0.1023,0.9931,-0.3437,
14.332682,0.1851,-0.6977,-0.4416,-0.0681,3.2075,-1.7799,-0.1023,0.9931,-0.3437,
14.333878,0.1944,-1.0867,-0.5459,-0.0681,3.2075,-1.7799,-0.1023,0.9931,-0.3437,
14.365799,0.1944,-1.0867,-0.5459,-0.0681,3.2075,-1.7799,-0.4144,0.6778,-0.4002,
14.368050,0.1944,-1.0867,-0.5459,-0.2660,3.0985,-1.6377,-0.4144,0.6778,-0.4002,
14.404958,0.1944,-1.0867,-0.5459,-0.2660,3.0985,-1.6377,-0.5135,0.0482,-0.3821,
14.406924,0.1944,-1.0867,-0.5459,0.7993,-4.5485,0.1277,-0.5135,0.0482,-0.3821,
14.408735,0.3063,-1.5225,-0.1589,0.7993,-4.5485,0.1277,-0.5135,0.0482,-0.3821,
14.411270,0.2594,-1.6075,0.0302,0.7993,-4.5485,0.1277,-0.5135,0.0482,-0.3821,
14.413443,-0.2490,-1.5897,0.0011,0.7993,-4.5485,0.1277,-0.5135,0.0482,-0.3821,
14.414821,-0.3103,-1.7062,-0.0519,0.7993,-4.5485,0.1277,-0.5135,0.0482,-0.3821,
14.444641,-0.3103,-1.7062,-0.0519,0.7993,-4.5485,0.1277,-0.4932,0.4445,0.0717,
14.446743,-0.3103,-1.7062,-0.0519,0.7697,-4.5143,0.2730,-0.4932,0.4445,0.0717,
14.484083,-0.3103,-1.7062,-0.0519,0.7697,-4.5143,0.2730,-0.9247,1.2040,0.3402,
14.485941,-0.3103,-1.7062,-0.0519,-3.6741,-6.8755,0.7230,-0.9247,1.2040,0.3402,
14.487870,-0.0599,-1.6571,-0.5608,-3.6741,-6.8755,0.7230,-0.9247,1.2040,0.3402,
14.489027,0.1101,-1.4290,-0.6255,-3.6741,-6.8755,0.7230,-0.9247,1.2040,0.3402,
14.490300,0.3745,-1.1136,-0.0008,-3.6741,-6.8755,0.7230,-0.9247,1.2040,0.3402,
14.491620,0.4390,-1.1011,0.3446,-3.6741,-6.8755,0.7230,-0.9247,1.2040,0.3402,
14.523315,0.4390,-1.1011,0.3446,-3.6741,-6.8755,0.7230,0.0756,0.2389,0.3221,
14.525325,0.4390,-1.1011,0.3446,1.4342,-2.5265,1.7275,0.0756,0.2389,0.3221,
14.563385,0.4390,-1.1011,0.3446,1.4342,-2.5265,1.7275,0.9086,0.2591,0.2283,
14.565683,0.4390,-1.1011,0.3446,0.4942,-2.1752,0.9632,0.9086,0.2591,0.2283,
14.566986,0.2806,-1.2379,0.0744,0.4942,-2.1752,0.9632,0.9086,0.2591,0.2283,
14.568086,0.1101,-1.2267,-0.2024,0.4942,-2.1752,0.9632,0.9086,0.2591,0.2283,
14.568902,0.2293,-1.1143,-0.2740,0.4942,-2.1752,0.9632,0.9086,0.2591,0.2283,
14.570161,0.3884,-0.9980,-0.2056,0.4942,-2.1752,0.9632,0.9086,0.2591,0.2283,
14.612773,0.3884,-0.9980,-0.2056,0.4942,-2.1752,0.9632,0.8554,0.5617,0.0654,
14.615306,0.3884,-0.9980,-0.2056,0.4647,-2.0650,0.5949,0.8554,0.5617,0.0654,
14.642895,0.3884,-0.9980,-0.2056,0.4647,-2.0650,0.5949,1.0067,0.4477,0.0121,
14.644784,0.3884,-0.9980,-0.2056,1.2360,0.3409,-0.0923,1.0067,0.4477,0.0121,
14.645930,0.3307,-0.9416,-0.1342,1.2360,0.3409,-0.0923,1.0067,0.4477,0.0121,
14.646876,0.1514,-0.9220,-0.1464,1.2360,0.3409,-0.0923,1.0067,0.4477,0.0121,
14.648051,-0.0074,-0.9174,-0.2224,1.2360,0.3409,-0.0923,1.0067,0.4477,0.0121,
14.649125,-0.0450,-0.8802,-0.3265,1.2360,0.3409,-0.0923,1.0067,0.4477,0.0121,
14.681987,-0.0450,-0.8802,-0.3265,1.2360,0.3409,-0.0923,0.7371,0.2719,0.3136,
14.683796,-0.0450,-0.8802,-0.3265,1.3198,0.3929,-0.3864,0.7371,0.2719,0.3136,
14.722047,-0.0450,-0.8802,-0.3265,1.3198,0.3929,-0.3864,0.2759,0.3049,0.3871,
14.724096,-0.0450,-0.8802,-0.3265,-1.3542,1.2524,-1.7610,0.2759,0.3049,0.3871,
14.725301,0.0556,-0.8050,-0.3292,-1.3542,1.2524,-1.7610,0.2759,0.3049,0.3871,
14.726568,0.1976,-0.7644,-0.2517,-1.3542,1.2524,-1.7610,0.2759,0.3049,0.3871,
14.727883,0.2643,-0.8133,-0.2691,-1.3542,1.2524,-1.7610,0.2759,0.3049,0.3871,
14.728832,0.2059,-0.8702,-0.3018,-1.3542,1.2524,-1.7610,0.2759,0.3049,0.3871,
14.761409,0.2059,-0.8702,-0.3018,-1.3542,1.2524,-1.7610,0.0415,0.3902,0.2262,
14.763244,0.2059,-0.8702,-0.3018,0.8725,1.7418,-1.5894,0.0415,0.3902,0.2262,
14.801480,0.2059,-0.8702,-0.3018,0.8725,1.7418,-1.5894,-0.2344,0.4147,0.2283,
14.803641,0.2059,-0.8702,-0.3018,0.2461,1.2359,-1.3234,-0.2344,0.4147,0.2283,
14.804939,0.1580,-0.8695,-0.2683,0.2461,1.2359,-1.3234,-0.2344,0.4147,0.2283,
14.805988,0.1507,-0.8634,-0.2324,0.2461,1.2359,-1.3234,-0.2344,0.4147,0.2283,
14.807500,0.1473,-0.8639,-0.2686,0.2461,1.2359,-1.3234,-0.2344,0.4147,0.2283,
14.808618,0.1297,-0.8622,-0.3282,0.2461,1.2359,-1.3234,-0.2344,0.4147,0.2283,
14.840798,0.1297,-0.8622,-0.3282,0.2461,1.2359,-1.3234,-0.5742,0.4764,0.2859,
14.842854,0.1297,-0.8622,-0.3282,0.3264,1.1998,-1.1063,-0.5742,0.4764,0.2859,
14.880874,0.1297,-0.8622,-0.3282,0.3264,1.1998,-1.1063,-0.8437,0.1558,0.4009,
14.883378,0.1297,-0.8622,-0.3282,-0.1407,1.5889,-1.4731,-0.8437,0.1558,0.4009,
14.884851,0.0938,-0.8282,-0.3133,-0.1407,1.5889,-1.4731,-0.8437,0.1558,0.4009,
14.886372,0.0446,-0.7683,-0.3446,-0.1407,1.5889,-1.4731,-0.8437,0.1558,0.4009,
14.887745,0.1485,-0.7290,-0.3030,-0.1407,1.5889,-1.4731,-0.8437,0.1558,0.4009,
14.889890,0.2301,-0.7021,-0.4240,-0.1407,1.5889,-1.4731,-0.8437,0.1558,0.4009,
14.919423,0.2301,-0.7021,-0.4240,-0.1407,1.5889,-1.4731,-1.2570,0.1867,0.3487,
14.921251,0.2301,-0.7021,-0.4240,-0.0225,1.4783,-0.9864,-1.2570,0.1867,0.3487,
14.959625,0.2301,-0.7021,-0.4240,-0.0225,1.4783,-0.9864,-1.5553,-0.0306,0.2251,
14.961506,0.2301,-0.7021,-0.4240,0.8403,2.3706,-1.0394,-1.5553,-0.0306,0.2251,
14.962770,0.1311,-0.6968,-0.4591,0.8403,2.3706,-1.0394,-1.5553,-0.0306,0.2251,
14.964016,0.1143,-0.6836,-0.3297,0.8403,2.3706,-1.0394,-1.5553,-0.0306,0.2251,
14.965123,0.2355,-0.6049,-0.0460,0.8403,2.3706,-1.0394,-1.5553,-0.0306,0.2251,
14.966199,0.2474,-0.5707,-0.0924,0.8403,2.3706,-1.0394,-1.5553,-0.0306,0.2251,
14.999040,0.2474,-0.5707,-0.0924,0.8403,2.3706,-1.0394,-1.1313,-0.3481,0.1516,
15.001177,0.2474,-0.5707,-0.0924,1.2040,3.0645,1.7031,-1.1313,-0.3481,0.1516,
15.039307,0.2474,-0.5707,-0.0924,1.2040,3.0645,1.7031,-1.4147,-0.4961,0.0941,
15.041556,0.2474,-0.5707,-0.0924,0.6679,1.3026,-0.9683,-1.4147,-0.4961,0.0941,
15.042919,0.1297,-0.6066,-0.4152,0.6679,1.3026,-0.9683,-1.4147,-0.4961,0.0941,
15.044108,0.0898,-0.6877,-0.5725,0.6679,1.3026,-0.9683,-1.4147,-0.4961,0.0941,
15.045076,0.1856,-1.0383,-0.4626,0.6679,1.3026,-0.9683,-1.4147,-0.4961,0.0941,
15.046301,0.4565,-1.3654,-0.2178,0.6679,1.3026,-0.9683,-1.4147,-0.4961,0.0941,
15.078580,0.4565,-1.3654,-0.2178,0.6679,1.3026,-0.9683,-1.5606,-0.6250,-0.4737,
15.080417,0.4565,-1.3654,-0.2178,0.5936,1.0219,-0.4007,-1.5606,-0.6250,-0.4737,
15.117979,0.4565,-1.3654,-0.2178,0.5936,1.0219,-0.4007,-1.1409,-0.4716,-1.0436,
15.120001,0.4565,-1.3654,-0.2178,3.0977,-5.9862,1.6390,-1.1409,-0.4716,-1.0436,
15.121417,0.4678,-1.5127,-0.3387,3.0977,-5.9862,1.6390,-1.1409,-0.4716,-1.0436,
15.122649,0.3451,-1.5572,-0.3837,3.0977,-5.9862,1.6390,-1.1409,-0.4716,-1.0436,
15.123813,0.2472,-1.5621,-0.4462,3.0977,-5.9862,1.6390,-1.1409,-0.4716,-1.0436,
15.125037,0.1316,-1.5291,-0.5056,3.0977,-5.9862,1.6390,-1.1409,-0.4716,-1.0436,
15.157878,0.1316,-1.5291,-0.5056,3.0977,-5.9862,1.6390,-0.4560,-0.3044,-1.1075,
15.159784,0.1316,-1.5291,-0.5056,2.7395,-6.0235,1.7758,-0.4560,-0.3044,-1.1075,
15.199510,0.1316,-1.5291,-0.5056,2.7395,-6.0235,1.7758,0.0586,-0.5579,-0.8401,
15.201980,0.1316,-1.5291,-0.5056,-0.1841,-6.4712,0.0546,0.0586,-0.5579,-0.8401,
15.203359,0.0478,-1.5030,-0.5192,-0.1841,-6.4712,0.0546,0.0586,-0.5579,-0.8401,
15.204795,-0.0326,-1.2853,-0.4572,-0.1841,-6.4712,0.0546,0.0586,-0.5579,-0.8401,
15.206056,-0.0782,-1.0197,-0.4179,-0.1841,-6.4712,0.0546,0.0586,-0.5579,-0.8401,
15.207336,-0.0084,-0.9389,-0.4572,-0.1841,-6.4712,0.0546,0.0586,-0.5579,-0.8401,
15.238119,-0.0084,-0.9389,-0.4572,-0.1841,-6.4712,0.0546,0.2386,-0.7145,-0.1711,
15.239800,-0.0084,-0.9389,-0.4572,-1.8563,-1.9915,0.4633,0.2386,-0.7145,-0.1711,
15.277188,-0.0084,-0.9389,-0.4572,-1.8563,-1.9915,0.4633,0.4463,-0.7688,-0.0369,
15.278937,-0.0084,-0.9389,-0.4572,-0.2078,-1.1745,0.5726,0.4463,-0.7688,-0.0369,
15.279896,0.0994,-0.9960,-0.4572,-0.2078,-1.1745,0.5726,0.4463,-0.7688,-0.0369,
