
time,gFx,gFy,gFz,ax,ay,az,wx,wy,wz,
0.097419,0.0000,0.0000,0.0000,-1.0051,1.6994,0.3747,0.0000,0.0000,0.0000,
0.157616,0.0000,0.0000,0.0000,-1.0044,1.6199,0.3920,0.0000,0.0000,0.0000,
0.218042,0.0000,0.0000,0.0000,-0.9355,1.4787,0.4094,0.0000,0.0000,0.0000,
0.277387,0.0000,0.0000,0.0000,-1.2082,1.4434,0.4811,0.0000,0.0000,0.0000,
0.339156,0.0000,0.0000,0.0000,-1.2082,1.4434,0.4811,0.3307,-0.8034,-0.2880,
0.340721,0.0000,0.0000,0.0000,-1.4487,1.3056,0.5788,0.3307,-0.8034,-0.2880,
0.398887,0.0000,0.0000,0.0000,-1.4487,1.3056,0.5788,0.3619,-0.2243,-0.0565,
0.400122,0.0000,0.0000,0.0000,-1.6108,1.1324,0.6724,0.3619,-0.2243,-0.0565,
0.445690,-0.5776,-0.7193,0.4253,-1.6108,1.1324,0.6724,0.3619,-0.2243,-0.0565,
0.446500,-0.4134,-0.6394,0.5385,-1.6108,1.1324,0.6724,0.3619,-0.2243,-0.0565,
0.457698,-0.4134,-0.6394,0.5385,-1.6108,1.1324,0.6724,-0.2728,-0.4870,-0.1371,
0.458518,-0.4134,-0.6394,0.5385,-6.9003,-8.8406,-3.7463,-0.2728,-0.4870,-0.1371,
0.505154,-0.3797,-0.6694,0.5277,-6.9003,-8.8406,-3.7463,-0.2728,-0.4870,-0.1371,
0.506239,-0.3520,-0.6965,0.5473,-6.9003,-8.8406,-3.7463,-0.2728,-0.4870,-0.1371,
0.506957,-0.3166,-0.7019,0.5754,-6.9003,-8.8406,-3.7463,-0.2728,-0.4870,-0.1371,
0.517056,-0.3166,-0.7019,0.5754,-6.9003,-8.8406,-3.7463,-0.2215,-0.3447,-0.0657,
0.517881,-0.3166,-0.7019,0.5754,-6.1476,-9.2568,-3.3750,-0.2215,-0.3447,-0.0657,
0.565152,-0.2866,-0.6968,0.5876,-6.1476,-9.2568,-3.3750,-0.2215,-0.3447,-0.0657,
0.566478,-0.2934,-0.6958,0.5844,-6.1476,-9.2568,-3.3750,-0.2215,-0.3447,-0.0657,
0.567355,-0.3367,-0.6931,0.5656,-6.1476,-9.2568,-3.3750,-0.2215,-0.3447,-0.0657,
0.578010,-0.3367,-0.6931,0.5656,-6.1476,-9.2568,-3.3750,-0.0963,-0.0295,0.0663,
0.578964,-0.3367,-0.6931,0.5656,-6.4142,-9.0305,-3.4826,-0.0963,-0.0295,0.0663,
0.626044,-0.3545,-0.6736,0.5595,-6.4142,-9.0305,-3.4826,-0.0963,-0.0295,0.0663,
0.626907,-0.3579,-0.6658,0.5585,-6.4142,-9.0305,-3.4826,-0.0963,-0.0295,0.0663,
0.627509,-0.3613,-0.6677,0.5663,-6.4142,-9.0305,-3.4826,-0.0963,-0.0295,0.0663,
0.637319,-0.3613,-0.6677,0.5663,-6.4142,-9.0305,-3.4826,-0.2154,0.0841,0.1347,
0.638369,-0.3613,-0.6677,0.5663,-6.6137,-8.6370,-3.5245,-0.2154,0.0841,0.1347,
0.686783,-0.3542,-0.6802,0.5805,-6.6137,-8.6370,-3.5245,-0.2154,0.0841,0.1347,
0.689837,-0.3508,-0.7044,0.5917,-6.6137,-8.6370,-3.5245,-0.2154,0.0841,0.1347,
0.691643,-0.3691,-0.7295,0.6015,-6.6137,-8.6370,-3.5245,-0.2154,0.0841,0.1347,
0.698454,-0.3691,-0.7295,0.6015,-6.6137,-8.6370,-3.5245,-0.2771,0.1165,0.1793,
0.700066,-0.3691,-0.7295,0.6015,-6.6104,-9.0123,-3.2563,-0.2771,0.1165,0.1793,
0.746278,-0.3865,-0.7329,0.6233,-6.6104,-9.0123,-3.2563,-0.2771,0.1165,0.1793,
0.747994,-0.3799,-0.7310,0.6289,-6.6104,-9.0123,-3.2563,-0.2771,0.1165,0.1793,
0.749741,-0.3867,-0.7144,0.6430,-6.6104,-9.0123,-3.2563,-0.2771,0.1165,0.1793,
0.757983,-0.3867,-0.7144,0.6430,-6.6104,-9.0123,-3.2563,-0.1867,-0.2793,0.2508,
0.759227,-0.3867,-0.7144,0.6430,-6.7792,-8.6483,-2.8917,-0.1867,-0.2793,0.2508,
0.805529,-0.3669,-0.6775,0.6350,-6.7792,-8.6483,-2.8917,-0.1867,-0.2793,0.2508,
0.807372,-0.3508,-0.6411,0.6465,-6.7792,-8.6483,-2.8917,-0.1867,-0.2793,0.2508,
0.808517,-0.3203,-0.6079,0.6672,-6.7792,-8.6483,-2.8917,-0.1867,-0.2793,0.2508,
0.818836,-0.3203,-0.6079,0.6672,-6.7792,-8.6483,-2.8917,-0.2453,-0.2812,0.4530,
0.821710,-0.3203,-0.6079,0.6672,-6.3181,-7.3793,-2.6284,-0.2453,-0.2812,0.4530,
0.867008,-0.2824,-0.6062,0.6616,-6.3181,-7.3793,-2.6284,-0.2453,-0.2812,0.4530,
0.868961,-0.3010,-0.6565,0.6198,-6.3181,-7.3793,-2.6284,-0.2453,-0.2812,0.4530,
0.870405,-0.3762,-0.7698,0.5553,-6.3181,-7.3793,-2.6284,-0.2453,-0.2812,0.4530,
0.877453,-0.3762,-0.7698,0.5553,-6.3181,-7.3793,-2.6284,-0.4934,-0.1504,0.3894,
0.878741,-0.3762,-0.7698,0.5553,-6.9584,-8.6435,-3.7370,-0.4934,-0.1504,0.3894,
0.925882,-0.4835,-0.9220,0.5055,-6.9584,-8.6435,-3.7370,-0.4934,-0.1504,0.3894,
0.927924,-0.5495,-1.0361,0.4581,-6.9584,-8.6435,-3.7370,-0.4934,-0.1504,0.3894,
0.929188,-0.5451,-1.0488,0.4571,-6.9584,-8.6435,-3.7370,-0.4934,-0.1504,0.3894,
0.938276,-0.5451,-1.0488,0.4571,-6.9584,-8.6435,-3.7370,-0.8916,-0.4589,-0.2715,
0.939927,-0.5451,-1.0488,0.4571,-8.7251,-10.8805,-4.7053,-0.8916,-0.4589,-0.2715,
0.986050,-0.5128,-0.9592,0.5177,-8.7251,-10.8805,-4.7053,-0.8916,-0.4589,-0.2715,
0.988840,-0.3503,-0.7735,0.4674,-8.7251,-10.8805,-4.7053,-0.8916,-0.4589,-0.2715,
0.990579,-0.2365,-0.7703,0.3750,-8.7251,-10.8805,-4.7053,-0.8916,-0.4589,-0.2715,
0.998486,-0.2365,-0.7703,0.3750,-8.7251,-10.8805,-4.7053,-0.3797,0.2711,-0.0119,
1.000414,-0.2365,-0.7703,0.3750,-5.9784,-7.8504,-5.4177,-0.3797,0.2711,-0.0119,
1.046007,-0.3501,-0.9702,0.3726,-5.9784,-7.8504,-5.4177,-0.3797,0.2711,-0.0119,
1.047806,-0.5353,-1.0645,0.3850,-5.9784,-7.8504,-5.4177,-0.3797,0.2711,-0.0119,
1.049152,-0.6113,-0.9448,0.3530,-5.9784,-7.8504,-5.4177,-0.3797,0.2711,-0.0119,
1.057434,-0.6113,-0.9448,0.3530,-5.9784,-7.8504,-5.4177,-0.5001,0.9009,0.4511,
1.059089,-0.6113,-0.9448,0.3530,-9.3341,-9.2193,-5.7594,-0.5001,0.9009,0.4511,
1.105170,-0.5935,-0.7293,0.2795,-9.3341,-9.2193,-5.7594,-0.5001,0.9009,0.4511,
1.107031,-0.5805,-0.6198,0.1996,-9.3341,-9.2193,-5.7594,-0.5001,0.9009,0.4511,
1.108270,-0.5949,-0.6042,0.1419,-9.3341,-9.2193,-5.7594,-0.5001,0.9009,0.4511,
1.119250,-0.5949,-0.6042,0.1419,-9.3341,-9.2193,-5.7594,-0.9625,2.3639,0.8726,
1.120936,-0.5949,-0.6042,0.1419,-8.2382,-5.3437,-8.0978,-0.9625,2.3639,0.8726,
1.166174,-0.6189,-0.6426,0.1121,-8.2382,-5.3437,-8.0978,-0.9625,2.3639,0.8726,
1.168654,-0.6338,-0.7031,0.0464,-8.2382,-5.3437,-8.0978,-0.9625,2.3639,0.8726,
1.171144,-0.6533,-0.7674,0.0183,-8.2382,-5.3437,-8.0978,-0.9625,2.3639,0.8726,
1.177395,-0.6533,-0.7674,0.0183,-8.2382,-5.3437,-8.0978,-1.2905,2.1611,0.6478,
1.178722,-0.6533,-0.7674,0.0183,-7.2006,-6.1176,-9.4933,-1.2905,2.1611,0.6478,
1.225783,-0.6956,-0.7899,0.0210,-7.2006,-6.1176,-9.4933,-1.2905,2.1611,0.6478,
1.227540,-0.6922,-0.7945,0.0059,-7.2006,-6.1176,-9.4933,-1.2905,2.1611,0.6478,
1.228731,-0.6895,-0.7698,-0.0120,-7.2006,-6.1176,-9.4933,-1.2905,2.1611,0.6478,
1.237994,-0.6895,-0.7698,-0.0120,-7.2006,-6.1176,-9.4933,-0.1629,0.1477,0.6497,
1.240880,-0.6895,-0.7698,-0.0120,-6.8367,-5.6069,-9.7303,-0.1629,0.1477,0.6497,
1.285350,-0.6931,-0.7351,-0.0269,-6.8367,-5.6069,-9.7303,-0.1629,0.1477,0.6497,
1.287366,-0.7146,-0.6878,-0.0374,-6.8367,-5.6069,-9.7303,-0.1629,0.1477,0.6497,
1.288693,-0.7466,-0.6440,-0.0225,-6.8367,-5.6069,-9.7303,-0.1629,0.1477,0.6497,
1.299510,-0.7466,-0.6440,-0.0225,-6.8367,-5.6069,-9.7303,-0.0480,-0.5365,0.8573,
1.301203,-0.7466,-0.6440,-0.0225,-7.3000,-4.3115,-9.8208,-0.0480,-0.5365,0.8573,
1.346547,-0.7398,-0.6020,0.0107,-7.3000,-4.3115,-9.8208,-0.0480,-0.5365,0.8573,
1.349360,-0.7139,-0.5859,0.0594,-7.3000,-4.3115,-9.8208,-0.0480,-0.5365,0.8573,
1.351171,-0.7005,-0.6228,0.1224,-7.3000,-4.3115,-9.8208,-0.0480,-0.5365,0.8573,
1.358527,-0.7005,-0.6228,0.1224,-7.3000,-4.3115,-9.8208,-0.4152,-1.0783,-0.0418,
1.360455,-0.7005,-0.6228,0.1224,-7.2462,-3.9252,-8.3546,-0.4152,-1.0783,-0.0418,
1.405773,-0.6738,-0.6758,0.1722,-7.2462,-3.9252,-8.3546,-0.4152,-1.0783,-0.0418,
1.408389,-0.6335,-0.7007,0.2213,-7.2462,-3.9252,-8.3546,-0.4152,-1.0783,-0.0418,
1.410535,-0.5761,-0.7007,0.2639,-7.2462,-3.9252,-8.3546,-0.4152,-1.0783,-0.0418,
1.418388,-0.5761,-0.7007,0.2639,-7.2462,-3.9252,-8.3546,0.2208,-1.1003,-0.1762,
1.420807,-0.5761,-0.7007,0.2639,-6.6234,-4.5278,-6.8876,0.2208,-1.1003,-0.1762,
1.467447,-0.5373,-0.6802,0.2951,-6.6234,-4.5278,-6.8876,0.2208,-1.1003,-0.1762,
1.471500,-0.5133,-0.6489,0.3254,-6.6234,-4.5278,-6.8876,0.2208,-1.1003,-0.1762,
1.473375,-0.4881,-0.5964,0.3447,-6.6234,-4.5278,-6.8876,0.2208,-1.1003,-0.1762,
1.477860,-0.4881,-0.5964,0.3447,-6.6234,-4.5278,-6.8876,0.6618,-0.6031,-0.2117,
1.480430,-0.4881,-0.5964,0.3447,-6.2926,-3.7191,-6.0757,0.6618,-0.6031,-0.2117,
1.525916,-0.4444,-0.5514,0.3567,-6.2926,-3.7191,-6.0757,0.6618,-0.6031,-0.2117,
1.529496,-0.4241,-0.5243,0.3359,-6.2926,-3.7191,-6.0757,0.6618,-0.6031,-0.2117,
1.531842,-0.4507,-0.5158,0.2682,-6.2926,-3.7191,-6.0757,0.6618,-0.6031,-0.2117,
1.538327,-0.4507,-0.5158,0.2682,-6.0721,-3.3601,-6.8875,0.6618,-0.6031,-0.2117,
1.541054,-0.4507,-0.5158,0.2682,-6.0721,-3.3601,-6.8875,0.8206,0.1794,-0.3540,
1.587489,-0.4891,-0.5495,0.2038,-6.0721,-3.3601,-6.8875,0.8206,0.1794,-0.3540,
1.590447,-0.4957,-0.5785,0.1612,-6.0721,-3.3601,-6.8875,0.8206,0.1794,-0.3540,
1.592237,-0.5334,-0.5969,0.1620,-6.0721,-3.3601,-6.8875,0.8206,0.1794,-0.3540,
1.597958,-0.5334,-0.5969,0.1620,-6.8008,-4.6267,-8.0146,0.8206,0.1794,-0.3540,
1.600536,-0.5334,-0.5969,0.1620,-6.8008,-4.6267,-8.0146,0.9324,-0.3551,-0.3253,
1.646055,-0.6592,-0.6108,0.2267,-6.8008,-4.6267,-8.0146,0.9324,-0.3551,-0.3253,
1.649178,-0.7652,-0.6120,0.2697,-6.8008,-4.6267,-8.0146,0.9324,-0.3551,-0.3253,
1.651361,-0.8470,-0.5800,0.2763,-6.8008,-4.6267,-8.0146,0.9324,-0.3551,-0.3253,
1.659154,-0.8470,-0.5800,0.2763,-6.8008,-4.6267,-8.0146,0.5457,0.1984,0.0162,
1.661479,-0.8470,-0.5800,0.2763,-9.9417,-4.9180,-6.9302,0.5457,0.1984,0.0162,
1.706060,-0.8180,-0.5385,0.2404,-9.9417,-4.9180,-6.9302,0.5457,0.1984,0.0162,
1.708418,-0.7821,-0.4950,0.2424,-9.9417,-4.9180,-6.9302,0.5457,0.1984,0.0162,
1.710037,-0.7755,-0.4542,0.2924,-9.9417,-4.9180,-6.9302,0.5457,0.1984,0.0162,
1.718756,-0.7755,-0.4542,0.2924,-9.9417,-4.9180,-6.9302,0.0241,-0.4271,-0.0370,
1.721166,-0.7755,-0.4542,0.2924,-9.2288,-3.8070,-6.7830,0.0241,-0.4271,-0.0370,
1.767082,-0.7554,-0.4268,0.3721,-9.2288,-3.8070,-6.7830,0.0241,-0.4271,-0.0370,
1.770257,-0.7547,-0.4642,0.4070,-9.2288,-3.8070,-6.7830,0.0241,-0.4271,-0.0370,
1.772462,-0.7476,-0.6240,0.3090,-9.2288,-3.8070,-6.7830,0.0241,-0.4271,-0.0370,
1.777811,-0.7476,-0.6240,0.3090,-9.2288,-3.8070,-6.7830,-0.3107,-0.5279,-0.1054,
1.780788,-0.7476,-0.6240,0.3090,-9.2459,-5.4149,-6.5628,-0.3107,-0.5279,-0.1054,
1.825752,-0.7378,-0.8133,0.2184,-9.2459,-5.4149,-6.5628,-0.3107,-0.5279,-0.1054,
1.828023,-0.7217,-0.9831,0.2020,-9.2459,-5.4149,-6.5628,-0.3107,-0.5279,-0.1054,
1.829680,-0.6985,-1.1273,0.2311,-9.2459,-5.4149,-6.5628,-0.3107,-0.5279,-0.1054,
1.838507,-0.6985,-1.1273,0.2311,-9.0954,-10.1188,-7.2349,-0.3107,-0.5279,-0.1054,
1.841994,-0.6985,-1.1273,0.2311,-9.0954,-10.1188,-7.2349,-0.1232,-1.0453,-0.2153,
1.886977,-0.5781,-1.0960,0.2895,-9.0954,-10.1188,-7.2349,-0.1232,-1.0453,-0.2153,
1.890037,-0.5390,-1.0244,0.3970,-9.0954,-10.1188,-7.2349,-0.1232,-1.0453,-0.2153,
1.891931,-0.5527,-1.0782,0.5458,-9.0954,-10.1188,-7.2349,-0.1232,-1.0453,-0.2153,
1.897974,-0.5527,-1.0782,0.5458,-8.4254,-9.7391,-3.9478,-0.1232,-1.0453,-0.2153,
1.899909,-0.5527,-1.0782,0.5458,-8.4254,-9.7391,-3.9478,0.9397,-2.0765,-0.5690,
1.945513,-0.6088,-1.2795,0.7185,-8.4254,-9.7391,-3.9478,0.9397,-2.0765,-0.5690,
1.947796,-0.8102,-1.3794,0.8444,-8.4254,-9.7391,-3.9478,0.9397,-2.0765,-0.5690,
1.949229,-0.6907,-1.0264,0.9694,-8.4254,-9.7391,-3.9478,0.9397,-2.0765,-0.5690,
1.957758,-0.6907,-1.0264,0.9694,-8.4254,-9.7391,-3.9478,0.6777,0.1019,0.0803,
1.960432,-0.6907,-1.0264,0.9694,-10.6299,-9.9951,0.4862,0.6777,0.1019,0.0803,
2.005968,-0.5392,-0.6477,0.5717,-10.6299,-9.9951,0.4862,0.6777,0.1019,0.0803,
2.008582,-0.4842,-0.6452,0.3728,-10.6299,-9.9951,0.4862,0.6777,0.1019,0.0803,
2.010277,-0.4077,-0.7469,0.3980,-10.6299,-9.9951,0.4862,0.6777,0.1019,0.0803,
2.020491,-0.4077,-0.7469,0.3980,-10.6299,-9.9951,0.4862,-0.4909,-0.8694,-0.3436,
2.022261,-0.4077,-0.7469,0.3980,-8.0959,-7.2790,-5.0082,-0.4909,-0.8694,-0.3436,
2.066193,-0.3134,-0.8102,0.4801,-8.0959,-7.2790,-5.0082,-0.4909,-0.8694,-0.3436,
2.069039,-0.2526,-0.7635,0.5382,-8.0959,-7.2790,-5.0082,-0.4909,-0.8694,-0.3436,
2.071998,-0.2162,-0.6931,0.4989,-8.0959,-7.2790,-5.0082,-0.4909,-0.8694,-0.3436,
2.077394,-0.2162,-0.6931,0.4989,-8.0959,-7.2790,-5.0082,-0.3822,0.0817,-0.1371,
2.079606,-0.2162,-0.6931,0.4989,-6.4708,-6.4865,-3.8938,-0.3822,0.0817,-0.1371,
2.125995,-0.1979,-0.6406,0.4275,-6.4708,-6.4865,-3.8938,-0.3822,0.0817,-0.1371,
2.128944,-0.2069,-0.5925,0.3667,-6.4708,-6.4865,-3.8938,-0.3822,0.0817,-0.1371,
2.130909,-0.2707,-0.5519,0.3474,-6.4708,-6.4865,-3.8938,-0.3822,0.0817,-0.1371,
2.138253,-0.2707,-0.5519,0.3474,-6.7580,-4.8322,-5.4828,-0.3822,0.0817,-0.1371,
2.142149,-0.2707,-0.5519,0.3474,-6.7580,-4.8322,-5.4828,-0.4940,0.6315,0.1549,
2.187390,-0.3437,-0.5155,0.3911,-6.7580,-4.8322,-5.4828,-0.4940,0.6315,0.1549,
2.189846,-0.3667,-0.5297,0.4456,-6.7580,-4.8322,-5.4828,-0.4940,0.6315,0.1549,
2.192221,-0.3909,-0.5698,0.4788,-6.7580,-4.8322,-5.4828,-0.4940,0.6315,0.1549,
2.197745,-0.3909,-0.5698,0.4788,-6.7580,-4.8322,-5.4828,-0.3296,0.5893,0.3149,
2.199817,-0.3909,-0.5698,0.4788,-7.5149,-4.6668,-4.3493,-0.3296,0.5893,0.3149,
2.245216,-0.4139,-0.6335,0.4781,-7.5149,-4.6668,-4.3493,-0.3296,0.5893,0.3149,
2.247365,-0.4327,-0.7334,0.4617,-7.5149,-4.6668,-4.3493,-0.3296,0.5893,0.3149,
2.248713,-0.4310,-0.8224,0.4735,-7.5149,-4.6668,-4.3493,-0.3296,0.5893,0.3149,
2.258450,-0.4310,-0.8224,0.4735,-7.6788,-6.9145,-4.4661,-0.3296,0.5893,0.3149,
2.261428,-0.4310,-0.8224,0.4735,-7.6788,-6.9145,-4.4661,0.0827,0.2363,0.4487,
2.305884,-0.4231,-0.8448,0.5136,-7.6788,-6.9145,-4.4661,0.0827,0.2363,0.4487,
2.308470,-0.4207,-0.7488,0.5031,-7.6788,-6.9145,-4.4661,0.0827,0.2363,0.4487,
2.310721,-0.4779,-0.7049,0.4720,-7.6788,-6.9145,-4.4661,0.0827,0.2363,0.4487,
2.319149,-0.4779,-0.7049,0.4720,-7.7790,-5.6870,-4.5991,0.0827,0.2363,0.4487,
2.322621,-0.4779,-0.7049,0.4720,-7.7790,-5.6870,-4.5991,0.0760,0.3645,0.3363,
2.365761,-0.5033,-0.6931,0.4654,-7.7790,-5.6870,-4.5991,0.0760,0.3645,0.3363,
2.368967,-0.4713,-0.6689,0.4649,-7.7790,-5.6870,-4.5991,0.0760,0.3645,0.3363,
2.370776,-0.4156,-0.6059,0.4678,-7.7790,-5.6870,-4.5991,0.0760,0.3645,0.3363,
2.378098,-0.4156,-0.6059,0.4678,-7.7790,-5.6870,-4.5991,-0.0419,0.0451,0.2245,
2.380366,-0.4156,-0.6059,0.4678,-7.0483,-4.6386,-4.6686,-0.0419,0.0451,0.2245,
2.425766,-0.4187,-0.5627,0.3772,-7.0483,-4.6386,-4.6686,-0.0419,0.0451,0.2245,
2.427643,-0.4263,-0.5417,0.3318,-7.0483,-4.6386,-4.6686,-0.0419,0.0451,0.2245,
2.428917,-0.4009,-0.5373,0.3564,-7.0483,-4.6386,-4.6686,-0.0419,0.0451,0.2245,
2.441785,-0.4009,-0.5373,0.3564,-7.0483,-4.6386,-4.6686,-0.4390,0.1483,0.4646,
2.443247,-0.4009,-0.5373,0.3564,-6.7704,-3.7569,-5.7708,-0.4390,0.1483,0.4646,
2.486718,-0.3542,-0.5583,0.4214,-6.7704,-3.7569,-5.7708,-0.4390,0.1483,0.4646,
2.488318,-0.3254,-0.5959,0.4666,-6.7704,-3.7569,-5.7708,-0.4390,0.1483,0.4646,
2.489704,-0.3188,-0.6482,0.4539,-6.7704,-3.7569,-5.7708,-0.4390,0.1483,0.4646,
2.498695,-0.3188,-0.6482,0.4539,-6.7704,-3.7569,-5.7708,-0.2563,-0.0557,0.4133,
2.500176,-0.3188,-0.6482,0.4539,-5.8564,-4.5031,-4.7867,-0.2563,-0.0557,0.4133,
2.546204,-0.3083,-0.6716,0.4112,-5.8564,-4.5031,-4.7867,-0.2563,-0.0557,0.4133,
2.549041,-0.2856,-0.6494,0.3635,-5.8564,-4.5031,-4.7867,-0.2563,-0.0557,0.4133,
2.551585,-0.2602,-0.6169,0.3469,-5.8564,-4.5031,-4.7867,-0.2563,-0.0557,0.4133,
2.558043,-0.2602,-0.6169,0.3469,-5.8564,-4.5031,-4.7867,-0.1042,-0.2494,0.1579,
2.560915,-0.2602,-0.6169,0.3469,-5.3142,-3.9885,-5.7816,-0.1042,-0.2494,0.1579,
2.605494,-0.3325,-0.6369,0.3450,-5.3142,-3.9885,-5.7816,-0.1042,-0.2494,0.1579,
2.608626,-0.4588,-0.7908,0.2763,-5.3142,-3.9885,-5.7816,-0.1042,-0.2494,0.1579,
2.610527,-0.6418,-0.9194,0.2790,-5.3142,-3.9885,-5.7816,-0.1042,-0.2494,0.1579,
2.618293,-0.6418,-0.9194,0.2790,-5.3142,-3.9885,-5.7816,-0.1720,0.6211,-0.1048,
2.621097,-0.6418,-0.9194,0.2790,-8.9960,-6.8588,-6.4430,-0.1720,0.6211,-0.1048,
2.667088,-0.8571,-1.0271,0.2971,-8.9960,-6.8588,-6.4430,-0.1720,0.6211,-0.1048,
2.670312,-1.0159,-1.0508,0.3054,-8.9960,-6.8588,-6.4430,-0.1720,0.6211,-0.1048,
2.672537,-1.0667,-1.0007,0.3313,-8.9960,-6.8588,-6.4430,-0.1720,0.6211,-0.1048,
2.678395,-1.0667,-1.0007,0.3313,-12.7384,-7.5248,-6.0131,-0.1720,0.6211,-0.1048,
2.681397,-1.0667,-1.0007,0.3313,-12.7384,-7.5248,-6.0131,-0.0780,-0.0411,0.4010,
2.725443,-0.9638,-0.9313,0.4864,-12.7384,-7.5248,-6.0131,-0.0780,-0.0411,0.4010,
2.728300,-1.0217,-1.1246,0.7398,-12.7384,-7.5248,-6.0131,-0.0780,-0.0411,0.4010,
2.730297,-1.1712,-1.1837,0.6900,-12.7384,-7.5248,-6.0131,-0.0780,-0.0411,0.4010,
2.739329,-1.1712,-1.1837,0.6900,-13.7492,-9.1675,-2.4632,-0.0780,-0.0411,0.4010,
2.742038,-1.1712,-1.1837,0.6900,-13.7492,-9.1675,-2.4632,0.0919,-0.0026,0.0907,
2.785947,-1.0664,-0.8908,0.5888,-13.7492,-9.1675,-2.4632,0.0919,-0.0026,0.0907,
2.789100,-0.7202,-0.6587,0.3806,-13.7492,-9.1675,-2.4632,0.0919,-0.0026,0.0907,
2.791080,-0.5478,-0.6088,0.2482,-13.7492,-9.1675,-2.4632,0.0919,-0.0026,0.0907,
2.797439,-0.5478,-0.6088,0.2482,-13.7492,-9.1675,-2.4632,0.7418,0.3664,-0.0864,
2.800091,-0.5478,-0.6088,0.2482,-7.4780,-3.8411,-6.9056,0.7418,0.3664,-0.0864,
2.846855,-0.5610,-0.7224,0.3862,-7.4780,-3.8411,-6.9056,0.7418,0.3664,-0.0864,
2.849987,-0.6973,-0.7066,0.3442,-7.4780,-3.8411,-6.9056,0.7418,0.3664,-0.0864,
2.851861,-0.7459,-0.6418,0.2981,-7.4780,-3.8411,-6.9056,0.7418,0.3664,-0.0864,
2.857639,-0.7459,-0.6418,0.2981,-7.4780,-3.8411,-6.9056,0.0467,0.4537,0.0522,
2.860157,-0.7459,-0.6418,0.2981,-8.9698,-4.2949,-6.5361,0.0467,0.4537,0.0522,
2.906604,-0.6623,-0.5536,0.2878,-8.9698,-4.2949,-6.5361,0.0467,0.4537,0.0522,
2.909796,-0.5952,-0.5221,0.2802,-8.9698,-4.2949,-6.5361,0.0467,0.4537,0.0522,
2.912916,-0.5649,-0.4950,0.3476,-8.9698,-4.2949,-6.5361,0.0467,0.4537,0.0522,
2.919199,-0.5649,-0.4950,0.3476,-8.9698,-4.2949,-6.5361,-0.0877,0.2613,-0.0455,
2.921808,-0.5649,-0.4950,0.3476,-6.9417,-2.7633,-6.0713,-0.0877,0.2613,-0.0455,
2.966044,-0.5720,-0.4583,0.3687,-6.9417,-2.7633,-6.0713,-0.0877,0.2613,-0.0455,
2.968679,-0.5497,-0.4586,0.3806,-6.9417,-2.7633,-6.0713,-0.0877,0.2613,-0.0455,
2.970792,-0.5492,-0.5461,0.3476,-6.9417,-2.7633,-6.0713,-0.0877,0.2613,-0.0455,
2.977477,-0.5492,-0.5461,0.3476,-6.9417,-2.7633,-6.0713,-0.1244,-0.0289,-0.1573,
2.980129,-0.5492,-0.5461,0.3476,-6.6479,-3.2217,-6.0817,-0.1244,-0.0289,-0.1573,
3.026947,-0.5292,-0.5553,0.3762,-6.6479,-3.2217,-6.0817,-0.1244,-0.0289,-0.1573,
3.030612,-0.4984,-0.5534,0.4571,-6.6479,-3.2217,-6.0817,-0.1244,-0.0289,-0.1573,
3.032317,-0.5365,-0.5597,0.4310,-6.6479,-3.2217,-6.0817,-0.1244,-0.0289,-0.1573,
3.038159,-0.5365,-0.5597,0.4310,-6.6479,-3.2217,-6.0817,0.1401,-0.1669,-0.4059,
3.040673,-0.5365,-0.5597,0.4310,-6.5829,-3.2812,-5.2401,0.1401,-0.1669,-0.4059,
3.086035,-0.5465,-0.5238,0.4082,-6.5829,-3.2812,-5.2401,0.1401,-0.1669,-0.4059,
3.089248,-0.5153,-0.5204,0.3960,-6.5829,-3.2812,-5.2401,0.1401,-0.1669,-0.4059,
3.090960,-0.5297,-0.5524,0.3716,-6.5829,-3.2812,-5.2401,0.1401,-0.1669,-0.4059,
3.100025,-0.5297,-0.5524,0.3716,-6.5838,-3.3808,-5.8504,0.1401,-0.1669,-0.4059,
3.103922,-0.5297,-0.5524,0.3716,-6.5838,-3.3808,-5.8504,0.3350,-0.0075,-0.3833,
3.147240,-0.5727,-0.5392,0.3367,-6.5838,-3.3808,-5.8504,0.3350,-0.0075,-0.3833,
3.149254,-0.5998,-0.4913,0.3323,-6.5838,-3.3808,-5.8504,0.3350,-0.0075,-0.3833,
3.151049,-0.6303,-0.4649,0.3164,-6.5838,-3.3808,-5.8504,0.3350,-0.0075,-0.3833,
3.157974,-0.6303,-0.4649,0.3164,-6.5838,-3.3808,-5.8504,0.3246,-0.1400,-0.1292,
3.160713,-0.6303,-0.4649,0.3164,-7.5886,-2.6985,-6.4246,0.3246,-0.1400,-0.1292,
3.207809,-0.6382,-0.4627,0.2988,-7.5886,-2.6985,-6.4246,0.3246,-0.1400,-0.1292,
3.210476,-0.6037,-0.4432,0.3337,-7.5886,-2.6985,-6.4246,0.3246,-0.1400,-0.1292,
3.212783,-0.5595,-0.4256,0.3968,-7.5886,-2.6985,-6.4246,0.3246,-0.1400,-0.1292,
3.217786,-0.5595,-0.4256,0.3968,-7.5886,-2.6985,-6.4246,-0.0725,-0.4003,-0.1323,
3.219738,-0.5595,-0.4256,0.3968,-7.0174,-2.3750,-5.6298,-0.0725,-0.4003,-0.1323,
3.265733,-0.5876,-0.4251,0.3816,-7.0174,-2.3750,-5.6298,-0.0725,-0.4003,-0.1323,
3.268579,-0.6384,-0.5035,0.3335,-7.0174,-2.3750,-5.6298,-0.0725,-0.4003,-0.1323,
3.270975,-0.6755,-0.7417,0.2907,-7.0174,-2.3750,-5.6298,-0.0725,-0.4003,-0.1323,
3.278163,-0.6755,-0.7417,0.2907,-7.0174,-2.3750,-5.6298,-0.0676,-0.7943,-0.1463,
3.280671,-0.6755,-0.7417,0.2907,-8.4363,-5.4218,-6.6092,-0.0676,-0.7943,-0.1463,
3.326440,-0.6804,-1.0525,0.3098,-8.4363,-5.4218,-6.6092,-0.0676,-0.7943,-0.1463,
3.329268,-0.7312,-1.1695,0.4043,-8.4363,-5.4218,-6.6092,-0.0676,-0.7943,-0.1463,
3.331390,-0.7515,-1.1485,0.5502,-8.4363,-5.4218,-6.6092,-0.0676,-0.7943,-0.1463,
3.337790,-0.7515,-1.1485,0.5502,-8.4363,-5.4218,-6.6092,0.0625,-1.7466,-0.2184,
3.340004,-0.7515,-1.1485,0.5502,-9.8531,-9.3257,-3.8953,0.0625,-1.7466,-0.2184,
3.387094,-0.6909,-1.1915,0.6252,-9.8531,-9.3257,-3.8953,0.0625,-1.7466,-0.2184,
3.390539,-0.6191,-1.4656,0.8070,-9.8531,-9.3257,-3.8953,0.0625,-1.7466,-0.2184,
3.392260,-0.5302,-1.6525,0.9560,-9.8531,-9.3257,-3.8953,0.0625,-1.7466,-0.2184,
3.397377,-0.5302,-1.6525,0.9560,-9.8531,-9.3257,-3.8953,0.5641,-0.6800,-0.2880,
3.399296,-0.5302,-1.6525,0.9560,-8.5260,-14.4432,0.3128,0.5641,-0.6800,-0.2880,
3.446515,-0.5060,-1.3476,0.9406,-8.5260,-14.4432,0.3128,0.5641,-0.6800,-0.2880,
3.449322,-0.5043,-0.8419,0.8431,-8.5260,-14.4432,0.3128,0.5641,-0.6800,-0.2880,
3.451235,-0.5937,-0.7115,0.6030,-8.5260,-14.4432,0.3128,0.5641,-0.6800,-0.2880,
3.458503,-0.5937,-0.7115,0.6030,-8.5260,-14.4432,0.3128,0.4810,-0.3795,-0.1408,
3.462281,-0.5937,-0.7115,0.6030,-9.3305,-5.7273,-3.1619,0.4810,-0.3795,-0.1408,
3.507069,-0.6101,-0.6990,0.3970,-9.3305,-5.7273,-3.1619,0.4810,-0.3795,-0.1408,
3.511146,-0.4762,-0.6748,0.3579,-9.3305,-5.7273,-3.1619,0.4810,-0.3795,-0.1408,
3.512804,-0.3240,-0.6540,0.3872,-9.3305,-5.7273,-3.1619,0.4810,-0.3795,-0.1408,
3.518703,-0.3240,-0.6540,0.3872,-7.1625,-4.9844,-5.0504,0.4810,-0.3795,-0.1408,
3.521926,-0.3240,-0.6540,0.3872,-7.1625,-4.9844,-5.0504,-0.8990,-1.1150,-0.1457,
3.566283,-0.2116,-0.6645,0.4205,-7.1625,-4.9844,-5.0504,-0.8990,-1.1150,-0.1457,
3.569184,-0.1356,-0.6621,0.4244,-7.1625,-4.9844,-5.0504,-0.8990,-1.1150,-0.1457,
3.571387,-0.1222,-0.6323,0.4212,-7.1625,-4.9844,-5.0504,-0.8990,-1.1150,-0.1457,
3.577801,-0.1222,-0.6323,0.4212,-7.1625,-4.9844,-5.0504,-0.6259,-0.0985,0.0156,
3.580712,-0.1222,-0.6323,0.4212,-5.4868,-4.2885,-4.4822,-0.6259,-0.0985,0.0156,
3.627161,-0.1278,-0.5759,0.4112,-5.4868,-4.2885,-4.4822,-0.6259,-0.0985,0.0156,
3.630986,-0.1551,-0.5407,0.4065,-5.4868,-4.2885,-4.4822,-0.6259,-0.0985,0.0156,
3.633005,-0.2094,-0.5495,0.4312,-5.4868,-4.2885,-4.4822,-0.6259,-0.0985,0.0156,
3.638091,-0.2094,-0.5495,0.4312,-5.4868,-4.2885,-4.4822,-0.3260,0.5362,0.1298,
3.640518,-0.2094,-0.5495,0.4312,-6.1789,-3.1649,-4.3887,-0.3260,0.5362,0.1298,
3.685701,-0.2575,-0.6084,0.4512,-6.1789,-3.1649,-4.3887,-0.3260,0.5362,0.1298,
3.689134,-0.2910,-0.6538,0.4634,-6.1789,-3.1649,-4.3887,-0.3260,0.5362,0.1298,
3.691118,-0.3472,-0.7093,0.5829,-6.1789,-3.1649,-4.3887,-0.3260,0.5362,0.1298,
3.699222,-0.3472,-0.7093,0.5829,-7.0728,-4.5472,-3.0575,-0.3260,0.5362,0.1298,
3.702502,-0.3472,-0.7093,0.5829,-7.0728,-4.5472,-3.0575,-0.0224,1.3700,0.3619,
3.746196,-0.3723,-0.7254,0.6631,-7.0728,-4.5472,-3.0575,-0.0224,1.3700,0.3619,
3.749276,-0.4280,-0.6885,0.6364,-7.0728,-4.5472,-3.0575,-0.0224,1.3700,0.3619,
3.752219,-0.4813,-0.6528,0.5947,-7.0728,-4.5472,-3.0575,-0.0224,1.3700,0.3619,
3.759647,-0.4813,-0.6528,0.5947,-7.4922,-3.9596,-3.2564,-0.0224,1.3700,0.3619,
3.763050,-0.4813,-0.6528,0.5947,-7.4922,-3.9596,-3.2564,0.3704,1.1110,0.4536,
3.806732,-0.4979,-0.6215,0.5038,-7.4922,-3.9596,-3.2564,0.3704,1.1110,0.4536,
3.810192,-0.4942,-0.5839,0.3679,-7.4922,-3.9596,-3.2564,0.3704,1.1110,0.4536,
3.811932,-0.4808,-0.5869,0.2941,-7.4922,-3.9596,-3.2564,0.3704,1.1110,0.4536,
3.818776,-0.4808,-0.5869,0.2941,-7.4922,-3.9596,-3.2564,-0.0450,0.1110,0.2917,
3.820758,-0.4808,-0.5869,0.2941,-7.0938,-3.3793,-6.3299,-0.0450,0.1110,0.2917,
3.866551,-0.4529,-0.6120,0.2660,-7.0938,-3.3793,-6.3299,-0.0450,0.1110,0.2917,
3.869928,-0.4139,-0.6328,0.2585,-7.0938,-3.3793,-6.3299,-0.0450,0.1110,0.2917,
3.871951,-0.3726,-0.6482,0.2988,-7.0938,-3.3793,-6.3299,-0.0450,0.1110,0.2917,
3.877864,-0.3726,-0.6482,0.2988,-7.0938,-3.3793,-6.3299,-0.6363,0.1055,0.5250,
3.881668,-0.3726,-0.6482,0.2988,-5.8531,-3.6886,-6.2494,-0.6363,0.1055,0.5250,
3.927636,-0.3271,-0.6770,0.4195,-5.8531,-3.6886,-6.2494,-0.6363,0.1055,0.5250,
3.931145,-0.3176,-0.6941,0.5182,-5.8531,-3.6886,-6.2494,-0.6363,0.1055,0.5250,
3.933400,-0.3459,-0.6746,0.5522,-5.8531,-3.6886,-6.2494,-0.6363,0.1055,0.5250,
3.938764,-0.3459,-0.6746,0.5522,-5.8531,-3.6886,-6.2494,-0.2295,0.1196,0.3125,
3.941359,-0.3459,-0.6746,0.5522,-5.3697,-3.5472,-3.6919,-0.2295,0.1196,0.3125,
3.986517,-0.3765,-0.6487,0.4959,-5.3697,-3.5472,-3.6919,-0.2295,0.1196,0.3125,
3.990136,-0.3740,-0.6240,0.4534,-5.3697,-3.5472,-3.6919,-0.2295,0.1196,0.3125,
3.992482,-0.3765,-0.6171,0.4740,-5.3697,-3.5472,-3.6919,-0.2295,0.1196,0.3125,
3.998206,-0.3765,-0.6171,0.4740,-5.3697,-3.5472,-3.6919,-0.0664,0.0622,0.3711,
4.000980,-0.3765,-0.6171,0.4740,-5.5468,-2.8311,-4.4311,-0.0664,0.0622,0.3711,
4.047777,-0.3608,-0.6460,0.5170,-5.5468,-2.8311,-4.4311,-0.0664,0.0622,0.3711,
4.051171,-0.3520,-0.7031,0.4654,-5.5468,-2.8311,-4.4311,-0.0664,0.0622,0.3711,
4.053027,-0.3941,-0.7479,0.4432,-5.5468,-2.8311,-4.4311,-0.0664,0.0622,0.3711,
4.058788,-0.3941,-0.7479,0.4432,-5.5508,-4.0582,-4.7465,-0.0664,0.0622,0.3711,
4.062949,-0.3941,-0.7479,0.4432,-5.5508,-4.0582,-4.7465,0.1981,0.1568,0.2031,
4.107611,-0.5233,-0.7124,0.4461,-5.5508,-4.0582,-4.7465,0.1981,0.1568,0.2031,
4.111586,-0.6482,-0.8106,0.2915,-5.5508,-4.0582,-4.7465,0.1981,0.1568,0.2031,
4.113903,-0.7264,-0.9013,0.2292,-5.5508,-4.0582,-4.7465,0.1981,0.1568,0.2031,
4.117969,-0.7264,-0.9013,0.2292,-8.6040,-5.6461,-6.9090,0.1981,0.1568,0.2031,
4.120372,-0.7264,-0.9013,0.2292,-8.6040,-5.6461,-6.9090,-0.1562,0.1892,0.0235,
4.166779,-0.8527,-0.9731,0.1493,-8.6040,-5.6461,-6.9090,-0.1562,0.1892,0.0235,
4.169790,-1.0024,-0.9526,0.1879,-8.6040,-5.6461,-6.9090,-0.1562,0.1892,0.0235,
4.171859,-0.9839,-0.8937,0.3425,-8.6040,-5.6461,-6.9090,-0.1562,0.1892,0.0235,
4.178307,-0.9839,-0.8937,0.3425,-11.2093,-5.3100,-5.6889,-0.1562,0.1892,0.0235,
4.181458,-0.9839,-0.8937,0.3425,-11.2093,-5.3100,-5.6889,-0.4897,-0.1877,0.4212,
4.227063,-0.8952,-0.9313,0.6269,-11.2093,-5.3100,-5.6889,-0.4897,-0.1877,0.4212,
4.230544,-0.9401,-1.0913,0.4930,-11.2093,-5.3100,-5.6889,-0.4897,-0.1877,0.4212,
4.232466,-1.0698,-1.0887,0.5119,-11.2093,-5.3100,-5.6889,-0.4897,-0.1877,0.4212,
4.238632,-1.0698,-1.0887,0.5119,-11.9451,-6.8952,-3.9167,-0.4897,-0.1877,0.4212,
4.241880,-1.0698,-1.0887,0.5119,-11.9451,-6.8952,-3.9167,-0.1745,-0.2072,0.1408,
4.287616,-1.0415,-0.9181,0.5688,-11.9451,-6.8952,-3.9167,-0.1745,-0.2072,0.1408,
4.291599,-0.6384,-0.7144,0.4424,-11.9451,-6.8952,-3.9167,-0.1745,-0.2072,0.1408,
4.293954,-0.5114,-0.6711,0.4075,-11.9451,-6.8952,-3.9167,-0.1745,-0.2072,0.1408,
4.298894,-0.5114,-0.6711,0.4075,-11.9451,-6.8952,-3.9167,0.7137,0.9717,0.1836,
4.302587,-0.5114,-0.6711,0.4075,-6.2870,-2.9466,-5.0265,0.7137,0.9717,0.1836,
4.347473,-0.5981,-0.6865,0.3435,-6.2870,-2.9466,-5.0265,0.7137,0.9717,0.1836,
4.351730,-0.7442,-0.6843,0.2284,-6.2870,-2.9466,-5.0265,0.7137,0.9717,0.1836,
4.353844,-0.7887,-0.6316,0.1840,-6.2870,-2.9466,-5.0265,0.7137,0.9717,0.1836,
4.358672,-0.7887,-0.6316,0.1840,-8.4329,-2.7815,-7.3657,0.7137,0.9717,0.1836,
4.361423,-0.7887,-0.6316,0.1840,-8.4329,-2.7815,-7.3657,0.0002,0.4446,0.0608,
4.407789,-0.6660,-0.5597,0.1972,-8.4329,-2.7815,-7.3657,0.0002,0.4446,0.0608,
4.411673,-0.6044,-0.5343,0.2773,-8.4329,-2.7815,-7.3657,0.0002,0.4446,0.0608,
4.413676,-0.5673,-0.5116,0.3450,-8.4329,-2.7815,-7.3657,0.0002,0.4446,0.0608,
4.417947,-0.5673,-0.5116,0.3450,-8.4329,-2.7815,-7.3657,0.0967,0.2466,-0.0394,
4.420269,-0.5673,-0.5116,0.3450,-6.0642,-1.5282,-5.7718,0.0967,0.2466,-0.0394,
4.467633,-0.5355,-0.4732,0.3621,-6.0642,-1.5282,-5.7718,0.0967,0.2466,-0.0394,
4.471736,-0.5358,-0.4581,0.3196,-6.0642,-1.5282,-5.7718,0.0967,0.2466,-0.0394,
4.474075,-0.5165,-0.4835,0.3095,-6.0642,-1.5282,-5.7718,0.0967,0.2466,-0.0394,
4.478554,-0.5165,-0.4835,0.3095,-6.0642,-1.5282,-5.7718,-0.1085,0.0512,-0.2367,
4.481348,-0.5165,-0.4835,0.3095,-5.4258,-1.2959,-6.1420,-0.1085,0.0512,-0.2367,
4.526798,-0.5309,-0.5436,0.3459,-5.4258,-1.2959,-6.1420,-0.1085,0.0512,-0.2367,
4.530747,-0.5175,-0.5368,0.3924,-5.4258,-1.2959,-6.1420,-0.1085,0.0512,-0.2367,
4.532722,-0.5148,-0.5275,0.4769,-5.4258,-1.2959,-6.1420,-0.1085,0.0512,-0.2367,
4.539825,-0.5148,-0.5275,0.4769,-5.5180,-1.6066,-4.4508,-0.1085,0.0512,-0.2367,
4.542179,-0.5148,-0.5275,0.4769,-5.5180,-1.6066,-4.4508,0.1365,-0.1217,-0.4255,
4.586851,-0.5414,-0.5463,0.4688,-5.5180,-1.6066,-4.4508,0.1365,-0.1217,-0.4255,
4.590071,-0.5829,-0.5974,0.3987,-5.5180,-1.6066,-4.4508,0.1365,-0.1217,-0.4255,
4.591955,-0.6140,-0.6049,0.3525,-5.5180,-1.6066,-4.4508,0.1365,-0.1217,-0.4255,
4.597745,-0.6140,-0.6049,0.3525,-5.5180,-1.6066,-4.4508,0.2372,-0.1321,-0.3894,
4.601251,-0.6140,-0.6049,0.3525,-6.5713,-2.5227,-5.7247,0.2372,-0.1321,-0.3894,
4.646398,-0.6181,-0.5663,0.3349,-6.5713,-2.5227,-5.7247,0.2372,-0.1321,-0.3894,
4.649425,-0.6352,-0.5265,0.3220,-6.5713,-2.5227,-5.7247,0.2372,-0.1321,-0.3894,
4.651517,-0.6323,-0.4940,0.2880,-6.5713,-2.5227,-5.7247,0.2372,-0.1321,-0.3894,
4.658897,-0.6323,-0.4940,0.2880,-6.5713,-2.5227,-5.7247,0.3460,-0.1712,-0.1573,
4.661795,-0.6323,-0.4940,0.2880,-6.8912,-1.5461,-6.3876,0.3460,-0.1712,-0.1573,
4.706365,-0.5759,-0.4881,0.2504,-6.8912,-1.5461,-6.3876,0.3460,-0.1712,-0.1573,
4.709342,-0.5077,-0.5028,0.3017,-6.8912,-1.5461,-6.3876,0.3460,-0.1712,-0.1573,
4.711450,-0.5153,-0.5170,0.3987,-6.8912,-1.5461,-6.3876,0.3460,-0.1712,-0.1573,
4.718414,-0.5153,-0.5170,0.3987,-5.7873,-1.8287,-5.3200,0.3460,-0.1712,-0.1573,
4.721780,-0.5153,-0.5170,0.3987,-5.7873,-1.8287,-5.3200,-0.1708,-0.1468,-0.1982,
4.765889,-0.5712,-0.4994,0.4595,-5.7873,-1.8287,-5.3200,-0.1708,-0.1468,-0.1982,
4.768599,-0.6533,-0.5214,0.4595,-5.7873,-1.8287,-5.3200,-0.1708,-0.1468,-0.1982,
4.770394,-0.7354,-0.6020,0.4004,-5.7873,-1.8287,-5.3200,-0.1708,-0.1468,-0.1982,
4.777711,-0.7354,-0.6020,0.4004,-8.0792,-2.6250,-5.2784,-0.1708,-0.1468,-0.1982,
4.780366,-0.7354,-0.6020,0.4004,-8.0792,-2.6250,-5.2784,0.2171,-0.2781,-0.0486,
4.827493,-0.7996,-0.8419,0.3152,-8.0792,-2.6250,-5.2784,0.2171,-0.2781,-0.0486,
4.831534,-0.8666,-1.0584,0.3108,-8.0792,-2.6250,-5.2784,0.2171,-0.2781,-0.0486,
4.833642,-0.7513,-1.0938,0.3315,-8.0792,-2.6250,-5.2784,0.2171,-0.2781,-0.0486,
4.837655,-0.7513,-1.0938,0.3315,-8.0792,-2.6250,-5.2784,0.0522,-1.1846,-0.3632,
4.840185,-0.7513,-1.0938,0.3315,-8.4827,-7.5187,-5.9528,0.0522,-1.1846,-0.3632,
4.887306,-0.6301,-1.1014,0.3789,-8.4827,-7.5187,-5.9528,0.0522,-1.1846,-0.3632,
4.890942,-0.6091,-1.1854,0.4774,-8.4827,-7.5187,-5.9528,0.0522,-1.1846,-0.3632,
4.893211,-0.6550,-1.2396,0.6594,-8.4827,-7.5187,-5.9528,0.0522,-1.1846,-0.3632,
4.898901,-0.6550,-1.2396,0.6594,-8.3291,-9.0378,-2.6397,0.0522,-1.1846,-0.3632,
4.902309,-0.6550,-1.2396,0.6594,-8.3291,-9.0378,-2.6397,0.4168,-1.0539,-0.4352,
4.947083,-0.6291,-1.0982,0.8043,-8.3291,-9.0378,-2.6397,0.4168,-1.0539,-0.4352,
4.951141,-0.6628,-1.0330,0.7361,-8.3291,-9.0378,-2.6397,0.4168,-1.0539,-0.4352,
4.953091,-0.6587,-1.0134,0.6782,-8.3291,-9.0378,-2.6397,0.4168,-1.0539,-0.4352,
4.957789,-0.6587,-1.0134,0.6782,-8.3291,-9.0378,-2.6397,0.0760,-0.7766,-0.0889,
4.959887,-0.6587,-1.0134,0.6782,-8.8439,-7.0388,-2.4141,0.0760,-0.7766,-0.0889,
5.007557,-0.6350,-0.9360,0.6780,-8.8439,-7.0388,-2.4141,0.0760,-0.7766,-0.0889,
5.012108,-0.5087,-0.8404,0.6306,-8.8439,-7.0388,-2.4141,0.0760,-0.7766,-0.0889,
5.013927,-0.3870,-0.7755,0.4864,-8.8439,-7.0388,-2.4141,0.0760,-0.7766,-0.0889,
5.018378,-0.3870,-0.7755,0.4864,-6.7171,-4.6110,-4.1036,0.0760,-0.7766,-0.0889,
5.021695,-0.3870,-0.7755,0.4864,-6.7171,-4.6110,-4.1036,-0.4353,-0.9415,-0.1933,
5.066314,-0.3220,-0.7129,0.3897,-6.7171,-4.6110,-4.1036,-0.4353,-0.9415,-0.1933,
5.069126,-0.2993,-0.6885,0.3379,-6.7171,-4.6110,-4.1036,-0.4353,-0.9415,-0.1933,
5.070849,-0.2507,-0.6738,0.3222,-6.7171,-4.6110,-4.1036,-0.4353,-0.9415,-0.1933,
5.079819,-0.2507,-0.6738,0.3222,-6.7171,-4.6110,-4.1036,-0.7041,-0.4308,-0.0333,
5.081912,-0.2507,-0.6738,0.3222,-5.7394,-3.3028,-5.4732,-0.7041,-0.4308,-0.0333,
5.127039,-0.1749,-0.6604,0.3420,-5.7394,-3.3028,-5.4732,-0.7041,-0.4308,-0.0333,
5.130475,-0.1148,-0.6514,0.3884,-5.7394,-3.3028,-5.4732,-0.7041,-0.4308,-0.0333,
5.132421,-0.1217,-0.6404,0.4310,-5.7394,-3.3028,-5.4732,-0.7041,-0.4308,-0.0333,
5.137806,-0.1217,-0.6404,0.4310,-5.7394,-3.3028,-5.4732,-0.4799,0.1538,0.0779,
5.140117,-0.1217,-0.6404,0.4310,-4.5678,-2.5785,-4.2092,-0.4799,0.1538,0.0779,
5.186991,-0.1974,-0.6396,0.4305,-4.5678,-2.5785,-4.2092,-0.4799,0.1538,0.0779,
5.190721,-0.2910,-0.6494,0.4302,-4.5678,-2.5785,-4.2092,-0.4799,0.1538,0.0779,
5.192416,-0.3408,-0.6428,0.3972,-4.5678,-2.5785,-4.2092,-0.4799,0.1538,0.0779,
5.198378,-0.3408,-0.6428,0.3972,-6.4546,-2.3440,-4.5227,-0.4799,0.1538,0.0779,
5.201367,-0.3408,-0.6428,0.3972,-6.4546,-2.3440,-4.5227,-0.3229,0.5252,0.3015,
5.246500,-0.3347,-0.6482,0.4168,-6.4546,-2.3440,-4.5227,-0.3229,0.5252,0.3015,
5.250015,-0.3305,-0.6526,0.4915,-6.4546,-2.3440,-4.5227,-0.3229,0.5252,0.3015,
5.252153,-0.3393,-0.6533,0.5512,-6.4546,-2.3440,-4.5227,-0.3229,0.5252,0.3015,
5.258626,-0.3393,-0.6533,0.5512,-5.9344,-2.1798,-3.0561,-0.3229,0.5252,0.3015,
5.261150,-0.3393,-0.6533,0.5512,-5.9344,-2.1798,-3.0561,-0.2246,1.0994,0.4145,
5.307290,-0.3552,-0.6277,0.5632,-5.9344,-2.1798,-3.0561,-0.2246,1.0994,0.4145,
5.311168,-0.4021,-0.6237,0.5023,-5.9344,-2.1798,-3.0561,-0.2246,1.0994,0.4145,
5.313300,-0.4798,-0.6623,0.4258,-5.9344,-2.1798,-3.0561,-0.2246,1.0994,0.4145,
5.318063,-0.4798,-0.6623,0.4258,-5.9344,-2.1798,-3.0561,0.2635,0.6797,0.5709,
5.321385,-0.4798,-0.6623,0.4258,-6.6260,-2.1812,-4.4232,0.2635,0.6797,0.5709,
5.365687,-0.5402,-0.7009,0.4222,-6.6260,-2.1812,-4.4232,0.2635,0.6797,0.5709,
5.368856,-0.5336,-0.6841,0.3801,-6.6260,-2.1812,-4.4232,0.2635,0.6797,0.5709,
5.370740,-0.4495,-0.6663,0.3371,-6.6260,-2.1812,-4.4232,0.2635,0.6797,0.5709,
5.378681,-0.4495,-0.6663,0.3371,-5.8681,-2.2220,-5.3838,0.2635,0.6797,0.5709,
5.381472,-0.4495,-0.6663,0.3371,-5.8681,-2.2220,-5.3838,-0.1384,0.1623,0.4688,
5.427110,-0.3626,-0.6990,0.3538,-5.8681,-2.2220,-5.3838,-0.1384,0.1623,0.4688,
5.430566,-0.3459,-0.7075,0.4288,-5.8681,-2.2220,-5.3838,-0.1384,0.1623,0.4688,
5.433200,-0.4060,-0.6897,0.4986,-5.8681,-2.2220,-5.3838,-0.1384,0.1623,0.4688,
5.438549,-0.4060,-0.6897,0.4986,-5.8681,-2.2220,-5.3838,-0.0792,0.0444,0.2685,
5.441736,-0.4060,-0.6897,0.4986,-5.3160,-2.2824,-3.7356,-0.0792,0.0444,0.2685,
5.485376,-0.4402,-0.6548,0.4671,-5.3160,-2.2824,-3.7356,-0.0792,0.0444,0.2685,
5.488759,-0.4229,-0.6528,0.4412,-5.3160,-2.2824,-3.7356,-0.0792,0.0444,0.2685,
5.490655,-0.4202,-0.6719,0.4625,-5.3160,-2.2824,-3.7356,-0.0792,0.0444,0.2685,
5.499293,-0.4202,-0.6719,0.4625,-5.3160,-2.2824,-3.7356,-0.1378,0.1116,0.4731,
5.501862,-0.4202,-0.6719,0.4625,-5.3164,-2.0083,-4.0581,-0.1378,0.1116,0.4731,
5.546354,-0.4505,-0.6992,0.4901,-5.3164,-2.0083,-4.0581,-0.1378,0.1116,0.4731,
5.549427,-0.4214,-0.6983,0.5048,-5.3164,-2.0083,-4.0581,-0.1378,0.1116,0.4731,
5.551153,-0.3579,-0.6770,0.5241,-5.3164,-2.0083,-4.0581,-0.1378,0.1116,0.4731,
5.557978,-0.3579,-0.6770,0.5241,-5.3164,-2.0083,-4.0581,-0.0835,0.1629,0.4731,
5.560294,-0.3579,-0.6770,0.5241,-4.4395,-1.9414,-3.4242,-0.0835,0.1629,0.4731,
5.607030,-0.3682,-0.7146,0.4527,-4.4395,-1.9414,-3.4242,-0.0835,0.1629,0.4731,
5.610696,-0.4319,-0.7481,0.3530,-4.4395,-1.9414,-3.4242,-0.0835,0.1629,0.4731,
5.612110,-0.5492,-0.7786,0.2443,-4.4395,-1.9414,-3.4242,-0.0835,0.1629,0.4731,
5.620050,-0.5492,-0.7786,0.2443,-4.4395,-1.9414,-3.4242,0.1554,-0.2799,0.0388,
5.623397,-0.5492,-0.7786,0.2443,-6.2395,-2.9137,-6.1607,0.1554,-0.2799,0.0388,
5.666082,-0.6741,-0.8546,0.1673,-6.2395,-2.9137,-6.1607,0.1554,-0.2799,0.0388,
5.668615,-0.7239,-0.9540,0.0840,-6.2395,-2.9137,-6.1607,0.1554,-0.2799,0.0388,
5.670164,-0.8145,-1.0090,0.1119,-6.2395,-2.9137,-6.1607,0.1554,-0.2799,0.0388,
5.678503,-0.8145,-1.0090,0.1119,-6.2395,-2.9137,-6.1607,-0.4213,-0.2616,0.1836,
5.681723,-0.8145,-1.0090,0.1119,-8.8833,-5.0689,-7.3965,-0.4213,-0.2616,0.1836,
5.726169,-0.8798,-0.9496,0.2453,-8.8833,-5.0689,-7.3965,-0.4213,-0.2616,0.1836,
5.729447,-0.8878,-0.8969,0.6047,-8.8833,-5.0689,-7.3965,-0.4213,-0.2616,0.1836,
5.731656,-0.8441,-0.8348,0.6252,-8.8833,-5.0689,-7.3965,-0.4213,-0.2616,0.1836,
5.737876,-0.8441,-0.8348,0.6252,-8.8833,-5.0689,-7.3965,-0.1061,0.4427,0.3815,
5.740752,-0.8441,-0.8348,0.6252,-8.9803,-3.1420,-2.2559,-0.1061,0.4427,0.3815,
5.787448,-0.8172,-0.8932,0.5849,-8.9803,-3.1420,-2.2559,-0.1061,0.4427,0.3815,
5.791779,-0.9922,-1.0032,0.4762,-8.9803,-3.1420,-2.2559,-0.1061,0.4427,0.3815,
5.793750,-1.0791,-1.0056,0.4410,-8.9803,-3.1420,-2.2559,-0.1061,0.4427,0.3815,
5.797768,-1.0791,-1.0056,0.4410,-8.9803,-3.1420,-2.2559,0.1676,0.2387,0.1347,
5.800171,-1.0791,-1.0056,0.4410,-10.9713,-4.7777,-4.0592,0.1676,0.2387,0.1347,
5.846127,-0.9110,-0.8439,0.4512,-10.9713,-4.7777,-4.0592,0.1676,0.2387,0.1347,
5.849429,-0.7479,-0.7647,0.4114,-10.9713,-4.7777,-4.0592,0.1676,0.2387,0.1347,
5.852094,-0.6882,-0.6934,0.3259,-10.9713,-4.7777,-4.0592,0.1676,0.2387,0.1347,
5.858048,-0.6882,-0.6934,0.3259,-10.9713,-4.7777,-4.0592,0.5256,0.6083,0.0192,
5.862149,-0.6882,-0.6934,0.3259,-6.8856,-1.9053,-5.3056,0.5256,0.6083,0.0192,
5.906409,-0.6479,-0.6379,0.2402,-6.8856,-1.9053,-5.3056,0.5256,0.6083,0.0192,
5.908764,-0.5993,-0.6130,0.1798,-6.8856,-1.9053,-5.3056,0.5256,0.6083,0.0192,
5.910444,-0.5465,-0.6233,0.1683,-6.8856,-1.9053,-5.3056,0.5256,0.6083,0.0192,
5.919437,-0.5465,-0.6233,0.1683,-6.8856,-1.9053,-5.3056,-0.0169,0.1947,-0.1628,
5.922631,-0.5465,-0.6233,0.1683,-5.2319,-1.3451,-6.9219,-0.0169,0.1947,-0.1628,
5.966639,-0.5380,-0.6093,0.2365,-5.2319,-1.3451,-6.9219,-0.0169,0.1947,-0.1628,
5.971319,-0.5443,-0.5331,0.2951,-5.2319,-1.3451,-6.9219,-0.0169,0.1947,-0.1628,
5.973482,-0.5358,-0.4554,0.3169,-5.2319,-1.3451,-6.9219,-0.0169,0.1947,-0.1628,
5.978588,-0.5358,-0.4554,0.3169,-5.0571,0.2792,-5.4765,-0.0169,0.1947,-0.1628,
5.982389,-0.5358,-0.4554,0.3169,-5.0571,0.2792,-5.4765,0.3191,0.1416,-0.2062,
6.025874,-0.4854,-0.4102,0.2988,-5.0571,0.2792,-5.4765,0.3191,0.1416,-0.2062,
6.029449,-0.4314,-0.4192,0.3000,-5.0571,0.2792,-5.4765,0.3191,0.1416,-0.2062,
6.032772,-0.4427,-0.4718,0.3073,-5.0571,0.2792,-5.4765,0.3191,0.1416,-0.2062,
6.050340,-0.4427,-0.4718,0.3073,-4.0580,-0.0251,-5.6454,0.3191,0.1416,-0.2062,
6.055695,-0.4427,-0.4718,0.3073,-4.0580,-0.0251,-5.6454,0.2598,0.1629,-0.3326,
6.087973,-0.4527,-0.4500,0.3264,-4.0580,-0.0251,-5.6454,0.2598,0.1629,-0.3326,
6.089763,-0.4798,-0.4231,0.3442,-4.0580,-0.0251,-5.6454,0.2598,0.1629,-0.3326,
6.090812,-0.4937,-0.4446,0.3193,-4.0580,-0.0251,-5.6454,0.2598,0.1629,-0.3326,
6.107655,-0.4937,-0.4446,0.3193,-4.0580,-0.0251,-5.6454,0.4889,0.1171,-0.4078,
6.109450,-0.4937,-0.4446,0.3193,-4.5767,0.0614,-5.6215,0.4889,0.1171,-0.4078,
6.145999,-0.5075,-0.5470,0.3027,-4.5767,0.0614,-5.6215,0.4889,0.1171,-0.4078,
6.147470,-0.5368,-0.6142,0.3313,-4.5767,0.0614,-5.6215,0.4889,0.1171,-0.4078,
6.148386,-0.5976,-0.5922,0.4016,-4.5767,0.0614,-5.6215,0.4889,0.1171,-0.4078,
6.157732,-0.5976,-0.5922,0.4016,-4.5767,0.0614,-5.6215,0.1041,0.0915,-0.2728,
6.159039,-0.5976,-0.5922,0.4016,-5.5703,-1.5109,-4.8764,0.1041,0.0915,-0.2728,
6.205274,-0.6753,-0.5360,0.4529,-5.5703,-1.5109,-4.8764,0.1041,0.0915,-0.2728,
6.207655,-0.7623,-0.4999,0.4319,-5.5703,-1.5109,-4.8764,0.1041,0.0915,-0.2728,
6.209503,-0.7664,-0.4529,0.4417,-5.5703,-1.5109,-4.8764,0.1041,0.0915,-0.2728,
6.218597,-0.7664,-0.4529,0.4417,-7.1845,-0.2426,-4.5288,0.1041,0.0915,-0.2728,
6.222540,-0.7664,-0.4529,0.4417,-7.1845,-0.2426,-4.5288,0.3289,0.0945,-0.0571,
6.265417,-0.6897,-0.4647,0.4840,-7.1845,-0.2426,-4.5288,0.3289,0.0945,-0.0571,
6.270664,-0.6760,-0.5055,0.5011,-7.1845,-0.2426,-4.5288,0.3289,0.0945,-0.0571,
6.274882,-0.6919,-0.5536,0.4429,-7.1845,-0.2426,-4.5288,0.3289,0.0945,-0.0571,
6.278489,-0.6919,-0.5536,0.4429,-6.4258,-1.3685,-4.5803,0.3289,0.0945,-0.0571,
6.279555,-0.6919,-0.5536,0.4429,-6.4258,-1.3685,-4.5803,0.3906,-0.1645,0.0535,
6.325073,-0.6946,-0.6448,0.3694,-6.4258,-1.3685,-4.5803,0.3906,-0.1645,0.0535,
6.327254,-0.7381,-0.8050,0.2858,-6.4258,-1.3685,-4.5803,0.3906,-0.1645,0.0535,
6.328601,-0.7439,-0.9404,0.2797,-6.4258,-1.3685,-4.5803,0.3906,-0.1645,0.0535,
6.337723,-0.7439,-0.9404,0.2797,-6.4258,-1.3685,-4.5803,0.1084,-0.6727,-0.0076,
6.339593,-0.7439,-0.9404,0.2797,-7.0161,-5.3132,-6.2512,0.1084,-0.6727,-0.0076,
6.385161,-0.7100,-0.9655,0.3476,-7.0161,-5.3132,-6.2512,0.1084,-0.6727,-0.0076,
6.387728,-0.6726,-0.9545,0.3809,-7.0161,-5.3132,-6.2512,0.1084,-0.6727,-0.0076,
6.389396,-0.6897,-1.0733,0.4642,-7.0161,-5.3132,-6.2512,0.1084,-0.6727,-0.0076,
6.399177,-0.6897,-1.0733,0.4642,-7.0401,-6.6312,-4.4501,0.1084,-0.6727,-0.0076,
6.401745,-0.6897,-1.0733,0.4642,-7.0401,-6.6312,-4.4501,0.0650,-0.9018,-0.3601,
6.446806,-0.6970,-1.1964,0.5932,-7.0401,-6.6312,-4.4501,0.0650,-0.9018,-0.3601,
6.450459,-0.6721,-1.1991,0.6858,-7.0401,-6.6312,-4.4501,0.0650,-0.9018,-0.3601,
6.452391,-0.6924,-1.1610,0.9025,-7.0401,-6.6312,-4.4501,0.0650,-0.9018,-0.3601,
6.457411,-0.6924,-1.1610,0.9025,-7.0401,-6.6312,-4.4501,0.1517,-1.3013,-0.3369,
6.460477,-0.6924,-1.1610,0.9025,-7.6086,-7.4789,-0.1162,0.1517,-1.3013,-0.3369,
6.506022,-0.6399,-1.0425,0.8417,-7.6086,-7.4789,-0.1162,0.1517,-1.3013,-0.3369,
6.509348,-0.5553,-0.9665,0.7628,-7.6086,-7.4789,-0.1162,0.1517,-1.3013,-0.3369,
6.511060,-0.5167,-0.8693,0.6118,-7.6086,-7.4789,-0.1162,0.1517,-1.3013,-0.3369,
6.519883,-0.5167,-0.8693,0.6118,-6.4320,-4.7701,-2.9626,0.1517,-1.3013,-0.3369,
6.522949,-0.5167,-0.8693,0.6118,-6.4320,-4.7701,-2.9626,0.1493,-0.6904,-0.2214,
6.566086,-0.5238,-0.7764,0.4542,-6.4320,-4.7701,-2.9626,0.1493,-0.6904,-0.2214,
6.569436,-0.5109,-0.6987,0.3665,-6.4320,-4.7701,-2.9626,0.1493,-0.6904,-0.2214,
6.572105,-0.4036,-0.6088,0.3227,-6.4320,-4.7701,-2.9626,0.1493,-0.6904,-0.2214,
6.577460,-0.4036,-0.6088,0.3227,-6.4320,-4.7701,-2.9626,-0.6064,-0.5707,-0.1127,
6.580502,-0.4036,-0.6088,0.3227,-5.6931,-2.0869,-5.6745,-0.6064,-0.5707,-0.1127,
6.625910,-0.3025,-0.5627,0.3213,-5.6931,-2.0869,-5.6745,-0.6064,-0.5707,-0.1127,
6.629322,-0.2206,-0.5463,0.3491,-5.6931,-2.0869,-5.6745,-0.6064,-0.5707,-0.1127,
6.631870,-0.1666,-0.5439,0.3775,-5.6931,-2.0869,-5.6745,-0.6064,-0.5707,-0.1127,
6.637895,-0.1666,-0.5439,0.3775,-3.4756,-1.0828,-4.9461,-0.6064,-0.5707,-0.1127,
6.640769,-0.1666,-0.5439,0.3775,-3.4756,-1.0828,-4.9461,-0.5025,0.1807,-0.0021,
6.686020,-0.1371,-0.5404,0.3843,-3.4756,-1.0828,-4.9461,-0.5025,0.1807,-0.0021,
6.689246,-0.1566,-0.5368,0.3797,-3.4756,-1.0828,-4.9461,-0.5025,0.1807,-0.0021,
6.691308,-0.2008,-0.5280,0.3489,-3.4756,-1.0828,-4.9461,-0.5025,0.1807,-0.0021,
6.697774,-0.2008,-0.5280,0.3489,-3.4756,-1.0828,-4.9461,0.0509,0.7298,0.2874,
6.700270,-0.2008,-0.5280,0.3489,-3.5328,-0.7699,-5.2022,0.0509,0.7298,0.2874,
6.746504,-0.2533,-0.5057,0.3454,-3.5328,-0.7699,-5.2022,0.0509,0.7298,0.2874,
6.749693,-0.2741,-0.5079,0.4722,-3.5328,-0.7699,-5.2022,0.0509,0.7298,0.2874,
6.751946,-0.2817,-0.6003,0.4908,-3.5328,-0.7699,-5.2022,0.0509,0.7298,0.2874,
6.757821,-0.2817,-0.6003,0.4908,-3.6439,-1.4742,-3.9052,0.0509,0.7298,0.2874,
6.762057,-0.2817,-0.6003,0.4908,-3.6439,-1.4742,-3.9052,0.1487,1.3602,0.5171,
6.805297,-0.3420,-0.6922,0.4713,-3.6439,-1.4742,-3.9052,0.1487,1.3602,0.5171,
6.808165,-0.4107,-0.7061,0.4398,-3.6439,-1.4742,-3.9052,0.1487,1.3602,0.5171,
6.810946,-0.4437,-0.6379,0.4339,-3.6439,-1.4742,-3.9052,0.1487,1.3602,0.5171,
6.818183,-0.4437,-0.6379,0.4339,-3.6439,-1.4742,-3.9052,0.4113,1.0915,0.1915,
6.821352,-0.4437,-0.6379,0.4339,-4.5063,-1.9788,-4.5734,0.4113,1.0915,0.1915,
6.866119,-0.4517,-0.6042,0.4674,-4.5063,-1.9788,-4.5734,0.4113,1.0915,0.1915,
6.868898,-0.4451,-0.6487,0.4664,-4.5063,-1.9788,-4.5734,0.4113,1.0915,0.1915,
6.871102,-0.4459,-0.7058,0.5099,-4.5063,-1.9788,-4.5734,0.4113,1.0915,0.1915,
6.878243,-0.4459,-0.7058,0.5099,-4.5063,-1.9788,-4.5734,0.2562,0.8575,0.0394,
6.882280,-0.4459,-0.7058,0.5099,-3.9120,-2.7839,-3.8843,0.2562,0.8575,0.0394,
6.927749,-0.4297,-0.7444,0.5619,-3.9120,-2.7839,-3.8843,0.2562,0.8575,0.0394,
6.931489,-0.4048,-0.7119,0.5937,-3.9120,-2.7839,-3.8843,0.2562,0.8575,0.0394,
6.932893,-0.3860,-0.6223,0.5837,-3.9120,-2.7839,-3.8843,0.2562,0.8575,0.0394,
6.938287,-0.3860,-0.6223,0.5837,-3.9120,-2.7839,-3.8843,0.4388,0.5270,-0.1274,
6.940876,-0.3860,-0.6223,0.5837,-2.9371,-2.1271,-3.2066,0.4388,0.5270,-0.1274,
6.985428,-0.3586,-0.5329,0.5788,-2.9371,-2.1271,-3.2066,0.4388,0.5270,-0.1274,
6.987644,-0.3855,-0.6030,0.5524,-2.9371,-2.1271,-3.2066,0.4388,0.5270,-0.1274,
6.988982,-0.4725,-0.6653,0.5805,-2.9371,-2.1271,-3.2066,0.4388,0.5270,-0.1274,
6.997043,-0.4725,-0.6653,0.5805,-2.9371,-2.1271,-3.2066,0.3014,0.0017,-0.1353,
6.998967,-0.4725,-0.6653,0.5805,-3.5822,-2.7101,-3.2865,0.3014,0.0017,-0.1353,
7.045153,-0.5453,-0.8600,0.4251,-3.5822,-2.7101,-3.2865,0.3014,0.0017,-0.1353,
7.047611,-0.6736,-1.0786,0.4258,-3.5822,-2.7101,-3.2865,0.3014,0.0017,-0.1353,
7.049224,-0.8143,-1.0877,0.4048,-3.5822,-2.7101,-3.2865,0.3014,0.0017,-0.1353,
7.058294,-0.8143,-1.0877,0.4048,-3.5822,-2.7101,-3.2865,-0.0047,-0.1309,-0.3693,
7.061186,-0.8143,-1.0877,0.4048,-6.9226,-6.8444,-5.0049,-0.0047,-0.1309,-0.3693,
7.106086,-0.8756,-0.9521,0.4016,-6.9226,-6.8444,-5.0049,-0.0047,-0.1309,-0.3693,
7.109351,-0.9071,-0.8387,0.2709,-6.9226,-6.8444,-5.0049,-0.0047,-0.1309,-0.3693,
7.111617,-0.9084,-0.8312,0.2387,-6.9226,-6.8444,-5.0049,-0.0047,-0.1309,-0.3693,
7.118314,-0.9084,-0.8312,0.2387,-6.9226,-6.8444,-5.0049,0.3167,0.6070,-0.2550,
7.121336,-0.9084,-0.8312,0.2387,-7.8469,-4.4104,-6.6668,0.3167,0.6070,-0.2550,
7.167790,-0.9282,-0.9286,0.2311,-7.8469,-4.4104,-6.6668,0.3167,0.6070,-0.2550,
7.171702,-0.9238,-1.0855,0.2792,-7.8469,-4.4104,-6.6668,0.3167,0.6070,-0.2550,
7.174097,-0.9252,-1.1959,0.4046,-7.8469,-4.4104,-6.6668,0.3167,0.6070,-0.2550,
7.178950,-0.9252,-1.1959,0.4046,-7.5893,-7.9533,-4.9682,0.3167,0.6070,-0.2550,
7.182324,-0.9252,-1.1959,0.4046,-7.5893,-7.9533,-4.9682,-0.3021,1.2711,-0.2782,
7.226017,-0.8497,-1.0447,0.5001,-7.5893,-7.9533,-4.9682,-0.3021,1.2711,-0.2782,
7.229550,-0.7425,-0.8744,0.4854,-7.5893,-7.9533,-4.9682,-0.3021,1.2711,-0.2782,
7.231689,-0.7672,-0.8583,0.3469,-7.5893,-7.9533,-4.9682,-0.3021,1.2711,-0.2782,
7.240092,-0.7672,-0.8583,0.3469,-5.4092,-4.7751,-5.4604,-0.3021,1.2711,-0.2782,
7.244481,-0.7672,-0.8583,0.3469,-5.4092,-4.7751,-5.4604,1.3936,1.0353,-0.1817,
7.286142,-0.7432,-0.8092,0.2006,-5.4092,-4.7751,-5.4604,1.3936,1.0353,-0.1817,
7.289682,-0.6360,-0.7202,0.1820,-5.4092,-4.7751,-5.4604,1.3936,1.0353,-0.1817,
7.291993,-0.5969,-0.6186,0.1041,-5.4092,-4.7751,-5.4604,1.3936,1.0353,-0.1817,
7.297790,-0.5969,-0.6186,0.1041,-3.1443,-2.9602,-7.8811,1.3936,1.0353,-0.1817,
7.300330,-0.5969,-0.6186,0.1041,-3.1443,-2.9602,-7.8811,0.4364,0.9021,-0.3326,
7.346029,-0.6362,-0.5707,0.0669,-3.1443,-2.9602,-7.8811,0.4364,0.9021,-0.3326,
7.349155,-0.6535,-0.5206,0.1681,-3.1443,-2.9602,-7.8811,0.4364,0.9021,-0.3326,
7.351624,-0.6601,-0.4884,0.2345,-3.1443,-2.9602,-7.8811,0.4364,0.9021,-0.3326,
7.358147,-0.6601,-0.4884,0.2345,-3.4684,-1.7273,-6.5225,0.4364,0.9021,-0.3326,
7.361227,-0.6601,-0.4884,0.2345,-3.4684,-1.7273,-6.5225,0.1358,0.7628,-0.3131,
7.405752,-0.6225,-0.4613,0.3020,-3.4684,-1.7273,-6.5225,0.1358,0.7628,-0.3131,
7.408922,-0.5964,-0.5045,0.3838,-3.4684,-1.7273,-6.5225,0.1358,0.7628,-0.3131,
7.410438,-0.5680,-0.5744,0.3985,-3.4684,-1.7273,-6.5225,0.1358,0.7628,-0.3131,
7.418180,-0.5680,-0.5744,0.3985,-2.0415,-2.5978,-4.7295,0.1358,0.7628,-0.3131,
7.421423,-0.5680,-0.5744,0.3985,-2.0415,-2.5978,-4.7295,0.3503,1.2930,-0.4841,
7.465836,-0.5324,-0.6123,0.3872,-2.0415,-2.5978,-4.7295,0.3503,1.2930,-0.4841,
7.469662,-0.5676,-0.6404,0.3555,-2.0415,-2.5978,-4.7295,0.3503,1.2930,-0.4841,
7.472368,-0.6411,-0.6411,0.3127,-2.0415,-2.5978,-4.7295,0.3503,1.2930,-0.4841,
7.478377,-0.6411,-0.6411,0.3127,-2.2809,-3.3011,-5.3774,0.3503,1.2930,-0.4841,
7.482121,-0.6411,-0.6411,0.3127,-2.2809,-3.3011,-5.3774,0.4510,0.9259,-0.5886,
7.526325,-0.6914,-0.6496,0.3029,-2.2809,-3.3011,-5.3774,0.4510,0.9259,-0.5886,
7.530181,-0.7168,-0.6729,0.3117,-2.2809,-3.3011,-5.3774,0.4510,0.9259,-0.5886,
7.532647,-0.7840,-0.6755,0.3152,-2.2809,-3.3011,-5.3774,0.4510,0.9259,-0.5886,
7.537390,-0.7840,-0.6755,0.3152,-2.2809,-3.3011,-5.3774,0.4602,0.9058,-0.5806,
7.540656,-0.7840,-0.6755,0.3152,-3.2610,-3.6793,-5.1556,0.4602,0.9058,-0.5806,
7.585693,-0.8544,-0.6408,0.3108,-3.2610,-3.6793,-5.1556,0.4602,0.9058,-0.5806,
7.589483,-0.8724,-0.6313,0.2897,-3.2610,-3.6793,-5.1556,0.4602,0.9058,-0.5806,
7.592825,-0.8243,-0.6645,0.2602,-3.2610,-3.6793,-5.1556,0.4602,0.9058,-0.5806,
7.600428,-0.8243,-0.6645,0.2602,-3.3074,-3.6432,-5.5233,0.4602,0.9058,-0.5806,
7.602364,-0.8243,-0.6645,0.2602,-3.3074,-3.6432,-5.5233,0.4260,0.6749,-0.5434,
7.645431,-0.7923,-0.7740,0.2362,-3.3074,-3.6432,-5.5233,0.4260,0.6749,-0.5434,
7.648053,-0.7669,-0.9401,0.1891,-3.3074,-3.6432,-5.5233,0.4260,0.6749,-0.5434,
7.649447,-0.6973,-0.9944,0.1652,-3.3074,-3.6432,-5.5233,0.4260,0.6749,-0.5434,
7.657498,-0.6973,-0.9944,0.1652,-3.3074,-3.6432,-5.5233,0.5384,0.8312,-0.6203,
7.660392,-0.6973,-0.9944,0.1652,-1.7971,-6.8850,-6.2953,0.5384,0.8312,-0.6203,
7.707266,-0.6384,-0.9052,0.1776,-1.7971,-6.8850,-6.2953,0.5384,0.8312,-0.6203,
7.709793,-0.5463,-0.8111,0.2250,-1.7971,-6.8850,-6.2953,0.5384,0.8312,-0.6203,
7.711259,-0.4832,-0.7945,0.2277,-1.7971,-6.8850,-6.2953,0.5384,0.8312,-0.6203,
7.717468,-0.4832,-0.7945,0.2277,-1.7971,-6.8850,-6.2953,1.2458,0.2485,-0.6539,
7.719907,-0.4832,-0.7945,0.2277,0.4889,-5.1357,-5.6329,1.2458,0.2485,-0.6539,
7.765500,-0.4322,-0.8048,0.1881,0.4889,-5.1357,-5.6329,1.2458,0.2485,-0.6539,
7.767143,-0.4031,-0.7906,0.1791,0.4889,-5.1357,-5.6329,1.2458,0.2485,-0.6539,
7.767987,-0.4090,-0.7557,0.2226,0.4889,-5.1357,-5.6329,1.2458,0.2485,-0.6539,
7.778032,-0.4090,-0.7557,0.2226,0.4889,-5.1357,-5.6329,1.1309,0.2552,-0.9887,
7.779602,-0.4090,-0.7557,0.2226,1.1621,-4.9962,-5.7961,1.1309,0.2552,-0.9887,
7.825974,-0.4302,-0.7615,0.2966,1.1621,-4.9962,-5.7961,1.1309,0.2552,-0.9887,
7.828524,-0.4903,-0.8060,0.3303,1.1621,-4.9962,-5.7961,1.1309,0.2552,-0.9887,
7.830371,-0.5448,-0.8734,0.3064,1.1621,-4.9962,-5.7961,1.1309,0.2552,-0.9887,
7.837614,-0.5448,-0.8734,0.3064,1.1621,-4.9962,-5.7961,0.7626,1.1000,-0.5568,
7.840059,-0.5448,-0.8734,0.3064,0.0885,-6.3535,-4.8616,0.7626,1.1000,-0.5568,
7.886535,-0.6118,-0.9115,0.3095,0.0885,-6.3535,-4.8616,0.7626,1.1000,-0.5568,
7.889699,-0.5952,-0.8949,0.3428,0.0885,-6.3535,-4.8616,0.7626,1.1000,-0.5568,
7.891954,-0.4996,-0.8018,0.3916,0.0885,-6.3535,-4.8616,0.7626,1.1000,-0.5568,
7.898725,-0.4996,-0.8018,0.3916,0.8340,-5.7312,-3.8308,0.7626,1.1000,-0.5568,
7.902543,-0.4996,-0.8018,0.3916,0.8340,-5.7312,-3.8308,0.7504,0.4794,-0.5409,
7.945949,-0.4393,-0.7825,0.3799,0.8340,-5.7312,-3.8308,0.7504,0.4794,-0.5409,
7.949324,-0.4134,-0.7930,0.3269,0.8340,-5.7312,-3.8308,0.7504,0.4794,-0.5409,
7.951606,-0.4029,-0.7906,0.2807,0.8340,-5.7312,-3.8308,0.7504,0.4794,-0.5409,
7.959898,-0.4029,-0.7906,0.2807,0.8340,-5.7312,-3.8308,0.5482,0.3639,-0.4365,
7.962726,-0.4029,-0.7906,0.2807,1.9332,-5.7648,-4.8417,0.5482,0.3639,-0.4365,
8.005815,-0.3958,-0.7940,0.2766,1.9332,-5.7648,-4.8417,0.5482,0.3639,-0.4365,
8.008803,-0.3948,-0.7847,0.3242,1.9332,-5.7648,-4.8417,0.5482,0.3639,-0.4365,
8.011092,-0.4080,-0.7703,0.4385,1.9332,-5.7648,-4.8417,0.5482,0.3639,-0.4365,
8.018224,-0.4080,-0.7703,0.4385,2.0047,-5.5206,-3.1870,0.5482,0.3639,-0.4365,
8.020902,-0.4080,-0.7703,0.4385,2.0047,-5.5206,-3.1870,0.4138,0.5118,-0.6234,
8.066112,-0.4400,-0.8251,0.3862,2.0047,-5.5206,-3.1870,0.4138,0.5118,-0.6234,
8.069430,-0.4026,-0.8641,0.4747,2.0047,-5.5206,-3.1870,0.4138,0.5118,-0.6234,
8.071901,-0.4068,-0.8485,0.4146,2.0047,-5.5206,-3.1870,0.4138,0.5118,-0.6234,
8.078209,-0.4068,-0.8485,0.4146,2.0047,-5.5206,-3.1870,0.5054,0.6058,-0.4114,
8.082693,-0.4068,-0.8485,0.4146,2.2062,-6.2340,-3.2508,0.5054,0.6058,-0.4114,
8.126184,-0.4217,-0.7559,0.4016,2.2062,-6.2340,-3.2508,0.5054,0.6058,-0.4114,
8.129915,-0.4696,-0.7659,0.3872,2.2062,-6.2340,-3.2508,0.5054,0.6058,-0.4114,
8.133869,-0.5172,-0.8111,0.3735,2.2062,-6.2340,-3.2508,0.5054,0.6058,-0.4114,
8.138250,-0.5172,-0.8111,0.3735,2.2062,-6.2340,-3.2508,0.3588,0.5625,-0.2856,
8.140753,-0.5172,-0.8111,0.3735,1.3719,-5.8853,-3.4406,0.3588,0.5625,-0.2856,
8.187234,-0.5050,-0.7982,0.4158,1.3719,-5.8853,-3.4406,0.3588,0.5625,-0.2856,
8.190853,-0.4896,-0.7850,0.4063,1.3719,-5.8853,-3.4406,0.3588,0.5625,-0.2856,
8.192931,-0.4681,-0.7962,0.3687,1.3719,-5.8853,-3.4406,0.3588,0.5625,-0.2856,
8.198362,-0.4681,-0.7962,0.3687,1.9960,-5.7278,-3.3531,0.3588,0.5625,-0.2856,
8.203510,-0.4681,-0.7962,0.3687,1.9960,-5.7278,-3.3531,0.0485,0.0206,-0.2251,
8.245899,-0.4346,-0.8038,0.3819,1.9960,-5.7278,-3.3531,0.0485,0.0206,-0.2251,
8.248968,-0.4302,-0.7996,0.4727,1.9960,-5.7278,-3.3531,0.0485,0.0206,-0.2251,
8.250771,-0.4402,-0.7813,0.4652,1.9960,-5.7278,-3.3531,0.0485,0.0206,-0.2251,
8.257543,-0.4402,-0.7813,0.4652,2.2717,-5.5407,-2.3924,0.0485,0.0206,-0.2251,
8.259990,-0.4402,-0.7813,0.4652,2.2717,-5.5407,-2.3924,0.3026,0.1746,-0.0382,
8.305494,-0.4422,-0.7718,0.4136,2.2717,-5.5407,-2.3924,0.3026,0.1746,-0.0382,
8.309446,-0.4131,-0.7843,0.4014,2.2717,-5.5407,-2.3924,0.3026,0.1746,-0.0382,
8.310984,-0.4063,-0.7906,0.4226,2.2717,-5.5407,-2.3924,0.3026,0.1746,-0.0382,
8.318172,-0.4063,-0.7906,0.4226,2.2717,-5.5407,-2.3924,0.1994,0.1520,-0.1439,
8.321820,-0.4063,-0.7906,0.4226,2.6573,-5.6687,-2.7698,0.1994,0.1520,-0.1439,
8.365187,-0.4334,-0.7857,0.3938,2.6573,-5.6687,-2.7698,0.1994,0.1520,-0.1439,
8.368226,-0.4388,-0.7843,0.4295,2.6573,-5.6687,-2.7698,0.1994,0.1520,-0.1439,
8.370408,-0.4652,-0.7862,0.4036,2.6573,-5.6687,-2.7698,0.1994,0.1520,-0.1439,
8.378461,-0.4652,-0.7862,0.4036,2.6573,-5.6687,-2.7698,0.1016,0.1532,-0.1542,
8.379659,-0.4652,-0.7862,0.4036,2.1245,-5.5885,-2.9025,0.1016,0.1532,-0.1542,
8.425078,-0.4744,-0.7896,0.4021,2.1245,-5.5885,-2.9025,0.1016,0.1532,-0.1542,
8.427368,-0.4681,-0.7813,0.4209,2.1245,-5.5885,-2.9025,0.1016,0.1532,-0.1542,
8.428452,-0.4588,-0.7779,0.4065,2.1245,-5.5885,-2.9025,0.1016,0.1532,-0.1542,
8.437784,-0.4588,-0.7779,0.4065,2.2228,-5.4567,-2.8226,0.1016,0.1532,-0.1542,
8.439651,-0.4588,-0.7779,0.4065,2.2228,-5.4567,-2.8226,0.0778,0.0835,-0.0968,
8.486922,-0.4478,-0.7725,0.4202,2.2228,-5.4567,-2.8226,0.0778,0.0835,-0.0968,
8.491713,-0.4410,-0.7745,0.4219,2.2228,-5.4567,-2.8226,0.0778,0.0835,-0.0968,
8.494999,-0.4380,-0.7794,0.4131,2.2228,-5.4567,-2.8226,0.0778,0.0835,-0.0968,
8.497996,-0.4380,-0.7794,0.4131,2.4594,-5.4254,-2.7104,0.0778,0.0835,-0.0968,
8.500381,-0.4380,-0.7794,0.4131,2.4594,-5.4254,-2.7104,0.0595,0.1312,-0.1035,
8.545884,-0.4473,-0.7816,0.4104,2.4594,-5.4254,-2.7104,0.0595,0.1312,-0.1035,
8.548961,-0.4437,-0.7779,0.4134,2.4594,-5.4254,-2.7104,0.0595,0.1312,-0.1035,
8.550869,-0.4522,-0.7769,0.4226,2.4594,-5.4254,-2.7104,0.0595,0.1312,-0.1035,
8.557350,-0.4522,-0.7769,0.4226,2.4594,-5.4254,-2.7104,-0.0059,0.1257,-0.0828,
8.559533,-0.4522,-0.7769,0.4226,2.3540,-5.3393,-2.5626,-0.0059,0.1257,-0.0828,
8.605230,-0.4762,-0.7823,0.4236,2.3540,-5.3393,-2.5626,-0.0059,0.1257,-0.0828,
8.608197,-0.4849,-0.7835,0.4270,2.3540,-5.3393,-2.5626,-0.0059,0.1257,-0.0828,
8.610534,-0.4725,-0.7811,0.4285,2.3540,-5.3393,-2.5626,-0.0059,0.1257,-0.0828,
8.617988,-0.4725,-0.7811,0.4285,2.3540,-5.3393,-2.5626,0.0528,0.1006,-0.0217,
8.620482,-0.4725,-0.7811,0.4285,2.1778,-5.3230,-2.4626,0.0528,0.1006,-0.0217,
8.666538,-0.4747,-0.7852,0.4420,2.1778,-5.3230,-2.4626,0.0528,0.1006,-0.0217,
8.667377,-0.4708,-0.7908,0.3530,2.1778,-5.3230,-2.4626,0.0528,0.1006,-0.0217,
8.667830,-0.4725,-0.7845,0.3618,2.1778,-5.3230,-2.4626,0.0528,0.1006,-0.0217,
8.677202,-0.4725,-0.7845,0.3618,2.1778,-5.3230,-2.4626,-0.1745,-0.1382,-0.0089,
8.677867,-0.4725,-0.7845,0.3618,2.2198,-5.3420,-3.0679,-0.1745,-0.1382,-0.0089,
