
time,gFx,gFy,gFz,ax,ay,az,wx,wy,wz,
0.105814,0.0000,0.0000,0.0000,-0.2365,0.3232,-0.0907,0.0000,0.0000,0.0000,
0.166133,0.0000,0.0000,0.0000,-0.1394,0.4025,-0.1214,0.0000,0.0000,0.0000,
0.225654,0.0000,0.0000,0.0000,0.0324,0.4935,-0.1402,0.0000,0.0000,0.0000,
0.286262,0.0000,0.0000,0.0000,0.0324,0.4935,-0.1402,-0.0584,0.1636,0.0742,
0.287333,0.0000,0.0000,0.0000,0.1635,0.5445,-0.1401,-0.0584,0.1636,0.0742,
0.346898,0.0000,0.0000,0.0000,0.1635,0.5445,-0.1401,-0.3559,0.1581,0.0767,
0.347615,0.0000,0.0000,0.0000,0.2406,0.6841,-0.2053,-0.3559,0.1581,0.0767,
0.406077,0.0000,0.0000,0.0000,0.2406,0.6841,-0.2053,-0.1800,0.2857,0.2111,
0.407084,0.0000,0.0000,0.0000,0.3638,0.8913,-0.2932,-0.1800,0.2857,0.2111,
0.434168,-0.6228,-0.5805,0.4693,0.3638,0.8913,-0.2932,-0.1800,0.2857,0.2111,
0.467098,-0.6228,-0.5805,0.4693,0.3638,0.8913,-0.2932,0.0778,0.4128,0.1854,
0.467854,-0.6228,-0.5805,0.4693,-3.6949,-10.3563,-3.6824,0.0778,0.4128,0.1854,
0.492514,-0.5790,-0.6103,0.4559,-3.6949,-10.3563,-3.6824,0.0778,0.4128,0.1854,
0.493296,-0.5976,-0.6299,0.4493,-3.6949,-10.3563,-3.6824,0.0778,0.4128,0.1854,
0.493780,-0.6003,-0.6338,0.4376,-3.6949,-10.3563,-3.6824,0.0778,0.4128,0.1854,
0.525447,-0.6003,-0.6338,0.4376,-3.6949,-10.3563,-3.6824,0.0680,0.2631,0.0718,
0.526264,-0.6003,-0.6338,0.4376,-3.2895,-10.8688,-3.9429,0.0680,0.2631,0.0718,
0.552598,-0.5952,-0.6140,0.4544,-3.2895,-10.8688,-3.9429,0.0680,0.2631,0.0718,
0.553424,-0.5964,-0.5707,0.4615,-3.2895,-10.8688,-3.9429,0.0680,0.2631,0.0718,
0.553926,-0.5925,-0.5698,0.4627,-3.2895,-10.8688,-3.9429,0.0680,0.2631,0.0718,
0.584769,-0.5925,-0.5698,0.4627,-3.2895,-10.8688,-3.9429,0.1407,0.3914,0.0406,
0.585826,-0.5925,-0.5698,0.4627,-3.0356,-10.2569,-3.6296,0.1407,0.3914,0.0406,
0.614751,-0.5800,-0.5781,0.4180,-3.0356,-10.2569,-3.6296,0.1407,0.3914,0.0406,
0.615677,-0.5360,-0.5492,0.3909,-3.0356,-10.2569,-3.6296,0.1407,0.3914,0.0406,
0.616270,-0.4945,-0.5001,0.3870,-3.0356,-10.2569,-3.6296,0.1407,0.3914,0.0406,
0.646127,-0.4945,-0.5001,0.3870,-3.0356,-10.2569,-3.6296,0.1749,0.2870,-0.0260,
0.647309,-0.4945,-0.5001,0.3870,-1.8448,-9.5908,-4.2805,0.1749,0.2870,-0.0260,
0.672818,-0.4615,-0.4825,0.3384,-1.8448,-9.5908,-4.2805,0.1749,0.2870,-0.0260,
0.673741,-0.4798,-0.5336,0.2558,-1.8448,-9.5908,-4.2805,0.1749,0.2870,-0.0260,
0.674301,-0.5150,-0.6071,0.1781,-1.8448,-9.5908,-4.2805,0.1749,0.2870,-0.0260,
0.705459,-0.5150,-0.6071,0.1781,-1.8448,-9.5908,-4.2805,0.1279,-0.2286,-0.7175,
0.707807,-0.5150,-0.6071,0.1781,-1.9608,-10.6221,-6.3054,0.1279,-0.2286,-0.7175,
0.736950,-0.6655,-0.7093,0.1600,-1.9608,-10.6221,-6.3054,0.1279,-0.2286,-0.7175,
0.739265,-0.8478,-0.7207,0.1930,-1.9608,-10.6221,-6.3054,0.1279,-0.2286,-0.7175,
0.740434,-0.8776,-0.6961,0.1747,-1.9608,-10.6221,-6.3054,0.1279,-0.2286,-0.7175,
0.765059,-0.8776,-0.6961,0.1747,-1.9608,-10.6221,-6.3054,-0.4237,-0.1419,-0.3906,
0.766713,-0.8776,-0.6961,0.1747,-5.2795,-11.3018,-6.3547,-0.4237,-0.1419,-0.3906,
0.792359,-1.5245,-0.9282,0.0782,-5.2795,-11.3018,-6.3547,-0.4237,-0.1419,-0.3906,
0.793753,-1.3862,-1.1712,0.5187,-5.2795,-11.3018,-6.3547,-0.4237,-0.1419,-0.3906,
0.794802,-1.3098,-1.1930,0.5734,-5.2795,-11.3018,-6.3547,-0.4237,-0.1419,-0.3906,
0.824906,-1.3098,-1.1930,0.5734,-5.2795,-11.3018,-6.3547,-0.2496,-0.4559,0.2764,
0.826964,-1.3098,-1.1930,0.5734,-9.6347,-15.8692,-2.6551,-0.2496,-0.4559,0.2764,
0.854032,-1.1353,-0.9465,0.6501,-9.6347,-15.8692,-2.6551,-0.2496,-0.4559,0.2764,
0.855801,-0.8040,-0.7127,0.7119,-9.6347,-15.8692,-2.6551,-0.2496,-0.4559,0.2764,
0.856964,-0.7268,-0.6360,0.5057,-9.6347,-15.8692,-2.6551,-0.2496,-0.4559,0.2764,
0.885527,-0.7268,-0.6360,0.5057,-9.6347,-15.8692,-2.6551,0.6539,0.6492,0.0797,
0.887391,-0.7268,-0.6360,0.5057,-3.8127,-10.6298,-3.1600,0.6539,0.6492,0.0797,
0.913264,-0.7488,-0.5771,0.3020,-3.8127,-10.6298,-3.1600,0.6539,0.6492,0.0797,
0.914570,-0.7899,-0.5265,0.2489,-3.8127,-10.6298,-3.1600,0.6539,0.6492,0.0797,
0.915798,-0.8529,-0.4928,0.1285,-3.8127,-10.6298,-3.1600,0.6539,0.6492,0.0797,
0.944826,-0.8529,-0.4928,0.1285,-3.8127,-10.6298,-3.1600,-0.4310,-0.2115,-0.0266,
0.946543,-0.8529,-0.4928,0.1285,-4.8321,-9.2343,-6.7613,-0.4310,-0.2115,-0.0266,
0.973622,-0.7789,-0.4466,0.1600,-4.8321,-9.2343,-6.7613,-0.4310,-0.2115,-0.0266,
0.975238,-0.6570,-0.3941,0.2424,-4.8321,-9.2343,-6.7613,-0.4310,-0.2115,-0.0266,
0.976406,-0.5910,-0.4090,0.3142,-4.8321,-9.2343,-6.7613,-0.4310,-0.2115,-0.0266,
1.005023,-0.5910,-0.4090,0.3142,-4.8321,-9.2343,-6.7613,-0.3015,-0.4614,-0.1542,
1.006867,-0.5910,-0.4090,0.3142,-2.3563,-8.1083,-5.1402,-0.3015,-0.4614,-0.1542,
1.034785,-0.5468,-0.4503,0.3777,-2.3563,-8.1083,-5.1402,-0.3015,-0.4614,-0.1542,
1.036324,-0.4808,-0.4859,0.4427,-2.3563,-8.1083,-5.1402,-0.3015,-0.4614,-0.1542,
1.037694,-0.3968,-0.4942,0.4671,-2.3563,-8.1083,-5.1402,-0.3015,-0.4614,-0.1542,
1.065230,-0.3968,-0.4942,0.4671,-2.3563,-8.1083,-5.1402,0.2971,0.1691,-0.2789,
1.067424,-0.3968,-0.4942,0.4671,-0.4251,-8.8615,-3.6705,0.2971,0.1691,-0.2789,
1.092482,-0.3860,-0.5060,0.4478,-0.4251,-8.8615,-3.6705,0.2971,0.1691,-0.2789,
1.094045,-0.5043,-0.5018,0.3845,-0.4251,-8.8615,-3.6705,0.2971,0.1691,-0.2789,
1.095155,-0.5859,-0.4781,0.3196,-0.4251,-8.8615,-3.6705,0.2971,0.1691,-0.2789,
1.125079,-0.5859,-0.4781,0.3196,-0.4251,-8.8615,-3.6705,0.2916,-0.3337,-0.3442,
1.127550,-0.5859,-0.4781,0.3196,-2.2547,-8.7504,-5.0835,0.2916,-0.3337,-0.3442,
1.153484,-0.6342,-0.4500,0.2954,-2.2547,-8.7504,-5.0835,0.2916,-0.3337,-0.3442,
1.156355,-0.6452,-0.4109,0.3210,-2.2547,-8.7504,-5.0835,0.2916,-0.3337,-0.3442,
1.158611,-0.6489,-0.4065,0.3855,-2.2547,-8.7504,-5.0835,0.2916,-0.3337,-0.3442,
1.186078,-0.6489,-0.4065,0.3855,-2.2547,-8.7504,-5.0835,-0.0951,-0.5725,-0.0944,
1.188894,-0.6489,-0.4065,0.3855,-2.8981,-7.9747,-4.4842,-0.0951,-0.5725,-0.0944,
1.212806,-0.7317,-0.4393,0.4080,-2.8981,-7.9747,-4.4842,-0.0951,-0.5725,-0.0944,
1.214750,-0.7689,-0.4248,0.4503,-2.8981,-7.9747,-4.4842,-0.0951,-0.5725,-0.0944,
1.216205,-0.7332,-0.3784,0.4615,-2.8981,-7.9747,-4.4842,-0.0951,-0.5725,-0.0944,
1.247039,-0.7332,-0.3784,0.4615,-2.8981,-7.9747,-4.4842,0.0149,-0.4821,0.1078,
1.248833,-0.7332,-0.3784,0.4615,-3.8874,-7.6187,-3.8443,0.0149,-0.4821,0.1078,
1.272924,-0.7300,-0.3735,0.4175,-3.8874,-7.6187,-3.8443,0.0149,-0.4821,0.1078,
1.275891,-0.7354,-0.3577,0.3323,-3.8874,-7.6187,-3.8443,0.0149,-0.4821,0.1078,
1.277146,-0.7273,-0.3909,0.2279,-3.8874,-7.6187,-3.8443,0.0149,-0.4821,0.1078,
1.305295,-0.7273,-0.3909,0.2279,-3.8874,-7.6187,-3.8443,0.2354,-1.1339,-0.1732,
1.307304,-0.7273,-0.3909,0.2279,-4.2054,-7.7629,-6.2613,0.2354,-1.1339,-0.1732,
1.334939,-0.6682,-0.5097,0.1559,-4.2054,-7.7629,-6.2613,0.2354,-1.1339,-0.1732,
1.337703,-0.6022,-0.7278,0.1432,-4.2054,-7.7629,-6.2613,0.2354,-1.1339,-0.1732,
1.340064,-0.6428,-0.9914,0.2585,-4.2054,-7.7629,-6.2613,0.2354,-1.1339,-0.1732,
1.367107,-0.6428,-0.9914,0.2585,-4.2054,-7.7629,-6.2613,0.1456,0.1165,-0.3290,
1.368795,-0.6428,-0.9914,0.2585,-3.6176,-13.7304,-6.0029,0.1456,0.1165,-0.3290,
1.393258,-0.7300,-1.3491,0.4454,-3.6176,-13.7304,-6.0029,0.1456,0.1165,-0.3290,
1.396537,-0.8834,-1.5297,0.3711,-3.6176,-13.7304,-6.0029,0.1456,0.1165,-0.3290,
1.398310,-1.0093,-1.6335,0.7459,-3.6176,-13.7304,-6.0029,0.1456,0.1165,-0.3290,
1.426000,-1.0093,-1.6335,0.7459,-3.6176,-13.7304,-6.0029,-0.0285,-1.3013,0.0919,
1.428951,-1.0093,-1.6335,0.7459,-8.0921,-19.6880,-1.6006,-0.0285,-1.3013,0.0919,
1.453484,-0.8935,-1.5094,1.3164,-8.0921,-19.6880,-1.6006,-0.0285,-1.3013,0.0919,
1.456470,-0.5050,-0.8715,1.1412,-8.0921,-19.6880,-1.6006,-0.0285,-1.3013,0.0919,
1.458645,-0.5275,-0.6005,0.8026,-8.0921,-19.6880,-1.6006,-0.0285,-1.3013,0.0919,
1.486035,-0.5275,-0.6005,0.8026,-8.0921,-19.6880,-1.6006,-0.0486,-1.2567,-0.1915,
1.488815,-0.5275,-0.6005,0.8026,-3.7898,-9.8036,-1.0181,-0.0486,-1.2567,-0.1915,
1.513523,-0.6450,-0.5654,0.5065,-3.7898,-9.8036,-1.0181,-0.0486,-1.2567,-0.1915,
1.516401,-0.7183,-0.6663,0.3596,-3.7898,-9.8036,-1.0181,-0.0486,-1.2567,-0.1915,
1.518137,-0.6169,-0.6890,0.3308,-3.7898,-9.8036,-1.0181,-0.0486,-1.2567,-0.1915,
1.546209,-0.6169,-0.6890,0.3308,-3.7898,-9.8036,-1.0181,-0.9387,-0.7729,0.2666,
1.548716,-0.6169,-0.6890,0.3308,-5.2396,-10.2737,-5.8751,-0.9387,-0.7729,0.2666,
1.572952,-0.4373,-0.6294,0.3833,-5.2396,-10.2737,-5.8751,-0.9387,-0.7729,0.2666,
1.575618,-0.2756,-0.5998,0.5018,-5.2396,-10.2737,-5.8751,-0.9387,-0.7729,0.2666,
1.577246,-0.1923,-0.6374,0.5192,-5.2396,-10.2737,-5.8751,-0.9387,-0.7729,0.2666,
1.606050,-0.1923,-0.6374,0.5192,-5.2396,-10.2737,-5.8751,-0.2582,0.1202,0.2465,
1.608893,-0.1923,-0.6374,0.5192,-1.3311,-9.3417,-4.2011,-0.2582,0.1202,0.2465,
1.635710,-0.2035,-0.6628,0.4884,-1.3311,-9.3417,-4.2011,-0.2582,0.1202,0.2465,
1.637793,-0.2460,-0.6511,0.4300,-1.3311,-9.3417,-4.2011,-0.2582,0.1202,0.2465,
1.639870,-0.2790,-0.6040,0.3672,-1.3311,-9.3417,-4.2011,-0.2582,0.1202,0.2465,
1.665281,-0.2790,-0.6040,0.3672,-1.3311,-9.3417,-4.2011,-0.1812,0.3902,0.3864,
1.668200,-0.2790,-0.6040,0.3672,-2.0059,-8.8510,-5.7312,-0.1812,0.3902,0.3864,
1.693341,-0.3093,-0.5798,0.3496,-2.0059,-8.8510,-5.7312,-0.1812,0.3902,0.3864,
1.695488,-0.3858,-0.5688,0.3938,-2.0059,-8.8510,-5.7312,-0.1812,0.3902,0.3864,
1.696886,-0.3911,-0.5673,0.4622,-2.0059,-8.8510,-5.7312,-0.1812,0.3902,0.3864,
1.725706,-0.3911,-0.5673,0.4622,-2.0059,-8.8510,-5.7312,-0.2001,0.5197,0.4359,
1.727969,-0.3911,-0.5673,0.4622,-2.8839,-8.3321,-4.8287,-0.2001,0.5197,0.4359,
1.753772,-0.3799,-0.5756,0.5182,-2.8839,-8.3321,-4.8287,-0.2001,0.5197,0.4359,
1.756399,-0.3611,-0.6088,0.5600,-2.8839,-8.3321,-4.8287,-0.2001,0.5197,0.4359,
1.758606,-0.4261,-0.6091,0.5370,-2.8839,-8.3321,-4.8287,-0.2001,0.5197,0.4359,
1.786670,-0.4261,-0.6091,0.5370,-2.8839,-8.3321,-4.8287,0.0778,0.0115,0.4041,
1.789466,-0.4261,-0.6091,0.5370,-3.0969,-8.6912,-4.0966,0.0778,0.0115,0.4041,
1.812921,-0.4615,-0.6005,0.4603,-3.0969,-8.6912,-4.0966,0.0778,0.0115,0.4041,
1.815816,-0.5131,-0.5851,0.4141,-3.0969,-8.6912,-4.0966,0.0778,0.0115,0.4041,
1.818114,-0.5517,-0.5783,0.4095,-3.0969,-8.6912,-4.0966,0.0778,0.0115,0.4041,
1.845548,-0.5517,-0.5783,0.4095,-3.0969,-8.6912,-4.0966,-0.3009,0.3224,0.4187,
1.847386,-0.5517,-0.5783,0.4095,-4.2808,-8.3160,-5.3622,-0.3009,0.3224,0.4187,
1.873240,-0.5158,-0.5829,0.4434,-4.2808,-8.3160,-5.3622,-0.3009,0.3224,0.4187,
1.874904,-0.4539,-0.5724,0.4764,-4.2808,-8.3160,-5.3622,-0.3009,0.3224,0.4187,
1.876138,-0.4055,-0.5341,0.4744,-4.2808,-8.3160,-5.3622,-0.3009,0.3224,0.4187,
1.906658,-0.4055,-0.5341,0.4744,-4.2808,-8.3160,-5.3622,-0.2490,0.2387,0.2935,
1.909453,-0.4055,-0.5341,0.4744,-2.6832,-7.6849,-4.7577,-0.2490,0.2387,0.2935,
1.933325,-0.4200,-0.5385,0.4398,-2.6832,-7.6849,-4.7577,-0.2490,0.2387,0.2935,
1.936285,-0.4310,-0.5920,0.4156,-2.6832,-7.6849,-4.7577,-0.2490,0.2387,0.2935,
1.938361,-0.4270,-0.6301,0.3994,-2.6832,-7.6849,-4.7577,-0.2490,0.2387,0.2935,
1.966368,-0.4270,-0.6301,0.3994,-2.6832,-7.6849,-4.7577,-0.3229,0.3462,0.3717,
1.969747,-0.4270,-0.6301,0.3994,-2.7780,-8.4275,-5.5256,-0.3229,0.3462,0.3717,
1.994656,-0.4087,-0.6535,0.4229,-2.7780,-8.4275,-5.5256,-0.3229,0.3462,0.3717,
1.997835,-0.3775,-0.6404,0.4803,-2.7780,-8.4275,-5.5256,-0.3229,0.3462,0.3717,
2.000205,-0.3257,-0.5866,0.5619,-2.7780,-8.4275,-5.5256,-0.3229,0.3462,0.3717,
2.025688,-0.3257,-0.5866,0.5619,-2.7780,-8.4275,-5.5256,0.1377,0.4317,0.2361,
2.027927,-0.3257,-0.5866,0.5619,-1.5245,-7.8699,-3.9213,0.1377,0.4317,0.2361,
2.054561,-0.3516,-0.5956,0.5817,-1.5245,-7.8699,-3.9213,0.1377,0.4317,0.2361,
2.056872,-0.4358,-0.7229,0.5290,-1.5245,-7.8699,-3.9213,0.1377,0.4317,0.2361,
2.058320,-0.5368,-0.8119,0.3972,-1.5245,-7.8699,-3.9213,0.1377,0.4317,0.2361,
2.088951,-0.5368,-0.8119,0.3972,-1.5245,-7.8699,-3.9213,0.1462,-0.1034,-0.0846,
2.091821,-0.5368,-0.8119,0.3972,-3.4994,-10.1592,-5.4994,0.1462,-0.1034,-0.0846,
2.113177,-0.7141,-0.8485,0.2871,-3.4994,-10.1592,-5.4994,0.1462,-0.1034,-0.0846,
2.115939,-0.8429,-0.8632,0.2350,-3.4994,-10.1592,-5.4994,0.1462,-0.1034,-0.0846,
2.117372,-0.9880,-0.8580,0.2150,-3.4994,-10.1592,-5.4994,0.1462,-0.1034,-0.0846,
2.145800,-0.9880,-0.8580,0.2150,-3.4994,-10.1592,-5.4994,-0.0132,0.2002,0.3864,
2.147745,-0.9880,-0.8580,0.2150,-7.8434,-10.5951,-7.2744,-0.0132,0.2002,0.3864,
2.174894,-1.1593,-0.8182,0.2169,-7.8434,-10.5951,-7.2744,-0.0132,0.2002,0.3864,
2.177243,-1.1783,-0.7510,0.3105,-7.8434,-10.5951,-7.2744,-0.0132,0.2002,0.3864,
2.178770,-1.0254,-0.7224,0.6694,-7.8434,-10.5951,-7.2744,-0.0132,0.2002,0.3864,
2.205934,-1.0254,-0.7224,0.6694,-7.8434,-10.5951,-7.2744,-0.3547,2.1782,0.1946,
2.208286,-1.0254,-0.7224,0.6694,-7.6441,-9.1888,-2.7100,-0.3547,2.1782,0.1946,
2.233650,-0.7830,-0.8605,0.7750,-7.6441,-9.1888,-2.7100,-0.3547,2.1782,0.1946,
2.235628,-0.9030,-0.9780,0.7354,-7.6441,-9.1888,-2.7100,-0.3547,2.1782,0.1946,
2.236882,-1.1385,-1.0804,0.6455,-7.6441,-9.1888,-2.7100,-0.3547,2.1782,0.1946,
2.265575,-1.1385,-1.0804,0.6455,-7.6441,-9.1888,-2.7100,0.8738,-0.2347,0.2782,
2.268686,-1.1385,-1.0804,0.6455,-8.2445,-12.7721,-2.7799,0.8738,-0.2347,0.2782,
2.293279,-1.0254,-0.6636,0.4539,-8.2445,-12.7721,-2.7799,0.8738,-0.2347,0.2782,
2.295431,-0.7774,-0.4175,0.3064,-8.2445,-12.7721,-2.7799,0.8738,-0.2347,0.2782,
2.296892,-0.6005,-0.4046,0.1747,-8.2445,-12.7721,-2.7799,0.8738,-0.2347,0.2782,
2.325671,-0.6005,-0.4046,0.1747,-8.2445,-12.7721,-2.7799,0.1737,0.3377,-0.1720,
2.328613,-0.6005,-0.4046,0.1747,-2.9807,-6.5274,-7.2974,0.1737,0.3377,-0.1720,
2.356169,-0.5524,-0.5143,0.0706,-2.9807,-6.5274,-7.2974,0.1737,0.3377,-0.1720,
2.359468,-0.5414,-0.5583,-0.0169,-2.9807,-6.5274,-7.2974,0.1737,0.3377,-0.1720,
2.361355,-0.5478,-0.5385,-0.0249,-2.9807,-6.5274,-7.2974,0.1737,0.3377,-0.1720,
2.385415,-0.5478,-0.5385,-0.0249,-2.9807,-6.5274,-7.2974,-0.6400,-1.0270,-0.1744,
2.388181,-0.5478,-0.5385,-0.0249,-2.4229,-7.6009,-9.3049,-0.6400,-1.0270,-0.1744,
2.412823,-0.5368,-0.4830,0.0579,-2.4229,-7.6009,-9.3049,-0.6400,-1.0270,-0.1744,
2.415219,-0.4637,-0.3963,0.3408,-2.4229,-7.6009,-9.3049,-0.6400,-1.0270,-0.1744,
2.416901,-0.4754,-0.3723,0.7405,-2.4229,-7.6009,-9.3049,-0.6400,-1.0270,-0.1744,
2.446814,-0.4754,-0.3723,0.7405,-2.4229,-7.6009,-9.3049,0.4462,0.8111,-0.3406,
2.449220,-0.4754,-0.3723,0.7405,-1.5486,-5.6646,-1.8221,0.4462,0.8111,-0.3406,
2.475024,-0.5578,-0.5812,0.5993,-1.5486,-5.6646,-1.8221,0.4462,0.8111,-0.3406,
2.477509,-0.6211,-0.5294,0.4576,-1.5486,-5.6646,-1.8221,0.4462,0.8111,-0.3406,
2.479413,-0.6130,-0.4280,0.3227,-1.5486,-5.6646,-1.8221,0.4462,0.8111,-0.3406,
2.505764,-0.6130,-0.4280,0.3227,-1.5486,-5.6646,-1.8221,0.6856,-0.0032,-0.4304,
2.507784,-0.6130,-0.4280,0.3227,-2.6548,-6.4677,-5.7683,0.6856,-0.0032,-0.4304,
2.534587,-0.5996,-0.4248,0.3100,-2.6548,-6.4677,-5.7683,0.6856,-0.0032,-0.4304,
2.536868,-0.6174,-0.4583,0.2597,-2.6548,-6.4677,-5.7683,0.6856,-0.0032,-0.4304,
2.538373,-0.6379,-0.4507,0.2206,-2.6548,-6.4677,-5.7683,0.6856,-0.0032,-0.4304,
2.564851,-0.6379,-0.4507,0.2206,-2.6548,-6.4677,-5.7683,0.0241,-0.1174,-0.2257,
2.566878,-0.6379,-0.4507,0.2206,-2.7745,-6.7551,-6.7045,0.0241,-0.1174,-0.2257,
2.592983,-0.6489,-0.4317,0.2582,-2.7745,-6.7551,-6.7045,0.0241,-0.1174,-0.2257,
2.594797,-0.6685,-0.3999,0.3210,-2.7745,-6.7551,-6.7045,0.0241,-0.1174,-0.2257,
2.595881,-0.6946,-0.3608,0.2682,-2.7745,-6.7551,-6.7045,0.0241,-0.1174,-0.2257,
2.625775,-0.6946,-0.3608,0.2682,-2.7745,-6.7551,-6.7045,0.3069,-0.6703,-0.0547,
2.628053,-0.6946,-0.3608,0.2682,-3.4896,-5.8824,-6.2964,0.3069,-0.6703,-0.0547,
2.653459,-0.7293,-0.4507,0.1959,-3.4896,-5.8824,-6.2964,0.3069,-0.6703,-0.0547,
2.655285,-0.7906,-0.7036,0.2167,-3.4896,-5.8824,-6.2964,0.3069,-0.6703,-0.0547,
2.656268,-0.8062,-0.9599,0.2763,-3.4896,-5.8824,-6.2964,0.3069,-0.6703,-0.0547,
2.686095,-0.8062,-0.9599,0.2763,-3.4896,-5.8824,-6.2964,0.5952,-0.3086,-0.6295,
2.687915,-0.8062,-0.9599,0.2763,-4.7471,-11.9096,-6.2342,0.5952,-0.3086,-0.6295,
2.713753,-0.7400,-1.0728,0.2692,-4.7471,-11.9096,-6.2342,0.5952,-0.3086,-0.6295,
2.716110,-0.6733,-1.0586,0.2108,-4.7471,-11.9096,-6.2342,0.5952,-0.3086,-0.6295,
2.717466,-0.8204,-1.1673,0.4026,-4.7471,-11.9096,-6.2342,0.5952,-0.3086,-0.6295,
2.745758,-0.8204,-1.1673,0.4026,-4.7471,-11.9096,-6.2342,-0.7853,-2.8431,-0.3173,
2.748328,-0.8204,-1.1673,0.4026,-5.6790,-13.5291,-5.3404,-0.7853,-2.8431,-0.3173,
2.773720,-0.8233,-0.9802,1.1268,-5.6790,-13.5291,-5.3404,-0.7853,-2.8431,-0.3173,
2.776432,-0.6750,-0.8825,1.2836,-5.6790,-13.5291,-5.3404,-0.7853,-2.8431,-0.3173,
2.778223,-0.7840,-0.9106,0.9325,-5.6790,-13.5291,-5.3404,-0.7853,-2.8431,-0.3173,
2.806312,-0.7840,-0.9106,0.9325,-5.6790,-13.5291,-5.3404,0.3729,-0.1107,-0.1280,
2.809343,-0.7840,-0.9106,0.9325,-6.0960,-10.9741,-0.3186,0.3729,-0.1107,-0.1280,
2.833413,-0.7799,-0.8849,0.5180,-6.0960,-10.9741,-0.3186,0.3729,-0.1107,-0.1280,
2.836228,-0.6746,-0.8539,0.3442,-6.0960,-10.9741,-0.3186,0.3729,-0.1107,-0.1280,
2.838184,-0.4241,-0.8979,0.4322,-6.0960,-10.9741,-0.3186,0.3729,-0.1107,-0.1280,
2.865811,-0.4241,-0.8979,0.4322,-6.0960,-10.9741,-0.3186,-0.3999,0.0701,-0.0052,
2.868263,-0.4241,-0.8979,0.4322,-2.6840,-10.7605,-5.2597,-0.3999,0.0701,-0.0052,
2.893108,-0.2284,-0.8084,0.5072,-2.6840,-10.7605,-5.2597,-0.3999,0.0701,-0.0052,
2.896081,-0.2123,-0.6352,0.4632,-2.6840,-10.7605,-5.2597,-0.3999,0.0701,-0.0052,
2.897327,-0.2758,-0.5651,0.4288,-2.6840,-10.7605,-5.2597,-0.3999,0.0701,-0.0052,
2.926652,-0.2758,-0.5651,0.4288,-2.6840,-10.7605,-5.2597,-0.0126,1.0566,0.3943,
2.929033,-0.2758,-0.5651,0.4288,-0.9430,-7.3211,-5.2794,-0.0126,1.0566,0.3943,
2.957402,-0.3389,-0.5441,0.4077,-0.9430,-7.3211,-5.2794,-0.0126,1.0566,0.3943,
2.960567,-0.3706,-0.5566,0.4205,-0.9430,-7.3211,-5.2794,-0.0126,1.0566,0.3943,
2.963100,-0.4244,-0.5695,0.4634,-0.9430,-7.3211,-5.2794,-0.0126,1.0566,0.3943,
2.985253,-0.4244,-0.5695,0.4634,-0.9430,-7.3211,-5.2794,-0.0682,1.2723,0.5275,
2.987865,-0.4244,-0.5695,0.4634,-1.6912,-7.3977,-4.7739,-0.0682,1.2723,0.5275,
3.013527,-0.4046,-0.5302,0.4561,-1.6912,-7.3977,-4.7739,-0.0682,1.2723,0.5275,
3.015317,-0.4490,-0.4642,0.4082,-1.6912,-7.3977,-4.7739,-0.0682,1.2723,0.5275,
3.016575,-0.4661,-0.4307,0.3860,-1.6912,-7.3977,-4.7739,-0.0682,1.2723,0.5275,
3.047345,-0.4661,-0.4307,0.3860,-1.6912,-7.3977,-4.7739,-0.2374,0.0976,0.5983,
3.050026,-0.4661,-0.4307,0.3860,-1.7891,-5.9640,-5.4589,-0.2374,0.0976,0.5983,
3.073780,-0.4842,-0.4683,0.3997,-1.7891,-5.9640,-5.4589,-0.2374,0.0976,0.5983,
3.076275,-0.5048,-0.5685,0.3723,-1.7891,-5.9640,-5.4589,-0.2374,0.0976,0.5983,
3.078792,-0.5138,-0.6470,0.3582,-1.7891,-5.9640,-5.4589,-0.2374,0.0976,0.5983,
3.105779,-0.5138,-0.6470,0.3582,-1.7891,-5.9640,-5.4589,-0.1659,0.1061,0.3998,
3.108714,-0.5138,-0.6470,0.3582,-2.2571,-8.0263,-5.7426,-0.1659,0.1061,0.3998,
3.134822,-0.5077,-0.7102,0.3208,-2.2571,-8.0263,-5.7426,-0.1659,0.1061,0.3998,
3.137765,-0.4398,-0.7366,0.3320,-2.2571,-8.0263,-5.7426,-0.1659,0.1061,0.3998,
3.140375,-0.3894,-0.7261,0.3862,-2.2571,-8.0263,-5.7426,-0.1659,0.1061,0.3998,
3.165249,-0.3894,-0.7261,0.3862,-2.2571,-8.0263,-5.7426,-0.2441,0.4470,0.1524,
3.167556,-0.3894,-0.7261,0.3862,-0.9151,-8.6485,-5.4562,-0.2441,0.4470,0.1524,
3.194742,-0.3819,-0.6750,0.4742,-0.9151,-8.6485,-5.4562,-0.2441,0.4470,0.1524,
3.197451,-0.4283,-0.6584,0.5605,-0.9151,-8.6485,-5.4562,-0.2441,0.4470,0.1524,
3.199743,-0.4402,-0.6179,0.5287,-0.9151,-8.6485,-5.4562,-0.2441,0.4470,0.1524,
3.227021,-0.4402,-0.6179,0.5287,-0.9151,-8.6485,-5.4562,0.0992,-0.0026,0.1353,
3.229909,-0.4402,-0.6179,0.5287,-1.2163,-7.5291,-4.0056,0.0992,-0.0026,0.1353,
3.252940,-0.4598,-0.5942,0.4639,-1.2163,-7.5291,-4.0056,0.0992,-0.0026,0.1353,
3.255714,-0.5031,-0.6467,0.4136,-1.2163,-7.5291,-4.0056,0.0992,-0.0026,0.1353,
3.257862,-0.5566,-0.7127,0.3828,-1.2163,-7.5291,-4.0056,0.0992,-0.0026,0.1353,
3.285376,-0.5566,-0.7127,0.3828,-1.2163,-7.5291,-4.0056,0.1511,-0.0197,-0.0553,
3.287908,-0.5566,-0.7127,0.3828,-2.4148,-8.4835,-5.4507,0.1511,-0.0197,-0.0553,
3.314596,-0.6897,-0.7522,0.3836,-2.4148,-8.4835,-5.4507,0.1511,-0.0197,-0.0553,
3.317307,-0.7764,-0.7244,0.2553,-2.4148,-8.4835,-5.4507,0.1511,-0.0197,-0.0553,
3.318875,-0.8123,-0.6973,0.2018,-2.4148,-8.4835,-5.4507,0.1511,-0.0197,-0.0553,
3.345232,-0.8123,-0.6973,0.2018,-2.4148,-8.4835,-5.4507,0.1664,0.9687,0.3009,
3.347170,-0.8123,-0.6973,0.2018,-4.7573,-8.3777,-7.1614,0.1664,0.9687,0.3009,
3.373627,-1.0056,-0.7410,0.2524,-4.7573,-8.3777,-7.1614,0.1664,0.9687,0.3009,
3.375826,-1.1959,-0.8617,0.4813,-4.7573,-8.3777,-7.1614,0.1664,0.9687,0.3009,
3.377128,-1.2614,-0.9409,0.5075,-4.7573,-8.3777,-7.1614,0.1664,0.9687,0.3009,
3.405693,-1.2614,-0.9409,0.5075,-4.7573,-8.3777,-7.1614,-0.4848,-0.2683,0.1982,
3.408933,-1.2614,-0.9409,0.5075,-8.4586,-10.7086,-3.8995,-0.4848,-0.2683,0.1982,
3.433723,-1.2873,-0.9826,0.4197,-8.4586,-10.7086,-3.8995,-0.4848,-0.2683,0.1982,
3.437743,-1.2147,-0.9098,0.6719,-8.4586,-10.7086,-3.8995,-0.4848,-0.2683,0.1982,
3.439763,-0.8456,-0.7278,0.7036,-8.4586,-10.7086,-3.8995,-0.4848,-0.2683,0.1982,
3.466904,-0.8456,-0.7278,0.7036,-8.4586,-10.7086,-3.8995,0.8463,0.7482,0.1512,
3.472161,-0.8456,-0.7278,0.7036,-4.3959,-8.6839,-1.9715,0.8463,0.7482,0.1512,
3.495552,-0.7603,-0.7442,0.5329,-4.3959,-8.6839,-1.9715,0.8463,0.7482,0.1512,
3.498806,-0.7469,-0.6851,0.2954,-4.3959,-8.6839,-1.9715,0.8463,0.7482,0.1512,
3.501596,-0.7024,-0.6071,0.0955,-4.3959,-8.6839,-1.9715,0.8463,0.7482,0.1512,
3.528310,-0.7024,-0.6071,0.0955,-4.3959,-8.6839,-1.9715,0.1187,-0.0441,-0.0535,
3.531771,-0.7024,-0.6071,0.0955,-2.6472,-7.7783,-7.7172,0.1187,-0.0441,-0.0535,
3.553353,-0.6829,-0.5602,0.0034,-2.6472,-7.7783,-7.7172,0.1187,-0.0441,-0.0535,
3.556506,-0.6382,-0.5182,0.0484,-2.6472,-7.7783,-7.7172,0.1187,-0.0441,-0.0535,
3.559215,-0.5978,-0.4578,0.2585,-2.6472,-7.7783,-7.7172,0.1187,-0.0441,-0.0535,
3.588875,-0.5978,-0.4578,0.2585,-2.6472,-7.7783,-7.7172,-0.2368,-0.2976,-0.1323,
3.592149,-0.5978,-0.4578,0.2585,-1.6300,-6.1666,-6.1540,-0.2368,-0.2976,-0.1323,
3.613053,-0.6135,-0.4341,0.2849,-1.6300,-6.1666,-6.1540,-0.2368,-0.2976,-0.1323,
3.616027,-0.5570,-0.3843,0.3056,-1.6300,-6.1666,-6.1540,-0.2368,-0.2976,-0.1323,
3.618310,-0.5026,-0.3628,0.3623,-1.6300,-6.1666,-6.1540,-0.2368,-0.2976,-0.1323,
3.645969,-0.5026,-0.3628,0.3623,-1.6300,-6.1666,-6.1540,0.2409,0.3841,-0.3497,
3.649384,-0.5026,-0.3628,0.3623,-0.7655,-5.1283,-5.1897,0.2409,0.3841,-0.3497,
3.675274,-0.4827,-0.4251,0.4234,-0.7655,-5.1283,-5.1897,0.2409,0.3841,-0.3497,
3.679140,-0.4920,-0.4803,0.4207,-0.7655,-5.1283,-5.1897,0.2409,0.3841,-0.3497,
3.681347,-0.5116,-0.4393,0.4168,-0.7655,-5.1283,-5.1897,0.2409,0.3841,-0.3497,
3.707067,-0.5116,-0.4393,0.4168,-0.7655,-5.1283,-5.1897,0.3851,-0.0710,-0.3662,
3.710693,-0.5116,-0.4393,0.4168,-0.6042,-5.9232,-4.5240,0.3851,-0.0710,-0.3662,
3.733320,-0.5490,-0.4263,0.3699,-0.6042,-5.9232,-4.5240,0.3851,-0.0710,-0.3662,
3.736606,-0.6259,-0.4603,0.3301,-0.6042,-5.9232,-4.5240,0.3851,-0.0710,-0.3662,
3.738761,-0.6858,-0.4798,0.3005,-0.6042,-5.9232,-4.5240,0.3851,-0.0710,-0.3662,
3.765917,-0.6858,-0.4798,0.3005,-0.6042,-5.9232,-4.5240,0.0387,-0.1559,-0.2740,
3.769262,-0.6858,-0.4798,0.3005,-2.3800,-6.3409,-5.6947,0.0387,-0.1559,-0.2740,
3.793078,-0.6838,-0.4422,0.3027,-2.3800,-6.3409,-5.6947,0.0387,-0.1559,-0.2740,
3.796255,-0.6389,-0.4075,0.3169,-2.3800,-6.3409,-5.6947,0.0387,-0.1559,-0.2740,
3.797718,-0.6582,-0.4402,0.3264,-2.3800,-6.3409,-5.6947,0.0387,-0.1559,-0.2740,
3.826561,-0.6582,-0.4402,0.3264,-2.3800,-6.3409,-5.6947,-0.1061,-0.1492,-0.1549,
3.830023,-0.6582,-0.4402,0.3264,-2.1509,-5.8588,-5.4789,-0.1061,-0.1492,-0.1549,
3.853165,-0.6936,-0.4889,0.3325,-2.1509,-5.8588,-5.4789,-0.1061,-0.1492,-0.1549,
3.856474,-0.7039,-0.5304,0.3474,-2.1509,-5.8588,-5.4789,-0.1061,-0.1492,-0.1549,
3.858803,-0.7281,-0.5392,0.3909,-2.1509,-5.8588,-5.4789,-0.1061,-0.1492,-0.1549,
3.885839,-0.7281,-0.5392,0.3909,-2.1509,-5.8588,-5.4789,-0.0358,-0.4797,-0.1451,
3.888416,-0.7281,-0.5392,0.3909,-2.9325,-6.6605,-4.9223,-0.0358,-0.4797,-0.1451,
3.913408,-0.7762,-0.5859,0.4236,-2.9325,-6.6605,-4.9223,-0.0358,-0.4797,-0.1451,
3.916467,-0.8382,-0.6340,0.4808,-2.9325,-6.6605,-4.9223,-0.0358,-0.4797,-0.1451,
3.918676,-0.8737,-0.7847,0.3950,-2.9325,-6.6605,-4.9223,-0.0358,-0.4797,-0.1451,
3.946298,-0.8737,-0.7847,0.3950,-2.9325,-6.6605,-4.9223,0.5787,-0.5634,-0.1854,
3.949565,-0.8737,-0.7847,0.3950,-4.5533,-9.1171,-4.9640,0.5787,-0.5634,-0.1854,
3.974953,-0.9113,-0.9194,0.3750,-4.5533,-9.1171,-4.9640,0.5787,-0.5634,-0.1854,
3.978655,-0.8390,-0.9475,0.3618,-4.5533,-9.1171,-4.9640,0.5787,-0.5634,-0.1854,
3.981205,-0.7259,-0.9707,0.3364,-4.5533,-9.1171,-4.9640,0.5787,-0.5634,-0.1854,
4.006890,-0.7259,-0.9707,0.3364,-4.5533,-9.1171,-4.9640,0.0186,-0.7161,-0.7419,
4.011115,-0.7259,-0.9707,0.3364,-3.3705,-11.0520,-5.6357,0.0186,-0.7161,-0.7419,
4.033580,-0.6477,-1.0711,0.3743,-3.3705,-11.0520,-5.6357,0.0186,-0.7161,-0.7419,
4.036797,-0.6479,-1.1922,0.4705,-3.3705,-11.0520,-5.6357,0.0186,-0.7161,-0.7419,
4.038774,-0.6736,-1.1001,0.5480,-3.3705,-11.0520,-5.6357,0.0186,-0.7161,-0.7419,
4.065918,-0.6736,-1.1001,0.5480,-3.3705,-11.0520,-5.6357,-0.2710,-1.2158,-0.4279,
4.069478,-0.6736,-1.1001,0.5480,-3.3800,-11.9012,-3.8241,-0.2710,-1.2158,-0.4279,
4.096155,-0.7166,-0.8312,0.7967,-3.3800,-11.9012,-3.8241,-0.2710,-1.2158,-0.4279,
4.099274,-0.6626,-0.7093,0.8136,-3.3800,-11.9012,-3.8241,-0.2710,-1.2158,-0.4279,
4.101235,-0.6296,-0.7232,0.6555,-3.3800,-11.9012,-3.8241,-0.2710,-1.2158,-0.4279,
4.126075,-0.6296,-0.7232,0.6555,-3.3800,-11.9012,-3.8241,0.2238,-0.1840,-0.3326,
4.129430,-0.6296,-0.7232,0.6555,-3.2711,-8.1458,-2.8844,0.2238,-0.1840,-0.3326,
4.153818,-0.5448,-0.7694,0.5028,-3.2711,-8.1458,-2.8844,0.2238,-0.1840,-0.3326,
4.157049,-0.3855,-0.7207,0.3916,-3.2711,-8.1458,-2.8844,0.2238,-0.1840,-0.3326,
4.159074,-0.2558,-0.5881,0.3731,-3.2711,-8.1458,-2.8844,0.2238,-0.1840,-0.3326,
4.185557,-0.2558,-0.5881,0.3731,-3.2711,-8.1458,-2.8844,-0.2753,0.4012,-0.0522,
4.188453,-0.2558,-0.5881,0.3731,0.3916,-6.7011,-5.6656,-0.2753,0.4012,-0.0522,
4.213472,-0.2316,-0.4849,0.3606,0.3916,-6.7011,-5.6656,-0.2753,0.4012,-0.0522,
4.215477,-0.2817,-0.4459,0.3303,0.3916,-6.7011,-5.6656,-0.2753,0.4012,-0.0522,
4.216677,-0.3093,-0.4297,0.3235,0.3916,-6.7011,-5.6656,-0.2753,0.4012,-0.0522,
4.248495,-0.3093,-0.4297,0.3235,0.3916,-6.7011,-5.6656,-0.1342,1.2314,0.6435,
4.251601,-0.3093,-0.4297,0.3235,0.2784,-5.0248,-6.0255,-0.1342,1.2314,0.6435,
4.272911,-0.2924,-0.4031,0.4161,0.2784,-5.0248,-6.0255,-0.1342,1.2314,0.6435,
4.275616,-0.3122,-0.4222,0.4766,0.2784,-5.0248,-6.0255,-0.1342,1.2314,0.6435,
4.277549,-0.3987,-0.4595,0.4630,0.2784,-5.0248,-6.0255,-0.1342,1.2314,0.6435,
4.306964,-0.3987,-0.4595,0.4630,0.2784,-5.0248,-6.0255,0.3386,0.7482,0.6741,
4.310267,-0.3987,-0.4595,0.4630,0.0375,-5.4659,-4.3895,0.3386,0.7482,0.6741,
4.334004,-0.4561,-0.5040,0.4459,0.0375,-5.4659,-4.3895,0.3386,0.7482,0.6741,
4.337046,-0.5094,-0.5324,0.3870,0.0375,-5.4659,-4.3895,0.3386,0.7482,0.6741,
4.338787,-0.5214,-0.5238,0.3171,0.0375,-5.4659,-4.3895,0.3386,0.7482,0.6741,
4.366680,-0.5214,-0.5238,0.3171,0.0375,-5.4659,-4.3895,-0.3449,0.2998,0.4652,
4.369586,-0.5214,-0.5238,0.3171,-0.9154,-6.2371,-5.6879,-0.3449,0.2998,0.4652,
4.393835,-0.4798,-0.5700,0.3310,-0.9154,-6.2371,-5.6879,-0.3449,0.2998,0.4652,
4.396626,-0.4143,-0.6699,0.4016,-0.9154,-6.2371,-5.6879,-0.3449,0.2998,0.4652,
4.398390,-0.4033,-0.7276,0.4334,-0.9154,-6.2371,-5.6879,-0.3449,0.2998,0.4652,
4.425892,-0.4033,-0.7276,0.4334,-0.9154,-6.2371,-5.6879,0.0399,0.3853,0.1597,
4.429473,-0.4033,-0.7276,0.4334,0.4570,-8.1228,-4.4555,0.0399,0.3853,0.1597,
4.456514,-0.4085,-0.7256,0.4703,0.4570,-8.1228,-4.4555,0.0399,0.3853,0.1597,
4.459341,-0.3831,-0.6724,0.5566,0.4570,-8.1228,-4.4555,0.0399,0.3853,0.1597,
4.461425,-0.4141,-0.7613,0.5676,0.4570,-8.1228,-4.4555,0.0399,0.3853,0.1597,
4.487145,-0.4141,-0.7613,0.5676,0.4570,-8.1228,-4.4555,0.3545,0.1098,-0.0553,
4.489005,-0.4141,-0.7613,0.5676,0.4935,-8.5496,-3.0558,0.3545,0.1098,-0.0553,
4.515366,-0.4737,-0.8141,0.5429,0.4935,-8.5496,-3.0558,0.3545,0.1098,-0.0553,
4.518393,-0.5788,-0.8277,0.3738,0.4935,-8.5496,-3.0558,0.3545,0.1098,-0.0553,
4.519730,-0.7430,-0.8009,0.2829,0.4935,-8.5496,-3.0558,0.3545,0.1098,-0.0553,
4.545654,-0.7430,-0.8009,0.2829,0.4935,-8.5496,-3.0558,0.3533,-0.1749,-0.0473,
4.548903,-0.7430,-0.8009,0.2829,-2.7724,-9.0060,-5.8590,0.3533,-0.1749,-0.0473,
4.573100,-0.9250,-0.7992,0.2345,-2.7724,-9.0060,-5.8590,0.3533,-0.1749,-0.0473,
4.576149,-1.0608,-0.8045,0.2365,-2.7724,-9.0060,-5.8590,0.3533,-0.1749,-0.0473,
4.577487,-1.1339,-0.8060,0.2912,-2.7724,-9.0060,-5.8590,0.3533,-0.1749,-0.0473,
4.605849,-1.1339,-0.8060,0.2912,-2.7724,-9.0060,-5.8590,-0.0315,1.2802,0.2257,
4.609398,-1.1339,-0.8060,0.2912,-6.4840,-9.2240,-5.6900,-0.0315,1.2802,0.2257,
4.633207,-1.1373,-0.8404,0.4871,-6.4840,-9.2240,-5.6900,-0.0315,1.2802,0.2257,
4.636258,-1.0708,-0.7901,0.4366,-6.4840,-9.2240,-5.6900,-0.0315,1.2802,0.2257,
4.637944,-0.9472,-0.7887,0.5170,-6.4840,-9.2240,-5.6900,-0.0315,1.2802,0.2257,
4.666904,-0.9472,-0.7887,0.5170,-6.4840,-9.2240,-5.6900,0.0387,0.6681,0.0498,
4.669605,-0.9472,-0.7887,0.5170,-4.1998,-8.9928,-3.2244,0.0387,0.6681,0.0498,
4.693685,-0.9597,-0.8588,0.5585,-4.1998,-8.9928,-3.2244,0.0387,0.6681,0.0498,
4.697069,-1.0073,-0.8976,0.5649,-4.1998,-8.9928,-3.2244,0.0387,0.6681,0.0498,
4.699475,-0.8871,-0.7874,0.5062,-4.1998,-8.9928,-3.2244,0.0387,0.6681,0.0498,
4.727625,-0.8871,-0.7874,0.5062,-4.1998,-8.9928,-3.2244,0.9990,0.6345,0.0095,
4.731724,-0.8871,-0.7874,0.5062,-3.3239,-9.2798,-3.0946,0.9990,0.6345,0.0095,
4.753644,-0.7398,-0.6511,0.3745,-3.3239,-9.2798,-3.0946,0.9990,0.6345,0.0095,
4.756635,-0.6636,-0.5793,0.2546,-3.3239,-9.2798,-3.0946,0.9990,0.6345,0.0095,
4.758606,-0.6372,-0.5268,0.1378,-3.3239,-9.2798,-3.0946,0.9990,0.6345,0.0095,
4.785322,-0.6372,-0.5268,0.1378,-3.3239,-9.2798,-3.0946,0.2580,0.3493,-0.2202,
4.788558,-0.6372,-0.5268,0.1378,-0.4823,-6.9925,-6.3710,0.2580,0.3493,-0.2202,
4.813487,-0.6364,-0.4935,0.0425,-0.4823,-6.9925,-6.3710,0.2580,0.3493,-0.2202,
4.816362,-0.6054,-0.4429,0.0371,-0.4823,-6.9925,-6.3710,0.2580,0.3493,-0.2202,
4.817810,-0.5519,-0.4068,0.1893,-0.4823,-6.9925,-6.3710,0.2580,0.3493,-0.2202,
4.846822,-0.5519,-0.4068,0.1893,-0.4823,-6.9925,-6.3710,-0.1207,0.0053,-0.3235,
4.849859,-0.5519,-0.4068,0.1893,0.4191,-5.6476,-5.8546,-0.1207,0.0053,-0.3235,
4.879308,-0.5505,-0.3936,0.3305,0.4191,-5.6476,-5.8546,-0.1207,0.0053,-0.3235,
4.881128,-0.6140,-0.3999,0.4251,0.4191,-5.6476,-5.8546,-0.1207,0.0053,-0.3235,
4.882255,-0.6230,-0.4175,0.4661,0.4191,-5.6476,-5.8546,-0.1207,0.0053,-0.3235,
4.905464,-0.6230,-0.4175,0.4661,0.4191,-5.6476,-5.8546,0.5005,0.3951,-0.3815,
4.907224,-0.6230,-0.4175,0.4661,-0.1196,-5.6955,-3.0323,0.5005,0.3951,-0.3815,
4.933396,-0.5478,-0.4038,0.4473,-0.1196,-5.6955,-3.0323,0.5005,0.3951,-0.3815,
4.935292,-0.5236,-0.4041,0.4041,-0.1196,-5.6955,-3.0323,0.5005,0.3951,-0.3815,
4.936432,-0.5893,-0.4332,0.3687,-0.1196,-5.6955,-3.0323,0.5005,0.3951,-0.3815,
4.965352,-0.5893,-0.4332,0.3687,-0.1196,-5.6955,-3.0323,0.4969,0.0518,-0.3045,
4.967074,-0.5893,-0.4332,0.3687,0.3893,-5.9252,-3.8267,0.4969,0.0518,-0.3045,
4.992987,-0.6878,-0.4683,0.3071,0.3893,-5.9252,-3.8267,0.4969,0.0518,-0.3045,
4.994408,-0.7535,-0.4564,0.2741,0.3893,-5.9252,-3.8267,0.4969,0.0518,-0.3045,
4.995576,-0.7312,-0.4161,0.3125,0.3893,-5.9252,-3.8267,0.4969,0.0518,-0.3045,
5.027265,-0.7312,-0.4161,0.3125,0.3893,-5.9252,-3.8267,0.0546,-0.0276,-0.1188,
5.029976,-0.7312,-0.4161,0.3125,-0.9843,-5.7394,-4.3670,0.0546,-0.0276,-0.1188,
5.057085,-0.6965,-0.4195,0.3801,-0.9843,-5.7394,-4.3670,0.0546,-0.0276,-0.1188,
5.059964,-0.7090,-0.3960,0.3936,-0.9843,-5.7394,-4.3670,0.0546,-0.0276,-0.1188,
5.061931,-0.6399,-0.3880,0.4556,-0.9843,-5.7394,-4.3670,0.0546,-0.0276,-0.1188,
5.086383,-0.6399,-0.3880,0.4556,-0.9843,-5.7394,-4.3670,0.1731,0.1422,-0.2520,
5.088473,-0.6399,-0.3880,0.4556,0.0010,-5.4095,-2.9004,0.1731,0.1422,-0.2520,
5.113052,-0.5917,-0.4307,0.5145,0.0010,-5.4095,-2.9004,0.1731,0.1422,-0.2520,
5.114749,-0.6299,-0.4764,0.5419,0.0010,-5.4095,-2.9004,0.1731,0.1422,-0.2520,
5.115961,-0.6973,-0.5886,0.4708,0.0010,-5.4095,-2.9004,0.1731,0.1422,-0.2520,
5.145962,-0.6973,-0.5886,0.4708,0.0010,-5.4095,-2.9004,0.9477,-0.1920,-0.2544,
5.149499,-0.6973,-0.5886,0.4708,-0.5368,-7.4667,-2.7102,0.9477,-0.1920,-0.2544,
5.173633,-0.8018,-0.7635,0.3462,-0.5368,-7.4667,-2.7102,0.9477,-0.1920,-0.2544,
5.176457,-0.9042,-0.9951,0.3557,-0.5368,-7.4667,-2.7102,0.9477,-0.1920,-0.2544,
5.179661,-0.9863,-1.0840,0.3198,-0.5368,-7.4667,-2.7102,0.9477,-0.1920,-0.2544,
5.206288,-0.9863,-1.0840,0.3198,-0.5368,-7.4667,-2.7102,0.5970,-0.4821,-0.4218,
5.209637,-0.9863,-1.0840,0.3198,-3.3875,-12.5499,-4.1490,0.5970,-0.4821,-0.4218,
5.234075,-0.9057,-1.0156,0.2511,-3.3875,-12.5499,-4.1490,0.5970,-0.4821,-0.4218,
5.237328,-0.7921,-1.0535,0.3198,-3.3875,-12.5499,-4.1490,0.5970,-0.4821,-0.4218,
5.239326,-0.7855,-1.1878,0.4503,-3.3875,-12.5499,-4.1490,0.5970,-0.4821,-0.4218,
5.266143,-0.7855,-1.1878,0.4503,-3.3875,-12.5499,-4.1490,-0.4152,-0.9488,-0.5599,
5.269595,-0.7855,-1.1878,0.4503,-1.6819,-13.3702,-3.1367,-0.4152,-0.9488,-0.5599,
5.294887,-0.7960,-1.2653,0.5600,-1.6819,-13.3702,-3.1367,-0.4152,-0.9488,-0.5599,
5.298666,-0.7833,-1.0901,0.6108,-1.6819,-13.3702,-3.1367,-0.4152,-0.9488,-0.5599,
5.301525,-0.7598,-0.8781,0.7342,-1.6819,-13.3702,-3.1367,-0.4152,-0.9488,-0.5599,
5.325732,-0.7598,-0.8781,0.7342,-1.6819,-13.3702,-3.1367,0.2592,-0.6367,-0.3888,
5.329319,-0.7598,-0.8781,0.7342,-1.8227,-10.0113,-0.7151,0.2592,-0.6367,-0.3888,
5.353490,-0.7811,-0.7974,0.7698,-1.8227,-10.0113,-0.7151,0.2592,-0.6367,-0.3888,
5.356482,-0.6704,-0.8407,0.5622,-1.8227,-10.0113,-0.7151,0.2592,-0.6367,-0.3888,
5.357999,-0.4627,-0.7755,0.3738,-1.8227,-10.0113,-0.7151,0.2592,-0.6367,-0.3888,
5.386233,-0.4627,-0.7755,0.3738,-1.8227,-10.0113,-0.7151,-0.3028,0.0542,-0.1848,
5.389525,-0.4627,-0.7755,0.3738,1.0179,-8.9292,-4.3100,-0.3028,0.0542,-0.1848,
5.413464,-0.3459,-0.6799,0.2944,1.0179,-8.9292,-4.3100,-0.3028,0.0542,-0.1848,
5.416096,-0.3542,-0.6213,0.2895,1.0179,-8.9292,-4.3100,-0.3028,0.0542,-0.1848,
5.417565,-0.3337,-0.6062,0.3496,1.0179,-8.9292,-4.3100,-0.3028,0.0542,-0.1848,
5.446823,-0.3337,-0.6062,0.3496,1.0179,-8.9292,-4.3100,-0.6846,0.4965,-0.0254,
5.449771,-0.3337,-0.6062,0.3496,2.4342,-6.9114,-4.4912,-0.6846,0.4965,-0.0254,
5.473419,-0.2998,-0.5983,0.4058,2.4342,-6.9114,-4.4912,-0.6846,0.4965,-0.0254,
5.476666,-0.3547,-0.5585,0.4515,2.4342,-6.9114,-4.4912,-0.6846,0.4965,-0.0254,
5.478931,-0.4082,-0.5302,0.4676,2.4342,-6.9114,-4.4912,-0.6846,0.4965,-0.0254,
5.505511,-0.4082,-0.5302,0.4676,2.4342,-6.9114,-4.4912,-0.2026,0.6321,0.2068,
5.508526,-0.4082,-0.5302,0.4676,1.9619,-5.9198,-3.1694,-0.2026,0.6321,0.2068,
5.537377,-0.4151,-0.5407,0.4762,1.9619,-5.9198,-3.1694,-0.2026,0.6321,0.2068,
5.540411,-0.4605,-0.6110,0.4241,1.9619,-5.9198,-3.1694,-0.2026,0.6321,0.2068,
5.542204,-0.5294,-0.6900,0.3530,1.9619,-5.9198,-3.1694,-0.2026,0.6321,0.2068,
5.565818,-0.5294,-0.6900,0.3530,1.9619,-5.9198,-3.1694,-0.1812,0.3260,0.2636,
5.568893,-0.5294,-0.6900,0.3530,1.0147,-7.4582,-4.1037,-0.1812,0.3260,0.2636,
5.593827,-0.5167,-0.7005,0.3327,1.0147,-7.4582,-4.1037,-0.1812,0.3260,0.2636,
5.597378,-0.4806,-0.7117,0.3381,1.0147,-7.4582,-4.1037,-0.1812,0.3260,0.2636,
5.599357,-0.4727,-0.7823,0.3418,1.0147,-7.4582,-4.1037,-0.1812,0.3260,0.2636,
5.625915,-0.4727,-0.7823,0.3418,1.0147,-7.4582,-4.1037,-0.0645,1.2173,0.0620,
5.629231,-0.4727,-0.7823,0.3418,1.8036,-8.3464,-4.0180,-0.0645,1.2173,0.0620,
5.652938,-0.5211,-1.0151,0.4080,1.8036,-8.3464,-4.0180,-0.0645,1.2173,0.0620,
5.655987,-0.7393,-1.1478,0.4126,1.8036,-8.3464,-4.0180,-0.0645,1.2173,0.0620,
5.657832,-0.8561,-0.9853,0.4275,1.8036,-8.3464,-4.0180,-0.0645,1.2173,0.0620,
5.686926,-0.8561,-0.9853,0.4275,1.8036,-8.3464,-4.0180,0.4480,0.0725,0.1225,
5.690592,-0.8561,-0.9853,0.4275,-1.6505,-10.3630,-2.8992,0.4480,0.0725,0.1225,
5.713193,-0.7439,-0.6875,0.4664,-1.6505,-10.3630,-2.8992,0.4480,0.0725,0.1225,
5.717808,-0.7366,-0.5578,0.2905,-1.6505,-10.3630,-2.8992,0.4480,0.0725,0.1225,
5.720453,-0.7522,-0.5162,0.1290,-1.6505,-10.3630,-2.8992,0.4480,0.0725,0.1225,
5.747310,-0.7522,-0.5162,0.1290,-1.6505,-10.3630,-2.8992,-0.3901,0.0389,0.2923,
5.751585,-0.7522,-0.5162,0.1290,-0.5746,-5.9258,-5.7512,-0.3901,0.0389,0.2923,
5.773387,-0.7564,-0.4913,-0.0034,-0.5746,-5.9258,-5.7512,-0.3901,0.0389,0.2923,
5.776265,-0.7295,-0.4901,0.0332,-0.5746,-5.9258,-5.7512,-0.3901,0.0389,0.2923,
5.778369,-0.7078,-0.5641,0.2196,-0.5746,-5.9258,-5.7512,-0.3901,0.0389,0.2923,
5.805782,-0.7078,-0.5641,0.2196,-0.5746,-5.9258,-5.7512,-0.4457,-0.0142,0.1585,
5.808432,-0.7078,-0.5641,0.2196,-0.2088,-6.2106,-4.9501,-0.4457,-0.0142,0.1585,
5.837174,-0.6677,-0.6482,0.3892,-0.2088,-6.2106,-4.9501,-0.4457,-0.0142,0.1585,
5.841012,-0.6330,-0.6606,0.5018,-0.2088,-6.2106,-4.9501,-0.4457,-0.0142,0.1585,
5.843058,-0.6579,-0.6961,0.3618,-0.2088,-6.2106,-4.9501,-0.4457,-0.0142,0.1585,
5.866732,-0.6579,-0.6961,0.3618,-0.2088,-6.2106,-4.9501,-0.2099,-0.0081,0.0327,
5.870087,-0.6579,-0.6961,0.3618,0.3653,-7.4047,-3.4835,-0.2099,-0.0081,0.0327,
5.895399,-0.6868,-0.7427,0.2902,0.3653,-7.4047,-3.4835,-0.2099,-0.0081,0.0327,
5.898208,-0.7136,-0.6922,0.3044,0.3653,-7.4047,-3.4835,-0.2099,-0.0081,0.0327,
5.900863,-0.6953,-0.6421,0.2817,0.3653,-7.4047,-3.4835,-0.2099,-0.0081,0.0327,
5.926402,-0.6953,-0.6421,0.2817,0.3653,-7.4047,-3.4835,-0.1665,0.1666,-0.1817,
5.929164,-0.6953,-0.6421,0.2817,0.0338,-6.7253,-4.2457,-0.1665,0.1666,-0.1817,
5.956672,-0.6922,-0.6408,0.3174,0.0338,-6.7253,-4.2457,-0.1665,0.1666,-0.1817,
5.960124,-0.7017,-0.6663,0.3567,0.0338,-6.7253,-4.2457,-0.1665,0.1666,-0.1817,
5.962217,-0.6812,-0.6887,0.3811,0.0338,-6.7253,-4.2457,-0.1665,0.1666,-0.1817,
5.987295,-0.6812,-0.6887,0.3811,0.0338,-6.7253,-4.2457,0.1682,0.7500,-0.3357,
5.989660,-0.6812,-0.6887,0.3811,0.3559,-7.0295,-3.0954,0.1682,0.7500,-0.3357,
6.014368,-0.6553,-0.7369,0.3596,0.3559,-7.0295,-3.0954,0.1682,0.7500,-0.3357,
6.017156,-0.6423,-0.7198,0.3171,0.3559,-7.0295,-3.0954,0.1682,0.7500,-0.3357,
6.018740,-0.6741,-0.6604,0.2795,0.3559,-7.0295,-3.0954,0.1682,0.7500,-0.3357,
6.045708,-0.6741,-0.6604,0.2795,0.3559,-7.0295,-3.0954,0.3160,0.8783,-0.1952,
6.048688,-0.6741,-0.6604,0.2795,0.7397,-6.6536,-3.7556,0.3160,0.8783,-0.1952,
6.074365,-0.6853,-0.6782,0.3161,0.7397,-6.6536,-3.7556,0.3160,0.8783,-0.1952,
6.077443,-0.7144,-0.7373,0.2890,0.7397,-6.6536,-3.7556,0.3160,0.8783,-0.1952,
6.079184,-0.6904,-0.7249,0.2492,0.7397,-6.6536,-3.7556,0.3160,0.8783,-0.1952,
6.107214,-0.6904,-0.7249,0.2492,0.7397,-6.6536,-3.7556,-0.0273,0.0689,0.0040,
6.110055,-0.6904,-0.7249,0.2492,0.8294,-7.2801,-3.7582,-0.0273,0.0689,0.0040,
6.133898,-0.6702,-0.6926,0.2108,0.8294,-7.2801,-3.7582,-0.0273,0.0689,0.0040,
6.137774,-0.6655,-0.6904,0.2731,0.8294,-7.2801,-3.7582,-0.0273,0.0689,0.0040,
6.139837,-0.6755,-0.6809,0.2888,0.8294,-7.2801,-3.7582,-0.0273,0.0689,0.0040,
6.166100,-0.6755,-0.6809,0.2888,0.8294,-7.2801,-3.7582,0.0296,-0.0680,0.0357,
6.168703,-0.6755,-0.6809,0.2888,0.9788,-6.8028,-3.3674,0.0296,-0.0680,0.0357,
6.193345,-0.6726,-0.6956,0.2956,0.9788,-6.8028,-3.3674,0.0296,-0.0680,0.0357,
6.196334,-0.6736,-0.6968,0.3042,0.9788,-6.8028,-3.3674,0.0296,-0.0680,0.0357,
6.197994,-0.6821,-0.6934,0.2995,0.9788,-6.8028,-3.3674,0.0296,-0.0680,0.0357,
6.226784,-0.6821,-0.6934,0.2995,0.9788,-6.8028,-3.3674,0.1059,0.0689,0.0864,
6.229252,-0.6821,-0.6934,0.2995,0.9413,-6.9357,-3.2284,0.1059,0.0689,0.0864,
6.255261,-0.6865,-0.7242,0.2839,0.9413,-6.9357,-3.2284,0.1059,0.0689,0.0864,
6.257577,-0.7171,-0.7469,0.2924,0.9413,-6.9357,-3.2284,0.1059,0.0689,0.0864,
6.259355,-0.7522,-0.8382,0.2651,0.9413,-6.9357,-3.2284,0.1059,0.0689,0.0864,
6.285624,-0.7522,-0.8382,0.2651,0.9413,-6.9357,-3.2284,-0.0780,-0.2109,0.5458,
6.288370,-0.7522,-0.8382,0.2651,0.2500,-8.3896,-3.5703,-0.0780,-0.2109,0.5458,
6.312854,-0.7879,-0.9609,0.2568,0.2500,-8.3896,-3.5703,-0.0780,-0.2109,0.5458,
6.315354,-0.7261,-0.8412,0.1972,0.2500,-8.3896,-3.5703,-0.0780,-0.2109,0.5458,
6.317071,-0.6645,-0.7615,0.1747,0.2500,-8.3896,-3.5703,-0.0780,-0.2109,0.5458,
6.345390,-0.6645,-0.7615,0.1747,0.2500,-8.3896,-3.5703,-0.6332,-0.5169,0.2294,
6.348650,-0.6645,-0.7615,0.1747,0.9457,-7.6883,-4.6516,-0.6332,-0.5169,0.2294,
6.373790,-0.6347,-0.7547,0.2382,0.9457,-7.6883,-4.6516,-0.6332,-0.5169,0.2294,
6.377016,-0.6538,-0.9475,0.3374,0.9457,-7.6883,-4.6516,-0.6332,-0.5169,0.2294,
6.379142,-0.6711,-0.8360,0.3000,0.9457,-7.6883,-4.6516,-0.6332,-0.5169,0.2294,
6.406101,-0.6711,-0.8360,0.3000,0.9457,-7.6883,-4.6516,-0.5080,-0.6495,-0.0486,
6.408961,-0.6711,-0.8360,0.3000,0.6013,-8.2124,-3.7412,-0.5080,-0.6495,-0.0486,
6.433865,-0.6572,-0.8546,0.3882,0.6013,-8.2124,-3.7412,-0.5080,-0.6495,-0.0486,
6.438082,-0.6533,-0.9282,0.2783,0.6013,-8.2124,-3.7412,-0.5080,-0.6495,-0.0486,
6.440348,-0.7156,-0.8275,0.4744,0.6013,-8.2124,-3.7412,-0.5080,-0.6495,-0.0486,
6.466314,-0.7156,-0.8275,0.4744,0.6013,-8.2124,-3.7412,-0.1097,-0.8554,-0.3027,
6.469631,-0.7156,-0.8275,0.4744,-0.1379,-7.8496,-2.3388,-0.1097,-0.8554,-0.3027,
6.497584,-0.6941,-0.8121,0.3914,-0.1379,-7.8496,-2.3388,-0.1097,-0.8554,-0.3027,
6.500882,-0.7532,-0.7984,0.3567,-0.1379,-7.8496,-2.3388,-0.1097,-0.8554,-0.3027,
6.503562,-0.6816,-0.7974,0.3677,-0.1379,-7.8496,-2.3388,-0.1097,-0.8554,-0.3027,
6.526141,-0.6816,-0.7974,0.3677,-0.1379,-7.8496,-2.3388,0.0253,-0.7454,-0.4530,
6.528087,-0.6816,-0.7974,0.3677,-0.1826,-7.3982,-3.7302,0.0253,-0.7454,-0.4530,
6.554242,-0.5724,-0.8673,0.4117,-0.1826,-7.3982,-3.7302,0.0253,-0.7454,-0.4530,
6.557061,-0.6746,-0.7515,0.2619,-0.1826,-7.3982,-3.7302,0.0253,-0.7454,-0.4530,
6.558773,-0.6968,-0.7603,0.2372,-0.1826,-7.3982,-3.7302,0.0253,-0.7454,-0.4530,
6.585204,-0.6968,-0.7603,0.2372,-0.1826,-7.3982,-3.7302,-0.7059,-0.4797,-0.4169,
6.588951,-0.6968,-0.7603,0.2372,-0.6323,-6.6147,-5.2302,-0.7059,-0.4797,-0.4169,
6.614925,-0.6020,-0.8004,0.3821,-0.6323,-6.6147,-5.2302,-0.7059,-0.4797,-0.4169,
6.618150,-0.5490,-0.7996,0.4214,-0.6323,-6.6147,-5.2302,-0.7059,-0.4797,-0.4169,
6.620357,-0.5116,-0.7332,0.4012,-0.6323,-6.6147,-5.2302,-0.7059,-0.4797,-0.4169,
6.646700,-0.5116,-0.7332,0.4012,-0.6323,-6.6147,-5.2302,-1.0932,-0.6458,-0.5996,
6.649249,-0.5116,-0.7332,0.4012,0.8685,-5.7558,-3.7840,-1.0932,-0.6458,-0.5996,
6.672951,-0.4542,-0.7823,0.4038,0.8685,-5.7558,-3.7840,-1.0932,-0.6458,-0.5996,
6.675949,-0.4429,-0.8390,0.4107,0.8685,-5.7558,-3.7840,-1.0932,-0.6458,-0.5996,
6.677705,-0.5502,-0.7852,0.4016,0.8685,-5.7558,-3.7840,-1.0932,-0.6458,-0.5996,
6.706775,-0.5502,-0.7852,0.4016,0.8685,-5.7558,-3.7840,-1.3657,-0.9287,-0.7205,
6.709121,-0.5502,-0.7852,0.4016,0.0918,-5.3751,-3.8559,-1.3657,-0.9287,-0.7205,
6.733433,-0.5573,-0.7745,0.4752,0.0918,-5.3751,-3.8559,-1.3657,-0.9287,-0.7205,
6.736336,-0.4632,-0.7662,0.5724,0.0918,-5.3751,-3.8559,-1.3657,-0.9287,-0.7205,
6.738299,-0.3792,-0.7278,0.6352,0.0918,-5.3751,-3.8559,-1.3657,-0.9287,-0.7205,
6.765220,-0.3792,-0.7278,0.6352,0.0918,-5.3751,-3.8559,-0.2844,-1.0686,-1.0137,
6.767828,-0.3792,-0.7278,0.6352,1.2299,-4.0823,-1.6745,-0.2844,-1.0686,-1.0137,
6.793250,-0.4187,-0.6504,0.5839,1.2299,-4.0823,-1.6745,-0.2844,-1.0686,-1.0137,
6.796591,-0.3748,-0.6250,0.5739,1.2299,-4.0823,-1.6745,-0.2844,-1.0686,-1.0137,
6.798729,-0.3990,-0.6438,0.6286,1.2299,-4.0823,-1.6745,-0.2844,-1.0686,-1.0137,
6.825732,-0.3990,-0.6438,0.6286,1.2299,-4.0823,-1.6745,0.8047,-1.6813,-1.0876,
6.828664,-0.3990,-0.6438,0.6286,0.1106,-2.9586,-2.1329,0.8047,-1.6813,-1.0876,
6.853693,-0.4532,-0.7034,0.6831,0.1106,-2.9586,-2.1329,0.8047,-1.6813,-1.0876,
6.857676,-0.4117,-0.7166,0.6970,0.1106,-2.9586,-2.1329,0.8047,-1.6813,-1.0876,
6.859810,-0.4239,-0.7105,0.6118,0.1106,-2.9586,-2.1329,0.8047,-1.6813,-1.0876,
6.885763,-0.4239,-0.7105,0.6118,0.1106,-2.9586,-2.1329,1.2647,-1.2646,-0.9905,
6.888806,-0.4239,-0.7105,0.6118,-1.0918,-3.9296,-2.8134,1.2647,-1.2646,-0.9905,
6.914989,-0.4195,-0.6922,0.5910,-1.0918,-3.9296,-2.8134,1.2647,-1.2646,-0.9905,
6.917511,-0.3591,-0.6736,0.6765,-1.0918,-3.9296,-2.8134,1.2647,-1.2646,-0.9905,
6.920301,-0.4388,-0.7058,0.6531,-1.0918,-3.9296,-2.8134,1.2647,-1.2646,-0.9905,
6.945591,-0.4388,-0.7058,0.6531,-1.0918,-3.9296,-2.8134,2.0271,-0.9543,-0.7529,
6.947654,-0.4388,-0.7058,0.6531,-1.9254,-4.5334,-2.8114,2.0271,-0.9543,-0.7529,
6.974856,-0.4383,-0.6909,0.6504,-1.9254,-4.5334,-2.8114,2.0271,-0.9543,-0.7529,
6.977861,-0.4261,-0.6680,0.6628,-1.9254,-4.5334,-2.8114,2.0271,-0.9543,-0.7529,
6.979339,-0.4420,-0.6675,0.6628,-1.9254,-4.5334,-2.8114,2.0271,-0.9543,-0.7529,
7.007201,-0.4420,-0.6675,0.6628,-1.9254,-4.5334,-2.8114,2.8866,-1.1107,-0.5421,
7.010899,-0.4420,-0.6675,0.6628,-2.5708,-5.3176,-3.0737,2.8866,-1.1107,-0.5421,
7.034953,-0.4117,-0.6228,0.7073,-2.5708,-5.3176,-3.0737,2.8866,-1.1107,-0.5421,
7.038260,-0.4246,-0.7017,0.6902,-2.5708,-5.3176,-3.0737,2.8866,-1.1107,-0.5421,
7.040641,-0.4388,-0.6782,0.5776,-2.5708,-5.3176,-3.0737,2.8866,-1.1107,-0.5421,
7.065359,-0.4388,-0.6782,0.5776,-2.5708,-5.3176,-3.0737,3.4363,-1.4552,0.0345,
7.068487,-0.4388,-0.6782,0.5776,-3.2024,-7.2164,-4.0682,3.4363,-1.4552,0.0345,
7.093437,-0.3928,-0.6582,0.5231,-3.2024,-7.2164,-4.0682,3.4363,-1.4552,0.0345,
7.096487,0.0000,-0.6677,0.8033,-3.2024,-7.2164,-4.0682,3.4363,-1.4552,0.0345,
7.097818,0.1598,-0.6448,0.8947,-3.2024,-7.2164,-4.0682,3.4363,-1.4552,0.0345,
7.125891,0.1598,-0.6448,0.8947,-3.2024,-7.2164,-4.0682,3.9055,-0.9916,-0.6936,
7.128915,0.1598,-0.6448,0.8947,2.1441,-8.9893,-0.6504,3.9055,-0.9916,-0.6936,
7.153069,-0.0489,-0.6374,0.8759,2.1441,-8.9893,-0.6504,3.9055,-0.9916,-0.6936,
7.155339,-0.2089,-0.6404,0.8771,2.1441,-8.9893,-0.6504,3.9055,-0.9916,-0.6936,
7.157298,-0.3684,-0.6755,0.6509,2.1441,-8.9893,-0.6504,3.9055,-0.9916,-0.6936,
7.185920,-0.3684,-0.6755,0.6509,2.1441,-8.9893,-0.6504,2.8224,-0.9207,0.2960,
7.189265,-0.3684,-0.6755,0.6509,-3.3924,-11.2405,-2.2689,2.8224,-0.9207,0.2960,
7.217397,-0.3005,-0.4175,0.4107,-3.3924,-11.2405,-2.2689,2.8224,-0.9207,0.2960,
7.219582,0.1727,-0.2609,0.5395,-3.3924,-11.2405,-2.2689,2.8224,-0.9207,0.2960,
7.221428,0.4771,-0.1593,0.8964,-3.3924,-11.2405,-2.2689,2.8224,-0.9207,0.2960,
7.245898,0.4771,-0.1593,0.8964,-3.3924,-11.2405,-2.2689,3.0814,-0.7338,-1.1493,
7.247960,0.4771,-0.1593,0.8964,4.5488,-7.4513,0.9451,3.0814,-0.7338,-1.1493,
7.274784,0.3022,-0.2289,1.0811,4.5488,-7.4513,0.9451,3.0814,-0.7338,-1.1493,
7.276792,0.0975,-0.2665,1.0117,4.5488,-7.4513,0.9451,3.0814,-0.7338,-1.1493,
7.278161,0.2402,-0.1832,0.9775,4.5488,-7.4513,0.9451,3.0814,-0.7338,-1.1493,
7.306841,0.2402,-0.1832,0.9775,4.5488,-7.4513,0.9451,1.9128,-1.0838,-1.3754,
7.309441,0.2402,-0.1832,0.9775,2.2880,-8.8639,2.7820,1.9128,-1.0838,-1.3754,
7.333000,0.3494,-0.2016,0.8236,2.2880,-8.8639,2.7820,1.9128,-1.0838,-1.3754,
7.335508,0.3540,-0.0923,0.7960,2.2880,-8.8639,2.7820,1.9128,-1.0838,-1.3754,
7.336884,0.2150,0.0242,0.6770,2.2880,-8.8639,2.7820,1.9128,-1.0838,-1.3754,
7.366356,0.2150,0.0242,0.6770,2.2880,-8.8639,2.7820,-0.7120,0.3041,-0.9038,
7.369530,0.2150,0.0242,0.6770,2.3091,-7.1357,0.1714,-0.7120,0.3041,-0.9038,
7.394346,0.1737,0.0432,0.7554,2.3091,-7.1357,0.1714,-0.7120,0.3041,-0.9038,
7.397084,0.2253,0.0853,0.7530,2.3091,-7.1357,0.1714,-0.7120,0.3041,-0.9038,
7.398570,0.2756,0.0931,0.8102,2.3091,-7.1357,0.1714,-0.7120,0.3041,-0.9038,
7.426644,0.2756,0.0931,0.8102,2.3091,-7.1357,0.1714,0.4303,-0.3410,-0.8457,
7.429820,0.2756,0.0931,0.8102,3.4498,-6.1448,1.1713,0.4303,-0.3410,-0.8457,
7.455002,0.0833,-0.0288,0.9526,3.4498,-6.1448,1.1713,0.4303,-0.3410,-0.8457,
7.458397,0.0618,0.0020,1.1905,3.4498,-6.1448,1.1713,0.4303,-0.3410,-0.8457,
7.460420,0.1617,0.1029,1.2228,3.4498,-6.1448,1.1713,0.4303,-0.3410,-0.8457,
7.486214,0.1617,0.1029,1.2228,3.4498,-6.1448,1.1713,1.8597,-0.2726,-0.5831,
7.491337,0.1617,0.1029,1.2228,2.5082,-6.4232,5.6512,1.8597,-0.2726,-0.5831,
7.513327,0.1197,0.1764,1.1427,2.5082,-6.4232,5.6512,1.8597,-0.2726,-0.5831,
7.516630,0.1202,0.2489,0.8732,2.5082,-6.4232,5.6512,1.8597,-0.2726,-0.5831,
7.518194,0.2480,0.3645,0.6829,2.5082,-6.4232,5.6512,1.8597,-0.2726,-0.5831,
7.545579,0.2480,0.3645,0.6829,2.5082,-6.4232,5.6512,-1.3425,-1.0032,-1.2898,
7.548524,0.2480,0.3645,0.6829,3.6307,-3.9297,0.4912,-1.3425,-1.0032,-1.2898,
7.573708,0.1962,0.1744,0.8663,3.6307,-3.9297,0.4912,-1.3425,-1.0032,-1.2898,
7.576840,0.1617,0.2140,1.0095,3.6307,-3.9297,0.4912,-1.3425,-1.0032,-1.2898,
7.578410,0.1847,0.2497,1.0655,3.6307,-3.9297,0.4912,-1.3425,-1.0032,-1.2898,
7.605460,0.1847,0.2497,1.0655,3.6307,-3.9297,0.4912,0.0393,-0.1596,-0.7547,
7.608334,0.1847,0.2497,1.0655,3.2753,-4.5198,3.6969,0.0393,-0.1596,-0.7547,
7.633943,0.1840,0.2047,1.1383,3.2753,-4.5198,3.6969,0.0393,-0.1596,-0.7547,
7.636394,0.1928,0.1437,1.1593,3.2753,-4.5198,3.6969,0.0393,-0.1596,-0.7547,
7.637520,0.2091,0.1593,1.0369,3.2753,-4.5198,3.6969,0.0393,-0.1596,-0.7547,
7.665199,0.2091,0.1593,1.0369,3.2753,-4.5198,3.6969,0.4767,0.2637,-0.1640,
7.667822,0.2091,0.1593,1.0369,3.6873,-5.6307,3.6985,0.4767,0.2637,-0.1640,
7.699368,0.2001,0.2746,0.8556,3.6873,-5.6307,3.6985,0.4767,0.2637,-0.1640,
7.702088,0.1634,0.2976,0.8610,3.6873,-5.6307,3.6985,0.4767,0.2637,-0.1640,
7.703915,0.1642,0.2362,0.9770,3.6873,-5.6307,3.6985,0.4767,0.2637,-0.1640,
7.726938,0.1642,0.2362,0.9770,3.6873,-5.6307,3.6985,0.1316,-0.2048,-0.1439,
7.729925,0.1642,0.2362,0.9770,3.3496,-4.8834,3.1466,0.1316,-0.2048,-0.1439,
7.753187,0.1757,0.2145,1.0325,3.3496,-4.8834,3.1466,0.1316,-0.2048,-0.1439,
7.756424,0.1798,0.2296,1.0398,3.3496,-4.8834,3.1466,0.1316,-0.2048,-0.1439,
7.758626,0.2123,0.2355,1.0615,3.3496,-4.8834,3.1466,0.1316,-0.2048,-0.1439,
7.787209,0.2123,0.2355,1.0615,3.3496,-4.8834,3.1466,0.5903,-0.0728,-0.1310,
7.790120,0.2123,0.2355,1.0615,3.8074,-4.9808,4.0737,0.5903,-0.0728,-0.1310,
7.815248,0.2013,0.2504,1.0203,3.8074,-4.9808,4.0737,0.5903,-0.0728,-0.1310,
7.818559,0.1857,0.2751,0.9325,3.8074,-4.9808,4.0737,0.5903,-0.0728,-0.1310,
7.819827,0.2067,0.2959,0.8903,3.8074,-4.9808,4.0737,0.5903,-0.0728,-0.1310,
7.845555,0.2067,0.2959,0.8903,3.8074,-4.9808,4.0737,0.3851,0.3425,-0.1170,
7.848435,0.2067,0.2959,0.8903,3.7887,-4.5390,2.5822,0.3851,0.3425,-0.1170,
7.873401,0.2218,0.2888,0.9264,3.7887,-4.5390,2.5822,0.3851,0.3425,-0.1170,
7.876335,0.1830,0.2746,0.9665,3.7887,-4.5390,2.5822,0.3851,0.3425,-0.1170,
7.878031,0.1207,0.2988,0.9186,3.7887,-4.5390,2.5822,0.3851,0.3425,-0.1170,
7.905383,0.1207,0.2988,0.9186,3.7887,-4.5390,2.5822,0.2776,-0.1089,-0.1530,
7.910007,0.1207,0.2988,0.9186,3.0291,-4.6154,3.0145,0.2776,-0.1089,-0.1530,
7.934982,0.1261,0.3389,0.9164,3.0291,-4.6154,3.0145,0.2776,-0.1089,-0.1530,
7.937563,0.1686,0.3396,0.9257,3.0291,-4.6154,3.0145,0.2776,-0.1089,-0.1530,
7.939232,0.1439,0.3281,0.9081,3.0291,-4.6154,3.0145,0.2776,-0.1089,-0.1530,
7.965551,0.1439,0.3281,0.9081,3.0291,-4.6154,3.0145,0.0699,0.0090,-0.1378,
7.967882,0.1439,0.3281,0.9081,3.2719,-4.3742,2.9749,0.0699,0.0090,-0.1378,
7.995067,0.1510,0.3303,0.8656,3.2719,-4.3742,2.9749,0.0699,0.0090,-0.1378,
7.996407,0.1627,0.3491,0.9162,3.2719,-4.3742,2.9749,0.0699,0.0090,-0.1378,
7.997141,0.1043,0.3669,0.8346,3.2719,-4.3742,2.9749,0.0699,0.0090,-0.1378,
8.026414,0.1043,0.3669,0.8346,3.2719,-4.3742,2.9749,-0.5373,0.0359,0.0443,
8.027825,0.1043,0.3669,0.8346,2.9319,-3.9449,2.2075,-0.5373,0.0359,0.0443,
