
time,gFx,gFy,gFz,ax,ay,az,wx,wy,wz,
0.105526,0.0000,0.0000,0.0000,-1.3434,2.3560,-1.5355,0.0000,0.0000,0.0000,
0.165817,0.0000,0.0000,0.0000,-1.4000,2.4832,-1.5779,0.0000,0.0000,0.0000,
0.225681,0.0000,0.0000,0.0000,-1.3912,2.5875,-1.6119,0.0000,0.0000,0.0000,
0.286264,0.0000,0.0000,0.0000,-1.3912,2.5875,-1.6119,-0.1409,0.0438,0.0021,
0.287947,0.0000,0.0000,0.0000,-1.3150,2.7110,-1.6511,-0.1409,0.0438,0.0021,
0.346763,0.0000,0.0000,0.0000,-1.3150,2.7110,-1.6511,-0.2105,0.0414,0.0620,
0.349151,0.0000,0.0000,0.0000,-1.2571,2.8616,-1.6956,-0.2105,0.0414,0.0620,
0.406050,0.0000,0.0000,0.0000,-1.2571,2.8616,-1.6956,-0.1647,-0.0014,0.1445,
0.406902,0.0000,0.0000,0.0000,-1.2351,3.0351,-1.7436,-0.1647,-0.0014,0.1445,
0.434514,-0.4605,-0.7200,0.5258,-1.2351,3.0351,-1.7436,-0.1647,-0.0014,0.1445,
0.468137,-0.4605,-0.7200,0.5258,-1.2351,3.0351,-1.7436,-0.1775,0.0499,0.2440,
0.468997,-0.4605,-0.7200,0.5258,-4.4679,-9.4373,-4.3604,-0.1775,0.0499,0.2440,
0.495113,-0.3955,-0.7122,0.5561,-4.4679,-9.4373,-4.3604,-0.1775,0.0499,0.2440,
0.496856,-0.3831,-0.6995,0.5612,-4.4679,-9.4373,-4.3604,-0.1775,0.0499,0.2440,
0.498083,-0.3652,-0.7027,0.5475,-4.4679,-9.4373,-4.3604,-0.1775,0.0499,0.2440,
0.526533,-0.3652,-0.7027,0.5475,-4.4679,-9.4373,-4.3604,-0.2710,0.1013,0.2892,
0.527572,-0.3652,-0.7027,0.5475,-3.5050,-9.0861,-4.1907,-0.2710,0.1013,0.2892,
0.554701,-0.3669,-0.7132,0.5570,-3.5050,-9.0861,-4.1907,-0.2710,0.1013,0.2892,
0.556701,-0.3938,-0.7198,0.5671,-3.5050,-9.0861,-4.1907,-0.2710,0.1013,0.2892,
0.558068,-0.4178,-0.7442,0.5456,-3.5050,-9.0861,-4.1907,-0.2710,0.1013,0.2892,
0.587540,-0.4178,-0.7442,0.5456,-3.5050,-9.0861,-4.1907,-0.5019,0.0603,0.1445,
0.589838,-0.4178,-0.7442,0.5456,-3.9709,-9.2453,-4.2630,-0.5019,0.0603,0.1445,
0.615388,-0.4593,-0.8004,0.4600,-3.9709,-9.2453,-4.2630,-0.5019,0.0603,0.1445,
0.617757,-0.5268,-0.8920,0.4024,-3.9709,-9.2453,-4.2630,-0.5019,0.0603,0.1445,
0.619119,-0.5536,-0.9350,0.4231,-3.9709,-9.2453,-4.2630,-0.5019,0.0603,0.1445,
0.648311,-0.5536,-0.9350,0.4231,-3.9709,-9.2453,-4.2630,-0.2020,-0.1303,0.0797,
0.650068,-0.5536,-0.9350,0.4231,-5.3020,-10.7779,-5.5252,-0.2020,-0.1303,0.0797,
0.675352,-0.5304,-0.9343,0.5018,-5.3020,-10.7779,-5.5252,-0.2020,-0.1303,0.0797,
0.677681,-0.4678,-0.9147,0.5138,-5.3020,-10.7779,-5.5252,-0.2020,-0.1303,0.0797,
0.679860,-0.4104,-0.8866,0.4571,-5.3020,-10.7779,-5.5252,-0.2020,-0.1303,0.0797,
0.706530,-0.4104,-0.8866,0.4571,-5.3020,-10.7779,-5.5252,-0.0273,0.0854,0.1469,
0.708237,-0.4104,-0.8866,0.4571,-3.8828,-10.2048,-5.2082,-0.0273,0.0854,0.1469,
0.734391,-0.3941,-0.8299,0.4048,-3.8828,-10.2048,-5.2082,-0.0273,0.0854,0.1469,
0.736161,-0.4500,-0.7813,0.3931,-3.8828,-10.2048,-5.2082,-0.0273,0.0854,0.1469,
0.737269,-0.4798,-0.7498,0.3618,-3.8828,-10.2048,-5.2082,-0.0273,0.0854,0.1469,
0.767318,-0.4798,-0.7498,0.3618,-3.8828,-10.2048,-5.2082,-0.0352,0.5673,0.3797,
0.768929,-0.4798,-0.7498,0.3618,-4.3892,-8.8112,-6.1460,-0.0352,0.5673,0.3797,
0.796407,-0.5241,-0.7276,0.3144,-4.3892,-8.8112,-6.1460,-0.0352,0.5673,0.3797,
0.799062,-0.5744,-0.7286,0.2685,-4.3892,-8.8112,-6.1460,-0.0352,0.5673,0.3797,
0.800582,-0.6391,-0.7217,0.2228,-4.3892,-8.8112,-6.1460,-0.0352,0.5673,0.3797,
0.827591,-0.6391,-0.7217,0.2228,-4.3892,-8.8112,-6.1460,-0.3718,0.5399,0.5990,
0.829251,-0.6391,-0.7217,0.2228,-5.5878,-8.3861,-7.5113,-0.3718,0.5399,0.5990,
0.855155,-0.6738,-0.6870,0.1862,-5.5878,-8.3861,-7.5113,-0.3718,0.5399,0.5990,
0.856991,-0.6851,-0.6482,0.1681,-5.5878,-8.3861,-7.5113,-0.3718,0.5399,0.5990,
0.858187,-0.6765,-0.6259,0.1781,-5.5878,-8.3861,-7.5113,-0.3718,0.5399,0.5990,
0.887386,-0.6765,-0.6259,0.1781,-5.5878,-8.3861,-7.5113,-0.5355,0.2925,0.5366,
0.889251,-0.6765,-0.6259,0.1781,-5.6777,-7.1597,-7.9609,-0.5355,0.2925,0.5366,
0.914849,-0.7339,-0.6775,0.1820,-5.6777,-7.1597,-7.9609,-0.5355,0.2925,0.5366,
0.916578,-0.7701,-0.7491,0.2585,-5.6777,-7.1597,-7.9609,-0.5355,0.2925,0.5366,
0.917859,-0.7574,-0.7811,0.3130,-5.6777,-7.1597,-7.9609,-0.5355,0.2925,0.5366,
0.947806,-0.7574,-0.7811,0.3130,-5.6777,-7.1597,-7.9609,0.1988,-0.4131,0.2776,
0.949629,-0.7574,-0.7811,0.3130,-6.5002,-8.4840,-6.6609,0.1988,-0.4131,0.2776,
0.974882,-0.6743,-0.7654,0.3266,-6.5002,-8.4840,-6.6609,0.1988,-0.4131,0.2776,
0.977957,-0.6174,-0.7471,0.3169,-6.5002,-8.4840,-6.6609,0.1988,-0.4131,0.2776,
0.979189,-0.5778,-0.7259,0.3130,-6.5002,-8.4840,-6.6609,0.1988,-0.4131,0.2776,
1.007161,-0.5778,-0.7259,0.3130,-6.5002,-8.4840,-6.6609,0.3814,0.2082,0.3418,
1.008975,-0.5778,-0.7259,0.3130,-4.8875,-8.1407,-6.6549,0.3814,0.2082,0.3418,
1.037365,-0.5661,-0.6956,0.3081,-4.8875,-8.1407,-6.6549,0.3814,0.2082,0.3418,
1.039324,-0.5649,-0.6396,0.2939,-4.8875,-8.1407,-6.6549,0.3814,0.2082,0.3418,
1.040577,-0.5905,-0.6140,0.2614,-4.8875,-8.1407,-6.6549,0.3814,0.2082,0.3418,
1.069110,-0.5905,-0.6140,0.2614,-4.8875,-8.1407,-6.6549,-0.2185,0.2925,0.2062,
1.071008,-0.5905,-0.6140,0.2614,-4.7247,-7.0479,-7.1325,-0.2185,0.2925,0.2062,
1.094602,-0.6562,-0.6284,0.2509,-4.7247,-7.0479,-7.1325,-0.2185,0.2925,0.2062,
1.096506,-0.7071,-0.6313,0.3005,-4.7247,-7.0479,-7.1325,-0.2185,0.2925,0.2062,
1.097726,-0.7337,-0.6279,0.3618,-4.7247,-7.0479,-7.1325,-0.2185,0.2925,0.2062,
1.126792,-0.7332,-0.6174,0.3816,-4.7247,-7.0479,-7.1325,-0.2185,0.2925,0.2062,
1.128440,-0.7332,-0.6174,0.3816,-4.7247,-7.0479,-7.1325,0.1279,0.1379,0.1713,
1.129502,-0.7332,-0.6174,0.3816,-5.9991,-7.1020,-6.1419,0.1279,0.1379,0.1713,
1.130451,-0.6731,-0.6169,0.3626,-5.9991,-7.1020,-6.1419,0.1279,0.1379,0.1713,
1.187948,-0.6013,-0.6394,0.3335,-5.9991,-7.1020,-6.1419,0.1279,0.1379,0.1713,
1.189463,-0.5199,-0.6313,0.3240,-5.9991,-7.1020,-6.1419,0.1279,0.1379,0.1713,
1.190509,-0.5199,-0.6313,0.3240,-5.9991,-7.1020,-6.1419,0.3154,-0.0936,-0.0968,
1.191477,-0.5199,-0.6313,0.3240,-4.6515,-7.2835,-6.4064,0.3154,-0.0936,-0.0968,
1.192430,-0.4605,-0.6044,0.3120,-4.6515,-7.2835,-6.4064,0.3154,-0.0936,-0.0968,
1.247117,-0.4280,-0.5544,0.3169,-4.6515,-7.2835,-6.4064,0.3154,-0.0936,-0.0968,
1.248914,-0.4280,-0.5544,0.3169,-4.6515,-7.2835,-6.4064,0.5463,-0.0533,-0.2679,
1.250225,-0.4280,-0.5544,0.3169,-2.9637,-6.6372,-6.5490,0.5463,-0.0533,-0.2679,
1.251494,-0.4109,-0.5153,0.3259,-2.9637,-6.6372,-6.5490,0.5463,-0.0533,-0.2679,
1.252537,-0.4212,-0.5011,0.3464,-2.9637,-6.6372,-6.5490,0.5463,-0.0533,-0.2679,
1.307141,-0.4718,-0.5439,0.3706,-2.9637,-6.6372,-6.5490,0.5463,-0.0533,-0.2679,
1.310019,-0.5348,-0.5754,0.3652,-2.9637,-6.6372,-6.5490,0.5463,-0.0533,-0.2679,
1.312043,-0.5348,-0.5754,0.3652,-2.9637,-6.6372,-6.5490,0.5463,-0.0509,-0.3858,
1.313047,-0.5348,-0.5754,0.3652,-3.3349,-6.7713,-5.9822,0.5463,-0.0509,-0.3858,
1.314054,-0.5754,-0.5661,0.3833,-3.3349,-6.7713,-5.9822,0.5463,-0.0509,-0.3858,
1.367433,-0.6103,-0.5646,0.4283,-3.3349,-6.7713,-5.9822,0.5463,-0.0509,-0.3858,
1.369255,-0.6103,-0.5646,0.4283,-3.3349,-6.7713,-5.9822,0.5506,0.0786,-0.3735,
1.370485,-0.6694,-0.5930,0.4520,-3.3349,-6.7713,-5.9822,0.5506,0.0786,-0.3735,
1.371676,-0.7288,-0.6106,0.4283,-3.3349,-6.7713,-5.9822,0.5506,0.0786,-0.3735,
1.372718,-0.7288,-0.6106,0.4283,-4.6291,-7.2280,-5.3670,0.5506,0.0786,-0.3735,
1.426980,-0.7452,-0.5656,0.4195,-4.6291,-7.2280,-5.3670,0.5506,0.0786,-0.3735,
1.429232,-0.7452,-0.5656,0.4195,-4.6291,-7.2280,-5.3670,0.5408,0.0970,-0.1487,
1.430542,-0.7452,-0.5656,0.4195,-5.8788,-7.4976,-5.3929,0.5408,0.0970,-0.1487,
1.431822,-0.7068,-0.5099,0.4270,-5.8788,-7.4976,-5.3929,0.5408,0.0970,-0.1487,
1.432934,-0.6809,-0.5075,0.4713,-5.8788,-7.4976,-5.3929,0.5408,0.0970,-0.1487,
1.489367,-0.7127,-0.5382,0.4415,-5.8788,-7.4976,-5.3929,0.5408,0.0970,-0.1487,
1.492076,-0.7127,-0.5382,0.4415,-5.8788,-7.4976,-5.3929,0.0076,-0.0111,-0.0076,
1.493944,-0.7127,-0.5382,0.4415,-5.3920,-7.3504,-5.1250,0.0076,-0.0111,-0.0076,
1.496107,-0.7383,-0.5629,0.3919,-5.3920,-7.3504,-5.1250,0.0076,-0.0111,-0.0076,
1.498142,-0.7544,-0.5688,0.3821,-5.3920,-7.3504,-5.1250,0.0076,-0.0111,-0.0076,
1.549537,-0.7188,-0.5636,0.3845,-5.3920,-7.3504,-5.1250,0.0076,-0.0111,-0.0076,
1.552686,-0.7188,-0.5636,0.3845,-5.3920,-7.3504,-5.1250,0.1523,-0.3025,0.0186,
1.554844,-0.7188,-0.5636,0.3845,-5.5545,-7.5744,-5.7050,0.1523,-0.3025,0.0186,
1.557183,-0.6401,-0.5478,0.4021,-5.5545,-7.5744,-5.7050,0.1523,-0.3025,0.0186,
1.558981,-0.5492,-0.5617,0.3850,-5.5545,-7.5744,-5.7050,0.1523,-0.3025,0.0186,
1.607391,-0.6064,-0.6399,0.3220,-5.5545,-7.5744,-5.7050,0.1523,-0.3025,0.0186,
1.610039,-0.6716,-0.7908,0.2441,-5.5545,-7.5744,-5.7050,0.1523,-0.3025,0.0186,
1.612113,-0.6716,-0.7908,0.2441,-5.5545,-7.5744,-5.7050,0.1267,-0.7515,-0.0473,
1.613841,-0.6716,-0.7908,0.2441,-4.6346,-8.3554,-6.3372,0.1267,-0.7515,-0.0473,
1.615980,-0.7161,-0.9223,0.2489,-4.6346,-8.3554,-6.3372,0.1267,-0.7515,-0.0473,
1.668792,-0.6465,-0.9438,0.2748,-4.6346,-8.3554,-6.3372,0.1267,-0.7515,-0.0473,
1.671783,-0.5632,-0.9861,0.3218,-4.6346,-8.3554,-6.3372,0.1267,-0.7515,-0.0473,
1.673702,-0.5632,-0.9861,0.3218,-4.6346,-8.3554,-6.3372,-0.2172,-1.7246,-0.4401,
1.675415,-0.5632,-0.9861,0.3218,-5.5446,-11.2650,-6.8711,-0.2172,-1.7246,-0.4401,
1.677015,-0.5458,-1.0891,0.5561,-5.5446,-11.2650,-6.8711,-0.2172,-1.7246,-0.4401,
1.727412,-0.5304,-1.1378,0.8832,-5.5446,-11.2650,-6.8711,-0.2172,-1.7246,-0.4401,
1.730345,-0.5724,-1.1690,0.9467,-5.5446,-11.2650,-6.8711,-0.2172,-1.7246,-0.4401,
1.732395,-0.6973,-1.1676,0.8771,-5.5446,-11.2650,-6.8711,-0.2172,-1.7246,-0.4401,
1.733920,-0.6973,-1.1676,0.8771,-5.5446,-11.2650,-6.8711,0.5060,-0.6574,-0.3399,
1.735940,-0.6973,-1.1676,0.8771,-5.2224,-13.0830,-0.9589,0.5060,-0.6574,-0.3399,
1.788024,-0.7701,-0.9812,0.8761,-5.2224,-13.0830,-0.9589,0.5060,-0.6574,-0.3399,
1.790652,-0.7701,-0.9812,0.8761,-5.2224,-13.0830,-0.9589,0.1603,-0.4644,-0.1445,
1.792849,-0.7701,-0.9812,0.8761,-7.7118,-11.8722,-0.9561,0.1603,-0.4644,-0.1445,
1.795314,-0.5793,-0.7789,0.6064,-7.7118,-11.8722,-0.9561,0.1603,-0.4644,-0.1445,
1.797543,-0.4803,-0.6863,0.3848,-7.7118,-11.8722,-0.9561,0.1603,-0.4644,-0.1445,
1.849092,-0.4278,-0.7198,0.3020,-7.7118,-11.8722,-0.9561,0.1603,-0.4644,-0.1445,
1.853411,-0.4278,-0.7198,0.3020,-7.7118,-11.8722,-0.9561,-0.6998,-0.6935,-0.4786,
1.857293,-0.4278,-0.7198,0.3020,-4.7473,-9.0114,-6.6340,-0.6998,-0.6935,-0.4786,
1.859954,-0.3926,-0.7220,0.3777,-4.7473,-9.0114,-6.6340,-0.6998,-0.6935,-0.4786,
1.862693,-0.3200,-0.6914,0.4420,-4.7473,-9.0114,-6.6340,-0.6998,-0.6935,-0.4786,
1.907695,-0.2309,-0.6460,0.4608,-4.7473,-9.0114,-6.6340,-0.6998,-0.6935,-0.4786,
1.910317,-0.1329,-0.6296,0.4283,-4.7473,-9.0114,-6.6340,-0.6998,-0.6935,-0.4786,
1.912246,-0.1329,-0.6296,0.4283,-4.7473,-9.0114,-6.6340,-0.1806,0.4018,-0.3076,
1.913709,-0.1329,-0.6296,0.4283,-2.8335,-7.9923,-5.1325,-0.1806,0.4018,-0.3076,
1.915656,-0.0860,-0.6614,0.4192,-2.8335,-7.9923,-5.1325,-0.1806,0.4018,-0.3076,
1.967006,-0.1507,-0.7073,0.4913,-2.8335,-7.9923,-5.1325,-0.1806,0.4018,-0.3076,
1.970448,-0.2778,-0.7095,0.5898,-2.8335,-7.9923,-5.1325,-0.1806,0.4018,-0.3076,
1.972936,-0.3787,-0.6404,0.6237,-2.8335,-7.9923,-5.1325,-0.1806,0.4018,-0.3076,
1.974768,-0.3787,-0.6404,0.6237,-2.8335,-7.9923,-5.1325,0.2000,0.8270,-0.2190,
1.977368,-0.3787,-0.6404,0.6237,-1.6722,-8.4921,-4.8650,0.2000,0.8270,-0.2190,
2.028327,-0.4009,-0.5722,0.5956,-1.6722,-8.4921,-4.8650,0.2000,0.8270,-0.2190,
2.031075,-0.3950,-0.5446,0.5385,-1.6722,-8.4921,-4.8650,0.2000,0.8270,-0.2190,
2.032910,-0.3628,-0.5453,0.5568,-1.6722,-8.4921,-4.8650,0.2000,0.8270,-0.2190,
2.034873,-0.3628,-0.5453,0.5568,-1.6722,-8.4921,-4.8650,0.1694,0.8343,-0.0748,
2.037063,-0.3628,-0.5453,0.5568,-3.5811,-7.2691,-3.8212,0.1694,0.8343,-0.0748,
2.088518,-0.3506,-0.5685,0.5974,-3.5811,-7.2691,-3.8212,0.1694,0.8343,-0.0748,
2.091744,-0.3506,-0.5685,0.5974,-3.5811,-7.2691,-3.8212,0.1371,1.2814,0.1946,
2.093833,-0.3506,-0.5685,0.5974,-2.4487,-7.2654,-3.7546,0.1371,1.2814,0.1946,
2.095939,-0.3618,-0.5847,0.6000,-2.4487,-7.2654,-3.7546,0.1371,1.2814,0.1946,
2.097958,-0.3716,-0.5553,0.5531,-2.4487,-7.2654,-3.7546,0.1371,1.2814,0.1946,
2.147031,-0.4033,-0.5282,0.5153,-2.4487,-7.2654,-3.7546,0.1371,1.2814,0.1946,
2.150727,-0.4187,-0.4972,0.5084,-2.4487,-7.2654,-3.7546,0.1371,1.2814,0.1946,
2.153039,-0.4187,-0.4972,0.5084,-2.4487,-7.2654,-3.7546,0.3173,1.0298,0.3766,
2.155576,-0.4187,-0.4972,0.5084,-2.3154,-6.9529,-4.4547,0.3173,1.0298,0.3766,
2.157873,-0.4368,-0.5219,0.5177,-2.3154,-6.9529,-4.4547,0.3173,1.0298,0.3766,
2.208743,-0.4595,-0.6110,0.5045,-2.3154,-6.9529,-4.4547,0.3173,1.0298,0.3766,
2.211643,-0.4788,-0.7212,0.4676,-2.3154,-6.9529,-4.4547,0.3173,1.0298,0.3766,
2.213783,-0.4788,-0.7212,0.4676,-2.3154,-6.9529,-4.4547,0.1413,0.8972,0.4359,
2.215579,-0.4788,-0.7212,0.4676,-2.3000,-7.9436,-4.4093,0.1413,0.8972,0.4359,
2.217274,-0.4864,-0.7740,0.4454,-2.3000,-7.9436,-4.4093,0.1413,0.8972,0.4359,
2.268873,-0.4823,-0.7479,0.4573,-2.3000,-7.9436,-4.4093,0.1413,0.8972,0.4359,
2.272085,-0.4273,-0.6562,0.4703,-2.3000,-7.9436,-4.4093,0.1413,0.8972,0.4359,
2.273949,-0.4151,-0.5876,0.4319,-2.3000,-7.9436,-4.4093,0.1413,0.8972,0.4359,
2.275627,-0.4151,-0.5876,0.4319,-2.3000,-7.9436,-4.4093,0.0833,0.3157,0.1060,
2.277092,-0.4151,-0.5876,0.4319,-2.2116,-9.2996,-4.7897,0.0833,0.3157,0.1060,
2.326797,-0.4214,-0.5942,0.4136,-2.2116,-9.2996,-4.7897,0.0833,0.3157,0.1060,
2.329784,-0.4097,-0.6108,0.4256,-2.2116,-9.2996,-4.7897,0.0833,0.3157,0.1060,
2.331752,-0.3833,-0.6164,0.4747,-2.2116,-9.2996,-4.7897,0.0833,0.3157,0.1060,
2.333116,-0.3833,-0.6164,0.4747,-2.2116,-9.2996,-4.7897,0.0442,0.2576,0.1463,
2.334493,-0.3833,-0.6164,0.4747,-1.4334,-7.7996,-5.1657,0.0442,0.2576,0.1463,
2.389819,-0.3621,-0.6088,0.5485,-1.4334,-7.7996,-5.1657,0.0442,0.2576,0.1463,
2.393794,-0.3494,-0.6145,0.5727,-1.4334,-7.7996,-5.1657,0.0442,0.2576,0.1463,
2.395881,-0.3494,-0.6145,0.5727,-1.4334,-7.7996,-5.1657,0.1957,0.6144,0.1518,
2.397640,-0.3494,-0.6145,0.5727,-0.6135,-7.9648,-3.7661,0.1957,0.6144,0.1518,
2.399373,-0.3801,-0.6711,0.5441,-0.6135,-7.9648,-3.7661,0.1957,0.6144,0.1518,
2.447836,-0.4603,-0.7359,0.4798,-0.6135,-7.9648,-3.7661,0.1957,0.6144,0.1518,
2.450345,-0.6259,-0.8822,0.3721,-0.6135,-7.9648,-3.7661,0.1957,0.6144,0.1518,
2.452093,-0.8033,-0.9799,0.2990,-0.6135,-7.9648,-3.7661,0.1957,0.6144,0.1518,
2.453679,-0.8033,-0.9799,0.2990,-0.6135,-7.9648,-3.7661,0.0833,0.0279,-0.3742,
2.455087,-0.8033,-0.9799,0.2990,-1.3668,-9.2742,-4.3550,0.0833,0.0279,-0.3742,
2.508777,-0.9531,-0.9978,0.2741,-1.3668,-9.2742,-4.3550,0.0833,0.0279,-0.3742,
2.514432,-0.9531,-0.9978,0.2741,-1.3668,-9.2742,-4.3550,0.0515,-0.0771,0.0785,
2.516625,-0.9531,-0.9978,0.2741,-6.1641,-11.7054,-6.3895,0.0515,-0.0771,0.0785,
2.519867,-0.9433,-0.8795,0.2998,-6.1641,-11.7054,-6.3895,0.0515,-0.0771,0.0785,
2.522409,-0.8123,-0.7369,0.3516,-6.1641,-11.7054,-6.3895,0.0515,-0.0771,0.0785,
2.567906,-0.8448,-0.7857,0.4390,-6.1641,-11.7054,-6.3895,0.0515,-0.0771,0.0785,
2.570406,-0.9206,-0.8727,0.4346,-6.1641,-11.7054,-6.3895,0.0515,-0.0771,0.0785,
2.572422,-1.0332,-0.9934,0.3970,-6.1641,-11.7054,-6.3895,0.0515,-0.0771,0.0785,
2.574360,-1.0332,-0.9934,0.3970,-6.1641,-11.7054,-6.3895,-0.1158,0.5875,-0.0027,
2.576321,-1.0332,-0.9934,0.3970,-4.8839,-9.5897,-4.7015,-0.1158,0.5875,-0.0027,
2.627294,-1.0628,-0.9516,0.4361,-4.8839,-9.5897,-4.7015,-0.1158,0.5875,-0.0027,
2.630179,-0.8737,-0.7889,0.5346,-4.8839,-9.5897,-4.7015,-0.1158,0.5875,-0.0027,
2.632553,-0.7762,-0.7415,0.6074,-4.8839,-9.5897,-4.7015,-0.1158,0.5875,-0.0027,
2.634036,-0.7762,-0.7415,0.6074,-4.8839,-9.5897,-4.7015,0.1639,0.3407,0.0950,
2.635383,-0.7762,-0.7415,0.6074,-6.7902,-11.0628,-4.6713,0.1639,0.3407,0.0950,
2.687294,-0.7564,-0.7232,0.5072,-6.7902,-11.0628,-4.6713,0.1639,0.3407,0.0950,
2.690300,-0.7564,-0.7232,0.5072,-6.7902,-11.0628,-4.6713,0.5555,0.6498,-0.0247,
2.692576,-0.7564,-0.7232,0.5072,-3.3884,-9.0929,-3.7443,0.5555,0.6498,-0.0247,
2.694631,-0.7454,-0.6685,0.3169,-3.3884,-9.0929,-3.7443,0.5555,0.6498,-0.0247,
2.696564,-0.6963,-0.6044,0.2477,-3.3884,-9.0929,-3.7443,0.5555,0.6498,-0.0247,
2.747188,-0.6174,-0.5468,0.2514,-3.3884,-9.0929,-3.7443,0.5555,0.6498,-0.0247,
2.750512,-0.5795,-0.5006,0.2460,-3.3884,-9.0929,-3.7443,0.5555,0.6498,-0.0247,
2.752355,-0.5370,-0.4537,0.2580,-3.3884,-9.0929,-3.7443,0.5555,0.6498,-0.0247,
2.753705,-0.5370,-0.4537,0.2580,-3.3884,-9.0929,-3.7443,0.1474,0.2747,-0.0467,
2.754997,-0.5370,-0.4537,0.2580,-1.7175,-7.4501,-6.0816,0.1474,0.2747,-0.0467,
2.810263,-0.5040,-0.4366,0.3125,-1.7175,-7.4501,-6.0816,0.1474,0.2747,-0.0467,
2.813133,-0.5512,-0.4930,0.3115,-1.7175,-7.4501,-6.0816,0.1474,0.2747,-0.0467,
2.816056,-0.5512,-0.4930,0.3115,-1.7175,-7.4501,-6.0816,0.1132,0.3957,-0.1378,
2.818226,-0.5512,-0.4930,0.3115,-0.4021,-6.3729,-5.3755,0.1132,0.3957,-0.1378,
2.819736,-0.6071,-0.5566,0.3454,-0.4021,-6.3729,-5.3755,0.1132,0.3957,-0.1378,
2.867896,-0.5465,-0.5265,0.3596,-0.4021,-6.3729,-5.3755,0.1132,0.3957,-0.1378,
2.869903,-0.4818,-0.5057,0.4129,-0.4021,-6.3729,-5.3755,0.1132,0.3957,-0.1378,
2.871623,-0.4703,-0.5001,0.4253,-0.4021,-6.3729,-5.3755,0.1132,0.3957,-0.1378,
2.873378,-0.4703,-0.5001,0.4253,-0.4021,-6.3729,-5.3755,0.1401,0.2381,-0.3137,
2.875164,-0.4703,-0.5001,0.4253,-0.6089,-7.2067,-4.8091,0.1401,0.2381,-0.3137,
2.926839,-0.5128,-0.5040,0.4134,-0.6089,-7.2067,-4.8091,0.1401,0.2381,-0.3137,
2.928785,-0.5597,-0.5167,0.3525,-0.6089,-7.2067,-4.8091,0.1401,0.2381,-0.3137,
2.930450,-0.5597,-0.5167,0.3525,-0.6089,-7.2067,-4.8091,0.2739,-0.0661,-0.3564,
2.932448,-0.5597,-0.5167,0.3525,-0.1216,-6.9364,-4.2032,0.2739,-0.0661,-0.3564,
2.934165,-0.6174,-0.4952,0.3000,-0.1216,-6.9364,-4.2032,0.2739,-0.0661,-0.3564,
2.987889,-0.6335,-0.5280,0.2832,-0.1216,-6.9364,-4.2032,0.2739,-0.0661,-0.3564,
2.990440,-0.6335,-0.5280,0.2832,-0.1216,-6.9364,-4.2032,-0.1610,-0.4137,-0.4414,
2.992485,-0.6335,-0.5280,0.2832,-1.3697,-7.0554,-5.5449,-0.1610,-0.4137,-0.4414,
2.994377,-0.6086,-0.5673,0.3371,-1.3697,-7.0554,-5.5449,-0.1610,-0.4137,-0.4414,
2.995995,-0.6303,-0.5715,0.4063,-1.3697,-7.0554,-5.5449,-0.1610,-0.4137,-0.4414,
3.049094,-0.6269,-0.5268,0.4898,-1.3697,-7.0554,-5.5449,-0.1610,-0.4137,-0.4414,
3.052320,-0.5993,-0.4920,0.4722,-1.3697,-7.0554,-5.5449,-0.1610,-0.4137,-0.4414,
3.054164,-0.6389,-0.5331,0.3845,-1.3697,-7.0554,-5.5449,-0.1610,-0.4137,-0.4414,
3.055923,-0.6389,-0.5331,0.3845,-1.3697,-7.0554,-5.5449,0.3154,0.0023,-0.2013,
3.058116,-0.6389,-0.5331,0.3845,-1.3958,-6.8748,-3.6076,0.3154,0.0023,-0.2013,
3.107442,-0.6162,-0.5304,0.3745,-1.3958,-6.8748,-3.6076,0.3154,0.0023,-0.2013,
3.110089,-0.6162,-0.5304,0.3745,-1.3958,-6.8748,-3.6076,0.0912,-0.1828,-0.1420,
3.112695,-0.6162,-0.5304,0.3745,-1.2547,-6.9461,-4.7101,0.0912,-0.1828,-0.1420,
3.114897,-0.6010,-0.4879,0.4527,-1.2547,-6.9461,-4.7101,0.0912,-0.1828,-0.1420,
3.117003,-0.6518,-0.4644,0.4891,-1.2547,-6.9461,-4.7101,0.0912,-0.1828,-0.1420,
3.169035,-0.6772,-0.5155,0.4466,-1.2547,-6.9461,-4.7101,0.0912,-0.1828,-0.1420,
3.172144,-0.7039,-0.7071,0.3816,-1.2547,-6.9461,-4.7101,0.0912,-0.1828,-0.1420,
3.174692,-0.7039,-0.7071,0.3816,-1.2547,-6.9461,-4.7101,0.1572,-0.3496,0.0577,
3.178304,-0.7039,-0.7071,0.3816,-1.9430,-6.8365,-4.0467,0.1572,-0.3496,0.0577,
3.180812,-0.7581,-0.8505,0.3645,-1.9430,-6.8365,-4.0467,0.1572,-0.3496,0.0577,
3.229038,-0.8424,-0.9250,0.3596,-1.9430,-6.8365,-4.0467,0.1572,-0.3496,0.0577,
3.232156,-0.8641,-0.9689,0.3994,-1.9430,-6.8365,-4.0467,0.1572,-0.3496,0.0577,
3.234196,-0.8641,-0.9689,0.3994,-1.9430,-6.8365,-4.0467,0.0815,-1.1303,-0.0773,
3.235791,-0.8641,-0.9689,0.3994,-3.9168,-10.8812,-5.0807,0.0815,-1.1303,-0.0773,
3.237211,-0.8038,-1.0408,0.4273,-3.9168,-10.8812,-5.0807,0.0815,-1.1303,-0.0773,
3.287543,-0.7493,-1.1536,0.4957,-3.9168,-10.8812,-5.0807,0.0815,-1.1303,-0.0773,
3.289856,-0.7493,-1.1536,0.4957,-3.9168,-10.8812,-5.0807,-0.1403,-2.5670,-0.4255,
3.292104,-0.7493,-1.1536,0.4957,-3.8668,-12.9391,-4.1653,-0.1403,-2.5670,-0.4255,
3.294461,-0.6819,-1.2221,0.6665,-3.8668,-12.9391,-4.1653,-0.1403,-2.5670,-0.4255,
3.296280,-0.6037,-1.1028,0.8568,-3.8668,-12.9391,-4.1653,-0.1403,-2.5670,-0.4255,
3.348797,-0.5233,-0.8864,0.8673,-3.8668,-12.9391,-4.1653,-0.1403,-2.5670,-0.4255,
3.352446,-0.4549,-0.8746,0.7679,-3.8668,-12.9391,-4.1653,-0.1403,-2.5670,-0.4255,
3.354569,-0.5031,-0.9804,0.7547,-3.8668,-12.9391,-4.1653,-0.1403,-2.5670,-0.4255,
3.356421,-0.5031,-0.9804,0.7547,-3.8668,-12.9391,-4.1653,0.4816,-0.5817,-0.1591,
3.357979,-0.5031,-0.9804,0.7547,-2.5135,-10.3126,-0.8109,0.4816,-0.5817,-0.1591,
3.407145,-0.5734,-0.9711,0.7156,-2.5135,-10.3126,-0.8109,0.4816,-0.5817,-0.1591,
3.409914,-0.5734,-0.9711,0.7156,-2.5135,-10.3126,-0.8109,-0.0517,-0.5249,0.0278,
3.411397,-0.5734,-0.9711,0.7156,-3.3594,-11.2325,-2.3743,-0.0517,-0.5249,0.0278,
3.413092,-0.5392,-0.8197,0.6110,-3.3594,-11.2325,-2.3743,-0.0517,-0.5249,0.0278,
3.414627,-0.3968,-0.6044,0.4991,-3.3594,-11.2325,-2.3743,-0.0517,-0.5249,0.0278,
3.468772,-0.3137,-0.4566,0.3816,-3.3594,-11.2325,-2.3743,-0.0517,-0.5249,0.0278,
3.472666,-0.3137,-0.4566,0.3816,-3.3594,-11.2325,-2.3743,-0.7609,-0.5084,0.0644,
3.474409,-0.2565,-0.3787,0.2890,-3.3594,-11.2325,-2.3743,-0.7609,-0.5084,0.0644,
3.475934,-0.2074,-0.3762,0.2951,-3.3594,-11.2325,-2.3743,-0.7609,-0.5084,0.0644,
3.477438,-0.2074,-0.3762,0.2951,-1.0456,-5.9543,-5.7400,-0.7609,-0.5084,0.0644,
3.528048,-0.1813,-0.4749,0.3635,-1.0456,-5.9543,-5.7400,-0.7609,-0.5084,0.0644,
3.531141,-0.1813,-0.4749,0.3635,-1.0456,-5.9543,-5.7400,-0.6729,-0.0338,0.1408,
3.533344,-0.1813,-0.4749,0.3635,0.0100,-5.6301,-6.0305,-0.6729,-0.0338,0.1408,
3.536388,-0.1698,-0.5949,0.4273,0.0100,-5.6301,-6.0305,-0.6729,-0.0338,0.1408,
3.539329,-0.1576,-0.6648,0.4324,0.0100,-5.6301,-6.0305,-0.6729,-0.0338,0.1408,
3.587766,-0.2147,-0.6653,0.4148,0.0100,-5.6301,-6.0305,-0.6729,-0.0338,0.1408,
3.590592,-0.2147,-0.6653,0.4148,0.0100,-5.6301,-6.0305,-0.3101,0.5026,0.5269,
3.591646,-0.2147,-0.6653,0.4148,-0.1455,-7.1738,-5.5213,-0.3101,0.5026,0.5269,
3.592701,-0.2744,-0.6035,0.4439,-0.1455,-7.1738,-5.5213,-0.3101,0.5026,0.5269,
3.593641,-0.3188,-0.5187,0.4583,-0.1455,-7.1738,-5.5213,-0.3101,0.5026,0.5269,
3.647799,-0.3635,-0.4703,0.4214,-0.1455,-7.1738,-5.5213,-0.3101,0.5026,0.5269,
3.650264,-0.3635,-0.4703,0.4214,-0.1455,-7.1738,-5.5213,-0.2661,0.3157,0.7669,
3.651825,-0.3728,-0.4498,0.4334,-0.1455,-7.1738,-5.5213,-0.2661,0.3157,0.7669,
3.653160,-0.3833,-0.4757,0.5092,-0.1455,-7.1738,-5.5213,-0.2661,0.3157,0.7669,
3.654776,-0.3833,-0.4757,0.5092,-1.4107,-5.1306,-5.4234,-0.2661,0.3157,0.7669,
3.710136,-0.4097,-0.5744,0.5155,-1.4107,-5.1306,-5.4234,-0.2661,0.3157,0.7669,
3.713598,-0.4097,-0.5744,0.5155,-1.4107,-5.1306,-5.4234,-0.1384,0.8887,0.8311,
3.715534,-0.4097,-0.5744,0.5155,-1.5017,-6.1119,-4.4147,-0.1384,0.8887,0.8311,
3.717434,-0.4395,-0.6533,0.5270,-1.5017,-6.1119,-4.4147,-0.1384,0.8887,0.8311,
3.719033,-0.4559,-0.7005,0.5184,-1.5017,-6.1119,-4.4147,-0.1384,0.8887,0.8311,
3.768193,-0.5417,-0.7632,0.4852,-1.5017,-6.1119,-4.4147,-0.1384,0.8887,0.8311,
3.771312,-0.5417,-0.7632,0.4852,-1.5017,-6.1119,-4.4147,-0.5251,-0.1486,0.4957,
3.773708,-0.4896,-0.7840,0.5341,-1.5017,-6.1119,-4.4147,-0.5251,-0.1486,0.4957,
3.775990,-0.4205,-0.7303,0.4827,-1.5017,-6.1119,-4.4147,-0.5251,-0.1486,0.4957,
3.778323,-0.4205,-0.7303,0.4827,-2.6414,-7.7447,-4.6785,-0.5251,-0.1486,0.4957,
3.829621,-0.3301,-0.7180,0.5607,-2.6414,-7.7447,-4.6785,-0.5251,-0.1486,0.4957,
3.833166,-0.3301,-0.7180,0.5607,-2.6414,-7.7447,-4.6785,-0.4225,0.1159,0.2954,
3.835411,-0.3301,-0.7180,0.5607,-0.5739,-7.0548,-3.9438,-0.4225,0.1159,0.2954,
3.837641,-0.2968,-0.7564,0.5822,-0.5739,-7.0548,-3.9438,-0.4225,0.1159,0.2954,
3.840127,-0.3452,-0.7740,0.5658,-0.5739,-7.0548,-3.9438,-0.4225,0.1159,0.2954,
3.888231,-0.3332,-0.7535,0.5353,-0.5739,-7.0548,-3.9438,-0.4225,0.1159,0.2954,
3.891726,-0.3469,-0.7439,0.4209,-0.5739,-7.0548,-3.9438,-0.4225,0.1159,0.2954,
3.893377,-0.3469,-0.7439,0.4209,-0.5739,-7.0548,-3.9438,0.0625,-0.2237,-0.0260,
3.895357,-0.3469,-0.7439,0.4209,-0.5793,-7.2606,-4.1847,0.0625,-0.2237,-0.0260,
3.897342,-0.4376,-0.7615,0.3078,-0.5793,-7.2606,-4.1847,0.0625,-0.2237,-0.0260,
3.948279,-0.5815,-0.8629,0.2514,-0.5793,-7.2606,-4.1847,0.0625,-0.2237,-0.0260,
3.952056,-0.5815,-0.8629,0.2514,-0.5793,-7.2606,-4.1847,-0.1171,-0.5304,-0.0168,
3.954476,-0.6499,-0.9687,0.2585,-0.5793,-7.2606,-4.1847,-0.1171,-0.5304,-0.0168,
3.956636,-0.7127,-1.0129,0.2199,-0.5793,-7.2606,-4.1847,-0.1171,-0.5304,-0.0168,
3.958712,-0.7127,-1.0129,0.2199,-3.2666,-8.2923,-7.0353,-0.1171,-0.5304,-0.0168,
4.009330,-0.8299,-0.9384,0.2155,-3.2666,-8.2923,-7.0353,-0.1171,-0.5304,-0.0168,
4.012778,-0.8299,-0.9384,0.2155,-3.2666,-8.2923,-7.0353,-0.4555,-0.2237,0.2752,
4.014925,-0.8549,-0.7510,0.2895,-3.2666,-8.2923,-7.0353,-0.4555,-0.2237,0.2752,
4.016985,-0.8549,-0.7510,0.2895,-5.7747,-8.7631,-7.3972,-0.4555,-0.2237,0.2752,
4.019028,-0.8541,-0.6750,0.4295,-5.7747,-8.7631,-7.3972,-0.4555,-0.2237,0.2752,
4.069624,-0.9839,-0.9675,0.8522,-5.7747,-8.7631,-7.3972,-0.4555,-0.2237,0.2752,
4.073609,-0.9839,-0.9675,0.8522,-5.7747,-8.7631,-7.3972,-0.1910,1.0896,0.6258,
4.076209,-0.9839,-0.9675,0.8522,-6.9858,-8.7541,-1.0608,-0.1910,1.0896,0.6258,
4.078335,-1.1427,-1.1109,0.7264,-6.9858,-8.7541,-1.0608,-0.1910,1.0896,0.6258,
4.080444,-1.1202,-1.1177,0.5280,-6.9858,-8.7541,-1.0608,-0.1910,1.0896,0.6258,
4.129803,-0.8407,-0.8837,0.3621,-6.9858,-8.7541,-1.0608,-0.1910,1.0896,0.6258,
4.133016,-0.8407,-0.8837,0.3621,-6.9858,-8.7541,-1.0608,0.3014,-0.0234,-0.0137,
4.134888,-0.5817,-0.7151,0.3982,-6.9858,-8.7541,-1.0608,0.3014,-0.0234,-0.0137,
4.136758,-0.7044,-0.8509,0.4429,-6.9858,-8.7541,-1.0608,0.3014,-0.0234,-0.0137,
4.138439,-0.7044,-0.8509,0.4429,-5.2126,-7.9980,-5.7563,0.3014,-0.0234,-0.0137,
4.189315,-0.7662,-0.8065,0.4183,-5.2126,-7.9980,-5.7563,0.3014,-0.0234,-0.0137,
4.194073,-0.7662,-0.8065,0.4183,-5.2126,-7.9980,-5.7563,0.0906,0.1544,0.1042,
4.196341,-0.7662,-0.8065,0.4183,-4.4246,-7.3245,-5.1922,0.0906,0.1544,0.1042,
4.198404,-0.7290,-0.6670,0.3848,-4.4246,-7.3245,-5.1922,0.0906,0.1544,0.1042,
4.200475,-0.6821,-0.5507,0.3437,-4.4246,-7.3245,-5.1922,0.0906,0.1544,0.1042,
4.248134,-0.6330,-0.4950,0.3298,-4.4246,-7.3245,-5.1922,0.0906,0.1544,0.1042,
4.251613,-0.6330,-0.4950,0.3298,-4.4246,-7.3245,-5.1922,-0.0499,0.2118,0.1475,
4.253901,-0.5839,-0.4625,0.3232,-4.4246,-7.3245,-5.1922,-0.0499,0.2118,0.1475,
4.255958,-0.5795,-0.4561,0.3288,-4.4246,-7.3245,-5.1922,-0.0499,0.2118,0.1475,
4.257823,-0.5795,-0.4561,0.3288,-3.0338,-4.2768,-6.0303,-0.0499,0.2118,0.1475,
4.309197,-0.5368,-0.4424,0.2651,-3.0338,-4.2768,-6.0303,-0.0499,0.2118,0.1475,
4.313528,-0.5368,-0.4424,0.2651,-3.0338,-4.2768,-6.0303,-0.2221,0.2436,0.3131,
4.316146,-0.5851,-0.4642,0.2573,-3.0338,-4.2768,-6.0303,-0.2221,0.2436,0.3131,
4.318575,-0.5851,-0.4642,0.2573,-1.8461,-3.7602,-6.5774,-0.2221,0.2436,0.3131,
4.321143,-0.6404,-0.4891,0.2568,-1.8461,-3.7602,-6.5774,-0.2221,0.2436,0.3131,
4.367798,-0.6443,-0.5490,0.3205,-1.8461,-3.7602,-6.5774,-0.2221,0.2436,0.3131,
4.371679,-0.6443,-0.5490,0.3205,-1.8461,-3.7602,-6.5774,-0.6510,-0.8254,0.0962,
4.374029,-0.6443,-0.5490,0.3205,-2.9751,-4.5390,-6.0412,-0.6510,-0.8254,0.0962,
4.376292,-0.6262,-0.6086,0.3760,-2.9751,-4.5390,-6.0412,-0.6510,-0.8254,0.0962,
4.378129,-0.5827,-0.6018,0.4327,-2.9751,-4.5390,-6.0412,-0.6510,-0.8254,0.0962,
4.429217,-0.5192,-0.5666,0.4525,-2.9751,-4.5390,-6.0412,-0.6510,-0.8254,0.0962,
4.434074,-0.5192,-0.5666,0.4525,-2.9751,-4.5390,-6.0412,0.0094,-0.3477,-0.0608,
4.436531,-0.5192,-0.5666,0.4525,-2.0704,-4.5005,-4.8373,0.0094,-0.3477,-0.0608,
4.438496,-0.4801,-0.5993,0.4266,-2.0704,-4.5005,-4.8373,0.0094,-0.3477,-0.0608,
4.440430,-0.4879,-0.6448,0.3738,-2.0704,-4.5005,-4.8373,0.0094,-0.3477,-0.0608,
4.489120,-0.5314,-0.6386,0.3454,-2.0704,-4.5005,-4.8373,0.0094,-0.3477,-0.0608,
4.494435,-0.5314,-0.6386,0.3454,-2.0704,-4.5005,-4.8373,0.1401,-0.5163,-0.2092,
4.497474,-0.5314,-0.6386,0.3454,-2.4370,-5.1554,-5.9568,0.1401,-0.5163,-0.2092,
4.500091,-0.5458,-0.5502,0.3464,-2.4370,-5.1554,-5.9568,0.1401,-0.5163,-0.2092,
4.502637,-0.5417,-0.5373,0.3425,-2.4370,-5.1554,-5.9568,0.1401,-0.5163,-0.2092,
4.548256,-0.5162,-0.5639,0.3271,-2.4370,-5.1554,-5.9568,0.1401,-0.5163,-0.2092,
4.552733,-0.5162,-0.5639,0.3271,-2.4370,-5.1554,-5.9568,0.1713,-0.2665,-0.1842,
4.554390,-0.5162,-0.5639,0.3271,-2.4875,-4.4632,-6.1977,0.1713,-0.2665,-0.1842,
4.556141,-0.4933,-0.5658,0.3538,-2.4875,-4.4632,-6.1977,0.1713,-0.2665,-0.1842,
4.558076,-0.4937,-0.5793,0.4026,-2.4875,-4.4632,-6.1977,0.1713,-0.2665,-0.1842,
4.610174,-0.5336,-0.5930,0.4314,-2.4875,-4.4632,-6.1977,0.1713,-0.2665,-0.1842,
4.614119,-0.5336,-0.5930,0.4314,-2.4875,-4.4632,-6.1977,0.2018,-0.0399,-0.1481,
4.615707,-0.5336,-0.5930,0.4314,-2.7140,-4.7703,-5.1931,0.2018,-0.0399,-0.1481,
4.617601,-0.5876,-0.5607,0.4654,-2.7140,-4.7703,-5.1931,0.2018,-0.0399,-0.1481,
4.619541,-0.6257,-0.5231,0.4849,-2.7140,-4.7703,-5.1931,0.2018,-0.0399,-0.1481,
4.668860,-0.6196,-0.4945,0.5141,-2.7140,-4.7703,-5.1931,0.2018,-0.0399,-0.1481,
4.673327,-0.6196,-0.4945,0.5141,-2.7140,-4.7703,-5.1931,0.3051,0.0872,-0.0370,
4.676007,-0.6096,-0.4573,0.5324,-2.7140,-4.7703,-5.1931,0.3051,0.0872,-0.0370,
4.677912,-0.6096,-0.4573,0.5324,-3.5271,-3.8942,-4.3850,0.3051,0.0872,-0.0370,
4.680070,-0.6169,-0.4517,0.5097,-3.5271,-3.8942,-4.3850,0.3051,0.0872,-0.0370,
4.728957,-0.6765,-0.5253,0.4060,-3.5271,-3.8942,-4.3850,0.3051,0.0872,-0.0370,
4.732698,-0.6765,-0.5253,0.4060,-3.5271,-3.8942,-4.3850,0.4926,-0.5982,0.0327,
4.735708,-0.6765,-0.5253,0.4060,-4.1336,-4.3847,-5.4737,0.4926,-0.5982,0.0327,
4.738635,-0.6929,-0.5607,0.3291,-4.1336,-4.3847,-5.4737,0.4926,-0.5982,0.0327,
4.741256,-0.7041,-0.7017,0.3266,-4.1336,-4.3847,-5.4737,0.4926,-0.5982,0.0327,
4.788736,-0.7144,-0.9071,0.3550,-4.1336,-4.3847,-5.4737,0.4926,-0.5982,0.0327,
4.793350,-0.8155,-0.9795,0.3591,-4.1336,-4.3847,-5.4737,0.4926,-0.5982,0.0327,
4.798315,-0.7520,-0.9699,0.3784,-4.1336,-4.3847,-5.4737,0.4926,-0.5982,0.0327,
4.800739,-0.7520,-0.9699,0.3784,-4.1336,-4.3847,-5.4737,-0.1219,-0.7753,0.0791,
4.802511,-0.7520,-0.9699,0.3784,-4.7472,-8.2612,-6.0447,-0.1219,-0.7753,0.0791,
4.846733,-0.6609,-1.0093,0.3997,-4.7472,-8.2612,-6.0447,-0.1219,-0.7753,0.0791,
4.849317,-0.6609,-1.0093,0.3997,-4.7472,-8.2612,-6.0447,-0.5764,-1.6055,-0.2190,
4.850732,-0.6609,-1.0093,0.3997,-4.8884,-8.9906,-5.7183,-0.5764,-1.6055,-0.2190,
4.852461,-0.6518,-1.0549,0.5153,-4.8884,-8.9906,-5.7183,-0.5764,-1.6055,-0.2190,
4.853812,-0.6411,-1.0454,0.8126,-4.8884,-8.9906,-5.7183,-0.5764,-1.6055,-0.2190,
4.909091,-0.6355,-1.0972,1.0073,-4.8884,-8.9906,-5.7183,-0.5764,-1.6055,-0.2190,
4.912495,-0.6355,-1.0972,1.0073,-4.8884,-8.9906,-5.7183,0.2287,-1.0649,-0.1860,
4.914527,-0.6926,-1.1808,0.9093,-4.8884,-8.9906,-5.7183,0.2287,-1.0649,-0.1860,
4.916338,-0.6926,-1.1808,0.9093,-5.4518,-9.6646,0.1564,0.2287,-1.0649,-0.1860,
4.917859,-0.6907,-1.1021,0.7791,-5.4518,-9.6646,0.1564,0.2287,-1.0649,-0.1860,
4.968244,-0.5666,-0.8866,0.6118,-5.4518,-9.6646,0.1564,0.2287,-1.0649,-0.1860,
4.970556,-0.4994,-0.7447,0.5045,-5.4518,-9.6646,0.1564,0.2287,-1.0649,-0.1860,
4.972174,-0.4994,-0.7447,0.5045,-5.4518,-9.6646,0.1564,-0.2667,-1.0197,-0.1292,
4.973736,-0.4994,-0.7447,0.5045,-5.3396,-7.6376,-3.7524,-0.2667,-1.0197,-0.1292,
4.975539,-0.4410,-0.6345,0.3997,-5.3396,-7.6376,-3.7524,-0.2667,-1.0197,-0.1292,
5.028611,-0.3870,-0.5619,0.3496,-5.3396,-7.6376,-3.7524,-0.2667,-1.0197,-0.1292,
5.031938,-0.3870,-0.5619,0.3496,-5.3396,-7.6376,-3.7524,-0.9625,-0.2427,-0.1469,
5.033726,-0.2895,-0.4886,0.3103,-5.3396,-7.6376,-3.7524,-0.9625,-0.2427,-0.1469,
5.035853,-0.2240,-0.4991,0.2893,-5.3396,-7.6376,-3.7524,-0.9625,-0.2427,-0.1469,
5.037866,-0.2240,-0.4991,0.2893,-3.9324,-4.0484,-6.2705,-0.9625,-0.2427,-0.1469,
5.089564,-0.1517,-0.5470,0.3247,-3.9324,-4.0484,-6.2705,-0.9625,-0.2427,-0.1469,
5.093067,-0.1517,-0.5470,0.3247,-3.9324,-4.0484,-6.2705,-0.3553,0.2069,-0.0742,
5.095449,-0.1517,-0.5470,0.3247,-1.7000,-3.3821,-6.4207,-0.3553,0.2069,-0.0742,
5.097771,-0.1256,-0.6076,0.4058,-1.7000,-3.3821,-6.4207,-0.3553,0.2069,-0.0742,
5.100141,-0.1673,-0.6746,0.4566,-1.7000,-3.3821,-6.4207,-0.3553,0.2069,-0.0742,
5.148043,-0.2042,-0.6821,0.4126,-1.7000,-3.3821,-6.4207,-0.3553,0.2069,-0.0742,
5.151901,-0.2042,-0.6821,0.4126,-1.7000,-3.3821,-6.4207,0.1682,0.5954,0.5818,
5.154079,-0.2663,-0.6548,0.3723,-1.7000,-3.3821,-6.4207,0.1682,0.5954,0.5818,
5.156161,-0.3332,-0.6215,0.3858,-1.7000,-3.3821,-6.4207,0.1682,0.5954,0.5818,
5.157865,-0.3332,-0.6215,0.3858,-1.8853,-4.6265,-5.5437,0.1682,0.5954,0.5818,
5.207560,-0.3442,-0.5570,0.4275,-1.8853,-4.6265,-5.5437,0.1682,0.5954,0.5818,
5.210526,-0.3442,-0.5570,0.4275,-1.8853,-4.6265,-5.5437,0.3722,1.2625,0.6961,
5.212909,-0.3442,-0.5570,0.4275,-2.7319,-3.5831,-5.4143,0.3722,1.2625,0.6961,
5.215018,-0.3298,-0.4764,0.5109,-2.7319,-3.5831,-5.4143,0.3722,1.2625,0.6961,
5.217037,-0.3733,-0.4771,0.4591,-2.7319,-3.5831,-5.4143,0.3722,1.2625,0.6961,
5.268550,-0.4390,-0.5219,0.4722,-2.7319,-3.5831,-5.4143,0.3722,1.2625,0.6961,
5.271361,-0.4390,-0.5219,0.4722,-2.7319,-3.5831,-5.4143,0.1004,0.8795,0.4322,
5.272914,-0.5189,-0.5790,0.5236,-2.7319,-3.5831,-5.4143,0.1004,0.8795,0.4322,
5.274727,-0.5790,-0.6682,0.5678,-2.7319,-3.5831,-5.4143,0.1004,0.8795,0.4322,
5.276676,-0.5790,-0.6682,0.5678,-2.9695,-3.3998,-4.9352,0.1004,0.8795,0.4322,
5.329278,-0.5883,-0.7349,0.5705,-2.9695,-3.3998,-4.9352,0.1004,0.8795,0.4322,
5.333742,-0.5883,-0.7349,0.5705,-2.9695,-3.3998,-4.9352,-0.2276,0.3157,0.4133,
5.336056,-0.5883,-0.7349,0.5705,-3.9339,-5.4790,-3.8880,-0.2276,0.3157,0.4133,
5.339173,-0.5243,-0.7259,0.5673,-3.9339,-5.4790,-3.8880,-0.2276,0.3157,0.4133,
5.341529,-0.4525,-0.6641,0.6062,-3.9339,-5.4790,-3.8880,-0.2276,0.3157,0.4133,
5.388623,-0.4422,-0.6186,0.5913,-3.9339,-5.4790,-3.8880,-0.2276,0.3157,0.4133,
5.391759,-0.4422,-0.6186,0.5913,-3.9339,-5.4790,-3.8880,-0.0908,0.1892,0.3595,
5.393477,-0.4422,-0.6186,0.5913,-2.3157,-4.2277,-3.6255,-0.0908,0.1892,0.3595,
5.395601,-0.4246,-0.6299,0.5624,-2.3157,-4.2277,-3.6255,-0.0908,0.1892,0.3595,
5.397624,-0.4285,-0.6492,0.5067,-2.3157,-4.2277,-3.6255,-0.0908,0.1892,0.3595,
5.447969,-0.3975,-0.6135,0.4573,-2.3157,-4.2277,-3.6255,-0.0908,0.1892,0.3595,
5.450986,-0.3975,-0.6135,0.4573,-2.3157,-4.2277,-3.6255,-0.1476,0.1862,0.2337,
5.453107,-0.3892,-0.5766,0.3826,-2.3157,-4.2277,-3.6255,-0.1476,0.1862,0.2337,
5.456188,-0.3948,-0.6303,0.3745,-2.3157,-4.2277,-3.6255,-0.1476,0.1862,0.2337,
5.458619,-0.3948,-0.6303,0.3745,-1.6768,-4.1299,-4.8832,-0.1476,0.1862,0.2337,
5.509885,-0.4512,-0.7144,0.3809,-1.6768,-4.1299,-4.8832,-0.1476,0.1862,0.2337,
5.514243,-0.4512,-0.7144,0.3809,-1.6768,-4.1299,-4.8832,0.1737,-0.2317,-0.0913,
5.517342,-0.6284,-0.8258,0.2885,-1.6768,-4.1299,-4.8832,0.1737,-0.2317,-0.0913,
5.520077,-0.6284,-0.8258,0.2885,-2.1774,-5.0770,-5.6178,0.1737,-0.2317,-0.0913,
5.523036,-0.7088,-0.9257,0.2362,-2.1774,-5.0770,-5.6178,0.1737,-0.2317,-0.0913,
5.567933,-0.7896,-1.0181,0.1700,-2.1774,-5.0770,-5.6178,0.1737,-0.2317,-0.0913,
5.570949,-0.9225,-0.9953,0.1691,-2.1774,-5.0770,-5.6178,0.1737,-0.2317,-0.0913,
5.572894,-0.9225,-0.9953,0.1691,-2.1774,-5.0770,-5.6178,-0.2832,-0.2457,0.0858,
5.574598,-0.9225,-0.9953,0.1691,-5.5871,-8.0000,-7.6949,-0.2832,-0.2457,0.0858,
5.576558,-0.9470,-0.8414,0.2565,-5.5871,-8.0000,-7.6949,-0.2832,-0.2457,0.0858,
5.628979,-0.9330,-0.6816,0.5414,-5.5871,-8.0000,-7.6949,-0.2832,-0.2457,0.0858,
5.633159,-0.7967,-0.6748,0.6487,-5.5871,-8.0000,-7.6949,-0.2832,-0.2457,0.0858,
5.635287,-0.7967,-0.6748,0.6487,-5.5871,-8.0000,-7.6949,-0.3669,0.1843,0.1469,
5.637059,-0.7967,-0.6748,0.6487,-6.9799,-4.4967,-4.0066,-0.3669,0.1843,0.1469,
5.639111,-1.0063,-0.9238,0.5539,-6.9799,-4.4967,-4.0066,-0.3669,0.1843,0.1469,
5.689391,-1.1568,-1.0672,0.6321,-6.9799,-4.4967,-4.0066,-0.3669,0.1843,0.1469,
5.693170,-1.1568,-1.0672,0.6321,-6.9799,-4.4967,-4.0066,0.0631,0.2100,0.2483,
5.695539,-1.0388,-0.9213,0.5158,-6.9799,-4.4967,-4.0066,0.0631,0.2100,0.2483,
5.697566,-0.6917,-0.7601,0.5417,-6.9799,-4.4967,-4.0066,0.0631,0.2100,0.2483,
5.699984,-0.6917,-0.7601,0.5417,-8.9818,-8.1431,-3.0398,0.0631,0.2100,0.2483,
5.748403,-0.7261,-0.7471,0.4752,-8.9818,-8.1431,-3.0398,0.0631,0.2100,0.2483,
5.754463,-0.7261,-0.7471,0.4752,-8.9818,-8.1431,-3.0398,0.3179,0.4788,0.1072,
5.756860,-0.7261,-0.7471,0.4752,-4.5049,-5.1615,-4.5458,0.3179,0.4788,0.1072,
5.758862,-0.7906,-0.7166,0.4319,-4.5049,-5.1615,-4.5458,0.3179,0.4788,0.1072,
5.760966,-0.7921,-0.6316,0.3643,-4.5049,-5.1615,-4.5458,0.3179,0.4788,0.1072,
5.807828,-0.7151,-0.5693,0.3327,-4.5049,-5.1615,-4.5458,0.3179,0.4788,0.1072,
5.810830,-0.6440,-0.5353,0.2658,-4.5049,-5.1615,-4.5458,0.3179,0.4788,0.1072,
5.812998,-0.6440,-0.5353,0.2658,-4.5049,-5.1615,-4.5458,-0.1274,0.2973,0.0822,
5.814908,-0.6440,-0.5353,0.2658,-4.0896,-3.4990,-5.8675,-0.1274,0.2973,0.0822,
5.817095,-0.6081,-0.5219,0.2585,-4.0896,-3.4990,-5.8675,-0.1274,0.2973,0.0822,
5.872923,-0.5595,-0.4845,0.2924,-4.0896,-3.4990,-5.8675,-0.1274,0.2973,0.0822,
5.876192,-0.5595,-0.4845,0.2924,-4.0896,-3.4990,-5.8675,-0.0822,0.1336,0.0113,
5.878205,-0.5595,-0.4845,0.2924,-2.4377,-2.5615,-6.1960,-0.0822,0.1336,0.0113,
5.880347,-0.5341,-0.4776,0.3103,-2.4377,-2.5615,-6.1960,-0.0822,0.1336,0.0113,
5.882134,-0.5316,-0.4974,0.3039,-2.4377,-2.5615,-6.1960,-0.0822,0.1336,0.0113,
5.928754,-0.4984,-0.5390,0.3090,-2.4377,-2.5615,-6.1960,-0.0822,0.1336,0.0113,
5.932813,-0.5329,-0.6030,0.3523,-2.4377,-2.5615,-6.1960,-0.0822,0.1336,0.0113,
5.935017,-0.5329,-0.6030,0.3523,-2.4377,-2.5615,-6.1960,-0.2857,0.0493,-0.1573,
5.937158,-0.5329,-0.6030,0.3523,-1.7058,-2.9699,-5.9559,-0.2857,0.0493,-0.1573,
5.939645,-0.5221,-0.5800,0.4361,-1.7058,-2.9699,-5.9559,-0.2857,0.0493,-0.1573,
5.989004,-0.5297,-0.5023,0.4984,-1.7058,-2.9699,-5.9559,-0.2857,0.0493,-0.1573,
5.992888,-0.5297,-0.5023,0.4984,-1.7058,-2.9699,-5.9559,0.3784,-0.1914,-0.2850,
5.994988,-0.5534,-0.4603,0.4336,-1.7058,-2.9699,-5.9559,0.3784,-0.1914,-0.2850,
5.996873,-0.5534,-0.4603,0.4336,-2.0597,-2.5384,-4.0981,0.3784,-0.1914,-0.2850,
5.998888,-0.5949,-0.4556,0.3384,-2.0597,-2.5384,-4.0981,0.3784,-0.1914,-0.2850,
6.047889,-0.5991,-0.4244,0.3025,-2.0597,-2.5384,-4.0981,0.3784,-0.1914,-0.2850,
6.051511,-0.5905,-0.4300,0.2968,-2.0597,-2.5384,-4.0981,0.3784,-0.1914,-0.2850,
6.053793,-0.5905,-0.4300,0.2968,-2.0597,-2.5384,-4.0981,-0.0712,-0.1523,-0.2404,
6.056039,-0.5905,-0.4300,0.2968,-2.8130,-1.8516,-6.0636,-0.0712,-0.1523,-0.2404,
6.058171,-0.6059,-0.5211,0.3491,-2.8130,-1.8516,-6.0636,-0.0712,-0.1523,-0.2404,
6.107917,-0.6030,-0.5893,0.4410,-2.8130,-1.8516,-6.0636,-0.0712,-0.1523,-0.2404,
6.110516,-0.6030,-0.5893,0.4410,-2.8130,-1.8516,-6.0636,-0.0877,-0.4278,-0.2062,
6.111968,-0.6047,-0.5956,0.4959,-2.8130,-1.8516,-6.0636,-0.0877,-0.4278,-0.2062,
6.113867,-0.6338,-0.5873,0.5035,-2.8130,-1.8516,-6.0636,-0.0877,-0.4278,-0.2062,
6.115919,-0.6338,-0.5873,0.5035,-3.0720,-3.2622,-4.7231,-0.0877,-0.4278,-0.2062,
6.169042,-0.6211,-0.5492,0.4696,-3.0720,-3.2622,-4.7231,-0.0877,-0.4278,-0.2062,
6.172337,-0.6211,-0.5492,0.4696,-3.0720,-3.2622,-4.7231,0.2220,0.0279,-0.1066,
6.174539,-0.6128,-0.5370,0.4512,-3.0720,-3.2622,-4.7231,0.2220,0.0279,-0.1066,
6.176645,-0.6059,-0.5282,0.4561,-3.0720,-3.2622,-4.7231,0.2220,0.0279,-0.1066,
6.178541,-0.6059,-0.5282,0.4561,-3.2994,-2.9205,-4.4726,0.2220,0.0279,-0.1066,
6.229745,-0.6450,-0.5351,0.4806,-3.2994,-2.9205,-4.4726,0.2220,0.0279,-0.1066,
6.233928,-0.6450,-0.5351,0.4806,-3.2994,-2.9205,-4.4726,0.3087,0.3114,0.0125,
6.236402,-0.6450,-0.5351,0.4806,-3.4893,-2.8811,-4.3775,0.3087,0.3114,0.0125,
6.238594,-0.6619,-0.5314,0.5070,-3.4893,-2.8811,-4.3775,0.3087,0.3114,0.0125,
6.241010,-0.7022,-0.4847,0.5082,-3.4893,-2.8811,-4.3775,0.3087,0.3114,0.0125,
6.287613,-0.7427,-0.4678,0.4776,-3.4893,-2.8811,-4.3775,0.3087,0.3114,0.0125,
6.291538,-0.7977,-0.5204,0.4234,-3.4893,-2.8811,-4.3775,0.3087,0.3114,0.0125,
6.294403,-0.8597,-0.7552,0.3555,-3.4893,-2.8811,-4.3775,0.3087,0.3114,0.0125,
6.297209,-0.8597,-0.7552,0.3555,-3.4893,-2.8811,-4.3775,0.3735,-0.2793,0.1475,
6.299978,-0.8597,-0.7552,0.3555,-4.3640,-2.3996,-4.4242,0.3735,-0.2793,0.1475,
6.348891,-0.8615,-0.9020,0.3269,-4.3640,-2.3996,-4.4242,0.3735,-0.2793,0.1475,
6.352076,-0.8615,-0.9020,0.3269,-4.3640,-2.3996,-4.4242,0.1242,-0.8095,0.0034,
6.354406,-0.8615,-0.9020,0.3269,-5.7082,-6.7939,-5.9895,0.1242,-0.8095,0.0034,
6.356705,-0.7576,-0.8600,0.3213,-5.7082,-6.7939,-5.9895,0.1242,-0.8095,0.0034,
6.358242,-0.5793,-0.8263,0.3237,-5.7082,-6.7939,-5.9895,0.1242,-0.8095,0.0034,
6.408937,-0.5412,-0.9032,0.3252,-5.7082,-6.7939,-5.9895,0.1242,-0.8095,0.0034,
6.412203,-0.5412,-0.9032,0.3252,-5.7082,-6.7939,-5.9895,-0.2490,-1.0447,-0.2477,
6.413923,-0.5891,-0.9990,0.3662,-5.7082,-6.7939,-5.9895,-0.2490,-1.0447,-0.2477,
6.415675,-0.6328,-1.0171,0.4209,-5.7082,-6.7939,-5.9895,-0.2490,-1.0447,-0.2477,
6.417538,-0.6328,-1.0171,0.4209,-3.1904,-6.7706,-6.1608,-0.2490,-1.0447,-0.2477,
6.468723,-0.6882,-0.9540,0.5443,-3.1904,-6.7706,-6.1608,-0.2490,-1.0447,-0.2477,
6.472081,-0.6882,-0.9540,0.5443,-3.1904,-6.7706,-6.1608,-0.2386,-0.9959,-0.0223,
6.474341,-0.7882,-0.9616,0.8798,-3.1904,-6.7706,-6.1608,-0.2386,-0.9959,-0.0223,
6.476576,-0.7882,-0.9616,0.8798,-5.2308,-6.9987,-4.0650,-0.2386,-0.9959,-0.0223,
6.478790,-0.7652,-0.9990,1.0139,-5.2308,-6.9987,-4.0650,-0.2386,-0.9959,-0.0223,
6.529160,-0.7105,-0.9863,0.7833,-5.2308,-6.9987,-4.0650,-0.2386,-0.9959,-0.0223,
6.532955,-0.7105,-0.9863,0.7833,-5.2308,-6.9987,-4.0650,-0.0560,-1.0960,-0.2263,
6.535161,-0.7105,-0.9863,0.7833,-5.9909,-7.2836,-1.7871,-0.0560,-1.0960,-0.2263,
6.537706,-0.5893,-0.8285,0.5771,-5.9909,-7.2836,-1.7871,-0.0560,-1.0960,-0.2263,
6.539961,-0.5070,-0.7041,0.4366,-5.9909,-7.2836,-1.7871,-0.0560,-1.0960,-0.2263,
6.587718,-0.4776,-0.6518,0.3567,-5.9909,-7.2836,-1.7871,-0.0560,-1.0960,-0.2263,
6.590794,-0.4393,-0.6203,0.3374,-5.9909,-7.2836,-1.7871,-0.0560,-1.0960,-0.2263,
6.593044,-0.4393,-0.6203,0.3374,-5.9909,-7.2836,-1.7871,-0.8440,-0.7546,-0.0913,
6.595048,-0.4393,-0.6203,0.3374,-4.2660,-3.6980,-5.9258,-0.8440,-0.7546,-0.0913,
6.597193,-0.3608,-0.5842,0.3545,-4.2660,-3.6980,-5.9258,-0.8440,-0.7546,-0.0913,
6.648622,-0.2426,-0.5597,0.3770,-4.2660,-3.6980,-5.9258,-0.8440,-0.7546,-0.0913,
6.652833,-0.1898,-0.5891,0.4266,-4.2660,-3.6980,-5.9258,-0.8440,-0.7546,-0.0913,
6.654793,-0.1898,-0.5891,0.4266,-4.2660,-3.6980,-5.9258,-0.4701,0.0499,0.0773,
6.656767,-0.1898,-0.5891,0.4266,-2.2128,-2.3318,-5.5900,-0.4701,0.0499,0.0773,
6.658773,-0.1959,-0.6338,0.4324,-2.2128,-2.3318,-5.5900,-0.4701,0.0499,0.0773,
6.708203,-0.2646,-0.6433,0.3970,-2.2128,-2.3318,-5.5900,-0.4701,0.0499,0.0773,
6.711374,-0.3117,-0.6342,0.3823,-2.2128,-2.3318,-5.5900,-0.4701,0.0499,0.0773,
6.713596,-0.3117,-0.6342,0.3823,-2.2128,-2.3318,-5.5900,0.0051,0.6168,0.4530,
6.715832,-0.3117,-0.6342,0.3823,-2.1573,-2.9949,-5.3305,0.0051,0.6168,0.4530,
6.717952,-0.3352,-0.6064,0.4256,-2.1573,-2.9949,-5.3305,0.0051,0.6168,0.4530,
6.769540,-0.3376,-0.5981,0.5021,-2.1573,-2.9949,-5.3305,0.0051,0.6168,0.4530,
6.773284,-0.3376,-0.5981,0.5021,-2.1573,-2.9949,-5.3305,0.2757,1.0029,0.4187,
6.775614,-0.3225,-0.6193,0.4771,-2.1573,-2.9949,-5.3305,0.2757,1.0029,0.4187,
6.777802,-0.3134,-0.5883,0.4456,-2.1573,-2.9949,-5.3305,0.2757,1.0029,0.4187,
6.780105,-0.3134,-0.5883,0.4456,-2.2536,-2.5875,-4.2632,0.2757,1.0029,0.4187,
6.828656,-0.3623,-0.5097,0.3975,-2.2536,-2.5875,-4.2632,0.2757,1.0029,0.4187,
6.832235,-0.4388,-0.4776,0.3486,-2.2536,-2.5875,-4.2632,0.2757,1.0029,0.4187,
6.834169,-0.4388,-0.4776,0.3486,-2.2536,-2.5875,-4.2632,0.4382,0.8496,0.3357,
6.836236,-0.4388,-0.4776,0.3486,-1.9321,-1.9548,-5.2867,0.4382,0.8496,0.3357,
6.838252,-0.4539,-0.5707,0.3183,-1.9321,-1.9548,-5.2867,0.4382,0.8496,0.3357,
6.892002,-0.4715,-0.7041,0.3858,-1.9321,-1.9548,-5.2867,0.4382,0.8496,0.3357,
6.895352,-0.4842,-0.7471,0.5106,-1.9321,-1.9548,-5.2867,0.4382,0.8496,0.3357,
6.897393,-0.4842,-0.7471,0.5106,-1.9321,-1.9548,-5.2867,-0.1207,0.4262,0.1243,
6.899626,-0.4842,-0.7471,0.5106,-2.4746,-3.9255,-5.3143,-0.1207,0.4262,0.1243,
6.901698,-0.4405,-0.6946,0.6450,-2.4746,-3.9255,-5.3143,-0.1207,0.4262,0.1243,
6.947347,-0.4507,-0.6198,0.6787,-2.4746,-3.9255,-5.3143,-0.1207,0.4262,0.1243,
6.952418,-0.4280,-0.5827,0.5502,-2.4746,-3.9255,-5.3143,-0.1207,0.4262,0.1243,
6.954734,-0.4280,-0.5827,0.5502,-2.4746,-3.9255,-5.3143,0.3081,0.1361,0.0370,
6.956728,-0.4280,-0.5827,0.5502,-2.1732,-3.1377,-2.4321,0.3081,0.1361,0.0370,
6.958669,-0.4170,-0.5612,0.4322,-2.1732,-3.1377,-2.4321,0.3081,0.1361,0.0370,
7.008384,-0.3696,-0.5123,0.4617,-2.1732,-3.1377,-2.4321,0.3081,0.1361,0.0370,
7.011771,-0.3696,-0.5123,0.4617,-2.1732,-3.1377,-2.4321,-0.0609,-0.1071,0.1103,
7.013905,-0.4090,-0.5622,0.4432,-2.1732,-3.1377,-2.4321,-0.0609,-0.1071,0.1103,
7.015824,-0.5062,-0.5553,0.4918,-2.1732,-3.1377,-2.4321,-0.0609,-0.1071,0.1103,
7.017701,-0.5062,-0.5553,0.4918,-1.3248,-2.1502,-4.5662,-0.0609,-0.1071,0.1103,
7.068257,-0.5698,-0.6443,0.3992,-1.3248,-2.1502,-4.5662,-0.0609,-0.1071,0.1103,
7.071980,-0.5698,-0.6443,0.3992,-1.3248,-2.1502,-4.5662,-0.4298,-0.1944,-0.1390,
7.074091,-0.6707,-0.9001,0.3557,-1.3248,-2.1502,-4.5662,-0.4298,-0.1944,-0.1390,
7.076174,-0.6707,-0.9001,0.3557,-3.3077,-3.3128,-5.1424,-0.4298,-0.1944,-0.1390,
7.078466,-0.8737,-1.1062,0.3169,-3.3077,-3.3128,-5.1424,-0.4298,-0.1944,-0.1390,
7.128423,-0.9333,-1.1678,0.2961,-3.3077,-3.3128,-5.1424,-0.4298,-0.1944,-0.1390,
7.131865,-0.9333,-1.1678,0.2961,-3.3077,-3.3128,-5.1424,-0.2014,0.2027,-0.0486,
7.134027,-0.9335,-0.9714,0.4012,-3.3077,-3.3128,-5.1424,-0.2014,0.2027,-0.0486,
7.136205,-0.9335,-0.9714,0.4012,-6.9602,-8.1515,-6.0731,-0.2014,0.2027,-0.0486,
7.138269,-0.8903,-0.8414,0.4503,-6.9602,-8.1515,-6.0731,-0.2014,0.2027,-0.0486,
7.189036,-0.9152,-0.8466,0.4212,-6.9602,-8.1515,-6.0731,-0.2014,0.2027,-0.0486,
7.193013,-0.9152,-0.8466,0.4212,-6.9602,-8.1515,-6.0731,-0.0645,0.6498,0.0571,
7.195762,-0.9196,-0.8544,0.3327,-6.9602,-8.1515,-6.0731,-0.0645,0.6498,0.0571,
7.198545,-0.9196,-0.9406,0.3120,-6.9602,-8.1515,-6.0731,-0.0645,0.6498,0.0571,
7.200773,-0.9196,-0.9406,0.3120,-6.4505,-4.9625,-4.7445,-0.0645,0.6498,0.0571,
7.248288,-1.0083,-0.9878,0.3552,-6.4505,-4.9625,-4.7445,-0.0645,0.6498,0.0571,
7.251636,-0.9902,-0.8969,0.4053,-6.4505,-4.9625,-4.7445,-0.0645,0.6498,0.0571,
7.253510,-0.9902,-0.8969,0.4053,-6.4505,-4.9625,-4.7445,0.1065,0.4470,0.1707,
7.255575,-0.9902,-0.8969,0.4053,-6.9743,-6.2318,-5.2269,0.1065,0.4470,0.1707,
7.257637,-0.7571,-0.7596,0.3765,-6.9743,-6.2318,-5.2269,0.1065,0.4470,0.1707,
7.308544,-0.6643,-0.7359,0.3110,-6.9743,-6.2318,-5.2269,0.1065,0.4470,0.1707,
7.311268,-0.6643,-0.7359,0.3110,-6.9743,-6.2318,-5.2269,0.3014,0.6767,0.1494,
7.313023,-0.6643,-0.7359,0.3110,-3.3951,-4.0117,-5.6830,0.3014,0.6767,0.1494,
7.314735,-0.6846,-0.6951,0.3904,-3.3951,-4.0117,-5.6830,0.3014,0.6767,0.1494,
7.316768,-0.7071,-0.5891,0.2861,-3.3951,-4.0117,-5.6830,0.3014,0.6767,0.1494,
7.368773,-0.6716,-0.5529,0.1923,-3.3951,-4.0117,-5.6830,0.3014,0.6767,0.1494,
7.371967,-0.6484,-0.5744,0.2145,-3.3951,-4.0117,-5.6830,0.3014,0.6767,0.1494,
7.374001,-0.6484,-0.5744,0.2145,-3.3951,-4.0117,-5.6830,-0.2850,0.3438,-0.0870,
7.376060,-0.6484,-0.5744,0.2145,-3.2033,-2.2137,-6.7462,-0.2850,0.3438,-0.0870,
7.378194,-0.6391,-0.5944,0.2871,-3.2033,-2.2137,-6.7462,-0.2850,0.3438,-0.0870,
7.429408,-0.6323,-0.5886,0.3757,-3.2033,-2.2137,-6.7462,-0.2850,0.3438,-0.0870,
7.433188,-0.6323,-0.5886,0.3757,-3.2033,-2.2137,-6.7462,0.0057,0.4580,-0.1249,
7.435275,-0.6040,-0.5807,0.3897,-3.2033,-2.2137,-6.7462,0.0057,0.4580,-0.1249,
7.437178,-0.6040,-0.5807,0.3897,-2.5955,-2.4164,-4.8012,0.0057,0.4580,-0.1249,
7.439389,-0.5837,-0.5883,0.3755,-2.5955,-2.4164,-4.8012,0.0057,0.4580,-0.1249,
7.489623,-0.6215,-0.6110,0.3652,-2.5955,-2.4164,-4.8012,0.0057,0.4580,-0.1249,
7.494351,-0.6215,-0.6110,0.3652,-2.5955,-2.4164,-4.8012,0.2153,0.4543,-0.2062,
7.496637,-0.6535,-0.6518,0.3557,-2.5955,-2.4164,-4.8012,0.2153,0.4543,-0.2062,
7.498364,-0.6535,-0.6518,0.3557,-2.2779,-2.6330,-4.8095,0.2153,0.4543,-0.2062,
7.500464,-0.7107,-0.6834,0.3340,-2.2779,-2.6330,-4.8095,0.2153,0.4543,-0.2062,
7.547008,-0.7566,-0.6829,0.3127,-2.2779,-2.6330,-4.8095,0.2153,0.4543,-0.2062,
7.551733,-0.7520,-0.6868,0.3332,-2.2779,-2.6330,-4.8095,0.2153,0.4543,-0.2062,
7.554291,-0.7520,-0.6868,0.3332,-2.2779,-2.6330,-4.8095,0.2091,0.3438,-0.1359,
7.556121,-0.7520,-0.6868,0.3332,-3.4134,-3.3689,-5.2488,0.2091,0.3438,-0.1359,
7.558898,-0.6768,-0.6257,0.3789,-3.4134,-3.3689,-5.2488,0.2091,0.3438,-0.1359,
7.609293,-0.6641,-0.6257,0.3831,-3.4134,-3.3689,-5.2488,0.2091,0.3438,-0.1359,
7.612224,-0.6641,-0.6257,0.3831,-3.4134,-3.3689,-5.2488,0.3380,0.3596,-0.2520,
7.613849,-0.7136,-0.6912,0.3481,-3.4134,-3.3689,-5.2488,0.3380,0.3596,-0.2520,
7.615811,-0.7623,-0.7325,0.3325,-3.4134,-3.3689,-5.2488,0.3380,0.3596,-0.2520,
7.617699,-0.7623,-0.7325,0.3325,-2.3441,-2.8881,-4.5110,0.3380,0.3596,-0.2520,
7.669202,-0.7535,-0.7200,0.3095,-2.3441,-2.8881,-4.5110,0.3380,0.3596,-0.2520,
7.673464,-0.7535,-0.7200,0.3095,-2.3441,-2.8881,-4.5110,0.3832,0.4122,-0.1732,
7.675581,-0.7156,-0.6931,0.3259,-2.3441,-2.8881,-4.5110,0.3832,0.4122,-0.1732,
7.677466,-0.7156,-0.6931,0.3259,-3.0629,-3.9017,-5.1854,0.3832,0.4122,-0.1732,
7.679604,-0.6814,-0.6816,0.3127,-3.0629,-3.9017,-5.1854,0.3832,0.4122,-0.1732,
7.729789,-0.6557,-0.6775,0.2748,-3.0629,-3.9017,-5.1854,0.3832,0.4122,-0.1732,
7.734066,-0.6557,-0.6775,0.2748,-3.0629,-3.9017,-5.1854,0.2385,0.3768,-0.2385,
7.735903,-0.6531,-0.6961,0.2582,-3.0629,-3.9017,-5.1854,0.2385,0.3768,-0.2385,
7.737620,-0.6619,-0.6931,0.2653,-3.0629,-3.9017,-5.1854,0.2385,0.3768,-0.2385,
7.739517,-0.6619,-0.6931,0.2653,-1.9102,-3.5808,-5.4564,0.2385,0.3768,-0.2385,
7.787752,-0.6616,-0.6821,0.2883,-1.9102,-3.5808,-5.4564,0.2385,0.3768,-0.2385,
7.792632,-0.6616,-0.6821,0.2883,-1.9102,-3.5808,-5.4564,0.2427,0.1611,-0.2404,
7.795660,-0.6616,-0.6821,0.2883,-1.8432,-3.6405,-5.2598,0.2427,0.1611,-0.2404,
7.798463,-0.6746,-0.6707,0.2959,-1.8432,-3.6405,-5.2598,0.2427,0.1611,-0.2404,
7.800465,-0.6587,-0.6772,0.2829,-1.8432,-3.6405,-5.2598,0.2427,0.1611,-0.2404,
7.847175,-0.6389,-0.7090,0.2587,-1.8432,-3.6405,-5.2598,0.2427,0.1611,-0.2404,
7.850811,-0.6277,-0.7117,0.2643,-1.8432,-3.6405,-5.2598,0.2427,0.1611,-0.2404,
7.854173,-0.6181,-0.7141,0.2927,-1.8432,-3.6405,-5.2598,0.2427,0.1611,-0.2404,
7.856405,-0.6181,-0.7141,0.2927,-1.8432,-3.6405,-5.2598,0.0833,0.0579,-0.2392,
7.858670,-0.6181,-0.7141,0.2927,-1.5882,-3.8961,-5.5280,0.0833,0.0579,-0.2392,
7.908606,-0.6101,-0.7183,0.3039,-1.5882,-3.8961,-5.5280,0.0833,0.0579,-0.2392,
7.912790,-0.6149,-0.7066,0.3105,-1.5882,-3.8961,-5.5280,0.0833,0.0579,-0.2392,
7.914957,-0.6149,-0.7066,0.3105,-1.5882,-3.8961,-5.5280,0.1145,0.0298,-0.2123,
7.917204,-0.6149,-0.7066,0.3105,-1.3274,-3.9304,-5.0759,0.1145,0.0298,-0.2123,
7.919344,-0.6154,-0.7041,0.3811,-1.3274,-3.9304,-5.0759,0.1145,0.0298,-0.2123,
7.968210,-0.6000,-0.7215,0.3237,-1.3274,-3.9304,-5.0759,0.1145,0.0298,-0.2123,
7.969863,-0.6000,-0.7215,0.3237,-1.3274,-3.9304,-5.0759,0.2006,0.0524,-0.1414,
7.970912,-0.6000,-0.7215,0.3237,-1.1575,-3.9891,-4.8508,0.2006,0.0524,-0.1414,
7.972124,-0.6140,-0.7117,0.3423,-1.1575,-3.9891,-4.8508,0.2006,0.0524,-0.1414,
7.973030,-0.6203,-0.7156,0.3034,-1.1575,-3.9891,-4.8508,0.2006,0.0524,-0.1414,
