
time,gFx,gFy,gFz,ax,ay,az,wx,wy,wz,
0.078116,0.0000,0.0000,0.0000,0.0000,0.0000,0.0000,-0.5028,-0.4684,-0.5205,
0.092717,0.3300,0.1523,0.8784,0.0000,0.0000,0.0000,-0.5028,-0.4684,-0.5205,
0.094287,0.3571,0.1388,0.8958,0.0000,0.0000,0.0000,-0.5028,-0.4684,-0.5205,
0.095200,0.3488,0.1429,0.9216,0.0000,0.0000,0.0000,-0.5028,-0.4684,-0.5205,
0.096210,0.3497,0.1390,1.0192,0.0000,0.0000,0.0000,-0.5028,-0.4684,-0.5205,
0.097197,0.3905,0.1327,1.0359,0.0000,0.0000,0.0000,-0.5028,-0.4684,-0.5205,
0.098014,0.3906,0.1198,0.9782,0.0000,0.0000,0.0000,-0.5028,-0.4684,-0.5205,
0.099095,0.3635,0.1168,0.9112,0.0000,0.0000,0.0000,-0.5028,-0.4684,-0.5205,
0.099959,0.3305,0.1209,0.8977,0.0000,0.0000,0.0000,-0.5028,-0.4684,-0.5205,
0.100703,0.3438,0.1296,0.8875,0.0000,0.0000,0.0000,-0.5028,-0.4684,-0.5205,
0.101710,0.3560,0.0980,0.9642,0.0000,0.0000,0.0000,-0.5028,-0.4684,-0.5205,
0.102522,0.3941,0.0829,0.9782,0.0000,0.0000,0.0000,-0.5028,-0.4684,-0.5205,
0.114203,0.3941,0.0829,0.9782,0.0000,0.0000,0.0000,-0.2919,-0.5483,-0.3501,
0.153906,0.3941,0.0829,0.9782,0.0000,0.0000,0.0000,-0.2131,-1.0490,-0.2180,
0.155494,0.3941,0.0829,0.9782,0.0000,0.0000,-0.0000,-0.2131,-1.0490,-0.2180,
0.170079,0.4181,0.1126,0.8468,0.0000,0.0000,-0.0000,-0.2131,-1.0490,-0.2180,
0.172038,0.3631,0.1665,0.7879,0.0000,0.0000,-0.0000,-0.2131,-1.0490,-0.2180,
0.173378,0.3323,0.1890,0.8077,0.0000,0.0000,-0.0000,-0.2131,-1.0490,-0.2180,
0.174387,0.4489,0.1555,0.8588,0.0000,0.0000,-0.0000,-0.2131,-1.0490,-0.2180,
0.194851,0.4489,0.1555,0.8588,0.0000,0.0000,-0.0000,-0.5880,-0.7092,-0.0774,
0.196919,0.4489,0.1555,0.8588,-0.0959,0.3588,-0.5915,-0.5880,-0.7092,-0.0774,
0.235850,0.4489,0.1555,0.8588,-0.0959,0.3588,-0.5915,-0.1321,-0.2043,-0.3501,
0.237696,0.4489,0.1555,0.8588,0.6404,0.1448,0.2362,-0.1321,-0.2043,-0.3501,
0.248655,0.5245,0.1242,0.9013,0.6404,0.1448,0.2362,-0.1321,-0.2043,-0.3501,
0.250508,0.4799,0.1473,0.9644,0.6404,0.1448,0.2362,-0.1321,-0.2043,-0.3501,
0.251792,0.3922,0.1016,0.9835,0.6404,0.1448,0.2362,-0.1321,-0.2043,-0.3501,
0.253046,0.4128,0.0348,0.8872,0.6404,0.1448,0.2362,-0.1321,-0.2043,-0.3501,
0.272226,0.4128,0.0348,0.8872,0.6404,0.1448,0.2362,0.3132,-0.5814,-0.4641,
0.274117,0.4128,0.0348,0.8872,0.3111,-0.0259,0.2330,0.3132,-0.5814,-0.4641,
0.312690,0.4128,0.0348,0.8872,0.3111,-0.0259,0.2330,-0.0064,-0.6762,-0.3959,
0.314259,0.4128,0.0348,0.8872,-0.2313,-0.5780,0.1187,-0.0064,-0.6762,-0.3959,
0.326340,0.5221,0.0838,0.7938,-0.2313,-0.5780,0.1187,-0.0064,-0.6762,-0.3959,
0.328063,0.5383,0.0646,0.7554,-0.2313,-0.5780,0.1187,-0.0064,-0.6762,-0.3959,
0.328994,0.4266,0.0308,0.8163,-0.2313,-0.5780,0.1187,-0.0064,-0.6762,-0.3959,
0.329925,0.4249,0.0805,0.7031,-0.2313,-0.5780,0.1187,-0.0064,-0.6762,-0.3959,
0.351506,0.4249,0.0805,0.7031,-0.2313,-0.5780,0.1187,-0.1790,-0.6389,-0.3906,
0.353808,0.4249,0.0805,0.7031,-0.1779,-0.5877,-0.8363,-0.1790,-0.6389,-0.3906,
0.392222,0.4249,0.0805,0.7031,-0.1779,-0.5877,-0.8363,-0.8352,0.4381,0.0568,
0.394353,0.4249,0.0805,0.7031,-0.2047,-0.6915,-1.2150,-0.8352,0.4381,0.0568,
0.408288,0.4342,0.0625,0.6032,-0.2047,-0.6915,-1.2150,-0.8352,0.4381,0.0568,
0.410706,0.4236,0.0027,0.7196,-0.2047,-0.6915,-1.2150,-0.8352,0.4381,0.0568,
0.411982,0.4677,-0.0508,0.7967,-0.2047,-0.6915,-1.2150,-0.8352,0.4381,0.0568,
0.413283,0.4214,-0.1351,0.7845,-0.2047,-0.6915,-1.2150,-0.8352,0.4381,0.0568,
0.430917,0.4214,-0.1351,0.7845,-0.2047,-0.6915,-1.2150,-0.9470,0.6820,0.6555,
0.432723,0.4214,-0.1351,0.7845,0.0034,-0.2240,-1.1290,-0.9470,0.6820,0.6555,
0.470382,0.4214,-0.1351,0.7845,0.0034,-0.2240,-1.1290,-0.6168,0.3507,0.7982,
0.472042,0.4214,-0.1351,0.7845,0.4993,-0.4839,0.2291,-0.6168,0.3507,0.7982,
0.482274,0.5291,-0.0171,0.8413,0.4993,-0.4839,0.2291,-0.6168,0.3507,0.7982,
0.483610,0.5187,-0.0395,0.9402,0.4993,-0.4839,0.2291,-0.6168,0.3507,0.7982,
0.484529,0.5112,-0.0261,0.8847,0.4993,-0.4839,0.2291,-0.6168,0.3507,0.7982,
0.485744,0.4084,0.0391,0.6255,0.4993,-0.4839,0.2291,-0.6168,0.3507,0.7982,
0.511070,0.4084,0.0391,0.6255,0.4993,-0.4839,0.2291,-0.0128,-1.2386,0.1602,
0.512707,0.4084,0.0391,0.6255,0.0906,-0.3874,0.3856,-0.0128,-1.2386,0.1602,
0.550705,0.2656,-0.0845,0.6478,0.0906,-0.3874,0.3856,-0.0128,-1.2386,0.1602,
0.551874,0.2592,-0.1319,0.6782,0.0906,-0.3874,0.3856,-0.0128,-1.2386,0.1602,
0.553281,0.4355,-0.1422,0.6482,0.0906,-0.3874,0.3856,-0.0128,-1.2386,0.1602,
0.555151,0.4355,-0.1422,0.6482,0.0906,-0.3874,0.3856,-0.1747,-2.0674,0.4712,
0.556136,0.4355,-0.1422,0.6482,-1.2860,0.1337,-0.4669,-0.1747,-2.0674,0.4712,
0.590157,0.4355,-0.1422,0.6482,-1.2860,0.1337,-0.4669,-0.3164,-2.6501,0.8291,
0.592506,0.4355,-0.1422,0.6482,-1.7753,0.3558,0.1058,-0.3164,-2.6501,0.8291,
0.628620,0.5601,-0.1107,0.7333,-1.7753,0.3558,0.1058,-0.3164,-2.6501,0.8291,
0.630880,0.6108,-0.1170,0.7372,-1.7753,0.3558,0.1058,-0.3164,-2.6501,0.8291,
0.632371,0.5951,-0.1142,0.6946,-1.7753,0.3558,0.1058,-0.3164,-2.6501,0.8291,
0.633683,0.5962,-0.1472,0.6838,-1.7753,0.3558,0.1058,-0.3164,-2.6501,0.8291,
0.634895,0.5962,-0.1472,0.6838,-1.7753,0.3558,0.1058,-0.2376,-2.8301,0.7397,
0.636144,0.5962,-0.1472,0.6838,-0.4324,-0.3675,0.5837,-0.2376,-2.8301,0.7397,
0.669001,0.5962,-0.1472,0.6838,-0.4324,-0.3675,0.5837,-0.7638,-1.9374,1.2041,
0.671163,0.5962,-0.1472,0.6838,-0.7605,0.1148,1.0073,-0.7638,-1.9374,1.2041,
0.705796,0.6925,-0.1465,0.7058,-0.7605,0.1148,1.0073,-0.7638,-1.9374,1.2041,
0.709393,0.9227,-0.1349,0.7373,-0.7605,0.1148,1.0073,-0.7638,-1.9374,1.2041,
0.710778,1.1372,-0.1867,0.8150,-0.7605,0.1148,1.0073,-0.7638,-1.9374,1.2041,
0.712170,1.0439,-0.2526,0.9553,-0.7605,0.1148,1.0073,-0.7638,-1.9374,1.2041,
0.713492,1.0439,-0.2526,0.9553,-0.7605,0.1148,1.0073,-1.4062,-1.1023,0.9421,
0.714910,1.0439,-0.2526,0.9553,1.9586,0.3555,1.6905,-1.4062,-1.1023,0.9421,
0.748278,1.0439,-0.2526,0.9553,1.9586,0.3555,1.6905,-0.9481,-1.6200,0.0952,
0.750395,1.0439,-0.2526,0.9553,1.4708,0.5332,2.0262,-0.9481,-1.6200,0.0952,
0.788748,0.8418,-0.2915,0.9912,1.4708,0.5332,2.0262,-0.9481,-1.6200,0.0952,
0.790772,0.7428,-0.3373,0.8360,1.4708,0.5332,2.0262,-0.9481,-1.6200,0.0952,
0.792238,0.7621,-0.3314,0.6412,1.4708,0.5332,2.0262,-0.9481,-1.6200,0.0952,
0.793488,0.7621,-0.3314,0.6412,1.4708,0.5332,2.0262,-0.1161,-1.5859,0.6992,
0.794867,0.7621,-0.3314,0.6412,0.7390,-0.5314,3.8769,-0.1161,-1.5859,0.6992,
0.828289,0.7621,-0.3314,0.6412,0.1277,-0.1009,0.1325,-0.1161,-1.5859,0.6992,
0.830077,0.7621,-0.3314,0.6412,0.1277,-0.1009,0.1325,-0.0661,-0.6762,1.1754,
0.867467,0.8270,-0.2792,0.5174,0.1277,-0.1009,0.1325,-0.0661,-0.6762,1.1754,
0.869509,0.8611,-0.2579,0.4145,0.1277,-0.1009,0.1325,-0.0661,-0.6762,1.1754,
0.870758,0.7888,-0.3674,0.3109,0.1277,-0.1009,0.1325,-0.0661,-0.6762,1.1754,
0.872059,0.8219,-0.4335,0.2909,0.1277,-0.1009,0.1325,-0.0661,-0.6762,1.1754,
0.873072,0.8831,-0.4263,0.3632,0.1277,-0.1009,0.1325,-0.0661,-0.6762,1.1754,
0.874231,0.8831,-0.4263,0.3632,0.1277,-0.1009,0.1325,-0.2301,-0.9436,1.1519,
0.875629,0.8831,-0.4263,0.3632,0.2069,-0.8055,-1.4216,-0.2301,-0.9436,1.1519,
0.906825,0.8831,-0.4263,0.3632,0.2069,-0.8055,-1.4216,-0.1673,-1.3111,0.8015,
0.909084,0.8831,-0.4263,0.3632,0.0806,-0.4852,-0.9132,-0.1673,-1.3111,0.8015,
0.946423,0.8989,-0.4565,0.3755,0.0806,-0.4852,-0.9132,-0.1673,-1.3111,0.8015,
0.948578,0.9345,-0.4556,0.3439,0.0806,-0.4852,-0.9132,-0.1673,-1.3111,0.8015,
0.950205,0.9476,-0.4562,0.3512,0.0806,-0.4852,-0.9132,-0.1673,-1.3111,0.8015,
0.952671,0.9180,-0.4975,0.4226,0.0806,-0.4852,-0.9132,-0.1673,-1.3111,0.8015,
0.955828,0.9180,-0.4975,0.4226,0.0806,-0.4852,-0.9132,-0.0267,-0.6645,0.6885,
0.959276,0.9180,-0.4975,0.4226,0.9463,-0.6732,-0.3281,-0.0267,-0.6645,0.6885,
0.989855,0.9180,-0.4975,0.4226,0.9463,-0.6732,-0.3281,0.2162,-0.2682,0.6896,
0.991381,0.9180,-0.4975,0.4226,0.9449,-0.4518,-0.2570,0.2162,-0.2682,0.6896,
1.022284,0.9439,-0.4565,0.4398,0.9449,-0.4518,-0.2570,0.2162,-0.2682,0.6896,
1.024006,1.0508,-0.3872,0.3648,0.9449,-0.4518,-0.2570,0.2162,-0.2682,0.6896,
1.025958,1.0112,-0.3729,0.3981,0.9449,-0.4518,-0.2570,0.2162,-0.2682,0.6896,
1.026822,1.0116,-0.3098,0.2856,0.9449,-0.4518,-0.2570,0.2162,-0.2682,0.6896,
1.027644,1.0116,-0.3098,0.2856,0.9449,-0.4518,-0.2570,0.4975,-0.8221,0.2507,
1.028573,1.0116,-0.3098,0.2856,1.2152,-0.3323,0.4131,0.4975,-0.8221,0.2507,
1.065649,1.0116,-0.3098,0.2856,1.2152,-0.3323,0.4131,0.4580,-1.0415,-0.1232,
1.067420,1.0116,-0.3098,0.2856,0.9871,-0.4091,0.6434,0.4580,-1.0415,-0.1232,
1.092453,1.0011,-0.2818,0.1947,0.9871,-0.4091,0.6434,0.4580,-1.0415,-0.1232,
1.094387,0.9272,-0.3424,0.1903,0.9871,-0.4091,0.6434,0.4580,-1.0415,-0.1232,
1.096358,1.0191,-0.3539,0.2147,0.9871,-0.4091,0.6434,0.4580,-1.0415,-0.1232,
1.105654,1.0191,-0.3539,0.2147,1.1285,0.6914,-0.1856,0.4580,-1.0415,-0.1232,
1.108299,1.0191,-0.3539,0.2147,1.1285,0.6914,-0.1856,0.0032,-0.8764,-0.2521,
1.144771,1.0191,-0.3539,0.2147,1.1285,0.6914,-0.1856,-0.0991,-0.6474,-0.5525,
1.147077,1.0191,-0.3539,0.2147,1.1187,0.2897,-0.4810,-0.0991,-0.6474,-0.5525,
1.172257,1.1430,-0.3303,0.3006,1.1187,0.2897,-0.4810,-0.0991,-0.6474,-0.5525,
1.174145,1.0927,-0.3724,0.3413,1.1187,0.2897,-0.4810,-0.0991,-0.6474,-0.5525,
1.175345,0.9621,-0.4257,0.3377,1.1187,0.2897,-0.4810,-0.0991,-0.6474,-0.5525,
1.176509,0.8325,-0.4457,0.2680,1.1187,0.2897,-0.4810,-0.0991,-0.6474,-0.5525,
1.184285,0.8325,-0.4457,0.2680,1.1187,0.2897,-0.4810,-0.0107,-0.0519,-0.5067,
1.186174,0.8325,-0.4457,0.2680,0.3620,-0.5684,0.3102,-0.0107,-0.0519,-0.5067,
1.224559,0.8325,-0.4457,0.2680,0.3620,-0.5684,0.3102,-0.1225,0.1047,-0.0923,
1.226659,0.8325,-0.4457,0.2680,-1.9912,-0.4923,-1.1496,-0.1225,0.1047,-0.0923,
1.249852,0.7254,-0.4462,0.2275,-1.9912,-0.4923,-1.1496,-0.1225,0.1047,-0.0923,
1.251998,0.7105,-0.4014,0.1872,-1.9912,-0.4923,-1.1496,-0.1225,0.1047,-0.0923,
1.253164,0.6994,-0.3749,0.0733,-1.9912,-0.4923,-1.1496,-0.1225,0.1047,-0.0923,
1.254168,0.5864,-0.4473,0.0286,-1.9912,-0.4923,-1.1496,-0.1225,0.1047,-0.0923,
1.264939,0.5864,-0.4473,0.0286,-1.9209,-0.3726,-0.8633,-0.1225,0.1047,-0.0923,
1.267893,0.5864,-0.4473,0.0286,-1.9209,-0.3726,-0.8633,-0.3878,-0.5238,0.1676,
1.303292,0.5864,-0.4473,0.0286,-1.9209,-0.3726,-0.8633,-0.7319,-0.6517,0.8377,
1.304860,0.5864,-0.4473,0.0286,-2.6905,-1.2665,-1.1203,-0.7319,-0.6517,0.8377,
1.326167,0.4633,-0.5808,0.0656,-2.6905,-1.2665,-1.1203,-0.7319,-0.6517,0.8377,
1.327619,0.7883,-0.5977,0.1941,-2.6905,-1.2665,-1.1203,-0.7319,-0.6517,0.8377,
1.328561,1.3407,-0.4952,0.2401,-2.6905,-1.2665,-1.1203,-0.7319,-0.6517,0.8377,
1.329345,1.1108,-0.5192,0.1257,-2.6905,-1.2665,-1.1203,-0.7319,-0.6517,0.8377,
1.342257,1.1108,-0.5192,0.1257,-2.6905,-1.2665,-1.1203,-0.6584,-0.4131,0.3658,
1.343605,1.1108,-0.5192,0.1257,-2.5358,-1.0387,-0.8292,-0.6584,-0.4131,0.3658,
1.382216,1.1108,-0.5192,0.1257,-2.5358,-1.0387,-0.8292,-0.8565,-0.6314,0.3306,
1.384136,1.1108,-0.5192,0.1257,1.9915,-0.8150,-0.6150,-0.8565,-0.6314,0.3306,
1.403137,0.7961,-0.6056,-0.1314,1.9915,-0.8150,-0.6150,-0.8565,-0.6314,0.3306,
1.404289,0.8302,-0.5964,-0.1748,1.9915,-0.8150,-0.6150,-0.8565,-0.6314,0.3306,
1.405158,0.7718,-0.6802,-0.2175,1.9915,-0.8150,-0.6150,-0.8565,-0.6314,0.3306,
1.406006,0.6250,-0.7225,-0.2650,1.9915,-0.8150,-0.6150,-0.8565,-0.6314,0.3306,
1.421363,0.6250,-0.7225,-0.2650,1.9915,-0.8150,-0.6150,-0.8597,-2.2368,1.0049,
1.423341,0.6250,-0.7225,-0.2650,-1.1836,-1.6060,-2.4967,-0.8597,-2.2368,1.0049,
1.461486,0.6250,-0.7225,-0.2650,-1.1836,-1.6060,-2.4967,-0.5145,-1.6605,1.9402,
1.463753,0.6250,-0.7225,-0.2650,-1.7117,-0.8687,-0.3415,-0.5145,-1.6605,1.9402,
1.501096,0.5846,-0.7054,0.0017,-1.7117,-0.8687,-0.3415,-0.5145,-1.6605,1.9402,
1.503568,0.5309,-0.7406,0.0042,-1.7117,-0.8687,-0.3415,-0.5145,-1.6605,1.9402,
1.504799,0.8041,-0.5336,-0.2074,-1.7117,-0.8687,-0.3415,-0.5145,-1.6605,1.9402,
1.506890,0.8041,-0.5336,-0.2074,-1.7117,-0.8687,-0.3415,-0.4996,-0.8221,1.5855,
1.507858,0.8041,-0.5336,-0.2074,-1.2735,-0.3734,0.0277,-0.4996,-0.8221,1.5855,
1.541280,0.8041,-0.5336,-0.2074,3.5213,1.4779,-0.1651,-0.4996,-0.8221,1.5855,
1.543858,0.8041,-0.5336,-0.2074,3.5213,1.4779,-0.1651,-0.4847,-1.1854,-0.0401,
1.582649,1.0391,-0.4209,-0.2346,3.5213,1.4779,-0.1651,-0.4847,-1.1854,-0.0401,
1.584729,1.7078,-0.3488,0.0710,3.5213,1.4779,-0.1651,-0.4847,-1.1854,-0.0401,
1.586217,0.6751,-0.6154,-0.2427,3.5213,1.4779,-0.1651,-0.4847,-1.1854,-0.0401,
1.587367,0.7858,-0.6143,-0.3690,3.5213,1.4779,-0.1651,-0.4847,-1.1854,-0.0401,
1.588865,0.8022,-0.6729,-0.1475,3.5213,1.4779,-0.1651,-0.4847,-1.1854,-0.0401,
1.590129,0.8496,-0.7283,0.1217,3.5213,1.4779,-0.1651,-0.4847,-1.1854,-0.0401,
1.591385,0.8496,-0.7283,0.1217,3.5213,1.4779,-0.1651,-0.8181,-1.0448,0.3445,
1.593083,0.8496,-0.7283,0.1217,0.4292,-0.5043,0.3671,-0.8181,-1.0448,0.3445,
1.621229,0.8496,-0.7283,0.1217,0.4292,-0.5043,0.3671,-0.7851,0.3657,1.0326,
1.622705,0.8496,-0.7283,0.1217,0.6323,-0.2450,0.4356,-0.7851,0.3657,1.0326,
1.657853,0.7690,-0.5717,-0.1508,0.6323,-0.2450,0.4356,-0.7851,0.3657,1.0326,
1.661346,0.7861,-0.4202,-0.2744,0.6323,-0.2450,0.4356,-0.7851,0.3657,1.0326,
1.663371,0.6652,-0.3847,-0.5014,0.6323,-0.2450,0.4356,-0.7851,0.3657,1.0326,
1.664773,0.8659,-0.7227,-0.5232,0.6323,-0.2450,0.4356,-0.7851,0.3657,1.0326,
1.667230,0.8659,-0.7227,-0.5232,0.6323,-0.2450,0.4356,-0.9598,0.6746,0.7674,
1.668882,0.8659,-0.7227,-0.5232,0.0679,1.9221,-1.2047,-0.9598,0.6746,0.7674,
1.699925,0.8659,-0.7227,-0.5232,0.0679,1.9221,-1.2047,-1.3945,0.5926,0.3924,
1.702202,0.8659,-0.7227,-0.5232,0.1186,1.8564,-0.9796,-1.3945,0.5926,0.3924,
1.741326,0.5650,-0.6483,-0.1511,0.1186,1.8564,-0.9796,-1.3945,0.5926,0.3924,
1.742989,0.5836,-0.6576,-0.0195,0.1186,1.8564,-0.9796,-1.3945,0.5926,0.3924,
1.743881,0.7360,-0.5284,-0.1380,0.1186,1.8564,-0.9796,-1.3945,0.5926,0.3924,
1.744666,0.7360,-0.5284,-0.1380,0.1186,1.8564,-0.9796,-0.8980,0.5404,0.4009,
1.745621,0.7360,-0.5284,-0.1380,-0.4796,-0.2264,-0.1390,-0.8980,0.5404,0.4009,
1.783054,0.7360,-0.5284,-0.1380,-0.4796,-0.2264,-0.1390,-0.4655,0.4445,0.3253,
1.784626,0.7360,-0.5284,-0.1380,-0.0002,1.3737,0.3389,-0.4655,0.4445,0.3253,
1.817760,0.7337,-0.4481,-0.1398,-0.0002,1.3737,0.3389,-0.4655,0.4445,0.3253,
1.821039,0.6776,-0.5629,-0.2642,-0.0002,1.3737,0.3389,-0.4655,0.4445,0.3253,
1.822793,0.7068,-0.6347,-0.3846,-0.0002,1.3737,0.3389,-0.4655,0.4445,0.3253,
1.824010,0.8489,-0.4266,-0.3294,-0.0002,1.3737,0.3389,-0.4655,0.4445,0.3253,
1.825396,0.8024,-0.2857,-0.3209,-0.0002,1.3737,0.3389,-0.4655,0.4445,0.3253,
1.826568,0.8024,-0.2857,-0.3209,-0.0002,1.3737,0.3389,-0.4091,0.1420,0.3881,
1.827733,0.8024,-0.2857,-0.3209,0.7492,2.0055,-1.1661,-0.4091,0.1420,0.3881,
1.858478,0.8024,-0.2857,-0.3209,0.7492,2.0055,-1.1661,-0.5880,0.0589,-0.0103,
1.860678,0.8024,-0.2857,-0.3209,0.7167,1.8845,-0.9988,-0.5880,0.0589,-0.0103,
1.894180,0.6877,-0.4356,-0.3600,0.7167,1.8845,-0.9988,-0.5880,0.0589,-0.0103,
1.896735,0.4410,-0.9528,-0.0599,0.7167,1.8845,-0.9988,-0.5880,0.0589,-0.0103,
1.898211,0.5803,-1.0914,0.1178,0.7167,1.8845,-0.9988,-0.5880,0.0589,-0.0103,
1.903093,0.5803,-1.0914,0.1178,-1.1630,-1.4527,1.0741,-0.5880,0.0589,-0.0103,
1.905319,0.5803,-1.0914,0.1178,-1.1630,-1.4527,1.0741,-0.1524,1.1838,1.2052,
1.929361,0.9268,-1.0632,-0.0139,-1.1630,-1.4527,1.0741,-0.1524,1.1838,1.2052,
1.931361,0.9427,-0.9965,-0.3479,-1.1630,-1.4527,1.0741,-0.1524,1.1838,1.2052,
1.933582,0.6263,-1.0599,-0.6188,-1.1630,-1.4527,1.0741,-0.1524,1.1838,1.2052,
1.937457,0.6263,-1.0599,-0.6188,-1.1630,-1.4527,1.0741,0.2460,2.0594,1.3437,
1.938641,0.6263,-1.0599,-0.6188,1.5781,-3.0717,-1.6991,0.2460,2.0594,1.3437,
1.975563,0.6263,-1.0599,-0.6188,1.5781,-3.0717,-1.6991,-0.3814,0.8227,0.1665,
1.977340,0.6263,-1.0599,-0.6188,1.5295,-2.9541,-1.7483,-0.3814,0.8227,0.1665,
2.016015,0.5276,-0.7664,-0.1469,1.5295,-2.9541,-1.7483,-0.3814,0.8227,0.1665,
2.017694,0.5276,-0.7664,-0.1469,1.5295,-2.9541,-1.7483,-0.9407,0.8631,0.2070,
2.018673,0.5276,-0.7664,-0.1469,1.4908,-2.8622,-1.6516,-0.9407,0.8631,0.2070,
2.058024,0.5276,-0.7664,-0.1469,1.4908,-2.8622,-1.6516,-0.4421,1.5705,0.8366,
2.060887,0.5276,-0.7664,-0.1469,1.5962,-2.5863,-1.8715,-0.4421,1.5705,0.8366,
2.096248,0.5276,-0.7664,-0.1469,1.5962,-2.5863,-1.8715,0.2034,1.5928,1.9285,
2.099447,0.5276,-0.7664,-0.1469,-0.9114,-0.1501,-0.5379,0.2034,1.5928,1.9285,
2.104862,0.4768,-0.8641,-0.1564,-0.9114,-0.1501,-0.5379,0.2034,1.5928,1.9285,
2.107616,0.5533,-0.8944,-0.1325,-0.9114,-0.1501,-0.5379,0.2034,1.5928,1.9285,
2.109278,0.5171,-0.8863,-0.0814,-0.9114,-0.1501,-0.5379,0.2034,1.5928,1.9285,
2.110664,0.5313,-0.7757,-0.0441,-0.9114,-0.1501,-0.5379,0.2034,1.5928,1.9285,
2.135684,0.5313,-0.7757,-0.0441,-0.9114,-0.1501,-0.5379,-0.0032,1.7430,1.8443,
2.137613,0.5313,-0.7757,-0.0441,-0.3409,0.2598,-0.9029,-0.0032,1.7430,1.8443,
2.176851,0.6378,-0.6518,-0.0929,-0.3409,0.2598,-0.9029,-0.0032,1.7430,1.8443,
2.179098,0.6654,-0.7310,-0.2837,-0.3409,0.2598,-0.9029,-0.0032,1.7430,1.8443,
2.181183,0.5997,-0.9098,-0.5134,-0.3409,0.2598,-0.9029,-0.0032,1.7430,1.8443,
2.182925,0.5997,-0.9098,-0.5134,-0.3409,0.2598,-0.9029,0.2258,0.4999,0.8558,
2.184193,0.5997,-0.9098,-0.5134,0.3508,1.0990,-0.3642,0.2258,0.4999,0.8558,
2.215186,0.5997,-0.9098,-0.5134,1.2851,0.5992,-3.3535,0.2258,0.4999,0.8558,
2.217246,0.5997,-0.9098,-0.5134,1.2851,0.5992,-3.3535,-0.0075,-1.8245,1.0997,
2.254331,0.5997,-0.9098,-0.5134,1.2851,0.5992,-3.3535,-1.3231,-1.0927,0.3519,
2.256635,0.5997,-0.9098,-0.5134,1.4138,0.5862,-2.6090,-1.3231,-1.0927,0.3519,
2.257979,0.5902,-0.8866,-0.4762,1.4138,0.5862,-2.6090,-1.3231,-1.0927,0.3519,
2.259549,0.5013,-0.5370,-0.2705,1.4138,0.5862,-2.6090,-1.3231,-1.0927,0.3519,
2.260806,0.3759,-0.5123,0.0119,1.4138,0.5862,-2.6090,-1.3231,-1.0927,0.3519,
2.262864,0.3192,-0.2954,0.3148,1.4138,0.5862,-2.6090,-1.3231,-1.0927,0.3519,
2.263930,0.2135,-0.1410,0.5938,1.4138,0.5862,-2.6090,-1.3231,-1.0927,0.3519,
2.293933,0.2135,-0.1410,0.5938,1.4138,0.5862,-2.6090,-0.5369,1.5524,-0.6750,
2.295637,0.2135,-0.1410,0.5938,-1.0379,4.1685,1.5799,-0.5369,1.5524,-0.6750,
2.334079,0.2135,-0.1410,0.5938,-1.0379,4.1685,1.5799,1.8333,0.2602,2.4047,
2.336857,0.2135,-0.1410,0.5938,-2.8148,3.0145,2.3663,1.8333,0.2602,2.4047,
2.338509,0.1248,-0.4378,0.2550,-2.8148,3.0145,2.3663,1.8333,0.2602,2.4047,
2.339849,0.0373,-1.2489,-0.3199,-2.8148,3.0145,2.3663,1.8333,0.2602,2.4047,
2.341002,0.0100,-1.6332,-0.2608,-2.8148,3.0145,2.3663,1.8333,0.2602,2.4047,
2.342305,0.5186,-1.3371,-0.1059,-2.8148,3.0145,2.3663,1.8333,0.2602,2.4047,
2.375119,0.5186,-1.3371,-0.1059,-2.8148,3.0145,2.3663,1.5244,-0.0796,4.2422,
2.377152,0.5186,-1.3371,-0.1059,-1.2183,3.4887,1.7664,1.5244,-0.0796,4.2422,
2.404838,1.2383,-1.7527,-0.3536,-1.2183,3.4887,1.7664,1.5244,-0.0796,4.2422,
2.407106,1.3861,-1.8343,-0.6128,-1.2183,3.4887,1.7664,1.5244,-0.0796,4.2422,
2.408233,0.4099,-1.0342,-0.1281,-1.2183,3.4887,1.7664,1.5244,-0.0796,4.2422,
2.414727,0.4099,-1.0342,-0.1281,-1.2183,3.4887,1.7664,-1.1420,0.4935,0.7173,
2.417064,0.4099,-1.0342,-0.1281,3.4982,-5.7583,-1.8749,-1.1420,0.4935,0.7173,
2.453151,0.4099,-1.0342,-0.1281,3.4982,-5.7583,-1.8749,-1.4040,1.3681,0.0291,
2.455566,0.4099,-1.0342,-0.1281,3.3456,-1.9231,-1.4408,-1.4040,1.3681,0.0291,
2.492555,0.4099,-1.0342,-0.1281,3.3456,-1.9231,-1.4408,-0.0767,1.1188,0.6640,
2.495960,0.4099,-1.0342,-0.1281,3.4685,-1.8183,-1.4750,-0.0767,1.1188,0.6640,
2.497767,-0.0406,-0.6850,0.0151,3.4685,-1.8183,-1.4750,-0.0767,1.1188,0.6640,
2.499238,0.2350,-0.9530,0.0346,3.4685,-1.8183,-1.4750,-0.0767,1.1188,0.6640,
2.500447,0.3339,-1.0596,0.1182,3.4685,-1.8183,-1.4750,-0.0767,1.1188,0.6640,
2.501996,0.0547,-1.0796,0.0837,3.4685,-1.8183,-1.4750,-0.0767,1.1188,0.6640,
2.504886,0.0593,-1.1553,-0.0047,3.4685,-1.8183,-1.4750,-0.0767,1.1188,0.6640,
2.532462,0.0593,-1.1553,-0.0047,3.4685,-1.8183,-1.4750,0.5465,1.1209,1.5333,
2.534556,0.0593,-1.1553,-0.0047,0.3276,-0.1706,1.3314,0.5465,1.1209,1.5333,
2.572853,0.0593,-1.1553,-0.0047,0.3276,-0.1706,1.3314,0.9268,0.2464,0.7674,
2.574262,0.0593,-1.1553,-0.0047,0.2655,-0.4738,-0.1628,0.9268,0.2464,0.7674,
2.575637,0.2093,-1.1016,-0.0411,0.2655,-0.4738,-0.1628,0.9268,0.2464,0.7674,
2.576926,0.2467,-0.9504,-0.0595,0.2655,-0.4738,-0.1628,0.9268,0.2464,0.7674,
2.578215,0.3083,-0.8646,-0.0575,0.2655,-0.4738,-0.1628,0.9268,0.2464,0.7674,
2.579604,0.2914,-0.8893,-0.0121,0.2655,-0.4738,-0.1628,0.9268,0.2464,0.7674,
2.610688,0.2914,-0.8893,-0.0121,0.2655,-0.4738,-0.1628,1.2495,-0.3001,-1.5443,
2.612705,0.2914,-0.8893,-0.0121,-0.3364,-0.5679,-0.6198,1.2495,-0.3001,-1.5443,
2.653381,0.2914,-0.8893,-0.0121,-0.3364,-0.5679,-0.6198,0.8991,0.1888,-2.6990,
2.655944,0.2914,-0.8893,-0.0121,-0.4689,1.2830,-1.0897,0.8991,0.1888,-2.6990,
2.657558,0.1905,-0.7889,-0.0746,-0.4689,1.2830,-1.0897,0.8991,0.1888,-2.6990,
2.659003,0.1184,-0.6948,-0.1635,-0.4689,1.2830,-1.0897,0.8991,0.1888,-2.6990,
2.659804,0.2611,-0.7153,-0.0411,-0.4689,1.2830,-1.0897,0.8991,0.1888,-2.6990,
2.660475,0.1573,-1.0864,0.0107,-0.4689,1.2830,-1.0897,0.8991,0.1888,-2.6990,
2.690761,0.1573,-1.0864,0.0107,-0.4689,1.2830,-1.0897,-0.3260,0.8408,-1.8138,
2.692270,0.1573,-1.0864,0.0107,-1.9102,1.1712,-1.2172,-0.3260,0.8408,-1.8138,
2.730727,0.1573,-1.0864,0.0107,-1.9102,1.1712,-1.2172,-0.8991,2.5495,0.0408,
2.732971,0.1573,-1.0864,0.0107,-0.8743,-2.3364,1.1876,-0.8991,2.5495,0.0408,
2.734441,0.0534,-1.4639,0.0805,-0.8743,-2.3364,1.1876,-0.8991,2.5495,0.0408,
2.735766,0.3962,-1.2557,0.3043,-0.8743,-2.3364,1.1876,-0.8991,2.5495,0.0408,
2.737105,0.3747,-0.8756,0.1780,-0.8743,-2.3364,1.1876,-0.8991,2.5495,0.0408,
2.738645,0.2885,-0.8517,-0.0836,-0.8743,-2.3364,1.1876,-0.8991,2.5495,0.0408,
2.771332,0.2885,-0.8517,-0.0836,-0.8743,-2.3364,1.1876,0.1257,1.6461,0.0121,
2.773456,0.2885,-0.8517,-0.0836,-0.8018,-2.2863,0.8890,0.1257,1.6461,0.0121,
2.800653,0.3808,-0.9731,-0.3333,-0.8018,-2.2863,0.8890,0.1257,1.6461,0.0121,
2.803555,0.4223,-0.9643,-0.2700,-0.8018,-2.2863,0.8890,0.1257,1.6461,0.0121,
2.804885,0.3977,-0.9401,0.0573,-0.8018,-2.2863,0.8890,0.1257,1.6461,0.0121,
2.811160,0.3977,-0.9401,0.0573,-0.8018,-2.2863,0.8890,0.1310,-0.9585,0.0398,
2.813901,0.3977,-0.9401,0.0573,0.0501,0.3403,-3.0409,0.1310,-0.9585,0.0398,
2.849183,0.3977,-0.9401,0.0573,0.0501,0.3403,-3.0409,-0.1097,-0.7657,0.0249,
2.851160,0.3977,-0.9401,0.0573,0.0045,0.0808,0.8143,-0.1097,-0.7657,0.0249,
2.889295,0.3977,-0.9401,0.0573,0.0045,0.0808,0.8143,-0.1247,0.4818,-0.1200,
2.891361,0.3977,-0.9401,0.0573,-0.0271,0.0658,0.7760,-0.1247,0.4818,-0.1200,
2.892797,0.3486,-0.9670,0.1866,-0.0271,0.0658,0.7760,-0.1247,0.4818,-0.1200,
2.894049,0.3354,-0.9628,0.2095,-0.0271,0.0658,0.7760,-0.1247,0.4818,-0.1200,
2.895123,0.3625,-0.9384,0.1949,-0.0271,0.0658,0.7760,-0.1247,0.4818,-0.1200,
2.896634,0.3886,-0.9254,0.1384,-0.0271,0.0658,0.7760,-0.1247,0.4818,-0.1200,
2.897987,0.3989,-0.9225,0.0593,-0.0271,0.0658,0.7760,-0.1247,0.4818,-0.1200,
2.927633,0.3989,-0.9225,0.0593,-0.0271,0.0658,0.7760,-0.1971,1.0229,-0.2723,
2.929358,0.3989,-0.9225,0.0593,0.1220,0.2992,0.4944,-0.1971,1.0229,-0.2723,
2.968051,0.3989,-0.9225,0.0593,0.1220,0.2992,0.4944,-0.2365,0.3582,-0.2617,
2.970402,0.3989,-0.9225,0.0593,-0.0227,0.1971,-1.5859,-0.2365,0.3582,-0.2617,
2.971616,0.3891,-0.9291,-0.0731,-0.0227,0.1971,-1.5859,-0.2365,0.3582,-0.2617,
2.972832,0.3723,-0.9355,-0.1450,-0.0227,0.1971,-1.5859,-0.2365,0.3582,-0.2617,
2.974202,0.3706,-0.9423,-0.0475,-0.0227,0.1971,-1.5859,-0.2365,0.3582,-0.2617,
2.975412,0.3437,-0.9401,0.0410,-0.0227,0.1971,-1.5859,-0.2365,0.3582,-0.2617,
3.007375,0.3437,-0.9401,0.0410,-0.0227,0.1971,-1.5859,-0.1886,0.0258,-0.2191,
3.009896,0.3437,-0.9401,0.0410,-0.1010,0.1661,-1.4881,-0.1886,0.0258,-0.2191,
3.046932,0.3437,-0.9401,0.0410,-0.1010,0.1661,-1.4881,-0.2163,0.3699,-0.1999,
3.048842,0.3437,-0.9401,0.0410,-0.8999,0.0732,-0.1681,-0.2163,0.3699,-0.1999,
3.050086,0.2965,-0.9394,0.0495,-0.8999,0.0732,-0.1681,-0.2163,0.3699,-0.1999,
3.050987,0.2613,-0.9477,0.0397,-0.8999,0.0732,-0.1681,-0.2163,0.3699,-0.1999,
3.051925,0.2660,-0.9533,0.0082,-0.8999,0.0732,-0.1681,-0.2163,0.3699,-0.1999,
3.052838,0.3056,-0.9479,-0.0292,-0.8999,0.0732,-0.1681,-0.2163,0.3699,-0.1999,
3.084269,0.3056,-0.9479,-0.0292,-0.8999,0.0732,-0.1681,-0.3004,0.5372,-0.1626,
3.085517,0.3056,-0.9479,-0.0292,-0.9281,0.0540,-0.1370,-0.3004,0.5372,-0.1626,
3.125362,0.3361,-0.9474,-0.0069,-0.9281,0.0540,-0.1370,-0.3004,0.5372,-0.1626,
3.127649,0.3532,-0.9401,0.0544,-0.9281,0.0540,-0.1370,-0.3004,0.5372,-0.1626,
3.128686,0.3703,-0.9223,0.0688,-0.9281,0.0540,-0.1370,-0.3004,0.5372,-0.1626,
3.129625,0.3703,-0.9223,0.0688,-0.9281,0.0540,-0.1370,-0.2568,0.4583,-0.1349,
3.130479,0.3703,-0.9223,0.0688,-0.9288,-0.0308,-0.6170,-0.2568,0.4583,-0.1349,
3.166926,0.3703,-0.9223,0.0688,-0.9288,-0.0308,-0.6170,-0.1300,0.4914,-0.1232,
3.168993,0.3703,-0.9223,0.0688,-0.2742,0.1971,-0.0068,-0.1300,0.4914,-0.1232,
3.205282,0.3703,-0.9223,0.0688,-0.2742,0.1971,-0.0068,-0.1385,0.5723,-0.1509,
3.207051,0.3703,-0.9223,0.0688,-0.3103,0.1732,-0.0446,-0.1385,0.5723,-0.1509,
3.207816,0.3935,-0.9103,0.0444,-0.3103,0.1732,-0.0446,-0.1385,0.5723,-0.1509,
3.208892,0.4045,-0.9013,0.0109,-0.3103,0.1732,-0.0446,-0.1385,0.5723,-0.1509,
3.209693,0.4035,-0.9017,-0.0011,-0.3103,0.1732,-0.0446,-0.1385,0.5723,-0.1509,
3.210636,0.4114,-0.9076,0.0082,-0.3103,0.1732,-0.0446,-0.1385,0.5723,-0.1509,
3.211310,0.4307,-0.9013,0.0038,-0.3103,0.1732,-0.0446,-0.1385,0.5723,-0.1509,
3.245908,0.4307,-0.9013,0.0038,-0.3103,0.1732,-0.0446,-0.1545,0.5808,-0.1679,
3.247885,0.4307,-0.9013,0.0038,-0.0228,0.3463,-0.5574,-0.1545,0.5808,-0.1679,
3.285589,0.4307,-0.9013,0.0038,-0.0228,0.3463,-0.5574,-0.1481,0.5169,-0.1914,
3.287069,0.4453,-0.8898,0.0002,-0.0228,0.3463,-0.5574,-0.1481,0.5169,-0.1914,
3.288030,0.4644,-0.8746,0.0019,-0.0228,0.3463,-0.5574,-0.1481,0.5169,-0.1914,
3.289632,0.4756,-0.8534,0.0043,-0.0228,0.3463,-0.5574,-0.1481,0.5169,-0.1914,
3.290592,0.4824,-0.8346,0.0148,-0.0228,0.3463,-0.5574,-0.1481,0.5169,-0.1914,
3.291517,0.4824,-0.8346,0.0148,0.3096,0.4575,-0.6141,-0.1481,0.5169,-0.1914,
3.323460,0.4824,-0.8346,0.0148,0.3096,0.4575,-0.6141,-0.0948,0.2794,-0.2489,
3.325519,0.4824,-0.8346,0.0148,0.2222,0.4114,-0.6134,-0.0948,0.2794,-0.2489,
3.371416,0.4534,-0.8248,0.0319,0.2222,0.4114,-0.6134,-0.0948,0.2794,-0.2489,
3.373651,0.4114,-0.8214,0.0776,0.2222,0.4114,-0.6134,-0.0948,0.2794,-0.2489,
3.374746,0.4375,-0.8292,0.0703,0.2222,0.4114,-0.6134,-0.0948,0.2794,-0.2489,
3.375938,0.4375,-0.8292,0.0703,0.2222,0.4114,-0.6134,0.0383,0.0706,-0.2042,
3.377084,0.4375,-0.8292,0.0703,0.3756,0.8600,-0.4821,0.0383,0.0706,-0.2042,
3.403290,0.4375,-0.8292,0.0703,0.3756,0.8600,-0.4821,0.0905,0.3028,-0.0220,
3.405727,0.4375,-0.8292,0.0703,0.1795,0.7341,-0.0702,0.0905,0.3028,-0.0220,
3.443568,0.4375,-0.8292,0.0703,0.1795,0.7341,-0.0702,0.0650,0.3039,0.2411,
3.446152,0.4375,-0.8292,0.0703,0.2703,0.7581,-0.1414,0.0650,0.3039,0.2411,
3.447690,0.5035,-0.8947,0.0544,0.2703,0.7581,-0.1414,0.0650,0.3039,0.2411,
3.450636,0.5162,-0.9655,0.0300,0.2703,0.7581,-0.1414,0.0650,0.3039,0.2411,
3.452002,0.4690,-0.9357,0.0009,0.2703,0.7581,-0.1414,0.0650,0.3039,0.2411,
3.453413,0.4663,-0.8790,0.0295,0.2703,0.7581,-0.1414,0.0650,0.3039,0.2411,
3.454496,0.4715,-0.8739,0.0129,0.2703,0.7581,-0.1414,0.0650,0.3039,0.2411,
3.481787,0.4715,-0.8739,0.0129,0.2703,0.7581,-0.1414,0.1480,-0.1957,0.3487,
3.483578,0.4715,-0.8739,0.0129,0.7010,0.0412,-0.6158,0.1480,-0.1957,0.3487,
3.521562,0.4715,-0.8739,0.0129,0.7010,0.0412,-0.6158,0.2194,-0.2799,0.2944,
3.525307,0.4715,-0.8739,0.0129,0.5641,0.7260,-0.3668,0.2194,-0.2799,0.2944,
3.526545,0.4551,-0.8558,0.0334,0.5641,0.7260,-0.3668,0.2194,-0.2799,0.2944,
3.527773,0.4563,-0.8490,0.0991,0.5641,0.7260,-0.3668,0.2194,-0.2799,0.2944,
3.529090,0.4912,-0.8881,0.1157,0.5641,0.7260,-0.3668,0.2194,-0.2799,0.2944,
3.530326,0.4844,-0.9020,0.0876,0.5641,0.7260,-0.3668,0.2194,-0.2799,0.2944,
3.560805,0.4844,-0.9020,0.0876,0.5641,0.7260,-0.3668,0.3025,-0.0317,0.2401,
3.562823,0.4844,-0.9020,0.0876,0.6388,0.7393,-0.4634,0.3025,-0.0317,0.2401,
3.600817,0.4844,-0.9020,0.0876,0.6388,0.7393,-0.4634,0.2407,0.1611,0.2145,
3.602764,0.4844,-0.9020,0.0876,0.7837,0.4341,-0.1756,0.2407,0.1611,0.2145,
3.604064,0.4299,-0.8868,0.0634,0.7837,0.4341,-0.1756,0.2407,0.1611,0.2145,
3.605482,0.3991,-0.8795,0.0497,0.7837,0.4341,-0.1756,0.2407,0.1611,0.2145,
3.606586,0.4040,-0.8773,0.0449,0.7837,0.4341,-0.1756,0.2407,0.1611,0.2145,
3.607828,0.4419,-0.8717,0.0390,0.7837,0.4341,-0.1756,0.2407,0.1611,0.2145,
3.642321,0.4419,-0.8717,0.0390,0.3363,0.6028,-0.7050,0.2407,0.1611,0.2145,
3.644504,0.4419,-0.8717,0.0390,0.3363,0.6028,-0.7050,0.2269,0.1611,0.2081,
3.680122,0.4419,-0.8717,0.0390,0.3363,0.6028,-0.7050,0.3217,0.0258,0.1719,
3.682457,0.4419,-0.8717,0.0390,1.1861,0.6409,-1.0250,0.3217,0.0258,0.1719,
3.683652,0.5113,-0.8634,0.0497,1.1861,0.6409,-1.0250,0.3217,0.0258,0.1719,
3.684751,0.5081,-0.8724,0.0295,1.1861,0.6409,-1.0250,0.3217,0.0258,0.1719,
3.686058,0.4724,-0.8807,-0.0118,1.1861,0.6409,-1.0250,0.3217,0.0258,0.1719,
3.687137,0.4727,-0.9120,-0.0204,1.1861,0.6409,-1.0250,0.3217,0.0258,0.1719,
3.719554,0.4727,-0.9120,-0.0204,1.1861,0.6409,-1.0250,0.2290,-0.1808,0.1133,
3.721551,0.4727,-0.9120,-0.0204,1.1979,0.6350,-1.0642,0.2290,-0.1808,0.1133,
3.759551,0.4727,-0.9120,-0.0204,1.1979,0.6350,-1.0642,0.0660,-0.3992,0.0014,
3.762317,0.4727,-0.9120,-0.0204,1.3203,-0.3698,-1.1760,0.0660,-0.3992,0.0014,
3.763633,0.5254,-0.9872,0.0109,1.3203,-0.3698,-1.1760,0.0660,-0.3992,0.0014,
3.764587,0.5440,-1.0258,0.0260,1.3203,-0.3698,-1.1760,0.0660,-0.3992,0.0014,
3.766022,0.5340,-0.9982,0.0011,1.3203,-0.3698,-1.1760,0.0660,-0.3992,0.0014,
3.767258,0.5264,-0.9782,-0.0490,1.3203,-0.3698,-1.1760,0.0660,-0.3992,0.0014,
3.798897,0.5264,-0.9782,-0.0490,1.3203,-0.3698,-1.1760,-0.3505,-0.2927,-0.1978,
3.801075,0.5264,-0.9782,-0.0490,1.2143,-0.3771,-0.9882,-0.3505,-0.2927,-0.1978,
3.822516,0.4824,-1.0180,-0.1342,1.2143,-0.3771,-0.9882,-0.3505,-0.2927,-0.1978,
3.824545,0.3801,-1.0334,-0.2493,1.2143,-0.3771,-0.9882,-0.3505,-0.2927,-0.1978,
3.826025,0.3456,-0.9941,-0.3253,1.2143,-0.3771,-0.9882,-0.3505,-0.2927,-0.1978,
3.838878,0.3456,-0.9941,-0.3253,1.2143,-0.3771,-0.9882,-1.2911,-0.1542,-0.2596,
3.842545,0.3456,-0.9941,-0.3253,1.0984,-0.5930,-1.1249,-1.2911,-0.1542,-0.2596,
3.878792,0.3456,-0.9941,-0.3253,1.0984,-0.5930,-1.1249,-2.4192,-0.5100,-0.4513,
3.881281,0.3456,-0.9941,-0.3253,-0.3514,-0.5838,-2.3270,-2.4192,-0.5100,-0.4513,
3.910713,0.4219,-0.9467,-0.2813,-0.3514,-0.5838,-2.3270,-2.4192,-0.5100,-0.4513,
3.917500,0.5232,-0.8993,-0.1589,-0.3514,-0.5838,-2.3270,-2.4192,-0.5100,-0.4513,
3.919508,0.6017,-0.8661,-0.0279,-0.3514,-0.5838,-2.3270,-2.4192,-0.5100,-0.4513,
3.921080,0.6774,-0.8978,0.0744,-0.3514,-0.5838,-2.3270,-2.4192,-0.5100,-0.4513,
3.922283,0.6774,-0.8978,0.0744,-0.3514,-0.5838,-2.3270,-2.6504,-0.7550,-0.9136,
3.927881,0.6774,-0.8978,0.0744,1.4672,0.1699,1.1557,-2.6504,-0.7550,-0.9136,
3.959657,0.6774,-0.8978,0.0744,3.0511,-0.7238,3.7019,-2.6504,-0.7550,-0.9136,
3.961016,0.6774,-0.8978,0.0744,3.0511,-0.7238,3.7019,-1.6704,-0.8051,-1.1927,
3.996016,0.6774,-0.8978,0.0744,3.0511,-0.7238,3.7019,-0.2578,-1.1481,-1.3589,
3.997257,0.6774,-0.8978,0.0744,2.6630,-0.9986,3.9495,-0.2578,-1.1481,-1.3589,
3.997952,0.7548,-0.9191,0.1389,2.6630,-0.9986,3.9495,-0.2578,-1.1481,-1.3589,
3.998932,0.8440,-0.9430,0.1758,2.6630,-0.9986,3.9495,-0.2578,-1.1481,-1.3589,
3.999868,0.8113,-0.9738,0.1499,2.6630,-0.9986,3.9495,-0.2578,-1.1481,-1.3589,
4.000383,0.7793,-0.9171,0.1272,2.6630,-0.9986,3.9495,-0.2578,-1.1481,-1.3589,
4.000924,0.8013,-0.8275,0.0436,2.6630,-0.9986,3.9495,-0.2578,-1.1481,-1.3589,
4.036186,0.8013,-0.8275,0.0436,2.6630,-0.9986,3.9495,0.4612,-0.7241,-1.6369,
4.037144,0.8013,-0.8275,0.0436,2.1709,-1.2843,3.8911,0.4612,-0.7241,-1.6369,
4.078672,0.8013,-0.8275,0.0436,2.1709,-1.2843,3.8911,0.3931,-1.3590,-1.6060,
4.081286,0.8013,-0.8275,0.0436,1.6005,-0.6491,2.7683,0.3931,-1.3590,-1.6060,
4.082709,0.7749,-0.7972,-0.0956,1.6005,-0.6491,2.7683,0.3931,-1.3590,-1.6060,
4.083838,0.6153,-0.8673,-0.2449,1.6005,-0.6491,2.7683,0.3931,-1.3590,-1.6060,
4.085123,0.4133,-0.9528,-0.2715,1.6005,-0.6491,2.7683,0.3931,-1.3590,-1.6060,
4.086096,0.3139,-0.9665,-0.1990,1.6005,-0.6491,2.7683,0.3931,-1.3590,-1.6060,
4.116703,0.3139,-0.9665,-0.1990,1.6005,-0.6491,2.7683,0.4623,-2.9100,-0.8146,
4.119472,0.3139,-0.9665,-0.1990,-1.6026,-1.5682,0.7374,0.4623,-2.9100,-0.8146,
4.156398,0.3139,-0.9665,-0.1990,-1.6026,-1.5682,0.7374,0.3291,-1.2365,-0.4620,
4.159167,0.3139,-0.9665,-0.1990,-4.1584,-0.2878,3.0057,0.3291,-1.2365,-0.4620,
4.160670,0.2452,-0.8881,-0.0658,-4.1584,-0.2878,3.0057,0.3291,-1.2365,-0.4620,
4.161549,0.1639,-0.7818,0.0087,-4.1584,-0.2878,3.0057,0.3291,-1.2365,-0.4620,
4.163568,0.1238,-0.7056,-0.0079,-4.1584,-0.2878,3.0057,0.3291,-1.2365,-0.4620,
4.164774,0.1587,-0.6616,-0.0648,-4.1584,-0.2878,3.0057,0.3291,-1.2365,-0.4620,
4.196049,0.1587,-0.6616,-0.0648,-4.2078,-0.3474,2.8838,0.3291,-1.2365,-0.4620,
4.198563,0.1587,-0.6616,-0.0648,-4.2078,-0.3474,2.8838,0.2365,0.0120,-0.4055,
4.236144,0.1587,-0.6616,-0.0648,-4.2078,-0.3474,2.8838,0.4996,-0.1904,-0.0635,
4.238855,0.1587,-0.6616,-0.0648,-3.1839,1.0621,1.7779,0.4996,-0.1904,-0.0635,
4.240266,0.3085,-0.6474,-0.1156,-3.1839,1.0621,1.7779,0.4996,-0.1904,-0.0635,
4.242289,0.3613,-0.6433,-0.1826,-3.1839,1.0621,1.7779,0.4996,-0.1904,-0.0635,
4.243580,0.3320,-0.6073,-0.2121,-3.1839,1.0621,1.7779,0.4996,-0.1904,-0.0635,
4.244812,0.3317,-0.5641,-0.1977,-3.1839,1.0621,1.7779,0.4996,-0.1904,-0.0635,
4.276133,0.3317,-0.5641,-0.1977,-3.1839,1.0621,1.7779,0.7893,-0.6708,0.4659,
4.277947,0.3317,-0.5641,-0.1977,-2.9177,1.2390,1.6679,0.7893,-0.6708,0.4659,
4.315756,0.3549,-0.5399,-0.2048,-2.9177,1.2390,1.6679,0.7893,-0.6708,0.4659,
4.318591,0.4280,-0.5345,-0.2471,-2.9177,1.2390,1.6679,0.7893,-0.6708,0.4659,
4.319875,0.5418,-0.5570,-0.3038,-2.9177,1.2390,1.6679,0.7893,-0.6708,0.4659,
4.321018,0.5418,-0.5570,-0.3038,-2.9177,1.2390,1.6679,0.9172,-0.9542,0.7152,
4.322335,0.5418,-0.5570,-0.3038,-1.9381,2.2449,0.7582,0.9172,-0.9542,0.7152,
4.355849,0.5418,-0.5570,-0.3038,-1.9381,2.2449,0.7582,0.9353,-0.9904,0.5234,
4.359323,0.5418,-0.5570,-0.3038,0.2674,2.6578,-0.0760,0.9353,-0.9904,0.5234,
4.393866,0.5418,-0.5570,-0.3038,0.2674,2.6578,-0.0760,1.0184,-1.1630,0.1101,
4.396651,0.5418,-0.5570,-0.3038,0.4163,2.7390,-0.1725,1.0184,-1.1630,0.1101,
4.397973,0.6422,-0.5431,-0.2911,0.4163,2.7390,-0.1725,1.0184,-1.1630,0.1101,
4.399434,0.6056,-0.4578,-0.2239,0.4163,2.7390,-0.1725,1.0184,-1.1630,0.1101,
4.400676,0.4121,-0.3841,-0.1560,0.4163,2.7390,-0.1725,1.0184,-1.1630,0.1101,
4.402355,0.2885,-0.4500,-0.0807,0.4163,2.7390,-0.1725,1.0184,-1.1630,0.1101,
4.403517,0.2887,-0.5524,-0.0360,0.4163,2.7390,-0.1725,1.0184,-1.1630,0.1101,
4.433572,0.2887,-0.5524,-0.0360,0.4163,2.7390,-0.1725,0.8799,-0.6378,-0.1168,
4.436510,0.2887,-0.5524,-0.0360,-0.5477,3.8582,0.8971,0.8799,-0.6378,-0.1168,
4.473068,0.2887,-0.5524,-0.0360,-0.5477,3.8582,0.8971,0.1118,0.5468,-0.4396,
4.476436,0.2887,-0.5524,-0.0360,-1.5918,2.9648,0.7977,0.1118,0.5468,-0.4396,
4.478500,0.3051,-0.5262,-0.1181,-1.5918,2.9648,0.7977,0.1118,0.5468,-0.4396,
4.479859,0.4426,-0.4486,-0.2891,-1.5918,2.9648,0.7977,0.1118,0.5468,-0.4396,
4.481119,0.5342,-0.4810,-0.4201,-1.5918,2.9648,0.7977,0.1118,0.5468,-0.4396,
4.483215,0.5193,-0.6648,-0.4604,-1.5918,2.9648,0.7977,0.1118,0.5468,-0.4396,
4.512850,0.5193,-0.6648,-0.4604,-1.8585,2.8057,0.4796,0.1118,0.5468,-0.4396,
4.515717,0.5193,-0.6648,-0.4604,-1.8585,2.8057,0.4796,-0.2035,1.8347,-0.4673,
4.552471,0.6210,-0.7205,-0.3152,-1.8585,2.8057,0.4796,-0.2035,1.8347,-0.4673,
4.554858,0.6794,-0.7095,-0.0228,-1.8585,2.8057,0.4796,-0.2035,1.8347,-0.4673,
4.556195,0.7395,-0.9772,0.1186,-1.8585,2.8057,0.4796,-0.2035,1.8347,-0.4673,
4.557375,0.7395,-0.9772,0.1186,-1.8585,2.8057,0.4796,1.4221,0.0205,0.0291,
4.559663,0.7395,-0.9772,0.1186,0.2273,1.7683,-2.3839,1.4221,0.0205,0.0291,
4.592369,0.7395,-0.9772,0.1186,0.2273,1.7683,-2.3839,0.7276,0.5244,-0.7336,
4.594642,0.7395,-0.9772,0.1186,3.4332,-2.7761,0.1232,0.7276,0.5244,-0.7336,
4.631909,0.7395,-0.9772,0.1186,3.4332,-2.7761,0.1232,-1.1431,-0.8317,-1.5688,
4.634243,0.7395,-0.9772,0.1186,2.9586,-3.1476,0.6462,-1.1431,-0.8317,-1.5688,
4.635689,1.3329,-1.5494,-0.4201,2.9586,-3.1476,0.6462,-1.1431,-0.8317,-1.5688,
4.636831,2.1621,-2.0595,-1.3907,2.9586,-3.1476,0.6462,-1.1431,-0.8317,-1.5688,
4.638100,0.8543,-2.2655,0.0659,2.9586,-3.1476,0.6462,-1.1431,-0.8317,-1.5688,
4.639519,0.0471,-1.6009,0.4722,2.9586,-3.1476,0.6462,-1.1431,-0.8317,-1.5688,
4.640737,0.0823,-0.9831,0.4883,2.9586,-3.1476,0.6462,-1.1431,-0.8317,-1.5688,
4.671387,0.0823,-0.9831,0.4883,2.9586,-3.1476,0.6462,1.3337,-3.3489,0.2134,
4.674073,0.0823,-0.9831,0.4883,4.2267,-11.5853,-0.6787,1.3337,-3.3489,0.2134,
4.711319,0.0823,-0.9831,0.4883,4.2267,-11.5853,-0.6787,2.6290,-1.3026,0.9996,
4.714227,0.0823,-0.9831,0.4883,-4.4112,-0.1251,5.4472,2.6290,-1.3026,0.9996,
4.715328,0.0906,-0.8099,0.3993,-4.4112,-0.1251,5.4472,2.6290,-1.3026,0.9996,
4.718520,0.0952,-0.7530,0.3287,-4.4112,-0.1251,5.4472,2.6290,-1.3026,0.9996,
4.719655,0.1736,-0.8773,0.2752,-4.4112,-0.1251,5.4472,2.6290,-1.3026,0.9996,
4.720207,0.6290,-1.2829,-0.2429,-4.4112,-0.1251,5.4472,2.6290,-1.3026,0.9996,
4.749502,0.6290,-1.2829,-0.2429,-4.4112,-0.1251,5.4472,0.6381,2.1148,0.5266,
4.751252,0.6290,-1.2829,-0.2429,-4.2561,0.0172,4.7220,0.6381,2.1148,0.5266,
4.790443,0.6290,-1.2829,-0.2429,-4.2561,0.0172,4.7220,-0.8927,-0.4674,-0.3405,
4.792981,0.6290,-1.2829,-0.2429,1.4754,-3.0791,-3.0584,-0.8927,-0.4674,-0.3405,
4.794456,1.2559,-1.3183,-1.3328,1.4754,-3.0791,-3.0584,-0.8927,-0.4674,-0.3405,
4.795975,0.6417,-0.9215,-0.8657,1.4754,-3.0791,-3.0584,-0.8927,-0.4674,-0.3405,
4.797289,0.3168,-0.5424,-0.1757,1.4754,-3.0791,-3.0584,-0.8927,-0.4674,-0.3405,
4.798776,0.3679,-0.3860,0.0703,1.4754,-3.0791,-3.0584,-0.8927,-0.4674,-0.3405,
4.829714,0.3679,-0.3860,0.0703,1.4754,-3.0791,-3.0584,0.6935,-2.0759,0.5820,
4.832159,0.3679,-0.3860,0.0703,-0.6051,2.3552,-1.7621,0.6935,-2.0759,0.5820,
4.869287,0.3679,-0.3860,0.0703,-0.6051,2.3552,-1.7621,-0.1044,0.3923,0.1900,
4.872003,0.3679,-0.3860,0.0703,1.0156,5.0117,2.0615,-0.1044,0.3923,0.1900,
4.873422,0.5763,-0.3083,-0.0123,1.0156,5.0117,2.0615,-0.1044,0.3923,0.1900,
4.874293,0.6735,-0.3401,0.1023,1.0156,5.0117,2.0615,-0.1044,0.3923,0.1900,
4.875900,0.5653,-0.3718,0.1326,1.0156,5.0117,2.0615,-0.1044,0.3923,0.1900,
4.877219,0.4700,-0.3174,0.1108,1.0156,5.0117,2.0615,-0.1044,0.3923,0.1900,
4.910273,0.4700,-0.3174,0.1108,1.0156,5.0117,2.0615,-0.4048,1.0613,-0.4225,
4.913216,0.4700,-0.3174,0.1108,0.8085,4.8251,1.9512,-0.4048,1.0613,-0.4225,
4.949700,0.4700,-0.3174,0.1108,0.8085,4.8251,1.9512,0.0181,0.4445,-0.7730,
4.952757,0.4700,-0.3174,0.1108,0.0801,4.2763,1.3041,0.0181,0.4445,-0.7730,
4.954118,0.5130,-0.3591,0.0798,0.0801,4.2763,1.3041,0.0181,0.4445,-0.7730,
4.955414,0.6916,-0.4405,-0.1296,0.0801,4.2763,1.3041,0.0181,0.4445,-0.7730,
4.956533,0.6962,-0.3948,-0.4032,0.0801,4.2763,1.3041,0.0181,0.4445,-0.7730,
4.959447,0.4783,-0.4378,-0.3722,0.0801,4.2763,1.3041,0.0181,0.4445,-0.7730,
4.987932,0.4783,-0.4378,-0.3722,0.0801,4.2763,1.3041,-0.3580,-0.9713,-0.8827,
4.991004,0.4783,-0.4378,-0.3722,-0.1422,3.9980,1.6006,-0.3580,-0.9713,-0.8827,
5.012280,0.4465,-0.5106,-0.1362,-0.1422,3.9980,1.6006,-0.3580,-0.9713,-0.8827,
5.014859,0.5443,-0.8201,-0.0529,-0.1422,3.9980,1.6006,-0.3580,-0.9713,-0.8827,
5.016259,0.6261,-1.3163,-0.1161,-0.1422,3.9980,1.6006,-0.3580,-0.9713,-0.8827,
5.028167,0.6261,-1.3163,-0.1161,-0.1422,3.9980,1.6006,-1.2091,-0.7071,-1.2332,
5.030227,0.6261,-1.3163,-0.1161,-0.6257,2.8485,-1.0404,-1.2091,-0.7071,-1.2332,
5.068455,0.6261,-1.3163,-0.1161,-0.6257,2.8485,-1.0404,-1.8024,0.9303,-1.9192,
5.070887,0.6261,-1.3163,-0.1161,-0.1316,-6.2853,0.5612,-1.8024,0.9303,-1.9192,
5.101491,0.7866,-1.8448,-0.3299,-0.1316,-6.2853,0.5612,-1.8024,0.9303,-1.9192,
5.104442,0.9574,-2.4436,-0.5869,-0.1316,-6.2853,0.5612,-1.8024,0.9303,-1.9192,
5.107138,0.8677,-1.7512,-0.3927,-0.1316,-6.2853,0.5612,-1.8024,0.9303,-1.9192,
5.108566,0.7644,-0.6518,-0.3863,-0.1316,-6.2853,0.5612,-1.8024,0.9303,-1.9192,
5.110651,0.7644,-0.6518,-0.3863,-0.1316,-6.2853,0.5612,-0.6743,0.8205,-1.7009,
5.112536,0.7644,-0.6518,-0.3863,1.4041,-9.4675,-2.2787,-0.6743,0.8205,-1.7009,
5.147475,0.7644,-0.6518,-0.3863,1.4041,-9.4675,-2.2787,-0.5177,-0.2682,-0.5450,
5.150245,0.7644,-0.6518,-0.3863,0.9454,-4.1324,-2.2627,-0.5177,-0.2682,-0.5450,
5.186667,0.7644,-0.6518,-0.3863,0.9454,-4.1324,-2.2627,-0.3239,-1.1587,-0.0337,
5.189579,0.7644,-0.6518,-0.3863,1.0407,-4.1059,-1.8243,-0.3239,-1.1587,-0.0337,
5.190881,0.7854,-0.7317,-0.3680,1.0407,-4.1059,-1.8243,-0.3239,-1.1587,-0.0337,
5.192770,0.9058,-1.1986,-0.4284,1.0407,-4.1059,-1.8243,-0.3239,-1.1587,-0.0337,
5.195163,0.7966,-1.2433,-0.6390,1.0407,-4.1059,-1.8243,-0.3239,-1.1587,-0.0337,
5.196794,0.5531,-0.8763,-0.5610,1.0407,-4.1059,-1.8243,-0.3239,-1.1587,-0.0337,
5.197929,0.3068,-0.6196,-0.2483,1.0407,-4.1059,-1.8243,-0.3239,-1.1587,-0.0337,
5.226327,0.3068,-0.6196,-0.2483,1.0407,-4.1059,-1.8243,0.2184,-1.4400,0.6875,
5.233599,0.3068,-0.6196,-0.2483,1.3649,-3.8260,-1.4595,0.2184,-1.4400,0.6875,
5.265783,0.1368,-0.5194,-0.1450,1.3649,-3.8260,-1.4595,0.2184,-1.4400,0.6875,
5.268000,0.1094,-0.5167,-0.1281,1.3649,-3.8260,-1.4595,0.2184,-1.4400,0.6875,
5.269660,0.2047,-0.5177,-0.1325,1.3649,-3.8260,-1.4595,0.2184,-1.4400,0.6875,
5.270492,0.2047,-0.5177,-0.1325,1.3649,-3.8260,-1.4595,0.3750,-0.1467,1.7389,
5.271625,0.2047,-0.5177,-0.1325,-2.9692,0.4462,0.0504,0.3750,-0.1467,1.7389,
5.305768,0.2047,-0.5177,-0.1325,-2.9692,0.4462,0.0504,0.2578,0.4136,1.8507,
5.308134,0.2047,-0.5177,-0.1325,-3.5046,2.4023,1.6728,0.2578,0.4136,1.8507,
5.345831,0.2047,-0.5177,-0.1325,-3.5046,2.4023,1.6728,0.2535,0.6831,1.3128,
5.349111,0.2047,-0.5177,-0.1325,-3.1326,2.6728,1.4233,0.2535,0.6831,1.3128,
5.350266,0.3527,-0.5135,-0.1359,-3.1326,2.6728,1.4233,0.2535,0.6831,1.3128,
5.351401,0.5340,-0.5284,-0.1491,-3.1326,2.6728,1.4233,0.2535,0.6831,1.3128,
5.352509,0.6754,-0.5429,-0.1670,-3.1326,2.6728,1.4233,0.2535,0.6831,1.3128,
5.353751,0.7297,-0.5253,-0.1171,-3.1326,2.6728,1.4233,0.2535,0.6831,1.3128,
5.355042,0.7265,-0.4664,-0.1208,-3.1326,2.6728,1.4233,0.2535,0.6831,1.3128,
5.384341,0.7265,-0.4664,-0.1208,-3.1326,2.6728,1.4233,0.3089,2.3066,0.9527,
5.386983,0.7265,-0.4664,-0.1208,1.0798,2.6969,0.7151,0.3089,2.3066,0.9527,
5.424184,0.7265,-0.4664,-0.1208,1.0798,2.6969,0.7151,0.1065,1.3681,0.4020,
5.426848,0.7265,-0.4664,-0.1208,1.1695,3.4808,-1.1254,0.1065,1.3681,0.4020,
5.429290,0.6965,-0.4393,-0.2779,1.1695,3.4808,-1.1254,0.1065,1.3681,0.4020,
5.430750,0.5435,-0.4610,-0.5065,1.1695,3.4808,-1.1254,0.1065,1.3681,0.4020,
5.432027,0.3757,-0.5426,-0.6463,1.1695,3.4808,-1.1254,0.1065,1.3681,0.4020,
5.433329,0.3337,-0.5766,-0.3863,1.1695,3.4808,-1.1254,0.1065,1.3681,0.4020,
5.463667,0.3337,-0.5766,-0.3863,1.1695,3.4808,-1.1254,0.2727,-0.3928,0.2571,
5.467047,0.3337,-0.5766,-0.3863,1.2575,3.4941,-1.1125,0.2727,-0.3928,0.2571,
5.504029,0.3647,-0.5888,-0.1955,1.2575,3.4941,-1.1125,0.2727,-0.3928,0.2571,
5.508016,0.5052,-0.6660,-0.2964,1.2575,3.4941,-1.1125,0.2727,-0.3928,0.2571,
5.509500,0.6139,-0.7527,-0.2818,1.2575,3.4941,-1.1125,0.2727,-0.3928,0.2571,
5.513135,0.6139,-0.7527,-0.2818,1.2575,3.4941,-1.1125,0.3249,0.7119,0.3956,
5.514615,0.6139,-0.7527,-0.2818,-1.5542,2.4405,-2.3746,0.3249,0.7119,0.3956,
5.543345,0.6139,-0.7527,-0.2818,-1.5542,2.4405,-2.3746,-0.0117,1.7814,0.3775,
5.546992,0.6139,-0.7527,-0.2818,0.3493,0.9294,-1.3687,-0.0117,1.7814,0.3775,
5.583825,0.6139,-0.7527,-0.2818,0.3493,0.9294,-1.3687,0.0117,1.0879,0.1857,
5.586536,0.6139,-0.7527,-0.2818,0.3513,0.9510,-1.5635,0.0117,1.0879,0.1857,
5.587788,0.5340,-0.7701,-0.2412,0.3513,0.9510,-1.5635,0.0117,1.0879,0.1857,
5.589176,0.4201,-0.6657,-0.4640,0.3513,0.9510,-1.5635,0.0117,1.0879,0.1857,
5.590456,0.5059,-0.5910,-0.7765,0.3513,0.9510,-1.5635,0.0117,1.0879,0.1857,
5.591811,0.8443,-0.7478,-0.2764,0.3513,0.9510,-1.5635,0.0117,1.0879,0.1857,
5.592924,0.7558,-0.8888,0.2376,0.3513,0.9510,-1.5635,0.0117,1.0879,0.1857,
5.621840,0.7558,-0.8888,0.2376,0.3513,0.9510,-1.5635,0.4943,-0.3875,0.0036,
5.624324,0.7558,-0.8888,0.2376,0.7389,1.5478,-3.8582,0.4943,-0.3875,0.0036,
5.662790,0.7558,-0.8888,0.2376,0.7389,1.5478,-3.8582,-0.1300,0.7662,-0.4833,
5.666294,0.7558,-0.8888,0.2376,2.5211,-2.8034,1.0528,-0.1300,0.7662,-0.4833,
5.668732,0.7715,-1.1456,-0.0169,2.5211,-2.8034,1.0528,-0.1300,0.7662,-0.4833,
5.670442,0.8584,-1.2851,-0.1936,2.5211,-2.8034,1.0528,-0.1300,0.7662,-0.4833,
5.672605,0.8851,-1.2264,-0.3690,2.5211,-2.8034,1.0528,-0.1300,0.7662,-0.4833,
5.674110,0.5184,-1.3239,-0.0421,2.5211,-2.8034,1.0528,-0.1300,0.7662,-0.4833,
5.701562,0.5184,-1.3239,-0.0421,2.5211,-2.8034,1.0528,-0.7425,-0.0764,-0.4811,
5.704176,0.5184,-1.3239,-0.0421,2.3334,-2.8880,1.2820,-0.7425,-0.0764,-0.4811,
5.740426,0.5184,-1.3239,-0.0421,2.3334,-2.8880,1.2820,0.1662,-0.7124,0.4595,
5.742037,0.5184,-1.3239,-0.0421,0.8635,-5.2592,0.1103,0.1662,-0.7124,0.4595,
5.742734,0.4812,-1.5548,0.0497,0.8635,-5.2592,0.1103,0.1662,-0.7124,0.4595,
5.743300,0.5655,-1.3452,0.0957,0.8635,-5.2592,0.1103,0.1662,-0.7124,0.4595,
5.743921,0.4978,-1.0999,0.0818,0.8635,-5.2592,0.1103,0.1662,-0.7124,0.4595,
5.744516,0.4722,-1.1133,0.0251,0.8635,-5.2592,0.1103,0.1662,-0.7124,0.4595,
5.779610,0.4722,-1.1133,0.0251,0.8635,-5.2592,0.1103,0.3632,-0.3491,0.6118,
5.780739,0.4722,-1.1133,0.0251,-0.0589,-3.2736,1.8741,0.3632,-0.3491,0.6118,
5.820120,0.4722,-1.1133,0.0251,-0.0589,-3.2736,1.8741,0.5816,0.3135,0.6502,
5.821322,0.4722,-1.1133,0.0251,0.8159,0.4387,0.4678,0.5816,0.3135,0.6502,
5.821918,0.5218,-1.0073,0.0842,0.8159,0.4387,0.4678,0.5816,0.3135,0.6502,
5.822354,0.5919,-0.8096,-0.0221,0.8159,0.4387,0.4678,0.5816,0.3135,0.6502,
5.822810,0.6315,-0.6496,-0.2095,0.8159,0.4387,0.4678,0.5816,0.3135,0.6502,
5.823266,0.6295,-0.5512,-0.2170,0.8159,0.4387,0.4678,0.5816,0.3135,0.6502,
5.860252,0.6295,-0.5512,-0.2170,0.8159,0.4387,0.4678,0.4453,0.0919,0.4968,
5.863146,0.6295,-0.5512,-0.2170,0.9647,0.5394,0.2943,0.4453,0.0919,0.4968,
5.899648,0.6295,-0.5512,-0.2170,0.9647,0.5394,0.2943,0.5070,-0.3662,0.1740,
5.902752,0.6295,-0.5512,-0.2170,0.9999,3.2870,-0.3588,0.5070,-0.3662,0.1740,
5.904283,0.5939,-0.5079,-0.0727,0.9999,3.2870,-0.3588,0.5070,-0.3662,0.1740,
5.905691,0.5164,-0.5636,-0.0272,0.9999,3.2870,-0.3588,0.5070,-0.3662,0.1740,
5.906934,0.5093,-0.6291,-0.0213,0.9999,3.2870,-0.3588,0.5070,-0.3662,0.1740,
5.907886,0.6224,-0.5795,-0.1836,0.9999,3.2870,-0.3588,0.5070,-0.3662,0.1740,
5.939276,0.6224,-0.5795,-0.1836,0.9999,3.2870,-0.3588,0.3803,0.0429,-0.0177,
5.942337,0.6224,-0.5795,-0.1836,0.9765,3.2381,-0.4880,0.3803,0.0429,-0.0177,
5.977404,0.5618,-0.4749,-0.3377,0.9765,3.2381,-0.4880,0.3803,0.0429,-0.0177,
5.980166,0.3449,-0.5030,-0.2617,0.9765,3.2381,-0.4880,0.3803,0.0429,-0.0177,
5.981352,0.1883,-0.7297,-0.0636,0.9765,3.2381,-0.4880,0.3803,0.0429,-0.0177,
5.982978,0.1883,-0.7297,-0.0636,0.9765,3.2381,-0.4880,0.1374,-0.1904,0.0941,
5.983808,0.1883,-0.7297,-0.0636,0.8471,3.0088,-1.2160,0.1374,-0.1904,0.0941,
6.019006,0.1883,-0.7297,-0.0636,0.8471,3.0088,-1.2160,0.1001,-0.8019,0.5287,
6.021542,0.1883,-0.7297,-0.0636,-1.5708,2.1404,-0.2092,0.1001,-0.8019,0.5287,
6.058968,0.1883,-0.7297,-0.0636,-1.6157,2.0424,0.0578,0.1001,-0.8019,0.5287,
6.061304,0.1883,-0.7297,-0.0636,-1.6157,2.0424,0.0578,-0.7574,-0.0658,-0.2180,
6.062599,0.3513,-0.7356,0.0556,-1.6157,2.0424,0.0578,-0.7574,-0.0658,-0.2180,
6.063743,0.7194,-0.5272,-0.0812,-1.6157,2.0424,0.0578,-0.7574,-0.0658,-0.2180,
6.071475,0.9715,-0.2663,-0.2412,-1.6157,2.0424,0.0578,-0.7574,-0.0658,-0.2180,
6.073391,0.7663,-0.2783,-0.1872,-1.6157,2.0424,0.0578,-0.7574,-0.0658,-0.2180,
6.074603,0.5196,-0.7698,-0.2459,-1.6157,2.0424,0.0578,-0.7574,-0.0658,-0.2180,
6.097161,0.5196,-0.7698,-0.2459,-1.6157,2.0424,0.0578,-1.2847,-0.4024,-0.9775,
6.099335,0.5196,-0.7698,-0.2459,3.1641,4.6515,-0.2220,-1.2847,-0.4024,-0.9775,
6.137960,0.5196,-0.7698,-0.2459,3.1641,4.6515,-0.2220,-1.5159,-0.8370,-1.5496,
6.140699,0.5196,-0.7698,-0.2459,0.2986,-3.1806,-0.4876,-1.5159,-0.8370,-1.5496,
6.142228,0.5763,-1.1915,-0.2788,0.2986,-3.1806,-0.4876,-1.5159,-0.8370,-1.5496,
6.143378,0.6171,-1.3967,-0.2666,0.2986,-3.1806,-0.4876,-1.5159,-0.8370,-1.5496,
6.144601,0.5054,-1.5215,-0.1000,0.2986,-3.1806,-0.4876,-1.5159,-0.8370,-1.5496,
6.146042,0.3862,-1.5741,-0.0238,0.2986,-3.1806,-0.4876,-1.5159,-0.8370,-1.5496,
6.176372,0.3862,-1.5741,-0.0238,0.2986,-3.1806,-0.4876,-1.4722,0.4189,-1.6891,
6.178299,0.3862,-1.5741,-0.0238,-0.2413,-3.6253,-0.1398,-1.4722,0.4189,-1.6891,
6.203646,0.3847,-1.5743,-0.0602,-0.2413,-3.6253,-0.1398,-1.4722,0.4189,-1.6891,
6.206099,0.6754,-1.4683,-0.3214,-0.2413,-3.6253,-0.1398,-1.4722,0.4189,-1.6891,
6.207116,0.9891,-1.3789,-0.5439,-0.2413,-3.6253,-0.1398,-1.4722,0.4189,-1.6891,
6.217725,0.9891,-1.3789,-0.5439,-0.2413,-3.6253,-0.1398,-0.8980,1.2701,-1.2258,
6.220177,0.9891,-1.3789,-0.5439,-2.1024,-8.1544,1.7620,-0.8980,1.2701,-1.2258,
6.256505,0.9891,-1.3789,-0.5439,-2.1024,-8.1544,1.7620,-0.3452,-0.4482,-0.9360,
6.259500,0.9891,-1.3789,-0.5439,2.8299,-5.9974,-1.6075,-0.3452,-0.4482,-0.9360,
6.292248,1.2017,-1.1109,-0.4230,2.8299,-5.9974,-1.6075,-0.3452,-0.4482,-0.9360,
6.295705,0.8728,-0.8766,-0.2415,2.8299,-5.9974,-1.6075,-0.3452,-0.4482,-0.9360,
6.297227,0.5017,-0.8287,-0.1792,2.8299,-5.9974,-1.6075,-0.3452,-0.4482,-0.9360,
6.298517,0.4077,-0.8739,-0.2114,2.8299,-5.9974,-1.6075,-0.3452,-0.4482,-0.9360,
6.299653,0.4077,-0.8739,-0.2114,2.8299,-5.9974,-1.6075,0.2844,-0.9308,-0.3277,
6.300900,0.4077,-0.8739,-0.2114,-0.6896,-1.5217,0.6884,0.2844,-0.9308,-0.3277,
6.335787,0.4077,-0.8739,-0.2114,-0.6896,-1.5217,0.6884,0.4602,-0.4855,0.2166,
6.338644,0.4077,-0.8739,-0.2114,-4.5748,0.8018,1.0507,0.4602,-0.4855,0.2166,
6.374939,0.4077,-0.8739,-0.2114,-4.5748,0.8018,1.0507,0.4112,-0.1095,0.6172,
6.377094,0.4077,-0.8739,-0.2114,-4.3163,0.9813,0.9466,0.4112,-0.1095,0.6172,
6.378451,0.2948,-0.7835,-0.2187,-4.3163,0.9813,0.9466,0.4112,-0.1095,0.6172,
6.379700,0.1570,-0.6181,-0.1860,-4.3163,0.9813,0.9466,0.4112,-0.1095,0.6172,
6.380967,0.0828,-0.4945,-0.1103,-4.3163,0.9813,0.9466,0.4112,-0.1095,0.6172,
6.382312,0.0991,-0.4231,-0.0228,-4.3163,0.9813,0.9466,0.4112,-0.1095,0.6172,
6.383332,0.1507,-0.3745,0.0006,-4.3163,0.9813,0.9466,0.4112,-0.1095,0.6172,
6.414518,0.1507,-0.3745,0.0006,-4.3163,0.9813,0.9466,0.6359,0.4733,1.1658,
6.416865,0.1507,-0.3745,0.0006,-3.9561,1.2955,0.6400,0.6359,0.4733,1.1658,
6.453970,0.1507,-0.3745,0.0006,-3.9561,1.2955,0.6400,0.7020,0.1814,1.1572,
6.456042,0.1507,-0.3745,0.0006,-3.9010,3.9040,1.8129,0.7020,0.1814,1.1572,
6.457307,0.1790,-0.3760,-0.0470,-3.9010,3.9040,1.8129,0.7020,0.1814,1.1572,
6.458571,0.2916,-0.3980,-0.1005,-3.9010,3.9040,1.8129,0.7020,0.1814,1.1572,
6.459780,0.4277,-0.4955,-0.2451,-3.9010,3.9040,1.8129,0.7020,0.1814,1.1572,
6.461695,0.5645,-0.6907,-0.4743,-3.9010,3.9040,1.8129,0.7020,0.1814,1.1572,
6.493417,0.5645,-0.6907,-0.4743,-3.9010,3.9040,1.8129,0.7329,-0.2841,0.8707,
6.495764,0.5645,-0.6907,-0.4743,-0.8016,2.7511,-0.7968,0.7329,-0.2841,0.8707,
6.533273,0.5645,-0.6907,-0.4743,-0.8016,2.7511,-0.7968,1.2016,-0.6698,0.6310,
6.535357,0.5645,-0.6907,-0.4743,3.0758,2.1994,-1.4122,1.2016,-0.6698,0.6310,
6.536626,0.7766,-0.7574,-0.4342,3.0758,2.1994,-1.4122,1.2016,-0.6698,0.6310,
6.537707,0.9471,-0.6242,-0.3008,3.0758,2.1994,-1.4122,1.2016,-0.6698,0.6310,
6.538844,0.6874,-0.4229,-0.2029,3.0758,2.1994,-1.4122,1.2016,-0.6698,0.6310,
6.539919,0.5184,-0.3037,-0.0731,3.0758,2.1994,-1.4122,1.2016,-0.6698,0.6310,
6.572719,0.5184,-0.3037,-0.0731,3.0758,2.1994,-1.4122,0.8841,-0.6229,0.3562,
6.574802,0.5184,-0.3037,-0.0731,3.1755,2.2822,-1.5552,0.8841,-0.6229,0.3562,
6.612887,0.5081,-0.3596,-0.0428,3.1755,2.2822,-1.5552,0.8841,-0.6229,0.3562,
6.615181,0.5147,-0.5394,-0.1384,3.1755,2.2822,-1.5552,0.8841,-0.6229,0.3562,
6.616121,0.5936,-0.7505,-0.2652,3.1755,2.2822,-1.5552,0.8841,-0.6229,0.3562,
6.616950,0.5936,-0.7505,-0.2652,3.1755,2.2822,-1.5552,0.4921,0.5627,-0.0050,
6.617678,0.5936,-0.7505,-0.2652,0.2971,4.2030,0.4062,0.4921,0.5627,-0.0050,
6.653057,0.5936,-0.7505,-0.2652,0.2971,4.2030,0.4062,0.2599,1.5524,-0.3576,
6.655431,0.5936,-0.7505,-0.2652,0.7301,-1.2260,-1.8590,0.2599,1.5524,-0.3576,
6.692458,0.5936,-0.7505,-0.2652,0.7301,-1.2260,-1.8590,0.7648,0.3273,-0.1775,
6.694443,0.5936,-0.7505,-0.2652,0.6515,-1.2188,-2.1320,0.7648,0.3273,-0.1775,
6.696066,0.5939,-0.9501,-0.3644,0.6515,-1.2188,-2.1320,0.7648,0.3273,-0.1775,
6.697201,0.5447,-1.1529,-0.2114,0.6515,-1.2188,-2.1320,0.7648,0.3273,-0.1775,
6.698180,0.3967,-1.3004,-0.1545,0.6515,-1.2188,-2.1320,0.7648,0.3273,-0.1775,
6.699345,0.4136,-1.2044,-0.4533,0.6515,-1.2188,-2.1320,0.7648,0.3273,-0.1775,
6.700468,0.6561,-1.1424,-0.2068,0.6515,-1.2188,-2.1320,0.7648,0.3273,-0.1775,
6.730822,0.6561,-1.1424,-0.2068,0.6515,-1.2188,-2.1320,-0.1161,-0.0083,-0.3000,
6.733003,0.6561,-1.1424,-0.2068,-0.3074,-3.8102,-1.9736,-0.1161,-0.0083,-0.3000,
6.769739,0.8794,-1.4026,-0.2249,-0.3074,-3.8102,-1.9736,-0.1161,-0.0083,-0.3000,
6.771861,0.7546,-1.5741,-0.0358,-0.3074,-3.8102,-1.9736,-0.1161,-0.0083,-0.3000,
6.773027,0.7746,-1.4717,0.1377,-0.3074,-3.8102,-1.9736,-0.1161,-0.0083,-0.3000,
6.774152,0.7746,-1.4717,0.1377,-0.3074,-3.8102,-1.9736,-0.9460,0.5872,-0.2617,
6.775253,0.7746,-1.4717,0.1377,2.6245,-6.4011,0.4600,-0.9460,0.5872,-0.2617,
6.811166,0.7746,-1.4717,0.1377,2.6245,-6.4011,0.4600,0.0522,-0.8487,0.1911,
6.813097,0.7746,-1.4717,0.1377,0.9994,-2.2079,2.5389,0.0522,-0.8487,0.1911,
6.849955,0.7746,-1.4717,0.1377,0.9994,-2.2079,2.5389,0.9630,-1.4485,0.4659,
6.851915,0.7746,-1.4717,0.1377,1.1881,-2.0425,2.4718,0.9630,-1.4485,0.4659,
6.853072,0.7556,-1.0669,0.0453,1.1881,-2.0425,2.4718,0.9630,-1.4485,0.4659,
6.853996,0.5584,-1.0214,0.1419,1.1881,-2.0425,2.4718,0.9630,-1.4485,0.4659,
6.855275,0.5736,-1.1006,0.2911,1.1881,-2.0425,2.4718,0.9630,-1.4485,0.4659,
6.856408,0.5777,-0.9850,0.1805,1.1881,-2.0425,2.4718,0.9630,-1.4485,0.4659,
6.857486,0.6185,-0.8888,-0.1005,1.1881,-2.0425,2.4718,0.9630,-1.4485,0.4659,
6.889765,0.6185,-0.8888,-0.1005,1.1881,-2.0425,2.4718,0.9736,-0.5249,0.4105,
6.891828,0.6185,-0.8888,-0.1005,1.3206,-1.8992,2.2112,0.9736,-0.5249,0.4105,
6.928971,0.6185,-0.8888,-0.1005,1.3206,-1.8992,2.2112,0.1278,-0.0945,0.0462,
6.931046,0.6185,-0.8888,-0.1005,1.4567,-0.4910,0.0968,0.1278,-0.0945,0.0462,
6.932315,0.7351,-0.8903,-0.2407,1.4567,-0.4910,0.0968,0.1278,-0.0945,0.0462,
6.933567,0.5763,-0.8111,-0.2222,1.4567,-0.4910,0.0968,0.1278,-0.0945,0.0462,
6.934678,0.2912,-0.6953,-0.2002,1.4567,-0.4910,0.0968,0.1278,-0.0945,0.0462,
6.936188,0.1377,-0.6714,-0.1225,1.4567,-0.4910,0.0968,0.1278,-0.0945,0.0462,
6.970220,0.1377,-0.6714,-0.1225,1.4567,-0.4910,0.0968,0.1044,-0.3438,0.1974,
6.972472,0.1377,-0.6714,-0.1225,-1.4683,1.4402,-1.1087,0.1044,-0.3438,0.1974,
7.008378,0.1377,-0.6714,-0.1225,-1.4683,1.4402,-1.1087,0.0042,-0.2724,0.1623,
7.010110,0.1377,-0.6714,-0.1225,-2.3640,3.4465,-0.5401,0.0042,-0.2724,0.1623,
7.011601,0.1258,-0.6367,-0.0304,-2.3640,3.4465,-0.5401,0.0042,-0.2724,0.1623,
7.012995,0.2162,-0.5050,-0.1723,-2.3640,3.4465,-0.5401,0.0042,-0.2724,0.1623,
7.014926,0.3576,-0.4134,-0.1860,-2.3640,3.4465,-0.5401,0.0042,-0.2724,0.1623,
7.016866,0.2726,-0.4420,0.0524,-2.3640,3.4465,-0.5401,0.0042,-0.2724,0.1623,
7.047186,0.2726,-0.4420,0.0524,-2.3640,3.4465,-0.5401,-0.1204,-0.2415,-0.0135,
7.048535,0.2726,-0.4420,0.0524,-2.3219,3.3830,-0.4474,-0.1204,-0.2415,-0.0135,
7.087609,0.2726,-0.4420,0.0524,-2.3219,3.3830,-0.4474,-0.0735,-0.0349,-0.1328,
7.089603,0.2726,-0.4420,0.0524,-0.8386,4.3786,0.9293,-0.0735,-0.0349,-0.1328,
7.090765,0.3185,-0.4207,0.0576,-0.8386,4.3786,0.9293,-0.0735,-0.0349,-0.1328,
7.092034,0.5714,-0.3567,-0.0819,-0.8386,4.3786,0.9293,-0.0735,-0.0349,-0.1328,
7.093273,0.8298,-0.4442,-0.0306,-0.8386,4.3786,0.9293,-0.0735,-0.0349,-0.1328,
7.094475,0.8780,-0.6438,0.0097,-0.8386,4.3786,0.9293,-0.0735,-0.0349,-0.1328,
7.128136,0.8780,-0.6438,0.0097,-0.8386,4.3786,0.9293,-0.1971,0.6756,-0.3948,
7.130056,0.8780,-0.6438,0.0097,-0.9740,4.2268,0.8536,-0.1971,0.6756,-0.3948,
7.166604,0.8780,-0.6438,0.0097,-0.9740,4.2268,0.8536,-0.3409,-0.4333,-0.4129,
7.168396,0.8780,-0.6438,0.0097,3.4011,2.3809,0.4021,-0.3409,-0.4333,-0.4129,
7.169762,0.8479,-0.6565,-0.1464,3.4011,2.3809,0.4021,-0.3409,-0.4333,-0.4129,
7.171007,0.7974,-0.4385,-0.3326,3.4011,2.3809,0.4021,-0.3409,-0.4333,-0.4129,
7.172318,0.6720,-0.4434,-0.3685,3.4011,2.3809,0.4021,-0.3409,-0.4333,-0.4129,
7.173556,0.7592,-0.7867,-0.2505,3.4011,2.3809,0.4021,-0.3409,-0.4333,-0.4129,
7.207213,0.7592,-0.7867,-0.2505,3.4011,2.3809,0.4021,-0.8373,-1.8426,-1.0329,
7.211082,0.7592,-0.7867,-0.2505,2.0646,2.3394,-1.5001,-0.8373,-1.8426,-1.0329,
7.246138,0.7592,-0.7867,-0.2505,2.0646,2.3394,-1.5001,-1.1942,-0.7071,-1.8084,
7.248513,0.7592,-0.7867,-0.2505,1.8986,-7.1604,0.2723,-1.1942,-0.7071,-1.8084,
7.249836,0.9244,-1.2750,-0.2038,1.8986,-7.1604,0.2723,-1.1942,-0.7071,-1.8084,
7.251105,0.8479,-1.6044,-0.1897,1.8986,-7.1604,0.2723,-1.1942,-0.7071,-1.8084,
7.252294,0.5655,-1.5875,-0.1696,1.8986,-7.1604,0.2723,-1.1942,-0.7071,-1.8084,
7.253438,0.4964,-1.4768,-0.1042,1.8986,-7.1604,0.2723,-1.1942,-0.7071,-1.8084,
7.286912,0.4964,-1.4768,-0.1042,1.8986,-7.1604,0.2723,-1.1217,0.9153,-1.6156,
7.289639,0.4964,-1.4768,-0.1042,1.3352,-7.5147,0.3651,-1.1217,0.9153,-1.6156,
7.327045,0.4964,-1.4768,-0.1042,1.3352,-7.5147,0.3651,-0.4102,1.1422,-1.0766,
7.329389,0.4964,-1.4768,-0.1042,-0.5427,-7.9317,0.1794,-0.4102,1.1422,-1.0766,
7.330846,0.5770,-1.5567,-0.1809,-0.5427,-7.9317,0.1794,-0.4102,1.1422,-1.0766,
7.332180,0.8066,-1.5066,-0.2784,-0.5427,-7.9317,0.1794,-0.4102,1.1422,-1.0766,
7.333523,0.9806,-1.2125,-0.2872,-0.5427,-7.9317,0.1794,-0.4102,1.1422,-1.0766,
7.334787,1.1076,-1.0442,-0.4296,-0.5427,-7.9317,0.1794,-0.4102,1.1422,-1.0766,
7.366636,1.1076,-1.0442,-0.4296,-0.5427,-7.9317,0.1794,0.3451,-0.7912,-0.5930,
7.383282,1.1076,-1.0442,-0.4296,-0.6275,-7.9276,0.2940,0.3451,-0.7912,-0.5930,
7.404601,0.9796,-0.9865,-0.4274,-0.6275,-7.9276,0.2940,0.3451,-0.7912,-0.5930,
7.406708,0.5203,-0.9357,-0.3113,-0.6275,-7.9276,0.2940,0.3451,-0.7912,-0.5930,
7.407499,0.2565,-0.8299,-0.2300,-0.6275,-7.9276,0.2940,0.3451,-0.7912,-0.5930,
7.408212,0.2565,-0.8299,-0.2300,-0.6275,-7.9276,0.2940,0.6647,-2.0855,0.1176,
7.409094,0.2565,-0.8299,-0.2300,3.4188,-3.5392,-1.2137,0.6647,-2.0855,0.1176,
7.445125,0.2565,-0.8299,-0.2300,3.4188,-3.5392,-1.2137,0.8000,-1.5603,0.8015,
7.448114,0.2565,-0.8299,-0.2300,-3.1748,-0.7573,0.3468,0.8000,-1.5603,0.8015,
7.483162,0.2565,-0.8299,-0.2300,-3.1748,-0.7573,0.3468,0.7723,-0.4514,0.9442,
7.484341,0.2565,-0.8299,-0.2300,-2.7985,-0.4447,0.2217,0.7723,-0.4514,0.9442,
7.485593,0.1365,-0.7175,-0.1753,-2.7985,-0.4447,0.2217,0.7723,-0.4514,0.9442,
7.486130,0.0950,-0.5793,-0.1296,-2.7985,-0.4447,0.2217,0.7723,-0.4514,0.9442,
7.486564,0.0666,-0.4923,-0.0802,-2.7985,-0.4447,0.2217,0.7723,-0.4514,0.9442,
7.486934,0.0791,-0.4876,-0.0790,-2.7985,-0.4447,0.2217,0.7723,-0.4514,0.9442,
7.487382,0.1138,-0.5113,-0.1472,-2.7985,-0.4447,0.2217,0.7723,-0.4514,0.9442,
7.523359,0.1138,-0.5113,-0.1472,-2.7985,-0.4447,0.2217,0.7968,0.5446,1.1082,
7.525184,0.1138,-0.5113,-0.1472,-4.6237,2.8484,1.2303,0.7968,0.5446,1.1082,
7.557316,0.1419,-0.5309,-0.1797,-4.6237,2.8484,1.2303,0.7968,0.5446,1.1082,
7.559616,0.2364,-0.5333,-0.1933,-4.6237,2.8484,1.2303,0.7968,0.5446,1.1082,
7.560875,0.3681,-0.5355,-0.3375,-4.6237,2.8484,1.2303,0.7968,0.5446,1.1082,
7.563907,0.3681,-0.5355,-0.3375,-3.4510,2.9993,0.2180,0.7968,0.5446,1.1082,
7.565469,0.3681,-0.5355,-0.3375,-3.4510,2.9993,0.2180,0.5624,0.3497,1.0049,
7.603899,0.3681,-0.5355,-0.3375,-3.4510,2.9993,0.2180,0.0564,-0.2735,0.5128,
7.606453,0.3681,-0.5355,-0.3375,2.0816,2.3676,-1.3590,0.0564,-0.2735,0.5128,
7.643125,0.7109,-0.5839,-0.4130,2.0816,2.3676,-1.3590,0.0564,-0.2735,0.5128,
7.645939,1.0602,-0.6694,-0.2703,2.0816,2.3676,-1.3590,0.0564,-0.2735,0.5128,
7.647255,0.8863,-0.6227,-0.2385,2.0816,2.3676,-1.3590,0.0564,-0.2735,0.5128,
7.648529,0.8863,-0.6227,-0.2385,2.0816,2.3676,-1.3590,0.1608,0.7055,0.0920,
7.649848,0.8863,-0.6227,-0.2385,2.0248,2.3576,-1.5228,0.1608,0.7055,0.0920,
7.682486,0.8863,-0.6227,-0.2385,2.0248,2.3576,-1.5228,0.2652,0.8759,0.0504,
7.684181,0.8863,-0.6227,-0.2385,1.0943,3.1843,-0.7777,0.2652,0.8759,0.0504,
7.722619,0.6053,-0.4388,-0.2227,1.0943,3.1843,-0.7777,0.2652,0.8759,0.0504,
7.725380,0.3813,-0.4661,-0.2561,1.0943,3.1843,-0.7777,0.2652,0.8759,0.0504,
7.726682,0.2819,-0.7214,-0.2744,1.0943,3.1843,-0.7777,0.2652,0.8759,0.0504,
7.727782,0.3359,-0.8082,-0.1711,1.0943,3.1843,-0.7777,0.2652,0.8759,0.0504,
7.729284,0.4917,-0.6169,-0.1332,1.0943,3.1843,-0.7777,0.2652,0.8759,0.0504,
7.730850,0.5328,-0.5201,-0.1713,1.0943,3.1843,-0.7777,0.2652,0.8759,0.0504,
7.732569,0.5328,-0.5201,-0.1713,1.0943,3.1843,-0.7777,0.3941,0.2645,0.3082,
7.733537,0.5328,-0.5201,-0.1713,-1.2931,1.2258,-0.4975,0.3941,0.2645,0.3082,
7.761493,0.5328,-0.5201,-0.1713,-1.2931,1.2258,-0.4975,0.5869,0.4338,0.3306,
7.763433,0.5328,-0.5201,-0.1713,-1.1861,1.2968,-0.7609,0.5869,0.4338,0.3306,
7.801823,0.5328,-0.5201,-0.1713,-1.1861,1.2968,-0.7609,0.2205,0.4125,0.0824,
7.803972,0.5328,-0.5201,-0.1713,0.3503,2.6966,-2.0310,0.2205,0.4125,0.0824,
7.804934,0.5086,-0.5433,-0.2828,0.3503,2.6966,-2.0310,0.2205,0.4125,0.0824,
7.805888,0.5372,-0.6481,-0.4777,0.3503,2.6966,-2.0310,0.2205,0.4125,0.0824,
7.806698,0.6312,-0.8001,-0.3695,0.3503,2.6966,-2.0310,0.2205,0.4125,0.0824,
7.807583,0.5604,-1.0513,0.1499,0.3503,2.6966,-2.0310,0.2205,0.4125,0.0824,
7.843181,0.5604,-1.0513,0.1499,0.3503,2.6966,-2.0310,0.3973,0.2293,-0.1328,
7.845579,0.5604,-1.0513,0.1499,0.2933,2.6409,-2.1684,0.3973,0.2293,-0.1328,
7.881194,0.5604,-1.0513,0.1499,0.2933,2.6409,-2.1684,-0.8107,1.5651,-0.3735,
7.883779,0.5604,-1.0513,0.1499,0.8432,-2.2298,-0.4997,-0.8107,1.5651,-0.3735,
7.885192,0.6127,-1.3322,-0.1904,0.8432,-2.2298,-0.4997,-0.8107,1.5651,-0.3735,
7.886391,0.8770,-1.5526,-0.5429,0.8432,-2.2298,-0.4997,-0.8107,1.5651,-0.3735,
7.887449,0.8115,-1.6334,-0.1728,0.8432,-2.2298,-0.4997,-0.8107,1.5651,-0.3735,
7.888768,0.6987,-1.5008,0.1028,0.8432,-2.2298,-0.4997,-0.8107,1.5651,-0.3735,
7.920864,0.6987,-1.5008,0.1028,0.8432,-2.2298,-0.4997,-0.6051,0.2666,0.2358,
7.923135,0.6987,-1.5008,0.1028,2.7680,-6.9961,-1.0034,-0.6051,0.2666,0.2358,
7.961964,0.7837,-1.3210,0.0923,2.7680,-6.9961,-1.0034,-0.6051,0.2666,0.2358,
7.964337,0.8943,-1.1578,0.0639,2.7680,-6.9961,-1.0034,-0.6051,0.2666,0.2358,
7.966004,0.7519,-1.1236,0.0590,2.7680,-6.9961,-1.0034,-0.6051,0.2666,0.2358,
7.967690,0.7519,-1.1236,0.0590,2.7680,-6.9961,-1.0034,0.6881,-1.4027,0.6747,
7.969120,0.7519,-1.1236,0.0590,3.1363,-3.2396,1.7149,0.6881,-1.4027,0.6747,
8.000258,0.7519,-1.1236,0.0590,3.1363,-3.2396,1.7149,0.6072,-1.1438,0.6140,
8.002886,0.7519,-1.1236,0.0590,0.0721,-0.7416,1.1389,0.6072,-1.1438,0.6140,
8.039702,0.7519,-1.1236,0.0590,0.0721,-0.7416,1.1389,0.4793,-0.7497,0.6406,
8.042955,0.7519,-1.1236,0.0590,0.3179,-0.6006,1.0861,0.4793,-0.7497,0.6406,
8.044631,0.5565,-1.0517,0.0705,0.3179,-0.6006,1.0861,0.4793,-0.7497,0.6406,
8.046358,0.4412,-0.9657,0.0006,0.3179,-0.6006,1.0861,0.4793,-0.7497,0.6406,
8.047499,0.4165,-0.8663,-0.0279,0.3179,-0.6006,1.0861,0.4793,-0.7497,0.6406,
8.048695,0.4409,-0.7395,-0.0345,0.3179,-0.6006,1.0861,0.4793,-0.7497,0.6406,
8.049954,0.4663,-0.6269,-0.0421,0.3179,-0.6006,1.0861,0.4793,-0.7497,0.6406,
8.078795,0.4663,-0.6269,-0.0421,0.3179,-0.6006,1.0861,0.4751,-0.3129,0.5362,
8.080789,0.4663,-0.6269,-0.0421,0.5091,-0.4862,0.9551,0.4751,-0.3129,0.5362,
8.119156,0.4663,-0.6269,-0.0421,0.5091,-0.4862,0.9551,0.2610,-0.2788,0.4393,
8.124274,0.4663,-0.6269,-0.0421,0.5058,2.6406,0.1855,0.2610,-0.2788,0.4393,
8.126083,0.4580,-0.5705,-0.1000,0.5058,2.6406,0.1855,0.2610,-0.2788,0.4393,
8.127107,0.4263,-0.5499,-0.1594,0.5058,2.6406,0.1855,0.2610,-0.2788,0.4393,
8.128513,0.3894,-0.5558,-0.1396,0.5058,2.6406,0.1855,0.2610,-0.2788,0.4393,
8.129684,0.3808,-0.5321,-0.0756,0.5058,2.6406,0.1855,0.2610,-0.2788,0.4393,
8.157820,0.3808,-0.5321,-0.0756,0.5058,2.6406,0.1855,0.2993,-0.5995,0.4446,
8.159767,0.3808,-0.5321,-0.0756,0.1286,3.6328,-0.4682,0.2993,-0.5995,0.4446,
8.188481,0.4153,-0.5065,-0.0734,0.1286,3.6328,-0.4682,0.2993,-0.5995,0.4446,
8.190919,0.5333,-0.5866,-0.1459,0.1286,3.6328,-0.4682,0.2993,-0.5995,0.4446,
8.192308,0.5975,-0.6567,-0.1787,0.1286,3.6328,-0.4682,0.2993,-0.5995,0.4446,
8.197455,0.5975,-0.6567,-0.1787,0.1286,3.6328,-0.4682,0.4186,-0.7007,0.4116,
8.199095,0.5975,-0.6567,-0.1787,1.4140,3.2841,-0.5820,0.4186,-0.7007,0.4116,
8.237990,0.5975,-0.6567,-0.1787,1.4140,3.2841,-0.5820,0.3462,-1.2418,0.5138,
8.240637,0.5975,-0.6567,-0.1787,1.2047,3.6120,0.6565,0.3462,-1.2418,0.5138,
8.276931,0.5975,-0.6567,-0.1787,1.2047,3.6120,0.6565,0.9257,-1.7159,0.5916,
8.279911,0.5433,-0.5966,-0.0639,1.2047,3.6120,0.6565,0.9257,-1.7159,0.5916,
8.281241,0.4575,-0.5101,0.0236,1.2047,3.6120,0.6565,0.9257,-1.7159,0.5916,
8.282647,0.4199,-0.5490,0.0097,1.2047,3.6120,0.6565,0.9257,-1.7159,0.5916,
8.283872,0.5748,-0.6821,-0.0099,1.2047,3.6120,0.6565,0.9257,-1.7159,0.5916,
8.285202,0.7500,-0.6782,-0.1496,1.2047,3.6120,0.6565,0.9257,-1.7159,0.5916,
8.286299,0.7500,-0.6782,-0.1496,1.4416,3.6537,0.5390,0.9257,-1.7159,0.5916,
8.316986,0.7500,-0.6782,-0.1496,1.4416,3.6537,0.5390,0.6775,-1.3377,0.4265,
8.319094,0.7500,-0.6782,-0.1496,1.5998,3.6602,0.4517,0.6775,-1.3377,0.4265,
8.357063,0.7500,-0.6782,-0.1496,1.5998,3.6602,0.4517,-0.6307,-1.2493,-0.0454,
8.360098,0.7500,-0.6782,-0.1496,3.3514,2.7346,-0.7391,-0.6307,-1.2493,-0.0454,
8.361505,0.6439,-0.5570,-0.3546,3.3514,2.7346,-0.7391,-0.6307,-1.2493,-0.0454,
8.362902,0.4294,-0.6540,-0.3817,3.3514,2.7346,-0.7391,-0.6307,-1.2493,-0.0454,
8.364149,0.4900,-0.7598,-0.1948,3.3514,2.7346,-0.7391,-0.6307,-1.2493,-0.0454,
8.365797,0.7258,-0.9447,-0.1313,3.3514,2.7346,-0.7391,-0.6307,-1.2493,-0.0454,
8.395192,0.7258,-0.9447,-0.1313,3.3514,2.7346,-0.7391,-0.9289,-2.1803,-0.8689,
8.397173,0.7258,-0.9447,-0.1313,2.0602,1.1193,-0.7567,-0.9289,-2.1803,-0.8689,
8.435388,0.7258,-0.9447,-0.1313,2.0602,1.1193,-0.7567,-0.6850,-2.0898,-2.2825,
8.437852,0.7258,-0.9447,-0.1313,6.1818,-4.3303,2.2916,-0.6850,-2.0898,-2.2825,
8.439647,0.9674,-1.1712,-0.1638,6.1818,-4.3303,2.2916,-0.6850,-2.0898,-2.2825,
8.440868,1.0810,-1.2877,0.0419,6.1818,-4.3303,2.2916,-0.6850,-2.0898,-2.2825,
8.442153,1.0834,-1.4749,0.1961,6.1818,-4.3303,2.2916,-0.6850,-2.0898,-2.2825,
8.444347,0.9493,-1.7952,0.2208,6.1818,-4.3303,2.2916,-0.6850,-2.0898,-2.2825,
8.475470,0.9493,-1.7952,0.2208,6.1818,-4.3303,2.2916,-0.2248,-0.3396,-2.8556,
8.478249,0.9493,-1.7952,0.2208,5.1868,-4.7771,2.3808,-0.2248,-0.3396,-2.8556,
8.515353,0.9493,-1.7952,0.2208,5.1868,-4.7771,2.3808,-0.2323,0.3593,-1.7520,
8.517860,0.9493,-1.7952,0.2208,1.7253,-10.8031,2.3156,-0.2323,0.3593,-1.7520,
8.520068,0.7654,-2.0607,0.1436,1.7253,-10.8031,2.3156,-0.2323,0.3593,-1.7520,
8.521420,0.5433,-1.8594,-0.2964,1.7253,-10.8031,2.3156,-0.2323,0.3593,-1.7520,
8.522715,0.4040,-1.4798,-0.5024,1.7253,-10.8031,2.3156,-0.2323,0.3593,-1.7520,
8.524041,0.4512,-1.4128,-0.0184,1.7253,-10.8031,2.3156,-0.2323,0.3593,-1.7520,
8.554439,0.4512,-1.4128,-0.0184,1.7253,-10.8031,2.3156,1.2868,-3.5620,-0.6239,
8.558748,0.4512,-1.4128,-0.0184,1.8250,-10.6456,2.6672,1.2868,-3.5620,-0.6239,
8.584271,0.5929,-1.3105,0.2203,1.8250,-10.6456,2.6672,1.2868,-3.5620,-0.6239,
8.586334,0.8093,-1.0398,0.1340,1.8250,-10.6456,2.6672,1.2868,-3.5620,-0.6239,
8.587285,0.6610,-0.8040,0.0915,1.8250,-10.6456,2.6672,1.2868,-3.5620,-0.6239,
8.593459,0.6610,-0.8040,0.0915,1.8250,-10.6456,2.6672,2.3372,-3.3873,-0.5216,
8.594877,0.6610,-0.8040,0.0915,-0.6446,-5.4965,1.4258,2.3372,-3.3873,-0.5216,
8.634000,0.6610,-0.8040,0.0915,-0.6446,-5.4965,1.4258,1.6245,-2.5968,-0.1062,
8.636663,0.6610,-0.8040,0.0915,-0.0082,-0.0181,3.3512,1.6245,-2.5968,-0.1062,
8.674494,0.6610,-0.8040,0.0915,-0.0082,-0.0181,3.3512,0.7243,-2.5638,0.7290,
8.677330,0.1072,-0.7229,0.0778,-0.0082,-0.0181,3.3512,0.7243,-2.5638,0.7290,
8.678827,-0.1916,-0.6850,-0.0123,-0.0082,-0.0181,3.3512,0.7243,-2.5638,0.7290,
8.680140,-0.2082,-0.6574,-0.0758,-0.0082,-0.0181,3.3512,0.7243,-2.5638,0.7290,
8.681434,-0.1948,-0.6499,-0.1183,-0.0082,-0.0181,3.3512,0.7243,-2.5638,0.7290,
8.682681,-0.1134,-0.6127,-0.2141,-0.0082,-0.0181,3.3512,0.7243,-2.5638,0.7290,
8.689374,-0.1134,-0.6127,-0.2141,-6.4978,2.0350,1.9126,0.7243,-2.5638,0.7290,
8.712619,-0.1134,-0.6127,-0.2141,-6.4978,2.0350,1.9126,0.1044,-1.2802,0.2188,
8.714740,-0.1134,-0.6127,-0.2141,-6.1834,2.0497,2.0675,0.1044,-1.2802,0.2188,
8.753526,-0.1134,-0.6127,-0.2141,-6.1834,2.0497,2.0675,0.2599,-0.0093,-0.6537,
8.755780,-0.1134,-0.6127,-0.2141,-4.7452,2.5039,-0.0506,0.2599,-0.0093,-0.6537,
8.757106,-0.0685,-0.5924,-0.2852,-4.7452,2.5039,-0.0506,0.2599,-0.0093,-0.6537,
8.758559,0.0701,-0.6093,-0.3292,-4.7452,2.5039,-0.0506,0.2599,-0.0093,-0.6537,
8.759826,0.3090,-0.6731,-0.3336,-4.7452,2.5039,-0.0506,0.2599,-0.0093,-0.6537,
8.761061,0.5057,-0.7705,-0.4899,-4.7452,2.5039,-0.0506,0.2599,-0.0093,-0.6537,
8.791969,0.5057,-0.7705,-0.4899,-4.9430,2.3474,-0.1619,0.2599,-0.0093,-0.6537,
8.794337,0.5057,-0.7705,-0.4899,-4.9430,2.3474,-0.1619,0.5262,-0.3363,-0.9530,
8.832614,0.5057,-0.7705,-0.4899,-4.9430,2.3474,-0.1619,0.5156,-0.6208,-0.6995,
8.834237,0.5057,-0.7705,-0.4899,0.6282,0.9140,-2.1530,0.5156,-0.6208,-0.6995,
8.835172,0.8333,-0.7811,-0.6094,0.6282,0.9140,-2.1530,0.5156,-0.6208,-0.6995,
8.836020,1.0768,-0.6203,-0.2862,0.6282,0.9140,-2.1530,0.5156,-0.6208,-0.6995,
8.836785,1.2388,-0.3645,-0.0428,0.6282,0.9140,-2.1530,0.5156,-0.6208,-0.6995,
8.837476,1.3959,-0.2780,-0.0089,0.6282,0.9140,-2.1530,0.5156,-0.6208,-0.6995,
8.871367,1.3959,-0.2780,-0.0089,7.0281,3.9526,1.0735,0.5156,-0.6208,-0.6995,
8.873711,1.3959,-0.2780,-0.0089,7.0281,3.9526,1.0735,1.1462,-0.2000,-0.7475,
8.911293,1.3959,-0.2780,-0.0089,7.0281,3.9526,1.0735,1.7268,-1.4698,-1.0990,
8.914376,1.3959,-0.2780,-0.0089,5.3489,0.8820,-0.7585,1.7268,-1.4698,-1.0990,
8.915806,1.3492,-0.5411,-0.0573,5.3489,0.8820,-0.7585,1.7268,-1.4698,-1.0990,
8.917032,1.1044,-0.8336,-0.3380,5.3489,0.8820,-0.7585,1.7268,-1.4698,-1.0990,
8.918453,0.8426,-0.7967,-0.4323,5.3489,0.8820,-0.7585,1.7268,-1.4698,-1.0990,
8.919752,0.5105,-0.7588,-0.1012,5.3489,0.8820,-0.7585,1.7268,-1.4698,-1.0990,
8.950877,0.5105,-0.7588,-0.1012,5.3489,0.8820,-0.7585,2.0985,-2.5074,-0.5930,
8.954791,0.5105,-0.7588,-0.1012,5.2581,0.8947,-0.8669,2.0985,-2.5074,-0.5930,
8.985405,0.3874,-0.8900,0.1299,5.2581,0.8947,-0.8669,2.0985,-2.5074,-0.5930,
8.987603,0.3923,-1.2032,0.0761,5.2581,0.8947,-0.8669,2.0985,-2.5074,-0.5930,
8.988991,0.4526,-1.7959,-1.0386,5.2581,0.8947,-0.8669,2.0985,-2.5074,-0.5930,
8.991076,0.4526,-1.7959,-1.0386,5.2581,0.8947,-0.8669,1.9473,-1.2269,0.1357,
8.992575,0.4526,-1.7959,-1.0386,-1.1485,-1.1505,1.7924,1.9473,-1.2269,0.1357,
9.030217,0.4526,-1.7959,-1.0386,-1.1485,-1.1505,1.7924,-0.4410,-1.0639,0.1985,
9.032632,0.4526,-1.7959,-1.0386,-1.1258,-8.8548,-0.7898,-0.4410,-1.0639,0.1985,
9.053053,0.5562,-2.0800,-0.6712,-1.1258,-8.8548,-0.7898,-0.4410,-1.0639,0.1985,
9.055380,0.2425,-1.3840,0.9078,-1.1258,-8.8548,-0.7898,-0.4410,-1.0639,0.1985,
9.056681,-0.1953,-0.6775,0.5796,-1.1258,-8.8548,-0.7898,-0.4410,-1.0639,0.1985,
9.057984,-0.0807,-0.5666,0.2423,-1.1258,-8.8548,-0.7898,-0.4410,-1.0639,0.1985,
9.069222,-0.0807,-0.5666,0.2423,-1.1258,-8.8548,-0.7898,0.9118,-1.3036,0.5415,
9.070839,-0.0807,-0.5666,0.2423,-0.8360,-8.5349,-0.8177,0.9118,-1.3036,0.5415,
9.109171,-0.0807,-0.5666,0.2423,-0.8360,-8.5349,-0.8177,1.4178,-2.6746,0.8430,
9.111768,-0.0807,-0.5666,0.2423,-4.6371,2.8773,4.8152,1.4178,-2.6746,0.8430,
9.149458,0.1915,-0.5863,0.1245,-4.6371,2.8773,4.8152,1.4178,-2.6746,0.8430,
9.151911,0.3877,-0.7517,0.2650,-4.6371,2.8773,4.8152,1.4178,-2.6746,0.8430,
9.153253,0.4094,-0.9877,0.5293,-4.6371,2.8773,4.8152,1.4178,-2.6746,0.8430,
9.154381,0.4094,-0.9877,0.5293,-4.6371,2.8773,4.8152,1.1515,-2.0600,0.0632,
9.155707,0.4094,-0.9877,0.5293,-4.4017,2.9164,4.6768,1.1515,-2.0600,0.0632,
9.188702,0.4094,-0.9877,0.5293,-4.4017,2.9164,4.6768,1.2953,0.2538,-0.3991,
9.190834,0.4094,-0.9877,0.5293,-0.4572,-0.1513,5.3450,1.2953,0.2538,-0.3991,
9.228494,0.3698,-1.0320,0.5376,-0.4572,-0.1513,5.3450,1.2953,0.2538,-0.3991,
9.231102,0.3522,-0.9120,0.3019,-0.4572,-0.1513,5.3450,1.2953,0.2538,-0.3991,
9.232405,0.2973,-0.8917,0.1191,-0.4572,-0.1513,5.3450,1.2953,0.2538,-0.3991,
9.233686,0.0395,-1.0847,-0.6844,-0.4572,-0.1513,5.3450,1.2953,0.2538,-0.3991,
9.234774,-0.0577,-1.2296,-1.1325,-0.4572,-0.1513,5.3450,1.2953,0.2538,-0.3991,
9.236439,0.3305,-0.9904,-0.1423,-0.4572,-0.1513,5.3450,1.2953,0.2538,-0.3991,
9.237400,0.3305,-0.9904,-0.1423,-0.4572,-0.1513,5.3450,0.8351,0.5318,0.1548,
9.238675,0.3305,-0.9904,-0.1423,-1.9467,-0.4727,-0.2471,0.8351,0.5318,0.1548,
9.268116,0.3305,-0.9904,-0.1423,-1.9467,-0.4727,-0.2471,0.3781,-1.5625,0.8068,
9.270955,0.3305,-0.9904,-0.1423,-1.5912,-0.3289,-0.1310,0.3781,-1.5625,0.8068,
9.308031,0.3305,-0.9904,-0.1423,-1.5912,-0.3289,-0.1310,0.8788,-1.4059,0.5341,
9.310947,0.3305,-0.9904,-0.1423,-1.1462,-0.8642,-2.8130,0.8788,-1.4059,0.5341,
9.312378,0.4754,-0.8683,0.2100,-1.1462,-0.8642,-2.8130,0.8788,-1.4059,0.5341,
9.313471,0.5059,-0.8135,0.2420,-1.1462,-0.8642,-2.8130,0.8788,-1.4059,0.5341,
9.314578,0.5692,-0.7789,0.1709,-1.1462,-0.8642,-2.8130,0.8788,-1.4059,0.5341,
9.316035,0.5621,-0.7933,0.0004,-1.1462,-0.8642,-2.8130,0.8788,-1.4059,0.5341,
9.346917,0.5621,-0.7933,0.0004,-1.1462,-0.8642,-2.8130,1.0248,0.7204,0.2422,
9.349685,0.5621,-0.7933,0.0004,1.8065,1.4586,1.5135,1.0248,0.7204,0.2422,
9.379944,0.4839,-0.8773,-0.1477,1.8065,1.4586,1.5135,1.0248,0.7204,0.2422,
9.383825,0.4243,-0.9281,-0.2283,1.8065,1.4586,1.5135,1.0248,0.7204,0.2422,
9.385524,0.3930,-0.9191,-0.2378,1.8065,1.4586,1.5135,1.0248,0.7204,0.2422,
9.386819,0.3930,-0.9191,-0.2378,1.8065,1.4586,1.5135,0.5763,0.3369,0.2305,
9.387680,0.3930,-0.9191,-0.2378,0.7800,0.3780,-2.0650,0.5763,0.3369,0.2305,
9.426410,0.3930,-0.9191,-0.2378,0.7800,0.3780,-2.0650,0.3909,-0.5473,0.3104,
9.428926,0.3930,-0.9191,-0.2378,0.4774,0.4396,-0.3323,0.3909,-0.5473,0.3104,
9.467534,0.3930,-0.9191,-0.2378,0.4774,0.4396,-0.3323,0.5816,-0.3353,0.3647,
9.470117,0.3930,-0.9191,-0.2378,0.5996,0.4745,-0.4951,0.5816,-0.3353,0.3647,
9.475143,0.3896,-0.9179,-0.1381,0.5996,0.4745,-0.4951,0.5816,-0.3353,0.3647,
9.477015,0.3886,-0.9091,-0.0069,0.5996,0.4745,-0.4951,0.5816,-0.3353,0.3647,
9.478121,0.3986,-0.8888,0.0815,0.5996,0.4745,-0.4951,0.5816,-0.3353,0.3647,
9.479270,0.4343,-0.8986,0.0730,0.5996,0.4745,-0.4951,0.5816,-0.3353,0.3647,
9.480546,0.4531,-0.9096,0.0165,0.5996,0.4745,-0.4951,0.5816,-0.3353,0.3647,
9.505094,0.4531,-0.9096,0.0165,0.5996,0.4745,-0.4951,0.7116,0.3529,0.2731,
9.507549,0.4531,-0.9096,0.0165,0.6957,0.4885,-0.7899,0.7116,0.3529,0.2731,
9.545616,0.4531,-0.9096,0.0165,0.6957,0.4885,-0.7899,0.5401,0.1899,0.1612,
9.548274,0.4531,-0.9096,0.0165,1.2699,0.5536,-0.7105,0.5401,0.1899,0.1612,
9.549740,0.4519,-0.8863,-0.0639,1.2699,0.5536,-0.7105,0.5401,0.1899,0.1612,
9.550721,0.4656,-0.8468,-0.1687,1.2699,0.5536,-0.7105,0.5401,0.1899,0.1612,
9.552021,0.5250,-0.8262,-0.1972,1.2699,0.5536,-0.7105,0.5401,0.1899,0.1612,
9.553266,0.6146,-0.8353,-0.1066,1.2699,0.5536,-0.7105,0.5401,0.1899,0.1612,
9.584608,0.6146,-0.8353,-0.1066,1.2699,0.5536,-0.7105,0.2322,-0.5760,-0.0465,
9.587243,0.6146,-0.8353,-0.1066,2.0672,1.1293,-2.3134,0.2322,-0.5760,-0.0465,
9.624451,0.6146,-0.8353,-0.1066,3.8542,0.5753,-0.7493,0.2322,-0.5760,-0.0465,
9.627476,0.6146,-0.8353,-0.1066,3.8542,0.5753,-0.7493,0.2642,-0.9787,-0.3405,
9.629562,0.6823,-0.8358,0.0038,3.8542,0.5753,-0.7493,0.2642,-0.9787,-0.3405,
9.630974,0.7358,-0.8656,0.0324,3.8542,0.5753,-0.7493,0.2642,-0.9787,-0.3405,
9.632594,0.8015,-0.9577,-0.0426,3.8542,0.5753,-0.7493,0.2642,-0.9787,-0.3405,
9.633756,0.8342,-1.0813,-0.1220,3.8542,0.5753,-0.7493,0.2642,-0.9787,-0.3405,
9.663551,0.8342,-1.0813,-0.1220,3.8542,0.5753,-0.7493,-0.2695,-1.6381,-0.5568,
9.666635,0.8342,-1.0813,-0.1220,3.5528,0.4949,-0.4153,-0.2695,-1.6381,-0.5568,
9.704219,0.6860,-1.1988,-0.2730,3.5528,0.4949,-0.4153,-0.2695,-1.6381,-0.5568,
9.706906,0.5120,-1.2687,-0.3253,3.5528,0.4949,-0.4153,-0.2695,-1.6381,-0.5568,
9.708058,0.5203,-1.2416,-0.0468,3.5528,0.4949,-0.4153,-0.2695,-1.6381,-0.5568,
9.709972,0.5203,-1.2416,-0.0468,3.5528,0.4949,-0.4153,-1.3039,-2.3476,-0.5536,
9.711122,0.5203,-1.2416,-0.0468,2.6944,-2.4551,-1.8890,-1.3039,-2.3476,-0.5536,
9.743151,0.5203,-1.2416,-0.0468,2.6944,-2.4551,-1.8890,-1.1942,-2.5052,-0.7815,
9.745557,0.5203,-1.2416,-0.0468,0.3332,-2.4987,2.6555,-1.1942,-2.5052,-0.7815,
9.782810,0.5203,-1.2416,-0.0468,0.3332,-2.4987,2.6555,-0.6999,-0.7997,-0.9243,
9.785145,0.5203,-1.2416,-0.0468,0.0505,-2.6508,2.9865,-0.6999,-0.7997,-0.9243,
9.786506,0.4561,-1.1754,0.1768,0.0505,-2.6508,2.9865,-0.6999,-0.7997,-0.9243,
9.787547,0.3938,-1.1072,0.3006,0.0505,-2.6508,2.9865,-0.6999,-0.7997,-0.9243,
9.788750,0.4055,-1.0684,0.4235,0.0505,-2.6508,2.9865,-0.6999,-0.7997,-0.9243,
9.790036,0.3840,-1.0241,0.3735,0.0505,-2.6508,2.9865,-0.6999,-0.7997,-0.9243,
9.791210,0.3891,-0.9132,0.1487,0.0505,-2.6508,2.9865,-0.6999,-0.7997,-0.9243,
9.822414,0.3891,-0.9132,0.1487,0.0505,-2.6508,2.9865,-0.9779,-0.0860,-1.0787,
9.825281,0.3891,-0.9132,0.1487,-0.9275,-1.2023,4.9381,-0.9779,-0.0860,-1.0787,
9.862982,0.3891,-0.9132,0.1487,-0.9275,-1.2023,4.9381,-1.0909,-2.6767,-1.1427,
9.866746,0.3891,-0.9132,0.1487,-0.8886,-0.2529,2.5367,-1.0909,-2.6767,-1.1427,
9.868222,0.4145,-0.8863,-0.0191,-0.8886,-0.2529,2.5367,-1.0909,-2.6767,-1.1427,
9.871059,0.4008,-0.8961,-0.0380,-0.8886,-0.2529,2.5367,-1.0909,-2.6767,-1.1427,
9.881492,0.4126,-0.8365,0.0102,-0.8886,-0.2529,2.5367,-1.0909,-2.6767,-1.1427,
9.882910,0.5347,-0.7713,0.0285,-0.8886,-0.2529,2.5367,-1.0909,-2.6767,-1.1427,
9.901129,0.5347,-0.7713,0.0285,-0.8014,-0.4585,3.1765,-1.0909,-2.6767,-1.1427,
9.903253,0.5347,-0.7713,0.0285,-0.8014,-0.4585,3.1765,-0.2397,-3.1806,-0.9626,
9.941144,0.6205,-0.7647,0.1255,-0.8014,-0.4585,3.1765,-0.2397,-3.1806,-0.9626,
9.943294,0.4688,-0.8458,0.1494,-0.8014,-0.4585,3.1765,-0.2397,-3.1806,-0.9626,
9.944154,0.3107,-0.9049,0.0304,-0.8014,-0.4585,3.1765,-0.2397,-3.1806,-0.9626,
9.946196,0.3107,-0.9049,0.0304,-0.8014,-0.4585,3.1765,1.1803,-1.3462,-1.0020,
9.947168,0.3107,-0.9049,0.0304,0.3450,0.2743,4.1325,1.1803,-1.3462,-1.0020,
9.980842,0.3107,-0.9049,0.0304,-2.4614,-0.6964,2.6468,1.1803,-1.3462,-1.0020,
9.983164,0.3107,-0.9049,0.0304,-2.4614,-0.6964,2.6468,1.5169,-1.2993,-0.6835,
10.020645,0.3107,-0.9049,0.0304,-2.4614,-0.6964,2.6468,0.3398,-1.2397,-0.4694,
10.022957,0.3107,-0.9049,0.0304,-2.4282,-0.7382,2.7364,0.3398,-1.2397,-0.4694,
10.024203,0.2589,-0.9039,-0.0341,-2.4282,-0.7382,2.7364,0.3398,-1.2397,-0.4694,
10.025637,0.2015,-0.8881,-0.0643,-2.4282,-0.7382,2.7364,0.3398,-1.2397,-0.4694,
10.026713,0.1331,-0.8477,-0.1735,-2.4282,-0.7382,2.7364,0.3398,-1.2397,-0.4694,
10.027667,0.1172,-0.7984,-0.3338,-2.4282,-0.7382,2.7364,0.3398,-1.2397,-0.4694,
10.028594,0.1839,-0.7574,-0.3534,-2.4282,-0.7382,2.7364,0.3398,-1.2397,-0.4694,
10.059875,0.1839,-0.7574,-0.3534,-2.4282,-0.7382,2.7364,-0.1428,-1.0970,-0.5493,
10.061946,0.1839,-0.7574,-0.3534,-3.5099,0.0929,0.4007,-0.1428,-1.0970,-0.5493,
10.100599,0.1839,-0.7574,-0.3534,-3.5099,0.0929,0.4007,0.6455,-0.1105,-0.5014,
10.103266,0.3219,-0.7273,-0.2806,-3.5099,0.0929,0.4007,0.6455,-0.1105,-0.5014,
10.104571,0.4551,-0.7224,-0.2608,-3.5099,0.0929,0.4007,0.6455,-0.1105,-0.5014,
10.105752,0.5272,-0.7122,-0.3902,-3.5099,0.0929,0.4007,0.6455,-0.1105,-0.5014,
10.107009,0.5899,-0.6973,-0.5415,-3.5099,0.0929,0.4007,0.6455,-0.1105,-0.5014,
10.108258,0.5899,-0.6973,-0.5415,-0.7975,0.8490,-0.0118,0.6455,-0.1105,-0.5014,
10.139399,0.5899,-0.6973,-0.5415,-0.7975,0.8490,-0.0118,0.6082,-0.5111,-0.4268,
10.141368,0.5899,-0.6973,-0.5415,-0.8564,0.8207,-0.0972,0.6082,-0.5111,-0.4268,
10.179204,0.5899,-0.6973,-0.5415,-0.8564,0.8207,-0.0972,0.4410,-0.7049,-0.4833,
10.181266,0.5899,-0.6973,-0.5415,1.8051,1.3679,-1.3683,0.4410,-0.7049,-0.4833,
10.182756,0.7236,-0.6538,-0.4982,1.8051,1.3679,-1.3683,0.4410,-0.7049,-0.4833,
10.184002,0.8357,-0.6218,-0.2901,1.8051,1.3679,-1.3683,0.4410,-0.7049,-0.4833,
10.185416,0.8836,-0.6237,-0.0883,1.8051,1.3679,-1.3683,0.4410,-0.7049,-0.4833,
10.186675,0.8692,-0.6594,-0.0042,1.8051,1.3679,-1.3683,0.4410,-0.7049,-0.4833,
10.218597,0.8692,-0.6594,-0.0042,1.8051,1.3679,-1.3683,1.2953,0.0013,-0.4982,
10.220717,0.8692,-0.6594,-0.0042,1.6239,1.3831,-1.7411,1.2953,0.0013,-0.4982,
10.258598,0.8692,-0.6594,-0.0042,1.6239,1.3831,-1.7411,1.6277,-0.5931,-0.3874,
10.260999,0.8692,-0.6594,-0.0042,2.7512,1.3356,1.4740,1.6277,-0.5931,-0.3874,
10.262496,0.7756,-0.7192,-0.1293,2.7512,1.3356,1.4740,1.6277,-0.5931,-0.3874,
10.263749,0.6989,-0.7425,-0.2417,2.7512,1.3356,1.4740,1.6277,-0.5931,-0.3874,
10.265290,0.6219,-0.7310,-0.1897,2.7512,1.3356,1.4740,1.6277,-0.5931,-0.3874,
10.266152,0.5499,-0.7097,-0.1059,2.7512,1.3356,1.4740,1.6277,-0.5931,-0.3874,
10.298254,0.5499,-0.7097,-0.1059,2.7512,1.3356,1.4740,1.7587,-0.9063,-0.3096,
10.300968,0.5499,-0.7097,-0.1059,0.5683,0.8043,0.0890,1.7587,-0.9063,-0.3096,
10.338132,0.5499,-0.7097,-0.1059,0.5683,0.8043,0.0890,1.4945,-0.6293,-0.1339,
10.340734,0.5499,-0.7097,-0.1059,-1.1466,-1.3877,-2.5637,1.4945,-0.6293,-0.1339,
10.342281,0.4651,-0.7566,-0.0905,-1.1466,-1.3877,-2.5637,1.4945,-0.6293,-0.1339,
10.343500,0.4052,-0.8712,-0.2622,-1.1466,-1.3877,-2.5637,1.4945,-0.6293,-0.1339,
10.344848,0.4695,-1.2550,-0.9077,-1.1466,-1.3877,-2.5637,1.4945,-0.6293,-0.1339,
10.346259,0.4578,-1.8213,-0.6480,-1.1466,-1.3877,-2.5637,1.4945,-0.6293,-0.1339,
10.377316,0.4578,-1.8213,-0.6480,-1.1466,-1.3877,-2.5637,0.1938,-0.9201,0.2454,
10.380217,0.4578,-1.8213,-0.6480,-0.9935,-1.3011,-2.3857,0.1938,-0.9201,0.2454,
10.416967,0.4578,-1.8213,-0.6480,-0.9935,-1.3011,-2.3857,0.4165,-1.1289,0.5788,
10.419304,0.4578,-1.8213,-0.6480,-2.9009,-6.5747,1.3381,0.4165,-1.1289,0.5788,
10.420639,0.2188,-1.7138,0.3578,-2.9009,-6.5747,1.3381,0.4165,-1.1289,0.5788,
10.421942,-0.0176,-1.0420,0.1462,-2.9009,-6.5747,1.3381,0.4165,-1.1289,0.5788,
10.423209,-0.1391,-0.6836,0.0231,-2.9009,-6.5747,1.3381,0.4165,-1.1289,0.5788,
10.424592,0.0508,-0.7346,0.1836,-2.9009,-6.5747,1.3381,0.4165,-1.1289,0.5788,
10.457696,0.0508,-0.7346,0.1836,-2.9009,-6.5747,1.3381,0.3771,-1.0330,0.6534,
10.460132,0.0508,-0.7346,0.1836,-2.5630,-6.3132,1.3892,0.3771,-1.0330,0.6534,
10.496057,0.2022,-0.8800,0.2953,-2.5630,-6.3132,1.3892,0.3771,-1.0330,0.6534,
10.499012,0.3241,-0.9723,0.2789,-2.5630,-6.3132,1.3892,0.3771,-1.0330,0.6534,
10.500345,0.3735,-0.9438,0.1870,-2.5630,-6.3132,1.3892,0.3771,-1.0330,0.6534,
10.501525,0.3735,-0.9438,0.1870,-2.5630,-6.3132,1.3892,0.4389,0.0919,0.3168,
10.502607,0.3735,-0.9438,0.1870,-4.1697,1.2005,3.2761,0.4389,0.0919,0.3168,
10.535928,0.3735,-0.9438,0.1870,-4.1697,1.2005,3.2761,0.5433,1.5982,0.0590,
10.538170,0.3735,-0.9438,0.1870,-0.6405,-0.3502,2.4893,0.5433,1.5982,0.0590,
10.577001,0.3735,-0.9438,0.1870,-0.6405,-0.3502,2.4893,0.4208,0.7555,0.2667,
10.579785,0.5140,-0.8712,-0.0458,-0.6405,-0.3502,2.4893,0.4208,0.7555,0.2667,
10.580973,0.6845,-0.8646,-0.4347,-0.6405,-0.3502,2.4893,0.4208,0.7555,0.2667,
10.582311,0.6017,-0.9286,-0.4149,-0.6405,-0.3502,2.4893,0.4208,0.7555,0.2667,
10.583424,0.5589,-0.9347,-0.2136,-0.6405,-0.3502,2.4893,0.4208,0.7555,0.2667,
10.584630,0.5680,-0.8529,-0.1257,-0.6405,-0.3502,2.4893,0.4208,0.7555,0.2667,
10.585944,0.5680,-0.8529,-0.1257,1.4674,-0.0903,-2.5963,0.4208,0.7555,0.2667,
10.615187,0.5680,-0.8529,-0.1257,1.4674,-0.0903,-2.5963,0.5518,-1.0181,0.5490,
10.617598,0.5680,-0.8529,-0.1257,1.6663,0.0246,-2.5682,0.5518,-1.0181,0.5490,
10.654517,0.5680,-0.8529,-0.1257,1.6663,0.0246,-2.5682,0.5624,-0.7838,0.4393,
10.657080,0.5680,-0.8529,-0.1257,1.0258,1.4529,-0.1051,0.5624,-0.7838,0.4393,
10.658634,0.5264,-0.7598,-0.1059,1.0258,1.4529,-0.1051,0.5624,-0.7838,0.4393,
10.659552,0.5037,-0.6992,-0.0575,1.0258,1.4529,-0.1051,0.5624,-0.7838,0.4393,
10.660687,0.5609,-0.7278,-0.0399,1.0258,1.4529,-0.1051,0.5624,-0.7838,0.4393,
10.661993,0.6205,-0.7842,-0.0929,1.0258,1.4529,-0.1051,0.5624,-0.7838,0.4393,
10.693781,0.6205,-0.7842,-0.0929,1.0258,1.4529,-0.1051,0.4080,-0.0200,0.1644,
10.696126,0.6205,-0.7842,-0.0929,1.0674,1.4677,-0.2434,0.4080,-0.0200,0.1644,
10.734327,0.6444,-0.7776,-0.1919,1.0674,1.4677,-0.2434,0.4080,-0.0200,0.1644,
10.737141,0.6386,-0.7434,-0.2393,1.0674,1.4677,-0.2434,0.4080,-0.0200,0.1644,
10.738751,0.4888,-0.7329,-0.1821,1.0674,1.4677,-0.2434,0.4080,-0.0200,0.1644,
10.740150,0.4888,-0.7329,-0.1821,1.0674,1.4677,-0.2434,0.2130,-0.2916,-0.1434,
10.741438,0.4888,-0.7329,-0.1821,1.7384,1.4970,-0.3814,0.2130,-0.2916,-0.1434,
10.773134,0.4888,-0.7329,-0.1821,1.7384,1.4970,-0.3814,-0.1417,-0.8040,-0.2063,
10.775748,0.4888,-0.7329,-0.1821,0.5054,1.8557,-1.2439,-0.1417,-0.8040,-0.2063,
10.812961,0.4888,-0.7329,-0.1821,0.5054,1.8557,-1.2439,-0.4783,-0.7444,-0.2500,
10.815935,0.4888,-0.7329,-0.1821,0.4402,1.7634,-0.9328,-0.4783,-0.7444,-0.2500,
10.817252,0.3385,-0.6819,-0.2307,0.4402,1.7634,-0.9328,-0.4783,-0.7444,-0.2500,
10.818811,0.3188,-0.6354,-0.3629,0.4402,1.7634,-0.9328,-0.4783,-0.7444,-0.2500,
10.819968,0.2284,-0.7173,0.0329,0.4402,1.7634,-0.9328,-0.4783,-0.7444,-0.2500,
10.821219,0.1111,-0.6391,0.1499,0.4402,1.7634,-0.9328,-0.4783,-0.7444,-0.2500,
10.822560,0.0820,-0.5262,-0.1061,0.4402,1.7634,-0.9328,-0.4783,-0.7444,-0.2500,
10.853023,0.0820,-0.5262,-0.1061,0.4402,1.7634,-0.9328,-0.5209,-0.3353,-0.1317,
10.855620,0.0820,-0.5262,-0.1061,-2.1898,2.2192,0.8342,-0.5209,-0.3353,-0.1317,
10.893035,0.0820,-0.5262,-0.1061,-2.1898,2.2192,0.8342,-0.5199,0.3497,-0.1392,
10.895273,0.0820,-0.5262,-0.1061,-2.1952,2.5371,1.4595,-0.5199,0.3497,-0.1392,
10.896639,0.1927,-0.6281,-0.0480,-2.1952,2.5371,1.4595,-0.5199,0.3497,-0.1392,
10.898033,0.3916,-0.7102,0.1367,-2.1952,2.5371,1.4595,-0.5199,0.3497,-0.1392,
10.899469,0.5992,-0.6513,0.0563,-2.1952,2.5371,1.4595,-0.5199,0.3497,-0.1392,
10.900634,0.6720,-0.5893,-0.1047,-2.1952,2.5371,1.4595,-0.5199,0.3497,-0.1392,
10.931791,0.6720,-0.5893,-0.1047,-2.1952,2.5371,1.4595,-0.5156,1.1326,-0.4236,
10.935429,0.6720,-0.5893,-0.1047,-2.3669,2.3905,1.4099,-0.5156,1.1326,-0.4236,
10.966629,0.7167,-0.6157,-0.2456,-2.3669,2.3905,1.4099,-0.5156,1.1326,-0.4236,
10.969529,0.7776,-0.6010,-0.4911,-2.3669,2.3905,1.4099,-0.5156,1.1326,-0.4236,
10.971188,0.6757,-0.5993,-0.5842,-2.3669,2.3905,1.4099,-0.5156,1.1326,-0.4236,
10.972769,0.6757,-0.5993,-0.5842,-2.3669,2.3905,1.4099,-0.6040,0.1590,-0.5163,
10.974002,0.6757,-0.5993,-0.5842,1.7400,2.2478,0.6679,-0.6040,0.1590,-0.5163,
11.012667,0.6757,-0.5993,-0.5842,1.7400,2.2478,0.6679,-1.1260,-1.6104,-0.7943,
11.019068,0.6757,-0.5993,-0.5842,1.3840,1.9226,-2.4372,-1.1260,-1.6104,-0.7943,
11.050643,0.6757,-0.5993,-0.5842,1.3840,1.9226,-2.4372,-1.5212,-1.1023,-1.5805,
11.053124,0.6757,-0.5993,-0.5842,0.9948,1.4165,-1.7159,-1.5212,-1.1023,-1.5805,
11.053989,0.4732,-0.6723,-0.3883,0.9948,1.4165,-1.7159,-1.5212,-1.1023,-1.5805,
11.054883,0.4245,-0.7578,-0.1589,0.9948,1.4165,-1.7159,-1.5212,-1.1023,-1.5805,
11.055742,0.5413,-0.9792,-0.0568,0.9948,1.4165,-1.7159,-1.5212,-1.1023,-1.5805,
11.056630,0.7373,-1.2978,-0.0052,0.9948,1.4165,-1.7159,-1.5212,-1.1023,-1.5805,
11.057351,0.8750,-1.7431,-0.0727,0.9948,1.4165,-1.7159,-1.5212,-1.1023,-1.5805,
11.090286,0.8750,-1.7431,-0.0727,-0.5650,-2.9621,2.2274,-1.5212,-1.1023,-1.5805,
11.092089,0.8750,-1.7431,-0.0727,-0.5650,-2.9621,2.2274,-1.1388,1.7675,-2.1824,
11.129740,0.8750,-1.7431,-0.0727,-0.5650,-2.9621,2.2274,-0.0139,0.7822,-1.2364,
11.132070,0.8750,-1.7431,-0.0727,1.6808,-10.0990,-0.6424,-0.0139,0.7822,-1.2364,
11.133551,0.8807,-2.0927,-0.3932,1.6808,-10.0990,-0.6424,-0.0139,0.7822,-1.2364,
11.134647,0.7727,-1.3403,-0.5784,1.6808,-10.0990,-0.6424,-0.0139,0.7822,-1.2364,
11.136306,0.6158,-0.6609,-0.3460,1.6808,-10.0990,-0.6424,-0.0139,0.7822,-1.2364,
11.137358,0.5719,-0.6838,-0.2720,1.6808,-10.0990,-0.6424,-0.0139,0.7822,-1.2364,
11.169093,0.5719,-0.6838,-0.2720,1.6808,-10.0990,-0.6424,0.3750,-1.1545,-0.4662,
11.171879,0.5719,-0.6838,-0.2720,1.6588,-10.0091,-0.4328,0.3750,-1.1545,-0.4662,
11.209345,0.5719,-0.6838,-0.2720,1.6588,-10.0091,-0.4328,0.1789,-0.7444,-0.1541,
11.212229,0.5719,-0.6838,-0.2720,-0.5622,-0.6334,0.2722,0.1789,-0.7444,-0.1541,
11.213627,0.6432,-0.9589,-0.2534,-0.5622,-0.6334,0.2722,0.1789,-0.7444,-0.1541,
11.214901,0.5995,-1.3652,-0.4284,-0.5622,-0.6334,0.2722,0.1789,-0.7444,-0.1541,
11.215740,0.4211,-1.3679,-0.6001,-0.5622,-0.6334,0.2722,0.1789,-0.7444,-0.1541,
11.216886,0.2347,-0.8905,-0.3800,-0.5622,-0.6334,0.2722,0.1789,-0.7444,-0.1541,
11.249059,0.2347,-0.8905,-0.3800,-0.5622,-0.6334,0.2722,0.5038,-1.0128,0.3668,
11.254862,0.2347,-0.8905,-0.3800,-2.1765,-4.7087,-1.3399,0.5038,-1.0128,0.3668,
11.289801,0.2347,-0.8905,-0.3800,-2.1765,-4.7087,-1.3399,0.6764,0.1526,0.9836,
11.292034,0.2347,-0.8905,-0.3800,-5.3818,1.3742,2.0812,0.6764,0.1526,0.9836,
11.293468,0.0378,-0.6347,-0.1511,-5.3818,1.3742,2.0812,0.6764,0.1526,0.9836,
11.294328,0.0068,-0.5849,-0.0805,-5.3818,1.3742,2.0812,0.6764,0.1526,0.9836,
11.295687,0.1201,-0.6340,-0.0480,-5.3818,1.3742,2.0812,0.6764,0.1526,0.9836,
11.296759,0.2535,-0.7036,-0.0880,-5.3818,1.3742,2.0812,0.6764,0.1526,0.9836,
11.328610,0.2535,-0.7036,-0.0880,-5.3818,1.3742,2.0812,0.4815,0.8557,1.2052,
11.331094,0.2535,-0.7036,-0.0880,-5.0290,1.6761,1.7120,0.4815,0.8557,1.2052,
11.363653,0.3520,-0.7014,-0.1479,-5.0290,1.6761,1.7120,0.4815,0.8557,1.2052,
11.366698,0.4104,-0.6039,-0.1904,-5.0290,1.6761,1.7120,0.4815,0.8557,1.2052,
11.368040,0.4394,-0.4693,-0.2329,-5.0290,1.6761,1.7120,0.4815,0.8557,1.2052,
11.369686,0.4394,-0.4693,-0.2329,-5.0290,1.6761,1.7120,0.1949,0.6416,1.2190,
11.370802,0.4394,-0.4693,-0.2329,-1.9000,1.4253,1.0168,0.1949,0.6416,1.2190,
11.407690,0.4394,-0.4693,-0.2329,0.0536,3.8828,-1.4881,0.1949,0.6416,1.2190,
11.410316,0.4394,-0.4693,-0.2329,0.0536,3.8828,-1.4881,0.1491,0.7694,1.1913,
11.447097,0.4394,-0.4693,-0.2329,0.0536,3.8828,-1.4881,0.1789,0.0067,0.4158,
11.449117,0.4394,-0.4693,-0.2329,0.1851,3.9118,-1.5223,0.1789,0.0067,0.4158,
11.450921,0.4563,-0.4112,-0.3780,0.1851,3.9118,-1.5223,0.1789,0.0067,0.4158,
11.452227,0.6227,-0.4334,-0.5280,0.1851,3.9118,-1.5223,0.1789,0.0067,0.4158,
11.453525,0.8020,-0.4139,-0.3040,0.1851,3.9118,-1.5223,0.1789,0.0067,0.4158,
11.454780,0.6662,-0.3577,-0.1071,0.1851,3.9118,-1.5223,0.1789,0.0067,0.4158,
11.456101,0.5628,-0.3152,-0.0841,0.1851,3.9118,-1.5223,0.1789,0.0067,0.4158,
11.486011,0.5628,-0.3152,-0.0841,0.1851,3.9118,-1.5223,0.3142,0.5191,-0.1275,
11.488685,0.5628,-0.3152,-0.0841,1.7454,4.5782,0.3732,0.3142,0.5191,-0.1275,
11.527357,0.5628,-0.3152,-0.0841,1.7454,4.5782,0.3732,0.3387,2.1553,-0.3810,
11.530220,0.5628,-0.3152,-0.0841,1.4948,2.7670,-0.5424,0.3387,2.1553,-0.3810,
11.531426,0.6019,-0.3508,-0.1115,1.4948,2.7670,-0.5424,0.3387,2.1553,-0.3810,
11.532637,0.6874,-0.5094,-0.2048,1.4948,2.7670,-0.5424,0.3387,2.1553,-0.3810,
11.533601,0.7551,-0.7505,-0.2972,1.4948,2.7670,-0.5424,0.3387,2.1553,-0.3810,
11.534685,0.6642,-1.1609,-0.7005,1.4948,2.7670,-0.5424,0.3387,2.1553,-0.3810,
11.565950,0.6642,-1.1609,-0.7005,1.4948,2.7670,-0.5424,1.2069,0.5979,-0.0774,
11.568618,0.6642,-1.1609,-0.7005,1.4151,2.7604,-1.0330,1.2069,0.5979,-0.0774,
11.605922,0.6642,-1.1609,-0.7005,1.4151,2.7604,-1.0330,1.1281,-2.3071,0.3796,
11.608694,0.6642,-1.1609,-0.7005,-0.2692,-3.8526,-1.5850,1.1281,-2.3071,0.3796,
11.610071,0.2457,-1.2550,-0.2121,-0.2692,-3.8526,-1.5850,1.1281,-2.3071,0.3796,
11.611034,0.5526,-1.2763,0.0881,-0.2692,-3.8526,-1.5850,1.1281,-2.3071,0.3796,
11.612356,1.0580,-1.6132,-0.4074,-0.2692,-3.8526,-1.5850,1.1281,-2.3071,0.3796,
11.613572,1.0869,-1.5809,-0.5385,-0.2692,-3.8526,-1.5850,1.1281,-2.3071,0.3796,
11.644618,1.0869,-1.5809,-0.5385,-0.2692,-3.8526,-1.5850,-1.6608,1.4725,-0.6313,
11.646914,1.0869,-1.5809,-0.5385,-0.5368,-3.9966,-1.3325,-1.6608,1.4725,-0.6313,
11.687781,1.0869,-1.5809,-0.5385,3.5635,-6.1214,-1.8376,-1.6608,1.4725,-0.6313,
11.690516,1.0869,-1.5809,-0.5385,3.5635,-6.1214,-1.8376,-0.4379,0.3646,-0.0007,
11.691841,0.5975,-1.1729,-0.0619,3.5635,-6.1214,-1.8376,-0.4379,0.3646,-0.0007,
11.693081,0.0490,-1.3442,0.1819,3.5635,-6.1214,-1.8376,-0.4379,0.3646,-0.0007,
11.694244,0.3442,-1.5904,0.2728,3.5635,-6.1214,-1.8376,-0.4379,0.3646,-0.0007,
11.695596,0.6383,-1.3891,0.1988,3.5635,-6.1214,-1.8376,-0.4379,0.3646,-0.0007,
11.724281,0.6383,-1.3891,0.1988,3.5635,-6.1214,-1.8376,1.3081,-1.1982,1.0475,
11.726887,0.6383,-1.3891,0.1988,-1.5897,-5.5990,3.3486,1.3081,-1.1982,1.0475,
11.763699,0.6383,-1.3891,0.1988,-1.5897,-5.5990,3.3486,0.4133,0.4221,0.6619,
11.766371,0.6383,-1.3891,0.1988,1.3007,-0.6659,0.2860,0.4133,0.4221,0.6619,
11.767735,0.6175,-1.0246,-0.0020,1.3007,-0.6659,0.2860,0.4133,0.4221,0.6619,
11.769106,0.6364,-0.8827,-0.1640,1.3007,-0.6659,0.2860,0.4133,0.4221,0.6619,
11.770185,0.6053,-0.9545,-0.0490,1.3007,-0.6659,0.2860,0.4133,0.4221,0.6619,
11.771170,0.6256,-0.9386,0.0607,1.3007,-0.6659,0.2860,0.4133,0.4221,0.6619,
11.803573,0.6256,-0.9386,0.0607,1.3007,-0.6659,0.2860,0.0415,0.7875,0.6225,
11.806284,0.6256,-0.9386,0.0607,1.4635,-0.5398,0.1240,0.0415,0.7875,0.6225,
11.843332,0.5411,-0.7742,-0.0074,1.4635,-0.5398,0.1240,0.0415,0.7875,0.6225,
11.845936,0.4221,-0.6406,-0.1501,1.4635,-0.5398,0.1240,0.0415,0.7875,0.6225,
11.846959,0.3708,-0.5700,-0.2476,1.4635,-0.5398,0.1240,0.0415,0.7875,0.6225,
11.848240,0.3708,-0.5700,-0.2476,1.4635,-0.5398,0.1240,0.3195,0.2996,0.5895,
11.849598,0.3708,-0.5700,-0.2476,0.7651,1.2151,0.3382,0.3195,0.2996,0.5895,
11.882382,0.3708,-0.5700,-0.2476,0.7651,1.2151,0.3382,0.2216,-0.1521,0.4020,
11.884692,0.3708,-0.5700,-0.2476,-0.3620,3.4202,-0.3689,0.2216,-0.1521,0.4020,
11.922541,0.3708,-0.5700,-0.2476,-0.3620,3.4202,-0.3689,0.4154,0.2187,0.2752,
11.924821,0.3708,-0.5700,-0.2476,-0.2643,3.4169,-0.5434,0.4154,0.2187,0.2752,
11.926565,0.3815,-0.5573,-0.1027,-0.2643,3.4169,-0.5434,0.4154,0.2187,0.2752,
11.928834,0.4448,-0.5563,0.0512,-0.2643,3.4169,-0.5434,0.4154,0.2187,0.2752,
11.931504,0.4759,-0.5394,-0.0255,-0.2643,3.4169,-0.5434,0.4154,0.2187,0.2752,
11.932857,0.4592,-0.5030,-0.2319,-0.2643,3.4169,-0.5434,0.4154,0.2187,0.2752,
11.933972,0.3999,-0.4715,-0.3194,-0.2643,3.4169,-0.5434,0.4154,0.2187,0.2752,
11.961460,0.3999,-0.4715,-0.3194,-0.2643,3.4169,-0.5434,-0.3036,0.2975,0.0068,
11.963593,0.3999,-0.4715,-0.3194,0.1799,3.9003,-1.3695,-0.3036,0.2975,0.0068,
12.001921,0.3999,-0.4715,-0.3194,0.1799,3.9003,-1.3695,-0.4219,-0.1883,0.0313,
12.004272,0.3999,-0.4715,-0.3194,0.2253,3.1761,0.5346,-0.4219,-0.1883,0.0313,
12.007118,0.2948,-0.5582,-0.1144,0.2253,3.1761,0.5346,-0.4219,-0.1883,0.0313,
12.008453,0.3891,-0.6433,0.0810,0.2253,3.1761,0.5346,-0.4219,-0.1883,0.0313,
12.009450,0.6613,-0.5162,-0.0126,0.2253,3.1761,0.5346,-0.4219,-0.1883,0.0313,
12.010745,0.7514,-0.3127,-0.0841,0.2253,3.1761,0.5346,-0.4219,-0.1883,0.0313,
12.040803,0.7514,-0.3127,-0.0841,0.2253,3.1761,0.5346,-0.4006,0.1302,-0.3373,
12.043291,0.7514,-0.3127,-0.0841,0.1025,3.0559,0.6409,-0.4006,0.1302,-0.3373,
12.080563,0.7514,-0.3127,-0.0841,0.1025,3.0559,0.6409,-0.0277,-0.5952,-0.2478,
12.082458,0.7514,-0.3127,-0.0841,1.8359,4.1780,0.6922,-0.0277,-0.5952,-0.2478,
12.083299,0.5909,-0.4043,-0.0177,1.8359,4.1780,0.6922,-0.0277,-0.5952,-0.2478,
12.083951,0.5628,-0.6223,0.0410,1.8359,4.1780,0.6922,-0.0277,-0.5952,-0.2478,
12.084539,0.7140,-0.5785,-0.0262,1.8359,4.1780,0.6922,-0.0277,-0.5952,-0.2478,
12.085346,0.8379,-0.4200,-0.5185,1.8359,4.1780,0.6922,-0.0277,-0.5952,-0.2478,
12.119794,0.8379,-0.4200,-0.5185,1.8359,4.1780,0.6922,-0.7340,-0.8264,-0.8795,
12.121896,0.8379,-0.4200,-0.5185,1.5498,3.9221,1.0679,-0.7340,-0.8264,-0.8795,
12.160251,0.8379,-0.4200,-0.5185,1.5498,3.9221,1.0679,-2.1252,0.1835,-2.1962,
12.162731,0.8379,-0.4200,-0.5185,1.6517,2.4800,-0.8456,-2.1252,0.1835,-2.1962,
12.164049,0.6107,-0.5942,-0.3011,1.6517,2.4800,-0.8456,-2.1252,0.1835,-2.1962,
12.165248,0.4263,-0.9577,-0.1166,1.6517,2.4800,-0.8456,-2.1252,0.1835,-2.1962,
12.166246,0.7600,-1.3691,-0.1997,1.6517,2.4800,-0.8456,-2.1252,0.1835,-2.1962,
12.167498,0.8697,-2.1384,-0.1679,1.6517,2.4800,-0.8456,-2.1252,0.1835,-2.1962,
12.199712,0.8697,-2.1384,-0.1679,1.6517,2.4800,-0.8456,-1.2240,1.7643,-2.4764,
12.202320,0.8697,-2.1384,-0.1679,0.4379,-7.4455,0.2774,-1.2240,1.7643,-2.4764,
12.239676,0.7949,-2.6246,-0.4132,0.4379,-7.4455,0.2774,-1.2240,1.7643,-2.4764,
12.242408,0.8325,-1.6759,-0.5454,0.4379,-7.4455,0.2774,-1.2240,1.7643,-2.4764,
12.243625,0.9058,-0.9296,-0.2622,0.4379,-7.4455,0.2774,-1.2240,1.7643,-2.4764,
12.244457,0.9058,-0.9296,-0.2622,0.4379,-7.4455,0.2774,-0.2014,0.3614,-0.8220,
12.245489,0.9058,-0.9296,-0.2622,1.7130,-9.9983,-2.1274,-0.2014,0.3614,-0.8220,
12.279002,0.9058,-0.9296,-0.2622,1.7130,-9.9983,-2.1274,-0.0288,-0.8498,-0.4673,
12.281454,0.9058,-0.9296,-0.2622,0.3022,-1.6716,0.7366,-0.0288,-0.8498,-0.4673,
12.319527,0.9058,-0.9296,-0.2622,0.3022,-1.6716,0.7366,0.3153,-1.1246,-0.2734,
12.322290,0.9058,-0.9296,-0.2622,0.3190,-1.6873,0.9293,0.3153,-1.1246,-0.2734,
12.323463,0.8303,-0.8360,-0.0472,0.3190,-1.6873,0.9293,0.3153,-1.1246,-0.2734,
12.324540,0.6989,-0.9083,-0.0631,0.3190,-1.6873,0.9293,0.3153,-1.1246,-0.2734,
12.325720,0.5931,-0.9074,-0.3006,0.3190,-1.6873,0.9293,0.3153,-1.1246,-0.2734,
12.326994,0.4780,-0.9587,-0.4481,0.3190,-1.6873,0.9293,0.3153,-1.1246,-0.2734,
12.328090,0.2567,-0.8951,-0.2715,0.3190,-1.6873,0.9293,0.3153,-1.1246,-0.2734,
12.359333,0.2567,-0.8951,-0.2715,0.3190,-1.6873,0.9293,0.7861,-1.6339,0.4840,
12.360934,0.2567,-0.8951,-0.2715,0.5985,-1.4645,1.1102,0.7861,-1.6339,0.4840,
12.398184,0.2567,-0.8951,-0.2715,0.5985,-1.4645,1.1102,1.0375,-0.2628,1.3362,
12.400972,0.2567,-0.8951,-0.2715,-3.4075,-0.9525,-0.2249,1.0375,-0.2628,1.3362,
12.402390,0.0156,-0.7749,-0.0282,-3.4075,-0.9525,-0.2249,1.0375,-0.2628,1.3362,
12.403676,-0.0963,-0.6193,0.0351,-3.4075,-0.9525,-0.2249,1.0375,-0.2628,1.3362,
12.404807,-0.0509,-0.4644,-0.0191,-3.4075,-0.9525,-0.2249,1.0375,-0.2628,1.3362,
12.406458,0.0564,-0.3994,-0.0729,-3.4075,-0.9525,-0.2249,1.0375,-0.2628,1.3362,
12.437873,0.0564,-0.3994,-0.0729,-3.4075,-0.9525,-0.2249,0.8202,0.6181,1.1817,
12.440567,0.0564,-0.3994,-0.0729,-5.7410,3.0709,1.6125,0.8202,0.6181,1.1817,
12.477904,0.1123,-0.3841,-0.0902,-5.7410,3.0709,1.6125,0.8202,0.6181,1.1817,
12.480230,0.1077,-0.3992,-0.1907,-5.7410,3.0709,1.6125,0.8202,0.6181,1.1817,
12.481443,0.1421,-0.5013,-0.3116,-5.7410,3.0709,1.6125,0.8202,0.6181,1.1817,
12.482706,0.1421,-0.5013,-0.3116,-5.7410,3.0709,1.6125,0.1374,0.0599,0.7450,
12.483839,0.1421,-0.5013,-0.3116,-3.9623,3.8219,-0.1899,0.1374,0.0599,0.7450,
12.516872,0.1421,-0.5013,-0.3116,-3.9623,3.8219,-0.1899,-0.7010,-0.4386,0.6331,
12.519767,0.1421,-0.5013,-0.3116,2.6422,1.0813,-1.3986,-0.7010,-0.4386,0.6331,
12.558518,0.1421,-0.5013,-0.3116,2.6422,1.0813,-1.3986,-0.4890,0.8003,0.1527,
12.561215,0.1421,-0.5013,-0.3116,2.5806,1.0525,-1.3756,-0.4890,0.8003,0.1527,
12.562645,0.3732,-0.6914,-0.4066,2.5806,1.0525,-1.3756,-0.4890,0.8003,0.1527,
12.563778,0.9674,-0.7608,-0.3563,2.5806,1.0525,-1.3756,-0.4890,0.8003,0.1527,
12.564897,0.9850,-0.6882,-0.3021,2.5806,1.0525,-1.3756,-0.4890,0.8003,0.1527,
12.566524,0.7446,-0.4608,-0.2710,2.5806,1.0525,-1.3756,-0.4890,0.8003,0.1527,
12.567822,0.5721,-0.3467,-0.1306,2.5806,1.0525,-1.3756,-0.4890,0.8003,0.1527,
12.595308,0.5721,-0.3467,-0.1306,2.5806,1.0525,-1.3756,-0.0117,0.4072,-0.0284,
12.597059,0.5721,-0.3467,-0.1306,2.4957,1.0283,-1.4288,-0.0117,0.4072,-0.0284,
12.635505,0.5721,-0.3467,-0.1306,2.4957,1.0283,-1.4288,1.0599,1.4267,0.0515,
12.637385,0.5721,-0.3467,-0.1306,0.3432,3.9566,0.4986,1.0599,1.4267,0.0515,
12.638218,0.3769,-0.4415,0.1221,0.3432,3.9566,0.4986,1.0599,1.4267,0.0515,
12.639633,0.3061,-0.5536,0.2892,0.3432,3.9566,0.4986,1.0599,1.4267,0.0515,
12.640725,0.4964,-0.7556,0.2193,0.3432,3.9566,0.4986,1.0599,1.4267,0.0515,
12.641911,0.9124,-1.1231,-0.4804,0.3432,3.9566,0.4986,1.0599,1.4267,0.0515,
12.675487,0.9124,-1.1231,-0.4804,0.3432,3.9566,0.4986,1.2474,2.7124,0.1080,
12.678006,0.9124,-1.1231,-0.4804,0.3423,0.1572,0.5334,1.2474,2.7124,0.1080,
12.714682,0.9124,-1.1231,-0.4804,0.3423,0.1572,0.5334,-0.2450,-0.3555,-0.2372,
12.717110,0.9124,-1.1231,-0.4804,4.3675,-6.6929,-5.3830,-0.2450,-0.3555,-0.2372,
12.718919,0.9518,-1.3884,-1.0728,4.3675,-6.6929,-5.3830,-0.2450,-0.3555,-0.2372,
12.720230,0.8584,-1.5685,-0.3829,4.3675,-6.6929,-5.3830,-0.2450,-0.3555,-0.2372,
12.721198,1.1804,-1.5904,-0.4022,4.3675,-6.6929,-5.3830,-0.2450,-0.3555,-0.2372,
12.722449,0.6686,-1.2587,0.0962,4.3675,-6.6929,-5.3830,-0.2450,-0.3555,-0.2372,
12.754653,0.6686,-1.2587,0.0962,4.3675,-6.6929,-5.3830,-0.7074,-0.4344,-0.2478,
12.757224,0.6686,-1.2587,0.0962,4.2304,-6.6573,-4.9773,-0.7074,-0.4344,-0.2478,
12.794572,0.6686,-1.2587,0.0962,4.2304,-6.6573,-4.9773,0.2013,-0.4162,0.2912,
12.796986,0.6686,-1.2587,0.0962,1.4016,-4.5267,2.4284,0.2013,-0.4162,0.2912,
12.798550,0.6171,-1.3153,0.1399,1.4016,-4.5267,2.4284,0.2013,-0.4162,0.2912,
12.799559,0.8115,-1.3667,0.1780,1.4016,-4.5267,2.4284,0.2013,-0.4162,0.2912,
12.800532,0.6877,-1.2039,0.1709,1.4016,-4.5267,2.4284,0.2013,-0.4162,0.2912,
12.801501,0.5311,-1.1302,0.1262,1.4016,-4.5267,2.4284,0.2013,-0.4162,0.2912,
12.833860,0.5311,-1.1302,0.1262,1.4016,-4.5267,2.4284,0.7734,-0.6889,0.5053,
12.836745,0.5311,-1.1302,0.1262,1.5715,-4.3150,2.2779,0.7734,-0.6889,0.5053,
12.874514,0.5027,-1.1109,0.0673,1.5715,-4.3150,2.2779,0.7734,-0.6889,0.5053,
12.877060,0.5264,-1.0371,-0.0509,1.5715,-4.3150,2.2779,0.7734,-0.6889,0.5053,
12.878041,0.5186,-0.9254,-0.0917,1.5715,-4.3150,2.2779,0.7734,-0.6889,0.5053,
12.879247,0.5186,-0.9254,-0.0917,1.5715,-4.3150,2.2779,0.7893,-0.5249,0.6353,
12.880073,0.5186,-0.9254,-0.0917,0.5697,-2.4969,1.9208,0.7893,-0.5249,0.6353,
12.912924,0.5186,-0.9254,-0.0917,0.5697,-2.4969,1.9208,0.7702,-0.9159,0.6289,
12.915534,0.5186,-0.9254,-0.0917,0.0325,-0.0445,0.0024,0.7702,-0.9159,0.6289,
12.953391,0.5186,-0.9254,-0.0917,0.0325,-0.0445,0.0024,0.7552,-0.7561,0.5255,
12.956163,0.5186,-0.9254,-0.0917,0.2324,0.0697,-0.1226,0.7552,-0.7561,0.5255,
12.957525,0.4372,-0.7759,-0.0524,0.2324,0.0697,-0.1226,0.7552,-0.7561,0.5255,
12.958970,0.3696,-0.6425,-0.0577,0.2324,0.0697,-0.1226,0.7552,-0.7561,0.5255,
12.960071,0.3337,-0.5482,-0.0448,0.2324,0.0697,-0.1226,0.7552,-0.7561,0.5255,
12.961281,0.3239,-0.4747,-0.0543,0.2324,0.0697,-0.1226,0.7552,-0.7561,0.5255,
12.963178,0.3202,-0.4356,-0.1020,0.2324,0.0697,-0.1226,0.7552,-0.7561,0.5255,
12.992232,0.3202,-0.4356,-0.1020,0.2324,0.0697,-0.1226,0.4165,-0.0370,0.2986,
12.994439,0.3202,-0.4356,-0.1020,-1.1273,3.5755,-0.1381,0.4165,-0.0370,0.2986,
13.031603,0.3202,-0.4356,-0.1020,-1.1273,3.5755,-0.1381,-0.2578,0.1281,0.0387,
13.036748,0.3202,-0.4356,-0.1020,-1.3370,4.0993,-1.3365,-0.2578,0.1281,0.0387,
13.045267,0.3307,-0.4715,-0.2075,-1.3370,4.0993,-1.3365,-0.2578,0.1281,0.0387,
13.047088,0.3014,-0.5775,-0.2424,-1.3370,4.0993,-1.3365,-0.2578,0.1281,0.0387,
13.050473,0.2987,-0.6039,-0.1464,-1.3370,4.0993,-1.3365,-0.2578,0.1281,0.0387,
13.055593,0.3456,-0.5516,-0.1022,-1.3370,4.0993,-1.3365,-0.2578,0.1281,0.0387,
13.071412,0.3456,-0.5516,-0.1022,-1.3370,4.0993,-1.3365,-0.5390,0.0642,0.0249,
13.073419,0.3456,-0.5516,-0.1022,-1.3074,4.0237,-1.1373,-0.5390,0.0642,0.0249,
13.110996,0.3456,-0.5516,-0.1022,-1.3074,4.0237,-1.1373,-0.3026,-0.3577,0.1101,
13.112419,0.3456,-0.5516,-0.1022,-0.8985,3.3601,-0.3293,-0.3026,-0.3577,0.1101,
13.113066,0.4133,-0.5179,-0.1093,-0.8985,3.3601,-0.3293,-0.3026,-0.3577,0.1101,
13.113607,0.5562,-0.5043,-0.0223,-0.8985,3.3601,-0.3293,-0.3026,-0.3577,0.1101,
13.114069,0.7671,-0.4881,0.0024,-0.8985,3.3601,-0.3293,-0.3026,-0.3577,0.1101,
13.114631,0.8841,-0.4874,-0.1130,-0.8985,3.3601,-0.3293,-0.3026,-0.3577,0.1101,
13.149276,0.8841,-0.4874,-0.1130,-0.8985,3.3601,-0.3293,-0.1385,-0.8189,-0.0401,
13.150580,0.8841,-0.4874,-0.1130,2.8258,3.9147,0.5850,-0.1385,-0.8189,-0.0401,
13.190979,0.8841,-0.4874,-0.1130,2.8258,3.9147,0.5850,-0.7883,-1.3782,-0.8114,
13.193529,0.7803,-0.4903,-0.1997,2.8258,3.9147,0.5850,-0.7883,-1.3782,-0.8114,
13.194646,0.6620,-0.5319,-0.2300,2.8258,3.9147,0.5850,-0.7883,-1.3782,-0.8114,
13.195911,0.6896,-0.7398,-0.3585,2.8258,3.9147,0.5850,-0.7883,-1.3782,-0.8114,
13.197046,0.6461,-1.0906,-0.3502,2.8258,3.9147,0.5850,-0.7883,-1.3782,-0.8114,
13.198162,0.6461,-1.0906,-0.3502,2.3306,2.7617,-1.0231,-0.7883,-1.3782,-0.8114,
13.229812,0.6461,-1.0906,-0.3502,2.3306,2.7617,-1.0231,-1.9399,-0.6889,-1.8926,
13.232361,0.6461,-1.0906,-0.3502,1.7316,2.2051,-0.2509,-1.9399,-0.6889,-1.8926,
13.269515,0.6461,-1.0906,-0.3502,1.7316,2.2051,-0.2509,-2.1934,1.4437,-2.3667,
13.272137,0.6461,-1.0906,-0.3502,-0.1268,-5.8597,-0.0295,-2.1934,1.4437,-2.3667,
13.273566,0.6080,-1.3503,-0.2056,-0.1268,-5.8597,-0.0295,-2.1934,1.4437,-2.3667,
13.274814,0.5711,-1.5907,-0.2664,-0.1268,-5.8597,-0.0295,-2.1934,1.4437,-2.3667,
13.276150,0.3735,-1.8775,-0.3299,-0.1268,-5.8597,-0.0295,-2.1934,1.4437,-2.3667,
13.277081,0.2657,-1.8628,-0.3883,-0.1268,-5.8597,-0.0295,-2.1934,1.4437,-2.3667,
13.309824,0.2657,-1.8628,-0.3883,-0.1268,-5.8597,-0.0295,-1.1718,1.7952,-1.1746,
13.312473,0.2657,-1.8628,-0.3883,-0.6335,-6.1722,-0.1514,-1.1718,1.7952,-1.1746,
13.348856,0.7197,-1.2269,-0.4262,-0.6335,-6.1722,-0.1514,-1.1718,1.7952,-1.1746,
13.351268,0.9979,-1.0613,-0.3113,-0.6335,-6.1722,-0.1514,-1.1718,1.7952,-1.1746,
13.352583,1.0803,-1.0449,-0.3497,-0.6335,-6.1722,-0.1514,-1.1718,1.7952,-1.1746,
13.353890,1.0803,-1.0449,-0.3497,-0.6335,-6.1722,-0.1514,-0.5145,0.1025,-0.7166,
13.355020,1.0803,-1.0449,-0.3497,-2.3226,-9.3136,-1.0717,-0.5145,0.1025,-0.7166,
13.389070,1.0803,-1.0449,-0.3497,-2.3226,-9.3136,-1.0717,-0.1779,-0.9744,-0.3469,
13.393242,1.0803,-1.0449,-0.3497,2.5683,-3.1346,-0.5779,-0.1779,-0.9744,-0.3469,
13.428117,1.0803,-1.0449,-0.3497,2.5683,-3.1346,-0.5779,0.0426,-1.5262,0.9740,
13.430684,1.0803,-1.0449,-0.3497,2.9799,-2.8285,-0.1886,0.0426,-1.5262,0.9740,
13.432495,0.7866,-0.9513,-0.4301,2.9799,-2.8285,-0.1886,0.0426,-1.5262,0.9740,
13.433610,0.3007,-0.8675,-0.4452,2.9799,-2.8285,-0.1886,0.0426,-1.5262,0.9740,
13.434858,0.0439,-0.7297,-0.2664,2.9799,-2.8285,-0.1886,0.0426,-1.5262,0.9740,
13.435837,-0.0939,-0.6052,-0.1220,2.9799,-2.8285,-0.1886,0.0426,-1.5262,0.9740,
13.436932,-0.0951,-0.4981,-0.0678,2.9799,-2.8285,-0.1886,0.0426,-1.5262,0.9740,
13.468042,-0.0951,-0.4981,-0.0678,2.9799,-2.8285,-0.1886,0.3973,-0.3353,1.6835,
13.470469,-0.0951,-0.4981,-0.0678,-4.9377,0.4177,0.6090,0.3973,-0.3353,1.6835,
13.509457,-0.0951,-0.4981,-0.0678,-4.9377,0.4177,0.6090,0.7126,0.7960,1.3543,
13.512167,-0.0951,-0.4981,-0.0678,-5.3783,4.0647,2.1950,0.7126,0.7960,1.3543,
13.513969,0.0002,-0.3867,-0.0692,-5.3783,4.0647,2.1950,0.7126,0.7960,1.3543,
13.515370,0.0847,-0.2990,-0.0785,-5.3783,4.0647,2.1950,0.7126,0.7960,1.3543,
13.516852,0.1995,-0.2663,-0.0367,-5.3783,4.0647,2.1950,0.7126,0.7960,1.3543,
13.518105,0.3361,-0.2751,-0.0900,-5.3783,4.0647,2.1950,0.7126,0.7960,1.3543,
13.546064,0.3361,-0.2751,-0.0900,-5.3783,4.0647,2.1950,0.9353,0.6512,1.0284,
13.547719,0.3361,-0.2751,-0.0900,-5.0328,4.3037,1.7307,0.9353,0.6512,1.0284,
13.574245,0.4585,-0.3604,-0.2796,-5.0328,4.3037,1.7307,0.9353,0.6512,1.0284,
13.576364,0.9251,-0.4241,-0.3473,-5.0328,4.3037,1.7307,0.9353,0.6512,1.0284,
13.577205,1.2097,-0.4654,-0.3624,-5.0328,4.3037,1.7307,0.9353,0.6512,1.0284,
13.588696,1.2097,-0.4654,-0.3624,-5.0328,4.3037,1.7307,1.0152,0.7012,1.0241,
13.590497,1.2097,-0.4654,-0.3624,-1.4512,5.4194,0.6273,1.0152,0.7012,1.0241,
13.626873,1.2097,-0.4654,-0.3624,-1.4512,5.4194,0.6273,1.2037,0.4019,0.0025,
13.629715,1.2097,-0.4654,-0.3624,5.2105,4.1281,-2.2882,1.2037,0.4019,0.0025,
13.663040,0.9339,-0.4112,-0.4552,5.2105,4.1281,-2.2882,1.2037,0.4019,0.0025,
13.665727,0.7612,-0.5189,-0.5701,5.2105,4.1281,-2.2882,1.2037,0.4019,0.0025,
13.667274,0.4961,-0.8517,0.1475,5.2105,4.1281,-2.2882,1.2037,0.4019,0.0025,
13.668474,0.7180,-1.3283,-0.4052,5.2105,4.1281,-2.2882,1.2037,0.4019,0.0025,
13.669669,0.7180,-1.3283,-0.4052,5.2105,4.1281,-2.2882,0.7116,0.1973,-0.7506,
13.670793,0.7180,-1.3283,-0.4052,1.3568,-0.5383,-1.4360,0.7116,0.1973,-0.7506,
13.710931,0.7180,-1.3283,-0.4052,1.3568,-0.5383,-1.4360,-1.0994,1.1795,-0.9903,
13.714373,0.7180,-1.3283,-0.4052,1.0405,-9.2867,-2.8459,-1.0994,1.1795,-0.9903,
13.747427,0.7180,-1.3283,-0.4052,1.0405,-9.2867,-2.8459,-1.0525,-2.0930,0.0888,
13.750062,0.7180,-1.3283,-0.4052,1.2030,-9.1858,-2.0223,-1.0525,-2.0930,0.0888,
13.751928,1.0250,-1.9215,-1.1996,1.2030,-9.1858,-2.0223,-1.0525,-2.0930,0.0888,
13.753212,0.5284,-1.9312,-0.2336,1.2030,-9.1858,-2.0223,-1.0525,-2.0930,0.0888,
13.754439,0.4470,-1.4915,0.1267,1.2030,-9.1858,-2.0223,-1.0525,-2.0930,0.0888,
13.755746,0.5032,-0.7886,0.3292,1.2030,-9.1858,-2.0223,-1.0525,-2.0930,0.0888,
13.757033,0.5841,-0.9948,0.2357,1.2030,-9.1858,-2.0223,-1.0525,-2.0930,0.0888,
13.784658,0.5841,-0.9948,0.2357,1.2030,-9.1858,-2.0223,0.7606,-1.0085,0.6321,
13.787299,0.5841,-0.9948,0.2357,1.4793,-8.8376,-2.0323,0.7606,-1.0085,0.6321,
13.825140,0.7790,-1.5904,0.3346,1.4793,-8.8376,-2.0323,0.7606,-1.0085,0.6321,
13.827274,0.8428,-1.3566,-0.1716,1.4793,-8.8376,-2.0323,0.7606,-1.0085,0.6321,
13.828697,0.9005,-0.9276,-0.6057,1.4793,-8.8376,-2.0323,0.7606,-1.0085,0.6321,
13.830075,0.9005,-0.9276,-0.6057,1.4793,-8.8376,-2.0323,0.6977,1.0048,0.2741,
13.831339,0.9005,-0.9276,-0.6057,1.0392,-2.2518,4.6554,0.6977,1.0048,0.2741,
13.863727,0.7392,-0.7295,-0.3338,1.0392,-2.2518,4.6554,0.6977,1.0048,0.2741,
13.869149,0.5496,-0.6467,-0.1164,1.0392,-2.2518,4.6554,0.6977,1.0048,0.2741,
13.871323,0.5496,-0.6467,-0.1164,1.0392,-2.2518,4.6554,-0.1438,-1.0330,0.1293,
13.873149,0.5496,-0.6467,-0.1164,3.1189,-1.0429,-1.6307,-0.1438,-1.0330,0.1293,
13.902210,0.5496,-0.6467,-0.1164,3.1189,-1.0429,-1.6307,0.9598,-2.0717,0.4829,
13.903555,0.5496,-0.6467,-0.1164,-0.7559,3.2234,1.5918,0.9598,-2.0717,0.4829,
13.941812,0.5496,-0.6467,-0.1164,-0.7559,3.2234,1.5918,1.0109,0.1111,0.6385,
13.944221,0.5496,-0.6467,-0.1164,-0.5244,3.3559,1.1921,1.0109,0.1111,0.6385,
13.945110,0.3578,-0.5783,-0.0353,-0.5244,3.3559,1.1921,1.0109,0.1111,0.6385,
13.945794,0.2814,-0.5182,0.0175,-0.5244,3.3559,1.1921,1.0109,0.1111,0.6385,
13.946507,0.2990,-0.4820,0.0229,-0.5244,3.3559,1.1921,1.0109,0.1111,0.6385,
13.947294,0.2592,-0.4505,-0.0020,-0.5244,3.3559,1.1921,1.0109,0.1111,0.6385,
13.947869,0.2115,-0.3975,0.0422,-0.5244,3.3559,1.1921,1.0109,0.1111,0.6385,
13.981039,0.2115,-0.3975,0.0422,-0.5244,3.3559,1.1921,0.7798,1.1476,0.6214,
13.982236,0.2115,-0.3975,0.0422,-1.7023,4.7745,1.3357,0.7798,1.1476,0.6214,
14.020654,0.2115,-0.3975,0.0422,-1.7023,4.7745,1.3357,0.7297,0.1409,0.0345,
14.021706,0.2115,-0.3975,0.0422,4.5725,5.4494,-3.8343,0.7297,0.1409,0.0345,
14.022289,0.4109,-0.2795,-0.0927,4.5725,5.4494,-3.8343,0.7297,0.1409,0.0345,
14.022751,0.9772,-0.2731,-0.5705,4.5725,5.4494,-3.8343,0.7297,0.1409,0.0345,
14.023140,1.3243,-0.5529,-0.7882,4.5725,5.4494,-3.8343,0.7297,0.1409,0.0345,
14.023592,1.0996,-0.8583,-0.5002,4.5725,5.4494,-3.8343,0.7297,0.1409,0.0345,
14.060723,1.0996,-0.8583,-0.5002,4.5725,5.4494,-3.8343,-0.3697,-1.6179,-0.7272,
14.061757,1.0996,-0.8583,-0.5002,4.3103,5.2176,-3.3645,-0.3697,-1.6179,-0.7272,
14.083703,0.7402,-0.6201,-0.4083,4.3103,5.2176,-3.3645,-0.3697,-1.6179,-0.7272,
14.084680,0.3669,-0.3479,-0.4587,4.3103,5.2176,-3.3645,-0.3697,-1.6179,-0.7272,
14.085127,0.3591,-0.4058,-0.1433,4.3103,5.2176,-3.3645,-0.3697,-1.6179,-0.7272,
14.100888,0.3591,-0.4058,-0.1433,4.3103,5.2176,-3.3645,-1.5233,-2.1537,-1.0425,
14.102427,0.3591,-0.4058,-0.1433,2.4135,2.5164,-2.1322,-1.5233,-2.1537,-1.0425,
14.140019,0.3591,-0.4058,-0.1433,2.4135,2.5164,-2.1322,-1.3966,-1.2152,-1.8053,
14.141930,0.3591,-0.4058,-0.1433,-2.3126,1.3180,4.7376,-1.3966,-1.2152,-1.8053,
14.171584,0.3021,-0.6687,0.2188,-2.3126,1.3180,4.7376,-1.3966,-1.2152,-1.8053,
14.172743,0.2276,-0.9562,0.4719,-2.3126,1.3180,4.7376,-1.3966,-1.2152,-1.8053,
14.173416,0.3261,-1.4605,0.2840,-2.3126,1.3180,4.7376,-1.3966,-1.2152,-1.8053,
14.173935,1.0326,-1.9984,-0.3788,-2.3126,1.3180,4.7376,-1.3966,-1.2152,-1.8053,
14.179433,1.0326,-1.9984,-0.3788,-2.3126,1.3180,4.7376,-0.2812,0.2708,-1.7531,
14.180235,1.0326,-1.9984,-0.3788,-2.8347,0.8880,4.6843,-0.2812,0.2708,-1.7531,
14.218901,1.0326,-1.9984,-0.3788,-2.8347,0.8880,4.6843,-0.2568,-0.1063,-1.3397,
14.220109,1.0326,-1.9984,-0.3788,1.9021,-9.7337,1.5366,-0.2568,-0.1063,-1.3397,
14.259246,1.0326,-1.9984,-0.3788,1.9021,-9.7337,1.5366,0.9055,-1.2354,0.4116,
14.261094,1.0326,-1.9984,-0.3788,2.1343,-9.3700,1.5404,0.9055,-1.2354,0.4116,
14.262572,1.1057,-1.7683,-0.3441,2.1343,-9.3700,1.5404,0.9055,-1.2354,0.4116,
14.263825,0.5093,-1.0449,-0.2788,2.1343,-9.3700,1.5404,0.9055,-1.2354,0.4116,
14.264662,0.2675,-0.9186,-0.2222,2.1343,-9.3700,1.5404,0.9055,-1.2354,0.4116,
14.265908,0.3520,-1.2061,-0.3062,2.1343,-9.3700,1.5404,0.9055,-1.2354,0.4116,
14.267029,0.5120,-1.2765,-0.5622,2.1343,-9.3700,1.5404,0.9055,-1.2354,0.4116,
14.298977,0.5120,-1.2765,-0.5622,2.1343,-9.3700,1.5404,1.8855,-0.4375,1.1668,
14.300813,0.5120,-1.2765,-0.5622,-1.7816,-2.1432,-0.1538,1.8855,-0.4375,1.1668,
14.338728,0.5120,-1.2765,-0.5622,-1.7816,-2.1432,-0.1538,2.2115,-0.9702,0.9847,
14.340795,0.5120,-1.2765,-0.5622,0.6747,-1.6220,-2.8348,2.2115,-0.9702,0.9847,
14.342092,0.6591,-1.0835,-0.5698,0.6747,-1.6220,-2.8348,2.2115,-0.9702,0.9847,
14.343343,0.5868,-0.7808,-0.3463,0.6747,-1.6220,-2.8348,2.2115,-0.9702,0.9847,
14.344580,0.4079,-0.5543,-0.2481,0.6747,-1.6220,-2.8348,2.2115,-0.9702,0.9847,
14.345870,0.4507,-0.6142,-0.5109,0.6747,-1.6220,-2.8348,2.2115,-0.9702,0.9847,
14.379432,0.4507,-0.6142,-0.5109,0.6747,-1.6220,-2.8348,2.0272,-1.9066,0.9367,
14.381512,0.4507,-0.6142,-0.5109,1.1179,-1.2754,-3.1247,2.0272,-1.9066,0.9367,
14.418181,0.4507,-0.6142,-0.5109,1.1179,-1.2754,-3.1247,0.2514,-1.0160,0.1868,
14.420894,0.4507,-0.6142,-0.5109,1.1516,2.4257,-2.7025,0.2514,-1.0160,0.1868,
14.422466,0.8741,-0.8421,-0.6326,1.1516,2.4257,-2.7025,0.2514,-1.0160,0.1868,
14.424416,0.8025,-0.7146,-0.3360,1.1516,2.4257,-2.7025,0.2514,-1.0160,0.1868,
14.426029,0.3877,-0.3296,-0.1489,1.1516,2.4257,-2.7025,0.2514,-1.0160,0.1868,
14.427134,0.2210,-0.0523,0.1194,1.1516,2.4257,-2.7025,0.2514,-1.0160,0.1868,
14.457180,0.2210,-0.0523,0.1194,1.1516,2.4257,-2.7025,-0.1960,0.9665,-0.0849,
14.459765,0.2210,-0.0523,0.1194,0.0025,5.2931,0.5356,-0.1960,0.9665,-0.0849,
14.496989,0.2210,-0.0523,0.1194,0.0025,5.2931,0.5356,0.8511,0.6980,0.2816,
14.499955,0.2210,-0.0523,0.1194,-4.7447,8.7728,3.3673,0.8511,0.6980,0.2816,
14.501446,0.0740,-0.0051,0.3195,-4.7447,8.7728,3.3673,0.8511,0.6980,0.2816,
14.502645,-0.0470,-0.0144,0.2469,-4.7447,8.7728,3.3673,0.8511,0.6980,0.2816,
14.503744,-0.1110,0.0027,0.0835,-4.7447,8.7728,3.3673,0.8511,0.6980,0.2816,
14.504809,-0.0836,0.0188,0.0507,-4.7447,8.7728,3.3673,0.8511,0.6980,0.2816,
14.536784,-0.0836,0.0188,0.0507,-4.7447,8.7728,3.3673,1.4850,-0.6826,0.5948,
14.539022,-0.0836,0.0188,0.0507,-4.4333,8.7868,2.9107,1.4850,-0.6826,0.5948,
14.576612,-0.0836,0.0188,0.0507,-4.4333,8.7868,2.9107,1.2090,-3.4629,-0.0337,
14.579241,-0.0836,0.0188,0.0507,-3.9221,8.1476,0.9123,1.2090,-3.4629,-0.0337,
14.580631,0.0082,0.0007,0.0710,-3.9221,8.1476,0.9123,1.2090,-3.4629,-0.0337,
14.582422,0.0967,-0.2001,-0.1208,-3.9221,8.1476,0.9123,1.2090,-3.4629,-0.0337,
14.584043,0.6452,-1.4331,-0.3763,-3.9221,8.1476,0.9123,1.2090,-3.4629,-0.0337,
14.585536,1.5227,-3.1716,0.2408,-3.9221,8.1476,0.9123,1.2090,-3.4629,-0.0337,
14.616068,1.5227,-3.1716,0.2408,-3.9221,8.1476,0.9123,-1.2826,0.2453,-1.2311,
14.618087,1.5227,-3.1716,0.2408,-4.2853,7.7528,1.2818,-1.2826,0.2453,-1.2311,
14.656057,1.5227,-3.1716,0.2408,-4.2853,7.7528,1.2818,1.1569,1.9614,0.4233,
14.659039,1.5227,-3.1716,0.2408,7.5644,-17.9480,4.3718,1.1569,1.9614,0.4233,
14.660794,1.4997,-3.5713,1.3267,7.5644,-17.9480,4.3718,1.1569,1.9614,0.4233,
14.662349,1.5093,-2.4814,0.3549,7.5644,-17.9480,4.3718,1.1569,1.9614,0.4233,
14.664075,1.4255,-1.1832,-0.5271,7.5644,-17.9480,4.3718,1.1569,1.9614,0.4233,
14.666361,1.1181,-0.9259,-0.3917,7.5644,-17.9480,4.3718,1.1569,1.9614,0.4233,
14.695194,1.1181,-0.9259,-0.3917,7.5644,-17.9480,4.3718,3.2192,-4.2501,1.3479,
14.696801,1.1181,-0.9259,-0.3917,9.1748,-5.8853,-1.7705,3.2192,-4.2501,1.3479,
14.734947,1.1181,-0.9259,-0.3917,9.1748,-5.8853,-1.7705,3.6570,-5.1812,1.0273,
14.736560,1.1181,-0.9259,-0.3917,5.1694,-4.0073,1.6966,3.6570,-5.1812,1.0273,
14.737481,0.9769,-1.1429,0.1414,5.1694,-4.0073,1.6966,3.6570,-5.1812,1.0273,
14.738560,0.9427,-1.4407,0.3004,5.1694,-4.0073,1.6966,3.6570,-5.1812,1.0273,
14.739348,0.8318,-1.4927,0.2286,5.1694,-4.0073,1.6966,3.6570,-5.1812,1.0273,
14.740208,0.6513,-1.2145,0.1973,5.1694,-4.0073,1.6966,3.6570,-5.1812,1.0273,
14.774377,0.6513,-1.2145,0.1973,5.1694,-4.0073,1.6966,3.2171,-2.4413,0.7961,
14.776412,0.6513,-1.2145,0.1973,5.2955,-3.9352,0.8543,3.2171,-2.4413,0.7961,
14.814259,0.4101,-0.9267,0.1612,5.2955,-3.9352,0.8543,3.2171,-2.4413,0.7961,
14.816465,0.0554,-0.7178,-0.1088,5.2955,-3.9352,0.8543,3.2171,-2.4413,0.7961,
14.817744,-0.3169,-0.5277,-0.5718,5.2955,-3.9352,0.8543,3.2171,-2.4413,0.7961,
14.819252,-0.3169,-0.5277,-0.5718,5.2955,-3.9352,0.8543,1.5936,0.8599,1.0411,
14.820672,-0.3169,-0.5277,-0.5718,0.4024,0.0803,-1.2070,1.5936,0.8599,1.0411,
14.853716,-0.3169,-0.5277,-0.5718,0.4024,0.0803,-1.2070,-0.1992,2.1660,2.0340,
14.855999,-0.3169,-0.5277,-0.5718,-5.3763,5.5625,-6.4890,-0.1992,2.1660,2.0340,
14.893672,-0.3169,-0.5277,-0.5718,-5.3763,5.5625,-6.4890,0.2418,-0.0935,1.5184,
14.896325,-0.3169,-0.5277,-0.5718,-4.7256,5.5622,-6.4690,0.2418,-0.0935,1.5184,
14.897667,-0.4471,-0.3806,-0.5622,-4.7256,5.5622,-6.4690,0.2418,-0.0935,1.5184,
14.898955,-0.2080,-0.3174,-0.2178,-4.7256,5.5622,-6.4690,0.2418,-0.0935,1.5184,
14.900963,0.0815,-0.2592,0.0170,-4.7256,5.5622,-6.4690,0.2418,-0.0935,1.5184,
14.902249,0.3295,-0.2426,-0.0524,-4.7256,5.5622,-6.4690,0.2418,-0.0935,1.5184,
14.903345,0.5643,-0.3415,-0.2686,-4.7256,5.5622,-6.4690,0.2418,-0.0935,1.5184,
14.932836,0.5643,-0.3415,-0.2686,-4.7256,5.5622,-6.4690,0.0841,-2.2762,-0.4811,
14.934661,0.5643,-0.3415,-0.2686,1.2521,6.6576,-2.8773,0.0841,-2.2762,-0.4811,
14.973203,0.5643,-0.3415,-0.2686,1.2521,6.6576,-2.8773,-1.3529,-5.3303,-0.9403,
14.975398,0.5643,-0.3415,-0.2686,7.0029,-0.2928,-1.2167,-1.3529,-5.3303,-0.9403,
14.976706,0.7368,-0.5438,-0.1882,7.0029,-0.2928,-1.2167,-1.3529,-5.3303,-0.9403,
14.977977,0.8909,-0.9638,-0.0160,7.0029,-0.2928,-1.2167,-1.3529,-5.3303,-0.9403,
14.979388,1.3439,-1.4617,0.1003,7.0029,-0.2928,-1.2167,-1.3529,-5.3303,-0.9403,
14.980607,1.9883,-1.6755,0.3759,7.0029,-0.2928,-1.2167,-1.3529,-5.3303,-0.9403,
15.012372,1.9883,-1.6755,0.3759,7.0029,-0.2928,-1.2167,-1.7737,-5.2174,-0.1520,
15.014370,1.9883,-1.6755,0.3759,6.7750,-0.2872,0.0238,-1.7737,-5.2174,-0.1520,
15.052185,1.8269,-1.5169,0.7487,6.7750,-0.2872,0.0238,-1.7737,-5.2174,-0.1520,
15.054510,0.9801,-1.3879,0.9410,6.7750,-0.2872,0.0238,-1.7737,-5.2174,-0.1520,
15.055703,0.4859,-1.4290,1.0641,6.7750,-0.2872,0.0238,-1.7737,-5.2174,-0.1520,
15.056768,0.4859,-1.4290,1.0641,6.7750,-0.2872,0.0238,-1.1484,0.0770,-1.2172,
15.057772,0.4859,-1.4290,1.0641,12.0693,-5.6345,7.3930,-1.1484,0.0770,-1.2172,
15.091595,0.4859,-1.4290,1.0641,12.0693,-5.6345,7.3930,-0.9705,4.9974,-0.9893,
15.093215,0.4859,-1.4290,1.0641,-1.8595,-5.3137,5.9911,-0.9705,4.9974,-0.9893,
15.132589,0.4859,-1.4290,1.0641,-1.8595,-5.3137,5.9911,-1.9644,-4.2896,0.5181,
15.134326,0.4859,-1.4290,1.0641,-1.4864,-5.2037,7.2484,-1.9644,-4.2896,0.5181,
15.135478,0.3605,-1.4341,1.1052,-1.4864,-5.2037,7.2484,-1.9644,-4.2896,0.5181,
15.136465,-0.1845,-1.5946,-0.3761,-1.4864,-5.2037,7.2484,-1.9644,-4.2896,0.5181,
15.137949,-0.7252,-1.7487,-1.5808,-1.4864,-5.2037,7.2484,-1.9644,-4.2896,0.5181,
15.139340,-0.0042,-1.1446,0.3815,-1.4864,-5.2037,7.2484,-1.9644,-4.2896,0.5181,
15.141585,0.1802,-0.6736,0.5943,-1.4864,-5.2037,7.2484,-1.9644,-4.2896,0.5181,
15.170115,0.1802,-0.6736,0.5943,-1.4864,-5.2037,7.2484,-1.1292,-5.5487,0.4915,
15.171298,0.1802,-0.6736,0.5943,-4.7376,-2.2757,0.5603,-1.1292,-5.5487,0.4915,
15.209977,0.1802,-0.6736,0.5943,-4.7376,-2.2757,0.5603,0.2706,-1.9406,-0.0721,
15.211123,0.1802,-0.6736,0.5943,-1.2925,4.2812,5.0814,0.2706,-1.9406,-0.0721,
15.211631,0.0876,-0.4969,0.3141,-1.2925,4.2812,5.0814,0.2706,-1.9406,-0.0721,
15.212289,0.1194,-0.4703,0.2476,-1.2925,4.2812,5.0814,0.2706,-1.9406,-0.0721,
15.212712,0.2374,-0.5768,0.2078,-1.2925,4.2812,5.0814,0.2706,-1.9406,-0.0721,
15.213171,0.2577,-0.7891,0.1472,-1.2925,4.2812,5.0814,0.2706,-1.9406,-0.0721,
15.250875,0.2577,-0.7891,0.1472,-1.2925,4.2812,5.0814,0.4367,-2.1718,-0.3128,
15.253845,0.2577,-0.7891,0.1472,-1.1642,4.2216,5.0651,0.4367,-2.1718,-0.3128,
15.290342,0.1800,-1.0559,0.1096,-1.1642,4.2216,5.0651,0.4367,-2.1718,-0.3128,
15.293331,0.1199,-1.2924,-0.0773,-1.1642,4.2216,5.0651,0.4367,-2.1718,-0.3128,
15.294720,0.3266,-1.4060,-0.9072,-1.1642,4.2216,5.0651,0.4367,-2.1718,-0.3128,
