time,gFx,gFy,gFz,ax,ay,az,wx,wy,wz
2022-01-28 8:41:33.3710,0.01,-0.309,-0.394,1.55,-0.8,-4.67,0.09,0.86,-0.95
2022-01-28 8:41:33.3840,0.066,-0.319,-0.463,1.16,-0.92,-4.94,0.1,0.88,-0.89
2022-01-28 8:41:33.3940,0.106,-0.351,-0.619,0.8,-0.68,-3.72,0.08,0.56,-0.83
2022-01-28 8:41:33.4040,0.157,-0.381,-0.678,0.44,-0.37,-2.39,0.06,0.19,-0.78
2022-01-28 8:41:33.4140,0.189,-0.402,-0.649,0.0,-0.08,-2.24,0.06,-0.1,-0.74
2022-01-28 8:41:33.4240,0.182,-0.395,-0.619,-0.13,0.03,-2.6,0.05,-0.27,-0.73
2022-01-28 8:41:33.4340,0.168,-0.392,-0.609,-0.01,-0.07,-2.83,0.05,-0.27,-0.73
2022-01-28 8:41:33.4440,0.154,-0.405,-0.611,0.13,0.0,-2.88,0.02,-0.33,-0.74
2022-01-28 8:41:33.4540,0.149,-0.419,-0.624,0.24,0.15,-2.82,0.03,-0.29,-0.75
2022-01-28 8:41:33.4640,0.16,-0.43,-0.643,0.24,0.3,-2.66,0.06,-0.22,-0.74
2022-01-28 8:41:33.4740,0.178,-0.439,-0.662,0.1,0.39,-2.48,0.09,-0.15,-0.69
2022-01-28 8:41:33.4840,0.194,-0.454,-0.686,-0.05,0.51,-2.28,0.11,-0.1,-0.61
2022-01-28 8:41:33.4940,0.21,-0.475,-0.699,-0.19,0.67,-2.05,0.12,-0.03,-0.49
2022-01-28 8:41:33.5050,0.218,-0.496,-0.694,-0.32,0.89,-2.0,0.11,0.04,-0.37
2022-01-28 8:41:33.5140,0.221,-0.508,-0.705,-0.35,1.06,-2.03,0.09,0.07,-0.26
2022-01-28 8:41:33.5240,0.228,-0.52,-0.744,-0.37,1.16,-1.83,0.08,-0.01,-0.18
2022-01-28 8:41:33.5350,0.243,-0.536,-0.806,-0.47,1.31,-1.31,0.1,-0.17,-0.11
2022-01-28 8:41:33.5450,0.245,-0.534,-0.841,-0.61,1.41,-0.77,0.19,-0.32,-0.08
2022-01-28 8:41:33.5550,0.234,-0.514,-0.868,-0.59,1.28,-0.49,0.33,-0.41,-0.08
2022-01-28 8:41:33.5640,0.23,-0.505,-0.889,-0.53,1.08,-0.23,0.47,-0.42,-0.11
2022-01-28 8:41:33.5750,0.222,-0.505,-0.894,-0.53,0.99,-0.05,0.57,-0.32,-0.16
2022-01-28 8:41:33.5850,0.21,-0.507,-0.88,-0.44,0.96,-0.07,0.6,-0.13,-0.18
2022-01-28 8:41:33.5940,0.2,-0.503,-0.872,-0.33,0.93,-0.19,0.56,0.11,-0.2
2022-01-28 8:41:33.6050,0.191,-0.482,-0.881,-0.21,0.78,-0.19,0.46,0.36,-0.22
2022-01-28 8:41:33.6150,0.2,-0.466,-0.915,-0.11,0.53,0.01,0.32,0.53,-0.24
2022-01-28 8:41:33.6250,0.242,-0.468,-0.966,-0.28,0.42,0.43,0.16,0.58,-0.25
2022-01-28 8:41:33.6350,0.295,-0.491,-1.001,-0.68,0.5,0.96,0.02,0.6,-0.2
2022-01-28 8:41:33.6450,0.351,-0.544,-0.999,-1.17,0.84,1.15,-0.11,0.64,-0.08
2022-01-28 8:41:33.6550,0.394,-0.608,-1.007,-1.63,1.45,1.11,-0.23,0.65,0.08
2022-01-28 8:41:33.6650,0.412,-0.648,-1.028,-1.92,2.05,1.29,-0.33,0.66,0.24
2022-01-28 8:41:33.6750,0.41,-0.646,-1.029,-1.95,2.31,1.44,-0.39,0.71,0.34
2022-01-28 8:41:33.6850,0.4,-0.624,-1.031,-1.86,2.21,1.39,-0.4,0.76,0.4
2022-01-28 8:41:33.6950,0.384,-0.589,-1.05,-1.66,1.99,1.51,-0.36,0.82,0.4
2022-01-28 8:41:33.7050,0.384,-0.537,-1.056,-1.5,1.59,1.65,-0.28,0.83,0.37
2022-01-28 8:41:33.7150,0.392,-0.493,-1.095,-1.48,1.1,1.78,-0.2,0.69,0.36
2022-01-28 8:41:33.7250,0.416,-0.46,-1.143,-1.58,0.73,2.3,-0.13,0.48,0.34
2022-01-28 8:41:33.7350,0.437,-0.416,-1.14,-1.79,0.4,2.61,-0.07,0.32,0.34
2022-01-28 8:41:33.7450,0.446,-0.37,-1.094,-1.96,-0.09,2.4,-0.04,0.28,0.4
2022-01-28 8:41:33.7560,0.435,-0.347,-1.035,-1.97,-0.46,1.88,-0.06,0.34,0.52
2022-01-28 8:41:33.7670,0.415,-0.32,-0.995,-1.79,-0.67,1.33,-0.15,0.43,0.62
2022-01-28 8:41:33.7770,0.409,-0.271,-1.0,-1.6,-1.0,1.08,-0.31,0.45,0.64
2022-01-28 8:41:33.7870,0.42,-0.225,-1.015,-1.62,-1.51,1.27,-0.48,0.5,0.66
2022-01-28 8:41:33.7970,0.407,-0.21,-0.985,-1.44,-1.87,0.89,-0.61,0.6,0.76
2022-01-28 8:41:33.8070,0.385,-0.198,-0.953,-1.44,-1.87,0.89,-0.68,0.76,0.92
2022-01-28 8:41:33.8170,0.37,-0.176,-0.911,-1.21,-2.01,0.54,-0.7,0.98,1.12
2022-01-28 8:41:33.8270,0.362,-0.16,-0.872,-1.05,-2.18,0.11,-0.68,1.19,1.31
2022-01-28 8:41:33.8370,0.358,-0.149,-0.845,-0.93,-2.28,-0.22,-0.65,1.38,1.48
2022-01-28 8:41:33.8470,0.347,-0.141,-0.832,-0.81,-2.36,-0.42,-0.62,1.53,1.63
2022-01-28 8:41:33.8570,0.329,-0.129,-0.82,-0.61,-2.44,-0.51,-0.61,1.62,1.72
2022-01-28 8:41:33.8670,0.305,-0.115,-0.815,-0.33,-2.56,-0.6,-0.62,1.67,1.74
2022-01-28 8:41:33.8770,0.284,-0.11,-0.814,-0.01,-2.68,-0.58,-0.62,1.7,1.72
2022-01-28 8:41:33.8870,0.27,-0.119,-0.799,0.25,-2.67,-0.63,-0.65,1.68,1.65
2022-01-28 8:41:33.8970,0.255,-0.144,-0.799,0.46,-2.52,-0.71,-0.69,1.62,1.57
2022-01-28 8:41:33.9070,0.245,-0.175,-0.791,0.84,-1.89,-0.76,-0.74,1.54,1.51
2022-01-28 8:41:33.9180,0.234,-0.21,-0.782,1.04,-1.53,-0.84,-0.77,1.45,1.48
2022-01-28 8:41:33.9280,0.214,-0.239,-0.77,1.33,-1.29,-0.94,-0.77,1.35,1.5
2022-01-28 8:41:33.9370,0.184,-0.253,-0.763,1.33,-1.29,-0.94,-0.77,1.35,1.5
2022-01-28 8:41:33.9480,0.148,-0.266,-0.764,1.7,-1.15,-0.98,-0.68,1.13,1.57
2022-01-28 8:41:33.9580,0.109,-0.282,-0.772,2.1,-1.01,-0.9,-0.58,1.02,1.56
2022-01-28 8:41:33.9670,0.08,-0.294,-0.765,2.49,-0.87,-0.86,-0.45,0.92,1.48
2022-01-28 8:41:33.9770,0.072,-0.317,-0.765,2.73,-0.75,-0.93,-0.31,0.8,1.32
2022-01-28 8:41:33.9880,0.081,-0.35,-0.779,2.75,-0.49,-0.85,-0.2,0.63,1.08
2022-01-28 8:41:33.9980,0.091,-0.379,-0.795,2.65,-0.2,-0.67,-0.11,0.41,0.83
2022-01-28 8:41:34.0080,0.083,-0.402,-0.809,2.6,0.05,-0.52,-0.11,0.41,0.83
2022-01-28 8:41:34.0180,0.065,-0.421,-0.813,2.72,0.25,-0.4,0.0,-0.05,0.48
2022-01-28 8:41:34.0280,0.042,-0.429,-0.808,3.09,0.41,-0.46,0.06,-0.22,0.39
2022-01-28 8:41:34.0380,0.021,-0.431,-0.806,3.09,0.41,-0.46,0.11,-0.33,0.34
2022-01-28 8:41:34.0470,0.009,-0.442,-0.804,3.22,0.42,-0.49,0.17,-0.4,0.32
2022-01-28 8:41:34.0570,0.008,-0.46,-0.814,3.25,0.55,-0.49,0.23,-0.47,0.29
2022-01-28 8:41:34.0670,0.009,-0.476,-0.836,3.12,0.83,-0.13,0.3,-0.54,0.22
2022-01-28 8:41:34.0780,0.012,-0.496,-0.863,3.12,0.83,-0.13,0.38,-0.63,0.12
2022-01-28 8:41:34.0880,0.014,-0.516,-0.902,3.03,1.0,0.21,0.48,-0.69,0.03
2022-01-28 8:41:34.0970,0.015,-0.535,-0.918,2.96,1.14,0.51,0.58,-0.71,-0.07
2022-01-28 8:41:34.1080,0.014,-0.543,-0.941,2.9,1.27,0.66,0.66,-0.7,-0.2
2022-01-28 8:41:34.1180,0.008,-0.528,-0.956,2.87,1.22,0.93,0.74,-0.59,-0.36
2022-01-28 8:41:34.1280,0.011,-0.513,-0.938,2.77,0.86,0.83,0.78,-0.46,-0.52
2022-01-28 8:41:34.1380,0.037,-0.522,-0.948,2.77,0.86,0.83,0.76,-0.4,-0.67
2022-01-28 8:41:34.1480,0.076,-0.535,-0.955,2.45,0.95,0.99,0.68,-0.37,-0.83
2022-01-28 8:41:34.1580,0.116,-0.544,-0.945,2.05,1.03,1.0,0.59,-0.34,-1.0
2022-01-28 8:41:34.1680,0.144,-0.546,-0.958,1.71,1.09,0.94,0.48,-0.34,-1.15
2022-01-28 8:41:34.1780,0.16,-0.549,-0.978,1.52,1.09,1.17,0.4,-0.35,-1.28
2022-01-28 8:41:34.1880,0.173,-0.561,-1.001,1.4,1.18,1.35,0.35,-0.37,-1.39
2022-01-28 8:41:34.1980,0.187,-0.556,-1.026,1.3,1.27,1.61,0.29,-0.39,-1.51
2022-01-28 8:41:34.2080,0.201,-0.537,-1.057,1.2,1.16,1.86,0.23,-0.4,-1.59
2022-01-28 8:41:34.2180,0.22,-0.533,-1.096,1.08,1.05,2.17,0.21,-0.44,-1.63
2022-01-28 8:41:34.2290,0.236,-0.529,-1.159,0.91,1.07,2.67,0.24,-0.49,-1.66
2022-01-28 8:41:34.2380,0.249,-0.505,-1.199,0.69,0.76,3.6,0.3,-0.62,-1.71
2022-01-28 8:41:34.2490,0.262,-0.481,-1.243,0.69,0.76,3.6,0.3,-0.62,-1.71
2022-01-28 8:41:34.2580,0.267,-0.458,-1.274,0.56,0.31,4.25,0.35,-1.0,-1.92
2022-01-28 8:41:34.2690,0.265,-0.406,-1.313,0.59,-0.22,4.65,0.32,-1.23,-2.13
2022-01-28 8:41:34.2790,0.256,-0.347,-1.352,0.59,-0.22,4.65,0.3,-1.38,-2.35
2022-01-28 8:41:34.2890,0.252,-0.288,-1.354,0.66,-0.74,4.89,0.3,-1.38,-2.35
2022-01-28 8:41:34.2990,0.254,-0.24,-1.343,0.64,-1.24,4.77,0.39,-1.11,-2.55
2022-01-28 8:41:34.3090,0.252,-0.183,-1.344,0.66,-1.67,4.7,0.39,-1.11,-2.55
2022-01-28 8:41:34.3190,0.254,-0.138,-1.329,0.69,-2.2,4.68,0.53,-0.79,-2.49
2022-01-28 8:41:34.3380,0.257,-0.12,-1.319,0.76,-2.64,4.5,0.75,-0.46,-2.32
2022-01-28 8:41:34.3400,0.253,-0.125,-1.314,0.76,-2.64,4.5,1.29,-0.1,-1.92
2022-01-28 8:41:34.3490,0.237,-0.131,-1.299,0.92,-2.61,4.48,1.59,-0.11,-1.77
2022-01-28 8:41:34.3590,0.219,-0.14,-1.268,1.15,-2.65,4.33,1.9,-0.27,-1.65
2022-01-28 8:41:34.3690,0.208,-0.165,-1.228,1.34,-2.6,4.06,2.18,-0.53,-1.55
2022-01-28 8:41:34.3790,0.206,-0.186,-1.169,1.43,-2.48,3.69,2.4,-0.86,-1.45
2022-01-28 8:41:34.3890,0.208,-0.209,-1.082,1.41,-2.43,3.07,2.54,-1.16,-1.34
2022-01-28 8:41:34.3990,0.203,-0.232,-0.978,1.37,-2.35,2.21,2.57,-1.39,-1.24
2022-01-28 8:41:34.4090,0.196,-0.245,-0.877,1.38,-2.32,1.25,2.51,-1.54,-1.16
2022-01-28 8:41:34.4190,0.187,-0.258,-0.783,1.38,-2.37,0.34,2.38,-1.61,-1.14
2022-01-28 8:41:34.4290,0.177,-0.267,-0.704,1.4,-2.39,-0.48,2.21,-1.6,-1.15
2022-01-28 8:41:34.4390,0.169,-0.278,-0.641,1.43,-2.43,-1.12,2.02,-1.51,-1.19
2022-01-28 8:41:34.4490,0.161,-0.287,-0.587,1.45,-2.45,-1.65,1.82,-1.36,-1.26
2022-01-28 8:41:34.4590,0.158,-0.295,-0.543,1.49,-2.46,-2.11,1.82,-1.36,-1.26
2022-01-28 8:41:34.4690,0.163,-0.304,-0.515,1.4,-2.4,-2.63,1.44,-1.06,-1.45
2022-01-28 8:41:34.4790,0.173,-0.323,-0.491,1.4,-2.4,-2.63,1.26,-0.95,-1.52
2022-01-28 8:41:34.4890,0.187,-0.349,-0.476,1.29,-2.22,-2.8,1.1,-0.91,-1.55
2022-01-28 8:41:34.4990,0.202,-0.373,-0.47,1.17,-2.0,-2.88,0.95,-0.92,-1.55
2022-01-28 8:41:34.5090,0.222,-0.403,-0.467,1.03,-1.77,-2.9,0.95,-0.92,-1.55
2022-01-28 8:41:34.5190,0.244,-0.422,-0.468,0.81,-1.5,-2.91,0.82,-0.99,-1.53
2022-01-28 8:41:34.5290,0.262,-0.427,-0.466,0.61,-1.4,-2.9,0.63,-1.14,-1.49
2022-01-28 8:41:34.5390,0.271,-0.436,-0.467,0.46,-1.34,-2.92,0.53,-1.2,-1.46
2022-01-28 8:41:34.5500,0.271,-0.439,-0.465,0.4,-1.25,-2.92,0.43,-1.24,-1.41
2022-01-28 8:41:34.5590,0.261,-0.44,-0.466,0.42,-1.23,-2.96,0.43,-1.24,-1.41
2022-01-28 8:41:34.5700,0.255,-0.446,-0.477,0.5,-1.18,-2.95,0.26,-1.31,-1.35
2022-01-28 8:41:34.5790,0.256,-0.456,-0.508,0.51,-1.09,-2.79,0.26,-1.31,-1.35
2022-01-28 8:41:34.5890,0.264,-0.473,-0.543,0.44,-0.93,-2.49,0.18,-1.52,-1.4
2022-01-28 8:41:34.5990,0.276,-0.486,-0.572,0.3,-0.73,-2.18,0.21,-1.59,-1.46
2022-01-28 8:41:34.6090,0.287,-0.491,-0.571,0.13,-0.61,-2.03,0.24,-1.55,-1.49
2022-01-28 8:41:34.6190,0.296,-0.495,-0.568,0.0,-0.55,-2.12,0.24,-1.42,-1.51
2022-01-28 8:41:34.6290,0.304,-0.502,-0.557,-0.2,-0.36,-2.33,0.19,-1.2,-1.5
2022-01-28 8:41:34.6390,0.314,-0.512,-0.552,-0.2,-0.36,-2.33,0.1,-0.94,-1.48
2022-01-28 8:41:34.6490,0.329,-0.527,-0.563,-0.31,-0.22,-2.32,0.01,-0.67,-1.44
2022-01-28 8:41:34.6600,0.357,-0.548,-0.578,-0.46,0.0,-2.23,-0.07,-0.48,-1.4
2022-01-28 8:41:34.6690,0.396,-0.571,-0.623,-0.76,0.26,-2.01,-0.15,-0.38,-1.33
2022-01-28 8:41:34.6790,0.433,-0.602,-0.662,-1.1,0.57,-1.55,-0.15,-0.38,-1.33
2022-01-28 8:41:34.6880,0.456,-0.621,-0.701,-1.39,0.91,-1.24,-0.31,-0.39,-1.16
2022-01-28 8:41:34.6990,0.475,-0.632,-0.739,-1.56,1.1,-0.84,-0.43,-0.44,-1.12
2022-01-28 8:41:34.7090,0.488,-0.642,-0.78,-1.72,1.29,-0.54,-0.57,-0.43,-1.11
2022-01-28 8:41:34.7180,0.491,-0.652,-0.815,-1.78,1.46,-0.16,-0.57,-0.43,-1.11
2022-01-28 8:41:34.7280,0.491,-0.655,-0.841,-1.76,1.64,0.08,-0.81,-0.23,-1.1
2022-01-28 8:41:34.7380,0.496,-0.642,-0.878,-1.74,1.71,0.31,-0.91,-0.15,-1.06
2022-01-28 8:41:34.7490,0.519,-0.633,-0.916,-1.8,1.68,0.66,-0.95,-0.03,-0.96
2022-01-28 8:41:34.7590,0.553,-0.633,-0.968,-2.05,1.74,0.98,-0.92,0.06,-0.8
2022-01-28 8:41:34.7690,0.586,-0.624,-1.053,-2.34,1.83,1.6,-0.86,0.02,-0.63
2022-01-28 8:41:34.7790,0.622,-0.617,-1.153,-2.65,1.81,2.45,-0.83,-0.21,-0.51
2022-01-28 8:41:34.7890,0.647,-0.61,-1.251,-2.99,1.84,3.45,-0.79,-0.57,-0.43
2022-01-28 8:41:34.8000,0.658,-0.597,-1.304,-3.22,1.85,4.18,-0.7,-0.93,-0.38
2022-01-28 8:41:34.8100,0.639,-0.564,-1.321,-3.1,1.36,4.46,-0.56,-1.18,-0.28
2022-01-28 8:41:34.8200,0.593,-0.508,-1.294,-3.1,1.36,4.46,-0.56,-1.2550468444824219,-0.1
2022-01-28 8:41:34.8300,0.545,-0.459,-1.245,-2.72,0.81,4.04,-0.19,-1.21,0.17
2022-01-28 8:41:34.8400,0.51,-0.438,-1.191,-2.39,0.46,3.48,0.02,-1.11,0.47
2022-01-28 8:41:34.8500,0.489,-0.421,-1.129,-2.22,0.26,2.91,0.21,-1.03,0.74
2022-01-28 8:41:34.8600,0.476,-0.413,-1.061,-2.17,0.06,2.23,0.39,-1.01,0.95
2022-01-28 8:41:34.8700,0.461,-0.416,-1.016,-2.18,-0.01,1.63,0.39,-1.01,0.95
2022-01-28 8:41:34.8800,0.431,-0.406,-0.984,-2.12,-0.08,1.25,0.7,-1.11,1.17
2022-01-28 8:41:34.8900,0.383,-0.379,-0.953,-1.91,-0.35,0.96,0.82,-1.16,1.21
2022-01-28 8:41:34.9010,0.331,-0.354,-0.921,-1.56,-0.72,0.66,0.87,-1.19,1.24
2022-01-28 8:41:34.9100,0.289,-0.343,-0.892,-1.24,-1.01,0.36,0.82,-1.21,1.27
2022-01-28 8:41:34.9200,0.254,-0.345,-0.876,-1.02,-1.16,0.12,0.71,-1.25,1.28
2022-01-28 8:41:34.9310,0.219,-0.353,-0.874,-0.85,-1.18,0.03,0.56,-1.3,1.26
2022-01-28 8:41:34.9410,0.175,-0.349,-0.888,-0.65,-1.19,0.07,0.41,-1.35,1.2
2022-01-28 8:41:34.9500,0.126,-0.332,-0.907,-0.36,-1.33,0.25,0.29,-1.35,1.09
2022-01-28 8:41:34.9600,0.072,-0.314,-0.921,-0.03,-1.55,0.43,0.21,-1.26,0.95
2022-01-28 8:41:34.9710,0.024,-0.295,-0.924,0.34,-1.75,0.52,0.15,-1.06,0.78
2022-01-28 8:41:34.9800,-0.016,-0.282,-0.909,0.66,-1.95,0.5,0.11,-0.76,0.65
2022-01-28 8:41:34.9910,-0.044,-0.278,-0.881,0.94,-2.05,0.28,0.09,-0.39,0.56
2022-01-28 8:41:35.0010,-0.057,-0.273,-0.845,1.1,-2.09,-0.03,0.09,-0.39,0.56
2022-01-28 8:41:35.0110,-0.06,-0.273,-0.813,1.17,-2.14,-0.37,0.05,0.34,0.48
2022-01-28 8:41:35.0210,-0.059,-0.282,-0.785,1.2,-2.11,-0.67,0.04,0.58,0.47
2022-01-28 8:41:35.0310,-0.052,-0.295,-0.767,1.19,-2.0,-0.9,0.04,0.69,0.46
2022-01-28 8:41:35.0410,-0.043,-0.308,-0.751,1.14,-1.88,-1.06,0.05,0.68,0.43
2022-01-28 8:41:35.0510,-0.037,-0.319,-0.737,1.1,-1.76,-1.2,0.06,0.56,0.38
2022-01-28 8:41:35.0610,-0.035,-0.329,-0.728,1.07,-1.67,-1.32,0.08,0.39,0.33
2022-01-28 8:41:35.0710,-0.041,-0.335,-0.719,1.1,-1.59,-1.39,0.08,0.18,0.27
2022-01-28 8:41:35.0810,-0.046,-0.34,-0.706,1.16,-1.54,-1.49,0.09,-0.02,0.22
2022-01-28 8:41:35.0910,-0.057,-0.338,-0.691,1.2,-1.52,-1.63,0.09,-0.19,0.18
2022-01-28 8:41:35.1010,-0.069,-0.333,-0.674,1.3,-1.58,-1.78,0.1,-0.35,0.17
2022-01-28 8:41:35.1110,-0.084,-0.328,-0.657,1.47,-1.73,-2.12,0.13,-0.54,0.19
2022-01-28 8:41:35.1220,-0.091,-0.313,-0.636,1.47,-1.73,-2.12,0.16,-0.79,0.2
2022-01-28 8:41:35.1310,-0.077,-0.315,-0.622,1.37,-1.86,-2.31,0.16,-1.07,0.16
2022-01-28 8:41:35.1410,-0.053,-0.331,-0.62,1.07,-1.76,-2.41,0.13,-1.35,0.05
2022-01-28 8:41:35.1510,-0.034,-0.334,-0.62,0.48,-1.66,-2.44,0.06,-1.56,-0.11
2022-01-28 8:41:35.1610,-0.036,-0.329,-0.613,0.42,-1.73,-2.47,-0.05,-1.7,-0.26
2022-01-28 8:41:35.1720,-0.051,-0.315,-0.62,0.44,-1.87,-2.39,-0.16,-1.77,-0.38
2022-01-28 8:41:35.1820,-0.058,-0.3,-0.629,0.44,-1.87,-2.39,-0.27,-1.74,-0.48
2022-01-28 8:41:35.1920,-0.054,-0.288,-0.638,0.32,-1.98,-2.1949196255207064,-0.27,-1.74,-0.48
2022-01-28 8:41:35.2020,-0.065,-0.278,-0.657,0.22,-2.06,-2.2,-0.3,-1.42,-0.54
2022-01-28 8:41:35.2110,-0.072,-0.267,-0.658,0.2,-2.2,-2.11,-0.25,-1.11,-0.54
2022-01-28 8:41:35.2220,-0.063,-0.266,-0.657,0.2,-2.2,-2.11,-0.22,-0.77,-0.55
2022-01-28 8:41:35.2320,-0.053,-0.281,-0.672,-0.01,-1.96,-1.92,-0.22,-0.44,-0.57
2022-01-28 8:41:35.2420,-0.057,-0.296,-0.684,-0.01,-1.96,-1.92,-0.22,-0.12,-0.6
2022-01-28 8:41:35.2520,-0.068,-0.314,-0.696,0.23,-1.59,-1.66,-0.19,0.1,-0.64
2022-01-28 8:41:35.2620,-0.074,-0.33,-0.729,0.23,-1.59,-1.66,-0.11,0.2,-0.67
2022-01-28 8:41:35.2720,-0.074,-0.338,-0.753,0.32,-1.47,-1.33,0.04,0.21,-0.69
2022-01-28 8:41:35.2820,-0.062,-0.36,-0.755,0.34,-1.36,-1.18,0.2,0.15,-0.7
2022-01-28 8:41:35.2920,-0.04,-0.392,-0.749,0.04,-0.79,-1.28,0.32,0.05,-0.67
2022-01-28 8:41:35.3030,-0.023,-0.434,-0.726,-0.09,-0.43,-1.57,0.38,-0.03,-0.63
2022-01-28 8:41:35.3120,-0.011,-0.471,-0.686,-0.09,-0.43,-1.57,0.36,-0.04,-0.59
2022-01-28 8:41:35.3220,-0.001,-0.509,-0.656,-0.16,-0.1,-1.94,0.28,-0.03,-0.56
2022-01-28 8:41:35.3410,0.01,-0.547,-0.646,-0.29,0.61,-2.19,0.15,0.0,-0.55
2022-01-28 8:41:35.3430,0.01,-0.576,-0.642,-0.29,0.61,-2.19,0.15,0.0,-0.55
2022-01-28 8:41:35.3530,0.008,-0.597,-0.649,-0.23,0.85,-2.22,-0.15,0.11,-0.63
2022-01-28 8:41:35.3620,0.007,-0.625,-0.682,-0.18,1.09,-2.07,-0.27,0.13,-0.68
2022-01-28 8:41:35.3720,0.0,-0.646,-0.718,0.03,1.52,-1.39,-0.32,0.12,-0.73
2022-01-28 8:41:35.3830,-0.012,-0.638,-0.755,0.03,1.52,-1.39,-0.3,0.08,-0.78
2022-01-28 8:41:35.3920,-0.024,-0.615,-0.795,0.18,1.39,-1.02,-0.19,0.02,-0.82
2022-01-28 8:41:35.4030,-0.04,-0.589,-0.82,0.36,1.19,-0.66,0.02,-0.01,-0.84
2022-01-28 8:41:35.4130,-0.049,-0.543,-0.821,0.63,0.3,-0.48,0.31,-0.01,-0.86
2022-01-28 8:41:35.4230,-0.044,-0.481,-0.829,0.63,0.3,-0.48,0.6,-0.01,-0.88
2022-01-28 8:41:35.4330,-0.023,-0.438,-0.82,0.57,-0.34,-0.39,0.79,0.02,-0.9
2022-01-28 8:41:35.4420,0.004,-0.418,-0.82,0.35,-0.71,-0.49,0.8,0.06,-0.88
2022-01-28 8:41:35.4530,0.013,-0.413,-0.854,0.2,-0.94,-0.31,0.64,0.12,-0.83
2022-01-28 8:41:35.4620,0.019,-0.451,-0.917,0.19,-0.89,0.15,0.4,0.21,-0.77
2022-01-28 8:41:35.4730,0.02,-0.503,-0.997,0.25,-0.03,1.7,0.19,0.3,-0.77
2022-01-28 8:41:35.4830,0.027,-0.515,-1.085,0.25,-0.03,1.7,0.01,0.36,-0.88
2022-01-28 8:41:35.4930,0.039,-0.521,-1.15,0.2,0.19,3.02,-0.17,0.42,-1.03
2022-01-28 8:41:35.5030,0.05,-0.546,-1.19,0.2,0.19,3.02,-0.45,0.42,-1.16
2022-01-28 8:41:35.5130,0.05,-0.544,-1.245,0.21,0.42,3.44,-0.87,0.37,-1.17
2022-01-28 8:41:35.5230,0.038,-0.528,-1.291,0.36,0.41,3.89,-1.44,0.25,-1.08
2022-01-28 8:41:35.5320,0.024,-0.516,-1.376,0.55,0.38,4.39,-2.0,0.07,-0.93
2022-01-28 8:41:35.5430,0.002,-0.521,-1.431,0.76,0.53,5.12,-2.3,-0.03,-0.77
2022-01-28 8:41:35.5530,-0.011,-0.525,-1.451,1.0,0.79,5.36,-2.26,-0.05,-0.6
2022-01-28 8:41:35.5630,-0.0,-0.555,-1.484,1.05,1.09,5.49,-1.83,-0.07,-0.39
2022-01-28 8:41:35.5730,-0.003,-0.587,-1.477,0.95,1.61,5.71,-1.13,-0.05,-0.15
2022-01-28 8:41:35.5830,-0.034,-0.591,-1.389,1.1,1.9,5.27,-0.4,-0.01,0.15
2022-01-28 8:41:35.5930,-0.066,-0.593,-1.276,1.42,1.92,4.26,-0.4,-0.01,0.15
2022-01-28 8:41:35.6040,-0.081,-0.597,-1.148,1.66,1.93,3.1,0.65,-0.17,0.67
2022-01-28 8:41:35.6130,-0.085,-0.593,-1.011,1.71,1.87,1.83,0.93,-0.32,0.77
2022-01-28 8:41:35.6230,-0.086,-0.596,-0.879,1.66,1.76,0.52,1.09,-0.5,0.77
2022-01-28 8:41:35.6330,-0.09,-0.6,-0.765,1.61,1.7,-0.66,1.15,-0.66,0.66
2022-01-28 8:41:35.6430,-0.083,-0.604,-0.66,1.53,1.63,-1.7,1.14,-0.79,0.47
2022-01-28 8:41:35.6530,-0.07,-0.603,-0.577,1.33,1.55,-2.63,1.07,-0.88,0.25
2022-01-28 8:41:35.6630,-0.06,-0.599,-0.509,1.13,1.44,-3.32,0.96,-0.9,0.03
2022-01-28 8:41:35.6730,-0.054,-0.582,-0.444,0.86,0.99,-4.51,0.81,-0.84,-0.2
2022-01-28 8:41:35.6840,-0.047,-0.553,-0.396,0.86,0.99,-4.51,0.64,-0.73,-0.41
2022-01-28 8:41:35.6930,-0.035,-0.523,-0.378,0.72,0.66,-4.84,0.47,-0.6,-0.64
2022-01-28 8:41:35.7030,-0.027,-0.481,-0.367,0.6,0.29,-4.94,0.3,-0.42,-0.87
2022-01-28 8:41:35.7130,-0.015,-0.448,-0.359,0.41,-0.38,-5.05,0.14,-0.26,-1.08
2022-01-28 8:41:35.7240,0.007,-0.438,-0.375,0.22,-0.42,-4.83,-0.03,-0.13,-1.23
2022-01-28 8:41:35.7340,0.036,-0.436,-0.401,0.22,-0.42,-4.83,-0.16,-0.06,-1.32
2022-01-28 8:41:35.7440,0.077,-0.426,-0.439,-0.43,-0.51,-4.16,-0.28,-0.06,-1.37
2022-01-28 8:41:35.7550,0.121,-0.418,-0.483,-0.43,-0.51,-4.16,-0.4,-0.1,-1.35
2022-01-28 8:41:35.7630,0.147,-0.414,-0.53,-0.75,-0.51,-3.76,-0.49,-0.17,-1.27
2022-01-28 8:41:35.7740,0.159,-0.398,-0.588,-0.91,-0.54,-3.27,-0.56,-0.25,-1.15
2022-01-28 8:41:35.7840,0.16,-0.379,-0.665,-0.93,-0.79,-1.86,-0.61,-0.39,-0.98
2022-01-28 8:41:35.7940,0.152,-0.361,-0.762,-0.82,-0.87,-0.94,-0.62,-0.54,-0.8
2022-01-28 8:41:35.8040,0.127,-0.351,-0.867,-0.82,-0.87,-0.94,-0.57,-0.69,-0.63
2022-01-28 8:41:35.8130,0.09,-0.342,-0.967,-0.25,-0.94,0.98,-0.43,-0.73,-0.49
2022-01-28 8:41:35.8240,0.068,-0.338,-1.048,-0.25,-0.94,0.98,-0.43,-0.73,-0.49
2022-01-28 8:41:35.8340,0.067,-0.333,-1.117,-0.15,-0.97,1.73,0.13,-0.57,-0.41
2022-01-28 8:41:35.8440,0.072,-0.334,-1.165,-0.22,-1.02,2.32,0.37,-0.46,-0.41
2022-01-28 8:41:35.8540,0.072,-0.338,-1.207,-0.29,-1.02,2.78,0.49,-0.34,-0.37
2022-01-28 8:41:35.8640,0.061,-0.353,-1.23,-0.24,-1.0,3.16,0.51,-0.17,-0.31
2022-01-28 8:41:35.8740,0.059,-0.383,-1.233,-0.14,-0.84,3.33,0.51,0.06,-0.24
2022-01-28 8:41:35.8840,0.075,-0.417,-1.231,-0.18,-0.55,3.33,0.48,0.24,-0.19
2022-01-28 8:41:35.8940,0.098,-0.445,-1.243,-0.35,-0.28,3.38,0.42,0.3,-0.2
2022-01-28 8:41:35.9040,0.107,-0.465,-1.25,-0.5,-0.06,3.54,0.32,0.24,-0.25
2022-01-28 8:41:35.9140,0.109,-0.476,-1.238,-0.52,0.08,3.54,0.17,0.09,-0.36
2022-01-28 8:41:35.9240,0.113,-0.483,-1.224,-0.52,0.17,3.41,-0.01,-0.11,-0.51
2022-01-28 8:41:35.9340,0.121,-0.479,-1.209,-0.64,0.17,3.1,-0.22,-0.32,-0.71
2022-01-28 8:41:35.9440,0.13,-0.471,-1.188,-0.64,0.17,3.1,-0.46,-0.49,-0.9
2022-01-28 8:41:35.9540,0.14,-0.46,-1.162,-0.74,0.14,2.82,-0.72,-0.57,-1.06
2022-01-28 8:41:35.9640,0.146,-0.441,-1.134,-0.82,0.08,2.53,-0.97,-0.56,-1.17
2022-01-28 8:41:35.9740,0.151,-0.413,-1.116,-0.88,-0.03,2.21,-1.17,-0.47,-1.2
2022-01-28 8:41:35.9850,0.154,-0.379,-1.106,-0.91,-0.23,2.04,-1.28,-0.3,-1.19
2022-01-28 8:41:35.9940,0.16,-0.365,-1.095,-0.92,-0.4,1.88,-1.28,-0.13,-1.11
2022-01-28 8:41:36.0040,0.164,-0.358,-1.087,-0.94,-0.35,1.73,-1.28,-0.13,-1.11
2022-01-28 8:41:36.0140,0.161,-0.351,-1.069,-0.91,-0.32,1.6,-1.0,0.14,-0.85
2022-01-28 8:41:36.0240,0.158,-0.353,-1.031,-0.84,-0.27,1.3,-0.77,0.18,-0.7
2022-01-28 8:41:36.0350,0.162,-0.366,-0.987,-0.79,-0.14,0.88,-0.54,0.15,-0.54
2022-01-28 8:41:36.0450,0.161,-0.382,-0.933,-0.79,0.07,0.39,-0.3,0.06,-0.35
2022-01-28 8:41:36.0550,0.153,-0.39,-0.867,-0.65,0.29,-0.85,-0.06,-0.06,-0.15
2022-01-28 8:41:36.0650,0.141,-0.398,-0.798,-0.65,0.29,-0.85,0.17,-0.18,0.04
2022-01-28 8:41:36.0750,0.125,-0.403,-0.73,-0.55,0.35,-1.54,0.4,-0.29,0.22
2022-01-28 8:41:36.0850,0.104,-0.399,-0.67,-0.41,0.33,-2.16,0.63,-0.41,0.36
2022-01-28 8:41:36.0950,0.083,-0.386,-0.617,-0.11,-0.02,-3.15,0.84,-0.53,0.46
2022-01-28 8:41:36.1050,0.06,-0.374,-0.574,-0.11,-0.02,-3.15,1.02,-0.62,0.5
2022-01-28 8:41:36.1150,0.034,-0.359,-0.525,0.06,-0.24,-3.55,1.17,-0.66,0.49
2022-01-28 8:41:36.1250,0.012,-0.344,-0.48,0.22,-0.51,-3.99,1.28,-0.66,0.45
2022-01-28 8:41:36.1350,-0.006,-0.336,-0.447,0.41,-0.95,-4.59,1.35,-0.62,0.39
2022-01-28 8:41:36.1450,-0.013,-0.329,-0.421,0.41,-0.95,-4.59,1.36,-0.57,0.32
2022-01-28 8:41:36.1550,-0.016,-0.332,-0.412,0.41,-1.11,-4.73,1.33,-0.5,0.26
2022-01-28 8:41:36.1650,-0.018,-0.343,-0.416,0.37,-1.15,-4.71,1.33,-0.5,0.26
2022-01-28 8:41:36.1750,-0.024,-0.36,-0.438,0.36,-1.13,-4.57,1.16,-0.36,0.18
2022-01-28 8:41:36.1850,-0.031,-0.371,-0.491,0.38,-1.07,-4.18,1.04,-0.43,0.07
2022-01-28 8:41:36.1950,-0.032,-0.387,-0.55,0.4,-1.05,-3.57,0.89,-0.62,-0.13
2022-01-28 8:41:36.2050,-0.026,-0.399,-0.62,0.32,-0.95,-2.91,0.72,-0.89,-0.4
2022-01-28 8:41:36.2150,-0.017,-0.396,-0.685,0.19,-0.94,-2.19,0.53,-1.13,-0.68
2022-01-28 8:41:36.2250,-0.017,-0.378,-0.745,0.06,-1.07,-1.56,0.35,-1.26,-0.92
2022-01-28 8:41:36.2350,-0.021,-0.336,-0.792,0.04,-1.35,-0.97,0.22,-1.23,-1.13
2022-01-28 8:41:36.2450,-0.018,-0.283,-0.831,-0.05,-2.37,-0.15,0.17,-1.04,-1.27
2022-01-28 8:41:36.2550,-0.011,-0.243,-0.868,-0.05,-2.37,-0.15,0.2,-0.66,-1.34
2022-01-28 8:41:36.2650,0.026,-0.242,-0.868,-0.59,-2.56,0.05,0.3,-0.1,-1.35
2022-01-28 8:41:36.2760,0.092,-0.268,-0.874,-0.59,-2.56,0.05,0.3,-0.1,-1.35
2022-01-28 8:41:36.2850,0.168,-0.326,-0.907,-1.19,-2.24,0.27,0.42,0.89,-1.26
2022-01-28 8:41:36.2950,0.236,-0.397,-0.934,-1.77,-1.6,0.61,0.32,1.24,-1.19
2022-01-28 8:41:36.3050,0.293,-0.46,-0.933,-2.23,-0.97,0.8,0.16,1.52,-1.16
2022-01-28 8:41:36.3150,0.338,-0.524,-0.938,-2.56,-0.34,0.76,-0.03,1.61,-1.16
2022-01-28 8:41:36.3250,0.364,-0.556,-0.976,-2.74,0.23,0.96,-0.24,1.49,-1.2
2022-01-28 8:41:36.3360,0.371,-0.566,-1.011,-2.75,0.44,1.34,-0.45,1.15,-1.21
2022-01-28 8:41:36.3450,0.371,-0.595,-1.055,-2.63,0.64,1.67,-0.67,0.64,-1.15
2022-01-28 8:41:36.3560,0.375,-0.647,-1.086,-2.53,1.76,2.18,-0.83,0.18,-1.0
2022-01-28 8:41:36.3660,0.377,-0.711,-1.079,-2.53,1.76,2.18,-0.88,-0.15,-0.8
2022-01-28 8:41:36.3760,0.363,-0.738,-1.089,-2.47,2.38,2.07,-0.89,-0.41,-0.62
2022-01-28 8:41:36.3860,0.336,-0.739,-1.128,-2.3,2.58,2.26,-0.99,-0.63,-0.46
2022-01-28 8:41:36.3960,0.312,-0.762,-1.158,-2.06,2.73,2.57,-1.21,-0.78,-0.31
2022-01-28 8:41:36.4060,0.297,-0.79,-1.185,-1.92,3.16,2.79,-1.48,-0.82,-0.19
2022-01-28 8:41:36.4160,0.274,-0.769,-1.223,-1.84,3.41,2.97,-1.75,-0.76,-0.11
2022-01-28 8:41:36.4260,0.223,-0.733,-1.263,-1.58,3.25,3.35,-1.75,-0.76,-0.11
2022-01-28 8:41:36.4360,0.151,-0.693,-1.28,-1.03,3.08,3.54,-1.93,-0.22,0.08
2022-01-28 8:41:36.4450,0.077,-0.655,-1.281,-0.31,2.83,3.59,-1.72,0.16,0.26
2022-01-28 8:41:36.4560,0.011,-0.623,-1.247,0.42,2.65,3.42,-1.31,0.53,0.48
2022-01-28 8:41:36.4660,-0.035,-0.586,-1.19,1.03,2.41,2.94,-0.79,0.78,0.72
2022-01-28 8:41:36.4760,-0.061,-0.557,-1.118,1.45,2.12,2.32,-0.23,0.89,0.96
2022-01-28 8:41:36.4860,-0.069,-0.536,-1.024,1.69,1.87,1.54,-0.23,0.89,0.96
2022-01-28 8:41:36.4960,-0.059,-0.521,-0.917,1.73,1.64,0.57,0.32,0.87,1.16
2022-01-28 8:41:36.5060,-0.049,-0.511,-0.823,1.61,1.42,-0.41,1.09,0.41,1.34
2022-01-28 8:41:36.5160,-0.039,-0.504,-0.723,1.51,1.22,-1.28,1.28,0.07,1.32
2022-01-28 8:41:36.5270,-0.027,-0.495,-0.625,1.35,1.02,-2.24,1.34,-0.26,1.22
2022-01-28 8:41:36.5360,-0.019,-0.479,-0.544,1.16,0.78,-3.09,1.3,-0.54,1.07
2022-01-28 8:41:36.5460,-0.011,-0.462,-0.472,0.99,0.48,-3.8,1.17,-0.71,0.89
2022-01-28 8:41:36.5560,0.0,-0.451,-0.417,0.8,0.23,-4.42,0.96,-0.75,0.72
2022-01-28 8:41:36.5660,0.015,-0.447,-0.391,0.59,0.07,-4.83,0.72,-0.66,0.55
2022-01-28 8:41:36.5760,0.039,-0.441,-0.39,0.02,-0.14,-4.85,0.5,-0.5,0.39
2022-01-28 8:41:36.5870,0.064,-0.428,-0.42,-0.23,-0.33,-4.44,0.32,-0.34,0.25
2022-01-28 8:41:36.5970,0.081,-0.406,-0.473,-0.39,-0.57,-3.87,0.16,-0.21,0.14
2022-01-28 8:41:36.6070,0.093,-0.381,-0.537,-0.5,-0.84,-3.2,0.02,-0.11,0.08
2022-01-28 8:41:36.6170,0.091,-0.347,-0.615,-0.5,-0.84,-3.2,-0.12,-0.02,0.09
2022-01-28 8:41:36.6270,0.079,-0.303,-0.698,-0.42,-1.2,-2.39,-0.25,0.09,0.14
2022-01-28 8:41:36.6370,0.083,-0.263,-0.793,-0.29,-1.63,-1.54,-0.33,0.31,0.22
2022-01-28 8:41:36.6470,0.142,-0.294,-0.837,-0.56,-1.79,-0.83,-0.36,0.56,0.31
2022-01-28 8:41:36.6570,0.184,-0.317,-0.928,-1.07,-1.32,-0.25,-0.3,0.78,0.38
2022-01-28 8:41:36.6670,0.212,-0.277,-0.978,-1.38,-1.34,0.57,-0.1,1.01,0.43
2022-01-28 8:41:36.6770,0.212,-0.236,-1.013,-1.34,-2.1,1.33,0.13,1.21,0.52
2022-01-28 8:41:36.6870,0.207,-0.228,-1.062,-1.34,-2.1,1.33,0.3,1.33,0.62
2022-01-28 8:41:36.6970,0.206,-0.239,-1.126,-1.23,-2.12,1.88,0.31,1.33,0.69
2022-01-28 8:41:36.7070,0.197,-0.266,-1.21,-1.11,-2.01,2.64,0.2,1.26,0.72
2022-01-28 8:41:36.7160,0.206,-0.327,-1.245,-1.12,-0.99,3.65,0.02,1.17,0.67
2022-01-28 8:41:36.7270,0.249,-0.38,-1.289,-1.51,-0.59,4.08,-0.17,1.0,0.53
2022-01-28 8:41:36.7370,0.278,-0.411,-1.322,-1.51,-0.59,4.08,-0.3,0.7,0.42
2022-01-28 8:41:36.7470,0.271,-0.425,-1.356,-1.59,-0.28,4.41,-0.3,0.7,0.42
2022-01-28 8:41:36.7580,0.254,-0.411,-1.342,-1.47,-0.23,4.59,-0.39,0.12,0.28
2022-01-28 8:41:36.7680,0.23,-0.387,-1.297,-1.28,-0.4,4.29,-0.36,0.03,0.25
2022-01-28 8:41:36.7770,0.205,-0.38,-1.236,-1.03,-0.57,3.77,-0.35,0.07,0.24
2022-01-28 8:41:36.7870,0.185,-0.401,-1.186,-0.81,-0.5,3.14,-0.41,0.14,0.24
2022-01-28 8:41:36.7970,0.168,-0.439,-1.164,-0.43,0.28,2.56,-0.41,0.14,0.24
2022-01-28 8:41:36.8070,0.14,-0.474,-1.151,-0.1,0.56,2.44,-0.74,0.09,0.15
2022-01-28 8:41:36.8180,0.098,-0.47,-1.142,-0.1,0.56,2.44,-0.94,0.0,-0.02
2022-01-28 8:41:36.8270,0.055,-0.444,-1.115,0.34,0.5,2.24,-1.09,-0.07,-0.25
2022-01-28 8:41:36.8370,0.023,-0.424,-1.082,0.73,0.35,1.9,-1.09,-0.07,-0.25
2022-01-28 8:41:36.8470,0.005,-0.419,-1.039,1.01,0.32,1.5,-1.25,-0.09,-0.69
2022-01-28 8:41:36.8570,0.004,-0.421,-0.982,1.13,0.59,0.36,-1.26,-0.02,-0.84
2022-01-28 8:41:36.8680,0.015,-0.43,-0.925,1.13,0.59,0.36,-1.21,0.09,-0.93
2022-01-28 8:41:36.8770,0.029,-0.44,-0.865,1.05,0.82,-0.25,-1.11,0.24,-0.92
2022-01-28 8:41:36.8870,0.041,-0.442,-0.807,0.97,1.0,-0.88,-0.94,0.38,-0.84
2022-01-28 8:41:36.8970,0.051,-0.434,-0.758,0.92,1.09,-1.44,-0.94,0.38,-0.84
2022-01-28 8:41:36.9070,0.061,-0.423,-0.713,0.89,1.06,-1.92,-0.53,0.54,-0.57
2022-01-28 8:41:36.9170,0.068,-0.413,-0.676,0.88,1.01,-2.34,-0.32,0.52,-0.42
2022-01-28 8:41:36.9270,0.075,-0.397,-0.649,0.86,0.93,-2.66,-0.15,0.41,-0.31
2022-01-28 8:41:36.9370,0.083,-0.381,-0.625,0.83,0.77,-2.9,0.01,0.28,-0.21
2022-01-28 8:41:36.9470,0.093,-0.369,-0.597,0.78,0.65,-3.16,0.13,0.17,-0.11
2022-01-28 8:41:36.9580,0.101,-0.341,-0.575,0.7,0.48,-3.41,0.13,0.17,-0.11
2022-01-28 8:41:36.9680,0.111,-0.307,-0.555,0.64,0.12,-3.6,0.32,0.16,0.15
2022-01-28 8:41:36.9780,0.132,-0.298,-0.547,0.51,-0.18,-3.76,0.44,0.18,0.32
2022-01-28 8:41:36.9880,0.16,-0.295,-0.563,0.27,-0.25,-3.73,0.6,0.16,0.47
2022-01-28 8:41:36.9980,0.179,-0.289,-0.576,0.01,-0.37,-3.53,0.81,0.09,0.61
2022-01-28 8:41:37.0080,0.173,-0.266,-0.595,-0.09,-0.56,-3.39,1.04,-0.08,0.71
2022-01-28 8:41:37.0180,0.183,-0.245,-0.626,-0.09,-0.91,-3.09,1.24,-0.28,0.73
2022-01-28 8:41:37.0280,0.194,-0.234,-0.646,-0.3,-1.22,-2.81,1.34,-0.53,0.72
2022-01-28 8:41:37.0380,0.198,-0.239,-0.694,-0.42,-1.39,-2.49,1.32,-0.82,0.69
2022-01-28 8:41:37.0480,0.216,-0.25,-0.737,-0.62,-1.44,-1.95,1.21,-1.06,0.6
2022-01-28 8:41:37.0580,0.233,-0.27,-0.774,-0.94,-1.41,-1.55,1.21,-1.06,0.6
2022-01-28 8:41:37.0680,0.247,-0.293,-0.807,-1.21,-1.29,-1.16,0.91,-1.14,0.37
2022-01-28 8:41:37.0780,0.249,-0.308,-0.825,-1.43,-1.16,-0.85,0.88,-0.88,0.28
2022-01-28 8:41:37.0880,0.237,-0.306,-0.84,-1.48,-1.14,-0.71,0.93,-0.54,0.2
2022-01-28 8:41:37.0980,0.219,-0.283,-0.883,-1.36,-1.33,-0.42,0.93,-0.54,0.2
2022-01-28 8:41:37.1090,0.213,-0.281,-0.923,-1.24,-1.64,0.07,0.97,0.18,0.01
2022-01-28 8:41:37.1190,0.211,-0.335,-0.943,-1.17,-1.53,0.44,0.91,0.56,-0.13
2022-01-28 8:41:37.1290,0.219,-0.397,-0.954,-1.12,-0.98,0.62,0.91,0.56,-0.13
2022-01-28 8:41:37.1380,0.236,-0.438,-0.96,-1.13,-0.5,0.77,0.65,1.21,-0.61
2022-01-28 8:41:37.1480,0.254,-0.467,-0.964,-1.17,0.0,0.94,0.43,1.39,-0.9
2022-01-28 8:41:37.1590,0.266,-0.471,-0.976,-1.17,0.0,0.94,0.1,1.43,-1.15
2022-01-28 8:41:37.1690,0.271,-0.464,-0.988,-1.08,-0.04,1.1,-0.35,1.35,-1.34
2022-01-28 8:41:37.1790,0.275,-0.493,-1.012,-0.95,0.07,1.22,-0.86,1.18,-1.43
2022-01-28 8:41:37.1890,0.293,-0.533,-1.043,-0.91,1.02,1.71,-1.35,1.0,-1.52
2022-01-28 8:41:37.1990,0.307,-0.537,-1.068,-0.91,1.02,1.71,-1.72,0.82,-1.61
2022-01-28 8:41:37.2090,0.303,-0.51,-1.101,-0.84,1.1,1.94,-1.96,0.67,-1.66
2022-01-28 8:41:37.2180,0.295,-0.484,-1.138,-0.48,1.03,2.5,-2.07,0.52,-1.63
2022-01-28 8:41:37.2280,0.293,-0.469,-1.167,-0.48,1.03,2.5,-2.07,0.43,-1.49
2022-01-28 8:41:37.2380,0.293,-0.466,-1.185,-0.4,1.15,2.66,-2.0,0.4,-1.24
2022-01-28 8:41:37.2480,0.283,-0.471,-1.198,-0.3,1.35,2.77,-1.85,0.41,-0.89
2022-01-28 8:41:37.2580,0.26,-0.475,-1.209,0.24,1.73,2.92,-1.6,0.41,-0.49
2022-01-28 8:41:37.2690,0.227,-0.461,-1.224,0.24,1.73,2.92,-1.29,0.34,-0.08
2022-01-28 8:41:37.2790,0.19,-0.445,-1.238,0.61,1.67,3.05,-0.92,0.22,0.3
2022-01-28 8:41:37.2890,0.154,-0.435,-1.243,0.97,1.6,3.14,-0.52,0.04,0.61
2022-01-28 8:41:37.2990,0.124,-0.431,-1.228,1.53,1.5,2.88,-0.1,-0.15,0.83
2022-01-28 8:41:37.3090,0.096,-0.429,-1.187,1.53,1.5,2.88,0.32,-0.3,0.98
2022-01-28 8:41:37.3180,0.075,-0.418,-1.117,1.73,1.38,2.36,0.72,-0.4,1.08
2022-01-28 8:41:37.3290,0.067,-0.415,-1.039,1.82,1.19,1.63,1.05,-0.45,1.17
2022-01-28 8:41:37.3390,0.066,-0.414,-0.968,1.79,1.05,0.91,1.31,-0.48,1.26
2022-01-28 8:41:37.3480,0.068,-0.403,-0.895,1.71,0.87,0.25,1.31,-0.48,1.26
2022-01-28 8:41:37.3590,0.077,-0.385,-0.819,1.38,0.23,-1.14,1.62,-0.48,1.28
2022-01-28 8:41:37.3690,0.094,-0.378,-0.74,1.11,0.05,-1.93,1.67,-0.38,1.18
2022-01-28 8:41:37.3800,0.112,-0.391,-0.65,1.11,0.05,-1.93,1.65,-0.2,1.09
2022-01-28 8:41:37.3870,0.108,-0.407,-0.593,0.96,0.09,-2.68,1.61,-0.04,0.99
2022-01-28 8:41:37.3970,0.099,-0.388,-0.539,1.02,-0.03,-3.06,1.55,0.19,0.83
2022-01-28 8:41:37.4070,0.121,-0.365,-0.471,0.92,-0.55,-3.65,1.43,0.42,0.69
2022-01-28 8:41:37.4170,0.115,-0.399,-0.459,0.95,-0.49,-4.08,1.26,0.62,0.56
2022-01-28 8:41:37.4270,0.146,-0.409,-0.438,0.7,-0.53,-4.08,1.05,0.73,0.4
2022-01-28 8:41:37.4380,0.191,-0.403,-0.451,0.69,-0.44,-4.15,0.83,0.79,0.31
2022-01-28 8:41:37.4480,0.195,-0.456,-0.476,0.09,-0.45,-4.01,0.58,0.61,0.19
2022-01-28 8:41:37.4580,0.276,-0.445,-0.545,0.09,-0.2,-3.37,0.33,0.39,0.15
2022-01-28 8:41:37.4680,0.255,-0.474,-0.599,-0.45,-0.05,-2.93,0.09,0.1,0.08
2022-01-28 8:41:37.4780,0.326,-0.454,-0.653,-0.63,-0.15,-2.19,-0.09,-0.14,0.11
2022-01-28 8:41:37.4880,0.318,-0.43,-0.717,-0.84,-0.17,-1.8,-0.18,-0.28,0.2
2022-01-28 8:41:37.4980,0.337,-0.407,-0.762,-1.17,-0.52,-1.12,-0.18,-0.26,0.38
2022-01-28 8:41:37.5080,0.326,-0.371,-0.816,-1.1,-0.71,-0.83,-0.11,-0.26,0.56
2022-01-28 8:41:37.5180,0.335,-0.334,-0.912,-1.16,-1.15,-0.03,0.04,-0.29,0.68
2022-01-28 8:41:37.5280,0.354,-0.333,-0.998,-1.35,-1.39,0.82,0.21,-0.39,0.72
2022-01-28 8:41:37.5380,0.366,-0.352,-1.087,-1.6,-1.35,1.74,0.35,-0.46,0.71
2022-01-28 8:41:37.5480,0.371,-0.39,-1.13,-1.75,-1.14,2.46,0.4,-0.45,0.66
2022-01-28 8:41:37.5580,0.366,-0.432,-1.163,-1.85,-0.74,2.79,0.33,-0.4,0.57
2022-01-28 8:41:37.5680,0.345,-0.447,-1.186,-1.78,-0.48,3.15,0.18,-0.27,0.47
2022-01-28 8:41:37.5780,0.326,-0.463,-1.187,-1.61,-0.37,3.23,-0.01,-0.12,0.35
2022-01-28 8:41:37.5880,0.316,-0.487,-1.209,-1.47,-0.18,3.32,-0.19,-0.02,0.23
2022-01-28 8:41:37.5980,0.316,-0.51,-1.231,-1.42,0.08,3.54,-0.31,0.05,0.1
2022-01-28 8:41:37.6080,0.317,-0.533,-1.256,-1.44,0.32,3.73,-0.4,0.05,-0.03
2022-01-28 8:41:37.6180,0.309,-0.555,-1.291,-1.42,0.59,4.0,-0.48,-0.02,-0.15
2022-01-28 8:41:37.6280,0.291,-0.572,-1.322,-1.3,0.84,4.31,-0.57,-0.14,-0.25
2022-01-28 8:41:37.6380,0.268,-0.585,-1.34,-1.1,1.05,4.56,-0.64,-0.26,-0.32
2022-01-28 8:41:37.6480,0.236,-0.585,-1.325,-0.85,1.2,4.6,-0.63,-0.3,-0.37
2022-01-28 8:41:37.6580,0.198,-0.568,-1.279,-0.53,1.19,4.29,-0.54,-0.26,-0.39
2022-01-28 8:41:37.6680,0.158,-0.546,-1.213,-0.14,1.05,3.72,-0.38,-0.14,-0.4
2022-01-28 8:41:37.6780,0.127,-0.532,-1.136,0.24,0.87,3.01,-0.18,0.02,-0.39
2022-01-28 8:41:37.6880,0.106,-0.528,-1.05,0.52,0.81,2.22,0.02,0.16,-0.37
2022-01-28 8:41:37.6990,0.094,-0.524,-0.961,0.73,0.78,1.36,0.2,0.27,-0.34
2022-01-28 8:41:37.7080,0.09,-0.52,-0.874,0.85,0.72,0.51,0.35,0.34,-0.3
2022-01-28 8:41:37.7180,0.091,-0.513,-0.792,0.91,0.65,-0.3,0.45,0.36,-0.27
2022-01-28 8:41:37.7280,0.097,-0.51,-0.71,0.93,0.55,-1.08,0.53,0.36,-0.23
2022-01-28 8:41:37.7380,0.105,-0.508,-0.647,0.9,0.5,-1.8,0.58,0.31,-0.19
2022-01-28 8:41:37.7480,0.11,-0.497,-0.592,0.86,0.41,-2.34,0.61,0.24,-0.13
2022-01-28 8:41:37.7580,0.111,-0.48,-0.549,0.85,0.23,-2.83,0.63,0.13,-0.06
2022-01-28 8:41:37.7680,0.113,-0.463,-0.522,0.85,-0.01,-3.14,0.65,0.02,0.03
2022-01-28 8:41:37.7780,0.114,-0.45,-0.498,0.83,-0.2,-3.38,0.68,-0.12,0.13
2022-01-28 8:41:37.7880,0.116,-0.43,-0.49,0.79,-0.41,-3.53,0.73,-0.3,0.22
2022-01-28 8:41:37.7980,0.114,-0.401,-0.498,0.75,-0.71,-3.52,0.8,-0.53,0.3
2022-01-28 8:41:37.8090,0.106,-0.382,-0.5,0.72,-1.07,-3.38,0.91,-0.76,0.36
2022-01-28 8:41:37.8190,0.093,-0.378,-0.492,0.74,-1.25,-3.43,1.03,-1.07,0.38
2022-01-28 8:41:37.8290,0.09,-0.37,-0.517,0.72,-1.41,-3.34,1.19,-1.42,0.34
2022-01-28 8:41:37.8390,0.097,-0.363,-0.52,0.57,-1.57,-3.08,1.35,-1.75,0.23
2022-01-28 8:41:37.8490,0.117,-0.342,-0.501,0.3,-1.81,-3.12,1.44,-1.99,0.08
2022-01-28 8:41:37.8590,0.143,-0.337,-0.482,-0.1,-2.11,-3.26,1.4,-2.11,-0.07
2022-01-28 8:41:37.8690,0.169,-0.351,-0.45,-0.52,-2.18,-3.43,1.21,-2.06,-0.2
2022-01-28 8:41:37.8790,0.194,-0.362,-0.429,-0.91,-2.12,-3.71,0.9,-1.89,-0.35
2022-01-28 8:41:37.8890,0.226,-0.372,-0.431,-1.31,-2.09,-3.79,0.5,-1.6,-0.5
2022-01-28 8:41:37.8990,0.259,-0.388,-0.452,-1.73,-1.99,-3.7,0.08,-1.24,-0.65
2022-01-28 8:41:37.9090,0.28,-0.394,-0.497,-2.07,-1.84,-3.39,-0.3,-0.8,-0.77
2022-01-28 8:41:37.9190,0.288,-0.388,-0.539,-2.25,-1.82,-2.97,-0.62,-0.33,-0.82
2022-01-28 8:41:37.9290,0.282,-0.386,-0.645,-2.22,-1.79,-2.49,-0.85,-0.03,-0.8
2022-01-28 8:41:37.9390,0.277,-0.39,-0.758,-2.12,-1.73,-1.28,-0.89,0.2,-0.75
2022-01-28 8:41:37.9490,0.277,-0.399,-0.829,-2.03,-1.58,-0.44,-0.74,0.37,-0.67
2022-01-28 8:41:37.9590,0.279,-0.41,-0.895,-1.97,-1.42,0.22,-0.45,0.47,-0.61
2022-01-28 8:41:37.9620,0.281,-0.419,-0.94,-1.93,-1.16,1.11,-0.11,0.57,-0.55
2022-01-28 8:41:37.9780,0.281,-0.444,-0.958,-1.93,-1.16,1.11,0.15,0.63,-0.49
2022-01-28 8:41:37.9870,0.284,-0.483,-0.964,-1.85,-0.86,1.27,0.29,0.7,-0.42
2022-01-28 8:41:37.9970,0.291,-0.55,-0.937,-1.81,0.26,0.92,0.32,0.78,-0.36
2022-01-28 8:41:38.0080,0.294,-0.603,-0.906,-1.81,0.26,0.92,0.22,0.82,-0.35
2022-01-28 8:41:38.0170,0.291,-0.64,-0.895,-1.74,0.67,0.69,-0.0,0.74,-0.4
2022-01-28 8:41:38.0270,0.275,-0.674,-0.921,-1.58,1.02,0.73,-0.34,0.53,-0.49
2022-01-28 8:41:38.0370,0.246,-0.706,-0.968,-1.3,1.35,1.07,-0.78,0.26,-0.62
2022-01-28 8:41:38.0470,0.212,-0.745,-1.027,-0.91,1.73,1.59,-1.21,0.03,-0.75
2022-01-28 8:41:38.0580,0.18,-0.772,-1.078,-0.54,2.2,2.1,-1.53,-0.11,-0.89
2022-01-28 8:41:38.0670,0.148,-0.755,-1.115,-0.17,2.43,2.48,-1.7,-0.15,-1.04
2022-01-28 8:41:38.0780,0.14,-0.718,-1.154,0.11,2.28,2.75,-1.7,-0.15,-1.04
2022-01-28 8:41:38.0880,0.15,-0.708,-1.192,0.14,2.14,3.06,-1.77,0.01,-1.2
2022-01-28 8:41:38.0980,0.16,-0.713,-1.232,0.08,2.33,3.34,-1.81,0.15,-1.15
2022-01-28 8:41:38.1080,0.163,-0.699,-1.275,0.06,2.47,3.68,-1.87,0.28,-1.04
2022-01-28 8:41:38.1180,0.151,-0.695,-1.302,0.39,2.71,4.11,-1.9,0.43,-0.84
2022-01-28 8:41:38.1280,0.12,-0.698,-1.319,0.39,2.71,4.11,-1.85,0.56,-0.58
2022-01-28 8:41:38.1380,0.074,-0.689,-1.325,0.83,2.9,4.18,-1.65,0.65,-0.28
2022-01-28 8:41:38.1480,0.023,-0.666,-1.323,1.39,2.92,4.14,-1.3,0.65,0.02
2022-01-28 8:41:38.1580,-0.027,-0.632,-1.295,2.46,2.54,3.58,-0.81,0.59,0.28
2022-01-28 8:41:38.1680,-0.064,-0.592,-1.234,2.8,2.21,2.87,-0.21,0.46,0.51
2022-01-28 8:41:38.1780,-0.083,-0.559,-1.152,2.95,1.92,2.03,0.41,0.26,0.72
2022-01-28 8:41:38.1880,-0.09,-0.534,-1.06,2.95,1.92,2.03,1.01,0.03,0.89
2022-01-28 8:41:38.1980,-0.085,-0.495,-0.95,2.97,1.59,1.11,1.52,-0.2,0.99
2022-01-28 8:41:38.2080,-0.069,-0.452,-0.821,2.84,1.02,-0.02,1.89,-0.38,1.03
2022-01-28 8:41:38.2180,-0.049,-0.434,-0.694,2.6,0.53,-1.25,2.11,-0.53,1.04
2022-01-28 8:41:38.2280,-0.025,-0.426,-0.581,1.98,-0.09,-3.37,2.19,-0.64,1.01
2022-01-28 8:41:38.2380,0.006,-0.403,-0.474,1.98,-0.09,-3.37,2.14,-0.66,0.93
2022-01-28 8:41:38.2480,0.024,-0.38,-0.386,1.4,-0.87,-4.93,2.03,-0.66,0.86
2022-01-28 8:41:38.2580,0.029,-0.388,-0.336,1.15,-0.98,-5.31,1.87,-0.65,0.76
2022-01-28 8:41:38.2690,0.062,-0.386,-0.282,0.69,-1.18,-5.77,1.65,-0.59,0.59
2022-01-28 8:41:38.2780,0.102,-0.388,-0.239,0.22,-1.25,-6.03,1.37,-0.51,0.38
2022-01-28 8:41:38.2880,0.138,-0.4,-0.223,0.22,-1.25,-6.03,1.05,-0.44,0.18
2022-01-28 8:41:38.2980,0.16,-0.403,-0.235,-0.13,-1.26,-6.01,0.7,-0.4,0.01
2022-01-28 8:41:38.3090,0.183,-0.392,-0.268,-0.38,-1.35,-5.77,0.31,-0.35,-0.11
2022-01-28 8:41:38.3190,0.205,-0.371,-0.325,-0.87,-1.74,-4.67,-0.07,-0.33,-0.15
2022-01-28 8:41:38.3280,0.221,-0.362,-0.407,-0.87,-1.74,-4.67,-0.4,-0.33,-0.1
2022-01-28 8:41:38.3390,0.226,-0.344,-0.511,-1.03,-2.04,-2.77,-0.63,-0.34,0.01
2022-01-28 8:41:38.3480,0.217,-0.306,-0.61,-1.03,-2.04,-2.77,-0.69,-0.28,0.17
2022-01-28 8:41:38.3590,0.202,-0.266,-0.692,-0.82,-2.71,-1.15,-0.56,-0.12,0.36
2022-01-28 8:41:38.3690,0.187,-0.232,-0.774,-0.82,-2.71,-1.15,-0.26,0.14,0.54
2022-01-28 8:41:38.3790,0.175,-0.202,-0.832,-0.7,-2.98,-0.45,0.11,0.49,0.68
2022-01-28 8:41:38.3890,0.173,-0.182,-0.876,-0.62,-3.27,0.04,0.37,0.81,0.78
2022-01-28 8:41:38.3990,0.174,-0.207,-0.943,-0.62,-3.34,0.49,0.38,0.93,0.88
2022-01-28 8:41:38.4090,0.162,-0.279,-1.06,-0.56,-2.95,1.39,0.1,0.78,0.95
2022-01-28 8:41:38.4190,0.158,-0.38,-1.187,-0.38,-1.17,3.88,-0.33,0.4,0.92
2022-01-28 8:41:38.4290,0.138,-0.468,-1.306,-0.38,-1.17,3.88,-0.7,-0.13,0.76
2022-01-28 8:41:38.4390,0.101,-0.503,-1.399,-0.08,-0.41,4.95,-0.7,-0.13,0.76
2022-01-28 8:41:38.4490,0.077,-0.465,-1.453,0.32,-0.77,5.99,-0.72,-1.12,-0.05
2022-01-28 8:41:38.4590,0.049,-0.401,-1.442,0.32,-0.77,5.99,-0.72,-1.12,-0.05
2022-01-28 8:41:38.4690,0.026,-0.338,-1.353,0.52,-1.35,5.5,-0.11,-0.99,-0.88
2022-01-28 8:41:38.4790,0.033,-0.297,-1.226,0.58,-1.88,4.43,0.04,-0.51,-1.16
2022-01-28 8:41:38.4890,0.057,-0.296,-1.101,0.4,-2.13,3.12,-0.07,0.06,-1.36
2022-01-28 8:41:38.4990,0.088,-0.334,-1.013,-0.06,-1.47,1.32,-0.43,0.54,-1.52
2022-01-28 8:41:38.5090,0.122,-0.399,-0.972,-0.06,-1.47,1.32,-0.91,0.91,-1.64
2022-01-28 8:41:38.5190,0.158,-0.472,-0.943,-0.28,-0.7,0.99,-1.34,1.18,-1.76
2022-01-28 8:41:38.5290,0.187,-0.514,-0.917,-0.51,0.45,0.38,-1.57,1.35,-1.86
2022-01-28 8:41:38.5390,0.202,-0.519,-0.899,-0.41,0.61,0.18,-1.55,1.39,-1.89
2022-01-28 8:41:38.5490,0.208,-0.52,-0.882,-0.28,0.83,-0.08,-1.34,1.32,-1.84
2022-01-28 8:41:38.5590,0.218,-0.532,-0.854,-0.28,0.83,-0.08,-1.03,1.11,-1.7
2022-01-28 8:41:38.5690,0.224,-0.537,-0.819,-0.18,1.08,-0.39,-0.72,0.81,-1.51
2022-01-28 8:41:38.5800,0.228,-0.545,-0.775,-0.07,1.23,-0.8,-0.46,0.46,-1.27
2022-01-28 8:41:38.5890,0.235,-0.557,-0.736,0.0,1.43,-1.25,-0.28,0.06,-1.05
2022-01-28 8:41:38.5990,0.24,-0.564,-0.712,0.02,1.6,-1.58,-0.18,-0.38,-0.86
2022-01-28 8:41:38.6090,0.24,-0.574,-0.698,0.02,1.72,-1.79,-0.11,-0.83,-0.7
2022-01-28 8:41:38.6190,0.236,-0.585,-0.702,0.01,1.99,-1.82,-0.06,-1.24,-0.57
2022-01-28 8:41:38.6290,0.228,-0.592,-0.714,0.01,1.99,-1.82,0.03,-1.57,-0.48
2022-01-28 8:41:38.6390,0.211,-0.572,-0.724,0.02,2.01,-1.75,0.03,-1.57,-0.48
2022-01-28 8:41:38.6500,0.183,-0.529,-0.742,0.25,1.23,-1.45,0.28,-1.87,-0.47
2022-01-28 8:41:38.6590,0.157,-0.474,-0.781,0.25,1.23,-1.45,0.44,-1.82,-0.5
2022-01-28 8:41:38.6700,0.125,-0.413,-0.807,0.53,0.02,-0.91,0.61,-1.6,-0.55
2022-01-28 8:41:38.6800,0.106,-0.36,-0.829,0.51,-0.48,-0.65,0.78,-1.27,-0.62
2022-01-28 8:41:38.6900,0.11,-0.332,-0.858,0.51,-0.48,-0.65,0.92,-0.89,-0.71
2022-01-28 8:41:38.7000,0.133,-0.329,-0.88,0.32,-0.69,-0.37,1.07,-0.51,-0.83
2022-01-28 8:41:38.7100,0.175,-0.325,-0.897,-0.02,-0.79,-0.15,1.19,-0.15,-0.96
2022-01-28 8:41:38.7200,0.225,-0.339,-0.891,-0.48,-0.88,0.0,1.19,-0.15,-0.96
2022-01-28 8:41:38.7300,0.268,-0.378,-0.889,-0.92,-0.73,-0.07,1.4,0.45,-1.08
2022-01-28 8:41:38.7400,0.308,-0.425,-0.911,-1.25,-0.4,0.09,1.39,0.55,-1.06
2022-01-28 8:41:38.7500,0.347,-0.474,-0.95,-1.57,-0.02,0.43,1.27,0.53,-1.06
2022-01-28 8:41:38.7600,0.372,-0.504,-1.001,-1.9,0.43,1.52,1.09,0.44,-1.12
2022-01-28 8:41:38.7700,0.385,-0.505,-1.058,-1.9,0.43,1.52,1.09,0.26,-1.28
2022-01-28 8:41:38.7800,0.392,-0.475,-1.137,-1.92,0.23,2.19,0.7,0.0,-1.49
2022-01-28 8:41:38.7900,0.4,-0.463,-1.211,-1.9,-0.1,3.05,0.7,0.0,-1.49
2022-01-28 8:41:38.8000,0.413,-0.469,-1.264,-1.95,-0.13,3.71,0.36,-0.5,-1.76
2022-01-28 8:41:38.8100,0.409,-0.458,-1.292,-1.97,-0.12,4.19,0.28,-0.64,-1.72
2022-01-28 8:41:38.8200,0.397,-0.454,-1.261,-1.85,-0.25,4.29,0.28,-0.64,-1.72
2022-01-28 8:41:38.8300,0.382,-0.489,-1.189,-1.53,0.31,3.03,0.37,-0.36,-1.24
2022-01-28 8:41:38.8400,0.367,-0.535,-1.108,-1.53,0.31,3.03,0.44,0.0,-0.91
2022-01-28 8:41:38.8500,0.353,-0.568,-1.028,-1.34,0.7,2.22,0.44,0.34,-0.59
2022-01-28 8:41:38.8610,0.344,-0.606,-0.967,-1.18,1.0,1.51,0.44,0.34,-0.59
2022-01-28 8:41:38.8700,0.332,-0.655,-0.935,-0.82,1.86,0.86,0.1,0.57,-0.08
2022-01-28 8:41:38.8800,0.309,-0.696,-0.931,-0.82,1.86,0.86,-0.19,0.4,0.15
2022-01-28 8:41:38.8900,0.269,-0.748,-0.947,-0.02,2.84,1.17,-0.48,0.05,0.4
2022-01-28 8:41:38.9010,0.216,-0.802,-0.991,-0.02,2.84,1.17,-0.68,-0.42,0.66
2022-01-28 8:41:38.9100,0.156,-0.829,-1.019,0.48,3.33,1.56,-0.68,-0.42,0.66
2022-01-28 8:41:38.9210,0.088,-0.819,-1.033,1.56,3.31,1.75,-0.59,-1.35,1.05
2022-01-28 8:41:38.9300,0.025,-0.772,-1.027,1.56,3.31,1.75,-0.25,-1.67,1.09
2022-01-28 8:41:38.9400,-0.031,-0.693,-0.986,2.34,1.9,0.91,0.21,-1.77,1.01
2022-01-28 8:41:38.9500,-0.083,-0.61,-0.9,2.34,1.9,0.91,0.67,-1.54,0.85
2022-01-28 8:41:38.9600,-0.115,-0.55,-0.789,2.67,0.54,-1.07,1.06,-1.19,0.7
2022-01-28 8:41:38.9700,-0.124,-0.515,-0.721,2.67,0.54,-1.07,1.25,-0.83,0.57
2022-01-28 8:41:38.9810,-0.093,-0.502,-0.66,2.49,0.17,-1.57,1.25,-0.46,0.44
2022-01-28 8:41:38.9910,-0.057,-0.495,-0.589,2.02,-0.02,-2.21,1.13,-0.15,0.33
2022-01-28 8:41:39.0000,-0.035,-0.485,-0.542,1.67,-0.21,-2.76,0.95,0.08,0.24
2022-01-28 8:41:39.0110,-0.029,-0.479,-0.503,1.48,-0.39,-3.13,0.74,0.26,0.18
2022-01-28 8:41:39.0210,-0.035,-0.475,-0.473,1.47,-0.51,-3.43,0.59,0.42,0.15
2022-01-28 8:41:39.0310,-0.044,-0.463,-0.444,1.57,-0.62,-3.67,0.53,0.58,0.14
2022-01-28 8:41:39.0410,-0.047,-0.441,-0.416,1.72,-1.1,-4.13,0.58,0.69,0.13
2022-01-28 8:41:39.0510,-0.045,-0.421,-0.402,1.72,-1.1,-4.13,0.68,0.72,0.11
2022-01-28 8:41:39.0610,-0.036,-0.41,-0.401,1.68,-1.46,-4.11,0.79,0.67,0.08
2022-01-28 8:41:39.0710,-0.026,-0.405,-0.4,1.68,-1.46,-4.11,0.86,0.58,0.02
2022-01-28 8:41:39.0800,-0.016,-0.4,-0.389,1.63,-1.56,-4.1,0.87,0.49,-0.08
2022-01-28 8:41:39.0910,-0.003,-0.401,-0.378,1.44,-1.7,-4.17,0.79,0.36,-0.21
2022-01-28 8:41:39.1010,0.028,-0.408,-0.389,1.44,-1.7,-4.17,0.79,0.36,-0.21
2022-01-28 8:41:39.1110,0.078,-0.423,-0.42,1.1,-1.65,-3.93,0.43,-0.01,-0.44
2022-01-28 8:41:39.1210,0.126,-0.438,-0.46,0.61,-1.52,-3.55,0.43,-0.01,-0.44
2022-01-28 8:41:39.1310,0.156,-0.42,-0.504,0.23,-1.48,-3.11,0.06,-0.25,-0.47
2022-01-28 8:41:39.1410,0.176,-0.387,-0.544,-0.17,-2.06,-2.25,-0.03,-0.2,-0.38
2022-01-28 8:41:39.1520,0.191,-0.362,-0.594,-0.32,-2.28,-1.84,-0.08,0.0,-0.24
2022-01-28 8:41:39.1610,0.208,-0.35,-0.623,-0.32,-2.28,-1.84,-0.12,0.27,-0.11
2022-01-28 8:41:39.1710,0.22,-0.371,-0.694,-0.53,-1.94,-0.58,-0.21,0.4,-0.01
2022-01-28 8:41:39.1810,0.23,-0.416,-0.81,-0.64,-1.41,0.55,-0.34,0.39,-0.03
2022-01-28 8:41:39.1920,0.255,-0.472,-0.923,-0.91,-0.85,1.7,-0.51,0.19,-0.16
2022-01-28 8:41:39.2020,0.296,-0.52,-1.064,-0.91,-0.85,1.7,-0.71,-0.24,-0.39
2022-01-28 8:41:39.2110,0.341,-0.564,-1.203,-1.72,0.14,4.23,-0.89,-0.73,-0.59
2022-01-28 8:41:39.2220,0.359,-0.604,-1.267,-1.79,0.54,4.52,-0.96,-1.06,-0.68
2022-01-28 8:41:39.2310,0.342,-0.614,-1.271,-1.79,0.54,4.52,-0.89,-1.13,-0.68
2022-01-28 8:41:39.2420,0.309,-0.579,-1.259,-1.59,0.55,4.39,-0.89,-1.13,-0.68
2022-01-28 8:41:39.2520,0.278,-0.541,-1.258,-1.09,0.06,4.24,-0.58,-0.9,-0.67
2022-01-28 8:41:39.2620,0.256,-0.553,-1.277,-0.92,0.38,4.39,-0.55,-0.82,-0.68
2022-01-28 8:41:39.2720,0.239,-0.584,-1.285,-0.83,0.65,4.32,-0.55,-0.82,-0.68
2022-01-28 8:41:39.2810,0.233,-0.588,-1.263,-0.79,0.7,3.93,-0.71,-0.73,-0.94
2022-01-28 8:41:39.2910,0.218,-0.584,-1.206,-0.79,0.7,3.93,-0.79,-0.6,-1.09
2022-01-28 8:41:39.3010,0.189,-0.587,-1.125,-0.59,0.76,3.22,-0.82,-0.38,-1.2
2022-01-28 8:41:39.3110,0.156,-0.584,-1.034,0.09,0.91,1.36,-0.83,-0.09,-1.25
2022-01-28 8:41:39.3210,0.126,-0.576,-0.939,0.09,0.91,1.36,-0.8,0.2,-1.23
2022-01-28 8:41:39.3320,0.108,-0.572,-0.856,0.4,0.91,0.42,-0.75,0.43,-1.15
2022-01-28 8:41:39.3420,0.097,-0.591,-0.788,0.61,1.01,-0.38,-0.68,0.59,-0.97
2022-01-28 8:41:39.3520,0.084,-0.624,-0.741,0.82,1.39,-0.99,-0.57,0.66,-0.77
2022-01-28 8:41:39.3700,0.073,-0.625,-0.706,1.23,1.69,-1.78,-0.57,0.66,-0.77
2022-01-28 8:41:39.3720,0.066,-0.615,-0.664,1.23,1.69,-1.78,-0.14,0.59,-0.51
2022-01-28 8:41:39.3810,0.069,-0.606,-0.623,1.37,1.58,-2.56,-0.14,0.59,-0.51
2022-01-28 8:41:39.3930,0.07,-0.599,-0.591,1.37,1.58,-2.56,0.37,0.28,-0.44
2022-01-28 8:41:39.4020,0.069,-0.585,-0.554,1.43,1.49,-2.87,0.56,0.07,-0.44
2022-01-28 8:41:39.4120,0.063,-0.562,-0.514,1.59,0.99,-3.6,0.68,-0.12,-0.45
2022-01-28 8:41:39.4220,0.054,-0.532,-0.475,1.59,0.99,-3.6,0.75,-0.31,-0.48
2022-01-28 8:41:39.4320,0.044,-0.499,-0.443,1.69,0.63,-3.93,0.75,-0.31,-0.48
2022-01-28 8:41:39.4420,0.038,-0.466,-0.425,1.79,-0.11,-4.26,0.74,-0.63,-0.63
2022-01-28 8:41:39.4530,0.036,-0.437,-0.421,1.78,-0.44,-4.26,0.67,-0.74,-0.76
2022-01-28 8:41:39.4630,0.037,-0.408,-0.43,1.78,-0.44,-4.26,0.56,-0.81,-0.93
2022-01-28 8:41:39.4720,0.048,-0.397,-0.46,1.71,-0.72,-4.08,0.42,-0.84,-1.12
2022-01-28 8:41:39.4820,0.069,-0.402,-0.508,1.3,-0.74,-3.2,0.27,-0.81,-1.3
2022-01-28 8:41:39.4930,0.094,-0.394,-0.565,1.03,-0.89,-2.53,0.12,-0.74,-1.47
2022-01-28 8:41:39.5030,0.12,-0.366,-0.665,1.03,-0.89,-2.53,-0.01,-0.65,-1.61
2022-01-28 8:41:39.5130,0.159,-0.331,-0.797,0.78,-1.19,-1.38,-0.07,-0.52,-1.7
2022-01-28 8:41:39.5220,0.209,-0.318,-0.911,0.34,-1.45,-0.16,-0.02,-0.35,-1.67
2022-01-28 8:41:39.5320,0.255,-0.335,-1.028,-0.09,-1.41,0.96,0.16,-0.11,-1.52
2022-01-28 8:41:39.5430,0.291,-0.353,-1.1,-0.48,-1.16,1.97,0.49,0.26,-1.29
2022-01-28 8:41:39.5520,0.306,-0.342,-1.149,-0.69,-1.06,2.58,0.49,0.26,-1.29
2022-01-28 8:41:39.5630,0.314,-0.321,-1.162,-0.7,-1.26,2.96,1.26,1.45,-0.8
2022-01-28 8:41:39.5730,0.344,-0.317,-1.21,-0.7,-1.5,3.18,1.35,1.79,-0.73
2022-01-28 8:41:39.5820,0.384,-0.345,-1.326,-0.93,-1.5,4.01,1.13,1.64,-0.84
2022-01-28 8:41:39.5930,0.404,-0.392,-1.466,-1.02,-1.24,5.42,0.68,1.01,-1.16
2022-01-28 8:41:39.6030,0.448,-0.462,-1.582,-1.43,0.0,7.85,0.11,0.12,-1.58
2022-01-28 8:41:39.6130,0.472,-0.532,-1.632,-1.43,0.0,7.85,-0.43,-0.63,-1.94
2022-01-28 8:41:39.6230,0.465,-0.551,-1.58,-1.26,0.75,7.15,-0.84,-0.96,-2.09
2022-01-28 8:41:39.6410,0.433,-0.557,-1.487,-0.9,1.0,6.15,-1.03,-0.87,-2.04
2022-01-28 8:41:39.6510,0.403,-0.57,-1.406,-0.65,1.24,5.44,-1.02,-0.64,-1.86
2022-01-28 8:41:39.6530,0.396,-0.583,-1.362,-0.65,1.24,5.44,-0.93,-0.43,-1.61
2022-01-28 8:41:39.6620,0.403,-0.63,-1.338,-0.64,1.63,5.01,-0.86,-0.47,-1.31
2022-01-28 8:41:39.6730,0.391,-0.692,-1.342,-0.64,2.3,4.86,-0.85,-0.76,-0.96
2022-01-28 8:41:39.6830,0.359,-0.746,-1.329,-0.08,3.59,4.56,-0.85,-1.21,-0.6
2022-01-28 8:41:39.6930,0.304,-0.784,-1.307,0.45,3.94,4.26,-0.79,-1.76,-0.25
2022-01-28 8:41:39.7030,0.226,-0.777,-1.275,1.12,3.73,3.75,-0.63,-2.25,0.0
2022-01-28 8:41:39.7130,0.137,-0.729,-1.212,1.12,3.73,3.75,-0.37,-2.61,0.16
2022-01-28 8:41:39.7230,0.051,-0.685,-1.133,1.79,3.3,2.96,-0.09,-2.79,0.23
2022-01-28 8:41:39.7330,-0.028,-0.645,-1.042,2.84,2.53,1.07,0.17,-2.8,0.23
2022-01-28 8:41:39.7440,-0.091,-0.608,-0.95,2.84,2.53,1.07,0.37,-2.67,0.17
2022-01-28 8:41:39.7530,-0.139,-0.574,-0.875,3.35,1.8,-0.52,0.49,-2.47,0.07
2022-01-28 8:41:39.7630,-0.184,-0.54,-0.827,3.35,1.8,-0.52,0.55,-2.2,-0.07
2022-01-28 8:41:39.7730,-0.223,-0.5,-0.77,3.57,1.39,-0.98,0.55,-2.2,-0.07
2022-01-28 8:41:39.7830,-0.237,-0.463,-0.698,3.58,0.57,-2.27,0.57,-1.33,-0.5
2022-01-28 8:41:39.7930,-0.22,-0.439,-0.66,3.24,0.39,-2.52,0.5,-0.88,-0.77
2022-01-28 8:41:39.8030,-0.185,-0.44,-0.64,3.24,0.39,-2.52,0.4,-0.48,-1.04
2022-01-28 8:41:39.8130,-0.154,-0.443,-0.62,2.85,0.41,-2.73,0.31,-0.14,-1.29
2022-01-28 8:41:39.8230,-0.128,-0.433,-0.604,2.39,0.25,-3.03,0.25,0.14,-1.49
2022-01-28 8:41:39.8330,-0.104,-0.424,-0.599,2.39,0.25,-3.03,0.26,0.28,-1.63
2022-01-28 8:41:39.8430,-0.09,-0.411,-0.613,2.26,0.0,-2.87,0.33,0.31,-1.71
2022-01-28 8:41:39.8530,-0.088,-0.395,-0.605,2.26,0.0,-2.87,0.4,0.27,-1.76
2022-01-28 8:41:39.8630,-0.078,-0.385,-0.585,2.31,-0.13,-2.97,0.45,0.17,-1.84
2022-01-28 8:41:39.8740,-0.071,-0.377,-0.556,2.31,-0.23,-3.21,0.47,-0.0,-1.93
2022-01-28 8:41:39.8830,-0.046,-0.382,-0.561,2.07,-0.22,-3.14,0.42,-0.23,-1.99
2022-01-28 8:41:39.8940,-0.007,-0.371,-0.605,2.07,-0.22,-3.14,0.31,-0.43,-1.89
2022-01-28 8:41:39.9040,0.054,-0.406,-0.636,1.61,-0.45,-2.72,0.24,-0.56,-1.74
2022-01-28 8:41:39.9140,0.105,-0.614,-0.601,0.71,2.47,-3.08,0.27,-0.45,-1.5
2022-01-28 8:41:39.9240,0.12,-0.63,-0.574,0.71,2.47,-3.08,0.3,-0.37,-1.37
2022-01-28 8:41:39.9330,0.183,-0.493,-0.64,0.54,1.64,-2.96,0.29,-0.34,-1.23
2022-01-28 8:41:39.9440,0.191,-0.6,-0.602,-0.17,0.95,-2.59,0.29,-0.34,-1.23
2022-01-28 8:41:39.9540,0.088,-0.688,-0.688,0.41,2.55,-2.66,0.29,-0.78,-0.55
2022-01-28 8:41:39.9640,0.072,-0.558,-0.644,1.04,1.13,-2.51,0.16,-0.95,-0.44
2022-01-28 8:41:39.9740,0.082,-0.516,-0.69,1.04,1.13,-2.51,-0.08,-1.19,-0.38
2022-01-28 8:41:39.9840,0.052,-0.58,-0.818,1.23,1.93,-0.24,-0.34,-1.53,-0.31
2022-01-28 8:41:39.9940,0.049,-0.615,-0.986,0.89,2.09,1.49,-0.54,-2.0,-0.33
2022-01-28 8:41:40.0040,0.089,-0.619,-1.159,0.89,2.09,1.49,-0.59,-2.49,-0.46
2022-01-28 8:41:40.0140,0.142,-0.675,-1.247,0.29,2.38,2.86,-0.46,-2.89,-0.64
2022-01-28 8:41:40.0240,0.163,-0.667,-1.328,-0.44,2.89,3.52,-0.28,-3.24,-0.84
2022-01-28 8:41:40.0340,0.108,-0.607,-1.394,-0.56,2.57,4.32,-0.14,-3.44,-1.0
2022-01-28 8:41:40.0440,0.051,-0.571,-1.387,-0.21,2.04,4.65,-0.07,-3.39,-1.07
2022-01-28 8:41:40.0530,0.019,-0.573,-1.351,-0.12,1.94,3.55,-0.11,-2.54,-1.0
2022-01-28 8:41:40.0640,0.039,-0.544,-1.119,-0.12,1.94,3.55,-0.11,-2.54,-1.0
2022-01-28 8:41:40.0740,-0.136,-0.507,-1.312,-0.14,1.38,1.97,-0.28,0.07,-0.29
2022-01-28 8:41:40.0840,-0.095,-0.473,-1.397,1.71,1.35,4.32,-0.32,0.5,-0.16
2022-01-28 8:41:40.0940,0.065,-0.415,-1.601,-0.84,0.64,6.98,-0.28,0.36,-0.16
2022-01-28 8:41:40.1040,0.118,-0.457,-1.649,-0.84,0.64,6.98,-0.28,0.36,-0.16
2022-01-28 8:41:40.1230,0.107,-0.398,-1.653,-0.8,0.06,6.93,-0.14,0.15,-0.24
2022-01-28 8:41:40.1240,0.055,-0.333,-1.594,-0.8,0.06,6.93,0.08,0.02,-0.3
2022-01-28 8:41:40.1330,0.016,-0.28,-1.54,-0.3,-0.5,6.26,0.56,-0.06,-0.27
2022-01-28 8:41:40.1430,0.008,-0.242,-1.481,-0.02,-1.34,5.17,0.56,-0.06,-0.27
2022-01-28 8:41:40.1530,0.017,-0.233,-1.415,-0.02,-1.34,5.17,0.88,-0.3,-0.22
2022-01-28 8:41:40.1640,0.029,-0.231,-1.345,-0.25,-1.56,3.85,0.97,-0.46,-0.19
2022-01-28 8:41:40.1730,0.026,-0.225,-1.261,-0.25,-1.56,3.85,1.04,-0.57,-0.17
2022-01-28 8:41:40.1840,0.008,-0.208,-1.171,-0.03,-2.03,2.18,1.1,-0.58,-0.13
2022-01-28 8:41:40.1940,-0.015,-0.185,-1.082,-0.03,-2.03,2.18,1.16,-0.53,-0.11
2022-01-28 8:41:40.2040,-0.028,-0.167,-1.01,0.13,-2.35,1.41,1.2,-0.46,-0.11
2022-01-28 8:41:40.2140,-0.03,-0.164,-0.948,0.14,-2.68,0.26,1.21,-0.4,-0.14
2022-01-28 8:41:40.2250,-0.029,-0.168,-0.891,0.11,-2.74,-0.23,1.16,-0.35,-0.2
2022-01-28 8:41:40.2340,-0.033,-0.17,-0.837,0.11,-2.74,-0.23,1.06,-0.3,-0.3
2022-01-28 8:41:40.2450,-0.038,-0.168,-0.78,0.14,-2.84,-0.73,1.06,-0.3,-0.3
2022-01-28 8:41:40.2550,-0.039,-0.165,-0.727,0.17,-2.95,-1.22,0.76,-0.18,-0.53
2022-01-28 8:41:40.2640,-0.037,-0.164,-0.675,0.17,-3.05,-1.7,0.58,-0.11,-0.61
2022-01-28 8:41:40.2750,-0.027,-0.164,-0.632,0.13,-3.12,-2.15,0.39,-0.05,-0.65
2022-01-28 8:41:40.2850,-0.017,-0.177,-0.6,0.04,-3.13,-2.5,0.23,-0.01,-0.64
2022-01-28 8:41:40.2940,-0.017,-0.198,-0.564,0.04,-2.8,-3.14,0.09,0.01,-0.59
2022-01-28 8:41:40.3050,-0.02,-0.218,-0.539,0.04,-2.8,-3.14,-0.04,0.04,-0.53
2022-01-28 8:41:40.3140,-0.025,-0.234,-0.514,0.2,-2.47,-3.65,-0.13,0.09,-0.48
2022-01-28 8:41:40.3250,-0.03,-0.246,-0.48,0.2,-2.47,-3.65,-0.21,0.16,-0.44
2022-01-28 8:41:40.3350,-0.015,-0.247,-0.459,0.26,-2.35,-3.94,-0.33,0.2,-0.35
2022-01-28 8:41:40.3450,0.038,-0.239,-0.46,-0.03,-2.43,-4.09,-0.52,0.18,-0.13
2022-01-28 8:41:40.3550,0.088,-0.337,-0.467,-0.87,-0.78,-3.93,-0.72,0.18,0.19
2022-01-28 8:41:40.3650,0.071,-0.472,-0.518,-0.87,-0.78,-3.93,-0.85,-0.02,0.55
2022-01-28 8:41:40.3750,0.003,-0.427,-0.607,0.07,-0.75,-2.64,-0.92,-0.29,0.8
2022-01-28 8:41:40.3850,-0.005,-0.327,-0.606,0.07,-0.75,-2.64,-0.99,-0.5,0.92
2022-01-28 8:41:40.3950,-0.024,-0.262,-0.615,0.32,-1.86,-2.61,-1.11,-0.71,1.01
2022-01-28 8:41:40.4050,-0.096,-0.275,-0.629,0.32,-1.86,-2.61,-1.26,-0.76,1.1
2022-01-28 8:41:40.4160,-0.169,-0.328,-0.543,0.95,-1.34,-2.91,-1.26,-0.76,1.1
2022-01-28 8:41:40.4250,-0.239,-0.341,-0.494,2.09,-0.55,-4.04,-1.58,-0.35,1.02
2022-01-28 8:41:40.4350,-0.281,-0.38,-0.528,2.29,0.01,-3.58,-1.72,-0.14,0.86
2022-01-28 8:41:40.4460,-0.289,-0.413,-0.613,2.29,0.01,-3.58,-1.8,-0.07,0.68
2022-01-28 8:41:40.4560,-0.274,-0.42,-0.71,2.0,0.49,-2.03,-1.8,-0.02,0.5
2022-01-28 8:41:40.4660,-0.253,-0.38,-0.729,2.0,0.49,-2.03,-1.71,0.08,0.34
2022-01-28 8:41:40.4750,-0.251,-0.31,-0.705,1.84,0.14,-2.1,-1.55,0.27,0.13
2022-01-28 8:41:40.4860,-0.27,-0.232,-0.665,2.18,-0.96,-2.91,-1.34,0.54,-0.14
2022-01-28 8:41:40.4960,-0.306,-0.204,-0.637,2.18,-0.96,-2.91,-1.07,0.86,-0.46
2022-01-28 8:41:40.5050,-0.329,-0.237,-0.623,2.61,-0.88,-3.17,-0.77,1.21,-0.76
2022-01-28 8:41:40.5150,-0.315,-0.315,-0.628,2.79,-0.28,-3.3,-0.77,1.21,-0.99
2022-01-28 8:41:40.5250,-0.288,-0.408,-0.675,2.73,0.65,-3.12,-0.08,1.79,-1.1
2022-01-28 8:41:40.5350,-0.248,-0.492,-0.742,2.61,1.57,-2.56,0.25,1.88,-1.12
2022-01-28 8:41:40.5460,-0.204,-0.555,-0.824,2.37,2.36,-1.87,0.25,1.88,-1.12
2022-01-28 8:41:40.5560,-0.181,-0.558,-0.955,2.19,2.76,-0.94,0.52,1.72,-1.09
2022-01-28 8:41:40.5660,-0.178,-0.489,-1.098,2.26,2.49,0.59,0.34,0.29,-1.16
2022-01-28 8:41:40.5760,-0.175,-0.344,-1.108,2.34,1.46,1.62,-0.07,-0.43,-1.43
2022-01-28 8:41:40.5860,-0.185,-0.29,-0.974,2.43,0.06,1.12,-0.07,-0.43,-1.43
2022-01-28 8:41:40.5960,-0.168,-0.369,-0.849,2.43,0.27,-0.37,-0.91,-0.79,-1.84
2022-01-28 8:41:40.6050,-0.168,-0.394,-0.836,2.25,1.01,-1.24,-1.3,-0.8,-1.86
2022-01-28 8:41:40.6160,-0.181,-0.356,-0.901,2.31,1.13,-1.03,-1.6,-0.66,-1.75
2022-01-28 8:41:40.6260,-0.25,-0.289,-0.872,2.46,0.76,-0.53,-1.87,-0.49,-1.61
2022-01-28 8:41:40.6360,-0.331,-0.196,-0.86,3.45,0.13,-1.17,-2.14,-0.26,-1.46
2022-01-28 8:41:40.6460,-0.348,-0.13,-0.917,4.14,-0.75,-0.23,-2.44,-0.16,-1.25
2022-01-28 8:41:40.6560,-0.388,-0.118,-1.051,4.14,-0.75,-0.23,-2.7,-0.18,-1.04
2022-01-28 8:41:40.6660,-0.419,-0.079,-1.202,4.49,-0.59,1.28,-2.84,-0.23,-0.92
2022-01-28 8:41:40.6760,-0.444,0.02,-1.306,4.97,-1.73,3.41,-2.85,-0.28,-0.96
2022-01-28 8:41:40.6860,-0.452,0.126,-1.389,4.97,-1.73,3.41,-2.75,-0.36,-1.16
2022-01-28 8:41:40.6960,-0.44,0.223,-1.459,4.75,-3.09,4.7,-2.62,-0.45,-1.54
2022-01-28 8:41:40.7060,-0.417,0.307,-1.483,4.47,-3.63,4.75,-2.53,-0.46,-2.06
2022-01-28 8:41:40.7160,-0.397,0.393,-1.496,4.47,-3.63,4.75,-2.53,-0.45,-2.66
2022-01-28 8:41:40.7260,-0.391,0.471,-1.527,4.27,-4.59,5.24,-2.6,-0.35,-3.23
2022-01-28 8:41:40.7370,-0.41,0.511,-1.536,4.27,-4.59,5.24,-2.65,-0.09,-3.7
2022-01-28 8:41:40.7470,-0.427,0.539,-1.508,4.47,-4.6,4.85,-2.58,0.42,-3.97
2022-01-28 8:41:40.7560,-0.404,0.545,-1.473,4.47,-4.6,4.85,-2.38,1.0,-4.01
2022-01-28 8:41:40.7660,-0.358,0.519,-1.451,4.16,-4.26,4.63,-2.38,1.0,-4.01
2022-01-28 8:41:40.7770,-0.295,0.482,-1.402,3.7,-3.68,4.36,-1.58,2.0,-3.6
2022-01-28 8:41:40.7870,-0.239,0.465,-1.328,3.19,-3.16,3.83,-1.04,2.32,-3.3
2022-01-28 8:41:40.7960,-0.204,0.471,-1.22,2.86,-2.93,3.01,-0.48,2.5,-3.04
2022-01-28 8:41:40.8060,-0.188,0.487,-1.114,2.77,-2.93,1.93,0.05,2.5,-2.83
2022-01-28 8:41:40.8160,-0.181,0.493,-1.026,2.96,-3.0,0.22,0.51,2.36,-2.71
2022-01-28 8:41:40.8260,-0.173,0.487,-0.954,2.96,-3.0,0.22,0.88,2.08,-2.67
2022-01-28 8:41:40.8360,-0.16,0.474,-0.892,3.05,-2.93,-0.42,1.16,1.73,-2.71
2022-01-28 8:41:40.8460,-0.141,0.456,-0.831,3.04,-2.83,-1.01,1.35,1.37,-2.82
2022-01-28 8:41:40.8560,-0.117,0.437,-0.779,2.77,-2.64,-2.06,1.44,1.02,-2.98
2022-01-28 8:41:40.8670,-0.092,0.426,-0.73,2.77,-2.64,-2.06,1.44,1.02,-2.98
2022-01-28 8:41:40.8770,-0.067,0.416,-0.675,2.57,-2.62,-2.57,1.41,0.55,-3.31
2022-01-28 8:41:40.8870,-0.042,0.407,-0.631,2.34,-2.61,-3.11,1.41,0.55,-3.31
2022-01-28 8:41:40.8970,-0.018,0.396,-0.6,2.11,-2.59,-3.48,1.14,0.44,-3.48
2022-01-28 8:41:40.9070,0.006,0.387,-0.57,1.86,-2.53,-3.79,0.93,0.5,-3.52
2022-01-28 8:41:40.9170,0.027,0.392,-0.55,1.4,-2.6,-4.21,0.7,0.61,-3.57
2022-01-28 8:41:40.9270,0.065,0.381,-0.54,1.4,-2.6,-4.21,0.45,0.72,-3.58
2022-01-28 8:41:40.9370,0.105,0.353,-0.552,0.68,-2.13,-4.05,0.21,0.79,-3.55
2022-01-28 8:41:40.9470,0.137,0.345,-0.574,0.68,-2.13,-4.05,-0.0,0.84,-3.52
2022-01-28 8:41:40.9570,0.171,0.349,-0.591,0.38,-2.05,-3.85,-0.17,0.87,-3.47
2022-01-28 8:41:40.9670,0.202,0.35,-0.609,0.1,-2.03,-3.66,-0.32,0.9,-3.43
2022-01-28 8:41:40.9770,0.238,0.347,-0.628,-0.19,-1.93,-3.47,-0.32,0.9,-3.43
2022-01-28 8:41:40.9880,0.276,0.345,-0.654,-0.52,-1.79,-3.25,-0.57,0.96,-3.35
2022-01-28 8:41:40.9970,0.319,0.343,-0.695,-0.87,-1.68,-2.9,-0.68,0.96,-3.29
2022-01-28 8:41:41.0070,0.366,0.334,-0.735,-1.27,-1.5,-2.46,-0.75,0.94,-3.22
2022-01-28 8:41:41.0170,0.417,0.32,-0.785,-1.72,-1.26,-2.02,-0.76,0.87,-3.12
2022-01-28 8:41:41.0270,0.467,0.306,-0.831,-2.21,-0.98,-1.48,-0.72,0.75,-3.0
2022-01-28 8:41:41.0370,0.509,0.302,-0.872,-3.05,-0.6,-0.59,-0.62,0.59,-2.83
2022-01-28 8:41:41.0470,0.543,0.306,-0.912,-3.05,-0.6,-0.59,-0.62,0.59,-2.83
2022-01-28 8:41:41.0570,0.567,0.317,-0.945,-3.36,-0.54,-0.19,-0.32,0.24,-2.36
2022-01-28 8:41:41.0680,0.583,0.338,-0.973,-3.6,-0.6,0.13,-0.14,0.09,-2.06
2022-01-28 8:41:41.0770,0.592,0.361,-1.0,-3.78,-0.75,0.41,0.05,-0.01,-1.74
2022-01-28 8:41:41.0870,0.585,0.388,-1.016,-3.85,-0.93,0.66,0.22,-0.03,-1.41
2022-01-28 8:41:41.0970,0.566,0.414,-1.028,-3.78,-1.18,0.77,0.34,-0.01,-1.1
2022-01-28 8:41:41.1070,0.543,0.438,-1.047,-3.61,-1.42,0.91,0.42,0.01,-0.84
2022-01-28 8:41:41.1170,0.521,0.455,-1.061,-3.41,-1.65,1.09,0.46,0.05,-0.66
2022-01-28 8:41:41.1270,0.505,0.454,-1.051,-3.23,-1.79,1.15,0.45,0.15,-0.54
2022-01-28 8:41:41.1370,0.492,0.431,-1.029,-3.12,-1.75,0.94,0.44,0.22,-0.36
2022-01-28 8:41:41.1470,0.452,0.364,-1.022,-2.91,-1.36,0.78,0.41,0.29,-0.16
2022-01-28 8:41:41.1570,0.411,0.355,-0.986,-2.46,-0.83,0.68,0.34,0.46,-0.02
2022-01-28 8:41:41.1680,0.363,0.391,-0.933,-2.02,-1.04,0.15,0.24,0.62,0.05
2022-01-28 8:41:41.1780,0.31,0.419,-0.925,-1.46,-1.4,-0.21,0.07,0.67,0.03
2022-01-28 8:41:41.1880,0.274,0.456,-0.94,-0.93,-1.72,-0.17,-0.16,0.57,-0.12
2022-01-28 8:41:41.1980,0.26,0.489,-0.971,-0.6,-2.09,0.05,-0.39,0.33,-0.34
2022-01-28 8:41:41.2080,0.269,0.484,-1.005,-0.5,-2.28,0.41,-0.39,0.33,-0.34
2022-01-28 8:41:41.2180,0.294,0.443,-1.031,-0.65,-2.03,0.74,-0.74,-0.2,-0.78
2022-01-28 8:41:41.2280,0.32,0.392,-1.028,-0.94,-1.49,0.94,-0.81,-0.27,-0.86
2022-01-28 8:41:41.2380,0.335,0.348,-1.002,-1.34,-0.42,0.58,-0.79,-0.17,-0.79
2022-01-28 8:41:41.2480,0.332,0.319,-0.985,-1.34,-0.42,0.58,-0.66,0.02,-0.61
2022-01-28 8:41:41.2580,0.312,0.32,-0.964,-1.26,-0.16,0.43,-0.66,0.02,-0.61
2022-01-28 8:41:41.2680,0.293,0.35,-0.954,-1.06,-0.21,0.25,-0.3,0.4,-0.22
2022-01-28 8:41:41.2780,0.291,0.378,-0.956,-0.91,-0.51,0.23,-0.22,0.43,-0.12
2022-01-28 8:41:41.2880,0.298,0.376,-0.967,-0.91,-0.64,0.3,-0.21,0.37,-0.05
2022-01-28 8:41:41.2980,0.297,0.372,-0.98,-0.93,-0.54,0.45,-0.25,0.26,-0.05
2022-01-28 8:41:41.3080,0.289,0.396,-0.993,-0.86,-0.57,0.59,-0.3,0.15,-0.08
2022-01-28 8:41:41.3190,0.274,0.432,-1.008,-0.74,-0.86,0.73,-0.35,0.04,-0.14
2022-01-28 8:41:41.3280,0.253,0.466,-1.038,-0.55,-1.18,0.93,-0.39,-0.06,-0.21
2022-01-28 8:41:41.3380,0.224,0.509,-1.073,-0.33,-1.49,1.28,-0.44,-0.17,-0.27
2022-01-28 8:41:41.3480,0.193,0.55,-1.101,-0.04,-1.9,1.62,-0.44,-0.17,-0.27
2022-01-28 8:41:41.3580,0.174,0.56,-1.111,0.21,-2.16,1.85,-0.51,-0.17,-0.23
2022-01-28 8:41:41.3770,0.168,0.537,-1.119,0.31,-1.71,2.03,-0.51,-0.17,-0.23
2022-01-28 8:41:41.3800,0.175,0.494,-1.124,0.31,-1.71,2.03,-0.34,0.11,0.13
2022-01-28 8:41:41.3900,0.184,0.447,-1.112,0.23,-1.19,2.04,-0.14,0.33,0.37
2022-01-28 8:41:41.4010,0.178,0.4,-1.1,0.23,-0.73,1.93,0.12,0.58,0.62
2022-01-28 8:41:41.4110,0.158,0.355,-1.062,0.44,-0.29,1.74,0.39,0.82,0.85
2022-01-28 8:41:41.4210,0.135,0.327,-1.021,0.76,0.02,1.33,0.64,0.98,1.03
2022-01-28 8:41:41.4310,0.112,0.292,-0.985,1.12,0.21,0.95,0.84,1.04,1.15
2022-01-28 8:41:41.4410,0.091,0.249,-0.94,1.47,0.49,0.57,1.02,1.03,1.23
2022-01-28 8:41:41.4510,0.074,0.207,-0.906,1.79,0.79,0.14,1.18,0.93,1.26
2022-01-28 8:41:41.4610,0.039,0.18,-0.887,2.12,1.02,-0.14,1.33,0.8,1.24
2022-01-28 8:41:41.4710,0.001,0.152,-0.861,2.61,1.1,-0.36,1.49,0.67,1.19
2022-01-28 8:41:41.4810,-0.03,0.117,-0.847,3.04,1.24,-0.62,1.64,0.54,1.14
2022-01-28 8:41:41.4910,-0.058,0.086,-0.832,3.41,1.4,-0.76,1.81,0.43,1.07
2022-01-28 8:41:41.5010,-0.071,0.059,-0.818,3.7,1.49,-0.95,1.98,0.34,0.97
2022-01-28 8:41:41.5110,-0.075,0.04,-0.801,3.83,1.51,-1.1,2.15,0.27,0.86
2022-01-28 8:41:41.5210,-0.084,0.034,-0.779,3.92,1.44,-1.35,2.3,0.23,0.74
2022-01-28 8:41:41.5310,-0.093,0.033,-0.751,4.04,1.22,-1.59,2.42,0.2,0.62
2022-01-28 8:41:41.5410,-0.116,0.047,-0.731,4.18,0.99,-1.92,2.53,0.2,0.44
2022-01-28 8:41:41.5510,-0.118,0.026,-0.671,4.43,0.55,-2.19,2.63,0.18,0.22
2022-01-28 8:41:41.5610,-0.128,-0.008,-0.643,4.57,0.78,-2.72,2.69,0.24,-0.02
2022-01-28 8:41:41.5710,-0.04,-0.04,-0.583,4.15,0.69,-3.21,2.69,0.23,-0.17
2022-01-28 8:41:41.5810,-0.047,-0.103,-0.554,3.68,0.99,-3.57,2.65,0.26,-0.27
2022-01-28 8:41:41.5910,-0.033,-0.091,-0.512,3.76,1.17,-4.0,2.59,0.22,-0.42
2022-01-28 8:41:41.6010,-0.019,-0.044,-0.5,3.6,0.57,-4.24,2.54,0.16,-0.56
2022-01-28 8:41:41.6110,-0.01,-0.025,-0.475,3.51,-0.01,-4.4,2.47,0.08,-0.69
2022-01-28 8:41:41.6210,-0.004,-0.013,-0.46,3.45,-0.32,-4.61,2.36,-0.01,-0.78
2022-01-28 8:41:41.6310,0.01,0.012,-0.449,3.36,-0.68,-4.72,2.22,-0.09,-0.87
2022-01-28 8:41:41.6410,0.026,0.035,-0.438,3.21,-1.11,-4.81,2.04,-0.17,-0.98
2022-01-28 8:41:41.6510,0.044,0.05,-0.438,3.04,-1.44,-4.88,1.83,-0.23,-1.09
2022-01-28 8:41:41.6610,0.055,0.058,-0.428,2.87,-1.7,-4.88,1.55,-0.26,-1.23
2022-01-28 8:41:41.6710,0.069,0.052,-0.428,2.75,-1.81,-4.96,1.22,-0.26,-1.37
2022-01-28 8:41:41.6810,0.086,0.039,-0.434,2.6,-1.77,-4.92,0.88,-0.25,-1.55
2022-01-28 8:41:41.6920,0.108,0.029,-0.459,2.41,-1.66,-4.82,0.53,-0.29,-1.75
2022-01-28 8:41:41.7010,0.142,0.03,-0.513,2.17,-1.59,-4.46,0.23,-0.38,-1.98
2022-01-28 8:41:41.7120,0.19,0.025,-0.584,1.74,-1.55,-3.87,-0.01,-0.49,-2.17
2022-01-28 8:41:41.7210,0.226,-0.0,-0.647,1.29,-1.33,-3.19,-0.14,-0.58,-2.29
2022-01-28 8:41:41.7310,0.261,-0.004,-0.71,0.92,-1.03,-2.62,-0.17,-0.64,-2.35
2022-01-28 8:41:41.7410,0.306,-0.001,-0.756,0.53,-0.98,-2.04,-0.14,-0.62,-2.35
2022-01-28 8:41:41.7510,0.367,-0.013,-0.797,-0.01,-0.87,-1.68,-0.14,-0.57,-2.31
2022-01-28 8:41:41.7610,0.431,-0.015,-0.882,-0.67,-0.62,-1.2,-0.24,-0.52,-2.27
2022-01-28 8:41:41.7710,0.49,0.035,-0.976,-1.33,-0.71,-0.23,-0.24,-0.52,-2.27
2022-01-28 8:41:41.7810,0.536,0.087,-1.075,-1.86,-1.14,0.61,-0.78,-0.29,-2.33
2022-01-28 8:41:41.7920,0.58,0.109,-1.196,-2.32,-1.4,1.68,-1.13,-0.22,-2.44
2022-01-28 8:41:41.8020,0.616,0.129,-1.343,-2.75,-1.35,2.92,-1.46,-0.3,-2.64
2022-01-28 8:41:41.8120,0.643,0.194,-1.515,-3.09,-1.46,4.48,-1.74,-0.48,-2.92
2022-01-28 8:41:41.8220,0.67,0.263,-1.642,-3.39,-1.94,6.08,-1.9,-0.53,-3.15
2022-01-28 8:41:41.8320,0.695,0.299,-1.697,-3.72,-2.22,7.04,-1.93,-0.31,-3.24
2022-01-28 8:41:41.8420,0.707,0.332,-1.719,-3.96,-2.23,7.4,-1.88,0.06,-3.18
2022-01-28 8:41:41.8520,0.707,0.39,-1.743,-4.06,-2.37,7.63,-1.83,0.36,-3.07
2022-01-28 8:41:41.8620,0.703,0.449,-1.745,-4.02,-2.74,7.88,-1.81,0.51,-2.97
2022-01-28 8:41:41.8720,0.718,0.443,-1.676,-4.03,-2.89,7.7,-1.81,0.59,-2.85
2022-01-28 8:41:41.8820,0.745,0.381,-1.568,-4.23,-2.31,6.88,-1.77,0.64,-2.6
2022-01-28 8:41:41.8920,0.767,0.311,-1.456,-4.49,-1.42,5.84,-1.64,0.71,-2.16
2022-01-28 8:41:41.9020,0.775,0.225,-1.349,-4.64,-0.47,4.78,-1.43,0.74,-1.52
2022-01-28 8:41:41.9120,0.759,0.137,-1.264,-4.59,0.57,3.87,-1.15,0.66,-0.75
2022-01-28 8:41:41.9220,0.721,0.073,-1.195,-4.32,1.48,3.15,-0.81,0.44,0.03
2022-01-28 8:41:41.9320,0.654,0.037,-1.138,-3.8,2.06,2.56,-0.81,0.44,0.03
2022-01-28 8:41:41.9420,0.566,0.021,-1.08,-3.03,2.33,2.01,-0.1,-0.23,1.34
2022-01-28 8:41:41.9520,0.47,0.01,-1.022,-2.11,2.42,1.44,0.23,-0.54,1.77
2022-01-28 8:41:41.9620,0.373,0.008,-0.973,-1.17,2.41,0.87,0.51,-0.8,2.02
2022-01-28 8:41:41.9650,0.276,0.009,-0.931,-1.17,2.41,0.87,0.74,-0.98,2.11
2022-01-28 8:41:41.9810,0.181,-0.005,-0.891,0.71,2.32,-0.04,0.93,-1.08,2.1
2022-01-28 8:41:41.9910,0.103,-0.031,-0.858,2.18,2.5,-0.82,1.08,-1.13,2.02
2022-01-28 8:41:42.0010,0.05,-0.057,-0.823,2.55,2.56,-1.24,1.19,-1.12,1.88
2022-01-28 8:41:42.0110,0.02,-0.069,-0.784,2.73,2.46,-1.7,1.24,-1.05,1.72
2022-01-28 8:41:42.0200,-0.001,-0.072,-0.735,2.84,2.35,-2.3,1.24,-0.87,1.55
2022-01-28 8:41:42.0300,-0.013,-0.079,-0.67,2.84,2.35,-2.3,1.23,-0.56,1.37
2022-01-28 8:41:42.0400,-0.006,-0.081,-0.61,2.69,2.12,-3.54,1.18,-0.21,1.21
2022-01-28 8:41:42.0510,0.014,-0.088,-0.565,2.69,2.12,-3.54,1.1,0.13,1.08
2022-01-28 8:41:42.0600,0.04,-0.099,-0.533,2.24,2.06,-4.23,0.99,0.4,0.99
2022-01-28 8:41:42.0710,0.066,-0.11,-0.512,2.24,2.06,-4.23,0.83,0.57,0.91
2022-01-28 8:41:42.0800,0.089,-0.109,-0.5,2.04,2.01,-4.4,0.83,0.57,0.91
2022-01-28 8:41:42.0910,0.099,-0.099,-0.499,1.92,1.87,-4.47,0.35,0.63,0.72
2022-01-28 8:41:42.1010,0.096,-0.08,-0.52,1.94,1.67,-4.39,0.06,0.5,0.57
2022-01-28 8:41:42.1110,0.092,-0.055,-0.546,2.05,1.4,-4.12,-0.24,0.35,0.38
2022-01-28 8:41:42.1210,0.096,-0.033,-0.567,2.09,0.97,-3.67,-0.52,0.23,0.16
2022-01-28 8:41:42.1310,0.1,-0.012,-0.586,2.09,0.97,-3.67,-0.77,0.14,-0.05
2022-01-28 8:41:42.1410,0.099,0.013,-0.617,2.11,0.64,-3.09,-1.02,0.07,-0.25
2022-01-28 8:41:42.1510,0.102,0.036,-0.653,2.11,0.64,-3.09,-1.24,0.05,-0.45
2022-01-28 8:41:42.1610,0.111,0.059,-0.686,2.06,0.54,-2.74,-1.24,0.05,-0.45
2022-01-28 8:41:42.1710,0.121,0.096,-0.729,1.96,0.41,-2.37,-1.43,0.06,-0.64
2022-01-28 8:41:42.1810,0.125,0.152,-0.779,1.88,0.13,-1.89,-1.78,0.11,-1.03
2022-01-28 8:41:42.1910,0.138,0.194,-0.829,1.83,-0.23,-1.36,-1.94,0.14,-1.19
2022-01-28 8:41:42.2010,0.161,0.221,-0.883,1.64,-0.37,-0.87,-2.08,0.11,-1.28
2022-01-28 8:41:42.2110,0.173,0.252,-0.961,1.42,-0.4,-0.19,-2.15,-0.02,-1.32
2022-01-28 8:41:42.2210,0.171,0.3,-1.026,1.35,-0.53,0.6,-2.1,-0.19,-1.33
2022-01-28 8:41:42.2310,0.175,0.355,-1.078,1.34,-0.81,1.22,-1.93,-0.38,-1.33
2022-01-28 8:41:42.2410,0.179,0.405,-1.128,1.22,-1.12,1.76,-1.67,-0.56,-1.29
2022-01-28 8:41:42.2510,0.188,0.442,-1.18,1.11,-1.36,2.28,-1.35,-0.74,-1.19
2022-01-28 8:41:42.2610,0.201,0.464,-1.245,0.89,-1.48,2.91,-0.98,-0.85,-1.04
2022-01-28 8:41:42.2710,0.216,0.484,-1.261,0.67,-1.51,3.41,-0.98,-0.85,-1.04
2022-01-28 8:41:42.2810,0.237,0.521,-1.28,0.39,-1.66,3.51,-0.18,-0.89,-0.77
2022-01-28 8:41:42.2910,0.267,0.555,-1.297,0.05,-1.98,3.73,0.1,-0.9,-0.7
2022-01-28 8:41:42.3020,0.299,0.57,-1.29,-0.38,-2.23,3.79,0.25,-0.88,-0.64
2022-01-28 8:41:42.3110,0.319,0.562,-1.275,-0.75,-2.28,3.64,0.23,-0.84,-0.58
2022-01-28 8:41:42.3210,0.328,0.562,-1.266,-1.0,-2.2,3.48,0.09,-0.79,-0.55
2022-01-28 8:41:42.3310,0.328,0.576,-1.266,-1.15,-2.27,3.4,-0.14,-0.73,-0.55
2022-01-28 8:41:42.3410,0.317,0.581,-1.264,-1.2,-2.39,3.4,-0.4,-0.63,-0.57
2022-01-28 8:41:42.3510,0.293,0.565,-1.248,-0.94,-2.09,3.14,-0.62,-0.47,-0.59
2022-01-28 8:41:42.3620,0.265,0.549,-1.223,-0.94,-2.09,3.14,-0.76,-0.26,-0.61
2022-01-28 8:41:42.3710,0.242,0.528,-1.189,-0.72,-1.87,2.88,-0.8,-0.04,-0.62
2022-01-28 8:41:42.3810,0.231,0.48,-1.149,-0.58,-1.5,2.54,-0.73,0.15,-0.57
2022-01-28 8:41:42.3920,0.229,0.403,-1.106,-0.53,0.05,1.75,-0.54,0.31,-0.46
2022-01-28 8:41:42.4020,0.23,0.32,-1.058,-0.53,0.05,1.75,-0.24,0.4,-0.3
2022-01-28 8:41:42.4120,0.227,0.255,-0.999,-0.52,0.87,1.27,0.11,0.44,-0.13
2022-01-28 8:41:42.4220,0.223,0.203,-0.937,-0.45,1.46,0.69,0.46,0.42,0.04
2022-01-28 8:41:42.4320,0.216,0.162,-0.878,-0.25,2.24,-0.48,0.46,0.42,0.04
2022-01-28 8:41:42.4420,0.204,0.127,-0.828,-0.08,2.5,-0.99,0.93,0.23,0.33
2022-01-28 8:41:42.4520,0.188,0.092,-0.773,-0.08,2.5,-0.99,0.93,0.23,0.33
2022-01-28 8:41:42.4620,0.171,0.06,-0.717,0.12,2.77,-1.59,1.11,0.05,0.49
2022-01-28 8:41:42.4720,0.154,0.044,-0.677,0.5,2.92,-2.51,1.11,-0.01,0.49
2022-01-28 8:41:42.4820,0.137,0.038,-0.641,0.5,2.92,-2.51,1.07,-0.03,0.44
2022-01-28 8:41:42.4910,0.121,0.034,-0.605,0.8336321268975735,2.7972661605477334,-3.26,1.07,-0.03,0.44
2022-01-28 8:41:42.5020,0.109,0.029,-0.582,0.95,2.77,-3.48,0.92,0.02,0.23
2022-01-28 8:41:42.5120,0.102,0.017,-0.564,1.0,2.82,-3.67,0.83,0.08,0.1
2022-01-28 8:41:42.5220,0.1,0.007,-0.555,1.0,2.82,-3.67,0.73,0.14,-0.04
2022-01-28 8:41:42.5320,0.1,0.016,-0.558,1.02,2.78,-3.73,0.64,0.18,-0.21
2022-01-28 8:41:42.5420,0.1,0.037,-0.557,1.03,2.56,-3.71,0.64,0.18,-0.21
2022-01-28 8:41:42.5520,0.098,0.061,-0.555,1.05,2.29,-3.75,0.5,0.3,-0.57
2022-01-28 8:41:42.5620,0.092,0.087,-0.561,1.09,2.01,-3.76,0.45,0.37,-0.71
2022-01-28 8:41:42.5720,0.088,0.116,-0.575,1.16,1.73,-3.67,0.4,0.41,-0.84
2022-01-28 8:41:42.5820,0.088,0.158,-0.599,1.21,1.37,-3.5,0.35,0.45,-0.96
2022-01-28 8:41:42.5920,0.097,0.206,-0.624,1.2,0.91,-3.25,0.28,0.52,-1.05
2022-01-28 8:41:42.6020,0.109,0.243,-0.653,1.11,0.45,-3.01,0.19,0.62,-1.11
2022-01-28 8:41:42.6120,0.137,0.264,-0.695,0.97,0.15,-2.66,0.06,0.74,-1.18
2022-01-28 8:41:42.6220,0.174,0.282,-0.746,0.67,-0.02,-2.21,-0.08,0.86,-1.25
2022-01-28 8:41:42.6320,0.222,0.3,-0.806,-0.15,-0.3,-1.04,-0.08,0.86,-1.25
2022-01-28 8:41:42.6430,0.282,0.31,-0.853,-0.15,-0.3,-1.04,-0.33,1.21,-1.48
2022-01-28 8:41:42.6520,0.34,0.307,-0.885,-1.1386530084908009,-0.19,-0.25,-0.34,1.45,-1.53
2022-01-28 8:41:42.6620,0.383,0.317,-0.931,-1.41,-0.35,0.28,-0.29,1.71,-1.51
2022-01-28 8:41:42.6730,0.41,0.366,-0.995,-1.52,-0.89,1.1,-0.23,1.84,-1.43
2022-01-28 8:41:42.6820,0.43,0.439,-1.089,-1.59,-1.58,2.05,-0.19,1.78,-1.35
2022-01-28 8:41:42.6940,0.449,0.52,-1.17,-1.65,-2.36,2.88,-0.23,1.55,-1.35
2022-01-28 8:41:42.7030,0.462,0.611,-1.251,-1.65,-3.18,3.77,-0.39,1.18,-1.43
2022-01-28 8:41:42.7130,0.459,0.694,-1.34,-1.65,-3.18,3.77,-0.64,0.81,-1.55
2022-01-28 8:41:42.7230,0.435,0.755,-1.408,-1.2,-4.2,5.3,-0.91,0.51,-1.65
2022-01-28 8:41:42.7330,0.409,0.77,-1.457,-1.2,-4.2,5.3,-1.09,0.44,-1.64
2022-01-28 8:41:42.7430,0.398,0.724,-1.454,-1.01,-3.98,5.63,-1.09,0.44,-1.64
2022-01-28 8:41:42.7530,0.401,0.649,-1.439,-0.96,-3.23,5.57,-0.95,0.81,-1.13
2022-01-28 8:41:42.7630,0.412,0.56,-1.418,-1.11,-1.3,5.31,-0.7,0.95,-0.65
2022-01-28 8:41:42.7730,0.424,0.464,-1.399,-1.11,-1.3,5.31,-0.45,0.87,-0.1
2022-01-28 8:41:42.7830,0.439,0.37,-1.389,-1.19,-0.27,5.22,-0.23,0.54,0.37
2022-01-28 8:41:42.7930,0.442,0.301,-1.372,-1.24,0.61,5.15,-0.07,0.05,0.7
2022-01-28 8:41:42.8030,0.429,0.279,-1.338,-1.16,1.15,4.95,0.07,-0.51,0.86
2022-01-28 8:41:42.8130,0.396,0.297,-1.299,-0.93,1.15,4.58,0.18,-1.03,0.87
2022-01-28 8:41:42.8230,0.351,0.31,-1.243,-0.58,0.91,4.13,0.25,-1.38,0.84
2022-01-28 8:41:42.8330,0.3,0.285,-1.182,-0.16,0.86,3.49,0.25,-1.38,0.84
2022-01-28 8:41:42.8430,0.257,0.225,-1.124,0.23,1.21,2.86,0.25,-1.44,0.83
2022-01-28 8:41:42.8530,0.222,0.153,-1.067,0.52,1.82,2.24,0.28,-1.18,0.85
2022-01-28 8:41:42.8630,0.186,0.09,-1.017,0.77,2.47,1.64,0.4,-0.83,0.87
2022-01-28 8:41:42.8730,0.149,0.052,-0.973,1.38,3.18,0.67,0.6,-0.49,0.85
2022-01-28 8:41:42.8830,0.123,0.032,-0.922,1.38,3.18,0.67,0.8275906443595886,-0.17,0.82
2022-01-28 8:41:42.8930,0.105,0.013,-0.858,1.59,3.29,0.07,1.06,0.08,0.79
2022-01-28 8:41:42.9030,0.095,-0.005,-0.802,1.87,3.42,-1.13,1.27,0.22,0.76
2022-01-28 8:41:42.9140,0.093,-0.017,-0.749,1.87,3.42,-1.13,1.44,0.25,0.72
2022-01-28 8:41:42.9230,0.1,-0.014,-0.698,1.85,3.14,-2.21,1.57,0.19,0.66
2022-01-28 8:41:42.9330,0.112,-0.011,-0.647,1.85,3.14,-2.21,1.67,0.08,0.59
2022-01-28 8:41:42.9430,0.129,-0.017,-0.594,1.59,2.9,-3.33,1.74,-0.03,0.54
2022-01-28 8:41:42.9540,0.147,-0.025,-0.543,1.59,2.9,-3.33,1.76,-0.14,0.49
2022-01-28 8:41:42.9630,0.161,-0.029,-0.501,1.42,2.8,-3.87,1.76,-0.2,0.45
2022-01-28 8:41:42.9740,0.169,-0.014,-0.462,1.32,2.61,-4.28,1.7,-0.21,0.41
2022-01-28 8:41:42.9840,0.175,0.006,-0.422,1.18,1.92,-5.17,1.59,-0.14,0.39
2022-01-28 8:41:42.9940,0.182,0.014,-0.381,1.18,1.92,-5.17,1.42,-0.02,0.38
2022-01-28 8:41:43.0040,0.193,0.021,-0.364,1.08,1.72,-5.54,1.15,0.07,0.37
2022-01-28 8:41:43.0140,0.208,0.039,-0.38,0.84,1.13,-5.37,0.79,0.11,0.33
2022-01-28 8:41:43.0240,0.223,0.073,-0.419,0.84,1.13,-5.37,0.33,0.1,0.29
2022-01-28 8:41:43.0340,0.241,0.108,-0.477,0.52,0.37,-4.26,-0.2,0.03,0.22
2022-01-28 8:41:43.0440,0.261,0.134,-0.56,0.52,0.37,-4.26,-0.77,-0.08,0.14
2022-01-28 8:41:43.0540,0.289,0.155,-0.651,0.3,0.17,-3.41,-1.29,-0.19,0.06
2022-01-28 8:41:43.0640,0.313,0.185,-0.744,-0.21,-0.16,-1.61,-1.68,-0.16,0.03
2022-01-28 8:41:43.0740,0.334,0.212,-0.829,-0.44,-0.2,-0.66,-1.86,0.01,0.08
2022-01-28 8:41:43.0840,0.36,0.223,-0.929,-0.44,-0.2,-0.66,-1.77,0.28,0.2
2022-01-28 8:41:43.0940,0.384,0.231,-1.012,-0.69,-0.12,0.32,-1.46,0.59,0.36
2022-01-28 8:41:43.1040,0.402,0.256,-1.087,-0.93,-0.32,1.95,-1.09,0.8,0.51
2022-01-28 8:41:43.1140,0.408,0.309,-1.166,-0.93,-0.32,1.95,-0.79,0.84,0.62
2022-01-28 8:41:43.1240,0.403,0.368,-1.239,-0.69,-1.35,3.56,-0.65,0.61,0.68
2022-01-28 8:41:43.1350,0.391,0.43,-1.331,-0.55,-1.92,4.47,-0.62,0.16,0.63
2022-01-28 8:41:43.1440,0.395,0.482,-1.405,-0.55,-1.92,4.47,-0.6,-0.34,0.5
2022-01-28 8:41:43.1540,0.407,0.499,-1.441,-0.75,-2.29,5.3,-0.52,-0.73,0.33
2022-01-28 8:41:43.1650,0.414,0.493,-1.446,-0.75,-2.29,5.3,-0.37,-0.95,0.19
2022-01-28 8:41:43.1740,0.412,0.494,-1.439,-0.85,-2.2,5.29,-0.37,-0.95,0.19
2022-01-28 8:41:43.1840,0.407,0.489,-1.401,-0.89,-2.2,5.12,0.08,-0.84,0.13
2022-01-28 8:41:43.1940,0.401,0.464,-1.325,-0.93,-2.07,4.55,0.35,-0.54,0.26
2022-01-28 8:41:43.2050,0.396,0.429,-1.253,-0.93,-1.77,3.75,0.58,-0.25,0.42
2022-01-28 8:41:43.2140,0.396,0.414,-1.197,-0.94,-1.51,3.07,0.67,-0.08,0.52
2022-01-28 8:41:43.2250,0.398,0.418,-1.162,-0.96,-1.54,2.59,0.62,-0.04,0.51
2022-01-28 8:41:43.2350,0.39,0.407,-1.132,-0.8,-1.53,2.0,0.45,-0.12,0.42
2022-01-28 8:41:43.2440,0.369,0.392,-1.122,-0.58,-1.5,1.95,0.22,-0.29,0.26
2022-01-28 8:41:43.2550,0.34,0.394,-1.116,-0.58,-1.5,1.95,0.01,-0.41,0.07
2022-01-28 8:41:43.2640,0.3,0.388,-1.086,-0.27,-1.53,1.79,0.01,-0.41,0.07
2022-01-28 8:41:43.2750,0.263,0.367,-1.05,0.09,-1.41,1.43,-0.15,-0.39,-0.22
2022-01-28 8:41:43.2840,0.239,0.347,-1.014,0.37,-1.17,1.08,-0.15,-0.39,-0.22
2022-01-28 8:41:43.2950,0.227,0.326,-0.974,0.57,-0.68,0.29,0.02,-0.24,-0.41
2022-01-28 8:41:43.3050,0.222,0.283,-0.926,0.57,-0.18,-0.23,0.16,-0.18,-0.44
2022-01-28 8:41:43.3140,0.221,0.228,-0.87,0.57,-0.18,-0.23,0.31,-0.15,-0.4
2022-01-28 8:41:43.3250,0.222,0.176,-0.814,0.54,0.35,-0.79,0.44,-0.15,-0.31
2022-01-28 8:41:43.3350,0.224,0.129,-0.753,0.5,0.83,-1.37,0.56,-0.16,-0.19
2022-01-28 8:41:43.3450,0.225,0.092,-0.696,0.47,1.22,-1.98,0.65,-0.19,-0.07
2022-01-28 8:41:43.3550,0.221,0.061,-0.644,0.46,1.5,-2.53,0.65,-0.19,-0.07
2022-01-28 8:41:43.3650,0.214,0.028,-0.6,0.49,1.75,-3.04,0.71,-0.25,0.17
2022-01-28 8:41:43.3750,0.203,-0.003,-0.565,0.55,2.01,-3.46,0.69,-0.29,0.27
2022-01-28 8:41:43.3850,0.189,-0.025,-0.54,0.65,2.21,-3.78,0.65,-0.32,0.33
2022-01-28 8:41:43.3950,0.171,-0.046,-0.52,0.95,2.47,-4.24,0.61,-0.35,0.37
2022-01-28 8:41:43.4050,0.15,-0.056,-0.504,0.95,2.47,-4.24,0.58,-0.36,0.36
2022-01-28 8:41:43.4150,0.13,-0.05,-0.499,1.3,2.27,-4.43,0.54,-0.36,0.3
2022-01-28 8:41:43.4250,0.109,-0.034,-0.495,1.3,2.27,-4.43,0.5,-0.33,0.21
2022-01-28 8:41:43.4350,0.096,-0.023,-0.49,1.46,2.05,-4.49,0.46,-0.27,0.09
2022-01-28 8:41:43.4450,0.095,-0.023,-0.488,1.52,1.95,-4.55,0.42,-0.19,-0.04
2022-01-28 8:41:43.4550,0.103,-0.019,-0.494,1.47,1.91,-4.4753389924764635,0.36,-0.11,-0.17
2022-01-28 8:41:43.4650,0.117,-0.009,-0.506,1.18,1.68,-4.37,0.29,-0.01,-0.31
2022-01-28 8:41:43.4760,0.136,-0.001,-0.518,1.18,1.68,-4.37,0.22,0.1,-0.44
2022-01-28 8:41:43.4860,0.152,0.016,-0.538,1.0,1.58,-4.25,0.12,0.19,-0.57
2022-01-28 8:41:43.4950,0.167,0.05,-0.578,0.85,1.33,-3.98,0.01,0.24,-0.7
2022-01-28 8:41:43.5050,0.18,0.094,-0.633,0.72,0.97,-3.52,-0.13,0.24,-0.83
2022-01-28 8:41:43.5150,0.195,0.143,-0.697,0.6,0.53,-2.94,-0.13,0.24,-0.83
2022-01-28 8:41:43.5260,0.217,0.187,-0.782,0.44,0.09,-2.24,-0.27,0.21,-0.94
2022-01-28 8:41:43.5350,0.249,0.225,-0.865,-0.17,-0.52,-0.58,-0.4,0.15,-1.03
2022-01-28 8:41:43.5460,0.293,0.242,-0.937,-0.17,-0.52,-0.58,-0.29,0.28,-0.97
2022-01-28 8:41:43.5560,0.337,0.23,-0.972,-0.63,-0.5,0.05,-0.29,0.28,-0.97
2022-01-28 8:41:43.5660,0.373,0.235,-0.979,-1.01,-0.34,0.25,0.24,1.03,-0.67
2022-01-28 8:41:43.5760,0.405,0.269,-0.994,-1.49,-0.95,0.57,0.41,1.48,-0.54
2022-01-28 8:41:43.5860,0.427,0.337,-1.032,-1.53,-1.73,1.13,0.34,1.76,-0.51
2022-01-28 8:41:43.5960,0.442,0.412,-1.104,-1.53,-1.73,1.13,0.06,1.84,-0.59
2022-01-28 8:41:43.6060,0.47,0.448,-1.176,-1.55,-2.36,1.91,-0.27,1.7,-0.75
2022-01-28 8:41:43.6160,0.505,0.45,-1.244,-1.72,-2.52,2.64,-0.54,1.38,-0.96
2022-01-28 8:41:43.6260,0.52,0.464,-1.325,-1.84,-2.67,4.32,-0.69,0.87,-1.18
2022-01-28 8:41:43.6360,0.514,0.515,-1.411,-1.84,-2.67,4.32,-0.81,0.32,-1.37
2022-01-28 8:41:43.6460,0.506,0.554,-1.451,-1.71,-3.1,5.04,-0.89,-0.1,-1.5
2022-01-28 8:41:43.6560,0.502,0.544,-1.467,-1.68,-3.18,5.35,-0.91,-0.34,-1.47
2022-01-28 8:41:43.6660,0.481,0.499,-1.466,-1.46,-2.13,5.36,-0.82,-0.36,-1.26
2022-01-28 8:41:43.6760,0.464,0.429,-1.436,-1.46,-2.13,5.36,-0.82,-0.36,-1.26
2022-01-28 8:41:43.6860,0.452,0.361,-1.414,-1.41,-1.3,5.06,-0.41,-0.17,-0.59
2022-01-28 8:41:43.6960,0.432,0.315,-1.406,-1.11,-0.18,4.84,-0.21,-0.23,-0.28
2022-01-28 8:41:43.7080,0.402,0.27,-1.395,-1.11,-0.18,4.84,-0.08,-0.44,-0.04
2022-01-28 8:41:43.7160,0.362,0.219,-1.386,-0.8,0.33,4.73,-0.04,-0.71,0.13
2022-01-28 8:41:43.7260,0.317,0.177,-1.365,-0.44,0.81,4.6,-0.06,-0.94,0.23
2022-01-28 8:41:43.7360,0.269,0.127,-1.334,-0.03,1.21,4.34,-0.09,-1.08,0.3
2022-01-28 8:41:43.7460,0.225,0.058,-1.292,0.68,2.48,3.48,-0.09,-1.09,0.35
2022-01-28 8:41:43.7570,0.183,-0.007,-1.238,0.68,2.48,3.48,-0.01,-0.99,0.37
2022-01-28 8:41:43.7670,0.145,-0.056,-1.178,0.99,3.05,2.92,0.15,-0.78,0.36
2022-01-28 8:41:43.7770,0.111,-0.092,-1.093,1.27,3.48,2.21,0.38,-0.48,0.35
2022-01-28 8:41:43.7870,0.083,-0.115,-1.003,1.75,3.89,0.43,0.64,-0.15,0.35
2022-01-28 8:41:43.7970,0.063,-0.125,-0.923,1.75,3.89,0.43,0.88,0.15,0.34
2022-01-28 8:41:43.8070,0.051,-0.13,-0.847,1.93,3.88,-0.34,1.1,0.39,0.36
2022-01-28 8:41:43.8170,0.051,-0.135,-0.773,2.02,3.75,-1.82,1.27,0.55,0.37
2022-01-28 8:41:43.8270,0.067,-0.131,-0.709,1.89,3.55,-2.43,1.41,0.6,0.36
2022-01-28 8:41:43.8370,0.092,-0.121,-0.653,1.89,3.55,-2.43,1.5,0.57,0.33
2022-01-28 8:41:43.8470,0.125,-0.111,-0.597,1.67,3.31,-2.98,1.56,0.48,0.27
2022-01-28 8:41:43.8570,0.16,-0.107,-0.536,1.12,2.9,-4.18,1.58,0.37,0.2
2022-01-28 8:41:43.8670,0.187,-0.106,-0.48,1.12,2.9,-4.18,1.58,0.27,0.13
2022-01-28 8:41:43.8770,0.212,-0.116,-0.428,0.9,2.78,-4.72,1.56,0.17,0.09
2022-01-28 8:41:43.8870,0.224,-0.117,-0.389,0.7,2.73,-5.22,1.53,0.08,0.05
2022-01-28 8:41:43.8970,0.23,-0.1,-0.371,0.57,2.17,-5.7,1.47,-0.02,0.01
2022-01-28 8:41:43.9070,0.246,-0.074,-0.353,0.57,2.17,-5.7,1.41,-0.05,-0.02
2022-01-28 8:41:43.9170,0.255,-0.048,-0.324,0.42,1.77,-5.95,1.31,-0.04,-0.02
2022-01-28 8:41:43.9270,0.262,-0.017,-0.319,0.35,1.39,-6.2,1.16,-0.01,0.03
2022-01-28 8:41:43.9370,0.283,0.024,-0.342,0.24,0.92,-6.17,0.95,0.01,0.16
2022-01-28 8:41:43.9470,0.326,0.067,-0.407,-0.04,0.41,-5.8,0.72,0.08,0.38
2022-01-28 8:41:43.9580,0.388,0.111,-0.493,-0.53,-0.12,-5.05,0.72,0.08,0.38
2022-01-28 8:41:43.9680,0.469,0.139,-0.579,-1.97,-0.87,-3.35,0.21,0.32,0.98
2022-01-28 8:41:43.9780,0.537,0.176,-0.685,-2.49,-1.52,-2.06,-0.11,0.36,1.16
2022-01-28 8:41:43.9870,0.577,0.291,-0.858,-2.49,-1.52,-2.06,-0.61,0.32,1.13
2022-01-28 8:41:43.9970,0.598,0.432,-1.056,-2.88,-4.07,1.76,-1.28,0.25,0.94
2022-01-28 8:41:44.0080,0.605,0.515,-1.253,-2.9,-4.51,3.7,-1.92,0.21,0.69
2022-01-28 8:41:44.0170,0.609,0.538,-1.431,-2.9,-4.51,3.7,-2.22,0.34,0.48
2022-01-28 8:41:44.0260,0.617,0.558,-1.55,-3.01,-4.62,6.37,-2.04,0.56,0.33
2022-01-28 8:41:44.0370,0.639,0.615,-1.666,-3.16,-5.02,7.47,-2.04,0.56,0.33
2022-01-28 8:41:44.0470,0.658,0.646,-1.721,-3.16,-5.02,7.47,-0.7,0.63,0.36
2022-01-28 8:41:44.0570,0.679,0.612,-1.7,-3.29,-4.96,7.68,-0.03,0.49,0.56
2022-01-28 8:41:44.0670,0.697,0.552,-1.641,-3.51,-3.88,6.6,0.41,0.29,0.78
2022-01-28 8:41:44.0780,0.698,0.497,-1.53,-3.43,-3.44,5.45,0.59,0.12,0.94
2022-01-28 8:41:44.0880,0.682,0.444,-1.422,-3.17,-2.98,4.48,0.61,-0.02,1.03
2022-01-28 8:41:44.0980,0.641,0.387,-1.331,-2.67,-2.55,3.59,0.55,-0.13,1.03
2022-01-28 8:41:44.1080,0.583,0.342,-1.239,-2.67,-2.55,3.59,0.49,-0.15,0.97
2022-01-28 8:41:44.1180,0.521,0.298,-1.141,-1.47,-1.83,1.67,0.45,-0.1,0.88
2022-01-28 8:41:44.1280,0.457,0.247,-1.042,-1.47,-1.83,1.67,0.41,-0.0,0.78
2022-01-28 8:41:44.1380,0.402,0.194,-0.951,-0.86,-1.38,0.71,0.37,0.09,0.68
2022-01-28 8:41:44.1480,0.361,0.138,-0.873,-0.02,-0.39,-0.87,0.37,0.09,0.68
2022-01-28 8:41:44.1580,0.338,0.074,-0.802,-0.02,-0.39,-0.87,0.28,0.1,0.5
2022-01-28 8:41:44.1680,0.319,0.015,-0.734,0.19,0.19,-1.55,0.21,0.08,0.47
2022-01-28 8:41:44.1770,0.298,-0.036,-0.668,0.63,1.14,-2.82,0.12,0.09,0.5
2022-01-28 8:41:44.1880,0.275,-0.082,-0.619,0.63,1.14,-2.82,0.02,0.1,0.57
2022-01-28 8:41:44.1970,0.25,-0.119,-0.59,0.87,1.54,-3.21,-0.08,0.1,0.66
2022-01-28 8:41:44.2080,0.218,-0.147,-0.566,1.15,1.85,-3.46,-0.15,0.09,0.73
2022-01-28 8:41:44.2180,0.184,-0.17,-0.549,1.49,2.08,-3.67,-0.15,0.09,0.73
2022-01-28 8:41:44.2280,0.148,-0.186,-0.548,1.83,2.28,-3.7340073573589327,-0.22,-0.08,0.82
2022-01-28 8:41:44.2380,0.111,-0.193,-0.558,2.21,2.39,-3.74,-0.22,-0.25,0.81
2022-01-28 8:41:44.2480,0.081,-0.193,-0.574,2.54,2.42,-3.62,-0.19,-0.48,0.74
2022-01-28 8:41:44.2580,0.055,-0.192,-0.593,2.98,2.39,-3.31,-0.13,-0.73,0.62
2022-01-28 8:41:44.2680,0.033,-0.191,-0.609,2.98,2.39,-3.31,-0.08,-1.0,0.45
2022-01-28 8:41:44.2780,0.013,-0.187,-0.624,3.21,2.29,-3.09,-0.04,-1.19,0.25
2022-01-28 8:41:44.2880,0.0,-0.172,-0.633,3.21,2.29,-3.09,-0.03,-1.28,0.04
2022-01-28 8:41:44.2980,-0.007,-0.156,-0.657,3.19,2.13,-2.98,-0.01,-1.21,-0.16
2022-01-28 8:41:44.3080,-0.012,-0.135,-0.668,3.08,1.75,-2.78,0.04,-0.94,-0.32
2022-01-28 8:41:44.3180,-0.012,-0.113,-0.676,3.08,1.75,-2.78,0.1,-0.52,-0.43
2022-01-28 8:41:44.3280,0.003,-0.082,-0.71,2.73,1.16,-2.23,0.17,-0.05,-0.53
2022-01-28 8:41:44.3390,0.023,-0.037,-0.761,2.73,1.16,-2.23,0.17,-0.05,-0.53
2022-01-28 8:41:44.3480,0.067,0.002,-0.827,2.47,0.72,-1.69,0.31,0.67,-0.73
2022-01-28 8:41:44.3580,0.131,0.029,-0.886,1.98,0.38,-1.02,0.42,0.86,-0.81
2022-01-28 8:41:44.3680,0.204,0.047,-0.929,0.75,-0.01,-0.12,0.59,0.98,-0.8
2022-01-28 8:41:44.3780,0.266,0.06,-0.948,0.75,-0.01,-0.12,0.82,1.09,-0.65
2022-01-28 8:41:44.3880,0.301,0.097,-0.952,0.33,-0.23,0.02,1.05,1.21,-0.41
2022-01-28 8:41:44.3980,0.323,0.161,-0.949,0.07,-1.55,0.08,1.19,1.38,-0.16
2022-01-28 8:41:44.4090,0.348,0.229,-0.955,0.07,-1.55,0.08,1.17,1.54,0.03
2022-01-28 8:41:44.4190,0.394,0.244,-0.988,-0.12,-2.17,0.27,0.95,1.58,0.06
2022-01-28 8:41:44.4280,0.454,0.233,-1.055,-0.49,-2.26,0.76,0.59,1.39,-0.15
2022-01-28 8:41:44.4390,0.509,0.229,-1.159,-1.29,-2.23,2.73,0.2,0.94,-0.52
2022-01-28 8:41:44.4490,0.538,0.219,-1.248,-1.29,-2.23,2.73,0.2,0.94,-0.52
2022-01-28 8:41:44.4590,0.542,0.198,-1.281,-1.32,-1.8,3.61,-0.12,0.45,-0.92
2022-01-28 8:41:44.4690,0.526,0.179,-1.282,-1.13,-1.6,3.57,-0.54,-0.03,-1.32
2022-01-28 8:41:44.4790,0.504,0.182,-1.279,-0.91,-1.64,3.62,-0.76,-0.06,-1.44
2022-01-28 8:41:44.4890,0.483,0.213,-1.302,-0.73,-1.8,3.91,-1.04,-0.01,-1.56
2022-01-28 8:41:44.5070,0.47,0.225,-1.324,-0.72,-1.58,4.04,-1.04,-0.01,-1.56
2022-01-28 8:41:44.5100,0.499,0.184,-1.333,-0.72,-1.58,4.04,-1.48,0.17,-1.66
2022-01-28 8:41:44.5180,0.56,0.099,-1.324,-1.18,-0.79,4.13,-1.44,0.28,-1.5
2022-01-28 8:41:44.5290,0.609,-0.006,-1.275,-1.77,0.35,3.9,-1.44,0.28,-1.5
2022-01-28 8:41:44.5390,0.608,-0.081,-1.2,-2.09,1.51,3.34,-0.88,0.47,-0.69
2022-01-28 8:41:44.5490,0.546,-0.12,-1.135,-1.82,2.22,2.63,-0.55,0.43,-0.14
2022-01-28 8:41:44.5590,0.454,-0.15,-1.074,-1.02,2.64,2.07,-0.22,0.3,0.42
2022-01-28 8:41:44.5690,0.368,-0.184,-1.014,0.74,3.29,0.96,0.09,0.09,0.89
2022-01-28 8:41:44.5790,0.299,-0.205,-0.972,0.74,3.29,0.96,0.41,-0.19,1.19
2022-01-28 8:41:44.5900,0.255,-0.217,-0.931,1.36,3.39,0.58,0.72,-0.47,1.29
2022-01-28 8:41:44.5990,0.239,-0.234,-0.885,1.67,3.43,0.12,0.99,-0.72,1.2
2022-01-28 8:41:44.6090,0.233,-0.251,-0.839,1.74,3.49,-0.35,1.18,-0.91,0.99
2022-01-28 8:41:44.6190,0.225,-0.262,-0.781,1.73,3.5,-0.87,1.28,-1.02,0.71
2022-01-28 8:41:44.6290,0.216,-0.257,-0.72,1.76,3.41,-1.52,1.27,-1.02,0.41
2022-01-28 8:41:44.6390,0.217,-0.242,-0.651,1.72,3.16,-2.19,1.18,-0.9,0.12
2022-01-28 8:41:44.6490,0.222,-0.225,-0.593,1.6,2.89,-2.9,1.18,-0.9,0.12
2022-01-28 8:41:44.6600,0.236,-0.201,-0.555,1.2,2.29,-3.77,0.82,-0.47,-0.31
2022-01-28 8:41:44.6690,0.264,-0.182,-0.537,0.86,2.06,-3.86,0.6,-0.24,-0.44
2022-01-28 8:41:44.6790,0.298,-0.167,-0.543,0.86,2.06,-3.86,0.41,-0.06,-0.52
2022-01-28 8:41:44.6900,0.338,-0.143,-0.561,0.49,1.87,-3.77,0.41,-0.06,-0.52
2022-01-28 8:41:44.6990,0.369,-0.105,-0.596,-0.13,1.17,-3.12,0.16,0.14,-0.48
2022-01-28 8:41:44.7090,0.384,-0.065,-0.651,-0.13,1.17,-3.12,0.13,0.1,-0.37
2022-01-28 8:41:44.7190,0.395,-0.019,-0.711,-0.35,0.32,-1.99,0.13,0.0,-0.22
2022-01-28 8:41:44.7300,0.409,0.018,-0.753,-0.35,0.32,-1.99,0.13,0.0,-0.22
2022-01-28 8:41:44.7400,0.421,0.038,-0.795,-0.5,0.02,-1.6,0.21,-0.3,0.05
2022-01-28 8:41:44.7500,0.426,0.056,-0.834,-0.59,-0.16,-1.2,0.29,-0.44,0.19
2022-01-28 8:41:44.7600,0.427,0.079,-0.857,-0.7,-0.66,-0.75,0.38,-0.42,0.33
2022-01-28 8:41:44.7700,0.421,0.108,-0.863,-0.7,-0.66,-0.75,0.48,-0.24,0.49
2022-01-28 8:41:44.7790,0.411,0.147,-0.888,-0.64,-1.01,-0.65,0.52,0.01,0.64
2022-01-28 8:41:44.7900,0.417,0.206,-0.939,-0.6,-1.53,-0.34,0.42,0.14,0.71
2022-01-28 8:41:44.8000,0.434,0.28,-1.062,-0.71,-2.25,0.39,0.16,0.05,0.66
2022-01-28 8:41:44.8100,0.464,0.329,-1.178,-0.9,-3.0,1.75,-0.22,-0.08,0.49
2022-01-28 8:41:44.8200,0.497,0.34,-1.218,-1.23,-3.35,2.56,-0.65,-0.18,0.28
2022-01-28 8:41:44.8300,0.511,0.337,-1.276,-1.52,-3.35,2.93,-0.99,-0.29,0.09
2022-01-28 8:41:44.8400,0.506,0.344,-1.344,-1.58,-3.28,3.59,-1.17,-0.38,-0.02
2022-01-28 8:41:44.8500,0.498,0.357,-1.397,-1.55,-3.29,4.19,-1.14,-0.43,-0.04
2022-01-28 8:41:44.8600,0.474,0.368,-1.419,-1.46,-3.31,4.62,-0.94,-0.41,0.04
2022-01-28 8:41:44.8700,0.448,0.366,-1.394,-1.23,-3.28,4.65,-0.64,-0.34,0.16
2022-01-28 8:41:44.8800,0.423,0.352,-1.361,-1.02,-3.13,4.3,-0.36,-0.32,0.29
2022-01-28 8:41:44.8900,0.396,0.323,-1.346,-0.8,-2.9,4.04,-0.16,-0.42,0.4
2022-01-28 8:41:44.9000,0.342,0.28,-1.326,-0.48,-2.52,3.88,-0.1,-0.53,0.41
2022-01-28 8:41:44.9100,0.375,0.26,-1.278,-0.18,-2.17,3.63,-0.12,-0.5,0.23
2022-01-28 8:41:44.9200,0.358,0.224,-1.192,-0.62,-1.94,2.94,-0.15,-0.48,0.06
2022-01-28 8:41:44.9300,0.296,0.189,-1.163,-0.15,-1.58,2.21,-0.21,-0.49,-0.1
2022-01-28 8:41:44.9400,0.29,0.133,-1.103,0.16,-0.54,1.09,-0.3,-0.38,-0.22
2022-01-28 8:41:44.9500,0.284,0.076,-1.003,0.23,0.0,0.24,-0.39,-0.22,-0.31
2022-01-28 8:41:44.9600,0.271,0.029,-0.937,0.23,0.0,0.24,-0.48,-0.02,-0.34
2022-01-28 8:41:44.9700,0.265,-0.026,-0.852,0.32,0.54,-0.43,-0.54,0.24,-0.33
2022-01-28 8:41:44.9800,0.255,-0.078,-0.779,0.37,1.15,-1.29,-0.57,0.46,-0.28
2022-01-28 8:41:44.9900,0.234,-0.115,-0.734,0.55,1.66,-1.85,-0.55,0.61,-0.19
2022-01-28 8:41:45.0010,0.211,-0.151,-0.694,0.81,2.06,-2.26,-0.47,0.65,-0.09
2022-01-28 8:41:45.0100,0.183,-0.194,-0.663,1.44,2.94,-2.84,-0.34,0.58,0.01
2022-01-28 8:41:45.0210,0.161,-0.224,-0.64,1.44,2.94,-2.84,-0.18,0.43,0.09
2022-01-28 8:41:45.0300,0.151,-0.239,-0.616,1.67,3.2,-3.04,0.01,0.23,0.12
2022-01-28 8:41:45.0410,0.148,-0.245,-0.598,1.76,3.33,-3.26,0.13,0.08,0.11
2022-01-28 8:41:45.0500,0.15,-0.25,-0.581,1.78,3.35,-3.4,0.13,0.08,0.11
2022-01-28 8:41:45.0600,0.141,-0.257,-0.567,1.8,3.42,-3.59,0.3,-0.12,0.08
2022-01-28 8:41:45.0700,0.134,-0.246,-0.566,1.88,3.39,-3.66,0.53,-0.46,-0.0
2022-01-28 8:41:45.0800,0.117,-0.23,-0.55,2.07,2.95,-3.9,0.61,-0.56,-0.06
2022-01-28 8:41:45.0910,0.099,-0.199,-0.546,2.07,2.95,-3.9,0.66,-0.59,-0.13
2022-01-28 8:41:45.1010,0.075,-0.163,-0.555,2.22,2.57,-3.9,0.68,-0.58,-0.22
2022-01-28 8:41:45.1110,0.06,-0.117,-0.589,2.38,2.13,-3.79,0.66,-0.57,-0.32
2022-01-28 8:41:45.1210,0.058,-0.073,-0.657,2.42,1.6,-3.33,0.61,-0.56,-0.44
2022-01-28 8:41:45.1310,0.065,-0.036,-0.746,2.15,0.72,-1.68,0.56,-0.57,-0.58
2022-01-28 8:41:45.1410,0.098,0.018,-0.835,2.15,0.72,-1.68,0.51,-0.47,-0.75
2022-01-28 8:41:45.1500,0.138,0.062,-0.879,1.27,-0.19,-0.64,0.52,-0.23,-0.86
2022-01-28 8:41:45.1600,0.181,0.079,-0.924,1.27,-0.19,-0.64,0.59,0.05,-0.89
2022-01-28 8:41:45.1700,0.225,0.111,-0.968,0.82,-0.42,-0.14,0.71,0.44,-0.83
2022-01-28 8:41:45.1800,0.255,0.14,-0.951,0.44,-0.78,0.11,0.83,0.98,-0.7
2022-01-28 8:41:45.1900,0.268,0.174,-0.932,0.26,-1.09,-0.19,0.83,1.51,-0.59
2022-01-28 8:41:45.2000,0.29,0.228,-0.978,0.09639164239168167,-2.174241532087326,0.53,0.66,1.91,-0.59
2022-01-28 8:41:45.2110,0.337,0.278,-1.053,0.09,-2.18,0.53,0.35,2.07,-0.78
2022-01-28 8:41:45.2210,0.423,0.287,-1.149,-0.31,-2.59,1.43,0.07,1.98,-1.09
2022-01-28 8:41:45.2310,0.531,0.24,-1.208,-1.11,-2.46,2.37,-0.1,1.75,-1.43
2022-01-28 8:41:45.2410,0.611,0.195,-1.24,-2.42,-1.54,3.27,-0.16,1.37,-1.68
2022-01-28 8:41:45.2520,0.652,0.209,-1.289,-2.59,-1.79,3.81,-0.22,0.85,-1.83
2022-01-28 8:41:45.2610,0.665,0.254,-1.323,-2.59,-1.79,3.81,-0.35,0.33,-1.87
2022-01-28 8:41:45.2720,0.663,0.271,-1.318,-2.54,-2.01,3.92,-0.55,-0.07,-1.82
2022-01-28 8:41:45.2810,0.657,0.263,-1.306,-2.54,-2.01,3.92,-0.55,-0.07,-1.82
2022-01-28 8:41:45.2910,0.657,0.229,-1.288,-2.58,-1.1,3.57,-0.87,-0.34,-1.44
2022-01-28 8:41:45.3020,0.662,0.153,-1.266,-2.58,-1.1,3.57,-0.84,-0.29,-1.08
2022-01-28 8:41:45.3110,0.656,0.067,-1.248,-2.67,-0.15,3.39,-0.84,-0.29,-1.08
2022-01-28 8:41:45.3210,0.617,0.003,-1.228,-2.54,0.77,3.19,-0.55,-0.22,-0.22
2022-01-28 8:41:45.3310,0.541,-0.033,-1.21,-2.03,1.34,3.01,-0.39,-0.34,0.17
2022-01-28 8:41:45.3420,0.462,-0.07,-1.175,-0.53,2.12,2.39,-0.27,-0.51,0.46
2022-01-28 8:41:45.3520,0.382,-0.101,-1.14,-0.53,2.12,2.39,-0.27,-0.51,0.46
2022-01-28 8:41:45.3620,0.301,-0.113,-1.133,0.94,2.43,2.14,-0.27,-0.97,0.64
2022-01-28 8:41:45.3720,0.231,-0.121,-1.153,1.47,2.53,2.34,-0.34,-1.25,0.49
2022-01-28 8:41:45.3820,0.184,-0.132,-1.171,1.47,2.53,2.34,-0.42,-1.45,0.19
2022-01-28 8:41:45.3940,0.167,-0.152,-1.162,1.56,2.73,2.34,-0.42,-1.45,0.19
2022-01-28 8:41:45.4040,0.17,-0.182,-1.131,1.5,3.02,2.11,-0.5,-1.35,-0.53
2022-01-28 8:41:45.4140,0.173,-0.209,-1.1,1.33,3.38,1.76,-0.5,-1.1,-0.79
2022-01-28 8:41:45.4240,0.172,-0.214,-1.068,1.21,3.65,1.43,-0.44,-0.76,-0.91
2022-01-28 8:41:45.4340,0.16,-0.199,-1.008,1.17,3.68,1.06,-0.28,-0.28,-0.84
2022-01-28 8:41:45.4440,0.142,-0.177,-0.935,1.31,3.53,0.34,-0.05,0.21,-0.6
2022-01-28 8:41:45.4540,0.135,-0.167,-0.885,1.48,3.36,-0.28,0.19,0.62,-0.27
2022-01-28 8:41:45.4640,0.149,-0.167,-0.837,1.54,3.3,-0.72,0.42,0.9,0.06
2022-01-28 8:41:45.4740,0.171,-0.158,-0.801,1.43,3.24,-1.15,0.42,0.9,0.06
2022-01-28 8:41:45.4840,0.188,-0.15,-0.775,1.33,3.05,-1.42,0.84,0.92,0.48
2022-01-28 8:41:45.4940,0.202,-0.163,-0.738,1.26,2.94,-1.69,1.04,0.77,0.6
2022-01-28 8:41:45.5040,0.212,-0.188,-0.697,1.22,3.02,-2.09,1.22,0.57,0.68
2022-01-28 8:41:45.5140,0.22,-0.211,-0.658,1.18,3.13,-2.47,1.36,0.38,0.73
2022-01-28 8:41:45.5240,0.213,-0.218,-0.615,1.18,3.17,-2.86,1.48,0.25,0.75
2022-01-28 8:41:45.5340,0.195,-0.199,-0.572,1.34,2.97,-3.31,1.54,0.19,0.75
2022-01-28 8:41:45.5440,0.179,-0.17,-0.539,1.54,2.57,-3.7,1.54,0.23,0.73
2022-01-28 8:41:45.5540,0.17,-0.141,-0.513,1.71,2.1,-4.02,1.46,0.33,0.74
2022-01-28 8:41:45.5640,0.181,-0.119,-0.532,1.77,1.69,-4.14,1.32,0.38,0.74
2022-01-28 8:41:45.5740,0.207,-0.099,-0.591,1.63,1.34,-3.75,1.16,0.38,0.69
2022-01-28 8:41:45.5840,0.243,-0.087,-0.64,1.37,1.05,-3.16,0.98,0.39,0.57
2022-01-28 8:41:45.5940,0.284,-0.077,-0.691,1.04,0.85,-2.69,0.81,0.4,0.4
2022-01-28 8:41:45.6040,0.331,-0.061,-0.759,0.65,0.66,-2.11,0.65,0.45,0.24
2022-01-28 8:41:45.6140,0.357,-0.029,-0.818,0.26,0.37,-1.42,0.54,0.57,0.13
2022-01-28 8:41:45.6240,0.362,0.018,-0.878,0.17,-0.03,-0.86,0.46,0.74,0.08
2022-01-28 8:41:45.6340,0.375,0.09,-0.968,0.2,-0.63,-0.16,0.37,0.8,0.01
2022-01-28 8:41:45.6450,0.414,0.152,-1.089,0.05,-1.39,0.9,0.27,0.69,-0.13
2022-01-28 8:41:45.6550,0.475,0.173,-1.209,-0.36,-1.88,2.14,0.17,0.45,-0.32
2022-01-28 8:41:45.6650,0.54,0.158,-1.294,-0.97,-1.92,3.23,0.1,0.2,-0.48
2022-01-28 8:41:45.6750,0.586,0.139,-1.353,-1.55,-1.7,3.95,0.08,0.01,-0.56
2022-01-28 8:41:45.6850,0.598,0.138,-1.398,-1.89,-1.56,4.47,0.11,-0.12,-0.51
2022-01-28 8:41:45.6950,0.577,0.15,-1.415,-1.88,-1.62,4.84,0.22,-0.13,-0.34
2022-01-28 8:41:45.7050,0.546,0.15,-1.403,-1.62,-1.72,4.87,0.41,-0.05,-0.11
2022-01-28 8:41:45.7150,0.513,0.129,-1.376,-1.31,-1.68,4.69,0.64,0.03,0.08
2022-01-28 8:41:45.7250,0.483,0.102,-1.348,-0.98,-1.5,4.4,0.81,0.03,0.15
2022-01-28 8:41:45.7350,0.456,0.073,-1.323,-0.72,-1.31,4.15,0.89,-0.05,0.11
2022-01-28 8:41:45.7450,0.422,0.031,-1.28,-0.43,-1.07,3.87,0.9,-0.16,-0.0
2022-01-28 8:41:45.7550,0.383,-0.01,-1.222,-0.1,-0.72,3.36,0.87,-0.25,-0.15
2022-01-28 8:41:45.7640,0.342,-0.034,-1.163,0.28,-0.44,2.78,0.8,-0.32,-0.31
2022-01-28 8:41:45.7750,0.303,-0.056,-1.102,0.65,-0.29,2.19,0.7,-0.37,-0.47
2022-01-28 8:41:45.7850,0.263,-0.087,-1.043,1.0,-0.08,1.58,0.57,-0.39,-0.61
2022-01-28 8:41:45.7950,0.225,-0.12,-0.991,1.35,0.22,1.01,0.42,-0.41,-0.73
2022-01-28 8:41:45.8050,0.191,-0.154,-0.945,1.69,0.53,0.52,0.29,-0.42,-0.84
2022-01-28 8:41:45.8150,0.159,-0.194,-0.898,1.97,0.91,0.06,0.19,-0.42,-0.94
2022-01-28 8:41:45.8250,0.126,-0.227,-0.851,2.27,1.31,-0.42,0.16,-0.41,-1.01
2022-01-28 8:41:45.8350,0.098,-0.249,-0.801,2.55,1.62,-0.9,0.18,-0.37,-1.07
2022-01-28 8:41:45.8450,0.075,-0.264,-0.747,2.78,1.82,-1.42,0.23,-0.33,-1.09
2022-01-28 8:41:45.8550,0.056,-0.282,-0.695,2.96,1.99,-1.97,0.31,-0.29,-1.09
2022-01-28 8:41:45.8650,0.04,-0.301,-0.648,3.12,2.18,-2.46,0.4,-0.27,-1.06
2022-01-28 8:41:45.8750,0.03,-0.314,-0.604,3.24,2.35,-2.93,0.51,-0.27,-1.04
2022-01-28 8:41:45.8850,0.028,-0.316,-0.569,3.29,2.44,-3.32,0.62,-0.3,-1.05
2022-01-28 8:41:45.8950,0.028,-0.306,-0.54,3.28,2.39,-3.65,0.71,-0.36,-1.1
2022-01-28 8:41:45.9050,0.034,-0.294,-0.513,3.23,2.25,-3.94,0.78,-0.46,-1.2
2022-01-28 8:41:45.9150,0.037,-0.274,-0.495,3.13,2.08,-4.19,0.84,-0.6,-1.33
2022-01-28 8:41:45.9260,0.037,-0.25,-0.486,3.08,1.84,-4.34,0.85,-0.77,-1.49
2022-01-28 8:41:45.9350,0.042,-0.223,-0.477,3.0,1.56,-4.45,0.84,-0.97,-1.68
2022-01-28 8:41:45.9450,0.048,-0.195,-0.467,2.86,1.27,-4.56,0.79,-1.13,-1.87
2022-01-28 8:41:45.9560,0.058,-0.173,-0.454,2.7,1.0,-4.7,0.72,-1.24,-2.06
2022-01-28 8:41:45.9660,0.063,-0.155,-0.442,2.51,0.82,-4.87,0.63,-1.28,-2.24
2022-01-28 8:41:45.9680,0.065,-0.127,-0.445,2.51,0.82,-4.87,0.53,-1.25,-2.43
2022-01-28 8:41:45.9810,0.074,-0.089,-0.453,2.38,0.63,-4.99,0.45,-1.1,-2.62
2022-01-28 8:41:45.9910,0.08,-0.038,-0.455,2.07,-0.04,-4.91,0.39,-0.8,-2.76
2022-01-28 8:41:46.0020,0.082,0.028,-0.469,2.07,-0.04,-4.91,0.32,-0.34,-2.81
2022-01-28 8:41:46.0110,0.085,0.095,-0.502,2.0,-0.55,-4.9,0.25,0.16,-2.72
2022-01-28 8:41:46.0210,0.12,0.13,-0.575,1.91,-1.68,-4.25,0.18,0.56,-2.54
2022-01-28 8:41:46.0320,0.178,0.161,-0.686,1.91,-1.68,-4.25,0.18,0.56,-2.54
2022-01-28 8:41:46.0410,0.246,0.211,-0.779,1.52,-1.89,-3.33,0.1,0.87,-2.33
2022-01-28 8:41:46.0520,0.336,0.235,-0.849,1.02,-2.23,-2.22,-0.01,1.64,-1.87
2022-01-28 8:41:46.0610,0.446,0.198,-0.951,-0.37,-2.59,-0.57,0.07,2.01,-1.58
2022-01-28 8:41:46.0710,0.568,0.122,-1.056,-0.37,-2.59,-0.57,0.36,2.39,-1.25
2022-01-28 8:41:46.0810,0.648,0.088,-1.121,-1.33,-1.98,0.58,0.36,2.39,-1.25
2022-01-28 8:41:46.0920,0.643,0.18,-1.17,-2.44,-1.39,2.18,1.0,3.11,-0.73
2022-01-28 8:41:46.1020,0.618,0.309,-1.282,-2.44,-1.39,2.18,0.86,3.09,-0.7
2022-01-28 8:41:46.1120,0.603,0.364,-1.458,-1.47,-3.73,4.45,0.48,2.55,-0.93
2022-01-28 8:41:46.1220,0.584,0.411,-1.69,-1.47,-3.73,4.45,0.08,1.47,-1.49
2022-01-28 8:41:46.1310,0.621,0.461,-1.905,-1.08,-4.14,6.55,0.08,1.47,-1.49
2022-01-28 8:41:46.1410,0.702,0.46,-2.007,-0.92,-4.56,8.91,-0.67,-0.73,-2.86
2022-01-28 8:41:46.1510,0.732,0.368,-1.979,-2.3,-4.21,11.1,-0.67,-0.73,-2.86
2022-01-28 8:41:46.1630,0.719,0.301,-1.946,-2.47,-3.0,10.64,-1.35,-1.12,-2.86
2022-01-28 8:41:46.1740,0.719,0.283,-1.938,-2.47,-3.0,10.64,-1.35,-1.12,-2.86
2022-01-28 8:41:46.1840,0.738,0.193,-1.982,-2.63,-1.81,10.4,-1.69,-0.93,-1.94
2022-01-28 8:41:46.1940,0.754,0.003,-2.058,-2.63,-1.81,10.4,-1.61,-1.01,-1.26
2022-01-28 8:41:46.2040,0.709,-0.17,-2.086,-3.04,1.88,11.64,-1.22,-1.08,-0.63
2022-01-28 8:41:46.2140,0.599,-0.233,-2.044,-2.44,3.32,11.59,-0.57,-1.11,-0.18
2022-01-28 8:41:46.2240,0.454,-0.236,-1.96,-1.3,3.65,10.98,-0.57,-1.1,0.08
2022-01-28 8:41:46.2340,0.309,-0.244,-1.81,0.09,3.62,9.88,0.9,-1.02,0.2
2022-01-28 8:41:46.2420,0.199,-0.266,-1.624,0.09,3.62,9.88,1.43,-0.93,0.21
2022-01-28 8:41:46.2520,0.121,-0.289,-1.441,2.19,3.75,6.28,1.79,-0.87,0.13
2022-01-28 8:41:46.2620,0.067,-0.301,-1.265,2.78,3.79,4.45,2.0,-0.85,-0.03
2022-01-28 8:41:46.2730,0.039,-0.302,-1.108,2.78,3.79,4.45,2.09,-0.85,-0.25
2022-01-28 8:41:46.2820,0.023,-0.3,-0.968,3.14,3.67,2.73,2.11,-0.83,-0.51
2022-01-28 8:41:46.2920,0.012,-0.291,-0.839,3.27,3.49,1.23,2.07,-0.79,-0.79
2022-01-28 8:41:46.3020,0.006,-0.279,-0.731,3.32,3.28,-0.16,1.99,-0.7,-1.08
2022-01-28 8:41:46.3120,0.007,-0.263,-0.64,3.35,3.01,-1.38,1.9,-0.58,-1.35
2022-01-28 8:41:46.3220,0.008,-0.243,-0.565,3.31,2.74,-2.4,1.79,-0.46,-1.63
2022-01-28 8:41:46.3320,0.008,-0.223,-0.499,3.24,2.45,-3.25,1.69,-0.33,-1.87
2022-01-28 8:41:46.3420,0.01,-0.201,-0.444,3.2,2.14,-3.96,1.58,-0.21,-2.08
2022-01-28 8:41:46.3520,0.015,-0.177,-0.401,3.17,1.84,-4.58,1.48,-0.12,-2.27
2022-01-28 8:41:46.3620,0.025,-0.154,-0.369,3.13,1.55,-5.07,1.37,-0.06,-2.44
2022-01-28 8:41:46.3730,0.034,-0.132,-0.343,3.06,1.26,-5.45,1.37,-0.06,-2.44
2022-01-28 8:41:46.3820,0.045,-0.118,-0.323,2.98,0.99,-5.73,1.1,-0.01,-2.63
2022-01-28 8:41:46.3920,0.058,-0.11,-0.315,2.89,0.77,-5.96,0.95,-0.03,-2.67
2022-01-28 8:41:46.4030,0.072,-0.107,-0.312,2.78,0.65,-6.11,0.8,-0.08,-2.68
2022-01-28 8:41:46.4120,0.079,-0.1,-0.312,2.55,0.58,-6.19,0.66,-0.14,-2.67
2022-01-28 8:41:46.4230,0.089,-0.092,-0.32,2.55,0.58,-6.19,0.53,-0.23,-2.65
2022-01-28 8:41:46.4320,0.103,-0.088,-0.348,2.48,0.53,-6.16,0.41,-0.37,-2.64
2022-01-28 8:41:46.4420,0.123,-0.081,-0.392,2.35,0.51,-6.04,0.41,-0.37,-2.64
2022-01-28 8:41:46.4530,0.144,-0.062,-0.432,2.16,0.53,-5.69,0.23,-0.73,-2.68
2022-01-28 8:41:46.4630,0.16,-0.036,-0.472,1.65,0.31,-4.92,0.14,-0.87,-2.7
2022-01-28 8:41:46.4730,0.183,-0.022,-0.513,1.65,0.31,-4.92,0.04,-1.02,-2.71
2022-01-28 8:41:46.4830,0.216,-0.004,-0.576,1.03,0.13,-4.12,-0.1,-1.16,-2.7
2022-01-28 8:41:46.4930,0.254,0.034,-0.644,1.03,0.13,-4.12,-0.28,-1.2,-2.67
2022-01-28 8:41:46.5030,0.301,0.079,-0.697,0.58,-0.03,-3.47,-0.46,-1.13,-2.61
2022-01-28 8:41:46.5130,0.337,0.121,-0.762,-0.49,-0.67,-2.4,-0.65,-0.98,-2.49
2022-01-28 8:41:46.5230,0.365,0.162,-0.823,-0.49,-0.67,-2.4,-0.65,-0.98,-2.49
2022-01-28 8:41:46.5340,0.398,0.218,-0.87,-1.23,-1.24,-1.24,-1.12,-0.11,-1.98
2022-01-28 8:41:46.5430,0.446,0.245,-0.933,-1.23,-1.24,-1.24,-1.38,0.56,-1.58
2022-01-28 8:41:46.5530,0.51,0.219,-0.995,-1.6,-1.58,-0.73,-1.59,1.36,-1.12
2022-01-28 8:41:46.5630,0.581,0.175,-1.044,-2.61,-0.9,0.55,-1.72,2.14,-0.75
2022-01-28 8:41:46.5740,0.652,0.167,-1.108,-2.61,-0.9,0.55,-1.8,2.72,-0.53
2022-01-28 8:41:46.5830,0.703,0.166,-1.2,-3.52,-0.21,1.95,-1.84,2.83,-0.47
2022-01-28 8:41:46.5930,0.708,0.162,-1.35,-3.52,-0.21,1.95,-1.84,2.43,-0.53
2022-01-28 8:41:46.6030,0.675,0.186,-1.525,-3.63,0.02,3.19,-1.84,2.43,-0.53
2022-01-28 8:41:46.6130,0.628,0.242,-1.706,-2.82,-0.03,6.74,-1.42,0.38,-0.9
2022-01-28 8:41:46.6230,0.585,0.293,-1.86,-2.82,-0.03,6.74,-0.93,-0.86,-1.05
2022-01-28 8:41:46.6330,0.554,0.339,-1.966,-2.36,-0.44,8.48,-0.35,-1.91,-1.07
2022-01-28 8:41:46.6430,0.519,0.382,-2.028,-2.03,-1.2,10.63,0.21,-2.54,-0.92
2022-01-28 8:41:46.6550,0.471,0.407,-2.025,-2.03,-1.2,10.63,0.72,-2.57,-0.67
2022-01-28 8:41:46.6660,0.415,0.44,-1.967,-1.88,-1.55,10.92,1.12,-2.0,-0.4
2022-01-28 8:41:46.6760,0.373,0.436,-1.893,-1.61,-1.87,10.56,1.12,-2.0,-0.4
2022-01-28 8:41:46.6840,0.347,0.397,-1.817,-1.26,-2.22,9.83,1.45,-0.06,-0.05
2022-01-28 8:41:46.6940,0.321,0.368,-1.728,-0.98,-2.12,9.05,1.42,0.81,0.01
2022-01-28 8:41:46.7030,0.29,0.346,-1.634,-0.75,-1.87,8.23,1.35,1.45,0.07
2022-01-28 8:41:46.7140,0.258,0.32,-1.541,-0.36,-1.78,7.33,1.29,1.83,0.18
2022-01-28 8:41:46.7240,0.225,0.288,-1.455,0.08,-1.67,6.42,1.29,1.83,0.18
2022-01-28 8:41:46.7340,0.192,0.242,-1.383,0.58,-1.52,5.56,1.42,1.78,0.49
2022-01-28 8:41:46.7440,0.15,0.204,-1.337,1.07,-1.29,4.8,1.62,1.38,0.66
2022-01-28 8:41:46.7540,0.113,0.18,-1.29,1.61,-0.99,4.23,1.86,0.83,0.79
2022-01-28 8:41:46.7630,0.068,0.167,-1.233,2.57,-0.86,3.33,2.11,0.25,0.88
2022-01-28 8:41:46.7740,0.016,0.16,-1.168,2.57,-0.86,3.33,2.11,0.25,0.88
2022-01-28 8:41:46.7840,-0.022,0.154,-1.091,3.07,-0.99,2.74,2.54,-0.73,0.83
2022-01-28 8:41:46.7940,-0.046,0.151,-1.003,3.51,-1.18,2.03,2.67,-1.05,0.66
2022-01-28 8:41:46.8040,-0.062,0.151,-0.912,3.75,-1.39,1.2,2.71,-1.22,0.42
2022-01-28 8:41:46.8140,-0.073,0.147,-0.808,3.88,-1.9,-0.69,2.63,-1.21,0.17
2022-01-28 8:41:46.8240,-0.075,0.137,-0.709,3.88,-1.9,-0.69,2.46,-1.05,-0.04
2022-01-28 8:41:46.8340,-0.068,0.118,-0.63,3.85,-2.07,-1.74,2.19,-0.8,-0.21
2022-01-28 8:41:46.8440,-0.052,0.088,-0.575,3.57,-2.14,-3.35,1.89,-0.54,-0.35
2022-01-28 8:41:46.8540,-0.031,0.054,-0.544,3.35,-1.96,-3.79,1.58,-0.32,-0.5
2022-01-28 8:41:46.8640,-0.009,0.026,-0.53,3.35,-1.96,-3.79,1.31,-0.17,-0.66
2022-01-28 8:41:46.8740,0.011,0.002,-0.525,3.12,-1.78,-4.01,1.31,-0.17,-0.66
2022-01-28 8:41:46.8840,0.028,-0.019,-0.532,2.9,-1.61,-4.1,0.88,-0.11,-1.05
2022-01-28 8:41:46.8940,0.04,-0.032,-0.551,2.57,-1.31,-3.97,0.71,-0.24,-1.24
2022-01-28 8:41:46.9040,0.058,-0.039,-0.583,2.57,-1.31,-3.97,0.56,-0.49,-1.45
2022-01-28 8:41:46.9140,0.079,-0.042,-0.625,2.44,-1.24,-3.73,0.42,-0.8,-1.65
2022-01-28 8:41:46.9240,0.092,-0.04,-0.66,2.2,-1.19,-3.39,0.28,-1.07,-1.86
2022-01-28 8:41:46.9340,0.097,-0.022,-0.682,1.97,-1.15,-3.0,0.15,-1.22,-2.04
2022-01-28 8:41:46.9440,0.096,-0.002,-0.702,1.81,-1.19,-2.74,0.04,-1.19,-2.18
2022-01-28 8:41:46.9540,0.108,0.001,-0.702,1.7,-1.36,-2.56,-0.03,-1.02,-2.29
2022-01-28 8:41:46.9640,0.131,-0.001,-0.721,1.6,-1.3703685168921949,-2.4536975097656253,-0.06,-0.76,-2.39
2022-01-28 8:41:46.9750,0.164,-0.012,-0.743,1.38,-1.38,-2.46,-0.04,-0.48,-2.45
2022-01-28 8:41:46.9850,0.2,-0.024,-0.755,1.09,-1.26,-2.24,0.01,-0.21,-2.49
2022-01-28 8:41:46.9940,0.229,-0.032,-0.757,0.74,-1.07,-2.07,0.01,-0.21,-2.49
2022-01-28 8:41:47.0050,0.248,-0.043,-0.75,0.41,-0.92,-1.99,0.07,0.23,-2.45
2022-01-28 8:41:47.0140,0.256,-0.053,-0.745,0.2,-0.77,-2.02,0.08,0.36,-2.37
2022-01-28 8:41:47.0240,0.256,-0.057,-0.732,0.1,-0.6,-2.08,0.09,0.47,-2.29
2022-01-28 8:41:47.0350,0.255,-0.064,-0.707,0.12,-0.47,-2.12,0.12,0.55,-2.2
2022-01-28 8:41:47.0440,0.259,-0.07,-0.69,0.2,-0.38,-2.29,0.18,0.59,-2.11
2022-01-28 8:41:47.0550,0.267,-0.081,-0.68,0.27,-0.26,-2.51,0.26,0.57,-2.02
2022-01-28 8:41:47.0650,0.276,-0.09,-0.668,0.27,0.01,-2.7,0.34,0.5,-1.95
2022-01-28 8:41:47.0750,0.285,-0.093,-0.652,0.27,0.01,-2.8178691172599795,0.39,0.41,-1.92
2022-01-28 8:41:47.0850,0.29,-0.093,-0.634,0.22,0.14,-2.97,0.41,0.32,-1.91
2022-01-28 8:41:47.0950,0.297,-0.096,-0.619,0.22,0.14,-2.97,0.37,0.21,-1.92
2022-01-28 8:41:47.1040,0.308,-0.106,-0.612,0.22,0.16,-3.13,0.27,0.08,-1.95
2022-01-28 8:41:47.1150,0.32,-0.113,-0.61,0.16,0.24,-3.25,0.13,-0.08,-2.02
2022-01-28 8:41:47.1250,0.333,-0.117,-0.617,0.06,0.38,-3.28,-0.06,-0.29,-2.13
2022-01-28 8:41:47.1350,0.346,-0.122,-0.64,-0.05,0.5,-3.29,-0.29,-0.54,-2.27
2022-01-28 8:41:47.1440,0.354,-0.128,-0.67,-0.21,0.61,-3.17,-0.29,-0.54,-2.27
2022-01-28 8:41:47.1550,0.355,-0.128,-0.705,-0.38,0.77,-2.93,-0.79,-0.96,-2.51
2022-01-28 8:41:47.1650,0.355,-0.115,-0.75,-0.49,0.96,-2.65,-0.79,-0.96,-2.51
2022-01-28 8:41:47.1750,0.35,-0.09,-0.808,-0.58,1.06,-2.3,-1.19,-1.08,-2.6
2022-01-28 8:41:47.1850,0.347,-0.066,-0.863,-0.66,1.06,-1.85,-1.31,-0.99,-2.57
2022-01-28 8:41:47.1950,0.338,-0.044,-0.923,-0.77,0.96,-0.78,-1.38,-0.81,-2.47
2022-01-28 8:41:47.2050,0.338,-0.037,-0.975,-0.77,0.96,-0.78,-1.4,-0.55,-2.32
2022-01-28 8:41:47.2150,0.344,-0.025,-1.015,-0.77,0.99,-0.19,-1.37,-0.25,-2.13
2022-01-28 8:41:47.2250,0.333,0.01,-1.078,-0.9,1.12,0.24,-1.37,-0.25,-2.13
2022-01-28 8:41:47.2350,0.314,0.092,-1.171,-0.92,1.13,0.7,-1.27,0.27,-1.72
2022-01-28 8:41:47.2450,0.301,0.183,-1.289,-0.79,0.78,1.44,-1.27,0.49,-1.48
2022-01-28 8:41:47.2560,0.327,0.215,-1.408,-0.59,0.04,2.48,-1.2,0.76,-1.25
2022-01-28 8:41:47.2660,0.383,0.197,-1.504,-0.54,-0.55,3.71,-1.03,1.08,-1.07
2022-01-28 8:41:47.2760,0.435,0.218,-1.593,-1.37,-0.23,5.77,-0.74,1.34,-1.03
2022-01-28 8:41:47.2860,0.458,0.266,-1.669,-1.37,-0.23,5.77,-0.36,1.49,-1.04
2022-01-28 8:41:47.2950,0.455,0.297,-1.686,-1.67,-0.52,6.69,0.04,1.57,-1.04
2022-01-28 8:41:47.3050,0.439,0.351,-1.669,-1.45,-1.18,7.3,0.36,1.48,-1.04
2022-01-28 8:41:47.3150,0.43,0.415,-1.645,-1.18,-1.85,7.2,0.61,1.26,-1.0
2022-01-28 8:41:47.3260,0.433,0.424,-1.596,-1.18,-1.85,7.2,0.82,0.9,-0.94
2022-01-28 8:41:47.3350,0.439,0.431,-1.571,-1.06,-2.31,6.84,0.94,0.47,-0.88
2022-01-28 8:41:47.3450,0.443,0.432,-1.52,-1.04,-2.37,6.46,1.0,0.12,-0.79
2022-01-28 8:41:47.3550,0.424,0.402,-1.447,-1.1,-2.53,6.17,1.04,-0.1,-0.63
2022-01-28 8:41:47.3660,0.377,0.382,-1.381,-1.08,-2.48,5.54,1.12,-0.19,-0.43
2022-01-28 8:41:47.3760,0.313,0.381,-1.319,-0.81,-2.25,4.81,1.26,-0.19,-0.24
2022-01-28 8:41:47.3860,0.255,0.366,-1.257,0.32,-2.32,3.52,1.45,-0.16,-0.08
2022-01-28 8:41:47.3960,0.209,0.334,-1.198,0.32,-2.32,3.52,1.66,-0.14,0.03
2022-01-28 8:41:47.4060,0.167,0.299,-1.13,0.83,-2.22,2.91,1.87,-0.13,0.08
2022-01-28 8:41:47.4160,0.127,0.266,-1.048,1.64,-1.89,1.54,2.06,-0.14,0.07
2022-01-28 8:41:47.4260,0.089,0.248,-0.963,1.64,-1.89,1.54,2.19,-0.19,0.02
2022-01-28 8:41:47.4360,0.059,0.242,-0.879,2.01,-1.8,0.69,2.27,-0.27,-0.09
2022-01-28 8:41:47.4460,0.04,0.228,-0.793,2.34,-1.9,-0.16,2.26,-0.36,-0.22
2022-01-28 8:41:47.4560,0.039,0.207,-0.707,2.66,-2.06,-1.86,2.17,-0.42,-0.36
2022-01-28 8:41:47.4660,0.053,0.175,-0.621,2.57,-2.0,-2.74,2.0,-0.43,-0.49
2022-01-28 8:41:47.4770,0.076,0.132,-0.55,2.57,-2.0,-2.74,1.76,-0.41,-0.61
2022-01-28 8:41:47.4860,0.102,0.092,-0.498,2.36,-1.81,-3.55,1.51,-0.37,-0.73
2022-01-28 8:41:47.4960,0.131,0.062,-0.46,1.78,-1.28,-4.63,1.25,-0.33,-0.84
2022-01-28 8:41:47.5060,0.154,0.038,-0.433,1.78,-1.28,-4.63,1.02,-0.3,-0.91
2022-01-28 8:41:47.5170,0.18,0.023,-0.417,1.48,-1.1,-4.97,0.82,-0.32,-0.97
2022-01-28 8:41:47.5260,0.195,0.019,-0.412,0.97,-0.89,-5.31,0.65,-0.37,-0.99
2022-01-28 8:41:47.5360,0.194,0.028,-0.404,0.97,-0.89,-5.31,0.65,-0.37,-0.99
2022-01-28 8:41:47.5460,0.189,0.045,-0.398,0.87,-0.92,-5.37,0.39,-0.56,-1.03
2022-01-28 8:41:47.5560,0.183,0.056,-0.398,0.86,-1.06,-5.46,0.22,-0.67,-1.08
2022-01-28 8:41:47.5660,0.178,0.049,-0.394,0.86,-1.27,-5.54,0.02,-0.77,-1.16
2022-01-28 8:41:47.5770,0.173,0.031,-0.392,0.85,-1.09,-5.59,-0.21,-0.83,-1.25
2022-01-28 8:41:47.5860,0.175,0.019,-0.391,0.85,-1.09,-5.59,-0.45,-0.83,-1.36
2022-01-28 8:41:47.5960,0.188,0.007,-0.401,0.81,-0.88,-5.63,-0.71,-0.76,-1.48
2022-01-28 8:41:47.6060,0.212,-0.01,-0.432,0.45,-0.44,-5.49,-0.96,-0.68,-1.62
2022-01-28 8:41:47.6170,0.236,-0.027,-0.478,0.45,-0.44,-5.49,-1.21,-0.59,-1.7
2022-01-28 8:41:47.6260,0.251,-0.18,-0.534,0.14,-0.12,-5.13,-1.42,-0.49,-1.69
2022-01-28 8:41:47.6370,0.226,-0.022,-0.572,-0.12,0.48,-4.67,-1.42,-0.49,-1.69
2022-01-28 8:41:47.6470,0.228,0.063,-0.589,-0.18,1.75,-4.18,-1.55,-0.09,-1.78
2022-01-28 8:41:47.6560,0.234,-0.027,-0.609,0.0,-0.27,-3.82,-1.5,0.11,-1.62
2022-01-28 8:41:47.6660,0.262,-0.059,-0.71,-0.07,0.15,-3.83,-1.41,0.26,-1.4
2022-01-28 8:41:47.6770,0.289,-0.064,-0.723,-0.19,1.06,-3.2,-1.23,0.51,-1.16
2022-01-28 8:41:47.6870,0.297,-0.068,-0.714,-0.49,1.36,-2.39,-0.97,0.74,-0.94
2022-01-28 8:41:47.6960,0.296,-0.052,-0.747,-0.62,1.57,-2.51,-0.67,0.91,-0.79
2022-01-28 8:41:47.7060,0.297,-0.044,-0.761,-0.49,1.55,-2.05,-0.41,1.0,-0.72
2022-01-28 8:41:47.7170,0.313,-0.051,-0.771,-0.49,1.55,-2.05,-0.25,0.98,-0.69
2022-01-28 8:41:47.7270,0.343,-0.055,-0.805,-0.6,1.7,-1.73,-0.19,0.81,-0.69
2022-01-28 8:41:47.7370,0.369,-0.047,-0.833,-0.6,1.7,-1.73,-0.21,0.56,-0.7
2022-01-28 8:41:47.7460,0.368,-0.01,-0.876,-0.85,1.75,-1.37,-0.28,0.24,-0.75
2022-01-28 8:41:47.7570,0.36,0.045,-0.928,-0.9,1.21,-0.56,-0.4,-0.09,-0.84
2022-01-28 8:41:47.7670,0.361,0.08,-0.985,-0.89,0.78,-0.05,-0.55,-0.38,-0.97
2022-01-28 8:41:47.7770,0.368,0.098,-1.04,-0.89,0.78,-0.05,-0.69,-0.58,-1.11
2022-01-28 8:41:47.7870,0.378,0.115,-1.091,-0.97,0.61,0.53,-0.78,-0.66,-1.23
2022-01-28 8:41:47.7970,0.383,0.13,-1.12,-1.31,0.48,1.48,-0.8,-0.58,-1.27
2022-01-28 8:41:47.8070,0.372,0.136,-1.133,-1.31,0.48,1.48,-0.71,-0.37,-1.2
2022-01-28 8:41:47.8170,0.352,0.129,-1.129,-1.37,0.45,1.69,-0.71,-0.37,-1.2
2022-01-28 8:41:47.8270,0.334,0.111,-1.087,-1.07,0.72,1.62,-0.27,0.53,-0.65
2022-01-28 8:41:47.8370,0.322,0.094,-1.045,-1.07,0.72,1.62,0.01,1.06,-0.26
2022-01-28 8:41:47.8470,0.32,0.097,-1.03,-0.86,0.95,1.16,0.25,1.52,0.12
2022-01-28 8:41:47.8570,0.33,0.111,-1.0,-0.66,1.05,0.9,0.47,1.84,0.44
2022-01-28 8:41:47.8670,0.359,0.145,-1.012,-0.51,0.7,0.54,0.65,1.85,0.57
2022-01-28 8:41:47.8780,0.407,0.214,-1.081,-0.51,0.7,0.54,0.77,1.56,0.53
2022-01-28 8:41:47.8870,0.454,0.275,-1.131,-0.7,0.14,0.98,0.78,1.09,0.39
2022-01-28 8:41:47.8970,0.498,0.295,-1.162,-1.06,-0.66,1.68,0.7,0.52,0.19
2022-01-28 8:41:47.9070,0.536,0.323,-1.192,-1.8,-1.39,2.36,0.54,-0.13,-0.04
2022-01-28 8:41:47.9180,0.543,0.371,-1.241,-1.8,-1.39,2.36,0.54,-0.13,-0.04
2022-01-28 8:41:47.9270,0.529,0.402,-1.261,-2.17,-2.29,3.13,0.11,-1.23,-0.36
2022-01-28 8:41:47.9380,0.493,0.408,-1.247,-2.17,-2.29,3.13,-0.04,-1.4,-0.39
2022-01-28 8:41:47.9470,0.442,0.434,-1.232,-1.79,-2.53,2.92,-0.14,-1.31,-0.39
2022-01-28 8:41:47.9580,0.379,0.472,-1.247,-1.79,-2.53,2.92,-0.24,-1.13,-0.38
2022-01-28 8:41:47.9670,0.327,0.493,-1.309,-1.36,-2.84,2.79,-0.34,-0.98,-0.43
2022-01-28 8:41:47.9780,0.306,0.486,-1.368,-0.54,-3.2,3.77,-0.43,-0.86,-0.53
2022-01-28 8:41:47.9880,0.315,0.453,-1.384,-0.54,-2.96,4.19,-0.45,-0.69,-0.67
2022-01-28 8:41:47.9980,0.327,0.417,-1.348,-0.54,-2.96,4.19,-0.4,-0.42,-0.8
2022-01-28 8:41:48.0070,0.325,0.377,-1.269,-0.86,-2.13,3.62,-0.3,-0.06,-0.86
2022-01-28 8:41:48.0180,0.322,0.326,-1.176,-0.83,-1.66,2.76,-0.19,0.29,-0.8
2022-01-28 8:41:48.0280,0.329,0.256,-1.088,-0.83,-1.66,2.76,-0.09,0.55,-0.64
2022-01-28 8:41:48.0380,0.345,0.171,-0.999,-0.81,-1.07,1.87,0.0,0.73,-0.39
2022-01-28 8:41:48.0480,0.358,0.101,-0.909,-0.97,0.53,0.16,0.11,0.79,-0.13
2022-01-28 8:41:48.0580,0.36,0.045,-0.833,-0.97,0.53,0.16,0.27,0.74,0.14
2022-01-28 8:41:48.0680,0.335,-0.018,-0.769,-0.82,1.71,-1.34,0.42,0.6,0.31
2022-01-28 8:41:48.0790,0.362,-0.017,-0.696,-0.82,1.71,-1.34,0.54,0.48,0.38
2022-01-28 8:41:48.0880,0.324,-0.046,-0.627,-0.68,2.05,-1.96,0.63,0.32,0.43
2022-01-28 8:41:48.0980,0.262,-0.083,-0.611,-0.82,2.0,-2.75,0.74,0.11,0.45
2022-01-28 8:41:48.1080,0.245,-0.092,-0.576,-0.15,2.32,-3.19,0.83,-0.07,0.42
2022-01-28 8:41:48.1180,0.23,-0.097,-0.555,0.4,2.45,-3.76,0.87,-0.28,0.37
2022-01-28 8:41:48.1280,0.208,-0.104,-0.558,0.55,2.43,-3.87,0.84,-0.5,0.3
2022-01-28 8:41:48.1380,0.188,-0.1,-0.555,0.55,2.43,-3.87,0.84,-0.5,0.3
2022-01-28 8:41:48.1480,0.164,-0.087,-0.546,0.72,2.38,-3.86,0.7,-0.75,0.1
2022-01-28 8:41:48.1580,0.137,-0.068,-0.547,0.86,2.23,-3.96,0.63,-0.75,-0.02
2022-01-28 8:41:48.1680,0.117,-0.054,-0.547,1.05,2.01,-4.05,0.57,-0.64,-0.13
2022-01-28 8:41:48.1790,0.097,-0.033,-0.549,1.22,1.78,-4.04,0.52,-0.45,-0.24
2022-01-28 8:41:48.1880,0.072,0.001,-0.569,1.34,1.59,-4.09,0.48,-0.23,-0.35
2022-01-28 8:41:48.1980,0.051,0.041,-0.598,1.53,1.3,-4.01,0.48,0.01,-0.46
2022-01-28 8:41:48.2080,0.042,0.072,-0.631,1.74,0.88,-3.79,0.51,0.25,-0.58
2022-01-28 8:41:48.2180,0.053,0.095,-0.653,1.97,0.18,-3.18,0.55,0.46,-0.71
2022-01-28 8:41:48.2290,0.082,0.124,-0.674,1.8,-0.08,-2.99,0.59,0.6,-0.85
2022-01-28 8:41:48.2380,0.114,0.154,-0.699,1.8,-0.08,-2.99,0.58,0.68,-1.0
2022-01-28 8:41:48.2480,0.156,0.171,-0.717,1.57,-0.42,-2.74,0.51,0.72,-1.12
2022-01-28 8:41:48.2580,0.193,0.181,-0.73,1.26,-0.71,-2.5,0.38,0.8,-1.18
2022-01-28 8:41:48.2690,0.238,0.188,-0.742,0.93,-0.83,-2.35,0.29,0.92,-1.18
2022-01-28 8:41:48.2790,0.288,0.17,-0.746,0.63,-0.96,-2.18,0.24,1.08,-1.1
2022-01-28 8:41:48.2880,0.339,0.173,-0.773,0.22,-0.91,-2.09,0.22,1.25,-1.03
2022-01-28 8:41:48.2980,0.381,0.205,-0.811,-0.17,-0.75,-1.96,0.2,1.39,-1.0
2022-01-28 8:41:48.3080,0.409,0.261,-0.863,-0.55,-0.89,-1.6,0.13,1.46,-1.05
2022-01-28 8:41:48.3190,0.444,0.323,-0.937,-0.77,-1.27,-1.16,-0.01,1.46,-1.17
2022-01-28 8:41:48.3290,0.494,0.343,-0.995,-0.92,-1.87,-0.5,-0.2,1.45,-1.35
2022-01-28 8:41:48.3390,0.547,0.352,-1.038,-1.61,-2.31,0.79,-0.43,1.41,-1.57
2022-01-28 8:41:48.3490,0.578,0.403,-1.093,-1.97,-2.42,1.29,-0.66,1.3,-1.79
2022-01-28 8:41:48.3590,0.584,0.486,-1.161,-1.97,-2.42,1.29,-0.91,1.09,-1.96
2022-01-28 8:41:48.3690,0.588,0.547,-1.217,-2.07,-2.95,1.94,-1.18,0.88,-2.03
2022-01-28 8:41:48.3790,0.609,0.561,-1.236,-2.02,-3.59,2.67,-1.18,0.88,-2.03
2022-01-28 8:41:48.3890,0.647,0.557,-1.257,-2.08,-3.81,3.12,-1.61,0.63,-1.84
2022-01-28 8:41:48.3990,0.686,0.55,-1.281,-2.32,-3.64,3.33,-1.61,0.63,-1.84
2022-01-28 8:41:48.4090,0.714,0.536,-1.31,-2.7,-3.38,3.61,-1.74,0.34,-1.31
2022-01-28 8:41:48.4190,0.731,0.509,-1.345,-3.28,-2.7,4.28,-1.71,0.07,-0.92
2022-01-28 8:41:48.4290,0.737,0.455,-1.367,-3.28,-2.7,4.28,-1.71,0.07,-0.92
2022-01-28 8:41:48.4390,0.735,0.37,-1.365,-3.43,-2.18,4.65,-1.47,-0.46,0.04
2022-01-28 8:41:48.4490,0.717,0.281,-1.361,-3.46,-0.36,4.77,-1.27,-0.68,0.53
2022-01-28 8:41:48.4590,0.675,0.202,-1.35,-3.46,-0.36,4.77,-1.03,-0.82,0.95
2022-01-28 8:41:48.4690,0.606,0.132,-1.316,-2.77,1.36,4.55,-0.72,-0.85,1.29
2022-01-28 8:41:48.4800,0.509,0.095,-1.273,-2.77,1.36,4.55,-0.36,-0.77,1.52
2022-01-28 8:41:48.4890,0.406,0.077,-1.213,-2.01,1.94,4.16,0.05,-0.62,1.62
2022-01-28 8:41:48.4990,0.316,0.057,-1.139,-0.05,2.28,2.99,0.46,-0.44,1.62
2022-01-28 8:41:48.5090,0.255,0.033,-1.065,-0.05,2.28,2.99,0.83,-0.31,1.55
2022-01-28 8:41:48.5190,0.216,-0.003,-0.999,0.75,2.38,2.23,1.12,-0.25,1.44
2022-01-28 8:41:48.5290,0.198,-0.044,-0.933,1.27,2.52,1.49,1.32,-0.26,1.32
2022-01-28 8:41:48.5390,0.194,-0.077,-0.859,1.6,2.75,0.82,1.44,-0.28,1.19
2022-01-28 8:41:48.5500,0.195,-0.095,-0.779,1.72,2.97,0.1,1.49,-0.27,1.07
2022-01-28 8:41:48.5590,0.2,-0.098,-0.702,1.71,3.03,-1.52,1.47,-0.23,0.93
2022-01-28 8:41:48.5700,0.202,-0.091,-0.628,1.71,3.03,-1.52,1.41,-0.15,0.79
2022-01-28 8:41:48.5800,0.201,-0.081,-0.562,1.66,2.62,-3.03,1.32,-0.04,0.66
2022-01-28 8:41:48.5900,0.194,-0.06,-0.509,1.71,2.35,-3.66,1.18,0.07,0.53
2022-01-28 8:41:48.6000,0.19,-0.035,-0.468,1.71,2.35,-3.66,1.01,0.19,0.41
2022-01-28 8:41:48.6090,0.19,-0.018,-0.431,1.84,1.67,-4.54,0.81,0.27,0.3
2022-01-28 8:41:48.6200,0.196,-0.001,-0.416,1.84,1.67,-4.54,0.59,0.29,0.18
2022-01-28 8:41:48.6300,0.207,0.015,-0.416,1.85,1.43,-4.84,0.36,0.24,0.06
2022-01-28 8:41:48.6400,0.226,0.031,-0.431,1.79,1.22,-4.91,0.36,0.24,0.06
2022-01-28 8:41:48.6500,0.252,0.046,-0.477,1.45,0.88,-4.61,-0.12,-0.2,-0.19
2022-01-28 8:41:48.6600,0.266,0.067,-0.535,1.45,0.88,-4.61,-0.12,-0.2,-0.19
2022-01-28 8:41:48.6700,0.278,0.103,-0.577,1.04,0.55,-3.57,-0.48,-0.72,-0.35
2022-01-28 8:41:48.6800,0.285,0.152,-0.613,1.04,0.55,-3.57,-0.48,-0.72,-0.35
2022-01-28 8:41:48.6900,0.298,0.194,-0.67,0.86,0.18,-3.24,-0.59,-0.85,-0.37
2022-01-28 8:41:48.7000,0.312,0.226,-0.71,0.46,-0.51,-2.31,-0.64,-0.73,-0.23
2022-01-28 8:41:48.7100,0.312,0.259,-0.746,0.46,-0.51,-2.31,-0.59,-0.46,-0.03
2022-01-28 8:41:48.7200,0.311,0.302,-0.792,0.32,-0.75,-1.98,-0.51,-0.14,0.2
2022-01-28 8:41:48.7300,0.316,0.371,-0.872,0.29,-1.06,-1.61,-0.45,0.11,0.37
2022-01-28 8:41:48.7400,0.352,0.44,-0.975,0.31,-1.52,-1.05,-0.43,0.24,0.44
2022-01-28 8:41:48.7500,0.404,0.493,-1.083,0.18,-2.22,-0.13,-0.46,0.23,0.38
2022-01-28 8:41:48.7600,0.454,0.529,-1.18,-0.71,-3.24,1.99,-0.51,0.11,0.22
2022-01-28 8:41:48.7700,0.51,0.547,-1.25,-1.22,-3.48,2.84,-0.56,-0.08,0.01
2022-01-28 8:41:48.7810,0.548,0.545,-1.289,-1.22,-3.48,2.84,-0.56,-0.08,0.01
2022-01-28 8:41:48.7900,0.561,0.533,-1.297,-1.74,-3.53,3.45,-0.55,-0.36,-0.18
2022-01-28 8:41:48.8010,0.554,0.522,-1.287,-2.06,-3.39,3.7,-0.55,-0.36,-0.18
2022-01-28 8:41:48.8100,0.543,0.517,-1.265,-2.13,-3.22,3.7,-0.31,-0.33,0.03
2022-01-28 8:41:48.8210,0.529,0.516,-1.23,-2.07,-3.08,3.55,-0.14,-0.2,0.15
2022-01-28 8:41:48.8300,0.514,0.5,-1.188,-1.98,-3.04,3.28,-0.03,-0.08,0.21
2022-01-28 8:41:48.8410,0.498,0.478,-1.151,-1.85,-2.98,2.9,-0.01,-0.02,0.2
2022-01-28 8:41:48.8510,0.483,0.464,-1.124,-1.69,-2.79,2.49,-0.09,-0.07,0.11
2022-01-28 8:41:48.8610,0.465,0.451,-1.107,-1.55,-2.59,2.16,-0.24,-0.18,-0.03
2022-01-28 8:41:48.8710,0.449,0.43,-1.083,-1.39,-2.47,1.93,-0.43,-0.27,-0.18
2022-01-28 8:41:48.8810,0.434,0.397,-1.047,-1.11,-1.99,1.48,-0.58,-0.29,-0.28
2022-01-28 8:41:48.8910,0.423,0.346,-1.009,-1.01,-1.55,1.12,-0.67,-0.25,-0.3
2022-01-28 8:41:48.9010,0.42,0.275,-0.967,-1.01,-1.55,1.12,-0.68,-0.19,-0.24
2022-01-28 8:41:48.9100,0.42,0.196,-0.934,-0.97,-0.08,0.36,-0.63,-0.13,-0.1
2022-01-28 8:41:48.9210,0.413,0.118,-0.897,-0.97,-0.08,0.36,-0.49,-0.09,0.1
2022-01-28 8:41:48.9310,0.398,0.053,-0.858,-0.96,0.76,0.05,-0.31,-0.08,0.32
2022-01-28 8:41:48.9410,0.373,0.005,-0.819,-0.86,1.52,-0.32,-0.1,-0.08,0.55
2022-01-28 8:41:48.9510,0.343,-0.035,-0.777,-0.68,2.1,-0.69,-0.1,-0.08,0.55
2022-01-28 8:41:48.9610,0.313,-0.065,-0.737,-0.1,2.85,-1.52,0.32,-0.14,0.87
2022-01-28 8:41:48.9710,0.285,-0.081,-0.709,-0.1,2.85,-1.52,0.49,-0.2,0.92
2022-01-28 8:41:48.9810,0.26,-0.093,-0.679,0.47,3.09,-2.16,0.64,-0.26,0.89
2022-01-28 8:41:48.9910,0.241,-0.095,-0.642,0.69,3.09,-2.5,0.75,-0.31,0.79
2022-01-28 8:41:49.0010,0.226,-0.088,-0.61,0.69,3.09,-2.5,0.82,-0.37,0.65
2022-01-28 8:41:49.0110,0.214,-0.08,-0.586,0.96,2.8,-3.2,0.85,-0.44,0.47
2022-01-28 8:41:49.0220,0.209,-0.071,-0.572,0.96,2.8,-3.2,0.83,-0.53,0.28
2022-01-28 8:41:49.0310,0.21,-0.049,-0.559,1.02,2.65,-3.43,0.77,-0.58,0.07
2022-01-28 8:41:49.0410,0.213,-0.028,-0.546,1.0,2.43,-3.58,0.66,-0.56,-0.12
2022-01-28 8:41:49.0510,0.214,-0.01,-0.546,0.85,1.9,-3.88,0.51,-0.51,-0.3
2022-01-28 8:41:49.0620,0.211,0.018,-0.557,0.85,1.9,-3.88,0.36,-0.39,-0.47
2022-01-28 8:41:49.0710,0.203,0.067,-0.571,0.81,1.31,-3.74,0.2,-0.2,-0.62
2022-01-28 8:41:49.0820,0.197,0.133,-0.608,0.81,1.31,-3.74,0.05,0.05,-0.72
2022-01-28 8:41:49.0910,0.204,0.196,-0.668,0.87,0.76,-3.54,-0.06,0.28,-0.79
2022-01-28 8:41:49.1020,0.231,0.247,-0.747,0.89,0.12,-3.1,-0.06,0.28,-0.79
2022-01-28 8:41:49.1110,0.271,0.288,-0.81,0.76,-0.42,-2.39,-0.08,0.61,-0.88
2022-01-28 8:41:49.1210,0.313,0.316,-0.855,0.47,-0.85,-1.64,-0.01,0.81,-0.86
2022-01-28 8:41:49.1310,0.358,0.333,-0.879,0.11,-1.18,-1.06,0.1,1.1,-0.73
2022-01-28 8:41:49.1410,0.406,0.343,-0.894,-0.25,-1.39,-0.68,0.22,1.49,-0.49
2022-01-28 8:41:49.1520,0.443,0.363,-0.896,-0.91,-1.62,-0.32,0.29,1.89,-0.21
2022-01-28 8:41:49.1620,0.47,0.421,-0.927,-1.06,-1.95,-0.18,0.25,2.15,-0.04
