time,gFx,gFy,gFz,ax,ay,az,wx,wy,wz
,0.105,-0.258,-0.765,-0.01,0.9,0.1,-0.33,-0.12,-0.12
2022-01-28 11:24:37.9030,0.087,-0.211,-0.802,0.91,0.69,-1.82,-0.37,0.18,-0.18
2022-01-28 11:24:37.9070,0.102,-0.206,-0.815,0.96,0.4,-1.55,-0.42,0.38,-0.23
2022-01-28 11:24:37.9170,0.131,-0.244,-0.828,0.51,1.11,-1.22,-0.44,0.43,-0.22
2022-01-28 11:24:37.9280,0.158,-0.28,-0.865,0.51,1.11,-1.22,-0.44,0.34,-0.17
2022-01-28 11:24:37.9370,0.174,-0.29,-0.903,0.31,1.4,-0.83,-0.42,0.11,-0.12
2022-01-28 11:24:37.9470,0.178,-0.288,-0.926,0.15,1.54,-0.48,-0.37,-0.16,-0.08
2022-01-28 11:24:37.9580,0.185,-0.304,-0.921,0.15,1.54,-0.48,-0.29,-0.42,-0.03
2022-01-28 11:24:37.9680,0.171,-0.316,-0.928,0.33,1.81,-0.5,-0.29,-0.42,-0.03
2022-01-28 11:24:37.9790,0.134,-0.323,-0.91,0.33,1.81,-0.5,-0.03,-0.63,0.06
2022-01-28 11:24:37.9880,0.092,-0.334,-0.873,0.67,1.91,-0.81,-0.03,-0.63,0.06
2022-01-28 11:24:37.9980,0.055,-0.336,-0.85,1.02,1.97,-1.15,0.28,-0.27,0.11
2022-01-28 11:24:38.0080,0.026,-0.328,-0.838,1.53,1.76,-1.41,0.42,0.01,0.16
2022-01-28 11:24:38.0180,0.02,-0.319,-0.825,1.47,1.62,-1.5,0.58,0.29,0.22
2022-01-28 11:24:38.0280,0.043,-0.309,-0.817,1.47,1.62,-1.5,0.73,0.54,0.25
2022-01-28 11:24:38.0380,0.075,-0.299,-0.826,1.23,1.43,-1.5,0.89,0.72,0.26
2022-01-28 11:24:38.0490,0.1,-0.3,-0.863,1.0,1.28,-1.24,1.04,0.8,0.27
2022-01-28 11:24:38.0580,0.114,-0.315,-0.905,0.88,1.25,-0.78,1.17,0.78,0.29
2022-01-28 11:24:38.0690,0.117,-0.342,-0.932,0.9,1.5,-0.13,1.29,0.69,0.31
2022-01-28 11:24:38.0790,0.123,-0.368,-0.954,0.9,1.5,-0.13,1.37,0.57,0.33
2022-01-28 11:24:38.0880,0.129,-0.38,-0.964,0.86,1.57,0.07,1.43,0.44,0.35
2022-01-28 11:24:38.0980,0.125,-0.38,-0.981,0.87,1.47,0.22,1.48,0.29,0.38
2022-01-28 11:24:38.1200,0.118,-0.38,-0.983,0.88,1.25,0.34,1.54,0.25,0.41
2022-01-28 11:24:38.1220,0.151,-0.403,-0.968,0.88,1.25,0.34,1.59,0.33,0.4
2022-01-28 11:24:38.1280,0.159,-0.436,-0.954,0.6,1.4,0.27,1.6,0.52,0.37
2022-01-28 11:24:38.1390,0.147,-0.463,-0.924,0.74,1.56,0.08,1.5,0.71,0.3
2022-01-28 11:24:38.1480,0.153,-0.478,-0.939,0.85,1.62,0.0,1.5,0.71,0.3
2022-01-28 11:24:38.1670,0.191,-0.507,-0.973,0.36,2.01,0.56,1.29,0.77,0.2
2022-01-28 11:24:38.1690,0.221,-0.557,-0.954,0.36,2.01,0.56,0.76,0.83,-0.03
2022-01-28 11:24:38.1780,0.222,-0.589,-0.933,0.32,2.4,0.31,0.58,0.86,-0.08
2022-01-28 11:24:38.1890,0.233,-0.585,-0.929,0.3,2.35,0.26,0.58,0.86,-0.08
2022-01-28 11:24:38.2000,0.249,-0.583,-0.924,0.3,2.35,0.26,0.36,1.06,-0.02
2022-01-28 11:24:38.2090,0.27,-0.61,-0.927,0.24,2.44,0.26,0.32,1.19,0.12
2022-01-28 11:24:38.2190,0.294,-0.655,-0.948,0.1,2.8,0.44,0.31,1.24,0.29
2022-01-28 11:24:38.2290,0.314,-0.674,-0.966,-0.03,3.12,0.71,0.31,1.24,0.29
2022-01-28 11:24:38.2390,0.322,-0.671,-0.978,-0.09,3.1,0.87,0.34,1.25,0.41
2022-01-28 11:24:38.2490,0.321,-0.682,-1.031,0.0,3.08,1.18,0.4,0.96,0.35
2022-01-28 11:24:38.2590,0.328,-0.684,-1.109,0.01,3.17,1.97,0.47,0.65,0.17
2022-01-28 11:24:38.2690,0.299,-0.641,-1.152,0.14,2.93,2.59,0.47,0.3020724952220917,-0.04
2022-01-28 11:24:38.2790,0.261,-0.581,-1.19,0.55,2.34,2.99,0.6,-0.05,-0.27
2022-01-28 11:24:38.2890,0.24,-0.515,-1.218,0.83,1.69,3.35,0.62,-0.35,-0.49
2022-01-28 11:24:38.2990,0.22,-0.438,-1.224,1.0,0.95,3.54,0.63,-0.54,-0.71
2022-01-28 11:24:38.3090,0.208,-0.357,-1.206,1.17,0.14,3.48,0.65,-0.59,-0.89
2022-01-28 11:24:38.3190,0.211,-0.282,-1.154,1.18,-0.67,3.17,0.66,-0.46,-0.99
2022-01-28 11:24:38.3290,0.226,-0.233,-1.07,1.1,-1.33,2.48,0.64,-0.16,-0.96
2022-01-28 11:24:38.3400,0.25,-0.219,-0.998,0.94,-1.66,1.67,0.61,0.21,-0.82
2022-01-28 11:24:38.3500,0.284,-0.23,-0.944,0.71,-1.67,1.14,0.57,0.58,-0.63
2022-01-28 11:24:38.3590,0.33,-0.25,-0.887,0.4,-1.53,0.61,0.52,0.86,-0.46
2022-01-28 11:24:38.3700,0.396,-0.272,-0.861,-0.06,-1.35,0.24,0.52,0.86,-0.46
2022-01-28 11:24:38.3800,0.437,-0.276,-0.84,-0.58,-1.22,0.1,0.5,0.99,-0.35
2022-01-28 11:24:38.3900,0.428,-0.25,-0.82,-0.6,-1.37,-0.05,0.61,0.9,-0.27
2022-01-28 11:24:38.4000,0.415,-0.22,-0.797,-0.37,-1.73,-0.18,0.72,0.78,-0.25
2022-01-28 11:24:38.4100,0.411,-0.215,-0.762,-0.22,-1.96,-0.42,0.84,0.62,-0.22
2022-01-28 11:24:38.4200,0.419,-0.202,-0.732,-0.19,-2.04,-0.7,0.9,0.41,-0.21
2022-01-28 11:24:38.4290,0.428,-0.188,-0.695,-0.21,-2.32,-1.37,0.92,0.23,-0.24
2022-01-28 11:24:38.4400,0.417,-0.206,-0.642,-0.21,-2.32,-1.37,0.89,0.03,-0.33
2022-01-28 11:24:38.4480,0.427,-0.193,-0.622,-0.14,-2.31,-1.73,0.76,-0.26,-0.51
2022-01-28 11:24:38.4590,0.446,-0.201,-0.604,-0.35,-2.48,-1.84,0.55,-0.58,-0.66
2022-01-28 11:24:38.4690,0.457,-0.238,-0.612,-0.49,-2.18,-1.98,0.3,-0.96,-0.75
2022-01-28 11:24:38.4800,0.469,-0.24,-0.644,-0.66,-1.94,-1.74,0.06,-1.31,-0.84
2022-01-28 11:24:38.4890,0.481,-0.213,-0.659,-0.86,-2.07,-1.55,-0.11,-1.54,-0.94
2022-01-28 11:24:38.5000,0.477,-0.182,-0.67,-0.97,-2.52,-1.53,-0.2,-1.6,-1.04
2022-01-28 11:24:38.5100,0.462,-0.162,-0.662,-0.97,-2.52,-1.53,-0.23,-1.47,-1.1
2022-01-28 11:24:38.5200,0.448,-0.147,-0.64,-0.89,-2.63,-1.75,-0.25,-1.15,-1.1
2022-01-28 11:24:38.5300,0.436,-0.138,-0.621,-0.79,-2.69,-2.04,-0.3,-0.7,-1.05
2022-01-28 11:24:38.5400,0.44,-0.14,-0.626,-0.75,-2.66,-2.15,-0.3,-0.7,-1.05
2022-01-28 11:24:38.5510,0.47,-0.15,-0.648,-1.24,-2.28,-1.77,-0.41,0.15,-0.9
2022-01-28 11:24:38.5600,0.52,-0.183,-0.682,-1.24,-2.28,-1.77,-0.41,0.34,-0.84
2022-01-28 11:24:38.5700,0.559,-0.219,-0.727,-1.65,-1.83,-1.34,-0.38,0.38,-0.79
2022-01-28 11:24:38.5800,0.574,-0.232,-0.747,-1.87,-1.52,-1.01,-0.32,0.33,-0.73
2022-01-28 11:24:38.5910,0.565,-0.226,-0.762,-1.84,-1.44,-0.88,-0.32,0.33,-0.73
2022-01-28 11:24:38.6000,0.544,-0.211,-0.777,-1.64,-1.52,-0.72,-0.23,0.02,-0.57
2022-01-28 11:24:38.6100,0.527,-0.207,-0.791,-1.41,-1.59,-0.61,-0.22,-0.17,-0.49
2022-01-28 11:24:38.6200,0.518,-0.218,-0.82,-1.3,-1.51,-0.41,-0.23,-0.38,-0.41
2022-01-28 11:24:38.6300,0.511,-0.232,-0.849,-1.23,-1.33,-0.13,-0.22,-0.53,-0.34
2022-01-28 11:24:38.6400,0.501,-0.239,-0.874,-1.21,-1.19,0.1,-0.22,-0.53,-0.34
2022-01-28 11:24:38.6510,0.487,-0.24,-0.902,-1.02,-1.09,0.57,-0.13,-0.64,-0.3
2022-01-28 11:24:38.6610,0.474,-0.245,-0.931,-1.02,-1.09,0.57,-0.13,-0.64,-0.3
2022-01-28 11:24:38.6710,0.462,-0.25,-0.956,-0.95,-1.02,0.84,0.02,-0.54,-0.33
2022-01-28 11:24:38.6810,0.447,-0.254,-0.973,-0.85,-0.97,1.01,0.02,-0.54,-0.36808136105537415
2022-01-28 11:24:38.6910,0.432,-0.259,-0.982,-0.72,-0.92,1.14,0.09,-0.44,-0.37
2022-01-28 11:24:38.7010,0.424,-0.272,-0.99,-0.61,-0.84,1.2,0.14,-0.29,-0.39
2022-01-28 11:24:38.7110,0.42,-0.295,-1.0,-0.55,-0.66,1.29,0.24,0.05,-0.32
2022-01-28 11:24:38.7200,0.415,-0.316,-1.013,-0.5,-0.44,1.42,0.31,0.15,-0.28
2022-01-28 11:24:38.7300,0.41,-0.33,-1.027,-0.42,-0.29,1.57,0.4,0.17,-0.27
2022-01-28 11:24:38.7400,0.4,-0.342,-1.044,-0.33,-0.18,1.73,0.5,0.1,-0.29
2022-01-28 11:24:38.7500,0.389,-0.352,-1.061,-0.2,-0.11,1.93,0.5,0.1,-0.29
2022-01-28 11:24:38.7610,0.386,-0.365,-1.069,-0.1,0.05,2.18,0.68,-0.08,-0.43
2022-01-28 11:24:38.7710,0.387,-0.378,-1.079,-0.1,0.05,2.18,0.68,-0.08,-0.43
2022-01-28 11:24:38.7810,0.389,-0.393,-1.083,-0.12,0.14,2.29,0.83,-0.24,-0.54
2022-01-28 11:24:38.7910,0.392,-0.404,-1.074,-0.15,0.22,2.28,0.9,-0.29,-0.57
2022-01-28 11:24:38.8010,0.386,-0.409,-1.053,-0.04,0.19,1.91,0.9,-0.29,-0.57
2022-01-28 11:24:38.8110,0.374,-0.405,-1.02,-0.04,0.19,1.91,1.02,-0.27,-0.55
2022-01-28 11:24:38.8210,0.36,-0.396,-0.992,0.08,0.08,1.63,1.08,-0.25,-0.54
2022-01-28 11:24:38.8310,0.342,-0.372,-0.971,0.23,-0.15,1.41,1.15,-0.28,-0.58
2022-01-28 11:24:38.8410,0.322,-0.357,-0.961,0.43,-0.47,1.31,1.15,-0.28,-0.58
2022-01-28 11:24:38.8510,0.323,-0.354,-0.954,0.32,-0.75,1.28,1.3,-0.72,-0.84
2022-01-28 11:24:38.8610,0.362,-0.345,-0.946,-0.23,-0.75,0.94,1.28,-1.06,-0.98
2022-01-28 11:24:38.8720,0.416,-0.37,-0.895,-0.23,-0.75,0.94,1.16,-1.35,-1.03
2022-01-28 11:24:38.8820,0.468,-0.394,-0.831,-0.82,-0.49,0.39,1.02,-1.5,-0.98
2022-01-28 11:24:38.8910,0.506,-0.398,-0.779,-1.38,-0.42,-0.28,0.89,-1.58,-0.84
2022-01-28 11:24:38.9020,0.509,-0.392,-0.757,-1.66,-0.62,-0.89,0.89,-1.58,-0.84
2022-01-28 11:24:38.9120,0.486,-0.38,-0.722,-1.42,-0.71,-1.18,0.69,-1.28,-0.29
2022-01-28 11:24:38.9220,0.445,-0.389,-0.71,-1.42,-0.71,-1.18,0.58,-0.99,0.04
2022-01-28 11:24:38.9320,0.409,-0.413,-0.728,-1.1,-0.57,-1.14,0.58,-0.99,0.04
2022-01-28 11:24:38.9420,0.373,-0.426,-0.763,-0.85,-0.41,-0.87,0.46,-0.75,0.3
2022-01-28 11:24:38.9520,0.321,-0.434,-0.809,0.01,-0.32,-0.02,0.29,-0.5982184410095215,0.44
2022-01-28 11:24:38.9610,0.262,-0.442,-0.846,0.48,-0.32,0.21,0.29,-0.6,0.45
2022-01-28 11:24:38.9710,0.216,-0.439,-0.86,0.48,-0.32,0.21,0.31,-0.65,0.32
2022-01-28 11:24:38.9820,0.193,-0.426,-0.861,0.76,-0.45,0.3,0.53,-0.8,-0.14
2022-01-28 11:24:38.9910,0.192,-0.429,-0.827,0.8,-0.56,0.13,0.64,-0.82,-0.33
2022-01-28 11:24:39.0020,0.205,-0.436,-0.784,0.46,-0.53,-0.71,0.67,-0.79,-0.44
2022-01-28 11:24:39.0120,0.229,-0.436,-0.734,0.46,-0.53,-0.71,0.62,-0.73,-0.47
2022-01-28 11:24:39.0210,0.251,-0.443,-0.693,0.18,-0.56,-1.17,0.51,-0.63,-0.42
2022-01-28 11:24:39.0320,0.263,-0.457,-0.668,-0.02,-0.46,-1.48,0.51,-0.63,-0.42
2022-01-28 11:24:39.0420,0.262,-0.459,-0.653,-0.1,-0.39,-1.67,0.28,-0.41,-0.23
2022-01-28 11:24:39.0520,0.254,-0.457,-0.646,-0.07,-0.42,-1.76,0.22,-0.32,-0.16
2022-01-28 11:24:39.0620,0.24,-0.456,-0.641,0.02,-0.45,-1.82,0.22,-0.32,-0.16
2022-01-28 11:24:39.0720,0.224,-0.456,-0.637,0.16,-0.46,-1.86,0.17,-0.22,-0.06
2022-01-28 11:24:39.0820,0.211,-0.459,-0.629,0.3,-0.46,-1.92,0.18,-0.25,-0.02
2022-01-28 11:24:39.0920,0.203,-0.46,-0.626,0.37,-0.45,-1.96,0.22,-0.31,0.01
2022-01-28 11:24:39.1020,0.191,-0.457,-0.614,0.52,-0.53,-2.14,0.27,-0.4,0.05
2022-01-28 11:24:39.1120,0.178,-0.455,-0.606,0.52,-0.53,-2.14,0.31,-0.51,0.12
2022-01-28 11:24:39.1220,0.168,-0.449,-0.598,0.58,-0.58,-2.2,0.32,-0.61,0.19
2022-01-28 11:24:39.1320,0.159,-0.436,-0.591,0.61,-0.71,-2.28,0.33,-0.68,0.26
2022-01-28 11:24:39.1420,0.152,-0.419,-0.577,0.62,-0.9,-2.37,0.34,-0.68,0.32
2022-01-28 11:24:39.1520,0.144,-0.405,-0.564,0.62,-1.08,-2.53,0.36,-0.68,0.37
2022-01-28 11:24:39.1620,0.136,-0.389,-0.554,0.63,-1.26,-2.61,0.39,-0.64,0.4
2022-01-28 11:24:39.1710,0.127,-0.372,-0.535,0.64,-1.47,-2.75,0.45,-0.61,0.42
2022-01-28 11:24:39.1810,0.12,-0.359,-0.521,0.65,-1.67,-2.92,0.45,-0.61,0.42
2022-01-28 11:24:39.1930,0.12,-0.354,-0.491,0.62,-1.8,-3.07,0.54,-0.65,0.43
2022-01-28 11:24:39.2020,0.135,-0.354,-0.457,0.47,-1.88,-3.43,0.54,-0.74,0.46
2022-01-28 11:24:39.2120,0.156,-0.358,-0.443,0.19,-1.92,-3.65,0.54,-0.74,0.46
2022-01-28 11:24:39.2230,0.172,-0.366,-0.444,-0.12,-1.88,-3.65,0.46,-1.08,0.6
2022-01-28 11:24:39.2330,0.173,-0.363,-0.419,-0.34,-1.89,-3.79,0.4,-1.16,0.69
2022-01-28 11:24:39.2430,0.156,-0.357,-0.373,-0.36,-2.01,-4.1,0.32,-1.14,0.76
2022-01-28 11:24:39.2520,0.143,-0.365,-0.367,-0.35,-2.03,-4.48,0.15,-1.08,0.78
2022-01-28 11:24:39.2630,0.121,-0.383,-0.389,-0.3,-1.89,-4.29,-0.09,-0.99,0.72
2022-01-28 11:24:39.2730,0.109,-0.385,-0.403,-0.31,-1.69,-4.06,-0.41,-0.88,0.61
2022-01-28 11:24:39.2830,0.113,-0.404,-0.411,-0.31,-1.69,-4.06,-0.75,-0.71,0.51
2022-01-28 11:24:39.2930,0.109,-0.445,-0.419,-0.41,-1.31,-4.07,-1.09,-0.54,0.46
2022-01-28 11:24:39.3030,0.093,-0.484,-0.468,-0.39,-0.79,-3.92,-1.44,-0.45,0.45
2022-01-28 11:24:39.3130,0.058,-0.498,-0.584,-0.2,-0.37,-3.2,-1.44,-0.45,0.45
2022-01-28 11:24:39.3230,0.004,-0.462,-0.734,0.17,-0.33,-1.91,-2.02,-0.74,0.32
2022-01-28 11:24:39.3330,-0.05,-0.411,-0.839,0.66,-0.65,-0.67,-2.09,-0.75,0.23
2022-01-28 11:24:39.3420,-0.066,-0.396,-0.88,0.98,-0.84,-0.11,-2.04,-0.53,0.17
2022-01-28 11:24:39.3530,-0.04,-0.407,-0.896,0.85,-0.63,0.04,-1.93,-0.12,0.17
2022-01-28 11:24:39.3630,-0.005,-0.413,-0.925,0.26,-0.12,0.66,-1.83,0.24,0.25
2022-01-28 11:24:39.3730,0.004,-0.432,-1.02,0.26,-0.12,0.66,-1.7,0.45,0.41
2022-01-28 11:24:39.3830,-0.022,-0.463,-1.085,0.38,0.31,1.46,-1.7,0.45,0.41
2022-01-28 11:24:39.3930,-0.077,-0.47,-1.138,0.8,0.67,1.93,-1.56,0.56,0.59
2022-01-28 11:24:39.4030,-0.138,-0.443,-1.164,1.47,0.68,2.3,-1.16,0.69,0.68
2022-01-28 11:24:39.4130,-0.167,-0.404,-1.174,1.97,0.42,2.42,-1.06,0.84,0.52
2022-01-28 11:24:39.4230,-0.165,-0.38,-1.193,2.11,0.18,2.47,-1.06,0.84,0.52
2022-01-28 11:24:39.4330,-0.152,-0.378,-1.255,2.14,0.14,2.81,-0.92,0.58,0.06
2022-01-28 11:24:39.4430,-0.113,-0.389,-1.311,1.9,0.29,3.5,-0.96,0.36,-0.17
2022-01-28 11:24:39.4530,-0.072,-0.397,-1.325,1.53,0.48,3.75,-0.99,0.22,-0.37
2022-01-28 11:24:39.4630,-0.04,-0.401,-1.309,1.19,0.65,3.74,-0.98,0.26,-0.52
2022-01-28 11:24:39.4730,-0.007,-0.4,-1.262,0.95,0.74,3.36,-0.98,0.26,-0.52
2022-01-28 11:24:39.4840,0.026,-0.413,-1.232,0.67,0.88,2.91,-1.06,0.61,-0.61
2022-01-28 11:24:39.4930,0.048,-0.427,-1.224,0.47,1.15,2.71,-1.18,0.73,-0.58
2022-01-28 11:24:39.5030,0.061,-0.427,-1.238,0.39,1.35,2.69,-1.31,0.66,-0.57
2022-01-28 11:24:39.5130,0.082,-0.416,-1.272,0.32,1.42,2.93,-1.31,0.66,-0.57
2022-01-28 11:24:39.5240,0.105,-0.406,-1.288,0.12,1.44,3.18,-1.33,0.05,-0.58
2022-01-28 11:24:39.5330,0.126,-0.405,-1.289,-0.07,1.5,3.21,-1.33,0.05,-0.58
2022-01-28 11:24:39.5420,0.147,-0.42,-1.276,-0.32,1.69,3.13,-1.15,-0.34,-0.55
2022-01-28 11:24:39.5530,0.171,-0.428,-1.242,-0.58,1.91,2.87,-0.41,-0.88,-0.38
2022-01-28 11:24:39.5630,0.206,-0.417,-1.202,-0.95,1.92,2.48,0.05,-1.09,-0.25
2022-01-28 11:24:39.5740,0.227,-0.4,-1.152,-1.56,1.52,1.36,0.53,-1.25,-0.05
2022-01-28 11:24:39.5840,0.228,-0.379,-1.051,-1.56,1.52,1.36,0.53,-1.37,0.13
2022-01-28 11:24:39.5940,0.248,-0.345,-0.954,-2.14,0.7,-0.44,1.23,-1.6,0.26
2022-01-28 11:24:39.6040,0.257,-0.319,-0.892,-2.14,0.7,-0.44,1.23,-1.6,0.26
2022-01-28 11:24:39.6140,0.253,-0.304,-0.824,-2.37,0.43,-0.99,1.09,-2.33,0.25
2022-01-28 11:24:39.6240,0.179,-0.252,-0.763,-2.31,0.01,-1.72,0.9,-2.65,0.12
2022-01-28 11:24:39.6340,0.12,-0.257,-0.694,-1.67,-0.45,-2.12,0.9,-2.65,0.12
2022-01-28 11:24:39.6440,0.157,-0.237,-0.632,-2.29,-1.21,-2.75,0.92,-2.68,-0.23
2022-01-28 11:24:39.6540,0.129,-0.138,-0.715,-2.26,-1.85,-1.99,0.94,-2.43,-0.41
2022-01-28 11:24:39.6640,0.125,-0.14,-0.739,-2.26,-1.85,-1.99,1.07,-1.97,-0.43
2022-01-28 11:24:39.6730,0.087,-0.172,-0.692,-2.28,-1.64,-2.17,1.26,-1.43,-0.37
2022-01-28 11:24:39.6840,0.056,-0.171,-0.666,-1.96,-1.61,-2.52,1.26,-1.43,-0.37
2022-01-28 11:24:39.6940,0.046,-0.172,-0.665,-1.87,-1.8,-2.59,1.35,-0.99,-0.34
2022-01-28 11:24:39.7040,0.028,-0.204,-0.677,-1.81,-1.74,-2.46,1.0,-0.6,-0.43
2022-01-28 11:24:39.7140,-0.006,-0.247,-0.657,-1.58,-1.43,-2.39,0.65,-0.32,-0.47
2022-01-28 11:24:39.7240,-0.033,-0.278,-0.614,-1.24,-1.09,-2.76,0.65,-0.32,-0.47
2022-01-28 11:24:39.7340,-0.028,-0.27,-0.628,-1.13,-1.15,-2.47,0.31,0.12,-0.51
2022-01-28 11:24:39.7440,-0.013,-0.259,-0.716,-1.13,-1.15,-2.47,-0.2,0.96,-0.67
2022-01-28 11:24:39.7540,0.004,-0.257,-0.839,-1.16,-1.19,-1.37,-0.31,1.14,-0.73
2022-01-28 11:24:39.7640,0.026,-0.254,-0.896,-1.22,-1.19,-0.4,-0.31,1.14,-0.73
2022-01-28 11:24:39.7740,0.056,-0.259,-0.891,-1.32,-1.19,-0.27,-0.2,1.45,-0.66
2022-01-28 11:24:39.7840,0.088,-0.294,-0.903,-1.49,-1.0,-0.32,-0.2,1.45,-0.66
2022-01-28 11:24:39.7950,0.096,-0.349,-0.931,-1.56,-0.49,-0.09,0.04,1.63,-0.37
2022-01-28 11:24:39.8040,0.066,-0.353,-0.949,-1.28,-0.14,0.15,0.16,1.6,-0.24
2022-01-28 11:24:39.8140,0.012,-0.312,-0.944,-0.68,-0.42,0.2,0.21,1.57,-0.14
2022-01-28 11:24:39.8250,-0.047,-0.319,-0.984,-0.01,-0.68,0.33,0.27,1.41,-0.04
2022-01-28 11:24:39.8340,-0.068,-0.314,-0.998,0.72,-0.76,1.01,0.21,1.21,-0.01
2022-01-28 11:24:39.8450,-0.078,-0.303,-1.076,0.72,-0.76,1.01,0.07,0.79,0.03
2022-01-28 11:24:39.8540,-0.122,-0.302,-1.145,1.1,-0.74,1.89,0.07,0.79,0.03
2022-01-28 11:24:39.8650,-0.182,-0.275,-1.156,1.61,-0.93,2.3,-0.25,0.14,0.3
2022-01-28 11:24:39.8750,-0.245,-0.338,-1.147,2.34,-0.86,2.1,-0.25,0.14,0.3
2022-01-28 11:24:39.8850,-0.254,-0.445,-1.236,2.69,1.1,3.46,-0.61,-0.42,0.8
2022-01-28 11:24:39.8950,-0.294,-0.504,-1.313,2.69,1.1,3.46,-0.61,-0.42,0.8
2022-01-28 11:24:39.9050,-0.348,-0.525,-1.337,3.08,1.57,3.86,-0.75,-0.64,0.98
2022-01-28 11:24:39.9150,-0.391,-0.529,-1.367,3.5,1.71,4.05,-0.8,-0.74,1.06
2022-01-28 11:24:39.9250,-0.393,-0.554,-1.391,3.63,1.91,4.35,-0.8,-0.74,1.06
2022-01-28 11:24:39.9350,-0.362,-0.579,-1.367,2.94,2.44,3.83,-0.47,-0.43,0.63
2022-01-28 11:24:39.9450,-0.32,-0.579,-1.287,2.94,2.44,3.83,-0.22,-0.08,0.25
2022-01-28 11:24:39.9550,-0.277,-0.56,-1.171,2.53,2.35,2.84,-0.02,0.3,-0.08
2022-01-28 11:24:39.9650,-0.227,-0.548,-1.03,2.11,2.16,1.56,0.08,0.68,-0.28
2022-01-28 11:24:39.9750,-0.175,-0.547,-0.894,1.69,2.12,0.15,0.08,0.68,-0.28
2022-01-28 11:24:39.9850,-0.11,-0.538,-0.785,1.24,2.06,-1.05,0.09,0.97,-0.35
2022-01-28 11:24:39.9950,-0.043,-0.529,-0.699,0.66,1.98,-2.01,0.04,1.15,-0.35
2022-01-28 11:24:40.0050,-0.001,-0.493,-0.65,0.3,1.75,-2.68,-0.06,1.14,-0.35
2022-01-28 11:24:40.0150,0.05,-0.511,-0.617,-0.3,1.85,-3.31,-0.04,0.99,-0.3
2022-01-28 11:24:40.0260,0.064,-0.51,-0.597,-0.3,1.85,-3.31,-0.04,0.99,-0.3
2022-01-28 11:24:40.0360,0.073,-0.463,-0.576,-0.34,1.53,-3.5,0.16,0.6,-0.25
2022-01-28 11:24:40.0450,0.052,-0.411,-0.553,-0.24,1.03,-3.71,0.32,0.49,-0.26
2022-01-28 11:24:40.0550,0.023,-0.36,-0.524,0.11,0.47,-3.96,0.48,0.5,-0.28
2022-01-28 11:24:40.0650,0.009,-0.324,-0.5,0.5,-0.34,-4.43,0.61,0.59,-0.25
2022-01-28 11:24:40.0760,0.01,-0.305,-0.472,0.5,-0.34,-4.43,0.61,0.59,-0.25
2022-01-28 11:24:40.0860,0.019,-0.303,-0.467,0.54,-0.48,-4.6,0.69,0.79,-0.12
2022-01-28 11:24:40.0950,0.036,-0.301,-0.485,0.45,-0.55,-4.48,0.59,0.73,-0.07
2022-01-28 11:24:40.1050,0.036,-0.296,-0.518,0.41,-0.65,-4.21,0.59,0.73,-0.07
2022-01-28 11:24:40.1160,0.018,-0.303,-0.548,0.58,-0.68,-3.85,0.19,0.51,-0.01
2022-01-28 11:24:40.1260,0.012,-0.316,-0.58,0.78,-0.57,-3.57,-0.05,0.48,0.03
2022-01-28 11:24:40.1350,0.019,-0.332,-0.626,0.8,-0.43,-3.2,-0.25,0.49,0.08
2022-01-28 11:24:40.1450,0.041,-0.344,-0.714,0.69,-0.23,-2.58,-0.36,0.46,0.13
2022-01-28 11:24:40.1550,0.052,-0.334,-0.807,0.56,-0.18,-1.59,-0.36,0.46,0.13
2022-01-28 11:24:40.1650,0.07,-0.306,-0.865,0.45,-0.37,-0.9,-0.26,0.3,0.17
2022-01-28 11:24:40.1760,0.078,-0.295,-0.95,0.33,-0.58,-0.25,-0.26,0.3,0.17
2022-01-28 11:24:40.1860,0.083,-0.306,-1.0,0.28,-0.54,0.53,-0.14,0.13,0.22
2022-01-28 11:24:40.1960,0.094,-0.303,-1.037,0.2,-0.47,0.82,-0.02,0.01,0.28
2022-01-28 11:24:40.2060,0.117,-0.298,-1.098,0.05,-0.54,1.34,-0.1,-0.0,0.21
2022-01-28 11:24:40.2160,0.155,-0.308,-1.158,-0.3,-0.5,1.96,-0.24,-0.0,0.12
2022-01-28 11:24:40.2260,0.186,-0.308,-1.205,-0.64,-0.38,2.46,-0.24,-0.0,0.12
2022-01-28 11:24:40.2360,0.207,-0.282,-1.25,-0.91,-0.47,2.88,-0.54,-0.03,-0.05
2022-01-28 11:24:40.2460,0.215,-0.242,-1.301,-1.04,-0.77,3.34,-0.65,-0.12,-0.09
2022-01-28 11:24:40.2560,0.219,-0.217,-1.357,-1.11,-1.13,4.35,-0.72,-0.28,-0.11
2022-01-28 11:24:40.2650,0.207,-0.205,-1.403,-1.11,-1.13,4.35,-0.72,-0.4,-0.16
2022-01-28 11:24:40.2760,0.184,-0.175,-1.415,-0.96,-1.25,4.63,-0.65,-0.43,-0.19
2022-01-28 11:24:40.2860,0.161,-0.132,-1.393,-0.73,-1.58,4.53,-0.65,-0.43,-0.19
2022-01-28 11:24:40.2960,0.167,-0.114,-1.353,-0.67,-1.87,4.21,-0.49,-0.35,-0.07
2022-01-28 11:24:40.3060,0.179,-0.124,-1.298,-0.84,-1.84,3.7,-0.44,-0.32,0.12
2022-01-28 11:24:40.3150,0.181,-0.133,-1.247,-0.94,-1.67,3.16,-0.44,-0.32,0.12
2022-01-28 11:24:40.3270,0.163,-0.143,-1.192,-0.92,-1.56,2.63,-0.41,-0.35,0.28
2022-01-28 11:24:40.3370,0.133,-0.169,-1.128,-0.7,-1.35,2.04,-0.51,-0.32,0.29
2022-01-28 11:24:40.3460,0.112,-0.21,-1.065,-0.47,-0.97,1.36,-0.51,-0.32,0.29
2022-01-28 11:24:40.3560,0.106,-0.253,-1.016,-0.36,-0.47,0.79,-0.73,-0.09,0.06
2022-01-28 11:24:40.3660,0.109,-0.285,-0.976,-0.35,-0.03,0.35,-0.73,-0.09,0.06
2022-01-28 11:24:40.3770,0.122,-0.307,-0.949,-0.43,0.31,-0.01,-0.77,0.06,-0.04
2022-01-28 11:24:40.3870,0.14,-0.327,-0.917,-0.56,0.57,-0.28,-0.71,0.23,-0.06
2022-01-28 11:24:40.3970,0.161,-0.349,-0.882,-0.72,0.81,-0.65,-0.38,0.43,0.1
2022-01-28 11:24:40.4060,0.175,-0.376,-0.855,-0.87,1.11,-0.96,-0.38,0.43,0.1
2022-01-28 11:24:40.4170,0.174,-0.39,-0.828,-0.9,1.33,-1.21,-0.04,0.34,0.24
2022-01-28 11:24:40.4260,0.161,-0.402,-0.8,-0.8,1.44,-1.49,-0.04,0.34,0.24
2022-01-28 11:24:40.4370,0.141,-0.405,-0.777,-0.63,1.52,-1.73,0.09,0.21,0.23
2022-01-28 11:24:40.4470,0.114,-0.396,-0.762,-0.4,1.48,-1.93,0.15,0.03,0.14
2022-01-28 11:24:40.4570,0.09,-0.374,-0.757,-0.15,1.31,-2.02,0.16,-0.15,-0.01
2022-01-28 11:24:40.4670,0.078,-0.35,-0.763,0.02,1.06,-2.01,0.1,-0.26,-0.38
2022-01-28 11:24:40.4760,0.077,-0.337,-0.779,0.06,0.87,-1.91,0.1,-0.26,-0.38
2022-01-28 11:24:40.4870,0.08,-0.319,-0.8,0.04,0.75,-1.72,0.08,0.04,-0.51
2022-01-28 11:24:40.4960,0.08,-0.285,-0.825,0.04,0.47,-1.5,0.08,0.04,-0.51
2022-01-28 11:24:40.5070,0.074,-0.252,-0.859,0.11,0.13,-1.2,0.21,0.42,-0.47
2022-01-28 11:24:40.5170,0.068,-0.218,-0.894,0.23,-0.22,-0.84,0.35,0.5,-0.46
2022-01-28 11:24:40.5270,0.064,-0.201,-0.909,0.34,-0.53,-0.55,0.51,0.52,-0.46
2022-01-28 11:24:40.5360,0.064,-0.202,-0.918,0.42,-0.62,-0.44,0.65,0.49,-0.45
2022-01-28 11:24:40.5470,0.066,-0.201,-0.91,0.48,-0.68,-0.4,0.75,0.43,-0.46
2022-01-28 11:24:40.5570,0.078,-0.209,-0.908,0.45,-0.72,-0.46,0.8,0.35,-0.49
2022-01-28 11:24:40.5670,0.09,-0.218,-0.91,0.38,-0.69,-0.42,0.8,0.35,-0.49
2022-01-28 11:24:40.5770,0.111,-0.233,-0.905,0.27,-0.65,-0.4,0.73,0.26,-0.6
2022-01-28 11:24:40.5870,0.136,-0.259,-0.894,0.07,-0.5,-0.47,0.65,0.34,-0.63
2022-01-28 11:24:40.5970,0.163,-0.29,-0.893,-0.12,-0.27,-0.52,0.57,0.5,-0.59
2022-01-28 11:24:40.6070,0.203,-0.334,-0.909,-0.38,0.05,-0.42,0.53,0.7,-0.48
2022-01-28 11:24:40.6170,0.239,-0.378,-0.944,-0.71,0.48,-0.16,0.54,0.81,-0.34
2022-01-28 11:24:40.6270,0.256,-0.398,-0.998,-0.87,0.75,0.33,0.54,0.81,-0.34
2022-01-28 11:24:40.6370,0.254,-0.403,-1.049,-0.88,0.8,0.89,0.65,0.79,-0.21
2022-01-28 11:24:40.6480,0.232,-0.384,-1.103,-0.71,0.67,1.46,1.09,0.32,-0.03
2022-01-28 11:24:40.6570,0.204,-0.338,-1.123,-0.42,0.24,1.9,1.09,0.32,-0.03
2022-01-28 11:24:40.6670,0.184,-0.282,-1.115,-0.17,-0.41,1.97,1.33,-0.25,-0.14
2022-01-28 11:24:40.6890,0.174,-0.227,-1.091,0.0,-1.73,1.65,1.21,-0.43,-0.27
2022-01-28 11:24:40.6900,0.164,-0.164,-1.075,0.0,-1.73,1.65,0.88,-0.54,-0.41
2022-01-28 11:24:40.6960,0.164,-0.111,-1.081,-0.07,-2.77,1.77,0.4,-0.56,-0.54
2022-01-28 11:24:40.7080,0.181,-0.099,-1.102,-0.07,-2.77,1.77,-0.15,-0.47,-0.62
2022-01-28 11:24:40.7170,0.207,-0.132,-1.132,-0.3,-2.6,1.99,-0.15,-0.47,-0.62
2022-01-28 11:24:40.7270,0.224,-0.18,-1.169,-0.55,-2.08,2.3,-1.01,-0.02,-0.54
2022-01-28 11:24:40.7370,0.219,-0.22,-1.201,-0.58,-1.53,2.61,-1.24,0.21,-0.4
2022-01-28 11:24:40.7470,0.207,-0.272,-1.234,-0.43,-1.01,2.87,-1.33,0.33,-0.2
2022-01-28 11:24:40.7580,0.197,-0.354,-1.265,-0.3,-0.22,3.17,-1.33,0.33,-0.2
2022-01-28 11:24:40.7680,0.179,-0.449,-1.284,-0.15,0.8,3.37,-1.12,0.08,0.26
2022-01-28 11:24:40.7780,0.146,-0.521,-1.295,0.07,1.75,3.48,-0.86,-0.25,0.42
2022-01-28 11:24:40.7880,0.09,-0.552,-1.294,0.47,2.33,3.53,-0.86,-0.25,0.42
2022-01-28 11:24:40.7980,0.033,-0.547,-1.268,0.98,2.46,3.36,-0.15,-0.95,0.45
2022-01-28 11:24:40.8080,-0.016,-0.523,-1.208,1.38,2.31,2.97,0.18,-1.12,0.35
2022-01-28 11:24:40.8180,-0.05,-0.495,-1.105,1.71,2.0,2.12,0.4,-1.14,0.24
2022-01-28 11:24:40.8280,-0.055,-0.476,-0.998,1.78,1.74,1.05,0.52,-1.05,0.14
2022-01-28 11:24:40.8380,-0.036,-0.471,-0.895,1.61,1.56,0.02,0.52,-1.05,0.14
2022-01-28 11:24:40.8480,-0.012,-0.479,-0.809,1.29,1.53,-0.91,0.55,-0.71,0.1
2022-01-28 11:24:40.8580,0.006,-0.481,-0.736,1.01,1.54,-1.68,0.56,-0.51,0.13
2022-01-28 11:24:40.8680,0.01,-0.479,-0.679,0.85,1.49,-2.31,0.61,-0.34,0.17
2022-01-28 11:24:40.8780,0.005,-0.472,-0.646,0.83,1.39,-2.73,0.61,-0.34,0.17
2022-01-28 11:24:40.8880,-0.01,-0.45,-0.62,0.9,1.19,-2.97,0.82,-0.27,0.24
2022-01-28 11:24:40.8980,-0.022,-0.422,-0.598,1.02,0.84,-3.19,0.82,-0.27,0.24
2022-01-28 11:24:40.9080,-0.027,-0.406,-0.569,1.05,0.54,-3.38,0.94,-0.34,0.22
2022-01-28 11:24:40.9180,-0.03,-0.379,-0.53,1.04,0.26,-3.71,1.11,-0.45,0.17
2022-01-28 11:24:40.9280,-0.028,-0.35,-0.493,1.01,-0.15,-4.03,1.14,-0.43,0.15
2022-01-28 11:24:40.9380,-0.01,-0.337,-0.449,0.88,-0.48,-4.39,1.16,-0.34,0.15
2022-01-28 11:24:40.9470,0.018,-0.332,-0.41,0.6,-0.64,-4.78,1.16,-0.34,0.15
2022-01-28 11:24:40.9570,0.048,-0.322,-0.384,0.29,-0.81,-5.05,1.18,-0.09,0.15
2022-01-28 11:24:40.9670,0.074,-0.308,-0.359,0.0,-1.04,-5.24,1.16,0.03,0.15
2022-01-28 11:24:40.9760,0.096,-0.3,-0.336,-0.24,-1.27,-5.44,1.11,0.14,0.17
2022-01-28 11:24:40.9870,0.111,-0.304,-0.331,-0.42,-1.38,-5.55,1.11,0.14,0.17
2022-01-28 11:24:40.9970,0.12,-0.314,-0.342,-0.53,-1.4,-5.45,0.88,0.29,0.27
2022-01-28 11:24:41.0090,0.13,-0.318,-0.37,-0.59,-1.38,-5.25,0.7,0.33,0.31
2022-01-28 11:24:41.0180,0.142,-0.316,-0.421,-0.7,-1.44,-4.8,0.7,0.33,0.31
2022-01-28 11:24:41.0370,0.153,-0.32,-0.468,-0.9,-1.4,-3.78,0.18,0.44,0.4
2022-01-28 11:24:41.0470,0.17,-0.332,-0.531,-1.06,-1.25,-3.04,-0.14,0.52,0.45
2022-01-28 11:24:41.0480,0.188,-0.349,-0.619,-1.06,-1.25,-3.04,-0.46,0.63,0.5
2022-01-28 11:24:41.0570,0.191,-0.356,-0.722,-1.15,-1.04,-2.1,-0.69,0.78,0.52
2022-01-28 11:24:41.0670,0.174,-0.327,-0.823,-1.02,-1.07,-1.14,-0.81,0.92,0.48
2022-01-28 11:24:41.0770,0.145,-0.27,-0.959,-0.73,-1.46,-0.05,-0.84,0.95,0.39
2022-01-28 11:24:41.0880,0.111,-0.231,-1.114,-0.34,-1.93,1.42,-0.78,0.87,0.26
2022-01-28 11:24:41.0980,0.092,-0.229,-1.263,0.02,-2.05,2.88,-0.67,0.65,0.07
2022-01-28 11:24:41.1080,0.115,-0.264,-1.396,0.06,-1.85,4.28,-0.67,0.65,0.07
2022-01-28 11:24:41.1190,0.167,-0.335,-1.475,-0.83,-0.51,5.84,-0.56,0.36,-0.13
2022-01-28 11:24:41.1290,0.219,-0.387,-1.513,-0.83,-0.51,5.84,-0.55,-0.09,-0.41
2022-01-28 11:24:41.1380,0.258,-0.399,-1.525,-1.27,-0.16,6.05,-0.55,-0.09,-0.41
2022-01-28 11:24:41.1490,0.28,-0.38,-1.515,-1.56,-0.13,6.03,-0.67,-0.06,-0.56
2022-01-28 11:24:41.1590,0.288,-0.346,-1.487,-1.69,-0.35,5.81,-0.67,-0.06,-0.56
2022-01-28 11:24:41.1690,0.281,-0.314,-1.456,-1.44,-0.83,5.19,-0.74,0.4,-0.58
2022-01-28 11:24:41.1780,0.26,-0.289,-1.435,-1.44,-0.83,5.19,-0.8,0.54,-0.59
2022-01-28 11:24:41.1890,0.248,-0.29,-1.42,-1.18,-0.91,4.99,-0.89,0.5,-0.63
2022-01-28 11:24:41.1990,0.25,-0.33,-1.394,-1.07,-0.59,4.8,-0.96,0.36,-0.7
2022-01-28 11:24:41.2090,0.272,-0.388,-1.349,-1.13,0.02,4.4,-1.0,0.18,-0.78
2022-01-28 11:24:41.2190,0.301,-0.441,-1.291,-1.36,0.69,3.88,-0.99,0.08,-0.85
2022-01-28 11:24:41.2290,0.322,-0.486,-1.207,-1.58,1.26,3.16,-0.92,0.13,-0.8
2022-01-28 11:24:41.2390,0.334,-0.528,-1.118,-1.71,1.79,2.23,-0.79,0.25,-0.62
2022-01-28 11:24:41.2490,0.332,-0.551,-1.047,-1.72,2.21,1.42,-0.79,0.25,-0.62
2022-01-28 11:24:41.2600,0.313,-0.557,-0.991,-1.58,2.38,0.8,-0.6,0.34,-0.34
2022-01-28 11:24:41.2700,0.283,-0.568,-0.941,-1.0,2.62,-0.21,-0.12,0.25,0.37
2022-01-28 11:24:41.2800,0.257,-0.585,-0.892,-1.0,2.62,-0.21,0.17,0.07,0.66
2022-01-28 11:24:41.2900,0.235,-0.599,-0.854,-0.79,2.75,-0.64,0.45,-0.16,0.85
2022-01-28 11:24:41.2990,0.209,-0.606,-0.822,-0.62,2.8,-0.95,0.7,-0.42,0.92
2022-01-28 11:24:41.3100,0.17,-0.593,-0.788,-0.37,2.7,-1.26,0.7,-0.42,0.92
2022-01-28 11:24:41.3200,0.127,-0.566,-0.748,-0.05,2.39,-1.58,1.05,-0.79,0.74
2022-01-28 11:24:41.3300,0.086,-0.53,-0.71,0.27,1.98,-1.97,1.05,-0.79,0.74
2022-01-28 11:24:41.3400,0.053,-0.485,-0.678,0.54,1.46,-2.28,1.12,-0.85,0.54
2022-01-28 11:24:41.3500,0.028,-0.437,-0.651,0.74,0.91,-2.54,1.11,-0.8,0.31
2022-01-28 11:24:41.3600,0.007,-0.386,-0.631,0.92,0.32,-2.74,0.99,-0.43,-0.08
2022-01-28 11:24:41.3700,-0.005,-0.346,-0.617,1.06,-0.23,-2.87,0.99,-0.43,-0.08
2022-01-28 11:24:41.3800,-0.006,-0.323,-0.611,1.12,-0.62,-2.94,0.89,0.07,-0.28
2022-01-28 11:24:41.3900,-0.002,-0.305,-0.617,1.11,-0.86,-2.91,0.89,0.07,-0.28
2022-01-28 11:24:41.4000,-0.002,-0.277,-0.633,1.13,-1.15,-2.76,0.91,0.34,-0.46
2022-01-28 11:24:41.4100,-0.008,-0.241,-0.651,1.2,-1.55,-2.54,0.91,0.34,-0.58
2022-01-28 11:24:41.4200,-0.018,-0.206,-0.672,1.35,-1.99,-2.32,0.87,0.29,-0.71
2022-01-28 11:24:41.4300,-0.027,-0.173,-0.697,1.49,-2.38,-2.06,0.75,0.22,-0.85
2022-01-28 11:24:41.4400,-0.037,-0.146,-0.735,1.64,-2.73,-1.72,0.6,0.16,-0.97
2022-01-28 11:24:41.4500,-0.035,-0.124,-0.775,1.76,-3.0,-1.28,0.6,0.16,-0.97
2022-01-28 11:24:41.4600,-0.01,-0.113,-0.801,1.7,-3.2,-0.95,0.33,0.35,-1.16
2022-01-28 11:24:41.4700,0.034,-0.132,-0.826,1.44,-3.19,-0.68,0.28,0.61,-1.17
2022-01-28 11:24:41.4800,0.092,-0.166,-0.842,1.03,-2.88,-0.44,0.32,0.94,-1.15
2022-01-28 11:24:41.4900,0.133,-0.171,-0.85,0.64,-2.66,-0.3,0.41,1.25,-1.12
2022-01-28 11:24:41.5000,0.142,-0.139,-0.864,0.57,-2.83,-0.18,0.49,1.4,-1.09
2022-01-28 11:24:41.5100,0.138,-0.099,-0.891,0.73,-3.24,0.08,0.49,1.4,-1.09
2022-01-28 11:24:41.5210,0.141,-0.096,-0.923,0.92,-3.52,0.43,0.45,1.05,-1.08
2022-01-28 11:24:41.5300,0.169,-0.133,-0.946,0.9,-3.33,0.75,0.3,0.6,-1.11
2022-01-28 11:24:41.5400,0.216,-0.181,-0.969,0.61,-2.88,0.98,0.05,0.05,-1.18
2022-01-28 11:24:41.5500,0.267,-0.234,-0.986,0.17,-2.35,1.2,-0.33,-0.47,-1.24
2022-01-28 11:24:41.5600,0.315,-0.291,-0.984,-0.32,-1.73,1.23,-0.83,-0.82,-1.24
2022-01-28 11:24:41.5710,0.346,-0.345,-0.985,-0.76,-1.06,1.14,-1.46,-0.91,-1.12
2022-01-28 11:24:41.5800,0.353,-0.4,-1.001,-0.96,-0.37,1.12,-2.13,-0.68,-0.85
Time,0.348,-0.464,-1.047,-0.91,1.36,1.86,-2.7,-0.25,-0.43
2022-01-28 11:24:41.6010,0.34,-0.539,-1.144,-0.91,1.36,1.86,-2.7,-0.25,-0.43
2022-01-28 11:24:41.6100,0.319,-0.596,-1.302,-0.8,2.33,3.03,-2.85,0.25,0.35
2022-01-28 11:24:41.6200,0.262,-0.604,-1.458,-0.4,2.9,4.6,-2.26,0.15,0.48
2022-01-28 11:24:41.6300,0.193,-0.574,-1.557,0.25,2.92,5.83,-1.38,-0.14,0.47
2022-01-28 11:24:41.6410,0.135,-0.546,-1.562,0.85,2.68,6.33,-0.44,-0.48,0.42
2022-01-28 11:24:41.6510,0.101,-0.533,-1.486,1.27,2.5,5.93,-0.44,-0.48,0.42
2022-01-28 11:24:41.6610,0.109,-0.528,-1.351,1.31,2.37,4.85,0.84,-0.94,0.27
2022-01-28 11:24:41.6710,0.146,-0.542,-1.205,0.97,2.31,3.42,1.07,-1.01,0.22
2022-01-28 11:24:41.6810,0.188,-0.559,-1.056,0.45,2.41,1.99,1.12,-0.94,0.18
2022-01-28 11:24:41.6910,0.216,-0.554,-0.914,0.01,2.37,0.55,1.06,-0.71,0.17
2022-01-28 11:24:41.7010,0.226,-0.538,-0.797,-0.24,2.15,-0.72,0.94,-0.39,0.18
2022-01-28 11:24:41.7110,0.219,-0.525,-0.718,-0.29,1.91,-1.66,0.85,-0.08,0.2
2022-01-28 11:24:41.7210,0.194,-0.507,-0.686,-0.13,1.71,-2.19,0.86,0.14,0.2
2022-01-28 11:24:41.7310,0.166,-0.47,-0.678,0.16,1.35,-2.28,0.86,0.14,0.2
2022-01-28 11:24:41.7410,0.138,-0.432,-0.675,0.47,0.86,-2.31,1.27,0.39,0.0
2022-01-28 11:24:41.7510,0.123,-0.398,-0.66,0.72,0.4,-2.28,1.27,0.43,-0.13
2022-01-28 11:24:41.7610,0.117,-0.365,-0.605,0.86,-0.08,-2.57,1.68,0.46,-0.2
2022-01-28 11:24:41.7710,0.127,-0.359,-0.519,0.91,-0.44,-3.19,1.68,0.46,-0.2
2022-01-28 11:24:41.7810,0.16,-0.371,-0.44,0.74,-0.52,-4.0,1.65,0.64,-0.15
2022-01-28 11:24:41.7900,0.192,-0.377,-0.397,0.46,-0.56,-4.51,1.65,0.64,-0.15
2022-01-28 11:24:41.8010,0.201,-0.38,-0.376,0.3,-0.63,-4.74,1.5,0.72,-0.09
2022-01-28 11:24:41.8110,0.176,-0.356,-0.395,0.45,-0.82,-4.7,1.12,0.81,-0.01
2022-01-28 11:24:41.8210,0.158,-0.327,-0.433,0.81,-1.23,-4.28,1.12,0.81,-0.01
2022-01-28 11:24:41.8310,0.157,-0.317,-0.479,0.91,-1.45,-3.87,0.65,0.68,-0.17
2022-01-28 11:24:41.8410,0.15,-0.301,-0.54,1.04,-1.65,-3.24,0.37,0.57,-0.29
2022-01-28 11:24:41.8510,0.16,-0.315,-0.585,1.07,-1.7,-2.72,0.37,0.57,-0.29
2022-01-28 11:24:41.8620,0.173,-0.339,-0.638,1.01,-1.43,-2.22,-0.23,0.46,-0.45
2022-01-28 11:24:41.8710,0.181,-0.332,-0.683,0.96,-1.3,-1.74,-0.47,0.57,-0.45
2022-01-28 11:24:41.8810,0.184,-0.314,-0.734,0.99,-1.41,-1.3,-0.62,0.75,-0.38
2022-01-28 11:24:41.8900,0.2,-0.317,-0.812,0.99,-1.45,-0.68,-0.64,0.87,-0.26
2022-01-28 11:24:41.8990,0.228,-0.33,-0.923,0.84,-1.27,0.22,-0.5838937759399414,0.78,-0.16
2022-01-28 11:24:41.9090,0.252,-0.342,-1.039,0.63,-1.11,1.44,-0.48,0.57,-0.1
2022-01-28 11:24:41.9190,0.261,-0.36,-1.105,0.51,-0.91,2.3,-0.41,0.24,-0.04
2022-01-28 11:24:41.9290,0.252,-0.368,-1.16,0.53,-0.74,2.86,-0.35,-0.16,0.01
2022-01-28 11:24:41.9390,0.242,-0.362,-1.197,0.63,-0.69,3.28,-0.3,-0.6,-0.01
2022-01-28 11:24:41.9490,0.242,-0.34,-1.228,0.61,-0.8,3.59,-0.28,-1.01,-0.11
2022-01-28 11:24:41.9590,0.243,-0.316,-1.237,0.52,-1.03,3.75,-0.28,-1.01,-0.11
2022-01-28 11:24:41.9690,0.245,-0.305,-1.23,0.39,-1.15,3.7,-0.44,-1.43,-0.46
2022-01-28 11:24:41.9790,0.246,-0.287,-1.2,0.3,-1.22,3.47,-0.44,-1.33,-0.68
2022-01-28 11:24:41.9890,0.254,-0.267,-1.152,0.17,-1.36,3.01,-0.81,-1.01,-0.89
2022-01-28 11:24:41.9990,0.267,-0.259,-1.1,0.04,-1.41,2.44,-1.01,-0.58,-1.05
2022-01-28 11:24:42.0090,0.291,-0.273,-1.063,-0.14,-1.26,1.93,-1.01,-0.58,-1.05
2022-01-28 11:24:42.0190,0.323,-0.308,-1.047,-0.39,-0.88,1.62,-1.28,0.05,-1.22
2022-01-28 11:24:42.0290,0.359,-0.351,-1.05,-0.68,-0.32,1.52,-1.28,0.05,-1.22
2022-01-28 11:24:42.0390,0.38,-0.384,-1.051,-0.94,0.21,1.54,-1.35,0.08,-1.24
2022-01-28 11:24:42.0500,0.387,-0.403,-1.031,-1.02,0.62,1.38,-1.29,-0.21,-1.16
2022-01-28 11:24:42.0590,0.391,-0.411,-1.006,-1.06,0.9,1.12,-1.16,-0.38,-1.06
2022-01-28 11:24:42.0690,0.386,-0.409,-0.964,-1.06,1.05,0.73,-0.99,-0.54,-0.95
2022-01-28 11:24:42.0790,0.378,-0.401,-0.924,-1.03,1.11,0.27,-0.8,-0.7,-0.83
2022-01-28 11:24:42.0890,0.366,-0.393,-0.888,-0.96,1.11,-0.14,-0.62,-0.82,-0.72
2022-01-28 11:24:42.1000,0.356,-0.397,-0.865,-0.91,1.16,-0.49,-0.4,-0.91,-0.6
2022-01-28 11:24:42.1090,0.342,-0.388,-0.833,-0.87,1.22,-0.72,-0.17,-0.89,-0.51
2022-01-28 11:24:42.1190,0.326,-0.37,-0.786,-0.78,1.07,-1.2,0.07,-0.82,-0.45
2022-01-28 11:24:42.1300,0.314,-0.372,-0.763,-0.71,0.99,-1.55,0.29,-0.7,-0.41
2022-01-28 11:24:42.1390,0.294,-0.36,-0.728,-0.63,0.97,-1.81,0.5,-0.54,-0.4
2022-01-28 11:24:42.1500,0.258,-0.328,-0.677,-0.35,0.68,-2.23,0.5,-0.54,-0.4
2022-01-28 11:24:42.1600,0.245,-0.316,-0.649,-0.1,0.37,-2.69,0.75,-0.15,-0.45
2022-01-28 11:24:42.1700,0.243,-0.325,-0.655,-0.05,0.35,-2.71,0.83,-0.07,-0.51
2022-01-28 11:24:42.1800,0.239,-0.319,-0.66,-0.03,0.32,-2.66,0.88,-0.07,-0.61
2022-01-28 11:24:42.1900,0.217,-0.303,-0.681,0.09,0.13,-2.49,0.9,-0.09,-0.74
2022-01-28 11:24:42.2000,0.191,-0.303,-0.701,0.4,-0.06,-2.28,0.9,-0.15,-0.87
2022-01-28 11:24:42.2100,0.186,-0.3,-0.747,0.54,-0.04,-1.94,0.88,-0.26,-1.02
2022-01-28 11:24:42.2200,0.183,-0.267,-0.801,0.57,-0.32,-1.4,0.87,-0.36,-1.17
2022-01-28 11:24:42.2300,0.174,-0.236,-0.814,0.64,-0.66,-1.0,0.87,-0.36,-1.17
2022-01-28 11:24:42.2400,0.175,-0.193,-0.823,0.72,-1.11,-0.97,0.88,-0.35,-1.34
2022-01-28 11:24:42.2500,0.182,-0.18,-0.855,0.67,-1.44,-0.72,0.85,-0.21,-1.64
2022-01-28 11:24:42.2600,0.188,-0.17,-0.88,0.67,-1.54,-0.39,0.89,-0.09,-1.76
2022-01-28 11:24:42.2700,0.21,-0.161,-0.887,0.59,-1.68,-0.18,1.02,0.09,-1.82
2022-01-28 11:24:42.2800,0.254,-0.162,-0.88,0.34,-1.79,-0.2,1.02,0.09,-1.82
2022-01-28 11:24:42.2900,0.311,-0.185,-0.87,-0.09,-1.73,-0.18,1.43,0.35,-1.77
2022-01-28 11:24:42.3000,0.358,-0.203,-0.848,-0.54,-1.57,-0.33,1.61,0.4,-1.68
2022-01-28 11:24:42.3100,0.387,-0.212,-0.832,-0.81,-1.57,-0.44,1.71,0.34,-1.54
2022-01-28 11:24:42.3200,0.412,-0.223,-0.826,-0.97,-1.55,-0.48,1.71,0.2,-1.37
2022-01-28 11:24:42.3300,0.446,-0.229,-0.821,-1.19,-1.57,-0.45,1.66,0.03,-1.17
2022-01-28 11:24:42.3400,0.493,-0.252,-0.816,-1.55,-1.58,-0.47,1.58,-0.24,-0.95
2022-01-28 11:24:42.3500,0.538,-0.255,-0.863,-2.01,-1.43,-0.28,1.58,-0.24,-0.95
2022-01-28 11:24:42.3600,0.58,-0.213,-0.954,-2.48,-1.81,0.5,0.87,-1.3,-0.64
2022-01-28 11:24:42.3700,0.61,-0.241,-1.006,-2.94,-2.04,1.3,0.1,-1.68,-0.43
2022-01-28 11:24:42.3800,0.627,-0.344,-1.007,-3.3,-1.27,1.42,-0.84,-1.68,-0.14
2022-01-28 11:24:42.3910,0.626,-0.448,-1.006,-3.52,-0.1,1.3,-1.8,-1.32,0.21
2022-01-28 11:24:42.4000,0.598,-0.52,-1.033,-3.5,0.96,1.27,-2.61,-0.75,0.57
2022-01-28 11:24:42.4100,0.536,-0.544,-1.153,-3.15,1.67,1.79,-3.08,-0.25,0.88
2022-01-28 11:24:42.4210,0.47,-0.539,-1.283,-2.51,1.95,3.13,-3.04,0.13,1.09
2022-01-28 11:24:42.4300,0.415,-0.535,-1.395,-1.94,2.14,4.14,-2.54,0.28,1.2
2022-01-28 11:24:42.4410,0.361,-0.542,-1.48,-1.43,2.31,5.09,-1.77,0.2,1.25
2022-01-28 11:24:42.4510,0.306,-0.55,-1.527,-0.91,2.55,5.73,-0.96,0.01,1.24
2022-01-28 11:24:42.4610,0.258,-0.559,-1.483,-0.44,2.63,5.75,-0.27,-0.18,1.23
2022-01-28 11:24:42.4710,0.223,-0.583,-1.392,-0.07,2.81,5.0,0.17,-0.32,1.18
2022-01-28 11:24:42.4730,0.211,-0.6,-1.276,-0.07,2.81,5.0,0.4,-0.36,1.08
2022-01-28 11:24:42.4900,0.212,-0.605,-1.158,0.14,3.07,2.79,0.4,-0.36,1.08
2022-01-28 11:24:42.5000,0.213,-0.616,-1.06,0.05,3.08,1.72,0.34,-0.26,0.79
2022-01-28 11:24:42.5100,0.205,-0.613,-0.98,0.02,3.09,0.88,0.18,-0.13,0.65
2022-01-28 11:24:42.5190,0.206,-0.605,-0.9,0.05,2.96,0.11,0.03,0.06,0.55
2022-01-28 11:24:42.5300,0.213,-0.601,-0.843,-0.06,2.89,-0.62,-0.06,0.25,0.51
2022-01-28 11:24:42.5400,0.205,-0.582,-0.806,-0.05,2.8,-1.02,-0.07,0.41,0.51
2022-01-28 11:24:42.5500,0.191,-0.541,-0.768,0.07,2.48,-1.42,-0.07,0.41,0.51
2022-01-28 11:24:42.5600,0.17,-0.501,-0.737,0.27,2.06,-1.72,0.09,0.54,0.67
2022-01-28 11:24:42.5700,0.149,-0.463,-0.702,0.51,1.68,-2.05,0.26,0.5,0.79
2022-01-28 11:24:42.5800,0.133,-0.426,-0.673,0.72,1.28,-2.33,0.46,0.41,0.89
2022-01-28 11:24:42.5900,0.127,-0.402,-0.636,0.85,0.91,-2.64,0.46,0.41,0.89
2022-01-28 11:24:42.6000,0.125,-0.397,-0.606,0.88,0.72,-2.95,0.82,0.08,1.03
2022-01-28 11:24:42.6100,0.124,-0.392,-0.567,0.88,0.6,-3.26,0.92,-0.1,1.05
2022-01-28 11:24:42.6200,0.12,-0.388,-0.526,0.88,0.44,-3.6,0.92,-0.1,1.05
2022-01-28 11:24:42.6310,0.115,-0.388,-0.487,0.87,0.35,-4.03,0.92,-0.31,1.0
2022-01-28 11:24:42.6400,0.106,-0.375,-0.467,0.88,0.18,-4.25,0.92,-0.31,1.0
2022-01-28 11:24:42.6510,0.092,-0.356,-0.449,0.93,-0.09,-4.42,0.71,-0.34,0.85
2022-01-28 11:24:42.6600,0.068,-0.339,-0.445,1.24,-0.61,-4.47,0.71,-0.34,0.85
2022-01-28 11:24:42.6700,0.043,-0.319,-0.453,1.42,-0.82,-4.29,0.54,-0.28,0.76
2022-01-28 11:24:42.6800,0.021,-0.31,-0.482,1.42,-0.82,-4.29,0.34,-0.17,0.64
2022-01-28 11:24:42.6900,0.007,-0.306,-0.539,1.63,-1.01,-3.25,-0.19,0.05,0.34
2022-01-28 11:24:42.6990,0.006,-0.285,-0.607,1.57,-1.27,-2.5,-0.45,0.13,0.17
2022-01-28 11:24:42.7090,0.015,-0.252,-0.683,1.57,-1.27,-2.5,-0.65,0.27,0.03
2022-01-28 11:24:42.7200,0.013,-0.225,-0.738,1.52,-1.54,-1.88,-0.76,0.49,-0.03
2022-01-28 11:24:42.7310,0.009,-0.208,-0.8,1.6,-1.69,-1.38,-0.81,0.71,0.01
2022-01-28 11:24:42.7400,0.013,-0.199,-0.885,1.65,-1.76,-0.68,-0.8,0.8,0.15
2022-01-28 11:24:42.7500,0.023,-0.204,-1.014,1.64,-1.69,0.33,-0.76,0.62,0.3
2022-01-28 11:24:42.7610,0.033,-0.195,-1.167,1.6,-1.6,1.78,-0.72,0.21,0.38
2022-01-28 11:24:42.7710,0.039,-0.175,-1.297,1.55,-1.73,3.15,-0.72,0.21,0.38
2022-01-28 11:24:42.7810,0.055,-0.172,-1.405,1.46,-1.79,4.3,-0.62,-1.0,0.23
2022-01-28 11:24:42.7910,0.088,-0.169,-1.483,1.15,-1.74,5.19,-0.64,-1.57,0.04
2022-01-28 11:24:42.8010,0.124,-0.169,-1.534,0.69,-1.72,5.77,-0.72,-1.97,-0.14
2022-01-28 11:24:42.8110,0.141,-0.166,-1.551,0.25,-1.64,6.1,-0.72,-1.97,-0.14
2022-01-28 11:24:42.8210,0.133,-0.141,-1.52,0.03,-1.69,5.91,-1.04,-1.74,-0.37
2022-01-28 11:24:42.8310,0.11,-0.114,-1.508,0.03,-1.93,5.62,-1.16,-1.2,-0.36
2022-01-28 11:24:42.8410,0.085,-0.126,-1.489,0.15,-1.91,5.45,-1.19,-0.52,-0.25
2022-01-28 11:24:42.8510,0.074,-0.175,-1.469,0.25,-1.48,5.17,-1.09,0.07,-0.1
2022-01-28 11:24:42.8620,0.083,-0.238,-1.47,0.23,-0.78,5.05,-0.87,0.44,0.04
2022-01-28 11:24:42.8710,0.103,-0.298,-1.459,-0.09,0.58,4.75,-0.57,0.54,0.11
2022-01-28 11:24:42.8810,0.127,-0.354,-1.417,-0.09,0.58,4.75,-0.26,0.41,0.14
2022-01-28 11:24:42.8910,0.144,-0.398,-1.351,-0.35,1.5,3.42,-0.26,0.41,0.14
2022-01-28 11:24:42.9010,0.153,-0.429,-1.259,-0.41,1.75,2.47,0.22,-0.13,0.16
2022-01-28 11:24:42.9110,0.159,-0.451,-1.16,-0.41,1.75,2.47,0.38,-0.37,0.15
2022-01-28 11:24:42.9210,0.16,-0.46,-1.052,-0.47,1.89,1.45,0.49,-0.52,0.14
2022-01-28 11:24:42.9310,0.16,-0.459,-0.952,-0.52,1.87,0.41,0.59,-0.61,0.14
2022-01-28 11:24:42.9410,0.153,-0.459,-0.861,-0.54,1.81,-0.49,0.67,-0.63,0.15
2022-01-28 11:24:42.9510,0.145,-0.454,-0.768,-0.53,1.74,-1.41,0.76,-0.59,0.15
2022-01-28 11:24:42.9610,0.13,-0.446,-0.701,-0.36,1.43,-2.79,0.85,-0.53,0.16
2022-01-28 11:24:42.9720,0.108,-0.43,-0.634,-0.36,1.43,-2.79,0.95,-0.44,0.16
2022-01-28 11:24:42.9820,0.083,-0.4,-0.579,-0.18,1.12,-3.4,1.05,-0.37,0.15
2022-01-28 11:24:42.9910,0.058,-0.371,-0.536,0.03,0.71,-3.84,1.13,-0.32,0.14
2022-01-28 11:24:43.0020,0.037,-0.352,-0.5,0.22,0.39,-4.19,1.22,-0.27,0.13
2022-01-28 11:24:43.0110,0.021,-0.328,-0.463,0.36,0.08,-4.51,1.29,-0.26,0.1
2022-01-28 11:24:43.0220,0.01,-0.301,-0.434,0.47,-0.29,-4.81,1.35,-0.28,0.06
2022-01-28 11:24:43.0320,0.002,-0.275,-0.409,0.53,-0.68,-5.02,1.37,-0.32,0.0
2022-01-28 11:24:43.0420,-0.006,-0.258,-0.391,0.58,-1.01,-5.19,1.35,-0.38,-0.07
2022-01-28 11:24:43.0520,-0.017,-0.243,-0.374,0.65,-1.28,-5.3,1.29,-0.39,-0.13
2022-01-28 11:24:43.0620,-0.031,-0.231,-0.35,0.73,-1.55,-5.46,1.19,-0.3,-0.17
2022-01-28 11:24:43.0810,-0.048,-0.234,-0.337,1.0,-1.82,-5.64,1.09,-0.11,-0.2
2022-01-28 11:24:43.0820,-0.061,-0.216,-0.334,1.0,-1.82,-5.64,1.09,-0.11,-0.2
2022-01-28 11:24:43.0920,-0.076,-0.173,-0.35,1.12,-2.25,-5.56,0.94,0.53,-0.28
2022-01-28 11:24:43.1020,-0.089,-0.138,-0.396,1.32,-2.75,-5.19,0.92,0.83,-0.39
2022-01-28 11:24:43.1120,-0.093,-0.119,-0.446,1.46,-3.09,-4.68,0.89,0.97,-0.54
2022-01-28 11:24:43.1220,-0.103,-0.12,-0.532,1.61,-3.26,-3.98,0.77,0.89,-0.73
2022-01-28 11:24:43.1330,-0.108,-0.152,-0.623,1.82,-3.18,-3.03,0.52,0.61,-0.89
2022-01-28 11:24:43.1410,-0.098,-0.231,-0.717,1.9,-2.72,-2.1,0.52,0.61,-0.89
2022-01-28 11:24:43.1510,-0.087,-0.358,-0.823,1.85,-1.71,-1.09,-0.11,-0.27,-1.02
2022-01-28 11:24:43.1620,-0.102,-0.474,-0.914,1.9,-0.41,-0.06,-0.19,-0.54,-1.01
2022-01-28 11:24:43.1720,-0.138,-0.51,-0.971,2.2,0.4,0.62,0.02,-0.52,-1.01
2022-01-28 11:24:43.1820,-0.161,-0.487,-1.02,2.52,0.43,1.1,0.52,-0.31,-1.07
2022-01-28 11:24:43.1920,-0.17,-0.419,-1.094,2.66,0.01,1.66,1.07,-0.19,-1.27
2022-01-28 11:24:43.2020,-0.178,-0.314,-1.167,2.77,-0.97,2.53,1.38,-0.16,-1.57
2022-01-28 11:24:43.2130,-0.167,-0.279,-1.16,2.83,-1.87,2.93,1.31,-0.09,-1.84
2022-01-28 11:24:43.2230,-0.11,-0.339,-1.121,2.59,-1.78,2.67,0.89,0.01,-2.05
2022-01-28 11:24:43.2330,-0.016,-0.422,-1.102,1.89,-1.07,2.4,0.89,0.01,-2.05
2022-01-28 11:24:43.2430,0.082,-0.487,-1.119,1.02,-0.37,2.42,-0.59,0.03,-2.25
2022-01-28 11:24:43.2530,0.15,-0.546,-1.175,0.28,0.25,2.78,-1.44,-0.07,-2.1
2022-01-28 11:24:43.2630,0.177,-0.619,-1.246,-0.08,0.97,3.42,-1.44,-0.07,-2.1
2022-01-28 11:24:43.2730,0.154,-0.717,-1.325,-0.02,1.99,4.04,-2.66,-0.21,-1.22
2022-01-28 11:24:43.2820,0.098,-0.791,-1.427,0.47,3.16,4.83,-2.67,-0.38,-0.78
2022-01-28 11:24:43.2930,0.048,-0.82,-1.536,1.05,3.86,5.77,-2.67,-0.38,-0.78
2022-01-28 11:24:43.3020,0.016,-0.849,-1.638,1.43,4.37,6.72,-1.4,-1.15,-0.37
2022-01-28 11:24:43.3120,-0.02,-0.864,-1.667,1.68,4.8,7.4,-0.56,-1.46,-0.42
2022-01-28 11:24:43.3210,-0.058,-0.868,-1.587,1.97,4.99,7.03,0.1,-1.53,-0.56
2022-01-28 11:24:43.3310,-0.07,-0.86,-1.448,2.13,5.03,5.87,0.5,-1.34,-0.78
2022-01-28 11:24:43.3410,-0.053,-0.826,-1.288,1.96,4.82,4.34,0.5,-1.34,-0.78
2022-01-28 11:24:43.3530,-0.021,-0.783,-1.143,1.63,4.37,2.82,0.6,-0.56,-1.37
2022-01-28 11:24:43.3630,0.018,-0.753,-1.018,1.23,3.96,1.51,0.45,-0.12,-1.64
2022-01-28 11:24:43.3730,0.057,-0.73,-0.915,0.86,3.68,0.39,0.25,0.31,-1.86
2022-01-28 11:24:43.3830,0.093,-0.706,-0.841,0.55,3.44,-0.46,0.25,0.31,-1.86
2022-01-28 11:24:43.3930,0.127,-0.681,-0.794,0.31,3.22,-1.04,0.07,0.87,-2.0
2022-01-28 11:24:43.4020,0.156,-0.646,-0.776,0.13,2.95,-1.35,0.16,0.86,-1.93
2022-01-28 11:24:43.4130,0.178,-0.61,-0.773,0.03,2.6,-1.39,0.36,0.67,-1.78
2022-01-28 11:24:43.4230,0.19,-0.576,-0.748,0.01,2.28,-1.49,0.36,0.67,-1.78
2022-01-28 11:24:43.4320,0.194,-0.545,-0.715,0.11,1.64,-2.12,0.93,0.02,-1.32
2022-01-28 11:24:43.4430,0.19,-0.518,-0.665,0.11,1.64,-2.12,1.23,-0.29,-1.06
2022-01-28 11:24:43.4520,0.181,-0.487,-0.601,0.22,1.3,-2.67,1.49,-0.55,-0.84
2022-01-28 11:24:43.4630,0.17,-0.454,-0.54,0.33,0.88,-3.25,1.67,-0.75,-0.65
2022-01-28 11:24:43.4730,0.152,-0.426,-0.484,0.45,0.47,-3.78,1.79,-0.89,-0.5
2022-01-28 11:24:43.4830,0.131,-0.399,-0.438,0.6,0.06,-4.23,1.84,-0.95,-0.4
2022-01-28 11:24:43.4930,0.111,-0.38,-0.395,0.74,-0.32,-4.62,1.84,-0.96,-0.35
2022-01-28 11:24:43.5040,0.093,-0.362,-0.361,0.86,-0.64,-4.94,1.82,-0.93,-0.36
2022-01-28 11:24:43.5130,0.081,-0.343,-0.339,0.94,-0.98,-5.15,1.76,-0.86,-0.45
2022-01-28 11:24:43.5230,0.077,-0.332,-0.32,0.96,-1.28,-5.27,1.65,-0.76,-0.57
2022-01-28 11:24:43.5330,0.076,-0.327,-0.298,0.93,-1.49,-5.42,1.48,-0.62,-0.72
2022-01-28 11:24:43.5430,0.076,-0.328,-0.289,0.9,-1.64,-5.52,1.25,-0.49,-0.88
2022-01-28 11:24:43.5530,0.074,-0.332,-0.309,0.9,-1.71,-5.43,0.93,-0.43,-1.0
2022-01-28 11:24:43.5640,0.072,-0.351,-0.364,0.93,-1.7,-5.0,0.53,-0.48,-1.09
2022-01-28 11:24:43.5740,0.059,-0.392,-0.456,1.0,-1.45,-4.26,0.53,-0.48,-1.09
2022-01-28 11:24:43.5840,0.045,-0.423,-0.582,1.16,-1.05,-3.16,-0.18,-0.97,-1.28
2022-01-28 11:24:43.5940,0.037,-0.419,-0.711,1.28,-0.91,-1.87,-0.41,-1.27,-1.43
2022-01-28 11:24:43.6040,0.041,-0.414,-0.809,1.28,-0.97,-0.76,-0.51,-1.35,-1.55
2022-01-28 11:24:43.6130,0.05,-0.428,-0.86,1.19,-0.85,-0.04,-0.51,-1.35,-1.55
2022-01-28 11:24:43.6240,0.085,-0.434,-0.883,0.95,-0.64,0.18,-0.48,-1.06,-1.61
2022-01-28 11:24:43.6340,0.13,-0.419,-0.955,0.53,-0.65,0.53,-0.37,0.05,-1.68
2022-01-28 11:24:43.6440,0.165,-0.447,-1.096,0.16,-0.63,1.59,-0.53,0.36,-1.63
2022-01-28 11:24:43.6530,0.169,-0.517,-1.294,0.05,0.04,3.17,-0.86,0.17,-1.56
2022-01-28 11:24:43.6640,0.163,-0.522,-1.587,0.21,0.55,5.62,-1.29,-0.51,-1.53
2022-01-28 11:24:43.6740,0.17,-0.489,-1.856,0.28,0.44,8.49,-1.64,-1.29,-1.5
2022-01-28 11:24:43.6840,0.182,-0.454,-2.019,0.04,-0.02,11.51,-1.77,-1.72,-1.42
2022-01-28 11:24:43.6940,0.186,-0.395,-2.072,-0.07,-0.43,11.51,-1.59,-1.61,-1.26
2022-01-28 11:24:43.7060,0.185,-0.339,-2.051,-0.07,-0.43,11.51,-1.59,-1.61,-1.26
2022-01-28 11:24:43.7160,0.189,-0.313,-1.989,-0.15,-0.75,10.99,-1.16,-1.05,-0.98
2022-01-28 11:24:43.7260,0.214,-0.356,-1.902,-0.32,-0.54,10.18,0.22,0.29,-0.17
2022-01-28 11:24:43.7340,0.254,-0.411,-1.816,-0.66,0.06,9.29,0.83,0.4,0.21
2022-01-28 11:24:43.7440,0.279,-0.46,-1.716,-0.98,0.53,8.46,1.21,0.12,0.49
2022-01-28 11:24:43.7540,0.279,-0.484,-1.588,-1.03,0.84,6.14,1.3,-0.39,0.69
2022-01-28 11:24:43.7640,0.268,-0.497,-1.465,-0.92,0.88,4.97,1.14,-0.92,0.83
2022-01-28 11:24:43.7740,0.238,-0.515,-1.339,-0.92,0.88,4.97,1.14,-0.92,0.83
2022-01-28 11:24:43.7840,0.199,-0.521,-1.235,-0.68,0.9,3.82,0.48,-1.54,1.05
2022-01-28 11:24:43.7940,0.148,-0.518,-1.153,-0.42,0.84,2.97,0.2,-1.57,1.09
2022-01-28 11:24:43.8040,0.085,-0.5,-1.08,-0.04,0.7,2.18,0.06,-1.44,1.07
2022-01-28 11:24:43.8150,0.019,-0.464,-1.032,0.43,0.41,1.59,0.06,-1.25,0.99
2022-01-28 11:24:43.8240,-0.035,-0.42,-0.982,0.86,-0.01,1.11,0.18,-1.02,0.85
2022-01-28 11:24:43.8350,-0.072,-0.379,-0.932,1.16,-0.45,0.63,0.37,-0.8,0.71
2022-01-28 11:24:43.8450,-0.09,-0.343,-0.857,1.32,-0.85,0.04,0.56,-0.57,0.57
2022-01-28 11:24:43.8550,-0.085,-0.318,-0.775,1.29,-1.21,-0.75,0.68,-0.37,0.46
2022-01-28 11:24:43.8640,-0.063,-0.311,-0.69,1.08,-1.41,-1.54,0.68,-0.37,0.46
2022-01-28 11:24:43.8750,-0.037,-0.308,-0.606,0.78,-1.5,-2.34,0.69,-0.06,0.32
2022-01-28 11:24:43.8850,-0.01,-0.302,-0.523,0.48,-1.6,-3.13,0.61,0.03,0.29
2022-01-28 11:24:43.8940,0.015,-0.295,-0.452,0.21,-1.73,-3.88,0.49,0.08,0.28
2022-01-28 11:24:43.9050,0.041,-0.291,-0.394,-0.32,-1.9,-5.02,0.33,0.11,0.28
2022-01-28 11:24:43.9150,0.067,-0.289,-0.341,-0.32,-1.9,-5.02,0.15,0.11,0.29
2022-01-28 11:24:43.9250,0.078,-0.291,-0.32,-0.51,-1.93,-5.5,-0.02,0.07,0.29
2022-01-28 11:24:43.9350,0.066,-0.286,-0.306,-0.51,-1.93,-5.5,-0.02,0.07,0.29
2022-01-28 11:24:43.9450,0.044,-0.269,-0.296,-0.34,-2.04,-5.64,-0.27,0.08,0.15
2022-01-28 11:24:43.9550,0.02,-0.265,-0.296,-0.13,-2.17,-5.71,-0.34,0.11,-0.01
2022-01-28 11:24:43.9650,-0.018,-0.279,-0.304,0.17,-2.06,-5.65,-0.34,0.11,-0.01
2022-01-28 11:24:43.9750,-0.057,-0.287,-0.299,0.6,-1.91,-5.64,-0.37,0.19,-0.18
2022-01-28 11:24:43.9850,-0.082,-0.284,-0.297,0.94,-1.86,-5.74,-0.37,0.33,-0.38
2022-01-28 11:24:43.9950,-0.101,-0.285,-0.32,1.18,-1.85,-5.66,-0.43,0.53,-0.86
2022-01-28 11:24:44.0050,-0.146,-0.3,-0.359,1.53,-1.73,-5.35,-0.47,0.54,-1.14
2022-01-28 11:24:44.0150,-0.209,-0.313,-0.398,2.2,-1.51,-4.98,-0.47,0.54,-1.14
2022-01-28 11:24:44.0250,-0.271,-0.293,-0.451,2.91,-1.48,-4.57,-0.5,0.3,-1.94
2022-01-28 11:24:44.0350,-0.318,-0.255,-0.511,3.6,-1.73,-3.62,-0.5,0.09,-2.49
2022-01-28 11:24:44.0460,-0.3,-0.208,-0.532,3.91,-2.13,-3.62,-0.62,-0.1,-3.04
2022-01-28 11:24:44.0550,-0.224,-0.219,-0.577,3.5,-2.33,-3.37,-0.92,-0.24,-3.44
2022-01-28 11:24:44.0640,-0.153,-0.31,-0.626,2.83,-1.68,-2.89,-1.36,-0.22,-3.63
2022-01-28 11:24:44.0750,-0.111,-0.391,-0.655,2.42,-0.6,-2.55,-1.36,-0.22,-3.63
2022-01-28 11:24:44.0850,-0.088,-0.433,-0.713,2.23,0.17,-2.29,-2.21,0.33,-3.65
2022-01-28 11:24:44.0950,-0.076,-0.435,-0.819,2.22,0.61,-1.49,-2.4,0.68,-3.68
2022-01-28 11:24:44.1050,-0.066,-0.44,-0.942,2.28,0.81,-0.46,-2.36,0.94,-3.67
2022-01-28 11:24:44.1160,-0.057,-0.495,-1.119,2.420917726457119,2.39,2.75,-2.08,0.96,-3.53
2022-01-28 11:24:44.1260,-0.025,-0.581,-1.311,2.42,2.39,2.75,-1.61,0.66,-3.22
2022-01-28 11:24:44.1360,0.041,-0.694,-1.527,2.11,3.62,4.67,-1.1,-0.02,-2.79
2022-01-28 11:24:44.1460,0.12,-0.804,-1.71,1.47,4.97,6.75,-0.77,-0.79,-2.32
2022-01-28 11:24:44.1560,0.173,-0.907,-1.824,0.84,6.15,8.11,-0.73,-1.45,-1.89
2022-01-28 11:24:44.1660,0.192,-0.962,-1.95,0.44,7.18,9.15,-0.84,-1.97,-1.61
2022-01-28 11:24:44.1760,0.158,-0.879,-2.107,0.38,7.22,10.54,-0.87,-2.29,-1.52
2022-01-28 11:24:44.1860,0.084,-0.643,-2.228,0.81,5.72,11.92,-0.64,-2.33,-1.54
2022-01-28 11:24:44.1980,0.03,-0.373,-2.268,1.3,3.13,12.69,-0.64,-2.33,-1.54
2022-01-28 11:24:44.2070,0.006,-0.181,-2.228,1.47,0.92,12.6,-0.12,-2.05,-1.48
2022-01-28 11:24:44.2180,-0.003,-0.072,-2.122,1.39,-1.14,10.73,1.18,-1.05,-1.0
2022-01-28 11:24:44.2280,-0.007,-0.073,-2.012,1.39,-1.14,10.73,1.18,-1.05,-1.0
2022-01-28 11:24:44.2370,0.005,-0.124,-1.879,1.32,-0.9,9.54,2.05,-0.47,-0.5
2022-01-28 11:24:44.2460,0.027,-0.168,-1.741,1.06,-0.55,8.25,2.43,-0.47,-0.37
2022-01-28 11:24:44.2650,0.023,-0.17,-1.575,1.1,-0.93,5.19,2.43,-0.47,-0.37
2022-01-28 11:24:44.2660,-0.018,-0.133,-1.408,1.1,-0.93,5.19,2.76,-0.58,-0.27
2022-01-28 11:24:44.2760,-0.07,-0.093,-1.246,1.53,-1.61,3.61,2.99,-0.73,-0.16
2022-01-28 11:24:44.2860,-0.126,-0.062,-1.116,1.99,-2.22,2.26,3.11,-0.92,-0.04
2022-01-28 11:24:44.2970,-0.176,-0.027,-0.999,2.43,-2.84,1.16,3.14,-1.16,0.06
2022-01-28 11:24:44.3060,-0.209,-0.001,-0.899,2.74,-3.43,0.17,3.03,-1.63,-0.05
2022-01-28 11:24:44.3170,-0.228,0.016,-0.819,2.85,-3.92,-0.6,2.86,-1.83,-0.24
2022-01-28 11:24:44.3260,-0.244,0.025,-0.737,2.86,-4.32,-1.24,2.86,-1.83,-0.24
2022-01-28 11:24:44.3370,-0.252,0.023,-0.644,2.84,-4.6,-2.03,2.59,-1.91,-0.47
2022-01-28 11:24:44.3460,-0.248,0.014,-0.575,2.71,-4.75,-2.73,1.84,-1.8,-1.03
2022-01-28 11:24:44.3570,-0.24,0.007,-0.527,2.51,-4.84,-3.2,1.84,-1.8,-1.03
2022-01-28 11:24:44.3660,-0.235,0.01,-0.478,2.36,-4.97,-3.57,0.92,-1.34,-1.54
2022-01-28 11:24:44.3760,-0.23,0.005,-0.435,2.25,-5.1,-4.0,0.51,-0.96,-1.71
2022-01-28 11:24:44.3860,-0.218,-0.013,-0.421,2.14,-5.04,-4.24,0.17,-0.57,-1.83
2022-01-28 11:24:44.3960,-0.201,-0.021,-0.428,2.0,-4.92,-4.24,-0.05,-0.27,-1.92
2022-01-28 11:24:44.4060,-0.193,-0.019,-0.445,1.91,-4.92,-4.11,-0.15,-0.15,-1.95
2022-01-28 11:24:44.4170,-0.187,-0.039,-0.479,1.96,-4.87,-3.88,-0.1,-0.28,-1.86
2022-01-28 11:24:44.4270,-0.153,-0.098,-0.522,1.88,-4.46,-3.47,0.06,-0.64,-1.64
2022-01-28 11:24:44.4360,-0.087,-0.173,-0.551,1.43,-3.74,-3.11,0.29,-1.11,-1.36
2022-01-28 11:24:44.4460,-0.03,-0.221,-0.54,0.78,-3.11,-2.97,0.5,-1.51,-1.1
2022-01-28 11:24:44.4570,0.004,-0.255,-0.483,-0.02,-2.42,-3.89,0.6,-1.76,-0.88
2022-01-28 11:24:44.4670,0.02,-0.306,-0.43,-0.02,-2.42,-3.89,0.56,-1.84,-0.69
2022-01-28 11:24:44.4770,0.023,-0.357,-0.387,-0.19,-1.92,-4.33,0.42,-1.8,-0.53
2022-01-28 11:24:44.4870,0.026,-0.386,-0.358,-0.34,-1.57,-4.67,0.2,-1.68,-0.47
2022-01-28 11:24:44.4970,0.027,-0.405,-0.343,-0.48,-1.4,-4.85,0.2,-1.68,-0.47
2022-01-28 11:24:44.5070,0.037,-0.444,-0.35,-0.64,-1.15,-4.91,-0.35,-1.48,-0.5
2022-01-28 11:24:44.5170,0.04,-0.502,-0.392,-0.82,-0.65,-4.66,-0.35,-1.48,-0.5
2022-01-28 11:24:44.5270,0.036,-0.564,-0.445,-0.9,0.01,-4.2,-0.79,-1.5,-0.6
2022-01-28 11:24:44.5370,0.035,-0.61,-0.518,-0.96,0.59,-3.62,-0.84,-1.57,-0.71
2022-01-28 11:24:44.5470,0.037,-0.634,-0.592,-1.07,1.02,-2.86,-0.79,-1.57,-0.89
2022-01-28 11:24:44.5570,0.041,-0.64,-0.623,-1.19,1.19,-2.36,-0.7,-1.4,-1.12
2022-01-28 11:24:44.5670,0.051,-0.66,-0.631,-1.35,1.36,-2.25,-0.66,-1.05,-1.35
2022-01-28 11:24:44.5780,0.065,-0.69,-0.636,-1.67,2.0,-2.2,-0.73,-0.56,-1.55
2022-01-28 11:24:44.5880,0.081,-0.719,-0.638,-1.67,2.0,-2.2,-0.86,0.06,-1.67
2022-01-28 11:24:44.5970,0.1,-0.754,-0.651,-1.8,2.36,-2.21,-0.86,0.06,-1.67
2022-01-28 11:24:44.6070,0.126,-0.79,-0.72,-1.91,2.79,-1.88,-1.13,1.1,-1.73
2022-01-28 11:24:44.6180,0.156,-0.814,-0.806,-2.16,3.47,-0.35,-1.19,1.43,-1.72
2022-01-28 11:24:44.6270,0.182,-0.839,-0.892,-2.16,3.47,-0.35,-1.21,1.56,-1.69
2022-01-28 11:24:44.6370,0.196,-0.879,-0.997,-2.02,4.42,1.47,-1.21,1.56,-1.69
2022-01-28 11:24:44.6470,0.2,-0.924,-1.082,-2.02,4.42,1.47,-1.2,1.36,-1.36
2022-01-28 11:24:44.6580,0.202,-0.972,-1.139,-1.85,4.99,2.09,-1.18,1.22,-0.98
2022-01-28 11:24:44.6670,0.202,-1.007,-1.206,-1.68,5.54,2.6,-1.13,1.03,-0.5
2022-01-28 11:24:44.6770,0.197,-1.024,-1.293,-1.53,5.87,3.33,-1.13,1.03,-0.5
2022-01-28 11:24:44.6960,0.182,-1.043,-1.384,-1.03,6.36,4.97,-0.74,0.59,0.52
2022-01-28 11:24:44.6970,0.143,-1.033,-1.454,-1.03,6.36,4.97,-0.33,0.42,0.87
2022-01-28 11:24:44.7070,0.072,-0.96,-1.516,0.35,5.0,6.21,0.14,0.22,1.06
2022-01-28 11:24:44.7170,-0.017,-0.831,-1.585,0.35,5.0,6.21,0.59,-0.06,1.12
2022-01-28 11:24:44.7270,-0.092,-0.71,-1.627,1.16,3.65,6.79,0.91,-0.4,1.1
2022-01-28 11:24:44.7380,-0.144,-0.627,-1.642,1.73,2.59,7.09,1.08,-0.72,1.04
2022-01-28 11:24:44.7470,-0.172,-0.571,-1.606,2.03,1.85,7.04,1.14,-0.9,0.94
2022-01-28 11:24:44.7580,-0.181,-0.512,-1.555,2.09,1.21,6.58,1.15,-0.97,0.8
2022-01-28 11:24:44.7680,-0.188,-0.439,-1.504,2.03,0.47,6.18,1.18,-0.89,0.65
2022-01-28 11:24:44.7770,-0.194,-0.362,-1.426,1.98,-0.41,5.58,1.24,-0.67,0.5
2022-01-28 11:24:44.7880,-0.196,-0.303,-1.344,1.92,-1.19,4.82,1.33,-0.35,0.37
2022-01-28 11:24:44.7980,-0.197,-0.261,-1.261,1.86,-1.78,4.08,1.45,0.0,0.25
2022-01-28 11:24:44.8080,-0.194,-0.223,-1.175,1.75,-2.75,2.59,1.57,0.31,0.13
2022-01-28 11:24:44.8180,-0.184,-0.195,-1.107,1.75,-2.75,2.59,1.68,0.48,0.01
2022-01-28 11:24:44.8280,-0.179,-0.175,-1.041,1.68,-3.09,2.06,1.77,0.56,-0.09
2022-01-28 11:24:44.8380,-0.18,-0.151,-0.965,1.72,-3.46,1.41,1.77,0.56,-0.09
2022-01-28 11:24:44.8480,-0.176,-0.142,-0.9,1.75,-3.79,0.82,1.8,0.4,-0.16
2022-01-28 11:24:44.8580,-0.17,-0.144,-0.836,1.75,-3.95,0.27,1.8,0.4,-0.16
2022-01-28 11:24:44.8680,-0.175,-0.149,-0.795,1.76,-4.06,-0.17,1.64,-0.1,-0.08
2022-01-28 11:24:44.8770,-0.201,-0.158,-0.765,1.92,-4.13,-0.39,1.64,-0.1,-0.08
2022-01-28 11:24:44.8880,-0.237,-0.161,-0.732,2.24,-4.19,-0.61,1.54,-0.77,-0.06
2022-01-28 11:24:44.8980,-0.269,-0.156,-0.707,2.55,-4.33,-0.79,1.56,-1.05,-0.12
2022-01-28 11:24:44.9080,-0.284,-0.151,-0.654,2.74,-4.5,-1.04,1.58,-1.18,-0.22
2022-01-28 11:24:44.9180,-0.278,-0.166,-0.583,2.7,-4.61,-1.61,1.54,-1.15,-0.28
2022-01-28 11:24:44.9290,-0.267,-0.208,-0.509,2.52,-4.42,-2.21,1.45,-0.98,-0.27
2022-01-28 11:24:44.9380,-0.26,-0.239,-0.444,2.35,-4.14,-2.83,1.31,-0.74,-0.22
2022-01-28 11:24:44.9480,-0.261,-0.258,-0.406,2.27,-4.02,-3.25,1.15,-0.5,-0.15
2022-01-28 11:24:44.9580,-0.267,-0.281,-0.386,2.28,-3.93,-3.43,1.01,-0.35,-0.08
2022-01-28 11:24:44.9680,-0.268,-0.32,-0.388,2.3,-3.7,-3.48,1.01,-0.35,-0.08
2022-01-28 11:24:44.9780,-0.259,-0.364,-0.421,2.24,-3.35,-3.21,0.91,-0.38,-0.02
2022-01-28 11:24:44.9890,-0.241,-0.395,-0.455,2.06,-3.02,-2.8,0.76,-1.03,-0.02
2022-01-28 11:24:44.9990,-0.225,-0.414,-0.467,1.85,-2.85,-2.47,0.63,-1.46,-0.08
2022-01-28 11:24:45.0090,-0.204,-0.449,-0.462,1.58,-2.68,-2.43,0.41,-1.87,-0.15
2022-01-28 11:24:45.0190,-0.185,-0.498,-0.454,1.28,-2.27,-2.43,0.1,-2.17,-0.2
2022-01-28 11:24:45.0290,-0.166,-0.545,-0.424,0.98,-1.83,-2.56,-0.27,-2.27,-0.24
2022-01-28 11:24:45.0380,-0.169,-0.56,-0.397,0.71,-1.42,-2.92,-0.66,-2.2,-0.32
2022-01-28 11:24:45.0480,-0.183,-0.528,-0.388,0.71,-1.6,-3.03,-0.66,-2.2,-0.32
2022-01-28 11:24:45.0590,-0.207,-0.531,-0.391,0.75,-1.7,-3.14,-1.01,-1.97,-0.42
2022-01-28 11:24:45.0770,-0.228,-0.525,-0.439,0.98,-1.64,-2.38,-1.49,-1.4,-0.72
2022-01-28 11:24:45.0790,-0.237,-0.507,-0.512,0.98,-1.64,-2.38,-1.49,-1.4,-0.72
2022-01-28 11:24:45.0880,-0.23,-0.499,-0.568,0.94,-1.7,-1.8,-1.52,-1.08,-1.33
2022-01-28 11:24:45.0970,-0.213,-0.511,-0.609,0.8,-1.57,-1.43,-1.44,-0.96,-1.63
2022-01-28 11:24:45.1070,-0.187,-0.532,-0.635,0.6,-1.31,-1.18,-1.37,-0.83,-1.85
2022-01-28 11:24:45.1180,-0.16,-0.559,-0.648,0.38,-0.99,-1.08,-1.37,-0.83,-1.85
2022-01-28 11:24:45.1280,-0.126,-0.585,-0.659,0.14,-0.64,-1.05,-1.28,-0.6,-2.05
2022-01-28 11:24:45.1380,-0.09,-0.604,-0.676,-0.14,-0.35,-1.0,-1.23,-0.57,-2.07
2022-01-28 11:24:45.1480,-0.058,-0.623,-0.7,-0.4,-0.09,-0.86,-1.19,-0.61,-2.05
2022-01-28 11:24:45.1580,-0.037,-0.645,-0.726,-0.58,0.18,-0.69,-1.15,-0.71,-2.01
2022-01-28 11:24:45.1680,-0.025,-0.671,-0.756,-0.66,0.49,-0.49,-1.15,-0.71,-2.01
2022-01-28 11:24:45.1790,-0.013,-0.686,-0.789,-0.71,0.78,-0.21,-1.11,-0.86,-1.94
2022-01-28 11:24:45.1900,0.002,-0.693,-0.814,-0.81,0.94,0.01,-1.03,-1.13,-1.83
2022-01-28 11:24:45.1990,0.017,-0.71,-0.843,-0.92,1.12,0.21,-1.03,-1.13,-1.83
2022-01-28 11:24:45.2090,0.028,-0.727,-0.875,-1.07,1.58,0.73,-1.05,-1.23,-1.72
2022-01-28 11:24:45.2190,0.02,-0.74,-0.909,-1.07,1.58,0.73,-1.05,-1.23,-1.72
2022-01-28 11:24:45.2290,0.003,-0.751,-0.952,-0.94,1.78,1.06,-1.12,-1.17,-1.62
2022-01-28 11:24:45.2390,-0.01,-0.76,-1.008,-0.79,1.93,1.47,-1.15,-1.16,-1.57
2022-01-28 11:24:45.2490,-0.02,-0.784,-1.085,-0.69,2.17,2.09,-1.15,-1.16,-1.57
2022-01-28 11:24:45.2600,-0.026,-0.808,-1.161,-0.62,2.52,2.79,-1.11,-1.23,-1.4
2022-01-28 11:24:45.2690,-0.025,-0.826,-1.243,-0.61,2.8,3.51,-1.06,-1.33,-1.31
2022-01-28 11:24:45.2790,-0.029,-0.838,-1.335,-0.66,3.04,4.32,-1.02,-1.47,-1.24
2022-01-28 11:24:45.2890,-0.042,-0.827,-1.411,-0.61,3.14,5.13,-1.02,-1.62,-1.22
2022-01-28 11:24:45.2990,-0.059,-0.807,-1.48,-0.53,3.02,5.8,-1.08,-1.71,-1.23
2022-01-28 11:24:45.3100,-0.078,-0.781,-1.527,-0.43,2.9,6.36,-1.16,-1.6,-1.25
2022-01-28 11:24:45.3200,-0.098,-0.735,-1.539,-0.31,2.63,6.62,-1.14,-1.27,-1.26
2022-01-28 11:24:45.3300,-0.107,-0.677,-1.53,-0.23,2.2,6.57,-1.14,-1.27,-1.26
2022-01-28 11:24:45.3400,-0.106,-0.612,-1.504,-0.24,1.66,6.35,-0.55,-0.24,-1.23
2022-01-28 11:24:45.3500,-0.101,-0.547,-1.454,-0.27,1.08,5.99,0.04,0.26,-1.16
2022-01-28 11:24:45.3600,-0.1,-0.482,-1.378,-0.27,0.47,5.31,0.7,0.59,-1.03
2022-01-28 11:24:45.3700,-0.106,-0.433,-1.286,-0.15,-0.16,4.52,0.7,0.59,-1.03
2022-01-28 11:24:45.3800,-0.112,-0.411,-1.176,0.0,-0.56,3.53,1.79,0.63,-0.58
2022-01-28 11:24:45.3890,-0.125,-0.387,-1.065,0.2,-0.9,2.49,2.1,0.4,-0.35
2022-01-28 11:24:45.4000,-0.14,-0.361,-0.952,0.41,-1.33,1.48,2.25,0.09,-0.16
2022-01-28 11:24:45.4100,-0.154,-0.342,-0.848,0.6,-1.72,0.51,2.29,-0.24,-0.04
2022-01-28 11:24:45.4210,-0.167,-0.323,-0.757,0.73,-2.1,-0.34,2.2,-0.58,-0.02
2022-01-28 11:24:45.4300,-0.186,-0.309,-0.692,0.85,-2.45,-0.99,2.03,-0.9,-0.06
2022-01-28 11:24:45.4400,-0.214,-0.298,-0.639,1.04,-2.73,-1.41,1.79,-1.14,-0.18
2022-01-28 11:24:45.4500,-0.239,-0.278,-0.587,1.24,-3.04,-1.8,1.79,-1.14,-0.18
2022-01-28 11:24:45.4590,-0.256,-0.264,-0.548,1.37,-3.36,-2.15,1.16,-1.39,-0.59
2022-01-28 11:24:45.4690,-0.264,-0.256,-0.522,1.4,-3.72,-2.5,0.77,-1.39,-0.85
2022-01-28 11:24:45.4790,-0.267,-0.252,-0.502,1.35,-3.8,-2.6,0.35,-1.31,-1.1
2022-01-28 11:24:45.4890,-0.264,-0.247,-0.493,1.35,-3.8,-2.6,-0.08,-1.16,-1.36
2022-01-28 11:24:45.4990,-0.253,-0.237,-0.496,1.27,-3.92,-2.58,-0.48,-0.94,-1.62
2022-01-28 11:24:45.5090,-0.236,-0.232,-0.504,1.13,-4.0,-2.53,-0.8,-0.67,-1.86
2022-01-28 11:24:45.5200,-0.215,-0.231,-0.525,0.98,-4.0,-2.41,-1.03,-0.36,-2.05
2022-01-28 11:24:45.5300,-0.19,-0.225,-0.542,0.83,-3.98,-2.25,-1.13,0.0,-2.17
2022-01-28 11:24:45.5400,-0.16,-0.225,-0.547,0.67,-3.98,-2.22,-1.13,0.37,-2.19
2022-01-28 11:24:45.5500,-0.128,-0.248,-0.554,0.51,-3.81,-2.23,-1.13,0.37,-2.19
2022-01-28 11:24:45.5610,-0.093,-0.298,-0.564,0.19,-2.74,-2.15,-0.89,0.87,-1.91
2022-01-28 11:24:45.5710,-0.06,-0.36,-0.581,0.19,-2.74,-2.15,-0.71,0.87,-1.68
2022-01-28 11:24:45.5800,-0.022,-0.416,-0.592,0.02,-2.09,-2.07,-0.53,0.67,-1.43
2022-01-28 11:24:45.5900,0.006,-0.468,-0.597,-0.16,-1.53,-2.03,-0.4,0.33,-1.17
2022-01-28 11:24:45.6010,0.03,-0.515,-0.592,-0.41,-0.57,-2.11,-0.3,-0.1,-0.91
2022-01-28 11:24:45.6110,0.05,-0.547,-0.592,-0.41,-0.57,-2.11,-0.24,-0.57,-0.66
2022-01-28 11:24:45.6210,0.068,-0.564,-0.577,-0.56,-0.3,-2.19,-0.23,-0.96,-0.44
2022-01-28 11:24:45.6310,0.085,-0.574,-0.558,-0.9293025152385236,-0.08,-2.6,-0.24,-1.2,-0.26
2022-01-28 11:24:45.6410,0.09,-0.574,-0.538,-0.93,-0.08,-2.6,-0.28,-1.26,-0.13
2022-01-28 11:24:45.6510,0.087,-0.568,-0.522,-1.03,-0.11,-2.8,-0.3,-1.14,-0.06
2022-01-28 11:24:45.6610,0.078,-0.562,-0.516,-1.05,-0.13,-2.92,-0.31,-0.88,-0.03
2022-01-28 11:24:45.6700,0.068,-0.551,-0.519,-1.05,-0.19,-2.95,-0.31,-0.88,-0.03
2022-01-28 11:24:45.6810,0.055,-0.534,-0.527,-1.0,-0.31,-2.9,-0.22,-0.21,-0.02
2022-01-28 11:24:45.6910,0.036,-0.518,-0.542,-0.88,-0.46,-2.81,-0.12,0.07,-0.03
2022-01-28 11:24:45.7010,0.023,-0.509,-0.56,-0.71,-0.57,-2.65,0.03,0.27,-0.04
2022-01-28 11:24:45.7110,0.027,-0.515,-0.565,-0.64,-0.58,-2.52,0.03,0.27,-0.04
2022-01-28 11:24:45.7210,0.049,-0.534,-0.561,-0.94,-0.24,-2.59,0.35,0.39,-0.1
2022-01-28 11:24:45.7310,0.066,-0.562,-0.551,-0.94,-0.24,-2.59,0.46,0.36,-0.09
2022-01-28 11:24:45.7410,0.077,-0.584,-0.53,-1.03,0.01,-2.72,0.5,0.32,-0.06
2022-01-28 11:24:45.7520,0.089,-0.598,-0.51,-1.11,0.12,-2.92,0.47,0.26,-0.03
2022-01-28 11:24:45.7610,0.099,-0.62,-0.502,-1.2,0.26,-3.03,0.37,0.2,0.02
2022-01-28 11:24:45.7710,0.106,-0.644,-0.501,-1.25,0.45,-3.05,0.37,0.2,0.02
2022-01-28 11:24:45.7820,0.111,-0.675,-0.518,-1.31,0.69,-2.97,0.03,0.07,0.12
2022-01-28 11:24:45.7910,0.098,-0.709,-0.56,-1.1,1.3,-2.17,-0.17,0.03,0.18
2022-01-28 11:24:45.8010,0.076,-0.731,-0.624,-1.1,1.3,-2.17,-0.31,-0.05,0.22
2022-01-28 11:24:45.8220,0.045,-0.739,-0.716,-0.57,1.49,-0.5,-0.35,-0.14,0.22
2022-01-28 11:24:45.8230,0.019,-0.732,-0.801,-0.57,1.49,-0.5,-0.35,-0.14,0.22
2022-01-28 11:24:45.8310,0.002,-0.723,-0.867,-0.39,1.43,0.21,-0.16,-0.19,0.13
2022-01-28 11:24:45.8420,-0.014,-0.726,-0.915,-0.13,1.49,1.09,0.0,-0.05,0.12
2022-01-28 11:24:45.8520,-0.028,-0.732,-0.932,-0.13,1.49,1.09,0.0,-0.05,0.12
2022-01-28 11:24:45.8610,-0.035,-0.74,-0.935,-0.03,1.53,1.15,0.17,0.24,0.16
2022-01-28 11:24:45.8720,-0.039,-0.763,-0.948,0.03,1.66,1.23,0.32,0.59,0.25
2022-01-28 11:24:45.8810,-0.05,-0.789,-0.981,0.12,1.91,1.45,0.56,0.97,0.58
2022-01-28 11:24:45.8940,-0.077,-0.799,-1.033,0.39,2.02,1.94,0.65,0.79,0.73
2022-01-28 11:24:45.9020,-0.119,-0.789,-1.102,0.74,1.96,2.58,0.73,0.38,0.8
2022-01-28 11:24:45.9120,-0.175,-0.789,-1.17,1.17,1.77,3.3,0.96,-0.38,0.99
2022-01-28 11:24:45.9230,-0.207,-0.761,-1.207,1.71,1.89,4.02,0.94,-0.95,0.83
2022-01-28 11:24:45.9330,-0.179,-0.669,-1.169,1.34,0.67,3.94,0.73,-1.2,0.63
2022-01-28 11:24:45.9430,-0.189,-0.791,-1.096,1.26,1.1,3.48,0.43,-1.12,0.46
2022-01-28 11:24:45.9530,-0.189,-0.74,-1.069,1.13,1.62,2.82,0.08,-0.93,0.22
2022-01-28 11:24:45.9630,-0.197,-0.658,-1.095,1.14,0.66,3.0,-0.25,-0.63,-0.03
2022-01-28 11:24:45.9730,-0.188,-0.632,-1.09,1.1,0.23,3.07,-0.51,-0.28,-0.25
2022-01-28 11:24:45.9830,-0.166,-0.602,-1.107,0.94,0.03,3.04,-0.64,0.01,-0.44
2022-01-28 11:24:45.9930,-0.135,-0.564,-1.124,0.71,-0.26,3.25,-0.63,0.24,-0.61
2022-01-28 11:24:46.0030,-0.101,-0.533,-1.108,0.46,-0.59,3.19,-0.52,0.42,-0.72
2022-01-28 11:24:46.0130,-0.06,-0.522,-1.078,0.15,-0.77,2.94,-0.37,0.52,-0.76
2022-01-28 11:24:46.0230,-0.018,-0.535,-1.029,-0.16,-0.74,2.52,-0.23,0.52,-0.71
2022-01-28 11:24:46.0330,0.032,-0.568,-0.977,-0.53,-0.48,1.99,-0.16,0.41,-0.59
2022-01-28 11:24:46.0430,0.083,-0.604,-0.928,-0.98,-0.11,1.49,-0.16,0.41,-0.59
2022-01-28 11:24:46.0530,0.126,-0.628,-0.872,-1.41,0.2,0.97,-0.16,-0.02,-0.27
2022-01-28 11:24:46.0630,0.152,-0.641,-0.816,-1.76,0.39,0.39,-0.19,-0.22,-0.11
2022-01-28 11:24:46.0730,0.153,-0.636,-0.764,-1.91,0.47,-0.14,-0.18,-0.36,0.03
2022-01-28 11:24:46.0830,0.141,-0.608,-0.714,-1.86,0.31,-0.66,-0.15,-0.44,0.12
2022-01-28 11:24:46.0930,0.129,-0.577,-0.681,-1.79,0.0,-1.1,-0.07,-0.5,0.18
2022-01-28 11:24:46.1030,0.112,-0.553,-0.652,-1.7,-0.25,-1.36,0.02,-0.52,0.22
2022-01-28 11:24:46.1130,0.098,-0.529,-0.615,-1.6,-0.49,-1.69,0.14,-0.52,0.24
2022-01-28 11:24:46.1230,0.083,-0.508,-0.583,-1.51,-0.72,-2.02,0.26,-0.48,0.25
2022-01-28 11:24:46.1330,0.072,-0.488,-0.54,-1.43,-0.94,-2.35,0.36,-0.4,0.25
2022-01-28 11:24:46.1430,0.067,-0.475,-0.496,-1.4,-1.13,-2.78,0.46,-0.29,0.25
2022-01-28 11:24:46.1530,0.062,-0.464,-0.457,-1.38,-1.28,-3.14,0.46,-0.29,0.25
2022-01-28 11:24:46.1630,0.059,-0.453,-0.419,-1.37,-1.43,-3.49,0.61,-0.04,0.24
2022-01-28 11:24:46.1730,0.054,-0.443,-0.387,-1.35,-1.59,-3.81,0.67,0.05,0.23
2022-01-28 11:24:46.1830,0.049,-0.439,-0.363,-1.32,-1.69,-4.03,0.72,0.12,0.23
2022-01-28 11:24:46.1930,0.043,-0.43,-0.333,-1.26,-1.81,-4.25,0.76,0.17,0.22
2022-01-28 11:24:46.2030,0.039,-0.424,-0.31,-1.21,-1.95,-4.49,0.78,0.18,0.2
2022-01-28 11:24:46.2130,0.035,-0.425,-0.303,-1.18,-2.03,-4.59,0.77,0.12,0.18
2022-01-28 11:24:46.2230,0.027,-0.426,-0.294,-1.12,-2.07,-4.6,0.74,0.04,0.14
2022-01-28 11:24:46.2330,0.019,-0.424,-0.29,-1.05,-2.13,-4.65,0.67,-0.1,0.11
2022-01-28 11:24:46.2430,0.006,-0.426,-0.302,-0.97,-2.17,-4.54,0.56,-0.26,0.08
2022-01-28 11:24:46.2530,-0.001,-0.435,-0.309,-0.88,-2.17,-4.42,0.4,-0.44,0.04
2022-01-28 11:24:46.2640,0.002,-0.45,-0.333,-0.9,-2.06,-4.27,0.16,-0.62,-0.01
2022-01-28 11:24:46.2740,0.008,-0.463,-0.373,-1.0,-1.94,-3.92,-0.17,-0.78,-0.06
2022-01-28 11:24:46.2840,0.022,-0.501,-0.421,-1.15,-1.7,-3.51,-0.59,-0.93,-0.12
2022-01-28 11:24:46.2940,0.02,-0.562,-0.496,-1.33,-1.13,-2.97,-1.04,-1.05,-0.15
2022-01-28 11:24:46.3040,-0.018,-0.62,-0.595,-1.18,-0.43,-2.13,-1.38,-1.09,-0.19
2022-01-28 11:24:46.3140,-0.063,-0.628,-0.672,-0.8,0.06,-1.31,-1.54,-0.98,-0.3
2022-01-28 11:24:46.3240,-0.098,-0.584,-0.742,-0.46,-0.05,-0.74,-1.54,-0.75,-0.49
2022-01-28 11:24:46.3340,-0.119,-0.532,-0.842,-0.19,-0.46,0.0,-1.45,-0.37,-0.76
2022-01-28 11:24:46.3440,-0.129,-0.493,-0.951,-0.02,-0.8,0.99,-1.35,0.16,-1.01
2022-01-28 11:24:46.3540,-0.128,-0.479,-1.058,0.11,-1.01,1.94,-1.3,0.69,-1.18
2022-01-28 11:24:46.3640,-0.12,-0.517,-1.182,0.19,-0.8,3.01,-1.29,1.05,-1.24
2022-01-28 11:24:46.3740,-0.105,-0.561,-1.31,0.23,-0.22,4.15,-1.37,1.11,-1.24
2022-01-28 11:24:46.3840,-0.093,-0.575,-1.45,0.24,0.19,5.38,-1.54,0.81,-1.18
2022-01-28 11:24:46.3940,-0.081,-0.561,-1.576,0.25,0.28,6.65,-1.8,0.25,-1.07
2022-01-28 11:24:46.4040,-0.073,-0.559,-1.655,0.2,0.31,7.59,-2.03,-0.34,-0.84
2022-01-28 11:24:46.4140,-0.067,-0.579,-1.679,0.13,0.58,7.96,-2.17,-0.84,-0.47
2022-01-28 11:24:46.4240,-0.074,-0.609,-1.678,0.06,1.02,7.96,-2.13,-1.18,0.04
2022-01-28 11:24:46.4340,-0.103,-0.641,-1.644,0.11,1.52,7.7,-1.9,-1.34,0.6
2022-01-28 11:24:46.4440,-0.152,-0.661,-1.578,0.36,1.96,7.14,-1.52,-1.29,1.12
2022-01-28 11:24:46.4560,-0.205,-0.67,-1.499,0.71,2.18,6.3,-1.52,-1.29,1.12
2022-01-28 11:24:46.4660,-0.253,-0.69,-1.423,1.06,2.47,5.58,-0.51,-0.97,1.78
2022-01-28 11:24:46.4850,-0.286,-0.686,-1.353,1.42,2.57,4.19,-0.06,-0.8,1.85
2022-01-28 11:24:46.4860,-0.308,-0.684,-1.286,1.44,2.6,3.46,0.28,-0.67,1.79
2022-01-28 11:24:46.4960,-0.318,-0.692,-1.201,1.44,2.6,3.46,0.5,-0.56,1.63
2022-01-28 11:24:46.5060,-0.324,-0.701,-1.108,1.4,2.69,2.62,0.63,-0.48,1.43
2022-01-28 11:24:46.5160,-0.326,-0.7,-1.007,1.28,2.6,0.73,0.67,-0.44,1.23
2022-01-28 11:24:46.5270,-0.328,-0.69,-0.907,1.28,2.6,0.73,0.66,-0.38,1.04
2022-01-28 11:24:46.5360,-0.318,-0.679,-0.813,1.18,2.47,-0.2,0.61,-0.31,0.85
2022-01-28 11:24:46.5460,-0.298,-0.662,-0.735,0.96,2.31,-1.02,0.61,-0.31,0.85
2022-01-28 11:24:46.5560,-0.279,-0.624,-0.664,0.71,2.03,-1.7,0.49,-0.11,0.53
2022-01-28 11:24:46.5660,-0.263,-0.568,-0.601,0.51,1.51,-2.36,0.49,-0.11,0.53
2022-01-28 11:24:46.5760,-0.246,-0.511,-0.554,0.35,0.91,-2.88,0.43,0.12,0.31
2022-01-28 11:24:46.5860,-0.229,-0.466,-0.52,0.17,0.38,-3.25,0.41,0.2,0.24
2022-01-28 11:24:46.5960,-0.218,-0.43,-0.492,0.03,-0.04,-3.54,0.4,0.25,0.2
2022-01-28 11:24:46.6060,-0.22,-0.395,-0.47,-0.01,-0.41,-3.77,0.41,0.25,0.16
2022-01-28 11:24:46.6160,-0.231,-0.363,-0.451,0.08,-0.77,-3.94,0.45,0.23,0.12
2022-01-28 11:24:46.6270,-0.238,-0.331,-0.425,0.2,-1.11,-4.15,0.51,0.2,0.06
2022-01-28 11:24:46.6360,-0.23,-0.297,-0.401,0.23,-1.49,-4.39,0.51,0.2,0.06
2022-01-28 11:24:46.6470,-0.204,-0.28,-0.385,0.06,-1.81,-4.56,0.64,0.15,-0.05
2022-01-28 11:24:46.6560,-0.179,-0.283,-0.374,-0.19,-1.93,-4.68,0.64,0.15,-0.05
2022-01-28 11:24:46.6670,-0.162,-0.294,-0.362,-0.39,-1.89,-4.74,0.66,0.17,-0.03
2022-01-28 11:24:46.6770,-0.154,-0.303,-0.347,-0.49,-1.85,-4.86,0.61,0.25,0.05
2022-01-28 11:24:46.6870,-0.154,-0.311,-0.344,-0.51,-1.8,-4.93,0.54,0.36,0.13
2022-01-28 11:24:46.6970,-0.162,-0.304,-0.344,-0.45,-1.82,-4.91,0.43,0.55,0.19
2022-01-28 11:24:46.7070,-0.179,-0.291,-0.35,-0.28,-1.98,-4.92,0.28,0.75,0.24
2022-01-28 11:24:46.7170,-0.199,-0.298,-0.387,0.21,-1.89,-4.27,0.11,0.91,0.27
2022-01-28 11:24:46.7270,-0.216,-0.319,-0.442,0.21,-1.89,-4.27,0.11,0.91,0.27
2022-01-28 11:24:46.7370,-0.231,-0.346,-0.536,0.43,-1.63,-3.59,-0.09,0.95,0.26
2022-01-28 11:24:46.7470,-0.252,-0.376,-0.656,0.65,-1.31,-2.53,-0.31,0.84,0.19
2022-01-28 11:24:46.7570,-0.277,-0.404,-0.772,0.94,-0.97,-1.37,-0.67,0.39,-0.18
2022-01-28 11:24:46.7670,-0.284,-0.419,-0.853,1.16,-0.58,0.13,-0.73,0.28,-0.43
2022-01-28 11:24:46.7770,-0.271,-0.415,-0.898,1.16,-0.58,0.13,-0.72,0.39,-0.65
2022-01-28 11:24:46.7870,-0.251,-0.403,-0.921,1.06,-0.63,0.42,-0.69,0.69,-0.77
2022-01-28 11:24:46.7970,-0.231,-0.398,-0.95,0.98,-0.67,0.58,-0.67,1.04,-0.78
2022-01-28 11:24:46.8070,-0.204,-0.402,-1.011,0.87,-0.63,0.97,-0.72,1.29,-0.72
2022-01-28 11:24:46.8170,-0.175,-0.422,-1.093,0.73,-0.47,1.63,-0.82,1.32,-0.62
2022-01-28 11:24:46.8270,-0.153,-0.466,-1.205,0.61,-0.07,2.53,-0.95,1.09,-0.55
2022-01-28 11:24:46.8370,-0.139,-0.499,-1.307,0.55,0.44,3.59,-1.02,0.68,-0.55
2022-01-28 11:24:46.8480,-0.129,-0.501,-1.391,0.51,0.7,4.41,-1.0,0.13,-0.62
2022-01-28 11:24:46.8580,-0.109,-0.492,-1.474,0.1,0.66,5.83,-0.84,-0.46,-0.73
2022-01-28 11:24:46.8680,-0.072,-0.472,-1.506,0.1,0.66,5.83,-0.62,-0.9,-0.85
2022-01-28 11:24:46.8760,-0.038,-0.442,-1.475,-0.33,0.43,5.76,-0.44,-1.07,-0.89
2022-01-28 11:24:46.8880,-0.022,-0.431,-1.417,-0.64,0.23,5.31,-0.44,-1.07,-0.89
2022-01-28 11:24:46.8970,-0.019,-0.444,-1.339,-0.76,0.27,4.61,-0.34,-0.95,-0.82
2022-01-28 11:24:46.9070,-0.018,-0.469,-1.283,-0.8,0.5,3.89,-0.3,-0.28,-0.41
2022-01-28 11:24:46.9170,-0.021,-0.497,-1.254,-0.8,0.79,3.47,-0.37,-0.03,-0.14
2022-01-28 11:24:46.9280,-0.032,-0.537,-1.258,-0.74,1.15,3.34,-0.37,-0.03,-0.14
2022-01-28 11:24:46.9380,-0.048,-0.577,-1.284,-0.46,1.97,3.75,-0.51,-0.14,0.2
2022-01-28 11:24:46.9480,-0.067,-0.595,-1.31,-0.46,1.97,3.75,-0.52,-0.42,0.17
2022-01-28 11:24:46.9580,-0.092,-0.593,-1.312,-0.12,2.01,3.7,-0.46,-0.67,0.06
2022-01-28 11:24:46.9680,-0.11,-0.573,-1.27,-0.09,1.78,3.11,-0.31,-0.78,-0.12
2022-01-28 11:24:46.9780,-0.108,-0.546,-1.195,-0.09,1.78,3.11,-0.09,-0.73,-0.3
2022-01-28 11:24:46.9880,-0.085,-0.52,-1.101,-0.28,1.53,2.27,-0.09,-0.73,-0.3
2022-01-28 11:24:46.9980,-0.053,-0.498,-0.992,-0.59,1.25,1.29,0.38,-0.29,-0.54
2022-01-28 11:24:47.0080,-0.018,-0.49,-0.877,-0.92,1.07,0.19,0.38,-0.29,-0.54
2022-01-28 11:24:47.0180,0.02,-0.478,-0.766,-1.55,0.75,-1.9,0.66,0.31,-0.56
2022-01-28 11:24:47.0280,0.054,-0.47,-0.672,-1.55,0.75,-1.9,0.73,0.53,-0.49
2022-01-28 11:24:47.0380,0.084,-0.466,-0.591,-1.8,0.63,-2.73,0.78,0.64,-0.39
2022-01-28 11:24:47.0480,0.109,-0.46,-0.532,-2.0,0.51,-3.4,0.81,0.64,-0.29
2022-01-28 11:24:47.0580,0.127,-0.453,-0.487,-2.23,0.2,-4.24,0.84,0.53,-0.19
2022-01-28 11:24:47.0770,0.137,-0.439,-0.453,-2.29,-0.05,-4.48,0.84,0.53,-0.19
2022-01-28 11:24:47.0790,0.143,-0.42,-0.427,-2.3,-0.29,-4.72,0.88,0.1,-0.07
2022-01-28 11:24:47.0880,0.142,-0.406,-0.395,-2.3,-0.29,-4.72,0.86,-0.11,-0.04
2022-01-28 11:24:47.0970,0.14,-0.395,-0.366,-2.29,-0.48,-5.01,0.81,-0.29,-0.04
2022-01-28 11:24:47.1070,0.136,-0.381,-0.346,-2.27,-0.87,-5.36,0.72,-0.4,-0.05
2022-01-28 11:24:47.1170,0.128,-0.369,-0.327,-2.27,-0.87,-5.36,0.59,-0.44,-0.08
2022-01-28 11:24:47.1280,0.12,-0.363,-0.32,-2.15,-1.08,-5.43,0.44,-0.42,-0.14
2022-01-28 11:24:47.1390,0.109,-0.36,-0.329,-2.15,-1.08,-5.43,0.28,-0.38,-0.21
2022-01-28 11:24:47.1480,0.091,-0.359,-0.362,-2.05,-1.11,-5.23,0.28,-0.38,-0.21
2022-01-28 11:24:47.1590,0.067,-0.348,-0.402,-1.84,-1.17,-4.82,0.06,-0.36,-0.46
2022-01-28 11:24:47.1680,0.049,-0.325,-0.445,-1.64,-1.35,-4.43,-0.03,-0.4,-0.62
2022-01-28 11:24:47.1780,0.044,-0.306,-0.499,-1.52,-1.58,-3.95,-0.14,-0.45,-0.78
2022-01-28 11:24:47.1880,0.039,-0.298,-0.556,-1.5,-1.71,-3.4,-0.14,-0.45,-0.78
2022-01-28 11:24:47.1990,0.028,-0.306,-0.617,-1.41,-1.69,-2.85,-0.47,-0.48,-1.0
2022-01-28 11:24:47.2080,0.014,-0.313,-0.687,-1.13,-1.48,-1.58,-0.64,-0.4,-1.07
2022-01-28 11:24:47.2190,0.003,-0.313,-0.751,-1.04,-1.42,-0.97,-0.64,-0.4,-1.07
2022-01-28 11:24:47.2290,0.004,-0.316,-0.817,-1.04,-1.42,-0.97,-0.74,-0.23,-1.14
2022-01-28 11:24:47.2390,0.006,-0.324,-0.875,-1.0,-1.3,-0.38,-0.59,0.41,-1.31
2022-01-28 11:24:47.2490,0.017,-0.32,-0.92,-0.94,-1.23,0.08,-0.38,0.8,-1.45
2022-01-28 11:24:47.2590,0.045,-0.309,-0.976,-0.99,-1.33,0.52,-0.24,1.11,-1.61
2022-01-28 11:24:47.2690,0.082,-0.338,-1.057,-1.16,-1.28,1.18,-0.26,1.24,-1.71
2022-01-28 11:24:47.2790,0.115,-0.411,-1.138,-1.31,-0.7,2.01,-0.46,1.26,-1.71
2022-01-28 11:24:47.2890,0.143,-0.468,-1.202,-1.45,0.04,2.67,-0.76,1.14,-1.61
2022-01-28 11:24:47.2990,0.154,-0.489,-1.295,-1.48,0.5,3.33,-1.11,0.81,-1.41
2022-01-28 11:24:47.3090,0.147,-0.462,-1.426,-1.39,0.59,4.42,-1.49,0.31,-1.13
2022-01-28 11:24:47.3190,0.111,-0.415,-1.559,-1.12,0.3,5.69,-1.84,-0.24,-0.74
2022-01-28 11:24:47.3290,0.064,-0.399,-1.676,-0.7,0.13,6.86,-2.08,-0.67,-0.25
2022-01-28 11:24:47.3390,0.006,-0.42,-1.749,-0.26,0.36,7.73,-2.08,-0.67,-0.25
2022-01-28 11:24:47.3490,-0.064,-0.451,-1.782,0.29,0.86,8.17,-1.97,-0.75,0.86
2022-01-28 11:24:47.3590,-0.124,-0.468,-1.785,0.87,1.28,8.27,-1.53,-0.47,1.29
2022-01-28 11:24:47.3690,-0.159,-0.464,-1.749,1.26,1.47,8.06,-1.53,-0.47,1.29
2022-01-28 11:24:47.3790,-0.169,-0.465,-1.696,1.41,1.48,7.6,-0.22,0.09,1.64
2022-01-28 11:24:47.3890,-0.165,-0.494,-1.605,1.38,1.64,6.91,0.35,0.25,1.63
2022-01-28 11:24:47.3990,-0.158,-0.539,-1.494,1.3,2.0,5.89,0.74,0.3,1.57
2022-01-28 11:24:47.4090,-0.152,-0.576,-1.374,1.21,2.34,4.78,0.74,0.3,1.57
2022-01-28 11:24:47.4190,-0.141,-0.602,-1.25,1.12,2.58,3.6,0.96,0.29,1.33
2022-01-28 11:24:47.4300,-0.13,-0.613,-1.134,0.98,2.67,2.44,0.92,0.25,1.19
2022-01-28 11:24:47.4390,-0.126,-0.615,-1.029,0.89,2.65,1.39,0.83,0.21,1.05
2022-01-28 11:24:47.4490,-0.125,-0.605,-0.939,0.86,2.55,0.45,0.74,0.17,0.91
2022-01-28 11:24:47.4590,-0.127,-0.584,-0.865,0.84,2.34,-0.33,0.69,0.15,0.78
2022-01-28 11:24:47.4690,-0.136,-0.547,-0.802,0.88,2.0,-0.97,0.69,0.15,0.78
2022-01-28 11:24:47.4800,-0.155,-0.494,-0.751,1.0,1.5,-1.51,0.68,0.13,0.66
2022-01-28 11:24:47.4890,-0.178,-0.434,-0.707,1.2,0.86,-1.93,0.73,0.09,0.56
2022-01-28 11:24:47.5000,-0.198,-0.383,-0.657,1.41,0.23,-2.35,0.88,-0.01,0.44
2022-01-28 11:24:47.5090,-0.212,-0.346,-0.6,1.56,-0.29,-2.85,0.93,-0.05,0.43
2022-01-28 11:24:47.5200,-0.222,-0.326,-0.546,1.69,-0.86,-3.83,0.96,-0.08,0.46
2022-01-28 11:24:47.5300,-0.226,-0.317,-0.5,1.69,-0.86,-3.83,0.97,-0.11,0.51
2022-01-28 11:24:47.5390,-0.23,-0.313,-0.461,1.69,-1.0,-4.2,0.97,-0.11,0.51
2022-01-28 11:24:47.5580,-0.235,-0.31,-0.429,1.72,-1.24,-4.72,0.98,-0.14,0.55
2022-01-28 11:24:47.5590,-0.248,-0.311,-0.42,1.72,-1.24,-4.72,1.2,-0.55,0.63
2022-01-28 11:24:47.5830,-0.254,-0.318,-0.442,1.4,-1.97,-5.77,1.43,-0.78,0.64
2022-01-28 11:24:47.5830,-0.237,-0.273,-0.34,1.4,-1.97,-5.77,1.43,-0.78,0.64
2022-01-28 11:24:47.5950,-0.23,-0.271,-0.266,1.4,-1.97,-5.77,1.34,-0.61,0.52
2022-01-28 11:24:47.5980,-0.196,-0.278,-0.25,1.16,-2.0,-6.05,1.25,-0.44,0.33
2022-01-28 11:24:47.6080,-0.154,-0.288,-0.22,0.67,-2.05,-6.17,1.15,-0.23,0.09
2022-01-28 11:24:47.6190,-0.13,-0.314,-0.184,0.18,-1.77,-6.74,0.99,0.04,-0.17
2022-01-28 11:24:47.6310,-0.118,-0.339,-0.157,0.18,-1.59,-6.91,0.77,0.37,-0.4
2022-01-28 11:24:47.6490,-0.119,-0.361,-0.15,0.38,-1.52,-6.75,0.46,0.67,-0.61
2022-01-28 11:24:47.6500,-0.139,-0.357,-0.19,0.38,-1.52,-6.75,0.05,0.84,-0.82
2022-01-28 11:24:47.6590,-0.167,-0.344,-0.266,0.75,-1.65,-6.17,-0.46,0.82,-1.01
2022-01-28 11:24:47.6690,-0.186,-0.357,-0.369,1.12,-1.64,-5.32,-1.03,0.61,-1.17
2022-01-28 11:24:47.6800,-0.181,-0.398,-0.494,1.29,-1.26,-4.25,-1.61,0.27,-1.25
2022-01-28 11:24:47.6910,-0.157,-0.447,-0.619,0.92,-0.02,-1.97,-2.12,-0.1,-1.28
2022-01-28 11:24:47.7000,-0.11,-0.481,-0.753,0.44,0.33,-0.56,-2.47,-0.48,-1.3
2022-01-28 11:24:47.7110,-0.068,-0.463,-0.929,0.44,0.33,-0.56,-2.61,-0.81,-1.3
2022-01-28 11:24:47.7210,-0.054,-0.381,-1.079,0.15,0.02,1.07,-2.47,-0.85,-1.27
2022-01-28 11:24:47.7310,-0.063,-0.281,-1.122,0.11,-0.71,1.97,-2.04,-0.41,-1.2
2022-01-28 11:24:47.7410,-0.094,-0.179,-1.112,0.34,-1.53,1.85,-1.54,0.22,-1.11
2022-01-28 11:24:47.7510,-0.121,-0.116,-1.21,0.74,-2.3,2.17,-1.12,0.69,-0.99
2022-01-28 11:24:47.7610,-0.129,-0.117,-1.33,1.01,-2.49,3.35,-0.85,0.93,-0.84
2022-01-28 11:24:47.7700,-0.11,-0.148,-1.433,1.09,-2.2,4.38,-0.72,0.92,-0.74
2022-01-28 11:24:47.7800,-0.051,-0.182,-1.532,0.82,-1.81,5.35,-0.71,0.68,-0.75
2022-01-28 11:24:47.7910,0.037,-0.223,-1.614,-0.68,-0.9,6.83,-0.77,0.29,-0.86
2022-01-28 11:24:47.8010,0.12,-0.261,-1.653,-0.68,-0.9,6.83,-0.89,-0.09,-1.0
2022-01-28 11:24:47.8110,0.176,-0.295,-1.66,-1.38,-0.46,7.0,-1.06,-0.37,-1.12
2022-01-28 11:24:47.8210,0.186,-0.306,-1.643,-1.72,-0.09,6.91,-1.25,-0.46,-1.15
2022-01-28 11:24:47.8310,0.157,-0.289,-1.609,-1.59,-0.03,6.61,-1.42,-0.36,-1.06
2022-01-28 11:24:47.8410,0.117,-0.29,-1.581,-1.23,-0.03,6.22,-1.51,-0.19,-0.84
2022-01-28 11:24:47.8510,0.08,-0.331,-1.573,-0.84,0.33,6.01,-1.46,-0.06,-0.55
2022-01-28 11:24:47.8610,0.055,-0.384,-1.574,-0.52,0.97,5.95,-1.27,-0.04,-0.3
2022-01-28 11:24:47.8710,0.036,-0.432,-1.582,-0.31,1.57,5.95,-1.27,-0.04,-0.3
2022-01-28 11:24:47.8810,0.03,-0.479,-1.56,-0.19,2.14,5.96,-0.58,-0.3,-0.12
2022-01-28 11:24:47.8910,0.039,-0.517,-1.498,-0.24,2.6,5.47,-0.21,-0.45,-0.17
2022-01-28 11:24:47.9010,0.054,-0.554,-1.417,-0.41,2.98,4.78,0.1,-0.54,-0.24
2022-01-28 11:24:47.9120,0.067,-0.57,-1.302,-0.6,3.27,3.83,0.36,-0.54,-0.31
2022-01-28 11:24:47.9210,0.076,-0.547,-1.172,-0.75,3.19,2.61,0.58,-0.48,-0.36
2022-01-28 11:24:47.9310,0.084,-0.496,-1.043,-0.86,2.75,1.34,0.76,-0.37,-0.39
2022-01-28 11:24:47.9410,0.094,-0.443,-0.916,-0.97,2.14,0.1,0.91,-0.24,-0.38
2022-01-28 11:24:47.9510,0.109,-0.404,-0.803,-1.25,1.19,-2.07,1.04,-0.12,-0.33
2022-01-28 11:24:47.9610,0.123,-0.381,-0.706,-1.25,1.19,-2.07,1.15,-0.03,-0.26
2022-01-28 11:24:47.9710,0.132,-0.356,-0.622,-1.37,0.87,-2.92,1.24,0.02,-0.19
2022-01-28 11:24:47.9810,0.138,-0.331,-0.551,-1.4730674046278,0.1544486466050148,-4.24,1.32,0.03,-0.12
2022-01-28 11:24:47.9910,0.143,-0.313,-0.495,-1.48,0.15,-4.24,1.37,-0.01,-0.1
2022-01-28 11:24:48.0010,0.143,-0.295,-0.451,-1.5,-0.15,-4.68,1.37,-0.08,-0.1
2022-01-28 11:24:48.0120,0.14,-0.28,-0.417,-1.45,-0.68,-5.29,1.34,-0.16,-0.13
2022-01-28 11:24:48.0210,0.132,-0.272,-0.386,-1.45,-0.68,-5.29,1.26,-0.23,-0.15
2022-01-28 11:24:48.0320,0.127,-0.269,-0.359,-1.4,-0.84,-5.53,1.16,-0.29,-0.18
2022-01-28 11:24:48.0410,0.122,-0.265,-0.341,-1.37,-0.96,-5.72,1.16,-0.29,-0.18
2022-01-28 11:24:48.0520,0.118,-0.252,-0.333,-1.35,-1.14,-5.8,0.91,-0.29,-0.28
2022-01-28 11:24:48.0620,0.107,-0.234,-0.328,-1.31,-1.37,-5.83,0.76,-0.24,-0.34
2022-01-28 11:24:48.0720,0.089,-0.211,-0.334,-1.16,-1.64,-5.81,0.6,-0.21,-0.4
2022-01-28 11:24:48.0820,0.072,-0.192,-0.363,-0.98,-1.91,-5.63,0.44,-0.22,-0.47
2022-01-28 11:24:48.1100,0.061,-0.176,-0.408,-0.73,-2.36,-4.21,0.44,-0.22,-0.47
2022-01-28 11:24:48.1120,0.055,-0.164,-0.456,-0.73,-2.36,-4.21,0.08,-0.36,-0.7
Time,0.051,-0.159,-0.523,-0.69,-2.34,-3.5,-0.14,-0.47,-0.87
2022-01-28 11:24:48.1400,0.046,-0.166,-0.601,-0.81,-1.79,-2.06,-0.38,-0.53,-1.03
2022-01-28 11:24:48.1400,0.054,-0.189,-0.68,-0.81,-1.79,-2.06,-0.62,-0.47,-1.18
2022-01-28 11:24:48.1480,0.068,-0.224,-0.738,-0.81,-1.79,-2.06,-0.77,-0.23,-1.3
2022-01-28 11:24:48.1500,0.082,-0.254,-0.794,-0.92,-1.39,-1.56,-0.81,0.16,-1.39
Time,0.095,-0.263,-0.838,-0.95,-1.11,-1.06,-0.72,0.67,-1.43
2022-01-28 11:24:48.1700,0.114,-0.247,-0.885,-0.99,-1.08,-0.73,-0.55,1.16,-1.43
2022-01-28 11:24:48.1800,0.14,-0.225,-0.978,-1.18,-1.29,0.92,-0.41,1.49,-1.36
2022-01-28 11:24:48.1910,0.182,-0.242,-1.076,-1.45,-0.88,1.85,-0.33,1.62,-1.25
2022-01-28 11:24:48.2010,0.228,-0.291,-1.163,-1.45,-0.88,1.85,-0.32,1.53,-1.1
2022-01-28 11:24:48.2110,0.259,-0.326,-1.243,-1.66,-0.38,2.62,-0.4,1.18,-0.95
2022-01-28 11:24:48.2220,0.276,-0.329,-1.339,-1.77,-0.15,3.49,-0.58,0.58,-0.8
2022-01-28 11:24:48.2330,0.267,-0.309,-1.442,-1.55,-0.34,5.47,-0.89,-0.19,-0.62
2022-01-28 11:24:48.2430,0.227,-0.279,-1.557,-1.55,-0.34,5.47,-1.33,-0.94,-0.33
2022-01-28 11:24:48.2530,0.166,-0.273,-1.661,-1.11,-0.44,6.55,-1.79,-1.45,0.06
2022-01-28 11:24:48.2620,0.104,-0.301,-1.713,-0.12,0.41,7.44,-2.11,-1.5,0.54
2022-01-28 11:24:48.2730,0.027,-0.337,-1.713,-0.12,0.41,7.44,-2.09,-1.07,1.01
2022-01-28 11:24:48.2820,-0.037,-0.353,-1.675,0.49,0.9,7.16,-1.68,-0.39,1.36
2022-01-28 11:24:48.2920,-0.071,-0.332,-1.663,0.92,1.0,6.83,-1.01,0.23,1.51
2022-01-28 11:24:48.3020,-0.083,-0.316,-1.633,1.14,0.81,6.68,-0.27,0.64,1.5
2022-01-28 11:24:48.3130,-0.064,-0.356,-1.581,1.14,0.9,6.24,0.31,0.76,1.42
2022-01-28 11:24:48.3230,-0.035,-0.443,-1.513,0.9,1.53,5.69,0.6,0.67,1.34
2022-01-28 11:24:48.3330,-0.012,-0.536,-1.427,0.68,2.4,4.92,0.64,0.47,1.27
2022-01-28 11:24:48.3430,0.011,-0.594,-1.347,0.46,3.12,4.11,0.51,0.23,1.15
2022-01-28 11:24:48.3530,0.021,-0.608,-1.266,0.26,3.41,3.34,0.3,0.05,0.98
2022-01-28 11:24:48.3620,0.013,-0.597,-1.187,0.24,3.38,2.56,0.09,-0.01,0.8
2022-01-28 11:24:48.3730,-0.01,-0.574,-1.109,0.38,3.19,1.78,-0.03,0.07,0.66
2022-01-28 11:24:48.3940,-0.041,-0.543,-1.035,0.95,2.58,0.36,-0.03,0.23,0.58
2022-01-28 11:24:48.3960,-0.068,-0.498,-0.971,0.95,2.58,0.36,0.1,0.38,0.55
2022-01-28 11:24:48.4020,-0.092,-0.439,-0.914,1.23,2.01,-0.22,0.34,0.47,0.57
2022-01-28 11:24:48.4120,-0.11,-0.393,-0.851,1.47,1.45,-0.78,0.64,0.49,0.62
2022-01-28 11:24:48.4230,-0.123,-0.356,-0.78,1.64,0.99,-1.42,0.95,0.44,0.72
2022-01-28 11:24:48.4340,-0.132,-0.321,-0.701,1.76,0.53,-2.13,1.22,0.33,0.85
2022-01-28 11:24:48.4430,-0.132,-0.3,-0.62,1.84,0.12,-2.88,1.43,0.2,0.99
2022-01-28 11:24:48.4530,-0.112,-0.292,-0.542,1.72,-0.15,-3.62,1.57,0.05,1.1
2022-01-28 11:24:48.4630,-0.088,-0.282,-0.469,1.45,-0.37,-4.32,1.64,-0.09,1.17
2022-01-28 11:24:48.4730,-0.069,-0.287,-0.413,1.18,-0.63,-4.92,1.74,-0.33,1.15
2022-01-28 11:24:48.4830,-0.066,-0.284,-0.359,0.99,-0.63,-5.33,1.73,-0.48,1.15
2022-01-28 11:24:48.4930,-0.059,-0.252,-0.297,0.87,-1.08,-5.89,1.65,-0.54,1.16
2022-01-28 11:24:48.5030,-0.053,-0.231,-0.238,0.7,-1.45,-6.4,1.49,-0.47,1.19
2022-01-28 11:24:48.5140,-0.048,-0.218,-0.183,0.57,-1.78,-6.94,1.49,-0.47,1.19
2022-01-28 11:24:48.5230,-0.04,-0.214,-0.15,0.3067288532853127,-2.1550509703159335,-7.54,1.13,0.03,1.27
2022-01-28 11:24:48.5340,-0.031,-0.192,-0.125,0.3,-2.16,-7.54,0.93,0.45,1.33
2022-01-28 11:24:48.5440,-0.03,-0.17,-0.11,0.26,-2.49,-7.72,0.73,0.91,1.39
2022-01-28 11:24:48.5530,-0.021,-0.162,-0.125,0.25,-2.68,-7.72,0.73,0.91,1.39
2022-01-28 11:24:48.5640,-0.005,-0.15,-0.192,0.16,-2.82,-7.32,0.41,1.25,1.29
2022-01-28 11:24:48.5730,-0.028,-0.153,-0.262,0.19,-2.92,-6.52,0.14,1.18,1.18
2022-01-28 11:24:48.5840,-0.062,-0.16,-0.315,0.9,-2.87,-5.41,0.14,1.18,1.18
2022-01-28 11:24:48.5940,-0.085,-0.147,-0.376,0.9,-2.87,-5.41,-0.54,0.91,0.75
2022-01-28 11:24:48.6040,-0.108,-0.174,-0.461,1.2,-2.79,-4.76,-0.87,0.68,0.5
2022-01-28 11:24:48.6130,-0.099,-0.221,-0.575,1.33,-2.28,-3.79,-1.18,0.39,0.26
2022-01-28 11:24:48.6240,-0.081,-0.263,-0.711,1.17,-1.74,-2.65,-1.42,0.02,0.09
2022-01-28 11:24:48.6340,-0.051,-0.308,-0.884,0.96,-1.18,-1.17,-1.55,-0.41,-0.02
2022-01-28 11:24:48.6440,-0.011,-0.327,-1.058,0.53,-0.65,0.51,-1.55,-0.41,-0.02
2022-01-28 11:24:48.6540,0.011,-0.292,-1.211,0.13,-0.61,2.07,-1.44,-0.95,-0.13
2022-01-28 11:24:48.6640,0.008,-0.248,-1.332,-0.04,-0.95,3.36,-1.34,-0.84,-0.15
2022-01-28 11:24:48.6740,-0.013,-0.24,-1.433,0.03,-1.09,4.38,-1.3,-0.51,-0.17
2022-01-28 11:24:48.6840,-0.041,-0.248,-1.549,0.25,-0.92,5.35,-1.34,-0.15,-0.25
2022-01-28 11:24:48.6940,-0.053,-0.244,-1.68,0.48,-0.77,6.55,-1.41,0.08,-0.41
2022-01-28 11:24:48.7040,-0.038,-0.247,-1.81,0.49,-0.67,7.79,-1.44,0.1,-0.64
2022-01-28 11:24:48.7140,-0.002,-0.263,-1.907,0.26,-0.43,8.93,-1.42,-0.04,-0.85
2022-01-28 11:24:48.7240,0.04,-0.28,-1.949,-0.5,0.17,9.77,-1.38,-0.23,-0.98
2022-01-28 11:24:48.7350,0.066,-0.307,-1.956,-0.5,0.17,9.77,-1.43,-0.26,-1.03
2022-01-28 11:24:48.7450,0.056,-0.361,-1.901,-0.57,0.81,9.44,-1.38,-0.25,-0.93
2022-01-28 11:24:48.7540,0.06,-0.36,-1.882,-0.47,1.16,9.04,-1.0,-0.38,-0.7
2022-01-28 11:24:48.7640,0.06,-0.403,-1.789,-0.61,1.36,8.6,-1.0,-0.38,-0.7
2022-01-28 11:24:48.7740,0.019,-0.464,-1.645,-0.4,2.03,7.28,-0.34,-0.25,-0.29
2022-01-28 11:24:48.7840,-0.013,-0.494,-1.523,-0.01,2.52,5.96,-0.08,-0.21,-0.21
2022-01-28 11:24:48.7950,-0.031,-0.513,-1.404,0.2,2.71,4.8,0.12,-0.24,-0.19
2022-01-28 11:24:48.8040,-0.034,-0.534,-1.286,0.3,2.92,3.63,0.28,-0.31,-0.23
2022-01-28 11:24:48.8140,-0.017,-0.537,-1.172,-0.07,2.98,1.41,0.28,-0.31,-0.23
2022-01-28 11:24:48.8250,0.008,-0.544,-1.061,-0.32,3.02,0.33,0.56,-0.62,-0.42
2022-01-28 11:24:48.8340,0.022,-0.548,-0.946,-0.32,3.02,0.33,0.56,-0.62,-0.42
2022-01-28 11:24:48.8440,0.041,-0.532,-0.828,-0.53,2.9,-0.81,0.75,-0.88,-0.47
2022-01-28 11:24:48.8540,0.067,-0.504,-0.714,-0.82,2.58,-1.94,0.8,-0.87,-0.34
2022-01-28 11:24:48.8630,0.097,-0.484,-0.613,-1.17,2.26,-2.98,0.83,-0.77,-0.14
2022-01-28 11:24:48.8730,0.132,-0.466,-0.527,-1.97,1.7,-4.58,0.84,-0.57,0.07
2022-01-28 11:24:48.8850,0.169,-0.436,-0.464,-1.97,1.7,-4.58,0.83,-0.3,0.27
2022-01-28 11:24:48.8940,0.198,-0.409,-0.429,-2.32,1.35,-5.05,0.84,-0.08,0.37
2022-01-28 11:24:48.9040,0.22,-0.377,-0.422,-2.68,0.68,-5.21,0.86,0.01,0.35
2022-01-28 11:24:48.9150,0.21,-0.368,-0.417,-2.68,0.68,-5.21,0.81,0.04,0.3
2022-01-28 11:24:48.9250,0.186,-0.364,-0.402,-2.5,0.57,-5.31,0.69,0.02,0.25
2022-01-28 11:24:48.9350,0.153,-0.366,-0.402,-2.23,0.49,-5.39,0.51,-0.02,0.2
2022-01-28 11:24:48.9440,0.123,-0.369,-0.425,-1.91,0.49,-5.27,0.34,-0.09,0.13
2022-01-28 11:24:48.9530,0.103,-0.361,-0.471,-1.56,0.31,-4.38,0.23,-0.17,0.04
2022-01-28 11:24:48.9640,0.097,-0.35,-0.53,-1.56,0.31,-4.38,0.21,-0.28,-0.08
2022-01-28 11:24:48.9740,0.107,-0.341,-0.594,-1.61,0.21,-3.74,0.28,-0.4,-0.2
2022-01-28 11:24:48.9840,0.113,-0.324,-0.643,-1.75,0.06,-3.16,0.42,-0.47,-0.28
2022-01-28 11:24:48.9940,0.109,-0.294,-0.669,-1.79,-0.21,-2.78,0.42,-0.47,-0.28
2022-01-28 11:24:49.0050,0.098,-0.252,-0.68,-1.64,-1.07,-2.48,0.64,-0.43,-0.35
2022-01-28 11:24:49.0150,0.083,-0.227,-0.691,-1.64,-1.07,-2.48,0.66,-0.32,-0.33
2022-01-28 11:24:49.0250,0.074,-0.225,-0.713,-1.53,-1.23,-2.29,0.64,-0.22,-0.32
2022-01-28 11:24:49.0350,0.074,-0.225,-0.754,-1.5,-1.29,-1.98,0.63,-0.2,-0.33
2022-01-28 11:24:49.0450,0.08,-0.232,-0.815,-1.54,-1.32,-1.43,0.63,-0.2,-0.33
2022-01-28 11:24:49.0550,0.087,-0.24,-0.882,-1.62,-1.29,-0.76,0.66,-0.33,-0.45
2022-01-28 11:24:49.0650,0.089,-0.238,-0.922,-1.68,-1.33,-0.17,0.7,-0.32,-0.52
2022-01-28 11:24:49.0750,0.086,-0.233,-0.929,-1.68,-1.42,0.06,0.76,-0.19,-0.59
2022-01-28 11:24:49.0850,0.08,-0.213,-0.942,-1.62,-1.61,0.15,0.78,0.01,-0.66
2022-01-28 11:24:49.0950,0.07,-0.181,-0.969,-1.34,-2.32,0.68,0.78,0.01,-0.66
2022-01-28 11:24:49.1040,0.055,-0.158,-0.995,-1.34,-2.32,0.68,0.61,0.49,-0.83
2022-01-28 11:24:49.1130,0.049,-0.162,-1.024,-1.11,-2.48,0.96,0.45,0.71,-0.94
2022-01-28 11:24:49.1250,0.058,-0.181,-1.06,-1.04,-2.21,1.72,0.24,0.83,-1.09
2022-01-28 11:24:49.1350,0.074,-0.198,-1.114,-1.04,-2.21,1.72,-0.01,0.83,-1.3
2022-01-28 11:24:49.1440,0.095,-0.213,-1.175,-1.23,-1.84,2.92,-0.3,0.69,-1.54
2022-01-28 11:24:49.1550,0.128,-0.235,-1.25,-1.23,-1.84,2.92,-0.64,0.45,-1.82
2022-01-28 11:24:49.1650,0.169,-0.248,-1.318,-1.51,-1.57,3.67,-1.03,0.29,-2.05
2022-01-28 11:24:49.1750,0.199,-0.236,-1.344,-1.75,-1.48,4.06,-1.48,0.31,-2.16
2022-01-28 11:24:49.1860,0.233,-0.224,-1.372,-2.13,-1.28,4.47,-1.97,0.52,-2.03
2022-01-28 11:24:49.1950,0.261,-0.247,-1.407,-2.13,-1.28,4.47,-2.45,0.84,-1.57
2022-01-28 11:24:49.2050,0.286,-0.338,-1.467,-2.26,-0.5,4.8,-2.84,1.0,-0.82
2022-01-28 11:24:49.2150,0.301,-0.489,-1.575,-2.36,0.99,5.55,-3.03,0.87,0.16
2022-01-28 11:24:49.2260,0.283,-0.666,-1.672,-1.85,4.7,7.15,-2.9,0.54,1.21
2022-01-28 11:24:49.2360,0.202,-0.762,-1.716,-0.91,5.16,7.53,-2.39,0.08,2.09
2022-01-28 11:24:49.2460,0.093,-0.719,-1.749,0.09,4.3,7.51,-1.52,-0.44,2.61
2022-01-28 11:24:49.2560,-0.022,-0.586,-1.717,0.97,2.85,6.83,-0.46,-0.92,2.76
2022-01-28 11:24:49.2660,-0.107,-0.436,-1.606,0.97,2.85,6.83,-0.46,-0.92,2.76
2022-01-28 11:24:49.2750,-0.134,-0.314,-1.423,1.36,1.4,5.36,0.54,-1.22,2.64
2022-01-28 11:24:49.2860,-0.11,-0.244,-1.203,1.19,0.31,3.37,1.75,-1.08,2.1
2022-01-28 11:24:49.2950,-0.053,-0.225,-0.995,0.61,-0.29,1.26,1.89,-0.7,1.97
2022-01-28 11:24:49.3060,0.005,-0.245,-0.82,-0.09,-0.42,-0.56,1.83,-0.24,1.97
2022-01-28 11:24:49.3160,0.051,-0.267,-0.672,-1.08,-0.24,-3.33,1.68,0.21,2.1
2022-01-28 11:24:49.3270,0.08,-0.298,-0.565,-1.08,-0.24,-3.33,1.5,0.53,2.23
2022-01-28 11:24:49.3360,0.096,-0.291,-0.503,-1.34,-0.56,-4.56,1.28,0.72,2.32
2022-01-28 11:24:49.3460,0.083,-0.256,-0.452,-1.34,-0.56,-4.56,1.11,0.81,2.39
2022-01-28 11:24:49.3560,0.061,-0.268,-0.417,-0.92,-0.88,-5.13,0.95,0.78,2.42
2022-01-28 11:24:49.3670,0.034,-0.235,-0.405,-0.92,-0.88,-5.13,0.84,0.72,2.41
2022-01-28 11:24:49.3760,0.001,-0.238,-0.377,-0.66,-1.22,-5.41,0.76,0.59,2.38
2022-01-28 11:24:49.3860,-0.036,-0.22,-0.394,-0.33,-1.19,-5.35,0.65,0.51,2.3
2022-01-28 11:24:49.3960,-0.07,-0.186,-0.369,0.3,-2.03,-5.61,0.52,0.53,2.21
2022-01-28 11:24:49.4190,-0.106,-0.149,-0.345,0.59,-1.99,-5.75,0.51,0.56,2.13
2022-01-28 11:24:49.4190,-0.131,-0.169,-0.363,0.59,-1.99,-5.75,0.42,0.57,2.02
2022-01-28 11:24:49.4250,-0.155,-0.144,-0.378,0.79,-2.12,-5.36,0.31,0.71,1.89
2022-01-28 11:24:49.4360,-0.18,-0.149,-0.353,1.05,-2.24,-5.52,0.19,0.97,1.75
2022-01-28 11:24:49.4460,-0.203,-0.156,-0.354,1.3,-2.14,-5.66,0.08,1.27,1.61
2022-01-28 11:24:49.4560,-0.232,-0.148,-0.376,1.62,-2.14,-5.53,-0.03,1.51,1.47
2022-01-28 11:24:49.4660,-0.257,-0.142,-0.416,1.99,-2.21,-5.27,-0.03,1.51,1.47
2022-01-28 11:24:49.4770,-0.273,-0.135,-0.504,2.29,-2.24,-4.66,-0.35,1.57,1.16
2022-01-28 11:24:49.4870,-0.282,-0.135,-0.604,2.51,-2.27,-3.69,-0.5,1.39,1.04
2022-01-28 11:24:49.4970,-0.281,-0.159,-0.688,2.61,-1.77,-2.07,-0.58,1.11,0.97
2022-01-28 11:24:49.5070,-0.259,-0.181,-0.759,2.61,-1.77,-2.07,-0.58,0.8,0.92
2022-01-28 11:24:49.5170,-0.226,-0.187,-0.806,2.34,-1.57,-1.5,-0.54,0.5,0.88
2022-01-28 11:24:49.5270,-0.211,-0.182,-0.849,2.08,-1.53,-1.14,-0.55,0.25,0.82
2022-01-28 11:24:49.5370,-0.235,-0.175,-0.921,2.1,-1.55,-0.61,-0.71,0.01,0.8
2022-01-28 11:24:49.5470,-0.285,-0.194,-1.046,2.48,-1.46,0.28,-1.02,-0.34,0.8
2022-01-28 11:24:49.5570,-0.325,-0.244,-1.231,3.06,-0.34,3.62,-1.43,-0.81,0.77
2022-01-28 11:24:49.5670,-0.339,-0.283,-1.408,3.06,-0.34,3.62,-1.8,-1.26,0.61
2022-01-28 11:24:49.5770,-0.324,-0.275,-1.547,2.89,0.01,5.15,-2.07,-1.55,0.27
2022-01-28 11:24:49.5870,-0.297,-0.231,-1.633,2.12,-0.35,6.83,-2.2,-1.56,-0.22
2022-01-28 11:24:49.5970,-0.276,-0.184,-1.694,2.12,-0.35,6.83,-2.21,-1.26,-0.75
2022-01-28 11:24:49.6070,-0.277,-0.163,-1.724,1.93,-0.51,7.27,-2.17,-0.65,-1.18
2022-01-28 11:24:49.6170,-0.279,-0.181,-1.735,1.97,-0.34,7.38,-2.13,0.12,-1.41
2022-01-28 11:24:49.6270,-0.258,-0.239,-1.753,1.94,0.24,7.47,-2.06,0.85,-1.46
2022-01-28 11:24:49.6370,-0.215,-0.32,-1.777,1.75,1.15,7.64,-1.92,1.35,-1.39
2022-01-28 11:24:49.6470,-0.157,-0.39,-1.805,0.97,2.83,8.04,-1.68,1.53,-1.27
2022-01-28 11:24:49.6570,-0.101,-0.441,-1.811,0.65,3.39,7.95,-1.35,1.44,-1.14
2022-01-28 11:24:49.6680,-0.062,-0.478,-1.791,0.65,3.39,7.95,-0.97,1.16,-1.05
2022-01-28 11:24:49.6770,-0.044,-0.497,-1.757,0.47,3.8,7.64,-0.59,0.77,-1.0
2022-01-28 11:24:49.6870,-0.059,-0.452,-1.684,0.53,3.69,7.2,-0.2,0.44,-0.99
2022-01-28 11:24:49.6970,-0.08,-0.402,-1.562,0.81,3.21,6.18,0.2,0.22,-1.04
2022-01-28 11:24:49.7070,-0.081,-0.337,-1.422,0.87,1.9,3.45,0.6,0.09,-1.13
2022-01-28 11:24:49.7180,-0.061,-0.273,-1.266,0.87,1.9,3.45,0.95,0.05,-1.22
2022-01-28 11:24:49.7280,-0.029,-0.222,-1.103,0.62,1.23,1.86,1.23,0.05,-1.3
2022-01-28 11:24:49.7370,0.004,-0.193,-0.958,0.32,0.71,0.36,1.4,0.08,-1.32
2022-01-28 11:24:49.7470,0.032,-0.182,-0.828,0.04,0.4,-0.97,1.5,0.11,-1.3
2022-01-28 11:24:49.7570,0.053,-0.177,-0.716,-0.18,0.19,-2.13,1.55,0.15,-1.23
2022-01-28 11:24:49.7670,0.068,-0.166,-0.623,-0.31,-0.03,-3.12,1.57,0.17,-1.17
2022-01-28 11:24:49.7770,0.079,-0.151,-0.551,-0.4,-0.3,-3.89,1.57,0.19,-1.1
2022-01-28 11:24:49.7880,0.084,-0.136,-0.492,-0.43,-0.61,-4.5,1.57,0.18,-1.05
2022-01-28 11:24:49.7980,0.089,-0.125,-0.443,-0.44,-0.9,-5.0,1.56,0.16,-1.01
2022-01-28 11:24:49.8070,0.092,-0.126,-0.408,-0.44,-1.08,-5.37,1.51,0.14,-0.98
2022-01-28 11:24:49.8170,0.09,-0.138,-0.377,-0.35,-1.13,-5.89,1.44,0.14,-0.96
2022-01-28 11:24:49.8280,0.087,-0.152,-0.351,-0.28,-1.16,-6.09,1.36,0.14,-0.94
2022-01-28 11:24:49.8380,0.084,-0.158,-0.331,-0.21,-1.24,-6.2,1.27,0.16,-0.94
2022-01-28 11:24:49.8470,0.08,-0.157,-0.322,-0.1,-1.38,-6.22,1.27,0.16,-0.94
2022-01-28 11:24:49.8570,0.069,-0.153,-0.319,-0.1,-1.38,-6.22,1.11,0.19,-0.95
2022-01-28 11:24:49.8660,0.052,-0.153,-0.322,0.1,-1.51,-6.19,1.06,0.21,-0.97
2022-01-28 11:24:49.8760,0.035,-0.16,-0.339,0.31,-1.55,-6.06,1.06,0.21,-0.99
2022-01-28 11:24:49.8870,0.016,-0.159,-0.36,0.52,-1.6,-5.83,1.1,0.18,-1.03
2022-01-28 11:24:49.8960,-0.013,-0.152,-0.387,0.82,-1.73,-5.55,1.18,0.14,-1.09
2022-01-28 11:24:49.9060,-0.041,-0.134,-0.399,1.16,-1.95,-5.3,1.26,0.11,-1.17
2022-01-28 11:24:49.9160,-0.066,-0.108,-0.402,1.45,-2.28,-5.21,1.31,0.09,-1.26
2022-01-28 11:24:49.9260,-0.091,-0.081,-0.423,1.76,-2.66,-5.07,1.28,0.02,-1.38
2022-01-28 11:24:49.9360,-0.108,-0.061,-0.473,2.03,-2.98,-4.67,1.15,-0.11,-1.51
2022-01-28 11:24:49.9460,-0.116,-0.052,-0.537,2.19,-3.23,-4.06,0.97,-0.27,-1.66
2022-01-28 11:24:49.9570,-0.109,-0.073,-0.612,2.25,-3.24,-3.35,0.79,-0.46,-1.84
2022-01-28 11:24:49.9670,-0.082,-0.11,-0.674,2.1,-2.97,-2.59,0.64,-0.56,-2.05
2022-01-28 11:24:49.9770,-0.046,-0.143,-0.7,1.81,-2.65,-2.17,0.53,-0.48,-2.28
2022-01-28 11:24:49.9860,-0.016,-0.161,-0.717,1.53,-2.38,-1.97,0.42,-0.14,-2.52
2022-01-28 11:24:49.9970,0.005,-0.151,-0.742,1.39,-2.36,-1.77,0.27,0.38,-2.75
2022-01-28 11:24:50.0070,0.026,-0.13,-0.813,1.34,-2.51,-1.34,0.06,0.83,-2.97
2022-01-28 11:24:50.0160,0.058,-0.118,-0.945,1.3,-2.65,-0.32,-0.22,0.98,-3.17
2022-01-28 11:24:50.0270,0.119,-0.154,-1.12,1.06,-2.5,1.25,-0.53,0.8,-3.31
2022-01-28 11:24:50.0370,0.213,-0.247,-1.267,0.48,-1.72,2.87,-0.91,0.38,-3.33
2022-01-28 11:24:50.0470,0.323,-0.361,-1.42,-0.42,-0.48,4.25,-1.35,-0.16,-3.19
2022-01-28 11:24:50.0570,0.411,-0.456,-1.552,-1.35,0.77,5.68,-1.82,-0.6,-2.85
2022-01-28 11:24:50.0670,0.463,-0.525,-1.636,-2.01,1.81,6.64,-2.25,-0.79,-2.35
2022-01-28 11:24:50.0770,0.487,-0.563,-1.693,-2.36,2.62,7.21,-2.57,-0.74,-1.81
2022-01-28 11:24:50.0870,0.498,-0.57,-1.777,-2.55,3.11,7.73,-2.76,-0.69,-1.33
2022-01-28 11:24:50.0970,0.497,-0.556,-1.922,-2.65,3.36,8.8,-2.77,-0.78,-0.96
2022-01-28 11:24:50.1070,0.479,-0.526,-2.059,-2.62,3.4,10.22,-2.57,-0.9,-0.76
2022-01-28 11:24:50.1170,0.446,-0.484,-2.108,-2.42,3.31,11.13,-2.15,-0.85,-0.71
2022-01-28 11:24:50.1270,0.413,-0.428,-2.079,-2.14,3.03,11.11,-1.57,-0.64,-0.79
2022-01-28 11:24:50.1370,0.392,-0.369,-1.998,-1.91,2.59,10.56,-0.97,-0.3,-0.93
2022-01-28 11:24:50.1470,0.391,-0.332,-1.871,-1.81,2.19,9.47,-0.44,0.02,-1.03
2022-01-28 11:24:50.1570,0.4,-0.332,-1.734,-1.85,2.07,8.17,-0.44,0.02,-1.03
2022-01-28 11:24:50.1670,0.406,-0.346,-1.578,-1.89,2.19,6.74,0.31,0.42,-0.85
2022-01-28 11:24:50.1770,0.411,-0.361,-1.423,-1.88,2.31,5.19,0.55,0.53,-0.6
2022-01-28 11:24:50.1870,0.419,-0.383,-1.282,-1.89,2.45,3.75,0.76,0.57,-0.32
2022-01-28 11:24:50.1970,0.426,-0.406,-1.163,-1.92,2.61,2.49,0.94,0.54,-0.08
2022-01-28 11:24:50.2070,0.421,-0.43,-1.062,-1.89,2.74,1.45,1.08,0.48,0.11
2022-01-28 11:24:50.2170,0.399,-0.446,-0.97,-1.72,2.86,0.54,1.21,0.4,0.26
2022-01-28 11:24:50.2270,0.359,-0.441,-0.889,-1.38,2.79,-0.29,1.32,0.33,0.37
2022-01-28 11:24:50.2370,0.307,-0.418,-0.817,-0.9,2.51,-1.0,1.39,0.27,0.47
2022-01-28 11:24:50.2470,0.249,-0.385,-0.746,-0.33,2.08,-1.67,1.45,0.24,0.55
2022-01-28 11:24:50.2570,0.199,-0.35,-0.683,0.22,1.6,-2.29,1.45,0.24,0.55
2022-01-28 11:24:50.2670,0.159,-0.311,-0.624,0.66,1.08,-2.86,1.52,0.19,0.66
2022-01-28 11:24:50.2770,0.123,-0.282,-0.568,1.05,0.57,-3.38,1.55,0.18,0.71
2022-01-28 11:24:50.2880,0.095,-0.263,-0.514,1.36,0.19,-3.88,1.56,0.16,0.76
2022-01-28 11:24:50.2970,0.074,-0.241,-0.468,1.59,-0.16,-4.34,1.56,0.16,0.76
2022-01-28 11:24:50.3080,0.058,-0.219,-0.427,1.76,-0.55,-4.71,1.53,0.09,0.81
2022-01-28 11:24:50.3180,0.044,-0.202,-0.388,1.89,-0.9,-5.05,1.48,0.05,0.82
2022-01-28 11:24:50.3280,0.032,-0.19,-0.351,1.99,-1.2,-5.39,1.4,0.02,0.83
2022-01-28 11:24:50.3380,0.025,-0.191,-0.32,2.06,-1.4,-5.67,1.3,0.02,0.82
2022-01-28 11:24:50.3480,0.021,-0.194,-0.298,2.09,-1.48,-5.9,1.18,0.01,0.8
2022-01-28 11:24:50.3580,0.012,-0.188,-0.284,2.11,-1.61,-6.03,1.04,0.02,0.77
2022-01-28 11:24:50.3680,0.0,-0.178,-0.274,2.2,-1.81,-6.11,0.9,0.02,0.72
2022-01-28 11:24:50.3780,-0.014,-0.169,-0.267,2.3,-2.0,-6.17,0.73,0.02,0.66
2022-01-28 11:24:50.3880,-0.031,-0.165,-0.273,2.44,-2.13,-6.16,0.52,-0.01,0.6
2022-01-28 11:24:50.3980,-0.042,-0.161,-0.29,2.55,-2.23,-6.02,0.29,-0.05,0.51
2022-01-28 11:24:50.4080,-0.053,-0.164,-0.32,2.63,-2.26,-5.79,0.03,-0.13,0.4
2022-01-28 11:24:50.4180,-0.073,-0.171,-0.361,2.74,-2.2,-5.44,-0.23,-0.22,0.26
2022-01-28 11:24:50.4280,-0.101,-0.171,-0.409,2.95,-2.15,-5.03,-0.51,-0.32,0.09
2022-01-28 11:24:50.4380,-0.135,-0.17,-0.473,3.23,-2.11,-4.51,-0.8,-0.42,-0.09
2022-01-28 11:24:50.4480,-0.165,-0.175,-0.538,3.52,-2.02,-3.88,-1.11,-0.47,-0.27
2022-01-28 11:24:50.4580,-0.19,-0.2,-0.594,3.76,-1.78,-3.36,-1.42,-0.43,-0.44
2022-01-28 11:24:50.4680,-0.209,-0.244,-0.652,4.13,-0.65,-2.34,-1.42,-0.43,-0.44
2022-01-28 11:24:50.4810,-0.229,-0.288,-0.716,4.37,-0.07,-1.72,-1.93,-0.07,-0.63
2022-01-28 11:24:50.4910,-0.25,-0.322,-0.792,4.37,-0.07,-1.72,-2.08,0.21,-0.62
2022-01-28 11:24:50.5010,-0.265,-0.367,-0.873,4.59,0.46,-0.99,-2.11,0.53,-0.5
2022-01-28 11:24:50.5110,-0.274,-0.465,-0.976,4.77,1.34,-0.19,-2.01,0.72,-0.29
2022-01-28 11:24:50.5220,-0.266,-0.609,-1.126,4.86,2.75,1.02,-1.74,0.76,0.01
2022-01-28 11:24:50.5400,-0.251,-0.772,-1.265,4.71,6.15,3.75,-1.74,0.76,0.01
2022-01-28 11:24:50.5420,-0.241,-0.932,-1.397,4.66,7.61,5.11,-1.29,0.68,0.34
2022-01-28 11:24:50.5510,-0.235,-1.05,-1.529,4.66,7.61,5.11,-0.65,0.49,0.63
2022-01-28 11:24:50.5610,-0.231,-1.071,-1.618,4.63,8.28,6.23,0.95,0.16,0.8
2022-01-28 11:24:50.5700,-0.224,-1.015,-1.703,4.57,7.92,7.02,1.65,-0.12,0.63
2022-01-28 11:24:50.5800,-0.226,-0.926,-1.804,4.48,7.02,8.0,2.07,-0.66,0.33
2022-01-28 11:24:50.5910,-0.231,-0.767,-1.901,4.47,5.67,9.04,2.05,-1.37,-0.18
2022-01-28 11:24:50.6000,-0.217,-0.561,-1.949,3.93,1.58,9.93,1.66,-1.97,-0.87
2022-01-28 11:24:50.6110,-0.188,-0.392,-1.92,3.93,1.58,9.93,1.04,-2.19,-1.64
2022-01-28 11:24:50.6300,-0.148,-0.25,-1.853,2.92,-1.34,8.77,0.32,-2.03,-2.42
2022-01-28 11:24:50.6310,-0.099,-0.093,-1.815,2.37,-2.84,8.47,-0.34,-1.54,-3.13
2022-01-28 11:24:50.6420,-0.046,0.068,-1.792,2.37,-2.84,8.47,-0.78,-0.78,-3.67
2022-01-28 11:24:50.6510,0.01,0.198,-1.767,1.91,-4.17,8.22,-0.88,0.1,-3.98
2022-01-28 11:24:50.6600,0.089,0.266,-1.726,0.71,-5.25,7.29,-0.57,0.88,-4.02
2022-01-28 11:24:50.6820,0.189,0.273,-1.637,-0.07,-4.98,6.28,0.02,1.45,-3.83
2022-01-28 11:24:50.6840,0.284,0.229,-1.52,-0.07,-4.98,6.28,0.7,1.68,-3.45
2022-01-28 11:24:50.6900,0.343,0.159,-1.421,-0.82,-3.78,4.43,1.29,1.5,-2.96
2022-01-28 11:24:50.7010,0.371,0.11,-1.329,-0.82,-3.78,4.43,1.29,1.5,-2.96
2022-01-28 11:24:50.7120,0.387,0.109,-1.236,-0.87,-3.64,3.54,1.97,0.32,-2.11
2022-01-28 11:24:50.7220,0.394,0.124,-1.159,-0.92,-3.89,2.1570103722810745,1.97,0.32,-2.11
2022-01-28 11:24:50.7320,0.391,0.124,-1.104,-0.94,-4.08,2.15,1.89,-1.12,-1.81
2022-01-28 11:24:50.7420,0.385,0.115,-1.053,-0.95,-4.15,1.67,1.58,-1.64,-1.84
2022-01-28 11:24:50.7520,0.371,0.101,-1.02,-0.96,-4.1,1.21,1.17,-1.98,-1.95
2022-01-28 11:24:50.7620,0.345,0.104,-1.013,-0.87,-4.06,1.02,0.67,-2.1,-2.12
2022-01-28 11:24:50.7720,0.312,0.127,-1.001,-0.72,-4.2,0.92,0.16,-1.94,-2.29
2022-01-28 11:24:50.7820,0.256,0.15,-0.998,-0.39,-4.38,0.76,-0.31,-1.54,-2.4
2022-01-28 11:24:50.7920,0.184,0.169,-1.003,0.21,-4.49,0.75,-0.63,-0.97,-2.44
2022-01-28 11:24:50.8020,0.13,0.184,-1.002,0.86,-4.54,0.74,-0.75,-0.39,-2.43
2022-01-28 11:24:50.8120,0.098,0.183,-1.003,1.32,-4.5,0.69,-0.7,0.04,-2.35
2022-01-28 11:24:50.8220,0.08,0.151,-1.011,1.61,-4.24,0.73,-0.5,0.27,-2.19
2022-01-28 11:24:50.8320,0.063,0.093,-1.0,2.09,-3.0,0.5,-0.19,0.32,-1.96
2022-01-28 11:24:50.8430,0.049,0.029,-0.961,2.09,-3.0,0.5,-0.19,0.32,-1.96
2022-01-28 11:24:50.8520,0.031,-0.023,-0.918,2.29,-2.38,0.08,0.57,0.03,-1.38
2022-01-28 11:24:50.8630,0.005,-0.046,-0.872,2.53,-2.04,-0.32,0.98,-0.22,-1.12
2022-01-28 11:24:50.8720,-0.024,-0.048,-0.813,2.81,-1.99,-0.82,1.35,-0.48,-0.95
2022-01-28 11:24:50.8820,-0.05,-0.036,-0.75,3.07,-2.16,-1.41,1.64,-0.72,-0.84
2022-01-28 11:24:50.8930,-0.074,-0.027,-0.688,3.25,-2.42,-2.0,1.83,-0.91,-0.81
2022-01-28 11:24:50.9020,-0.092,-0.033,-0.622,3.4,-2.58,-2.6,1.92,-1.04,-0.81
2022-01-28 11:24:50.9130,-0.105,-0.043,-0.565,3.52,-2.72,-3.65,1.93,-1.14,-0.87
2022-01-28 11:24:50.9240,-0.116,-0.045,-0.521,3.54,-2.84,-4.01,1.87,-1.22,-0.97
2022-01-28 11:24:50.9330,-0.126,-0.05,-0.485,3.54,-2.84,-4.01,1.72,-1.28,-1.12
2022-01-28 11:24:50.9430,-0.136,-0.06,-0.458,3.58,-2.87,-4.5,1.51,-1.32,-1.3
2022-01-28 11:24:50.9530,-0.143,-0.073,-0.441,3.58,-2.87,-4.5,1.51,-1.32,-1.3
2022-01-28 11:24:50.9630,-0.151,-0.092,-0.436,3.58,-2.78,-4.6,0.98,-1.32,-1.74
2022-01-28 11:24:50.9730,-0.162,-0.111,-0.446,3.62,-2.63,-4.58,0.98,-1.32,-1.74
2022-01-28 11:24:50.9830,-0.178,-0.123,-0.476,3.7,-2.47,-4.38,0.71,-1.33,-1.98
2022-01-28 11:24:50.9930,-0.193,-0.126,-0.511,3.83,-2.4,-4.06,0.23,-1.48,-2.47
2022-01-28 11:24:51.0020,-0.2,-0.127,-0.56,3.9,-2.35,-3.71,0.04,-1.7,-2.71
2022-01-28 11:24:51.0130,-0.201,-0.13,-0.64,3.87,-2.28,-3.1,-0.09,-2.0,-2.95
2022-01-28 11:24:51.0230,-0.202,-0.119,-0.724,3.78,-2.21,-2.3,-0.16,-2.3,-3.22
2022-01-28 11:24:51.0330,-0.216,-0.082,-0.789,3.74,-2.38,-1.6,-0.16,-2.3,-3.22
2022-01-28 11:24:51.0430,-0.232,-0.038,-0.839,3.79,-3.06,-0.71,-0.21,-2.49,-3.9
2022-01-28 11:24:51.0530,-0.226,0.0,-0.882,3.79,-3.06,-0.71,-0.21,-2.49,-3.9
2022-01-28 11:24:51.0630,-0.212,0.029,-0.939,3.58,-3.3,-0.27,-0.21,-2.02,-4.71
2022-01-28 11:24:51.0720,-0.207,0.054,-1.001,3.47,-3.46,0.3,-0.21,-1.58,-5.07
2022-01-28 11:24:51.0830,-0.182,0.075,-1.063,3.4,-3.6,0.87,-0.21,-1.58,-5.07
2022-01-28 11:24:51.0930,-0.118,0.093,-1.125,3.03,-3.69,1.46,-0.2,-1.03,-5.35
2022-01-28 11:24:51.1030,-0.017,0.085,-1.202,2.33,-3.69,2.12,-0.09,-0.05,-5.56
2022-01-28 11:24:51.1120,0.097,0.028,-1.282,1.39,-3.26,2.92,0.03,0.16,-5.49
2022-01-28 11:24:51.1230,0.195,-0.037,-1.357,0.47,-2.49,3.65,0.2,0.08,-5.37
2022-01-28 11:24:51.1330,0.255,-0.067,-1.454,-0.52,-1.83,5.39,0.38,-0.26,-5.27
2022-01-28 11:24:51.1440,0.288,-0.034,-1.545,-0.52,-1.83,5.39,0.38,-0.26,-5.27
2022-01-28 11:24:51.1530,0.312,0.027,-1.73,-0.77,-2.27,6.66,0.23,-2.0,-5.29
2022-01-28 11:24:51.1630,0.328,0.08,-1.887,-1.06,-2.77,8.59,-0.2,-2.86,-5.28
2022-01-28 11:24:51.1730,0.327,0.112,-1.912,-1.33,-3.26,9.31,-0.76,-3.16,-5.13
2022-01-28 11:24:51.1840,0.293,0.18,-1.924,-1.33,-3.26,9.31,-1.33,-2.77,-4.84
2022-01-28 11:24:51.1950,0.255,0.26,-1.941,-0.83,-4.17,9.6,-1.73,-1.89,-4.47
2022-01-28 11:24:51.2040,0.22,0.282,-1.977,-0.6,-3.91,9.97,-1.81,-0.84,-4.1
2022-01-28 11:24:51.2140,0.215,0.263,-2.009,-0.66,-3.4,10.06,-1.53,0.11,-3.82
2022-01-28 11:24:51.2250,0.239,0.216,-2.0,-0.81,-2.63,9.86,-0.97,0.73,-3.56
2022-01-28 11:24:51.2340,0.262,0.133,-1.966,-0.81,-2.63,9.86,-0.28,0.93,-3.2
2022-01-28 11:24:51.2440,0.274,0.034,-1.882,-0.88,-1.63,9.32,0.42,0.77,-2.68
2022-01-28 11:24:51.2540,0.263,-0.044,-1.769,-0.8,-0.72,8.32,1.09,0.32,-2.08
2022-01-28 11:24:51.2640,0.233,-0.075,-1.656,-0.56,-0.26,7.22,1.72,-0.26,-1.53
2022-01-28 11:24:51.2740,0.188,-0.062,-1.516,-0.22,-0.34,6.02,1.72,-0.26,-1.53
2022-01-28 11:24:51.2930,0.133,-0.031,-1.36,0.66,-1.36,2.99,2.71,-1.13,-0.82
2022-01-28 11:24:51.2940,0.078,-0.002,-1.196,0.66,-1.36,2.99,2.71,-1.13,-0.82
2022-01-28 11:24:51.3040,0.027,0.029,-1.053,1.06,-1.91,1.46,3.06,-1.39,-0.67
2022-01-28 11:24:51.3130,-0.023,0.067,-0.945,1.44,-2.53,0.3,3.06,-1.39,-0.67
2022-01-28 11:24:51.3240,-0.06,0.105,-0.839,1.77,-3.2,-0.68,2.87,-1.36,-0.96
2022-01-28 11:24:51.3340,-0.078,0.123,-0.738,1.94,-3.74,-1.66,2.87,-1.36,-0.96
2022-01-28 11:24:51.3450,-0.078,0.118,-0.645,1.94,-4.03,-3.3575074803829197,2.66,-1.28,-1.19
2022-01-28 11:24:51.3540,-0.064,0.092,-0.566,1.81,-4.06,-3.36,2.09,-1.08,-1.62
2022-01-28 11:24:51.3640,-0.042,0.058,-0.5,1.57,-3.93,-4.0,1.79,-0.98,-1.79
2022-01-28 11:24:51.3740,-0.016,0.027,-0.443,1.3,-3.72,-4.58,1.49,-0.89,-1.94
2022-01-28 11:24:51.3850,0.011,0.005,-0.4,1.02,-3.58,-5.02,1.49,-0.89,-1.94
2022-01-28 11:24:51.3940,0.037,-0.016,-0.379,0.52,-3.31,-5.39,0.98,-0.84,-2.15
2022-01-28 11:24:51.4030,0.06,-0.039,-0.378,0.52,-3.31,-5.39,0.76,-0.9,-2.22
2022-01-28 11:24:51.4130,0.083,-0.063,-0.384,0.29,-3.12,-5.34,0.59,-1.01,-2.26
2022-01-28 11:24:51.4230,0.1,-0.086,-0.399,0.07,-2.91,-5.24,0.59,-1.01,-2.26
2022-01-28 11:24:51.4430,0.11,-0.104,-0.42,-0.22,-2.56,-4.85,0.31,-1.3,-2.34
2022-01-28 11:24:51.4480,0.123,-0.12,-0.437,-0.22,-2.56,-4.85,0.22,-1.42,-2.38
2022-01-28 11:24:51.4530,0.132,-0.124,-0.453,-0.4,-2.44,-4.71,0.12,-1.54,-2.43
2022-01-28 11:24:51.4630,0.136,-0.117,-0.471,-0.5,-2.45,-4.54,0.02,-1.62,-2.45
2022-01-28 11:24:51.4730,0.136,-0.112,-0.495,-0.58,-2.5,-4.37,-0.12,-1.64,-2.41
2022-01-28 11:24:51.4830,0.129,-0.109,-0.527,-0.61,-2.51,-4.08,-0.27,-1.58,-2.29
2022-01-28 11:24:51.4930,0.128,-0.127,-0.546,-0.61,-2.41,-3.87,-0.27,-1.58,-2.29
2022-01-28 11:24:51.5050,0.132,-0.151,-0.573,-0.79,-1.86,-3.42,-0.49,-1.21,-1.92
2022-01-28 11:24:51.5160,0.143,-0.167,-0.604,-0.79,-1.86,-3.42,-0.5,-1.02,-1.78
2022-01-28 11:24:51.5240,0.16,-0.184,-0.645,-0.98,-1.65,-3.09,-0.45,-0.9,-1.69
2022-01-28 11:24:51.5350,0.175,-0.207,-0.685,-1.15,-1.41,-2.69,-0.34,-0.83,-1.66
2022-01-28 11:24:51.5450,0.194,-0.237,-0.714,-1.34,-1.11,-2.35,-0.2,-0.81,-1.66
2022-01-28 11:24:51.5550,0.218,-0.272,-0.723,-1.57,-0.76,-2.18,-0.2,-0.81,-1.66
2022-01-28 11:24:51.5650,0.247,-0.304,-0.715,-2.15,-0.1,-2.31,-0.02,-0.67,-1.64
2022-01-28 11:24:51.5750,0.278,-0.335,-0.705,-2.15,-0.1,-2.31,-0.04,-0.54,-1.57
2022-01-28 11:24:51.5850,0.315,-0.369,-0.705,-2.47,0.22,-2.37,-0.13,-0.41,-1.47
2022-01-28 11:24:51.5940,0.353,-0.408,-0.723,-2.85,0.61,-2.28,-0.26,-0.31,-1.37
2022-01-28 11:24:51.6040,0.39,-0.441,-0.749,-3.19,1.01,-2.06,-0.39,-0.26,-1.3
2022-01-28 11:24:51.6140,0.432,-0.467,-0.782,-3.56,1.35,-1.8,-0.39,-0.26,-1.3
2022-01-28 11:24:51.6250,0.47,-0.486,-0.823,-3.95,1.62,-1.44,-0.62,-0.26,-1.3
2022-01-28 11:24:51.6350,0.503,-0.511,-0.866,-4.56,2.24,-0.62,-0.74,-0.24,-1.31
2022-01-28 11:24:51.6450,0.528,-0.538,-0.918,-4.56,2.24,-0.62,-0.74,-0.24,-1.31
2022-01-28 11:24:51.6550,0.552,-0.564,-0.965,-4.76,2.59,-0.13,-0.87,-0.16,-1.29
2022-01-28 11:24:51.6640,0.574,-0.58,-1.007,-5.11,3.13,0.69,-1.07,0.24,-1.13
2022-01-28 11:24:51.6750,0.598,-0.588,-1.065,-5.27,3.39,1.36,-1.2,0.46,-0.99
2022-01-28 11:24:51.6850,0.622,-0.614,-1.147,-5.45,3.92,2.21,-1.4,0.64,-0.79
2022-01-28 11:24:51.6950,0.653,-0.666,-1.251,-5.45,3.92,2.21,-1.63,0.71,-0.59
2022-01-28 11:24:51.7050,0.692,-0.731,-1.405,-5.73,4.7,3.43,-1.83,0.58,-0.47
2022-01-28 11:24:51.7150,0.716,-0.76,-1.603,-6.02,5.42,5.14,-1.96,0.22,-0.48
2022-01-28 11:24:51.7250,0.695,-0.711,-1.81,-6.04,5.54,7.16,-2.06,-0.22,-0.58
2022-01-28 11:24:51.7350,0.616,-0.588,-1.972,-5.58,4.87,8.98,-2.1,-0.51,-0.63
2022-01-28 11:24:51.7450,0.514,-0.409,-2.082,-4.66,3.59,10.27,-2.04,-0.52,-0.54
2022-01-28 11:24:51.7570,0.413,-0.226,-2.129,-2.8,0.53,11.11,-1.75,-0.16,-0.22
2022-01-28 11:24:51.7670,0.342,-0.105,-2.104,-2.8,0.53,11.11,-1.15,0.47,0.28
2022-01-28 11:24:51.7770,0.316,-0.043,-2.042,-2.05,-0.67,10.03,-0.27,1.07,0.9
2022-01-28 11:24:51.7870,0.306,-0.019,-1.984,-2.05,-0.67,10.03,0.73,1.39,1.57
2022-01-28 11:24:51.7970,0.299,-0.037,-1.891,-1.7,-0.73,8.23,1.68,1.41,2.19
2022-01-28 11:24:51.8060,0.298,-0.065,-1.749,-1.7,-0.73,8.23,2.47,1.2,2.69
2022-01-28 11:24:51.8160,0.283,-0.074,-1.592,-1.56,-0.83,6.8,2.47,1.2,2.69
2022-01-28 11:24:51.8250,0.253,-0.066,-1.414,-1.32,-1.17,5.22,3.02,0.89,3.02
2022-01-28 11:24:51.8350,0.208,-0.047,-1.249,-0.96,-1.67,3.55,3.48,0.38,3.31
2022-01-28 11:24:51.8440,0.159,-0.024,-1.113,-0.53,-2.26,2.19,3.42,0.24,3.29
2022-01-28 11:24:51.8550,0.114,-0.008,-0.993,-0.14,-2.79,1.02,3.42,0.24,3.29
2022-01-28 11:24:51.8650,0.068,0.012,-0.918,0.22,-3.31,0.13,2.88,0.15,2.97
2022-01-28 11:24:51.8750,0.024,0.009,-0.866,0.59,-3.7,-0.35,2.49,0.15,2.71
2022-01-28 11:24:51.8850,-0.013,-0.014,-0.818,0.9,-3.79,-0.74,2.07,0.2,2.42
2022-01-28 11:24:51.8950,-0.044,-0.04,-0.781,1.17,-3.74,-1.09,1.68,0.28,2.1
2022-01-28 11:24:51.9050,-0.071,-0.059,-0.751,1.39,-3.67,-1.34,1.35,0.39,1.78
2022-01-28 11:24:51.9150,-0.095,-0.071,-0.724,1.79,-3.63,-1.74,1.08,0.52,1.5
2022-01-28 11:24:51.9260,-0.109,-0.082,-0.706,1.87,-3.61,-1.87,0.88,0.67,1.26
2022-01-28 11:24:51.9380,-0.113,-0.096,-0.687,1.87,-3.61,-1.87,0.75,0.83,1.09
2022-01-28 11:24:51.9470,-0.116,-0.112,-0.679,1.93,-3.52,-1.99,0.67,0.93,0.96
2022-01-28 11:24:51.9570,-0.116,-0.122,-0.679,1.99,-3.45,-1.96,0.62,0.99,0.87
2022-01-28 11:24:51.9670,-0.118,-0.132,-0.672,2.03,-3.42,-1.96,0.61,1.01,0.81
2022-01-28 11:24:51.9770,-0.128,-0.144,-0.673,2.13,-3.37,-1.97,0.6,0.97,0.76
2022-01-28 11:24:51.9860,-0.147,-0.15,-0.68,2.58,-3.36,-1.8,0.6,0.93,0.7
2022-01-28 11:24:51.9970,-0.166,-0.15,-0.681,2.58,-3.36,-1.8,0.59,0.89,0.62
2022-01-28 11:24:52.0060,-0.181,-0.144,-0.684,2.79,-3.44,-1.74,0.55,0.85,0.5
2022-01-28 11:24:52.0170,-0.193,-0.139,-0.691,2.96,-3.56,-1.67,0.49,0.8,0.37
2022-01-28 11:24:52.0270,-0.203,-0.141,-0.699,3.13,-3.62,-1.55,0.41,0.74,0.23
2022-01-28 11:24:52.0370,-0.206,-0.15,-0.703,3.24,-3.59,-1.4080446124076844,0.32,0.7,0.09
2022-01-28 11:24:52.0470,-0.206,-0.156,-0.706,3.35,-3.5,-1.35,0.22,0.66,-0.03
2022-01-28 11:24:52.0570,-0.204,-0.163,-0.713,3.37,-3.41,-1.24,0.11,0.61,-0.13
2022-01-28 11:24:52.0670,-0.199,-0.171,-0.728,3.37,-3.41,-1.24,0.01,0.53,-0.23
2022-01-28 11:24:52.0770,-0.194,-0.171,-0.745,3.38,-3.36,-1.06,-0.08,0.44,-0.33
2022-01-28 11:24:52.0870,-0.188,-0.163,-0.757,3.38,-3.4,-0.92,-0.17,0.35,-0.44
2022-01-28 11:24:52.0970,-0.177,-0.167,-0.767,3.35,-3.41,-0.82,-0.25,0.25,-0.56
2022-01-28 11:24:52.1150,-0.162,-0.177,-0.771,3.17,-3.17,-0.76,-0.25,0.25,-0.56
2022-01-28 11:24:52.1210,-0.149,-0.183,-0.769,3.17,-3.17,-0.76,-0.36,0.09,-0.75
2022-01-28 11:24:52.1390,-0.139,-0.187,-0.762,3.03,-2.99,-0.93,-0.4,0.01,-0.8
2022-01-28 11:24:52.1450,-0.128,-0.193,-0.75,3.03,-2.99,-0.93,-0.41,-0.06,-0.81
2022-01-28 11:24:52.1450,-0.121,-0.203,-0.731,2.97,-2.86,-1.1,-0.41,-0.06,-0.81
2022-01-28 11:24:52.1550,-0.125,-0.213,-0.709,2.97,-2.5925937321782113,-1.5622391974925995,-0.29,-0.22,-0.75
2022-01-28 11:24:52.1660,-0.139,-0.216,-0.688,3.26,-2.63,-1.8,-0.29,-0.22,-0.75
2022-01-28 11:24:52.1770,-0.158,-0.2,-0.659,3.39,-2.8,-2.15,-0.06,-0.3,-0.71
2022-01-28 11:24:52.1870,-0.157,-0.188,-0.624,3.39,-2.8,-2.15,0.05,-0.29,-0.72
2022-01-28 11:24:52.1970,-0.149,-0.203,-0.604,3.32,-2.78,-2.45,0.09,-0.31,-0.75
2022-01-28 11:24:52.2080,-0.116,-0.235,-0.595,2.75,-2.13,-2.82,0.12,-0.33,-0.86
2022-01-28 11:24:52.2180,-0.072,-0.278,-0.546,2.42,-1.74,-3.31,0.14,-0.34,-0.98
2022-01-28 11:24:52.2280,-0.043,-0.309,-0.512,2.42,-1.74,-3.31,0.14,-0.34,-0.98
2022-01-28 11:24:52.2380,-0.01,-0.325,-0.494,2.14,-1.51,-3.5,0.12,-0.45,-1.2
2022-01-28 11:24:52.2480,0.016,-0.347,-0.458,1.85,-1.32,-3.77,0.1,-0.49,-1.26
2022-01-28 11:24:52.2570,0.03,-0.367,-0.419,1.67,-1.08,-4.17,0.09,-0.57,-1.28
2022-01-28 11:24:52.2670,0.03,-0.373,-0.399,1.62,-0.93,-4.49,0.07,-0.69,-1.26
2022-01-28 11:24:52.2780,0.052,-0.37,-0.334,1.52,-0.96,-4.75,0.01,-0.66,-1.12
2022-01-28 11:24:52.2880,0.027,-0.407,-0.301,1.74,-0.9,-5.09,-0.17,-0.81,-1.01
2022-01-28 11:24:52.2980,0.003,-0.283,-0.403,1.74,-0.9,-5.09,-0.33,-1.03,-1.05
2022-01-28 11:24:52.3080,0.016,-0.269,-0.401,1.79,-2.1,-4.47,-0.4,-1.07,-1.04
2022-01-28 11:24:52.3180,0.067,-0.404,-0.404,1.44,-1.05,-4.76,-0.36,-1.01,-1.0
2022-01-28 11:24:52.3280,0.129,-0.428,-0.463,0.77,-0.08,-4.39,-0.27,-0.94,-1.07
2022-01-28 11:24:52.3380,0.168,-0.369,-0.509,0.21,-0.38,-3.86,-0.19,-0.85,-1.27
2022-01-28 11:24:52.3480,0.17,-0.332,-0.553,0.02,-0.87,-3.49,-0.17,-0.77,-1.51
2022-01-28 11:24:52.3580,0.163,-0.332,-0.596,0.17,-0.84,-2.76,-0.22,-0.64,-1.71
2022-01-28 11:24:52.3680,0.153,-0.344,-0.614,0.17,-0.84,-2.76,-0.31,-0.43,-1.81
2022-01-28 11:24:52.3770,0.156,-0.338,-0.665,0.29,-0.73,-2.55,-0.39,-0.2,-1.84
2022-01-28 11:24:52.3870,0.187,-0.331,-0.726,0.18,-0.78,-1.91,-0.35,0.05,-1.8
2022-01-28 11:24:52.3980,0.242,-0.339,-0.788,-0.16,-0.68,-1.37,-0.22,0.3,-1.78
2022-01-28 11:24:52.4080,0.311,-0.354,-0.848,-0.7,-0.53,-0.73,0.02,0.49,-1.77
2022-01-28 11:24:52.4180,0.365,-0.363,-0.922,-1.21,-0.32,-0.11,0.25,0.59,-1.81
2022-01-28 11:24:52.4270,0.391,-0.333,-0.978,-1.5,-0.42,0.64,0.37,0.66,-1.9
2022-01-28 11:24:52.4380,0.391,-0.288,-1.023,-1.46,-0.8,1.08,0.34,0.71,-2.0
2022-01-28 11:24:52.4480,0.405,-0.265,-1.077,-1.34,-1.17,1.63,0.17,0.72,-2.1
2022-01-28 11:24:52.4580,0.456,-0.278,-1.141,-2.02,-0.86,3.11,-0.13,0.57,-2.22
2022-01-28 11:24:52.4680,0.525,-0.295,-1.277,-2.63,-0.68,4.72,-0.56,0.07,-2.35
2022-01-28 11:24:52.4780,0.592,-0.286,-1.465,-2.63,-0.68,4.72,-1.15,-0.74,-2.48
2022-01-28 11:24:52.4880,0.628,-0.276,-1.655,-3.17,-0.66,6.61,-1.83,-1.56,-2.49
2022-01-28 11:24:52.4980,0.63,-0.302,-1.762,-3.4,-0.33,8.0,-2.45,-2.06,-2.32
2022-01-28 11:24:52.5080,0.614,-0.318,-1.833,-3.45,0.25,8.6,-2.9,-2.17,-1.97
2022-01-28 11:24:52.5180,0.577,-0.318,-1.914,-3.01,0.97,9.81,-3.05,-1.87,-1.46
2022-01-28 11:24:52.5280,0.527,-0.335,-1.961,-3.01,0.97,9.81,-2.82,-1.25,-0.86
2022-01-28 11:24:52.5400,0.479,-0.362,-1.977,-2.61,1.48,10.0,-2.2006328105926514,-0.52,-0.32
2022-01-28 11:24:52.5500,0.439,-0.384,-1.965,-2.21,1.92,10.02,-1.36,0.12,0.1
2022-01-28 11:24:52.5600,0.398,-0.408,-1.897,-1.8,2.23,9.61,-0.51,0.53,0.39
2022-01-28 11:24:52.5690,0.348,-0.439,-1.789,-1.31,2.53,8.74,0.15,0.64,0.61
2022-01-28 11:24:52.5790,0.304,-0.465,-1.653,-0.77,2.78,7.54,0.6,0.5,0.75
2022-01-28 11:24:52.5880,0.273,-0.481,-1.491,-0.39,2.92,6.1,0.9,0.22,0.81
2022-01-28 11:24:52.5980,0.25,-0.478,-1.324,-0.13,2.88,4.48,1.09,-0.08,0.78
Time,0.238,-0.474,-1.166,0.06,2.57,1.43,1.19,-0.35,0.68
2022-01-28 11:24:52.6200,0.231,-0.479,-1.024,0.04,2.5,0.11,1.2,-0.54,0.54
2022-01-28 11:24:52.6280,0.228,-0.479,-0.894,0.04,2.5,0.11,1.15,-0.6,0.35
2022-01-28 11:24:52.6390,0.224,-0.466,-0.776,0.01,2.06,-2.13,1.05,-0.56,0.14
2022-01-28 11:24:52.6490,0.215,-0.445,-0.684,0.08,1.74,-2.91,0.9,-0.47,-0.05
2022-01-28 11:24:52.6590,0.203,-0.416,-0.614,0.16,1.39,-3.49,0.9,-0.47,-0.05
2022-01-28 11:24:52.6690,0.195,-0.39,-0.562,0.16,1.39,-3.49,0.56,-0.24,-0.33
2022-01-28 11:24:52.6790,0.185,-0.369,-0.523,0.23,1.13,-3.93,0.42,-0.15,-0.4
2022-01-28 11:24:52.6890,0.174,-0.344,-0.504,0.44,0.58,-4.32,0.32,-0.12,-0.43
2022-01-28 11:24:52.6990,0.164,-0.313,-0.494,0.44,0.58,-4.32,0.27,-0.16,-0.42
2022-01-28 11:24:52.7090,0.157,-0.293,-0.487,0.52,0.3,-4.41,0.26,-0.26,-0.36
2022-01-28 11:24:52.7190,0.158,-0.283,-0.485,0.53,0.15,-4.46,0.28,-0.41,-0.29
2022-01-28 11:24:52.7280,0.165,-0.271,-0.484,0.46,0.04,-4.46,0.34,-0.58,-0.22
2022-01-28 11:24:52.7380,0.173,-0.258,-0.475,0.19,-0.28,-4.61,0.42,-0.72,-0.16
2022-01-28 11:24:52.7480,0.177,-0.245,-0.465,0.19,-0.28,-4.61,0.48,-0.83,-0.1
2022-01-28 11:24:52.7580,0.174,-0.231,-0.454,0.08,-0.64,-4.83,0.51,-0.88,-0.03
2022-01-28 11:24:52.7680,0.168,-0.219,-0.442,0.08,-0.77,-4.96,0.49,-0.84,0.03
2022-01-28 11:24:52.7780,0.158,-0.211,-0.431,0.08,-0.77,-4.96,0.42,-0.7,0.09
2022-01-28 11:24:52.7880,0.145,-0.205,-0.426,0.13,-0.89,-5.04,0.42,-0.7,0.09
2022-01-28 11:24:52.7980,0.134,-0.21,-0.444,0.29,-0.84,-4.65,0.12,-0.27,0.27
2022-01-28 11:24:52.8080,0.121,-0.223,-0.499,0.43,-0.71,-3.95,-0.03,-0.12,0.38
2022-01-28 11:24:52.8180,0.102,-0.23,-0.584,0.43,-0.71,-3.95,-0.13,-0.11,0.45
2022-01-28 11:24:52.8280,0.088,-0.218,-0.672,0.57,-0.72,-3.07,-0.17,-0.2,0.45
2022-01-28 11:24:52.8380,0.078,-0.202,-0.742,0.69,-0.98,-1.75,-0.13,-0.29,0.4
2022-01-28 11:24:52.8490,0.076,-0.197,-0.787,0.69,-0.98,-1.75,-0.06,-0.33,0.31
2022-01-28 11:24:52.8580,0.082,-0.203,-0.842,0.5,-0.89,-0.75,0.01,-0.34,0.2
2022-01-28 11:24:52.8680,0.094,-0.21,-0.892,0.5,-0.89,-0.75,0.07,-0.29,0.08
2022-01-28 11:24:52.8780,0.108,-0.208,-0.937,0.33,-0.86,-0.3,0.11,-0.19,-0.01
2022-01-28 11:24:52.8880,0.119,-0.194,-0.978,0.07,-1.14,0.51,0.11,-0.03,-0.06
2022-01-28 11:24:52.8990,0.135,-0.175,-1.016,0.07,-1.14,0.51,0.12,0.17,-0.02
2022-01-28 11:24:52.9090,0.151,-0.159,-1.057,-0.08,-1.33,0.89,0.16,0.34,0.1
2022-01-28 11:24:52.9180,0.162,-0.143,-1.1,-0.18,-1.49,1.33,0.19,0.45,0.24
2022-01-28 11:24:52.9290,0.167,-0.126,-1.157,-0.23,-1.69,1.8,0.2,0.4,0.36
2022-01-28 11:24:52.9480,0.162,-0.124,-1.227,-0.11,-1.81,3.1,0.14,0.23,0.42
2022-01-28 11:24:52.9490,0.147,-0.126,-1.284,-0.11,-1.81,3.1,0.02,-0.04,0.38
2022-01-28 11:24:52.9590,0.127,-0.129,-1.346,0.06,-1.79,3.66,-0.13,-0.38,0.27
2022-01-28 11:24:52.9690,0.12,-0.134,-1.404,0.15,-1.73,4.28,-0.27,-0.75,0.1
Time,0.115,-0.132,-1.439,0.11,-1.69,4.9,-0.36,-1.03,-0.07
2022-01-28 11:24:52.9890,0.103,-0.124,-1.444,0.11,-1.69,4.9,-0.41,-1.14,-0.21
2022-01-28 11:24:52.9990,0.094,-0.118,-1.41,0.11,-1.75,4.73,-0.42,-1.02,-0.27
2022-01-28 11:24:53.0090,0.083,-0.136,-1.357,0.12,-1.65,4.23,-0.42,-0.75,-0.21
2022-01-28 11:24:53.0190,0.064,-0.174,-1.32,0.21,-1.33,3.74,-0.46,-0.45,-0.04
2022-01-28 11:24:53.0290,0.042,-0.226,-1.314,0.38,-0.84,3.53,-0.53,-0.23,0.2
2022-01-28 11:24:53.0390,0.031,-0.288,-1.316,0.51,0.43,3.52,-0.6,-0.12,0.4
2022-01-28 11:24:53.0490,0.042,-0.342,-1.319,0.51,0.43,3.52,-0.65,-0.13,0.49
2022-01-28 11:24:53.0590,0.059,-0.394,-1.314,0.32,0.99,3.5,-0.7,-0.18,0.47
2022-01-28 11:24:53.0690,0.069,-0.45,-1.293,0.16,1.59,3.36,-0.71,-0.25,0.39
2022-01-28 11:24:53.0790,0.074,-0.497,-1.264,0.05,2.18,3.08,-0.68,-0.3,0.28
2022-01-28 11:24:53.0890,0.078,-0.534,-1.227,-0.02,2.64,2.74,-0.59,-0.32,0.19
2022-01-28 11:24:53.1000,0.088,-0.561,-1.181,-0.13,3.2430698686838153,1.8214410048723222,-0.44,-0.31,0.13
2022-01-28 11:24:53.1110,0.093,-0.568,-1.126,-0.28,3.2,1.2,-0.21,-0.27,0.11
2022-01-28 11:24:53.1210,0.093,-0.549,-1.056,-0.28,3.2,1.2,0.06610099226236343,-0.21,0.1
2022-01-28 11:24:53.1310,0.092,-0.515,-0.975,-0.3,2.9,0.46,0.37,-0.15,0.14
2022-01-28 11:24:53.1400,0.094,-0.491,-0.889,-0.37,2.33,-1.18,0.65,-0.11,0.21
2022-01-28 11:24:53.1500,0.095,-0.482,-0.806,-0.35,2.14,-1.96,0.9,-0.09,0.31
2022-01-28 11:24:53.1610,0.09,-0.467,-0.727,-0.35,2.14,-1.96,1.11,-0.1,0.41
2022-01-28 11:24:53.1710,0.08,-0.44,-0.662,-0.3,1.82,-2.64,1.29,-0.14,0.46
2022-01-28 11:24:53.1810,0.066,-0.402,-0.606,-0.21,1.38,-3.2,1.42,-0.22,0.47
2022-01-28 11:24:53.1910,0.051,-0.36,-0.56,-0.1,0.84,-3.65,1.51,-0.32,0.42
2022-01-28 11:24:53.2010,0.034,-0.325,-0.514,0.01,0.31,-4.05,1.55,-0.42,0.34
2022-01-28 11:24:53.2110,0.022,-0.297,-0.474,0.1,-0.14,-4.44,1.54,-0.5,0.23
2022-01-28 11:24:53.2210,0.013,-0.275,-0.439,0.15,-0.53,-4.75,1.54,-0.5,0.23
2022-01-28 11:24:53.2310,0.006,-0.259,-0.409,0.18,-0.85,-5.03,1.39,-0.58,-0.06
2022-01-28 11:24:53.2410,0.0,-0.244,-0.383,0.18,-1.36,-5.43,1.25,-0.58,-0.22
2022-01-28 11:24:53.2510,-0.002,-0.231,-0.366,0.18,-1.36,-5.43,1.09,-0.54,-0.41
2022-01-28 11:24:53.2610,-0.004,-0.216,-0.359,0.17,-1.83,-5.51,0.92,-0.49,-0.6
2022-01-28 11:24:53.2710,-0.004,-0.199,-0.36,0.17,-1.83,-5.51,0.74,-0.42,-0.8
2022-01-28 11:24:53.2810,-0.007,-0.178,-0.372,0.17,-2.07,-5.42,0.54,-0.33,-1.0
2022-01-28 11:24:53.2910,-0.008,-0.157,-0.392,0.24,-2.56,-4.98,0.33,-0.24,-1.19
2022-01-28 11:24:53.3010,-0.006,-0.134,-0.426,0.24,-2.56,-4.98,0.11,-0.15,-1.36
2022-01-28 11:24:53.3110,0.001,-0.12,-0.47,0.24,-2.75,-4.58,-0.1,-0.08,-1.51
2022-01-28 11:24:53.3210,0.007,-0.115,-0.523,0.23,-2.82,-4.12,-0.32,-0.07,-1.66
2022-01-28 11:24:53.3310,0.021,-0.113,-0.589,0.2,-2.81,-3.55,-0.56,-0.08,-1.79
2022-01-28 11:24:53.3420,0.041,-0.118,-0.658,0.09,-2.75,-2.9,-0.82,-0.04,-1.89
2022-01-28 11:24:53.3520,0.072,-0.148,-0.724,-0.39,-1.95,-1.71,-1.02,0.12,-1.93
2022-01-28 11:24:53.3620,0.123,-0.206,-0.78,-0.39,-1.95,-1.71,-1.1,0.39,-1.93
