
time,gFx,gFy,gFz,ax,ay,az,wx,wy,wz,
0.070881,0.2016,0.5709,0.8320,0.0000,0.0000,0.0000,0.0000,0.0000,0.0000,
0.071176,0.2717,0.4341,1.0344,0.0000,0.0000,0.0000,0.0000,0.0000,0.0000,
0.071481,0.2792,0.3258,1.1557,0.0000,0.0000,0.0000,0.0000,0.0000,0.0000,
0.071765,0.2314,0.2725,0.8518,0.0000,0.0000,0.0000,0.0000,0.0000,0.0000,
0.091749,0.2541,0.3364,0.6533,0.0000,0.0000,0.0000,0.0000,0.0000,0.0000,
0.092804,0.2541,0.3364,0.6533,-0.7148,-0.9464,-1.8378,0.0000,0.0000,0.0000,
0.111880,0.2965,0.4547,0.7258,-0.7148,-0.9464,-1.8378,0.0000,0.0000,0.0000,
0.112872,0.2965,0.4547,0.7258,-0.3024,-0.4638,-0.7405,0.0000,0.0000,0.0000,
0.131830,0.2872,0.4418,0.7798,-0.3024,-0.4638,-0.7405,0.0000,0.0000,0.0000,
0.133053,0.2872,0.4418,0.7798,-0.1779,-0.2737,-0.4832,0.0000,0.0000,0.0000,
0.136834,0.2872,0.4418,0.7798,-0.1779,-0.2737,-0.4832,-1.3239,-0.4378,-0.3935,
0.146760,0.2872,0.4418,0.7798,-0.1779,-0.2737,-0.4832,-1.2128,0.0289,-0.4571,
0.152819,0.3374,0.3549,0.9574,-0.1779,-0.2737,-0.4832,-1.2128,0.0289,-0.4571,
0.154117,0.3374,0.3549,0.9574,0.2297,0.2416,0.6518,-1.2128,0.0289,-0.4571,
0.156838,0.3374,0.3549,0.9574,0.2297,0.2416,0.6518,-1.0044,0.4284,-0.5652,
0.166824,0.3374,0.3549,0.9574,0.2297,0.2416,0.6518,-0.7595,0.9214,-0.7210,
0.172108,0.3154,0.3373,1.1118,0.2297,0.2416,0.6518,-0.7595,0.9214,-0.7210,
0.173268,0.3154,0.3373,1.1118,0.5218,0.5580,1.8394,-0.7595,0.9214,-0.7210,
0.176954,0.3154,0.3373,1.1118,0.5218,0.5580,1.8394,-0.4327,1.1242,-0.9403,
0.186810,0.3154,0.3373,1.1118,0.5218,0.5580,1.8394,-0.0277,1.0442,-1.1797,
0.191931,0.3384,0.2107,0.9468,0.5218,0.5580,1.8394,-0.0277,1.0442,-1.1797,
0.193186,0.3384,0.2107,0.9468,0.0859,0.0535,0.2404,-0.0277,1.0442,-1.1797,
0.196820,0.3384,0.2107,0.9468,0.0859,0.0535,0.2404,0.2936,1.0179,-1.3880,
0.206745,0.3384,0.2107,0.9468,0.0859,0.0535,0.2404,0.4824,1.0625,-1.5707,
0.212123,0.4009,0.2084,0.4248,0.0859,0.0535,0.2404,0.4824,1.0625,-1.5707,
0.213262,0.4009,0.2084,0.4248,-2.4103,-1.2529,-2.5542,0.4824,1.0625,-1.5707,
0.216748,0.4009,0.2084,0.4248,-2.4103,-1.2529,-2.5542,0.4958,1.0552,-1.7436,
0.227053,0.4009,0.2084,0.4248,-2.4103,-1.2529,-2.5542,0.3022,0.7754,-1.9335,
0.232013,-0.0911,0.2989,0.3539,-2.4103,-1.2529,-2.5542,0.3022,0.7754,-1.9335,
0.233232,-0.0911,0.2989,0.3539,0.9999,-3.2797,-3.8829,0.3022,0.7754,-1.9335,
0.236867,-0.0911,0.2989,0.3539,0.9999,-3.2797,-3.8829,-0.0827,0.4144,-1.7820,
0.246827,-0.0911,0.2989,0.3539,0.9999,-3.2797,-3.8829,-0.8749,0.2287,-1.4577,
0.252877,-0.1471,0.2934,0.5747,0.9999,-3.2797,-3.8829,-0.8749,0.2287,-1.4577,
0.253924,-0.1471,0.2934,0.5747,0.7379,-1.4721,-2.8835,-0.8749,0.2287,-1.4577,
0.256788,-0.1471,0.2934,0.5747,0.7379,-1.4721,-2.8835,-0.9916,0.2672,-1.1651,
0.266868,-0.1471,0.2934,0.5747,0.7379,-1.4721,-2.8835,-1.0295,0.4156,-1.0337,
0.272147,0.0161,0.2228,0.6503,0.7379,-1.4721,-2.8835,-1.0295,0.4156,-1.0337,
0.273171,0.0161,0.2228,0.6503,-0.0719,-0.9940,-2.9014,-1.0295,0.4156,-1.0337,
0.276687,0.0161,0.2228,0.6503,-0.0719,-0.9940,-2.9014,-1.0716,0.5506,-1.1046,
0.286620,0.0161,0.2228,0.6503,-0.0719,-0.9940,-2.9014,-1.1327,0.5237,-1.3190,
0.291802,0.1830,0.0639,0.5880,-0.0719,-0.9940,-2.9014,-1.1327,0.5237,-1.3190,
0.292745,0.1830,0.0639,0.5880,-1.1050,-0.3858,-3.5510,-1.1327,0.5237,-1.3190,
0.296720,0.1830,0.0639,0.5880,-1.1050,-0.3858,-3.5510,-1.2182,0.1749,-1.6208,
0.306631,0.1830,0.0639,0.5880,-1.1050,-0.3858,-3.5510,-1.3190,-0.2063,-1.9879,
0.311901,0.1798,-0.0701,0.6130,-1.1050,-0.3858,-3.5510,-1.3190,-0.2063,-1.9879,
0.312914,0.1798,-0.0701,0.6130,-0.9818,0.3828,-3.3469,-1.3190,-0.2063,-1.9879,
0.316751,0.1798,-0.0701,0.6130,-0.9818,0.3828,-3.3469,-1.4388,-0.2851,-2.3391,
0.326612,0.1798,-0.0701,0.6130,-0.9818,0.3828,-3.3469,-1.5316,-0.1305,-2.5737,
0.331847,-0.1987,-0.1052,0.5358,-0.9818,0.3828,-3.3469,-1.5316,-0.1305,-2.5737,
0.333496,-0.1987,-0.1052,0.5358,1.4067,0.7444,-3.7921,-1.5316,-0.1305,-2.5737,
0.337007,-0.1987,-0.1052,0.5358,1.4067,0.7444,-3.7921,-1.6037,0.0723,-2.6495,
0.346868,-0.1987,-0.1052,0.5358,1.4067,0.7444,-3.7921,-1.7076,0.2073,-2.5957,
0.353083,-0.3678,-0.1687,0.4752,1.4067,0.7444,-3.7921,-1.7076,0.2073,-2.5957,
0.354412,-0.3678,-0.1687,0.4752,2.1747,0.9974,-2.8096,-1.7076,0.2073,-2.5957,
0.356786,-0.3678,-0.1687,0.4752,2.1747,0.9974,-2.8096,-1.8719,0.3227,-2.4809,
0.366821,-0.3678,-0.1687,0.4752,2.1747,0.9974,-2.8096,-2.0399,0.3930,-2.3416,
0.372179,-0.2555,-0.3044,0.4814,2.1747,0.9974,-2.8096,-2.0399,0.3930,-2.3416,
0.373184,-0.2555,-0.3044,0.4814,1.5100,1.7987,-2.8446,-2.0399,0.3930,-2.3416,
0.376904,-0.2555,-0.3044,0.4814,1.5100,1.7987,-2.8446,-2.1859,0.2629,-2.2860,
0.386825,-0.2555,-0.3044,0.4814,1.5100,1.7987,-2.8446,-2.3606,0.0808,-2.3721,
0.391895,-0.0297,-0.4209,0.4731,1.5100,1.7987,-2.8446,-2.3606,0.0808,-2.3721,
0.393096,-0.0297,-0.4209,0.4731,0.1683,2.3863,-2.6820,-2.3606,0.0808,-2.3721,
0.396725,-0.0297,-0.4209,0.4731,0.1683,2.3863,-2.6820,-2.5689,0.0014,-2.5132,
0.406814,-0.0297,-0.4209,0.4731,0.1683,2.3863,-2.6820,-2.7808,0.1285,-2.6721,
0.412001,-0.0529,-0.5378,0.6136,0.1683,2.3863,-2.6820,-2.7808,0.1285,-2.6721,
0.413102,-0.0529,-0.5378,0.6136,0.1160,1.1799,-1.3460,-2.7808,0.1285,-2.6721,
0.416801,-0.0529,-0.5378,0.6136,0.1160,1.1799,-1.3460,-2.9458,0.5372,-2.8230,
0.426876,-0.0529,-0.5378,0.6136,0.1160,1.1799,-1.3460,-3.0777,1.4211,-2.9573,
0.431959,-0.3316,-0.4798,0.6389,0.1160,1.1799,-1.3460,-3.0777,1.4211,-2.9573,
0.433150,-0.3316,-0.4798,0.6389,0.5095,0.7371,-0.9814,-3.0777,1.4211,-2.9573,
0.436797,-0.3316,-0.4798,0.6389,0.5095,0.7371,-0.9814,-3.2176,1.6141,-2.8627,
0.446838,-0.3316,-0.4798,0.6389,0.5095,0.7371,-0.9814,-3.5334,1.6630,-2.7362,
0.453088,-0.2932,-0.5626,0.6071,0.5095,0.7371,-0.9814,-3.5334,1.6630,-2.7362,
0.454166,-0.2932,-0.5626,0.6071,0.4010,0.7696,-0.8304,-3.5334,1.6630,-2.7362,
0.456703,-0.2932,-0.5626,0.6071,0.4010,0.7696,-0.8304,-3.9873,1.6978,-2.6098,
0.466734,-0.2932,-0.5626,0.6071,0.4010,0.7696,-0.8304,-4.3795,1.7131,-2.5255,
0.472124,-0.1535,-0.6789,1.0934,0.4010,0.7696,-0.8304,-4.3795,1.7131,-2.5255,
0.473196,-0.1535,-0.6789,1.0934,-0.3430,-1.5168,2.4427,-4.3795,1.7131,-2.5255,
0.476724,-0.1535,-0.6789,1.0934,-0.3430,-1.5168,2.4427,-4.5371,1.5958,-2.5096,
0.486922,-0.1535,-0.6789,1.0934,-0.3430,-1.5168,2.4427,-4.4497,1.3551,-2.5462,
0.491972,-0.1146,-0.7151,1.5253,-0.3430,-1.5168,2.4427,-4.4497,1.3551,-2.5462,
0.493063,-0.1146,-0.7151,1.5253,-0.4574,-2.8547,6.0893,-4.4497,1.3551,-2.5462,
0.496817,-0.1146,-0.7151,1.5253,-0.4574,-2.8547,6.0893,-4.2463,1.0289,-2.5817,
0.506775,-0.1146,-0.7151,1.5253,-0.4574,-2.8547,6.0893,-4.1052,0.6147,-2.6043,
0.511940,0.0062,-0.6610,1.4541,-0.4574,-2.8547,6.0893,-4.1052,0.6147,-2.6043,
0.513118,0.0062,-0.6610,1.4541,0.0228,-2.4195,5.3227,-4.1052,0.6147,-2.6043,
0.516828,0.0062,-0.6610,1.4541,0.0228,-2.4195,5.3227,-4.1095,0.1792,-2.6281,
0.526769,0.0062,-0.6610,1.4541,0.0228,-2.4195,5.3227,-4.1828,-0.2105,-2.6214,
0.531917,-0.0387,-0.5437,1.7034,0.0228,-2.4195,5.3227,-4.1828,-0.2105,-2.6214,
0.533046,-0.0387,-0.5437,1.7034,-0.1672,-2.3471,7.3535,-4.1828,-0.2105,-2.6214,
0.536816,-0.0387,-0.5437,1.7034,-0.1672,-2.3471,7.3535,-4.1748,-0.4561,-2.5475,
0.546797,-0.0387,-0.5437,1.7034,-0.1672,-2.3471,7.3535,-4.0026,-0.5758,-2.3813,
0.553039,-0.0414,-0.4203,1.8136,-0.1672,-2.3471,7.3535,-4.0026,-0.5758,-2.3813,
0.554269,-0.0414,-0.4203,1.8136,-0.1877,-1.9056,8.2223,-4.0026,-0.5758,-2.3813,
0.556698,-0.0414,-0.4203,1.8136,-0.1877,-1.9056,8.2223,-3.7234,-0.6608,-2.1608,
0.566681,-0.0414,-0.4203,1.8136,-0.1877,-1.9056,8.2223,-3.4632,-0.7347,-1.9378,
0.572204,0.1175,-0.3860,1.8501,-0.1877,-1.9056,8.2223,-3.4632,-0.7347,-1.9378,
0.573275,0.1175,-0.3860,1.8501,0.5430,-1.7838,8.5499,-3.4632,-0.7347,-1.9378,
0.576705,0.1175,-0.3860,1.8501,0.5430,-1.7838,8.5499,-3.2372,-0.8678,-1.7747,
0.586799,0.1175,-0.3860,1.8501,0.5430,-1.7838,8.5499,-3.0038,-1.0664,-1.7026,
0.591942,0.1805,-0.3644,1.9435,0.5430,-1.7838,8.5499,-3.0038,-1.0664,-1.7026,
0.593166,0.1805,-0.3644,1.9435,0.8776,-1.7713,9.4471,-3.0038,-1.0664,-1.7026,
0.596981,0.1805,-0.3644,1.9435,0.8776,-1.7713,9.4471,-2.7124,-1.3022,-1.6776,
0.606767,0.1805,-0.3644,1.9435,0.8776,-1.7713,9.4471,-2.3526,-1.8635,-1.5908,
0.611955,0.1096,-0.2646,1.9078,0.8776,-1.7713,9.4471,-2.3526,-1.8635,-1.5908,
0.613034,0.1096,-0.2646,1.9078,0.5168,-1.2479,8.9983,-2.3526,-1.8635,-1.5908,
0.616702,0.1096,-0.2646,1.9078,0.5168,-1.2479,8.9983,-1.6159,-2.2014,-1.4852,
0.626712,0.1096,-0.2646,1.9078,0.5168,-1.2479,8.9983,-1.3361,-2.5257,-1.3575,
0.631884,0.0986,-0.2353,1.8726,0.5168,-1.2479,8.9983,-1.3361,-2.5257,-1.3575,
0.633068,0.0986,-0.2353,1.8726,0.4545,-1.0848,8.6346,-1.3361,-2.5257,-1.3575,
0.636822,0.0986,-0.2353,1.8726,0.4545,-1.0848,8.6346,-1.0429,-2.9759,-1.2139,
0.646824,0.0986,-0.2353,1.8726,0.4545,-1.0848,8.6346,-0.6611,-3.6265,-1.0655,
0.653227,0.1518,-0.1952,1.8901,0.4545,-1.0848,8.6346,-0.6611,-3.6265,-1.0655,
0.654444,0.1518,-0.1952,1.8901,0.7068,-0.9087,8.7990,-0.6611,-3.6265,-1.0655,
0.656809,0.1518,-0.1952,1.8901,0.7068,-0.9087,8.7990,-0.2458,-4.2948,-0.9189,
0.666687,0.1518,-0.1952,1.8901,0.7068,-0.9087,8.7990,0.1006,-4.8024,-0.7821,
0.672180,0.2742,-0.1875,1.4766,0.7068,-0.9087,8.7990,0.1006,-4.8024,-0.7821,
0.673274,0.2742,-0.1875,1.4766,0.9106,-0.6226,4.9031,0.1006,-4.8024,-0.7821,
0.676811,0.2742,-0.1875,1.4766,0.9106,-0.6226,4.9031,0.3236,-5.0956,-0.7026,
0.686693,0.2742,-0.1875,1.4766,0.9106,-0.6226,4.9031,0.3877,-5.0993,-0.6684,
0.691972,0.4016,-0.1769,0.9784,0.9106,-0.6226,4.9031,0.3877,-5.0993,-0.6684,
0.693124,0.4016,-0.1769,0.9784,0.2631,-0.1159,0.6410,0.3877,-5.0993,-0.6684,
0.696851,0.4016,-0.1769,0.9784,0.2631,-0.1159,0.6410,0.3260,-4.7780,-0.6379,
0.706774,0.4016,-0.1769,0.9784,0.2631,-0.1159,0.6410,0.2411,-4.2697,-0.7063,
0.711952,0.6648,-0.1840,0.7081,0.2631,-0.1159,0.6410,0.2411,-4.2697,-0.7063,
0.713025,0.6648,-0.1840,0.7081,-0.0801,0.0222,-0.0853,0.2411,-4.2697,-0.7063,
0.716792,0.6648,-0.1840,0.7081,-0.0801,0.0222,-0.0853,0.1764,-3.5227,-0.8718,
0.726821,0.6648,-0.1840,0.7081,-0.0801,0.0222,-0.0853,0.0921,-2.5379,-1.0160,
0.732087,0.6457,-0.0734,0.7553,-0.0801,0.0222,-0.0853,0.0921,-2.5379,-1.0160,
0.733090,0.6457,-0.0734,0.7553,-0.0273,0.0031,-0.0320,0.0921,-2.5379,-1.0160,
0.736835,0.6457,-0.0734,0.7553,-0.0273,0.0031,-0.0320,-0.0020,-1.6106,-1.0936,
0.746808,0.6457,-0.0734,0.7553,-0.0273,0.0031,-0.0320,-0.0991,-1.0603,-1.1339,
0.753324,0.6957,-0.2272,0.7283,-0.0273,0.0031,-0.0320,-0.0991,-1.0603,-1.1339,
0.754539,0.6957,-0.2272,0.7283,0.2098,-0.0685,0.2196,-0.0991,-1.0603,-1.1339,
0.756800,0.6957,-0.2272,0.7283,0.2098,-0.0685,0.2196,-0.2867,-0.8935,-1.1742,
0.766714,0.6957,-0.2272,0.7283,0.2098,-0.0685,0.2196,-0.5017,-1.0395,-1.2714,
0.772205,0.7881,-0.3790,0.8675,0.2098,-0.0685,0.2196,-0.5017,-1.0395,-1.2714,
0.773284,0.7881,-0.3790,0.8675,1.4494,-0.6971,1.5954,-0.5017,-1.0395,-1.2714,
0.776815,0.7881,-0.3790,0.8675,1.4494,-0.6971,1.5954,-0.6703,-1.3455,-1.4546,
0.786783,0.7881,-0.3790,0.8675,1.4494,-0.6971,1.5954,-0.7063,-1.4390,-1.6892,
0.791886,0.6770,-0.3652,0.9376,1.4494,-0.6971,1.5954,-0.7063,-1.4390,-1.6892,
0.793047,0.6770,-0.3652,0.9376,1.1603,-0.6260,1.6071,-0.7063,-1.4390,-1.6892,
0.796786,0.6770,-0.3652,0.9376,1.1603,-0.6260,1.6071,-0.5127,-0.9699,-2.0307,
0.806794,0.6770,-0.3652,0.9376,1.1603,-0.6260,1.6071,-0.3985,-0.7622,-2.0129,
0.811942,0.4132,-0.2603,1.0040,1.1603,-0.6260,1.6071,-0.3985,-0.7622,-2.0129,
0.813088,0.4132,-0.2603,1.0040,0.4200,-0.2646,1.0204,-0.3985,-0.7622,-2.0129,
0.816761,0.4132,-0.2603,1.0040,0.4200,-0.2646,1.0204,-0.2848,-0.7127,-1.8749,
0.826827,0.4132,-0.2603,1.0040,0.4200,-0.2646,1.0204,-0.1865,-0.8031,-1.6568,
0.832086,0.3318,-0.2414,1.0578,0.4200,-0.2646,1.0204,-0.1865,-0.8031,-1.6568,
0.833100,0.3318,-0.2414,1.0578,0.3838,-0.2792,1.2238,-0.1865,-0.8031,-1.6568,
0.836855,0.3318,-0.2414,1.0578,0.3838,-0.2792,1.2238,-0.1297,-1.0041,-1.4815,
0.846712,0.3318,-0.2414,1.0578,0.3838,-0.2792,1.2238,-0.0753,-1.1904,-1.3856,
0.853379,0.4234,-0.3816,1.0330,0.3838,-0.2792,1.2238,-0.0753,-1.1904,-1.3856,
0.854599,0.4234,-0.3816,1.0330,0.6301,-0.5679,1.5375,-0.0753,-1.1904,-1.3856,
0.856729,0.4234,-0.3816,1.0330,0.6301,-0.5679,1.5375,0.0297,-1.2912,-1.4002,
0.866727,0.4234,-0.3816,1.0330,0.6301,-0.5679,1.5375,0.1654,-1.2710,-1.4558,
0.872107,0.3812,-0.3988,0.9732,0.6301,-0.5679,1.5375,0.1654,-1.2710,-1.4558,
0.873363,0.3812,-0.3988,0.9732,0.3942,-0.4124,1.0063,0.1654,-1.2710,-1.4558,
0.876834,0.3812,-0.3988,0.9732,0.3942,-0.4124,1.0063,0.3596,-1.1983,-1.4601,
0.887119,0.3812,-0.3988,0.9732,0.3942,-0.4124,1.0063,0.6113,-1.2680,-1.3947,
0.891956,0.2447,-0.3342,0.3332,0.3942,-0.4124,1.0063,0.6113,-1.2680,-1.3947,
0.893026,0.2447,-0.3342,0.3332,-2.1157,2.8900,-2.8815,0.6113,-1.2680,-1.3947,
0.896806,0.2447,-0.3342,0.3332,-2.1157,2.8900,-2.8815,0.8495,-1.5514,-1.2329,
0.906784,0.2447,-0.3342,0.3332,-2.1157,2.8900,-2.8815,0.4225,-1.2423,-1.0417,
0.911961,0.6896,0.2446,1.4340,-2.1157,2.8900,-2.8815,0.4225,-1.2423,-1.0417,
0.913150,0.6896,0.2446,1.4340,2.5570,0.9069,5.3174,0.4225,-1.2423,-1.0417,
0.916710,0.6896,0.2446,1.4340,2.5570,0.9069,5.3174,0.0847,-1.5306,-0.9354,
0.926771,0.6896,0.2446,1.4340,2.5570,0.9069,5.3174,0.4274,-1.7096,-0.8841,
0.931951,0.9857,-0.1787,0.4434,2.5570,0.9069,5.3174,0.4274,-1.7096,-0.8841,
0.933056,0.9857,-0.1787,0.4434,0.8359,-0.1516,0.3760,0.4274,-1.7096,-0.8841,
0.936947,0.9857,-0.1787,0.4434,0.8359,-0.1516,0.3760,0.5465,-1.0725,-0.7686,
0.946738,0.9857,-0.1787,0.4434,0.8359,-0.1516,0.3760,0.4097,-0.8843,-0.8755,
0.953748,0.9926,-0.1451,0.6319,0.8359,-0.1516,0.3760,0.4097,-0.8843,-0.8755,
0.954881,0.9926,-0.1451,0.6319,1.5172,-0.2218,0.9659,0.4097,-0.8843,-0.8755,
0.956802,0.9926,-0.1451,0.6319,1.5172,-0.2218,0.9659,0.2912,-1.2075,-1.0032,
0.966759,0.9926,-0.1451,0.6319,1.5172,-0.2218,0.9659,0.3248,-1.1995,-1.1504,
0.972092,0.8948,-0.0943,0.0588,1.5172,-0.2218,0.9659,0.3248,-1.1995,-1.1504,
0.973234,0.8948,-0.0943,0.0588,-0.9631,0.1015,-0.0632,0.3248,-1.1995,-1.1504,
0.976865,0.8948,-0.0943,0.0588,-0.9631,0.1015,-0.0632,-0.2329,-1.2942,-1.3141,
0.986891,0.8948,-0.0943,0.0588,-0.9631,0.1015,-0.0632,-0.6153,-1.0676,-1.3483,
0.991911,0.8782,-0.0895,0.0322,-0.9631,0.1015,-0.0632,-0.6153,-1.0676,-1.3483,
0.993200,0.8782,-0.0895,0.0322,-1.1436,0.1166,-0.0420,-0.6153,-1.0676,-1.3483,
0.996789,0.8782,-0.0895,0.0322,-1.1436,0.1166,-0.0420,-0.8731,-0.7292,-1.3300,
1.006751,0.8782,-0.0895,0.0322,-1.1436,0.1166,-0.0420,-1.1010,-0.5545,-1.2958,
1.011970,0.7663,-0.3003,0.2460,-1.1436,0.1166,-0.0420,-1.1010,-0.5545,-1.2958,
1.013247,0.7663,-0.3003,0.2460,-1.2388,0.4854,-0.3977,-1.1010,-0.5545,-1.2958,
1.016755,0.7663,-0.3003,0.2460,-1.2388,0.4854,-0.3977,-1.1834,-0.4781,-1.2457,
1.026746,0.7663,-0.3003,0.2460,-1.2388,0.4854,-0.3977,-0.9690,-0.5190,-1.2585,
1.031956,0.8201,-0.4649,1.0486,-1.2388,0.4854,-0.3977,-0.9690,-0.5190,-1.2585,
1.033153,0.8201,-0.4649,1.0486,2.3334,-1.3228,2.9834,-0.9690,-0.5190,-1.2585,
1.036952,0.8201,-0.4649,1.0486,2.3334,-1.3228,2.9834,-0.5793,-0.7389,-1.2787,
1.046741,0.8201,-0.4649,1.0486,2.3334,-1.3228,2.9834,-0.3814,-0.9753,-1.1504,
1.053756,0.5124,-0.3453,0.8593,2.3334,-1.3228,2.9834,-0.3814,-0.9753,-1.1504,
1.054810,0.5124,-0.3453,0.8593,0.2741,-0.1847,0.4597,-0.3814,-0.9753,-1.1504,
1.056805,0.5124,-0.3453,0.8593,0.2741,-0.1847,0.4597,-0.3490,-1.0089,-0.9061,
1.066889,0.5124,-0.3453,0.8593,0.2741,-0.1847,0.4597,-0.2622,-0.8458,-0.6012,
1.072106,0.5044,-0.2650,0.7556,0.2741,-0.1847,0.4597,-0.2622,-0.8458,-0.6012,
1.073358,0.5044,-0.2650,0.7556,-0.2838,0.1491,-0.4251,-0.2622,-0.8458,-0.6012,
1.076784,0.5044,-0.2650,0.7556,-0.2838,0.1491,-0.4251,-0.1633,-0.7121,-0.2671,
1.087159,0.5044,-0.2650,0.7556,-0.2838,0.1491,-0.4251,-0.2005,-0.6956,0.0640,
1.091896,0.6180,-0.2735,0.5493,-0.2838,0.1491,-0.4251,-0.2005,-0.6956,0.0640,
1.093080,0.6180,-0.2735,0.5493,0.7092,0.0843,-2.3586,-0.2005,-0.6956,0.0640,
1.096805,0.6180,-0.2735,0.5493,0.7092,0.0843,-2.3586,-0.3557,-0.7151,0.3444,
1.106738,0.6180,-0.2735,0.5493,0.7092,0.0843,-2.3586,-0.5322,-0.7438,0.6101,
1.111927,0.5653,-0.3022,0.4698,0.7092,0.0843,-2.3586,-0.5322,-0.7438,0.6101,
1.113068,0.5653,-0.3022,0.4698,0.0941,-0.0728,-3.0226,-0.5322,-0.7438,0.6101,
1.116797,0.5653,-0.3022,0.4698,0.0941,-0.0728,-3.0226,-0.7155,-0.6724,0.9436,
1.126726,0.5653,-0.3022,0.4698,0.0941,-0.0728,-3.0226,-0.8652,-0.4427,1.2723,
1.131939,1.0582,-0.3861,0.5894,0.0941,-0.0728,-3.0226,-0.8652,-0.4427,1.2723,
1.133125,1.0582,-0.3861,0.5894,4.8457,-0.6542,-1.6974,-0.8652,-0.4427,1.2723,
1.137274,1.0582,-0.3861,0.5894,4.8457,-0.6542,-1.6974,-0.9287,0.0289,1.4415,
1.146712,1.0582,-0.3861,0.5894,4.8457,-0.6542,-1.6974,-0.8218,0.2537,1.4922,
1.152165,1.4187,-0.5899,0.2100,4.8457,-0.6542,-1.6974,-0.8218,0.2537,1.4922,
1.153306,1.4187,-0.5899,0.2100,8.3756,-2.3488,-5.2796,-0.8218,0.2537,1.4922,
1.156809,1.4187,-0.5899,0.2100,8.3756,-2.3488,-5.2796,-0.8829,-0.0511,1.5386,
1.166718,1.4187,-0.5899,0.2100,8.3756,-2.3488,-5.2796,-1.1071,0.2812,1.0793,
1.172091,1.6927,-0.6859,0.3944,8.3756,-2.3488,-5.2796,-1.1071,0.2812,1.0793,
1.173528,1.6927,-0.6859,0.3944,11.0234,-2.9913,-3.2961,-1.1071,0.2812,1.0793,
1.176806,1.6927,-0.6859,0.3944,11.0234,-2.9913,-3.2961,-1.0698,0.3209,0.6358,
1.187336,1.6927,-0.6859,0.3944,11.0234,-2.9913,-3.2961,-0.8401,0.0680,0.2173,
1.191955,1.2208,-0.5733,0.7262,11.0234,-2.9913,-3.2961,-0.8401,0.0680,0.2173,
1.193063,1.2208,-0.5733,0.7262,6.3282,-1.7032,0.1107,-0.8401,0.0680,0.2173,
1.196846,1.2208,-0.5733,0.7262,6.3282,-1.7032,0.1107,-0.4742,-0.2136,0.0359,
1.206858,1.2208,-0.5733,0.7262,6.3282,-1.7032,0.1107,-0.2586,-0.7139,0.2277,
1.211883,0.3506,-0.3382,0.6386,6.3282,-1.7032,0.1107,-0.2586,-0.7139,0.2277,
1.212997,0.3506,-0.3382,0.6386,-2.3451,0.6648,-0.5910,-0.2586,-0.7139,0.2277,
1.216832,0.3506,-0.3382,0.6386,-2.3451,0.6648,-0.5910,-0.2488,-1.4030,0.6229,
1.226802,0.3506,-0.3382,0.6386,-2.3451,0.6648,-0.5910,-0.2934,-1.9375,1.0634,
1.231932,0.1567,-0.3454,0.4710,-2.3451,0.6648,-0.5910,-0.2934,-1.9375,1.0634,
1.233111,0.1567,-0.3454,0.4710,-4.4487,0.7346,-1.9704,-0.2934,-1.9375,1.0634,
1.237237,0.1567,-0.3454,0.4710,-4.4487,0.7346,-1.9704,-0.2622,-2.1488,1.5081,
1.246760,0.1567,-0.3454,0.4710,-4.4487,0.7346,-1.9704,-0.0576,-1.9393,1.8612,
1.252119,0.6871,-0.7333,0.2662,-4.4487,0.7346,-1.9704,-0.0576,-1.9393,1.8612,
1.253303,0.6871,-0.7333,0.2662,0.5864,-2.8091,-3.6543,-0.0576,-1.9393,1.8612,
1.257049,0.6871,-0.7333,0.2662,0.5864,-2.8091,-3.6543,0.2979,-1.5099,2.0371,
1.266822,0.6871,-0.7333,0.2662,0.5864,-2.8091,-3.6543,0.6742,-1.1849,1.9723,
1.272110,0.9434,-0.7014,-0.0134,0.5864,-2.8091,-3.6543,0.6742,-1.1849,1.9723,
1.273423,0.9434,-0.7014,-0.0134,3.0425,-2.2647,-6.1693,0.6742,-1.1849,1.9723,
1.276734,0.9434,-0.7014,-0.0134,3.0425,-2.2647,-6.1693,0.9015,-1.0957,1.7121,
1.287284,0.9434,-0.7014,-0.0134,3.0425,-2.2647,-6.1693,0.8508,-1.0572,1.3352,
1.292059,0.8181,-0.5300,-0.2513,3.0425,-2.2647,-6.1693,0.8508,-1.0572,1.3352,
1.293081,0.8181,-0.5300,-0.2513,1.7296,-0.4456,-8.3010,0.8508,-1.0572,1.3352,
1.296800,0.8181,-0.5300,-0.2513,1.7296,-0.4456,-8.3010,0.4085,-0.8807,1.0108,
1.306810,0.8181,-0.5300,-0.2513,1.7296,-0.4456,-8.3010,-0.2958,-0.7102,0.8954,
1.311914,0.6809,-0.7657,0.0344,1.7296,-0.4456,-8.3010,-0.2958,-0.7102,0.8954,
1.312962,0.6809,-0.7657,0.0344,0.3035,-2.5679,-5.2521,-0.2958,-0.7102,0.8954,
1.316781,0.6809,-0.7657,0.0344,0.3035,-2.5679,-5.2521,-0.9770,-0.7860,0.9821,
1.326888,0.6809,-0.7657,0.0344,0.3035,-2.5679,-5.2521,-1.3905,-1.0218,1.2723,
1.331955,0.7239,-0.9449,0.6369,0.3035,-2.5679,-5.2521,-1.3905,-1.0218,1.2723,
1.333101,0.7239,-0.9449,0.6369,0.7052,-3.9888,0.9907,-1.3905,-1.0218,1.2723,
1.337587,0.7239,-0.9449,0.6369,0.7052,-3.9888,0.9907,-1.4834,-1.3052,1.8447,
1.346666,0.7239,-0.9449,0.6369,0.7052,-3.9888,0.9907,-0.5445,-1.3639,3.1226,
1.352356,0.8524,-0.7014,0.5417,0.7052,-3.9888,0.9907,-0.5445,-1.3639,3.1226,
1.353483,0.8524,-0.7014,0.5417,2.0695,-1.1576,0.4092,-0.5445,-1.3639,3.1226,
1.356884,0.8524,-0.7014,0.5417,2.0695,-1.1576,0.4092,-0.0332,-1.3217,3.2600,
1.366762,0.8524,-0.7014,0.5417,2.0695,-1.1576,0.4092,0.2381,-1.5544,3.0640,
1.372131,0.7644,-0.5155,-0.0104,2.0695,-1.1576,0.4092,0.2381,-1.5544,3.0640,
1.373330,0.7644,-0.5155,-0.0104,1.3850,1.0558,-4.7471,0.2381,-1.5544,3.0640,
1.376884,0.7644,-0.5155,-0.0104,1.3850,1.0558,-4.7471,0.2509,-1.9711,2.7365,
1.387652,0.7644,-0.5155,-0.0104,1.3850,1.0558,-4.7471,0.0016,-2.0065,2.5643,
1.392005,0.5465,-0.6764,-0.1699,1.3850,1.0558,-4.7471,0.0016,-2.0065,2.5643,
1.393133,0.5465,-0.6764,-0.1699,-0.6603,-0.1917,-5.9718,0.0016,-2.0065,2.5643,
1.396734,0.5465,-0.6764,-0.1699,-0.6603,-0.1917,-5.9718,-0.3429,-1.8098,2.5942,
1.406849,0.5465,-0.6764,-0.1699,-0.6603,-0.1917,-5.9718,-0.6984,-1.8135,2.6254,
1.412001,0.5200,-0.7610,-0.1829,-0.6603,-0.1917,-5.9718,-0.6984,-1.8135,2.6254,
1.413123,0.5200,-0.7610,-0.1829,-0.7810,-0.6388,-5.6818,-0.6984,-1.8135,2.6254,
1.416754,0.5200,-0.7610,-0.1829,-0.7810,-0.6388,-5.6818,-0.9623,-1.8807,2.7029,
1.426778,0.5200,-0.7610,-0.1829,-0.7810,-0.6388,-5.6818,-1.0521,-1.6064,2.7811,
1.432581,0.6099,-0.8206,0.2294,-0.7810,-0.6388,-5.6818,-1.0521,-1.6064,2.7811,
1.434467,0.6099,-0.8206,0.2294,0.3110,-0.8195,-1.2014,-1.0521,-1.6064,2.7811,
1.438620,0.6099,-0.8206,0.2294,0.3110,-0.8195,-1.2014,-0.9641,-1.1922,2.7078,
1.446652,0.6099,-0.8206,0.2294,0.3110,-0.8195,-1.2014,-0.8169,-0.8758,2.5698,
1.452190,0.7479,-0.7219,-0.0326,0.3110,-0.8195,-1.2014,-0.8169,-0.8758,2.5698,
1.453311,0.7479,-0.7219,-0.0326,1.9231,0.4950,-3.4236,-0.8169,-0.8758,2.5698,
1.456828,0.7479,-0.7219,-0.0326,1.9231,0.4950,-3.4236,-0.6856,-0.8538,2.4042,
1.466667,0.7479,-0.7219,-0.0326,1.9231,0.4950,-3.4236,-0.6721,-0.9381,2.0762,
1.472096,0.7573,-0.6734,-0.1929,1.9231,0.4950,-3.4236,-0.6721,-0.9381,2.0762,
1.473309,0.7573,-0.6734,-0.1929,2.2215,1.2318,-4.6821,-0.6721,-0.9381,2.0762,
1.476734,0.7573,-0.6734,-0.1929,2.2215,1.2318,-4.6821,-0.7021,-1.1482,1.6327,
1.487602,0.7573,-0.6734,-0.1929,2.2215,1.2318,-4.6821,-0.7106,-1.4408,1.1526,
1.491967,0.6236,-0.7813,-0.0235,2.2215,1.2318,-4.6821,-0.7106,-1.4408,1.1526,
1.493079,0.6236,-0.7813,-0.0235,0.9860,0.3387,-2.6745,-0.7106,-1.4408,1.1526,
1.496737,0.6236,-0.7813,-0.0235,0.9860,0.3387,-2.6745,-0.7045,-1.7365,0.7017,
1.506851,0.6236,-0.7813,-0.0235,0.9860,0.3387,-2.6745,-0.7082,-1.6827,0.4446,
1.511972,0.5509,-0.9736,0.2377,0.9860,0.3387,-2.6745,-0.7082,-1.6827,0.4446,
1.513027,0.5509,-0.9736,0.2377,0.2416,-1.4666,0.2373,-0.7082,-1.6827,0.4446,
1.516754,0.5509,-0.9736,0.2377,0.2416,-1.4666,0.2373,-0.6275,-1.6522,0.4452,
1.526674,0.5509,-0.9736,0.2377,0.2416,-1.4666,0.2373,-0.4205,-1.7750,0.6535,
1.531891,0.5585,-1.2342,0.5006,0.2416,-1.4666,0.2373,-0.4205,-1.7750,0.6535,
1.533213,0.5585,-1.2342,0.5006,0.3341,-3.9457,3.0779,-0.4205,-1.7750,0.6535,
1.537574,0.5585,-1.2342,0.5006,0.3341,-3.9457,3.0779,-0.1480,-0.9546,2.1086,
1.546618,0.5585,-1.2342,0.5006,0.3341,-3.9457,3.0779,-0.1315,-1.0212,3.1171,
1.552448,0.6677,-1.0674,0.1064,0.3341,-3.9457,3.0779,-0.1315,-1.0212,3.1171,
1.553653,0.6677,-1.0674,0.1064,1.7892,-2.0531,-0.6567,-0.1315,-1.0212,3.1171,
1.556767,0.6677,-1.0674,0.1064,1.7892,-2.0531,-0.6567,-0.0723,-1.4268,4.1140,
1.566680,0.6677,-1.0674,0.1064,1.7892,-2.0531,-0.6567,0.1354,-2.1470,5.1317,
1.572001,0.7570,-0.9864,-0.1826,1.7892,-2.0531,-0.6567,0.1354,-2.1470,5.1317,
1.573414,0.7570,-0.9864,-0.1826,3.3391,-0.8773,-3.2990,0.1354,-2.1470,5.1317,
1.576810,0.7570,-0.9864,-0.1826,3.3391,-0.8773,-3.2990,0.4348,-3.1232,6.2136,
1.587942,0.7570,-0.9864,-0.1826,3.3391,-0.8773,-3.2990,0.7353,-3.7786,7.0853,
1.591943,0.5569,-0.7442,-0.0831,3.3391,-0.8773,-3.2990,0.7353,-3.7786,7.0853,
1.593324,0.5569,-0.7442,-0.0831,2.3654,1.9184,-2.1420,0.7353,-3.7786,7.0853,
1.596711,0.5569,-0.7442,-0.0831,2.3654,1.9184,-2.1420,0.8801,-3.8861,7.4830,
1.606946,0.5569,-0.7442,-0.0831,2.3654,1.9184,-2.1420,0.6046,-2.9814,7.1537,
1.611888,0.3568,-0.3231,0.1413,2.3654,1.9184,-2.1420,0.6046,-2.9814,7.1537,
1.612959,0.3568,-0.3231,0.1413,1.5146,6.3532,0.1124,0.6046,-2.9814,7.1537,
1.616756,0.3568,-0.3231,0.1413,1.5146,6.3532,0.1124,-0.0546,-1.2319,6.0535,
1.626711,0.3568,-0.3231,0.1413,1.5146,6.3532,0.1124,-0.6257,0.6899,4.6137,
1.631947,0.3073,-0.4675,0.1197,1.5146,6.3532,0.1124,-0.6257,0.6899,4.6137,
1.633097,0.3073,-0.4675,0.1197,1.8413,5.0826,-0.0142,-0.6257,0.6899,4.6137,
1.637987,0.3073,-0.4675,0.1197,1.8413,5.0826,-0.0142,-0.8022,2.1718,3.2356,
1.646715,0.3073,-0.4675,0.1197,1.8413,5.0826,-0.0142,-0.7192,2.6471,2.0701,
1.651917,0.1175,-0.8221,-0.0591,1.8413,5.0826,-0.0142,-0.7192,2.6471,2.0701,
1.653143,0.1175,-0.8221,-0.0591,0.3808,1.6623,-1.6380,-0.7192,2.6471,2.0701,
1.656772,0.1175,-0.8221,-0.0591,0.3808,1.6623,-1.6380,-0.5903,2.1785,1.1422,
1.666730,0.1175,-0.8221,-0.0591,0.3808,1.6623,-1.6380,-0.5445,1.2195,0.4470,
1.671934,0.0618,-1.0934,-0.1151,0.3808,1.6623,-1.6380,-0.5445,1.2195,0.4470,
1.673275,0.0618,-1.0934,-0.1151,-0.0899,-0.9778,-2.0591,-0.5445,1.2195,0.4470,
1.676663,0.0618,-1.0934,-0.1151,-0.0899,-0.9778,-2.0591,-0.5597,0.2226,-0.0429,
1.688093,0.0618,-1.0934,-0.1151,-0.0899,-0.9778,-2.0591,-0.5952,-0.4482,-0.3221,
1.691907,0.1049,-1.1354,-0.0352,-0.0899,-0.9778,-2.0591,-0.5952,-0.4482,-0.3221,
1.692934,0.1049,-1.1354,-0.0352,0.2204,-1.3849,-1.1245,-0.5952,-0.4482,-0.3221,
1.696772,0.1049,-1.1354,-0.0352,0.2204,-1.3849,-1.1245,-0.6550,-0.7017,-0.4326,
1.707010,0.1049,-1.1354,-0.0352,0.2204,-1.3849,-1.1245,-0.7363,-0.6449,-0.4620,
1.711933,0.2625,-1.1032,0.0922,0.2204,-1.3849,-1.1245,-0.7363,-0.6449,-0.4620,
1.713009,0.2625,-1.1032,0.0922,1.6055,-1.0715,0.2897,-0.7363,-0.6449,-0.4620,
1.716763,0.2625,-1.1032,0.0922,1.6055,-1.0715,0.2897,-0.7796,-0.0957,-0.5463,
1.726728,0.2625,-1.1032,0.0922,1.6055,-1.0715,0.2897,-0.7027,0.1963,-0.6202,
1.731997,0.3255,-1.0373,0.1055,1.6055,-1.0715,0.2897,-0.7027,0.1963,-0.6202,
1.733091,0.3255,-1.0373,0.1055,2.0531,-0.4366,0.5657,-0.7027,0.1963,-0.6202,
1.737929,0.3255,-1.0373,0.1055,2.0531,-0.4366,0.5657,-0.5884,0.3918,-0.7277,
1.746686,0.3255,-1.0373,0.1055,2.0531,-0.4366,0.5657,-0.4583,0.4339,-0.8456,
1.752176,0.3511,-0.9356,0.0276,2.0531,-0.4366,0.5657,-0.4583,0.4339,-0.8456,
1.753309,0.3511,-0.9356,0.0276,2.0949,0.5380,-0.1057,-0.4583,0.4339,-0.8456,
1.756955,0.3511,-0.9356,0.0276,2.0949,0.5380,-0.1057,-0.3203,0.3569,-0.9665,
1.766852,0.3511,-0.9356,0.0276,2.0949,0.5380,-0.1057,-0.1608,0.2360,-1.0905,
1.772101,0.3560,-0.8060,-0.1435,2.0949,0.5380,-0.1057,-0.1608,0.2360,-1.0905,
1.773545,0.3560,-0.8060,-0.1435,1.8818,1.7704,-1.7264,-0.1608,0.2360,-1.0905,
1.776779,0.3560,-0.8060,-0.1435,1.8818,1.7704,-1.7264,0.0078,0.1071,-1.1993,
1.788230,0.3560,-0.8060,-0.1435,1.8818,1.7704,-1.7264,0.1580,0.0057,-1.2597,
1.792002,0.1731,-0.8921,-0.2963,1.8818,1.7704,-1.7264,0.1580,0.0057,-1.2597,
1.793102,0.1731,-0.8921,-0.2963,-0.1837,0.8780,-3.1944,0.1580,0.0057,-1.2597,
1.796820,0.1731,-0.8921,-0.2963,-0.1837,0.8780,-3.1944,0.1916,-0.3095,-1.2707,
1.806944,0.1731,-0.8921,-0.2963,-0.1837,0.8780,-3.1944,-0.0216,-0.8959,-1.3153,
1.812118,0.2882,-1.2411,-0.2496,-0.1837,0.8780,-3.1944,-0.0216,-0.8959,-1.3153,
1.813227,0.2882,-1.2411,-0.2496,0.6736,-2.5972,-2.6696,-0.0216,-0.8959,-1.3153,
1.816796,0.2882,-1.2411,-0.2496,0.6736,-2.5972,-2.6696,-0.3649,-1.4976,-1.4400,
1.826684,0.2882,-1.2411,-0.2496,0.6736,-2.5972,-2.6696,-0.6172,-2.0401,-1.6250,
1.831929,0.3042,-1.4038,0.3657,0.6736,-2.5972,-2.6696,-0.6172,-2.0401,-1.6250,
1.833300,0.3042,-1.4038,0.3657,0.5339,-4.2607,3.5353,-0.6172,-2.0401,-1.6250,
1.838182,0.3042,-1.4038,0.3657,0.5339,-4.2607,3.5353,-0.6117,-2.4445,-1.8144,
1.846633,0.3042,-1.4038,0.3657,0.5339,-4.2607,3.5353,-0.2311,-2.5605,-1.9696,
1.851981,0.3174,-1.3699,0.6186,0.5339,-4.2607,3.5353,-0.2311,-2.5605,-1.9696,
1.853431,0.3174,-1.3699,0.6186,0.3253,-4.0231,6.1666,-0.2311,-2.5605,-1.9696,
1.856829,0.3174,-1.3699,0.6186,0.3253,-4.0231,6.1666,0.4470,-2.1433,-2.0142,
1.866951,0.3174,-1.3699,0.6186,0.3253,-4.0231,6.1666,1.0291,-1.2948,-1.9378,
1.871919,0.5513,-1.2383,-0.1502,0.3253,-4.0231,6.1666,1.0291,-1.2948,-1.9378,
1.873320,0.5513,-1.2383,-0.1502,2.2573,-2.8466,-1.4191,1.0291,-1.2948,-1.9378,
1.876747,0.5513,-1.2383,-0.1502,2.2573,-2.8466,-1.4191,1.2808,-0.3437,-1.8364,
1.888093,0.5513,-1.2383,-0.1502,2.2573,-2.8466,-1.4191,1.2197,0.4767,-1.8315,
1.891915,0.8804,-1.1842,-0.1405,2.2573,-2.8466,-1.4191,1.2197,0.4767,-1.8315,
1.893151,0.8804,-1.1842,-0.1405,5.1401,-2.4409,-1.5594,1.2197,0.4767,-1.8315,
1.896681,0.8804,-1.1842,-0.1405,5.1401,-2.4409,-1.5594,1.0053,0.8835,-2.0227,
1.906972,0.8804,-1.1842,-0.1405,5.1401,-2.4409,-1.5594,0.7304,0.7754,-2.0630,
1.911887,0.7525,-1.0962,0.0955,5.1401,-2.4409,-1.5594,0.7304,0.7754,-2.0630,
1.912961,0.7525,-1.0962,0.0955,3.5134,-1.7370,0.5362,0.7304,0.7754,-2.0630,
1.916864,0.7525,-1.0962,0.0955,3.5134,-1.7370,0.5362,0.9583,0.8493,-1.9256,
1.926855,0.7525,-1.0962,0.0955,3.5134,-1.7370,0.5362,1.5215,0.9269,-1.4858,
1.931887,0.2397,-1.0800,0.3654,3.5134,-1.7370,0.5362,1.5215,0.9269,-1.4858,
1.932972,0.2397,-1.0800,0.3654,-1.8011,-1.7256,2.8839,1.5215,0.9269,-1.4858,
1.938003,0.2397,-1.0800,0.3654,-1.8011,-1.7256,2.8839,2.0364,0.9648,-0.9122,
1.946723,0.2397,-1.0800,0.3654,-1.8011,-1.7256,2.8839,2.2197,0.7778,-0.6391,
1.951943,0.2825,-1.1137,-0.1427,-1.8011,-1.7256,2.8839,2.2197,0.7778,-0.6391,
1.953258,0.2825,-1.1137,-0.1427,-1.4795,-2.1473,-2.5244,2.2197,0.7778,-0.6391,
1.956787,0.2825,-1.1137,-0.1427,-1.4795,-2.1473,-2.5244,2.1317,0.4180,-0.6544,
1.966839,0.2825,-1.1137,-0.1427,-1.4795,-2.1473,-2.5244,1.6339,-1.7768,-0.8969,
1.972104,0.6761,-0.9728,-1.2357,-1.4795,-2.1473,-2.5244,1.6339,-1.7768,-0.8969,
1.973383,0.6761,-0.9728,-1.2357,2.2300,-0.8564,-13.3546,1.6339,-1.7768,-0.8969,
1.976820,0.6761,-0.9728,-1.2357,2.2300,-0.8564,-13.3546,1.5661,-5.3320,-1.1663,
1.995790,0.6761,-0.9728,-1.2357,2.2300,-0.8564,-13.3546,2.7536,-6.2746,-1.1009,
1.997665,-0.0459,-1.5009,0.3590,2.2300,-0.8564,-13.3546,2.7536,-6.2746,-1.1009,
1.999188,-0.0459,-1.5009,0.3590,-5.1021,-6.1346,2.5120,2.7536,-6.2746,-1.1009,
2.000269,-0.0459,-1.5009,0.3590,-5.1021,-6.1346,2.5120,3.6968,-5.8085,-1.0264,
2.011838,-0.0459,-1.5009,0.3590,-5.1021,-6.1346,2.5120,4.1030,-4.1714,-0.8358,
2.013187,0.1080,-1.4235,0.1860,-5.1021,-6.1346,2.5120,4.1030,-4.1714,-0.8358,
2.014316,0.1080,-1.4235,0.1860,-3.7559,-5.4818,0.6888,4.1030,-4.1714,-0.8358,
2.016706,0.1080,-1.4235,0.1860,-3.7559,-5.4818,0.6888,4.0150,-1.9717,-0.5682,
2.026839,0.1080,-1.4235,0.1860,-3.7559,-5.4818,0.6888,3.2478,-0.8746,-0.4815,
2.031906,0.0880,-1.2055,0.2094,-3.7559,-5.4818,0.6888,3.2478,-0.8746,-0.4815,
2.032979,0.0880,-1.2055,0.2094,-3.9626,-3.4192,0.4970,3.2478,-0.8746,-0.4815,
2.038261,0.0880,-1.2055,0.2094,-3.9626,-3.4192,0.4970,2.1476,-1.0389,-0.5737,
2.046704,0.0880,-1.2055,0.2094,-3.9626,-3.4192,0.4970,1.6052,-1.0499,-0.6605,
2.051937,0.0624,-0.9637,0.2132,-3.9626,-3.4192,0.4970,1.6052,-1.0499,-0.6605,
2.053185,0.0624,-0.9637,0.2132,-4.2250,-1.0896,0.3623,1.6052,-1.0499,-0.6605,
2.056878,0.0624,-0.9637,0.2132,-4.2250,-1.0896,0.3623,1.5948,-0.7579,-0.7204,
2.066976,0.0624,-0.9637,0.2132,-4.2250,-1.0896,0.3623,1.7060,-0.5196,-0.7619,
2.072451,0.0562,-0.9407,0.0934,-4.2250,-1.0896,0.3623,1.7060,-0.5196,-0.7619,
2.073743,0.0562,-0.9407,0.0934,-4.2991,-0.9089,-0.9801,1.7060,-0.5196,-0.7619,
2.076710,0.0562,-0.9407,0.0934,-4.2991,-0.9089,-0.9801,1.7835,-0.3651,-0.7839,
2.086770,0.0562,-0.9407,0.0934,-4.2991,-0.9089,-0.9801,1.7982,0.7650,-1.0557,
2.092290,0.3004,-0.8112,0.1495,-4.2991,-0.9089,-0.9801,1.7982,0.7650,-1.0557,
2.093448,0.3004,-0.8112,0.1495,-1.9316,0.2786,-0.7011,1.7982,0.7650,-1.0557,
2.096678,0.3004,-0.8112,0.1495,-1.9316,0.2786,-0.7011,1.8147,1.6569,-1.1877,
2.106830,0.3004,-0.8112,0.1495,-1.9316,0.2786,-0.7011,1.8031,2.2537,-1.1168,
2.111981,0.0557,-0.8845,-0.1115,-1.9316,0.2786,-0.7011,1.8031,2.2537,-1.1168,
2.113121,0.0557,-0.8845,-0.1115,-4.2998,-0.5396,-3.6650,1.8031,2.2537,-1.1168,
2.116787,0.0557,-0.8845,-0.1115,-4.2998,-0.5396,-3.6650,1.6351,2.0497,-0.8334,
2.126725,0.0557,-0.8845,-0.1115,-4.2998,-0.5396,-3.6650,1.3694,1.3795,-0.4986,
2.132087,0.0247,-0.9262,-0.0286,-4.2998,-0.5396,-3.6650,1.3694,1.3795,-0.4986,
2.133102,0.0247,-0.9262,-0.0286,-4.4885,-0.9840,-3.1623,1.3694,1.3795,-0.4986,
2.138372,0.0247,-0.9262,-0.0286,-4.4885,-0.9840,-3.1623,1.1317,0.7033,-0.1767,
2.146720,0.0247,-0.9262,-0.0286,-4.4885,-0.9840,-3.1623,0.9943,0.2409,0.1208,
2.151968,0.2265,-0.8473,0.1219,-4.4885,-0.9840,-3.1623,0.9943,0.2409,0.1208,
2.153247,0.2265,-0.8473,0.1219,-2.3757,-0.1775,-1.8102,0.9943,0.2409,0.1208,
2.156788,0.2265,-0.8473,0.1219,-2.3757,-0.1775,-1.8102,0.9112,0.1438,0.3780,
2.166720,0.2265,-0.8473,0.1219,-2.3757,-0.1775,-1.8102,0.8312,0.4211,0.5826,
2.172005,0.1400,-0.7374,0.1975,-2.3757,-0.1775,-1.8102,0.8312,0.4211,0.5826,
2.173235,0.1400,-0.7374,0.1975,-3.0229,0.9760,-1.1577,0.8312,0.4211,0.5826,
2.176791,0.1400,-0.7374,0.1975,-3.0229,0.9760,-1.1577,0.7555,1.0039,0.7072,
2.186791,0.1400,-0.7374,0.1975,-3.0229,0.9760,-1.1577,0.6663,1.7406,0.6938,
2.192317,0.0691,-0.5904,0.1708,-3.0229,0.9760,-1.1577,0.6663,1.7406,0.6938,
2.193509,0.0691,-0.5904,0.1708,-3.4149,2.5101,-1.5828,0.6663,1.7406,0.6938,
2.196726,0.0691,-0.5904,0.1708,-3.4149,2.5101,-1.5828,0.5789,2.3991,0.4519,
2.206793,0.0691,-0.5904,0.1708,-3.4149,2.5101,-1.5828,0.5374,2.7894,0.1300,
2.211892,-0.0035,-0.5618,0.1796,-3.4149,2.5101,-1.5828,0.5374,2.7894,0.1300,
2.212990,-0.0035,-0.5618,0.1796,-3.8023,2.8495,-1.7288,0.5374,2.7894,0.1300,
2.216682,-0.0035,-0.5618,0.1796,-3.8023,2.8495,-1.7288,0.5362,2.8792,-0.0570,
2.226732,-0.0035,-0.5618,0.1796,-3.8023,2.8495,-1.7288,0.5429,2.7809,-0.0881,
2.232091,0.0697,-0.5948,0.1940,-3.8023,2.8495,-1.7288,0.5429,2.7809,-0.0881,
2.233065,0.0697,-0.5948,0.1940,-2.7996,2.5487,-1.8216,0.5429,2.7809,-0.0881,
2.236876,0.0697,-0.5948,0.1940,-2.7996,2.5487,-1.8216,0.5392,2.5475,0.0310,
2.246755,0.0697,-0.5948,0.1940,-2.7996,2.5487,-1.8216,0.5337,2.1596,0.2051,
2.251960,0.0931,-0.5667,0.1910,-2.7996,2.5487,-1.8216,0.5337,2.1596,0.2051,
2.253170,0.0931,-0.5667,0.1910,-2.2926,2.8494,-2.0384,0.5337,2.1596,0.2051,
2.256785,0.0931,-0.5667,0.1910,-2.2926,2.8494,-2.0384,0.4800,1.7937,0.4171,
2.266839,0.0931,-0.5667,0.1910,-2.2926,2.8494,-2.0384,0.2539,1.1389,0.6804,
2.272083,0.1573,-0.5061,0.2045,-2.2926,2.8494,-2.0384,0.2539,1.1389,0.6804,
2.273259,0.1573,-0.5061,0.2045,-1.4004,3.4931,-2.0043,0.2539,1.1389,0.6804,
2.276735,0.1573,-0.5061,0.2045,-1.4004,3.4931,-2.0043,0.0829,0.8695,0.6407,
2.286889,0.1573,-0.5061,0.2045,-1.4004,3.4931,-2.0043,-0.1468,0.5879,0.5655,
2.292176,0.1590,-0.5502,0.2271,-1.4004,3.4931,-2.0043,-0.1468,0.5879,0.5655,
2.293283,0.1590,-0.5502,0.2271,-1.1876,3.1302,-1.7752,-0.1468,0.5879,0.5655,
2.296810,0.1590,-0.5502,0.2271,-1.1876,3.1302,-1.7752,-0.3954,0.2458,0.4885,
2.307009,0.1590,-0.5502,0.2271,-1.1876,3.1302,-1.7752,-0.6269,-0.0774,0.3719,
2.311928,0.3000,-0.5797,0.3496,-1.1876,3.1302,-1.7752,-0.6269,-0.0774,0.3719,
2.313117,0.3000,-0.5797,0.3496,0.2764,2.9083,-0.4843,-0.6269,-0.0774,0.3719,
2.316773,0.3000,-0.5797,0.3496,0.2764,2.9083,-0.4843,-0.7711,-0.3217,0.1721,
2.326720,0.3000,-0.5797,0.3496,0.2764,2.9083,-0.4843,-0.7906,-0.4696,-0.0374,
2.331989,0.3793,-0.7086,0.5170,0.2764,2.9083,-0.4843,-0.7906,-0.4696,-0.0374,
2.333144,0.3793,-0.7086,0.5170,1.0289,1.7041,1.3048,-0.7906,-0.4696,-0.0374,
2.336907,0.3793,-0.7086,0.5170,1.0289,1.7041,1.3048,-0.7326,-0.5404,-0.2201,
2.346685,0.3793,-0.7086,0.5170,1.0289,1.7041,1.3048,-0.6550,-0.5648,-0.3551,
2.351890,0.4576,-0.7681,0.7253,1.0289,1.7041,1.3048,-0.6550,-0.5648,-0.3551,
2.353222,0.4576,-0.7681,0.7253,1.6793,1.1248,3.4420,-0.6550,-0.5648,-0.3551,
2.356858,0.4576,-0.7681,0.7253,1.6793,1.1248,3.4420,-0.5762,-0.6314,-0.4076,
2.366770,0.4576,-0.7681,0.7253,1.6793,1.1248,3.4420,-0.4773,-0.7945,-0.3911,
2.372345,0.6667,-0.8578,0.9550,1.6793,1.1248,3.4420,-0.4773,-0.7945,-0.3911,
2.373601,0.6667,-0.8578,0.9550,3.5657,0.2098,5.7356,-0.4773,-0.7945,-0.3911,
2.376759,0.6667,-0.8578,0.9550,3.5657,0.2098,5.7356,-0.3325,-1.1330,-0.3441,
2.386873,0.6667,-0.8578,0.9550,3.5657,0.2098,5.7356,-0.1877,-1.5172,-0.3520,
2.392351,0.7729,-0.9836,1.1153,3.5657,0.2098,5.7356,-0.1877,-1.5172,-0.3520,
2.393533,0.7729,-0.9836,1.1153,4.4032,-1.0886,7.3230,-0.1877,-1.5172,-0.3520,
2.396783,0.7729,-0.9836,1.1153,4.4032,-1.0886,7.3230,-0.0955,-1.7359,-0.4723,
2.406861,0.7729,-0.9836,1.1153,4.4032,-1.0886,7.3230,0.0023,-1.4689,-0.6568,
2.411918,0.7550,-1.2716,1.1785,4.4032,-1.0886,7.3230,0.0023,-1.4689,-0.6568,
2.413097,0.7550,-1.2716,1.1785,3.9840,-4.0051,7.9453,0.0023,-1.4689,-0.6568,
2.416768,0.7550,-1.2716,1.1785,3.9840,-4.0051,7.9453,0.1476,-0.7200,-0.8700,
2.426700,0.7550,-1.2716,1.1785,3.9840,-4.0051,7.9453,0.2918,0.1535,-1.0875,
2.432080,0.6488,-1.2714,0.8673,3.9840,-4.0051,7.9453,0.2918,0.1535,-1.0875,
2.433033,0.6488,-1.2714,0.8673,2.7474,-4.1113,4.8329,0.2918,0.1535,-1.0875,
2.436904,0.6488,-1.2714,0.8673,2.7474,-4.1113,4.8329,0.3975,0.7039,-1.1657,
2.446775,0.6488,-1.2714,0.8673,2.7474,-4.1113,4.8329,0.5129,0.6746,-0.9775,
2.451971,0.2370,-0.9449,0.6321,2.7474,-4.1113,4.8329,0.5129,0.6746,-0.9775,
2.453077,0.2370,-0.9449,0.6321,-1.4104,-1.0596,2.3225,0.5129,0.6746,-0.9775,
2.456845,0.2370,-0.9449,0.6321,-1.4104,-1.0596,2.3225,0.5594,0.0760,-0.2573,
2.466791,0.2370,-0.9449,0.6321,-1.4104,-1.0596,2.3225,0.4079,-0.1586,-0.0906,
2.472211,-0.0260,-0.8067,0.4124,-1.4104,-1.0596,2.3225,0.4079,-0.1586,-0.0906,
2.473363,-0.0260,-0.8067,0.4124,-3.9843,0.2274,0.0269,0.4079,-0.1586,-0.0906,
2.476715,-0.0260,-0.8067,0.4124,-3.9843,0.2274,0.0269,0.2570,-0.7622,0.0811,
2.486971,-0.0260,-0.8067,0.4124,-3.9843,0.2274,0.0269,-0.0124,-1.3773,0.1929,
2.492202,-0.0161,-0.8624,0.3309,-3.9843,0.2274,0.0269,-0.0124,-1.3773,0.1929,
2.493305,-0.0161,-0.8624,0.3309,-3.8891,-0.3146,-0.7620,-0.0124,-1.3773,0.1929,
2.496751,-0.0161,-0.8624,0.3309,-3.8891,-0.3146,-0.7620,-0.3307,-1.7774,0.2680,
2.506839,-0.0161,-0.8624,0.3309,-3.8891,-0.3146,-0.7620,-0.4986,-2.3193,0.4269,
2.511940,0.0518,-1.1696,0.0694,-3.8891,-0.3146,-0.7620,-0.4986,-2.3193,0.4269,
2.512999,0.0518,-1.1696,0.0694,-3.2457,-3.2348,-3.1137,-0.4986,-2.3193,0.4269,
2.516810,0.0518,-1.1696,0.0694,-3.2457,-3.2348,-3.1137,-0.6416,-2.7664,0.5936,
2.526712,0.0518,-1.1696,0.0694,-3.2457,-3.2348,-3.1137,-0.8383,-2.8672,0.7164,
2.531926,0.2332,-1.4391,-0.3788,-3.2457,-3.2348,-3.1137,-0.8383,-2.8672,0.7164,
2.533064,0.2332,-1.4391,-0.3788,-1.4855,-5.7127,-7.1112,-0.8383,-2.8672,0.7164,
2.536746,0.2332,-1.4391,-0.3788,-1.4855,-5.7127,-7.1112,-0.9250,-2.8751,0.8184,
2.546800,0.2332,-1.4391,-0.3788,-1.4855,-5.7127,-7.1112,-0.7412,-3.0468,0.6987,
2.552014,0.4356,-1.2799,-0.0619,-1.4855,-5.7127,-7.1112,-0.7412,-3.0468,0.6987,
2.553092,0.4356,-1.2799,-0.0619,0.4965,-3.9897,-3.5695,-0.7412,-3.0468,0.6987,
2.556852,0.4356,-1.2799,-0.0619,0.4965,-3.9897,-3.5695,-0.3569,-3.2447,0.6217,
2.566727,0.4356,-1.2799,-0.0619,0.4965,-3.9897,-3.5695,-0.3551,-3.2630,0.6785,
2.572395,0.1043,-0.9069,-0.5694,0.4965,-3.9897,-3.5695,-0.3551,-3.2630,0.6785,
2.573657,0.1043,-0.9069,-0.5694,-2.7560,-0.1997,-8.1134,-0.3551,-3.2630,0.6785,
2.576726,0.1043,-0.9069,-0.5694,-2.7560,-0.1997,-8.1134,-0.7375,-2.9820,0.8716,
2.586806,0.1043,-0.9069,-0.5694,-2.7560,-0.1997,-8.1134,-1.1291,-2.5721,1.0505,
2.592123,0.0740,-0.5771,-0.0183,-2.7560,-0.1997,-8.1134,-1.1291,-2.5721,1.0505,
2.593227,0.0740,-0.5771,-0.0183,-2.9475,3.2012,-2.2403,-1.1291,-2.5721,1.0505,
2.597045,0.0740,-0.5771,-0.0183,-2.9475,3.2012,-2.2403,-1.3893,-2.2026,1.0176,
2.606878,0.0740,-0.5771,-0.0183,-2.9475,3.2012,-2.2403,-1.4290,-1.8196,0.8936,
2.611988,0.1747,-0.7718,-0.0448,-2.9475,3.2012,-2.2403,-1.4290,-1.8196,0.8936,
2.613069,0.1747,-0.7718,-0.0448,-1.8045,1.4539,-2.0194,-1.4290,-1.8196,0.8936,
2.616963,0.1747,-0.7718,-0.0448,-1.8045,1.4539,-2.0194,-1.3526,-1.4372,0.7976,
2.626652,0.1747,-0.7718,-0.0448,-1.8045,1.4539,-2.0194,-1.3557,-1.1049,0.7812,
2.631888,0.2629,-1.1294,-0.2061,-1.8045,1.4539,-2.0194,-1.3557,-1.1049,0.7812,
2.632994,0.2629,-1.1294,-0.2061,-0.7819,-1.9284,-3.1831,-1.3557,-1.1049,0.7812,
2.636835,0.2629,-1.1294,-0.2061,-0.7819,-1.9284,-3.1831,-1.4742,-0.6363,0.8245,
2.646806,0.2629,-1.1294,-0.2061,-0.7819,-1.9284,-3.1831,-1.3545,-0.7420,0.9760,
2.651888,0.2152,-1.4479,-0.0486,-0.7819,-1.9284,-3.1831,-1.3545,-0.7420,0.9760,
2.653044,0.2152,-1.4479,-0.0486,-1.0440,-4.9377,-1.2740,-1.3545,-0.7420,0.9760,
2.656841,0.2152,-1.4479,-0.0486,-1.0440,-4.9377,-1.2740,-1.2738,-0.8306,0.9015,
2.666821,0.2152,-1.4479,-0.0486,-1.0440,-4.9377,-1.2740,-1.2909,-0.8917,0.5380,
2.672434,0.1531,-0.6303,-0.0579,-1.0440,-4.9377,-1.2740,-1.2909,-0.8917,0.5380,
2.673691,0.1531,-0.6303,-0.0579,-1.4878,3.1521,-1.0258,-1.2909,-0.8917,0.5380,
2.676811,0.1531,-0.6303,-0.0579,-1.4878,3.1521,-1.0258,-1.3129,-1.0493,0.3798,
2.686707,0.1531,-0.6303,-0.0579,-1.4878,3.1521,-1.0258,-1.2433,-1.3199,0.5050,
2.692014,0.0952,-0.3877,-0.1757,-1.4878,3.1521,-1.0258,-1.2433,-1.3199,0.5050,
2.693185,0.0952,-0.3877,-0.1757,-1.9435,5.5753,-1.8193,-1.2433,-1.3199,0.5050,
2.696803,0.0952,-0.3877,-0.1757,-1.9435,5.5753,-1.8193,-1.0173,-1.7872,0.5997,
2.706776,0.0952,-0.3877,-0.1757,-1.9435,5.5753,-1.8193,-0.7234,-2.1433,0.5399,
2.711952,0.2653,-1.0123,-0.2707,-1.9435,5.5753,-1.8193,-0.7234,-2.1433,0.5399,
2.713151,0.2653,-1.0123,-0.2707,-0.1434,-0.5081,-2.4229,-0.7234,-2.1433,0.5399,
2.716724,0.2653,-1.0123,-0.2707,-0.1434,-0.5081,-2.4229,-0.4614,-2.2582,0.4513,
2.726685,0.2653,-1.0123,-0.2707,-0.1434,-0.5081,-2.4229,-0.3502,-2.1739,0.3456,
2.731899,0.1619,-1.2361,-0.3971,-0.1434,-0.5081,-2.4229,-0.3502,-2.1739,0.3456,
2.733199,0.1619,-1.2361,-0.3971,-1.0351,-2.6765,-3.3986,-0.3502,-2.1739,0.3456,
2.736701,0.1619,-1.2361,-0.3971,-1.0351,-2.6765,-3.3986,-0.3667,-2.0169,0.2576,
2.746732,0.1619,-1.2361,-0.3971,-1.0351,-2.6765,-3.3986,-0.4284,-1.8697,0.2027,
2.751867,0.0663,-1.0510,-0.3380,-1.0351,-2.6765,-3.3986,-0.4284,-1.8697,0.2027,
2.752979,0.0663,-1.0510,-0.3380,-1.8625,-0.8493,-2.5743,-0.4284,-1.8697,0.2027,
2.756754,0.0663,-1.0510,-0.3380,-1.8625,-0.8493,-2.5743,-0.4754,-1.7731,0.1978,
2.766656,0.0663,-1.0510,-0.3380,-1.8625,-0.8493,-2.5743,-0.4522,-1.7414,0.2418,
2.772601,0.1209,-0.9631,-0.1316,-1.8625,-0.8493,-2.5743,-0.4522,-1.7414,0.2418,
2.773761,0.1209,-0.9631,-0.1316,-1.2185,0.0213,-0.3321,-0.4522,-1.7414,0.2418,
2.776721,0.1209,-0.9631,-0.1316,-1.2185,0.0213,-0.3321,-0.3472,-1.7976,0.2741,
2.786722,0.1209,-0.9631,-0.1316,-1.2185,0.0213,-0.3321,-0.1926,-1.9124,0.2528,
2.792129,0.1956,-0.9155,-0.1562,-1.2185,0.0213,-0.3321,-0.1926,-1.9124,0.2528,
2.793225,0.1956,-0.9155,-0.1562,-0.3776,0.4961,-0.4102,-0.1926,-1.9124,0.2528,
2.796809,0.1956,-0.9155,-0.1562,-0.3776,0.4961,-0.4102,-0.0405,-2.0920,0.2106,
2.806846,0.1956,-0.9155,-0.1562,-0.3776,0.4961,-0.4102,0.0517,-2.2728,0.1966,
2.811886,0.3261,-0.8989,-0.3706,-0.3776,0.4961,-0.4102,0.0517,-2.2728,0.1966,
2.813081,0.3261,-0.8989,-0.3706,0.9976,0.6648,-2.3772,0.0517,-2.2728,0.1966,
2.816822,0.3261,-0.8989,-0.3706,0.9976,0.6648,-2.3772,0.1012,-2.3993,0.1746,
2.826770,0.3261,-0.8989,-0.3706,0.9976,0.6648,-2.3772,0.0933,-2.4909,0.0493,
2.832002,0.4098,-0.9253,-0.4956,0.9976,0.6648,-2.3772,0.0933,-2.4909,0.0493,
2.833110,0.4098,-0.9253,-0.4956,1.8858,0.4001,-3.4472,0.0933,-2.4909,0.0493,
2.836701,0.4098,-0.9253,-0.4956,1.8858,0.4001,-3.4472,0.1312,-2.6705,-0.0111,
2.846777,0.4098,-0.9253,-0.4956,1.8858,0.4001,-3.4472,0.0872,-2.9130,-0.0588,
2.852062,0.3848,-0.9628,-0.4727,1.8858,0.4001,-3.4472,0.0872,-2.9130,-0.0588,
2.853211,0.3848,-0.9628,-0.4727,1.6860,0.0157,-3.0522,0.0872,-2.9130,-0.0588,
2.856683,0.3848,-0.9628,-0.4727,1.6860,0.0157,-3.0522,0.0071,-3.0486,-0.0753,
2.866685,0.3848,-0.9628,-0.4727,1.6860,0.0157,-3.0522,0.0719,-3.1238,-0.0240,
2.872750,0.2478,-1.0051,-0.1484,1.6860,0.0157,-3.0522,0.0719,-3.1238,-0.0240,
2.874174,0.2478,-1.0051,-0.1484,0.4143,-0.4106,0.2817,0.0719,-3.1238,-0.0240,
2.876717,0.2478,-1.0051,-0.1484,0.4143,-0.4106,0.2817,0.2100,-3.0743,0.0347,
2.886675,0.2478,-1.0051,-0.1484,0.4143,-0.4106,0.2817,0.3450,-2.8586,0.0884,
2.892106,0.2890,-1.0370,0.0043,0.4143,-0.4106,0.2817,0.3450,-2.8586,0.0884,
2.893344,0.2890,-1.0370,0.0043,0.9179,-0.7151,1.8470,0.3450,-2.8586,0.0884,
2.896788,0.2890,-1.0370,0.0043,0.9179,-0.7151,1.8470,0.4134,-2.5605,0.1404,
2.906800,0.2890,-1.0370,0.0043,0.9179,-0.7151,1.8470,0.3981,-2.3602,0.1929,
2.911907,0.6429,-0.8408,0.0017,0.9179,-0.7151,1.8470,0.3981,-2.3602,0.1929,
2.913033,0.6429,-0.8408,0.0017,4.4311,1.2159,1.8248,0.3981,-2.3602,0.1929,
2.916812,0.6429,-0.8408,0.0017,4.4311,1.2159,1.8248,0.3560,-2.3779,0.2436,
2.926820,0.6429,-0.8408,0.0017,4.4311,1.2159,1.8248,0.3779,-2.5636,0.2411,
2.932104,0.9097,-0.6612,-0.1235,4.4311,1.2159,1.8248,0.3779,-2.5636,0.2411,
2.933239,0.9097,-0.6612,-0.1235,7.0425,2.9736,0.6052,0.3779,-2.5636,0.2411,
2.936824,0.9097,-0.6612,-0.1235,7.0425,2.9736,0.6052,0.4916,-2.7866,0.1507,
2.946830,0.9097,-0.6612,-0.1235,7.0425,2.9736,0.6052,0.6290,-2.8379,-0.0197,
2.952079,0.8910,-0.6139,-0.4336,7.0425,2.9736,0.6052,0.6290,-2.8379,-0.0197,
2.953089,0.8910,-0.6139,-0.4336,6.7953,3.4207,-2.4172,0.6290,-2.8379,-0.0197,
2.956721,0.8910,-0.6139,-0.4336,6.7953,3.4207,-2.4172,0.6479,-2.6839,-0.2139,
2.966740,0.8910,-0.6139,-0.4336,6.7953,3.4207,-2.4172,0.4555,-2.5886,-0.3746,
2.973234,0.8099,-0.8530,-0.1090,6.7953,3.4207,-2.4172,0.4555,-2.5886,-0.3746,
2.974406,0.8099,-0.8530,-0.1090,5.8562,1.0467,0.7673,0.4555,-2.5886,-0.3746,
2.976619,0.8099,-0.8530,-0.1090,5.8562,1.0467,0.7673,0.1159,-2.7908,-0.4699,
2.986719,0.8099,-0.8530,-0.1090,5.8562,1.0467,0.7673,-0.1743,-2.9985,-0.5255,
2.992181,0.6880,-1.1354,0.4245,5.8562,1.0467,0.7673,-0.1743,-2.9985,-0.5255,
2.993274,0.6880,-1.1354,0.4245,4.5112,-1.7679,6.0572,-0.1743,-2.9985,-0.5255,
2.996785,0.6880,-1.1354,0.4245,4.5112,-1.7679,6.0572,-0.2567,-2.7420,-0.5780,
3.006774,0.6880,-1.1354,0.4245,4.5112,-1.7679,6.0572,-0.1920,-1.2447,-0.5346,
3.011924,0.5049,-1.2302,0.4420,4.5112,-1.7679,6.0572,-0.1920,-1.2447,-0.5346,
3.012999,0.5049,-1.2302,0.4420,2.5598,-2.7398,6.2488,-0.1920,-1.2447,-0.5346,
3.016854,0.5049,-1.2302,0.4420,2.5598,-2.7398,6.2488,-0.1853,-0.6046,-0.4546,
3.026762,0.5049,-1.2302,0.4420,2.5598,-2.7398,6.2488,-0.1162,-0.3315,-0.3795,
3.031899,0.4085,-1.2848,0.3371,2.5598,-2.7398,6.2488,-0.1162,-0.3315,-0.3795,
3.033000,0.4085,-1.2848,0.3371,1.4613,-3.3000,5.1436,-0.1162,-0.3315,-0.3795,
3.036808,0.4085,-1.2848,0.3371,1.4613,-3.3000,5.1436,0.0511,-0.4836,-0.3276,
3.046802,0.4085,-1.2848,0.3371,1.4613,-3.3000,5.1436,0.3071,-0.8446,-0.2744,
3.051979,0.2921,-1.3933,0.3848,1.4613,-3.3000,5.1436,0.3071,-0.8446,-0.2744,
3.053063,0.2921,-1.3933,0.3848,0.2320,-4.3610,5.4709,0.3071,-0.8446,-0.2744,
3.057081,0.2921,-1.3933,0.3848,0.2320,-4.3610,5.4709,0.6669,-1.2582,-0.2280,
3.066770,0.2921,-1.3933,0.3848,0.2320,-4.3610,5.4709,1.1006,-1.5618,-0.1797,
3.072875,0.2081,-1.4148,0.3992,0.2320,-4.3610,5.4709,1.1006,-1.5618,-0.1797,
3.074171,0.2081,-1.4148,0.3992,-0.6071,-4.5367,5.3782,1.1006,-1.5618,-0.1797,
3.076713,0.2081,-1.4148,0.3992,-0.6071,-4.5367,5.3782,1.5899,-1.7976,-0.1089,
3.086717,0.2081,-1.4148,0.3992,-0.6071,-4.5367,5.3782,2.0664,-1.8733,-0.1468,
3.092418,0.5204,-1.1848,0.0523,-0.6071,-4.5367,5.3782,2.0664,-1.8733,-0.1468,
3.093528,0.5204,-1.1848,0.0523,2.4457,-2.2354,1.6214,2.0664,-1.8733,-0.1468,
3.096727,0.5204,-1.1848,0.0523,2.4457,-2.2354,1.6214,2.4598,-1.7756,-0.2500,
3.106902,0.5204,-1.1848,0.0523,2.4457,-2.2354,1.6214,2.6888,-1.5044,-0.2958,
3.111940,0.6554,-1.0495,-0.1437,2.4457,-2.2354,1.6214,2.6888,-1.5044,-0.2958,
3.113091,0.6554,-1.0495,-0.1437,3.6982,-0.8873,-0.7583,2.6888,-1.5044,-0.2958,
3.116963,0.6554,-1.0495,-0.1437,3.6982,-0.8873,-0.7583,2.6785,-1.1317,-0.3496,
3.126820,0.6554,-1.0495,-0.1437,3.6982,-0.8873,-0.7583,2.5074,-0.7872,-0.4339,
3.131913,0.6828,-1.0723,-0.1236,3.6982,-0.8873,-0.7583,2.5074,-0.7872,-0.4339,
3.132989,0.6828,-1.0723,-0.1236,3.8429,-1.1264,-1.0202,2.5074,-0.7872,-0.4339,
3.136657,0.6828,-1.0723,-0.1236,3.8429,-1.1264,-1.0202,2.3003,-0.5221,-0.5237,
3.146747,0.6828,-1.0723,-0.1236,3.8429,-1.1264,-1.0202,2.1977,-0.4677,-0.6727,
3.151998,0.6202,-1.2471,0.0634,3.8429,-1.1264,-1.0202,2.1977,-0.4677,-0.6727,
3.153162,0.6202,-1.2471,0.0634,3.0695,-2.8897,0.4121,2.1977,-0.4677,-0.6727,
3.156719,0.6202,-1.2471,0.0634,3.0695,-2.8897,0.4121,2.2924,-0.6937,-0.9287,
3.166717,0.6202,-1.2471,0.0634,3.0695,-2.8897,0.4121,2.5551,-1.1116,-1.2188,
3.173324,0.4439,-1.5219,-0.1059,3.0695,-2.8897,0.4121,2.5551,-1.1116,-1.2188,
3.174465,0.4439,-1.5219,-0.1059,1.1222,-5.6734,-1.6287,2.5551,-1.1116,-1.2188,
3.176683,0.4439,-1.5219,-0.1059,1.1222,-5.6734,-1.6287,2.8464,-1.5874,-1.4546,
3.186747,0.4439,-1.5219,-0.1059,1.1222,-5.6734,-1.6287,2.9827,-2.0309,-1.5823,
3.191987,0.1537,-1.6075,-0.3911,1.1222,-5.6734,-1.6287,2.9827,-2.0309,-1.5823,
3.193294,0.1537,-1.6075,-0.3911,-2.0161,-6.6517,-4.7901,2.9827,-2.0309,-1.5823,
3.196780,0.1537,-1.6075,-0.3911,-2.0161,-6.6517,-4.7901,2.5477,-2.4756,-1.5071,
3.206795,0.1537,-1.6075,-0.3911,-2.0161,-6.6517,-4.7901,2.1733,-2.4323,-1.4320,
3.211942,0.0062,-1.5246,-0.2345,-2.0161,-6.6517,-4.7901,2.1733,-2.4323,-1.4320,
3.213039,0.0062,-1.5246,-0.2345,-3.7456,-5.9777,-3.4553,2.1733,-2.4323,-1.4320,
3.216898,0.0062,-1.5246,-0.2345,-3.7456,-5.9777,-3.4553,1.8807,-2.1940,-1.3917,
3.226706,0.0062,-1.5246,-0.2345,-3.7456,-5.9777,-3.4553,1.7933,-1.6864,-1.3935,
3.232069,0.0600,-1.4178,0.4602,-3.7456,-5.9777,-3.4553,1.7933,-1.6864,-1.3935,
3.233160,0.0600,-1.4178,0.4602,-3.4495,-5.0526,3.2107,1.7933,-1.6864,-1.3935,
3.236751,0.0600,-1.4178,0.4602,-3.4495,-5.0526,3.2107,2.0071,-0.8758,-1.4228,
3.246789,0.0600,-1.4178,0.4602,-3.4495,-5.0526,3.2107,2.2838,-0.0334,-1.4033,
3.252118,0.0480,-1.3273,0.5240,-3.4495,-5.0526,3.2107,2.2838,-0.0334,-1.4033,
3.253221,0.0480,-1.3273,0.5240,-3.7245,-4.2931,3.5142,2.2838,-0.0334,-1.4033,
3.256868,0.0480,-1.3273,0.5240,-3.7245,-4.2931,3.5142,2.3046,0.4437,-1.2927,
3.266808,0.0480,-1.3273,0.5240,-3.7245,-4.2931,3.5142,2.1262,0.4516,-1.1400,
3.273305,0.0252,-1.1266,0.1853,-3.7245,-4.2931,3.5142,2.1262,0.4516,-1.1400,
3.274492,0.0252,-1.1266,0.1853,-4.0185,-2.4434,-0.1994,2.1262,0.4516,-1.1400,
3.276627,0.0252,-1.1266,0.1853,-4.0185,-2.4434,-0.1994,1.9625,0.0692,-1.0276,
3.286723,0.0252,-1.1266,0.1853,-4.0185,-2.4434,-0.1994,1.9063,-0.4799,-0.9769,
3.292128,0.2397,-0.8725,0.0535,-4.0185,-2.4434,-0.1994,1.9063,-0.4799,-0.9769,
3.293166,0.2397,-0.8725,0.0535,-1.9828,-0.0538,-1.7579,1.9063,-0.4799,-0.9769,
3.296828,0.2397,-0.8725,0.0535,-1.9828,-0.0538,-1.7579,1.9088,-0.9418,-0.9775,
3.306872,0.2397,-0.8725,0.0535,-1.9828,-0.0538,-1.7579,1.8575,-1.2454,-1.0643,
3.311895,0.5245,-0.7776,-0.0930,-1.9828,-0.0538,-1.7579,1.8575,-1.2454,-1.0643,
3.312958,0.5245,-0.7776,-0.0930,0.6646,0.7593,-3.3428,1.8575,-1.2454,-1.0643,
3.316791,0.5245,-0.7776,-0.0930,0.6646,0.7593,-3.3428,1.6840,-1.4402,-1.2927,
3.326774,0.5245,-0.7776,-0.0930,0.6646,0.7593,-3.3428,1.4775,-1.5483,-1.6281,
3.331951,0.7731,-0.7647,0.0806,0.6646,0.7593,-3.3428,1.4775,-1.5483,-1.6281,
3.333142,0.7731,-0.7647,0.0806,2.8228,0.7164,-1.6930,1.4775,-1.5483,-1.6281,
3.336780,0.7731,-0.7647,0.0806,2.8228,0.7164,-1.6930,1.3156,-1.5740,-2.0233,
3.346702,0.7731,-0.7647,0.0806,2.8228,0.7164,-1.6930,1.2368,-1.5123,-2.4320,
3.351933,0.8381,-0.7578,0.1815,2.8228,0.7164,-1.6930,1.2368,-1.5123,-2.4320,
3.353003,0.8381,-0.7578,0.1815,3.0361,0.5259,-0.6953,1.2368,-1.5123,-2.4320,
3.356765,0.8381,-0.7578,0.1815,3.0361,0.5259,-0.6953,1.1953,-1.3712,-2.7851,
3.366826,0.8381,-0.7578,0.1815,3.0361,0.5259,-0.6953,1.1183,-1.1061,-2.9964,
3.373815,0.5976,-0.7610,0.0623,3.0361,0.5259,-0.6953,1.1183,-1.1061,-2.9964,
3.374859,0.5976,-0.7610,0.0623,0.1856,0.1568,-1.8452,1.1183,-1.1061,-2.9964,
3.376754,0.5976,-0.7610,0.0623,0.1856,0.1568,-1.8452,0.9430,0.2262,-2.8620,
3.386745,0.5976,-0.7610,0.0623,0.1856,0.1568,-1.8452,0.9173,1.1663,-2.6702,
3.392190,0.5149,-0.7001,-0.0276,0.1856,0.1568,-1.8452,0.9173,1.1663,-2.6702,
3.393696,0.5149,-0.7001,-0.0276,-0.9769,0.4304,-2.8665,0.9173,1.1663,-2.6702,
3.397049,0.5149,-0.7001,-0.0276,-0.9769,0.4304,-2.8665,1.0352,1.9971,-2.5132,
3.407034,0.5149,-0.7001,-0.0276,-0.9769,0.4304,-2.8665,1.3309,2.4638,-2.3776,
3.412178,0.4323,-0.6186,0.2361,-0.9769,0.4304,-2.8665,1.3309,2.4638,-2.3776,
3.413538,0.4323,-0.6186,0.2361,-1.9791,0.9199,-0.6504,1.3309,2.4638,-2.3776,
3.417088,0.4323,-0.6186,0.2361,-1.9791,0.9199,-0.6504,1.6583,2.7320,-2.2390,
3.427163,0.4323,-0.6186,0.2361,-1.9791,0.9199,-0.6504,1.8257,3.0405,-2.0954,
3.431844,0.2317,-0.5570,0.2785,-1.9791,0.9199,-0.6504,1.8257,3.0405,-2.0954,
3.432947,0.2317,-0.5570,0.2785,-4.0080,1.2069,-0.7798,1.8257,3.0405,-2.0954,
3.436692,0.2317,-0.5570,0.2785,-4.0080,1.2069,-0.7798,1.7597,3.3929,-1.9519,
3.446619,0.2317,-0.5570,0.2785,-4.0080,1.2069,-0.7798,1.5618,3.6947,-1.7918,
3.451905,0.1460,-0.4332,0.1005,-4.0080,1.2069,-0.7798,1.5618,3.6947,-1.7918,
3.452912,0.1460,-0.4332,0.1005,-4.7709,2.1683,-3.0870,1.5618,3.6947,-1.7918,
3.456685,0.1460,-0.4332,0.1005,-4.7709,2.1683,-3.0870,1.3828,3.8468,-1.5988,
3.466650,0.1460,-0.4332,0.1005,-4.7709,2.1683,-3.0870,1.2894,3.7448,-1.3691,
3.473079,0.1204,-0.2338,0.0817,-4.7709,2.1683,-3.0870,1.2894,3.7448,-1.3691,
3.474183,0.1204,-0.2338,0.0817,-4.8339,3.9350,-3.8071,1.2894,3.7448,-1.3691,
3.476634,0.1204,-0.2338,0.0817,-4.8339,3.9350,-3.8071,1.2387,3.4113,-1.1089,
3.486781,0.1204,-0.2338,0.0817,-4.8339,3.9350,-3.8071,1.1348,2.9763,-0.8236,
3.492134,0.0558,-0.1693,0.1024,-4.8339,3.9350,-3.8071,1.1348,2.9763,-0.8236,
3.493431,0.0558,-0.1693,0.1024,-5.2736,4.3363,-4.1295,1.1348,2.9763,-0.8236,
3.496760,0.0558,-0.1693,0.1024,-5.2736,4.3363,-4.1295,0.9540,2.5390,-0.5365,
3.506783,0.0558,-0.1693,0.1024,-5.2736,4.3363,-4.1295,0.7610,2.1688,-0.2689,
3.511903,0.0525,-0.1943,0.1760,-5.2736,4.3363,-4.1295,0.7610,2.1688,-0.2689,
3.513018,0.0525,-0.1943,0.1760,-5.1038,3.9538,-3.7778,0.7610,2.1688,-0.2689,
3.516722,0.0525,-0.1943,0.1760,-5.1038,3.9538,-3.7778,0.5691,1.8652,-0.0386,
3.526673,0.0525,-0.1943,0.1760,-5.1038,3.9538,-3.7778,0.3694,1.5732,0.1611,
3.531991,0.1147,-0.2428,0.2564,-5.1038,3.9538,-3.7778,0.3694,1.5732,0.1611,
3.533050,0.1147,-0.2428,0.2564,-4.2938,3.4325,-3.2348,0.3694,1.5732,0.1611,
3.536748,0.1147,-0.2428,0.2564,-4.2938,3.4325,-3.2348,0.1709,1.2830,0.3450,
3.546760,0.1147,-0.2428,0.2564,-4.2938,3.4325,-3.2348,-0.0093,0.9703,0.4953,
3.551942,0.2360,-0.2504,0.3138,-4.2938,3.4325,-3.2348,-0.0093,0.9703,0.4953,
3.552933,0.2360,-0.2504,0.3138,-2.9251,3.3935,-2.8018,-0.0093,0.9703,0.4953,
3.556689,0.2360,-0.2504,0.3138,-2.9251,3.3935,-2.8018,-0.1859,0.6215,0.5961,
3.566717,0.2360,-0.2504,0.3138,-2.9251,3.3935,-2.8018,-0.5976,-0.1159,0.6938,
3.573450,0.4096,-0.2907,0.5108,-2.9251,3.3935,-2.8018,-0.5976,-0.1159,0.6938,
3.574979,0.4096,-0.2907,0.5108,-1.1180,3.1115,-0.8508,-0.5976,-0.1159,0.6938,
3.576680,0.4096,-0.2907,0.5108,-1.1180,3.1115,-0.8508,-0.7357,-0.4231,0.6822,
3.586691,0.4096,-0.2907,0.5108,-1.1180,3.1115,-0.8508,-0.7699,-0.5508,0.5961,
3.592145,0.7271,-0.3646,0.7355,-1.1180,3.1115,-0.8508,-0.7699,-0.5508,0.5961,
3.593559,0.7271,-0.3646,0.7355,1.9901,2.4987,1.4691,-0.7699,-0.5508,0.5961,
3.596773,0.7271,-0.3646,0.7355,1.9901,2.4987,1.4691,-0.7485,-0.4983,0.4659,
3.607000,0.7271,-0.3646,0.7355,1.9901,2.4987,1.4691,-0.7259,-0.3779,0.3212,
3.611968,0.9606,-0.4671,0.7453,1.9901,2.4987,1.4691,-0.7259,-0.3779,0.3212,
3.613052,0.9606,-0.4671,0.7453,4.2204,1.5495,1.6773,-0.7259,-0.3779,0.3212,
3.616895,0.9606,-0.4671,0.7453,4.2204,1.5495,1.6773,-0.7363,-0.2973,0.1660,
3.626795,0.9606,-0.4671,0.7453,4.2204,1.5495,1.6773,-0.7968,-0.2796,0.0438,
3.632231,1.0184,-0.5254,0.6722,4.2204,1.5495,1.6773,-0.7968,-0.2796,0.0438,
3.633471,1.0184,-0.5254,0.6722,4.6938,1.0001,1.0726,-0.7968,-0.2796,0.0438,
3.637041,1.0184,-0.5254,0.6722,4.6938,1.0001,1.0726,-0.8780,-0.3510,-0.0160,
3.646795,1.0184,-0.5254,0.6722,4.6938,1.0001,1.0726,-0.9654,-0.5667,0.0102,
3.651969,0.5719,-0.4352,0.1499,4.6938,1.0001,1.0726,-0.9654,-0.5667,0.0102,
3.653017,0.5719,-0.4352,0.1499,0.1889,1.9249,-3.8716,-0.9654,-0.5667,0.0102,
3.658263,0.5719,-0.4352,0.1499,0.1889,1.9249,-3.8716,-1.1278,-0.9222,0.1477,
3.666826,0.5719,-0.4352,0.1499,0.1889,1.9249,-3.8716,-1.4015,-1.3199,0.4146,
3.672203,0.0242,-0.5019,0.6599,0.1889,1.9249,-3.8716,-1.4015,-1.3199,0.4146,
3.673257,0.0242,-0.5019,0.6599,-5.2688,1.3987,1.3732,-1.4015,-1.3199,0.4146,
3.676803,0.0242,-0.5019,0.6599,-5.2688,1.3987,1.3732,-1.6764,-1.6662,0.7995,
3.686760,0.0242,-0.5019,0.6599,-5.2688,1.3987,1.3732,-1.4547,-1.7573,1.2130,
3.692154,0.9510,-1.1391,2.2540,-5.2688,1.3987,1.3732,-1.4547,-1.7573,1.2130,
3.694033,0.9510,-1.1391,2.2540,3.8053,-4.6412,17.2690,-1.4547,-1.7573,1.2130,
3.696718,0.9510,-1.1391,2.2540,3.8053,-4.6412,17.2690,-0.4644,-1.0994,1.2772,
3.707554,0.9510,-1.1391,2.2540,3.8053,-4.6412,17.2690,-0.1358,-0.3278,0.8984,
3.711860,0.4749,-1.8150,-0.9150,3.8053,-4.6412,17.2690,-0.1358,-0.3278,0.8984,
3.713039,0.4749,-1.8150,-0.9150,-0.7544,-11.0686,-13.6349,-0.1358,-0.3278,0.8984,
3.716753,0.4749,-1.8150,-0.9150,-0.7544,-11.0686,-13.6349,-1.1578,-0.9753,0.6663,
3.729464,0.4749,-1.8150,-0.9150,-0.7544,-11.0686,-13.6349,-2.0032,-2.5178,1.1147,
3.731962,0.6457,-1.3219,0.9137,-0.7544,-11.0686,-13.6349,-2.0032,-2.5178,1.1147,
3.733195,0.6457,-1.3219,0.9137,0.9208,-5.9754,4.6860,-2.0032,-2.5178,1.1147,
3.736598,0.6457,-1.3219,0.9137,0.9208,-5.9754,4.6860,-1.5909,-3.3724,1.4922,
3.746705,0.6457,-1.3219,0.9137,0.9208,-5.9754,4.6860,-1.4015,-2.3565,0.7140,
3.751854,0.4333,-0.6121,-0.1577,0.9208,-5.9754,4.6860,-1.4015,-2.3565,0.7140,
3.752886,0.4333,-0.6121,-0.1577,-1.2117,1.2441,-5.2770,-1.4015,-2.3565,0.7140,
3.756755,0.4333,-0.6121,-0.1577,-1.2117,1.2441,-5.2770,-1.5609,-2.0444,0.5344,
3.766594,0.4333,-0.6121,-0.1577,-1.2117,1.2441,-5.2770,-1.2616,-1.8843,0.6260,
3.771856,0.2603,-0.7400,0.1499,-1.2117,1.2441,-5.2770,-1.2616,-1.8843,0.6260,
3.772778,0.2603,-0.7400,0.1499,-2.9231,0.1857,-1.8303,-1.2616,-1.8843,0.6260,
3.776751,0.2603,-0.7400,0.1499,-2.9231,0.1857,-1.8303,-1.1352,-1.7750,0.8728,
3.786615,0.2603,-0.7400,0.1499,-2.9231,0.1857,-1.8303,-1.1388,-1.6247,1.1452,
3.791900,0.3396,-1.0895,0.1080,-2.9231,0.1857,-1.8303,-1.1388,-1.6247,1.1452,
3.793042,0.3396,-1.0895,0.1080,-2.0462,-3.0120,-1.8638,-1.1388,-1.6247,1.1452,
3.796602,0.3396,-1.0895,0.1080,-2.0462,-3.0120,-1.8638,-0.9770,-1.3962,1.3358,
3.806925,0.3396,-1.0895,0.1080,-2.0462,-3.0120,-1.8638,-0.8896,-1.2673,1.4042,
3.811821,0.4387,-1.1490,-0.0834,-2.0462,-3.0120,-1.8638,-0.8896,-1.2673,1.4042,
3.812773,0.4387,-1.1490,-0.0834,-0.8864,-3.3499,-3.4091,-0.8896,-1.2673,1.4042,
3.816617,0.4387,-1.1490,-0.0834,-0.8864,-3.3499,-3.4091,-0.9611,-1.2924,1.3822,
3.826796,0.4387,-1.1490,-0.0834,-0.8864,-3.3499,-3.4091,-1.0362,-1.3669,1.3279,
3.831842,0.3522,-1.1868,0.0723,-0.8864,-3.3499,-3.4091,-1.0362,-1.3669,1.3279,
3.832779,0.3522,-1.1868,0.0723,-1.5274,-3.4886,-1.5462,-1.0362,-1.3669,1.3279,
3.836670,0.3522,-1.1868,0.0723,-1.5274,-3.4886,-1.5462,-1.0185,-1.4054,1.3108,
3.846550,0.3522,-1.1868,0.0723,-1.5274,-3.4886,-1.5462,-0.9586,-1.3730,1.3554,
3.851776,0.4010,-1.1672,0.0843,-1.5274,-3.4886,-1.5462,-0.9586,-1.3730,1.3554,
3.852658,0.4010,-1.1672,0.0843,-0.8359,-3.0858,-1.0952,-0.9586,-1.3730,1.3554,
3.856715,0.4010,-1.1672,0.0843,-0.8359,-3.0858,-1.0952,-0.9556,-1.2325,1.4409,
3.866616,0.4010,-1.1672,0.0843,-0.8359,-3.0858,-1.0952,-1.0081,-0.9448,1.5203,
3.871939,0.5411,-1.0266,0.2086,-0.8359,-3.0858,-1.0952,-1.0081,-0.9448,1.5203,
3.873209,0.5411,-1.0266,0.2086,0.7682,-1.5220,0.4014,-1.0081,-0.9448,1.5203,
3.876789,0.5411,-1.0266,0.2086,0.7682,-1.5220,0.4014,-1.0545,-0.5697,1.5490,
3.886718,0.5411,-1.0266,0.2086,0.7682,-1.5220,0.4014,-1.0600,-0.2069,1.5234,
3.891982,0.4759,-0.8266,0.2391,0.7682,-1.5220,0.4014,-1.0600,-0.2069,1.5234,
3.893596,0.4759,-0.8266,0.2391,0.3849,0.6068,0.9152,-1.0600,-0.2069,1.5234,
3.896736,0.4759,-0.8266,0.2391,0.3849,0.6068,0.9152,-1.0313,0.0711,1.4977,
3.907373,0.4759,-0.8266,0.2391,0.3849,0.6068,0.9152,-1.0179,0.2494,1.5185,
3.911958,0.3668,-0.6543,0.2382,0.3849,0.6068,0.9152,-1.0179,0.2494,1.5185,
3.913061,0.3668,-0.6543,0.2382,-0.4170,2.4462,1.0640,-1.0179,0.2494,1.5185,
3.916811,0.3668,-0.6543,0.2382,-0.4170,2.4462,1.0640,-1.0301,0.3478,1.5594,
3.926675,0.3668,-0.6543,0.2382,-0.4170,2.4462,1.0640,-1.0344,0.3991,1.6541,
3.932016,0.3232,-0.5483,0.2395,-0.4170,2.4462,1.0640,-1.0344,0.3991,1.6541,
3.933394,0.3232,-0.5483,0.2395,-0.5664,3.6213,1.1999,-1.0344,0.3991,1.6541,
3.936772,0.3232,-0.5483,0.2395,-0.5664,3.6213,1.1999,-1.0967,0.4907,1.6877,
3.946700,0.3232,-0.5483,0.2395,-0.5664,3.6213,1.1999,-1.1669,0.5286,1.7188,
3.951961,0.3870,-0.5503,0.2255,-0.5664,3.6213,1.1999,-1.1669,0.5286,1.7188,
3.953077,0.3870,-0.5503,0.2255,0.3316,3.7241,1.1738,-1.1669,0.5286,1.7188,
3.957272,0.3870,-0.5503,0.2255,0.3316,3.7241,1.1738,-1.2231,0.5420,1.7408,
3.966800,0.3870,-0.5503,0.2255,0.3316,3.7241,1.1738,-1.2635,0.5726,1.7372,
3.972117,0.5564,-0.5907,0.1517,0.3316,3.7241,1.1738,-1.2635,0.5726,1.7372,
3.973289,0.5564,-0.5907,0.1517,2.2392,3.4320,0.5854,-1.2635,0.5726,1.7372,
3.976778,0.5564,-0.5907,0.1517,2.2392,3.4320,0.5854,-1.3001,0.7027,1.6975,
3.986713,0.5564,-0.5907,0.1517,2.2392,3.4320,0.5854,-1.3062,1.0020,1.6394,
3.992005,0.6656,-0.6606,0.1813,2.2392,3.4320,0.5854,-1.3062,1.0020,1.6394,
3.993528,0.6656,-0.6606,0.1813,3.5129,2.8274,1.0050,-1.3062,1.0020,1.6394,
3.996791,0.6656,-0.6606,0.1813,3.5129,2.8274,1.0050,-1.2793,1.4412,1.5380,
4.007367,0.6656,-0.6606,0.1813,3.5129,2.8274,1.0050,-1.2665,1.8792,1.3535,
4.011988,0.7797,-0.6599,0.1610,3.5129,2.8274,1.0050,-1.2665,1.8792,1.3535,
4.013133,0.7797,-0.6599,0.1610,4.7703,2.8852,0.8926,-1.2665,1.8792,1.3535,
4.016820,0.7797,-0.6599,0.1610,4.7703,2.8852,0.8926,-1.3270,2.1498,1.1281,
4.026820,0.7797,-0.6599,0.1610,4.7703,2.8852,0.8926,-1.4602,2.2830,0.8661,
4.031971,0.7878,-0.6472,0.0324,4.7703,2.8852,0.8926,-1.4602,2.2830,0.8661,
4.033107,0.7878,-0.6472,0.0324,4.8861,3.0276,-0.2696,-1.4602,2.2830,0.8661,
4.036825,0.7878,-0.6472,0.0324,4.8861,3.0276,-0.2696,-1.5829,2.4699,0.5307,
4.046731,0.7878,-0.6472,0.0324,4.8861,3.0276,-0.2696,-1.5756,2.6275,0.1666,
4.051926,0.5766,-0.7150,0.0184,4.8861,3.0276,-0.2696,-1.5756,2.6275,0.1666,
4.053061,0.5766,-0.7150,0.0184,2.7406,2.3470,-0.2819,-1.5756,2.6275,0.1666,
4.057640,0.5766,-0.7150,0.0184,2.7406,2.3470,-0.2819,-1.4302,2.4388,-0.1443,
4.066836,0.5766,-0.7150,0.0184,2.7406,2.3470,-0.2819,-1.2262,1.8169,-0.3520,
4.072140,0.3433,-0.8476,-0.0348,2.7406,2.3470,-0.2819,-1.2262,1.8169,-0.3520,
4.073321,0.3433,-0.8476,-0.0348,0.3000,1.0023,-0.6963,-1.2262,1.8169,-0.3520,
4.076856,0.3433,-0.8476,-0.0348,0.3000,1.0023,-0.6963,-1.0240,0.8786,-0.4632,
4.086751,0.3433,-0.8476,-0.0348,0.3000,1.0023,-0.6963,-0.8279,0.0350,-0.5224,
4.092147,0.1163,-0.9611,0.1275,0.3000,1.0023,-0.6963,-0.8279,0.0350,-0.5224,
4.093461,0.1163,-0.9611,0.1275,-2.0744,-0.1569,1.0100,-0.8279,0.0350,-0.5224,
4.096728,0.1163,-0.9611,0.1275,-2.0744,-0.1569,1.0100,-0.6337,-0.3620,-0.5652,
4.107648,0.1163,-0.9611,0.1275,-2.0744,-0.1569,1.0100,-0.4498,-0.4378,-0.5884,
4.111968,-0.1164,-1.0133,0.0231,-2.0744,-0.1569,1.0100,-0.4498,-0.4378,-0.5884,
4.113149,-0.1164,-1.0133,0.0231,-4.4574,-0.7020,0.1008,-0.4498,-0.4378,-0.5884,
4.116823,-0.1164,-1.0133,0.0231,-4.4574,-0.7020,0.1008,-0.1443,-0.2386,-0.4308,
4.126810,-0.1164,-1.0133,0.0231,-4.4574,-0.7020,0.1008,0.0090,-0.0548,-0.3105,
4.131956,-0.1389,-1.0444,-0.0484,-4.4574,-0.7020,0.1008,0.0090,-0.0548,-0.3105,
4.133083,-0.1389,-1.0444,-0.0484,-4.6824,-1.0088,-0.5886,0.0090,-0.0548,-0.3105,
4.136851,-0.1389,-1.0444,-0.0484,-4.6824,-1.0088,-0.5886,0.1531,0.0204,-0.2207,
4.146713,-0.1389,-1.0444,-0.0484,-4.6824,-1.0088,-0.5886,0.2203,-0.0829,-0.1632,
4.152068,0.0421,-1.1690,-0.0437,-4.6824,-1.0088,-0.5886,0.2203,-0.0829,-0.1632,
4.153150,0.0421,-1.1690,-0.0437,-2.8640,-2.2145,-0.5753,0.2203,-0.0829,-0.1632,
4.157765,0.0421,-1.1690,-0.0437,-2.8640,-2.2145,-0.5753,0.1690,-0.3174,-0.0826,
4.166842,0.0421,-1.1690,-0.0437,-2.8640,-2.2145,-0.5753,0.1257,-0.5038,0.0157,
4.172014,0.3472,-1.1052,0.0985,-2.8640,-2.2145,-0.5753,0.1257,-0.5038,0.0157,
4.173154,0.3472,-1.1052,0.0985,0.1704,-1.5738,0.8102,0.1257,-0.5038,0.0157,
4.176766,0.3472,-1.1052,0.0985,0.1704,-1.5738,0.8102,0.1153,-0.5807,0.0646,
4.186761,0.3472,-1.1052,0.0985,0.1704,-1.5738,0.8102,0.0633,-0.6143,0.1007,
4.191949,0.4922,-0.9264,-0.1899,0.1704,-1.5738,0.8102,0.0633,-0.6143,0.1007,
4.193468,0.4922,-0.9264,-0.1899,1.6168,0.1880,-1.9869,0.0633,-0.6143,0.1007,
4.196669,0.4922,-0.9264,-0.1899,1.6168,0.1880,-1.9869,-0.0484,-0.6113,0.1752,
4.207865,0.4922,-0.9264,-0.1899,1.6168,0.1880,-1.9869,-0.1413,-0.5429,0.2686,
4.212005,0.4318,-1.2096,-0.1821,1.6168,0.1880,-1.9869,-0.1413,-0.5429,0.2686,
4.213168,0.4318,-1.2096,-0.1821,1.0720,-2.5702,-1.8424,-0.1413,-0.5429,0.2686,
4.216744,0.4318,-1.2096,-0.1821,1.0720,-2.5702,-1.8424,-0.1541,-0.4274,0.2986,
4.226669,0.4318,-1.2096,-0.1821,1.0720,-2.5702,-1.8424,-0.1266,-0.3083,0.3028,
4.231963,0.4052,-1.4733,0.0849,1.0720,-2.5702,-1.8424,-0.1266,-0.3083,0.3028,
4.233298,0.4052,-1.4733,0.0849,0.8713,-5.1343,0.8266,-0.1266,-0.3083,0.3028,
4.236743,0.4052,-1.4733,0.0849,0.8713,-5.1343,0.8266,-0.1676,-0.2338,0.3798,
4.246824,0.4052,-1.4733,0.0849,0.8713,-5.1343,0.8266,-0.2604,-0.1959,0.5228,
4.251910,0.7473,-1.4208,0.0818,0.8713,-5.1343,0.8266,-0.2604,-0.1959,0.5228,
4.253039,0.7473,-1.4208,0.0818,4.3046,-4.5933,0.8490,-0.2604,-0.1959,0.5228,
4.257537,0.7473,-1.4208,0.0818,4.3046,-4.5933,0.8490,-0.3294,-0.1886,0.6480,
4.266705,0.7473,-1.4208,0.0818,4.3046,-4.5933,0.8490,-0.3123,-0.2808,0.6981,
4.271958,0.8057,-1.3547,-0.0627,4.3046,-4.5933,0.8490,-0.3123,-0.2808,0.6981,
4.273369,0.8057,-1.3547,-0.0627,4.9758,-3.9149,-0.4938,-0.3123,-0.2808,0.6981,
4.276847,0.8057,-1.3547,-0.0627,4.9758,-3.9149,-0.4938,-0.2427,-0.3969,0.6907,
4.286797,0.8057,-1.3547,-0.0627,4.9758,-3.9149,-0.4938,-0.1657,-0.4164,0.6877,
4.292084,0.6334,-1.5026,-0.0244,4.9758,-3.9149,-0.4938,-0.1657,-0.4164,0.6877,
4.293793,0.6334,-1.5026,-0.0244,3.4015,-5.3305,-0.0585,-0.1657,-0.4164,0.6877,
4.296734,0.6334,-1.5026,-0.0244,3.4015,-5.3305,-0.0585,-0.0943,-0.1397,0.6058,
4.307811,0.6334,-1.5026,-0.0244,3.4015,-5.3305,-0.0585,0.0352,0.0668,0.4586,
4.311942,0.4080,-1.5300,0.0684,3.4015,-5.3305,-0.0585,0.0352,0.0668,0.4586,
4.313090,0.4080,-1.5300,0.0684,1.2897,-5.5704,0.8579,0.0352,0.0668,0.4586,
4.316921,0.4080,-1.5300,0.0684,1.2897,-5.5704,0.8579,0.1593,0.1896,0.3083,
4.326739,0.4080,-1.5300,0.0684,1.2897,-5.5704,0.8579,0.3688,0.2201,0.1996,
4.331997,0.1082,-1.2504,0.2792,1.2897,-5.5704,0.8579,0.3688,0.2201,0.1996,
4.333143,0.1082,-1.2504,0.2792,-1.6041,-2.8166,2.8518,0.3688,0.2201,0.1996,
4.336905,0.1082,-1.2504,0.2792,-1.6041,-2.8166,2.8518,0.6424,0.1493,0.0976,
4.346665,0.1082,-1.2504,0.2792,-1.6041,-2.8166,2.8518,0.9430,-0.0548,-0.0887,
4.351955,0.2864,-1.1898,0.4977,-1.6041,-2.8166,2.8518,0.9430,-0.0548,-0.0887,
4.353299,0.2864,-1.1898,0.4977,0.1413,-2.2228,4.7959,0.9430,-0.0548,-0.0887,
4.357933,0.2864,-1.1898,0.4977,0.1413,-2.2228,4.7959,1.2741,-0.4555,-0.3434,
4.366799,0.2864,-1.1898,0.4977,0.1413,-2.2228,4.7959,1.6858,-0.8758,-0.6171,
4.372000,0.4556,-1.2859,0.8366,0.1413,-2.2228,4.7959,1.6858,-0.8758,-0.6171,
4.373348,0.4556,-1.2859,0.8366,1.7025,-3.2013,7.7914,1.6858,-0.8758,-0.6171,
4.376746,0.4556,-1.2859,0.8366,1.7025,-3.2013,7.7914,2.2142,-1.1073,-0.8816,
4.386750,0.4556,-1.2859,0.8366,1.7025,-3.2013,7.7914,2.7774,-1.1824,-1.0753,
4.392005,0.2347,-1.2777,0.5183,1.7025,-3.2013,7.7914,2.7774,-1.1824,-1.0753,
4.393672,0.2347,-1.2777,0.5183,-0.6439,-3.2098,4.1873,2.7774,-1.1824,-1.0753,
4.396869,0.2347,-1.2777,0.5183,-0.6439,-3.2098,4.1873,3.2606,-1.2515,-1.1254,
4.407958,0.2347,-1.2777,0.5183,-0.6439,-3.2098,4.1873,3.5679,-1.4115,-1.0313,
4.411901,0.0213,-1.2482,-0.0511,-0.6439,-3.2098,4.1873,3.5679,-1.4115,-1.0313,
4.413221,0.0213,-1.2482,-0.0511,-2.9234,-3.0545,-1.9619,3.5679,-1.4115,-1.0313,
4.416790,0.0213,-1.2482,-0.0511,-2.9234,-3.0545,-1.9619,3.6351,-1.6827,-0.8419,
4.426686,0.0213,-1.2482,-0.0511,-2.9234,-3.0545,-1.9619,3.4598,-1.9955,-0.6715,
4.431917,0.2018,-1.2243,-0.2064,-2.9234,-3.0545,-1.9619,3.4598,-1.9955,-0.6715,
4.433175,0.2018,-1.2243,-0.2064,-1.2992,-2.9647,-3.9784,3.4598,-1.9955,-0.6715,
4.436832,0.2018,-1.2243,-0.2064,-1.2992,-2.9647,-3.9784,3.1232,-2.2398,-0.6831,
4.446816,0.2018,-1.2243,-0.2064,-1.2992,-2.9647,-3.9784,2.8507,-2.4811,-0.8517,
4.451949,0.2145,-1.1071,-0.0735,-1.2992,-2.9647,-3.9784,2.8507,-2.4811,-0.8517,
4.453025,0.2145,-1.1071,-0.0735,-1.3515,-1.9554,-2.9880,2.8507,-2.4811,-0.8517,
4.458046,0.2145,-1.1071,-0.0735,-1.3515,-1.9554,-2.9880,2.6779,-2.7511,-1.0411,
4.466875,0.2145,-1.1071,-0.0735,-1.3515,-1.9554,-2.9880,2.4482,-3.0657,-1.1858,
4.472003,0.1233,-0.9905,-0.1619,-1.3515,-1.9554,-2.9880,2.4482,-3.0657,-1.1858,
4.473343,0.1233,-0.9905,-0.1619,-2.5061,-0.9593,-4.0047,2.4482,-3.0657,-1.1858,
4.476824,0.1233,-0.9905,-0.1619,-2.5061,-0.9593,-4.0047,2.0816,-3.3791,-1.2573,
4.486945,0.1233,-0.9905,-0.1619,-2.5061,-0.9593,-4.0047,0.9216,-3.1445,-1.2720,
4.491952,0.2361,-0.9303,-0.1108,-2.5061,-0.9593,-4.0047,0.9216,-3.1445,-1.2720,
4.493499,0.2361,-0.9303,-0.1108,-1.6984,-0.4765,-3.4119,0.9216,-3.1445,-1.2720,
4.496732,0.2361,-0.9303,-0.1108,-1.6984,-0.4765,-3.4119,0.4085,-2.5166,-1.3502,
4.507915,0.2361,-0.9303,-0.1108,-1.6984,-0.4765,-3.4119,0.1983,-1.8556,-1.4888,
4.511936,0.4545,-0.8904,0.3335,-1.6984,-0.4765,-3.4119,0.1983,-1.8556,-1.4888,
4.513146,0.4545,-0.8904,0.3335,0.1678,-0.1689,1.1284,0.1983,-1.8556,-1.4888,
4.516716,0.4545,-0.8904,0.3335,0.1678,-0.1689,1.1284,0.2319,-1.0670,-1.6318,
4.526764,0.4545,-0.8904,0.3335,0.1678,-0.1689,1.1284,0.4238,-0.0951,-1.7118,
4.531910,0.5464,-0.9946,0.3916,0.1678,-0.1689,1.1284,0.4238,-0.0951,-1.7118,
4.533292,0.5464,-0.9946,0.3916,0.8148,-1.3164,1.7192,0.4238,-0.0951,-1.7118,
4.536758,0.5464,-0.9946,0.3916,0.8148,-1.3164,1.7192,0.6455,0.9898,-1.7191,
4.546806,0.5464,-0.9946,0.3916,0.8148,-1.3164,1.7192,0.8147,1.7845,-1.6702,
4.551968,0.7730,-0.9952,0.2676,0.8148,-1.3164,1.7192,0.8147,1.7845,-1.6702,
4.553092,0.7730,-0.9952,0.2676,2.8349,-1.4958,0.2728,0.8147,1.7845,-1.6702,
4.558069,0.7730,-0.9952,0.2676,2.8349,-1.4958,0.2728,0.8929,2.1920,-1.6177,
4.566762,0.7730,-0.9952,0.2676,2.8349,-1.4958,0.2728,0.9045,2.5072,-1.6428,
4.571932,0.9216,-0.7250,0.4024,2.8349,-1.4958,0.2728,0.9045,2.5072,-1.6428,
4.573127,0.9216,-0.7250,0.4024,4.1411,0.9500,1.2289,0.9045,2.5072,-1.6428,
4.576869,0.9216,-0.7250,0.4024,4.1411,0.9500,1.2289,1.0395,2.8310,-1.7710,
4.586754,0.9216,-0.7250,0.4024,4.1411,0.9500,1.2289,1.3572,3.2836,-1.8450,
4.592106,0.3828,-0.5779,-0.0916,4.1411,0.9500,1.2289,1.3572,3.2836,-1.8450,
4.593504,0.3828,-0.5779,-0.0916,-1.2569,2.1601,-4.0404,1.3572,3.2836,-1.8450,
4.596903,0.3828,-0.5779,-0.0916,-1.2569,2.1601,-4.0404,1.6107,3.9299,-1.8065,
4.608145,0.3828,-0.5779,-0.0916,-1.2569,2.1601,-4.0404,1.6852,4.6092,-1.7045,
4.612058,-0.0134,-0.3646,-0.2435,-1.2569,2.1601,-4.0404,1.6852,4.6092,-1.7045,
4.612814,-0.0134,-0.3646,-0.2435,-5.1115,4.0227,-6.0834,1.6852,4.6092,-1.7045,
4.616762,-0.0134,-0.3646,-0.2435,-5.1115,4.0227,-6.0834,1.6882,4.8737,-1.5768,
4.626945,-0.0134,-0.3646,-0.2435,-5.1115,4.0227,-6.0834,1.6779,4.5493,-1.4393,
4.631958,-0.3770,-0.1083,-0.0012,-5.1115,4.0227,-6.0834,1.6779,4.5493,-1.4393,
4.633053,-0.3770,-0.1083,-0.0012,-8.4779,6.3338,-4.3238,1.6779,4.5493,-1.4393,
4.636848,-0.3770,-0.1083,-0.0012,-8.4779,6.3338,-4.3238,1.6528,3.9232,-1.2866,
4.646879,-0.3770,-0.1083,-0.0012,-8.4779,6.3338,-4.3238,1.6088,3.3013,-1.1205,
4.651973,-0.4655,0.0140,0.2467,-8.4779,6.3338,-4.3238,1.6088,3.3013,-1.1205,
4.653114,-0.4655,0.0140,0.2467,-9.1888,7.2700,-2.4701,1.6088,3.3013,-1.1205,
4.658108,-0.4655,0.0140,0.2467,-9.1888,7.2700,-2.4701,1.5410,2.7919,-0.9311,
4.666818,-0.4655,0.0140,0.2467,-9.1888,7.2700,-2.4701,1.4744,1.9085,-0.5084,
4.672111,-0.2543,-0.1735,0.3169,-9.1888,7.2700,-2.4701,1.4744,1.9085,-0.5084,
4.673156,-0.2543,-0.1735,0.3169,-6.9808,5.2124,-2.2093,1.4744,1.9085,-0.5084,
4.676926,-0.2543,-0.1735,0.3169,-6.9808,5.2124,-2.2093,1.4732,1.5298,-0.2854,
4.686844,-0.2543,-0.1735,0.3169,-6.9808,5.2124,-2.2093,1.4531,1.2366,-0.0796,
4.691988,-0.0193,-0.3676,0.2154,-6.9808,5.2124,-2.2093,1.4531,1.2366,-0.0796,
4.693496,-0.0193,-0.3676,0.2154,-4.5509,3.1333,-3.5268,1.4531,1.2366,-0.0796,
4.696777,-0.0193,-0.3676,0.2154,-4.5509,3.1333,-3.5268,1.3767,1.0252,0.1037,
4.706743,-0.0193,-0.3676,0.2154,-4.5509,3.1333,-3.5268,1.2356,0.8817,0.2705,
4.711901,0.1224,-0.4443,0.1285,-4.5509,3.1333,-3.5268,1.2356,0.8817,0.2705,
4.713633,0.1224,-0.4443,0.1285,-3.0280,2.2475,-4.6331,1.2356,0.8817,0.2705,
4.716806,0.1224,-0.4443,0.1285,-3.0280,2.2475,-4.6331,1.0426,0.7876,0.4317,
4.726877,0.1224,-0.4443,0.1285,-3.0280,2.2475,-4.6331,0.8336,0.7180,0.5704,
4.731977,0.2474,-0.4678,0.1797,-3.0280,2.2475,-4.6331,0.8336,0.7180,0.5704,
4.733185,0.2474,-0.4678,0.1797,-1.6473,1.9457,-4.3174,0.8336,0.7180,0.5704,
4.736817,0.2474,-0.4678,0.1797,-1.6473,1.9457,-4.3174,0.6284,0.6074,0.6761,
4.746743,0.2474,-0.4678,0.1797,-1.6473,1.9457,-4.3174,0.4421,0.4290,0.7671,
4.751958,0.4031,-0.5003,0.5045,-1.6473,1.9457,-4.3174,0.4421,0.4290,0.7671,
4.753086,0.4031,-0.5003,0.5045,0.0439,1.6328,-1.2356,0.4421,0.4290,0.7671,
4.756856,0.4031,-0.5003,0.5045,0.0439,1.6328,-1.2356,0.2771,0.2299,0.8196,
4.766798,0.4031,-0.5003,0.5045,0.0439,1.6328,-1.2356,0.1495,0.0698,0.8050,
4.771961,0.5674,-0.4875,0.7159,0.0439,1.6328,-1.2356,0.1495,0.0698,0.8050,
4.773245,0.5674,-0.4875,0.7159,1.7743,1.7970,0.8026,0.1495,0.0698,0.8050,
4.776832,0.5674,-0.4875,0.7159,1.7743,1.7970,0.8026,0.0505,-0.0419,0.7219,
4.786807,0.5674,-0.4875,0.7159,1.7743,1.7970,0.8026,-0.0478,-0.1116,0.6113,
4.792326,0.5946,-0.4420,0.7869,1.7743,1.7970,0.8026,-0.0478,-0.1116,0.6113,
4.793935,0.5946,-0.4420,0.7869,2.0887,2.2677,1.4951,-0.0478,-0.1116,0.6113,
4.796700,0.5946,-0.4420,0.7869,2.0887,2.2677,1.4951,-0.1480,-0.0902,0.5258,
4.806803,0.5946,-0.4420,0.7869,2.0887,2.2677,1.4951,-0.2720,0.0094,0.4843,
4.811939,0.6346,-0.3476,0.7725,2.0887,2.2677,1.4951,-0.2720,0.0094,0.4843,
4.813648,0.6346,-0.3476,0.7725,2.4792,3.1927,1.3552,-0.2720,0.0094,0.4843,
4.816708,0.6346,-0.3476,0.7725,2.4792,3.1927,1.3552,-0.4614,0.1279,0.4824,
4.826875,0.6346,-0.3476,0.7725,2.4792,3.1927,1.3552,-0.6837,0.1853,0.4995,
4.831943,0.7195,-0.2458,0.8041,2.4792,3.1927,1.3552,-0.6837,0.1853,0.4995,
4.833048,0.7195,-0.2458,0.8041,3.3080,4.2061,1.6831,-0.6837,0.1853,0.4995,
4.836784,0.7195,-0.2458,0.8041,3.3080,4.2061,1.6831,-0.8646,0.1053,0.4971,
4.846677,0.7195,-0.2458,0.8041,3.3080,4.2061,1.6831,-0.9415,-0.1317,0.4244,
4.851966,0.5934,-0.3656,0.7217,3.3080,4.2061,1.6831,-0.9415,-0.1317,0.4244,
4.853052,0.5934,-0.3656,0.7217,2.0422,3.0785,0.9439,-0.9415,-0.1317,0.4244,
4.856847,0.5934,-0.3656,0.7217,2.0422,3.0785,0.9439,-0.9831,-0.9497,0.2179,
4.866712,0.5934,-0.3656,0.7217,2.0422,3.0785,0.9439,-1.2409,-1.4249,0.4433,
4.871965,-0.1680,-0.6704,0.8758,2.0422,3.0785,0.9439,-1.2409,-1.4249,0.4433,
4.873222,-0.1680,-0.6704,0.8758,-5.5146,0.1804,2.6132,-1.2409,-1.4249,0.4433,
4.876792,-0.1680,-0.6704,0.8758,-5.5146,0.1804,2.6132,-1.5591,-1.9026,0.9039,
4.886705,-0.1680,-0.6704,0.8758,-5.5146,0.1804,2.6132,-1.6324,-2.6894,1.3328,
4.892015,0.4891,-1.3517,1.3130,-5.5146,0.1804,2.6132,-1.6324,-2.6894,1.3328,
4.893723,0.4891,-1.3517,1.3130,0.8431,-6.2682,7.2230,-1.6324,-2.6894,1.3328,
4.896792,0.4891,-1.3517,1.3130,0.8431,-6.2682,7.2230,-1.8590,-3.9222,1.2393,
4.906757,0.4891,-1.3517,1.3130,0.8431,-6.2682,7.2230,-2.6361,-4.4493,0.8410,
4.912112,0.6546,-2.1388,-0.8265,0.8431,-6.2682,7.2230,-2.6361,-4.4493,0.8410,
4.913639,0.6546,-2.1388,-0.8265,2.1906,-13.6006,-13.0149,-2.6361,-4.4493,0.8410,
4.916947,0.6546,-2.1388,-0.8265,2.1906,-13.6006,-13.0149,-2.5634,-4.0004,0.7457,
4.932365,0.6546,-2.1388,-0.8265,2.1906,-13.6006,-13.0149,-1.2201,-2.9515,0.6828,
4.933995,0.7523,-1.4759,0.8394,2.1906,-13.6006,-13.0149,-1.2201,-2.9515,0.6828,
4.935563,0.7523,-1.4759,0.8394,2.9516,-6.8472,3.9119,-1.2201,-2.9515,0.6828,
4.937074,0.7523,-1.4759,0.8394,2.9516,-6.8472,3.9119,-0.6825,-2.2148,0.4519,
4.948994,0.7523,-1.4759,0.8394,2.9516,-6.8472,3.9119,-1.2903,-2.1067,0.4104,
4.952072,0.3615,-0.6600,0.5989,2.9516,-6.8472,3.9119,-1.2903,-2.1067,0.4104,
4.953217,0.3615,-0.6600,0.5989,-0.9752,1.2757,1.8945,-1.2903,-2.1067,0.4104,
4.956936,0.3615,-0.6600,0.5989,-0.9752,1.2757,1.8945,-1.6068,-1.8990,0.5765,
4.966789,0.3615,-0.6600,0.5989,-0.9752,1.2757,1.8945,-1.4333,-1.3168,0.8642,
4.971970,0.1182,-1.0084,0.1040,-0.9752,1.2757,1.8945,-1.4333,-1.3168,0.8642,
4.973248,0.1182,-1.0084,0.1040,-3.3228,-1.9324,-2.5713,-1.4333,-1.3168,0.8642,
4.976714,0.1182,-1.0084,0.1040,-3.3228,-1.9324,-2.5713,-1.3215,-0.7805,1.1904,
4.986661,0.1182,-1.0084,0.1040,-3.3228,-1.9324,-2.5713,-1.2525,-0.5587,1.4702,
4.991906,0.1524,-1.2590,0.0441,-3.3228,-1.9324,-2.5713,-1.2525,-0.5587,1.4702,
4.993496,0.1524,-1.2590,0.0441,-2.7570,-4.1402,-2.8675,-1.2525,-0.5587,1.4702,
4.996777,0.1524,-1.2590,0.0441,-2.7570,-4.1402,-2.8675,-1.1456,-0.6614,1.6376,
5.006793,0.1524,-1.2590,0.0441,-2.7570,-4.1402,-2.8675,-1.1370,-1.0108,1.6932,
5.011917,0.2235,-1.2910,-0.1641,-2.7570,-4.1402,-2.8675,-1.1370,-1.0108,1.6932,
5.013629,0.2235,-1.2910,-0.1641,-1.7761,-4.1946,-4.5919,-1.1370,-1.0108,1.6932,
5.016806,0.2235,-1.2910,-0.1641,-1.7761,-4.1946,-4.5919,-1.2506,-1.4420,1.6803,
5.026816,0.2235,-1.2910,-0.1641,-1.7761,-4.1946,-4.5919,-1.4088,-1.7725,1.6089,
5.031886,0.3899,-1.0917,-0.0599,-1.7761,-4.1946,-4.5919,-1.4088,-1.7725,1.6089,
5.033078,0.3899,-1.0917,-0.0599,0.0874,-2.0018,-3.1551,-1.4088,-1.7725,1.6089,
5.036811,0.3899,-1.0917,-0.0599,0.0874,-2.0018,-3.1551,-1.5438,-1.7420,1.3205,
5.046755,0.3899,-1.0917,-0.0599,0.0874,-2.0018,-3.1551,-1.5603,-1.3681,1.1654,
5.051989,0.4659,-0.8761,-0.0248,0.0874,-2.0018,-3.1551,-1.5603,-1.3681,1.1654,
5.052981,0.4659,-0.8761,-0.0248,0.9910,0.2950,-2.3707,-1.5603,-1.3681,1.1654,
5.056887,0.4659,-0.8761,-0.0248,0.9910,0.2950,-2.3707,-1.5817,-0.8318,1.0597,
5.066971,0.4659,-0.8761,-0.0248,0.9910,0.2950,-2.3707,-1.5640,-0.2228,1.0127,
5.072149,0.4859,-0.7078,0.1446,0.9910,0.2950,-2.3707,-1.5640,-0.2228,1.0127,
5.073275,0.4859,-0.7078,0.1446,1.3447,2.0805,-0.3702,-1.5640,-0.2228,1.0127,
5.076730,0.4859,-0.7078,0.1446,1.3447,2.0805,-0.3702,-1.5023,0.3069,1.0273,
5.086726,0.4859,-0.7078,0.1446,1.3447,2.0805,-0.3702,-1.4125,0.6276,1.0945,
5.092187,0.4231,-0.6037,0.3078,1.3447,2.0805,-0.3702,-1.4125,0.6276,1.0945,
5.093680,0.4231,-0.6037,0.3078,0.9164,3.2118,1.4622,-1.4125,0.6276,1.0945,
5.096795,0.4231,-0.6037,0.3078,0.9164,3.2118,1.4622,-1.3343,0.7394,1.1874,
5.106807,0.4231,-0.6037,0.3078,0.9164,3.2118,1.4622,-1.3148,0.7326,1.2527,
5.111913,0.3578,-0.5905,0.2243,0.9164,3.2118,1.4622,-1.3148,0.7326,1.2527,
5.113174,0.3578,-0.5905,0.2243,0.4741,3.4370,0.8204,-1.3148,0.7326,1.2527,
5.116764,0.3578,-0.5905,0.2243,0.4741,3.4370,0.8204,-1.3239,0.7100,1.2570,
5.126947,0.3578,-0.5905,0.2243,0.4741,3.4370,0.8204,-1.3264,0.7503,1.2179,
5.131936,0.3054,-0.6154,0.2139,0.4741,3.4370,0.8204,-1.3264,0.7503,1.2179,
5.133123,0.3054,-0.6154,0.2139,0.1483,3.2753,0.8825,-1.3264,0.7503,1.2179,
5.136866,0.3054,-0.6154,0.2139,0.1483,3.2753,0.8825,-1.3111,0.8261,1.1691,
5.146814,0.3054,-0.6154,0.2139,0.1483,3.2753,0.8825,-1.2665,0.8701,1.1220,
5.151926,0.3679,-0.6502,0.1572,0.1483,3.2753,0.8825,-1.2665,0.8701,1.1220,
5.152995,0.3679,-0.6502,0.1572,0.9215,2.9998,0.4772,-1.2665,0.8701,1.1220,
5.156850,0.3679,-0.6502,0.1572,0.9215,2.9998,0.4772,-1.2207,0.9385,1.0805,
5.166900,0.3679,-0.6502,0.1572,0.9215,2.9998,0.4772,-1.1718,1.0375,1.0371,
5.171973,0.4741,-0.6875,0.1665,0.9215,2.9998,0.4772,-1.1718,1.0375,1.0371,
5.173039,0.4741,-0.6875,0.1665,2.0868,2.6830,0.6936,-1.1718,1.0375,1.0371,
5.176866,0.4741,-0.6875,0.1665,2.0868,2.6830,0.6936,-1.1046,1.1327,0.9693,
5.186708,0.4741,-0.6875,0.1665,2.0868,2.6830,0.6936,-1.0484,1.2170,0.8398,
5.192010,0.5512,-0.7605,0.1504,2.0868,2.6830,0.6936,-1.0484,1.2170,0.8398,
5.193682,0.5512,-0.7605,0.1504,2.9230,1.9980,0.6349,-1.0484,1.2170,0.8398,
5.196781,0.5512,-0.7605,0.1504,2.9230,1.9980,0.6349,-1.0228,1.2836,0.6187,
5.206928,0.5512,-0.7605,0.1504,2.9230,1.9980,0.6349,-1.0228,1.3056,0.3462,
5.211935,0.4873,-0.8641,0.1406,2.9230,1.9980,0.6349,-1.0228,1.3056,0.3462,
5.213413,0.4873,-0.8641,0.1406,2.3004,0.9912,0.6269,-1.0228,1.3056,0.3462,
5.216969,0.4873,-0.8641,0.1406,2.3004,0.9912,0.6269,-0.9403,1.3417,-0.0728,
5.226911,0.4873,-0.8641,0.1406,2.3004,0.9912,0.6269,-0.8621,1.2653,-0.1865,
5.232079,0.4391,-0.9207,-0.0227,2.3004,0.9912,0.6269,-0.8621,1.2653,-0.1865,
5.233154,0.4391,-0.9207,-0.0227,1.7282,0.4164,-0.8893,-0.8621,1.2653,-0.1865,
5.236962,0.4391,-0.9207,-0.0227,1.7282,0.4164,-0.8893,-0.8261,1.0069,-0.2915,
5.246785,0.4391,-0.9207,-0.0227,1.7282,0.4164,-0.8893,-0.7937,0.5885,-0.3813,
5.251980,0.3617,-0.9461,-0.0847,1.7282,0.4164,-0.8893,-0.7937,0.5885,-0.3813,
5.253170,0.3617,-0.9461,-0.0847,0.8427,0.1391,-1.3869,-0.7937,0.5885,-0.3813,
5.256776,0.3617,-0.9461,-0.0847,0.8427,0.1391,-1.3869,-0.7326,0.1651,-0.4284,
5.266733,0.3617,-0.9461,-0.0847,0.8427,0.1391,-1.3869,-0.6337,-0.1708,-0.4430,
5.272067,0.2542,-0.9179,0.0051,0.8427,0.1391,-1.3869,-0.6337,-0.1708,-0.4430,
5.273069,0.2542,-0.9179,0.0051,-0.3272,0.3881,-0.3789,-0.6337,-0.1708,-0.4430,
5.276733,0.2542,-0.9179,0.0051,-0.3272,0.3881,-0.3789,-0.4840,-0.3596,-0.4717,
5.286758,0.2542,-0.9179,0.0051,-0.3272,0.3881,-0.3789,-0.2830,-0.3846,-0.5188,
5.292337,0.1818,-0.9651,0.0663,-0.3272,0.3881,-0.3789,-0.2830,-0.3846,-0.5188,
5.293764,0.1818,-0.9651,0.0663,-1.1392,-0.1027,0.3117,-0.2830,-0.3846,-0.5188,
5.296804,0.1818,-0.9651,0.0663,-1.1392,-0.1027,0.3117,-0.0717,-0.3113,-0.5634,
5.306673,0.1818,-0.9651,0.0663,-1.1392,-0.1027,0.3117,0.1092,-0.2081,-0.5945,
5.311945,0.0933,-1.1166,-0.0321,-1.1392,-0.1027,0.3117,0.1092,-0.2081,-0.5945,
5.313398,0.0933,-1.1166,-0.0321,-2.1096,-1.6197,-0.6404,0.1092,-0.2081,-0.5945,
5.316773,0.0933,-1.1166,-0.0321,-2.1096,-1.6197,-0.6404,0.2368,-0.1928,-0.6110,
5.326839,0.0933,-1.1166,-0.0321,-2.1096,-1.6197,-0.6404,0.2875,-0.2661,-0.5982,
5.331922,0.0049,-0.9438,0.1886,-2.1096,-1.6197,-0.6404,0.2875,-0.2661,-0.5982,
5.333090,0.0049,-0.9438,0.1886,-3.0531,0.0472,1.4768,0.2875,-0.2661,-0.5982,
5.336960,0.0049,-0.9438,0.1886,-3.0531,0.0472,1.4768,0.3211,-0.2588,-0.5292,
5.346707,0.0049,-0.9438,0.1886,-3.0531,0.0472,1.4768,0.4012,-0.1562,-0.3972,
5.352121,0.0892,-0.7817,0.1985,-3.0531,0.0472,1.4768,0.4012,-0.1562,-0.3972,
5.353201,0.0892,-0.7817,0.1985,-2.2596,1.6213,1.4925,0.4012,-0.1562,-0.3972,
5.356913,0.0892,-0.7817,0.1985,-2.2596,1.6213,1.4925,0.4653,-0.1507,-0.2219,
5.366745,0.0892,-0.7817,0.1985,-2.2596,1.6213,1.4925,0.4604,-0.3144,-0.0154,
5.371992,0.4253,-0.7641,0.2502,-2.2596,1.6213,1.4925,0.4604,-0.3144,-0.0154,
5.373316,0.4253,-0.7641,0.2502,1.0282,1.7858,1.8963,0.4604,-0.3144,-0.0154,
5.376726,0.4253,-0.7641,0.2502,1.0282,1.7858,1.8963,0.4494,-0.4903,0.1825,
5.386706,0.4253,-0.7641,0.2502,1.0282,1.7858,1.8963,0.5032,-0.5508,0.3028,
5.392574,0.7310,-0.9324,0.1780,1.0282,1.7858,1.8963,0.5032,-0.5508,0.3028,
5.393971,0.7310,-0.9324,0.1780,4.0428,0.1374,1.1049,0.5032,-0.5508,0.3028,
5.396720,0.7310,-0.9324,0.1780,4.0428,0.1374,1.1049,0.5569,-0.5331,0.3413,
5.406657,0.7310,-0.9324,0.1780,4.0428,0.1374,1.1049,0.2411,-0.3663,0.3254,
5.411948,0.8035,-1.1039,-0.0374,4.0428,0.1374,1.1049,0.2411,-0.3663,0.3254,
5.413334,0.8035,-1.1039,-0.0374,4.7551,-1.5469,-1.0613,0.2411,-0.3663,0.3254,
5.416722,0.8035,-1.1039,-0.0374,4.7551,-1.5469,-1.0613,-0.0655,-0.1427,0.3126,
5.426757,0.8035,-1.1039,-0.0374,4.7551,-1.5469,-1.0613,-0.3856,0.0955,0.2961,
5.431941,0.7219,-1.1944,-0.2779,4.7551,-1.5469,-1.0613,-0.3856,0.0955,0.2961,
5.433118,0.7219,-1.1944,-0.2779,3.9436,-2.4330,-3.3486,-0.3856,0.0955,0.2961,
5.436809,0.7219,-1.1944,-0.2779,3.9436,-2.4330,-3.3486,-0.6556,0.2458,0.2644,
5.446753,0.7219,-1.1944,-0.2779,3.9436,-2.4330,-3.3486,-0.8291,0.2940,0.2283,
5.452142,0.4580,-1.3425,-0.1071,3.9436,-2.4330,-3.3486,-0.8291,0.2940,0.2283,
5.453151,0.4580,-1.3425,-0.1071,1.3650,-3.8723,-1.5283,-0.8291,0.2940,0.2283,
5.456739,0.4580,-1.3425,-0.1071,1.3650,-3.8723,-1.5283,-0.8688,0.2879,0.2314,
5.466892,0.4580,-1.3425,-0.1071,1.3650,-3.8723,-1.5283,-0.7900,0.3478,0.2986,
5.472068,0.2664,-1.6211,0.4152,1.3650,-3.8723,-1.5283,-0.7900,0.3478,0.2986,
5.473162,0.2664,-1.6211,0.4152,-0.4641,-6.5812,3.7208,-0.7900,0.3478,0.2986,
5.476764,0.2664,-1.6211,0.4152,-0.4641,-6.5812,3.7208,-0.6776,0.5787,0.4006,
5.486752,0.2664,-1.6211,0.4152,-0.4641,-6.5812,3.7208,-0.5781,0.7357,0.5136,
5.492686,0.5516,-1.5557,0.3709,-0.4641,-6.5812,3.7208,-0.5781,0.7357,0.5136,
5.494379,0.5516,-1.5557,0.3709,2.4138,-5.9117,3.3469,-0.5781,0.7357,0.5136,
5.496769,0.5516,-1.5557,0.3709,2.4138,-5.9117,3.3469,-0.4986,0.6441,0.5912,
5.506683,0.5516,-1.5557,0.3709,2.4138,-5.9117,3.3469,-0.4119,0.4492,0.6174,
5.511915,0.6141,-1.3527,0.1655,2.4138,-5.9117,3.3469,-0.4119,0.4492,0.6174,
5.513481,0.6141,-1.3527,0.1655,3.1304,-3.8881,1.3727,-0.4119,0.4492,0.6174,
5.516757,0.6141,-1.3527,0.1655,3.1304,-3.8881,1.3727,-0.3013,0.3325,0.6022,
5.526854,0.6141,-1.3527,0.1655,3.1304,-3.8881,1.3727,-0.1676,0.2995,0.5075,
5.532015,0.4478,-1.1418,0.0553,3.1304,-3.8881,1.3727,-0.1676,0.2995,0.5075,
5.533187,0.4478,-1.1418,0.0553,1.5858,-1.7949,0.2986,-0.1676,0.2995,0.5075,
5.536834,0.4478,-1.1418,0.0553,1.5858,-1.7949,0.2986,-0.0472,0.2757,0.3114,
5.546688,0.4478,-1.1418,0.0553,1.5858,-1.7949,0.2986,0.0621,0.1468,0.1233,
5.551998,0.1090,-0.9832,0.0954,1.5858,-1.7949,0.2986,0.0621,0.1468,0.1233,
5.553084,0.1090,-0.9832,0.0954,-1.6987,-0.2310,0.6637,0.0621,0.1468,0.1233,
5.556768,0.1090,-0.9832,0.0954,-1.6987,-0.2310,0.6637,0.1690,-0.0658,0.0310,
5.566765,0.1090,-0.9832,0.0954,-1.6987,-0.2310,0.6637,0.2930,-0.2289,0.0145,
5.571982,0.1055,-0.9660,0.2581,-1.6987,-0.2310,0.6637,0.2930,-0.2289,0.0145,
5.573129,0.1055,-0.9660,0.2581,-1.7245,-0.0620,2.1962,0.2930,-0.2289,0.0145,
5.576894,0.1055,-0.9660,0.2581,-1.7245,-0.0620,2.1962,0.4641,-0.2423,0.0035,
5.586807,0.1055,-0.9660,0.2581,-1.7245,-0.0620,2.1962,0.6956,-0.0090,-0.2665,
5.592949,0.3264,-1.1249,0.4347,-1.7245,-0.0620,2.1962,0.6956,-0.0090,-0.2665,
5.594289,0.3264,-1.1249,0.4347,0.4200,-1.6321,3.7708,0.6956,-0.0090,-0.2665,
5.596882,0.3264,-1.1249,0.4347,0.4200,-1.6321,3.7708,1.2851,0.0240,-0.4497,
5.606741,0.3264,-1.1249,0.4347,0.4200,-1.6321,3.7708,1.5734,-0.0285,-0.6098,
5.612086,0.3770,-1.2166,0.5195,0.4200,-1.6321,3.7708,1.5734,-0.0285,-0.6098,
5.613536,0.3770,-1.2166,0.5195,0.8247,-2.5822,4.2650,1.5734,-0.0285,-0.6098,
5.616926,0.3770,-1.2166,0.5195,0.8247,-2.5822,4.2650,1.7701,-0.1690,-0.7442,
5.626728,0.3770,-1.2166,0.5195,0.8247,-2.5822,4.2650,1.9051,-0.2979,-0.8444,
5.632133,0.2680,-1.1964,0.4781,0.8247,-2.5822,4.2650,1.9051,-0.2979,-0.8444,
5.633149,0.2680,-1.1964,0.4781,-0.3746,-2.4684,3.4647,1.9051,-0.2979,-0.8444,
5.636838,0.2680,-1.1964,0.4781,-0.3746,-2.4684,3.4647,2.0676,-0.2655,-0.8908,
5.646749,0.2680,-1.1964,0.4781,-0.3746,-2.4684,3.4647,2.2887,-0.0749,-0.8877,
5.651894,0.1549,-1.1668,0.3938,-0.3746,-2.4684,3.4647,2.2887,-0.0749,-0.8877,
5.653041,0.1549,-1.1668,0.3938,-1.6125,-2.2908,2.1983,2.2887,-0.0749,-0.8877,
5.656779,0.1549,-1.1668,0.3938,-1.6125,-2.2908,2.1983,2.4647,0.0210,-0.8523,
5.666770,0.1549,-1.1668,0.3938,-1.6125,-2.2908,2.1983,2.4848,-0.2038,-0.7985,
5.672169,0.0849,-1.1358,-0.1459,-1.6125,-2.2908,2.1983,2.4848,-0.2038,-0.7985,
5.673206,0.0849,-1.1358,-0.1459,-2.3985,-2.1119,-3.5263,2.4848,-0.2038,-0.7985,
5.676819,0.0849,-1.1358,-0.1459,-2.3985,-2.1119,-3.5263,2.4146,-0.7512,-0.7454,
5.686715,0.0849,-1.1358,-0.1459,-2.3985,-2.1119,-3.5263,2.3113,-1.4188,-0.7191,
5.692925,0.0870,-0.9659,-0.3177,-2.3985,-2.1119,-3.5263,2.3113,-1.4188,-0.7191,
5.694403,0.0870,-0.9659,-0.3177,-2.4906,-0.5583,-5.4923,2.3113,-1.4188,-0.7191,
5.696714,0.0870,-0.9659,-0.3177,-2.4906,-0.5583,-5.4923,2.1299,-1.9992,-0.7210,
5.706708,0.0870,-0.9659,-0.3177,-2.4906,-0.5583,-5.4923,1.8312,-2.3235,-0.7283,
5.712128,0.2144,-0.9158,-0.3298,-2.4906,-0.5583,-5.4923,1.8312,-2.3235,-0.7283,
5.713549,0.2144,-0.9158,-0.3298,-1.4128,-0.1581,-5.7003,1.8312,-2.3235,-0.7283,
5.716773,0.2144,-0.9158,-0.3298,-1.4128,-0.1581,-5.7003,1.4262,-2.3803,-0.7656,
5.726951,0.2144,-0.9158,-0.3298,-1.4128,-0.1581,-5.7003,0.9821,-2.2472,-0.8657,
5.731996,0.5817,-0.8460,-0.0363,-1.4128,-0.1581,-5.7003,0.9821,-2.2472,-0.8657,
5.733080,0.5817,-0.8460,-0.0363,1.9599,0.4504,-2.7563,0.9821,-2.2472,-0.8657,
5.736821,0.5817,-0.8460,-0.0363,1.9599,0.4504,-2.7563,0.6223,-2.1036,-1.0551,
5.746774,0.5817,-0.8460,-0.0363,1.9599,0.4504,-2.7563,0.4445,-2.1048,-1.3465,
5.751991,0.8865,-0.7025,0.2901,1.9599,0.4504,-2.7563,0.4445,-2.1048,-1.3465,
5.753138,0.8865,-0.7025,0.2901,4.6220,1.7492,0.5843,0.4445,-2.1048,-1.3465,
5.756809,0.8865,-0.7025,0.2901,4.6220,1.7492,0.5843,0.4201,-2.2325,-1.7057,
5.766664,0.8865,-0.7025,0.2901,4.6220,1.7492,0.5843,0.3932,-2.3229,-2.0423,
5.771852,0.7563,-0.6820,0.3772,4.6220,1.7492,0.5843,0.3932,-2.3229,-2.0423,
5.772993,0.7563,-0.6820,0.3772,2.9055,1.7665,1.5829,0.3932,-2.3229,-2.0423,
5.776888,0.7563,-0.6820,0.3772,2.9055,1.7665,1.5829,0.3230,-1.7237,-2.1895,
5.786849,0.7563,-0.6820,0.3772,2.9055,1.7665,1.5829,0.2930,-0.7554,-1.9207,
5.792865,0.4997,-0.6073,0.1490,2.9055,1.7665,1.5829,0.2930,-0.7554,-1.9207,
5.794363,0.4997,-0.6073,0.1490,-0.0148,2.2876,-0.5769,0.2930,-0.7554,-1.9207,
5.796769,0.4997,-0.6073,0.1490,-0.0148,2.2876,-0.5769,0.1195,0.3478,-1.6415,
5.806664,0.4997,-0.6073,0.1490,-0.0148,2.2876,-0.5769,-0.0607,1.0888,-1.5175,
5.811996,0.4290,-0.5783,-0.1495,-0.0148,2.2876,-0.5769,-0.0607,1.0888,-1.5175,
5.813490,0.4290,-0.5783,-0.1495,-0.9516,2.4149,-3.5316,-0.0607,1.0888,-1.5175,
5.816765,0.4290,-0.5783,-0.1495,-0.9516,2.4149,-3.5316,-0.1608,1.5158,-1.5414,
5.826653,0.4290,-0.5783,-0.1495,-0.9516,2.4149,-3.5316,-0.1883,1.9873,-1.5939,
5.831902,0.2867,-0.7356,-0.1308,-0.9516,2.4149,-3.5316,-0.1883,1.9873,-1.5939,
5.833130,0.2867,-0.7356,-0.1308,-2.5173,0.7418,-3.4222,-0.1883,1.9873,-1.5939,
5.836747,0.2867,-0.7356,-0.1308,-2.5173,0.7418,-3.4222,-0.0637,2.5066,-1.6385,
5.846746,0.2867,-0.7356,-0.1308,-2.5173,0.7418,-3.4222,0.2717,2.8316,-1.6586,
5.852000,0.0661,-0.8306,0.2613,-2.5173,0.7418,-3.4222,0.2717,2.8316,-1.6586,
5.853075,0.0661,-0.8306,0.2613,-4.7635,-0.3176,0.1743,0.2717,2.8316,-1.6586,
5.856809,0.0661,-0.8306,0.2613,-4.7635,-0.3176,0.1743,0.6143,2.8334,-1.6458,
5.866804,0.0661,-0.8306,0.2613,-4.7635,-0.3176,0.1743,0.7457,2.4266,-1.6348,
5.871950,-0.1700,-0.8258,0.3650,-4.7635,-0.3176,0.1743,0.7457,2.4266,-1.6348,
5.873071,-0.1700,-0.8258,0.3650,-7.0831,-0.3942,0.8261,0.7457,2.4266,-1.6348,
5.876842,-0.1700,-0.8258,0.3650,-7.0831,-0.3942,0.8261,0.7628,1.8059,-1.6073,
5.886794,-0.1700,-0.8258,0.3650,-7.0831,-0.3942,0.8261,0.8110,1.1975,-1.5756,
5.893440,-0.0706,-0.7076,0.2316,-7.0831,-0.3942,0.8261,0.8110,1.1975,-1.5756,
5.894892,-0.0706,-0.7076,0.2316,-6.1228,0.6540,-0.7447,0.8110,1.1975,-1.5756,
5.896782,-0.0706,-0.7076,0.2316,-6.1228,0.6540,-0.7447,0.9228,0.7363,-1.5566,
5.906816,-0.0706,-0.7076,0.2316,-6.1228,0.6540,-0.7447,1.0639,0.4834,-1.5359,
5.912181,0.1499,-0.6061,0.1060,-6.1228,0.6540,-0.7447,1.0639,0.4834,-1.5359,
5.913472,0.1499,-0.6061,0.1060,-4.0191,1.5325,-2.1569,1.0639,0.4834,-1.5359,
5.916980,0.1499,-0.6061,0.1060,-4.0191,1.5325,-2.1569,1.1788,0.3991,-1.4968,
5.926906,0.1499,-0.6061,0.1060,-4.0191,1.5325,-2.1569,1.2142,0.4107,-1.4424,
5.932064,0.3231,-0.5871,0.1697,-4.0191,1.5325,-2.1569,1.2142,0.4107,-1.4424,
5.933152,0.3231,-0.5871,0.1697,-2.3996,1.5802,-1.7152,1.2142,0.4107,-1.4424,
5.936982,0.3231,-0.5871,0.1697,-2.3996,1.5802,-1.7152,1.1611,0.4858,-1.3795,
5.946902,0.3231,-0.5871,0.1697,-2.3996,1.5802,-1.7152,1.0774,0.6043,-1.2921,
5.952068,0.3897,-0.6257,0.3032,-2.3996,1.5802,-1.7152,1.0774,0.6043,-1.2921,
5.953069,0.3897,-0.6257,0.3032,-1.8120,1.0598,-0.5995,1.0774,0.6043,-1.2921,
5.956903,0.3897,-0.6257,0.3032,-1.8120,1.0598,-0.5995,1.0029,0.8609,-1.0276,
5.966849,0.3897,-0.6257,0.3032,-1.8120,1.0598,-0.5995,0.9729,0.9415,-0.8792,
5.972120,0.4299,-0.6044,0.3894,-1.8120,1.0598,-0.5995,0.9729,0.9415,-0.8792,
5.973188,0.4299,-0.6044,0.3894,-1.4172,1.1526,0.0205,0.9729,0.9415,-0.8792,
5.976838,0.4299,-0.6044,0.3894,-1.4172,1.1526,0.0205,0.9289,0.9672,-0.7307,
5.986749,0.4299,-0.6044,0.3894,-1.4172,1.1526,0.0205,0.8624,0.9611,-0.5786,
5.993386,0.4185,-0.5330,0.4021,-1.4172,1.1526,0.0205,0.8624,0.9611,-0.5786,
5.994793,0.4185,-0.5330,0.4021,-1.4917,1.7558,-0.0824,0.8624,0.9611,-0.5786,
5.996730,0.4185,-0.5330,0.4021,-1.4917,1.7558,-0.0824,0.7713,0.9623,-0.4339,
6.006812,0.4185,-0.5330,0.4021,-1.4917,1.7558,-0.0824,0.6547,0.9764,-0.2885,
6.013293,0.4275,-0.4336,0.3953,-1.4917,1.7558,-0.0824,0.6547,0.9764,-0.2885,
6.014860,0.4275,-0.4336,0.3953,-1.3506,2.6474,-0.3575,0.6547,0.9764,-0.2885,
6.016765,0.4275,-0.4336,0.3953,-1.3506,2.6474,-0.3575,0.5264,0.9751,-0.1431,
6.027163,0.4275,-0.4336,0.3953,-1.3506,2.6474,-0.3575,0.3920,0.9568,0.0078,
6.031919,0.4768,-0.3757,0.4150,-1.3506,2.6474,-0.3575,0.3920,0.9568,0.0078,
6.033162,0.4768,-0.3757,0.4150,-0.7911,3.1684,-0.3369,0.3920,0.9568,0.0078,
6.036741,0.4768,-0.3757,0.4150,-0.7911,3.1684,-0.3369,0.2533,0.9177,0.1623,
6.046763,0.4768,-0.3757,0.4150,-0.7911,3.1684,-0.3369,0.1086,0.8505,0.2973,
6.051918,0.7660,-0.3733,0.6244,-0.7911,3.1684,-0.3369,0.1086,0.8505,0.2973,
6.053014,0.7660,-0.3733,0.6244,2.1310,3.1680,1.5732,0.1086,0.8505,0.2973,
6.056694,0.7660,-0.3733,0.6244,2.1310,3.1680,1.5732,-0.0265,0.7247,0.3865,
6.066736,0.7660,-0.3733,0.6244,2.1310,3.1680,1.5732,-0.1505,0.4657,0.4317,
6.071894,1.0339,-0.4020,0.7782,2.1310,3.1680,1.5732,-0.1505,0.4657,0.4317,
6.073051,1.0339,-0.4020,0.7782,4.8027,2.8620,2.9895,-0.1505,0.4657,0.4317,
6.076781,1.0339,-0.4020,0.7782,4.8027,2.8620,2.9895,-0.2177,0.1108,0.4513,
6.086675,1.0339,-0.4020,0.7782,4.8027,2.8620,2.9895,-0.1938,-0.2075,0.4598,
6.093478,0.8218,-0.4294,0.3768,4.8027,2.8620,2.9895,-0.1938,-0.2075,0.4598,
6.094993,0.8218,-0.4294,0.3768,2.6995,2.5819,-0.9328,-0.1938,-0.2075,0.4598,
6.096730,0.8218,-0.4294,0.3768,2.6995,2.5819,-0.9328,-0.2415,-0.3914,0.5173,
6.106683,0.8218,-0.4294,0.3768,2.6995,2.5819,-0.9328,-0.4864,-0.5123,0.6743,
6.112134,0.6462,-0.4347,0.5893,2.6995,2.5819,-0.9328,-0.4864,-0.5123,0.6743,
6.113532,0.6462,-0.4347,0.5893,0.9433,2.5437,1.2110,-0.4864,-0.5123,0.6743,
6.116830,0.6462,-0.4347,0.5893,0.9433,2.5437,1.2110,-0.7876,-0.5856,0.8508,
6.127312,0.6462,-0.4347,0.5893,0.9433,2.5437,1.2110,-1.1566,-0.6632,0.8911,
6.131941,0.3498,-1.1078,0.6253,0.9433,2.5437,1.2110,-1.1566,-0.6632,0.8911,
6.133123,0.3498,-1.1078,0.6253,-1.9096,-3.9007,1.7357,-1.1566,-0.6632,0.8911,
6.136804,0.3498,-1.1078,0.6253,-1.9096,-3.9007,1.7357,-1.7937,-1.3009,0.9284,
6.146753,0.3498,-1.1078,0.6253,-1.9096,-3.9007,1.7357,-1.2580,-1.4439,1.7463,
6.151982,0.5337,-1.4926,0.4907,-1.9096,-3.9007,1.7357,-1.2580,-1.4439,1.7463,
6.153034,0.5337,-1.4926,0.4907,-0.0261,-7.3997,0.7711,-1.2580,-1.4439,1.7463,
6.156791,0.5337,-1.4926,0.4907,-0.0261,-7.3997,0.7711,-0.7045,-1.5160,1.9412,
6.166748,0.5337,-1.4926,0.4907,-0.0261,-7.3997,0.7711,-1.0136,-2.2600,1.8312,
6.171954,0.9028,-1.6491,0.4090,-0.0261,-7.3997,0.7711,-1.0136,-2.2600,1.8312,
6.173086,0.9028,-1.6491,0.4090,3.7273,-8.6669,0.2941,-1.0136,-2.2600,1.8312,
6.176906,0.9028,-1.6491,0.4090,3.7273,-8.6669,0.2941,-1.3594,-2.3064,1.6321,
6.186730,0.9028,-1.6491,0.4090,3.7273,-8.6669,0.2941,-1.5768,-1.4219,1.3468,
6.192197,0.5866,-1.0563,0.1882,3.7273,-8.6669,0.2941,-1.5768,-1.4219,1.3468,
6.193416,0.5866,-1.0563,0.1882,0.7265,-2.6004,-1.4526,-1.5768,-1.4219,1.3468,
6.196874,0.5866,-1.0563,0.1882,0.7265,-2.6004,-1.4526,-1.6849,-0.6717,1.2179,
6.206747,0.5866,-1.0563,0.1882,0.7265,-2.6004,-1.4526,-1.6318,-0.3810,1.2253,
6.212628,0.3621,-0.7578,0.0932,0.7265,-2.6004,-1.4526,-1.6318,-0.3810,1.2253,
6.214125,0.3621,-0.7578,0.0932,-1.3127,0.5519,-2.0670,-1.6318,-0.3810,1.2253,
6.216767,0.3621,-0.7578,0.0932,-1.3127,0.5519,-2.0670,-1.5237,-0.4769,1.3053,
6.227172,0.3621,-0.7578,0.0932,-1.3127,0.5519,-2.0670,-1.4345,-0.7811,1.4195,
6.231883,0.2926,-0.8563,-0.0472,-1.3127,0.5519,-2.0670,-1.4345,-0.7811,1.4195,
6.233004,0.2926,-0.8563,-0.0472,-1.8031,-0.1911,-3.1286,-1.4345,-0.7811,1.4195,
6.236796,0.2926,-0.8563,-0.0472,-1.8031,-0.1911,-3.1286,-1.4192,-1.1342,1.5453,
6.246850,0.2926,-0.8563,-0.0472,-1.8031,-0.1911,-3.1286,-1.4815,-1.4225,1.6700,
6.251971,0.3679,-0.9406,-0.0343,-1.8031,-0.1911,-3.1286,-1.4815,-1.4225,1.6700,
6.253086,0.3679,-0.9406,-0.0343,-0.8556,-0.7894,-2.6237,-1.4815,-1.4225,1.6700,
6.256746,0.3679,-0.9406,-0.0343,-0.8556,-0.7894,-2.6237,-1.5243,-1.5514,1.7579,
6.266731,0.3679,-0.9406,-0.0343,-0.8556,-0.7894,-2.6237,-1.5121,-1.4824,1.7866,
6.271975,0.4427,-0.9423,0.0110,-0.8556,-0.7894,-2.6237,-1.5121,-1.4824,1.7866,
6.273236,0.4427,-0.9423,0.0110,0.1160,-0.5849,-1.7703,-1.5121,-1.4824,1.7866,
6.277124,0.4427,-0.9423,0.0110,0.1160,-0.5849,-1.7703,-1.4797,-1.2368,1.7610,
6.286720,0.4427,-0.9423,0.0110,0.1160,-0.5849,-1.7703,-1.4394,-0.8385,1.6987,
6.292103,0.4613,-0.8529,0.0481,0.1160,-0.5849,-1.7703,-1.4394,-0.8385,1.6987,
6.293221,0.4613,-0.8529,0.0481,0.5573,0.4815,-1.0536,-1.4394,-0.8385,1.6987,
6.296815,0.4613,-0.8529,0.0481,0.5573,0.4815,-1.0536,-1.4198,-0.3773,1.6217,
6.306778,0.4613,-0.8529,0.0481,0.5573,0.4815,-1.0536,-1.4455,0.0430,1.5594,
6.312145,0.3935,-0.7581,0.1246,0.5573,0.4815,-1.0536,-1.4455,0.0430,1.5594,
6.313507,0.3935,-0.7581,0.1246,0.1585,1.5671,-0.0303,-1.4455,0.0430,1.5594,
6.316800,0.3935,-0.7581,0.1246,0.1585,1.5671,-0.0303,-1.4675,0.3814,1.5264,
6.327149,0.3935,-0.7581,0.1246,0.1585,1.5671,-0.0303,-1.3539,0.8310,1.4830,
6.331930,0.3486,-0.6726,0.1807,0.1585,1.5671,-0.0303,-1.3539,0.8310,1.4830,
6.333119,0.3486,-0.6726,0.1807,-0.0214,2.5333,0.7243,-1.3539,0.8310,1.4830,
6.336960,0.3486,-0.6726,0.1807,-0.0214,2.5333,0.7243,-1.2714,0.8420,1.4299,
6.346754,0.3486,-0.6726,0.1807,-0.0214,2.5333,0.7243,-1.2005,0.7528,1.3578,
6.351978,0.3155,-0.5913,0.1829,-0.0214,2.5333,0.7243,-1.2005,0.7528,1.3578,
6.353047,0.3155,-0.5913,0.1829,-0.1222,3.4260,0.8924,-1.2005,0.7528,1.3578,
6.356757,0.3155,-0.5913,0.1829,-0.1222,3.4260,0.8924,-1.1620,0.6593,1.2680,
6.366730,0.3155,-0.5913,0.1829,-0.1222,3.4260,0.8924,-1.1346,0.5793,1.1917,
6.372016,0.2717,-0.5836,0.2547,-0.1222,3.4260,0.8924,-1.1346,0.5793,1.1917,
6.373040,0.2717,-0.5836,0.2547,-0.3691,3.5739,1.7160,-1.1346,0.5793,1.1917,
6.377092,0.2717,-0.5836,0.2547,-0.3691,3.5739,1.7160,-1.0839,0.5286,1.1403,
6.386766,0.2717,-0.5836,0.2547,-0.3691,3.5739,1.7160,-1.0142,0.5549,1.1055,
6.392873,0.3178,-0.6400,0.2190,-0.3691,3.5739,1.7160,-1.0142,0.5549,1.1055,
6.394102,0.3178,-0.6400,0.2190,0.2395,3.0791,1.4632,-1.0142,0.5549,1.1055,
6.396852,0.3178,-0.6400,0.2190,0.2395,3.0791,1.4632,-0.9299,0.6752,1.0909,
6.406751,0.3178,-0.6400,0.2190,0.2395,3.0791,1.4632,-0.8151,0.8267,1.0860,
6.412323,0.4240,-0.7379,0.2167,0.2395,3.0791,1.4632,-0.8151,0.8267,1.0860,
6.413733,0.4240,-0.7379,0.2167,1.4189,2.1642,1.4906,-0.8151,0.8267,1.0860,
6.416836,0.4240,-0.7379,0.2167,1.4189,2.1642,1.4906,-0.6953,0.9354,1.0530,
6.427088,0.4240,-0.7379,0.2167,1.4189,2.1642,1.4906,-0.6288,0.9556,0.9577,
6.431972,0.6659,-0.7670,0.0596,1.4189,2.1642,1.4906,-0.6288,0.9556,0.9577,
6.433134,0.6659,-0.7670,0.0596,3.8815,1.9073,-0.0244,-0.6288,0.9556,0.9577,
6.436777,0.6659,-0.7670,0.0596,3.8815,1.9073,-0.0244,-0.6563,0.9580,0.7720,
6.446930,0.6659,-0.7670,0.0596,3.8815,1.9073,-0.0244,-0.7583,0.9721,0.5307,
6.451910,0.7363,-0.8895,0.0456,3.8815,1.9073,-0.0244,-0.7583,0.9721,0.5307,
6.452963,0.7363,-0.8895,0.0456,4.5787,0.7115,-0.1117,-0.7583,0.9721,0.5307,
6.456822,0.7363,-0.8895,0.0456,4.5787,0.7115,-0.1117,-0.9055,1.0430,0.2674,
6.466756,0.7363,-0.8895,0.0456,4.5787,0.7115,-0.1117,-1.0240,1.0845,0.0469,
6.472341,0.7125,-0.9848,-0.0126,4.5787,0.7115,-0.1117,-1.0240,1.0845,0.0469,
6.473423,0.7125,-0.9848,-0.0126,4.2579,-0.2413,-0.5729,-1.0240,1.0845,0.0469,
6.477227,0.7125,-0.9848,-0.0126,4.2579,-0.2413,-0.5729,-1.0936,1.0717,-0.1132,
6.486766,0.7125,-0.9848,-0.0126,4.2579,-0.2413,-0.5729,-1.1278,0.9275,-0.2310,
6.491986,0.6215,-0.8790,-0.1670,4.2579,-0.2413,-0.5729,-1.1278,0.9275,-0.2310,
6.493175,0.6215,-0.8790,-0.1670,3.2187,0.7578,-1.9274,-1.1278,0.9275,-0.2310,
6.496858,0.6215,-0.8790,-0.1670,3.2187,0.7578,-1.9274,-1.1816,0.7180,-0.3233,
6.506747,0.6215,-0.8790,-0.1670,3.2187,0.7578,-1.9274,-1.2457,0.5445,-0.3856,
6.512080,0.4120,-0.7788,-0.1377,3.2187,0.7578,-1.9274,-1.2457,0.5445,-0.3856,
6.513456,0.4120,-0.7788,-0.1377,0.9986,1.6907,-1.4358,-1.2457,0.5445,-0.3856,
6.516781,0.4120,-0.7788,-0.1377,0.9986,1.6907,-1.4358,-1.2647,0.2110,-0.4601,
6.527521,0.4120,-0.7788,-0.1377,0.9986,1.6907,-1.4358,-1.2219,0.0869,-0.4833,
6.532093,0.1627,-0.8365,-0.0781,0.9986,1.6907,-1.4358,-1.2219,0.0869,-0.4833,
6.533196,0.1627,-0.8365,-0.0781,-1.5893,1.0765,-0.6189,-1.2219,0.0869,-0.4833,
6.536735,0.1627,-0.8365,-0.0781,-1.5893,1.0765,-0.6189,-1.1511,0.0369,-0.4546,
6.546729,0.1627,-0.8365,-0.0781,-1.5893,1.0765,-0.6189,-1.0387,0.1016,-0.3563,
6.551974,-0.1415,-0.9690,0.0762,-1.5893,1.0765,-0.6189,-1.0387,0.1016,-0.3563,
6.553047,-0.1415,-0.9690,0.0762,-4.6424,-0.2526,1.0879,-1.0387,0.1016,-0.3563,
6.556760,-0.1415,-0.9690,0.0762,-4.6424,-0.2526,1.0879,-0.9128,0.3447,-0.1895,
6.566729,-0.1415,-0.9690,0.0762,-4.6424,-0.2526,1.0879,-0.8945,0.6105,-0.0142,
6.571998,-0.2590,-1.0820,0.0788,-4.6424,-0.2526,1.0879,-0.8945,0.6105,-0.0142,
6.573137,-0.2590,-1.0820,0.0788,-5.7435,-1.3470,1.2231,-0.8945,0.6105,-0.0142,
6.577418,-0.2590,-1.0820,0.0788,-5.7435,-1.3470,1.2231,-1.0197,0.7522,0.1251,
6.586726,-0.2590,-1.0820,0.0788,-5.7435,-1.3470,1.2231,-1.1388,0.8157,0.2699,
6.592477,-0.0493,-1.1842,0.2348,-5.7435,-1.3470,1.2231,-1.1388,0.8157,0.2699,
6.593868,-0.0493,-1.1842,0.2348,-3.5698,-2.3125,2.8485,-1.1388,0.8157,0.2699,
6.596959,-0.0493,-1.1842,0.2348,-3.5698,-2.3125,2.8485,-1.0594,0.7833,0.3725,
6.606902,-0.0493,-1.1842,0.2348,-3.5698,-2.3125,2.8485,-0.7845,0.5842,0.3401,
6.612965,0.4792,-0.9657,0.1109,-3.5698,-2.3125,2.8485,-0.7845,0.5842,0.3401,
6.614704,0.4792,-0.9657,0.1109,1.7128,-0.1429,1.7041,-0.7845,0.5842,0.3401,
6.617799,0.4792,-0.9657,0.1109,1.7128,-0.1429,1.7041,-0.4357,0.2268,0.2491,
6.627105,0.4792,-0.9657,0.1109,1.7128,-0.1429,1.7041,-0.1101,-0.1977,0.1562,
6.631849,0.5587,-0.8826,-0.0607,1.7128,-0.1429,1.7041,-0.1101,-0.1977,0.1562,
6.632842,0.5587,-0.8826,-0.0607,2.5319,0.6837,0.0416,-0.1101,-0.1977,0.1562,
6.636629,0.5587,-0.8826,-0.0607,2.5319,0.6837,0.0416,0.1709,-0.5209,0.0628,
6.646595,0.5587,-0.8826,-0.0607,2.5319,0.6837,0.0416,0.4152,-0.5874,-0.0478,
6.651797,0.5515,-0.9491,-0.1235,2.5319,0.6837,0.0416,0.4152,-0.5874,-0.0478,
6.652877,0.5515,-0.9491,-0.1235,2.4577,0.0325,-0.6089,0.4152,-0.5874,-0.0478,
6.656627,0.5515,-0.9491,-0.1235,2.4577,0.0325,-0.6089,0.6052,-0.4671,-0.1724,
6.666611,0.5515,-0.9491,-0.1235,2.4577,0.0325,-0.6089,0.6730,-0.4054,-0.2830,
6.671860,0.4270,-1.0999,-0.3766,2.4577,0.0325,-0.6089,0.6730,-0.4054,-0.2830,
6.673067,0.4270,-1.0999,-0.3766,1.1908,-1.4546,-3.1743,0.6730,-0.4054,-0.2830,
6.677655,0.4270,-1.0999,-0.3766,1.1908,-1.4546,-3.1743,0.5636,-0.5361,-0.3288,
6.686856,0.4270,-1.0999,-0.3766,1.1908,-1.4546,-3.1743,0.2943,-0.7628,-0.2775,
6.692152,0.3077,-1.3197,-0.3343,1.1908,-1.4546,-3.1743,0.2943,-0.7628,-0.2775,
6.693382,0.3077,-1.3197,-0.3343,-0.0297,-3.6249,-2.7782,0.2943,-0.7628,-0.2775,
6.696842,0.3077,-1.3197,-0.3343,-0.0297,-3.6249,-2.7782,-0.3575,-0.9075,0.0005,
6.706758,0.3077,-1.3197,-0.3343,-0.0297,-3.6249,-2.7782,-0.5292,-0.6980,0.1367,
6.711999,0.2952,-1.4952,0.0397,-0.0297,-3.6249,-2.7782,-0.5292,-0.6980,0.1367,
6.713782,0.2952,-1.4952,0.0397,-0.1258,-5.3437,1.0217,-0.5292,-0.6980,0.1367,
6.716808,0.2952,-1.4952,0.0397,-0.1258,-5.3437,1.0217,-0.5976,-0.3113,0.2650,
6.727755,0.2952,-1.4952,0.0397,-0.1258,-5.3437,1.0217,-0.6117,0.1456,0.3682,
6.731943,0.3754,-1.5207,0.0321,-0.1258,-5.3437,1.0217,-0.6117,0.1456,0.3682,
6.733102,0.3754,-1.5207,0.0321,0.7245,-5.5815,1.0620,-0.6117,0.1456,0.3682,
6.736895,0.3754,-1.5207,0.0321,0.7245,-5.5815,1.0620,-0.5518,0.4895,0.4269,
6.746675,0.3754,-1.5207,0.0321,0.7245,-5.5815,1.0620,-0.4198,0.6386,0.4495,
6.751966,0.5406,-1.5678,0.0676,0.7245,-5.5815,1.0620,-0.4198,0.6386,0.4495,
6.753119,0.5406,-1.5678,0.0676,2.4184,-6.0245,1.4595,-0.4198,0.6386,0.4495,
6.756734,0.5406,-1.5678,0.0676,2.4184,-6.0245,1.4595,-0.1731,0.5549,0.4073,
6.766766,0.5406,-1.5678,0.0676,2.4184,-6.0245,1.4595,0.2130,0.3050,0.2497,
6.771935,0.6176,-1.5020,0.2077,2.4184,-6.0245,1.4595,0.2130,0.3050,0.2497,
6.773080,0.6176,-1.5020,0.2077,3.2255,-5.3603,2.7979,0.2130,0.3050,0.2497,
6.777702,0.6176,-1.5020,0.2077,3.2255,-5.3603,2.7979,0.6473,0.0039,0.0194,
6.786812,0.6176,-1.5020,0.2077,3.2255,-5.3603,2.7979,1.0279,-0.2661,-0.1547,
6.791937,0.2455,-1.2780,0.1008,3.2255,-5.3603,2.7979,1.0279,-0.2661,-0.1547,
6.793099,0.2455,-1.2780,0.1008,-0.4309,-3.1557,1.5830,1.0279,-0.2661,-0.1547,
6.796862,0.2455,-1.2780,0.1008,-0.4309,-3.1557,1.5830,1.3003,-0.4286,-0.2689,
6.806767,0.2455,-1.2780,0.1008,-0.4309,-3.1557,1.5830,1.4518,-0.4977,-0.3624,
6.812091,0.2369,-1.1860,0.2267,-0.4309,-3.1557,1.5830,1.4518,-0.4977,-0.3624,
6.813550,0.2369,-1.1860,0.2267,-0.5619,-2.2553,2.5560,1.4518,-0.4977,-0.3624,
6.816763,0.2369,-1.1860,0.2267,-0.5619,-2.2553,2.5560,1.4995,-0.5264,-0.4571,
6.827631,0.2369,-1.1860,0.2267,-0.5619,-2.2553,2.5560,1.5056,-0.5221,-0.5554,
6.831924,0.3204,-1.1045,0.3561,-0.5619,-2.2553,2.5560,1.5056,-0.5221,-0.5554,
6.833082,0.3204,-1.1045,0.3561,0.1765,-1.4761,3.5279,1.5056,-0.5221,-0.5554,
6.836742,0.3204,-1.1045,0.3561,0.1765,-1.4761,3.5279,1.5355,-0.4610,-0.6318,
6.846783,0.3204,-1.1045,0.3561,0.1765,-1.4761,3.5279,1.6101,-0.3327,-0.6672,
6.851960,0.3582,-1.1092,0.2761,0.1765,-1.4761,3.5279,1.6101,-0.3327,-0.6672,
6.853095,0.3582,-1.1092,0.2761,0.4371,-1.5609,2.4327,1.6101,-0.3327,-0.6672,
6.856809,0.3582,-1.1092,0.2761,0.4371,-1.5609,2.4327,1.6986,-0.1800,-0.6654,
6.866702,0.3582,-1.1092,0.2761,0.4371,-1.5609,2.4327,1.7909,-0.0187,-0.6525,
6.871969,0.3599,-1.1190,0.1262,0.4371,-1.5609,2.4327,1.7909,-0.0187,-0.6525,
6.873129,0.3599,-1.1190,0.1262,0.3409,-1.7119,0.6275,1.7909,-0.0187,-0.6525,
6.877984,0.3599,-1.1190,0.1262,0.3409,-1.7119,0.6275,1.9173,0.1358,-0.6715,
6.886947,0.3599,-1.1190,0.1262,0.3409,-1.7119,0.6275,2.0401,0.3533,-0.7167,
6.892109,0.2810,-1.1138,-0.1772,0.3409,-1.7119,0.6275,2.0401,0.3533,-0.7167,
6.893345,0.2810,-1.1138,-0.1772,-0.5444,-1.7323,-2.7217,2.0401,0.3533,-0.7167,
6.896955,0.2810,-1.1138,-0.1772,-0.5444,-1.7323,-2.7217,1.9986,0.3973,-0.7711,
6.906779,0.2810,-1.1138,-0.1772,-0.5444,-1.7323,-2.7217,1.8581,0.3857,-0.8499,
6.911992,0.2454,-1.0024,-0.4474,-0.5444,-1.7323,-2.7217,1.8581,0.3857,-0.8499,
6.913568,0.2454,-1.0024,-0.4474,-1.0006,-0.7177,-5.6726,1.8581,0.3857,-0.8499,
6.916755,0.2454,-1.0024,-0.4474,-1.0006,-0.7177,-5.6726,1.6437,0.2329,-0.9219,
6.928038,0.2454,-1.0024,-0.4474,-1.0006,-0.7177,-5.6726,1.3981,-0.1348,-0.9678,
6.931932,0.2981,-0.8331,-0.4605,-1.0006,-0.7177,-5.6726,1.3981,-0.1348,-0.9678,
6.933107,0.2981,-0.8331,-0.4605,-0.6277,0.8631,-5.9569,1.3981,-0.1348,-0.9678,
6.936957,0.2981,-0.8331,-0.4605,-0.6277,0.8631,-5.9569,1.1305,-0.7554,-1.0557,
6.946833,0.2981,-0.8331,-0.4605,-0.6277,0.8631,-5.9569,0.9674,-1.6033,-1.1913,
6.951910,0.4898,-0.7519,-0.0508,-0.6277,0.8631,-5.9569,0.9674,-1.6033,-1.1913,
6.953083,0.4898,-0.7519,-0.0508,1.0250,1.5685,-1.9305,0.9674,-1.6033,-1.1913,
6.956792,0.4898,-0.7519,-0.0508,1.0250,1.5685,-1.9305,0.9949,-2.4958,-1.3422,
6.966787,0.4898,-0.7519,-0.0508,1.0250,1.5685,-1.9305,1.0627,-3.1189,-1.5053,
6.971978,0.6522,-0.7350,0.2532,1.0250,1.5685,-1.9305,1.0627,-3.1189,-1.5053,
6.973098,0.6522,-0.7350,0.2532,2.2748,1.5985,1.1556,1.0627,-3.1189,-1.5053,
6.978048,0.6522,-0.7350,0.2532,2.2748,1.5985,1.1556,1.0597,-3.2691,-1.6819,
6.986774,0.6522,-0.7350,0.2532,2.2748,1.5985,1.1556,0.9845,-2.7908,-1.8895,
6.991958,0.5847,-0.7869,0.5019,2.2748,1.5985,1.1556,0.9845,-2.7908,-1.8895,
6.993131,0.5847,-0.7869,0.5019,1.2233,0.9087,3.6765,0.9845,-2.7908,-1.8895,
6.996819,0.5847,-0.7869,0.5019,1.2233,0.9087,3.6765,0.8868,-1.6223,-2.0728,
7.006758,0.5847,-0.7869,0.5019,1.2233,0.9087,3.6765,0.8251,-0.0542,-2.1339,
7.011975,0.4478,-0.7333,0.3443,1.2233,0.9087,3.6765,0.8251,-0.0542,-2.1339,
7.013284,0.4478,-0.7333,0.3443,-0.4954,1.2150,2.0566,0.8251,-0.0542,-2.1339,
7.016773,0.4478,-0.7333,0.3443,-0.4954,1.2150,2.0566,0.8373,1.1291,-2.0807,
7.028161,0.4478,-0.7333,0.3443,-0.4954,1.2150,2.0566,0.8929,1.3936,-1.9916,
7.031952,0.2465,-0.7588,0.0623,-0.4954,1.2150,2.0566,0.8929,1.3936,-1.9916,
7.032990,0.2465,-0.7588,0.0623,-2.7492,0.7472,-0.9775,0.8929,1.3936,-1.9916,
7.036722,0.2465,-0.7588,0.0623,-2.7492,0.7472,-0.9775,0.9491,1.0179,-1.9103,
7.046771,0.2465,-0.7588,0.0623,-2.7492,0.7472,-0.9775,1.0468,0.6062,-1.7955,
7.051922,0.0974,-0.7665,-0.0737,-2.7492,0.7472,-0.9775,1.0468,0.6062,-1.7955,
7.052996,0.0974,-0.7665,-0.0737,-4.4158,0.4938,-2.5234,1.0468,0.6062,-1.7955,
7.056940,0.0974,-0.7665,-0.0737,-4.4158,0.4938,-2.5234,1.1928,0.5475,-1.6409,
7.066711,0.0974,-0.7665,-0.0737,-4.4158,0.4938,-2.5234,1.4476,1.2195,-1.5725,
7.071953,0.1406,-0.7031,-0.1330,-4.4158,0.4938,-2.5234,1.4476,1.2195,-1.5725,
7.073023,0.1406,-0.7031,-0.1330,-4.1288,0.9639,-3.3420,1.4476,1.2195,-1.5725,
7.078247,0.1406,-0.7031,-0.1330,-4.1288,0.9639,-3.3420,1.5306,1.5060,-1.6837,
7.086640,0.1406,-0.7031,-0.1330,-4.1288,0.9639,-3.3420,1.6137,1.5738,-1.8138,
7.092001,0.2122,-0.6190,0.1553,-4.1288,0.9639,-3.3420,1.6137,1.5738,-1.8138,
7.093412,0.2122,-0.6190,0.1553,-3.5412,1.6064,-0.8697,1.6137,1.5738,-1.8138,
7.096930,0.2122,-0.6190,0.1553,-3.5412,1.6064,-0.8697,1.6663,1.5365,-1.8993,
7.106805,0.2122,-0.6190,0.1553,-3.5412,1.6064,-0.8697,1.6675,1.5298,-1.9390,
7.112119,0.2968,-0.5375,0.2283,-3.5412,1.6064,-0.8697,1.6675,1.5298,-1.9390,
7.113457,0.2968,-0.5375,0.2283,-2.8406,2.1795,-0.5302,1.6675,1.5298,-1.9390,
7.116746,0.2968,-0.5375,0.2283,-2.8406,2.1795,-0.5302,1.6235,1.6416,-1.9586,
7.128081,0.2968,-0.5375,0.2283,-2.8406,2.1795,-0.5302,1.5765,1.8719,-1.9622,
7.131899,0.3231,-0.4608,0.1099,-2.8406,2.1795,-0.5302,1.5765,1.8719,-1.9622,
7.133001,0.3231,-0.4608,0.1099,-2.6977,2.6884,-2.0671,1.5765,1.8719,-1.9622,
7.136770,0.3231,-0.4608,0.1099,-2.6977,2.6884,-2.0671,1.5795,2.1254,-1.9384,
7.146793,0.3231,-0.4608,0.1099,-2.6977,2.6884,-2.0671,1.6510,2.2952,-1.8694,
7.151944,0.2411,-0.4228,0.0024,-2.6977,2.6884,-2.0671,1.6510,2.2952,-1.8694,
7.153001,0.2411,-0.4228,0.0024,-3.5623,2.8207,-3.5209,1.6510,2.2952,-1.8694,
7.156822,0.2411,-0.4228,0.0024,-3.5623,2.8207,-3.5209,1.7438,2.3465,-1.7649,
7.166802,0.2411,-0.4228,0.0024,-3.5623,2.8207,-3.5209,1.7713,2.2158,-1.6434,
7.172078,0.1832,-0.4051,0.0605,-3.5623,2.8207,-3.5209,1.7713,2.2158,-1.6434,
7.173146,0.1832,-0.4051,0.0605,-4.1437,2.7470,-3.3801,1.7713,2.2158,-1.6434,
7.178135,0.1832,-0.4051,0.0605,-4.1437,2.7470,-3.3801,1.7084,1.8578,-1.5023,
7.186772,0.1832,-0.4051,0.0605,-4.1437,2.7470,-3.3801,1.5624,1.3331,-1.3300,
7.192161,0.1830,-0.4041,0.2791,-4.1437,2.7470,-3.3801,1.5624,1.3331,-1.3300,
7.193227,0.1830,-0.4041,0.2791,-4.1643,2.5098,-1.6028,1.5624,1.3331,-1.3300,
7.196707,0.1830,-0.4041,0.2791,-4.1643,2.5098,-1.6028,1.3370,0.7723,-1.1412,
7.206771,0.1830,-0.4041,0.2791,-4.1643,2.5098,-1.6028,1.0529,0.3160,-0.9342,
7.211932,0.3619,-0.5700,0.5585,-4.1643,2.5098,-1.6028,1.0529,0.3160,-0.9342,
7.213454,0.3619,-0.5700,0.5585,-2.4268,0.7332,0.9393,1.0529,0.3160,-0.9342,
7.216772,0.3619,-0.5700,0.5585,-2.4268,0.7332,0.9393,0.7487,0.0222,-0.6776,
7.228136,0.3619,-0.5700,0.5585,-2.4268,0.7332,0.9393,0.4751,-0.1152,-0.3434,
7.231898,0.7258,-0.7348,0.6522,-2.4268,0.7332,0.9393,0.4751,-0.1152,-0.3434,
7.232958,0.7258,-0.7348,0.6522,1.1088,-0.9610,1.7885,0.4751,-0.1152,-0.3434,
7.236749,0.7258,-0.7348,0.6522,1.1088,-0.9610,1.7885,0.2747,-0.0914,0.0170,
7.246785,0.7258,-0.7348,0.6522,1.1088,-0.9610,1.7885,0.1263,0.0931,0.4342,
7.251877,1.0477,-0.5606,0.6091,1.1088,-0.9610,1.7885,0.1263,0.0931,0.4342,
7.252998,1.0477,-0.5606,0.6091,4.2900,0.7535,1.3412,0.1263,0.0931,0.4342,
7.256740,1.0477,-0.5606,0.6091,4.2900,0.7535,1.3412,-0.2054,0.5598,0.4733,
7.266699,1.0477,-0.5606,0.6091,4.2900,0.7535,1.3412,-0.3948,0.5341,0.5234,
7.271979,0.9764,-0.3167,0.7045,4.2900,0.7535,1.3412,-0.3948,0.5341,0.5234,
7.273032,0.9764,-0.3167,0.7045,3.6640,3.1799,2.2324,-0.3948,0.5341,0.5234,
7.278313,0.9764,-0.3167,0.7045,3.6640,3.1799,2.2324,-0.5646,0.2910,0.5722,
7.286778,0.9764,-0.3167,0.7045,3.6640,3.1799,2.2324,-0.6196,-0.0713,0.5429,
7.291993,1.1791,-0.3128,1.0399,3.6640,3.1799,2.2324,-0.6196,-0.0713,0.5429,
7.293274,1.1791,-0.3128,1.0399,5.6719,3.2475,5.5331,-0.6196,-0.0713,0.5429,
7.296706,1.1791,-0.3128,1.0399,5.6719,3.2475,5.5331,-0.5109,-0.5221,0.4433,
7.306743,1.1791,-0.3128,1.0399,5.6719,3.2475,5.5331,-0.4388,-0.7615,0.3615,
7.312115,0.9056,-0.5215,0.3519,5.6719,3.2475,5.5331,-0.4388,-0.7615,0.3615,
7.313730,0.9056,-0.5215,0.3519,2.9146,1.2110,-1.0986,-0.4388,-0.7615,0.3615,
7.316670,0.9056,-0.5215,0.3519,2.9146,1.2110,-1.0986,-0.7412,-0.5007,0.5386,
7.326765,0.9056,-0.5215,0.3519,2.9146,1.2110,-1.0986,-1.3636,-0.4378,1.0322,
7.331938,-0.1735,-0.7104,-0.1493,2.9146,1.2110,-1.0986,-1.3636,-0.4378,1.0322,
7.333407,-0.1735,-0.7104,-0.1493,-7.6113,-0.4610,-5.8170,-1.3636,-0.4378,1.0322,
7.336773,-0.1735,-0.7104,-0.1493,-7.6113,-0.4610,-5.8170,-2.0942,-1.2539,1.5893,
7.347061,-0.1735,-0.7104,-0.1493,-7.6113,-0.4610,-5.8170,-2.2060,-2.2325,2.0762,
7.351878,0.5772,-0.8686,0.9381,-7.6113,-0.4610,-5.8170,-2.2060,-2.2325,2.0762,
7.353056,0.5772,-0.8686,0.9381,-0.1466,-1.6429,5.2816,-2.2060,-2.2325,2.0762,
7.356757,0.5772,-0.8686,0.9381,-0.1466,-1.6429,5.2816,-1.4369,-2.4634,2.1593,
7.366722,0.5772,-0.8686,0.9381,-0.1466,-1.6429,5.2816,-0.9409,-2.1048,1.5502,
7.371952,0.7637,-1.5446,0.0854,-0.1466,-1.6429,5.2816,-0.9409,-2.1048,1.5502,
7.373248,0.7637,-1.5446,0.0854,1.7791,-7.9616,-2.6460,-0.9409,-2.1048,1.5502,
7.376836,0.7637,-1.5446,0.0854,1.7791,-7.9616,-2.6460,-1.1394,-1.9698,0.9314,
7.386690,0.7637,-1.5446,0.0854,1.7791,-7.9616,-2.6460,-0.9690,-2.4598,1.0066,
7.391976,0.7775,-1.5382,0.0572,1.7791,-7.9616,-2.6460,-0.9690,-2.4598,1.0066,
7.393247,0.7775,-1.5382,0.0572,1.9281,-7.6960,-2.4965,-0.9690,-2.4598,1.0066,
7.396781,0.7775,-1.5382,0.0572,1.9281,-7.6960,-2.4965,-0.7833,-2.4879,1.3932,
7.406714,0.7775,-1.5382,0.0572,1.9281,-7.6960,-2.4965,-1.2097,-1.9332,1.7646,
7.411917,0.9048,-0.8154,0.3370,1.9281,-7.6960,-2.4965,-1.2097,-1.9332,1.7646,
7.413498,0.9048,-0.8154,0.3370,3.2848,-0.3776,0.6472,-1.2097,-1.9332,1.7646,
7.416780,0.9048,-0.8154,0.3370,3.2848,-0.3776,0.6472,-1.3093,-1.3596,1.8636,
7.426884,0.9048,-0.8154,0.3370,3.2848,-0.3776,0.6472,-1.1462,-0.7829,1.6938,
7.431904,0.6067,-0.7250,0.0793,3.2848,-0.3776,0.6472,-1.1462,-0.7829,1.6938,
7.433960,0.6067,-0.7250,0.0793,0.5789,0.7610,-1.5670,-1.1462,-0.7829,1.6938,
7.436755,0.6067,-0.7250,0.0793,0.5789,0.7610,-1.5670,-1.0613,-0.2173,1.5069,
7.446814,0.6067,-0.7250,0.0793,0.5789,0.7610,-1.5670,-1.0484,-0.3443,1.6553,
7.451945,0.2207,-0.9086,-0.0249,0.5789,0.7610,-1.5670,-1.0484,-0.3443,1.6553,
7.452993,0.2207,-0.9086,-0.0249,-2.9637,-0.8221,-2.3814,-1.0484,-0.3443,1.6553,
7.456698,0.2207,-0.9086,-0.0249,-2.9637,-0.8221,-2.3814,-1.0949,-0.6155,1.8453,
7.466720,0.2207,-0.9086,-0.0249,-2.9637,-0.8221,-2.3814,-1.1101,-0.8856,1.9760,
7.471920,0.2645,-1.0367,-0.0100,-2.9637,-0.8221,-2.3814,-1.1101,-0.8856,1.9760,
7.473094,0.2645,-1.0367,-0.0100,-2.2427,-1.8339,-1.9631,-1.1101,-0.8856,1.9760,
7.476814,0.2645,-1.0367,-0.0100,-2.2427,-1.8339,-1.9631,-1.0631,-1.0609,2.0023,
7.486833,0.2645,-1.0367,-0.0100,-2.2427,-1.8339,-1.9631,-1.0301,-1.1458,1.9595,
7.491921,0.3680,-1.1209,-0.0397,-2.2427,-1.8339,-1.9631,-1.0301,-1.1458,1.9595,
7.493197,0.3680,-1.1209,-0.0397,-0.9188,-2.4261,-1.9514,-1.0301,-1.1458,1.9595,
7.496779,0.3680,-1.1209,-0.0397,-0.9188,-2.4261,-1.9514,-1.0600,-1.1207,1.8874,
7.506672,0.3680,-1.1209,-0.0397,-0.9188,-2.4261,-1.9514,-1.1553,-0.9674,1.8092,
7.511968,0.4551,-1.0690,-0.0502,-0.9188,-2.4261,-1.9514,-1.1553,-0.9674,1.8092,
7.513480,0.4551,-1.0690,-0.0502,0.2303,-1.7183,-1.7499,-1.1553,-0.9674,1.8092,
7.516871,0.4551,-1.0690,-0.0502,0.2303,-1.7183,-1.7499,-1.2470,-0.6656,1.7341,
7.526703,0.4551,-1.0690,-0.0502,0.2303,-1.7183,-1.7499,-1.2616,-0.2619,1.6529,
7.531981,0.4619,-0.7879,0.1369,0.2303,-1.7183,-1.7499,-1.2616,-0.2619,1.6529,
7.533500,0.4619,-0.7879,0.1369,0.5811,1.2017,0.3488,-1.2616,-0.2619,1.6529,
7.536740,0.4619,-0.7879,0.1369,0.5811,1.2017,0.3488,-1.2085,0.1389,1.5869,
7.546968,0.4619,-0.7879,0.1369,0.5811,1.2017,0.3488,-1.1566,0.4199,1.5557,
7.551946,0.3380,-0.6539,0.0922,0.5811,1.2017,0.3488,-1.1566,0.4199,1.5557,
7.553052,0.3380,-0.6539,0.0922,-0.3555,2.6515,0.1036,-1.1566,0.4199,1.5557,
7.556908,0.3380,-0.6539,0.0922,-0.3555,2.6515,0.1036,-1.1462,0.5115,1.5545,
7.566805,0.3380,-0.6539,0.0922,-0.3555,2.6515,0.1036,-1.1553,0.4669,1.5698,
7.571950,0.2540,-0.5877,0.1597,-0.3555,2.6515,0.1036,-1.1553,0.4669,1.5698,
7.573172,0.2540,-0.5877,0.1597,-0.9081,3.4182,0.9277,-1.1553,0.4669,1.5698,
7.576764,0.2540,-0.5877,0.1597,-0.9081,3.4182,0.9277,-1.1297,0.3881,1.5789,
7.586786,0.2540,-0.5877,0.1597,-0.9081,3.4182,0.9277,-1.0655,0.3423,1.5570,
7.591976,0.2758,-0.5758,0.0964,-0.9081,3.4182,0.9277,-1.0655,0.3423,1.5570,
7.592980,0.2758,-0.5758,0.0964,-0.4378,3.6344,0.4621,-1.0655,0.3423,1.5570,
7.596897,0.2758,-0.5758,0.0964,-0.4378,3.6344,0.4621,-1.0069,0.3765,1.4916,
7.606746,0.2758,-0.5758,0.0964,-0.4378,3.6344,0.4621,-0.9654,0.4431,1.3902,
7.612012,0.2945,-0.5587,0.0991,-0.4378,3.6344,0.4621,-0.9654,0.4431,1.3902,
7.613650,0.2945,-0.5587,0.0991,-0.0397,3.8775,0.6106,-0.9654,0.4431,1.3902,
7.616736,0.2945,-0.5587,0.0991,-0.0397,3.8775,0.6106,-0.9421,0.3991,1.1654,
7.626802,0.2945,-0.5587,0.0991,-0.0397,3.8775,0.6106,-0.9544,0.2940,1.0866,
7.631892,0.3336,-0.6070,0.1119,-0.0397,3.8775,0.6106,-0.9544,0.2940,1.0866,
7.633525,0.3336,-0.6070,0.1119,0.4878,3.4523,0.8490,-0.9544,0.2940,1.0866,
7.636812,0.3336,-0.6070,0.1119,0.4878,3.4523,0.8490,-0.9861,0.1993,1.0090,
7.646864,0.3336,-0.6070,0.1119,0.4878,3.4523,0.8490,-1.0270,0.1493,0.9039,
7.651981,0.4918,-0.7334,0.0176,0.4878,3.4523,0.8490,-1.0270,0.1493,0.9039,
7.653114,0.4918,-0.7334,0.0176,2.1304,2.2428,0.0681,-1.0270,0.1493,0.9039,
7.656715,0.4918,-0.7334,0.0176,2.1304,2.2428,0.0681,-1.0661,0.1914,0.7836,
7.666779,0.4918,-0.7334,0.0176,2.1304,2.2428,0.0681,-1.1046,0.2916,0.6602,
7.672116,0.5771,-0.8515,0.0346,2.1304,2.2428,0.0681,-1.1046,0.2916,0.6602,
7.673110,0.5771,-0.8515,0.0346,3.0003,1.0953,0.3925,-1.1046,0.2916,0.6602,
7.676857,0.5771,-0.8515,0.0346,3.0003,1.0953,0.3925,-1.0973,0.2849,0.5447,
7.686788,0.5771,-0.8515,0.0346,3.0003,1.0953,0.3925,-1.0112,0.1236,0.4256,
7.691969,0.6067,-0.8966,0.0729,3.0003,1.0953,0.3925,-1.0112,0.1236,0.4256,
7.692954,0.6067,-0.8966,0.0729,3.2730,0.6464,0.9174,-1.0112,0.1236,0.4256,
7.696860,0.6067,-0.8966,0.0729,3.2730,0.6464,0.9174,-0.9134,0.0479,0.2717,
7.706667,0.6067,-0.8966,0.0729,3.2730,0.6464,0.9174,-0.8487,0.1047,0.0677,
7.712239,0.4183,-0.9053,0.0147,3.2730,0.6464,0.9174,-0.8487,0.1047,0.0677,
7.713810,0.4183,-0.9053,0.0147,1.3647,0.5404,0.4717,-0.8487,0.1047,0.0677,
7.716693,0.4183,-0.9053,0.0147,1.3647,0.5404,0.4717,-0.7656,0.0503,-0.1077,
7.726811,0.4183,-0.9053,0.0147,1.3647,0.5404,0.4717,-0.6440,-0.1446,-0.1858,
7.731983,0.2248,-0.8939,0.0374,1.3647,0.5404,0.4717,-0.6440,-0.1446,-0.1858,
7.733550,0.2248,-0.8939,0.0374,-0.6191,0.6219,0.7906,-0.6440,-0.1446,-0.1858,
7.736878,0.2248,-0.8939,0.0374,-0.6191,0.6219,0.7906,-0.5200,-0.4195,-0.1956,
7.746925,0.2248,-0.8939,0.0374,-0.6191,0.6219,0.7906,-0.4351,-0.6656,-0.1803,
7.751994,0.0878,-0.8929,0.1277,-0.6191,0.6219,0.7906,-0.4351,-0.6656,-0.1803,
7.753150,0.0878,-0.8929,0.1277,-2.0099,0.6130,1.7510,-0.4351,-0.6656,-0.1803,
7.756882,0.0878,-0.8929,0.1277,-2.0099,0.6130,1.7510,-0.3643,-0.7799,-0.1565,
7.766846,0.0878,-0.8929,0.1277,-2.0099,0.6130,1.7510,-0.2830,-0.7670,-0.1296,
7.772070,0.0214,-0.9617,0.1467,-2.0099,0.6130,1.7510,-0.2830,-0.7670,-0.1296,
7.773142,0.0214,-0.9617,0.1467,-2.6657,-0.0649,1.9820,-0.2830,-0.7670,-0.1296,
7.776726,0.0214,-0.9617,0.1467,-2.6657,-0.0649,1.9820,-0.2103,-0.6620,-0.0881,
7.786879,0.0214,-0.9617,0.1467,-2.6657,-0.0649,1.9820,-0.1566,-0.4934,-0.0166,
7.792019,0.0690,-0.9943,0.0897,-2.6657,-0.0649,1.9820,-0.1566,-0.4934,-0.0166,
7.793074,0.0690,-0.9943,0.0897,-2.1675,-0.3752,1.4280,-0.1566,-0.4934,-0.0166,
7.796916,0.0690,-0.9943,0.0897,-2.1675,-0.3752,1.4280,-0.1395,-0.2924,0.0744,
7.806726,0.0690,-0.9943,0.0897,-2.1675,-0.3752,1.4280,-0.2231,0.0143,0.2357,
7.812546,0.3390,-0.9306,0.0406,-2.1675,-0.3752,1.4280,-0.2231,0.0143,0.2357,
7.814154,0.3390,-0.9306,0.0406,0.5230,0.2635,0.9403,-0.2231,0.0143,0.2357,
7.816758,0.3390,-0.9306,0.0406,0.5230,0.2635,0.9403,-0.2231,0.0503,0.2479,
