
time,gFx,gFy,gFz,ax,ay,az,wx,wy,wz,
0.067755,0.1584,0.4925,1.1212,0.0000,0.0000,0.0000,0.0000,0.0000,0.0000,
0.068122,0.1893,0.3220,0.9661,0.0000,0.0000,0.0000,0.0000,0.0000,0.0000,
0.068445,0.1952,0.2972,0.8309,0.0000,0.0000,0.0000,0.0000,0.0000,0.0000,
0.089952,0.1368,0.3550,0.6547,0.0000,0.0000,0.0000,0.0000,0.0000,0.0000,
0.091066,0.1368,0.3550,0.6547,-0.4310,-1.1184,-2.0628,0.0000,0.0000,0.0000,
0.106857,0.1281,0.4074,0.8876,-0.4310,-1.1184,-2.0628,0.0000,0.0000,0.0000,
0.107931,0.1281,0.4074,0.8876,-0.0200,-0.0637,-0.1388,0.0000,0.0000,0.0000,
0.126902,0.1126,0.4402,1.1937,-0.0200,-0.0637,-0.1388,0.0000,0.0000,0.0000,
0.128058,0.1126,0.4402,1.1937,0.2390,0.9342,2.5331,0.0000,0.0000,0.0000,
0.132987,0.1126,0.4402,1.1937,0.2390,0.9342,2.5331,-1.4149,1.9049,-0.1516,
0.143285,0.1126,0.4402,1.1937,0.2390,0.9342,2.5331,-0.8108,1.0552,-0.2756,
0.146861,0.1793,0.4047,1.1812,0.2390,0.9342,2.5331,-0.8108,1.0552,-0.2756,
0.147939,0.1793,0.4047,1.1812,0.3633,0.8198,2.3929,-0.8108,1.0552,-0.2756,
0.152929,0.1793,0.4047,1.1812,0.3633,0.8198,2.3929,-0.1456,-0.1879,-0.4192,
0.162892,0.1793,0.4047,1.1812,0.3633,0.8198,2.3929,0.4396,-1.2014,-0.5481,
0.167154,0.1382,0.2952,0.9673,0.3633,0.8198,2.3929,0.4396,-1.2014,-0.5481,
0.168250,0.1382,0.2952,0.9673,0.0267,0.0570,0.1866,0.4396,-1.2014,-0.5481,
0.172891,0.1382,0.2952,0.9673,0.0267,0.0570,0.1866,0.7805,-1.4537,-0.6055,
0.182931,0.1382,0.2952,0.9673,0.0267,0.0570,0.1866,0.6712,-0.9906,-0.5224,
0.186967,-0.1340,0.5607,0.5061,0.0267,0.0570,0.1866,0.6712,-0.9906,-0.5224,
0.187869,-0.1340,0.5607,0.5061,0.3999,-1.6731,-1.5102,0.6712,-0.9906,-0.5224,
0.193441,-0.1340,0.5607,0.5061,0.3999,-1.6731,-1.5102,0.1794,-0.2924,-0.3099,
0.202967,-0.1340,0.5607,0.5061,0.3999,-1.6731,-1.5102,-0.3074,0.4095,-0.0985,
0.206955,-0.1273,0.7756,0.6823,0.3999,-1.6731,-1.5102,-0.3074,0.4095,-0.0985,
0.208000,-0.1273,0.7756,0.6823,-0.0481,0.2930,0.2578,-0.3074,0.4095,-0.0985,
0.213088,-0.1273,0.7756,0.6823,-0.0481,0.2930,0.2578,-0.6092,1.0729,0.0206,
0.222949,-0.1273,0.7756,0.6823,-0.0481,0.2930,0.2578,-0.6709,1.5042,-0.0130,
0.226912,0.4187,0.6576,0.7257,-0.0481,0.2930,0.2578,-0.6709,1.5042,-0.0130,
0.228058,0.4187,0.6576,0.7257,0.2481,0.3896,0.4300,-0.6709,1.5042,-0.0130,
0.232892,0.4187,0.6576,0.7257,0.2481,0.3896,0.4300,-0.4864,1.0210,-0.3697,
0.243445,0.4187,0.6576,0.7257,0.2481,0.3896,0.4300,-0.3062,0.3521,-0.7930,
0.247416,-0.0214,0.2863,0.6522,0.2481,0.3896,0.4300,-0.3062,0.3521,-0.7930,
0.248682,-0.0214,0.2863,0.6522,0.0847,-1.1345,-2.5840,-0.3062,0.3521,-0.7930,
0.252922,-0.0214,0.2863,0.6522,0.0847,-1.1345,-2.5840,-0.3453,0.4107,-1.0472,
0.263360,-0.0214,0.2863,0.6522,0.0847,-1.1345,-2.5840,-0.4919,1.0735,-1.4345,
0.266837,-0.1667,0.3768,0.5954,0.0847,-1.1345,-2.5840,-0.4919,1.0735,-1.4345,
0.267968,-0.1667,0.3768,0.5954,0.6242,-1.4108,-2.2289,-0.4919,1.0735,-1.4345,
0.272956,-0.1667,0.3768,0.5954,0.6242,-1.4108,-2.2289,-0.4962,1.6184,-1.4497,
0.282849,-0.1667,0.3768,0.5954,0.6242,-1.4108,-2.2289,-0.4614,2.3679,-1.3691,
0.286789,-0.3961,0.3855,0.5326,0.6242,-1.4108,-2.2289,-0.4614,2.3679,-1.3691,
0.287689,-0.3961,0.3855,0.5326,1.1789,-1.1472,-1.5849,-0.4614,2.3679,-1.3691,
0.296568,-0.3961,0.3855,0.5326,1.1789,-1.1472,-1.5849,-0.4589,3.0722,-1.2823,
0.302850,-0.3961,0.3855,0.5326,1.1789,-1.1472,-1.5849,-0.5897,3.4461,-1.2127,
0.306755,-0.5918,0.3706,0.3192,1.1789,-1.1472,-1.5849,-0.5897,3.4461,-1.2127,
0.308358,-0.5918,0.3706,0.3192,1.7593,-1.1017,-0.9488,-0.5897,3.4461,-1.2127,
0.312885,-0.5918,0.3706,0.3192,1.7593,-1.1017,-0.9488,-0.8603,3.5597,-1.1651,
0.322742,-0.5918,0.3706,0.3192,1.7593,-1.1017,-0.9488,-1.1730,3.6746,-1.1602,
0.326740,-0.5827,0.2232,0.4103,1.7593,-1.1017,-0.9488,-1.1730,3.6746,-1.1602,
0.327684,-0.5827,0.2232,0.4103,1.9415,-0.7436,-1.3672,-1.1730,3.6746,-1.1602,
0.332781,-0.5827,0.2232,0.4103,1.9415,-0.7436,-1.3672,-1.4168,3.8719,-1.2170,
0.343490,-0.5827,0.2232,0.4103,1.9415,-0.7436,-1.3672,-1.5933,4.0166,-1.2726,
0.346814,-0.4248,0.0117,0.5735,1.9415,-0.7436,-1.3672,-1.5933,4.0166,-1.2726,
0.347772,-0.4248,0.0117,0.5735,1.6731,-0.0462,-2.2586,-1.5933,4.0166,-1.2726,
0.352792,-0.4248,0.0117,0.5735,1.6731,-0.0462,-2.2586,-1.6691,4.0441,-1.3752,
0.362793,-0.4248,0.0117,0.5735,1.6731,-0.0462,-2.2586,-1.4595,4.2689,-1.5560,
0.366663,-0.4487,0.0050,0.8843,1.6731,-0.0462,-2.2586,-1.4595,4.2689,-1.5560,
0.367568,-0.4487,0.0050,0.8843,0.0403,-0.0004,-0.0794,-1.4595,4.2689,-1.5560,
0.372820,-0.4487,0.0050,0.8843,0.0403,-0.0004,-0.0794,-0.9690,4.2140,-1.5737,
0.382832,-0.4487,0.0050,0.8843,0.0403,-0.0004,-0.0794,-0.5103,3.5829,-1.3893,
0.386788,-0.5284,-0.0680,0.5879,0.0403,-0.0004,-0.0794,-0.5103,3.5829,-1.3893,
0.387736,-0.5284,-0.0680,0.5879,1.3527,0.1742,-1.5050,-0.5103,3.5829,-1.3893,
0.393328,-0.5284,-0.0680,0.5879,1.3527,0.1742,-1.5050,-0.2470,3.0246,-1.2475,
0.402826,-0.5284,-0.0680,0.5879,1.3527,0.1742,-1.5050,-0.1608,2.7735,-1.2946,
0.406767,-0.4345,-0.1461,0.3503,1.3527,0.1742,-1.5050,-0.1608,2.7735,-1.2946,
0.407680,-0.4345,-0.1461,0.3503,3.1273,1.0515,-2.5215,-0.1608,2.7735,-1.2946,
0.412819,-0.4345,-0.1461,0.3503,3.1273,1.0515,-2.5215,-0.1566,2.9195,-1.3783,
0.422734,-0.4345,-0.1461,0.3503,3.1273,1.0515,-2.5215,-0.2158,3.3771,-1.3801,
0.426793,-0.2834,-0.2845,0.4812,3.1273,1.0515,-2.5215,-0.2158,3.3771,-1.3801,
0.427931,-0.2834,-0.2845,0.4812,1.6572,1.6637,-2.8137,-0.2158,3.3771,-1.3801,
0.432747,-0.2834,-0.2845,0.4812,1.6572,1.6637,-2.8137,-0.1779,4.1840,-1.3905,
0.443524,-0.2834,-0.2845,0.4812,1.6572,1.6637,-2.8137,0.3938,6.0117,-1.7161,
0.447156,-0.0548,-0.4104,0.5310,1.6572,1.6637,-2.8137,0.3938,6.0117,-1.7161,
0.448086,-0.0548,-0.4104,0.5310,0.2613,1.9551,-2.5295,0.3938,6.0117,-1.7161,
0.452967,-0.0548,-0.4104,0.5310,0.2613,1.9551,-2.5295,0.6596,6.5438,-1.9934,
0.462946,-0.0548,-0.4104,0.5310,0.2613,1.9551,-2.5295,0.8789,6.9231,-2.3013,
0.466948,-0.0033,-0.5565,0.3953,0.2613,1.9551,-2.5295,0.8789,6.9231,-2.3013,
0.468026,-0.0033,-0.5565,0.3953,0.0151,2.5411,-1.8048,0.8789,6.9231,-2.3013,
0.473001,-0.0033,-0.5565,0.3953,0.0151,2.5411,-1.8048,1.0322,7.2102,-2.6336,
0.482896,-0.0033,-0.5565,0.3953,0.0151,2.5411,-1.8048,1.0584,7.3770,-2.9641,
0.486844,-0.1070,-0.7389,0.2351,0.0151,2.5411,-1.8048,1.0584,7.3770,-2.9641,
0.487958,-0.1070,-0.7389,0.2351,0.2919,2.0159,-0.6415,1.0584,7.3770,-2.9641,
0.493560,-0.1070,-0.7389,0.2351,0.2919,2.0159,-0.6415,1.0126,7.5303,-3.2622,
0.503003,-0.1070,-0.7389,0.2351,0.2919,2.0159,-0.6415,1.0041,7.5755,-3.5401,
0.506950,-0.2383,-0.7658,0.4433,0.2919,2.0159,-0.6415,1.0041,7.5755,-3.5401,
0.508212,-0.2383,-0.7658,0.4433,0.2149,0.6905,-0.3997,1.0041,7.5755,-3.5401,
0.513586,-0.2383,-0.7658,0.4433,0.2149,0.6905,-0.3997,1.0615,7.3532,-3.8211,
0.522948,-0.2383,-0.7658,0.4433,0.2149,0.6905,-0.3997,1.0957,6.9525,-4.1271,
0.526990,-0.3232,-0.8260,0.4228,0.2149,0.6905,-0.3997,1.0957,6.9525,-4.1271,
0.528091,-0.3232,-0.8260,0.4228,0.0583,0.1490,-0.0763,1.0957,6.9525,-4.1271,
0.532811,-0.3232,-0.8260,0.4228,0.0583,0.1490,-0.0763,0.9821,6.4320,-4.4778,
0.543489,-0.3232,-0.8260,0.4228,0.0583,0.1490,-0.0763,0.7139,5.7753,-4.8608,
0.547007,-0.6235,-0.9466,0.4137,0.0583,0.1490,-0.0763,0.7139,5.7753,-4.8608,
0.547997,-0.6235,-0.9466,0.4137,-1.0427,-1.5831,0.6920,0.7139,5.7753,-4.8608,
0.552919,-0.6235,-0.9466,0.4137,-1.0427,-1.5831,0.6920,0.4134,5.1510,-5.1754,
0.562793,-0.6235,-0.9466,0.4137,-1.0427,-1.5831,0.6920,0.1641,4.7240,-5.2841,
0.566971,-1.5070,-0.9204,0.6920,-1.0427,-1.5831,0.6920,0.1641,4.7240,-5.2841,
0.567882,-1.5070,-0.9204,0.6920,-6.9765,-4.2610,3.2035,0.1641,4.7240,-5.2841,
0.572796,-1.5070,-0.9204,0.6920,-6.9765,-4.2610,3.2035,0.0053,4.3031,-5.2053,
0.582807,-1.5070,-0.9204,0.6920,-6.9765,-4.2610,3.2035,-0.0588,3.7045,-5.0325,
0.586914,-1.7077,-0.8314,0.5669,-6.9765,-4.2610,3.2035,-0.0588,3.7045,-5.0325,
0.588272,-1.7077,-0.8314,0.5669,-8.2865,-4.0342,2.7509,-0.0588,3.7045,-5.0325,
0.593607,-1.7077,-0.8314,0.5669,-8.2865,-4.0342,2.7509,-0.1938,2.7179,-4.8492,
0.602889,-1.7077,-0.8314,0.5669,-8.2865,-4.0342,2.7509,-0.5078,1.5115,-4.7093,
0.606889,-1.8220,-0.8176,0.4580,-8.2865,-4.0342,2.7509,-0.5078,1.5115,-4.7093,
0.607907,-1.8220,-0.8176,0.4580,-9.1351,-4.0990,2.2960,-0.5078,1.5115,-4.7093,
0.613157,-1.8220,-0.8176,0.4580,-9.1351,-4.0990,2.2960,-0.9189,0.4339,-4.5755,
0.622868,-1.8220,-0.8176,0.4580,-9.1351,-4.0990,2.2960,-1.3044,-0.3309,-4.4179,
0.627105,-1.6544,-0.9058,0.5387,-9.1351,-4.0990,2.2960,-1.3044,-0.3309,-4.4179,
0.628386,-1.6544,-0.9058,0.5387,-7.9424,-4.3482,2.5861,-1.3044,-0.3309,-4.4179,
0.633073,-1.6544,-0.9058,0.5387,-7.9424,-4.3482,2.5861,-1.7900,-0.7835,-4.3043,
0.643623,-1.6544,-0.9058,0.5387,-7.9424,-4.3482,2.5861,-1.7411,-0.6931,-4.2286,
0.646879,-1.8518,-0.9456,0.9358,-7.9424,-4.3482,2.5861,-1.7411,-0.6931,-4.2286,
0.647989,-1.8518,-0.9456,0.9358,-10.1836,-5.1999,5.1462,-1.7411,-0.6931,-4.2286,
0.652963,-1.8518,-0.9456,0.9358,-10.1836,-5.1999,5.1462,-1.4101,-0.5667,-3.9885,
0.668267,-1.8518,-0.9456,0.9358,-10.1836,-5.1999,5.1462,-0.8627,-0.4744,-3.6452,
0.669798,-1.9490,-0.7961,1.1727,-10.1836,-5.1999,5.1462,-0.8627,-0.4744,-3.6452,
0.671237,-1.9490,-0.7961,1.1727,-11.1686,-4.5619,6.7201,-0.8627,-0.4744,-3.6452,
0.673200,-1.9490,-0.7961,1.1727,-11.1686,-4.5619,6.7201,-0.2879,-0.5007,-3.3190,
0.683220,-1.9490,-0.7961,1.1727,-11.1686,-4.5619,6.7201,0.1330,-0.6204,-3.0777,
0.686916,-1.7270,-0.6601,0.7765,-11.1686,-4.5619,6.7201,0.1330,-0.6204,-3.0777,
0.688590,-1.7270,-0.6601,0.7765,-8.4790,-3.2409,3.8125,0.1330,-0.6204,-3.0777,
0.693091,-1.7270,-0.6601,0.7765,-8.4790,-3.2409,3.8125,0.3309,-0.6925,-2.9463,
0.704094,-1.7270,-0.6601,0.7765,-8.4790,-3.2409,3.8125,0.3871,-0.6803,-2.8804,
0.707879,-1.6067,-0.6111,0.4730,-8.4790,-3.2409,3.8125,0.3871,-0.6803,-2.8804,
0.711063,-1.6067,-0.6111,0.4730,-6.9079,-2.6276,2.0336,0.3871,-0.6803,-2.8804,
0.714107,-1.6067,-0.6111,0.4730,-6.9079,-2.6276,2.0336,0.4005,-0.6296,-2.8217,
0.723330,-1.6067,-0.6111,0.4730,-6.9079,-2.6276,2.0336,0.4122,-0.6235,-2.7087,
0.730676,-1.6292,-0.5563,0.3496,-6.9079,-2.6276,2.0336,0.4122,-0.6235,-2.7087,
0.732602,-1.6292,-0.5563,0.3496,-6.8708,-2.3461,1.4744,0.4122,-0.6235,-2.7087,
0.733629,-1.6292,-0.5563,0.3496,-6.8708,-2.3461,1.4744,0.4158,-0.6962,-2.5627,
0.743470,-1.6292,-0.5563,0.3496,-6.8708,-2.3461,1.4744,0.4409,-0.7512,-2.4161,
0.746707,-1.6436,-0.5262,0.4589,-6.8708,-2.3461,1.4744,0.4409,-0.7512,-2.4161,
0.747630,-1.6436,-0.5262,0.4589,-7.0811,-2.2672,1.9772,0.4409,-0.7512,-2.4161,
0.752736,-1.6436,-0.5262,0.4589,-7.0811,-2.2672,1.9772,0.5264,-0.7591,-2.2555,
0.762751,-1.6436,-0.5262,0.4589,-7.0811,-2.2672,1.9772,0.6913,-0.7218,-2.0594,
0.766709,-1.6177,-0.4402,0.5788,-7.0811,-2.2672,1.9772,0.6913,-0.7218,-2.0594,
0.767639,-1.6177,-0.4402,0.5788,-6.9087,-1.8802,2.4718,0.6913,-0.7218,-2.0594,
0.772830,-1.6177,-0.4402,0.5788,-6.9087,-1.8802,2.4718,0.9412,-0.6760,-1.8132,
0.782770,-1.6177,-0.4402,0.5788,-6.9087,-1.8802,2.4718,1.2490,-0.6174,-1.5475,
0.786973,-1.4716,-0.3786,0.4747,-6.9087,-1.8802,2.4718,1.2490,-0.6174,-1.5475,
0.787886,-1.4716,-0.3786,0.4747,-5.3561,-1.3778,1.7277,1.2490,-0.6174,-1.5475,
0.793524,-1.4716,-0.3786,0.4747,-5.3561,-1.3778,1.7277,1.5508,-0.4989,-1.3147,
0.802807,-1.4716,-0.3786,0.4747,-5.3561,-1.3778,1.7277,1.8006,-0.3608,-1.0985,
0.806913,-1.4363,-0.3266,0.1946,-5.3561,-1.3778,1.7277,1.8006,-0.3608,-1.0985,
0.808004,-1.4363,-0.3266,0.1946,-4.5954,-1.0451,0.6226,1.8006,-0.3608,-1.0985,
0.812920,-1.4363,-0.3266,0.1946,-4.5954,-1.0451,0.6226,1.9802,-0.1592,-0.6397,
0.822918,-1.4363,-0.3266,0.1946,-4.5954,-1.0451,0.6226,1.8849,-0.2038,-0.4149,
0.827380,-1.5009,-0.3613,0.0033,-4.5954,-1.0451,0.6226,1.8849,-0.2038,-0.4149,
0.828457,-1.5009,-0.3613,0.0033,-5.1745,-1.2457,0.0114,1.8849,-0.2038,-0.4149,
0.832859,-1.5009,-0.3613,0.0033,-5.1745,-1.2457,0.0114,1.6760,-0.5367,-0.1700,
0.844231,-1.5009,-0.3613,0.0033,-5.1745,-1.2457,0.0114,1.0041,-1.3773,0.0890,
0.847270,-1.5248,-0.3867,-0.2928,-5.1745,-1.2457,0.0114,1.0041,-1.3773,0.0890,
0.848380,-1.5248,-0.3867,-0.2928,-5.5982,-1.4198,-1.0750,1.0041,-1.3773,0.0890,
0.852884,-1.5248,-0.3867,-0.2928,-5.5982,-1.4198,-1.0750,0.5484,-1.9283,0.3120,
0.862974,-1.5248,-0.3867,-0.2928,-5.5982,-1.4198,-1.0750,0.5062,-2.1195,0.5399,
0.866970,-1.4414,-0.2824,0.0088,-5.5982,-1.4198,-1.0750,0.5062,-2.1195,0.5399,
0.867962,-1.4414,-0.2824,0.0088,-4.5023,-0.8821,0.0275,0.5062,-2.1195,0.5399,
0.872926,-1.4414,-0.2824,0.0088,-4.5023,-0.8821,0.0275,0.3511,-2.2466,0.8490,
0.882913,-1.4414,-0.2824,0.0088,-4.5023,-0.8821,0.0275,0.0377,-2.3938,1.1214,
0.886838,-1.0999,-0.3636,-0.3626,-4.5023,-0.8821,0.0275,0.0377,-2.3938,1.1214,
0.887945,-1.0999,-0.3636,-0.3626,-1.8928,-0.6258,-0.6239,0.0377,-2.3938,1.1214,
0.894141,-1.0999,-0.3636,-0.3626,-1.8928,-0.6258,-0.6239,-0.4534,-2.7798,1.2582,
0.903017,-1.0999,-0.3636,-0.3626,-1.8928,-0.6258,-0.6239,-1.0173,-3.2062,1.2387,
0.906928,-0.9037,-0.4799,-0.1586,-1.8928,-0.6258,-0.6239,-1.0173,-3.2062,1.2387,
0.907930,-0.9037,-0.4799,-0.1586,-0.2973,-0.1579,-0.0522,-1.0173,-3.2062,1.2387,
0.913190,-0.9037,-0.4799,-0.1586,-0.2973,-0.1579,-0.0522,-1.4363,-3.3345,1.1458,
0.923009,-0.9037,-0.4799,-0.1586,-0.2973,-0.1579,-0.0522,-1.4663,-3.1952,1.1361,
0.927529,-0.8470,-0.3261,0.7643,-0.2973,-0.1579,-0.0522,-1.4663,-3.1952,1.1361,
0.928824,-0.8470,-0.3261,0.7643,-1.3005,-0.5008,1.1735,-1.4663,-3.1952,1.1361,
0.932937,-0.8470,-0.3261,0.7643,-1.3005,-0.5008,1.1735,-1.0808,-2.7371,1.1929,
0.944279,-0.8470,-0.3261,0.7643,-1.3005,-0.5008,1.1735,-0.4400,-2.1354,1.2277,
0.947101,-0.8852,-0.4494,0.6365,-1.3005,-0.5008,1.1735,-0.4400,-2.1354,1.2277,
0.948216,-0.8852,-0.4494,0.6365,-1.3141,-0.6671,0.9449,-0.4400,-2.1354,1.2277,
0.952962,-0.8852,-0.4494,0.6365,-1.3141,-0.6671,0.9449,0.1269,-1.6974,1.3248,
0.963244,-0.8852,-0.4494,0.6365,-1.3141,-0.6671,0.9449,0.5294,-1.3248,1.3755,
0.967055,-0.7732,-0.4124,0.6375,-1.3141,-0.6671,0.9449,0.5294,-1.3248,1.3755,
0.968165,-0.7732,-0.4124,0.6375,-0.5804,-0.3096,0.4786,0.5294,-1.3248,1.3755,
0.972933,-0.7732,-0.4124,0.6375,-0.5804,-0.3096,0.4786,0.8752,-0.9033,1.1452,
0.982897,-0.7732,-0.4124,0.6375,-0.5804,-0.3096,0.4786,1.2319,-0.5758,0.9528,
0.987052,-0.7957,-0.4135,0.2516,-0.5804,-0.3096,0.4786,1.2319,-0.5758,0.9528,
0.988154,-0.7957,-0.4135,0.2516,0.5803,0.3016,-0.1835,1.2319,-0.5758,0.9528,
0.994484,-0.7957,-0.4135,0.2516,0.5803,0.3016,-0.1835,1.2936,-0.5160,0.7879,
1.002875,-0.7957,-0.4135,0.2516,0.5803,0.3016,-0.1835,1.0908,-0.6327,0.7140,
1.006869,-0.7699,-0.5066,0.2099,0.5803,0.3016,-0.1835,1.0908,-0.6327,0.7140,
1.007859,-0.7699,-0.5066,0.2099,0.4427,0.2913,-0.1207,1.0908,-0.6327,0.7140,
1.012970,-0.7699,-0.5066,0.2099,0.4427,0.2913,-0.1207,0.8685,-0.7438,0.6944,
1.022921,-0.7699,-0.5066,0.2099,0.4427,0.2913,-0.1207,0.7548,-0.8825,0.5765,
1.027692,-0.7598,-0.5623,0.4274,0.4427,0.2913,-0.1207,0.7548,-0.8825,0.5765,
1.029028,-0.7598,-0.5623,0.4274,-0.2633,-0.1948,0.1481,0.7548,-0.8825,0.5765,
1.032914,-0.7598,-0.5623,0.4274,-0.2633,-0.1948,0.1481,0.6088,-1.3779,0.2900,
1.044296,-0.7598,-0.5623,0.4274,-0.2633,-0.1948,0.1481,0.3755,-2.0767,-0.0460,
1.047146,-0.6975,-0.5982,0.3843,-0.2633,-0.1948,0.1481,0.3755,-2.0767,-0.0460,
1.048252,-0.6975,-0.5982,0.3843,0.0321,0.0276,-0.0177,0.3755,-2.0767,-0.0460,
1.052834,-0.6975,-0.5982,0.3843,0.0321,0.0276,-0.0177,0.3052,-2.4268,-0.3257,
1.063002,-0.6975,-0.5982,0.3843,0.0321,0.0276,-0.0177,0.2387,-2.2313,-0.3783,
1.067005,-0.7753,-0.5676,0.0853,0.0321,0.0276,-0.0177,0.2387,-2.2313,-0.3783,
1.068009,-0.7753,-0.5676,0.0853,0.2836,0.2076,-0.0312,0.2387,-2.2313,-0.3783,
1.072904,-0.7753,-0.5676,0.0853,0.2836,0.2076,-0.0312,0.0884,-1.9112,-0.3441,
1.082912,-0.7753,-0.5676,0.0853,0.2836,0.2076,-0.0312,-0.0814,-1.6821,-0.3996,
1.086877,-0.6413,-0.6221,0.0730,0.2836,0.2076,-0.0312,-0.0814,-1.6821,-0.3996,
1.088264,-0.6413,-0.6221,0.0730,0.7306,0.7088,-0.0832,-0.0814,-1.6821,-0.3996,
1.094335,-0.6413,-0.6221,0.0730,0.7306,0.7088,-0.0832,-0.2323,-1.4885,-0.5047,
1.102886,-0.6413,-0.6221,0.0730,0.7306,0.7088,-0.0832,-0.3655,-1.4665,-0.6061,
1.106963,-0.2549,-0.8325,0.3456,0.7306,0.7088,-0.0832,-0.3655,-1.4665,-0.6061,
1.108074,-0.2549,-0.8325,0.3456,4.3866,-1.2449,2.3998,-0.3655,-1.4665,-0.6061,
1.113023,-0.2549,-0.8325,0.3456,4.3866,-1.2449,2.3998,-0.3826,-1.3846,-0.8224,
1.122953,-0.2549,-0.8325,0.3456,4.3866,-1.2449,2.3998,-0.2433,-1.4469,-1.0985,
1.127908,-0.0988,-0.9447,0.6288,4.3866,-1.2449,2.3998,-0.2433,-1.4469,-1.0985,
1.129125,-0.0988,-0.9447,0.6288,5.6770,-2.1496,4.9485,-0.2433,-1.4469,-1.0985,
1.132913,-0.0988,-0.9447,0.6288,5.6770,-2.1496,4.9485,-0.3472,-1.7939,-1.6623,
1.144500,-0.0988,-0.9447,0.6288,5.6770,-2.1496,4.9485,-0.1584,-0.0865,-1.9549,
1.147066,-0.4758,-0.8043,0.4928,5.6770,-2.1496,4.9485,-0.1584,-0.0865,-1.9549,
1.148322,-0.4758,-0.8043,0.4928,1.6329,-0.4928,3.4361,-0.1584,-0.0865,-1.9549,
1.153006,-0.4758,-0.8043,0.4928,1.6329,-0.4928,3.4361,0.5887,0.8646,-1.6611,
1.163070,-0.4758,-0.8043,0.4928,1.6329,-0.4928,3.4361,0.9057,1.2470,-1.4821,
1.166882,-0.2593,-0.8013,0.4936,1.6329,-0.4928,3.4361,0.9057,1.2470,-1.4821,
1.167966,-0.2593,-0.8013,0.4936,3.4772,-0.2536,3.3557,0.9057,1.2470,-1.4821,
1.172938,-0.2593,-0.8013,0.4936,3.4772,-0.2536,3.3557,0.8691,1.4980,-1.5346,
1.183452,-0.2593,-0.8013,0.4936,3.4772,-0.2536,3.3557,0.9650,1.4577,-1.6177,
1.186859,-0.3032,-0.6243,0.7881,3.4772,-0.2536,3.3557,0.9650,1.4577,-1.6177,
1.187999,-0.3032,-0.6243,0.7881,2.7836,1.6592,6.1235,0.9650,1.4577,-1.6177,
1.194655,-0.3032,-0.6243,0.7881,2.7836,1.6592,6.1235,1.1348,1.3594,-1.5725,
1.203012,-0.3032,-0.6243,0.7881,2.7836,1.6592,6.1235,1.3138,1.5035,-1.4277,
1.206755,-0.5731,-0.4611,0.8471,2.7836,1.6592,6.1235,1.3138,1.5035,-1.4277,
1.207936,-0.5731,-0.4611,0.8471,-0.0822,3.3707,6.4882,1.3138,1.5035,-1.4277,
1.212863,-0.5731,-0.4611,0.8471,-0.0822,3.3707,6.4882,1.5508,1.6086,-1.2115,
1.222844,-0.5731,-0.4611,0.8471,-0.0822,3.3707,6.4882,1.5783,1.5176,-1.0178,
1.227905,-0.6710,-0.3528,0.2917,-0.0822,3.3707,6.4882,1.5783,1.5176,-1.0178,
1.229216,-0.6710,-0.3528,0.2917,-1.1482,4.4510,0.8158,1.5783,1.5176,-1.0178,
1.232858,-0.6710,-0.3528,0.2917,-1.1482,4.4510,0.8158,1.2729,1.0924,-0.8773,
1.244461,-0.6710,-0.3528,0.2917,-1.1482,4.4510,0.8158,0.7884,0.5671,-0.7888,
1.247211,-0.6704,-0.1678,0.1389,-1.1482,4.4510,0.8158,0.7884,0.5671,-0.7888,
1.248108,-0.6704,-0.1678,0.1389,-1.1783,6.2360,-0.8743,0.7884,0.5671,-0.7888,
1.253382,-0.6704,-0.1678,0.1389,-1.1783,6.2360,-0.8743,0.3767,0.2189,-0.6556,
1.263024,-0.6704,-0.1678,0.1389,-1.1783,6.2360,-0.8743,0.1562,0.1444,-0.5188,
1.267281,-0.5805,-0.1340,0.5193,-1.1783,6.2360,-0.8743,0.1562,0.1444,-0.5188,
1.268991,-0.5805,-0.1340,0.5193,-0.2961,6.5188,2.6908,0.1562,0.1444,-0.5188,
1.273289,-0.5805,-0.1340,0.5193,-0.2961,6.5188,2.6908,0.1519,0.3472,-0.4351,
1.283029,-0.5805,-0.1340,0.5193,-0.2961,6.5188,2.6908,0.2790,0.6471,-0.3819,
1.286975,-0.6367,-0.2779,0.7831,-0.2961,6.5188,2.6908,0.2790,0.6471,-0.3819,
1.288149,-0.6367,-0.2779,0.7831,-0.8024,5.0300,5.1261,0.2790,0.6471,-0.3819,
1.294540,-0.6367,-0.2779,0.7831,-0.8024,5.0300,5.1261,0.4140,0.8585,-0.3783,
1.303082,-0.6367,-0.2779,0.7831,-0.8024,5.0300,5.1261,0.5417,0.9336,-0.4497,
1.306936,-0.7026,-0.3468,0.8115,-0.8024,5.0300,5.1261,0.5417,0.9336,-0.4497,
1.307924,-0.7026,-0.3468,0.8115,-1.3877,4.2577,5.2461,0.5417,0.9336,-0.4497,
1.313016,-0.7026,-0.3468,0.8115,-1.3877,4.2577,5.2461,0.6492,0.9177,-0.4815,
1.322821,-0.7026,-0.3468,0.8115,-1.3877,4.2577,5.2461,0.6883,0.7913,-0.4332,
1.328258,-0.7641,-0.4591,0.7272,-1.3877,4.2577,5.2461,0.6883,0.7913,-0.4332,
1.329581,-0.7641,-0.4591,0.7272,-1.9389,3.0554,4.2430,0.6883,0.7913,-0.4332,
1.332799,-0.7641,-0.4591,0.7272,-1.9389,3.0554,4.2430,0.6351,0.6270,-0.3489,
1.342900,-0.7641,-0.4591,0.7272,-1.9389,3.0554,4.2430,0.5441,0.4608,-0.2201,
1.346749,-0.8207,-0.7660,0.9620,-1.9389,3.0554,4.2430,0.5441,0.4608,-0.2201,
1.348086,-0.8207,-0.7660,0.9620,-2.4553,-0.0557,6.3576,0.5441,0.4608,-0.2201,
1.352846,-0.8207,-0.7660,0.9620,-2.4553,-0.0557,6.3576,0.4751,0.3007,-0.0741,
1.362863,-0.8207,-0.7660,0.9620,-2.4553,-0.0557,6.3576,0.4879,0.1578,0.0750,
1.366759,-0.6831,-0.9660,1.2788,-2.4553,-0.0557,6.3576,0.4879,0.1578,0.0750,
1.367688,-0.6831,-0.9660,1.2788,-1.0798,-2.1247,9.2545,0.4879,0.1578,0.0750,
1.372818,-0.6831,-0.9660,1.2788,-1.0798,-2.1247,9.2545,0.5227,-0.0291,-0.0570,
1.382819,-0.6831,-0.9660,1.2788,-1.0798,-2.1247,9.2545,0.5820,-0.3590,-0.3532,
1.386741,-0.3861,-1.0153,1.3160,-1.0798,-2.1247,9.2545,0.5820,-0.3590,-0.3532,
1.387981,-0.3861,-1.0153,1.3160,1.7598,-2.6806,9.3483,0.5820,-0.3590,-0.3532,
1.392917,-0.3861,-1.0153,1.3160,1.7598,-2.6806,9.3483,0.5502,-0.8416,-0.7949,
1.402877,-0.3861,-1.0153,1.3160,1.7598,-2.6806,9.3483,0.4690,-1.4830,-1.2842,
1.406847,-0.4030,-1.0465,1.2766,1.7598,-2.6806,9.3483,0.4690,-1.4830,-1.2842,
1.407824,-0.4030,-1.0465,1.2766,1.3383,-2.9317,8.6934,0.4690,-1.4830,-1.2842,
1.412860,-0.4030,-1.0465,1.2766,1.3383,-2.9317,8.6934,0.4934,-1.9210,-1.6794,
1.422846,-0.4030,-1.0465,1.2766,1.3383,-2.9317,8.6934,0.8336,-1.8758,-1.8877,
1.428647,-0.6444,-0.9758,1.5785,1.3383,-2.9317,8.6934,0.8336,-1.8758,-1.8877,
1.430597,-0.6444,-0.9758,1.5785,-1.4411,-2.1102,11.3601,0.8336,-1.8758,-1.8877,
1.433024,-0.6444,-0.9758,1.5785,-1.4411,-2.1102,11.3601,1.4182,-1.4488,-1.9158,
1.443075,-0.6444,-0.9758,1.5785,-1.4411,-2.1102,11.3601,1.9509,-0.9558,-1.8486,
1.447201,-0.8046,-0.9665,0.8961,-1.4411,-2.1102,11.3601,1.9509,-0.9558,-1.8486,
1.448406,-0.8046,-0.9665,0.8961,-3.3959,-1.9880,4.3082,1.9509,-0.9558,-1.8486,
1.452952,-0.8046,-0.9665,0.8961,-3.3959,-1.9880,4.3082,2.1537,-0.6595,-1.6867,
1.463442,-0.8046,-0.9665,0.8961,-3.3959,-1.9880,4.3082,1.2906,-0.2234,-1.5719,
1.466991,-0.4650,-0.8314,-2.6295,-3.3959,-1.9880,4.3082,1.2906,-0.2234,-1.5719,
1.468473,-0.4650,-0.8314,-2.6295,-0.2851,-0.6309,-30.3969,1.2906,-0.2234,-1.5719,
1.473471,-0.4650,-0.8314,-2.6295,-0.2851,-0.6309,-30.3969,-1.0606,0.2684,-1.5719,
1.485653,-0.4650,-0.8314,-2.6295,-0.2851,-0.6309,-30.3969,-1.6666,0.4816,-1.3697,
1.487634,-0.5654,-0.7902,1.2753,-0.2851,-0.6309,-30.3969,-1.6666,0.4816,-1.3697,
1.489174,-0.5654,-0.7902,1.2753,-1.4252,0.0117,8.1302,-1.6666,0.4816,-1.3697,
1.493250,-0.5654,-0.7902,1.2753,-1.4252,0.0117,8.1302,-0.5243,2.0167,-0.9757,
1.503833,-0.5654,-0.7902,1.2753,-1.4252,0.0117,8.1302,0.5746,3.1657,-0.7649,
1.507159,-0.5560,-0.3608,-0.0850,-1.4252,0.0117,8.1302,0.5746,3.1657,-0.7649,
1.508455,-0.5560,-0.3608,-0.0850,-1.1772,4.2762,-4.9425,0.5746,3.1657,-0.7649,
1.513007,-0.5560,-0.3608,-0.0850,-1.1772,4.2762,-4.9425,0.8654,2.9427,-0.5163,
1.523026,-0.5560,-0.3608,-0.0850,-1.1772,4.2762,-4.9425,0.3786,2.3160,-0.2420,
1.528611,-0.3055,-0.2294,0.1093,-1.1772,4.2762,-4.9425,0.3786,2.3160,-0.2420,
1.529907,-0.3055,-0.2294,0.1093,1.5046,5.5261,-2.8649,0.3786,2.3160,-0.2420,
1.532981,-0.3055,-0.2294,0.1093,1.5046,5.5261,-2.8649,-0.2158,1.8493,0.0005,
1.543172,-0.3055,-0.2294,0.1093,1.5046,5.5261,-2.8649,-0.5628,1.7064,0.2137,
1.546921,1.0084,-0.5020,0.3564,1.5046,5.5261,-2.8649,-0.5628,1.7064,0.2137,
1.548411,1.0084,-0.5020,0.3564,14.4119,2.9317,-0.2486,-0.5628,1.7064,0.2137,
1.552989,1.0084,-0.5020,0.3564,14.4119,2.9317,-0.2486,-0.6373,2.1981,-0.2249,
1.563051,1.0084,-0.5020,0.3564,14.4119,2.9317,-0.2486,-0.3551,3.5017,-0.8089,
1.566976,0.2624,-0.3480,0.8201,14.4119,2.9317,-0.2486,-0.3551,3.5017,-0.8089,
1.568474,0.2624,-0.3480,0.8201,7.0542,4.5592,4.4937,-0.3551,3.5017,-0.8089,
1.576622,0.2624,-0.3480,0.8201,7.0542,4.5592,4.4937,0.0921,4.0069,-0.8425,
1.583038,0.2624,-0.3480,0.8201,7.0542,4.5592,4.4937,0.2442,4.0099,-0.7252,
1.586847,-0.4395,-0.1383,0.5557,7.0542,4.5592,4.4937,0.2442,4.0099,-0.7252,
1.588294,-0.4395,-0.1383,0.5557,0.2300,6.6508,2.0558,0.2442,4.0099,-0.7252,
1.593018,-0.4395,-0.1383,0.5557,0.2300,6.6508,2.0558,0.2155,3.4730,-0.4699,
1.602970,-0.4395,-0.1383,0.5557,0.2300,6.6508,2.0558,0.1880,2.7815,-0.1944,
1.607068,-0.5593,-0.1406,0.7605,0.2300,6.6508,2.0558,0.1880,2.7815,-0.1944,
1.608444,-0.5593,-0.1406,0.7605,-0.8128,6.5676,4.1001,0.1880,2.7815,-0.1944,
1.613187,-0.5593,-0.1406,0.7605,-0.8128,6.5676,4.1001,0.2778,2.2818,0.0469,
1.622974,-0.5593,-0.1406,0.7605,-0.8128,6.5676,4.1001,0.4457,2.0814,0.2870,
1.628572,-0.5394,-0.1801,0.7228,-0.8128,6.5676,4.1001,0.4457,2.0814,0.2870,
1.629819,-0.5394,-0.1801,0.7228,-0.4322,6.0365,3.6553,0.4457,2.0814,0.2870,
1.632875,-0.5394,-0.1801,0.7228,-0.4322,6.0365,3.6553,0.5643,1.9617,0.4782,
1.643489,-0.5394,-0.1801,0.7228,-0.4322,6.0365,3.6553,0.4384,1.7112,0.4812,
1.646941,-0.4277,-0.3175,0.1867,-0.4322,6.0365,3.6553,0.4384,1.7112,0.4812,
1.648091,-0.4277,-0.3175,0.1867,0.8930,4.5108,-1.6675,0.4384,1.7112,0.4812,
1.653074,-0.4277,-0.3175,0.1867,0.8930,4.5108,-1.6675,0.0389,1.2525,0.3786,
1.663003,-0.4277,-0.3175,0.1867,0.8930,4.5108,-1.6675,-0.4205,0.8530,0.3578,
1.666883,-1.1018,-0.6433,0.6339,0.8930,4.5108,-1.6675,-0.4205,0.8530,0.3578,
1.667988,-1.1018,-0.6433,0.6339,-5.5200,1.1936,2.7330,-0.4205,0.8530,0.3578,
1.672961,-1.1018,-0.6433,0.6339,-5.5200,1.1936,2.7330,-0.6532,0.7161,0.5997,
1.682998,-1.1018,-0.6433,0.6339,-5.5200,1.1936,2.7330,-0.3685,0.6215,0.9510,
1.686948,-0.4272,-1.2155,-0.1858,-5.5200,1.1936,2.7330,-0.3685,0.6215,0.9510,
1.688449,-0.4272,-1.2155,-0.1858,1.2615,-4.4726,-5.1589,-0.3685,0.6215,0.9510,
1.693161,-0.4272,-1.2155,-0.1858,1.2615,-4.4726,-5.1589,-0.2867,0.6752,0.8911,
1.702969,-0.4272,-1.2155,-0.1858,1.2615,-4.4726,-5.1589,-0.6795,0.4431,0.5985,
1.706953,-0.5216,-1.2094,0.3805,1.2615,-4.4726,-5.1589,-0.6795,0.4431,0.5985,
1.708123,-0.5216,-1.2094,0.3805,0.4756,-4.4589,0.5215,-0.6795,0.4431,0.5985,
1.712968,-0.5216,-1.2094,0.3805,0.4756,-4.4589,0.5215,-0.5048,0.2415,0.4214,
1.722918,-0.5216,-1.2094,0.3805,0.4756,-4.4589,0.5215,-0.2091,0.3179,0.2992,
1.728689,-0.5447,-0.9373,0.5062,0.4756,-4.4589,0.5215,-0.2091,0.3179,0.2992,
1.729756,-0.5447,-0.9373,0.5062,0.3033,-1.8017,1.8255,-0.2091,0.3179,0.2992,
1.732867,-0.5447,-0.9373,0.5062,0.3033,-1.8017,1.8255,0.6773,0.8420,0.1452,
1.743017,-0.5447,-0.9373,0.5062,0.3033,-1.8017,1.8255,1.0670,1.2849,0.0414,
1.746805,-0.5808,-0.6064,0.3873,0.3033,-1.8017,1.8255,1.0670,1.2849,0.0414,
1.747884,-0.5808,-0.6064,0.3873,0.0201,1.3778,0.6409,1.0670,1.2849,0.0414,
1.752902,-0.5808,-0.6064,0.3873,0.0201,1.3778,0.6409,1.3211,1.6764,-0.0631,
1.764819,-0.5808,-0.6064,0.3873,0.0201,1.3778,0.6409,1.2173,1.9971,-0.1590,
1.766835,-0.6740,-0.0265,-1.1390,0.0201,1.3778,0.6409,1.2173,1.9971,-0.1590,
1.768042,-0.6740,-0.0265,-1.1390,-0.7278,6.9966,-14.1563,1.2173,1.9971,-0.1590,
1.773060,-0.6740,-0.0265,-1.1390,-0.7278,6.9966,-14.1563,-0.3441,3.3007,-0.2139,
1.785560,-0.6740,-0.0265,-1.1390,-0.7278,6.9966,-14.1563,-0.8902,3.5414,-0.5340,
1.787257,-0.9205,-1.0477,0.7911,-0.7278,6.9966,-14.1563,-0.8902,3.5414,-0.5340,
1.789509,-0.9205,-1.0477,0.7911,-2.9923,-2.9426,5.2692,-0.8902,3.5414,-0.5340,
1.793819,-0.9205,-1.0477,0.7911,-2.9923,-2.9426,5.2692,-0.5402,3.6098,-0.5426,
1.803186,-0.9205,-1.0477,0.7911,-2.9923,-2.9426,5.2692,0.0890,2.9782,-0.3618,
1.806804,-1.0164,-0.4498,1.1865,-2.9923,-2.9426,5.2692,0.0890,2.9782,-0.3618,
1.807845,-1.0164,-0.4498,1.1865,-3.8094,2.9236,9.4876,0.0890,2.9782,-0.3618,
1.814610,-1.0164,-0.4498,1.1865,-3.8094,2.9236,9.4876,0.5716,2.3068,-0.2011,
1.822841,-1.0164,-0.4498,1.1865,-3.8094,2.9236,9.4876,0.7041,1.4993,-0.1975,
1.827246,-0.8650,-0.6027,0.3291,-3.8094,2.9236,9.4876,0.7041,1.4993,-0.1975,
1.828969,-0.8650,-0.6027,0.3291,-2.2301,1.3628,1.1493,0.7041,1.4993,-0.1975,
1.832913,-0.8650,-0.6027,0.3291,-2.2301,1.3628,1.1493,0.5294,1.0399,-0.1199,
1.842809,-0.8650,-0.6027,0.3291,-2.2301,1.3628,1.1493,0.3101,0.8169,0.0756,
1.846740,-1.0357,-0.9198,0.3062,-2.2301,1.3628,1.1493,0.3101,0.8169,0.0756,
1.847907,-1.0357,-0.9198,0.3062,-3.8283,-1.8096,0.9281,0.3101,0.8169,0.0756,
1.852832,-1.0357,-0.9198,0.3062,-3.8283,-1.8096,0.9281,0.1977,0.4431,0.3096,
1.862819,-1.0357,-0.9198,0.3062,-3.8283,-1.8096,0.9281,0.1360,-0.0053,0.5429,
1.866746,-1.1590,-1.0069,0.2625,-3.8283,-1.8096,0.9281,0.1360,-0.0053,0.5429,
1.867922,-1.1590,-1.0069,0.2625,-4.9325,-2.7620,0.4772,0.1360,-0.0053,0.5429,
1.872856,-1.1590,-1.0069,0.2625,-4.9325,-2.7620,0.4772,0.0780,-0.3633,0.7604,
1.882846,-1.1590,-1.0069,0.2625,-4.9325,-2.7620,0.4772,0.0230,-0.6070,0.9888,
1.886975,-1.0697,-1.0874,0.3688,-4.9325,-2.7620,0.4772,0.0230,-0.6070,0.9888,
1.889807,-1.0697,-1.0874,0.3688,-3.9406,-3.6832,1.4371,0.0230,-0.6070,0.9888,
1.892884,-1.0697,-1.0874,0.3688,-3.9406,-3.6832,1.4371,0.0200,-0.7426,1.1086,
1.902910,-1.0697,-1.0874,0.3688,-3.9406,-3.6832,1.4371,0.0829,-0.7060,1.1972,
1.906881,-1.0250,-1.0572,0.2967,-3.9406,-3.6832,1.4371,0.0829,-0.7060,1.1972,
1.907949,-1.0250,-1.0572,0.2967,-3.3715,-3.5469,0.6262,0.0829,-0.7060,1.1972,
1.913523,-1.0250,-1.0572,0.2967,-3.3715,-3.5469,0.6262,0.1580,-0.5374,1.1880,
1.923292,-1.0250,-1.0572,0.2967,-3.3715,-3.5469,0.6262,0.0426,-0.3339,1.0255,
1.926829,-0.9513,-1.1525,0.2890,-3.3715,-3.5469,0.6262,0.0426,-0.3339,1.0255,
1.927925,-0.9513,-1.1525,0.2890,-2.5191,-4.6362,0.4782,0.0426,-0.3339,1.0255,
1.933454,-0.9513,-1.1525,0.2890,-2.5191,-4.6362,0.4782,-0.0564,-0.4164,0.8923,
1.942956,-0.9513,-1.1525,0.2890,-2.5191,-4.6362,0.4782,-0.1755,-0.5099,0.8746,
1.946892,-1.1386,-1.1137,0.4437,-2.5191,-4.6362,0.4782,-0.1755,-0.5099,0.8746,
1.948147,-1.1386,-1.1137,0.4437,-4.2614,-4.3689,1.9463,-0.1755,-0.5099,0.8746,
1.952911,-1.1386,-1.1137,0.4437,-4.2614,-4.3689,1.9463,-0.1944,-0.6540,0.9400,
1.962885,-1.1386,-1.1137,0.4437,-4.2614,-4.3689,1.9463,-0.0179,-0.9326,0.9895,
1.966846,-0.9258,-1.1341,0.6288,-4.2614,-4.3689,1.9463,-0.0179,-0.9326,0.9895,
1.968048,-0.9258,-1.1341,0.6288,-2.0898,-4.6977,3.6647,-0.0179,-0.9326,0.9895,
1.972870,-0.9258,-1.1341,0.6288,-2.0898,-4.6977,3.6647,0.1440,-1.1384,0.9235,
1.983033,-0.9258,-1.1341,0.6288,-2.0898,-4.6977,3.6647,0.3327,-1.0499,0.7500,
1.986709,-0.5287,-1.0833,0.6522,-2.0898,-4.6977,3.6647,0.3327,-1.0499,0.7500,
1.987685,-0.5287,-1.0833,0.6522,1.8333,-4.3139,3.6979,0.3327,-1.0499,0.7500,
1.992959,-0.5287,-1.0833,0.6522,1.8333,-4.3139,3.6979,0.6040,-0.6858,0.4531,
2.002926,-0.5287,-1.0833,0.6522,1.8333,-4.3139,3.6979,1.0865,-0.3840,0.2326,
2.006964,-0.7081,-0.9628,0.8743,1.8333,-4.3139,3.6979,1.0865,-0.3840,0.2326,
2.008069,-0.7081,-0.9628,0.8743,0.0615,-3.2104,5.6690,1.0865,-0.3840,0.2326,
2.014470,-0.7081,-0.9628,0.8743,0.0615,-3.2104,5.6690,1.5117,-0.5086,0.0756,
2.023528,-0.7081,-0.9628,0.8743,0.0615,-3.2104,5.6690,1.6058,-0.7903,-0.1846,
2.026905,-0.4741,-0.4947,0.2542,0.0615,-3.2104,5.6690,1.6058,-0.7903,-0.1846,
2.028158,-0.4741,-0.4947,0.2542,2.2638,1.3244,-0.7220,1.6058,-0.7903,-0.1846,
2.034086,-0.4741,-0.4947,0.2542,2.2638,1.3244,-0.7220,1.0139,-0.3865,-0.4925,
2.042928,-0.4741,-0.4947,0.2542,2.2638,1.3244,-0.7220,0.9460,0.0338,-0.5065,
2.047854,-0.3017,-0.3560,0.6175,2.2638,1.3244,-0.7220,0.9460,0.0338,-0.5065,
2.048722,-0.3017,-0.3560,0.6175,3.8298,2.7107,2.6333,0.9460,0.0338,-0.5065,
2.055180,-0.3017,-0.3560,0.6175,3.8298,2.7107,2.6333,1.1916,0.4706,-0.5340,
2.063580,-0.3017,-0.3560,0.6175,3.8298,2.7107,2.6333,1.2112,0.4999,-0.6342,
2.067305,-0.0960,-0.1466,0.6246,3.8298,2.7107,2.6333,1.2112,0.4999,-0.6342,
2.068384,-0.0960,-0.1466,0.6246,5.7453,4.7651,2.5147,1.2112,0.4999,-0.6342,
2.072885,-0.0960,-0.1466,0.6246,5.7453,4.7651,2.5147,1.1128,0.2568,-0.7637,
2.082897,-0.0960,-0.1466,0.6246,5.7453,4.7651,2.5147,1.0468,0.0014,-0.8456,
2.087074,0.0666,0.0563,0.4438,5.7453,4.7651,2.5147,1.0468,0.0014,-0.8456,
2.088524,0.0666,0.0563,0.4438,7.1781,6.7669,0.4814,1.0468,0.0014,-0.8456,
2.095382,0.0666,0.0563,0.4438,7.1781,6.7669,0.4814,1.0194,-0.0762,-0.9189,
2.103069,0.0666,0.0563,0.4438,7.1781,6.7669,0.4814,1.1965,0.1315,-0.9397,
2.106867,-0.1192,-0.0221,0.4974,7.1781,6.7669,0.4814,1.1965,0.1315,-0.9397,
2.108083,-0.1192,-0.0221,0.4974,5.1743,5.9881,0.6982,1.1965,0.1315,-0.9397,
2.113337,-0.1192,-0.0221,0.4974,5.1743,5.9881,0.6982,1.4439,0.4022,-0.8364,
2.122972,-0.1192,-0.0221,0.4974,5.1743,5.9881,0.6982,1.5649,0.5738,-0.6623,
2.129960,-0.5431,-0.0171,0.2894,5.1743,5.9881,0.6982,1.5649,0.5738,-0.6623,
2.131367,-0.5431,-0.0171,0.2894,0.9573,5.9181,-1.6027,1.5649,0.5738,-0.6623,
2.136766,-0.5431,-0.0171,0.2894,0.9573,5.9181,-1.6027,1.5203,0.6282,-0.4369,
2.143202,-0.5431,-0.0171,0.2894,0.9573,5.9181,-1.6027,1.2985,0.6221,-0.1290,
2.149273,-0.7058,0.0796,0.2693,0.9573,5.9181,-1.6027,1.2985,0.6221,-0.1290,
2.150487,-0.7058,0.0796,0.2693,-0.5619,6.6430,-1.9881,1.2985,0.6221,-0.1290,
2.152989,-0.7058,0.0796,0.2693,-0.5619,6.6430,-1.9881,0.9076,0.3875,0.1868,
2.162978,-0.7058,0.0796,0.2693,-0.5619,6.6430,-1.9881,0.6589,0.0051,0.5002,
2.166793,-0.6606,-0.0533,0.7817,-0.5619,6.6430,-1.9881,0.6589,0.0051,0.5002,
2.168078,-0.6606,-0.0533,0.7817,-0.0158,5.0791,2.8550,0.6589,0.0051,0.5002,
2.173071,-0.6606,-0.0533,0.7817,-0.0158,5.0791,2.8550,0.4567,-0.4934,0.7329,
2.183443,-0.6606,-0.0533,0.7817,-0.0158,5.0791,2.8550,0.1110,-0.8513,0.9131,
2.186767,-0.5040,0.0232,0.4079,-0.0158,5.0791,2.8550,0.1110,-0.8513,0.9131,
2.187775,-0.5040,0.0232,0.4079,1.5979,5.5397,-1.0245,0.1110,-0.8513,0.9131,
2.192802,-0.5040,0.0232,0.4079,1.5979,5.5397,-1.0245,-0.2891,-0.8159,1.1196,
2.202844,-0.5040,0.0232,0.4079,1.5979,5.5397,-1.0245,-0.4082,-0.5697,1.1324,
2.206705,-0.2276,-0.3696,0.8576,1.5979,5.5397,-1.0245,-0.4082,-0.5697,1.1324,
2.207833,-0.2276,-0.3696,0.8576,4.3410,1.4687,3.2020,-0.4082,-0.5697,1.1324,
2.212826,-0.2276,-0.3696,0.8576,4.3410,1.4687,3.2020,-0.2635,-0.4274,1.1868,
2.222871,-0.2276,-0.3696,0.8576,4.3410,1.4687,3.2020,-0.3808,-0.4573,1.2454,
2.226966,-0.6568,-0.1528,-0.3946,4.3410,1.4687,3.2020,-0.3808,-0.4573,1.2454,
2.228151,-0.6568,-0.1528,-0.3946,0.2737,3.3762,-9.0998,-0.3808,-0.4573,1.2454,
2.232923,-0.6568,-0.1528,-0.3946,0.2737,3.3762,-9.0998,-1.0051,-0.8239,1.2222,
2.242841,-0.6568,-0.1528,-0.3946,0.2737,3.3762,-9.0998,-1.5218,-1.4506,1.2772,
2.246691,-0.4137,-1.1677,1.3665,0.2737,3.3762,-9.0998,-1.5218,-1.4506,1.2772,
2.247801,-0.4137,-1.1677,1.3665,2.6044,-6.6007,8.0647,-1.5218,-1.4506,1.2772,
2.252776,-0.4137,-1.1677,1.3665,2.6044,-6.6007,8.0647,-0.7106,-0.7512,1.3486,
2.262784,-0.4137,-1.1677,1.3665,2.6044,-6.6007,8.0647,0.0908,0.3398,1.1061,
2.266871,-1.0346,-1.0572,0.4625,2.6044,-6.6007,8.0647,0.0908,0.3398,1.1061,
2.267743,-1.0346,-1.0572,0.4625,-3.4100,-5.6165,-0.7946,0.0908,0.3398,1.1061,
2.272849,-1.0346,-1.0572,0.4625,-3.4100,-5.6165,-0.7946,0.4567,0.9397,0.7903,
2.282843,-1.0346,-1.0572,0.4625,-3.4100,-5.6165,-0.7946,0.5472,0.6263,0.4495,
2.286692,-1.0113,-1.0145,0.4784,-3.4100,-5.6165,-0.7946,0.5472,0.6263,0.4495,
2.287718,-1.0113,-1.0145,0.4784,-3.0637,-5.2732,-0.5553,0.5472,0.6263,0.4495,
2.292931,-1.0113,-1.0145,0.4784,-3.0637,-5.2732,-0.5553,0.8092,0.5481,0.2540,
2.302779,-1.0113,-1.0145,0.4784,-3.0637,-5.2732,-0.5553,1.0560,0.7021,0.0243,
2.306815,-0.7338,-0.8922,0.4547,-3.0637,-5.2732,-0.5553,1.0560,0.7021,0.0243,
2.307848,-0.7338,-0.8922,0.4547,-0.2924,-4.1143,-0.7548,1.0560,0.7021,0.0243,
2.313248,-0.7338,-0.8922,0.4547,-0.2924,-4.1143,-0.7548,1.2600,1.2164,-0.2286,
2.323003,-0.7338,-0.8922,0.4547,-0.2924,-4.1143,-0.7548,1.2637,1.8187,-0.5634,
2.327047,-0.5940,-0.6328,0.3467,-0.2924,-4.1143,-0.7548,1.2637,1.8187,-0.5634,
2.328296,-0.5940,-0.6328,0.3467,1.1691,-1.5666,-1.6844,1.2637,1.8187,-0.5634,
2.333552,-0.5940,-0.6328,0.3467,1.1691,-1.5666,-1.6844,1.0242,2.2317,-1.0178,
2.344059,-0.5940,-0.6328,0.3467,1.1691,-1.5666,-1.6844,0.6137,2.7027,-1.7436,
2.347542,-0.3209,-0.7391,0.7561,1.1691,-1.5666,-1.6844,0.6137,2.7027,-1.7436,
2.348929,-0.3209,-0.7391,0.7561,3.9005,-2.4120,2.5945,0.6137,2.7027,-1.7436,
2.354647,-0.3209,-0.7391,0.7561,3.9005,-2.4120,2.5945,0.2771,2.8639,-2.3575,
2.363089,-0.3209,-0.7391,0.7561,3.9005,-2.4120,2.5945,0.0505,2.2989,-2.5731,
2.366738,-0.9044,-0.7497,0.6758,3.9005,-2.4120,2.5945,0.0505,2.2989,-2.5731,
2.367754,-0.9044,-0.7497,0.6758,-1.8729,-2.1427,2.1254,0.0505,2.2989,-2.5731,
2.372836,-0.9044,-0.7497,0.6758,-1.8729,-2.1427,2.1254,-0.1871,1.5994,-2.4888,
2.382835,-0.9044,-0.7497,0.6758,-1.8729,-2.1427,2.1254,-0.3869,1.0320,-2.1113,
2.386759,-1.1660,-0.6192,0.2730,-1.8729,-2.1427,2.1254,-0.3869,1.0320,-2.1113,
2.387768,-1.1660,-0.6192,0.2730,-4.5690,-0.5170,-1.6062,-0.3869,1.0320,-2.1113,
2.392912,-1.1660,-0.6192,0.2730,-4.5690,-0.5170,-1.6062,-0.5628,0.5836,-1.6128,
2.402778,-1.1660,-0.6192,0.2730,-4.5690,-0.5170,-1.6062,-0.6086,0.3686,-1.3612,
2.406916,-0.4247,-0.7067,0.3491,-4.5690,-0.5170,-1.6062,-0.6086,0.3686,-1.3612,
2.407853,-0.4247,-0.7067,0.3491,2.5590,-1.1135,-0.7281,-0.6086,0.3686,-1.3612,
2.412916,-0.4247,-0.7067,0.3491,2.5590,-1.1135,-0.7281,-0.5555,0.1987,-1.4094,
2.422780,-0.4247,-0.7067,0.3491,2.5590,-1.1135,-0.7281,-0.5041,-0.1146,-1.5383,
2.426967,-0.1581,-0.5018,0.4944,2.5590,-1.1135,-0.7281,-0.5041,-0.1146,-1.5383,
2.428131,-0.1581,-0.5018,0.4944,4.9736,1.1494,0.7440,-0.5041,-0.1146,-1.5383,
2.432761,-0.1581,-0.5018,0.4944,4.9736,1.1494,0.7440,-0.4217,-0.6009,-1.7539,
2.442765,-0.1581,-0.5018,0.4944,4.9736,1.1494,0.7440,-0.3527,-0.9564,-1.9751,
2.446959,-0.4119,-0.2343,0.4256,4.9736,1.1494,0.7440,-0.3527,-0.9564,-1.9751,
2.447859,-0.4119,-0.2343,0.4256,2.1794,4.0335,-0.0087,-0.3527,-0.9564,-1.9751,
2.452706,-0.4119,-0.2343,0.4256,2.1794,4.0335,-0.0087,-0.2922,-0.9228,-2.0814,
2.462899,-0.4119,-0.2343,0.4256,2.1794,4.0335,-0.0087,-0.2146,-0.9161,-2.1461,
2.466944,-0.5899,-0.1797,0.2998,2.1794,4.0335,-0.0087,-0.2146,-0.9161,-2.1461,
2.467838,-0.5899,-0.1797,0.2998,0.1127,4.7994,-1.3517,-0.2146,-0.9161,-2.1461,
2.472946,-0.5899,-0.1797,0.2998,0.1127,4.7994,-1.3517,-0.1114,-0.7646,-2.0221,
2.482940,-0.5899,-0.1797,0.2998,0.1127,4.7994,-1.3517,0.0139,-0.6742,-1.9231,
2.486779,-0.7709,-0.0035,0.3271,0.1127,4.7994,-1.3517,0.0139,-0.6742,-1.9231,
2.487764,-0.7709,-0.0035,0.3271,-1.8949,6.6588,-1.1909,0.0139,-0.6742,-1.9231,
2.492899,-0.7709,-0.0035,0.3271,-1.8949,6.6588,-1.1909,0.1061,-0.4415,-2.0136,
2.502957,-0.7709,-0.0035,0.3271,-1.8949,6.6588,-1.1909,-0.2610,0.0430,-2.5988,
2.506895,-0.9237,-0.4310,-0.4490,-1.8949,6.6588,-1.1909,-0.2610,0.0430,-2.5988,
2.507910,-0.9237,-0.4310,-0.4490,-3.5656,2.6556,-8.7300,-0.2610,0.0430,-2.5988,
2.513313,-0.9237,-0.4310,-0.4490,-3.5656,2.6556,-8.7300,-0.7143,-0.1397,-2.1162,
2.522906,-0.9237,-0.4310,-0.4490,-3.5656,2.6556,-8.7300,-0.6227,-0.2753,-1.1620,
2.526945,-1.2659,-0.2586,0.2070,-3.5656,2.6556,-8.7300,-0.6227,-0.2753,-1.1620,
2.528363,-1.2659,-0.2586,0.2070,-6.9722,4.4746,-2.1572,-0.6227,-0.2753,-1.1620,
2.532979,-1.2659,-0.2586,0.2070,-6.9722,4.4746,-2.1572,-0.8438,-0.7609,-0.7918,
2.542947,-1.2659,-0.2586,0.2070,-6.9722,4.4746,-2.1572,-1.1358,-0.9375,-0.5939,
2.546905,-0.7723,-0.5807,0.1995,-6.9722,4.4746,-2.1572,-1.1358,-0.9375,-0.5939,
2.548095,-0.7723,-0.5807,0.1995,-2.1339,1.3877,-2.1110,-1.1358,-0.9375,-0.5939,
2.552919,-0.7723,-0.5807,0.1995,-2.1339,1.3877,-2.1110,-1.2305,-0.7396,-0.3850,
2.563022,-0.7723,-0.5807,0.1995,-2.1339,1.3877,-2.1110,-1.2677,-0.6186,-0.2298,
2.566832,-0.9119,-0.5995,0.1323,-2.1339,1.3877,-2.1110,-1.2677,-0.6186,-0.2298,
2.567877,-0.9119,-0.5995,0.1323,-3.4439,1.2599,-2.5883,-1.2677,-0.6186,-0.2298,
2.572840,-0.9119,-0.5995,0.1323,-3.4439,1.2599,-2.5883,-1.4650,-0.7298,-0.0117,
2.583019,-0.9119,-0.5995,0.1323,-3.4439,1.2599,-2.5883,-1.6807,-1.1012,0.0249,
2.586827,-0.6831,-0.6528,0.2070,-3.4439,1.2599,-2.5883,-1.6807,-1.1012,0.0249,
2.587947,-0.6831,-0.6528,0.2070,-1.1415,0.7942,-1.6616,-1.6807,-1.1012,0.0249,
2.592897,-0.6831,-0.6528,0.2070,-1.1415,0.7942,-1.6616,-1.9152,-1.5441,-0.0832,
2.602975,-0.6831,-0.6528,0.2070,-1.1415,0.7942,-1.6616,-2.2537,-1.8354,-0.1981,
2.606845,-1.1173,-0.8410,0.4913,-1.1415,0.7942,-1.6616,-2.2537,-1.8354,-0.1981,
2.607798,-1.1173,-0.8410,0.4913,-5.4259,-0.9492,1.2833,-2.2537,-1.8354,-0.1981,
2.613352,-1.1173,-0.8410,0.4913,-5.4259,-0.9492,1.2833,-2.4669,-1.9485,-0.0014,
2.622917,-1.1173,-0.8410,0.4913,-5.4259,-0.9492,1.2833,-2.3355,-1.8379,0.3694,
2.626976,-0.7757,-1.2770,0.1862,-5.4259,-0.9492,1.2833,-2.3355,-1.8379,0.3694,
2.628096,-0.7757,-1.2770,0.1862,-2.1080,-5.1060,-1.5081,-2.3355,-1.8379,0.3694,
2.633184,-0.7757,-1.2770,0.1862,-2.1080,-5.1060,-1.5081,-2.0551,-1.4359,0.5350,
2.642967,-0.7757,-1.2770,0.1862,-2.1080,-5.1060,-1.5081,-1.7289,-1.2154,0.5154,
2.646893,-0.9821,-1.1104,0.4211,-2.1080,-5.1060,-1.5081,-1.7289,-1.2154,0.5154,
2.648075,-0.9821,-1.1104,0.4211,-4.0819,-3.4342,0.9668,-1.7289,-1.2154,0.5154,
2.652944,-0.9821,-1.1104,0.4211,-4.0819,-3.4342,0.9668,-0.8554,-0.4836,0.6034,
2.662976,-0.9821,-1.1104,0.4211,-4.0819,-3.4342,0.9668,-0.5432,-0.2356,0.6187,
2.666870,-0.8502,-1.1184,0.4137,-4.0819,-3.4342,0.9668,-0.5432,-0.2356,0.6187,
2.667783,-0.8502,-1.1184,0.4137,-2.6926,-3.5504,0.9792,-0.5432,-0.2356,0.6187,
2.672820,-0.8502,-1.1184,0.4137,-2.6926,-3.5504,0.9792,-0.4498,-0.2735,0.6089,
2.683002,-0.8502,-1.1184,0.4137,-2.6926,-3.5504,0.9792,-0.5970,-0.4622,0.6486,
2.686730,-0.9042,-1.1520,0.2797,-2.6926,-3.5504,0.9792,-0.5970,-0.4622,0.6486,
2.687742,-0.9042,-1.1520,0.2797,-3.1337,-3.9241,-0.2777,-0.5970,-0.4622,0.6486,
2.692818,-0.9042,-1.1520,0.2797,-3.1337,-3.9241,-0.2777,-0.8951,-0.5795,0.7934,
2.702966,-0.9042,-1.1520,0.2797,-3.1337,-3.9241,-0.2777,-1.1865,-0.5435,0.9913,
2.706888,-0.8046,-1.1106,0.3346,-3.1337,-3.9241,-0.2777,-1.1865,-0.5435,0.9913,
2.707952,-0.8046,-1.1106,0.3346,-2.0542,-3.5592,0.3607,-1.1865,-0.5435,0.9913,
2.712968,-0.8046,-1.1106,0.3346,-2.0542,-3.5592,0.3607,-1.4406,-0.4445,1.2002,
2.722943,-0.8046,-1.1106,0.3346,-2.0542,-3.5592,0.3607,-1.6501,-0.4219,1.3517,
2.726958,-0.6666,-1.0818,0.3573,-2.0542,-3.5592,0.3607,-1.6501,-0.4219,1.3517,
2.728216,-0.6666,-1.0818,0.3573,-0.5421,-3.3363,0.7627,-1.6501,-0.4219,1.3517,
2.732973,-0.6666,-1.0818,0.3573,-0.5421,-3.3363,0.7627,-1.7937,-0.4860,1.3774,
2.742915,-0.6666,-1.0818,0.3573,-0.5421,-3.3363,0.7627,-1.9629,-0.6956,1.3596,
2.747056,-0.5278,-1.1220,0.2292,-0.5421,-3.3363,0.7627,-1.9629,-0.6956,1.3596,
2.748289,-0.5278,-1.1220,0.2292,0.9662,-3.7789,-0.2856,-1.9629,-0.6956,1.3596,
2.753017,-0.5278,-1.1220,0.2292,0.9662,-3.7789,-0.2856,-2.1865,-0.9289,1.3083,
2.763035,-0.5278,-1.1220,0.2292,0.9662,-3.7789,-0.2856,-2.4583,-0.8300,1.1067,
2.767088,-0.2132,-0.7576,0.4862,0.9662,-3.7789,-0.2856,-2.4583,-0.8300,1.1067,
2.768129,-0.2132,-0.7576,0.4862,4.1274,-0.2067,2.4336,-2.4583,-0.8300,1.1067,
2.772923,-0.2132,-0.7576,0.4862,4.1274,-0.2067,2.4336,-2.8010,-0.1696,0.4641,
2.783743,-0.2132,-0.7576,0.4862,4.1274,-0.2067,2.4336,-3.0796,0.2623,-0.1376,
2.786862,-0.2150,-0.4670,0.4621,4.1274,-0.2067,2.4336,-3.0796,0.2623,-0.1376,
2.787922,-0.2150,-0.4670,0.4621,4.0750,2.7773,2.5599,-3.0796,0.2623,-0.1376,
2.792906,-0.2150,-0.4670,0.4621,4.0750,2.7773,2.5599,-3.4546,0.7632,-0.7973,
2.803244,-0.2150,-0.4670,0.4621,4.0750,2.7773,2.5599,-3.8718,1.6159,-1.5823,
2.807559,-0.4595,-0.7517,-0.4818,4.0750,2.7773,2.5599,-3.8718,1.6159,-1.5823,
2.808793,-0.4595,-0.7517,-0.4818,1.5013,0.2802,-5.9993,-3.8718,1.6159,-1.5823,
2.813715,-0.4595,-0.7517,-0.4818,1.5013,0.2802,-5.9993,-3.9757,1.7033,-2.1357,
2.823452,-0.4595,-0.7517,-0.4818,1.5013,0.2802,-5.9993,-2.8621,-1.6882,-2.2255,
2.826901,-0.5814,-1.0135,0.6674,1.5013,0.2802,-5.9993,-2.8621,-1.6882,-2.2255,
2.828713,-0.5814,-1.0135,0.6674,-0.0637,-1.9471,5.7298,-2.8621,-1.6882,-2.2255,
2.834602,-0.5814,-1.0135,0.6674,-0.0637,-1.9471,5.7298,-1.0081,-1.0615,-1.3385,
2.842830,-0.5814,-1.0135,0.6674,-0.0637,-1.9471,5.7298,-0.2305,0.6349,-1.1388,
2.846779,-0.3188,-1.0126,0.3996,-0.0637,-1.9471,5.7298,-0.2305,0.6349,-1.1388,
2.847877,-0.3188,-1.0126,0.3996,2.2637,-1.7723,3.0854,-0.2305,0.6349,-1.1388,
2.852763,-0.3188,-1.0126,0.3996,2.2637,-1.7723,3.0854,-0.0515,1.2891,-0.8932,
2.863036,-0.3188,-1.0126,0.3996,2.2637,-1.7723,3.0854,-0.1382,1.3588,-0.3331,
2.866761,-0.4407,-1.1068,0.1722,2.2637,-1.7723,3.0854,-0.1382,1.3588,-0.3331,
2.867618,-0.4407,-1.1068,0.1722,0.9426,-2.6052,0.9407,-0.1382,1.3588,-0.3331,
2.872789,-0.4407,-1.1068,0.1722,0.9426,-2.6052,0.9407,-0.3771,1.4205,0.6315,
2.882767,-0.4407,-1.1068,0.1722,0.9426,-2.6052,0.9407,-0.3630,1.0313,1.0799,
2.886814,-0.3280,-0.7846,0.0660,0.9426,-2.6052,0.9407,-0.3630,1.0313,1.0799,
2.887678,-0.3280,-0.7846,0.0660,2.1512,0.4964,0.0277,-0.3630,1.0313,1.0799,
2.892813,-0.3280,-0.7846,0.0660,2.1512,0.4964,0.0277,-0.3753,1.1419,1.2149,
2.902779,-0.3280,-0.7846,0.0660,2.1512,0.4964,0.0277,-0.5261,1.2897,1.3859,
2.906800,-0.3941,-0.6930,0.1334,2.1512,0.4964,0.0277,-0.5261,1.2897,1.3859,
2.907662,-0.3941,-0.6930,0.1334,1.6756,1.2885,0.8309,-0.5261,1.2897,1.3859,
2.913076,-0.3941,-0.6930,0.1334,1.6756,1.2885,0.8309,-0.6355,1.0069,1.3993,
2.922886,-0.3941,-0.6930,0.1334,1.6756,1.2885,0.8309,-0.7253,0.6068,1.3041,
2.926750,-0.4935,-0.7891,0.0266,1.6756,1.2885,0.8309,-0.7253,0.6068,1.3041,
2.927679,-0.4935,-0.7891,0.0266,0.8760,0.2312,-0.0665,-0.7253,0.6068,1.3041,
2.932750,-0.4935,-0.7891,0.0266,0.8760,0.2312,-0.0665,-0.7656,0.3038,1.1526,
2.942796,-0.4935,-0.7891,0.0266,0.8760,0.2312,-0.0665,-0.7522,0.0222,1.0035,
2.948478,-0.4421,-0.8236,0.0150,0.8760,0.2312,-0.0665,-0.7522,0.0222,1.0035,
2.949780,-0.4421,-0.8236,0.0150,1.5003,-0.1906,-0.0813,-0.7522,0.0222,1.0035,
2.952769,-0.4421,-0.8236,0.0150,1.5003,-0.1906,-0.0813,-0.7766,-0.3144,0.8374,
2.963548,-0.4421,-0.8236,0.0150,1.5003,-0.1906,-0.0813,-0.7803,-0.5154,0.6920,
2.967229,-0.4347,-0.8338,0.0198,1.5003,-0.1906,-0.0813,-0.7803,-0.5154,0.6920,
2.968222,-0.4347,-0.8338,0.0198,1.6385,-0.3395,0.0087,-0.7803,-0.5154,0.6920,
2.972805,-0.4347,-0.8338,0.0198,1.6385,-0.3395,0.0087,-0.7772,-0.6608,0.6413,
2.985358,-0.4347,-0.8338,0.0198,1.6385,-0.3395,0.0087,-0.7186,-1.1238,0.5509,
2.986848,-0.4161,-0.8415,-0.0439,1.6385,-0.3395,0.0087,-0.7186,-1.1238,0.5509,
2.987862,-0.4161,-0.8415,-0.0439,1.8620,-0.4457,-0.6219,-0.7186,-1.1238,0.5509,
2.992809,-0.4161,-0.8415,-0.0439,1.8620,-0.4457,-0.6219,-0.7186,-1.1238,0.5509,
3.002826,-0.4161,-0.8415,-0.0439,1.8620,-0.4457,-0.6219,-0.6275,-1.5606,0.2790,
3.006792,-0.7051,-0.7708,0.0138,1.8620,-0.4457,-0.6219,-0.6275,-1.5606,0.2790,
3.007642,-0.7051,-0.7708,0.0138,-0.9404,0.2229,-0.1146,-0.6275,-1.5606,0.2790,
3.014313,-0.7051,-0.7708,0.0138,-0.9404,0.2229,-0.1146,-0.6110,-1.8965,0.0225,
3.022902,-0.7051,-0.7708,0.0138,-0.9404,0.2229,-0.1146,-0.4877,-1.2197,0.6248,
3.026681,-0.3481,-0.6927,0.2217,-0.9404,0.2229,-0.1146,-0.4877,-1.2197,0.6248,
3.027603,-0.3481,-0.6927,0.2217,2.5647,0.9775,1.8003,-0.4877,-1.2197,0.6248,
3.032781,-0.3481,-0.6927,0.2217,2.5647,0.9775,1.8003,-0.2262,-0.8642,0.7262,
3.042759,-0.3481,-0.6927,0.2217,2.5647,0.9775,1.8003,-0.0546,-0.6870,0.7231,
3.046957,-0.3895,-0.6599,0.1810,2.5647,0.9775,1.8003,-0.0546,-0.6870,0.7231,
3.048083,-0.3895,-0.6599,0.1810,2.2242,1.2431,1.2985,-0.0546,-0.6870,0.7231,
3.052875,-0.3895,-0.6599,0.1810,2.2242,1.2431,1.2985,0.0701,-0.4732,0.6718,
3.064386,-0.3895,-0.6599,0.1810,2.2242,1.2431,1.2985,0.1312,-0.3846,0.5997,
3.067019,-0.4753,-0.6186,0.0848,2.2242,1.2431,1.2985,0.1312,-0.3846,0.5997,
3.067831,-0.4753,-0.6186,0.0848,1.4549,1.5850,0.2611,0.1312,-0.3846,0.5997,
3.072831,-0.4753,-0.6186,0.0848,1.4549,1.5850,0.2611,0.1440,-0.3926,0.5539,
3.083059,-0.4753,-0.6186,0.0848,1.4549,1.5850,0.2611,0.1538,-0.4036,0.4916,
3.086731,-0.5003,-0.6480,0.0249,1.4549,1.5850,0.2611,0.1538,-0.4036,0.4916,
3.087844,-0.5003,-0.6480,0.0249,1.2607,1.2493,-0.4011,0.1538,-0.4036,0.4916,
3.092808,-0.5003,-0.6480,0.0249,1.2607,1.2493,-0.4011,0.1782,-0.4195,0.4501,
3.102833,-0.5003,-0.6480,0.0249,1.2607,1.2493,-0.4011,0.2509,-0.4140,0.4372,
3.107095,-0.5117,-0.6354,0.0468,1.2607,1.2493,-0.4011,0.2509,-0.4140,0.4372,
3.108075,-0.5117,-0.6354,0.0468,1.1990,1.3241,-0.2739,0.2509,-0.4140,0.4372,
3.114244,-0.5117,-0.6354,0.0468,1.1990,1.3241,-0.2739,0.3480,-0.3394,0.4800,
3.122909,-0.5117,-0.6354,0.0468,1.1990,1.3241,-0.2739,0.4079,-0.1727,0.5014,
3.126823,-0.4382,-0.5780,0.0270,1.1990,1.3241,-0.2739,0.4079,-0.1727,0.5014,
3.127701,-0.4382,-0.5780,0.0270,1.9784,1.8290,-0.5556,0.4079,-0.1727,0.5014,
3.132840,-0.4382,-0.5780,0.0270,1.9784,1.8290,-0.5556,0.4134,-0.0157,0.4159,
3.142777,-0.4382,-0.5780,0.0270,1.9784,1.8290,-0.5556,0.3926,0.0045,0.3065,
3.146803,-0.5049,-0.1318,-0.0314,1.9784,1.8290,-0.5556,0.3926,0.0045,0.3065,
3.148447,-0.5049,-0.1318,-0.0314,1.3848,6.1451,-1.1821,0.3926,0.0045,0.3065,
3.152782,-0.5049,-0.1318,-0.0314,1.3848,6.1451,-1.1821,0.2417,0.0760,0.3303,
3.163983,-0.5049,-0.1318,-0.0314,1.3848,6.1451,-1.1821,0.0511,0.1053,0.3645,
3.167042,-0.5907,-0.4849,0.0118,1.3848,6.1451,-1.1821,0.0511,0.1053,0.3645,
3.167921,-0.5907,-0.4849,0.0118,0.6105,2.6266,-0.7574,0.0511,0.1053,0.3645,
3.172849,-0.5907,-0.4849,0.0118,0.6105,2.6266,-0.7574,-0.0161,0.0735,0.2980,
3.185163,-0.5907,-0.4849,0.0118,0.6105,2.6266,-0.7574,-0.0307,0.0711,0.1917,
3.187349,-0.5971,-0.5907,-0.0062,0.6105,2.6266,-0.7574,-0.0307,0.0711,0.1917,
3.188247,-0.5971,-0.5907,-0.0062,0.5988,1.5489,-0.9077,-0.0307,0.0711,0.1917,
3.192791,-0.5971,-0.5907,-0.0062,0.5988,1.5489,-0.9077,-0.0106,0.1383,0.0445,
3.203169,-0.5971,-0.5907,-0.0062,0.5988,1.5489,-0.9077,0.0792,0.2543,-0.3044,
3.206706,-0.6324,-0.3959,-0.0001,0.5988,1.5489,-0.9077,0.0792,0.2543,-0.3044,
3.207633,-0.6324,-0.3959,-0.0001,0.2718,3.4464,-0.8058,0.0792,0.2543,-0.3044,
3.215592,-0.6324,-0.3959,-0.0001,0.2718,3.4464,-0.8058,0.4231,0.5860,-0.3935,
3.223171,-0.6324,-0.3959,-0.0001,0.2718,3.4464,-0.8058,0.7048,0.9177,-0.4363,
3.226928,-0.7080,-0.4167,0.1180,0.2718,3.4464,-0.8058,0.7048,0.9177,-0.4363,
3.227807,-0.7080,-0.4167,0.1180,-0.4621,3.2391,0.3750,0.7048,0.9177,-0.4363,
3.234227,-0.7080,-0.4167,0.1180,-0.4621,3.2391,0.3750,1.0108,1.3637,-0.5035,
3.242782,-0.7080,-0.4167,0.1180,-0.4621,3.2391,0.3750,1.1977,1.7858,-0.5701,
3.247230,-0.7785,-0.5381,-0.0468,-0.4621,3.2391,0.3750,1.1977,1.7858,-0.5701,
3.248123,-0.7785,-0.5381,-0.0468,-1.1452,2.0487,-1.1788,1.1977,1.7858,-0.5701,
3.252920,-0.7785,-0.5381,-0.0468,-1.1452,2.0487,-1.1788,1.2222,1.9794,-0.6049,
3.263852,-0.7785,-0.5381,-0.0468,-1.1452,2.0487,-1.1788,1.1434,1.9544,-0.5487,
3.266822,-0.9054,-0.4319,-0.1357,-1.1452,2.0487,-1.1788,1.1434,1.9544,-0.5487,
3.267836,-0.9054,-0.4319,-0.1357,-2.3665,3.0796,-1.9329,1.1434,1.9544,-0.5487,
3.272818,-0.9054,-0.4319,-0.1357,-2.3665,3.0796,-1.9329,1.0084,1.8145,-0.4247,
3.283062,-0.9054,-0.4319,-0.1357,-2.3665,3.0796,-1.9329,0.8941,1.8517,-0.4076,
3.286848,-0.8667,-0.4984,0.0037,-2.3665,3.0796,-1.9329,0.8941,1.8517,-0.4076,
3.287985,-0.8667,-0.4984,0.0037,-1.9426,2.3979,-0.4430,0.8941,1.8517,-0.4076,
3.292922,-0.8667,-0.4984,0.0037,-1.9426,2.3979,-0.4430,0.7500,2.2366,-0.4821,
3.302936,-0.8667,-0.4984,0.0037,-1.9426,2.3979,-0.4430,0.6999,2.6569,-0.6049,
3.306804,-0.6927,-0.6194,-0.0001,-1.9426,2.3979,-0.4430,0.6999,2.6569,-0.6049,
3.307623,-0.6927,-0.6194,-0.0001,-0.2293,1.2151,-0.2523,0.6999,2.6569,-0.6049,
3.314528,-0.6927,-0.6194,-0.0001,-0.2293,1.2151,-0.2523,0.8037,3.0087,-0.8053,
3.322865,-0.6927,-0.6194,-0.0001,-0.2293,1.2151,-0.2523,0.8672,3.0936,-0.8847,
3.326754,-0.4942,-0.5094,-0.1890,-0.2293,1.2151,-0.2523,0.8672,3.0936,-0.8847,
3.327939,-0.4942,-0.5094,-0.1890,1.6578,2.3498,-1.8017,0.8672,3.0936,-0.8847,
3.333765,-0.4942,-0.5094,-0.1890,1.6578,2.3498,-1.8017,0.8025,3.1327,-1.2249,
3.342907,-0.4942,-0.5094,-0.1890,1.6578,2.3498,-1.8017,0.9729,3.2048,-1.4815,
3.347245,-0.3143,-0.9017,-0.0602,1.6578,2.3498,-1.8017,0.9729,3.2048,-1.4815,
3.348345,-0.3143,-0.9017,-0.0602,3.2142,-1.3241,-0.2597,0.9729,3.2048,-1.4815,
3.353720,-0.3143,-0.9017,-0.0602,3.2142,-1.3241,-0.2597,1.2698,3.0985,-1.6043,
3.364682,-0.3143,-0.9017,-0.0602,3.2142,-1.3241,-0.2597,1.2026,3.8603,-2.0508,
3.370630,-0.3362,-1.2717,0.2315,3.2142,-1.3241,-0.2597,1.2026,3.8603,-2.0508,
3.371696,-0.3362,-1.2717,0.2315,2.6605,-4.6912,2.8237,1.2026,3.8603,-2.0508,
3.374208,-0.3362,-1.2717,0.2315,2.6605,-4.6912,2.8237,1.3248,5.1687,-2.3086,
3.384255,-0.3362,-1.2717,0.2315,2.6605,-4.6912,2.8237,1.5490,5.9122,-2.4241,
3.386863,-0.3189,-1.2217,-0.2783,2.6605,-4.6912,2.8237,1.5490,5.9122,-2.4241,
3.387837,-0.3189,-1.2217,-0.2783,2.3383,-3.8841,-1.7792,1.5490,5.9122,-2.4241,
3.392827,-0.3189,-1.2217,-0.2783,2.3383,-3.8841,-1.7792,1.2796,5.5408,-2.2793,
3.402755,-0.3189,-1.2217,-0.2783,2.3383,-3.8841,-1.7792,0.9485,5.1406,-2.0685,
3.407430,-0.0958,-0.9615,-0.0573,2.3383,-3.8841,-1.7792,0.9485,5.1406,-2.0685,
3.408454,-0.0958,-0.9615,-0.0573,4.0029,-1.0501,0.7263,0.9485,5.1406,-2.0685,
3.413694,-0.0958,-0.9615,-0.0573,4.0029,-1.0501,0.7263,0.8495,4.4113,-1.8132,
3.422899,-0.0958,-0.9615,-0.0573,4.0029,-1.0501,0.7263,0.6247,2.7027,-1.7142,
3.427007,0.0115,-1.2479,-0.4558,4.0029,-1.0501,0.7263,0.6247,2.7027,-1.7142,
3.427976,0.0115,-1.2479,-0.4558,4.5731,-3.6269,-2.9602,0.6247,2.7027,-1.7142,
3.433047,0.0115,-1.2479,-0.4558,4.5731,-3.6269,-2.9602,0.4103,1.2989,-1.8902,
3.443199,0.0115,-1.2479,-0.4558,4.5731,-3.6269,-2.9602,0.3523,0.7051,-2.2793,
3.448650,-0.0932,-2.0561,-0.0795,4.5731,-3.6269,-2.9602,0.3523,0.7051,-2.2793,
3.450145,-0.0932,-2.0561,-0.0795,3.0583,-11.3113,0.7305,0.3523,0.7051,-2.2793,
3.452809,-0.0932,-2.0561,-0.0795,3.0583,-11.3113,0.7305,0.1660,0.5170,-2.6238,
3.471423,-0.0932,-2.0561,-0.0795,3.0583,-11.3113,0.7305,-0.0106,0.1407,-2.4906,
3.472697,-0.8625,-1.5174,-0.0526,3.0583,-11.3113,0.7305,-0.0106,0.1407,-2.4906,
3.473958,-0.8625,-1.5174,-0.0526,-4.9670,-5.8286,0.9896,-0.0106,0.1407,-2.4906,
3.475164,-0.8625,-1.5174,-0.0526,-4.9670,-5.8286,0.9896,-0.2305,-0.2955,-1.8841,
3.488087,-0.8625,-1.5174,-0.0526,-4.9670,-5.8286,0.9896,-0.3007,-0.7237,-1.1632,
3.489206,-0.8121,-1.2394,0.3401,-4.9670,-5.8286,0.9896,-0.3007,-0.7237,-1.1632,
3.490238,-0.8121,-1.2394,0.3401,-4.7231,-3.0061,4.8057,-0.3007,-0.7237,-1.1632,
3.492790,-0.8121,-1.2394,0.3401,-4.7231,-3.0061,4.8057,-0.3007,-0.7725,-0.4577,
3.502917,-0.8121,-1.2394,0.3401,-4.7231,-3.0061,4.8057,0.4024,-0.8116,0.0927,
3.506777,-0.4999,-1.0740,0.2344,-4.7231,-3.0061,4.8057,0.4024,-0.8116,0.0927,
3.507782,-0.4999,-1.0740,0.2344,-1.6542,-1.3675,3.6342,0.4024,-0.8116,0.0927,
3.514967,-0.4999,-1.0740,0.2344,-1.6542,-1.3675,3.6342,0.6883,-0.8312,0.4629,
3.523007,-0.4999,-1.0740,0.2344,-1.6542,-1.3675,3.6342,0.8819,-0.6485,0.7085,
3.526902,-0.2642,-0.9974,-0.1147,-1.6542,-1.3675,3.6342,0.8819,-0.6485,0.7085,
3.527941,-0.2642,-0.9974,-0.1147,0.7825,-0.6320,-0.0196,0.8819,-0.6485,0.7085,
3.532902,-0.2642,-0.9974,-0.1147,0.7825,-0.6320,-0.0196,0.9674,-0.3254,0.8819,
3.542846,-0.2642,-0.9974,-0.1147,0.7825,-0.6320,-0.0196,0.8587,-0.1818,0.9693,
3.548406,0.0268,-0.9122,-0.1750,0.7825,-0.6320,-0.0196,0.8587,-0.1818,0.9693,
3.549460,0.0268,-0.9122,-0.1750,3.7830,0.1682,-0.8126,0.8587,-0.1818,0.9693,
3.552903,0.0268,-0.9122,-0.1750,3.7830,0.1682,-0.8126,0.6675,-0.3376,0.9644,
3.564971,0.0268,-0.9122,-0.1750,3.7830,0.1682,-0.8126,0.5612,-0.6229,0.8905,
3.566966,0.0161,-0.9381,0.0861,3.7830,0.1682,-0.8126,0.5612,-0.6229,0.8905,
3.568452,0.0161,-0.9381,0.0861,3.7899,-0.1135,1.5709,0.5612,-0.6229,0.8905,
3.572864,0.0161,-0.9381,0.0861,3.7899,-0.1135,1.5709,0.5814,-1.1311,0.6767,
3.582919,0.0161,-0.9381,0.0861,3.7899,-0.1135,1.5709,0.6870,-1.1971,0.5796,
3.586994,-0.1736,-0.9695,0.2298,3.7899,-0.1135,1.5709,0.6870,-1.1971,0.5796,
3.588302,-0.1736,-0.9695,0.2298,1.9890,-0.4283,2.7342,0.6870,-1.1971,0.5796,
3.592887,-0.1736,-0.9695,0.2298,1.9890,-0.4283,2.7342,0.8055,-1.2319,0.5594,
3.602892,-0.1736,-0.9695,0.2298,1.9890,-0.4283,2.7342,0.8092,-1.3058,0.5295,
3.606773,-0.2136,-0.8563,-0.0643,1.9890,-0.4283,2.7342,0.8092,-1.3058,0.5295,
3.607561,-0.2136,-0.8563,-0.0643,1.6361,0.6753,-0.4087,0.8092,-1.3058,0.5295,
3.614974,-0.2136,-0.8563,-0.0643,1.6361,0.6753,-0.4087,0.6815,-1.3700,0.4574,
3.622932,-0.2136,-0.8563,-0.0643,1.6361,0.6753,-0.4087,0.5178,-1.4634,0.3597,
3.626822,-0.1827,-0.8254,-0.0870,1.6361,0.6753,-0.4087,0.5178,-1.4634,0.3597,
3.628000,-0.1827,-0.8254,-0.0870,1.9483,0.9770,-0.8456,0.5178,-1.4634,0.3597,
3.632942,-0.1827,-0.8254,-0.0870,1.9483,0.9770,-0.8456,0.4335,-1.5435,0.2583,
3.642906,-0.1827,-0.8254,-0.0870,1.9483,0.9770,-0.8456,0.4732,-1.5899,0.1831,
3.648446,-0.2595,-0.8304,0.1785,1.9483,0.9770,-0.8456,0.4732,-1.5899,0.1831,
3.649594,-0.2595,-0.8304,0.1785,1.1786,0.9330,1.5450,0.4732,-1.5899,0.1831,
3.652801,-0.2595,-0.8304,0.1785,1.1786,0.9330,1.5450,0.6223,-1.5801,0.1605,
3.664821,-0.2595,-0.8304,0.1785,1.1786,0.9330,1.5450,0.7903,-1.4799,0.1703,
3.666977,-0.3804,-0.8903,0.2697,1.1786,0.9330,1.5450,0.7903,-1.4799,0.1703,
3.667999,-0.3804,-0.8903,0.2697,-0.0170,0.3410,2.1764,0.7903,-1.4799,0.1703,
3.672771,-0.3804,-0.8903,0.2697,-0.0170,0.3410,2.1764,0.8575,-1.1904,0.1953,
3.682830,-0.3804,-0.8903,0.2697,-0.0170,0.3410,2.1764,0.8263,-0.7634,0.2448,
3.686704,-0.4306,-0.8129,-0.0451,-0.0170,0.3410,2.1764,0.8263,-0.7634,0.2448,
3.687642,-0.4306,-0.8129,-0.0451,-0.4881,1.0758,-1.1334,0.8263,-0.7634,0.2448,
3.692746,-0.4306,-0.8129,-0.0451,-0.4881,1.0758,-1.1334,0.8819,-0.4451,0.2809,
3.703260,-0.4306,-0.8129,-0.0451,-0.4881,1.0758,-1.1334,0.7738,-0.7304,0.2888,
3.706961,-0.3870,-0.7934,-0.2569,-0.4881,1.0758,-1.1334,0.7738,-0.7304,0.2888,
3.707855,-0.3870,-0.7934,-0.2569,-0.0252,1.2387,-3.3706,0.7738,-0.7304,0.2888,
3.714911,-0.3870,-0.7934,-0.2569,-0.0252,1.2387,-3.3706,0.5203,-1.2337,0.3090,
3.722869,-0.3870,-0.7934,-0.2569,-0.0252,1.2387,-3.3706,0.2857,-1.6045,0.3169,
3.726877,-0.3099,-0.7953,0.0243,-0.0252,1.2387,-3.3706,0.2857,-1.6045,0.3169,
3.727952,-0.3099,-0.7953,0.0243,0.7527,1.1950,-0.7620,0.2857,-1.6045,0.3169,
3.733954,-0.3099,-0.7953,0.0243,0.7527,1.1950,-0.7620,0.1690,-1.7444,0.3047,
3.742813,-0.3099,-0.7953,0.0243,0.7527,1.1950,-0.7620,0.1605,-1.6968,0.2839,
3.748211,-0.2862,-0.8019,0.0078,0.7527,1.1950,-0.7620,0.1605,-1.6968,0.2839,
3.749231,-0.2862,-0.8019,0.0078,0.9913,1.1131,-1.0466,0.1605,-1.6968,0.2839,
3.752757,-0.2862,-0.8019,0.0078,0.9913,1.1131,-1.0466,0.1806,-1.6009,0.2583,
3.762998,-0.2862,-0.8019,0.0078,0.9913,1.1131,-1.0466,0.1061,-1.7389,0.1098,
3.766799,-0.2840,-0.7872,0.0849,0.9913,1.1131,-1.0466,0.1061,-1.7389,0.1098,
3.767791,-0.2840,-0.7872,0.0849,0.9964,1.2487,-0.4143,0.1061,-1.7389,0.1098,
3.772685,-0.2840,-0.7872,0.0849,0.9964,1.2487,-0.4143,0.1214,-1.7646,0.0567,
3.782808,-0.2840,-0.7872,0.0849,0.9964,1.2487,-0.4143,0.2008,-1.7047,-0.0026,
3.786914,-0.2889,-0.8530,0.1606,0.9964,1.2487,-0.4143,0.2008,-1.7047,-0.0026,
3.788015,-0.2889,-0.8530,0.1606,0.8988,0.6033,0.1856,0.2008,-1.7047,-0.0026,
3.792887,-0.2889,-0.8530,0.1606,0.8988,0.6033,0.1856,0.2998,-1.6320,-0.0759,
3.802872,-0.2889,-0.8530,0.1606,0.8988,0.6033,0.1856,0.4341,-1.5490,-0.0936,
3.806897,-0.4261,-0.8291,0.0878,0.8988,0.6033,0.1856,0.4341,-1.5490,-0.0936,
3.807896,-0.4261,-0.8291,0.0878,-0.5073,0.8364,-0.6927,0.4341,-1.5490,-0.0936,
3.815636,-0.4261,-0.8291,0.0878,-0.5073,0.8364,-0.6927,0.5380,-1.5581,-0.0893,
3.822830,-0.4261,-0.8291,0.0878,-0.5073,0.8364,-0.6927,0.5856,-1.6259,-0.0887,
3.826964,-0.4418,-0.8530,-0.0210,-0.5073,0.8364,-0.6927,0.5856,-1.6259,-0.0887,
3.827880,-0.4418,-0.8530,-0.0210,-0.7191,0.5932,-1.9334,0.5856,-1.6259,-0.0887,
3.832929,-0.4418,-0.8530,-0.0210,-0.7191,0.5932,-1.9334,0.5722,-1.6858,-0.0802,
3.842926,-0.4418,-0.8530,-0.0210,-0.7191,0.5932,-1.9334,0.5203,-1.7011,-0.1107,
3.848977,-0.4818,-0.9328,-0.0404,-0.7191,0.5932,-1.9334,0.5203,-1.7011,-0.1107,
3.850040,-0.4818,-0.9328,-0.0404,-1.1648,-0.1971,-2.2741,0.5203,-1.7011,-0.1107,
3.852824,-0.4818,-0.9328,-0.0404,-1.1648,-0.1971,-2.2741,0.4567,-1.6644,-0.1516,
3.865616,-0.4818,-0.9328,-0.0404,-1.1648,-0.1971,-2.2741,0.3731,-1.6345,-0.1522,
3.867260,-0.5795,-0.9813,0.0600,-1.1648,-0.1971,-2.2741,0.3731,-1.6345,-0.1522,
3.868314,-0.5795,-0.9813,0.0600,-2.1752,-0.6777,-1.4107,0.3731,-1.6345,-0.1522,
3.872802,-0.5795,-0.9813,0.0600,-2.1752,-0.6777,-1.4107,0.2533,-1.6021,-0.1248,
3.882870,-0.5795,-0.9813,0.0600,-2.1752,-0.6777,-1.4107,0.1611,-1.4488,-0.0948,
3.886964,-0.4014,-0.9587,0.0618,-2.1752,-0.6777,-1.4107,0.1611,-1.4488,-0.0948,
3.888048,-0.4014,-0.9587,0.0618,-0.4781,-0.4541,-1.4661,0.1611,-1.4488,-0.0948,
3.892835,-0.4014,-0.9587,0.0618,-0.4781,-0.4541,-1.4661,0.0548,-1.3406,-0.0539,
3.902872,-0.4014,-0.9587,0.0618,-0.4781,-0.4541,-1.4661,-0.0747,-1.3242,-0.0863,
3.906888,-0.5625,-0.9401,0.0490,-0.4781,-0.4541,-1.4661,-0.0747,-1.3242,-0.0863,
3.907888,-0.5625,-0.9401,0.0490,-2.0802,-0.2680,-1.6120,-0.0747,-1.3242,-0.0863,
3.915501,-0.5625,-0.9401,0.0490,-2.0802,-0.2680,-1.6120,-0.1779,-1.3235,-0.1138,
3.922881,-0.5625,-0.9401,0.0490,-2.0802,-0.2680,-1.6120,-0.3013,-1.3602,-0.0912,
3.926852,-0.5011,-0.9719,0.0133,-2.0802,-0.2680,-1.6120,-0.3013,-1.3602,-0.0912,
3.927830,-0.5011,-0.9719,0.0133,-1.5056,-0.5633,-1.9385,-0.3013,-1.3602,-0.0912,
3.932984,-0.5011,-0.9719,0.0133,-1.5056,-0.5633,-1.9385,-0.4101,-1.4066,-0.0166,
3.942888,-0.5011,-0.9719,0.0133,-1.5056,-0.5633,-1.9385,-0.5188,-1.4121,0.0347,
3.948904,-0.3018,-1.0381,0.0676,-1.5056,-0.5633,-1.9385,-0.5188,-1.4121,0.0347,
3.949995,-0.3018,-1.0381,0.0676,0.4182,-1.1889,-1.3527,-0.5188,-1.4121,0.0347,
3.952896,-0.3018,-1.0381,0.0676,0.4182,-1.1889,-1.3527,-0.5396,-1.3370,-0.0221,
3.963572,-0.3018,-1.0381,0.0676,0.4182,-1.1889,-1.3527,-0.6556,-1.3254,-0.0631,
3.967380,-0.3819,-1.0958,-0.0392,0.4182,-1.1889,-1.3527,-0.6556,-1.3254,-0.0631,
3.968535,-0.3819,-1.0958,-0.0392,-0.4063,-1.7205,-2.3092,-0.6556,-1.3254,-0.0631,
3.972853,-0.3819,-1.0958,-0.0392,-0.4063,-1.7205,-2.3092,-0.8029,-1.3681,-0.0710,
3.982887,-0.3819,-1.0958,-0.0392,-0.4063,-1.7205,-2.3092,-1.0228,-1.4512,-0.0496,
3.987220,-0.5095,-1.2037,-0.0860,-0.4063,-1.7205,-2.3092,-1.0228,-1.4512,-0.0496,
3.988351,-0.5095,-1.2037,-0.0860,-1.6981,-2.7323,-2.6198,-1.0228,-1.4512,-0.0496,
3.992898,-0.5095,-1.2037,-0.0860,-1.6981,-2.7323,-2.6198,-1.2036,-1.2893,0.0200,
4.002931,-0.5095,-1.2037,-0.0860,-1.6981,-2.7323,-2.6198,-1.3716,-1.0285,0.0121,
4.007230,-0.4371,-1.1104,0.0535,-1.6981,-2.7323,-2.6198,-1.3716,-1.0285,0.0121,
4.008265,-0.4371,-1.1104,0.0535,-1.0051,-1.7719,-1.0364,-1.3716,-1.0285,0.0121,
4.012949,-0.4371,-1.1104,0.0535,-1.0051,-1.7719,-1.0364,-1.6104,-0.8110,-0.0563,
4.022841,-0.4371,-1.1104,0.0535,-1.0051,-1.7719,-1.0364,-1.9000,-0.6168,-0.1290,
4.026820,-0.3003,-1.0660,0.0173,-1.0051,-1.7719,-1.0364,-1.9000,-0.6168,-0.1290,
4.027926,-0.3003,-1.0660,0.0173,0.3052,-1.2788,-1.0814,-1.9000,-0.6168,-0.1290,
4.033049,-0.3003,-1.0660,0.0173,0.3052,-1.2788,-1.0814,-2.2280,-0.4439,-0.2384,
4.042921,-0.3003,-1.0660,0.0173,0.3052,-1.2788,-1.0814,-2.5854,-0.2979,-0.4076,
4.049027,-0.1322,-1.0388,0.0353,0.3052,-1.2788,-1.0814,-2.5854,-0.2979,-0.4076,
4.050629,-0.1322,-1.0388,0.0353,1.8796,-0.9379,-0.4732,-2.5854,-0.2979,-0.4076,
4.052902,-0.1322,-1.0388,0.0353,1.8796,-0.9379,-0.4732,-2.9537,-0.2179,-0.6110,
4.062980,-0.1322,-1.0388,0.0353,1.8796,-0.9379,-0.4732,-3.3172,-0.1525,-0.8474,
4.067059,-0.0035,-1.0273,0.2216,1.8796,-0.9379,-0.4732,-3.3172,-0.1525,-0.8474,
4.068033,-0.0035,-1.0273,0.2216,2.9815,-0.7399,1.9129,-3.3172,-0.1525,-0.8474,
4.072874,-0.0035,-1.0273,0.2216,2.9815,-0.7399,1.9129,-3.6342,0.0399,-1.0985,
4.082974,-0.0035,-1.0273,0.2216,2.9815,-0.7399,1.9129,-3.8016,0.4584,-1.2970,
4.086888,-0.2610,-1.3259,0.1783,2.9815,-0.7399,1.9129,-3.8016,0.4584,-1.2970,
4.088143,-0.2610,-1.3259,0.1783,0.2082,-3.5937,2.1523,-3.8016,0.4584,-1.2970,
4.092980,-0.2610,-1.3259,0.1783,0.2082,-3.5937,2.1523,-3.8120,0.8884,-1.3343,
4.102895,-0.2610,-1.3259,0.1783,0.2082,-3.5937,2.1523,-3.8297,0.9202,-1.3080,
4.106986,-0.1961,-1.6239,0.0319,0.2082,-3.5937,2.1523,-3.8297,0.9202,-1.3080,
4.107940,-0.1961,-1.6239,0.0319,0.5544,-6.4892,1.4121,-3.8297,0.9202,-1.3080,
4.113151,-0.1961,-1.6239,0.0319,0.5544,-6.4892,1.4121,-3.8511,0.7003,-1.3337,
4.122860,-0.1961,-1.6239,0.0319,0.5544,-6.4892,1.4121,-3.7692,0.4461,-1.3550,
4.126901,-0.0292,-1.5573,0.0551,0.5544,-6.4892,1.4121,-3.7692,0.4461,-1.3550,
4.128065,-0.0292,-1.5573,0.0551,1.8857,-5.8601,2.2896,-3.7692,0.4461,-1.3550,
4.133019,-0.0292,-1.5573,0.0551,1.8857,-5.8601,2.2896,-3.2787,0.1639,-1.4338,
4.142980,-0.0292,-1.5573,0.0551,1.8857,-5.8601,2.2896,-3.0545,0.2928,-1.5108,
4.149309,0.0132,-1.3608,0.1612,1.8857,-5.8601,2.2896,-3.0545,0.2928,-1.5108,
4.150435,0.0132,-1.3608,0.1612,1.9797,-3.9676,3.8128,-3.0545,0.2928,-1.5108,
4.152883,0.0132,-1.3608,0.1612,1.9797,-3.9676,3.8128,-2.8566,0.6789,-1.5383,
4.163349,0.0132,-1.3608,0.1612,1.9797,-3.9676,3.8128,-2.6666,1.2696,-1.4754,
4.167509,-0.1719,-1.1763,0.4023,1.9797,-3.9676,3.8128,-2.6666,1.2696,-1.4754,
4.168736,-0.1719,-1.1763,0.4023,-0.1799,-2.1988,6.5635,-2.6666,1.2696,-1.4754,
4.172992,-0.1719,-1.1763,0.4023,-0.1799,-2.1988,6.5635,-2.4021,2.1187,-1.2506,
4.182941,-0.1719,-1.1763,0.4023,-0.1799,-2.1988,6.5635,-2.1969,2.9458,-0.9812,
4.186870,-0.2996,-1.0681,0.2140,-0.1799,-2.1988,6.5635,-2.1969,2.9458,-0.9812,
4.187878,-0.2996,-1.0681,0.2140,-1.7699,-1.1846,5.0365,-2.1969,2.9458,-0.9812,
4.192969,-0.2996,-1.0681,0.2140,-1.7699,-1.1846,5.0365,-2.1071,3.3795,-0.8315,
4.202912,-0.2996,-1.0681,0.2140,-1.7699,-1.1846,5.0365,-2.0313,3.3948,-0.8957,
4.206899,-0.2494,-0.9232,-0.2659,-1.7699,-1.1846,5.0365,-2.0313,3.3948,-0.8957,
4.207997,-0.2494,-0.9232,-0.2659,-1.6128,0.1716,0.6319,-2.0313,3.3948,-0.8957,
4.212991,-0.2494,-0.9232,-0.2659,-1.6128,0.1716,0.6319,-1.9464,2.7760,-1.0050,
4.222894,-0.2494,-0.9232,-0.2659,-1.6128,0.1716,0.6319,-1.8816,1.6074,-1.0808,
4.226853,-0.1554,-0.8267,-0.6064,-1.6128,0.1716,0.6319,-1.8816,1.6074,-1.0808,
4.227820,-0.1554,-0.8267,-0.6064,-0.9819,1.0346,-2.4210,-1.8816,1.6074,-1.0808,
4.232995,-0.1554,-0.8267,-0.6064,-0.9819,1.0346,-2.4210,-1.8780,0.6996,-1.0869,
4.242935,-0.1554,-0.8267,-0.6064,-0.9819,1.0346,-2.4210,-1.8285,0.4718,-1.0233,
4.248738,-0.1777,-0.8283,-0.0537,-0.9819,1.0346,-2.4210,-1.8285,0.4718,-1.0233,
4.249858,-0.1777,-0.8283,-0.0537,-1.3750,0.9349,3.2269,-1.8285,0.4718,-1.0233,
4.252879,-0.1777,-0.8283,-0.0537,-1.3750,0.9349,3.2269,-1.6831,0.6343,-0.9195,
4.262887,-0.1777,-0.8283,-0.0537,-1.3750,0.9349,3.2269,-1.4669,0.8945,-0.8187,
4.266797,-0.1366,-0.8040,-0.1896,-1.3750,0.9349,3.2269,-1.4669,0.8945,-0.8187,
4.267672,-0.1366,-0.8040,-0.1896,-1.1232,1.0997,2.0793,-1.4669,0.8945,-0.8187,
4.272830,-0.1366,-0.8040,-0.1896,-1.1232,1.0997,2.0793,-1.2702,1.0032,-0.7045,
4.282762,-0.1366,-0.8040,-0.1896,-1.1232,1.0997,2.0793,-1.1004,0.9703,-0.5872,
4.286769,-0.0180,-0.6916,-0.1893,-1.1232,1.0997,2.0793,-1.1004,0.9703,-0.5872,
4.287666,-0.0180,-0.6916,-0.1893,-0.0991,2.1513,2.1982,-1.1004,0.9703,-0.5872,
4.292805,-0.0180,-0.6916,-0.1893,-0.0991,2.1513,2.1982,-0.9183,0.8939,-0.4681,
4.302818,-0.0180,-0.6916,-0.1893,-0.0991,2.1513,2.1982,-0.8255,0.5598,-0.3618,
4.306916,0.1358,-0.5446,-0.1146,-0.0991,2.1513,2.1982,-0.8255,0.5598,-0.3618,
4.307896,0.1358,-0.5446,-0.1146,1.3047,3.5660,2.9896,-0.8255,0.5598,-0.3618,
4.313148,0.1358,-0.5446,-0.1146,1.3047,3.5660,2.9896,-0.7302,-0.2496,-0.3050,
4.322916,0.1358,-0.5446,-0.1146,1.3047,3.5660,2.9896,-0.3618,0.0442,-0.3025,
4.327099,0.1633,-0.5567,-0.0224,1.3047,3.5660,2.9896,-0.3618,0.0442,-0.3025,
4.327989,0.1633,-0.5567,-0.0224,1.5295,3.4514,3.8842,-0.3618,0.0442,-0.3025,
4.333234,0.1633,-0.5567,-0.0224,1.5295,3.4514,3.8842,0.0285,0.3569,-0.2964,
4.342957,0.1633,-0.5567,-0.0224,1.5295,3.4514,3.8842,0.3071,0.4565,-0.2872,
4.348902,0.0597,-0.6425,-0.1888,1.5295,3.4514,3.8842,0.3071,0.4565,-0.2872,
4.349944,0.0597,-0.6425,-0.1888,0.4248,2.6628,2.1330,0.3071,0.4565,-0.2872,
4.352868,0.0597,-0.6425,-0.1888,0.4248,2.6628,2.1330,0.4885,0.4376,-0.2427,
4.363251,0.0597,-0.6425,-0.1888,0.4248,2.6628,2.1330,0.6101,0.4364,-0.1687,
4.367153,0.0399,-0.7202,-0.2584,0.4248,2.6628,2.1330,0.6101,0.4364,-0.1687,
4.368175,0.0399,-0.7202,-0.2584,0.1554,1.9715,1.2866,0.6101,0.4364,-0.1687,
4.372948,0.0399,-0.7202,-0.2584,0.1554,1.9715,1.2866,0.6760,0.4412,-0.0844,
4.382873,0.0399,-0.7202,-0.2584,0.1554,1.9715,1.2866,0.7151,0.3832,0.0298,
4.386833,0.0766,-0.7175,-0.3702,0.1554,1.9715,1.2866,0.7151,0.3832,0.0298,
4.387818,0.0766,-0.7175,-0.3702,0.4732,2.0568,0.0447,0.7151,0.3832,0.0298,
4.392854,0.0766,-0.7175,-0.3702,0.4732,2.0568,0.0447,0.7475,0.2055,0.1428,
4.402957,0.0766,-0.7175,-0.3702,0.4732,2.0568,0.0447,0.7713,-0.0694,0.2289,
4.406848,0.0970,-0.6938,-0.4858,0.4732,2.0568,0.0447,0.7713,-0.0694,0.2289,
4.407863,0.0970,-0.6938,-0.4858,0.6953,2.3434,-1.2235,0.7713,-0.0694,0.2289,
4.412918,0.0970,-0.6938,-0.4858,0.6953,2.3434,-1.2235,0.7646,-0.4115,0.2833,
4.422964,0.0970,-0.6938,-0.4858,0.6953,2.3434,-1.2235,0.7219,-0.7420,0.3145,
4.427095,0.0871,-0.7216,-0.4813,0.6953,2.3434,-1.2235,0.7219,-0.7420,0.3145,
4.427931,0.0871,-0.7216,-0.4813,0.6754,2.1148,-1.2882,0.7219,-0.7420,0.3145,
4.433012,0.0871,-0.7216,-0.4813,0.6754,2.1148,-1.2882,0.6577,-0.9607,0.3309,
4.442924,0.0871,-0.7216,-0.4813,0.6754,2.1148,-1.2882,0.6150,-1.0144,0.3474,
4.448948,0.0526,-0.7521,-0.3342,0.6754,2.1148,-1.2882,0.6150,-1.0144,0.3474,
4.450100,0.0526,-0.7521,-0.3342,0.4467,1.8498,0.0641,0.6150,-1.0144,0.3474,
4.452877,0.0526,-0.7521,-0.3342,0.4467,1.8498,0.0641,0.6168,-0.9369,0.3621,
4.463214,0.0526,-0.7521,-0.3342,0.4467,1.8498,0.0641,0.6742,-0.7536,0.3639,
4.467180,0.0054,-0.7450,-0.2766,0.4467,1.8498,0.0641,0.6742,-0.7536,0.3639,
4.468224,0.0054,-0.7450,-0.2766,0.0903,1.9547,0.5300,0.6742,-0.7536,0.3639,
4.473002,0.0054,-0.7450,-0.2766,0.0903,1.9547,0.5300,0.7671,-0.5697,0.3584,
4.482856,0.0054,-0.7450,-0.2766,0.0903,1.9547,0.5300,0.8679,-0.4311,0.3493,
4.486965,0.0094,-0.7478,-0.2499,0.0903,1.9547,0.5300,0.8679,-0.4311,0.3493,
4.487949,0.0094,-0.7478,-0.2499,0.2138,1.9732,0.6542,0.8679,-0.4311,0.3493,
4.492951,0.0094,-0.7478,-0.2499,0.2138,1.9732,0.6542,0.9509,-0.3407,0.3236,
4.502887,0.0094,-0.7478,-0.2499,0.2138,1.9732,0.6542,1.0670,-0.4030,0.3248,
4.506975,-0.0509,-0.7429,-0.2647,0.2138,1.9732,0.6542,1.0670,-0.4030,0.3248,
4.507898,-0.0509,-0.7429,-0.2647,-0.3024,2.0760,0.3355,1.0670,-0.4030,0.3248,
4.512860,-0.0509,-0.7429,-0.2647,-0.3024,2.0760,0.3355,1.1128,-0.5337,0.3364,
4.522882,-0.0509,-0.7429,-0.2647,-0.3024,2.0760,0.3355,1.1495,-0.7084,0.3603,
4.527017,-0.0643,-0.7349,-0.3062,-0.3024,2.0760,0.3355,1.1495,-0.7084,0.3603,
4.527872,-0.0643,-0.7349,-0.3062,-0.3371,2.2102,-0.2625,1.1495,-0.7084,0.3603,
4.533667,-0.0643,-0.7349,-0.3062,-0.3371,2.2102,-0.2625,1.1873,-0.8764,0.4036,
4.542919,-0.0643,-0.7349,-0.3062,-0.3371,2.2102,-0.2625,1.2063,-1.0163,0.4537,
4.547111,0.0009,-0.7334,-0.4077,-0.3371,2.2102,-0.2625,1.2063,-1.0163,0.4537,
4.548319,0.0009,-0.7334,-0.4077,0.4186,2.2695,-1.4327,1.2063,-1.0163,0.4537,
4.552960,0.0009,-0.7334,-0.4077,0.4186,2.2695,-1.4327,1.1910,-1.0902,0.4965,
4.563010,0.0009,-0.7334,-0.4077,0.4186,2.2695,-1.4327,1.1580,-1.0841,0.5313,
4.566946,0.0915,-0.7035,-0.4349,0.4186,2.2695,-1.4327,1.1580,-1.0841,0.5313,
4.567973,0.0915,-0.7035,-0.4349,1.4255,2.5965,-1.8492,1.1580,-1.0841,0.5313,
4.572867,0.0915,-0.7035,-0.4349,1.4255,2.5965,-1.8492,1.0633,-0.9595,0.5209,
4.582930,0.0915,-0.7035,-0.4349,1.4255,2.5965,-1.8492,0.9094,-0.7090,0.4562,
4.587061,0.1435,-0.6372,-0.3324,1.4255,2.5965,-1.8492,0.9094,-0.7090,0.4562,
4.588356,0.1435,-0.6372,-0.3324,2.0138,3.2684,-0.9522,0.9094,-0.7090,0.4562,
4.592904,0.1435,-0.6372,-0.3324,2.0138,3.2684,-0.9522,0.7219,-0.4115,0.3535,
4.602876,0.1435,-0.6372,-0.3324,2.0138,3.2684,-0.9522,0.4983,-0.1324,0.2369,
4.606896,0.0547,-0.5034,-0.2816,2.0138,3.2684,-0.9522,0.4983,-0.1324,0.2369,
4.607918,0.0547,-0.5034,-0.2816,1.1563,4.5844,-0.4788,0.4983,-0.1324,0.2369,
4.612872,0.0547,-0.5034,-0.2816,1.1563,4.5844,-0.4788,0.2662,0.1407,0.1428,
4.622936,0.0547,-0.5034,-0.2816,1.1563,4.5844,-0.4788,0.0939,0.3551,0.1025,
4.627249,0.0133,-0.4836,-0.2394,1.1563,4.5844,-0.4788,0.0939,0.3551,0.1025,
4.628187,0.0133,-0.4836,-0.2394,0.7129,4.7661,-0.0058,0.0939,0.3551,0.1025,
4.633059,0.0133,-0.4836,-0.2394,0.7129,4.7661,-0.0058,0.0389,0.4327,0.1165,
4.642953,0.0133,-0.4836,-0.2394,0.7129,4.7661,-0.0058,0.0676,0.3759,0.1514,
4.647158,-0.0012,-0.4890,-0.3133,0.7129,4.7661,-0.0058,0.0676,0.3759,0.1514,
4.648364,-0.0012,-0.4890,-0.3133,0.5352,4.6926,-0.6387,0.0676,0.3759,0.1514,
4.652974,-0.0012,-0.4890,-0.3133,0.5352,4.6926,-0.6387,0.1098,0.2134,0.1892,
4.662927,-0.0012,-0.4890,-0.3133,0.5352,4.6926,-0.6387,0.1580,-0.0328,0.2228,
4.667025,0.0046,-0.5824,-0.2488,0.5352,4.6926,-0.6387,0.1580,-0.0328,0.2228,
4.668136,0.0046,-0.5824,-0.2488,0.5901,3.7613,0.0535,0.1580,-0.0328,0.2228,
4.672873,0.0046,-0.5824,-0.2488,0.5901,3.7613,0.0535,0.2264,-0.3547,0.2442,
4.682874,0.0046,-0.5824,-0.2488,0.5901,3.7613,0.0535,0.5166,-1.0505,0.2466,
4.687224,0.1320,-0.6986,-0.1047,0.5901,3.7613,0.0535,0.5166,-1.0505,0.2466,
4.688825,0.1320,-0.6986,-0.1047,1.8628,2.6292,1.4366,0.5166,-1.0505,0.2466,
4.692946,0.1320,-0.6986,-0.1047,1.8628,2.6292,1.4366,0.6571,-1.3871,0.1837,
4.702915,0.1320,-0.6986,-0.1047,1.8628,2.6292,1.4366,0.7060,-1.7066,0.0530,
4.706954,0.3040,-0.7688,-0.1796,1.8628,2.6292,1.4366,0.7060,-1.7066,0.0530,
4.708040,0.3040,-0.7688,-0.1796,3.5496,1.9693,0.5904,0.7060,-1.7066,0.0530,
4.712941,0.3040,-0.7688,-0.1796,3.5496,1.9693,0.5904,0.6974,-1.9020,-0.1180,
4.722961,0.3040,-0.7688,-0.1796,3.5496,1.9693,0.5904,0.6754,-1.8770,-0.3489,
4.727016,0.4742,-0.9243,-0.0894,3.5496,1.9693,0.5904,0.6754,-1.8770,-0.3489,
4.728086,0.4742,-0.9243,-0.0894,5.1240,0.4845,1.3314,0.6754,-1.8770,-0.3489,
4.733019,0.4742,-0.9243,-0.0894,5.1240,0.4845,1.3314,0.6541,-1.4799,-0.6293,
4.742886,0.4742,-0.9243,-0.0894,5.1240,0.4845,1.3314,0.5160,-0.5917,-0.8560,
4.747032,0.2463,-1.2507,-0.2818,5.1240,0.4845,1.3314,0.5160,-0.5917,-0.8560,
4.748229,0.2463,-1.2507,-0.2818,2.6811,-2.6810,-0.6647,0.5160,-0.5917,-0.8560,
4.752966,0.2463,-1.2507,-0.2818,2.6811,-2.6810,-0.6647,0.1305,0.6581,-0.8486,
4.762903,0.2463,-1.2507,-0.2818,2.6811,-2.6810,-0.6647,-0.3765,1.6202,-0.5963,
4.766944,-0.3441,-1.6579,-0.4357,2.6811,-2.6810,-0.6647,-0.3765,1.6202,-0.5963,
4.768100,-0.3441,-1.6579,-0.4357,-3.3042,-6.6746,-2.1406,-0.3765,1.6202,-0.5963,
4.772896,-0.3441,-1.6579,-0.4357,-3.3042,-6.6746,-2.1406,-0.6031,1.1462,-0.2585,
4.782970,-0.3441,-1.6579,-0.4357,-3.3042,-6.6746,-2.1406,-0.3123,-0.6840,0.0585,
4.786873,-0.9777,-1.5377,0.2070,-3.3042,-6.6746,-2.1406,-0.3123,-0.6840,0.0585,
4.787885,-0.9777,-1.5377,0.2070,-9.4748,-5.5074,4.2045,-0.3123,-0.6840,0.0585,
4.792980,-0.9777,-1.5377,0.2070,-9.4748,-5.5074,4.2045,0.0933,-2.3480,0.2943,
4.802927,-0.9777,-1.5377,0.2070,-9.4748,-5.5074,4.2045,-0.1651,-2.0981,0.3926,
4.806866,-0.4555,-1.6194,0.1648,-9.4748,-5.5074,4.2045,-0.1651,-2.0981,0.3926,
4.807791,-0.4555,-1.6194,0.1648,-4.1233,-6.2982,3.7210,-0.1651,-2.0981,0.3926,
4.812943,-0.4555,-1.6194,0.1648,-4.1233,-6.2982,3.7210,-0.9159,0.4486,0.4140,
4.823028,-0.4555,-1.6194,0.1648,-4.1233,-6.2982,3.7210,-0.6233,1.6214,0.6413,
4.826969,-0.2840,-1.0903,0.1186,-4.1233,-6.2982,3.7210,-0.6233,1.6214,0.6413,
4.828151,-0.2840,-1.0903,0.1186,-2.3159,-1.1347,3.3390,-0.6233,1.6214,0.6413,
4.847288,-0.2840,-1.0903,0.1186,-2.3159,-1.1347,3.3390,0.4946,0.4131,0.7946,
4.848993,-0.2840,-1.0903,0.1186,-2.3159,-1.1347,3.3390,0.9515,-0.3779,0.7952,
4.850162,0.2542,-2.3276,-0.9165,-2.3159,-1.1347,3.3390,0.9515,-0.3779,0.7952,
4.851245,0.2542,-2.3276,-0.9165,3.1088,-13.2385,-6.9422,0.9515,-0.3779,0.7952,
4.861544,0.2542,-2.3276,-0.9165,3.1088,-13.2385,-6.9422,-0.2971,2.2402,-0.1260,
4.863210,0.2542,-2.3276,-0.9165,3.1088,-13.2385,-6.9422,-0.3191,1.8713,-0.1828,
4.869745,-0.2571,-1.2267,-0.6049,3.1088,-13.2385,-6.9422,-0.3191,1.8713,-0.1828,
4.870883,-0.2571,-1.2267,-0.6049,-2.0178,-2.4601,-3.8062,-0.3191,1.8713,-0.1828,
4.872731,-0.2571,-1.2267,-0.6049,-2.0178,-2.4601,-3.8062,-0.0271,-0.6143,0.0634,
4.887932,-0.2571,-1.2267,-0.6049,-2.0178,-2.4601,-3.8062,0.0872,-2.2496,0.0249,
4.888840,-0.2543,-0.8413,0.1112,-2.0178,-2.4601,-3.8062,0.0872,-2.2496,0.0249,
4.889870,-0.2543,-0.8413,0.1112,-1.9007,1.3185,3.1800,0.0872,-2.2496,0.0249,
4.892742,-0.2543,-0.8413,0.1112,-1.9007,1.3185,3.1800,0.0401,-2.3767,-0.0478,
4.902828,-0.2543,-0.8413,0.1112,-1.9007,1.3185,3.1800,0.0517,-1.8697,0.0066,
4.906987,-0.2403,-1.4184,0.1972,-1.9007,1.3185,3.1800,0.0517,-1.8697,0.0066,
4.907866,-0.2403,-1.4184,0.1972,-1.6494,-4.3285,3.9432,0.0517,-1.8697,0.0066,
4.912822,-0.2403,-1.4184,0.1972,-1.6494,-4.3285,3.9432,0.3627,-1.3327,0.1605,
4.922799,-0.2403,-1.4184,0.1972,-1.6494,-4.3285,3.9432,0.7903,-0.8984,0.3804,
4.926884,-0.4095,-1.3685,-0.0397,-1.6494,-4.3285,3.9432,0.7903,-0.8984,0.3804,
4.927966,-0.4095,-1.3685,-0.0397,-3.1699,-3.8151,1.4486,0.7903,-0.8984,0.3804,
4.932969,-0.4095,-1.3685,-0.0397,-3.1699,-3.8151,1.4486,1.0236,-0.5832,0.5020,
4.942918,-0.4095,-1.3685,-0.0397,-3.1699,-3.8151,1.4486,1.1030,-0.4286,0.5582,
4.946952,-0.2549,-1.1050,-0.2215,-3.1699,-3.8151,1.4486,1.1030,-0.4286,0.5582,
4.948102,-0.2549,-1.1050,-0.2215,-1.5068,-1.2054,-0.5659,1.1030,-0.4286,0.5582,
4.952956,-0.2549,-1.1050,-0.2215,-1.5068,-1.2054,-0.5659,1.1849,-0.4812,0.5594,
4.962883,-0.2549,-1.1050,-0.2215,-1.5068,-1.2054,-0.5659,1.2991,-0.7353,0.5166,
4.966885,-0.1848,-0.8354,0.0186,-1.5068,-1.2054,-0.5659,1.2991,-0.7353,0.5166,
4.968063,-0.1848,-0.8354,0.0186,-0.6748,1.4615,1.5180,1.2991,-0.7353,0.5166,
4.972887,-0.1848,-0.8354,0.0186,-0.6748,1.4615,1.5180,1.4030,-0.9283,0.4440,
4.982969,-0.1848,-0.8354,0.0186,-0.6748,1.4615,1.5180,1.4268,-0.8458,0.3413,
4.987032,-0.0439,-0.6494,-0.0476,-0.6748,1.4615,1.5180,1.4268,-0.8458,0.3413,
4.988059,-0.0439,-0.6494,-0.0476,0.8128,3.3085,0.5689,1.4268,-0.8458,0.3413,
4.992970,-0.0439,-0.6494,-0.0476,0.8128,3.3085,0.5689,1.3193,-0.5422,0.2540,
5.002913,-0.0439,-0.6494,-0.0476,0.8128,3.3085,0.5689,1.1843,-0.1421,0.2088,
5.006899,0.0462,-0.6754,-0.1564,0.8128,3.3085,0.5689,1.1843,-0.1421,0.2088,
5.007905,0.0462,-0.6754,-0.1564,1.7461,3.0703,-0.7451,1.1843,-0.1421,0.2088,
5.012943,0.0462,-0.6754,-0.1564,1.7461,3.0703,-0.7451,1.0768,0.0399,0.1581,
5.023018,0.0462,-0.6754,-0.1564,1.7461,3.0703,-0.7451,0.9540,-0.0542,0.0762,
5.026934,0.0171,-0.6684,-0.1267,1.7461,3.0703,-0.7451,0.9540,-0.0542,0.0762,
5.027910,0.0171,-0.6684,-0.1267,1.4772,3.1496,-0.6399,0.9540,-0.0542,0.0762,
5.032920,0.0171,-0.6684,-0.1267,1.4772,3.1496,-0.6399,0.8080,-0.2991,-0.0087,
5.042922,0.0171,-0.6684,-0.1267,1.4772,3.1496,-0.6399,0.7249,-0.3981,-0.0606,
5.047030,-0.0553,-0.7550,-0.2058,1.4772,3.1496,-0.6399,0.7249,-0.3981,-0.0606,
5.048166,-0.0553,-0.7550,-0.2058,0.7523,2.3099,-1.5407,0.7249,-0.3981,-0.0606,
5.052942,-0.0553,-0.7550,-0.2058,0.7523,2.3099,-1.5407,0.6064,-0.1898,-0.1596,
5.062960,-0.0553,-0.7550,-0.2058,0.7523,2.3099,-1.5407,0.5019,-0.2050,-0.1938,
5.067009,-0.0559,-0.7185,-0.2662,0.7523,2.3099,-1.5407,0.5019,-0.2050,-0.1938,
5.068437,-0.0559,-0.7185,-0.2662,0.6977,2.6763,-2.1775,0.5019,-0.2050,-0.1938,
5.072851,-0.0559,-0.7185,-0.2662,0.6977,2.6763,-2.1775,0.3981,-0.2777,-0.2304,
5.082901,-0.0559,-0.7185,-0.2662,0.6977,2.6763,-2.1775,0.2875,-0.3553,-0.2854,
5.087003,-0.0029,-0.5652,-0.3663,0.6977,2.6763,-2.1775,0.2875,-0.3553,-0.2854,
5.088282,-0.0029,-0.5652,-0.3663,1.1496,4.1858,-3.1324,0.2875,-0.3553,-0.2854,
5.092913,-0.0029,-0.5652,-0.3663,1.1496,4.1858,-3.1324,0.1220,-0.4720,-0.3544,
5.102916,-0.0029,-0.5652,-0.3663,1.1496,4.1858,-3.1324,-0.0961,-0.5984,-0.4326,
5.106934,0.0861,-0.4914,-0.4153,1.1496,4.1858,-3.1324,-0.0961,-0.5984,-0.4326,
5.107928,0.0861,-0.4914,-0.4153,1.9162,4.9147,-3.4916,-0.0961,-0.5984,-0.4326,
5.112945,0.0861,-0.4914,-0.4153,1.9162,4.9147,-3.4916,-0.3044,-0.7438,-0.5279,
5.122865,0.0861,-0.4914,-0.4153,1.9162,4.9147,-3.4916,-0.4724,-0.9082,-0.6373,
5.127042,0.0965,-0.4412,-0.3136,1.9162,4.9147,-3.4916,-0.4724,-0.9082,-0.6373,
5.128095,0.0965,-0.4412,-0.3136,1.8684,5.4077,-2.2888,-0.4724,-0.9082,-0.6373,
5.132936,0.0965,-0.4412,-0.3136,1.8684,5.4077,-2.2888,-0.6275,-0.9143,-0.7307,
5.143017,0.0965,-0.4412,-0.3136,1.8684,5.4077,-2.2888,-0.8145,-0.7322,-0.8004,
5.146978,-0.0314,-0.4430,-0.4391,1.8684,5.4077,-2.2888,-0.8145,-0.7322,-0.8004,
5.148386,-0.0314,-0.4430,-0.4391,0.4486,5.3758,-3.2240,-0.8145,-0.7322,-0.8004,
5.153029,-0.0314,-0.4430,-0.4391,0.4486,5.3758,-3.2240,-1.0283,-0.4793,-0.8621,
5.162835,-0.0314,-0.4430,-0.4391,0.4486,5.3758,-3.2240,-1.2195,-0.3529,-0.9543,
5.167153,-0.0826,-0.6491,-0.4087,0.4486,5.3758,-3.2240,-1.2195,-0.3529,-0.9543,
5.168778,-0.0826,-0.6491,-0.4087,-0.2297,3.3203,-2.5565,-1.2195,-0.3529,-0.9543,
5.173306,-0.0826,-0.6491,-0.4087,-0.2297,3.3203,-2.5565,-1.3655,-0.4805,-1.0875,
5.183789,-0.0826,-0.6491,-0.4087,-0.2297,3.3203,-2.5565,-1.4394,-0.6027,-1.1712,
5.187080,-0.3514,-0.9528,-0.2646,-0.2297,3.3203,-2.5565,-1.4394,-0.6027,-1.1712,
5.188360,-0.3514,-0.9528,-0.2646,-3.0232,0.2902,-0.7755,-1.4394,-0.6027,-1.1712,
5.193168,-0.3514,-0.9528,-0.2646,-3.0232,0.2902,-0.7755,-1.3746,-0.5612,-1.1486,
5.202901,-0.3514,-0.9528,-0.2646,-3.0232,0.2902,-0.7755,-1.2971,-0.1776,-1.0185,
5.206917,-0.5099,-0.9521,-0.2955,-3.0232,0.2902,-0.7755,-1.2971,-0.1776,-1.0185,
5.207720,-0.5099,-0.9521,-0.2955,-4.6759,0.2349,-0.7565,-1.2971,-0.1776,-1.0185,
5.212897,-0.5099,-0.9521,-0.2955,-4.6759,0.2349,-0.7565,-1.3380,0.3679,-0.8657,
5.222883,-0.5099,-0.9521,-0.2955,-4.6759,0.2349,-0.7565,-1.3899,0.7180,-0.7637,
5.226790,-0.4751,-0.7173,-0.3115,-4.6759,0.2349,-0.7565,-1.3899,0.7180,-0.7637,
5.227643,-0.4751,-0.7173,-0.3115,-4.3862,2.4608,-0.5961,-1.3899,0.7180,-0.7637,
5.232797,-0.4751,-0.7173,-0.3115,-4.3862,2.4608,-0.5961,-1.7155,1.3056,-0.6745,
5.242899,-0.4751,-0.7173,-0.3115,-4.3862,2.4608,-0.5961,-2.0930,1.8762,-0.8138,
5.247087,0.0673,-0.6124,-0.1255,-4.3862,2.4608,-0.5961,-2.0930,1.8762,-0.8138,
5.248473,0.0673,-0.6124,-0.1255,0.7996,3.3830,1.6148,-2.0930,1.8762,-0.8138,
5.252999,0.0673,-0.6124,-0.1255,0.7996,3.3830,1.6148,-2.3416,2.2916,-1.0838,
5.262886,0.0673,-0.6124,-0.1255,0.7996,3.3830,1.6148,-2.5689,2.3508,-1.3758,
5.266982,0.2747,-0.8933,-0.1283,0.7996,3.3830,1.6148,-2.5689,2.3508,-1.3758,
5.268344,0.2747,-0.8933,-0.1283,2.4894,0.4828,2.0298,-2.5689,2.3508,-1.3758,
5.272856,0.2747,-0.8933,-0.1283,2.4894,0.4828,2.0298,-2.9391,2.6453,-1.6257,
5.283175,0.2747,-0.8933,-0.1283,2.4894,0.4828,2.0298,-3.3862,3.3502,-1.9305,
5.287141,0.4126,-1.3563,-0.3164,2.4894,0.4828,2.0298,-3.3862,3.3502,-1.9305,
5.288199,0.4126,-1.3563,-0.3164,3.3051,-4.2790,0.6945,-3.3862,3.3502,-1.9305,
5.292879,0.4126,-1.3563,-0.3164,3.3051,-4.2790,0.6945,-3.6159,3.8749,-2.1681,
5.302901,0.4126,-1.3563,-0.3164,3.3051,-4.2790,0.6945,-3.4180,3.8774,-2.0417,
5.306936,-0.0611,-1.8120,-0.3707,3.3051,-4.2790,0.6945,-3.4180,3.8774,-2.0417,
5.308014,-0.0611,-1.8120,-0.3707,-1.9799,-9.0322,0.6243,-3.4180,3.8774,-2.0417,
5.312882,-0.0611,-1.8120,-0.3707,-1.9799,-9.0322,0.6243,-3.0008,3.3471,-1.6031,
5.322900,-0.0611,-1.8120,-0.3707,-1.9799,-9.0322,0.6243,-2.7485,2.3252,-1.2542,
5.326989,0.1339,-1.8639,-1.0565,-1.9799,-9.0322,0.6243,-2.7485,2.3252,-1.2542,
5.328185,0.1339,-1.8639,-1.0565,-0.5352,-9.8226,-5.7215,-2.7485,2.3252,-1.2542,
5.333461,0.1339,-1.8639,-1.0565,-0.5352,-9.8226,-5.7215,-2.6770,1.1401,-1.1425,
5.342868,0.1339,-1.8639,-1.0565,-0.5352,-9.8226,-5.7215,-2.5884,0.2751,-1.0765,
5.347118,0.3525,-1.8947,-0.4787,-0.5352,-9.8226,-5.7215,-2.5884,0.2751,-1.0765,
5.348857,0.3525,-1.8947,-0.4787,1.3547,-10.4233,0.3504,-2.5884,0.2751,-1.0765,
5.358839,0.3525,-1.8947,-0.4787,1.3547,-10.4233,0.3504,-2.4229,0.0344,-0.9500,
5.362866,0.3525,-1.8947,-0.4787,1.3547,-10.4233,0.3504,-2.2347,0.2867,-0.7851,
5.368353,0.3564,-1.7803,-0.4930,1.3547,-10.4233,0.3504,-2.2347,0.2867,-0.7851,
5.369759,0.3564,-1.7803,-0.4930,1.2372,-9.5824,0.5756,-2.2347,0.2867,-0.7851,
5.372852,0.3564,-1.7803,-0.4930,1.2372,-9.5824,0.5756,-2.0612,0.4083,-0.5866,
5.390756,0.3564,-1.7803,-0.4930,1.2372,-9.5824,0.5756,-1.8969,0.1719,-0.4888,
5.392007,0.1924,-1.2333,-0.4107,1.2372,-9.5824,0.5756,-1.8969,0.1719,-0.4888,
5.393512,0.1924,-1.2333,-0.4107,-0.4859,-4.4667,1.6757,-1.8969,0.1719,-0.4888,
5.394643,0.1924,-1.2333,-0.4107,-0.4859,-4.4667,1.6757,-1.7289,-0.0248,-0.5151,
5.402963,0.1924,-1.2333,-0.4107,-0.4859,-4.4667,1.6757,-1.5438,0.0234,-0.5188,
5.407119,0.1351,-0.9142,-0.3972,-0.4859,-4.4667,1.6757,-1.5438,0.0234,-0.5188,
5.408154,0.1351,-0.9142,-0.3972,-1.0883,-1.4754,1.9675,-1.5438,0.0234,-0.5188,
5.412975,0.1351,-0.9142,-0.3972,-1.0883,-1.4754,1.9675,-1.3233,0.1535,-0.4394,
5.422847,0.1351,-0.9142,-0.3972,-1.0883,-1.4754,1.9675,-0.8389,0.3282,-0.3752,
5.426983,0.1628,-0.8819,-0.3628,-1.0883,-1.4754,1.9675,-0.8389,0.3282,-0.3752,
5.428045,0.1628,-0.8819,-0.3628,-0.8641,-1.2146,2.3554,-0.8389,0.3282,-0.3752,
5.433359,0.1628,-0.8819,-0.3628,-0.8641,-1.2146,2.3554,-0.5958,0.4608,-0.2763,
5.442898,0.1628,-0.8819,-0.3628,-0.8641,-1.2146,2.3554,-0.3301,0.6013,-0.1577,
5.446935,0.2185,-0.9041,-0.2961,-0.8641,-1.2146,2.3554,-0.3301,0.6013,-0.1577,
5.448613,0.2185,-0.9041,-0.2961,-0.3779,-1.4066,2.9526,-0.3301,0.6013,-0.1577,
5.453045,0.2185,-0.9041,-0.2961,-0.3779,-1.4066,2.9526,-0.0411,0.7003,-0.0423,
5.462880,0.2185,-0.9041,-0.2961,-0.3779,-1.4066,2.9526,0.2228,0.7772,0.0897,
5.466989,0.2536,-0.9028,-0.3226,-0.3779,-1.4066,2.9526,0.2228,0.7772,0.0897,
5.468554,0.2536,-0.9028,-0.3226,-0.0882,-1.3007,2.5473,0.2228,0.7772,0.0897,
5.472873,0.2536,-0.9028,-0.3226,-0.0882,-1.3007,2.5473,0.4317,0.8151,0.2271,
5.483224,0.2536,-0.9028,-0.3226,-0.0882,-1.3007,2.5473,0.5820,0.7784,0.3554,
5.486946,0.2875,-0.7707,-0.3498,-0.0882,-1.3007,2.5473,0.5820,0.7784,0.3554,
5.487921,0.2875,-0.7707,-0.3498,0.2167,0.1329,2.0795,0.5820,0.7784,0.3554,
5.492916,0.2875,-0.7707,-0.3498,0.2167,0.1329,2.0795,0.6907,0.6722,0.4818,
5.502940,0.2875,-0.7707,-0.3498,0.2167,0.1329,2.0795,0.8055,0.5927,0.5948,
5.506877,0.2102,-0.6050,-0.2128,0.2167,0.1329,2.0795,0.8055,0.5927,0.5948,
5.507942,0.2102,-0.6050,-0.2128,-0.5167,1.9212,3.1968,0.8055,0.5927,0.5948,
5.512952,0.2102,-0.6050,-0.2128,-0.5167,1.9212,3.1968,0.9344,0.5738,0.6773,
5.522879,0.2102,-0.6050,-0.2128,-0.5167,1.9212,3.1968,1.0701,0.5701,0.7201,
5.527154,0.1298,-0.4411,-0.1735,-0.5167,1.9212,3.1968,1.0701,0.5701,0.7201,
5.528137,0.1298,-0.4411,-0.1735,-1.2470,3.7114,3.3275,1.0701,0.5701,0.7201,
5.533740,0.1298,-0.4411,-0.1735,-1.2470,3.7114,3.3275,1.2252,0.5213,0.7414,
5.542861,0.1298,-0.4411,-0.1735,-1.2470,3.7114,3.3275,1.3938,0.3789,0.7757,
5.547106,0.1478,-0.4268,-0.2092,-1.2470,3.7114,3.3275,1.3938,0.3789,0.7757,
5.549164,0.1478,-0.4268,-0.2092,-0.9929,4.0432,2.6975,1.3938,0.3789,0.7757,
5.552892,0.1478,-0.4268,-0.2092,-0.9929,4.0432,2.6975,1.6009,0.2183,0.8300,
5.562883,0.1478,-0.4268,-0.2092,-0.9929,4.0432,2.6975,1.8495,0.0869,0.8826,
5.566918,0.1456,-0.4401,-0.2864,-0.9929,4.0432,2.6975,1.8495,0.0869,0.8826,
5.568292,0.1456,-0.4401,-0.2864,-0.8892,4.1170,1.6355,1.8495,0.0869,0.8826,
5.572951,0.1456,-0.4401,-0.2864,-0.8892,4.1170,1.6355,2.0823,-0.0481,0.9363,
5.583888,0.1456,-0.4401,-0.2864,-0.8892,4.1170,1.6355,2.2472,-0.1965,1.0249,
5.587137,0.1446,-0.3998,-0.2648,-0.8892,4.1170,1.6355,2.2472,-0.1965,1.0249,
5.588389,0.1446,-0.3998,-0.2648,-0.7267,4.7384,1.4837,2.2472,-0.1965,1.0249,
5.592877,0.1446,-0.3998,-0.2648,-0.7267,4.7384,1.4837,2.3791,-0.3052,1.0982,
5.602932,0.1446,-0.3998,-0.2648,-0.7267,4.7384,1.4837,2.6772,-0.4928,1.2515,
5.606974,0.0492,-0.4619,-0.2108,-0.7267,4.7384,1.4837,2.6772,-0.4928,1.2515,
5.608033,0.0492,-0.4619,-0.2108,-1.4294,4.3689,1.5932,2.6772,-0.4928,1.2515,
5.612820,0.0492,-0.4619,-0.2108,-1.4294,4.3689,1.5932,2.8067,-0.6149,1.3761,
5.622885,0.0492,-0.4619,-0.2108,-1.4294,4.3689,1.5932,2.8477,-0.7835,1.4849,
5.627039,0.0474,-0.5752,-0.3452,-1.4294,4.3689,1.5932,2.8477,-0.7835,1.4849,
5.628107,0.0474,-0.5752,-0.3452,-1.1472,3.4858,-0.1667,2.8477,-0.7835,1.4849,
5.633852,0.0474,-0.5752,-0.3452,-1.1472,3.4858,-0.1667,2.7896,-1.0181,1.5380,
5.643006,0.0474,-0.5752,-0.3452,-1.1472,3.4858,-0.1667,2.6632,-1.3577,1.5234,
5.647022,0.1614,-0.6921,-0.5730,-1.1472,3.4858,-0.1667,2.6632,-1.3577,1.5234,
5.648301,0.1614,-0.6921,-0.5730,0.3016,2.5149,-2.7720,2.6632,-1.3577,1.5234,
5.652996,0.1614,-0.6921,-0.5730,0.3016,2.5149,-2.7720,2.4793,-1.7951,1.4482,
5.662938,0.1614,-0.6921,-0.5730,0.3016,2.5149,-2.7720,2.2356,-2.2508,1.3254,
5.667175,0.2299,-0.8267,-0.7274,0.3016,2.5149,-2.7720,2.2356,-2.2508,1.3254,
5.668217,0.2299,-0.8267,-0.7274,1.2987,1.3112,-4.5495,2.2356,-2.2508,1.3254,
5.672937,0.2299,-0.8267,-0.7274,1.2987,1.3112,-4.5495,1.9558,-2.5196,1.1849,
5.683543,0.2299,-0.8267,-0.7274,1.2987,1.3112,-4.5495,1.6754,-2.4084,1.0676,
5.686803,0.1940,-0.8276,-0.5625,1.2987,1.3112,-4.5495,1.6754,-2.4084,1.0676,
5.687805,0.1940,-0.8276,-0.5625,1.2267,1.3706,-3.0989,1.6754,-2.4084,1.0676,
5.692892,0.1940,-0.8276,-0.5625,1.2267,1.3706,-3.0989,1.3889,-1.8703,0.9479,
5.702944,0.1940,-0.8276,-0.5625,1.2267,1.3706,-3.0989,1.0261,-1.1690,0.8074,
5.707098,0.1776,-0.6318,-0.4352,1.2267,1.3706,-3.0989,1.0261,-1.1690,0.8074,
5.708114,0.1776,-0.6318,-0.4352,1.2408,3.3183,-1.9230,1.0261,-1.1690,0.8074,
5.712937,0.1776,-0.6318,-0.4352,1.2408,3.3183,-1.9230,0.6192,-0.4769,0.6352,
5.722947,0.1776,-0.6318,-0.4352,1.2408,3.3183,-1.9230,0.2136,0.0857,0.4495,
5.726944,0.2249,-0.5966,-0.2800,1.2408,3.3183,-1.9230,0.2136,0.0857,0.4495,
5.727990,0.2249,-0.5966,-0.2800,1.7394,3.6532,-0.3549,0.2136,0.0857,0.4495,
5.733834,0.2249,-0.5966,-0.2800,1.7394,3.6532,-0.3549,-0.1584,0.3435,0.3444,
5.742869,0.2249,-0.5966,-0.2800,1.7394,3.6532,-0.3549,-0.3294,0.4504,0.2876,
5.746985,0.3600,-0.5217,-0.1689,1.7394,3.6532,-0.3549,-0.3294,0.4504,0.2876,
5.747975,0.3600,-0.5217,-0.1689,2.9968,4.3479,0.8711,-0.3294,0.4504,0.2876,
5.752934,0.3600,-0.5217,-0.1689,2.9968,4.3479,0.8711,-0.3032,0.4883,0.2741,
5.762896,0.3600,-0.5217,-0.1689,2.9968,4.3479,0.8711,-0.3417,0.3258,0.2357,
5.767259,0.3981,-0.4836,0.0220,2.9968,4.3479,0.8711,-0.3417,0.3258,0.2357,
5.768527,0.3981,-0.4836,0.0220,3.2566,4.6862,2.8450,-0.3417,0.3258,0.2357,
5.772854,0.3981,-0.4836,0.0220,3.2566,4.6862,2.8450,-0.4553,-0.0022,0.1733,
5.783861,0.3981,-0.4836,0.0220,3.2566,4.6862,2.8450,-0.3484,-0.7982,-0.0502,
5.787046,0.2773,-0.7438,0.3959,3.2566,4.6862,2.8450,-0.3484,-0.7982,-0.0502,
5.788178,0.2773,-0.7438,0.3959,1.9681,2.1230,6.5295,-0.3484,-0.7982,-0.0502,
5.792838,0.2773,-0.7438,0.3959,1.9681,2.1230,6.5295,0.3169,-0.0896,-0.1022,
5.802949,0.2773,-0.7438,0.3959,1.9681,2.1230,6.5295,0.4567,1.2928,-0.1791,
5.806928,-0.3624,-1.0663,0.1397,1.9681,2.1230,6.5295,0.4567,1.2928,-0.1791,
5.807982,-0.3624,-1.0663,0.1397,-4.3808,-0.9965,3.8441,0.4567,1.2928,-0.1791,
5.812936,-0.3624,-1.0663,0.1397,-4.3808,-0.9965,3.8441,0.4482,1.4620,-0.2439,
5.822914,-0.3624,-1.0663,0.1397,-4.3808,-0.9965,3.8441,0.4060,0.5243,0.0414,
5.826853,-1.3313,-1.8579,-0.0866,-4.3808,-0.9965,3.8441,0.4060,0.5243,0.0414,
5.827933,-1.3313,-1.8579,-0.0866,-13.8036,-8.7048,1.4512,0.4060,0.5243,0.0414,
5.840958,-1.3313,-1.8579,-0.0866,-13.8036,-8.7048,1.4512,0.5221,-0.6968,0.5344,
5.842984,-1.3313,-1.8579,-0.0866,-13.8036,-8.7048,1.4512,0.6339,-1.0260,0.7720,
5.846859,0.0020,-2.0772,-0.1831,-13.8036,-8.7048,1.4512,0.6339,-1.0260,0.7720,
5.849026,0.0020,-2.0772,-0.1831,-0.4891,-10.7994,0.3432,0.6339,-1.0260,0.7720,
5.860854,0.0020,-2.0772,-0.1831,-0.4891,-10.7994,0.3432,0.1947,1.0197,0.7170,
5.864219,0.0020,-2.0772,-0.1831,-0.4891,-10.7994,0.3432,-0.0894,2.0765,0.4971,
5.869078,0.3717,-1.1823,-0.3615,-0.4891,-10.7994,0.3432,-0.0894,2.0765,0.4971,
5.871086,0.3717,-1.1823,-0.3615,3.2114,-2.0138,-1.4584,-0.0894,2.0765,0.4971,
5.874037,0.3717,-1.1823,-0.3615,3.2114,-2.0138,-1.4584,0.2594,-0.4622,0.4488,
5.892882,0.3717,-1.1823,-0.3615,3.2114,-2.0138,-1.4584,0.2668,-2.1629,0.5881,
5.894219,0.0568,-2.8544,-0.6517,3.2114,-2.0138,-1.4584,0.2668,-2.1629,0.5881,
5.895214,0.0568,-2.8544,-0.6517,0.2743,-18.3856,-4.3422,0.2668,-2.1629,0.5881,
5.896273,0.0568,-2.8544,-0.6517,0.2743,-18.3856,-4.3422,0.0988,-1.6369,0.5912,
5.906259,0.0568,-2.8544,-0.6517,0.2743,-18.3856,-4.3422,-0.3789,0.0851,0.3096,
5.907794,-0.2676,-1.3539,-0.5949,0.2743,-18.3856,-4.3422,-0.3789,0.0851,0.3096,
5.909053,-0.2676,-1.3539,-0.5949,-2.7872,-3.6854,-3.7551,-0.3789,0.0851,0.3096,
5.912775,-0.2676,-1.3539,-0.5949,-2.7872,-3.6854,-3.7551,-1.1297,0.4926,0.1837,
5.922816,-0.2676,-1.3539,-0.5949,-2.7872,-3.6854,-3.7551,-1.1938,-1.1989,0.1153,
5.926798,-0.0440,-1.0417,0.1487,-2.7872,-3.6854,-3.7551,-1.1938,-1.1989,0.1153,
5.927671,-0.0440,-1.0417,0.1487,-0.5473,-0.6750,3.7508,-1.1938,-1.1989,0.1153,
5.933470,-0.0440,-1.0417,0.1487,-0.5473,-0.6750,3.7508,-0.7418,-1.9735,0.0799,
5.942764,-0.0440,-1.0417,0.1487,-0.5473,-0.6750,3.7508,-0.4803,-1.5465,0.1281,
5.946711,-0.2359,-1.1962,0.3469,-0.5473,-0.6750,3.7508,-0.4803,-1.5465,0.1281,
5.947504,-0.2359,-1.1962,0.3469,-2.2907,-2.1994,5.7379,-0.4803,-1.5465,0.1281,
5.952771,-0.2359,-1.1962,0.3469,-2.2907,-2.1994,5.7379,-0.1889,-1.2930,0.1788,
5.962730,-0.2359,-1.1962,0.3469,-2.2907,-2.1994,5.7379,0.3224,-1.4555,0.2613,
5.966938,-0.0479,-1.3263,0.0409,-2.2907,-2.1994,5.7379,0.3224,-1.4555,0.2613,
5.968241,-0.0479,-1.3263,0.0409,-0.3181,-3.4528,2.6449,0.3224,-1.4555,0.2613,
5.972766,-0.0479,-1.3263,0.0409,-0.3181,-3.4528,2.6449,0.9625,-0.6656,0.3102,
5.983733,-0.0479,-1.3263,0.0409,-0.3181,-3.4528,2.6449,1.1385,-0.5343,0.2919,
5.986887,-0.2140,-1.1948,-0.0473,-0.3181,-3.4528,2.6449,1.1385,-0.5343,0.2919,
5.987779,-0.2140,-1.1948,-0.0473,-1.8332,-2.1063,1.5097,1.1385,-0.5343,0.2919,
5.992855,-0.2140,-1.1948,-0.0473,-1.8332,-2.1063,1.5097,1.4653,-0.9961,0.3371,
6.002784,-0.2140,-1.1948,-0.0473,-1.8332,-2.1063,1.5097,1.7188,-1.4610,0.4140,
6.006890,-0.3216,-1.0040,0.0076,-1.8332,-2.1063,1.5097,1.7188,-1.4610,0.4140,
6.007699,-0.3216,-1.0040,0.0076,-2.7283,-0.1733,1.6761,1.7188,-1.4610,0.4140,
6.012807,-0.3216,-1.0040,0.0076,-2.7283,-0.1733,1.6761,1.7420,-1.4366,0.4201,
6.022825,-0.3216,-1.0040,0.0076,-2.7283,-0.1733,1.6761,1.5765,-0.9607,0.3615,
6.026810,-0.1477,-0.8261,-0.1016,-2.7283,-0.1733,1.6761,1.5765,-0.9607,0.3615,
6.027685,-0.1477,-0.8261,-0.1016,-0.8829,1.6152,0.2466,1.5765,-0.9607,0.3615,
6.033706,-0.1477,-0.8261,-0.1016,-0.8829,1.6152,0.2466,1.3755,-0.4744,0.2308,
6.042733,-0.1477,-0.8261,-0.1016,-0.8829,1.6152,0.2466,1.2020,-0.3504,0.0744,
6.046850,-0.0066,-0.8113,-0.3430,-0.8829,1.6152,0.2466,1.2020,-0.3504,0.0744,
6.047655,-0.0066,-0.8113,-0.3430,0.5488,1.7860,-2.3701,1.2020,-0.3504,0.0744,
6.052751,-0.0066,-0.8113,-0.3430,0.5488,1.7860,-2.3701,1.0084,-0.5477,-0.0521,
6.062923,-0.0066,-0.8113,-0.3430,0.5488,1.7860,-2.3701,0.8129,-0.7457,-0.1351,
6.067327,-0.1551,-0.8462,-0.1675,0.5488,1.7860,-2.3701,0.8129,-0.7457,-0.1351,
6.068676,-0.1551,-0.8462,-0.1675,-0.8969,1.4602,-0.8224,0.8129,-0.7457,-0.1351,
6.072979,-0.1551,-0.8462,-0.1675,-0.8969,1.4602,-0.8224,0.7212,-0.7383,-0.1541,
6.084022,-0.1551,-0.8462,-0.1675,-0.8969,1.4602,-0.8224,0.7231,-0.5820,-0.1284,
6.086900,-0.2060,-0.8212,-0.0429,-0.8969,1.4602,-0.8224,0.7231,-0.5820,-0.1284,
6.088471,-0.2060,-0.8212,-0.0429,-1.3859,1.7142,0.2632,0.7231,-0.5820,-0.1284,
6.092853,-0.2060,-0.8212,-0.0429,-1.3859,1.7142,0.2632,0.7335,-0.3877,-0.0954,
6.102954,-0.2060,-0.8212,-0.0429,-1.3859,1.7142,0.2632,0.7219,-0.2521,-0.0667,
6.107042,-0.1240,-0.7577,-0.2084,-1.3859,1.7142,0.2632,0.7219,-0.2521,-0.0667,
6.108030,-0.1240,-0.7577,-0.2084,-0.5630,2.3428,-1.4735,0.7219,-0.2521,-0.0667,
6.112933,-0.1240,-0.7577,-0.2084,-0.5630,2.3428,-1.4735,0.6815,-0.2643,-0.0429,
6.122903,-0.1240,-0.7577,-0.2084,-0.5630,2.3428,-1.4735,0.6180,-0.3871,-0.0258,
6.126977,-0.0156,-0.6863,-0.3305,-0.5630,2.3428,-1.4735,0.6180,-0.3871,-0.0258,
6.128039,-0.0156,-0.6863,-0.3305,0.5201,3.0450,-2.7315,0.6180,-0.3871,-0.0258,
6.134282,-0.0156,-0.6863,-0.3305,0.5201,3.0450,-2.7315,0.5252,-0.5184,-0.0289,
6.142935,-0.0156,-0.6863,-0.3305,0.5201,3.0450,-2.7315,0.3834,-0.5783,-0.0667,
6.147062,0.1057,-0.5846,-0.3838,0.5201,3.0450,-2.7315,0.3834,-0.5783,-0.0667,
6.148138,0.1057,-0.5846,-0.3838,1.7037,4.0410,-3.2459,0.3834,-0.5783,-0.0667,
6.153007,0.1057,-0.5846,-0.3838,1.7037,4.0410,-3.2459,0.0774,-0.6742,-0.2689,
6.162881,0.1057,-0.5846,-0.3838,1.7037,4.0410,-3.2459,0.0218,-0.8642,-0.3642,
6.167829,0.0255,-0.6108,-0.2491,1.7037,4.0410,-3.2459,0.0218,-0.8642,-0.3642,
6.169237,0.0255,-0.6108,-0.2491,0.8561,3.7838,-1.8371,0.0218,-0.8642,-0.3642,
6.172865,0.0255,-0.6108,-0.2491,0.8561,3.7838,-1.8371,0.0139,-1.0584,-0.4363,
6.184281,0.0255,-0.6108,-0.2491,0.8561,3.7838,-1.8371,-0.0063,-1.1665,-0.4864,
6.187251,-0.0722,-0.6273,-0.1424,0.8561,3.7838,-1.8371,-0.0063,-1.1665,-0.4864,
6.188238,-0.0722,-0.6273,-0.1424,-0.1769,3.6212,-0.7112,-0.0063,-1.1665,-0.4864,
6.192879,-0.0722,-0.6273,-0.1424,-0.1769,3.6212,-0.7112,-0.1224,-1.1012,-0.5371,
6.202999,-0.0722,-0.6273,-0.1424,-0.1769,3.6212,-0.7112,-0.3514,-0.8678,-0.6104,
6.206948,-0.0490,-0.6044,-0.1936,-0.1769,3.6212,-0.7112,-0.3514,-0.8678,-0.6104,
6.208021,-0.0490,-0.6044,-0.1936,-0.0400,3.8399,-1.0864,-0.3514,-0.8678,-0.6104,
6.213027,-0.0490,-0.6044,-0.1936,-0.0400,3.8399,-1.0864,-0.5671,-0.4903,-0.6868,
6.222934,-0.0490,-0.6044,-0.1936,-0.0400,3.8399,-1.0864,-0.7784,-0.0597,-0.7967,
6.226891,0.0282,-0.6042,-0.2747,-0.0400,3.8399,-1.0864,-0.7784,-0.0597,-0.7967,
6.227983,0.0282,-0.6042,-0.2747,0.5785,3.8265,-1.6588,-0.7784,-0.0597,-0.7967,
6.234591,0.0282,-0.6042,-0.2747,0.5785,3.8265,-1.6588,-0.9849,0.3026,-0.9439,
6.242933,0.0282,-0.6042,-0.2747,0.5785,3.8265,-1.6588,-1.1694,0.5280,-1.0850,
6.246782,0.0286,-0.6117,-0.3696,0.5785,3.8265,-1.6588,-1.1694,0.5280,-1.0850,
6.247649,0.0286,-0.6117,-0.3696,0.3764,3.7179,-2.2739,-1.1694,0.5280,-1.0850,
6.252904,0.0286,-0.6117,-0.3696,0.3764,3.7179,-2.2739,-1.3025,0.4608,-1.1926,
6.262841,0.0286,-0.6117,-0.3696,0.3764,3.7179,-2.2739,-1.3667,0.1535,-1.2469,
6.267809,-0.2132,-0.7047,-0.2001,0.3764,3.7179,-2.2739,-1.3667,0.1535,-1.2469,
6.268990,-0.2132,-0.7047,-0.2001,-2.1957,2.7545,-0.2779,-1.3667,0.1535,-1.2469,
6.272744,-0.2132,-0.7047,-0.2001,-2.1957,2.7545,-0.2779,-1.4681,-0.0554,-1.2610,
6.284243,-0.2132,-0.7047,-0.2001,-2.1957,2.7545,-0.2779,-1.6086,0.2323,-1.1987,
6.286811,-0.2907,-0.6336,-0.1537,-2.1957,2.7545,-0.2779,-1.6086,0.2323,-1.1987,
6.287717,-0.2907,-0.6336,-0.1537,-3.1111,3.3820,0.5209,-1.6086,0.2323,-1.1987,
6.292832,-0.2907,-0.6336,-0.1537,-3.1111,3.3820,0.5209,-1.7845,0.7125,-1.0954,
6.302878,-0.2907,-0.6336,-0.1537,-3.1111,3.3820,0.5209,-2.0008,1.2910,-1.0484,
6.306785,-0.0792,-0.5692,-0.1879,-3.1111,3.3820,0.5209,-2.0008,1.2910,-1.0484,
6.307661,-0.0792,-0.5692,-0.1879,-1.1998,3.9177,0.5700,-2.0008,1.2910,-1.0484,
6.312850,-0.0792,-0.5692,-0.1879,-1.1998,3.9177,0.5700,-2.2005,1.8597,-1.0514,
6.323059,-0.0792,-0.5692,-0.1879,-1.1998,3.9177,0.5700,-2.4546,2.3930,-1.1150,
6.326738,0.1658,-0.5724,-0.2128,-1.1998,3.9177,0.5700,-2.4546,2.3930,-1.1150,
6.327512,0.1658,-0.5724,-0.2128,0.9267,3.7512,0.7536,-2.4546,2.3930,-1.1150,
6.334071,0.1658,-0.5724,-0.2128,0.9267,3.7512,0.7536,-2.7747,3.0539,-1.2866,
6.342770,0.1658,-0.5724,-0.2128,0.9267,3.7512,0.7536,-2.9042,3.0148,-1.5542,
6.346753,-0.1026,-0.9747,-0.3470,0.9267,3.7512,0.7536,-2.9042,3.0148,-1.5542,
6.347699,-0.1026,-0.9747,-0.3470,-2.0785,-0.3825,-0.0925,-2.9042,3.0148,-1.5542,
6.352854,-0.1026,-0.9747,-0.3470,-2.0785,-0.3825,-0.0925,-2.9672,2.3313,-1.4320,
6.362877,-0.1026,-0.9747,-0.3470,-2.0785,-0.3825,-0.0925,-3.0014,1.9990,-1.2164,
6.367709,-0.1053,-1.4343,-0.3371,-2.0785,-0.3825,-0.0925,-3.0014,1.9990,-1.2164,
6.368914,-0.1053,-1.4343,-0.3371,-2.4133,-5.1052,0.4563,-3.0014,1.9990,-1.2164,
6.372803,-0.1053,-1.4343,-0.3371,-2.4133,-5.1052,0.4563,-3.0056,1.9971,-1.0594,
6.384256,-0.1053,-1.4343,-0.3371,-2.4133,-5.1052,0.4563,-2.9714,1.9764,-0.9079,
6.386715,-0.0026,-1.7195,-0.4481,-2.4133,-5.1052,0.4563,-2.9714,1.9764,-0.9079,
6.387584,-0.0026,-1.7195,-0.4481,-1.6539,-8.1254,-0.2230,-2.9714,1.9764,-0.9079,
6.392818,-0.0026,-1.7195,-0.4481,-1.6539,-8.1254,-0.2230,-2.8352,1.8615,-0.7723,
6.402752,-0.0026,-1.7195,-0.4481,-1.6539,-8.1254,-0.2230,-2.6568,1.6624,-0.7509,
6.406956,0.1437,-1.7000,-0.5769,-1.6539,-8.1254,-0.2230,-2.6568,1.6624,-0.7509,
6.407827,0.1437,-1.7000,-0.5769,-0.4322,-8.1512,-1.1390,-2.6568,1.6624,-0.7509,
6.412768,0.1437,-1.7000,-0.5769,-0.4322,-8.1512,-1.1390,-2.4992,1.4186,-0.7802,
6.422758,0.1437,-1.7000,-0.5769,-0.4322,-8.1512,-1.1390,-2.3099,1.3924,-0.7075,
6.426798,0.2058,-1.7976,-0.4383,-0.4322,-8.1512,-1.1390,-2.3099,1.3924,-0.7075,
6.427990,0.2058,-1.7976,-0.4383,-0.0687,-9.3520,0.5542,-2.3099,1.3924,-0.7075,
6.434623,0.2058,-1.7976,-0.4383,-0.0687,-9.3520,0.5542,-2.0991,1.6764,-0.5383,
6.442869,0.2058,-1.7976,-0.4383,-0.0687,-9.3520,0.5542,-1.9415,1.8120,-0.3746,
6.447021,0.3855,-1.6948,-0.4758,-0.0687,-9.3520,0.5542,-1.9415,1.8120,-0.3746,
6.447955,0.3855,-1.6948,-0.4758,1.4439,-8.5653,0.4390,-1.9415,1.8120,-0.3746,
6.453194,0.3855,-1.6948,-0.4758,1.4439,-8.5653,0.4390,-1.8224,1.6434,-0.2133,
6.462860,0.3855,-1.6948,-0.4758,1.4439,-8.5653,0.4390,-1.5377,1.5799,-0.0398,
6.467919,0.5013,-1.3757,-0.6329,1.4439,-8.5653,0.4390,-1.5377,1.5799,-0.0398,
6.469600,0.5013,-1.3757,-0.6329,2.3906,-5.6195,-0.9113,-1.5377,1.5799,-0.0398,
6.472899,0.5013,-1.3757,-0.6329,2.3906,-5.6195,-0.9113,-1.1211,1.5176,0.1007,
6.484480,0.5013,-1.3757,-0.6329,2.3906,-5.6195,-0.9113,-0.7515,1.2623,0.2192,
6.486981,0.4272,-1.3283,-0.6340,2.3906,-5.6195,-0.9113,-0.7515,1.2623,0.2192,
6.487976,0.4272,-1.3283,-0.6340,1.5406,-5.2465,-0.8477,-0.7515,1.2623,0.2192,
6.492808,0.4272,-1.3283,-0.6340,1.5406,-5.2465,-0.8477,-0.5200,0.9868,0.3114,
6.502831,0.4272,-1.3283,-0.6340,1.5406,-5.2465,-0.8477,-0.3789,0.9177,0.3700,
6.506954,0.3327,-1.0563,-0.4299,1.5406,-5.2465,-0.8477,-0.3789,0.9177,0.3700,
6.507806,0.3327,-1.0563,-0.4299,0.5773,-2.5798,1.1328,-0.3789,0.9177,0.3700,
6.512779,0.3327,-1.0563,-0.4299,0.5773,-2.5798,1.1328,-0.2421,1.0277,0.3957,
6.522785,0.3327,-1.0563,-0.4299,0.5773,-2.5798,1.1328,0.0285,1.1138,0.3853,
6.526742,0.2833,-0.8939,-0.3114,0.5773,-2.5798,1.1328,0.0285,1.1138,0.3853,
6.527583,0.2833,-0.8939,-0.3114,0.0569,-0.9228,2.1782,0.0285,1.1138,0.3853,
6.533010,0.2833,-0.8939,-0.3114,0.0569,-0.9228,2.1782,0.1648,1.0020,0.4146,
6.542888,0.2833,-0.8939,-0.3114,0.0569,-0.9228,2.1782,0.3107,0.8866,0.4904,
6.546930,0.2036,-0.8706,-0.1544,0.0569,-0.9228,2.1782,0.3107,0.8866,0.4904,
6.547973,0.2036,-0.8706,-0.1544,-0.7328,-0.5868,3.5469,0.3107,0.8866,0.4904,
6.552960,0.2036,-0.8706,-0.1544,-0.7328,-0.5868,3.5469,0.4702,0.8108,0.5936,
6.562880,0.2036,-0.8706,-0.1544,-0.7328,-0.5868,3.5469,0.6278,0.7601,0.6993,
6.568032,0.2040,-0.8540,-0.0674,-0.7328,-0.5868,3.5469,0.6278,0.7601,0.6993,
6.569479,0.2040,-0.8540,-0.0674,-0.6898,-0.2744,4.1784,0.6278,0.7601,0.6993,
6.572847,0.2040,-0.8540,-0.0674,-0.6898,-0.2744,4.1784,0.7713,0.7131,0.7970,
6.583202,0.2040,-0.8540,-0.0674,-0.6898,-0.2744,4.1784,0.9088,0.6813,0.8569,
6.587027,0.2735,-0.7249,-0.0192,-0.6898,-0.2744,4.1784,0.9088,0.6813,0.8569,
6.588939,0.2735,-0.7249,-0.0192,0.0604,1.1701,4.3784,0.9088,0.6813,0.8569,
6.592915,0.2735,-0.7249,-0.0192,0.0604,1.1701,4.3784,1.0584,0.6990,0.8807,
6.603354,0.2735,-0.7249,-0.0192,0.0604,1.1701,4.3784,1.2222,0.7626,0.8856,
6.606940,0.3007,-0.5899,0.0322,0.0604,1.1701,4.3784,1.2222,0.7626,0.8856,
6.607654,0.3007,-0.5899,0.0322,0.3896,2.6868,4.5504,1.2222,0.7626,0.8856,
6.612973,0.3007,-0.5899,0.0322,0.3896,2.6868,4.5504,1.4048,0.8426,0.9052,
6.622851,0.3007,-0.5899,0.0322,0.3896,2.6868,4.5504,1.6082,0.8475,0.9198,
6.626989,0.2560,-0.5262,0.0042,0.3896,2.6868,4.5504,1.6082,0.8475,0.9198,
6.627951,0.2560,-0.5262,0.0042,0.0049,3.5154,3.8730,1.6082,0.8475,0.9198,
6.633070,0.2560,-0.5262,0.0042,0.0049,3.5154,3.8730,1.7964,0.7174,0.9479,
6.642851,0.2560,-0.5262,0.0042,0.0049,3.5154,3.8730,1.9601,0.6056,0.9748,
6.647065,0.1404,-0.5267,-0.0435,0.0049,3.5154,3.8730,1.9601,0.6056,0.9748,
6.647970,0.1404,-0.5267,-0.0435,-1.0389,3.7211,2.9553,1.9601,0.6056,0.9748,
6.653040,0.1404,-0.5267,-0.0435,-1.0389,3.7211,2.9553,2.1030,0.4547,1.0145,
6.662916,0.1404,-0.5267,-0.0435,-1.0389,3.7211,2.9553,2.2099,0.2873,1.0909,
6.668142,0.0029,-0.5742,-0.0594,-1.0389,3.7211,2.9553,2.2099,0.2873,1.0909,
6.669746,0.0029,-0.5742,-0.0594,-2.2278,3.4633,2.3224,2.2099,0.2873,1.0909,
6.672898,0.0029,-0.5742,-0.0594,-2.2278,3.4633,2.3224,2.2417,0.1291,1.2039,
6.682913,0.0029,-0.5742,-0.0594,-2.2278,3.4633,2.3224,2.1763,-0.0627,1.3242,
6.687018,0.0330,-0.6216,-0.2040,-2.2278,3.4633,2.3224,2.1763,-0.0627,1.3242,
6.688470,0.0330,-0.6216,-0.2040,-1.7008,3.1779,0.4791,2.1763,-0.0627,1.3242,
6.692904,0.0330,-0.6216,-0.2040,-1.7008,3.1779,0.4791,2.0077,-0.3602,1.4061,
6.703009,0.0330,-0.6216,-0.2040,-1.7008,3.1779,0.4791,1.7463,-0.7896,1.4397,
6.706943,0.1932,-0.6414,-0.3022,-1.7008,3.1779,0.4791,1.7463,-0.7896,1.4397,
6.708139,0.1932,-0.6414,-0.3022,0.1561,3.1224,-0.8093,1.7463,-0.7896,1.4397,
6.712896,0.1932,-0.6414,-0.3022,0.1561,3.1224,-0.8093,1.1427,-1.7389,1.4256,
6.723877,0.1932,-0.6414,-0.3022,0.1561,3.1224,-0.8093,0.9534,-2.0847,1.3737,
6.726766,0.3556,-0.5961,-0.2128,0.1561,3.1224,-0.8093,0.9534,-2.0847,1.3737,
6.727618,0.3556,-0.5961,-0.2128,2.0303,3.6404,-0.0500,0.9534,-2.0847,1.3737,
6.734328,0.3556,-0.5961,-0.2128,2.0303,3.6404,-0.0500,0.8697,-2.2582,1.2961,
6.742917,0.3556,-0.5961,-0.2128,2.0303,3.6404,-0.0500,0.8654,-2.2087,1.2198,
6.746928,0.3858,-0.5581,-0.0711,2.0303,3.6404,-0.0500,0.8654,-2.2087,1.2198,
6.747925,0.3858,-0.5581,-0.0711,2.5500,4.0644,1.2425,0.8654,-2.2087,1.2198,
6.752958,0.3858,-0.5581,-0.0711,2.5500,4.0644,1.2425,0.8966,-1.9478,1.1666,
6.762800,0.3858,-0.5581,-0.0711,2.5500,4.0644,1.2425,0.9100,-1.5673,1.1080,
6.768211,0.3737,-0.5448,0.0346,2.5500,4.0644,1.2425,0.9100,-1.5673,1.1080,
6.769608,0.3737,-0.5448,0.0346,2.5804,4.2411,2.1333,0.9100,-1.5673,1.1080,
6.772780,0.3737,-0.5448,0.0346,2.5804,4.2411,2.1333,0.8483,-1.1720,1.0023,
6.782909,0.3737,-0.5448,0.0346,2.5804,4.2411,2.1333,0.7176,-0.8043,0.8410,
6.786803,0.2680,-0.5738,-0.0362,2.5804,4.2411,2.1333,0.7176,-0.8043,0.8410,
6.787962,0.2680,-0.5738,-0.0362,1.6186,3.9915,1.2951,0.7176,-0.8043,0.8410,
6.792781,0.2680,-0.5738,-0.0362,1.6186,3.9915,1.2951,0.5508,-0.5374,0.6236,
6.803193,0.2680,-0.5738,-0.0362,1.6186,3.9915,1.2951,0.3999,-0.4390,0.4104,
6.806961,0.1319,-0.6364,-0.2411,1.6186,3.9915,1.2951,0.3999,-0.4390,0.4104,
6.808054,0.1319,-0.6364,-0.2411,0.2903,3.3893,-0.7816,0.3999,-0.4390,0.4104,
6.812981,0.1319,-0.6364,-0.2411,0.2903,3.3893,-0.7816,0.3187,-0.5215,0.2796,
6.822915,0.1319,-0.6364,-0.2411,0.2903,3.3893,-0.7816,0.3272,-0.7408,0.2332,
6.826930,0.1405,-0.7196,-0.4593,0.2903,3.3893,-0.7816,0.3272,-0.7408,0.2332,
6.827989,0.1405,-0.7196,-0.4593,0.3595,2.5706,-2.9074,0.3272,-0.7408,0.2332,
6.833327,0.1405,-0.7196,-0.4593,0.3595,2.5706,-2.9074,0.3731,-1.0144,0.2204,
6.842873,0.1405,-0.7196,-0.4593,0.3595,2.5706,-2.9074,0.3706,-1.1782,0.2137,
6.846978,0.2358,-0.6864,-0.5596,0.3595,2.5706,-2.9074,0.3706,-1.1782,0.2137,
6.848027,0.2358,-0.6864,-0.5596,1.2890,2.8864,-3.8350,0.3706,-1.1782,0.2137,
6.853178,0.2358,-0.6864,-0.5596,1.2890,2.8864,-3.8350,0.2582,-1.1116,0.1923,
6.862928,0.2358,-0.6864,-0.5596,1.2890,2.8864,-3.8350,0.0047,-0.8819,0.1196,
6.868230,0.5679,-0.9627,-0.7832,1.2890,2.8864,-3.8350,0.0047,-0.8819,0.1196,
6.869803,0.5679,-0.9627,-0.7832,4.5037,0.1515,-5.8997,0.0047,-0.8819,0.1196,
6.872849,0.5679,-0.9627,-0.7832,4.5037,0.1515,-5.8997,-0.4492,-0.6265,-0.0447,
6.883144,0.5679,-0.9627,-0.7832,4.5037,0.1515,-5.8997,-1.0814,-0.5123,-0.2543,
6.886901,0.4209,-1.5397,-0.3166,4.5037,0.1515,-5.8997,-1.0814,-0.5123,-0.2543,
6.888567,0.4209,-1.5397,-0.3166,2.9727,-5.5597,-1.0963,-1.0814,-0.5123,-0.2543,
6.892917,0.4209,-1.5397,-0.3166,2.9727,-5.5597,-1.0963,-1.8004,-0.0829,-0.3099,
6.902994,0.4209,-1.5397,-0.3166,2.9727,-5.5597,-1.0963,-1.8731,1.4938,-0.3520,
6.907029,-0.0844,-1.6290,-0.3367,2.9727,-5.5597,-1.0963,-1.8731,1.4938,-0.3520,
6.908056,-0.0844,-1.6290,-0.3367,-2.0890,-6.5295,-0.9416,-1.8731,1.4938,-0.3520,
6.912979,-0.0844,-1.6290,-0.3367,-2.0890,-6.5295,-0.9416,-1.9024,2.9965,-0.4216,
6.922861,-0.0844,-1.6290,-0.3367,-2.0890,-6.5295,-0.9416,-1.5426,1.6208,-0.2909,
6.927061,-1.5046,-1.3894,-0.3975,-2.0890,-6.5295,-0.9416,-1.5426,1.6208,-0.2909,
6.928266,-1.5046,-1.3894,-0.3975,-16.0561,-4.2622,-1.2570,-1.5426,1.6208,-0.2909,
6.932898,-1.5046,-1.3894,-0.3975,-16.0561,-4.2622,-1.2570,-0.4315,-3.0498,0.1214,
6.943538,-1.5046,-1.3894,-0.3975,-16.0561,-4.2622,-1.2570,0.1666,-6.0468,0.5057,
6.946866,-0.5284,-1.6905,0.3729,-16.0561,-4.2622,-1.2570,0.1666,-6.0468,0.5057,
6.948087,-0.5284,-1.6905,0.3729,-6.0525,-7.1841,6.3704,0.1666,-6.0468,0.5057,
6.959183,-0.5284,-1.6905,0.3729,-6.0525,-7.1841,6.3704,0.0609,-4.1769,0.5997,
6.962849,-0.5284,-1.6905,0.3729,-6.0525,-7.1841,6.3704,-0.8444,0.9733,0.5331,
6.966978,0.4198,-1.5223,0.1924,-6.0525,-7.1841,6.3704,-0.8444,0.9733,0.5331,
6.968089,0.4198,-1.5223,0.1924,3.4945,-5.5192,4.6136,-0.8444,0.9733,0.5331,
6.972984,0.4198,-1.5223,0.1924,3.4945,-5.5192,4.6136,-0.9330,1.8719,0.4812,
6.983168,0.4198,-1.5223,0.1924,3.4945,-5.5192,4.6136,-0.1859,0.6013,0.3566,
6.986808,0.1024,-1.2949,0.2873,3.4945,-5.5192,4.6136,-0.1859,0.6013,0.3566,
6.988522,0.1024,-1.2949,0.2873,0.4340,-3.2809,5.5187,-0.1859,0.6013,0.3566,
6.992866,0.1024,-1.2949,0.2873,0.4340,-3.2809,5.5187,0.6339,0.1199,0.3535,
7.002927,0.1024,-1.2949,0.2873,0.4340,-3.2809,5.5187,0.7683,0.7595,0.2717,
7.006766,0.0125,-1.8419,-0.7609,0.4340,-3.2809,5.5187,0.7683,0.7595,0.2717,
7.007673,0.0125,-1.8419,-0.7609,-0.4111,-8.6011,-4.8907,0.7683,0.7595,0.2717,
7.012941,0.0125,-1.8419,-0.7609,-0.4111,-8.6011,-4.8907,0.2808,1.5713,0.1452,
7.022914,0.0125,-1.8419,-0.7609,-0.4111,-8.6011,-4.8907,0.0407,0.6471,0.1856,
7.026846,-0.0399,-1.1727,-0.4192,-0.4111,-8.6011,-4.8907,0.0407,0.6471,0.1856,
7.027842,-0.0399,-1.1727,-0.4192,-0.9331,-2.0272,-1.6002,0.0407,0.6471,0.1856,
7.033161,-0.0399,-1.1727,-0.4192,-0.9331,-2.0272,-1.6002,0.1513,-0.7933,0.3163,
7.042906,-0.0399,-1.1727,-0.4192,-0.9331,-2.0272,-1.6002,0.2271,-1.2728,0.3474,
7.046846,0.0470,-1.0230,0.0754,-0.9331,-2.0272,-1.6002,0.2271,-1.2728,0.3474,
7.047929,0.0470,-1.0230,0.0754,0.0517,-0.5366,3.1799,0.2271,-1.2728,0.3474,
7.052959,0.0470,-1.0230,0.0754,0.0517,-0.5366,3.1799,0.3315,-1.4286,0.3664,
7.062978,0.0470,-1.0230,0.0754,0.0517,-0.5366,3.1799,0.5685,-1.3516,0.4049,
7.066987,-0.0145,-1.0241,0.0606,0.0517,-0.5366,3.1799,0.5685,-1.3516,0.4049,
7.068091,-0.0145,-1.0241,0.0606,-0.3965,-0.5086,2.9012,0.5685,-1.3516,0.4049,
7.072900,-0.0145,-1.0241,0.0606,-0.3965,-0.5086,2.9012,0.8538,-0.6699,0.3725,
7.083019,-0.0145,-1.0241,0.0606,-0.3965,-0.5086,2.9012,1.2826,-0.4469,0.3743,
7.086936,-0.1909,-1.1519,-0.0782,-0.3965,-0.5086,2.9012,1.2826,-0.4469,0.3743,
7.089188,-0.1909,-1.1519,-0.0782,-2.0047,-1.7015,1.2925,1.2826,-0.4469,0.3743,
7.092845,-0.1909,-1.1519,-0.0782,-2.0047,-1.7015,1.2925,1.4347,-0.3559,0.4140,
7.103003,-0.1909,-1.1519,-0.0782,-2.0047,-1.7015,1.2925,1.4445,-0.3376,0.4684,
7.107084,-0.1684,-1.0804,-0.2452,-2.0047,-1.7015,1.2925,1.4445,-0.3376,0.4684,
7.108146,-0.1684,-1.0804,-0.2452,-1.6657,-0.9421,-0.6362,1.4445,-0.3376,0.4684,
7.113224,-0.1684,-1.0804,-0.2452,-1.6657,-0.9421,-0.6362,1.4341,-0.2851,0.4788,
7.122864,-0.1684,-1.0804,-0.2452,-1.6657,-0.9421,-0.6362,1.3853,-0.3944,0.5380,
7.127058,-0.1605,-0.8343,-0.2261,-1.6657,-0.9421,-0.6362,1.3853,-0.3944,0.5380,
7.128030,-0.1605,-0.8343,-0.2261,-1.4579,1.5155,-0.7233,1.3853,-0.3944,0.5380,
7.133048,-0.1605,-0.8343,-0.2261,-1.4579,1.5155,-0.7233,1.2991,-0.6724,0.5307,
7.143325,-0.1605,-0.8343,-0.2261,-1.4579,1.5155,-0.7233,1.2961,-0.7609,0.4592,
7.148464,-0.0337,-0.7304,-0.0525,-1.4579,1.5155,-0.7233,1.2961,-0.7609,0.4592,
7.149585,-0.0337,-0.7304,-0.0525,-0.0877,2.5677,0.7236,1.2961,-0.7609,0.4592,
7.152958,-0.0337,-0.7304,-0.0525,-0.0877,2.5677,0.7236,1.3052,-0.6650,0.3658,
7.162894,-0.0337,-0.7304,-0.0525,-0.0877,2.5677,0.7236,1.2399,-0.5312,0.2613,
7.167010,0.0469,-0.7966,-0.2044,-0.0877,2.5677,0.7236,1.2399,-0.5312,0.2613,
7.168208,0.0469,-0.7966,-0.2044,0.7806,1.9442,-1.0049,1.2399,-0.5312,0.2613,
7.173183,0.0469,-0.7966,-0.2044,0.7806,1.9442,-1.0049,1.1146,-0.4964,0.1770,
7.182989,0.0469,-0.7966,-0.2044,0.7806,1.9442,-1.0049,0.9931,-0.6443,0.1159,
7.189498,0.0137,-0.7577,-0.2514,0.7806,1.9442,-1.0049,0.9931,-0.6443,0.1159,
7.190753,0.0137,-0.7577,-0.2514,0.4941,2.3400,-1.6424,0.9931,-0.6443,0.1159,
7.192875,0.0137,-0.7577,-0.2514,0.4941,2.3400,-1.6424,0.8984,-0.9069,0.0658,
7.202879,0.0137,-0.7577,-0.2514,0.4941,2.3400,-1.6424,0.8019,-1.1384,0.0249,
7.207526,0.0236,-0.7227,-0.2161,0.4941,2.3400,-1.6424,0.8019,-1.1384,0.0249,
7.208578,0.0236,-0.7227,-0.2161,0.6087,2.6921,-1.4151,0.8019,-1.1384,0.0249,
7.212831,0.0236,-0.7227,-0.2161,0.6087,2.6921,-1.4151,0.7005,-1.2765,-0.0215,
7.222802,0.0236,-0.7227,-0.2161,0.6087,2.6921,-1.4151,0.6052,-1.3229,-0.0851,
7.226705,0.0410,-0.7075,-0.2417,0.6087,2.6921,-1.4151,0.6052,-1.3229,-0.0851,
7.227667,0.0410,-0.7075,-0.2417,0.7717,2.8452,-1.7297,0.6052,-1.3229,-0.0851,
7.232792,0.0410,-0.7075,-0.2417,0.7717,2.8452,-1.7297,0.4891,-1.2967,-0.1687,
7.242809,0.0410,-0.7075,-0.2417,0.7717,2.8452,-1.7297,0.2875,-1.3162,-0.2683,
7.246838,-0.0559,-0.6082,-0.0616,0.7717,2.8452,-1.7297,0.2875,-1.3162,-0.2683,
7.247795,-0.0559,-0.6082,-0.0616,-0.2106,3.8214,0.0084,0.2875,-1.3162,-0.2683,
7.254134,-0.0559,-0.6082,-0.0616,-0.2106,3.8214,0.0084,0.0688,-1.3040,-0.3661,
7.262824,-0.0559,-0.6082,-0.0616,-0.2106,3.8214,0.0084,-0.2012,-1.0505,-0.4717,
7.266809,-0.1088,-0.6183,-0.0862,-0.2106,3.8214,0.0084,-0.2012,-1.0505,-0.4717,
7.268028,-0.1088,-0.6183,-0.0862,-0.7868,3.7207,-0.1852,-0.2012,-1.0505,-0.4717,
7.273190,-0.1088,-0.6183,-0.0862,-0.7868,3.7207,-0.1852,-0.3582,-0.8666,-0.5243,
7.282850,-0.1088,-0.6183,-0.0862,-0.7868,3.7207,-0.1852,-0.4999,-0.6803,-0.5921,
7.287347,-0.0658,-0.6480,-0.0745,-0.7868,3.7207,-0.1852,-0.4999,-0.6803,-0.5921,
7.288671,-0.0658,-0.6480,-0.0745,-0.4505,3.4240,0.0370,-0.4999,-0.6803,-0.5921,
7.292856,-0.0658,-0.6480,-0.0745,-0.4505,3.4240,0.0370,-0.6056,-0.5154,-0.6916,
7.304370,-0.0658,-0.6480,-0.0745,-0.4505,3.4240,0.0370,-0.7204,-0.3535,-0.8028,
7.306787,-0.0281,-0.5813,-0.1743,-0.4505,3.4240,0.0370,-0.7204,-0.3535,-0.8028,
7.307847,-0.0281,-0.5813,-0.1743,-0.2029,4.0652,-0.7787,-0.7204,-0.3535,-0.8028,
7.312781,-0.0281,-0.5813,-0.1743,-0.2029,4.0652,-0.7787,-0.8426,-0.1482,-0.9311,
7.322803,-0.0281,-0.5813,-0.1743,-0.2029,4.0652,-0.7787,-1.0032,0.1071,-1.1113,
7.326721,0.0955,-0.6576,-0.3713,-0.2029,4.0652,-0.7787,-1.0032,0.1071,-1.1113,
7.327784,0.0955,-0.6576,-0.3713,0.8183,3.2907,-2.4595,-1.0032,0.1071,-1.1113,
7.332824,0.0955,-0.6576,-0.3713,0.8183,3.2907,-2.4595,-1.1449,0.3612,-1.2836,
7.342778,0.0955,-0.6576,-0.3713,0.8183,3.2907,-2.4595,-1.1547,0.4571,-1.3807,
7.346720,0.0169,-0.8172,-0.3483,0.8183,3.2907,-2.4595,-1.1547,0.4571,-1.3807,
7.347632,0.0169,-0.8172,-0.3483,-0.2072,1.6795,-1.9393,-1.1547,0.4571,-1.3807,
7.352929,0.0169,-0.8172,-0.3483,-0.2072,1.6795,-1.9393,-1.1052,0.3887,-1.4204,
7.362888,0.0169,-0.8172,-0.3483,-0.2072,1.6795,-1.9393,-1.1394,0.4235,-1.4143,
7.367514,-0.1654,-0.8626,-0.4281,-0.2072,1.6795,-1.9393,-1.1394,0.4235,-1.4143,
7.368645,-0.1654,-0.8626,-0.4281,-2.2326,1.1733,-2.4317,-1.1394,0.4235,-1.4143,
7.372827,-0.1654,-0.8626,-0.4281,-2.2326,1.1733,-2.4317,-1.3630,0.5017,-1.4228,
7.382914,-0.1654,-0.8626,-0.4281,-2.2326,1.1733,-2.4317,-1.5909,0.6520,-1.4345,
7.387145,-0.0895,-0.7773,-0.4073,-2.2326,1.1733,-2.4317,-1.5909,0.6520,-1.4345,
7.388464,-0.0895,-0.7773,-0.4073,-1.7229,1.9214,-1.8763,-1.5909,0.6520,-1.4345,
7.392908,-0.0895,-0.7773,-0.4073,-1.7229,1.9214,-1.8763,-1.6556,0.7650,-1.4338,
7.402880,-0.0895,-0.7773,-0.4073,-1.7229,1.9214,-1.8763,-1.8279,0.8866,-1.4858,
7.406788,0.1909,-0.6726,-0.3906,-1.7229,1.9214,-1.8763,-1.8279,0.8866,-1.4858,
7.407708,0.1909,-0.6726,-0.3906,0.7521,2.8254,-1.3291,-1.8279,0.8866,-1.4858,
7.412837,0.1909,-0.6726,-0.3906,0.7521,2.8254,-1.3291,-2.1877,1.2989,-1.6269,
7.422801,0.1909,-0.6726,-0.3906,0.7521,2.8254,-1.3291,-2.3838,1.7051,-1.8303,
7.426713,0.0594,-0.6949,-0.2797,0.7521,2.8254,-1.3291,-2.3838,1.7051,-1.8303,
7.427621,0.0594,-0.6949,-0.2797,-0.8928,2.4306,0.1915,-2.3838,1.7051,-1.8303,
7.432800,0.0594,-0.6949,-0.2797,-0.8928,2.4306,0.1915,-2.4247,1.7516,-2.0520,
7.442827,0.0594,-0.6949,-0.2797,-0.8928,2.4306,0.1915,-2.6440,1.1651,-2.0606,
7.446892,-0.1147,-1.0604,0.0596,-0.8928,2.4306,0.1915,-2.6440,1.1651,-2.0606,
7.447645,-0.1147,-1.0604,0.0596,-2.9834,-1.3533,3.9030,-2.6440,1.1651,-2.0606,
7.452915,-0.1147,-1.0604,0.0596,-2.9834,-1.3533,3.9030,-2.6526,1.4076,-1.8474,
7.462804,-0.1147,-1.0604,0.0596,-2.9834,-1.3533,3.9030,-2.7106,1.8713,-1.6605,
7.466823,0.1815,-1.3599,-0.0898,-2.9834,-1.3533,3.9030,-2.7106,1.8713,-1.6605,
7.467998,0.1815,-1.3599,-0.0898,-0.4360,-4.5019,2.7775,-2.7106,1.8713,-1.6605,
7.472832,0.1815,-1.3599,-0.0898,-0.4360,-4.5019,2.7775,-2.8279,2.1999,-1.5401,
7.482878,0.1815,-1.3599,-0.0898,-0.4360,-4.5019,2.7775,-2.8816,2.1840,-1.4247,
7.487128,0.2603,-1.6128,-0.4710,-0.4360,-4.5019,2.7775,-2.8816,2.1840,-1.4247,
7.488260,0.2603,-1.6128,-0.4710,-0.0213,-7.2187,-0.6382,-2.8816,2.1840,-1.4247,
7.492798,0.2603,-1.6128,-0.4710,-0.0213,-7.2187,-0.6382,-2.8456,1.8194,-1.3031,
7.502942,0.2603,-1.6128,-0.4710,-0.0213,-7.2187,-0.6382,-2.7686,1.1969,-1.1565,
7.506758,0.2563,-1.7601,-0.6907,-0.0213,-7.2187,-0.6382,-2.7686,1.1969,-1.1565,
7.507761,0.2563,-1.7601,-0.6907,-0.3216,-8.9075,-2.4599,-2.7686,1.1969,-1.1565,
7.512875,0.2563,-1.7601,-0.6907,-0.3216,-8.9075,-2.4599,-2.7100,0.4510,-0.9238,
7.522757,0.2563,-1.7601,-0.6907,-0.3216,-8.9075,-2.4599,-2.6629,0.0448,-0.6287,
7.526942,0.1451,-1.6972,-0.2919,-0.3216,-8.9075,-2.4599,-2.6629,0.0448,-0.6287,
7.527815,0.1451,-1.6972,-0.2919,-1.5357,-8.5535,1.8454,-2.6629,0.0448,-0.6287,
7.532796,0.1451,-1.6972,-0.2919,-1.5357,-8.5535,1.8454,-2.5066,0.1560,-0.2787,
7.542787,0.1451,-1.6972,-0.2919,-1.5357,-8.5535,1.8454,-2.1663,0.5378,0.1397,
7.546823,0.1450,-1.5349,-0.1443,-1.5357,-8.5535,1.8454,-2.1663,0.5378,0.1397,
7.547696,0.1450,-1.5349,-0.1443,-1.5718,-7.1808,3.6282,-2.1663,0.5378,0.1397,
7.552890,0.1450,-1.5349,-0.1443,-1.5718,-7.1808,3.6282,-1.6654,1.0228,0.5142,
7.563020,0.1450,-1.5349,-0.1443,-1.5718,-7.1808,3.6282,-1.1449,1.4144,0.7860,
7.566983,0.4622,-1.2031,-0.7076,-1.5718,-7.1808,3.6282,-1.1449,1.4144,0.7860,
7.568453,0.4622,-1.2031,-0.7076,1.5350,-4.0021,-1.7825,-1.1449,1.4144,0.7860,
7.572946,0.4622,-1.2031,-0.7076,1.5350,-4.0021,-1.7825,-0.7283,1.6104,0.9430,
7.582918,0.4622,-1.2031,-0.7076,1.5350,-4.0021,-1.7825,-0.4699,1.5365,1.0041,
7.588211,0.5221,-1.0316,-0.6871,1.5350,-4.0021,-1.7825,-0.4699,1.5365,1.0041,
7.590019,0.5221,-1.0316,-0.6871,2.1392,-2.2743,-1.6430,-0.4699,1.5365,1.0041,
7.592911,0.5221,-1.0316,-0.6871,2.1392,-2.2743,-1.6430,-0.3203,1.2470,1.0267,
7.602963,0.5221,-1.0316,-0.6871,2.1392,-2.2743,-1.6430,-0.1608,1.0411,1.0231,
7.606818,0.4385,-0.8465,-0.4189,2.1392,-2.2743,-1.6430,-0.1608,1.0411,1.0231,
7.607929,0.4385,-0.8465,-0.4189,1.3764,-0.3830,0.8974,-0.1608,1.0411,1.0231,
7.612908,0.4385,-0.8465,-0.4189,1.3764,-0.3830,0.8974,0.0426,0.9690,0.9992,
7.622982,0.4385,-0.8465,-0.4189,1.3764,-0.3830,0.8974,0.2570,0.8951,0.9974,
7.626915,0.3898,-0.7874,-0.2444,1.3764,-0.3830,0.8974,0.2570,0.8951,0.9974,
7.628135,0.3898,-0.7874,-0.2444,0.9595,0.3040,2.4687,0.2570,0.8951,0.9974,
7.632957,0.3898,-0.7874,-0.2444,0.9595,0.3040,2.4687,0.7310,0.6483,1.0041,
7.642901,0.3898,-0.7874,-0.2444,0.9595,0.3040,2.4687,0.9320,0.4248,0.9754,
7.646943,0.3790,-0.7868,-0.2518,0.9595,0.3040,2.4687,0.9320,0.4248,0.9754,
7.647919,0.3790,-0.7868,-0.2518,0.9438,0.4704,2.1767,0.9320,0.4248,0.9754,
7.652998,0.3790,-0.7868,-0.2518,0.9438,0.4704,2.1767,1.0652,0.2610,0.9595,
7.662842,0.3790,-0.7868,-0.2518,0.9438,0.4704,2.1767,1.1715,0.2067,0.9546,
7.666854,0.2853,-0.7361,-0.1829,0.9438,0.4704,2.1767,1.1715,0.2067,0.9546,
7.668253,0.2853,-0.7361,-0.1829,0.1368,1.1408,2.6010,1.1715,0.2067,0.9546,
7.672939,0.2853,-0.7361,-0.1829,0.1368,1.1408,2.6010,1.3168,0.1664,0.9388,
7.682840,0.2853,-0.7361,-0.1829,0.1368,1.1408,2.6010,1.5019,0.1047,0.9430,
7.686960,0.2940,-0.6534,-0.1395,0.1368,1.1408,2.6010,1.5019,0.1047,0.9430,
7.688486,0.2940,-0.6534,-0.1395,0.3323,2.1346,2.7289,1.5019,0.1047,0.9430,
7.692902,0.2940,-0.6534,-0.1395,0.3323,2.1346,2.7289,1.6931,0.1157,0.9834,
7.703026,0.2940,-0.6534,-0.1395,0.3323,2.1346,2.7289,1.8929,0.2604,0.9876,
7.706885,0.3402,-0.5010,-0.1285,0.3323,2.1346,2.7289,1.8929,0.2604,0.9876,
7.707954,0.3402,-0.5010,-0.1285,0.8815,3.8210,2.4740,1.8929,0.2604,0.9876,
7.712916,0.3402,-0.5010,-0.1285,0.8815,3.8210,2.4740,2.0908,0.4290,0.9565,
7.722910,0.3402,-0.5010,-0.1285,0.8815,3.8210,2.4740,2.2643,0.5317,0.9113,
7.726961,0.2817,-0.4595,-0.1612,0.8815,3.8210,2.4740,2.2643,0.5317,0.9113,
7.727927,0.2817,-0.4595,-0.1612,0.3682,4.4152,1.7220,2.2643,0.5317,0.9113,
7.732926,0.2817,-0.4595,-0.1612,0.3682,4.4152,1.7220,2.3785,0.5469,0.8716,
7.742897,0.2817,-0.4595,-0.1612,0.3682,4.4152,1.7220,2.4286,0.4950,0.8575,
7.746985,0.1081,-0.5336,-0.1899,0.3682,4.4152,1.7220,2.4286,0.4950,0.8575,
7.748044,0.1081,-0.5336,-0.1899,-1.2529,3.8669,0.9826,2.4286,0.4950,0.8575,
7.753011,0.1081,-0.5336,-0.1899,-1.2529,3.8669,0.9826,2.4103,0.3686,0.8819,
7.762885,0.1081,-0.5336,-0.1899,-1.2529,3.8669,0.9826,2.3193,0.1627,0.9192,
7.766859,0.1410,-0.6060,-0.3038,-1.2529,3.8669,0.9826,2.3193,0.1627,0.9192,
7.767994,0.1410,-0.6060,-0.3038,-0.8147,3.3055,-0.5501,2.3193,0.1627,0.9192,
