
time,gFx,gFy,gFz,ax,ay,az,wx,wy,wz,
0.070325,0.0898,0.4933,0.9683,0.0000,0.0000,0.0000,0.0000,0.0000,0.0000,
0.070767,0.1827,0.4584,0.9179,0.0000,0.0000,0.0000,0.0000,0.0000,0.0000,
0.071140,-0.0634,0.3257,0.8718,0.0000,0.0000,0.0000,0.0000,0.0000,0.0000,
0.097116,-0.1339,0.3287,0.9230,0.0000,0.0000,0.0000,0.0000,0.0000,0.0000,
0.098359,-0.1452,0.2421,0.9563,0.0000,0.0000,0.0000,0.0000,0.0000,0.0000,
0.099233,-0.1452,0.2421,0.9563,0.0050,-0.0084,-0.0332,0.0000,0.0000,0.0000,
0.116964,-0.1581,0.1661,0.9959,0.0050,-0.0084,-0.0332,0.0000,0.0000,0.0000,
0.118193,-0.1581,0.1661,0.9959,-0.0323,0.0339,0.2034,0.0000,0.0000,0.0000,
0.135414,-0.1581,0.1661,0.9959,-0.0323,0.0339,0.2034,-0.1627,1.1700,-1.3111,
0.137097,-0.1291,0.1143,0.8979,-0.0323,0.0339,0.2034,-0.1627,1.1700,-1.3111,
0.138448,-0.1291,0.1143,0.8979,0.1195,-0.1058,-0.8307,-0.1627,1.1700,-1.3111,
0.144819,-0.1291,0.1143,0.8979,0.1195,-0.1058,-0.8307,-0.0930,1.1651,-1.4601,
0.154953,-0.1291,0.1143,0.8979,0.1195,-0.1058,-0.8307,-0.0814,1.0784,-1.6079,
0.156902,-0.1487,0.1049,0.6931,0.1195,-0.1058,-0.8307,-0.0814,1.0784,-1.6079,
0.158115,-0.1487,0.1049,0.6931,0.5776,-0.4077,-2.6929,-0.0814,1.0784,-1.6079,
0.164848,-0.1487,0.1049,0.6931,0.5776,-0.4077,-2.6929,-0.2005,0.9440,-1.7527,
0.174786,-0.1487,0.1049,0.6931,0.5776,-0.4077,-2.6929,-0.3105,1.0442,-1.8175,
0.176937,-0.2328,0.0989,0.6331,0.5776,-0.4077,-2.6929,-0.3105,1.0442,-1.8175,
0.178176,-0.2328,0.0989,0.6331,1.0672,-0.4535,-2.9020,-0.3105,1.0442,-1.8175,
0.186031,-0.2328,0.0989,0.6331,1.0672,-0.4535,-2.9020,-0.4272,1.2048,-1.8450,
0.194749,-0.2328,0.0989,0.6331,1.0672,-0.4535,-2.9020,-0.5145,1.4156,-1.8621,
0.196941,-0.2851,0.0316,0.7058,1.0672,-0.4535,-2.9020,-0.5145,1.4156,-1.8621,
0.197969,-0.2851,0.0316,0.7058,0.8758,-0.0972,-2.1681,-0.5145,1.4156,-1.8621,
0.205036,-0.2851,0.0316,0.7058,0.8758,-0.0972,-2.1681,-0.5341,1.6080,-1.8798,
0.214782,-0.2851,0.0316,0.7058,0.8758,-0.0972,-2.1681,-0.5103,1.7137,-1.9103,
0.216874,-0.2983,0.0125,0.7520,0.8758,-0.0972,-2.1681,-0.5103,1.7137,-1.9103,
0.218377,-0.2983,0.0125,0.7520,0.6923,-0.0289,-1.7452,-0.5103,1.7137,-1.9103,
0.224753,-0.2983,0.0125,0.7520,0.6923,-0.0289,-1.7452,-0.5023,1.7387,-1.9348,
0.236677,-0.2983,0.0125,0.7520,0.6923,-0.0289,-1.7452,-0.5512,1.7100,-1.9396,
0.238210,-0.3392,0.0156,0.7223,0.6923,-0.0289,-1.7452,-0.5512,1.7100,-1.9396,
0.239560,-0.3392,0.0156,0.7223,0.8436,-0.0389,-1.7963,-0.5512,1.7100,-1.9396,
0.244863,-0.3392,0.0156,0.7223,0.8436,-0.0389,-1.7963,-0.6428,1.6367,-1.9445,
0.254948,-0.3392,0.0156,0.7223,0.8436,-0.0389,-1.7963,-0.7418,1.5506,-1.9610,
0.256866,-0.4328,0.0588,0.7361,0.8436,-0.0389,-1.7963,-0.7418,1.5506,-1.9610,
0.257962,-0.4328,0.0588,0.7361,0.7173,-0.0974,-1.2201,-0.7418,1.5506,-1.9610,
0.264850,-0.4328,0.0588,0.7361,0.7173,-0.0974,-1.2201,-0.8566,1.4327,-1.9506,
0.274796,-0.4328,0.0588,0.7361,0.7173,-0.0974,-1.2201,-1.0130,1.3087,-1.9170,
0.277519,-0.4432,0.0794,0.7774,0.7173,-0.0974,-1.2201,-1.0130,1.3087,-1.9170,
0.279135,-0.4432,0.0794,0.7774,0.4947,-0.0886,-0.8678,-1.0130,1.3087,-1.9170,
0.286416,-0.4432,0.0794,0.7774,0.4947,-0.0886,-0.8678,-1.2103,1.2604,-1.8920,
0.294740,-0.4432,0.0794,0.7774,0.4947,-0.0886,-0.8678,-1.4021,1.2482,-1.8272,
0.296941,-0.5257,0.0900,0.9148,0.4947,-0.0886,-0.8678,-1.4021,1.2482,-1.8272,
0.298153,-0.5257,0.0900,0.9148,-0.2835,0.0486,0.4934,-1.4021,1.2482,-1.8272,
0.304871,-0.5257,0.0900,0.9148,-0.2835,0.0486,0.4934,-1.6416,1.1627,-1.7637,
0.314872,-0.5257,0.0900,0.9148,-0.2835,0.0486,0.4934,-1.6233,1.1663,-1.7124,
0.316898,-0.5250,0.0441,1.0863,-0.2835,0.0486,0.4934,-1.6233,1.1663,-1.7124,
0.318312,-0.5250,0.0441,1.0863,-0.8807,0.0740,1.8222,-1.6233,1.1663,-1.7124,
0.324801,-0.5250,0.0441,1.0863,-0.8807,0.0740,1.8222,-1.4950,1.1608,-1.6947,
0.336136,-0.5250,0.0441,1.0863,-0.8807,0.0740,1.8222,-1.3019,1.1780,-1.6880,
0.337510,-0.5213,0.0149,1.0868,-0.8807,0.0740,1.8222,-1.3019,1.1780,-1.6880,
0.339163,-0.5213,0.0149,1.0868,-0.8680,0.0248,1.8094,-1.3019,1.1780,-1.6880,
0.344767,-0.5213,0.0149,1.0868,-0.8680,0.0248,1.8094,-1.1101,1.1792,-1.6495,
0.354813,-0.5213,0.0149,1.0868,-0.8680,0.0248,1.8094,-1.0161,1.1810,-1.5316,
0.356948,-0.6513,0.0552,0.9467,-0.8680,0.0248,1.8094,-1.0161,1.1810,-1.5316,
0.358238,-0.6513,0.0552,0.9467,-0.8309,0.0704,1.2076,-1.0161,1.1810,-1.5316,
0.364757,-0.6513,0.0552,0.9467,-0.8309,0.0704,1.2076,-1.0405,1.2073,-1.3129,
0.374773,-0.6513,0.0552,0.9467,-0.8309,0.0704,1.2076,-1.0851,1.2531,-1.0765,
0.376796,-0.6456,0.0153,0.9522,-0.8309,0.0704,1.2076,-1.0851,1.2531,-1.0765,
0.377927,-0.6456,0.0153,0.9522,-0.8239,0.0195,1.2152,-1.0851,1.2531,-1.0765,
0.386280,-0.6456,0.0153,0.9522,-0.8239,0.0195,1.2152,-1.0576,1.3655,-0.9128,
0.394807,-0.6456,0.0153,0.9522,-0.8239,0.0195,1.2152,-0.9403,1.5762,-0.8321,
0.396922,-0.5030,-0.0811,1.0294,-0.8239,0.0195,1.2152,-0.9403,1.5762,-0.8321,
0.398048,-0.5030,-0.0811,1.0294,-0.6348,-0.1024,1.2991,-0.9403,1.5762,-0.8321,
0.404915,-0.5030,-0.0811,1.0294,-0.6348,-0.1024,1.2991,-0.7540,1.8554,-0.8181,
0.414866,-0.5030,-0.0811,1.0294,-0.6348,-0.1024,1.2991,-0.5066,2.1584,-0.8566,
0.416884,-0.4358,-0.1598,1.0674,-0.6348,-0.1024,1.2991,-0.5066,2.1584,-0.8566,
0.418469,-0.4358,-0.1598,1.0674,-0.5991,-0.2196,1.4673,-0.5066,2.1584,-0.8566,
0.424778,-0.4358,-0.1598,1.0674,-0.5991,-0.2196,1.4673,-0.2207,2.3533,-0.9079,
0.436649,-0.4358,-0.1598,1.0674,-0.5991,-0.2196,1.4673,-0.0240,2.3184,-0.8871,
0.438044,-0.5979,-0.1577,0.8659,-0.5991,-0.2196,1.4673,-0.0240,2.3184,-0.8871,
0.439285,-0.5979,-0.1577,0.8659,-0.3491,-0.0921,0.5056,-0.0240,2.3184,-0.8871,
0.444766,-0.5979,-0.1577,0.8659,-0.3491,-0.0921,0.5056,-0.0759,2.1138,-0.7802,
0.454820,-0.5979,-0.1577,0.8659,-0.3491,-0.0921,0.5056,-0.3960,1.8420,-0.6373,
0.456907,-0.6881,-0.1460,0.7439,-0.3491,-0.0921,0.5056,-0.3960,1.8420,-0.6373,
0.458206,-0.6881,-0.1460,0.7439,-0.1523,-0.0323,0.1647,-0.3960,1.8420,-0.6373,
0.464844,-0.6881,-0.1460,0.7439,-0.1523,-0.0323,0.1647,-0.7992,1.5976,-0.4846,
0.474862,-0.6881,-0.1460,0.7439,-0.1523,-0.0323,0.1647,-1.0820,1.4376,-0.3361,
0.477192,-0.6242,-0.2174,1.0230,-0.1523,-0.0323,0.1647,-1.0820,1.4376,-0.3361,
0.478331,-0.6242,-0.2174,1.0230,-1.0914,-0.3802,1.7888,-1.0820,1.4376,-0.3361,
0.486439,-0.6242,-0.2174,1.0230,-1.0914,-0.3802,1.7888,-1.1010,1.5066,-0.1590,
0.494792,-0.6242,-0.2174,1.0230,-1.0914,-0.3802,1.7888,-0.9501,1.6221,-0.2029,
0.496847,-0.5461,-0.2762,1.0990,-1.0914,-0.3802,1.7888,-0.9501,1.6221,-0.2029,
0.498007,-0.5461,-0.2762,1.0990,-1.0945,-0.5535,2.2026,-0.9501,1.6221,-0.2029,
0.504944,-0.5461,-0.2762,1.0990,-1.0945,-0.5535,2.2026,-0.7955,1.6660,-0.3056,
0.514785,-0.5461,-0.2762,1.0990,-1.0945,-0.5535,2.2026,-0.7155,1.5591,-0.3856,
0.516900,-0.6586,-0.2427,1.0046,-1.0945,-0.5535,2.2026,-0.7155,1.5591,-0.3856,
0.518142,-0.6586,-0.2427,1.0046,-1.1843,-0.4364,1.8063,-0.7155,1.5591,-0.3856,
0.524774,-0.6586,-0.2427,1.0046,-1.1843,-0.4364,1.8063,-0.7601,1.3294,-0.4241,
0.534896,-0.6586,-0.2427,1.0046,-1.1843,-0.4364,1.8063,-0.8719,1.0356,-0.4192,
0.538503,-0.8065,-0.1886,0.9904,-1.1843,-0.4364,1.8063,-0.8719,1.0356,-0.4192,
0.539892,-0.8065,-0.1886,0.9904,-1.7776,-0.4157,2.1831,-0.8719,1.0356,-0.4192,
0.544793,-0.8065,-0.1886,0.9904,-1.7776,-0.4157,2.1831,-0.9739,0.6746,-0.3355,
0.554819,-0.8065,-0.1886,0.9904,-1.7776,-0.4157,2.1831,-1.0551,0.2745,-0.1681,
0.556950,-0.9047,-0.1577,1.0140,-1.7776,-0.4157,2.1831,-1.0551,0.2745,-0.1681,
0.558106,-0.9047,-0.1577,1.0140,-2.3806,-0.4150,2.6683,-1.0551,0.2745,-0.1681,
0.564766,-0.9047,-0.1577,1.0140,-2.3806,-0.4150,2.6683,-1.1327,-0.1525,0.0420,
0.574739,-0.9047,-0.1577,1.0140,-2.3806,-0.4150,2.6683,-1.2134,-0.5661,0.2118,
0.577046,-0.7530,-0.1601,0.9747,-2.3806,-0.4150,2.6683,-1.2134,-0.5661,0.2118,
0.578422,-0.7530,-0.1601,0.9747,-1.4337,-0.3049,1.8558,-1.2134,-0.5661,0.2118,
0.584936,-0.7530,-0.1601,0.9747,-1.4337,-0.3049,1.8558,-1.2671,-0.9069,0.2900,
0.594834,-0.7530,-0.1601,0.9747,-1.4337,-0.3049,1.8558,-1.2500,-1.1244,0.2723,
0.596925,-0.5640,-0.1787,0.9973,-1.4337,-0.3049,1.8558,-1.2500,-1.1244,0.2723,
0.598637,-0.5640,-0.1787,0.9973,-0.7572,-0.2399,1.3390,-1.2500,-1.1244,0.2723,
0.604862,-0.5640,-0.1787,0.9973,-0.7572,-0.2399,1.3390,-1.1474,-1.1873,0.1837,
0.614742,-0.5640,-0.1787,0.9973,-0.7572,-0.2399,1.3390,-0.9849,-1.1299,0.0524,
0.616871,-0.4819,-0.1604,0.9720,-0.7572,-0.2399,1.3390,-0.9849,-1.1299,0.0524,
0.618346,-0.4819,-0.1604,0.9720,-0.4134,-0.1376,0.8337,-0.9849,-1.1299,0.0524,
0.624754,-0.4819,-0.1604,0.9720,-0.4134,-0.1376,0.8337,-0.8084,-1.0175,-0.0777,
0.634890,-0.4819,-0.1604,0.9720,-0.4134,-0.1376,0.8337,-0.6666,-0.8629,-0.1761,
0.638328,-0.5986,-0.1167,0.8549,-0.4134,-0.1376,0.8337,-0.6666,-0.8629,-0.1761,
0.639585,-0.5986,-0.1167,0.8549,-0.2763,-0.0539,0.3947,-0.6666,-0.8629,-0.1761,
0.644787,-0.5986,-0.1167,0.8549,-0.2763,-0.0539,0.3947,-0.5854,-0.6956,-0.2359,
0.655004,-0.5986,-0.1167,0.8549,-0.2763,-0.0539,0.3947,-0.5603,-0.5899,-0.2457,
0.656909,-0.6744,-0.1228,0.8619,-0.2763,-0.0539,0.3947,-0.5603,-0.5899,-0.2457,
0.658414,-0.6744,-0.1228,0.8619,-0.6037,-0.1099,0.7715,-0.5603,-0.5899,-0.2457,
0.664757,-0.6744,-0.1228,0.8619,-0.6037,-0.1099,0.7715,-0.5640,-0.5141,-0.1480,
0.674800,-0.6744,-0.1228,0.8619,-0.6037,-0.1099,0.7715,-0.4809,-0.4683,-0.0826,
0.676856,-0.6567,-0.1382,0.9166,-0.6037,-0.1099,0.7715,-0.4809,-0.4683,-0.0826,
0.678028,-0.6567,-0.1382,0.9166,-0.7668,-0.1613,1.0703,-0.4809,-0.4683,-0.0826,
0.686476,-0.6567,-0.1382,0.9166,-0.7668,-0.1613,1.0703,-0.3746,-0.4188,-0.0307,
0.694801,-0.6567,-0.1382,0.9166,-0.7668,-0.1613,1.0703,-0.2506,-0.3883,0.0017,
0.696873,-0.6051,-0.1665,0.8870,-0.7668,-0.1613,1.0703,-0.2506,-0.3883,0.0017,
0.698054,-0.6051,-0.1665,0.8870,-0.4687,-0.1290,0.6870,-0.2506,-0.3883,0.0017,
0.704819,-0.6051,-0.1665,0.8870,-0.4687,-0.1290,0.6870,-0.1388,-0.3694,0.0218,
0.714759,-0.6051,-0.1665,0.8870,-0.4687,-0.1290,0.6870,-0.0546,-0.3468,0.0347,
0.716800,-0.5499,-0.1655,0.7872,-0.4687,-0.1290,0.6870,-0.0546,-0.3468,0.0347,
0.718264,-0.5499,-0.1655,0.7872,0.1454,0.0438,-0.2081,-0.0546,-0.3468,0.0347,
0.724776,-0.5499,-0.1655,0.7872,0.1454,0.0438,-0.2081,-0.0142,-0.3046,0.0390,
0.736596,-0.5499,-0.1655,0.7872,0.1454,0.0438,-0.2081,-0.0258,-0.2399,0.0426,
0.738006,-0.5369,-0.1647,0.6979,0.1454,0.0438,-0.2081,-0.0258,-0.2399,0.0426,
0.739818,-0.5369,-0.1647,0.6979,0.6164,0.1891,-0.8012,-0.0258,-0.2399,0.0426,
0.744726,-0.5369,-0.1647,0.6979,0.6164,0.1891,-0.8012,-0.0723,-0.1507,0.0548,
0.754862,-0.5369,-0.1647,0.6979,0.6164,0.1891,-0.8012,-0.1285,-0.0511,0.0811,
0.756874,-0.5621,-0.1887,0.6715,0.6164,0.1891,-0.8012,-0.1285,-0.0511,0.0811,
0.758152,-0.5621,-0.1887,0.6715,0.6448,0.2165,-0.7702,-0.1285,-0.0511,0.0811,
0.764748,-0.5621,-0.1887,0.6715,0.6448,0.2165,-0.7702,-0.1810,0.0472,0.1208,
0.774728,-0.5621,-0.1887,0.6715,0.6448,0.2165,-0.7702,-0.2262,0.1126,0.1709,
0.776827,-0.5944,-0.2060,0.6810,0.6448,0.2165,-0.7702,-0.2262,0.1126,0.1709,
0.778213,-0.5944,-0.2060,0.6810,0.4624,0.1602,-0.5298,-0.2262,0.1126,0.1709,
0.784891,-0.5944,-0.2060,0.6810,0.4624,0.1602,-0.5298,-0.2751,0.1157,0.2198,
0.794781,-0.5944,-0.2060,0.6810,0.4624,0.1602,-0.5298,-0.3368,0.0662,0.2583,
0.796827,-0.5906,-0.2251,0.7026,0.4624,0.1602,-0.5298,-0.3368,0.0662,0.2583,
0.798202,-0.5906,-0.2251,0.7026,0.3405,0.1298,-0.4050,-0.3368,0.0662,0.2583,
0.804884,-0.5906,-0.2251,0.7026,0.3405,0.1298,-0.4050,-0.3924,-0.0322,0.2870,
0.814761,-0.5906,-0.2251,0.7026,0.3405,0.1298,-0.4050,-0.4192,-0.1470,0.3065,
0.816879,-0.5640,-0.2599,0.7512,0.3405,0.1298,-0.4050,-0.4192,-0.1470,0.3065,
0.818030,-0.5640,-0.2599,0.7512,0.1474,0.0679,-0.1963,-0.4192,-0.1470,0.3065,
0.824945,-0.5640,-0.2599,0.7512,0.1474,0.0679,-0.1963,-0.4308,-0.2368,0.3114,
0.834859,-0.5640,-0.2599,0.7512,0.1474,0.0679,-0.1963,-0.4357,-0.2826,0.2876,
0.837653,-0.5250,-0.2522,0.7611,0.1474,0.0679,-0.1963,-0.4357,-0.2826,0.2876,
0.839183,-0.5250,-0.2522,0.7611,0.2268,0.1090,-0.3288,-0.4357,-0.2826,0.2876,
0.844750,-0.5250,-0.2522,0.7611,0.2268,0.1090,-0.3288,-0.4315,-0.2722,0.2332,
0.854864,-0.5250,-0.2522,0.7611,0.2268,0.1090,-0.3288,-0.4003,-0.1311,0.0683,
0.856859,-0.5518,-0.2504,0.7692,0.2268,0.1090,-0.3288,-0.4003,-0.1311,0.0683,
0.858029,-0.5518,-0.2504,0.7692,0.1187,0.0538,-0.1654,-0.4003,-0.1311,0.0683,
0.864798,-0.5518,-0.2504,0.7692,0.1187,0.0538,-0.1654,-0.3911,-0.0529,-0.0069,
0.874770,-0.5518,-0.2504,0.7692,0.1187,0.0538,-0.1654,-0.3826,0.0204,-0.0551,
0.876828,-0.6312,-0.2381,0.8089,0.1187,0.0538,-0.1654,-0.3826,0.0204,-0.0551,
0.878114,-0.6312,-0.2381,0.8089,-0.3088,-0.1165,0.3958,-0.3826,0.0204,-0.0551,
0.884912,-0.6312,-0.2381,0.8089,-0.3088,-0.1165,0.3958,-0.3569,0.0753,-0.0741,
0.894762,-0.6312,-0.2381,0.8089,-0.3088,-0.1165,0.3958,-0.3117,0.1218,-0.0679,
0.896979,-0.7087,-0.2558,0.8603,-0.3088,-0.1165,0.3958,-0.3117,0.1218,-0.0679,
0.898381,-0.7087,-0.2558,0.8603,-0.8682,-0.3133,1.0539,-0.3117,0.1218,-0.0679,
0.904856,-0.7087,-0.2558,0.8603,-0.8682,-0.3133,1.0539,-0.2665,0.1615,-0.0435,
0.914825,-0.7087,-0.2558,0.8603,-0.8682,-0.3133,1.0539,-0.2360,0.1749,-0.0227,
0.916972,-0.7097,-0.2715,0.8459,-0.8682,-0.3133,1.0539,-0.2360,0.1749,-0.0227,
0.918886,-0.7097,-0.2715,0.8459,-0.8344,-0.3193,0.9946,-0.2360,0.1749,-0.0227,
0.924860,-0.7097,-0.2715,0.8459,-0.8344,-0.3193,0.9946,-0.2268,0.1664,-0.0270,
0.934925,-0.7097,-0.2715,0.8459,-0.8344,-0.3193,0.9946,-0.2390,0.1590,-0.0460,
0.938079,-0.7130,-0.2856,0.7918,-0.8344,-0.3193,0.9946,-0.2390,0.1590,-0.0460,
0.939352,-0.7130,-0.2856,0.7918,-0.6489,-0.2599,0.7206,-0.2390,0.1590,-0.0460,
0.944864,-0.7130,-0.2856,0.7918,-0.6489,-0.2599,0.7206,-0.2739,0.1731,-0.0692,
0.954890,-0.7130,-0.2856,0.7918,-0.6489,-0.2599,0.7206,-0.3270,0.2116,-0.1022,
0.956948,-0.7316,-0.2830,0.7771,-0.6489,-0.2599,0.7206,-0.3270,0.2116,-0.1022,
0.958148,-0.7316,-0.2830,0.7771,-0.6721,-0.2600,0.7140,-0.3270,0.2116,-0.1022,
0.964745,-0.7316,-0.2830,0.7771,-0.6721,-0.2600,0.7140,-0.3844,0.2635,-0.1425,
0.974773,-0.7316,-0.2830,0.7771,-0.6721,-0.2600,0.7140,-0.4260,0.2898,-0.1779,
0.976867,-0.7774,-0.2503,0.8400,-0.6721,-0.2600,0.7140,-0.4260,0.2898,-0.1779,
0.978037,-0.7774,-0.2503,0.8400,-1.1114,-0.3578,1.2010,-0.4260,0.2898,-0.1779,
0.985018,-0.7774,-0.2503,0.8400,-1.1114,-0.3578,1.2010,-0.4406,0.2806,-0.1956,
0.994793,-0.7774,-0.2503,0.8400,-1.1114,-0.3578,1.2010,-0.4418,0.2482,-0.1852,
0.996851,-0.8510,-0.2404,0.8829,-1.1114,-0.3578,1.2010,-0.4418,0.2482,-0.1852,
0.997862,-0.8510,-0.2404,0.8829,-1.6616,-0.4694,1.7239,-0.4418,0.2482,-0.1852,
1.004795,-0.8510,-0.2404,0.8829,-1.6616,-0.4694,1.7239,-0.4321,0.2006,-0.1492,
1.014856,-0.8510,-0.2404,0.8829,-1.6616,-0.4694,1.7239,-0.4021,0.1438,-0.0869,
1.016790,-0.8957,-0.2288,0.8833,-1.6616,-0.4694,1.7239,-0.4021,0.1438,-0.0869,
1.017984,-0.8957,-0.2288,0.8833,-1.9083,-0.4874,1.8817,-0.4021,0.1438,-0.0869,
1.024777,-0.8957,-0.2288,0.8833,-1.9083,-0.4874,1.8817,-0.3490,0.1065,0.0182,
1.034999,-0.8957,-0.2288,0.8833,-1.9083,-0.4874,1.8817,-0.2946,-0.0077,0.2955,
1.037582,-0.8124,-0.2276,0.8039,-1.9083,-0.4874,1.8817,-0.2946,-0.0077,0.2955,
1.038859,-0.8124,-0.2276,0.8039,-1.1252,-0.3152,1.1133,-0.2946,-0.0077,0.2955,
1.044881,-0.8124,-0.2276,0.8039,-1.1252,-0.3152,1.1133,-0.3209,-0.1055,0.3676,
1.054904,-0.8124,-0.2276,0.8039,-1.1252,-0.3152,1.1133,-0.3447,-0.2008,0.3762,
1.056889,-0.7084,-0.2448,0.7785,-1.1252,-0.3152,1.1133,-0.3447,-0.2008,0.3762,
1.058091,-0.7084,-0.2448,0.7785,-0.5136,-0.1775,0.5644,-0.3447,-0.2008,0.3762,
1.064865,-0.7084,-0.2448,0.7785,-0.5136,-0.1775,0.5644,-0.3417,-0.2637,0.3523,
1.074733,-0.7084,-0.2448,0.7785,-0.5136,-0.1775,0.5644,-0.3068,-0.2838,0.3346,
1.076831,-0.6899,-0.2437,0.7575,-0.5136,-0.1775,0.5644,-0.3068,-0.2838,0.3346,
1.078020,-0.6899,-0.2437,0.7575,-0.3369,-0.1190,0.3699,-0.3068,-0.2838,0.3346,
1.084992,-0.6899,-0.2437,0.7575,-0.3369,-0.1190,0.3699,-0.2549,-0.2612,0.3511,
1.094736,-0.6899,-0.2437,0.7575,-0.3369,-0.1190,0.3699,-0.2073,-0.2063,0.3859,
1.096930,-0.6584,-0.2438,0.6931,-0.3369,-0.1190,0.3699,-0.2073,-0.2063,0.3859,
1.098091,-0.6584,-0.2438,0.6931,0.0922,0.0342,-0.0971,-0.2073,-0.2063,0.3859,
1.104908,-0.6584,-0.2438,0.6931,0.0922,0.0342,-0.0971,-0.1828,-0.1464,0.4159,
1.114849,-0.6584,-0.2438,0.6931,0.0922,0.0342,-0.0971,-0.1859,-0.0865,0.4366,
1.116795,-0.6069,-0.2378,0.6413,0.0922,0.0342,-0.0971,-0.1859,-0.0865,0.4366,
1.117974,-0.6069,-0.2378,0.6413,0.6018,0.0628,-0.6110,-0.1859,-0.0865,0.4366,
1.124795,-0.6069,-0.2378,0.6413,0.6018,0.0628,-0.6110,-0.2054,-0.0285,0.4464,
1.134947,-0.6069,-0.2378,0.6413,0.6018,0.0628,-0.6110,-0.2280,0.0088,0.4391,
1.137557,-0.5595,-0.2557,0.6367,0.6018,0.0628,-0.6110,-0.2280,0.0088,0.4391,
1.138827,-0.5595,-0.2557,0.6367,1.0850,-0.1385,-0.6479,-0.2280,0.0088,0.4391,
1.144790,-0.5595,-0.2557,0.6367,1.0850,-0.1385,-0.6479,-0.2439,0.0185,0.4201,
1.154938,-0.5595,-0.2557,0.6367,1.0850,-0.1385,-0.6479,-0.2476,0.0161,0.4024,
1.156955,-0.5421,-0.2814,0.6505,1.0850,-0.1385,-0.6479,-0.2476,0.0161,0.4024,
1.158150,-0.5421,-0.2814,0.6505,1.2732,-0.4066,-0.5005,-0.2476,0.0161,0.4024,
1.164881,-0.5421,-0.2814,0.6505,1.2732,-0.4066,-0.5005,-0.2403,0.0088,0.3865,
1.174766,-0.5421,-0.2814,0.6505,1.2732,-0.4066,-0.5005,-0.2341,-0.0102,0.3529,
1.176795,-0.4961,-0.2960,0.6437,1.2732,-0.4066,-0.5005,-0.2341,-0.0102,0.3529,
1.177908,-0.4961,-0.2960,0.6437,1.7333,-0.5547,-0.5599,-0.2341,-0.0102,0.3529,
1.184887,-0.4961,-0.2960,0.6437,1.7333,-0.5547,-0.5599,-0.2409,-0.0401,0.2992,
1.194878,-0.4961,-0.2960,0.6437,1.7333,-0.5547,-0.5599,-0.2635,-0.0810,0.2357,
1.196808,-0.4771,-0.3015,0.6392,1.7333,-0.5547,-0.5599,-0.2635,-0.0810,0.2357,
1.198068,-0.4771,-0.3015,0.6392,1.9087,-0.5922,-0.6082,-0.2635,-0.0810,0.2357,
1.204865,-0.4771,-0.3015,0.6392,1.9087,-0.5922,-0.6082,-0.2940,-0.1220,0.1654,
1.214823,-0.4771,-0.3015,0.6392,1.9087,-0.5922,-0.6082,-0.3288,-0.1379,0.0952,
1.216879,-0.4963,-0.2952,0.6560,1.9087,-0.5922,-0.6082,-0.3288,-0.1379,0.0952,
1.218070,-0.4963,-0.2952,0.6560,1.6916,-0.4862,-0.4565,-0.3288,-0.1379,0.0952,
1.224765,-0.4963,-0.2952,0.6560,1.6916,-0.4862,-0.4565,-0.3746,-0.0859,-0.0142,
1.234813,-0.4963,-0.2952,0.6560,1.6916,-0.4862,-0.4565,-0.3765,-0.0285,-0.0588,
1.237753,-0.5254,-0.3017,0.6881,1.6916,-0.4862,-0.4565,-0.3765,-0.0285,-0.0588,
1.239051,-0.5254,-0.3017,0.6881,1.3782,-0.4747,-0.1422,-0.3765,-0.0285,-0.0588,
1.244861,-0.5254,-0.3017,0.6881,1.3782,-0.4747,-0.1422,-0.3691,0.0320,-0.0918,
1.254779,-0.5254,-0.3017,0.6881,1.3782,-0.4747,-0.1422,-0.3465,0.1004,-0.1058,
1.256876,-0.5814,-0.3185,0.7350,1.3782,-0.4747,-0.1422,-0.3465,0.1004,-0.1058,
1.258101,-0.5814,-0.3185,0.7350,0.8145,-0.5607,0.3327,-0.3465,0.1004,-0.1058,
1.264832,-0.5814,-0.3185,0.7350,0.8145,-0.5607,0.3327,-0.3093,0.1700,-0.1040,
1.274810,-0.5814,-0.3185,0.7350,0.8145,-0.5607,0.3327,-0.2677,0.2183,-0.1058,
1.276843,-0.5923,-0.3335,0.7462,0.8145,-0.5607,0.3327,-0.2677,0.2183,-0.1058,
1.278042,-0.5923,-0.3335,0.7462,0.7106,-0.6399,0.4710,-0.2677,0.2183,-0.1058,
1.285000,-0.5923,-0.3335,0.7462,0.7106,-0.6399,0.4710,-0.2341,0.2293,-0.1248,
1.294847,-0.5923,-0.3335,0.7462,0.7106,-0.6399,0.4710,-0.2195,0.2006,-0.1596,
1.296818,-0.6027,-0.3468,0.7218,0.7106,-0.6399,0.4710,-0.2195,0.2006,-0.1596,
1.297938,-0.6027,-0.3468,0.7218,0.6133,-0.7064,0.2608,-0.2195,0.2006,-0.1596,
1.304818,-0.6027,-0.3468,0.7218,0.6133,-0.7064,0.2608,-0.2262,0.1566,-0.1968,
1.314837,-0.6027,-0.3468,0.7218,0.6133,-0.7064,0.2608,-0.2384,0.1248,-0.2194,
1.316903,-0.6230,-0.3233,0.7081,0.6133,-0.7064,0.2608,-0.2384,0.1248,-0.2194,
1.318087,-0.6230,-0.3233,0.7081,0.4091,-0.4072,0.1493,-0.2384,0.1248,-0.2194,
1.324726,-0.6230,-0.3233,0.7081,0.4091,-0.4072,0.1493,-0.2458,0.1126,-0.2201,
1.334860,-0.6230,-0.3233,0.7081,0.4091,-0.4072,0.1493,-0.2488,0.1205,-0.2072,
1.337588,-0.6455,-0.3209,0.7148,0.4091,-0.4072,0.1493,-0.2488,0.1205,-0.2072,
1.339389,-0.6455,-0.3209,0.7148,0.1831,-0.3150,0.2378,-0.2488,0.1205,-0.2072,
1.344885,-0.6455,-0.3209,0.7148,0.1831,-0.3150,0.2378,-0.2445,0.1444,-0.1968,
1.354818,-0.6455,-0.3209,0.7148,0.1831,-0.3150,0.2378,-0.2293,0.1737,-0.1932,
1.356943,-0.6462,-0.3271,0.7351,0.1831,-0.3150,0.2378,-0.2293,0.1737,-0.1932,
1.358122,-0.6462,-0.3271,0.7351,0.1781,-0.3136,0.4650,-0.2293,0.1737,-0.1932,
1.364917,-0.6462,-0.3271,0.7351,0.1781,-0.3136,0.4650,-0.1969,0.2073,-0.1968,
1.374778,-0.6462,-0.3271,0.7351,0.1781,-0.3136,0.4650,-0.1541,0.2537,-0.1999,
1.376859,-0.6585,-0.3287,0.7646,0.1781,-0.3136,0.4650,-0.1541,0.2537,-0.1999,
1.378052,-0.6585,-0.3287,0.7646,0.0686,-0.2764,0.7875,-0.1541,0.2537,-0.1999,
1.385083,-0.6585,-0.3287,0.7646,0.0686,-0.2764,0.7875,-0.0998,0.3014,-0.1987,
1.394825,-0.6585,-0.3287,0.7646,0.0686,-0.2764,0.7875,-0.0326,0.3374,-0.1999,
1.396829,-0.6737,-0.3434,0.7603,0.0686,-0.2764,0.7875,-0.0326,0.3374,-0.1999,
1.398206,-0.6737,-0.3434,0.7603,-0.0568,-0.3825,0.7848,-0.0326,0.3374,-0.1999,
1.404872,-0.6737,-0.3434,0.7603,-0.0568,-0.3825,0.7848,0.0798,0.3423,-0.2091,
1.414938,-0.6737,-0.3434,0.7603,-0.0568,-0.3825,0.7848,0.0811,0.2733,-0.2084,
1.416927,-0.7001,-0.3536,0.7051,-0.0568,-0.3825,0.7848,0.0811,0.2733,-0.2084,
1.418089,-0.7001,-0.3536,0.7051,-0.2920,-0.4637,0.2754,0.0811,0.2733,-0.2084,
1.424822,-0.7001,-0.3536,0.7051,-0.2920,-0.4637,0.2754,0.0407,0.1749,-0.2023,
1.434885,-0.7001,-0.3536,0.7051,-0.2920,-0.4637,0.2754,-0.0228,0.0705,-0.1962,
1.437634,-0.7111,-0.3379,0.6779,-0.2920,-0.4637,0.2754,-0.0228,0.0705,-0.1962,
1.438923,-0.7111,-0.3379,0.6779,-0.3979,-0.2826,0.0237,-0.0228,0.0705,-0.1962,
1.444822,-0.7111,-0.3379,0.6779,-0.3979,-0.2826,0.0237,-0.0949,-0.0303,-0.1785,
1.454794,-0.7111,-0.3379,0.6779,-0.3979,-0.2826,0.0237,-0.1645,-0.1159,-0.1443,
1.456961,-0.7157,-0.3209,0.6882,-0.3979,-0.2826,0.0237,-0.1645,-0.1159,-0.1443,
1.458124,-0.7157,-0.3209,0.6882,-0.4635,-0.0774,0.1221,-0.1645,-0.1159,-0.1443,
1.464911,-0.7157,-0.3209,0.6882,-0.4635,-0.0774,0.1221,-0.2048,-0.1556,-0.1083,
1.474758,-0.7157,-0.3209,0.6882,-0.4635,-0.0774,0.1221,-0.2036,-0.1501,-0.0802,
1.476812,-0.7002,-0.3181,0.7415,-0.4635,-0.0774,0.1221,-0.2036,-0.1501,-0.0802,
1.478017,-0.7002,-0.3181,0.7415,-0.3381,-0.0107,0.6361,-0.2036,-0.1501,-0.0802,
1.484876,-0.7002,-0.3181,0.7415,-0.3381,-0.0107,0.6361,-0.1657,-0.1140,-0.0631,
1.494885,-0.7002,-0.3181,0.7415,-0.3381,-0.0107,0.6361,-0.1040,-0.0664,-0.0594,
1.496902,-0.6900,-0.3375,0.7591,-0.3381,-0.0107,0.6361,-0.1040,-0.0664,-0.0594,
1.498174,-0.6900,-0.3375,0.7591,-0.2554,-0.1757,0.8040,-0.1040,-0.0664,-0.0594,
1.504859,-0.6900,-0.3375,0.7591,-0.2554,-0.1757,0.8040,-0.0393,-0.0218,-0.0667,
1.514793,-0.6900,-0.3375,0.7591,-0.2554,-0.1757,0.8040,0.0139,0.0069,-0.0753,
1.516925,-0.7047,-0.3255,0.7282,-0.2554,-0.1757,0.8040,0.0139,0.0069,-0.0753,
1.518087,-0.7047,-0.3255,0.7282,-0.4051,-0.0481,0.5001,0.0139,0.0069,-0.0753,
1.524863,-0.7047,-0.3255,0.7282,-0.4051,-0.0481,0.5001,0.0420,0.0100,-0.0649,
1.534870,-0.7047,-0.3255,0.7282,-0.4051,-0.0481,0.5001,0.0328,-0.0145,-0.0368,
1.537804,-0.7187,-0.2959,0.6660,-0.4051,-0.0481,0.5001,0.0328,-0.0145,-0.0368,
1.538996,-0.7187,-0.2959,0.6660,-0.5458,0.2434,-0.1120,0.0328,-0.0145,-0.0368,
1.544843,-0.7187,-0.2959,0.6660,-0.5458,0.2434,-0.1120,-0.0148,-0.0755,0.0011,
1.554907,-0.7187,-0.2959,0.6660,-0.5458,0.2434,-0.1120,-0.0790,-0.1495,0.0420,
1.557096,-0.6915,-0.2971,0.6777,-0.5458,0.2434,-0.1120,-0.0790,-0.1495,0.0420,
1.558148,-0.6915,-0.2971,0.6777,-0.2916,0.2333,-0.0086,-0.0790,-0.1495,0.0420,
1.564911,-0.6915,-0.2971,0.6777,-0.2916,0.2333,-0.0086,-0.1254,-0.2112,0.0793,
1.574760,-0.6915,-0.2971,0.6777,-0.2916,0.2333,-0.0086,-0.1419,-0.2582,0.1080,
1.576889,-0.6848,-0.3090,0.6965,-0.2916,0.2333,-0.0086,-0.1419,-0.2582,0.1080,
1.578005,-0.6848,-0.3090,0.6965,-0.2500,0.1200,0.1541,-0.1419,-0.2582,0.1080,
1.584813,-0.6848,-0.3090,0.6965,-0.2500,0.1200,0.1541,-0.1297,-0.2851,0.1324,
1.594848,-0.6848,-0.3090,0.6965,-0.2500,0.1200,0.1541,-0.0869,-0.3058,0.1727,
1.596898,-0.6600,-0.3116,0.6726,-0.2500,0.1200,0.1541,-0.0869,-0.3058,0.1727,
1.598085,-0.6600,-0.3116,0.6726,-0.0358,0.0885,-0.1113,-0.0869,-0.3058,0.1727,
1.604823,-0.6600,-0.3116,0.6726,-0.0358,0.0885,-0.1113,-0.0796,-0.3016,0.1776,
1.614779,-0.6600,-0.3116,0.6726,-0.0358,0.0885,-0.1113,-0.0796,-0.2784,0.1752,
1.616826,-0.6315,-0.3090,0.6490,-0.0358,0.0885,-0.1113,-0.0796,-0.2784,0.1752,
1.617935,-0.6315,-0.3090,0.6490,0.2163,0.1009,-0.3739,-0.0796,-0.2784,0.1752,
1.624781,-0.6315,-0.3090,0.6490,0.2163,0.1009,-0.3739,-0.0778,-0.2362,0.1697,
1.634861,-0.6315,-0.3090,0.6490,0.2163,0.1009,-0.3739,-0.0802,-0.1941,0.1648,
1.638064,-0.6247,-0.2967,0.6372,0.2163,0.1009,-0.3739,-0.0802,-0.1941,0.1648,
1.639264,-0.6247,-0.2967,0.6372,0.2660,0.2106,-0.5117,-0.0802,-0.1941,0.1648,
1.644787,-0.6247,-0.2967,0.6372,0.2660,0.2106,-0.5117,-0.1040,-0.2014,0.1630,
1.654851,-0.6247,-0.2967,0.6372,0.2660,0.2106,-0.5117,-0.1639,-0.2625,0.1703,
1.657214,-0.6510,-0.2838,0.6368,0.2660,0.2106,-0.5117,-0.1639,-0.2625,0.1703,
1.658311,-0.6510,-0.2838,0.6368,-0.0103,0.3334,-0.5350,-0.1639,-0.2625,0.1703,
1.664846,-0.6510,-0.2838,0.6368,-0.0103,0.3334,-0.5350,-0.2439,-0.3498,0.1929,
1.674765,-0.6510,-0.2838,0.6368,-0.0103,0.3334,-0.5350,-0.3129,-0.4457,0.2411,
1.676802,-0.7129,-0.2897,0.6831,-0.0103,0.3334,-0.5350,-0.3129,-0.4457,0.2411,
1.678018,-0.7129,-0.2897,0.6831,-0.6536,0.2827,-0.1117,-0.3129,-0.4457,0.2411,
1.684846,-0.7129,-0.2897,0.6831,-0.6536,0.2827,-0.1117,-0.3557,-0.5355,0.3254,
1.694877,-0.7129,-0.2897,0.6831,-0.6536,0.2827,-0.1117,-0.3801,-0.6351,0.4275,
1.696818,-0.7242,-0.3382,0.7304,-0.6536,0.2827,-0.1117,-0.3801,-0.6351,0.4275,
1.697992,-0.7242,-0.3382,0.7304,-0.8168,-0.1917,0.3041,-0.3801,-0.6351,0.4275,
1.704860,-0.7242,-0.3382,0.7304,-0.8168,-0.1917,0.3041,-0.3856,-0.7444,0.5173,
1.714833,-0.7242,-0.3382,0.7304,-0.8168,-0.1917,0.3041,-0.3704,-0.8269,0.5735,
1.716876,-0.6475,-0.3862,0.7544,-0.8168,-0.1917,0.3041,-0.3704,-0.8269,0.5735,
1.718038,-0.6475,-0.3862,0.7544,-0.1368,-0.6777,0.4678,-0.3704,-0.8269,0.5735,
1.724767,-0.6475,-0.3862,0.7544,-0.1368,-0.6777,0.4678,-0.3349,-0.8648,0.5893,
1.734815,-0.6475,-0.3862,0.7544,-0.1368,-0.6777,0.4678,-0.2965,-0.8770,0.5655,
1.738375,-0.5486,-0.3766,0.7085,-0.1368,-0.6777,0.4678,-0.2965,-0.8770,0.5655,
1.739636,-0.5486,-0.3766,0.7085,0.7484,-0.6077,-0.0680,-0.2965,-0.8770,0.5655,
1.744853,-0.5486,-0.3766,0.7085,0.7484,-0.6077,-0.0680,-0.2757,-0.8923,0.5166,
1.754849,-0.5486,-0.3766,0.7085,0.7484,-0.6077,-0.0680,-0.2812,-0.9075,0.4611,
1.756947,-0.5604,-0.3789,0.6973,0.7484,-0.6077,-0.0680,-0.2812,-0.9075,0.4611,
1.758262,-0.5604,-0.3789,0.6973,0.5356,-0.6453,-0.2678,-0.2812,-0.9075,0.4611,
1.764734,-0.5604,-0.3789,0.6973,0.5356,-0.6453,-0.2678,-0.3001,-0.9020,0.4116,
1.774756,-0.5604,-0.3789,0.6973,0.5356,-0.6453,-0.2678,-0.3038,-0.7945,0.3499,
1.776868,-0.5764,-0.3705,0.7217,0.5356,-0.6453,-0.2678,-0.3038,-0.7945,0.3499,
1.778001,-0.5764,-0.3705,0.7217,0.2817,-0.5585,-0.1078,-0.3038,-0.7945,0.3499,
1.784899,-0.5764,-0.3705,0.7217,0.2817,-0.5585,-0.1078,-0.2916,-0.7218,0.3377,
1.794801,-0.5764,-0.3705,0.7217,0.2817,-0.5585,-0.1078,-0.2879,-0.6644,0.3352,
1.796879,-0.5830,-0.3700,0.7352,0.2817,-0.5585,-0.1078,-0.2879,-0.6644,0.3352,
1.798083,-0.5830,-0.3700,0.7352,0.1383,-0.5446,-0.0354,-0.2879,-0.6644,0.3352,
1.804895,-0.5830,-0.3700,0.7352,0.1383,-0.5446,-0.0354,-0.2855,-0.6308,0.3279,
1.814827,-0.5830,-0.3700,0.7352,0.1383,-0.5446,-0.0354,-0.2647,-0.6198,0.3096,
1.816809,-0.5683,-0.3833,0.7859,0.1383,-0.5446,-0.0354,-0.2647,-0.6198,0.3096,
1.817992,-0.5683,-0.3833,0.7859,0.2112,-0.6651,0.4080,-0.2647,-0.6198,0.3096,
1.824812,-0.5683,-0.3833,0.7859,0.2112,-0.6651,0.4080,-0.2164,-0.6162,0.2796,
1.834860,-0.5683,-0.3833,0.7859,0.2112,-0.6651,0.4080,-0.1517,-0.6058,0.2393,
1.838326,-0.5402,-0.3816,0.8034,0.2112,-0.6651,0.4080,-0.1517,-0.6058,0.2393,
1.840267,-0.5402,-0.3816,0.8034,0.4109,-0.6440,0.5218,-0.1517,-0.6058,0.2393,
1.844847,-0.5402,-0.3816,0.8034,0.4109,-0.6440,0.5218,-0.0863,-0.5765,0.1904,
1.855133,-0.5402,-0.3816,0.8034,0.4109,-0.6440,0.5218,-0.0381,-0.5435,0.1428,
1.857389,-0.5349,-0.3580,0.7704,0.4109,-0.6440,0.5218,-0.0381,-0.5435,0.1428,
1.858808,-0.5349,-0.3580,0.7704,0.3879,-0.4158,0.1401,-0.0381,-0.5435,0.1428,
1.864823,-0.5349,-0.3580,0.7704,0.3879,-0.4158,0.1401,-0.0051,-0.4934,0.1043,
1.874719,-0.5349,-0.3580,0.7704,0.3879,-0.4158,0.1401,0.0181,-0.4207,0.0799,
1.876943,-0.5584,-0.3485,0.7641,0.3879,-0.4158,0.1401,0.0181,-0.4207,0.0799,
1.878206,-0.5584,-0.3485,0.7641,0.0944,-0.3279,0.0277,0.0181,-0.4207,0.0799,
1.884782,-0.5584,-0.3485,0.7641,0.0944,-0.3279,0.0277,0.0407,-0.3498,0.0707,
1.894668,-0.5584,-0.3485,0.7641,0.0944,-0.3279,0.0277,0.0713,-0.2851,0.0707,
1.896730,-0.5695,-0.3534,0.7738,0.0944,-0.3279,0.0277,0.0713,-0.2851,0.0707,
1.897848,-0.5695,-0.3534,0.7738,-0.0585,-0.3868,0.0864,0.0713,-0.2851,0.0707,
1.904768,-0.5695,-0.3534,0.7738,-0.0585,-0.3868,0.0864,0.1031,-0.2313,0.0732,
1.914703,-0.5695,-0.3534,0.7738,-0.0585,-0.3868,0.0864,0.1244,-0.1879,0.0762,
1.916858,-0.5799,-0.3335,0.7357,-0.0585,-0.3868,0.0864,0.1244,-0.1879,0.0762,
1.918227,-0.5799,-0.3335,0.7357,-0.1867,-0.2121,-0.3149,0.1244,-0.1879,0.0762,
1.924739,-0.5799,-0.3335,0.7357,-0.1867,-0.2121,-0.3149,0.1281,-0.1653,0.0921,
1.934798,-0.5799,-0.3335,0.7357,-0.1867,-0.2121,-0.3149,0.1055,-0.1745,0.1251,
1.938137,-0.5603,-0.3202,0.7079,-0.1867,-0.2121,-0.3149,0.1055,-0.1745,0.1251,
1.939331,-0.5603,-0.3202,0.7079,-0.0126,-0.1063,-0.6105,0.1055,-0.1745,0.1251,
1.944844,-0.5603,-0.3202,0.7079,-0.0126,-0.1063,-0.6105,0.0511,-0.2160,0.1575,
1.954834,-0.5603,-0.3202,0.7079,-0.0126,-0.1063,-0.6105,-0.0655,-0.3065,0.1733,
1.957064,-0.5251,-0.3319,0.7554,-0.0126,-0.1063,-0.6105,-0.0655,-0.3065,0.1733,
1.958331,-0.5251,-0.3319,0.7554,0.3032,-0.2337,-0.1708,-0.0655,-0.3065,0.1733,
1.964932,-0.5251,-0.3319,0.7554,0.3032,-0.2337,-0.1708,-0.0747,-0.2973,0.1593,
1.974706,-0.5251,-0.3319,0.7554,0.3032,-0.2337,-0.1708,-0.0411,-0.2448,0.1336,
1.976766,-0.4879,-0.3436,0.8068,0.3032,-0.2337,-0.1708,-0.0411,-0.2448,0.1336,
1.977928,-0.4879,-0.3436,0.8068,0.6347,-0.3514,0.3081,-0.0411,-0.2448,0.1336,
1.984838,-0.4879,-0.3436,0.8068,0.6347,-0.3514,0.3081,0.0188,-0.1458,0.1043,
1.994773,-0.4879,-0.3436,0.8068,0.6347,-0.3514,0.3081,0.0914,-0.0181,0.0744,
1.996836,-0.4605,-0.3373,0.8139,0.6347,-0.3514,0.3081,0.0914,-0.0181,0.0744,
1.997964,-0.4605,-0.3373,0.8139,0.8915,-0.3020,0.3643,0.0914,-0.0181,0.0744,
2.004799,-0.4605,-0.3373,0.8139,0.8915,-0.3020,0.3643,0.1556,0.1041,0.0390,
2.014851,-0.4605,-0.3373,0.8139,0.8915,-0.3020,0.3643,0.1935,0.1829,0.0041,
2.016892,-0.4630,-0.3216,0.7902,0.8915,-0.3020,0.3643,0.1935,0.1829,0.0041,
2.018002,-0.4630,-0.3216,0.7902,0.8836,-0.1718,0.1345,0.1935,0.1829,0.0041,
2.024790,-0.4630,-0.3216,0.7902,0.8836,-0.1718,0.1345,0.2002,0.1957,-0.0209,
2.034777,-0.4630,-0.3216,0.7902,0.8836,-0.1718,0.1345,0.1849,0.1694,-0.0392,
2.038689,-0.4685,-0.3304,0.7723,0.8836,-0.1718,0.1345,0.1849,0.1694,-0.0392,
2.039940,-0.4685,-0.3304,0.7723,0.8465,-0.2767,-0.0369,0.1849,0.1694,-0.0392,
2.044807,-0.4685,-0.3304,0.7723,0.8465,-0.2767,-0.0369,0.1599,0.1340,-0.0643,
2.054983,-0.4685,-0.3304,0.7723,0.8465,-0.2767,-0.0369,0.1440,0.1089,-0.1083,
2.056944,-0.4440,-0.3370,0.7830,0.8465,-0.2767,-0.0369,0.1440,0.1089,-0.1083,
2.058302,-0.4440,-0.3370,0.7830,1.0866,-0.3461,0.0671,0.1440,0.1089,-0.1083,
2.064854,-0.4440,-0.3370,0.7830,1.0866,-0.3461,0.0671,0.1495,0.1071,-0.1620,
2.074724,-0.4440,-0.3370,0.7830,1.0866,-0.3461,0.0671,0.1648,0.1444,-0.2060,
2.076743,-0.4841,-0.3533,0.7834,1.0866,-0.3461,0.0671,0.1648,0.1444,-0.2060,
2.077937,-0.4841,-0.3533,0.7834,0.6893,-0.4994,0.0697,0.1648,0.1444,-0.2060,
2.084872,-0.4841,-0.3533,0.7834,0.6893,-0.4994,0.0697,0.1800,0.2140,-0.2317,
2.094801,-0.4841,-0.3533,0.7834,0.6893,-0.4994,0.0697,0.1947,0.2995,-0.2427,
2.096780,-0.5156,-0.3639,0.7727,0.6893,-0.4994,0.0697,0.1947,0.2995,-0.2427,
2.097933,-0.5156,-0.3639,0.7727,0.3942,-0.5959,-0.0216,0.1947,0.2995,-0.2427,
2.104857,-0.5156,-0.3639,0.7727,0.3942,-0.5959,-0.0216,0.2087,0.3960,-0.2445,
2.114857,-0.5156,-0.3639,0.7727,0.3942,-0.5959,-0.0216,0.2283,0.4785,-0.2390,
2.116891,-0.5042,-0.3682,0.8008,0.3942,-0.5959,-0.0216,0.2283,0.4785,-0.2390,
2.118013,-0.5042,-0.3682,0.8008,0.5448,-0.6330,0.2839,0.2283,0.4785,-0.2390,
2.124836,-0.5042,-0.3682,0.8008,0.5448,-0.6330,0.2839,0.2668,0.5378,-0.2463,
2.134891,-0.5042,-0.3682,0.8008,0.5448,-0.6330,0.2839,0.3217,0.6019,-0.2659,
2.138423,-0.5072,-0.3680,0.7874,0.5448,-0.6330,0.2839,0.3217,0.6019,-0.2659,
2.139679,-0.5072,-0.3680,0.7874,0.5723,-0.6351,0.1920,0.3217,0.6019,-0.2659,
2.144813,-0.5072,-0.3680,0.7874,0.5723,-0.6351,0.1920,0.4610,0.8481,-0.3178,
2.154720,-0.5072,-0.3680,0.7874,0.5723,-0.6351,0.1920,0.5288,1.0014,-0.3575,
2.157049,-0.4795,-0.3777,0.7563,0.5723,-0.6351,0.1920,0.5288,1.0014,-0.3575,
2.158064,-0.4795,-0.3777,0.7563,0.9430,-0.7483,-0.0467,0.5288,1.0014,-0.3575,
2.164780,-0.4795,-0.3777,0.7563,0.9430,-0.7483,-0.0467,0.6052,1.1688,-0.4125,
2.174723,-0.4795,-0.3777,0.7563,0.9430,-0.7483,-0.0467,0.6986,1.3844,-0.4681,
2.176728,-0.4746,-0.3589,0.7396,0.9430,-0.7483,-0.0467,0.6986,1.3844,-0.4681,
2.177698,-0.4746,-0.3589,0.7396,1.1281,-0.5882,-0.1134,0.6986,1.3844,-0.4681,
2.184750,-0.4746,-0.3589,0.7396,1.1281,-0.5882,-0.1134,0.8025,1.6373,-0.5218,
2.194787,-0.4746,-0.3589,0.7396,1.1281,-0.5882,-0.1134,0.8947,1.8676,-0.5884,
2.196893,-0.4661,-0.3365,0.6855,1.1281,-0.5882,-0.1134,0.8947,1.8676,-0.5884,
2.197907,-0.4661,-0.3365,0.6855,1.4008,-0.4009,-0.5033,0.8947,1.8676,-0.5884,
2.205087,-0.4661,-0.3365,0.6855,1.4008,-0.4009,-0.5033,0.9570,2.0362,-0.6745,
2.215174,-0.4661,-0.3365,0.6855,1.4008,-0.4009,-0.5033,0.9851,2.1431,-0.7637,
2.217114,-0.4942,-0.3214,0.6683,1.4008,-0.4009,-0.5033,0.9851,2.1431,-0.7637,
2.218570,-0.4942,-0.3214,0.6683,1.3437,-0.2747,-0.4952,0.9851,2.1431,-0.7637,
2.225092,-0.4942,-0.3214,0.6683,1.3437,-0.2747,-0.4952,1.0071,2.2018,-0.8437,
2.234817,-0.4942,-0.3214,0.6683,1.3437,-0.2747,-0.4952,1.0597,2.2317,-0.9018,
2.238602,-0.5651,-0.3137,0.7360,1.3437,-0.2747,-0.4952,1.0597,2.2317,-0.9018,
2.239839,-0.5651,-0.3137,0.7360,0.8658,-0.2078,0.3606,1.0597,2.2317,-0.9018,
2.244806,-0.5651,-0.3137,0.7360,0.8658,-0.2078,0.3606,1.1507,2.2824,-0.9274,
2.254994,-0.5651,-0.3137,0.7360,0.8658,-0.2078,0.3606,1.2747,2.3875,-0.9378,
2.256884,-0.5950,-0.3123,0.7740,0.8658,-0.2078,0.3606,1.2747,2.3875,-0.9378,
2.257910,-0.5950,-0.3123,0.7740,0.7875,-0.2146,0.9318,1.2747,2.3875,-0.9378,
2.264785,-0.5950,-0.3123,0.7740,0.7875,-0.2146,0.9318,1.4115,2.5017,-0.9561,
2.274723,-0.5950,-0.3123,0.7740,0.7875,-0.2146,0.9318,1.5258,2.6037,-0.9873,
2.276818,-0.5888,-0.2981,0.7534,0.7875,-0.2146,0.9318,1.5258,2.6037,-0.9873,
2.277831,-0.5888,-0.2981,0.7534,1.0748,-0.1153,0.9458,1.5258,2.6037,-0.9873,
2.284770,-0.5888,-0.2981,0.7534,1.0748,-0.1153,0.9458,1.6137,2.7124,-1.0337,
2.294685,-0.5888,-0.2981,0.7534,1.0748,-0.1153,0.9458,1.6968,2.8444,-1.0966,
2.296707,-0.6502,-0.2538,0.8104,1.0748,-0.1153,0.9458,1.6968,2.8444,-1.0966,
2.297868,-0.6502,-0.2538,0.8104,0.7084,0.2698,1.7421,1.6968,2.8444,-1.0966,
2.305142,-0.6502,-0.2538,0.8104,0.7084,0.2698,1.7421,1.7768,2.9983,-1.1522,
2.314871,-0.6502,-0.2538,0.8104,0.7084,0.2698,1.7421,1.8764,3.1291,-1.1956,
2.316823,-0.6390,-0.2737,0.7394,0.7084,0.2698,1.7421,1.8764,3.1291,-1.1956,
2.317967,-0.6390,-0.2737,0.7394,1.0673,0.0338,1.3239,1.8764,3.1291,-1.1956,
2.324795,-0.6390,-0.2737,0.7394,1.0673,0.0338,1.3239,2.0639,3.0228,-1.3343,
2.334837,-0.6390,-0.2737,0.7394,1.0673,0.0338,1.3239,2.0713,2.8798,-1.3838,
2.338660,-0.7494,-0.3055,0.6358,1.0673,0.0338,1.3239,2.0713,2.8798,-1.3838,
2.340481,-0.7494,-0.3055,0.6358,0.2008,-0.3015,0.5746,2.0713,2.8798,-1.3838,
2.344856,-0.7494,-0.3055,0.6358,0.2008,-0.3015,0.5746,2.0218,2.6483,-1.3563,
2.355228,-0.7494,-0.3055,0.6358,0.2008,-0.3015,0.5746,2.0108,2.3673,-1.2891,
2.357055,-0.7014,-0.3757,0.6343,0.2008,-0.3015,0.5746,2.0108,2.3673,-1.2891,
2.358358,-0.7014,-0.3757,0.6343,0.8274,-0.9903,0.7745,2.0108,2.3673,-1.2891,
2.364915,-0.7014,-0.3757,0.6343,0.8274,-0.9903,0.7745,2.0212,2.3038,-1.2585,
2.374788,-0.7014,-0.3757,0.6343,0.8274,-0.9903,0.7745,2.1036,2.3881,-1.2665,
2.376895,-0.6456,-0.4036,0.6979,0.8274,-0.9903,0.7745,2.1036,2.3881,-1.2665,
2.377872,-0.6456,-0.4036,0.6979,1.5008,-1.2571,1.5835,2.1036,2.3881,-1.2665,
2.384901,-0.6456,-0.4036,0.6979,1.5008,-1.2571,1.5835,2.2832,2.4956,-1.3007,
2.394806,-0.6456,-0.4036,0.6979,1.5008,-1.2571,1.5835,2.5062,2.5768,-1.3844,
2.396862,-0.6285,-0.4634,0.6025,1.5008,-1.2571,1.5835,2.5062,2.5768,-1.3844,
2.398108,-0.6285,-0.4634,0.6025,1.7970,-1.8322,0.8515,2.5062,2.5768,-1.3844,
2.405366,-0.6285,-0.4634,0.6025,1.7970,-1.8322,0.8515,2.7084,2.6330,-1.4974,
2.414704,-0.6285,-0.4634,0.6025,1.7970,-1.8322,0.8515,2.8452,2.6740,-1.5829,
2.416894,-0.7692,-0.4310,0.3812,1.7970,-1.8322,0.8515,2.8452,2.6740,-1.5829,
2.418029,-0.7692,-0.4310,0.3812,0.5487,-1.4873,-1.0895,2.8452,2.6740,-1.5829,
2.424784,-0.7692,-0.4310,0.3812,0.5487,-1.4873,-1.0895,2.8782,2.7088,-1.6055,
2.434771,-0.7692,-0.4310,0.3812,0.5487,-1.4873,-1.0895,2.8031,2.7320,-1.5652,
2.437056,-0.8849,-0.3964,0.1680,0.5487,-1.4873,-1.0895,2.8031,2.7320,-1.5652,
2.438258,-0.8849,-0.3964,0.1680,-0.4401,-1.1084,-2.9039,2.8031,2.7320,-1.5652,
2.444780,-0.8849,-0.3964,0.1680,-0.4401,-1.1084,-2.9039,2.6809,2.7399,-1.4754,
2.455275,-0.8849,-0.3964,0.1680,-0.4401,-1.1084,-2.9039,2.5868,2.7656,-1.3703,
2.456966,-0.9287,-0.4005,0.1716,-0.4401,-1.1084,-2.9039,2.5868,2.7656,-1.3703,
2.458293,-0.9287,-0.4005,0.1716,-0.7167,-1.1045,-2.5498,2.5868,2.7656,-1.3703,
2.464831,-0.9287,-0.4005,0.1716,-0.7167,-1.1045,-2.5498,2.5636,2.8670,-1.2652,
2.474841,-0.9287,-0.4005,0.1716,-0.7167,-1.1045,-2.5498,2.5716,2.9898,-1.1125,
2.476867,-1.0324,-0.3213,0.1619,-0.7167,-1.1045,-2.5498,2.5716,2.9898,-1.1125,
2.477998,-1.0324,-0.3213,0.1619,-1.5633,-0.3100,-2.2783,2.5716,2.9898,-1.1125,
2.484843,-1.0324,-0.3213,0.1619,-1.5633,-0.3100,-2.2783,2.5508,3.1010,-0.8828,
2.494822,-1.0324,-0.3213,0.1619,-1.5633,-0.3100,-2.2783,2.5319,3.2066,-0.6122,
2.496927,-1.0385,-0.3158,0.2877,-1.5633,-0.3100,-2.2783,2.5319,3.2066,-0.6122,
2.497985,-1.0385,-0.3158,0.2877,-1.4349,-0.3000,-0.6338,2.5319,3.2066,-0.6122,
2.505569,-1.0385,-0.3158,0.2877,-1.4349,-0.3000,-0.6338,2.5819,3.2806,-0.3740,
2.514776,-1.0385,-0.3158,0.2877,-1.4349,-0.3000,-0.6338,2.7084,3.1938,-0.0594,
2.516820,-1.1150,-0.2480,0.1893,-1.4349,-0.3000,-0.6338,2.7084,3.1938,-0.0594,
2.517992,-1.1150,-0.2480,0.1893,-1.9867,0.2378,-1.1647,2.7084,3.1938,-0.0594,
2.524922,-1.1150,-0.2480,0.1893,-1.9867,0.2378,-1.1647,2.6229,3.2873,0.1098,
2.534856,-1.1150,-0.2480,0.1893,-1.9867,0.2378,-1.1647,2.5166,3.3581,0.3474,
2.537105,-1.1758,-0.2481,-0.0385,-1.9867,0.2378,-1.1647,2.5166,3.3581,0.3474,
2.538299,-1.1758,-0.2481,-0.0385,-2.3825,0.0578,-2.9110,2.5166,3.3581,0.3474,
2.544732,-1.1758,-0.2481,-0.0385,-2.3825,0.0578,-2.9110,2.2838,3.3050,0.5093,
2.555565,-1.1758,-0.2481,-0.0385,-2.3825,0.0578,-2.9110,1.6333,2.7332,0.5924,
2.556946,-1.0922,-0.4088,-0.7953,-2.3825,0.0578,-2.9110,1.6333,2.7332,0.5924,
2.558299,-1.0922,-0.4088,-0.7953,-1.3813,-1.6784,-9.7567,1.6333,2.7332,0.5924,
2.564809,-1.0922,-0.4088,-0.7953,-1.3813,-1.6784,-9.7567,0.8080,2.0374,0.7127,
2.574878,-1.0922,-0.4088,-0.7953,-1.3813,-1.6784,-9.7567,0.4103,1.7528,0.8086,
2.576839,-0.9747,-0.1065,-0.1879,-1.3813,-1.6784,-9.7567,0.4103,1.7528,0.8086,
2.577951,-0.9747,-0.1065,-0.1879,-0.1142,1.1371,-3.3736,0.4103,1.7528,0.8086,
2.584849,-0.9747,-0.1065,-0.1879,-0.1142,1.1371,-3.3736,0.1409,1.6343,0.8600,
2.594794,-0.9747,-0.1065,-0.1879,-0.1142,1.1371,-3.3736,0.4286,2.0545,0.9455,
2.596807,-0.8220,-0.2419,0.6358,-0.1142,1.1371,-3.3736,0.4286,2.0545,0.9455,
2.597857,-0.8220,-0.2419,0.6358,1.4686,-0.3582,5.0408,0.4286,2.0545,0.9455,
2.605633,-0.8220,-0.2419,0.6358,1.4686,-0.3582,5.0408,1.3767,2.8908,0.9882,
2.614829,-0.8220,-0.2419,0.6358,1.4686,-0.3582,5.0408,2.3981,3.5573,0.8148,
2.616915,-0.6474,-0.3862,0.5915,1.4686,-0.3582,5.0408,2.3981,3.5573,0.8148,
2.617988,-0.6474,-0.3862,0.5915,3.2579,-1.9276,5.0816,2.3981,3.5573,0.8148,
2.624848,-0.6474,-0.3862,0.5915,3.2579,-1.9276,5.0816,3.1604,3.9213,0.6620,
2.634829,-0.6474,-0.3862,0.5915,3.2579,-1.9276,5.0816,3.5325,3.9317,0.6565,
2.636918,-0.8247,-0.3094,-0.1240,3.2579,-1.9276,5.0816,3.5325,3.9317,0.6565,
2.638199,-0.8247,-0.3094,-0.1240,1.5639,-1.2665,-1.3466,3.5325,3.9317,0.6565,
2.644782,-0.8247,-0.3094,-0.1240,1.5639,-1.2665,-1.3466,3.1898,3.6086,0.7097,
2.655548,-0.8247,-0.3094,-0.1240,1.5639,-1.2665,-1.3466,2.4304,2.9849,0.6413,
2.656958,-0.9364,-0.2450,-0.3847,1.5639,-1.2665,-1.3466,2.4304,2.9849,0.6413,
2.658253,-0.9364,-0.2450,-0.3847,0.4746,-0.7108,-3.3716,2.4304,2.9849,0.6413,
2.664862,-0.9364,-0.2450,-0.3847,0.4746,-0.7108,-3.3716,1.6632,1.8053,0.4531,
2.674864,-0.9364,-0.2450,-0.3847,0.4746,-0.7108,-3.3716,1.0126,0.6007,0.4519,
2.676862,-1.1840,0.0192,-0.0721,0.4746,-0.7108,-3.3716,1.0126,0.6007,0.4519,
2.678019,-1.1840,0.0192,-0.0721,-1.9495,1.8106,-0.1247,1.0126,0.6007,0.4519,
2.684905,-1.1840,0.0192,-0.0721,-1.9495,1.8106,-0.1247,0.5765,-0.1513,0.7054,
2.694848,-1.1840,0.0192,-0.0721,-1.9495,1.8106,-0.1247,0.5435,-0.0358,0.8899,
2.696984,-1.0345,-0.0651,0.1827,-1.9495,1.8106,-0.1247,0.5435,-0.0358,0.8899,
2.698106,-1.0345,-0.0651,0.1827,-0.4580,0.8400,2.3178,0.5435,-0.0358,0.8899,
2.705735,-1.0345,-0.0651,0.1827,-0.4580,0.8400,2.3178,0.8459,0.6025,0.8264,
2.714846,-1.0345,-0.0651,0.1827,-0.4580,0.8400,2.3178,1.1635,1.2580,0.7378,
2.717087,-1.0050,-0.0327,0.1202,-0.4580,0.8400,2.3178,1.1635,1.2580,0.7378,
2.718090,-1.0050,-0.0327,0.1202,-0.1546,1.0153,1.8206,1.1635,1.2580,0.7378,
2.724984,-1.0050,-0.0327,0.1202,-0.1546,1.0153,1.8206,1.5679,1.7430,0.7610,
2.734873,-1.0050,-0.0327,0.1202,-0.1546,1.0153,1.8206,1.9790,1.7790,0.7848,
2.737105,-1.0090,-0.2073,0.2086,-0.1546,1.0153,1.8206,1.9790,1.7790,0.7848,
2.738213,-1.0090,-0.2073,0.2086,-0.1966,-0.8062,2.9083,1.9790,1.7790,0.7848,
2.744828,-1.0090,-0.2073,0.2086,-0.1966,-0.8062,2.9083,2.1995,1.6575,0.7152,
2.755828,-1.0090,-0.2073,0.2086,-0.1966,-0.8062,2.9083,1.9833,1.6092,0.7042,
2.757523,-1.0677,-0.1402,-0.3369,-0.1966,-0.8062,2.9083,1.9833,1.6092,0.7042,
2.758609,-1.0677,-0.1402,-0.3369,-0.7865,-0.2378,-2.1940,1.9833,1.6092,0.7042,
2.764883,-1.0677,-0.1402,-0.3369,-0.7865,-0.2378,-2.1940,1.6204,1.2219,0.6938,
2.774840,-1.0677,-0.1402,-0.3369,-0.7865,-0.2378,-2.1940,1.2949,0.5310,0.6254,
2.776874,-1.0148,-0.2138,-0.4613,-0.7865,-0.2378,-2.1940,1.2949,0.5310,0.6254,
2.778043,-1.0148,-0.2138,-0.4613,-0.2755,-1.0434,-3.2731,1.2949,0.5310,0.6254,
2.784788,-1.0148,-0.2138,-0.4613,-0.2755,-1.0434,-3.2731,0.6760,0.2592,0.5356,
2.794807,-1.0148,-0.2138,-0.4613,-0.2755,-1.0434,-3.2731,-0.1767,-0.2081,0.3450,
2.796854,-0.9066,-0.4095,-0.8370,-0.2755,-1.0434,-3.2731,-0.1767,-0.2081,0.3450,
2.797976,-0.9066,-0.4095,-0.8370,0.7787,-2.9922,-6.8816,-0.1767,-0.2081,0.3450,
2.805706,-0.9066,-0.4095,-0.8370,0.7787,-2.9922,-6.8816,-1.0942,-1.0829,0.1141,
2.814884,-0.9066,-0.4095,-0.8370,0.7787,-2.9922,-6.8816,-2.0057,-1.8861,-0.0508,
2.816941,-0.8102,-0.5488,-0.4851,0.7787,-2.9922,-6.8816,-2.0057,-1.8861,-0.0508,
2.818304,-0.8102,-0.5488,-0.4851,1.7392,-4.3188,-3.5906,-2.0057,-1.8861,-0.0508,
2.824914,-0.8102,-0.5488,-0.4851,1.7392,-4.3188,-3.5906,-2.6800,-2.2484,-0.2164,
2.834857,-0.8102,-0.5488,-0.4851,1.7392,-4.3188,-3.5906,-3.0240,-2.2124,-0.4320,
2.836937,-0.8541,-0.2981,0.0006,1.7392,-4.3188,-3.5906,-3.0240,-2.2124,-0.4320,
2.838652,-0.8541,-0.2981,0.0006,1.3301,-1.7713,0.8741,-3.0240,-2.2124,-0.4320,
2.844841,-0.8541,-0.2981,0.0006,1.3301,-1.7713,0.8741,-3.1388,-1.8904,-0.6550,
2.855943,-0.8541,-0.2981,0.0006,1.3301,-1.7713,0.8741,-3.0893,-1.5209,-0.8767,
2.857583,-0.8363,-0.1104,0.3983,1.3301,-1.7713,0.8741,-3.0893,-1.5209,-0.8767,
2.858743,-0.8363,-0.1104,0.3983,1.5040,0.2237,4.5268,-3.0893,-1.5209,-0.8767,
2.864966,-0.8363,-0.1104,0.3983,1.5040,0.2237,4.5268,-2.9946,-1.1091,-1.1101,
2.874954,-0.8363,-0.1104,0.3983,1.5040,0.2237,4.5268,-2.6397,-0.6601,-1.7869,
2.876931,-0.7499,-0.0807,0.5231,1.5040,0.2237,4.5268,-2.6397,-0.6601,-1.7869,
2.878128,-0.7499,-0.0807,0.5231,2.3170,0.7937,5.6030,-2.6397,-0.6601,-1.7869,
2.884910,-0.7499,-0.0807,0.5231,2.3170,0.7937,5.6030,-1.5823,-0.7823,-2.1308,
2.894866,-0.7499,-0.0807,0.5231,2.3170,0.7937,5.6030,-1.4357,-0.3242,-2.5438,
2.896931,-0.6805,-0.0673,0.0649,2.3170,0.7937,5.6030,-1.4357,-0.3242,-2.5438,
2.898076,-0.6805,-0.0673,0.0649,2.9193,1.3619,1.0183,-1.4357,-0.3242,-2.5438,
2.905885,-0.6805,-0.0673,0.0649,2.9193,1.3619,1.0183,-1.3991,0.4034,-3.0380,
2.914759,-0.6805,-0.0673,0.0649,2.9193,1.3619,1.0183,-1.2677,1.1767,-3.5621,
2.916880,-0.6539,-0.1163,0.0415,2.9193,1.3619,1.0183,-1.2677,1.1767,-3.5621,
2.918097,-0.6539,-0.1163,0.0415,3.0288,1.4725,0.9482,-1.2677,1.1767,-3.5621,
2.924909,-0.6539,-0.1163,0.0415,3.0288,1.4725,0.9482,-1.1217,2.2683,-4.0270,
2.934852,-0.6539,-0.1163,0.0415,3.0288,1.4725,0.9482,-1.0344,3.4204,-4.4033,
2.936939,-0.6172,-0.1913,-0.1760,3.0288,1.4725,0.9482,-1.0344,3.4204,-4.4033,
2.938275,-0.6172,-0.1913,-0.1760,3.1090,1.4593,-0.6351,-1.0344,3.4204,-4.4033,
2.944768,-0.6172,-0.1913,-0.1760,3.1090,1.4593,-0.6351,-0.9782,4.1498,-4.7802,
2.956021,-0.6172,-0.1913,-0.1760,3.1090,1.4593,-0.6351,-0.9269,4.5481,-5.2120,
2.957477,-0.5454,-0.4203,-0.2607,3.1090,1.4593,-0.6351,-0.9269,4.5481,-5.2120,
2.958770,-0.5454,-0.4203,-0.2607,3.3273,0.0443,-0.6503,-0.9269,4.5481,-5.2120,
2.964862,-0.5454,-0.4203,-0.2607,3.3273,0.0443,-0.6503,-0.7882,4.7106,-5.6574,
2.974965,-0.5454,-0.4203,-0.2607,3.3273,0.0443,-0.6503,-0.6043,4.3276,-6.0172,
2.976965,-0.6038,-0.7824,-1.0625,3.3273,0.0443,-0.6503,-0.6043,4.3276,-6.0172,
2.978080,-0.6038,-0.7824,-1.0625,2.0013,-2.5859,-7.6474,-0.6043,4.3276,-6.0172,
2.984890,-0.6038,-0.7824,-1.0625,2.0013,-2.5859,-7.6474,-0.4999,2.0888,-6.0709,
2.994806,-0.6038,-0.7824,-1.0625,2.0013,-2.5859,-7.6474,-0.3997,-0.6998,-5.7667,
2.997137,-0.7461,-0.9279,-0.7903,2.0013,-2.5859,-7.6474,-0.3997,-0.6998,-5.7667,
2.998285,-0.7461,-0.9279,-0.7903,-0.0977,-3.1645,-4.7490,-0.3997,-0.6998,-5.7667,
3.006038,-0.7461,-0.9279,-0.7903,-0.0977,-3.1645,-4.7490,-0.0936,-1.9833,-5.2298,
3.014844,-0.7461,-0.9279,-0.7903,-0.0977,-3.1645,-4.7490,0.2820,-2.3419,-4.4607,
3.016941,-1.0537,-0.7504,-0.0616,-0.0977,-3.1645,-4.7490,0.2820,-2.3419,-4.4607,
3.018025,-1.0537,-0.7504,-0.0616,-3.5741,-0.7767,2.1024,0.2820,-2.3419,-4.4607,
3.024943,-1.0537,-0.7504,-0.0616,-3.5741,-0.7767,2.1024,0.7243,-2.2014,-3.5028,
3.034906,-1.0537,-0.7504,-0.0616,-3.5741,-0.7767,2.1024,0.9986,-1.9332,-2.5139,
3.036854,-1.2197,-0.9105,-0.1728,-3.5741,-0.7767,2.1024,0.9986,-1.9332,-2.5139,
3.038245,-1.2197,-0.9105,-0.1728,-5.4578,-1.9538,0.6318,0.9986,-1.9332,-2.5139,
3.044804,-1.2197,-0.9105,-0.1728,-5.4578,-1.9538,0.6318,1.0365,-1.4604,-1.6562,
3.056157,-1.2197,-0.9105,-0.1728,-5.4578,-1.9538,0.6318,0.8715,-0.9387,-1.0893,
3.057742,-0.9398,-0.8812,-0.3546,-5.4578,-1.9538,0.6318,0.8715,-0.9387,-1.0893,
3.058958,-0.9398,-0.8812,-0.3546,-2.8127,-1.4946,-1.4159,0.8715,-0.9387,-1.0893,
3.064848,-0.9398,-0.8812,-0.3546,-2.8127,-1.4946,-1.4159,0.2228,0.1694,-0.7448,
3.074850,-0.9398,-0.8812,-0.3546,-2.8127,-1.4946,-1.4159,-0.0258,0.4736,-0.8639,
3.076856,-0.5711,-0.7402,-0.2498,-2.8127,-1.4946,-1.4159,-0.0258,0.4736,-0.8639,
3.078025,-0.5711,-0.7402,-0.2498,0.6981,-0.0342,-0.3463,-0.0258,0.4736,-0.8639,
3.084846,-0.5711,-0.7402,-0.2498,0.6981,-0.0342,-0.3463,-0.0686,0.5872,-1.0924,
3.094889,-0.5711,-0.7402,-0.2498,0.6981,-0.0342,-0.3463,0.0291,0.6117,-1.3294,
3.096939,-0.5196,-0.7125,-0.1638,0.6981,-0.0342,-0.3463,0.0291,0.6117,-1.3294,
3.098090,-0.5196,-0.7125,-0.1638,1.0170,0.3707,0.5793,0.0291,0.6117,-1.3294,
3.106299,-0.5196,-0.7125,-0.1638,1.0170,0.3707,0.5793,0.2472,0.4663,-1.6623,
3.114844,-0.5196,-0.7125,-0.1638,1.0170,0.3707,0.5793,0.5740,0.3820,-2.0911,
3.117052,-0.6711,-0.7029,-0.1637,1.0170,0.3707,0.5793,0.5740,0.3820,-2.0911,
3.118163,-0.6711,-0.7029,-0.1637,-0.7371,0.6839,0.5712,0.5740,0.3820,-2.0911,
3.125055,-0.6711,-0.7029,-0.1637,-0.7371,0.6839,0.5712,0.9992,0.3594,-2.4741,
3.134770,-0.6711,-0.7029,-0.1637,-0.7371,0.6839,0.5712,1.2160,0.3466,-2.6989,
3.136928,-0.6597,-0.6772,-0.2481,-0.7371,0.6839,0.5712,1.2160,0.3466,-2.6989,
3.138299,-0.6597,-0.6772,-0.2481,-0.9859,1.2324,-0.3768,1.2160,0.3466,-2.6989,
3.144763,-0.6597,-0.6772,-0.2481,-0.9859,1.2324,-0.3768,1.4250,0.3924,-2.7747,
3.156409,-0.6597,-0.6772,-0.2481,-0.9859,1.2324,-0.3768,1.8984,0.2879,-2.6678,
3.157881,-0.4650,-0.6104,-0.1295,-0.9859,1.2324,-0.3768,1.8984,0.2879,-2.6678,
3.159055,-0.4650,-0.6104,-0.1295,0.5355,2.1949,0.5678,1.8984,0.2879,-2.6678,
3.164763,-0.4650,-0.6104,-0.1295,0.5355,2.1949,0.5678,2.5685,-0.0468,-2.3165,
3.174910,-0.4650,-0.6104,-0.1295,0.5355,2.1949,0.5678,3.0199,-0.6461,-2.1852,
3.176865,-0.2652,-0.4782,-0.2008,0.5355,2.1949,0.5678,3.0199,-0.6461,-2.1852,
3.177952,-0.2652,-0.4782,-0.2008,2.1917,3.7582,-0.5881,3.0199,-0.6461,-2.1852,
3.184846,-0.2652,-0.4782,-0.2008,2.1917,3.7582,-0.5881,2.9643,-1.0957,-2.2445,
3.194772,-0.2652,-0.4782,-0.2008,2.1917,3.7582,-0.5881,2.4378,-0.7011,-1.9745,
3.196778,-0.3459,-0.2653,-0.0842,2.1917,3.7582,-0.5881,2.4378,-0.7011,-1.9745,
3.197956,-0.3459,-0.2653,-0.0842,1.1476,6.0473,0.0700,2.4378,-0.7011,-1.9745,
3.206343,-0.3459,-0.2653,-0.0842,1.1476,6.0473,0.0700,1.7921,0.4278,-1.5365,
3.214730,-0.3459,-0.2653,-0.0842,1.1476,6.0473,0.0700,1.1116,1.7613,-1.0319,
3.216941,-0.4062,-0.4038,0.1834,1.1476,6.0473,0.0700,1.1116,1.7613,-1.0319,
3.218097,-0.4062,-0.4038,0.1834,0.4198,4.7741,2.5492,1.1116,1.7613,-1.0319,
3.224846,-0.4062,-0.4038,0.1834,0.4198,4.7741,2.5492,-0.0588,3.3264,-0.3844,
3.234727,-0.4062,-0.4038,0.1834,0.4198,4.7741,2.5492,-0.7625,3.9299,0.1208,
3.236910,-0.3926,-0.3817,0.2251,0.4198,4.7741,2.5492,-0.7625,3.9299,0.1208,
3.238380,-0.3926,-0.3817,0.2251,0.5712,4.9456,3.2974,-0.7625,3.9299,0.1208,
3.244718,-0.3926,-0.3817,0.2251,0.5712,4.9456,3.2974,-1.0869,3.7973,0.6602,
3.256388,-0.3926,-0.3817,0.2251,0.5712,4.9456,3.2974,-1.1987,1.5261,0.3975,
3.257695,-0.3387,-0.4476,-0.1380,0.5712,4.9456,3.2974,-1.1987,1.5261,0.3975,
3.258938,-0.3387,-0.4476,-0.1380,1.2146,4.1814,0.1335,-1.1987,1.5261,0.3975,
3.264798,-0.3387,-0.4476,-0.1380,1.2146,4.1814,0.1335,-0.8658,-0.7243,-0.1052,
3.274941,-0.3387,-0.4476,-0.1380,1.2146,4.1814,0.1335,-0.1071,-2.6809,-0.9384,
3.276924,-0.2636,-0.7282,-0.0197,1.2146,4.1814,0.1335,-0.1071,-2.6809,-0.9384,
3.278058,-0.2636,-0.7282,-0.0197,1.9564,1.4465,1.1866,-0.1071,-2.6809,-0.9384,
3.284799,-0.2636,-0.7282,-0.0197,1.9564,1.4465,1.1866,0.6412,-3.6314,-1.9836,
3.294812,-0.2636,-0.7282,-0.0197,1.9564,1.4465,1.1866,0.7048,-3.5526,-2.7509,
3.296850,-0.7980,-2.0360,-0.7157,1.9564,1.4465,1.1866,0.7048,-3.5526,-2.7509,
3.298120,-0.7980,-2.0360,-0.7157,-3.6025,-11.1539,-6.0396,0.7048,-3.5526,-2.7509,
3.314563,-0.7980,-2.0360,-0.7157,-3.6025,-11.1539,-6.0396,0.1031,-2.3480,-3.2157,
3.316044,-0.7980,-2.0360,-0.7157,-3.6025,-11.1539,-6.0396,-0.2500,-0.9014,-3.4931,
3.318051,-0.6521,-2.5198,-0.1812,-3.6025,-11.1539,-6.0396,-0.2500,-0.9014,-3.4931,
3.319184,-0.6521,-2.5198,-0.1812,-2.7426,-15.6312,-0.9175,-0.2500,-0.9014,-3.4931,
3.324936,-0.6521,-2.5198,-0.1812,-2.7426,-15.6312,-0.9175,-0.3239,0.3441,-3.7246,
3.334855,-0.6521,-2.5198,-0.1812,-2.7426,-15.6312,-0.9175,-0.2971,0.8945,-3.9976,
3.336925,0.0497,-2.0905,-0.2118,-2.7426,-15.6312,-0.9175,-0.2971,0.8945,-3.9976,
3.338920,0.0497,-2.0905,-0.2118,3.4148,-11.1765,-1.1212,-0.2971,0.8945,-3.9976,
3.344920,0.0497,-2.0905,-0.2118,3.4148,-11.1765,-1.1212,-0.4186,0.3563,-4.3709,
3.356504,0.0497,-2.0905,-0.2118,3.4148,-11.1765,-1.1212,-0.6349,-0.5264,-4.8999,
3.358299,0.4346,-1.1052,-0.1325,3.4148,-11.1765,-1.1212,-0.6349,-0.5264,-4.8999,
3.359736,0.4346,-1.1052,-0.1325,6.3030,-1.2981,-0.2449,-0.6349,-0.5264,-4.8999,
3.364884,0.4346,-1.1052,-0.1325,6.3030,-1.2981,-0.2449,-0.6801,-0.7249,-5.4845,
3.381269,0.4346,-1.1052,-0.1325,6.3030,-1.2981,-0.2449,-0.3917,-0.1024,-5.8394,
3.382498,0.2375,-0.8036,0.1937,6.3030,-1.2981,-0.2449,-0.3917,-0.1024,-5.8394,
3.383649,0.2375,-0.8036,0.1937,3.2793,1.8187,3.0309,-0.3917,-0.1024,-5.8394,
3.385198,0.2375,-0.8036,0.1937,3.2793,1.8187,3.0309,0.1880,1.1163,-5.6549,
3.394725,0.2375,-0.8036,0.1937,3.2793,1.8187,3.0309,0.5581,2.2329,-4.9940,
3.396886,-0.1101,-0.4255,-0.1976,3.2793,1.8187,3.0309,0.5581,2.2329,-4.9940,
3.398075,-0.1101,-0.4255,-0.1976,-1.1852,5.5779,-0.8663,0.5581,2.2329,-4.9940,
3.404860,-0.1101,-0.4255,-0.1976,-1.1852,5.5779,-0.8663,0.4671,2.7894,-4.1870,
3.414801,-0.1101,-0.4255,-0.1976,-1.1852,5.5779,-0.8663,0.1641,3.0472,-3.4173,
3.416901,-0.0567,-0.5631,-0.2336,-1.1852,5.5779,-0.8663,0.1641,3.0472,-3.4173,
3.418245,-0.0567,-0.5631,-0.2336,-1.4014,4.2000,-1.2874,0.1641,3.0472,-3.4173,
3.424825,-0.0567,-0.5631,-0.2336,-1.4014,4.2000,-1.2874,-0.2360,3.0845,-2.7167,
3.434827,-0.0567,-0.5631,-0.2336,-1.4014,4.2000,-1.2874,-0.6618,3.0344,-1.3349,
3.436820,-0.0100,-0.9303,-0.1693,-1.4014,4.2000,-1.2874,-0.6618,3.0344,-1.3349,
3.438046,-0.0100,-0.9303,-0.1693,-1.3276,0.5558,-0.6136,-0.6618,3.0344,-1.3349,
3.444716,-0.0100,-0.9303,-0.1693,-1.3276,0.5558,-0.6136,-0.5933,2.8584,-0.4155,
3.454955,-0.0100,-0.9303,-0.1693,-1.3276,0.5558,-0.6136,-0.4296,2.5481,0.3859,
3.457704,0.2698,-1.2044,-0.2943,-1.3276,0.5558,-0.6136,-0.4296,2.5481,0.3859,
3.459053,0.2698,-1.2044,-0.2943,1.3814,-2.1407,-1.7853,-0.4296,2.5481,0.3859,
3.464803,0.2698,-1.2044,-0.2943,1.3814,-2.1407,-1.7853,-0.2726,1.9819,0.8001,
3.474963,0.2698,-1.2044,-0.2943,1.3814,-2.1407,-1.7853,-0.1926,1.1578,0.8477,
3.476894,0.4242,-1.2527,-0.3867,1.3814,-2.1407,-1.7853,-0.1926,1.1578,0.8477,
3.478107,0.4242,-1.2527,-0.3867,3.0149,-2.6028,-2.6549,-0.1926,1.1578,0.8477,
3.484893,0.4242,-1.2527,-0.3867,3.0149,-2.6028,-2.6549,-0.2005,0.2134,0.7036,
3.494701,0.4242,-1.2527,-0.3867,3.0149,-2.6028,-2.6549,-0.2415,-0.6614,0.5637,
3.496844,0.2033,-1.1518,-0.2930,3.0149,-2.6028,-2.6549,-0.2415,-0.6614,0.5637,
3.497903,0.2033,-1.1518,-0.2930,0.9662,-1.6103,-1.6593,-0.2415,-0.6614,0.5637,
3.504967,0.2033,-1.1518,-0.2930,0.9662,-1.6103,-1.6593,-0.2897,-1.2893,0.5240,
3.514810,0.2033,-1.1518,-0.2930,0.9662,-1.6103,-1.6593,-0.3282,-1.5813,0.5447,
3.516856,0.1059,-0.9690,-0.1661,0.9662,-1.6103,-1.6593,-0.3282,-1.5813,0.5447,
3.517996,0.1059,-0.9690,-0.1661,0.1419,0.1796,-0.3094,-0.3282,-1.5813,0.5447,
3.524884,0.1059,-0.9690,-0.1661,0.1419,0.1796,-0.3094,-0.3502,-1.5606,0.5594,
3.534903,0.1059,-0.9690,-0.1661,0.1419,0.1796,-0.3094,-0.3545,-1.3144,0.5264,
3.536795,0.1920,-0.9185,-0.0708,0.1419,0.1796,-0.3094,-0.3545,-1.3144,0.5264,
3.537964,0.1920,-0.9185,-0.0708,1.1143,0.6721,0.7240,-0.3545,-1.3144,0.5264,
3.544789,0.1920,-0.9185,-0.0708,1.1143,0.6721,0.7240,-0.3508,-0.9442,0.4452,
3.554947,0.1920,-0.9185,-0.0708,1.1143,0.6721,0.7240,-0.3447,-0.5319,0.3511,
3.557586,0.2073,-0.9529,-0.0340,1.1143,0.6721,0.7240,-0.3447,-0.5319,0.3511,
3.558922,0.2073,-0.9529,-0.0340,1.3381,0.3288,1.1612,-0.3447,-0.5319,0.3511,
3.564830,0.2073,-0.9529,-0.0340,1.3381,0.3288,1.1612,-0.3410,-0.1385,0.2876,
3.574914,0.2073,-0.9529,-0.0340,1.3381,0.3288,1.1612,-0.3753,0.2696,0.3175,
3.577210,0.0689,-0.9527,-0.1648,1.3381,0.3288,1.1612,-0.3753,0.2696,0.3175,
3.578217,0.0689,-0.9527,-0.1648,0.0227,0.3235,-0.0543,-0.3753,0.2696,0.3175,
3.584885,0.0689,-0.9527,-0.1648,0.0227,0.3235,-0.0543,-0.4308,0.5958,0.4275,
3.594693,0.0689,-0.9527,-0.1648,0.0227,0.3235,-0.0543,-0.4583,0.6306,0.5142,
3.596792,0.1566,-0.9858,-0.2135,0.0227,0.3235,-0.0543,-0.4583,0.6306,0.5142,
3.597806,0.1566,-0.9858,-0.2135,0.9348,-0.0105,-0.4538,-0.4583,0.6306,0.5142,
3.604783,0.1566,-0.9858,-0.2135,0.9348,-0.0105,-0.4538,-0.4027,0.3185,0.5319,
3.614615,0.1566,-0.9858,-0.2135,0.9348,-0.0105,-0.4538,-0.2641,-0.5325,0.4415,
3.616820,0.1853,-1.0167,-0.2262,0.9348,-0.0105,-0.4538,-0.2641,-0.5325,0.4415,
3.617825,0.1853,-1.0167,-0.2262,1.2881,-0.3208,-0.5112,-0.2641,-0.5325,0.4415,
3.624829,0.1853,-1.0167,-0.2262,1.2881,-0.3208,-0.5112,-0.2079,-0.6479,0.3535,
3.634718,0.1853,-1.0167,-0.2262,1.2881,-0.3208,-0.5112,-0.1101,-0.5532,0.2173,
3.636660,0.3375,-1.0345,-0.1634,1.2881,-0.3208,-0.5112,-0.1101,-0.5532,0.2173,
3.637540,0.3375,-1.0345,-0.1634,2.8018,-0.5006,0.1391,-0.1101,-0.5532,0.2173,
3.644678,0.3375,-1.0345,-0.1634,2.8018,-0.5006,0.1391,-0.0851,-0.3645,0.0237,
3.654848,0.3375,-1.0345,-0.1634,2.8018,-0.5006,0.1391,-0.2323,-0.1690,-0.1260,
3.657287,0.1892,-0.9933,-0.2919,2.8018,-0.5006,0.1391,-0.2323,-0.1690,-0.1260,
3.658661,0.1892,-0.9933,-0.2919,1.3004,-0.1073,-1.0797,-0.2323,-0.1690,-0.1260,
3.664812,0.1892,-0.9933,-0.2919,1.3004,-0.1073,-1.0797,-0.2690,-0.1977,-0.0899,
3.675468,0.1892,-0.9933,-0.2919,1.3004,-0.1073,-1.0797,-0.2403,-0.2545,-0.0148,
3.677497,0.0512,-0.9554,-0.2515,1.3004,-0.1073,-1.0797,-0.2403,-0.2545,-0.0148,
3.678477,0.0512,-0.9554,-0.2515,-0.0796,0.2523,-0.6245,-0.2403,-0.2545,-0.0148,
3.684831,0.0512,-0.9554,-0.2515,-0.0796,0.2523,-0.6245,-0.2653,-0.2234,0.0328,
3.694822,0.0512,-0.9554,-0.2515,-0.0796,0.2523,-0.6245,-0.3404,-0.1403,0.0561,
3.696875,0.0937,-0.9791,-0.2552,-0.0796,0.2523,-0.6245,-0.3404,-0.1403,0.0561,
3.697946,0.0937,-0.9791,-0.2552,0.3344,0.0068,-0.5931,-0.3404,-0.1403,0.0561,
3.705039,0.0937,-0.9791,-0.2552,0.3344,0.0068,-0.5931,-0.3979,-0.0633,0.0835,
3.714928,0.0937,-0.9791,-0.2552,0.3344,0.0068,-0.5931,-0.4150,-0.0419,0.1410,
3.716896,0.0910,-0.9547,-0.1851,0.3344,0.0068,-0.5931,-0.4150,-0.0419,0.1410,
3.717982,0.0910,-0.9547,-0.1851,0.3187,0.2292,0.1753,-0.4150,-0.0419,0.1410,
3.724849,0.0910,-0.9547,-0.1851,0.3187,0.2292,0.1753,-0.3911,-0.0536,0.2021,
3.734899,0.0910,-0.9547,-0.1851,0.3187,0.2292,0.1753,-0.3166,-0.1201,0.2247,
3.737132,0.1587,-0.9287,-0.1201,0.3187,0.2292,0.1753,-0.3166,-0.1201,0.2247,
3.737961,0.1587,-0.9287,-0.1201,1.0084,0.4719,0.8774,-0.3166,-0.1201,0.2247,
3.744834,0.1587,-0.9287,-0.1201,1.0084,0.4719,0.8774,-0.2403,-0.1574,0.2204,
3.754954,0.1587,-0.9287,-0.1201,1.0084,0.4719,0.8774,-0.2054,-0.0267,0.2479,
3.757669,-0.0228,-0.9558,-0.2144,1.0084,0.4719,0.8774,-0.2054,-0.0267,0.2479,
3.759038,-0.0228,-0.9558,-0.2144,-0.7276,0.1995,-0.0049,-0.2054,-0.0267,0.2479,
3.764890,-0.0228,-0.9558,-0.2144,-0.7276,0.1995,-0.0049,-0.2073,0.1737,0.3261,
3.774953,-0.0228,-0.9558,-0.2144,-0.7276,0.1995,-0.0049,-0.2286,0.3521,0.4513,
3.776967,-0.0672,-0.9329,-0.2036,-0.7276,0.1995,-0.0049,-0.2286,0.3521,0.4513,
3.778311,-0.0672,-0.9329,-0.2036,-1.0992,0.4192,0.1388,-0.2286,0.3521,0.4513,
3.784866,-0.0672,-0.9329,-0.2036,-1.0992,0.4192,0.1388,-0.2476,0.4932,0.5942,
3.794800,-0.0672,-0.9329,-0.2036,-1.0992,0.4192,0.1388,-0.2696,0.6129,0.7408,
3.796827,-0.0597,-0.9176,-0.1924,-1.0992,0.4192,0.1388,-0.2696,0.6129,0.7408,
3.797990,-0.0597,-0.9176,-0.1924,-0.9216,0.5632,0.2923,-0.2696,0.6129,0.7408,
3.805031,-0.0597,-0.9176,-0.1924,-0.9216,0.5632,0.2923,-0.3453,0.8542,1.0237,
3.814764,-0.0597,-0.9176,-0.1924,-0.9216,0.5632,0.2923,-0.3007,0.8817,1.0829,
3.816844,0.1097,-0.9772,-0.1002,-0.9216,0.5632,0.2923,-0.3007,0.8817,1.0829,
3.818002,0.1097,-0.9772,-0.1002,0.8972,-0.0280,1.2452,-0.3007,0.8817,1.0829,
3.824768,0.1097,-0.9772,-0.1002,0.8972,-0.0280,1.2452,-0.1896,0.8621,1.0689,
3.834873,0.1097,-0.9772,-0.1002,0.8972,-0.0280,1.2452,-0.0020,0.6770,0.9705,
3.836838,0.2585,-0.9940,-0.1233,0.8972,-0.0280,1.2452,-0.0020,0.6770,0.9705,
3.838698,0.2585,-0.9940,-0.1233,2.4859,-0.1898,1.0164,-0.0020,0.6770,0.9705,
3.844783,0.2585,-0.9940,-0.1233,2.4859,-0.1898,1.0164,0.1263,0.5249,0.8343,
3.854844,0.2585,-0.9940,-0.1233,2.4859,-0.1898,1.0164,0.2362,0.3741,0.5667,
3.857529,0.4555,-1.1337,-0.0903,2.4859,-0.1898,1.0164,0.2362,0.3741,0.5667,
3.858966,0.4555,-1.1337,-0.0903,4.4522,-1.5437,1.2719,0.2362,0.3741,0.5667,
3.864924,0.4555,-1.1337,-0.0903,4.4522,-1.5437,1.2719,0.3999,0.1859,0.2528,
3.874840,0.4555,-1.1337,-0.0903,4.4522,-1.5437,1.2719,0.4738,0.0301,0.2454,
3.876898,-0.2075,-1.0098,-0.0833,4.4522,-1.5437,1.2719,0.4738,0.0301,0.2454,
3.877946,-0.2075,-1.0098,-0.0833,-2.0291,-0.3057,1.2300,0.4738,0.0301,0.2454,
3.884893,-0.2075,-1.0098,-0.0833,-2.0291,-0.3057,1.2300,0.5630,-0.4360,0.5887,
3.894791,-0.2075,-1.0098,-0.0833,-2.0291,-0.3057,1.2300,0.4641,-0.7976,0.8606,
3.896908,0.1175,-0.8133,-0.4120,-2.0291,-0.3057,1.2300,0.4641,-0.7976,0.8606,
3.898014,0.1175,-0.8133,-0.4120,1.2883,1.6397,-2.0885,0.4641,-0.7976,0.8606,
3.904966,0.1175,-0.8133,-0.4120,1.2883,1.6397,-2.0885,0.2979,-1.1360,0.7256,
3.914798,0.1175,-0.8133,-0.4120,1.2883,1.6397,-2.0885,0.2765,-1.6449,0.4421,
3.916831,-0.0169,-0.9489,-0.1641,1.2883,1.6397,-2.0885,0.2765,-1.6449,0.4421,
3.917879,-0.0169,-0.9489,-0.1641,0.1140,0.3199,0.2812,0.2765,-1.6449,0.4421,
3.924823,-0.0169,-0.9489,-0.1641,0.1140,0.3199,0.2812,0.3950,-2.1183,0.3285,
3.934847,-0.0169,-0.9489,-0.1641,0.1140,0.3199,0.2812,0.4708,-2.1586,0.3200,
3.936934,-0.1146,-1.1208,-0.1779,0.1140,0.3199,0.2812,0.4708,-2.1586,0.3200,
3.937971,-0.1146,-1.1208,-0.1779,-0.7114,-1.3504,0.0478,0.4708,-2.1586,0.3200,
3.944748,-0.1146,-1.1208,-0.1779,-0.7114,-1.3504,0.0478,0.3908,-1.7053,0.2796,
3.954779,-0.1146,-1.1208,-0.1779,-0.7114,-1.3504,0.0478,0.2368,-0.9784,0.2137,
3.957629,0.0079,-0.8657,-0.2213,-0.7114,-1.3504,0.0478,0.2368,-0.9784,0.2137,
3.959229,0.0079,-0.8657,-0.2213,0.5718,1.1576,-0.4463,0.2368,-0.9784,0.2137,
3.964792,0.0079,-0.8657,-0.2213,0.5718,1.1576,-0.4463,0.0371,-0.1201,0.1538,
3.974797,0.0079,-0.8657,-0.2213,0.5718,1.1576,-0.4463,-0.1969,0.7271,0.1440,
3.976872,-0.0500,-0.8657,-0.2653,0.5718,1.1576,-0.4463,-0.1969,0.7271,0.1440,
3.977988,-0.0500,-0.8657,-0.2653,0.0140,1.1523,-0.8503,-0.1969,0.7271,0.1440,
3.984827,-0.0500,-0.8657,-0.2653,0.0140,1.1523,-0.8503,-0.5213,1.7357,0.2656,
3.994748,-0.0500,-0.8657,-0.2653,0.0140,1.1523,-0.8503,-0.5316,1.7442,0.2796,
3.996827,0.0519,-0.9115,-0.3134,0.0140,1.1523,-0.8503,-0.5316,1.7442,0.2796,
3.997971,0.0519,-0.9115,-0.3134,0.9882,0.6796,-1.1895,-0.5316,1.7442,0.2796,
4.004842,0.0519,-0.9115,-0.3134,0.9882,0.6796,-1.1895,-0.5884,1.7558,0.2882,
4.014827,0.0519,-0.9115,-0.3134,0.9882,0.6796,-1.1895,-0.6007,1.7076,0.3945,
4.016838,0.2406,-0.9038,-0.1692,0.9882,0.6796,-1.1895,-0.6007,1.7076,0.3945,
4.018134,0.2406,-0.9038,-0.1692,2.7974,0.7284,0.3644,-0.6007,1.7076,0.3945,
4.024826,0.2406,-0.9038,-0.1692,2.7974,0.7284,0.3644,-0.4522,1.1541,0.2479,
4.034864,0.2406,-0.9038,-0.1692,2.7974,0.7284,0.3644,-0.3600,0.6080,0.0768,
4.036802,0.1428,-1.0569,-0.2841,2.7974,0.7284,0.3644,-0.3600,0.6080,0.0768,
4.037823,0.1428,-1.0569,-0.2841,1.7886,-0.7898,-0.6675,-0.3600,0.6080,0.0768,
4.044823,0.1428,-1.0569,-0.2841,1.7886,-0.7898,-0.6675,-0.2580,0.0973,0.0695,
4.054906,0.1428,-1.0569,-0.2841,1.7886,-0.7898,-0.6675,-0.1260,-0.3578,0.1214,
4.057699,-0.0900,-0.9854,-0.2112,1.7886,-0.7898,-0.6675,-0.1260,-0.3578,0.1214,
4.059082,-0.0900,-0.9854,-0.2112,-0.4874,-0.0984,0.0858,-0.1260,-0.3578,0.1214,
4.064907,-0.0900,-0.9854,-0.2112,-0.4874,-0.0984,0.0858,-0.0600,-0.5575,0.1617,
4.074872,-0.0900,-0.9854,-0.2112,-0.4874,-0.0984,0.0858,-0.0246,-0.5899,0.1825,
4.076894,-0.1341,-0.9598,-0.1531,-0.4874,-0.0984,0.0858,-0.0246,-0.5899,0.1825,
4.078027,-0.1341,-0.9598,-0.1531,-0.8670,0.1502,0.6580,-0.0246,-0.5899,0.1825,
4.084903,-0.1341,-0.9598,-0.1531,-0.8670,0.1502,0.6580,-0.0032,-0.5111,0.2185,
4.094767,-0.1341,-0.9598,-0.1531,-0.8670,0.1502,0.6580,-0.0057,-0.3413,0.2460,
4.096869,-0.0248,-0.9474,-0.1917,-0.8670,0.1502,0.6580,-0.0057,-0.3413,0.2460,
4.097844,-0.0248,-0.9474,-0.1917,0.2620,0.2692,0.2752,-0.0057,-0.3413,0.2460,
4.104844,-0.0248,-0.9474,-0.1917,0.2620,0.2692,0.2752,0.0041,-0.1690,0.2466,
4.114802,-0.0248,-0.9474,-0.1917,0.2620,0.2692,0.2752,0.0230,-0.0456,0.2638,
4.116875,-0.0410,-0.9236,-0.2794,0.2620,0.2692,0.2752,0.0230,-0.0456,0.2638,
4.117992,-0.0410,-0.9236,-0.2794,0.1517,0.5005,-0.5866,0.0230,-0.0456,0.2638,
4.124898,-0.0410,-0.9236,-0.2794,0.1517,0.5005,-0.5866,0.0200,0.0521,0.2949,
4.134953,-0.0410,-0.9236,-0.2794,0.1517,0.5005,-0.5866,-0.0081,0.1370,0.3132,
4.136910,-0.0127,-0.9618,-0.2604,0.1517,0.5005,-0.5866,-0.0081,0.1370,0.3132,
4.138202,-0.0127,-0.9618,-0.2604,0.4774,0.1223,-0.3983,-0.0081,0.1370,0.3132,
4.144773,-0.0127,-0.9618,-0.2604,0.4774,0.1223,-0.3983,-0.0405,0.1657,0.3035,
4.154881,-0.0127,-0.9618,-0.2604,0.4774,0.1223,-0.3983,-0.0466,0.1175,0.2228,
4.157563,-0.0776,-0.9749,-0.2160,0.4774,0.1223,-0.3983,-0.0466,0.1175,0.2228,
4.159087,-0.0776,-0.9749,-0.2160,-0.1175,-0.0111,0.0489,-0.0466,0.1175,0.2228,
4.164908,-0.0776,-0.9749,-0.2160,-0.1175,-0.0111,0.0489,-0.0368,0.0515,0.1483,
4.174870,-0.0776,-0.9749,-0.2160,-0.1175,-0.0111,0.0489,0.0658,-0.1495,0.1312,
4.176883,-0.0864,-0.9792,-0.1948,-0.1175,-0.0111,0.0489,0.0658,-0.1495,0.1312,
4.178179,-0.0864,-0.9792,-0.1948,-0.1766,-0.0541,0.2527,0.0658,-0.1495,0.1312,
4.184863,-0.0864,-0.9792,-0.1948,-0.1766,-0.0541,0.2527,0.1220,-0.2686,0.1123,
4.194795,-0.0864,-0.9792,-0.1948,-0.1766,-0.0541,0.2527,0.1611,-0.3645,0.1544,
4.196851,-0.0788,-0.9385,-0.2177,-0.1766,-0.0541,0.2527,0.1611,-0.3645,0.1544,
4.198288,-0.0788,-0.9385,-0.2177,-0.0644,0.3488,-0.0021,0.1611,-0.3645,0.1544,
4.204794,-0.0788,-0.9385,-0.2177,-0.0644,0.3488,-0.0021,0.1580,-0.3810,0.2082,
4.214773,-0.0788,-0.9385,-0.2177,-0.0644,0.3488,-0.0021,0.1177,-0.2820,0.2540,
4.216850,-0.0612,-0.9430,-0.2492,-0.0644,0.3488,-0.0021,0.1177,-0.2820,0.2540,
4.218130,-0.0612,-0.9430,-0.2492,0.1643,0.3067,-0.3405,0.1177,-0.2820,0.2540,
4.224854,-0.0612,-0.9430,-0.2492,0.1643,0.3067,-0.3405,0.0530,-0.1488,0.3615,
4.234871,-0.0612,-0.9430,-0.2492,0.1643,0.3067,-0.3405,0.0084,0.0320,0.3853,
4.236822,-0.0215,-1.0238,-0.2089,0.1643,0.3067,-0.3405,0.0084,0.0320,0.3853,
4.237883,-0.0215,-1.0238,-0.2089,0.6229,-0.4892,0.0489,0.0084,0.0320,0.3853,
4.244829,-0.0215,-1.0238,-0.2089,0.6229,-0.4892,0.0489,0.0181,0.2818,0.3926,
4.254907,-0.0215,-1.0238,-0.2089,0.6229,-0.4892,0.0489,0.0389,0.4907,0.4556,
4.257690,-0.2471,-0.9423,-0.2121,0.6229,-0.4892,0.0489,0.0389,0.4907,0.4556,
4.259046,-0.2471,-0.9423,-0.2121,-1.5226,0.3029,0.0195,0.0389,0.4907,0.4556,
4.264830,-0.2471,-0.9423,-0.2121,-1.5226,0.3029,0.0195,0.0737,0.6917,0.5600,
4.274851,-0.2471,-0.9423,-0.2121,-1.5226,0.3029,0.0195,0.1165,0.7870,0.5826,
4.276895,-0.0942,-0.9290,-0.2196,-1.5226,0.3029,0.0195,0.1165,0.7870,0.5826,
4.278132,-0.0942,-0.9290,-0.2196,0.0540,0.4266,-0.0584,0.1165,0.7870,0.5826,
4.284815,-0.0942,-0.9290,-0.2196,0.0540,0.4266,-0.0584,0.1586,0.7754,0.4134,
4.294796,-0.0942,-0.9290,-0.2196,0.0540,0.4266,-0.0584,0.1983,0.7650,0.2674,
4.296880,-0.1851,-0.9318,-0.2486,0.0540,0.4266,-0.0584,0.1983,0.7650,0.2674,
4.297957,-0.1851,-0.9318,-0.2486,-0.8015,0.3990,-0.3587,0.1983,0.7650,0.2674,
4.304910,-0.1851,-0.9318,-0.2486,-0.8015,0.3990,-0.3587,0.2057,0.7400,0.2528,
4.314860,-0.1851,-0.9318,-0.2486,-0.8015,0.3990,-0.3587,0.1837,0.7455,0.2900,
4.316961,-0.0727,-0.9706,-0.2685,-0.8015,0.3990,-0.3587,0.1837,0.7455,0.2900,
4.318111,-0.0727,-0.9706,-0.2685,0.3215,0.0200,-0.5724,0.1837,0.7455,0.2900,
4.324890,-0.0727,-0.9706,-0.2685,0.3215,0.0200,-0.5724,0.1629,0.7412,0.2680,
4.334949,-0.0727,-0.9706,-0.2685,0.3215,0.0200,-0.5724,0.1299,0.7137,0.2192,
4.337123,-0.0618,-0.9776,-0.2628,0.3215,0.0200,-0.5724,0.1299,0.7137,0.2192,
4.338666,-0.0618,-0.9776,-0.2628,0.4434,-0.0481,-0.5244,0.1299,0.7137,0.2192,
4.344864,-0.0618,-0.9776,-0.2628,0.4434,-0.0481,-0.5244,0.0695,0.6990,0.2204,
4.354851,-0.0618,-0.9776,-0.2628,0.4434,-0.0481,-0.5244,-0.0698,1.0704,0.2692,
4.357875,-0.2504,-0.6988,-0.2068,0.4434,-0.0481,-0.5244,-0.0698,1.0704,0.2692,
4.359304,-0.2504,-0.6988,-0.2068,-1.3880,2.6763,0.0494,-0.0698,1.0704,0.2692,
4.364936,-0.2504,-0.6988,-0.2068,-1.3880,2.6763,0.0494,-0.1450,1.5090,0.4305,
4.374792,-0.2504,-0.6988,-0.2068,-1.3880,2.6763,0.0494,-0.2739,1.8151,0.5429,
4.376952,-0.1151,-0.8503,-0.2648,-1.3880,2.6763,0.0494,-0.2739,1.8151,0.5429,
4.378061,-0.1151,-0.8503,-0.2648,-0.0341,1.1704,-0.4367,-0.2739,1.8151,0.5429,
4.384923,-0.1151,-0.8503,-0.2648,-0.0341,1.1704,-0.4367,-0.4174,1.9507,0.5771,
4.394805,-0.1151,-0.8503,-0.2648,-0.0341,1.1704,-0.4367,-0.4932,1.9263,0.5160,
4.396852,0.0199,-1.0399,-0.1939,-0.0341,1.1704,-0.4367,-0.4932,1.9263,0.5160,
4.397996,0.0199,-1.0399,-0.1939,1.3048,-0.7198,0.3885,-0.4932,1.9263,0.5160,
4.404911,0.0199,-1.0399,-0.1939,1.3048,-0.7198,0.3885,-0.4522,1.7705,0.3603,
4.414783,0.0199,-1.0399,-0.1939,1.3048,-0.7198,0.3885,-0.3893,1.4113,0.1623,
4.416899,0.2157,-0.9710,-0.2091,1.3048,-0.7198,0.3885,-0.3893,1.4113,0.1623,
4.417975,0.2157,-0.9710,-0.2091,3.1727,-0.0665,0.3508,-0.3893,1.4113,0.1623,
4.424943,0.2157,-0.9710,-0.2091,3.1727,-0.0665,0.3508,-0.3502,0.9758,0.0261,
4.434909,0.2157,-0.9710,-0.2091,3.1727,-0.0665,0.3508,-0.2861,0.7455,-0.1052,
4.436964,0.1832,-0.8479,-0.2073,3.1727,-0.0665,0.3508,-0.2861,0.7455,-0.1052,
4.438015,0.1832,-0.8479,-0.2073,2.7522,1.1324,0.4412,-0.2861,0.7455,-0.1052,
4.444855,0.1832,-0.8479,-0.2073,2.7522,1.1324,0.4412,-0.2488,0.6734,-0.1932,
4.454825,0.1832,-0.8479,-0.2073,2.7522,1.1324,0.4412,-0.2042,0.6373,-0.2384,
4.457905,0.0566,-0.8844,-0.1583,2.7522,1.1324,0.4412,-0.2042,0.6373,-0.2384,
4.459237,0.0566,-0.8844,-0.1583,1.3894,0.7748,0.9634,-0.2042,0.6373,-0.2384,
4.464810,0.0566,-0.8844,-0.1583,1.3894,0.7748,0.9634,-0.1242,0.5976,-0.2396,
4.474753,0.0566,-0.8844,-0.1583,1.3894,0.7748,0.9634,-0.0289,0.5194,-0.1779,
4.476973,-0.1444,-0.9341,-0.1965,1.3894,0.7748,0.9634,-0.0289,0.5194,-0.1779,
4.478187,-0.1444,-0.9341,-0.1965,-0.6633,0.2908,0.6029,-0.0289,0.5194,-0.1779,
4.484851,-0.1444,-0.9341,-0.1965,-0.6633,0.2908,0.6029,0.0401,0.4168,-0.0753,
4.494771,-0.1444,-0.9341,-0.1965,-0.6633,0.2908,0.6029,0.0682,0.3148,0.0335,
4.496919,-0.2469,-0.9438,-0.3104,-0.6633,0.2908,0.6029,0.0682,0.3148,0.0335,
4.498069,-0.2469,-0.9438,-0.3104,-1.6902,0.1996,-0.5186,0.0682,0.3148,0.0335,
4.504904,-0.2469,-0.9438,-0.3104,-1.6902,0.1996,-0.5186,0.0633,0.2415,0.1288,
4.514812,-0.2469,-0.9438,-0.3104,-1.6902,0.1996,-0.5186,0.0530,0.2055,0.1996,
4.516909,-0.1901,-0.9634,-0.2858,-1.6902,0.1996,-0.5186,0.0530,0.2055,0.1996,
4.518061,-0.1901,-0.9634,-0.2858,-1.1107,0.0072,-0.2860,0.0530,0.2055,0.1996,
4.524816,-0.1901,-0.9634,-0.2858,-1.1107,0.0072,-0.2860,0.0524,0.2409,0.2399,
4.534975,-0.1901,-0.9634,-0.2858,-1.1107,0.0072,-0.2860,0.1000,0.4223,0.2424,
4.536920,-0.1334,-0.9500,-0.3014,-1.1107,0.0072,-0.2860,0.1000,0.4223,0.2424,
4.537984,-0.1334,-0.9500,-0.3014,-0.5224,0.1383,-0.4461,0.1000,0.4223,0.2424,
4.544876,-0.1334,-0.9500,-0.3014,-0.5224,0.1383,-0.4461,0.0908,0.4358,0.2503,
4.554860,-0.1334,-0.9500,-0.3014,-0.5224,0.1383,-0.4461,0.1263,0.5072,0.2283,
4.557813,-0.0506,-0.9496,-0.2555,-0.5224,0.1383,-0.4461,0.1263,0.5072,0.2283,
4.559237,-0.0506,-0.9496,-0.2555,0.3120,0.1432,-0.0094,0.1263,0.5072,0.2283,
4.564843,-0.0506,-0.9496,-0.2555,0.3120,0.1432,-0.0094,0.1678,0.5310,0.2149,
4.574805,-0.0506,-0.9496,-0.2555,0.3120,0.1432,-0.0094,0.2051,0.4779,0.1990,
4.576898,-0.0340,-0.9376,-0.2576,0.3120,0.1432,-0.0094,0.2051,0.4779,0.1990,
4.578014,-0.0340,-0.9376,-0.2576,0.4886,0.2662,-0.0559,0.2051,0.4779,0.1990,
4.584846,-0.0340,-0.9376,-0.2576,0.4886,0.2662,-0.0559,0.2301,0.4156,0.1733,
4.594863,-0.0340,-0.9376,-0.2576,0.4886,0.2662,-0.0559,0.2448,0.3960,0.1391,
4.596926,-0.0541,-0.9240,-0.2456,0.4886,0.2662,-0.0559,0.2448,0.3960,0.1391,
4.598015,-0.0541,-0.9240,-0.2456,0.2999,0.4091,0.0245,0.2448,0.3960,0.1391,
4.604783,-0.0541,-0.9240,-0.2456,0.2999,0.4091,0.0245,0.2533,0.4211,0.1043,
4.614849,-0.0541,-0.9240,-0.2456,0.2999,0.4091,0.0245,0.2607,0.4608,0.0732,
4.617114,-0.0738,-0.9276,-0.2481,0.2999,0.4091,0.0245,0.2607,0.4608,0.0732,
4.619044,-0.0738,-0.9276,-0.2481,0.1019,0.3839,-0.0394,0.2607,0.4608,0.0732,
4.625243,-0.0738,-0.9276,-0.2481,0.1019,0.3839,-0.0394,0.2643,0.4920,0.0493,
4.634997,-0.0738,-0.9276,-0.2481,0.1019,0.3839,-0.0394,0.2637,0.5023,0.0365,
4.637100,-0.0671,-0.9453,-0.2607,0.1019,0.3839,-0.0394,0.2637,0.5023,0.0365,
4.638481,-0.0671,-0.9453,-0.2607,0.1514,0.2217,-0.2026,0.2637,0.5023,0.0365,
4.645124,-0.0671,-0.9453,-0.2607,0.1514,0.2217,-0.2026,0.2619,0.5036,0.0316,
4.654889,-0.0671,-0.9453,-0.2607,0.1514,0.2217,-0.2026,0.2655,0.5188,0.0243,
4.657978,-0.0707,-0.9142,-0.2759,0.1514,0.2217,-0.2026,0.2655,0.5188,0.0243,
4.659444,-0.0707,-0.9142,-0.2759,0.0961,0.5380,-0.3905,0.2655,0.5188,0.0243,
4.664765,-0.0707,-0.9142,-0.2759,0.0961,0.5380,-0.3905,0.2753,0.5579,0.0060,
4.674755,-0.0707,-0.9142,-0.2759,0.0961,0.5380,-0.3905,0.2784,0.6153,-0.0179,
4.676984,-0.1010,-0.8850,-0.2941,0.0961,0.5380,-0.3905,0.2784,0.6153,-0.0179,
4.678318,-0.1010,-0.8850,-0.2941,-0.2281,0.8350,-0.6050,0.2784,0.6153,-0.0179,
4.684827,-0.1010,-0.8850,-0.2941,-0.2281,0.8350,-0.6050,0.2662,0.6709,-0.0435,
4.694754,-0.1010,-0.8850,-0.2941,-0.2281,0.8350,-0.6050,0.2466,0.7161,-0.0637,
4.696909,-0.1509,-0.8877,-0.2717,-0.2281,0.8350,-0.6050,0.2466,0.7161,-0.0637,
4.698026,-0.1509,-0.8877,-0.2717,-0.7527,0.8184,-0.4136,0.2466,0.7161,-0.0637,
4.704746,-0.1509,-0.8877,-0.2717,-0.7527,0.8184,-0.4136,0.2289,0.7497,-0.0728,
4.714716,-0.1509,-0.8877,-0.2717,-0.7527,0.8184,-0.4136,0.2136,0.7418,-0.0686,
4.716891,-0.1510,-0.9063,-0.2460,-0.7527,0.8184,-0.4136,0.2136,0.7418,-0.0686,
4.718100,-0.1510,-0.9063,-0.2460,-0.7914,0.6444,-0.1843,0.2136,0.7418,-0.0686,
4.724882,-0.1510,-0.9063,-0.2460,-0.7914,0.6444,-0.1843,0.2405,0.6569,-0.0417,
4.734859,-0.1510,-0.9063,-0.2460,-0.7914,0.6444,-0.1843,0.2729,0.5866,-0.0289,
4.736902,-0.1267,-0.9256,-0.2498,-0.7914,0.6444,-0.1843,0.2729,0.5866,-0.0289,
4.738157,-0.1267,-0.9256,-0.2498,-0.5767,0.4641,-0.2525,0.2729,0.5866,-0.0289,
4.744810,-0.1267,-0.9256,-0.2498,-0.5767,0.4641,-0.2525,0.3101,0.5023,-0.0270,
4.754794,-0.1267,-0.9256,-0.2498,-0.5767,0.4641,-0.2525,0.3535,0.4144,-0.0398,
4.758284,-0.0781,-0.9295,-0.2618,-0.5767,0.4641,-0.2525,0.3535,0.4144,-0.0398,
4.759819,-0.0781,-0.9295,-0.2618,-0.1180,0.4378,-0.4171,0.3535,0.4144,-0.0398,
4.764813,-0.0781,-0.9295,-0.2618,-0.1180,0.4378,-0.4171,0.4079,0.3460,-0.0679,
4.774863,-0.0781,-0.9295,-0.2618,-0.1180,0.4378,-0.4171,0.4714,0.3001,-0.1113,
4.777051,-0.0564,-0.9105,-0.2825,-0.1180,0.4378,-0.4171,0.4714,0.3001,-0.1113,
4.778052,-0.0564,-0.9105,-0.2825,0.0699,0.6397,-0.6870,0.4714,0.3001,-0.1113,
4.784878,-0.0564,-0.9105,-0.2825,0.0699,0.6397,-0.6870,0.5276,0.2800,-0.1584,
4.794806,-0.0564,-0.9105,-0.2825,0.0699,0.6397,-0.6870,0.5526,0.2769,-0.1987,
4.796874,-0.0778,-0.9086,-0.3064,0.0699,0.6397,-0.6870,0.5526,0.2769,-0.1987,
4.797981,-0.0778,-0.9086,-0.3064,-0.1772,0.6781,-0.9998,0.5526,0.2769,-0.1987,
4.804789,-0.0778,-0.9086,-0.3064,-0.1772,0.6781,-0.9998,0.5362,0.3044,-0.2194,
4.814809,-0.0778,-0.9086,-0.3064,-0.1772,0.6781,-0.9998,0.4848,0.3728,-0.2182,
4.816898,-0.1022,-0.9254,-0.2603,-0.1772,0.6781,-0.9998,0.4848,0.3728,-0.2182,
4.817985,-0.1022,-0.9254,-0.2603,-0.4614,0.5303,-0.6205,0.4848,0.3728,-0.2182,
4.825028,-0.1022,-0.9254,-0.2603,-0.4614,0.5303,-0.6205,0.4250,0.4803,-0.1938,
4.834917,-0.1022,-0.9254,-0.2603,-0.4614,0.5303,-0.6205,0.4048,0.6068,-0.1437,
4.836854,-0.1083,-0.9938,-0.1434,-0.4614,0.5303,-0.6205,0.4048,0.6068,-0.1437,
4.838463,-0.1083,-0.9938,-0.1434,-0.5647,-0.1251,0.4615,0.4048,0.6068,-0.1437,
4.844837,-0.1083,-0.9938,-0.1434,-0.5647,-0.1251,0.4615,0.4604,0.7418,-0.0698,
4.854795,-0.1083,-0.9938,-0.1434,-0.5647,-0.1251,0.4615,0.5862,0.8713,0.0047,
4.858449,-0.0743,-1.0698,-0.0738,-0.5647,-0.1251,0.4615,0.5862,0.8713,0.0047,
4.859827,-0.0743,-1.0698,-0.0738,-0.2605,-0.8510,1.0527,0.5862,0.8713,0.0047,
4.864801,-0.0743,-1.0698,-0.0738,-0.2605,-0.8510,1.0527,0.7298,0.9941,0.0597,
4.875098,-0.0743,-1.0698,-0.0738,-0.2605,-0.8510,1.0527,0.8269,1.1040,0.0866,
4.877099,-0.0553,-1.1252,-0.1814,-0.2605,-0.8510,1.0527,0.8269,1.1040,0.0866,
4.878157,-0.0553,-1.1252,-0.1814,-0.0929,-1.3679,-0.1409,0.8269,1.1040,0.0866,
4.884954,-0.0553,-1.1252,-0.1814,-0.0929,-1.3679,-0.1409,0.8343,1.1627,0.0976,
4.894811,-0.0553,-1.1252,-0.1814,-0.0929,-1.3679,-0.1409,0.7677,1.1444,0.1165,
4.896885,-0.0342,-1.0677,-0.1027,-0.0929,-1.3679,-0.1409,0.7677,1.1444,0.1165,
4.897880,-0.0342,-1.0677,-0.1027,0.1006,-0.7813,0.4860,0.7677,1.1444,0.1165,
4.904971,-0.0342,-1.0677,-0.1027,0.1006,-0.7813,0.4860,0.5789,0.9623,0.2088,
4.914873,-0.0342,-1.0677,-0.1027,0.1006,-0.7813,0.4860,0.5490,0.9483,0.2039,
4.916868,0.0633,-0.8964,-0.0484,0.1006,-0.7813,0.4860,0.5490,0.9483,0.2039,
4.917874,0.0633,-0.8964,-0.0484,1.0673,0.9128,0.9172,0.5490,0.9483,0.2039,
4.925106,0.0633,-0.8964,-0.0484,1.0673,0.9128,0.9172,0.5496,1.0240,0.1410,
4.934920,0.0633,-0.8964,-0.0484,1.0673,0.9128,0.9172,0.5209,1.1499,0.0481,
4.936778,0.0976,-0.8367,-0.1345,1.0673,0.9128,0.9172,0.5209,1.1499,0.0481,
4.937826,0.0976,-0.8367,-0.1345,1.3862,1.5108,-0.0202,0.5209,1.1499,0.0481,
4.944821,0.0976,-0.8367,-0.1345,1.3862,1.5108,-0.0202,0.4415,1.2763,-0.0618,
4.954878,0.0976,-0.8367,-0.1345,1.3862,1.5108,-0.0202,0.3462,1.3264,-0.1449,
4.958497,0.0272,-0.9331,-0.0351,1.3862,1.5108,-0.0202,0.3462,1.3264,-0.1449,
4.960068,0.0272,-0.9331,-0.0351,0.6368,0.5775,0.8864,0.3462,1.3264,-0.1449,
4.964855,0.0272,-0.9331,-0.0351,0.6368,0.5775,0.8864,0.2833,1.2971,-0.1895,
4.975079,0.0272,-0.9331,-0.0351,0.6368,0.5775,0.8864,0.2655,1.2525,-0.2054,
4.977120,-0.0435,-1.0330,0.1384,0.6368,0.5775,0.8864,0.2655,1.2525,-0.2054,
4.978087,-0.0435,-1.0330,0.1384,-0.1308,-0.3916,2.5248,0.2655,1.2525,-0.2054,
4.984966,-0.0435,-1.0330,0.1384,-0.1308,-0.3916,2.5248,0.2710,1.2225,-0.1889,
4.994855,-0.0435,-1.0330,0.1384,-0.1308,-0.3916,2.5248,0.2771,1.2054,-0.1351,
4.996897,-0.0701,-1.0834,0.2226,-0.1308,-0.3916,2.5248,0.2771,1.2054,-0.1351,
4.997955,-0.0701,-1.0834,0.2226,-0.4516,-0.8721,3.2537,0.2771,1.2054,-0.1351,
5.004942,-0.0701,-1.0834,0.2226,-0.4516,-0.8721,3.2537,0.2900,1.1834,-0.0515,
5.014789,-0.0701,-1.0834,0.2226,-0.4516,-0.8721,3.2537,0.3266,1.1303,0.0451,
5.016824,0.0018,-1.0421,0.2792,-0.4516,-0.8721,3.2537,0.3266,1.1303,0.0451,
5.017924,0.0018,-1.0421,0.2792,0.2265,-0.4531,3.6754,0.3266,1.1303,0.0451,
5.025199,0.0018,-1.0421,0.2792,0.2265,-0.4531,3.6754,0.3993,1.0002,0.1318,
5.034935,0.0018,-1.0421,0.2792,0.2265,-0.4531,3.6754,0.4983,0.7638,0.1825,
5.036928,0.1467,-0.9609,0.2530,0.2265,-0.4531,3.6754,0.4983,0.7638,0.1825,
5.037900,0.1467,-0.9609,0.2530,1.6410,0.3582,3.2451,0.4983,0.7638,0.1825,
5.044710,0.1467,-0.9609,0.2530,1.6410,0.3582,3.2451,0.6021,0.4406,0.2033,
5.054823,0.1467,-0.9609,0.2530,1.6410,0.3582,3.2451,0.6840,0.0808,0.1990,
5.056933,0.2425,-0.9827,0.1103,1.6410,0.3582,3.2451,0.6840,0.0808,0.1990,
5.058191,0.2425,-0.9827,0.1103,2.5716,0.1578,1.6446,0.6840,0.0808,0.1990,
5.064750,0.2425,-0.9827,0.1103,2.5716,0.1578,1.6446,0.7158,-0.2338,0.1782,
5.075183,0.2425,-0.9827,0.1103,2.5716,0.1578,1.6446,0.6742,-0.4714,0.1526,
5.077087,0.2333,-1.0177,0.0634,2.5716,0.1578,1.6446,0.6742,-0.4714,0.1526,
5.078116,0.2333,-1.0177,0.0634,2.4591,-0.1747,0.9864,0.6742,-0.4714,0.1526,
5.084936,0.2333,-1.0177,0.0634,2.4591,-0.1747,0.9864,0.5746,-0.6400,0.1269,
5.094810,0.2333,-1.0177,0.0634,2.4591,-0.1747,0.9864,0.3596,-0.8941,0.0872,
5.096986,0.2168,-1.0494,0.0832,2.4591,-0.1747,0.9864,0.3596,-0.8941,0.0872,
5.098083,0.2168,-1.0494,0.0832,2.2573,-0.4810,1.0348,0.3596,-0.8941,0.0872,
5.104940,0.2168,-1.0494,0.0832,2.2573,-0.4810,1.0348,0.2851,-1.0768,0.0780,
5.114894,0.2168,-1.0494,0.0832,2.2573,-0.4810,1.0348,0.2246,-1.3009,0.0732,
5.116948,0.2180,-1.0688,0.0716,2.2573,-0.4810,1.0348,0.2246,-1.3009,0.0732,
5.118059,0.2180,-1.0688,0.0716,2.2186,-0.6691,0.8248,0.2246,-1.3009,0.0732,
5.125407,0.2180,-1.0688,0.0716,2.2186,-0.6691,0.8248,0.1733,-1.5209,0.0603,
5.134887,0.2180,-1.0688,0.0716,2.2186,-0.6691,0.8248,0.1244,-1.7011,0.0328,
5.136921,0.2105,-1.0464,0.0244,2.2186,-0.6691,0.8248,0.1244,-1.7011,0.0328,
5.137975,0.2105,-1.0464,0.0244,2.0854,-0.4479,0.2984,0.1244,-1.7011,0.0328,
5.144782,0.2105,-1.0464,0.0244,2.0854,-0.4479,0.2984,0.0707,-1.8391,-0.0069,
5.154830,0.2105,-1.0464,0.0244,2.0854,-0.4479,0.2984,0.0084,-1.9515,-0.0545,
5.157294,0.1473,-1.0238,-0.0344,2.0854,-0.4479,0.2984,0.0084,-1.9515,-0.0545,
5.158345,0.1473,-1.0238,-0.0344,1.3973,-0.2264,-0.3065,0.0084,-1.9515,-0.0545,
5.164888,0.1473,-1.0238,-0.0344,1.3973,-0.2264,-0.3065,-0.0521,-2.0609,-0.1052,
5.175282,0.1473,-1.0238,-0.0344,1.3973,-0.2264,-0.3065,-0.0949,-2.1598,-0.1541,
5.177108,0.0657,-1.0531,-0.0496,1.3973,-0.2264,-0.3065,-0.0949,-2.1598,-0.1541,
5.178332,0.0657,-1.0531,-0.0496,0.5342,-0.5143,-0.4455,-0.0949,-2.1598,-0.1541,
5.184926,0.0657,-1.0531,-0.0496,0.5342,-0.5143,-0.4455,-0.1150,-2.2288,-0.2054,
5.194824,0.0657,-1.0531,-0.0496,0.5342,-0.5143,-0.4455,-0.1230,-2.2533,-0.2512,
5.196856,-0.0573,-1.0749,-0.0487,0.5342,-0.5143,-0.4455,-0.1230,-2.2533,-0.2512,
5.197932,-0.0573,-1.0749,-0.0487,-0.7258,-0.7295,-0.4095,-0.1230,-2.2533,-0.2512,
5.204967,-0.0573,-1.0749,-0.0487,-0.7258,-0.7295,-0.4095,-0.1126,-2.2056,-0.2677,
5.214762,-0.0573,-1.0749,-0.0487,-0.7258,-0.7295,-0.4095,-0.0936,-2.1262,-0.2585,
5.216843,-0.1808,-1.0583,0.0128,-0.7258,-0.7295,-0.4095,-0.0936,-2.1262,-0.2585,
5.218591,-0.1808,-1.0583,0.0128,-1.9835,-0.5678,0.2213,-0.0936,-2.1262,-0.2585,
5.225056,-0.1808,-1.0583,0.0128,-1.9835,-0.5678,0.2213,-0.0655,-2.0309,-0.2249,
5.234741,-0.1808,-1.0583,0.0128,-1.9835,-0.5678,0.2213,-0.0258,-1.9081,-0.1700,
5.236741,-0.2769,-1.0111,0.1362,-1.9835,-0.5678,0.2213,-0.0258,-1.9081,-0.1700,
5.237765,-0.2769,-1.0111,0.1362,-2.9387,-0.1049,1.4360,-0.0258,-1.9081,-0.1700,
5.244690,-0.2769,-1.0111,0.1362,-2.9387,-0.1049,1.4360,0.0151,-1.7487,-0.0954,
5.254732,-0.2769,-1.0111,0.1362,-2.9387,-0.1049,1.4360,0.0328,-1.5935,0.0023,
5.256945,-0.1752,-1.0416,0.0276,-2.9387,-0.1049,1.4360,0.0328,-1.5935,0.0023,
5.258039,-0.1752,-1.0416,0.0276,-1.9139,-0.4034,0.3614,0.0328,-1.5935,0.0023,
5.264676,-0.1752,-1.0416,0.0276,-1.9139,-0.4034,0.3614,0.0053,-1.5367,0.0976,
5.275395,-0.1752,-1.0416,0.0276,-1.9139,-0.4034,0.3614,-0.1089,-1.6626,0.1660,
5.277164,-0.0093,-0.9905,-0.0603,-1.9139,-0.4034,0.3614,-0.1089,-1.6626,0.1660,
5.278206,-0.0093,-0.9905,-0.0603,-0.2401,0.0977,-0.4890,-0.1089,-1.6626,0.1660,
5.284911,-0.0093,-0.9905,-0.0603,-0.2401,0.0977,-0.4890,-0.1327,-1.7059,0.1330,
5.294765,-0.0093,-0.9905,-0.0603,-0.2401,0.0977,-0.4890,-0.1431,-1.7353,0.0445,
5.296871,0.0448,-0.9385,-0.1180,-0.2401,0.0977,-0.4890,-0.1431,-1.7353,0.0445,
5.297732,0.0448,-0.9385,-0.1180,0.3196,0.6077,-1.0207,-0.1431,-1.7353,0.0445,
5.304931,0.0448,-0.9385,-0.1180,0.3196,0.6077,-1.0207,-0.1633,-1.7823,-0.0826,
5.314735,0.0448,-0.9385,-0.1180,0.3196,0.6077,-1.0207,-0.2079,-1.8501,-0.1981,
5.316892,-0.0261,-0.9379,-0.1059,0.3196,0.6077,-1.0207,-0.2079,-1.8501,-0.1981,
5.317881,-0.0261,-0.9379,-0.1059,-0.3896,0.6127,-0.8564,-0.2079,-1.8501,-0.1981,
5.325694,-0.0261,-0.9379,-0.1059,-0.3896,0.6127,-0.8564,-0.2684,-1.9136,-0.2646,
5.334859,-0.0261,-0.9379,-0.1059,-0.3896,0.6127,-0.8564,-0.3294,-1.9381,-0.2946,
5.336912,-0.0765,-0.9297,-0.0751,-0.3896,0.6127,-0.8564,-0.3294,-1.9381,-0.2946,
5.339554,-0.0765,-0.9297,-0.0751,-0.9168,0.6908,-0.4842,-0.3294,-1.9381,-0.2946,
5.344831,-0.0765,-0.9297,-0.0751,-0.9168,0.6908,-0.4842,-0.3826,-1.9094,-0.3105,
5.354830,-0.0765,-0.9297,-0.0751,-0.9168,0.6908,-0.4842,-0.4253,-1.8299,-0.3196,
5.356828,-0.0738,-0.9409,-0.0407,-0.9168,0.6908,-0.4842,-0.4253,-1.8299,-0.3196,
5.357883,-0.0738,-0.9409,-0.0407,-0.9252,0.5773,-0.0566,-0.4253,-1.8299,-0.3196,
5.364775,-0.0738,-0.9409,-0.0407,-0.9252,0.5773,-0.0566,-0.4559,-1.7163,-0.3245,
5.375606,-0.0738,-0.9409,-0.0407,-0.9252,0.5773,-0.0566,-0.4718,-1.5667,-0.3263,
5.377658,-0.0525,-0.9363,-0.0286,-0.9252,0.5773,-0.0566,-0.4718,-1.5667,-0.3263,
5.378660,-0.0525,-0.9363,-0.0286,-0.7510,0.6181,0.1607,-0.4718,-1.5667,-0.3263,
5.384889,-0.0525,-0.9363,-0.0286,-0.7510,0.6181,0.1607,-0.4724,-1.3785,-0.3294,
5.394766,-0.0525,-0.9363,-0.0286,-0.7510,0.6181,0.1607,-0.4547,-1.1623,-0.3392,
5.396889,-0.0490,-0.9330,-0.0551,-0.7510,0.6181,0.1607,-0.4547,-1.1623,-0.3392,
5.397928,-0.0490,-0.9330,-0.0551,-0.7514,0.6447,-0.0026,-0.4547,-1.1623,-0.3392,
5.404885,-0.0490,-0.9330,-0.0551,-0.7514,0.6447,-0.0026,-0.4217,-0.9393,-0.3569,
5.414764,-0.0490,-0.9330,-0.0551,-0.7514,0.6447,-0.0026,-0.3832,-0.7237,-0.3789,
5.416827,-0.0672,-0.9869,-0.1085,-0.7514,0.6447,-0.0026,-0.3832,-0.7237,-0.3789,
5.417803,-0.0672,-0.9869,-0.1085,-0.9710,0.1105,-0.4412,-0.3832,-0.7237,-0.3789,
5.425525,-0.0672,-0.9869,-0.1085,-0.9710,0.1105,-0.4412,-0.3465,-0.5019,-0.4033,
5.434865,-0.0672,-0.9869,-0.1085,-0.9710,0.1105,-0.4412,-0.3062,-0.2674,-0.4253,
5.436790,-0.1052,-1.0587,-0.1140,-0.9710,0.1105,-0.4412,-0.3062,-0.2674,-0.4253,
5.437739,-0.1052,-1.0587,-0.1140,-1.3903,-0.5996,-0.4263,-0.3062,-0.2674,-0.4253,
5.444806,-0.1052,-1.0587,-0.1140,-1.3903,-0.5996,-0.4263,-0.3050,-0.1018,-0.4339,
5.454840,-0.1052,-1.0587,-0.1140,-1.3903,-0.5996,-0.4263,-0.3087,0.0295,-0.4192,
5.456853,-0.1002,-1.0817,-0.0384,-1.3903,-0.5996,-0.4263,-0.3087,0.0295,-0.4192,
5.457893,-0.1002,-1.0817,-0.0384,-1.3893,-0.8308,0.3722,-0.3087,0.0295,-0.4192,
5.464884,-0.1002,-1.0817,-0.0384,-1.3893,-0.8308,0.3722,-0.2971,0.2592,-0.3044,
5.475869,-0.1002,-1.0817,-0.0384,-1.3893,-0.8308,0.3722,-0.2647,0.2238,-0.1852,
5.477483,-0.0031,-1.0648,-0.0170,-1.3893,-0.8308,0.3722,-0.2647,0.2238,-0.1852,
5.478714,-0.0031,-1.0648,-0.0170,-0.4627,-0.6702,0.6268,-0.2647,0.2238,-0.1852,
5.484926,-0.0031,-1.0648,-0.0170,-0.4627,-0.6702,0.6268,-0.1993,0.0729,-0.0777,
5.494837,-0.0031,-1.0648,-0.0170,-0.4627,-0.6702,0.6268,-0.1419,-0.1183,-0.0124,
5.497125,0.1297,-1.0207,-0.0912,-0.4627,-0.6702,0.6268,-0.1419,-0.1183,-0.0124,
5.497868,0.1297,-1.0207,-0.0912,0.8379,-0.2406,-0.0709,-0.1419,-0.1183,-0.0124,
5.504946,0.1297,-1.0207,-0.0912,0.8379,-0.2406,-0.0709,-0.1211,-0.2942,0.0176,
5.514766,0.1297,-1.0207,-0.0912,0.8379,-0.2406,-0.0709,-0.1315,-0.4439,0.0231,
5.516821,0.1896,-0.9387,-0.0811,0.8379,-0.2406,-0.0709,-0.1315,-0.4439,0.0231,
5.517828,0.1896,-0.9387,-0.0811,1.4343,0.5609,0.0548,-0.1315,-0.4439,0.0231,
5.525840,0.1896,-0.9387,-0.0811,1.4343,0.5609,0.0548,-0.1627,-0.5734,0.0072,
5.534881,0.1896,-0.9387,-0.0811,1.4343,0.5609,0.0548,-0.1963,-0.7041,-0.0313,
5.536782,0.2079,-0.8637,-0.0335,1.4343,0.5609,0.0548,-0.1963,-0.7041,-0.0313,
5.537843,0.2079,-0.8637,-0.0335,1.6143,1.2927,0.5572,-0.1963,-0.7041,-0.0313,
5.544898,0.2079,-0.8637,-0.0335,1.6143,1.2927,0.5572,-0.2164,-0.8263,-0.0887,
5.554880,0.2079,-0.8637,-0.0335,1.6143,1.2927,0.5572,-0.2305,-0.8801,-0.1541,
5.556895,0.1801,-0.8668,-0.0893,1.6143,1.2927,0.5572,-0.2305,-0.8801,-0.1541,
5.558257,0.1801,-0.8668,-0.0893,1.3171,1.2574,0.0562,-0.2305,-0.8801,-0.1541,
5.564791,0.1801,-0.8668,-0.0893,1.3171,1.2574,0.0562,-0.2543,-0.8214,-0.2109,
5.575914,0.1801,-0.8668,-0.0893,1.3171,1.2574,0.0562,-0.3093,-0.6369,-0.2701,
5.577973,0.1665,-0.9271,-0.2366,1.3171,1.2574,0.0562,-0.3093,-0.6369,-0.2701,
5.579022,0.1665,-0.9271,-0.2366,1.1319,0.6570,-1.3217,-0.3093,-0.6369,-0.2701,
5.584861,0.1665,-0.9271,-0.2366,1.1319,0.6570,-1.3217,-0.4095,-0.3602,-0.3422,
5.594933,0.1665,-0.9271,-0.2366,1.1319,0.6570,-1.3217,-0.5164,-0.0542,-0.4229,
5.596916,0.2051,-0.9621,-0.2764,1.1319,0.6570,-1.3217,-0.5164,-0.0542,-0.4229,
5.597906,0.2051,-0.9621,-0.2764,1.4139,0.2978,-1.6056,-0.5164,-0.0542,-0.4229,
5.604933,0.2051,-0.9621,-0.2764,1.4139,0.2978,-1.6056,-0.6056,0.1792,-0.4949,
5.614806,0.2051,-0.9621,-0.2764,1.4139,0.2978,-1.6056,-0.6862,0.2568,-0.5530,
5.616817,0.2083,-0.9278,-0.0227,1.4139,0.2978,-1.6056,-0.6862,0.2568,-0.5530,
5.617891,0.2083,-0.9278,-0.0227,1.3132,0.6104,1.0037,-0.6862,0.2568,-0.5530,
5.625913,0.2083,-0.9278,-0.0227,1.3132,0.6104,1.0037,-0.7515,0.1767,-0.5902,
5.634881,0.2083,-0.9278,-0.0227,1.3132,0.6104,1.0037,-0.7601,-0.0096,-0.5994,
5.636836,0.1771,-0.9139,0.0884,1.3132,0.6104,1.0037,-0.7601,-0.0096,-0.5994,
5.637963,0.1771,-0.9139,0.0884,0.8645,0.7171,2.2187,-0.7601,-0.0096,-0.5994,
5.644826,0.1771,-0.9139,0.0884,0.8645,0.7171,2.2187,-0.5078,-0.4060,-0.5566,
5.654756,0.1771,-0.9139,0.0884,0.8645,0.7171,2.2187,-0.3081,-0.4977,-0.5292,
5.656873,0.1689,-0.9456,-0.0147,0.8645,0.7171,2.2187,-0.3081,-0.4977,-0.5292,
5.658237,0.1689,-0.9456,-0.0147,0.6689,0.3874,1.2685,-0.3081,-0.4977,-0.5292,
5.664776,0.1689,-0.9456,-0.0147,0.6689,0.3874,1.2685,-0.1370,-0.5184,-0.5059,
5.675942,0.1689,-0.9456,-0.0147,0.6689,0.3874,1.2685,-0.0509,-0.5160,-0.4925,
5.677941,0.1819,-0.9649,-0.2315,0.6689,0.3874,1.2685,-0.0509,-0.5160,-0.4925,
5.678942,0.1819,-0.9649,-0.2315,0.6996,0.1850,-0.8364,-0.0509,-0.5160,-0.4925,
5.684809,0.1819,-0.9649,-0.2315,0.6996,0.1850,-0.8364,-0.0735,-0.5264,-0.4937,
5.694902,0.1819,-0.9649,-0.2315,0.6996,0.1850,-0.8364,-0.1700,-0.5758,-0.5053,
5.696918,0.2143,-0.9510,-0.2971,0.6996,0.1850,-0.8364,-0.1700,-0.5758,-0.5053,
5.697943,0.2143,-0.9510,-0.2971,0.9237,0.3049,-1.4419,-0.1700,-0.5758,-0.5053,
5.704786,0.2143,-0.9510,-0.2971,0.9237,0.3049,-1.4419,-0.2567,-0.6760,-0.5169,
5.714717,0.2143,-0.9510,-0.2971,0.9237,0.3049,-1.4419,-0.2934,-0.8226,-0.5261,
5.716881,0.2176,-0.9359,-0.2323,0.9237,0.3049,-1.4419,-0.2934,-0.8226,-0.5261,
5.718021,0.2176,-0.9359,-0.2323,0.8651,0.4288,-0.7321,-0.2934,-0.8226,-0.5261,
5.725994,0.2176,-0.9359,-0.2323,0.8651,0.4288,-0.7321,-0.2842,-0.9888,-0.5334,
5.734852,0.2176,-0.9359,-0.2323,0.8651,0.4288,-0.7321,-0.2458,-1.1470,-0.5340,
5.736884,0.1940,-0.9103,-0.2130,0.8651,0.4288,-0.7321,-0.2458,-1.1470,-0.5340,
5.738004,0.1940,-0.9103,-0.2130,0.5541,0.6555,-0.4596,-0.2458,-1.1470,-0.5340,
5.744900,0.1940,-0.9103,-0.2130,0.5541,0.6555,-0.4596,-0.2030,-1.2759,-0.5218,
5.754856,0.1940,-0.9103,-0.2130,0.5541,0.6555,-0.4596,-0.1724,-1.3657,-0.4919,
5.756873,0.1592,-0.8857,-0.1943,0.5541,0.6555,-0.4596,-0.1724,-1.3657,-0.4919,
5.758216,0.1592,-0.8857,-0.1943,0.1522,0.8741,-0.2005,-0.1724,-1.3657,-0.4919,
5.764792,0.1592,-0.8857,-0.1943,0.1522,0.8741,-0.2005,-0.1413,-1.4280,-0.4455,
5.776114,0.1592,-0.8857,-0.1943,0.1522,0.8741,-0.2005,-0.0930,-1.4579,-0.3874,
5.777709,0.1334,-0.8707,-0.1827,0.1522,0.8741,-0.2005,-0.0930,-1.4579,-0.3874,
5.778781,0.1334,-0.8707,-0.1827,-0.1338,1.0045,-0.0211,-0.0930,-1.4579,-0.3874,
5.784910,0.1334,-0.8707,-0.1827,-0.1338,1.0045,-0.0211,-0.0197,-1.4573,-0.3276,
5.794891,0.1334,-0.8707,-0.1827,-0.1338,1.0045,-0.0211,0.0695,-1.4622,-0.2744,
5.797037,0.0870,-0.8486,-0.2729,-0.1338,1.0045,-0.0211,0.0695,-1.4622,-0.2744,
5.798275,0.0870,-0.8486,-0.2729,-0.5954,1.2120,-0.8616,0.0695,-1.4622,-0.2744,
5.804802,0.0870,-0.8486,-0.2729,-0.5954,1.2120,-0.8616,0.1648,-1.5080,-0.2280,
5.814760,0.0870,-0.8486,-0.2729,-0.5954,1.2120,-0.8616,0.2509,-1.5789,-0.1871,
5.816875,0.0870,-0.8659,-0.3593,-0.5954,1.2120,-0.8616,0.2509,-1.5789,-0.1871,
5.818023,0.0870,-0.8659,-0.3593,-0.5779,1.0402,-1.6845,0.2509,-1.5789,-0.1871,
5.826302,0.0870,-0.8659,-0.3593,-0.5779,1.0402,-1.6845,0.3016,-1.5795,-0.1003,
5.834841,0.0870,-0.8659,-0.3593,-0.5779,1.0402,-1.6845,0.2918,-1.4873,-0.0508,
5.836814,0.1116,-0.8807,-0.4333,-0.5779,1.0402,-1.6845,0.2918,-1.4873,-0.0508,
5.838106,0.1116,-0.8807,-0.4333,-0.2922,0.8960,-2.3798,0.2918,-1.4873,-0.0508,
5.844898,0.1116,-0.8807,-0.4333,-0.2922,0.8960,-2.3798,0.2881,-1.3938,0.0078,
5.854860,0.1116,-0.8807,-0.4333,-0.2922,0.8960,-2.3798,0.2991,-1.3608,0.0756,
5.856858,0.1561,-0.8701,-0.4865,-0.2922,0.8960,-2.3798,0.2991,-1.3608,0.0756,
5.858079,0.1561,-0.8701,-0.4865,0.2001,0.9976,-2.8485,0.2991,-1.3608,0.0756,
5.864805,0.1561,-0.8701,-0.4865,0.2001,0.9976,-2.8485,0.2936,-1.3663,0.1300,
5.876232,0.1561,-0.8701,-0.4865,0.2001,0.9976,-2.8485,0.2558,-1.3260,0.1660,
5.877986,0.2215,-0.8465,-0.4925,0.2001,0.9976,-2.8485,0.2558,-1.3260,0.1660,
5.879034,0.2215,-0.8465,-0.4925,0.9048,1.2237,-2.8402,0.2558,-1.3260,0.1660,
5.884877,0.2215,-0.8465,-0.4925,0.9048,1.2237,-2.8402,0.2008,-1.2130,0.1911,
5.895001,0.2215,-0.8465,-0.4925,0.9048,1.2237,-2.8402,0.1702,-1.0841,0.2069,
5.896935,0.1983,-0.8045,-0.3826,0.9048,1.2237,-2.8402,0.1702,-1.0841,0.2069,
5.897919,0.1983,-0.8045,-0.3826,0.7371,1.6270,-1.6867,0.1702,-1.0841,0.2069,
5.904893,0.1983,-0.8045,-0.3826,0.7371,1.6270,-1.6867,0.1922,-0.9888,0.2167,
5.914725,0.1983,-0.8045,-0.3826,0.7371,1.6270,-1.6867,0.2234,-0.8941,0.2320,
5.916864,0.1748,-0.8104,-0.3294,0.7371,1.6270,-1.6867,0.2234,-0.8941,0.2320,
5.917931,0.1748,-0.8104,-0.3294,0.5609,1.5633,-1.1070,0.2234,-0.8941,0.2320,
5.924919,0.1748,-0.8104,-0.3294,0.5609,1.5633,-1.1070,0.2197,-0.7108,0.2491,
5.934841,0.1748,-0.8104,-0.3294,0.5609,1.5633,-1.1070,0.1531,-0.3999,0.2228,
5.936833,0.2481,-1.2874,-0.5226,0.5609,1.5633,-1.1070,0.1531,-0.3999,0.2228,
5.937908,0.2481,-1.2874,-0.5226,1.3193,-3.1173,-2.9525,0.1531,-0.3999,0.2228,
5.944979,0.2481,-1.2874,-0.5226,1.3193,-3.1173,-2.9525,0.0701,-0.1049,0.1465,
5.954836,0.2481,-1.2874,-0.5226,1.3193,-3.1173,-2.9525,0.0206,-0.2191,0.1092,
5.956900,-0.0343,-1.6957,-0.4748,1.3193,-3.1173,-2.9525,0.0206,-0.2191,0.1092,
5.958194,-0.0343,-1.6957,-0.4748,-1.4155,-7.1230,-2.4514,0.0206,-0.2191,0.1092,
5.964763,-0.0343,-1.6957,-0.4748,-1.4155,-7.1230,-2.4514,-0.1553,-0.8654,0.2155,
5.974868,-0.0343,-1.6957,-0.4748,-1.4155,-7.1230,-2.4514,-0.5176,-1.5661,0.4293,
5.977765,0.1390,-0.7051,0.0606,-1.4155,-7.1230,-2.4514,-0.5176,-1.5661,0.4293,
5.979059,0.1390,-0.7051,0.0606,0.3956,2.5754,2.8893,-0.5176,-1.5661,0.4293,
5.984842,0.1390,-0.7051,0.0606,0.3956,2.5754,2.8893,-0.7687,-1.8947,0.5619,
5.994920,0.1390,-0.7051,0.0606,0.3956,2.5754,2.8893,-0.6917,-1.9515,0.5338,
5.997406,0.1465,-0.4896,0.2957,0.3956,2.5754,2.8893,-0.6917,-1.9515,0.5338,
5.998378,0.1465,-0.4896,0.2957,0.6428,4.6679,5.3351,-0.6917,-1.9515,0.5338,
6.004872,0.1465,-0.4896,0.2957,0.6428,4.6679,5.3351,-0.4339,-1.9540,0.4104,
6.014813,0.1465,-0.4896,0.2957,0.6428,4.6679,5.3351,-0.0295,-1.6210,0.2589,
6.017142,-0.0801,-0.9089,0.3836,0.6428,4.6679,5.3351,-0.0295,-1.6210,0.2589,
6.018640,-0.0801,-0.9089,0.3836,-1.4349,0.5773,6.1641,-0.0295,-1.6210,0.2589,
6.024915,-0.0801,-0.9089,0.3836,-1.4349,0.5773,6.1641,0.1354,-1.3620,0.2320,
6.034916,-0.0801,-0.9089,0.3836,-1.4349,0.5773,6.1641,0.3462,-1.2331,0.2405,
6.036832,-0.2449,-1.2807,0.3418,-1.4349,0.5773,6.1641,0.3462,-1.2331,0.2405,
6.037859,-0.2449,-1.2807,0.3418,-2.9173,-3.0181,5.5942,0.3462,-1.2331,0.2405,
6.045618,-0.2449,-1.2807,0.3418,-2.9173,-3.0181,5.5942,0.6260,-1.2618,0.3138,
6.054752,-0.2449,-1.2807,0.3418,-2.9173,-3.0181,5.5942,0.9106,-1.4042,0.4201,
6.056780,-0.2428,-1.2320,0.2311,-2.9173,-3.0181,5.5942,0.9106,-1.4042,0.4201,
6.058190,-0.2428,-1.2320,0.2311,-2.7263,-2.4754,4.2444,0.9106,-1.4042,0.4201,
6.064658,-0.2428,-1.2320,0.2311,-2.7263,-2.4754,4.2444,1.1464,-1.5373,0.5215,
6.074892,-0.2428,-1.2320,0.2311,-2.7263,-2.4754,4.2444,1.3437,-1.6192,0.6193,
6.077309,-0.1388,-1.0235,0.0128,-2.7263,-2.4754,4.2444,1.3437,-1.6192,0.6193,
6.078443,-0.1388,-1.0235,0.0128,-1.4961,-0.3633,1.7678,1.3437,-1.6192,0.6193,
6.084724,-0.1388,-1.0235,0.0128,-1.4961,-0.3633,1.7678,1.4751,-1.6571,0.7011,
6.094759,-0.1388,-1.0235,0.0128,-1.4961,-0.3633,1.7678,1.4127,-1.6821,0.7201,
6.096807,0.0409,-0.9849,-0.3435,-1.4961,-0.3633,1.7678,1.4127,-1.6821,0.7201,
6.097865,0.0409,-0.9849,-0.3435,0.4671,0.0638,-2.0380,1.4127,-1.6821,0.7201,
6.104784,0.0409,-0.9849,-0.3435,0.4671,0.0638,-2.0380,1.1489,-1.8348,0.6523,
6.114654,0.0409,-0.9849,-0.3435,0.4671,0.0638,-2.0380,0.8734,-2.1769,0.5240,
6.116770,0.1736,-0.9909,-0.0892,0.4671,0.0638,-2.0380,0.8734,-2.1769,0.5240,
6.117865,0.1736,-0.9909,-0.0892,1.9240,0.0302,0.2357,0.8734,-2.1769,0.5240,
6.124878,0.1736,-0.9909,-0.0892,1.9240,0.0302,0.2357,0.6950,-2.5373,0.3725,
6.134729,0.1736,-0.9909,-0.0892,1.9240,0.0302,0.2357,0.6253,-2.7108,0.2228,
6.136776,0.1926,-0.9694,0.1033,1.9240,0.0302,0.2357,0.6253,-2.7108,0.2228,
6.137744,0.1926,-0.9694,0.1033,2.1948,0.2569,1.9480,0.6253,-2.7108,0.2228,
6.144807,0.1926,-0.9694,0.1033,2.1948,0.2569,1.9480,0.6510,-2.5996,0.0805,
6.154814,0.1926,-0.9694,0.1033,2.1948,0.2569,1.9480,0.7237,-2.2417,-0.0667,
6.156771,0.0184,-0.8923,0.2023,2.1948,0.2569,1.9480,0.7237,-2.2417,-0.0667,
6.157853,0.0184,-0.8923,0.2023,0.5005,1.0290,2.7174,0.7237,-2.2417,-0.0667,
6.164816,0.0184,-0.8923,0.2023,0.5005,1.0290,2.7174,0.7823,-1.7634,-0.2274,
6.174932,0.0184,-0.8923,0.2023,0.5005,1.0290,2.7174,0.8251,-1.2991,-0.3715,
6.177513,-0.1504,-0.8752,0.1402,0.5005,1.0290,2.7174,0.8251,-1.2991,-0.3715,
6.178906,-0.1504,-0.8752,0.1402,-1.1993,1.2116,1.8968,0.8251,-1.2991,-0.3715,
6.184615,-0.1504,-0.8752,0.1402,-1.1993,1.2116,1.8968,0.8752,-0.9552,-0.4699,
6.194833,-0.1504,-0.8752,0.1402,-1.1993,1.2116,1.8968,0.9467,-0.8923,-0.5145,
6.196773,-0.2862,-0.9446,-0.0037,-1.1993,1.2116,1.8968,0.9467,-0.8923,-0.5145,
6.197989,-0.2862,-0.9446,-0.0037,-2.6001,0.5423,0.2780,0.9467,-0.8923,-0.5145,
6.204939,-0.2862,-0.9446,-0.0037,-2.6001,0.5423,0.2780,0.9479,-1.1409,-0.4785,
6.214877,-0.2862,-0.9446,-0.0037,-2.6001,0.5423,0.2780,0.9326,-1.4427,-0.4314,
6.216949,-0.3139,-0.9563,-0.0596,-2.6001,0.5423,0.2780,0.9326,-1.4427,-0.4314,
6.218134,-0.3139,-0.9563,-0.0596,-2.9081,0.4324,-0.4708,0.9326,-1.4427,-0.4314,
6.224988,-0.3139,-0.9563,-0.0596,-2.9081,0.4324,-0.4708,0.9204,-1.6766,-0.3819,
6.234793,-0.3139,-0.9563,-0.0596,-2.9081,0.4324,-0.4708,0.9222,-1.7774,-0.3380,
6.236909,-0.2664,-0.9281,-0.0667,-2.9081,0.4324,-0.4708,0.9222,-1.7774,-0.3380,
6.237997,-0.2664,-0.9281,-0.0667,-2.4427,0.7094,-0.7224,0.9222,-1.7774,-0.3380,
6.244866,-0.2664,-0.9281,-0.0667,-2.4427,0.7094,-0.7224,0.9283,-1.7444,-0.3147,
6.254871,-0.2664,-0.9281,-0.0667,-2.4427,0.7094,-0.7224,0.9210,-1.6290,-0.3129,
6.256863,-0.2783,-0.9364,-0.0732,-2.4427,0.7094,-0.7224,0.9210,-1.6290,-0.3129,
6.257956,-0.2783,-0.9364,-0.0732,-2.5455,0.6251,-0.9537,0.9210,-1.6290,-0.3129,
6.264741,-0.2783,-0.9364,-0.0732,-2.5455,0.6251,-0.9537,0.8966,-1.4836,-0.3123,
6.275022,-0.2783,-0.9364,-0.0732,-2.5455,0.6251,-0.9537,0.8721,-1.3321,-0.2860,
6.277655,-0.3258,-0.9620,-0.0225,-2.5455,0.6251,-0.9537,0.8721,-1.3321,-0.2860,
6.279166,-0.3258,-0.9620,-0.0225,-2.9867,0.3696,-0.6098,0.8721,-1.3321,-0.2860,
6.284842,-0.3258,-0.9620,-0.0225,-2.9867,0.3696,-0.6098,0.8624,-1.1867,-0.2256,
6.294844,-0.3258,-0.9620,-0.0225,-2.9867,0.3696,-0.6098,0.8679,-1.0725,-0.1406,
6.296923,-0.3209,-0.9637,0.0231,-2.9867,0.3696,-0.6098,0.8679,-1.0725,-0.1406,
6.297950,-0.3209,-0.9637,0.0231,-2.8867,0.3446,-0.3109,0.8679,-1.0725,-0.1406,
6.304945,-0.3209,-0.9637,0.0231,-2.8867,0.3446,-0.3109,0.8782,-1.0199,-0.0563,
6.314911,-0.3209,-0.9637,0.0231,-2.8867,0.3446,-0.3109,0.8874,-1.0193,0.0145,
6.317213,-0.2745,-0.9582,0.0294,-2.8867,0.3446,-0.3109,0.8874,-1.0193,0.0145,
6.318315,-0.2745,-0.9582,0.0294,-2.3522,0.3866,-0.3991,0.8874,-1.0193,0.0145,
6.324911,-0.2745,-0.9582,0.0294,-2.3522,0.3866,-0.3991,0.9008,-1.0218,0.0652,
6.334881,-0.2745,-0.9582,0.0294,-2.3522,0.3866,-0.3991,0.9277,-1.0169,0.0921,
6.337047,-0.2228,-0.9475,-0.1786,-2.3522,0.3866,-0.3991,0.9277,-1.0169,0.0921,
6.338382,-0.2228,-0.9475,-0.1786,-1.7578,0.4771,-2.5701,0.9277,-1.0169,0.0921,
6.345001,-0.2228,-0.9475,-0.1786,-1.7578,0.4771,-2.5701,0.9583,-1.0102,0.0939,
6.354853,-0.2228,-0.9475,-0.1786,-1.7578,0.4771,-2.5701,0.9656,-0.9857,0.0817,
6.357038,-0.2406,-0.9534,-0.2524,-1.7578,0.4771,-2.5701,0.9656,-0.9857,0.0817,
6.358063,-0.2406,-0.9534,-0.2524,-1.8500,0.4053,-3.4083,0.9656,-0.9857,0.0817,
6.364837,-0.2406,-0.9534,-0.2524,-1.8500,0.4053,-3.4083,0.9289,-0.9289,0.0664,
6.374846,-0.2406,-0.9534,-0.2524,-1.8500,0.4053,-3.4083,0.8575,-0.8434,0.0542,
6.377831,-0.2456,-0.9493,-0.1632,-1.8500,0.4053,-3.4083,0.8575,-0.8434,0.0542,
6.379268,-0.2456,-0.9493,-0.1632,-1.8252,0.4327,-2.6260,0.8575,-0.8434,0.0542,
6.384853,-0.2456,-0.9493,-0.1632,-1.8252,0.4327,-2.6260,0.6650,-0.7011,0.0518,
6.394828,-0.2456,-0.9493,-0.1632,-1.8252,0.4327,-2.6260,0.5722,-0.6577,0.0603,
6.396856,-0.1958,-0.9473,0.0452,-1.8252,0.4327,-2.6260,0.5722,-0.6577,0.0603,
6.398138,-0.1958,-0.9473,0.0452,-1.2688,0.4418,-0.6370,0.5722,-0.6577,0.0603,
6.404846,-0.1958,-0.9473,0.0452,-1.2688,0.4418,-0.6370,0.5252,-0.6155,0.0628,
6.414761,-0.1958,-0.9473,0.0452,-1.2688,0.4418,-0.6370,0.5569,-0.5740,0.0518,
6.416828,-0.1361,-0.9485,0.1647,-1.2688,0.4418,-0.6370,0.5569,-0.5740,0.0518,
6.418138,-0.1361,-0.9485,0.1647,-0.6272,0.4188,0.4718,0.5569,-0.5740,0.0518,
6.424986,-0.1361,-0.9485,0.1647,-0.6272,0.4188,0.4718,0.6394,-0.5771,0.0280,
6.434806,-0.1361,-0.9485,0.1647,-0.6272,0.4188,0.4718,0.7023,-0.6614,0.0035,
6.436862,-0.1413,-1.0111,0.0358,-0.6272,0.4188,0.4718,0.7023,-0.6614,0.0035,
6.437654,-0.1413,-1.0111,0.0358,-0.6424,-0.2077,-0.8805,0.7023,-0.6614,0.0035,
6.444831,-0.1413,-1.0111,0.0358,-0.6424,-0.2077,-0.8805,0.7048,-0.8214,-0.0148,
6.454831,-0.1413,-1.0111,0.0358,-0.6424,-0.2077,-0.8805,0.6534,-1.0242,-0.0209,
6.456829,-0.1771,-1.1565,-0.1014,-0.6424,-0.2077,-0.8805,0.6534,-1.0242,-0.0209,
6.458032,-0.1771,-1.1565,-0.1014,-0.9783,-1.6453,-2.3063,0.6534,-1.0242,-0.0209,
6.464819,-0.1771,-1.1565,-0.1014,-0.9783,-1.6453,-2.3063,0.5759,-1.2234,-0.0276,
6.474914,-0.1771,-1.1565,-0.1014,-0.9783,-1.6453,-2.3063,0.4812,-1.3608,-0.0331,
6.477490,-0.2345,-1.2537,-0.1958,-0.9783,-1.6453,-2.3063,0.4812,-1.3608,-0.0331,
6.478975,-0.2345,-1.2537,-0.1958,-1.5391,-2.6026,-3.2710,0.4812,-1.3608,-0.0331,
6.484879,-0.2345,-1.2537,-0.1958,-1.5391,-2.6026,-3.2710,0.3651,-1.4103,-0.0386,
6.494848,-0.2345,-1.2537,-0.1958,-1.5391,-2.6026,-3.2710,0.2222,-1.3675,-0.0472,
6.496863,-0.2951,-1.3108,-0.2858,-1.5391,-2.6026,-3.2710,0.2222,-1.3675,-0.0472,
6.498102,-0.2951,-1.3108,-0.2858,-2.1315,-3.1598,-4.1309,0.2222,-1.3675,-0.0472,
6.504844,-0.2951,-1.3108,-0.2858,-2.1315,-3.1598,-4.1309,0.0346,-1.2423,-0.0557,
6.514785,-0.2951,-1.3108,-0.2858,-2.1315,-3.1598,-4.1309,-0.2085,-1.0841,-0.0557,
6.516877,-0.3285,-1.2872,-0.3291,-2.1315,-3.1598,-4.1309,-0.2085,-1.0841,-0.0557,
6.518024,-0.3285,-1.2872,-0.3291,-2.4456,-2.9152,-4.4439,-0.2085,-1.0841,-0.0557,
6.524948,-0.3285,-1.2872,-0.3291,-2.4456,-2.9152,-4.4439,-0.4797,-0.9485,-0.0484,
6.534865,-0.3285,-1.2872,-0.3291,-2.4456,-2.9152,-4.4439,-0.7497,-0.9008,-0.0282,
6.536976,-0.2620,-1.1768,-0.2901,-2.4456,-2.9152,-4.4439,-0.7497,-0.9008,-0.0282,
6.538134,-0.2620,-1.1768,-0.2901,-1.7694,-1.8102,-3.8448,-0.7497,-0.9008,-0.0282,
6.544888,-0.2620,-1.1768,-0.2901,-1.7694,-1.8102,-3.8448,-1.0283,-0.9271,-0.0020,
6.554895,-0.2620,-1.1768,-0.2901,-1.7694,-1.8102,-3.8448,-1.3508,-0.9369,0.0298,
6.556891,-0.3418,-1.2609,-0.1176,-1.7694,-1.8102,-3.8448,-1.3508,-0.9369,0.0298,
6.558158,-0.3418,-1.2609,-0.1176,-2.5072,-2.6108,-1.8473,-1.3508,-0.9369,0.0298,
6.564887,-0.3418,-1.2609,-0.1176,-2.5072,-2.6108,-1.8473,-2.0460,-0.7622,0.2998,
6.574823,-0.3418,-1.2609,-0.1176,-2.5072,-2.6108,-1.8473,-2.2921,-0.7817,0.5276,
6.577783,-0.3305,-1.3575,-0.3321,-2.5072,-2.6108,-1.8473,-2.2921,-0.7817,0.5276,
6.579416,-0.3305,-1.3575,-0.3321,-2.2707,-3.5469,-3.4603,-2.2921,-0.7817,0.5276,
6.584844,-0.3305,-1.3575,-0.3321,-2.2707,-3.5469,-3.4603,-2.5811,-0.9002,0.7042,
6.595363,-0.3305,-1.3575,-0.3321,-2.2707,-3.5469,-3.4603,-3.1492,-0.7756,0.7439,
6.597307,-0.0352,-1.0702,-0.4787,-2.2707,-3.5469,-3.4603,-3.1492,-0.7756,0.7439,
6.598382,-0.0352,-1.0702,-0.4787,0.7922,-0.7562,-4.2753,-3.1492,-0.7756,0.7439,
6.604805,-0.0352,-1.0702,-0.4787,0.7922,-0.7562,-4.2753,-3.7943,-0.2771,0.7011,
6.614734,-0.0352,-1.0702,-0.4787,0.7922,-0.7562,-4.2753,-4.1889,0.2250,0.7066,
6.616942,0.1521,-1.0957,-0.1286,0.7922,-0.7562,-4.2753,-4.1889,0.2250,0.7066,
6.617960,0.1521,-1.0957,-0.1286,2.7566,-1.0889,-0.0515,-4.1889,0.2250,0.7066,
6.624758,0.1521,-1.0957,-0.1286,2.7566,-1.0889,-0.0515,-4.2200,0.4541,0.8013,
6.634658,0.1521,-1.0957,-0.1286,2.7566,-1.0889,-0.0515,-3.9262,0.4138,0.9498,
6.636805,0.0366,-1.3597,0.3154,2.7566,-1.0889,-0.0515,-3.9262,0.4138,0.9498,
6.637741,0.0366,-1.3597,0.3154,1.7509,-3.8169,5.0481,-3.9262,0.4138,0.9498,
6.644783,0.0366,-1.3597,0.3154,1.7509,-3.8169,5.0481,-3.5560,0.2928,1.0774,
6.654800,0.0366,-1.3597,0.3154,1.7509,-3.8169,5.0481,-3.2885,0.1877,1.1538,
6.656761,-0.2062,-1.5328,0.5160,1.7509,-3.8169,5.0481,-3.2885,0.1877,1.1538,
6.657863,-0.2062,-1.5328,0.5160,-0.4564,-5.6653,7.5446,-3.2885,0.1877,1.1538,
6.664817,-0.2062,-1.5328,0.5160,-0.4564,-5.6653,7.5446,-3.0661,-0.0377,1.2069,
6.674849,-0.2062,-1.5328,0.5160,-0.4564,-5.6653,7.5446,-2.7448,-0.5233,1.2619,
6.677862,-0.2143,-1.5016,0.4445,-0.4564,-5.6653,7.5446,-2.7448,-0.5233,1.2619,
6.679348,-0.2143,-1.5016,0.4445,-0.3175,-5.5041,7.2086,-2.7448,-0.5233,1.2619,
6.684841,-0.2143,-1.5016,0.4445,-0.3175,-5.5041,7.2086,-2.2708,-1.2154,1.3089,
6.694828,-0.2143,-1.5016,0.4445,-0.3175,-5.5041,7.2086,-1.7021,-1.8923,1.3291,
6.696978,-0.1995,-1.1690,0.2994,-0.3175,-5.5041,7.2086,-1.7021,-1.8923,1.3291,
6.698326,-0.1995,-1.1690,0.2994,0.1329,-2.3483,5.9101,-1.7021,-1.8923,1.3291,
6.704902,-0.1995,-1.1690,0.2994,0.1329,-2.3483,5.9101,-1.1535,-2.4824,1.3829,
6.714749,-0.1995,-1.1690,0.2994,0.1329,-2.3483,5.9101,-0.9733,-2.9234,1.5240,
6.716840,-0.1516,-0.9033,-0.4207,0.1329,-2.3483,5.9101,-0.9733,-2.9234,1.5240,
6.717967,-0.1516,-0.9033,-0.4207,0.9837,0.1789,-1.2064,-0.9733,-2.9234,1.5240,
6.724835,-0.1516,-0.9033,-0.4207,0.9837,0.1789,-1.2064,-1.3050,-2.7572,1.6687,
6.734820,-0.1516,-0.9033,-0.4207,0.9837,0.1789,-1.2064,-1.6092,-1.7114,1.6852,
6.736886,-0.0478,-0.8801,0.1272,0.9837,0.1789,-1.2064,-1.6092,-1.7114,1.6852,
6.737864,-0.0478,-0.8801,0.1272,2.3704,0.2957,4.1673,-1.6092,-1.7114,1.6852,
6.744806,-0.0478,-0.8801,0.1272,2.3704,0.2957,4.1673,-1.6654,-0.1965,1.5948,
6.754876,-0.0478,-0.8801,0.1272,2.3704,0.2957,4.1673,-1.4663,1.8316,1.3615,
6.756916,-0.0848,-0.8641,0.0337,2.3704,0.2957,4.1673,-1.4663,1.8316,1.3615,
6.758033,-0.0848,-0.8641,0.0337,2.1478,0.3434,3.4373,-1.4663,1.8316,1.3615,
6.764762,-0.0848,-0.8641,0.0337,2.1478,0.3434,3.4373,-1.4058,1.8933,1.3071,
6.774751,-0.0848,-0.8641,0.0337,2.1478,0.3434,3.4373,-1.3374,1.6031,1.3071,
6.777555,-0.1871,-0.7925,0.0512,2.1478,0.3434,3.4373,-1.3374,1.6031,1.3071,
6.778862,-0.1871,-0.7925,0.0512,1.1987,0.9550,3.8037,-1.3374,1.6031,1.3071,
6.784837,-0.1871,-0.7925,0.0512,1.1987,0.9550,3.8037,-1.2024,1.2103,1.3425,
6.794804,-0.1871,-0.7925,0.0512,1.1987,0.9550,3.8037,-0.9818,0.8817,1.3975,
6.796980,-0.2663,-0.7097,0.1426,1.1987,0.9550,3.8037,-0.9818,0.8817,1.3975,
6.798274,-0.2663,-0.7097,0.1426,0.5458,1.6882,4.7889,-0.9818,0.8817,1.3975,
6.804889,-0.2663,-0.7097,0.1426,0.5458,1.6882,4.7889,-0.7137,0.6648,1.4403,
6.814766,-0.2663,-0.7097,0.1426,0.5458,1.6882,4.7889,-0.4522,0.5567,1.4482,
6.816919,-0.2562,-0.6215,0.0657,0.5458,1.6882,4.7889,-0.4522,0.5567,1.4482,
6.818031,-0.2562,-0.6215,0.0657,0.8190,2.4970,4.0108,-0.4522,0.5567,1.4482,
6.824881,-0.2562,-0.6215,0.0657,0.8190,2.4970,4.0108,-0.2219,0.5518,1.4140,
6.834872,-0.2562,-0.6215,0.0657,0.8190,2.4970,4.0108,-0.0136,0.6508,1.3285,
6.836811,-0.1638,-0.5709,-0.0264,0.8190,2.4970,4.0108,-0.0136,0.6508,1.3285,
6.838074,-0.1638,-0.5709,-0.0264,1.8819,2.9647,3.0181,-0.0136,0.6508,1.3285,
6.844784,-0.1638,-0.5709,-0.0264,1.8819,2.9647,3.0181,0.1831,0.8261,1.1996,
6.854854,-0.1638,-0.5709,-0.0264,1.8819,2.9647,3.0181,0.3663,1.0081,1.0463,
6.856802,-0.0577,-0.5601,-0.1090,1.8819,2.9647,3.0181,0.3663,1.0081,1.0463,
6.857957,-0.0577,-0.5601,-0.1090,3.0010,3.0795,2.1007,0.3663,1.0081,1.0463,
6.864802,-0.0577,-0.5601,-0.1090,3.0010,3.0795,2.1007,0.5441,1.1914,0.8819,
6.874799,-0.0577,-0.5601,-0.1090,3.0010,3.0795,2.1007,0.7048,1.3759,0.6956,
6.877673,0.0537,-0.5499,-0.1711,3.0010,3.0795,2.1007,0.7048,1.3759,0.6956,
6.879123,0.0537,-0.5499,-0.1711,4.0649,3.2297,1.3829,0.7048,1.3759,0.6956,
6.884830,0.0537,-0.5499,-0.1711,4.0649,3.2297,1.3829,0.8147,1.5164,0.4647,
6.894817,0.0537,-0.5499,-0.1711,4.0649,3.2297,1.3829,0.8727,1.5921,0.1929,
6.896864,0.1517,-0.5337,-0.2744,4.0649,3.2297,1.3829,0.8727,1.5921,0.1929,
6.897886,0.1517,-0.5337,-0.2744,4.8706,3.4799,0.2870,0.8727,1.5921,0.1929,
6.904832,0.1517,-0.5337,-0.2744,4.8706,3.4799,0.2870,0.9186,1.6337,-0.0942,
6.914780,0.1517,-0.5337,-0.2744,4.8706,3.4799,0.2870,0.9772,1.6349,-0.3551,
6.916830,0.1138,-0.5764,-0.2888,4.8706,3.4799,0.2870,0.9772,1.6349,-0.3551,
6.917804,0.1138,-0.5764,-0.2888,4.2329,3.1831,0.0763,0.9772,1.6349,-0.3551,
6.924878,0.1138,-0.5764,-0.2888,4.2329,3.1831,0.0763,1.0725,1.5280,-0.5829,
6.934842,0.1138,-0.5764,-0.2888,4.2329,3.1831,0.0763,1.3767,1.1547,-0.9238,
6.936833,0.0358,-0.6775,-0.2984,4.2329,3.1831,0.0763,1.3767,1.1547,-0.9238,
6.937904,0.0358,-0.6775,-0.2984,3.1350,2.3433,-0.1434,1.3767,1.1547,-0.9238,
6.944862,0.0358,-0.6775,-0.2984,3.1350,2.3433,-0.1434,1.5300,0.9348,-1.0362,
6.954872,0.0358,-0.6775,-0.2984,3.1350,2.3433,-0.1434,1.5893,0.6538,-1.1418,
6.956850,-0.0187,-0.8364,-0.4566,3.1350,2.3433,-0.1434,1.5893,0.6538,-1.1418,
6.957861,-0.0187,-0.8364,-0.4566,2.2577,0.9427,-1.8890,1.5893,0.6538,-1.1418,
6.964839,-0.0187,-0.8364,-0.4566,2.2577,0.9427,-1.8890,1.5532,0.3490,-1.2310,
6.974811,-0.0187,-0.8364,-0.4566,2.2577,0.9427,-1.8890,1.4781,0.0747,-1.2652,
6.977786,-0.2481,-1.1360,-0.5852,2.2577,0.9427,-1.8890,1.4781,0.0747,-1.2652,
6.979101,-0.2481,-1.1360,-0.5852,-0.2889,-1.8650,-3.3510,1.4781,0.0747,-1.2652,
6.984791,-0.2481,-1.1360,-0.5852,-0.2889,-1.8650,-3.3510,1.3737,-0.1177,-1.2213,
6.994824,-0.2481,-1.1360,-0.5852,-0.2889,-1.8650,-3.3510,1.1073,-0.2460,-1.0582,
6.996951,-0.7074,-1.3769,-1.0399,-0.2889,-1.8650,-3.3510,1.1073,-0.2460,-1.0582,
6.998088,-0.7074,-1.3769,-1.0399,-4.9863,-4.1496,-7.9392,1.1073,-0.2460,-1.0582,
7.004883,-0.7074,-1.3769,-1.0399,-4.9863,-4.1496,-7.9392,0.5771,-0.3828,-0.7240,
7.014766,-0.7074,-1.3769,-1.0399,-4.9863,-4.1496,-7.9392,0.0181,-0.5038,-0.2469,
7.016869,-1.0933,-1.3488,-1.0536,-4.9863,-4.1496,-7.9392,0.0181,-0.5038,-0.2469,
7.018351,-1.0933,-1.3488,-1.0536,-8.7717,-3.8845,-8.0281,0.0181,-0.5038,-0.2469,
7.024815,-1.0933,-1.3488,-1.0536,-8.7717,-3.8845,-8.0281,-0.2421,-0.4298,0.1758,
7.034757,-1.0933,-1.3488,-1.0536,-8.7717,-3.8845,-8.0281,-0.1297,0.0564,0.3175,
7.036963,-0.8167,-0.9692,-0.4350,-8.7717,-3.8845,-8.0281,-0.1297,0.0564,0.3175,
7.038185,-0.8167,-0.9692,-0.4350,-5.9140,-0.2268,-1.8440,-0.1297,0.0564,0.3175,
7.044775,-0.8167,-0.9692,-0.4350,-5.9140,-0.2268,-1.8440,0.2161,0.7161,0.2564,
7.054799,-0.8167,-0.9692,-0.4350,-5.9140,-0.2268,-1.8440,0.5698,1.0350,0.2021,
7.056815,-0.6733,-0.6902,0.0032,-5.9140,-0.2268,-1.8440,0.5698,1.0350,0.2021,
7.058716,-0.6733,-0.6902,0.0032,-4.3908,2.4748,2.4700,0.5698,1.0350,0.2021,
7.064916,-0.6733,-0.6902,0.0032,-4.3908,2.4748,2.4700,0.7377,0.8982,0.1837,
7.074914,-0.6733,-0.6902,0.0032,-4.3908,2.4748,2.4700,0.7891,0.5769,0.1581,
7.077456,0.0461,-1.2027,0.5862,-4.3908,2.4748,2.4700,0.7891,0.5769,0.1581,
7.078757,0.0461,-1.2027,0.5862,2.7170,-2.5256,8.0406,0.7891,0.5769,0.1581,
7.084755,0.0461,-1.2027,0.5862,2.7170,-2.5256,8.0406,0.8996,0.3295,0.0322,
7.094762,0.0461,-1.2027,0.5862,2.7170,-2.5256,8.0406,1.0664,0.2714,-0.2023,
7.096801,0.2245,-1.6491,0.2613,2.7170,-2.5256,8.0406,1.0664,0.2714,-0.2023,
7.098131,0.2245,-1.6491,0.2613,4.4272,-6.8346,4.6179,1.0664,0.2714,-0.2023,
7.104662,0.2245,-1.6491,0.2613,4.4272,-6.8346,4.6179,1.2148,0.3924,-0.3990,
7.114604,0.2245,-1.6491,0.2613,4.4272,-6.8346,4.6179,1.3113,0.7216,-0.4021,
7.116713,0.2223,-1.2231,-1.2960,4.4272,-6.8346,4.6179,1.3113,0.7216,-0.4021,
7.117677,0.2223,-1.2231,-1.2960,4.2615,-2.5926,-10.8078,1.3113,0.7216,-0.4021,
7.125097,0.2223,-1.2231,-1.2960,4.2615,-2.5926,-10.8078,0.2778,2.0973,-0.0545,
7.138640,0.2223,-1.2231,-1.2960,4.2615,-2.5926,-10.8078,-0.5237,2.2238,-0.3306,
7.141236,0.3792,-0.6181,-0.4769,4.2615,-2.5926,-10.8078,-0.5237,2.2238,-0.3306,
7.143025,0.3792,-0.6181,-0.4769,5.5956,3.3417,-2.6012,-0.5237,2.2238,-0.3306,
7.155365,0.3792,-0.6181,-0.4769,5.5956,3.3417,-2.6012,-0.3582,1.6489,-0.7320,
7.158868,0.1871,-0.5927,0.6894,5.5956,3.3417,-2.6012,-0.3582,1.6489,-0.7320,
7.160287,0.1871,-0.5927,0.6894,3.4767,3.6239,8.8787,-0.3582,1.6489,-0.7320,
7.164861,0.1871,-0.5927,0.6894,3.4767,3.6239,8.8787,0.4781,1.0368,-1.1541,
7.174828,0.1871,-0.5927,0.6894,3.4767,3.6239,8.8787,0.6828,1.3093,-1.2555,
7.178973,-0.2284,-0.9335,1.0439,3.4767,3.6239,8.8787,0.6828,1.3093,-1.2555,
7.180520,-0.2284,-0.9335,1.0439,-0.9973,0.3992,12.0950,0.6828,1.3093,-1.2555,
7.184719,-0.2284,-0.9335,1.0439,-0.9973,0.3992,12.0950,0.8019,1.6080,-1.2084,
7.198000,-0.2284,-0.9335,1.0439,-0.9973,0.3992,12.0950,1.0029,1.6373,-0.9751,
7.199858,-0.6612,-1.1613,0.6652,-0.9973,0.3992,12.0950,1.0029,1.6373,-0.9751,
7.201011,-0.6612,-1.1613,0.6652,-5.4684,-1.7485,8.0573,1.0029,1.6373,-0.9751,
7.204761,-0.6612,-1.1613,0.6652,-5.4684,-1.7485,8.0573,1.4610,1.0448,-0.6299,
7.214758,-0.6612,-1.1613,0.6652,-5.4684,-1.7485,8.0573,2.2093,-0.3339,-0.3215,
7.216779,-0.7367,-0.9871,-0.2417,-5.4684,-1.7485,8.0573,2.2093,-0.3339,-0.3215,
7.217915,-0.7367,-0.9871,-0.2417,-6.2175,0.0215,-1.2886,2.2093,-0.3339,-0.3215,
7.224735,-0.7367,-0.9871,-0.2417,-6.2175,0.0215,-1.2886,2.8428,-1.6510,-0.1785,
7.234722,-0.7367,-0.9871,-0.2417,-6.2175,0.0215,-1.2886,2.8293,-1.7994,-0.1425,
7.236779,-0.3755,-0.8425,-0.6648,-6.2175,0.0215,-1.2886,2.8293,-1.7994,-0.1425,
7.238078,-0.3755,-0.8425,-0.6648,-2.5839,1.4761,-6.0176,2.8293,-1.7994,-0.1425,
7.244874,-0.3755,-0.8425,-0.6648,-2.5839,1.4761,-6.0176,2.1275,-0.6131,-0.0826,
7.254728,-0.3755,-0.8425,-0.6648,-2.5839,1.4761,-6.0176,1.1788,1.2390,-0.0069,
7.256830,0.0546,-0.8658,-0.2993,-2.5839,1.4761,-6.0176,1.1788,1.2390,-0.0069,
7.257747,0.0546,-0.8658,-0.2993,1.6768,1.2523,-2.7084,1.1788,1.2390,-0.0069,
7.264733,0.0546,-0.8658,-0.2993,1.6768,1.2523,-2.7084,0.5258,2.6031,0.0023,
7.274695,0.0546,-0.8658,-0.2993,1.6768,1.2523,-2.7084,0.3853,2.8884,-0.0997,
7.277272,0.0690,-0.8716,0.2328,1.6768,1.2523,-2.7084,0.3853,2.8884,-0.0997,
7.278380,0.0690,-0.8716,0.2328,1.8053,1.1981,2.4808,0.3853,2.8884,-0.0997,
7.284701,0.0690,-0.8716,0.2328,1.8053,1.1981,2.4808,0.6131,2.4461,-0.2225,
7.294992,0.0690,-0.8716,0.2328,1.8053,1.1981,2.4808,0.9271,1.9562,-0.2872,
7.297373,-0.1182,-0.8998,0.1786,1.8053,1.1981,2.4808,0.9271,1.9562,-0.2872,
7.298858,-0.1182,-0.8998,0.1786,-0.0782,0.9287,1.8403,0.9271,1.9562,-0.2872,
7.304678,-0.1182,-0.8998,0.1786,-0.0782,0.9287,1.8403,1.2790,1.3557,-0.2591,
7.314751,-0.1182,-0.8998,0.1786,-0.0782,0.9287,1.8403,1.3511,1.0619,-0.2060,
7.316796,-0.1652,-0.9750,0.0172,-0.0782,0.9287,1.8403,1.3511,1.0619,-0.2060,
7.318071,-0.1652,-0.9750,0.0172,-0.5743,0.1946,0.0258,1.3511,1.0619,-0.2060,
7.324665,-0.1652,-0.9750,0.0172,-0.5743,0.1946,0.0258,1.3718,0.8450,-0.1516,
7.334751,-0.1652,-0.9750,0.0172,-0.5743,0.1946,0.0258,1.3419,0.7418,-0.1345,
7.337285,0.0083,-0.9722,-0.0927,-0.5743,0.1946,0.0258,1.3419,0.7418,-0.1345,
7.338391,0.0083,-0.9722,-0.0927,1.1031,0.2180,-1.2935,1.3419,0.7418,-0.1345,
7.345390,0.0083,-0.9722,-0.0927,1.1031,0.2180,-1.2935,1.2729,0.7149,-0.1681,
7.354792,0.0083,-0.9722,-0.0927,1.1031,0.2180,-1.2935,1.1782,0.7302,-0.2512,
7.356879,0.1258,-0.8892,-0.1192,1.1031,0.2180,-1.2935,1.1782,0.7302,-0.2512,
7.357956,0.1258,-0.8892,-0.1192,2.2064,1.0272,-1.7499,1.1782,0.7302,-0.2512,
7.364959,0.1258,-0.8892,-0.1192,2.2064,1.0272,-1.7499,1.0633,0.7491,-0.3538,
7.374890,0.1258,-0.8892,-0.1192,2.2064,1.0272,-1.7499,0.9570,0.7699,-0.4699,
7.378581,0.0926,-0.8258,0.0390,2.2064,1.0272,-1.7499,0.9570,0.7699,-0.4699,
7.380092,0.0926,-0.8258,0.0390,1.7850,1.6471,-0.3544,0.9570,0.7699,-0.4699,
7.384676,0.0926,-0.8258,0.0390,1.7850,1.6471,-0.3544,0.8923,0.7656,-0.5823,
7.394773,0.0926,-0.8258,0.0390,1.7850,1.6471,-0.3544,0.8978,0.7161,-0.6629,
7.396816,-0.0287,-0.8552,0.2603,1.7850,1.6471,-0.3544,0.8978,0.7161,-0.6629,
7.397854,-0.0287,-0.8552,0.2603,0.4761,1.3556,1.6579,0.8978,0.7161,-0.6629,
7.404759,-0.0287,-0.8552,0.2603,0.4761,1.3556,1.6579,0.9925,0.6263,-0.6971,
7.414735,-0.0287,-0.8552,0.2603,0.4761,1.3556,1.6579,1.1611,0.5274,-0.6904,
7.416801,-0.0966,-0.9374,0.2736,0.4761,1.3556,1.6579,1.1611,0.5274,-0.6904,
7.417762,-0.0966,-0.9374,0.2736,-0.3157,0.5382,1.5852,1.1611,0.5274,-0.6904,
7.424795,-0.0966,-0.9374,0.2736,-0.3157,0.5382,1.5852,1.3370,0.4865,-0.6605,
7.434718,-0.0966,-0.9374,0.2736,-0.3157,0.5382,1.5852,1.4433,0.5439,-0.6281,
7.436750,-0.1231,-1.0500,0.0776,-0.3157,0.5382,1.5852,1.4433,0.5439,-0.6281,
7.437756,-0.1231,-1.0500,0.0776,-0.6871,-0.5920,-0.5978,1.4433,0.5439,-0.6281,
7.444769,-0.1231,-1.0500,0.0776,-0.6871,-0.5920,-0.5978,1.4470,0.6465,-0.6080,
7.454791,-0.1231,-1.0500,0.0776,-0.6871,-0.5920,-0.5978,1.3718,0.6893,-0.6018,
7.456680,-0.2124,-1.1867,-0.1146,-0.6871,-0.5920,-0.5978,1.3718,0.6893,-0.6018,
7.457494,-0.2124,-1.1867,-0.1146,-1.6418,-1.9627,-2.7112,1.3718,0.6893,-0.6018,
7.464637,-0.2124,-1.1867,-0.1146,-1.6418,-1.9627,-2.7112,1.2527,0.6129,-0.6080,
7.474686,-0.2124,-1.1867,-0.1146,-1.6418,-1.9627,-2.7112,1.0878,0.4394,-0.6037,
7.476789,-0.3688,-1.1799,-0.1303,-1.6418,-1.9627,-2.7112,1.0878,0.4394,-0.6037,
7.478176,-0.3688,-1.1799,-0.1303,-3.2222,-1.9194,-3.0155,1.0878,0.4394,-0.6037,
7.484799,-0.3688,-1.1799,-0.1303,-3.2222,-1.9194,-3.0155,0.8734,0.0900,-0.4833,
7.495155,-0.3688,-1.1799,-0.1303,-3.2222,-1.9194,-3.0155,0.4519,-0.0297,-0.3697,
7.497476,-0.4216,-1.2460,-0.0741,-3.2222,-1.9194,-3.0155,0.4519,-0.0297,-0.3697,
7.498553,-0.4216,-1.2460,-0.0741,-3.7478,-2.5753,-2.5118,0.4519,-0.0297,-0.3697,
7.504841,-0.4216,-1.2460,-0.0741,-3.7478,-2.5753,-2.5118,0.3114,-0.1085,-0.2457,
7.514721,-0.4216,-1.2460,-0.0741,-3.7478,-2.5753,-2.5118,0.1849,-0.1354,-0.1406,
7.516834,-0.3571,-1.2622,-0.1156,-3.7478,-2.5753,-2.5118,0.1849,-0.1354,-0.1406,
7.518039,-0.3571,-1.2622,-0.1156,-3.0788,-2.7290,-2.8794,0.1849,-0.1354,-0.1406,
7.524829,-0.3571,-1.2622,-0.1156,-3.0788,-2.7290,-2.8794,0.0310,-0.1036,-0.0759,
7.534801,-0.3571,-1.2622,-0.1156,-3.0788,-2.7290,-2.8794,-0.1651,-0.0346,-0.0490,
7.536835,-0.3042,-1.1811,-0.1661,-3.0788,-2.7290,-2.8794,-0.1651,-0.0346,-0.0490,
7.537901,-0.3042,-1.1811,-0.1661,-2.4969,-1.9185,-3.2693,-0.1651,-0.0346,-0.0490,
7.545245,-0.3042,-1.1811,-0.1661,-2.4969,-1.9185,-3.2693,-0.3856,0.0265,-0.0289,
7.554911,-0.3042,-1.1811,-0.1661,-2.4969,-1.9185,-3.2693,-0.5994,0.0417,0.0029,
7.556959,-0.3018,-1.0900,-0.2028,-2.4969,-1.9185,-3.2693,-0.5994,0.0417,0.0029,
7.558129,-0.3018,-1.0900,-0.2028,-2.3975,-0.9987,-3.4348,-0.5994,0.0417,0.0029,
7.564975,-0.3018,-1.0900,-0.2028,-2.3975,-0.9987,-3.4348,-0.8065,0.0161,0.0542,
7.574735,-0.3018,-1.0900,-0.2028,-2.3975,-0.9987,-3.4348,-1.0350,-0.0022,0.1355,
7.578685,-0.3447,-1.0602,-0.1865,-2.3975,-0.9987,-3.4348,-1.0350,-0.0022,0.1355,
7.579910,-0.3447,-1.0602,-0.1865,-2.7181,-0.6760,-3.0030,-1.0350,-0.0022,0.1355,
7.584854,-0.3447,-1.0602,-0.1865,-2.7181,-0.6760,-3.0030,-1.2983,0.0552,0.2662,
7.595331,-0.3447,-1.0602,-0.1865,-2.7181,-0.6760,-3.0030,-1.5328,0.1224,0.4782,
7.597366,-0.4102,-1.1454,-0.1231,-2.7181,-0.6760,-3.0030,-1.5328,0.1224,0.4782,
7.598604,-0.4102,-1.1454,-0.1231,-3.2023,-1.4871,-2.0262,-1.5328,0.1224,0.4782,
7.604866,-0.4102,-1.1454,-0.1231,-3.2023,-1.4871,-2.0262,-1.7039,0.0808,0.7207,
7.614806,-0.4102,-1.1454,-0.1231,-3.2023,-1.4871,-2.0262,-1.9281,-0.0230,0.9070,
7.616850,-0.2400,-1.0262,-0.3584,-3.2023,-1.4871,-2.0262,-1.9281,-0.0230,0.9070,
7.618273,-0.2400,-1.0262,-0.3584,-1.3086,-0.3133,-3.8934,-1.9281,-0.0230,0.9070,
7.624836,-0.2400,-1.0262,-0.3584,-1.3086,-0.3133,-3.8934,-2.3508,0.0179,1.0298,
7.634924,-0.2400,-1.0262,-0.3584,-1.3086,-0.3133,-3.8934,-2.9000,0.2366,1.1385,
7.636864,-0.0401,-1.1254,-0.0700,-1.3086,-0.3133,-3.8934,-2.9000,0.2366,1.1385,
7.637949,-0.0401,-1.1254,-0.0700,0.8896,-1.3080,-0.5085,-2.9000,0.2366,1.1385,
7.645304,-0.0401,-1.1254,-0.0700,0.8896,-1.3080,-0.5085,-3.2561,0.4590,1.2802,
7.654852,-0.0401,-1.1254,-0.0700,0.8896,-1.3080,-0.5085,-3.2091,0.5646,1.4659,
7.656836,-0.0557,-1.4021,0.2542,0.8896,-1.3080,-0.5085,-3.2091,0.5646,1.4659,
7.657879,-0.0557,-1.4021,0.2542,0.9962,-4.0897,3.3022,-3.2091,0.5646,1.4659,
7.664792,-0.0557,-1.4021,0.2542,0.9962,-4.0897,3.3022,-2.8920,0.5158,1.6614,
7.674813,-0.0557,-1.4021,0.2542,0.9962,-4.0897,3.3022,-2.3007,0.0198,1.9076,
7.677096,-0.0004,-1.5824,0.3003,0.9962,-4.0897,3.3022,-2.3007,0.0198,1.9076,
7.678353,-0.0004,-1.5824,0.3003,1.8428,-5.9577,4.1946,-2.3007,0.0198,1.9076,
7.684794,-0.0004,-1.5824,0.3003,1.8428,-5.9577,4.1946,-2.1095,-0.3993,1.9119,
7.695339,-0.0004,-1.5824,0.3003,1.8428,-5.9577,4.1946,-1.8578,-0.9753,1.8380,
7.697465,0.1479,-1.5963,0.1930,1.8428,-5.9577,4.1946,-1.8578,-0.9753,1.8380,
7.698496,0.1479,-1.5963,0.1930,3.6019,-6.1964,3.4036,-1.8578,-0.9753,1.8380,
7.704887,0.1479,-1.5963,0.1930,3.6019,-6.1964,3.4036,-1.4785,-1.6259,1.7115,
7.714728,0.1479,-1.5963,0.1930,3.6019,-6.1964,3.4036,-1.0802,-2.2044,1.5588,
7.716888,0.1208,-1.3535,-0.2514,3.6019,-6.1964,3.4036,-1.0802,-2.2044,1.5588,
7.718046,0.1208,-1.3535,-0.2514,3.6095,-3.8976,-0.8640,-1.0802,-2.2044,1.5588,
7.724881,0.1208,-1.3535,-0.2514,3.6095,-3.8976,-0.8640,-0.9617,-2.5532,1.4409,
7.734839,0.1208,-1.3535,-0.2514,3.6095,-3.8976,-0.8640,-1.2616,-2.5392,1.4116,
7.736956,-0.0687,-1.0307,-0.4644,3.6095,-3.8976,-0.8640,-1.2616,-2.5392,1.4116,
7.738260,-0.0687,-1.0307,-0.4644,2.0014,-0.8114,-2.9022,-1.2616,-2.5392,1.4116,
7.745591,-0.0687,-1.0307,-0.4644,2.0014,-0.8114,-2.9022,-1.5585,-2.0914,1.4158,
7.754889,-0.0687,-1.0307,-0.4644,2.0014,-0.8114,-2.9022,-1.5573,-1.3437,1.4048,
7.756904,-0.0805,-0.8887,0.1658,2.0014,-0.8114,-2.9022,-1.5573,-1.3437,1.4048,
