
time,gFx,gFy,gFz,ax,ay,az,wx,wy,wz,
0.068220,-0.0909,0.8984,0.6271,0.0000,0.0000,0.0000,0.0000,0.0000,0.0000,
0.068689,-0.0260,0.8629,0.7547,0.0000,0.0000,0.0000,0.0000,0.0000,0.0000,
0.069132,-0.0260,0.7453,0.7650,0.0000,0.0000,0.0000,0.0000,0.0000,0.0000,
0.098457,0.0221,0.6764,0.7434,0.0000,0.0000,0.0000,0.0000,0.0000,0.0000,
0.099738,0.0221,0.6764,0.7434,0.0010,0.0305,0.0335,0.0000,0.0000,0.0000,
0.107510,0.0581,0.6823,0.8001,0.0010,0.0305,0.0335,0.0000,0.0000,0.0000,
0.109114,0.0581,0.6823,0.8001,0.0284,0.3332,0.3907,0.0000,0.0000,0.0000,
0.127490,0.0346,0.6753,0.7198,0.0284,0.3332,0.3907,0.0000,0.0000,0.0000,
0.128920,0.0346,0.6753,0.7198,-0.0045,-0.0876,-0.0934,0.0000,0.0000,0.0000,
0.132944,0.0346,0.6753,0.7198,-0.0045,-0.0876,-0.0934,-0.6343,1.2305,0.8575,
0.142907,0.0346,0.6753,0.7198,-0.0045,-0.0876,-0.0934,-0.7766,1.2036,0.9100,
0.147473,0.0462,0.6026,0.6678,-0.0045,-0.0876,-0.0934,-0.7766,1.2036,0.9100,
0.148685,0.0462,0.6026,0.6678,-0.0503,-0.6557,-0.7267,-0.7766,1.2036,0.9100,
0.154087,0.0462,0.6026,0.6678,-0.0503,-0.6557,-0.7267,-0.9287,1.0149,0.9015,
0.162944,0.0462,0.6026,0.6678,-0.0503,-0.6557,-0.7267,-0.9874,0.8848,0.8373,
0.167280,0.0121,0.6268,0.6621,-0.0503,-0.6557,-0.7267,-0.9874,0.8848,0.8373,
0.168878,0.0121,0.6268,0.6621,-0.0116,-0.5990,-0.6327,-0.9874,0.8848,0.8373,
0.173839,0.0121,0.6268,0.6621,-0.0116,-0.5990,-0.6327,-0.9733,0.8078,0.7720,
0.182921,0.0121,0.6268,0.6621,-0.0116,-0.5990,-0.6327,-0.9972,0.7320,0.7518,
0.187721,-0.0093,0.7444,0.4467,-0.0116,-0.5990,-0.6327,-0.9972,0.7320,0.7518,
0.188988,-0.0093,0.7444,0.4467,0.0139,-1.1132,-0.6680,-0.9972,0.7320,0.7518,
0.192762,-0.0093,0.7444,0.4467,0.0139,-1.1132,-0.6680,-1.1138,0.7650,0.7946,
0.204572,-0.0093,0.7444,0.4467,0.0139,-1.1132,-0.6680,-1.3246,0.9581,0.8654,
0.207554,0.0903,0.7421,0.5160,0.0139,-1.1132,-0.6680,-1.3246,0.9581,0.8654,
0.209040,0.0903,0.7421,0.5160,-0.0899,-0.7394,-0.5141,-1.3246,0.9581,0.8654,
0.212823,0.0903,0.7421,0.5160,-0.0899,-0.7394,-0.5141,-1.5830,1.2470,0.9015,
0.222942,0.0903,0.7421,0.5160,-0.0899,-0.7394,-0.5141,-1.8353,1.5256,0.8556,
0.227139,0.1575,0.7266,0.7988,-0.0899,-0.7394,-0.5141,-1.8353,1.5256,0.8556,
0.228265,0.1575,0.7266,0.7988,0.1280,0.5907,0.6493,-1.8353,1.5256,0.8556,
0.232680,0.1575,0.7266,0.7988,0.1280,0.5907,0.6493,-1.9568,1.6923,0.6993,
0.242842,0.1575,0.7266,0.7988,0.1280,0.5907,0.6493,-1.9128,1.5720,0.4586,
0.247324,0.1488,0.6677,0.8517,0.1280,0.5907,0.6493,-1.9128,1.5720,0.4586,
0.248500,0.1488,0.6677,0.8517,0.1224,0.5492,0.7005,-1.9128,1.5720,0.4586,
0.254046,0.1488,0.6677,0.8517,0.1224,0.5492,0.7005,-1.7723,0.5195,-0.0741,
0.262776,0.1488,0.6677,0.8517,0.1224,0.5492,0.7005,-1.4009,-0.1030,-0.3172,
0.267261,0.2090,0.6056,0.8314,0.1224,0.5492,0.7005,-1.4009,-0.1030,-0.3172,
0.268421,0.2090,0.6056,0.8314,0.0955,0.2766,0.3798,-1.4009,-0.1030,-0.3172,
0.273464,0.2090,0.6056,0.8314,0.0955,0.2766,0.3798,-1.2788,-0.4677,-0.5182,
0.282631,0.2090,0.6056,0.8314,0.0955,0.2766,0.3798,-1.2171,-0.3926,-0.6550,
0.289099,0.1915,0.6155,0.9387,0.0955,0.2766,0.3798,-1.2171,-0.3926,-0.6550,
0.290262,0.1915,0.6155,0.9387,0.2276,0.7315,1.1156,-1.2171,-0.3926,-0.6550,
0.292576,0.1915,0.6155,0.9387,0.2276,0.7315,1.1156,-1.1114,0.0870,-0.7296,
0.303848,0.1915,0.6155,0.9387,0.2276,0.7315,1.1156,-0.9031,0.6826,-0.7570,
0.307139,0.1405,0.5911,0.9676,0.2276,0.7315,1.1156,-0.9031,0.6826,-0.7570,
0.308184,0.1405,0.5911,0.9676,0.1709,0.7191,1.1771,-0.9031,0.6826,-0.7570,
0.312985,0.1405,0.5911,0.9676,0.1709,0.7191,1.1771,-0.6716,1.1896,-0.7662,
0.322567,0.1405,0.5911,0.9676,0.1709,0.7191,1.1771,-0.5201,1.5390,-0.7882,
0.327067,0.1025,0.5348,0.8965,0.1709,0.7191,1.1771,-0.5201,1.5390,-0.7882,
0.328007,0.1025,0.5348,0.8965,0.0463,0.2409,0.4038,-0.5201,1.5390,-0.7882,
0.332618,0.1025,0.5348,0.8965,0.0463,0.2409,0.4038,-0.4614,1.7045,-0.8536,
0.342491,0.1025,0.5348,0.8965,0.0463,0.2409,0.4038,-0.4614,1.7632,-0.9611,
0.347163,0.0344,0.5625,0.8878,0.0463,0.2409,0.4038,-0.4614,1.7632,-0.9611,
0.347920,0.0344,0.5625,0.8878,0.0163,0.2668,0.4211,-0.4614,1.7632,-0.9611,
0.353127,0.0344,0.5625,0.8878,0.0163,0.2668,0.4211,-0.4730,1.7711,-1.0722,
0.362564,0.0344,0.5625,0.8878,0.0163,0.2668,0.4211,-0.4645,1.6312,-1.1333,
0.367097,-0.1979,0.5720,1.0315,0.0163,0.2668,0.4211,-0.4645,1.6312,-1.1333,
0.368058,-0.1979,0.5720,1.0315,-0.3166,0.9154,1.6505,-0.4645,1.6312,-1.1333,
0.372618,-0.1979,0.5720,1.0315,-0.3166,0.9154,1.6505,-0.4321,1.2177,-1.1132,
0.382551,-0.1979,0.5720,1.0315,-0.3166,0.9154,1.6505,-0.3667,0.8670,-1.0588,
0.387464,-0.2211,0.5259,1.0010,-0.3166,0.9154,1.6505,-0.3667,0.8670,-1.0588,
0.388991,-0.2211,0.5259,1.0010,-0.2849,0.6777,1.2899,-0.3667,0.8670,-1.0588,
0.392846,-0.2211,0.5259,1.0010,-0.2849,0.6777,1.2899,-0.2849,0.6685,-1.0038,
0.404257,-0.2211,0.5259,1.0010,-0.2849,0.6777,1.2899,-0.2195,0.6477,-0.9495,
0.407597,-0.2127,0.5229,0.8900,-0.2849,0.6777,1.2899,-0.2195,0.6477,-0.9495,
0.409135,-0.2127,0.5229,0.8900,-0.1053,0.2590,0.4408,-0.2195,0.6477,-0.9495,
0.412839,-0.2127,0.5229,0.8900,-0.1053,0.2590,0.4408,-0.1694,0.6624,-0.8920,
0.422994,-0.2127,0.5229,0.8900,-0.1053,0.2590,0.4408,-0.1633,0.5891,-0.8438,
0.427639,-0.1411,0.5556,0.7894,-0.1053,0.2590,0.4408,-0.1633,0.5891,-0.8438,
0.428879,-0.1411,0.5556,0.7894,0.0357,-0.1405,-0.1996,-0.1633,0.5891,-0.8438,
0.432895,-0.1411,0.5556,0.7894,0.0357,-0.1405,-0.1996,-0.2018,0.4498,-0.8132,
0.443397,-0.1411,0.5556,0.7894,0.0357,-0.1405,-0.1996,-0.3026,0.4205,-0.7949,
0.447850,-0.1797,0.5257,0.8132,0.0357,-0.1405,-0.1996,-0.3026,0.4205,-0.7949,
0.450086,-0.1797,0.5257,0.8132,0.0283,-0.0828,-0.1280,-0.3026,0.4205,-0.7949,
0.455462,-0.1797,0.5257,0.8132,0.0283,-0.0828,-0.1280,-0.2861,0.5622,-0.7900,
0.463446,-0.1797,0.5257,0.8132,0.0283,-0.0828,-0.1280,-0.2488,0.7333,-0.7534,
0.468115,-0.3166,0.5096,0.7929,0.0283,-0.0828,-0.1280,-0.2488,0.7333,-0.7534,
0.470268,-0.3166,0.5096,0.7929,0.0199,-0.0320,-0.0498,-0.2488,0.7333,-0.7534,
0.475502,-0.3166,0.5096,0.7929,0.0199,-0.0320,-0.0498,-0.2250,0.8780,-0.6550,
0.483472,-0.3166,0.5096,0.7929,0.0199,-0.0320,-0.0498,-0.2348,0.8811,-0.5048,
0.489453,-0.3568,0.5207,0.7670,0.0199,-0.0320,-0.0498,-0.2348,0.8811,-0.5048,
0.492000,-0.3568,0.5207,0.7670,0.0258,-0.0376,-0.0554,-0.2348,0.8811,-0.5048,
0.494728,-0.3568,0.5207,0.7670,0.0258,-0.0376,-0.0554,-0.2751,0.7717,-0.3643,
0.505166,-0.3568,0.5207,0.7670,0.0258,-0.0376,-0.0554,-0.3307,0.6410,-0.2745,
0.507946,-0.2526,0.5124,0.7795,0.0258,-0.0376,-0.0554,-0.3307,0.6410,-0.2745,
0.511152,-0.2526,0.5124,0.7795,0.0878,-0.1780,-0.2708,-0.3307,0.6410,-0.2745,
0.513345,-0.2526,0.5124,0.7795,0.0878,-0.1780,-0.2708,-0.3997,0.4492,-0.2317,
0.523373,-0.2526,0.5124,0.7795,0.0878,-0.1780,-0.2708,-0.4535,0.2324,-0.2262,
0.527978,-0.2033,0.4803,0.8342,0.0878,-0.1780,-0.2708,-0.4535,0.2324,-0.2262,
0.530181,-0.2033,0.4803,0.8342,0.0342,-0.0807,-0.1402,-0.4535,0.2324,-0.2262,
0.533197,-0.2033,0.4803,0.8342,0.0342,-0.0807,-0.1402,-0.4706,0.1444,-0.2366,
0.543510,-0.2033,0.4803,0.8342,0.0342,-0.0807,-0.1402,-0.4425,0.2153,-0.2195,
0.548045,-0.3804,0.4787,0.8706,0.0342,-0.0807,-0.1402,-0.4425,0.2153,-0.2195,
0.550515,-0.3804,0.4787,0.8706,-0.2214,0.2786,0.5066,-0.4425,0.2153,-0.2195,
0.556286,-0.3804,0.4787,0.8706,-0.2214,0.2786,0.5066,-0.3661,0.1615,-0.1608,
0.563399,-0.3804,0.4787,0.8706,-0.2214,0.2786,0.5066,-0.3313,-0.0456,-0.0826,
0.567491,-0.3655,0.4906,0.7126,-0.2214,0.2786,0.5066,-0.3313,-0.0456,-0.0826,
0.569186,-0.3655,0.4906,0.7126,0.2345,-0.3147,-0.4572,-0.3313,-0.0456,-0.0826,
0.573153,-0.3655,0.4906,0.7126,0.2345,-0.3147,-0.4572,-0.4468,-0.1843,0.0145,
0.583004,-0.3655,0.4906,0.7126,0.2345,-0.3147,-0.4572,-0.6826,-0.0975,0.1336,
0.588138,-0.3342,0.4346,0.8837,0.2345,-0.3147,-0.4572,-0.6826,-0.0975,0.1336,
0.590214,-0.3342,0.4346,0.8837,-0.1236,0.1607,0.3268,-0.6826,-0.0975,0.1336,
0.592860,-0.3342,0.4346,0.8837,-0.1236,0.1607,0.3268,-0.8848,0.1114,0.2906,
0.604467,-0.3342,0.4346,0.8837,-0.1236,0.1607,0.3268,-0.9465,0.2977,0.4610,
0.607854,-0.2650,0.4366,1.1016,-0.1236,0.1607,0.3268,-0.9465,0.2977,0.4610,
0.609290,-0.2650,0.4366,1.1016,-0.4566,0.7524,1.8984,-0.9465,0.2977,0.4610,
0.612709,-0.2650,0.4366,1.1016,-0.4566,0.7524,1.8984,-0.8487,0.4443,0.5948,
0.622971,-0.2650,0.4366,1.1016,-0.4566,0.7524,1.8984,-0.2739,0.8615,0.7151,
0.627175,-0.2216,0.4424,1.0580,-0.4566,0.7524,1.8984,-0.2739,0.8615,0.7151,
0.628277,-0.2216,0.4424,1.0580,-0.3110,0.6210,1.4850,-0.2739,0.8615,0.7151,
0.632731,-0.2216,0.4424,1.0580,-0.3110,0.6210,1.4850,0.0945,1.0546,0.7335,
0.642552,-0.2216,0.4424,1.0580,-0.3110,0.6210,1.4850,0.4005,1.0717,0.7359,
0.647262,-0.3287,0.5350,0.8298,-0.3110,0.6210,1.4850,0.4005,1.0717,0.7359,
0.648235,-0.3287,0.5350,0.8298,-0.1236,0.2012,0.3120,0.4005,1.0717,0.7359,
0.653852,-0.3287,0.5350,0.8298,-0.1236,0.2012,0.3120,0.5636,1.0057,0.7188,
0.662606,-0.3287,0.5350,0.8298,-0.1236,0.2012,0.3120,0.5508,0.9764,0.6962,
0.667075,-0.3507,0.5891,0.7462,-0.1236,0.2012,0.3120,0.5508,0.9764,0.6962,
0.667903,-0.3507,0.5891,0.7462,-0.0431,0.0724,0.0917,0.5508,0.9764,0.6962,
0.672577,-0.3507,0.5891,0.7462,-0.0431,0.0724,0.0917,0.3920,0.9978,0.7231,
0.682498,-0.3507,0.5891,0.7462,-0.0431,0.0724,0.0917,0.1641,0.9813,0.8337,
0.687253,-0.3584,0.4895,0.7592,-0.0431,0.0724,0.0917,0.1641,0.9813,0.8337,
0.688330,-0.3584,0.4895,0.7592,0.1044,-0.1426,-0.2211,0.1641,0.9813,0.8337,
0.692517,-0.3584,0.4895,0.7592,0.1044,-0.1426,-0.2211,-0.0302,0.8951,1.0120,
0.705071,-0.3584,0.4895,0.7592,0.1044,-0.1426,-0.2211,-0.1199,0.8017,1.1928,
0.707806,-0.3456,0.4225,0.8667,0.1044,-0.1426,-0.2211,-0.1199,0.8017,1.1928,
0.709817,-0.3456,0.4225,0.8667,-0.0779,0.0953,0.1954,-0.1199,0.8017,1.1928,
0.713247,-0.3456,0.4225,0.8667,-0.0779,0.0953,0.1954,-0.1114,0.8096,1.2961,
0.723249,-0.3456,0.4225,0.8667,-0.0779,0.0953,0.1954,-0.0387,0.9306,1.2906,
0.727620,-0.2529,0.5367,0.7981,-0.0779,0.0953,0.1954,-0.0387,0.9306,1.2906,
0.729378,-0.2529,0.5367,0.7981,0.0153,-0.0326,-0.0484,-0.0387,0.9306,1.2906,
0.733220,-0.2529,0.5367,0.7981,0.0153,-0.0326,-0.0484,0.0572,1.0393,1.2093,
0.743337,-0.2529,0.5367,0.7981,0.0153,-0.0326,-0.0484,0.1323,1.0503,1.0841,
0.747752,-0.3188,0.5872,0.7642,0.0153,-0.0326,-0.0484,0.1323,1.0503,1.0841,
0.749622,-0.3188,0.5872,0.7642,-0.0444,0.0817,0.1064,0.1323,1.0503,1.0841,
0.755153,-0.3188,0.5872,0.7642,-0.0444,0.0817,0.1064,0.1476,0.9446,0.9387,
0.763173,-0.3188,0.5872,0.7642,-0.0444,0.0817,0.1064,0.0786,0.7919,0.7787,
0.767840,-0.3334,0.5501,0.7208,-0.0444,0.0817,0.1064,0.0786,0.7919,0.7787,
0.769984,-0.3334,0.5501,0.7208,0.1171,-0.1932,-0.2531,0.0786,0.7919,0.7787,
0.774756,-0.3334,0.5501,0.7208,0.1171,-0.1932,-0.2531,-0.0845,0.6215,0.5966,
0.783403,-0.3334,0.5501,0.7208,0.1171,-0.1932,-0.2531,-0.3020,0.4920,0.4006,
0.789861,-0.3396,0.3374,0.6748,0.1171,-0.1932,-0.2531,-0.3020,0.4920,0.4006,
0.792503,-0.3396,0.3374,0.6748,0.6973,-0.6928,-1.3856,-0.3020,0.4920,0.4006,
0.794939,-0.3396,0.3374,0.6748,0.6973,-0.6928,-1.3856,-0.5011,0.4987,0.2362,
0.805667,-0.3396,0.3374,0.6748,0.6973,-0.6928,-1.3856,-0.6380,1.1108,0.2265,
0.808313,-0.3987,0.2888,0.6301,0.6973,-0.6928,-1.3856,-0.6380,1.1108,0.2265,
0.810213,-0.3987,0.2888,0.6301,0.9827,-0.7117,-1.5529,-0.6380,1.1108,0.2265,
0.813408,-0.3987,0.2888,0.6301,0.9827,-0.7117,-1.5529,-0.6172,1.5286,0.4128,
0.823428,-0.3987,0.2888,0.6301,0.9827,-0.7117,-1.5529,-0.4797,1.8554,0.6962,
0.828036,-0.5162,0.3308,0.5349,0.9827,-0.7117,-1.5529,-0.4797,1.8554,0.6962,
0.830220,-0.5162,0.3308,0.5349,1.1628,-0.7451,-1.2049,-0.4797,1.8554,0.6962,
0.833627,-0.5162,0.3308,0.5349,1.1628,-0.7451,-1.2049,-0.2983,2.0197,1.0352,
0.843655,-0.5162,0.3308,0.5349,1.1628,-0.7451,-1.2049,-0.1523,2.0191,1.2845,
0.848218,-0.3358,0.4831,0.3859,1.1628,-0.7451,-1.2049,-0.1523,2.0191,1.2845,
0.850416,-0.3358,0.4831,0.3859,1.3894,-1.9990,-1.5966,-0.1523,2.0191,1.2845,
0.856177,-0.3358,0.4831,0.3859,1.3894,-1.9990,-1.5966,-0.1157,1.8090,1.3181,
0.863405,-0.3358,0.4831,0.3859,1.3894,-1.9990,-1.5966,-0.2305,1.4913,1.0059,
0.867910,0.0997,0.8011,0.2483,1.3894,-1.9990,-1.5966,-0.2305,1.4913,1.0059,
0.870389,0.0997,0.8011,0.2483,-0.1805,-1.4508,-0.4498,-0.2305,1.4913,1.0059,
0.875196,0.0997,0.8011,0.2483,-0.1805,-1.4508,-0.4498,-0.5085,1.3136,0.5136,
0.883352,0.0997,0.8011,0.2483,-0.1805,-1.4508,-0.4498,-0.8206,1.3551,0.2075,
0.889398,-0.1746,0.3899,0.3349,-0.1805,-1.4508,-0.4498,-0.8206,1.3551,0.2075,
0.891974,-0.1746,0.3899,0.3349,1.4427,-3.2226,-2.7683,-0.8206,1.3551,0.2075,
0.894447,-0.1746,0.3899,0.3349,1.4427,-3.2226,-2.7683,-0.9678,1.4791,0.1220,
0.905966,-0.1746,0.3899,0.3349,1.4427,-3.2226,-2.7683,-0.9324,1.8096,0.1489,
0.909280,-0.5926,0.1419,0.4873,1.4427,-3.2226,-2.7683,-0.9324,1.8096,0.1489,
0.911398,-0.5926,0.1419,0.4873,1.6411,-0.3931,-1.3494,-0.9324,1.8096,0.1489,
0.913800,-0.5926,0.1419,0.4873,1.6411,-0.3931,-1.3494,-0.7357,2.3710,0.3114,
0.923546,-0.5926,0.1419,0.4873,1.6411,-0.3931,-1.3494,-0.3692,3.1651,0.6021,
0.928204,-0.4358,0.0242,0.5475,1.6411,-0.3931,-1.3494,-0.3692,3.1651,0.6021,
0.930269,-0.4358,0.0242,0.5475,1.8329,-0.1017,-2.3024,-0.3692,3.1651,0.6021,
0.933448,-0.4358,0.0242,0.5475,1.8329,-0.1017,-2.3024,0.1830,4.2219,0.9100,
0.943554,-0.4358,0.0242,0.5475,1.8329,-0.1017,-2.3024,0.8959,5.4082,1.1305,
0.947868,-0.1287,-0.0858,0.4834,1.8329,-0.1017,-2.3024,0.8959,5.4082,1.1305,
0.949120,-0.1287,-0.0858,0.4834,1.2261,0.8166,-4.6031,0.8959,5.4082,1.1305,
0.955542,-0.1287,-0.0858,0.4834,1.2261,0.8166,-4.6031,1.7078,6.5249,1.3034,
0.963127,-0.1287,-0.0858,0.4834,1.2261,0.8166,-4.6031,2.4555,7.3911,1.3792,
0.967867,0.2356,-0.2712,0.0277,1.2261,0.8166,-4.6031,2.4555,7.3911,1.3792,
0.970108,0.2356,-0.2712,0.0277,-4.1039,4.7230,-0.4829,2.4555,7.3911,1.3792,
0.974391,0.2356,-0.2712,0.0277,-4.1039,4.7230,-0.4829,2.9521,8.0032,1.2588,
0.983104,0.2356,-0.2712,0.0277,-4.1039,4.7230,-0.4829,3.2135,8.4112,0.8874,
0.989355,0.4014,-0.4301,-0.1644,-4.1039,4.7230,-0.4829,3.2135,8.4112,0.8874,
0.991426,0.4014,-0.4301,-0.1644,-2.5104,2.6899,1.0283,3.2135,8.4112,0.8874,
0.994045,0.4014,-0.4301,-0.1644,-2.5104,2.6899,1.0283,3.4554,8.4729,-0.2909,
1.005425,0.4014,-0.4301,-0.1644,-2.5104,2.6899,1.0283,3.4512,8.0490,-1.0490,
1.007822,0.3931,-0.6285,-0.4655,-2.5104,2.6899,1.0283,3.4512,8.0490,-1.0490,
1.010009,0.3931,-0.6285,-0.4655,-0.5516,0.8819,0.6533,3.4512,8.0490,-1.0490,
1.013078,0.3931,-0.6285,-0.4655,-0.5516,0.8819,0.6533,3.2245,7.5298,-1.8951,
1.023369,0.3931,-0.6285,-0.4655,-0.5516,0.8819,0.6533,2.8495,7.0014,-2.7094,
1.027824,-0.0884,-0.8366,-0.5452,-0.5516,0.8819,0.6533,2.8495,7.0014,-2.7094,
1.029725,-0.0884,-0.8366,-0.5452,-0.0016,-0.0148,-0.0096,2.8495,7.0014,-2.7094,
1.033375,-0.0884,-0.8366,-0.5452,-0.0016,-0.0148,-0.0096,2.5135,6.5536,-3.4247,
1.043546,-0.0884,-0.8366,-0.5452,-0.0016,-0.0148,-0.0096,2.2429,6.0124,-3.9800,
1.048038,-0.6158,-0.8694,-0.2769,-0.0016,-0.0148,-0.0096,2.2429,6.0124,-3.9800,
1.050084,-0.6158,-0.8694,-0.2769,-0.5486,-0.7746,-0.2467,2.2429,6.0124,-3.9800,
1.056456,-0.6158,-0.8694,-0.2769,-0.5486,-0.7746,-0.2467,1.9503,5.2812,-4.4778,
1.063436,-0.6158,-0.8694,-0.2769,-0.5486,-0.7746,-0.2467,1.6015,4.5420,-5.0490,
1.068466,-0.7740,-0.9577,-0.1566,-0.5486,-0.7746,-0.2467,1.6015,4.5420,-5.0490,
1.070854,-0.7740,-0.9577,-0.1566,-1.4700,-1.8190,-0.2974,1.6015,4.5420,-5.0490,
1.073651,-0.7740,-0.9577,-0.1566,-1.4700,-1.8190,-0.2974,1.2478,3.8023,-5.6721,
1.083651,-0.7740,-0.9577,-0.1566,-1.4700,-1.8190,-0.2974,0.9766,3.1321,-6.3403,
1.090212,-1.2175,-1.1864,0.1272,-1.4700,-1.8190,-0.2974,0.9766,3.1321,-6.3403,
1.093722,-1.2175,-1.1864,0.1272,-6.8082,-3.3855,2.6648,0.9766,3.1321,-6.3403,
1.096146,-1.2175,-1.1864,0.1272,-6.8082,-3.3855,2.6648,0.8727,2.7742,-6.9408,
1.105879,-1.2175,-1.1864,0.1272,-6.8082,-3.3855,2.6648,0.9985,2.6453,-7.2811,
1.108851,-2.6794,-1.0731,0.4660,-6.8082,-3.3855,2.6648,0.9985,2.6453,-7.2811,
1.111331,-2.6794,-1.0731,0.4660,-22.4328,-1.6125,6.0682,0.9985,2.6453,-7.2811,
1.115106,-2.6794,-1.0731,0.4660,-22.4328,-1.6125,6.0682,1.3504,2.3227,-7.2053,
1.138846,-2.6794,-1.0731,0.4660,-22.4328,-1.6125,6.0682,1.8018,1.5402,-6.7313,
1.140962,-2.6132,-0.8635,0.1697,-22.4328,-1.6125,6.0682,1.8018,1.5402,-6.7313,
1.143353,-2.6132,-0.8635,0.1697,-23.1173,0.9279,2.9983,1.8018,1.5402,-6.7313,
1.145064,-2.6132,-0.8635,0.1697,-23.1173,0.9279,2.9983,2.2472,0.5922,-6.1962,
1.147093,-2.6132,-0.8635,0.1697,-23.1173,0.9279,2.9983,2.6277,0.0460,-5.8987,
1.148992,-2.2341,-0.6148,-0.3194,-23.1173,0.9279,2.9983,2.6277,0.0460,-5.8987,
1.150504,-2.2341,-0.6148,-0.3194,-20.5595,3.6500,-2.2446,2.6277,0.0460,-5.8987,
1.155242,-2.2341,-0.6148,-0.3194,-20.5595,3.6500,-2.2446,2.8690,0.0668,-5.8089,
1.162991,-2.2341,-0.6148,-0.3194,-20.5595,3.6500,-2.2446,2.8782,0.3276,-5.7576,
1.167690,-2.3215,-0.5235,-0.5701,-20.5595,3.6500,-2.2446,2.8782,0.3276,-5.7576,
1.169574,-2.3215,-0.5235,-0.5701,-22.5451,4.6682,-5.2585,2.8782,0.3276,-5.7576,
1.174085,-2.3215,-0.5235,-0.5701,-22.5451,4.6682,-5.2585,2.1567,0.7027,-5.3636,
1.183031,-2.3215,-0.5235,-0.5701,-22.5451,4.6682,-5.2585,1.5434,0.6374,-5.0716,
1.189808,-2.2663,-0.4511,-0.4318,-22.5451,4.6682,-5.2585,1.5434,0.6374,-5.0716,
1.192706,-2.2663,-0.4511,-0.4318,-23.0304,5.3513,-4.2708,1.5434,0.6374,-5.0716,
1.195251,-2.2663,-0.4511,-0.4318,-23.0304,5.3513,-4.2708,1.0071,0.4938,-4.8327,
1.205841,-2.2663,-0.4511,-0.4318,-23.0304,5.3513,-4.2708,0.7139,0.2995,-4.6165,
1.209113,-2.1413,-0.4540,-0.1407,-23.0304,5.3513,-4.2708,0.7139,0.2995,-4.6165,
1.211565,-2.1413,-0.4540,-0.1407,-22.7233,5.1993,-1.5954,0.7139,0.2995,-4.6165,
1.214211,-2.1413,-0.4540,-0.1407,-22.7233,5.1993,-1.5954,0.7353,0.0723,-4.4601,
1.223275,-2.1413,-0.4540,-0.1407,-22.7233,5.1993,-1.5954,0.9460,-0.2099,-4.3306,
1.227736,-2.0202,-0.3299,-0.1215,-22.7233,5.1993,-1.5954,0.9460,-0.2099,-4.3306,
1.229976,-2.0202,-0.3299,-0.1215,-22.3753,6.2211,-1.5643,0.9460,-0.2099,-4.3306,
1.233186,-2.0202,-0.3299,-0.1215,-22.3753,6.2211,-1.5643,1.1433,-0.5392,-4.2194,
1.243440,-2.0202,-0.3299,-0.1215,-22.3753,6.2211,-1.5643,1.1482,-0.9032,-4.1993,
1.248005,-1.7947,-0.3015,-0.4195,-22.3753,6.2211,-1.5643,1.1482,-0.9032,-4.1993,
1.250283,-1.7947,-0.3015,-0.4195,-20.9580,6.2389,-4.6543,1.1482,-0.9032,-4.1993,
1.253444,-1.7947,-0.3015,-0.4195,-20.9580,6.2389,-4.6543,0.9772,-1.1354,-4.2500,
1.263280,-1.7947,-0.3015,-0.4195,-20.9580,6.2389,-4.6543,0.7573,-1.0499,-4.1541,
1.267813,-2.1067,-0.4344,-0.3815,-20.9580,6.2389,-4.6543,0.7573,-1.0499,-4.1541,
1.270405,-2.1067,-0.4344,-0.3815,-24.7883,4.6101,-4.3569,0.7573,-1.0499,-4.1541,
1.275406,-2.1067,-0.4344,-0.3815,-24.7883,4.6101,-4.3569,0.6827,-0.6833,-3.6532,
1.283146,-2.1067,-0.4344,-0.3815,-24.7883,4.6101,-4.3569,0.8544,-0.4146,-2.8578,
1.289996,-2.0924,-0.3600,0.0321,-24.7883,4.6101,-4.3569,0.8544,-0.4146,-2.8578,
1.292857,-2.0924,-0.3600,0.0321,-25.2214,5.0414,-0.3886,0.8544,-0.4146,-2.8578,
1.295481,-2.0924,-0.3600,0.0321,-25.2214,5.0414,-0.3886,1.1641,-0.3248,-2.0844,
1.303273,-2.0924,-0.3600,0.0321,-25.2214,5.0414,-0.3886,1.5135,-0.3174,-1.5322,
1.308647,-1.6788,-0.4038,0.0082,-25.2214,5.0414,-0.3886,1.5135,-0.3174,-1.5322,
1.311049,-1.6788,-0.4038,0.0082,-21.4799,4.4138,-0.8183,1.5135,-0.3174,-1.5322,
1.313868,-1.6788,-0.4038,0.0082,-21.4799,4.4138,-0.8183,1.8519,-0.3315,-1.2298,
1.323205,-1.6788,-0.4038,0.0082,-21.4799,4.4138,-0.8183,2.1207,-0.3632,-1.0906,
1.327913,-1.5924,-0.3991,-0.1473,-21.4799,4.4138,-0.8183,2.1207,-0.3632,-1.0906,
1.330160,-1.5924,-0.3991,-0.1473,-20.8337,4.2996,-2.6366,2.1207,-0.3632,-1.0906,
1.333226,-1.5924,-0.3991,-0.1473,-20.8337,4.2996,-2.6366,2.2698,-0.4188,-0.9684,
1.343540,-1.5924,-0.3991,-0.1473,-20.8337,4.2996,-2.6366,2.3156,-0.5807,-0.8035,
1.347940,-1.5797,-0.3880,-0.4129,-20.8337,4.2996,-2.6366,2.3156,-0.5807,-0.8035,
1.350018,-1.5797,-0.3880,-0.4129,-20.8668,4.2526,-5.5582,2.3156,-0.5807,-0.8035,
1.353360,-1.5797,-0.3880,-0.4129,-20.8668,4.2526,-5.5582,2.3095,-0.9368,-0.5738,
1.363349,-1.5797,-0.3880,-0.4129,-20.8668,4.2526,-5.5582,2.0627,-2.0291,-0.1755,
1.367705,-1.2756,-0.4939,-0.6700,-20.8668,4.2526,-5.5582,2.0627,-2.0291,-0.1755,
1.370064,-1.2756,-0.4939,-0.6700,-17.9961,3.1028,-8.2665,2.0627,-2.0291,-0.1755,
1.375164,-1.2756,-0.4939,-0.6700,-17.9961,3.1028,-8.2665,1.8140,-2.4102,-0.0472,
1.383084,-1.2756,-0.4939,-0.6700,-17.9961,3.1028,-8.2665,1.5361,-2.7138,0.0426,
1.389569,-1.1305,-0.6330,-0.7284,-17.9961,3.1028,-8.2665,1.5361,-2.7138,0.0426,
1.391961,-1.1305,-0.6330,-0.7284,-16.6613,1.6822,-8.8199,1.5361,-2.7138,0.0426,
1.394715,-1.1305,-0.6330,-0.7284,-16.6613,1.6822,-8.8199,1.1916,-2.8617,0.1556,
1.403279,-1.1305,-0.6330,-0.7284,-16.6613,1.6822,-8.8199,0.8446,-2.7865,0.3743,
1.408130,-1.1447,-0.7845,-0.5813,-16.6613,1.6822,-8.8199,0.8446,-2.7865,0.3743,
1.410474,-1.1447,-0.7845,-0.5813,-16.8494,0.1947,-7.2215,0.8446,-2.7865,0.3743,
1.412996,-1.1447,-0.7845,-0.5813,-16.8494,0.1947,-7.2215,0.6320,-2.7157,0.6534,
1.423144,-1.1447,-0.7845,-0.5813,-16.8494,0.1947,-7.2215,0.5233,-2.6961,0.8086,
1.428056,-0.8370,-0.8242,-0.4084,-16.8494,0.1947,-7.2215,0.5233,-2.6961,0.8086,
1.430691,-0.8370,-0.8242,-0.4084,-13.6809,-0.0425,-5.2699,0.5233,-2.6961,0.8086,
1.433534,-0.8370,-0.8242,-0.4084,-13.6809,-0.0425,-5.2699,0.4384,-2.6576,0.8428,
1.443496,-0.8370,-0.8242,-0.4084,-13.6809,-0.0425,-5.2699,0.3413,-2.6216,0.7952,
1.448073,-0.7236,-0.8743,-0.2606,-13.6809,-0.0425,-5.2699,0.3413,-2.6216,0.7952,
1.450322,-0.7236,-0.8743,-0.2606,-12.0473,-0.1507,-3.4288,0.3413,-2.6216,0.7952,
1.453395,-0.7236,-0.8743,-0.2606,-12.0473,-0.1507,-3.4288,0.2282,-2.6760,0.6828,
1.463423,-0.7236,-0.8743,-0.2606,-12.0473,-0.1507,-3.4288,0.0615,-2.7609,0.5520,
1.467813,-0.8260,-0.8513,0.1664,-12.0473,-0.1507,-3.4288,0.0615,-2.7609,0.5520,
1.470273,-0.8260,-0.8513,0.1664,-12.5345,0.3857,1.1050,0.0615,-2.7609,0.5520,
1.475390,-0.8260,-0.8513,0.1664,-12.5345,0.3857,1.1050,-0.0717,-2.7676,0.5111,
1.483325,-0.8260,-0.8513,0.1664,-12.5345,0.3857,1.1050,-0.0173,-2.6149,0.5630,
1.490069,-0.6957,-0.7112,0.4493,-12.5345,0.3857,1.1050,-0.0173,-2.6149,0.5630,
1.492979,-0.6957,-0.7112,0.4493,-10.7362,2.0166,4.1505,-0.0173,-2.6149,0.5630,
1.495505,-0.6957,-0.7112,0.4493,-10.7362,2.0166,4.1505,0.2625,-2.1708,0.5777,
1.503449,-0.6957,-0.7112,0.4493,-10.7362,2.0166,4.1505,0.6143,-1.4237,0.5649,
1.509154,-0.9506,-0.7826,0.4884,-10.7362,2.0166,4.1505,0.6143,-1.4237,0.5649,
1.511602,-0.9506,-0.7826,0.4884,-12.6990,1.5320,4.5599,0.6143,-1.4237,0.5649,
1.514552,-0.9506,-0.7826,0.4884,-12.6990,1.5320,4.5599,0.9344,-0.7261,0.5679,
1.523322,-0.9506,-0.7826,0.4884,-12.6990,1.5320,4.5599,1.0871,-0.4720,0.6809,
1.527999,-0.9725,-0.7373,0.4290,-12.6990,1.5320,4.5599,1.0871,-0.4720,0.6809,
1.530099,-0.9725,-0.7373,0.4290,-12.3707,2.1503,3.7651,1.0871,-0.4720,0.6809,
1.533263,-0.9725,-0.7373,0.4290,-12.3707,2.1503,3.7651,1.0957,-0.4146,0.8636,
1.543415,-0.9725,-0.7373,0.4290,-12.3707,2.1503,3.7651,1.0297,-0.2826,0.9583,
1.547954,-0.7691,-0.7102,0.3717,-12.3707,2.1503,3.7651,1.0297,-0.2826,0.9583,
1.550189,-0.7691,-0.7102,0.3717,-9.8002,2.5562,2.9425,1.0297,-0.2826,0.9583,
1.553214,-0.7691,-0.7102,0.3717,-9.8002,2.5562,2.9425,0.9100,-0.3107,0.9137,
1.571627,-0.7691,-0.7102,0.3717,-9.8002,2.5562,2.9425,0.7682,-0.3052,0.7604,
1.574250,-0.6825,-0.6354,0.4567,-9.8002,2.5562,2.9425,0.7682,-0.3052,0.7604,
1.576274,-0.6825,-0.6354,0.4567,-8.4117,3.3803,3.5303,0.7682,-0.3052,0.7604,
1.578008,-0.6825,-0.6354,0.4567,-8.4117,3.3803,3.5303,0.6687,-0.6540,0.6266,
1.582961,-0.6825,-0.6354,0.4567,-8.4117,3.3803,3.5303,0.6375,-0.9717,0.5728,
1.589496,-0.6038,-0.4725,0.4957,-8.4117,3.3803,3.5303,0.6375,-0.9717,0.5728,
1.592004,-0.6038,-0.4725,0.4957,-7.1741,5.0251,3.6905,0.6375,-0.9717,0.5728,
1.594061,-0.6038,-0.4725,0.4957,-7.1741,5.0251,3.6905,0.6143,-0.9167,0.5087,
1.603227,-0.6038,-0.4725,0.4957,-7.1741,5.0251,3.6905,0.6082,-0.8483,0.5563,
1.607615,-0.7832,-0.4950,0.5998,-7.1741,5.0251,3.6905,0.6082,-0.8483,0.5563,
1.609297,-0.7832,-0.4950,0.5998,-8.4947,4.8196,4.4684,0.6082,-0.8483,0.5563,
1.613089,-0.7832,-0.4950,0.5998,-8.4947,4.8196,4.4684,0.6833,-0.9087,0.7133,
1.623412,-0.7832,-0.4950,0.5998,-8.4947,4.8196,4.4684,0.8428,-0.9448,0.8996,
1.628189,-0.6334,-0.4440,0.7519,-8.4947,4.8196,4.4684,0.8428,-0.9448,0.8996,
1.630052,-0.6334,-0.4440,0.7519,-6.5685,5.2967,5.6501,0.8428,-0.9448,0.8996,
1.633224,-0.6334,-0.4440,0.7519,-6.5685,5.2967,5.6501,1.0444,-0.8299,0.9650,
1.643361,-0.6334,-0.4440,0.7519,-6.5685,5.2967,5.6501,1.1928,-0.6729,0.9650,
1.648103,-0.0602,-0.4027,0.1724,-6.5685,5.2967,5.6501,1.1928,-0.6729,0.9650,
1.649954,-0.0602,-0.4027,0.1724,-0.5123,5.6365,-0.3904,1.1928,-0.6729,0.9650,
1.653369,-0.0602,-0.4027,0.1724,-0.5123,5.6365,-0.3904,1.2062,-0.4152,0.8782,
1.663374,-0.0602,-0.4027,0.1724,-0.5123,5.6365,-0.3904,1.0999,-0.0438,0.6492,
1.668059,0.5206,-0.4812,-0.3707,-0.5123,5.6365,-0.3904,1.0999,-0.0438,0.6492,
1.670191,0.5206,-0.4812,-0.3707,5.4806,4.7981,-5.9827,1.0999,-0.0438,0.6492,
1.674981,0.5206,-0.4812,-0.3707,5.4806,4.7981,-5.9827,1.0437,0.5017,0.2374,
1.683264,0.5206,-0.4812,-0.3707,5.4806,4.7981,-5.9827,0.6326,0.6270,-0.4492,
1.690282,-0.1625,-0.3550,-0.0493,5.4806,4.7981,-5.9827,0.6326,0.6270,-0.4492,
1.692532,-0.1625,-0.3550,-0.0493,-1.1483,5.9919,-2.9895,0.6326,0.6270,-0.4492,
1.694697,-0.1625,-0.3550,-0.0493,-1.1483,5.9919,-2.9895,0.2282,0.5305,-0.9721,
1.703486,-0.1625,-0.3550,-0.0493,-1.1483,5.9919,-2.9895,0.4109,0.4449,-1.0136,
1.708752,-0.3073,-0.3229,0.1360,-1.1483,5.9919,-2.9895,0.4109,0.4449,-1.0136,
1.710700,-0.3073,-0.3229,0.1360,-2.7067,6.2966,-1.2320,0.4109,0.4449,-1.0136,
1.713216,-0.3073,-0.3229,0.1360,-2.7067,6.2966,-1.2320,0.7780,0.5854,-0.8872,
1.723729,-0.3073,-0.3229,0.1360,-2.7067,6.2966,-1.2320,0.9662,1.2763,-0.6477,
1.728126,-0.1014,-0.3866,0.0785,-2.7067,6.2966,-1.2320,0.9662,1.2763,-0.6477,
1.730346,-0.1014,-0.3866,0.0785,-0.7838,5.6293,-1.9551,0.9662,1.2763,-0.6477,
1.733386,-0.1014,-0.3866,0.0785,-0.7838,5.6293,-1.9551,0.9723,1.6990,-0.6605,
1.743530,-0.1014,-0.3866,0.0785,-0.7838,5.6293,-1.9551,1.0108,2.1199,-0.8737,
1.748081,0.0397,-0.4704,0.4263,-0.7838,5.6293,-1.9551,1.0108,2.1199,-0.8737,
1.750270,0.0397,-0.4704,0.4263,0.5625,4.7554,1.2745,1.0108,2.1199,-0.8737,
1.753697,0.0397,-0.4704,0.4263,0.5625,4.7554,1.2745,1.1354,2.3808,-1.1657,
1.763458,0.0397,-0.4704,0.4263,0.5625,4.7554,1.2745,1.3907,2.4235,-1.3685,
1.768209,-0.3060,-0.5587,0.7418,0.5625,4.7554,1.2745,1.3907,2.4235,-1.3685,
1.770679,-0.3060,-0.5587,0.7418,-2.7968,3.7763,4.0245,1.3907,2.4235,-1.3685,
1.776250,-0.3060,-0.5587,0.7418,-2.7968,3.7763,4.0245,1.7719,2.5133,-1.3251,
1.783449,-0.3060,-0.5587,0.7418,-2.7968,3.7763,4.0245,2.4359,2.9092,-1.2824,
1.791077,-0.4065,-0.6863,0.8291,-2.7968,3.7763,4.0245,2.4359,2.9092,-1.2824,
1.794192,-0.4065,-0.6863,0.8291,-3.7091,2.3324,4.3760,2.4359,2.9092,-1.2824,
1.796971,-0.4065,-0.6863,0.8291,-3.7091,2.3324,4.3760,2.8366,3.0118,-1.3361,
1.803655,-0.4065,-0.6863,0.8291,-3.7091,2.3324,4.3760,2.7957,2.9599,-1.4608,
1.809248,-0.7550,-0.5013,0.5001,-3.7091,2.3324,4.3760,2.7957,2.9599,-1.4608,
1.811662,-0.7550,-0.5013,0.5001,-6.9510,3.8748,0.5712,2.7957,2.9599,-1.4608,
1.814117,-0.7550,-0.5013,0.5001,-6.9510,3.8748,0.5712,2.5886,2.6893,-1.4174,
1.824350,-0.7550,-0.5013,0.5001,-6.9510,3.8748,0.5712,2.2936,2.3631,-1.1321,
1.828479,-1.4948,-0.2900,0.3413,-6.9510,3.8748,0.5712,2.2936,2.3631,-1.1321,
1.830603,-1.4948,-0.2900,0.3413,-13.8938,5.6816,-1.4460,2.2936,2.3631,-1.1321,
1.833587,-1.4948,-0.2900,0.3413,-13.8938,5.6816,-1.4460,1.9527,2.0814,-0.6202,
1.856975,-1.4948,-0.2900,0.3413,-13.8938,5.6816,-1.4460,1.6736,1.8530,0.0200,
1.859205,-1.2766,-0.2823,0.4263,-13.8938,5.6816,-1.4460,1.6736,1.8530,0.0200,
1.861360,-1.2766,-0.2823,0.4263,-11.2836,5.5166,-0.9264,1.6736,1.8530,0.0200,
1.863740,-1.2766,-0.2823,0.4263,-11.2836,5.5166,-0.9264,1.4707,1.6917,0.4861,
1.865282,-1.2766,-0.2823,0.4263,-11.2836,5.5166,-0.9264,1.2117,1.5671,0.7524,
1.870189,-1.1436,-0.3572,-0.0263,-11.2836,5.5166,-0.9264,1.2117,1.5671,0.7524,
1.872709,-1.1436,-0.3572,-0.0263,-9.3656,4.5661,-5.5215,1.2117,1.5671,0.7524,
1.874658,-1.1436,-0.3572,-0.0263,-9.3656,4.5661,-5.5215,0.6650,1.2775,0.9436,
1.889437,-1.1436,-0.3572,-0.0263,-9.3656,4.5661,-5.5215,0.1843,1.0246,1.1385,
1.891007,-0.8034,-0.6582,0.3342,-9.3656,4.5661,-5.5215,0.1843,1.0246,1.1385,
1.893069,-0.8034,-0.6582,0.3342,-5.4499,1.4698,-1.9759,0.1843,1.0246,1.1385,
1.894613,-0.8034,-0.6582,0.3342,-5.4499,1.4698,-1.9759,0.0163,1.1279,1.2301,
1.902643,-0.8034,-0.6582,0.3342,-5.4499,1.4698,-1.9759,0.1262,1.5194,1.1360,
1.907197,-0.8614,-0.7140,0.1261,-5.4499,1.4698,-1.9759,0.1262,1.5194,1.1360,
1.908392,-0.8614,-0.7140,0.1261,-5.4382,0.8045,-3.8913,0.1262,1.5194,1.1360,
1.912681,-0.8614,-0.7140,0.1261,-5.4382,0.8045,-3.8913,0.1800,1.3472,0.9143,
1.922779,-0.8614,-0.7140,0.1261,-5.4382,0.8045,-3.8913,-0.0253,1.0228,0.9161,
1.927452,-0.8482,-0.5656,0.0333,-5.4382,0.8045,-3.8913,-0.0253,1.0228,0.9161,
1.928535,-0.8482,-0.5656,0.0333,-4.8092,2.1484,-4.6477,-0.0253,1.0228,0.9161,
1.932763,-0.8482,-0.5656,0.0333,-4.8092,2.1484,-4.6477,-0.2091,0.9245,0.9644,
1.943346,-0.8482,-0.5656,0.0333,-4.8092,2.1484,-4.6477,-0.2641,0.9886,1.0554,
1.947805,-0.6977,-0.5658,0.3751,-4.8092,2.1484,-4.6477,-0.2641,0.9886,1.0554,
1.949631,-0.6977,-0.5658,0.3751,-2.8887,2.0433,-1.1188,-0.2641,0.9886,1.0554,
1.953427,-0.6977,-0.5658,0.3751,-2.8887,2.0433,-1.1188,-0.1578,1.0784,1.0291,
1.963205,-0.6977,-0.5658,0.3751,-2.8887,2.0433,-1.1188,0.0047,1.0674,0.9357,
1.967817,-0.7641,-0.5639,0.5507,-2.8887,2.0433,-1.1188,0.0047,1.0674,0.9357,
1.969653,-0.7641,-0.5639,0.5507,-3.1294,1.9266,0.7451,0.0047,1.0674,0.9357,
1.974482,-0.7641,-0.5639,0.5507,-3.1294,1.9266,0.7451,0.1916,0.9941,0.8819,
1.983196,-0.7641,-0.5639,0.5507,-3.1294,1.9266,0.7451,0.3205,0.8524,0.7585,
1.990329,-0.7163,-0.5328,0.3624,-3.1294,1.9266,0.7451,0.3205,0.8524,0.7585,
1.992493,-0.7163,-0.5328,0.3624,-2.3176,2.0721,-1.0154,0.3205,0.8524,0.7585,
1.994463,-0.7163,-0.5328,0.3624,-2.3176,2.0721,-1.0154,0.2991,0.6569,0.5453,
2.003276,-0.7163,-0.5328,0.3624,-2.3176,2.0721,-1.0154,0.2118,0.3118,0.3767,
2.008347,-0.7996,-0.5275,0.3634,-2.3176,2.0721,-1.0154,0.2118,0.3118,0.3767,
2.010828,-0.7996,-0.5275,0.3634,-2.8963,1.9953,-0.9595,0.2118,0.3118,0.3767,
2.014029,-0.7996,-0.5275,0.3634,-2.8963,1.9953,-0.9595,0.1189,-0.0761,0.2301,
2.024756,-0.7996,-0.5275,0.3634,-2.8963,1.9953,-0.9595,0.0761,-0.2869,0.0982,
2.027836,-0.8455,-0.6783,0.3578,-2.8963,1.9953,-0.9595,0.0761,-0.2869,0.0982,
2.029722,-0.8455,-0.6783,0.3578,-3.2244,0.4377,-1.0044,0.0761,-0.2869,0.0982,
2.033229,-0.8455,-0.6783,0.3578,-3.2244,0.4377,-1.0044,0.1446,-0.3260,0.0102,
2.043364,-0.8455,-0.6783,0.3578,-3.2244,0.4377,-1.0044,0.1934,-0.3131,-0.1236,
2.047840,-1.0216,-0.5789,0.1981,-3.2244,0.4377,-1.0044,0.1934,-0.3131,-0.1236,
2.049687,-1.0216,-0.5789,0.1981,-4.8585,1.3482,-2.5662,0.1934,-0.3131,-0.1236,
2.053276,-1.0216,-0.5789,0.1981,-4.8585,1.3482,-2.5662,0.1146,-0.3272,-0.2885,
2.063238,-1.0216,-0.5789,0.1981,-4.8585,1.3482,-2.5662,-0.0644,-0.4317,-0.3447,
2.068023,-1.1901,-0.5967,0.3735,-4.8585,1.3482,-2.5662,-0.0644,-0.4317,-0.3447,
2.069716,-1.1901,-0.5967,0.3735,-6.4513,1.1400,-0.8309,-0.0644,-0.4317,-0.3447,
2.074617,-1.1901,-0.5967,0.3735,-6.4513,1.1400,-0.8309,-0.2128,-0.6400,-0.2690,
2.083337,-1.1901,-0.5967,0.3735,-6.4513,1.1400,-0.8309,-0.2580,-0.8269,-0.1144,
2.090520,-1.0593,-0.6705,0.5968,-6.4513,1.1400,-0.8309,-0.2580,-0.8269,-0.1144,
2.093035,-1.0593,-0.6705,0.5968,-5.1351,0.3903,1.3558,-0.2580,-0.8269,-0.1144,
2.095042,-1.0593,-0.6705,0.5968,-5.1351,0.3903,1.3558,-0.0051,-0.8813,-0.1388,
2.103177,-1.0593,-0.6705,0.5968,-5.1351,0.3903,1.3558,0.1763,-1.0694,-0.1651,
2.108243,-1.1106,-0.7374,0.5571,-5.1351,0.3903,1.3558,0.1763,-1.0694,-0.1651,
2.110294,-1.1106,-0.7374,0.5571,-5.6270,-0.3232,0.8913,0.1763,-1.0694,-0.1651,
2.113206,-1.1106,-0.7374,0.5571,-5.6270,-0.3232,0.8913,0.2447,-1.3144,-0.1340,
2.123806,-1.1106,-0.7374,0.5571,-5.6270,-0.3232,0.8913,0.2625,-1.3938,-0.0924,
2.127936,-1.1093,-0.6055,0.4845,-5.6270,-0.3232,0.8913,0.2625,-1.3938,-0.0924,
2.129885,-1.1093,-0.6055,0.4845,-5.6297,0.8906,0.0440,0.2625,-1.3938,-0.0924,
2.133278,-1.1093,-0.6055,0.4845,-5.6297,0.8906,0.0440,0.3565,-1.2716,0.0194,
2.143430,-1.1093,-0.6055,0.4845,-5.6297,0.8906,0.0440,0.5483,-1.1616,0.1544,
2.147887,-1.1157,-0.6116,0.6919,-5.6297,0.8906,0.0440,0.5483,-1.1616,0.1544,
2.149916,-1.1157,-0.6116,0.6919,-5.6770,0.7075,1.9201,0.5483,-1.1616,0.1544,
2.153358,-1.1157,-0.6116,0.6919,-5.6770,0.7075,1.9201,0.6919,-1.3131,0.2106,
2.163543,-1.1157,-0.6116,0.6919,-5.6770,0.7075,1.9201,0.6516,-1.5422,0.1159,
2.167998,-0.5955,-0.6696,0.4786,-5.6770,0.7075,1.9201,0.6516,-1.5422,0.1159,
2.170404,-0.5955,-0.6696,0.4786,-0.5988,0.0032,-0.3729,0.6516,-1.5422,0.1159,
2.173481,-0.5955,-0.6696,0.4786,-0.5988,0.0032,-0.3729,0.6394,-1.5807,-0.1046,
2.183779,-0.5955,-0.6696,0.4786,-0.5988,0.0032,-0.3729,0.7438,-1.1922,-0.3752,
2.191332,-0.5485,-0.6420,0.5907,-0.5988,0.0032,-0.3729,0.7438,-1.1922,-0.3752,
2.193718,-0.5485,-0.6420,0.5907,-0.2327,0.1864,0.5206,0.7438,-1.1922,-0.3752,
2.195878,-0.5485,-0.6420,0.5907,-0.2327,0.1864,0.5206,1.0725,-1.0315,-0.5170,
2.203424,-0.5485,-0.6420,0.5907,-0.2327,0.1864,0.5206,1.3754,-0.6387,-0.5536,
2.209217,-0.5477,-0.3365,0.4031,-0.2327,0.1864,0.5206,1.3754,-0.6387,-0.5536,
2.211944,-0.5477,-0.3365,0.4031,-0.2976,3.0606,-1.5297,1.3754,-0.6387,-0.5536,
2.214404,-0.5477,-0.3365,0.4031,-0.2976,3.0606,-1.5297,1.4286,-0.4396,-0.6960,
2.224654,-0.5477,-0.3365,0.4031,-0.2976,3.0606,-1.5297,1.7627,0.2672,-0.8548,
2.228024,-0.7372,-0.0817,0.8862,-0.2976,3.0606,-1.5297,1.7627,0.2672,-0.8548,
2.230403,-0.7372,-0.0817,0.8862,-2.1707,5.3761,2.9862,1.7627,0.2672,-0.8548,
2.233418,-0.7372,-0.0817,0.8862,-2.1707,5.3761,2.9862,1.4689,0.4358,-0.8383,
2.243480,-0.7372,-0.0817,0.8862,-2.1707,5.3761,2.9862,1.6357,0.2715,-0.6373,
2.248065,-1.0078,0.2277,-0.5276,-2.1707,5.3761,2.9862,1.6357,0.2715,-0.6373,
2.250260,-1.0078,0.2277,-0.5276,-4.6743,8.2044,-10.9526,1.6357,0.2715,-0.6373,
2.253400,-1.0078,0.2277,-0.5276,-4.6743,8.2044,-10.9526,1.4274,0.3069,-0.4168,
2.274558,-1.0078,0.2277,-0.5276,-4.6743,8.2044,-10.9526,0.4353,-0.1702,-0.0961,
2.278659,-0.8757,0.2370,0.2465,-4.6743,8.2044,-10.9526,0.4353,-0.1702,-0.0961,
2.281023,-0.8757,0.2370,0.2465,-3.1807,8.0735,-3.4084,0.4353,-0.1702,-0.0961,
2.283105,-0.8757,0.2370,0.2465,-3.1807,8.0735,-3.4084,0.1146,-0.3626,0.3663,
2.284396,-0.8757,0.2370,0.2465,-3.1807,8.0735,-3.4084,-0.3191,-0.3388,0.3639,
2.300995,-0.7438,0.0507,-0.2768,-3.1807,8.0735,-3.4084,-0.3191,-0.3388,0.3639,
2.303452,-0.7438,0.0507,-0.2768,-1.6302,6.0830,-8.4521,-0.3191,-0.3388,0.3639,
2.305522,-0.7438,0.0507,-0.2768,-1.6302,6.0830,-8.4521,-0.6832,-0.3480,0.4354,
2.307655,-0.7438,0.0507,-0.2768,-1.6302,6.0830,-8.4521,-0.9587,-0.1800,0.5930,
2.309292,-0.7817,-0.0121,-0.3684,-1.6302,6.0830,-8.4521,-0.9587,-0.1800,0.5930,
2.310618,-0.7817,-0.0121,-0.3684,-1.6962,5.3758,-9.1253,-0.9587,-0.1800,0.5930,
2.314913,-0.7817,-0.0121,-0.3684,-1.6962,5.3758,-9.1253,-1.1187,0.3020,0.7353,
2.323616,-0.7817,-0.0121,-0.3684,-1.6962,5.3758,-9.1253,-1.1144,0.9104,0.8031,
2.327505,-0.6489,-0.1366,0.0093,-1.6962,5.3758,-9.1253,-1.1144,0.9104,0.8031,
2.328928,-0.6489,-0.1366,0.0093,-0.0014,4.0615,-5.0657,-1.1144,0.9104,0.8031,
2.332967,-0.6489,-0.1366,0.0093,-0.0014,4.0615,-5.0657,-1.1554,1.2995,0.8477,
2.343161,-0.6489,-0.1366,0.0093,-0.0014,4.0615,-5.0657,-1.6459,1.4235,0.6541,
2.347888,-0.5777,-0.2976,0.2358,-0.0014,4.0615,-5.0657,-1.6459,1.4235,0.6541,
2.349133,-0.5777,-0.2976,0.2358,1.0935,2.4187,-2.3892,-1.6459,1.4235,0.6541,
2.353007,-0.5777,-0.2976,0.2358,1.0935,2.4187,-2.3892,-1.7565,1.5372,0.5197,
2.362934,-0.5777,-0.2976,0.2358,1.0935,2.4187,-2.3892,-1.5427,1.4290,0.5209,
2.367816,-0.4158,-0.3795,-0.1790,1.0935,2.4187,-2.3892,-1.5427,1.4290,0.5209,
2.369081,-0.4158,-0.3795,-0.1790,3.0128,1.6274,-5.9187,-1.5427,1.4290,0.5209,
2.374332,-0.4158,-0.3795,-0.1790,3.0128,1.6274,-5.9187,-1.9782,1.4828,0.2515,
2.383248,-0.4158,-0.3795,-0.1790,3.0128,1.6274,-5.9187,-1.9935,1.6147,0.0218,
2.387984,-0.6751,-0.6527,1.0525,3.0128,1.6274,-5.9187,-1.9935,1.6147,0.0218,
2.390090,-0.6751,-0.6527,1.0525,0.6467,-0.9612,6.5888,-1.9935,1.6147,0.0218,
2.394800,-0.6751,-0.6527,1.0525,0.6467,-0.9612,6.5888,-1.5769,2.1737,-0.0503,
2.403230,-0.6751,-0.6527,1.0525,0.6467,-0.9612,6.5888,-0.6471,2.2873,-0.0668,
2.408028,-0.6695,-0.5968,0.7617,0.6467,-0.9612,6.5888,-0.6471,2.2873,-0.0668,
2.410148,-0.6695,-0.5968,0.7617,0.8522,-0.3635,4.1306,-0.6471,2.2873,-0.0668,
2.413347,-0.6695,-0.5968,0.7617,0.8522,-0.3635,4.1306,-0.3270,1.9403,-0.2757,
2.424405,-0.6695,-0.5968,0.7617,0.8522,-0.3635,4.1306,-0.1193,1.5292,-0.5151,
2.428084,-1.2129,-0.4036,0.5305,0.8522,-0.3635,4.1306,-0.1193,1.5292,-0.5151,
2.430310,-1.2129,-0.4036,0.5305,-4.3832,1.5428,2.0926,-0.1193,1.5292,-0.5151,
2.433528,-1.2129,-0.4036,0.5305,-4.3832,1.5428,2.0926,-0.0100,1.2794,-0.5316,
2.443501,-1.2129,-0.4036,0.5305,-4.3832,1.5428,2.0926,-0.1352,1.1932,-0.3197,
2.448100,-1.0357,-0.3604,0.0203,-4.3832,1.5428,2.0926,-0.1352,1.1932,-0.3197,
2.450298,-1.0357,-0.3604,0.0203,-2.5769,1.9683,-2.7284,-0.1352,1.1932,-0.3197,
2.453354,-1.0357,-0.3604,0.0203,-2.5769,1.9683,-2.7284,-0.4126,1.0668,-0.1828,
2.463553,-1.0357,-0.3604,0.0203,-2.5769,1.9683,-2.7284,-0.8854,1.4150,-0.2836,
2.468061,-0.8585,-0.3345,-0.2223,-2.5769,1.9683,-2.7284,-0.8854,1.4150,-0.2836,
2.470271,-0.8585,-0.3345,-0.2223,-0.7390,2.2295,-4.8144,-0.8854,1.4150,-0.2836,
2.475394,-0.8585,-0.3345,-0.2223,-0.7390,2.2295,-4.8144,-0.9593,1.9067,-0.3691,
2.483459,-0.8585,-0.3345,-0.2223,-0.7390,2.2295,-4.8144,-1.0906,2.3423,-0.4076,
2.488398,-1.1646,-0.3368,-0.4321,-0.7390,2.2295,-4.8144,-1.0906,2.3423,-0.4076,
2.490404,-1.1646,-0.3368,-0.4321,-3.6053,2.2433,-6.3495,-1.0906,2.3423,-0.4076,
2.496375,-1.1646,-0.3368,-0.4321,-3.6053,2.2433,-6.3495,-1.3808,2.4449,-0.2250,
2.503405,-1.1646,-0.3368,-0.4321,-3.6053,2.2433,-6.3495,-1.6813,2.3521,-0.0460,
2.509160,-1.0287,-0.6608,-0.2389,-3.6053,2.2433,-6.3495,-1.6813,2.3521,-0.0460,
2.511627,-1.0287,-0.6608,-0.2389,-2.1460,-0.9084,-3.8272,-1.6813,2.3521,-0.0460,
2.514275,-1.0287,-0.6608,-0.2389,-2.1460,-0.9084,-3.8272,-1.9061,1.9959,-0.1663,
2.524180,-1.0287,-0.6608,-0.2389,-2.1460,-0.9084,-3.8272,-2.3960,1.2079,-0.4247,
2.527958,-1.0015,-0.6244,0.2195,-2.1460,-0.9084,-3.8272,-2.3960,1.2079,-0.4247,
2.529952,-1.0015,-0.6244,0.2195,-1.8363,-0.4987,1.1939,-2.3960,1.2079,-0.4247,
2.533340,-1.0015,-0.6244,0.2195,-1.8363,-0.4987,1.1939,-2.7821,0.0222,-0.4760,
2.543247,-1.0015,-0.6244,0.2195,-1.8363,-0.4987,1.1939,-2.9085,-0.8813,-0.5219,
2.547757,-0.7765,-0.7299,0.3754,-1.8363,-0.4987,1.1939,-2.9085,-0.8813,-0.5219,
2.549701,-0.7765,-0.7299,0.3754,0.3160,-1.4215,2.9688,-2.9085,-0.8813,-0.5219,
2.553152,-0.7765,-0.7299,0.3754,0.3160,-1.4215,2.9688,-2.8328,-1.3761,-0.6086,
2.563558,-0.7765,-0.7299,0.3754,0.3160,-1.4215,2.9688,-2.8640,-1.1855,-0.5927,
2.567986,-0.7499,-0.8422,0.5198,0.3160,-1.4215,2.9688,-2.8640,-1.1855,-0.5927,
2.570155,-0.7499,-0.8422,0.5198,0.4907,-2.3965,4.4625,-2.8640,-1.1855,-0.5927,
2.575844,-0.7499,-0.8422,0.5198,0.4907,-2.3965,4.4625,-3.0038,-1.3632,-0.4870,
2.583399,-0.7499,-0.8422,0.5198,0.4907,-2.3965,4.4625,-2.5891,-1.2973,-0.4864,
2.588290,-0.6296,-0.7229,0.6867,0.4907,-2.3965,4.4625,-2.5891,-1.2973,-0.4864,
2.591385,-0.6296,-0.7229,0.6867,1.5856,-1.1142,6.1147,-2.5891,-1.2973,-0.4864,
2.594424,-0.6296,-0.7229,0.6867,1.5856,-1.1142,6.1147,-1.7864,-1.1598,-0.5438,
2.603391,-0.6296,-0.7229,0.6867,1.5856,-1.1142,6.1147,-1.0631,-0.8849,-0.5836,
2.608599,-0.7151,-0.7097,0.2113,1.5856,-1.1142,6.1147,-1.0631,-0.8849,-0.5836,
2.610671,-0.7151,-0.7097,0.2113,0.6528,-0.8720,1.3779,-1.0631,-0.8849,-0.5836,
2.613184,-0.7151,-0.7097,0.2113,0.6528,-0.8720,1.3779,-0.5140,-0.4378,-0.5359,
2.624261,-0.7151,-0.7097,0.2113,0.6528,-0.8720,1.3779,-0.2446,-0.0120,-0.5121,
2.627890,-0.9765,-0.6284,-0.1742,0.6528,-0.8720,1.3779,-0.2446,-0.0120,-0.5121,
2.629883,-0.9765,-0.6284,-0.1742,-1.9755,0.0068,-2.4116,-0.2446,-0.0120,-0.5121,
2.633200,-0.9765,-0.6284,-0.1742,-1.9755,0.0068,-2.4116,-0.2488,0.2030,-0.5487,
2.643298,-0.9765,-0.6284,-0.1742,-1.9755,0.0068,-2.4116,-0.4535,-0.6949,-0.4046,
2.647984,-1.3208,-0.4994,-0.2516,-1.9755,0.0068,-2.4116,-0.4535,-0.6949,-0.4046,
2.650208,-1.3208,-0.4994,-0.2516,-5.3891,1.3199,-3.1591,-0.4535,-0.6949,-0.4046,
2.653438,-1.3208,-0.4994,-0.2516,-5.3891,1.3199,-3.1591,-1.2482,-1.4494,-0.0814,
2.663773,-1.3208,-0.4994,-0.2516,-5.3891,1.3199,-3.1591,-1.6960,-1.8324,0.3731,
2.668285,-1.3548,-0.4649,-0.1498,-5.3891,1.3199,-3.1591,-1.6960,-1.8324,0.3731,
2.670324,-1.3548,-0.4649,-0.1498,-5.6772,1.5985,-2.1968,-1.6960,-1.8324,0.3731,
2.676143,-1.3548,-0.4649,-0.1498,-5.6772,1.5985,-2.1968,-1.8768,-1.7389,0.9137,
2.683612,-1.3548,-0.4649,-0.1498,-5.6772,1.5985,-2.1968,-1.7412,-1.3901,1.0432,
2.688382,-0.7407,-0.1760,0.0809,-5.6772,1.5985,-2.1968,-1.7412,-1.3901,1.0432,
2.690848,-0.7407,-0.1760,0.0809,0.4911,4.2394,0.0651,-1.7412,-1.3901,1.0432,
2.693631,-0.7407,-0.1760,0.0809,0.4911,4.2394,0.0651,-1.4083,-0.6882,0.6663,
2.703260,-0.7407,-0.1760,0.0809,0.4911,4.2394,0.0651,-1.1083,-0.0749,-0.0594,
2.708562,-0.3545,-0.1340,0.1522,0.4911,4.2394,0.0651,-1.1083,-0.0749,-0.0594,
2.710467,-0.3545,-0.1340,0.1522,4.3584,4.5534,0.8531,-1.1083,-0.0749,-0.0594,
2.713209,-0.3545,-0.1340,0.1522,4.3584,4.5534,0.8531,-0.9489,0.0741,-0.9550,
2.725235,-0.3545,-0.1340,0.1522,4.3584,4.5534,0.8531,-1.0118,-0.1971,-1.9378,
2.728284,-0.4059,-0.3497,0.0103,4.3584,4.5534,0.8531,-1.0118,-0.1971,-1.9378,
2.730438,-0.4059,-0.3497,0.0103,3.7263,2.6167,-0.4326,-1.0118,-0.1971,-1.9378,
2.733117,-0.4059,-0.3497,0.0103,3.7263,2.6167,-0.4326,-1.1169,-0.5960,-2.8297,
2.743328,-0.4059,-0.3497,0.0103,3.7263,2.6167,-0.4326,-1.0295,-0.7579,-3.3935,
2.747997,-0.9171,-1.3480,0.3114,3.7263,2.6167,-0.4326,-1.0295,-0.7579,-3.3935,
2.749541,-0.9171,-1.3480,0.3114,-1.6786,-6.6922,2.5382,-1.0295,-0.7579,-3.3935,
2.753241,-0.9171,-1.3480,0.3114,-1.6786,-6.6922,2.5382,-0.6557,-0.5630,-3.3575,
2.763261,-0.9171,-1.3480,0.3114,-1.6786,-6.6922,2.5382,-0.0564,-0.3217,-2.6770,
2.767733,-1.0481,-1.3414,0.3638,-1.6786,-6.6922,2.5382,-0.0564,-0.3217,-2.6770,
2.769422,-1.0481,-1.3414,0.3638,-3.3718,-6.1982,3.0108,-0.0564,-0.3217,-2.6770,
2.774465,-1.0481,-1.3414,0.3638,-3.3718,-6.1982,3.0108,0.5404,-0.0945,-1.8786,
2.783185,-1.0481,-1.3414,0.3638,-3.3718,-6.1982,3.0108,1.0004,0.0326,-1.2256,
2.787857,-0.8041,-0.9887,0.2086,-3.3718,-6.1982,3.0108,1.0004,0.0326,-1.2256,
2.789893,-0.8041,-0.9887,0.2086,-1.2000,-2.5431,1.3573,1.0004,0.0326,-1.2256,
2.794582,-0.8041,-0.9887,0.2086,-1.2000,-2.5431,1.3573,1.2777,0.0870,-0.7137,
2.803196,-0.8041,-0.9887,0.2086,-1.2000,-2.5431,1.3573,1.3754,0.1615,-0.3887,
2.808618,-0.5130,-0.5283,0.0555,-1.2000,-2.5431,1.3573,1.3754,0.1615,-0.3887,
2.811205,-0.5130,-0.5283,0.0555,1.5771,2.0189,-0.3270,1.3754,0.1615,-0.3887,
2.814207,-0.5130,-0.5283,0.0555,1.5771,2.0189,-0.3270,1.3364,0.0436,-0.3557,
2.825176,-0.5130,-0.5283,0.0555,1.5771,2.0189,-0.3270,1.1305,-0.0932,-0.4620,
2.828223,-0.3977,-0.3753,0.0133,1.5771,2.0189,-0.3270,1.1305,-0.0932,-0.4620,
2.830696,-0.3977,-0.3753,0.0133,2.6504,3.5462,-0.9230,1.1305,-0.0932,-0.4620,
2.833245,-0.3977,-0.3753,0.0133,2.6504,3.5462,-0.9230,0.6216,0.2397,-0.8029,
2.843349,-0.3977,-0.3753,0.0133,2.6504,3.5462,-0.9230,0.3956,0.6630,-1.0777,
2.847955,-0.4743,-0.3865,0.0027,2.6504,3.5462,-0.9230,0.3956,0.6630,-1.0777,
2.850175,-0.4743,-0.3865,0.0027,1.7835,3.5379,-1.0409,0.3956,0.6630,-1.0777,
2.853365,-0.4743,-0.3865,0.0027,1.7835,3.5379,-1.0409,0.2453,0.8762,-1.3960,
2.863418,-0.4743,-0.3865,0.0027,1.7835,3.5379,-1.0409,0.2044,0.7284,-1.6404,
2.868093,-0.8195,-0.6942,0.0473,1.7835,3.5379,-1.0409,0.2044,0.7284,-1.6404,
2.870105,-0.8195,-0.6942,0.0473,-1.7793,0.6866,-0.5300,0.2044,0.7284,-1.6404,
2.875806,-0.8195,-0.6942,0.0473,-1.7793,0.6866,-0.5300,0.3199,0.2385,-1.4876,
2.883406,-0.8195,-0.6942,0.0473,-1.7793,0.6866,-0.5300,0.5404,-0.2325,-0.9922,
2.888362,-1.2421,-0.8501,0.0555,-1.7793,0.6866,-0.5300,0.5404,-0.2325,-0.9922,
2.890333,-1.2421,-0.8501,0.0555,-6.0440,-0.7457,-0.4981,0.5404,-0.2325,-0.9922,
2.895431,-1.2421,-0.8501,0.0555,-6.0440,-0.7457,-0.4981,0.6412,-0.2796,-0.4968,
2.903349,-1.2421,-0.8501,0.0555,-6.0440,-0.7457,-0.4981,0.5942,-0.3101,-0.0038,
2.909620,-1.0703,-0.6816,0.0297,-6.0440,-0.7457,-0.4981,0.5942,-0.3101,-0.0038,
2.913293,-1.0703,-0.6816,0.0297,-4.3303,0.8652,-0.8553,0.5942,-0.3101,-0.0038,
2.915768,-1.0703,-0.6816,0.0297,-4.3303,0.8652,-0.8553,0.4915,-0.5715,0.3743,
2.924939,-1.0703,-0.6816,0.0297,-4.3303,0.8652,-0.8553,0.4482,-0.7194,0.5404,
2.928069,-0.3478,-0.6577,0.1275,-4.3303,0.8652,-0.8553,0.4482,-0.7194,0.5404,
2.929782,-0.3478,-0.6577,0.1275,2.8407,1.0039,-0.0285,0.4482,-0.7194,0.5404,
2.933154,-0.3478,-0.6577,0.1275,2.8407,1.0039,-0.0285,0.3749,-0.4139,0.4702,
2.943163,-0.3478,-0.6577,0.1275,2.8407,1.0039,-0.0285,0.2325,-0.0419,0.2674,
2.947734,-0.4147,-0.5480,0.0098,2.8407,1.0039,-0.0285,0.2325,-0.0419,0.2674,
2.949593,-0.4147,-0.5480,0.0098,2.2534,2.0111,-1.2364,0.2325,-0.0419,0.2674,
2.953127,-0.4147,-0.5480,0.0098,2.2534,2.0111,-1.2364,0.0645,0.2824,0.0084,
2.963244,-0.4147,-0.5480,0.0098,2.2534,2.0111,-1.2364,-0.0717,0.4755,-0.2574,
2.968082,-0.5195,-0.5240,-0.0015,2.2534,2.0111,-1.2364,-0.0717,0.4755,-0.2574,
2.969965,-0.5195,-0.5240,-0.0015,1.2376,2.2485,-1.2756,-0.0717,0.4755,-0.2574,
2.974941,-0.5195,-0.5240,-0.0015,1.2376,2.2485,-1.2756,-0.1871,0.6337,-0.5274,
2.983225,-0.5195,-0.5240,-0.0015,1.2376,2.2485,-1.2756,-0.2971,0.8817,-0.8010,
2.987630,-0.6869,-0.6285,0.0398,1.2376,2.2485,-1.2756,-0.2971,0.8817,-0.8010,
2.989743,-0.6869,-0.6285,0.0398,-0.4577,1.2961,-0.7200,-0.2971,0.8817,-0.8010,
2.994247,-0.6869,-0.6285,0.0398,-0.4577,1.2961,-0.7200,-0.2818,0.9361,-1.0142,
3.003270,-0.6869,-0.6285,0.0398,-0.4577,1.2961,-0.7200,-0.1096,0.5579,-1.1834,
3.008523,-0.9218,-0.8850,-0.0079,-0.4577,1.2961,-0.7200,-0.1096,0.5579,-1.1834,
3.010717,-0.9218,-0.8850,-0.0079,-2.8759,-1.1016,-1.0422,-0.1096,0.5579,-1.1834,
3.013678,-0.9218,-0.8850,-0.0079,-2.8759,-1.1016,-1.0422,0.0902,-0.2814,-0.9666,
3.025092,-0.9218,-0.8850,-0.0079,-2.8759,-1.1016,-1.0422,-0.0375,-0.2606,-0.8267,
3.029457,-0.9209,-0.8642,0.0880,-2.8759,-1.1016,-1.0422,-0.0375,-0.2606,-0.8267,
3.032015,-0.9209,-0.8642,0.0880,-2.9687,-0.8189,-0.1185,-0.0375,-0.2606,-0.8267,
3.034559,-0.9209,-0.8642,0.0880,-2.9687,-0.8189,-0.1185,-0.0021,-0.3510,-0.6391,
3.043357,-0.9209,-0.8642,0.0880,-2.9687,-0.8189,-0.1185,0.1549,-0.5263,-0.4186,
3.048056,-0.7450,-0.8542,0.1477,-2.9687,-0.8189,-0.1185,0.1549,-0.5263,-0.4186,
3.050253,-0.7450,-0.8542,0.1477,-1.3048,-0.6806,0.4142,0.1549,-0.5263,-0.4186,
3.053438,-0.7450,-0.8542,0.1477,-1.3048,-0.6806,0.4142,0.2851,-0.4286,-0.3453,
3.063487,-0.7450,-0.8542,0.1477,-1.3048,-0.6806,0.4142,0.3877,0.1652,-0.2726,
3.068153,-0.4444,-0.7175,0.2557,-1.3048,-0.6806,0.4142,0.3877,0.1652,-0.2726,
3.070345,-0.4444,-0.7175,0.2557,1.6017,0.6800,1.4030,0.3877,0.1652,-0.2726,
3.075647,-0.4444,-0.7175,0.2557,1.6017,0.6800,1.4030,0.5398,1.0906,-0.1828,
3.083311,-0.4444,-0.7175,0.2557,1.6017,0.6800,1.4030,0.8263,2.0863,-0.1535,
3.088374,-0.3009,-0.5323,0.3402,1.6017,0.6800,1.4030,0.8263,2.0863,-0.1535,
3.090771,-0.3009,-0.5323,0.3402,3.0208,2.4935,2.2919,0.8263,2.0863,-0.1535,
3.095551,-0.3009,-0.5323,0.3402,3.0208,2.4935,2.2919,1.0969,3.2311,-0.1217,
3.103305,-0.3009,-0.5323,0.3402,3.0208,2.4935,2.2919,1.0810,3.9336,-0.0466,
3.108958,-0.2796,-0.4059,-0.0204,3.0208,2.4935,2.2919,1.0810,3.9336,-0.0466,
3.110747,-0.2796,-0.4059,-0.0204,3.2828,3.7200,-0.9966,1.0810,3.9336,-0.0466,
3.113308,-0.2796,-0.4059,-0.0204,3.2828,3.7200,-0.9966,0.6424,3.9623,-0.1859,
3.125207,-0.2796,-0.4059,-0.0204,3.2828,3.7200,-0.9966,0.1299,4.0619,-0.5891,
3.128238,-0.3999,-0.4661,-0.2366,3.2828,3.7200,-0.9966,0.1299,4.0619,-0.5891,
3.130365,-0.3999,-0.4661,-0.2366,2.0928,3.1706,-2.6883,0.1299,4.0619,-0.5891,
3.133372,-0.3999,-0.4661,-0.2366,2.0928,3.1706,-2.6883,0.0041,3.8701,-1.1113,
3.144458,-0.3999,-0.4661,-0.2366,2.0928,3.1706,-2.6883,0.2319,2.3502,-1.4669,
3.147990,-0.6470,-0.7416,-0.2847,2.0928,3.1706,-2.6883,0.2319,2.3502,-1.4669,
3.149714,-0.6470,-0.7416,-0.2847,-0.5068,0.6148,-2.7949,0.2319,2.3502,-1.4669,
3.153258,-0.6470,-0.7416,-0.2847,-0.5068,0.6148,-2.7949,0.5477,0.8463,-1.5383,
3.163254,-0.6470,-0.7416,-0.2847,-0.5068,0.6148,-2.7949,0.6778,0.6312,-1.4284,
3.168026,-0.6120,-0.6010,-0.2781,-0.5068,0.6148,-2.7949,0.6778,0.6312,-1.4284,
3.169874,-0.6120,-0.6010,-0.2781,-0.3626,2.1363,-2.6864,0.6778,0.6312,-1.4284,
3.175190,-0.6120,-0.6010,-0.2781,-0.3626,2.1363,-2.6864,0.5801,0.3185,-1.2189,
3.183249,-0.6120,-0.6010,-0.2781,-0.3626,2.1363,-2.6864,0.4011,-0.4854,-1.0105,
3.187815,-0.4726,-0.6341,-0.1440,-0.3626,2.1363,-2.6864,0.4011,-0.4854,-1.0105,
3.191274,-0.4726,-0.6341,-0.1440,0.8585,1.9117,-1.3975,0.4011,-0.4854,-1.0105,
3.197252,-0.4726,-0.6341,-0.1440,0.8585,1.9117,-1.3975,0.1775,-1.1305,-0.9983,
3.202952,-0.4726,-0.6341,-0.1440,0.8585,1.9117,-1.3975,-0.2782,-1.5728,-1.3111,
3.208550,-0.4691,-1.0846,-0.2405,0.8585,1.9117,-1.3975,-0.2782,-1.5728,-1.3111,
3.210358,-0.4691,-1.0846,-0.2405,0.7116,-2.3836,-2.4083,-0.2782,-1.5728,-1.3111,
3.212834,-0.4691,-1.0846,-0.2405,0.7116,-2.3836,-2.4083,-0.5402,-1.6387,-1.7014,
3.226088,-0.4691,-1.0846,-0.2405,0.7116,-2.3836,-2.4083,-0.7375,-1.5941,-2.4143,
3.227725,-0.6127,-1.5833,-0.2735,0.7116,-2.3836,-2.4083,-0.7375,-1.5941,-2.4143,
3.228931,-0.6127,-1.5833,-0.2735,-1.0681,-7.0434,-2.7225,-0.7375,-1.5941,-2.4143,
3.232736,-0.6127,-1.5833,-0.2735,-1.0681,-7.0434,-2.7225,-0.9275,-1.5453,-3.2310,
3.242769,-0.6127,-1.5833,-0.2735,-1.0681,-7.0434,-2.7225,-1.1914,-1.5862,-3.7436,
3.247334,-0.9706,-1.6193,-0.4405,-1.0681,-7.0434,-2.7225,-1.1914,-1.5862,-3.7436,
3.248483,-0.9706,-1.6193,-0.4405,-5.1355,-7.0932,-4.2470,-1.1914,-1.5862,-3.7436,
3.252745,-0.9706,-1.6193,-0.4405,-5.1355,-7.0932,-4.2470,-1.5372,-1.8434,-3.9708,
3.262680,-0.9706,-1.6193,-0.4405,-5.1355,-7.0932,-4.2470,-1.7143,-1.9619,-3.7417,
3.267505,-1.0837,-1.4652,-0.3632,-5.1355,-7.0932,-4.2470,-1.7143,-1.9619,-3.7417,
3.268506,-1.0837,-1.4652,-0.3632,-6.9197,-5.2803,-3.3425,-1.7143,-1.9619,-3.7417,
3.273989,-1.0837,-1.4652,-0.3632,-6.9197,-5.2803,-3.3425,-1.7491,-2.1274,-3.2457,
3.282738,-1.0837,-1.4652,-0.3632,-6.9197,-5.2803,-3.3425,-1.8029,-2.3864,-2.7894,
3.287235,-0.7093,-1.2065,-0.4291,-6.9197,-5.2803,-3.3425,-1.8029,-2.3864,-2.7894,
3.288761,-0.7093,-1.2065,-0.4291,-3.7750,-2.5547,-3.8006,-1.8029,-2.3864,-2.7894,
3.292745,-0.7093,-1.2065,-0.4291,-3.7750,-2.5547,-3.8006,-2.0405,-2.4506,-2.5921,
3.302755,-0.7093,-1.2065,-0.4291,-3.7750,-2.5547,-3.8006,-2.3374,-2.2068,-2.6862,
3.307591,-0.1292,-1.0742,-0.1371,-3.7750,-2.5547,-3.8006,-2.3374,-2.2068,-2.6862,
3.308736,-0.1292,-1.0742,-0.1371,1.5059,-1.1491,-0.6134,-2.3374,-2.2068,-2.6862,
3.312754,-0.1292,-1.0742,-0.1371,1.5059,-1.1491,-0.6134,-2.4754,-1.7658,-2.9085,
3.324674,-0.1292,-1.0742,-0.1371,1.5059,-1.1491,-0.6134,-2.4003,-1.3626,-3.0967,
3.327626,-0.2647,-0.8978,0.1978,1.5059,-1.1491,-0.6134,-2.4003,-1.3626,-3.0967,
3.329002,-0.2647,-0.8978,0.1978,-0.2886,0.6678,3.0519,-2.4003,-1.3626,-3.0967,
3.332971,-0.2647,-0.8978,0.1978,-0.2886,0.6678,3.0519,-2.0772,-0.8525,-3.1070,
3.342932,-0.2647,-0.8978,0.1978,-0.2886,0.6678,3.0519,-1.6453,-0.1904,-2.8010,
3.347375,-0.2034,-0.9109,0.0453,-0.2886,0.6678,3.0519,-1.6453,-0.1904,-2.8010,
3.348602,-0.2034,-0.9109,0.0453,-0.1598,0.6018,1.8641,-1.6453,-0.1904,-2.8010,
3.352936,-0.2034,-0.9109,0.0453,-0.1598,0.6018,1.8641,-1.3209,0.2568,-2.2695,
3.362919,-0.2034,-0.9109,0.0453,-0.1598,0.6018,1.8641,-1.1535,0.5610,-1.8456,
3.367548,-0.0159,-0.9055,-0.1129,-0.1598,0.6018,1.8641,-1.1535,0.5610,-1.8456,
3.368878,-0.0159,-0.9055,-0.1129,1.3260,0.6801,0.5349,-1.1535,0.5610,-1.8456,
3.374638,-0.0159,-0.9055,-0.1129,1.3260,0.6801,0.5349,-1.0888,0.7559,-1.5994,
3.382977,-0.0159,-0.9055,-0.1129,1.3260,0.6801,0.5349,-1.6056,1.5946,-0.8780,
3.387462,0.0401,-0.8545,-0.0803,1.3260,0.6801,0.5349,-1.6056,1.5946,-0.8780,
3.389200,0.0401,-0.8545,-0.0803,1.6243,1.1686,1.1102,-1.6056,1.5946,-0.8780,
3.393146,0.0401,-0.8545,-0.0803,1.6243,1.1686,1.1102,-1.9012,2.4791,-0.2787,
3.402997,0.0401,-0.8545,-0.0803,1.6243,1.1686,1.1102,-1.8621,2.3435,0.1666,
3.408627,-0.0033,-0.8347,-0.1735,1.6243,1.1686,1.1102,-1.8621,2.3435,0.1666,
3.410137,-0.0033,-0.8347,-0.1735,1.1012,1.2909,0.5786,-1.8621,2.3435,0.1666,
3.412874,-0.0033,-0.8347,-0.1735,1.1012,1.2909,0.5786,-1.6489,1.3704,0.3566,
3.425903,-0.0033,-0.8347,-0.1735,1.1012,1.2909,0.5786,-1.4602,0.3411,0.2772,
3.428113,0.0384,-0.7870,-0.0789,1.1012,1.2909,0.5786,-1.4602,0.3411,0.2772,
3.429557,0.0384,-0.7870,-0.0789,1.5270,1.6887,1.7673,-1.4602,0.3411,0.2772,
3.432925,0.0384,-0.7870,-0.0789,1.5270,1.6887,1.7673,-1.3160,-0.3058,0.1458,
3.442946,0.0384,-0.7870,-0.0789,1.5270,1.6887,1.7673,-1.1993,-0.6375,0.1367,
3.447467,-0.1649,-0.8447,-0.1064,1.5270,1.6887,1.7673,-1.1993,-0.6375,0.1367,
3.448781,-0.1649,-0.8447,-0.1064,-0.4086,1.0708,1.6615,-1.1993,-0.6375,0.1367,
3.452944,-0.1649,-0.8447,-0.1064,-0.4086,1.0708,1.6615,-1.0656,-0.7017,0.2698,
3.462861,-0.1649,-0.8447,-0.1064,-0.4086,1.0708,1.6615,-0.9379,-0.4610,0.4470,
3.467437,-0.2011,-0.9179,-0.2875,-0.4086,1.0708,1.6615,-0.9379,-0.4610,0.4470,
3.468740,-0.2011,-0.9179,-0.2875,-0.6573,0.2991,0.0220,-0.9379,-0.4610,0.4470,
3.474549,-0.2011,-0.9179,-0.2875,-0.6573,0.2991,0.0220,-0.9403,-0.3816,0.5484,
3.482901,-0.2011,-0.9179,-0.2875,-0.6573,0.2991,0.0220,-1.0204,-0.7127,0.6003,
3.487809,-0.3558,-0.9987,-0.2191,-0.6573,0.2991,0.0220,-1.0204,-0.7127,0.6003,
3.489497,-0.3558,-0.9987,-0.2191,-2.0152,-0.5568,0.8184,-1.0204,-0.7127,0.6003,
3.492835,-0.3558,-0.9987,-0.2191,-2.0152,-0.5568,0.8184,-0.9684,-0.9906,0.6327,
3.502884,-0.3558,-0.9987,-0.2191,-2.0152,-0.5568,0.8184,-0.8231,-1.0077,0.6449,
3.508286,-0.3898,-0.8821,-0.2060,-2.0152,-0.5568,0.8184,-0.8231,-1.0077,0.6449,
3.509958,-0.3898,-0.8821,-0.2060,-2.1348,0.5206,1.0371,-0.8231,-1.0077,0.6449,
3.512868,-0.3898,-0.8821,-0.2060,-2.1348,0.5206,1.0371,-0.6819,-0.8678,0.6321,
3.524640,-0.3898,-0.8821,-0.2060,-2.1348,0.5206,1.0371,-0.5695,-0.7542,0.6608,
3.527450,-0.3371,-0.8309,-0.1985,-2.1348,0.5206,1.0371,-0.5695,-0.7542,0.6608,
3.528690,-0.3371,-0.8309,-0.1985,-1.4126,0.9677,1.1521,-0.5695,-0.7542,0.6608,
3.533016,-0.3371,-0.8309,-0.1985,-1.4126,0.9677,1.1521,-0.4749,-0.6925,0.7225,
3.542991,-0.3371,-0.8309,-0.1985,-1.4126,0.9677,1.1521,-0.3765,-0.6070,0.7732,
3.547780,-0.2904,-0.8376,-0.2472,-1.4126,0.9677,1.1521,-0.3765,-0.6070,0.7732,
3.548985,-0.2904,-0.8376,-0.2472,-0.7501,0.8505,0.6937,-0.3765,-0.6070,0.7732,
3.552957,-0.2904,-0.8376,-0.2472,-0.7501,0.8505,0.6937,-0.2910,-0.4695,0.8068,
3.562910,-0.2904,-0.8376,-0.2472,-0.7501,0.8505,0.6937,-0.2354,-0.0615,0.7665,
3.567525,-0.2932,-0.8166,-0.3164,-0.7501,0.8505,0.6937,-0.2354,-0.0615,0.7665,
3.568832,-0.2932,-0.8166,-0.3164,-0.6005,1.0070,0.0352,-0.2354,-0.0615,0.7665,
3.574349,-0.2932,-0.8166,-0.3164,-0.6005,1.0070,0.0352,-0.1810,0.0528,0.7420,
3.582954,-0.2932,-0.8166,-0.3164,-0.6005,1.0070,0.0352,-0.1878,0.1511,0.6797,
3.587398,-0.2314,-0.7784,-0.3064,-0.6005,1.0070,0.0352,-0.1878,0.1511,0.6797,
3.589381,-0.2314,-0.7784,-0.3064,0.1359,1.3372,0.1633,-0.1878,0.1511,0.6797,
3.593182,-0.2314,-0.7784,-0.3064,0.1359,1.3372,0.1633,-0.2116,0.2867,0.6070,
3.602911,-0.2314,-0.7784,-0.3064,0.1359,1.3372,0.1633,-0.2330,0.4077,0.5184,
3.608093,-0.1757,-0.7560,-0.3314,0.1359,1.3372,0.1633,-0.2330,0.4077,0.5184,
3.609888,-0.1757,-0.7560,-0.3314,0.7622,1.5148,-0.0273,-0.2330,0.4077,0.5184,
3.612721,-0.1757,-0.7560,-0.3314,0.7622,1.5148,-0.0273,-0.2513,0.5292,0.3932,
3.624850,-0.1757,-0.7560,-0.3314,0.7622,1.5148,-0.0273,-0.2574,0.6404,0.2362,
3.627505,-0.2077,-0.7817,-0.4005,0.7622,1.5148,-0.0273,-0.2574,0.6404,0.2362,
3.628837,-0.2077,-0.7817,-0.4005,0.4668,1.2308,-0.6297,-0.2574,0.6404,0.2362,
3.633017,-0.2077,-0.7817,-0.4005,0.4668,1.2308,-0.6297,-0.2898,0.7229,0.1153,
3.642931,-0.2077,-0.7817,-0.4005,0.4668,1.2308,-0.6297,-0.3240,0.8683,0.0750,
3.647539,-0.3062,-0.7693,-0.3976,0.4668,1.2308,-0.6297,-0.3240,0.8683,0.0750,
3.648749,-0.3062,-0.7693,-0.3976,-0.5315,1.3241,-0.5037,-0.3240,0.8683,0.0750,
3.653088,-0.3062,-0.7693,-0.3976,-0.5315,1.3241,-0.5037,-0.3429,1.0106,0.0921,
3.662875,-0.3062,-0.7693,-0.3976,-0.5315,1.3241,-0.5037,-0.3564,1.1279,0.0945,
3.667764,-0.1722,-0.7578,-0.4175,-0.5315,1.3241,-0.5037,-0.3564,1.1279,0.0945,
3.669060,-0.1722,-0.7578,-0.4175,0.7264,1.4051,-0.5791,-0.3564,1.1279,0.0945,
3.673102,-0.1722,-0.7578,-0.4175,0.7264,1.4051,-0.5791,-0.3447,1.2317,0.0713,
3.682885,-0.1722,-0.7578,-0.4175,0.7264,1.4051,-0.5791,-0.3228,1.3026,0.0487,
3.687336,-0.1654,-0.7570,-0.4279,0.7264,1.4051,-0.5791,-0.3228,1.3026,0.0487,
3.688542,-0.1654,-0.7570,-0.4279,0.7138,1.3833,-0.5536,-0.3228,1.3026,0.0487,
3.693034,-0.1654,-0.7570,-0.4279,0.7138,1.3833,-0.5536,-0.3356,1.2867,0.0236,
3.702929,-0.1654,-0.7570,-0.4279,0.7138,1.3833,-0.5536,-0.3221,1.0876,0.0010,
3.708444,-0.2213,-0.7583,-0.3996,0.7138,1.3833,-0.5536,-0.3221,1.0876,0.0010,
3.710335,-0.2213,-0.7583,-0.3996,0.0818,1.3415,-0.1558,-0.3221,1.0876,0.0010,
3.712919,-0.2213,-0.7583,-0.3996,0.0818,1.3415,-0.1558,-0.2378,0.6905,0.0023,
3.723052,-0.2213,-0.7583,-0.3996,0.0818,1.3415,-0.1558,-0.2629,0.5653,0.0499,
3.727658,-0.1093,-0.7304,-0.4349,0.0818,1.3415,-0.1558,-0.2629,0.5653,0.0499,
3.729425,-0.1093,-0.7304,-0.4349,1.1344,1.5912,-0.4190,-0.2629,0.5653,0.0499,
3.733026,-0.1093,-0.7304,-0.4349,1.1344,1.5912,-0.4190,-0.3832,0.6422,0.0896,
3.743288,-0.1093,-0.7304,-0.4349,1.1344,1.5912,-0.4190,-0.4614,0.6954,0.0762,
3.747546,-0.1247,-0.7461,-0.4581,1.1344,1.5912,-0.4190,-0.4614,0.6954,0.0762,
3.749461,-0.1247,-0.7461,-0.4581,0.9405,1.3953,-0.5297,-0.4614,0.6954,0.0762,
3.753136,-0.1247,-0.7461,-0.4581,0.9405,1.3953,-0.5297,-0.4736,0.8854,0.0304,
3.762945,-0.1247,-0.7461,-0.4581,0.9405,1.3953,-0.5297,-0.3808,0.8774,0.0371,
3.767968,-0.2656,-0.7520,-0.4332,0.9405,1.3953,-0.5297,-0.3808,0.8774,0.0371,
3.769510,-0.2656,-0.7520,-0.4332,-0.5034,1.2970,-0.1635,-0.3808,0.8774,0.0371,
3.773418,-0.2656,-0.7520,-0.4332,-0.5034,1.2970,-0.1635,-0.2531,0.8768,0.0786,
3.782980,-0.2656,-0.7520,-0.4332,-0.5034,1.2970,-0.1635,-0.1371,0.8176,0.1269,
3.787620,-0.3560,-0.7900,-0.4589,-0.5034,1.2970,-0.1635,-0.1371,0.8176,0.1269,
3.789421,-0.3560,-0.7900,-0.4589,-1.4296,0.8965,-0.3365,-0.1371,0.8176,0.1269,
3.795290,-0.3560,-0.7900,-0.4589,-1.4296,0.8965,-0.3365,-0.0766,0.7962,0.1904,
3.803146,-0.3560,-0.7900,-0.4589,-1.4296,0.8965,-0.3365,-0.0558,0.7937,0.2765,
3.809170,-0.4234,-0.7853,-0.4948,-1.4296,0.8965,-0.3365,-0.0558,0.7937,0.2765,
3.811267,-0.4234,-0.7853,-0.4948,-2.0858,0.9120,-0.6289,-0.0558,0.7937,0.2765,
3.813090,-0.4234,-0.7853,-0.4948,-2.0858,0.9120,-0.6289,-0.0271,0.7491,0.3584,
3.823390,-0.4234,-0.7853,-0.4948,-2.0858,0.9120,-0.6289,0.0291,0.6710,0.4348,
3.827650,-0.4454,-0.7799,-0.4834,-2.0858,0.9120,-0.6289,0.0291,0.6710,0.4348,
3.830202,-0.4454,-0.7799,-0.4834,-2.2431,0.9272,-0.4694,0.0291,0.6710,0.4348,
3.832927,-0.4454,-0.7799,-0.4834,-2.2431,0.9272,-0.4694,0.1262,0.6093,0.5081,
3.842764,-0.4454,-0.7799,-0.4834,-2.2431,0.9272,-0.4694,0.2350,0.5983,0.5618,
3.847452,-0.3567,-0.8021,-0.6392,-2.2431,0.9272,-0.4694,0.2350,0.5983,0.5618,
3.848528,-0.3567,-0.8021,-0.6392,-1.2866,0.6752,-1.9704,0.2350,0.5983,0.5618,
3.852801,-0.3567,-0.8021,-0.6392,-1.2866,0.6752,-1.9704,0.3254,0.6062,0.5850,
3.862575,-0.3567,-0.8021,-0.6392,-1.2866,0.6752,-1.9704,0.3956,0.6587,0.5783,
3.867212,-0.3815,-0.8707,-0.7181,-1.2866,0.6752,-1.9704,0.3956,0.6587,0.5783,
3.868078,-0.3815,-0.8707,-0.7181,-1.4413,-0.0266,-2.7324,0.3956,0.6587,0.5783,
3.872970,-0.3815,-0.8707,-0.7181,-1.4413,-0.0266,-2.7324,0.4378,0.7858,0.5740,
3.882586,-0.3815,-0.8707,-0.7181,-1.4413,-0.0266,-2.7324,0.4805,0.9202,0.5832,
3.887029,-0.3808,-0.8900,-0.7230,-1.4413,-0.0266,-2.7324,0.4805,0.9202,0.5832,
3.887872,-0.3808,-0.8900,-0.7230,-1.3705,-0.2397,-2.7675,0.4805,0.9202,0.5832,
3.892618,-0.3808,-0.8900,-0.7230,-1.3705,-0.2397,-2.7675,0.5441,1.0082,0.5875,
3.902620,-0.3808,-0.8900,-0.7230,-1.3705,-0.2397,-2.7675,0.5887,1.0772,0.5795,
3.907734,-0.2951,-0.8206,-0.6986,-1.3705,-0.2397,-2.7675,0.5887,1.0772,0.5795,
3.909272,-0.2951,-0.8206,-0.6986,-0.4925,0.4230,-2.5157,0.5887,1.0772,0.5795,
3.912542,-0.2951,-0.8206,-0.6986,-0.4925,0.4230,-2.5157,0.6485,0.9917,0.5349,
3.922744,-0.2951,-0.8206,-0.6986,-0.4925,0.4230,-2.5157,0.7175,0.7815,0.4531,
3.927226,-0.3456,-0.7145,-0.7438,-0.4925,0.4230,-2.5157,0.7175,0.7815,0.4531,
3.928348,-0.3456,-0.7145,-0.7438,-0.9497,1.4529,-2.9590,0.7175,0.7815,0.4531,
3.932632,-0.3456,-0.7145,-0.7438,-0.9497,1.4529,-2.9590,0.7151,0.4804,0.3193,
3.943275,-0.3456,-0.7145,-0.7438,-0.9497,1.4529,-2.9590,0.7298,0.5017,0.3004,
3.947811,-0.3761,-0.9456,-0.6325,-0.9497,1.4529,-2.9590,0.7298,0.5017,0.3004,
3.949627,-0.3761,-0.9456,-0.6325,-1.2110,-0.8055,-1.9029,0.7298,0.5017,0.3004,
3.953232,-0.3761,-0.9456,-0.6325,-1.2110,-0.8055,-1.9029,0.8141,0.4975,0.2313,
3.963287,-0.3761,-0.9456,-0.6325,-1.2110,-0.8055,-1.9029,0.8935,0.4724,0.1067,
3.968047,-0.2413,-1.3682,-0.6116,-1.2110,-0.8055,-1.9029,0.8935,0.4724,0.1067,
3.969723,-0.2413,-1.3682,-0.6116,0.1024,-4.8995,-1.7892,0.8935,0.4724,0.1067,
3.973483,-0.2413,-1.3682,-0.6116,0.1024,-4.8995,-1.7892,0.8984,0.4333,0.0475,
3.983140,-0.2413,-1.3682,-0.6116,0.1024,-4.8995,-1.7892,0.9075,0.2397,0.1825,
3.987811,-0.3876,-1.1366,-0.2629,0.1024,-4.8995,-1.7892,0.9075,0.2397,0.1825,
3.989730,-0.3876,-1.1366,-0.2629,-1.3357,-2.5642,1.4955,0.9075,0.2397,0.1825,
3.994150,-0.3876,-1.1366,-0.2629,-1.3357,-2.5642,1.4955,1.0297,-0.1678,0.4439,
4.003464,-0.3876,-1.1366,-0.2629,-1.3357,-2.5642,1.4955,1.1708,-0.5428,0.5704,
4.010406,0.0668,-0.8283,-0.2615,-1.3357,-2.5642,1.4955,1.1708,-0.5428,0.5704,
4.013157,0.0668,-0.8283,-0.2615,3.2243,0.5199,1.3052,1.1708,-0.5428,0.5704,
4.015540,0.0668,-0.8283,-0.2615,3.2243,0.5199,1.3052,1.0517,-0.6510,0.4067,
4.023676,0.0668,-0.8283,-0.2615,3.2243,0.5199,1.3052,0.6607,-0.4268,0.1086,
4.028929,0.3048,-0.9494,-0.5086,3.2243,0.5199,1.3052,0.6607,-0.4268,0.1086,
4.032025,0.3048,-0.9494,-0.5086,5.5670,-0.6048,-1.2647,0.6607,-0.4268,0.1086,
4.034300,0.3048,-0.9494,-0.5086,5.5670,-0.6048,-1.2647,0.2515,-0.1800,-0.1596,
4.043482,0.3048,-0.9494,-0.5086,5.5670,-0.6048,-1.2647,-0.0100,-0.1458,-0.4015,
4.048088,0.0855,-1.0548,-0.0865,5.5670,-0.6048,-1.2647,-0.0100,-0.1458,-0.4015,
4.050266,0.0855,-1.0548,-0.0865,3.2952,-1.5871,2.8364,-0.0100,-0.1458,-0.4015,
4.053523,0.0855,-1.0548,-0.0865,3.2952,-1.5871,2.8364,-0.0552,-0.1641,-0.5597,
4.063466,0.0855,-1.0548,-0.0865,3.2952,-1.5871,2.8364,0.1097,-0.1879,-0.5799,
4.068069,-0.2268,-1.0447,0.1239,3.2952,-1.5871,2.8364,0.1097,-0.1879,-0.5799,
4.070239,-0.2268,-1.0447,0.1239,0.0879,-1.4197,4.8297,0.1097,-0.1879,-0.5799,
4.073819,-0.2268,-1.0447,0.1239,0.0879,-1.4197,4.8297,0.3901,-0.3828,-0.4809,
4.083400,-0.2268,-1.0447,0.1239,0.0879,-1.4197,4.8297,0.6998,-0.7432,-0.3038,
4.088279,-0.3183,-0.9819,0.1714,0.0879,-1.4197,4.8297,0.6998,-0.7432,-0.3038,
4.091473,-0.3183,-0.9819,0.1714,-0.8682,-0.7057,5.0848,0.6998,-0.7432,-0.3038,
4.093935,-0.3183,-0.9819,0.1714,-0.8682,-0.7057,5.0848,0.9698,-1.0883,-0.1034,
4.103509,-0.3183,-0.9819,0.1714,-0.8682,-0.7057,5.0848,1.1476,-1.2630,0.0670,
4.110412,-0.2602,-0.9253,0.0133,-0.8682,-0.7057,5.0848,1.1476,-1.2630,0.0670,
4.112956,-0.2602,-0.9253,0.0133,-0.2436,-0.0452,3.2029,1.1476,-1.2630,0.0670,
4.115408,-0.2602,-0.9253,0.0133,-0.2436,-0.0452,3.2029,1.2142,-1.1671,0.2686,
4.123558,-0.2602,-0.9253,0.0133,-0.2436,-0.0452,3.2029,1.0810,-0.5178,0.2729,
4.128746,-0.1755,-0.8611,-0.0691,-0.2436,-0.0452,3.2029,1.0810,-0.5178,0.2729,
4.131679,-0.1755,-0.8611,-0.0691,0.6638,0.6688,2.0695,1.0810,-0.5178,0.2729,
4.134470,-0.1755,-0.8611,-0.0691,0.6638,0.6688,2.0695,0.9998,-0.2893,0.2093,
4.143937,-0.1755,-0.8611,-0.0691,0.6638,0.6688,2.0695,0.9839,-0.1586,0.0872,
4.148452,-0.0363,-0.8723,-0.0650,0.6638,0.6688,2.0695,0.9839,-0.1586,0.0872,
4.150480,-0.0363,-0.8723,-0.0650,2.0311,0.6325,1.8498,0.9839,-0.1586,0.0872,
4.153539,-0.0363,-0.8723,-0.0650,2.0311,0.6325,1.8498,1.0016,-0.0474,-0.0472,
4.163587,-0.0363,-0.8723,-0.0650,2.0311,0.6325,1.8498,0.9967,0.0448,-0.1682,
4.168147,0.0079,-0.8663,-0.1875,2.0311,0.6325,1.8498,0.9967,0.0448,-0.1682,
4.170305,0.0079,-0.8663,-0.1875,2.3938,0.7682,0.4197,0.9967,0.0448,-0.1682,
4.173629,0.0079,-0.8663,-0.1875,2.3938,0.7682,0.4197,0.9582,0.0601,-0.2781,
4.183420,0.0079,-0.8663,-0.1875,2.3938,0.7682,0.4197,0.9265,0.0222,-0.3612,
4.188176,-0.0406,-0.8320,-0.1123,2.3938,0.7682,0.4197,0.9265,0.0222,-0.3612,
4.190798,-0.0406,-0.8320,-0.1123,1.8061,1.1799,0.9502,0.9265,0.0222,-0.3612,
4.195602,-0.0406,-0.8320,-0.1123,1.8061,1.1799,0.9502,0.9362,-0.0462,-0.4143,
4.203450,-0.0406,-0.8320,-0.1123,1.8061,1.1799,0.9502,0.9894,-0.1433,-0.4638,
4.210627,-0.0906,-0.8557,0.0013,1.8061,1.1799,0.9502,0.9894,-0.1433,-0.4638,
4.213684,-0.0906,-0.8557,0.0013,1.1936,1.0212,1.8426,0.9894,-0.1433,-0.4638,
4.215953,-0.0906,-0.8557,0.0013,1.1936,1.0212,1.8426,1.0486,-0.2258,-0.5054,
4.223818,-0.0906,-0.8557,0.0013,1.1936,1.0212,1.8426,1.0816,-0.2741,-0.5237,
4.229354,-0.1631,-0.9456,0.0381,1.1936,1.0212,1.8426,1.0816,-0.2741,-0.5237,
4.232421,-0.1631,-0.9456,0.0381,0.3674,0.2100,1.9543,1.0816,-0.2741,-0.5237,
4.234760,-0.1631,-0.9456,0.0381,0.3674,0.2100,1.9543,1.1030,-0.2802,-0.5133,
4.243784,-0.1631,-0.9456,0.0381,0.3674,0.2100,1.9543,1.1201,-0.2686,-0.4767,
4.248293,-0.1131,-0.9703,-0.0309,0.3674,0.2100,1.9543,1.1201,-0.2686,-0.4767,
4.250496,-0.1131,-0.9703,-0.0309,0.7499,0.0278,1.0289,1.1201,-0.2686,-0.4767,
4.253423,-0.1131,-0.9703,-0.0309,0.7499,0.0278,1.0289,1.1183,-0.2191,-0.4479,
4.263529,-0.1131,-0.9703,-0.0309,0.7499,0.0278,1.0289,1.0798,-0.1329,-0.4327,
4.268052,-0.0454,-0.9472,-0.1537,0.7499,0.0278,1.0289,1.0798,-0.1329,-0.4327,
4.270073,-0.0454,-0.9472,-0.1537,1.3147,0.3012,-0.3979,1.0798,-0.1329,-0.4327,
4.274777,-0.0454,-0.9472,-0.1537,1.3147,0.3012,-0.3979,0.9973,-0.0493,-0.4369,
4.283603,-0.0454,-0.9472,-0.1537,1.3147,0.3012,-0.3979,0.8813,0.0063,-0.4724,
4.288055,-0.0491,-0.9471,-0.1528,1.3147,0.3012,-0.3979,0.8813,0.0063,-0.4724,
4.290143,-0.0491,-0.9471,-0.1528,1.1736,0.3402,-0.5693,0.8813,0.0063,-0.4724,
4.295151,-0.0491,-0.9471,-0.1528,1.1736,0.3402,-0.5693,0.7511,0.0118,-0.5194,
4.303463,-0.0491,-0.9471,-0.1528,1.1736,0.3402,-0.5693,0.7163,-0.1226,-0.5457,
4.310666,-0.0822,-0.9201,0.0129,1.1736,0.3402,-0.5693,0.7163,-0.1226,-0.5457,
4.314260,-0.0822,-0.9201,0.0129,0.7341,0.6367,0.9105,0.7163,-0.1226,-0.5457,
4.317075,-0.0822,-0.9201,0.0129,0.7341,0.6367,0.9105,0.7951,-0.2759,-0.5524,
4.323657,-0.0822,-0.9201,0.0129,0.7341,0.6367,0.9105,0.8825,-0.4530,-0.5438,
4.329071,-0.1324,-0.8984,0.0373,0.7341,0.6367,0.9105,0.8825,-0.4530,-0.5438,
4.334107,-0.1324,-0.8984,0.0373,0.1345,0.8778,0.9719,0.8825,-0.4530,-0.5438,
4.336379,-0.1324,-0.8984,0.0373,0.1345,0.8778,0.9719,0.9625,-0.5685,-0.5341,
4.343817,-0.1324,-0.8984,0.0373,0.1345,0.8778,0.9719,0.9967,-0.6088,-0.5304,
4.348121,-0.1834,-0.8905,-0.0129,0.1345,0.8778,0.9719,0.9967,-0.6088,-0.5304,
4.350331,-0.1834,-0.8905,-0.0129,-0.4622,0.9803,0.2737,0.9967,-0.6088,-0.5304,
4.353562,-0.1834,-0.8905,-0.0129,-0.4622,0.9803,0.2737,0.9985,-0.6546,-0.5151,
4.363390,-0.1834,-0.8905,-0.0129,-0.4622,0.9803,0.2737,0.9827,-0.6577,-0.5041,
4.367953,-0.1744,-0.8933,-0.0656,-0.4622,0.9803,0.2737,0.9827,-0.6577,-0.5041,
4.369787,-0.1744,-0.8933,-0.0656,-0.4679,0.9714,-0.4491,0.9827,-0.6577,-0.5041,
4.373410,-0.1744,-0.8933,-0.0656,-0.4679,0.9714,-0.4491,0.9619,-0.5880,-0.4950,
4.383211,-0.1744,-0.8933,-0.0656,-0.4679,0.9714,-0.4491,0.9625,-0.5031,-0.4693,
4.387777,-0.1589,-0.9179,-0.0498,-0.4679,0.9714,-0.4491,0.9625,-0.5031,-0.4693,
4.389297,-0.1589,-0.9179,-0.0498,-0.4028,0.7434,-0.4873,0.9625,-0.5031,-0.4693,
4.393955,-0.1589,-0.9179,-0.0498,-0.4028,0.7434,-0.4873,0.9778,-0.4750,-0.4644,
4.403223,-0.1589,-0.9179,-0.0498,-0.4028,0.7434,-0.4873,0.9973,-0.5056,-0.4608,
4.410206,-0.2325,-0.8850,-0.0399,-0.4028,0.7434,-0.4873,0.9973,-0.5056,-0.4608,
4.412757,-0.2325,-0.8850,-0.0399,-1.1972,1.0721,-0.5776,0.9973,-0.5056,-0.4608,
4.414819,-0.2325,-0.8850,-0.0399,-1.1972,1.0721,-0.5776,1.0407,-0.5984,-0.4333,
4.423434,-0.2325,-0.8850,-0.0399,-1.1972,1.0721,-0.5776,1.0767,-0.7823,-0.3899,
4.428084,-0.2671,-0.8855,-0.0481,-1.1972,1.0721,-0.5776,1.0767,-0.7823,-0.3899,
4.430481,-0.2671,-0.8855,-0.0481,-1.5858,1.0670,-0.8501,1.0767,-0.7823,-0.3899,
4.433067,-0.2671,-0.8855,-0.0481,-1.5858,1.0670,-0.8501,1.0767,-1.0236,-0.3404,
4.443875,-0.2671,-0.8855,-0.0481,-1.5858,1.0670,-0.8501,1.0651,-1.1873,-0.3038,
4.448350,-0.2834,-0.9015,0.0363,-1.5858,1.0670,-0.8501,1.0651,-1.1873,-0.3038,
4.450510,-0.2834,-0.9015,0.0363,-1.7667,0.9028,-0.2215,1.0651,-1.1873,-0.3038,
4.453469,-0.2834,-0.9015,0.0363,-1.7667,0.9028,-0.2215,1.0670,-1.1952,-0.2940,
4.463534,-0.2834,-0.9015,0.0363,-1.7667,0.9028,-0.2215,1.0755,-1.1097,-0.3142,
4.467957,-0.2915,-0.8895,0.1808,-1.7667,0.9028,-0.2215,1.0755,-1.1097,-0.3142,
4.470138,-0.2915,-0.8895,0.1808,-1.8584,1.0063,0.9807,1.0755,-1.1097,-0.3142,
4.473706,-0.2915,-0.8895,0.1808,-1.8584,1.0063,0.9807,1.1067,-0.9979,-0.3453,
4.483404,-0.2915,-0.8895,0.1808,-1.8584,1.0063,0.9807,1.1885,-0.6558,-0.2940,
4.488209,-0.2212,-0.8753,0.2278,-1.8584,1.0063,0.9807,1.1885,-0.6558,-0.2940,
4.490691,-0.2212,-0.8753,0.2278,-1.1882,1.1251,1.2066,1.1885,-0.6558,-0.2940,
4.495651,-0.2212,-0.8753,0.2278,-1.1882,1.1251,1.2066,1.1812,-0.3608,-0.2421,
4.503531,-0.2212,-0.8753,0.2278,-1.1882,1.1251,1.2066,1.1201,-0.0554,-0.2293,
4.511102,0.0305,-0.9181,0.2125,-1.1882,1.1251,1.2066,1.1201,-0.0554,-0.2293,
4.514424,0.0305,-0.9181,0.2125,1.2451,0.6825,0.8282,1.1201,-0.0554,-0.2293,
4.517142,0.0305,-0.9181,0.2125,1.2451,0.6825,0.8282,1.0425,0.1670,-0.2781,
4.523606,0.0305,-0.9181,0.2125,1.2451,0.6825,0.8282,0.9808,0.2372,-0.3600,
4.528394,0.2265,-0.9637,0.0793,1.2451,0.6825,0.8282,0.9808,0.2372,-0.3600,
4.530974,0.2265,-0.9637,0.0793,3.1051,0.2154,-0.6663,0.9808,0.2372,-0.3600,
4.533370,0.2265,-0.9637,0.0793,3.1051,0.2154,-0.6663,0.9106,0.1126,-0.4748,
4.544764,0.2265,-0.9637,0.0793,3.1051,0.2154,-0.6663,0.7854,-0.2014,-0.5408,
4.549729,0.0884,-0.9412,-0.0608,3.1051,0.2154,-0.6663,0.7854,-0.2014,-0.5408,
4.551674,0.0884,-0.9412,-0.0608,1.6357,0.4241,-2.1774,0.7854,-0.2014,-0.5408,
4.554246,0.0884,-0.9412,-0.0608,1.6357,0.4241,-2.1774,0.6345,-0.6998,-0.5390,
4.563660,0.0884,-0.9412,-0.0608,1.6357,0.4241,-2.1774,0.4805,-1.2111,-0.4504,
4.568097,-0.3718,-0.9651,0.0963,1.6357,0.4241,-2.1774,0.4805,-1.2111,-0.4504,
4.569988,-0.3718,-0.9651,0.0963,-2.9871,0.1817,-0.7329,0.4805,-1.2111,-0.4504,
4.573196,-0.3718,-0.9651,0.0963,-2.9871,0.1817,-0.7329,0.4549,-1.5062,-0.2879,
4.583252,-0.3718,-0.9651,0.0963,-2.9871,0.1817,-0.7329,0.6516,-1.4268,-0.1236,
4.587760,-0.4824,-1.1751,0.3999,-2.9871,0.1817,-0.7329,0.6516,-1.4268,-0.1236,
4.590191,-0.4824,-1.1751,0.3999,-4.1085,-1.8944,2.1276,0.6516,-1.4268,-0.1236,
4.594332,-0.4824,-1.1751,0.3999,-4.1085,-1.8944,2.1276,0.9466,-1.0981,0.0224,
4.603313,-0.4824,-1.1751,0.3999,-4.1085,-1.8944,2.1276,1.2288,-0.6363,0.1055,
4.610255,-0.2811,-1.4912,0.0781,-4.1085,-1.8944,2.1276,1.2288,-0.6363,0.1055,
4.613233,-0.2811,-1.4912,0.0781,-2.1045,-5.0316,-1.2151,1.2288,-0.6363,0.1055,
4.615234,-0.2811,-1.4912,0.0781,-2.1045,-5.0316,-1.2151,1.3510,-0.2948,0.0866,
4.623677,-0.2811,-1.4912,0.0781,-2.1045,-5.0316,-1.2151,1.2783,-0.0786,-0.0625,
4.628780,-0.0985,-1.6636,-0.1250,-2.1045,-5.0316,-1.2151,1.2783,-0.0786,-0.0625,
4.631331,-0.0985,-1.6636,-0.1250,-0.2861,-6.7631,-3.3914,1.2783,-0.0786,-0.0625,
4.634064,-0.0985,-1.6636,-0.1250,-0.2861,-6.7631,-3.3914,1.0260,-0.0621,-0.2286,
4.644423,-0.0985,-1.6636,-0.1250,-0.2861,-6.7631,-3.3914,0.6913,-0.2069,-0.3820,
4.649030,-0.0497,-1.7226,-0.0329,-0.2861,-6.7631,-3.3914,0.6913,-0.2069,-0.3820,
4.651202,-0.0497,-1.7226,-0.0329,0.1449,-7.3594,-2.5805,0.6913,-0.2069,-0.3820,
4.653309,-0.0497,-1.7226,-0.0329,0.1449,-7.3594,-2.5805,0.3608,-0.5025,-0.4461,
4.663604,-0.0497,-1.7226,-0.0329,0.1449,-7.3594,-2.5805,0.0957,-0.8733,-0.4577,
4.668250,-0.1735,-1.8751,0.0889,0.1449,-7.3594,-2.5805,0.0957,-0.8733,-0.4577,
4.670235,-0.1735,-1.8751,0.0889,-1.1851,-8.8586,-1.4381,0.0957,-0.8733,-0.4577,
4.673405,-0.1735,-1.8751,0.0889,-1.1851,-8.8586,-1.4381,-0.4174,-1.1396,-0.3630,
4.683460,-0.1735,-1.8751,0.0889,-1.1851,-8.8586,-1.4381,-0.6270,-0.7792,-0.2372,
4.688261,-0.0618,-1.7282,0.1875,-1.1851,-8.8586,-1.4381,-0.6270,-0.7792,-0.2372,
4.690951,-0.0618,-1.7282,0.1875,-0.1919,-7.3933,-0.3817,-0.6270,-0.7792,-0.2372,
4.693817,-0.0618,-1.7282,0.1875,-0.1919,-7.3933,-0.3817,-0.7522,-0.4970,-0.1034,
4.703486,-0.0618,-1.7282,0.1875,-0.1919,-7.3933,-0.3817,-0.9214,-0.6076,0.0004,
4.710795,0.2428,-1.4103,-0.0550,-0.1919,-7.3933,-0.3817,-0.9214,-0.6076,0.0004,
4.714403,0.2428,-1.4103,-0.0550,2.7602,-4.2410,-2.6023,-0.9214,-0.6076,0.0004,
4.716923,0.2428,-1.4103,-0.0550,2.7602,-4.2410,-2.6023,-1.2586,-0.8360,-0.0118,
4.723645,0.2428,-1.4103,-0.0550,2.7602,-4.2410,-2.6023,-1.6434,-1.0040,-0.0985,
4.728776,0.1633,-1.2981,0.0384,2.7602,-4.2410,-2.6023,-1.6434,-1.0040,-0.0985,
4.731243,0.1633,-1.2981,0.0384,1.9295,-3.0825,-1.3991,-1.6434,-1.0040,-0.0985,
4.734159,0.1633,-1.2981,0.0384,1.9295,-3.0825,-1.3991,-1.9061,-1.2160,-0.0582,
4.744197,0.1633,-1.2981,0.0384,1.9295,-3.0825,-1.3991,-2.0827,-1.4634,0.0847,
4.748791,0.1832,-1.3012,0.1725,1.9295,-3.0825,-1.3991,-2.0827,-1.4634,0.0847,
4.751185,0.1832,-1.3012,0.1725,2.0700,-3.0466,0.3085,-2.0827,-1.4634,0.0847,
4.753372,0.1832,-1.3012,0.1725,2.0700,-3.0466,0.3085,-2.2519,-1.6290,0.1904,
4.763436,0.1832,-1.3012,0.1725,2.0700,-3.0466,0.3085,-2.4302,-1.6186,0.2875,
4.768186,0.2288,-1.3024,0.2312,2.0700,-3.0466,0.3085,-2.4302,-1.6186,0.2875,
4.770340,0.2288,-1.3024,0.2312,2.4972,-3.0046,1.3333,-2.4302,-1.6186,0.2875,
4.773281,0.2288,-1.3024,0.2312,2.4972,-3.0046,1.3333,-2.5866,-1.4567,0.4042,
4.783400,0.2288,-1.3024,0.2312,2.4972,-3.0046,1.3333,-2.7070,-1.2429,0.5136,
4.788065,0.2597,-1.2673,0.1499,2.4972,-3.0046,1.3333,-2.7070,-1.2429,0.5136,
4.790052,0.2597,-1.2673,0.1499,2.8208,-2.6271,1.0269,-2.7070,-1.2429,0.5136,
4.795106,0.2597,-1.2673,0.1499,2.8208,-2.6271,1.0269,-2.7852,-1.1354,0.6571,
4.803412,0.2597,-1.2673,0.1499,2.8208,-2.6271,1.0269,-2.8389,-1.1885,0.7927,
4.808204,0.3208,-1.2416,0.1000,2.8208,-2.6271,1.0269,-2.8389,-1.1885,0.7927,
4.810785,0.3208,-1.2416,0.1000,3.4832,-2.3668,1.0420,-2.8389,-1.1885,0.7927,
4.815841,0.3208,-1.2416,0.1000,3.4832,-2.3668,1.0420,-2.8878,-1.3944,0.9155,
4.823440,0.3208,-1.2416,0.1000,3.4832,-2.3668,1.0420,-2.9195,-1.6454,1.0982,
4.829259,0.3685,-1.2843,0.0950,3.4832,-2.3668,1.0420,-2.9195,-1.6454,1.0982,
4.832077,0.3685,-1.2843,0.0950,4.0654,-2.8061,1.4902,-2.9195,-1.6454,1.0982,
4.834396,0.3685,-1.2843,0.0950,4.0654,-2.8061,1.4902,-2.8737,-1.7420,1.2411,
4.843864,0.3685,-1.2843,0.0950,4.0654,-2.8061,1.4902,-2.8151,-1.5495,1.3553,
4.847901,0.2117,-1.2250,0.0458,4.0654,-2.8061,1.4902,-2.8151,-1.5495,1.3553,
4.849705,0.2117,-1.2250,0.0458,2.7090,-2.2721,1.4722,-2.8151,-1.5495,1.3553,
4.853324,0.2117,-1.2250,0.0458,2.7090,-2.2721,1.4722,-2.5597,-0.6711,1.5936,
4.863769,0.2117,-1.2250,0.0458,2.7090,-2.2721,1.4722,-2.4247,-0.4634,1.7133,
4.868015,0.0243,-1.1109,0.0055,2.7090,-2.2721,1.4722,-2.4247,-0.4634,1.7133,
4.869813,0.0243,-1.1109,0.0055,1.1142,-1.2225,1.4721,-2.4247,-0.4634,1.7133,
4.873198,0.0243,-1.1109,0.0055,1.1142,-1.2225,1.4721,-2.3123,-0.4445,1.8226,
4.883050,0.0243,-1.1109,0.0055,1.1142,-1.2225,1.4721,-2.1602,-0.5270,2.0047,
4.887714,-0.3039,-1.0648,0.0966,1.1142,-1.2225,1.4721,-2.1602,-0.5270,2.0047,
4.889447,-0.3039,-1.0648,0.0966,-1.7839,-0.8582,2.6866,-2.1602,-0.5270,2.0047,
4.893835,-0.3039,-1.0648,0.0966,-1.7839,-0.8582,2.6866,-1.9868,-0.6766,2.2515,
4.903056,-0.3039,-1.0648,0.0966,-1.7839,-0.8582,2.6866,-1.8218,-0.8452,2.4702,
4.908495,-0.3832,-1.0227,0.1002,-1.7839,-0.8582,2.6866,-1.8218,-0.8452,2.4702,
4.910222,-0.3832,-1.0227,0.1002,-2.1226,-0.5553,2.9523,-1.8218,-0.8452,2.4702,
4.913999,-0.3832,-1.0227,0.1002,-2.1226,-0.5553,2.9523,-1.6514,-0.9185,2.6772,
4.923270,-0.3832,-1.0227,0.1002,-2.1226,-0.5553,2.9523,-1.4724,-0.8922,2.9155,
4.928926,-0.4299,-0.9412,0.0712,-2.1226,-0.5553,2.9523,-1.4724,-0.8922,2.9155,
4.931558,-0.4299,-0.9412,0.0712,-2.0405,0.1027,2.8127,-1.4724,-0.8922,2.9155,
4.933716,-0.4299,-0.9412,0.0712,-2.0405,0.1027,2.8127,-1.3185,-0.8733,3.1330,
4.944820,-0.4299,-0.9412,0.0712,-2.0405,0.1027,2.8127,-1.2513,-0.9075,3.1989,
4.948419,-0.1570,-0.7062,-0.4506,-2.0405,0.1027,2.8127,-1.2513,-0.9075,3.1989,
4.950435,-0.1570,-0.7062,-0.4506,1.2131,2.2213,-2.1737,-1.2513,-0.9075,3.1989,
4.953365,-0.1570,-0.7062,-0.4506,1.2131,2.2213,-2.1737,-1.3221,-1.0285,3.0865,
4.964850,-0.1570,-0.7062,-0.4506,1.2131,2.2213,-2.1737,-1.5133,-1.2973,2.8397,
4.967927,-0.0851,-0.5023,-0.4840,1.2131,2.2213,-2.1737,-1.5133,-1.2973,2.8397,
4.969888,-0.0851,-0.5023,-0.4840,2.4382,4.0021,-2.3320,-1.5133,-1.2973,2.8397,
4.973244,-0.0851,-0.5023,-0.4840,2.4382,4.0021,-2.3320,-1.7406,-1.6644,2.5667,
4.983383,-0.0851,-0.5023,-0.4840,2.4382,4.0021,-2.3320,-1.8597,-2.1256,2.3040,
4.987873,-0.0937,-0.5024,-0.2803,2.4382,4.0021,-2.3320,-1.8597,-2.1256,2.3040,
4.989887,-0.0937,-0.5024,-0.2803,2.7952,3.7741,-0.1530,-1.8597,-2.1256,2.3040,
4.995002,-0.0937,-0.5024,-0.2803,2.7952,3.7741,-0.1530,-1.8542,-2.4420,1.9845,
5.003306,-0.0937,-0.5024,-0.2803,2.7952,3.7741,-0.1530,-1.7705,-2.2850,1.7310,
5.008352,-0.1099,-0.6208,-0.0377,2.7952,3.7741,-0.1530,-1.7705,-2.2850,1.7310,
5.010812,-0.1099,-0.6208,-0.0377,2.9836,2.4250,2.3283,-1.7705,-2.2850,1.7310,
5.015664,-0.1099,-0.6208,-0.0377,2.9836,2.4250,2.3283,-1.6373,-1.6430,1.5649,
5.023523,-0.1099,-0.6208,-0.0377,2.9836,2.4250,2.3283,-1.5414,-0.6937,1.4457,
5.029824,-0.2515,-0.7305,0.0114,2.9836,2.4250,2.3283,-1.5414,-0.6937,1.4457,
5.034091,-0.2515,-0.7305,0.0114,1.8297,1.1954,2.9285,-1.5414,-0.6937,1.4457,
5.035911,-0.2515,-0.7305,0.0114,1.8297,1.1954,2.9285,-1.5213,0.6966,1.5227,
5.044647,-0.2515,-0.7305,0.0114,1.8297,1.1954,2.9285,-1.5365,0.9269,1.5771,
5.049111,-0.3134,-0.7109,0.0784,1.8297,1.1954,2.9285,-1.5365,0.9269,1.5771,
5.051751,-0.3134,-0.7109,0.0784,1.3629,1.2301,3.8197,-1.5365,0.9269,1.5771,
5.053568,-0.3134,-0.7109,0.0784,1.3629,1.2301,3.8197,-1.4999,1.0045,1.5985,
5.063317,-0.3134,-0.7109,0.0784,1.3629,1.2301,3.8197,-1.4290,1.0424,1.5752,
5.067963,-0.3440,-0.6227,0.0150,1.3629,1.2301,3.8197,-1.4290,1.0424,1.5752,
5.069843,-0.3440,-0.6227,0.0150,1.2077,1.9279,3.4203,-1.4290,1.0424,1.5752,
5.073262,-0.3440,-0.6227,0.0150,1.2077,1.9279,3.4203,-1.3380,1.1034,1.5135,
5.083129,-0.3440,-0.6227,0.0150,1.2077,1.9279,3.4203,-1.2446,1.1877,1.4054,
5.087601,-0.2706,-0.5187,-0.1567,1.2077,1.9279,3.4203,-1.2446,1.1877,1.4054,
5.089464,-0.2706,-0.5187,-0.1567,2.0395,2.7913,1.9515,-1.2446,1.1877,1.4054,
5.093166,-0.2706,-0.5187,-0.1567,2.0395,2.7913,1.9515,-1.1596,1.3008,1.2594,
5.102726,-0.2706,-0.5187,-0.1567,2.0395,2.7913,1.9515,-1.0735,1.4547,1.1201,
5.107335,-0.2210,-0.4499,-0.2466,2.0395,2.7913,1.9515,-1.0735,1.4547,1.1201,
5.108538,-0.2210,-0.4499,-0.2466,2.5708,3.3321,1.2997,-1.0735,1.4547,1.1201,
5.112663,-0.2210,-0.4499,-0.2466,2.5708,3.3321,1.2997,-0.9990,1.5115,0.9980,
5.122687,-0.2210,-0.4499,-0.2466,2.5708,3.3321,1.2997,-0.9758,1.4009,0.8850,
5.127143,-0.2818,-0.4832,-0.3718,2.5708,3.3321,1.2997,-0.9758,1.4009,0.8850,
5.128283,-0.2818,-0.4832,-0.3718,1.9721,2.8832,0.3199,-0.9758,1.4009,0.8850,
5.132656,-0.2818,-0.4832,-0.3718,1.9721,2.8832,0.3199,-0.9807,1.2226,0.7756,
5.142683,-0.2818,-0.4832,-0.3718,1.9721,2.8832,0.3199,-0.9868,1.1010,0.6797,
5.147542,-0.2634,-0.4904,-0.3164,1.9721,2.8832,0.3199,-0.9868,1.1010,0.6797,
5.148419,-0.2634,-0.4904,-0.3164,2.1408,2.6947,1.0959,-0.9868,1.1010,0.6797,
5.152705,-0.2634,-0.4904,-0.3164,2.1408,2.6947,1.0959,-0.9807,1.0680,0.6021,
5.162596,-0.2634,-0.4904,-0.3164,2.1408,2.6947,1.0959,-0.9501,1.1395,0.5331,
5.167976,-0.2268,-0.4566,-0.2930,2.1408,2.6947,1.0959,-0.9501,1.1395,0.5331,
5.169507,-0.2268,-0.4566,-0.2930,2.4631,2.9163,1.5534,-0.9501,1.1395,0.5331,
5.173386,-0.2268,-0.4566,-0.2930,2.4631,2.9163,1.5534,-0.8628,1.2812,0.4586,
5.183258,-0.2268,-0.4566,-0.2930,2.4631,2.9163,1.5534,-0.7522,1.3148,0.3786,
5.187878,-0.2897,-0.3861,-0.3403,2.4631,2.9163,1.5534,-0.7522,1.3148,0.3786,
5.189737,-0.2897,-0.3861,-0.3403,1.7809,3.5043,1.3235,-0.7522,1.3148,0.3786,
5.194178,-0.2897,-0.3861,-0.3403,1.7809,3.5043,1.3235,-0.6361,1.1273,0.2857,
5.203252,-0.2897,-0.3861,-0.3403,1.7809,3.5043,1.3235,-0.5072,0.7815,0.2063,
5.207900,-0.4505,-0.4084,-0.4742,1.7809,3.5043,1.3235,-0.5072,0.7815,0.2063,
5.209778,-0.4505,-0.4084,-0.4742,0.1523,3.2077,0.1831,-0.5072,0.7815,0.2063,
5.214312,-0.4505,-0.4084,-0.4742,0.1523,3.2077,0.1831,-0.3496,0.5048,0.1532,
5.223271,-0.4505,-0.4084,-0.4742,0.1523,3.2077,0.1831,-0.0485,-0.0425,0.1037,
5.228184,-0.6458,-0.4873,-0.5956,0.1523,3.2077,0.1831,-0.0485,-0.0425,0.1037,
5.230746,-0.6458,-0.4873,-0.5956,-1.7391,2.3758,-0.9417,-0.0485,-0.0425,0.1037,
5.233251,-0.6458,-0.4873,-0.5956,-1.7391,2.3758,-0.9417,0.1195,-0.4445,0.1061,
5.244374,-0.6458,-0.4873,-0.5956,-1.7391,2.3758,-0.9417,0.2649,-0.8483,0.1538,
5.247902,-0.9186,-0.5574,-0.7073,-1.7391,2.3758,-0.9417,0.2649,-0.8483,0.1538,
5.249608,-0.9186,-0.5574,-0.7073,-4.2697,1.6359,-2.0950,0.2649,-0.8483,0.1538,
5.253269,-0.9186,-0.5574,-0.7073,-4.2697,1.6359,-2.0950,0.3993,-1.2398,0.2362,
5.263292,-0.9186,-0.5574,-0.7073,-4.2697,1.6359,-2.0950,0.5770,-1.6088,0.3688,
5.268049,-1.0635,-0.5888,-0.4526,-4.2697,1.6359,-2.0950,0.5770,-1.6088,0.3688,
5.270211,-1.0635,-0.5888,-0.4526,-5.4264,1.2778,0.2062,0.5770,-1.6088,0.3688,
5.273618,-1.0635,-0.5888,-0.4526,-5.4264,1.2778,0.2062,0.8379,-1.8140,0.4781,
5.283445,-1.0635,-0.5888,-0.4526,-5.4264,1.2778,0.2062,1.2875,-2.0211,0.2466,
5.288060,-0.0442,-0.5749,-0.2103,-5.4264,1.2778,0.2062,1.2875,-2.0211,0.2466,
5.290214,-0.0442,-0.5749,-0.2103,4.8076,1.4477,2.2466,1.2875,-2.0211,0.2466,
5.295574,-0.0442,-0.5749,-0.2103,4.8076,1.4477,2.2466,2.1940,-3.0058,-0.2580,
5.303387,-0.0442,-0.5749,-0.2103,4.8076,1.4477,2.2466,2.8446,-3.7261,-0.7027,
5.308497,0.6374,-0.9070,-0.7677,4.8076,1.4477,2.2466,2.8446,-3.7261,-0.7027,
5.310715,0.6374,-0.9070,-0.7677,11.5730,-1.5282,-3.8326,2.8446,-3.7261,-0.7027,
5.315659,0.6374,-0.9070,-0.7677,11.5730,-1.5282,-3.8326,2.1457,-2.2355,-1.2195,
5.323475,0.6374,-0.9070,-0.7677,11.5730,-1.5282,-3.8326,1.3009,-1.3296,-1.6843,
5.329893,-0.9511,-1.5393,0.5518,11.5730,-1.5282,-3.8326,1.3009,-1.3296,-1.6843,
5.333367,-0.9511,-1.5393,0.5518,-4.1350,-7.4013,8.6082,1.3009,-1.3296,-1.6843,
5.337776,-0.9511,-1.5393,0.5518,-4.1350,-7.4013,8.6082,1.4604,-1.5233,-1.6941,
5.344509,-0.9511,-1.5393,0.5518,-4.1350,-7.4013,8.6082,2.1952,-1.7872,-1.3856,
5.349987,-0.8049,-1.6198,-0.4913,-4.1350,-7.4013,8.6082,2.1952,-1.7872,-1.3856,
5.351683,-0.8049,-1.6198,-0.4913,-2.8725,-7.9018,-2.0818,2.1952,-1.7872,-1.3856,
5.354009,-0.8049,-1.6198,-0.4913,-2.8725,-7.9018,-2.0818,2.7316,-2.1457,-1.1602,
5.363137,-0.8049,-1.6198,-0.4913,-2.8725,-7.9018,-2.0818,2.5691,-2.2557,-1.1150,
5.367572,-0.4547,-1.2401,-0.6700,-2.8725,-7.9018,-2.0818,2.5691,-2.2557,-1.1150,
5.368639,-0.4547,-1.2401,-0.6700,0.4409,-3.9240,-4.4497,2.5691,-2.2557,-1.1150,
5.373007,-0.4547,-1.2401,-0.6700,0.4409,-3.9240,-4.4497,1.8757,-1.6589,-1.2201,
5.383128,-0.4547,-1.2401,-0.6700,0.4409,-3.9240,-4.4497,1.3162,-0.6607,-1.3789,
5.387639,-0.2493,-1.0091,-0.1374,0.4409,-3.9240,-4.4497,1.3162,-0.6607,-1.3789,
5.389372,-0.2493,-1.0091,-0.1374,2.2367,-1.4558,0.4266,1.3162,-0.6607,-1.3789,
5.394939,-0.2493,-1.0091,-0.1374,2.2367,-1.4558,0.4266,1.1726,-0.0651,-1.4791,
5.402976,-0.2493,-1.0091,-0.1374,2.2367,-1.4558,0.4266,0.9998,-0.1604,-1.8077,
5.407446,-0.0787,-1.0510,-0.2529,2.2367,-1.4558,0.4266,0.9998,-0.1604,-1.8077,
5.409258,-0.0787,-1.0510,-0.2529,3.5710,-1.6570,-0.8598,0.9998,-0.1604,-1.8077,
5.413138,-0.0787,-1.0510,-0.2529,3.5710,-1.6570,-0.8598,0.8788,-0.4726,-2.0325,
5.422964,-0.0787,-1.0510,-0.2529,3.5710,-1.6570,-0.8598,0.7933,-0.7078,-2.2091,
5.427544,-0.2009,-1.0520,-0.1234,3.5710,-1.6570,-0.8598,0.7933,-0.7078,-2.2091,
5.429525,-0.2009,-1.0520,-0.1234,1.9646,-1.4447,0.2445,0.7933,-0.7078,-2.2091,
5.432956,-0.2009,-1.0520,-0.1234,1.9646,-1.4447,0.2445,0.7719,-0.7798,-2.2915,
5.444590,-0.2009,-1.0520,-0.1234,1.9646,-1.4447,0.2445,0.7951,-0.7261,-2.2787,
5.447581,-0.3651,-0.9766,0.0110,1.9646,-1.4447,0.2445,0.7951,-0.7261,-2.2787,
5.449147,-0.3651,-0.9766,0.0110,-0.0507,-0.5083,1.3720,0.7951,-0.7261,-2.2787,
5.453000,-0.3651,-0.9766,0.0110,-0.0507,-0.5083,1.3720,0.8550,-0.6039,-2.1736,
5.463321,-0.3651,-0.9766,0.0110,-0.0507,-0.5083,1.3720,0.9546,-0.4158,-2.0380,
5.467607,-0.4564,-1.0047,0.0882,-0.0507,-0.5083,1.3720,0.9546,-0.4158,-2.0380,
5.469474,-0.4564,-1.0047,0.0882,-1.3170,-0.6222,1.9287,0.9546,-0.4158,-2.0380,
5.473184,-0.4564,-1.0047,0.0882,-1.3170,-0.6222,1.9287,1.0664,-0.2234,-1.9415,
5.483210,-0.4564,-1.0047,0.0882,-1.3170,-0.6222,1.9287,1.1635,-0.0236,-1.8523,
5.487702,-0.5355,-0.9648,0.0566,-1.3170,-0.6222,1.9287,1.1635,-0.0236,-1.8523,
5.489523,-0.5355,-0.9648,0.0566,-2.4250,-0.1010,1.3967,1.1635,-0.0236,-1.8523,
5.495199,-0.5355,-0.9648,0.0566,-2.4250,-0.1010,1.3967,1.2411,0.2824,-1.7576,
5.503242,-0.5355,-0.9648,0.0566,-2.4250,-0.1010,1.3967,1.2918,0.6258,-1.6825,
5.508281,-0.3982,-0.7168,-0.1308,-2.4250,-0.1010,1.3967,1.2918,0.6258,-1.6825,
5.510378,-0.3982,-0.7168,-0.1308,-1.3596,2.4253,-0.6477,1.2918,0.6258,-1.6825,
5.514858,-0.3982,-0.7168,-0.1308,-1.3596,2.4253,-0.6477,1.3205,0.8212,-1.6813,
5.523205,-0.3982,-0.7168,-0.1308,-1.3596,2.4253,-0.6477,1.3437,0.7546,-1.7118,
5.528569,-0.3017,-0.6795,-0.2303,-1.3596,2.4253,-0.6477,1.3437,0.7546,-1.7118,
5.531412,-0.3017,-0.6795,-0.2303,-0.6763,2.8675,-1.8034,1.3437,0.7546,-1.7118,
5.533489,-0.3017,-0.6795,-0.2303,-0.6763,2.8675,-1.8034,1.3309,0.5360,-1.7998,
5.544802,-0.3017,-0.6795,-0.2303,-0.6763,2.8675,-1.8034,1.2667,0.3374,-1.9549,
5.547963,-0.3288,-0.7288,-0.2860,-0.6763,2.8675,-1.8034,1.2667,0.3374,-1.9549,
5.549979,-0.3288,-0.7288,-0.2860,-1.2233,2.4545,-2.5161,1.2667,0.3374,-1.9549,
5.553283,-0.3288,-0.7288,-0.2860,-1.2233,2.4545,-2.5161,1.1684,0.3411,-2.0594,
5.563316,-0.3288,-0.7288,-0.2860,-1.2233,2.4545,-2.5161,0.9778,0.4370,-2.1981,
5.567929,-0.4033,-0.6097,-0.2344,-1.2233,2.4545,-2.5161,0.9778,0.4370,-2.1981,
5.569756,-0.4033,-0.6097,-0.2344,-2.2558,3.6824,-2.1230,0.9778,0.4370,-2.1981,
5.573245,-0.4033,-0.6097,-0.2344,-2.2558,3.6824,-2.1230,0.7689,0.6789,-2.1852,
5.583226,-0.4033,-0.6097,-0.2344,-2.2558,3.6824,-2.1230,0.5673,0.9446,-2.0912,
5.587909,-0.3793,-0.6276,-0.1273,-2.2558,3.6824,-2.1230,0.5673,0.9446,-2.0912,
5.590162,-0.3793,-0.6276,-0.1273,-2.3052,3.5527,-1.1003,0.5673,0.9446,-2.0912,
5.595065,-0.3793,-0.6276,-0.1273,-2.3052,3.5527,-1.1003,0.1788,1.2152,-1.8566,
5.603269,-0.3793,-0.6276,-0.1273,-2.3052,3.5527,-1.1003,0.0157,1.0430,-1.8077,
5.608363,-0.2535,-0.8860,-0.0319,-2.3052,3.5527,-1.1003,0.0157,1.0430,-1.8077,
5.610803,-0.2535,-0.8860,-0.0319,-1.3133,1.0517,-0.1010,0.0157,1.0430,-1.8077,
5.615396,-0.2535,-0.8860,-0.0319,-1.3133,1.0517,-0.1010,0.0273,0.9507,-1.7888,
5.623375,-0.2535,-0.8860,-0.0319,-1.3133,1.0517,-0.1010,0.1873,0.8017,-1.7301,
5.629220,-0.2540,-0.8090,0.0178,-1.3133,1.0517,-0.1010,0.1873,0.8017,-1.7301,
5.632521,-0.2540,-0.8090,0.0178,-1.5485,1.8301,0.4173,0.1873,0.8017,-1.7301,
5.634793,-0.2540,-0.8090,0.0178,-1.5485,1.8301,0.4173,0.4347,0.6312,-1.5383,
5.644728,-0.2540,-0.8090,0.0178,-1.5485,1.8301,0.4173,0.7432,0.3258,-1.2219,
5.648030,-0.0706,-0.5945,-0.0567,-1.5485,1.8301,0.4173,0.7432,0.3258,-1.2219,
5.650008,-0.0706,-0.5945,-0.0567,0.0776,3.9486,-0.3841,0.7432,0.3258,-1.2219,
5.653221,-0.0706,-0.5945,-0.0567,0.0776,3.9486,-0.3841,0.9387,0.1584,-0.9745,
5.663294,-0.0706,-0.5945,-0.0567,0.0776,3.9486,-0.3841,1.0755,0.3105,-0.7082,
5.667977,0.0509,-0.5982,-0.0798,0.0776,3.9486,-0.3841,1.0755,0.3105,-0.7082,
5.669786,0.0509,-0.5982,-0.0798,1.1722,3.9213,-0.7586,1.0755,0.3105,-0.7082,
5.673372,0.0509,-0.5982,-0.0798,1.1722,3.9213,-0.7586,1.0028,0.3228,-0.6184,
5.683313,0.0509,-0.5982,-0.0798,1.1722,3.9213,-0.7586,1.0236,0.5323,-0.4931,
5.688279,-0.1113,-0.7936,0.0998,1.1722,3.9213,-0.7586,1.0236,0.5323,-0.4931,
5.690456,-0.1113,-0.7936,0.0998,-0.4706,2.0084,0.8302,1.0236,0.5323,-0.4931,
5.695620,-0.1113,-0.7936,0.0998,-0.4706,2.0084,0.8302,1.2020,0.6911,-0.1822,
5.703519,-0.1113,-0.7936,0.0998,-0.4706,2.0084,0.8302,1.1708,0.5702,-0.1248,
5.708268,-0.1559,-1.0868,0.0129,-0.4706,2.0084,0.8302,1.1708,0.5702,-0.1248,
5.710641,-0.1559,-1.0868,0.0129,-0.8950,-0.8707,-0.2262,1.1708,0.5702,-0.1248,
5.715215,-0.1559,-1.0868,0.0129,-0.8950,-0.8707,-0.2262,0.9918,0.4559,-0.2482,
5.723466,-0.1559,-1.0868,0.0129,-0.8950,-0.8707,-0.2262,0.9197,0.6044,-0.1663,
5.729132,-0.2388,-0.8690,-0.0599,-0.8950,-0.8707,-0.2262,0.9197,0.6044,-0.1663,
5.732063,-0.2388,-0.8690,-0.0599,-1.6862,1.2559,-1.0853,0.9197,0.6044,-0.1663,
5.734741,-0.2388,-0.8690,-0.0599,-1.6862,1.2559,-1.0853,0.9167,0.7858,0.0878,
5.745852,-0.2388,-0.8690,-0.0599,-1.6862,1.2559,-1.0853,0.9906,0.8670,0.4305,
5.748961,-0.1397,-0.8631,-0.2581,-1.6862,1.2559,-1.0853,0.9906,0.8670,0.4305,
5.751193,-0.1397,-0.8631,-0.2581,-0.6063,1.2993,-3.1366,0.9906,0.8670,0.4305,
5.753459,-0.1397,-0.8631,-0.2581,-0.6063,1.2993,-3.1366,0.9967,0.5616,0.6797,
5.763308,-0.1397,-0.8631,-0.2581,-0.6063,1.2993,-3.1366,0.8232,0.1297,0.6822,
5.767970,-0.1880,-0.9761,-0.0579,-0.6063,1.2993,-3.1366,0.8232,0.1297,0.6822,
5.769971,-0.1880,-0.9761,-0.0579,-0.9032,0.1697,-1.2773,0.8232,0.1297,0.6822,
5.773387,-0.1880,-0.9761,-0.0579,-0.9032,0.1697,-1.2773,0.7444,-0.1415,0.7891,
5.783404,-0.1880,-0.9761,-0.0579,-0.9032,0.1697,-1.2773,0.7786,-0.1708,0.9302,
5.787991,-0.1422,-1.0834,0.0349,-0.9032,0.1697,-1.2773,0.7786,-0.1708,0.9302,
5.790151,-0.1422,-1.0834,0.0349,-0.2675,-0.9092,-0.4700,0.7786,-0.1708,0.9302,
5.796140,-0.1422,-1.0834,0.0349,-0.2675,-0.9092,-0.4700,0.7713,-0.3516,1.0047,
5.803566,-0.1422,-1.0834,0.0349,-0.2675,-0.9092,-0.4700,0.6962,-0.5941,0.9778,
5.808313,-0.1417,-1.0879,0.0749,-0.2675,-0.9092,-0.4700,0.6962,-0.5941,0.9778,
5.810723,-0.1417,-1.0879,0.0749,-0.0723,-0.9884,-0.1999,0.6962,-0.5941,0.9778,
5.813525,-0.1417,-1.0879,0.0749,-0.0723,-0.9884,-0.1999,0.5978,-0.6711,0.8917,
5.823521,-0.1417,-1.0879,0.0749,-0.0723,-0.9884,-0.1999,0.4964,-0.6033,0.7225,
5.829421,-0.1813,-1.1674,0.1279,-0.0723,-0.9884,-0.1999,0.4964,-0.6033,0.7225,
5.832796,-0.1813,-1.1674,0.1279,-0.3149,-1.7994,0.2146,0.4964,-0.6033,0.7225,
5.835007,-0.1813,-1.1674,0.1279,-0.3149,-1.7994,0.2146,0.4176,-0.6021,0.5618,
5.845160,-0.1813,-1.1674,0.1279,-0.3149,-1.7994,0.2146,0.4653,-0.6094,0.4885,
5.848318,-0.3316,-1.0962,0.3327,-0.3149,-1.7994,0.2146,0.4653,-0.6094,0.4885,
5.850224,-0.3316,-1.0962,0.3327,-1.6957,-1.1275,2.1205,0.4653,-0.6094,0.4885,
5.853167,-0.3316,-1.0962,0.3327,-1.6957,-1.1275,2.1205,0.6168,-0.6009,0.4830,
5.863258,-0.3316,-1.0962,0.3327,-1.6957,-1.1275,2.1205,0.8434,-0.4897,0.3841,
5.867780,-0.2503,-1.4893,0.2921,-1.6957,-1.1275,2.1205,0.8434,-0.4897,0.3841,
5.869638,-0.2503,-1.4893,0.2921,-0.8271,-5.0115,1.5648,0.8434,-0.4897,0.3841,
5.873232,-0.2503,-1.4893,0.2921,-0.8271,-5.0115,1.5648,1.0419,-0.2728,0.2271,
5.883208,-0.2503,-1.4893,0.2921,-0.8271,-5.0115,1.5648,1.1959,0.0845,0.0658,
5.887911,-0.1851,-1.6251,-0.0605,-0.8271,-5.0115,1.5648,1.1959,0.0845,0.0658,
5.890033,-0.1851,-1.6251,-0.0605,-0.1637,-6.3762,-2.0910,1.1959,0.0845,0.0658,
5.896233,-0.1851,-1.6251,-0.0605,-0.1637,-6.3762,-2.0910,1.2698,0.4761,-0.0729,
5.903223,-0.1851,-1.6251,-0.0605,-0.1637,-6.3762,-2.0910,1.1500,0.6740,-0.2531,
5.907605,-0.1557,-1.7075,-0.1755,-0.1637,-6.3762,-2.0910,1.1500,0.6740,-0.2531,
5.909078,-0.1557,-1.7075,-0.1755,0.1034,-7.2071,-3.3847,1.1500,0.6740,-0.2531,
5.913092,-0.1557,-1.7075,-0.1755,0.1034,-7.2071,-3.3847,0.8929,0.6874,-0.4394,
5.923024,-0.1557,-1.7075,-0.1755,0.1034,-7.2071,-3.3847,0.6082,0.6044,-0.6019,
5.930189,-0.3345,-1.7836,0.1044,0.1034,-7.2071,-3.3847,0.6082,0.6044,-0.6019,
5.932578,-0.3345,-1.7836,0.1044,-1.7247,-7.9622,-0.7631,0.6082,0.6044,-0.6019,
5.934702,-0.3345,-1.7836,0.1044,-1.7247,-7.9622,-0.7631,0.3321,0.5836,-0.6642,
5.944827,-0.3345,-1.7836,0.1044,-1.7247,-7.9622,-0.7631,0.0945,0.5714,-0.6367,
5.947856,-0.3762,-1.7175,0.3391,-1.7247,-7.9622,-0.7631,0.0945,0.5714,-0.6367,
5.949600,-0.3762,-1.7175,0.3391,-2.2374,-7.3028,1.5125,0.0945,0.5714,-0.6367,
5.952938,-0.3762,-1.7175,0.3391,-2.2374,-7.3028,1.5125,-0.0827,0.6789,-0.3239,
5.963016,-0.3762,-1.7175,0.3391,-2.2374,-7.3028,1.5125,-0.4150,0.7980,-0.1908,
5.967645,-0.1335,-1.6452,0.2259,-2.2374,-7.3028,1.5125,-0.4150,0.7980,-0.1908,
5.969101,-0.1335,-1.6452,0.2259,0.1185,-6.5780,0.4713,-0.4150,0.7980,-0.1908,
5.973101,-0.1335,-1.6452,0.2259,0.1185,-6.5780,0.4713,-0.6771,0.7528,-0.1120,
5.982996,-0.1335,-1.6452,0.2259,0.1185,-6.5780,0.4713,-1.0081,0.5390,-0.0100,
5.987567,-0.0087,-1.2402,-0.1116,0.1185,-6.5780,0.4713,-1.0081,0.5390,-0.0100,
5.989016,-0.0087,-1.2402,-0.1116,1.3518,-2.5800,-2.6567,-1.0081,0.5390,-0.0100,
5.994734,-0.0087,-1.2402,-0.1116,1.3518,-2.5800,-2.6567,-1.4168,0.2330,0.0530,
6.003051,-0.0087,-1.2402,-0.1116,1.3518,-2.5800,-2.6567,-1.8982,-0.1213,0.1110,
6.007590,0.0167,-1.1613,-0.4321,1.3518,-2.5800,-2.6567,-1.8982,-0.1213,0.1110,
6.008992,0.0167,-1.1613,-0.4321,1.5967,-1.7516,-5.4157,-1.8982,-0.1213,0.1110,
6.013265,0.0167,-1.1613,-0.4321,1.5967,-1.7516,-5.4157,-2.4522,-0.5196,0.2698,
6.023038,0.0167,-1.1613,-0.4321,1.5967,-1.7516,-5.4157,-2.9886,-0.9649,0.5673,
6.028243,-0.1562,-1.0889,-0.4902,1.5967,-1.7516,-5.4157,-2.9886,-0.9649,0.5673,
6.030557,-0.1562,-1.0889,-0.4902,-0.0514,-0.9951,-5.4030,-2.9886,-0.9649,0.5673,
6.032922,-0.1562,-1.0889,-0.4902,-0.0514,-0.9951,-5.4030,-3.4278,-1.4408,0.9797,
6.044863,-0.1562,-1.0889,-0.4902,-0.0514,-0.9951,-5.4030,-3.6837,-1.9020,1.4836,
6.047630,-0.3919,-1.1343,-0.3768,-0.0514,-0.9951,-5.4030,-3.6837,-1.9020,1.4836,
6.049284,-0.3919,-1.1343,-0.3768,-2.1372,-1.4592,-3.5878,-3.6837,-1.9020,1.4836,
6.052993,-0.3919,-1.1343,-0.3768,-2.1372,-1.4592,-3.5878,-3.7735,-2.3663,1.9992,
6.063083,-0.3919,-1.1343,-0.3768,-2.1372,-1.4592,-3.5878,-3.6923,-2.7450,2.4115,
6.067780,-0.3318,-0.9033,0.1561,-2.1372,-1.4592,-3.5878,-3.6923,-2.7450,2.4115,
6.069452,-0.3318,-0.9033,0.1561,-1.1067,0.6892,2.2552,-3.6923,-2.7450,2.4115,
6.073341,-0.3318,-0.9033,0.1561,-1.1067,0.6892,2.2552,-3.4125,-2.9918,2.7524,
6.083152,-0.3318,-0.9033,0.1561,-1.1067,0.6892,2.2552,-2.8988,-2.9747,2.9210,
6.087586,-0.1901,-1.0091,0.2954,-1.1067,0.6892,2.2552,-2.8988,-2.9747,2.9210,
6.090046,-0.1901,-1.0091,0.2954,0.8490,-0.5343,4.0356,-2.8988,-2.9747,2.9210,
6.095052,-0.1901,-1.0091,0.2954,0.8490,-0.5343,4.0356,-2.2604,-2.6540,2.8458,
6.103151,-0.1901,-1.0091,0.2954,0.8490,-0.5343,4.0356,-1.7015,-2.1879,2.6229,
6.107670,-0.2664,-1.1100,0.0941,0.8490,-0.5343,4.0356,-1.7015,-2.1879,2.6229,
6.109410,-0.2664,-1.1100,0.0941,0.6220,-1.7119,2.2259,-1.7015,-2.1879,2.6229,
6.113384,-0.2664,-1.1100,0.0941,0.6220,-1.7119,2.2259,-1.3093,-1.7682,2.3529,
6.123324,-0.2664,-1.1100,0.0941,0.6220,-1.7119,2.2259,-1.0411,-1.3822,2.1018,
6.129823,-0.2317,-1.0081,0.2494,0.6220,-1.7119,2.2259,-1.0411,-1.3822,2.1018,
6.133222,-0.2317,-1.0081,0.2494,1.3474,-0.8617,3.7692,-1.0411,-1.3822,2.1018,
6.135579,-0.2317,-1.0081,0.2494,1.3474,-0.8617,3.7692,-0.8127,-0.8696,1.8898,
6.146353,-0.2317,-1.0081,0.2494,1.3474,-0.8617,3.7692,-0.3991,0.4052,1.6321,
6.149123,-0.1750,-0.9111,0.2747,1.3474,-0.8617,3.7692,-0.3991,0.4052,1.6321,
6.151458,-0.1750,-0.9111,0.2747,2.1553,-0.0149,4.0051,-0.3991,0.4052,1.6321,
6.153579,-0.1750,-0.9111,0.2747,2.1553,-0.0149,4.0051,-0.2727,0.9208,1.5355,
6.163633,-0.1750,-0.9111,0.2747,2.1553,-0.0149,4.0051,-0.3307,1.2788,1.5343,
6.168044,-0.2558,-0.5659,-0.0423,2.1553,-0.0149,4.0051,-0.3307,1.2788,1.5343,
6.170215,-0.2558,-0.5659,-0.0423,1.5418,3.2814,0.9472,-0.3307,1.2788,1.5343,
6.173569,-0.2558,-0.5659,-0.0423,1.5418,3.2814,0.9472,-0.6404,1.4132,1.6889,
6.183531,-0.2558,-0.5659,-0.0423,1.5418,3.2814,0.9472,-1.1554,1.3087,1.9283,
6.188301,-0.2174,-0.2926,-0.3070,1.5418,3.2814,0.9472,-1.1554,1.3087,1.9283,
6.190464,-0.2174,-0.2926,-0.3070,2.1386,5.8191,-1.4292,-1.1554,1.3087,1.9283,
6.195980,-0.2174,-0.2926,-0.3070,2.1386,5.8191,-1.4292,-1.6502,1.2158,2.1922,
6.203424,-0.2174,-0.2926,-0.3070,2.1386,5.8191,-1.4292,-1.9281,1.3130,2.4311,
6.207918,-0.1175,-0.3517,-0.0616,2.1386,5.8191,-1.4292,-1.9281,1.3130,2.4311,
6.210579,-0.1175,-0.3517,-0.0616,3.4039,5.0188,1.3351,-1.9281,1.3130,2.4311,
6.215555,-0.1175,-0.3517,-0.0616,3.4039,5.0188,1.3351,-1.9910,1.4590,2.6131,
6.223484,-0.1175,-0.3517,-0.0616,3.4039,5.0188,1.3351,-1.9299,1.3820,2.6919,
6.229660,-0.1371,-0.5921,-0.0850,3.4039,5.0188,1.3351,-1.9299,1.3820,2.6919,
6.232680,-0.1371,-0.5921,-0.0850,3.5103,2.3930,1.5014,-1.9299,1.3820,2.6919,
6.235471,-0.1371,-0.5921,-0.0850,3.5103,2.3930,1.5014,-1.8365,1.0631,2.6632,
6.246221,-0.1371,-0.5921,-0.0850,3.5103,2.3930,1.5014,-1.8481,0.5897,2.5801,
6.249706,-0.2359,-0.9109,-0.2830,3.5103,2.3930,1.5014,-1.8481,0.5897,2.5801,
6.251737,-0.2359,-0.9109,-0.2830,2.8264,-1.0121,-0.1037,-1.8481,0.5897,2.5801,
6.254310,-0.2359,-0.9109,-0.2830,2.8264,-1.0121,-0.1037,-1.9813,0.0992,2.4213,
6.263413,-0.2359,-0.9109,-0.2830,2.8264,-1.0121,-0.1037,-2.0851,-0.0969,2.1696,
6.268017,-0.3031,-0.8287,0.0246,2.8264,-1.0121,-0.1037,-2.0851,-0.0969,2.1696,
6.270181,-0.3031,-0.8287,0.0246,2.4305,-0.4697,3.1494,-2.0851,-0.0969,2.1696,
6.273555,-0.3031,-0.8287,0.0246,2.4305,-0.4697,3.1494,-2.0863,0.1334,1.8507,
6.283469,-0.3031,-0.8287,0.0246,2.4305,-0.4697,3.1494,-1.9532,0.6771,1.5820,
6.288170,-0.4036,-0.6117,-0.0585,2.4305,-0.4697,3.1494,-1.9532,0.6771,1.5820,
6.290148,-0.4036,-0.6117,-0.0585,1.6076,1.4330,2.5967,-1.9532,0.6771,1.5820,
6.296162,-0.4036,-0.6117,-0.0585,1.6076,1.4330,2.5967,-1.7943,1.2256,1.3816,
6.303247,-0.4036,-0.6117,-0.0585,1.6076,1.4330,2.5967,-1.6691,1.5689,1.2863,
6.307769,-0.2871,-0.4957,-0.1722,1.6076,1.4330,2.5967,-1.6691,1.5689,1.2863,
6.310021,-0.2871,-0.4957,-0.1722,2.7883,2.3924,1.8089,-1.6691,1.5689,1.2863,
6.314646,-0.2871,-0.4957,-0.1722,2.7883,2.3924,1.8089,-1.5665,1.8072,1.2136,
6.323364,-0.2871,-0.4957,-0.1722,2.7883,2.3924,1.8089,-1.5133,1.7644,0.9748,
6.328946,-0.2973,-0.4609,-0.2902,2.7883,2.3924,1.8089,-1.5133,1.7644,0.9748,
6.331534,-0.2973,-0.4609,-0.2902,2.6593,2.5727,1.0095,-1.5133,1.7644,0.9748,
6.334111,-0.2973,-0.4609,-0.2902,2.6593,2.5727,1.0095,-1.4681,1.2452,0.9399,
6.343407,-0.2973,-0.4609,-0.2902,2.6593,2.5727,1.0095,-1.3679,0.8939,0.7475,
6.349869,-0.0033,-0.2730,-0.1819,2.6593,2.5727,1.0095,-1.3679,0.8939,0.7475,
6.352972,-0.0033,-0.2730,-0.1819,5.5227,4.2667,2.3550,-1.3679,0.8939,0.7475,
6.354721,-0.0033,-0.2730,-0.1819,5.5227,4.2667,2.3550,-1.2299,1.0246,0.3841,
6.364964,-0.0033,-0.2730,-0.1819,5.5227,4.2667,2.3550,-1.0918,0.9361,0.1477,
6.367829,-0.2245,-0.3596,-0.3029,5.5227,4.2667,2.3550,-1.0918,0.9361,0.1477,
6.369617,-0.2245,-0.3596,-0.3029,3.2767,3.3239,1.4216,-1.0918,0.9361,0.1477,
6.373378,-0.2245,-0.3596,-0.3029,3.2767,3.3239,1.4216,-0.9715,0.7137,0.0340,
6.383593,-0.2245,-0.3596,-0.3029,3.2767,3.3239,1.4216,-0.8652,0.5592,-0.0649,
6.387921,-0.2693,-0.4002,-0.3078,3.2767,3.3239,1.4216,-0.8652,0.5592,-0.0649,
6.389917,-0.2693,-0.4002,-0.3078,2.7512,2.8729,1.5597,-0.8652,0.5592,-0.0649,
6.396787,-0.2693,-0.4002,-0.3078,2.7512,2.8729,1.5597,-0.7375,0.4938,-0.1926,
6.403406,-0.2693,-0.4002,-0.3078,2.7512,2.8729,1.5597,-0.5366,0.4730,-0.3453,
6.407896,-0.4174,-0.4529,-0.3527,2.7512,2.8729,1.5597,-0.5366,0.4730,-0.3453,
6.410372,-0.4174,-0.4529,-0.3527,1.2040,2.3428,1.2502,-0.5366,0.4730,-0.3453,
6.415557,-0.4174,-0.4529,-0.3527,1.2040,2.3428,1.2502,-0.2745,0.4590,-0.4571,
6.423451,-0.4174,-0.4529,-0.3527,1.2040,2.3428,1.2502,-0.0124,0.3875,-0.5744,
6.430119,-0.7908,-0.3450,-0.7527,1.2040,2.3428,1.2502,-0.0124,0.3875,-0.5744,
6.433035,-0.7908,-0.3450,-0.7527,-2.5453,3.4092,-2.5828,-0.0124,0.3875,-0.5744,
6.435306,-0.7908,-0.3450,-0.7527,-2.5453,3.4092,-2.5828,0.2099,0.2763,-0.6617,
6.443594,-0.7908,-0.3450,-0.7527,-2.5453,3.4092,-2.5828,0.3724,0.1035,-0.7210,
6.450509,-1.1226,-0.2764,-0.9634,-2.5453,3.4092,-2.5828,0.3724,0.1035,-0.7210,
6.453769,-1.1226,-0.2764,-0.9634,-5.8364,4.0836,-4.6090,0.3724,0.1035,-0.7210,
6.455795,-1.1226,-0.2764,-0.9634,-5.8364,4.0836,-4.6090,0.4188,-0.1537,-0.7473,
6.463350,-1.1226,-0.2764,-0.9634,-5.8364,4.0836,-4.6090,0.3846,-0.4952,-0.6886,
6.467930,-1.1732,-0.4259,-0.7052,-5.8364,4.0836,-4.6090,0.3846,-0.4952,-0.6886,
6.470217,-1.1732,-0.4259,-0.7052,-6.2982,2.6207,-2.1179,0.3846,-0.4952,-0.6886,
6.473396,-1.1732,-0.4259,-0.7052,-6.2982,2.6207,-2.1179,0.3761,-0.8794,-0.5512,
6.483534,-1.1732,-0.4259,-0.7052,-6.2982,2.6207,-2.1179,0.4207,-1.1537,-0.4272,
6.488000,-0.5854,-0.6855,-0.7795,-6.2982,2.6207,-2.1179,0.4207,-1.1537,-0.4272,
6.490190,-0.5854,-0.6855,-0.7795,-0.4453,0.0754,-2.9460,0.4207,-1.1537,-0.4272,
6.496249,-0.5854,-0.6855,-0.7795,-0.4453,0.0754,-2.9460,0.4970,-1.1012,-0.3893,
6.503396,-0.5854,-0.6855,-0.7795,-0.4453,0.0754,-2.9460,0.7939,-0.8519,-1.1052,
6.507882,-0.1203,-0.8442,-0.5309,-0.4453,0.0754,-2.9460,0.7939,-0.8519,-1.1052,
6.510444,-0.1203,-0.8442,-0.5309,4.1085,-1.3897,-0.6387,0.7939,-0.8519,-1.1052,
6.515323,-0.1203,-0.8442,-0.5309,4.1085,-1.3897,-0.6387,1.7811,-1.8299,-1.6214,
6.523472,-0.1203,-0.8442,-0.5309,4.1085,-1.3897,-0.6387,1.8116,-2.2001,-1.7699,
6.530901,-0.7124,-1.2381,-0.4481,4.1085,-1.3897,-0.6387,1.8116,-2.2001,-1.7699,
6.534621,-0.7124,-1.2381,-0.4481,-1.7577,-4.9306,-0.2683,1.8116,-2.2001,-1.7699,
6.537111,-0.7124,-1.2381,-0.4481,-1.7577,-4.9306,-0.2683,1.6876,-2.0895,-1.3691,
6.543591,-0.7124,-1.2381,-0.4481,-1.7577,-4.9306,-0.2683,1.5783,-2.0126,-1.1492,
6.548644,-0.5193,-1.2278,-0.2890,-1.7577,-4.9306,-0.2683,1.5783,-2.0126,-1.1492,
6.551448,-0.5193,-1.2278,-0.2890,0.1043,-4.5700,0.8445,1.5783,-2.0126,-1.1492,
6.554163,-0.5193,-1.2278,-0.2890,0.1043,-4.5700,0.8445,1.4090,-2.2087,-1.2641,
6.563783,-0.5193,-1.2278,-0.2890,0.1043,-4.5700,0.8445,1.2991,-2.0437,-1.3716,
6.568269,-0.7183,-0.9827,-0.2628,0.1043,-4.5700,0.8445,1.2991,-2.0437,-1.3716,
6.570227,-0.7183,-0.9827,-0.2628,-1.8988,-1.9391,0.6791,1.2991,-2.0437,-1.3716,
6.573212,-0.7183,-0.9827,-0.2628,-1.8988,-1.9391,0.6791,1.4029,-1.7652,-1.4039,
6.583298,-0.7183,-0.9827,-0.2628,-1.8988,-1.9391,0.6791,1.5428,-1.5856,-1.4418,
6.587686,-0.6108,-0.7880,-0.0867,-1.8988,-1.9391,0.6791,1.5428,-1.5856,-1.4418,
6.590559,-0.6108,-0.7880,-0.0867,-0.9601,0.1996,2.0061,1.5428,-1.5856,-1.4418,
6.593495,-0.6108,-0.7880,-0.0867,-0.9601,0.1996,2.0061,1.5587,-1.3186,-1.4565,
6.603027,-0.6108,-0.7880,-0.0867,-0.9601,0.1996,2.0061,1.4298,-1.1427,-1.4320,
6.607654,-0.3011,-0.9368,-0.0669,-0.9601,0.1996,2.0061,1.4298,-1.1427,-1.4320,
6.609474,-0.3011,-0.9368,-0.0669,1.9083,-1.0356,1.8378,1.4298,-1.1427,-1.4320,
6.614084,-0.3011,-0.9368,-0.0669,1.9083,-1.0356,1.8378,1.2698,-1.1671,-1.4137,
6.623170,-0.3011,-0.9368,-0.0669,1.9083,-1.0356,1.8378,1.1928,-1.3742,-1.4314,
6.629556,-0.1816,-1.0688,-0.0483,1.9083,-1.0356,1.8378,1.1928,-1.3742,-1.4314,
6.632383,-0.1816,-1.0688,-0.0483,2.8898,-2.1272,1.6912,1.1928,-1.3742,-1.4314,
6.634314,-0.1816,-1.0688,-0.0483,2.8898,-2.1272,1.6912,1.1928,-1.6290,-1.4760,
6.643381,-0.1816,-1.0688,-0.0483,2.8898,-2.1272,1.6912,1.2038,-1.7010,-1.5371,
6.647581,-0.2124,-1.0847,-0.0303,2.8898,-2.1272,1.6912,1.2038,-1.7010,-1.5371,
6.649954,-0.2124,-1.0847,-0.0303,2.3695,-2.0789,1.5009,1.2038,-1.7010,-1.5371,
6.653103,-0.2124,-1.0847,-0.0303,2.3695,-2.0789,1.5009,1.1922,-1.5483,-1.5872,
6.663290,-0.2124,-1.0847,-0.0303,2.3695,-2.0789,1.5009,1.1781,-1.2991,-1.6000,
6.667688,-0.2861,-0.9958,-0.0491,2.3695,-2.0789,1.5009,1.1781,-1.2991,-1.6000,
6.669085,-0.2861,-0.9958,-0.0491,1.3934,-1.0171,0.9811,1.1781,-1.2991,-1.6000,
6.673181,-0.2861,-0.9958,-0.0491,1.3934,-1.0171,0.9811,1.1745,-1.0596,-1.5817,
6.683442,-0.2861,-0.9958,-0.0491,1.3934,-1.0171,0.9811,1.1482,-0.8831,-1.5499,
6.688072,-0.3045,-0.8724,-0.1129,1.3934,-1.0171,0.9811,1.1482,-0.8831,-1.5499,
6.689740,-0.3045,-0.8724,-0.1129,0.9480,0.3564,0.0720,1.1482,-0.8831,-1.5499,
6.693421,-0.3045,-0.8724,-0.1129,0.9480,0.3564,0.0720,0.8837,-0.7676,-1.5774,
6.703154,-0.3045,-0.8724,-0.1129,0.9480,0.3564,0.0720,0.7652,-0.7261,-1.6404,
6.707653,-0.2883,-0.8223,-0.1076,0.9480,0.3564,0.0720,0.7652,-0.7261,-1.6404,
6.709477,-0.2883,-0.8223,-0.1076,0.8287,0.9891,-0.0780,0.7652,-0.7261,-1.6404,
6.713887,-0.2883,-0.8223,-0.1076,0.8287,0.9891,-0.0780,0.7090,-0.7182,-1.6923,
6.723108,-0.2883,-0.8223,-0.1076,0.8287,0.9891,-0.0780,0.6791,-0.7353,-1.7234,
6.729964,-0.2658,-0.7715,-0.1195,0.8287,0.9891,-0.0780,0.6791,-0.7353,-1.7234,
6.732727,-0.2658,-0.7715,-0.1195,0.7478,1.6196,-0.3659,0.6791,-0.7353,-1.7234,
6.734453,-0.2658,-0.7715,-0.1195,0.7478,1.6196,-0.3659,0.6723,-0.8067,-1.7338,
6.743442,-0.2658,-0.7715,-0.1195,0.7478,1.6196,-0.3659,0.6882,-0.9405,-1.7301,
6.748975,-0.2728,-0.7190,-0.0436,0.7478,1.6196,-0.3659,0.6882,-0.9405,-1.7301,
6.751537,-0.2728,-0.7190,-0.0436,0.3753,2.2534,0.2028,0.6882,-0.9405,-1.7301,
6.753675,-0.2728,-0.7190,-0.0436,0.3753,2.2534,0.2028,0.7145,-1.0841,-1.7277,
6.763759,-0.2728,-0.7190,-0.0436,0.3753,2.2534,0.2028,0.7408,-1.1867,-1.7515,
6.768231,-0.3535,-0.6812,0.0467,0.3753,2.2534,0.2028,0.7408,-1.1867,-1.7515,
6.770384,-0.3535,-0.6812,0.0467,-0.7089,2.7253,0.8913,0.7408,-1.1867,-1.7515,
6.773414,-0.3535,-0.6812,0.0467,-0.7089,2.7253,0.8913,0.7701,-1.1995,-1.7876,
6.783606,-0.3535,-0.6812,0.0467,-0.7089,2.7253,0.8913,0.7786,-1.1714,-1.8083,
6.788144,-0.5843,-0.7449,0.0298,-0.7089,2.7253,0.8913,0.7786,-1.1714,-1.8083,
6.790310,-0.5843,-0.7449,0.0298,-3.2216,2.1788,0.5254,0.7786,-1.1714,-1.8083,
6.794456,-0.5843,-0.7449,0.0298,-3.2216,2.1788,0.5254,0.8018,-1.1360,-1.7754,
6.803524,-0.5843,-0.7449,0.0298,-3.2216,2.1788,0.5254,0.8648,-1.0993,-1.6758,
6.808155,-0.6814,-0.7878,0.0357,-3.2216,2.1788,0.5254,0.8648,-1.0993,-1.6758,
6.810553,-0.6814,-0.7878,0.0357,-4.3783,1.8132,0.3781,0.8648,-1.0993,-1.6758,
6.815461,-0.6814,-0.7878,0.0357,-4.3783,1.8132,0.3781,0.9222,-1.0315,-1.5170,
6.823385,-0.6814,-0.7878,0.0357,-4.3783,1.8132,0.3781,0.9430,-0.8293,-1.3123,
6.830449,-0.6413,-0.7799,0.1026,-4.3783,1.8132,0.3781,0.9430,-0.8293,-1.3123,
6.834115,-0.6413,-0.7799,0.1026,-4.1147,1.9181,0.8155,0.9430,-0.8293,-1.3123,
6.836638,-0.6413,-0.7799,0.1026,-4.1147,1.9181,0.8155,0.9185,-0.4665,-1.0930,
6.843925,-0.6413,-0.7799,0.1026,-4.1147,1.9181,0.8155,0.8923,-0.0651,-0.8670,
6.849754,-0.4773,-0.7731,0.0893,-4.1147,1.9181,0.8155,0.8923,-0.0651,-0.8670,
6.852977,-0.4773,-0.7731,0.0893,-2.5552,1.9905,0.4980,0.8923,-0.0651,-0.8670,
6.854930,-0.4773,-0.7731,0.0893,-2.5552,1.9905,0.4980,0.9161,0.2409,-0.6416,
6.863251,-0.4773,-0.7731,0.0893,-2.5552,1.9905,0.4980,0.9833,0.4504,-0.4736,
6.867810,-0.2596,-0.7807,-0.0238,-2.5552,1.9905,0.4980,0.9833,0.4504,-0.4736,
6.869668,-0.2596,-0.7807,-0.0238,-0.4090,1.9060,-0.7656,0.9833,0.4504,-0.4736,
6.873328,-0.2596,-0.7807,-0.0238,-0.4090,1.9060,-0.7656,1.0511,0.5011,-0.3594,
6.883435,-0.2596,-0.7807,-0.0238,-0.4090,1.9060,-0.7656,1.0462,0.4303,-0.3270,
6.887793,-0.2342,-0.8735,-0.0919,-0.4090,1.9060,-0.7656,1.0462,0.4303,-0.3270,
6.889612,-0.2342,-0.8735,-0.0919,-0.1317,0.9804,-1.5806,1.0462,0.4303,-0.3270,
6.893619,-0.2342,-0.8735,-0.0919,-0.1317,0.9804,-1.5806,1.0034,0.4156,-0.2751,
6.903093,-0.2342,-0.8735,-0.0919,-0.1317,0.9804,-1.5806,0.8794,0.3753,-0.2274,
6.908133,-0.2510,-0.9380,-0.2270,-0.1317,0.9804,-1.5806,0.8794,0.3753,-0.2274,
6.910616,-0.2510,-0.9380,-0.2270,-0.2721,0.3351,-3.0040,0.8794,0.3753,-0.2274,
6.915631,-0.2510,-0.9380,-0.2270,-0.2721,0.3351,-3.0040,0.7676,0.2305,-0.1627,
6.923174,-0.2510,-0.9380,-0.2270,-0.2721,0.3351,-3.0040,0.7230,-0.1116,-0.0729,
6.929962,-0.3808,-0.9199,-0.1382,-0.2721,0.3351,-3.0040,0.7230,-0.1116,-0.0729,
6.932276,-0.3808,-0.9199,-0.1382,-1.4997,0.4965,-2.1998,0.7230,-0.1116,-0.0729,
6.934241,-0.3808,-0.9199,-0.1382,-1.4997,0.4965,-2.1998,0.7096,-0.5459,0.0230,
6.943337,-0.3808,-0.9199,-0.1382,-1.4997,0.4965,-2.1998,0.6229,-0.9753,0.0908,
6.948313,-0.4005,-0.8524,-0.1351,-1.4997,0.4965,-2.1998,0.6229,-0.9753,0.0908,
6.950753,-0.4005,-0.8524,-0.1351,-1.6291,1.1357,-2.2491,0.6229,-0.9753,0.0908,
6.953271,-0.4005,-0.8524,-0.1351,-1.6291,1.1357,-2.2491,0.5178,-1.2594,0.1422,
6.963480,-0.4005,-0.8524,-0.1351,-1.6291,1.1357,-2.2491,0.4940,-1.2404,0.1758,
6.967853,-0.4113,-0.7498,0.0401,-1.6291,1.1357,-2.2491,0.4940,-1.2404,0.1758,
6.969568,-0.4113,-0.7498,0.0401,-1.6550,2.1131,-0.6166,0.4940,-1.2404,0.1758,
6.973231,-0.4113,-0.7498,0.0401,-1.6550,2.1131,-0.6166,0.5068,-1.0382,0.1678,
6.983376,-0.4113,-0.7498,0.0401,-1.6550,2.1131,-0.6166,0.5441,-0.7805,0.1330,
6.988084,-0.3771,-0.8459,0.1154,-1.6550,2.1131,-0.6166,0.5441,-0.7805,0.1330,
6.990208,-0.3771,-0.8459,0.1154,-1.2414,1.1407,0.0306,0.5441,-0.7805,0.1330,
6.993817,-0.3771,-0.8459,0.1154,-1.2414,1.1407,0.0306,0.5636,-0.4732,0.0719,
7.003430,-0.3771,-0.8459,0.1154,-1.2414,1.1407,0.0306,0.5343,-0.1500,-0.0148,
7.008211,-0.3531,-0.8948,0.1632,-1.2414,1.1407,0.0306,0.5343,-0.1500,-0.0148,
7.010559,-0.3531,-0.8948,0.1632,-0.9478,0.6360,0.4135,0.5343,-0.1500,-0.0148,
7.015689,-0.3531,-0.8948,0.1632,-0.9478,0.6360,0.4135,0.4982,0.0888,-0.1132,
7.023365,-0.3531,-0.8948,0.1632,-0.9478,0.6360,0.4135,0.4873,0.2079,-0.2225,
7.031154,-0.3077,-0.9951,0.1424,-0.9478,0.6360,0.4135,0.4873,0.2079,-0.2225,
7.034034,-0.3077,-0.9951,0.1424,-0.4933,-0.3578,0.1442,0.4873,0.2079,-0.2225,
7.036379,-0.3077,-0.9951,0.1424,-0.4933,-0.3578,0.1442,0.4964,0.2476,-0.3166,
7.043709,-0.3077,-0.9951,0.1424,-0.4933,-0.3578,0.1442,0.5031,0.2116,-0.3716,
7.048970,-0.2629,-0.9456,0.1467,-0.4933,-0.3578,0.1442,0.5031,0.2116,-0.3716,
7.051389,-0.2629,-0.9456,0.1467,-0.0904,0.1269,0.1147,0.5031,0.2116,-0.3716,
7.053525,-0.2629,-0.9456,0.1467,-0.0904,0.1269,0.1147,0.4726,0.1157,-0.3881,
7.063848,-0.2629,-0.9456,0.1467,-0.0904,0.1269,0.1147,0.3687,-0.0535,-0.3117,
7.068225,-0.2113,-0.9340,0.3150,-0.0904,0.1269,0.1147,0.3687,-0.0535,-0.3117,
7.070434,-0.2113,-0.9340,0.3150,0.3599,0.2435,1.6852,0.3687,-0.0535,-0.3117,
7.073496,-0.2113,-0.9340,0.3150,0.3599,0.2435,1.6852,0.3712,-0.0340,-0.2714,
7.083641,-0.2113,-0.9340,0.3150,0.3599,0.2435,1.6852,0.4078,-0.0389,-0.2433,
7.088009,-0.2046,-1.0780,0.3688,0.3599,0.2435,1.6852,0.4078,-0.0389,-0.2433,
7.091075,-0.2046,-1.0780,0.3688,0.3804,-1.1692,2.1279,0.4078,-0.0389,-0.2433,
7.093831,-0.2046,-1.0780,0.3688,0.3804,-1.1692,2.1279,0.4653,-0.1244,-0.2238,
7.103559,-0.2046,-1.0780,0.3688,0.3804,-1.1692,2.1279,0.5257,-0.1158,-0.1847,
7.107974,-0.3039,-1.1232,0.5902,0.3804,-1.1692,2.1279,0.5257,-0.1158,-0.1847,
7.110191,-0.3039,-1.1232,0.5902,-0.6284,-1.6260,4.1599,0.5257,-0.1158,-0.1847,
7.115683,-0.3039,-1.1232,0.5902,-0.6284,-1.6260,4.1599,0.5874,0.0741,-0.1065,
7.127813,-0.3837,-1.1703,0.2646,-0.6284,-1.6260,4.1599,0.5874,0.0741,-0.1065,
7.130049,-0.3837,-1.1703,0.2646,-1.4121,-2.1033,0.8803,0.5874,0.0741,-0.1065,
7.134530,-0.3837,-1.1703,0.2646,-1.4121,-2.1033,0.8803,0.7585,-0.1830,0.0866,
7.143474,-0.3837,-1.1703,0.2646,-1.4121,-2.1033,0.8803,0.8073,-1.2716,0.2271,
7.148083,-0.5086,-1.5142,-0.7231,-1.4121,-2.1033,0.8803,0.8073,-1.2716,0.2271,
7.150482,-0.5086,-1.5142,-0.7231,-2.6077,-5.5129,-8.9681,0.8073,-1.2716,0.2271,
7.153262,-0.5086,-1.5142,-0.7231,-2.6077,-5.5129,-8.9681,0.3394,-1.8037,0.3938,
7.166849,-0.5086,-1.5142,-0.7231,-2.6077,-5.5129,-8.9681,-0.4455,-1.1702,0.4164,
7.170483,-0.1472,-1.6786,-0.0226,-2.6077,-5.5129,-8.9681,-0.4455,-1.1702,0.4164,
7.172646,-0.1472,-1.6786,-0.0226,0.9470,-7.1247,-2.0895,-0.4455,-1.1702,0.4164,
7.174750,-0.1472,-1.6786,-0.0226,0.9470,-7.1247,-2.0895,-0.8194,-0.4042,0.3089,
7.183525,-0.1472,-1.6786,-0.0226,0.9470,-7.1247,-2.0895,-0.7998,-0.2179,0.1342,
7.187493,-0.5830,-1.7349,0.2464,0.9470,-7.1247,-2.0895,-0.7998,-0.2179,0.1342,
7.189055,-0.5830,-1.7349,0.2464,-3.2934,-7.6569,0.6904,-0.7998,-0.2179,0.1342,
7.192994,-0.5830,-1.7349,0.2464,-3.2934,-7.6569,0.6904,-0.6960,-0.3632,0.0029,
7.203014,-0.5830,-1.7349,0.2464,-3.2934,-7.6569,0.6904,-0.6661,-0.4952,-0.0246,
7.207733,-0.8157,-1.6414,0.0342,-3.2934,-7.6569,0.6904,-0.6661,-0.4952,-0.0246,
7.209092,-0.8157,-1.6414,0.0342,-5.5902,-6.7166,-1.2824,-0.6661,-0.4952,-0.0246,
7.213233,-0.8157,-1.6414,0.0342,-5.5902,-6.7166,-1.2824,-0.6593,-0.7493,0.0377,
7.222959,-0.8157,-1.6414,0.0342,-5.5902,-6.7166,-1.2824,-0.7125,-1.0505,0.1214,
7.227616,-0.3373,-1.3547,-0.1881,-5.5902,-6.7166,-1.2824,-0.7125,-1.0505,0.1214,
7.229271,-0.3373,-1.3547,-0.1881,-0.9145,-3.8893,-3.3756,-0.7125,-1.0505,0.1214,
7.240660,-0.3373,-1.3547,-0.1881,-0.9145,-3.8893,-3.3756,-1.0253,-1.0773,0.1189,
7.243496,-0.3373,-1.3547,-0.1881,-0.9145,-3.8893,-3.3756,-1.6447,-0.9393,0.0719,
7.248638,-0.1885,-1.2124,0.0647,-0.9145,-3.8893,-3.3756,-1.6447,-0.9393,0.0719,
7.251175,-0.1885,-1.2124,0.0647,0.5370,-2.4587,-0.6700,-1.6447,-0.9393,0.0719,
7.253172,-0.1885,-1.2124,0.0647,0.5370,-2.4587,-0.6700,-1.6532,-1.0291,0.2484,
7.263391,-0.1885,-1.2124,0.0647,0.5370,-2.4587,-0.6700,-1.6496,-1.0272,0.5221,
7.267891,-0.3275,-1.1531,-0.1209,0.5370,-2.4587,-0.6700,-1.6496,-1.0272,0.5221,
7.269729,-0.3275,-1.1531,-0.1209,-0.7702,-1.8556,-2.1913,-1.6496,-1.0272,0.5221,
7.273322,-0.3275,-1.1531,-0.1209,-0.7702,-1.8556,-2.1913,-1.7339,-0.9008,0.7860,
7.283401,-0.3275,-1.1531,-0.1209,-0.7702,-1.8556,-2.1913,-1.9409,-0.7499,0.9662,
7.288160,-0.4909,-1.0558,-0.3549,-0.7702,-1.8556,-2.1913,-1.9409,-0.7499,0.9662,
7.289973,-0.4909,-1.0558,-0.3549,-2.2046,-0.9145,-4.1200,-1.9409,-0.7499,0.9662,
7.293257,-0.4909,-1.0558,-0.3549,-2.2046,-0.9145,-4.1200,-2.2757,-0.5777,1.1305,
7.303290,-0.4909,-1.0558,-0.3549,-2.2046,-0.9145,-4.1200,-2.6221,-0.4506,1.2857,
7.308019,-0.4551,-0.9438,-0.0947,-2.2046,-0.9145,-4.1200,-2.6221,-0.4506,1.2857,
7.309859,-0.4551,-0.9438,-0.0947,-1.6177,0.1351,-1.1069,-2.6221,-0.4506,1.2857,
7.314895,-0.4551,-0.9438,-0.0947,-1.6177,0.1351,-1.1069,-2.8090,-0.3834,1.3938,
7.323335,-0.4551,-0.9438,-0.0947,-1.6177,0.1351,-1.1069,-2.8297,-0.3987,1.5056,
7.327951,-0.4501,-0.9154,0.1291,-1.6177,0.1351,-1.1069,-2.8297,-0.3987,1.5056,
7.329944,-0.4501,-0.9154,0.1291,-1.2915,0.3204,1.5900,-2.8297,-0.3987,1.5056,
7.334374,-0.4501,-0.9154,0.1291,-1.2915,0.3204,1.5900,-2.7821,-0.5856,1.6809,
7.343452,-0.4501,-0.9154,0.1291,-1.2915,0.3204,1.5900,-2.6874,-0.9313,1.8850,
7.348942,-0.3059,-0.9471,-0.0203,-1.2915,0.3204,1.5900,-2.6874,-0.9313,1.8850,
7.351550,-0.3059,-0.9471,-0.0203,0.4604,-0.1371,0.5754,-2.6874,-0.9313,1.8850,
7.353817,-0.3059,-0.9471,-0.0203,0.4604,-0.1371,0.5754,-2.5414,-1.2936,2.0016,
7.363775,-0.3059,-0.9471,-0.0203,0.4604,-0.1371,0.5754,-2.3802,-1.6516,2.0175,
7.368977,-0.0901,-1.0274,-0.2266,0.4604,-0.1371,0.5754,-2.3802,-1.6516,2.0175,
7.370847,-0.0901,-1.0274,-0.2266,2.9355,-1.1039,-1.1181,-2.3802,-1.6516,2.0175,
7.373193,-0.0901,-1.0274,-0.2266,2.9355,-1.1039,-1.1181,-2.2335,-1.9380,1.9772,
7.383433,-0.0901,-1.0274,-0.2266,2.9355,-1.1039,-1.1181,-2.1364,-1.8507,1.8935,
7.387775,0.0407,-1.1143,0.0761,2.9355,-1.1039,-1.1181,-2.1364,-1.8507,1.8935,
7.389460,0.0407,-1.1143,0.0761,4.5208,-2.1175,2.0475,-2.1364,-1.8507,1.8935,
7.393270,0.0407,-1.1143,0.0761,4.5208,-2.1175,2.0475,-2.0576,-1.2600,1.7994,
7.403143,0.0407,-1.1143,0.0761,4.5208,-2.1175,2.0475,-1.9721,-0.2435,1.7927,
7.407702,0.1032,-1.1277,0.3243,4.5208,-2.1175,2.0475,-1.9721,-0.2435,1.7927,
7.409518,0.1032,-1.1277,0.3243,5.3456,-2.3847,4.6852,-1.9721,-0.2435,1.7927,
7.414519,0.1032,-1.1277,0.3243,5.3456,-2.3847,4.6852,-1.9550,0.9367,1.8813,
7.423270,0.1032,-1.1277,0.3243,5.3456,-2.3847,4.6852,-1.8689,1.7504,1.8953,
7.427880,-0.0767,-0.9821,0.2751,5.3456,-2.3847,4.6852,-1.8689,1.7504,1.8953,
7.430094,-0.0767,-0.9821,0.2751,3.7329,-1.0997,4.5350,-1.8689,1.7504,1.8953,
7.434294,-0.0767,-0.9821,0.2751,3.7329,-1.0997,4.5350,-1.3533,1.3954,1.8507,
7.443153,-0.0767,-0.9821,0.2751,3.7329,-1.0997,4.5350,-1.1309,0.4853,1.9106,
7.448541,-0.5238,-0.7541,-0.3596,3.7329,-1.0997,4.5350,-1.1309,0.4853,1.9106,
7.451080,-0.5238,-0.7541,-0.3596,-0.4610,0.9831,-1.4657,-1.1309,0.4853,1.9106,
7.453395,-0.5238,-0.7541,-0.3596,-0.4610,0.9831,-1.4657,-1.2000,-0.5508,2.1238,
7.463838,-0.5238,-0.7541,-0.3596,-0.4610,0.9831,-1.4657,-1.5249,-1.3657,2.4042,
7.468002,-0.6165,-0.5803,-0.5964,-0.4610,0.9831,-1.4657,-1.5249,-1.3657,2.4042,
7.469842,-0.6165,-0.5803,-0.5964,-1.0171,2.4485,-3.6694,-1.5249,-1.3657,2.4042,
7.473215,-0.6165,-0.5803,-0.5964,-1.0171,2.4485,-3.6694,-1.7601,-1.5037,2.5887,
7.483307,-0.6165,-0.5803,-0.5964,-1.0171,2.4485,-3.6694,-1.7082,-0.8916,2.5765,
7.487887,-0.2471,-0.5668,0.0668,-1.0171,2.4485,-3.6694,-1.7082,-0.8916,2.5765,
7.489586,-0.2471,-0.5668,0.0668,2.9976,2.2927,2.9398,-1.7082,-0.8916,2.5765,
7.493209,-0.2471,-0.5668,0.0668,2.9976,2.2927,2.9398,-1.4553,-0.1134,2.4616,
7.503145,-0.2471,-0.5668,0.0668,2.9976,2.2927,2.9398,-1.2116,0.2647,2.3480,
7.507717,-0.2233,-0.6202,-0.0114,2.9976,2.2927,2.9398,-1.2116,0.2647,2.3480,
7.509472,-0.2233,-0.6202,-0.0114,3.5163,1.5157,2.3317,-1.2116,0.2647,2.3480,
7.513896,-0.2233,-0.6202,-0.0114,3.5163,1.5157,2.3317,-1.1077,0.1481,2.2490,
7.523150,-0.2233,-0.6202,-0.0114,3.5163,1.5157,2.3317,-1.0778,-0.1164,2.1470,
7.528189,-0.4266,-0.5532,-0.1335,3.5163,1.5157,2.3317,-1.0778,-0.1164,2.1470,
7.530382,-0.4266,-0.5532,-0.1335,1.7837,1.9317,1.2467,-1.0778,-0.1164,2.1470,
7.535382,-0.4266,-0.5532,-0.1335,1.7837,1.9317,1.2467,-1.0546,-0.1592,2.0474,
7.543453,-0.4266,-0.5532,-0.1335,1.7837,1.9317,1.2467,-1.0381,0.0332,1.9845,
7.548799,-0.3373,-0.5008,-0.1526,1.7837,1.9317,1.2467,-1.0381,0.0332,1.9845,
7.551480,-0.3373,-0.5008,-0.1526,2.8890,2.2162,1.1593,-1.0381,0.0332,1.9845,
7.554094,-0.3373,-0.5008,-0.1526,2.8890,2.2162,1.1593,-1.0442,0.3319,1.9247,
7.564330,-0.3373,-0.5008,-0.1526,2.8890,2.2162,1.1593,-1.0344,0.5812,1.8385,
7.568164,-0.1860,-0.3919,-0.0923,2.8890,2.2162,1.1593,-1.0344,0.5812,1.8385,
7.570364,-0.1860,-0.3919,-0.0923,4.5365,3.0749,1.9066,-1.0344,0.5812,1.8385,
7.573421,-0.1860,-0.3919,-0.0923,4.5365,3.0749,1.9066,-0.9733,0.7375,1.6968,
7.583547,-0.1860,-0.3919,-0.0923,4.5365,3.0749,1.9066,-0.8683,0.7400,1.4879,
7.587972,-0.1223,-0.3021,-0.0528,4.5365,3.0749,1.9066,-0.8683,0.7400,1.4879,
7.590144,-0.1223,-0.3021,-0.0528,5.2880,3.7547,2.4839,-0.8683,0.7400,1.4879,
7.593433,-0.1223,-0.3021,-0.0528,5.2880,3.7547,2.4839,-0.7333,0.5457,1.2405,
7.603199,-0.1223,-0.3021,-0.0528,5.2880,3.7547,2.4839,-0.5512,0.2666,0.9619,
7.607736,-0.2056,-0.2972,-0.0759,5.2880,3.7547,2.4839,-0.5512,0.2666,0.9619,
7.609570,-0.2056,-0.2972,-0.0759,4.5877,3.6255,2.3923,-0.5512,0.2666,0.9619,
7.613885,-0.2056,-0.2972,-0.0759,4.5877,3.6255,2.3923,-0.2085,-0.3608,0.4183,
7.623324,-0.2056,-0.2972,-0.0759,4.5877,3.6255,2.3923,-0.0833,-0.4714,0.2136,
7.628301,-0.2111,-0.4030,-0.1297,4.5877,3.6255,2.3923,-0.0833,-0.4714,0.2136,
7.630327,-0.2111,-0.4030,-0.1297,4.6010,2.5377,1.8282,-0.0833,-0.4714,0.2136,
7.634762,-0.2111,-0.4030,-0.1297,4.6010,2.5377,1.8282,0.0279,-0.4683,0.0597,
7.643397,-0.2111,-0.4030,-0.1297,4.6010,2.5377,1.8282,0.1531,-0.4976,-0.0747,
7.648038,-0.2237,-0.4291,-0.1099,4.6010,2.5377,1.8282,0.1531,-0.4976,-0.0747,
7.650125,-0.2237,-0.4291,-0.1099,4.5063,2.2881,1.9455,0.1531,-0.4976,-0.0747,
7.653143,-0.2237,-0.4291,-0.1099,4.5063,2.2881,1.9455,0.2710,-0.6595,-0.1999,
7.664474,-0.2237,-0.4291,-0.1099,4.5063,2.2881,1.9455,0.3816,-0.8220,-0.3520,
7.668190,-0.2867,-0.3564,-0.0290,4.5063,2.2881,1.9455,0.3816,-0.8220,-0.3520,
7.669956,-0.2867,-0.3564,-0.0290,3.8963,3.0566,2.5976,0.3816,-0.8220,-0.3520,
7.673248,-0.2867,-0.3564,-0.0290,3.8963,3.0566,2.5976,0.4622,-0.9020,-0.4950,
7.683421,-0.2867,-0.3564,-0.0290,3.8963,3.0566,2.5976,0.5544,-0.8861,-0.6288,
7.687916,-0.2703,-0.3572,0.0193,3.8963,3.0566,2.5976,0.5544,-0.8861,-0.6288,
7.689909,-0.2703,-0.3572,0.0193,4.0324,3.1530,2.8836,0.5544,-0.8861,-0.6288,
7.693406,-0.2703,-0.3572,0.0193,4.0324,3.1530,2.8836,0.6839,-0.8513,-0.7857,
7.703433,-0.2703,-0.3572,0.0193,4.0324,3.1530,2.8836,0.8202,-0.8269,-0.9831,
7.707968,-0.1567,-0.4274,-0.1051,4.0324,3.1530,2.8836,0.8202,-0.8269,-0.9831,
7.709966,-0.1567,-0.4274,-0.1051,5.0702,2.6210,1.4522,0.8202,-0.8269,-0.9831,
7.715147,-0.1567,-0.4274,-0.1051,5.0702,2.6210,1.4522,0.9173,-0.7853,-1.2317,
7.723458,-0.1567,-0.4274,-0.1051,5.0702,2.6210,1.4522,0.9485,-0.7322,-1.5029,
7.728087,-0.1823,-0.4661,-0.1032,5.0702,2.6210,1.4522,0.9485,-0.7322,-1.5029,
7.730432,-0.1823,-0.4661,-0.1032,4.6669,2.4640,1.2420,0.9485,-0.7322,-1.5029,
7.735127,-0.1823,-0.4661,-0.1032,4.6669,2.4640,1.2420,0.9454,-0.6534,-1.7650,
7.743516,-0.1823,-0.4661,-0.1032,4.6669,2.4640,1.2420,0.9552,-0.5715,-1.9879,
7.748924,-0.2027,-0.5513,-0.1517,4.6669,2.4640,1.2420,0.9552,-0.5715,-1.9879,
7.751818,-0.2027,-0.5513,-0.1517,4.2138,1.9172,0.5517,0.9552,-0.5715,-1.9879,
7.754087,-0.2027,-0.5513,-0.1517,4.2138,1.9172,0.5517,0.9772,-0.5129,-2.1571,
