
time,gFx,gFy,gFz,ax,ay,az,wx,wy,wz,
0.066718,0.1058,0.5670,0.8631,0.0000,0.0000,0.0000,0.0000,0.0000,0.0000,
0.067182,0.1035,0.5359,0.7482,0.0000,0.0000,0.0000,0.0000,0.0000,0.0000,
0.067630,0.0622,0.5242,0.6926,0.0000,0.0000,0.0000,0.0000,0.0000,0.0000,
0.095178,0.0042,0.5267,0.6944,0.0000,0.0000,0.0000,0.0000,0.0000,0.0000,
0.096335,-0.0064,0.4923,0.7710,0.0000,0.0000,0.0000,0.0000,0.0000,0.0000,
0.097568,-0.0064,0.4923,0.7710,0.0058,-0.4529,-0.7093,0.0000,0.0000,0.0000,
0.110475,0.0656,0.5210,0.7867,0.0058,-0.4529,-0.7093,0.0000,0.0000,0.0000,
0.112476,0.0656,0.5210,0.7867,-0.0373,-0.2961,-0.4472,0.0000,0.0000,0.0000,
0.129681,0.1535,0.5578,0.7367,-0.0373,-0.2961,-0.4472,0.0000,0.0000,0.0000,
0.131043,0.1535,0.5578,0.7367,-0.1028,-0.3734,-0.4932,0.0000,0.0000,0.0000,
0.132308,0.1535,0.5578,0.7367,-0.1028,-0.3734,-0.4932,-0.1176,-1.0311,0.5363,
0.141343,0.1535,0.5578,0.7367,-0.1028,-0.3734,-0.4932,-0.0461,-1.2815,0.4355,
0.149602,0.1702,0.5783,0.8548,-0.1028,-0.3734,-0.4932,-0.0461,-1.2815,0.4355,
0.151213,0.1702,0.5783,0.8548,0.0722,0.2455,0.3629,-0.0461,-1.2815,0.4355,
0.152342,0.1702,0.5783,0.8548,0.0722,0.2455,0.3629,0.0137,-1.4055,0.3994,
0.161817,0.1702,0.5783,0.8548,0.0722,0.2455,0.3629,0.0406,-1.2962,0.4184,
0.169535,0.2414,0.5352,0.8514,0.0722,0.2455,0.3629,0.0406,-1.2962,0.4184,
0.170389,0.2414,0.5352,0.8514,0.0766,0.1699,0.2704,0.0406,-1.2962,0.4184,
0.171195,0.2414,0.5352,0.8514,0.0766,0.1699,0.2704,-0.0015,-0.9712,0.4813,
0.181171,0.2414,0.5352,0.8514,0.0766,0.1699,0.2704,-0.1127,-0.5888,0.5418,
0.189597,0.4472,0.5278,0.7423,0.0766,0.1699,0.2704,-0.1127,-0.5888,0.5418,
0.190404,0.4472,0.5278,0.7423,0.0606,0.0715,0.1006,-0.1127,-0.5888,0.5418,
0.191209,0.4472,0.5278,0.7423,0.0606,0.0715,0.1006,-0.2960,-0.2766,0.5577,
0.201309,0.4472,0.5278,0.7423,0.0606,0.0715,0.1006,-0.5251,-0.0537,0.5137,
0.209889,0.4219,0.5832,0.9158,0.0606,0.0715,0.1006,-0.5251,-0.0537,0.5137,
0.211577,0.4219,0.5832,0.9158,0.5826,0.8052,1.2645,-0.5251,-0.0537,0.5137,
0.212951,0.4219,0.5832,0.9158,0.5826,0.8052,1.2645,-0.6918,0.1064,0.4844,
0.221457,0.4219,0.5832,0.9158,0.5826,0.8052,1.2645,-0.7572,0.1895,0.4196,
0.229853,0.5190,0.5724,1.1269,0.5826,0.8052,1.2645,-0.7572,0.1895,0.4196,
0.232194,0.5190,0.5724,1.1269,1.3612,1.5012,2.9554,-0.7572,0.1895,0.4196,
0.233494,0.5190,0.5724,1.1269,1.3612,1.5012,2.9554,-0.7437,0.5218,0.2907,
0.241547,0.5190,0.5724,1.1269,1.3612,1.5012,2.9554,-0.6741,1.1247,0.1429,
0.249838,0.5675,0.5877,1.0412,1.3612,1.5012,2.9554,-0.6741,1.1247,0.1429,
0.251308,0.5675,0.5877,1.0412,1.3565,1.4047,2.4889,-0.6741,1.1247,0.1429,
0.252648,0.5675,0.5877,1.0412,1.3565,1.4047,2.4889,-0.6381,1.7722,-0.0483,
0.262927,0.5675,0.5877,1.0412,1.3565,1.4047,2.4889,-0.6094,2.2377,-0.2603,
0.269829,0.3436,0.5948,1.0967,1.3565,1.4047,2.4889,-0.6094,2.2377,-0.2603,
0.271935,0.3436,0.5948,1.0967,0.7634,1.3214,2.4365,-0.6094,2.2377,-0.2603,
0.273196,0.3436,0.5948,1.0967,0.7634,1.3214,2.4365,-0.5391,2.3189,-0.4368,
0.281637,0.3436,0.5948,1.0967,0.7634,1.3214,2.4365,-0.4017,2.0453,-0.5370,
0.289803,0.0435,0.5884,1.0923,0.7634,1.3214,2.4365,-0.4017,2.0453,-0.5370,
0.291155,0.0435,0.5884,1.0923,0.0827,1.1184,2.0761,-0.4017,2.0453,-0.5370,
0.292467,0.0435,0.5884,1.0923,0.0827,1.1184,2.0761,-0.2074,1.7105,-0.5480,
0.301442,0.0435,0.5884,1.0923,0.0827,1.1184,2.0761,-0.0229,1.4863,-0.4918,
0.309930,-0.1802,0.5698,0.9579,0.0827,1.1184,2.0761,-0.0229,1.4863,-0.4918,
0.311392,-0.1802,0.5698,0.9579,-0.2008,0.6350,1.0675,-0.0229,1.4863,-0.4918,
0.312789,-0.1802,0.5698,0.9579,-0.2008,0.6350,1.0675,0.1041,1.3611,-0.3733,
0.321416,-0.1802,0.5698,0.9579,-0.2008,0.6350,1.0675,0.1438,1.0581,-0.0575,
0.329827,0.0577,0.5222,0.8916,-0.2008,0.6350,1.0675,0.1438,1.0581,-0.0575,
0.331480,0.0577,0.5222,0.8916,0.0187,0.1691,0.2887,0.1438,1.0581,-0.0575,
0.333352,0.0577,0.5222,0.8916,0.0187,0.1691,0.2887,0.1023,0.7081,-0.0581,
0.341473,0.0577,0.5222,0.8916,0.0187,0.1691,0.2887,0.1273,0.3910,-0.1717,
0.349783,0.1531,0.5326,1.0262,0.0187,0.1691,0.2887,0.1273,0.3910,-0.1717,
0.351493,0.1531,0.5326,1.0262,0.2130,0.7411,1.4279,0.1273,0.3910,-0.1717,
0.352627,0.1531,0.5326,1.0262,0.2130,0.7411,1.4279,0.2434,0.2188,-0.3024,
0.363076,0.1531,0.5326,1.0262,0.2130,0.7411,1.4279,0.3723,0.1003,-0.4026,
0.369820,-0.0683,0.4686,0.9139,0.2130,0.7411,1.4279,0.3723,0.1003,-0.4026,
0.371748,-0.0683,0.4686,0.9139,-0.0186,0.1278,0.2494,0.3723,0.1003,-0.4026,
0.372857,-0.0683,0.4686,0.9139,-0.0186,0.1278,0.2494,0.4664,-0.0408,-0.4295,
0.381644,-0.0683,0.4686,0.9139,-0.0186,0.1278,0.2494,0.5177,-0.2687,-0.3690,
0.389856,-0.1320,0.4300,0.8927,-0.0186,0.1278,0.2494,0.5177,-0.2687,-0.3690,
0.391335,-0.1320,0.4300,0.8927,0.0014,-0.0045,-0.0093,0.5177,-0.2687,-0.3690,
0.392641,-0.1320,0.4300,0.8927,0.0014,-0.0045,-0.0093,0.5476,-0.6053,-0.2554,
0.401495,-0.1320,0.4300,0.8927,0.0014,-0.0045,-0.0093,0.5867,-0.8857,-0.1338,
0.410001,-0.0375,0.4786,0.8096,0.0014,-0.0045,-0.0093,0.5867,-0.8857,-0.1338,
0.411505,-0.0375,0.4786,0.8096,0.0232,-0.2961,-0.5009,0.5867,-0.8857,-0.1338,
0.412807,-0.0375,0.4786,0.8096,0.0232,-0.2961,-0.5009,0.6124,-0.9901,-0.0324,
0.421439,-0.0375,0.4786,0.8096,0.0232,-0.2961,-0.5009,0.6026,-1.0188,0.0378,
0.429797,0.0147,0.4843,0.7439,0.0232,-0.2961,-0.5009,0.6026,-1.0188,0.0378,
0.431347,0.0147,0.4843,0.7439,-0.0183,-0.6034,-0.9268,0.6026,-1.0188,0.0378,
0.432892,0.0147,0.4843,0.7439,-0.0183,-0.6034,-0.9268,0.5678,-1.0946,0.0586,
0.441744,0.0147,0.4843,0.7439,-0.0183,-0.6034,-0.9268,0.5305,-1.2198,0.0366,
0.450357,0.1208,0.5237,0.8140,-0.0183,-0.6034,-0.9268,0.5305,-1.2198,0.0366,
0.453569,0.1208,0.5237,0.8140,-0.0306,-0.1328,-0.2065,0.5305,-1.2198,0.0366,
0.454884,0.1208,0.5237,0.8140,-0.0306,-0.1328,-0.2065,0.5159,-1.3762,-0.0251,
0.463295,0.1208,0.5237,0.8140,-0.0306,-0.1328,-0.2065,0.5348,-1.4464,-0.1241,
0.469947,0.0815,0.4488,0.7565,-0.0306,-0.1328,-0.2065,0.5348,-1.4464,-0.1241,
0.472038,0.0815,0.4488,0.7565,-0.1060,-0.5841,-0.9845,0.5348,-1.4464,-0.1241,
0.473471,0.0815,0.4488,0.7565,-0.1060,-0.5841,-0.9845,0.5721,-1.3701,-0.2133,
0.481813,0.0815,0.4488,0.7565,-0.1060,-0.5841,-0.9845,0.5751,-1.2998,-0.2603,
0.489851,-0.0111,0.3704,0.6842,-0.1060,-0.5841,-0.9845,0.5751,-1.2998,-0.2603,
0.491523,-0.0111,0.3704,0.6842,0.0312,-1.0384,-1.9183,0.5751,-1.2998,-0.2603,
0.492967,-0.0111,0.3704,0.6842,0.0312,-1.0384,-1.9183,0.5330,-1.3701,-0.2585,
0.501508,-0.0111,0.3704,0.6842,0.0312,-1.0384,-1.9183,0.4908,-1.5790,-0.2108,
0.510077,-0.0548,0.3561,0.6988,0.0312,-1.0384,-1.9183,0.4908,-1.5790,-0.2108,
0.511720,-0.0548,0.3561,0.6988,0.1466,-0.9517,-1.8679,0.4908,-1.5790,-0.2108,
0.512975,-0.0548,0.3561,0.6988,0.1466,-0.9517,-1.8679,0.4053,-1.9767,0.0256,
0.521202,-0.0548,0.3561,0.6988,0.1466,-0.9517,-1.8679,0.3430,-1.9302,0.1948,
0.529596,0.0860,0.4147,0.7853,0.1466,-0.9517,-1.8679,0.3430,-1.9302,0.1948,
0.531248,0.0860,0.4147,0.7853,-0.1024,-0.4939,-0.9353,0.3430,-1.9302,0.1948,
0.532480,0.0860,0.4147,0.7853,-0.1024,-0.4939,-0.9353,0.2483,-1.5918,0.3817,
0.541269,0.0860,0.4147,0.7853,-0.1024,-0.4939,-0.9353,0.0944,-1.0793,0.5882,
0.549661,0.0875,0.4340,0.6786,-0.1024,-0.4939,-0.9353,0.0944,-1.0793,0.5882,
0.551011,0.0875,0.4340,0.6786,-0.2015,-0.9998,-1.5632,0.0944,-1.0793,0.5882,
0.552114,0.0875,0.4340,0.6786,-0.2015,-0.9998,-1.5632,-0.0852,-0.6041,0.8154,
0.562061,0.0875,0.4340,0.6786,-0.2015,-0.9998,-1.5632,-0.2447,-0.2345,1.0897,
0.569672,0.1594,0.5487,0.4660,-0.2015,-0.9998,-1.5632,-0.2447,-0.2345,1.0897,
0.570675,0.1594,0.5487,0.4660,-0.5579,-1.9205,-1.6311,-0.2447,-0.2345,1.0897,
0.571820,0.1594,0.5487,0.4660,-0.5579,-1.9205,-1.6311,-0.3925,0.2133,1.4190,
0.581346,0.1594,0.5487,0.4660,-0.5579,-1.9205,-1.6311,-0.4908,0.6042,1.6920,
0.589628,0.1460,0.2884,0.7775,-0.5579,-1.9205,-1.6311,-0.4908,0.6042,1.6920,
0.590606,0.1460,0.2884,0.7775,-0.2695,-0.5326,-1.4357,-0.4908,0.6042,1.6920,
0.593687,0.1460,0.2884,0.7775,-0.2695,-0.5326,-1.4357,-0.5232,0.7056,1.6658,
0.602164,0.1460,0.2884,0.7775,-0.2695,-0.5326,-1.4357,-0.3534,0.2011,1.4935,
0.610721,0.1351,0.1391,1.2780,-0.2695,-0.5326,-1.4357,-0.3534,0.2011,1.4935,
0.613653,0.1351,0.1391,1.2780,0.2990,0.3079,2.8284,-0.3534,0.2011,1.4935,
0.615813,0.1351,0.1391,1.2780,0.2990,0.3079,2.8284,-0.0834,-0.1997,1.3542,
0.622055,0.1351,0.1391,1.2780,0.2990,0.3079,2.8284,0.3418,-0.5069,1.1551,
0.631073,0.4604,0.3751,1.1371,0.2990,0.3079,2.8284,0.3418,-0.5069,1.1551,
0.633426,0.4604,0.3751,1.1371,0.9925,0.8087,2.4512,0.3418,-0.5069,1.1551,
0.635673,0.4604,0.3751,1.1371,0.9925,0.8087,2.4512,0.8225,-0.6859,0.7922,
0.641896,0.4604,0.3751,1.1371,0.9925,0.8087,2.4512,0.9795,-0.8166,0.4508,
0.650365,0.3154,0.5668,0.9589,0.9925,0.8087,2.4512,0.9795,-0.8166,0.4508,
0.653129,0.3154,0.5668,0.9589,0.4192,0.7533,1.2744,0.9795,-0.8166,0.4508,
0.655319,0.3154,0.5668,0.9589,0.4192,0.7533,1.2744,0.9630,-0.9675,0.2773,
0.665115,0.3154,0.5668,0.9589,0.4192,0.7533,1.2744,0.9349,-1.0152,0.2632,
0.670438,0.1344,0.5220,0.8479,0.4192,0.7533,1.2744,0.9349,-1.0152,0.2632,
0.672943,0.1344,0.5220,0.8479,0.0052,0.0203,0.0331,0.9349,-1.0152,0.2632,
0.674831,0.1344,0.5220,0.8479,0.0052,0.0203,0.0331,0.8488,-0.9810,0.3530,
0.682262,0.1344,0.5220,0.8479,0.0052,0.0203,0.0331,0.7462,-0.9962,0.4697,
0.690438,0.1167,0.4247,0.7881,0.0052,0.0203,0.0331,0.7462,-0.9962,0.4697,
0.693419,0.1167,0.4247,0.7881,-0.1239,-0.4510,-0.8368,0.7462,-0.9962,0.4697,
0.695476,0.1167,0.4247,0.7881,-0.1239,-0.4510,-0.8368,0.7156,-1.1300,0.5173,
0.701993,0.1167,0.4247,0.7881,-0.1239,-0.4510,-0.8368,0.7492,-1.1856,0.5399,
0.710422,0.0305,0.4150,0.7345,-0.1239,-0.4510,-0.8368,0.7492,-1.1856,0.5399,
0.713076,0.0305,0.4150,0.7345,-0.0555,-0.7539,-1.3346,0.7492,-1.1856,0.5399,
0.715351,0.0305,0.4150,0.7345,-0.0555,-0.7539,-1.3346,0.7944,-1.1105,0.6279,
0.722096,0.0305,0.4150,0.7345,-0.0555,-0.7539,-1.3346,0.7938,-1.0873,0.7983,
0.731553,-0.0636,0.2713,0.5560,-0.0555,-0.7539,-1.3346,0.7938,-1.0873,0.7983,
0.734222,-0.0636,0.2713,0.5560,0.3798,-1.6189,-3.3181,0.7938,-1.0873,0.7983,
0.736598,-0.0636,0.2713,0.5560,0.3798,-1.6189,-3.3181,0.6606,-1.2601,1.0451,
0.741904,-0.0636,0.2713,0.5560,0.3798,-1.6189,-3.3181,0.4090,-1.3823,1.3652,
0.750458,-0.1886,0.1632,0.7179,0.3798,-1.6189,-3.3181,0.4090,-1.3823,1.3652,
0.752744,-0.1886,0.1632,0.7179,0.5854,-0.5065,-2.2282,0.4090,-1.3823,1.3652,
0.754113,-0.1886,0.1632,0.7179,0.5854,-0.5065,-2.2282,0.1072,-1.2461,1.6670,
0.763190,-0.1886,0.1632,0.7179,0.5854,-0.5065,-2.2282,-0.1561,-1.0384,1.9926,
0.769900,-0.0959,0.0395,0.8658,0.5854,-0.5065,-2.2282,-0.1561,-1.0384,1.9926,
0.771899,-0.0959,0.0395,0.8658,0.1387,-0.0571,-1.2520,-0.1561,-1.0384,1.9926,
0.773243,-0.0959,0.0395,0.8658,0.1387,-0.0571,-1.2520,-0.3229,-0.8307,2.3774,
0.781729,-0.0959,0.0395,0.8658,0.1387,-0.0571,-1.2520,-0.3925,-0.6163,2.6871,
0.789934,0.2662,-0.0191,1.0670,0.1387,-0.0571,-1.2520,-0.3925,-0.6163,2.6871,
0.791605,0.2662,-0.0191,1.0670,0.2352,-0.0168,0.9430,-0.3925,-0.6163,2.6871,
0.792991,0.2662,-0.0191,1.0670,0.2352,-0.0168,0.9430,-0.2844,-0.3347,2.8038,
0.801607,0.2662,-0.0191,1.0670,0.2352,-0.0168,0.9430,-0.0003,-0.1233,2.6871,
0.810003,0.3155,-0.0120,1.0212,0.2352,-0.0168,0.9430,-0.0003,-0.1233,2.6871,
0.812098,0.3155,-0.0120,1.0212,0.1974,-0.0075,0.6387,-0.0003,-0.1233,2.6871,
0.814261,0.3155,-0.0120,1.0212,0.1974,-0.0075,0.6387,0.3375,0.0331,2.4422,
0.821885,0.3155,-0.0120,1.0212,0.1974,-0.0075,0.6387,0.6527,0.2536,2.1960,
0.830779,0.2106,-0.0674,0.8753,0.1974,-0.0075,0.6387,0.6527,0.2536,2.1960,
0.833190,0.2106,-0.0674,0.8753,-0.2236,0.0716,-0.9296,0.6527,0.2536,2.1960,
0.836562,0.2106,-0.0674,0.8753,-0.2236,0.0716,-0.9296,0.8531,0.5560,1.9620,
0.842312,0.2106,-0.0674,0.8753,-0.2236,0.0716,-0.9296,0.9257,1.0569,1.8130,
0.850534,0.0261,-0.2189,0.7918,-0.2236,0.0716,-0.9296,0.9257,1.0569,1.8130,
0.853292,0.0261,-0.2189,0.7918,-0.0557,0.4666,-1.6877,0.9257,1.0569,1.8130,
0.854546,0.0261,-0.2189,0.7918,-0.0557,0.4666,-1.6877,0.9679,1.5553,1.7971,
0.863885,0.0261,-0.2189,0.7918,-0.0557,0.4666,-1.6877,0.9068,1.8767,1.8729,
0.869943,0.0283,-0.3290,0.6920,-0.0557,0.4666,-1.6877,0.9068,1.8767,1.8729,
0.871764,0.0283,-0.3290,0.6920,-0.0847,0.9837,-2.0692,0.9068,1.8767,1.8729,
0.873242,0.0283,-0.3290,0.6920,-0.0847,0.9837,-2.0692,0.7449,2.1699,2.3041,
0.881652,0.0283,-0.3290,0.6920,-0.0847,0.9837,-2.0692,0.4731,2.3311,2.5680,
0.890116,0.1311,-0.3895,0.7365,-0.0847,0.9837,-2.0692,0.4731,2.3311,2.5680,
0.891897,0.1311,-0.3895,0.7365,-0.2396,0.7120,-1.3460,0.4731,2.3311,2.5680,
0.893430,0.1311,-0.3895,0.7365,-0.2396,0.7120,-1.3460,0.4145,2.5492,2.8081,
0.903519,0.1311,-0.3895,0.7365,-0.2396,0.7120,-1.3460,0.3124,2.6378,3.0457,
0.909903,0.5402,-0.5260,0.6595,-0.2396,0.7120,-1.3460,0.3124,2.6378,3.0457,
0.911899,0.5402,-0.5260,0.6595,0.0054,-0.0052,0.0065,0.3124,2.6378,3.0457,
0.912927,0.5402,-0.5260,0.6595,0.0054,-0.0052,0.0065,0.0602,2.4888,3.1972,
0.921267,0.5402,-0.5260,0.6595,0.0054,-0.0052,0.0065,-0.2410,2.3880,3.2467,
0.929578,0.8145,-0.5745,0.7929,0.0054,-0.0052,0.0065,-0.2410,2.3880,3.2467,
0.930662,0.8145,-0.5745,0.7929,1.7107,-1.2066,1.6653,-0.2410,2.3880,3.2467,
0.932080,0.8145,-0.5745,0.7929,1.7107,-1.2066,1.6653,-0.5141,2.3568,3.3292,
0.941205,0.8145,-0.5745,0.7929,1.7107,-1.2066,1.6653,-0.7456,2.2688,3.5167,
0.949504,1.1062,-0.4759,0.8189,1.7107,-1.2066,1.6653,-0.7456,2.2688,3.5167,
0.950483,1.1062,-0.4759,0.8189,3.3918,-1.4592,2.5109,-0.7456,2.2688,3.5167,
0.951644,1.1062,-0.4759,0.8189,3.3918,-1.4592,2.5109,-0.9771,2.0410,3.7818,
0.962722,1.1062,-0.4759,0.8189,3.3918,-1.4592,2.5109,-1.2972,1.6824,3.9932,
0.969550,1.6246,-0.3819,0.8317,3.3918,-1.4592,2.5109,-1.2972,1.6824,3.9932,
0.970418,1.6246,-0.3819,0.8317,7.3772,-1.7339,3.7768,-1.2972,1.6824,3.9932,
0.971291,1.6246,-0.3819,0.8317,7.3772,-1.7339,3.7768,-1.6747,1.3067,4.0390,
0.981227,1.6246,-0.3819,0.8317,7.3772,-1.7339,3.7768,-2.0009,0.9989,3.9083,
0.989515,1.8346,-0.2259,0.9468,7.3772,-1.7339,3.7768,-2.0009,0.9989,3.9083,
0.990770,1.8346,-0.2259,0.9468,9.3164,-1.1469,4.8080,-2.0009,0.9989,3.9083,
0.991871,1.8346,-0.2259,0.9468,9.3164,-1.1469,4.8080,-2.2715,0.7429,3.6627,
1.001186,1.8346,-0.2259,0.9468,9.3164,-1.1469,4.8080,-2.4365,0.5199,3.3725,
1.009528,1.7954,-0.1495,1.1326,9.3164,-1.1469,4.8080,-2.4365,0.5199,3.3725,
1.010575,1.7954,-0.1495,1.1326,9.3213,-0.7762,5.8802,-2.4365,0.5199,3.3725,
1.011759,1.7954,-0.1495,1.1326,9.3213,-0.7762,5.8802,-2.4334,0.2365,3.0781,
1.021150,1.7954,-0.1495,1.1326,9.3213,-0.7762,5.8802,-2.2825,-0.0909,2.8405,
1.029558,1.6513,-0.0971,1.0107,9.3213,-0.7762,5.8802,-2.2825,-0.0909,2.8405,
1.031184,1.6513,-0.0971,1.0107,7.8287,-0.4604,4.7917,-2.2825,-0.0909,2.8405,
1.032068,1.6513,-0.0971,1.0107,7.8287,-0.4604,4.7917,-2.0785,-0.4972,2.6902,
1.041132,1.6513,-0.0971,1.0107,7.8287,-0.4604,4.7917,-1.8964,-0.9406,2.6346,
1.049486,1.4790,-0.1064,0.8282,7.8287,-0.4604,4.7917,-1.8964,-0.9406,2.6346,
1.050499,1.4790,-0.1064,0.8282,5.9548,-0.4284,3.3344,-1.8964,-0.9406,2.6346,
1.051643,1.4790,-0.1064,0.8282,5.9548,-0.4284,3.3344,-1.7895,-1.3273,2.6554,
1.062588,1.4790,-0.1064,0.8282,5.9548,-0.4284,3.3344,-1.8183,-1.9913,2.6670,
1.069502,1.5324,-0.1513,0.6991,5.9548,-0.4284,3.3344,-1.8183,-1.9913,2.6670,
1.070346,1.5324,-0.1513,0.6991,6.1313,-0.6056,2.7971,-1.8183,-1.9913,2.6670,
1.071307,1.5324,-0.1513,0.6991,6.1313,-0.6056,2.7971,-1.9288,-2.1722,2.5228,
1.082149,1.5324,-0.1513,0.6991,6.1313,-0.6056,2.7971,-2.0693,-2.1996,2.2760,
1.090351,1.5813,-0.1068,0.5503,6.1313,-0.6056,2.7971,-2.0693,-2.1996,2.2760,
1.092875,1.5813,-0.1068,0.5503,6.2534,-0.4222,2.1763,-2.0693,-2.1996,2.2760,
1.095167,1.5813,-0.1068,0.5503,6.2534,-0.4222,2.1763,-2.2721,-2.1269,1.9419,
1.102108,1.5813,-0.1068,0.5503,6.2534,-0.4222,2.1763,-2.5837,-2.0249,1.5424,
1.110319,1.6150,-0.0860,0.6568,6.2534,-0.4222,2.1763,-2.5837,-2.0249,1.5424,
1.113008,1.6150,-0.0860,0.6568,6.4889,0.2498,3.6478,-2.5837,-2.0249,1.5424,
1.115326,1.6150,-0.0860,0.6568,6.4889,0.2498,3.6478,-2.9282,-1.8979,1.1056,
1.122154,1.6150,-0.0860,0.6568,6.4889,0.2498,3.6478,-3.1463,-1.6841,0.6615,
1.131306,1.7006,-0.0605,0.8517,6.4889,0.2498,3.6478,-3.1463,-1.6841,0.6615,
1.133829,1.7006,-0.0605,0.8517,7.2574,0.8221,5.9700,-3.1463,-1.6841,0.6615,
1.136259,1.7006,-0.0605,0.8517,7.2574,0.8221,5.9700,-3.2513,-1.6034,0.1918,
1.142023,1.7006,-0.0605,0.8517,7.2574,0.8221,5.9700,-3.2459,-1.6486,-0.2713,
1.150384,1.4285,-0.0056,0.9226,7.2574,0.8221,5.9700,-3.2459,-1.6486,-0.2713,
1.153309,1.4285,-0.0056,0.9226,4.5183,1.4932,7.0691,-3.2459,-1.6486,-0.2713,
1.155538,1.4285,-0.0056,0.9226,4.5183,1.4932,7.0691,-3.0931,-1.6743,-0.6103,
1.165465,1.4285,-0.0056,0.9226,4.5183,1.4932,7.0691,-2.8793,-1.8130,-0.7123,
1.170509,1.0577,0.0050,0.8168,4.5183,1.4932,7.0691,-2.8793,-1.8130,-0.7123,
1.172831,1.0577,0.0050,0.8168,0.8034,1.5769,6.4565,-2.8793,-1.8130,-0.7123,
1.174761,1.0577,0.0050,0.8168,0.8034,1.5769,6.4565,-2.6692,-2.1001,-0.5382,
1.182386,1.0577,0.0050,0.8168,0.8034,1.5769,6.4565,-2.5055,-2.4489,-0.1974,
1.190465,1.1199,-0.0079,0.7400,0.8034,1.5769,6.4565,-2.5055,-2.4489,-0.1974,
1.193066,1.1199,-0.0079,0.7400,1.3428,1.4469,6.2193,-2.5055,-2.4489,-0.1974,
1.196747,1.1199,-0.0079,0.7400,1.3428,1.4469,6.2193,-2.4114,-2.7427,0.1349,
1.202106,1.1199,-0.0079,0.7400,1.3428,1.4469,6.2193,-2.3668,-2.9534,0.2877,
1.210308,1.3645,-0.0487,0.7764,1.3428,1.4469,6.2193,-2.3668,-2.9534,0.2877,
1.213558,1.3645,-0.0487,0.7764,3.7050,1.1226,7.2005,-2.3668,-2.9534,0.2877,
1.215928,1.3645,-0.0487,0.7764,3.7050,1.1226,7.2005,-2.3247,-2.9779,0.2095,
1.222049,1.3645,-0.0487,0.7764,3.7050,1.1226,7.2005,-2.3344,-2.8643,-0.0385,
1.231651,1.2738,0.0004,0.7788,3.7050,1.1226,7.2005,-2.3344,-2.8643,-0.0385,
1.234196,1.2738,0.0004,0.7788,2.8144,1.6242,7.8667,-2.3344,-2.8643,-0.0385,
1.236592,1.2738,0.0004,0.7788,2.8144,1.6242,7.8667,-2.3943,-2.7250,-0.3269,
1.242073,1.2738,0.0004,0.7788,2.8144,1.6242,7.8667,-2.5036,-3.0756,-0.6531,
1.250371,0.7409,0.2027,1.1887,2.8144,1.6242,7.8667,-2.5036,-3.0756,-0.6531,
1.253247,0.7409,0.2027,1.1887,-2.4045,3.4634,12.4087,-2.5036,-3.0756,-0.6531,
1.255487,0.7409,0.2027,1.1887,-2.4045,3.4634,12.4087,-2.2923,-3.4806,-0.1589,
1.265259,0.7409,0.2027,1.1887,-2.4045,3.4634,12.4087,-1.7407,-3.7146,0.5699,
1.270525,0.9364,0.1819,1.3066,-2.4045,3.4634,12.4087,-1.7407,-3.7146,0.5699,
1.273333,0.9364,0.1819,1.3066,-0.4073,3.2472,14.2760,-1.7407,-3.7146,0.5699,
1.275262,0.9364,0.1819,1.3066,-0.4073,3.2472,14.2760,-0.8238,-2.9321,0.5943,
1.282152,0.9364,0.1819,1.3066,-0.4073,3.2472,14.2760,-0.1732,-1.9571,-0.2811,
1.290605,0.9369,-0.0474,0.3389,-0.4073,3.2472,14.2760,-0.1732,-1.9571,-0.2811,
1.293194,0.9369,-0.0474,0.3389,-0.3828,0.9577,4.9536,-0.1732,-1.9571,-0.2811,
1.295858,0.9369,-0.0474,0.3389,-0.3828,0.9577,4.9536,-0.2434,-1.5436,-0.9945,
1.302181,0.9369,-0.0474,0.3389,-0.3828,0.9577,4.9536,-0.5923,-1.0842,-1.1699,
1.310283,0.8005,-0.2268,0.3575,-0.3828,0.9577,4.9536,-0.5923,-1.0842,-1.1699,
1.312885,0.8005,-0.2268,0.3575,-1.7603,-1.0479,5.0962,-0.5923,-1.0842,-1.1699,
1.315275,0.8005,-0.2268,0.3575,-1.7603,-1.0479,5.0962,-0.9417,-0.9345,-1.1131,
1.322177,0.8005,-0.2268,0.3575,-1.7603,-1.0479,5.0962,-1.1072,-0.9547,-0.9774,
1.332605,0.9292,-0.2387,0.1256,-1.7603,-1.0479,5.0962,-1.1072,-0.9547,-0.9774,
1.335108,0.9292,-0.2387,0.1256,-0.5335,-1.3978,2.7659,-1.1072,-0.9547,-0.9774,
1.338245,0.9292,-0.2387,0.1256,-0.5335,-1.3978,2.7659,-1.2263,-0.9278,-0.8577,
1.341945,0.9292,-0.2387,0.1256,-0.5335,-1.3978,2.7659,-1.5012,-0.9028,-0.8339,
1.359002,0.8563,-0.2027,0.0072,-0.5335,-1.3978,2.7659,-1.5012,-0.9028,-0.8339,
1.361599,0.8563,-0.2027,0.0072,-1.2674,-1.2303,1.5876,-1.5012,-0.9028,-0.8339,
1.364016,0.8563,-0.2027,0.0072,-1.2674,-1.2303,1.5876,-1.8683,-0.7922,-0.8504,
1.365852,0.8563,-0.2027,0.0072,-1.2674,-1.2303,1.5876,-2.2135,-0.6596,-0.8791,
1.370102,0.7752,-0.2905,0.2282,-1.2674,-1.2303,1.5876,-2.2135,-0.6596,-0.8791,
1.372358,0.7752,-0.2905,0.2282,-2.0808,-2.2723,3.7142,-2.2135,-0.6596,-0.8791,
1.374414,0.7752,-0.2905,0.2282,-2.0808,-2.2723,3.7142,-2.4493,-0.5729,-0.9414,
1.382064,0.7752,-0.2905,0.2282,-2.0808,-2.2723,3.7142,-2.5250,-0.4471,-0.9567,
1.390168,0.6292,-0.2873,0.2213,-2.0808,-2.2723,3.7142,-2.5250,-0.4471,-0.9567,
1.393398,0.6292,-0.2873,0.2213,-3.5319,-2.4225,3.5699,-2.5250,-0.4471,-0.9567,
1.396177,0.6292,-0.2873,0.2213,-3.5319,-2.4225,3.5699,-2.4896,-0.2119,-0.8779,
1.401950,0.6292,-0.2873,0.2213,-3.5319,-2.4225,3.5699,-2.5226,-0.0683,-0.7575,
1.410182,0.6453,-0.2643,0.2294,-3.5319,-2.4225,3.5699,-2.5226,-0.0683,-0.7575,
1.413100,0.6453,-0.2643,0.2294,-3.3986,-2.3296,3.5004,-2.5226,-0.0683,-0.7575,
1.415022,0.6453,-0.2643,0.2294,-3.3986,-2.3296,3.5004,-2.5831,-0.0219,-0.6476,
1.422014,0.6453,-0.2643,0.2294,-3.3986,-2.3296,3.5004,-2.5452,0.0410,-0.5278,
1.431993,0.7373,-0.2025,0.5554,-3.3986,-2.3296,3.5004,-2.5452,0.0410,-0.5278,
1.434028,0.7373,-0.2025,0.5554,-2.5235,-1.8053,6.4877,-2.5452,0.0410,-0.5278,
1.435965,0.7373,-0.2025,0.5554,-2.5235,-1.8053,6.4877,-2.0223,0.0251,-0.2976,
1.441691,0.7373,-0.2025,0.5554,-2.5235,-1.8053,6.4877,-1.5385,0.0227,-0.2188,
1.450218,0.8314,-0.1055,1.0349,-2.5235,-1.8053,6.4877,-1.5385,0.0227,-0.2188,
1.452877,0.8314,-0.1055,1.0349,-1.6271,-0.8656,10.9165,-1.5385,0.0227,-0.2188,
1.454689,0.8314,-0.1055,1.0349,-1.6271,-0.8656,10.9165,-0.7981,-0.0494,-0.1180,
1.461910,0.8314,-0.1055,1.0349,-1.6271,-0.8656,10.9165,0.0327,-0.1386,-0.0605,
1.470338,0.9756,0.0110,0.7394,-1.6271,-0.8656,10.9165,0.0327,-0.1386,-0.0605,
1.472578,0.9756,0.0110,0.7394,-0.2294,0.3009,7.7723,0.0327,-0.1386,-0.0605,
1.473993,0.9756,0.0110,0.7394,-0.2294,0.3009,7.7723,0.6154,-0.1844,-0.1155,
1.481885,0.9756,0.0110,0.7394,-0.2294,0.3009,7.7723,0.8427,-0.2180,-0.2572,
1.490062,0.8367,0.0580,0.5332,-0.2294,0.3009,7.7723,0.8427,-0.2180,-0.2572,
1.491935,0.8367,0.0580,0.5332,-1.5998,0.7597,5.5333,0.8427,-0.2180,-0.2572,
1.493672,0.8367,0.0580,0.5332,-1.5998,0.7597,5.5333,0.8586,-0.1648,-0.4185,
1.502100,0.8367,0.0580,0.5332,-1.5998,0.7597,5.5333,0.7370,0.0001,-0.5297,
1.510168,0.8901,-0.0034,0.1976,-1.5998,0.7597,5.5333,0.7370,0.0001,-0.5297,
1.512197,0.8901,-0.0034,0.1976,-1.0820,0.0903,2.0484,0.7370,0.0001,-0.5297,
1.513999,0.8901,-0.0034,0.1976,-1.0820,0.0903,2.0484,0.3344,-0.0097,-0.6751,
1.522046,0.8901,-0.0034,0.1976,-1.0820,0.0903,2.0484,-0.0822,-0.0213,-0.8162,
1.532263,0.8294,-0.1980,0.1848,-1.0820,0.0903,2.0484,-0.0822,-0.0213,-0.8162,
1.534965,0.8294,-0.1980,0.1848,-1.6781,-1.9203,1.7510,-0.0822,-0.0213,-0.8162,
1.538994,0.8294,-0.1980,0.1848,-1.6781,-1.9203,1.7510,-0.3638,0.1003,-0.8925,
1.542340,0.8294,-0.1980,0.1848,-1.6781,-1.9203,1.7510,-0.6222,0.1980,-0.8620,
1.550561,0.8237,-0.2695,0.2182,-1.6781,-1.9203,1.7510,-0.6222,0.1980,-0.8620,
1.553339,0.8237,-0.2695,0.2182,-1.7313,-2.7234,1.8995,-0.6222,0.1980,-0.8620,
1.554875,0.8237,-0.2695,0.2182,-1.7313,-2.7234,1.8995,-0.7908,0.2964,-0.7166,
1.561695,0.8237,-0.2695,0.2182,-1.7313,-2.7234,1.8995,-0.8464,0.3849,-0.5865,
1.569927,1.0009,-0.2603,0.1976,-1.7313,-2.7234,1.8995,-0.8464,0.3849,-0.5865,
1.572040,1.0009,-0.2603,0.1976,0.0124,-2.6753,1.5125,-0.8464,0.3849,-0.5865,
1.573368,1.0009,-0.2603,0.1976,0.0124,-2.6753,1.5125,-0.8360,0.4888,-0.5590,
1.581748,1.0009,-0.2603,0.1976,0.0124,-2.6753,1.5125,-0.8323,0.6030,-0.5566,
1.590005,0.9876,-0.2372,0.1570,0.0124,-2.6753,1.5125,-0.8323,0.6030,-0.5566,
1.592316,0.9876,-0.2372,0.1570,-0.1073,-2.4629,0.9155,-0.8323,0.6030,-0.5566,
1.593613,0.9876,-0.2372,0.1570,-0.1073,-2.4629,0.9155,-0.8494,0.6464,-0.5352,
1.601585,0.9876,-0.2372,0.1570,-0.1073,-2.4629,0.9155,-0.8568,0.6678,-0.5138,
1.609871,1.0217,-0.1015,0.3023,-0.1073,-2.4629,0.9155,-0.8568,0.6678,-0.5138,
1.612784,1.0217,-0.1015,0.3023,0.2427,-1.1480,2.1282,-0.8568,0.6678,-0.5138,
1.615155,1.0217,-0.1015,0.3023,0.2427,-1.1480,2.1282,-0.8128,0.7667,-0.5199,
1.622084,1.0217,-0.1015,0.3023,0.2427,-1.1480,2.1282,-0.7187,0.7850,-0.6060,
1.635352,0.8926,-0.0423,0.4572,0.2427,-1.1480,2.1282,-0.7187,0.7850,-0.6060,
1.637587,0.8926,-0.0423,0.4572,-0.9979,-0.6007,3.3999,-0.7187,0.7850,-0.6060,
1.639708,0.8926,-0.0423,0.4572,-0.9979,-0.6007,3.3999,-0.6356,0.7197,-0.6519,
1.641947,0.8926,-0.0423,0.4572,-0.9979,-0.6007,3.3999,-0.6087,0.6042,-0.5608,
1.650379,0.6865,-0.1849,0.2742,-0.9979,-0.6007,3.3999,-0.6087,0.6042,-0.5608,
1.653562,0.6865,-0.1849,0.2742,-2.9902,-2.0283,1.3890,-0.6087,0.6042,-0.5608,
1.655214,0.6865,-0.1849,0.2742,-2.9902,-2.0283,1.3890,-0.6112,0.4888,-0.3336,
1.661849,0.6865,-0.1849,0.2742,-2.9902,-2.0283,1.3890,-0.6393,0.3238,-0.1503,
1.670395,1.0411,-0.2965,0.1615,-2.9902,-2.0283,1.3890,-0.6393,0.3238,-0.1503,
1.672874,1.0411,-0.2965,0.1615,0.5034,-3.0650,0.1456,-0.6393,0.3238,-0.1503,
1.674454,1.0411,-0.2965,0.1615,0.5034,-3.0650,0.1456,-0.5996,0.4454,-0.1296,
1.681803,1.0411,-0.2965,0.1615,0.5034,-3.0650,0.1456,-0.6417,0.3495,-0.1442,
1.690186,0.8543,-0.0893,0.1438,0.5034,-3.0650,0.1456,-0.6417,0.3495,-0.1442,
1.692066,0.8543,-0.0893,0.1438,-1.3096,-0.9687,-0.1464,-0.6417,0.3495,-0.1442,
1.693647,0.8543,-0.0893,0.1438,-1.3096,-0.9687,-0.1464,-0.7645,0.2004,-0.0801,
1.702408,0.8543,-0.0893,0.1438,-1.3096,-0.9687,-0.1464,-0.8616,0.1901,0.0604,
1.710212,0.8027,-0.1031,0.2547,-1.3096,-0.9687,-0.1464,-0.8616,0.1901,0.0604,
1.713177,0.8027,-0.1031,0.2547,-1.8032,-1.0148,0.8605,-0.8616,0.1901,0.0604,
1.715520,0.8027,-0.1031,0.2547,-1.8032,-1.0148,0.8605,-0.8445,0.2750,0.1820,
1.722014,0.8027,-0.1031,0.2547,-1.8032,-1.0148,0.8605,-0.7853,0.2621,0.3658,
1.733623,0.7406,-0.2262,0.2695,-1.8032,-1.0148,0.8605,-0.7853,0.2621,0.3658,
1.737164,0.7406,-0.2262,0.2695,-2.3935,-2.0700,0.9096,-0.7853,0.2621,0.3658,
1.739765,0.7406,-0.2262,0.2695,-2.3935,-2.0700,0.9096,-0.7474,0.1461,0.6010,
1.742507,0.7406,-0.2262,0.2695,-2.3935,-2.0700,0.9096,-0.6851,-0.1001,0.8008,
1.750527,0.5358,-0.4902,0.1258,-2.3935,-2.0700,0.9096,-0.6851,-0.1001,0.8008,
1.753268,0.5358,-0.4902,0.1258,-4.3862,-4.3856,-0.5360,-0.6851,-0.1001,0.8008,
1.755130,0.5358,-0.4902,0.1258,-4.3862,-4.3856,-0.5360,-0.6075,-0.3903,1.0940,
1.761910,0.5358,-0.4902,0.1258,-4.3862,-4.3856,-0.5360,-0.5635,-0.6004,1.5674,
1.770544,0.7705,-0.7825,0.2361,-4.3862,-4.3856,-0.5360,-0.5635,-0.6004,1.5674,
1.772977,0.7705,-0.7825,0.2361,-2.0686,-6.8186,0.6094,-0.5635,-0.6004,1.5674,
1.774550,0.7705,-0.7825,0.2361,-2.0686,-6.8186,0.6094,-0.4304,-0.6236,1.9510,
1.782070,0.7705,-0.7825,0.2361,-2.0686,-6.8186,0.6094,-0.1915,-0.3078,1.9736,
1.790206,0.9813,-0.9075,0.1557,-2.0686,-6.8186,0.6094,-0.1915,-0.3078,1.9736,
1.792773,0.9813,-0.9075,0.1557,0.0493,-7.4847,-0.1042,-0.1915,-0.3078,1.9736,
1.794907,0.9813,-0.9075,0.1557,0.0493,-7.4847,-0.1042,0.0101,0.2102,1.7116,
1.801957,0.9813,-0.9075,0.1557,0.0493,-7.4847,-0.1042,0.0290,1.1027,1.1459,
1.810225,1.0039,-0.7804,0.2796,0.0493,-7.4847,-0.1042,0.0290,1.1027,1.1459,
1.813512,1.0039,-0.7804,0.2796,0.3703,-5.8065,0.9665,0.0290,1.1027,1.1459,
1.815014,1.0039,-0.7804,0.2796,0.3703,-5.8065,0.9665,-0.1720,1.0935,1.1502,
1.824538,1.0039,-0.7804,0.2796,0.3703,-5.8065,0.9665,-0.4432,0.8779,1.2113,
1.831882,1.0217,-0.6089,0.4539,0.3703,-5.8065,0.9665,-0.4432,0.8779,1.2113,
1.833532,1.0217,-0.6089,0.4539,0.6645,-3.7570,2.4742,-0.4432,0.8779,1.2113,
1.836047,1.0217,-0.6089,0.4539,0.6645,-3.7570,2.4742,-0.6509,0.7820,1.1526,
1.841540,1.0217,-0.6089,0.4539,0.6645,-3.7570,2.4742,-0.8238,0.7576,1.0164,
1.850014,0.8560,-0.6204,0.3893,0.6645,-3.7570,2.4742,-0.8238,0.7576,1.0164,
1.852756,0.8560,-0.6204,0.3893,-0.8374,-3.5168,1.7012,-0.8238,0.7576,1.0164,
1.854055,0.8560,-0.6204,0.3893,-0.8374,-3.5168,1.7012,-1.0089,0.5993,0.9034,
1.861688,0.8560,-0.6204,0.3893,-0.8374,-3.5168,1.7012,-1.1549,0.3709,0.9077,
1.869921,0.7163,-0.6339,0.2750,-0.8374,-3.5168,1.7012,-1.1549,0.3709,0.9077,
1.872098,0.7163,-0.6339,0.2750,-2.0945,-3.3177,0.5209,-1.1549,0.3709,0.9077,
1.873786,0.7163,-0.6339,0.2750,-2.0945,-3.3177,0.5209,-1.2447,0.2939,1.0604,
1.882254,0.7163,-0.6339,0.2750,-2.0945,-3.3177,0.5209,-1.3112,0.3318,1.2553,
1.890155,0.8272,-0.7142,0.0621,-2.0945,-3.3177,0.5209,-1.3112,0.3318,1.2553,
1.892235,0.8272,-0.7142,0.0621,-0.8824,-3.7265,-1.5488,-1.3112,0.3318,1.2553,
1.893960,0.8272,-0.7142,0.0621,-0.8824,-3.7265,-1.5488,-1.4023,0.2847,1.4343,
1.902116,0.8272,-0.7142,0.0621,-0.8824,-3.7265,-1.5488,-1.5055,0.1100,1.5094,
1.910261,0.9558,-0.8570,0.0815,-0.8824,-3.7265,-1.5488,-1.5055,0.1100,1.5094,
1.912778,0.9558,-0.8570,0.0815,0.5279,-4.6959,-1.2806,-1.5055,0.1100,1.5094,
1.914570,0.9558,-0.8570,0.0815,0.5279,-4.6959,-1.2806,-1.5476,-0.2363,1.4947,
1.922153,0.9558,-0.8570,0.0815,0.5279,-4.6959,-1.2806,-1.4139,-0.4025,1.4165,
1.934366,1.0867,-0.7786,0.3183,0.5279,-4.6959,-1.2806,-1.4139,-0.4025,1.4165,
1.936788,1.0867,-0.7786,0.3183,1.9469,-3.5325,1.2108,-1.4139,-0.4025,1.4165,
1.941411,1.0867,-0.7786,0.3183,1.9469,-3.5325,1.2108,-1.0663,-0.3310,1.2657,
1.943691,1.0867,-0.7786,0.3183,1.9469,-3.5325,1.2108,-0.5635,-0.2192,1.0427,
1.951440,0.9342,-0.5852,0.2507,1.9469,-3.5325,1.2108,-0.5635,-0.2192,1.0427,
1.953720,0.9342,-0.5852,0.2507,0.5695,-1.3517,0.6573,-0.5635,-0.2192,1.0427,
1.955579,0.9342,-0.5852,0.2507,0.5695,-1.3517,0.6573,-0.0987,-0.2608,0.8173,
1.961964,0.9342,-0.5852,0.2507,0.5695,-1.3517,0.6573,0.1952,-0.3463,0.7238,
1.970398,0.7638,-0.3904,0.2813,0.5695,-1.3517,0.6573,0.1952,-0.3463,0.7238,
1.972592,0.7638,-0.3904,0.2813,-1.0265,0.7129,0.9916,0.1952,-0.3463,0.7238,
1.974101,0.7638,-0.3904,0.2813,-1.0265,0.7129,0.9916,0.3228,-0.6083,0.8784,
1.982366,0.7638,-0.3904,0.2813,-1.0265,0.7129,0.9916,0.6857,-1.4031,0.9920,
1.990097,0.7152,-0.3971,0.1824,-1.0265,0.7129,0.9916,0.6857,-1.4031,0.9920,
1.992418,0.7152,-0.3971,0.1824,-1.4413,0.8016,0.1333,0.6857,-1.4031,0.9920,
1.994347,0.7152,-0.3971,0.1824,-1.4413,0.8016,0.1333,0.7565,-1.6413,0.9254,
2.001904,0.7152,-0.3971,0.1824,-1.4413,0.8016,0.1333,0.7248,-1.7989,0.8271,
2.010094,0.5647,-0.3862,0.0662,-1.4413,0.8016,0.1333,0.7248,-1.7989,0.8271,
2.012493,0.5647,-0.3862,0.0662,-2.8783,1.0431,-0.7962,0.7248,-1.7989,0.8271,
2.014413,0.5647,-0.3862,0.0662,-2.8783,1.0431,-0.7962,0.6588,-1.8325,0.7250,
2.021949,0.5647,-0.3862,0.0662,-2.8783,1.0431,-0.7962,0.6209,-1.7030,0.6224,
2.032309,0.5735,-0.5529,0.2602,-2.8783,1.0431,-0.7962,0.6209,-1.7030,0.6224,
2.034345,0.5735,-0.5529,0.2602,-2.7537,-0.4688,1.3048,0.6209,-1.7030,0.6224,
2.036269,0.5735,-0.5529,0.2602,-2.7537,-0.4688,1.3048,0.6704,-1.3823,0.6084,
2.041692,0.5735,-0.5529,0.2602,-2.7537,-0.4688,1.3048,0.7535,-0.8179,0.8069,
2.050130,0.5527,-0.7467,0.2786,-2.7537,-0.4688,1.3048,0.7535,-0.8179,0.8069,
2.052761,0.5527,-0.7467,0.2786,-2.8735,-2.2154,1.5453,0.7535,-0.8179,0.8069,
2.054577,0.5527,-0.7467,0.2786,-2.8735,-2.2154,1.5453,0.7822,-0.2559,1.2235,
2.062014,0.5527,-0.7467,0.2786,-2.8735,-2.2154,1.5453,0.6900,-0.1111,1.7366,
2.070501,0.5029,-0.7680,0.1278,-2.8735,-2.2154,1.5453,0.6900,-0.1111,1.7366,
2.073572,0.5029,-0.7680,0.1278,-3.1632,-2.1332,-0.0175,0.6900,-0.1111,1.7366,
2.075550,0.5029,-0.7680,0.1278,-3.1632,-2.1332,-0.0175,0.4798,-0.4489,2.2614,
2.082945,0.5029,-0.7680,0.1278,-3.1632,-2.1332,-0.0175,0.2043,-1.0726,2.7189,
2.090406,0.4340,-0.6657,-0.0971,-3.1632,-2.1332,-0.0175,0.2043,-1.0726,2.7189,
2.092812,0.4340,-0.6657,-0.0971,-3.5300,-0.6790,-2.1451,0.2043,-1.0726,2.7189,
2.094818,0.4340,-0.6657,-0.0971,-3.5300,-0.6790,-2.1451,-0.0590,-1.7977,3.0824,
2.102094,0.4340,-0.6657,-0.0971,-3.5300,-0.6790,-2.1451,-0.2208,-2.3432,3.3469,
2.110398,0.5233,-0.6192,0.0364,-3.5300,-0.6790,-2.1451,-0.2208,-2.3432,3.3469,
2.113126,0.5233,-0.6192,0.0364,-2.2743,0.3048,-0.5131,-0.2208,-2.3432,3.3469,
2.115366,0.5233,-0.6192,0.0364,-2.2743,0.3048,-0.5131,-0.1561,-2.3432,3.4568,
2.122157,0.5233,-0.6192,0.0364,-2.2743,0.3048,-0.5131,0.1280,-1.8423,3.4220,
2.134051,0.4195,-0.6308,-0.1096,-2.2743,0.3048,-0.5131,0.1280,-1.8423,3.4220,
2.136450,0.4195,-0.6308,-0.1096,-2.8470,0.7058,-1.6380,0.1280,-1.8423,3.4220,
2.138731,0.4195,-0.6308,-0.1096,-2.8470,0.7058,-1.6380,0.3430,-1.2986,3.5259,
2.142225,0.4195,-0.6308,-0.1096,-2.8470,0.7058,-1.6380,0.3558,-0.9315,3.9272,
2.150391,0.2995,-0.6922,-0.1887,-2.8470,0.7058,-1.6380,0.3558,-0.9315,3.9272,
2.153085,0.2995,-0.6922,-0.1887,-3.4808,0.6193,-2.2910,0.3558,-0.9315,3.9272,
2.155502,0.2995,-0.6922,-0.1887,-3.4808,0.6193,-2.2910,0.2275,-0.6896,4.5906,
2.162160,0.2995,-0.6922,-0.1887,-3.4808,0.6193,-2.2910,0.0614,-0.3603,6.3878,
2.170441,0.2613,-0.8332,-0.1228,-3.4808,0.6193,-2.2910,0.0614,-0.3603,6.3878,
2.173293,0.2613,-0.8332,-0.1228,-2.9915,-0.0902,-1.5714,0.0614,-0.3603,6.3878,
2.175344,0.2613,-0.8332,-0.1228,-2.9915,-0.0902,-1.5714,-0.1872,-0.2357,7.4782,
2.183453,0.2613,-0.8332,-0.1228,-2.9915,-0.0902,-1.5714,-0.2343,-0.3053,8.3810,
2.190391,0.3145,-1.0147,-0.0443,-2.9915,-0.0902,-1.5714,-0.2343,-0.3053,8.3810,
2.194149,0.3145,-1.0147,-0.0443,-1.1285,-1.0925,-0.7219,-0.2343,-0.3053,8.3810,
2.196892,0.3145,-1.0147,-0.0443,-1.1285,-1.0925,-0.7219,-0.2282,-0.5815,8.5997,
2.202550,0.3145,-1.0147,-0.0443,-1.1285,-1.0925,-0.7219,-0.2416,-0.6511,7.8343,
2.210414,0.7582,-1.5680,0.1040,-1.1285,-1.0925,-0.7219,-0.2416,-0.6511,7.8343,
2.213138,0.7582,-1.5680,0.1040,4.6570,-5.9616,0.8270,-0.2416,-0.6511,7.8343,
2.215644,0.7582,-1.5680,0.1040,4.6570,-5.9616,0.8270,-0.2099,-0.1435,6.2363,
2.222099,0.7582,-1.5680,0.1040,4.6570,-5.9616,0.8270,-0.1769,0.6470,4.1868,
2.233595,0.5149,-1.7320,-0.0699,4.6570,-5.9616,0.8270,-0.1769,0.6470,4.1868,
2.236020,0.5149,-1.7320,-0.0699,3.1872,-7.3459,-0.8350,-0.1769,0.6470,4.1868,
2.238275,0.5149,-1.7320,-0.0699,3.1872,-7.3459,-0.8350,-0.1292,1.3605,1.9944,
2.242047,0.5149,-1.7320,-0.0699,3.1872,-7.3459,-0.8350,-0.0828,1.7875,0.0268,
2.250385,-0.0763,-1.3248,-0.4157,3.1872,-7.3459,-0.8350,-0.0828,1.7875,0.0268,
2.253619,-0.0763,-1.3248,-0.4157,-2.4398,-3.3239,-4.2146,-0.0828,1.7875,0.0268,
2.256065,-0.0763,-1.3248,-0.4157,-2.4398,-3.3239,-4.2146,-0.2160,1.8217,-1.1998,
2.262184,-0.0763,-1.3248,-0.4157,-2.4398,-3.3239,-4.2146,-0.5556,1.4808,-1.5816,
2.270527,-0.0706,-0.9960,-0.2299,-2.4398,-3.3239,-4.2146,-0.5556,1.4808,-1.5816,
2.273742,-0.0706,-0.9960,-0.2299,-2.6432,-0.1509,-2.3311,-0.5556,1.4808,-1.5816,
2.275694,-0.0706,-0.9960,-0.2299,-2.6432,-0.1509,-2.3311,-0.9294,1.2273,-0.7044,
2.283504,-0.0706,-0.9960,-0.2299,-2.6432,-0.1509,-2.3311,-1.1738,1.1406,0.1954,
2.290185,0.3667,-0.8308,0.1671,-2.6432,-0.1509,-2.3311,-1.1738,1.1406,0.1954,
2.292503,0.3667,-0.8308,0.1671,1.5873,1.4573,1.7233,-1.1738,1.1406,0.1954,
2.294065,0.3667,-0.8308,0.1671,1.5873,1.4573,1.7233,-1.2410,1.1058,0.2217,
2.301972,0.3667,-0.8308,0.1671,1.5873,1.4573,1.7233,-1.0797,1.0233,-0.0410,
2.310340,0.2002,-0.9205,0.1637,1.5873,1.4573,1.7233,-1.0797,1.0233,-0.0410,
2.312794,0.2002,-0.9205,0.1637,-0.0341,0.5764,1.8676,-1.0797,1.0233,-0.0410,
2.314715,0.2002,-0.9205,0.1637,-0.0341,0.5764,1.8676,-0.6570,0.6867,-0.2872,
2.322028,0.2002,-0.9205,0.1637,-0.0341,0.5764,1.8676,-0.2661,0.1467,-0.4136,
2.332875,0.1163,-0.9502,-0.1135,-0.0341,0.5764,1.8676,-0.2661,0.1467,-0.4136,
2.335500,0.1163,-0.9502,-0.1135,-0.9258,0.2686,-0.7769,-0.2661,0.1467,-0.4136,
2.340189,0.1163,-0.9502,-0.1135,-0.9258,0.2686,-0.7769,0.0687,-0.8191,-0.5376,
2.350793,0.1215,-0.9471,-0.0778,-0.9258,0.2686,-0.7769,0.0687,-0.8191,-0.5376,
2.353260,0.1215,-0.9471,-0.0778,-0.9303,0.2870,-0.4133,0.0687,-0.8191,-0.5376,
2.355494,0.1215,-0.9471,-0.0778,-0.9303,0.2870,-0.4133,0.1371,-1.3866,-0.5669,
2.361543,0.1215,-0.9471,-0.0778,-0.9303,0.2870,-0.4133,0.1347,-1.4635,-0.4344,
2.369861,0.1576,-0.9760,0.1169,-0.9303,0.2870,-0.4133,0.1347,-1.4635,-0.4344,
2.371894,0.1576,-0.9760,0.1169,-0.6915,-0.0245,1.5380,0.1347,-1.4635,-0.4344,
2.373218,0.1576,-0.9760,0.1169,-0.6915,-0.0245,1.5380,0.1420,-1.3475,-0.2493,
2.382012,0.1576,-0.9760,0.1169,-0.6915,-0.0245,1.5380,0.1664,-1.0048,-0.1106,
2.389970,0.2392,-0.9363,0.1167,-0.6915,-0.0245,1.5380,0.1664,-1.0048,-0.1106,
2.391795,0.2392,-0.9363,0.1167,0.0902,0.3600,1.5443,0.1664,-1.0048,-0.1106,
2.393570,0.2392,-0.9363,0.1167,0.0902,0.3600,1.5443,0.1915,-0.5137,-0.0831,
2.401667,0.2392,-0.9363,0.1167,0.0902,0.3600,1.5443,0.2281,-0.0488,-0.1112,
2.409941,0.2000,-0.9199,0.0848,0.0902,0.3600,1.5443,0.2281,-0.0488,-0.1112,
2.411609,0.2000,-0.9199,0.0848,-0.3037,0.5199,1.1858,0.2281,-0.0488,-0.1112,
2.413227,0.2000,-0.9199,0.0848,-0.3037,0.5199,1.1858,0.2355,0.2933,-0.1424,
2.421622,0.2000,-0.9199,0.0848,-0.3037,0.5199,1.1858,0.2007,0.5010,-0.2004,
2.432710,0.1143,-0.9144,0.1059,-0.3037,0.5199,1.1858,0.2007,0.5010,-0.2004,
2.434393,0.1143,-0.9144,0.1059,-1.1642,0.5715,1.3086,0.2007,0.5010,-0.2004,
2.436075,0.1143,-0.9144,0.1059,-1.1642,0.5715,1.3086,0.1640,0.5829,-0.2719,
2.441520,0.1143,-0.9144,0.1059,-1.1642,0.5715,1.3086,0.1622,0.5126,-0.3061,
2.450215,0.0993,-0.8363,0.0981,-1.1642,0.5715,1.3086,0.1622,0.5126,-0.3061,
2.452600,0.0993,-0.8363,0.0981,-1.3480,1.3308,1.1468,0.1622,0.5126,-0.3061,
2.453998,0.0993,-0.8363,0.0981,-1.3480,1.3308,1.1468,0.2165,0.3550,-0.3214,
2.461693,0.0993,-0.8363,0.0981,-1.3480,1.3308,1.1468,0.3155,0.1699,-0.3531,
2.469835,0.1433,-0.7787,0.0583,-1.3480,1.3308,1.1468,0.3155,0.1699,-0.3531,
2.471658,0.1433,-0.7787,0.0583,-0.9619,1.8849,0.6691,0.3155,0.1699,-0.3531,
2.472986,0.1433,-0.7787,0.0583,-0.9619,1.8849,0.6691,0.4187,-0.0060,-0.4020,
2.481993,0.1433,-0.7787,0.0583,-0.9619,1.8849,0.6691,0.5030,-0.1917,-0.4674,
2.489988,0.2101,-0.7477,0.1002,-0.9619,1.8849,0.6691,0.5030,-0.1917,-0.4674,
2.492099,0.2101,-0.7477,0.1002,-0.3756,2.1722,0.9735,0.5030,-0.1917,-0.4674,
2.493437,0.2101,-0.7477,0.1002,-0.3756,2.1722,0.9735,0.5623,-0.4098,-0.5602,
2.501843,0.2101,-0.7477,0.1002,-0.3756,2.1722,0.9735,0.6350,-0.6517,-0.6207,
2.510251,0.2454,-0.7589,0.3305,-0.3756,2.1722,0.9735,0.6350,-0.6517,-0.6207,
2.512691,0.2454,-0.7589,0.3305,-0.1288,2.0348,3.0831,0.6350,-0.6517,-0.6207,
2.514549,0.2454,-0.7589,0.3305,-0.1288,2.0348,3.0831,0.7755,-0.9358,-0.5676,
2.522094,0.2454,-0.7589,0.3305,-0.1288,2.0348,3.0831,0.9813,-1.2094,-0.4179,
2.533277,0.2118,-0.8199,0.3709,-0.1288,2.0348,3.0831,0.9813,-1.2094,-0.4179,
2.535191,0.2118,-0.8199,0.3709,-0.5408,1.4097,3.2835,0.9813,-1.2094,-0.4179,
2.537244,0.2118,-0.8199,0.3709,-0.5408,1.4097,3.2835,1.2074,-0.8893,-0.0978,
2.541664,0.2118,-0.8199,0.3709,-0.5408,1.4097,3.2835,1.1677,-0.3615,0.0445,
2.550099,0.1305,-0.8519,0.0021,-0.5408,1.4097,3.2835,1.1677,-0.3615,0.0445,
2.552888,0.1305,-0.8519,0.0021,-1.3296,1.0871,-0.5599,1.1677,-0.3615,0.0445,
2.556687,0.1305,-0.8519,0.0021,-1.3296,1.0871,-0.5599,1.0461,-0.0189,0.1337,
2.567208,0.1305,-0.8519,0.0021,-1.3296,1.0871,-0.5599,0.8976,-0.1129,0.1722,
2.571915,0.2381,-0.8250,0.0359,-1.3296,1.0871,-0.5599,0.8976,-0.1129,0.1722,
2.573916,0.2381,-0.8250,0.0359,-0.2402,1.3462,-0.4202,0.8976,-0.1129,0.1722,
2.575818,0.2381,-0.8250,0.0359,-0.2402,1.3462,-0.4202,0.8433,-0.5161,0.1594,
2.587094,0.2381,-0.8250,0.0359,-0.2402,1.3462,-0.4202,0.9160,-0.8875,0.0977,
2.590367,0.2403,-0.7560,-0.0129,-0.2402,1.3462,-0.4202,0.9160,-0.8875,0.0977,
2.592424,0.2403,-0.7560,-0.0129,-0.2050,2.0135,-1.0421,0.9160,-0.8875,0.0977,
2.596737,0.2403,-0.7560,-0.0129,-0.2050,2.0135,-1.0421,0.9911,-1.0506,0.0030,
2.609873,0.2970,-0.7472,0.3046,-0.2050,2.0135,-1.0421,0.9911,-1.0506,0.0030,
2.613080,0.2970,-0.7472,0.3046,0.3364,2.0866,1.9800,0.9911,-1.0506,0.0030,
2.614733,0.2970,-0.7472,0.3046,0.3364,2.0866,1.9800,0.8934,-1.1416,-0.1674,
2.622236,0.2970,-0.7472,0.3046,0.3364,2.0866,1.9800,0.9154,-1.0060,-0.2450,
2.629922,0.2768,-0.7459,0.0915,0.3364,2.0866,1.9800,0.9154,-1.0060,-0.2450,
2.631712,0.2768,-0.7459,0.0915,0.0558,2.0589,-0.2627,0.9154,-1.0060,-0.2450,
2.633134,0.2768,-0.7459,0.0915,0.0558,2.0589,-0.2627,0.9807,-0.7470,-0.3366,
2.641397,0.2768,-0.7459,0.0915,0.0558,2.0589,-0.2627,0.9319,-0.4684,-0.4075,
2.649762,0.2448,-0.7878,0.0022,0.0558,2.0589,-0.2627,0.9319,-0.4684,-0.4075,
2.651341,0.2448,-0.7878,0.0022,-0.3436,1.6046,-1.2819,0.9319,-0.4684,-0.4075,
2.652530,0.2448,-0.7878,0.0022,-0.3436,1.6046,-1.2819,0.7724,-0.3194,-0.4472,
2.661209,0.2448,-0.7878,0.0022,-0.3436,1.6046,-1.2819,0.6741,-0.4013,-0.4631,
2.669502,0.3034,-0.8432,0.1719,-0.3436,1.6046,-1.2819,0.6741,-0.4013,-0.4631,
2.670418,0.3034,-0.8432,0.1719,0.1351,1.0156,0.2670,0.6741,-0.4013,-0.4631,
2.671248,0.3034,-0.8432,0.1719,0.1351,1.0156,0.2670,0.6955,-0.6596,-0.4680,
2.681270,0.3034,-0.8432,0.1719,0.1351,1.0156,0.2670,0.7229,-0.8197,-0.4710,
2.689569,0.2700,-0.8824,-0.0881,0.1351,1.0156,0.2670,0.7229,-0.8197,-0.4710,
2.690393,0.2700,-0.8824,-0.0881,-0.3026,0.5860,-2.3513,0.7229,-0.8197,-0.4710,
2.691567,0.2700,-0.8824,-0.0881,-0.3026,0.5860,-2.3513,0.6374,-0.7097,-0.4515,
2.701255,0.2700,-0.8824,-0.0881,-0.3026,0.5860,-2.3513,0.4627,-0.4171,-0.3452,
2.709561,0.3462,-0.8675,-0.1206,-0.3026,0.5860,-2.3513,0.4627,-0.4171,-0.3452,
2.710441,0.3462,-0.8675,-0.1206,0.3480,0.6977,-2.6882,0.4627,-0.4171,-0.3452,
2.712272,0.3462,-0.8675,-0.1206,0.3480,0.6977,-2.6882,0.2349,-0.0708,-0.1485,
2.722161,0.3462,-0.8675,-0.1206,0.3480,0.6977,-2.6882,0.0095,-0.2168,-0.0324,
2.730403,0.7357,-0.7624,0.3282,0.3480,0.6977,-2.6882,0.0095,-0.2168,-0.0324,
2.732991,0.7357,-0.7624,0.3282,4.0973,1.7059,1.7125,0.0095,-0.2168,-0.0324,
2.734580,0.7357,-0.7624,0.3282,4.0973,1.7059,1.7125,0.3387,-0.8234,-0.3354,
2.741993,0.7357,-0.7624,0.3282,4.0973,1.7059,1.7125,0.8720,-1.4532,-0.8974,
2.750340,0.9882,-0.9577,0.6850,4.0973,1.7059,1.7125,0.8720,-1.4532,-0.8974,
2.752911,0.9882,-0.9577,0.6850,6.3394,-0.3030,5.1345,0.8720,-1.4532,-0.8974,
2.754867,0.9882,-0.9577,0.6850,6.3394,-0.3030,5.1345,1.3143,-1.9516,-1.5767,
2.761900,0.9882,-0.9577,0.6850,6.3394,-0.3030,5.1345,1.6704,-2.3181,-2.1240,
2.770484,0.5416,-1.2934,0.8447,6.3394,-0.3030,5.1345,1.6704,-2.3181,-2.1240,
2.773217,0.5416,-1.2934,0.8447,1.5235,-3.8021,6.5108,1.6704,-2.3181,-2.1240,
2.775530,0.5416,-1.2934,0.8447,1.5235,-3.8021,6.5108,2.0174,-2.1410,-2.3849,
2.783989,0.5416,-1.2934,0.8447,1.5235,-3.8021,6.5108,2.2819,-1.3145,-2.2963,
2.790359,0.2697,-1.5587,0.5027,1.5235,-3.8021,6.5108,2.2819,-1.3145,-2.2963,
2.792921,0.2697,-1.5587,0.5027,-1.5938,-6.6721,2.8749,2.2819,-1.3145,-2.2963,
2.794569,0.2697,-1.5587,0.5027,-1.5938,-6.6721,2.8749,2.3979,-0.2137,-2.0440,
2.802131,0.2697,-1.5587,0.5027,-1.5938,-6.6721,2.8749,2.3912,0.5743,-2.0098,
2.810086,-0.0838,-1.5384,0.5016,-1.5938,-6.6721,2.8749,2.3912,0.5743,-2.0098,
2.812244,-0.0838,-1.5384,0.5016,-5.3082,-6.7252,2.4061,2.3912,0.5743,-2.0098,
2.814483,-0.0838,-1.5384,0.5016,-5.3082,-6.7252,2.4061,2.4547,1.0434,-2.0477,
2.821951,-0.0838,-1.5384,0.5016,-5.3082,-6.7252,2.4061,2.5995,1.2927,-1.8827,
2.830467,-0.1363,-1.5355,0.2518,-5.3082,-6.7252,2.4061,2.5995,1.2927,-1.8827,
2.833328,-0.1363,-1.5355,0.2518,-5.9564,-6.9457,-0.5628,2.5995,1.2927,-1.8827,
2.835253,-0.1363,-1.5355,0.2518,-5.9564,-6.9457,-0.5628,2.6747,1.2224,-1.5743,
2.842058,-0.1363,-1.5355,0.2518,-5.9564,-6.9457,-0.5628,2.6692,0.8559,-1.2285,
2.851966,0.0672,-1.4757,-0.1074,-5.9564,-6.9457,-0.5628,2.6692,0.8559,-1.2285,
2.854498,0.0672,-1.4757,-0.1074,-3.9870,-6.5650,-4.5487,2.6692,0.8559,-1.2285,
2.856047,0.0672,-1.4757,-0.1074,-3.9870,-6.5650,-4.5487,2.5262,0.2200,-0.9310,
2.861875,0.0672,-1.4757,-0.1074,-3.9870,-6.5650,-4.5487,2.2446,-0.4281,-0.7313,
2.870049,0.3277,-1.3117,-0.0785,-3.9870,-6.5650,-4.5487,2.2446,-0.4281,-0.7313,
2.871996,0.3277,-1.3117,-0.0785,-1.4564,-5.0952,-4.5342,2.2446,-0.4281,-0.7313,
2.873394,0.3277,-1.3117,-0.0785,-1.4564,-5.0952,-4.5342,1.9215,-0.6700,-0.6567,
2.882974,0.3277,-1.3117,-0.0785,-1.4564,-5.0952,-4.5342,1.5055,-0.6798,-0.6470,
2.889962,0.5383,-1.3189,0.0673,-1.4564,-5.0952,-4.5342,1.5055,-0.6798,-0.6470,
2.891819,0.5383,-1.3189,0.0673,0.5461,-5.2493,-3.1985,1.5055,-0.6798,-0.6470,
2.893062,0.5383,-1.3189,0.0673,0.5461,-5.2493,-3.1985,1.0577,-0.6749,-0.6616,
2.901673,0.5383,-1.3189,0.0673,0.5461,-5.2493,-3.1985,0.5043,-0.4306,-0.8577,
2.909930,0.5736,-1.2403,0.3141,0.5461,-5.2493,-3.1985,0.5043,-0.4306,-0.8577,
2.911796,0.5736,-1.2403,0.3141,0.8098,-4.5170,-0.7527,0.5043,-0.4306,-0.8577,
2.914160,0.5736,-1.2403,0.3141,0.8098,-4.5170,-0.7527,0.4200,-0.4239,-0.9451,
2.922098,0.5736,-1.2403,0.3141,0.8098,-4.5170,-0.7527,0.3998,-0.3909,-0.9744,
2.930650,0.2711,-1.0125,0.3716,0.8098,-4.5170,-0.7527,0.3998,-0.3909,-0.9744,
2.933280,0.2711,-1.0125,0.3716,-2.2483,-2.3180,-0.1376,0.3998,-0.3909,-0.9744,
2.935441,0.2711,-1.0125,0.3716,-2.2483,-2.3180,-0.1376,0.4090,-0.2760,-0.9298,
2.942216,0.2711,-1.0125,0.3716,-2.2483,-2.3180,-0.1376,0.3961,-0.0970,-0.8241,
2.951125,0.1328,-0.8600,0.2183,-2.2483,-2.3180,-0.1376,0.3961,-0.0970,-0.8241,
2.953686,0.1328,-0.8600,0.2183,-3.6553,-0.8446,-1.6158,0.3961,-0.0970,-0.8241,
2.956008,0.1328,-0.8600,0.2183,-3.6553,-0.8446,-1.6158,0.3424,0.0795,-0.6989,
2.961979,0.1328,-0.8600,0.2183,-3.6553,-0.8446,-1.6158,0.2452,0.2114,-0.5205,
2.970531,0.1480,-0.7500,0.1577,-3.6553,-0.8446,-1.6158,0.2452,0.2114,-0.5205,
2.973657,0.1480,-0.7500,0.1577,-3.4886,0.2472,-2.2031,0.2452,0.2114,-0.5205,
2.975473,0.1480,-0.7500,0.1577,-3.4886,0.2472,-2.2031,0.1023,0.2805,-0.3354,
2.984467,0.1480,-0.7500,0.1577,-3.4886,0.2472,-2.2031,-0.0474,0.3000,-0.1925,
2.990495,0.1296,-0.6759,0.2029,-3.4886,0.2472,-2.2031,-0.0474,0.3000,-0.1925,
2.993058,0.1296,-0.6759,0.2029,-3.5879,1.0382,-1.7354,-0.0474,0.3000,-0.1925,
2.995004,0.1296,-0.6759,0.2029,-3.5879,1.0382,-1.7354,-0.1842,0.2890,-0.0697,
3.002230,0.1296,-0.6759,0.2029,-3.5879,1.0382,-1.7354,-0.3357,0.2695,0.0647,
3.010493,0.0717,-0.6668,0.2552,-3.5879,1.0382,-1.7354,-0.3357,0.2695,0.0647,
3.013517,0.0717,-0.6668,0.2552,-4.0289,1.2322,-1.1671,-0.3357,0.2695,0.0647,
3.015801,0.0717,-0.6668,0.2552,-4.0289,1.2322,-1.1671,-0.4872,0.2414,0.2180,
3.022148,0.0717,-0.6668,0.2552,-4.0289,1.2322,-1.1671,-0.5898,0.1876,0.3891,
3.030615,0.0129,-0.7169,0.2893,-4.0289,1.2322,-1.1671,-0.5898,0.1876,0.3891,
3.033510,0.0129,-0.7169,0.2893,-4.4250,0.8893,-0.7432,-0.5898,0.1876,0.3891,
3.035706,0.0129,-0.7169,0.2893,-4.4250,0.8893,-0.7432,-0.6393,0.0917,0.5583,
3.042179,0.0129,-0.7169,0.2893,-4.4250,0.8893,-0.7432,-0.6594,0.0111,0.7812,
3.051670,0.0487,-0.6016,0.3268,-4.4250,0.8893,-0.7432,-0.6594,0.0111,0.7812,
3.054190,0.0487,-0.6016,0.3268,-3.8471,2.1906,-0.2731,-0.6594,0.0111,0.7812,
3.056575,0.0487,-0.6016,0.3268,-3.8471,2.1906,-0.2731,-0.6472,-0.0586,0.9938,
3.062000,0.0487,-0.6016,0.3268,-3.8471,2.1906,-0.2731,-0.6191,-0.1300,1.1551,
3.070694,0.1407,-0.5289,0.2530,-3.8471,2.1906,-0.2731,-0.6191,-0.1300,1.1551,
3.073686,0.1407,-0.5289,0.2530,-2.6775,3.0841,-0.8916,-0.6191,-0.1300,1.1551,
3.075641,0.1407,-0.5289,0.2530,-2.6775,3.0841,-0.8916,-0.6313,-0.1563,1.2504,
3.084377,0.1407,-0.5289,0.2530,-2.6775,3.0841,-0.8916,-0.6741,-0.1099,1.3176,
3.090400,0.2233,-0.5604,0.2014,-2.6775,3.0841,-0.8916,-0.6741,-0.1099,1.3176,
3.093160,0.2233,-0.5604,0.2014,-1.5915,2.9500,-1.2835,-0.6741,-0.1099,1.3176,
3.095655,0.2233,-0.5604,0.2014,-1.5915,2.9500,-1.2835,-0.7596,-0.0641,1.3781,
3.102175,0.2233,-0.5604,0.2014,-1.5915,2.9500,-1.2835,-0.8506,-0.1025,1.3683,
3.110492,0.3561,-0.6952,0.1355,-1.5915,2.9500,-1.2835,-0.8506,-0.1025,1.3683,
3.112880,0.3561,-0.6952,0.1355,-0.0425,1.7914,-1.7813,-0.8506,-0.1025,1.3683,
3.115128,0.3561,-0.6952,0.1355,-0.0425,1.7914,-1.7813,-1.0449,-0.0017,1.3066,
3.121955,0.3561,-0.6952,0.1355,-0.0425,1.7914,-1.7813,-1.2825,0.2023,1.1655,
3.130570,0.5556,-0.7228,0.2176,-0.0425,1.7914,-1.7813,-1.2825,0.2023,1.1655,
3.132652,0.5556,-0.7228,0.2176,2.1256,1.6737,-0.7785,-1.2825,0.2023,1.1655,
3.134511,0.5556,-0.7228,0.2176,2.1256,1.6737,-0.7785,-1.4866,0.2854,0.9767,
3.141915,0.5556,-0.7228,0.2176,2.1256,1.6737,-0.7785,-1.6173,0.1919,0.7629,
3.150496,0.5755,-0.7427,0.3076,2.1256,1.6737,-0.7785,-1.6173,0.1919,0.7629,
3.152920,0.5755,-0.7427,0.3076,2.4420,1.6027,0.3548,-1.6173,0.1919,0.7629,
3.155135,0.5755,-0.7427,0.3076,2.4420,1.6027,0.3548,-1.6454,-0.0292,0.5552,
3.161996,0.5755,-0.7427,0.3076,2.4420,1.6027,0.3548,-1.5812,-0.3719,0.3738,
3.170380,0.5413,-0.7422,0.4070,2.4420,1.6027,0.3548,-1.5812,-0.3719,0.3738,
3.172846,0.5413,-0.7422,0.4070,2.1136,1.6848,1.5936,-1.5812,-0.3719,0.3738,
3.175160,0.5413,-0.7422,0.4070,2.1136,1.6848,1.5936,-1.4462,-0.8252,0.2406,
3.184764,0.5413,-0.7422,0.4070,2.1136,1.6848,1.5936,-1.2813,-1.2888,0.1716,
3.190303,0.4764,-0.6894,0.4211,2.1136,1.6848,1.5936,-1.2813,-1.2888,0.1716,
3.192772,0.4764,-0.6894,0.4211,1.3993,2.2370,1.9819,-1.2813,-1.2888,0.1716,
3.194750,0.4764,-0.6894,0.4211,1.3993,2.2370,1.9819,-1.1384,-1.5937,0.1600,
3.202220,0.4764,-0.6894,0.4211,1.3993,2.2370,1.9819,-1.0498,-1.6114,0.1826,
3.210399,0.3942,-0.6363,0.3963,1.3993,2.2370,1.9819,-1.0498,-1.6114,0.1826,
3.213402,0.3942,-0.6363,0.3963,0.4970,2.7717,1.9581,-1.0498,-1.6114,0.1826,
3.215750,0.3942,-0.6363,0.3963,0.4970,2.7717,1.9581,-0.9881,-1.3414,0.2162,
3.222193,0.3942,-0.6363,0.3963,0.4970,2.7717,1.9581,-0.9142,-0.9284,0.2345,
3.231040,0.3463,-0.6242,0.3717,0.4970,2.7717,1.9581,-0.9142,-0.9284,0.2345,
3.233368,0.3463,-0.6242,0.3717,-0.0293,2.8997,1.8680,-0.9142,-0.9284,0.2345,
3.235541,0.3463,-0.6242,0.3717,-0.0293,2.8997,1.8680,-0.8195,-0.5558,0.2351,
3.242181,0.3463,-0.6242,0.3717,-0.0293,2.8997,1.8680,-0.7224,-0.3414,0.2327,
3.251401,0.3647,-0.7148,0.3902,-0.0293,2.8997,1.8680,-0.7224,-0.3414,0.2327,
3.253770,0.3647,-0.7148,0.3902,0.1298,2.0159,2.1149,-0.7224,-0.3414,0.2327,
3.255852,0.3647,-0.7148,0.3902,0.1298,2.0159,2.1149,-0.6338,-0.3035,0.2278,
3.262133,0.3647,-0.7148,0.3902,0.1298,2.0159,2.1149,-0.5379,-0.4049,0.2180,
3.270412,0.4187,-0.7922,0.4029,0.1298,2.0159,2.1149,-0.5379,-0.4049,0.2180,
3.272744,0.4187,-0.7922,0.4029,0.6431,1.2570,2.2658,-0.5379,-0.4049,0.2180,
3.274939,0.4187,-0.7922,0.4029,0.6431,1.2570,2.2658,-0.2630,-0.6383,0.1435,
3.284883,0.4187,-0.7922,0.4029,0.6431,1.2570,2.2658,-0.1579,-0.7201,0.0690,
3.290341,0.4361,-0.7970,0.2288,0.6431,1.2570,2.2658,-0.1579,-0.7201,0.0690,
3.293146,0.4361,-0.7970,0.2288,0.7664,1.1915,0.5618,-0.1579,-0.7201,0.0690,
3.295087,0.4361,-0.7970,0.2288,0.7664,1.1915,0.5618,-0.1433,-0.8386,-0.0019,
3.301990,0.4361,-0.7970,0.2288,0.7664,1.1915,0.5618,-0.2386,-1.0726,-0.0349,
3.310441,0.4063,-0.9883,0.1649,0.7664,1.1915,0.5618,-0.2386,-1.0726,-0.0349,
3.313370,0.4063,-0.9883,0.1649,0.4102,-0.7001,-0.0192,-0.2386,-1.0726,-0.0349,
3.315837,0.4063,-0.9883,0.1649,0.4102,-0.7001,-0.0192,-0.4102,-1.4428,-0.0312,
3.321968,0.4063,-0.9883,0.1649,0.4102,-0.7001,-0.0192,-0.5544,-1.7891,-0.0086,
3.330696,0.4085,-1.0690,0.2737,0.4102,-0.7001,-0.0192,-0.5544,-1.7891,-0.0086,
3.333320,0.4085,-1.0690,0.2737,0.3651,-1.4898,1.2039,-0.5544,-1.7891,-0.0086,
3.335543,0.4085,-1.0690,0.2737,0.3651,-1.4898,1.2039,-0.6142,-1.9541,0.0396,
3.342156,0.4085,-1.0690,0.2737,0.3651,-1.4898,1.2039,-0.5825,-1.8368,0.1172,
3.352117,0.4914,-1.0177,0.1908,0.3651,-1.4898,1.2039,-0.5825,-1.8368,0.1172,
3.354440,0.4914,-1.0177,0.1908,1.1276,-0.9756,0.5999,-0.5825,-1.8368,0.1172,
3.357615,0.4914,-1.0177,0.1908,1.1276,-0.9756,0.5999,-0.4750,-1.4361,0.2058,
3.361966,0.4914,-1.0177,0.1908,1.1276,-0.9756,0.5999,-0.3943,-0.9822,0.2596,
3.370440,0.7377,-1.0465,-0.0209,1.1276,-0.9756,0.5999,-0.3943,-0.9822,0.2596,
3.373325,0.7377,-1.0465,-0.0209,3.5263,-1.2441,-1.3231,-0.3943,-0.9822,0.2596,
3.375363,0.7377,-1.0465,-0.0209,3.5263,-1.2441,-1.3231,-0.4524,-0.6969,0.2449,
3.384751,0.7377,-1.0465,-0.0209,3.5263,-1.2441,-1.3231,-0.6766,-0.6480,0.1691,
3.390387,0.9093,-1.0706,-0.0055,3.5263,-1.2441,-1.3231,-0.6766,-0.6480,0.1691,
3.392882,0.9093,-1.0706,-0.0055,5.1676,-1.4797,-1.0265,-0.6766,-0.6480,0.1691,
3.394628,0.9093,-1.0706,-0.0055,5.1676,-1.4797,-1.0265,-0.9918,-0.6731,0.0409,
3.402998,0.9093,-1.0706,-0.0055,5.1676,-1.4797,-1.0265,-1.2954,-0.6261,-0.1259,
3.410290,0.8734,-1.0432,0.0491,5.1676,-1.4797,-1.0265,-1.2954,-0.6261,-0.1259,
3.412860,0.8734,-1.0432,0.0491,4.7215,-1.2278,-0.2420,-1.2954,-0.6261,-0.1259,
3.415501,0.8734,-1.0432,0.0491,4.7215,-1.2278,-0.2420,-1.5324,-0.4458,-0.2933,
3.422273,0.8734,-1.0432,0.0491,4.7215,-1.2278,-0.2420,-1.6277,-0.0402,-0.3916,
3.430502,0.4787,-0.9981,0.3505,4.7215,-1.2278,-0.2420,-1.6277,-0.0402,-0.3916,
3.433404,0.4787,-0.9981,0.3505,0.7347,-0.8204,2.9724,-1.6277,-0.0402,-0.3916,
3.435283,0.4787,-0.9981,0.3505,0.7347,-0.8204,2.9724,-1.5702,0.3709,-0.3110,
3.442038,0.4787,-0.9981,0.3505,0.7347,-0.8204,2.9724,-1.3845,0.6048,-0.0440,
3.450601,0.0997,-1.2578,0.9447,0.7347,-0.8204,2.9724,-1.3845,0.6048,-0.0440,
3.453745,0.0997,-1.2578,0.9447,-3.0105,-3.3740,8.9083,-1.3845,0.6048,-0.0440,
3.455575,0.0997,-1.2578,0.9447,-3.0105,-3.3740,8.9083,-0.6362,0.4063,0.4501,
3.461890,0.0997,-1.2578,0.9447,-3.0105,-3.3740,8.9083,-0.2257,0.2157,0.5748,
3.470343,-0.0404,-1.1765,0.5700,-3.0105,-3.3740,8.9083,-0.2257,0.2157,0.5748,
3.473020,-0.0404,-1.1765,0.5700,-4.2515,-2.5224,5.1587,-0.2257,0.2157,0.5748,
3.474256,-0.0404,-1.1765,0.5700,-4.2515,-2.5224,5.1587,-0.0486,0.4460,0.6255,
3.483217,-0.0404,-1.1765,0.5700,-4.2515,-2.5224,5.1587,0.0339,0.9103,0.5894,
3.489848,0.2566,-1.0116,-0.3486,-4.2515,-2.5224,5.1587,0.0339,0.9103,0.5894,
3.491448,0.2566,-1.0116,-0.3486,-1.1864,-0.8477,-3.9509,0.0339,0.9103,0.5894,
3.492870,0.2566,-1.0116,-0.3486,-1.1864,-0.8477,-3.9509,0.1304,1.1711,0.4630,
3.501662,0.2566,-1.0116,-0.3486,-1.1864,-0.8477,-3.9509,0.2532,1.0868,0.2938,
3.509902,0.2740,-1.0263,-0.2034,-1.1864,-0.8477,-3.9509,0.2532,1.0868,0.2938,
3.512175,0.2740,-1.0263,-0.2034,-0.9120,-0.9588,-2.6521,0.2532,1.0868,0.2938,
3.513173,0.2740,-1.0263,-0.2034,-0.9120,-0.9588,-2.6521,0.4022,0.7679,0.1380,
3.521254,0.2740,-1.0263,-0.2034,-0.9120,-0.9588,-2.6521,0.5818,0.3031,0.0409,
3.529663,0.4140,-0.9333,0.0807,-0.9120,-0.9588,-2.6521,0.5818,0.3031,0.0409,
3.531289,0.4140,-0.9333,0.0807,0.4922,-0.0441,0.0031,0.5818,0.3031,0.0409,
3.532443,0.4140,-0.9333,0.0807,0.4922,-0.0441,0.0031,0.7852,-0.2449,0.0323,
3.541278,0.4140,-0.9333,0.0807,0.4922,-0.0441,0.0031,0.9392,-0.6658,0.0060,
3.549576,0.5701,-0.8337,0.0900,0.4922,-0.0441,0.0031,0.9392,-0.6658,0.0060,
3.551330,0.5701,-0.8337,0.0900,2.0167,0.9178,-0.0302,0.9392,-0.6658,0.0060,
3.552181,0.5701,-0.8337,0.0900,2.0167,0.9178,-0.0302,1.0076,-0.7574,-0.0935,
3.561160,0.5701,-0.8337,0.0900,2.0167,0.9178,-0.0302,1.0296,-0.4501,-0.1980,
3.569514,0.4870,-0.6390,-0.1081,2.0167,0.9178,-0.0302,1.0296,-0.4501,-0.1980,
3.570621,0.4870,-0.6390,-0.1081,1.1490,2.7911,-2.0980,1.0296,-0.4501,-0.1980,
3.571681,0.4870,-0.6390,-0.1081,1.1490,2.7911,-2.0980,1.0479,0.2786,-0.2334,
3.582363,0.4870,-0.6390,-0.1081,1.1490,2.7911,-2.0980,1.0284,1.1534,-0.1943,
3.589553,0.5068,-0.7112,-0.4898,1.1490,2.7911,-2.0980,1.0284,1.1534,-0.1943,
3.590477,0.5068,-0.7112,-0.4898,1.2780,2.0393,-5.9852,1.0284,1.1534,-0.1943,
3.591977,0.5068,-0.7112,-0.4898,1.2780,2.0393,-5.9852,0.8323,1.6067,-0.1534,
3.601675,0.5068,-0.7112,-0.4898,1.2780,2.0393,-5.9852,0.3589,1.2970,-0.1852,
3.609945,0.4891,-1.1658,-0.5377,1.2780,2.0393,-5.9852,0.3589,1.2970,-0.1852,
3.611829,0.4891,-1.1658,-0.5377,1.0792,-2.4371,-6.5313,0.3589,1.2970,-0.1852,
3.613301,0.4891,-1.1658,-0.5377,1.0792,-2.4371,-6.5313,-0.2239,0.5450,-0.3165,
3.621519,0.4891,-1.1658,-0.5377,1.0792,-2.4371,-6.5313,-0.6515,-0.2351,-0.4301,
3.629891,0.2813,-1.2985,-0.2939,1.0792,-2.4371,-6.5313,-0.6515,-0.2351,-0.4301,
3.632083,0.2813,-1.2985,-0.2939,-1.0191,-3.7374,-3.9439,-0.6515,-0.2351,-0.4301,
3.633692,0.2813,-1.2985,-0.2939,-1.0191,-3.7374,-3.9439,-0.8262,-0.7385,-0.3977,
3.641703,0.2813,-1.2985,-0.2939,-1.0191,-3.7374,-3.9439,-0.8867,-1.1978,-0.0575,
3.650469,0.3236,-1.3197,-0.1441,-1.0191,-3.7374,-3.9439,-0.8867,-1.1978,-0.0575,
3.653215,0.3236,-1.3197,-0.1441,-0.6430,-3.9286,-2.1442,-0.8867,-1.1978,-0.0575,
3.655498,0.3236,-1.3197,-0.1441,-0.6430,-3.9286,-2.1442,-0.9557,-1.6059,0.0757,
3.661736,0.3236,-1.3197,-0.1441,-0.6430,-3.9286,-2.1442,-0.9484,-2.1972,0.1203,
3.670433,0.7566,-1.1368,0.7330,-0.6430,-3.9286,-2.1442,-0.9484,-2.1972,0.1203,
3.673432,0.7566,-1.1368,0.7330,3.5961,-2.1172,6.7694,-0.9484,-2.1972,0.1203,
3.675038,0.7566,-1.1368,0.7330,3.5961,-2.1172,6.7694,-0.6081,-2.5961,0.1013,
3.684143,0.7566,-1.1368,0.7330,3.5961,-2.1172,6.7694,-0.0260,-2.2986,0.0690,
3.690283,0.5068,-0.8342,0.2215,3.5961,-2.1172,6.7694,-0.0260,-2.2986,0.0690,
3.692508,0.5068,-0.8342,0.2215,1.1420,0.8532,1.9878,-0.0260,-2.2986,0.0690,
3.694103,0.5068,-0.8342,0.2215,1.1420,0.8532,1.9878,0.3204,-1.3475,0.0555,
3.702030,0.5068,-0.8342,0.2215,1.1420,0.8532,1.9878,0.2074,-0.2766,0.0531,
3.710234,0.2648,-0.8101,-0.1152,1.1420,0.8532,1.9878,0.2074,-0.2766,0.0531,
3.712541,0.2648,-0.8101,-0.1152,-1.2236,1.0918,-1.2983,0.2074,-0.2766,0.0531,
3.714342,0.2648,-0.8101,-0.1152,-1.2236,1.0918,-1.2983,-0.1585,0.6042,0.0464,
3.721921,0.2648,-0.8101,-0.1152,-1.2236,1.0918,-1.2983,-0.5080,1.2359,0.1087,
3.730254,0.1877,-0.9565,-0.1208,-1.2236,1.0918,-1.2983,-0.5080,1.2359,0.1087,
3.732730,0.1877,-0.9565,-0.1208,-1.9568,-0.3332,-1.3599,-0.5080,1.2359,0.1087,
3.734640,0.1877,-0.9565,-0.1208,-1.9568,-0.3332,-1.3599,-0.7236,1.6115,0.2473,
3.742118,0.1877,-0.9565,-0.1208,-1.9568,-0.3332,-1.3599,-0.8299,1.7099,0.3634,
3.751309,0.3582,-1.0191,-0.1687,-1.9568,-0.3332,-1.3599,-0.8299,1.7099,0.3634,
3.753060,0.3582,-1.0191,-0.1687,-0.2193,-0.9187,-1.8011,-0.8299,1.7099,0.3634,
3.755243,0.3582,-1.0191,-0.1687,-0.2193,-0.9187,-1.8011,-0.8635,1.4967,0.4275,
3.761928,0.3582,-1.0191,-0.1687,-0.2193,-0.9187,-1.8011,-0.8543,1.0025,0.4611,
3.770391,0.4505,-0.9522,-0.1147,-0.2193,-0.9187,-1.8011,-0.8543,1.0025,0.4611,
3.773407,0.4505,-0.9522,-0.1147,0.7701,-0.2275,-1.1942,-0.8543,1.0025,0.4611,
3.775425,0.4505,-0.9522,-0.1147,0.7701,-0.2275,-1.1942,-0.8256,0.4210,0.4605,
3.784424,0.4505,-0.9522,-0.1147,0.7701,-0.2275,-1.1942,-0.7902,-0.0158,0.4465,
3.790415,0.4200,-0.8227,-0.0193,0.7701,-0.2275,-1.1942,-0.7902,-0.0158,0.4465,
3.792798,0.4200,-0.8227,-0.0193,0.5496,1.0726,-0.1192,-0.7902,-0.0158,0.4465,
3.794823,0.4200,-0.8227,-0.0193,0.5496,1.0726,-0.1192,-0.7688,-0.2742,0.4385,
3.802142,0.4200,-0.8227,-0.0193,0.5496,1.0726,-0.1192,-0.7810,-0.5014,0.4306,
3.810407,0.4104,-0.7357,0.2464,0.5496,1.0726,-0.1192,-0.7810,-0.5014,0.4306,
3.812988,0.4104,-0.7357,0.2464,0.5249,1.9488,2.6429,-0.7810,-0.5014,0.4306,
3.815028,0.4104,-0.7357,0.2464,0.5249,1.9488,2.6429,-0.7828,-0.8399,0.4123,
3.822105,0.4104,-0.7357,0.2464,0.5249,1.9488,2.6429,-0.3449,-1.1404,0.3390,
3.830319,0.3963,-0.7060,0.5222,0.5249,1.9488,2.6429,-0.3449,-1.1404,0.3390,
3.833824,0.3963,-0.7060,0.5222,0.4275,2.2529,5.4334,-0.3449,-1.1404,0.3390,
3.835778,0.3963,-0.7060,0.5222,0.4275,2.2529,5.4334,0.0351,-0.9089,0.2791,
3.842087,0.3963,-0.7060,0.5222,0.4275,2.2529,5.4334,0.3302,-0.5008,0.2168,
3.851225,0.3578,-0.7725,0.0926,0.4275,2.2529,5.4334,0.3302,-0.5008,0.2168,
3.854794,0.3578,-0.7725,0.0926,0.0675,1.6099,1.1631,0.3302,-0.5008,0.2168,
3.856820,0.3578,-0.7725,0.0926,0.0675,1.6099,1.1631,0.4181,-0.0036,0.1936,
3.862108,0.3578,-0.7725,0.0926,0.0675,1.6099,1.1631,0.3369,0.5126,0.2089,
3.870523,0.3965,-0.6981,-0.0886,0.0675,1.6099,1.1631,0.3369,0.5126,0.2089,
3.873936,0.3965,-0.6981,-0.0886,0.4478,2.3419,-0.7364,0.3369,0.5126,0.2089,
3.875935,0.3965,-0.6981,-0.0886,0.4478,2.3419,-0.7364,0.2013,1.0098,0.2125,
3.882235,0.3965,-0.6981,-0.0886,0.4478,2.3419,-0.7364,0.0834,1.4338,0.1826,
3.891624,0.4599,-0.5716,-0.0104,0.4478,2.3419,-0.7364,0.0834,1.4338,0.1826,
3.894607,0.4599,-0.5716,-0.0104,1.0457,3.5742,-0.1068,0.0834,1.4338,0.1826,
3.896199,0.4599,-0.5716,-0.0104,1.0457,3.5742,-0.1068,0.0198,1.6677,0.1270,
3.904593,0.4599,-0.5716,-0.0104,1.0457,3.5742,-0.1068,0.0595,1.5315,0.0378,
3.909894,0.6352,-0.4472,0.4031,1.0457,3.5742,-0.1068,0.0595,1.5315,0.0378,
3.911252,0.6352,-0.4472,0.4031,2.6842,4.7606,3.7591,0.0595,1.5315,0.0378,
3.912878,0.6352,-0.4472,0.4031,2.6842,4.7606,3.7591,0.2978,0.7441,-0.0868,
3.921812,0.6352,-0.4472,0.4031,2.6842,4.7606,3.7591,0.7620,-0.4898,-0.2206,
3.930543,0.5013,-0.5889,0.1091,2.6842,4.7606,3.7591,0.7620,-0.4898,-0.2206,
3.932338,0.5013,-0.5889,0.1091,1.2462,3.3172,0.7149,0.7620,-0.4898,-0.2206,
3.933839,0.5013,-0.5889,0.1091,1.2462,3.3172,0.7149,1.1622,-0.9614,-0.2823,
3.941975,0.5013,-0.5889,0.1091,1.2462,3.3172,0.7149,1.2544,-0.2278,-0.2078,
3.949712,0.4474,-0.7348,-0.1648,1.2462,3.3172,0.7149,1.2544,-0.2278,-0.2078,
3.951345,0.4474,-0.7348,-0.1648,0.5862,1.8246,-2.1502,1.2544,-0.2278,-0.2078,
3.952545,0.4474,-0.7348,-0.1648,0.5862,1.8246,-2.1502,1.1108,0.8321,-0.1002,
3.961457,0.4474,-0.7348,-0.1648,0.5862,1.8246,-2.1502,0.8867,1.4155,-0.0611,
3.969637,0.4560,-0.7742,-0.0867,0.5862,1.8246,-2.1502,0.8867,1.4155,-0.0611,
3.971620,0.4560,-0.7742,-0.0867,0.6000,1.3905,-1.6273,0.8867,1.4155,-0.0611,
3.972691,0.4560,-0.7742,-0.0867,0.6000,1.3905,-1.6273,0.6515,1.2084,-0.0691,
3.981848,0.4560,-0.7742,-0.0867,0.6000,1.3905,-1.6273,0.4774,0.5395,-0.1100,
3.989485,0.3738,-0.7957,0.0048,0.6000,1.3905,-1.6273,0.4774,0.5395,-0.1100,
3.990665,0.3738,-0.7957,0.0048,-0.2559,1.1448,-0.8700,0.4774,0.5395,-0.1100,
3.991738,0.3738,-0.7957,0.0048,-0.2559,1.1448,-0.8700,0.4542,0.2621,-0.1155,
4.001469,0.3738,-0.7957,0.0048,-0.2559,1.1448,-0.8700,0.5397,0.4094,-0.0789,
4.009565,0.4586,-0.6605,0.0161,-0.2559,1.1448,-0.8700,0.5397,0.4094,-0.0789,
4.010421,0.4586,-0.6605,0.0161,0.5091,2.4321,-0.8400,0.5397,0.4094,-0.0789,
4.011310,0.4586,-0.6605,0.0161,0.5091,2.4321,-0.8400,0.6521,0.3409,-0.1369,
4.021200,0.4586,-0.6605,0.0161,0.5091,2.4321,-0.8400,0.7126,0.1510,-0.2352,
4.029563,0.5501,-0.5782,0.0934,0.5091,2.4321,-0.8400,0.7126,0.1510,-0.2352,
4.030442,0.5501,-0.5782,0.0934,1.3083,3.1812,-0.1954,0.7126,0.1510,-0.2352,
4.031619,0.5501,-0.5782,0.0934,1.3083,3.1812,-0.1954,0.8604,0.1192,-0.3794,
4.041110,0.5501,-0.5782,0.0934,1.3083,3.1812,-0.1954,1.1237,0.0123,-0.5847,
4.049617,0.7335,-0.7274,0.3480,1.3083,3.1812,-0.1954,1.1237,0.0123,-0.5847,
4.050948,0.7335,-0.7274,0.3480,2.9430,1.6159,2.1156,1.1237,0.0123,-0.5847,
4.052033,0.7335,-0.7274,0.3480,2.9430,1.6159,2.1156,1.4853,-0.4709,-0.8785,
4.061201,0.7335,-0.7274,0.3480,2.9430,1.6159,2.1156,1.8072,-0.8869,-1.2084,
4.069522,0.5496,-0.9881,0.1545,2.9430,1.6159,2.1156,1.8072,-0.8869,-1.2084,
4.070755,0.5496,-0.9881,0.1545,0.8990,-1.0961,-0.0018,1.8072,-0.8869,-1.2084,
4.071765,0.5496,-0.9881,0.1545,0.8990,-1.0961,-0.0018,1.9929,-0.9584,-1.4484,
4.081299,0.5496,-0.9881,0.1545,0.8990,-1.0961,-0.0018,1.9856,-0.6932,-1.5602,
4.089590,0.3893,-1.0941,0.2182,0.8990,-1.0961,-0.0018,1.9856,-0.6932,-1.5602,
4.090846,0.3893,-1.0941,0.2182,-0.9554,-2.3401,0.3633,1.9856,-0.6932,-1.5602,
4.093427,0.3893,-1.0941,0.2182,-0.9554,-2.3401,0.3633,1.9099,-0.4691,-1.5987,
4.102110,0.3893,-1.0941,0.2182,-0.9554,-2.3401,0.3633,1.9147,-0.5112,-1.6439,
4.110437,0.3925,-1.2248,0.3149,-0.9554,-2.3401,0.3633,1.9147,-0.5112,-1.6439,
4.112599,0.3925,-1.2248,0.3149,-1.1931,-3.8410,1.0487,1.9147,-0.5112,-1.6439,
4.114854,0.3925,-1.2248,0.3149,-1.1931,-3.8410,1.0487,1.9807,-0.5912,-1.7337,
4.122257,0.3925,-1.2248,0.3149,-1.1931,-3.8410,1.0487,2.0168,-0.5595,-1.8192,
4.130455,0.3395,-1.2320,0.2552,-1.1931,-3.8410,1.0487,2.0168,-0.5595,-1.8192,
4.133164,0.3395,-1.2320,0.2552,-1.9624,-4.1374,0.2190,2.0168,-0.5595,-1.8192,
4.135291,0.3395,-1.2320,0.2552,-1.9624,-4.1374,0.2190,1.9703,-0.4116,-1.8559,
4.142233,0.3395,-1.2320,0.2552,-1.9624,-4.1374,0.2190,1.8763,-0.2565,-1.8498,
4.153116,0.3342,-1.2006,0.2514,-1.9624,-4.1374,0.2190,1.8763,-0.2565,-1.8498,
4.155665,0.3342,-1.2006,0.2514,-2.2384,-4.0584,-0.0581,1.8763,-0.2565,-1.8498,
4.158684,0.3342,-1.2006,0.2514,-2.2384,-4.0584,-0.0581,1.7810,-0.1765,-1.8357,
4.162110,0.3342,-1.2006,0.2514,-2.2384,-4.0584,-0.0581,1.6991,-0.1490,-1.8162,
4.170410,0.3225,-1.2890,0.1544,-2.2384,-4.0584,-0.0581,1.6991,-0.1490,-1.8162,
4.173708,0.3225,-1.2890,0.1544,-2.5420,-5.1342,-1.2145,1.6991,-0.1490,-1.8162,
4.175964,0.3225,-1.2890,0.1544,-2.5420,-5.1342,-1.2145,1.5995,-0.1374,-1.7404,
4.182275,0.3225,-1.2890,0.1544,-2.5420,-5.1342,-1.2145,1.4096,-0.1282,-1.5853,
4.191817,0.4503,-1.3177,-0.0244,-2.5420,-5.1342,-1.2145,1.4096,-0.1282,-1.5853,
4.194897,0.4503,-1.3177,-0.0244,-1.4452,-5.5897,-3.1074,1.4096,-0.1282,-1.5853,
4.197101,0.4503,-1.3177,-0.0244,-1.4452,-5.5897,-3.1074,0.7914,-0.1746,-1.2340,
4.202532,0.4503,-1.3177,-0.0244,-1.4452,-5.5897,-3.1074,0.4981,-0.3218,-1.0495,
4.210386,0.6630,-1.2405,0.0188,-1.4452,-5.5897,-3.1074,0.4981,-0.3218,-1.0495,
4.213127,0.6630,-1.2405,0.0188,0.5422,-4.9073,-2.6702,0.4981,-0.3218,-1.0495,
4.216290,0.6630,-1.2405,0.0188,0.5422,-4.9073,-2.6702,0.2465,-0.4263,-0.9298,
4.222045,0.6630,-1.2405,0.0188,0.5422,-4.9073,-2.6702,0.0412,-0.3060,-0.8357,
4.230160,0.8120,-1.1110,0.4178,0.5422,-4.9073,-2.6702,0.0412,-0.3060,-0.8357,
4.233065,0.8120,-1.1110,0.4178,1.9205,-3.6762,1.3147,0.0412,-0.3060,-0.8357,
4.234835,0.8120,-1.1110,0.4178,1.9205,-3.6762,1.3147,-0.0767,-0.1166,-0.7722,
4.241962,0.8120,-1.1110,0.4178,1.9205,-3.6762,1.3147,-0.0901,0.0600,-0.7148,
4.251299,0.7052,-1.1320,0.4803,1.9205,-3.6762,1.3147,-0.0901,0.0600,-0.7148,
4.253798,0.7052,-1.1320,0.4803,0.8286,-3.9039,1.9711,-0.0901,0.0600,-0.7148,
4.255563,0.7052,-1.1320,0.4803,0.8286,-3.9039,1.9711,-0.0700,0.3043,-0.6500,
4.261777,0.7052,-1.1320,0.4803,0.8286,-3.9039,1.9711,-0.0718,0.5822,-0.6097,
4.270369,0.5652,-1.2666,0.2904,0.8286,-3.9039,1.9711,-0.0718,0.5822,-0.6097,
4.272974,0.5652,-1.2666,0.2904,-0.5414,-5.2275,0.0938,-0.0718,0.5822,-0.6097,
4.274479,0.5652,-1.2666,0.2904,-0.5414,-5.2275,0.0938,-0.1280,0.7936,-0.5865,
4.281865,0.5652,-1.2666,0.2904,-0.5414,-5.2275,0.0938,-0.2386,0.8785,-0.5034,
4.290058,0.3541,-1.1438,0.2894,-0.5414,-5.2275,0.0938,-0.2386,0.8785,-0.5034,
4.293550,0.3541,-1.1438,0.2894,-2.5625,-4.0038,0.0341,-0.2386,0.8785,-0.5034,
4.295486,0.3541,-1.1438,0.2894,-2.5625,-4.0038,0.0341,-0.3516,0.7985,-0.3971,
4.302113,0.3541,-1.1438,0.2894,-2.5625,-4.0038,0.0341,-0.4212,0.6384,-0.2395,
4.310342,0.2158,-0.8949,0.3872,-2.5625,-4.0038,0.0341,-0.4212,0.6384,-0.2395,
4.312910,0.2158,-0.8949,0.3872,-3.8327,-1.5023,0.9712,-0.4212,0.6384,-0.2395,
4.315237,0.2158,-0.8949,0.3872,-3.8327,-1.5023,0.9712,-0.4450,0.5065,-0.0526,
4.322119,0.2158,-0.8949,0.3872,-3.8327,-1.5023,0.9712,-0.4463,0.4955,0.1496,
4.330451,0.2564,-0.8068,0.3578,-3.8327,-1.5023,0.9712,-0.4463,0.4955,0.1496,
4.333436,0.2564,-0.8068,0.3578,-3.3074,-0.5356,0.6848,-0.4463,0.4955,0.1496,
4.335730,0.2564,-0.8068,0.3578,-3.3074,-0.5356,0.6848,-0.4346,0.5242,0.3243,
4.341988,0.2564,-0.8068,0.3578,-3.3074,-0.5356,0.6848,-0.4304,0.5358,0.4630,
4.352427,0.3188,-0.7621,0.2929,-3.3074,-0.5356,0.6848,-0.4304,0.5358,0.4630,
4.355274,0.3188,-0.7621,0.2929,-2.5221,0.0348,0.0451,-0.4304,0.5358,0.4630,
4.357539,0.3188,-0.7621,0.2929,-2.5221,0.0348,0.0451,-0.4298,0.5297,0.5662,
4.362064,0.3188,-0.7621,0.2929,-2.5221,0.0348,0.0451,-0.4456,0.5212,0.6352,
4.370329,0.3272,-0.7466,0.2700,-2.5221,0.0348,0.0451,-0.4456,0.5212,0.6352,
4.373385,0.3272,-0.7466,0.2700,-2.2433,0.3304,-0.1804,-0.4456,0.5212,0.6352,
4.375510,0.3272,-0.7466,0.2700,-2.2433,0.3304,-0.1804,-0.4811,0.5309,0.6982,
4.382206,0.3272,-0.7466,0.2700,-2.2433,0.3304,-0.1804,-0.5605,0.5010,0.7293,
4.390459,0.2830,-0.7245,0.2560,-2.2433,0.3304,-0.1804,-0.5605,0.5010,0.7293,
4.393625,0.2830,-0.7245,0.2560,-2.4680,0.6972,-0.3013,-0.5605,0.5010,0.7293,
4.395620,0.2830,-0.7245,0.2560,-2.4680,0.6972,-0.3013,-0.6075,0.4973,0.7690,
4.402491,0.2830,-0.7245,0.2560,-2.4680,0.6972,-0.3013,-0.6411,0.5004,0.8161,
4.410339,0.2808,-0.6492,0.2648,-2.4680,0.6972,-0.3013,-0.6411,0.5004,0.8161,
4.412725,0.2808,-0.6492,0.2648,-2.2768,1.5849,-0.1828,-0.6411,0.5004,0.8161,
4.414721,0.2808,-0.6492,0.2648,-2.2768,1.5849,-0.1828,-0.6674,0.5010,0.8747,
4.422198,0.2808,-0.6492,0.2648,-2.2768,1.5849,-0.1828,-0.6888,0.4845,0.9230,
4.430435,0.3418,-0.6165,0.2568,-2.2768,1.5849,-0.1828,-0.6888,0.4845,0.9230,
4.433320,0.3418,-0.6165,0.2568,-1.4752,2.0471,-0.2157,-0.6888,0.4845,0.9230,
4.435622,0.3418,-0.6165,0.2568,-1.4752,2.0471,-0.2157,-0.7047,0.4686,0.9541,
4.442228,0.3418,-0.6165,0.2568,-1.4752,2.0471,-0.2157,-0.7364,0.4814,0.9504,
4.452418,0.4229,-0.5964,0.2121,-1.4752,2.0471,-0.2157,-0.7364,0.4814,0.9504,
4.455239,0.4229,-0.5964,0.2121,-0.4917,2.3758,-0.5881,-0.7364,0.4814,0.9504,
4.457675,0.4229,-0.5964,0.2121,-0.4917,2.3758,-0.5881,-0.7926,0.5212,0.9065,
4.461989,0.4229,-0.5964,0.2121,-0.4917,2.3758,-0.5881,-0.8592,0.5810,0.8527,
4.470309,0.4600,-0.5825,0.1891,-0.4917,2.3758,-0.5881,-0.8592,0.5810,0.8527,
4.473124,0.4600,-0.5825,0.1891,0.0441,2.6316,-0.7308,-0.8592,0.5810,0.8527,
4.475330,0.4600,-0.5825,0.1891,0.0441,2.6316,-0.7308,-0.9282,0.6299,0.8081,
4.482207,0.4600,-0.5825,0.1891,0.0441,2.6316,-0.7308,-0.9893,0.6592,0.7605,
4.490528,0.4565,-0.5773,0.2075,0.0441,2.6316,-0.7308,-0.9893,0.6592,0.7605,
4.493695,0.4565,-0.5773,0.2075,0.1577,2.7896,-0.4542,-0.9893,0.6592,0.7605,
4.495490,0.4565,-0.5773,0.2075,0.1577,2.7896,-0.4542,-1.0296,0.6653,0.7055,
4.502637,0.4565,-0.5773,0.2075,0.1577,2.7896,-0.4542,-1.0547,0.6207,0.6407,
4.510349,0.4118,-0.5690,0.2304,0.1577,2.7896,-0.4542,-1.0547,0.6207,0.6407,
4.512417,0.4118,-0.5690,0.2304,-0.1644,2.9595,-0.1245,-1.0547,0.6207,0.6407,
4.514419,0.4118,-0.5690,0.2304,-0.1644,2.9595,-0.1245,-1.0675,0.5150,0.5772,
4.522083,0.4118,-0.5690,0.2304,-0.1644,2.9595,-0.1245,-1.0718,0.4014,0.5235,
4.530366,0.3630,-0.5739,0.2547,-0.1644,2.9595,-0.1245,-1.0718,0.4014,0.5235,
4.532945,0.3630,-0.5739,0.2547,-0.5627,2.9816,0.2295,-1.0718,0.4014,0.5235,
4.535216,0.3630,-0.5739,0.2547,-0.5627,2.9816,0.2295,-1.0712,0.3324,0.4782,
4.542138,0.3630,-0.5739,0.2547,-0.5627,2.9816,0.2295,-1.0559,0.2615,0.4239,
4.553149,0.3255,-0.5783,0.2685,-0.5627,2.9816,0.2295,-1.0559,0.2615,0.4239,
4.556026,0.3255,-0.5783,0.2685,-0.8748,2.9944,0.4809,-1.0559,0.2615,0.4239,
4.558431,0.3255,-0.5783,0.2685,-0.8748,2.9944,0.4809,-1.0302,0.2072,0.3671,
4.562066,0.3255,-0.5783,0.2685,-0.8748,2.9944,0.4809,-0.9240,0.2402,0.2785,
4.570272,0.3127,-0.5774,0.2340,-0.8748,2.9944,0.4809,-0.9240,0.2402,0.2785,
4.573346,0.3127,-0.5774,0.2340,-0.9676,3.0429,0.2457,-0.9240,0.2402,0.2785,
4.575341,0.3127,-0.5774,0.2340,-0.9676,3.0429,0.2457,-0.8690,0.2646,0.2357,
4.581865,0.3127,-0.5774,0.2340,-0.9676,3.0429,0.2457,-0.8207,0.2176,0.1838,
4.590121,0.3381,-0.6232,0.1273,-0.9676,3.0429,0.2457,-0.8207,0.2176,0.1838,
4.592605,0.3381,-0.6232,0.1273,-0.6982,2.6258,-0.7029,-0.8207,0.2176,0.1838,
4.594880,0.3381,-0.6232,0.1273,-0.6982,2.6258,-0.7029,-0.7798,0.0789,0.1380,
4.602061,0.3381,-0.6232,0.1273,-0.6982,2.6258,-0.7029,-0.7425,-0.1404,0.1068,
4.610070,0.4108,-0.7037,0.1835,-0.6982,2.6258,-0.7029,-0.7425,-0.1404,0.1068,
4.613135,0.4108,-0.7037,0.1835,0.0092,1.8585,-0.0422,-0.7425,-0.1404,0.1068,
4.614661,0.4108,-0.7037,0.1835,0.0092,1.8585,-0.0422,-0.7016,-0.4153,0.0806,
4.622016,0.4108,-0.7037,0.1835,0.0092,1.8585,-0.0422,-0.6497,-0.6932,0.0586,
4.630364,0.5339,-0.7900,0.2922,0.0092,1.8585,-0.0422,-0.6497,-0.6932,0.0586,
4.633255,0.5339,-0.7900,0.2922,1.1732,1.0188,1.1467,-0.6497,-0.6932,0.0586,
4.635157,0.5339,-0.7900,0.2922,1.1732,1.0188,1.1467,-0.5880,-0.9193,0.0592,
4.641921,0.5339,-0.7900,0.2922,1.1732,1.0188,1.1467,-0.5422,-1.0677,0.0702,
4.652853,0.6910,-0.8288,0.3098,1.1732,1.0188,1.1467,-0.5422,-1.0677,0.0702,
4.655137,0.6910,-0.8288,0.3098,2.6388,0.6283,1.4505,-0.5422,-1.0677,0.0702,
4.656761,0.6910,-0.8288,0.3098,2.6388,0.6283,1.4505,-0.5324,-1.1325,0.0671,
4.661633,0.6910,-0.8288,0.3098,2.6388,0.6283,1.4505,-0.5489,-1.1734,0.0396,
4.670055,0.7274,-0.8601,0.4030,2.6388,0.6283,1.4505,-0.5489,-1.1734,0.0396,
4.672679,0.7274,-0.8601,0.4030,2.9100,0.3031,2.4911,-0.5489,-1.1734,0.0396,
4.674175,0.7274,-0.8601,0.4030,2.9100,0.3031,2.4911,-0.5403,-1.1832,-0.0056,
4.681711,0.7274,-0.8601,0.4030,2.9100,0.3031,2.4911,-0.4792,-1.0598,-0.0514,
4.690038,0.6601,-0.9453,0.3296,2.9100,0.3031,2.4911,-0.4792,-1.0598,-0.0514,
4.692395,0.6601,-0.9453,0.3296,2.1602,-0.5574,1.8911,-0.4792,-1.0598,-0.0514,
4.693909,0.6601,-0.9453,0.3296,2.1602,-0.5574,1.8911,-0.4249,-0.8643,-0.0764,
4.702198,0.6601,-0.9453,0.3296,2.1602,-0.5574,1.8911,-0.4524,-0.7702,-0.0587,
4.710318,0.6352,-0.9469,0.3098,2.1602,-0.5574,1.8911,-0.4524,-0.7702,-0.0587,
4.712314,0.6352,-0.9469,0.3098,1.8356,-0.6008,1.7799,-0.4524,-0.7702,-0.0587,
4.714289,0.6352,-0.9469,0.3098,1.8356,-0.6008,1.7799,-0.5165,-0.8227,0.0060,
4.722094,0.6352,-0.9469,0.3098,1.8356,-0.6008,1.7799,-0.5165,-0.9455,0.0928,
4.730375,0.7749,-0.8729,0.3244,1.8356,-0.6008,1.7799,-0.5165,-0.9455,0.0928,
4.733114,0.7749,-0.8729,0.3244,3.1360,0.1033,2.0237,-0.5165,-0.9455,0.0928,
4.735719,0.7749,-0.8729,0.3244,3.1360,0.1033,2.0237,-0.4597,-1.0799,0.1496,
4.742140,0.7749,-0.8729,0.3244,3.1360,0.1033,2.0237,-0.3852,-1.3676,0.0977,
4.754398,0.9629,-0.8775,0.3727,3.1360,0.1033,2.0237,-0.3852,-1.3676,0.0977,
4.757417,0.9629,-0.8775,0.3727,4.9000,0.0310,2.6066,-0.3852,-1.3676,0.0977,
4.761238,0.9629,-0.8775,0.3727,4.9000,0.0310,2.6066,-0.3681,-1.3579,-0.0092,
4.763444,0.9629,-0.8775,0.3727,4.9000,0.0310,2.6066,-0.4114,-1.1184,-0.1699,
4.771571,0.8752,-0.9361,0.1682,4.9000,0.0310,2.6066,-0.4114,-1.1184,-0.1699,
4.774070,0.8752,-0.9361,0.1682,3.9263,-0.5894,0.7237,-0.4114,-1.1184,-0.1699,
4.775692,0.8752,-0.9361,0.1682,3.9263,-0.5894,0.7237,-0.5513,-0.5925,-0.3171,
4.781590,0.8752,-0.9361,0.1682,3.9263,-0.5894,0.7237,-0.6039,0.3880,-0.3538,
4.789922,0.3046,-1.0087,0.8168,3.9263,-0.5894,0.7237,-0.6039,0.3880,-0.3538,
4.792147,0.3046,-1.0087,0.8168,-1.7556,-1.3515,7.0780,-0.6039,0.3880,-0.3538,
4.793483,0.3046,-1.0087,0.8168,-1.7556,-1.3515,7.0780,-0.3626,1.1015,-0.2609,
4.801826,0.3046,-1.0087,0.8168,-1.7556,-1.3515,7.0780,0.0944,0.9304,-0.1925,
4.809958,0.4262,-0.8824,0.4699,-1.7556,-1.3515,7.0780,0.0944,0.9304,-0.1925,
4.811559,0.4262,-0.8824,0.4699,-0.5980,-0.1545,3.4932,0.0944,0.9304,-0.1925,
4.813077,0.4262,-0.8824,0.4699,-0.5980,-0.1545,3.4932,0.5776,0.6867,-0.2261,
4.821636,0.4262,-0.8824,0.4699,-0.5980,-0.1545,3.4932,0.8854,1.1436,-0.3214,
4.829923,0.3578,-0.8670,-0.3799,-0.5980,-0.1545,3.4932,0.8854,1.1436,-0.3214,
4.831548,0.3578,-0.8670,-0.3799,-1.2933,-0.0502,-5.0591,0.8854,1.1436,-0.3214,
4.833252,0.3578,-0.8670,-0.3799,-1.2933,-0.0502,-5.0591,0.8573,1.9298,-0.4197,
4.841834,0.3578,-0.8670,-0.3799,-1.2933,-0.0502,-5.0591,0.6026,2.3880,-0.4539,
4.851716,0.2746,-0.9475,-0.4198,-1.2933,-0.0502,-5.0591,0.6026,2.3880,-0.4539,
4.853669,0.2746,-0.9475,-0.4198,-2.1041,-0.8873,-5.7390,0.6026,2.3880,-0.4539,
4.855241,0.2746,-0.9475,-0.4198,-2.1041,-0.8873,-5.7390,0.3271,2.4429,-0.4130,
4.861492,0.2746,-0.9475,-0.4198,-2.1041,-0.8873,-5.7390,0.1414,2.2945,-0.3134,
4.869986,0.3345,-1.0643,-0.4671,-2.1041,-0.8873,-5.7390,0.1414,2.2945,-0.3134,
4.872846,0.3345,-1.0643,-0.4671,-1.4703,-2.0365,-6.3582,0.1414,2.2945,-0.3134,
4.874658,0.3345,-1.0643,-0.4671,-1.4703,-2.0365,-6.3582,-0.0101,1.9610,-0.1870,
4.881791,0.3345,-1.0643,-0.4671,-1.4703,-2.0365,-6.3582,-0.1897,1.5254,-0.1100,
4.890192,0.3963,-1.1939,-0.4818,-1.4703,-2.0365,-6.3582,-0.1897,1.5254,-0.1100,
4.892859,0.3963,-1.1939,-0.4818,-0.7956,-3.2686,-6.5048,-0.1897,1.5254,-0.1100,
4.894471,0.3963,-1.1939,-0.4818,-0.7956,-3.2686,-6.5048,-0.3968,1.1400,-0.0911,
4.902241,0.3963,-1.1939,-0.4818,-0.7956,-3.2686,-6.5048,-0.6313,0.7875,-0.0618,
4.910098,0.4258,-1.3880,-0.3336,-0.7956,-3.2686,-6.5048,-0.6313,0.7875,-0.0618,
4.912191,0.4258,-1.3880,-0.3336,-0.4462,-5.1092,-4.9103,-0.6313,0.7875,-0.0618,
4.913879,0.4258,-1.3880,-0.3336,-0.4462,-5.1092,-4.9103,-0.8904,0.2921,0.0140,
4.922323,0.4258,-1.3880,-0.3336,-0.4462,-5.1092,-4.9103,-1.0712,-0.2895,0.1032,
4.930383,0.4092,-1.3023,-0.0386,-0.4462,-5.1092,-4.9103,-1.0712,-0.2895,0.1032,
4.933293,0.4092,-1.3023,-0.0386,-0.5535,-4.1894,-1.7380,-1.0712,-0.2895,0.1032,
4.935650,0.4092,-1.3023,-0.0386,-0.5535,-4.1894,-1.7380,-0.9930,-0.7568,0.2308,
4.942100,0.4092,-1.3023,-0.0386,-0.5535,-4.1894,-1.7380,-0.9630,-0.5674,0.3121,
4.953621,0.3409,-1.1873,-0.0872,-0.5535,-4.1894,-1.7380,-0.9630,-0.5674,0.3121,
4.956326,0.3409,-1.1873,-0.0872,-1.1419,-2.9758,-1.8920,-0.9630,-0.5674,0.3121,
4.958590,0.3409,-1.1873,-0.0872,-1.1419,-2.9758,-1.8920,-1.0406,-0.2724,0.4025,
4.961848,0.3409,-1.1873,-0.0872,-1.1419,-2.9758,-1.8920,-1.1958,-0.1697,0.4746,
4.970010,0.6037,-1.3748,0.0408,-1.1419,-2.9758,-1.8920,-1.1958,-0.1697,0.4746,
4.972770,0.6037,-1.3748,0.0408,1.5433,-4.7286,-0.3602,-1.1958,-0.1697,0.4746,
4.974166,0.6037,-1.3748,0.0408,1.5433,-4.7286,-0.3602,-1.3668,-0.5149,0.5118,
4.981636,0.6037,-1.3748,0.0408,1.5433,-4.7286,-0.3602,-1.3656,-1.1777,0.5198,
4.989989,0.6736,-1.2152,0.5763,1.5433,-4.7286,-0.3602,-1.3656,-1.1777,0.5198,
4.992749,0.6736,-1.2152,0.5763,2.3170,-3.0987,5.1979,-1.3656,-1.1777,0.5198,
4.994027,0.6736,-1.2152,0.5763,2.3170,-3.0987,5.1979,-1.0150,-1.7726,0.4923,
5.002073,0.6736,-1.2152,0.5763,2.3170,-3.0987,5.1979,-0.4182,-1.7378,0.4611,
5.009948,0.4084,-0.8878,0.1713,2.3170,-3.0987,5.1979,-0.4182,-1.7378,0.4611,
5.011567,0.4084,-0.8878,0.1713,-0.2008,0.1579,1.4903,-0.4182,-1.7378,0.4611,
5.012753,0.4084,-0.8878,0.1713,-0.2008,0.1579,1.4903,0.0241,-0.9938,0.3836,
5.021954,0.4084,-0.8878,0.1713,-0.2008,0.1579,1.4903,0.1206,-0.1300,0.2883,
5.030462,0.2643,-0.8277,-0.1443,-0.2008,0.1579,1.4903,0.1206,-0.1300,0.2883,
5.033190,0.2643,-0.8277,-0.1443,-1.5473,0.7780,-1.5704,0.1206,-0.1300,0.2883,
5.035442,0.2643,-0.8277,-0.1443,-1.5473,0.7780,-1.5704,-0.0309,0.4515,0.2553,
5.042160,0.2643,-0.8277,-0.1443,-1.5473,0.7780,-1.5704,-0.2960,0.6714,0.2938,
5.052943,0.2852,-0.8855,-0.2155,-1.5473,0.7780,-1.5704,-0.2960,0.6714,0.2938,
5.055813,0.2852,-0.8855,-0.2155,-1.2804,0.2403,-2.2762,-0.2960,0.6714,0.2938,
5.058128,0.2852,-0.8855,-0.2155,-1.2804,0.2403,-2.2762,-0.5458,0.7075,0.3762,
5.062019,0.2852,-0.8855,-0.2155,-1.2804,0.2403,-2.2762,-0.7047,0.7001,0.4642,
5.070286,0.3364,-0.8563,-0.1931,-1.2804,0.2403,-2.2762,-0.7047,0.7001,0.4642,
5.073197,0.3364,-0.8563,-0.1931,-0.6907,0.5672,-1.9821,-0.7047,0.7001,0.4642,
5.075449,0.3364,-0.8563,-0.1931,-0.6907,0.5672,-1.9821,-0.7609,0.6305,0.5338,
5.082070,0.3364,-0.8563,-0.1931,-0.6907,0.5672,-1.9821,-0.7468,0.4527,0.5668,
5.090661,0.3985,-0.7818,-0.1502,-0.6907,0.5672,-1.9821,-0.7468,0.4527,0.5668,
5.093341,0.3985,-0.7818,-0.1502,0.0198,1.3428,-1.4465,-0.7468,0.4527,0.5668,
5.096260,0.3985,-0.7818,-0.1502,0.0198,1.3428,-1.4465,-0.7004,0.2163,0.5650,
5.103235,0.3985,-0.7818,-0.1502,0.0198,1.3428,-1.4465,-0.6454,-0.0274,0.5375,
5.110678,0.3959,-0.7321,-0.0850,0.0198,1.3428,-1.4465,-0.6454,-0.0274,0.5375,
5.113033,0.3959,-0.7321,-0.0850,0.0901,1.8692,-0.6749,-0.6454,-0.0274,0.5375,
5.114778,0.3959,-0.7321,-0.0850,0.0901,1.8692,-0.6749,-0.5843,-0.5283,0.4569,
5.122171,0.3959,-0.7321,-0.0850,0.0901,1.8692,-0.6749,-0.5825,-0.7953,0.3915,
5.130493,0.4136,-0.8205,0.0723,0.0901,1.8692,-0.6749,-0.5825,-0.7953,0.3915,
5.133189,0.4136,-0.8205,0.0723,0.3383,1.0293,1.0246,-0.5825,-0.7953,0.3915,
5.135407,0.4136,-0.8205,0.0723,0.3383,1.0293,1.0246,-0.5312,-1.0384,0.3249,
5.142291,0.4136,-0.8205,0.0723,0.3383,1.0293,1.0246,-0.3449,-1.2271,0.2791,
5.152962,0.4417,-0.8021,0.4587,0.3383,1.0293,1.0246,-0.3449,-1.2271,0.2791,
5.155580,0.4417,-0.8021,0.4587,0.6535,1.2218,4.9207,-0.3449,-1.2271,0.2791,
5.157883,0.4417,-0.8021,0.4587,0.6535,1.2218,4.9207,-0.0003,-1.2925,0.2675,
5.162258,0.4417,-0.8021,0.4587,0.6535,1.2218,4.9207,0.3729,-1.0934,0.2797,
5.170441,0.4174,-0.6240,0.1860,0.6535,1.2218,4.9207,0.3729,-1.0934,0.2797,
5.173913,0.4174,-0.6240,0.1860,0.4369,2.9767,2.2311,0.3729,-1.0934,0.2797,
5.175947,0.4174,-0.6240,0.1860,0.4369,2.9767,2.2311,0.5886,-0.6798,0.2669,
5.182180,0.4174,-0.6240,0.1860,0.4369,2.9767,2.2311,0.6197,-0.2699,0.2101,
5.190576,0.3975,-0.5567,0.0485,0.4369,2.9767,2.2311,0.6197,-0.2699,0.2101,
5.193866,0.3975,-0.5567,0.0485,0.2383,3.6399,0.7482,0.6197,-0.2699,0.2101,
5.195623,0.3975,-0.5567,0.0485,0.2383,3.6399,0.7482,0.5592,0.0569,0.1539,
5.203174,0.3975,-0.5567,0.0485,0.2383,3.6399,0.7482,0.5055,0.2701,0.1282,
5.210403,0.4744,-0.5548,0.0501,0.2383,3.6399,0.7482,0.5055,0.2701,0.1282,
5.213184,0.4744,-0.5548,0.0501,0.9511,3.6445,0.6065,0.5055,0.2701,0.1282,
5.215089,0.4744,-0.5548,0.0501,0.9511,3.6445,0.6065,0.4884,0.3690,0.1221,
5.222170,0.4744,-0.5548,0.0501,0.9511,3.6445,0.6065,0.5085,0.3831,0.1038,
5.230454,0.5668,-0.5461,0.0978,0.9511,3.6445,0.6065,0.5085,0.3831,0.1038,
5.232846,0.5668,-0.5461,0.0978,1.7886,3.7024,0.9123,0.5085,0.3831,0.1038,
5.235042,0.5668,-0.5461,0.0978,1.7886,3.7024,0.9123,0.5611,0.3269,0.0647,
5.242248,0.5668,-0.5461,0.0978,1.7886,3.7024,0.9123,0.6441,0.2029,0.0018,
5.250630,0.6549,-0.5377,0.2388,1.7886,3.7024,0.9123,0.6441,0.2029,0.0018,
5.253492,0.6549,-0.5377,0.2388,2.5492,3.7388,2.1077,0.6441,0.2029,0.0018,
5.255434,0.6549,-0.5377,0.2388,2.5492,3.7388,2.1077,0.7828,-0.0500,-0.0880,
5.262312,0.6549,-0.5377,0.2388,2.5492,3.7388,2.1077,0.9764,-0.4678,-0.2096,
5.270504,0.6347,-0.6572,0.0778,2.5492,3.7388,2.1077,0.9764,-0.4678,-0.2096,
5.274030,0.6347,-0.6572,0.0778,2.2131,2.5008,0.3513,0.9764,-0.4678,-0.2096,
5.276194,0.6347,-0.6572,0.0778,2.2131,2.5008,0.3513,1.0962,-0.6688,-0.3476,
5.282125,0.6347,-0.6572,0.0778,2.2131,2.5008,0.3513,1.0717,-0.4385,-0.4387,
5.291050,0.4845,-0.7255,0.0264,2.2131,2.5008,0.3513,1.0717,-0.4385,-0.4387,
5.293733,0.4845,-0.7255,0.0264,0.5764,1.7467,-0.3220,1.0717,-0.4385,-0.4387,
5.295337,0.4845,-0.7255,0.0264,0.5764,1.7467,-0.3220,1.0033,-0.1141,-0.4100,
5.303776,0.4845,-0.7255,0.0264,0.5764,1.7467,-0.3220,0.9264,-0.0555,-0.3446,
5.310518,0.3636,-0.7492,0.0281,0.5764,1.7467,-0.3220,0.9264,-0.0555,-0.3446,
5.313300,0.3636,-0.7492,0.0281,-0.7350,1.4405,-0.4740,0.9264,-0.0555,-0.3446,
5.315551,0.3636,-0.7492,0.0281,-0.7350,1.4405,-0.4740,0.8940,0.0373,-0.2621,
5.321954,0.3636,-0.7492,0.0281,-0.7350,1.4405,-0.4740,0.8781,0.3697,-0.1644,
5.330171,0.4609,-0.6590,0.0012,-0.7350,1.4405,-0.4740,0.8781,0.3697,-0.1644,
5.332242,0.4609,-0.6590,0.0012,0.1322,2.2661,-0.9001,0.8781,0.3697,-0.1644,
5.334311,0.4609,-0.6590,0.0012,0.1322,2.2661,-0.9001,0.8671,0.5560,-0.0874,
5.342035,0.4609,-0.6590,0.0012,0.1322,2.2661,-0.9001,0.8463,0.3452,-0.1161,
5.350394,0.7090,-0.7478,0.0717,0.1322,2.2661,-0.9001,0.8463,0.3452,-0.1161,
5.352441,0.7090,-0.7478,0.0717,2.4859,1.3366,-0.3810,0.8463,0.3452,-0.1161,
5.354230,0.7090,-0.7478,0.0717,2.4859,1.3366,-0.3810,0.8524,0.0117,-0.2719,
5.362453,0.7090,-0.7478,0.0717,2.4859,1.3366,-0.3810,0.9294,-0.1813,-0.4875,
5.370818,0.7994,-0.8346,0.3163,2.4859,1.3366,-0.3810,0.9294,-0.1813,-0.4875,
5.375890,0.7994,-0.8346,0.3163,3.2314,0.3925,1.8641,0.9294,-0.1813,-0.4875,
5.378138,0.7994,-0.8346,0.3163,3.2314,0.3925,1.8641,1.1188,-0.5344,-0.7093,
5.382115,0.7994,-0.8346,0.3163,3.2314,0.3925,1.8641,1.4554,-1.3371,-0.9481,
5.390211,0.7003,-0.8117,0.4378,3.2314,0.3925,1.8641,1.4554,-1.3371,-0.9481,
5.392746,0.7003,-0.8117,0.4378,2.0359,0.4667,2.8944,1.4554,-1.3371,-0.9481,
5.394399,0.7003,-0.8117,0.4378,2.0359,0.4667,2.8944,1.8396,-2.0249,-1.1992,
5.402688,0.7003,-0.8117,0.4378,2.0359,0.4667,2.8944,2.1096,-2.0200,-1.4301,
5.410103,0.6872,-0.9304,0.4898,2.0359,0.4667,2.8944,2.1096,-2.0200,-1.4301,
5.412186,0.6872,-0.9304,0.4898,1.5942,-0.9158,3.2313,2.1096,-2.0200,-1.4301,
5.413868,0.6872,-0.9304,0.4898,1.5942,-0.9158,3.2313,2.2782,-1.7403,-1.6671,
5.422708,0.6872,-0.9304,0.4898,1.5942,-0.9158,3.2313,2.3472,-1.4220,-1.9127,
5.429726,0.6554,-1.1402,0.5030,1.5942,-0.9158,3.2313,2.3472,-1.4220,-1.9127,
5.431027,0.6554,-1.1402,0.5030,0.9382,-3.2480,3.1195,2.3472,-1.4220,-1.9127,
5.432114,0.6554,-1.1402,0.5030,0.9382,-3.2480,3.1195,2.3222,-0.9981,-2.1192,
5.441259,0.6554,-1.1402,0.5030,0.9382,-3.2480,3.1195,2.2550,-0.5295,-2.2841,
5.449790,0.5011,-1.2682,0.3959,0.9382,-3.2480,3.1195,2.2550,-0.5295,-2.2841,
5.451198,0.5011,-1.2682,0.3959,-0.9147,-4.8254,1.7745,2.2550,-0.5295,-2.2841,
5.452473,0.5011,-1.2682,0.3959,-0.9147,-4.8254,1.7745,2.2025,-0.1282,-2.3824,
5.461318,0.5011,-1.2682,0.3959,-0.9147,-4.8254,1.7745,2.1860,0.1223,-2.3867,
5.469648,0.3393,-1.3566,0.2144,-0.9147,-4.8254,1.7745,2.1860,0.1223,-2.3867,
5.471265,0.3393,-1.3566,0.2144,-2.7794,-6.0172,-0.3350,2.1860,0.1223,-2.3867,
5.472926,0.3393,-1.3566,0.2144,-2.7794,-6.0172,-0.3350,2.1469,0.1760,-2.2963,
5.481616,0.3393,-1.3566,0.2144,-2.7794,-6.0172,-0.3350,1.9019,0.2206,-1.8638,
5.490023,0.3279,-1.3809,0.1266,-2.7794,-6.0172,-0.3350,1.9019,0.2206,-1.8638,
5.492582,0.3279,-1.3809,0.1266,-3.0804,-6.5236,-1.4854,1.9019,0.2206,-1.8638,
5.493914,0.3279,-1.3809,0.1266,-3.0804,-6.5236,-1.4854,1.7199,0.3232,-1.6024,
5.502815,0.3279,-1.3809,0.1266,-3.0804,-6.5236,-1.4854,1.4945,0.3513,-1.3415,
5.509904,0.4173,-1.1333,-0.0232,-3.0804,-6.5236,-1.4854,1.4945,0.3513,-1.3415,
5.511596,0.4173,-1.1333,-0.0232,-2.2902,-4.2623,-3.1645,1.4945,0.3513,-1.3415,
5.513412,0.4173,-1.1333,-0.0232,-2.2902,-4.2623,-3.1645,1.2367,0.2896,-1.1204,
5.521906,0.4173,-1.1333,-0.0232,-2.2902,-4.2623,-3.1645,0.9374,0.2194,-0.9524,
5.529964,0.6149,-1.0855,0.1533,-2.2902,-4.2623,-3.1645,0.9374,0.2194,-0.9524,
5.531935,0.6149,-1.0855,0.1533,-0.3916,-3.8811,-1.5528,0.9374,0.2194,-0.9524,
5.533769,0.6149,-1.0855,0.1533,-0.3916,-3.8811,-1.5528,0.6997,0.1406,-0.8241,
5.541736,0.6149,-1.0855,0.1533,-0.3916,-3.8811,-1.5528,0.5354,0.0483,-0.7258,
5.550318,0.8843,-1.1964,0.3580,-0.3916,-3.8811,-1.5528,0.5354,0.0483,-0.7258,
5.552587,0.8843,-1.1964,0.3580,2.2190,-5.0147,0.4119,0.5354,0.0483,-0.7258,
5.554226,0.8843,-1.1964,0.3580,2.2190,-5.0147,0.4119,0.4181,0.0740,-0.6604,
5.561793,0.8843,-1.1964,0.3580,2.2190,-5.0147,0.4119,0.3027,0.2353,-0.6225,
5.569995,0.8453,-1.2794,0.3870,2.2190,-5.0147,0.4119,0.3027,0.2353,-0.6225,
5.574670,0.8453,-1.2794,0.3870,1.8233,-5.8525,0.6733,0.3027,0.2353,-0.6225,
5.576800,0.8453,-1.2794,0.3870,1.8233,-5.8525,0.6733,0.1701,0.3813,-0.5718,
5.581931,0.8453,-1.2794,0.3870,1.8233,-5.8525,0.6733,0.0626,0.3849,-0.4484,
5.591810,0.4355,-1.0108,0.3716,1.8233,-5.8525,0.6733,0.0626,0.3849,-0.4484,
5.594147,0.4355,-1.0108,0.3716,-2.1662,-3.2089,0.4914,0.0626,0.3849,-0.4484,
5.597194,0.4355,-1.0108,0.3716,-2.1662,-3.2089,0.4914,0.0626,0.2603,-0.2414,
5.604341,0.4355,-1.0108,0.3716,-2.1662,-3.2089,0.4914,-0.0736,0.1632,-0.0019,
5.610629,0.2244,-0.8259,0.3475,-2.1662,-3.2089,0.4914,-0.0736,0.1632,-0.0019,
5.613333,0.2244,-0.8259,0.3475,-4.1545,-1.3233,0.2491,-0.0736,0.1632,-0.0019,
5.615261,0.2244,-0.8259,0.3475,-4.1545,-1.3233,0.2491,-0.1402,0.1497,0.2571,
5.622124,0.2244,-0.8259,0.3475,-4.1545,-1.3233,0.2491,-0.2227,0.2566,0.5002,
5.630453,0.1974,-0.7615,0.3133,-4.1545,-1.3233,0.2491,-0.2227,0.2566,0.5002,
5.632513,0.1974,-0.7615,0.3133,-4.2634,-0.5458,-0.0779,-0.2227,0.2566,0.5002,
5.634859,0.1974,-0.7615,0.3133,-4.2634,-0.5458,-0.0779,-0.2795,0.3959,0.7256,
5.642281,0.1974,-0.7615,0.3133,-4.2634,-0.5458,-0.0779,-0.3180,0.4894,0.9236,
5.650820,0.2354,-0.7198,0.2361,-4.2634,-0.5458,-0.0779,-0.3180,0.4894,0.9236,
5.653342,0.2354,-0.7198,0.2361,-3.6579,0.0627,-0.8384,-0.3180,0.4894,0.9236,
5.655480,0.2354,-0.7198,0.2361,-3.6579,0.0627,-0.8384,-0.3839,0.5590,1.0836,
5.662069,0.2354,-0.7198,0.2361,-3.6579,0.0627,-0.8384,-0.4805,0.7111,1.3304,
5.671350,0.2413,-0.6262,0.2107,-3.6579,0.0627,-0.8384,-0.4805,0.7111,1.3304,
5.674377,0.2413,-0.6262,0.2107,-3.3042,1.2176,-1.0907,-0.4805,0.7111,1.3304,
5.676493,0.2413,-0.6262,0.2107,-3.3042,1.2176,-1.0907,-0.6381,0.6995,1.4343,
5.682079,0.2413,-0.6262,0.2107,-3.3042,1.2176,-1.0907,-0.6998,0.6256,1.5106,
5.690342,0.2628,-0.5226,0.1682,-3.3042,1.2176,-1.0907,-0.6998,0.6256,1.5106,
5.693137,0.2628,-0.5226,0.1682,-2.7667,2.4885,-1.4708,-0.6998,0.6256,1.5106,
5.695189,0.2628,-0.5226,0.1682,-2.7667,2.4885,-1.4708,-0.7657,0.5700,1.5589,
5.703652,0.2628,-0.5226,0.1682,-2.7667,2.4885,-1.4708,-0.8580,0.5609,1.5845,
5.710328,0.3378,-0.4819,0.1408,-2.7667,2.4885,-1.4708,-0.8580,0.5609,1.5845,
5.712846,0.3378,-0.4819,0.1408,-1.7244,3.1239,-1.6626,-0.8580,0.5609,1.5845,
5.714985,0.3378,-0.4819,0.1408,-1.7244,3.1239,-1.6626,-0.9704,0.6012,1.5839,
5.722141,0.3378,-0.4819,0.1408,-1.7244,3.1239,-1.6626,-1.1048,0.6635,1.5357,
5.730454,0.4472,-0.4622,0.1619,-1.7244,3.1239,-1.6626,-1.1048,0.6635,1.5357,
5.732714,0.4472,-0.4622,0.1619,-0.3652,3.5328,-1.3503,-1.1048,0.6635,1.5357,
5.735225,0.4472,-0.4622,0.1619,-0.3652,3.5328,-1.3503,-1.2575,0.7105,1.4422,
5.742032,0.4472,-0.4622,0.1619,-0.3652,3.5328,-1.3503,-1.4041,0.7062,1.3426,
5.750759,0.5036,-0.4737,0.1909,-0.3652,3.5328,-1.3503,-1.4041,0.7062,1.3426,
5.753396,0.5036,-0.4737,0.1909,0.4333,3.6136,-0.9107,-1.4041,0.7062,1.3426,
5.755634,0.5036,-0.4737,0.1909,0.4333,3.6136,-0.9107,-1.5379,0.6384,1.2278,
5.762199,0.5036,-0.4737,0.1909,0.4333,3.6136,-0.9107,-1.6582,0.5639,1.1001,
5.770017,0.5144,-0.4762,0.2507,0.4333,3.6136,-0.9107,-1.6582,0.5639,1.1001,
5.772779,0.5144,-0.4762,0.2507,0.7022,3.7411,-0.1244,-1.6582,0.5639,1.1001,
5.774294,0.5144,-0.4762,0.2507,0.7022,3.7411,-0.1244,-1.7853,0.5816,0.9792,
5.781641,0.5144,-0.4762,0.2507,0.7022,3.7411,-0.1244,-1.8946,0.7056,0.8600,
5.789953,0.4901,-0.4898,0.3544,0.7022,3.7411,-0.1244,-1.8946,0.7056,0.8600,
5.792495,0.4901,-0.4898,0.3544,0.5749,3.7256,1.1058,-1.8946,0.7056,0.8600,
5.793760,0.4901,-0.4898,0.3544,0.5749,3.7256,1.1058,-1.9508,0.8229,0.7428,
5.803360,0.4901,-0.4898,0.3544,0.5749,3.7256,1.1058,-1.9307,0.7716,0.6420,
5.809723,0.5121,-0.5686,0.2968,0.5749,3.7256,1.1058,-1.9307,0.7716,0.6420,
5.811094,0.5121,-0.5686,0.2968,0.8615,3.0442,0.7538,-1.9307,0.7716,0.6420,
5.812176,0.5121,-0.5686,0.2968,0.8615,3.0442,0.7538,-1.8170,0.4369,0.5338,
5.821313,0.5121,-0.5686,0.2968,0.8615,3.0442,0.7538,-1.6527,-0.0366,0.4111,
5.829771,0.5104,-0.6381,0.2444,0.8615,3.0442,0.7538,-1.6527,-0.0366,0.4111,
5.831063,0.5104,-0.6381,0.2444,0.8525,2.4202,0.4667,-1.6527,-0.0366,0.4111,
5.832053,0.5104,-0.6381,0.2444,0.8525,2.4202,0.4667,-1.4695,-0.4294,0.2822,
5.841262,0.5104,-0.6381,0.2444,0.8525,2.4202,0.4667,-1.2874,-0.6511,0.1679,
5.849773,0.4986,-0.7009,0.3701,0.8525,2.4202,0.4667,-1.2874,-0.6511,0.1679,
5.851286,0.4986,-0.7009,0.3701,0.6861,1.8243,1.9083,-1.2874,-0.6511,0.1679,
5.852417,0.4986,-0.7009,0.3701,0.6861,1.8243,1.9083,-0.8415,-0.7623,-0.0233,
5.861638,0.4986,-0.7009,0.3701,0.6861,1.8243,1.9083,-0.5996,-0.8747,-0.0935,
5.870532,0.4010,-0.7547,0.5558,0.6861,1.8243,1.9083,-0.5996,-0.8747,-0.0935,
5.873140,0.4010,-0.7547,0.5558,-0.3531,1.2741,3.8163,-0.5996,-0.8747,-0.0935,
5.875032,0.4010,-0.7547,0.5558,-0.3531,1.2741,3.8163,-0.3589,-1.0598,-0.1125,
5.881806,0.4010,-0.7547,0.5558,-0.3531,1.2741,3.8163,-0.0956,-1.1832,-0.0874,
5.890301,0.3090,-0.8072,0.7636,-0.3531,1.2741,3.8163,-0.0956,-1.1832,-0.0874,
5.893334,0.3090,-0.8072,0.7636,-1.3214,0.7243,5.8437,-0.0956,-1.1832,-0.0874,
5.894904,0.3090,-0.8072,0.7636,-1.3214,0.7243,5.8437,0.1817,-1.2901,-0.0532,
5.903832,0.3090,-0.8072,0.7636,-1.3214,0.7243,5.8437,0.4584,-1.4538,-0.0385,
5.910141,0.3976,-0.9847,0.5312,-1.3214,0.7243,5.8437,0.4584,-1.4538,-0.0385,
5.912937,0.3976,-0.9847,0.5312,-0.5012,-1.0527,3.4978,0.4584,-1.4538,-0.0385,
5.914916,0.3976,-0.9847,0.5312,-0.5012,-1.0527,3.4978,0.6777,-1.5020,-0.0514,
5.922216,0.3976,-0.9847,0.5312,-0.5012,-1.0527,3.4978,0.7236,-1.5033,-0.0899,
5.930399,0.5256,-0.9711,-0.0118,-0.5012,-1.0527,3.4978,0.7236,-1.5033,-0.0899,
5.933013,0.5256,-0.9711,-0.0118,0.6916,-0.9635,-1.8829,0.7236,-1.5033,-0.0899,
5.935369,0.5256,-0.9711,-0.0118,0.6916,-0.9635,-1.8829,0.5776,-1.7708,-0.1167,
5.942144,0.5256,-0.9711,-0.0118,0.6916,-0.9635,-1.8829,0.1823,-1.8014,-0.1015,
5.950638,0.7582,-0.9941,-0.5238,0.6916,-0.9635,-1.8829,0.1823,-1.8014,-0.1015,
5.952763,0.7582,-0.9941,-0.5238,2.8790,-1.2152,-6.7914,0.1823,-1.8014,-0.1015,
5.954814,0.7582,-0.9941,-0.5238,2.8790,-1.2152,-6.7914,-0.3027,-0.8655,-0.0844,
5.962048,0.7582,-0.9941,-0.5238,2.8790,-1.2152,-6.7914,-0.6735,0.4643,-0.1772,
5.971700,0.4752,-0.9374,-0.2373,2.8790,-1.2152,-6.7914,-0.6735,0.4643,-0.1772,
5.974776,0.4752,-0.9374,-0.2373,0.0632,-0.6547,-3.8348,-0.6735,0.4643,-0.1772,
5.977177,0.4752,-0.9374,-0.2373,0.0632,-0.6547,-3.8348,-0.8910,1.5272,-0.2841,
5.981879,0.4752,-0.9374,-0.2373,0.0632,-0.6547,-3.8348,-0.9441,2.0868,-0.2517,
5.990473,0.6033,-0.8743,0.6252,0.0632,-0.6547,-3.8348,-0.9441,2.0868,-0.2517,
5.993963,0.6033,-0.8743,0.6252,1.3207,-0.0370,4.6057,-0.9441,2.0868,-0.2517,
5.996049,0.6033,-0.8743,0.6252,1.3207,-0.0370,4.6057,-0.7053,1.3226,-0.1015,
6.004129,0.6033,-0.8743,0.6252,1.3207,-0.0370,4.6057,-0.0779,-1.1190,0.0873,
6.010382,0.5663,-0.8597,0.1007,1.3207,-0.0370,4.6057,-0.0779,-1.1190,0.0873,
6.012649,0.5663,-0.8597,0.1007,0.9510,0.1117,-0.4777,-0.0779,-1.1190,0.0873,
6.014130,0.5663,-0.8597,0.1007,0.9510,0.1117,-0.4777,0.3326,-1.9596,0.1142,
6.021600,0.5663,-0.8597,0.1007,0.9510,0.1117,-0.4777,0.4071,-0.8063,-0.0440,
6.029816,0.3843,-1.1144,-0.3081,0.9510,0.1117,-0.4777,0.4071,-0.8063,-0.0440,
6.031399,0.3843,-1.1144,-0.3081,-0.8661,-2.3867,-4.3887,0.4071,-0.8063,-0.0440,
6.032594,0.3843,-1.1144,-0.3081,-0.8661,-2.3867,-4.3887,0.1011,1.9103,-0.1326,
6.041587,0.3843,-1.1144,-0.3081,-0.8661,-2.3867,-4.3887,-0.2080,2.0532,0.0103,
6.050029,0.4029,-1.5588,-0.4318,-0.8661,-2.3867,-4.3887,-0.2080,2.0532,0.0103,
6.052231,0.4029,-1.5588,-0.4318,-0.6123,-6.7167,-5.6838,-0.2080,2.0532,0.0103,
6.053797,0.4029,-1.5588,-0.4318,-0.6123,-6.7167,-5.6838,-0.6387,1.0917,0.1191,
6.061593,0.4029,-1.5588,-0.4318,-0.6123,-6.7167,-5.6838,-0.8690,0.2719,0.1685,
6.069898,0.6470,-1.2818,0.3250,-0.6123,-6.7167,-5.6838,-0.8690,0.2719,0.1685,
6.072332,0.6470,-1.2818,0.3250,1.8397,-3.9530,1.8408,-0.8690,0.2719,0.1685,
6.074218,0.6470,-1.2818,0.3250,1.8397,-3.9530,1.8408,-0.5758,0.0966,0.2431,
6.081748,0.6470,-1.2818,0.3250,1.8397,-3.9530,1.8408,0.1255,-0.6114,0.2736,
6.090046,0.7578,-1.2634,0.2261,1.8397,-3.9530,1.8408,0.1255,-0.6114,0.2736,
6.092464,0.7578,-1.2634,0.2261,2.9657,-3.7411,0.9471,0.1255,-0.6114,0.2736,
6.094908,0.7578,-1.2634,0.2261,2.9657,-3.7411,0.9471,0.7290,-1.6328,0.1924,
6.103630,0.7578,-1.2634,0.2261,2.9657,-3.7411,0.9471,0.8757,-1.8081,0.1038,
6.109994,0.5391,-1.2916,-0.2222,2.9657,-3.7411,0.9471,0.8757,-1.8081,0.1038,
6.111754,0.5391,-1.2916,-0.2222,0.8121,-4.0144,-3.3896,0.8757,-1.8081,0.1038,
6.113334,0.5391,-1.2916,-0.2222,0.8121,-4.0144,-3.3896,0.5324,-1.2253,0.0775,
6.121773,0.5391,-1.2916,-0.2222,0.8121,-4.0144,-3.3896,-0.0700,-0.4733,0.1368,
6.130038,0.4955,-1.2561,-0.1202,0.8121,-4.0144,-3.3896,-0.0700,-0.4733,0.1368,
6.131787,0.4955,-1.2561,-0.1202,0.3973,-3.6476,-2.3016,-0.0700,-0.4733,0.1368,
6.133321,0.4955,-1.2561,-0.1202,0.3973,-3.6476,-2.3016,-0.5758,0.0966,0.2443,
6.141758,0.4955,-1.2561,-0.1202,0.3973,-3.6476,-2.3016,-0.8342,0.4094,0.3567,
6.150177,0.5793,-1.0747,0.0491,0.3973,-3.6476,-2.3016,-0.8342,0.4094,0.3567,
6.152489,0.5793,-1.0747,0.0491,1.2813,-1.8219,-0.5108,-0.8342,0.4094,0.3567,
6.154236,0.5793,-1.0747,0.0491,1.2813,-1.8219,-0.5108,-0.8983,0.4900,0.4379,
6.161781,0.5793,-1.0747,0.0491,1.2813,-1.8219,-0.5108,-0.8403,0.4369,0.4892,
6.170008,0.5590,-0.9333,0.0214,1.2813,-1.8219,-0.5108,-0.8403,0.4369,0.4892,
6.173507,0.5590,-0.9333,0.0214,1.1697,-0.3782,-0.6497,-0.8403,0.4369,0.4892,
6.175749,0.5590,-0.9333,0.0214,1.1697,-0.3782,-0.6497,-0.7395,0.3978,0.5161,
6.181917,0.5590,-0.9333,0.0214,1.1697,-0.3782,-0.6497,-0.6570,0.3690,0.5314,
6.190713,0.4841,-0.8640,-0.0183,1.1697,-0.3782,-0.6497,-0.6570,0.3690,0.5314,
6.193830,0.4841,-0.8640,-0.0183,0.5276,0.3549,-0.9298,-0.6570,0.3690,0.5314,
6.195648,0.4841,-0.8640,-0.0183,0.5276,0.3549,-0.9298,-0.6222,0.2817,0.5375,
6.204949,0.4841,-0.8640,-0.0183,0.5276,0.3549,-0.9298,-0.6344,0.1259,0.5296,
6.210463,0.3633,-0.8819,0.0010,0.5276,0.3549,-0.9298,-0.6344,0.1259,0.5296,
6.213173,0.3633,-0.8819,0.0010,-0.5630,0.2315,-0.6327,-0.6344,0.1259,0.5296,
6.215165,0.3633,-0.8819,0.0010,-0.5630,0.2315,-0.6327,-0.6753,-0.0543,0.5228,
6.222078,0.3633,-0.8819,0.0010,-0.5630,0.2315,-0.6327,-0.7321,-0.0225,0.5864,
6.230445,0.2929,-0.8282,-0.0404,-0.5630,0.2315,-0.6327,-0.7321,-0.0225,0.5864,
6.232623,0.2929,-0.8282,-0.0404,-1.1553,0.8117,-0.8983,-0.7321,-0.0225,0.5864,
6.234669,0.2929,-0.8282,-0.0404,-1.1553,0.8117,-0.8983,-0.7694,0.1265,0.6114,
6.242062,0.2929,-0.8282,-0.0404,-1.1553,0.8117,-0.8983,-0.8262,0.2536,0.6358,
6.250353,0.2565,-0.7273,-0.0845,-1.1553,0.8117,-0.8983,-0.8262,0.2536,0.6358,
6.252647,0.2565,-0.7273,-0.0845,-1.3988,1.8575,-1.1891,-0.8262,0.2536,0.6358,
6.254906,0.2565,-0.7273,-0.0845,-1.3988,1.8575,-1.1891,-0.8873,0.3245,0.6615,
6.262121,0.2565,-0.7273,-0.0845,-1.3988,1.8575,-1.1891,-0.9398,0.3135,0.6835,
6.271482,0.2965,-0.6921,-0.0227,-1.3988,1.8575,-1.1891,-0.9398,0.3135,0.6835,
6.274328,0.2965,-0.6921,-0.0227,-0.8859,2.2589,-0.4343,-0.9398,0.3135,0.6835,
6.276584,0.2965,-0.6921,-0.0227,-0.8859,2.2589,-0.4343,-0.9698,0.1901,0.6963,
6.281926,0.2965,-0.6921,-0.0227,-0.8859,2.2589,-0.4343,-0.9704,-0.0280,0.7012,
6.290546,0.3348,-0.6491,0.1383,-0.8859,2.2589,-0.4343,-0.9704,-0.0280,0.7012,
6.293917,0.3348,-0.6491,0.1383,-0.3880,2.7329,1.3114,-0.9704,-0.0280,0.7012,
6.295911,0.3348,-0.6491,0.1383,-0.3880,2.7329,1.3114,-0.9246,-0.3157,0.7037,
6.304638,0.3348,-0.6491,0.1383,-0.3880,2.7329,1.3114,-0.8042,-0.6248,0.6927,
6.310739,0.3557,-0.5928,0.3353,-0.3880,2.7329,1.3114,-0.8042,-0.6248,0.6927,
6.313391,0.3557,-0.5928,0.3353,-0.0833,3.3240,3.3819,-0.8042,-0.6248,0.6927,
6.315331,0.3557,-0.5928,0.3353,-0.0833,3.3240,3.3819,-0.5971,-0.8515,0.6597,
6.322099,0.3557,-0.5928,0.3353,-0.0833,3.3240,3.3819,-0.3198,-0.8961,0.6132,
6.330361,0.4663,-0.6157,0.4569,-0.0833,3.3240,3.3819,-0.3198,-0.8961,0.6132,
6.332655,0.4663,-0.6157,0.4569,1.0676,3.1257,4.6128,-0.3198,-0.8961,0.6132,
6.334718,0.4663,-0.6157,0.4569,1.0676,3.1257,4.6128,-0.0089,-0.7855,0.5369,
6.342061,0.4663,-0.6157,0.4569,1.0676,3.1257,4.6128,0.2843,-0.5772,0.4153,
6.350294,0.5818,-0.6069,0.3433,1.0676,3.1257,4.6128,0.2843,-0.5772,0.4153,
6.352685,0.5818,-0.6069,0.3433,2.2104,3.2168,3.4017,0.2843,-0.5772,0.4153,
6.354914,0.5818,-0.6069,0.3433,2.2104,3.2168,3.4017,0.4957,-0.3121,0.2913,
6.362231,0.5818,-0.6069,0.3433,2.2104,3.2168,3.4017,0.6118,-0.0720,0.1826,
6.371738,0.5353,-0.5212,0.1658,2.2104,3.2168,3.4017,0.6118,-0.0720,0.1826,
6.374637,0.5353,-0.5212,0.1658,1.7007,4.0341,1.4687,0.6118,-0.0720,0.1826,
6.377042,0.5353,-0.5212,0.1658,1.7007,4.0341,1.4687,0.6539,0.1400,0.0946,
6.381929,0.5353,-0.5212,0.1658,1.7007,4.0341,1.4687,0.6521,0.3739,0.0329,
6.390009,0.4622,-0.4759,0.0453,1.7007,4.0341,1.4687,0.6521,0.3739,0.0329,
6.392439,0.4622,-0.4759,0.0453,0.8924,4.4357,0.0736,0.6521,0.3739,0.0329,
6.393815,0.4622,-0.4759,0.0453,0.8924,4.4357,0.0736,0.6338,0.6378,-0.0111,
6.403791,0.4622,-0.4759,0.0453,0.8924,4.4357,0.0736,0.7767,0.7741,-0.1277,
6.409928,0.6128,-0.4418,0.2615,0.8924,4.4357,0.0736,0.7767,0.7741,-0.1277,
6.411811,0.6128,-0.4418,0.2615,2.2370,4.7016,1.9318,0.7767,0.7741,-0.1277,
6.413082,0.6128,-0.4418,0.2615,2.2370,4.7016,1.9318,1.0510,0.3287,-0.2414,
6.421688,0.6128,-0.4418,0.2615,2.2370,4.7016,1.9318,1.2147,0.1412,-0.3544,
6.429731,0.6133,-0.6632,-0.0502,2.2370,4.7016,1.9318,1.2147,0.1412,-0.3544,
6.430771,0.6133,-0.6632,-0.0502,2.0713,2.4379,-1.3769,1.2147,0.1412,-0.3544,
6.431900,0.6133,-0.6632,-0.0502,2.0713,2.4379,-1.3769,1.1469,0.4582,-0.4106,
6.441984,0.6133,-0.6632,-0.0502,2.0713,2.4379,-1.3769,1.0553,0.7050,-0.4326,
6.449628,0.5856,-0.7229,0.0469,2.0713,2.4379,-1.3769,1.0553,0.7050,-0.4326,
6.450581,0.5856,-0.7229,0.0469,1.6305,1.7476,-0.6743,1.0553,0.7050,-0.4326,
6.451904,0.5856,-0.7229,0.0469,1.6305,1.7476,-0.6743,1.0326,0.6238,-0.4484,
6.461267,0.5856,-0.7229,0.0469,1.6305,1.7476,-0.6743,0.9838,0.4931,-0.4668,
6.469641,0.6080,-0.6848,0.0255,1.6305,1.7476,-0.6743,0.9838,0.4931,-0.4668,
6.471419,0.6080,-0.6848,0.0255,1.6837,2.0123,-1.0936,0.9838,0.4931,-0.4668,
6.472259,0.6080,-0.6848,0.0255,1.6837,2.0123,-1.0936,0.8665,0.5505,-0.5034,
6.481170,0.6080,-0.6848,0.0255,1.6837,2.0123,-1.0936,0.8641,0.5187,-0.5840,
6.489571,0.8367,-0.5444,0.3992,1.6837,2.0123,-1.0936,0.8641,0.5187,-0.5840,
6.490974,0.8367,-0.5444,0.3992,3.7316,3.2541,2.3557,0.8641,0.5187,-0.5840,
6.491903,0.8367,-0.5444,0.3992,3.7316,3.2541,2.3557,1.1493,0.1027,-0.7600,
6.501272,0.8367,-0.5444,0.3992,3.7316,3.2541,2.3557,1.6240,-0.4465,-1.0636,
6.509557,0.9055,-0.6500,0.2846,3.7316,3.2541,2.3557,1.6240,-0.4465,-1.0636,
6.510845,0.9055,-0.6500,0.2846,4.1282,2.0228,0.9973,1.6240,-0.4465,-1.0636,
6.511768,0.9055,-0.6500,0.2846,4.1282,2.0228,0.9973,2.0577,-0.8356,-1.4582,
6.521226,0.9055,-0.6500,0.2846,4.1282,2.0228,0.9973,2.2825,-1.0585,-1.8369,
6.529607,0.7473,-0.9019,0.3793,4.1282,2.0228,0.9973,2.2825,-1.0585,-1.8369,
6.530464,0.7473,-0.9019,0.3793,2.1910,-0.7434,1.6436,2.2825,-1.0585,-1.8369,
6.531306,0.7473,-0.9019,0.3793,2.1910,-0.7434,1.6436,2.4059,-1.3634,-2.1130,
6.541157,0.7473,-0.9019,0.3793,2.1910,-0.7434,1.6436,2.5598,-1.7171,-2.3073,
6.549566,0.6793,-1.2091,0.3980,2.1910,-0.7434,1.6436,2.5598,-1.7171,-2.3073,
6.550417,0.6793,-1.2091,0.3980,1.0944,-4.1089,1.5937,2.5598,-1.7171,-2.3073,
6.551772,0.6793,-1.2091,0.3980,1.0944,-4.1089,1.5937,2.6954,-1.8954,-2.4747,
6.561153,0.6793,-1.2091,0.3980,1.0944,-4.1089,1.5937,2.7217,-1.8979,-2.6207,
6.569575,0.6060,-1.4005,0.2905,1.0944,-4.1089,1.5937,2.7217,-1.8979,-2.6207,
6.571126,0.6060,-1.4005,0.2905,-0.0849,-6.3979,0.3564,2.7217,-1.8979,-2.6207,
6.572203,0.6060,-1.4005,0.2905,-0.0849,-6.3979,0.3564,2.5971,-1.8026,-2.7264,
6.581159,0.6060,-1.4005,0.2905,-0.0849,-6.3979,0.3564,2.3741,-1.5020,-2.7832,
6.589493,0.4319,-1.4329,0.2323,-0.0849,-6.3979,0.3564,2.3741,-1.5020,-2.7832,
6.590918,0.4319,-1.4329,0.2323,-2.1987,-7.1170,-0.3402,2.3741,-1.5020,-2.7832,
6.593689,0.4319,-1.4329,0.2323,-2.1987,-7.1170,-0.3402,1.6405,-0.2907,-2.5840,
6.601934,0.4319,-1.4329,0.2323,-2.1987,-7.1170,-0.3402,1.2825,0.3629,-2.3183,
6.610080,0.3970,-1.4205,0.2524,-2.1987,-7.1170,-0.3402,1.2825,0.3629,-2.3183,
6.612728,0.3970,-1.4205,0.2524,-2.7757,-7.2925,-0.3184,1.2825,0.3629,-2.3183,
6.614438,0.3970,-1.4205,0.2524,-2.7757,-7.2925,-0.3184,1.1365,0.7233,-2.0184,
6.627040,0.3970,-1.4205,0.2524,-2.7757,-7.2925,-0.3184,1.0461,0.7233,-1.7044,
6.630222,0.6651,-1.3756,-0.1691,-2.7757,-7.2925,-0.3184,1.0461,0.7233,-1.7044,
6.633490,0.6651,-1.3756,-0.1691,-0.3002,-7.1093,-4.6711,1.0461,0.7233,-1.7044,
6.641831,0.6651,-1.3756,-0.1691,-0.3002,-7.1093,-4.6711,0.4389,0.3440,-1.1112,
6.650869,0.7819,-1.2070,-0.0564,-0.3002,-7.1093,-4.6711,0.4389,0.3440,-1.1112,
6.653188,0.7819,-1.2070,-0.0564,0.8268,-5.4711,-3.5571,0.4389,0.3440,-1.1112,
6.654946,0.7819,-1.2070,-0.0564,0.8268,-5.4711,-3.5571,0.0828,0.1626,-0.9261,
6.663532,0.7819,-1.2070,-0.0564,0.8268,-5.4711,-3.5571,-0.2367,0.0490,-0.8376,
6.671894,0.7052,-1.0952,0.1834,0.8268,-5.4711,-3.5571,-0.2367,0.0490,-0.8376,
6.673365,0.7052,-1.0952,0.1834,0.0406,-4.3784,-1.1335,-0.2367,0.0490,-0.8376,
6.674506,0.7052,-1.0952,0.1834,0.0406,-4.3784,-1.1335,-0.4744,0.0508,-0.7991,
6.681450,0.7052,-1.0952,0.1834,0.0406,-4.3784,-1.1335,-0.6173,0.1497,-0.7447,
6.689784,0.5548,-1.0708,0.3352,0.0406,-4.3784,-1.1335,-0.6173,0.1497,-0.7447,
6.692262,0.5548,-1.0708,0.3352,-1.4480,-4.1049,0.4659,-0.6173,0.1497,-0.7447,
6.693370,0.5548,-1.0708,0.3352,-1.4480,-4.1049,0.4659,-0.6894,0.3080,-0.6366,
6.701137,0.5548,-1.0708,0.3352,-1.4480,-4.1049,0.4659,-0.6937,0.4680,-0.4839,
6.709509,0.5435,-1.0664,0.3001,-1.4480,-4.1049,0.4659,-0.6937,0.4680,-0.4839,
6.710685,0.5435,-1.0664,0.3001,-1.5292,-3.9964,0.1990,-0.6937,0.4680,-0.4839,
6.711657,0.5435,-1.0664,0.3001,-1.5292,-3.9964,0.1990,-0.7059,0.6384,-0.2737,
6.721344,0.5435,-1.0664,0.3001,-1.5292,-3.9964,0.1990,-0.7566,0.7844,-0.0923,
6.729599,0.5336,-0.9929,0.2328,-1.5292,-3.9964,0.1990,-0.7566,0.7844,-0.0923,
6.730510,0.5336,-0.9929,0.2328,-1.5326,-3.1636,-0.4265,-0.7566,0.7844,-0.0923,
6.731670,0.5336,-0.9929,0.2328,-1.5326,-3.1636,-0.4265,-0.8366,0.8101,0.0476,
6.741156,0.5336,-0.9929,0.2328,-1.5326,-3.1636,-0.4265,-0.9643,0.8138,0.1582,
6.749543,0.4216,-0.8905,0.2715,-1.5326,-3.1636,-0.4265,-0.9643,0.8138,0.1582,
6.750505,0.4216,-0.8905,0.2715,-2.4939,-2.0082,-0.0105,-0.9643,0.8138,0.1582,
6.751576,0.4216,-0.8905,0.2715,-2.4939,-2.0082,-0.0105,-1.1023,0.8388,0.2620,
6.761170,0.4216,-0.8905,0.2715,-2.4939,-2.0082,-0.0105,-1.2447,0.8449,0.3744,
6.769779,0.3095,-0.7914,0.3026,-2.4939,-2.0082,-0.0105,-1.2447,0.8449,0.3744,
6.771611,0.3095,-0.7914,0.3026,-3.4213,-0.8505,0.3535,-1.2447,0.8449,0.3744,
6.772559,0.3095,-0.7914,0.3026,-3.4213,-0.8505,0.3535,-1.4175,0.7777,0.6572,
6.781262,0.3095,-0.7914,0.3026,-3.4213,-0.8505,0.3535,-1.4530,0.7386,0.8179,
6.789529,0.2459,-0.6775,0.2591,-3.4213,-0.8505,0.3535,-1.4530,0.7386,0.8179,
6.791013,0.2459,-0.6775,0.2591,-3.8194,0.5073,0.0296,-1.4530,0.7386,0.8179,
6.791863,0.2459,-0.6775,0.2591,-3.8194,0.5073,0.0296,-1.4811,0.6934,0.9675,
6.802069,0.2459,-0.6775,0.2591,-3.8194,0.5073,0.0296,-1.4945,0.6488,1.1062,
6.810517,0.1724,-0.5548,0.2595,-3.8194,0.5073,0.0296,-1.4945,0.6488,1.1062,
6.813637,0.1724,-0.5548,0.2595,-4.2731,1.9714,0.1478,-1.4945,0.6488,1.1062,
6.815593,0.1724,-0.5548,0.2595,-4.2731,1.9714,0.1478,-1.4707,0.6085,1.2308,
6.822114,0.1724,-0.5548,0.2595,-4.2731,1.9714,0.1478,-1.4120,0.5890,1.3500,
6.830375,0.1747,-0.5232,0.3060,-4.2731,1.9714,0.1478,-1.4120,0.5890,1.3500,
6.832668,0.1747,-0.5232,0.3060,-3.9476,2.5477,0.7100,-1.4120,0.5890,1.3500,
6.834620,0.1747,-0.5232,0.3060,-3.9476,2.5477,0.7100,-1.3406,0.6470,1.4617,
6.842093,0.1747,-0.5232,0.3060,-3.9476,2.5477,0.7100,-1.2728,0.7624,1.5412,
6.850476,0.2686,-0.4961,0.2883,-3.9476,2.5477,0.7100,-1.2728,0.7624,1.5412,
6.853286,0.2686,-0.4961,0.2883,-2.6989,3.0649,0.6070,-1.2728,0.7624,1.5412,
6.855598,0.2686,-0.4961,0.2883,-2.6989,3.0649,0.6070,-1.2416,0.9402,1.5674,
6.862141,0.2686,-0.4961,0.2883,-2.6989,3.0649,0.6070,-1.2599,1.1198,1.5302,
6.872397,0.3701,-0.4848,0.2816,-2.6989,3.0649,0.6070,-1.2599,1.1198,1.5302,
6.874855,0.3701,-0.4848,0.2816,-1.3776,3.3937,0.5728,-1.2599,1.1198,1.5302,
6.876974,0.3701,-0.4848,0.2816,-1.3776,3.3937,0.5728,-1.3070,1.2640,1.4410,
6.881872,0.3701,-0.4848,0.2816,-1.3776,3.3937,0.5728,-1.3375,1.4026,1.3212,
6.890217,0.3724,-0.5128,0.2240,-1.3776,3.3937,0.5728,-1.3375,1.4026,1.3212,
6.893511,0.3724,-0.5128,0.2240,-1.0638,3.3003,0.0432,-1.3375,1.4026,1.3212,
6.895189,0.3724,-0.5128,0.2240,-1.0638,3.3003,0.0432,-1.3222,1.4692,1.1875,
6.901902,0.3724,-0.5128,0.2240,-1.0638,3.3003,0.0432,-1.3051,1.4564,1.0537,
6.910126,0.3624,-0.5786,0.2370,-1.0638,3.3003,0.0432,-1.3051,1.4564,1.0537,
6.912939,0.3624,-0.5786,0.2370,-0.9187,2.7971,0.2054,-1.3051,1.4564,1.0537,
6.914212,0.3624,-0.5786,0.2370,-0.9187,2.7971,0.2054,-1.2807,1.3458,0.9431,
6.923740,0.3624,-0.5786,0.2370,-0.9187,2.7971,0.2054,-1.2263,1.0966,0.8362,
6.930221,0.3906,-0.6618,0.3481,-0.9187,2.7971,0.2054,-1.2263,1.0966,0.8362,
6.932290,0.3906,-0.6618,0.3481,-0.4553,2.0878,1.3350,-1.2263,1.0966,0.8362,
6.933883,0.3906,-0.6618,0.3481,-0.4553,2.0878,1.3350,-1.1701,0.7160,0.7281,
6.941991,0.3906,-0.6618,0.3481,-0.4553,2.0878,1.3350,-1.0852,0.2469,0.6395,
6.950274,0.5119,-0.7602,0.5585,-0.4553,2.0878,1.3350,-1.0852,0.2469,0.6395,
6.952815,0.5119,-0.7602,0.5585,0.8458,1.1937,3.4570,-1.0852,0.2469,0.6395,
6.954712,0.5119,-0.7602,0.5585,0.8458,1.1937,3.4570,-0.9172,-0.4611,0.5094,
6.962031,0.5119,-0.7602,0.5585,0.8458,1.1937,3.4570,-0.3320,-0.5955,0.3958,
6.971735,0.7526,-0.8138,0.6045,0.8458,1.1937,3.4570,-0.3320,-0.5955,0.3958,
6.974270,0.7526,-0.8138,0.6045,3.2145,0.6840,3.9550,-0.3320,-0.5955,0.3958,
6.976164,0.7526,-0.8138,0.6045,3.2145,0.6840,3.9550,-0.0559,-0.5796,0.2052,
6.981805,0.7526,-0.8138,0.6045,3.2145,0.6840,3.9550,0.1225,-0.4996,-0.0263,
6.990279,0.5972,-0.8007,0.3721,3.2145,0.6840,3.9550,0.1225,-0.4996,-0.0263,
6.993448,0.5972,-0.8007,0.3721,1.6373,0.7737,1.6253,0.1225,-0.4996,-0.0263,
6.995167,0.5972,-0.8007,0.3721,1.6373,0.7737,1.6253,0.1689,-0.4758,-0.2078,
7.001813,0.5972,-0.8007,0.3721,1.6373,0.7737,1.6253,0.1029,-0.5356,-0.2731,
7.010327,0.5569,-0.7854,0.3291,1.6373,0.7737,1.6253,0.1029,-0.5356,-0.2731,
7.013071,0.5569,-0.7854,0.3291,1.1361,0.8568,1.1462,0.1029,-0.5356,-0.2731,
7.014695,0.5569,-0.7854,0.3291,1.1361,0.8568,1.1462,0.0070,-0.6254,-0.2591,
7.024297,0.5569,-0.7854,0.3291,1.1361,0.8568,1.1462,-0.0669,-0.8295,-0.2285,
7.030172,0.5814,-0.7159,0.4231,1.1361,0.8568,1.1462,-0.0669,-0.8295,-0.2285,
7.032533,0.5814,-0.7159,0.4231,1.2603,1.4755,2.0572,-0.0669,-0.8295,-0.2285,
7.034267,0.5814,-0.7159,0.4231,1.2603,1.4755,2.0572,-0.0846,-1.1587,-0.1784,
7.042468,0.5814,-0.7159,0.4231,1.2603,1.4755,2.0572,0.0247,-1.5356,-0.1002,
7.050574,0.7925,-0.9070,0.5424,1.2603,1.4755,2.0572,0.0247,-1.5356,-0.1002,
7.053293,0.7925,-0.9070,0.5424,3.2030,-0.4533,3.2682,0.0247,-1.5356,-0.1002,
7.055696,0.7925,-0.9070,0.5424,3.2030,-0.4533,3.2682,0.3045,-1.7843,0.0012,
7.062056,0.7925,-0.9070,0.5424,3.2030,-0.4533,3.2682,0.5940,-1.6639,0.0848,
7.071592,0.7842,-0.7156,0.0789,3.2030,-0.4533,3.2682,0.5940,-1.6639,0.0848,
7.073748,0.7842,-0.7156,0.0789,2.9962,1.3618,-1.2397,0.5940,-1.6639,0.0848,
7.075265,0.7842,-0.7156,0.0789,2.9962,1.3618,-1.2397,0.7297,-1.3395,0.0745,
7.081564,0.7842,-0.7156,0.0789,2.9962,1.3618,-1.2397,0.5195,-0.8961,0.0195,
7.090493,0.5110,-0.8289,-0.5126,2.9962,1.3618,-1.2397,0.5195,-0.8961,0.0195,
7.092843,0.5110,-0.8289,-0.5126,0.2246,0.2069,-6.9973,0.5195,-0.8961,0.0195,
7.094108,0.5110,-0.8289,-0.5126,0.2246,0.2069,-6.9973,0.0088,-0.1032,0.0213,
7.102436,0.5110,-0.8289,-0.5126,0.2246,0.2069,-6.9973,-0.5562,0.7869,0.0794,
7.109822,0.4306,-1.1594,-0.1615,0.2246,0.2069,-6.9973,-0.5562,0.7869,0.0794,
7.111587,0.4306,-1.1594,-0.1615,-0.5655,-3.0144,-3.4786,-0.5562,0.7869,0.0794,
7.112774,0.4306,-1.1594,-0.1615,-0.5655,-3.0144,-3.4786,-1.0412,1.1784,0.1264,
7.121571,0.4306,-1.1594,-0.1615,-0.5655,-3.0144,-3.4786,-1.2831,1.1033,0.1508,
7.129873,0.5468,-1.2927,0.0600,-0.5655,-3.0144,-3.4786,-1.2831,1.1033,0.1508,
7.131659,0.5468,-1.2927,0.0600,0.6335,-4.2574,-1.1710,-1.2831,1.1033,0.1508,
7.133086,0.5468,-1.2927,0.0600,0.6335,-4.2574,-1.1710,-1.1542,1.3648,0.2015,
7.142366,0.5468,-1.2927,0.0600,0.6335,-4.2574,-1.1710,-0.7028,1.3892,0.1575,
7.150186,0.3456,-0.8018,-0.2078,0.6335,-4.2574,-1.1710,-0.7028,1.3892,0.1575,
7.152493,0.3456,-0.8018,-0.2078,-1.2624,0.6173,-3.6890,-0.7028,1.3892,0.1575,
7.154461,0.3456,-0.8018,-0.2078,-1.2624,0.6173,-3.6890,-0.6875,0.9439,0.0971,
7.162040,0.3456,-0.8018,-0.2078,-1.2624,0.6173,-3.6890,-0.8280,0.6818,0.0372,
7.171970,0.3389,-1.1039,-0.3042,-1.2624,0.6173,-3.6890,-0.8280,0.6818,0.0372,
7.174463,0.3389,-1.1039,-0.3042,-1.2762,-2.2865,-4.4802,-0.8280,0.6818,0.0372,
7.176502,0.3389,-1.1039,-0.3042,-1.2762,-2.2865,-4.4802,-1.0327,0.6262,0.0335,
7.181768,0.3389,-1.1039,-0.3042,-1.2762,-2.2865,-4.4802,-1.2416,0.5621,0.0622,
7.190249,0.3327,-1.3735,-0.1891,-1.2762,-2.2865,-4.4802,-1.2416,0.5621,0.0622,
7.194963,0.3327,-1.3735,-0.1891,-1.2750,-4.8580,-3.1171,-1.2416,0.5621,0.0622,
7.197055,0.3327,-1.3735,-0.1891,-1.2750,-4.8580,-3.1171,-1.3546,0.5376,0.1258,
7.202446,0.3327,-1.3735,-0.1891,-1.2750,-4.8580,-3.1171,-1.3332,0.6562,0.2260,
7.210170,0.3694,-1.4384,-0.1891,-1.2750,-4.8580,-3.1171,-1.3332,0.6562,0.2260,
7.212858,0.3694,-1.4384,-0.1891,-0.8246,-5.4115,-2.8517,-1.3332,0.6562,0.2260,
7.214330,0.3694,-1.4384,-0.1891,-0.8246,-5.4115,-2.8517,-1.2648,0.8070,0.3029,
7.221838,0.3694,-1.4384,-0.1891,-0.8246,-5.4115,-2.8517,-1.2605,0.7453,0.3237,
7.230083,0.4316,-1.5713,-0.0294,-0.8246,-5.4115,-2.8517,-1.2605,0.7453,0.3237,
7.232383,0.4316,-1.5713,-0.0294,-0.0948,-6.6312,-1.0697,-1.2605,0.7453,0.3237,
7.233873,0.4316,-1.5713,-0.0294,-0.0948,-6.6312,-1.0697,-1.2783,0.3092,0.3329,
7.241717,0.4316,-1.5713,-0.0294,-0.0948,-6.6312,-1.0697,-1.1799,-0.1557,0.3793,
7.250168,0.4102,-1.4139,0.1130,-0.0948,-6.6312,-1.0697,-1.1799,-0.1557,0.3793,
7.251792,0.4102,-1.4139,0.1130,-0.1891,-5.0151,0.5723,-1.1799,-0.1557,0.3793,
7.253592,0.4102,-1.4139,0.1130,-0.1891,-5.0151,0.5723,-0.9417,-0.3047,0.4428,
7.261940,0.4102,-1.4139,0.1130,-0.1891,-5.0151,0.5723,-0.7126,-0.2528,0.4746,
7.271965,0.4186,-1.2533,0.0049,-0.1891,-5.0151,0.5723,-0.7126,-0.2528,0.4746,
7.274404,0.4186,-1.2533,0.0049,0.0098,-3.3771,-0.2966,-0.7126,-0.2528,0.4746,
7.276317,0.4186,-1.2533,0.0049,0.0098,-3.3771,-0.2966,-0.5953,-0.2192,0.4642,
7.281650,0.4186,-1.2533,0.0049,0.0098,-3.3771,-0.2966,-0.5489,-0.2320,0.4446,
7.290053,0.4934,-1.1160,0.0154,0.0098,-3.3771,-0.2966,-0.5489,-0.2320,0.4446,
7.293642,0.4934,-1.1160,0.0154,0.8406,-1.9831,-0.0642,-0.5489,-0.2320,0.4446,
7.295325,0.4934,-1.1160,0.0154,0.8406,-1.9831,-0.0642,-0.5128,-0.2632,0.4453,
7.301774,0.4934,-1.1160,0.0154,0.8406,-1.9831,-0.0642,-0.4664,-0.2724,0.4575,
7.310107,0.5293,-0.9875,-0.0071,0.8406,-1.9831,-0.0642,-0.4664,-0.2724,0.4575,
7.312794,0.5293,-0.9875,-0.0071,1.2772,-0.6844,-0.1722,-0.4664,-0.2724,0.4575,
7.314240,0.5293,-0.9875,-0.0071,1.2772,-0.6844,-0.1722,-0.4084,-0.2131,0.4648,
7.322256,0.5293,-0.9875,-0.0071,1.2772,-0.6844,-0.1722,-0.3552,0.1198,0.4508,
7.330192,0.4790,-0.8656,-0.1131,1.2772,-0.6844,-0.1722,-0.3552,0.1198,0.4508,
7.332487,0.4790,-0.8656,-0.1131,0.8662,0.5461,-1.1339,-0.3552,0.1198,0.4508,
7.334018,0.4790,-0.8656,-0.1131,0.8662,0.5461,-1.1339,-0.4145,0.2163,0.4477,
7.341936,0.4790,-0.8656,-0.1131,0.8662,0.5461,-1.1339,-0.5183,0.2603,0.4685,
7.350129,0.4086,-0.7588,-0.1942,0.8662,0.5461,-1.1339,-0.5183,0.2603,0.4685,
7.353253,0.4086,-0.7588,-0.1942,0.2540,1.6246,-1.8478,-0.5183,0.2603,0.4685,
7.355025,0.4086,-0.7588,-0.1942,0.2540,1.6246,-1.8478,-0.6338,0.2774,0.5100,
7.362227,0.4086,-0.7588,-0.1942,0.2540,1.6246,-1.8478,-0.7395,0.2554,0.5644,
7.372982,0.2967,-0.7315,-0.1882,0.2540,1.6246,-1.8478,-0.7395,0.2554,0.5644,
7.376028,0.2967,-0.7315,-0.1882,-0.7528,1.9278,-1.6611,-0.7395,0.2554,0.5644,
7.378267,0.2967,-0.7315,-0.1882,-0.7528,1.9278,-1.6611,-0.8342,0.1778,0.6255,
7.382146,0.2967,-0.7315,-0.1882,-0.7528,1.9278,-1.6611,-0.9185,0.0428,0.6939,
7.390491,0.2643,-0.7053,-0.1526,-0.7528,1.9278,-1.6611,-0.9185,0.0428,0.6939,
7.393041,0.2643,-0.7053,-0.1526,-0.9576,2.2232,-1.1363,-0.9185,0.0428,0.6939,
7.395385,0.2643,-0.7053,-0.1526,-0.9576,2.2232,-1.1363,-0.9814,-0.0769,0.7733,
7.402189,0.2643,-0.7053,-0.1526,-0.9576,2.2232,-1.1363,-1.0180,-0.1038,0.8509,
7.410543,0.2785,-0.6468,-0.1255,-0.9576,2.2232,-1.1363,-1.0180,-0.1038,0.8509,
7.413300,0.2785,-0.6468,-0.1255,-0.6795,2.8389,-0.6610,-1.0180,-0.1038,0.8509,
7.415232,0.2785,-0.6468,-0.1255,-0.6795,2.8389,-0.6610,-1.0357,-0.0457,0.9071,
7.422672,0.2785,-0.6468,-0.1255,-0.6795,2.8389,-0.6610,-1.0516,0.0312,0.9327,
7.430342,0.3229,-0.6659,-0.0763,-0.6795,2.8389,-0.6610,-1.0516,0.0312,0.9327,
7.432625,0.3229,-0.6659,-0.0763,-0.0918,2.6926,0.0254,-1.0516,0.0312,0.9327,
7.434549,0.3229,-0.6659,-0.0763,-0.0918,2.6926,0.0254,-1.0712,0.0819,0.9364,
7.442093,0.3229,-0.6659,-0.0763,-0.0918,2.6926,0.0254,-1.0938,0.1088,0.9211,
7.450448,0.4082,-0.8060,-0.0171,-0.0918,2.6926,0.0254,-1.0938,0.1088,0.9211,
7.453202,0.4082,-0.8060,-0.0171,0.8884,1.3507,0.8003,-1.0938,0.1088,0.9211,
7.455441,0.4082,-0.8060,-0.0171,0.8884,1.3507,0.8003,-1.1060,0.1473,0.9034,
7.462061,0.4082,-0.8060,-0.0171,0.8884,1.3507,0.8003,-1.0987,0.2334,0.8955,
7.473737,0.4338,-0.8829,-0.0118,0.8884,1.3507,0.8003,-1.0987,0.2334,0.8955,
7.476321,0.4338,-0.8829,-0.0118,1.2613,0.6165,1.0305,-1.0987,0.2334,0.8955,
7.478583,0.4338,-0.8829,-0.0118,1.2613,0.6165,1.0305,-1.0730,0.3422,0.9004,
7.482110,0.4338,-0.8829,-0.0118,1.2613,0.6165,1.0305,-1.0315,0.4314,0.9193,
7.490377,0.4770,-0.8778,-0.0188,1.2613,0.6165,1.0305,-1.0315,0.4314,0.9193,
7.493545,0.4770,-0.8778,-0.0188,1.7831,0.6791,1.1052,-1.0315,0.4314,0.9193,
7.495908,0.4770,-0.8778,-0.0188,1.7831,0.6791,1.1052,-0.9551,0.5169,0.9394,
7.502451,0.4770,-0.8778,-0.0188,1.7831,0.6791,1.1052,-0.8403,0.6024,0.9352,
7.510726,0.5096,-0.8324,-0.0507,1.7831,0.6791,1.1052,-0.8403,0.6024,0.9352,
7.513859,0.5096,-0.8324,-0.0507,2.1863,1.1355,0.8941,-0.8403,0.6024,0.9352,
7.515777,0.5096,-0.8324,-0.0507,2.1863,1.1355,0.8941,-0.6460,0.5511,0.8246,
7.523122,0.5096,-0.8324,-0.0507,2.1863,1.1355,0.8941,-0.5990,0.3837,0.7098,
7.530350,0.4371,-0.8686,0.0017,2.1863,1.1355,0.8941,-0.5990,0.3837,0.7098,
7.532845,0.4371,-0.8686,0.0017,1.5284,0.7886,1.4553,-0.5990,0.3837,0.7098,
7.534789,0.4371,-0.8686,0.0017,1.5284,0.7886,1.4553,-0.5391,0.2328,0.6041,
7.542159,0.4371,-0.8686,0.0017,1.5284,0.7886,1.4553,-0.4182,0.2017,0.5344,
7.550365,0.4310,-0.9624,0.0783,1.5284,0.7886,1.4553,-0.4182,0.2017,0.5344,
7.552831,0.4310,-0.9624,0.0783,1.4965,-0.1257,2.2262,-0.4182,0.2017,0.5344,
7.555106,0.4310,-0.9624,0.0783,1.4965,-0.1257,2.2262,-0.2398,0.3348,0.4978,
7.562125,0.4310,-0.9624,0.0783,1.4965,-0.1257,2.2262,-0.0755,0.5902,0.4868,
7.573731,0.5631,-0.8705,-0.1520,1.4965,-0.1257,2.2262,-0.0755,0.5902,0.4868,
7.576542,0.5631,-0.8705,-0.1520,2.7868,0.7796,-0.0649,-0.0755,0.5902,0.4868,
7.578952,0.5631,-0.8705,-0.1520,2.7868,0.7796,-0.0649,0.0046,0.8480,0.4642,
7.582189,0.5631,-0.8705,-0.1520,2.7868,0.7796,-0.0649,-0.0028,1.0105,0.4147,
7.590414,0.6354,-0.9324,-0.1879,2.7868,0.7796,-0.0649,-0.0028,1.0105,0.4147,
7.594104,0.6354,-0.9324,-0.1879,3.4585,0.1724,-0.4884,-0.0028,1.0105,0.4147,
7.596026,0.6354,-0.9324,-0.1879,3.4585,0.1724,-0.4884,-0.0645,1.0257,0.3561,
7.602070,0.6354,-0.9324,-0.1879,3.4585,0.1724,-0.4884,-0.1451,0.9335,0.2987,
7.610533,0.6246,-1.0737,-0.1468,3.4585,0.1724,-0.4884,-0.1451,0.9335,0.2987,
7.613737,0.6246,-1.0737,-0.1468,3.2966,-1.2222,-0.1354,-0.1451,0.9335,0.2987,
7.615765,0.6246,-1.0737,-0.1468,3.2966,-1.2222,-0.1354,-0.2092,0.8877,0.2486,
7.623598,0.6246,-1.0737,-0.1468,3.2966,-1.2222,-0.1354,-0.2306,0.9500,0.1979,
7.630414,0.5493,-1.1302,-0.0237,3.2966,-1.2222,-0.1354,-0.2306,0.9500,0.1979,
7.632981,0.5493,-1.1302,-0.0237,2.4974,-1.7896,1.0376,-0.2306,0.9500,0.1979,
7.636744,0.5493,-1.1302,-0.0237,2.4974,-1.7896,1.0376,-0.1982,0.9689,0.1453,
7.643293,0.5493,-1.1302,-0.0237,2.4974,-1.7896,1.0376,-0.0883,0.8083,0.1160,
7.652396,0.4950,-1.1179,0.1586,2.4974,-1.7896,1.0376,-0.0883,0.8083,0.1160,
7.655270,0.4950,-1.1179,0.1586,1.8985,-1.6816,2.7551,-0.0883,0.8083,0.1160,
7.656868,0.4950,-1.1179,0.1586,1.8985,-1.6816,2.7551,0.1182,0.5883,0.1099,
7.661713,0.4950,-1.1179,0.1586,1.8985,-1.6816,2.7551,0.3876,0.5529,0.0946,
7.671802,0.5437,-1.0620,0.0952,1.8985,-1.6816,2.7551,0.3876,0.5529,0.0946,
7.673847,0.5437,-1.0620,0.0952,2.3168,-1.1365,2.0039,0.3876,0.5529,0.0946,
7.675401,0.5437,-1.0620,0.0952,2.3168,-1.1365,2.0039,0.6350,0.7576,0.0409,
7.681479,0.5437,-1.0620,0.0952,2.3168,-1.1365,2.0039,0.8347,1.0538,-0.0398,
7.689978,0.5852,-1.0141,0.1011,2.3168,-1.1365,2.0039,0.8347,1.0538,-0.0398,
7.692593,0.5852,-1.0141,0.1011,2.6400,-0.6703,1.8242,0.8347,1.0538,-0.0398,
7.694058,0.5852,-1.0141,0.1011,2.6400,-0.6703,1.8242,1.2379,1.2340,-0.2188,
7.701623,0.5852,-1.0141,0.1011,2.6400,-0.6703,1.8242,1.5501,0.9567,-0.3000,
7.709881,0.5203,-0.9701,0.1724,2.6400,-0.6703,1.8242,1.5501,0.9567,-0.3000,
7.712518,0.5203,-0.9701,0.1724,1.8794,-0.2556,2.1495,1.5501,0.9567,-0.3000,
7.714834,0.5203,-0.9701,0.1724,1.8794,-0.2556,2.1495,1.9410,0.4821,-0.3770,
7.723561,0.5203,-0.9701,0.1724,1.8794,-0.2556,2.1495,2.2898,0.0276,-0.4570,
7.730478,0.3621,-0.8998,0.0605,1.8794,-0.2556,2.1495,2.2898,0.0276,-0.4570,
7.733210,0.3621,-0.8998,0.0605,0.2131,0.4042,0.6209,2.2898,0.0276,-0.4570,
7.734932,0.3621,-0.8998,0.0605,0.2131,0.4042,0.6209,2.5635,-0.3805,-0.5877,
7.742193,0.3621,-0.8998,0.0605,0.2131,0.4042,0.6209,2.6899,-0.5992,-0.7154,
7.750312,0.3656,-0.8634,-0.0862,0.2131,0.4042,0.6209,2.6899,-0.5992,-0.7154,
7.752957,0.3656,-0.8634,-0.0862,0.1078,0.6997,-1.2619,2.6899,-0.5992,-0.7154,
7.755013,0.3656,-0.8634,-0.0862,0.1078,0.6997,-1.2619,2.6172,-0.6425,-0.8644,
7.762094,0.3656,-0.8634,-0.0862,0.1078,0.6997,-1.2619,2.3686,-0.6059,-1.0489,
7.773200,0.4012,-0.8841,-0.0788,0.1078,0.6997,-1.2619,2.3686,-0.6059,-1.0489,
7.776247,0.4012,-0.8841,-0.0788,0.2596,0.3930,-1.5776,2.3686,-0.6059,-1.0489,
7.778425,0.4012,-0.8841,-0.0788,0.2596,0.3930,-1.5776,2.0675,-0.5515,-1.2407,
7.782003,0.4012,-0.8841,-0.0788,0.2596,0.3930,-1.5776,1.9019,-0.5503,-1.4203,
7.791228,0.4774,-0.9979,-0.1334,0.2596,0.3930,-1.5776,1.9019,-0.5503,-1.4203,
7.794028,0.4774,-0.9979,-0.1334,0.7450,-0.8596,-2.3758,1.9019,-0.5503,-1.4203,
7.796339,0.4774,-0.9979,-0.1334,0.7450,-0.8596,-2.3758,1.8714,-0.4868,-1.6054,
7.802096,0.4774,-0.9979,-0.1334,0.7450,-0.8596,-2.3758,1.7742,-0.2577,-1.7422,
7.810475,0.5003,-1.0499,-0.2564,0.7450,-0.8596,-2.3758,1.7742,-0.2577,-1.7422,
7.813893,0.5003,-1.0499,-0.2564,0.6636,-1.5381,-3.7840,1.7742,-0.2577,-1.7422,
7.815859,0.5003,-1.0499,-0.2564,0.6636,-1.5381,-3.7840,1.5140,0.1009,-1.7881,
7.823070,0.5003,-1.0499,-0.2564,0.6636,-1.5381,-3.7840,1.1322,0.5835,-1.7679,
7.830354,0.3881,-1.1478,-0.0332,0.6636,-1.5381,-3.7840,1.1322,0.5835,-1.7679,
7.833186,0.3881,-1.1478,-0.0332,-0.7138,-2.6640,-1.7688,1.1322,0.5835,-1.7679,
7.835142,0.3881,-1.1478,-0.0332,-0.7138,-2.6640,-1.7688,0.7626,1.2304,-1.7264,
7.842110,0.3881,-1.1478,-0.0332,-0.7138,-2.6640,-1.7688,0.6557,1.6616,-1.6616,
7.850425,0.3633,-1.1401,-0.0447,-0.7138,-2.6640,-1.7688,0.6557,1.6616,-1.6616,
7.853371,0.3633,-1.1401,-0.0447,-1.1602,-2.7283,-2.0457,0.6557,1.6616,-1.6616,
7.855721,0.3633,-1.1401,-0.0447,-1.1602,-2.7283,-2.0457,0.8274,1.6201,-1.5657,
7.862115,0.3633,-1.1401,-0.0447,-1.1602,-2.7283,-2.0457,0.9288,1.3104,-1.4154,
7.873504,0.3902,-1.1898,-0.2020,-1.1602,-2.7283,-2.0457,0.9288,1.3104,-1.4154,
7.876455,0.3902,-1.1898,-0.2020,-1.0461,-3.3372,-3.7665,0.9288,1.3104,-1.4154,
