time,gFx,gFy,gFz,ax,ay,az,wx,wy,wz
2022-02-09 17:34:28.4820,0.133,-0.249,-0.977,-0.61,0.65,-0.4,-0.19,-0.29,0.24
2022-02-09 17:35:10.2020,0.121,-0.241,-1.01,-0.64,0.29,0.03,-0.14,-0.29,0.24
2022-02-09 17:35:10.2110,0.105,-0.232,-1.005,-0.56,0.23,0.35,-0.12,-0.29,0.23
2022-02-09 17:35:10.2210,0.096,-0.224,-0.972,-0.43,0.15,0.3,-0.12,-0.24,0.22
2022-02-09 17:35:10.2310,0.087,-0.231,-0.927,-0.31,0.16,-0.47,-0.14,-0.15,0.23
2022-02-09 17:35:10.2410,0.077,-0.23,-0.905,-0.31,0.16,-0.47,-0.15,-0.08,0.22
2022-02-09 17:35:10.2510,0.065,-0.223,-0.924,-0.23,0.16,-0.69,-0.12,-0.01,0.21
2022-02-09 17:35:10.2610,0.055,-0.23,-0.947,-0.12,0.1,-0.52,-0.05,0.05,0.18
2022-02-09 17:35:10.2710,0.06,-0.231,-0.961,-0.08,0.19,-0.16,0.0,0.08,0.17
2022-02-09 17:35:10.2820,0.069,-0.236,-0.935,-0.08,0.19,-0.16,0.0,0.1,0.16
2022-02-09 17:35:10.2920,0.076,-0.254,-0.898,-0.16,0.24,-0.41,-0.07,0.07,0.17
2022-02-09 17:35:10.3020,0.081,-0.266,-0.884,-0.22,0.42,-0.77,-0.16,0.02,0.16
2022-02-09 17:35:10.3190,0.071,-0.261,-0.896,-0.18,0.51,-0.79,-0.22,-0.03,0.13
2022-02-09 17:35:10.3290,0.065,-0.241,-0.924,-0.12,0.34,-0.52,-0.24,-0.07,0.08
2022-02-09 17:35:10.3310,0.07,-0.233,-0.939,-0.12,0.34,-0.52,-0.25,-0.09,0.06
2022-02-09 17:35:10.3420,0.078,-0.232,-0.935,-0.27,0.29,-0.43,-0.28,-0.1,0.03
2022-02-09 17:35:10.3530,0.094,-0.233,-0.926,-0.43,0.33,-0.52,-0.33,-0.1,0.03
2022-02-09 17:35:10.3630,0.116,-0.229,-0.932,-0.43,0.33,-0.52,-0.37,-0.11,0.06
2022-02-09 17:35:10.3720,0.124,-0.217,-0.961,-0.66,0.32,-0.47,-0.36,-0.12,0.11
2022-02-09 17:35:10.3830,0.138,-0.189,-0.997,-0.76,0.24,-0.2,-0.3,-0.13,0.12
2022-02-09 17:35:10.3930,0.093,-0.186,-1.015,-0.91,0.0,0.15,-0.22,-0.08,0.09
2022-02-09 17:35:10.4030,0.092,-0.199,-1.005,-0.47,0.0,0.33,-0.18,-0.01,0.07
2022-02-09 17:35:10.4130,0.107,-0.215,-0.986,-0.47,0.15,0.22,-0.14,0.06,0.05
2022-02-09 17:35:10.4240,0.116,-0.236,-1.001,-0.62,0.32,0.03,-0.1,0.07,0.06
2022-02-09 17:35:10.4330,0.164,-0.239,-1.006,-1.17,0.57,0.23,-0.09,0.01,0.11
2022-02-09 17:35:10.4440,0.198,-0.237,-0.973,-1.17,0.57,0.23,-0.14,-0.07,0.16
2022-02-09 17:35:10.4530,0.185,-0.245,-0.933,-1.5,0.56,-0.1,-0.18,-0.1,0.2
2022-02-09 17:35:10.4630,0.152,-0.229,-0.921,-1.39,0.65,-0.5,-0.17,-0.1,0.2
2022-02-09 17:35:10.4740,0.143,-0.205,-0.944,-1.07,0.51,-0.61,-0.12,-0.1,0.17
2022-02-09 17:35:10.4830,0.139,-0.197,-0.928,-1.0,0.3,-0.39,0.02,0.05,0.13
2022-02-09 17:35:10.4930,0.162,-0.208,-0.887,-0.97,0.23,-0.56,0.12,0.14,0.14
2022-02-09 17:35:10.5040,0.214,-0.199,-0.856,-1.19,0.33,-0.95,0.25,0.23,0.18
2022-02-09 17:35:10.5140,0.254,-0.209,-0.854,-1.69,0.22,-1.25,0.36,0.33,0.22
2022-02-09 17:35:10.5250,0.27,-0.246,-0.806,-2.06,0.29,-1.27,0.39,0.44,0.24
2022-02-09 17:35:10.5340,0.239,-0.272,-0.738,-2.19,0.61,-1.73,0.32,0.55,0.21
2022-02-09 17:35:10.5440,0.168,-0.231,-0.673,-1.84,0.84,-2.39,0.25,0.69,0.09
2022-02-09 17:35:10.5540,0.13,-0.197,-0.702,-1.09,0.4,-3.02,0.14,0.7,-0.09
2022-02-09 17:35:10.5640,0.141,-0.15,-0.706,-0.65,0.04,-2.73,0.03,0.74,-0.21
2022-02-09 17:35:10.5740,0.221,-0.163,-0.69,-0.68,-0.43,-2.68,-0.08,0.82,-0.18
2022-02-09 17:35:10.5850,0.273,-0.226,-0.67,-1.39,-0.3,-2.83,-0.14,0.96,-0.05
2022-02-09 17:35:10.5940,0.236,-0.253,-0.705,-1.82,0.33,-3.02,-0.09,1.14,0.08
2022-02-09 17:35:10.6050,0.229,-0.234,-0.744,-1.36,0.61,-2.67,-0.0,1.32,0.1
2022-02-09 17:35:10.6140,0.195,-0.179,-0.766,-1.17,0.43,-2.27,0.06,1.36,-0.01
2022-02-09 17:35:10.6240,0.152,-0.128,-0.783,-0.71,-0.12,-2.04,0.07,1.35,-0.21
2022-02-09 17:35:10.6350,0.173,-0.111,-0.707,-0.16,-0.62,-1.86,0.05,1.42,-0.31
2022-02-09 17:35:10.6450,0.271,-0.189,-0.625,-0.23,-0.79,-2.59,-0.0,1.44,-0.28
2022-02-09 17:35:10.6550,0.302,-0.206,-0.529,-1.2,0.15,-4.29,-0.03,1.69,-0.34
2022-02-09 17:35:10.6660,0.22,-0.136,-0.356,-1.2,0.15,-4.29,-0.01,2.2,-0.49
2022-02-09 17:35:10.6750,0.176,-0.084,-0.217,-0.22,-0.53,-5.95,0.1,2.88,-0.7
2022-02-09 17:35:10.6860,0.133,-0.033,-0.107,0.44,-1.03,-7.26,0.3,3.75,-0.97
2022-02-09 17:35:10.6950,0.088,0.036,-0.024,1.17,-1.53,-8.26,0.62,4.67,-1.29
2022-02-09 17:35:10.7050,0.074,0.109,0.007,2.01,-2.22,-8.97,1.0,5.64,-1.7
2022-02-09 17:35:10.7150,0.061,0.189,0.091,2.62,-2.95,-9.1,1.37,6.54,-2.12
2022-02-09 17:35:10.7250,0.098,0.235,0.167,3.3,-3.77,-9.69,1.63,7.27,-2.57
2022-02-09 17:35:10.7360,0.128,0.334,0.252,3.57,-4.25,-10.12,1.75,7.82,-3.11
2022-02-09 17:35:10.7460,0.148,0.496,0.338,3.95,-5.22,-10.56,1.71,8.19,-3.66
2022-02-09 17:35:10.7550,0.221,0.554,0.335,4.45,-6.77,-10.92,1.59,8.28,-4.15
2022-02-09 17:35:10.7660,0.332,0.516,0.302,4.4,-7.23,-10.35,1.38,8.33,-4.34
2022-02-09 17:35:10.7750,0.466,0.408,0.318,3.22,-5.36,-8.93,1.18,8.3,-4.48
2022-02-09 17:35:10.7870,0.428,0.554,0.236,3.22,-5.36,-8.93,0.98,8.08,-4.8
2022-02-09 17:35:10.7960,0.436,0.764,0.083,4.1,-6.48,-7.44,0.77,7.67,-5.24
2022-02-09 17:35:10.8070,0.56,0.885,-0.068,4.45,-8.17,-5.24,0.47,7.12,-5.78
2022-02-09 17:35:10.8160,0.743,0.987,-0.25,3.56,-8.9,-3.09,0.17,6.5,-6.3
2022-02-09 17:35:10.8260,0.988,1.043,-0.492,2.01,-9.37,-0.65,-0.02,5.7,-6.67
2022-02-09 17:35:10.8360,1.218,1.013,-0.706,-0.26,-9.31,2.31,-0.04,4.83,-6.8
2022-02-09 17:35:10.8460,1.44,0.882,-0.94,-2.47,-8.38,4.94,0.26,3.75,-6.6
2022-02-09 17:35:10.8570,1.64,0.778,-1.126,-4.7,-6.45,7.67,0.61,3.0,-6.32
2022-02-09 17:35:10.8670,1.662,0.896,-0.895,-6.78,-4.82,9.82,0.77,2.35,-6.22
2022-02-09 17:35:10.8760,1.72,1.042,-0.727,-7.16,-5.4,7.8,0.82,2.14,-6.3
2022-02-09 17:35:10.8870,1.835,1.125,-0.521,-7.93,-6.27,6.33,0.94,2.39,-6.35
2022-02-09 17:35:10.8970,1.895,1.171,-0.311,-9.32,-6.53,4.47,1.28,2.93,-6.06
2022-02-09 17:35:10.9070,1.939,1.109,-0.146,-10.2,-6.44,2.58,1.72,3.53,-5.56
2022-02-09 17:35:10.9170,1.915,0.99,0.005,-10.93,-5.35,1.14,2.05,3.87,-5.14
2022-02-09 17:35:10.9280,1.802,0.902,0.142,-11.01,-3.74,-0.16,2.04,3.83,-4.77
2022-02-09 17:35:10.9360,1.683,0.867,0.316,-9.36,-1.8,-2.89,1.86,3.69,-4.55
2022-02-09 17:35:10.9480,1.608,0.879,0.384,-9.36,-1.8,-2.89,1.65,3.26,-4.46
2022-02-09 17:35:10.9570,1.528,0.891,0.354,-8.95,-1.6,-3.42,1.42,2.61,-4.31
2022-02-09 17:35:10.9680,1.446,0.868,0.317,-8.49,-1.41,-3.04,1.15,1.61,-4.17
2022-02-09 17:35:10.9780,1.352,0.978,0.239,-7.43,-1.73,-1.86,0.93,0.54,-4.02
2022-02-09 17:35:10.9880,1.269,1.082,0.206,-7.43,-1.73,-1.86,0.77,-0.42,-3.9
2022-02-09 17:35:10.9970,1.168,1.13,0.162,-6.93,-2.52,-1.6,0.69,-0.91,-3.76
2022-02-09 17:35:11.0080,1.13,1.109,0.058,-6.26,-2.78,-1.26,0.61,-1.01,-3.64
2022-02-09 17:35:11.0170,1.105,1.063,-0.013,-6.2,-2.38,-0.35,0.56,-1.17,-3.48
2022-02-09 17:35:11.0290,1.079,1.031,-0.146,-6.27,-1.76,0.26,0.6,-1.46,-3.29
2022-02-09 17:35:11.0370,1.097,1.016,-0.298,-6.31,-1.29,1.45,0.7,-1.77,-3.09
2022-02-09 17:35:11.0480,1.119,0.97,-0.369,-6.78,-1.01,2.82,0.76,-2.2,-2.89
2022-02-09 17:35:11.0570,1.114,0.942,-0.39,-7.28,-0.44,3.39,0.84,-2.84,-2.75
2022-02-09 17:35:11.0690,1.098,0.942,-0.422,-7.5,-0.06,3.44,0.94,-3.4,-2.56
2022-02-09 17:35:11.0790,1.15,0.909,-0.385,-7.61,0.02,3.57,1.04,-3.78,-2.19
2022-02-09 17:35:11.0890,1.158,0.863,-0.312,-8.37,0.41,3.01,1.16,-3.99,-1.75
2022-02-09 17:35:11.0990,1.116,0.808,-0.241,-8.68,0.91,2.08,1.29,-3.96,-1.3
2022-02-09 17:35:11.1150,1.027,0.774,-0.072,-7.76,1.83,-0.71,1.31,-3.61,-0.91
2022-02-09 17:35:11.1860,0.867,0.823,0.264,-4.55,0.62,-11.24,0.09,-1.01,-0.67
Time,0.677,0.897,0.971,-4.55,0.62,-11.24,0.09,-1.01,-0.67
Time,0.372,0.827,0.829,-4.55,0.62,-11.24,0.09,-1.01,-0.67
Time,0.231,0.745,0.288,-4.55,0.62,-11.24,0.09,-1.01,-0.67
Time,0.24,0.855,-0.001,-4.55,0.62,-11.24,0.09,-1.01,-0.67
Time,0.203,0.961,-0.28,-4.55,0.62,-11.24,0.09,-1.01,-0.67
Time,0.165,1.038,-0.437,-4.55,0.62,-11.24,0.09,-1.01,-0.67
2022-02-09 17:35:11.1850,0.148,1.072,-0.51,-4.55,0.62,-11.24,0.22,-1.05,-0.99
2022-02-09 17:35:11.1850,0.148,1.038,-0.475,-4.55,0.62,-11.24,0.22,-1.05,-0.99
2022-02-09 17:35:11.2130,0.163,0.997,-0.338,-4.55,0.62,-11.24,0.11,-0.8,-1.07
2022-02-09 17:35:11.2240,0.204,1.006,-0.238,-0.34,2.14,-4.58,0.11,-0.37,-0.98
2022-02-09 17:35:11.2340,0.238,1.065,-0.151,-0.77,-0.33,0.4,0.06,0.13,-0.88
2022-02-09 17:35:11.2370,0.303,1.112,-0.102,-1.2,-0.9,-0.47,-0.04,0.39,-0.8
2022-02-09 17:35:11.2480,0.409,1.215,-0.145,-1.92,-1.36,-0.95,-0.14,0.42,-0.76
2022-02-09 17:35:11.2580,0.506,1.325,-0.236,-4.04,-3.43,0.39,-0.12,0.4,-0.75
2022-02-09 17:35:11.2690,0.586,1.31,-0.294,-4.04,-3.43,0.39,-0.01,0.33,-0.68
2022-02-09 17:35:11.2790,0.619,1.208,-0.281,-5.26,-2.27,0.85,0.04,0.23,-0.58
2022-02-09 17:35:11.2900,0.546,1.111,-0.198,-4.6,-1.31,0.03,0.03,0.2,-0.48
2022-02-09 17:35:11.3070,0.482,1.109,-0.174,-4.01,-1.29,-0.21,0.03,0.2,-0.48
2022-02-09 17:35:11.3200,0.457,1.113,-0.159,-4.01,-1.29,-0.21,0.09,0.27,-0.36
2022-02-09 17:35:11.3270,0.439,1.1,-0.108,-4.01,-1.29,-0.21,0.16,0.43,-0.28
2022-02-09 17:35:11.3270,0.394,1.124,-0.061,-4.01,-1.29,-0.21,0.29,0.72,-0.24
2022-02-09 17:35:11.3360,0.336,1.16,-0.057,-4.01,-1.29,-0.21,0.44,1.0,-0.21
2022-02-09 17:35:11.3480,0.342,1.146,-0.094,-4.01,-1.29,-0.21,0.52,1.16,-0.21
2022-02-09 17:35:11.3570,0.337,1.058,-0.097,-4.01,-1.29,-0.21,0.52,1.16,-0.21
2022-02-09 17:35:11.3680,0.336,0.889,-0.075,-4.01,-1.29,-0.21,0.44,1.25,-0.19
2022-02-09 17:35:11.3770,0.373,0.768,-0.052,-4.01,-1.29,-0.21,0.31,1.18,-0.04
2022-02-09 17:35:11.3870,0.393,0.805,-0.095,-4.01,-1.29,-0.21,0.19,1.03,0.16
2022-02-09 17:35:11.3970,0.365,0.868,-0.173,-4.01,-1.29,-0.21,0.12,0.72,0.36
2022-02-09 17:35:11.4070,0.331,0.924,-0.236,-4.01,-1.29,-0.21,0.08,0.46,0.51
2022-02-09 17:35:11.4170,0.28,0.945,-0.228,-4.01,-1.29,-0.21,0.03,0.3,0.54
2022-02-09 17:35:11.4270,0.231,0.931,-0.215,-4.01,-1.29,-0.21,-0.04,0.13,0.44
2022-02-09 17:35:11.4370,0.193,0.913,-0.198,-4.01,-1.29,-0.21,-0.12,-0.06,0.33
2022-02-09 17:35:11.9980,0.191,0.899,-0.164,-2.45,-0.64,-0.3,-0.1,-0.22,0.7
2022-02-09 17:35:11.9980,0.227,0.853,-0.134,-2.45,-0.64,-0.3,-0.1,-0.22,0.7
2022-02-09 17:35:11.9980,0.26,0.834,-0.133,-2.45,-0.64,-0.3,-0.1,-0.22,0.7
2022-02-09 17:35:11.9980,0.316,0.869,-0.157,-2.45,-0.64,-0.3,-0.1,-0.22,0.7
2022-02-09 17:35:11.9980,0.354,0.905,-0.184,-2.45,-0.64,-0.3,-0.1,-0.22,0.7
2022-02-09 17:35:11.9980,0.38,0.922,-0.213,-2.45,-0.64,-0.3,-0.1,-0.22,0.7
2022-02-09 17:35:11.9980,0.402,0.95,-0.201,-2.45,-0.64,-0.3,-0.1,-0.22,0.7
2022-02-09 17:35:11.9980,0.384,1.036,-0.169,-2.45,-0.64,-0.3,-0.1,-0.22,0.7
2022-02-09 17:35:11.9980,0.36,1.049,-0.14,-2.45,-0.64,-0.3,-0.1,-0.22,0.7
2022-02-09 17:35:11.9980,0.379,1.025,-0.13,-2.45,-0.64,-0.3,-0.1,-0.22,0.7
2022-02-09 17:35:11.9980,0.384,1.041,-0.145,-2.45,-0.64,-0.3,-0.1,-0.22,0.7
2022-02-09 17:35:11.9980,0.332,0.939,-0.139,-2.45,-0.64,-0.3,-0.1,-0.22,0.7
2022-02-09 17:35:11.9980,0.35,0.812,0.009,-2.45,-0.64,-0.3,-0.1,-0.22,0.7
2022-02-09 17:35:11.9980,0.403,0.748,0.165,-2.45,-0.64,-0.3,-0.1,-0.22,0.7
2022-02-09 17:35:11.9980,0.462,0.726,0.192,-2.45,-0.64,-0.3,-0.1,-0.22,0.7
2022-02-09 17:35:11.9980,0.462,0.732,0.136,-2.45,-0.64,-0.3,-0.1,-0.22,0.7
2022-02-09 17:35:11.9980,0.463,0.775,0.085,-2.45,-0.64,-0.3,-0.1,-0.22,0.7
2022-02-09 17:35:11.9980,0.444,0.881,0.065,-2.45,-0.64,-0.3,-0.1,-0.22,0.7
2022-02-09 17:35:11.9980,0.41,1.004,-0.01,-2.45,-0.64,-0.3,-0.1,-0.22,0.7
2022-02-09 17:35:11.9980,0.346,1.139,-0.067,-2.45,-0.64,-0.3,-0.1,-0.22,0.7
2022-02-09 17:35:11.9980,0.294,1.232,-0.056,-2.45,-0.64,-0.3,-0.1,-0.22,0.7
2022-02-09 17:35:11.9980,0.231,1.24,-0.004,-2.45,-0.64,-0.3,-0.1,-0.22,0.7
2022-02-09 17:35:11.9980,0.185,1.207,0.089,-2.45,-0.64,-0.3,-0.1,-0.22,0.7
2022-02-09 17:35:11.9980,0.192,1.189,0.202,-2.45,-0.64,-0.3,-0.1,-0.22,0.7
2022-02-09 17:35:11.9980,0.218,1.178,0.263,-2.45,-0.64,-0.3,-0.1,-0.22,0.7
2022-02-09 17:35:11.9980,0.275,1.209,0.249,-2.45,-0.64,-0.3,-0.1,-0.22,0.7
2022-02-09 17:35:11.9980,0.302,1.256,0.218,-2.45,-0.64,-0.3,-0.1,-0.22,0.7
2022-02-09 17:35:11.9980,0.339,1.274,0.146,-2.45,-0.64,-0.3,-0.1,-0.22,0.7
Time,0.351,1.259,0.068,-2.45,-0.64,-0.3,-0.1,-0.22,0.7
Time,0.384,1.218,0.021,-2.45,-0.64,-0.3,-0.1,-0.22,0.7
Time,0.436,1.161,-0.05,-2.45,-0.64,-0.3,-0.1,-0.22,0.7
Time,0.473,1.125,-0.109,-2.45,-0.64,-0.3,-0.1,-0.22,0.7
Time,0.498,1.063,-0.095,-2.45,-0.64,-0.3,-0.1,-0.22,0.7
Time,0.495,0.972,-0.054,-2.45,-0.64,-0.3,-0.1,-0.22,0.7
Time,0.499,0.868,0.004,-2.45,-0.64,-0.3,-0.1,-0.22,0.7
Time,0.49,0.76,0.082,-2.45,-0.64,-0.3,-0.1,-0.22,0.7
Time,0.452,0.696,0.147,-2.45,-0.64,-0.3,-0.1,-0.22,0.7
Time,0.405,0.675,0.144,-2.45,-0.64,-0.3,-0.1,-0.22,0.7
Time,0.364,0.659,0.126,-2.45,-0.64,-0.3,-0.1,-0.22,0.7
Time,0.339,0.626,0.09,-2.45,-0.64,-0.3,-0.1,-0.22,0.7
Time,0.342,0.603,0.056,-2.45,-0.64,-0.3,-0.1,-0.22,0.7
Time,0.351,0.606,0.049,-2.45,-0.64,-0.3,-0.1,-0.22,0.7
Time,0.358,0.568,0.022,-2.45,-0.64,-0.3,-0.1,-0.22,0.7
2022-02-09 17:35:12.0130,0.379,0.529,0.024,-2.45,-0.64,-0.3,-0.04,-0.26,0.6
2022-02-09 17:35:12.0180,0.388,0.541,0.046,-2.45,-0.64,-0.3,0.02,-0.32,0.4
2022-02-09 17:35:12.0180,0.376,0.549,0.069,-2.45,-0.64,-0.3,0.02,-0.32,0.4
2022-02-09 17:35:12.0220,0.34,0.568,0.108,-2.45,-0.64,-0.3,0.01,-0.31,0.25
2022-02-09 17:35:12.0220,0.299,0.575,0.124,-2.45,-0.64,-0.3,-0.01,-0.34,0.11
2022-02-09 17:35:12.0280,0.321,0.581,0.096,-2.45,-0.64,-0.3,-0.01,-0.43,0.02
2022-02-09 17:35:12.0300,0.357,0.587,0.066,-2.45,-0.64,-0.3,0.01,-0.47,-0.06
2022-02-09 17:35:12.0400,0.352,0.588,0.063,-2.45,-0.64,-0.3,0.04,-0.49,-0.15
2022-02-09 17:35:12.0400,0.346,0.589,0.071,-2.45,-0.64,-0.3,0.03,-0.53,-0.24
2022-02-09 17:35:12.0450,0.347,0.584,0.074,-2.45,-0.64,-0.3,0.01,-0.58,-0.33
2022-02-09 17:35:12.0440,0.357,0.573,0.058,-2.45,-0.64,-0.3,0.0,-0.66,-0.4
2022-02-09 17:35:12.0530,0.394,0.548,0.043,-2.45,-0.64,-0.3,-0.01,-0.77,-0.45
2022-02-09 17:35:12.0510,0.412,0.543,0.049,-2.45,-0.64,-0.3,-0.03,-0.87,-0.51
2022-02-09 17:35:12.0610,0.426,0.552,0.054,-2.45,-0.64,-0.3,-0.04,-0.94,-0.55
2022-02-09 17:35:12.0630,0.474,0.545,0.05,-2.45,-0.64,-0.3,-0.04,-1.0,-0.58
2022-02-09 17:35:12.0690,0.506,0.539,0.06,-2.45,-0.64,-0.3,-0.04,-1.08,-0.64
2022-02-09 17:35:12.0690,0.539,0.552,0.075,-2.45,-0.64,-0.3,-0.08,-1.22,-0.71
2022-02-09 17:35:12.0750,0.56,0.562,0.088,-2.45,-0.64,-0.3,-0.18,-1.43,-0.81
2022-02-09 17:35:12.0780,0.578,0.565,0.093,-2.45,-0.64,-0.3,-0.3,-1.63,-0.91
2022-02-09 17:35:12.0840,0.588,0.555,0.074,-2.45,-0.64,-0.3,-0.38,-1.77,-0.99
2022-02-09 17:35:12.0850,0.605,0.548,0.042,-2.45,-0.64,-0.3,-0.36,-1.75,-1.05
2022-02-09 17:35:12.0950,0.619,0.542,0.012,-2.45,-0.64,-0.3,-0.27,-1.6,-1.12
2022-02-09 17:35:12.0910,0.613,0.546,-0.021,-2.45,-0.64,-0.3,-0.14,-1.35,-1.19
Time,0.57,0.598,-0.04,-2.45,-0.64,-0.3,0.04,-0.98,-1.28
2022-02-09 17:35:12.1150,0.517,0.655,-0.033,-2.45,-0.64,-0.3,0.22,-0.58,-1.42
2022-02-09 17:35:12.1350,0.478,0.702,-0.033,-2.45,-0.64,-0.3,0.42,-0.13,-1.56
2022-02-09 17:35:12.1430,0.477,0.735,-0.028,-2.45,-0.64,-0.3,0.65,0.31,-1.71
2022-02-09 17:35:12.1570,0.512,0.743,0.018,-2.45,-0.64,-0.3,0.85,0.74,-1.83
2022-02-09 17:35:12.1630,0.575,0.724,0.071,-2.45,-0.64,-0.3,0.98,1.12,-1.9
2022-02-09 17:35:12.1730,0.67,0.673,0.134,-2.45,-0.64,-0.3,0.98,1.12,-1.9
2022-02-09 17:35:12.1830,0.764,0.583,0.177,-2.45,-0.64,-0.3,1.07,1.76,-1.66
2022-02-09 17:35:12.1940,0.806,0.482,0.188,-2.45,-0.64,-0.3,1.1,1.89,-1.36
2022-02-09 17:35:12.2060,0.748,0.388,0.174,-2.45,-0.64,-0.3,1.13,2.05,-1.07
2022-02-09 17:35:12.2140,0.639,0.346,0.187,-2.45,-0.64,-0.3,1.26,2.35,-0.79
2022-02-09 17:35:12.2190,0.533,0.336,0.149,-2.45,-0.64,-0.3,1.53,2.64,-0.51
2022-02-09 17:35:12.2270,0.444,0.385,0.076,-2.45,-0.64,-0.3,1.62,2.75,-0.3
2022-02-09 17:35:12.2440,0.401,0.557,0.021,-2.45,-0.64,-0.3,1.47,2.69,-0.28
2022-02-09 17:35:12.2560,0.372,0.762,-0.118,-2.45,-0.64,-0.3,1.38,2.49,-0.29
2022-02-09 17:35:12.2640,0.406,0.857,-0.206,-2.45,-0.64,-0.3,1.33,2.28,-0.23
2022-02-09 17:35:12.2760,0.509,0.914,-0.175,-2.45,-0.64,-0.3,0.9,1.84,-0.08
Time,0.6,1.012,-0.07,-2.45,-0.64,-0.3,0.62,1.26,0.16
2022-02-09 17:35:12.2990,0.646,1.225,-0.439,-2.45,-0.64,-0.3,0.78,1.08,0.31
2022-02-09 17:35:12.3050,0.587,1.428,-0.737,-2.45,-0.64,-0.3,0.8,0.46,0.27
2022-02-09 17:35:12.3170,0.492,1.641,-0.521,-2.45,-0.64,-0.3,0.51,-0.29,0.22
2022-02-09 17:35:12.3240,0.598,1.665,-0.035,-2.45,-0.64,-0.3,-0.22,-0.67,0.22
2022-02-09 17:35:12.3360,0.783,1.416,0.307,-2.45,-0.64,-0.3,-0.6,-0.72,0.3
2022-02-09 17:35:12.3490,0.771,1.187,0.047,-2.45,-0.64,-0.3,-0.42,-0.27,0.43
2022-02-09 17:35:12.3550,0.685,1.194,-0.213,-2.45,-0.64,-0.3,-0.14,0.35,0.59
2022-02-09 17:35:12.3650,0.615,1.301,-0.294,-2.45,-0.64,-0.3,0.14,0.77,0.66
2022-02-09 17:35:12.3770,0.505,1.376,-0.312,-2.45,-0.64,-0.3,0.3,0.93,0.48
2022-02-09 17:35:12.3870,0.385,1.435,-0.292,-2.45,-0.64,-0.3,0.25,0.75,0.15
2022-02-09 17:35:12.3990,0.368,1.376,-0.27,-2.45,-0.64,-0.3,0.1,0.35,-0.1
2022-02-09 17:35:12.4050,0.469,1.234,-0.245,-2.12,-0.78,-0.52,-0.01,0.02,-0.28
2022-02-09 17:35:12.4170,0.544,1.16,-0.165,-2.12,-0.78,-0.52,-0.06,-0.15,-0.37
Time,0.575,1.082,-0.083,-2.12,-0.78,-0.52,-0.08,-0.2,-0.4
2022-02-09 17:35:12.4360,0.58,1.018,-0.074,-2.12,-0.78,-0.52,-0.04,-0.14,-0.4
Time,0.602,0.948,-0.082,-2.12,-0.78,-0.52,-0.04,-0.09,-0.37
2022-02-09 17:35:12.4560,0.621,0.862,-0.067,-2.12,-0.78,-0.52,-0.04,-0.07,-0.29
2022-02-09 17:35:12.4700,0.632,0.781,-0.063,-2.12,-0.78,-0.52,-0.04,-0.07,-0.29
2022-02-09 17:35:12.4760,0.642,0.715,-0.059,-2.12,-0.78,-0.52,-0.06,-0.01,-0.05
2022-02-09 17:35:12.4890,0.644,0.655,-0.025,-2.12,-0.78,-0.52,-0.14,-0.0,0.13
2022-02-09 17:35:12.4960,0.656,0.568,0.054,-2.12,-0.78,-0.52,-0.29,0.01,0.34
2022-02-09 17:35:12.5080,0.682,0.473,0.07,-2.12,-0.78,-0.52,-0.41,0.03,0.59
2022-02-09 17:35:12.5160,0.681,0.41,0.082,-2.12,-0.78,-0.52,-0.59,0.04,0.83
2022-02-09 17:35:12.5290,0.654,0.352,0.213,-2.12,-0.78,-0.52,-0.9,-0.06,1.06
2022-02-09 17:35:12.5370,0.624,0.318,0.303,-2.12,-0.78,-0.52,-1.14,-0.14,1.26
2022-02-09 17:35:12.5460,0.609,0.341,0.239,-2.12,-0.78,-0.52,-1.31,-0.13,1.48
2022-02-09 17:35:12.5580,0.608,0.347,0.183,-2.12,-0.78,-0.52,-1.48,-0.15,1.69
2022-02-09 17:35:12.5660,0.607,0.366,0.13,-2.12,-0.78,-0.52,-1.59,-0.29,1.89
2022-02-09 17:35:12.5770,0.598,0.413,0.098,-2.12,-0.78,-0.52,-1.62,-0.5,2.09
Time,0.596,0.47,0.132,-2.12,-0.78,-0.52,-1.55,-0.58,2.31
2022-02-09 17:35:12.5970,0.564,0.55,0.17,-2.12,-0.78,-0.52,-1.37,-0.4,2.5
2022-02-09 17:35:12.6110,0.553,0.644,0.146,-2.12,-0.78,-0.52,-1.14,-0.07,2.69
2022-02-09 17:35:12.6170,0.557,0.772,0.095,-2.12,-0.78,-0.52,-0.95,0.15,2.85
2022-02-09 17:35:12.6290,0.515,0.958,0.118,-2.12,-0.78,-0.52,-0.89,0.2,2.95
2022-02-09 17:35:12.6410,0.435,1.205,0.191,-2.12,-0.78,-0.52,-0.83,0.24,2.85
2022-02-09 17:35:12.6470,0.373,1.452,0.078,-2.12,-0.78,-0.52,-0.58,0.22,2.47
2022-02-09 17:35:12.6600,0.347,1.621,-0.246,-2.12,-0.78,-0.52,-0.4,-0.05,1.74
2022-02-09 17:35:12.6670,0.375,1.682,-0.429,-2.12,-0.78,-0.52,-0.21,-0.48,0.97
2022-02-09 17:35:12.6780,0.443,1.669,-0.444,-2.12,-0.78,-0.52,0.02,-0.99,0.31
Time,0.551,1.584,-0.366,-2.12,-0.78,-0.52,0.17,-1.39,-0.22
2022-02-09 17:35:12.6980,0.703,1.397,-0.245,-2.12,-0.78,-0.52,0.2,-1.61,-0.56
2022-02-09 17:35:12.7080,0.887,1.209,-0.158,-2.12,-0.78,-0.52,0.25,-1.61,-0.67
Time,1.053,1.07,-0.096,-2.12,-0.78,-0.52,0.34,-1.43,-0.57
2022-02-09 17:35:12.7280,1.091,0.955,-0.002,-2.12,-0.78,-0.52,0.39,-1.14,-0.4
2022-02-09 17:35:12.7410,0.985,0.896,0.099,-2.12,-0.78,-0.52,0.38,-0.84,-0.32
2022-02-09 17:35:12.7480,0.816,0.899,0.155,-2.12,-0.78,-0.52,0.34,-0.57,-0.38
2022-02-09 17:35:12.7600,0.685,0.919,0.158,-2.2,-0.54,-0.52,0.28,-0.38,-0.51
Time,0.595,0.887,0.143,-2.2,-0.54,-0.52,0.25,-0.22,-0.65
2022-02-09 17:35:12.7780,0.55,0.794,0.137,-2.2,-0.54,-0.52,0.24,-0.08,-0.79
2022-02-09 17:35:12.7920,0.52,0.693,0.151,-2.2,-0.54,-0.52,0.25,0.09,-0.92
2022-02-09 17:35:12.7980,0.48,0.611,0.166,-2.2,-0.54,-0.52,0.3,0.3,-1.02
2022-02-09 17:35:12.8130,0.432,0.55,0.183,-2.2,-0.54,-0.52,0.35,0.49,-1.15
2022-02-09 17:35:12.8180,0.389,0.494,0.2,-2.2,-0.54,-0.52,0.37,0.63,-1.29
2022-02-09 17:35:12.8310,0.378,0.454,0.187,-2.2,-0.54,-0.52,0.4,0.68,-1.39
Time,0.376,0.428,0.131,-2.2,-0.54,-0.52,0.42,0.58,-1.5
2022-02-09 17:35:12.8490,0.387,0.408,0.084,-2.2,-0.54,-0.52,0.43,0.46,-1.61
2022-02-09 17:35:12.8620,0.435,0.402,0.073,-2.2,-0.54,-0.52,0.44,0.4,-1.65
2022-02-09 17:35:12.8690,0.479,0.407,0.079,-2.2,-0.54,-0.52,0.44,0.4,-1.65
2022-02-09 17:35:12.8790,0.466,0.451,0.061,-2.2,-0.54,-0.52,0.45,0.13,-1.8
2022-02-09 17:35:12.8900,0.456,0.519,0.009,-2.2,-0.54,-0.52,0.45,0.13,-1.8
2022-02-09 17:35:12.9030,0.419,0.594,-0.05,-2.2,-0.54,-0.52,0.53,-0.19,-2.1
2022-02-09 17:35:12.9090,0.401,0.642,-0.077,-2.2,-0.54,-0.52,0.54,-0.35,-2.29
2022-02-09 17:35:12.9220,0.422,0.686,-0.072,-2.2,-0.54,-0.52,0.47,-0.5,-2.42
2022-02-09 17:35:12.9290,0.43,0.703,-0.017,-2.2,-0.54,-0.52,0.37,-0.52,-2.41
2022-02-09 17:35:12.9400,0.467,0.671,0.04,-2.2,-0.54,-0.52,0.28,-0.43,-2.27
2022-02-09 17:35:12.9530,0.547,0.624,0.085,-2.2,-0.54,-0.52,0.17,-0.29,-2.09
2022-02-09 17:35:12.9590,0.579,0.651,0.088,-2.2,-0.54,-0.52,0.12,-0.12,-1.91
2022-02-09 17:35:12.9720,0.606,0.65,0.055,-2.2,-0.54,-0.52,0.16,0.06,-1.67
2022-02-09 17:35:12.9720,0.621,0.625,0.02,-2.2,-0.54,-0.52,0.21,0.25,-1.42
Time,0.613,0.614,-0.009,-2.13,-0.7,-0.28,0.22,0.31,-1.19
2022-02-09 17:35:12.9990,0.618,0.628,0.011,-2.13,-0.7,-0.28,0.19,0.26,-1.0
2022-02-09 17:35:13.0100,0.659,0.658,0.094,-2.13,-0.7,-0.28,0.12,0.14,-0.8
2022-02-09 17:35:13.0230,0.709,0.702,0.144,-2.13,-0.7,-0.28,0.12,0.14,-0.8
2022-02-09 17:35:13.0300,0.759,0.767,-0.076,-2.13,-0.7,-0.28,0.46,-0.0,-0.31
2022-02-09 17:35:13.0420,0.716,0.903,-0.411,-2.13,-0.7,-0.28,1.03,0.47,-0.11
2022-02-09 17:35:13.0500,0.58,0.981,-0.487,-2.13,-0.7,-0.28,1.38,1.03,0.09
2022-02-09 17:35:13.0630,0.452,1.027,-0.072,-2.13,-0.7,-0.28,0.93,1.31,0.22
2022-02-09 17:35:13.0700,0.251,1.128,0.349,-2.13,-0.7,-0.28,0.26,0.61,0.12
2022-02-09 17:35:13.0820,0.04,1.287,0.134,-2.13,-0.7,-0.28,0.32,0.08,-0.07
2022-02-09 17:35:13.0900,0.041,1.369,-0.354,-2.13,-0.7,-0.28,0.65,0.65,-0.24
2022-02-09 17:35:13.1030,0.077,1.46,-0.382,-2.13,-0.7,-0.28,0.86,1.14,-0.37
2022-02-09 17:35:13.1100,0.183,1.585,-0.415,-2.13,-0.7,-0.28,0.91,0.84,-0.45
2022-02-09 17:35:13.1220,0.327,1.682,-0.541,-2.13,-0.7,-0.28,0.62,-0.01,-0.58
2022-02-09 17:35:13.1340,0.46,1.607,-0.39,-2.13,-0.7,-0.28,0.05,-0.86,-0.63
2022-02-09 17:35:13.1410,0.68,1.411,-0.084,-2.13,-0.7,-0.28,-0.47,-1.38,-0.47
2022-02-09 17:35:13.1530,0.833,1.247,0.02,-2.13,-0.7,-0.28,-0.56,-1.42,-0.29
Time,0.783,1.271,-0.237,-1.49,0.3,-0.22,-0.25,-0.93,-0.19
2022-02-09 17:35:13.1720,0.695,1.365,-0.331,-1.49,0.3,-0.22,0.02,-0.3,-0.07
2022-02-09 17:35:13.1860,0.629,1.341,-0.247,-1.49,0.3,-0.22,0.19,0.27,0.03
2022-02-09 17:35:13.1910,0.572,1.282,-0.207,-1.49,0.3,-0.22,0.3,0.69,0.04
2022-02-09 17:35:13.2010,0.482,1.25,-0.245,-1.49,0.3,-0.22,0.41,0.99,-0.06
2022-02-09 17:35:13.2130,0.405,1.224,-0.262,-1.49,0.3,-0.22,0.48,1.24,-0.22
Time,0.395,1.165,-0.223,-1.49,0.3,-0.22,0.54,1.43,-0.32
2022-02-09 17:35:13.2310,0.463,1.071,-0.174,-1.49,0.3,-0.22,0.56,1.58,-0.32
2022-02-09 17:35:13.2450,0.55,0.99,-0.119,-1.49,0.3,-0.22,0.5,1.66,-0.21
2022-02-09 17:35:13.2520,0.625,0.922,-0.074,-1.49,0.3,-0.22,0.42,1.67,-0.01
2022-02-09 17:35:13.2640,0.672,0.852,-0.044,-1.49,0.3,-0.22,0.36,1.61,0.26
2022-02-09 17:35:13.2720,0.679,0.773,-0.031,-1.49,0.3,-0.22,0.32,1.54,0.54
2022-02-09 17:35:13.2820,0.674,0.697,-0.039,-1.52,1.54,-1.55,0.31,1.51,0.8
2022-02-09 17:35:13.2930,0.654,0.638,-0.04,-1.52,1.54,-1.55,0.24,1.46,1.03
2022-02-09 17:35:13.3030,0.604,0.601,-0.029,-1.52,1.54,-1.55,0.14,1.36,1.22
Time,0.583,0.577,-0.078,-1.52,1.54,-1.55,0.08,1.2,1.38
2022-02-09 17:35:13.3220,0.503,0.567,-0.114,-1.52,1.54,-1.55,0.02,1.01,1.46
2022-02-09 17:35:13.3350,0.365,0.581,-0.059,-1.52,1.54,-1.55,-0.08,0.89,1.45
Time,0.254,0.592,0.025,-1.52,1.54,-1.55,-0.18,0.84,1.33
2022-02-09 17:35:13.3530,0.192,0.615,0.028,-1.52,1.54,-1.55,-0.23,0.81,1.22
2022-02-09 17:35:13.3660,0.197,0.634,-0.05,-1.89,2.16,-2.94,-0.23,0.78,1.13
2022-02-09 17:35:13.3730,0.182,0.621,-0.091,-1.89,2.16,-2.94,-0.24,0.83,0.99
2022-02-09 17:35:13.3850,0.123,0.592,-0.066,-1.89,2.16,-2.94,-0.26,0.93,0.82
Time,0.084,0.591,-0.042,-2.29,2.35,-3.05,-0.28,0.98,0.65
Time,0.067,0.584,0.012,-2.29,2.35,-3.05,-0.42,0.87,0.49
2022-02-09 17:35:31.6880,0.111,0.542,0.049,-2.29,2.35,-3.05,-0.42,0.87,0.49
2022-02-09 17:35:31.7180,0.243,0.487,-0.02,3.56,1.66,-0.46,-0.63,0.3,0.41
Time,0.325,0.434,-0.057,0.1,2.11,0.1,-0.7,0.11,0.44
2022-02-09 17:35:31.6970,0.376,0.419,0.013,-1.75,5.15,-2.59,-0.88,-0.07,0.53
2022-02-09 17:35:31.6970,0.451,0.431,0.135,-1.35,5.44,-3.38,-1.09,-0.25,0.67
2022-02-09 17:35:31.6870,0.544,0.451,0.069,-1.35,5.44,-3.38,-1.13,-0.28,0.86
2022-02-09 17:35:13.3930,0.603,0.452,0.005,-1.35,5.44,-3.38,-1.27,-0.26,1.06
2022-02-09 17:35:31.7190,0.603,0.452,0.146,-1.35,5.44,-3.38,-1.58,-0.27,1.28
2022-02-09 17:35:31.7280,0.622,0.463,0.264,-1.09,5.15,-2.66,-1.86,-0.28,1.5
Time,0.711,0.504,0.269,-1.09,5.15,-2.66,-2.02,-0.24,1.8
2022-02-09 17:35:31.7530,0.893,0.527,0.221,-1.09,5.15,-2.66,-2.08,-0.15,2.2
Time,0.989,0.557,0.254,-1.09,5.15,-2.66,-2.07,-0.13,2.63
2022-02-09 17:35:31.7520,0.961,0.663,0.229,-1.09,5.15,-2.66,-1.98,-0.18,2.95
2022-02-09 17:35:31.7600,0.861,0.831,0.151,-0.95,5.02,-2.01,-1.84,-0.23,3.07
2022-02-09 17:35:31.7550,0.713,1.02,0.058,-0.95,5.02,-2.01,-1.65,-0.21,2.96
2022-02-09 17:35:31.7550,0.528,1.235,-0.014,-0.35,3.5,-1.17,-1.49,-0.26,2.71
2022-02-09 17:35:31.7690,0.415,1.417,-0.017,3.09,-7.16,-0.14,-1.38,-0.49,2.28
2022-02-09 17:35:31.7610,0.423,1.487,-0.054,3.09,-7.16,-0.14,-1.29,-0.81,1.8
Time,0.531,1.437,-0.063,3.09,-7.16,-0.14,-1.08,-1.13,1.44
2022-02-09 17:35:31.7580,0.63,1.451,-0.03,3.09,-7.16,-0.14,-0.84,-1.39,1.16
2022-02-09 17:35:31.7650,0.712,1.536,0.022,3.09,-7.16,-0.14,-0.63,-1.51,0.86
2022-02-09 17:35:31.7600,0.836,1.605,0.036,3.5,-8.97,3.09,-0.42,-1.48,0.53
2022-02-09 17:35:31.7770,1.032,1.565,-0.017,3.34,-9.68,4.89,-0.27,-1.55,0.31
2022-02-09 17:35:31.7700,1.249,1.401,-0.02,3.34,-9.68,4.89,-0.25,-1.76,0.07
2022-02-09 17:35:31.7730,1.283,1.175,-0.002,3.34,-9.68,4.89,-0.27,-1.85,-0.15
2022-02-09 17:35:31.7780,1.268,0.992,0.012,3.34,-9.68,4.89,-0.2,-1.86,-0.28
2022-02-09 17:35:31.7710,1.203,0.853,0.016,2.72,-9.62,5.01,-0.09,-1.79,-0.3
2022-02-09 17:35:31.7750,1.077,0.712,0.062,2.72,-9.62,5.01,0.02,-1.57,-0.25
2022-02-09 17:35:31.7780,0.897,0.607,0.125,2.72,-9.62,5.01,0.12,-1.21,-0.19
2022-02-09 17:35:31.7790,0.696,0.552,0.175,2.72,-9.62,5.01,0.22,-0.81,-0.2
2022-02-09 17:35:31.7820,0.522,0.546,0.205,2.72,-9.62,5.01,0.29,-0.42,-0.3
2022-02-09 17:35:31.7780,0.389,0.561,0.204,2.72,-9.62,5.01,0.36,-0.07,-0.46
2022-02-09 17:35:31.7790,0.322,0.555,0.176,1.68,-8.79,4.16,0.46,0.22,-0.62
2022-02-09 17:35:31.7810,0.31,0.53,0.131,1.68,-8.79,4.16,0.58,0.45,-0.82
2022-02-09 17:35:31.7820,0.319,0.506,0.092,1.68,-8.79,4.16,0.69,0.59,-1.03
2022-02-09 17:35:31.7830,0.347,0.452,0.052,1.68,-8.79,4.16,0.81,0.65,-1.22
2022-02-09 17:35:31.7880,0.405,0.408,-0.014,1.68,-8.79,4.16,0.96,0.67,-1.36
Time,0.457,0.4,-0.058,1.68,-8.79,4.16,1.11,0.63,-1.48
2022-02-09 17:35:31.7840,0.484,0.396,-0.053,0.18,-6.93,2.86,1.17,0.55,-1.58
Time,0.489,0.392,-0.02,0.18,-6.93,2.86,1.15,0.41,-1.67
Time,0.476,0.394,0.0,0.18,-6.93,2.86,1.15,0.41,-1.67
2022-02-09 17:35:31.7880,0.46,0.403,0.009,0.18,-6.93,2.86,1.01,0.06,-1.76
2022-02-09 17:35:31.7900,0.42,0.417,0.027,0.18,-6.93,2.86,0.96,-0.03,-1.85
2022-02-09 17:35:31.7880,0.351,0.42,0.056,0.18,-6.93,2.86,0.92,-0.02,-1.93
2022-02-09 17:35:31.7950,0.31,0.412,0.059,0.18,-6.93,2.86,0.92,0.02,-1.95
2022-02-09 17:35:31.7960,0.3,0.436,-0.001,-1.65,-5.05,1.88,0.98,0.03,-1.96
2022-02-09 17:35:31.7930,0.301,0.509,-0.053,-1.65,-5.05,1.88,1.03,0.02,-2.06
Time,0.314,0.608,-0.086,-1.65,-5.05,1.88,1.04,-0.07,-2.21
2022-02-09 17:35:31.7940,0.392,0.662,-0.103,-1.65,-5.05,1.88,1.03,-0.22,-2.3
2022-02-09 17:35:31.7930,0.467,0.632,-0.068,-1.65,-5.05,1.88,1.0,-0.27,-2.33
2022-02-09 17:35:31.7960,0.524,0.57,0.014,-1.65,-5.05,1.88,0.97,-0.17,-2.29
Time,0.568,0.549,0.06,-3.32,-3.64,1.13,0.95,0.07,-2.19
2022-02-09 17:35:31.7980,0.619,0.561,0.072,-3.32,-3.64,1.13,0.83,0.26,-2.07
2022-02-09 17:35:31.7990,0.655,0.568,0.098,-3.32,-3.64,1.13,0.66,0.32,-1.87
2022-02-09 17:35:31.7970,0.695,0.568,0.059,-3.32,-3.64,1.13,0.74,0.32,-1.72
2022-02-09 17:35:31.8040,0.693,0.633,-0.101,-3.32,-3.64,1.13,0.87,0.51,-1.59
Time,0.769,0.774,-0.131,-3.32,-3.64,1.13,0.98,0.75,-1.38
2022-02-09 17:35:31.8000,0.851,0.934,-0.173,-3.73,-2.47,0.1,0.85,0.79,-1.05
2022-02-09 17:35:31.8030,0.97,1.008,0.125,-3.73,-2.47,0.1,0.18,0.7,-0.59
2022-02-09 17:35:31.8040,0.853,1.084,0.293,-3.73,-2.47,0.1,-0.11,0.31,-0.41
2022-02-09 17:35:31.8040,0.513,1.337,-0.262,-3.73,-2.47,0.1,0.27,0.44,-0.39
2022-02-09 17:35:31.8050,0.432,1.594,-0.393,-3.73,-2.47,0.1,0.05,0.41,-0.4
2022-02-09 17:35:31.8110,0.324,1.742,0.092,-3.73,-2.47,0.1,-0.53,0.31,-0.59
2022-02-09 17:35:31.8110,0.24,1.656,0.033,-3.73,-2.47,0.1,-0.45,0.61,-0.77
Time,0.406,1.613,-0.29,-3.73,-2.47,0.1,-0.47,0.24,-0.66
2022-02-09 17:35:31.8090,0.647,1.545,-0.215,-3.73,-2.47,0.1,-0.66,-0.13,-0.42
2022-02-09 17:35:31.8080,0.784,1.363,-0.259,-3.73,-2.47,0.1,-0.52,-0.18,-0.14
2022-02-09 17:35:31.8090,0.818,1.296,-0.294,-3.73,-2.47,0.1,-0.25,0.06,0.14
2022-02-09 17:35:31.8100,0.68,1.349,-0.291,-3.73,-2.47,0.1,-0.02,0.35,0.23
2022-02-09 17:35:31.8110,0.52,1.409,-0.363,-3.73,-2.47,0.1,0.19,0.43,0.18
2022-02-09 17:35:31.8180,0.454,1.419,-0.435,-2.72,-1.87,-1.0,0.29,0.34,0.05
2022-02-09 17:35:31.8130,0.381,1.416,-0.384,-2.72,-1.87,-1.0,0.28,0.14,-0.14
2022-02-09 17:35:31.8170,0.32,1.36,-0.255,-2.72,-1.87,-1.0,0.23,0.04,-0.31
2022-02-09 17:35:31.8170,0.317,1.254,-0.133,-2.72,-1.87,-1.0,0.23,0.15,-0.45
2022-02-09 17:35:31.8170,0.343,1.168,-0.127,-2.72,-1.87,-1.0,0.29,0.31,-0.53
2022-02-09 17:35:31.8200,0.37,1.112,-0.134,-2.72,-1.87,-1.0,0.34,0.4,-0.55
Time,0.39,1.063,-0.127,-2.72,-1.87,-1.0,0.4,0.49,-0.56
2022-02-09 17:35:31.8230,0.409,1.021,-0.115,-2.72,-1.87,-1.0,0.43,0.54,-0.58
2022-02-09 17:35:31.8230,0.407,0.989,-0.104,-2.72,-1.87,-1.0,0.43,0.54,-0.58
Time,0.402,0.953,-0.124,-2.72,-1.87,-1.0,0.46,0.5,-0.65
2022-02-09 17:35:31.8260,0.403,0.896,-0.151,-2.72,-1.87,-1.0,0.46,0.41,-0.68
2022-02-09 17:35:31.8260,0.426,0.825,-0.152,-2.72,-1.87,-1.0,0.42,0.26,-0.68
2022-02-09 17:35:31.8340,0.442,0.754,-0.108,-2.72,-1.87,-1.0,0.32,0.09,-0.65
2022-02-09 17:35:31.8290,0.44,0.688,-0.041,-2.72,-1.87,-1.0,0.19,-0.05,-0.59
Time,0.428,0.65,-0.018,-2.72,-1.87,-1.0,0.08,-0.1,-0.52
2022-02-09 17:35:31.8300,0.42,0.631,-0.032,-2.72,-1.87,-1.0,0.01,-0.06,-0.46
2022-02-09 17:35:31.8310,0.399,0.619,-0.039,-2.72,-1.87,-1.0,-0.04,-0.01,-0.4
2022-02-09 17:35:31.8350,0.391,0.61,-0.05,-1.09,-1.88,-1.63,-0.06,0.04,-0.39
2022-02-09 17:35:31.8350,0.396,0.606,-0.072,-1.09,-1.88,-1.63,-0.05,0.08,-0.38
2022-02-09 17:35:31.8360,0.416,0.571,-0.051,-1.09,-1.88,-1.63,-0.05,0.17,-0.34
2022-02-09 17:35:31.8360,0.449,0.5,0.023,-1.09,-1.88,-1.63,-0.13,0.27,-0.26
2022-02-09 17:35:31.8370,0.471,0.44,0.126,-1.09,-1.88,-1.63,-0.3,0.26,-0.17
2022-02-09 17:35:31.8400,0.469,0.398,0.105,-1.09,-1.88,-1.63,-0.34,0.2,-0.08
2022-02-09 17:35:31.8410,0.456,0.366,-0.054,-1.09,-1.88,-1.63,-0.28,0.17,0.04
2022-02-09 17:35:31.8420,0.438,0.35,-0.107,-1.09,-1.88,-1.63,-0.31,0.06,0.19
2022-02-09 17:35:31.8420,0.45,0.362,-0.008,-1.09,-1.88,-1.63,-0.5,-0.11,0.36
2022-02-09 17:35:31.8430,0.469,0.38,0.081,-1.09,-1.88,-1.63,-0.67,-0.28,0.52
Time,0.49,0.406,0.016,-1.09,-1.88,-1.63,-0.74,-0.38,0.68
2022-02-09 17:35:31.8450,0.519,0.433,-0.024,-1.09,-1.88,-1.63,-0.89,-0.47,0.91
2022-02-09 17:35:31.8460,0.552,0.464,0.056,-1.09,-1.88,-1.63,-1.2,-0.55,1.19
2022-02-09 17:35:31.8470,0.59,0.471,0.196,-1.09,-1.88,-1.63,-1.58,-0.58,1.52
2022-02-09 17:35:31.8470,0.605,0.441,0.27,-1.09,-1.88,-1.63,-1.89,-0.59,1.83
2022-02-09 17:35:31.8490,0.606,0.443,0.227,-1.09,-1.88,-1.63,-2.06,-0.57,2.08
2022-02-09 17:35:31.8490,0.62,0.493,0.192,-1.09,-1.88,-1.63,-2.16,-0.51,2.3
Time,0.629,0.552,0.165,-1.09,-1.88,-1.63,-2.14,-0.35,2.46
2022-02-09 17:35:31.8490,0.626,0.643,0.092,-1.09,-1.88,-1.63,-1.99,-0.19,2.54
2022-02-09 17:35:31.8520,0.629,0.796,0.064,-1.09,-1.88,-1.63,-1.77,-0.08,2.65
2022-02-09 17:35:31.8530,0.602,0.944,0.109,-1.09,-1.88,-1.63,-1.65,-0.03,2.78
2022-02-09 17:35:31.8520,0.53,1.146,0.234,-1.09,-1.88,-1.63,-1.6,0.06,2.85
2022-02-09 17:35:31.8560,0.452,1.494,0.23,-1.09,-1.88,-1.63,-1.4,0.2,2.6
2022-02-09 17:35:31.8560,0.305,1.842,0.008,-1.09,-1.88,-1.63,-1.25,0.28,2.05
2022-02-09 17:35:31.8570,0.237,1.858,-0.204,-1.09,-1.88,-1.63,-0.98,0.21,1.61
Time,0.286,1.799,-0.327,-1.09,-1.88,-1.63,-0.67,-0.08,1.23
2022-02-09 17:35:31.8580,0.333,1.772,-0.33,-1.09,-1.88,-1.63,-0.4,-0.44,0.88
2022-02-09 17:35:31.8600,0.398,1.711,-0.268,-1.09,-1.88,-1.63,-0.24,-0.68,0.56
2022-02-09 17:35:31.8630,0.478,1.592,-0.193,-1.09,-1.88,-1.63,-0.07,-0.73,0.35
2022-02-09 17:35:31.8610,0.599,1.452,-0.12,-1.09,-1.88,-1.63,0.17,-0.6,0.31
2022-02-09 17:35:31.8630,0.722,1.324,-0.044,-1.09,-1.88,-1.63,0.37,-0.39,0.37
2022-02-09 17:35:31.8640,0.798,1.208,0.023,-1.09,-1.88,-1.63,0.5,-0.21,0.45
2022-02-09 17:35:31.8650,0.838,1.1,0.06,0.17,-2.04,-1.72,0.59,-0.02,0.56
2022-02-09 17:35:31.8660,0.824,1.022,0.068,0.17,-2.04,-1.72,0.63,0.18,0.62
2022-02-09 17:35:31.8660,0.746,1.007,0.078,0.17,-2.04,-1.72,0.6,0.41,0.61
2022-02-09 17:35:31.8680,0.72,0.971,0.064,0.17,-2.04,-1.72,0.58,0.61,0.58
2022-02-09 17:35:31.8700,0.69,0.88,0.077,0.17,-2.04,-1.72,0.57,0.78,0.56
2022-02-09 17:35:31.8690,0.598,0.785,0.153,0.17,-2.04,-1.72,0.63,1.11,0.58
2022-02-09 17:35:31.8700,0.528,0.703,0.208,0.17,-2.04,-1.72,0.75,1.58,0.51
2022-02-09 17:35:31.8720,0.469,0.631,0.229,0.17,-2.04,-1.72,0.89,1.94,0.33
2022-02-09 17:35:31.8730,0.461,0.566,0.196,0.17,-2.04,-1.72,1.1,2.07,0.12
2022-02-09 17:35:31.8730,0.476,0.503,0.132,0.17,-2.04,-1.72,1.35,1.96,-0.15
2022-02-09 17:35:31.8750,0.492,0.473,0.118,0.17,-2.04,-1.72,1.58,1.81,-0.43
2022-02-09 17:35:31.8790,0.483,0.465,0.17,0.17,-2.04,-1.72,1.68,1.63,-0.76
2022-02-09 17:35:31.8750,0.449,0.467,0.224,0.17,-2.04,-1.72,1.63,1.39,-1.08
2022-02-09 17:35:31.8780,0.437,0.474,0.241,0.17,-2.04,-1.72,1.54,1.07,-1.36
2022-02-09 17:35:31.8780,0.445,0.453,0.228,0.17,-2.04,-1.72,1.42,0.75,-1.51
Time,0.404,0.415,0.203,0.17,-2.04,-1.72,1.29,0.47,-1.63
2022-02-09 17:35:31.8810,0.301,0.413,0.187,0.17,-2.04,-1.72,1.24,0.18,-1.82
2022-02-09 17:35:31.8810,0.239,0.435,0.135,0.17,-2.04,-1.72,1.24,0.18,-1.82
2022-02-09 17:35:31.8820,0.177,0.428,0.047,0.17,-2.04,-1.72,1.35,0.18,-1.86
2022-02-09 17:35:31.8850,0.089,0.455,0.008,0.17,-2.04,-1.72,1.43,0.28,-1.97
2022-02-09 17:35:31.8860,0.041,0.473,0.027,0.17,-2.04,-1.72,1.35,0.42,-2.13
2022-02-09 17:35:31.8850,0.058,0.417,0.044,0.17,-2.04,-1.72,1.12,0.36,-2.11
2022-02-09 17:35:31.8880,0.234,0.273,0.048,0.17,-2.04,-1.72,0.79,0.12,-1.97
Time,0.308,0.183,0.039,0.17,-2.04,-1.72,0.53,-0.02,-1.82
2022-02-09 17:35:31.8880,0.298,0.19,-0.027,0.17,-2.04,-1.72,0.57,0.24,-1.63
2022-02-09 17:35:31.8900,0.223,0.297,-0.029,0.17,-2.04,-1.72,0.51,0.55,-1.43
2022-02-09 17:35:31.8930,0.188,0.428,0.269,0.17,-2.04,-1.72,-0.09,0.34,-1.26
2022-02-09 17:35:31.8940,0.228,0.599,0.345,0.17,-2.04,-1.72,-0.27,-0.32,-1.31
Time,0.185,0.913,-0.438,0.17,-2.04,-1.72,0.52,-0.59,-1.48
2022-02-09 17:35:31.8940,0.266,1.198,-0.823,0.17,-2.04,-1.72,0.74,-0.69,-1.45
2022-02-09 17:35:31.8940,0.313,1.611,-0.147,0.17,-2.04,-1.72,0.46,-0.67,-1.73
2022-02-09 17:35:31.8970,0.153,2.039,-0.062,0.17,-2.04,-1.72,0.29,-0.32,-2.41
2022-02-09 17:35:31.8990,0.33,1.856,-0.383,0.17,-2.04,-1.72,0.19,-0.76,-2.55
2022-02-09 17:35:31.9000,0.795,1.809,-0.059,0.17,-2.04,-1.72,-0.27,-1.38,-2.3
2022-02-09 17:35:31.9000,1.153,1.737,0.025,0.17,-2.04,-1.72,-0.73,-1.28,-1.84
2022-02-09 17:35:31.9010,1.443,1.45,0.093,0.17,-2.04,-1.72,-0.99,-0.95,-1.07
2022-02-09 17:35:31.9010,1.473,1.242,0.139,0.17,-2.04,-1.72,-0.81,-0.4,-0.39
2022-02-09 17:35:31.9060,1.309,1.233,-0.215,0.17,-2.04,-1.72,-0.47,0.03,0.03
2022-02-09 17:35:31.9030,1.128,1.403,-0.445,0.17,-2.04,-1.72,-0.23,0.33,0.26
2022-02-09 17:35:31.9060,0.909,1.45,-0.425,0.17,-2.04,-1.72,-0.04,0.65,0.29
Time,0.66,1.371,-0.306,0.17,-2.04,-1.72,0.04,0.86,0.18
2022-02-09 17:35:31.9060,0.517,1.286,-0.222,0.17,-2.04,-1.72,0.13,1.06,-0.0
2022-02-09 17:35:31.9100,0.44,1.228,-0.275,0.17,-2.04,-1.72,0.21,1.16,-0.18
2022-02-09 17:35:31.9110,0.432,1.125,-0.273,0.17,-2.04,-1.72,0.28,1.2,-0.25
2022-02-09 17:35:31.9120,0.461,0.997,-0.215,0.17,-2.04,-1.72,0.37,1.36,-0.26
2022-02-09 17:35:31.9130,0.473,0.9,-0.159,0.17,-2.04,-1.72,0.42,1.51,-0.24
Time,0.467,0.793,-0.137,0.17,-2.04,-1.72,0.44,1.59,-0.18
2022-02-09 17:35:31.9140,0.471,0.68,-0.126,0.17,-2.04,-1.72,0.45,1.65,-0.05
2022-02-09 17:35:31.9160,0.447,0.591,-0.092,0.17,-2.04,-1.72,0.43,1.69,0.06
2022-02-09 17:35:31.9180,0.414,0.528,-0.049,0.17,-2.04,-1.72,0.36,1.69,0.1
Time,0.383,0.505,-0.002,0.17,-2.04,-1.72,0.23,1.58,0.08
2022-02-09 17:35:31.9190,0.367,0.512,0.009,0.17,-2.04,-1.72,0.15,1.46,0.03
2022-02-09 17:35:31.9210,0.375,0.516,-0.03,0.17,-2.04,-1.72,0.09,1.37,-0.03
2022-02-09 17:35:31.9200,0.368,0.483,-0.03,0.17,-2.04,-1.72,0.05,1.3,-0.06
2022-02-09 17:35:31.9270,0.367,0.428,0.035,0.17,-2.04,-1.72,-0.0,1.24,-0.04
2022-02-09 17:35:31.9240,0.387,0.393,0.116,0.17,-2.04,-1.72,-0.08,1.18,0.03
2022-02-09 17:35:31.9240,0.421,0.379,0.117,0.17,-2.04,-1.72,-0.22,1.17,0.14
2022-02-09 17:35:31.9270,0.432,0.382,0.186,0.17,-2.04,-1.72,-0.5,1.15,0.28
2022-02-09 17:35:31.9270,0.441,0.417,0.367,0.17,-2.04,-1.72,-0.9,0.96,0.42
2022-02-09 17:35:31.9270,0.482,0.47,0.434,0.17,-2.04,-1.72,-1.22,0.82,0.59
2022-02-09 17:35:31.9290,0.519,0.482,0.32,0.17,-2.04,-1.72,-1.45,0.94,0.8
2022-02-09 17:35:31.9300,0.534,0.485,0.29,0.17,-2.04,-1.72,-1.77,1.04,1.06
2022-02-09 17:35:31.9300,0.531,0.491,0.196,0.17,-2.04,-1.72,-1.91,1.19,1.3
2022-02-09 17:35:31.9320,0.524,0.527,-0.024,1.01,-1.69,-1.61,-1.73,1.55,1.52
2022-02-09 17:35:31.9330,0.519,0.615,-0.023,1.01,-1.69,-1.61,-1.49,1.9,1.77
2022-02-09 17:35:31.9340,0.522,0.772,0.083,1.01,-1.69,-1.61,-1.22,1.9,2.06
2022-02-09 17:35:31.9340,0.617,1.01,-0.008,1.01,-1.69,-1.61,-0.83,1.74,2.45
2022-02-09 17:35:31.9360,0.775,1.474,-0.161,1.01,-1.69,-1.61,-0.52,2.05,2.77
2022-02-09 17:35:31.9360,0.861,2.366,-0.083,1.01,-1.69,-1.61,-0.57,2.05,2.49
2022-02-09 17:35:31.9380,0.504,2.906,-0.44,1.01,-1.69,-1.61,-0.61,1.56,1.97
2022-02-09 17:35:31.9380,0.288,2.506,-0.469,1.01,-1.69,-1.61,-0.61,1.56,1.97
Time,0.465,2.365,-0.31,1.01,-1.69,-1.61,-0.4,1.04,1.44
2022-02-09 17:35:31.9420,0.741,2.156,-0.312,1.01,-1.69,-1.61,-0.21,0.66,1.27
2022-02-09 17:35:31.9410,0.927,1.968,-0.398,1.01,-1.69,-1.61,-0.13,0.36,1.35
2022-02-09 17:35:31.9410,0.98,1.842,-0.477,1.01,-1.69,-1.61,0.61,-0.23,1.81
2022-02-09 17:35:31.9450,0.972,1.723,-0.385,1.01,-1.69,-1.61,0.94,-0.39,2.01
2022-02-09 17:35:31.9450,0.904,1.642,-0.184,1.01,-1.69,-1.61,1.09,-0.39,2.1
2022-02-09 17:35:31.9470,0.799,1.577,-0.008,1.01,-1.69,-1.61,1.2,-0.25,2.09
2022-02-09 17:35:31.9520,0.684,1.459,0.075,1.01,-1.69,-1.61,1.36,-0.01,2.02
2022-02-09 17:35:31.9480,0.554,1.369,0.075,1.01,-1.69,-1.61,1.56,0.38,1.9
2022-02-09 17:35:31.9480,0.434,1.29,0.041,1.01,-1.69,-1.61,1.78,0.86,1.71
2022-02-09 17:35:31.9510,0.337,1.21,-0.021,1.01,-1.69,-1.61,1.99,1.34,1.49
2022-02-09 17:35:31.9500,0.261,1.14,-0.077,1.01,-1.69,-1.61,2.16,1.76,1.21
2022-02-09 17:35:31.9520,0.199,1.073,-0.11,1.01,-1.69,-1.61,2.27,2.13,0.93
2022-02-09 17:35:31.9530,0.196,0.981,-0.113,1.01,-1.69,-1.61,2.3,2.45,0.67
2022-02-09 17:35:31.9550,0.206,0.862,-0.104,1.01,-1.69,-1.61,2.3,2.71,0.46
2022-02-09 17:35:31.9550,0.25,0.733,-0.08,1.01,-1.69,-1.61,2.3,2.94,0.34
2022-02-09 17:35:31.9550,0.294,0.652,-0.043,1.01,-1.69,-1.61,2.3,2.94,0.34
2022-02-09 17:35:31.9560,0.322,0.587,-0.014,1.01,-1.69,-1.61,2.36,3.47,0.27
Time,0.321,0.532,-0.012,1.01,-1.69,-1.61,2.41,3.67,0.26
Time,0.319,0.503,-0.044,1.01,-1.69,-1.61,2.49,3.8,0.24
2022-02-09 17:35:31.9630,0.326,0.495,-0.089,1.01,-1.69,-1.61,2.59,3.87,0.24
2022-02-09 17:35:31.9690,0.316,0.485,-0.1,1.01,-1.69,-1.61,2.68,3.93,0.25
2022-02-09 17:35:31.9620,0.277,0.479,-0.055,1.01,-1.69,-1.61,2.73,4.0,0.23
2022-02-09 17:35:31.9620,0.209,0.497,0.013,1.01,-1.69,-1.61,2.69,4.06,0.17
Time,0.115,0.523,0.114,1.01,-1.69,-1.61,2.51,4.11,0.02
2022-02-09 17:35:31.9680,0.043,0.55,0.221,1.01,-1.69,-1.61,2.23,4.17,-0.21
2022-02-09 17:35:31.9700,0.028,0.585,0.289,1.01,-1.69,-1.61,1.89,4.18,-0.42
2022-02-09 17:35:31.9710,0.132,0.611,0.323,1.01,-1.69,-1.61,1.52,4.01,-0.48
2022-02-09 17:35:31.9710,0.345,0.592,0.254,1.01,-1.69,-1.61,1.27,3.53,-0.35
2022-02-09 17:35:31.9720,0.581,0.554,0.059,1.01,-1.69,-1.61,1.14,2.92,-0.09
2022-02-09 17:35:31.9740,0.744,0.583,-0.08,1.01,-1.69,-1.61,1.06,2.29,0.17
Time,0.801,0.674,-0.171,1.01,-1.69,-1.61,1.04,1.63,0.37
2022-02-09 17:35:31.9760,0.787,0.783,-0.214,1.01,-1.69,-1.61,0.98,0.97,0.39
2022-02-09 17:35:31.9760,0.706,0.896,-0.171,1.01,-1.69,-1.61,0.78,0.23,0.22
2022-02-09 17:35:31.9780,0.571,0.99,-0.095,1.01,-1.69,-1.61,0.49,-0.56,-0.08
2022-02-09 17:35:31.9850,0.47,0.999,-0.007,1.01,-1.69,-1.61,0.25,-1.12,-0.39
2022-02-09 17:35:31.9800,0.399,0.966,0.074,1.01,-1.69,-1.61,0.1,-1.26,-0.65
2022-02-09 17:35:31.9800,0.381,0.935,0.141,1.01,-1.69,-1.61,0.05,-1.1,-0.79
Time,0.451,0.857,0.127,1.01,-1.69,-1.61,0.1,-0.8,-0.77
2022-02-09 17:35:31.9850,0.559,0.766,0.035,1.01,-1.69,-1.61,0.26,-0.42,-0.66
2022-02-09 17:35:31.9850,0.642,0.732,-0.133,1.01,-1.69,-1.61,0.54,-0.13,-0.55
2022-02-09 17:35:31.9860,0.676,0.754,-0.328,1.01,-1.69,-1.61,0.83,-0.16,-0.46
2022-02-09 17:35:31.9880,0.676,0.76,-0.503,1.01,-1.69,-1.61,1.11,-0.41,-0.42
2022-02-09 17:35:31.9910,0.658,0.784,-0.677,1.01,-1.69,-1.61,1.41,-0.77,-0.42
2022-02-09 17:35:31.9890,0.633,0.857,-0.772,1.01,-1.69,-1.61,1.6,-1.34,-0.41
2022-02-09 17:35:31.9930,0.635,0.997,-0.745,1.01,-1.69,-1.61,1.76,-1.67,-0.31
2022-02-09 17:35:31.9920,0.617,1.108,-0.609,1.01,-1.69,-1.61,1.81,-1.77,-0.23
2022-02-09 17:35:31.9930,0.581,1.205,0.158,1.01,-1.69,-1.61,0.87,-1.65,0.01
2022-02-09 17:35:31.9940,0.593,1.148,1.638,1.01,-1.69,-1.61,-0.02,-0.03,0.29
2022-02-09 17:35:32.0070,0.374,0.82,1.624,1.01,-1.69,-1.61,-0.14,1.47,0.21
2022-02-09 17:35:32.0090,0.313,0.656,0.537,1.01,-1.69,-1.61,-0.02,2.14,-0.04
2022-02-09 17:35:32.0000,0.507,1.043,-0.396,1.01,-1.69,-1.61,0.55,2.15,-0.25
2022-02-09 17:35:32.0100,0.672,1.415,-0.944,1.01,-1.69,-1.61,0.9,1.5,-0.33
2022-02-09 17:35:32.0030,0.674,1.415,-0.908,1.01,-1.69,-1.61,1.08,1.07,-0.44
2022-02-09 17:35:32.0040,0.401,1.329,-0.674,1.01,-1.69,-1.61,1.29,1.38,-0.65
Time,0.027,1.314,-0.421,1.01,-1.69,-1.61,1.31,1.87,-0.92
2022-02-09 17:35:32.0090,-0.236,1.328,-0.203,1.01,-1.69,-1.61,1.2,2.16,-1.18
2022-02-09 17:35:32.0090,-0.293,1.316,-0.164,1.01,-1.69,-1.61,1.09,2.32,-1.39
2022-02-09 17:35:32.0100,-0.229,1.339,-0.203,1.01,-1.69,-1.61,1.02,2.43,-1.61
2022-02-09 17:35:32.0140,-0.168,1.377,-0.238,1.01,-1.69,-1.61,1.03,2.5,-1.77
2022-02-09 17:35:32.0130,-0.059,1.348,-0.289,1.01,-1.69,-1.61,1.08,2.44,-1.8
2022-02-09 17:35:32.0170,0.081,1.269,-0.257,1.01,-1.69,-1.61,1.03,2.35,-1.72
2022-02-09 17:35:32.0170,0.208,1.183,-0.156,1.01,-1.69,-1.61,0.96,2.36,-1.58
2022-02-09 17:35:32.0170,0.283,1.091,-0.156,1.01,-1.69,-1.61,0.98,2.45,-1.44
2022-02-09 17:35:32.0200,0.331,1.027,-0.205,1.01,-1.69,-1.61,0.98,2.39,-1.31
Time,0.319,0.986,-0.215,1.01,-1.69,-1.61,0.87,2.19,-1.19
2022-02-09 17:35:32.0200,0.257,0.968,-0.179,1.01,-1.69,-1.61,0.74,2.01,-1.13
2022-02-09 17:35:32.0230,0.174,0.944,-0.123,1.01,-1.69,-1.61,0.66,2.04,-1.11
2022-02-09 17:35:32.0230,0.123,0.907,-0.058,1.01,-1.69,-1.61,0.65,2.17,-1.09
2022-02-09 17:35:32.0230,0.124,0.884,-0.03,1.01,-1.69,-1.61,0.68,2.35,-1.07
2022-02-09 17:35:32.0250,0.146,0.87,-0.037,1.01,-1.69,-1.61,0.74,2.49,-1.06
2022-02-09 17:35:32.0270,0.173,0.845,-0.058,1.01,-1.69,-1.61,0.78,2.55,-1.03
2022-02-09 17:35:32.0270,0.199,0.813,-0.077,1.01,-1.69,-1.61,0.8,2.52,-1.01
2022-02-09 17:35:32.0290,0.203,0.812,-0.085,1.01,-1.69,-1.61,0.78,2.43,-1.0
2022-02-09 17:35:32.0290,0.185,0.81,-0.084,1.01,-1.69,-1.61,0.75,2.3,-0.99
2022-02-09 17:35:32.0300,0.168,0.796,-0.088,1.01,-1.69,-1.61,0.73,2.17,-1.0
2022-02-09 17:35:32.0310,0.162,0.808,-0.1,1.01,-1.69,-1.61,0.71,2.0,-1.04
2022-02-09 17:35:32.0330,0.146,0.834,-0.11,1.01,-1.69,-1.61,0.67,1.78,-1.1
2022-02-09 17:35:32.0330,0.138,0.832,-0.125,1.01,-1.69,-1.61,0.66,1.59,-1.17
2022-02-09 17:35:32.0350,0.147,0.858,-0.157,1.01,-1.69,-1.61,0.67,1.45,-1.25
2022-02-09 17:35:32.0360,0.138,0.874,-0.173,1.01,-1.69,-1.61,0.69,1.4,-1.29
2022-02-09 17:35:32.0350,0.126,0.847,-0.157,1.01,-1.69,-1.61,0.69,1.4,-1.28
2022-02-09 17:35:32.0430,0.117,0.858,-0.141,1.01,-1.69,-1.61,0.67,1.39,-1.28
2022-02-09 17:35:32.0400,0.109,0.884,-0.135,1.01,-1.69,-1.61,0.63,1.37,-1.26
2022-02-09 17:35:32.0400,0.114,0.892,-0.149,1.01,-1.69,-1.61,0.57,1.34,-1.23
2022-02-09 17:35:32.0400,0.127,0.895,-0.174,1.01,-1.69,-1.61,0.54,1.34,-1.22
2022-02-09 17:35:32.0410,0.159,0.913,-0.206,1.01,-1.69,-1.61,0.52,1.33,-1.21
2022-02-09 17:35:32.0420,0.19,0.909,-0.237,1.01,-1.69,-1.61,0.5,1.28,-1.18
2022-02-09 17:35:32.0450,0.229,0.897,-0.251,1.01,-1.69,-1.61,0.46,1.16,-1.11
2022-02-09 17:35:32.0460,0.261,0.885,-0.247,1.01,-1.69,-1.61,0.38,1.02,-1.02
2022-02-09 17:35:32.0460,0.276,0.876,-0.214,1.01,-1.69,-1.61,0.25,0.83,-0.91
2022-02-09 17:35:32.0470,0.306,0.878,-0.166,1.01,-1.69,-1.61,0.07,0.6,-0.78
2022-02-09 17:35:32.0510,0.369,0.875,-0.116,1.01,-1.69,-1.61,-0.12,0.35,-0.62
2022-02-09 17:35:32.0470,0.429,0.876,-0.066,1.01,-1.69,-1.61,-0.28,0.11,-0.44
2022-02-09 17:35:32.0530,0.472,0.893,-0.045,1.01,-1.69,-1.61,-0.42,-0.06,-0.24
2022-02-09 17:35:32.0520,0.494,0.912,-0.041,1.41,-0.73,-1.58,-0.5,-0.15,-0.06
2022-02-09 17:35:32.0530,0.492,0.959,-0.057,1.41,-0.73,-1.58,-0.55,-0.18,0.08
2022-02-09 17:35:32.0530,0.488,1.005,-0.079,1.41,-0.73,-1.58,-0.6,-0.18,0.19
2022-02-09 17:35:32.0530,0.524,1.022,-0.098,1.41,-0.73,-1.58,-0.66,-0.14,0.31
2022-02-09 17:35:32.0540,0.584,1.029,-0.114,1.41,-0.73,-1.58,-0.74,-0.04,0.46
2022-02-09 17:35:32.0580,0.669,1.017,-0.116,1.41,-0.73,-1.58,-0.83,0.07,0.74
2022-02-09 17:35:32.0600,0.761,1.021,-0.11,1.41,-0.73,-1.58,-0.96,0.17,1.13
2022-02-09 17:35:32.0600,0.825,1.058,-0.099,1.41,-0.73,-1.58,-1.21,0.15,1.58
2022-02-09 17:35:32.0600,0.892,1.118,-0.095,1.41,-0.73,-1.58,-1.49,0.01,2.05
Time,0.949,1.147,-0.083,1.41,-0.73,-1.58,-1.76,-0.06,2.51
2022-02-09 17:35:32.0590,0.942,1.167,-0.066,1.41,-0.73,-1.58,-1.83,-0.02,2.93
Time,0.868,1.209,-0.123,1.41,-0.73,-1.58,-1.67,0.14,3.29
Time,0.767,1.236,-0.146,1.41,-0.73,-1.58,-1.67,0.14,3.29
2022-02-09 17:35:32.0650,0.648,1.226,-0.075,1.41,-0.73,-1.58,-1.11,0.8,3.61
2022-02-09 17:35:32.0660,0.535,1.21,0.007,1.41,-0.73,-1.58,-0.82,1.05,3.58
2022-02-09 17:35:32.0710,0.475,1.219,0.001,1.41,-0.73,-1.58,-0.51,1.18,3.53
2022-02-09 17:35:32.0670,0.478,1.217,-0.077,1.41,-0.73,-1.58,-0.18,1.24,3.52
2022-02-09 17:35:32.0700,0.506,1.188,-0.149,1.41,-0.73,-1.58,0.18,1.32,3.58
2022-02-09 17:35:32.0710,0.496,1.212,-0.174,1.41,-0.73,-1.58,0.5,1.49,3.59
2022-02-09 17:35:32.0700,0.414,1.285,-0.191,1.41,-0.73,-1.58,0.75,1.65,3.51
2022-02-09 17:35:32.0710,0.302,1.334,-0.196,1.41,-0.73,-1.58,0.92,1.77,3.34
2022-02-09 17:35:32.0730,0.216,1.344,-0.159,1.41,-0.73,-1.58,0.99,1.81,3.1
2022-02-09 17:35:32.0750,0.162,1.34,-0.088,1.41,-0.73,-1.58,0.95,1.73,2.83
2022-02-09 17:35:32.0760,0.119,1.312,-0.02,1.41,-0.73,-1.58,0.83,1.52,2.52
2022-02-09 17:35:32.0760,0.075,1.244,0.011,1.41,-0.73,-1.58,0.73,1.29,2.24
2022-02-09 17:35:32.0770,0.074,1.136,-0.003,1.41,-0.73,-1.58,0.69,1.13,2.02
2022-02-09 17:35:32.0780,0.125,1.043,-0.027,1.41,-0.73,-1.58,0.69,0.95,1.84
2022-02-09 17:35:32.0790,0.175,0.968,-0.051,1.41,-0.73,-1.58,0.71,0.75,1.71
2022-02-09 17:35:32.0810,0.242,0.876,-0.072,1.41,-0.73,-1.58,0.75,0.56,1.64
2022-02-09 17:35:32.0820,0.269,0.841,-0.097,1.41,-0.73,-1.58,0.8,0.43,1.56
2022-02-09 17:35:32.0830,0.24,0.855,-0.089,1.41,-0.73,-1.58,0.87,0.47,1.32
2022-02-09 17:35:32.0830,0.222,0.873,-0.069,1.41,-0.73,-1.58,0.87,0.47,1.32
2022-02-09 17:35:32.0840,0.207,0.873,-0.039,1.41,-0.73,-1.58,0.92,0.54,1.16
2022-02-09 17:35:32.0850,0.195,0.861,-0.048,1.41,-0.73,-1.58,0.94,0.56,1.01
2022-02-09 17:35:32.0880,0.211,0.857,-0.043,1.41,-0.73,-1.58,0.9,0.59,0.89
2022-02-09 17:35:32.0870,0.222,0.87,-0.014,1.41,-0.73,-1.58,0.86,0.69,0.77
2022-02-09 17:35:32.0890,0.207,0.877,0.0,1.41,-0.73,-1.58,0.89,0.87,0.66
2022-02-09 17:35:32.0890,0.186,0.865,-0.017,1.41,-0.73,-1.58,0.98,1.11,0.56
2022-02-09 17:35:32.0910,0.179,0.837,-0.041,1.41,-0.73,-1.58,1.06,1.32,0.47
2022-02-09 17:35:32.0910,0.204,0.792,-0.075,1.41,-0.73,-1.58,1.1,1.43,0.36
2022-02-09 17:35:32.0940,0.194,0.794,-0.106,1.41,-0.73,-1.58,1.13,1.45,0.24
2022-02-09 17:35:32.0940,0.167,0.81,-0.12,1.41,-0.73,-1.58,1.15,1.47,0.11
2022-02-09 17:35:32.0960,0.158,0.8,-0.113,1.41,-0.73,-1.58,1.15,1.5,-0.02
2022-02-09 17:35:32.0950,0.142,0.802,-0.087,1.41,-0.73,-1.58,1.13,1.54,-0.18
2022-02-09 17:35:32.0970,0.112,0.828,-0.029,1.41,-0.73,-1.58,1.13,1.66,-0.38
2022-02-09 17:35:32.0980,0.096,0.847,0.044,1.41,-0.73,-1.58,1.12,1.83,-0.56
2022-02-09 17:35:32.1010,0.144,0.829,0.111,1.41,-0.73,-1.58,1.05,1.95,-0.7
2022-02-09 17:35:32.1020,0.19,0.808,0.18,1.41,-0.73,-1.58,0.91,1.98,-0.83
2022-02-09 17:35:32.1010,0.23,0.795,0.242,1.41,-0.73,-1.58,0.74,1.87,-0.96
2022-02-09 17:35:32.1030,0.311,0.779,0.268,1.41,-0.73,-1.58,0.51,1.65,-1.06
2022-02-09 17:35:32.1030,0.424,0.758,0.313,1.41,-0.73,-1.58,0.23,1.39,-1.12
2022-02-09 17:35:32.1040,0.56,0.735,0.367,1.41,-0.73,-1.58,0.03,1.14,-1.08
2022-02-09 17:35:32.1060,0.702,0.714,0.338,1.41,-0.73,-1.58,-0.0,0.9,-0.96
2022-02-09 17:35:32.1080,0.825,0.693,0.215,1.41,-0.73,-1.58,0.19,0.68,-0.77
2022-02-09 17:35:32.1080,0.898,0.684,0.073,1.41,-0.73,-1.58,0.45,0.44,-0.57
2022-02-09 17:35:32.1100,0.909,0.709,-0.022,1.41,-0.73,-1.58,0.66,0.19,-0.41
2022-02-09 17:35:32.1070,0.874,0.732,-0.055,1.41,-0.73,-1.58,0.77,-0.02,-0.32
2022-02-09 17:35:32.1110,0.792,0.756,-0.043,1.41,-0.73,-1.58,0.82,-0.13,-0.37
2022-02-09 17:35:32.1120,0.682,0.781,0.015,1.41,-0.73,-1.58,0.79,-0.15,-0.49
2022-02-09 17:35:32.1130,0.592,0.767,0.079,1.41,-0.73,-1.58,0.73,-0.07,-0.59
2022-02-09 17:35:32.1150,0.536,0.73,0.126,1.41,-0.73,-1.58,0.69,0.09,-0.64
2022-02-09 17:35:32.1160,0.502,0.684,0.153,1.41,-0.73,-1.58,0.7,0.35,-0.67
2022-02-09 17:35:32.1160,0.461,0.636,0.167,1.41,-0.73,-1.58,0.74,0.61,-0.68
2022-02-09 17:35:32.1170,0.429,0.592,0.174,1.41,-0.73,-1.58,0.76,0.77,-0.68
2022-02-09 17:35:32.1200,0.407,0.558,0.162,1.41,-0.73,-1.58,0.75,0.75,-0.66
2022-02-09 17:35:32.1200,0.418,0.525,0.121,1.41,-0.73,-1.58,0.75,0.75,-0.66
2022-02-09 17:35:32.1210,0.431,0.5,0.084,1.41,-0.73,-1.58,0.7,0.46,-0.58
2022-02-09 17:35:32.1220,0.426,0.488,0.056,1.41,-0.73,-1.58,0.67,0.3,-0.55
2022-02-09 17:35:32.1220,0.36,0.517,0.065,1.41,-0.73,-1.58,0.67,0.3,-0.55
2022-02-09 17:35:32.1220,0.275,0.552,0.066,1.41,-0.73,-1.58,0.63,-0.01,-0.65
2022-02-09 17:35:32.1240,0.206,0.557,0.062,1.41,-0.73,-1.58,0.63,-0.17,-0.75
2022-02-09 17:35:32.1250,0.172,0.564,0.035,1.41,-0.73,-1.58,0.64,-0.31,-0.86
2022-02-09 17:35:32.1250,0.169,0.551,0.013,1.41,-0.73,-1.58,0.68,-0.36,-0.92
2022-02-09 17:35:32.1290,0.188,0.493,-0.004,1.41,-0.73,-1.58,0.78,-0.31,-0.94
2022-02-09 17:35:32.1280,0.199,0.418,-0.043,1.41,-0.73,-1.58,0.91,-0.17,-0.95
2022-02-09 17:35:32.1280,0.211,0.356,-0.101,1.41,-0.73,-1.58,1.04,0.05,-0.93
2022-02-09 17:35:32.1300,0.223,0.309,-0.156,1.41,-0.73,-1.58,1.06,0.24,-0.85
2022-02-09 17:35:32.1300,0.191,0.282,-0.165,1.41,-0.73,-1.58,1.01,0.35,-0.77
2022-02-09 17:35:32.1320,0.091,0.233,-0.139,1.41,-0.73,-1.58,1.23,0.8,-0.68
2022-02-09 17:35:32.1370,-0.019,0.13,0.156,1.41,-0.73,-1.58,1.22,1.81,-0.56
2022-02-09 17:35:32.1340,-0.088,0.116,0.885,1.41,-0.73,-1.58,0.53,2.77,-0.5
2022-02-09 17:35:32.1340,0.014,0.249,1.561,1.41,-0.73,-1.58,-0.43,1.76,-0.64
2022-02-09 17:35:32.1360,0.329,0.601,0.057,1.41,-0.73,-1.58,0.99,0.81,-0.77
2022-02-09 17:35:32.1370,0.582,0.99,-1.936,1.41,-0.73,-1.58,1.57,0.81,-0.57
2022-02-09 17:35:32.1380,0.643,1.101,-0.809,1.41,-0.73,-1.58,0.42,-1.48,0.03
2022-02-09 17:35:32.1400,1.053,1.204,0.892,1.41,-0.73,-1.58,-0.26,-1.87,-0.13
2022-02-09 17:35:32.1400,0.971,2.332,0.175,1.41,-0.73,-1.58,-0.32,-0.75,-0.98
2022-02-09 17:35:32.1400,0.188,2.373,-0.439,1.41,-0.73,-1.58,0.45,-0.01,-1.16
2022-02-09 17:35:32.1420,0.399,1.898,-0.388,1.41,-0.73,-1.58,0.51,0.17,-1.12
2022-02-09 17:35:32.1430,0.932,1.749,0.161,1.41,-0.73,-1.58,-0.28,0.31,-0.92
2022-02-09 17:35:32.1440,1.133,1.427,0.113,1.41,-0.73,-1.58,-0.39,0.51,-0.49
2022-02-09 17:35:32.1460,1.181,1.267,-0.434,1.41,-0.73,-1.58,-0.08,0.64,0.07
2022-02-09 17:35:32.1460,1.075,1.301,-0.4,1.41,-0.73,-1.58,-0.08,0.64,0.07
2022-02-09 17:35:32.1480,0.87,1.344,-0.243,1.41,-0.73,-1.58,0.1,1.04,0.56
2022-02-09 17:35:32.1480,0.678,1.359,-0.292,1.41,-0.73,-1.58,0.19,1.04,0.57
2022-02-09 17:35:32.1480,0.565,1.29,-0.381,1.41,-0.73,-1.58,0.35,0.84,0.6
2022-02-09 17:35:32.1510,0.502,1.216,-0.357,1.41,-0.73,-1.58,0.45,0.64,0.59
2022-02-09 17:35:32.1520,0.427,1.154,-0.244,1.41,-0.73,-1.58,0.4,0.51,0.55
2022-02-09 17:35:32.1520,0.394,1.081,-0.13,1.41,-0.73,-1.58,0.3,0.3,0.53
Time,0.423,1.0,-0.088,1.41,-0.73,-1.58,0.19,-0.02,0.54
2022-02-09 17:35:32.1540,0.492,0.901,-0.008,1.41,-0.73,-1.58,0.02,-0.32,0.57
2022-02-09 17:35:32.1540,0.541,0.764,0.116,1.41,-0.73,-1.58,-0.22,-0.53,0.62
2022-02-09 17:35:32.1590,0.618,0.605,0.23,1.41,-0.73,-1.58,-0.48,-0.71,0.78
2022-02-09 17:35:32.1590,0.753,0.43,0.297,1.41,-0.73,-1.58,-0.71,-0.94,1.07
2022-02-09 17:35:32.1580,0.897,0.281,0.363,1.41,-0.73,-1.58,-0.89,-1.05,1.48
2022-02-09 17:35:32.1600,1.025,0.141,0.464,1.41,-0.73,-1.58,-1.09,-1.06,2.0
2022-02-09 17:35:32.1610,1.043,0.114,0.383,1.41,-0.73,-1.58,-1.09,-0.76,2.4
2022-02-09 17:35:32.1600,0.951,0.197,0.174,1.41,-0.73,-1.58,-0.94,-0.43,2.71
2022-02-09 17:35:32.1610,0.799,0.291,0.057,1.41,-0.73,-1.58,-0.76,-0.22,2.88
Time,0.571,0.47,0.095,1.41,-0.73,-1.58,-0.66,-0.06,2.84
2022-02-09 17:35:32.1650,0.298,0.649,0.196,1.41,-0.73,-1.58,-0.62,0.12,2.64
2022-02-09 17:35:32.1660,0.13,0.776,0.275,1.41,-0.73,-1.58,-0.6,0.26,2.42
2022-02-09 17:35:32.1670,0.074,0.871,0.229,1.41,-0.73,-1.58,-0.51,0.35,2.16
2022-02-09 17:35:32.1670,0.028,1.007,0.071,1.41,-0.73,-1.58,-0.39,0.38,1.87
2022-02-09 17:35:32.1670,0.039,1.244,-0.043,1.41,-0.73,-1.58,-0.14,0.27,1.56
2022-02-09 17:35:32.1710,0.126,1.43,-0.312,1.41,-0.73,-1.58,0.13,-0.32,1.24
2022-02-09 17:35:32.1710,0.203,1.511,-0.55,1.41,-0.73,-1.58,0.07,-1.16,0.8
2022-02-09 17:35:32.1710,0.181,1.641,-0.491,1.41,-0.73,-1.58,0.02,-1.81,0.2
Time,0.076,1.818,-0.267,1.41,-0.73,-1.58,-0.03,-1.9,-0.42
2022-02-09 17:35:32.1730,0.092,1.759,-0.037,1.41,-0.73,-1.58,-0.07,-1.58,-0.89
2022-02-09 17:35:32.1730,0.267,1.612,-0.005,1.41,-0.73,-1.58,-0.01,-1.1,-1.17
2022-02-09 17:35:32.1760,0.502,1.522,-0.053,1.41,-0.73,-1.58,0.06,-0.72,-1.22
2022-02-09 17:35:32.1770,0.67,1.411,-0.065,1.41,-0.73,-1.58,0.03,-0.51,-1.12
2022-02-09 17:35:32.1790,0.784,1.263,-0.058,1.41,-0.73,-1.58,-0.04,-0.37,-1.0
2022-02-09 17:35:32.1790,0.799,1.141,-0.058,1.41,-0.73,-1.58,0.01,-0.15,-0.98
2022-02-09 17:35:32.1780,0.747,1.058,-0.046,1.41,-0.73,-1.58,0.13,0.18,-0.99
2022-02-09 17:35:32.1800,0.755,0.983,0.016,1.41,-0.73,-1.58,0.21,0.46,-0.94
2022-02-09 17:35:32.1870,0.741,0.882,0.125,1.41,-0.73,-1.58,0.24,0.7,-0.91
2022-02-09 17:35:32.1820,0.666,0.792,0.217,1.41,-0.73,-1.58,0.26,0.95,-0.92
2022-02-09 17:35:32.1840,0.552,0.748,0.25,1.41,-0.73,-1.58,0.33,1.15,-0.95
2022-02-09 17:35:32.1860,0.499,0.693,0.179,1.41,-0.73,-1.58,0.48,1.15,-0.95
2022-02-09 17:35:32.1860,0.478,0.628,0.07,1.41,-0.73,-1.58,0.6,0.99,-0.96
2022-02-09 17:35:32.1860,0.458,0.598,0.038,1.41,-0.73,-1.58,0.61,0.81,-0.96
2022-02-09 17:35:32.1890,0.446,0.556,0.073,1.41,-0.73,-1.58,0.55,0.7,-0.95
2022-02-09 17:35:32.1890,0.429,0.496,0.073,1.41,-0.73,-1.58,0.49,0.63,-0.96
2022-02-09 17:35:32.1900,0.419,0.459,0.037,1.41,-0.73,-1.58,0.42,0.57,-0.99
2022-02-09 17:35:32.1910,0.386,0.444,0.013,1.41,-0.73,-1.58,0.41,0.51,-1.0
2022-02-09 17:35:32.1920,0.368,0.428,-0.052,1.41,-0.73,-1.58,0.53,0.47,-1.02
2022-02-09 17:35:32.1930,0.365,0.409,-0.104,1.41,-0.73,-1.58,0.69,0.48,-1.09
2022-02-09 17:35:32.1950,0.343,0.39,-0.064,1.41,-0.73,-1.58,0.82,0.48,-1.11
2022-02-09 17:35:32.1960,0.341,0.381,-0.008,1.41,-0.73,-1.58,0.84,0.4,-1.12
2022-02-09 17:35:32.1950,0.383,0.373,-0.002,1.41,-0.73,-1.58,0.74,0.25,-1.09
2022-02-09 17:35:32.1980,0.454,0.305,-0.071,1.41,-0.73,-1.58,0.74,0.17,-1.08
2022-02-09 17:35:32.1990,0.465,0.223,-0.138,1.41,-0.73,-1.58,0.81,0.2,-1.04
2022-02-09 17:35:32.1990,0.448,0.173,-0.118,1.41,-0.73,-1.58,1.05,0.48,-0.9
2022-02-09 17:35:32.2010,0.447,0.153,-0.108,1.41,-0.73,-1.58,1.39,0.98,-0.71
2022-02-09 17:35:32.2020,0.449,0.175,0.054,1.41,-0.73,-1.58,1.11,1.23,-0.55
2022-02-09 17:35:32.2030,0.456,0.284,0.325,1.41,-0.73,-1.58,0.47,0.79,-0.45
2022-02-09 17:35:32.2050,0.546,0.505,0.121,1.41,-0.73,-1.58,0.41,0.34,-0.35
2022-02-09 17:35:32.2060,0.642,0.806,-0.371,1.41,-0.73,-1.58,0.68,0.41,-0.21
2022-02-09 17:35:32.2080,0.64,1.052,-0.343,1.41,-0.73,-1.58,0.61,0.34,0.03
2022-02-09 17:35:32.2070,0.686,1.171,0.236,1.41,-0.73,-1.58,0.66,0.4,0.35
2022-02-09 17:35:32.2080,0.912,1.894,0.063,1.41,-0.73,-1.58,0.24,0.73,-0.27
2022-02-09 17:35:32.2100,0.757,2.353,-0.657,1.41,-0.73,-1.58,0.32,0.1,-0.7
2022-02-09 17:35:32.2130,0.799,1.856,-0.528,1.41,-0.73,-1.58,0.23,-0.65,-0.45
2022-02-09 17:35:32.2110,0.964,1.593,-0.014,1.41,-0.73,-1.58,-0.33,-0.61,-0.18
2022-02-09 17:35:32.2120,1.024,1.474,0.19,1.41,-0.73,-1.58,-0.55,0.1,0.1
2022-02-09 17:35:32.2130,0.873,1.372,-0.079,1.41,-0.73,-1.58,-0.33,0.9,0.41
2022-02-09 17:35:32.2160,0.722,1.391,-0.381,1.41,-0.73,-1.58,0.01,1.34,0.58
2022-02-09 17:35:32.2150,0.583,1.373,-0.444,1.41,-0.73,-1.58,0.23,1.51,0.51
2022-02-09 17:35:32.2170,0.437,1.317,-0.387,1.41,-0.73,-1.58,0.3,1.42,0.34
2022-02-09 17:35:32.2180,0.347,1.237,-0.287,1.41,-0.73,-1.58,0.3,1.19,0.23
Time,0.299,1.133,-0.208,1.41,-0.73,-1.58,0.29,0.91,0.2
2022-02-09 17:35:32.2200,0.268,1.071,-0.148,1.41,-0.73,-1.58,0.25,0.6,0.17
2022-02-09 17:35:32.2230,0.205,1.022,-0.032,1.41,-0.73,-1.58,0.13,0.33,0.07
2022-02-09 17:35:32.2220,0.154,0.964,0.018,1.41,-0.73,-1.58,0.04,0.2,-0.05
2022-02-09 17:35:32.2220,0.158,0.897,-0.001,1.41,-0.73,-1.58,-0.04,0.01,-0.16
2022-02-09 17:35:32.2250,0.175,0.841,-0.001,1.41,-0.73,-1.58,-0.14,-0.25,-0.23
2022-02-09 17:35:32.2250,0.269,0.753,-0.007,1.41,-0.73,-1.58,-0.23,-0.54,-0.18
2022-02-09 17:35:32.2310,0.406,0.649,-0.013,1.41,-0.73,-1.58,-0.37,-0.85,-0.08
2022-02-09 17:35:32.2270,0.489,0.574,-0.044,1.41,-0.73,-1.58,-0.49,-1.14,0.01
2022-02-09 17:35:32.2280,0.538,0.528,-0.058,1.41,-0.73,-1.58,-0.57,-1.38,0.12
2022-02-09 17:35:32.2270,0.583,0.497,-0.028,1.41,-0.73,-1.58,-0.66,-1.54,0.26
2022-02-09 17:35:32.2300,0.597,0.461,0.063,1.41,-0.73,-1.58,-0.78,-1.59,0.43
2022-02-09 17:35:32.2330,0.582,0.4,0.136,1.41,-0.73,-1.58,-0.88,-1.54,0.61
2022-02-09 17:35:32.2300,0.566,0.358,0.13,1.41,-0.73,-1.58,-0.95,-1.44,0.79
2022-02-09 17:35:32.2330,0.549,0.318,0.115,1.41,-0.73,-1.58,-1.0,-1.32,0.97
2022-02-09 17:35:32.2340,0.54,0.282,0.108,1.41,-0.73,-1.58,-1.06,-1.16,1.13
2022-02-09 17:35:32.2330,0.097,-0.594,-0.81,1.41,-0.73,-1.58,-0.01,0.01,-0.04
2022-02-09 17:35:32.2350,0.097,-0.633,-0.807,1.41,-0.73,-1.58,0.11,0.13,0.06
2022-02-09 17:35:32.2370,0.091,-0.667,-0.752,1.41,-0.73,-1.58,0.06,0.21,0.12
2022-02-09 17:35:32.2380,0.069,-0.622,-0.719,1.41,-0.73,-1.58,-0.05,0.16,0.06
2022-02-09 17:35:32.2380,0.077,-0.61,-0.732,1.41,-0.73,-1.58,-0.09,0.04,0.01
2022-02-09 17:35:32.2400,0.113,-0.633,-0.75,1.41,-0.73,-1.58,-0.08,-0.05,0.03
2022-02-09 17:35:32.2410,0.145,-0.639,-0.752,1.41,-0.73,-1.58,-0.09,-0.06,0.09
2022-02-09 17:35:32.2420,0.145,-0.62,-0.751,1.41,-0.73,-1.58,-0.1,-0.06,0.13
2022-02-09 17:35:32.2440,0.12,-0.604,-0.766,1.41,-0.73,-1.58,-0.11,-0.16,0.13
2022-02-09 17:35:32.2440,0.087,-0.602,-0.771,1.41,-0.73,-1.58,-0.15,-0.27,0.08
2022-02-09 17:35:32.2450,0.064,-0.605,-0.761,1.41,-0.73,-1.58,-0.2,-0.34,0.05
2022-02-09 17:35:32.2470,0.062,-0.613,-0.758,1.41,-0.73,-1.58,-0.24,-0.33,0.06
2022-02-09 17:35:32.2470,0.059,-0.623,-0.766,1.41,-0.73,-1.58,-0.25,-0.24,0.1
2022-02-09 17:35:32.2490,0.05,-0.616,-0.771,1.41,-0.73,-1.58,-0.22,-0.13,0.12
2022-02-09 17:35:32.2500,0.05,-0.601,-0.782,1.41,-0.73,-1.58,-0.17,-0.07,0.11
2022-02-09 17:35:32.2510,0.058,-0.6,-0.808,1.41,-0.73,-1.58,-0.14,-0.06,0.12
2022-02-09 17:35:32.2540,0.059,-0.609,-0.801,1.41,-0.73,-1.58,-0.11,0.01,0.15
2022-02-09 17:35:32.2530,0.053,-0.604,-0.793,1.41,-0.73,-1.58,-0.11,0.03,0.14
2022-02-09 17:35:32.2540,0.042,-0.6,-0.797,1.41,-0.73,-1.58,-0.12,-0.0,0.15
2022-02-09 17:35:32.2550,0.026,-0.608,-0.794,1.41,-0.73,-1.58,-0.14,-0.05,0.14
2022-02-09 17:35:32.2560,0.017,-0.602,-0.796,1.41,-0.73,-1.58,-0.18,-0.09,0.11
2022-02-09 17:35:32.2560,0.009,-0.588,-0.801,1.41,-0.73,-1.58,-0.2,-0.11,0.07
2022-02-09 17:35:32.2570,0.008,-0.587,-0.801,1.41,-0.73,-1.58,-0.22,-0.09,0.05
2022-02-09 17:35:32.2640,0.016,-0.596,-0.794,1.41,-0.73,-1.58,-0.23,-0.03,0.05
2022-02-09 17:35:32.2600,0.036,-0.599,-0.808,1.41,-0.73,-1.58,-0.24,-0.05,0.05
2022-02-09 17:35:32.2630,0.047,-0.593,-0.83,1.41,-0.73,-1.58,-0.27,-0.12,0.04
2022-02-09 17:35:32.2620,0.044,-0.596,-0.843,1.41,-0.73,-1.58,-0.27,-0.17,0.04
2022-02-09 17:35:32.2680,0.031,-0.603,-0.842,1.41,-0.73,-1.58,-0.27,-0.15,0.05
2022-02-09 17:35:32.2640,0.016,-0.603,-0.839,1.41,-0.73,-1.58,-0.25,-0.12,0.05
2022-02-09 17:35:32.2660,0.002,-0.588,-0.849,1.41,-0.73,-1.58,-0.22,-0.08,0.02
2022-02-09 17:35:32.2660,-0.008,-0.573,-0.855,1.41,-0.73,-1.58,-0.17,-0.05,-0.02
Time,-0.014,-0.565,-0.856,1.41,-0.73,-1.58,-0.09,0.04,-0.07
Time,-0.016,-0.565,-0.856,1.41,-0.73,-1.58,-0.09,0.04,-0.07
2022-02-09 17:35:32.2690,-0.006,-0.572,-0.852,1.41,-0.73,-1.58,-0.04,0.1,-0.07
2022-02-09 17:35:32.2700,0.029,-0.575,-0.854,1.41,-0.73,-1.58,0.02,0.1,-0.05
2022-02-09 17:35:32.2690,0.059,-0.572,-0.867,1.41,-0.73,-1.58,0.06,0.05,-0.04
2022-02-09 17:35:32.2700,0.055,-0.574,-0.862,1.41,-0.73,-1.58,0.09,0.01,-0.04
2022-02-09 17:35:32.2750,0.048,-0.582,-0.835,1.41,-0.73,-1.58,0.09,-0.01,-0.03
2022-02-09 17:35:32.2760,0.042,-0.593,-0.799,1.41,-0.73,-1.58,0.07,0.01,-0.02
2022-02-09 17:35:32.2760,0.031,-0.604,-0.773,1.41,-0.73,-1.58,0.04,0.03,-0.03
2022-02-09 17:35:32.2760,0.016,-0.601,-0.763,1.41,-0.73,-1.58,0.0,0.02,-0.04
2022-02-09 17:35:32.2770,0.004,-0.597,-0.763,1.41,-0.73,-1.58,-0.04,0.01,-0.06
2022-02-09 17:35:32.2770,0.0,-0.599,-0.758,1.41,-0.73,-1.58,-0.09,0.05,-0.07
2022-02-09 17:35:32.2820,-0.004,-0.595,-0.747,1.41,-0.73,-1.58,-0.13,0.1,-0.08
2022-02-09 17:35:32.2820,0.008,-0.593,-0.753,1.65,0.32,-1.73,-0.16,0.13,-0.08
Time,0.033,-0.581,-0.782,1.65,0.32,-1.73,-0.16,0.11,-0.07
2022-02-09 17:35:32.2830,0.041,-0.561,-0.804,1.65,0.32,-1.73,-0.16,0.06,-0.08
2022-02-09 17:35:32.2840,0.047,-0.554,-0.82,1.65,0.32,-1.73,-0.15,0.02,-0.08
2022-02-09 17:35:32.2850,0.051,-0.557,-0.822,1.65,0.32,-1.73,-0.14,0.01,-0.07
2022-02-09 17:35:32.2870,0.051,-0.559,-0.816,1.65,0.32,-1.73,-0.14,0.02,-0.05
2022-02-09 17:35:32.2880,0.045,-0.562,-0.808,1.65,0.32,-1.73,-0.14,0.04,-0.04
2022-02-09 17:35:32.2900,0.04,-0.563,-0.796,1.65,0.32,-1.73,-0.14,0.08,-0.03
2022-02-09 17:35:32.2910,0.034,-0.572,-0.797,1.65,0.32,-1.73,-0.14,0.09,-0.04
2022-02-09 17:35:32.2910,0.029,-0.575,-0.81,1.65,0.32,-1.73,-0.15,0.08,-0.05
2022-02-09 17:35:32.2920,0.04,-0.565,-0.817,1.65,0.32,-1.73,-0.15,0.08,-0.05
2022-02-09 17:35:32.2940,0.063,-0.556,-0.825,1.65,0.32,-1.73,-0.14,0.06,-0.05
2022-02-09 17:35:32.2940,0.069,-0.561,-0.829,1.65,0.32,-1.73,-0.12,0.05,-0.02
2022-02-09 17:35:32.2960,0.067,-0.57,-0.829,1.65,0.32,-1.73,-0.1,0.06,0.01
Time,0.065,-0.565,-0.829,1.65,0.32,-1.73,-0.08,0.06,0.01
2022-02-09 17:35:32.2960,0.064,-0.559,-0.84,1.65,0.32,-1.73,-0.05,0.03,0.01
2022-02-09 17:35:32.3110,0.061,-0.553,-0.843,1.65,0.32,-1.73,-0.03,0.0,0.0
2022-02-09 17:35:32.3210,0.062,-0.561,-0.837,1.65,0.32,-1.73,-0.03,-0.02,0.0
2022-02-09 17:35:32.3310,0.063,-0.573,-0.825,1.65,0.32,-1.73,-0.05,-0.05,0.01
2022-02-09 17:35:32.3410,0.06,-0.582,-0.817,1.65,0.32,-1.73,-0.08,-0.07,0.01
2022-02-09 17:35:32.3510,0.053,-0.585,-0.82,1.65,0.32,-1.73,-0.1,-0.11,0.0
2022-02-09 17:35:32.3610,0.043,-0.583,-0.828,1.65,0.32,-1.73,-0.12,-0.12,0.01
Time,0.035,-0.577,-0.831,1.65,0.32,-1.73,-0.12,-0.1,0.02
2022-02-09 17:35:32.3810,0.032,-0.56,-0.838,1.65,0.32,-1.73,-0.1,-0.08,0.01
2022-02-09 17:35:32.3920,0.033,-0.551,-0.848,1.65,0.32,-1.73,-0.07,-0.06,0.0
2022-02-09 17:35:32.4020,0.029,-0.555,-0.849,1.96,1.18,-1.9,-0.06,-0.03,0.01
2022-02-09 17:35:32.4120,0.018,-0.553,-0.845,0.14,1.99,-0.97,-0.06,-0.01,-0.0
Time,0.011,-0.546,-0.846,-3.48,-4.25,2.03,-0.05,-0.01,-0.02
Time,0.019,-0.551,-0.843,3.75,3.19,-0.97,-0.05,-0.0,-0.04
2022-02-09 17:35:32.4420,0.031,-0.559,-0.839,-4.9,-3.5,0.59,-0.06,0.01,-0.04
2022-02-09 17:35:32.4520,0.041,-0.557,-0.847,0.03,2.69,-1.01,-0.04,0.03,-0.03
2022-02-09 17:35:32.4620,0.043,-0.554,-0.85,0.28,-2.42,0.21,-0.02,0.07,-0.03
2022-02-09 17:35:32.4720,0.04,-0.56,-0.842,-2.26,4.69,-1.39,-0.02,0.1,-0.03
2022-02-09 17:35:32.4820,0.034,-0.569,-0.831,0.33,-0.14,-0.78,-0.03,0.15,-0.02
Time,0.033,-0.573,-0.813,1.03,-2.65,7.9,-0.04,0.21,-0.01
2022-02-09 17:35:32.5020,0.034,-0.569,-0.806,-1.24,5.31,-0.34,-0.05,0.25,-0.01
2022-02-09 17:35:32.5120,0.038,-0.561,-0.812,-1.59,-6.15,1.07,-0.03,0.26,-0.03
2022-02-09 17:35:32.5220,0.043,-0.556,-0.837,-2.69,0.56,3.8,0.02,0.22,-0.04
2022-02-09 17:35:32.5330,0.05,-0.56,-0.847,7.18,-4.1,1.73,0.04,0.17,-0.03
2022-02-09 17:35:32.5430,0.052,-0.56,-0.839,0.18,1.29,1.12,0.04,0.15,-0.04
2022-02-09 17:35:32.5530,0.058,-0.562,-0.83,-7.08,-2.18,1.82,0.04,0.12,-0.03
2022-02-09 17:35:32.5630,0.064,-0.559,-0.827,4.4,-1.28,1.02,0.05,0.1,-0.02
2022-02-09 17:35:32.5730,0.069,-0.555,-0.828,0.42,1.42,-0.29,0.06,0.11,-0.02
2022-02-09 17:35:32.5830,0.077,-0.557,-0.83,-6.44,-2.81,-8.69,0.09,0.14,0.0
2022-02-09 17:35:32.5930,0.082,-0.559,-0.834,2.51,1.79,-1.52,0.11,0.17,0.03
2022-02-09 17:35:32.6030,0.08,-0.557,-0.832,0.97,3.46,-0.58,0.13,0.17,0.04
2022-02-09 17:35:32.6130,0.078,-0.559,-0.829,-1.68,-4.55,3.9,0.13,0.17,0.04
2022-02-09 17:35:32.6230,0.083,-0.563,-0.824,-1.13,0.17,-0.37,0.14,0.19,0.05
Time,0.088,-0.568,-0.818,0.12,-0.11,0.4,0.13,0.23,0.08
2022-02-09 17:35:32.6430,0.089,-0.576,-0.818,-0.46,-0.09,0.01,0.15,0.3,0.11
2022-02-09 17:35:32.6540,0.079,-0.573,-0.82,-0.11,0.06,-0.15,0.17,0.34,0.14
2022-02-09 17:35:32.6610,0.062,-0.568,-0.826,-0.23,0.08,-0.03,0.19,0.37,0.14
2022-02-09 17:35:32.6700,0.052,-0.567,-0.826,-0.06,0.01,0.03,0.22,0.43,0.15
2022-02-09 17:35:32.6810,0.055,-0.566,-0.824,0.02,0.01,0.02,0.28,0.52,0.14
2022-02-09 17:35:32.6910,0.061,-0.554,-0.818,-0.01,-0.08,0.01,0.43,0.6,0.11
2022-02-09 17:35:32.7020,0.06,-0.556,-0.829,-0.01,-0.19,0.06,0.38,0.53,0.04
2022-02-09 17:35:32.7110,0.07,-0.56,-0.795,0.06,-0.22,0.02,0.3,0.42,-0.02
2022-02-09 17:35:32.7210,0.099,-0.589,-0.798,-0.12,-0.07,-0.21,0.19,0.23,-0.05
2022-02-09 17:35:32.7310,0.116,-0.588,-0.798,-0.35,0.12,-0.12,0.08,0.06,-0.05
2022-02-09 17:35:32.7410,0.124,-0.583,-0.799,-0.49,0.05,-0.15,0.0,-0.07,-0.06
2022-02-09 17:35:32.7510,0.118,-0.582,-0.809,-0.51,0.02,-0.09,-0.05,-0.19,-0.06
2022-02-09 17:35:32.7610,0.111,-0.589,-0.808,-0.44,0.03,-0.02,-0.08,-0.26,-0.07
2022-02-09 17:35:32.7710,0.109,-0.6,-0.797,-0.41,0.14,-0.09,-0.14,-0.3,-0.06
2022-02-09 17:35:32.7810,0.102,-0.605,-0.788,-0.41,0.24,-0.21,-0.18,-0.3,-0.02
2022-02-09 17:35:32.7910,0.083,-0.604,-0.784,-0.31,0.26,-0.29,-0.14,-0.18,0.03
2022-02-09 17:35:32.8020,0.074,-0.614,-0.784,-0.15,0.33,-0.33,-0.01,-0.01,0.05
2022-02-09 17:35:32.8120,0.073,-0.583,-0.799,-0.11,0.31,-0.26,0.05,0.06,0.03
2022-02-09 17:35:32.8220,0.084,-0.563,-0.794,-0.13,-0.06,-0.16,0.03,0.06,0.04
